trials.thisRepN,trials.thisTrialN,trials.thisN,trials.thisIndex,trials.ran,Colourcodes,participant,session,date,expName,psychopyVersion,OS,frameRate,study_id,trials_4.thisRepN,trials_4.thisTrialN,trials_4.thisN,trials_4.thisIndex,trials_4.ran,StimulusPos,key_resp.keys,key_resp.rt,key_resp_2.keys,key_resp_2.rt,key_resp_15.keys,key_resp_15.rt,key_resp_17.keys,key_resp_17.rt,key_resp_9.keys,key_resp_9.rt,key_resp_10.keys,key_resp_10.rt,Circle1_col,Ecc,Circle2_col,similarity,response_time,mouse_5.x,mouse_5.y,mouse_5.leftButton,mouse_5.midButton,mouse_5.rightButton,mouse_5.clicked_name,mouse_10.x,mouse_10.y,mouse_10.leftButton,mouse_10.midButton,mouse_10.rightButton,mouse_10.clicked_name,mouse_7.x,mouse_7.y,mouse_7.leftButton,mouse_7.midButton,mouse_7.rightButton,catchnumberprac,mouse_6.x,mouse_6.y,mouse_6.leftButton,mouse_6.midButton,mouse_6.rightButton,duringprac.thisRepN,duringprac.thisTrialN,duringprac.thisN,duringprac.thisIndex,duringprac.ran,mouse_7.clicked_name,catchprac,mouse_6.clicked_name,key_resp_22.keys,key_resp_22.rt,Circle1_colour,Circle2_colour,mouse.x,mouse.y,mouse.leftButton,mouse.midButton,mouse.rightButton,mouse.clicked_name,mouse_2.x,mouse_2.y,mouse_2.leftButton,mouse_2.midButton,mouse_2.rightButton,mouse_2.clicked_name,mouse_3.x,mouse_3.y,mouse_3.leftButton,mouse_3.midButton,mouse_3.rightButton,catchresponse,catchnumber,response_time_catch,Catch,mouse_11.x,mouse_11.y,mouse_11.leftButton,mouse_11.midButton,mouse_11.rightButton,trials_2.thisRepN,trials_2.thisTrialN,trials_2.thisN,trials_2.thisIndex,trials_2.ran,Colourpair,Temporder,mouse_3.clicked_name,mouse_11.clicked_name,trials_3.thisRepN,trials_3.thisTrialN,trials_3.thisN,trials_3.thisIndex,trials_3.ran,key_resp_instr_Ishi.keys,key_resp_instr_Ishi.rt,Ishi_trial_keyresp.keys,Ishi_trial_keyresp.rt,Ishi_textbox.text,Ishi_loop.thisRepN,Ishi_loop.thisTrialN,Ishi_loop.thisN,Ishi_loop.thisIndex,Ishi_loop.ran,imageaddress,textbox.text,mouse_4.x,mouse_4.y,mouse_4.leftButton,mouse_4.midButton,mouse_4.rightButton,mouse_4.clicked_name,textbox_2.text,mouse_8.x,mouse_8.y,mouse_8.leftButton,mouse_8.midButton,mouse_8.rightButton,mouse_8.clicked_name,textbox_3.text,mouse_9.x,mouse_9.y,mouse_9.leftButton,mouse_9.midButton,mouse_9.rightButton,mouse_9.clicked_name,textbox_4.text,mouse_12.x,mouse_12.y,mouse_12.leftButton,mouse_12.midButton,mouse_12.rightButton,mouse_12.clicked_name,textbox_5.text,mouse_13.x,mouse_13.y,mouse_13.leftButton,mouse_13.midButton,mouse_13.rightButton,mouse_13.clicked_name,textbox_6.text,mouse_14.x,mouse_14.y,mouse_14.leftButton,mouse_14.midButton,mouse_14.rightButton,mouse_14.clicked_name,textbox_7.text,mouse_15.x,mouse_15.y,mouse_15.leftButton,mouse_15.midButton,mouse_15.rightButton,mouse_15.clicked_name
0,0,0,32,1,,615efa227a9938e11616d53c,62bbfa16145238a11f62eca6,2022-06-29_09h07.48.749,Colour_Asymmetry_Pilot,2022.1.3,Win32,59.76214666,62bbe60bf3d75ef465d3e404,,,,,,,,,,,,,,,,,,,,,,,,,,,,,,,,,,,,,,,,,,,,,,,,,,,,,,,,,,,,,,,,,,,,,,,,,,,,,,,,,,,,,,,,,,,,,,,,,,,,,,,,,,,,,,,,,,,,,,,,,,,,,,,,,,,,,,,,,,,,,,,,,,,,,,,,,,,,,,
0,1,1,35,1,,615efa227a9938e11616d53c,62bbfa16145238a11f62eca6,2022-06-29_09h07.48.749,Colour_Asymmetry_Pilot,2022.1.3,Win32,59.76214666,62bbe60bf3d75ef465d3e404,,,,,,,,,,,,,,,,,,,,,,,,,,,,,,,,,,,,,,,,,,,,,,,,,,,,,,,,,,,,,,,,,,,,,,,,,,,,,,,,,,,,,,,,,,,,,,,,,,,,,,,,,,,,,,,,,,,,,,,,,,,,,,,,,,,,,,,,,,,,,,,,,,,,,,,,,,,,,,
0,2,2,53,1,,615efa227a9938e11616d53c,62bbfa16145238a11f62eca6,2022-06-29_09h07.48.749,Colour_Asymmetry_Pilot,2022.1.3,Win32,59.76214666,62bbe60bf3d75ef465d3e404,,,,,,,,,,,,,,,,,,,,,,,,,,,,,,,,,,,,,,,,,,,,,,,,,,,,,,,,,,,,,,,,,,,,,,,,,,,,,,,,,,,,,,,,,,,,,,,,,,,,,,,,,,,,,,,,,,,,,,,,,,,,,,,,,,,,,,,,,,,,,,,,,,,,,,,,,,,,,,
0,3,3,65,1,,615efa227a9938e11616d53c,62bbfa16145238a11f62eca6,2022-06-29_09h07.48.749,Colour_Asymmetry_Pilot,2022.1.3,Win32,59.76214666,62bbe60bf3d75ef465d3e404,,,,,,,,,,,,,,,,,,,,,,,,,,,,,,,,,,,,,,,,,,,,,,,,,,,,,,,,,,,,,,,,,,,,,,,,,,,,,,,,,,,,,,,,,,,,,,,,,,,,,,,,,,,,,,,,,,,,,,,,,,,,,,,,,,,,,,,,,,,,,,,,,,,,,,,,,,,,,,
0,4,4,83,1,,615efa227a9938e11616d53c,62bbfa16145238a11f62eca6,2022-06-29_09h07.48.749,Colour_Asymmetry_Pilot,2022.1.3,Win32,59.76214666,62bbe60bf3d75ef465d3e404,,,,,,,,,,,,,,,,,,,,,,,,,,,,,,,,,,,,,,,,,,,,,,,,,,,,,,,,,,,,,,,,,,,,,,,,,,,,,,,,,,,,,,,,,,,,,,,,,,,,,,,,,,,,,,,,,,,,,,,,,,,,,,,,,,,,,,,,,,,,,,,,,,,,,,,,,,,,,,
0,5,5,30,1,,615efa227a9938e11616d53c,62bbfa16145238a11f62eca6,2022-06-29_09h07.48.749,Colour_Asymmetry_Pilot,2022.1.3,Win32,59.76214666,62bbe60bf3d75ef465d3e404,,,,,,,,,,,,,,,,,,,,,,,,,,,,,,,,,,,,,,,,,,,,,,,,,,,,,,,,,,,,,,,,,,,,,,,,,,,,,,,,,,,,,,,,,,,,,,,,,,,,,,,,,,,,,,,,,,,,,,,,,,,,,,,,,,,,,,,,,,,,,,,,,,,,,,,,,,,,,,
0,6,6,56,1,,615efa227a9938e11616d53c,62bbfa16145238a11f62eca6,2022-06-29_09h07.48.749,Colour_Asymmetry_Pilot,2022.1.3,Win32,59.76214666,62bbe60bf3d75ef465d3e404,,,,,,,,,,,,,,,,,,,,,,,,,,,,,,,,,,,,,,,,,,,,,,,,,,,,,,,,,,,,,,,,,,,,,,,,,,,,,,,,,,,,,,,,,,,,,,,,,,,,,,,,,,,,,,,,,,,,,,,,,,,,,,,,,,,,,,,,,,,,,,,,,,,,,,,,,,,,,,
0,7,7,49,1,,615efa227a9938e11616d53c,62bbfa16145238a11f62eca6,2022-06-29_09h07.48.749,Colour_Asymmetry_Pilot,2022.1.3,Win32,59.76214666,62bbe60bf3d75ef465d3e404,,,,,,,,,,,,,,,,,,,,,,,,,,,,,,,,,,,,,,,,,,,,,,,,,,,,,,,,,,,,,,,,,,,,,,,,,,,,,,,,,,,,,,,,,,,,,,,,,,,,,,,,,,,,,,,,,,,,,,,,,,,,,,,,,,,,,,,,,,,,,,,,,,,,,,,,,,,,,,
0,8,8,28,1,,615efa227a9938e11616d53c,62bbfa16145238a11f62eca6,2022-06-29_09h07.48.749,Colour_Asymmetry_Pilot,2022.1.3,Win32,59.76214666,62bbe60bf3d75ef465d3e404,,,,,,,,,,,,,,,,,,,,,,,,,,,,,,,,,,,,,,,,,,,,,,,,,,,,,,,,,,,,,,,,,,,,,,,,,,,,,,,,,,,,,,,,,,,,,,,,,,,,,,,,,,,,,,,,,,,,,,,,,,,,,,,,,,,,,,,,,,,,,,,,,,,,,,,,,,,,,,
0,9,9,20,1,,615efa227a9938e11616d53c,62bbfa16145238a11f62eca6,2022-06-29_09h07.48.749,Colour_Asymmetry_Pilot,2022.1.3,Win32,59.76214666,62bbe60bf3d75ef465d3e404,,,,,,,,,,,,,,,,,,,,,,,,,,,,,,,,,,,,,,,,,,,,,,,,,,,,,,,,,,,,,,,,,,,,,,,,,,,,,,,,,,,,,,,,,,,,,,,,,,,,,,,,,,,,,,,,,,,,,,,,,,,,,,,,,,,,,,,,,,,,,,,,,,,,,,,,,,,,,,
0,10,10,44,1,,615efa227a9938e11616d53c,62bbfa16145238a11f62eca6,2022-06-29_09h07.48.749,Colour_Asymmetry_Pilot,2022.1.3,Win32,59.76214666,62bbe60bf3d75ef465d3e404,,,,,,,,,,,,,,,,,,,,,,,,,,,,,,,,,,,,,,,,,,,,,,,,,,,,,,,,,,,,,,,,,,,,,,,,,,,,,,,,,,,,,,,,,,,,,,,,,,,,,,,,,,,,,,,,,,,,,,,,,,,,,,,,,,,,,,,,,,,,,,,,,,,,,,,,,,,,,,
0,11,11,46,1,,615efa227a9938e11616d53c,62bbfa16145238a11f62eca6,2022-06-29_09h07.48.749,Colour_Asymmetry_Pilot,2022.1.3,Win32,59.76214666,62bbe60bf3d75ef465d3e404,,,,,,,,,,,,,,,,,,,,,,,,,,,,,,,,,,,,,,,,,,,,,,,,,,,,,,,,,,,,,,,,,,,,,,,,,,,,,,,,,,,,,,,,,,,,,,,,,,,,,,,,,,,,,,,,,,,,,,,,,,,,,,,,,,,,,,,,,,,,,,,,,,,,,,,,,,,,,,
0,12,12,70,1,,615efa227a9938e11616d53c,62bbfa16145238a11f62eca6,2022-06-29_09h07.48.749,Colour_Asymmetry_Pilot,2022.1.3,Win32,59.76214666,62bbe60bf3d75ef465d3e404,,,,,,,,,,,,,,,,,,,,,,,,,,,,,,,,,,,,,,,,,,,,,,,,,,,,,,,,,,,,,,,,,,,,,,,,,,,,,,,,,,,,,,,,,,,,,,,,,,,,,,,,,,,,,,,,,,,,,,,,,,,,,,,,,,,,,,,,,,,,,,,,,,,,,,,,,,,,,,
0,13,13,74,1,,615efa227a9938e11616d53c,62bbfa16145238a11f62eca6,2022-06-29_09h07.48.749,Colour_Asymmetry_Pilot,2022.1.3,Win32,59.76214666,62bbe60bf3d75ef465d3e404,,,,,,,,,,,,,,,,,,,,,,,,,,,,,,,,,,,,,,,,,,,,,,,,,,,,,,,,,,,,,,,,,,,,,,,,,,,,,,,,,,,,,,,,,,,,,,,,,,,,,,,,,,,,,,,,,,,,,,,,,,,,,,,,,,,,,,,,,,,,,,,,,,,,,,,,,,,,,,
0,14,14,60,1,,615efa227a9938e11616d53c,62bbfa16145238a11f62eca6,2022-06-29_09h07.48.749,Colour_Asymmetry_Pilot,2022.1.3,Win32,59.76214666,62bbe60bf3d75ef465d3e404,,,,,,,,,,,,,,,,,,,,,,,,,,,,,,,,,,,,,,,,,,,,,,,,,,,,,,,,,,,,,,,,,,,,,,,,,,,,,,,,,,,,,,,,,,,,,,,,,,,,,,,,,,,,,,,,,,,,,,,,,,,,,,,,,,,,,,,,,,,,,,,,,,,,,,,,,,,,,,
0,15,15,39,1,,615efa227a9938e11616d53c,62bbfa16145238a11f62eca6,2022-06-29_09h07.48.749,Colour_Asymmetry_Pilot,2022.1.3,Win32,59.76214666,62bbe60bf3d75ef465d3e404,,,,,,,,,,,,,,,,,,,,,,,,,,,,,,,,,,,,,,,,,,,,,,,,,,,,,,,,,,,,,,,,,,,,,,,,,,,,,,,,,,,,,,,,,,,,,,,,,,,,,,,,,,,,,,,,,,,,,,,,,,,,,,,,,,,,,,,,,,,,,,,,,,,,,,,,,,,,,,
0,16,16,50,1,,615efa227a9938e11616d53c,62bbfa16145238a11f62eca6,2022-06-29_09h07.48.749,Colour_Asymmetry_Pilot,2022.1.3,Win32,59.76214666,62bbe60bf3d75ef465d3e404,,,,,,,,,,,,,,,,,,,,,,,,,,,,,,,,,,,,,,,,,,,,,,,,,,,,,,,,,,,,,,,,,,,,,,,,,,,,,,,,,,,,,,,,,,,,,,,,,,,,,,,,,,,,,,,,,,,,,,,,,,,,,,,,,,,,,,,,,,,,,,,,,,,,,,,,,,,,,,
0,17,17,24,1,,615efa227a9938e11616d53c,62bbfa16145238a11f62eca6,2022-06-29_09h07.48.749,Colour_Asymmetry_Pilot,2022.1.3,Win32,59.76214666,62bbe60bf3d75ef465d3e404,,,,,,,,,,,,,,,,,,,,,,,,,,,,,,,,,,,,,,,,,,,,,,,,,,,,,,,,,,,,,,,,,,,,,,,,,,,,,,,,,,,,,,,,,,,,,,,,,,,,,,,,,,,,,,,,,,,,,,,,,,,,,,,,,,,,,,,,,,,,,,,,,,,,,,,,,,,,,,
0,18,18,81,1,,615efa227a9938e11616d53c,62bbfa16145238a11f62eca6,2022-06-29_09h07.48.749,Colour_Asymmetry_Pilot,2022.1.3,Win32,59.76214666,62bbe60bf3d75ef465d3e404,,,,,,,,,,,,,,,,,,,,,,,,,,,,,,,,,,,,,,,,,,,,,,,,,,,,,,,,,,,,,,,,,,,,,,,,,,,,,,,,,,,,,,,,,,,,,,,,,,,,,,,,,,,,,,,,,,,,,,,,,,,,,,,,,,,,,,,,,,,,,,,,,,,,,,,,,,,,,,
0,19,19,22,1,,615efa227a9938e11616d53c,62bbfa16145238a11f62eca6,2022-06-29_09h07.48.749,Colour_Asymmetry_Pilot,2022.1.3,Win32,59.76214666,62bbe60bf3d75ef465d3e404,,,,,,,,,,,,,,,,,,,,,,,,,,,,,,,,,,,,,,,,,,,,,,,,,,,,,,,,,,,,,,,,,,,,,,,,,,,,,,,,,,,,,,,,,,,,,,,,,,,,,,,,,,,,,,,,,,,,,,,,,,,,,,,,,,,,,,,,,,,,,,,,,,,,,,,,,,,,,,
0,20,20,62,1,,615efa227a9938e11616d53c,62bbfa16145238a11f62eca6,2022-06-29_09h07.48.749,Colour_Asymmetry_Pilot,2022.1.3,Win32,59.76214666,62bbe60bf3d75ef465d3e404,,,,,,,,,,,,,,,,,,,,,,,,,,,,,,,,,,,,,,,,,,,,,,,,,,,,,,,,,,,,,,,,,,,,,,,,,,,,,,,,,,,,,,,,,,,,,,,,,,,,,,,,,,,,,,,,,,,,,,,,,,,,,,,,,,,,,,,,,,,,,,,,,,,,,,,,,,,,,,
0,21,21,72,1,,615efa227a9938e11616d53c,62bbfa16145238a11f62eca6,2022-06-29_09h07.48.749,Colour_Asymmetry_Pilot,2022.1.3,Win32,59.76214666,62bbe60bf3d75ef465d3e404,,,,,,,,,,,,,,,,,,,,,,,,,,,,,,,,,,,,,,,,,,,,,,,,,,,,,,,,,,,,,,,,,,,,,,,,,,,,,,,,,,,,,,,,,,,,,,,,,,,,,,,,,,,,,,,,,,,,,,,,,,,,,,,,,,,,,,,,,,,,,,,,,,,,,,,,,,,,,,
0,22,22,91,1,,615efa227a9938e11616d53c,62bbfa16145238a11f62eca6,2022-06-29_09h07.48.749,Colour_Asymmetry_Pilot,2022.1.3,Win32,59.76214666,62bbe60bf3d75ef465d3e404,,,,,,,,,,,,,,,,,,,,,,,,,,,,,,,,,,,,,,,,,,,,,,,,,,,,,,,,,,,,,,,,,,,,,,,,,,,,,,,,,,,,,,,,,,,,,,,,,,,,,,,,,,,,,,,,,,,,,,,,,,,,,,,,,,,,,,,,,,,,,,,,,,,,,,,,,,,,,,
0,23,23,18,1,,615efa227a9938e11616d53c,62bbfa16145238a11f62eca6,2022-06-29_09h07.48.749,Colour_Asymmetry_Pilot,2022.1.3,Win32,59.76214666,62bbe60bf3d75ef465d3e404,,,,,,,,,,,,,,,,,,,,,,,,,,,,,,,,,,,,,,,,,,,,,,,,,,,,,,,,,,,,,,,,,,,,,,,,,,,,,,,,,,,,,,,,,,,,,,,,,,,,,,,,,,,,,,,,,,,,,,,,,,,,,,,,,,,,,,,,,,,,,,,,,,,,,,,,,,,,,,
0,24,24,58,1,,615efa227a9938e11616d53c,62bbfa16145238a11f62eca6,2022-06-29_09h07.48.749,Colour_Asymmetry_Pilot,2022.1.3,Win32,59.76214666,62bbe60bf3d75ef465d3e404,,,,,,,,,,,,,,,,,,,,,,,,,,,,,,,,,,,,,,,,,,,,,,,,,,,,,,,,,,,,,,,,,,,,,,,,,,,,,,,,,,,,,,,,,,,,,,,,,,,,,,,,,,,,,,,,,,,,,,,,,,,,,,,,,,,,,,,,,,,,,,,,,,,,,,,,,,,,,,
0,25,25,29,1,,615efa227a9938e11616d53c,62bbfa16145238a11f62eca6,2022-06-29_09h07.48.749,Colour_Asymmetry_Pilot,2022.1.3,Win32,59.76214666,62bbe60bf3d75ef465d3e404,,,,,,,,,,,,,,,,,,,,,,,,,,,,,,,,,,,,,,,,,,,,,,,,,,,,,,,,,,,,,,,,,,,,,,,,,,,,,,,,,,,,,,,,,,,,,,,,,,,,,,,,,,,,,,,,,,,,,,,,,,,,,,,,,,,,,,,,,,,,,,,,,,,,,,,,,,,,,,
0,26,26,88,1,,615efa227a9938e11616d53c,62bbfa16145238a11f62eca6,2022-06-29_09h07.48.749,Colour_Asymmetry_Pilot,2022.1.3,Win32,59.76214666,62bbe60bf3d75ef465d3e404,,,,,,,,,,,,,,,,,,,,,,,,,,,,,,,,,,,,,,,,,,,,,,,,,,,,,,,,,,,,,,,,,,,,,,,,,,,,,,,,,,,,,,,,,,,,,,,,,,,,,,,,,,,,,,,,,,,,,,,,,,,,,,,,,,,,,,,,,,,,,,,,,,,,,,,,,,,,,,
0,27,27,31,1,,615efa227a9938e11616d53c,62bbfa16145238a11f62eca6,2022-06-29_09h07.48.749,Colour_Asymmetry_Pilot,2022.1.3,Win32,59.76214666,62bbe60bf3d75ef465d3e404,,,,,,,,,,,,,,,,,,,,,,,,,,,,,,,,,,,,,,,,,,,,,,,,,,,,,,,,,,,,,,,,,,,,,,,,,,,,,,,,,,,,,,,,,,,,,,,,,,,,,,,,,,,,,,,,,,,,,,,,,,,,,,,,,,,,,,,,,,,,,,,,,,,,,,,,,,,,,,
0,28,28,33,1,,615efa227a9938e11616d53c,62bbfa16145238a11f62eca6,2022-06-29_09h07.48.749,Colour_Asymmetry_Pilot,2022.1.3,Win32,59.76214666,62bbe60bf3d75ef465d3e404,,,,,,,,,,,,,,,,,,,,,,,,,,,,,,,,,,,,,,,,,,,,,,,,,,,,,,,,,,,,,,,,,,,,,,,,,,,,,,,,,,,,,,,,,,,,,,,,,,,,,,,,,,,,,,,,,,,,,,,,,,,,,,,,,,,,,,,,,,,,,,,,,,,,,,,,,,,,,,
0,29,29,73,1,,615efa227a9938e11616d53c,62bbfa16145238a11f62eca6,2022-06-29_09h07.48.749,Colour_Asymmetry_Pilot,2022.1.3,Win32,59.76214666,62bbe60bf3d75ef465d3e404,,,,,,,,,,,,,,,,,,,,,,,,,,,,,,,,,,,,,,,,,,,,,,,,,,,,,,,,,,,,,,,,,,,,,,,,,,,,,,,,,,,,,,,,,,,,,,,,,,,,,,,,,,,,,,,,,,,,,,,,,,,,,,,,,,,,,,,,,,,,,,,,,,,,,,,,,,,,,,
0,30,30,13,1,,615efa227a9938e11616d53c,62bbfa16145238a11f62eca6,2022-06-29_09h07.48.749,Colour_Asymmetry_Pilot,2022.1.3,Win32,59.76214666,62bbe60bf3d75ef465d3e404,,,,,,,,,,,,,,,,,,,,,,,,,,,,,,,,,,,,,,,,,,,,,,,,,,,,,,,,,,,,,,,,,,,,,,,,,,,,,,,,,,,,,,,,,,,,,,,,,,,,,,,,,,,,,,,,,,,,,,,,,,,,,,,,,,,,,,,,,,,,,,,,,,,,,,,,,,,,,,
0,31,31,6,1,,615efa227a9938e11616d53c,62bbfa16145238a11f62eca6,2022-06-29_09h07.48.749,Colour_Asymmetry_Pilot,2022.1.3,Win32,59.76214666,62bbe60bf3d75ef465d3e404,,,,,,,,,,,,,,,,,,,,,,,,,,,,,,,,,,,,,,,,,,,,,,,,,,,,,,,,,,,,,,,,,,,,,,,,,,,,,,,,,,,,,,,,,,,,,,,,,,,,,,,,,,,,,,,,,,,,,,,,,,,,,,,,,,,,,,,,,,,,,,,,,,,,,,,,,,,,,,
0,32,32,19,1,,615efa227a9938e11616d53c,62bbfa16145238a11f62eca6,2022-06-29_09h07.48.749,Colour_Asymmetry_Pilot,2022.1.3,Win32,59.76214666,62bbe60bf3d75ef465d3e404,,,,,,,,,,,,,,,,,,,,,,,,,,,,,,,,,,,,,,,,,,,,,,,,,,,,,,,,,,,,,,,,,,,,,,,,,,,,,,,,,,,,,,,,,,,,,,,,,,,,,,,,,,,,,,,,,,,,,,,,,,,,,,,,,,,,,,,,,,,,,,,,,,,,,,,,,,,,,,
0,33,33,69,1,,615efa227a9938e11616d53c,62bbfa16145238a11f62eca6,2022-06-29_09h07.48.749,Colour_Asymmetry_Pilot,2022.1.3,Win32,59.76214666,62bbe60bf3d75ef465d3e404,,,,,,,,,,,,,,,,,,,,,,,,,,,,,,,,,,,,,,,,,,,,,,,,,,,,,,,,,,,,,,,,,,,,,,,,,,,,,,,,,,,,,,,,,,,,,,,,,,,,,,,,,,,,,,,,,,,,,,,,,,,,,,,,,,,,,,,,,,,,,,,,,,,,,,,,,,,,,,
0,34,34,0,1,,615efa227a9938e11616d53c,62bbfa16145238a11f62eca6,2022-06-29_09h07.48.749,Colour_Asymmetry_Pilot,2022.1.3,Win32,59.76214666,62bbe60bf3d75ef465d3e404,,,,,,,,,,,,,,,,,,,,,,,,,,,,,,,,,,,,,,,,,,,,,,,,,,,,,,,,,,,,,,,,,,,,,,,,,,,,,,,,,,,,,,,,,,,,,,,,,,,,,,,,,,,,,,,,,,,,,,,,,,,,,,,,,,,,,,,,,,,,,,,,,,,,,,,,,,,,,,
0,35,35,79,1,,615efa227a9938e11616d53c,62bbfa16145238a11f62eca6,2022-06-29_09h07.48.749,Colour_Asymmetry_Pilot,2022.1.3,Win32,59.76214666,62bbe60bf3d75ef465d3e404,,,,,,,,,,,,,,,,,,,,,,,,,,,,,,,,,,,,,,,,,,,,,,,,,,,,,,,,,,,,,,,,,,,,,,,,,,,,,,,,,,,,,,,,,,,,,,,,,,,,,,,,,,,,,,,,,,,,,,,,,,,,,,,,,,,,,,,,,,,,,,,,,,,,,,,,,,,,,,
0,36,36,16,1,,615efa227a9938e11616d53c,62bbfa16145238a11f62eca6,2022-06-29_09h07.48.749,Colour_Asymmetry_Pilot,2022.1.3,Win32,59.76214666,62bbe60bf3d75ef465d3e404,,,,,,,,,,,,,,,,,,,,,,,,,,,,,,,,,,,,,,,,,,,,,,,,,,,,,,,,,,,,,,,,,,,,,,,,,,,,,,,,,,,,,,,,,,,,,,,,,,,,,,,,,,,,,,,,,,,,,,,,,,,,,,,,,,,,,,,,,,,,,,,,,,,,,,,,,,,,,,
0,37,37,41,1,,615efa227a9938e11616d53c,62bbfa16145238a11f62eca6,2022-06-29_09h07.48.749,Colour_Asymmetry_Pilot,2022.1.3,Win32,59.76214666,62bbe60bf3d75ef465d3e404,,,,,,,,,,,,,,,,,,,,,,,,,,,,,,,,,,,,,,,,,,,,,,,,,,,,,,,,,,,,,,,,,,,,,,,,,,,,,,,,,,,,,,,,,,,,,,,,,,,,,,,,,,,,,,,,,,,,,,,,,,,,,,,,,,,,,,,,,,,,,,,,,,,,,,,,,,,,,,
0,38,38,48,1,,615efa227a9938e11616d53c,62bbfa16145238a11f62eca6,2022-06-29_09h07.48.749,Colour_Asymmetry_Pilot,2022.1.3,Win32,59.76214666,62bbe60bf3d75ef465d3e404,,,,,,,,,,,,,,,,,,,,,,,,,,,,,,,,,,,,,,,,,,,,,,,,,,,,,,,,,,,,,,,,,,,,,,,,,,,,,,,,,,,,,,,,,,,,,,,,,,,,,,,,,,,,,,,,,,,,,,,,,,,,,,,,,,,,,,,,,,,,,,,,,,,,,,,,,,,,,,
0,39,39,3,1,,615efa227a9938e11616d53c,62bbfa16145238a11f62eca6,2022-06-29_09h07.48.749,Colour_Asymmetry_Pilot,2022.1.3,Win32,59.76214666,62bbe60bf3d75ef465d3e404,,,,,,,,,,,,,,,,,,,,,,,,,,,,,,,,,,,,,,,,,,,,,,,,,,,,,,,,,,,,,,,,,,,,,,,,,,,,,,,,,,,,,,,,,,,,,,,,,,,,,,,,,,,,,,,,,,,,,,,,,,,,,,,,,,,,,,,,,,,,,,,,,,,,,,,,,,,,,,
0,40,40,47,1,,615efa227a9938e11616d53c,62bbfa16145238a11f62eca6,2022-06-29_09h07.48.749,Colour_Asymmetry_Pilot,2022.1.3,Win32,59.76214666,62bbe60bf3d75ef465d3e404,,,,,,,,,,,,,,,,,,,,,,,,,,,,,,,,,,,,,,,,,,,,,,,,,,,,,,,,,,,,,,,,,,,,,,,,,,,,,,,,,,,,,,,,,,,,,,,,,,,,,,,,,,,,,,,,,,,,,,,,,,,,,,,,,,,,,,,,,,,,,,,,,,,,,,,,,,,,,,
0,41,41,64,1,,615efa227a9938e11616d53c,62bbfa16145238a11f62eca6,2022-06-29_09h07.48.749,Colour_Asymmetry_Pilot,2022.1.3,Win32,59.76214666,62bbe60bf3d75ef465d3e404,,,,,,,,,,,,,,,,,,,,,,,,,,,,,,,,,,,,,,,,,,,,,,,,,,,,,,,,,,,,,,,,,,,,,,,,,,,,,,,,,,,,,,,,,,,,,,,,,,,,,,,,,,,,,,,,,,,,,,,,,,,,,,,,,,,,,,,,,,,,,,,,,,,,,,,,,,,,,,
0,42,42,25,1,,615efa227a9938e11616d53c,62bbfa16145238a11f62eca6,2022-06-29_09h07.48.749,Colour_Asymmetry_Pilot,2022.1.3,Win32,59.76214666,62bbe60bf3d75ef465d3e404,,,,,,,,,,,,,,,,,,,,,,,,,,,,,,,,,,,,,,,,,,,,,,,,,,,,,,,,,,,,,,,,,,,,,,,,,,,,,,,,,,,,,,,,,,,,,,,,,,,,,,,,,,,,,,,,,,,,,,,,,,,,,,,,,,,,,,,,,,,,,,,,,,,,,,,,,,,,,,
0,43,43,59,1,,615efa227a9938e11616d53c,62bbfa16145238a11f62eca6,2022-06-29_09h07.48.749,Colour_Asymmetry_Pilot,2022.1.3,Win32,59.76214666,62bbe60bf3d75ef465d3e404,,,,,,,,,,,,,,,,,,,,,,,,,,,,,,,,,,,,,,,,,,,,,,,,,,,,,,,,,,,,,,,,,,,,,,,,,,,,,,,,,,,,,,,,,,,,,,,,,,,,,,,,,,,,,,,,,,,,,,,,,,,,,,,,,,,,,,,,,,,,,,,,,,,,,,,,,,,,,,
0,44,44,67,1,,615efa227a9938e11616d53c,62bbfa16145238a11f62eca6,2022-06-29_09h07.48.749,Colour_Asymmetry_Pilot,2022.1.3,Win32,59.76214666,62bbe60bf3d75ef465d3e404,,,,,,,,,,,,,,,,,,,,,,,,,,,,,,,,,,,,,,,,,,,,,,,,,,,,,,,,,,,,,,,,,,,,,,,,,,,,,,,,,,,,,,,,,,,,,,,,,,,,,,,,,,,,,,,,,,,,,,,,,,,,,,,,,,,,,,,,,,,,,,,,,,,,,,,,,,,,,,
0,45,45,4,1,,615efa227a9938e11616d53c,62bbfa16145238a11f62eca6,2022-06-29_09h07.48.749,Colour_Asymmetry_Pilot,2022.1.3,Win32,59.76214666,62bbe60bf3d75ef465d3e404,,,,,,,,,,,,,,,,,,,,,,,,,,,,,,,,,,,,,,,,,,,,,,,,,,,,,,,,,,,,,,,,,,,,,,,,,,,,,,,,,,,,,,,,,,,,,,,,,,,,,,,,,,,,,,,,,,,,,,,,,,,,,,,,,,,,,,,,,,,,,,,,,,,,,,,,,,,,,,
0,46,46,42,1,,615efa227a9938e11616d53c,62bbfa16145238a11f62eca6,2022-06-29_09h07.48.749,Colour_Asymmetry_Pilot,2022.1.3,Win32,59.76214666,62bbe60bf3d75ef465d3e404,,,,,,,,,,,,,,,,,,,,,,,,,,,,,,,,,,,,,,,,,,,,,,,,,,,,,,,,,,,,,,,,,,,,,,,,,,,,,,,,,,,,,,,,,,,,,,,,,,,,,,,,,,,,,,,,,,,,,,,,,,,,,,,,,,,,,,,,,,,,,,,,,,,,,,,,,,,,,,
0,47,47,68,1,,615efa227a9938e11616d53c,62bbfa16145238a11f62eca6,2022-06-29_09h07.48.749,Colour_Asymmetry_Pilot,2022.1.3,Win32,59.76214666,62bbe60bf3d75ef465d3e404,,,,,,,,,,,,,,,,,,,,,,,,,,,,,,,,,,,,,,,,,,,,,,,,,,,,,,,,,,,,,,,,,,,,,,,,,,,,,,,,,,,,,,,,,,,,,,,,,,,,,,,,,,,,,,,,,,,,,,,,,,,,,,,,,,,,,,,,,,,,,,,,,,,,,,,,,,,,,,
0,48,48,51,1,,615efa227a9938e11616d53c,62bbfa16145238a11f62eca6,2022-06-29_09h07.48.749,Colour_Asymmetry_Pilot,2022.1.3,Win32,59.76214666,62bbe60bf3d75ef465d3e404,,,,,,,,,,,,,,,,,,,,,,,,,,,,,,,,,,,,,,,,,,,,,,,,,,,,,,,,,,,,,,,,,,,,,,,,,,,,,,,,,,,,,,,,,,,,,,,,,,,,,,,,,,,,,,,,,,,,,,,,,,,,,,,,,,,,,,,,,,,,,,,,,,,,,,,,,,,,,,
0,49,49,40,1,,615efa227a9938e11616d53c,62bbfa16145238a11f62eca6,2022-06-29_09h07.48.749,Colour_Asymmetry_Pilot,2022.1.3,Win32,59.76214666,62bbe60bf3d75ef465d3e404,,,,,,,,,,,,,,,,,,,,,,,,,,,,,,,,,,,,,,,,,,,,,,,,,,,,,,,,,,,,,,,,,,,,,,,,,,,,,,,,,,,,,,,,,,,,,,,,,,,,,,,,,,,,,,,,,,,,,,,,,,,,,,,,,,,,,,,,,,,,,,,,,,,,,,,,,,,,,,
0,50,50,84,1,,615efa227a9938e11616d53c,62bbfa16145238a11f62eca6,2022-06-29_09h07.48.749,Colour_Asymmetry_Pilot,2022.1.3,Win32,59.76214666,62bbe60bf3d75ef465d3e404,,,,,,,,,,,,,,,,,,,,,,,,,,,,,,,,,,,,,,,,,,,,,,,,,,,,,,,,,,,,,,,,,,,,,,,,,,,,,,,,,,,,,,,,,,,,,,,,,,,,,,,,,,,,,,,,,,,,,,,,,,,,,,,,,,,,,,,,,,,,,,,,,,,,,,,,,,,,,,
0,51,51,86,1,,615efa227a9938e11616d53c,62bbfa16145238a11f62eca6,2022-06-29_09h07.48.749,Colour_Asymmetry_Pilot,2022.1.3,Win32,59.76214666,62bbe60bf3d75ef465d3e404,,,,,,,,,,,,,,,,,,,,,,,,,,,,,,,,,,,,,,,,,,,,,,,,,,,,,,,,,,,,,,,,,,,,,,,,,,,,,,,,,,,,,,,,,,,,,,,,,,,,,,,,,,,,,,,,,,,,,,,,,,,,,,,,,,,,,,,,,,,,,,,,,,,,,,,,,,,,,,
0,52,52,85,1,,615efa227a9938e11616d53c,62bbfa16145238a11f62eca6,2022-06-29_09h07.48.749,Colour_Asymmetry_Pilot,2022.1.3,Win32,59.76214666,62bbe60bf3d75ef465d3e404,,,,,,,,,,,,,,,,,,,,,,,,,,,,,,,,,,,,,,,,,,,,,,,,,,,,,,,,,,,,,,,,,,,,,,,,,,,,,,,,,,,,,,,,,,,,,,,,,,,,,,,,,,,,,,,,,,,,,,,,,,,,,,,,,,,,,,,,,,,,,,,,,,,,,,,,,,,,,,
0,53,53,77,1,,615efa227a9938e11616d53c,62bbfa16145238a11f62eca6,2022-06-29_09h07.48.749,Colour_Asymmetry_Pilot,2022.1.3,Win32,59.76214666,62bbe60bf3d75ef465d3e404,,,,,,,,,,,,,,,,,,,,,,,,,,,,,,,,,,,,,,,,,,,,,,,,,,,,,,,,,,,,,,,,,,,,,,,,,,,,,,,,,,,,,,,,,,,,,,,,,,,,,,,,,,,,,,,,,,,,,,,,,,,,,,,,,,,,,,,,,,,,,,,,,,,,,,,,,,,,,,
0,54,54,11,1,,615efa227a9938e11616d53c,62bbfa16145238a11f62eca6,2022-06-29_09h07.48.749,Colour_Asymmetry_Pilot,2022.1.3,Win32,59.76214666,62bbe60bf3d75ef465d3e404,,,,,,,,,,,,,,,,,,,,,,,,,,,,,,,,,,,,,,,,,,,,,,,,,,,,,,,,,,,,,,,,,,,,,,,,,,,,,,,,,,,,,,,,,,,,,,,,,,,,,,,,,,,,,,,,,,,,,,,,,,,,,,,,,,,,,,,,,,,,,,,,,,,,,,,,,,,,,,
0,55,55,54,1,,615efa227a9938e11616d53c,62bbfa16145238a11f62eca6,2022-06-29_09h07.48.749,Colour_Asymmetry_Pilot,2022.1.3,Win32,59.76214666,62bbe60bf3d75ef465d3e404,,,,,,,,,,,,,,,,,,,,,,,,,,,,,,,,,,,,,,,,,,,,,,,,,,,,,,,,,,,,,,,,,,,,,,,,,,,,,,,,,,,,,,,,,,,,,,,,,,,,,,,,,,,,,,,,,,,,,,,,,,,,,,,,,,,,,,,,,,,,,,,,,,,,,,,,,,,,,,
0,56,56,55,1,,615efa227a9938e11616d53c,62bbfa16145238a11f62eca6,2022-06-29_09h07.48.749,Colour_Asymmetry_Pilot,2022.1.3,Win32,59.76214666,62bbe60bf3d75ef465d3e404,,,,,,,,,,,,,,,,,,,,,,,,,,,,,,,,,,,,,,,,,,,,,,,,,,,,,,,,,,,,,,,,,,,,,,,,,,,,,,,,,,,,,,,,,,,,,,,,,,,,,,,,,,,,,,,,,,,,,,,,,,,,,,,,,,,,,,,,,,,,,,,,,,,,,,,,,,,,,,
0,57,57,87,1,,615efa227a9938e11616d53c,62bbfa16145238a11f62eca6,2022-06-29_09h07.48.749,Colour_Asymmetry_Pilot,2022.1.3,Win32,59.76214666,62bbe60bf3d75ef465d3e404,,,,,,,,,,,,,,,,,,,,,,,,,,,,,,,,,,,,,,,,,,,,,,,,,,,,,,,,,,,,,,,,,,,,,,,,,,,,,,,,,,,,,,,,,,,,,,,,,,,,,,,,,,,,,,,,,,,,,,,,,,,,,,,,,,,,,,,,,,,,,,,,,,,,,,,,,,,,,,
0,58,58,5,1,,615efa227a9938e11616d53c,62bbfa16145238a11f62eca6,2022-06-29_09h07.48.749,Colour_Asymmetry_Pilot,2022.1.3,Win32,59.76214666,62bbe60bf3d75ef465d3e404,,,,,,,,,,,,,,,,,,,,,,,,,,,,,,,,,,,,,,,,,,,,,,,,,,,,,,,,,,,,,,,,,,,,,,,,,,,,,,,,,,,,,,,,,,,,,,,,,,,,,,,,,,,,,,,,,,,,,,,,,,,,,,,,,,,,,,,,,,,,,,,,,,,,,,,,,,,,,,
0,59,59,61,1,,615efa227a9938e11616d53c,62bbfa16145238a11f62eca6,2022-06-29_09h07.48.749,Colour_Asymmetry_Pilot,2022.1.3,Win32,59.76214666,62bbe60bf3d75ef465d3e404,,,,,,,,,,,,,,,,,,,,,,,,,,,,,,,,,,,,,,,,,,,,,,,,,,,,,,,,,,,,,,,,,,,,,,,,,,,,,,,,,,,,,,,,,,,,,,,,,,,,,,,,,,,,,,,,,,,,,,,,,,,,,,,,,,,,,,,,,,,,,,,,,,,,,,,,,,,,,,
0,60,60,76,1,,615efa227a9938e11616d53c,62bbfa16145238a11f62eca6,2022-06-29_09h07.48.749,Colour_Asymmetry_Pilot,2022.1.3,Win32,59.76214666,62bbe60bf3d75ef465d3e404,,,,,,,,,,,,,,,,,,,,,,,,,,,,,,,,,,,,,,,,,,,,,,,,,,,,,,,,,,,,,,,,,,,,,,,,,,,,,,,,,,,,,,,,,,,,,,,,,,,,,,,,,,,,,,,,,,,,,,,,,,,,,,,,,,,,,,,,,,,,,,,,,,,,,,,,,,,,,,
0,61,61,43,1,,615efa227a9938e11616d53c,62bbfa16145238a11f62eca6,2022-06-29_09h07.48.749,Colour_Asymmetry_Pilot,2022.1.3,Win32,59.76214666,62bbe60bf3d75ef465d3e404,,,,,,,,,,,,,,,,,,,,,,,,,,,,,,,,,,,,,,,,,,,,,,,,,,,,,,,,,,,,,,,,,,,,,,,,,,,,,,,,,,,,,,,,,,,,,,,,,,,,,,,,,,,,,,,,,,,,,,,,,,,,,,,,,,,,,,,,,,,,,,,,,,,,,,,,,,,,,,
0,62,62,26,1,,615efa227a9938e11616d53c,62bbfa16145238a11f62eca6,2022-06-29_09h07.48.749,Colour_Asymmetry_Pilot,2022.1.3,Win32,59.76214666,62bbe60bf3d75ef465d3e404,,,,,,,,,,,,,,,,,,,,,,,,,,,,,,,,,,,,,,,,,,,,,,,,,,,,,,,,,,,,,,,,,,,,,,,,,,,,,,,,,,,,,,,,,,,,,,,,,,,,,,,,,,,,,,,,,,,,,,,,,,,,,,,,,,,,,,,,,,,,,,,,,,,,,,,,,,,,,,
0,63,63,63,1,,615efa227a9938e11616d53c,62bbfa16145238a11f62eca6,2022-06-29_09h07.48.749,Colour_Asymmetry_Pilot,2022.1.3,Win32,59.76214666,62bbe60bf3d75ef465d3e404,,,,,,,,,,,,,,,,,,,,,,,,,,,,,,,,,,,,,,,,,,,,,,,,,,,,,,,,,,,,,,,,,,,,,,,,,,,,,,,,,,,,,,,,,,,,,,,,,,,,,,,,,,,,,,,,,,,,,,,,,,,,,,,,,,,,,,,,,,,,,,,,,,,,,,,,,,,,,,
0,64,64,37,1,,615efa227a9938e11616d53c,62bbfa16145238a11f62eca6,2022-06-29_09h07.48.749,Colour_Asymmetry_Pilot,2022.1.3,Win32,59.76214666,62bbe60bf3d75ef465d3e404,,,,,,,,,,,,,,,,,,,,,,,,,,,,,,,,,,,,,,,,,,,,,,,,,,,,,,,,,,,,,,,,,,,,,,,,,,,,,,,,,,,,,,,,,,,,,,,,,,,,,,,,,,,,,,,,,,,,,,,,,,,,,,,,,,,,,,,,,,,,,,,,,,,,,,,,,,,,,,
0,65,65,27,1,,615efa227a9938e11616d53c,62bbfa16145238a11f62eca6,2022-06-29_09h07.48.749,Colour_Asymmetry_Pilot,2022.1.3,Win32,59.76214666,62bbe60bf3d75ef465d3e404,,,,,,,,,,,,,,,,,,,,,,,,,,,,,,,,,,,,,,,,,,,,,,,,,,,,,,,,,,,,,,,,,,,,,,,,,,,,,,,,,,,,,,,,,,,,,,,,,,,,,,,,,,,,,,,,,,,,,,,,,,,,,,,,,,,,,,,,,,,,,,,,,,,,,,,,,,,,,,
0,66,66,12,1,,615efa227a9938e11616d53c,62bbfa16145238a11f62eca6,2022-06-29_09h07.48.749,Colour_Asymmetry_Pilot,2022.1.3,Win32,59.76214666,62bbe60bf3d75ef465d3e404,,,,,,,,,,,,,,,,,,,,,,,,,,,,,,,,,,,,,,,,,,,,,,,,,,,,,,,,,,,,,,,,,,,,,,,,,,,,,,,,,,,,,,,,,,,,,,,,,,,,,,,,,,,,,,,,,,,,,,,,,,,,,,,,,,,,,,,,,,,,,,,,,,,,,,,,,,,,,,
0,67,67,75,1,,615efa227a9938e11616d53c,62bbfa16145238a11f62eca6,2022-06-29_09h07.48.749,Colour_Asymmetry_Pilot,2022.1.3,Win32,59.76214666,62bbe60bf3d75ef465d3e404,,,,,,,,,,,,,,,,,,,,,,,,,,,,,,,,,,,,,,,,,,,,,,,,,,,,,,,,,,,,,,,,,,,,,,,,,,,,,,,,,,,,,,,,,,,,,,,,,,,,,,,,,,,,,,,,,,,,,,,,,,,,,,,,,,,,,,,,,,,,,,,,,,,,,,,,,,,,,,
0,68,68,7,1,,615efa227a9938e11616d53c,62bbfa16145238a11f62eca6,2022-06-29_09h07.48.749,Colour_Asymmetry_Pilot,2022.1.3,Win32,59.76214666,62bbe60bf3d75ef465d3e404,,,,,,,,,,,,,,,,,,,,,,,,,,,,,,,,,,,,,,,,,,,,,,,,,,,,,,,,,,,,,,,,,,,,,,,,,,,,,,,,,,,,,,,,,,,,,,,,,,,,,,,,,,,,,,,,,,,,,,,,,,,,,,,,,,,,,,,,,,,,,,,,,,,,,,,,,,,,,,
0,69,69,78,1,,615efa227a9938e11616d53c,62bbfa16145238a11f62eca6,2022-06-29_09h07.48.749,Colour_Asymmetry_Pilot,2022.1.3,Win32,59.76214666,62bbe60bf3d75ef465d3e404,,,,,,,,,,,,,,,,,,,,,,,,,,,,,,,,,,,,,,,,,,,,,,,,,,,,,,,,,,,,,,,,,,,,,,,,,,,,,,,,,,,,,,,,,,,,,,,,,,,,,,,,,,,,,,,,,,,,,,,,,,,,,,,,,,,,,,,,,,,,,,,,,,,,,,,,,,,,,,
0,70,70,89,1,,615efa227a9938e11616d53c,62bbfa16145238a11f62eca6,2022-06-29_09h07.48.749,Colour_Asymmetry_Pilot,2022.1.3,Win32,59.76214666,62bbe60bf3d75ef465d3e404,,,,,,,,,,,,,,,,,,,,,,,,,,,,,,,,,,,,,,,,,,,,,,,,,,,,,,,,,,,,,,,,,,,,,,,,,,,,,,,,,,,,,,,,,,,,,,,,,,,,,,,,,,,,,,,,,,,,,,,,,,,,,,,,,,,,,,,,,,,,,,,,,,,,,,,,,,,,,,
0,71,71,92,1,,615efa227a9938e11616d53c,62bbfa16145238a11f62eca6,2022-06-29_09h07.48.749,Colour_Asymmetry_Pilot,2022.1.3,Win32,59.76214666,62bbe60bf3d75ef465d3e404,,,,,,,,,,,,,,,,,,,,,,,,,,,,,,,,,,,,,,,,,,,,,,,,,,,,,,,,,,,,,,,,,,,,,,,,,,,,,,,,,,,,,,,,,,,,,,,,,,,,,,,,,,,,,,,,,,,,,,,,,,,,,,,,,,,,,,,,,,,,,,,,,,,,,,,,,,,,,,
0,72,72,38,1,,615efa227a9938e11616d53c,62bbfa16145238a11f62eca6,2022-06-29_09h07.48.749,Colour_Asymmetry_Pilot,2022.1.3,Win32,59.76214666,62bbe60bf3d75ef465d3e404,,,,,,,,,,,,,,,,,,,,,,,,,,,,,,,,,,,,,,,,,,,,,,,,,,,,,,,,,,,,,,,,,,,,,,,,,,,,,,,,,,,,,,,,,,,,,,,,,,,,,,,,,,,,,,,,,,,,,,,,,,,,,,,,,,,,,,,,,,,,,,,,,,,,,,,,,,,,,,
0,73,73,1,1,,615efa227a9938e11616d53c,62bbfa16145238a11f62eca6,2022-06-29_09h07.48.749,Colour_Asymmetry_Pilot,2022.1.3,Win32,59.76214666,62bbe60bf3d75ef465d3e404,,,,,,,,,,,,,,,,,,,,,,,,,,,,,,,,,,,,,,,,,,,,,,,,,,,,,,,,,,,,,,,,,,,,,,,,,,,,,,,,,,,,,,,,,,,,,,,,,,,,,,,,,,,,,,,,,,,,,,,,,,,,,,,,,,,,,,,,,,,,,,,,,,,,,,,,,,,,,,
0,74,74,82,1,,615efa227a9938e11616d53c,62bbfa16145238a11f62eca6,2022-06-29_09h07.48.749,Colour_Asymmetry_Pilot,2022.1.3,Win32,59.76214666,62bbe60bf3d75ef465d3e404,,,,,,,,,,,,,,,,,,,,,,,,,,,,,,,,,,,,,,,,,,,,,,,,,,,,,,,,,,,,,,,,,,,,,,,,,,,,,,,,,,,,,,,,,,,,,,,,,,,,,,,,,,,,,,,,,,,,,,,,,,,,,,,,,,,,,,,,,,,,,,,,,,,,,,,,,,,,,,
0,75,75,90,1,,615efa227a9938e11616d53c,62bbfa16145238a11f62eca6,2022-06-29_09h07.48.749,Colour_Asymmetry_Pilot,2022.1.3,Win32,59.76214666,62bbe60bf3d75ef465d3e404,,,,,,,,,,,,,,,,,,,,,,,,,,,,,,,,,,,,,,,,,,,,,,,,,,,,,,,,,,,,,,,,,,,,,,,,,,,,,,,,,,,,,,,,,,,,,,,,,,,,,,,,,,,,,,,,,,,,,,,,,,,,,,,,,,,,,,,,,,,,,,,,,,,,,,,,,,,,,,
0,76,76,8,1,,615efa227a9938e11616d53c,62bbfa16145238a11f62eca6,2022-06-29_09h07.48.749,Colour_Asymmetry_Pilot,2022.1.3,Win32,59.76214666,62bbe60bf3d75ef465d3e404,,,,,,,,,,,,,,,,,,,,,,,,,,,,,,,,,,,,,,,,,,,,,,,,,,,,,,,,,,,,,,,,,,,,,,,,,,,,,,,,,,,,,,,,,,,,,,,,,,,,,,,,,,,,,,,,,,,,,,,,,,,,,,,,,,,,,,,,,,,,,,,,,,,,,,,,,,,,,,
0,77,77,66,1,,615efa227a9938e11616d53c,62bbfa16145238a11f62eca6,2022-06-29_09h07.48.749,Colour_Asymmetry_Pilot,2022.1.3,Win32,59.76214666,62bbe60bf3d75ef465d3e404,,,,,,,,,,,,,,,,,,,,,,,,,,,,,,,,,,,,,,,,,,,,,,,,,,,,,,,,,,,,,,,,,,,,,,,,,,,,,,,,,,,,,,,,,,,,,,,,,,,,,,,,,,,,,,,,,,,,,,,,,,,,,,,,,,,,,,,,,,,,,,,,,,,,,,,,,,,,,,
0,78,78,52,1,,615efa227a9938e11616d53c,62bbfa16145238a11f62eca6,2022-06-29_09h07.48.749,Colour_Asymmetry_Pilot,2022.1.3,Win32,59.76214666,62bbe60bf3d75ef465d3e404,,,,,,,,,,,,,,,,,,,,,,,,,,,,,,,,,,,,,,,,,,,,,,,,,,,,,,,,,,,,,,,,,,,,,,,,,,,,,,,,,,,,,,,,,,,,,,,,,,,,,,,,,,,,,,,,,,,,,,,,,,,,,,,,,,,,,,,,,,,,,,,,,,,,,,,,,,,,,,
0,79,79,23,1,,615efa227a9938e11616d53c,62bbfa16145238a11f62eca6,2022-06-29_09h07.48.749,Colour_Asymmetry_Pilot,2022.1.3,Win32,59.76214666,62bbe60bf3d75ef465d3e404,,,,,,,,,,,,,,,,,,,,,,,,,,,,,,,,,,,,,,,,,,,,,,,,,,,,,,,,,,,,,,,,,,,,,,,,,,,,,,,,,,,,,,,,,,,,,,,,,,,,,,,,,,,,,,,,,,,,,,,,,,,,,,,,,,,,,,,,,,,,,,,,,,,,,,,,,,,,,,
0,80,80,57,1,,615efa227a9938e11616d53c,62bbfa16145238a11f62eca6,2022-06-29_09h07.48.749,Colour_Asymmetry_Pilot,2022.1.3,Win32,59.76214666,62bbe60bf3d75ef465d3e404,,,,,,,,,,,,,,,,,,,,,,,,,,,,,,,,,,,,,,,,,,,,,,,,,,,,,,,,,,,,,,,,,,,,,,,,,,,,,,,,,,,,,,,,,,,,,,,,,,,,,,,,,,,,,,,,,,,,,,,,,,,,,,,,,,,,,,,,,,,,,,,,,,,,,,,,,,,,,,
0,81,81,2,1,,615efa227a9938e11616d53c,62bbfa16145238a11f62eca6,2022-06-29_09h07.48.749,Colour_Asymmetry_Pilot,2022.1.3,Win32,59.76214666,62bbe60bf3d75ef465d3e404,,,,,,,,,,,,,,,,,,,,,,,,,,,,,,,,,,,,,,,,,,,,,,,,,,,,,,,,,,,,,,,,,,,,,,,,,,,,,,,,,,,,,,,,,,,,,,,,,,,,,,,,,,,,,,,,,,,,,,,,,,,,,,,,,,,,,,,,,,,,,,,,,,,,,,,,,,,,,,
0,82,82,71,1,,615efa227a9938e11616d53c,62bbfa16145238a11f62eca6,2022-06-29_09h07.48.749,Colour_Asymmetry_Pilot,2022.1.3,Win32,59.76214666,62bbe60bf3d75ef465d3e404,,,,,,,,,,,,,,,,,,,,,,,,,,,,,,,,,,,,,,,,,,,,,,,,,,,,,,,,,,,,,,,,,,,,,,,,,,,,,,,,,,,,,,,,,,,,,,,,,,,,,,,,,,,,,,,,,,,,,,,,,,,,,,,,,,,,,,,,,,,,,,,,,,,,,,,,,,,,,,
0,83,83,21,1,,615efa227a9938e11616d53c,62bbfa16145238a11f62eca6,2022-06-29_09h07.48.749,Colour_Asymmetry_Pilot,2022.1.3,Win32,59.76214666,62bbe60bf3d75ef465d3e404,,,,,,,,,,,,,,,,,,,,,,,,,,,,,,,,,,,,,,,,,,,,,,,,,,,,,,,,,,,,,,,,,,,,,,,,,,,,,,,,,,,,,,,,,,,,,,,,,,,,,,,,,,,,,,,,,,,,,,,,,,,,,,,,,,,,,,,,,,,,,,,,,,,,,,,,,,,,,,
0,84,84,45,1,,615efa227a9938e11616d53c,62bbfa16145238a11f62eca6,2022-06-29_09h07.48.749,Colour_Asymmetry_Pilot,2022.1.3,Win32,59.76214666,62bbe60bf3d75ef465d3e404,,,,,,,,,,,,,,,,,,,,,,,,,,,,,,,,,,,,,,,,,,,,,,,,,,,,,,,,,,,,,,,,,,,,,,,,,,,,,,,,,,,,,,,,,,,,,,,,,,,,,,,,,,,,,,,,,,,,,,,,,,,,,,,,,,,,,,,,,,,,,,,,,,,,,,,,,,,,,,
0,85,85,14,1,,615efa227a9938e11616d53c,62bbfa16145238a11f62eca6,2022-06-29_09h07.48.749,Colour_Asymmetry_Pilot,2022.1.3,Win32,59.76214666,62bbe60bf3d75ef465d3e404,,,,,,,,,,,,,,,,,,,,,,,,,,,,,,,,,,,,,,,,,,,,,,,,,,,,,,,,,,,,,,,,,,,,,,,,,,,,,,,,,,,,,,,,,,,,,,,,,,,,,,,,,,,,,,,,,,,,,,,,,,,,,,,,,,,,,,,,,,,,,,,,,,,,,,,,,,,,,,
0,86,86,34,1,,615efa227a9938e11616d53c,62bbfa16145238a11f62eca6,2022-06-29_09h07.48.749,Colour_Asymmetry_Pilot,2022.1.3,Win32,59.76214666,62bbe60bf3d75ef465d3e404,,,,,,,,,,,,,,,,,,,,,,,,,,,,,,,,,,,,,,,,,,,,,,,,,,,,,,,,,,,,,,,,,,,,,,,,,,,,,,,,,,,,,,,,,,,,,,,,,,,,,,,,,,,,,,,,,,,,,,,,,,,,,,,,,,,,,,,,,,,,,,,,,,,,,,,,,,,,,,
0,87,87,15,1,,615efa227a9938e11616d53c,62bbfa16145238a11f62eca6,2022-06-29_09h07.48.749,Colour_Asymmetry_Pilot,2022.1.3,Win32,59.76214666,62bbe60bf3d75ef465d3e404,,,,,,,,,,,,,,,,,,,,,,,,,,,,,,,,,,,,,,,,,,,,,,,,,,,,,,,,,,,,,,,,,,,,,,,,,,,,,,,,,,,,,,,,,,,,,,,,,,,,,,,,,,,,,,,,,,,,,,,,,,,,,,,,,,,,,,,,,,,,,,,,,,,,,,,,,,,,,,
0,88,88,9,1,,615efa227a9938e11616d53c,62bbfa16145238a11f62eca6,2022-06-29_09h07.48.749,Colour_Asymmetry_Pilot,2022.1.3,Win32,59.76214666,62bbe60bf3d75ef465d3e404,,,,,,,,,,,,,,,,,,,,,,,,,,,,,,,,,,,,,,,,,,,,,,,,,,,,,,,,,,,,,,,,,,,,,,,,,,,,,,,,,,,,,,,,,,,,,,,,,,,,,,,,,,,,,,,,,,,,,,,,,,,,,,,,,,,,,,,,,,,,,,,,,,,,,,,,,,,,,,
0,89,89,17,1,,615efa227a9938e11616d53c,62bbfa16145238a11f62eca6,2022-06-29_09h07.48.749,Colour_Asymmetry_Pilot,2022.1.3,Win32,59.76214666,62bbe60bf3d75ef465d3e404,,,,,,,,,,,,,,,,,,,,,,,,,,,,,,,,,,,,,,,,,,,,,,,,,,,,,,,,,,,,,,,,,,,,,,,,,,,,,,,,,,,,,,,,,,,,,,,,,,,,,,,,,,,,,,,,,,,,,,,,,,,,,,,,,,,,,,,,,,,,,,,,,,,,,,,,,,,,,,
0,90,90,36,1,,615efa227a9938e11616d53c,62bbfa16145238a11f62eca6,2022-06-29_09h07.48.749,Colour_Asymmetry_Pilot,2022.1.3,Win32,59.76214666,62bbe60bf3d75ef465d3e404,,,,,,,,,,,,,,,,,,,,,,,,,,,,,,,,,,,,,,,,,,,,,,,,,,,,,,,,,,,,,,,,,,,,,,,,,,,,,,,,,,,,,,,,,,,,,,,,,,,,,,,,,,,,,,,,,,,,,,,,,,,,,,,,,,,,,,,,,,,,,,,,,,,,,,,,,,,,,,
0,91,91,10,1,,615efa227a9938e11616d53c,62bbfa16145238a11f62eca6,2022-06-29_09h07.48.749,Colour_Asymmetry_Pilot,2022.1.3,Win32,59.76214666,62bbe60bf3d75ef465d3e404,,,,,,,,,,,,,,,,,,,,,,,,,,,,,,,,,,,,,,,,,,,,,,,,,,,,,,,,,,,,,,,,,,,,,,,,,,,,,,,,,,,,,,,,,,,,,,,,,,,,,,,,,,,,,,,,,,,,,,,,,,,,,,,,,,,,,,,,,,,,,,,,,,,,,,,,,,,,,,
0,92,92,80,1,,615efa227a9938e11616d53c,62bbfa16145238a11f62eca6,2022-06-29_09h07.48.749,Colour_Asymmetry_Pilot,2022.1.3,Win32,59.76214666,62bbe60bf3d75ef465d3e404,,,,,,,,,,,,,,,,,,,,,,,,,,,,,,,,,,,,,,,,,,,,,,,,,,,,,,,,,,,,,,,,,,,,,,,,,,,,,,,,,,,,,,,,,,,,,,,,,,,,,,,,,,,,,,,,,,,,,,,,,,,,,,,,,,,,,,,,,,,,,,,,,,,,,,,,,,,,,,
,,,,,,615efa227a9938e11616d53c,62bbfa16145238a11f62eca6,2022-06-29_09h07.48.749,Colour_Asymmetry_Pilot,2022.1.3,Win32,59.76214666,62bbe60bf3d75ef465d3e404,0,0,0,147,1,twofour,,,,,,,,,,,,,,,,,,,,,,,,,,,,,,,,,,,,,,,,,,,,,,,,,,,,,,,,,,,,,,,,,,,,,,,,,,,,,,,,,,,,,,,,,,,,,,,,,,,,,,,,,,,,,,,,,,,,,,,,,,,,,,,,,,,,,,,,,,,,,,,,,,,,,,,,
,,,,,,615efa227a9938e11616d53c,62bbfa16145238a11f62eca6,2022-06-29_09h07.48.749,Colour_Asymmetry_Pilot,2022.1.3,Win32,59.76214666,62bbe60bf3d75ef465d3e404,0,1,1,115,1,twofour,,,,,,,,,,,,,,,,,,,,,,,,,,,,,,,,,,,,,,,,,,,,,,,,,,,,,,,,,,,,,,,,,,,,,,,,,,,,,,,,,,,,,,,,,,,,,,,,,,,,,,,,,,,,,,,,,,,,,,,,,,,,,,,,,,,,,,,,,,,,,,,,,,,,,,,,
,,,,,,615efa227a9938e11616d53c,62bbfa16145238a11f62eca6,2022-06-29_09h07.48.749,Colour_Asymmetry_Pilot,2022.1.3,Win32,59.76214666,62bbe60bf3d75ef465d3e404,0,2,2,68,1,threeone,,,,,,,,,,,,,,,,,,,,,,,,,,,,,,,,,,,,,,,,,,,,,,,,,,,,,,,,,,,,,,,,,,,,,,,,,,,,,,,,,,,,,,,,,,,,,,,,,,,,,,,,,,,,,,,,,,,,,,,,,,,,,,,,,,,,,,,,,,,,,,,,,,,,,,,,
,,,,,,615efa227a9938e11616d53c,62bbfa16145238a11f62eca6,2022-06-29_09h07.48.749,Colour_Asymmetry_Pilot,2022.1.3,Win32,59.76214666,62bbe60bf3d75ef465d3e404,0,3,3,53,1,threefour,,,,,,,,,,,,,,,,,,,,,,,,,,,,,,,,,,,,,,,,,,,,,,,,,,,,,,,,,,,,,,,,,,,,,,,,,,,,,,,,,,,,,,,,,,,,,,,,,,,,,,,,,,,,,,,,,,,,,,,,,,,,,,,,,,,,,,,,,,,,,,,,,,,,,,,,
,,,,,,615efa227a9938e11616d53c,62bbfa16145238a11f62eca6,2022-06-29_09h07.48.749,Colour_Asymmetry_Pilot,2022.1.3,Win32,59.76214666,62bbe60bf3d75ef465d3e404,0,4,4,85,1,threefour,,,,,,,,,,,,,,,,,,,,,,,,,,,,,,,,,,,,,,,,,,,,,,,,,,,,,,,,,,,,,,,,,,,,,,,,,,,,,,,,,,,,,,,,,,,,,,,,,,,,,,,,,,,,,,,,,,,,,,,,,,,,,,,,,,,,,,,,,,,,,,,,,,,,,,,,
,,,,,,615efa227a9938e11616d53c,62bbfa16145238a11f62eca6,2022-06-29_09h07.48.749,Colour_Asymmetry_Pilot,2022.1.3,Win32,59.76214666,62bbe60bf3d75ef465d3e404,0,5,5,91,1,twofour,,,,,,,,,,,,,,,,,,,,,,,,,,,,,,,,,,,,,,,,,,,,,,,,,,,,,,,,,,,,,,,,,,,,,,,,,,,,,,,,,,,,,,,,,,,,,,,,,,,,,,,,,,,,,,,,,,,,,,,,,,,,,,,,,,,,,,,,,,,,,,,,,,,,,,,,
,,,,,,615efa227a9938e11616d53c,62bbfa16145238a11f62eca6,2022-06-29_09h07.48.749,Colour_Asymmetry_Pilot,2022.1.3,Win32,59.76214666,62bbe60bf3d75ef465d3e404,0,6,6,18,1,twoone,,,,,,,,,,,,,,,,,,,,,,,,,,,,,,,,,,,,,,,,,,,,,,,,,,,,,,,,,,,,,,,,,,,,,,,,,,,,,,,,,,,,,,,,,,,,,,,,,,,,,,,,,,,,,,,,,,,,,,,,,,,,,,,,,,,,,,,,,,,,,,,,,,,,,,,,
,,,,,,615efa227a9938e11616d53c,62bbfa16145238a11f62eca6,2022-06-29_09h07.48.749,Colour_Asymmetry_Pilot,2022.1.3,Win32,59.76214666,62bbe60bf3d75ef465d3e404,0,7,7,41,1,onethree,,,,,,,,,,,,,,,,,,,,,,,,,,,,,,,,,,,,,,,,,,,,,,,,,,,,,,,,,,,,,,,,,,,,,,,,,,,,,,,,,,,,,,,,,,,,,,,,,,,,,,,,,,,,,,,,,,,,,,,,,,,,,,,,,,,,,,,,,,,,,,,,,,,,,,,,
,,,,,,615efa227a9938e11616d53c,62bbfa16145238a11f62eca6,2022-06-29_09h07.48.749,Colour_Asymmetry_Pilot,2022.1.3,Win32,59.76214666,62bbe60bf3d75ef465d3e404,0,8,8,77,1,threefour,,,,,,,,,,,,,,,,,,,,,,,,,,,,,,,,,,,,,,,,,,,,,,,,,,,,,,,,,,,,,,,,,,,,,,,,,,,,,,,,,,,,,,,,,,,,,,,,,,,,,,,,,,,,,,,,,,,,,,,,,,,,,,,,,,,,,,,,,,,,,,,,,,,,,,,,
,,,,,,615efa227a9938e11616d53c,62bbfa16145238a11f62eca6,2022-06-29_09h07.48.749,Colour_Asymmetry_Pilot,2022.1.3,Win32,59.76214666,62bbe60bf3d75ef465d3e404,0,9,9,120,1,onetwo,,,,,,,,,,,,,,,,,,,,,,,,,,,,,,,,,,,,,,,,,,,,,,,,,,,,,,,,,,,,,,,,,,,,,,,,,,,,,,,,,,,,,,,,,,,,,,,,,,,,,,,,,,,,,,,,,,,,,,,,,,,,,,,,,,,,,,,,,,,,,,,,,,,,,,,,
,,,,,,615efa227a9938e11616d53c,62bbfa16145238a11f62eca6,2022-06-29_09h07.48.749,Colour_Asymmetry_Pilot,2022.1.3,Win32,59.76214666,62bbe60bf3d75ef465d3e404,0,10,10,7,1,fourthree,,,,,,,,,,,,,,,,,,,,,,,,,,,,,,,,,,,,,,,,,,,,,,,,,,,,,,,,,,,,,,,,,,,,,,,,,,,,,,,,,,,,,,,,,,,,,,,,,,,,,,,,,,,,,,,,,,,,,,,,,,,,,,,,,,,,,,,,,,,,,,,,,,,,,,,,
,,,,,,615efa227a9938e11616d53c,62bbfa16145238a11f62eca6,2022-06-29_09h07.48.749,Colour_Asymmetry_Pilot,2022.1.3,Win32,59.76214666,62bbe60bf3d75ef465d3e404,0,11,11,124,1,threeone,,,,,,,,,,,,,,,,,,,,,,,,,,,,,,,,,,,,,,,,,,,,,,,,,,,,,,,,,,,,,,,,,,,,,,,,,,,,,,,,,,,,,,,,,,,,,,,,,,,,,,,,,,,,,,,,,,,,,,,,,,,,,,,,,,,,,,,,,,,,,,,,,,,,,,,,
,,,,,,615efa227a9938e11616d53c,62bbfa16145238a11f62eca6,2022-06-29_09h07.48.749,Colour_Asymmetry_Pilot,2022.1.3,Win32,59.76214666,62bbe60bf3d75ef465d3e404,0,12,12,76,1,threeone,,,,,,,,,,,,,,,,,,,,,,,,,,,,,,,,,,,,,,,,,,,,,,,,,,,,,,,,,,,,,,,,,,,,,,,,,,,,,,,,,,,,,,,,,,,,,,,,,,,,,,,,,,,,,,,,,,,,,,,,,,,,,,,,,,,,,,,,,,,,,,,,,,,,,,,,
,,,,,,615efa227a9938e11616d53c,62bbfa16145238a11f62eca6,2022-06-29_09h07.48.749,Colour_Asymmetry_Pilot,2022.1.3,Win32,59.76214666,62bbe60bf3d75ef465d3e404,0,13,13,70,1,fourtwo,,,,,,,,,,,,,,,,,,,,,,,,,,,,,,,,,,,,,,,,,,,,,,,,,,,,,,,,,,,,,,,,,,,,,,,,,,,,,,,,,,,,,,,,,,,,,,,,,,,,,,,,,,,,,,,,,,,,,,,,,,,,,,,,,,,,,,,,,,,,,,,,,,,,,,,,
,,,,,,615efa227a9938e11616d53c,62bbfa16145238a11f62eca6,2022-06-29_09h07.48.749,Colour_Asymmetry_Pilot,2022.1.3,Win32,59.76214666,62bbe60bf3d75ef465d3e404,0,14,14,132,1,threeone,,,,,,,,,,,,,,,,,,,,,,,,,,,,,,,,,,,,,,,,,,,,,,,,,,,,,,,,,,,,,,,,,,,,,,,,,,,,,,,,,,,,,,,,,,,,,,,,,,,,,,,,,,,,,,,,,,,,,,,,,,,,,,,,,,,,,,,,,,,,,,,,,,,,,,,,
,,,,,,615efa227a9938e11616d53c,62bbfa16145238a11f62eca6,2022-06-29_09h07.48.749,Colour_Asymmetry_Pilot,2022.1.3,Win32,59.76214666,62bbe60bf3d75ef465d3e404,0,15,15,125,1,threefour,,,,,,,,,,,,,,,,,,,,,,,,,,,,,,,,,,,,,,,,,,,,,,,,,,,,,,,,,,,,,,,,,,,,,,,,,,,,,,,,,,,,,,,,,,,,,,,,,,,,,,,,,,,,,,,,,,,,,,,,,,,,,,,,,,,,,,,,,,,,,,,,,,,,,,,,
,,,,,,615efa227a9938e11616d53c,62bbfa16145238a11f62eca6,2022-06-29_09h07.48.749,Colour_Asymmetry_Pilot,2022.1.3,Win32,59.76214666,62bbe60bf3d75ef465d3e404,0,16,16,19,1,twofour,,,,,,,,,,,,,,,,,,,,,,,,,,,,,,,,,,,,,,,,,,,,,,,,,,,,,,,,,,,,,,,,,,,,,,,,,,,,,,,,,,,,,,,,,,,,,,,,,,,,,,,,,,,,,,,,,,,,,,,,,,,,,,,,,,,,,,,,,,,,,,,,,,,,,,,,
,,,,,,615efa227a9938e11616d53c,62bbfa16145238a11f62eca6,2022-06-29_09h07.48.749,Colour_Asymmetry_Pilot,2022.1.3,Win32,59.76214666,62bbe60bf3d75ef465d3e404,0,17,17,150,1,fourtwo,,,,,,,,,,,,,,,,,,,,,,,,,,,,,,,,,,,,,,,,,,,,,,,,,,,,,,,,,,,,,,,,,,,,,,,,,,,,,,,,,,,,,,,,,,,,,,,,,,,,,,,,,,,,,,,,,,,,,,,,,,,,,,,,,,,,,,,,,,,,,,,,,,,,,,,,
,,,,,,615efa227a9938e11616d53c,62bbfa16145238a11f62eca6,2022-06-29_09h07.48.749,Colour_Asymmetry_Pilot,2022.1.3,Win32,59.76214666,62bbe60bf3d75ef465d3e404,0,18,18,12,1,threeone,,,,,,,,,,,,,,,,,,,,,,,,,,,,,,,,,,,,,,,,,,,,,,,,,,,,,,,,,,,,,,,,,,,,,,,,,,,,,,,,,,,,,,,,,,,,,,,,,,,,,,,,,,,,,,,,,,,,,,,,,,,,,,,,,,,,,,,,,,,,,,,,,,,,,,,,
,,,,,,615efa227a9938e11616d53c,62bbfa16145238a11f62eca6,2022-06-29_09h07.48.749,Colour_Asymmetry_Pilot,2022.1.3,Win32,59.76214666,62bbe60bf3d75ef465d3e404,0,19,19,5,1,threefour,,,,,,,,,,,,,,,,,,,,,,,,,,,,,,,,,,,,,,,,,,,,,,,,,,,,,,,,,,,,,,,,,,,,,,,,,,,,,,,,,,,,,,,,,,,,,,,,,,,,,,,,,,,,,,,,,,,,,,,,,,,,,,,,,,,,,,,,,,,,,,,,,,,,,,,,
,,,,,,615efa227a9938e11616d53c,62bbfa16145238a11f62eca6,2022-06-29_09h07.48.749,Colour_Asymmetry_Pilot,2022.1.3,Win32,59.76214666,62bbe60bf3d75ef465d3e404,0,20,20,11,1,twofour,,,,,,,,,,,,,,,,,,,,,,,,,,,,,,,,,,,,,,,,,,,,,,,,,,,,,,,,,,,,,,,,,,,,,,,,,,,,,,,,,,,,,,,,,,,,,,,,,,,,,,,,,,,,,,,,,,,,,,,,,,,,,,,,,,,,,,,,,,,,,,,,,,,,,,,,
,,,,,,615efa227a9938e11616d53c,62bbfa16145238a11f62eca6,2022-06-29_09h07.48.749,Colour_Asymmetry_Pilot,2022.1.3,Win32,59.76214666,62bbe60bf3d75ef465d3e404,0,21,21,141,1,threefour,,,,,,,,,,,,,,,,,,,,,,,,,,,,,,,,,,,,,,,,,,,,,,,,,,,,,,,,,,,,,,,,,,,,,,,,,,,,,,,,,,,,,,,,,,,,,,,,,,,,,,,,,,,,,,,,,,,,,,,,,,,,,,,,,,,,,,,,,,,,,,,,,,,,,,,,
,,,,,,615efa227a9938e11616d53c,62bbfa16145238a11f62eca6,2022-06-29_09h07.48.749,Colour_Asymmetry_Pilot,2022.1.3,Win32,59.76214666,62bbe60bf3d75ef465d3e404,0,22,22,56,1,onetwo,,,,,,,,,,,,,,,,,,,,,,,,,,,,,,,,,,,,,,,,,,,,,,,,,,,,,,,,,,,,,,,,,,,,,,,,,,,,,,,,,,,,,,,,,,,,,,,,,,,,,,,,,,,,,,,,,,,,,,,,,,,,,,,,,,,,,,,,,,,,,,,,,,,,,,,,
,,,,,,615efa227a9938e11616d53c,62bbfa16145238a11f62eca6,2022-06-29_09h07.48.749,Colour_Asymmetry_Pilot,2022.1.3,Win32,59.76214666,62bbe60bf3d75ef465d3e404,0,23,23,42,1,twoone,,,,,,,,,,,,,,,,,,,,,,,,,,,,,,,,,,,,,,,,,,,,,,,,,,,,,,,,,,,,,,,,,,,,,,,,,,,,,,,,,,,,,,,,,,,,,,,,,,,,,,,,,,,,,,,,,,,,,,,,,,,,,,,,,,,,,,,,,,,,,,,,,,,,,,,,
,,,,,,615efa227a9938e11616d53c,62bbfa16145238a11f62eca6,2022-06-29_09h07.48.749,Colour_Asymmetry_Pilot,2022.1.3,Win32,59.76214666,62bbe60bf3d75ef465d3e404,0,24,24,69,1,threefour,,,,,,,,,,,,,,,,,,,,,,,,,,,,,,,,,,,,,,,,,,,,,,,,,,,,,,,,,,,,,,,,,,,,,,,,,,,,,,,,,,,,,,,,,,,,,,,,,,,,,,,,,,,,,,,,,,,,,,,,,,,,,,,,,,,,,,,,,,,,,,,,,,,,,,,,
,,,,,,615efa227a9938e11616d53c,62bbfa16145238a11f62eca6,2022-06-29_09h07.48.749,Colour_Asymmetry_Pilot,2022.1.3,Win32,59.76214666,62bbe60bf3d75ef465d3e404,0,25,25,117,1,threefour,,,,,,,,,,,,,,,,,,,,,,,,,,,,,,,,,,,,,,,,,,,,,,,,,,,,,,,,,,,,,,,,,,,,,,,,,,,,,,,,,,,,,,,,,,,,,,,,,,,,,,,,,,,,,,,,,,,,,,,,,,,,,,,,,,,,,,,,,,,,,,,,,,,,,,,,
,,,,,,615efa227a9938e11616d53c,62bbfa16145238a11f62eca6,2022-06-29_09h07.48.749,Colour_Asymmetry_Pilot,2022.1.3,Win32,59.76214666,62bbe60bf3d75ef465d3e404,0,26,26,36,1,threeone,,,,,,,,,,,,,,,,,,,,,,,,,,,,,,,,,,,,,,,,,,,,,,,,,,,,,,,,,,,,,,,,,,,,,,,,,,,,,,,,,,,,,,,,,,,,,,,,,,,,,,,,,,,,,,,,,,,,,,,,,,,,,,,,,,,,,,,,,,,,,,,,,,,,,,,,
,,,,,,615efa227a9938e11616d53c,62bbfa16145238a11f62eca6,2022-06-29_09h07.48.749,Colour_Asymmetry_Pilot,2022.1.3,Win32,59.76214666,62bbe60bf3d75ef465d3e404,0,27,27,129,1,onethree,,,,,,,,,,,,,,,,,,,,,,,,,,,,,,,,,,,,,,,,,,,,,,,,,,,,,,,,,,,,,,,,,,,,,,,,,,,,,,,,,,,,,,,,,,,,,,,,,,,,,,,,,,,,,,,,,,,,,,,,,,,,,,,,,,,,,,,,,,,,,,,,,,,,,,,,
,,,,,,615efa227a9938e11616d53c,62bbfa16145238a11f62eca6,2022-06-29_09h07.48.749,Colour_Asymmetry_Pilot,2022.1.3,Win32,59.76214666,62bbe60bf3d75ef465d3e404,0,28,28,47,1,fourthree,,,,,,,,,,,,,,,,,,,,,,,,,,,,,,,,,,,,,,,,,,,,,,,,,,,,,,,,,,,,,,,,,,,,,,,,,,,,,,,,,,,,,,,,,,,,,,,,,,,,,,,,,,,,,,,,,,,,,,,,,,,,,,,,,,,,,,,,,,,,,,,,,,,,,,,,
,,,,,,615efa227a9938e11616d53c,62bbfa16145238a11f62eca6,2022-06-29_09h07.48.749,Colour_Asymmetry_Pilot,2022.1.3,Win32,59.76214666,62bbe60bf3d75ef465d3e404,0,29,29,34,1,twoone,,,,,,,,,,,,,,,,,,,,,,,,,,,,,,,,,,,,,,,,,,,,,,,,,,,,,,,,,,,,,,,,,,,,,,,,,,,,,,,,,,,,,,,,,,,,,,,,,,,,,,,,,,,,,,,,,,,,,,,,,,,,,,,,,,,,,,,,,,,,,,,,,,,,,,,,
,,,,,,615efa227a9938e11616d53c,62bbfa16145238a11f62eca6,2022-06-29_09h07.48.749,Colour_Asymmetry_Pilot,2022.1.3,Win32,59.76214666,62bbe60bf3d75ef465d3e404,0,30,30,152,1,onetwo,,,,,,,,,,,,,,,,,,,,,,,,,,,,,,,,,,,,,,,,,,,,,,,,,,,,,,,,,,,,,,,,,,,,,,,,,,,,,,,,,,,,,,,,,,,,,,,,,,,,,,,,,,,,,,,,,,,,,,,,,,,,,,,,,,,,,,,,,,,,,,,,,,,,,,,,
,,,,,,615efa227a9938e11616d53c,62bbfa16145238a11f62eca6,2022-06-29_09h07.48.749,Colour_Asymmetry_Pilot,2022.1.3,Win32,59.76214666,62bbe60bf3d75ef465d3e404,0,31,31,94,1,fourtwo,,,,,,,,,,,,,,,,,,,,,,,,,,,,,,,,,,,,,,,,,,,,,,,,,,,,,,,,,,,,,,,,,,,,,,,,,,,,,,,,,,,,,,,,,,,,,,,,,,,,,,,,,,,,,,,,,,,,,,,,,,,,,,,,,,,,,,,,,,,,,,,,,,,,,,,,
,,,,,,615efa227a9938e11616d53c,62bbfa16145238a11f62eca6,2022-06-29_09h07.48.749,Colour_Asymmetry_Pilot,2022.1.3,Win32,59.76214666,62bbe60bf3d75ef465d3e404,0,32,32,102,1,fourtwo,,,,,,,,,,,,,,,,,,,,,,,,,,,,,,,,,,,,,,,,,,,,,,,,,,,,,,,,,,,,,,,,,,,,,,,,,,,,,,,,,,,,,,,,,,,,,,,,,,,,,,,,,,,,,,,,,,,,,,,,,,,,,,,,,,,,,,,,,,,,,,,,,,,,,,,,
,,,,,,615efa227a9938e11616d53c,62bbfa16145238a11f62eca6,2022-06-29_09h07.48.749,Colour_Asymmetry_Pilot,2022.1.3,Win32,59.76214666,62bbe60bf3d75ef465d3e404,0,33,33,45,1,threefour,,,,,,,,,,,,,,,,,,,,,,,,,,,,,,,,,,,,,,,,,,,,,,,,,,,,,,,,,,,,,,,,,,,,,,,,,,,,,,,,,,,,,,,,,,,,,,,,,,,,,,,,,,,,,,,,,,,,,,,,,,,,,,,,,,,,,,,,,,,,,,,,,,,,,,,,
,,,,,,615efa227a9938e11616d53c,62bbfa16145238a11f62eca6,2022-06-29_09h07.48.749,Colour_Asymmetry_Pilot,2022.1.3,Win32,59.76214666,62bbe60bf3d75ef465d3e404,0,34,34,135,1,fourthree,,,,,,,,,,,,,,,,,,,,,,,,,,,,,,,,,,,,,,,,,,,,,,,,,,,,,,,,,,,,,,,,,,,,,,,,,,,,,,,,,,,,,,,,,,,,,,,,,,,,,,,,,,,,,,,,,,,,,,,,,,,,,,,,,,,,,,,,,,,,,,,,,,,,,,,,
,,,,,,615efa227a9938e11616d53c,62bbfa16145238a11f62eca6,2022-06-29_09h07.48.749,Colour_Asymmetry_Pilot,2022.1.3,Win32,59.76214666,62bbe60bf3d75ef465d3e404,0,35,35,84,1,threeone,,,,,,,,,,,,,,,,,,,,,,,,,,,,,,,,,,,,,,,,,,,,,,,,,,,,,,,,,,,,,,,,,,,,,,,,,,,,,,,,,,,,,,,,,,,,,,,,,,,,,,,,,,,,,,,,,,,,,,,,,,,,,,,,,,,,,,,,,,,,,,,,,,,,,,,,
,,,,,,615efa227a9938e11616d53c,62bbfa16145238a11f62eca6,2022-06-29_09h07.48.749,Colour_Asymmetry_Pilot,2022.1.3,Win32,59.76214666,62bbe60bf3d75ef465d3e404,0,36,36,118,1,fourtwo,,,,,,,,,,,,,,,,,,,,,,,,,,,,,,,,,,,,,,,,,,,,,,,,,,,,,,,,,,,,,,,,,,,,,,,,,,,,,,,,,,,,,,,,,,,,,,,,,,,,,,,,,,,,,,,,,,,,,,,,,,,,,,,,,,,,,,,,,,,,,,,,,,,,,,,,
,,,,,,615efa227a9938e11616d53c,62bbfa16145238a11f62eca6,2022-06-29_09h07.48.749,Colour_Asymmetry_Pilot,2022.1.3,Win32,59.76214666,62bbe60bf3d75ef465d3e404,0,37,37,80,1,onetwo,,,,,,,,,,,,,,,,,,,,,,,,,,,,,,,,,,,,,,,,,,,,,,,,,,,,,,,,,,,,,,,,,,,,,,,,,,,,,,,,,,,,,,,,,,,,,,,,,,,,,,,,,,,,,,,,,,,,,,,,,,,,,,,,,,,,,,,,,,,,,,,,,,,,,,,,
,,,,,,615efa227a9938e11616d53c,62bbfa16145238a11f62eca6,2022-06-29_09h07.48.749,Colour_Asymmetry_Pilot,2022.1.3,Win32,59.76214666,62bbe60bf3d75ef465d3e404,0,38,38,49,1,onethree,,,,,,,,,,,,,,,,,,,,,,,,,,,,,,,,,,,,,,,,,,,,,,,,,,,,,,,,,,,,,,,,,,,,,,,,,,,,,,,,,,,,,,,,,,,,,,,,,,,,,,,,,,,,,,,,,,,,,,,,,,,,,,,,,,,,,,,,,,,,,,,,,,,,,,,,
,,,,,,615efa227a9938e11616d53c,62bbfa16145238a11f62eca6,2022-06-29_09h07.48.749,Colour_Asymmetry_Pilot,2022.1.3,Win32,59.76214666,62bbe60bf3d75ef465d3e404,0,39,39,93,1,threefour,,,,,,,,,,,,,,,,,,,,,,,,,,,,,,,,,,,,,,,,,,,,,,,,,,,,,,,,,,,,,,,,,,,,,,,,,,,,,,,,,,,,,,,,,,,,,,,,,,,,,,,,,,,,,,,,,,,,,,,,,,,,,,,,,,,,,,,,,,,,,,,,,,,,,,,,
,,,,,,615efa227a9938e11616d53c,62bbfa16145238a11f62eca6,2022-06-29_09h07.48.749,Colour_Asymmetry_Pilot,2022.1.3,Win32,59.76214666,62bbe60bf3d75ef465d3e404,0,40,40,158,1,fourtwo,,,,,,,,,,,,,,,,,,,,,,,,,,,,,,,,,,,,,,,,,,,,,,,,,,,,,,,,,,,,,,,,,,,,,,,,,,,,,,,,,,,,,,,,,,,,,,,,,,,,,,,,,,,,,,,,,,,,,,,,,,,,,,,,,,,,,,,,,,,,,,,,,,,,,,,,
,,,,,,615efa227a9938e11616d53c,62bbfa16145238a11f62eca6,2022-06-29_09h07.48.749,Colour_Asymmetry_Pilot,2022.1.3,Win32,59.76214666,62bbe60bf3d75ef465d3e404,0,41,41,82,1,twoone,,,,,,,,,,,,,,,,,,,,,,,,,,,,,,,,,,,,,,,,,,,,,,,,,,,,,,,,,,,,,,,,,,,,,,,,,,,,,,,,,,,,,,,,,,,,,,,,,,,,,,,,,,,,,,,,,,,,,,,,,,,,,,,,,,,,,,,,,,,,,,,,,,,,,,,,
,,,,,,615efa227a9938e11616d53c,62bbfa16145238a11f62eca6,2022-06-29_09h07.48.749,Colour_Asymmetry_Pilot,2022.1.3,Win32,59.76214666,62bbe60bf3d75ef465d3e404,0,42,42,58,1,twoone,,,,,,,,,,,,,,,,,,,,,,,,,,,,,,,,,,,,,,,,,,,,,,,,,,,,,,,,,,,,,,,,,,,,,,,,,,,,,,,,,,,,,,,,,,,,,,,,,,,,,,,,,,,,,,,,,,,,,,,,,,,,,,,,,,,,,,,,,,,,,,,,,,,,,,,,
,,,,,,615efa227a9938e11616d53c,62bbfa16145238a11f62eca6,2022-06-29_09h07.48.749,Colour_Asymmetry_Pilot,2022.1.3,Win32,59.76214666,62bbe60bf3d75ef465d3e404,0,43,43,123,1,twofour,,,,,,,,,,,,,,,,,,,,,,,,,,,,,,,,,,,,,,,,,,,,,,,,,,,,,,,,,,,,,,,,,,,,,,,,,,,,,,,,,,,,,,,,,,,,,,,,,,,,,,,,,,,,,,,,,,,,,,,,,,,,,,,,,,,,,,,,,,,,,,,,,,,,,,,,
,,,,,,615efa227a9938e11616d53c,62bbfa16145238a11f62eca6,2022-06-29_09h07.48.749,Colour_Asymmetry_Pilot,2022.1.3,Win32,59.76214666,62bbe60bf3d75ef465d3e404,0,44,44,140,1,threeone,,,,,,,,,,,,,,,,,,,,,,,,,,,,,,,,,,,,,,,,,,,,,,,,,,,,,,,,,,,,,,,,,,,,,,,,,,,,,,,,,,,,,,,,,,,,,,,,,,,,,,,,,,,,,,,,,,,,,,,,,,,,,,,,,,,,,,,,,,,,,,,,,,,,,,,,
,,,,,,615efa227a9938e11616d53c,62bbfa16145238a11f62eca6,2022-06-29_09h07.48.749,Colour_Asymmetry_Pilot,2022.1.3,Win32,59.76214666,62bbe60bf3d75ef465d3e404,0,45,45,0,1,onetwo,,,,,,,,,,,,,,,,,,,,,,,,,,,,,,,,,,,,,,,,,,,,,,,,,,,,,,,,,,,,,,,,,,,,,,,,,,,,,,,,,,,,,,,,,,,,,,,,,,,,,,,,,,,,,,,,,,,,,,,,,,,,,,,,,,,,,,,,,,,,,,,,,,,,,,,,
,,,,,,615efa227a9938e11616d53c,62bbfa16145238a11f62eca6,2022-06-29_09h07.48.749,Colour_Asymmetry_Pilot,2022.1.3,Win32,59.76214666,62bbe60bf3d75ef465d3e404,0,46,46,24,1,onetwo,,,,,,,,,,,,,,,,,,,,,,,,,,,,,,,,,,,,,,,,,,,,,,,,,,,,,,,,,,,,,,,,,,,,,,,,,,,,,,,,,,,,,,,,,,,,,,,,,,,,,,,,,,,,,,,,,,,,,,,,,,,,,,,,,,,,,,,,,,,,,,,,,,,,,,,,
,,,,,,615efa227a9938e11616d53c,62bbfa16145238a11f62eca6,2022-06-29_09h07.48.749,Colour_Asymmetry_Pilot,2022.1.3,Win32,59.76214666,62bbe60bf3d75ef465d3e404,0,47,47,161,1,onethree,,,,,,,,,,,,,,,,,,,,,,,,,,,,,,,,,,,,,,,,,,,,,,,,,,,,,,,,,,,,,,,,,,,,,,,,,,,,,,,,,,,,,,,,,,,,,,,,,,,,,,,,,,,,,,,,,,,,,,,,,,,,,,,,,,,,,,,,,,,,,,,,,,,,,,,,
,,,,,,615efa227a9938e11616d53c,62bbfa16145238a11f62eca6,2022-06-29_09h07.48.749,Colour_Asymmetry_Pilot,2022.1.3,Win32,59.76214666,62bbe60bf3d75ef465d3e404,0,48,48,2,1,twoone,,,,,,,,,,,,,,,,,,,,,,,,,,,,,,,,,,,,,,,,,,,,,,,,,,,,,,,,,,,,,,,,,,,,,,,,,,,,,,,,,,,,,,,,,,,,,,,,,,,,,,,,,,,,,,,,,,,,,,,,,,,,,,,,,,,,,,,,,,,,,,,,,,,,,,,,
,,,,,,615efa227a9938e11616d53c,62bbfa16145238a11f62eca6,2022-06-29_09h07.48.749,Colour_Asymmetry_Pilot,2022.1.3,Win32,59.76214666,62bbe60bf3d75ef465d3e404,0,49,49,38,1,fourtwo,,,,,,,,,,,,,,,,,,,,,,,,,,,,,,,,,,,,,,,,,,,,,,,,,,,,,,,,,,,,,,,,,,,,,,,,,,,,,,,,,,,,,,,,,,,,,,,,,,,,,,,,,,,,,,,,,,,,,,,,,,,,,,,,,,,,,,,,,,,,,,,,,,,,,,,,
,,,,,,615efa227a9938e11616d53c,62bbfa16145238a11f62eca6,2022-06-29_09h07.48.749,Colour_Asymmetry_Pilot,2022.1.3,Win32,59.76214666,62bbe60bf3d75ef465d3e404,0,50,50,50,1,twoone,,,,,,,,,,,,,,,,,,,,,,,,,,,,,,,,,,,,,,,,,,,,,,,,,,,,,,,,,,,,,,,,,,,,,,,,,,,,,,,,,,,,,,,,,,,,,,,,,,,,,,,,,,,,,,,,,,,,,,,,,,,,,,,,,,,,,,,,,,,,,,,,,,,,,,,,
,,,,,,615efa227a9938e11616d53c,62bbfa16145238a11f62eca6,2022-06-29_09h07.48.749,Colour_Asymmetry_Pilot,2022.1.3,Win32,59.76214666,62bbe60bf3d75ef465d3e404,0,51,51,114,1,twoone,,,,,,,,,,,,,,,,,,,,,,,,,,,,,,,,,,,,,,,,,,,,,,,,,,,,,,,,,,,,,,,,,,,,,,,,,,,,,,,,,,,,,,,,,,,,,,,,,,,,,,,,,,,,,,,,,,,,,,,,,,,,,,,,,,,,,,,,,,,,,,,,,,,,,,,,
,,,,,,615efa227a9938e11616d53c,62bbfa16145238a11f62eca6,2022-06-29_09h07.48.749,Colour_Asymmetry_Pilot,2022.1.3,Win32,59.76214666,62bbe60bf3d75ef465d3e404,0,52,52,138,1,twoone,,,,,,,,,,,,,,,,,,,,,,,,,,,,,,,,,,,,,,,,,,,,,,,,,,,,,,,,,,,,,,,,,,,,,,,,,,,,,,,,,,,,,,,,,,,,,,,,,,,,,,,,,,,,,,,,,,,,,,,,,,,,,,,,,,,,,,,,,,,,,,,,,,,,,,,,
,,,,,,615efa227a9938e11616d53c,62bbfa16145238a11f62eca6,2022-06-29_09h07.48.749,Colour_Asymmetry_Pilot,2022.1.3,Win32,59.76214666,62bbe60bf3d75ef465d3e404,0,53,53,52,1,threeone,,,,,,,,,,,,,,,,,,,,,,,,,,,,,,,,,,,,,,,,,,,,,,,,,,,,,,,,,,,,,,,,,,,,,,,,,,,,,,,,,,,,,,,,,,,,,,,,,,,,,,,,,,,,,,,,,,,,,,,,,,,,,,,,,,,,,,,,,,,,,,,,,,,,,,,,
,,,,,,615efa227a9938e11616d53c,62bbfa16145238a11f62eca6,2022-06-29_09h07.48.749,Colour_Asymmetry_Pilot,2022.1.3,Win32,59.76214666,62bbe60bf3d75ef465d3e404,0,54,54,60,1,threeone,,,,,,,,,,,,,,,,,,,,,,,,,,,,,,,,,,,,,,,,,,,,,,,,,,,,,,,,,,,,,,,,,,,,,,,,,,,,,,,,,,,,,,,,,,,,,,,,,,,,,,,,,,,,,,,,,,,,,,,,,,,,,,,,,,,,,,,,,,,,,,,,,,,,,,,,
,,,,,,615efa227a9938e11616d53c,62bbfa16145238a11f62eca6,2022-06-29_09h07.48.749,Colour_Asymmetry_Pilot,2022.1.3,Win32,59.76214666,62bbe60bf3d75ef465d3e404,0,55,55,92,1,threeone,,,,,,,,,,,,,,,,,,,,,,,,,,,,,,,,,,,,,,,,,,,,,,,,,,,,,,,,,,,,,,,,,,,,,,,,,,,,,,,,,,,,,,,,,,,,,,,,,,,,,,,,,,,,,,,,,,,,,,,,,,,,,,,,,,,,,,,,,,,,,,,,,,,,,,,,
,,,,,,615efa227a9938e11616d53c,62bbfa16145238a11f62eca6,2022-06-29_09h07.48.749,Colour_Asymmetry_Pilot,2022.1.3,Win32,59.76214666,62bbe60bf3d75ef465d3e404,0,56,56,31,1,fourthree,,,,,,,,,,,,,,,,,,,,,,,,,,,,,,,,,,,,,,,,,,,,,,,,,,,,,,,,,,,,,,,,,,,,,,,,,,,,,,,,,,,,,,,,,,,,,,,,,,,,,,,,,,,,,,,,,,,,,,,,,,,,,,,,,,,,,,,,,,,,,,,,,,,,,,,,
,,,,,,615efa227a9938e11616d53c,62bbfa16145238a11f62eca6,2022-06-29_09h07.48.749,Colour_Asymmetry_Pilot,2022.1.3,Win32,59.76214666,62bbe60bf3d75ef465d3e404,0,57,57,96,1,onetwo,,,,,,,,,,,,,,,,,,,,,,,,,,,,,,,,,,,,,,,,,,,,,,,,,,,,,,,,,,,,,,,,,,,,,,,,,,,,,,,,,,,,,,,,,,,,,,,,,,,,,,,,,,,,,,,,,,,,,,,,,,,,,,,,,,,,,,,,,,,,,,,,,,,,,,,,
,,,,,,615efa227a9938e11616d53c,62bbfa16145238a11f62eca6,2022-06-29_09h07.48.749,Colour_Asymmetry_Pilot,2022.1.3,Win32,59.76214666,62bbe60bf3d75ef465d3e404,0,58,58,64,1,onetwo,,,,,,,,,,,,,,,,,,,,,,,,,,,,,,,,,,,,,,,,,,,,,,,,,,,,,,,,,,,,,,,,,,,,,,,,,,,,,,,,,,,,,,,,,,,,,,,,,,,,,,,,,,,,,,,,,,,,,,,,,,,,,,,,,,,,,,,,,,,,,,,,,,,,,,,,
,,,,,,615efa227a9938e11616d53c,62bbfa16145238a11f62eca6,2022-06-29_09h07.48.749,Colour_Asymmetry_Pilot,2022.1.3,Win32,59.76214666,62bbe60bf3d75ef465d3e404,0,59,59,105,1,onethree,,,,,,,,,,,,,,,,,,,,,,,,,,,,,,,,,,,,,,,,,,,,,,,,,,,,,,,,,,,,,,,,,,,,,,,,,,,,,,,,,,,,,,,,,,,,,,,,,,,,,,,,,,,,,,,,,,,,,,,,,,,,,,,,,,,,,,,,,,,,,,,,,,,,,,,,
,,,,,,615efa227a9938e11616d53c,62bbfa16145238a11f62eca6,2022-06-29_09h07.48.749,Colour_Asymmetry_Pilot,2022.1.3,Win32,59.76214666,62bbe60bf3d75ef465d3e404,0,60,60,25,1,onethree,,,,,,,,,,,,,,,,,,,,,,,,,,,,,,,,,,,,,,,,,,,,,,,,,,,,,,,,,,,,,,,,,,,,,,,,,,,,,,,,,,,,,,,,,,,,,,,,,,,,,,,,,,,,,,,,,,,,,,,,,,,,,,,,,,,,,,,,,,,,,,,,,,,,,,,,
,,,,,,615efa227a9938e11616d53c,62bbfa16145238a11f62eca6,2022-06-29_09h07.48.749,Colour_Asymmetry_Pilot,2022.1.3,Win32,59.76214666,62bbe60bf3d75ef465d3e404,0,61,61,144,1,onetwo,,,,,,,,,,,,,,,,,,,,,,,,,,,,,,,,,,,,,,,,,,,,,,,,,,,,,,,,,,,,,,,,,,,,,,,,,,,,,,,,,,,,,,,,,,,,,,,,,,,,,,,,,,,,,,,,,,,,,,,,,,,,,,,,,,,,,,,,,,,,,,,,,,,,,,,,
,,,,,,615efa227a9938e11616d53c,62bbfa16145238a11f62eca6,2022-06-29_09h07.48.749,Colour_Asymmetry_Pilot,2022.1.3,Win32,59.76214666,62bbe60bf3d75ef465d3e404,0,62,62,83,1,twofour,,,,,,,,,,,,,,,,,,,,,,,,,,,,,,,,,,,,,,,,,,,,,,,,,,,,,,,,,,,,,,,,,,,,,,,,,,,,,,,,,,,,,,,,,,,,,,,,,,,,,,,,,,,,,,,,,,,,,,,,,,,,,,,,,,,,,,,,,,,,,,,,,,,,,,,,
,,,,,,615efa227a9938e11616d53c,62bbfa16145238a11f62eca6,2022-06-29_09h07.48.749,Colour_Asymmetry_Pilot,2022.1.3,Win32,59.76214666,62bbe60bf3d75ef465d3e404,0,63,63,23,1,fourthree,,,,,,,,,,,,,,,,,,,,,,,,,,,,,,,,,,,,,,,,,,,,,,,,,,,,,,,,,,,,,,,,,,,,,,,,,,,,,,,,,,,,,,,,,,,,,,,,,,,,,,,,,,,,,,,,,,,,,,,,,,,,,,,,,,,,,,,,,,,,,,,,,,,,,,,,
,,,,,,615efa227a9938e11616d53c,62bbfa16145238a11f62eca6,2022-06-29_09h07.48.749,Colour_Asymmetry_Pilot,2022.1.3,Win32,59.76214666,62bbe60bf3d75ef465d3e404,0,64,64,116,1,threeone,,,,,,,,,,,,,,,,,,,,,,,,,,,,,,,,,,,,,,,,,,,,,,,,,,,,,,,,,,,,,,,,,,,,,,,,,,,,,,,,,,,,,,,,,,,,,,,,,,,,,,,,,,,,,,,,,,,,,,,,,,,,,,,,,,,,,,,,,,,,,,,,,,,,,,,,
,,,,,,615efa227a9938e11616d53c,62bbfa16145238a11f62eca6,2022-06-29_09h07.48.749,Colour_Asymmetry_Pilot,2022.1.3,Win32,59.76214666,62bbe60bf3d75ef465d3e404,0,65,65,159,1,fourthree,,,,,,,,,,,,,,,,,,,,,,,,,,,,,,,,,,,,,,,,,,,,,,,,,,,,,,,,,,,,,,,,,,,,,,,,,,,,,,,,,,,,,,,,,,,,,,,,,,,,,,,,,,,,,,,,,,,,,,,,,,,,,,,,,,,,,,,,,,,,,,,,,,,,,,,,
,,,,,,615efa227a9938e11616d53c,62bbfa16145238a11f62eca6,2022-06-29_09h07.48.749,Colour_Asymmetry_Pilot,2022.1.3,Win32,59.76214666,62bbe60bf3d75ef465d3e404,0,66,66,100,1,threeone,,,,,,,,,,,,,,,,,,,,,,,,,,,,,,,,,,,,,,,,,,,,,,,,,,,,,,,,,,,,,,,,,,,,,,,,,,,,,,,,,,,,,,,,,,,,,,,,,,,,,,,,,,,,,,,,,,,,,,,,,,,,,,,,,,,,,,,,,,,,,,,,,,,,,,,,
,,,,,,615efa227a9938e11616d53c,62bbfa16145238a11f62eca6,2022-06-29_09h07.48.749,Colour_Asymmetry_Pilot,2022.1.3,Win32,59.76214666,62bbe60bf3d75ef465d3e404,0,67,67,62,1,fourtwo,,,,,,,,,,,,,,,,,,,,,,,,,,,,,,,,,,,,,,,,,,,,,,,,,,,,,,,,,,,,,,,,,,,,,,,,,,,,,,,,,,,,,,,,,,,,,,,,,,,,,,,,,,,,,,,,,,,,,,,,,,,,,,,,,,,,,,,,,,,,,,,,,,,,,,,,
,,,,,,615efa227a9938e11616d53c,62bbfa16145238a11f62eca6,2022-06-29_09h07.48.749,Colour_Asymmetry_Pilot,2022.1.3,Win32,59.76214666,62bbe60bf3d75ef465d3e404,0,68,68,126,1,fourtwo,,,,,,,,,,,,,,,,,,,,,,,,,,,,,,,,,,,,,,,,,,,,,,,,,,,,,,,,,,,,,,,,,,,,,,,,,,,,,,,,,,,,,,,,,,,,,,,,,,,,,,,,,,,,,,,,,,,,,,,,,,,,,,,,,,,,,,,,,,,,,,,,,,,,,,,,
,,,,,,615efa227a9938e11616d53c,62bbfa16145238a11f62eca6,2022-06-29_09h07.48.749,Colour_Asymmetry_Pilot,2022.1.3,Win32,59.76214666,62bbe60bf3d75ef465d3e404,0,69,69,72,1,onetwo,,,,,,,,,,,,,,,,,,,,,,,,,,,,,,,,,,,,,,,,,,,,,,,,,,,,,,,,,,,,,,,,,,,,,,,,,,,,,,,,,,,,,,,,,,,,,,,,,,,,,,,,,,,,,,,,,,,,,,,,,,,,,,,,,,,,,,,,,,,,,,,,,,,,,,,,
,,,,,,615efa227a9938e11616d53c,62bbfa16145238a11f62eca6,2022-06-29_09h07.48.749,Colour_Asymmetry_Pilot,2022.1.3,Win32,59.76214666,62bbe60bf3d75ef465d3e404,0,70,70,65,1,onethree,,,,,,,,,,,,,,,,,,,,,,,,,,,,,,,,,,,,,,,,,,,,,,,,,,,,,,,,,,,,,,,,,,,,,,,,,,,,,,,,,,,,,,,,,,,,,,,,,,,,,,,,,,,,,,,,,,,,,,,,,,,,,,,,,,,,,,,,,,,,,,,,,,,,,,,,
,,,,,,615efa227a9938e11616d53c,62bbfa16145238a11f62eca6,2022-06-29_09h07.48.749,Colour_Asymmetry_Pilot,2022.1.3,Win32,59.76214666,62bbe60bf3d75ef465d3e404,0,71,71,40,1,onetwo,,,,,,,,,,,,,,,,,,,,,,,,,,,,,,,,,,,,,,,,,,,,,,,,,,,,,,,,,,,,,,,,,,,,,,,,,,,,,,,,,,,,,,,,,,,,,,,,,,,,,,,,,,,,,,,,,,,,,,,,,,,,,,,,,,,,,,,,,,,,,,,,,,,,,,,,
,,,,,,615efa227a9938e11616d53c,62bbfa16145238a11f62eca6,2022-06-29_09h07.48.749,Colour_Asymmetry_Pilot,2022.1.3,Win32,59.76214666,62bbe60bf3d75ef465d3e404,0,72,72,48,1,onetwo,,,,,,,,,,,,,,,,,,,,,,,,,,,,,,,,,,,,,,,,,,,,,,,,,,,,,,,,,,,,,,,,,,,,,,,,,,,,,,,,,,,,,,,,,,,,,,,,,,,,,,,,,,,,,,,,,,,,,,,,,,,,,,,,,,,,,,,,,,,,,,,,,,,,,,,,
,,,,,,615efa227a9938e11616d53c,62bbfa16145238a11f62eca6,2022-06-29_09h07.48.749,Colour_Asymmetry_Pilot,2022.1.3,Win32,59.76214666,62bbe60bf3d75ef465d3e404,0,73,73,13,1,threefour,,,,,,,,,,,,,,,,,,,,,,,,,,,,,,,,,,,,,,,,,,,,,,,,,,,,,,,,,,,,,,,,,,,,,,,,,,,,,,,,,,,,,,,,,,,,,,,,,,,,,,,,,,,,,,,,,,,,,,,,,,,,,,,,,,,,,,,,,,,,,,,,,,,,,,,,
,,,,,,615efa227a9938e11616d53c,62bbfa16145238a11f62eca6,2022-06-29_09h07.48.749,Colour_Asymmetry_Pilot,2022.1.3,Win32,59.76214666,62bbe60bf3d75ef465d3e404,0,74,74,160,1,onetwo,,,,,,,,,,,,,,,,,,,,,,,,,,,,,,,,,,,,,,,,,,,,,,,,,,,,,,,,,,,,,,,,,,,,,,,,,,,,,,,,,,,,,,,,,,,,,,,,,,,,,,,,,,,,,,,,,,,,,,,,,,,,,,,,,,,,,,,,,,,,,,,,,,,,,,,,
,,,,,,615efa227a9938e11616d53c,62bbfa16145238a11f62eca6,2022-06-29_09h07.48.749,Colour_Asymmetry_Pilot,2022.1.3,Win32,59.76214666,62bbe60bf3d75ef465d3e404,0,75,75,35,1,twofour,,,,,,,,,,,,,,,,,,,,,,,,,,,,,,,,,,,,,,,,,,,,,,,,,,,,,,,,,,,,,,,,,,,,,,,,,,,,,,,,,,,,,,,,,,,,,,,,,,,,,,,,,,,,,,,,,,,,,,,,,,,,,,,,,,,,,,,,,,,,,,,,,,,,,,,,
,,,,,,615efa227a9938e11616d53c,62bbfa16145238a11f62eca6,2022-06-29_09h07.48.749,Colour_Asymmetry_Pilot,2022.1.3,Win32,59.76214666,62bbe60bf3d75ef465d3e404,0,76,76,54,1,fourtwo,,,,,,,,,,,,,,,,,,,,,,,,,,,,,,,,,,,,,,,,,,,,,,,,,,,,,,,,,,,,,,,,,,,,,,,,,,,,,,,,,,,,,,,,,,,,,,,,,,,,,,,,,,,,,,,,,,,,,,,,,,,,,,,,,,,,,,,,,,,,,,,,,,,,,,,,
,,,,,,615efa227a9938e11616d53c,62bbfa16145238a11f62eca6,2022-06-29_09h07.48.749,Colour_Asymmetry_Pilot,2022.1.3,Win32,59.76214666,62bbe60bf3d75ef465d3e404,0,77,77,14,1,fourtwo,,,,,,,,,,,,,,,,,,,,,,,,,,,,,,,,,,,,,,,,,,,,,,,,,,,,,,,,,,,,,,,,,,,,,,,,,,,,,,,,,,,,,,,,,,,,,,,,,,,,,,,,,,,,,,,,,,,,,,,,,,,,,,,,,,,,,,,,,,,,,,,,,,,,,,,,
,,,,,,615efa227a9938e11616d53c,62bbfa16145238a11f62eca6,2022-06-29_09h07.48.749,Colour_Asymmetry_Pilot,2022.1.3,Win32,59.76214666,62bbe60bf3d75ef465d3e404,0,78,78,32,1,onetwo,,,,,,,,,,,,,,,,,,,,,,,,,,,,,,,,,,,,,,,,,,,,,,,,,,,,,,,,,,,,,,,,,,,,,,,,,,,,,,,,,,,,,,,,,,,,,,,,,,,,,,,,,,,,,,,,,,,,,,,,,,,,,,,,,,,,,,,,,,,,,,,,,,,,,,,,
,,,,,,615efa227a9938e11616d53c,62bbfa16145238a11f62eca6,2022-06-29_09h07.48.749,Colour_Asymmetry_Pilot,2022.1.3,Win32,59.76214666,62bbe60bf3d75ef465d3e404,0,79,79,134,1,fourtwo,,,,,,,,,,,,,,,,,,,,,,,,,,,,,,,,,,,,,,,,,,,,,,,,,,,,,,,,,,,,,,,,,,,,,,,,,,,,,,,,,,,,,,,,,,,,,,,,,,,,,,,,,,,,,,,,,,,,,,,,,,,,,,,,,,,,,,,,,,,,,,,,,,,,,,,,
,,,,,,615efa227a9938e11616d53c,62bbfa16145238a11f62eca6,2022-06-29_09h07.48.749,Colour_Asymmetry_Pilot,2022.1.3,Win32,59.76214666,62bbe60bf3d75ef465d3e404,0,80,80,21,1,threefour,,,,,,,,,,,,,,,,,,,,,,,,,,,,,,,,,,,,,,,,,,,,,,,,,,,,,,,,,,,,,,,,,,,,,,,,,,,,,,,,,,,,,,,,,,,,,,,,,,,,,,,,,,,,,,,,,,,,,,,,,,,,,,,,,,,,,,,,,,,,,,,,,,,,,,,,
,,,,,,615efa227a9938e11616d53c,62bbfa16145238a11f62eca6,2022-06-29_09h07.48.749,Colour_Asymmetry_Pilot,2022.1.3,Win32,59.76214666,62bbe60bf3d75ef465d3e404,0,81,81,73,1,onethree,,,,,,,,,,,,,,,,,,,,,,,,,,,,,,,,,,,,,,,,,,,,,,,,,,,,,,,,,,,,,,,,,,,,,,,,,,,,,,,,,,,,,,,,,,,,,,,,,,,,,,,,,,,,,,,,,,,,,,,,,,,,,,,,,,,,,,,,,,,,,,,,,,,,,,,,
,,,,,,615efa227a9938e11616d53c,62bbfa16145238a11f62eca6,2022-06-29_09h07.48.749,Colour_Asymmetry_Pilot,2022.1.3,Win32,59.76214666,62bbe60bf3d75ef465d3e404,0,82,82,149,1,threefour,,,,,,,,,,,,,,,,,,,,,,,,,,,,,,,,,,,,,,,,,,,,,,,,,,,,,,,,,,,,,,,,,,,,,,,,,,,,,,,,,,,,,,,,,,,,,,,,,,,,,,,,,,,,,,,,,,,,,,,,,,,,,,,,,,,,,,,,,,,,,,,,,,,,,,,,
,,,,,,615efa227a9938e11616d53c,62bbfa16145238a11f62eca6,2022-06-29_09h07.48.749,Colour_Asymmetry_Pilot,2022.1.3,Win32,59.76214666,62bbe60bf3d75ef465d3e404,0,83,83,131,1,twofour,,,,,,,,,,,,,,,,,,,,,,,,,,,,,,,,,,,,,,,,,,,,,,,,,,,,,,,,,,,,,,,,,,,,,,,,,,,,,,,,,,,,,,,,,,,,,,,,,,,,,,,,,,,,,,,,,,,,,,,,,,,,,,,,,,,,,,,,,,,,,,,,,,,,,,,,
,,,,,,615efa227a9938e11616d53c,62bbfa16145238a11f62eca6,2022-06-29_09h07.48.749,Colour_Asymmetry_Pilot,2022.1.3,Win32,59.76214666,62bbe60bf3d75ef465d3e404,0,84,84,63,1,fourthree,,,,,,,,,,,,,,,,,,,,,,,,,,,,,,,,,,,,,,,,,,,,,,,,,,,,,,,,,,,,,,,,,,,,,,,,,,,,,,,,,,,,,,,,,,,,,,,,,,,,,,,,,,,,,,,,,,,,,,,,,,,,,,,,,,,,,,,,,,,,,,,,,,,,,,,,
,,,,,,615efa227a9938e11616d53c,62bbfa16145238a11f62eca6,2022-06-29_09h07.48.749,Colour_Asymmetry_Pilot,2022.1.3,Win32,59.76214666,62bbe60bf3d75ef465d3e404,0,85,85,139,1,twofour,,,,,,,,,,,,,,,,,,,,,,,,,,,,,,,,,,,,,,,,,,,,,,,,,,,,,,,,,,,,,,,,,,,,,,,,,,,,,,,,,,,,,,,,,,,,,,,,,,,,,,,,,,,,,,,,,,,,,,,,,,,,,,,,,,,,,,,,,,,,,,,,,,,,,,,,
,,,,,,615efa227a9938e11616d53c,62bbfa16145238a11f62eca6,2022-06-29_09h07.48.749,Colour_Asymmetry_Pilot,2022.1.3,Win32,59.76214666,62bbe60bf3d75ef465d3e404,0,86,86,30,1,fourtwo,,,,,,,,,,,,,,,,,,,,,,,,,,,,,,,,,,,,,,,,,,,,,,,,,,,,,,,,,,,,,,,,,,,,,,,,,,,,,,,,,,,,,,,,,,,,,,,,,,,,,,,,,,,,,,,,,,,,,,,,,,,,,,,,,,,,,,,,,,,,,,,,,,,,,,,,
,,,,,,615efa227a9938e11616d53c,62bbfa16145238a11f62eca6,2022-06-29_09h07.48.749,Colour_Asymmetry_Pilot,2022.1.3,Win32,59.76214666,62bbe60bf3d75ef465d3e404,0,87,87,67,1,twofour,,,,,,,,,,,,,,,,,,,,,,,,,,,,,,,,,,,,,,,,,,,,,,,,,,,,,,,,,,,,,,,,,,,,,,,,,,,,,,,,,,,,,,,,,,,,,,,,,,,,,,,,,,,,,,,,,,,,,,,,,,,,,,,,,,,,,,,,,,,,,,,,,,,,,,,,
,,,,,,615efa227a9938e11616d53c,62bbfa16145238a11f62eca6,2022-06-29_09h07.48.749,Colour_Asymmetry_Pilot,2022.1.3,Win32,59.76214666,62bbe60bf3d75ef465d3e404,0,88,88,137,1,onethree,,,,,,,,,,,,,,,,,,,,,,,,,,,,,,,,,,,,,,,,,,,,,,,,,,,,,,,,,,,,,,,,,,,,,,,,,,,,,,,,,,,,,,,,,,,,,,,,,,,,,,,,,,,,,,,,,,,,,,,,,,,,,,,,,,,,,,,,,,,,,,,,,,,,,,,,
,,,,,,615efa227a9938e11616d53c,62bbfa16145238a11f62eca6,2022-06-29_09h07.48.749,Colour_Asymmetry_Pilot,2022.1.3,Win32,59.76214666,62bbe60bf3d75ef465d3e404,0,89,89,87,1,fourthree,,,,,,,,,,,,,,,,,,,,,,,,,,,,,,,,,,,,,,,,,,,,,,,,,,,,,,,,,,,,,,,,,,,,,,,,,,,,,,,,,,,,,,,,,,,,,,,,,,,,,,,,,,,,,,,,,,,,,,,,,,,,,,,,,,,,,,,,,,,,,,,,,,,,,,,,
,,,,,,615efa227a9938e11616d53c,62bbfa16145238a11f62eca6,2022-06-29_09h07.48.749,Colour_Asymmetry_Pilot,2022.1.3,Win32,59.76214666,62bbe60bf3d75ef465d3e404,0,90,90,133,1,threefour,,,,,,,,,,,,,,,,,,,,,,,,,,,,,,,,,,,,,,,,,,,,,,,,,,,,,,,,,,,,,,,,,,,,,,,,,,,,,,,,,,,,,,,,,,,,,,,,,,,,,,,,,,,,,,,,,,,,,,,,,,,,,,,,,,,,,,,,,,,,,,,,,,,,,,,,
,,,,,,615efa227a9938e11616d53c,62bbfa16145238a11f62eca6,2022-06-29_09h07.48.749,Colour_Asymmetry_Pilot,2022.1.3,Win32,59.76214666,62bbe60bf3d75ef465d3e404,0,91,91,46,1,fourtwo,,,,,,,,,,,,,,,,,,,,,,,,,,,,,,,,,,,,,,,,,,,,,,,,,,,,,,,,,,,,,,,,,,,,,,,,,,,,,,,,,,,,,,,,,,,,,,,,,,,,,,,,,,,,,,,,,,,,,,,,,,,,,,,,,,,,,,,,,,,,,,,,,,,,,,,,
,,,,,,615efa227a9938e11616d53c,62bbfa16145238a11f62eca6,2022-06-29_09h07.48.749,Colour_Asymmetry_Pilot,2022.1.3,Win32,59.76214666,62bbe60bf3d75ef465d3e404,0,92,92,148,1,threeone,,,,,,,,,,,,,,,,,,,,,,,,,,,,,,,,,,,,,,,,,,,,,,,,,,,,,,,,,,,,,,,,,,,,,,,,,,,,,,,,,,,,,,,,,,,,,,,,,,,,,,,,,,,,,,,,,,,,,,,,,,,,,,,,,,,,,,,,,,,,,,,,,,,,,,,,
,,,,,,615efa227a9938e11616d53c,62bbfa16145238a11f62eca6,2022-06-29_09h07.48.749,Colour_Asymmetry_Pilot,2022.1.3,Win32,59.76214666,62bbe60bf3d75ef465d3e404,0,93,93,101,1,threefour,,,,,,,,,,,,,,,,,,,,,,,,,,,,,,,,,,,,,,,,,,,,,,,,,,,,,,,,,,,,,,,,,,,,,,,,,,,,,,,,,,,,,,,,,,,,,,,,,,,,,,,,,,,,,,,,,,,,,,,,,,,,,,,,,,,,,,,,,,,,,,,,,,,,,,,,
,,,,,,615efa227a9938e11616d53c,62bbfa16145238a11f62eca6,2022-06-29_09h07.48.749,Colour_Asymmetry_Pilot,2022.1.3,Win32,59.76214666,62bbe60bf3d75ef465d3e404,0,94,94,26,1,twoone,,,,,,,,,,,,,,,,,,,,,,,,,,,,,,,,,,,,,,,,,,,,,,,,,,,,,,,,,,,,,,,,,,,,,,,,,,,,,,,,,,,,,,,,,,,,,,,,,,,,,,,,,,,,,,,,,,,,,,,,,,,,,,,,,,,,,,,,,,,,,,,,,,,,,,,,
,,,,,,615efa227a9938e11616d53c,62bbfa16145238a11f62eca6,2022-06-29_09h07.48.749,Colour_Asymmetry_Pilot,2022.1.3,Win32,59.76214666,62bbe60bf3d75ef465d3e404,0,95,95,6,1,fourtwo,,,,,,,,,,,,,,,,,,,,,,,,,,,,,,,,,,,,,,,,,,,,,,,,,,,,,,,,,,,,,,,,,,,,,,,,,,,,,,,,,,,,,,,,,,,,,,,,,,,,,,,,,,,,,,,,,,,,,,,,,,,,,,,,,,,,,,,,,,,,,,,,,,,,,,,,
,,,,,,615efa227a9938e11616d53c,62bbfa16145238a11f62eca6,2022-06-29_09h07.48.749,Colour_Asymmetry_Pilot,2022.1.3,Win32,59.76214666,62bbe60bf3d75ef465d3e404,0,96,96,61,1,threefour,,,,,,,,,,,,,,,,,,,,,,,,,,,,,,,,,,,,,,,,,,,,,,,,,,,,,,,,,,,,,,,,,,,,,,,,,,,,,,,,,,,,,,,,,,,,,,,,,,,,,,,,,,,,,,,,,,,,,,,,,,,,,,,,,,,,,,,,,,,,,,,,,,,,,,,,
,,,,,,615efa227a9938e11616d53c,62bbfa16145238a11f62eca6,2022-06-29_09h07.48.749,Colour_Asymmetry_Pilot,2022.1.3,Win32,59.76214666,62bbe60bf3d75ef465d3e404,0,97,97,43,1,twofour,,,,,,,,,,,,,,,,,,,,,,,,,,,,,,,,,,,,,,,,,,,,,,,,,,,,,,,,,,,,,,,,,,,,,,,,,,,,,,,,,,,,,,,,,,,,,,,,,,,,,,,,,,,,,,,,,,,,,,,,,,,,,,,,,,,,,,,,,,,,,,,,,,,,,,,,
,,,,,,615efa227a9938e11616d53c,62bbfa16145238a11f62eca6,2022-06-29_09h07.48.749,Colour_Asymmetry_Pilot,2022.1.3,Win32,59.76214666,62bbe60bf3d75ef465d3e404,0,98,98,1,1,onethree,,,,,,,,,,,,,,,,,,,,,,,,,,,,,,,,,,,,,,,,,,,,,,,,,,,,,,,,,,,,,,,,,,,,,,,,,,,,,,,,,,,,,,,,,,,,,,,,,,,,,,,,,,,,,,,,,,,,,,,,,,,,,,,,,,,,,,,,,,,,,,,,,,,,,,,,
,,,,,,615efa227a9938e11616d53c,62bbfa16145238a11f62eca6,2022-06-29_09h07.48.749,Colour_Asymmetry_Pilot,2022.1.3,Win32,59.76214666,62bbe60bf3d75ef465d3e404,0,99,99,59,1,twofour,,,,,,,,,,,,,,,,,,,,,,,,,,,,,,,,,,,,,,,,,,,,,,,,,,,,,,,,,,,,,,,,,,,,,,,,,,,,,,,,,,,,,,,,,,,,,,,,,,,,,,,,,,,,,,,,,,,,,,,,,,,,,,,,,,,,,,,,,,,,,,,,,,,,,,,,
,,,,,,615efa227a9938e11616d53c,62bbfa16145238a11f62eca6,2022-06-29_09h07.48.749,Colour_Asymmetry_Pilot,2022.1.3,Win32,59.76214666,62bbe60bf3d75ef465d3e404,0,100,100,119,1,fourthree,,,,,,,,,,,,,,,,,,,,,,,,,,,,,,,,,,,,,,,,,,,,,,,,,,,,,,,,,,,,,,,,,,,,,,,,,,,,,,,,,,,,,,,,,,,,,,,,,,,,,,,,,,,,,,,,,,,,,,,,,,,,,,,,,,,,,,,,,,,,,,,,,,,,,,,,
,,,,,,615efa227a9938e11616d53c,62bbfa16145238a11f62eca6,2022-06-29_09h07.48.749,Colour_Asymmetry_Pilot,2022.1.3,Win32,59.76214666,62bbe60bf3d75ef465d3e404,0,101,101,28,1,threeone,,,,,,,,,,,,,,,,,,,,,,,,,,,,,,,,,,,,,,,,,,,,,,,,,,,,,,,,,,,,,,,,,,,,,,,,,,,,,,,,,,,,,,,,,,,,,,,,,,,,,,,,,,,,,,,,,,,,,,,,,,,,,,,,,,,,,,,,,,,,,,,,,,,,,,,,
,,,,,,615efa227a9938e11616d53c,62bbfa16145238a11f62eca6,2022-06-29_09h07.48.749,Colour_Asymmetry_Pilot,2022.1.3,Win32,59.76214666,62bbe60bf3d75ef465d3e404,0,102,102,106,1,twoone,,,,,,,,,,,,,,,,,,,,,,,,,,,,,,,,,,,,,,,,,,,,,,,,,,,,,,,,,,,,,,,,,,,,,,,,,,,,,,,,,,,,,,,,,,,,,,,,,,,,,,,,,,,,,,,,,,,,,,,,,,,,,,,,,,,,,,,,,,,,,,,,,,,,,,,,
,,,,,,615efa227a9938e11616d53c,62bbfa16145238a11f62eca6,2022-06-29_09h07.48.749,Colour_Asymmetry_Pilot,2022.1.3,Win32,59.76214666,62bbe60bf3d75ef465d3e404,0,103,103,130,1,twoone,,,,,,,,,,,,,,,,,,,,,,,,,,,,,,,,,,,,,,,,,,,,,,,,,,,,,,,,,,,,,,,,,,,,,,,,,,,,,,,,,,,,,,,,,,,,,,,,,,,,,,,,,,,,,,,,,,,,,,,,,,,,,,,,,,,,,,,,,,,,,,,,,,,,,,,,
,,,,,,615efa227a9938e11616d53c,62bbfa16145238a11f62eca6,2022-06-29_09h07.48.749,Colour_Asymmetry_Pilot,2022.1.3,Win32,59.76214666,62bbe60bf3d75ef465d3e404,0,104,104,143,1,fourthree,,,,,,,,,,,,,,,,,,,,,,,,,,,,,,,,,,,,,,,,,,,,,,,,,,,,,,,,,,,,,,,,,,,,,,,,,,,,,,,,,,,,,,,,,,,,,,,,,,,,,,,,,,,,,,,,,,,,,,,,,,,,,,,,,,,,,,,,,,,,,,,,,,,,,,,,
,,,,,,615efa227a9938e11616d53c,62bbfa16145238a11f62eca6,2022-06-29_09h07.48.749,Colour_Asymmetry_Pilot,2022.1.3,Win32,59.76214666,62bbe60bf3d75ef465d3e404,0,105,105,127,1,fourthree,,,,,,,,,,,,,,,,,,,,,,,,,,,,,,,,,,,,,,,,,,,,,,,,,,,,,,,,,,,,,,,,,,,,,,,,,,,,,,,,,,,,,,,,,,,,,,,,,,,,,,,,,,,,,,,,,,,,,,,,,,,,,,,,,,,,,,,,,,,,,,,,,,,,,,,,
,,,,,,615efa227a9938e11616d53c,62bbfa16145238a11f62eca6,2022-06-29_09h07.48.749,Colour_Asymmetry_Pilot,2022.1.3,Win32,59.76214666,62bbe60bf3d75ef465d3e404,0,106,106,128,1,onetwo,,,,,,,,,,,,,,,,,,,,,,,,,,,,,,,,,,,,,,,,,,,,,,,,,,,,,,,,,,,,,,,,,,,,,,,,,,,,,,,,,,,,,,,,,,,,,,,,,,,,,,,,,,,,,,,,,,,,,,,,,,,,,,,,,,,,,,,,,,,,,,,,,,,,,,,,
,,,,,,615efa227a9938e11616d53c,62bbfa16145238a11f62eca6,2022-06-29_09h07.48.749,Colour_Asymmetry_Pilot,2022.1.3,Win32,59.76214666,62bbe60bf3d75ef465d3e404,0,107,107,79,1,fourthree,,,,,,,,,,,,,,,,,,,,,,,,,,,,,,,,,,,,,,,,,,,,,,,,,,,,,,,,,,,,,,,,,,,,,,,,,,,,,,,,,,,,,,,,,,,,,,,,,,,,,,,,,,,,,,,,,,,,,,,,,,,,,,,,,,,,,,,,,,,,,,,,,,,,,,,,
,,,,,,615efa227a9938e11616d53c,62bbfa16145238a11f62eca6,2022-06-29_09h07.48.749,Colour_Asymmetry_Pilot,2022.1.3,Win32,59.76214666,62bbe60bf3d75ef465d3e404,0,108,108,151,1,fourthree,,,,,,,,,,,,,,,,,,,,,,,,,,,,,,,,,,,,,,,,,,,,,,,,,,,,,,,,,,,,,,,,,,,,,,,,,,,,,,,,,,,,,,,,,,,,,,,,,,,,,,,,,,,,,,,,,,,,,,,,,,,,,,,,,,,,,,,,,,,,,,,,,,,,,,,,
,,,,,,615efa227a9938e11616d53c,62bbfa16145238a11f62eca6,2022-06-29_09h07.48.749,Colour_Asymmetry_Pilot,2022.1.3,Win32,59.76214666,62bbe60bf3d75ef465d3e404,0,109,109,44,1,threeone,,,,,,,,,,,,,,,,,,,,,,,,,,,,,,,,,,,,,,,,,,,,,,,,,,,,,,,,,,,,,,,,,,,,,,,,,,,,,,,,,,,,,,,,,,,,,,,,,,,,,,,,,,,,,,,,,,,,,,,,,,,,,,,,,,,,,,,,,,,,,,,,,,,,,,,,
,,,,,,615efa227a9938e11616d53c,62bbfa16145238a11f62eca6,2022-06-29_09h07.48.749,Colour_Asymmetry_Pilot,2022.1.3,Win32,59.76214666,62bbe60bf3d75ef465d3e404,0,110,110,3,1,twofour,,,,,,,,,,,,,,,,,,,,,,,,,,,,,,,,,,,,,,,,,,,,,,,,,,,,,,,,,,,,,,,,,,,,,,,,,,,,,,,,,,,,,,,,,,,,,,,,,,,,,,,,,,,,,,,,,,,,,,,,,,,,,,,,,,,,,,,,,,,,,,,,,,,,,,,,
,,,,,,615efa227a9938e11616d53c,62bbfa16145238a11f62eca6,2022-06-29_09h07.48.749,Colour_Asymmetry_Pilot,2022.1.3,Win32,59.76214666,62bbe60bf3d75ef465d3e404,0,111,111,98,1,twoone,,,,,,,,,,,,,,,,,,,,,,,,,,,,,,,,,,,,,,,,,,,,,,,,,,,,,,,,,,,,,,,,,,,,,,,,,,,,,,,,,,,,,,,,,,,,,,,,,,,,,,,,,,,,,,,,,,,,,,,,,,,,,,,,,,,,,,,,,,,,,,,,,,,,,,,,
,,,,,,615efa227a9938e11616d53c,62bbfa16145238a11f62eca6,2022-06-29_09h07.48.749,Colour_Asymmetry_Pilot,2022.1.3,Win32,59.76214666,62bbe60bf3d75ef465d3e404,0,112,112,113,1,onethree,,,,,,,,,,,,,,,,,,,,,,,,,,,,,,,,,,,,,,,,,,,,,,,,,,,,,,,,,,,,,,,,,,,,,,,,,,,,,,,,,,,,,,,,,,,,,,,,,,,,,,,,,,,,,,,,,,,,,,,,,,,,,,,,,,,,,,,,,,,,,,,,,,,,,,,,
,,,,,,615efa227a9938e11616d53c,62bbfa16145238a11f62eca6,2022-06-29_09h07.48.749,Colour_Asymmetry_Pilot,2022.1.3,Win32,59.76214666,62bbe60bf3d75ef465d3e404,0,113,113,136,1,onetwo,,,,,,,,,,,,,,,,,,,,,,,,,,,,,,,,,,,,,,,,,,,,,,,,,,,,,,,,,,,,,,,,,,,,,,,,,,,,,,,,,,,,,,,,,,,,,,,,,,,,,,,,,,,,,,,,,,,,,,,,,,,,,,,,,,,,,,,,,,,,,,,,,,,,,,,,
,,,,,,615efa227a9938e11616d53c,62bbfa16145238a11f62eca6,2022-06-29_09h07.48.749,Colour_Asymmetry_Pilot,2022.1.3,Win32,59.76214666,62bbe60bf3d75ef465d3e404,0,114,114,107,1,twofour,,,,,,,,,,,,,,,,,,,,,,,,,,,,,,,,,,,,,,,,,,,,,,,,,,,,,,,,,,,,,,,,,,,,,,,,,,,,,,,,,,,,,,,,,,,,,,,,,,,,,,,,,,,,,,,,,,,,,,,,,,,,,,,,,,,,,,,,,,,,,,,,,,,,,,,,
,,,,,,615efa227a9938e11616d53c,62bbfa16145238a11f62eca6,2022-06-29_09h07.48.749,Colour_Asymmetry_Pilot,2022.1.3,Win32,59.76214666,62bbe60bf3d75ef465d3e404,0,115,115,108,1,threeone,,,,,,,,,,,,,,,,,,,,,,,,,,,,,,,,,,,,,,,,,,,,,,,,,,,,,,,,,,,,,,,,,,,,,,,,,,,,,,,,,,,,,,,,,,,,,,,,,,,,,,,,,,,,,,,,,,,,,,,,,,,,,,,,,,,,,,,,,,,,,,,,,,,,,,,,
,,,,,,615efa227a9938e11616d53c,62bbfa16145238a11f62eca6,2022-06-29_09h07.48.749,Colour_Asymmetry_Pilot,2022.1.3,Win32,59.76214666,62bbe60bf3d75ef465d3e404,0,116,116,37,1,threefour,,,,,,,,,,,,,,,,,,,,,,,,,,,,,,,,,,,,,,,,,,,,,,,,,,,,,,,,,,,,,,,,,,,,,,,,,,,,,,,,,,,,,,,,,,,,,,,,,,,,,,,,,,,,,,,,,,,,,,,,,,,,,,,,,,,,,,,,,,,,,,,,,,,,,,,,
,,,,,,615efa227a9938e11616d53c,62bbfa16145238a11f62eca6,2022-06-29_09h07.48.749,Colour_Asymmetry_Pilot,2022.1.3,Win32,59.76214666,62bbe60bf3d75ef465d3e404,0,117,117,109,1,threefour,,,,,,,,,,,,,,,,,,,,,,,,,,,,,,,,,,,,,,,,,,,,,,,,,,,,,,,,,,,,,,,,,,,,,,,,,,,,,,,,,,,,,,,,,,,,,,,,,,,,,,,,,,,,,,,,,,,,,,,,,,,,,,,,,,,,,,,,,,,,,,,,,,,,,,,,
,,,,,,615efa227a9938e11616d53c,62bbfa16145238a11f62eca6,2022-06-29_09h07.48.749,Colour_Asymmetry_Pilot,2022.1.3,Win32,59.76214666,62bbe60bf3d75ef465d3e404,0,118,118,8,1,onetwo,,,,,,,,,,,,,,,,,,,,,,,,,,,,,,,,,,,,,,,,,,,,,,,,,,,,,,,,,,,,,,,,,,,,,,,,,,,,,,,,,,,,,,,,,,,,,,,,,,,,,,,,,,,,,,,,,,,,,,,,,,,,,,,,,,,,,,,,,,,,,,,,,,,,,,,,
,,,,,,615efa227a9938e11616d53c,62bbfa16145238a11f62eca6,2022-06-29_09h07.48.749,Colour_Asymmetry_Pilot,2022.1.3,Win32,59.76214666,62bbe60bf3d75ef465d3e404,0,119,119,156,1,threeone,,,,,,,,,,,,,,,,,,,,,,,,,,,,,,,,,,,,,,,,,,,,,,,,,,,,,,,,,,,,,,,,,,,,,,,,,,,,,,,,,,,,,,,,,,,,,,,,,,,,,,,,,,,,,,,,,,,,,,,,,,,,,,,,,,,,,,,,,,,,,,,,,,,,,,,,
,,,,,,615efa227a9938e11616d53c,62bbfa16145238a11f62eca6,2022-06-29_09h07.48.749,Colour_Asymmetry_Pilot,2022.1.3,Win32,59.76214666,62bbe60bf3d75ef465d3e404,0,120,120,27,1,twofour,,,,,,,,,,,,,,,,,,,,,,,,,,,,,,,,,,,,,,,,,,,,,,,,,,,,,,,,,,,,,,,,,,,,,,,,,,,,,,,,,,,,,,,,,,,,,,,,,,,,,,,,,,,,,,,,,,,,,,,,,,,,,,,,,,,,,,,,,,,,,,,,,,,,,,,,
,,,,,,615efa227a9938e11616d53c,62bbfa16145238a11f62eca6,2022-06-29_09h07.48.749,Colour_Asymmetry_Pilot,2022.1.3,Win32,59.76214666,62bbe60bf3d75ef465d3e404,0,121,121,112,1,onetwo,,,,,,,,,,,,,,,,,,,,,,,,,,,,,,,,,,,,,,,,,,,,,,,,,,,,,,,,,,,,,,,,,,,,,,,,,,,,,,,,,,,,,,,,,,,,,,,,,,,,,,,,,,,,,,,,,,,,,,,,,,,,,,,,,,,,,,,,,,,,,,,,,,,,,,,,
,,,,,,615efa227a9938e11616d53c,62bbfa16145238a11f62eca6,2022-06-29_09h07.48.749,Colour_Asymmetry_Pilot,2022.1.3,Win32,59.76214666,62bbe60bf3d75ef465d3e404,0,122,122,88,1,onetwo,,,,,,,,,,,,,,,,,,,,,,,,,,,,,,,,,,,,,,,,,,,,,,,,,,,,,,,,,,,,,,,,,,,,,,,,,,,,,,,,,,,,,,,,,,,,,,,,,,,,,,,,,,,,,,,,,,,,,,,,,,,,,,,,,,,,,,,,,,,,,,,,,,,,,,,,
,,,,,,615efa227a9938e11616d53c,62bbfa16145238a11f62eca6,2022-06-29_09h07.48.749,Colour_Asymmetry_Pilot,2022.1.3,Win32,59.76214666,62bbe60bf3d75ef465d3e404,0,123,123,55,1,fourthree,,,,,,,,,,,,,,,,,,,,,,,,,,,,,,,,,,,,,,,,,,,,,,,,,,,,,,,,,,,,,,,,,,,,,,,,,,,,,,,,,,,,,,,,,,,,,,,,,,,,,,,,,,,,,,,,,,,,,,,,,,,,,,,,,,,,,,,,,,,,,,,,,,,,,,,,
,,,,,,615efa227a9938e11616d53c,62bbfa16145238a11f62eca6,2022-06-29_09h07.48.749,Colour_Asymmetry_Pilot,2022.1.3,Win32,59.76214666,62bbe60bf3d75ef465d3e404,0,124,124,122,1,twoone,,,,,,,,,,,,,,,,,,,,,,,,,,,,,,,,,,,,,,,,,,,,,,,,,,,,,,,,,,,,,,,,,,,,,,,,,,,,,,,,,,,,,,,,,,,,,,,,,,,,,,,,,,,,,,,,,,,,,,,,,,,,,,,,,,,,,,,,,,,,,,,,,,,,,,,,
,,,,,,615efa227a9938e11616d53c,62bbfa16145238a11f62eca6,2022-06-29_09h07.48.749,Colour_Asymmetry_Pilot,2022.1.3,Win32,59.76214666,62bbe60bf3d75ef465d3e404,0,125,125,103,1,fourthree,,,,,,,,,,,,,,,,,,,,,,,,,,,,,,,,,,,,,,,,,,,,,,,,,,,,,,,,,,,,,,,,,,,,,,,,,,,,,,,,,,,,,,,,,,,,,,,,,,,,,,,,,,,,,,,,,,,,,,,,,,,,,,,,,,,,,,,,,,,,,,,,,,,,,,,,
,,,,,,615efa227a9938e11616d53c,62bbfa16145238a11f62eca6,2022-06-29_09h07.48.749,Colour_Asymmetry_Pilot,2022.1.3,Win32,59.76214666,62bbe60bf3d75ef465d3e404,0,126,126,153,1,onethree,,,,,,,,,,,,,,,,,,,,,,,,,,,,,,,,,,,,,,,,,,,,,,,,,,,,,,,,,,,,,,,,,,,,,,,,,,,,,,,,,,,,,,,,,,,,,,,,,,,,,,,,,,,,,,,,,,,,,,,,,,,,,,,,,,,,,,,,,,,,,,,,,,,,,,,,
,,,,,,615efa227a9938e11616d53c,62bbfa16145238a11f62eca6,2022-06-29_09h07.48.749,Colour_Asymmetry_Pilot,2022.1.3,Win32,59.76214666,62bbe60bf3d75ef465d3e404,0,127,127,29,1,threefour,,,,,,,,,,,,,,,,,,,,,,,,,,,,,,,,,,,,,,,,,,,,,,,,,,,,,,,,,,,,,,,,,,,,,,,,,,,,,,,,,,,,,,,,,,,,,,,,,,,,,,,,,,,,,,,,,,,,,,,,,,,,,,,,,,,,,,,,,,,,,,,,,,,,,,,,
,,,,,,615efa227a9938e11616d53c,62bbfa16145238a11f62eca6,2022-06-29_09h07.48.749,Colour_Asymmetry_Pilot,2022.1.3,Win32,59.76214666,62bbe60bf3d75ef465d3e404,0,128,128,4,1,threeone,,,,,,,,,,,,,,,,,,,,,,,,,,,,,,,,,,,,,,,,,,,,,,,,,,,,,,,,,,,,,,,,,,,,,,,,,,,,,,,,,,,,,,,,,,,,,,,,,,,,,,,,,,,,,,,,,,,,,,,,,,,,,,,,,,,,,,,,,,,,,,,,,,,,,,,,
,,,,,,615efa227a9938e11616d53c,62bbfa16145238a11f62eca6,2022-06-29_09h07.48.749,Colour_Asymmetry_Pilot,2022.1.3,Win32,59.76214666,62bbe60bf3d75ef465d3e404,0,129,129,89,1,onethree,,,,,,,,,,,,,,,,,,,,,,,,,,,,,,,,,,,,,,,,,,,,,,,,,,,,,,,,,,,,,,,,,,,,,,,,,,,,,,,,,,,,,,,,,,,,,,,,,,,,,,,,,,,,,,,,,,,,,,,,,,,,,,,,,,,,,,,,,,,,,,,,,,,,,,,,
,,,,,,615efa227a9938e11616d53c,62bbfa16145238a11f62eca6,2022-06-29_09h07.48.749,Colour_Asymmetry_Pilot,2022.1.3,Win32,59.76214666,62bbe60bf3d75ef465d3e404,0,130,130,57,1,onethree,,,,,,,,,,,,,,,,,,,,,,,,,,,,,,,,,,,,,,,,,,,,,,,,,,,,,,,,,,,,,,,,,,,,,,,,,,,,,,,,,,,,,,,,,,,,,,,,,,,,,,,,,,,,,,,,,,,,,,,,,,,,,,,,,,,,,,,,,,,,,,,,,,,,,,,,
,,,,,,615efa227a9938e11616d53c,62bbfa16145238a11f62eca6,2022-06-29_09h07.48.749,Colour_Asymmetry_Pilot,2022.1.3,Win32,59.76214666,62bbe60bf3d75ef465d3e404,0,131,131,75,1,twofour,,,,,,,,,,,,,,,,,,,,,,,,,,,,,,,,,,,,,,,,,,,,,,,,,,,,,,,,,,,,,,,,,,,,,,,,,,,,,,,,,,,,,,,,,,,,,,,,,,,,,,,,,,,,,,,,,,,,,,,,,,,,,,,,,,,,,,,,,,,,,,,,,,,,,,,,
,,,,,,615efa227a9938e11616d53c,62bbfa16145238a11f62eca6,2022-06-29_09h07.48.749,Colour_Asymmetry_Pilot,2022.1.3,Win32,59.76214666,62bbe60bf3d75ef465d3e404,0,132,132,81,1,onethree,,,,,,,,,,,,,,,,,,,,,,,,,,,,,,,,,,,,,,,,,,,,,,,,,,,,,,,,,,,,,,,,,,,,,,,,,,,,,,,,,,,,,,,,,,,,,,,,,,,,,,,,,,,,,,,,,,,,,,,,,,,,,,,,,,,,,,,,,,,,,,,,,,,,,,,,
,,,,,,615efa227a9938e11616d53c,62bbfa16145238a11f62eca6,2022-06-29_09h07.48.749,Colour_Asymmetry_Pilot,2022.1.3,Win32,59.76214666,62bbe60bf3d75ef465d3e404,0,133,133,95,1,fourthree,,,,,,,,,,,,,,,,,,,,,,,,,,,,,,,,,,,,,,,,,,,,,,,,,,,,,,,,,,,,,,,,,,,,,,,,,,,,,,,,,,,,,,,,,,,,,,,,,,,,,,,,,,,,,,,,,,,,,,,,,,,,,,,,,,,,,,,,,,,,,,,,,,,,,,,,
,,,,,,615efa227a9938e11616d53c,62bbfa16145238a11f62eca6,2022-06-29_09h07.48.749,Colour_Asymmetry_Pilot,2022.1.3,Win32,59.76214666,62bbe60bf3d75ef465d3e404,0,134,134,97,1,onethree,,,,,,,,,,,,,,,,,,,,,,,,,,,,,,,,,,,,,,,,,,,,,,,,,,,,,,,,,,,,,,,,,,,,,,,,,,,,,,,,,,,,,,,,,,,,,,,,,,,,,,,,,,,,,,,,,,,,,,,,,,,,,,,,,,,,,,,,,,,,,,,,,,,,,,,,
,,,,,,615efa227a9938e11616d53c,62bbfa16145238a11f62eca6,2022-06-29_09h07.48.749,Colour_Asymmetry_Pilot,2022.1.3,Win32,59.76214666,62bbe60bf3d75ef465d3e404,0,135,135,111,1,fourthree,,,,,,,,,,,,,,,,,,,,,,,,,,,,,,,,,,,,,,,,,,,,,,,,,,,,,,,,,,,,,,,,,,,,,,,,,,,,,,,,,,,,,,,,,,,,,,,,,,,,,,,,,,,,,,,,,,,,,,,,,,,,,,,,,,,,,,,,,,,,,,,,,,,,,,,,
,,,,,,615efa227a9938e11616d53c,62bbfa16145238a11f62eca6,2022-06-29_09h07.48.749,Colour_Asymmetry_Pilot,2022.1.3,Win32,59.76214666,62bbe60bf3d75ef465d3e404,0,136,136,110,1,fourtwo,,,,,,,,,,,,,,,,,,,,,,,,,,,,,,,,,,,,,,,,,,,,,,,,,,,,,,,,,,,,,,,,,,,,,,,,,,,,,,,,,,,,,,,,,,,,,,,,,,,,,,,,,,,,,,,,,,,,,,,,,,,,,,,,,,,,,,,,,,,,,,,,,,,,,,,,
,,,,,,615efa227a9938e11616d53c,62bbfa16145238a11f62eca6,2022-06-29_09h07.48.749,Colour_Asymmetry_Pilot,2022.1.3,Win32,59.76214666,62bbe60bf3d75ef465d3e404,0,137,137,66,1,twoone,,,,,,,,,,,,,,,,,,,,,,,,,,,,,,,,,,,,,,,,,,,,,,,,,,,,,,,,,,,,,,,,,,,,,,,,,,,,,,,,,,,,,,,,,,,,,,,,,,,,,,,,,,,,,,,,,,,,,,,,,,,,,,,,,,,,,,,,,,,,,,,,,,,,,,,,
,,,,,,615efa227a9938e11616d53c,62bbfa16145238a11f62eca6,2022-06-29_09h07.48.749,Colour_Asymmetry_Pilot,2022.1.3,Win32,59.76214666,62bbe60bf3d75ef465d3e404,0,138,138,145,1,onethree,,,,,,,,,,,,,,,,,,,,,,,,,,,,,,,,,,,,,,,,,,,,,,,,,,,,,,,,,,,,,,,,,,,,,,,,,,,,,,,,,,,,,,,,,,,,,,,,,,,,,,,,,,,,,,,,,,,,,,,,,,,,,,,,,,,,,,,,,,,,,,,,,,,,,,,,
,,,,,,615efa227a9938e11616d53c,62bbfa16145238a11f62eca6,2022-06-29_09h07.48.749,Colour_Asymmetry_Pilot,2022.1.3,Win32,59.76214666,62bbe60bf3d75ef465d3e404,0,139,139,17,1,onethree,,,,,,,,,,,,,,,,,,,,,,,,,,,,,,,,,,,,,,,,,,,,,,,,,,,,,,,,,,,,,,,,,,,,,,,,,,,,,,,,,,,,,,,,,,,,,,,,,,,,,,,,,,,,,,,,,,,,,,,,,,,,,,,,,,,,,,,,,,,,,,,,,,,,,,,,
,,,,,,615efa227a9938e11616d53c,62bbfa16145238a11f62eca6,2022-06-29_09h07.48.749,Colour_Asymmetry_Pilot,2022.1.3,Win32,59.76214666,62bbe60bf3d75ef465d3e404,0,140,140,142,1,fourtwo,,,,,,,,,,,,,,,,,,,,,,,,,,,,,,,,,,,,,,,,,,,,,,,,,,,,,,,,,,,,,,,,,,,,,,,,,,,,,,,,,,,,,,,,,,,,,,,,,,,,,,,,,,,,,,,,,,,,,,,,,,,,,,,,,,,,,,,,,,,,,,,,,,,,,,,,
,,,,,,615efa227a9938e11616d53c,62bbfa16145238a11f62eca6,2022-06-29_09h07.48.749,Colour_Asymmetry_Pilot,2022.1.3,Win32,59.76214666,62bbe60bf3d75ef465d3e404,0,141,141,9,1,onethree,,,,,,,,,,,,,,,,,,,,,,,,,,,,,,,,,,,,,,,,,,,,,,,,,,,,,,,,,,,,,,,,,,,,,,,,,,,,,,,,,,,,,,,,,,,,,,,,,,,,,,,,,,,,,,,,,,,,,,,,,,,,,,,,,,,,,,,,,,,,,,,,,,,,,,,,
,,,,,,615efa227a9938e11616d53c,62bbfa16145238a11f62eca6,2022-06-29_09h07.48.749,Colour_Asymmetry_Pilot,2022.1.3,Win32,59.76214666,62bbe60bf3d75ef465d3e404,0,142,142,33,1,onethree,,,,,,,,,,,,,,,,,,,,,,,,,,,,,,,,,,,,,,,,,,,,,,,,,,,,,,,,,,,,,,,,,,,,,,,,,,,,,,,,,,,,,,,,,,,,,,,,,,,,,,,,,,,,,,,,,,,,,,,,,,,,,,,,,,,,,,,,,,,,,,,,,,,,,,,,
,,,,,,615efa227a9938e11616d53c,62bbfa16145238a11f62eca6,2022-06-29_09h07.48.749,Colour_Asymmetry_Pilot,2022.1.3,Win32,59.76214666,62bbe60bf3d75ef465d3e404,0,143,143,22,1,fourtwo,,,,,,,,,,,,,,,,,,,,,,,,,,,,,,,,,,,,,,,,,,,,,,,,,,,,,,,,,,,,,,,,,,,,,,,,,,,,,,,,,,,,,,,,,,,,,,,,,,,,,,,,,,,,,,,,,,,,,,,,,,,,,,,,,,,,,,,,,,,,,,,,,,,,,,,,
,,,,,,615efa227a9938e11616d53c,62bbfa16145238a11f62eca6,2022-06-29_09h07.48.749,Colour_Asymmetry_Pilot,2022.1.3,Win32,59.76214666,62bbe60bf3d75ef465d3e404,0,144,144,16,1,onetwo,,,,,,,,,,,,,,,,,,,,,,,,,,,,,,,,,,,,,,,,,,,,,,,,,,,,,,,,,,,,,,,,,,,,,,,,,,,,,,,,,,,,,,,,,,,,,,,,,,,,,,,,,,,,,,,,,,,,,,,,,,,,,,,,,,,,,,,,,,,,,,,,,,,,,,,,
,,,,,,615efa227a9938e11616d53c,62bbfa16145238a11f62eca6,2022-06-29_09h07.48.749,Colour_Asymmetry_Pilot,2022.1.3,Win32,59.76214666,62bbe60bf3d75ef465d3e404,0,145,145,90,1,twoone,,,,,,,,,,,,,,,,,,,,,,,,,,,,,,,,,,,,,,,,,,,,,,,,,,,,,,,,,,,,,,,,,,,,,,,,,,,,,,,,,,,,,,,,,,,,,,,,,,,,,,,,,,,,,,,,,,,,,,,,,,,,,,,,,,,,,,,,,,,,,,,,,,,,,,,,
,,,,,,615efa227a9938e11616d53c,62bbfa16145238a11f62eca6,2022-06-29_09h07.48.749,Colour_Asymmetry_Pilot,2022.1.3,Win32,59.76214666,62bbe60bf3d75ef465d3e404,0,146,146,78,1,fourtwo,,,,,,,,,,,,,,,,,,,,,,,,,,,,,,,,,,,,,,,,,,,,,,,,,,,,,,,,,,,,,,,,,,,,,,,,,,,,,,,,,,,,,,,,,,,,,,,,,,,,,,,,,,,,,,,,,,,,,,,,,,,,,,,,,,,,,,,,,,,,,,,,,,,,,,,,
,,,,,,615efa227a9938e11616d53c,62bbfa16145238a11f62eca6,2022-06-29_09h07.48.749,Colour_Asymmetry_Pilot,2022.1.3,Win32,59.76214666,62bbe60bf3d75ef465d3e404,0,147,147,146,1,twoone,,,,,,,,,,,,,,,,,,,,,,,,,,,,,,,,,,,,,,,,,,,,,,,,,,,,,,,,,,,,,,,,,,,,,,,,,,,,,,,,,,,,,,,,,,,,,,,,,,,,,,,,,,,,,,,,,,,,,,,,,,,,,,,,,,,,,,,,,,,,,,,,,,,,,,,,
,,,,,,615efa227a9938e11616d53c,62bbfa16145238a11f62eca6,2022-06-29_09h07.48.749,Colour_Asymmetry_Pilot,2022.1.3,Win32,59.76214666,62bbe60bf3d75ef465d3e404,0,148,148,86,1,fourtwo,,,,,,,,,,,,,,,,,,,,,,,,,,,,,,,,,,,,,,,,,,,,,,,,,,,,,,,,,,,,,,,,,,,,,,,,,,,,,,,,,,,,,,,,,,,,,,,,,,,,,,,,,,,,,,,,,,,,,,,,,,,,,,,,,,,,,,,,,,,,,,,,,,,,,,,,
,,,,,,615efa227a9938e11616d53c,62bbfa16145238a11f62eca6,2022-06-29_09h07.48.749,Colour_Asymmetry_Pilot,2022.1.3,Win32,59.76214666,62bbe60bf3d75ef465d3e404,0,149,149,10,1,twoone,,,,,,,,,,,,,,,,,,,,,,,,,,,,,,,,,,,,,,,,,,,,,,,,,,,,,,,,,,,,,,,,,,,,,,,,,,,,,,,,,,,,,,,,,,,,,,,,,,,,,,,,,,,,,,,,,,,,,,,,,,,,,,,,,,,,,,,,,,,,,,,,,,,,,,,,
,,,,,,615efa227a9938e11616d53c,62bbfa16145238a11f62eca6,2022-06-29_09h07.48.749,Colour_Asymmetry_Pilot,2022.1.3,Win32,59.76214666,62bbe60bf3d75ef465d3e404,0,150,150,154,1,twoone,,,,,,,,,,,,,,,,,,,,,,,,,,,,,,,,,,,,,,,,,,,,,,,,,,,,,,,,,,,,,,,,,,,,,,,,,,,,,,,,,,,,,,,,,,,,,,,,,,,,,,,,,,,,,,,,,,,,,,,,,,,,,,,,,,,,,,,,,,,,,,,,,,,,,,,,
,,,,,,615efa227a9938e11616d53c,62bbfa16145238a11f62eca6,2022-06-29_09h07.48.749,Colour_Asymmetry_Pilot,2022.1.3,Win32,59.76214666,62bbe60bf3d75ef465d3e404,0,151,151,155,1,twofour,,,,,,,,,,,,,,,,,,,,,,,,,,,,,,,,,,,,,,,,,,,,,,,,,,,,,,,,,,,,,,,,,,,,,,,,,,,,,,,,,,,,,,,,,,,,,,,,,,,,,,,,,,,,,,,,,,,,,,,,,,,,,,,,,,,,,,,,,,,,,,,,,,,,,,,,
,,,,,,615efa227a9938e11616d53c,62bbfa16145238a11f62eca6,2022-06-29_09h07.48.749,Colour_Asymmetry_Pilot,2022.1.3,Win32,59.76214666,62bbe60bf3d75ef465d3e404,0,152,152,71,1,fourthree,,,,,,,,,,,,,,,,,,,,,,,,,,,,,,,,,,,,,,,,,,,,,,,,,,,,,,,,,,,,,,,,,,,,,,,,,,,,,,,,,,,,,,,,,,,,,,,,,,,,,,,,,,,,,,,,,,,,,,,,,,,,,,,,,,,,,,,,,,,,,,,,,,,,,,,,
,,,,,,615efa227a9938e11616d53c,62bbfa16145238a11f62eca6,2022-06-29_09h07.48.749,Colour_Asymmetry_Pilot,2022.1.3,Win32,59.76214666,62bbe60bf3d75ef465d3e404,0,153,153,157,1,threefour,,,,,,,,,,,,,,,,,,,,,,,,,,,,,,,,,,,,,,,,,,,,,,,,,,,,,,,,,,,,,,,,,,,,,,,,,,,,,,,,,,,,,,,,,,,,,,,,,,,,,,,,,,,,,,,,,,,,,,,,,,,,,,,,,,,,,,,,,,,,,,,,,,,,,,,,
,,,,,,615efa227a9938e11616d53c,62bbfa16145238a11f62eca6,2022-06-29_09h07.48.749,Colour_Asymmetry_Pilot,2022.1.3,Win32,59.76214666,62bbe60bf3d75ef465d3e404,0,154,154,15,1,fourthree,,,,,,,,,,,,,,,,,,,,,,,,,,,,,,,,,,,,,,,,,,,,,,,,,,,,,,,,,,,,,,,,,,,,,,,,,,,,,,,,,,,,,,,,,,,,,,,,,,,,,,,,,,,,,,,,,,,,,,,,,,,,,,,,,,,,,,,,,,,,,,,,,,,,,,,,
,,,,,,615efa227a9938e11616d53c,62bbfa16145238a11f62eca6,2022-06-29_09h07.48.749,Colour_Asymmetry_Pilot,2022.1.3,Win32,59.76214666,62bbe60bf3d75ef465d3e404,0,155,155,20,1,threeone,,,,,,,,,,,,,,,,,,,,,,,,,,,,,,,,,,,,,,,,,,,,,,,,,,,,,,,,,,,,,,,,,,,,,,,,,,,,,,,,,,,,,,,,,,,,,,,,,,,,,,,,,,,,,,,,,,,,,,,,,,,,,,,,,,,,,,,,,,,,,,,,,,,,,,,,
,,,,,,615efa227a9938e11616d53c,62bbfa16145238a11f62eca6,2022-06-29_09h07.48.749,Colour_Asymmetry_Pilot,2022.1.3,Win32,59.76214666,62bbe60bf3d75ef465d3e404,0,156,156,99,1,twofour,,,,,,,,,,,,,,,,,,,,,,,,,,,,,,,,,,,,,,,,,,,,,,,,,,,,,,,,,,,,,,,,,,,,,,,,,,,,,,,,,,,,,,,,,,,,,,,,,,,,,,,,,,,,,,,,,,,,,,,,,,,,,,,,,,,,,,,,,,,,,,,,,,,,,,,,
,,,,,,615efa227a9938e11616d53c,62bbfa16145238a11f62eca6,2022-06-29_09h07.48.749,Colour_Asymmetry_Pilot,2022.1.3,Win32,59.76214666,62bbe60bf3d75ef465d3e404,0,157,157,104,1,onetwo,,,,,,,,,,,,,,,,,,,,,,,,,,,,,,,,,,,,,,,,,,,,,,,,,,,,,,,,,,,,,,,,,,,,,,,,,,,,,,,,,,,,,,,,,,,,,,,,,,,,,,,,,,,,,,,,,,,,,,,,,,,,,,,,,,,,,,,,,,,,,,,,,,,,,,,,
,,,,,,615efa227a9938e11616d53c,62bbfa16145238a11f62eca6,2022-06-29_09h07.48.749,Colour_Asymmetry_Pilot,2022.1.3,Win32,59.76214666,62bbe60bf3d75ef465d3e404,0,158,158,121,1,onethree,,,,,,,,,,,,,,,,,,,,,,,,,,,,,,,,,,,,,,,,,,,,,,,,,,,,,,,,,,,,,,,,,,,,,,,,,,,,,,,,,,,,,,,,,,,,,,,,,,,,,,,,,,,,,,,,,,,,,,,,,,,,,,,,,,,,,,,,,,,,,,,,,,,,,,,,
,,,,,,615efa227a9938e11616d53c,62bbfa16145238a11f62eca6,2022-06-29_09h07.48.749,Colour_Asymmetry_Pilot,2022.1.3,Win32,59.76214666,62bbe60bf3d75ef465d3e404,0,159,159,74,1,twoone,,,,,,,,,,,,,,,,,,,,,,,,,,,,,,,,,,,,,,,,,,,,,,,,,,,,,,,,,,,,,,,,,,,,,,,,,,,,,,,,,,,,,,,,,,,,,,,,,,,,,,,,,,,,,,,,,,,,,,,,,,,,,,,,,,,,,,,,,,,,,,,,,,,,,,,,
,,,,,,615efa227a9938e11616d53c,62bbfa16145238a11f62eca6,2022-06-29_09h07.48.749,Colour_Asymmetry_Pilot,2022.1.3,Win32,59.76214666,62bbe60bf3d75ef465d3e404,0,160,160,51,1,twofour,,,,,,,,,,,,,,,,,,,,,,,,,,,,,,,,,,,,,,,,,,,,,,,,,,,,,,,,,,,,,,,,,,,,,,,,,,,,,,,,,,,,,,,,,,,,,,,,,,,,,,,,,,,,,,,,,,,,,,,,,,,,,,,,,,,,,,,,,,,,,,,,,,,,,,,,
,,,,,,615efa227a9938e11616d53c,62bbfa16145238a11f62eca6,2022-06-29_09h07.48.749,Colour_Asymmetry_Pilot,2022.1.3,Win32,59.76214666,62bbe60bf3d75ef465d3e404,0,161,161,39,1,fourthree,,,,,,,,,,,,,,,,,,,,,,,,,,,,,,,,,,,,,,,,,,,,,,,,,,,,,,,,,,,,,,,,,,,,,,,,,,,,,,,,,,,,,,,,,,,,,,,,,,,,,,,,,,,,,,,,,,,,,,,,,,,,,,,,,,,,,,,,,,,,,,,,,,,,,,,,
,,,,,,615efa227a9938e11616d53c,62bbfa16145238a11f62eca6,2022-06-29_09h07.48.749,Colour_Asymmetry_Pilot,2022.1.3,Win32,59.76214666,62bbe60bf3d75ef465d3e404,,,,,,,space,18.4842,space,156.2859,space,38.6389,space,20.6546,space,4.4782,space,10.6203,"[-0.5922000000000001,-0.7492000000000001,-0.5296000000000001]",threeone,"[-0.10599999999999998,-0.10599999999999998,0.5841999999999998]",-1,19.1408,-47,-79,1,0,0,response5disk_5,-5,-5,1,0,0,rectangle_8,-5,-5,1,0,0,1,-5,-5,1,0,0,0,0,0,0,1,,,,,,,,,,,,,,,,,,,,,,,,,,,,,,,,,,,,,,,,,,,,,,,,,,,,,,,,,,,,,,,,,,,,,,,,,,,,,,,,,,,,,,,,,,,,,,,,,,,,,,,,,,,
,,,,,,615efa227a9938e11616d53c,62bbfa16145238a11f62eca6,2022-06-29_09h07.48.749,Colour_Asymmetry_Pilot,2022.1.3,Win32,59.76214666,62bbe60bf3d75ef465d3e404,,,,,,,,,,,,,,,,,,,"[0.9372,0.9450000000000001,0.8980000000000001]",threefour,"[0.30180000000000007,-0.7884,-0.9844]",-2,7.0437,-99,-49,1,0,0,response5disk_5,-11,-2,1,0,0,rectangle_8,-11,-2,1,0,0,1,-11,-2,1,0,0,1,0,1,0,1,,,,,,,,,,,,,,,,,,,,,,,,,,,,,,,,,,,,,,,,,,,,,,,,,,,,,,,,,,,,,,,,,,,,,,,,,,,,,,,,,,,,,,,,,,,,,,,,,,,,,,,,,,,
,,,,,,615efa227a9938e11616d53c,62bbfa16145238a11f62eca6,2022-06-29_09h07.48.749,Colour_Asymmetry_Pilot,2022.1.3,Win32,59.76214666,62bbe60bf3d75ef465d3e404,,,,,,,,,,,,,,,,,,,"[-0.9688,-0.4902000000000001,-0.12159999999999993]",threefour,"[-0.9688,-0.7412000000000001,-0.4902000000000001]",4,3.9572,36,90,1,0,0,response1disk_5,-1,-7,1,0,0,rectangle_8,-47,-107,1,0,0,1,9,-4,1,0,0,2,0,2,0,1,response5disk_7,3,rectangle_4,,,,,,,,,,,,,,,,,,,,,,,,,,,,,,,,,,,,,,,,,,,,,,,,,,,,,,,,,,,,,,,,,,,,,,,,,,,,,,,,,,,,,,,,,,,,,,,,,,,,,,,,
,,,,,,615efa227a9938e11616d53c,62bbfa16145238a11f62eca6,2022-06-29_09h07.48.749,Colour_Asymmetry_Pilot,2022.1.3,Win32,59.76214666,62bbe60bf3d75ef465d3e404,,,,,,,,,,,,,,,,,,,"[0.18419999999999992,-0.4276,-0.404]",fourtwo,"[0.05879999999999996,0.2784,0.5841999999999998]",1,5.3872,63,-109,1,0,0,response3disk_5,8,-7,1,0,0,rectangle_8,8,-7,1,0,0,1,8,-7,1,0,0,3,0,3,0,1,,,,,,,,,,,,,,,,,,,,,,,,,,,,,,,,,,,,,,,,,,,,,,,,,,,,,,,,,,,,,,,,,,,,,,,,,,,,,,,,,,,,,,,,,,,,,,,,,,,,,,,,,,,
,,,,,,615efa227a9938e11616d53c,62bbfa16145238a11f62eca6,2022-06-29_09h07.48.749,Colour_Asymmetry_Pilot,2022.1.3,Win32,59.76214666,62bbe60bf3d75ef465d3e404,,,,,,,,,,,,,,,,,,,"[0.9213999999999998,0.6391999999999998,-0.9922]",onethree,"[0.04299999999999993,0.16060000000000008,-0.6628000000000001]",1,7.8678,40,-85,1,0,0,response3disk_5,4,-1,1,0,0,rectangle_8,4,-1,1,0,0,1,4,-1,1,0,0,4,0,4,0,1,,,,,,,,,,,,,,,,,,,,,,,,,,,,,,,,,,,,,,,,,,,,,,,,,,,,,,,,,,,,,,,,,,,,,,,,,,,,,,,,,,,,,,,,,,,,,,,,,,,,,,,,,,,
,,,,,,615efa227a9938e11616d53c,62bbfa16145238a11f62eca6,2022-06-29_09h07.48.749,Colour_Asymmetry_Pilot,2022.1.3,Win32,59.76214666,62bbe60bf3d75ef465d3e404,,,,,,,,,,,,,,,,,,,"[-0.8198,-0.5138,-0.7492000000000001]",fourtwo,"[-0.2942,-0.24719999999999998,-0.357]",4,1.7349,38,72,1,0,0,response1disk_5,4,1,1,0,0,rectangle_8,47,-103,1,0,0,1,18,-5,1,0,0,5,0,5,0,1,response3disk_7,4,rectangle_4,,,,,,,,,,,,,,,,,,,,,,,,,,,,,,,,,,,,,,,,,,,,,,,,,,,,,,,,,,,,,,,,,,,,,,,,,,,,,,,,,,,,,,,,,,,,,,,,,,,,,,,,
,,,,,,615efa227a9938e11616d53c,62bbfa16145238a11f62eca6,2022-06-29_09h07.48.749,Colour_Asymmetry_Pilot,2022.1.3,Win32,59.76214666,62bbe60bf3d75ef465d3e404,,,,,,,,,,,,,,,,,,,"[-0.2942,-0.7648,-0.7492000000000001]",twofour,"[-0.6,0.16860000000000008,0.44300000000000006]",-1,10.7052,-40,-106,1,0,0,response5disk_5,-2,-5,1,0,0,rectangle_8,-2,-5,1,0,0,1,-2,-5,1,0,0,6,0,6,0,1,,,,,,,,,,,,,,,,,,,,,,,,,,,,,,,,,,,,,,,,,,,,,,,,,,,,,,,,,,,,,,,,,,,,,,,,,,,,,,,,,,,,,,,,,,,,,,,,,,,,,,,,,,,
,,,,,,615efa227a9938e11616d53c,62bbfa16145238a11f62eca6,2022-06-29_09h07.48.749,Colour_Asymmetry_Pilot,2022.1.3,Win32,59.76214666,62bbe60bf3d75ef465d3e404,,,,,,,,,,,,,,,,,,,,twofour,,-1,9.9677,,,,,,,,,,,,,,,,,,,,,,,,,,,,,,,,space,6.5119,"[0.6625999999999999,0.4980000000000002,-0.357]","[0.12939999999999996,-0.2864,0.3253999999999999]",-40,-82,1,0,0,response5disk,8,-3,1,0,0,rectangle,8,-3,1,0,0,,1,0.0019,0,8,-3,1,0,0,0,0,0,118,1,37,second,,,,,,,,,,,,,,,,,,,,,,,,,,,,,,,,,,,,,,,,,,,,,,,,,,,,,,,,,,,,,,,,,,,
,,,,,,615efa227a9938e11616d53c,62bbfa16145238a11f62eca6,2022-06-29_09h07.48.749,Colour_Asymmetry_Pilot,2022.1.3,Win32,59.76214666,62bbe60bf3d75ef465d3e404,,,,,,,,,,,,,,,,,,,,twofour,,-2,6.6124,,,,,,,,,,,,,,,,,,,,,,,,,,,,,,,,,,"[-0.8982,-0.37259999999999993,0.2784]","[0.5528,0.7409999999999999,-0.71]",-87,-40,1,0,0,response5disk,26,0,1,0,0,rectangle,26,0,1,0,0,,1,0.0002,0,26,0,1,0,0,0,1,1,46,1,46,first,,,,,,,,,,,,,,,,,,,,,,,,,,,,,,,,,,,,,,,,,,,,,,,,,,,,,,,,,,,,,,,,,,,
,,,,,,615efa227a9938e11616d53c,62bbfa16145238a11f62eca6,2022-06-29_09h07.48.749,Colour_Asymmetry_Pilot,2022.1.3,Win32,59.76214666,62bbe60bf3d75ef465d3e404,,,,,,,,,,,,,,,,,,,,threeone,,1,8.1009,,,,,,,,,,,,,,,,,,,,,,,,,,,,,,,,,,"[0.05879999999999996,0.2784,0.5841999999999998]","[0.0351999999999999,0.41159999999999997,0.0038000000000000256]",58,-78,1,0,0,response3disk,10,-7,1,0,0,rectangle,10,-7,1,0,0,,2,0.0011,0,10,-7,1,0,0,0,2,2,68,1,68,first,,,,,,,,,,,,,,,,,,,,,,,,,,,,,,,,,,,,,,,,,,,,,,,,,,,,,,,,,,,,,,,,,,,
,,,,,,615efa227a9938e11616d53c,62bbfa16145238a11f62eca6,2022-06-29_09h07.48.749,Colour_Asymmetry_Pilot,2022.1.3,Win32,59.76214666,62bbe60bf3d75ef465d3e404,,,,,,,,,,,,,,,,,,,,threefour,,2,3.3911,,,,,,,,,,,,,,,,,,,,,,,,,,,,,,,,,,"[0.796,0.2156,-0.27859999999999996]","[-0.07459999999999989,0.12139999999999995,-0.9922]",74,-39,1,0,0,response3disk,-2,-7,1,0,0,rectangle,-2,-7,1,0,0,,2,0.0002,0,-2,-7,1,0,0,0,3,3,119,1,38,second,,,,,,,,,,,,,,,,,,,,,,,,,,,,,,,,,,,,,,,,,,,,,,,,,,,,,,,,,,,,,,,,,,,
,,,,,,615efa227a9938e11616d53c,62bbfa16145238a11f62eca6,2022-06-29_09h07.48.749,Colour_Asymmetry_Pilot,2022.1.3,Win32,59.76214666,62bbe60bf3d75ef465d3e404,,,,,,,,,,,,,,,,,,,,threefour,,1,2.1286,,,,,,,,,,,,,,,,,,,,,,,,,,,,,,,,,,"[-0.5688,-0.08239999999999992,-0.1844]","[0.37240000000000006,0.4980000000000002,-0.2864]",53,-80,1,0,0,response3disk,7,-4,1,0,0,rectangle,7,-4,1,0,0,,1,0.0009,0,7,-4,1,0,0,0,4,4,30,1,30,first,,,,,,,,,,,,,,,,,,,,,,,,,,,,,,,,,,,,,,,,,,,,,,,,,,,,,,,,,,,,,,,,,,,
,,,,,,615efa227a9938e11616d53c,62bbfa16145238a11f62eca6,2022-06-29_09h07.48.749,Colour_Asymmetry_Pilot,2022.1.3,Win32,59.76214666,62bbe60bf3d75ef465d3e404,,,,,,,,,,,,,,,,,,,,twofour,,-2,4.4499,,,,,,,,,,,,,,,,,,,,,,,,,,,,,,,,,,"[0.19199999999999995,0.18419999999999992,0.5136000000000001]","[0.34099999999999997,0.5841999999999998,-0.9844]",-60,-45,1,0,0,response5disk,1,3,1,0,0,rectangle,1,3,1,0,0,,1,0.0001,0,1,3,1,0,0,0,5,5,79,1,79,first,,,,,,,,,,,,,,,,,,,,,,,,,,,,,,,,,,,,,,,,,,,,,,,,,,,,,,,,,,,,,,,,,,,
,,,,,,615efa227a9938e11616d53c,62bbfa16145238a11f62eca6,2022-06-29_09h07.48.749,Colour_Asymmetry_Pilot,2022.1.3,Win32,59.76214666,62bbe60bf3d75ef465d3e404,,,,,,,,,,,,,,,,,,,,twoone,,3,2.0399,,,,,,,,,,,,,,,,,,,,,,,,,,,,,,,,,,"[-0.48240000000000005,0.3175999999999999,0.2156]","[-0.5452,-0.608,0.2470000000000001]",79,39,1,0,0,response1disk,5,-3,1,0,0,rectangle,5,-3,1,0,0,,1,0,0,5,-3,1,0,0,0,6,6,110,1,29,second,,,,,,,,,,,,,,,,,,,,,,,,,,,,,,,,,,,,,,,,,,,,,,,,,,,,,,,,,,,,,,,,,,,
,,,,,,615efa227a9938e11616d53c,62bbfa16145238a11f62eca6,2022-06-29_09h07.48.749,Colour_Asymmetry_Pilot,2022.1.3,Win32,59.76214666,62bbe60bf3d75ef465d3e404,,,,,,,,,,,,,,,,,,,,onethree,,3,3.8878,,,,,,,,,,,,,,,,,,,,,,,,,,,,,,,,,,"[-0.9216,-0.5529999999999999,-0.3962]","[-0.45899999999999996,-0.3256,-0.9374]",73,26,1,0,0,response1disk,18,-4,1,0,0,rectangle,18,-4,1,0,0,,2,0.0008,0,18,-4,1,0,0,0,7,7,52,1,52,first,,,,,,,,,,,,,,,,,,,,,,,,,,,,,,,,,,,,,,,,,,,,,,,,,,,,,,,,,,,,,,,,,,,
,,,,,,615efa227a9938e11616d53c,62bbfa16145238a11f62eca6,2022-06-29_09h07.48.749,Colour_Asymmetry_Pilot,2022.1.3,Win32,59.76214666,62bbe60bf3d75ef465d3e404,,,,,,,,,,,,,,,,,,,,threefour,,-2,10.325,,,,,,,,,,,,,,,,,,,,,,,,,,,,,,,,,,"[0.6625999999999999,0.4980000000000002,-0.357]","[-0.38039999999999996,-0.4276,-0.1452]",-71,-51,1,0,0,response5disk,-5,0,1,0,0,rectangle,-5,0,1,0,0,,1,0.0009,0,-5,0,1,0,0,0,8,8,154,1,73,second,,,,,,,,,,,,,,,,,,,,,,,,,,,,,,,,,,,,,,,,,,,,,,,,,,,,,,,,,,,,,,,,,,,
,,,,,,615efa227a9938e11616d53c,62bbfa16145238a11f62eca6,2022-06-29_09h07.48.749,Colour_Asymmetry_Pilot,2022.1.3,Win32,59.76214666,62bbe60bf3d75ef465d3e404,,,,,,,,,,,,,,,,,,,,onetwo,,-4,3.7935,,,,,,,,,,,,,,,,,,,,,,,,,,,,,,,,,,"[0.7018,0.7176,0.6155999999999999]","[-0.6235999999999999,-0.6786,-0.08239999999999992]",-55,83,1,0,0,response7disk,-8,-9,1,0,0,rectangle,-8,-9,1,0,0,,3,0.0009,0,-8,-9,1,0,0,0,9,9,20,1,20,first,,,,,,,,,,,,,,,,,,,,,,,,,,,,,,,,,,,,,,,,,,,,,,,,,,,,,,,,,,,,,,,,,,,
,,,,,,615efa227a9938e11616d53c,62bbfa16145238a11f62eca6,2022-06-29_09h07.48.749,Colour_Asymmetry_Pilot,2022.1.3,Win32,59.76214666,62bbe60bf3d75ef465d3e404,,,,,,,,,,,,,,,,,,,,fourthree,,1,2.8819,,,,,,,,,,,,,,,,,,,,,,,,,,,,,,,,,,"[0.09799999999999986,-0.24719999999999998,0.15280000000000005]","[0.9372,0.20779999999999998,0.2704]",36,-74,1,0,0,response3disk,-18,-1,1,0,0,rectangle,-18,-1,1,0,0,,2,0.0012,0,-18,-1,1,0,0,0,10,10,91,1,10,second,,,,,,,,,,,,,,,,,,,,,,,,,,,,,,,,,,,,,,,,,,,,,,,,,,,,,,,,,,,,,,,,,,,
,,,,,,615efa227a9938e11616d53c,62bbfa16145238a11f62eca6,2022-06-29_09h07.48.749,Colour_Asymmetry_Pilot,2022.1.3,Win32,59.76214666,62bbe60bf3d75ef465d3e404,,,,,,,,,,,,,,,,,,,,threeone,,-1,10.957,,,,,,,,,,,,,,,,,,,,,,,,,,,,,,,,,,"[0.8274000000000001,-0.5844,-0.9452]","[-0.6,0.16860000000000008,0.44300000000000006]",-42,-70,1,0,0,response5disk,12,1,1,0,0,rectangle,12,1,1,0,0,,1,0.0011,0,12,1,1,0,0,0,11,11,105,1,24,second,,,,,,,,,,,,,,,,,,,,,,,,,,,,,,,,,,,,,,,,,,,,,,,,,,,,,,,,,,,,,,,,,,,
,,,,,,615efa227a9938e11616d53c,62bbfa16145238a11f62eca6,2022-06-29_09h07.48.749,Colour_Asymmetry_Pilot,2022.1.3,Win32,59.76214666,62bbe60bf3d75ef465d3e404,,,,,,,,,,,,,,,,,,,,threeone,,-3,4.0966,,,,,,,,,,,,,,,,,,,,,,,,,,,,,,,,,,"[-0.0040000000000000036,0.02739999999999987,-0.08239999999999992]","[-0.06680000000000008,-0.45100000000000007,-0.906]",-66,39,1,0,0,response7disk,-9,9,1,0,0,rectangle,-9,9,1,0,0,,3,0.0009,0,-9,9,1,0,0,0,12,12,62,1,62,first,,,,,,,,,,,,,,,,,,,,,,,,,,,,,,,,,,,,,,,,,,,,,,,,,,,,,,,,,,,,,,,,,,,
,,,,,,615efa227a9938e11616d53c,62bbfa16145238a11f62eca6,2022-06-29_09h07.48.749,Colour_Asymmetry_Pilot,2022.1.3,Win32,59.76214666,62bbe60bf3d75ef465d3e404,,,,,,,,,,,,,,,,,,,,fourtwo,,-4,2.0296,,,,,,,,,,,,,,,,,,,,,,,,,,,,,,,,,,"[0.09799999999999986,-0.24719999999999998,0.15280000000000005]","[0.4196,0.4665999999999999,0.3568]",-50,80,1,0,0,response7disk,13,-7,1,0,0,rectangle,13,-7,1,0,0,,3,0.0001,0,13,-7,1,0,0,0,13,13,9,1,9,first,,,,,,,,,,,,,,,,,,,,,,,,,,,,,,,,,,,,,,,,,,,,,,,,,,,,,,,,,,,,,,,,,,,
,,,,,,615efa227a9938e11616d53c,62bbfa16145238a11f62eca6,2022-06-29_09h07.48.749,Colour_Asymmetry_Pilot,2022.1.3,Win32,59.76214666,62bbe60bf3d75ef465d3e404,,,,,,,,,,,,,,,,,,,,threeone,,-1,8.3967,,,,,,,,,,,,,,,,,,,,,,,,,,,,,,,,,,"[0.3802000000000001,0.19199999999999995,-0.6394]","[-0.01980000000000004,-0.5138,-0.38039999999999996]",-45,-85,1,0,0,response5disk,-6,-2,1,0,0,rectangle,-6,-2,1,0,0,,1,0.0019,0,-6,-2,1,0,0,0,14,14,114,1,33,second,,,,,,,,,,,,,,,,,,,,,,,,,,,,,,,,,,,,,,,,,,,,,,,,,,,,,,,,,,,,,,,,,,,
,,,,,,615efa227a9938e11616d53c,62bbfa16145238a11f62eca6,2022-06-29_09h07.48.749,Colour_Asymmetry_Pilot,2022.1.3,Win32,59.76214666,62bbe60bf3d75ef465d3e404,,,,,,,,,,,,,,,,,,,,threefour,,-3,6.2884,,,,,,,,,,,,,,,,,,,,,,,,,,,,,,,,,,"[0.9763999999999999,-0.1137999999999999,-0.6314]","[-0.38039999999999996,-0.4276,-0.1452]",-60,20,1,0,0,response7disk,10,-7,1,0,0,rectangle,10,-7,1,0,0,,3,0.0016,0,10,-7,1,0,0,0,15,15,3,1,3,first,,,,,,,,,,,,,,,,,,,,,,,,,,,,,,,,,,,,,,,,,,,,,,,,,,,,,,,,,,,,,,,,,,,
,,,,,,615efa227a9938e11616d53c,62bbfa16145238a11f62eca6,2022-06-29_09h07.48.749,Colour_Asymmetry_Pilot,2022.1.3,Win32,59.76214666,62bbe60bf3d75ef465d3e404,,,,,,,,,,,,,,,,,,,,twofour,,-2,4.6829,,,,,,,,,,,,,,,,,,,,,,,,,,,,,,,,,,"[-0.48240000000000005,0.3175999999999999,0.2156]","[0.6625999999999999,0.4980000000000002,-0.357]",-93,-46,1,0,0,response5disk,-2,-7,1,0,0,rectangle,-2,-7,1,0,0,,3,0.0002,0,-2,-7,1,0,0,0,16,16,51,1,51,first,,,,,,,,,,,,,,,,,,,,,,,,,,,,,,,,,,,,,,,,,,,,,,,,,,,,,,,,,,,,,,,,,,,
,,,,,,615efa227a9938e11616d53c,62bbfa16145238a11f62eca6,2022-06-29_09h07.48.749,Colour_Asymmetry_Pilot,2022.1.3,Win32,59.76214666,62bbe60bf3d75ef465d3e404,,,,,,,,,,,,,,,,,,,,fourtwo,,2,4.5464,,,,,,,,,,,,,,,,,,,,,,,,,,,,,,,,,,"[1,0.12939999999999996,-1]","[0.3802000000000001,0.19199999999999995,-0.6394]",68,-40,1,0,0,response3disk,-4,-10,1,0,0,rectangle,-4,-10,1,0,0,,3,1E-04,0,-4,-10,1,0,0,0,17,17,47,1,47,first,,,,,,,,,,,,,,,,,,,,,,,,,,,,,,,,,,,,,,,,,,,,,,,,,,,,,,,,,,,,,,,,,,,
,,,,,,615efa227a9938e11616d53c,62bbfa16145238a11f62eca6,2022-06-29_09h07.48.749,Colour_Asymmetry_Pilot,2022.1.3,Win32,59.76214666,62bbe60bf3d75ef465d3e404,,,,,,,,,,,,,,,,,,,,threeone,,-3,4.074,,,,,,,,,,,,,,,,,,,,,,,,,,,,,,,,,,"[-0.01980000000000004,-0.5138,-0.38039999999999996]","[0.4196,0.4665999999999999,0.3568]",-89,23,1,0,0,response7disk,-10,-5,1,0,0,rectangle,-10,-5,1,0,0,,2,0.0021,0,-10,-5,1,0,0,0,18,18,112,1,31,second,,,,,,,,,,,,,,,,,,,,,,,,,,,,,,,,,,,,,,,,,,,,,,,,,,,,,,,,,,,,,,,,,,,
,,,,,,615efa227a9938e11616d53c,62bbfa16145238a11f62eca6,2022-06-29_09h07.48.749,Colour_Asymmetry_Pilot,2022.1.3,Win32,59.76214666,62bbe60bf3d75ef465d3e404,,,,,,,,,,,,,,,,,,,,threefour,,-4,3.314,,,,,,,,,,,,,,,,,,,,,,,,,,,,,,,,,,"[0.9686000000000001,0.3802000000000001,0.19999999999999996]","[-0.5452,-0.608,0.2470000000000001]",-41,75,1,0,0,response7disk,3,-4,1,0,0,rectangle,3,-4,1,0,0,,2,0.0001,0,3,-4,1,0,0,0,19,19,146,1,65,second,,,,,,,,,,,,,,,,,,,,,,,,,,,,,,,,,,,,,,,,,,,,,,,,,,,,,,,,,,,,,,,,,,,
,,,,,,615efa227a9938e11616d53c,62bbfa16145238a11f62eca6,2022-06-29_09h07.48.749,Colour_Asymmetry_Pilot,2022.1.3,Win32,59.76214666,62bbe60bf3d75ef465d3e404,,,,,,,,,,,,,,,,,,,,twofour,,-4,3.1042,,,,,,,,,,,,,,,,,,,,,,,,,,,,,,,,,,"[-0.2942,-0.24719999999999998,-0.357]","[0.9763999999999999,-0.1137999999999999,-0.6314]",-44,58,1,0,0,response7disk,-20,-1,1,0,0,rectangle,-20,-1,1,0,0,,1,0.0012,0,-20,-1,1,0,0,0,20,20,43,1,43,first,,,,,,,,,,,,,,,,,,,,,,,,,,,,,,,,,,,,,,,,,,,,,,,,,,,,,,,,,,,,,,,,,,,
