trials.thisRepN,trials.thisTrialN,trials.thisN,trials.thisIndex,trials.ran,Colourcodes,participant,session,date,expName,psychopyVersion,OS,frameRate,study_id,trials_4.thisRepN,trials_4.thisTrialN,trials_4.thisN,trials_4.thisIndex,trials_4.ran,StimulusPos,key_resp.keys,key_resp.rt,key_resp_2.keys,key_resp_2.rt,key_resp_15.keys,key_resp_15.rt,key_resp_17.keys,key_resp_17.rt,key_resp_9.keys,key_resp_9.rt,key_resp_10.keys,key_resp_10.rt,Circle1_col,Ecc,Circle2_col,similarity,response_time,mouse_5.x,mouse_5.y,mouse_5.leftButton,mouse_5.midButton,mouse_5.rightButton,mouse_5.clicked_name,mouse_10.x,mouse_10.y,mouse_10.leftButton,mouse_10.midButton,mouse_10.rightButton,mouse_10.clicked_name,mouse_7.x,mouse_7.y,mouse_7.leftButton,mouse_7.midButton,mouse_7.rightButton,catchnumberprac,mouse_6.x,mouse_6.y,mouse_6.leftButton,mouse_6.midButton,mouse_6.rightButton,duringprac.thisRepN,duringprac.thisTrialN,duringprac.thisN,duringprac.thisIndex,duringprac.ran,mouse_7.clicked_name,catchprac,mouse_6.clicked_name,key_resp_22.keys,key_resp_22.rt,Circle1_colour,Circle2_colour,mouse.x,mouse.y,mouse.leftButton,mouse.midButton,mouse.rightButton,mouse.clicked_name,mouse_2.x,mouse_2.y,mouse_2.leftButton,mouse_2.midButton,mouse_2.rightButton,mouse_2.clicked_name,mouse_3.x,mouse_3.y,mouse_3.leftButton,mouse_3.midButton,mouse_3.rightButton,catchresponse,catchnumber,response_time_catch,Catch,mouse_11.x,mouse_11.y,mouse_11.leftButton,mouse_11.midButton,mouse_11.rightButton,trials_2.thisRepN,trials_2.thisTrialN,trials_2.thisN,trials_2.thisIndex,trials_2.ran,Colourpair,Temporder,mouse_3.clicked_name,mouse_11.clicked_name,trials_3.thisRepN,trials_3.thisTrialN,trials_3.thisN,trials_3.thisIndex,trials_3.ran,key_resp_instr_Ishi.keys,key_resp_instr_Ishi.rt,Ishi_trial_keyresp.keys,Ishi_trial_keyresp.rt,Ishi_textbox.text,Ishi_loop.thisRepN,Ishi_loop.thisTrialN,Ishi_loop.thisN,Ishi_loop.thisIndex,Ishi_loop.ran,imageaddress,textbox.text,mouse_4.x,mouse_4.y,mouse_4.leftButton,mouse_4.midButton,mouse_4.rightButton,mouse_4.clicked_name,textbox_2.text,mouse_8.x,mouse_8.y,mouse_8.leftButton,mouse_8.midButton,mouse_8.rightButton,mouse_8.clicked_name,textbox_3.text,mouse_9.x,mouse_9.y,mouse_9.leftButton,mouse_9.midButton,mouse_9.rightButton,mouse_9.clicked_name,textbox_4.text,mouse_12.x,mouse_12.y,mouse_12.leftButton,mouse_12.midButton,mouse_12.rightButton,mouse_12.clicked_name,textbox_5.text,mouse_13.x,mouse_13.y,mouse_13.leftButton,mouse_13.midButton,mouse_13.rightButton,mouse_13.clicked_name,textbox_6.text,mouse_14.x,mouse_14.y,mouse_14.leftButton,mouse_14.midButton,mouse_14.rightButton,mouse_14.clicked_name,textbox_7.text,mouse_15.x,mouse_15.y,mouse_15.leftButton,mouse_15.midButton,mouse_15.rightButton,mouse_15.clicked_name
0,0,0,43,1,,61535f0be88cfbeb7bc0bf04,62bbfaf81c4ea81659aad419,2022-06-29_09h11.35.247,Colour_Asymmetry_Pilot,2022.1.3,Win32,60.02040694,62bbe60bf3d75ef465d3e404,,,,,,,,,,,,,,,,,,,,,,,,,,,,,,,,,,,,,,,,,,,,,,,,,,,,,,,,,,,,,,,,,,,,,,,,,,,,,,,,,,,,,,,,,,,,,,,,,,,,,,,,,,,,,,,,,,,,,,,,,,,,,,,,,,,,,,,,,,,,,,,,,,,,,,,,,,,,,,
0,1,1,19,1,,61535f0be88cfbeb7bc0bf04,62bbfaf81c4ea81659aad419,2022-06-29_09h11.35.247,Colour_Asymmetry_Pilot,2022.1.3,Win32,60.02040694,62bbe60bf3d75ef465d3e404,,,,,,,,,,,,,,,,,,,,,,,,,,,,,,,,,,,,,,,,,,,,,,,,,,,,,,,,,,,,,,,,,,,,,,,,,,,,,,,,,,,,,,,,,,,,,,,,,,,,,,,,,,,,,,,,,,,,,,,,,,,,,,,,,,,,,,,,,,,,,,,,,,,,,,,,,,,,,,
0,2,2,67,1,,61535f0be88cfbeb7bc0bf04,62bbfaf81c4ea81659aad419,2022-06-29_09h11.35.247,Colour_Asymmetry_Pilot,2022.1.3,Win32,60.02040694,62bbe60bf3d75ef465d3e404,,,,,,,,,,,,,,,,,,,,,,,,,,,,,,,,,,,,,,,,,,,,,,,,,,,,,,,,,,,,,,,,,,,,,,,,,,,,,,,,,,,,,,,,,,,,,,,,,,,,,,,,,,,,,,,,,,,,,,,,,,,,,,,,,,,,,,,,,,,,,,,,,,,,,,,,,,,,,,
0,3,3,58,1,,61535f0be88cfbeb7bc0bf04,62bbfaf81c4ea81659aad419,2022-06-29_09h11.35.247,Colour_Asymmetry_Pilot,2022.1.3,Win32,60.02040694,62bbe60bf3d75ef465d3e404,,,,,,,,,,,,,,,,,,,,,,,,,,,,,,,,,,,,,,,,,,,,,,,,,,,,,,,,,,,,,,,,,,,,,,,,,,,,,,,,,,,,,,,,,,,,,,,,,,,,,,,,,,,,,,,,,,,,,,,,,,,,,,,,,,,,,,,,,,,,,,,,,,,,,,,,,,,,,,
0,4,4,41,1,,61535f0be88cfbeb7bc0bf04,62bbfaf81c4ea81659aad419,2022-06-29_09h11.35.247,Colour_Asymmetry_Pilot,2022.1.3,Win32,60.02040694,62bbe60bf3d75ef465d3e404,,,,,,,,,,,,,,,,,,,,,,,,,,,,,,,,,,,,,,,,,,,,,,,,,,,,,,,,,,,,,,,,,,,,,,,,,,,,,,,,,,,,,,,,,,,,,,,,,,,,,,,,,,,,,,,,,,,,,,,,,,,,,,,,,,,,,,,,,,,,,,,,,,,,,,,,,,,,,,
0,5,5,75,1,,61535f0be88cfbeb7bc0bf04,62bbfaf81c4ea81659aad419,2022-06-29_09h11.35.247,Colour_Asymmetry_Pilot,2022.1.3,Win32,60.02040694,62bbe60bf3d75ef465d3e404,,,,,,,,,,,,,,,,,,,,,,,,,,,,,,,,,,,,,,,,,,,,,,,,,,,,,,,,,,,,,,,,,,,,,,,,,,,,,,,,,,,,,,,,,,,,,,,,,,,,,,,,,,,,,,,,,,,,,,,,,,,,,,,,,,,,,,,,,,,,,,,,,,,,,,,,,,,,,,
0,6,6,56,1,,61535f0be88cfbeb7bc0bf04,62bbfaf81c4ea81659aad419,2022-06-29_09h11.35.247,Colour_Asymmetry_Pilot,2022.1.3,Win32,60.02040694,62bbe60bf3d75ef465d3e404,,,,,,,,,,,,,,,,,,,,,,,,,,,,,,,,,,,,,,,,,,,,,,,,,,,,,,,,,,,,,,,,,,,,,,,,,,,,,,,,,,,,,,,,,,,,,,,,,,,,,,,,,,,,,,,,,,,,,,,,,,,,,,,,,,,,,,,,,,,,,,,,,,,,,,,,,,,,,,
0,7,7,6,1,,61535f0be88cfbeb7bc0bf04,62bbfaf81c4ea81659aad419,2022-06-29_09h11.35.247,Colour_Asymmetry_Pilot,2022.1.3,Win32,60.02040694,62bbe60bf3d75ef465d3e404,,,,,,,,,,,,,,,,,,,,,,,,,,,,,,,,,,,,,,,,,,,,,,,,,,,,,,,,,,,,,,,,,,,,,,,,,,,,,,,,,,,,,,,,,,,,,,,,,,,,,,,,,,,,,,,,,,,,,,,,,,,,,,,,,,,,,,,,,,,,,,,,,,,,,,,,,,,,,,
0,8,8,65,1,,61535f0be88cfbeb7bc0bf04,62bbfaf81c4ea81659aad419,2022-06-29_09h11.35.247,Colour_Asymmetry_Pilot,2022.1.3,Win32,60.02040694,62bbe60bf3d75ef465d3e404,,,,,,,,,,,,,,,,,,,,,,,,,,,,,,,,,,,,,,,,,,,,,,,,,,,,,,,,,,,,,,,,,,,,,,,,,,,,,,,,,,,,,,,,,,,,,,,,,,,,,,,,,,,,,,,,,,,,,,,,,,,,,,,,,,,,,,,,,,,,,,,,,,,,,,,,,,,,,,
0,9,9,40,1,,61535f0be88cfbeb7bc0bf04,62bbfaf81c4ea81659aad419,2022-06-29_09h11.35.247,Colour_Asymmetry_Pilot,2022.1.3,Win32,60.02040694,62bbe60bf3d75ef465d3e404,,,,,,,,,,,,,,,,,,,,,,,,,,,,,,,,,,,,,,,,,,,,,,,,,,,,,,,,,,,,,,,,,,,,,,,,,,,,,,,,,,,,,,,,,,,,,,,,,,,,,,,,,,,,,,,,,,,,,,,,,,,,,,,,,,,,,,,,,,,,,,,,,,,,,,,,,,,,,,
0,10,10,8,1,,61535f0be88cfbeb7bc0bf04,62bbfaf81c4ea81659aad419,2022-06-29_09h11.35.247,Colour_Asymmetry_Pilot,2022.1.3,Win32,60.02040694,62bbe60bf3d75ef465d3e404,,,,,,,,,,,,,,,,,,,,,,,,,,,,,,,,,,,,,,,,,,,,,,,,,,,,,,,,,,,,,,,,,,,,,,,,,,,,,,,,,,,,,,,,,,,,,,,,,,,,,,,,,,,,,,,,,,,,,,,,,,,,,,,,,,,,,,,,,,,,,,,,,,,,,,,,,,,,,,
0,11,11,46,1,,61535f0be88cfbeb7bc0bf04,62bbfaf81c4ea81659aad419,2022-06-29_09h11.35.247,Colour_Asymmetry_Pilot,2022.1.3,Win32,60.02040694,62bbe60bf3d75ef465d3e404,,,,,,,,,,,,,,,,,,,,,,,,,,,,,,,,,,,,,,,,,,,,,,,,,,,,,,,,,,,,,,,,,,,,,,,,,,,,,,,,,,,,,,,,,,,,,,,,,,,,,,,,,,,,,,,,,,,,,,,,,,,,,,,,,,,,,,,,,,,,,,,,,,,,,,,,,,,,,,
0,12,12,51,1,,61535f0be88cfbeb7bc0bf04,62bbfaf81c4ea81659aad419,2022-06-29_09h11.35.247,Colour_Asymmetry_Pilot,2022.1.3,Win32,60.02040694,62bbe60bf3d75ef465d3e404,,,,,,,,,,,,,,,,,,,,,,,,,,,,,,,,,,,,,,,,,,,,,,,,,,,,,,,,,,,,,,,,,,,,,,,,,,,,,,,,,,,,,,,,,,,,,,,,,,,,,,,,,,,,,,,,,,,,,,,,,,,,,,,,,,,,,,,,,,,,,,,,,,,,,,,,,,,,,,
0,13,13,68,1,,61535f0be88cfbeb7bc0bf04,62bbfaf81c4ea81659aad419,2022-06-29_09h11.35.247,Colour_Asymmetry_Pilot,2022.1.3,Win32,60.02040694,62bbe60bf3d75ef465d3e404,,,,,,,,,,,,,,,,,,,,,,,,,,,,,,,,,,,,,,,,,,,,,,,,,,,,,,,,,,,,,,,,,,,,,,,,,,,,,,,,,,,,,,,,,,,,,,,,,,,,,,,,,,,,,,,,,,,,,,,,,,,,,,,,,,,,,,,,,,,,,,,,,,,,,,,,,,,,,,
0,14,14,24,1,,61535f0be88cfbeb7bc0bf04,62bbfaf81c4ea81659aad419,2022-06-29_09h11.35.247,Colour_Asymmetry_Pilot,2022.1.3,Win32,60.02040694,62bbe60bf3d75ef465d3e404,,,,,,,,,,,,,,,,,,,,,,,,,,,,,,,,,,,,,,,,,,,,,,,,,,,,,,,,,,,,,,,,,,,,,,,,,,,,,,,,,,,,,,,,,,,,,,,,,,,,,,,,,,,,,,,,,,,,,,,,,,,,,,,,,,,,,,,,,,,,,,,,,,,,,,,,,,,,,,
0,15,15,83,1,,61535f0be88cfbeb7bc0bf04,62bbfaf81c4ea81659aad419,2022-06-29_09h11.35.247,Colour_Asymmetry_Pilot,2022.1.3,Win32,60.02040694,62bbe60bf3d75ef465d3e404,,,,,,,,,,,,,,,,,,,,,,,,,,,,,,,,,,,,,,,,,,,,,,,,,,,,,,,,,,,,,,,,,,,,,,,,,,,,,,,,,,,,,,,,,,,,,,,,,,,,,,,,,,,,,,,,,,,,,,,,,,,,,,,,,,,,,,,,,,,,,,,,,,,,,,,,,,,,,,
0,16,16,70,1,,61535f0be88cfbeb7bc0bf04,62bbfaf81c4ea81659aad419,2022-06-29_09h11.35.247,Colour_Asymmetry_Pilot,2022.1.3,Win32,60.02040694,62bbe60bf3d75ef465d3e404,,,,,,,,,,,,,,,,,,,,,,,,,,,,,,,,,,,,,,,,,,,,,,,,,,,,,,,,,,,,,,,,,,,,,,,,,,,,,,,,,,,,,,,,,,,,,,,,,,,,,,,,,,,,,,,,,,,,,,,,,,,,,,,,,,,,,,,,,,,,,,,,,,,,,,,,,,,,,,
0,17,17,13,1,,61535f0be88cfbeb7bc0bf04,62bbfaf81c4ea81659aad419,2022-06-29_09h11.35.247,Colour_Asymmetry_Pilot,2022.1.3,Win32,60.02040694,62bbe60bf3d75ef465d3e404,,,,,,,,,,,,,,,,,,,,,,,,,,,,,,,,,,,,,,,,,,,,,,,,,,,,,,,,,,,,,,,,,,,,,,,,,,,,,,,,,,,,,,,,,,,,,,,,,,,,,,,,,,,,,,,,,,,,,,,,,,,,,,,,,,,,,,,,,,,,,,,,,,,,,,,,,,,,,,
0,18,18,60,1,,61535f0be88cfbeb7bc0bf04,62bbfaf81c4ea81659aad419,2022-06-29_09h11.35.247,Colour_Asymmetry_Pilot,2022.1.3,Win32,60.02040694,62bbe60bf3d75ef465d3e404,,,,,,,,,,,,,,,,,,,,,,,,,,,,,,,,,,,,,,,,,,,,,,,,,,,,,,,,,,,,,,,,,,,,,,,,,,,,,,,,,,,,,,,,,,,,,,,,,,,,,,,,,,,,,,,,,,,,,,,,,,,,,,,,,,,,,,,,,,,,,,,,,,,,,,,,,,,,,,
0,19,19,12,1,,61535f0be88cfbeb7bc0bf04,62bbfaf81c4ea81659aad419,2022-06-29_09h11.35.247,Colour_Asymmetry_Pilot,2022.1.3,Win32,60.02040694,62bbe60bf3d75ef465d3e404,,,,,,,,,,,,,,,,,,,,,,,,,,,,,,,,,,,,,,,,,,,,,,,,,,,,,,,,,,,,,,,,,,,,,,,,,,,,,,,,,,,,,,,,,,,,,,,,,,,,,,,,,,,,,,,,,,,,,,,,,,,,,,,,,,,,,,,,,,,,,,,,,,,,,,,,,,,,,,
0,20,20,85,1,,61535f0be88cfbeb7bc0bf04,62bbfaf81c4ea81659aad419,2022-06-29_09h11.35.247,Colour_Asymmetry_Pilot,2022.1.3,Win32,60.02040694,62bbe60bf3d75ef465d3e404,,,,,,,,,,,,,,,,,,,,,,,,,,,,,,,,,,,,,,,,,,,,,,,,,,,,,,,,,,,,,,,,,,,,,,,,,,,,,,,,,,,,,,,,,,,,,,,,,,,,,,,,,,,,,,,,,,,,,,,,,,,,,,,,,,,,,,,,,,,,,,,,,,,,,,,,,,,,,,
0,21,21,79,1,,61535f0be88cfbeb7bc0bf04,62bbfaf81c4ea81659aad419,2022-06-29_09h11.35.247,Colour_Asymmetry_Pilot,2022.1.3,Win32,60.02040694,62bbe60bf3d75ef465d3e404,,,,,,,,,,,,,,,,,,,,,,,,,,,,,,,,,,,,,,,,,,,,,,,,,,,,,,,,,,,,,,,,,,,,,,,,,,,,,,,,,,,,,,,,,,,,,,,,,,,,,,,,,,,,,,,,,,,,,,,,,,,,,,,,,,,,,,,,,,,,,,,,,,,,,,,,,,,,,,
0,22,22,59,1,,61535f0be88cfbeb7bc0bf04,62bbfaf81c4ea81659aad419,2022-06-29_09h11.35.247,Colour_Asymmetry_Pilot,2022.1.3,Win32,60.02040694,62bbe60bf3d75ef465d3e404,,,,,,,,,,,,,,,,,,,,,,,,,,,,,,,,,,,,,,,,,,,,,,,,,,,,,,,,,,,,,,,,,,,,,,,,,,,,,,,,,,,,,,,,,,,,,,,,,,,,,,,,,,,,,,,,,,,,,,,,,,,,,,,,,,,,,,,,,,,,,,,,,,,,,,,,,,,,,,
0,23,23,42,1,,61535f0be88cfbeb7bc0bf04,62bbfaf81c4ea81659aad419,2022-06-29_09h11.35.247,Colour_Asymmetry_Pilot,2022.1.3,Win32,60.02040694,62bbe60bf3d75ef465d3e404,,,,,,,,,,,,,,,,,,,,,,,,,,,,,,,,,,,,,,,,,,,,,,,,,,,,,,,,,,,,,,,,,,,,,,,,,,,,,,,,,,,,,,,,,,,,,,,,,,,,,,,,,,,,,,,,,,,,,,,,,,,,,,,,,,,,,,,,,,,,,,,,,,,,,,,,,,,,,,
0,24,24,32,1,,61535f0be88cfbeb7bc0bf04,62bbfaf81c4ea81659aad419,2022-06-29_09h11.35.247,Colour_Asymmetry_Pilot,2022.1.3,Win32,60.02040694,62bbe60bf3d75ef465d3e404,,,,,,,,,,,,,,,,,,,,,,,,,,,,,,,,,,,,,,,,,,,,,,,,,,,,,,,,,,,,,,,,,,,,,,,,,,,,,,,,,,,,,,,,,,,,,,,,,,,,,,,,,,,,,,,,,,,,,,,,,,,,,,,,,,,,,,,,,,,,,,,,,,,,,,,,,,,,,,
0,25,25,53,1,,61535f0be88cfbeb7bc0bf04,62bbfaf81c4ea81659aad419,2022-06-29_09h11.35.247,Colour_Asymmetry_Pilot,2022.1.3,Win32,60.02040694,62bbe60bf3d75ef465d3e404,,,,,,,,,,,,,,,,,,,,,,,,,,,,,,,,,,,,,,,,,,,,,,,,,,,,,,,,,,,,,,,,,,,,,,,,,,,,,,,,,,,,,,,,,,,,,,,,,,,,,,,,,,,,,,,,,,,,,,,,,,,,,,,,,,,,,,,,,,,,,,,,,,,,,,,,,,,,,,
0,26,26,29,1,,61535f0be88cfbeb7bc0bf04,62bbfaf81c4ea81659aad419,2022-06-29_09h11.35.247,Colour_Asymmetry_Pilot,2022.1.3,Win32,60.02040694,62bbe60bf3d75ef465d3e404,,,,,,,,,,,,,,,,,,,,,,,,,,,,,,,,,,,,,,,,,,,,,,,,,,,,,,,,,,,,,,,,,,,,,,,,,,,,,,,,,,,,,,,,,,,,,,,,,,,,,,,,,,,,,,,,,,,,,,,,,,,,,,,,,,,,,,,,,,,,,,,,,,,,,,,,,,,,,,
0,27,27,87,1,,61535f0be88cfbeb7bc0bf04,62bbfaf81c4ea81659aad419,2022-06-29_09h11.35.247,Colour_Asymmetry_Pilot,2022.1.3,Win32,60.02040694,62bbe60bf3d75ef465d3e404,,,,,,,,,,,,,,,,,,,,,,,,,,,,,,,,,,,,,,,,,,,,,,,,,,,,,,,,,,,,,,,,,,,,,,,,,,,,,,,,,,,,,,,,,,,,,,,,,,,,,,,,,,,,,,,,,,,,,,,,,,,,,,,,,,,,,,,,,,,,,,,,,,,,,,,,,,,,,,
0,28,28,37,1,,61535f0be88cfbeb7bc0bf04,62bbfaf81c4ea81659aad419,2022-06-29_09h11.35.247,Colour_Asymmetry_Pilot,2022.1.3,Win32,60.02040694,62bbe60bf3d75ef465d3e404,,,,,,,,,,,,,,,,,,,,,,,,,,,,,,,,,,,,,,,,,,,,,,,,,,,,,,,,,,,,,,,,,,,,,,,,,,,,,,,,,,,,,,,,,,,,,,,,,,,,,,,,,,,,,,,,,,,,,,,,,,,,,,,,,,,,,,,,,,,,,,,,,,,,,,,,,,,,,,
0,29,29,31,1,,61535f0be88cfbeb7bc0bf04,62bbfaf81c4ea81659aad419,2022-06-29_09h11.35.247,Colour_Asymmetry_Pilot,2022.1.3,Win32,60.02040694,62bbe60bf3d75ef465d3e404,,,,,,,,,,,,,,,,,,,,,,,,,,,,,,,,,,,,,,,,,,,,,,,,,,,,,,,,,,,,,,,,,,,,,,,,,,,,,,,,,,,,,,,,,,,,,,,,,,,,,,,,,,,,,,,,,,,,,,,,,,,,,,,,,,,,,,,,,,,,,,,,,,,,,,,,,,,,,,
0,30,30,10,1,,61535f0be88cfbeb7bc0bf04,62bbfaf81c4ea81659aad419,2022-06-29_09h11.35.247,Colour_Asymmetry_Pilot,2022.1.3,Win32,60.02040694,62bbe60bf3d75ef465d3e404,,,,,,,,,,,,,,,,,,,,,,,,,,,,,,,,,,,,,,,,,,,,,,,,,,,,,,,,,,,,,,,,,,,,,,,,,,,,,,,,,,,,,,,,,,,,,,,,,,,,,,,,,,,,,,,,,,,,,,,,,,,,,,,,,,,,,,,,,,,,,,,,,,,,,,,,,,,,,,
0,31,31,78,1,,61535f0be88cfbeb7bc0bf04,62bbfaf81c4ea81659aad419,2022-06-29_09h11.35.247,Colour_Asymmetry_Pilot,2022.1.3,Win32,60.02040694,62bbe60bf3d75ef465d3e404,,,,,,,,,,,,,,,,,,,,,,,,,,,,,,,,,,,,,,,,,,,,,,,,,,,,,,,,,,,,,,,,,,,,,,,,,,,,,,,,,,,,,,,,,,,,,,,,,,,,,,,,,,,,,,,,,,,,,,,,,,,,,,,,,,,,,,,,,,,,,,,,,,,,,,,,,,,,,,
0,32,32,33,1,,61535f0be88cfbeb7bc0bf04,62bbfaf81c4ea81659aad419,2022-06-29_09h11.35.247,Colour_Asymmetry_Pilot,2022.1.3,Win32,60.02040694,62bbe60bf3d75ef465d3e404,,,,,,,,,,,,,,,,,,,,,,,,,,,,,,,,,,,,,,,,,,,,,,,,,,,,,,,,,,,,,,,,,,,,,,,,,,,,,,,,,,,,,,,,,,,,,,,,,,,,,,,,,,,,,,,,,,,,,,,,,,,,,,,,,,,,,,,,,,,,,,,,,,,,,,,,,,,,,,
0,33,33,57,1,,61535f0be88cfbeb7bc0bf04,62bbfaf81c4ea81659aad419,2022-06-29_09h11.35.247,Colour_Asymmetry_Pilot,2022.1.3,Win32,60.02040694,62bbe60bf3d75ef465d3e404,,,,,,,,,,,,,,,,,,,,,,,,,,,,,,,,,,,,,,,,,,,,,,,,,,,,,,,,,,,,,,,,,,,,,,,,,,,,,,,,,,,,,,,,,,,,,,,,,,,,,,,,,,,,,,,,,,,,,,,,,,,,,,,,,,,,,,,,,,,,,,,,,,,,,,,,,,,,,,
0,34,34,45,1,,61535f0be88cfbeb7bc0bf04,62bbfaf81c4ea81659aad419,2022-06-29_09h11.35.247,Colour_Asymmetry_Pilot,2022.1.3,Win32,60.02040694,62bbe60bf3d75ef465d3e404,,,,,,,,,,,,,,,,,,,,,,,,,,,,,,,,,,,,,,,,,,,,,,,,,,,,,,,,,,,,,,,,,,,,,,,,,,,,,,,,,,,,,,,,,,,,,,,,,,,,,,,,,,,,,,,,,,,,,,,,,,,,,,,,,,,,,,,,,,,,,,,,,,,,,,,,,,,,,,
0,35,35,69,1,,61535f0be88cfbeb7bc0bf04,62bbfaf81c4ea81659aad419,2022-06-29_09h11.35.247,Colour_Asymmetry_Pilot,2022.1.3,Win32,60.02040694,62bbe60bf3d75ef465d3e404,,,,,,,,,,,,,,,,,,,,,,,,,,,,,,,,,,,,,,,,,,,,,,,,,,,,,,,,,,,,,,,,,,,,,,,,,,,,,,,,,,,,,,,,,,,,,,,,,,,,,,,,,,,,,,,,,,,,,,,,,,,,,,,,,,,,,,,,,,,,,,,,,,,,,,,,,,,,,,
0,36,36,25,1,,61535f0be88cfbeb7bc0bf04,62bbfaf81c4ea81659aad419,2022-06-29_09h11.35.247,Colour_Asymmetry_Pilot,2022.1.3,Win32,60.02040694,62bbe60bf3d75ef465d3e404,,,,,,,,,,,,,,,,,,,,,,,,,,,,,,,,,,,,,,,,,,,,,,,,,,,,,,,,,,,,,,,,,,,,,,,,,,,,,,,,,,,,,,,,,,,,,,,,,,,,,,,,,,,,,,,,,,,,,,,,,,,,,,,,,,,,,,,,,,,,,,,,,,,,,,,,,,,,,,
0,37,37,14,1,,61535f0be88cfbeb7bc0bf04,62bbfaf81c4ea81659aad419,2022-06-29_09h11.35.247,Colour_Asymmetry_Pilot,2022.1.3,Win32,60.02040694,62bbe60bf3d75ef465d3e404,,,,,,,,,,,,,,,,,,,,,,,,,,,,,,,,,,,,,,,,,,,,,,,,,,,,,,,,,,,,,,,,,,,,,,,,,,,,,,,,,,,,,,,,,,,,,,,,,,,,,,,,,,,,,,,,,,,,,,,,,,,,,,,,,,,,,,,,,,,,,,,,,,,,,,,,,,,,,,
0,38,38,86,1,,61535f0be88cfbeb7bc0bf04,62bbfaf81c4ea81659aad419,2022-06-29_09h11.35.247,Colour_Asymmetry_Pilot,2022.1.3,Win32,60.02040694,62bbe60bf3d75ef465d3e404,,,,,,,,,,,,,,,,,,,,,,,,,,,,,,,,,,,,,,,,,,,,,,,,,,,,,,,,,,,,,,,,,,,,,,,,,,,,,,,,,,,,,,,,,,,,,,,,,,,,,,,,,,,,,,,,,,,,,,,,,,,,,,,,,,,,,,,,,,,,,,,,,,,,,,,,,,,,,,
0,39,39,66,1,,61535f0be88cfbeb7bc0bf04,62bbfaf81c4ea81659aad419,2022-06-29_09h11.35.247,Colour_Asymmetry_Pilot,2022.1.3,Win32,60.02040694,62bbe60bf3d75ef465d3e404,,,,,,,,,,,,,,,,,,,,,,,,,,,,,,,,,,,,,,,,,,,,,,,,,,,,,,,,,,,,,,,,,,,,,,,,,,,,,,,,,,,,,,,,,,,,,,,,,,,,,,,,,,,,,,,,,,,,,,,,,,,,,,,,,,,,,,,,,,,,,,,,,,,,,,,,,,,,,,
0,40,40,64,1,,61535f0be88cfbeb7bc0bf04,62bbfaf81c4ea81659aad419,2022-06-29_09h11.35.247,Colour_Asymmetry_Pilot,2022.1.3,Win32,60.02040694,62bbe60bf3d75ef465d3e404,,,,,,,,,,,,,,,,,,,,,,,,,,,,,,,,,,,,,,,,,,,,,,,,,,,,,,,,,,,,,,,,,,,,,,,,,,,,,,,,,,,,,,,,,,,,,,,,,,,,,,,,,,,,,,,,,,,,,,,,,,,,,,,,,,,,,,,,,,,,,,,,,,,,,,,,,,,,,,
0,41,41,0,1,,61535f0be88cfbeb7bc0bf04,62bbfaf81c4ea81659aad419,2022-06-29_09h11.35.247,Colour_Asymmetry_Pilot,2022.1.3,Win32,60.02040694,62bbe60bf3d75ef465d3e404,,,,,,,,,,,,,,,,,,,,,,,,,,,,,,,,,,,,,,,,,,,,,,,,,,,,,,,,,,,,,,,,,,,,,,,,,,,,,,,,,,,,,,,,,,,,,,,,,,,,,,,,,,,,,,,,,,,,,,,,,,,,,,,,,,,,,,,,,,,,,,,,,,,,,,,,,,,,,,
0,42,42,81,1,,61535f0be88cfbeb7bc0bf04,62bbfaf81c4ea81659aad419,2022-06-29_09h11.35.247,Colour_Asymmetry_Pilot,2022.1.3,Win32,60.02040694,62bbe60bf3d75ef465d3e404,,,,,,,,,,,,,,,,,,,,,,,,,,,,,,,,,,,,,,,,,,,,,,,,,,,,,,,,,,,,,,,,,,,,,,,,,,,,,,,,,,,,,,,,,,,,,,,,,,,,,,,,,,,,,,,,,,,,,,,,,,,,,,,,,,,,,,,,,,,,,,,,,,,,,,,,,,,,,,
0,43,43,50,1,,61535f0be88cfbeb7bc0bf04,62bbfaf81c4ea81659aad419,2022-06-29_09h11.35.247,Colour_Asymmetry_Pilot,2022.1.3,Win32,60.02040694,62bbe60bf3d75ef465d3e404,,,,,,,,,,,,,,,,,,,,,,,,,,,,,,,,,,,,,,,,,,,,,,,,,,,,,,,,,,,,,,,,,,,,,,,,,,,,,,,,,,,,,,,,,,,,,,,,,,,,,,,,,,,,,,,,,,,,,,,,,,,,,,,,,,,,,,,,,,,,,,,,,,,,,,,,,,,,,,
0,44,44,54,1,,61535f0be88cfbeb7bc0bf04,62bbfaf81c4ea81659aad419,2022-06-29_09h11.35.247,Colour_Asymmetry_Pilot,2022.1.3,Win32,60.02040694,62bbe60bf3d75ef465d3e404,,,,,,,,,,,,,,,,,,,,,,,,,,,,,,,,,,,,,,,,,,,,,,,,,,,,,,,,,,,,,,,,,,,,,,,,,,,,,,,,,,,,,,,,,,,,,,,,,,,,,,,,,,,,,,,,,,,,,,,,,,,,,,,,,,,,,,,,,,,,,,,,,,,,,,,,,,,,,,
0,45,45,63,1,,61535f0be88cfbeb7bc0bf04,62bbfaf81c4ea81659aad419,2022-06-29_09h11.35.247,Colour_Asymmetry_Pilot,2022.1.3,Win32,60.02040694,62bbe60bf3d75ef465d3e404,,,,,,,,,,,,,,,,,,,,,,,,,,,,,,,,,,,,,,,,,,,,,,,,,,,,,,,,,,,,,,,,,,,,,,,,,,,,,,,,,,,,,,,,,,,,,,,,,,,,,,,,,,,,,,,,,,,,,,,,,,,,,,,,,,,,,,,,,,,,,,,,,,,,,,,,,,,,,,
0,46,46,20,1,,61535f0be88cfbeb7bc0bf04,62bbfaf81c4ea81659aad419,2022-06-29_09h11.35.247,Colour_Asymmetry_Pilot,2022.1.3,Win32,60.02040694,62bbe60bf3d75ef465d3e404,,,,,,,,,,,,,,,,,,,,,,,,,,,,,,,,,,,,,,,,,,,,,,,,,,,,,,,,,,,,,,,,,,,,,,,,,,,,,,,,,,,,,,,,,,,,,,,,,,,,,,,,,,,,,,,,,,,,,,,,,,,,,,,,,,,,,,,,,,,,,,,,,,,,,,,,,,,,,,
0,47,47,36,1,,61535f0be88cfbeb7bc0bf04,62bbfaf81c4ea81659aad419,2022-06-29_09h11.35.247,Colour_Asymmetry_Pilot,2022.1.3,Win32,60.02040694,62bbe60bf3d75ef465d3e404,,,,,,,,,,,,,,,,,,,,,,,,,,,,,,,,,,,,,,,,,,,,,,,,,,,,,,,,,,,,,,,,,,,,,,,,,,,,,,,,,,,,,,,,,,,,,,,,,,,,,,,,,,,,,,,,,,,,,,,,,,,,,,,,,,,,,,,,,,,,,,,,,,,,,,,,,,,,,,
0,48,48,35,1,,61535f0be88cfbeb7bc0bf04,62bbfaf81c4ea81659aad419,2022-06-29_09h11.35.247,Colour_Asymmetry_Pilot,2022.1.3,Win32,60.02040694,62bbe60bf3d75ef465d3e404,,,,,,,,,,,,,,,,,,,,,,,,,,,,,,,,,,,,,,,,,,,,,,,,,,,,,,,,,,,,,,,,,,,,,,,,,,,,,,,,,,,,,,,,,,,,,,,,,,,,,,,,,,,,,,,,,,,,,,,,,,,,,,,,,,,,,,,,,,,,,,,,,,,,,,,,,,,,,,
0,49,49,38,1,,61535f0be88cfbeb7bc0bf04,62bbfaf81c4ea81659aad419,2022-06-29_09h11.35.247,Colour_Asymmetry_Pilot,2022.1.3,Win32,60.02040694,62bbe60bf3d75ef465d3e404,,,,,,,,,,,,,,,,,,,,,,,,,,,,,,,,,,,,,,,,,,,,,,,,,,,,,,,,,,,,,,,,,,,,,,,,,,,,,,,,,,,,,,,,,,,,,,,,,,,,,,,,,,,,,,,,,,,,,,,,,,,,,,,,,,,,,,,,,,,,,,,,,,,,,,,,,,,,,,
0,50,50,80,1,,61535f0be88cfbeb7bc0bf04,62bbfaf81c4ea81659aad419,2022-06-29_09h11.35.247,Colour_Asymmetry_Pilot,2022.1.3,Win32,60.02040694,62bbe60bf3d75ef465d3e404,,,,,,,,,,,,,,,,,,,,,,,,,,,,,,,,,,,,,,,,,,,,,,,,,,,,,,,,,,,,,,,,,,,,,,,,,,,,,,,,,,,,,,,,,,,,,,,,,,,,,,,,,,,,,,,,,,,,,,,,,,,,,,,,,,,,,,,,,,,,,,,,,,,,,,,,,,,,,,
0,51,51,18,1,,61535f0be88cfbeb7bc0bf04,62bbfaf81c4ea81659aad419,2022-06-29_09h11.35.247,Colour_Asymmetry_Pilot,2022.1.3,Win32,60.02040694,62bbe60bf3d75ef465d3e404,,,,,,,,,,,,,,,,,,,,,,,,,,,,,,,,,,,,,,,,,,,,,,,,,,,,,,,,,,,,,,,,,,,,,,,,,,,,,,,,,,,,,,,,,,,,,,,,,,,,,,,,,,,,,,,,,,,,,,,,,,,,,,,,,,,,,,,,,,,,,,,,,,,,,,,,,,,,,,
0,52,52,55,1,,61535f0be88cfbeb7bc0bf04,62bbfaf81c4ea81659aad419,2022-06-29_09h11.35.247,Colour_Asymmetry_Pilot,2022.1.3,Win32,60.02040694,62bbe60bf3d75ef465d3e404,,,,,,,,,,,,,,,,,,,,,,,,,,,,,,,,,,,,,,,,,,,,,,,,,,,,,,,,,,,,,,,,,,,,,,,,,,,,,,,,,,,,,,,,,,,,,,,,,,,,,,,,,,,,,,,,,,,,,,,,,,,,,,,,,,,,,,,,,,,,,,,,,,,,,,,,,,,,,,
0,53,53,4,1,,61535f0be88cfbeb7bc0bf04,62bbfaf81c4ea81659aad419,2022-06-29_09h11.35.247,Colour_Asymmetry_Pilot,2022.1.3,Win32,60.02040694,62bbe60bf3d75ef465d3e404,,,,,,,,,,,,,,,,,,,,,,,,,,,,,,,,,,,,,,,,,,,,,,,,,,,,,,,,,,,,,,,,,,,,,,,,,,,,,,,,,,,,,,,,,,,,,,,,,,,,,,,,,,,,,,,,,,,,,,,,,,,,,,,,,,,,,,,,,,,,,,,,,,,,,,,,,,,,,,
0,54,54,49,1,,61535f0be88cfbeb7bc0bf04,62bbfaf81c4ea81659aad419,2022-06-29_09h11.35.247,Colour_Asymmetry_Pilot,2022.1.3,Win32,60.02040694,62bbe60bf3d75ef465d3e404,,,,,,,,,,,,,,,,,,,,,,,,,,,,,,,,,,,,,,,,,,,,,,,,,,,,,,,,,,,,,,,,,,,,,,,,,,,,,,,,,,,,,,,,,,,,,,,,,,,,,,,,,,,,,,,,,,,,,,,,,,,,,,,,,,,,,,,,,,,,,,,,,,,,,,,,,,,,,,
0,55,55,76,1,,61535f0be88cfbeb7bc0bf04,62bbfaf81c4ea81659aad419,2022-06-29_09h11.35.247,Colour_Asymmetry_Pilot,2022.1.3,Win32,60.02040694,62bbe60bf3d75ef465d3e404,,,,,,,,,,,,,,,,,,,,,,,,,,,,,,,,,,,,,,,,,,,,,,,,,,,,,,,,,,,,,,,,,,,,,,,,,,,,,,,,,,,,,,,,,,,,,,,,,,,,,,,,,,,,,,,,,,,,,,,,,,,,,,,,,,,,,,,,,,,,,,,,,,,,,,,,,,,,,,
0,56,56,47,1,,61535f0be88cfbeb7bc0bf04,62bbfaf81c4ea81659aad419,2022-06-29_09h11.35.247,Colour_Asymmetry_Pilot,2022.1.3,Win32,60.02040694,62bbe60bf3d75ef465d3e404,,,,,,,,,,,,,,,,,,,,,,,,,,,,,,,,,,,,,,,,,,,,,,,,,,,,,,,,,,,,,,,,,,,,,,,,,,,,,,,,,,,,,,,,,,,,,,,,,,,,,,,,,,,,,,,,,,,,,,,,,,,,,,,,,,,,,,,,,,,,,,,,,,,,,,,,,,,,,,
0,57,57,39,1,,61535f0be88cfbeb7bc0bf04,62bbfaf81c4ea81659aad419,2022-06-29_09h11.35.247,Colour_Asymmetry_Pilot,2022.1.3,Win32,60.02040694,62bbe60bf3d75ef465d3e404,,,,,,,,,,,,,,,,,,,,,,,,,,,,,,,,,,,,,,,,,,,,,,,,,,,,,,,,,,,,,,,,,,,,,,,,,,,,,,,,,,,,,,,,,,,,,,,,,,,,,,,,,,,,,,,,,,,,,,,,,,,,,,,,,,,,,,,,,,,,,,,,,,,,,,,,,,,,,,
0,58,58,72,1,,61535f0be88cfbeb7bc0bf04,62bbfaf81c4ea81659aad419,2022-06-29_09h11.35.247,Colour_Asymmetry_Pilot,2022.1.3,Win32,60.02040694,62bbe60bf3d75ef465d3e404,,,,,,,,,,,,,,,,,,,,,,,,,,,,,,,,,,,,,,,,,,,,,,,,,,,,,,,,,,,,,,,,,,,,,,,,,,,,,,,,,,,,,,,,,,,,,,,,,,,,,,,,,,,,,,,,,,,,,,,,,,,,,,,,,,,,,,,,,,,,,,,,,,,,,,,,,,,,,,
0,59,59,17,1,,61535f0be88cfbeb7bc0bf04,62bbfaf81c4ea81659aad419,2022-06-29_09h11.35.247,Colour_Asymmetry_Pilot,2022.1.3,Win32,60.02040694,62bbe60bf3d75ef465d3e404,,,,,,,,,,,,,,,,,,,,,,,,,,,,,,,,,,,,,,,,,,,,,,,,,,,,,,,,,,,,,,,,,,,,,,,,,,,,,,,,,,,,,,,,,,,,,,,,,,,,,,,,,,,,,,,,,,,,,,,,,,,,,,,,,,,,,,,,,,,,,,,,,,,,,,,,,,,,,,
0,60,60,90,1,,61535f0be88cfbeb7bc0bf04,62bbfaf81c4ea81659aad419,2022-06-29_09h11.35.247,Colour_Asymmetry_Pilot,2022.1.3,Win32,60.02040694,62bbe60bf3d75ef465d3e404,,,,,,,,,,,,,,,,,,,,,,,,,,,,,,,,,,,,,,,,,,,,,,,,,,,,,,,,,,,,,,,,,,,,,,,,,,,,,,,,,,,,,,,,,,,,,,,,,,,,,,,,,,,,,,,,,,,,,,,,,,,,,,,,,,,,,,,,,,,,,,,,,,,,,,,,,,,,,,
0,61,61,73,1,,61535f0be88cfbeb7bc0bf04,62bbfaf81c4ea81659aad419,2022-06-29_09h11.35.247,Colour_Asymmetry_Pilot,2022.1.3,Win32,60.02040694,62bbe60bf3d75ef465d3e404,,,,,,,,,,,,,,,,,,,,,,,,,,,,,,,,,,,,,,,,,,,,,,,,,,,,,,,,,,,,,,,,,,,,,,,,,,,,,,,,,,,,,,,,,,,,,,,,,,,,,,,,,,,,,,,,,,,,,,,,,,,,,,,,,,,,,,,,,,,,,,,,,,,,,,,,,,,,,,
0,62,62,28,1,,61535f0be88cfbeb7bc0bf04,62bbfaf81c4ea81659aad419,2022-06-29_09h11.35.247,Colour_Asymmetry_Pilot,2022.1.3,Win32,60.02040694,62bbe60bf3d75ef465d3e404,,,,,,,,,,,,,,,,,,,,,,,,,,,,,,,,,,,,,,,,,,,,,,,,,,,,,,,,,,,,,,,,,,,,,,,,,,,,,,,,,,,,,,,,,,,,,,,,,,,,,,,,,,,,,,,,,,,,,,,,,,,,,,,,,,,,,,,,,,,,,,,,,,,,,,,,,,,,,,
0,63,63,5,1,,61535f0be88cfbeb7bc0bf04,62bbfaf81c4ea81659aad419,2022-06-29_09h11.35.247,Colour_Asymmetry_Pilot,2022.1.3,Win32,60.02040694,62bbe60bf3d75ef465d3e404,,,,,,,,,,,,,,,,,,,,,,,,,,,,,,,,,,,,,,,,,,,,,,,,,,,,,,,,,,,,,,,,,,,,,,,,,,,,,,,,,,,,,,,,,,,,,,,,,,,,,,,,,,,,,,,,,,,,,,,,,,,,,,,,,,,,,,,,,,,,,,,,,,,,,,,,,,,,,,
0,64,64,34,1,,61535f0be88cfbeb7bc0bf04,62bbfaf81c4ea81659aad419,2022-06-29_09h11.35.247,Colour_Asymmetry_Pilot,2022.1.3,Win32,60.02040694,62bbe60bf3d75ef465d3e404,,,,,,,,,,,,,,,,,,,,,,,,,,,,,,,,,,,,,,,,,,,,,,,,,,,,,,,,,,,,,,,,,,,,,,,,,,,,,,,,,,,,,,,,,,,,,,,,,,,,,,,,,,,,,,,,,,,,,,,,,,,,,,,,,,,,,,,,,,,,,,,,,,,,,,,,,,,,,,
0,65,65,27,1,,61535f0be88cfbeb7bc0bf04,62bbfaf81c4ea81659aad419,2022-06-29_09h11.35.247,Colour_Asymmetry_Pilot,2022.1.3,Win32,60.02040694,62bbe60bf3d75ef465d3e404,,,,,,,,,,,,,,,,,,,,,,,,,,,,,,,,,,,,,,,,,,,,,,,,,,,,,,,,,,,,,,,,,,,,,,,,,,,,,,,,,,,,,,,,,,,,,,,,,,,,,,,,,,,,,,,,,,,,,,,,,,,,,,,,,,,,,,,,,,,,,,,,,,,,,,,,,,,,,,
0,66,66,91,1,,61535f0be88cfbeb7bc0bf04,62bbfaf81c4ea81659aad419,2022-06-29_09h11.35.247,Colour_Asymmetry_Pilot,2022.1.3,Win32,60.02040694,62bbe60bf3d75ef465d3e404,,,,,,,,,,,,,,,,,,,,,,,,,,,,,,,,,,,,,,,,,,,,,,,,,,,,,,,,,,,,,,,,,,,,,,,,,,,,,,,,,,,,,,,,,,,,,,,,,,,,,,,,,,,,,,,,,,,,,,,,,,,,,,,,,,,,,,,,,,,,,,,,,,,,,,,,,,,,,,
0,67,67,30,1,,61535f0be88cfbeb7bc0bf04,62bbfaf81c4ea81659aad419,2022-06-29_09h11.35.247,Colour_Asymmetry_Pilot,2022.1.3,Win32,60.02040694,62bbe60bf3d75ef465d3e404,,,,,,,,,,,,,,,,,,,,,,,,,,,,,,,,,,,,,,,,,,,,,,,,,,,,,,,,,,,,,,,,,,,,,,,,,,,,,,,,,,,,,,,,,,,,,,,,,,,,,,,,,,,,,,,,,,,,,,,,,,,,,,,,,,,,,,,,,,,,,,,,,,,,,,,,,,,,,,
0,68,68,52,1,,61535f0be88cfbeb7bc0bf04,62bbfaf81c4ea81659aad419,2022-06-29_09h11.35.247,Colour_Asymmetry_Pilot,2022.1.3,Win32,60.02040694,62bbe60bf3d75ef465d3e404,,,,,,,,,,,,,,,,,,,,,,,,,,,,,,,,,,,,,,,,,,,,,,,,,,,,,,,,,,,,,,,,,,,,,,,,,,,,,,,,,,,,,,,,,,,,,,,,,,,,,,,,,,,,,,,,,,,,,,,,,,,,,,,,,,,,,,,,,,,,,,,,,,,,,,,,,,,,,,
0,69,69,89,1,,61535f0be88cfbeb7bc0bf04,62bbfaf81c4ea81659aad419,2022-06-29_09h11.35.247,Colour_Asymmetry_Pilot,2022.1.3,Win32,60.02040694,62bbe60bf3d75ef465d3e404,,,,,,,,,,,,,,,,,,,,,,,,,,,,,,,,,,,,,,,,,,,,,,,,,,,,,,,,,,,,,,,,,,,,,,,,,,,,,,,,,,,,,,,,,,,,,,,,,,,,,,,,,,,,,,,,,,,,,,,,,,,,,,,,,,,,,,,,,,,,,,,,,,,,,,,,,,,,,,
0,70,70,11,1,,61535f0be88cfbeb7bc0bf04,62bbfaf81c4ea81659aad419,2022-06-29_09h11.35.247,Colour_Asymmetry_Pilot,2022.1.3,Win32,60.02040694,62bbe60bf3d75ef465d3e404,,,,,,,,,,,,,,,,,,,,,,,,,,,,,,,,,,,,,,,,,,,,,,,,,,,,,,,,,,,,,,,,,,,,,,,,,,,,,,,,,,,,,,,,,,,,,,,,,,,,,,,,,,,,,,,,,,,,,,,,,,,,,,,,,,,,,,,,,,,,,,,,,,,,,,,,,,,,,,
0,71,71,9,1,,61535f0be88cfbeb7bc0bf04,62bbfaf81c4ea81659aad419,2022-06-29_09h11.35.247,Colour_Asymmetry_Pilot,2022.1.3,Win32,60.02040694,62bbe60bf3d75ef465d3e404,,,,,,,,,,,,,,,,,,,,,,,,,,,,,,,,,,,,,,,,,,,,,,,,,,,,,,,,,,,,,,,,,,,,,,,,,,,,,,,,,,,,,,,,,,,,,,,,,,,,,,,,,,,,,,,,,,,,,,,,,,,,,,,,,,,,,,,,,,,,,,,,,,,,,,,,,,,,,,
0,72,72,44,1,,61535f0be88cfbeb7bc0bf04,62bbfaf81c4ea81659aad419,2022-06-29_09h11.35.247,Colour_Asymmetry_Pilot,2022.1.3,Win32,60.02040694,62bbe60bf3d75ef465d3e404,,,,,,,,,,,,,,,,,,,,,,,,,,,,,,,,,,,,,,,,,,,,,,,,,,,,,,,,,,,,,,,,,,,,,,,,,,,,,,,,,,,,,,,,,,,,,,,,,,,,,,,,,,,,,,,,,,,,,,,,,,,,,,,,,,,,,,,,,,,,,,,,,,,,,,,,,,,,,,
0,73,73,84,1,,61535f0be88cfbeb7bc0bf04,62bbfaf81c4ea81659aad419,2022-06-29_09h11.35.247,Colour_Asymmetry_Pilot,2022.1.3,Win32,60.02040694,62bbe60bf3d75ef465d3e404,,,,,,,,,,,,,,,,,,,,,,,,,,,,,,,,,,,,,,,,,,,,,,,,,,,,,,,,,,,,,,,,,,,,,,,,,,,,,,,,,,,,,,,,,,,,,,,,,,,,,,,,,,,,,,,,,,,,,,,,,,,,,,,,,,,,,,,,,,,,,,,,,,,,,,,,,,,,,,
0,74,74,16,1,,61535f0be88cfbeb7bc0bf04,62bbfaf81c4ea81659aad419,2022-06-29_09h11.35.247,Colour_Asymmetry_Pilot,2022.1.3,Win32,60.02040694,62bbe60bf3d75ef465d3e404,,,,,,,,,,,,,,,,,,,,,,,,,,,,,,,,,,,,,,,,,,,,,,,,,,,,,,,,,,,,,,,,,,,,,,,,,,,,,,,,,,,,,,,,,,,,,,,,,,,,,,,,,,,,,,,,,,,,,,,,,,,,,,,,,,,,,,,,,,,,,,,,,,,,,,,,,,,,,,
0,75,75,3,1,,61535f0be88cfbeb7bc0bf04,62bbfaf81c4ea81659aad419,2022-06-29_09h11.35.247,Colour_Asymmetry_Pilot,2022.1.3,Win32,60.02040694,62bbe60bf3d75ef465d3e404,,,,,,,,,,,,,,,,,,,,,,,,,,,,,,,,,,,,,,,,,,,,,,,,,,,,,,,,,,,,,,,,,,,,,,,,,,,,,,,,,,,,,,,,,,,,,,,,,,,,,,,,,,,,,,,,,,,,,,,,,,,,,,,,,,,,,,,,,,,,,,,,,,,,,,,,,,,,,,
0,76,76,7,1,,61535f0be88cfbeb7bc0bf04,62bbfaf81c4ea81659aad419,2022-06-29_09h11.35.247,Colour_Asymmetry_Pilot,2022.1.3,Win32,60.02040694,62bbe60bf3d75ef465d3e404,,,,,,,,,,,,,,,,,,,,,,,,,,,,,,,,,,,,,,,,,,,,,,,,,,,,,,,,,,,,,,,,,,,,,,,,,,,,,,,,,,,,,,,,,,,,,,,,,,,,,,,,,,,,,,,,,,,,,,,,,,,,,,,,,,,,,,,,,,,,,,,,,,,,,,,,,,,,,,
0,77,77,61,1,,61535f0be88cfbeb7bc0bf04,62bbfaf81c4ea81659aad419,2022-06-29_09h11.35.247,Colour_Asymmetry_Pilot,2022.1.3,Win32,60.02040694,62bbe60bf3d75ef465d3e404,,,,,,,,,,,,,,,,,,,,,,,,,,,,,,,,,,,,,,,,,,,,,,,,,,,,,,,,,,,,,,,,,,,,,,,,,,,,,,,,,,,,,,,,,,,,,,,,,,,,,,,,,,,,,,,,,,,,,,,,,,,,,,,,,,,,,,,,,,,,,,,,,,,,,,,,,,,,,,
0,78,78,71,1,,61535f0be88cfbeb7bc0bf04,62bbfaf81c4ea81659aad419,2022-06-29_09h11.35.247,Colour_Asymmetry_Pilot,2022.1.3,Win32,60.02040694,62bbe60bf3d75ef465d3e404,,,,,,,,,,,,,,,,,,,,,,,,,,,,,,,,,,,,,,,,,,,,,,,,,,,,,,,,,,,,,,,,,,,,,,,,,,,,,,,,,,,,,,,,,,,,,,,,,,,,,,,,,,,,,,,,,,,,,,,,,,,,,,,,,,,,,,,,,,,,,,,,,,,,,,,,,,,,,,
0,79,79,22,1,,61535f0be88cfbeb7bc0bf04,62bbfaf81c4ea81659aad419,2022-06-29_09h11.35.247,Colour_Asymmetry_Pilot,2022.1.3,Win32,60.02040694,62bbe60bf3d75ef465d3e404,,,,,,,,,,,,,,,,,,,,,,,,,,,,,,,,,,,,,,,,,,,,,,,,,,,,,,,,,,,,,,,,,,,,,,,,,,,,,,,,,,,,,,,,,,,,,,,,,,,,,,,,,,,,,,,,,,,,,,,,,,,,,,,,,,,,,,,,,,,,,,,,,,,,,,,,,,,,,,
0,80,80,2,1,,61535f0be88cfbeb7bc0bf04,62bbfaf81c4ea81659aad419,2022-06-29_09h11.35.247,Colour_Asymmetry_Pilot,2022.1.3,Win32,60.02040694,62bbe60bf3d75ef465d3e404,,,,,,,,,,,,,,,,,,,,,,,,,,,,,,,,,,,,,,,,,,,,,,,,,,,,,,,,,,,,,,,,,,,,,,,,,,,,,,,,,,,,,,,,,,,,,,,,,,,,,,,,,,,,,,,,,,,,,,,,,,,,,,,,,,,,,,,,,,,,,,,,,,,,,,,,,,,,,,
0,81,81,74,1,,61535f0be88cfbeb7bc0bf04,62bbfaf81c4ea81659aad419,2022-06-29_09h11.35.247,Colour_Asymmetry_Pilot,2022.1.3,Win32,60.02040694,62bbe60bf3d75ef465d3e404,,,,,,,,,,,,,,,,,,,,,,,,,,,,,,,,,,,,,,,,,,,,,,,,,,,,,,,,,,,,,,,,,,,,,,,,,,,,,,,,,,,,,,,,,,,,,,,,,,,,,,,,,,,,,,,,,,,,,,,,,,,,,,,,,,,,,,,,,,,,,,,,,,,,,,,,,,,,,,
0,82,82,77,1,,61535f0be88cfbeb7bc0bf04,62bbfaf81c4ea81659aad419,2022-06-29_09h11.35.247,Colour_Asymmetry_Pilot,2022.1.3,Win32,60.02040694,62bbe60bf3d75ef465d3e404,,,,,,,,,,,,,,,,,,,,,,,,,,,,,,,,,,,,,,,,,,,,,,,,,,,,,,,,,,,,,,,,,,,,,,,,,,,,,,,,,,,,,,,,,,,,,,,,,,,,,,,,,,,,,,,,,,,,,,,,,,,,,,,,,,,,,,,,,,,,,,,,,,,,,,,,,,,,,,
0,83,83,62,1,,61535f0be88cfbeb7bc0bf04,62bbfaf81c4ea81659aad419,2022-06-29_09h11.35.247,Colour_Asymmetry_Pilot,2022.1.3,Win32,60.02040694,62bbe60bf3d75ef465d3e404,,,,,,,,,,,,,,,,,,,,,,,,,,,,,,,,,,,,,,,,,,,,,,,,,,,,,,,,,,,,,,,,,,,,,,,,,,,,,,,,,,,,,,,,,,,,,,,,,,,,,,,,,,,,,,,,,,,,,,,,,,,,,,,,,,,,,,,,,,,,,,,,,,,,,,,,,,,,,,
0,84,84,15,1,,61535f0be88cfbeb7bc0bf04,62bbfaf81c4ea81659aad419,2022-06-29_09h11.35.247,Colour_Asymmetry_Pilot,2022.1.3,Win32,60.02040694,62bbe60bf3d75ef465d3e404,,,,,,,,,,,,,,,,,,,,,,,,,,,,,,,,,,,,,,,,,,,,,,,,,,,,,,,,,,,,,,,,,,,,,,,,,,,,,,,,,,,,,,,,,,,,,,,,,,,,,,,,,,,,,,,,,,,,,,,,,,,,,,,,,,,,,,,,,,,,,,,,,,,,,,,,,,,,,,
0,85,85,21,1,,61535f0be88cfbeb7bc0bf04,62bbfaf81c4ea81659aad419,2022-06-29_09h11.35.247,Colour_Asymmetry_Pilot,2022.1.3,Win32,60.02040694,62bbe60bf3d75ef465d3e404,,,,,,,,,,,,,,,,,,,,,,,,,,,,,,,,,,,,,,,,,,,,,,,,,,,,,,,,,,,,,,,,,,,,,,,,,,,,,,,,,,,,,,,,,,,,,,,,,,,,,,,,,,,,,,,,,,,,,,,,,,,,,,,,,,,,,,,,,,,,,,,,,,,,,,,,,,,,,,
0,86,86,1,1,,61535f0be88cfbeb7bc0bf04,62bbfaf81c4ea81659aad419,2022-06-29_09h11.35.247,Colour_Asymmetry_Pilot,2022.1.3,Win32,60.02040694,62bbe60bf3d75ef465d3e404,,,,,,,,,,,,,,,,,,,,,,,,,,,,,,,,,,,,,,,,,,,,,,,,,,,,,,,,,,,,,,,,,,,,,,,,,,,,,,,,,,,,,,,,,,,,,,,,,,,,,,,,,,,,,,,,,,,,,,,,,,,,,,,,,,,,,,,,,,,,,,,,,,,,,,,,,,,,,,
0,87,87,88,1,,61535f0be88cfbeb7bc0bf04,62bbfaf81c4ea81659aad419,2022-06-29_09h11.35.247,Colour_Asymmetry_Pilot,2022.1.3,Win32,60.02040694,62bbe60bf3d75ef465d3e404,,,,,,,,,,,,,,,,,,,,,,,,,,,,,,,,,,,,,,,,,,,,,,,,,,,,,,,,,,,,,,,,,,,,,,,,,,,,,,,,,,,,,,,,,,,,,,,,,,,,,,,,,,,,,,,,,,,,,,,,,,,,,,,,,,,,,,,,,,,,,,,,,,,,,,,,,,,,,,
0,88,88,92,1,,61535f0be88cfbeb7bc0bf04,62bbfaf81c4ea81659aad419,2022-06-29_09h11.35.247,Colour_Asymmetry_Pilot,2022.1.3,Win32,60.02040694,62bbe60bf3d75ef465d3e404,,,,,,,,,,,,,,,,,,,,,,,,,,,,,,,,,,,,,,,,,,,,,,,,,,,,,,,,,,,,,,,,,,,,,,,,,,,,,,,,,,,,,,,,,,,,,,,,,,,,,,,,,,,,,,,,,,,,,,,,,,,,,,,,,,,,,,,,,,,,,,,,,,,,,,,,,,,,,,
0,89,89,82,1,,61535f0be88cfbeb7bc0bf04,62bbfaf81c4ea81659aad419,2022-06-29_09h11.35.247,Colour_Asymmetry_Pilot,2022.1.3,Win32,60.02040694,62bbe60bf3d75ef465d3e404,,,,,,,,,,,,,,,,,,,,,,,,,,,,,,,,,,,,,,,,,,,,,,,,,,,,,,,,,,,,,,,,,,,,,,,,,,,,,,,,,,,,,,,,,,,,,,,,,,,,,,,,,,,,,,,,,,,,,,,,,,,,,,,,,,,,,,,,,,,,,,,,,,,,,,,,,,,,,,
0,90,90,48,1,,61535f0be88cfbeb7bc0bf04,62bbfaf81c4ea81659aad419,2022-06-29_09h11.35.247,Colour_Asymmetry_Pilot,2022.1.3,Win32,60.02040694,62bbe60bf3d75ef465d3e404,,,,,,,,,,,,,,,,,,,,,,,,,,,,,,,,,,,,,,,,,,,,,,,,,,,,,,,,,,,,,,,,,,,,,,,,,,,,,,,,,,,,,,,,,,,,,,,,,,,,,,,,,,,,,,,,,,,,,,,,,,,,,,,,,,,,,,,,,,,,,,,,,,,,,,,,,,,,,,
0,91,91,23,1,,61535f0be88cfbeb7bc0bf04,62bbfaf81c4ea81659aad419,2022-06-29_09h11.35.247,Colour_Asymmetry_Pilot,2022.1.3,Win32,60.02040694,62bbe60bf3d75ef465d3e404,,,,,,,,,,,,,,,,,,,,,,,,,,,,,,,,,,,,,,,,,,,,,,,,,,,,,,,,,,,,,,,,,,,,,,,,,,,,,,,,,,,,,,,,,,,,,,,,,,,,,,,,,,,,,,,,,,,,,,,,,,,,,,,,,,,,,,,,,,,,,,,,,,,,,,,,,,,,,,
0,92,92,26,1,,61535f0be88cfbeb7bc0bf04,62bbfaf81c4ea81659aad419,2022-06-29_09h11.35.247,Colour_Asymmetry_Pilot,2022.1.3,Win32,60.02040694,62bbe60bf3d75ef465d3e404,,,,,,,,,,,,,,,,,,,,,,,,,,,,,,,,,,,,,,,,,,,,,,,,,,,,,,,,,,,,,,,,,,,,,,,,,,,,,,,,,,,,,,,,,,,,,,,,,,,,,,,,,,,,,,,,,,,,,,,,,,,,,,,,,,,,,,,,,,,,,,,,,,,,,,,,,,,,,,
,,,,,,61535f0be88cfbeb7bc0bf04,62bbfaf81c4ea81659aad419,2022-06-29_09h11.35.247,Colour_Asymmetry_Pilot,2022.1.3,Win32,60.02040694,62bbe60bf3d75ef465d3e404,0,0,0,29,1,threefour,,,,,,,,,,,,,,,,,,,,,,,,,,,,,,,,,,,,,,,,,,,,,,,,,,,,,,,,,,,,,,,,,,,,,,,,,,,,,,,,,,,,,,,,,,,,,,,,,,,,,,,,,,,,,,,,,,,,,,,,,,,,,,,,,,,,,,,,,,,,,,,,,,,,,,,,
,,,,,,61535f0be88cfbeb7bc0bf04,62bbfaf81c4ea81659aad419,2022-06-29_09h11.35.247,Colour_Asymmetry_Pilot,2022.1.3,Win32,60.02040694,62bbe60bf3d75ef465d3e404,0,1,1,18,1,twoone,,,,,,,,,,,,,,,,,,,,,,,,,,,,,,,,,,,,,,,,,,,,,,,,,,,,,,,,,,,,,,,,,,,,,,,,,,,,,,,,,,,,,,,,,,,,,,,,,,,,,,,,,,,,,,,,,,,,,,,,,,,,,,,,,,,,,,,,,,,,,,,,,,,,,,,,
,,,,,,61535f0be88cfbeb7bc0bf04,62bbfaf81c4ea81659aad419,2022-06-29_09h11.35.247,Colour_Asymmetry_Pilot,2022.1.3,Win32,60.02040694,62bbe60bf3d75ef465d3e404,0,2,2,81,1,onethree,,,,,,,,,,,,,,,,,,,,,,,,,,,,,,,,,,,,,,,,,,,,,,,,,,,,,,,,,,,,,,,,,,,,,,,,,,,,,,,,,,,,,,,,,,,,,,,,,,,,,,,,,,,,,,,,,,,,,,,,,,,,,,,,,,,,,,,,,,,,,,,,,,,,,,,,
,,,,,,61535f0be88cfbeb7bc0bf04,62bbfaf81c4ea81659aad419,2022-06-29_09h11.35.247,Colour_Asymmetry_Pilot,2022.1.3,Win32,60.02040694,62bbe60bf3d75ef465d3e404,0,3,3,145,1,onethree,,,,,,,,,,,,,,,,,,,,,,,,,,,,,,,,,,,,,,,,,,,,,,,,,,,,,,,,,,,,,,,,,,,,,,,,,,,,,,,,,,,,,,,,,,,,,,,,,,,,,,,,,,,,,,,,,,,,,,,,,,,,,,,,,,,,,,,,,,,,,,,,,,,,,,,,
,,,,,,61535f0be88cfbeb7bc0bf04,62bbfaf81c4ea81659aad419,2022-06-29_09h11.35.247,Colour_Asymmetry_Pilot,2022.1.3,Win32,60.02040694,62bbe60bf3d75ef465d3e404,0,4,4,97,1,onethree,,,,,,,,,,,,,,,,,,,,,,,,,,,,,,,,,,,,,,,,,,,,,,,,,,,,,,,,,,,,,,,,,,,,,,,,,,,,,,,,,,,,,,,,,,,,,,,,,,,,,,,,,,,,,,,,,,,,,,,,,,,,,,,,,,,,,,,,,,,,,,,,,,,,,,,,
,,,,,,61535f0be88cfbeb7bc0bf04,62bbfaf81c4ea81659aad419,2022-06-29_09h11.35.247,Colour_Asymmetry_Pilot,2022.1.3,Win32,60.02040694,62bbe60bf3d75ef465d3e404,0,5,5,72,1,onetwo,,,,,,,,,,,,,,,,,,,,,,,,,,,,,,,,,,,,,,,,,,,,,,,,,,,,,,,,,,,,,,,,,,,,,,,,,,,,,,,,,,,,,,,,,,,,,,,,,,,,,,,,,,,,,,,,,,,,,,,,,,,,,,,,,,,,,,,,,,,,,,,,,,,,,,,,
,,,,,,61535f0be88cfbeb7bc0bf04,62bbfaf81c4ea81659aad419,2022-06-29_09h11.35.247,Colour_Asymmetry_Pilot,2022.1.3,Win32,60.02040694,62bbe60bf3d75ef465d3e404,0,6,6,60,1,threeone,,,,,,,,,,,,,,,,,,,,,,,,,,,,,,,,,,,,,,,,,,,,,,,,,,,,,,,,,,,,,,,,,,,,,,,,,,,,,,,,,,,,,,,,,,,,,,,,,,,,,,,,,,,,,,,,,,,,,,,,,,,,,,,,,,,,,,,,,,,,,,,,,,,,,,,,
,,,,,,61535f0be88cfbeb7bc0bf04,62bbfaf81c4ea81659aad419,2022-06-29_09h11.35.247,Colour_Asymmetry_Pilot,2022.1.3,Win32,60.02040694,62bbe60bf3d75ef465d3e404,0,7,7,24,1,onetwo,,,,,,,,,,,,,,,,,,,,,,,,,,,,,,,,,,,,,,,,,,,,,,,,,,,,,,,,,,,,,,,,,,,,,,,,,,,,,,,,,,,,,,,,,,,,,,,,,,,,,,,,,,,,,,,,,,,,,,,,,,,,,,,,,,,,,,,,,,,,,,,,,,,,,,,,
,,,,,,61535f0be88cfbeb7bc0bf04,62bbfaf81c4ea81659aad419,2022-06-29_09h11.35.247,Colour_Asymmetry_Pilot,2022.1.3,Win32,60.02040694,62bbe60bf3d75ef465d3e404,0,8,8,124,1,threeone,,,,,,,,,,,,,,,,,,,,,,,,,,,,,,,,,,,,,,,,,,,,,,,,,,,,,,,,,,,,,,,,,,,,,,,,,,,,,,,,,,,,,,,,,,,,,,,,,,,,,,,,,,,,,,,,,,,,,,,,,,,,,,,,,,,,,,,,,,,,,,,,,,,,,,,,
,,,,,,61535f0be88cfbeb7bc0bf04,62bbfaf81c4ea81659aad419,2022-06-29_09h11.35.247,Colour_Asymmetry_Pilot,2022.1.3,Win32,60.02040694,62bbe60bf3d75ef465d3e404,0,9,9,114,1,twoone,,,,,,,,,,,,,,,,,,,,,,,,,,,,,,,,,,,,,,,,,,,,,,,,,,,,,,,,,,,,,,,,,,,,,,,,,,,,,,,,,,,,,,,,,,,,,,,,,,,,,,,,,,,,,,,,,,,,,,,,,,,,,,,,,,,,,,,,,,,,,,,,,,,,,,,,
,,,,,,61535f0be88cfbeb7bc0bf04,62bbfaf81c4ea81659aad419,2022-06-29_09h11.35.247,Colour_Asymmetry_Pilot,2022.1.3,Win32,60.02040694,62bbe60bf3d75ef465d3e404,0,10,10,4,1,threeone,,,,,,,,,,,,,,,,,,,,,,,,,,,,,,,,,,,,,,,,,,,,,,,,,,,,,,,,,,,,,,,,,,,,,,,,,,,,,,,,,,,,,,,,,,,,,,,,,,,,,,,,,,,,,,,,,,,,,,,,,,,,,,,,,,,,,,,,,,,,,,,,,,,,,,,,
,,,,,,61535f0be88cfbeb7bc0bf04,62bbfaf81c4ea81659aad419,2022-06-29_09h11.35.247,Colour_Asymmetry_Pilot,2022.1.3,Win32,60.02040694,62bbe60bf3d75ef465d3e404,0,11,11,38,1,fourtwo,,,,,,,,,,,,,,,,,,,,,,,,,,,,,,,,,,,,,,,,,,,,,,,,,,,,,,,,,,,,,,,,,,,,,,,,,,,,,,,,,,,,,,,,,,,,,,,,,,,,,,,,,,,,,,,,,,,,,,,,,,,,,,,,,,,,,,,,,,,,,,,,,,,,,,,,
,,,,,,61535f0be88cfbeb7bc0bf04,62bbfaf81c4ea81659aad419,2022-06-29_09h11.35.247,Colour_Asymmetry_Pilot,2022.1.3,Win32,60.02040694,62bbe60bf3d75ef465d3e404,0,12,12,138,1,twoone,,,,,,,,,,,,,,,,,,,,,,,,,,,,,,,,,,,,,,,,,,,,,,,,,,,,,,,,,,,,,,,,,,,,,,,,,,,,,,,,,,,,,,,,,,,,,,,,,,,,,,,,,,,,,,,,,,,,,,,,,,,,,,,,,,,,,,,,,,,,,,,,,,,,,,,,
,,,,,,61535f0be88cfbeb7bc0bf04,62bbfaf81c4ea81659aad419,2022-06-29_09h11.35.247,Colour_Asymmetry_Pilot,2022.1.3,Win32,60.02040694,62bbe60bf3d75ef465d3e404,0,13,13,16,1,onetwo,,,,,,,,,,,,,,,,,,,,,,,,,,,,,,,,,,,,,,,,,,,,,,,,,,,,,,,,,,,,,,,,,,,,,,,,,,,,,,,,,,,,,,,,,,,,,,,,,,,,,,,,,,,,,,,,,,,,,,,,,,,,,,,,,,,,,,,,,,,,,,,,,,,,,,,,
,,,,,,61535f0be88cfbeb7bc0bf04,62bbfaf81c4ea81659aad419,2022-06-29_09h11.35.247,Colour_Asymmetry_Pilot,2022.1.3,Win32,60.02040694,62bbe60bf3d75ef465d3e404,0,14,14,108,1,threeone,,,,,,,,,,,,,,,,,,,,,,,,,,,,,,,,,,,,,,,,,,,,,,,,,,,,,,,,,,,,,,,,,,,,,,,,,,,,,,,,,,,,,,,,,,,,,,,,,,,,,,,,,,,,,,,,,,,,,,,,,,,,,,,,,,,,,,,,,,,,,,,,,,,,,,,,
,,,,,,61535f0be88cfbeb7bc0bf04,62bbfaf81c4ea81659aad419,2022-06-29_09h11.35.247,Colour_Asymmetry_Pilot,2022.1.3,Win32,60.02040694,62bbe60bf3d75ef465d3e404,0,15,15,157,1,threefour,,,,,,,,,,,,,,,,,,,,,,,,,,,,,,,,,,,,,,,,,,,,,,,,,,,,,,,,,,,,,,,,,,,,,,,,,,,,,,,,,,,,,,,,,,,,,,,,,,,,,,,,,,,,,,,,,,,,,,,,,,,,,,,,,,,,,,,,,,,,,,,,,,,,,,,,
,,,,,,61535f0be88cfbeb7bc0bf04,62bbfaf81c4ea81659aad419,2022-06-29_09h11.35.247,Colour_Asymmetry_Pilot,2022.1.3,Win32,60.02040694,62bbe60bf3d75ef465d3e404,0,16,16,91,1,twofour,,,,,,,,,,,,,,,,,,,,,,,,,,,,,,,,,,,,,,,,,,,,,,,,,,,,,,,,,,,,,,,,,,,,,,,,,,,,,,,,,,,,,,,,,,,,,,,,,,,,,,,,,,,,,,,,,,,,,,,,,,,,,,,,,,,,,,,,,,,,,,,,,,,,,,,,
,,,,,,61535f0be88cfbeb7bc0bf04,62bbfaf81c4ea81659aad419,2022-06-29_09h11.35.247,Colour_Asymmetry_Pilot,2022.1.3,Win32,60.02040694,62bbe60bf3d75ef465d3e404,0,17,17,49,1,onethree,,,,,,,,,,,,,,,,,,,,,,,,,,,,,,,,,,,,,,,,,,,,,,,,,,,,,,,,,,,,,,,,,,,,,,,,,,,,,,,,,,,,,,,,,,,,,,,,,,,,,,,,,,,,,,,,,,,,,,,,,,,,,,,,,,,,,,,,,,,,,,,,,,,,,,,,
,,,,,,61535f0be88cfbeb7bc0bf04,62bbfaf81c4ea81659aad419,2022-06-29_09h11.35.247,Colour_Asymmetry_Pilot,2022.1.3,Win32,60.02040694,62bbe60bf3d75ef465d3e404,0,18,18,103,1,fourthree,,,,,,,,,,,,,,,,,,,,,,,,,,,,,,,,,,,,,,,,,,,,,,,,,,,,,,,,,,,,,,,,,,,,,,,,,,,,,,,,,,,,,,,,,,,,,,,,,,,,,,,,,,,,,,,,,,,,,,,,,,,,,,,,,,,,,,,,,,,,,,,,,,,,,,,,
,,,,,,61535f0be88cfbeb7bc0bf04,62bbfaf81c4ea81659aad419,2022-06-29_09h11.35.247,Colour_Asymmetry_Pilot,2022.1.3,Win32,60.02040694,62bbe60bf3d75ef465d3e404,0,19,19,120,1,onetwo,,,,,,,,,,,,,,,,,,,,,,,,,,,,,,,,,,,,,,,,,,,,,,,,,,,,,,,,,,,,,,,,,,,,,,,,,,,,,,,,,,,,,,,,,,,,,,,,,,,,,,,,,,,,,,,,,,,,,,,,,,,,,,,,,,,,,,,,,,,,,,,,,,,,,,,,
,,,,,,61535f0be88cfbeb7bc0bf04,62bbfaf81c4ea81659aad419,2022-06-29_09h11.35.247,Colour_Asymmetry_Pilot,2022.1.3,Win32,60.02040694,62bbe60bf3d75ef465d3e404,0,20,20,28,1,threeone,,,,,,,,,,,,,,,,,,,,,,,,,,,,,,,,,,,,,,,,,,,,,,,,,,,,,,,,,,,,,,,,,,,,,,,,,,,,,,,,,,,,,,,,,,,,,,,,,,,,,,,,,,,,,,,,,,,,,,,,,,,,,,,,,,,,,,,,,,,,,,,,,,,,,,,,
,,,,,,61535f0be88cfbeb7bc0bf04,62bbfaf81c4ea81659aad419,2022-06-29_09h11.35.247,Colour_Asymmetry_Pilot,2022.1.3,Win32,60.02040694,62bbe60bf3d75ef465d3e404,0,21,21,130,1,twoone,,,,,,,,,,,,,,,,,,,,,,,,,,,,,,,,,,,,,,,,,,,,,,,,,,,,,,,,,,,,,,,,,,,,,,,,,,,,,,,,,,,,,,,,,,,,,,,,,,,,,,,,,,,,,,,,,,,,,,,,,,,,,,,,,,,,,,,,,,,,,,,,,,,,,,,,
,,,,,,61535f0be88cfbeb7bc0bf04,62bbfaf81c4ea81659aad419,2022-06-29_09h11.35.247,Colour_Asymmetry_Pilot,2022.1.3,Win32,60.02040694,62bbe60bf3d75ef465d3e404,0,22,22,21,1,threefour,,,,,,,,,,,,,,,,,,,,,,,,,,,,,,,,,,,,,,,,,,,,,,,,,,,,,,,,,,,,,,,,,,,,,,,,,,,,,,,,,,,,,,,,,,,,,,,,,,,,,,,,,,,,,,,,,,,,,,,,,,,,,,,,,,,,,,,,,,,,,,,,,,,,,,,,
,,,,,,61535f0be88cfbeb7bc0bf04,62bbfaf81c4ea81659aad419,2022-06-29_09h11.35.247,Colour_Asymmetry_Pilot,2022.1.3,Win32,60.02040694,62bbe60bf3d75ef465d3e404,0,23,23,50,1,twoone,,,,,,,,,,,,,,,,,,,,,,,,,,,,,,,,,,,,,,,,,,,,,,,,,,,,,,,,,,,,,,,,,,,,,,,,,,,,,,,,,,,,,,,,,,,,,,,,,,,,,,,,,,,,,,,,,,,,,,,,,,,,,,,,,,,,,,,,,,,,,,,,,,,,,,,,
,,,,,,61535f0be88cfbeb7bc0bf04,62bbfaf81c4ea81659aad419,2022-06-29_09h11.35.247,Colour_Asymmetry_Pilot,2022.1.3,Win32,60.02040694,62bbe60bf3d75ef465d3e404,0,24,24,158,1,fourtwo,,,,,,,,,,,,,,,,,,,,,,,,,,,,,,,,,,,,,,,,,,,,,,,,,,,,,,,,,,,,,,,,,,,,,,,,,,,,,,,,,,,,,,,,,,,,,,,,,,,,,,,,,,,,,,,,,,,,,,,,,,,,,,,,,,,,,,,,,,,,,,,,,,,,,,,,
,,,,,,61535f0be88cfbeb7bc0bf04,62bbfaf81c4ea81659aad419,2022-06-29_09h11.35.247,Colour_Asymmetry_Pilot,2022.1.3,Win32,60.02040694,62bbe60bf3d75ef465d3e404,0,25,25,98,1,twoone,,,,,,,,,,,,,,,,,,,,,,,,,,,,,,,,,,,,,,,,,,,,,,,,,,,,,,,,,,,,,,,,,,,,,,,,,,,,,,,,,,,,,,,,,,,,,,,,,,,,,,,,,,,,,,,,,,,,,,,,,,,,,,,,,,,,,,,,,,,,,,,,,,,,,,,,
,,,,,,61535f0be88cfbeb7bc0bf04,62bbfaf81c4ea81659aad419,2022-06-29_09h11.35.247,Colour_Asymmetry_Pilot,2022.1.3,Win32,60.02040694,62bbe60bf3d75ef465d3e404,0,26,26,109,1,threefour,,,,,,,,,,,,,,,,,,,,,,,,,,,,,,,,,,,,,,,,,,,,,,,,,,,,,,,,,,,,,,,,,,,,,,,,,,,,,,,,,,,,,,,,,,,,,,,,,,,,,,,,,,,,,,,,,,,,,,,,,,,,,,,,,,,,,,,,,,,,,,,,,,,,,,,,
,,,,,,61535f0be88cfbeb7bc0bf04,62bbfaf81c4ea81659aad419,2022-06-29_09h11.35.247,Colour_Asymmetry_Pilot,2022.1.3,Win32,60.02040694,62bbe60bf3d75ef465d3e404,0,27,27,132,1,threeone,,,,,,,,,,,,,,,,,,,,,,,,,,,,,,,,,,,,,,,,,,,,,,,,,,,,,,,,,,,,,,,,,,,,,,,,,,,,,,,,,,,,,,,,,,,,,,,,,,,,,,,,,,,,,,,,,,,,,,,,,,,,,,,,,,,,,,,,,,,,,,,,,,,,,,,,
,,,,,,61535f0be88cfbeb7bc0bf04,62bbfaf81c4ea81659aad419,2022-06-29_09h11.35.247,Colour_Asymmetry_Pilot,2022.1.3,Win32,60.02040694,62bbe60bf3d75ef465d3e404,0,28,28,27,1,twofour,,,,,,,,,,,,,,,,,,,,,,,,,,,,,,,,,,,,,,,,,,,,,,,,,,,,,,,,,,,,,,,,,,,,,,,,,,,,,,,,,,,,,,,,,,,,,,,,,,,,,,,,,,,,,,,,,,,,,,,,,,,,,,,,,,,,,,,,,,,,,,,,,,,,,,,,
,,,,,,61535f0be88cfbeb7bc0bf04,62bbfaf81c4ea81659aad419,2022-06-29_09h11.35.247,Colour_Asymmetry_Pilot,2022.1.3,Win32,60.02040694,62bbe60bf3d75ef465d3e404,0,29,29,63,1,fourthree,,,,,,,,,,,,,,,,,,,,,,,,,,,,,,,,,,,,,,,,,,,,,,,,,,,,,,,,,,,,,,,,,,,,,,,,,,,,,,,,,,,,,,,,,,,,,,,,,,,,,,,,,,,,,,,,,,,,,,,,,,,,,,,,,,,,,,,,,,,,,,,,,,,,,,,,
,,,,,,61535f0be88cfbeb7bc0bf04,62bbfaf81c4ea81659aad419,2022-06-29_09h11.35.247,Colour_Asymmetry_Pilot,2022.1.3,Win32,60.02040694,62bbe60bf3d75ef465d3e404,0,30,30,55,1,fourthree,,,,,,,,,,,,,,,,,,,,,,,,,,,,,,,,,,,,,,,,,,,,,,,,,,,,,,,,,,,,,,,,,,,,,,,,,,,,,,,,,,,,,,,,,,,,,,,,,,,,,,,,,,,,,,,,,,,,,,,,,,,,,,,,,,,,,,,,,,,,,,,,,,,,,,,,
,,,,,,61535f0be88cfbeb7bc0bf04,62bbfaf81c4ea81659aad419,2022-06-29_09h11.35.247,Colour_Asymmetry_Pilot,2022.1.3,Win32,60.02040694,62bbe60bf3d75ef465d3e404,0,31,31,144,1,onetwo,,,,,,,,,,,,,,,,,,,,,,,,,,,,,,,,,,,,,,,,,,,,,,,,,,,,,,,,,,,,,,,,,,,,,,,,,,,,,,,,,,,,,,,,,,,,,,,,,,,,,,,,,,,,,,,,,,,,,,,,,,,,,,,,,,,,,,,,,,,,,,,,,,,,,,,,
,,,,,,61535f0be88cfbeb7bc0bf04,62bbfaf81c4ea81659aad419,2022-06-29_09h11.35.247,Colour_Asymmetry_Pilot,2022.1.3,Win32,60.02040694,62bbe60bf3d75ef465d3e404,0,32,32,45,1,threefour,,,,,,,,,,,,,,,,,,,,,,,,,,,,,,,,,,,,,,,,,,,,,,,,,,,,,,,,,,,,,,,,,,,,,,,,,,,,,,,,,,,,,,,,,,,,,,,,,,,,,,,,,,,,,,,,,,,,,,,,,,,,,,,,,,,,,,,,,,,,,,,,,,,,,,,,
,,,,,,61535f0be88cfbeb7bc0bf04,62bbfaf81c4ea81659aad419,2022-06-29_09h11.35.247,Colour_Asymmetry_Pilot,2022.1.3,Win32,60.02040694,62bbe60bf3d75ef465d3e404,0,33,33,41,1,onethree,,,,,,,,,,,,,,,,,,,,,,,,,,,,,,,,,,,,,,,,,,,,,,,,,,,,,,,,,,,,,,,,,,,,,,,,,,,,,,,,,,,,,,,,,,,,,,,,,,,,,,,,,,,,,,,,,,,,,,,,,,,,,,,,,,,,,,,,,,,,,,,,,,,,,,,,
,,,,,,61535f0be88cfbeb7bc0bf04,62bbfaf81c4ea81659aad419,2022-06-29_09h11.35.247,Colour_Asymmetry_Pilot,2022.1.3,Win32,60.02040694,62bbe60bf3d75ef465d3e404,0,34,34,9,1,onethree,,,,,,,,,,,,,,,,,,,,,,,,,,,,,,,,,,,,,,,,,,,,,,,,,,,,,,,,,,,,,,,,,,,,,,,,,,,,,,,,,,,,,,,,,,,,,,,,,,,,,,,,,,,,,,,,,,,,,,,,,,,,,,,,,,,,,,,,,,,,,,,,,,,,,,,,
,,,,,,61535f0be88cfbeb7bc0bf04,62bbfaf81c4ea81659aad419,2022-06-29_09h11.35.247,Colour_Asymmetry_Pilot,2022.1.3,Win32,60.02040694,62bbe60bf3d75ef465d3e404,0,35,35,7,1,fourthree,,,,,,,,,,,,,,,,,,,,,,,,,,,,,,,,,,,,,,,,,,,,,,,,,,,,,,,,,,,,,,,,,,,,,,,,,,,,,,,,,,,,,,,,,,,,,,,,,,,,,,,,,,,,,,,,,,,,,,,,,,,,,,,,,,,,,,,,,,,,,,,,,,,,,,,,
,,,,,,61535f0be88cfbeb7bc0bf04,62bbfaf81c4ea81659aad419,2022-06-29_09h11.35.247,Colour_Asymmetry_Pilot,2022.1.3,Win32,60.02040694,62bbe60bf3d75ef465d3e404,0,36,36,104,1,onetwo,,,,,,,,,,,,,,,,,,,,,,,,,,,,,,,,,,,,,,,,,,,,,,,,,,,,,,,,,,,,,,,,,,,,,,,,,,,,,,,,,,,,,,,,,,,,,,,,,,,,,,,,,,,,,,,,,,,,,,,,,,,,,,,,,,,,,,,,,,,,,,,,,,,,,,,,
,,,,,,61535f0be88cfbeb7bc0bf04,62bbfaf81c4ea81659aad419,2022-06-29_09h11.35.247,Colour_Asymmetry_Pilot,2022.1.3,Win32,60.02040694,62bbe60bf3d75ef465d3e404,0,37,37,73,1,onethree,,,,,,,,,,,,,,,,,,,,,,,,,,,,,,,,,,,,,,,,,,,,,,,,,,,,,,,,,,,,,,,,,,,,,,,,,,,,,,,,,,,,,,,,,,,,,,,,,,,,,,,,,,,,,,,,,,,,,,,,,,,,,,,,,,,,,,,,,,,,,,,,,,,,,,,,
,,,,,,61535f0be88cfbeb7bc0bf04,62bbfaf81c4ea81659aad419,2022-06-29_09h11.35.247,Colour_Asymmetry_Pilot,2022.1.3,Win32,60.02040694,62bbe60bf3d75ef465d3e404,0,38,38,95,1,fourthree,,,,,,,,,,,,,,,,,,,,,,,,,,,,,,,,,,,,,,,,,,,,,,,,,,,,,,,,,,,,,,,,,,,,,,,,,,,,,,,,,,,,,,,,,,,,,,,,,,,,,,,,,,,,,,,,,,,,,,,,,,,,,,,,,,,,,,,,,,,,,,,,,,,,,,,,
,,,,,,61535f0be88cfbeb7bc0bf04,62bbfaf81c4ea81659aad419,2022-06-29_09h11.35.247,Colour_Asymmetry_Pilot,2022.1.3,Win32,60.02040694,62bbe60bf3d75ef465d3e404,0,39,39,65,1,onethree,,,,,,,,,,,,,,,,,,,,,,,,,,,,,,,,,,,,,,,,,,,,,,,,,,,,,,,,,,,,,,,,,,,,,,,,,,,,,,,,,,,,,,,,,,,,,,,,,,,,,,,,,,,,,,,,,,,,,,,,,,,,,,,,,,,,,,,,,,,,,,,,,,,,,,,,
,,,,,,61535f0be88cfbeb7bc0bf04,62bbfaf81c4ea81659aad419,2022-06-29_09h11.35.247,Colour_Asymmetry_Pilot,2022.1.3,Win32,60.02040694,62bbe60bf3d75ef465d3e404,0,40,40,22,1,fourtwo,,,,,,,,,,,,,,,,,,,,,,,,,,,,,,,,,,,,,,,,,,,,,,,,,,,,,,,,,,,,,,,,,,,,,,,,,,,,,,,,,,,,,,,,,,,,,,,,,,,,,,,,,,,,,,,,,,,,,,,,,,,,,,,,,,,,,,,,,,,,,,,,,,,,,,,,
,,,,,,61535f0be88cfbeb7bc0bf04,62bbfaf81c4ea81659aad419,2022-06-29_09h11.35.247,Colour_Asymmetry_Pilot,2022.1.3,Win32,60.02040694,62bbe60bf3d75ef465d3e404,0,41,41,56,1,onetwo,,,,,,,,,,,,,,,,,,,,,,,,,,,,,,,,,,,,,,,,,,,,,,,,,,,,,,,,,,,,,,,,,,,,,,,,,,,,,,,,,,,,,,,,,,,,,,,,,,,,,,,,,,,,,,,,,,,,,,,,,,,,,,,,,,,,,,,,,,,,,,,,,,,,,,,,
,,,,,,61535f0be88cfbeb7bc0bf04,62bbfaf81c4ea81659aad419,2022-06-29_09h11.35.247,Colour_Asymmetry_Pilot,2022.1.3,Win32,60.02040694,62bbe60bf3d75ef465d3e404,0,42,42,17,1,onethree,,,,,,,,,,,,,,,,,,,,,,,,,,,,,,,,,,,,,,,,,,,,,,,,,,,,,,,,,,,,,,,,,,,,,,,,,,,,,,,,,,,,,,,,,,,,,,,,,,,,,,,,,,,,,,,,,,,,,,,,,,,,,,,,,,,,,,,,,,,,,,,,,,,,,,,,
,,,,,,61535f0be88cfbeb7bc0bf04,62bbfaf81c4ea81659aad419,2022-06-29_09h11.35.247,Colour_Asymmetry_Pilot,2022.1.3,Win32,60.02040694,62bbe60bf3d75ef465d3e404,0,43,43,11,1,twofour,,,,,,,,,,,,,,,,,,,,,,,,,,,,,,,,,,,,,,,,,,,,,,,,,,,,,,,,,,,,,,,,,,,,,,,,,,,,,,,,,,,,,,,,,,,,,,,,,,,,,,,,,,,,,,,,,,,,,,,,,,,,,,,,,,,,,,,,,,,,,,,,,,,,,,,,
,,,,,,61535f0be88cfbeb7bc0bf04,62bbfaf81c4ea81659aad419,2022-06-29_09h11.35.247,Colour_Asymmetry_Pilot,2022.1.3,Win32,60.02040694,62bbe60bf3d75ef465d3e404,0,44,44,62,1,fourtwo,,,,,,,,,,,,,,,,,,,,,,,,,,,,,,,,,,,,,,,,,,,,,,,,,,,,,,,,,,,,,,,,,,,,,,,,,,,,,,,,,,,,,,,,,,,,,,,,,,,,,,,,,,,,,,,,,,,,,,,,,,,,,,,,,,,,,,,,,,,,,,,,,,,,,,,,
,,,,,,61535f0be88cfbeb7bc0bf04,62bbfaf81c4ea81659aad419,2022-06-29_09h11.35.247,Colour_Asymmetry_Pilot,2022.1.3,Win32,60.02040694,62bbe60bf3d75ef465d3e404,0,45,45,106,1,twoone,,,,,,,,,,,,,,,,,,,,,,,,,,,,,,,,,,,,,,,,,,,,,,,,,,,,,,,,,,,,,,,,,,,,,,,,,,,,,,,,,,,,,,,,,,,,,,,,,,,,,,,,,,,,,,,,,,,,,,,,,,,,,,,,,,,,,,,,,,,,,,,,,,,,,,,,
,,,,,,61535f0be88cfbeb7bc0bf04,62bbfaf81c4ea81659aad419,2022-06-29_09h11.35.247,Colour_Asymmetry_Pilot,2022.1.3,Win32,60.02040694,62bbe60bf3d75ef465d3e404,0,46,46,44,1,threeone,,,,,,,,,,,,,,,,,,,,,,,,,,,,,,,,,,,,,,,,,,,,,,,,,,,,,,,,,,,,,,,,,,,,,,,,,,,,,,,,,,,,,,,,,,,,,,,,,,,,,,,,,,,,,,,,,,,,,,,,,,,,,,,,,,,,,,,,,,,,,,,,,,,,,,,,
,,,,,,61535f0be88cfbeb7bc0bf04,62bbfaf81c4ea81659aad419,2022-06-29_09h11.35.247,Colour_Asymmetry_Pilot,2022.1.3,Win32,60.02040694,62bbe60bf3d75ef465d3e404,0,47,47,32,1,onetwo,,,,,,,,,,,,,,,,,,,,,,,,,,,,,,,,,,,,,,,,,,,,,,,,,,,,,,,,,,,,,,,,,,,,,,,,,,,,,,,,,,,,,,,,,,,,,,,,,,,,,,,,,,,,,,,,,,,,,,,,,,,,,,,,,,,,,,,,,,,,,,,,,,,,,,,,
,,,,,,61535f0be88cfbeb7bc0bf04,62bbfaf81c4ea81659aad419,2022-06-29_09h11.35.247,Colour_Asymmetry_Pilot,2022.1.3,Win32,60.02040694,62bbe60bf3d75ef465d3e404,0,48,48,139,1,twofour,,,,,,,,,,,,,,,,,,,,,,,,,,,,,,,,,,,,,,,,,,,,,,,,,,,,,,,,,,,,,,,,,,,,,,,,,,,,,,,,,,,,,,,,,,,,,,,,,,,,,,,,,,,,,,,,,,,,,,,,,,,,,,,,,,,,,,,,,,,,,,,,,,,,,,,,
,,,,,,61535f0be88cfbeb7bc0bf04,62bbfaf81c4ea81659aad419,2022-06-29_09h11.35.247,Colour_Asymmetry_Pilot,2022.1.3,Win32,60.02040694,62bbe60bf3d75ef465d3e404,0,49,49,142,1,fourtwo,,,,,,,,,,,,,,,,,,,,,,,,,,,,,,,,,,,,,,,,,,,,,,,,,,,,,,,,,,,,,,,,,,,,,,,,,,,,,,,,,,,,,,,,,,,,,,,,,,,,,,,,,,,,,,,,,,,,,,,,,,,,,,,,,,,,,,,,,,,,,,,,,,,,,,,,
,,,,,,61535f0be88cfbeb7bc0bf04,62bbfaf81c4ea81659aad419,2022-06-29_09h11.35.247,Colour_Asymmetry_Pilot,2022.1.3,Win32,60.02040694,62bbe60bf3d75ef465d3e404,0,50,50,64,1,onetwo,,,,,,,,,,,,,,,,,,,,,,,,,,,,,,,,,,,,,,,,,,,,,,,,,,,,,,,,,,,,,,,,,,,,,,,,,,,,,,,,,,,,,,,,,,,,,,,,,,,,,,,,,,,,,,,,,,,,,,,,,,,,,,,,,,,,,,,,,,,,,,,,,,,,,,,,
,,,,,,61535f0be88cfbeb7bc0bf04,62bbfaf81c4ea81659aad419,2022-06-29_09h11.35.247,Colour_Asymmetry_Pilot,2022.1.3,Win32,60.02040694,62bbe60bf3d75ef465d3e404,0,51,51,31,1,fourthree,,,,,,,,,,,,,,,,,,,,,,,,,,,,,,,,,,,,,,,,,,,,,,,,,,,,,,,,,,,,,,,,,,,,,,,,,,,,,,,,,,,,,,,,,,,,,,,,,,,,,,,,,,,,,,,,,,,,,,,,,,,,,,,,,,,,,,,,,,,,,,,,,,,,,,,,
,,,,,,61535f0be88cfbeb7bc0bf04,62bbfaf81c4ea81659aad419,2022-06-29_09h11.35.247,Colour_Asymmetry_Pilot,2022.1.3,Win32,60.02040694,62bbe60bf3d75ef465d3e404,0,52,52,122,1,twoone,,,,,,,,,,,,,,,,,,,,,,,,,,,,,,,,,,,,,,,,,,,,,,,,,,,,,,,,,,,,,,,,,,,,,,,,,,,,,,,,,,,,,,,,,,,,,,,,,,,,,,,,,,,,,,,,,,,,,,,,,,,,,,,,,,,,,,,,,,,,,,,,,,,,,,,,
,,,,,,61535f0be88cfbeb7bc0bf04,62bbfaf81c4ea81659aad419,2022-06-29_09h11.35.247,Colour_Asymmetry_Pilot,2022.1.3,Win32,60.02040694,62bbe60bf3d75ef465d3e404,0,53,53,19,1,twofour,,,,,,,,,,,,,,,,,,,,,,,,,,,,,,,,,,,,,,,,,,,,,,,,,,,,,,,,,,,,,,,,,,,,,,,,,,,,,,,,,,,,,,,,,,,,,,,,,,,,,,,,,,,,,,,,,,,,,,,,,,,,,,,,,,,,,,,,,,,,,,,,,,,,,,,,
,,,,,,61535f0be88cfbeb7bc0bf04,62bbfaf81c4ea81659aad419,2022-06-29_09h11.35.247,Colour_Asymmetry_Pilot,2022.1.3,Win32,60.02040694,62bbe60bf3d75ef465d3e404,0,54,54,135,1,fourthree,,,,,,,,,,,,,,,,,,,,,,,,,,,,,,,,,,,,,,,,,,,,,,,,,,,,,,,,,,,,,,,,,,,,,,,,,,,,,,,,,,,,,,,,,,,,,,,,,,,,,,,,,,,,,,,,,,,,,,,,,,,,,,,,,,,,,,,,,,,,,,,,,,,,,,,,
,,,,,,61535f0be88cfbeb7bc0bf04,62bbfaf81c4ea81659aad419,2022-06-29_09h11.35.247,Colour_Asymmetry_Pilot,2022.1.3,Win32,60.02040694,62bbe60bf3d75ef465d3e404,0,55,55,34,1,twoone,,,,,,,,,,,,,,,,,,,,,,,,,,,,,,,,,,,,,,,,,,,,,,,,,,,,,,,,,,,,,,,,,,,,,,,,,,,,,,,,,,,,,,,,,,,,,,,,,,,,,,,,,,,,,,,,,,,,,,,,,,,,,,,,,,,,,,,,,,,,,,,,,,,,,,,,
,,,,,,61535f0be88cfbeb7bc0bf04,62bbfaf81c4ea81659aad419,2022-06-29_09h11.35.247,Colour_Asymmetry_Pilot,2022.1.3,Win32,60.02040694,62bbe60bf3d75ef465d3e404,0,56,56,131,1,twofour,,,,,,,,,,,,,,,,,,,,,,,,,,,,,,,,,,,,,,,,,,,,,,,,,,,,,,,,,,,,,,,,,,,,,,,,,,,,,,,,,,,,,,,,,,,,,,,,,,,,,,,,,,,,,,,,,,,,,,,,,,,,,,,,,,,,,,,,,,,,,,,,,,,,,,,,
,,,,,,61535f0be88cfbeb7bc0bf04,62bbfaf81c4ea81659aad419,2022-06-29_09h11.35.247,Colour_Asymmetry_Pilot,2022.1.3,Win32,60.02040694,62bbe60bf3d75ef465d3e404,0,57,57,87,1,fourthree,,,,,,,,,,,,,,,,,,,,,,,,,,,,,,,,,,,,,,,,,,,,,,,,,,,,,,,,,,,,,,,,,,,,,,,,,,,,,,,,,,,,,,,,,,,,,,,,,,,,,,,,,,,,,,,,,,,,,,,,,,,,,,,,,,,,,,,,,,,,,,,,,,,,,,,,
,,,,,,61535f0be88cfbeb7bc0bf04,62bbfaf81c4ea81659aad419,2022-06-29_09h11.35.247,Colour_Asymmetry_Pilot,2022.1.3,Win32,60.02040694,62bbe60bf3d75ef465d3e404,0,58,58,152,1,onetwo,,,,,,,,,,,,,,,,,,,,,,,,,,,,,,,,,,,,,,,,,,,,,,,,,,,,,,,,,,,,,,,,,,,,,,,,,,,,,,,,,,,,,,,,,,,,,,,,,,,,,,,,,,,,,,,,,,,,,,,,,,,,,,,,,,,,,,,,,,,,,,,,,,,,,,,,
,,,,,,61535f0be88cfbeb7bc0bf04,62bbfaf81c4ea81659aad419,2022-06-29_09h11.35.247,Colour_Asymmetry_Pilot,2022.1.3,Win32,60.02040694,62bbe60bf3d75ef465d3e404,0,59,59,52,1,threeone,,,,,,,,,,,,,,,,,,,,,,,,,,,,,,,,,,,,,,,,,,,,,,,,,,,,,,,,,,,,,,,,,,,,,,,,,,,,,,,,,,,,,,,,,,,,,,,,,,,,,,,,,,,,,,,,,,,,,,,,,,,,,,,,,,,,,,,,,,,,,,,,,,,,,,,,
,,,,,,61535f0be88cfbeb7bc0bf04,62bbfaf81c4ea81659aad419,2022-06-29_09h11.35.247,Colour_Asymmetry_Pilot,2022.1.3,Win32,60.02040694,62bbe60bf3d75ef465d3e404,0,60,60,12,1,threeone,,,,,,,,,,,,,,,,,,,,,,,,,,,,,,,,,,,,,,,,,,,,,,,,,,,,,,,,,,,,,,,,,,,,,,,,,,,,,,,,,,,,,,,,,,,,,,,,,,,,,,,,,,,,,,,,,,,,,,,,,,,,,,,,,,,,,,,,,,,,,,,,,,,,,,,,
,,,,,,61535f0be88cfbeb7bc0bf04,62bbfaf81c4ea81659aad419,2022-06-29_09h11.35.247,Colour_Asymmetry_Pilot,2022.1.3,Win32,60.02040694,62bbe60bf3d75ef465d3e404,0,61,61,33,1,onethree,,,,,,,,,,,,,,,,,,,,,,,,,,,,,,,,,,,,,,,,,,,,,,,,,,,,,,,,,,,,,,,,,,,,,,,,,,,,,,,,,,,,,,,,,,,,,,,,,,,,,,,,,,,,,,,,,,,,,,,,,,,,,,,,,,,,,,,,,,,,,,,,,,,,,,,,
,,,,,,61535f0be88cfbeb7bc0bf04,62bbfaf81c4ea81659aad419,2022-06-29_09h11.35.247,Colour_Asymmetry_Pilot,2022.1.3,Win32,60.02040694,62bbe60bf3d75ef465d3e404,0,62,62,42,1,twoone,,,,,,,,,,,,,,,,,,,,,,,,,,,,,,,,,,,,,,,,,,,,,,,,,,,,,,,,,,,,,,,,,,,,,,,,,,,,,,,,,,,,,,,,,,,,,,,,,,,,,,,,,,,,,,,,,,,,,,,,,,,,,,,,,,,,,,,,,,,,,,,,,,,,,,,,
,,,,,,61535f0be88cfbeb7bc0bf04,62bbfaf81c4ea81659aad419,2022-06-29_09h11.35.247,Colour_Asymmetry_Pilot,2022.1.3,Win32,60.02040694,62bbe60bf3d75ef465d3e404,0,63,63,89,1,onethree,,,,,,,,,,,,,,,,,,,,,,,,,,,,,,,,,,,,,,,,,,,,,,,,,,,,,,,,,,,,,,,,,,,,,,,,,,,,,,,,,,,,,,,,,,,,,,,,,,,,,,,,,,,,,,,,,,,,,,,,,,,,,,,,,,,,,,,,,,,,,,,,,,,,,,,,
,,,,,,61535f0be88cfbeb7bc0bf04,62bbfaf81c4ea81659aad419,2022-06-29_09h11.35.247,Colour_Asymmetry_Pilot,2022.1.3,Win32,60.02040694,62bbe60bf3d75ef465d3e404,0,64,64,26,1,twoone,,,,,,,,,,,,,,,,,,,,,,,,,,,,,,,,,,,,,,,,,,,,,,,,,,,,,,,,,,,,,,,,,,,,,,,,,,,,,,,,,,,,,,,,,,,,,,,,,,,,,,,,,,,,,,,,,,,,,,,,,,,,,,,,,,,,,,,,,,,,,,,,,,,,,,,,
,,,,,,61535f0be88cfbeb7bc0bf04,62bbfaf81c4ea81659aad419,2022-06-29_09h11.35.247,Colour_Asymmetry_Pilot,2022.1.3,Win32,60.02040694,62bbe60bf3d75ef465d3e404,0,65,65,133,1,threefour,,,,,,,,,,,,,,,,,,,,,,,,,,,,,,,,,,,,,,,,,,,,,,,,,,,,,,,,,,,,,,,,,,,,,,,,,,,,,,,,,,,,,,,,,,,,,,,,,,,,,,,,,,,,,,,,,,,,,,,,,,,,,,,,,,,,,,,,,,,,,,,,,,,,,,,,
,,,,,,61535f0be88cfbeb7bc0bf04,62bbfaf81c4ea81659aad419,2022-06-29_09h11.35.247,Colour_Asymmetry_Pilot,2022.1.3,Win32,60.02040694,62bbe60bf3d75ef465d3e404,0,66,66,6,1,fourtwo,,,,,,,,,,,,,,,,,,,,,,,,,,,,,,,,,,,,,,,,,,,,,,,,,,,,,,,,,,,,,,,,,,,,,,,,,,,,,,,,,,,,,,,,,,,,,,,,,,,,,,,,,,,,,,,,,,,,,,,,,,,,,,,,,,,,,,,,,,,,,,,,,,,,,,,,
,,,,,,61535f0be88cfbeb7bc0bf04,62bbfaf81c4ea81659aad419,2022-06-29_09h11.35.247,Colour_Asymmetry_Pilot,2022.1.3,Win32,60.02040694,62bbe60bf3d75ef465d3e404,0,67,67,71,1,fourthree,,,,,,,,,,,,,,,,,,,,,,,,,,,,,,,,,,,,,,,,,,,,,,,,,,,,,,,,,,,,,,,,,,,,,,,,,,,,,,,,,,,,,,,,,,,,,,,,,,,,,,,,,,,,,,,,,,,,,,,,,,,,,,,,,,,,,,,,,,,,,,,,,,,,,,,,
,,,,,,61535f0be88cfbeb7bc0bf04,62bbfaf81c4ea81659aad419,2022-06-29_09h11.35.247,Colour_Asymmetry_Pilot,2022.1.3,Win32,60.02040694,62bbe60bf3d75ef465d3e404,0,68,68,121,1,onethree,,,,,,,,,,,,,,,,,,,,,,,,,,,,,,,,,,,,,,,,,,,,,,,,,,,,,,,,,,,,,,,,,,,,,,,,,,,,,,,,,,,,,,,,,,,,,,,,,,,,,,,,,,,,,,,,,,,,,,,,,,,,,,,,,,,,,,,,,,,,,,,,,,,,,,,,
,,,,,,61535f0be88cfbeb7bc0bf04,62bbfaf81c4ea81659aad419,2022-06-29_09h11.35.247,Colour_Asymmetry_Pilot,2022.1.3,Win32,60.02040694,62bbe60bf3d75ef465d3e404,0,69,69,76,1,threeone,,,,,,,,,,,,,,,,,,,,,,,,,,,,,,,,,,,,,,,,,,,,,,,,,,,,,,,,,,,,,,,,,,,,,,,,,,,,,,,,,,,,,,,,,,,,,,,,,,,,,,,,,,,,,,,,,,,,,,,,,,,,,,,,,,,,,,,,,,,,,,,,,,,,,,,,
,,,,,,61535f0be88cfbeb7bc0bf04,62bbfaf81c4ea81659aad419,2022-06-29_09h11.35.247,Colour_Asymmetry_Pilot,2022.1.3,Win32,60.02040694,62bbe60bf3d75ef465d3e404,0,70,70,128,1,onetwo,,,,,,,,,,,,,,,,,,,,,,,,,,,,,,,,,,,,,,,,,,,,,,,,,,,,,,,,,,,,,,,,,,,,,,,,,,,,,,,,,,,,,,,,,,,,,,,,,,,,,,,,,,,,,,,,,,,,,,,,,,,,,,,,,,,,,,,,,,,,,,,,,,,,,,,,
,,,,,,61535f0be88cfbeb7bc0bf04,62bbfaf81c4ea81659aad419,2022-06-29_09h11.35.247,Colour_Asymmetry_Pilot,2022.1.3,Win32,60.02040694,62bbe60bf3d75ef465d3e404,0,71,71,13,1,threefour,,,,,,,,,,,,,,,,,,,,,,,,,,,,,,,,,,,,,,,,,,,,,,,,,,,,,,,,,,,,,,,,,,,,,,,,,,,,,,,,,,,,,,,,,,,,,,,,,,,,,,,,,,,,,,,,,,,,,,,,,,,,,,,,,,,,,,,,,,,,,,,,,,,,,,,,
,,,,,,61535f0be88cfbeb7bc0bf04,62bbfaf81c4ea81659aad419,2022-06-29_09h11.35.247,Colour_Asymmetry_Pilot,2022.1.3,Win32,60.02040694,62bbe60bf3d75ef465d3e404,0,72,72,59,1,twofour,,,,,,,,,,,,,,,,,,,,,,,,,,,,,,,,,,,,,,,,,,,,,,,,,,,,,,,,,,,,,,,,,,,,,,,,,,,,,,,,,,,,,,,,,,,,,,,,,,,,,,,,,,,,,,,,,,,,,,,,,,,,,,,,,,,,,,,,,,,,,,,,,,,,,,,,
,,,,,,61535f0be88cfbeb7bc0bf04,62bbfaf81c4ea81659aad419,2022-06-29_09h11.35.247,Colour_Asymmetry_Pilot,2022.1.3,Win32,60.02040694,62bbe60bf3d75ef465d3e404,0,73,73,90,1,twoone,,,,,,,,,,,,,,,,,,,,,,,,,,,,,,,,,,,,,,,,,,,,,,,,,,,,,,,,,,,,,,,,,,,,,,,,,,,,,,,,,,,,,,,,,,,,,,,,,,,,,,,,,,,,,,,,,,,,,,,,,,,,,,,,,,,,,,,,,,,,,,,,,,,,,,,,
,,,,,,61535f0be88cfbeb7bc0bf04,62bbfaf81c4ea81659aad419,2022-06-29_09h11.35.247,Colour_Asymmetry_Pilot,2022.1.3,Win32,60.02040694,62bbe60bf3d75ef465d3e404,0,74,74,35,1,twofour,,,,,,,,,,,,,,,,,,,,,,,,,,,,,,,,,,,,,,,,,,,,,,,,,,,,,,,,,,,,,,,,,,,,,,,,,,,,,,,,,,,,,,,,,,,,,,,,,,,,,,,,,,,,,,,,,,,,,,,,,,,,,,,,,,,,,,,,,,,,,,,,,,,,,,,,
,,,,,,61535f0be88cfbeb7bc0bf04,62bbfaf81c4ea81659aad419,2022-06-29_09h11.35.247,Colour_Asymmetry_Pilot,2022.1.3,Win32,60.02040694,62bbe60bf3d75ef465d3e404,0,75,75,155,1,twofour,,,,,,,,,,,,,,,,,,,,,,,,,,,,,,,,,,,,,,,,,,,,,,,,,,,,,,,,,,,,,,,,,,,,,,,,,,,,,,,,,,,,,,,,,,,,,,,,,,,,,,,,,,,,,,,,,,,,,,,,,,,,,,,,,,,,,,,,,,,,,,,,,,,,,,,,
,,,,,,61535f0be88cfbeb7bc0bf04,62bbfaf81c4ea81659aad419,2022-06-29_09h11.35.247,Colour_Asymmetry_Pilot,2022.1.3,Win32,60.02040694,62bbe60bf3d75ef465d3e404,0,76,76,150,1,fourtwo,,,,,,,,,,,,,,,,,,,,,,,,,,,,,,,,,,,,,,,,,,,,,,,,,,,,,,,,,,,,,,,,,,,,,,,,,,,,,,,,,,,,,,,,,,,,,,,,,,,,,,,,,,,,,,,,,,,,,,,,,,,,,,,,,,,,,,,,,,,,,,,,,,,,,,,,
,,,,,,61535f0be88cfbeb7bc0bf04,62bbfaf81c4ea81659aad419,2022-06-29_09h11.35.247,Colour_Asymmetry_Pilot,2022.1.3,Win32,60.02040694,62bbe60bf3d75ef465d3e404,0,77,77,82,1,twoone,,,,,,,,,,,,,,,,,,,,,,,,,,,,,,,,,,,,,,,,,,,,,,,,,,,,,,,,,,,,,,,,,,,,,,,,,,,,,,,,,,,,,,,,,,,,,,,,,,,,,,,,,,,,,,,,,,,,,,,,,,,,,,,,,,,,,,,,,,,,,,,,,,,,,,,,
,,,,,,61535f0be88cfbeb7bc0bf04,62bbfaf81c4ea81659aad419,2022-06-29_09h11.35.247,Colour_Asymmetry_Pilot,2022.1.3,Win32,60.02040694,62bbe60bf3d75ef465d3e404,0,78,78,123,1,twofour,,,,,,,,,,,,,,,,,,,,,,,,,,,,,,,,,,,,,,,,,,,,,,,,,,,,,,,,,,,,,,,,,,,,,,,,,,,,,,,,,,,,,,,,,,,,,,,,,,,,,,,,,,,,,,,,,,,,,,,,,,,,,,,,,,,,,,,,,,,,,,,,,,,,,,,,
,,,,,,61535f0be88cfbeb7bc0bf04,62bbfaf81c4ea81659aad419,2022-06-29_09h11.35.247,Colour_Asymmetry_Pilot,2022.1.3,Win32,60.02040694,62bbe60bf3d75ef465d3e404,0,79,79,84,1,threeone,,,,,,,,,,,,,,,,,,,,,,,,,,,,,,,,,,,,,,,,,,,,,,,,,,,,,,,,,,,,,,,,,,,,,,,,,,,,,,,,,,,,,,,,,,,,,,,,,,,,,,,,,,,,,,,,,,,,,,,,,,,,,,,,,,,,,,,,,,,,,,,,,,,,,,,,
,,,,,,61535f0be88cfbeb7bc0bf04,62bbfaf81c4ea81659aad419,2022-06-29_09h11.35.247,Colour_Asymmetry_Pilot,2022.1.3,Win32,60.02040694,62bbe60bf3d75ef465d3e404,0,80,80,107,1,twofour,,,,,,,,,,,,,,,,,,,,,,,,,,,,,,,,,,,,,,,,,,,,,,,,,,,,,,,,,,,,,,,,,,,,,,,,,,,,,,,,,,,,,,,,,,,,,,,,,,,,,,,,,,,,,,,,,,,,,,,,,,,,,,,,,,,,,,,,,,,,,,,,,,,,,,,,
,,,,,,61535f0be88cfbeb7bc0bf04,62bbfaf81c4ea81659aad419,2022-06-29_09h11.35.247,Colour_Asymmetry_Pilot,2022.1.3,Win32,60.02040694,62bbe60bf3d75ef465d3e404,0,81,81,51,1,twofour,,,,,,,,,,,,,,,,,,,,,,,,,,,,,,,,,,,,,,,,,,,,,,,,,,,,,,,,,,,,,,,,,,,,,,,,,,,,,,,,,,,,,,,,,,,,,,,,,,,,,,,,,,,,,,,,,,,,,,,,,,,,,,,,,,,,,,,,,,,,,,,,,,,,,,,,
,,,,,,61535f0be88cfbeb7bc0bf04,62bbfaf81c4ea81659aad419,2022-06-29_09h11.35.247,Colour_Asymmetry_Pilot,2022.1.3,Win32,60.02040694,62bbe60bf3d75ef465d3e404,0,82,82,57,1,onethree,,,,,,,,,,,,,,,,,,,,,,,,,,,,,,,,,,,,,,,,,,,,,,,,,,,,,,,,,,,,,,,,,,,,,,,,,,,,,,,,,,,,,,,,,,,,,,,,,,,,,,,,,,,,,,,,,,,,,,,,,,,,,,,,,,,,,,,,,,,,,,,,,,,,,,,,
,,,,,,61535f0be88cfbeb7bc0bf04,62bbfaf81c4ea81659aad419,2022-06-29_09h11.35.247,Colour_Asymmetry_Pilot,2022.1.3,Win32,60.02040694,62bbe60bf3d75ef465d3e404,0,83,83,99,1,twofour,,,,,,,,,,,,,,,,,,,,,,,,,,,,,,,,,,,,,,,,,,,,,,,,,,,,,,,,,,,,,,,,,,,,,,,,,,,,,,,,,,,,,,,,,,,,,,,,,,,,,,,,,,,,,,,,,,,,,,,,,,,,,,,,,,,,,,,,,,,,,,,,,,,,,,,,
,,,,,,61535f0be88cfbeb7bc0bf04,62bbfaf81c4ea81659aad419,2022-06-29_09h11.35.247,Colour_Asymmetry_Pilot,2022.1.3,Win32,60.02040694,62bbe60bf3d75ef465d3e404,0,84,84,161,1,onethree,,,,,,,,,,,,,,,,,,,,,,,,,,,,,,,,,,,,,,,,,,,,,,,,,,,,,,,,,,,,,,,,,,,,,,,,,,,,,,,,,,,,,,,,,,,,,,,,,,,,,,,,,,,,,,,,,,,,,,,,,,,,,,,,,,,,,,,,,,,,,,,,,,,,,,,,
,,,,,,61535f0be88cfbeb7bc0bf04,62bbfaf81c4ea81659aad419,2022-06-29_09h11.35.247,Colour_Asymmetry_Pilot,2022.1.3,Win32,60.02040694,62bbe60bf3d75ef465d3e404,0,85,85,141,1,threefour,,,,,,,,,,,,,,,,,,,,,,,,,,,,,,,,,,,,,,,,,,,,,,,,,,,,,,,,,,,,,,,,,,,,,,,,,,,,,,,,,,,,,,,,,,,,,,,,,,,,,,,,,,,,,,,,,,,,,,,,,,,,,,,,,,,,,,,,,,,,,,,,,,,,,,,,
,,,,,,61535f0be88cfbeb7bc0bf04,62bbfaf81c4ea81659aad419,2022-06-29_09h11.35.247,Colour_Asymmetry_Pilot,2022.1.3,Win32,60.02040694,62bbe60bf3d75ef465d3e404,0,86,86,2,1,twoone,,,,,,,,,,,,,,,,,,,,,,,,,,,,,,,,,,,,,,,,,,,,,,,,,,,,,,,,,,,,,,,,,,,,,,,,,,,,,,,,,,,,,,,,,,,,,,,,,,,,,,,,,,,,,,,,,,,,,,,,,,,,,,,,,,,,,,,,,,,,,,,,,,,,,,,,
,,,,,,61535f0be88cfbeb7bc0bf04,62bbfaf81c4ea81659aad419,2022-06-29_09h11.35.247,Colour_Asymmetry_Pilot,2022.1.3,Win32,60.02040694,62bbe60bf3d75ef465d3e404,0,87,87,105,1,onethree,,,,,,,,,,,,,,,,,,,,,,,,,,,,,,,,,,,,,,,,,,,,,,,,,,,,,,,,,,,,,,,,,,,,,,,,,,,,,,,,,,,,,,,,,,,,,,,,,,,,,,,,,,,,,,,,,,,,,,,,,,,,,,,,,,,,,,,,,,,,,,,,,,,,,,,,
,,,,,,61535f0be88cfbeb7bc0bf04,62bbfaf81c4ea81659aad419,2022-06-29_09h11.35.247,Colour_Asymmetry_Pilot,2022.1.3,Win32,60.02040694,62bbe60bf3d75ef465d3e404,0,88,88,112,1,onetwo,,,,,,,,,,,,,,,,,,,,,,,,,,,,,,,,,,,,,,,,,,,,,,,,,,,,,,,,,,,,,,,,,,,,,,,,,,,,,,,,,,,,,,,,,,,,,,,,,,,,,,,,,,,,,,,,,,,,,,,,,,,,,,,,,,,,,,,,,,,,,,,,,,,,,,,,
,,,,,,61535f0be88cfbeb7bc0bf04,62bbfaf81c4ea81659aad419,2022-06-29_09h11.35.247,Colour_Asymmetry_Pilot,2022.1.3,Win32,60.02040694,62bbe60bf3d75ef465d3e404,0,89,89,39,1,fourthree,,,,,,,,,,,,,,,,,,,,,,,,,,,,,,,,,,,,,,,,,,,,,,,,,,,,,,,,,,,,,,,,,,,,,,,,,,,,,,,,,,,,,,,,,,,,,,,,,,,,,,,,,,,,,,,,,,,,,,,,,,,,,,,,,,,,,,,,,,,,,,,,,,,,,,,,
,,,,,,61535f0be88cfbeb7bc0bf04,62bbfaf81c4ea81659aad419,2022-06-29_09h11.35.247,Colour_Asymmetry_Pilot,2022.1.3,Win32,60.02040694,62bbe60bf3d75ef465d3e404,0,90,90,67,1,twofour,,,,,,,,,,,,,,,,,,,,,,,,,,,,,,,,,,,,,,,,,,,,,,,,,,,,,,,,,,,,,,,,,,,,,,,,,,,,,,,,,,,,,,,,,,,,,,,,,,,,,,,,,,,,,,,,,,,,,,,,,,,,,,,,,,,,,,,,,,,,,,,,,,,,,,,,
,,,,,,61535f0be88cfbeb7bc0bf04,62bbfaf81c4ea81659aad419,2022-06-29_09h11.35.247,Colour_Asymmetry_Pilot,2022.1.3,Win32,60.02040694,62bbe60bf3d75ef465d3e404,0,91,91,143,1,fourthree,,,,,,,,,,,,,,,,,,,,,,,,,,,,,,,,,,,,,,,,,,,,,,,,,,,,,,,,,,,,,,,,,,,,,,,,,,,,,,,,,,,,,,,,,,,,,,,,,,,,,,,,,,,,,,,,,,,,,,,,,,,,,,,,,,,,,,,,,,,,,,,,,,,,,,,,
,,,,,,61535f0be88cfbeb7bc0bf04,62bbfaf81c4ea81659aad419,2022-06-29_09h11.35.247,Colour_Asymmetry_Pilot,2022.1.3,Win32,60.02040694,62bbe60bf3d75ef465d3e404,0,92,92,61,1,threefour,,,,,,,,,,,,,,,,,,,,,,,,,,,,,,,,,,,,,,,,,,,,,,,,,,,,,,,,,,,,,,,,,,,,,,,,,,,,,,,,,,,,,,,,,,,,,,,,,,,,,,,,,,,,,,,,,,,,,,,,,,,,,,,,,,,,,,,,,,,,,,,,,,,,,,,,
,,,,,,61535f0be88cfbeb7bc0bf04,62bbfaf81c4ea81659aad419,2022-06-29_09h11.35.247,Colour_Asymmetry_Pilot,2022.1.3,Win32,60.02040694,62bbe60bf3d75ef465d3e404,0,93,93,40,1,onetwo,,,,,,,,,,,,,,,,,,,,,,,,,,,,,,,,,,,,,,,,,,,,,,,,,,,,,,,,,,,,,,,,,,,,,,,,,,,,,,,,,,,,,,,,,,,,,,,,,,,,,,,,,,,,,,,,,,,,,,,,,,,,,,,,,,,,,,,,,,,,,,,,,,,,,,,,
,,,,,,61535f0be88cfbeb7bc0bf04,62bbfaf81c4ea81659aad419,2022-06-29_09h11.35.247,Colour_Asymmetry_Pilot,2022.1.3,Win32,60.02040694,62bbe60bf3d75ef465d3e404,0,94,94,25,1,onethree,,,,,,,,,,,,,,,,,,,,,,,,,,,,,,,,,,,,,,,,,,,,,,,,,,,,,,,,,,,,,,,,,,,,,,,,,,,,,,,,,,,,,,,,,,,,,,,,,,,,,,,,,,,,,,,,,,,,,,,,,,,,,,,,,,,,,,,,,,,,,,,,,,,,,,,,
,,,,,,61535f0be88cfbeb7bc0bf04,62bbfaf81c4ea81659aad419,2022-06-29_09h11.35.247,Colour_Asymmetry_Pilot,2022.1.3,Win32,60.02040694,62bbe60bf3d75ef465d3e404,0,95,95,113,1,onethree,,,,,,,,,,,,,,,,,,,,,,,,,,,,,,,,,,,,,,,,,,,,,,,,,,,,,,,,,,,,,,,,,,,,,,,,,,,,,,,,,,,,,,,,,,,,,,,,,,,,,,,,,,,,,,,,,,,,,,,,,,,,,,,,,,,,,,,,,,,,,,,,,,,,,,,,
,,,,,,61535f0be88cfbeb7bc0bf04,62bbfaf81c4ea81659aad419,2022-06-29_09h11.35.247,Colour_Asymmetry_Pilot,2022.1.3,Win32,60.02040694,62bbe60bf3d75ef465d3e404,0,96,96,125,1,threefour,,,,,,,,,,,,,,,,,,,,,,,,,,,,,,,,,,,,,,,,,,,,,,,,,,,,,,,,,,,,,,,,,,,,,,,,,,,,,,,,,,,,,,,,,,,,,,,,,,,,,,,,,,,,,,,,,,,,,,,,,,,,,,,,,,,,,,,,,,,,,,,,,,,,,,,,
,,,,,,61535f0be88cfbeb7bc0bf04,62bbfaf81c4ea81659aad419,2022-06-29_09h11.35.247,Colour_Asymmetry_Pilot,2022.1.3,Win32,60.02040694,62bbe60bf3d75ef465d3e404,0,97,97,153,1,onethree,,,,,,,,,,,,,,,,,,,,,,,,,,,,,,,,,,,,,,,,,,,,,,,,,,,,,,,,,,,,,,,,,,,,,,,,,,,,,,,,,,,,,,,,,,,,,,,,,,,,,,,,,,,,,,,,,,,,,,,,,,,,,,,,,,,,,,,,,,,,,,,,,,,,,,,,
,,,,,,61535f0be88cfbeb7bc0bf04,62bbfaf81c4ea81659aad419,2022-06-29_09h11.35.247,Colour_Asymmetry_Pilot,2022.1.3,Win32,60.02040694,62bbe60bf3d75ef465d3e404,0,98,98,46,1,fourtwo,,,,,,,,,,,,,,,,,,,,,,,,,,,,,,,,,,,,,,,,,,,,,,,,,,,,,,,,,,,,,,,,,,,,,,,,,,,,,,,,,,,,,,,,,,,,,,,,,,,,,,,,,,,,,,,,,,,,,,,,,,,,,,,,,,,,,,,,,,,,,,,,,,,,,,,,
,,,,,,61535f0be88cfbeb7bc0bf04,62bbfaf81c4ea81659aad419,2022-06-29_09h11.35.247,Colour_Asymmetry_Pilot,2022.1.3,Win32,60.02040694,62bbe60bf3d75ef465d3e404,0,99,99,14,1,fourtwo,,,,,,,,,,,,,,,,,,,,,,,,,,,,,,,,,,,,,,,,,,,,,,,,,,,,,,,,,,,,,,,,,,,,,,,,,,,,,,,,,,,,,,,,,,,,,,,,,,,,,,,,,,,,,,,,,,,,,,,,,,,,,,,,,,,,,,,,,,,,,,,,,,,,,,,,
,,,,,,61535f0be88cfbeb7bc0bf04,62bbfaf81c4ea81659aad419,2022-06-29_09h11.35.247,Colour_Asymmetry_Pilot,2022.1.3,Win32,60.02040694,62bbe60bf3d75ef465d3e404,0,100,100,48,1,onetwo,,,,,,,,,,,,,,,,,,,,,,,,,,,,,,,,,,,,,,,,,,,,,,,,,,,,,,,,,,,,,,,,,,,,,,,,,,,,,,,,,,,,,,,,,,,,,,,,,,,,,,,,,,,,,,,,,,,,,,,,,,,,,,,,,,,,,,,,,,,,,,,,,,,,,,,,
,,,,,,61535f0be88cfbeb7bc0bf04,62bbfaf81c4ea81659aad419,2022-06-29_09h11.35.247,Colour_Asymmetry_Pilot,2022.1.3,Win32,60.02040694,62bbe60bf3d75ef465d3e404,0,101,101,127,1,fourthree,,,,,,,,,,,,,,,,,,,,,,,,,,,,,,,,,,,,,,,,,,,,,,,,,,,,,,,,,,,,,,,,,,,,,,,,,,,,,,,,,,,,,,,,,,,,,,,,,,,,,,,,,,,,,,,,,,,,,,,,,,,,,,,,,,,,,,,,,,,,,,,,,,,,,,,,
,,,,,,61535f0be88cfbeb7bc0bf04,62bbfaf81c4ea81659aad419,2022-06-29_09h11.35.247,Colour_Asymmetry_Pilot,2022.1.3,Win32,60.02040694,62bbe60bf3d75ef465d3e404,0,102,102,101,1,threefour,,,,,,,,,,,,,,,,,,,,,,,,,,,,,,,,,,,,,,,,,,,,,,,,,,,,,,,,,,,,,,,,,,,,,,,,,,,,,,,,,,,,,,,,,,,,,,,,,,,,,,,,,,,,,,,,,,,,,,,,,,,,,,,,,,,,,,,,,,,,,,,,,,,,,,,,
,,,,,,61535f0be88cfbeb7bc0bf04,62bbfaf81c4ea81659aad419,2022-06-29_09h11.35.247,Colour_Asymmetry_Pilot,2022.1.3,Win32,60.02040694,62bbe60bf3d75ef465d3e404,0,103,103,69,1,threefour,,,,,,,,,,,,,,,,,,,,,,,,,,,,,,,,,,,,,,,,,,,,,,,,,,,,,,,,,,,,,,,,,,,,,,,,,,,,,,,,,,,,,,,,,,,,,,,,,,,,,,,,,,,,,,,,,,,,,,,,,,,,,,,,,,,,,,,,,,,,,,,,,,,,,,,,
,,,,,,61535f0be88cfbeb7bc0bf04,62bbfaf81c4ea81659aad419,2022-06-29_09h11.35.247,Colour_Asymmetry_Pilot,2022.1.3,Win32,60.02040694,62bbe60bf3d75ef465d3e404,0,104,104,93,1,threefour,,,,,,,,,,,,,,,,,,,,,,,,,,,,,,,,,,,,,,,,,,,,,,,,,,,,,,,,,,,,,,,,,,,,,,,,,,,,,,,,,,,,,,,,,,,,,,,,,,,,,,,,,,,,,,,,,,,,,,,,,,,,,,,,,,,,,,,,,,,,,,,,,,,,,,,,
,,,,,,61535f0be88cfbeb7bc0bf04,62bbfaf81c4ea81659aad419,2022-06-29_09h11.35.247,Colour_Asymmetry_Pilot,2022.1.3,Win32,60.02040694,62bbe60bf3d75ef465d3e404,0,105,105,149,1,threefour,,,,,,,,,,,,,,,,,,,,,,,,,,,,,,,,,,,,,,,,,,,,,,,,,,,,,,,,,,,,,,,,,,,,,,,,,,,,,,,,,,,,,,,,,,,,,,,,,,,,,,,,,,,,,,,,,,,,,,,,,,,,,,,,,,,,,,,,,,,,,,,,,,,,,,,,
,,,,,,61535f0be88cfbeb7bc0bf04,62bbfaf81c4ea81659aad419,2022-06-29_09h11.35.247,Colour_Asymmetry_Pilot,2022.1.3,Win32,60.02040694,62bbe60bf3d75ef465d3e404,0,106,106,140,1,threeone,,,,,,,,,,,,,,,,,,,,,,,,,,,,,,,,,,,,,,,,,,,,,,,,,,,,,,,,,,,,,,,,,,,,,,,,,,,,,,,,,,,,,,,,,,,,,,,,,,,,,,,,,,,,,,,,,,,,,,,,,,,,,,,,,,,,,,,,,,,,,,,,,,,,,,,,
,,,,,,61535f0be88cfbeb7bc0bf04,62bbfaf81c4ea81659aad419,2022-06-29_09h11.35.247,Colour_Asymmetry_Pilot,2022.1.3,Win32,60.02040694,62bbe60bf3d75ef465d3e404,0,107,107,20,1,threeone,,,,,,,,,,,,,,,,,,,,,,,,,,,,,,,,,,,,,,,,,,,,,,,,,,,,,,,,,,,,,,,,,,,,,,,,,,,,,,,,,,,,,,,,,,,,,,,,,,,,,,,,,,,,,,,,,,,,,,,,,,,,,,,,,,,,,,,,,,,,,,,,,,,,,,,,
,,,,,,61535f0be88cfbeb7bc0bf04,62bbfaf81c4ea81659aad419,2022-06-29_09h11.35.247,Colour_Asymmetry_Pilot,2022.1.3,Win32,60.02040694,62bbe60bf3d75ef465d3e404,0,108,108,151,1,fourthree,,,,,,,,,,,,,,,,,,,,,,,,,,,,,,,,,,,,,,,,,,,,,,,,,,,,,,,,,,,,,,,,,,,,,,,,,,,,,,,,,,,,,,,,,,,,,,,,,,,,,,,,,,,,,,,,,,,,,,,,,,,,,,,,,,,,,,,,,,,,,,,,,,,,,,,,
,,,,,,61535f0be88cfbeb7bc0bf04,62bbfaf81c4ea81659aad419,2022-06-29_09h11.35.247,Colour_Asymmetry_Pilot,2022.1.3,Win32,60.02040694,62bbe60bf3d75ef465d3e404,0,109,109,3,1,twofour,,,,,,,,,,,,,,,,,,,,,,,,,,,,,,,,,,,,,,,,,,,,,,,,,,,,,,,,,,,,,,,,,,,,,,,,,,,,,,,,,,,,,,,,,,,,,,,,,,,,,,,,,,,,,,,,,,,,,,,,,,,,,,,,,,,,,,,,,,,,,,,,,,,,,,,,
,,,,,,61535f0be88cfbeb7bc0bf04,62bbfaf81c4ea81659aad419,2022-06-29_09h11.35.247,Colour_Asymmetry_Pilot,2022.1.3,Win32,60.02040694,62bbe60bf3d75ef465d3e404,0,110,110,94,1,fourtwo,,,,,,,,,,,,,,,,,,,,,,,,,,,,,,,,,,,,,,,,,,,,,,,,,,,,,,,,,,,,,,,,,,,,,,,,,,,,,,,,,,,,,,,,,,,,,,,,,,,,,,,,,,,,,,,,,,,,,,,,,,,,,,,,,,,,,,,,,,,,,,,,,,,,,,,,
,,,,,,61535f0be88cfbeb7bc0bf04,62bbfaf81c4ea81659aad419,2022-06-29_09h11.35.247,Colour_Asymmetry_Pilot,2022.1.3,Win32,60.02040694,62bbe60bf3d75ef465d3e404,0,111,111,30,1,fourtwo,,,,,,,,,,,,,,,,,,,,,,,,,,,,,,,,,,,,,,,,,,,,,,,,,,,,,,,,,,,,,,,,,,,,,,,,,,,,,,,,,,,,,,,,,,,,,,,,,,,,,,,,,,,,,,,,,,,,,,,,,,,,,,,,,,,,,,,,,,,,,,,,,,,,,,,,
,,,,,,61535f0be88cfbeb7bc0bf04,62bbfaf81c4ea81659aad419,2022-06-29_09h11.35.247,Colour_Asymmetry_Pilot,2022.1.3,Win32,60.02040694,62bbe60bf3d75ef465d3e404,0,112,112,110,1,fourtwo,,,,,,,,,,,,,,,,,,,,,,,,,,,,,,,,,,,,,,,,,,,,,,,,,,,,,,,,,,,,,,,,,,,,,,,,,,,,,,,,,,,,,,,,,,,,,,,,,,,,,,,,,,,,,,,,,,,,,,,,,,,,,,,,,,,,,,,,,,,,,,,,,,,,,,,,
,,,,,,61535f0be88cfbeb7bc0bf04,62bbfaf81c4ea81659aad419,2022-06-29_09h11.35.247,Colour_Asymmetry_Pilot,2022.1.3,Win32,60.02040694,62bbe60bf3d75ef465d3e404,0,113,113,111,1,fourthree,,,,,,,,,,,,,,,,,,,,,,,,,,,,,,,,,,,,,,,,,,,,,,,,,,,,,,,,,,,,,,,,,,,,,,,,,,,,,,,,,,,,,,,,,,,,,,,,,,,,,,,,,,,,,,,,,,,,,,,,,,,,,,,,,,,,,,,,,,,,,,,,,,,,,,,,
,,,,,,61535f0be88cfbeb7bc0bf04,62bbfaf81c4ea81659aad419,2022-06-29_09h11.35.247,Colour_Asymmetry_Pilot,2022.1.3,Win32,60.02040694,62bbe60bf3d75ef465d3e404,0,114,114,92,1,threeone,,,,,,,,,,,,,,,,,,,,,,,,,,,,,,,,,,,,,,,,,,,,,,,,,,,,,,,,,,,,,,,,,,,,,,,,,,,,,,,,,,,,,,,,,,,,,,,,,,,,,,,,,,,,,,,,,,,,,,,,,,,,,,,,,,,,,,,,,,,,,,,,,,,,,,,,
,,,,,,61535f0be88cfbeb7bc0bf04,62bbfaf81c4ea81659aad419,2022-06-29_09h11.35.247,Colour_Asymmetry_Pilot,2022.1.3,Win32,60.02040694,62bbe60bf3d75ef465d3e404,0,115,115,75,1,twofour,,,,,,,,,,,,,,,,,,,,,,,,,,,,,,,,,,,,,,,,,,,,,,,,,,,,,,,,,,,,,,,,,,,,,,,,,,,,,,,,,,,,,,,,,,,,,,,,,,,,,,,,,,,,,,,,,,,,,,,,,,,,,,,,,,,,,,,,,,,,,,,,,,,,,,,,
,,,,,,61535f0be88cfbeb7bc0bf04,62bbfaf81c4ea81659aad419,2022-06-29_09h11.35.247,Colour_Asymmetry_Pilot,2022.1.3,Win32,60.02040694,62bbe60bf3d75ef465d3e404,0,116,116,117,1,threefour,,,,,,,,,,,,,,,,,,,,,,,,,,,,,,,,,,,,,,,,,,,,,,,,,,,,,,,,,,,,,,,,,,,,,,,,,,,,,,,,,,,,,,,,,,,,,,,,,,,,,,,,,,,,,,,,,,,,,,,,,,,,,,,,,,,,,,,,,,,,,,,,,,,,,,,,
,,,,,,61535f0be88cfbeb7bc0bf04,62bbfaf81c4ea81659aad419,2022-06-29_09h11.35.247,Colour_Asymmetry_Pilot,2022.1.3,Win32,60.02040694,62bbe60bf3d75ef465d3e404,0,117,117,66,1,twoone,,,,,,,,,,,,,,,,,,,,,,,,,,,,,,,,,,,,,,,,,,,,,,,,,,,,,,,,,,,,,,,,,,,,,,,,,,,,,,,,,,,,,,,,,,,,,,,,,,,,,,,,,,,,,,,,,,,,,,,,,,,,,,,,,,,,,,,,,,,,,,,,,,,,,,,,
,,,,,,61535f0be88cfbeb7bc0bf04,62bbfaf81c4ea81659aad419,2022-06-29_09h11.35.247,Colour_Asymmetry_Pilot,2022.1.3,Win32,60.02040694,62bbe60bf3d75ef465d3e404,0,118,118,100,1,threeone,,,,,,,,,,,,,,,,,,,,,,,,,,,,,,,,,,,,,,,,,,,,,,,,,,,,,,,,,,,,,,,,,,,,,,,,,,,,,,,,,,,,,,,,,,,,,,,,,,,,,,,,,,,,,,,,,,,,,,,,,,,,,,,,,,,,,,,,,,,,,,,,,,,,,,,,
,,,,,,61535f0be88cfbeb7bc0bf04,62bbfaf81c4ea81659aad419,2022-06-29_09h11.35.247,Colour_Asymmetry_Pilot,2022.1.3,Win32,60.02040694,62bbe60bf3d75ef465d3e404,0,119,119,0,1,onetwo,,,,,,,,,,,,,,,,,,,,,,,,,,,,,,,,,,,,,,,,,,,,,,,,,,,,,,,,,,,,,,,,,,,,,,,,,,,,,,,,,,,,,,,,,,,,,,,,,,,,,,,,,,,,,,,,,,,,,,,,,,,,,,,,,,,,,,,,,,,,,,,,,,,,,,,,
,,,,,,61535f0be88cfbeb7bc0bf04,62bbfaf81c4ea81659aad419,2022-06-29_09h11.35.247,Colour_Asymmetry_Pilot,2022.1.3,Win32,60.02040694,62bbe60bf3d75ef465d3e404,0,120,120,159,1,fourthree,,,,,,,,,,,,,,,,,,,,,,,,,,,,,,,,,,,,,,,,,,,,,,,,,,,,,,,,,,,,,,,,,,,,,,,,,,,,,,,,,,,,,,,,,,,,,,,,,,,,,,,,,,,,,,,,,,,,,,,,,,,,,,,,,,,,,,,,,,,,,,,,,,,,,,,,
,,,,,,61535f0be88cfbeb7bc0bf04,62bbfaf81c4ea81659aad419,2022-06-29_09h11.35.247,Colour_Asymmetry_Pilot,2022.1.3,Win32,60.02040694,62bbe60bf3d75ef465d3e404,0,121,121,47,1,fourthree,,,,,,,,,,,,,,,,,,,,,,,,,,,,,,,,,,,,,,,,,,,,,,,,,,,,,,,,,,,,,,,,,,,,,,,,,,,,,,,,,,,,,,,,,,,,,,,,,,,,,,,,,,,,,,,,,,,,,,,,,,,,,,,,,,,,,,,,,,,,,,,,,,,,,,,,
,,,,,,61535f0be88cfbeb7bc0bf04,62bbfaf81c4ea81659aad419,2022-06-29_09h11.35.247,Colour_Asymmetry_Pilot,2022.1.3,Win32,60.02040694,62bbe60bf3d75ef465d3e404,0,122,122,37,1,threefour,,,,,,,,,,,,,,,,,,,,,,,,,,,,,,,,,,,,,,,,,,,,,,,,,,,,,,,,,,,,,,,,,,,,,,,,,,,,,,,,,,,,,,,,,,,,,,,,,,,,,,,,,,,,,,,,,,,,,,,,,,,,,,,,,,,,,,,,,,,,,,,,,,,,,,,,
,,,,,,61535f0be88cfbeb7bc0bf04,62bbfaf81c4ea81659aad419,2022-06-29_09h11.35.247,Colour_Asymmetry_Pilot,2022.1.3,Win32,60.02040694,62bbe60bf3d75ef465d3e404,0,123,123,79,1,fourthree,,,,,,,,,,,,,,,,,,,,,,,,,,,,,,,,,,,,,,,,,,,,,,,,,,,,,,,,,,,,,,,,,,,,,,,,,,,,,,,,,,,,,,,,,,,,,,,,,,,,,,,,,,,,,,,,,,,,,,,,,,,,,,,,,,,,,,,,,,,,,,,,,,,,,,,,
,,,,,,61535f0be88cfbeb7bc0bf04,62bbfaf81c4ea81659aad419,2022-06-29_09h11.35.247,Colour_Asymmetry_Pilot,2022.1.3,Win32,60.02040694,62bbe60bf3d75ef465d3e404,0,124,124,58,1,twoone,,,,,,,,,,,,,,,,,,,,,,,,,,,,,,,,,,,,,,,,,,,,,,,,,,,,,,,,,,,,,,,,,,,,,,,,,,,,,,,,,,,,,,,,,,,,,,,,,,,,,,,,,,,,,,,,,,,,,,,,,,,,,,,,,,,,,,,,,,,,,,,,,,,,,,,,
,,,,,,61535f0be88cfbeb7bc0bf04,62bbfaf81c4ea81659aad419,2022-06-29_09h11.35.247,Colour_Asymmetry_Pilot,2022.1.3,Win32,60.02040694,62bbe60bf3d75ef465d3e404,0,125,125,118,1,fourtwo,,,,,,,,,,,,,,,,,,,,,,,,,,,,,,,,,,,,,,,,,,,,,,,,,,,,,,,,,,,,,,,,,,,,,,,,,,,,,,,,,,,,,,,,,,,,,,,,,,,,,,,,,,,,,,,,,,,,,,,,,,,,,,,,,,,,,,,,,,,,,,,,,,,,,,,,
,,,,,,61535f0be88cfbeb7bc0bf04,62bbfaf81c4ea81659aad419,2022-06-29_09h11.35.247,Colour_Asymmetry_Pilot,2022.1.3,Win32,60.02040694,62bbe60bf3d75ef465d3e404,0,126,126,137,1,onethree,,,,,,,,,,,,,,,,,,,,,,,,,,,,,,,,,,,,,,,,,,,,,,,,,,,,,,,,,,,,,,,,,,,,,,,,,,,,,,,,,,,,,,,,,,,,,,,,,,,,,,,,,,,,,,,,,,,,,,,,,,,,,,,,,,,,,,,,,,,,,,,,,,,,,,,,
,,,,,,61535f0be88cfbeb7bc0bf04,62bbfaf81c4ea81659aad419,2022-06-29_09h11.35.247,Colour_Asymmetry_Pilot,2022.1.3,Win32,60.02040694,62bbe60bf3d75ef465d3e404,0,127,127,5,1,threefour,,,,,,,,,,,,,,,,,,,,,,,,,,,,,,,,,,,,,,,,,,,,,,,,,,,,,,,,,,,,,,,,,,,,,,,,,,,,,,,,,,,,,,,,,,,,,,,,,,,,,,,,,,,,,,,,,,,,,,,,,,,,,,,,,,,,,,,,,,,,,,,,,,,,,,,,
,,,,,,61535f0be88cfbeb7bc0bf04,62bbfaf81c4ea81659aad419,2022-06-29_09h11.35.247,Colour_Asymmetry_Pilot,2022.1.3,Win32,60.02040694,62bbe60bf3d75ef465d3e404,0,128,128,8,1,onetwo,,,,,,,,,,,,,,,,,,,,,,,,,,,,,,,,,,,,,,,,,,,,,,,,,,,,,,,,,,,,,,,,,,,,,,,,,,,,,,,,,,,,,,,,,,,,,,,,,,,,,,,,,,,,,,,,,,,,,,,,,,,,,,,,,,,,,,,,,,,,,,,,,,,,,,,,
,,,,,,61535f0be88cfbeb7bc0bf04,62bbfaf81c4ea81659aad419,2022-06-29_09h11.35.247,Colour_Asymmetry_Pilot,2022.1.3,Win32,60.02040694,62bbe60bf3d75ef465d3e404,0,129,129,88,1,onetwo,,,,,,,,,,,,,,,,,,,,,,,,,,,,,,,,,,,,,,,,,,,,,,,,,,,,,,,,,,,,,,,,,,,,,,,,,,,,,,,,,,,,,,,,,,,,,,,,,,,,,,,,,,,,,,,,,,,,,,,,,,,,,,,,,,,,,,,,,,,,,,,,,,,,,,,,
,,,,,,61535f0be88cfbeb7bc0bf04,62bbfaf81c4ea81659aad419,2022-06-29_09h11.35.247,Colour_Asymmetry_Pilot,2022.1.3,Win32,60.02040694,62bbe60bf3d75ef465d3e404,0,130,130,74,1,twoone,,,,,,,,,,,,,,,,,,,,,,,,,,,,,,,,,,,,,,,,,,,,,,,,,,,,,,,,,,,,,,,,,,,,,,,,,,,,,,,,,,,,,,,,,,,,,,,,,,,,,,,,,,,,,,,,,,,,,,,,,,,,,,,,,,,,,,,,,,,,,,,,,,,,,,,,
,,,,,,61535f0be88cfbeb7bc0bf04,62bbfaf81c4ea81659aad419,2022-06-29_09h11.35.247,Colour_Asymmetry_Pilot,2022.1.3,Win32,60.02040694,62bbe60bf3d75ef465d3e404,0,131,131,43,1,twofour,,,,,,,,,,,,,,,,,,,,,,,,,,,,,,,,,,,,,,,,,,,,,,,,,,,,,,,,,,,,,,,,,,,,,,,,,,,,,,,,,,,,,,,,,,,,,,,,,,,,,,,,,,,,,,,,,,,,,,,,,,,,,,,,,,,,,,,,,,,,,,,,,,,,,,,,
,,,,,,61535f0be88cfbeb7bc0bf04,62bbfaf81c4ea81659aad419,2022-06-29_09h11.35.247,Colour_Asymmetry_Pilot,2022.1.3,Win32,60.02040694,62bbe60bf3d75ef465d3e404,0,132,132,160,1,onetwo,,,,,,,,,,,,,,,,,,,,,,,,,,,,,,,,,,,,,,,,,,,,,,,,,,,,,,,,,,,,,,,,,,,,,,,,,,,,,,,,,,,,,,,,,,,,,,,,,,,,,,,,,,,,,,,,,,,,,,,,,,,,,,,,,,,,,,,,,,,,,,,,,,,,,,,,
,,,,,,61535f0be88cfbeb7bc0bf04,62bbfaf81c4ea81659aad419,2022-06-29_09h11.35.247,Colour_Asymmetry_Pilot,2022.1.3,Win32,60.02040694,62bbe60bf3d75ef465d3e404,0,133,133,83,1,twofour,,,,,,,,,,,,,,,,,,,,,,,,,,,,,,,,,,,,,,,,,,,,,,,,,,,,,,,,,,,,,,,,,,,,,,,,,,,,,,,,,,,,,,,,,,,,,,,,,,,,,,,,,,,,,,,,,,,,,,,,,,,,,,,,,,,,,,,,,,,,,,,,,,,,,,,,
,,,,,,61535f0be88cfbeb7bc0bf04,62bbfaf81c4ea81659aad419,2022-06-29_09h11.35.247,Colour_Asymmetry_Pilot,2022.1.3,Win32,60.02040694,62bbe60bf3d75ef465d3e404,0,134,134,96,1,onetwo,,,,,,,,,,,,,,,,,,,,,,,,,,,,,,,,,,,,,,,,,,,,,,,,,,,,,,,,,,,,,,,,,,,,,,,,,,,,,,,,,,,,,,,,,,,,,,,,,,,,,,,,,,,,,,,,,,,,,,,,,,,,,,,,,,,,,,,,,,,,,,,,,,,,,,,,
,,,,,,61535f0be88cfbeb7bc0bf04,62bbfaf81c4ea81659aad419,2022-06-29_09h11.35.247,Colour_Asymmetry_Pilot,2022.1.3,Win32,60.02040694,62bbe60bf3d75ef465d3e404,0,135,135,68,1,threeone,,,,,,,,,,,,,,,,,,,,,,,,,,,,,,,,,,,,,,,,,,,,,,,,,,,,,,,,,,,,,,,,,,,,,,,,,,,,,,,,,,,,,,,,,,,,,,,,,,,,,,,,,,,,,,,,,,,,,,,,,,,,,,,,,,,,,,,,,,,,,,,,,,,,,,,,
,,,,,,61535f0be88cfbeb7bc0bf04,62bbfaf81c4ea81659aad419,2022-06-29_09h11.35.247,Colour_Asymmetry_Pilot,2022.1.3,Win32,60.02040694,62bbe60bf3d75ef465d3e404,0,136,136,78,1,fourtwo,,,,,,,,,,,,,,,,,,,,,,,,,,,,,,,,,,,,,,,,,,,,,,,,,,,,,,,,,,,,,,,,,,,,,,,,,,,,,,,,,,,,,,,,,,,,,,,,,,,,,,,,,,,,,,,,,,,,,,,,,,,,,,,,,,,,,,,,,,,,,,,,,,,,,,,,
,,,,,,61535f0be88cfbeb7bc0bf04,62bbfaf81c4ea81659aad419,2022-06-29_09h11.35.247,Colour_Asymmetry_Pilot,2022.1.3,Win32,60.02040694,62bbe60bf3d75ef465d3e404,0,137,137,116,1,threeone,,,,,,,,,,,,,,,,,,,,,,,,,,,,,,,,,,,,,,,,,,,,,,,,,,,,,,,,,,,,,,,,,,,,,,,,,,,,,,,,,,,,,,,,,,,,,,,,,,,,,,,,,,,,,,,,,,,,,,,,,,,,,,,,,,,,,,,,,,,,,,,,,,,,,,,,
,,,,,,61535f0be88cfbeb7bc0bf04,62bbfaf81c4ea81659aad419,2022-06-29_09h11.35.247,Colour_Asymmetry_Pilot,2022.1.3,Win32,60.02040694,62bbe60bf3d75ef465d3e404,0,138,138,36,1,threeone,,,,,,,,,,,,,,,,,,,,,,,,,,,,,,,,,,,,,,,,,,,,,,,,,,,,,,,,,,,,,,,,,,,,,,,,,,,,,,,,,,,,,,,,,,,,,,,,,,,,,,,,,,,,,,,,,,,,,,,,,,,,,,,,,,,,,,,,,,,,,,,,,,,,,,,,
,,,,,,61535f0be88cfbeb7bc0bf04,62bbfaf81c4ea81659aad419,2022-06-29_09h11.35.247,Colour_Asymmetry_Pilot,2022.1.3,Win32,60.02040694,62bbe60bf3d75ef465d3e404,0,139,139,119,1,fourthree,,,,,,,,,,,,,,,,,,,,,,,,,,,,,,,,,,,,,,,,,,,,,,,,,,,,,,,,,,,,,,,,,,,,,,,,,,,,,,,,,,,,,,,,,,,,,,,,,,,,,,,,,,,,,,,,,,,,,,,,,,,,,,,,,,,,,,,,,,,,,,,,,,,,,,,,
,,,,,,61535f0be88cfbeb7bc0bf04,62bbfaf81c4ea81659aad419,2022-06-29_09h11.35.247,Colour_Asymmetry_Pilot,2022.1.3,Win32,60.02040694,62bbe60bf3d75ef465d3e404,0,140,140,77,1,threefour,,,,,,,,,,,,,,,,,,,,,,,,,,,,,,,,,,,,,,,,,,,,,,,,,,,,,,,,,,,,,,,,,,,,,,,,,,,,,,,,,,,,,,,,,,,,,,,,,,,,,,,,,,,,,,,,,,,,,,,,,,,,,,,,,,,,,,,,,,,,,,,,,,,,,,,,
,,,,,,61535f0be88cfbeb7bc0bf04,62bbfaf81c4ea81659aad419,2022-06-29_09h11.35.247,Colour_Asymmetry_Pilot,2022.1.3,Win32,60.02040694,62bbe60bf3d75ef465d3e404,0,141,141,10,1,twoone,,,,,,,,,,,,,,,,,,,,,,,,,,,,,,,,,,,,,,,,,,,,,,,,,,,,,,,,,,,,,,,,,,,,,,,,,,,,,,,,,,,,,,,,,,,,,,,,,,,,,,,,,,,,,,,,,,,,,,,,,,,,,,,,,,,,,,,,,,,,,,,,,,,,,,,,
,,,,,,61535f0be88cfbeb7bc0bf04,62bbfaf81c4ea81659aad419,2022-06-29_09h11.35.247,Colour_Asymmetry_Pilot,2022.1.3,Win32,60.02040694,62bbe60bf3d75ef465d3e404,0,142,142,115,1,twofour,,,,,,,,,,,,,,,,,,,,,,,,,,,,,,,,,,,,,,,,,,,,,,,,,,,,,,,,,,,,,,,,,,,,,,,,,,,,,,,,,,,,,,,,,,,,,,,,,,,,,,,,,,,,,,,,,,,,,,,,,,,,,,,,,,,,,,,,,,,,,,,,,,,,,,,,
,,,,,,61535f0be88cfbeb7bc0bf04,62bbfaf81c4ea81659aad419,2022-06-29_09h11.35.247,Colour_Asymmetry_Pilot,2022.1.3,Win32,60.02040694,62bbe60bf3d75ef465d3e404,0,143,143,102,1,fourtwo,,,,,,,,,,,,,,,,,,,,,,,,,,,,,,,,,,,,,,,,,,,,,,,,,,,,,,,,,,,,,,,,,,,,,,,,,,,,,,,,,,,,,,,,,,,,,,,,,,,,,,,,,,,,,,,,,,,,,,,,,,,,,,,,,,,,,,,,,,,,,,,,,,,,,,,,
,,,,,,61535f0be88cfbeb7bc0bf04,62bbfaf81c4ea81659aad419,2022-06-29_09h11.35.247,Colour_Asymmetry_Pilot,2022.1.3,Win32,60.02040694,62bbe60bf3d75ef465d3e404,0,144,144,156,1,threeone,,,,,,,,,,,,,,,,,,,,,,,,,,,,,,,,,,,,,,,,,,,,,,,,,,,,,,,,,,,,,,,,,,,,,,,,,,,,,,,,,,,,,,,,,,,,,,,,,,,,,,,,,,,,,,,,,,,,,,,,,,,,,,,,,,,,,,,,,,,,,,,,,,,,,,,,
,,,,,,61535f0be88cfbeb7bc0bf04,62bbfaf81c4ea81659aad419,2022-06-29_09h11.35.247,Colour_Asymmetry_Pilot,2022.1.3,Win32,60.02040694,62bbe60bf3d75ef465d3e404,0,145,145,136,1,onetwo,,,,,,,,,,,,,,,,,,,,,,,,,,,,,,,,,,,,,,,,,,,,,,,,,,,,,,,,,,,,,,,,,,,,,,,,,,,,,,,,,,,,,,,,,,,,,,,,,,,,,,,,,,,,,,,,,,,,,,,,,,,,,,,,,,,,,,,,,,,,,,,,,,,,,,,,
,,,,,,61535f0be88cfbeb7bc0bf04,62bbfaf81c4ea81659aad419,2022-06-29_09h11.35.247,Colour_Asymmetry_Pilot,2022.1.3,Win32,60.02040694,62bbe60bf3d75ef465d3e404,0,146,146,15,1,fourthree,,,,,,,,,,,,,,,,,,,,,,,,,,,,,,,,,,,,,,,,,,,,,,,,,,,,,,,,,,,,,,,,,,,,,,,,,,,,,,,,,,,,,,,,,,,,,,,,,,,,,,,,,,,,,,,,,,,,,,,,,,,,,,,,,,,,,,,,,,,,,,,,,,,,,,,,
,,,,,,61535f0be88cfbeb7bc0bf04,62bbfaf81c4ea81659aad419,2022-06-29_09h11.35.247,Colour_Asymmetry_Pilot,2022.1.3,Win32,60.02040694,62bbe60bf3d75ef465d3e404,0,147,147,126,1,fourtwo,,,,,,,,,,,,,,,,,,,,,,,,,,,,,,,,,,,,,,,,,,,,,,,,,,,,,,,,,,,,,,,,,,,,,,,,,,,,,,,,,,,,,,,,,,,,,,,,,,,,,,,,,,,,,,,,,,,,,,,,,,,,,,,,,,,,,,,,,,,,,,,,,,,,,,,,
,,,,,,61535f0be88cfbeb7bc0bf04,62bbfaf81c4ea81659aad419,2022-06-29_09h11.35.247,Colour_Asymmetry_Pilot,2022.1.3,Win32,60.02040694,62bbe60bf3d75ef465d3e404,0,148,148,134,1,fourtwo,,,,,,,,,,,,,,,,,,,,,,,,,,,,,,,,,,,,,,,,,,,,,,,,,,,,,,,,,,,,,,,,,,,,,,,,,,,,,,,,,,,,,,,,,,,,,,,,,,,,,,,,,,,,,,,,,,,,,,,,,,,,,,,,,,,,,,,,,,,,,,,,,,,,,,,,
,,,,,,61535f0be88cfbeb7bc0bf04,62bbfaf81c4ea81659aad419,2022-06-29_09h11.35.247,Colour_Asymmetry_Pilot,2022.1.3,Win32,60.02040694,62bbe60bf3d75ef465d3e404,0,149,149,148,1,threeone,,,,,,,,,,,,,,,,,,,,,,,,,,,,,,,,,,,,,,,,,,,,,,,,,,,,,,,,,,,,,,,,,,,,,,,,,,,,,,,,,,,,,,,,,,,,,,,,,,,,,,,,,,,,,,,,,,,,,,,,,,,,,,,,,,,,,,,,,,,,,,,,,,,,,,,,
,,,,,,61535f0be88cfbeb7bc0bf04,62bbfaf81c4ea81659aad419,2022-06-29_09h11.35.247,Colour_Asymmetry_Pilot,2022.1.3,Win32,60.02040694,62bbe60bf3d75ef465d3e404,0,150,150,54,1,fourtwo,,,,,,,,,,,,,,,,,,,,,,,,,,,,,,,,,,,,,,,,,,,,,,,,,,,,,,,,,,,,,,,,,,,,,,,,,,,,,,,,,,,,,,,,,,,,,,,,,,,,,,,,,,,,,,,,,,,,,,,,,,,,,,,,,,,,,,,,,,,,,,,,,,,,,,,,
,,,,,,61535f0be88cfbeb7bc0bf04,62bbfaf81c4ea81659aad419,2022-06-29_09h11.35.247,Colour_Asymmetry_Pilot,2022.1.3,Win32,60.02040694,62bbe60bf3d75ef465d3e404,0,151,151,146,1,twoone,,,,,,,,,,,,,,,,,,,,,,,,,,,,,,,,,,,,,,,,,,,,,,,,,,,,,,,,,,,,,,,,,,,,,,,,,,,,,,,,,,,,,,,,,,,,,,,,,,,,,,,,,,,,,,,,,,,,,,,,,,,,,,,,,,,,,,,,,,,,,,,,,,,,,,,,
,,,,,,61535f0be88cfbeb7bc0bf04,62bbfaf81c4ea81659aad419,2022-06-29_09h11.35.247,Colour_Asymmetry_Pilot,2022.1.3,Win32,60.02040694,62bbe60bf3d75ef465d3e404,0,152,152,147,1,twofour,,,,,,,,,,,,,,,,,,,,,,,,,,,,,,,,,,,,,,,,,,,,,,,,,,,,,,,,,,,,,,,,,,,,,,,,,,,,,,,,,,,,,,,,,,,,,,,,,,,,,,,,,,,,,,,,,,,,,,,,,,,,,,,,,,,,,,,,,,,,,,,,,,,,,,,,
,,,,,,61535f0be88cfbeb7bc0bf04,62bbfaf81c4ea81659aad419,2022-06-29_09h11.35.247,Colour_Asymmetry_Pilot,2022.1.3,Win32,60.02040694,62bbe60bf3d75ef465d3e404,0,153,153,70,1,fourtwo,,,,,,,,,,,,,,,,,,,,,,,,,,,,,,,,,,,,,,,,,,,,,,,,,,,,,,,,,,,,,,,,,,,,,,,,,,,,,,,,,,,,,,,,,,,,,,,,,,,,,,,,,,,,,,,,,,,,,,,,,,,,,,,,,,,,,,,,,,,,,,,,,,,,,,,,
,,,,,,61535f0be88cfbeb7bc0bf04,62bbfaf81c4ea81659aad419,2022-06-29_09h11.35.247,Colour_Asymmetry_Pilot,2022.1.3,Win32,60.02040694,62bbe60bf3d75ef465d3e404,0,154,154,80,1,onetwo,,,,,,,,,,,,,,,,,,,,,,,,,,,,,,,,,,,,,,,,,,,,,,,,,,,,,,,,,,,,,,,,,,,,,,,,,,,,,,,,,,,,,,,,,,,,,,,,,,,,,,,,,,,,,,,,,,,,,,,,,,,,,,,,,,,,,,,,,,,,,,,,,,,,,,,,
,,,,,,61535f0be88cfbeb7bc0bf04,62bbfaf81c4ea81659aad419,2022-06-29_09h11.35.247,Colour_Asymmetry_Pilot,2022.1.3,Win32,60.02040694,62bbe60bf3d75ef465d3e404,0,155,155,129,1,onethree,,,,,,,,,,,,,,,,,,,,,,,,,,,,,,,,,,,,,,,,,,,,,,,,,,,,,,,,,,,,,,,,,,,,,,,,,,,,,,,,,,,,,,,,,,,,,,,,,,,,,,,,,,,,,,,,,,,,,,,,,,,,,,,,,,,,,,,,,,,,,,,,,,,,,,,,
,,,,,,61535f0be88cfbeb7bc0bf04,62bbfaf81c4ea81659aad419,2022-06-29_09h11.35.247,Colour_Asymmetry_Pilot,2022.1.3,Win32,60.02040694,62bbe60bf3d75ef465d3e404,0,156,156,1,1,onethree,,,,,,,,,,,,,,,,,,,,,,,,,,,,,,,,,,,,,,,,,,,,,,,,,,,,,,,,,,,,,,,,,,,,,,,,,,,,,,,,,,,,,,,,,,,,,,,,,,,,,,,,,,,,,,,,,,,,,,,,,,,,,,,,,,,,,,,,,,,,,,,,,,,,,,,,
,,,,,,61535f0be88cfbeb7bc0bf04,62bbfaf81c4ea81659aad419,2022-06-29_09h11.35.247,Colour_Asymmetry_Pilot,2022.1.3,Win32,60.02040694,62bbe60bf3d75ef465d3e404,0,157,157,154,1,twoone,,,,,,,,,,,,,,,,,,,,,,,,,,,,,,,,,,,,,,,,,,,,,,,,,,,,,,,,,,,,,,,,,,,,,,,,,,,,,,,,,,,,,,,,,,,,,,,,,,,,,,,,,,,,,,,,,,,,,,,,,,,,,,,,,,,,,,,,,,,,,,,,,,,,,,,,
,,,,,,61535f0be88cfbeb7bc0bf04,62bbfaf81c4ea81659aad419,2022-06-29_09h11.35.247,Colour_Asymmetry_Pilot,2022.1.3,Win32,60.02040694,62bbe60bf3d75ef465d3e404,0,158,158,53,1,threefour,,,,,,,,,,,,,,,,,,,,,,,,,,,,,,,,,,,,,,,,,,,,,,,,,,,,,,,,,,,,,,,,,,,,,,,,,,,,,,,,,,,,,,,,,,,,,,,,,,,,,,,,,,,,,,,,,,,,,,,,,,,,,,,,,,,,,,,,,,,,,,,,,,,,,,,,
,,,,,,61535f0be88cfbeb7bc0bf04,62bbfaf81c4ea81659aad419,2022-06-29_09h11.35.247,Colour_Asymmetry_Pilot,2022.1.3,Win32,60.02040694,62bbe60bf3d75ef465d3e404,0,159,159,85,1,threefour,,,,,,,,,,,,,,,,,,,,,,,,,,,,,,,,,,,,,,,,,,,,,,,,,,,,,,,,,,,,,,,,,,,,,,,,,,,,,,,,,,,,,,,,,,,,,,,,,,,,,,,,,,,,,,,,,,,,,,,,,,,,,,,,,,,,,,,,,,,,,,,,,,,,,,,,
,,,,,,61535f0be88cfbeb7bc0bf04,62bbfaf81c4ea81659aad419,2022-06-29_09h11.35.247,Colour_Asymmetry_Pilot,2022.1.3,Win32,60.02040694,62bbe60bf3d75ef465d3e404,0,160,160,86,1,fourtwo,,,,,,,,,,,,,,,,,,,,,,,,,,,,,,,,,,,,,,,,,,,,,,,,,,,,,,,,,,,,,,,,,,,,,,,,,,,,,,,,,,,,,,,,,,,,,,,,,,,,,,,,,,,,,,,,,,,,,,,,,,,,,,,,,,,,,,,,,,,,,,,,,,,,,,,,
,,,,,,61535f0be88cfbeb7bc0bf04,62bbfaf81c4ea81659aad419,2022-06-29_09h11.35.247,Colour_Asymmetry_Pilot,2022.1.3,Win32,60.02040694,62bbe60bf3d75ef465d3e404,0,161,161,23,1,fourthree,,,,,,,,,,,,,,,,,,,,,,,,,,,,,,,,,,,,,,,,,,,,,,,,,,,,,,,,,,,,,,,,,,,,,,,,,,,,,,,,,,,,,,,,,,,,,,,,,,,,,,,,,,,,,,,,,,,,,,,,,,,,,,,,,,,,,,,,,,,,,,,,,,,,,,,,
,,,,,,61535f0be88cfbeb7bc0bf04,62bbfaf81c4ea81659aad419,2022-06-29_09h11.35.247,Colour_Asymmetry_Pilot,2022.1.3,Win32,60.02040694,62bbe60bf3d75ef465d3e404,,,,,,,space,3.6918,space,22.8824,space,41.2616,space,12.354,space,3.1133,space,11.9763,"[-0.4746,-0.0354000000000001,0.5449999999999999]",threefour,"[-0.2942,-0.7648,-0.7492000000000001]",-4,22.3248,-32,94,1,0,0,response7disk_5,-3,-4,1,0,0,rectangle_8,-3,-4,1,0,0,3,-3,-4,1,0,0,0,0,0,0,1,,,,,,,,,,,,,,,,,,,,,,,,,,,,,,,,,,,,,,,,,,,,,,,,,,,,,,,,,,,,,,,,,,,,,,,,,,,,,,,,,,,,,,,,,,,,,,,,,,,,,,,,,,,
,,,,,,61535f0be88cfbeb7bc0bf04,62bbfaf81c4ea81659aad419,2022-06-29_09h11.35.247,Colour_Asymmetry_Pilot,2022.1.3,Win32,60.02040694,62bbe60bf3d75ef465d3e404,,,,,,,,,,,,,,,,,,,"[0.23920000000000008,0.2704,0.16060000000000008]",onetwo,"[-0.9688,-0.7412000000000001,-0.4902000000000001]",-4,3.7573,-48,101,1,0,0,response7disk_5,-1,5,1,0,0,rectangle_8,-1,5,1,0,0,3,-1,5,1,0,0,1,0,1,0,1,,,,,,,,,,,,,,,,,,,,,,,,,,,,,,,,,,,,,,,,,,,,,,,,,,,,,,,,,,,,,,,,,,,,,,,,,,,,,,,,,,,,,,,,,,,,,,,,,,,,,,,,,,,
,,,,,,61535f0be88cfbeb7bc0bf04,62bbfaf81c4ea81659aad419,2022-06-29_09h11.35.247,Colour_Asymmetry_Pilot,2022.1.3,Win32,60.02040694,62bbe60bf3d75ef465d3e404,,,,,,,,,,,,,,,,,,,"[-0.4746,-0.0354000000000001,0.5449999999999999]",threeone,"[0.11359999999999992,0.6312,0.5213999999999999]",-4,3.8908,-53,108,1,0,0,response7disk_5,-11,10,1,0,0,rectangle_8,87,30,1,0,0,3,-2,-3,1,0,0,2,0,2,0,1,response1disk_7,6,rectangle_4,,,,,,,,,,,,,,,,,,,,,,,,,,,,,,,,,,,,,,,,,,,,,,,,,,,,,,,,,,,,,,,,,,,,,,,,,,,,,,,,,,,,,,,,,,,,,,,,,,,,,,,,
,,,,,,61535f0be88cfbeb7bc0bf04,62bbfaf81c4ea81659aad419,2022-06-29_09h11.35.247,Colour_Asymmetry_Pilot,2022.1.3,Win32,60.02040694,62bbe60bf3d75ef465d3e404,,,,,,,,,,,,,,,,,,,"[-0.5922000000000001,-0.7492000000000001,-0.5296000000000001]",onethree,"[-0.5452,-0.608,0.2470000000000001]",-4,4.6374,-49,99,1,0,0,response7disk_5,5,7,1,0,0,rectangle_8,91,32,1,0,0,3,-4,6,1,0,0,3,0,3,0,1,response1disk_7,6,rectangle_4,,,,,,,,,,,,,,,,,,,,,,,,,,,,,,,,,,,,,,,,,,,,,,,,,,,,,,,,,,,,,,,,,,,,,,,,,,,,,,,,,,,,,,,,,,,,,,,,,,,,,,,,
,,,,,,61535f0be88cfbeb7bc0bf04,62bbfaf81c4ea81659aad419,2022-06-29_09h11.35.247,Colour_Asymmetry_Pilot,2022.1.3,Win32,60.02040694,62bbe60bf3d75ef465d3e404,,,,,,,,,,,,,,,,,,,"[0.22340000000000004,-0.9296,-0.7884]",fourtwo,"[-0.9766,-0.34920000000000007,0.2156]",-4,4.0077,-51,101,1,0,0,response7disk_5,-6,6,1,0,0,rectangle_8,-6,6,1,0,0,3,-6,6,1,0,0,4,0,4,0,1,,,,,,,,,,,,,,,,,,,,,,,,,,,,,,,,,,,,,,,,,,,,,,,,,,,,,,,,,,,,,,,,,,,,,,,,,,,,,,,,,,,,,,,,,,,,,,,,,,,,,,,,,,,
,,,,,,61535f0be88cfbeb7bc0bf04,62bbfaf81c4ea81659aad419,2022-06-29_09h11.35.247,Colour_Asymmetry_Pilot,2022.1.3,Win32,60.02040694,62bbe60bf3d75ef465d3e404,,,,,,,,,,,,,,,,,,,"[0.6625999999999999,0.4980000000000002,-0.357]",twoone,"[0.04299999999999993,0.16060000000000008,-0.6628000000000001]",4,2.2596,40,111,1,0,0,response1disk_5,-4,-1,1,0,0,rectangle_8,-4,-1,1,0,0,3,-4,-1,1,0,0,5,0,5,0,1,,,,,,,,,,,,,,,,,,,,,,,,,,,,,,,,,,,,,,,,,,,,,,,,,,,,,,,,,,,,,,,,,,,,,,,,,,,,,,,,,,,,,,,,,,,,,,,,,,,,,,,,,,,
,,,,,,61535f0be88cfbeb7bc0bf04,62bbfaf81c4ea81659aad419,2022-06-29_09h11.35.247,Colour_Asymmetry_Pilot,2022.1.3,Win32,60.02040694,62bbe60bf3d75ef465d3e404,,,,,,,,,,,,,,,,,,,"[0.05879999999999996,0.2784,0.5841999999999998]",twofour,"[0.9686000000000001,0.5763999999999998,0.11359999999999992]",-4,2.9719,-28,88,1,0,0,response7disk_5,-1,-4,1,0,0,rectangle_8,-1,-4,1,0,0,3,-1,-4,1,0,0,6,0,6,0,1,,,,,,,,,,,,,,,,,,,,,,,,,,,,,,,,,,,,,,,,,,,,,,,,,,,,,,,,,,,,,,,,,,,,,,,,,,,,,,,,,,,,,,,,,,,,,,,,,,,,,,,,,,,
,,,,,,61535f0be88cfbeb7bc0bf04,62bbfaf81c4ea81659aad419,2022-06-29_09h11.35.247,Colour_Asymmetry_Pilot,2022.1.3,Win32,60.02040694,62bbe60bf3d75ef465d3e404,,,,,,,,,,,,,,,,,,,,threefour,,-4,2.3561,,,,,,,,,,,,,,,,,,,,,,,,,,,,,,,,space,4.243,"[-0.9138,-0.5296000000000001,-0.5529999999999999]","[0.9763999999999999,0.8588,-0.05900000000000005]",-46,104,1,0,0,response7disk,1,-10,1,0,0,rectangle,1,-10,1,0,0,,2,0.0022,0,1,-10,1,0,0,0,0,0,134,1,53,second,,,,,,,,,,,,,,,,,,,,,,,,,,,,,,,,,,,,,,,,,,,,,,,,,,,,,,,,,,,,,,,,,,,
,,,,,,61535f0be88cfbeb7bc0bf04,62bbfaf81c4ea81659aad419,2022-06-29_09h11.35.247,Colour_Asymmetry_Pilot,2022.1.3,Win32,60.02040694,62bbe60bf3d75ef465d3e404,,,,,,,,,,,,,,,,,,,,twoone,,4,1.3532,,,,,,,,,,,,,,,,,,,,,,,,,,,,,,,,,,"[0.6547999999999998,-0.043199999999999905,-0.011800000000000033]","[0.7646000000000002,0.07440000000000002,0.2704]",38,101,1,0,0,response1disk,-3,-3,1,0,0,rectangle,-3,-3,1,0,0,,3,0.0043,0,-3,-3,1,0,0,0,1,1,16,1,16,first,,,,,,,,,,,,,,,,,,,,,,,,,,,,,,,,,,,,,,,,,,,,,,,,,,,,,,,,,,,,,,,,,,,
,,,,,,61535f0be88cfbeb7bc0bf04,62bbfaf81c4ea81659aad419,2022-06-29_09h11.35.247,Colour_Asymmetry_Pilot,2022.1.3,Win32,60.02040694,62bbe60bf3d75ef465d3e404,,,,,,,,,,,,,,,,,,,,onethree,,-4,1.7365,,,,,,,,,,,,,,,,,,,,,,,,,,,,,,,,,,"[-0.9844,-0.9688,-0.9922]","[0.9763999999999999,0.30979999999999985,-0.6786]",-52,103,1,0,0,response7disk,-6,-1,1,0,0,rectangle,-6,-1,1,0,0,,1,0.0019,0,-6,-1,1,0,0,0,2,2,52,1,52,first,,,,,,,,,,,,,,,,,,,,,,,,,,,,,,,,,,,,,,,,,,,,,,,,,,,,,,,,,,,,,,,,,,,
,,,,,,61535f0be88cfbeb7bc0bf04,62bbfaf81c4ea81659aad419,2022-06-29_09h11.35.247,Colour_Asymmetry_Pilot,2022.1.3,Win32,60.02040694,62bbe60bf3d75ef465d3e404,,,,,,,,,,,,,,,,,,,,onethree,,-4,1.2859,,,,,,,,,,,,,,,,,,,,,,,,,,,,,,,,,,"[0.6547999999999998,-0.043199999999999905,-0.011800000000000033]","[-0.9766,-0.34920000000000007,0.2156]",-42,86,1,0,0,response7disk,5,-8,1,0,0,rectangle,5,-8,1,0,0,,2,0.0017,0,5,-8,1,0,0,0,3,3,21,1,21,first,,,,,,,,,,,,,,,,,,,,,,,,,,,,,,,,,,,,,,,,,,,,,,,,,,,,,,,,,,,,,,,,,,,
,,,,,,61535f0be88cfbeb7bc0bf04,62bbfaf81c4ea81659aad419,2022-06-29_09h11.35.247,Colour_Asymmetry_Pilot,2022.1.3,Win32,60.02040694,62bbe60bf3d75ef465d3e404,,,,,,,,,,,,,,,,,,,,onethree,,4,1.2021,,,,,,,,,,,,,,,,,,,,,,,,,,,,,,,,,,"[0.9842,0.7409999999999999,-0.6628000000000001]","[0.7018,0.7802,-0.16079999999999994]",43,98,1,0,0,response1disk,1,-6,1,0,0,rectangle,1,-6,1,0,0,,1,0.002,0,1,-6,1,0,0,0,4,4,68,1,68,first,,,,,,,,,,,,,,,,,,,,,,,,,,,,,,,,,,,,,,,,,,,,,,,,,,,,,,,,,,,,,,,,,,,
,,,,,,61535f0be88cfbeb7bc0bf04,62bbfaf81c4ea81659aad419,2022-06-29_09h11.35.247,Colour_Asymmetry_Pilot,2022.1.3,Win32,60.02040694,62bbe60bf3d75ef465d3e404,,,,,,,,,,,,,,,,,,,,onetwo,,4,1.2147,,,,,,,,,,,,,,,,,,,,,,,,,,,,,,,,,,"[0.23120000000000007,-0.7726,-0.34120000000000006]","[0.30180000000000007,-0.7884,-0.9844]",32,88,1,0,0,response1disk,1,1,1,0,0,rectangle,1,1,1,0,0,,3,0.0019,0,1,1,1,0,0,0,5,5,90,1,9,second,,,,,,,,,,,,,,,,,,,,,,,,,,,,,,,,,,,,,,,,,,,,,,,,,,,,,,,,,,,,,,,,,,,
,,,,,,61535f0be88cfbeb7bc0bf04,62bbfaf81c4ea81659aad419,2022-06-29_09h11.35.247,Colour_Asymmetry_Pilot,2022.1.3,Win32,60.02040694,62bbe60bf3d75ef465d3e404,,,,,,,,,,,,,,,,,,,,threeone,,-4,0.8187,,,,,,,,,,,,,,,,,,,,,,,,,,,,,,,,,,"[-0.20799999999999996,-0.655,-0.01980000000000004]","[-0.24719999999999998,-0.0354000000000001,0.3175999999999999]",-34,94,1,0,0,response7disk,3,1,1,0,0,rectangle,3,1,1,0,0,,1,0.0023,0,3,1,1,0,0,0,6,6,144,1,63,second,,,,,,,,,,,,,,,,,,,,,,,,,,,,,,,,,,,,,,,,,,,,,,,,,,,,,,,,,,,,,,,,,,,
,,,,,,61535f0be88cfbeb7bc0bf04,62bbfaf81c4ea81659aad419,2022-06-29_09h11.35.247,Colour_Asymmetry_Pilot,2022.1.3,Win32,60.02040694,62bbe60bf3d75ef465d3e404,,,,,,,,,,,,,,,,,,,,onetwo,,-4,1.6866,,,,,,,,,,,,,,,,,,,,,,,,,,,,,,,,,,"[0.9763999999999999,-0.1137999999999999,-0.6314]","[-0.9766,-0.34920000000000007,0.2156]",-41,103,1,0,0,response7disk,-3,5,1,0,0,rectangle,-3,5,1,0,0,,1,0.0003,0,-3,5,1,0,0,0,7,7,88,1,7,second,,,,,,,,,,,,,,,,,,,,,,,,,,,,,,,,,,,,,,,,,,,,,,,,,,,,,,,,,,,,,,,,,,,
,,,,,,61535f0be88cfbeb7bc0bf04,62bbfaf81c4ea81659aad419,2022-06-29_09h11.35.247,Colour_Asymmetry_Pilot,2022.1.3,Win32,60.02040694,62bbe60bf3d75ef465d3e404,,,,,,,,,,,,,,,,,,,,threeone,,-3,1.7035,,,,,,,,,,,,,,,,,,,,,,,,,,,,,,,,,,"[0.11359999999999992,0.6312,0.5213999999999999]","[0.9763999999999999,0.8588,-0.05900000000000005]",-63,36,1,0,0,response7disk,-10,1,1,0,0,rectangle,-10,1,1,0,0,,3,0.0019,0,-10,1,1,0,0,0,8,8,6,1,6,first,,,,,,,,,,,,,,,,,,,,,,,,,,,,,,,,,,,,,,,,,,,,,,,,,,,,,,,,,,,,,,,,,,,
,,,,,,61535f0be88cfbeb7bc0bf04,62bbfaf81c4ea81659aad419,2022-06-29_09h11.35.247,Colour_Asymmetry_Pilot,2022.1.3,Win32,60.02040694,62bbe60bf3d75ef465d3e404,,,,,,,,,,,,,,,,,,,,twoone,,-4,4.1572,,,,,,,,,,,,,,,,,,,,,,,,,,,,,,,,,,"[-0.07459999999999989,0.12139999999999995,-0.9922]","[-0.011800000000000033,-0.906,-0.45100000000000007]",-46,90,1,0,0,response7disk,-5,6,1,0,0,rectangle,-5,6,1,0,0,,2,0.002,0,-5,6,1,0,0,0,9,9,70,1,70,first,,,,,,,,,,,,,,,,,,,,,,,,,,,,,,,,,,,,,,,,,,,,,,,,,,,,,,,,,,,,,,,,,,,
,,,,,,61535f0be88cfbeb7bc0bf04,62bbfaf81c4ea81659aad419,2022-06-29_09h11.35.247,Colour_Asymmetry_Pilot,2022.1.3,Win32,60.02040694,62bbe60bf3d75ef465d3e404,,,,,,,,,,,,,,,,,,,,threeone,,4,1.837,,,,,,,,,,,,,,,,,,,,,,,,,,,,,,,,,,"[-0.48240000000000005,0.3175999999999999,0.2156]","[-0.9296,-0.12959999999999994,-0.043199999999999905]",65,88,1,0,0,response1disk,3,6,1,0,0,rectangle,3,6,1,0,0,,2,0.0004,0,3,6,1,0,0,0,10,10,29,1,29,first,,,,,,,,,,,,,,,,,,,,,,,,,,,,,,,,,,,,,,,,,,,,,,,,,,,,,,,,,,,,,,,,,,,
,,,,,,61535f0be88cfbeb7bc0bf04,62bbfaf81c4ea81659aad419,2022-06-29_09h11.35.247,Colour_Asymmetry_Pilot,2022.1.3,Win32,60.02040694,62bbe60bf3d75ef465d3e404,,,,,,,,,,,,,,,,,,,,fourtwo,,-2,6.8628,,,,,,,,,,,,,,,,,,,,,,,,,,,,,,,,,,"[-0.48240000000000005,0.3175999999999999,0.2156]","[-0.8198,-0.5138,-0.7492000000000001]",-78,-27,1,0,0,response5disk,-13,6,1,0,0,rectangle,-13,6,1,0,0,,2,0.0005,0,-13,6,1,0,0,0,11,11,33,1,33,first,,,,,,,,,,,,,,,,,,,,,,,,,,,,,,,,,,,,,,,,,,,,,,,,,,,,,,,,,,,,,,,,,,,
,,,,,,61535f0be88cfbeb7bc0bf04,62bbfaf81c4ea81659aad419,2022-06-29_09h11.35.247,Colour_Asymmetry_Pilot,2022.1.3,Win32,60.02040694,62bbe60bf3d75ef465d3e404,,,,,,,,,,,,,,,,,,,,twoone,,-4,1.319,,,,,,,,,,,,,,,,,,,,,,,,,,,,,,,,,,"[0.3802000000000001,0.19199999999999995,-0.6394]","[-0.34920000000000007,-0.702,-0.5216]",-39,68,1,0,0,response7disk,1,15,1,0,0,rectangle,1,15,1,0,0,,3,0.0017,0,1,15,1,0,0,0,12,12,157,1,76,second,,,,,,,,,,,,,,,,,,,,,,,,,,,,,,,,,,,,,,,,,,,,,,,,,,,,,,,,,,,,,,,,,,,
,,,,,,61535f0be88cfbeb7bc0bf04,62bbfaf81c4ea81659aad419,2022-06-29_09h11.35.247,Colour_Asymmetry_Pilot,2022.1.3,Win32,60.02040694,62bbe60bf3d75ef465d3e404,,,,,,,,,,,,,,,,,,,,onetwo,,-4,0.9573,,,,,,,,,,,,,,,,,,,,,,,,,,,,,,,,,,"[-0.4668,-0.8746,-0.2942]","[0.34099999999999997,0.5841999999999998,-0.9844]",-48,83,1,0,0,response7disk,-3,1,1,0,0,rectangle,-3,1,1,0,0,,1,0.0023,0,-3,1,1,0,0,0,13,13,120,1,39,second,,,,,,,,,,,,,,,,,,,,,,,,,,,,,,,,,,,,,,,,,,,,,,,,,,,,,,,,,,,,,,,,,,,
,,,,,,61535f0be88cfbeb7bc0bf04,62bbfaf81c4ea81659aad419,2022-06-29_09h11.35.247,Colour_Asymmetry_Pilot,2022.1.3,Win32,60.02040694,62bbe60bf3d75ef465d3e404,,,,,,,,,,,,,,,,,,,,threeone,,-4,0.5504,,,,,,,,,,,,,,,,,,,,,,,,,,,,,,,,,,"[-0.9766,-0.34920000000000007,0.2156]","[0.9763999999999999,-0.1137999999999999,-0.6314]",-50,84,1,0,0,response7disk,-2,1,1,0,0,rectangle,-2,1,1,0,0,,3,0.0017,0,-2,1,1,0,0,0,14,14,7,1,7,first,,,,,,,,,,,,,,,,,,,,,,,,,,,,,,,,,,,,,,,,,,,,,,,,,,,,,,,,,,,,,,,,,,,
,,,,,,61535f0be88cfbeb7bc0bf04,62bbfaf81c4ea81659aad419,2022-06-29_09h11.35.247,Colour_Asymmetry_Pilot,2022.1.3,Win32,60.02040694,62bbe60bf3d75ef465d3e404,,,,,,,,,,,,,,,,,,,,threefour,,-3,2.0709,,,,,,,,,,,,,,,,,,,,,,,,,,,,,,,,,,"[0.34099999999999997,0.5841999999999998,-0.9844]","[0.7802,-0.23140000000000005,-0.20799999999999996]",-83,49,1,0,0,response7disk,3,-8,1,0,0,rectangle,3,-8,1,0,0,,2,0.0017,0,3,-8,1,0,0,0,15,15,154,1,73,second,,,,,,,,,,,,,,,,,,,,,,,,,,,,,,,,,,,,,,,,,,,,,,,,,,,,,,,,,,,,,,,,,,,
,,,,,,61535f0be88cfbeb7bc0bf04,62bbfaf81c4ea81659aad419,2022-06-29_09h11.35.247,Colour_Asymmetry_Pilot,2022.1.3,Win32,60.02040694,62bbe60bf3d75ef465d3e404,,,,,,,,,,,,,,,,,,,,twofour,,4,0.7514,,,,,,,,,,,,,,,,,,,,,,,,,,,,,,,,,,"[0.37240000000000006,-0.050999999999999934,-0.5216]","[0.2784,-0.31000000000000005,-0.5452]",47,107,1,0,0,response1disk,0,-5,1,0,0,rectangle,0,-5,1,0,0,,1,0.0019,0,0,-5,1,0,0,0,16,16,103,1,22,second,,,,,,,,,,,,,,,,,,,,,,,,,,,,,,,,,,,,,,,,,,,,,,,,,,,,,,,,,,,,,,,,,,,
,,,,,,61535f0be88cfbeb7bc0bf04,62bbfaf81c4ea81659aad419,2022-06-29_09h11.35.247,Colour_Asymmetry_Pilot,2022.1.3,Win32,60.02040694,62bbe60bf3d75ef465d3e404,,,,,,,,,,,,,,,,,,,,onethree,,-3,1.4194,,,,,,,,,,,,,,,,,,,,,,,,,,,,,,,,,,"[-0.4902000000000001,0.2704,-0.45899999999999996]","[0.7018,0.7176,0.6155999999999999]",-74,37,1,0,0,response7disk,-8,5,1,0,0,rectangle,-8,5,1,0,0,,1,0.0002,0,-8,5,1,0,0,0,17,17,93,1,12,second,,,,,,,,,,,,,,,,,,,,,,,,,,,,,,,,,,,,,,,,,,,,,,,,,,,,,,,,,,,,,,,,,,,
,,,,,,61535f0be88cfbeb7bc0bf04,62bbfaf81c4ea81659aad419,2022-06-29_09h11.35.247,Colour_Asymmetry_Pilot,2022.1.3,Win32,60.02040694,62bbe60bf3d75ef465d3e404,,,,,,,,,,,,,,,,,,,,fourthree,,-3,0.8183,,,,,,,,,,,,,,,,,,,,,,,,,,,,,,,,,,"[-0.9688,-0.38039999999999996,-0.41979999999999995]","[-0.5922000000000001,-0.7492000000000001,-0.5296000000000001]",-84,34,1,0,0,response7disk,-11,0,1,0,0,rectangle,-11,0,1,0,0,,1,0.0008,0,-11,0,1,0,0,0,18,18,65,1,65,first,,,,,,,,,,,,,,,,,,,,,,,,,,,,,,,,,,,,,,,,,,,,,,,,,,,,,,,,,,,,,,,,,,,
,,,,,,61535f0be88cfbeb7bc0bf04,62bbfaf81c4ea81659aad419,2022-06-29_09h11.35.247,Colour_Asymmetry_Pilot,2022.1.3,Win32,60.02040694,62bbe60bf3d75ef465d3e404,,,,,,,,,,,,,,,,,,,,onetwo,,2,2.9559,,,,,,,,,,,,,,,,,,,,,,,,,,,,,,,,,,"[-0.9766,-0.34920000000000007,0.2156]","[-0.9688,-0.38039999999999996,-0.41979999999999995]",101,-42,1,0,0,response3disk,6,4,1,0,0,rectangle,6,4,1,0,0,,1,0.0004,0,6,4,1,0,0,0,19,19,56,1,56,first,,,,,,,,,,,,,,,,,,,,,,,,,,,,,,,,,,,,,,,,,,,,,,,,,,,,,,,,,,,,,,,,,,,
,,,,,,61535f0be88cfbeb7bc0bf04,62bbfaf81c4ea81659aad419,2022-06-29_09h11.35.247,Colour_Asymmetry_Pilot,2022.1.3,Win32,60.02040694,62bbe60bf3d75ef465d3e404,,,,,,,,,,,,,,,,,,,,threeone,,3,0.9522,,,,,,,,,,,,,,,,,,,,,,,,,,,,,,,,,,"[0.7018,0.7802,-0.16079999999999994]","[0.796,0.2156,-0.27859999999999996]",101,42,1,0,0,response1disk,0,-2,1,0,0,rectangle,0,-2,1,0,0,,1,0.0004,0,0,-2,1,0,0,0,20,20,83,1,2,second,,,,,,,,,,,,,,,,,,,,,,,,,,,,,,,,,,,,,,,,,,,,,,,,,,,,,,,,,,,,,,,,,,,
