trials.thisRepN,trials.thisTrialN,trials.thisN,trials.thisIndex,trials.ran,Colourcodes,participant,session,date,expName,psychopyVersion,OS,frameRate,study_id,trials_4.thisRepN,trials_4.thisTrialN,trials_4.thisN,trials_4.thisIndex,trials_4.ran,StimulusPos,key_resp.keys,key_resp.rt,key_resp_2.keys,key_resp_2.rt,key_resp_15.keys,key_resp_15.rt,key_resp_17.keys,key_resp_17.rt,key_resp_9.keys,key_resp_9.rt,key_resp_10.keys,key_resp_10.rt,Circle1_col,Ecc,Circle2_col,similarity,response_time,mouse_5.x,mouse_5.y,mouse_5.leftButton,mouse_5.midButton,mouse_5.rightButton,mouse_5.clicked_name,mouse_10.x,mouse_10.y,mouse_10.leftButton,mouse_10.midButton,mouse_10.rightButton,mouse_10.clicked_name,mouse_7.x,mouse_7.y,mouse_7.leftButton,mouse_7.midButton,mouse_7.rightButton,catchnumberprac,mouse_6.x,mouse_6.y,mouse_6.leftButton,mouse_6.midButton,mouse_6.rightButton,duringprac.thisRepN,duringprac.thisTrialN,duringprac.thisN,duringprac.thisIndex,duringprac.ran,mouse_7.clicked_name,catchprac,mouse_6.clicked_name,key_resp_22.keys,key_resp_22.rt,Circle1_colour,Circle2_colour,mouse.x,mouse.y,mouse.leftButton,mouse.midButton,mouse.rightButton,mouse.clicked_name,mouse_2.x,mouse_2.y,mouse_2.leftButton,mouse_2.midButton,mouse_2.rightButton,mouse_2.clicked_name,mouse_3.x,mouse_3.y,mouse_3.leftButton,mouse_3.midButton,mouse_3.rightButton,catchresponse,catchnumber,response_time_catch,Catch,mouse_11.x,mouse_11.y,mouse_11.leftButton,mouse_11.midButton,mouse_11.rightButton,trials_2.thisRepN,trials_2.thisTrialN,trials_2.thisN,trials_2.thisIndex,trials_2.ran,Colourpair,Temporder,mouse_3.clicked_name,mouse_11.clicked_name,trials_3.thisRepN,trials_3.thisTrialN,trials_3.thisN,trials_3.thisIndex,trials_3.ran,key_resp_instr_Ishi.keys,key_resp_instr_Ishi.rt,Ishi_trial_keyresp.keys,Ishi_trial_keyresp.rt,Ishi_textbox.text,Ishi_loop.thisRepN,Ishi_loop.thisTrialN,Ishi_loop.thisN,Ishi_loop.thisIndex,Ishi_loop.ran,imageaddress,textbox.text,mouse_4.x,mouse_4.y,mouse_4.leftButton,mouse_4.midButton,mouse_4.rightButton,mouse_4.clicked_name,textbox_2.text,mouse_8.x,mouse_8.y,mouse_8.leftButton,mouse_8.midButton,mouse_8.rightButton,mouse_8.clicked_name,textbox_3.text,mouse_9.x,mouse_9.y,mouse_9.leftButton,mouse_9.midButton,mouse_9.rightButton,mouse_9.clicked_name,textbox_4.text,mouse_12.x,mouse_12.y,mouse_12.leftButton,mouse_12.midButton,mouse_12.rightButton,mouse_12.clicked_name,textbox_5.text,mouse_13.x,mouse_13.y,mouse_13.leftButton,mouse_13.midButton,mouse_13.rightButton,mouse_13.clicked_name,textbox_6.text,mouse_14.x,mouse_14.y,mouse_14.leftButton,mouse_14.midButton,mouse_14.rightButton,mouse_14.clicked_name,textbox_7.text,mouse_15.x,mouse_15.y,mouse_15.leftButton,mouse_15.midButton,mouse_15.rightButton,mouse_15.clicked_name
0,0,0,67,1,,608e74070357794c8c355e75,62bbf9d5bb9736d56fd3e429,2022-06-29_09h06.23.430,Colour_Asymmetry_Pilot,2022.1.3,Win32,59.95203837,62bbe60bf3d75ef465d3e404,,,,,,,,,,,,,,,,,,,,,,,,,,,,,,,,,,,,,,,,,,,,,,,,,,,,,,,,,,,,,,,,,,,,,,,,,,,,,,,,,,,,,,,,,,,,,,,,,,,,,,,,,,,,,,,,,,,,,,,,,,,,,,,,,,,,,,,,,,,,,,,,,,,,,,,,,,,,,,
0,1,1,71,1,,608e74070357794c8c355e75,62bbf9d5bb9736d56fd3e429,2022-06-29_09h06.23.430,Colour_Asymmetry_Pilot,2022.1.3,Win32,59.95203837,62bbe60bf3d75ef465d3e404,,,,,,,,,,,,,,,,,,,,,,,,,,,,,,,,,,,,,,,,,,,,,,,,,,,,,,,,,,,,,,,,,,,,,,,,,,,,,,,,,,,,,,,,,,,,,,,,,,,,,,,,,,,,,,,,,,,,,,,,,,,,,,,,,,,,,,,,,,,,,,,,,,,,,,,,,,,,,,
0,2,2,23,1,,608e74070357794c8c355e75,62bbf9d5bb9736d56fd3e429,2022-06-29_09h06.23.430,Colour_Asymmetry_Pilot,2022.1.3,Win32,59.95203837,62bbe60bf3d75ef465d3e404,,,,,,,,,,,,,,,,,,,,,,,,,,,,,,,,,,,,,,,,,,,,,,,,,,,,,,,,,,,,,,,,,,,,,,,,,,,,,,,,,,,,,,,,,,,,,,,,,,,,,,,,,,,,,,,,,,,,,,,,,,,,,,,,,,,,,,,,,,,,,,,,,,,,,,,,,,,,,,
0,3,3,56,1,,608e74070357794c8c355e75,62bbf9d5bb9736d56fd3e429,2022-06-29_09h06.23.430,Colour_Asymmetry_Pilot,2022.1.3,Win32,59.95203837,62bbe60bf3d75ef465d3e404,,,,,,,,,,,,,,,,,,,,,,,,,,,,,,,,,,,,,,,,,,,,,,,,,,,,,,,,,,,,,,,,,,,,,,,,,,,,,,,,,,,,,,,,,,,,,,,,,,,,,,,,,,,,,,,,,,,,,,,,,,,,,,,,,,,,,,,,,,,,,,,,,,,,,,,,,,,,,,
0,4,4,22,1,,608e74070357794c8c355e75,62bbf9d5bb9736d56fd3e429,2022-06-29_09h06.23.430,Colour_Asymmetry_Pilot,2022.1.3,Win32,59.95203837,62bbe60bf3d75ef465d3e404,,,,,,,,,,,,,,,,,,,,,,,,,,,,,,,,,,,,,,,,,,,,,,,,,,,,,,,,,,,,,,,,,,,,,,,,,,,,,,,,,,,,,,,,,,,,,,,,,,,,,,,,,,,,,,,,,,,,,,,,,,,,,,,,,,,,,,,,,,,,,,,,,,,,,,,,,,,,,,
0,5,5,2,1,,608e74070357794c8c355e75,62bbf9d5bb9736d56fd3e429,2022-06-29_09h06.23.430,Colour_Asymmetry_Pilot,2022.1.3,Win32,59.95203837,62bbe60bf3d75ef465d3e404,,,,,,,,,,,,,,,,,,,,,,,,,,,,,,,,,,,,,,,,,,,,,,,,,,,,,,,,,,,,,,,,,,,,,,,,,,,,,,,,,,,,,,,,,,,,,,,,,,,,,,,,,,,,,,,,,,,,,,,,,,,,,,,,,,,,,,,,,,,,,,,,,,,,,,,,,,,,,,
0,6,6,39,1,,608e74070357794c8c355e75,62bbf9d5bb9736d56fd3e429,2022-06-29_09h06.23.430,Colour_Asymmetry_Pilot,2022.1.3,Win32,59.95203837,62bbe60bf3d75ef465d3e404,,,,,,,,,,,,,,,,,,,,,,,,,,,,,,,,,,,,,,,,,,,,,,,,,,,,,,,,,,,,,,,,,,,,,,,,,,,,,,,,,,,,,,,,,,,,,,,,,,,,,,,,,,,,,,,,,,,,,,,,,,,,,,,,,,,,,,,,,,,,,,,,,,,,,,,,,,,,,,
0,7,7,91,1,,608e74070357794c8c355e75,62bbf9d5bb9736d56fd3e429,2022-06-29_09h06.23.430,Colour_Asymmetry_Pilot,2022.1.3,Win32,59.95203837,62bbe60bf3d75ef465d3e404,,,,,,,,,,,,,,,,,,,,,,,,,,,,,,,,,,,,,,,,,,,,,,,,,,,,,,,,,,,,,,,,,,,,,,,,,,,,,,,,,,,,,,,,,,,,,,,,,,,,,,,,,,,,,,,,,,,,,,,,,,,,,,,,,,,,,,,,,,,,,,,,,,,,,,,,,,,,,,
0,8,8,55,1,,608e74070357794c8c355e75,62bbf9d5bb9736d56fd3e429,2022-06-29_09h06.23.430,Colour_Asymmetry_Pilot,2022.1.3,Win32,59.95203837,62bbe60bf3d75ef465d3e404,,,,,,,,,,,,,,,,,,,,,,,,,,,,,,,,,,,,,,,,,,,,,,,,,,,,,,,,,,,,,,,,,,,,,,,,,,,,,,,,,,,,,,,,,,,,,,,,,,,,,,,,,,,,,,,,,,,,,,,,,,,,,,,,,,,,,,,,,,,,,,,,,,,,,,,,,,,,,,
0,9,9,80,1,,608e74070357794c8c355e75,62bbf9d5bb9736d56fd3e429,2022-06-29_09h06.23.430,Colour_Asymmetry_Pilot,2022.1.3,Win32,59.95203837,62bbe60bf3d75ef465d3e404,,,,,,,,,,,,,,,,,,,,,,,,,,,,,,,,,,,,,,,,,,,,,,,,,,,,,,,,,,,,,,,,,,,,,,,,,,,,,,,,,,,,,,,,,,,,,,,,,,,,,,,,,,,,,,,,,,,,,,,,,,,,,,,,,,,,,,,,,,,,,,,,,,,,,,,,,,,,,,
0,10,10,30,1,,608e74070357794c8c355e75,62bbf9d5bb9736d56fd3e429,2022-06-29_09h06.23.430,Colour_Asymmetry_Pilot,2022.1.3,Win32,59.95203837,62bbe60bf3d75ef465d3e404,,,,,,,,,,,,,,,,,,,,,,,,,,,,,,,,,,,,,,,,,,,,,,,,,,,,,,,,,,,,,,,,,,,,,,,,,,,,,,,,,,,,,,,,,,,,,,,,,,,,,,,,,,,,,,,,,,,,,,,,,,,,,,,,,,,,,,,,,,,,,,,,,,,,,,,,,,,,,,
0,11,11,54,1,,608e74070357794c8c355e75,62bbf9d5bb9736d56fd3e429,2022-06-29_09h06.23.430,Colour_Asymmetry_Pilot,2022.1.3,Win32,59.95203837,62bbe60bf3d75ef465d3e404,,,,,,,,,,,,,,,,,,,,,,,,,,,,,,,,,,,,,,,,,,,,,,,,,,,,,,,,,,,,,,,,,,,,,,,,,,,,,,,,,,,,,,,,,,,,,,,,,,,,,,,,,,,,,,,,,,,,,,,,,,,,,,,,,,,,,,,,,,,,,,,,,,,,,,,,,,,,,,
0,12,12,62,1,,608e74070357794c8c355e75,62bbf9d5bb9736d56fd3e429,2022-06-29_09h06.23.430,Colour_Asymmetry_Pilot,2022.1.3,Win32,59.95203837,62bbe60bf3d75ef465d3e404,,,,,,,,,,,,,,,,,,,,,,,,,,,,,,,,,,,,,,,,,,,,,,,,,,,,,,,,,,,,,,,,,,,,,,,,,,,,,,,,,,,,,,,,,,,,,,,,,,,,,,,,,,,,,,,,,,,,,,,,,,,,,,,,,,,,,,,,,,,,,,,,,,,,,,,,,,,,,,
0,13,13,14,1,,608e74070357794c8c355e75,62bbf9d5bb9736d56fd3e429,2022-06-29_09h06.23.430,Colour_Asymmetry_Pilot,2022.1.3,Win32,59.95203837,62bbe60bf3d75ef465d3e404,,,,,,,,,,,,,,,,,,,,,,,,,,,,,,,,,,,,,,,,,,,,,,,,,,,,,,,,,,,,,,,,,,,,,,,,,,,,,,,,,,,,,,,,,,,,,,,,,,,,,,,,,,,,,,,,,,,,,,,,,,,,,,,,,,,,,,,,,,,,,,,,,,,,,,,,,,,,,,
0,14,14,8,1,,608e74070357794c8c355e75,62bbf9d5bb9736d56fd3e429,2022-06-29_09h06.23.430,Colour_Asymmetry_Pilot,2022.1.3,Win32,59.95203837,62bbe60bf3d75ef465d3e404,,,,,,,,,,,,,,,,,,,,,,,,,,,,,,,,,,,,,,,,,,,,,,,,,,,,,,,,,,,,,,,,,,,,,,,,,,,,,,,,,,,,,,,,,,,,,,,,,,,,,,,,,,,,,,,,,,,,,,,,,,,,,,,,,,,,,,,,,,,,,,,,,,,,,,,,,,,,,,
0,15,15,40,1,,608e74070357794c8c355e75,62bbf9d5bb9736d56fd3e429,2022-06-29_09h06.23.430,Colour_Asymmetry_Pilot,2022.1.3,Win32,59.95203837,62bbe60bf3d75ef465d3e404,,,,,,,,,,,,,,,,,,,,,,,,,,,,,,,,,,,,,,,,,,,,,,,,,,,,,,,,,,,,,,,,,,,,,,,,,,,,,,,,,,,,,,,,,,,,,,,,,,,,,,,,,,,,,,,,,,,,,,,,,,,,,,,,,,,,,,,,,,,,,,,,,,,,,,,,,,,,,,
0,16,16,76,1,,608e74070357794c8c355e75,62bbf9d5bb9736d56fd3e429,2022-06-29_09h06.23.430,Colour_Asymmetry_Pilot,2022.1.3,Win32,59.95203837,62bbe60bf3d75ef465d3e404,,,,,,,,,,,,,,,,,,,,,,,,,,,,,,,,,,,,,,,,,,,,,,,,,,,,,,,,,,,,,,,,,,,,,,,,,,,,,,,,,,,,,,,,,,,,,,,,,,,,,,,,,,,,,,,,,,,,,,,,,,,,,,,,,,,,,,,,,,,,,,,,,,,,,,,,,,,,,,
0,17,17,66,1,,608e74070357794c8c355e75,62bbf9d5bb9736d56fd3e429,2022-06-29_09h06.23.430,Colour_Asymmetry_Pilot,2022.1.3,Win32,59.95203837,62bbe60bf3d75ef465d3e404,,,,,,,,,,,,,,,,,,,,,,,,,,,,,,,,,,,,,,,,,,,,,,,,,,,,,,,,,,,,,,,,,,,,,,,,,,,,,,,,,,,,,,,,,,,,,,,,,,,,,,,,,,,,,,,,,,,,,,,,,,,,,,,,,,,,,,,,,,,,,,,,,,,,,,,,,,,,,,
0,18,18,24,1,,608e74070357794c8c355e75,62bbf9d5bb9736d56fd3e429,2022-06-29_09h06.23.430,Colour_Asymmetry_Pilot,2022.1.3,Win32,59.95203837,62bbe60bf3d75ef465d3e404,,,,,,,,,,,,,,,,,,,,,,,,,,,,,,,,,,,,,,,,,,,,,,,,,,,,,,,,,,,,,,,,,,,,,,,,,,,,,,,,,,,,,,,,,,,,,,,,,,,,,,,,,,,,,,,,,,,,,,,,,,,,,,,,,,,,,,,,,,,,,,,,,,,,,,,,,,,,,,
0,19,19,10,1,,608e74070357794c8c355e75,62bbf9d5bb9736d56fd3e429,2022-06-29_09h06.23.430,Colour_Asymmetry_Pilot,2022.1.3,Win32,59.95203837,62bbe60bf3d75ef465d3e404,,,,,,,,,,,,,,,,,,,,,,,,,,,,,,,,,,,,,,,,,,,,,,,,,,,,,,,,,,,,,,,,,,,,,,,,,,,,,,,,,,,,,,,,,,,,,,,,,,,,,,,,,,,,,,,,,,,,,,,,,,,,,,,,,,,,,,,,,,,,,,,,,,,,,,,,,,,,,,
0,20,20,12,1,,608e74070357794c8c355e75,62bbf9d5bb9736d56fd3e429,2022-06-29_09h06.23.430,Colour_Asymmetry_Pilot,2022.1.3,Win32,59.95203837,62bbe60bf3d75ef465d3e404,,,,,,,,,,,,,,,,,,,,,,,,,,,,,,,,,,,,,,,,,,,,,,,,,,,,,,,,,,,,,,,,,,,,,,,,,,,,,,,,,,,,,,,,,,,,,,,,,,,,,,,,,,,,,,,,,,,,,,,,,,,,,,,,,,,,,,,,,,,,,,,,,,,,,,,,,,,,,,
0,21,21,79,1,,608e74070357794c8c355e75,62bbf9d5bb9736d56fd3e429,2022-06-29_09h06.23.430,Colour_Asymmetry_Pilot,2022.1.3,Win32,59.95203837,62bbe60bf3d75ef465d3e404,,,,,,,,,,,,,,,,,,,,,,,,,,,,,,,,,,,,,,,,,,,,,,,,,,,,,,,,,,,,,,,,,,,,,,,,,,,,,,,,,,,,,,,,,,,,,,,,,,,,,,,,,,,,,,,,,,,,,,,,,,,,,,,,,,,,,,,,,,,,,,,,,,,,,,,,,,,,,,
0,22,22,35,1,,608e74070357794c8c355e75,62bbf9d5bb9736d56fd3e429,2022-06-29_09h06.23.430,Colour_Asymmetry_Pilot,2022.1.3,Win32,59.95203837,62bbe60bf3d75ef465d3e404,,,,,,,,,,,,,,,,,,,,,,,,,,,,,,,,,,,,,,,,,,,,,,,,,,,,,,,,,,,,,,,,,,,,,,,,,,,,,,,,,,,,,,,,,,,,,,,,,,,,,,,,,,,,,,,,,,,,,,,,,,,,,,,,,,,,,,,,,,,,,,,,,,,,,,,,,,,,,,
0,23,23,13,1,,608e74070357794c8c355e75,62bbf9d5bb9736d56fd3e429,2022-06-29_09h06.23.430,Colour_Asymmetry_Pilot,2022.1.3,Win32,59.95203837,62bbe60bf3d75ef465d3e404,,,,,,,,,,,,,,,,,,,,,,,,,,,,,,,,,,,,,,,,,,,,,,,,,,,,,,,,,,,,,,,,,,,,,,,,,,,,,,,,,,,,,,,,,,,,,,,,,,,,,,,,,,,,,,,,,,,,,,,,,,,,,,,,,,,,,,,,,,,,,,,,,,,,,,,,,,,,,,
0,24,24,63,1,,608e74070357794c8c355e75,62bbf9d5bb9736d56fd3e429,2022-06-29_09h06.23.430,Colour_Asymmetry_Pilot,2022.1.3,Win32,59.95203837,62bbe60bf3d75ef465d3e404,,,,,,,,,,,,,,,,,,,,,,,,,,,,,,,,,,,,,,,,,,,,,,,,,,,,,,,,,,,,,,,,,,,,,,,,,,,,,,,,,,,,,,,,,,,,,,,,,,,,,,,,,,,,,,,,,,,,,,,,,,,,,,,,,,,,,,,,,,,,,,,,,,,,,,,,,,,,,,
0,25,25,69,1,,608e74070357794c8c355e75,62bbf9d5bb9736d56fd3e429,2022-06-29_09h06.23.430,Colour_Asymmetry_Pilot,2022.1.3,Win32,59.95203837,62bbe60bf3d75ef465d3e404,,,,,,,,,,,,,,,,,,,,,,,,,,,,,,,,,,,,,,,,,,,,,,,,,,,,,,,,,,,,,,,,,,,,,,,,,,,,,,,,,,,,,,,,,,,,,,,,,,,,,,,,,,,,,,,,,,,,,,,,,,,,,,,,,,,,,,,,,,,,,,,,,,,,,,,,,,,,,,
0,26,26,81,1,,608e74070357794c8c355e75,62bbf9d5bb9736d56fd3e429,2022-06-29_09h06.23.430,Colour_Asymmetry_Pilot,2022.1.3,Win32,59.95203837,62bbe60bf3d75ef465d3e404,,,,,,,,,,,,,,,,,,,,,,,,,,,,,,,,,,,,,,,,,,,,,,,,,,,,,,,,,,,,,,,,,,,,,,,,,,,,,,,,,,,,,,,,,,,,,,,,,,,,,,,,,,,,,,,,,,,,,,,,,,,,,,,,,,,,,,,,,,,,,,,,,,,,,,,,,,,,,,
0,27,27,78,1,,608e74070357794c8c355e75,62bbf9d5bb9736d56fd3e429,2022-06-29_09h06.23.430,Colour_Asymmetry_Pilot,2022.1.3,Win32,59.95203837,62bbe60bf3d75ef465d3e404,,,,,,,,,,,,,,,,,,,,,,,,,,,,,,,,,,,,,,,,,,,,,,,,,,,,,,,,,,,,,,,,,,,,,,,,,,,,,,,,,,,,,,,,,,,,,,,,,,,,,,,,,,,,,,,,,,,,,,,,,,,,,,,,,,,,,,,,,,,,,,,,,,,,,,,,,,,,,,
0,28,28,29,1,,608e74070357794c8c355e75,62bbf9d5bb9736d56fd3e429,2022-06-29_09h06.23.430,Colour_Asymmetry_Pilot,2022.1.3,Win32,59.95203837,62bbe60bf3d75ef465d3e404,,,,,,,,,,,,,,,,,,,,,,,,,,,,,,,,,,,,,,,,,,,,,,,,,,,,,,,,,,,,,,,,,,,,,,,,,,,,,,,,,,,,,,,,,,,,,,,,,,,,,,,,,,,,,,,,,,,,,,,,,,,,,,,,,,,,,,,,,,,,,,,,,,,,,,,,,,,,,,
0,29,29,45,1,,608e74070357794c8c355e75,62bbf9d5bb9736d56fd3e429,2022-06-29_09h06.23.430,Colour_Asymmetry_Pilot,2022.1.3,Win32,59.95203837,62bbe60bf3d75ef465d3e404,,,,,,,,,,,,,,,,,,,,,,,,,,,,,,,,,,,,,,,,,,,,,,,,,,,,,,,,,,,,,,,,,,,,,,,,,,,,,,,,,,,,,,,,,,,,,,,,,,,,,,,,,,,,,,,,,,,,,,,,,,,,,,,,,,,,,,,,,,,,,,,,,,,,,,,,,,,,,,
0,30,30,38,1,,608e74070357794c8c355e75,62bbf9d5bb9736d56fd3e429,2022-06-29_09h06.23.430,Colour_Asymmetry_Pilot,2022.1.3,Win32,59.95203837,62bbe60bf3d75ef465d3e404,,,,,,,,,,,,,,,,,,,,,,,,,,,,,,,,,,,,,,,,,,,,,,,,,,,,,,,,,,,,,,,,,,,,,,,,,,,,,,,,,,,,,,,,,,,,,,,,,,,,,,,,,,,,,,,,,,,,,,,,,,,,,,,,,,,,,,,,,,,,,,,,,,,,,,,,,,,,,,
0,31,31,89,1,,608e74070357794c8c355e75,62bbf9d5bb9736d56fd3e429,2022-06-29_09h06.23.430,Colour_Asymmetry_Pilot,2022.1.3,Win32,59.95203837,62bbe60bf3d75ef465d3e404,,,,,,,,,,,,,,,,,,,,,,,,,,,,,,,,,,,,,,,,,,,,,,,,,,,,,,,,,,,,,,,,,,,,,,,,,,,,,,,,,,,,,,,,,,,,,,,,,,,,,,,,,,,,,,,,,,,,,,,,,,,,,,,,,,,,,,,,,,,,,,,,,,,,,,,,,,,,,,
0,32,32,52,1,,608e74070357794c8c355e75,62bbf9d5bb9736d56fd3e429,2022-06-29_09h06.23.430,Colour_Asymmetry_Pilot,2022.1.3,Win32,59.95203837,62bbe60bf3d75ef465d3e404,,,,,,,,,,,,,,,,,,,,,,,,,,,,,,,,,,,,,,,,,,,,,,,,,,,,,,,,,,,,,,,,,,,,,,,,,,,,,,,,,,,,,,,,,,,,,,,,,,,,,,,,,,,,,,,,,,,,,,,,,,,,,,,,,,,,,,,,,,,,,,,,,,,,,,,,,,,,,,
0,33,33,82,1,,608e74070357794c8c355e75,62bbf9d5bb9736d56fd3e429,2022-06-29_09h06.23.430,Colour_Asymmetry_Pilot,2022.1.3,Win32,59.95203837,62bbe60bf3d75ef465d3e404,,,,,,,,,,,,,,,,,,,,,,,,,,,,,,,,,,,,,,,,,,,,,,,,,,,,,,,,,,,,,,,,,,,,,,,,,,,,,,,,,,,,,,,,,,,,,,,,,,,,,,,,,,,,,,,,,,,,,,,,,,,,,,,,,,,,,,,,,,,,,,,,,,,,,,,,,,,,,,
0,34,34,11,1,,608e74070357794c8c355e75,62bbf9d5bb9736d56fd3e429,2022-06-29_09h06.23.430,Colour_Asymmetry_Pilot,2022.1.3,Win32,59.95203837,62bbe60bf3d75ef465d3e404,,,,,,,,,,,,,,,,,,,,,,,,,,,,,,,,,,,,,,,,,,,,,,,,,,,,,,,,,,,,,,,,,,,,,,,,,,,,,,,,,,,,,,,,,,,,,,,,,,,,,,,,,,,,,,,,,,,,,,,,,,,,,,,,,,,,,,,,,,,,,,,,,,,,,,,,,,,,,,
0,35,35,16,1,,608e74070357794c8c355e75,62bbf9d5bb9736d56fd3e429,2022-06-29_09h06.23.430,Colour_Asymmetry_Pilot,2022.1.3,Win32,59.95203837,62bbe60bf3d75ef465d3e404,,,,,,,,,,,,,,,,,,,,,,,,,,,,,,,,,,,,,,,,,,,,,,,,,,,,,,,,,,,,,,,,,,,,,,,,,,,,,,,,,,,,,,,,,,,,,,,,,,,,,,,,,,,,,,,,,,,,,,,,,,,,,,,,,,,,,,,,,,,,,,,,,,,,,,,,,,,,,,
0,36,36,77,1,,608e74070357794c8c355e75,62bbf9d5bb9736d56fd3e429,2022-06-29_09h06.23.430,Colour_Asymmetry_Pilot,2022.1.3,Win32,59.95203837,62bbe60bf3d75ef465d3e404,,,,,,,,,,,,,,,,,,,,,,,,,,,,,,,,,,,,,,,,,,,,,,,,,,,,,,,,,,,,,,,,,,,,,,,,,,,,,,,,,,,,,,,,,,,,,,,,,,,,,,,,,,,,,,,,,,,,,,,,,,,,,,,,,,,,,,,,,,,,,,,,,,,,,,,,,,,,,,
0,37,37,46,1,,608e74070357794c8c355e75,62bbf9d5bb9736d56fd3e429,2022-06-29_09h06.23.430,Colour_Asymmetry_Pilot,2022.1.3,Win32,59.95203837,62bbe60bf3d75ef465d3e404,,,,,,,,,,,,,,,,,,,,,,,,,,,,,,,,,,,,,,,,,,,,,,,,,,,,,,,,,,,,,,,,,,,,,,,,,,,,,,,,,,,,,,,,,,,,,,,,,,,,,,,,,,,,,,,,,,,,,,,,,,,,,,,,,,,,,,,,,,,,,,,,,,,,,,,,,,,,,,
0,38,38,3,1,,608e74070357794c8c355e75,62bbf9d5bb9736d56fd3e429,2022-06-29_09h06.23.430,Colour_Asymmetry_Pilot,2022.1.3,Win32,59.95203837,62bbe60bf3d75ef465d3e404,,,,,,,,,,,,,,,,,,,,,,,,,,,,,,,,,,,,,,,,,,,,,,,,,,,,,,,,,,,,,,,,,,,,,,,,,,,,,,,,,,,,,,,,,,,,,,,,,,,,,,,,,,,,,,,,,,,,,,,,,,,,,,,,,,,,,,,,,,,,,,,,,,,,,,,,,,,,,,
0,39,39,37,1,,608e74070357794c8c355e75,62bbf9d5bb9736d56fd3e429,2022-06-29_09h06.23.430,Colour_Asymmetry_Pilot,2022.1.3,Win32,59.95203837,62bbe60bf3d75ef465d3e404,,,,,,,,,,,,,,,,,,,,,,,,,,,,,,,,,,,,,,,,,,,,,,,,,,,,,,,,,,,,,,,,,,,,,,,,,,,,,,,,,,,,,,,,,,,,,,,,,,,,,,,,,,,,,,,,,,,,,,,,,,,,,,,,,,,,,,,,,,,,,,,,,,,,,,,,,,,,,,
0,40,40,57,1,,608e74070357794c8c355e75,62bbf9d5bb9736d56fd3e429,2022-06-29_09h06.23.430,Colour_Asymmetry_Pilot,2022.1.3,Win32,59.95203837,62bbe60bf3d75ef465d3e404,,,,,,,,,,,,,,,,,,,,,,,,,,,,,,,,,,,,,,,,,,,,,,,,,,,,,,,,,,,,,,,,,,,,,,,,,,,,,,,,,,,,,,,,,,,,,,,,,,,,,,,,,,,,,,,,,,,,,,,,,,,,,,,,,,,,,,,,,,,,,,,,,,,,,,,,,,,,,,
0,41,41,75,1,,608e74070357794c8c355e75,62bbf9d5bb9736d56fd3e429,2022-06-29_09h06.23.430,Colour_Asymmetry_Pilot,2022.1.3,Win32,59.95203837,62bbe60bf3d75ef465d3e404,,,,,,,,,,,,,,,,,,,,,,,,,,,,,,,,,,,,,,,,,,,,,,,,,,,,,,,,,,,,,,,,,,,,,,,,,,,,,,,,,,,,,,,,,,,,,,,,,,,,,,,,,,,,,,,,,,,,,,,,,,,,,,,,,,,,,,,,,,,,,,,,,,,,,,,,,,,,,,
0,42,42,28,1,,608e74070357794c8c355e75,62bbf9d5bb9736d56fd3e429,2022-06-29_09h06.23.430,Colour_Asymmetry_Pilot,2022.1.3,Win32,59.95203837,62bbe60bf3d75ef465d3e404,,,,,,,,,,,,,,,,,,,,,,,,,,,,,,,,,,,,,,,,,,,,,,,,,,,,,,,,,,,,,,,,,,,,,,,,,,,,,,,,,,,,,,,,,,,,,,,,,,,,,,,,,,,,,,,,,,,,,,,,,,,,,,,,,,,,,,,,,,,,,,,,,,,,,,,,,,,,,,
0,43,43,21,1,,608e74070357794c8c355e75,62bbf9d5bb9736d56fd3e429,2022-06-29_09h06.23.430,Colour_Asymmetry_Pilot,2022.1.3,Win32,59.95203837,62bbe60bf3d75ef465d3e404,,,,,,,,,,,,,,,,,,,,,,,,,,,,,,,,,,,,,,,,,,,,,,,,,,,,,,,,,,,,,,,,,,,,,,,,,,,,,,,,,,,,,,,,,,,,,,,,,,,,,,,,,,,,,,,,,,,,,,,,,,,,,,,,,,,,,,,,,,,,,,,,,,,,,,,,,,,,,,
0,44,44,65,1,,608e74070357794c8c355e75,62bbf9d5bb9736d56fd3e429,2022-06-29_09h06.23.430,Colour_Asymmetry_Pilot,2022.1.3,Win32,59.95203837,62bbe60bf3d75ef465d3e404,,,,,,,,,,,,,,,,,,,,,,,,,,,,,,,,,,,,,,,,,,,,,,,,,,,,,,,,,,,,,,,,,,,,,,,,,,,,,,,,,,,,,,,,,,,,,,,,,,,,,,,,,,,,,,,,,,,,,,,,,,,,,,,,,,,,,,,,,,,,,,,,,,,,,,,,,,,,,,
0,45,45,33,1,,608e74070357794c8c355e75,62bbf9d5bb9736d56fd3e429,2022-06-29_09h06.23.430,Colour_Asymmetry_Pilot,2022.1.3,Win32,59.95203837,62bbe60bf3d75ef465d3e404,,,,,,,,,,,,,,,,,,,,,,,,,,,,,,,,,,,,,,,,,,,,,,,,,,,,,,,,,,,,,,,,,,,,,,,,,,,,,,,,,,,,,,,,,,,,,,,,,,,,,,,,,,,,,,,,,,,,,,,,,,,,,,,,,,,,,,,,,,,,,,,,,,,,,,,,,,,,,,
0,46,46,0,1,,608e74070357794c8c355e75,62bbf9d5bb9736d56fd3e429,2022-06-29_09h06.23.430,Colour_Asymmetry_Pilot,2022.1.3,Win32,59.95203837,62bbe60bf3d75ef465d3e404,,,,,,,,,,,,,,,,,,,,,,,,,,,,,,,,,,,,,,,,,,,,,,,,,,,,,,,,,,,,,,,,,,,,,,,,,,,,,,,,,,,,,,,,,,,,,,,,,,,,,,,,,,,,,,,,,,,,,,,,,,,,,,,,,,,,,,,,,,,,,,,,,,,,,,,,,,,,,,
0,47,47,17,1,,608e74070357794c8c355e75,62bbf9d5bb9736d56fd3e429,2022-06-29_09h06.23.430,Colour_Asymmetry_Pilot,2022.1.3,Win32,59.95203837,62bbe60bf3d75ef465d3e404,,,,,,,,,,,,,,,,,,,,,,,,,,,,,,,,,,,,,,,,,,,,,,,,,,,,,,,,,,,,,,,,,,,,,,,,,,,,,,,,,,,,,,,,,,,,,,,,,,,,,,,,,,,,,,,,,,,,,,,,,,,,,,,,,,,,,,,,,,,,,,,,,,,,,,,,,,,,,,
0,48,48,42,1,,608e74070357794c8c355e75,62bbf9d5bb9736d56fd3e429,2022-06-29_09h06.23.430,Colour_Asymmetry_Pilot,2022.1.3,Win32,59.95203837,62bbe60bf3d75ef465d3e404,,,,,,,,,,,,,,,,,,,,,,,,,,,,,,,,,,,,,,,,,,,,,,,,,,,,,,,,,,,,,,,,,,,,,,,,,,,,,,,,,,,,,,,,,,,,,,,,,,,,,,,,,,,,,,,,,,,,,,,,,,,,,,,,,,,,,,,,,,,,,,,,,,,,,,,,,,,,,,
0,49,49,18,1,,608e74070357794c8c355e75,62bbf9d5bb9736d56fd3e429,2022-06-29_09h06.23.430,Colour_Asymmetry_Pilot,2022.1.3,Win32,59.95203837,62bbe60bf3d75ef465d3e404,,,,,,,,,,,,,,,,,,,,,,,,,,,,,,,,,,,,,,,,,,,,,,,,,,,,,,,,,,,,,,,,,,,,,,,,,,,,,,,,,,,,,,,,,,,,,,,,,,,,,,,,,,,,,,,,,,,,,,,,,,,,,,,,,,,,,,,,,,,,,,,,,,,,,,,,,,,,,,
0,50,50,86,1,,608e74070357794c8c355e75,62bbf9d5bb9736d56fd3e429,2022-06-29_09h06.23.430,Colour_Asymmetry_Pilot,2022.1.3,Win32,59.95203837,62bbe60bf3d75ef465d3e404,,,,,,,,,,,,,,,,,,,,,,,,,,,,,,,,,,,,,,,,,,,,,,,,,,,,,,,,,,,,,,,,,,,,,,,,,,,,,,,,,,,,,,,,,,,,,,,,,,,,,,,,,,,,,,,,,,,,,,,,,,,,,,,,,,,,,,,,,,,,,,,,,,,,,,,,,,,,,,
0,51,51,15,1,,608e74070357794c8c355e75,62bbf9d5bb9736d56fd3e429,2022-06-29_09h06.23.430,Colour_Asymmetry_Pilot,2022.1.3,Win32,59.95203837,62bbe60bf3d75ef465d3e404,,,,,,,,,,,,,,,,,,,,,,,,,,,,,,,,,,,,,,,,,,,,,,,,,,,,,,,,,,,,,,,,,,,,,,,,,,,,,,,,,,,,,,,,,,,,,,,,,,,,,,,,,,,,,,,,,,,,,,,,,,,,,,,,,,,,,,,,,,,,,,,,,,,,,,,,,,,,,,
0,52,52,73,1,,608e74070357794c8c355e75,62bbf9d5bb9736d56fd3e429,2022-06-29_09h06.23.430,Colour_Asymmetry_Pilot,2022.1.3,Win32,59.95203837,62bbe60bf3d75ef465d3e404,,,,,,,,,,,,,,,,,,,,,,,,,,,,,,,,,,,,,,,,,,,,,,,,,,,,,,,,,,,,,,,,,,,,,,,,,,,,,,,,,,,,,,,,,,,,,,,,,,,,,,,,,,,,,,,,,,,,,,,,,,,,,,,,,,,,,,,,,,,,,,,,,,,,,,,,,,,,,,
0,53,53,58,1,,608e74070357794c8c355e75,62bbf9d5bb9736d56fd3e429,2022-06-29_09h06.23.430,Colour_Asymmetry_Pilot,2022.1.3,Win32,59.95203837,62bbe60bf3d75ef465d3e404,,,,,,,,,,,,,,,,,,,,,,,,,,,,,,,,,,,,,,,,,,,,,,,,,,,,,,,,,,,,,,,,,,,,,,,,,,,,,,,,,,,,,,,,,,,,,,,,,,,,,,,,,,,,,,,,,,,,,,,,,,,,,,,,,,,,,,,,,,,,,,,,,,,,,,,,,,,,,,
0,54,54,5,1,,608e74070357794c8c355e75,62bbf9d5bb9736d56fd3e429,2022-06-29_09h06.23.430,Colour_Asymmetry_Pilot,2022.1.3,Win32,59.95203837,62bbe60bf3d75ef465d3e404,,,,,,,,,,,,,,,,,,,,,,,,,,,,,,,,,,,,,,,,,,,,,,,,,,,,,,,,,,,,,,,,,,,,,,,,,,,,,,,,,,,,,,,,,,,,,,,,,,,,,,,,,,,,,,,,,,,,,,,,,,,,,,,,,,,,,,,,,,,,,,,,,,,,,,,,,,,,,,
0,55,55,53,1,,608e74070357794c8c355e75,62bbf9d5bb9736d56fd3e429,2022-06-29_09h06.23.430,Colour_Asymmetry_Pilot,2022.1.3,Win32,59.95203837,62bbe60bf3d75ef465d3e404,,,,,,,,,,,,,,,,,,,,,,,,,,,,,,,,,,,,,,,,,,,,,,,,,,,,,,,,,,,,,,,,,,,,,,,,,,,,,,,,,,,,,,,,,,,,,,,,,,,,,,,,,,,,,,,,,,,,,,,,,,,,,,,,,,,,,,,,,,,,,,,,,,,,,,,,,,,,,,
0,56,56,6,1,,608e74070357794c8c355e75,62bbf9d5bb9736d56fd3e429,2022-06-29_09h06.23.430,Colour_Asymmetry_Pilot,2022.1.3,Win32,59.95203837,62bbe60bf3d75ef465d3e404,,,,,,,,,,,,,,,,,,,,,,,,,,,,,,,,,,,,,,,,,,,,,,,,,,,,,,,,,,,,,,,,,,,,,,,,,,,,,,,,,,,,,,,,,,,,,,,,,,,,,,,,,,,,,,,,,,,,,,,,,,,,,,,,,,,,,,,,,,,,,,,,,,,,,,,,,,,,,,
0,57,57,51,1,,608e74070357794c8c355e75,62bbf9d5bb9736d56fd3e429,2022-06-29_09h06.23.430,Colour_Asymmetry_Pilot,2022.1.3,Win32,59.95203837,62bbe60bf3d75ef465d3e404,,,,,,,,,,,,,,,,,,,,,,,,,,,,,,,,,,,,,,,,,,,,,,,,,,,,,,,,,,,,,,,,,,,,,,,,,,,,,,,,,,,,,,,,,,,,,,,,,,,,,,,,,,,,,,,,,,,,,,,,,,,,,,,,,,,,,,,,,,,,,,,,,,,,,,,,,,,,,,
0,58,58,27,1,,608e74070357794c8c355e75,62bbf9d5bb9736d56fd3e429,2022-06-29_09h06.23.430,Colour_Asymmetry_Pilot,2022.1.3,Win32,59.95203837,62bbe60bf3d75ef465d3e404,,,,,,,,,,,,,,,,,,,,,,,,,,,,,,,,,,,,,,,,,,,,,,,,,,,,,,,,,,,,,,,,,,,,,,,,,,,,,,,,,,,,,,,,,,,,,,,,,,,,,,,,,,,,,,,,,,,,,,,,,,,,,,,,,,,,,,,,,,,,,,,,,,,,,,,,,,,,,,
0,59,59,87,1,,608e74070357794c8c355e75,62bbf9d5bb9736d56fd3e429,2022-06-29_09h06.23.430,Colour_Asymmetry_Pilot,2022.1.3,Win32,59.95203837,62bbe60bf3d75ef465d3e404,,,,,,,,,,,,,,,,,,,,,,,,,,,,,,,,,,,,,,,,,,,,,,,,,,,,,,,,,,,,,,,,,,,,,,,,,,,,,,,,,,,,,,,,,,,,,,,,,,,,,,,,,,,,,,,,,,,,,,,,,,,,,,,,,,,,,,,,,,,,,,,,,,,,,,,,,,,,,,
0,60,60,92,1,,608e74070357794c8c355e75,62bbf9d5bb9736d56fd3e429,2022-06-29_09h06.23.430,Colour_Asymmetry_Pilot,2022.1.3,Win32,59.95203837,62bbe60bf3d75ef465d3e404,,,,,,,,,,,,,,,,,,,,,,,,,,,,,,,,,,,,,,,,,,,,,,,,,,,,,,,,,,,,,,,,,,,,,,,,,,,,,,,,,,,,,,,,,,,,,,,,,,,,,,,,,,,,,,,,,,,,,,,,,,,,,,,,,,,,,,,,,,,,,,,,,,,,,,,,,,,,,,
0,61,61,4,1,,608e74070357794c8c355e75,62bbf9d5bb9736d56fd3e429,2022-06-29_09h06.23.430,Colour_Asymmetry_Pilot,2022.1.3,Win32,59.95203837,62bbe60bf3d75ef465d3e404,,,,,,,,,,,,,,,,,,,,,,,,,,,,,,,,,,,,,,,,,,,,,,,,,,,,,,,,,,,,,,,,,,,,,,,,,,,,,,,,,,,,,,,,,,,,,,,,,,,,,,,,,,,,,,,,,,,,,,,,,,,,,,,,,,,,,,,,,,,,,,,,,,,,,,,,,,,,,,
0,62,62,84,1,,608e74070357794c8c355e75,62bbf9d5bb9736d56fd3e429,2022-06-29_09h06.23.430,Colour_Asymmetry_Pilot,2022.1.3,Win32,59.95203837,62bbe60bf3d75ef465d3e404,,,,,,,,,,,,,,,,,,,,,,,,,,,,,,,,,,,,,,,,,,,,,,,,,,,,,,,,,,,,,,,,,,,,,,,,,,,,,,,,,,,,,,,,,,,,,,,,,,,,,,,,,,,,,,,,,,,,,,,,,,,,,,,,,,,,,,,,,,,,,,,,,,,,,,,,,,,,,,
0,63,63,47,1,,608e74070357794c8c355e75,62bbf9d5bb9736d56fd3e429,2022-06-29_09h06.23.430,Colour_Asymmetry_Pilot,2022.1.3,Win32,59.95203837,62bbe60bf3d75ef465d3e404,,,,,,,,,,,,,,,,,,,,,,,,,,,,,,,,,,,,,,,,,,,,,,,,,,,,,,,,,,,,,,,,,,,,,,,,,,,,,,,,,,,,,,,,,,,,,,,,,,,,,,,,,,,,,,,,,,,,,,,,,,,,,,,,,,,,,,,,,,,,,,,,,,,,,,,,,,,,,,
0,64,64,43,1,,608e74070357794c8c355e75,62bbf9d5bb9736d56fd3e429,2022-06-29_09h06.23.430,Colour_Asymmetry_Pilot,2022.1.3,Win32,59.95203837,62bbe60bf3d75ef465d3e404,,,,,,,,,,,,,,,,,,,,,,,,,,,,,,,,,,,,,,,,,,,,,,,,,,,,,,,,,,,,,,,,,,,,,,,,,,,,,,,,,,,,,,,,,,,,,,,,,,,,,,,,,,,,,,,,,,,,,,,,,,,,,,,,,,,,,,,,,,,,,,,,,,,,,,,,,,,,,,
0,65,65,90,1,,608e74070357794c8c355e75,62bbf9d5bb9736d56fd3e429,2022-06-29_09h06.23.430,Colour_Asymmetry_Pilot,2022.1.3,Win32,59.95203837,62bbe60bf3d75ef465d3e404,,,,,,,,,,,,,,,,,,,,,,,,,,,,,,,,,,,,,,,,,,,,,,,,,,,,,,,,,,,,,,,,,,,,,,,,,,,,,,,,,,,,,,,,,,,,,,,,,,,,,,,,,,,,,,,,,,,,,,,,,,,,,,,,,,,,,,,,,,,,,,,,,,,,,,,,,,,,,,
0,66,66,9,1,,608e74070357794c8c355e75,62bbf9d5bb9736d56fd3e429,2022-06-29_09h06.23.430,Colour_Asymmetry_Pilot,2022.1.3,Win32,59.95203837,62bbe60bf3d75ef465d3e404,,,,,,,,,,,,,,,,,,,,,,,,,,,,,,,,,,,,,,,,,,,,,,,,,,,,,,,,,,,,,,,,,,,,,,,,,,,,,,,,,,,,,,,,,,,,,,,,,,,,,,,,,,,,,,,,,,,,,,,,,,,,,,,,,,,,,,,,,,,,,,,,,,,,,,,,,,,,,,
0,67,67,59,1,,608e74070357794c8c355e75,62bbf9d5bb9736d56fd3e429,2022-06-29_09h06.23.430,Colour_Asymmetry_Pilot,2022.1.3,Win32,59.95203837,62bbe60bf3d75ef465d3e404,,,,,,,,,,,,,,,,,,,,,,,,,,,,,,,,,,,,,,,,,,,,,,,,,,,,,,,,,,,,,,,,,,,,,,,,,,,,,,,,,,,,,,,,,,,,,,,,,,,,,,,,,,,,,,,,,,,,,,,,,,,,,,,,,,,,,,,,,,,,,,,,,,,,,,,,,,,,,,
0,68,68,49,1,,608e74070357794c8c355e75,62bbf9d5bb9736d56fd3e429,2022-06-29_09h06.23.430,Colour_Asymmetry_Pilot,2022.1.3,Win32,59.95203837,62bbe60bf3d75ef465d3e404,,,,,,,,,,,,,,,,,,,,,,,,,,,,,,,,,,,,,,,,,,,,,,,,,,,,,,,,,,,,,,,,,,,,,,,,,,,,,,,,,,,,,,,,,,,,,,,,,,,,,,,,,,,,,,,,,,,,,,,,,,,,,,,,,,,,,,,,,,,,,,,,,,,,,,,,,,,,,,
0,69,69,48,1,,608e74070357794c8c355e75,62bbf9d5bb9736d56fd3e429,2022-06-29_09h06.23.430,Colour_Asymmetry_Pilot,2022.1.3,Win32,59.95203837,62bbe60bf3d75ef465d3e404,,,,,,,,,,,,,,,,,,,,,,,,,,,,,,,,,,,,,,,,,,,,,,,,,,,,,,,,,,,,,,,,,,,,,,,,,,,,,,,,,,,,,,,,,,,,,,,,,,,,,,,,,,,,,,,,,,,,,,,,,,,,,,,,,,,,,,,,,,,,,,,,,,,,,,,,,,,,,,
0,70,70,31,1,,608e74070357794c8c355e75,62bbf9d5bb9736d56fd3e429,2022-06-29_09h06.23.430,Colour_Asymmetry_Pilot,2022.1.3,Win32,59.95203837,62bbe60bf3d75ef465d3e404,,,,,,,,,,,,,,,,,,,,,,,,,,,,,,,,,,,,,,,,,,,,,,,,,,,,,,,,,,,,,,,,,,,,,,,,,,,,,,,,,,,,,,,,,,,,,,,,,,,,,,,,,,,,,,,,,,,,,,,,,,,,,,,,,,,,,,,,,,,,,,,,,,,,,,,,,,,,,,
0,71,71,34,1,,608e74070357794c8c355e75,62bbf9d5bb9736d56fd3e429,2022-06-29_09h06.23.430,Colour_Asymmetry_Pilot,2022.1.3,Win32,59.95203837,62bbe60bf3d75ef465d3e404,,,,,,,,,,,,,,,,,,,,,,,,,,,,,,,,,,,,,,,,,,,,,,,,,,,,,,,,,,,,,,,,,,,,,,,,,,,,,,,,,,,,,,,,,,,,,,,,,,,,,,,,,,,,,,,,,,,,,,,,,,,,,,,,,,,,,,,,,,,,,,,,,,,,,,,,,,,,,,
0,72,72,20,1,,608e74070357794c8c355e75,62bbf9d5bb9736d56fd3e429,2022-06-29_09h06.23.430,Colour_Asymmetry_Pilot,2022.1.3,Win32,59.95203837,62bbe60bf3d75ef465d3e404,,,,,,,,,,,,,,,,,,,,,,,,,,,,,,,,,,,,,,,,,,,,,,,,,,,,,,,,,,,,,,,,,,,,,,,,,,,,,,,,,,,,,,,,,,,,,,,,,,,,,,,,,,,,,,,,,,,,,,,,,,,,,,,,,,,,,,,,,,,,,,,,,,,,,,,,,,,,,,
0,73,73,7,1,,608e74070357794c8c355e75,62bbf9d5bb9736d56fd3e429,2022-06-29_09h06.23.430,Colour_Asymmetry_Pilot,2022.1.3,Win32,59.95203837,62bbe60bf3d75ef465d3e404,,,,,,,,,,,,,,,,,,,,,,,,,,,,,,,,,,,,,,,,,,,,,,,,,,,,,,,,,,,,,,,,,,,,,,,,,,,,,,,,,,,,,,,,,,,,,,,,,,,,,,,,,,,,,,,,,,,,,,,,,,,,,,,,,,,,,,,,,,,,,,,,,,,,,,,,,,,,,,
0,74,74,88,1,,608e74070357794c8c355e75,62bbf9d5bb9736d56fd3e429,2022-06-29_09h06.23.430,Colour_Asymmetry_Pilot,2022.1.3,Win32,59.95203837,62bbe60bf3d75ef465d3e404,,,,,,,,,,,,,,,,,,,,,,,,,,,,,,,,,,,,,,,,,,,,,,,,,,,,,,,,,,,,,,,,,,,,,,,,,,,,,,,,,,,,,,,,,,,,,,,,,,,,,,,,,,,,,,,,,,,,,,,,,,,,,,,,,,,,,,,,,,,,,,,,,,,,,,,,,,,,,,
0,75,75,61,1,,608e74070357794c8c355e75,62bbf9d5bb9736d56fd3e429,2022-06-29_09h06.23.430,Colour_Asymmetry_Pilot,2022.1.3,Win32,59.95203837,62bbe60bf3d75ef465d3e404,,,,,,,,,,,,,,,,,,,,,,,,,,,,,,,,,,,,,,,,,,,,,,,,,,,,,,,,,,,,,,,,,,,,,,,,,,,,,,,,,,,,,,,,,,,,,,,,,,,,,,,,,,,,,,,,,,,,,,,,,,,,,,,,,,,,,,,,,,,,,,,,,,,,,,,,,,,,,,
0,76,76,1,1,,608e74070357794c8c355e75,62bbf9d5bb9736d56fd3e429,2022-06-29_09h06.23.430,Colour_Asymmetry_Pilot,2022.1.3,Win32,59.95203837,62bbe60bf3d75ef465d3e404,,,,,,,,,,,,,,,,,,,,,,,,,,,,,,,,,,,,,,,,,,,,,,,,,,,,,,,,,,,,,,,,,,,,,,,,,,,,,,,,,,,,,,,,,,,,,,,,,,,,,,,,,,,,,,,,,,,,,,,,,,,,,,,,,,,,,,,,,,,,,,,,,,,,,,,,,,,,,,
0,77,77,36,1,,608e74070357794c8c355e75,62bbf9d5bb9736d56fd3e429,2022-06-29_09h06.23.430,Colour_Asymmetry_Pilot,2022.1.3,Win32,59.95203837,62bbe60bf3d75ef465d3e404,,,,,,,,,,,,,,,,,,,,,,,,,,,,,,,,,,,,,,,,,,,,,,,,,,,,,,,,,,,,,,,,,,,,,,,,,,,,,,,,,,,,,,,,,,,,,,,,,,,,,,,,,,,,,,,,,,,,,,,,,,,,,,,,,,,,,,,,,,,,,,,,,,,,,,,,,,,,,,
0,78,78,19,1,,608e74070357794c8c355e75,62bbf9d5bb9736d56fd3e429,2022-06-29_09h06.23.430,Colour_Asymmetry_Pilot,2022.1.3,Win32,59.95203837,62bbe60bf3d75ef465d3e404,,,,,,,,,,,,,,,,,,,,,,,,,,,,,,,,,,,,,,,,,,,,,,,,,,,,,,,,,,,,,,,,,,,,,,,,,,,,,,,,,,,,,,,,,,,,,,,,,,,,,,,,,,,,,,,,,,,,,,,,,,,,,,,,,,,,,,,,,,,,,,,,,,,,,,,,,,,,,,
0,79,79,72,1,,608e74070357794c8c355e75,62bbf9d5bb9736d56fd3e429,2022-06-29_09h06.23.430,Colour_Asymmetry_Pilot,2022.1.3,Win32,59.95203837,62bbe60bf3d75ef465d3e404,,,,,,,,,,,,,,,,,,,,,,,,,,,,,,,,,,,,,,,,,,,,,,,,,,,,,,,,,,,,,,,,,,,,,,,,,,,,,,,,,,,,,,,,,,,,,,,,,,,,,,,,,,,,,,,,,,,,,,,,,,,,,,,,,,,,,,,,,,,,,,,,,,,,,,,,,,,,,,
0,80,80,70,1,,608e74070357794c8c355e75,62bbf9d5bb9736d56fd3e429,2022-06-29_09h06.23.430,Colour_Asymmetry_Pilot,2022.1.3,Win32,59.95203837,62bbe60bf3d75ef465d3e404,,,,,,,,,,,,,,,,,,,,,,,,,,,,,,,,,,,,,,,,,,,,,,,,,,,,,,,,,,,,,,,,,,,,,,,,,,,,,,,,,,,,,,,,,,,,,,,,,,,,,,,,,,,,,,,,,,,,,,,,,,,,,,,,,,,,,,,,,,,,,,,,,,,,,,,,,,,,,,
0,81,81,26,1,,608e74070357794c8c355e75,62bbf9d5bb9736d56fd3e429,2022-06-29_09h06.23.430,Colour_Asymmetry_Pilot,2022.1.3,Win32,59.95203837,62bbe60bf3d75ef465d3e404,,,,,,,,,,,,,,,,,,,,,,,,,,,,,,,,,,,,,,,,,,,,,,,,,,,,,,,,,,,,,,,,,,,,,,,,,,,,,,,,,,,,,,,,,,,,,,,,,,,,,,,,,,,,,,,,,,,,,,,,,,,,,,,,,,,,,,,,,,,,,,,,,,,,,,,,,,,,,,
0,82,82,25,1,,608e74070357794c8c355e75,62bbf9d5bb9736d56fd3e429,2022-06-29_09h06.23.430,Colour_Asymmetry_Pilot,2022.1.3,Win32,59.95203837,62bbe60bf3d75ef465d3e404,,,,,,,,,,,,,,,,,,,,,,,,,,,,,,,,,,,,,,,,,,,,,,,,,,,,,,,,,,,,,,,,,,,,,,,,,,,,,,,,,,,,,,,,,,,,,,,,,,,,,,,,,,,,,,,,,,,,,,,,,,,,,,,,,,,,,,,,,,,,,,,,,,,,,,,,,,,,,,
0,83,83,41,1,,608e74070357794c8c355e75,62bbf9d5bb9736d56fd3e429,2022-06-29_09h06.23.430,Colour_Asymmetry_Pilot,2022.1.3,Win32,59.95203837,62bbe60bf3d75ef465d3e404,,,,,,,,,,,,,,,,,,,,,,,,,,,,,,,,,,,,,,,,,,,,,,,,,,,,,,,,,,,,,,,,,,,,,,,,,,,,,,,,,,,,,,,,,,,,,,,,,,,,,,,,,,,,,,,,,,,,,,,,,,,,,,,,,,,,,,,,,,,,,,,,,,,,,,,,,,,,,,
0,84,84,32,1,,608e74070357794c8c355e75,62bbf9d5bb9736d56fd3e429,2022-06-29_09h06.23.430,Colour_Asymmetry_Pilot,2022.1.3,Win32,59.95203837,62bbe60bf3d75ef465d3e404,,,,,,,,,,,,,,,,,,,,,,,,,,,,,,,,,,,,,,,,,,,,,,,,,,,,,,,,,,,,,,,,,,,,,,,,,,,,,,,,,,,,,,,,,,,,,,,,,,,,,,,,,,,,,,,,,,,,,,,,,,,,,,,,,,,,,,,,,,,,,,,,,,,,,,,,,,,,,,
0,85,85,83,1,,608e74070357794c8c355e75,62bbf9d5bb9736d56fd3e429,2022-06-29_09h06.23.430,Colour_Asymmetry_Pilot,2022.1.3,Win32,59.95203837,62bbe60bf3d75ef465d3e404,,,,,,,,,,,,,,,,,,,,,,,,,,,,,,,,,,,,,,,,,,,,,,,,,,,,,,,,,,,,,,,,,,,,,,,,,,,,,,,,,,,,,,,,,,,,,,,,,,,,,,,,,,,,,,,,,,,,,,,,,,,,,,,,,,,,,,,,,,,,,,,,,,,,,,,,,,,,,,
0,86,86,74,1,,608e74070357794c8c355e75,62bbf9d5bb9736d56fd3e429,2022-06-29_09h06.23.430,Colour_Asymmetry_Pilot,2022.1.3,Win32,59.95203837,62bbe60bf3d75ef465d3e404,,,,,,,,,,,,,,,,,,,,,,,,,,,,,,,,,,,,,,,,,,,,,,,,,,,,,,,,,,,,,,,,,,,,,,,,,,,,,,,,,,,,,,,,,,,,,,,,,,,,,,,,,,,,,,,,,,,,,,,,,,,,,,,,,,,,,,,,,,,,,,,,,,,,,,,,,,,,,,
0,87,87,64,1,,608e74070357794c8c355e75,62bbf9d5bb9736d56fd3e429,2022-06-29_09h06.23.430,Colour_Asymmetry_Pilot,2022.1.3,Win32,59.95203837,62bbe60bf3d75ef465d3e404,,,,,,,,,,,,,,,,,,,,,,,,,,,,,,,,,,,,,,,,,,,,,,,,,,,,,,,,,,,,,,,,,,,,,,,,,,,,,,,,,,,,,,,,,,,,,,,,,,,,,,,,,,,,,,,,,,,,,,,,,,,,,,,,,,,,,,,,,,,,,,,,,,,,,,,,,,,,,,
0,88,88,85,1,,608e74070357794c8c355e75,62bbf9d5bb9736d56fd3e429,2022-06-29_09h06.23.430,Colour_Asymmetry_Pilot,2022.1.3,Win32,59.95203837,62bbe60bf3d75ef465d3e404,,,,,,,,,,,,,,,,,,,,,,,,,,,,,,,,,,,,,,,,,,,,,,,,,,,,,,,,,,,,,,,,,,,,,,,,,,,,,,,,,,,,,,,,,,,,,,,,,,,,,,,,,,,,,,,,,,,,,,,,,,,,,,,,,,,,,,,,,,,,,,,,,,,,,,,,,,,,,,
0,89,89,50,1,,608e74070357794c8c355e75,62bbf9d5bb9736d56fd3e429,2022-06-29_09h06.23.430,Colour_Asymmetry_Pilot,2022.1.3,Win32,59.95203837,62bbe60bf3d75ef465d3e404,,,,,,,,,,,,,,,,,,,,,,,,,,,,,,,,,,,,,,,,,,,,,,,,,,,,,,,,,,,,,,,,,,,,,,,,,,,,,,,,,,,,,,,,,,,,,,,,,,,,,,,,,,,,,,,,,,,,,,,,,,,,,,,,,,,,,,,,,,,,,,,,,,,,,,,,,,,,,,
0,90,90,68,1,,608e74070357794c8c355e75,62bbf9d5bb9736d56fd3e429,2022-06-29_09h06.23.430,Colour_Asymmetry_Pilot,2022.1.3,Win32,59.95203837,62bbe60bf3d75ef465d3e404,,,,,,,,,,,,,,,,,,,,,,,,,,,,,,,,,,,,,,,,,,,,,,,,,,,,,,,,,,,,,,,,,,,,,,,,,,,,,,,,,,,,,,,,,,,,,,,,,,,,,,,,,,,,,,,,,,,,,,,,,,,,,,,,,,,,,,,,,,,,,,,,,,,,,,,,,,,,,,
0,91,91,44,1,,608e74070357794c8c355e75,62bbf9d5bb9736d56fd3e429,2022-06-29_09h06.23.430,Colour_Asymmetry_Pilot,2022.1.3,Win32,59.95203837,62bbe60bf3d75ef465d3e404,,,,,,,,,,,,,,,,,,,,,,,,,,,,,,,,,,,,,,,,,,,,,,,,,,,,,,,,,,,,,,,,,,,,,,,,,,,,,,,,,,,,,,,,,,,,,,,,,,,,,,,,,,,,,,,,,,,,,,,,,,,,,,,,,,,,,,,,,,,,,,,,,,,,,,,,,,,,,,
0,92,92,60,1,,608e74070357794c8c355e75,62bbf9d5bb9736d56fd3e429,2022-06-29_09h06.23.430,Colour_Asymmetry_Pilot,2022.1.3,Win32,59.95203837,62bbe60bf3d75ef465d3e404,,,,,,,,,,,,,,,,,,,,,,,,,,,,,,,,,,,,,,,,,,,,,,,,,,,,,,,,,,,,,,,,,,,,,,,,,,,,,,,,,,,,,,,,,,,,,,,,,,,,,,,,,,,,,,,,,,,,,,,,,,,,,,,,,,,,,,,,,,,,,,,,,,,,,,,,,,,,,,
,,,,,,608e74070357794c8c355e75,62bbf9d5bb9736d56fd3e429,2022-06-29_09h06.23.430,Colour_Asymmetry_Pilot,2022.1.3,Win32,59.95203837,62bbe60bf3d75ef465d3e404,0,0,0,147,1,twofour,,,,,,,,,,,,,,,,,,,,,,,,,,,,,,,,,,,,,,,,,,,,,,,,,,,,,,,,,,,,,,,,,,,,,,,,,,,,,,,,,,,,,,,,,,,,,,,,,,,,,,,,,,,,,,,,,,,,,,,,,,,,,,,,,,,,,,,,,,,,,,,,,,,,,,,,
,,,,,,608e74070357794c8c355e75,62bbf9d5bb9736d56fd3e429,2022-06-29_09h06.23.430,Colour_Asymmetry_Pilot,2022.1.3,Win32,59.95203837,62bbe60bf3d75ef465d3e404,0,1,1,47,1,fourthree,,,,,,,,,,,,,,,,,,,,,,,,,,,,,,,,,,,,,,,,,,,,,,,,,,,,,,,,,,,,,,,,,,,,,,,,,,,,,,,,,,,,,,,,,,,,,,,,,,,,,,,,,,,,,,,,,,,,,,,,,,,,,,,,,,,,,,,,,,,,,,,,,,,,,,,,
,,,,,,608e74070357794c8c355e75,62bbf9d5bb9736d56fd3e429,2022-06-29_09h06.23.430,Colour_Asymmetry_Pilot,2022.1.3,Win32,59.95203837,62bbe60bf3d75ef465d3e404,0,2,2,158,1,fourtwo,,,,,,,,,,,,,,,,,,,,,,,,,,,,,,,,,,,,,,,,,,,,,,,,,,,,,,,,,,,,,,,,,,,,,,,,,,,,,,,,,,,,,,,,,,,,,,,,,,,,,,,,,,,,,,,,,,,,,,,,,,,,,,,,,,,,,,,,,,,,,,,,,,,,,,,,
,,,,,,608e74070357794c8c355e75,62bbf9d5bb9736d56fd3e429,2022-06-29_09h06.23.430,Colour_Asymmetry_Pilot,2022.1.3,Win32,59.95203837,62bbe60bf3d75ef465d3e404,0,3,3,36,1,threeone,,,,,,,,,,,,,,,,,,,,,,,,,,,,,,,,,,,,,,,,,,,,,,,,,,,,,,,,,,,,,,,,,,,,,,,,,,,,,,,,,,,,,,,,,,,,,,,,,,,,,,,,,,,,,,,,,,,,,,,,,,,,,,,,,,,,,,,,,,,,,,,,,,,,,,,,
,,,,,,608e74070357794c8c355e75,62bbf9d5bb9736d56fd3e429,2022-06-29_09h06.23.430,Colour_Asymmetry_Pilot,2022.1.3,Win32,59.95203837,62bbe60bf3d75ef465d3e404,0,4,4,134,1,fourtwo,,,,,,,,,,,,,,,,,,,,,,,,,,,,,,,,,,,,,,,,,,,,,,,,,,,,,,,,,,,,,,,,,,,,,,,,,,,,,,,,,,,,,,,,,,,,,,,,,,,,,,,,,,,,,,,,,,,,,,,,,,,,,,,,,,,,,,,,,,,,,,,,,,,,,,,,
,,,,,,608e74070357794c8c355e75,62bbf9d5bb9736d56fd3e429,2022-06-29_09h06.23.430,Colour_Asymmetry_Pilot,2022.1.3,Win32,59.95203837,62bbe60bf3d75ef465d3e404,0,5,5,67,1,twofour,,,,,,,,,,,,,,,,,,,,,,,,,,,,,,,,,,,,,,,,,,,,,,,,,,,,,,,,,,,,,,,,,,,,,,,,,,,,,,,,,,,,,,,,,,,,,,,,,,,,,,,,,,,,,,,,,,,,,,,,,,,,,,,,,,,,,,,,,,,,,,,,,,,,,,,,
,,,,,,608e74070357794c8c355e75,62bbf9d5bb9736d56fd3e429,2022-06-29_09h06.23.430,Colour_Asymmetry_Pilot,2022.1.3,Win32,59.95203837,62bbe60bf3d75ef465d3e404,0,6,6,148,1,threeone,,,,,,,,,,,,,,,,,,,,,,,,,,,,,,,,,,,,,,,,,,,,,,,,,,,,,,,,,,,,,,,,,,,,,,,,,,,,,,,,,,,,,,,,,,,,,,,,,,,,,,,,,,,,,,,,,,,,,,,,,,,,,,,,,,,,,,,,,,,,,,,,,,,,,,,,
,,,,,,608e74070357794c8c355e75,62bbf9d5bb9736d56fd3e429,2022-06-29_09h06.23.430,Colour_Asymmetry_Pilot,2022.1.3,Win32,59.95203837,62bbe60bf3d75ef465d3e404,0,7,7,16,1,onetwo,,,,,,,,,,,,,,,,,,,,,,,,,,,,,,,,,,,,,,,,,,,,,,,,,,,,,,,,,,,,,,,,,,,,,,,,,,,,,,,,,,,,,,,,,,,,,,,,,,,,,,,,,,,,,,,,,,,,,,,,,,,,,,,,,,,,,,,,,,,,,,,,,,,,,,,,
,,,,,,608e74070357794c8c355e75,62bbf9d5bb9736d56fd3e429,2022-06-29_09h06.23.430,Colour_Asymmetry_Pilot,2022.1.3,Win32,59.95203837,62bbe60bf3d75ef465d3e404,0,8,8,24,1,onetwo,,,,,,,,,,,,,,,,,,,,,,,,,,,,,,,,,,,,,,,,,,,,,,,,,,,,,,,,,,,,,,,,,,,,,,,,,,,,,,,,,,,,,,,,,,,,,,,,,,,,,,,,,,,,,,,,,,,,,,,,,,,,,,,,,,,,,,,,,,,,,,,,,,,,,,,,
,,,,,,608e74070357794c8c355e75,62bbf9d5bb9736d56fd3e429,2022-06-29_09h06.23.430,Colour_Asymmetry_Pilot,2022.1.3,Win32,59.95203837,62bbe60bf3d75ef465d3e404,0,9,9,94,1,fourtwo,,,,,,,,,,,,,,,,,,,,,,,,,,,,,,,,,,,,,,,,,,,,,,,,,,,,,,,,,,,,,,,,,,,,,,,,,,,,,,,,,,,,,,,,,,,,,,,,,,,,,,,,,,,,,,,,,,,,,,,,,,,,,,,,,,,,,,,,,,,,,,,,,,,,,,,,
,,,,,,608e74070357794c8c355e75,62bbf9d5bb9736d56fd3e429,2022-06-29_09h06.23.430,Colour_Asymmetry_Pilot,2022.1.3,Win32,59.95203837,62bbe60bf3d75ef465d3e404,0,10,10,70,1,fourtwo,,,,,,,,,,,,,,,,,,,,,,,,,,,,,,,,,,,,,,,,,,,,,,,,,,,,,,,,,,,,,,,,,,,,,,,,,,,,,,,,,,,,,,,,,,,,,,,,,,,,,,,,,,,,,,,,,,,,,,,,,,,,,,,,,,,,,,,,,,,,,,,,,,,,,,,,
,,,,,,608e74070357794c8c355e75,62bbf9d5bb9736d56fd3e429,2022-06-29_09h06.23.430,Colour_Asymmetry_Pilot,2022.1.3,Win32,59.95203837,62bbe60bf3d75ef465d3e404,0,11,11,4,1,threeone,,,,,,,,,,,,,,,,,,,,,,,,,,,,,,,,,,,,,,,,,,,,,,,,,,,,,,,,,,,,,,,,,,,,,,,,,,,,,,,,,,,,,,,,,,,,,,,,,,,,,,,,,,,,,,,,,,,,,,,,,,,,,,,,,,,,,,,,,,,,,,,,,,,,,,,,
,,,,,,608e74070357794c8c355e75,62bbf9d5bb9736d56fd3e429,2022-06-29_09h06.23.430,Colour_Asymmetry_Pilot,2022.1.3,Win32,59.95203837,62bbe60bf3d75ef465d3e404,0,12,12,109,1,threefour,,,,,,,,,,,,,,,,,,,,,,,,,,,,,,,,,,,,,,,,,,,,,,,,,,,,,,,,,,,,,,,,,,,,,,,,,,,,,,,,,,,,,,,,,,,,,,,,,,,,,,,,,,,,,,,,,,,,,,,,,,,,,,,,,,,,,,,,,,,,,,,,,,,,,,,,
,,,,,,608e74070357794c8c355e75,62bbf9d5bb9736d56fd3e429,2022-06-29_09h06.23.430,Colour_Asymmetry_Pilot,2022.1.3,Win32,59.95203837,62bbe60bf3d75ef465d3e404,0,13,13,14,1,fourtwo,,,,,,,,,,,,,,,,,,,,,,,,,,,,,,,,,,,,,,,,,,,,,,,,,,,,,,,,,,,,,,,,,,,,,,,,,,,,,,,,,,,,,,,,,,,,,,,,,,,,,,,,,,,,,,,,,,,,,,,,,,,,,,,,,,,,,,,,,,,,,,,,,,,,,,,,
,,,,,,608e74070357794c8c355e75,62bbf9d5bb9736d56fd3e429,2022-06-29_09h06.23.430,Colour_Asymmetry_Pilot,2022.1.3,Win32,59.95203837,62bbe60bf3d75ef465d3e404,0,14,14,34,1,twoone,,,,,,,,,,,,,,,,,,,,,,,,,,,,,,,,,,,,,,,,,,,,,,,,,,,,,,,,,,,,,,,,,,,,,,,,,,,,,,,,,,,,,,,,,,,,,,,,,,,,,,,,,,,,,,,,,,,,,,,,,,,,,,,,,,,,,,,,,,,,,,,,,,,,,,,,
,,,,,,608e74070357794c8c355e75,62bbf9d5bb9736d56fd3e429,2022-06-29_09h06.23.430,Colour_Asymmetry_Pilot,2022.1.3,Win32,59.95203837,62bbe60bf3d75ef465d3e404,0,15,15,120,1,onetwo,,,,,,,,,,,,,,,,,,,,,,,,,,,,,,,,,,,,,,,,,,,,,,,,,,,,,,,,,,,,,,,,,,,,,,,,,,,,,,,,,,,,,,,,,,,,,,,,,,,,,,,,,,,,,,,,,,,,,,,,,,,,,,,,,,,,,,,,,,,,,,,,,,,,,,,,
,,,,,,608e74070357794c8c355e75,62bbf9d5bb9736d56fd3e429,2022-06-29_09h06.23.430,Colour_Asymmetry_Pilot,2022.1.3,Win32,59.95203837,62bbe60bf3d75ef465d3e404,0,16,16,27,1,twofour,,,,,,,,,,,,,,,,,,,,,,,,,,,,,,,,,,,,,,,,,,,,,,,,,,,,,,,,,,,,,,,,,,,,,,,,,,,,,,,,,,,,,,,,,,,,,,,,,,,,,,,,,,,,,,,,,,,,,,,,,,,,,,,,,,,,,,,,,,,,,,,,,,,,,,,,
,,,,,,608e74070357794c8c355e75,62bbf9d5bb9736d56fd3e429,2022-06-29_09h06.23.430,Colour_Asymmetry_Pilot,2022.1.3,Win32,59.95203837,62bbe60bf3d75ef465d3e404,0,17,17,35,1,twofour,,,,,,,,,,,,,,,,,,,,,,,,,,,,,,,,,,,,,,,,,,,,,,,,,,,,,,,,,,,,,,,,,,,,,,,,,,,,,,,,,,,,,,,,,,,,,,,,,,,,,,,,,,,,,,,,,,,,,,,,,,,,,,,,,,,,,,,,,,,,,,,,,,,,,,,,
,,,,,,608e74070357794c8c355e75,62bbf9d5bb9736d56fd3e429,2022-06-29_09h06.23.430,Colour_Asymmetry_Pilot,2022.1.3,Win32,59.95203837,62bbe60bf3d75ef465d3e404,0,18,18,118,1,fourtwo,,,,,,,,,,,,,,,,,,,,,,,,,,,,,,,,,,,,,,,,,,,,,,,,,,,,,,,,,,,,,,,,,,,,,,,,,,,,,,,,,,,,,,,,,,,,,,,,,,,,,,,,,,,,,,,,,,,,,,,,,,,,,,,,,,,,,,,,,,,,,,,,,,,,,,,,
,,,,,,608e74070357794c8c355e75,62bbf9d5bb9736d56fd3e429,2022-06-29_09h06.23.430,Colour_Asymmetry_Pilot,2022.1.3,Win32,59.95203837,62bbe60bf3d75ef465d3e404,0,19,19,145,1,onethree,,,,,,,,,,,,,,,,,,,,,,,,,,,,,,,,,,,,,,,,,,,,,,,,,,,,,,,,,,,,,,,,,,,,,,,,,,,,,,,,,,,,,,,,,,,,,,,,,,,,,,,,,,,,,,,,,,,,,,,,,,,,,,,,,,,,,,,,,,,,,,,,,,,,,,,,
,,,,,,608e74070357794c8c355e75,62bbf9d5bb9736d56fd3e429,2022-06-29_09h06.23.430,Colour_Asymmetry_Pilot,2022.1.3,Win32,59.95203837,62bbe60bf3d75ef465d3e404,0,20,20,56,1,onetwo,,,,,,,,,,,,,,,,,,,,,,,,,,,,,,,,,,,,,,,,,,,,,,,,,,,,,,,,,,,,,,,,,,,,,,,,,,,,,,,,,,,,,,,,,,,,,,,,,,,,,,,,,,,,,,,,,,,,,,,,,,,,,,,,,,,,,,,,,,,,,,,,,,,,,,,,
,,,,,,608e74070357794c8c355e75,62bbf9d5bb9736d56fd3e429,2022-06-29_09h06.23.430,Colour_Asymmetry_Pilot,2022.1.3,Win32,59.95203837,62bbe60bf3d75ef465d3e404,0,21,21,8,1,onetwo,,,,,,,,,,,,,,,,,,,,,,,,,,,,,,,,,,,,,,,,,,,,,,,,,,,,,,,,,,,,,,,,,,,,,,,,,,,,,,,,,,,,,,,,,,,,,,,,,,,,,,,,,,,,,,,,,,,,,,,,,,,,,,,,,,,,,,,,,,,,,,,,,,,,,,,,
,,,,,,608e74070357794c8c355e75,62bbf9d5bb9736d56fd3e429,2022-06-29_09h06.23.430,Colour_Asymmetry_Pilot,2022.1.3,Win32,59.95203837,62bbe60bf3d75ef465d3e404,0,22,22,107,1,twofour,,,,,,,,,,,,,,,,,,,,,,,,,,,,,,,,,,,,,,,,,,,,,,,,,,,,,,,,,,,,,,,,,,,,,,,,,,,,,,,,,,,,,,,,,,,,,,,,,,,,,,,,,,,,,,,,,,,,,,,,,,,,,,,,,,,,,,,,,,,,,,,,,,,,,,,,
,,,,,,608e74070357794c8c355e75,62bbf9d5bb9736d56fd3e429,2022-06-29_09h06.23.430,Colour_Asymmetry_Pilot,2022.1.3,Win32,59.95203837,62bbe60bf3d75ef465d3e404,0,23,23,88,1,onetwo,,,,,,,,,,,,,,,,,,,,,,,,,,,,,,,,,,,,,,,,,,,,,,,,,,,,,,,,,,,,,,,,,,,,,,,,,,,,,,,,,,,,,,,,,,,,,,,,,,,,,,,,,,,,,,,,,,,,,,,,,,,,,,,,,,,,,,,,,,,,,,,,,,,,,,,,
,,,,,,608e74070357794c8c355e75,62bbf9d5bb9736d56fd3e429,2022-06-29_09h06.23.430,Colour_Asymmetry_Pilot,2022.1.3,Win32,59.95203837,62bbe60bf3d75ef465d3e404,0,24,24,20,1,threeone,,,,,,,,,,,,,,,,,,,,,,,,,,,,,,,,,,,,,,,,,,,,,,,,,,,,,,,,,,,,,,,,,,,,,,,,,,,,,,,,,,,,,,,,,,,,,,,,,,,,,,,,,,,,,,,,,,,,,,,,,,,,,,,,,,,,,,,,,,,,,,,,,,,,,,,,
,,,,,,608e74070357794c8c355e75,62bbf9d5bb9736d56fd3e429,2022-06-29_09h06.23.430,Colour_Asymmetry_Pilot,2022.1.3,Win32,59.95203837,62bbe60bf3d75ef465d3e404,0,25,25,51,1,twofour,,,,,,,,,,,,,,,,,,,,,,,,,,,,,,,,,,,,,,,,,,,,,,,,,,,,,,,,,,,,,,,,,,,,,,,,,,,,,,,,,,,,,,,,,,,,,,,,,,,,,,,,,,,,,,,,,,,,,,,,,,,,,,,,,,,,,,,,,,,,,,,,,,,,,,,,
,,,,,,608e74070357794c8c355e75,62bbf9d5bb9736d56fd3e429,2022-06-29_09h06.23.430,Colour_Asymmetry_Pilot,2022.1.3,Win32,59.95203837,62bbe60bf3d75ef465d3e404,0,26,26,96,1,onetwo,,,,,,,,,,,,,,,,,,,,,,,,,,,,,,,,,,,,,,,,,,,,,,,,,,,,,,,,,,,,,,,,,,,,,,,,,,,,,,,,,,,,,,,,,,,,,,,,,,,,,,,,,,,,,,,,,,,,,,,,,,,,,,,,,,,,,,,,,,,,,,,,,,,,,,,,
,,,,,,608e74070357794c8c355e75,62bbf9d5bb9736d56fd3e429,2022-06-29_09h06.23.430,Colour_Asymmetry_Pilot,2022.1.3,Win32,59.95203837,62bbe60bf3d75ef465d3e404,0,27,27,98,1,twoone,,,,,,,,,,,,,,,,,,,,,,,,,,,,,,,,,,,,,,,,,,,,,,,,,,,,,,,,,,,,,,,,,,,,,,,,,,,,,,,,,,,,,,,,,,,,,,,,,,,,,,,,,,,,,,,,,,,,,,,,,,,,,,,,,,,,,,,,,,,,,,,,,,,,,,,,
,,,,,,608e74070357794c8c355e75,62bbf9d5bb9736d56fd3e429,2022-06-29_09h06.23.430,Colour_Asymmetry_Pilot,2022.1.3,Win32,59.95203837,62bbe60bf3d75ef465d3e404,0,28,28,12,1,threeone,,,,,,,,,,,,,,,,,,,,,,,,,,,,,,,,,,,,,,,,,,,,,,,,,,,,,,,,,,,,,,,,,,,,,,,,,,,,,,,,,,,,,,,,,,,,,,,,,,,,,,,,,,,,,,,,,,,,,,,,,,,,,,,,,,,,,,,,,,,,,,,,,,,,,,,,
,,,,,,608e74070357794c8c355e75,62bbf9d5bb9736d56fd3e429,2022-06-29_09h06.23.430,Colour_Asymmetry_Pilot,2022.1.3,Win32,59.95203837,62bbe60bf3d75ef465d3e404,0,29,29,87,1,fourthree,,,,,,,,,,,,,,,,,,,,,,,,,,,,,,,,,,,,,,,,,,,,,,,,,,,,,,,,,,,,,,,,,,,,,,,,,,,,,,,,,,,,,,,,,,,,,,,,,,,,,,,,,,,,,,,,,,,,,,,,,,,,,,,,,,,,,,,,,,,,,,,,,,,,,,,,
,,,,,,608e74070357794c8c355e75,62bbf9d5bb9736d56fd3e429,2022-06-29_09h06.23.430,Colour_Asymmetry_Pilot,2022.1.3,Win32,59.95203837,62bbe60bf3d75ef465d3e404,0,30,30,133,1,threefour,,,,,,,,,,,,,,,,,,,,,,,,,,,,,,,,,,,,,,,,,,,,,,,,,,,,,,,,,,,,,,,,,,,,,,,,,,,,,,,,,,,,,,,,,,,,,,,,,,,,,,,,,,,,,,,,,,,,,,,,,,,,,,,,,,,,,,,,,,,,,,,,,,,,,,,,
,,,,,,608e74070357794c8c355e75,62bbf9d5bb9736d56fd3e429,2022-06-29_09h06.23.430,Colour_Asymmetry_Pilot,2022.1.3,Win32,59.95203837,62bbe60bf3d75ef465d3e404,0,31,31,6,1,fourtwo,,,,,,,,,,,,,,,,,,,,,,,,,,,,,,,,,,,,,,,,,,,,,,,,,,,,,,,,,,,,,,,,,,,,,,,,,,,,,,,,,,,,,,,,,,,,,,,,,,,,,,,,,,,,,,,,,,,,,,,,,,,,,,,,,,,,,,,,,,,,,,,,,,,,,,,,
,,,,,,608e74070357794c8c355e75,62bbf9d5bb9736d56fd3e429,2022-06-29_09h06.23.430,Colour_Asymmetry_Pilot,2022.1.3,Win32,59.95203837,62bbe60bf3d75ef465d3e404,0,32,32,63,1,fourthree,,,,,,,,,,,,,,,,,,,,,,,,,,,,,,,,,,,,,,,,,,,,,,,,,,,,,,,,,,,,,,,,,,,,,,,,,,,,,,,,,,,,,,,,,,,,,,,,,,,,,,,,,,,,,,,,,,,,,,,,,,,,,,,,,,,,,,,,,,,,,,,,,,,,,,,,
,,,,,,608e74070357794c8c355e75,62bbf9d5bb9736d56fd3e429,2022-06-29_09h06.23.430,Colour_Asymmetry_Pilot,2022.1.3,Win32,59.95203837,62bbe60bf3d75ef465d3e404,0,33,33,30,1,fourtwo,,,,,,,,,,,,,,,,,,,,,,,,,,,,,,,,,,,,,,,,,,,,,,,,,,,,,,,,,,,,,,,,,,,,,,,,,,,,,,,,,,,,,,,,,,,,,,,,,,,,,,,,,,,,,,,,,,,,,,,,,,,,,,,,,,,,,,,,,,,,,,,,,,,,,,,,
,,,,,,608e74070357794c8c355e75,62bbf9d5bb9736d56fd3e429,2022-06-29_09h06.23.430,Colour_Asymmetry_Pilot,2022.1.3,Win32,59.95203837,62bbe60bf3d75ef465d3e404,0,34,34,38,1,fourtwo,,,,,,,,,,,,,,,,,,,,,,,,,,,,,,,,,,,,,,,,,,,,,,,,,,,,,,,,,,,,,,,,,,,,,,,,,,,,,,,,,,,,,,,,,,,,,,,,,,,,,,,,,,,,,,,,,,,,,,,,,,,,,,,,,,,,,,,,,,,,,,,,,,,,,,,,
,,,,,,608e74070357794c8c355e75,62bbf9d5bb9736d56fd3e429,2022-06-29_09h06.23.430,Colour_Asymmetry_Pilot,2022.1.3,Win32,59.95203837,62bbe60bf3d75ef465d3e404,0,35,35,119,1,fourthree,,,,,,,,,,,,,,,,,,,,,,,,,,,,,,,,,,,,,,,,,,,,,,,,,,,,,,,,,,,,,,,,,,,,,,,,,,,,,,,,,,,,,,,,,,,,,,,,,,,,,,,,,,,,,,,,,,,,,,,,,,,,,,,,,,,,,,,,,,,,,,,,,,,,,,,,
,,,,,,608e74070357794c8c355e75,62bbf9d5bb9736d56fd3e429,2022-06-29_09h06.23.430,Colour_Asymmetry_Pilot,2022.1.3,Win32,59.95203837,62bbe60bf3d75ef465d3e404,0,36,36,150,1,fourtwo,,,,,,,,,,,,,,,,,,,,,,,,,,,,,,,,,,,,,,,,,,,,,,,,,,,,,,,,,,,,,,,,,,,,,,,,,,,,,,,,,,,,,,,,,,,,,,,,,,,,,,,,,,,,,,,,,,,,,,,,,,,,,,,,,,,,,,,,,,,,,,,,,,,,,,,,
,,,,,,608e74070357794c8c355e75,62bbf9d5bb9736d56fd3e429,2022-06-29_09h06.23.430,Colour_Asymmetry_Pilot,2022.1.3,Win32,59.95203837,62bbe60bf3d75ef465d3e404,0,37,37,95,1,fourthree,,,,,,,,,,,,,,,,,,,,,,,,,,,,,,,,,,,,,,,,,,,,,,,,,,,,,,,,,,,,,,,,,,,,,,,,,,,,,,,,,,,,,,,,,,,,,,,,,,,,,,,,,,,,,,,,,,,,,,,,,,,,,,,,,,,,,,,,,,,,,,,,,,,,,,,,
,,,,,,608e74070357794c8c355e75,62bbf9d5bb9736d56fd3e429,2022-06-29_09h06.23.430,Colour_Asymmetry_Pilot,2022.1.3,Win32,59.95203837,62bbe60bf3d75ef465d3e404,0,38,38,0,1,onetwo,,,,,,,,,,,,,,,,,,,,,,,,,,,,,,,,,,,,,,,,,,,,,,,,,,,,,,,,,,,,,,,,,,,,,,,,,,,,,,,,,,,,,,,,,,,,,,,,,,,,,,,,,,,,,,,,,,,,,,,,,,,,,,,,,,,,,,,,,,,,,,,,,,,,,,,,
,,,,,,608e74070357794c8c355e75,62bbf9d5bb9736d56fd3e429,2022-06-29_09h06.23.430,Colour_Asymmetry_Pilot,2022.1.3,Win32,59.95203837,62bbe60bf3d75ef465d3e404,0,39,39,46,1,fourtwo,,,,,,,,,,,,,,,,,,,,,,,,,,,,,,,,,,,,,,,,,,,,,,,,,,,,,,,,,,,,,,,,,,,,,,,,,,,,,,,,,,,,,,,,,,,,,,,,,,,,,,,,,,,,,,,,,,,,,,,,,,,,,,,,,,,,,,,,,,,,,,,,,,,,,,,,
,,,,,,608e74070357794c8c355e75,62bbf9d5bb9736d56fd3e429,2022-06-29_09h06.23.430,Colour_Asymmetry_Pilot,2022.1.3,Win32,59.95203837,62bbe60bf3d75ef465d3e404,0,40,40,90,1,twoone,,,,,,,,,,,,,,,,,,,,,,,,,,,,,,,,,,,,,,,,,,,,,,,,,,,,,,,,,,,,,,,,,,,,,,,,,,,,,,,,,,,,,,,,,,,,,,,,,,,,,,,,,,,,,,,,,,,,,,,,,,,,,,,,,,,,,,,,,,,,,,,,,,,,,,,,
,,,,,,608e74070357794c8c355e75,62bbf9d5bb9736d56fd3e429,2022-06-29_09h06.23.430,Colour_Asymmetry_Pilot,2022.1.3,Win32,59.95203837,62bbe60bf3d75ef465d3e404,0,41,41,72,1,onetwo,,,,,,,,,,,,,,,,,,,,,,,,,,,,,,,,,,,,,,,,,,,,,,,,,,,,,,,,,,,,,,,,,,,,,,,,,,,,,,,,,,,,,,,,,,,,,,,,,,,,,,,,,,,,,,,,,,,,,,,,,,,,,,,,,,,,,,,,,,,,,,,,,,,,,,,,
,,,,,,608e74070357794c8c355e75,62bbf9d5bb9736d56fd3e429,2022-06-29_09h06.23.430,Colour_Asymmetry_Pilot,2022.1.3,Win32,59.95203837,62bbe60bf3d75ef465d3e404,0,42,42,91,1,twofour,,,,,,,,,,,,,,,,,,,,,,,,,,,,,,,,,,,,,,,,,,,,,,,,,,,,,,,,,,,,,,,,,,,,,,,,,,,,,,,,,,,,,,,,,,,,,,,,,,,,,,,,,,,,,,,,,,,,,,,,,,,,,,,,,,,,,,,,,,,,,,,,,,,,,,,,
,,,,,,608e74070357794c8c355e75,62bbf9d5bb9736d56fd3e429,2022-06-29_09h06.23.430,Colour_Asymmetry_Pilot,2022.1.3,Win32,59.95203837,62bbe60bf3d75ef465d3e404,0,43,43,39,1,fourthree,,,,,,,,,,,,,,,,,,,,,,,,,,,,,,,,,,,,,,,,,,,,,,,,,,,,,,,,,,,,,,,,,,,,,,,,,,,,,,,,,,,,,,,,,,,,,,,,,,,,,,,,,,,,,,,,,,,,,,,,,,,,,,,,,,,,,,,,,,,,,,,,,,,,,,,,
,,,,,,608e74070357794c8c355e75,62bbf9d5bb9736d56fd3e429,2022-06-29_09h06.23.430,Colour_Asymmetry_Pilot,2022.1.3,Win32,59.95203837,62bbe60bf3d75ef465d3e404,0,44,44,79,1,fourthree,,,,,,,,,,,,,,,,,,,,,,,,,,,,,,,,,,,,,,,,,,,,,,,,,,,,,,,,,,,,,,,,,,,,,,,,,,,,,,,,,,,,,,,,,,,,,,,,,,,,,,,,,,,,,,,,,,,,,,,,,,,,,,,,,,,,,,,,,,,,,,,,,,,,,,,,
,,,,,,608e74070357794c8c355e75,62bbf9d5bb9736d56fd3e429,2022-06-29_09h06.23.430,Colour_Asymmetry_Pilot,2022.1.3,Win32,59.95203837,62bbe60bf3d75ef465d3e404,0,45,45,50,1,twoone,,,,,,,,,,,,,,,,,,,,,,,,,,,,,,,,,,,,,,,,,,,,,,,,,,,,,,,,,,,,,,,,,,,,,,,,,,,,,,,,,,,,,,,,,,,,,,,,,,,,,,,,,,,,,,,,,,,,,,,,,,,,,,,,,,,,,,,,,,,,,,,,,,,,,,,,
,,,,,,608e74070357794c8c355e75,62bbf9d5bb9736d56fd3e429,2022-06-29_09h06.23.430,Colour_Asymmetry_Pilot,2022.1.3,Win32,59.95203837,62bbe60bf3d75ef465d3e404,0,46,46,11,1,twofour,,,,,,,,,,,,,,,,,,,,,,,,,,,,,,,,,,,,,,,,,,,,,,,,,,,,,,,,,,,,,,,,,,,,,,,,,,,,,,,,,,,,,,,,,,,,,,,,,,,,,,,,,,,,,,,,,,,,,,,,,,,,,,,,,,,,,,,,,,,,,,,,,,,,,,,,
,,,,,,608e74070357794c8c355e75,62bbf9d5bb9736d56fd3e429,2022-06-29_09h06.23.430,Colour_Asymmetry_Pilot,2022.1.3,Win32,59.95203837,62bbe60bf3d75ef465d3e404,0,47,47,53,1,threefour,,,,,,,,,,,,,,,,,,,,,,,,,,,,,,,,,,,,,,,,,,,,,,,,,,,,,,,,,,,,,,,,,,,,,,,,,,,,,,,,,,,,,,,,,,,,,,,,,,,,,,,,,,,,,,,,,,,,,,,,,,,,,,,,,,,,,,,,,,,,,,,,,,,,,,,,
,,,,,,608e74070357794c8c355e75,62bbf9d5bb9736d56fd3e429,2022-06-29_09h06.23.430,Colour_Asymmetry_Pilot,2022.1.3,Win32,59.95203837,62bbe60bf3d75ef465d3e404,0,48,48,66,1,twoone,,,,,,,,,,,,,,,,,,,,,,,,,,,,,,,,,,,,,,,,,,,,,,,,,,,,,,,,,,,,,,,,,,,,,,,,,,,,,,,,,,,,,,,,,,,,,,,,,,,,,,,,,,,,,,,,,,,,,,,,,,,,,,,,,,,,,,,,,,,,,,,,,,,,,,,,
,,,,,,608e74070357794c8c355e75,62bbf9d5bb9736d56fd3e429,2022-06-29_09h06.23.430,Colour_Asymmetry_Pilot,2022.1.3,Win32,59.95203837,62bbe60bf3d75ef465d3e404,0,49,49,28,1,threeone,,,,,,,,,,,,,,,,,,,,,,,,,,,,,,,,,,,,,,,,,,,,,,,,,,,,,,,,,,,,,,,,,,,,,,,,,,,,,,,,,,,,,,,,,,,,,,,,,,,,,,,,,,,,,,,,,,,,,,,,,,,,,,,,,,,,,,,,,,,,,,,,,,,,,,,,
,,,,,,608e74070357794c8c355e75,62bbf9d5bb9736d56fd3e429,2022-06-29_09h06.23.430,Colour_Asymmetry_Pilot,2022.1.3,Win32,59.95203837,62bbe60bf3d75ef465d3e404,0,50,50,13,1,threefour,,,,,,,,,,,,,,,,,,,,,,,,,,,,,,,,,,,,,,,,,,,,,,,,,,,,,,,,,,,,,,,,,,,,,,,,,,,,,,,,,,,,,,,,,,,,,,,,,,,,,,,,,,,,,,,,,,,,,,,,,,,,,,,,,,,,,,,,,,,,,,,,,,,,,,,,
,,,,,,608e74070357794c8c355e75,62bbf9d5bb9736d56fd3e429,2022-06-29_09h06.23.430,Colour_Asymmetry_Pilot,2022.1.3,Win32,59.95203837,62bbe60bf3d75ef465d3e404,0,51,51,83,1,twofour,,,,,,,,,,,,,,,,,,,,,,,,,,,,,,,,,,,,,,,,,,,,,,,,,,,,,,,,,,,,,,,,,,,,,,,,,,,,,,,,,,,,,,,,,,,,,,,,,,,,,,,,,,,,,,,,,,,,,,,,,,,,,,,,,,,,,,,,,,,,,,,,,,,,,,,,
,,,,,,608e74070357794c8c355e75,62bbf9d5bb9736d56fd3e429,2022-06-29_09h06.23.430,Colour_Asymmetry_Pilot,2022.1.3,Win32,59.95203837,62bbe60bf3d75ef465d3e404,0,52,52,156,1,threeone,,,,,,,,,,,,,,,,,,,,,,,,,,,,,,,,,,,,,,,,,,,,,,,,,,,,,,,,,,,,,,,,,,,,,,,,,,,,,,,,,,,,,,,,,,,,,,,,,,,,,,,,,,,,,,,,,,,,,,,,,,,,,,,,,,,,,,,,,,,,,,,,,,,,,,,,
,,,,,,608e74070357794c8c355e75,62bbf9d5bb9736d56fd3e429,2022-06-29_09h06.23.430,Colour_Asymmetry_Pilot,2022.1.3,Win32,59.95203837,62bbe60bf3d75ef465d3e404,0,53,53,3,1,twofour,,,,,,,,,,,,,,,,,,,,,,,,,,,,,,,,,,,,,,,,,,,,,,,,,,,,,,,,,,,,,,,,,,,,,,,,,,,,,,,,,,,,,,,,,,,,,,,,,,,,,,,,,,,,,,,,,,,,,,,,,,,,,,,,,,,,,,,,,,,,,,,,,,,,,,,,
,,,,,,608e74070357794c8c355e75,62bbf9d5bb9736d56fd3e429,2022-06-29_09h06.23.430,Colour_Asymmetry_Pilot,2022.1.3,Win32,59.95203837,62bbe60bf3d75ef465d3e404,0,54,54,41,1,onethree,,,,,,,,,,,,,,,,,,,,,,,,,,,,,,,,,,,,,,,,,,,,,,,,,,,,,,,,,,,,,,,,,,,,,,,,,,,,,,,,,,,,,,,,,,,,,,,,,,,,,,,,,,,,,,,,,,,,,,,,,,,,,,,,,,,,,,,,,,,,,,,,,,,,,,,,
,,,,,,608e74070357794c8c355e75,62bbf9d5bb9736d56fd3e429,2022-06-29_09h06.23.430,Colour_Asymmetry_Pilot,2022.1.3,Win32,59.95203837,62bbe60bf3d75ef465d3e404,0,55,55,128,1,onetwo,,,,,,,,,,,,,,,,,,,,,,,,,,,,,,,,,,,,,,,,,,,,,,,,,,,,,,,,,,,,,,,,,,,,,,,,,,,,,,,,,,,,,,,,,,,,,,,,,,,,,,,,,,,,,,,,,,,,,,,,,,,,,,,,,,,,,,,,,,,,,,,,,,,,,,,,
,,,,,,608e74070357794c8c355e75,62bbf9d5bb9736d56fd3e429,2022-06-29_09h06.23.430,Colour_Asymmetry_Pilot,2022.1.3,Win32,59.95203837,62bbe60bf3d75ef465d3e404,0,56,56,123,1,twofour,,,,,,,,,,,,,,,,,,,,,,,,,,,,,,,,,,,,,,,,,,,,,,,,,,,,,,,,,,,,,,,,,,,,,,,,,,,,,,,,,,,,,,,,,,,,,,,,,,,,,,,,,,,,,,,,,,,,,,,,,,,,,,,,,,,,,,,,,,,,,,,,,,,,,,,,
,,,,,,608e74070357794c8c355e75,62bbf9d5bb9736d56fd3e429,2022-06-29_09h06.23.430,Colour_Asymmetry_Pilot,2022.1.3,Win32,59.95203837,62bbe60bf3d75ef465d3e404,0,57,57,17,1,onethree,,,,,,,,,,,,,,,,,,,,,,,,,,,,,,,,,,,,,,,,,,,,,,,,,,,,,,,,,,,,,,,,,,,,,,,,,,,,,,,,,,,,,,,,,,,,,,,,,,,,,,,,,,,,,,,,,,,,,,,,,,,,,,,,,,,,,,,,,,,,,,,,,,,,,,,,
,,,,,,608e74070357794c8c355e75,62bbf9d5bb9736d56fd3e429,2022-06-29_09h06.23.430,Colour_Asymmetry_Pilot,2022.1.3,Win32,59.95203837,62bbe60bf3d75ef465d3e404,0,58,58,137,1,onethree,,,,,,,,,,,,,,,,,,,,,,,,,,,,,,,,,,,,,,,,,,,,,,,,,,,,,,,,,,,,,,,,,,,,,,,,,,,,,,,,,,,,,,,,,,,,,,,,,,,,,,,,,,,,,,,,,,,,,,,,,,,,,,,,,,,,,,,,,,,,,,,,,,,,,,,,
,,,,,,608e74070357794c8c355e75,62bbf9d5bb9736d56fd3e429,2022-06-29_09h06.23.430,Colour_Asymmetry_Pilot,2022.1.3,Win32,59.95203837,62bbe60bf3d75ef465d3e404,0,59,59,116,1,threeone,,,,,,,,,,,,,,,,,,,,,,,,,,,,,,,,,,,,,,,,,,,,,,,,,,,,,,,,,,,,,,,,,,,,,,,,,,,,,,,,,,,,,,,,,,,,,,,,,,,,,,,,,,,,,,,,,,,,,,,,,,,,,,,,,,,,,,,,,,,,,,,,,,,,,,,,
,,,,,,608e74070357794c8c355e75,62bbf9d5bb9736d56fd3e429,2022-06-29_09h06.23.430,Colour_Asymmetry_Pilot,2022.1.3,Win32,59.95203837,62bbe60bf3d75ef465d3e404,0,60,60,161,1,onethree,,,,,,,,,,,,,,,,,,,,,,,,,,,,,,,,,,,,,,,,,,,,,,,,,,,,,,,,,,,,,,,,,,,,,,,,,,,,,,,,,,,,,,,,,,,,,,,,,,,,,,,,,,,,,,,,,,,,,,,,,,,,,,,,,,,,,,,,,,,,,,,,,,,,,,,,
,,,,,,608e74070357794c8c355e75,62bbf9d5bb9736d56fd3e429,2022-06-29_09h06.23.430,Colour_Asymmetry_Pilot,2022.1.3,Win32,59.95203837,62bbe60bf3d75ef465d3e404,0,61,61,64,1,onetwo,,,,,,,,,,,,,,,,,,,,,,,,,,,,,,,,,,,,,,,,,,,,,,,,,,,,,,,,,,,,,,,,,,,,,,,,,,,,,,,,,,,,,,,,,,,,,,,,,,,,,,,,,,,,,,,,,,,,,,,,,,,,,,,,,,,,,,,,,,,,,,,,,,,,,,,,
,,,,,,608e74070357794c8c355e75,62bbf9d5bb9736d56fd3e429,2022-06-29_09h06.23.430,Colour_Asymmetry_Pilot,2022.1.3,Win32,59.95203837,62bbe60bf3d75ef465d3e404,0,62,62,85,1,threefour,,,,,,,,,,,,,,,,,,,,,,,,,,,,,,,,,,,,,,,,,,,,,,,,,,,,,,,,,,,,,,,,,,,,,,,,,,,,,,,,,,,,,,,,,,,,,,,,,,,,,,,,,,,,,,,,,,,,,,,,,,,,,,,,,,,,,,,,,,,,,,,,,,,,,,,,
,,,,,,608e74070357794c8c355e75,62bbf9d5bb9736d56fd3e429,2022-06-29_09h06.23.430,Colour_Asymmetry_Pilot,2022.1.3,Win32,59.95203837,62bbe60bf3d75ef465d3e404,0,63,63,104,1,onetwo,,,,,,,,,,,,,,,,,,,,,,,,,,,,,,,,,,,,,,,,,,,,,,,,,,,,,,,,,,,,,,,,,,,,,,,,,,,,,,,,,,,,,,,,,,,,,,,,,,,,,,,,,,,,,,,,,,,,,,,,,,,,,,,,,,,,,,,,,,,,,,,,,,,,,,,,
,,,,,,608e74070357794c8c355e75,62bbf9d5bb9736d56fd3e429,2022-06-29_09h06.23.430,Colour_Asymmetry_Pilot,2022.1.3,Win32,59.95203837,62bbe60bf3d75ef465d3e404,0,64,64,60,1,threeone,,,,,,,,,,,,,,,,,,,,,,,,,,,,,,,,,,,,,,,,,,,,,,,,,,,,,,,,,,,,,,,,,,,,,,,,,,,,,,,,,,,,,,,,,,,,,,,,,,,,,,,,,,,,,,,,,,,,,,,,,,,,,,,,,,,,,,,,,,,,,,,,,,,,,,,,
,,,,,,608e74070357794c8c355e75,62bbf9d5bb9736d56fd3e429,2022-06-29_09h06.23.430,Colour_Asymmetry_Pilot,2022.1.3,Win32,59.95203837,62bbe60bf3d75ef465d3e404,0,65,65,58,1,twoone,,,,,,,,,,,,,,,,,,,,,,,,,,,,,,,,,,,,,,,,,,,,,,,,,,,,,,,,,,,,,,,,,,,,,,,,,,,,,,,,,,,,,,,,,,,,,,,,,,,,,,,,,,,,,,,,,,,,,,,,,,,,,,,,,,,,,,,,,,,,,,,,,,,,,,,,
,,,,,,608e74070357794c8c355e75,62bbf9d5bb9736d56fd3e429,2022-06-29_09h06.23.430,Colour_Asymmetry_Pilot,2022.1.3,Win32,59.95203837,62bbe60bf3d75ef465d3e404,0,66,66,74,1,twoone,,,,,,,,,,,,,,,,,,,,,,,,,,,,,,,,,,,,,,,,,,,,,,,,,,,,,,,,,,,,,,,,,,,,,,,,,,,,,,,,,,,,,,,,,,,,,,,,,,,,,,,,,,,,,,,,,,,,,,,,,,,,,,,,,,,,,,,,,,,,,,,,,,,,,,,,
,,,,,,608e74070357794c8c355e75,62bbf9d5bb9736d56fd3e429,2022-06-29_09h06.23.430,Colour_Asymmetry_Pilot,2022.1.3,Win32,59.95203837,62bbe60bf3d75ef465d3e404,0,67,67,122,1,twoone,,,,,,,,,,,,,,,,,,,,,,,,,,,,,,,,,,,,,,,,,,,,,,,,,,,,,,,,,,,,,,,,,,,,,,,,,,,,,,,,,,,,,,,,,,,,,,,,,,,,,,,,,,,,,,,,,,,,,,,,,,,,,,,,,,,,,,,,,,,,,,,,,,,,,,,,
,,,,,,608e74070357794c8c355e75,62bbf9d5bb9736d56fd3e429,2022-06-29_09h06.23.430,Colour_Asymmetry_Pilot,2022.1.3,Win32,59.95203837,62bbe60bf3d75ef465d3e404,0,68,68,23,1,fourthree,,,,,,,,,,,,,,,,,,,,,,,,,,,,,,,,,,,,,,,,,,,,,,,,,,,,,,,,,,,,,,,,,,,,,,,,,,,,,,,,,,,,,,,,,,,,,,,,,,,,,,,,,,,,,,,,,,,,,,,,,,,,,,,,,,,,,,,,,,,,,,,,,,,,,,,,
,,,,,,608e74070357794c8c355e75,62bbf9d5bb9736d56fd3e429,2022-06-29_09h06.23.430,Colour_Asymmetry_Pilot,2022.1.3,Win32,59.95203837,62bbe60bf3d75ef465d3e404,0,69,69,143,1,fourthree,,,,,,,,,,,,,,,,,,,,,,,,,,,,,,,,,,,,,,,,,,,,,,,,,,,,,,,,,,,,,,,,,,,,,,,,,,,,,,,,,,,,,,,,,,,,,,,,,,,,,,,,,,,,,,,,,,,,,,,,,,,,,,,,,,,,,,,,,,,,,,,,,,,,,,,,
,,,,,,608e74070357794c8c355e75,62bbf9d5bb9736d56fd3e429,2022-06-29_09h06.23.430,Colour_Asymmetry_Pilot,2022.1.3,Win32,59.95203837,62bbe60bf3d75ef465d3e404,0,70,70,26,1,twoone,,,,,,,,,,,,,,,,,,,,,,,,,,,,,,,,,,,,,,,,,,,,,,,,,,,,,,,,,,,,,,,,,,,,,,,,,,,,,,,,,,,,,,,,,,,,,,,,,,,,,,,,,,,,,,,,,,,,,,,,,,,,,,,,,,,,,,,,,,,,,,,,,,,,,,,,
,,,,,,608e74070357794c8c355e75,62bbf9d5bb9736d56fd3e429,2022-06-29_09h06.23.430,Colour_Asymmetry_Pilot,2022.1.3,Win32,59.95203837,62bbe60bf3d75ef465d3e404,0,71,71,124,1,threeone,,,,,,,,,,,,,,,,,,,,,,,,,,,,,,,,,,,,,,,,,,,,,,,,,,,,,,,,,,,,,,,,,,,,,,,,,,,,,,,,,,,,,,,,,,,,,,,,,,,,,,,,,,,,,,,,,,,,,,,,,,,,,,,,,,,,,,,,,,,,,,,,,,,,,,,,
,,,,,,608e74070357794c8c355e75,62bbf9d5bb9736d56fd3e429,2022-06-29_09h06.23.430,Colour_Asymmetry_Pilot,2022.1.3,Win32,59.95203837,62bbe60bf3d75ef465d3e404,0,72,72,10,1,twoone,,,,,,,,,,,,,,,,,,,,,,,,,,,,,,,,,,,,,,,,,,,,,,,,,,,,,,,,,,,,,,,,,,,,,,,,,,,,,,,,,,,,,,,,,,,,,,,,,,,,,,,,,,,,,,,,,,,,,,,,,,,,,,,,,,,,,,,,,,,,,,,,,,,,,,,,
,,,,,,608e74070357794c8c355e75,62bbf9d5bb9736d56fd3e429,2022-06-29_09h06.23.430,Colour_Asymmetry_Pilot,2022.1.3,Win32,59.95203837,62bbe60bf3d75ef465d3e404,0,73,73,144,1,onetwo,,,,,,,,,,,,,,,,,,,,,,,,,,,,,,,,,,,,,,,,,,,,,,,,,,,,,,,,,,,,,,,,,,,,,,,,,,,,,,,,,,,,,,,,,,,,,,,,,,,,,,,,,,,,,,,,,,,,,,,,,,,,,,,,,,,,,,,,,,,,,,,,,,,,,,,,
,,,,,,608e74070357794c8c355e75,62bbf9d5bb9736d56fd3e429,2022-06-29_09h06.23.430,Colour_Asymmetry_Pilot,2022.1.3,Win32,59.95203837,62bbe60bf3d75ef465d3e404,0,74,74,54,1,fourtwo,,,,,,,,,,,,,,,,,,,,,,,,,,,,,,,,,,,,,,,,,,,,,,,,,,,,,,,,,,,,,,,,,,,,,,,,,,,,,,,,,,,,,,,,,,,,,,,,,,,,,,,,,,,,,,,,,,,,,,,,,,,,,,,,,,,,,,,,,,,,,,,,,,,,,,,,
,,,,,,608e74070357794c8c355e75,62bbf9d5bb9736d56fd3e429,2022-06-29_09h06.23.430,Colour_Asymmetry_Pilot,2022.1.3,Win32,59.95203837,62bbe60bf3d75ef465d3e404,0,75,75,61,1,threefour,,,,,,,,,,,,,,,,,,,,,,,,,,,,,,,,,,,,,,,,,,,,,,,,,,,,,,,,,,,,,,,,,,,,,,,,,,,,,,,,,,,,,,,,,,,,,,,,,,,,,,,,,,,,,,,,,,,,,,,,,,,,,,,,,,,,,,,,,,,,,,,,,,,,,,,,
,,,,,,608e74070357794c8c355e75,62bbf9d5bb9736d56fd3e429,2022-06-29_09h06.23.430,Colour_Asymmetry_Pilot,2022.1.3,Win32,59.95203837,62bbe60bf3d75ef465d3e404,0,76,76,25,1,onethree,,,,,,,,,,,,,,,,,,,,,,,,,,,,,,,,,,,,,,,,,,,,,,,,,,,,,,,,,,,,,,,,,,,,,,,,,,,,,,,,,,,,,,,,,,,,,,,,,,,,,,,,,,,,,,,,,,,,,,,,,,,,,,,,,,,,,,,,,,,,,,,,,,,,,,,,
,,,,,,608e74070357794c8c355e75,62bbf9d5bb9736d56fd3e429,2022-06-29_09h06.23.430,Colour_Asymmetry_Pilot,2022.1.3,Win32,59.95203837,62bbe60bf3d75ef465d3e404,0,77,77,115,1,twofour,,,,,,,,,,,,,,,,,,,,,,,,,,,,,,,,,,,,,,,,,,,,,,,,,,,,,,,,,,,,,,,,,,,,,,,,,,,,,,,,,,,,,,,,,,,,,,,,,,,,,,,,,,,,,,,,,,,,,,,,,,,,,,,,,,,,,,,,,,,,,,,,,,,,,,,,
,,,,,,608e74070357794c8c355e75,62bbf9d5bb9736d56fd3e429,2022-06-29_09h06.23.430,Colour_Asymmetry_Pilot,2022.1.3,Win32,59.95203837,62bbe60bf3d75ef465d3e404,0,78,78,151,1,fourthree,,,,,,,,,,,,,,,,,,,,,,,,,,,,,,,,,,,,,,,,,,,,,,,,,,,,,,,,,,,,,,,,,,,,,,,,,,,,,,,,,,,,,,,,,,,,,,,,,,,,,,,,,,,,,,,,,,,,,,,,,,,,,,,,,,,,,,,,,,,,,,,,,,,,,,,,
,,,,,,608e74070357794c8c355e75,62bbf9d5bb9736d56fd3e429,2022-06-29_09h06.23.430,Colour_Asymmetry_Pilot,2022.1.3,Win32,59.95203837,62bbe60bf3d75ef465d3e404,0,79,79,55,1,fourthree,,,,,,,,,,,,,,,,,,,,,,,,,,,,,,,,,,,,,,,,,,,,,,,,,,,,,,,,,,,,,,,,,,,,,,,,,,,,,,,,,,,,,,,,,,,,,,,,,,,,,,,,,,,,,,,,,,,,,,,,,,,,,,,,,,,,,,,,,,,,,,,,,,,,,,,,
,,,,,,608e74070357794c8c355e75,62bbf9d5bb9736d56fd3e429,2022-06-29_09h06.23.430,Colour_Asymmetry_Pilot,2022.1.3,Win32,59.95203837,62bbe60bf3d75ef465d3e404,0,80,80,114,1,twoone,,,,,,,,,,,,,,,,,,,,,,,,,,,,,,,,,,,,,,,,,,,,,,,,,,,,,,,,,,,,,,,,,,,,,,,,,,,,,,,,,,,,,,,,,,,,,,,,,,,,,,,,,,,,,,,,,,,,,,,,,,,,,,,,,,,,,,,,,,,,,,,,,,,,,,,,
,,,,,,608e74070357794c8c355e75,62bbf9d5bb9736d56fd3e429,2022-06-29_09h06.23.430,Colour_Asymmetry_Pilot,2022.1.3,Win32,59.95203837,62bbe60bf3d75ef465d3e404,0,81,81,129,1,onethree,,,,,,,,,,,,,,,,,,,,,,,,,,,,,,,,,,,,,,,,,,,,,,,,,,,,,,,,,,,,,,,,,,,,,,,,,,,,,,,,,,,,,,,,,,,,,,,,,,,,,,,,,,,,,,,,,,,,,,,,,,,,,,,,,,,,,,,,,,,,,,,,,,,,,,,,
,,,,,,608e74070357794c8c355e75,62bbf9d5bb9736d56fd3e429,2022-06-29_09h06.23.430,Colour_Asymmetry_Pilot,2022.1.3,Win32,59.95203837,62bbe60bf3d75ef465d3e404,0,82,82,75,1,twofour,,,,,,,,,,,,,,,,,,,,,,,,,,,,,,,,,,,,,,,,,,,,,,,,,,,,,,,,,,,,,,,,,,,,,,,,,,,,,,,,,,,,,,,,,,,,,,,,,,,,,,,,,,,,,,,,,,,,,,,,,,,,,,,,,,,,,,,,,,,,,,,,,,,,,,,,
,,,,,,608e74070357794c8c355e75,62bbf9d5bb9736d56fd3e429,2022-06-29_09h06.23.430,Colour_Asymmetry_Pilot,2022.1.3,Win32,59.95203837,62bbe60bf3d75ef465d3e404,0,83,83,49,1,onethree,,,,,,,,,,,,,,,,,,,,,,,,,,,,,,,,,,,,,,,,,,,,,,,,,,,,,,,,,,,,,,,,,,,,,,,,,,,,,,,,,,,,,,,,,,,,,,,,,,,,,,,,,,,,,,,,,,,,,,,,,,,,,,,,,,,,,,,,,,,,,,,,,,,,,,,,
,,,,,,608e74070357794c8c355e75,62bbf9d5bb9736d56fd3e429,2022-06-29_09h06.23.430,Colour_Asymmetry_Pilot,2022.1.3,Win32,59.95203837,62bbe60bf3d75ef465d3e404,0,84,84,117,1,threefour,,,,,,,,,,,,,,,,,,,,,,,,,,,,,,,,,,,,,,,,,,,,,,,,,,,,,,,,,,,,,,,,,,,,,,,,,,,,,,,,,,,,,,,,,,,,,,,,,,,,,,,,,,,,,,,,,,,,,,,,,,,,,,,,,,,,,,,,,,,,,,,,,,,,,,,,
,,,,,,608e74070357794c8c355e75,62bbf9d5bb9736d56fd3e429,2022-06-29_09h06.23.430,Colour_Asymmetry_Pilot,2022.1.3,Win32,59.95203837,62bbe60bf3d75ef465d3e404,0,85,85,100,1,threeone,,,,,,,,,,,,,,,,,,,,,,,,,,,,,,,,,,,,,,,,,,,,,,,,,,,,,,,,,,,,,,,,,,,,,,,,,,,,,,,,,,,,,,,,,,,,,,,,,,,,,,,,,,,,,,,,,,,,,,,,,,,,,,,,,,,,,,,,,,,,,,,,,,,,,,,,
,,,,,,608e74070357794c8c355e75,62bbf9d5bb9736d56fd3e429,2022-06-29_09h06.23.430,Colour_Asymmetry_Pilot,2022.1.3,Win32,59.95203837,62bbe60bf3d75ef465d3e404,0,86,86,132,1,threeone,,,,,,,,,,,,,,,,,,,,,,,,,,,,,,,,,,,,,,,,,,,,,,,,,,,,,,,,,,,,,,,,,,,,,,,,,,,,,,,,,,,,,,,,,,,,,,,,,,,,,,,,,,,,,,,,,,,,,,,,,,,,,,,,,,,,,,,,,,,,,,,,,,,,,,,,
,,,,,,608e74070357794c8c355e75,62bbf9d5bb9736d56fd3e429,2022-06-29_09h06.23.430,Colour_Asymmetry_Pilot,2022.1.3,Win32,59.95203837,62bbe60bf3d75ef465d3e404,0,87,87,40,1,onetwo,,,,,,,,,,,,,,,,,,,,,,,,,,,,,,,,,,,,,,,,,,,,,,,,,,,,,,,,,,,,,,,,,,,,,,,,,,,,,,,,,,,,,,,,,,,,,,,,,,,,,,,,,,,,,,,,,,,,,,,,,,,,,,,,,,,,,,,,,,,,,,,,,,,,,,,,
,,,,,,608e74070357794c8c355e75,62bbf9d5bb9736d56fd3e429,2022-06-29_09h06.23.430,Colour_Asymmetry_Pilot,2022.1.3,Win32,59.95203837,62bbe60bf3d75ef465d3e404,0,88,88,154,1,twoone,,,,,,,,,,,,,,,,,,,,,,,,,,,,,,,,,,,,,,,,,,,,,,,,,,,,,,,,,,,,,,,,,,,,,,,,,,,,,,,,,,,,,,,,,,,,,,,,,,,,,,,,,,,,,,,,,,,,,,,,,,,,,,,,,,,,,,,,,,,,,,,,,,,,,,,,
,,,,,,608e74070357794c8c355e75,62bbf9d5bb9736d56fd3e429,2022-06-29_09h06.23.430,Colour_Asymmetry_Pilot,2022.1.3,Win32,59.95203837,62bbe60bf3d75ef465d3e404,0,89,89,146,1,twoone,,,,,,,,,,,,,,,,,,,,,,,,,,,,,,,,,,,,,,,,,,,,,,,,,,,,,,,,,,,,,,,,,,,,,,,,,,,,,,,,,,,,,,,,,,,,,,,,,,,,,,,,,,,,,,,,,,,,,,,,,,,,,,,,,,,,,,,,,,,,,,,,,,,,,,,,
,,,,,,608e74070357794c8c355e75,62bbf9d5bb9736d56fd3e429,2022-06-29_09h06.23.430,Colour_Asymmetry_Pilot,2022.1.3,Win32,59.95203837,62bbe60bf3d75ef465d3e404,0,90,90,19,1,twofour,,,,,,,,,,,,,,,,,,,,,,,,,,,,,,,,,,,,,,,,,,,,,,,,,,,,,,,,,,,,,,,,,,,,,,,,,,,,,,,,,,,,,,,,,,,,,,,,,,,,,,,,,,,,,,,,,,,,,,,,,,,,,,,,,,,,,,,,,,,,,,,,,,,,,,,,
,,,,,,608e74070357794c8c355e75,62bbf9d5bb9736d56fd3e429,2022-06-29_09h06.23.430,Colour_Asymmetry_Pilot,2022.1.3,Win32,59.95203837,62bbe60bf3d75ef465d3e404,0,91,91,48,1,onetwo,,,,,,,,,,,,,,,,,,,,,,,,,,,,,,,,,,,,,,,,,,,,,,,,,,,,,,,,,,,,,,,,,,,,,,,,,,,,,,,,,,,,,,,,,,,,,,,,,,,,,,,,,,,,,,,,,,,,,,,,,,,,,,,,,,,,,,,,,,,,,,,,,,,,,,,,
,,,,,,608e74070357794c8c355e75,62bbf9d5bb9736d56fd3e429,2022-06-29_09h06.23.430,Colour_Asymmetry_Pilot,2022.1.3,Win32,59.95203837,62bbe60bf3d75ef465d3e404,0,92,92,32,1,onetwo,,,,,,,,,,,,,,,,,,,,,,,,,,,,,,,,,,,,,,,,,,,,,,,,,,,,,,,,,,,,,,,,,,,,,,,,,,,,,,,,,,,,,,,,,,,,,,,,,,,,,,,,,,,,,,,,,,,,,,,,,,,,,,,,,,,,,,,,,,,,,,,,,,,,,,,,
,,,,,,608e74070357794c8c355e75,62bbf9d5bb9736d56fd3e429,2022-06-29_09h06.23.430,Colour_Asymmetry_Pilot,2022.1.3,Win32,59.95203837,62bbe60bf3d75ef465d3e404,0,93,93,141,1,threefour,,,,,,,,,,,,,,,,,,,,,,,,,,,,,,,,,,,,,,,,,,,,,,,,,,,,,,,,,,,,,,,,,,,,,,,,,,,,,,,,,,,,,,,,,,,,,,,,,,,,,,,,,,,,,,,,,,,,,,,,,,,,,,,,,,,,,,,,,,,,,,,,,,,,,,,,
,,,,,,608e74070357794c8c355e75,62bbf9d5bb9736d56fd3e429,2022-06-29_09h06.23.430,Colour_Asymmetry_Pilot,2022.1.3,Win32,59.95203837,62bbe60bf3d75ef465d3e404,0,94,94,140,1,threeone,,,,,,,,,,,,,,,,,,,,,,,,,,,,,,,,,,,,,,,,,,,,,,,,,,,,,,,,,,,,,,,,,,,,,,,,,,,,,,,,,,,,,,,,,,,,,,,,,,,,,,,,,,,,,,,,,,,,,,,,,,,,,,,,,,,,,,,,,,,,,,,,,,,,,,,,
,,,,,,608e74070357794c8c355e75,62bbf9d5bb9736d56fd3e429,2022-06-29_09h06.23.430,Colour_Asymmetry_Pilot,2022.1.3,Win32,59.95203837,62bbe60bf3d75ef465d3e404,0,95,95,15,1,fourthree,,,,,,,,,,,,,,,,,,,,,,,,,,,,,,,,,,,,,,,,,,,,,,,,,,,,,,,,,,,,,,,,,,,,,,,,,,,,,,,,,,,,,,,,,,,,,,,,,,,,,,,,,,,,,,,,,,,,,,,,,,,,,,,,,,,,,,,,,,,,,,,,,,,,,,,,
,,,,,,608e74070357794c8c355e75,62bbf9d5bb9736d56fd3e429,2022-06-29_09h06.23.430,Colour_Asymmetry_Pilot,2022.1.3,Win32,59.95203837,62bbe60bf3d75ef465d3e404,0,96,96,82,1,twoone,,,,,,,,,,,,,,,,,,,,,,,,,,,,,,,,,,,,,,,,,,,,,,,,,,,,,,,,,,,,,,,,,,,,,,,,,,,,,,,,,,,,,,,,,,,,,,,,,,,,,,,,,,,,,,,,,,,,,,,,,,,,,,,,,,,,,,,,,,,,,,,,,,,,,,,,
,,,,,,608e74070357794c8c355e75,62bbf9d5bb9736d56fd3e429,2022-06-29_09h06.23.430,Colour_Asymmetry_Pilot,2022.1.3,Win32,59.95203837,62bbe60bf3d75ef465d3e404,0,97,97,29,1,threefour,,,,,,,,,,,,,,,,,,,,,,,,,,,,,,,,,,,,,,,,,,,,,,,,,,,,,,,,,,,,,,,,,,,,,,,,,,,,,,,,,,,,,,,,,,,,,,,,,,,,,,,,,,,,,,,,,,,,,,,,,,,,,,,,,,,,,,,,,,,,,,,,,,,,,,,,
,,,,,,608e74070357794c8c355e75,62bbf9d5bb9736d56fd3e429,2022-06-29_09h06.23.430,Colour_Asymmetry_Pilot,2022.1.3,Win32,59.95203837,62bbe60bf3d75ef465d3e404,0,98,98,59,1,twofour,,,,,,,,,,,,,,,,,,,,,,,,,,,,,,,,,,,,,,,,,,,,,,,,,,,,,,,,,,,,,,,,,,,,,,,,,,,,,,,,,,,,,,,,,,,,,,,,,,,,,,,,,,,,,,,,,,,,,,,,,,,,,,,,,,,,,,,,,,,,,,,,,,,,,,,,
,,,,,,608e74070357794c8c355e75,62bbf9d5bb9736d56fd3e429,2022-06-29_09h06.23.430,Colour_Asymmetry_Pilot,2022.1.3,Win32,59.95203837,62bbe60bf3d75ef465d3e404,0,99,99,110,1,fourtwo,,,,,,,,,,,,,,,,,,,,,,,,,,,,,,,,,,,,,,,,,,,,,,,,,,,,,,,,,,,,,,,,,,,,,,,,,,,,,,,,,,,,,,,,,,,,,,,,,,,,,,,,,,,,,,,,,,,,,,,,,,,,,,,,,,,,,,,,,,,,,,,,,,,,,,,,
,,,,,,608e74070357794c8c355e75,62bbf9d5bb9736d56fd3e429,2022-06-29_09h06.23.430,Colour_Asymmetry_Pilot,2022.1.3,Win32,59.95203837,62bbe60bf3d75ef465d3e404,0,100,100,152,1,onetwo,,,,,,,,,,,,,,,,,,,,,,,,,,,,,,,,,,,,,,,,,,,,,,,,,,,,,,,,,,,,,,,,,,,,,,,,,,,,,,,,,,,,,,,,,,,,,,,,,,,,,,,,,,,,,,,,,,,,,,,,,,,,,,,,,,,,,,,,,,,,,,,,,,,,,,,,
,,,,,,608e74070357794c8c355e75,62bbf9d5bb9736d56fd3e429,2022-06-29_09h06.23.430,Colour_Asymmetry_Pilot,2022.1.3,Win32,59.95203837,62bbe60bf3d75ef465d3e404,0,101,101,159,1,fourthree,,,,,,,,,,,,,,,,,,,,,,,,,,,,,,,,,,,,,,,,,,,,,,,,,,,,,,,,,,,,,,,,,,,,,,,,,,,,,,,,,,,,,,,,,,,,,,,,,,,,,,,,,,,,,,,,,,,,,,,,,,,,,,,,,,,,,,,,,,,,,,,,,,,,,,,,
,,,,,,608e74070357794c8c355e75,62bbf9d5bb9736d56fd3e429,2022-06-29_09h06.23.430,Colour_Asymmetry_Pilot,2022.1.3,Win32,59.95203837,62bbe60bf3d75ef465d3e404,0,102,102,112,1,onetwo,,,,,,,,,,,,,,,,,,,,,,,,,,,,,,,,,,,,,,,,,,,,,,,,,,,,,,,,,,,,,,,,,,,,,,,,,,,,,,,,,,,,,,,,,,,,,,,,,,,,,,,,,,,,,,,,,,,,,,,,,,,,,,,,,,,,,,,,,,,,,,,,,,,,,,,,
,,,,,,608e74070357794c8c355e75,62bbf9d5bb9736d56fd3e429,2022-06-29_09h06.23.430,Colour_Asymmetry_Pilot,2022.1.3,Win32,59.95203837,62bbe60bf3d75ef465d3e404,0,103,103,157,1,threefour,,,,,,,,,,,,,,,,,,,,,,,,,,,,,,,,,,,,,,,,,,,,,,,,,,,,,,,,,,,,,,,,,,,,,,,,,,,,,,,,,,,,,,,,,,,,,,,,,,,,,,,,,,,,,,,,,,,,,,,,,,,,,,,,,,,,,,,,,,,,,,,,,,,,,,,,
,,,,,,608e74070357794c8c355e75,62bbf9d5bb9736d56fd3e429,2022-06-29_09h06.23.430,Colour_Asymmetry_Pilot,2022.1.3,Win32,59.95203837,62bbe60bf3d75ef465d3e404,0,104,104,2,1,twoone,,,,,,,,,,,,,,,,,,,,,,,,,,,,,,,,,,,,,,,,,,,,,,,,,,,,,,,,,,,,,,,,,,,,,,,,,,,,,,,,,,,,,,,,,,,,,,,,,,,,,,,,,,,,,,,,,,,,,,,,,,,,,,,,,,,,,,,,,,,,,,,,,,,,,,,,
,,,,,,608e74070357794c8c355e75,62bbf9d5bb9736d56fd3e429,2022-06-29_09h06.23.430,Colour_Asymmetry_Pilot,2022.1.3,Win32,59.95203837,62bbe60bf3d75ef465d3e404,0,105,105,149,1,threefour,,,,,,,,,,,,,,,,,,,,,,,,,,,,,,,,,,,,,,,,,,,,,,,,,,,,,,,,,,,,,,,,,,,,,,,,,,,,,,,,,,,,,,,,,,,,,,,,,,,,,,,,,,,,,,,,,,,,,,,,,,,,,,,,,,,,,,,,,,,,,,,,,,,,,,,,
,,,,,,608e74070357794c8c355e75,62bbf9d5bb9736d56fd3e429,2022-06-29_09h06.23.430,Colour_Asymmetry_Pilot,2022.1.3,Win32,59.95203837,62bbe60bf3d75ef465d3e404,0,106,106,81,1,onethree,,,,,,,,,,,,,,,,,,,,,,,,,,,,,,,,,,,,,,,,,,,,,,,,,,,,,,,,,,,,,,,,,,,,,,,,,,,,,,,,,,,,,,,,,,,,,,,,,,,,,,,,,,,,,,,,,,,,,,,,,,,,,,,,,,,,,,,,,,,,,,,,,,,,,,,,
,,,,,,608e74070357794c8c355e75,62bbf9d5bb9736d56fd3e429,2022-06-29_09h06.23.430,Colour_Asymmetry_Pilot,2022.1.3,Win32,59.95203837,62bbe60bf3d75ef465d3e404,0,107,107,18,1,twoone,,,,,,,,,,,,,,,,,,,,,,,,,,,,,,,,,,,,,,,,,,,,,,,,,,,,,,,,,,,,,,,,,,,,,,,,,,,,,,,,,,,,,,,,,,,,,,,,,,,,,,,,,,,,,,,,,,,,,,,,,,,,,,,,,,,,,,,,,,,,,,,,,,,,,,,,
,,,,,,608e74070357794c8c355e75,62bbf9d5bb9736d56fd3e429,2022-06-29_09h06.23.430,Colour_Asymmetry_Pilot,2022.1.3,Win32,59.95203837,62bbe60bf3d75ef465d3e404,0,108,108,86,1,fourtwo,,,,,,,,,,,,,,,,,,,,,,,,,,,,,,,,,,,,,,,,,,,,,,,,,,,,,,,,,,,,,,,,,,,,,,,,,,,,,,,,,,,,,,,,,,,,,,,,,,,,,,,,,,,,,,,,,,,,,,,,,,,,,,,,,,,,,,,,,,,,,,,,,,,,,,,,
,,,,,,608e74070357794c8c355e75,62bbf9d5bb9736d56fd3e429,2022-06-29_09h06.23.430,Colour_Asymmetry_Pilot,2022.1.3,Win32,59.95203837,62bbe60bf3d75ef465d3e404,0,109,109,160,1,onetwo,,,,,,,,,,,,,,,,,,,,,,,,,,,,,,,,,,,,,,,,,,,,,,,,,,,,,,,,,,,,,,,,,,,,,,,,,,,,,,,,,,,,,,,,,,,,,,,,,,,,,,,,,,,,,,,,,,,,,,,,,,,,,,,,,,,,,,,,,,,,,,,,,,,,,,,,
,,,,,,608e74070357794c8c355e75,62bbf9d5bb9736d56fd3e429,2022-06-29_09h06.23.430,Colour_Asymmetry_Pilot,2022.1.3,Win32,59.95203837,62bbe60bf3d75ef465d3e404,0,110,110,102,1,fourtwo,,,,,,,,,,,,,,,,,,,,,,,,,,,,,,,,,,,,,,,,,,,,,,,,,,,,,,,,,,,,,,,,,,,,,,,,,,,,,,,,,,,,,,,,,,,,,,,,,,,,,,,,,,,,,,,,,,,,,,,,,,,,,,,,,,,,,,,,,,,,,,,,,,,,,,,,
,,,,,,608e74070357794c8c355e75,62bbf9d5bb9736d56fd3e429,2022-06-29_09h06.23.430,Colour_Asymmetry_Pilot,2022.1.3,Win32,59.95203837,62bbe60bf3d75ef465d3e404,0,111,111,5,1,threefour,,,,,,,,,,,,,,,,,,,,,,,,,,,,,,,,,,,,,,,,,,,,,,,,,,,,,,,,,,,,,,,,,,,,,,,,,,,,,,,,,,,,,,,,,,,,,,,,,,,,,,,,,,,,,,,,,,,,,,,,,,,,,,,,,,,,,,,,,,,,,,,,,,,,,,,,
,,,,,,608e74070357794c8c355e75,62bbf9d5bb9736d56fd3e429,2022-06-29_09h06.23.430,Colour_Asymmetry_Pilot,2022.1.3,Win32,59.95203837,62bbe60bf3d75ef465d3e404,0,112,112,130,1,twoone,,,,,,,,,,,,,,,,,,,,,,,,,,,,,,,,,,,,,,,,,,,,,,,,,,,,,,,,,,,,,,,,,,,,,,,,,,,,,,,,,,,,,,,,,,,,,,,,,,,,,,,,,,,,,,,,,,,,,,,,,,,,,,,,,,,,,,,,,,,,,,,,,,,,,,,,
,,,,,,608e74070357794c8c355e75,62bbf9d5bb9736d56fd3e429,2022-06-29_09h06.23.430,Colour_Asymmetry_Pilot,2022.1.3,Win32,59.95203837,62bbe60bf3d75ef465d3e404,0,113,113,155,1,twofour,,,,,,,,,,,,,,,,,,,,,,,,,,,,,,,,,,,,,,,,,,,,,,,,,,,,,,,,,,,,,,,,,,,,,,,,,,,,,,,,,,,,,,,,,,,,,,,,,,,,,,,,,,,,,,,,,,,,,,,,,,,,,,,,,,,,,,,,,,,,,,,,,,,,,,,,
,,,,,,608e74070357794c8c355e75,62bbf9d5bb9736d56fd3e429,2022-06-29_09h06.23.430,Colour_Asymmetry_Pilot,2022.1.3,Win32,59.95203837,62bbe60bf3d75ef465d3e404,0,114,114,73,1,onethree,,,,,,,,,,,,,,,,,,,,,,,,,,,,,,,,,,,,,,,,,,,,,,,,,,,,,,,,,,,,,,,,,,,,,,,,,,,,,,,,,,,,,,,,,,,,,,,,,,,,,,,,,,,,,,,,,,,,,,,,,,,,,,,,,,,,,,,,,,,,,,,,,,,,,,,,
,,,,,,608e74070357794c8c355e75,62bbf9d5bb9736d56fd3e429,2022-06-29_09h06.23.430,Colour_Asymmetry_Pilot,2022.1.3,Win32,59.95203837,62bbe60bf3d75ef465d3e404,0,115,115,99,1,twofour,,,,,,,,,,,,,,,,,,,,,,,,,,,,,,,,,,,,,,,,,,,,,,,,,,,,,,,,,,,,,,,,,,,,,,,,,,,,,,,,,,,,,,,,,,,,,,,,,,,,,,,,,,,,,,,,,,,,,,,,,,,,,,,,,,,,,,,,,,,,,,,,,,,,,,,,
,,,,,,608e74070357794c8c355e75,62bbf9d5bb9736d56fd3e429,2022-06-29_09h06.23.430,Colour_Asymmetry_Pilot,2022.1.3,Win32,59.95203837,62bbe60bf3d75ef465d3e404,0,116,116,76,1,threeone,,,,,,,,,,,,,,,,,,,,,,,,,,,,,,,,,,,,,,,,,,,,,,,,,,,,,,,,,,,,,,,,,,,,,,,,,,,,,,,,,,,,,,,,,,,,,,,,,,,,,,,,,,,,,,,,,,,,,,,,,,,,,,,,,,,,,,,,,,,,,,,,,,,,,,,,
,,,,,,608e74070357794c8c355e75,62bbf9d5bb9736d56fd3e429,2022-06-29_09h06.23.430,Colour_Asymmetry_Pilot,2022.1.3,Win32,59.95203837,62bbe60bf3d75ef465d3e404,0,117,117,131,1,twofour,,,,,,,,,,,,,,,,,,,,,,,,,,,,,,,,,,,,,,,,,,,,,,,,,,,,,,,,,,,,,,,,,,,,,,,,,,,,,,,,,,,,,,,,,,,,,,,,,,,,,,,,,,,,,,,,,,,,,,,,,,,,,,,,,,,,,,,,,,,,,,,,,,,,,,,,
,,,,,,608e74070357794c8c355e75,62bbf9d5bb9736d56fd3e429,2022-06-29_09h06.23.430,Colour_Asymmetry_Pilot,2022.1.3,Win32,59.95203837,62bbe60bf3d75ef465d3e404,0,118,118,84,1,threeone,,,,,,,,,,,,,,,,,,,,,,,,,,,,,,,,,,,,,,,,,,,,,,,,,,,,,,,,,,,,,,,,,,,,,,,,,,,,,,,,,,,,,,,,,,,,,,,,,,,,,,,,,,,,,,,,,,,,,,,,,,,,,,,,,,,,,,,,,,,,,,,,,,,,,,,,
,,,,,,608e74070357794c8c355e75,62bbf9d5bb9736d56fd3e429,2022-06-29_09h06.23.430,Colour_Asymmetry_Pilot,2022.1.3,Win32,59.95203837,62bbe60bf3d75ef465d3e404,0,119,119,108,1,threeone,,,,,,,,,,,,,,,,,,,,,,,,,,,,,,,,,,,,,,,,,,,,,,,,,,,,,,,,,,,,,,,,,,,,,,,,,,,,,,,,,,,,,,,,,,,,,,,,,,,,,,,,,,,,,,,,,,,,,,,,,,,,,,,,,,,,,,,,,,,,,,,,,,,,,,,,
,,,,,,608e74070357794c8c355e75,62bbf9d5bb9736d56fd3e429,2022-06-29_09h06.23.430,Colour_Asymmetry_Pilot,2022.1.3,Win32,59.95203837,62bbe60bf3d75ef465d3e404,0,120,120,71,1,fourthree,,,,,,,,,,,,,,,,,,,,,,,,,,,,,,,,,,,,,,,,,,,,,,,,,,,,,,,,,,,,,,,,,,,,,,,,,,,,,,,,,,,,,,,,,,,,,,,,,,,,,,,,,,,,,,,,,,,,,,,,,,,,,,,,,,,,,,,,,,,,,,,,,,,,,,,,
,,,,,,608e74070357794c8c355e75,62bbf9d5bb9736d56fd3e429,2022-06-29_09h06.23.430,Colour_Asymmetry_Pilot,2022.1.3,Win32,59.95203837,62bbe60bf3d75ef465d3e404,0,121,121,93,1,threefour,,,,,,,,,,,,,,,,,,,,,,,,,,,,,,,,,,,,,,,,,,,,,,,,,,,,,,,,,,,,,,,,,,,,,,,,,,,,,,,,,,,,,,,,,,,,,,,,,,,,,,,,,,,,,,,,,,,,,,,,,,,,,,,,,,,,,,,,,,,,,,,,,,,,,,,,
,,,,,,608e74070357794c8c355e75,62bbf9d5bb9736d56fd3e429,2022-06-29_09h06.23.430,Colour_Asymmetry_Pilot,2022.1.3,Win32,59.95203837,62bbe60bf3d75ef465d3e404,0,122,122,33,1,onethree,,,,,,,,,,,,,,,,,,,,,,,,,,,,,,,,,,,,,,,,,,,,,,,,,,,,,,,,,,,,,,,,,,,,,,,,,,,,,,,,,,,,,,,,,,,,,,,,,,,,,,,,,,,,,,,,,,,,,,,,,,,,,,,,,,,,,,,,,,,,,,,,,,,,,,,,
,,,,,,608e74070357794c8c355e75,62bbf9d5bb9736d56fd3e429,2022-06-29_09h06.23.430,Colour_Asymmetry_Pilot,2022.1.3,Win32,59.95203837,62bbe60bf3d75ef465d3e404,0,123,123,77,1,threefour,,,,,,,,,,,,,,,,,,,,,,,,,,,,,,,,,,,,,,,,,,,,,,,,,,,,,,,,,,,,,,,,,,,,,,,,,,,,,,,,,,,,,,,,,,,,,,,,,,,,,,,,,,,,,,,,,,,,,,,,,,,,,,,,,,,,,,,,,,,,,,,,,,,,,,,,
,,,,,,608e74070357794c8c355e75,62bbf9d5bb9736d56fd3e429,2022-06-29_09h06.23.430,Colour_Asymmetry_Pilot,2022.1.3,Win32,59.95203837,62bbe60bf3d75ef465d3e404,0,124,124,69,1,threefour,,,,,,,,,,,,,,,,,,,,,,,,,,,,,,,,,,,,,,,,,,,,,,,,,,,,,,,,,,,,,,,,,,,,,,,,,,,,,,,,,,,,,,,,,,,,,,,,,,,,,,,,,,,,,,,,,,,,,,,,,,,,,,,,,,,,,,,,,,,,,,,,,,,,,,,,
,,,,,,608e74070357794c8c355e75,62bbf9d5bb9736d56fd3e429,2022-06-29_09h06.23.430,Colour_Asymmetry_Pilot,2022.1.3,Win32,59.95203837,62bbe60bf3d75ef465d3e404,0,125,125,21,1,threefour,,,,,,,,,,,,,,,,,,,,,,,,,,,,,,,,,,,,,,,,,,,,,,,,,,,,,,,,,,,,,,,,,,,,,,,,,,,,,,,,,,,,,,,,,,,,,,,,,,,,,,,,,,,,,,,,,,,,,,,,,,,,,,,,,,,,,,,,,,,,,,,,,,,,,,,,
,,,,,,608e74070357794c8c355e75,62bbf9d5bb9736d56fd3e429,2022-06-29_09h06.23.430,Colour_Asymmetry_Pilot,2022.1.3,Win32,59.95203837,62bbe60bf3d75ef465d3e404,0,126,126,127,1,fourthree,,,,,,,,,,,,,,,,,,,,,,,,,,,,,,,,,,,,,,,,,,,,,,,,,,,,,,,,,,,,,,,,,,,,,,,,,,,,,,,,,,,,,,,,,,,,,,,,,,,,,,,,,,,,,,,,,,,,,,,,,,,,,,,,,,,,,,,,,,,,,,,,,,,,,,,,
,,,,,,608e74070357794c8c355e75,62bbf9d5bb9736d56fd3e429,2022-06-29_09h06.23.430,Colour_Asymmetry_Pilot,2022.1.3,Win32,59.95203837,62bbe60bf3d75ef465d3e404,0,127,127,89,1,onethree,,,,,,,,,,,,,,,,,,,,,,,,,,,,,,,,,,,,,,,,,,,,,,,,,,,,,,,,,,,,,,,,,,,,,,,,,,,,,,,,,,,,,,,,,,,,,,,,,,,,,,,,,,,,,,,,,,,,,,,,,,,,,,,,,,,,,,,,,,,,,,,,,,,,,,,,
,,,,,,608e74070357794c8c355e75,62bbf9d5bb9736d56fd3e429,2022-06-29_09h06.23.430,Colour_Asymmetry_Pilot,2022.1.3,Win32,59.95203837,62bbe60bf3d75ef465d3e404,0,128,128,43,1,twofour,,,,,,,,,,,,,,,,,,,,,,,,,,,,,,,,,,,,,,,,,,,,,,,,,,,,,,,,,,,,,,,,,,,,,,,,,,,,,,,,,,,,,,,,,,,,,,,,,,,,,,,,,,,,,,,,,,,,,,,,,,,,,,,,,,,,,,,,,,,,,,,,,,,,,,,,
,,,,,,608e74070357794c8c355e75,62bbf9d5bb9736d56fd3e429,2022-06-29_09h06.23.430,Colour_Asymmetry_Pilot,2022.1.3,Win32,59.95203837,62bbe60bf3d75ef465d3e404,0,129,129,105,1,onethree,,,,,,,,,,,,,,,,,,,,,,,,,,,,,,,,,,,,,,,,,,,,,,,,,,,,,,,,,,,,,,,,,,,,,,,,,,,,,,,,,,,,,,,,,,,,,,,,,,,,,,,,,,,,,,,,,,,,,,,,,,,,,,,,,,,,,,,,,,,,,,,,,,,,,,,,
,,,,,,608e74070357794c8c355e75,62bbf9d5bb9736d56fd3e429,2022-06-29_09h06.23.430,Colour_Asymmetry_Pilot,2022.1.3,Win32,59.95203837,62bbe60bf3d75ef465d3e404,0,130,130,111,1,fourthree,,,,,,,,,,,,,,,,,,,,,,,,,,,,,,,,,,,,,,,,,,,,,,,,,,,,,,,,,,,,,,,,,,,,,,,,,,,,,,,,,,,,,,,,,,,,,,,,,,,,,,,,,,,,,,,,,,,,,,,,,,,,,,,,,,,,,,,,,,,,,,,,,,,,,,,,
,,,,,,608e74070357794c8c355e75,62bbf9d5bb9736d56fd3e429,2022-06-29_09h06.23.430,Colour_Asymmetry_Pilot,2022.1.3,Win32,59.95203837,62bbe60bf3d75ef465d3e404,0,131,131,57,1,onethree,,,,,,,,,,,,,,,,,,,,,,,,,,,,,,,,,,,,,,,,,,,,,,,,,,,,,,,,,,,,,,,,,,,,,,,,,,,,,,,,,,,,,,,,,,,,,,,,,,,,,,,,,,,,,,,,,,,,,,,,,,,,,,,,,,,,,,,,,,,,,,,,,,,,,,,,
,,,,,,608e74070357794c8c355e75,62bbf9d5bb9736d56fd3e429,2022-06-29_09h06.23.430,Colour_Asymmetry_Pilot,2022.1.3,Win32,59.95203837,62bbe60bf3d75ef465d3e404,0,132,132,113,1,onethree,,,,,,,,,,,,,,,,,,,,,,,,,,,,,,,,,,,,,,,,,,,,,,,,,,,,,,,,,,,,,,,,,,,,,,,,,,,,,,,,,,,,,,,,,,,,,,,,,,,,,,,,,,,,,,,,,,,,,,,,,,,,,,,,,,,,,,,,,,,,,,,,,,,,,,,,
,,,,,,608e74070357794c8c355e75,62bbf9d5bb9736d56fd3e429,2022-06-29_09h06.23.430,Colour_Asymmetry_Pilot,2022.1.3,Win32,59.95203837,62bbe60bf3d75ef465d3e404,0,133,133,42,1,twoone,,,,,,,,,,,,,,,,,,,,,,,,,,,,,,,,,,,,,,,,,,,,,,,,,,,,,,,,,,,,,,,,,,,,,,,,,,,,,,,,,,,,,,,,,,,,,,,,,,,,,,,,,,,,,,,,,,,,,,,,,,,,,,,,,,,,,,,,,,,,,,,,,,,,,,,,
,,,,,,608e74070357794c8c355e75,62bbf9d5bb9736d56fd3e429,2022-06-29_09h06.23.430,Colour_Asymmetry_Pilot,2022.1.3,Win32,59.95203837,62bbe60bf3d75ef465d3e404,0,134,134,97,1,onethree,,,,,,,,,,,,,,,,,,,,,,,,,,,,,,,,,,,,,,,,,,,,,,,,,,,,,,,,,,,,,,,,,,,,,,,,,,,,,,,,,,,,,,,,,,,,,,,,,,,,,,,,,,,,,,,,,,,,,,,,,,,,,,,,,,,,,,,,,,,,,,,,,,,,,,,,
,,,,,,608e74070357794c8c355e75,62bbf9d5bb9736d56fd3e429,2022-06-29_09h06.23.430,Colour_Asymmetry_Pilot,2022.1.3,Win32,59.95203837,62bbe60bf3d75ef465d3e404,0,135,135,135,1,fourthree,,,,,,,,,,,,,,,,,,,,,,,,,,,,,,,,,,,,,,,,,,,,,,,,,,,,,,,,,,,,,,,,,,,,,,,,,,,,,,,,,,,,,,,,,,,,,,,,,,,,,,,,,,,,,,,,,,,,,,,,,,,,,,,,,,,,,,,,,,,,,,,,,,,,,,,,
,,,,,,608e74070357794c8c355e75,62bbf9d5bb9736d56fd3e429,2022-06-29_09h06.23.430,Colour_Asymmetry_Pilot,2022.1.3,Win32,59.95203837,62bbe60bf3d75ef465d3e404,0,136,136,68,1,threeone,,,,,,,,,,,,,,,,,,,,,,,,,,,,,,,,,,,,,,,,,,,,,,,,,,,,,,,,,,,,,,,,,,,,,,,,,,,,,,,,,,,,,,,,,,,,,,,,,,,,,,,,,,,,,,,,,,,,,,,,,,,,,,,,,,,,,,,,,,,,,,,,,,,,,,,,
,,,,,,608e74070357794c8c355e75,62bbf9d5bb9736d56fd3e429,2022-06-29_09h06.23.430,Colour_Asymmetry_Pilot,2022.1.3,Win32,59.95203837,62bbe60bf3d75ef465d3e404,0,137,137,103,1,fourthree,,,,,,,,,,,,,,,,,,,,,,,,,,,,,,,,,,,,,,,,,,,,,,,,,,,,,,,,,,,,,,,,,,,,,,,,,,,,,,,,,,,,,,,,,,,,,,,,,,,,,,,,,,,,,,,,,,,,,,,,,,,,,,,,,,,,,,,,,,,,,,,,,,,,,,,,
,,,,,,608e74070357794c8c355e75,62bbf9d5bb9736d56fd3e429,2022-06-29_09h06.23.430,Colour_Asymmetry_Pilot,2022.1.3,Win32,59.95203837,62bbe60bf3d75ef465d3e404,0,138,138,142,1,fourtwo,,,,,,,,,,,,,,,,,,,,,,,,,,,,,,,,,,,,,,,,,,,,,,,,,,,,,,,,,,,,,,,,,,,,,,,,,,,,,,,,,,,,,,,,,,,,,,,,,,,,,,,,,,,,,,,,,,,,,,,,,,,,,,,,,,,,,,,,,,,,,,,,,,,,,,,,
,,,,,,608e74070357794c8c355e75,62bbf9d5bb9736d56fd3e429,2022-06-29_09h06.23.430,Colour_Asymmetry_Pilot,2022.1.3,Win32,59.95203837,62bbe60bf3d75ef465d3e404,0,139,139,22,1,fourtwo,,,,,,,,,,,,,,,,,,,,,,,,,,,,,,,,,,,,,,,,,,,,,,,,,,,,,,,,,,,,,,,,,,,,,,,,,,,,,,,,,,,,,,,,,,,,,,,,,,,,,,,,,,,,,,,,,,,,,,,,,,,,,,,,,,,,,,,,,,,,,,,,,,,,,,,,
,,,,,,608e74070357794c8c355e75,62bbf9d5bb9736d56fd3e429,2022-06-29_09h06.23.430,Colour_Asymmetry_Pilot,2022.1.3,Win32,59.95203837,62bbe60bf3d75ef465d3e404,0,140,140,62,1,fourtwo,,,,,,,,,,,,,,,,,,,,,,,,,,,,,,,,,,,,,,,,,,,,,,,,,,,,,,,,,,,,,,,,,,,,,,,,,,,,,,,,,,,,,,,,,,,,,,,,,,,,,,,,,,,,,,,,,,,,,,,,,,,,,,,,,,,,,,,,,,,,,,,,,,,,,,,,
,,,,,,608e74070357794c8c355e75,62bbf9d5bb9736d56fd3e429,2022-06-29_09h06.23.430,Colour_Asymmetry_Pilot,2022.1.3,Win32,59.95203837,62bbe60bf3d75ef465d3e404,0,141,141,92,1,threeone,,,,,,,,,,,,,,,,,,,,,,,,,,,,,,,,,,,,,,,,,,,,,,,,,,,,,,,,,,,,,,,,,,,,,,,,,,,,,,,,,,,,,,,,,,,,,,,,,,,,,,,,,,,,,,,,,,,,,,,,,,,,,,,,,,,,,,,,,,,,,,,,,,,,,,,,
,,,,,,608e74070357794c8c355e75,62bbf9d5bb9736d56fd3e429,2022-06-29_09h06.23.430,Colour_Asymmetry_Pilot,2022.1.3,Win32,59.95203837,62bbe60bf3d75ef465d3e404,0,142,142,1,1,onethree,,,,,,,,,,,,,,,,,,,,,,,,,,,,,,,,,,,,,,,,,,,,,,,,,,,,,,,,,,,,,,,,,,,,,,,,,,,,,,,,,,,,,,,,,,,,,,,,,,,,,,,,,,,,,,,,,,,,,,,,,,,,,,,,,,,,,,,,,,,,,,,,,,,,,,,,
,,,,,,608e74070357794c8c355e75,62bbf9d5bb9736d56fd3e429,2022-06-29_09h06.23.430,Colour_Asymmetry_Pilot,2022.1.3,Win32,59.95203837,62bbe60bf3d75ef465d3e404,0,143,143,45,1,threefour,,,,,,,,,,,,,,,,,,,,,,,,,,,,,,,,,,,,,,,,,,,,,,,,,,,,,,,,,,,,,,,,,,,,,,,,,,,,,,,,,,,,,,,,,,,,,,,,,,,,,,,,,,,,,,,,,,,,,,,,,,,,,,,,,,,,,,,,,,,,,,,,,,,,,,,,
,,,,,,608e74070357794c8c355e75,62bbf9d5bb9736d56fd3e429,2022-06-29_09h06.23.430,Colour_Asymmetry_Pilot,2022.1.3,Win32,59.95203837,62bbe60bf3d75ef465d3e404,0,144,144,125,1,threefour,,,,,,,,,,,,,,,,,,,,,,,,,,,,,,,,,,,,,,,,,,,,,,,,,,,,,,,,,,,,,,,,,,,,,,,,,,,,,,,,,,,,,,,,,,,,,,,,,,,,,,,,,,,,,,,,,,,,,,,,,,,,,,,,,,,,,,,,,,,,,,,,,,,,,,,,
,,,,,,608e74070357794c8c355e75,62bbf9d5bb9736d56fd3e429,2022-06-29_09h06.23.430,Colour_Asymmetry_Pilot,2022.1.3,Win32,59.95203837,62bbe60bf3d75ef465d3e404,0,145,145,65,1,onethree,,,,,,,,,,,,,,,,,,,,,,,,,,,,,,,,,,,,,,,,,,,,,,,,,,,,,,,,,,,,,,,,,,,,,,,,,,,,,,,,,,,,,,,,,,,,,,,,,,,,,,,,,,,,,,,,,,,,,,,,,,,,,,,,,,,,,,,,,,,,,,,,,,,,,,,,
,,,,,,608e74070357794c8c355e75,62bbf9d5bb9736d56fd3e429,2022-06-29_09h06.23.430,Colour_Asymmetry_Pilot,2022.1.3,Win32,59.95203837,62bbe60bf3d75ef465d3e404,0,146,146,153,1,onethree,,,,,,,,,,,,,,,,,,,,,,,,,,,,,,,,,,,,,,,,,,,,,,,,,,,,,,,,,,,,,,,,,,,,,,,,,,,,,,,,,,,,,,,,,,,,,,,,,,,,,,,,,,,,,,,,,,,,,,,,,,,,,,,,,,,,,,,,,,,,,,,,,,,,,,,,
,,,,,,608e74070357794c8c355e75,62bbf9d5bb9736d56fd3e429,2022-06-29_09h06.23.430,Colour_Asymmetry_Pilot,2022.1.3,Win32,59.95203837,62bbe60bf3d75ef465d3e404,0,147,147,139,1,twofour,,,,,,,,,,,,,,,,,,,,,,,,,,,,,,,,,,,,,,,,,,,,,,,,,,,,,,,,,,,,,,,,,,,,,,,,,,,,,,,,,,,,,,,,,,,,,,,,,,,,,,,,,,,,,,,,,,,,,,,,,,,,,,,,,,,,,,,,,,,,,,,,,,,,,,,,
,,,,,,608e74070357794c8c355e75,62bbf9d5bb9736d56fd3e429,2022-06-29_09h06.23.430,Colour_Asymmetry_Pilot,2022.1.3,Win32,59.95203837,62bbe60bf3d75ef465d3e404,0,148,148,7,1,fourthree,,,,,,,,,,,,,,,,,,,,,,,,,,,,,,,,,,,,,,,,,,,,,,,,,,,,,,,,,,,,,,,,,,,,,,,,,,,,,,,,,,,,,,,,,,,,,,,,,,,,,,,,,,,,,,,,,,,,,,,,,,,,,,,,,,,,,,,,,,,,,,,,,,,,,,,,
,,,,,,608e74070357794c8c355e75,62bbf9d5bb9736d56fd3e429,2022-06-29_09h06.23.430,Colour_Asymmetry_Pilot,2022.1.3,Win32,59.95203837,62bbe60bf3d75ef465d3e404,0,149,149,80,1,onetwo,,,,,,,,,,,,,,,,,,,,,,,,,,,,,,,,,,,,,,,,,,,,,,,,,,,,,,,,,,,,,,,,,,,,,,,,,,,,,,,,,,,,,,,,,,,,,,,,,,,,,,,,,,,,,,,,,,,,,,,,,,,,,,,,,,,,,,,,,,,,,,,,,,,,,,,,
,,,,,,608e74070357794c8c355e75,62bbf9d5bb9736d56fd3e429,2022-06-29_09h06.23.430,Colour_Asymmetry_Pilot,2022.1.3,Win32,59.95203837,62bbe60bf3d75ef465d3e404,0,150,150,44,1,threeone,,,,,,,,,,,,,,,,,,,,,,,,,,,,,,,,,,,,,,,,,,,,,,,,,,,,,,,,,,,,,,,,,,,,,,,,,,,,,,,,,,,,,,,,,,,,,,,,,,,,,,,,,,,,,,,,,,,,,,,,,,,,,,,,,,,,,,,,,,,,,,,,,,,,,,,,
,,,,,,608e74070357794c8c355e75,62bbf9d5bb9736d56fd3e429,2022-06-29_09h06.23.430,Colour_Asymmetry_Pilot,2022.1.3,Win32,59.95203837,62bbe60bf3d75ef465d3e404,0,151,151,136,1,onetwo,,,,,,,,,,,,,,,,,,,,,,,,,,,,,,,,,,,,,,,,,,,,,,,,,,,,,,,,,,,,,,,,,,,,,,,,,,,,,,,,,,,,,,,,,,,,,,,,,,,,,,,,,,,,,,,,,,,,,,,,,,,,,,,,,,,,,,,,,,,,,,,,,,,,,,,,
,,,,,,608e74070357794c8c355e75,62bbf9d5bb9736d56fd3e429,2022-06-29_09h06.23.430,Colour_Asymmetry_Pilot,2022.1.3,Win32,59.95203837,62bbe60bf3d75ef465d3e404,0,152,152,9,1,onethree,,,,,,,,,,,,,,,,,,,,,,,,,,,,,,,,,,,,,,,,,,,,,,,,,,,,,,,,,,,,,,,,,,,,,,,,,,,,,,,,,,,,,,,,,,,,,,,,,,,,,,,,,,,,,,,,,,,,,,,,,,,,,,,,,,,,,,,,,,,,,,,,,,,,,,,,
,,,,,,608e74070357794c8c355e75,62bbf9d5bb9736d56fd3e429,2022-06-29_09h06.23.430,Colour_Asymmetry_Pilot,2022.1.3,Win32,59.95203837,62bbe60bf3d75ef465d3e404,0,153,153,121,1,onethree,,,,,,,,,,,,,,,,,,,,,,,,,,,,,,,,,,,,,,,,,,,,,,,,,,,,,,,,,,,,,,,,,,,,,,,,,,,,,,,,,,,,,,,,,,,,,,,,,,,,,,,,,,,,,,,,,,,,,,,,,,,,,,,,,,,,,,,,,,,,,,,,,,,,,,,,
,,,,,,608e74070357794c8c355e75,62bbf9d5bb9736d56fd3e429,2022-06-29_09h06.23.430,Colour_Asymmetry_Pilot,2022.1.3,Win32,59.95203837,62bbe60bf3d75ef465d3e404,0,154,154,101,1,threefour,,,,,,,,,,,,,,,,,,,,,,,,,,,,,,,,,,,,,,,,,,,,,,,,,,,,,,,,,,,,,,,,,,,,,,,,,,,,,,,,,,,,,,,,,,,,,,,,,,,,,,,,,,,,,,,,,,,,,,,,,,,,,,,,,,,,,,,,,,,,,,,,,,,,,,,,
,,,,,,608e74070357794c8c355e75,62bbf9d5bb9736d56fd3e429,2022-06-29_09h06.23.430,Colour_Asymmetry_Pilot,2022.1.3,Win32,59.95203837,62bbe60bf3d75ef465d3e404,0,155,155,78,1,fourtwo,,,,,,,,,,,,,,,,,,,,,,,,,,,,,,,,,,,,,,,,,,,,,,,,,,,,,,,,,,,,,,,,,,,,,,,,,,,,,,,,,,,,,,,,,,,,,,,,,,,,,,,,,,,,,,,,,,,,,,,,,,,,,,,,,,,,,,,,,,,,,,,,,,,,,,,,
,,,,,,608e74070357794c8c355e75,62bbf9d5bb9736d56fd3e429,2022-06-29_09h06.23.430,Colour_Asymmetry_Pilot,2022.1.3,Win32,59.95203837,62bbe60bf3d75ef465d3e404,0,156,156,138,1,twoone,,,,,,,,,,,,,,,,,,,,,,,,,,,,,,,,,,,,,,,,,,,,,,,,,,,,,,,,,,,,,,,,,,,,,,,,,,,,,,,,,,,,,,,,,,,,,,,,,,,,,,,,,,,,,,,,,,,,,,,,,,,,,,,,,,,,,,,,,,,,,,,,,,,,,,,,
,,,,,,608e74070357794c8c355e75,62bbf9d5bb9736d56fd3e429,2022-06-29_09h06.23.430,Colour_Asymmetry_Pilot,2022.1.3,Win32,59.95203837,62bbe60bf3d75ef465d3e404,0,157,157,37,1,threefour,,,,,,,,,,,,,,,,,,,,,,,,,,,,,,,,,,,,,,,,,,,,,,,,,,,,,,,,,,,,,,,,,,,,,,,,,,,,,,,,,,,,,,,,,,,,,,,,,,,,,,,,,,,,,,,,,,,,,,,,,,,,,,,,,,,,,,,,,,,,,,,,,,,,,,,,
,,,,,,608e74070357794c8c355e75,62bbf9d5bb9736d56fd3e429,2022-06-29_09h06.23.430,Colour_Asymmetry_Pilot,2022.1.3,Win32,59.95203837,62bbe60bf3d75ef465d3e404,0,158,158,52,1,threeone,,,,,,,,,,,,,,,,,,,,,,,,,,,,,,,,,,,,,,,,,,,,,,,,,,,,,,,,,,,,,,,,,,,,,,,,,,,,,,,,,,,,,,,,,,,,,,,,,,,,,,,,,,,,,,,,,,,,,,,,,,,,,,,,,,,,,,,,,,,,,,,,,,,,,,,,
,,,,,,608e74070357794c8c355e75,62bbf9d5bb9736d56fd3e429,2022-06-29_09h06.23.430,Colour_Asymmetry_Pilot,2022.1.3,Win32,59.95203837,62bbe60bf3d75ef465d3e404,0,159,159,106,1,twoone,,,,,,,,,,,,,,,,,,,,,,,,,,,,,,,,,,,,,,,,,,,,,,,,,,,,,,,,,,,,,,,,,,,,,,,,,,,,,,,,,,,,,,,,,,,,,,,,,,,,,,,,,,,,,,,,,,,,,,,,,,,,,,,,,,,,,,,,,,,,,,,,,,,,,,,,
,,,,,,608e74070357794c8c355e75,62bbf9d5bb9736d56fd3e429,2022-06-29_09h06.23.430,Colour_Asymmetry_Pilot,2022.1.3,Win32,59.95203837,62bbe60bf3d75ef465d3e404,0,160,160,31,1,fourthree,,,,,,,,,,,,,,,,,,,,,,,,,,,,,,,,,,,,,,,,,,,,,,,,,,,,,,,,,,,,,,,,,,,,,,,,,,,,,,,,,,,,,,,,,,,,,,,,,,,,,,,,,,,,,,,,,,,,,,,,,,,,,,,,,,,,,,,,,,,,,,,,,,,,,,,,
,,,,,,608e74070357794c8c355e75,62bbf9d5bb9736d56fd3e429,2022-06-29_09h06.23.430,Colour_Asymmetry_Pilot,2022.1.3,Win32,59.95203837,62bbe60bf3d75ef465d3e404,0,161,161,126,1,fourtwo,,,,,,,,,,,,,,,,,,,,,,,,,,,,,,,,,,,,,,,,,,,,,,,,,,,,,,,,,,,,,,,,,,,,,,,,,,,,,,,,,,,,,,,,,,,,,,,,,,,,,,,,,,,,,,,,,,,,,,,,,,,,,,,,,,,,,,,,,,,,,,,,,,,,,,,,
,,,,,,608e74070357794c8c355e75,62bbf9d5bb9736d56fd3e429,2022-06-29_09h06.23.430,Colour_Asymmetry_Pilot,2022.1.3,Win32,59.95203837,62bbe60bf3d75ef465d3e404,,,,,,,space,1.4014,space,5.4857,space,18.2111,space,3.7988,space,0.6665,space,12.8518,"[0.05879999999999996,0.2784,0.5841999999999998]",twoone,"[0.6547999999999998,-0.043199999999999905,-0.011800000000000033]",-4,11.7719,-51,142,1,0,0,response7disk_5,11,-6,1,0,0,rectangle_8,11,-6,1,0,0,4,11,-6,1,0,0,0,0,0,0,1,,,,,,,,,,,,,,,,,,,,,,,,,,,,,,,,,,,,,,,,,,,,,,,,,,,,,,,,,,,,,,,,,,,,,,,,,,,,,,,,,,,,,,,,,,,,,,,,,,,,,,,,,,,
,,,,,,608e74070357794c8c355e75,62bbf9d5bb9736d56fd3e429,2022-06-29_09h06.23.430,Colour_Asymmetry_Pilot,2022.1.3,Win32,59.95203837,62bbe60bf3d75ef465d3e404,,,,,,,,,,,,,,,,,,,"[-0.9766,-0.6472,0.07440000000000002]",fourthree,"[0.7802,-0.23140000000000005,-0.20799999999999996]",-4,3.6953,-41,105,1,0,0,response7disk_5,12.00006104,-9,1,0,0,rectangle_8,12.00006104,-9,1,0,0,4,12.00006104,-9,1,0,0,1,0,1,0,1,,,,,,,,,,,,,,,,,,,,,,,,,,,,,,,,,,,,,,,,,,,,,,,,,,,,,,,,,,,,,,,,,,,,,,,,,,,,,,,,,,,,,,,,,,,,,,,,,,,,,,,,,,,
,,,,,,608e74070357794c8c355e75,62bbf9d5bb9736d56fd3e429,2022-06-29_09h06.23.430,Colour_Asymmetry_Pilot,2022.1.3,Win32,59.95203837,62bbe60bf3d75ef465d3e404,,,,,,,,,,,,,,,,,,,"[-0.24719999999999998,0.5213999999999999,-0.12959999999999994]",twoone,"[-0.5688,-0.08239999999999992,-0.1844]",3,5.3452,77,57,1,0,0,response1disk_5,47.00006104,14,1,0,0,rectangle_8,50,113,1,0,0,4,-7,15,1,0,0,2,0,2,0,1,response1disk_7,7,rectangle_4,,,,,,,,,,,,,,,,,,,,,,,,,,,,,,,,,,,,,,,,,,,,,,,,,,,,,,,,,,,,,,,,,,,,,,,,,,,,,,,,,,,,,,,,,,,,,,,,,,,,,,,,
,,,,,,608e74070357794c8c355e75,62bbf9d5bb9736d56fd3e429,2022-06-29_09h06.23.430,Colour_Asymmetry_Pilot,2022.1.3,Win32,59.95203837,62bbe60bf3d75ef465d3e404,,,,,,,,,,,,,,,,,,,"[0.2784,-0.31000000000000005,-0.5452]",threeone,"[0.9686000000000001,0.3802000000000001,0.19999999999999996]",2,2.216,101,-52,1,0,0,response3disk_5,18,-5,1,0,0,rectangle_8,18,-5,1,0,0,4,18,-5,1,0,0,3,0,3,0,1,,,,,,,,,,,,,,,,,,,,,,,,,,,,,,,,,,,,,,,,,,,,,,,,,,,,,,,,,,,,,,,,,,,,,,,,,,,,,,,,,,,,,,,,,,,,,,,,,,,,,,,,,,,
,,,,,,608e74070357794c8c355e75,62bbf9d5bb9736d56fd3e429,2022-06-29_09h06.23.430,Colour_Asymmetry_Pilot,2022.1.3,Win32,59.95203837,62bbe60bf3d75ef465d3e404,,,,,,,,,,,,,,,,,,,"[-0.38039999999999996,-0.4276,-0.1452]",fourthree,"[-0.10599999999999998,-0.15300000000000002,0.15280000000000005]",3,1.5832,74,37,1,0,0,response1disk_5,24,13,1,0,0,rectangle_8,51,108.9999695,1,0,0,4,-17.99993896,-2,1,0,0,4,0,4,0,1,response1disk_7,7,rectangle_4,,,,,,,,,,,,,,,,,,,,,,,,,,,,,,,,,,,,,,,,,,,,,,,,,,,,,,,,,,,,,,,,,,,,,,,,,,,,,,,,,,,,,,,,,,,,,,,,,,,,,,,,
,,,,,,608e74070357794c8c355e75,62bbf9d5bb9736d56fd3e429,2022-06-29_09h06.23.430,Colour_Asymmetry_Pilot,2022.1.3,Win32,59.95203837,62bbe60bf3d75ef465d3e404,,,,,,,,,,,,,,,,,,,"[0.7646000000000002,0.07440000000000002,0.2704]",fourtwo,"[-0.4902000000000001,0.2704,-0.45899999999999996]",-4,2.4111,-55,95,1,0,0,response7disk_5,-44,7,1,0,0,rectangle_8,-44,7,1,0,0,4,-44,7,1,0,0,5,0,5,0,1,,,,,,,,,,,,,,,,,,,,,,,,,,,,,,,,,,,,,,,,,,,,,,,,,,,,,,,,,,,,,,,,,,,,,,,,,,,,,,,,,,,,,,,,,,,,,,,,,,,,,,,,,,,
,,,,,,608e74070357794c8c355e75,62bbf9d5bb9736d56fd3e429,2022-06-29_09h06.23.430,Colour_Asymmetry_Pilot,2022.1.3,Win32,59.95203837,62bbe60bf3d75ef465d3e404,,,,,,,,,,,,,,,,,,,"[0.23920000000000008,0.2704,0.16060000000000008]",twoone,"[0.34099999999999997,0.12939999999999996,-0.9766]",4,2.5825,29,107,1,0,0,response1disk_5,-22,7,1,0,0,rectangle_8,-22,7,1,0,0,4,-22,7,1,0,0,6,0,6,0,1,,,,,,,,,,,,,,,,,,,,,,,,,,,,,,,,,,,,,,,,,,,,,,,,,,,,,,,,,,,,,,,,,,,,,,,,,,,,,,,,,,,,,,,,,,,,,,,,,,,,,,,,,,,
,,,,,,608e74070357794c8c355e75,62bbf9d5bb9736d56fd3e429,2022-06-29_09h06.23.430,Colour_Asymmetry_Pilot,2022.1.3,Win32,59.95203837,62bbe60bf3d75ef465d3e404,,,,,,,,,,,,,,,,,,,,twofour,,2,1.528,,,,,,,,,,,,,,,,,,,,,,,,,,,,,,,,space,2.6423,"[0.9213999999999998,0.6391999999999998,-0.9922]","[0.8274000000000001,-0.5844,-0.9452]",115,-68,1,0,0,response3disk,42.00006104,21,1,0,0,rectangle,42.00006104,21,1,0,0,3,3,0.0022,0,42.00006104,21,1,0,0,0,0,0,100,1,19,second,,,,,,,,,,,,,,,,,,,,,,,,,,,,,,,,,,,,,,,,,,,,,,,,,,,,,,,,,,,,,,,,,,,
,,,,,,608e74070357794c8c355e75,62bbf9d5bb9736d56fd3e429,2022-06-29_09h06.23.430,Colour_Asymmetry_Pilot,2022.1.3,Win32,59.95203837,62bbe60bf3d75ef465d3e404,,,,,,,,,,,,,,,,,,,,fourthree,,-4,1.6328,,,,,,,,,,,,,,,,,,,,,,,,,,,,,,,,,,"[0.11359999999999992,0.6312,0.5213999999999999]","[-0.6706000000000001,-0.6157999999999999,-0.6786]",-67,87,1,0,0,response7disk,-17.99993896,-2,1,0,0,rectangle,-17.99993896,-2,1,0,0,3,1,0.0016,0,-17.99993896,-2,1,0,0,0,1,1,34,1,34,first,,,,,,,,,,,,,,,,,,,,,,,,,,,,,,,,,,,,,,,,,,,,,,,,,,,,,,,,,,,,,,,,,,,
,,,,,,608e74070357794c8c355e75,62bbf9d5bb9736d56fd3e429,2022-06-29_09h06.23.430,Colour_Asymmetry_Pilot,2022.1.3,Win32,59.95203837,62bbe60bf3d75ef465d3e404,,,,,,,,,,,,,,,,,,,,fourtwo,,3,0.5163,,,,,,,,,,,,,,,,,,,,,,,,,,,,,,,,,,"[-0.10599999999999998,-0.10599999999999998,0.5841999999999998]","[-0.48240000000000005,0.3175999999999999,0.2156]",86,51,1,0,0,response1disk,27.00006104,11,1,0,0,rectangle,27.00006104,11,1,0,0,3,2,0.0007,0,27.00006104,11,1,0,0,0,2,2,40,1,40,first,,,,,,,,,,,,,,,,,,,,,,,,,,,,,,,,,,,,,,,,,,,,,,,,,,,,,,,,,,,,,,,,,,,
,,,,,,608e74070357794c8c355e75,62bbf9d5bb9736d56fd3e429,2022-06-29_09h06.23.430,Colour_Asymmetry_Pilot,2022.1.3,Win32,59.95203837,62bbe60bf3d75ef465d3e404,,,,,,,,,,,,,,,,,,,,threeone,,-4,1.5995,,,,,,,,,,,,,,,,,,,,,,,,,,,,,,,,,,"[0.23920000000000008,0.2704,0.16060000000000008]","[-0.6942,-0.7648,-0.12959999999999994]",-72,81,1,0,0,response7disk,-17.99993896,-3,1,0,0,rectangle,-17.99993896,-3,1,0,0,3,2,0.0002,0,-17.99993896,-3,1,0,0,0,3,3,24,1,24,first,,,,,,,,,,,,,,,,,,,,,,,,,,,,,,,,,,,,,,,,,,,,,,,,,,,,,,,,,,,,,,,,,,,
,,,,,,608e74070357794c8c355e75,62bbf9d5bb9736d56fd3e429,2022-06-29_09h06.23.430,Colour_Asymmetry_Pilot,2022.1.3,Win32,59.95203837,62bbe60bf3d75ef465d3e404,,,,,,,,,,,,,,,,,,,,fourtwo,,3,0.4997,,,,,,,,,,,,,,,,,,,,,,,,,,,,,,,,,,"[0.7802,-0.23140000000000005,-0.20799999999999996]","[0.3881999999999999,-0.23939999999999995,-0.05040000000000011]",50,40,1,0,0,response1disk,4,-4,1,0,0,rectangle,4,-4,1,0,0,3,2,9.99999E-05,0,4,-4,1,0,0,0,4,4,152,1,71,second,,,,,,,,,,,,,,,,,,,,,,,,,,,,,,,,,,,,,,,,,,,,,,,,,,,,,,,,,,,,,,,,,,,
,,,,,,608e74070357794c8c355e75,62bbf9d5bb9736d56fd3e429,2022-06-29_09h06.23.430,Colour_Asymmetry_Pilot,2022.1.3,Win32,59.95203837,62bbe60bf3d75ef465d3e404,,,,,,,,,,,,,,,,,,,,twofour,,2,0.7612,,,,,,,,,,,,,,,,,,,,,,,,,,,,,,,,,,"[-0.5922000000000001,-0.7492000000000001,-0.5296000000000001]","[-0.24719999999999998,-0.0354000000000001,0.3175999999999999]",56,-38,1,0,0,response3disk,9,-7,1,0,0,rectangle,9,-7,1,0,0,3,2,0.0002,0,9,-7,1,0,0,0,5,5,122,1,41,second,,,,,,,,,,,,,,,,,,,,,,,,,,,,,,,,,,,,,,,,,,,,,,,,,,,,,,,,,,,,,,,,,,,
,,,,,,608e74070357794c8c355e75,62bbf9d5bb9736d56fd3e429,2022-06-29_09h06.23.430,Colour_Asymmetry_Pilot,2022.1.3,Win32,59.95203837,62bbe60bf3d75ef465d3e404,,,,,,,,,,,,,,,,,,,,threeone,,-4,1.1331,,,,,,,,,,,,,,,,,,,,,,,,,,,,,,,,,,"[0.7176,-0.906,-0.6864]","[0.23920000000000008,0.2704,0.16060000000000008]",-27,115,1,0,0,response7disk,13,-10,1,0,0,rectangle,13,-10,1,0,0,3,2,0.0001,0,13,-10,1,0,0,0,6,6,134,1,53,second,,,,,,,,,,,,,,,,,,,,,,,,,,,,,,,,,,,,,,,,,,,,,,,,,,,,,,,,,,,,,,,,,,,
,,,,,,608e74070357794c8c355e75,62bbf9d5bb9736d56fd3e429,2022-06-29_09h06.23.430,Colour_Asymmetry_Pilot,2022.1.3,Win32,59.95203837,62bbe60bf3d75ef465d3e404,,,,,,,,,,,,,,,,,,,,onetwo,,-4,0.428,,,,,,,,,,,,,,,,,,,,,,,,,,,,,,,,,,"[-0.9688,-0.38039999999999996,-0.41979999999999995]","[0.5449999999999999,-0.31000000000000005,-0.0354000000000001]",-69,122,1,0,0,response7disk,43,-17,1,0,0,rectangle,94,55,1,0,0,3,3,1.8319,1,-11,-3,1,0,0,0,7,7,161,1,80,second,response1disk_3,rectangle,,,,,,,,,,,,,,,,,,,,,,,,,,,,,,,,,,,,,,,,,,,,,,,,,,,,,,,,,,,,,,,,,
,,,,,,608e74070357794c8c355e75,62bbf9d5bb9736d56fd3e429,2022-06-29_09h06.23.430,Colour_Asymmetry_Pilot,2022.1.3,Win32,59.95203837,62bbe60bf3d75ef465d3e404,,,,,,,,,,,,,,,,,,,,onetwo,,3,1.7499,,,,,,,,,,,,,,,,,,,,,,,,,,,,,,,,,,"[0.30180000000000007,-0.7884,-0.9844]","[0.37240000000000006,0.4980000000000002,-0.2864]",85,46,1,0,0,response1disk,-12.99993896,-8,1,0,0,rectangle,-12.99993896,-8,1,0,0,3,3,9.99999E-05,0,-12.99993896,-8,1,0,0,0,8,8,26,1,26,first,,,,,,,,,,,,,,,,,,,,,,,,,,,,,,,,,,,,,,,,,,,,,,,,,,,,,,,,,,,,,,,,,,,
,,,,,,608e74070357794c8c355e75,62bbf9d5bb9736d56fd3e429,2022-06-29_09h06.23.430,Colour_Asymmetry_Pilot,2022.1.3,Win32,59.95203837,62bbe60bf3d75ef465d3e404,,,,,,,,,,,,,,,,,,,,fourtwo,,-4,0.8779,,,,,,,,,,,,,,,,,,,,,,,,,,,,,,,,,,"[-0.8118,-0.8198,-0.5452]","[0.5449999999999999,-0.31000000000000005,-0.0354000000000001]",-57,163,1,0,0,response7disk,3,9,1,0,0,rectangle,3,9,1,0,0,3,2,0.0014,0,3,9,1,0,0,0,9,9,95,1,14,second,,,,,,,,,,,,,,,,,,,,,,,,,,,,,,,,,,,,,,,,,,,,,,,,,,,,,,,,,,,,,,,,,,,
,,,,,,608e74070357794c8c355e75,62bbf9d5bb9736d56fd3e429,2022-06-29_09h06.23.430,Colour_Asymmetry_Pilot,2022.1.3,Win32,59.95203837,62bbe60bf3d75ef465d3e404,,,,,,,,,,,,,,,,,,,,fourtwo,,-4,0.8945,,,,,,,,,,,,,,,,,,,,,,,,,,,,,,,,,,"[-0.011800000000000033,-0.906,-0.45100000000000007]","[-0.4902000000000001,0.2704,-0.45899999999999996]",-56,140,1,0,0,response7disk,11,19,1,0,0,rectangle,11,19,1,0,0,3,3,0.0021,0,11,19,1,0,0,0,10,10,2,1,2,first,,,,,,,,,,,,,,,,,,,,,,,,,,,,,,,,,,,,,,,,,,,,,,,,,,,,,,,,,,,,,,,,,,,
,,,,,,608e74070357794c8c355e75,62bbf9d5bb9736d56fd3e429,2022-06-29_09h06.23.430,Colour_Asymmetry_Pilot,2022.1.3,Win32,59.95203837,62bbe60bf3d75ef465d3e404,,,,,,,,,,,,,,,,,,,,threeone,,3,1.0493,,,,,,,,,,,,,,,,,,,,,,,,,,,,,,,,,,"[0.23120000000000007,-0.7726,-0.34120000000000006]","[0.37240000000000006,-0.050999999999999934,-0.5216]",105,40,1,0,0,response1disk,22.00006104,4,1,0,0,rectangle,22.00006104,4,1,0,0,3,2,0.0017,0,22.00006104,4,1,0,0,0,11,11,13,1,13,first,,,,,,,,,,,,,,,,,,,,,,,,,,,,,,,,,,,,,,,,,,,,,,,,,,,,,,,,,,,,,,,,,,,
,,,,,,608e74070357794c8c355e75,62bbf9d5bb9736d56fd3e429,2022-06-29_09h06.23.430,Colour_Asymmetry_Pilot,2022.1.3,Win32,59.95203837,62bbe60bf3d75ef465d3e404,,,,,,,,,,,,,,,,,,,,threefour,,-4,0.3945,,,,,,,,,,,,,,,,,,,,,,,,,,,,,,,,,,"[-0.7412000000000001,-0.08239999999999992,-0.6864]","[0.22340000000000004,-0.9296,-0.7884]",-46,91,1,0,0,response7disk,21,-10,1,0,0,rectangle,21,-10,1,0,0,3,2,9.99999E-05,0,21,-10,1,0,0,0,12,12,101,1,20,second,,,,,,,,,,,,,,,,,,,,,,,,,,,,,,,,,,,,,,,,,,,,,,,,,,,,,,,,,,,,,,,,,,,
,,,,,,608e74070357794c8c355e75,62bbf9d5bb9736d56fd3e429,2022-06-29_09h06.23.430,Colour_Asymmetry_Pilot,2022.1.3,Win32,59.95203837,62bbe60bf3d75ef465d3e404,,,,,,,,,,,,,,,,,,,,fourtwo,,-3,1.516,,,,,,,,,,,,,,,,,,,,,,,,,,,,,,,,,,"[0.0351999999999999,0.41159999999999997,0.0038000000000000256]","[-0.30200000000000005,0.14500000000000002,0.2784]",-57.99993896,30,1,0,0,response7disk,40,-13,1,0,0,rectangle,40,-13,1,0,0,3,3,0.0017,0,40,-13,1,0,0,0,13,13,72,1,72,first,,,,,,,,,,,,,,,,,,,,,,,,,,,,,,,,,,,,,,,,,,,,,,,,,,,,,,,,,,,,,,,,,,,
,,,,,,608e74070357794c8c355e75,62bbf9d5bb9736d56fd3e429,2022-06-29_09h06.23.430,Colour_Asymmetry_Pilot,2022.1.3,Win32,59.95203837,62bbe60bf3d75ef465d3e404,,,,,,,,,,,,,,,,,,,,twoone,,4,1.0333,,,,,,,,,,,,,,,,,,,,,,,,,,,,,,,,,,"[-0.9766,-0.6472,0.07440000000000002]","[-0.9216,-0.5529999999999999,-0.3962]",48,91,1,0,0,response1disk,9,12,1,0,0,rectangle,9,12,1,0,0,3,1,0.0019,0,9,12,1,0,0,0,14,14,23,1,23,first,,,,,,,,,,,,,,,,,,,,,,,,,,,,,,,,,,,,,,,,,,,,,,,,,,,,,,,,,,,,,,,,,,,
,,,,,,608e74070357794c8c355e75,62bbf9d5bb9736d56fd3e429,2022-06-29_09h06.23.430,Colour_Asymmetry_Pilot,2022.1.3,Win32,59.95203837,62bbe60bf3d75ef465d3e404,,,,,,,,,,,,,,,,,,,,onetwo,,-3,1.0162,,,,,,,,,,,,,,,,,,,,,,,,,,,,,,,,,,"[0.796,0.2156,-0.27859999999999996]","[-0.17659999999999998,0.3253999999999999,0.19999999999999996]",-102,28.99996948,1,0,0,response7disk,-17,0,1,0,0,rectangle,-17,0,1,0,0,3,2,0.0071,0,-17,0,1,0,0,0,15,15,90,1,9,second,,,,,,,,,,,,,,,,,,,,,,,,,,,,,,,,,,,,,,,,,,,,,,,,,,,,,,,,,,,,,,,,,,,
,,,,,,608e74070357794c8c355e75,62bbf9d5bb9736d56fd3e429,2022-06-29_09h06.23.430,Colour_Asymmetry_Pilot,2022.1.3,Win32,59.95203837,62bbe60bf3d75ef465d3e404,,,,,,,,,,,,,,,,,,,,twofour,,3,2.9033,,,,,,,,,,,,,,,,,,,,,,,,,,,,,,,,,,"[0.19199999999999995,0.18419999999999992,0.5136000000000001]","[-0.4746,-0.0354000000000001,0.5449999999999999]",143,23,1,0,0,response1disk,8,-6,1,0,0,rectangle,8,-6,1,0,0,3,3,0.0017,0,8,-6,1,0,0,0,16,16,58,1,58,first,,,,,,,,,,,,,,,,,,,,,,,,,,,,,,,,,,,,,,,,,,,,,,,,,,,,,,,,,,,,,,,,,,,
,,,,,,608e74070357794c8c355e75,62bbf9d5bb9736d56fd3e429,2022-06-29_09h06.23.430,Colour_Asymmetry_Pilot,2022.1.3,Win32,59.95203837,62bbe60bf3d75ef465d3e404,,,,,,,,,,,,,,,,,,,,twofour,,2,65.1113,,,,,,,,,,,,,,,,,,,,,,,,,,,,,,,,,,"[-0.17659999999999998,-0.2864,-0.8354]","[-0.26280000000000003,-0.2158,-0.3256]",135,-64,1,0,0,response3disk,27.00006104,11,1,0,0,rectangle,99,41,1,0,0,3,3,1.5944,1,40,13,1,0,0,0,17,17,55,1,55,first,response1disk_3,rectangle,,,,,,,,,,,,,,,,,,,,,,,,,,,,,,,,,,,,,,,,,,,,,,,,,,,,,,,,,,,,,,,,,
,,,,,,608e74070357794c8c355e75,62bbf9d5bb9736d56fd3e429,2022-06-29_09h06.23.430,Colour_Asymmetry_Pilot,2022.1.3,Win32,59.95203837,62bbe60bf3d75ef465d3e404,,,,,,,,,,,,,,,,,,,,fourtwo,,-4,0.6498,,,,,,,,,,,,,,,,,,,,,,,,,,,,,,,,,,"[0.6625999999999999,0.4980000000000002,-0.357]","[0.5528,0.7409999999999999,-0.71]",-90,110,1,0,0,response7disk,-7,16,1,0,0,rectangle,-7,16,1,0,0,3,1,0.0016,0,-7,16,1,0,0,0,18,18,129,1,48,second,,,,,,,,,,,,,,,,,,,,,,,,,,,,,,,,,,,,,,,,,,,,,,,,,,,,,,,,,,,,,,,,,,,
,,,,,,608e74070357794c8c355e75,62bbf9d5bb9736d56fd3e429,2022-06-29_09h06.23.430,Colour_Asymmetry_Pilot,2022.1.3,Win32,59.95203837,62bbe60bf3d75ef465d3e404,,,,,,,,,,,,,,,,,,,,onethree,,2,3.36,,,,,,,,,,,,,,,,,,,,,,,,,,,,,,,,,,"[-0.45899999999999996,-0.3256,-0.9374]","[0.9372,0.20779999999999998,0.2704]",107,-63,1,0,0,response3disk,-9,-13,1,0,0,rectangle,94,-57,1,0,0,2,2,1.9648,1,18,-11,1,0,0,0,19,19,97,1,16,second,response3disk_3,rectangle,,,,,,,,,,,,,,,,,,,,,,,,,,,,,,,,,,,,,,,,,,,,,,,,,,,,,,,,,,,,,,,,,
