trials.thisRepN,trials.thisTrialN,trials.thisN,trials.thisIndex,trials.ran,Colourcodes,participant,session,date,expName,psychopyVersion,OS,frameRate,study_id,trials_4.thisRepN,trials_4.thisTrialN,trials_4.thisN,trials_4.thisIndex,trials_4.ran,StimulusPos,key_resp.keys,key_resp.rt,key_resp_2.keys,key_resp_2.rt,key_resp_15.keys,key_resp_15.rt,key_resp_17.keys,key_resp_17.rt,key_resp_9.keys,key_resp_9.rt,key_resp_10.keys,key_resp_10.rt,Circle1_col,Ecc,Circle2_col,similarity,response_time,mouse_5.x,mouse_5.y,mouse_5.leftButton,mouse_5.midButton,mouse_5.rightButton,mouse_5.clicked_name,mouse_10.x,mouse_10.y,mouse_10.leftButton,mouse_10.midButton,mouse_10.rightButton,mouse_10.clicked_name,mouse_7.x,mouse_7.y,mouse_7.leftButton,mouse_7.midButton,mouse_7.rightButton,catchnumberprac,mouse_6.x,mouse_6.y,mouse_6.leftButton,mouse_6.midButton,mouse_6.rightButton,duringprac.thisRepN,duringprac.thisTrialN,duringprac.thisN,duringprac.thisIndex,duringprac.ran,mouse_7.clicked_name,catchprac,mouse_6.clicked_name,key_resp_22.keys,key_resp_22.rt,Circle1_colour,Circle2_colour,mouse.x,mouse.y,mouse.leftButton,mouse.midButton,mouse.rightButton,mouse.clicked_name,mouse_2.x,mouse_2.y,mouse_2.leftButton,mouse_2.midButton,mouse_2.rightButton,mouse_2.clicked_name,mouse_3.x,mouse_3.y,mouse_3.leftButton,mouse_3.midButton,mouse_3.rightButton,catchresponse,catchnumber,response_time_catch,Catch,mouse_11.x,mouse_11.y,mouse_11.leftButton,mouse_11.midButton,mouse_11.rightButton,trials_2.thisRepN,trials_2.thisTrialN,trials_2.thisN,trials_2.thisIndex,trials_2.ran,Colourpair,Temporder,mouse_3.clicked_name,mouse_11.clicked_name,trials_3.thisRepN,trials_3.thisTrialN,trials_3.thisN,trials_3.thisIndex,trials_3.ran,key_resp_instr_Ishi.keys,key_resp_instr_Ishi.rt,Ishi_trial_keyresp.keys,Ishi_trial_keyresp.rt,Ishi_textbox.text,Ishi_loop.thisRepN,Ishi_loop.thisTrialN,Ishi_loop.thisN,Ishi_loop.thisIndex,Ishi_loop.ran,imageaddress,textbox.text,mouse_4.x,mouse_4.y,mouse_4.leftButton,mouse_4.midButton,mouse_4.rightButton,mouse_4.clicked_name,textbox_2.text,mouse_8.x,mouse_8.y,mouse_8.leftButton,mouse_8.midButton,mouse_8.rightButton,mouse_8.clicked_name,textbox_3.text,mouse_9.x,mouse_9.y,mouse_9.leftButton,mouse_9.midButton,mouse_9.rightButton,mouse_9.clicked_name,textbox_4.text,mouse_12.x,mouse_12.y,mouse_12.leftButton,mouse_12.midButton,mouse_12.rightButton,mouse_12.clicked_name,textbox_5.text,mouse_13.x,mouse_13.y,mouse_13.leftButton,mouse_13.midButton,mouse_13.rightButton,mouse_13.clicked_name,textbox_6.text,mouse_14.x,mouse_14.y,mouse_14.leftButton,mouse_14.midButton,mouse_14.rightButton,mouse_14.clicked_name,textbox_7.text,mouse_15.x,mouse_15.y,mouse_15.leftButton,mouse_15.midButton,mouse_15.rightButton,mouse_15.clicked_name
0,0,0,80,1,,6120e45c3837db7f72f82d50,62bbfacb53b7d8aac167c6f7,2022-06-29_09h10.49.295,Colour_Asymmetry_Pilot,2022.1.3,Win32,60.04563468,62bbe60bf3d75ef465d3e404,,,,,,,,,,,,,,,,,,,,,,,,,,,,,,,,,,,,,,,,,,,,,,,,,,,,,,,,,,,,,,,,,,,,,,,,,,,,,,,,,,,,,,,,,,,,,,,,,,,,,,,,,,,,,,,,,,,,,,,,,,,,,,,,,,,,,,,,,,,,,,,,,,,,,,,,,,,,,,
0,1,1,70,1,,6120e45c3837db7f72f82d50,62bbfacb53b7d8aac167c6f7,2022-06-29_09h10.49.295,Colour_Asymmetry_Pilot,2022.1.3,Win32,60.04563468,62bbe60bf3d75ef465d3e404,,,,,,,,,,,,,,,,,,,,,,,,,,,,,,,,,,,,,,,,,,,,,,,,,,,,,,,,,,,,,,,,,,,,,,,,,,,,,,,,,,,,,,,,,,,,,,,,,,,,,,,,,,,,,,,,,,,,,,,,,,,,,,,,,,,,,,,,,,,,,,,,,,,,,,,,,,,,,,
0,2,2,57,1,,6120e45c3837db7f72f82d50,62bbfacb53b7d8aac167c6f7,2022-06-29_09h10.49.295,Colour_Asymmetry_Pilot,2022.1.3,Win32,60.04563468,62bbe60bf3d75ef465d3e404,,,,,,,,,,,,,,,,,,,,,,,,,,,,,,,,,,,,,,,,,,,,,,,,,,,,,,,,,,,,,,,,,,,,,,,,,,,,,,,,,,,,,,,,,,,,,,,,,,,,,,,,,,,,,,,,,,,,,,,,,,,,,,,,,,,,,,,,,,,,,,,,,,,,,,,,,,,,,,
0,3,3,73,1,,6120e45c3837db7f72f82d50,62bbfacb53b7d8aac167c6f7,2022-06-29_09h10.49.295,Colour_Asymmetry_Pilot,2022.1.3,Win32,60.04563468,62bbe60bf3d75ef465d3e404,,,,,,,,,,,,,,,,,,,,,,,,,,,,,,,,,,,,,,,,,,,,,,,,,,,,,,,,,,,,,,,,,,,,,,,,,,,,,,,,,,,,,,,,,,,,,,,,,,,,,,,,,,,,,,,,,,,,,,,,,,,,,,,,,,,,,,,,,,,,,,,,,,,,,,,,,,,,,,
0,4,4,29,1,,6120e45c3837db7f72f82d50,62bbfacb53b7d8aac167c6f7,2022-06-29_09h10.49.295,Colour_Asymmetry_Pilot,2022.1.3,Win32,60.04563468,62bbe60bf3d75ef465d3e404,,,,,,,,,,,,,,,,,,,,,,,,,,,,,,,,,,,,,,,,,,,,,,,,,,,,,,,,,,,,,,,,,,,,,,,,,,,,,,,,,,,,,,,,,,,,,,,,,,,,,,,,,,,,,,,,,,,,,,,,,,,,,,,,,,,,,,,,,,,,,,,,,,,,,,,,,,,,,,
0,5,5,40,1,,6120e45c3837db7f72f82d50,62bbfacb53b7d8aac167c6f7,2022-06-29_09h10.49.295,Colour_Asymmetry_Pilot,2022.1.3,Win32,60.04563468,62bbe60bf3d75ef465d3e404,,,,,,,,,,,,,,,,,,,,,,,,,,,,,,,,,,,,,,,,,,,,,,,,,,,,,,,,,,,,,,,,,,,,,,,,,,,,,,,,,,,,,,,,,,,,,,,,,,,,,,,,,,,,,,,,,,,,,,,,,,,,,,,,,,,,,,,,,,,,,,,,,,,,,,,,,,,,,,
0,6,6,13,1,,6120e45c3837db7f72f82d50,62bbfacb53b7d8aac167c6f7,2022-06-29_09h10.49.295,Colour_Asymmetry_Pilot,2022.1.3,Win32,60.04563468,62bbe60bf3d75ef465d3e404,,,,,,,,,,,,,,,,,,,,,,,,,,,,,,,,,,,,,,,,,,,,,,,,,,,,,,,,,,,,,,,,,,,,,,,,,,,,,,,,,,,,,,,,,,,,,,,,,,,,,,,,,,,,,,,,,,,,,,,,,,,,,,,,,,,,,,,,,,,,,,,,,,,,,,,,,,,,,,
0,7,7,86,1,,6120e45c3837db7f72f82d50,62bbfacb53b7d8aac167c6f7,2022-06-29_09h10.49.295,Colour_Asymmetry_Pilot,2022.1.3,Win32,60.04563468,62bbe60bf3d75ef465d3e404,,,,,,,,,,,,,,,,,,,,,,,,,,,,,,,,,,,,,,,,,,,,,,,,,,,,,,,,,,,,,,,,,,,,,,,,,,,,,,,,,,,,,,,,,,,,,,,,,,,,,,,,,,,,,,,,,,,,,,,,,,,,,,,,,,,,,,,,,,,,,,,,,,,,,,,,,,,,,,
0,8,8,33,1,,6120e45c3837db7f72f82d50,62bbfacb53b7d8aac167c6f7,2022-06-29_09h10.49.295,Colour_Asymmetry_Pilot,2022.1.3,Win32,60.04563468,62bbe60bf3d75ef465d3e404,,,,,,,,,,,,,,,,,,,,,,,,,,,,,,,,,,,,,,,,,,,,,,,,,,,,,,,,,,,,,,,,,,,,,,,,,,,,,,,,,,,,,,,,,,,,,,,,,,,,,,,,,,,,,,,,,,,,,,,,,,,,,,,,,,,,,,,,,,,,,,,,,,,,,,,,,,,,,,
0,9,9,82,1,,6120e45c3837db7f72f82d50,62bbfacb53b7d8aac167c6f7,2022-06-29_09h10.49.295,Colour_Asymmetry_Pilot,2022.1.3,Win32,60.04563468,62bbe60bf3d75ef465d3e404,,,,,,,,,,,,,,,,,,,,,,,,,,,,,,,,,,,,,,,,,,,,,,,,,,,,,,,,,,,,,,,,,,,,,,,,,,,,,,,,,,,,,,,,,,,,,,,,,,,,,,,,,,,,,,,,,,,,,,,,,,,,,,,,,,,,,,,,,,,,,,,,,,,,,,,,,,,,,,
0,10,10,0,1,,6120e45c3837db7f72f82d50,62bbfacb53b7d8aac167c6f7,2022-06-29_09h10.49.295,Colour_Asymmetry_Pilot,2022.1.3,Win32,60.04563468,62bbe60bf3d75ef465d3e404,,,,,,,,,,,,,,,,,,,,,,,,,,,,,,,,,,,,,,,,,,,,,,,,,,,,,,,,,,,,,,,,,,,,,,,,,,,,,,,,,,,,,,,,,,,,,,,,,,,,,,,,,,,,,,,,,,,,,,,,,,,,,,,,,,,,,,,,,,,,,,,,,,,,,,,,,,,,,,
0,11,11,1,1,,6120e45c3837db7f72f82d50,62bbfacb53b7d8aac167c6f7,2022-06-29_09h10.49.295,Colour_Asymmetry_Pilot,2022.1.3,Win32,60.04563468,62bbe60bf3d75ef465d3e404,,,,,,,,,,,,,,,,,,,,,,,,,,,,,,,,,,,,,,,,,,,,,,,,,,,,,,,,,,,,,,,,,,,,,,,,,,,,,,,,,,,,,,,,,,,,,,,,,,,,,,,,,,,,,,,,,,,,,,,,,,,,,,,,,,,,,,,,,,,,,,,,,,,,,,,,,,,,,,
0,12,12,53,1,,6120e45c3837db7f72f82d50,62bbfacb53b7d8aac167c6f7,2022-06-29_09h10.49.295,Colour_Asymmetry_Pilot,2022.1.3,Win32,60.04563468,62bbe60bf3d75ef465d3e404,,,,,,,,,,,,,,,,,,,,,,,,,,,,,,,,,,,,,,,,,,,,,,,,,,,,,,,,,,,,,,,,,,,,,,,,,,,,,,,,,,,,,,,,,,,,,,,,,,,,,,,,,,,,,,,,,,,,,,,,,,,,,,,,,,,,,,,,,,,,,,,,,,,,,,,,,,,,,,
0,13,13,78,1,,6120e45c3837db7f72f82d50,62bbfacb53b7d8aac167c6f7,2022-06-29_09h10.49.295,Colour_Asymmetry_Pilot,2022.1.3,Win32,60.04563468,62bbe60bf3d75ef465d3e404,,,,,,,,,,,,,,,,,,,,,,,,,,,,,,,,,,,,,,,,,,,,,,,,,,,,,,,,,,,,,,,,,,,,,,,,,,,,,,,,,,,,,,,,,,,,,,,,,,,,,,,,,,,,,,,,,,,,,,,,,,,,,,,,,,,,,,,,,,,,,,,,,,,,,,,,,,,,,,
0,14,14,45,1,,6120e45c3837db7f72f82d50,62bbfacb53b7d8aac167c6f7,2022-06-29_09h10.49.295,Colour_Asymmetry_Pilot,2022.1.3,Win32,60.04563468,62bbe60bf3d75ef465d3e404,,,,,,,,,,,,,,,,,,,,,,,,,,,,,,,,,,,,,,,,,,,,,,,,,,,,,,,,,,,,,,,,,,,,,,,,,,,,,,,,,,,,,,,,,,,,,,,,,,,,,,,,,,,,,,,,,,,,,,,,,,,,,,,,,,,,,,,,,,,,,,,,,,,,,,,,,,,,,,
0,15,15,7,1,,6120e45c3837db7f72f82d50,62bbfacb53b7d8aac167c6f7,2022-06-29_09h10.49.295,Colour_Asymmetry_Pilot,2022.1.3,Win32,60.04563468,62bbe60bf3d75ef465d3e404,,,,,,,,,,,,,,,,,,,,,,,,,,,,,,,,,,,,,,,,,,,,,,,,,,,,,,,,,,,,,,,,,,,,,,,,,,,,,,,,,,,,,,,,,,,,,,,,,,,,,,,,,,,,,,,,,,,,,,,,,,,,,,,,,,,,,,,,,,,,,,,,,,,,,,,,,,,,,,
0,16,16,19,1,,6120e45c3837db7f72f82d50,62bbfacb53b7d8aac167c6f7,2022-06-29_09h10.49.295,Colour_Asymmetry_Pilot,2022.1.3,Win32,60.04563468,62bbe60bf3d75ef465d3e404,,,,,,,,,,,,,,,,,,,,,,,,,,,,,,,,,,,,,,,,,,,,,,,,,,,,,,,,,,,,,,,,,,,,,,,,,,,,,,,,,,,,,,,,,,,,,,,,,,,,,,,,,,,,,,,,,,,,,,,,,,,,,,,,,,,,,,,,,,,,,,,,,,,,,,,,,,,,,,
0,17,17,87,1,,6120e45c3837db7f72f82d50,62bbfacb53b7d8aac167c6f7,2022-06-29_09h10.49.295,Colour_Asymmetry_Pilot,2022.1.3,Win32,60.04563468,62bbe60bf3d75ef465d3e404,,,,,,,,,,,,,,,,,,,,,,,,,,,,,,,,,,,,,,,,,,,,,,,,,,,,,,,,,,,,,,,,,,,,,,,,,,,,,,,,,,,,,,,,,,,,,,,,,,,,,,,,,,,,,,,,,,,,,,,,,,,,,,,,,,,,,,,,,,,,,,,,,,,,,,,,,,,,,,
0,18,18,38,1,,6120e45c3837db7f72f82d50,62bbfacb53b7d8aac167c6f7,2022-06-29_09h10.49.295,Colour_Asymmetry_Pilot,2022.1.3,Win32,60.04563468,62bbe60bf3d75ef465d3e404,,,,,,,,,,,,,,,,,,,,,,,,,,,,,,,,,,,,,,,,,,,,,,,,,,,,,,,,,,,,,,,,,,,,,,,,,,,,,,,,,,,,,,,,,,,,,,,,,,,,,,,,,,,,,,,,,,,,,,,,,,,,,,,,,,,,,,,,,,,,,,,,,,,,,,,,,,,,,,
0,19,19,90,1,,6120e45c3837db7f72f82d50,62bbfacb53b7d8aac167c6f7,2022-06-29_09h10.49.295,Colour_Asymmetry_Pilot,2022.1.3,Win32,60.04563468,62bbe60bf3d75ef465d3e404,,,,,,,,,,,,,,,,,,,,,,,,,,,,,,,,,,,,,,,,,,,,,,,,,,,,,,,,,,,,,,,,,,,,,,,,,,,,,,,,,,,,,,,,,,,,,,,,,,,,,,,,,,,,,,,,,,,,,,,,,,,,,,,,,,,,,,,,,,,,,,,,,,,,,,,,,,,,,,
0,20,20,84,1,,6120e45c3837db7f72f82d50,62bbfacb53b7d8aac167c6f7,2022-06-29_09h10.49.295,Colour_Asymmetry_Pilot,2022.1.3,Win32,60.04563468,62bbe60bf3d75ef465d3e404,,,,,,,,,,,,,,,,,,,,,,,,,,,,,,,,,,,,,,,,,,,,,,,,,,,,,,,,,,,,,,,,,,,,,,,,,,,,,,,,,,,,,,,,,,,,,,,,,,,,,,,,,,,,,,,,,,,,,,,,,,,,,,,,,,,,,,,,,,,,,,,,,,,,,,,,,,,,,,
0,21,21,42,1,,6120e45c3837db7f72f82d50,62bbfacb53b7d8aac167c6f7,2022-06-29_09h10.49.295,Colour_Asymmetry_Pilot,2022.1.3,Win32,60.04563468,62bbe60bf3d75ef465d3e404,,,,,,,,,,,,,,,,,,,,,,,,,,,,,,,,,,,,,,,,,,,,,,,,,,,,,,,,,,,,,,,,,,,,,,,,,,,,,,,,,,,,,,,,,,,,,,,,,,,,,,,,,,,,,,,,,,,,,,,,,,,,,,,,,,,,,,,,,,,,,,,,,,,,,,,,,,,,,,
0,22,22,44,1,,6120e45c3837db7f72f82d50,62bbfacb53b7d8aac167c6f7,2022-06-29_09h10.49.295,Colour_Asymmetry_Pilot,2022.1.3,Win32,60.04563468,62bbe60bf3d75ef465d3e404,,,,,,,,,,,,,,,,,,,,,,,,,,,,,,,,,,,,,,,,,,,,,,,,,,,,,,,,,,,,,,,,,,,,,,,,,,,,,,,,,,,,,,,,,,,,,,,,,,,,,,,,,,,,,,,,,,,,,,,,,,,,,,,,,,,,,,,,,,,,,,,,,,,,,,,,,,,,,,
0,23,23,46,1,,6120e45c3837db7f72f82d50,62bbfacb53b7d8aac167c6f7,2022-06-29_09h10.49.295,Colour_Asymmetry_Pilot,2022.1.3,Win32,60.04563468,62bbe60bf3d75ef465d3e404,,,,,,,,,,,,,,,,,,,,,,,,,,,,,,,,,,,,,,,,,,,,,,,,,,,,,,,,,,,,,,,,,,,,,,,,,,,,,,,,,,,,,,,,,,,,,,,,,,,,,,,,,,,,,,,,,,,,,,,,,,,,,,,,,,,,,,,,,,,,,,,,,,,,,,,,,,,,,,
0,24,24,48,1,,6120e45c3837db7f72f82d50,62bbfacb53b7d8aac167c6f7,2022-06-29_09h10.49.295,Colour_Asymmetry_Pilot,2022.1.3,Win32,60.04563468,62bbe60bf3d75ef465d3e404,,,,,,,,,,,,,,,,,,,,,,,,,,,,,,,,,,,,,,,,,,,,,,,,,,,,,,,,,,,,,,,,,,,,,,,,,,,,,,,,,,,,,,,,,,,,,,,,,,,,,,,,,,,,,,,,,,,,,,,,,,,,,,,,,,,,,,,,,,,,,,,,,,,,,,,,,,,,,,
0,25,25,92,1,,6120e45c3837db7f72f82d50,62bbfacb53b7d8aac167c6f7,2022-06-29_09h10.49.295,Colour_Asymmetry_Pilot,2022.1.3,Win32,60.04563468,62bbe60bf3d75ef465d3e404,,,,,,,,,,,,,,,,,,,,,,,,,,,,,,,,,,,,,,,,,,,,,,,,,,,,,,,,,,,,,,,,,,,,,,,,,,,,,,,,,,,,,,,,,,,,,,,,,,,,,,,,,,,,,,,,,,,,,,,,,,,,,,,,,,,,,,,,,,,,,,,,,,,,,,,,,,,,,,
0,26,26,65,1,,6120e45c3837db7f72f82d50,62bbfacb53b7d8aac167c6f7,2022-06-29_09h10.49.295,Colour_Asymmetry_Pilot,2022.1.3,Win32,60.04563468,62bbe60bf3d75ef465d3e404,,,,,,,,,,,,,,,,,,,,,,,,,,,,,,,,,,,,,,,,,,,,,,,,,,,,,,,,,,,,,,,,,,,,,,,,,,,,,,,,,,,,,,,,,,,,,,,,,,,,,,,,,,,,,,,,,,,,,,,,,,,,,,,,,,,,,,,,,,,,,,,,,,,,,,,,,,,,,,
0,27,27,52,1,,6120e45c3837db7f72f82d50,62bbfacb53b7d8aac167c6f7,2022-06-29_09h10.49.295,Colour_Asymmetry_Pilot,2022.1.3,Win32,60.04563468,62bbe60bf3d75ef465d3e404,,,,,,,,,,,,,,,,,,,,,,,,,,,,,,,,,,,,,,,,,,,,,,,,,,,,,,,,,,,,,,,,,,,,,,,,,,,,,,,,,,,,,,,,,,,,,,,,,,,,,,,,,,,,,,,,,,,,,,,,,,,,,,,,,,,,,,,,,,,,,,,,,,,,,,,,,,,,,,
0,28,28,35,1,,6120e45c3837db7f72f82d50,62bbfacb53b7d8aac167c6f7,2022-06-29_09h10.49.295,Colour_Asymmetry_Pilot,2022.1.3,Win32,60.04563468,62bbe60bf3d75ef465d3e404,,,,,,,,,,,,,,,,,,,,,,,,,,,,,,,,,,,,,,,,,,,,,,,,,,,,,,,,,,,,,,,,,,,,,,,,,,,,,,,,,,,,,,,,,,,,,,,,,,,,,,,,,,,,,,,,,,,,,,,,,,,,,,,,,,,,,,,,,,,,,,,,,,,,,,,,,,,,,,
0,29,29,62,1,,6120e45c3837db7f72f82d50,62bbfacb53b7d8aac167c6f7,2022-06-29_09h10.49.295,Colour_Asymmetry_Pilot,2022.1.3,Win32,60.04563468,62bbe60bf3d75ef465d3e404,,,,,,,,,,,,,,,,,,,,,,,,,,,,,,,,,,,,,,,,,,,,,,,,,,,,,,,,,,,,,,,,,,,,,,,,,,,,,,,,,,,,,,,,,,,,,,,,,,,,,,,,,,,,,,,,,,,,,,,,,,,,,,,,,,,,,,,,,,,,,,,,,,,,,,,,,,,,,,
0,30,30,18,1,,6120e45c3837db7f72f82d50,62bbfacb53b7d8aac167c6f7,2022-06-29_09h10.49.295,Colour_Asymmetry_Pilot,2022.1.3,Win32,60.04563468,62bbe60bf3d75ef465d3e404,,,,,,,,,,,,,,,,,,,,,,,,,,,,,,,,,,,,,,,,,,,,,,,,,,,,,,,,,,,,,,,,,,,,,,,,,,,,,,,,,,,,,,,,,,,,,,,,,,,,,,,,,,,,,,,,,,,,,,,,,,,,,,,,,,,,,,,,,,,,,,,,,,,,,,,,,,,,,,
0,31,31,61,1,,6120e45c3837db7f72f82d50,62bbfacb53b7d8aac167c6f7,2022-06-29_09h10.49.295,Colour_Asymmetry_Pilot,2022.1.3,Win32,60.04563468,62bbe60bf3d75ef465d3e404,,,,,,,,,,,,,,,,,,,,,,,,,,,,,,,,,,,,,,,,,,,,,,,,,,,,,,,,,,,,,,,,,,,,,,,,,,,,,,,,,,,,,,,,,,,,,,,,,,,,,,,,,,,,,,,,,,,,,,,,,,,,,,,,,,,,,,,,,,,,,,,,,,,,,,,,,,,,,,
0,32,32,12,1,,6120e45c3837db7f72f82d50,62bbfacb53b7d8aac167c6f7,2022-06-29_09h10.49.295,Colour_Asymmetry_Pilot,2022.1.3,Win32,60.04563468,62bbe60bf3d75ef465d3e404,,,,,,,,,,,,,,,,,,,,,,,,,,,,,,,,,,,,,,,,,,,,,,,,,,,,,,,,,,,,,,,,,,,,,,,,,,,,,,,,,,,,,,,,,,,,,,,,,,,,,,,,,,,,,,,,,,,,,,,,,,,,,,,,,,,,,,,,,,,,,,,,,,,,,,,,,,,,,,
0,33,33,51,1,,6120e45c3837db7f72f82d50,62bbfacb53b7d8aac167c6f7,2022-06-29_09h10.49.295,Colour_Asymmetry_Pilot,2022.1.3,Win32,60.04563468,62bbe60bf3d75ef465d3e404,,,,,,,,,,,,,,,,,,,,,,,,,,,,,,,,,,,,,,,,,,,,,,,,,,,,,,,,,,,,,,,,,,,,,,,,,,,,,,,,,,,,,,,,,,,,,,,,,,,,,,,,,,,,,,,,,,,,,,,,,,,,,,,,,,,,,,,,,,,,,,,,,,,,,,,,,,,,,,
0,34,34,55,1,,6120e45c3837db7f72f82d50,62bbfacb53b7d8aac167c6f7,2022-06-29_09h10.49.295,Colour_Asymmetry_Pilot,2022.1.3,Win32,60.04563468,62bbe60bf3d75ef465d3e404,,,,,,,,,,,,,,,,,,,,,,,,,,,,,,,,,,,,,,,,,,,,,,,,,,,,,,,,,,,,,,,,,,,,,,,,,,,,,,,,,,,,,,,,,,,,,,,,,,,,,,,,,,,,,,,,,,,,,,,,,,,,,,,,,,,,,,,,,,,,,,,,,,,,,,,,,,,,,,
0,35,35,83,1,,6120e45c3837db7f72f82d50,62bbfacb53b7d8aac167c6f7,2022-06-29_09h10.49.295,Colour_Asymmetry_Pilot,2022.1.3,Win32,60.04563468,62bbe60bf3d75ef465d3e404,,,,,,,,,,,,,,,,,,,,,,,,,,,,,,,,,,,,,,,,,,,,,,,,,,,,,,,,,,,,,,,,,,,,,,,,,,,,,,,,,,,,,,,,,,,,,,,,,,,,,,,,,,,,,,,,,,,,,,,,,,,,,,,,,,,,,,,,,,,,,,,,,,,,,,,,,,,,,,
0,36,36,6,1,,6120e45c3837db7f72f82d50,62bbfacb53b7d8aac167c6f7,2022-06-29_09h10.49.295,Colour_Asymmetry_Pilot,2022.1.3,Win32,60.04563468,62bbe60bf3d75ef465d3e404,,,,,,,,,,,,,,,,,,,,,,,,,,,,,,,,,,,,,,,,,,,,,,,,,,,,,,,,,,,,,,,,,,,,,,,,,,,,,,,,,,,,,,,,,,,,,,,,,,,,,,,,,,,,,,,,,,,,,,,,,,,,,,,,,,,,,,,,,,,,,,,,,,,,,,,,,,,,,,
0,37,37,75,1,,6120e45c3837db7f72f82d50,62bbfacb53b7d8aac167c6f7,2022-06-29_09h10.49.295,Colour_Asymmetry_Pilot,2022.1.3,Win32,60.04563468,62bbe60bf3d75ef465d3e404,,,,,,,,,,,,,,,,,,,,,,,,,,,,,,,,,,,,,,,,,,,,,,,,,,,,,,,,,,,,,,,,,,,,,,,,,,,,,,,,,,,,,,,,,,,,,,,,,,,,,,,,,,,,,,,,,,,,,,,,,,,,,,,,,,,,,,,,,,,,,,,,,,,,,,,,,,,,,,
0,38,38,49,1,,6120e45c3837db7f72f82d50,62bbfacb53b7d8aac167c6f7,2022-06-29_09h10.49.295,Colour_Asymmetry_Pilot,2022.1.3,Win32,60.04563468,62bbe60bf3d75ef465d3e404,,,,,,,,,,,,,,,,,,,,,,,,,,,,,,,,,,,,,,,,,,,,,,,,,,,,,,,,,,,,,,,,,,,,,,,,,,,,,,,,,,,,,,,,,,,,,,,,,,,,,,,,,,,,,,,,,,,,,,,,,,,,,,,,,,,,,,,,,,,,,,,,,,,,,,,,,,,,,,
0,39,39,26,1,,6120e45c3837db7f72f82d50,62bbfacb53b7d8aac167c6f7,2022-06-29_09h10.49.295,Colour_Asymmetry_Pilot,2022.1.3,Win32,60.04563468,62bbe60bf3d75ef465d3e404,,,,,,,,,,,,,,,,,,,,,,,,,,,,,,,,,,,,,,,,,,,,,,,,,,,,,,,,,,,,,,,,,,,,,,,,,,,,,,,,,,,,,,,,,,,,,,,,,,,,,,,,,,,,,,,,,,,,,,,,,,,,,,,,,,,,,,,,,,,,,,,,,,,,,,,,,,,,,,
0,40,40,34,1,,6120e45c3837db7f72f82d50,62bbfacb53b7d8aac167c6f7,2022-06-29_09h10.49.295,Colour_Asymmetry_Pilot,2022.1.3,Win32,60.04563468,62bbe60bf3d75ef465d3e404,,,,,,,,,,,,,,,,,,,,,,,,,,,,,,,,,,,,,,,,,,,,,,,,,,,,,,,,,,,,,,,,,,,,,,,,,,,,,,,,,,,,,,,,,,,,,,,,,,,,,,,,,,,,,,,,,,,,,,,,,,,,,,,,,,,,,,,,,,,,,,,,,,,,,,,,,,,,,,
0,41,41,89,1,,6120e45c3837db7f72f82d50,62bbfacb53b7d8aac167c6f7,2022-06-29_09h10.49.295,Colour_Asymmetry_Pilot,2022.1.3,Win32,60.04563468,62bbe60bf3d75ef465d3e404,,,,,,,,,,,,,,,,,,,,,,,,,,,,,,,,,,,,,,,,,,,,,,,,,,,,,,,,,,,,,,,,,,,,,,,,,,,,,,,,,,,,,,,,,,,,,,,,,,,,,,,,,,,,,,,,,,,,,,,,,,,,,,,,,,,,,,,,,,,,,,,,,,,,,,,,,,,,,,
0,42,42,66,1,,6120e45c3837db7f72f82d50,62bbfacb53b7d8aac167c6f7,2022-06-29_09h10.49.295,Colour_Asymmetry_Pilot,2022.1.3,Win32,60.04563468,62bbe60bf3d75ef465d3e404,,,,,,,,,,,,,,,,,,,,,,,,,,,,,,,,,,,,,,,,,,,,,,,,,,,,,,,,,,,,,,,,,,,,,,,,,,,,,,,,,,,,,,,,,,,,,,,,,,,,,,,,,,,,,,,,,,,,,,,,,,,,,,,,,,,,,,,,,,,,,,,,,,,,,,,,,,,,,,
0,43,43,63,1,,6120e45c3837db7f72f82d50,62bbfacb53b7d8aac167c6f7,2022-06-29_09h10.49.295,Colour_Asymmetry_Pilot,2022.1.3,Win32,60.04563468,62bbe60bf3d75ef465d3e404,,,,,,,,,,,,,,,,,,,,,,,,,,,,,,,,,,,,,,,,,,,,,,,,,,,,,,,,,,,,,,,,,,,,,,,,,,,,,,,,,,,,,,,,,,,,,,,,,,,,,,,,,,,,,,,,,,,,,,,,,,,,,,,,,,,,,,,,,,,,,,,,,,,,,,,,,,,,,,
0,44,44,2,1,,6120e45c3837db7f72f82d50,62bbfacb53b7d8aac167c6f7,2022-06-29_09h10.49.295,Colour_Asymmetry_Pilot,2022.1.3,Win32,60.04563468,62bbe60bf3d75ef465d3e404,,,,,,,,,,,,,,,,,,,,,,,,,,,,,,,,,,,,,,,,,,,,,,,,,,,,,,,,,,,,,,,,,,,,,,,,,,,,,,,,,,,,,,,,,,,,,,,,,,,,,,,,,,,,,,,,,,,,,,,,,,,,,,,,,,,,,,,,,,,,,,,,,,,,,,,,,,,,,,
0,45,45,37,1,,6120e45c3837db7f72f82d50,62bbfacb53b7d8aac167c6f7,2022-06-29_09h10.49.295,Colour_Asymmetry_Pilot,2022.1.3,Win32,60.04563468,62bbe60bf3d75ef465d3e404,,,,,,,,,,,,,,,,,,,,,,,,,,,,,,,,,,,,,,,,,,,,,,,,,,,,,,,,,,,,,,,,,,,,,,,,,,,,,,,,,,,,,,,,,,,,,,,,,,,,,,,,,,,,,,,,,,,,,,,,,,,,,,,,,,,,,,,,,,,,,,,,,,,,,,,,,,,,,,
0,46,46,71,1,,6120e45c3837db7f72f82d50,62bbfacb53b7d8aac167c6f7,2022-06-29_09h10.49.295,Colour_Asymmetry_Pilot,2022.1.3,Win32,60.04563468,62bbe60bf3d75ef465d3e404,,,,,,,,,,,,,,,,,,,,,,,,,,,,,,,,,,,,,,,,,,,,,,,,,,,,,,,,,,,,,,,,,,,,,,,,,,,,,,,,,,,,,,,,,,,,,,,,,,,,,,,,,,,,,,,,,,,,,,,,,,,,,,,,,,,,,,,,,,,,,,,,,,,,,,,,,,,,,,
0,47,47,31,1,,6120e45c3837db7f72f82d50,62bbfacb53b7d8aac167c6f7,2022-06-29_09h10.49.295,Colour_Asymmetry_Pilot,2022.1.3,Win32,60.04563468,62bbe60bf3d75ef465d3e404,,,,,,,,,,,,,,,,,,,,,,,,,,,,,,,,,,,,,,,,,,,,,,,,,,,,,,,,,,,,,,,,,,,,,,,,,,,,,,,,,,,,,,,,,,,,,,,,,,,,,,,,,,,,,,,,,,,,,,,,,,,,,,,,,,,,,,,,,,,,,,,,,,,,,,,,,,,,,,
0,48,48,36,1,,6120e45c3837db7f72f82d50,62bbfacb53b7d8aac167c6f7,2022-06-29_09h10.49.295,Colour_Asymmetry_Pilot,2022.1.3,Win32,60.04563468,62bbe60bf3d75ef465d3e404,,,,,,,,,,,,,,,,,,,,,,,,,,,,,,,,,,,,,,,,,,,,,,,,,,,,,,,,,,,,,,,,,,,,,,,,,,,,,,,,,,,,,,,,,,,,,,,,,,,,,,,,,,,,,,,,,,,,,,,,,,,,,,,,,,,,,,,,,,,,,,,,,,,,,,,,,,,,,,
0,49,49,11,1,,6120e45c3837db7f72f82d50,62bbfacb53b7d8aac167c6f7,2022-06-29_09h10.49.295,Colour_Asymmetry_Pilot,2022.1.3,Win32,60.04563468,62bbe60bf3d75ef465d3e404,,,,,,,,,,,,,,,,,,,,,,,,,,,,,,,,,,,,,,,,,,,,,,,,,,,,,,,,,,,,,,,,,,,,,,,,,,,,,,,,,,,,,,,,,,,,,,,,,,,,,,,,,,,,,,,,,,,,,,,,,,,,,,,,,,,,,,,,,,,,,,,,,,,,,,,,,,,,,,
0,50,50,47,1,,6120e45c3837db7f72f82d50,62bbfacb53b7d8aac167c6f7,2022-06-29_09h10.49.295,Colour_Asymmetry_Pilot,2022.1.3,Win32,60.04563468,62bbe60bf3d75ef465d3e404,,,,,,,,,,,,,,,,,,,,,,,,,,,,,,,,,,,,,,,,,,,,,,,,,,,,,,,,,,,,,,,,,,,,,,,,,,,,,,,,,,,,,,,,,,,,,,,,,,,,,,,,,,,,,,,,,,,,,,,,,,,,,,,,,,,,,,,,,,,,,,,,,,,,,,,,,,,,,,
0,51,51,27,1,,6120e45c3837db7f72f82d50,62bbfacb53b7d8aac167c6f7,2022-06-29_09h10.49.295,Colour_Asymmetry_Pilot,2022.1.3,Win32,60.04563468,62bbe60bf3d75ef465d3e404,,,,,,,,,,,,,,,,,,,,,,,,,,,,,,,,,,,,,,,,,,,,,,,,,,,,,,,,,,,,,,,,,,,,,,,,,,,,,,,,,,,,,,,,,,,,,,,,,,,,,,,,,,,,,,,,,,,,,,,,,,,,,,,,,,,,,,,,,,,,,,,,,,,,,,,,,,,,,,
0,52,52,21,1,,6120e45c3837db7f72f82d50,62bbfacb53b7d8aac167c6f7,2022-06-29_09h10.49.295,Colour_Asymmetry_Pilot,2022.1.3,Win32,60.04563468,62bbe60bf3d75ef465d3e404,,,,,,,,,,,,,,,,,,,,,,,,,,,,,,,,,,,,,,,,,,,,,,,,,,,,,,,,,,,,,,,,,,,,,,,,,,,,,,,,,,,,,,,,,,,,,,,,,,,,,,,,,,,,,,,,,,,,,,,,,,,,,,,,,,,,,,,,,,,,,,,,,,,,,,,,,,,,,,
0,53,53,88,1,,6120e45c3837db7f72f82d50,62bbfacb53b7d8aac167c6f7,2022-06-29_09h10.49.295,Colour_Asymmetry_Pilot,2022.1.3,Win32,60.04563468,62bbe60bf3d75ef465d3e404,,,,,,,,,,,,,,,,,,,,,,,,,,,,,,,,,,,,,,,,,,,,,,,,,,,,,,,,,,,,,,,,,,,,,,,,,,,,,,,,,,,,,,,,,,,,,,,,,,,,,,,,,,,,,,,,,,,,,,,,,,,,,,,,,,,,,,,,,,,,,,,,,,,,,,,,,,,,,,
0,54,54,74,1,,6120e45c3837db7f72f82d50,62bbfacb53b7d8aac167c6f7,2022-06-29_09h10.49.295,Colour_Asymmetry_Pilot,2022.1.3,Win32,60.04563468,62bbe60bf3d75ef465d3e404,,,,,,,,,,,,,,,,,,,,,,,,,,,,,,,,,,,,,,,,,,,,,,,,,,,,,,,,,,,,,,,,,,,,,,,,,,,,,,,,,,,,,,,,,,,,,,,,,,,,,,,,,,,,,,,,,,,,,,,,,,,,,,,,,,,,,,,,,,,,,,,,,,,,,,,,,,,,,,
0,55,55,76,1,,6120e45c3837db7f72f82d50,62bbfacb53b7d8aac167c6f7,2022-06-29_09h10.49.295,Colour_Asymmetry_Pilot,2022.1.3,Win32,60.04563468,62bbe60bf3d75ef465d3e404,,,,,,,,,,,,,,,,,,,,,,,,,,,,,,,,,,,,,,,,,,,,,,,,,,,,,,,,,,,,,,,,,,,,,,,,,,,,,,,,,,,,,,,,,,,,,,,,,,,,,,,,,,,,,,,,,,,,,,,,,,,,,,,,,,,,,,,,,,,,,,,,,,,,,,,,,,,,,,
0,56,56,41,1,,6120e45c3837db7f72f82d50,62bbfacb53b7d8aac167c6f7,2022-06-29_09h10.49.295,Colour_Asymmetry_Pilot,2022.1.3,Win32,60.04563468,62bbe60bf3d75ef465d3e404,,,,,,,,,,,,,,,,,,,,,,,,,,,,,,,,,,,,,,,,,,,,,,,,,,,,,,,,,,,,,,,,,,,,,,,,,,,,,,,,,,,,,,,,,,,,,,,,,,,,,,,,,,,,,,,,,,,,,,,,,,,,,,,,,,,,,,,,,,,,,,,,,,,,,,,,,,,,,,
0,57,57,50,1,,6120e45c3837db7f72f82d50,62bbfacb53b7d8aac167c6f7,2022-06-29_09h10.49.295,Colour_Asymmetry_Pilot,2022.1.3,Win32,60.04563468,62bbe60bf3d75ef465d3e404,,,,,,,,,,,,,,,,,,,,,,,,,,,,,,,,,,,,,,,,,,,,,,,,,,,,,,,,,,,,,,,,,,,,,,,,,,,,,,,,,,,,,,,,,,,,,,,,,,,,,,,,,,,,,,,,,,,,,,,,,,,,,,,,,,,,,,,,,,,,,,,,,,,,,,,,,,,,,,
0,58,58,79,1,,6120e45c3837db7f72f82d50,62bbfacb53b7d8aac167c6f7,2022-06-29_09h10.49.295,Colour_Asymmetry_Pilot,2022.1.3,Win32,60.04563468,62bbe60bf3d75ef465d3e404,,,,,,,,,,,,,,,,,,,,,,,,,,,,,,,,,,,,,,,,,,,,,,,,,,,,,,,,,,,,,,,,,,,,,,,,,,,,,,,,,,,,,,,,,,,,,,,,,,,,,,,,,,,,,,,,,,,,,,,,,,,,,,,,,,,,,,,,,,,,,,,,,,,,,,,,,,,,,,
0,59,59,17,1,,6120e45c3837db7f72f82d50,62bbfacb53b7d8aac167c6f7,2022-06-29_09h10.49.295,Colour_Asymmetry_Pilot,2022.1.3,Win32,60.04563468,62bbe60bf3d75ef465d3e404,,,,,,,,,,,,,,,,,,,,,,,,,,,,,,,,,,,,,,,,,,,,,,,,,,,,,,,,,,,,,,,,,,,,,,,,,,,,,,,,,,,,,,,,,,,,,,,,,,,,,,,,,,,,,,,,,,,,,,,,,,,,,,,,,,,,,,,,,,,,,,,,,,,,,,,,,,,,,,
0,60,60,10,1,,6120e45c3837db7f72f82d50,62bbfacb53b7d8aac167c6f7,2022-06-29_09h10.49.295,Colour_Asymmetry_Pilot,2022.1.3,Win32,60.04563468,62bbe60bf3d75ef465d3e404,,,,,,,,,,,,,,,,,,,,,,,,,,,,,,,,,,,,,,,,,,,,,,,,,,,,,,,,,,,,,,,,,,,,,,,,,,,,,,,,,,,,,,,,,,,,,,,,,,,,,,,,,,,,,,,,,,,,,,,,,,,,,,,,,,,,,,,,,,,,,,,,,,,,,,,,,,,,,,
0,61,61,85,1,,6120e45c3837db7f72f82d50,62bbfacb53b7d8aac167c6f7,2022-06-29_09h10.49.295,Colour_Asymmetry_Pilot,2022.1.3,Win32,60.04563468,62bbe60bf3d75ef465d3e404,,,,,,,,,,,,,,,,,,,,,,,,,,,,,,,,,,,,,,,,,,,,,,,,,,,,,,,,,,,,,,,,,,,,,,,,,,,,,,,,,,,,,,,,,,,,,,,,,,,,,,,,,,,,,,,,,,,,,,,,,,,,,,,,,,,,,,,,,,,,,,,,,,,,,,,,,,,,,,
0,62,62,14,1,,6120e45c3837db7f72f82d50,62bbfacb53b7d8aac167c6f7,2022-06-29_09h10.49.295,Colour_Asymmetry_Pilot,2022.1.3,Win32,60.04563468,62bbe60bf3d75ef465d3e404,,,,,,,,,,,,,,,,,,,,,,,,,,,,,,,,,,,,,,,,,,,,,,,,,,,,,,,,,,,,,,,,,,,,,,,,,,,,,,,,,,,,,,,,,,,,,,,,,,,,,,,,,,,,,,,,,,,,,,,,,,,,,,,,,,,,,,,,,,,,,,,,,,,,,,,,,,,,,,
0,63,63,77,1,,6120e45c3837db7f72f82d50,62bbfacb53b7d8aac167c6f7,2022-06-29_09h10.49.295,Colour_Asymmetry_Pilot,2022.1.3,Win32,60.04563468,62bbe60bf3d75ef465d3e404,,,,,,,,,,,,,,,,,,,,,,,,,,,,,,,,,,,,,,,,,,,,,,,,,,,,,,,,,,,,,,,,,,,,,,,,,,,,,,,,,,,,,,,,,,,,,,,,,,,,,,,,,,,,,,,,,,,,,,,,,,,,,,,,,,,,,,,,,,,,,,,,,,,,,,,,,,,,,,
0,64,64,58,1,,6120e45c3837db7f72f82d50,62bbfacb53b7d8aac167c6f7,2022-06-29_09h10.49.295,Colour_Asymmetry_Pilot,2022.1.3,Win32,60.04563468,62bbe60bf3d75ef465d3e404,,,,,,,,,,,,,,,,,,,,,,,,,,,,,,,,,,,,,,,,,,,,,,,,,,,,,,,,,,,,,,,,,,,,,,,,,,,,,,,,,,,,,,,,,,,,,,,,,,,,,,,,,,,,,,,,,,,,,,,,,,,,,,,,,,,,,,,,,,,,,,,,,,,,,,,,,,,,,,
0,65,65,39,1,,6120e45c3837db7f72f82d50,62bbfacb53b7d8aac167c6f7,2022-06-29_09h10.49.295,Colour_Asymmetry_Pilot,2022.1.3,Win32,60.04563468,62bbe60bf3d75ef465d3e404,,,,,,,,,,,,,,,,,,,,,,,,,,,,,,,,,,,,,,,,,,,,,,,,,,,,,,,,,,,,,,,,,,,,,,,,,,,,,,,,,,,,,,,,,,,,,,,,,,,,,,,,,,,,,,,,,,,,,,,,,,,,,,,,,,,,,,,,,,,,,,,,,,,,,,,,,,,,,,
0,66,66,8,1,,6120e45c3837db7f72f82d50,62bbfacb53b7d8aac167c6f7,2022-06-29_09h10.49.295,Colour_Asymmetry_Pilot,2022.1.3,Win32,60.04563468,62bbe60bf3d75ef465d3e404,,,,,,,,,,,,,,,,,,,,,,,,,,,,,,,,,,,,,,,,,,,,,,,,,,,,,,,,,,,,,,,,,,,,,,,,,,,,,,,,,,,,,,,,,,,,,,,,,,,,,,,,,,,,,,,,,,,,,,,,,,,,,,,,,,,,,,,,,,,,,,,,,,,,,,,,,,,,,,
0,67,67,59,1,,6120e45c3837db7f72f82d50,62bbfacb53b7d8aac167c6f7,2022-06-29_09h10.49.295,Colour_Asymmetry_Pilot,2022.1.3,Win32,60.04563468,62bbe60bf3d75ef465d3e404,,,,,,,,,,,,,,,,,,,,,,,,,,,,,,,,,,,,,,,,,,,,,,,,,,,,,,,,,,,,,,,,,,,,,,,,,,,,,,,,,,,,,,,,,,,,,,,,,,,,,,,,,,,,,,,,,,,,,,,,,,,,,,,,,,,,,,,,,,,,,,,,,,,,,,,,,,,,,,
0,68,68,25,1,,6120e45c3837db7f72f82d50,62bbfacb53b7d8aac167c6f7,2022-06-29_09h10.49.295,Colour_Asymmetry_Pilot,2022.1.3,Win32,60.04563468,62bbe60bf3d75ef465d3e404,,,,,,,,,,,,,,,,,,,,,,,,,,,,,,,,,,,,,,,,,,,,,,,,,,,,,,,,,,,,,,,,,,,,,,,,,,,,,,,,,,,,,,,,,,,,,,,,,,,,,,,,,,,,,,,,,,,,,,,,,,,,,,,,,,,,,,,,,,,,,,,,,,,,,,,,,,,,,,
0,69,69,54,1,,6120e45c3837db7f72f82d50,62bbfacb53b7d8aac167c6f7,2022-06-29_09h10.49.295,Colour_Asymmetry_Pilot,2022.1.3,Win32,60.04563468,62bbe60bf3d75ef465d3e404,,,,,,,,,,,,,,,,,,,,,,,,,,,,,,,,,,,,,,,,,,,,,,,,,,,,,,,,,,,,,,,,,,,,,,,,,,,,,,,,,,,,,,,,,,,,,,,,,,,,,,,,,,,,,,,,,,,,,,,,,,,,,,,,,,,,,,,,,,,,,,,,,,,,,,,,,,,,,,
0,70,70,9,1,,6120e45c3837db7f72f82d50,62bbfacb53b7d8aac167c6f7,2022-06-29_09h10.49.295,Colour_Asymmetry_Pilot,2022.1.3,Win32,60.04563468,62bbe60bf3d75ef465d3e404,,,,,,,,,,,,,,,,,,,,,,,,,,,,,,,,,,,,,,,,,,,,,,,,,,,,,,,,,,,,,,,,,,,,,,,,,,,,,,,,,,,,,,,,,,,,,,,,,,,,,,,,,,,,,,,,,,,,,,,,,,,,,,,,,,,,,,,,,,,,,,,,,,,,,,,,,,,,,,
0,71,71,24,1,,6120e45c3837db7f72f82d50,62bbfacb53b7d8aac167c6f7,2022-06-29_09h10.49.295,Colour_Asymmetry_Pilot,2022.1.3,Win32,60.04563468,62bbe60bf3d75ef465d3e404,,,,,,,,,,,,,,,,,,,,,,,,,,,,,,,,,,,,,,,,,,,,,,,,,,,,,,,,,,,,,,,,,,,,,,,,,,,,,,,,,,,,,,,,,,,,,,,,,,,,,,,,,,,,,,,,,,,,,,,,,,,,,,,,,,,,,,,,,,,,,,,,,,,,,,,,,,,,,,
0,72,72,60,1,,6120e45c3837db7f72f82d50,62bbfacb53b7d8aac167c6f7,2022-06-29_09h10.49.295,Colour_Asymmetry_Pilot,2022.1.3,Win32,60.04563468,62bbe60bf3d75ef465d3e404,,,,,,,,,,,,,,,,,,,,,,,,,,,,,,,,,,,,,,,,,,,,,,,,,,,,,,,,,,,,,,,,,,,,,,,,,,,,,,,,,,,,,,,,,,,,,,,,,,,,,,,,,,,,,,,,,,,,,,,,,,,,,,,,,,,,,,,,,,,,,,,,,,,,,,,,,,,,,,
0,73,73,69,1,,6120e45c3837db7f72f82d50,62bbfacb53b7d8aac167c6f7,2022-06-29_09h10.49.295,Colour_Asymmetry_Pilot,2022.1.3,Win32,60.04563468,62bbe60bf3d75ef465d3e404,,,,,,,,,,,,,,,,,,,,,,,,,,,,,,,,,,,,,,,,,,,,,,,,,,,,,,,,,,,,,,,,,,,,,,,,,,,,,,,,,,,,,,,,,,,,,,,,,,,,,,,,,,,,,,,,,,,,,,,,,,,,,,,,,,,,,,,,,,,,,,,,,,,,,,,,,,,,,,
0,74,74,30,1,,6120e45c3837db7f72f82d50,62bbfacb53b7d8aac167c6f7,2022-06-29_09h10.49.295,Colour_Asymmetry_Pilot,2022.1.3,Win32,60.04563468,62bbe60bf3d75ef465d3e404,,,,,,,,,,,,,,,,,,,,,,,,,,,,,,,,,,,,,,,,,,,,,,,,,,,,,,,,,,,,,,,,,,,,,,,,,,,,,,,,,,,,,,,,,,,,,,,,,,,,,,,,,,,,,,,,,,,,,,,,,,,,,,,,,,,,,,,,,,,,,,,,,,,,,,,,,,,,,,
0,75,75,64,1,,6120e45c3837db7f72f82d50,62bbfacb53b7d8aac167c6f7,2022-06-29_09h10.49.295,Colour_Asymmetry_Pilot,2022.1.3,Win32,60.04563468,62bbe60bf3d75ef465d3e404,,,,,,,,,,,,,,,,,,,,,,,,,,,,,,,,,,,,,,,,,,,,,,,,,,,,,,,,,,,,,,,,,,,,,,,,,,,,,,,,,,,,,,,,,,,,,,,,,,,,,,,,,,,,,,,,,,,,,,,,,,,,,,,,,,,,,,,,,,,,,,,,,,,,,,,,,,,,,,
0,76,76,72,1,,6120e45c3837db7f72f82d50,62bbfacb53b7d8aac167c6f7,2022-06-29_09h10.49.295,Colour_Asymmetry_Pilot,2022.1.3,Win32,60.04563468,62bbe60bf3d75ef465d3e404,,,,,,,,,,,,,,,,,,,,,,,,,,,,,,,,,,,,,,,,,,,,,,,,,,,,,,,,,,,,,,,,,,,,,,,,,,,,,,,,,,,,,,,,,,,,,,,,,,,,,,,,,,,,,,,,,,,,,,,,,,,,,,,,,,,,,,,,,,,,,,,,,,,,,,,,,,,,,,
0,77,77,23,1,,6120e45c3837db7f72f82d50,62bbfacb53b7d8aac167c6f7,2022-06-29_09h10.49.295,Colour_Asymmetry_Pilot,2022.1.3,Win32,60.04563468,62bbe60bf3d75ef465d3e404,,,,,,,,,,,,,,,,,,,,,,,,,,,,,,,,,,,,,,,,,,,,,,,,,,,,,,,,,,,,,,,,,,,,,,,,,,,,,,,,,,,,,,,,,,,,,,,,,,,,,,,,,,,,,,,,,,,,,,,,,,,,,,,,,,,,,,,,,,,,,,,,,,,,,,,,,,,,,,
0,78,78,15,1,,6120e45c3837db7f72f82d50,62bbfacb53b7d8aac167c6f7,2022-06-29_09h10.49.295,Colour_Asymmetry_Pilot,2022.1.3,Win32,60.04563468,62bbe60bf3d75ef465d3e404,,,,,,,,,,,,,,,,,,,,,,,,,,,,,,,,,,,,,,,,,,,,,,,,,,,,,,,,,,,,,,,,,,,,,,,,,,,,,,,,,,,,,,,,,,,,,,,,,,,,,,,,,,,,,,,,,,,,,,,,,,,,,,,,,,,,,,,,,,,,,,,,,,,,,,,,,,,,,,
0,79,79,20,1,,6120e45c3837db7f72f82d50,62bbfacb53b7d8aac167c6f7,2022-06-29_09h10.49.295,Colour_Asymmetry_Pilot,2022.1.3,Win32,60.04563468,62bbe60bf3d75ef465d3e404,,,,,,,,,,,,,,,,,,,,,,,,,,,,,,,,,,,,,,,,,,,,,,,,,,,,,,,,,,,,,,,,,,,,,,,,,,,,,,,,,,,,,,,,,,,,,,,,,,,,,,,,,,,,,,,,,,,,,,,,,,,,,,,,,,,,,,,,,,,,,,,,,,,,,,,,,,,,,,
0,80,80,3,1,,6120e45c3837db7f72f82d50,62bbfacb53b7d8aac167c6f7,2022-06-29_09h10.49.295,Colour_Asymmetry_Pilot,2022.1.3,Win32,60.04563468,62bbe60bf3d75ef465d3e404,,,,,,,,,,,,,,,,,,,,,,,,,,,,,,,,,,,,,,,,,,,,,,,,,,,,,,,,,,,,,,,,,,,,,,,,,,,,,,,,,,,,,,,,,,,,,,,,,,,,,,,,,,,,,,,,,,,,,,,,,,,,,,,,,,,,,,,,,,,,,,,,,,,,,,,,,,,,,,
0,81,81,5,1,,6120e45c3837db7f72f82d50,62bbfacb53b7d8aac167c6f7,2022-06-29_09h10.49.295,Colour_Asymmetry_Pilot,2022.1.3,Win32,60.04563468,62bbe60bf3d75ef465d3e404,,,,,,,,,,,,,,,,,,,,,,,,,,,,,,,,,,,,,,,,,,,,,,,,,,,,,,,,,,,,,,,,,,,,,,,,,,,,,,,,,,,,,,,,,,,,,,,,,,,,,,,,,,,,,,,,,,,,,,,,,,,,,,,,,,,,,,,,,,,,,,,,,,,,,,,,,,,,,,
0,82,82,28,1,,6120e45c3837db7f72f82d50,62bbfacb53b7d8aac167c6f7,2022-06-29_09h10.49.295,Colour_Asymmetry_Pilot,2022.1.3,Win32,60.04563468,62bbe60bf3d75ef465d3e404,,,,,,,,,,,,,,,,,,,,,,,,,,,,,,,,,,,,,,,,,,,,,,,,,,,,,,,,,,,,,,,,,,,,,,,,,,,,,,,,,,,,,,,,,,,,,,,,,,,,,,,,,,,,,,,,,,,,,,,,,,,,,,,,,,,,,,,,,,,,,,,,,,,,,,,,,,,,,,
0,83,83,43,1,,6120e45c3837db7f72f82d50,62bbfacb53b7d8aac167c6f7,2022-06-29_09h10.49.295,Colour_Asymmetry_Pilot,2022.1.3,Win32,60.04563468,62bbe60bf3d75ef465d3e404,,,,,,,,,,,,,,,,,,,,,,,,,,,,,,,,,,,,,,,,,,,,,,,,,,,,,,,,,,,,,,,,,,,,,,,,,,,,,,,,,,,,,,,,,,,,,,,,,,,,,,,,,,,,,,,,,,,,,,,,,,,,,,,,,,,,,,,,,,,,,,,,,,,,,,,,,,,,,,
0,84,84,22,1,,6120e45c3837db7f72f82d50,62bbfacb53b7d8aac167c6f7,2022-06-29_09h10.49.295,Colour_Asymmetry_Pilot,2022.1.3,Win32,60.04563468,62bbe60bf3d75ef465d3e404,,,,,,,,,,,,,,,,,,,,,,,,,,,,,,,,,,,,,,,,,,,,,,,,,,,,,,,,,,,,,,,,,,,,,,,,,,,,,,,,,,,,,,,,,,,,,,,,,,,,,,,,,,,,,,,,,,,,,,,,,,,,,,,,,,,,,,,,,,,,,,,,,,,,,,,,,,,,,,
0,85,85,81,1,,6120e45c3837db7f72f82d50,62bbfacb53b7d8aac167c6f7,2022-06-29_09h10.49.295,Colour_Asymmetry_Pilot,2022.1.3,Win32,60.04563468,62bbe60bf3d75ef465d3e404,,,,,,,,,,,,,,,,,,,,,,,,,,,,,,,,,,,,,,,,,,,,,,,,,,,,,,,,,,,,,,,,,,,,,,,,,,,,,,,,,,,,,,,,,,,,,,,,,,,,,,,,,,,,,,,,,,,,,,,,,,,,,,,,,,,,,,,,,,,,,,,,,,,,,,,,,,,,,,
0,86,86,91,1,,6120e45c3837db7f72f82d50,62bbfacb53b7d8aac167c6f7,2022-06-29_09h10.49.295,Colour_Asymmetry_Pilot,2022.1.3,Win32,60.04563468,62bbe60bf3d75ef465d3e404,,,,,,,,,,,,,,,,,,,,,,,,,,,,,,,,,,,,,,,,,,,,,,,,,,,,,,,,,,,,,,,,,,,,,,,,,,,,,,,,,,,,,,,,,,,,,,,,,,,,,,,,,,,,,,,,,,,,,,,,,,,,,,,,,,,,,,,,,,,,,,,,,,,,,,,,,,,,,,
0,87,87,67,1,,6120e45c3837db7f72f82d50,62bbfacb53b7d8aac167c6f7,2022-06-29_09h10.49.295,Colour_Asymmetry_Pilot,2022.1.3,Win32,60.04563468,62bbe60bf3d75ef465d3e404,,,,,,,,,,,,,,,,,,,,,,,,,,,,,,,,,,,,,,,,,,,,,,,,,,,,,,,,,,,,,,,,,,,,,,,,,,,,,,,,,,,,,,,,,,,,,,,,,,,,,,,,,,,,,,,,,,,,,,,,,,,,,,,,,,,,,,,,,,,,,,,,,,,,,,,,,,,,,,
0,88,88,56,1,,6120e45c3837db7f72f82d50,62bbfacb53b7d8aac167c6f7,2022-06-29_09h10.49.295,Colour_Asymmetry_Pilot,2022.1.3,Win32,60.04563468,62bbe60bf3d75ef465d3e404,,,,,,,,,,,,,,,,,,,,,,,,,,,,,,,,,,,,,,,,,,,,,,,,,,,,,,,,,,,,,,,,,,,,,,,,,,,,,,,,,,,,,,,,,,,,,,,,,,,,,,,,,,,,,,,,,,,,,,,,,,,,,,,,,,,,,,,,,,,,,,,,,,,,,,,,,,,,,,
0,89,89,68,1,,6120e45c3837db7f72f82d50,62bbfacb53b7d8aac167c6f7,2022-06-29_09h10.49.295,Colour_Asymmetry_Pilot,2022.1.3,Win32,60.04563468,62bbe60bf3d75ef465d3e404,,,,,,,,,,,,,,,,,,,,,,,,,,,,,,,,,,,,,,,,,,,,,,,,,,,,,,,,,,,,,,,,,,,,,,,,,,,,,,,,,,,,,,,,,,,,,,,,,,,,,,,,,,,,,,,,,,,,,,,,,,,,,,,,,,,,,,,,,,,,,,,,,,,,,,,,,,,,,,
0,90,90,32,1,,6120e45c3837db7f72f82d50,62bbfacb53b7d8aac167c6f7,2022-06-29_09h10.49.295,Colour_Asymmetry_Pilot,2022.1.3,Win32,60.04563468,62bbe60bf3d75ef465d3e404,,,,,,,,,,,,,,,,,,,,,,,,,,,,,,,,,,,,,,,,,,,,,,,,,,,,,,,,,,,,,,,,,,,,,,,,,,,,,,,,,,,,,,,,,,,,,,,,,,,,,,,,,,,,,,,,,,,,,,,,,,,,,,,,,,,,,,,,,,,,,,,,,,,,,,,,,,,,,,
0,91,91,16,1,,6120e45c3837db7f72f82d50,62bbfacb53b7d8aac167c6f7,2022-06-29_09h10.49.295,Colour_Asymmetry_Pilot,2022.1.3,Win32,60.04563468,62bbe60bf3d75ef465d3e404,,,,,,,,,,,,,,,,,,,,,,,,,,,,,,,,,,,,,,,,,,,,,,,,,,,,,,,,,,,,,,,,,,,,,,,,,,,,,,,,,,,,,,,,,,,,,,,,,,,,,,,,,,,,,,,,,,,,,,,,,,,,,,,,,,,,,,,,,,,,,,,,,,,,,,,,,,,,,,
0,92,92,4,1,,6120e45c3837db7f72f82d50,62bbfacb53b7d8aac167c6f7,2022-06-29_09h10.49.295,Colour_Asymmetry_Pilot,2022.1.3,Win32,60.04563468,62bbe60bf3d75ef465d3e404,,,,,,,,,,,,,,,,,,,,,,,,,,,,,,,,,,,,,,,,,,,,,,,,,,,,,,,,,,,,,,,,,,,,,,,,,,,,,,,,,,,,,,,,,,,,,,,,,,,,,,,,,,,,,,,,,,,,,,,,,,,,,,,,,,,,,,,,,,,,,,,,,,,,,,,,,,,,,,
,,,,,,6120e45c3837db7f72f82d50,62bbfacb53b7d8aac167c6f7,2022-06-29_09h10.49.295,Colour_Asymmetry_Pilot,2022.1.3,Win32,60.04563468,62bbe60bf3d75ef465d3e404,0,0,0,66,1,twoone,,,,,,,,,,,,,,,,,,,,,,,,,,,,,,,,,,,,,,,,,,,,,,,,,,,,,,,,,,,,,,,,,,,,,,,,,,,,,,,,,,,,,,,,,,,,,,,,,,,,,,,,,,,,,,,,,,,,,,,,,,,,,,,,,,,,,,,,,,,,,,,,,,,,,,,,
,,,,,,6120e45c3837db7f72f82d50,62bbfacb53b7d8aac167c6f7,2022-06-29_09h10.49.295,Colour_Asymmetry_Pilot,2022.1.3,Win32,60.04563468,62bbe60bf3d75ef465d3e404,0,1,1,40,1,onetwo,,,,,,,,,,,,,,,,,,,,,,,,,,,,,,,,,,,,,,,,,,,,,,,,,,,,,,,,,,,,,,,,,,,,,,,,,,,,,,,,,,,,,,,,,,,,,,,,,,,,,,,,,,,,,,,,,,,,,,,,,,,,,,,,,,,,,,,,,,,,,,,,,,,,,,,,
,,,,,,6120e45c3837db7f72f82d50,62bbfacb53b7d8aac167c6f7,2022-06-29_09h10.49.295,Colour_Asymmetry_Pilot,2022.1.3,Win32,60.04563468,62bbe60bf3d75ef465d3e404,0,2,2,99,1,twofour,,,,,,,,,,,,,,,,,,,,,,,,,,,,,,,,,,,,,,,,,,,,,,,,,,,,,,,,,,,,,,,,,,,,,,,,,,,,,,,,,,,,,,,,,,,,,,,,,,,,,,,,,,,,,,,,,,,,,,,,,,,,,,,,,,,,,,,,,,,,,,,,,,,,,,,,
,,,,,,6120e45c3837db7f72f82d50,62bbfacb53b7d8aac167c6f7,2022-06-29_09h10.49.295,Colour_Asymmetry_Pilot,2022.1.3,Win32,60.04563468,62bbe60bf3d75ef465d3e404,0,3,3,127,1,fourthree,,,,,,,,,,,,,,,,,,,,,,,,,,,,,,,,,,,,,,,,,,,,,,,,,,,,,,,,,,,,,,,,,,,,,,,,,,,,,,,,,,,,,,,,,,,,,,,,,,,,,,,,,,,,,,,,,,,,,,,,,,,,,,,,,,,,,,,,,,,,,,,,,,,,,,,,
,,,,,,6120e45c3837db7f72f82d50,62bbfacb53b7d8aac167c6f7,2022-06-29_09h10.49.295,Colour_Asymmetry_Pilot,2022.1.3,Win32,60.04563468,62bbe60bf3d75ef465d3e404,0,4,4,82,1,twoone,,,,,,,,,,,,,,,,,,,,,,,,,,,,,,,,,,,,,,,,,,,,,,,,,,,,,,,,,,,,,,,,,,,,,,,,,,,,,,,,,,,,,,,,,,,,,,,,,,,,,,,,,,,,,,,,,,,,,,,,,,,,,,,,,,,,,,,,,,,,,,,,,,,,,,,,
,,,,,,6120e45c3837db7f72f82d50,62bbfacb53b7d8aac167c6f7,2022-06-29_09h10.49.295,Colour_Asymmetry_Pilot,2022.1.3,Win32,60.04563468,62bbe60bf3d75ef465d3e404,0,5,5,16,1,onetwo,,,,,,,,,,,,,,,,,,,,,,,,,,,,,,,,,,,,,,,,,,,,,,,,,,,,,,,,,,,,,,,,,,,,,,,,,,,,,,,,,,,,,,,,,,,,,,,,,,,,,,,,,,,,,,,,,,,,,,,,,,,,,,,,,,,,,,,,,,,,,,,,,,,,,,,,
,,,,,,6120e45c3837db7f72f82d50,62bbfacb53b7d8aac167c6f7,2022-06-29_09h10.49.295,Colour_Asymmetry_Pilot,2022.1.3,Win32,60.04563468,62bbe60bf3d75ef465d3e404,0,6,6,145,1,onethree,,,,,,,,,,,,,,,,,,,,,,,,,,,,,,,,,,,,,,,,,,,,,,,,,,,,,,,,,,,,,,,,,,,,,,,,,,,,,,,,,,,,,,,,,,,,,,,,,,,,,,,,,,,,,,,,,,,,,,,,,,,,,,,,,,,,,,,,,,,,,,,,,,,,,,,,
,,,,,,6120e45c3837db7f72f82d50,62bbfacb53b7d8aac167c6f7,2022-06-29_09h10.49.295,Colour_Asymmetry_Pilot,2022.1.3,Win32,60.04563468,62bbe60bf3d75ef465d3e404,0,7,7,110,1,fourtwo,,,,,,,,,,,,,,,,,,,,,,,,,,,,,,,,,,,,,,,,,,,,,,,,,,,,,,,,,,,,,,,,,,,,,,,,,,,,,,,,,,,,,,,,,,,,,,,,,,,,,,,,,,,,,,,,,,,,,,,,,,,,,,,,,,,,,,,,,,,,,,,,,,,,,,,,
,,,,,,6120e45c3837db7f72f82d50,62bbfacb53b7d8aac167c6f7,2022-06-29_09h10.49.295,Colour_Asymmetry_Pilot,2022.1.3,Win32,60.04563468,62bbe60bf3d75ef465d3e404,0,8,8,21,1,threefour,,,,,,,,,,,,,,,,,,,,,,,,,,,,,,,,,,,,,,,,,,,,,,,,,,,,,,,,,,,,,,,,,,,,,,,,,,,,,,,,,,,,,,,,,,,,,,,,,,,,,,,,,,,,,,,,,,,,,,,,,,,,,,,,,,,,,,,,,,,,,,,,,,,,,,,,
,,,,,,6120e45c3837db7f72f82d50,62bbfacb53b7d8aac167c6f7,2022-06-29_09h10.49.295,Colour_Asymmetry_Pilot,2022.1.3,Win32,60.04563468,62bbe60bf3d75ef465d3e404,0,9,9,2,1,twoone,,,,,,,,,,,,,,,,,,,,,,,,,,,,,,,,,,,,,,,,,,,,,,,,,,,,,,,,,,,,,,,,,,,,,,,,,,,,,,,,,,,,,,,,,,,,,,,,,,,,,,,,,,,,,,,,,,,,,,,,,,,,,,,,,,,,,,,,,,,,,,,,,,,,,,,,
,,,,,,6120e45c3837db7f72f82d50,62bbfacb53b7d8aac167c6f7,2022-06-29_09h10.49.295,Colour_Asymmetry_Pilot,2022.1.3,Win32,60.04563468,62bbe60bf3d75ef465d3e404,0,10,10,106,1,twoone,,,,,,,,,,,,,,,,,,,,,,,,,,,,,,,,,,,,,,,,,,,,,,,,,,,,,,,,,,,,,,,,,,,,,,,,,,,,,,,,,,,,,,,,,,,,,,,,,,,,,,,,,,,,,,,,,,,,,,,,,,,,,,,,,,,,,,,,,,,,,,,,,,,,,,,,
,,,,,,6120e45c3837db7f72f82d50,62bbfacb53b7d8aac167c6f7,2022-06-29_09h10.49.295,Colour_Asymmetry_Pilot,2022.1.3,Win32,60.04563468,62bbe60bf3d75ef465d3e404,0,11,11,120,1,onetwo,,,,,,,,,,,,,,,,,,,,,,,,,,,,,,,,,,,,,,,,,,,,,,,,,,,,,,,,,,,,,,,,,,,,,,,,,,,,,,,,,,,,,,,,,,,,,,,,,,,,,,,,,,,,,,,,,,,,,,,,,,,,,,,,,,,,,,,,,,,,,,,,,,,,,,,,
,,,,,,6120e45c3837db7f72f82d50,62bbfacb53b7d8aac167c6f7,2022-06-29_09h10.49.295,Colour_Asymmetry_Pilot,2022.1.3,Win32,60.04563468,62bbe60bf3d75ef465d3e404,0,12,12,137,1,onethree,,,,,,,,,,,,,,,,,,,,,,,,,,,,,,,,,,,,,,,,,,,,,,,,,,,,,,,,,,,,,,,,,,,,,,,,,,,,,,,,,,,,,,,,,,,,,,,,,,,,,,,,,,,,,,,,,,,,,,,,,,,,,,,,,,,,,,,,,,,,,,,,,,,,,,,,
,,,,,,6120e45c3837db7f72f82d50,62bbfacb53b7d8aac167c6f7,2022-06-29_09h10.49.295,Colour_Asymmetry_Pilot,2022.1.3,Win32,60.04563468,62bbe60bf3d75ef465d3e404,0,13,13,75,1,twofour,,,,,,,,,,,,,,,,,,,,,,,,,,,,,,,,,,,,,,,,,,,,,,,,,,,,,,,,,,,,,,,,,,,,,,,,,,,,,,,,,,,,,,,,,,,,,,,,,,,,,,,,,,,,,,,,,,,,,,,,,,,,,,,,,,,,,,,,,,,,,,,,,,,,,,,,
,,,,,,6120e45c3837db7f72f82d50,62bbfacb53b7d8aac167c6f7,2022-06-29_09h10.49.295,Colour_Asymmetry_Pilot,2022.1.3,Win32,60.04563468,62bbe60bf3d75ef465d3e404,0,14,14,43,1,twofour,,,,,,,,,,,,,,,,,,,,,,,,,,,,,,,,,,,,,,,,,,,,,,,,,,,,,,,,,,,,,,,,,,,,,,,,,,,,,,,,,,,,,,,,,,,,,,,,,,,,,,,,,,,,,,,,,,,,,,,,,,,,,,,,,,,,,,,,,,,,,,,,,,,,,,,,
,,,,,,6120e45c3837db7f72f82d50,62bbfacb53b7d8aac167c6f7,2022-06-29_09h10.49.295,Colour_Asymmetry_Pilot,2022.1.3,Win32,60.04563468,62bbe60bf3d75ef465d3e404,0,15,15,51,1,twofour,,,,,,,,,,,,,,,,,,,,,,,,,,,,,,,,,,,,,,,,,,,,,,,,,,,,,,,,,,,,,,,,,,,,,,,,,,,,,,,,,,,,,,,,,,,,,,,,,,,,,,,,,,,,,,,,,,,,,,,,,,,,,,,,,,,,,,,,,,,,,,,,,,,,,,,,
,,,,,,6120e45c3837db7f72f82d50,62bbfacb53b7d8aac167c6f7,2022-06-29_09h10.49.295,Colour_Asymmetry_Pilot,2022.1.3,Win32,60.04563468,62bbe60bf3d75ef465d3e404,0,16,16,115,1,twofour,,,,,,,,,,,,,,,,,,,,,,,,,,,,,,,,,,,,,,,,,,,,,,,,,,,,,,,,,,,,,,,,,,,,,,,,,,,,,,,,,,,,,,,,,,,,,,,,,,,,,,,,,,,,,,,,,,,,,,,,,,,,,,,,,,,,,,,,,,,,,,,,,,,,,,,,
,,,,,,6120e45c3837db7f72f82d50,62bbfacb53b7d8aac167c6f7,2022-06-29_09h10.49.295,Colour_Asymmetry_Pilot,2022.1.3,Win32,60.04563468,62bbe60bf3d75ef465d3e404,0,17,17,150,1,fourtwo,,,,,,,,,,,,,,,,,,,,,,,,,,,,,,,,,,,,,,,,,,,,,,,,,,,,,,,,,,,,,,,,,,,,,,,,,,,,,,,,,,,,,,,,,,,,,,,,,,,,,,,,,,,,,,,,,,,,,,,,,,,,,,,,,,,,,,,,,,,,,,,,,,,,,,,,
,,,,,,6120e45c3837db7f72f82d50,62bbfacb53b7d8aac167c6f7,2022-06-29_09h10.49.295,Colour_Asymmetry_Pilot,2022.1.3,Win32,60.04563468,62bbe60bf3d75ef465d3e404,0,18,18,95,1,fourthree,,,,,,,,,,,,,,,,,,,,,,,,,,,,,,,,,,,,,,,,,,,,,,,,,,,,,,,,,,,,,,,,,,,,,,,,,,,,,,,,,,,,,,,,,,,,,,,,,,,,,,,,,,,,,,,,,,,,,,,,,,,,,,,,,,,,,,,,,,,,,,,,,,,,,,,,
,,,,,,6120e45c3837db7f72f82d50,62bbfacb53b7d8aac167c6f7,2022-06-29_09h10.49.295,Colour_Asymmetry_Pilot,2022.1.3,Win32,60.04563468,62bbe60bf3d75ef465d3e404,0,19,19,104,1,onetwo,,,,,,,,,,,,,,,,,,,,,,,,,,,,,,,,,,,,,,,,,,,,,,,,,,,,,,,,,,,,,,,,,,,,,,,,,,,,,,,,,,,,,,,,,,,,,,,,,,,,,,,,,,,,,,,,,,,,,,,,,,,,,,,,,,,,,,,,,,,,,,,,,,,,,,,,
,,,,,,6120e45c3837db7f72f82d50,62bbfacb53b7d8aac167c6f7,2022-06-29_09h10.49.295,Colour_Asymmetry_Pilot,2022.1.3,Win32,60.04563468,62bbe60bf3d75ef465d3e404,0,20,20,74,1,twoone,,,,,,,,,,,,,,,,,,,,,,,,,,,,,,,,,,,,,,,,,,,,,,,,,,,,,,,,,,,,,,,,,,,,,,,,,,,,,,,,,,,,,,,,,,,,,,,,,,,,,,,,,,,,,,,,,,,,,,,,,,,,,,,,,,,,,,,,,,,,,,,,,,,,,,,,
,,,,,,6120e45c3837db7f72f82d50,62bbfacb53b7d8aac167c6f7,2022-06-29_09h10.49.295,Colour_Asymmetry_Pilot,2022.1.3,Win32,60.04563468,62bbe60bf3d75ef465d3e404,0,21,21,10,1,twoone,,,,,,,,,,,,,,,,,,,,,,,,,,,,,,,,,,,,,,,,,,,,,,,,,,,,,,,,,,,,,,,,,,,,,,,,,,,,,,,,,,,,,,,,,,,,,,,,,,,,,,,,,,,,,,,,,,,,,,,,,,,,,,,,,,,,,,,,,,,,,,,,,,,,,,,,
,,,,,,6120e45c3837db7f72f82d50,62bbfacb53b7d8aac167c6f7,2022-06-29_09h10.49.295,Colour_Asymmetry_Pilot,2022.1.3,Win32,60.04563468,62bbe60bf3d75ef465d3e404,0,22,22,138,1,twoone,,,,,,,,,,,,,,,,,,,,,,,,,,,,,,,,,,,,,,,,,,,,,,,,,,,,,,,,,,,,,,,,,,,,,,,,,,,,,,,,,,,,,,,,,,,,,,,,,,,,,,,,,,,,,,,,,,,,,,,,,,,,,,,,,,,,,,,,,,,,,,,,,,,,,,,,
,,,,,,6120e45c3837db7f72f82d50,62bbfacb53b7d8aac167c6f7,2022-06-29_09h10.49.295,Colour_Asymmetry_Pilot,2022.1.3,Win32,60.04563468,62bbe60bf3d75ef465d3e404,0,23,23,152,1,onetwo,,,,,,,,,,,,,,,,,,,,,,,,,,,,,,,,,,,,,,,,,,,,,,,,,,,,,,,,,,,,,,,,,,,,,,,,,,,,,,,,,,,,,,,,,,,,,,,,,,,,,,,,,,,,,,,,,,,,,,,,,,,,,,,,,,,,,,,,,,,,,,,,,,,,,,,,
,,,,,,6120e45c3837db7f72f82d50,62bbfacb53b7d8aac167c6f7,2022-06-29_09h10.49.295,Colour_Asymmetry_Pilot,2022.1.3,Win32,60.04563468,62bbe60bf3d75ef465d3e404,0,24,24,6,1,fourtwo,,,,,,,,,,,,,,,,,,,,,,,,,,,,,,,,,,,,,,,,,,,,,,,,,,,,,,,,,,,,,,,,,,,,,,,,,,,,,,,,,,,,,,,,,,,,,,,,,,,,,,,,,,,,,,,,,,,,,,,,,,,,,,,,,,,,,,,,,,,,,,,,,,,,,,,,
,,,,,,6120e45c3837db7f72f82d50,62bbfacb53b7d8aac167c6f7,2022-06-29_09h10.49.295,Colour_Asymmetry_Pilot,2022.1.3,Win32,60.04563468,62bbe60bf3d75ef465d3e404,0,25,25,102,1,fourtwo,,,,,,,,,,,,,,,,,,,,,,,,,,,,,,,,,,,,,,,,,,,,,,,,,,,,,,,,,,,,,,,,,,,,,,,,,,,,,,,,,,,,,,,,,,,,,,,,,,,,,,,,,,,,,,,,,,,,,,,,,,,,,,,,,,,,,,,,,,,,,,,,,,,,,,,,
,,,,,,6120e45c3837db7f72f82d50,62bbfacb53b7d8aac167c6f7,2022-06-29_09h10.49.295,Colour_Asymmetry_Pilot,2022.1.3,Win32,60.04563468,62bbe60bf3d75ef465d3e404,0,26,26,90,1,twoone,,,,,,,,,,,,,,,,,,,,,,,,,,,,,,,,,,,,,,,,,,,,,,,,,,,,,,,,,,,,,,,,,,,,,,,,,,,,,,,,,,,,,,,,,,,,,,,,,,,,,,,,,,,,,,,,,,,,,,,,,,,,,,,,,,,,,,,,,,,,,,,,,,,,,,,,
,,,,,,6120e45c3837db7f72f82d50,62bbfacb53b7d8aac167c6f7,2022-06-29_09h10.49.295,Colour_Asymmetry_Pilot,2022.1.3,Win32,60.04563468,62bbe60bf3d75ef465d3e404,0,27,27,109,1,threefour,,,,,,,,,,,,,,,,,,,,,,,,,,,,,,,,,,,,,,,,,,,,,,,,,,,,,,,,,,,,,,,,,,,,,,,,,,,,,,,,,,,,,,,,,,,,,,,,,,,,,,,,,,,,,,,,,,,,,,,,,,,,,,,,,,,,,,,,,,,,,,,,,,,,,,,,
,,,,,,6120e45c3837db7f72f82d50,62bbfacb53b7d8aac167c6f7,2022-06-29_09h10.49.295,Colour_Asymmetry_Pilot,2022.1.3,Win32,60.04563468,62bbe60bf3d75ef465d3e404,0,28,28,126,1,fourtwo,,,,,,,,,,,,,,,,,,,,,,,,,,,,,,,,,,,,,,,,,,,,,,,,,,,,,,,,,,,,,,,,,,,,,,,,,,,,,,,,,,,,,,,,,,,,,,,,,,,,,,,,,,,,,,,,,,,,,,,,,,,,,,,,,,,,,,,,,,,,,,,,,,,,,,,,
,,,,,,6120e45c3837db7f72f82d50,62bbfacb53b7d8aac167c6f7,2022-06-29_09h10.49.295,Colour_Asymmetry_Pilot,2022.1.3,Win32,60.04563468,62bbe60bf3d75ef465d3e404,0,29,29,148,1,threeone,,,,,,,,,,,,,,,,,,,,,,,,,,,,,,,,,,,,,,,,,,,,,,,,,,,,,,,,,,,,,,,,,,,,,,,,,,,,,,,,,,,,,,,,,,,,,,,,,,,,,,,,,,,,,,,,,,,,,,,,,,,,,,,,,,,,,,,,,,,,,,,,,,,,,,,,
,,,,,,6120e45c3837db7f72f82d50,62bbfacb53b7d8aac167c6f7,2022-06-29_09h10.49.295,Colour_Asymmetry_Pilot,2022.1.3,Win32,60.04563468,62bbe60bf3d75ef465d3e404,0,30,30,93,1,threefour,,,,,,,,,,,,,,,,,,,,,,,,,,,,,,,,,,,,,,,,,,,,,,,,,,,,,,,,,,,,,,,,,,,,,,,,,,,,,,,,,,,,,,,,,,,,,,,,,,,,,,,,,,,,,,,,,,,,,,,,,,,,,,,,,,,,,,,,,,,,,,,,,,,,,,,,
,,,,,,6120e45c3837db7f72f82d50,62bbfacb53b7d8aac167c6f7,2022-06-29_09h10.49.295,Colour_Asymmetry_Pilot,2022.1.3,Win32,60.04563468,62bbe60bf3d75ef465d3e404,0,31,31,80,1,onetwo,,,,,,,,,,,,,,,,,,,,,,,,,,,,,,,,,,,,,,,,,,,,,,,,,,,,,,,,,,,,,,,,,,,,,,,,,,,,,,,,,,,,,,,,,,,,,,,,,,,,,,,,,,,,,,,,,,,,,,,,,,,,,,,,,,,,,,,,,,,,,,,,,,,,,,,,
,,,,,,6120e45c3837db7f72f82d50,62bbfacb53b7d8aac167c6f7,2022-06-29_09h10.49.295,Colour_Asymmetry_Pilot,2022.1.3,Win32,60.04563468,62bbe60bf3d75ef465d3e404,0,32,32,125,1,threefour,,,,,,,,,,,,,,,,,,,,,,,,,,,,,,,,,,,,,,,,,,,,,,,,,,,,,,,,,,,,,,,,,,,,,,,,,,,,,,,,,,,,,,,,,,,,,,,,,,,,,,,,,,,,,,,,,,,,,,,,,,,,,,,,,,,,,,,,,,,,,,,,,,,,,,,,
,,,,,,6120e45c3837db7f72f82d50,62bbfacb53b7d8aac167c6f7,2022-06-29_09h10.49.295,Colour_Asymmetry_Pilot,2022.1.3,Win32,60.04563468,62bbe60bf3d75ef465d3e404,0,33,33,30,1,fourtwo,,,,,,,,,,,,,,,,,,,,,,,,,,,,,,,,,,,,,,,,,,,,,,,,,,,,,,,,,,,,,,,,,,,,,,,,,,,,,,,,,,,,,,,,,,,,,,,,,,,,,,,,,,,,,,,,,,,,,,,,,,,,,,,,,,,,,,,,,,,,,,,,,,,,,,,,
,,,,,,6120e45c3837db7f72f82d50,62bbfacb53b7d8aac167c6f7,2022-06-29_09h10.49.295,Colour_Asymmetry_Pilot,2022.1.3,Win32,60.04563468,62bbe60bf3d75ef465d3e404,0,34,34,60,1,threeone,,,,,,,,,,,,,,,,,,,,,,,,,,,,,,,,,,,,,,,,,,,,,,,,,,,,,,,,,,,,,,,,,,,,,,,,,,,,,,,,,,,,,,,,,,,,,,,,,,,,,,,,,,,,,,,,,,,,,,,,,,,,,,,,,,,,,,,,,,,,,,,,,,,,,,,,
,,,,,,6120e45c3837db7f72f82d50,62bbfacb53b7d8aac167c6f7,2022-06-29_09h10.49.295,Colour_Asymmetry_Pilot,2022.1.3,Win32,60.04563468,62bbe60bf3d75ef465d3e404,0,35,35,153,1,onethree,,,,,,,,,,,,,,,,,,,,,,,,,,,,,,,,,,,,,,,,,,,,,,,,,,,,,,,,,,,,,,,,,,,,,,,,,,,,,,,,,,,,,,,,,,,,,,,,,,,,,,,,,,,,,,,,,,,,,,,,,,,,,,,,,,,,,,,,,,,,,,,,,,,,,,,,
,,,,,,6120e45c3837db7f72f82d50,62bbfacb53b7d8aac167c6f7,2022-06-29_09h10.49.295,Colour_Asymmetry_Pilot,2022.1.3,Win32,60.04563468,62bbe60bf3d75ef465d3e404,0,36,36,61,1,threefour,,,,,,,,,,,,,,,,,,,,,,,,,,,,,,,,,,,,,,,,,,,,,,,,,,,,,,,,,,,,,,,,,,,,,,,,,,,,,,,,,,,,,,,,,,,,,,,,,,,,,,,,,,,,,,,,,,,,,,,,,,,,,,,,,,,,,,,,,,,,,,,,,,,,,,,,
,,,,,,6120e45c3837db7f72f82d50,62bbfacb53b7d8aac167c6f7,2022-06-29_09h10.49.295,Colour_Asymmetry_Pilot,2022.1.3,Win32,60.04563468,62bbe60bf3d75ef465d3e404,0,37,37,77,1,threefour,,,,,,,,,,,,,,,,,,,,,,,,,,,,,,,,,,,,,,,,,,,,,,,,,,,,,,,,,,,,,,,,,,,,,,,,,,,,,,,,,,,,,,,,,,,,,,,,,,,,,,,,,,,,,,,,,,,,,,,,,,,,,,,,,,,,,,,,,,,,,,,,,,,,,,,,
,,,,,,6120e45c3837db7f72f82d50,62bbfacb53b7d8aac167c6f7,2022-06-29_09h10.49.295,Colour_Asymmetry_Pilot,2022.1.3,Win32,60.04563468,62bbe60bf3d75ef465d3e404,0,38,38,72,1,onetwo,,,,,,,,,,,,,,,,,,,,,,,,,,,,,,,,,,,,,,,,,,,,,,,,,,,,,,,,,,,,,,,,,,,,,,,,,,,,,,,,,,,,,,,,,,,,,,,,,,,,,,,,,,,,,,,,,,,,,,,,,,,,,,,,,,,,,,,,,,,,,,,,,,,,,,,,
,,,,,,6120e45c3837db7f72f82d50,62bbfacb53b7d8aac167c6f7,2022-06-29_09h10.49.295,Colour_Asymmetry_Pilot,2022.1.3,Win32,60.04563468,62bbe60bf3d75ef465d3e404,0,39,39,123,1,twofour,,,,,,,,,,,,,,,,,,,,,,,,,,,,,,,,,,,,,,,,,,,,,,,,,,,,,,,,,,,,,,,,,,,,,,,,,,,,,,,,,,,,,,,,,,,,,,,,,,,,,,,,,,,,,,,,,,,,,,,,,,,,,,,,,,,,,,,,,,,,,,,,,,,,,,,,
,,,,,,6120e45c3837db7f72f82d50,62bbfacb53b7d8aac167c6f7,2022-06-29_09h10.49.295,Colour_Asymmetry_Pilot,2022.1.3,Win32,60.04563468,62bbe60bf3d75ef465d3e404,0,40,40,35,1,twofour,,,,,,,,,,,,,,,,,,,,,,,,,,,,,,,,,,,,,,,,,,,,,,,,,,,,,,,,,,,,,,,,,,,,,,,,,,,,,,,,,,,,,,,,,,,,,,,,,,,,,,,,,,,,,,,,,,,,,,,,,,,,,,,,,,,,,,,,,,,,,,,,,,,,,,,,
,,,,,,6120e45c3837db7f72f82d50,62bbfacb53b7d8aac167c6f7,2022-06-29_09h10.49.295,Colour_Asymmetry_Pilot,2022.1.3,Win32,60.04563468,62bbe60bf3d75ef465d3e404,0,41,41,26,1,twoone,,,,,,,,,,,,,,,,,,,,,,,,,,,,,,,,,,,,,,,,,,,,,,,,,,,,,,,,,,,,,,,,,,,,,,,,,,,,,,,,,,,,,,,,,,,,,,,,,,,,,,,,,,,,,,,,,,,,,,,,,,,,,,,,,,,,,,,,,,,,,,,,,,,,,,,,
,,,,,,6120e45c3837db7f72f82d50,62bbfacb53b7d8aac167c6f7,2022-06-29_09h10.49.295,Colour_Asymmetry_Pilot,2022.1.3,Win32,60.04563468,62bbe60bf3d75ef465d3e404,0,42,42,130,1,twoone,,,,,,,,,,,,,,,,,,,,,,,,,,,,,,,,,,,,,,,,,,,,,,,,,,,,,,,,,,,,,,,,,,,,,,,,,,,,,,,,,,,,,,,,,,,,,,,,,,,,,,,,,,,,,,,,,,,,,,,,,,,,,,,,,,,,,,,,,,,,,,,,,,,,,,,,
,,,,,,6120e45c3837db7f72f82d50,62bbfacb53b7d8aac167c6f7,2022-06-29_09h10.49.295,Colour_Asymmetry_Pilot,2022.1.3,Win32,60.04563468,62bbe60bf3d75ef465d3e404,0,43,43,52,1,threeone,,,,,,,,,,,,,,,,,,,,,,,,,,,,,,,,,,,,,,,,,,,,,,,,,,,,,,,,,,,,,,,,,,,,,,,,,,,,,,,,,,,,,,,,,,,,,,,,,,,,,,,,,,,,,,,,,,,,,,,,,,,,,,,,,,,,,,,,,,,,,,,,,,,,,,,,
,,,,,,6120e45c3837db7f72f82d50,62bbfacb53b7d8aac167c6f7,2022-06-29_09h10.49.295,Colour_Asymmetry_Pilot,2022.1.3,Win32,60.04563468,62bbe60bf3d75ef465d3e404,0,44,44,122,1,twoone,,,,,,,,,,,,,,,,,,,,,,,,,,,,,,,,,,,,,,,,,,,,,,,,,,,,,,,,,,,,,,,,,,,,,,,,,,,,,,,,,,,,,,,,,,,,,,,,,,,,,,,,,,,,,,,,,,,,,,,,,,,,,,,,,,,,,,,,,,,,,,,,,,,,,,,,
,,,,,,6120e45c3837db7f72f82d50,62bbfacb53b7d8aac167c6f7,2022-06-29_09h10.49.295,Colour_Asymmetry_Pilot,2022.1.3,Win32,60.04563468,62bbe60bf3d75ef465d3e404,0,45,45,158,1,fourtwo,,,,,,,,,,,,,,,,,,,,,,,,,,,,,,,,,,,,,,,,,,,,,,,,,,,,,,,,,,,,,,,,,,,,,,,,,,,,,,,,,,,,,,,,,,,,,,,,,,,,,,,,,,,,,,,,,,,,,,,,,,,,,,,,,,,,,,,,,,,,,,,,,,,,,,,,
,,,,,,6120e45c3837db7f72f82d50,62bbfacb53b7d8aac167c6f7,2022-06-29_09h10.49.295,Colour_Asymmetry_Pilot,2022.1.3,Win32,60.04563468,62bbe60bf3d75ef465d3e404,0,46,46,5,1,threefour,,,,,,,,,,,,,,,,,,,,,,,,,,,,,,,,,,,,,,,,,,,,,,,,,,,,,,,,,,,,,,,,,,,,,,,,,,,,,,,,,,,,,,,,,,,,,,,,,,,,,,,,,,,,,,,,,,,,,,,,,,,,,,,,,,,,,,,,,,,,,,,,,,,,,,,,
,,,,,,6120e45c3837db7f72f82d50,62bbfacb53b7d8aac167c6f7,2022-06-29_09h10.49.295,Colour_Asymmetry_Pilot,2022.1.3,Win32,60.04563468,62bbe60bf3d75ef465d3e404,0,47,47,18,1,twoone,,,,,,,,,,,,,,,,,,,,,,,,,,,,,,,,,,,,,,,,,,,,,,,,,,,,,,,,,,,,,,,,,,,,,,,,,,,,,,,,,,,,,,,,,,,,,,,,,,,,,,,,,,,,,,,,,,,,,,,,,,,,,,,,,,,,,,,,,,,,,,,,,,,,,,,,
,,,,,,6120e45c3837db7f72f82d50,62bbfacb53b7d8aac167c6f7,2022-06-29_09h10.49.295,Colour_Asymmetry_Pilot,2022.1.3,Win32,60.04563468,62bbe60bf3d75ef465d3e404,0,48,48,36,1,threeone,,,,,,,,,,,,,,,,,,,,,,,,,,,,,,,,,,,,,,,,,,,,,,,,,,,,,,,,,,,,,,,,,,,,,,,,,,,,,,,,,,,,,,,,,,,,,,,,,,,,,,,,,,,,,,,,,,,,,,,,,,,,,,,,,,,,,,,,,,,,,,,,,,,,,,,,
,,,,,,6120e45c3837db7f72f82d50,62bbfacb53b7d8aac167c6f7,2022-06-29_09h10.49.295,Colour_Asymmetry_Pilot,2022.1.3,Win32,60.04563468,62bbe60bf3d75ef465d3e404,0,49,49,17,1,onethree,,,,,,,,,,,,,,,,,,,,,,,,,,,,,,,,,,,,,,,,,,,,,,,,,,,,,,,,,,,,,,,,,,,,,,,,,,,,,,,,,,,,,,,,,,,,,,,,,,,,,,,,,,,,,,,,,,,,,,,,,,,,,,,,,,,,,,,,,,,,,,,,,,,,,,,,
,,,,,,6120e45c3837db7f72f82d50,62bbfacb53b7d8aac167c6f7,2022-06-29_09h10.49.295,Colour_Asymmetry_Pilot,2022.1.3,Win32,60.04563468,62bbe60bf3d75ef465d3e404,0,50,50,113,1,onethree,,,,,,,,,,,,,,,,,,,,,,,,,,,,,,,,,,,,,,,,,,,,,,,,,,,,,,,,,,,,,,,,,,,,,,,,,,,,,,,,,,,,,,,,,,,,,,,,,,,,,,,,,,,,,,,,,,,,,,,,,,,,,,,,,,,,,,,,,,,,,,,,,,,,,,,,
,,,,,,6120e45c3837db7f72f82d50,62bbfacb53b7d8aac167c6f7,2022-06-29_09h10.49.295,Colour_Asymmetry_Pilot,2022.1.3,Win32,60.04563468,62bbe60bf3d75ef465d3e404,0,51,51,28,1,threeone,,,,,,,,,,,,,,,,,,,,,,,,,,,,,,,,,,,,,,,,,,,,,,,,,,,,,,,,,,,,,,,,,,,,,,,,,,,,,,,,,,,,,,,,,,,,,,,,,,,,,,,,,,,,,,,,,,,,,,,,,,,,,,,,,,,,,,,,,,,,,,,,,,,,,,,,
,,,,,,6120e45c3837db7f72f82d50,62bbfacb53b7d8aac167c6f7,2022-06-29_09h10.49.295,Colour_Asymmetry_Pilot,2022.1.3,Win32,60.04563468,62bbe60bf3d75ef465d3e404,0,52,52,91,1,twofour,,,,,,,,,,,,,,,,,,,,,,,,,,,,,,,,,,,,,,,,,,,,,,,,,,,,,,,,,,,,,,,,,,,,,,,,,,,,,,,,,,,,,,,,,,,,,,,,,,,,,,,,,,,,,,,,,,,,,,,,,,,,,,,,,,,,,,,,,,,,,,,,,,,,,,,,
,,,,,,6120e45c3837db7f72f82d50,62bbfacb53b7d8aac167c6f7,2022-06-29_09h10.49.295,Colour_Asymmetry_Pilot,2022.1.3,Win32,60.04563468,62bbe60bf3d75ef465d3e404,0,53,53,33,1,onethree,,,,,,,,,,,,,,,,,,,,,,,,,,,,,,,,,,,,,,,,,,,,,,,,,,,,,,,,,,,,,,,,,,,,,,,,,,,,,,,,,,,,,,,,,,,,,,,,,,,,,,,,,,,,,,,,,,,,,,,,,,,,,,,,,,,,,,,,,,,,,,,,,,,,,,,,
,,,,,,6120e45c3837db7f72f82d50,62bbfacb53b7d8aac167c6f7,2022-06-29_09h10.49.295,Colour_Asymmetry_Pilot,2022.1.3,Win32,60.04563468,62bbe60bf3d75ef465d3e404,0,54,54,108,1,threeone,,,,,,,,,,,,,,,,,,,,,,,,,,,,,,,,,,,,,,,,,,,,,,,,,,,,,,,,,,,,,,,,,,,,,,,,,,,,,,,,,,,,,,,,,,,,,,,,,,,,,,,,,,,,,,,,,,,,,,,,,,,,,,,,,,,,,,,,,,,,,,,,,,,,,,,,
,,,,,,6120e45c3837db7f72f82d50,62bbfacb53b7d8aac167c6f7,2022-06-29_09h10.49.295,Colour_Asymmetry_Pilot,2022.1.3,Win32,60.04563468,62bbe60bf3d75ef465d3e404,0,55,55,149,1,threefour,,,,,,,,,,,,,,,,,,,,,,,,,,,,,,,,,,,,,,,,,,,,,,,,,,,,,,,,,,,,,,,,,,,,,,,,,,,,,,,,,,,,,,,,,,,,,,,,,,,,,,,,,,,,,,,,,,,,,,,,,,,,,,,,,,,,,,,,,,,,,,,,,,,,,,,,
,,,,,,6120e45c3837db7f72f82d50,62bbfacb53b7d8aac167c6f7,2022-06-29_09h10.49.295,Colour_Asymmetry_Pilot,2022.1.3,Win32,60.04563468,62bbe60bf3d75ef465d3e404,0,56,56,76,1,threeone,,,,,,,,,,,,,,,,,,,,,,,,,,,,,,,,,,,,,,,,,,,,,,,,,,,,,,,,,,,,,,,,,,,,,,,,,,,,,,,,,,,,,,,,,,,,,,,,,,,,,,,,,,,,,,,,,,,,,,,,,,,,,,,,,,,,,,,,,,,,,,,,,,,,,,,,
,,,,,,6120e45c3837db7f72f82d50,62bbfacb53b7d8aac167c6f7,2022-06-29_09h10.49.295,Colour_Asymmetry_Pilot,2022.1.3,Win32,60.04563468,62bbe60bf3d75ef465d3e404,0,57,57,81,1,onethree,,,,,,,,,,,,,,,,,,,,,,,,,,,,,,,,,,,,,,,,,,,,,,,,,,,,,,,,,,,,,,,,,,,,,,,,,,,,,,,,,,,,,,,,,,,,,,,,,,,,,,,,,,,,,,,,,,,,,,,,,,,,,,,,,,,,,,,,,,,,,,,,,,,,,,,,
,,,,,,6120e45c3837db7f72f82d50,62bbfacb53b7d8aac167c6f7,2022-06-29_09h10.49.295,Colour_Asymmetry_Pilot,2022.1.3,Win32,60.04563468,62bbe60bf3d75ef465d3e404,0,58,58,22,1,fourtwo,,,,,,,,,,,,,,,,,,,,,,,,,,,,,,,,,,,,,,,,,,,,,,,,,,,,,,,,,,,,,,,,,,,,,,,,,,,,,,,,,,,,,,,,,,,,,,,,,,,,,,,,,,,,,,,,,,,,,,,,,,,,,,,,,,,,,,,,,,,,,,,,,,,,,,,,
,,,,,,6120e45c3837db7f72f82d50,62bbfacb53b7d8aac167c6f7,2022-06-29_09h10.49.295,Colour_Asymmetry_Pilot,2022.1.3,Win32,60.04563468,62bbe60bf3d75ef465d3e404,0,59,59,140,1,threeone,,,,,,,,,,,,,,,,,,,,,,,,,,,,,,,,,,,,,,,,,,,,,,,,,,,,,,,,,,,,,,,,,,,,,,,,,,,,,,,,,,,,,,,,,,,,,,,,,,,,,,,,,,,,,,,,,,,,,,,,,,,,,,,,,,,,,,,,,,,,,,,,,,,,,,,,
,,,,,,6120e45c3837db7f72f82d50,62bbfacb53b7d8aac167c6f7,2022-06-29_09h10.49.295,Colour_Asymmetry_Pilot,2022.1.3,Win32,60.04563468,62bbe60bf3d75ef465d3e404,0,60,60,32,1,onetwo,,,,,,,,,,,,,,,,,,,,,,,,,,,,,,,,,,,,,,,,,,,,,,,,,,,,,,,,,,,,,,,,,,,,,,,,,,,,,,,,,,,,,,,,,,,,,,,,,,,,,,,,,,,,,,,,,,,,,,,,,,,,,,,,,,,,,,,,,,,,,,,,,,,,,,,,
,,,,,,6120e45c3837db7f72f82d50,62bbfacb53b7d8aac167c6f7,2022-06-29_09h10.49.295,Colour_Asymmetry_Pilot,2022.1.3,Win32,60.04563468,62bbe60bf3d75ef465d3e404,0,61,61,79,1,fourthree,,,,,,,,,,,,,,,,,,,,,,,,,,,,,,,,,,,,,,,,,,,,,,,,,,,,,,,,,,,,,,,,,,,,,,,,,,,,,,,,,,,,,,,,,,,,,,,,,,,,,,,,,,,,,,,,,,,,,,,,,,,,,,,,,,,,,,,,,,,,,,,,,,,,,,,,
,,,,,,6120e45c3837db7f72f82d50,62bbfacb53b7d8aac167c6f7,2022-06-29_09h10.49.295,Colour_Asymmetry_Pilot,2022.1.3,Win32,60.04563468,62bbe60bf3d75ef465d3e404,0,62,62,38,1,fourtwo,,,,,,,,,,,,,,,,,,,,,,,,,,,,,,,,,,,,,,,,,,,,,,,,,,,,,,,,,,,,,,,,,,,,,,,,,,,,,,,,,,,,,,,,,,,,,,,,,,,,,,,,,,,,,,,,,,,,,,,,,,,,,,,,,,,,,,,,,,,,,,,,,,,,,,,,
,,,,,,6120e45c3837db7f72f82d50,62bbfacb53b7d8aac167c6f7,2022-06-29_09h10.49.295,Colour_Asymmetry_Pilot,2022.1.3,Win32,60.04563468,62bbe60bf3d75ef465d3e404,0,63,63,107,1,twofour,,,,,,,,,,,,,,,,,,,,,,,,,,,,,,,,,,,,,,,,,,,,,,,,,,,,,,,,,,,,,,,,,,,,,,,,,,,,,,,,,,,,,,,,,,,,,,,,,,,,,,,,,,,,,,,,,,,,,,,,,,,,,,,,,,,,,,,,,,,,,,,,,,,,,,,,
,,,,,,6120e45c3837db7f72f82d50,62bbfacb53b7d8aac167c6f7,2022-06-29_09h10.49.295,Colour_Asymmetry_Pilot,2022.1.3,Win32,60.04563468,62bbe60bf3d75ef465d3e404,0,64,64,53,1,threefour,,,,,,,,,,,,,,,,,,,,,,,,,,,,,,,,,,,,,,,,,,,,,,,,,,,,,,,,,,,,,,,,,,,,,,,,,,,,,,,,,,,,,,,,,,,,,,,,,,,,,,,,,,,,,,,,,,,,,,,,,,,,,,,,,,,,,,,,,,,,,,,,,,,,,,,,
,,,,,,6120e45c3837db7f72f82d50,62bbfacb53b7d8aac167c6f7,2022-06-29_09h10.49.295,Colour_Asymmetry_Pilot,2022.1.3,Win32,60.04563468,62bbe60bf3d75ef465d3e404,0,65,65,71,1,fourthree,,,,,,,,,,,,,,,,,,,,,,,,,,,,,,,,,,,,,,,,,,,,,,,,,,,,,,,,,,,,,,,,,,,,,,,,,,,,,,,,,,,,,,,,,,,,,,,,,,,,,,,,,,,,,,,,,,,,,,,,,,,,,,,,,,,,,,,,,,,,,,,,,,,,,,,,
,,,,,,6120e45c3837db7f72f82d50,62bbfacb53b7d8aac167c6f7,2022-06-29_09h10.49.295,Colour_Asymmetry_Pilot,2022.1.3,Win32,60.04563468,62bbe60bf3d75ef465d3e404,0,66,66,88,1,onetwo,,,,,,,,,,,,,,,,,,,,,,,,,,,,,,,,,,,,,,,,,,,,,,,,,,,,,,,,,,,,,,,,,,,,,,,,,,,,,,,,,,,,,,,,,,,,,,,,,,,,,,,,,,,,,,,,,,,,,,,,,,,,,,,,,,,,,,,,,,,,,,,,,,,,,,,,
,,,,,,6120e45c3837db7f72f82d50,62bbfacb53b7d8aac167c6f7,2022-06-29_09h10.49.295,Colour_Asymmetry_Pilot,2022.1.3,Win32,60.04563468,62bbe60bf3d75ef465d3e404,0,67,67,55,1,fourthree,,,,,,,,,,,,,,,,,,,,,,,,,,,,,,,,,,,,,,,,,,,,,,,,,,,,,,,,,,,,,,,,,,,,,,,,,,,,,,,,,,,,,,,,,,,,,,,,,,,,,,,,,,,,,,,,,,,,,,,,,,,,,,,,,,,,,,,,,,,,,,,,,,,,,,,,
,,,,,,6120e45c3837db7f72f82d50,62bbfacb53b7d8aac167c6f7,2022-06-29_09h10.49.295,Colour_Asymmetry_Pilot,2022.1.3,Win32,60.04563468,62bbe60bf3d75ef465d3e404,0,68,68,13,1,threefour,,,,,,,,,,,,,,,,,,,,,,,,,,,,,,,,,,,,,,,,,,,,,,,,,,,,,,,,,,,,,,,,,,,,,,,,,,,,,,,,,,,,,,,,,,,,,,,,,,,,,,,,,,,,,,,,,,,,,,,,,,,,,,,,,,,,,,,,,,,,,,,,,,,,,,,,
,,,,,,6120e45c3837db7f72f82d50,62bbfacb53b7d8aac167c6f7,2022-06-29_09h10.49.295,Colour_Asymmetry_Pilot,2022.1.3,Win32,60.04563468,62bbe60bf3d75ef465d3e404,0,69,69,139,1,twofour,,,,,,,,,,,,,,,,,,,,,,,,,,,,,,,,,,,,,,,,,,,,,,,,,,,,,,,,,,,,,,,,,,,,,,,,,,,,,,,,,,,,,,,,,,,,,,,,,,,,,,,,,,,,,,,,,,,,,,,,,,,,,,,,,,,,,,,,,,,,,,,,,,,,,,,,
,,,,,,6120e45c3837db7f72f82d50,62bbfacb53b7d8aac167c6f7,2022-06-29_09h10.49.295,Colour_Asymmetry_Pilot,2022.1.3,Win32,60.04563468,62bbe60bf3d75ef465d3e404,0,70,70,147,1,twofour,,,,,,,,,,,,,,,,,,,,,,,,,,,,,,,,,,,,,,,,,,,,,,,,,,,,,,,,,,,,,,,,,,,,,,,,,,,,,,,,,,,,,,,,,,,,,,,,,,,,,,,,,,,,,,,,,,,,,,,,,,,,,,,,,,,,,,,,,,,,,,,,,,,,,,,,
,,,,,,6120e45c3837db7f72f82d50,62bbfacb53b7d8aac167c6f7,2022-06-29_09h10.49.295,Colour_Asymmetry_Pilot,2022.1.3,Win32,60.04563468,62bbe60bf3d75ef465d3e404,0,71,71,116,1,threeone,,,,,,,,,,,,,,,,,,,,,,,,,,,,,,,,,,,,,,,,,,,,,,,,,,,,,,,,,,,,,,,,,,,,,,,,,,,,,,,,,,,,,,,,,,,,,,,,,,,,,,,,,,,,,,,,,,,,,,,,,,,,,,,,,,,,,,,,,,,,,,,,,,,,,,,,
,,,,,,6120e45c3837db7f72f82d50,62bbfacb53b7d8aac167c6f7,2022-06-29_09h10.49.295,Colour_Asymmetry_Pilot,2022.1.3,Win32,60.04563468,62bbe60bf3d75ef465d3e404,0,72,72,159,1,fourthree,,,,,,,,,,,,,,,,,,,,,,,,,,,,,,,,,,,,,,,,,,,,,,,,,,,,,,,,,,,,,,,,,,,,,,,,,,,,,,,,,,,,,,,,,,,,,,,,,,,,,,,,,,,,,,,,,,,,,,,,,,,,,,,,,,,,,,,,,,,,,,,,,,,,,,,,
,,,,,,6120e45c3837db7f72f82d50,62bbfacb53b7d8aac167c6f7,2022-06-29_09h10.49.295,Colour_Asymmetry_Pilot,2022.1.3,Win32,60.04563468,62bbe60bf3d75ef465d3e404,0,73,73,128,1,onetwo,,,,,,,,,,,,,,,,,,,,,,,,,,,,,,,,,,,,,,,,,,,,,,,,,,,,,,,,,,,,,,,,,,,,,,,,,,,,,,,,,,,,,,,,,,,,,,,,,,,,,,,,,,,,,,,,,,,,,,,,,,,,,,,,,,,,,,,,,,,,,,,,,,,,,,,,
,,,,,,6120e45c3837db7f72f82d50,62bbfacb53b7d8aac167c6f7,2022-06-29_09h10.49.295,Colour_Asymmetry_Pilot,2022.1.3,Win32,60.04563468,62bbe60bf3d75ef465d3e404,0,74,74,124,1,threeone,,,,,,,,,,,,,,,,,,,,,,,,,,,,,,,,,,,,,,,,,,,,,,,,,,,,,,,,,,,,,,,,,,,,,,,,,,,,,,,,,,,,,,,,,,,,,,,,,,,,,,,,,,,,,,,,,,,,,,,,,,,,,,,,,,,,,,,,,,,,,,,,,,,,,,,,
,,,,,,6120e45c3837db7f72f82d50,62bbfacb53b7d8aac167c6f7,2022-06-29_09h10.49.295,Colour_Asymmetry_Pilot,2022.1.3,Win32,60.04563468,62bbe60bf3d75ef465d3e404,0,75,75,121,1,onethree,,,,,,,,,,,,,,,,,,,,,,,,,,,,,,,,,,,,,,,,,,,,,,,,,,,,,,,,,,,,,,,,,,,,,,,,,,,,,,,,,,,,,,,,,,,,,,,,,,,,,,,,,,,,,,,,,,,,,,,,,,,,,,,,,,,,,,,,,,,,,,,,,,,,,,,,
,,,,,,6120e45c3837db7f72f82d50,62bbfacb53b7d8aac167c6f7,2022-06-29_09h10.49.295,Colour_Asymmetry_Pilot,2022.1.3,Win32,60.04563468,62bbe60bf3d75ef465d3e404,0,76,76,45,1,threefour,,,,,,,,,,,,,,,,,,,,,,,,,,,,,,,,,,,,,,,,,,,,,,,,,,,,,,,,,,,,,,,,,,,,,,,,,,,,,,,,,,,,,,,,,,,,,,,,,,,,,,,,,,,,,,,,,,,,,,,,,,,,,,,,,,,,,,,,,,,,,,,,,,,,,,,,
,,,,,,6120e45c3837db7f72f82d50,62bbfacb53b7d8aac167c6f7,2022-06-29_09h10.49.295,Colour_Asymmetry_Pilot,2022.1.3,Win32,60.04563468,62bbe60bf3d75ef465d3e404,0,77,77,4,1,threeone,,,,,,,,,,,,,,,,,,,,,,,,,,,,,,,,,,,,,,,,,,,,,,,,,,,,,,,,,,,,,,,,,,,,,,,,,,,,,,,,,,,,,,,,,,,,,,,,,,,,,,,,,,,,,,,,,,,,,,,,,,,,,,,,,,,,,,,,,,,,,,,,,,,,,,,,
,,,,,,6120e45c3837db7f72f82d50,62bbfacb53b7d8aac167c6f7,2022-06-29_09h10.49.295,Colour_Asymmetry_Pilot,2022.1.3,Win32,60.04563468,62bbe60bf3d75ef465d3e404,0,78,78,25,1,onethree,,,,,,,,,,,,,,,,,,,,,,,,,,,,,,,,,,,,,,,,,,,,,,,,,,,,,,,,,,,,,,,,,,,,,,,,,,,,,,,,,,,,,,,,,,,,,,,,,,,,,,,,,,,,,,,,,,,,,,,,,,,,,,,,,,,,,,,,,,,,,,,,,,,,,,,,
,,,,,,6120e45c3837db7f72f82d50,62bbfacb53b7d8aac167c6f7,2022-06-29_09h10.49.295,Colour_Asymmetry_Pilot,2022.1.3,Win32,60.04563468,62bbe60bf3d75ef465d3e404,0,79,79,63,1,fourthree,,,,,,,,,,,,,,,,,,,,,,,,,,,,,,,,,,,,,,,,,,,,,,,,,,,,,,,,,,,,,,,,,,,,,,,,,,,,,,,,,,,,,,,,,,,,,,,,,,,,,,,,,,,,,,,,,,,,,,,,,,,,,,,,,,,,,,,,,,,,,,,,,,,,,,,,
,,,,,,6120e45c3837db7f72f82d50,62bbfacb53b7d8aac167c6f7,2022-06-29_09h10.49.295,Colour_Asymmetry_Pilot,2022.1.3,Win32,60.04563468,62bbe60bf3d75ef465d3e404,0,80,80,101,1,threefour,,,,,,,,,,,,,,,,,,,,,,,,,,,,,,,,,,,,,,,,,,,,,,,,,,,,,,,,,,,,,,,,,,,,,,,,,,,,,,,,,,,,,,,,,,,,,,,,,,,,,,,,,,,,,,,,,,,,,,,,,,,,,,,,,,,,,,,,,,,,,,,,,,,,,,,,
,,,,,,6120e45c3837db7f72f82d50,62bbfacb53b7d8aac167c6f7,2022-06-29_09h10.49.295,Colour_Asymmetry_Pilot,2022.1.3,Win32,60.04563468,62bbe60bf3d75ef465d3e404,0,81,81,57,1,onethree,,,,,,,,,,,,,,,,,,,,,,,,,,,,,,,,,,,,,,,,,,,,,,,,,,,,,,,,,,,,,,,,,,,,,,,,,,,,,,,,,,,,,,,,,,,,,,,,,,,,,,,,,,,,,,,,,,,,,,,,,,,,,,,,,,,,,,,,,,,,,,,,,,,,,,,,
,,,,,,6120e45c3837db7f72f82d50,62bbfacb53b7d8aac167c6f7,2022-06-29_09h10.49.295,Colour_Asymmetry_Pilot,2022.1.3,Win32,60.04563468,62bbe60bf3d75ef465d3e404,0,82,82,129,1,onethree,,,,,,,,,,,,,,,,,,,,,,,,,,,,,,,,,,,,,,,,,,,,,,,,,,,,,,,,,,,,,,,,,,,,,,,,,,,,,,,,,,,,,,,,,,,,,,,,,,,,,,,,,,,,,,,,,,,,,,,,,,,,,,,,,,,,,,,,,,,,,,,,,,,,,,,,
,,,,,,6120e45c3837db7f72f82d50,62bbfacb53b7d8aac167c6f7,2022-06-29_09h10.49.295,Colour_Asymmetry_Pilot,2022.1.3,Win32,60.04563468,62bbe60bf3d75ef465d3e404,0,83,83,85,1,threefour,,,,,,,,,,,,,,,,,,,,,,,,,,,,,,,,,,,,,,,,,,,,,,,,,,,,,,,,,,,,,,,,,,,,,,,,,,,,,,,,,,,,,,,,,,,,,,,,,,,,,,,,,,,,,,,,,,,,,,,,,,,,,,,,,,,,,,,,,,,,,,,,,,,,,,,,
,,,,,,6120e45c3837db7f72f82d50,62bbfacb53b7d8aac167c6f7,2022-06-29_09h10.49.295,Colour_Asymmetry_Pilot,2022.1.3,Win32,60.04563468,62bbe60bf3d75ef465d3e404,0,84,84,3,1,twofour,,,,,,,,,,,,,,,,,,,,,,,,,,,,,,,,,,,,,,,,,,,,,,,,,,,,,,,,,,,,,,,,,,,,,,,,,,,,,,,,,,,,,,,,,,,,,,,,,,,,,,,,,,,,,,,,,,,,,,,,,,,,,,,,,,,,,,,,,,,,,,,,,,,,,,,,
,,,,,,6120e45c3837db7f72f82d50,62bbfacb53b7d8aac167c6f7,2022-06-29_09h10.49.295,Colour_Asymmetry_Pilot,2022.1.3,Win32,60.04563468,62bbe60bf3d75ef465d3e404,0,85,85,58,1,twoone,,,,,,,,,,,,,,,,,,,,,,,,,,,,,,,,,,,,,,,,,,,,,,,,,,,,,,,,,,,,,,,,,,,,,,,,,,,,,,,,,,,,,,,,,,,,,,,,,,,,,,,,,,,,,,,,,,,,,,,,,,,,,,,,,,,,,,,,,,,,,,,,,,,,,,,,
,,,,,,6120e45c3837db7f72f82d50,62bbfacb53b7d8aac167c6f7,2022-06-29_09h10.49.295,Colour_Asymmetry_Pilot,2022.1.3,Win32,60.04563468,62bbe60bf3d75ef465d3e404,0,86,86,146,1,twoone,,,,,,,,,,,,,,,,,,,,,,,,,,,,,,,,,,,,,,,,,,,,,,,,,,,,,,,,,,,,,,,,,,,,,,,,,,,,,,,,,,,,,,,,,,,,,,,,,,,,,,,,,,,,,,,,,,,,,,,,,,,,,,,,,,,,,,,,,,,,,,,,,,,,,,,,
,,,,,,6120e45c3837db7f72f82d50,62bbfacb53b7d8aac167c6f7,2022-06-29_09h10.49.295,Colour_Asymmetry_Pilot,2022.1.3,Win32,60.04563468,62bbe60bf3d75ef465d3e404,0,87,87,24,1,onetwo,,,,,,,,,,,,,,,,,,,,,,,,,,,,,,,,,,,,,,,,,,,,,,,,,,,,,,,,,,,,,,,,,,,,,,,,,,,,,,,,,,,,,,,,,,,,,,,,,,,,,,,,,,,,,,,,,,,,,,,,,,,,,,,,,,,,,,,,,,,,,,,,,,,,,,,,
,,,,,,6120e45c3837db7f72f82d50,62bbfacb53b7d8aac167c6f7,2022-06-29_09h10.49.295,Colour_Asymmetry_Pilot,2022.1.3,Win32,60.04563468,62bbe60bf3d75ef465d3e404,0,88,88,0,1,onetwo,,,,,,,,,,,,,,,,,,,,,,,,,,,,,,,,,,,,,,,,,,,,,,,,,,,,,,,,,,,,,,,,,,,,,,,,,,,,,,,,,,,,,,,,,,,,,,,,,,,,,,,,,,,,,,,,,,,,,,,,,,,,,,,,,,,,,,,,,,,,,,,,,,,,,,,,
,,,,,,6120e45c3837db7f72f82d50,62bbfacb53b7d8aac167c6f7,2022-06-29_09h10.49.295,Colour_Asymmetry_Pilot,2022.1.3,Win32,60.04563468,62bbe60bf3d75ef465d3e404,0,89,89,114,1,twoone,,,,,,,,,,,,,,,,,,,,,,,,,,,,,,,,,,,,,,,,,,,,,,,,,,,,,,,,,,,,,,,,,,,,,,,,,,,,,,,,,,,,,,,,,,,,,,,,,,,,,,,,,,,,,,,,,,,,,,,,,,,,,,,,,,,,,,,,,,,,,,,,,,,,,,,,
,,,,,,6120e45c3837db7f72f82d50,62bbfacb53b7d8aac167c6f7,2022-06-29_09h10.49.295,Colour_Asymmetry_Pilot,2022.1.3,Win32,60.04563468,62bbe60bf3d75ef465d3e404,0,90,90,134,1,fourtwo,,,,,,,,,,,,,,,,,,,,,,,,,,,,,,,,,,,,,,,,,,,,,,,,,,,,,,,,,,,,,,,,,,,,,,,,,,,,,,,,,,,,,,,,,,,,,,,,,,,,,,,,,,,,,,,,,,,,,,,,,,,,,,,,,,,,,,,,,,,,,,,,,,,,,,,,
,,,,,,6120e45c3837db7f72f82d50,62bbfacb53b7d8aac167c6f7,2022-06-29_09h10.49.295,Colour_Asymmetry_Pilot,2022.1.3,Win32,60.04563468,62bbe60bf3d75ef465d3e404,0,91,91,78,1,fourtwo,,,,,,,,,,,,,,,,,,,,,,,,,,,,,,,,,,,,,,,,,,,,,,,,,,,,,,,,,,,,,,,,,,,,,,,,,,,,,,,,,,,,,,,,,,,,,,,,,,,,,,,,,,,,,,,,,,,,,,,,,,,,,,,,,,,,,,,,,,,,,,,,,,,,,,,,
,,,,,,6120e45c3837db7f72f82d50,62bbfacb53b7d8aac167c6f7,2022-06-29_09h10.49.295,Colour_Asymmetry_Pilot,2022.1.3,Win32,60.04563468,62bbe60bf3d75ef465d3e404,0,92,92,142,1,fourtwo,,,,,,,,,,,,,,,,,,,,,,,,,,,,,,,,,,,,,,,,,,,,,,,,,,,,,,,,,,,,,,,,,,,,,,,,,,,,,,,,,,,,,,,,,,,,,,,,,,,,,,,,,,,,,,,,,,,,,,,,,,,,,,,,,,,,,,,,,,,,,,,,,,,,,,,,
,,,,,,6120e45c3837db7f72f82d50,62bbfacb53b7d8aac167c6f7,2022-06-29_09h10.49.295,Colour_Asymmetry_Pilot,2022.1.3,Win32,60.04563468,62bbe60bf3d75ef465d3e404,0,93,93,9,1,onethree,,,,,,,,,,,,,,,,,,,,,,,,,,,,,,,,,,,,,,,,,,,,,,,,,,,,,,,,,,,,,,,,,,,,,,,,,,,,,,,,,,,,,,,,,,,,,,,,,,,,,,,,,,,,,,,,,,,,,,,,,,,,,,,,,,,,,,,,,,,,,,,,,,,,,,,,
,,,,,,6120e45c3837db7f72f82d50,62bbfacb53b7d8aac167c6f7,2022-06-29_09h10.49.295,Colour_Asymmetry_Pilot,2022.1.3,Win32,60.04563468,62bbe60bf3d75ef465d3e404,0,94,94,56,1,onetwo,,,,,,,,,,,,,,,,,,,,,,,,,,,,,,,,,,,,,,,,,,,,,,,,,,,,,,,,,,,,,,,,,,,,,,,,,,,,,,,,,,,,,,,,,,,,,,,,,,,,,,,,,,,,,,,,,,,,,,,,,,,,,,,,,,,,,,,,,,,,,,,,,,,,,,,,
,,,,,,6120e45c3837db7f72f82d50,62bbfacb53b7d8aac167c6f7,2022-06-29_09h10.49.295,Colour_Asymmetry_Pilot,2022.1.3,Win32,60.04563468,62bbe60bf3d75ef465d3e404,0,95,95,157,1,threefour,,,,,,,,,,,,,,,,,,,,,,,,,,,,,,,,,,,,,,,,,,,,,,,,,,,,,,,,,,,,,,,,,,,,,,,,,,,,,,,,,,,,,,,,,,,,,,,,,,,,,,,,,,,,,,,,,,,,,,,,,,,,,,,,,,,,,,,,,,,,,,,,,,,,,,,,
,,,,,,6120e45c3837db7f72f82d50,62bbfacb53b7d8aac167c6f7,2022-06-29_09h10.49.295,Colour_Asymmetry_Pilot,2022.1.3,Win32,60.04563468,62bbe60bf3d75ef465d3e404,0,96,96,14,1,fourtwo,,,,,,,,,,,,,,,,,,,,,,,,,,,,,,,,,,,,,,,,,,,,,,,,,,,,,,,,,,,,,,,,,,,,,,,,,,,,,,,,,,,,,,,,,,,,,,,,,,,,,,,,,,,,,,,,,,,,,,,,,,,,,,,,,,,,,,,,,,,,,,,,,,,,,,,,
,,,,,,6120e45c3837db7f72f82d50,62bbfacb53b7d8aac167c6f7,2022-06-29_09h10.49.295,Colour_Asymmetry_Pilot,2022.1.3,Win32,60.04563468,62bbe60bf3d75ef465d3e404,0,97,97,105,1,onethree,,,,,,,,,,,,,,,,,,,,,,,,,,,,,,,,,,,,,,,,,,,,,,,,,,,,,,,,,,,,,,,,,,,,,,,,,,,,,,,,,,,,,,,,,,,,,,,,,,,,,,,,,,,,,,,,,,,,,,,,,,,,,,,,,,,,,,,,,,,,,,,,,,,,,,,,
,,,,,,6120e45c3837db7f72f82d50,62bbfacb53b7d8aac167c6f7,2022-06-29_09h10.49.295,Colour_Asymmetry_Pilot,2022.1.3,Win32,60.04563468,62bbe60bf3d75ef465d3e404,0,98,98,44,1,threeone,,,,,,,,,,,,,,,,,,,,,,,,,,,,,,,,,,,,,,,,,,,,,,,,,,,,,,,,,,,,,,,,,,,,,,,,,,,,,,,,,,,,,,,,,,,,,,,,,,,,,,,,,,,,,,,,,,,,,,,,,,,,,,,,,,,,,,,,,,,,,,,,,,,,,,,,
,,,,,,6120e45c3837db7f72f82d50,62bbfacb53b7d8aac167c6f7,2022-06-29_09h10.49.295,Colour_Asymmetry_Pilot,2022.1.3,Win32,60.04563468,62bbe60bf3d75ef465d3e404,0,99,99,62,1,fourtwo,,,,,,,,,,,,,,,,,,,,,,,,,,,,,,,,,,,,,,,,,,,,,,,,,,,,,,,,,,,,,,,,,,,,,,,,,,,,,,,,,,,,,,,,,,,,,,,,,,,,,,,,,,,,,,,,,,,,,,,,,,,,,,,,,,,,,,,,,,,,,,,,,,,,,,,,
,,,,,,6120e45c3837db7f72f82d50,62bbfacb53b7d8aac167c6f7,2022-06-29_09h10.49.295,Colour_Asymmetry_Pilot,2022.1.3,Win32,60.04563468,62bbe60bf3d75ef465d3e404,0,100,100,68,1,threeone,,,,,,,,,,,,,,,,,,,,,,,,,,,,,,,,,,,,,,,,,,,,,,,,,,,,,,,,,,,,,,,,,,,,,,,,,,,,,,,,,,,,,,,,,,,,,,,,,,,,,,,,,,,,,,,,,,,,,,,,,,,,,,,,,,,,,,,,,,,,,,,,,,,,,,,,
,,,,,,6120e45c3837db7f72f82d50,62bbfacb53b7d8aac167c6f7,2022-06-29_09h10.49.295,Colour_Asymmetry_Pilot,2022.1.3,Win32,60.04563468,62bbe60bf3d75ef465d3e404,0,101,101,156,1,threeone,,,,,,,,,,,,,,,,,,,,,,,,,,,,,,,,,,,,,,,,,,,,,,,,,,,,,,,,,,,,,,,,,,,,,,,,,,,,,,,,,,,,,,,,,,,,,,,,,,,,,,,,,,,,,,,,,,,,,,,,,,,,,,,,,,,,,,,,,,,,,,,,,,,,,,,,
,,,,,,6120e45c3837db7f72f82d50,62bbfacb53b7d8aac167c6f7,2022-06-29_09h10.49.295,Colour_Asymmetry_Pilot,2022.1.3,Win32,60.04563468,62bbe60bf3d75ef465d3e404,0,102,102,155,1,twofour,,,,,,,,,,,,,,,,,,,,,,,,,,,,,,,,,,,,,,,,,,,,,,,,,,,,,,,,,,,,,,,,,,,,,,,,,,,,,,,,,,,,,,,,,,,,,,,,,,,,,,,,,,,,,,,,,,,,,,,,,,,,,,,,,,,,,,,,,,,,,,,,,,,,,,,,
,,,,,,6120e45c3837db7f72f82d50,62bbfacb53b7d8aac167c6f7,2022-06-29_09h10.49.295,Colour_Asymmetry_Pilot,2022.1.3,Win32,60.04563468,62bbe60bf3d75ef465d3e404,0,103,103,73,1,onethree,,,,,,,,,,,,,,,,,,,,,,,,,,,,,,,,,,,,,,,,,,,,,,,,,,,,,,,,,,,,,,,,,,,,,,,,,,,,,,,,,,,,,,,,,,,,,,,,,,,,,,,,,,,,,,,,,,,,,,,,,,,,,,,,,,,,,,,,,,,,,,,,,,,,,,,,
,,,,,,6120e45c3837db7f72f82d50,62bbfacb53b7d8aac167c6f7,2022-06-29_09h10.49.295,Colour_Asymmetry_Pilot,2022.1.3,Win32,60.04563468,62bbe60bf3d75ef465d3e404,0,104,104,59,1,twofour,,,,,,,,,,,,,,,,,,,,,,,,,,,,,,,,,,,,,,,,,,,,,,,,,,,,,,,,,,,,,,,,,,,,,,,,,,,,,,,,,,,,,,,,,,,,,,,,,,,,,,,,,,,,,,,,,,,,,,,,,,,,,,,,,,,,,,,,,,,,,,,,,,,,,,,,
,,,,,,6120e45c3837db7f72f82d50,62bbfacb53b7d8aac167c6f7,2022-06-29_09h10.49.295,Colour_Asymmetry_Pilot,2022.1.3,Win32,60.04563468,62bbe60bf3d75ef465d3e404,0,105,105,96,1,onetwo,,,,,,,,,,,,,,,,,,,,,,,,,,,,,,,,,,,,,,,,,,,,,,,,,,,,,,,,,,,,,,,,,,,,,,,,,,,,,,,,,,,,,,,,,,,,,,,,,,,,,,,,,,,,,,,,,,,,,,,,,,,,,,,,,,,,,,,,,,,,,,,,,,,,,,,,
,,,,,,6120e45c3837db7f72f82d50,62bbfacb53b7d8aac167c6f7,2022-06-29_09h10.49.295,Colour_Asymmetry_Pilot,2022.1.3,Win32,60.04563468,62bbe60bf3d75ef465d3e404,0,106,106,97,1,onethree,,,,,,,,,,,,,,,,,,,,,,,,,,,,,,,,,,,,,,,,,,,,,,,,,,,,,,,,,,,,,,,,,,,,,,,,,,,,,,,,,,,,,,,,,,,,,,,,,,,,,,,,,,,,,,,,,,,,,,,,,,,,,,,,,,,,,,,,,,,,,,,,,,,,,,,,
,,,,,,6120e45c3837db7f72f82d50,62bbfacb53b7d8aac167c6f7,2022-06-29_09h10.49.295,Colour_Asymmetry_Pilot,2022.1.3,Win32,60.04563468,62bbe60bf3d75ef465d3e404,0,107,107,98,1,twoone,,,,,,,,,,,,,,,,,,,,,,,,,,,,,,,,,,,,,,,,,,,,,,,,,,,,,,,,,,,,,,,,,,,,,,,,,,,,,,,,,,,,,,,,,,,,,,,,,,,,,,,,,,,,,,,,,,,,,,,,,,,,,,,,,,,,,,,,,,,,,,,,,,,,,,,,
,,,,,,6120e45c3837db7f72f82d50,62bbfacb53b7d8aac167c6f7,2022-06-29_09h10.49.295,Colour_Asymmetry_Pilot,2022.1.3,Win32,60.04563468,62bbe60bf3d75ef465d3e404,0,108,108,19,1,twofour,,,,,,,,,,,,,,,,,,,,,,,,,,,,,,,,,,,,,,,,,,,,,,,,,,,,,,,,,,,,,,,,,,,,,,,,,,,,,,,,,,,,,,,,,,,,,,,,,,,,,,,,,,,,,,,,,,,,,,,,,,,,,,,,,,,,,,,,,,,,,,,,,,,,,,,,
,,,,,,6120e45c3837db7f72f82d50,62bbfacb53b7d8aac167c6f7,2022-06-29_09h10.49.295,Colour_Asymmetry_Pilot,2022.1.3,Win32,60.04563468,62bbe60bf3d75ef465d3e404,0,109,109,160,1,onetwo,,,,,,,,,,,,,,,,,,,,,,,,,,,,,,,,,,,,,,,,,,,,,,,,,,,,,,,,,,,,,,,,,,,,,,,,,,,,,,,,,,,,,,,,,,,,,,,,,,,,,,,,,,,,,,,,,,,,,,,,,,,,,,,,,,,,,,,,,,,,,,,,,,,,,,,,
,,,,,,6120e45c3837db7f72f82d50,62bbfacb53b7d8aac167c6f7,2022-06-29_09h10.49.295,Colour_Asymmetry_Pilot,2022.1.3,Win32,60.04563468,62bbe60bf3d75ef465d3e404,0,110,110,47,1,fourthree,,,,,,,,,,,,,,,,,,,,,,,,,,,,,,,,,,,,,,,,,,,,,,,,,,,,,,,,,,,,,,,,,,,,,,,,,,,,,,,,,,,,,,,,,,,,,,,,,,,,,,,,,,,,,,,,,,,,,,,,,,,,,,,,,,,,,,,,,,,,,,,,,,,,,,,,
,,,,,,6120e45c3837db7f72f82d50,62bbfacb53b7d8aac167c6f7,2022-06-29_09h10.49.295,Colour_Asymmetry_Pilot,2022.1.3,Win32,60.04563468,62bbe60bf3d75ef465d3e404,0,111,111,132,1,threeone,,,,,,,,,,,,,,,,,,,,,,,,,,,,,,,,,,,,,,,,,,,,,,,,,,,,,,,,,,,,,,,,,,,,,,,,,,,,,,,,,,,,,,,,,,,,,,,,,,,,,,,,,,,,,,,,,,,,,,,,,,,,,,,,,,,,,,,,,,,,,,,,,,,,,,,,
,,,,,,6120e45c3837db7f72f82d50,62bbfacb53b7d8aac167c6f7,2022-06-29_09h10.49.295,Colour_Asymmetry_Pilot,2022.1.3,Win32,60.04563468,62bbe60bf3d75ef465d3e404,0,112,112,117,1,threefour,,,,,,,,,,,,,,,,,,,,,,,,,,,,,,,,,,,,,,,,,,,,,,,,,,,,,,,,,,,,,,,,,,,,,,,,,,,,,,,,,,,,,,,,,,,,,,,,,,,,,,,,,,,,,,,,,,,,,,,,,,,,,,,,,,,,,,,,,,,,,,,,,,,,,,,,
,,,,,,6120e45c3837db7f72f82d50,62bbfacb53b7d8aac167c6f7,2022-06-29_09h10.49.295,Colour_Asymmetry_Pilot,2022.1.3,Win32,60.04563468,62bbe60bf3d75ef465d3e404,0,113,113,118,1,fourtwo,,,,,,,,,,,,,,,,,,,,,,,,,,,,,,,,,,,,,,,,,,,,,,,,,,,,,,,,,,,,,,,,,,,,,,,,,,,,,,,,,,,,,,,,,,,,,,,,,,,,,,,,,,,,,,,,,,,,,,,,,,,,,,,,,,,,,,,,,,,,,,,,,,,,,,,,
,,,,,,6120e45c3837db7f72f82d50,62bbfacb53b7d8aac167c6f7,2022-06-29_09h10.49.295,Colour_Asymmetry_Pilot,2022.1.3,Win32,60.04563468,62bbe60bf3d75ef465d3e404,0,114,114,87,1,fourthree,,,,,,,,,,,,,,,,,,,,,,,,,,,,,,,,,,,,,,,,,,,,,,,,,,,,,,,,,,,,,,,,,,,,,,,,,,,,,,,,,,,,,,,,,,,,,,,,,,,,,,,,,,,,,,,,,,,,,,,,,,,,,,,,,,,,,,,,,,,,,,,,,,,,,,,,
,,,,,,6120e45c3837db7f72f82d50,62bbfacb53b7d8aac167c6f7,2022-06-29_09h10.49.295,Colour_Asymmetry_Pilot,2022.1.3,Win32,60.04563468,62bbe60bf3d75ef465d3e404,0,115,115,70,1,fourtwo,,,,,,,,,,,,,,,,,,,,,,,,,,,,,,,,,,,,,,,,,,,,,,,,,,,,,,,,,,,,,,,,,,,,,,,,,,,,,,,,,,,,,,,,,,,,,,,,,,,,,,,,,,,,,,,,,,,,,,,,,,,,,,,,,,,,,,,,,,,,,,,,,,,,,,,,
,,,,,,6120e45c3837db7f72f82d50,62bbfacb53b7d8aac167c6f7,2022-06-29_09h10.49.295,Colour_Asymmetry_Pilot,2022.1.3,Win32,60.04563468,62bbe60bf3d75ef465d3e404,0,116,116,20,1,threeone,,,,,,,,,,,,,,,,,,,,,,,,,,,,,,,,,,,,,,,,,,,,,,,,,,,,,,,,,,,,,,,,,,,,,,,,,,,,,,,,,,,,,,,,,,,,,,,,,,,,,,,,,,,,,,,,,,,,,,,,,,,,,,,,,,,,,,,,,,,,,,,,,,,,,,,,
,,,,,,6120e45c3837db7f72f82d50,62bbfacb53b7d8aac167c6f7,2022-06-29_09h10.49.295,Colour_Asymmetry_Pilot,2022.1.3,Win32,60.04563468,62bbe60bf3d75ef465d3e404,0,117,117,46,1,fourtwo,,,,,,,,,,,,,,,,,,,,,,,,,,,,,,,,,,,,,,,,,,,,,,,,,,,,,,,,,,,,,,,,,,,,,,,,,,,,,,,,,,,,,,,,,,,,,,,,,,,,,,,,,,,,,,,,,,,,,,,,,,,,,,,,,,,,,,,,,,,,,,,,,,,,,,,,
,,,,,,6120e45c3837db7f72f82d50,62bbfacb53b7d8aac167c6f7,2022-06-29_09h10.49.295,Colour_Asymmetry_Pilot,2022.1.3,Win32,60.04563468,62bbe60bf3d75ef465d3e404,0,118,118,42,1,twoone,,,,,,,,,,,,,,,,,,,,,,,,,,,,,,,,,,,,,,,,,,,,,,,,,,,,,,,,,,,,,,,,,,,,,,,,,,,,,,,,,,,,,,,,,,,,,,,,,,,,,,,,,,,,,,,,,,,,,,,,,,,,,,,,,,,,,,,,,,,,,,,,,,,,,,,,
,,,,,,6120e45c3837db7f72f82d50,62bbfacb53b7d8aac167c6f7,2022-06-29_09h10.49.295,Colour_Asymmetry_Pilot,2022.1.3,Win32,60.04563468,62bbe60bf3d75ef465d3e404,0,119,119,119,1,fourthree,,,,,,,,,,,,,,,,,,,,,,,,,,,,,,,,,,,,,,,,,,,,,,,,,,,,,,,,,,,,,,,,,,,,,,,,,,,,,,,,,,,,,,,,,,,,,,,,,,,,,,,,,,,,,,,,,,,,,,,,,,,,,,,,,,,,,,,,,,,,,,,,,,,,,,,,
,,,,,,6120e45c3837db7f72f82d50,62bbfacb53b7d8aac167c6f7,2022-06-29_09h10.49.295,Colour_Asymmetry_Pilot,2022.1.3,Win32,60.04563468,62bbe60bf3d75ef465d3e404,0,120,120,67,1,twofour,,,,,,,,,,,,,,,,,,,,,,,,,,,,,,,,,,,,,,,,,,,,,,,,,,,,,,,,,,,,,,,,,,,,,,,,,,,,,,,,,,,,,,,,,,,,,,,,,,,,,,,,,,,,,,,,,,,,,,,,,,,,,,,,,,,,,,,,,,,,,,,,,,,,,,,,
,,,,,,6120e45c3837db7f72f82d50,62bbfacb53b7d8aac167c6f7,2022-06-29_09h10.49.295,Colour_Asymmetry_Pilot,2022.1.3,Win32,60.04563468,62bbe60bf3d75ef465d3e404,0,121,121,103,1,fourthree,,,,,,,,,,,,,,,,,,,,,,,,,,,,,,,,,,,,,,,,,,,,,,,,,,,,,,,,,,,,,,,,,,,,,,,,,,,,,,,,,,,,,,,,,,,,,,,,,,,,,,,,,,,,,,,,,,,,,,,,,,,,,,,,,,,,,,,,,,,,,,,,,,,,,,,,
,,,,,,6120e45c3837db7f72f82d50,62bbfacb53b7d8aac167c6f7,2022-06-29_09h10.49.295,Colour_Asymmetry_Pilot,2022.1.3,Win32,60.04563468,62bbe60bf3d75ef465d3e404,0,122,122,15,1,fourthree,,,,,,,,,,,,,,,,,,,,,,,,,,,,,,,,,,,,,,,,,,,,,,,,,,,,,,,,,,,,,,,,,,,,,,,,,,,,,,,,,,,,,,,,,,,,,,,,,,,,,,,,,,,,,,,,,,,,,,,,,,,,,,,,,,,,,,,,,,,,,,,,,,,,,,,,
,,,,,,6120e45c3837db7f72f82d50,62bbfacb53b7d8aac167c6f7,2022-06-29_09h10.49.295,Colour_Asymmetry_Pilot,2022.1.3,Win32,60.04563468,62bbe60bf3d75ef465d3e404,0,123,123,8,1,onetwo,,,,,,,,,,,,,,,,,,,,,,,,,,,,,,,,,,,,,,,,,,,,,,,,,,,,,,,,,,,,,,,,,,,,,,,,,,,,,,,,,,,,,,,,,,,,,,,,,,,,,,,,,,,,,,,,,,,,,,,,,,,,,,,,,,,,,,,,,,,,,,,,,,,,,,,,
,,,,,,6120e45c3837db7f72f82d50,62bbfacb53b7d8aac167c6f7,2022-06-29_09h10.49.295,Colour_Asymmetry_Pilot,2022.1.3,Win32,60.04563468,62bbe60bf3d75ef465d3e404,0,124,124,29,1,threefour,,,,,,,,,,,,,,,,,,,,,,,,,,,,,,,,,,,,,,,,,,,,,,,,,,,,,,,,,,,,,,,,,,,,,,,,,,,,,,,,,,,,,,,,,,,,,,,,,,,,,,,,,,,,,,,,,,,,,,,,,,,,,,,,,,,,,,,,,,,,,,,,,,,,,,,,
,,,,,,6120e45c3837db7f72f82d50,62bbfacb53b7d8aac167c6f7,2022-06-29_09h10.49.295,Colour_Asymmetry_Pilot,2022.1.3,Win32,60.04563468,62bbe60bf3d75ef465d3e404,0,125,125,41,1,onethree,,,,,,,,,,,,,,,,,,,,,,,,,,,,,,,,,,,,,,,,,,,,,,,,,,,,,,,,,,,,,,,,,,,,,,,,,,,,,,,,,,,,,,,,,,,,,,,,,,,,,,,,,,,,,,,,,,,,,,,,,,,,,,,,,,,,,,,,,,,,,,,,,,,,,,,,
,,,,,,6120e45c3837db7f72f82d50,62bbfacb53b7d8aac167c6f7,2022-06-29_09h10.49.295,Colour_Asymmetry_Pilot,2022.1.3,Win32,60.04563468,62bbe60bf3d75ef465d3e404,0,126,126,84,1,threeone,,,,,,,,,,,,,,,,,,,,,,,,,,,,,,,,,,,,,,,,,,,,,,,,,,,,,,,,,,,,,,,,,,,,,,,,,,,,,,,,,,,,,,,,,,,,,,,,,,,,,,,,,,,,,,,,,,,,,,,,,,,,,,,,,,,,,,,,,,,,,,,,,,,,,,,,
,,,,,,6120e45c3837db7f72f82d50,62bbfacb53b7d8aac167c6f7,2022-06-29_09h10.49.295,Colour_Asymmetry_Pilot,2022.1.3,Win32,60.04563468,62bbe60bf3d75ef465d3e404,0,127,127,83,1,twofour,,,,,,,,,,,,,,,,,,,,,,,,,,,,,,,,,,,,,,,,,,,,,,,,,,,,,,,,,,,,,,,,,,,,,,,,,,,,,,,,,,,,,,,,,,,,,,,,,,,,,,,,,,,,,,,,,,,,,,,,,,,,,,,,,,,,,,,,,,,,,,,,,,,,,,,,
,,,,,,6120e45c3837db7f72f82d50,62bbfacb53b7d8aac167c6f7,2022-06-29_09h10.49.295,Colour_Asymmetry_Pilot,2022.1.3,Win32,60.04563468,62bbe60bf3d75ef465d3e404,0,128,128,65,1,onethree,,,,,,,,,,,,,,,,,,,,,,,,,,,,,,,,,,,,,,,,,,,,,,,,,,,,,,,,,,,,,,,,,,,,,,,,,,,,,,,,,,,,,,,,,,,,,,,,,,,,,,,,,,,,,,,,,,,,,,,,,,,,,,,,,,,,,,,,,,,,,,,,,,,,,,,,
,,,,,,6120e45c3837db7f72f82d50,62bbfacb53b7d8aac167c6f7,2022-06-29_09h10.49.295,Colour_Asymmetry_Pilot,2022.1.3,Win32,60.04563468,62bbe60bf3d75ef465d3e404,0,129,129,86,1,fourtwo,,,,,,,,,,,,,,,,,,,,,,,,,,,,,,,,,,,,,,,,,,,,,,,,,,,,,,,,,,,,,,,,,,,,,,,,,,,,,,,,,,,,,,,,,,,,,,,,,,,,,,,,,,,,,,,,,,,,,,,,,,,,,,,,,,,,,,,,,,,,,,,,,,,,,,,,
,,,,,,6120e45c3837db7f72f82d50,62bbfacb53b7d8aac167c6f7,2022-06-29_09h10.49.295,Colour_Asymmetry_Pilot,2022.1.3,Win32,60.04563468,62bbe60bf3d75ef465d3e404,0,130,130,112,1,onetwo,,,,,,,,,,,,,,,,,,,,,,,,,,,,,,,,,,,,,,,,,,,,,,,,,,,,,,,,,,,,,,,,,,,,,,,,,,,,,,,,,,,,,,,,,,,,,,,,,,,,,,,,,,,,,,,,,,,,,,,,,,,,,,,,,,,,,,,,,,,,,,,,,,,,,,,,
,,,,,,6120e45c3837db7f72f82d50,62bbfacb53b7d8aac167c6f7,2022-06-29_09h10.49.295,Colour_Asymmetry_Pilot,2022.1.3,Win32,60.04563468,62bbe60bf3d75ef465d3e404,0,131,131,12,1,threeone,,,,,,,,,,,,,,,,,,,,,,,,,,,,,,,,,,,,,,,,,,,,,,,,,,,,,,,,,,,,,,,,,,,,,,,,,,,,,,,,,,,,,,,,,,,,,,,,,,,,,,,,,,,,,,,,,,,,,,,,,,,,,,,,,,,,,,,,,,,,,,,,,,,,,,,,
,,,,,,6120e45c3837db7f72f82d50,62bbfacb53b7d8aac167c6f7,2022-06-29_09h10.49.295,Colour_Asymmetry_Pilot,2022.1.3,Win32,60.04563468,62bbe60bf3d75ef465d3e404,0,132,132,64,1,onetwo,,,,,,,,,,,,,,,,,,,,,,,,,,,,,,,,,,,,,,,,,,,,,,,,,,,,,,,,,,,,,,,,,,,,,,,,,,,,,,,,,,,,,,,,,,,,,,,,,,,,,,,,,,,,,,,,,,,,,,,,,,,,,,,,,,,,,,,,,,,,,,,,,,,,,,,,
,,,,,,6120e45c3837db7f72f82d50,62bbfacb53b7d8aac167c6f7,2022-06-29_09h10.49.295,Colour_Asymmetry_Pilot,2022.1.3,Win32,60.04563468,62bbe60bf3d75ef465d3e404,0,133,133,1,1,onethree,,,,,,,,,,,,,,,,,,,,,,,,,,,,,,,,,,,,,,,,,,,,,,,,,,,,,,,,,,,,,,,,,,,,,,,,,,,,,,,,,,,,,,,,,,,,,,,,,,,,,,,,,,,,,,,,,,,,,,,,,,,,,,,,,,,,,,,,,,,,,,,,,,,,,,,,
,,,,,,6120e45c3837db7f72f82d50,62bbfacb53b7d8aac167c6f7,2022-06-29_09h10.49.295,Colour_Asymmetry_Pilot,2022.1.3,Win32,60.04563468,62bbe60bf3d75ef465d3e404,0,134,134,154,1,twoone,,,,,,,,,,,,,,,,,,,,,,,,,,,,,,,,,,,,,,,,,,,,,,,,,,,,,,,,,,,,,,,,,,,,,,,,,,,,,,,,,,,,,,,,,,,,,,,,,,,,,,,,,,,,,,,,,,,,,,,,,,,,,,,,,,,,,,,,,,,,,,,,,,,,,,,,
,,,,,,6120e45c3837db7f72f82d50,62bbfacb53b7d8aac167c6f7,2022-06-29_09h10.49.295,Colour_Asymmetry_Pilot,2022.1.3,Win32,60.04563468,62bbe60bf3d75ef465d3e404,0,135,135,11,1,twofour,,,,,,,,,,,,,,,,,,,,,,,,,,,,,,,,,,,,,,,,,,,,,,,,,,,,,,,,,,,,,,,,,,,,,,,,,,,,,,,,,,,,,,,,,,,,,,,,,,,,,,,,,,,,,,,,,,,,,,,,,,,,,,,,,,,,,,,,,,,,,,,,,,,,,,,,
,,,,,,6120e45c3837db7f72f82d50,62bbfacb53b7d8aac167c6f7,2022-06-29_09h10.49.295,Colour_Asymmetry_Pilot,2022.1.3,Win32,60.04563468,62bbe60bf3d75ef465d3e404,0,136,136,48,1,onetwo,,,,,,,,,,,,,,,,,,,,,,,,,,,,,,,,,,,,,,,,,,,,,,,,,,,,,,,,,,,,,,,,,,,,,,,,,,,,,,,,,,,,,,,,,,,,,,,,,,,,,,,,,,,,,,,,,,,,,,,,,,,,,,,,,,,,,,,,,,,,,,,,,,,,,,,,
,,,,,,6120e45c3837db7f72f82d50,62bbfacb53b7d8aac167c6f7,2022-06-29_09h10.49.295,Colour_Asymmetry_Pilot,2022.1.3,Win32,60.04563468,62bbe60bf3d75ef465d3e404,0,137,137,49,1,onethree,,,,,,,,,,,,,,,,,,,,,,,,,,,,,,,,,,,,,,,,,,,,,,,,,,,,,,,,,,,,,,,,,,,,,,,,,,,,,,,,,,,,,,,,,,,,,,,,,,,,,,,,,,,,,,,,,,,,,,,,,,,,,,,,,,,,,,,,,,,,,,,,,,,,,,,,
,,,,,,6120e45c3837db7f72f82d50,62bbfacb53b7d8aac167c6f7,2022-06-29_09h10.49.295,Colour_Asymmetry_Pilot,2022.1.3,Win32,60.04563468,62bbe60bf3d75ef465d3e404,0,138,138,141,1,threefour,,,,,,,,,,,,,,,,,,,,,,,,,,,,,,,,,,,,,,,,,,,,,,,,,,,,,,,,,,,,,,,,,,,,,,,,,,,,,,,,,,,,,,,,,,,,,,,,,,,,,,,,,,,,,,,,,,,,,,,,,,,,,,,,,,,,,,,,,,,,,,,,,,,,,,,,
,,,,,,6120e45c3837db7f72f82d50,62bbfacb53b7d8aac167c6f7,2022-06-29_09h10.49.295,Colour_Asymmetry_Pilot,2022.1.3,Win32,60.04563468,62bbe60bf3d75ef465d3e404,0,139,139,135,1,fourthree,,,,,,,,,,,,,,,,,,,,,,,,,,,,,,,,,,,,,,,,,,,,,,,,,,,,,,,,,,,,,,,,,,,,,,,,,,,,,,,,,,,,,,,,,,,,,,,,,,,,,,,,,,,,,,,,,,,,,,,,,,,,,,,,,,,,,,,,,,,,,,,,,,,,,,,,
,,,,,,6120e45c3837db7f72f82d50,62bbfacb53b7d8aac167c6f7,2022-06-29_09h10.49.295,Colour_Asymmetry_Pilot,2022.1.3,Win32,60.04563468,62bbe60bf3d75ef465d3e404,0,140,140,92,1,threeone,,,,,,,,,,,,,,,,,,,,,,,,,,,,,,,,,,,,,,,,,,,,,,,,,,,,,,,,,,,,,,,,,,,,,,,,,,,,,,,,,,,,,,,,,,,,,,,,,,,,,,,,,,,,,,,,,,,,,,,,,,,,,,,,,,,,,,,,,,,,,,,,,,,,,,,,
,,,,,,6120e45c3837db7f72f82d50,62bbfacb53b7d8aac167c6f7,2022-06-29_09h10.49.295,Colour_Asymmetry_Pilot,2022.1.3,Win32,60.04563468,62bbe60bf3d75ef465d3e404,0,141,141,31,1,fourthree,,,,,,,,,,,,,,,,,,,,,,,,,,,,,,,,,,,,,,,,,,,,,,,,,,,,,,,,,,,,,,,,,,,,,,,,,,,,,,,,,,,,,,,,,,,,,,,,,,,,,,,,,,,,,,,,,,,,,,,,,,,,,,,,,,,,,,,,,,,,,,,,,,,,,,,,
,,,,,,6120e45c3837db7f72f82d50,62bbfacb53b7d8aac167c6f7,2022-06-29_09h10.49.295,Colour_Asymmetry_Pilot,2022.1.3,Win32,60.04563468,62bbe60bf3d75ef465d3e404,0,142,142,69,1,threefour,,,,,,,,,,,,,,,,,,,,,,,,,,,,,,,,,,,,,,,,,,,,,,,,,,,,,,,,,,,,,,,,,,,,,,,,,,,,,,,,,,,,,,,,,,,,,,,,,,,,,,,,,,,,,,,,,,,,,,,,,,,,,,,,,,,,,,,,,,,,,,,,,,,,,,,,
,,,,,,6120e45c3837db7f72f82d50,62bbfacb53b7d8aac167c6f7,2022-06-29_09h10.49.295,Colour_Asymmetry_Pilot,2022.1.3,Win32,60.04563468,62bbe60bf3d75ef465d3e404,0,143,143,111,1,fourthree,,,,,,,,,,,,,,,,,,,,,,,,,,,,,,,,,,,,,,,,,,,,,,,,,,,,,,,,,,,,,,,,,,,,,,,,,,,,,,,,,,,,,,,,,,,,,,,,,,,,,,,,,,,,,,,,,,,,,,,,,,,,,,,,,,,,,,,,,,,,,,,,,,,,,,,,
,,,,,,6120e45c3837db7f72f82d50,62bbfacb53b7d8aac167c6f7,2022-06-29_09h10.49.295,Colour_Asymmetry_Pilot,2022.1.3,Win32,60.04563468,62bbe60bf3d75ef465d3e404,0,144,144,100,1,threeone,,,,,,,,,,,,,,,,,,,,,,,,,,,,,,,,,,,,,,,,,,,,,,,,,,,,,,,,,,,,,,,,,,,,,,,,,,,,,,,,,,,,,,,,,,,,,,,,,,,,,,,,,,,,,,,,,,,,,,,,,,,,,,,,,,,,,,,,,,,,,,,,,,,,,,,,
,,,,,,6120e45c3837db7f72f82d50,62bbfacb53b7d8aac167c6f7,2022-06-29_09h10.49.295,Colour_Asymmetry_Pilot,2022.1.3,Win32,60.04563468,62bbe60bf3d75ef465d3e404,0,145,145,144,1,onetwo,,,,,,,,,,,,,,,,,,,,,,,,,,,,,,,,,,,,,,,,,,,,,,,,,,,,,,,,,,,,,,,,,,,,,,,,,,,,,,,,,,,,,,,,,,,,,,,,,,,,,,,,,,,,,,,,,,,,,,,,,,,,,,,,,,,,,,,,,,,,,,,,,,,,,,,,
,,,,,,6120e45c3837db7f72f82d50,62bbfacb53b7d8aac167c6f7,2022-06-29_09h10.49.295,Colour_Asymmetry_Pilot,2022.1.3,Win32,60.04563468,62bbe60bf3d75ef465d3e404,0,146,146,136,1,onetwo,,,,,,,,,,,,,,,,,,,,,,,,,,,,,,,,,,,,,,,,,,,,,,,,,,,,,,,,,,,,,,,,,,,,,,,,,,,,,,,,,,,,,,,,,,,,,,,,,,,,,,,,,,,,,,,,,,,,,,,,,,,,,,,,,,,,,,,,,,,,,,,,,,,,,,,,
,,,,,,6120e45c3837db7f72f82d50,62bbfacb53b7d8aac167c6f7,2022-06-29_09h10.49.295,Colour_Asymmetry_Pilot,2022.1.3,Win32,60.04563468,62bbe60bf3d75ef465d3e404,0,147,147,161,1,onethree,,,,,,,,,,,,,,,,,,,,,,,,,,,,,,,,,,,,,,,,,,,,,,,,,,,,,,,,,,,,,,,,,,,,,,,,,,,,,,,,,,,,,,,,,,,,,,,,,,,,,,,,,,,,,,,,,,,,,,,,,,,,,,,,,,,,,,,,,,,,,,,,,,,,,,,,
,,,,,,6120e45c3837db7f72f82d50,62bbfacb53b7d8aac167c6f7,2022-06-29_09h10.49.295,Colour_Asymmetry_Pilot,2022.1.3,Win32,60.04563468,62bbe60bf3d75ef465d3e404,0,148,148,34,1,twoone,,,,,,,,,,,,,,,,,,,,,,,,,,,,,,,,,,,,,,,,,,,,,,,,,,,,,,,,,,,,,,,,,,,,,,,,,,,,,,,,,,,,,,,,,,,,,,,,,,,,,,,,,,,,,,,,,,,,,,,,,,,,,,,,,,,,,,,,,,,,,,,,,,,,,,,,
,,,,,,6120e45c3837db7f72f82d50,62bbfacb53b7d8aac167c6f7,2022-06-29_09h10.49.295,Colour_Asymmetry_Pilot,2022.1.3,Win32,60.04563468,62bbe60bf3d75ef465d3e404,0,149,149,50,1,twoone,,,,,,,,,,,,,,,,,,,,,,,,,,,,,,,,,,,,,,,,,,,,,,,,,,,,,,,,,,,,,,,,,,,,,,,,,,,,,,,,,,,,,,,,,,,,,,,,,,,,,,,,,,,,,,,,,,,,,,,,,,,,,,,,,,,,,,,,,,,,,,,,,,,,,,,,
,,,,,,6120e45c3837db7f72f82d50,62bbfacb53b7d8aac167c6f7,2022-06-29_09h10.49.295,Colour_Asymmetry_Pilot,2022.1.3,Win32,60.04563468,62bbe60bf3d75ef465d3e404,0,150,150,89,1,onethree,,,,,,,,,,,,,,,,,,,,,,,,,,,,,,,,,,,,,,,,,,,,,,,,,,,,,,,,,,,,,,,,,,,,,,,,,,,,,,,,,,,,,,,,,,,,,,,,,,,,,,,,,,,,,,,,,,,,,,,,,,,,,,,,,,,,,,,,,,,,,,,,,,,,,,,,
,,,,,,6120e45c3837db7f72f82d50,62bbfacb53b7d8aac167c6f7,2022-06-29_09h10.49.295,Colour_Asymmetry_Pilot,2022.1.3,Win32,60.04563468,62bbe60bf3d75ef465d3e404,0,151,151,39,1,fourthree,,,,,,,,,,,,,,,,,,,,,,,,,,,,,,,,,,,,,,,,,,,,,,,,,,,,,,,,,,,,,,,,,,,,,,,,,,,,,,,,,,,,,,,,,,,,,,,,,,,,,,,,,,,,,,,,,,,,,,,,,,,,,,,,,,,,,,,,,,,,,,,,,,,,,,,,
,,,,,,6120e45c3837db7f72f82d50,62bbfacb53b7d8aac167c6f7,2022-06-29_09h10.49.295,Colour_Asymmetry_Pilot,2022.1.3,Win32,60.04563468,62bbe60bf3d75ef465d3e404,0,152,152,37,1,threefour,,,,,,,,,,,,,,,,,,,,,,,,,,,,,,,,,,,,,,,,,,,,,,,,,,,,,,,,,,,,,,,,,,,,,,,,,,,,,,,,,,,,,,,,,,,,,,,,,,,,,,,,,,,,,,,,,,,,,,,,,,,,,,,,,,,,,,,,,,,,,,,,,,,,,,,,
,,,,,,6120e45c3837db7f72f82d50,62bbfacb53b7d8aac167c6f7,2022-06-29_09h10.49.295,Colour_Asymmetry_Pilot,2022.1.3,Win32,60.04563468,62bbe60bf3d75ef465d3e404,0,153,153,94,1,fourtwo,,,,,,,,,,,,,,,,,,,,,,,,,,,,,,,,,,,,,,,,,,,,,,,,,,,,,,,,,,,,,,,,,,,,,,,,,,,,,,,,,,,,,,,,,,,,,,,,,,,,,,,,,,,,,,,,,,,,,,,,,,,,,,,,,,,,,,,,,,,,,,,,,,,,,,,,
,,,,,,6120e45c3837db7f72f82d50,62bbfacb53b7d8aac167c6f7,2022-06-29_09h10.49.295,Colour_Asymmetry_Pilot,2022.1.3,Win32,60.04563468,62bbe60bf3d75ef465d3e404,0,154,154,131,1,twofour,,,,,,,,,,,,,,,,,,,,,,,,,,,,,,,,,,,,,,,,,,,,,,,,,,,,,,,,,,,,,,,,,,,,,,,,,,,,,,,,,,,,,,,,,,,,,,,,,,,,,,,,,,,,,,,,,,,,,,,,,,,,,,,,,,,,,,,,,,,,,,,,,,,,,,,,
,,,,,,6120e45c3837db7f72f82d50,62bbfacb53b7d8aac167c6f7,2022-06-29_09h10.49.295,Colour_Asymmetry_Pilot,2022.1.3,Win32,60.04563468,62bbe60bf3d75ef465d3e404,0,155,155,151,1,fourthree,,,,,,,,,,,,,,,,,,,,,,,,,,,,,,,,,,,,,,,,,,,,,,,,,,,,,,,,,,,,,,,,,,,,,,,,,,,,,,,,,,,,,,,,,,,,,,,,,,,,,,,,,,,,,,,,,,,,,,,,,,,,,,,,,,,,,,,,,,,,,,,,,,,,,,,,
,,,,,,6120e45c3837db7f72f82d50,62bbfacb53b7d8aac167c6f7,2022-06-29_09h10.49.295,Colour_Asymmetry_Pilot,2022.1.3,Win32,60.04563468,62bbe60bf3d75ef465d3e404,0,156,156,143,1,fourthree,,,,,,,,,,,,,,,,,,,,,,,,,,,,,,,,,,,,,,,,,,,,,,,,,,,,,,,,,,,,,,,,,,,,,,,,,,,,,,,,,,,,,,,,,,,,,,,,,,,,,,,,,,,,,,,,,,,,,,,,,,,,,,,,,,,,,,,,,,,,,,,,,,,,,,,,
,,,,,,6120e45c3837db7f72f82d50,62bbfacb53b7d8aac167c6f7,2022-06-29_09h10.49.295,Colour_Asymmetry_Pilot,2022.1.3,Win32,60.04563468,62bbe60bf3d75ef465d3e404,0,157,157,54,1,fourtwo,,,,,,,,,,,,,,,,,,,,,,,,,,,,,,,,,,,,,,,,,,,,,,,,,,,,,,,,,,,,,,,,,,,,,,,,,,,,,,,,,,,,,,,,,,,,,,,,,,,,,,,,,,,,,,,,,,,,,,,,,,,,,,,,,,,,,,,,,,,,,,,,,,,,,,,,
,,,,,,6120e45c3837db7f72f82d50,62bbfacb53b7d8aac167c6f7,2022-06-29_09h10.49.295,Colour_Asymmetry_Pilot,2022.1.3,Win32,60.04563468,62bbe60bf3d75ef465d3e404,0,158,158,133,1,threefour,,,,,,,,,,,,,,,,,,,,,,,,,,,,,,,,,,,,,,,,,,,,,,,,,,,,,,,,,,,,,,,,,,,,,,,,,,,,,,,,,,,,,,,,,,,,,,,,,,,,,,,,,,,,,,,,,,,,,,,,,,,,,,,,,,,,,,,,,,,,,,,,,,,,,,,,
,,,,,,6120e45c3837db7f72f82d50,62bbfacb53b7d8aac167c6f7,2022-06-29_09h10.49.295,Colour_Asymmetry_Pilot,2022.1.3,Win32,60.04563468,62bbe60bf3d75ef465d3e404,0,159,159,27,1,twofour,,,,,,,,,,,,,,,,,,,,,,,,,,,,,,,,,,,,,,,,,,,,,,,,,,,,,,,,,,,,,,,,,,,,,,,,,,,,,,,,,,,,,,,,,,,,,,,,,,,,,,,,,,,,,,,,,,,,,,,,,,,,,,,,,,,,,,,,,,,,,,,,,,,,,,,,
,,,,,,6120e45c3837db7f72f82d50,62bbfacb53b7d8aac167c6f7,2022-06-29_09h10.49.295,Colour_Asymmetry_Pilot,2022.1.3,Win32,60.04563468,62bbe60bf3d75ef465d3e404,0,160,160,23,1,fourthree,,,,,,,,,,,,,,,,,,,,,,,,,,,,,,,,,,,,,,,,,,,,,,,,,,,,,,,,,,,,,,,,,,,,,,,,,,,,,,,,,,,,,,,,,,,,,,,,,,,,,,,,,,,,,,,,,,,,,,,,,,,,,,,,,,,,,,,,,,,,,,,,,,,,,,,,
,,,,,,6120e45c3837db7f72f82d50,62bbfacb53b7d8aac167c6f7,2022-06-29_09h10.49.295,Colour_Asymmetry_Pilot,2022.1.3,Win32,60.04563468,62bbe60bf3d75ef465d3e404,0,161,161,7,1,fourthree,,,,,,,,,,,,,,,,,,,,,,,,,,,,,,,,,,,,,,,,,,,,,,,,,,,,,,,,,,,,,,,,,,,,,,,,,,,,,,,,,,,,,,,,,,,,,,,,,,,,,,,,,,,,,,,,,,,,,,,,,,,,,,,,,,,,,,,,,,,,,,,,,,,,,,,,
,,,,,,6120e45c3837db7f72f82d50,62bbfacb53b7d8aac167c6f7,2022-06-29_09h10.49.295,Colour_Asymmetry_Pilot,2022.1.3,Win32,60.04563468,62bbe60bf3d75ef465d3e404,,,,,,,space,3.0241,space,3.4872,space,51.0641,space,14.7949,space,2.9265,space,5.7547,"[0.9372,0.20779999999999998,0.2704]",onethree,"[-0.07459999999999989,0.12139999999999995,-0.9922]",-4,19.2926,-62,105,1,0,0,response7disk_5,2,-4,1,0,0,rectangle_8,2,-4,1,0,0,3,2,-4,1,0,0,0,0,0,0,1,,,,,,,,,,,,,,,,,,,,,,,,,,,,,,,,,,,,,,,,,,,,,,,,,,,,,,,,,,,,,,,,,,,,,,,,,,,,,,,,,,,,,,,,,,,,,,,,,,,,,,,,,,,
,,,,,,6120e45c3837db7f72f82d50,62bbfacb53b7d8aac167c6f7,2022-06-29_09h10.49.295,Colour_Asymmetry_Pilot,2022.1.3,Win32,60.04563468,62bbe60bf3d75ef465d3e404,,,,,,,,,,,,,,,,,,,"[0.7176,-0.906,-0.6864]",onethree,"[-0.4902000000000001,0.2704,-0.45899999999999996]",-4,5.8345,-47,111,1,0,0,response7disk_5,6,-1,1,0,0,rectangle_8,6,-1,1,0,0,3,6,-1,1,0,0,1,0,1,0,1,,,,,,,,,,,,,,,,,,,,,,,,,,,,,,,,,,,,,,,,,,,,,,,,,,,,,,,,,,,,,,,,,,,,,,,,,,,,,,,,,,,,,,,,,,,,,,,,,,,,,,,,,,,
,,,,,,6120e45c3837db7f72f82d50,62bbfacb53b7d8aac167c6f7,2022-06-29_09h10.49.295,Colour_Asymmetry_Pilot,2022.1.3,Win32,60.04563468,62bbe60bf3d75ef465d3e404,,,,,,,,,,,,,,,,,,,"[0.11359999999999992,0.6312,0.5213999999999999]",fourtwo,"[0.23920000000000008,0.2704,0.16060000000000008]",-4,2.4181,-39,105,1,0,0,response7disk_5,-2,2,1,0,0,rectangle_8,-2,2,1,0,0,3,-2,2,1,0,0,2,0,2,0,1,,,,,,,,,,,,,,,,,,,,,,,,,,,,,,,,,,,,,,,,,,,,,,,,,,,,,,,,,,,,,,,,,,,,,,,,,,,,,,,,,,,,,,,,,,,,,,,,,,,,,,,,,,,
,,,,,,6120e45c3837db7f72f82d50,62bbfacb53b7d8aac167c6f7,2022-06-29_09h10.49.295,Colour_Asymmetry_Pilot,2022.1.3,Win32,60.04563468,62bbe60bf3d75ef465d3e404,,,,,,,,,,,,,,,,,,,"[0.7018,0.7176,0.6155999999999999]",twoone,"[-0.20799999999999996,-0.655,-0.01980000000000004]",-4,1.2839,-39,106,1,0,0,response7disk_5,-5,6,1,0,0,rectangle_8,100,35,1,0,0,3,6,6,1,0,0,3,0,3,0,1,response1disk_7,6,rectangle_4,,,,,,,,,,,,,,,,,,,,,,,,,,,,,,,,,,,,,,,,,,,,,,,,,,,,,,,,,,,,,,,,,,,,,,,,,,,,,,,,,,,,,,,,,,,,,,,,,,,,,,,,
,,,,,,6120e45c3837db7f72f82d50,62bbfacb53b7d8aac167c6f7,2022-06-29_09h10.49.295,Colour_Asymmetry_Pilot,2022.1.3,Win32,60.04563468,62bbe60bf3d75ef465d3e404,,,,,,,,,,,,,,,,,,,"[0.5528,0.7409999999999999,-0.71]",twoone,"[0.796,0.2156,-0.27859999999999996]",-4,1.1336,-48,114,1,0,0,response7disk_5,-1,2,1,0,0,rectangle_8,-1,2,1,0,0,3,-1,2,1,0,0,4,0,4,0,1,,,,,,,,,,,,,,,,,,,,,,,,,,,,,,,,,,,,,,,,,,,,,,,,,,,,,,,,,,,,,,,,,,,,,,,,,,,,,,,,,,,,,,,,,,,,,,,,,,,,,,,,,,,
,,,,,,6120e45c3837db7f72f82d50,62bbfacb53b7d8aac167c6f7,2022-06-29_09h10.49.295,Colour_Asymmetry_Pilot,2022.1.3,Win32,60.04563468,62bbe60bf3d75ef465d3e404,,,,,,,,,,,,,,,,,,,"[-0.24719999999999998,-0.0354000000000001,0.3175999999999999]",twofour,"[-0.8118,-0.8198,-0.5452]",-4,3.0285,-52,120,1,0,0,response7disk_5,-2,-2,1,0,0,rectangle_8,108,34,1,0,0,3,-7,-1,1,0,0,5,0,5,0,1,response1disk_7,6,rectangle_4,,,,,,,,,,,,,,,,,,,,,,,,,,,,,,,,,,,,,,,,,,,,,,,,,,,,,,,,,,,,,,,,,,,,,,,,,,,,,,,,,,,,,,,,,,,,,,,,,,,,,,,,
,,,,,,6120e45c3837db7f72f82d50,62bbfacb53b7d8aac167c6f7,2022-06-29_09h10.49.295,Colour_Asymmetry_Pilot,2022.1.3,Win32,60.04563468,62bbe60bf3d75ef465d3e404,,,,,,,,,,,,,,,,,,,"[-0.6235999999999999,-0.6786,-0.08239999999999992]",threeone,"[0.19199999999999995,0.18419999999999992,0.5136000000000001]",-4,1.3729,-39,107,1,0,0,response7disk_5,-5,-7,1,0,0,rectangle_8,-5,-7,1,0,0,3,-5,-7,1,0,0,6,0,6,0,1,,,,,,,,,,,,,,,,,,,,,,,,,,,,,,,,,,,,,,,,,,,,,,,,,,,,,,,,,,,,,,,,,,,,,,,,,,,,,,,,,,,,,,,,,,,,,,,,,,,,,,,,,,,
,,,,,,6120e45c3837db7f72f82d50,62bbfacb53b7d8aac167c6f7,2022-06-29_09h10.49.295,Colour_Asymmetry_Pilot,2022.1.3,Win32,60.04563468,62bbe60bf3d75ef465d3e404,,,,,,,,,,,,,,,,,,,,twoone,,-4,0.7844,,,,,,,,,,,,,,,,,,,,,,,,,,,,,,,,space,4.8891,"[-0.9766,-0.34920000000000007,0.2156]","[1,0.12939999999999996,-1]",-52,101,1,0,0,response7disk,0,-6,1,0,0,rectangle,0,-6,1,0,0,,2,0.0031,0,0,-6,1,0,0,0,0,0,56,1,56,first,,,,,,,,,,,,,,,,,,,,,,,,,,,,,,,,,,,,,,,,,,,,,,,,,,,,,,,,,,,,,,,,,,,
,,,,,,6120e45c3837db7f72f82d50,62bbfacb53b7d8aac167c6f7,2022-06-29_09h10.49.295,Colour_Asymmetry_Pilot,2022.1.3,Win32,60.04563468,62bbe60bf3d75ef465d3e404,,,,,,,,,,,,,,,,,,,,onetwo,,-4,0.6837,,,,,,,,,,,,,,,,,,,,,,,,,,,,,,,,,,"[-0.7412000000000001,-0.08239999999999992,-0.6864]","[0.9372,0.20779999999999998,0.2704]",-60,124,1,0,0,response7disk,-3,-5,1,0,0,rectangle,-3,-5,1,0,0,,2,0.0011,0,-3,-5,1,0,0,0,1,1,147,1,66,second,,,,,,,,,,,,,,,,,,,,,,,,,,,,,,,,,,,,,,,,,,,,,,,,,,,,,,,,,,,,,,,,,,,
,,,,,,6120e45c3837db7f72f82d50,62bbfacb53b7d8aac167c6f7,2022-06-29_09h10.49.295,Colour_Asymmetry_Pilot,2022.1.3,Win32,60.04563468,62bbe60bf3d75ef465d3e404,,,,,,,,,,,,,,,,,,,,twofour,,-4,0.5331,,,,,,,,,,,,,,,,,,,,,,,,,,,,,,,,,,"[-0.8982,-0.37259999999999993,0.2784]","[0.40379999999999994,0.09000000000000008,0.44300000000000006]",-58,104,1,0,0,response7disk,0,-1,1,0,0,rectangle,0,-1,1,0,0,,3,0.003,0,0,-1,1,0,0,0,2,2,23,1,23,first,,,,,,,,,,,,,,,,,,,,,,,,,,,,,,,,,,,,,,,,,,,,,,,,,,,,,,,,,,,,,,,,,,,
,,,,,,6120e45c3837db7f72f82d50,62bbfacb53b7d8aac167c6f7,2022-06-29_09h10.49.295,Colour_Asymmetry_Pilot,2022.1.3,Win32,60.04563468,62bbe60bf3d75ef465d3e404,,,,,,,,,,,,,,,,,,,,fourthree,,-4,0.8998,,,,,,,,,,,,,,,,,,,,,,,,,,,,,,,,,,"[0.3881999999999999,-0.23939999999999995,-0.05040000000000011]","[0.796,0.2156,-0.27859999999999996]",-46,115,1,0,0,response7disk,-5,0,1,0,0,rectangle,-5,0,1,0,0,,1,0.0025,0,-5,0,1,0,0,0,3,3,124,1,43,second,,,,,,,,,,,,,,,,,,,,,,,,,,,,,,,,,,,,,,,,,,,,,,,,,,,,,,,,,,,,,,,,,,,
,,,,,,6120e45c3837db7f72f82d50,62bbfacb53b7d8aac167c6f7,2022-06-29_09h10.49.295,Colour_Asymmetry_Pilot,2022.1.3,Win32,60.04563468,62bbe60bf3d75ef465d3e404,,,,,,,,,,,,,,,,,,,,twoone,,-4,0.3679,,,,,,,,,,,,,,,,,,,,,,,,,,,,,,,,,,"[-0.6,0.16860000000000008,0.44300000000000006]","[-0.45899999999999996,-0.3256,-0.9374]",-49,113,1,0,0,response7disk,-10,6,1,0,0,rectangle,-10,6,1,0,0,,3,0.0032,0,-10,6,1,0,0,0,4,4,110,1,29,second,,,,,,,,,,,,,,,,,,,,,,,,,,,,,,,,,,,,,,,,,,,,,,,,,,,,,,,,,,,,,,,,,,,
,,,,,,6120e45c3837db7f72f82d50,62bbfacb53b7d8aac167c6f7,2022-06-29_09h10.49.295,Colour_Asymmetry_Pilot,2022.1.3,Win32,60.04563468,62bbe60bf3d75ef465d3e404,,,,,,,,,,,,,,,,,,,,onetwo,,-4,0.5163,,,,,,,,,,,,,,,,,,,,,,,,,,,,,,,,,,"[-0.5452,-0.608,0.2470000000000001]","[0.23120000000000007,-0.7726,-0.34120000000000006]",-69,107,1,0,0,response7disk,-8,-1,1,0,0,rectangle,-8,-1,1,0,0,,2,0.0031,0,-8,-1,1,0,0,0,5,5,157,1,76,second,,,,,,,,,,,,,,,,,,,,,,,,,,,,,,,,,,,,,,,,,,,,,,,,,,,,,,,,,,,,,,,,,,,
,,,,,,6120e45c3837db7f72f82d50,62bbfacb53b7d8aac167c6f7,2022-06-29_09h10.49.295,Colour_Asymmetry_Pilot,2022.1.3,Win32,60.04563468,62bbe60bf3d75ef465d3e404,,,,,,,,,,,,,,,,,,,,onethree,,-2,3.9666,,,,,,,,,,,,,,,,,,,,,,,,,,,,,,,,,,"[-0.0040000000000000036,0.02739999999999987,-0.08239999999999992]","[0.2862,0.7802,0.3568]",-53,-21,1,0,0,response5disk,-13,4,1,0,0,rectangle,-13,4,1,0,0,,3,0.0028,0,-13,4,1,0,0,0,6,6,121,1,40,second,,,,,,,,,,,,,,,,,,,,,,,,,,,,,,,,,,,,,,,,,,,,,,,,,,,,,,,,,,,,,,,,,,,
,,,,,,6120e45c3837db7f72f82d50,62bbfacb53b7d8aac167c6f7,2022-06-29_09h10.49.295,Colour_Asymmetry_Pilot,2022.1.3,Win32,60.04563468,62bbe60bf3d75ef465d3e404,,,,,,,,,,,,,,,,,,,,fourtwo,,-4,0.5072,,,,,,,,,,,,,,,,,,,,,,,,,,,,,,,,,,"[-0.6,0.16860000000000008,0.44300000000000006]","[0.9763999999999999,0.8588,-0.05900000000000005]",-48,89,1,0,0,response7disk,-2,4,1,0,0,rectangle,-2,4,1,0,0,,1,0.0018,0,-2,4,1,0,0,0,7,7,67,1,67,first,,,,,,,,,,,,,,,,,,,,,,,,,,,,,,,,,,,,,,,,,,,,,,,,,,,,,,,,,,,,,,,,,,,
,,,,,,6120e45c3837db7f72f82d50,62bbfacb53b7d8aac167c6f7,2022-06-29_09h10.49.295,Colour_Asymmetry_Pilot,2022.1.3,Win32,60.04563468,62bbe60bf3d75ef465d3e404,,,,,,,,,,,,,,,,,,,,threefour,,-2,3.1299,,,,,,,,,,,,,,,,,,,,,,,,,,,,,,,,,,"[-0.17659999999999998,-0.2864,-0.8354]","[-0.6706000000000001,-0.6157999999999999,-0.6786]",-91,-53,1,0,0,response5disk,9,-6,1,0,0,rectangle,9,-6,1,0,0,,1,0.0007,0,9,-6,1,0,0,0,8,8,7,1,7,first,,,,,,,,,,,,,,,,,,,,,,,,,,,,,,,,,,,,,,,,,,,,,,,,,,,,,,,,,,,,,,,,,,,
,,,,,,6120e45c3837db7f72f82d50,62bbfacb53b7d8aac167c6f7,2022-06-29_09h10.49.295,Colour_Asymmetry_Pilot,2022.1.3,Win32,60.04563468,62bbe60bf3d75ef465d3e404,,,,,,,,,,,,,,,,,,,,twoone,,-4,0.317,,,,,,,,,,,,,,,,,,,,,,,,,,,,,,,,,,"[0.37240000000000006,-0.050999999999999934,-0.5216]","[0.9372,0.20779999999999998,0.2704]",-56,96,1,0,0,response7disk,-1,0,1,0,0,rectangle,-1,0,1,0,0,,1,0.0002,0,-1,0,1,0,0,0,9,9,127,1,46,second,,,,,,,,,,,,,,,,,,,,,,,,,,,,,,,,,,,,,,,,,,,,,,,,,,,,,,,,,,,,,,,,,,,
,,,,,,6120e45c3837db7f72f82d50,62bbfacb53b7d8aac167c6f7,2022-06-29_09h10.49.295,Colour_Asymmetry_Pilot,2022.1.3,Win32,60.04563468,62bbe60bf3d75ef465d3e404,,,,,,,,,,,,,,,,,,,,twoone,,-4,0.5667,,,,,,,,,,,,,,,,,,,,,,,,,,,,,,,,,,"[0.9763999999999999,-0.1137999999999999,-0.6314]","[0.6547999999999998,-0.043199999999999905,-0.011800000000000033]",-49,128,1,0,0,response7disk,0,16,1,0,0,rectangle,0,16,1,0,0,,3,0.003,0,0,16,1,0,0,0,10,10,48,1,48,first,,,,,,,,,,,,,,,,,,,,,,,,,,,,,,,,,,,,,,,,,,,,,,,,,,,,,,,,,,,,,,,,,,,
,,,,,,6120e45c3837db7f72f82d50,62bbfacb53b7d8aac167c6f7,2022-06-29_09h10.49.295,Colour_Asymmetry_Pilot,2022.1.3,Win32,60.04563468,62bbe60bf3d75ef465d3e404,,,,,,,,,,,,,,,,,,,,onetwo,,-4,0.5337,,,,,,,,,,,,,,,,,,,,,,,,,,,,,,,,,,"[0.3881999999999999,-0.23939999999999995,-0.05040000000000011]","[-0.48240000000000005,0.3175999999999999,0.2156]",-47,111,1,0,0,response7disk,1,2,1,0,0,rectangle,1,2,1,0,0,,3,0.0002,0,1,2,1,0,0,0,11,11,38,1,38,first,,,,,,,,,,,,,,,,,,,,,,,,,,,,,,,,,,,,,,,,,,,,,,,,,,,,,,,,,,,,,,,,,,,
,,,,,,6120e45c3837db7f72f82d50,62bbfacb53b7d8aac167c6f7,2022-06-29_09h10.49.295,Colour_Asymmetry_Pilot,2022.1.3,Win32,60.04563468,62bbe60bf3d75ef465d3e404,,,,,,,,,,,,,,,,,,,,onethree,,-4,0.4668,,,,,,,,,,,,,,,,,,,,,,,,,,,,,,,,,,"[-0.6942,-0.7648,-0.12959999999999994]","[0.30180000000000007,-0.7884,-0.9844]",-49,113,1,0,0,response7disk,-9,-5,1,0,0,rectangle,-9,-5,1,0,0,,3,0.0002,0,-9,-5,1,0,0,0,12,12,35,1,35,first,,,,,,,,,,,,,,,,,,,,,,,,,,,,,,,,,,,,,,,,,,,,,,,,,,,,,,,,,,,,,,,,,,,
,,,,,,6120e45c3837db7f72f82d50,62bbfacb53b7d8aac167c6f7,2022-06-29_09h10.49.295,Colour_Asymmetry_Pilot,2022.1.3,Win32,60.04563468,62bbe60bf3d75ef465d3e404,,,,,,,,,,,,,,,,,,,,twofour,,-4,0.4899,,,,,,,,,,,,,,,,,,,,,,,,,,,,,,,,,,"[0.7176,-0.906,-0.6864]","[0.12939999999999996,-0.2864,0.3253999999999999]",-56,106,1,0,0,response7disk,-10,0,1,0,0,rectangle,-10,0,1,0,0,,3,0.0004,0,-10,0,1,0,0,0,13,13,133,1,52,second,,,,,,,,,,,,,,,,,,,,,,,,,,,,,,,,,,,,,,,,,,,,,,,,,,,,,,,,,,,,,,,,,,,
,,,,,,6120e45c3837db7f72f82d50,62bbfacb53b7d8aac167c6f7,2022-06-29_09h10.49.295,Colour_Asymmetry_Pilot,2022.1.3,Win32,60.04563468,62bbe60bf3d75ef465d3e404,,,,,,,,,,,,,,,,,,,,twofour,,-4,0.701,,,,,,,,,,,,,,,,,,,,,,,,,,,,,,,,,,"[-0.10599999999999998,-0.10599999999999998,0.5841999999999998]","[-0.9688,-0.4902000000000001,-0.12159999999999993]",-56,109,1,0,0,response7disk,-7,4,1,0,0,rectangle,-7,4,1,0,0,,1,0.0012,0,-7,4,1,0,0,0,14,14,77,1,77,first,,,,,,,,,,,,,,,,,,,,,,,,,,,,,,,,,,,,,,,,,,,,,,,,,,,,,,,,,,,,,,,,,,,
,,,,,,6120e45c3837db7f72f82d50,62bbfacb53b7d8aac167c6f7,2022-06-29_09h10.49.295,Colour_Asymmetry_Pilot,2022.1.3,Win32,60.04563468,62bbe60bf3d75ef465d3e404,,,,,,,,,,,,,,,,,,,,twofour,,-4,0.3251,,,,,,,,,,,,,,,,,,,,,,,,,,,,,,,,,,"[-0.34920000000000007,-0.702,-0.5216]","[-0.4746,-0.0354000000000001,0.5449999999999999]",-43,108,1,0,0,response7disk,2,3,1,0,0,rectangle,2,3,1,0,0,,1,0.0002,0,2,3,1,0,0,0,15,15,90,1,9,second,,,,,,,,,,,,,,,,,,,,,,,,,,,,,,,,,,,,,,,,,,,,,,,,,,,,,,,,,,,,,,,,,,,
,,,,,,6120e45c3837db7f72f82d50,62bbfacb53b7d8aac167c6f7,2022-06-29_09h10.49.295,Colour_Asymmetry_Pilot,2022.1.3,Win32,60.04563468,62bbe60bf3d75ef465d3e404,,,,,,,,,,,,,,,,,,,,twofour,,-2,0.9171,,,,,,,,,,,,,,,,,,,,,,,,,,,,,,,,,,"[0.11359999999999992,0.6312,0.5213999999999999]","[-0.9766,-0.34920000000000007,0.2156]",-82,-45,1,0,0,response5disk,-3,4,1,0,0,rectangle,-3,4,1,0,0,,2,0.0015,0,-3,4,1,0,0,0,16,16,126,1,45,second,,,,,,,,,,,,,,,,,,,,,,,,,,,,,,,,,,,,,,,,,,,,,,,,,,,,,,,,,,,,,,,,,,,
,,,,,,6120e45c3837db7f72f82d50,62bbfacb53b7d8aac167c6f7,2022-06-29_09h10.49.295,Colour_Asymmetry_Pilot,2022.1.3,Win32,60.04563468,62bbe60bf3d75ef465d3e404,,,,,,,,,,,,,,,,,,,,fourtwo,,-4,0.3448,,,,,,,,,,,,,,,,,,,,,,,,,,,,,,,,,,"[-0.2942,-0.24719999999999998,-0.357]","[0.40379999999999994,0.09000000000000008,0.44300000000000006]",-35,103,1,0,0,response7disk,14,-11,1,0,0,rectangle,14,-11,1,0,0,,3,0.0012,0,14,-11,1,0,0,0,17,17,128,1,47,second,,,,,,,,,,,,,,,,,,,,,,,,,,,,,,,,,,,,,,,,,,,,,,,,,,,,,,,,,,,,,,,,,,,
,,,,,,6120e45c3837db7f72f82d50,62bbfacb53b7d8aac167c6f7,2022-06-29_09h10.49.295,Colour_Asymmetry_Pilot,2022.1.3,Win32,60.04563468,62bbe60bf3d75ef465d3e404,,,,,,,,,,,,,,,,,,,,fourthree,,-4,0.5332,,,,,,,,,,,,,,,,,,,,,,,,,,,,,,,,,,"[0.7018,0.7802,-0.16079999999999994]","[0.37240000000000006,-0.050999999999999934,-0.5216]",-55,117,1,0,0,response7disk,12,5,1,0,0,rectangle,12,5,1,0,0,,2,0.002,0,12,5,1,0,0,0,18,18,15,1,15,first,,,,,,,,,,,,,,,,,,,,,,,,,,,,,,,,,,,,,,,,,,,,,,,,,,,,,,,,,,,,,,,,,,,
,,,,,,6120e45c3837db7f72f82d50,62bbfacb53b7d8aac167c6f7,2022-06-29_09h10.49.295,Colour_Asymmetry_Pilot,2022.1.3,Win32,60.04563468,62bbe60bf3d75ef465d3e404,,,,,,,,,,,,,,,,,,,,onetwo,,-4,0.4005,,,,,,,,,,,,,,,,,,,,,,,,,,,,,,,,,,"[0.9372,0.9450000000000001,0.8980000000000001]","[-0.24719999999999998,-0.0354000000000001,0.3175999999999999]",-51,97,1,0,0,response7disk,1,2,1,0,0,rectangle,1,2,1,0,0,,1,0.0011,0,1,2,1,0,0,0,19,19,53,1,53,first,,,,,,,,,,,,,,,,,,,,,,,,,,,,,,,,,,,,,,,,,,,,,,,,,,,,,,,,,,,,,,,,,,,
,,,,,,6120e45c3837db7f72f82d50,62bbfacb53b7d8aac167c6f7,2022-06-29_09h10.49.295,Colour_Asymmetry_Pilot,2022.1.3,Win32,60.04563468,62bbe60bf3d75ef465d3e404,,,,,,,,,,,,,,,,,,,,twoone,,-4,0.5669,,,,,,,,,,,,,,,,,,,,,,,,,,,,,,,,,,"[-0.6706000000000001,-0.6157999999999999,-0.6786]","[-0.17659999999999998,-0.2864,-0.8354]",-53,99,1,0,0,response7disk,-3,-1,1,0,0,rectangle,-3,-1,1,0,0,,2,0.002,0,-3,-1,1,0,0,0,20,20,88,1,7,second,,,,,,,,,,,,,,,,,,,,,,,,,,,,,,,,,,,,,,,,,,,,,,,,,,,,,,,,,,,,,,,,,,,
