trials.thisRepN,trials.thisTrialN,trials.thisN,trials.thisIndex,trials.ran,Colourcodes,participant,session,date,expName,psychopyVersion,OS,frameRate,study_id,trials_4.thisRepN,trials_4.thisTrialN,trials_4.thisN,trials_4.thisIndex,trials_4.ran,StimulusPos,key_resp.keys,key_resp.rt,key_resp_2.keys,key_resp_2.rt,key_resp_15.keys,key_resp_15.rt,key_resp_17.keys,key_resp_17.rt,key_resp_9.keys,key_resp_9.rt,key_resp_10.keys,key_resp_10.rt,Circle1_col,Ecc,Circle2_col,similarity,response_time,mouse_5.x,mouse_5.y,mouse_5.leftButton,mouse_5.midButton,mouse_5.rightButton,mouse_5.clicked_name,mouse_10.x,mouse_10.y,mouse_10.leftButton,mouse_10.midButton,mouse_10.rightButton,mouse_10.clicked_name,mouse_7.x,mouse_7.y,mouse_7.leftButton,mouse_7.midButton,mouse_7.rightButton,mouse_7.clicked_name,catchprac,catchnumberprac,mouse_6.x,mouse_6.y,mouse_6.leftButton,mouse_6.midButton,mouse_6.rightButton,mouse_6.clicked_name,duringprac.thisRepN,duringprac.thisTrialN,duringprac.thisN,duringprac.thisIndex,duringprac.ran,key_resp_22.keys,key_resp_22.rt,Circle1_colour,Circle2_colour,mouse.x,mouse.y,mouse.leftButton,mouse.midButton,mouse.rightButton,mouse.clicked_name,mouse_2.x,mouse_2.y,mouse_2.leftButton,mouse_2.midButton,mouse_2.rightButton,mouse_2.clicked_name,mouse_3.x,mouse_3.y,mouse_3.leftButton,mouse_3.midButton,mouse_3.rightButton,catchresponse,catchnumber,response_time_catch,Catch,mouse_11.x,mouse_11.y,mouse_11.leftButton,mouse_11.midButton,mouse_11.rightButton,trials_2.thisRepN,trials_2.thisTrialN,trials_2.thisN,trials_2.thisIndex,trials_2.ran,Colourpair,Temporder,mouse_3.clicked_name,mouse_11.clicked_name,trials_3.thisRepN,trials_3.thisTrialN,trials_3.thisN,trials_3.thisIndex,trials_3.ran,key_resp_instr_Ishi.keys,key_resp_instr_Ishi.rt,Ishi_trial_keyresp.keys,Ishi_trial_keyresp.rt,Ishi_textbox.text,Ishi_loop.thisRepN,Ishi_loop.thisTrialN,Ishi_loop.thisN,Ishi_loop.thisIndex,Ishi_loop.ran,imageaddress,textbox.text,mouse_4.x,mouse_4.y,mouse_4.leftButton,mouse_4.midButton,mouse_4.rightButton,mouse_4.clicked_name,textbox_2.text,mouse_8.x,mouse_8.y,mouse_8.leftButton,mouse_8.midButton,mouse_8.rightButton,mouse_8.clicked_name,textbox_3.text,mouse_9.x,mouse_9.y,mouse_9.leftButton,mouse_9.midButton,mouse_9.rightButton,mouse_9.clicked_name,textbox_4.text,mouse_12.x,mouse_12.y,mouse_12.leftButton,mouse_12.midButton,mouse_12.rightButton,mouse_12.clicked_name,textbox_5.text,mouse_13.x,mouse_13.y,mouse_13.leftButton,mouse_13.midButton,mouse_13.rightButton,mouse_13.clicked_name,textbox_6.text,mouse_14.x,mouse_14.y,mouse_14.leftButton,mouse_14.midButton,mouse_14.rightButton,mouse_14.clicked_name,textbox_7.text,mouse_15.x,mouse_15.y,mouse_15.leftButton,mouse_15.midButton,mouse_15.rightButton,mouse_15.clicked_name
0,0,0,88,1,,5dd505669740544b263e74ba,62bbf9d222d0c46db6c0c5dd,2022-06-28_20h06.19.402,Colour_Asymmetry_Pilot,2022.1.3,Win32,55.76622797,62bbe60bf3d75ef465d3e404,,,,,,,,,,,,,,,,,,,,,,,,,,,,,,,,,,,,,,,,,,,,,,,,,,,,,,,,,,,,,,,,,,,,,,,,,,,,,,,,,,,,,,,,,,,,,,,,,,,,,,,,,,,,,,,,,,,,,,,,,,,,,,,,,,,,,,,,,,,,,,,,,,,,,,,,,,,,,,
0,1,1,79,1,,5dd505669740544b263e74ba,62bbf9d222d0c46db6c0c5dd,2022-06-28_20h06.19.402,Colour_Asymmetry_Pilot,2022.1.3,Win32,55.76622797,62bbe60bf3d75ef465d3e404,,,,,,,,,,,,,,,,,,,,,,,,,,,,,,,,,,,,,,,,,,,,,,,,,,,,,,,,,,,,,,,,,,,,,,,,,,,,,,,,,,,,,,,,,,,,,,,,,,,,,,,,,,,,,,,,,,,,,,,,,,,,,,,,,,,,,,,,,,,,,,,,,,,,,,,,,,,,,,
0,2,2,65,1,,5dd505669740544b263e74ba,62bbf9d222d0c46db6c0c5dd,2022-06-28_20h06.19.402,Colour_Asymmetry_Pilot,2022.1.3,Win32,55.76622797,62bbe60bf3d75ef465d3e404,,,,,,,,,,,,,,,,,,,,,,,,,,,,,,,,,,,,,,,,,,,,,,,,,,,,,,,,,,,,,,,,,,,,,,,,,,,,,,,,,,,,,,,,,,,,,,,,,,,,,,,,,,,,,,,,,,,,,,,,,,,,,,,,,,,,,,,,,,,,,,,,,,,,,,,,,,,,,,
0,3,3,36,1,,5dd505669740544b263e74ba,62bbf9d222d0c46db6c0c5dd,2022-06-28_20h06.19.402,Colour_Asymmetry_Pilot,2022.1.3,Win32,55.76622797,62bbe60bf3d75ef465d3e404,,,,,,,,,,,,,,,,,,,,,,,,,,,,,,,,,,,,,,,,,,,,,,,,,,,,,,,,,,,,,,,,,,,,,,,,,,,,,,,,,,,,,,,,,,,,,,,,,,,,,,,,,,,,,,,,,,,,,,,,,,,,,,,,,,,,,,,,,,,,,,,,,,,,,,,,,,,,,,
0,4,4,67,1,,5dd505669740544b263e74ba,62bbf9d222d0c46db6c0c5dd,2022-06-28_20h06.19.402,Colour_Asymmetry_Pilot,2022.1.3,Win32,55.76622797,62bbe60bf3d75ef465d3e404,,,,,,,,,,,,,,,,,,,,,,,,,,,,,,,,,,,,,,,,,,,,,,,,,,,,,,,,,,,,,,,,,,,,,,,,,,,,,,,,,,,,,,,,,,,,,,,,,,,,,,,,,,,,,,,,,,,,,,,,,,,,,,,,,,,,,,,,,,,,,,,,,,,,,,,,,,,,,,
0,5,5,20,1,,5dd505669740544b263e74ba,62bbf9d222d0c46db6c0c5dd,2022-06-28_20h06.19.402,Colour_Asymmetry_Pilot,2022.1.3,Win32,55.76622797,62bbe60bf3d75ef465d3e404,,,,,,,,,,,,,,,,,,,,,,,,,,,,,,,,,,,,,,,,,,,,,,,,,,,,,,,,,,,,,,,,,,,,,,,,,,,,,,,,,,,,,,,,,,,,,,,,,,,,,,,,,,,,,,,,,,,,,,,,,,,,,,,,,,,,,,,,,,,,,,,,,,,,,,,,,,,,,,
0,6,6,19,1,,5dd505669740544b263e74ba,62bbf9d222d0c46db6c0c5dd,2022-06-28_20h06.19.402,Colour_Asymmetry_Pilot,2022.1.3,Win32,55.76622797,62bbe60bf3d75ef465d3e404,,,,,,,,,,,,,,,,,,,,,,,,,,,,,,,,,,,,,,,,,,,,,,,,,,,,,,,,,,,,,,,,,,,,,,,,,,,,,,,,,,,,,,,,,,,,,,,,,,,,,,,,,,,,,,,,,,,,,,,,,,,,,,,,,,,,,,,,,,,,,,,,,,,,,,,,,,,,,,
0,7,7,43,1,,5dd505669740544b263e74ba,62bbf9d222d0c46db6c0c5dd,2022-06-28_20h06.19.402,Colour_Asymmetry_Pilot,2022.1.3,Win32,55.76622797,62bbe60bf3d75ef465d3e404,,,,,,,,,,,,,,,,,,,,,,,,,,,,,,,,,,,,,,,,,,,,,,,,,,,,,,,,,,,,,,,,,,,,,,,,,,,,,,,,,,,,,,,,,,,,,,,,,,,,,,,,,,,,,,,,,,,,,,,,,,,,,,,,,,,,,,,,,,,,,,,,,,,,,,,,,,,,,,
0,8,8,73,1,,5dd505669740544b263e74ba,62bbf9d222d0c46db6c0c5dd,2022-06-28_20h06.19.402,Colour_Asymmetry_Pilot,2022.1.3,Win32,55.76622797,62bbe60bf3d75ef465d3e404,,,,,,,,,,,,,,,,,,,,,,,,,,,,,,,,,,,,,,,,,,,,,,,,,,,,,,,,,,,,,,,,,,,,,,,,,,,,,,,,,,,,,,,,,,,,,,,,,,,,,,,,,,,,,,,,,,,,,,,,,,,,,,,,,,,,,,,,,,,,,,,,,,,,,,,,,,,,,,
0,9,9,76,1,,5dd505669740544b263e74ba,62bbf9d222d0c46db6c0c5dd,2022-06-28_20h06.19.402,Colour_Asymmetry_Pilot,2022.1.3,Win32,55.76622797,62bbe60bf3d75ef465d3e404,,,,,,,,,,,,,,,,,,,,,,,,,,,,,,,,,,,,,,,,,,,,,,,,,,,,,,,,,,,,,,,,,,,,,,,,,,,,,,,,,,,,,,,,,,,,,,,,,,,,,,,,,,,,,,,,,,,,,,,,,,,,,,,,,,,,,,,,,,,,,,,,,,,,,,,,,,,,,,
0,10,10,53,1,,5dd505669740544b263e74ba,62bbf9d222d0c46db6c0c5dd,2022-06-28_20h06.19.402,Colour_Asymmetry_Pilot,2022.1.3,Win32,55.76622797,62bbe60bf3d75ef465d3e404,,,,,,,,,,,,,,,,,,,,,,,,,,,,,,,,,,,,,,,,,,,,,,,,,,,,,,,,,,,,,,,,,,,,,,,,,,,,,,,,,,,,,,,,,,,,,,,,,,,,,,,,,,,,,,,,,,,,,,,,,,,,,,,,,,,,,,,,,,,,,,,,,,,,,,,,,,,,,,
0,11,11,31,1,,5dd505669740544b263e74ba,62bbf9d222d0c46db6c0c5dd,2022-06-28_20h06.19.402,Colour_Asymmetry_Pilot,2022.1.3,Win32,55.76622797,62bbe60bf3d75ef465d3e404,,,,,,,,,,,,,,,,,,,,,,,,,,,,,,,,,,,,,,,,,,,,,,,,,,,,,,,,,,,,,,,,,,,,,,,,,,,,,,,,,,,,,,,,,,,,,,,,,,,,,,,,,,,,,,,,,,,,,,,,,,,,,,,,,,,,,,,,,,,,,,,,,,,,,,,,,,,,,,
0,12,12,2,1,,5dd505669740544b263e74ba,62bbf9d222d0c46db6c0c5dd,2022-06-28_20h06.19.402,Colour_Asymmetry_Pilot,2022.1.3,Win32,55.76622797,62bbe60bf3d75ef465d3e404,,,,,,,,,,,,,,,,,,,,,,,,,,,,,,,,,,,,,,,,,,,,,,,,,,,,,,,,,,,,,,,,,,,,,,,,,,,,,,,,,,,,,,,,,,,,,,,,,,,,,,,,,,,,,,,,,,,,,,,,,,,,,,,,,,,,,,,,,,,,,,,,,,,,,,,,,,,,,,
0,13,13,24,1,,5dd505669740544b263e74ba,62bbf9d222d0c46db6c0c5dd,2022-06-28_20h06.19.402,Colour_Asymmetry_Pilot,2022.1.3,Win32,55.76622797,62bbe60bf3d75ef465d3e404,,,,,,,,,,,,,,,,,,,,,,,,,,,,,,,,,,,,,,,,,,,,,,,,,,,,,,,,,,,,,,,,,,,,,,,,,,,,,,,,,,,,,,,,,,,,,,,,,,,,,,,,,,,,,,,,,,,,,,,,,,,,,,,,,,,,,,,,,,,,,,,,,,,,,,,,,,,,,,
0,14,14,77,1,,5dd505669740544b263e74ba,62bbf9d222d0c46db6c0c5dd,2022-06-28_20h06.19.402,Colour_Asymmetry_Pilot,2022.1.3,Win32,55.76622797,62bbe60bf3d75ef465d3e404,,,,,,,,,,,,,,,,,,,,,,,,,,,,,,,,,,,,,,,,,,,,,,,,,,,,,,,,,,,,,,,,,,,,,,,,,,,,,,,,,,,,,,,,,,,,,,,,,,,,,,,,,,,,,,,,,,,,,,,,,,,,,,,,,,,,,,,,,,,,,,,,,,,,,,,,,,,,,,
0,15,15,52,1,,5dd505669740544b263e74ba,62bbf9d222d0c46db6c0c5dd,2022-06-28_20h06.19.402,Colour_Asymmetry_Pilot,2022.1.3,Win32,55.76622797,62bbe60bf3d75ef465d3e404,,,,,,,,,,,,,,,,,,,,,,,,,,,,,,,,,,,,,,,,,,,,,,,,,,,,,,,,,,,,,,,,,,,,,,,,,,,,,,,,,,,,,,,,,,,,,,,,,,,,,,,,,,,,,,,,,,,,,,,,,,,,,,,,,,,,,,,,,,,,,,,,,,,,,,,,,,,,,,
0,16,16,50,1,,5dd505669740544b263e74ba,62bbf9d222d0c46db6c0c5dd,2022-06-28_20h06.19.402,Colour_Asymmetry_Pilot,2022.1.3,Win32,55.76622797,62bbe60bf3d75ef465d3e404,,,,,,,,,,,,,,,,,,,,,,,,,,,,,,,,,,,,,,,,,,,,,,,,,,,,,,,,,,,,,,,,,,,,,,,,,,,,,,,,,,,,,,,,,,,,,,,,,,,,,,,,,,,,,,,,,,,,,,,,,,,,,,,,,,,,,,,,,,,,,,,,,,,,,,,,,,,,,,
0,17,17,44,1,,5dd505669740544b263e74ba,62bbf9d222d0c46db6c0c5dd,2022-06-28_20h06.19.402,Colour_Asymmetry_Pilot,2022.1.3,Win32,55.76622797,62bbe60bf3d75ef465d3e404,,,,,,,,,,,,,,,,,,,,,,,,,,,,,,,,,,,,,,,,,,,,,,,,,,,,,,,,,,,,,,,,,,,,,,,,,,,,,,,,,,,,,,,,,,,,,,,,,,,,,,,,,,,,,,,,,,,,,,,,,,,,,,,,,,,,,,,,,,,,,,,,,,,,,,,,,,,,,,
0,18,18,28,1,,5dd505669740544b263e74ba,62bbf9d222d0c46db6c0c5dd,2022-06-28_20h06.19.402,Colour_Asymmetry_Pilot,2022.1.3,Win32,55.76622797,62bbe60bf3d75ef465d3e404,,,,,,,,,,,,,,,,,,,,,,,,,,,,,,,,,,,,,,,,,,,,,,,,,,,,,,,,,,,,,,,,,,,,,,,,,,,,,,,,,,,,,,,,,,,,,,,,,,,,,,,,,,,,,,,,,,,,,,,,,,,,,,,,,,,,,,,,,,,,,,,,,,,,,,,,,,,,,,
0,19,19,38,1,,5dd505669740544b263e74ba,62bbf9d222d0c46db6c0c5dd,2022-06-28_20h06.19.402,Colour_Asymmetry_Pilot,2022.1.3,Win32,55.76622797,62bbe60bf3d75ef465d3e404,,,,,,,,,,,,,,,,,,,,,,,,,,,,,,,,,,,,,,,,,,,,,,,,,,,,,,,,,,,,,,,,,,,,,,,,,,,,,,,,,,,,,,,,,,,,,,,,,,,,,,,,,,,,,,,,,,,,,,,,,,,,,,,,,,,,,,,,,,,,,,,,,,,,,,,,,,,,,,
0,20,20,27,1,,5dd505669740544b263e74ba,62bbf9d222d0c46db6c0c5dd,2022-06-28_20h06.19.402,Colour_Asymmetry_Pilot,2022.1.3,Win32,55.76622797,62bbe60bf3d75ef465d3e404,,,,,,,,,,,,,,,,,,,,,,,,,,,,,,,,,,,,,,,,,,,,,,,,,,,,,,,,,,,,,,,,,,,,,,,,,,,,,,,,,,,,,,,,,,,,,,,,,,,,,,,,,,,,,,,,,,,,,,,,,,,,,,,,,,,,,,,,,,,,,,,,,,,,,,,,,,,,,,
0,21,21,49,1,,5dd505669740544b263e74ba,62bbf9d222d0c46db6c0c5dd,2022-06-28_20h06.19.402,Colour_Asymmetry_Pilot,2022.1.3,Win32,55.76622797,62bbe60bf3d75ef465d3e404,,,,,,,,,,,,,,,,,,,,,,,,,,,,,,,,,,,,,,,,,,,,,,,,,,,,,,,,,,,,,,,,,,,,,,,,,,,,,,,,,,,,,,,,,,,,,,,,,,,,,,,,,,,,,,,,,,,,,,,,,,,,,,,,,,,,,,,,,,,,,,,,,,,,,,,,,,,,,,
0,22,22,70,1,,5dd505669740544b263e74ba,62bbf9d222d0c46db6c0c5dd,2022-06-28_20h06.19.402,Colour_Asymmetry_Pilot,2022.1.3,Win32,55.76622797,62bbe60bf3d75ef465d3e404,,,,,,,,,,,,,,,,,,,,,,,,,,,,,,,,,,,,,,,,,,,,,,,,,,,,,,,,,,,,,,,,,,,,,,,,,,,,,,,,,,,,,,,,,,,,,,,,,,,,,,,,,,,,,,,,,,,,,,,,,,,,,,,,,,,,,,,,,,,,,,,,,,,,,,,,,,,,,,
0,23,23,34,1,,5dd505669740544b263e74ba,62bbf9d222d0c46db6c0c5dd,2022-06-28_20h06.19.402,Colour_Asymmetry_Pilot,2022.1.3,Win32,55.76622797,62bbe60bf3d75ef465d3e404,,,,,,,,,,,,,,,,,,,,,,,,,,,,,,,,,,,,,,,,,,,,,,,,,,,,,,,,,,,,,,,,,,,,,,,,,,,,,,,,,,,,,,,,,,,,,,,,,,,,,,,,,,,,,,,,,,,,,,,,,,,,,,,,,,,,,,,,,,,,,,,,,,,,,,,,,,,,,,
0,24,24,57,1,,5dd505669740544b263e74ba,62bbf9d222d0c46db6c0c5dd,2022-06-28_20h06.19.402,Colour_Asymmetry_Pilot,2022.1.3,Win32,55.76622797,62bbe60bf3d75ef465d3e404,,,,,,,,,,,,,,,,,,,,,,,,,,,,,,,,,,,,,,,,,,,,,,,,,,,,,,,,,,,,,,,,,,,,,,,,,,,,,,,,,,,,,,,,,,,,,,,,,,,,,,,,,,,,,,,,,,,,,,,,,,,,,,,,,,,,,,,,,,,,,,,,,,,,,,,,,,,,,,
0,25,25,63,1,,5dd505669740544b263e74ba,62bbf9d222d0c46db6c0c5dd,2022-06-28_20h06.19.402,Colour_Asymmetry_Pilot,2022.1.3,Win32,55.76622797,62bbe60bf3d75ef465d3e404,,,,,,,,,,,,,,,,,,,,,,,,,,,,,,,,,,,,,,,,,,,,,,,,,,,,,,,,,,,,,,,,,,,,,,,,,,,,,,,,,,,,,,,,,,,,,,,,,,,,,,,,,,,,,,,,,,,,,,,,,,,,,,,,,,,,,,,,,,,,,,,,,,,,,,,,,,,,,,
0,26,26,69,1,,5dd505669740544b263e74ba,62bbf9d222d0c46db6c0c5dd,2022-06-28_20h06.19.402,Colour_Asymmetry_Pilot,2022.1.3,Win32,55.76622797,62bbe60bf3d75ef465d3e404,,,,,,,,,,,,,,,,,,,,,,,,,,,,,,,,,,,,,,,,,,,,,,,,,,,,,,,,,,,,,,,,,,,,,,,,,,,,,,,,,,,,,,,,,,,,,,,,,,,,,,,,,,,,,,,,,,,,,,,,,,,,,,,,,,,,,,,,,,,,,,,,,,,,,,,,,,,,,,
0,27,27,29,1,,5dd505669740544b263e74ba,62bbf9d222d0c46db6c0c5dd,2022-06-28_20h06.19.402,Colour_Asymmetry_Pilot,2022.1.3,Win32,55.76622797,62bbe60bf3d75ef465d3e404,,,,,,,,,,,,,,,,,,,,,,,,,,,,,,,,,,,,,,,,,,,,,,,,,,,,,,,,,,,,,,,,,,,,,,,,,,,,,,,,,,,,,,,,,,,,,,,,,,,,,,,,,,,,,,,,,,,,,,,,,,,,,,,,,,,,,,,,,,,,,,,,,,,,,,,,,,,,,,
0,28,28,41,1,,5dd505669740544b263e74ba,62bbf9d222d0c46db6c0c5dd,2022-06-28_20h06.19.402,Colour_Asymmetry_Pilot,2022.1.3,Win32,55.76622797,62bbe60bf3d75ef465d3e404,,,,,,,,,,,,,,,,,,,,,,,,,,,,,,,,,,,,,,,,,,,,,,,,,,,,,,,,,,,,,,,,,,,,,,,,,,,,,,,,,,,,,,,,,,,,,,,,,,,,,,,,,,,,,,,,,,,,,,,,,,,,,,,,,,,,,,,,,,,,,,,,,,,,,,,,,,,,,,
0,29,29,18,1,,5dd505669740544b263e74ba,62bbf9d222d0c46db6c0c5dd,2022-06-28_20h06.19.402,Colour_Asymmetry_Pilot,2022.1.3,Win32,55.76622797,62bbe60bf3d75ef465d3e404,,,,,,,,,,,,,,,,,,,,,,,,,,,,,,,,,,,,,,,,,,,,,,,,,,,,,,,,,,,,,,,,,,,,,,,,,,,,,,,,,,,,,,,,,,,,,,,,,,,,,,,,,,,,,,,,,,,,,,,,,,,,,,,,,,,,,,,,,,,,,,,,,,,,,,,,,,,,,,
0,30,30,71,1,,5dd505669740544b263e74ba,62bbf9d222d0c46db6c0c5dd,2022-06-28_20h06.19.402,Colour_Asymmetry_Pilot,2022.1.3,Win32,55.76622797,62bbe60bf3d75ef465d3e404,,,,,,,,,,,,,,,,,,,,,,,,,,,,,,,,,,,,,,,,,,,,,,,,,,,,,,,,,,,,,,,,,,,,,,,,,,,,,,,,,,,,,,,,,,,,,,,,,,,,,,,,,,,,,,,,,,,,,,,,,,,,,,,,,,,,,,,,,,,,,,,,,,,,,,,,,,,,,,
0,31,31,5,1,,5dd505669740544b263e74ba,62bbf9d222d0c46db6c0c5dd,2022-06-28_20h06.19.402,Colour_Asymmetry_Pilot,2022.1.3,Win32,55.76622797,62bbe60bf3d75ef465d3e404,,,,,,,,,,,,,,,,,,,,,,,,,,,,,,,,,,,,,,,,,,,,,,,,,,,,,,,,,,,,,,,,,,,,,,,,,,,,,,,,,,,,,,,,,,,,,,,,,,,,,,,,,,,,,,,,,,,,,,,,,,,,,,,,,,,,,,,,,,,,,,,,,,,,,,,,,,,,,,
0,32,32,55,1,,5dd505669740544b263e74ba,62bbf9d222d0c46db6c0c5dd,2022-06-28_20h06.19.402,Colour_Asymmetry_Pilot,2022.1.3,Win32,55.76622797,62bbe60bf3d75ef465d3e404,,,,,,,,,,,,,,,,,,,,,,,,,,,,,,,,,,,,,,,,,,,,,,,,,,,,,,,,,,,,,,,,,,,,,,,,,,,,,,,,,,,,,,,,,,,,,,,,,,,,,,,,,,,,,,,,,,,,,,,,,,,,,,,,,,,,,,,,,,,,,,,,,,,,,,,,,,,,,,
0,33,33,35,1,,5dd505669740544b263e74ba,62bbf9d222d0c46db6c0c5dd,2022-06-28_20h06.19.402,Colour_Asymmetry_Pilot,2022.1.3,Win32,55.76622797,62bbe60bf3d75ef465d3e404,,,,,,,,,,,,,,,,,,,,,,,,,,,,,,,,,,,,,,,,,,,,,,,,,,,,,,,,,,,,,,,,,,,,,,,,,,,,,,,,,,,,,,,,,,,,,,,,,,,,,,,,,,,,,,,,,,,,,,,,,,,,,,,,,,,,,,,,,,,,,,,,,,,,,,,,,,,,,,
0,34,34,61,1,,5dd505669740544b263e74ba,62bbf9d222d0c46db6c0c5dd,2022-06-28_20h06.19.402,Colour_Asymmetry_Pilot,2022.1.3,Win32,55.76622797,62bbe60bf3d75ef465d3e404,,,,,,,,,,,,,,,,,,,,,,,,,,,,,,,,,,,,,,,,,,,,,,,,,,,,,,,,,,,,,,,,,,,,,,,,,,,,,,,,,,,,,,,,,,,,,,,,,,,,,,,,,,,,,,,,,,,,,,,,,,,,,,,,,,,,,,,,,,,,,,,,,,,,,,,,,,,,,,
0,35,35,90,1,,5dd505669740544b263e74ba,62bbf9d222d0c46db6c0c5dd,2022-06-28_20h06.19.402,Colour_Asymmetry_Pilot,2022.1.3,Win32,55.76622797,62bbe60bf3d75ef465d3e404,,,,,,,,,,,,,,,,,,,,,,,,,,,,,,,,,,,,,,,,,,,,,,,,,,,,,,,,,,,,,,,,,,,,,,,,,,,,,,,,,,,,,,,,,,,,,,,,,,,,,,,,,,,,,,,,,,,,,,,,,,,,,,,,,,,,,,,,,,,,,,,,,,,,,,,,,,,,,,
0,36,36,81,1,,5dd505669740544b263e74ba,62bbf9d222d0c46db6c0c5dd,2022-06-28_20h06.19.402,Colour_Asymmetry_Pilot,2022.1.3,Win32,55.76622797,62bbe60bf3d75ef465d3e404,,,,,,,,,,,,,,,,,,,,,,,,,,,,,,,,,,,,,,,,,,,,,,,,,,,,,,,,,,,,,,,,,,,,,,,,,,,,,,,,,,,,,,,,,,,,,,,,,,,,,,,,,,,,,,,,,,,,,,,,,,,,,,,,,,,,,,,,,,,,,,,,,,,,,,,,,,,,,,
0,37,37,84,1,,5dd505669740544b263e74ba,62bbf9d222d0c46db6c0c5dd,2022-06-28_20h06.19.402,Colour_Asymmetry_Pilot,2022.1.3,Win32,55.76622797,62bbe60bf3d75ef465d3e404,,,,,,,,,,,,,,,,,,,,,,,,,,,,,,,,,,,,,,,,,,,,,,,,,,,,,,,,,,,,,,,,,,,,,,,,,,,,,,,,,,,,,,,,,,,,,,,,,,,,,,,,,,,,,,,,,,,,,,,,,,,,,,,,,,,,,,,,,,,,,,,,,,,,,,,,,,,,,,
0,38,38,21,1,,5dd505669740544b263e74ba,62bbf9d222d0c46db6c0c5dd,2022-06-28_20h06.19.402,Colour_Asymmetry_Pilot,2022.1.3,Win32,55.76622797,62bbe60bf3d75ef465d3e404,,,,,,,,,,,,,,,,,,,,,,,,,,,,,,,,,,,,,,,,,,,,,,,,,,,,,,,,,,,,,,,,,,,,,,,,,,,,,,,,,,,,,,,,,,,,,,,,,,,,,,,,,,,,,,,,,,,,,,,,,,,,,,,,,,,,,,,,,,,,,,,,,,,,,,,,,,,,,,
0,39,39,25,1,,5dd505669740544b263e74ba,62bbf9d222d0c46db6c0c5dd,2022-06-28_20h06.19.402,Colour_Asymmetry_Pilot,2022.1.3,Win32,55.76622797,62bbe60bf3d75ef465d3e404,,,,,,,,,,,,,,,,,,,,,,,,,,,,,,,,,,,,,,,,,,,,,,,,,,,,,,,,,,,,,,,,,,,,,,,,,,,,,,,,,,,,,,,,,,,,,,,,,,,,,,,,,,,,,,,,,,,,,,,,,,,,,,,,,,,,,,,,,,,,,,,,,,,,,,,,,,,,,,
0,40,40,59,1,,5dd505669740544b263e74ba,62bbf9d222d0c46db6c0c5dd,2022-06-28_20h06.19.402,Colour_Asymmetry_Pilot,2022.1.3,Win32,55.76622797,62bbe60bf3d75ef465d3e404,,,,,,,,,,,,,,,,,,,,,,,,,,,,,,,,,,,,,,,,,,,,,,,,,,,,,,,,,,,,,,,,,,,,,,,,,,,,,,,,,,,,,,,,,,,,,,,,,,,,,,,,,,,,,,,,,,,,,,,,,,,,,,,,,,,,,,,,,,,,,,,,,,,,,,,,,,,,,,
0,41,41,51,1,,5dd505669740544b263e74ba,62bbf9d222d0c46db6c0c5dd,2022-06-28_20h06.19.402,Colour_Asymmetry_Pilot,2022.1.3,Win32,55.76622797,62bbe60bf3d75ef465d3e404,,,,,,,,,,,,,,,,,,,,,,,,,,,,,,,,,,,,,,,,,,,,,,,,,,,,,,,,,,,,,,,,,,,,,,,,,,,,,,,,,,,,,,,,,,,,,,,,,,,,,,,,,,,,,,,,,,,,,,,,,,,,,,,,,,,,,,,,,,,,,,,,,,,,,,,,,,,,,,
0,42,42,40,1,,5dd505669740544b263e74ba,62bbf9d222d0c46db6c0c5dd,2022-06-28_20h06.19.402,Colour_Asymmetry_Pilot,2022.1.3,Win32,55.76622797,62bbe60bf3d75ef465d3e404,,,,,,,,,,,,,,,,,,,,,,,,,,,,,,,,,,,,,,,,,,,,,,,,,,,,,,,,,,,,,,,,,,,,,,,,,,,,,,,,,,,,,,,,,,,,,,,,,,,,,,,,,,,,,,,,,,,,,,,,,,,,,,,,,,,,,,,,,,,,,,,,,,,,,,,,,,,,,,
0,43,43,17,1,,5dd505669740544b263e74ba,62bbf9d222d0c46db6c0c5dd,2022-06-28_20h06.19.402,Colour_Asymmetry_Pilot,2022.1.3,Win32,55.76622797,62bbe60bf3d75ef465d3e404,,,,,,,,,,,,,,,,,,,,,,,,,,,,,,,,,,,,,,,,,,,,,,,,,,,,,,,,,,,,,,,,,,,,,,,,,,,,,,,,,,,,,,,,,,,,,,,,,,,,,,,,,,,,,,,,,,,,,,,,,,,,,,,,,,,,,,,,,,,,,,,,,,,,,,,,,,,,,,
0,44,44,58,1,,5dd505669740544b263e74ba,62bbf9d222d0c46db6c0c5dd,2022-06-28_20h06.19.402,Colour_Asymmetry_Pilot,2022.1.3,Win32,55.76622797,62bbe60bf3d75ef465d3e404,,,,,,,,,,,,,,,,,,,,,,,,,,,,,,,,,,,,,,,,,,,,,,,,,,,,,,,,,,,,,,,,,,,,,,,,,,,,,,,,,,,,,,,,,,,,,,,,,,,,,,,,,,,,,,,,,,,,,,,,,,,,,,,,,,,,,,,,,,,,,,,,,,,,,,,,,,,,,,
0,45,45,68,1,,5dd505669740544b263e74ba,62bbf9d222d0c46db6c0c5dd,2022-06-28_20h06.19.402,Colour_Asymmetry_Pilot,2022.1.3,Win32,55.76622797,62bbe60bf3d75ef465d3e404,,,,,,,,,,,,,,,,,,,,,,,,,,,,,,,,,,,,,,,,,,,,,,,,,,,,,,,,,,,,,,,,,,,,,,,,,,,,,,,,,,,,,,,,,,,,,,,,,,,,,,,,,,,,,,,,,,,,,,,,,,,,,,,,,,,,,,,,,,,,,,,,,,,,,,,,,,,,,,
0,46,46,10,1,,5dd505669740544b263e74ba,62bbf9d222d0c46db6c0c5dd,2022-06-28_20h06.19.402,Colour_Asymmetry_Pilot,2022.1.3,Win32,55.76622797,62bbe60bf3d75ef465d3e404,,,,,,,,,,,,,,,,,,,,,,,,,,,,,,,,,,,,,,,,,,,,,,,,,,,,,,,,,,,,,,,,,,,,,,,,,,,,,,,,,,,,,,,,,,,,,,,,,,,,,,,,,,,,,,,,,,,,,,,,,,,,,,,,,,,,,,,,,,,,,,,,,,,,,,,,,,,,,,
0,47,47,6,1,,5dd505669740544b263e74ba,62bbf9d222d0c46db6c0c5dd,2022-06-28_20h06.19.402,Colour_Asymmetry_Pilot,2022.1.3,Win32,55.76622797,62bbe60bf3d75ef465d3e404,,,,,,,,,,,,,,,,,,,,,,,,,,,,,,,,,,,,,,,,,,,,,,,,,,,,,,,,,,,,,,,,,,,,,,,,,,,,,,,,,,,,,,,,,,,,,,,,,,,,,,,,,,,,,,,,,,,,,,,,,,,,,,,,,,,,,,,,,,,,,,,,,,,,,,,,,,,,,,
0,48,48,13,1,,5dd505669740544b263e74ba,62bbf9d222d0c46db6c0c5dd,2022-06-28_20h06.19.402,Colour_Asymmetry_Pilot,2022.1.3,Win32,55.76622797,62bbe60bf3d75ef465d3e404,,,,,,,,,,,,,,,,,,,,,,,,,,,,,,,,,,,,,,,,,,,,,,,,,,,,,,,,,,,,,,,,,,,,,,,,,,,,,,,,,,,,,,,,,,,,,,,,,,,,,,,,,,,,,,,,,,,,,,,,,,,,,,,,,,,,,,,,,,,,,,,,,,,,,,,,,,,,,,
0,49,49,75,1,,5dd505669740544b263e74ba,62bbf9d222d0c46db6c0c5dd,2022-06-28_20h06.19.402,Colour_Asymmetry_Pilot,2022.1.3,Win32,55.76622797,62bbe60bf3d75ef465d3e404,,,,,,,,,,,,,,,,,,,,,,,,,,,,,,,,,,,,,,,,,,,,,,,,,,,,,,,,,,,,,,,,,,,,,,,,,,,,,,,,,,,,,,,,,,,,,,,,,,,,,,,,,,,,,,,,,,,,,,,,,,,,,,,,,,,,,,,,,,,,,,,,,,,,,,,,,,,,,,
0,50,50,4,1,,5dd505669740544b263e74ba,62bbf9d222d0c46db6c0c5dd,2022-06-28_20h06.19.402,Colour_Asymmetry_Pilot,2022.1.3,Win32,55.76622797,62bbe60bf3d75ef465d3e404,,,,,,,,,,,,,,,,,,,,,,,,,,,,,,,,,,,,,,,,,,,,,,,,,,,,,,,,,,,,,,,,,,,,,,,,,,,,,,,,,,,,,,,,,,,,,,,,,,,,,,,,,,,,,,,,,,,,,,,,,,,,,,,,,,,,,,,,,,,,,,,,,,,,,,,,,,,,,,
0,51,51,33,1,,5dd505669740544b263e74ba,62bbf9d222d0c46db6c0c5dd,2022-06-28_20h06.19.402,Colour_Asymmetry_Pilot,2022.1.3,Win32,55.76622797,62bbe60bf3d75ef465d3e404,,,,,,,,,,,,,,,,,,,,,,,,,,,,,,,,,,,,,,,,,,,,,,,,,,,,,,,,,,,,,,,,,,,,,,,,,,,,,,,,,,,,,,,,,,,,,,,,,,,,,,,,,,,,,,,,,,,,,,,,,,,,,,,,,,,,,,,,,,,,,,,,,,,,,,,,,,,,,,
0,52,52,66,1,,5dd505669740544b263e74ba,62bbf9d222d0c46db6c0c5dd,2022-06-28_20h06.19.402,Colour_Asymmetry_Pilot,2022.1.3,Win32,55.76622797,62bbe60bf3d75ef465d3e404,,,,,,,,,,,,,,,,,,,,,,,,,,,,,,,,,,,,,,,,,,,,,,,,,,,,,,,,,,,,,,,,,,,,,,,,,,,,,,,,,,,,,,,,,,,,,,,,,,,,,,,,,,,,,,,,,,,,,,,,,,,,,,,,,,,,,,,,,,,,,,,,,,,,,,,,,,,,,,
0,53,53,60,1,,5dd505669740544b263e74ba,62bbf9d222d0c46db6c0c5dd,2022-06-28_20h06.19.402,Colour_Asymmetry_Pilot,2022.1.3,Win32,55.76622797,62bbe60bf3d75ef465d3e404,,,,,,,,,,,,,,,,,,,,,,,,,,,,,,,,,,,,,,,,,,,,,,,,,,,,,,,,,,,,,,,,,,,,,,,,,,,,,,,,,,,,,,,,,,,,,,,,,,,,,,,,,,,,,,,,,,,,,,,,,,,,,,,,,,,,,,,,,,,,,,,,,,,,,,,,,,,,,,
0,54,54,46,1,,5dd505669740544b263e74ba,62bbf9d222d0c46db6c0c5dd,2022-06-28_20h06.19.402,Colour_Asymmetry_Pilot,2022.1.3,Win32,55.76622797,62bbe60bf3d75ef465d3e404,,,,,,,,,,,,,,,,,,,,,,,,,,,,,,,,,,,,,,,,,,,,,,,,,,,,,,,,,,,,,,,,,,,,,,,,,,,,,,,,,,,,,,,,,,,,,,,,,,,,,,,,,,,,,,,,,,,,,,,,,,,,,,,,,,,,,,,,,,,,,,,,,,,,,,,,,,,,,,
0,55,55,64,1,,5dd505669740544b263e74ba,62bbf9d222d0c46db6c0c5dd,2022-06-28_20h06.19.402,Colour_Asymmetry_Pilot,2022.1.3,Win32,55.76622797,62bbe60bf3d75ef465d3e404,,,,,,,,,,,,,,,,,,,,,,,,,,,,,,,,,,,,,,,,,,,,,,,,,,,,,,,,,,,,,,,,,,,,,,,,,,,,,,,,,,,,,,,,,,,,,,,,,,,,,,,,,,,,,,,,,,,,,,,,,,,,,,,,,,,,,,,,,,,,,,,,,,,,,,,,,,,,,,
0,56,56,14,1,,5dd505669740544b263e74ba,62bbf9d222d0c46db6c0c5dd,2022-06-28_20h06.19.402,Colour_Asymmetry_Pilot,2022.1.3,Win32,55.76622797,62bbe60bf3d75ef465d3e404,,,,,,,,,,,,,,,,,,,,,,,,,,,,,,,,,,,,,,,,,,,,,,,,,,,,,,,,,,,,,,,,,,,,,,,,,,,,,,,,,,,,,,,,,,,,,,,,,,,,,,,,,,,,,,,,,,,,,,,,,,,,,,,,,,,,,,,,,,,,,,,,,,,,,,,,,,,,,,
0,57,57,48,1,,5dd505669740544b263e74ba,62bbf9d222d0c46db6c0c5dd,2022-06-28_20h06.19.402,Colour_Asymmetry_Pilot,2022.1.3,Win32,55.76622797,62bbe60bf3d75ef465d3e404,,,,,,,,,,,,,,,,,,,,,,,,,,,,,,,,,,,,,,,,,,,,,,,,,,,,,,,,,,,,,,,,,,,,,,,,,,,,,,,,,,,,,,,,,,,,,,,,,,,,,,,,,,,,,,,,,,,,,,,,,,,,,,,,,,,,,,,,,,,,,,,,,,,,,,,,,,,,,,
0,58,58,74,1,,5dd505669740544b263e74ba,62bbf9d222d0c46db6c0c5dd,2022-06-28_20h06.19.402,Colour_Asymmetry_Pilot,2022.1.3,Win32,55.76622797,62bbe60bf3d75ef465d3e404,,,,,,,,,,,,,,,,,,,,,,,,,,,,,,,,,,,,,,,,,,,,,,,,,,,,,,,,,,,,,,,,,,,,,,,,,,,,,,,,,,,,,,,,,,,,,,,,,,,,,,,,,,,,,,,,,,,,,,,,,,,,,,,,,,,,,,,,,,,,,,,,,,,,,,,,,,,,,,
0,59,59,39,1,,5dd505669740544b263e74ba,62bbf9d222d0c46db6c0c5dd,2022-06-28_20h06.19.402,Colour_Asymmetry_Pilot,2022.1.3,Win32,55.76622797,62bbe60bf3d75ef465d3e404,,,,,,,,,,,,,,,,,,,,,,,,,,,,,,,,,,,,,,,,,,,,,,,,,,,,,,,,,,,,,,,,,,,,,,,,,,,,,,,,,,,,,,,,,,,,,,,,,,,,,,,,,,,,,,,,,,,,,,,,,,,,,,,,,,,,,,,,,,,,,,,,,,,,,,,,,,,,,,
0,60,60,72,1,,5dd505669740544b263e74ba,62bbf9d222d0c46db6c0c5dd,2022-06-28_20h06.19.402,Colour_Asymmetry_Pilot,2022.1.3,Win32,55.76622797,62bbe60bf3d75ef465d3e404,,,,,,,,,,,,,,,,,,,,,,,,,,,,,,,,,,,,,,,,,,,,,,,,,,,,,,,,,,,,,,,,,,,,,,,,,,,,,,,,,,,,,,,,,,,,,,,,,,,,,,,,,,,,,,,,,,,,,,,,,,,,,,,,,,,,,,,,,,,,,,,,,,,,,,,,,,,,,,
0,61,61,32,1,,5dd505669740544b263e74ba,62bbf9d222d0c46db6c0c5dd,2022-06-28_20h06.19.402,Colour_Asymmetry_Pilot,2022.1.3,Win32,55.76622797,62bbe60bf3d75ef465d3e404,,,,,,,,,,,,,,,,,,,,,,,,,,,,,,,,,,,,,,,,,,,,,,,,,,,,,,,,,,,,,,,,,,,,,,,,,,,,,,,,,,,,,,,,,,,,,,,,,,,,,,,,,,,,,,,,,,,,,,,,,,,,,,,,,,,,,,,,,,,,,,,,,,,,,,,,,,,,,,
0,62,62,89,1,,5dd505669740544b263e74ba,62bbf9d222d0c46db6c0c5dd,2022-06-28_20h06.19.402,Colour_Asymmetry_Pilot,2022.1.3,Win32,55.76622797,62bbe60bf3d75ef465d3e404,,,,,,,,,,,,,,,,,,,,,,,,,,,,,,,,,,,,,,,,,,,,,,,,,,,,,,,,,,,,,,,,,,,,,,,,,,,,,,,,,,,,,,,,,,,,,,,,,,,,,,,,,,,,,,,,,,,,,,,,,,,,,,,,,,,,,,,,,,,,,,,,,,,,,,,,,,,,,,
0,63,63,1,1,,5dd505669740544b263e74ba,62bbf9d222d0c46db6c0c5dd,2022-06-28_20h06.19.402,Colour_Asymmetry_Pilot,2022.1.3,Win32,55.76622797,62bbe60bf3d75ef465d3e404,,,,,,,,,,,,,,,,,,,,,,,,,,,,,,,,,,,,,,,,,,,,,,,,,,,,,,,,,,,,,,,,,,,,,,,,,,,,,,,,,,,,,,,,,,,,,,,,,,,,,,,,,,,,,,,,,,,,,,,,,,,,,,,,,,,,,,,,,,,,,,,,,,,,,,,,,,,,,,
0,64,64,26,1,,5dd505669740544b263e74ba,62bbf9d222d0c46db6c0c5dd,2022-06-28_20h06.19.402,Colour_Asymmetry_Pilot,2022.1.3,Win32,55.76622797,62bbe60bf3d75ef465d3e404,,,,,,,,,,,,,,,,,,,,,,,,,,,,,,,,,,,,,,,,,,,,,,,,,,,,,,,,,,,,,,,,,,,,,,,,,,,,,,,,,,,,,,,,,,,,,,,,,,,,,,,,,,,,,,,,,,,,,,,,,,,,,,,,,,,,,,,,,,,,,,,,,,,,,,,,,,,,,,
0,65,65,15,1,,5dd505669740544b263e74ba,62bbf9d222d0c46db6c0c5dd,2022-06-28_20h06.19.402,Colour_Asymmetry_Pilot,2022.1.3,Win32,55.76622797,62bbe60bf3d75ef465d3e404,,,,,,,,,,,,,,,,,,,,,,,,,,,,,,,,,,,,,,,,,,,,,,,,,,,,,,,,,,,,,,,,,,,,,,,,,,,,,,,,,,,,,,,,,,,,,,,,,,,,,,,,,,,,,,,,,,,,,,,,,,,,,,,,,,,,,,,,,,,,,,,,,,,,,,,,,,,,,,
0,66,66,7,1,,5dd505669740544b263e74ba,62bbf9d222d0c46db6c0c5dd,2022-06-28_20h06.19.402,Colour_Asymmetry_Pilot,2022.1.3,Win32,55.76622797,62bbe60bf3d75ef465d3e404,,,,,,,,,,,,,,,,,,,,,,,,,,,,,,,,,,,,,,,,,,,,,,,,,,,,,,,,,,,,,,,,,,,,,,,,,,,,,,,,,,,,,,,,,,,,,,,,,,,,,,,,,,,,,,,,,,,,,,,,,,,,,,,,,,,,,,,,,,,,,,,,,,,,,,,,,,,,,,
0,67,67,42,1,,5dd505669740544b263e74ba,62bbf9d222d0c46db6c0c5dd,2022-06-28_20h06.19.402,Colour_Asymmetry_Pilot,2022.1.3,Win32,55.76622797,62bbe60bf3d75ef465d3e404,,,,,,,,,,,,,,,,,,,,,,,,,,,,,,,,,,,,,,,,,,,,,,,,,,,,,,,,,,,,,,,,,,,,,,,,,,,,,,,,,,,,,,,,,,,,,,,,,,,,,,,,,,,,,,,,,,,,,,,,,,,,,,,,,,,,,,,,,,,,,,,,,,,,,,,,,,,,,,
0,68,68,83,1,,5dd505669740544b263e74ba,62bbf9d222d0c46db6c0c5dd,2022-06-28_20h06.19.402,Colour_Asymmetry_Pilot,2022.1.3,Win32,55.76622797,62bbe60bf3d75ef465d3e404,,,,,,,,,,,,,,,,,,,,,,,,,,,,,,,,,,,,,,,,,,,,,,,,,,,,,,,,,,,,,,,,,,,,,,,,,,,,,,,,,,,,,,,,,,,,,,,,,,,,,,,,,,,,,,,,,,,,,,,,,,,,,,,,,,,,,,,,,,,,,,,,,,,,,,,,,,,,,,
0,69,69,91,1,,5dd505669740544b263e74ba,62bbf9d222d0c46db6c0c5dd,2022-06-28_20h06.19.402,Colour_Asymmetry_Pilot,2022.1.3,Win32,55.76622797,62bbe60bf3d75ef465d3e404,,,,,,,,,,,,,,,,,,,,,,,,,,,,,,,,,,,,,,,,,,,,,,,,,,,,,,,,,,,,,,,,,,,,,,,,,,,,,,,,,,,,,,,,,,,,,,,,,,,,,,,,,,,,,,,,,,,,,,,,,,,,,,,,,,,,,,,,,,,,,,,,,,,,,,,,,,,,,,
0,70,70,54,1,,5dd505669740544b263e74ba,62bbf9d222d0c46db6c0c5dd,2022-06-28_20h06.19.402,Colour_Asymmetry_Pilot,2022.1.3,Win32,55.76622797,62bbe60bf3d75ef465d3e404,,,,,,,,,,,,,,,,,,,,,,,,,,,,,,,,,,,,,,,,,,,,,,,,,,,,,,,,,,,,,,,,,,,,,,,,,,,,,,,,,,,,,,,,,,,,,,,,,,,,,,,,,,,,,,,,,,,,,,,,,,,,,,,,,,,,,,,,,,,,,,,,,,,,,,,,,,,,,,
0,71,71,56,1,,5dd505669740544b263e74ba,62bbf9d222d0c46db6c0c5dd,2022-06-28_20h06.19.402,Colour_Asymmetry_Pilot,2022.1.3,Win32,55.76622797,62bbe60bf3d75ef465d3e404,,,,,,,,,,,,,,,,,,,,,,,,,,,,,,,,,,,,,,,,,,,,,,,,,,,,,,,,,,,,,,,,,,,,,,,,,,,,,,,,,,,,,,,,,,,,,,,,,,,,,,,,,,,,,,,,,,,,,,,,,,,,,,,,,,,,,,,,,,,,,,,,,,,,,,,,,,,,,,
0,72,72,0,1,,5dd505669740544b263e74ba,62bbf9d222d0c46db6c0c5dd,2022-06-28_20h06.19.402,Colour_Asymmetry_Pilot,2022.1.3,Win32,55.76622797,62bbe60bf3d75ef465d3e404,,,,,,,,,,,,,,,,,,,,,,,,,,,,,,,,,,,,,,,,,,,,,,,,,,,,,,,,,,,,,,,,,,,,,,,,,,,,,,,,,,,,,,,,,,,,,,,,,,,,,,,,,,,,,,,,,,,,,,,,,,,,,,,,,,,,,,,,,,,,,,,,,,,,,,,,,,,,,,
0,73,73,92,1,,5dd505669740544b263e74ba,62bbf9d222d0c46db6c0c5dd,2022-06-28_20h06.19.402,Colour_Asymmetry_Pilot,2022.1.3,Win32,55.76622797,62bbe60bf3d75ef465d3e404,,,,,,,,,,,,,,,,,,,,,,,,,,,,,,,,,,,,,,,,,,,,,,,,,,,,,,,,,,,,,,,,,,,,,,,,,,,,,,,,,,,,,,,,,,,,,,,,,,,,,,,,,,,,,,,,,,,,,,,,,,,,,,,,,,,,,,,,,,,,,,,,,,,,,,,,,,,,,,
0,74,74,85,1,,5dd505669740544b263e74ba,62bbf9d222d0c46db6c0c5dd,2022-06-28_20h06.19.402,Colour_Asymmetry_Pilot,2022.1.3,Win32,55.76622797,62bbe60bf3d75ef465d3e404,,,,,,,,,,,,,,,,,,,,,,,,,,,,,,,,,,,,,,,,,,,,,,,,,,,,,,,,,,,,,,,,,,,,,,,,,,,,,,,,,,,,,,,,,,,,,,,,,,,,,,,,,,,,,,,,,,,,,,,,,,,,,,,,,,,,,,,,,,,,,,,,,,,,,,,,,,,,,,
0,75,75,8,1,,5dd505669740544b263e74ba,62bbf9d222d0c46db6c0c5dd,2022-06-28_20h06.19.402,Colour_Asymmetry_Pilot,2022.1.3,Win32,55.76622797,62bbe60bf3d75ef465d3e404,,,,,,,,,,,,,,,,,,,,,,,,,,,,,,,,,,,,,,,,,,,,,,,,,,,,,,,,,,,,,,,,,,,,,,,,,,,,,,,,,,,,,,,,,,,,,,,,,,,,,,,,,,,,,,,,,,,,,,,,,,,,,,,,,,,,,,,,,,,,,,,,,,,,,,,,,,,,,,
0,76,76,11,1,,5dd505669740544b263e74ba,62bbf9d222d0c46db6c0c5dd,2022-06-28_20h06.19.402,Colour_Asymmetry_Pilot,2022.1.3,Win32,55.76622797,62bbe60bf3d75ef465d3e404,,,,,,,,,,,,,,,,,,,,,,,,,,,,,,,,,,,,,,,,,,,,,,,,,,,,,,,,,,,,,,,,,,,,,,,,,,,,,,,,,,,,,,,,,,,,,,,,,,,,,,,,,,,,,,,,,,,,,,,,,,,,,,,,,,,,,,,,,,,,,,,,,,,,,,,,,,,,,,
0,77,77,16,1,,5dd505669740544b263e74ba,62bbf9d222d0c46db6c0c5dd,2022-06-28_20h06.19.402,Colour_Asymmetry_Pilot,2022.1.3,Win32,55.76622797,62bbe60bf3d75ef465d3e404,,,,,,,,,,,,,,,,,,,,,,,,,,,,,,,,,,,,,,,,,,,,,,,,,,,,,,,,,,,,,,,,,,,,,,,,,,,,,,,,,,,,,,,,,,,,,,,,,,,,,,,,,,,,,,,,,,,,,,,,,,,,,,,,,,,,,,,,,,,,,,,,,,,,,,,,,,,,,,
0,78,78,9,1,,5dd505669740544b263e74ba,62bbf9d222d0c46db6c0c5dd,2022-06-28_20h06.19.402,Colour_Asymmetry_Pilot,2022.1.3,Win32,55.76622797,62bbe60bf3d75ef465d3e404,,,,,,,,,,,,,,,,,,,,,,,,,,,,,,,,,,,,,,,,,,,,,,,,,,,,,,,,,,,,,,,,,,,,,,,,,,,,,,,,,,,,,,,,,,,,,,,,,,,,,,,,,,,,,,,,,,,,,,,,,,,,,,,,,,,,,,,,,,,,,,,,,,,,,,,,,,,,,,
0,79,79,45,1,,5dd505669740544b263e74ba,62bbf9d222d0c46db6c0c5dd,2022-06-28_20h06.19.402,Colour_Asymmetry_Pilot,2022.1.3,Win32,55.76622797,62bbe60bf3d75ef465d3e404,,,,,,,,,,,,,,,,,,,,,,,,,,,,,,,,,,,,,,,,,,,,,,,,,,,,,,,,,,,,,,,,,,,,,,,,,,,,,,,,,,,,,,,,,,,,,,,,,,,,,,,,,,,,,,,,,,,,,,,,,,,,,,,,,,,,,,,,,,,,,,,,,,,,,,,,,,,,,,
0,80,80,12,1,,5dd505669740544b263e74ba,62bbf9d222d0c46db6c0c5dd,2022-06-28_20h06.19.402,Colour_Asymmetry_Pilot,2022.1.3,Win32,55.76622797,62bbe60bf3d75ef465d3e404,,,,,,,,,,,,,,,,,,,,,,,,,,,,,,,,,,,,,,,,,,,,,,,,,,,,,,,,,,,,,,,,,,,,,,,,,,,,,,,,,,,,,,,,,,,,,,,,,,,,,,,,,,,,,,,,,,,,,,,,,,,,,,,,,,,,,,,,,,,,,,,,,,,,,,,,,,,,,,
0,81,81,22,1,,5dd505669740544b263e74ba,62bbf9d222d0c46db6c0c5dd,2022-06-28_20h06.19.402,Colour_Asymmetry_Pilot,2022.1.3,Win32,55.76622797,62bbe60bf3d75ef465d3e404,,,,,,,,,,,,,,,,,,,,,,,,,,,,,,,,,,,,,,,,,,,,,,,,,,,,,,,,,,,,,,,,,,,,,,,,,,,,,,,,,,,,,,,,,,,,,,,,,,,,,,,,,,,,,,,,,,,,,,,,,,,,,,,,,,,,,,,,,,,,,,,,,,,,,,,,,,,,,,
0,82,82,47,1,,5dd505669740544b263e74ba,62bbf9d222d0c46db6c0c5dd,2022-06-28_20h06.19.402,Colour_Asymmetry_Pilot,2022.1.3,Win32,55.76622797,62bbe60bf3d75ef465d3e404,,,,,,,,,,,,,,,,,,,,,,,,,,,,,,,,,,,,,,,,,,,,,,,,,,,,,,,,,,,,,,,,,,,,,,,,,,,,,,,,,,,,,,,,,,,,,,,,,,,,,,,,,,,,,,,,,,,,,,,,,,,,,,,,,,,,,,,,,,,,,,,,,,,,,,,,,,,,,,
0,83,83,62,1,,5dd505669740544b263e74ba,62bbf9d222d0c46db6c0c5dd,2022-06-28_20h06.19.402,Colour_Asymmetry_Pilot,2022.1.3,Win32,55.76622797,62bbe60bf3d75ef465d3e404,,,,,,,,,,,,,,,,,,,,,,,,,,,,,,,,,,,,,,,,,,,,,,,,,,,,,,,,,,,,,,,,,,,,,,,,,,,,,,,,,,,,,,,,,,,,,,,,,,,,,,,,,,,,,,,,,,,,,,,,,,,,,,,,,,,,,,,,,,,,,,,,,,,,,,,,,,,,,,
0,84,84,37,1,,5dd505669740544b263e74ba,62bbf9d222d0c46db6c0c5dd,2022-06-28_20h06.19.402,Colour_Asymmetry_Pilot,2022.1.3,Win32,55.76622797,62bbe60bf3d75ef465d3e404,,,,,,,,,,,,,,,,,,,,,,,,,,,,,,,,,,,,,,,,,,,,,,,,,,,,,,,,,,,,,,,,,,,,,,,,,,,,,,,,,,,,,,,,,,,,,,,,,,,,,,,,,,,,,,,,,,,,,,,,,,,,,,,,,,,,,,,,,,,,,,,,,,,,,,,,,,,,,,
0,85,85,80,1,,5dd505669740544b263e74ba,62bbf9d222d0c46db6c0c5dd,2022-06-28_20h06.19.402,Colour_Asymmetry_Pilot,2022.1.3,Win32,55.76622797,62bbe60bf3d75ef465d3e404,,,,,,,,,,,,,,,,,,,,,,,,,,,,,,,,,,,,,,,,,,,,,,,,,,,,,,,,,,,,,,,,,,,,,,,,,,,,,,,,,,,,,,,,,,,,,,,,,,,,,,,,,,,,,,,,,,,,,,,,,,,,,,,,,,,,,,,,,,,,,,,,,,,,,,,,,,,,,,
0,86,86,82,1,,5dd505669740544b263e74ba,62bbf9d222d0c46db6c0c5dd,2022-06-28_20h06.19.402,Colour_Asymmetry_Pilot,2022.1.3,Win32,55.76622797,62bbe60bf3d75ef465d3e404,,,,,,,,,,,,,,,,,,,,,,,,,,,,,,,,,,,,,,,,,,,,,,,,,,,,,,,,,,,,,,,,,,,,,,,,,,,,,,,,,,,,,,,,,,,,,,,,,,,,,,,,,,,,,,,,,,,,,,,,,,,,,,,,,,,,,,,,,,,,,,,,,,,,,,,,,,,,,,
0,87,87,30,1,,5dd505669740544b263e74ba,62bbf9d222d0c46db6c0c5dd,2022-06-28_20h06.19.402,Colour_Asymmetry_Pilot,2022.1.3,Win32,55.76622797,62bbe60bf3d75ef465d3e404,,,,,,,,,,,,,,,,,,,,,,,,,,,,,,,,,,,,,,,,,,,,,,,,,,,,,,,,,,,,,,,,,,,,,,,,,,,,,,,,,,,,,,,,,,,,,,,,,,,,,,,,,,,,,,,,,,,,,,,,,,,,,,,,,,,,,,,,,,,,,,,,,,,,,,,,,,,,,,
0,88,88,86,1,,5dd505669740544b263e74ba,62bbf9d222d0c46db6c0c5dd,2022-06-28_20h06.19.402,Colour_Asymmetry_Pilot,2022.1.3,Win32,55.76622797,62bbe60bf3d75ef465d3e404,,,,,,,,,,,,,,,,,,,,,,,,,,,,,,,,,,,,,,,,,,,,,,,,,,,,,,,,,,,,,,,,,,,,,,,,,,,,,,,,,,,,,,,,,,,,,,,,,,,,,,,,,,,,,,,,,,,,,,,,,,,,,,,,,,,,,,,,,,,,,,,,,,,,,,,,,,,,,,
0,89,89,23,1,,5dd505669740544b263e74ba,62bbf9d222d0c46db6c0c5dd,2022-06-28_20h06.19.402,Colour_Asymmetry_Pilot,2022.1.3,Win32,55.76622797,62bbe60bf3d75ef465d3e404,,,,,,,,,,,,,,,,,,,,,,,,,,,,,,,,,,,,,,,,,,,,,,,,,,,,,,,,,,,,,,,,,,,,,,,,,,,,,,,,,,,,,,,,,,,,,,,,,,,,,,,,,,,,,,,,,,,,,,,,,,,,,,,,,,,,,,,,,,,,,,,,,,,,,,,,,,,,,,
0,90,90,78,1,,5dd505669740544b263e74ba,62bbf9d222d0c46db6c0c5dd,2022-06-28_20h06.19.402,Colour_Asymmetry_Pilot,2022.1.3,Win32,55.76622797,62bbe60bf3d75ef465d3e404,,,,,,,,,,,,,,,,,,,,,,,,,,,,,,,,,,,,,,,,,,,,,,,,,,,,,,,,,,,,,,,,,,,,,,,,,,,,,,,,,,,,,,,,,,,,,,,,,,,,,,,,,,,,,,,,,,,,,,,,,,,,,,,,,,,,,,,,,,,,,,,,,,,,,,,,,,,,,,
0,91,91,3,1,,5dd505669740544b263e74ba,62bbf9d222d0c46db6c0c5dd,2022-06-28_20h06.19.402,Colour_Asymmetry_Pilot,2022.1.3,Win32,55.76622797,62bbe60bf3d75ef465d3e404,,,,,,,,,,,,,,,,,,,,,,,,,,,,,,,,,,,,,,,,,,,,,,,,,,,,,,,,,,,,,,,,,,,,,,,,,,,,,,,,,,,,,,,,,,,,,,,,,,,,,,,,,,,,,,,,,,,,,,,,,,,,,,,,,,,,,,,,,,,,,,,,,,,,,,,,,,,,,,
0,92,92,87,1,,5dd505669740544b263e74ba,62bbf9d222d0c46db6c0c5dd,2022-06-28_20h06.19.402,Colour_Asymmetry_Pilot,2022.1.3,Win32,55.76622797,62bbe60bf3d75ef465d3e404,,,,,,,,,,,,,,,,,,,,,,,,,,,,,,,,,,,,,,,,,,,,,,,,,,,,,,,,,,,,,,,,,,,,,,,,,,,,,,,,,,,,,,,,,,,,,,,,,,,,,,,,,,,,,,,,,,,,,,,,,,,,,,,,,,,,,,,,,,,,,,,,,,,,,,,,,,,,,,
,,,,,,5dd505669740544b263e74ba,62bbf9d222d0c46db6c0c5dd,2022-06-28_20h06.19.402,Colour_Asymmetry_Pilot,2022.1.3,Win32,55.76622797,62bbe60bf3d75ef465d3e404,0,0,0,29,1,threefour,,,,,,,,,,,,,,,,,,,,,,,,,,,,,,,,,,,,,,,,,,,,,,,,,,,,,,,,,,,,,,,,,,,,,,,,,,,,,,,,,,,,,,,,,,,,,,,,,,,,,,,,,,,,,,,,,,,,,,,,,,,,,,,,,,,,,,,,,,,,,,,,,,,,,,,,
,,,,,,5dd505669740544b263e74ba,62bbf9d222d0c46db6c0c5dd,2022-06-28_20h06.19.402,Colour_Asymmetry_Pilot,2022.1.3,Win32,55.76622797,62bbe60bf3d75ef465d3e404,0,1,1,106,1,twoone,,,,,,,,,,,,,,,,,,,,,,,,,,,,,,,,,,,,,,,,,,,,,,,,,,,,,,,,,,,,,,,,,,,,,,,,,,,,,,,,,,,,,,,,,,,,,,,,,,,,,,,,,,,,,,,,,,,,,,,,,,,,,,,,,,,,,,,,,,,,,,,,,,,,,,,,
,,,,,,5dd505669740544b263e74ba,62bbf9d222d0c46db6c0c5dd,2022-06-28_20h06.19.402,Colour_Asymmetry_Pilot,2022.1.3,Win32,55.76622797,62bbe60bf3d75ef465d3e404,0,2,2,111,1,fourthree,,,,,,,,,,,,,,,,,,,,,,,,,,,,,,,,,,,,,,,,,,,,,,,,,,,,,,,,,,,,,,,,,,,,,,,,,,,,,,,,,,,,,,,,,,,,,,,,,,,,,,,,,,,,,,,,,,,,,,,,,,,,,,,,,,,,,,,,,,,,,,,,,,,,,,,,
,,,,,,5dd505669740544b263e74ba,62bbf9d222d0c46db6c0c5dd,2022-06-28_20h06.19.402,Colour_Asymmetry_Pilot,2022.1.3,Win32,55.76622797,62bbe60bf3d75ef465d3e404,0,3,3,78,1,fourtwo,,,,,,,,,,,,,,,,,,,,,,,,,,,,,,,,,,,,,,,,,,,,,,,,,,,,,,,,,,,,,,,,,,,,,,,,,,,,,,,,,,,,,,,,,,,,,,,,,,,,,,,,,,,,,,,,,,,,,,,,,,,,,,,,,,,,,,,,,,,,,,,,,,,,,,,,
,,,,,,5dd505669740544b263e74ba,62bbf9d222d0c46db6c0c5dd,2022-06-28_20h06.19.402,Colour_Asymmetry_Pilot,2022.1.3,Win32,55.76622797,62bbe60bf3d75ef465d3e404,0,4,4,62,1,fourtwo,,,,,,,,,,,,,,,,,,,,,,,,,,,,,,,,,,,,,,,,,,,,,,,,,,,,,,,,,,,,,,,,,,,,,,,,,,,,,,,,,,,,,,,,,,,,,,,,,,,,,,,,,,,,,,,,,,,,,,,,,,,,,,,,,,,,,,,,,,,,,,,,,,,,,,,,
,,,,,,5dd505669740544b263e74ba,62bbf9d222d0c46db6c0c5dd,2022-06-28_20h06.19.402,Colour_Asymmetry_Pilot,2022.1.3,Win32,55.76622797,62bbe60bf3d75ef465d3e404,0,5,5,1,1,onethree,,,,,,,,,,,,,,,,,,,,,,,,,,,,,,,,,,,,,,,,,,,,,,,,,,,,,,,,,,,,,,,,,,,,,,,,,,,,,,,,,,,,,,,,,,,,,,,,,,,,,,,,,,,,,,,,,,,,,,,,,,,,,,,,,,,,,,,,,,,,,,,,,,,,,,,,
,,,,,,5dd505669740544b263e74ba,62bbf9d222d0c46db6c0c5dd,2022-06-28_20h06.19.402,Colour_Asymmetry_Pilot,2022.1.3,Win32,55.76622797,62bbe60bf3d75ef465d3e404,0,6,6,19,1,twofour,,,,,,,,,,,,,,,,,,,,,,,,,,,,,,,,,,,,,,,,,,,,,,,,,,,,,,,,,,,,,,,,,,,,,,,,,,,,,,,,,,,,,,,,,,,,,,,,,,,,,,,,,,,,,,,,,,,,,,,,,,,,,,,,,,,,,,,,,,,,,,,,,,,,,,,,
,,,,,,5dd505669740544b263e74ba,62bbf9d222d0c46db6c0c5dd,2022-06-28_20h06.19.402,Colour_Asymmetry_Pilot,2022.1.3,Win32,55.76622797,62bbe60bf3d75ef465d3e404,0,7,7,133,1,threefour,,,,,,,,,,,,,,,,,,,,,,,,,,,,,,,,,,,,,,,,,,,,,,,,,,,,,,,,,,,,,,,,,,,,,,,,,,,,,,,,,,,,,,,,,,,,,,,,,,,,,,,,,,,,,,,,,,,,,,,,,,,,,,,,,,,,,,,,,,,,,,,,,,,,,,,,
,,,,,,5dd505669740544b263e74ba,62bbf9d222d0c46db6c0c5dd,2022-06-28_20h06.19.402,Colour_Asymmetry_Pilot,2022.1.3,Win32,55.76622797,62bbe60bf3d75ef465d3e404,0,8,8,67,1,twofour,,,,,,,,,,,,,,,,,,,,,,,,,,,,,,,,,,,,,,,,,,,,,,,,,,,,,,,,,,,,,,,,,,,,,,,,,,,,,,,,,,,,,,,,,,,,,,,,,,,,,,,,,,,,,,,,,,,,,,,,,,,,,,,,,,,,,,,,,,,,,,,,,,,,,,,,
,,,,,,5dd505669740544b263e74ba,62bbf9d222d0c46db6c0c5dd,2022-06-28_20h06.19.402,Colour_Asymmetry_Pilot,2022.1.3,Win32,55.76622797,62bbe60bf3d75ef465d3e404,0,9,9,30,1,fourtwo,,,,,,,,,,,,,,,,,,,,,,,,,,,,,,,,,,,,,,,,,,,,,,,,,,,,,,,,,,,,,,,,,,,,,,,,,,,,,,,,,,,,,,,,,,,,,,,,,,,,,,,,,,,,,,,,,,,,,,,,,,,,,,,,,,,,,,,,,,,,,,,,,,,,,,,,
,,,,,,5dd505669740544b263e74ba,62bbf9d222d0c46db6c0c5dd,2022-06-28_20h06.19.402,Colour_Asymmetry_Pilot,2022.1.3,Win32,55.76622797,62bbe60bf3d75ef465d3e404,0,10,10,20,1,threeone,,,,,,,,,,,,,,,,,,,,,,,,,,,,,,,,,,,,,,,,,,,,,,,,,,,,,,,,,,,,,,,,,,,,,,,,,,,,,,,,,,,,,,,,,,,,,,,,,,,,,,,,,,,,,,,,,,,,,,,,,,,,,,,,,,,,,,,,,,,,,,,,,,,,,,,,
,,,,,,5dd505669740544b263e74ba,62bbf9d222d0c46db6c0c5dd,2022-06-28_20h06.19.402,Colour_Asymmetry_Pilot,2022.1.3,Win32,55.76622797,62bbe60bf3d75ef465d3e404,0,11,11,28,1,threeone,,,,,,,,,,,,,,,,,,,,,,,,,,,,,,,,,,,,,,,,,,,,,,,,,,,,,,,,,,,,,,,,,,,,,,,,,,,,,,,,,,,,,,,,,,,,,,,,,,,,,,,,,,,,,,,,,,,,,,,,,,,,,,,,,,,,,,,,,,,,,,,,,,,,,,,,
,,,,,,5dd505669740544b263e74ba,62bbf9d222d0c46db6c0c5dd,2022-06-28_20h06.19.402,Colour_Asymmetry_Pilot,2022.1.3,Win32,55.76622797,62bbe60bf3d75ef465d3e404,0,12,12,152,1,onetwo,,,,,,,,,,,,,,,,,,,,,,,,,,,,,,,,,,,,,,,,,,,,,,,,,,,,,,,,,,,,,,,,,,,,,,,,,,,,,,,,,,,,,,,,,,,,,,,,,,,,,,,,,,,,,,,,,,,,,,,,,,,,,,,,,,,,,,,,,,,,,,,,,,,,,,,,
,,,,,,5dd505669740544b263e74ba,62bbf9d222d0c46db6c0c5dd,2022-06-28_20h06.19.402,Colour_Asymmetry_Pilot,2022.1.3,Win32,55.76622797,62bbe60bf3d75ef465d3e404,0,13,13,103,1,fourthree,,,,,,,,,,,,,,,,,,,,,,,,,,,,,,,,,,,,,,,,,,,,,,,,,,,,,,,,,,,,,,,,,,,,,,,,,,,,,,,,,,,,,,,,,,,,,,,,,,,,,,,,,,,,,,,,,,,,,,,,,,,,,,,,,,,,,,,,,,,,,,,,,,,,,,,,
,,,,,,5dd505669740544b263e74ba,62bbf9d222d0c46db6c0c5dd,2022-06-28_20h06.19.402,Colour_Asymmetry_Pilot,2022.1.3,Win32,55.76622797,62bbe60bf3d75ef465d3e404,0,14,14,23,1,fourthree,,,,,,,,,,,,,,,,,,,,,,,,,,,,,,,,,,,,,,,,,,,,,,,,,,,,,,,,,,,,,,,,,,,,,,,,,,,,,,,,,,,,,,,,,,,,,,,,,,,,,,,,,,,,,,,,,,,,,,,,,,,,,,,,,,,,,,,,,,,,,,,,,,,,,,,,
,,,,,,5dd505669740544b263e74ba,62bbf9d222d0c46db6c0c5dd,2022-06-28_20h06.19.402,Colour_Asymmetry_Pilot,2022.1.3,Win32,55.76622797,62bbe60bf3d75ef465d3e404,0,15,15,147,1,twofour,,,,,,,,,,,,,,,,,,,,,,,,,,,,,,,,,,,,,,,,,,,,,,,,,,,,,,,,,,,,,,,,,,,,,,,,,,,,,,,,,,,,,,,,,,,,,,,,,,,,,,,,,,,,,,,,,,,,,,,,,,,,,,,,,,,,,,,,,,,,,,,,,,,,,,,,
,,,,,,5dd505669740544b263e74ba,62bbf9d222d0c46db6c0c5dd,2022-06-28_20h06.19.402,Colour_Asymmetry_Pilot,2022.1.3,Win32,55.76622797,62bbe60bf3d75ef465d3e404,0,16,16,87,1,fourthree,,,,,,,,,,,,,,,,,,,,,,,,,,,,,,,,,,,,,,,,,,,,,,,,,,,,,,,,,,,,,,,,,,,,,,,,,,,,,,,,,,,,,,,,,,,,,,,,,,,,,,,,,,,,,,,,,,,,,,,,,,,,,,,,,,,,,,,,,,,,,,,,,,,,,,,,
,,,,,,5dd505669740544b263e74ba,62bbf9d222d0c46db6c0c5dd,2022-06-28_20h06.19.402,Colour_Asymmetry_Pilot,2022.1.3,Win32,55.76622797,62bbe60bf3d75ef465d3e404,0,17,17,105,1,onethree,,,,,,,,,,,,,,,,,,,,,,,,,,,,,,,,,,,,,,,,,,,,,,,,,,,,,,,,,,,,,,,,,,,,,,,,,,,,,,,,,,,,,,,,,,,,,,,,,,,,,,,,,,,,,,,,,,,,,,,,,,,,,,,,,,,,,,,,,,,,,,,,,,,,,,,,
,,,,,,5dd505669740544b263e74ba,62bbf9d222d0c46db6c0c5dd,2022-06-28_20h06.19.402,Colour_Asymmetry_Pilot,2022.1.3,Win32,55.76622797,62bbe60bf3d75ef465d3e404,0,18,18,57,1,onethree,,,,,,,,,,,,,,,,,,,,,,,,,,,,,,,,,,,,,,,,,,,,,,,,,,,,,,,,,,,,,,,,,,,,,,,,,,,,,,,,,,,,,,,,,,,,,,,,,,,,,,,,,,,,,,,,,,,,,,,,,,,,,,,,,,,,,,,,,,,,,,,,,,,,,,,,
,,,,,,5dd505669740544b263e74ba,62bbf9d222d0c46db6c0c5dd,2022-06-28_20h06.19.402,Colour_Asymmetry_Pilot,2022.1.3,Win32,55.76622797,62bbe60bf3d75ef465d3e404,0,19,19,24,1,onetwo,,,,,,,,,,,,,,,,,,,,,,,,,,,,,,,,,,,,,,,,,,,,,,,,,,,,,,,,,,,,,,,,,,,,,,,,,,,,,,,,,,,,,,,,,,,,,,,,,,,,,,,,,,,,,,,,,,,,,,,,,,,,,,,,,,,,,,,,,,,,,,,,,,,,,,,,
,,,,,,5dd505669740544b263e74ba,62bbf9d222d0c46db6c0c5dd,2022-06-28_20h06.19.402,Colour_Asymmetry_Pilot,2022.1.3,Win32,55.76622797,62bbe60bf3d75ef465d3e404,0,20,20,25,1,onethree,,,,,,,,,,,,,,,,,,,,,,,,,,,,,,,,,,,,,,,,,,,,,,,,,,,,,,,,,,,,,,,,,,,,,,,,,,,,,,,,,,,,,,,,,,,,,,,,,,,,,,,,,,,,,,,,,,,,,,,,,,,,,,,,,,,,,,,,,,,,,,,,,,,,,,,,
,,,,,,5dd505669740544b263e74ba,62bbf9d222d0c46db6c0c5dd,2022-06-28_20h06.19.402,Colour_Asymmetry_Pilot,2022.1.3,Win32,55.76622797,62bbe60bf3d75ef465d3e404,0,21,21,149,1,threefour,,,,,,,,,,,,,,,,,,,,,,,,,,,,,,,,,,,,,,,,,,,,,,,,,,,,,,,,,,,,,,,,,,,,,,,,,,,,,,,,,,,,,,,,,,,,,,,,,,,,,,,,,,,,,,,,,,,,,,,,,,,,,,,,,,,,,,,,,,,,,,,,,,,,,,,,
,,,,,,5dd505669740544b263e74ba,62bbf9d222d0c46db6c0c5dd,2022-06-28_20h06.19.402,Colour_Asymmetry_Pilot,2022.1.3,Win32,55.76622797,62bbe60bf3d75ef465d3e404,0,22,22,160,1,onetwo,,,,,,,,,,,,,,,,,,,,,,,,,,,,,,,,,,,,,,,,,,,,,,,,,,,,,,,,,,,,,,,,,,,,,,,,,,,,,,,,,,,,,,,,,,,,,,,,,,,,,,,,,,,,,,,,,,,,,,,,,,,,,,,,,,,,,,,,,,,,,,,,,,,,,,,,
,,,,,,5dd505669740544b263e74ba,62bbf9d222d0c46db6c0c5dd,2022-06-28_20h06.19.402,Colour_Asymmetry_Pilot,2022.1.3,Win32,55.76622797,62bbe60bf3d75ef465d3e404,0,23,23,129,1,onethree,,,,,,,,,,,,,,,,,,,,,,,,,,,,,,,,,,,,,,,,,,,,,,,,,,,,,,,,,,,,,,,,,,,,,,,,,,,,,,,,,,,,,,,,,,,,,,,,,,,,,,,,,,,,,,,,,,,,,,,,,,,,,,,,,,,,,,,,,,,,,,,,,,,,,,,,
,,,,,,5dd505669740544b263e74ba,62bbf9d222d0c46db6c0c5dd,2022-06-28_20h06.19.402,Colour_Asymmetry_Pilot,2022.1.3,Win32,55.76622797,62bbe60bf3d75ef465d3e404,0,24,24,39,1,fourthree,,,,,,,,,,,,,,,,,,,,,,,,,,,,,,,,,,,,,,,,,,,,,,,,,,,,,,,,,,,,,,,,,,,,,,,,,,,,,,,,,,,,,,,,,,,,,,,,,,,,,,,,,,,,,,,,,,,,,,,,,,,,,,,,,,,,,,,,,,,,,,,,,,,,,,,,
,,,,,,5dd505669740544b263e74ba,62bbf9d222d0c46db6c0c5dd,2022-06-28_20h06.19.402,Colour_Asymmetry_Pilot,2022.1.3,Win32,55.76622797,62bbe60bf3d75ef465d3e404,0,25,25,36,1,threeone,,,,,,,,,,,,,,,,,,,,,,,,,,,,,,,,,,,,,,,,,,,,,,,,,,,,,,,,,,,,,,,,,,,,,,,,,,,,,,,,,,,,,,,,,,,,,,,,,,,,,,,,,,,,,,,,,,,,,,,,,,,,,,,,,,,,,,,,,,,,,,,,,,,,,,,,
,,,,,,5dd505669740544b263e74ba,62bbf9d222d0c46db6c0c5dd,2022-06-28_20h06.19.402,Colour_Asymmetry_Pilot,2022.1.3,Win32,55.76622797,62bbe60bf3d75ef465d3e404,0,26,26,132,1,threeone,,,,,,,,,,,,,,,,,,,,,,,,,,,,,,,,,,,,,,,,,,,,,,,,,,,,,,,,,,,,,,,,,,,,,,,,,,,,,,,,,,,,,,,,,,,,,,,,,,,,,,,,,,,,,,,,,,,,,,,,,,,,,,,,,,,,,,,,,,,,,,,,,,,,,,,,
,,,,,,5dd505669740544b263e74ba,62bbf9d222d0c46db6c0c5dd,2022-06-28_20h06.19.402,Colour_Asymmetry_Pilot,2022.1.3,Win32,55.76622797,62bbe60bf3d75ef465d3e404,0,27,27,54,1,fourtwo,,,,,,,,,,,,,,,,,,,,,,,,,,,,,,,,,,,,,,,,,,,,,,,,,,,,,,,,,,,,,,,,,,,,,,,,,,,,,,,,,,,,,,,,,,,,,,,,,,,,,,,,,,,,,,,,,,,,,,,,,,,,,,,,,,,,,,,,,,,,,,,,,,,,,,,,
,,,,,,5dd505669740544b263e74ba,62bbf9d222d0c46db6c0c5dd,2022-06-28_20h06.19.402,Colour_Asymmetry_Pilot,2022.1.3,Win32,55.76622797,62bbe60bf3d75ef465d3e404,0,28,28,145,1,onethree,,,,,,,,,,,,,,,,,,,,,,,,,,,,,,,,,,,,,,,,,,,,,,,,,,,,,,,,,,,,,,,,,,,,,,,,,,,,,,,,,,,,,,,,,,,,,,,,,,,,,,,,,,,,,,,,,,,,,,,,,,,,,,,,,,,,,,,,,,,,,,,,,,,,,,,,
,,,,,,5dd505669740544b263e74ba,62bbf9d222d0c46db6c0c5dd,2022-06-28_20h06.19.402,Colour_Asymmetry_Pilot,2022.1.3,Win32,55.76622797,62bbe60bf3d75ef465d3e404,0,29,29,26,1,twoone,,,,,,,,,,,,,,,,,,,,,,,,,,,,,,,,,,,,,,,,,,,,,,,,,,,,,,,,,,,,,,,,,,,,,,,,,,,,,,,,,,,,,,,,,,,,,,,,,,,,,,,,,,,,,,,,,,,,,,,,,,,,,,,,,,,,,,,,,,,,,,,,,,,,,,,,
,,,,,,5dd505669740544b263e74ba,62bbf9d222d0c46db6c0c5dd,2022-06-28_20h06.19.402,Colour_Asymmetry_Pilot,2022.1.3,Win32,55.76622797,62bbe60bf3d75ef465d3e404,0,30,30,31,1,fourthree,,,,,,,,,,,,,,,,,,,,,,,,,,,,,,,,,,,,,,,,,,,,,,,,,,,,,,,,,,,,,,,,,,,,,,,,,,,,,,,,,,,,,,,,,,,,,,,,,,,,,,,,,,,,,,,,,,,,,,,,,,,,,,,,,,,,,,,,,,,,,,,,,,,,,,,,
,,,,,,5dd505669740544b263e74ba,62bbf9d222d0c46db6c0c5dd,2022-06-28_20h06.19.402,Colour_Asymmetry_Pilot,2022.1.3,Win32,55.76622797,62bbe60bf3d75ef465d3e404,0,31,31,139,1,twofour,,,,,,,,,,,,,,,,,,,,,,,,,,,,,,,,,,,,,,,,,,,,,,,,,,,,,,,,,,,,,,,,,,,,,,,,,,,,,,,,,,,,,,,,,,,,,,,,,,,,,,,,,,,,,,,,,,,,,,,,,,,,,,,,,,,,,,,,,,,,,,,,,,,,,,,,
,,,,,,5dd505669740544b263e74ba,62bbf9d222d0c46db6c0c5dd,2022-06-28_20h06.19.402,Colour_Asymmetry_Pilot,2022.1.3,Win32,55.76622797,62bbe60bf3d75ef465d3e404,0,32,32,104,1,onetwo,,,,,,,,,,,,,,,,,,,,,,,,,,,,,,,,,,,,,,,,,,,,,,,,,,,,,,,,,,,,,,,,,,,,,,,,,,,,,,,,,,,,,,,,,,,,,,,,,,,,,,,,,,,,,,,,,,,,,,,,,,,,,,,,,,,,,,,,,,,,,,,,,,,,,,,,
,,,,,,5dd505669740544b263e74ba,62bbf9d222d0c46db6c0c5dd,2022-06-28_20h06.19.402,Colour_Asymmetry_Pilot,2022.1.3,Win32,55.76622797,62bbe60bf3d75ef465d3e404,0,33,33,70,1,fourtwo,,,,,,,,,,,,,,,,,,,,,,,,,,,,,,,,,,,,,,,,,,,,,,,,,,,,,,,,,,,,,,,,,,,,,,,,,,,,,,,,,,,,,,,,,,,,,,,,,,,,,,,,,,,,,,,,,,,,,,,,,,,,,,,,,,,,,,,,,,,,,,,,,,,,,,,,
,,,,,,5dd505669740544b263e74ba,62bbf9d222d0c46db6c0c5dd,2022-06-28_20h06.19.402,Colour_Asymmetry_Pilot,2022.1.3,Win32,55.76622797,62bbe60bf3d75ef465d3e404,0,34,34,99,1,twofour,,,,,,,,,,,,,,,,,,,,,,,,,,,,,,,,,,,,,,,,,,,,,,,,,,,,,,,,,,,,,,,,,,,,,,,,,,,,,,,,,,,,,,,,,,,,,,,,,,,,,,,,,,,,,,,,,,,,,,,,,,,,,,,,,,,,,,,,,,,,,,,,,,,,,,,,
,,,,,,5dd505669740544b263e74ba,62bbf9d222d0c46db6c0c5dd,2022-06-28_20h06.19.402,Colour_Asymmetry_Pilot,2022.1.3,Win32,55.76622797,62bbe60bf3d75ef465d3e404,0,35,35,92,1,threeone,,,,,,,,,,,,,,,,,,,,,,,,,,,,,,,,,,,,,,,,,,,,,,,,,,,,,,,,,,,,,,,,,,,,,,,,,,,,,,,,,,,,,,,,,,,,,,,,,,,,,,,,,,,,,,,,,,,,,,,,,,,,,,,,,,,,,,,,,,,,,,,,,,,,,,,,
,,,,,,5dd505669740544b263e74ba,62bbf9d222d0c46db6c0c5dd,2022-06-28_20h06.19.402,Colour_Asymmetry_Pilot,2022.1.3,Win32,55.76622797,62bbe60bf3d75ef465d3e404,0,36,36,126,1,fourtwo,,,,,,,,,,,,,,,,,,,,,,,,,,,,,,,,,,,,,,,,,,,,,,,,,,,,,,,,,,,,,,,,,,,,,,,,,,,,,,,,,,,,,,,,,,,,,,,,,,,,,,,,,,,,,,,,,,,,,,,,,,,,,,,,,,,,,,,,,,,,,,,,,,,,,,,,
,,,,,,5dd505669740544b263e74ba,62bbf9d222d0c46db6c0c5dd,2022-06-28_20h06.19.402,Colour_Asymmetry_Pilot,2022.1.3,Win32,55.76622797,62bbe60bf3d75ef465d3e404,0,37,37,116,1,threeone,,,,,,,,,,,,,,,,,,,,,,,,,,,,,,,,,,,,,,,,,,,,,,,,,,,,,,,,,,,,,,,,,,,,,,,,,,,,,,,,,,,,,,,,,,,,,,,,,,,,,,,,,,,,,,,,,,,,,,,,,,,,,,,,,,,,,,,,,,,,,,,,,,,,,,,,
,,,,,,5dd505669740544b263e74ba,62bbf9d222d0c46db6c0c5dd,2022-06-28_20h06.19.402,Colour_Asymmetry_Pilot,2022.1.3,Win32,55.76622797,62bbe60bf3d75ef465d3e404,0,38,38,74,1,twoone,,,,,,,,,,,,,,,,,,,,,,,,,,,,,,,,,,,,,,,,,,,,,,,,,,,,,,,,,,,,,,,,,,,,,,,,,,,,,,,,,,,,,,,,,,,,,,,,,,,,,,,,,,,,,,,,,,,,,,,,,,,,,,,,,,,,,,,,,,,,,,,,,,,,,,,,
,,,,,,5dd505669740544b263e74ba,62bbf9d222d0c46db6c0c5dd,2022-06-28_20h06.19.402,Colour_Asymmetry_Pilot,2022.1.3,Win32,55.76622797,62bbe60bf3d75ef465d3e404,0,39,39,72,1,onetwo,,,,,,,,,,,,,,,,,,,,,,,,,,,,,,,,,,,,,,,,,,,,,,,,,,,,,,,,,,,,,,,,,,,,,,,,,,,,,,,,,,,,,,,,,,,,,,,,,,,,,,,,,,,,,,,,,,,,,,,,,,,,,,,,,,,,,,,,,,,,,,,,,,,,,,,,
,,,,,,5dd505669740544b263e74ba,62bbf9d222d0c46db6c0c5dd,2022-06-28_20h06.19.402,Colour_Asymmetry_Pilot,2022.1.3,Win32,55.76622797,62bbe60bf3d75ef465d3e404,0,40,40,56,1,onetwo,,,,,,,,,,,,,,,,,,,,,,,,,,,,,,,,,,,,,,,,,,,,,,,,,,,,,,,,,,,,,,,,,,,,,,,,,,,,,,,,,,,,,,,,,,,,,,,,,,,,,,,,,,,,,,,,,,,,,,,,,,,,,,,,,,,,,,,,,,,,,,,,,,,,,,,,
,,,,,,5dd505669740544b263e74ba,62bbf9d222d0c46db6c0c5dd,2022-06-28_20h06.19.402,Colour_Asymmetry_Pilot,2022.1.3,Win32,55.76622797,62bbe60bf3d75ef465d3e404,0,41,41,146,1,twoone,,,,,,,,,,,,,,,,,,,,,,,,,,,,,,,,,,,,,,,,,,,,,,,,,,,,,,,,,,,,,,,,,,,,,,,,,,,,,,,,,,,,,,,,,,,,,,,,,,,,,,,,,,,,,,,,,,,,,,,,,,,,,,,,,,,,,,,,,,,,,,,,,,,,,,,,
,,,,,,5dd505669740544b263e74ba,62bbf9d222d0c46db6c0c5dd,2022-06-28_20h06.19.402,Colour_Asymmetry_Pilot,2022.1.3,Win32,55.76622797,62bbe60bf3d75ef465d3e404,0,42,42,119,1,fourthree,,,,,,,,,,,,,,,,,,,,,,,,,,,,,,,,,,,,,,,,,,,,,,,,,,,,,,,,,,,,,,,,,,,,,,,,,,,,,,,,,,,,,,,,,,,,,,,,,,,,,,,,,,,,,,,,,,,,,,,,,,,,,,,,,,,,,,,,,,,,,,,,,,,,,,,,
,,,,,,5dd505669740544b263e74ba,62bbf9d222d0c46db6c0c5dd,2022-06-28_20h06.19.402,Colour_Asymmetry_Pilot,2022.1.3,Win32,55.76622797,62bbe60bf3d75ef465d3e404,0,43,43,51,1,twofour,,,,,,,,,,,,,,,,,,,,,,,,,,,,,,,,,,,,,,,,,,,,,,,,,,,,,,,,,,,,,,,,,,,,,,,,,,,,,,,,,,,,,,,,,,,,,,,,,,,,,,,,,,,,,,,,,,,,,,,,,,,,,,,,,,,,,,,,,,,,,,,,,,,,,,,,
,,,,,,5dd505669740544b263e74ba,62bbf9d222d0c46db6c0c5dd,2022-06-28_20h06.19.402,Colour_Asymmetry_Pilot,2022.1.3,Win32,55.76622797,62bbe60bf3d75ef465d3e404,0,44,44,86,1,fourtwo,,,,,,,,,,,,,,,,,,,,,,,,,,,,,,,,,,,,,,,,,,,,,,,,,,,,,,,,,,,,,,,,,,,,,,,,,,,,,,,,,,,,,,,,,,,,,,,,,,,,,,,,,,,,,,,,,,,,,,,,,,,,,,,,,,,,,,,,,,,,,,,,,,,,,,,,
,,,,,,5dd505669740544b263e74ba,62bbf9d222d0c46db6c0c5dd,2022-06-28_20h06.19.402,Colour_Asymmetry_Pilot,2022.1.3,Win32,55.76622797,62bbe60bf3d75ef465d3e404,0,45,45,127,1,fourthree,,,,,,,,,,,,,,,,,,,,,,,,,,,,,,,,,,,,,,,,,,,,,,,,,,,,,,,,,,,,,,,,,,,,,,,,,,,,,,,,,,,,,,,,,,,,,,,,,,,,,,,,,,,,,,,,,,,,,,,,,,,,,,,,,,,,,,,,,,,,,,,,,,,,,,,,
,,,,,,5dd505669740544b263e74ba,62bbf9d222d0c46db6c0c5dd,2022-06-28_20h06.19.402,Colour_Asymmetry_Pilot,2022.1.3,Win32,55.76622797,62bbe60bf3d75ef465d3e404,0,46,46,158,1,fourtwo,,,,,,,,,,,,,,,,,,,,,,,,,,,,,,,,,,,,,,,,,,,,,,,,,,,,,,,,,,,,,,,,,,,,,,,,,,,,,,,,,,,,,,,,,,,,,,,,,,,,,,,,,,,,,,,,,,,,,,,,,,,,,,,,,,,,,,,,,,,,,,,,,,,,,,,,
,,,,,,5dd505669740544b263e74ba,62bbf9d222d0c46db6c0c5dd,2022-06-28_20h06.19.402,Colour_Asymmetry_Pilot,2022.1.3,Win32,55.76622797,62bbe60bf3d75ef465d3e404,0,47,47,80,1,onetwo,,,,,,,,,,,,,,,,,,,,,,,,,,,,,,,,,,,,,,,,,,,,,,,,,,,,,,,,,,,,,,,,,,,,,,,,,,,,,,,,,,,,,,,,,,,,,,,,,,,,,,,,,,,,,,,,,,,,,,,,,,,,,,,,,,,,,,,,,,,,,,,,,,,,,,,,
,,,,,,5dd505669740544b263e74ba,62bbf9d222d0c46db6c0c5dd,2022-06-28_20h06.19.402,Colour_Asymmetry_Pilot,2022.1.3,Win32,55.76622797,62bbe60bf3d75ef465d3e404,0,48,48,65,1,onethree,,,,,,,,,,,,,,,,,,,,,,,,,,,,,,,,,,,,,,,,,,,,,,,,,,,,,,,,,,,,,,,,,,,,,,,,,,,,,,,,,,,,,,,,,,,,,,,,,,,,,,,,,,,,,,,,,,,,,,,,,,,,,,,,,,,,,,,,,,,,,,,,,,,,,,,,
,,,,,,5dd505669740544b263e74ba,62bbf9d222d0c46db6c0c5dd,2022-06-28_20h06.19.402,Colour_Asymmetry_Pilot,2022.1.3,Win32,55.76622797,62bbe60bf3d75ef465d3e404,0,49,49,138,1,twoone,,,,,,,,,,,,,,,,,,,,,,,,,,,,,,,,,,,,,,,,,,,,,,,,,,,,,,,,,,,,,,,,,,,,,,,,,,,,,,,,,,,,,,,,,,,,,,,,,,,,,,,,,,,,,,,,,,,,,,,,,,,,,,,,,,,,,,,,,,,,,,,,,,,,,,,,
,,,,,,5dd505669740544b263e74ba,62bbf9d222d0c46db6c0c5dd,2022-06-28_20h06.19.402,Colour_Asymmetry_Pilot,2022.1.3,Win32,55.76622797,62bbe60bf3d75ef465d3e404,0,50,50,63,1,fourthree,,,,,,,,,,,,,,,,,,,,,,,,,,,,,,,,,,,,,,,,,,,,,,,,,,,,,,,,,,,,,,,,,,,,,,,,,,,,,,,,,,,,,,,,,,,,,,,,,,,,,,,,,,,,,,,,,,,,,,,,,,,,,,,,,,,,,,,,,,,,,,,,,,,,,,,,
,,,,,,5dd505669740544b263e74ba,62bbf9d222d0c46db6c0c5dd,2022-06-28_20h06.19.402,Colour_Asymmetry_Pilot,2022.1.3,Win32,55.76622797,62bbe60bf3d75ef465d3e404,0,51,51,2,1,twoone,,,,,,,,,,,,,,,,,,,,,,,,,,,,,,,,,,,,,,,,,,,,,,,,,,,,,,,,,,,,,,,,,,,,,,,,,,,,,,,,,,,,,,,,,,,,,,,,,,,,,,,,,,,,,,,,,,,,,,,,,,,,,,,,,,,,,,,,,,,,,,,,,,,,,,,,
,,,,,,5dd505669740544b263e74ba,62bbf9d222d0c46db6c0c5dd,2022-06-28_20h06.19.402,Colour_Asymmetry_Pilot,2022.1.3,Win32,55.76622797,62bbe60bf3d75ef465d3e404,0,52,52,18,1,twoone,,,,,,,,,,,,,,,,,,,,,,,,,,,,,,,,,,,,,,,,,,,,,,,,,,,,,,,,,,,,,,,,,,,,,,,,,,,,,,,,,,,,,,,,,,,,,,,,,,,,,,,,,,,,,,,,,,,,,,,,,,,,,,,,,,,,,,,,,,,,,,,,,,,,,,,,
,,,,,,5dd505669740544b263e74ba,62bbf9d222d0c46db6c0c5dd,2022-06-28_20h06.19.402,Colour_Asymmetry_Pilot,2022.1.3,Win32,55.76622797,62bbe60bf3d75ef465d3e404,0,53,53,137,1,onethree,,,,,,,,,,,,,,,,,,,,,,,,,,,,,,,,,,,,,,,,,,,,,,,,,,,,,,,,,,,,,,,,,,,,,,,,,,,,,,,,,,,,,,,,,,,,,,,,,,,,,,,,,,,,,,,,,,,,,,,,,,,,,,,,,,,,,,,,,,,,,,,,,,,,,,,,
,,,,,,5dd505669740544b263e74ba,62bbf9d222d0c46db6c0c5dd,2022-06-28_20h06.19.402,Colour_Asymmetry_Pilot,2022.1.3,Win32,55.76622797,62bbe60bf3d75ef465d3e404,0,54,54,50,1,twoone,,,,,,,,,,,,,,,,,,,,,,,,,,,,,,,,,,,,,,,,,,,,,,,,,,,,,,,,,,,,,,,,,,,,,,,,,,,,,,,,,,,,,,,,,,,,,,,,,,,,,,,,,,,,,,,,,,,,,,,,,,,,,,,,,,,,,,,,,,,,,,,,,,,,,,,,
,,,,,,5dd505669740544b263e74ba,62bbf9d222d0c46db6c0c5dd,2022-06-28_20h06.19.402,Colour_Asymmetry_Pilot,2022.1.3,Win32,55.76622797,62bbe60bf3d75ef465d3e404,0,55,55,93,1,threefour,,,,,,,,,,,,,,,,,,,,,,,,,,,,,,,,,,,,,,,,,,,,,,,,,,,,,,,,,,,,,,,,,,,,,,,,,,,,,,,,,,,,,,,,,,,,,,,,,,,,,,,,,,,,,,,,,,,,,,,,,,,,,,,,,,,,,,,,,,,,,,,,,,,,,,,,
,,,,,,5dd505669740544b263e74ba,62bbf9d222d0c46db6c0c5dd,2022-06-28_20h06.19.402,Colour_Asymmetry_Pilot,2022.1.3,Win32,55.76622797,62bbe60bf3d75ef465d3e404,0,56,56,75,1,twofour,,,,,,,,,,,,,,,,,,,,,,,,,,,,,,,,,,,,,,,,,,,,,,,,,,,,,,,,,,,,,,,,,,,,,,,,,,,,,,,,,,,,,,,,,,,,,,,,,,,,,,,,,,,,,,,,,,,,,,,,,,,,,,,,,,,,,,,,,,,,,,,,,,,,,,,,
,,,,,,5dd505669740544b263e74ba,62bbf9d222d0c46db6c0c5dd,2022-06-28_20h06.19.402,Colour_Asymmetry_Pilot,2022.1.3,Win32,55.76622797,62bbe60bf3d75ef465d3e404,0,57,57,4,1,threeone,,,,,,,,,,,,,,,,,,,,,,,,,,,,,,,,,,,,,,,,,,,,,,,,,,,,,,,,,,,,,,,,,,,,,,,,,,,,,,,,,,,,,,,,,,,,,,,,,,,,,,,,,,,,,,,,,,,,,,,,,,,,,,,,,,,,,,,,,,,,,,,,,,,,,,,,
,,,,,,5dd505669740544b263e74ba,62bbf9d222d0c46db6c0c5dd,2022-06-28_20h06.19.402,Colour_Asymmetry_Pilot,2022.1.3,Win32,55.76622797,62bbe60bf3d75ef465d3e404,0,58,58,107,1,twofour,,,,,,,,,,,,,,,,,,,,,,,,,,,,,,,,,,,,,,,,,,,,,,,,,,,,,,,,,,,,,,,,,,,,,,,,,,,,,,,,,,,,,,,,,,,,,,,,,,,,,,,,,,,,,,,,,,,,,,,,,,,,,,,,,,,,,,,,,,,,,,,,,,,,,,,,
,,,,,,5dd505669740544b263e74ba,62bbf9d222d0c46db6c0c5dd,2022-06-28_20h06.19.402,Colour_Asymmetry_Pilot,2022.1.3,Win32,55.76622797,62bbe60bf3d75ef465d3e404,0,59,59,123,1,twofour,,,,,,,,,,,,,,,,,,,,,,,,,,,,,,,,,,,,,,,,,,,,,,,,,,,,,,,,,,,,,,,,,,,,,,,,,,,,,,,,,,,,,,,,,,,,,,,,,,,,,,,,,,,,,,,,,,,,,,,,,,,,,,,,,,,,,,,,,,,,,,,,,,,,,,,,
,,,,,,5dd505669740544b263e74ba,62bbf9d222d0c46db6c0c5dd,2022-06-28_20h06.19.402,Colour_Asymmetry_Pilot,2022.1.3,Win32,55.76622797,62bbe60bf3d75ef465d3e404,0,60,60,120,1,onetwo,,,,,,,,,,,,,,,,,,,,,,,,,,,,,,,,,,,,,,,,,,,,,,,,,,,,,,,,,,,,,,,,,,,,,,,,,,,,,,,,,,,,,,,,,,,,,,,,,,,,,,,,,,,,,,,,,,,,,,,,,,,,,,,,,,,,,,,,,,,,,,,,,,,,,,,,
,,,,,,5dd505669740544b263e74ba,62bbf9d222d0c46db6c0c5dd,2022-06-28_20h06.19.402,Colour_Asymmetry_Pilot,2022.1.3,Win32,55.76622797,62bbe60bf3d75ef465d3e404,0,61,61,41,1,onethree,,,,,,,,,,,,,,,,,,,,,,,,,,,,,,,,,,,,,,,,,,,,,,,,,,,,,,,,,,,,,,,,,,,,,,,,,,,,,,,,,,,,,,,,,,,,,,,,,,,,,,,,,,,,,,,,,,,,,,,,,,,,,,,,,,,,,,,,,,,,,,,,,,,,,,,,
,,,,,,5dd505669740544b263e74ba,62bbf9d222d0c46db6c0c5dd,2022-06-28_20h06.19.402,Colour_Asymmetry_Pilot,2022.1.3,Win32,55.76622797,62bbe60bf3d75ef465d3e404,0,62,62,61,1,threefour,,,,,,,,,,,,,,,,,,,,,,,,,,,,,,,,,,,,,,,,,,,,,,,,,,,,,,,,,,,,,,,,,,,,,,,,,,,,,,,,,,,,,,,,,,,,,,,,,,,,,,,,,,,,,,,,,,,,,,,,,,,,,,,,,,,,,,,,,,,,,,,,,,,,,,,,
,,,,,,5dd505669740544b263e74ba,62bbf9d222d0c46db6c0c5dd,2022-06-28_20h06.19.402,Colour_Asymmetry_Pilot,2022.1.3,Win32,55.76622797,62bbe60bf3d75ef465d3e404,0,63,63,112,1,onetwo,,,,,,,,,,,,,,,,,,,,,,,,,,,,,,,,,,,,,,,,,,,,,,,,,,,,,,,,,,,,,,,,,,,,,,,,,,,,,,,,,,,,,,,,,,,,,,,,,,,,,,,,,,,,,,,,,,,,,,,,,,,,,,,,,,,,,,,,,,,,,,,,,,,,,,,,
,,,,,,5dd505669740544b263e74ba,62bbf9d222d0c46db6c0c5dd,2022-06-28_20h06.19.402,Colour_Asymmetry_Pilot,2022.1.3,Win32,55.76622797,62bbe60bf3d75ef465d3e404,0,64,64,114,1,twoone,,,,,,,,,,,,,,,,,,,,,,,,,,,,,,,,,,,,,,,,,,,,,,,,,,,,,,,,,,,,,,,,,,,,,,,,,,,,,,,,,,,,,,,,,,,,,,,,,,,,,,,,,,,,,,,,,,,,,,,,,,,,,,,,,,,,,,,,,,,,,,,,,,,,,,,,
,,,,,,5dd505669740544b263e74ba,62bbf9d222d0c46db6c0c5dd,2022-06-28_20h06.19.402,Colour_Asymmetry_Pilot,2022.1.3,Win32,55.76622797,62bbe60bf3d75ef465d3e404,0,65,65,21,1,threefour,,,,,,,,,,,,,,,,,,,,,,,,,,,,,,,,,,,,,,,,,,,,,,,,,,,,,,,,,,,,,,,,,,,,,,,,,,,,,,,,,,,,,,,,,,,,,,,,,,,,,,,,,,,,,,,,,,,,,,,,,,,,,,,,,,,,,,,,,,,,,,,,,,,,,,,,
,,,,,,5dd505669740544b263e74ba,62bbf9d222d0c46db6c0c5dd,2022-06-28_20h06.19.402,Colour_Asymmetry_Pilot,2022.1.3,Win32,55.76622797,62bbe60bf3d75ef465d3e404,0,66,66,34,1,twoone,,,,,,,,,,,,,,,,,,,,,,,,,,,,,,,,,,,,,,,,,,,,,,,,,,,,,,,,,,,,,,,,,,,,,,,,,,,,,,,,,,,,,,,,,,,,,,,,,,,,,,,,,,,,,,,,,,,,,,,,,,,,,,,,,,,,,,,,,,,,,,,,,,,,,,,,
,,,,,,5dd505669740544b263e74ba,62bbf9d222d0c46db6c0c5dd,2022-06-28_20h06.19.402,Colour_Asymmetry_Pilot,2022.1.3,Win32,55.76622797,62bbe60bf3d75ef465d3e404,0,67,67,40,1,onetwo,,,,,,,,,,,,,,,,,,,,,,,,,,,,,,,,,,,,,,,,,,,,,,,,,,,,,,,,,,,,,,,,,,,,,,,,,,,,,,,,,,,,,,,,,,,,,,,,,,,,,,,,,,,,,,,,,,,,,,,,,,,,,,,,,,,,,,,,,,,,,,,,,,,,,,,,
,,,,,,5dd505669740544b263e74ba,62bbf9d222d0c46db6c0c5dd,2022-06-28_20h06.19.402,Colour_Asymmetry_Pilot,2022.1.3,Win32,55.76622797,62bbe60bf3d75ef465d3e404,0,68,68,64,1,onetwo,,,,,,,,,,,,,,,,,,,,,,,,,,,,,,,,,,,,,,,,,,,,,,,,,,,,,,,,,,,,,,,,,,,,,,,,,,,,,,,,,,,,,,,,,,,,,,,,,,,,,,,,,,,,,,,,,,,,,,,,,,,,,,,,,,,,,,,,,,,,,,,,,,,,,,,,
,,,,,,5dd505669740544b263e74ba,62bbf9d222d0c46db6c0c5dd,2022-06-28_20h06.19.402,Colour_Asymmetry_Pilot,2022.1.3,Win32,55.76622797,62bbe60bf3d75ef465d3e404,0,69,69,32,1,onetwo,,,,,,,,,,,,,,,,,,,,,,,,,,,,,,,,,,,,,,,,,,,,,,,,,,,,,,,,,,,,,,,,,,,,,,,,,,,,,,,,,,,,,,,,,,,,,,,,,,,,,,,,,,,,,,,,,,,,,,,,,,,,,,,,,,,,,,,,,,,,,,,,,,,,,,,,
,,,,,,5dd505669740544b263e74ba,62bbf9d222d0c46db6c0c5dd,2022-06-28_20h06.19.402,Colour_Asymmetry_Pilot,2022.1.3,Win32,55.76622797,62bbe60bf3d75ef465d3e404,0,70,70,10,1,twoone,,,,,,,,,,,,,,,,,,,,,,,,,,,,,,,,,,,,,,,,,,,,,,,,,,,,,,,,,,,,,,,,,,,,,,,,,,,,,,,,,,,,,,,,,,,,,,,,,,,,,,,,,,,,,,,,,,,,,,,,,,,,,,,,,,,,,,,,,,,,,,,,,,,,,,,,
,,,,,,5dd505669740544b263e74ba,62bbf9d222d0c46db6c0c5dd,2022-06-28_20h06.19.402,Colour_Asymmetry_Pilot,2022.1.3,Win32,55.76622797,62bbe60bf3d75ef465d3e404,0,71,71,16,1,onetwo,,,,,,,,,,,,,,,,,,,,,,,,,,,,,,,,,,,,,,,,,,,,,,,,,,,,,,,,,,,,,,,,,,,,,,,,,,,,,,,,,,,,,,,,,,,,,,,,,,,,,,,,,,,,,,,,,,,,,,,,,,,,,,,,,,,,,,,,,,,,,,,,,,,,,,,,
,,,,,,5dd505669740544b263e74ba,62bbf9d222d0c46db6c0c5dd,2022-06-28_20h06.19.402,Colour_Asymmetry_Pilot,2022.1.3,Win32,55.76622797,62bbe60bf3d75ef465d3e404,0,72,72,96,1,onetwo,,,,,,,,,,,,,,,,,,,,,,,,,,,,,,,,,,,,,,,,,,,,,,,,,,,,,,,,,,,,,,,,,,,,,,,,,,,,,,,,,,,,,,,,,,,,,,,,,,,,,,,,,,,,,,,,,,,,,,,,,,,,,,,,,,,,,,,,,,,,,,,,,,,,,,,,
,,,,,,5dd505669740544b263e74ba,62bbf9d222d0c46db6c0c5dd,2022-06-28_20h06.19.402,Colour_Asymmetry_Pilot,2022.1.3,Win32,55.76622797,62bbe60bf3d75ef465d3e404,0,73,73,90,1,twoone,,,,,,,,,,,,,,,,,,,,,,,,,,,,,,,,,,,,,,,,,,,,,,,,,,,,,,,,,,,,,,,,,,,,,,,,,,,,,,,,,,,,,,,,,,,,,,,,,,,,,,,,,,,,,,,,,,,,,,,,,,,,,,,,,,,,,,,,,,,,,,,,,,,,,,,,
,,,,,,5dd505669740544b263e74ba,62bbf9d222d0c46db6c0c5dd,2022-06-28_20h06.19.402,Colour_Asymmetry_Pilot,2022.1.3,Win32,55.76622797,62bbe60bf3d75ef465d3e404,0,74,74,68,1,threeone,,,,,,,,,,,,,,,,,,,,,,,,,,,,,,,,,,,,,,,,,,,,,,,,,,,,,,,,,,,,,,,,,,,,,,,,,,,,,,,,,,,,,,,,,,,,,,,,,,,,,,,,,,,,,,,,,,,,,,,,,,,,,,,,,,,,,,,,,,,,,,,,,,,,,,,,
,,,,,,5dd505669740544b263e74ba,62bbf9d222d0c46db6c0c5dd,2022-06-28_20h06.19.402,Colour_Asymmetry_Pilot,2022.1.3,Win32,55.76622797,62bbe60bf3d75ef465d3e404,0,75,75,76,1,threeone,,,,,,,,,,,,,,,,,,,,,,,,,,,,,,,,,,,,,,,,,,,,,,,,,,,,,,,,,,,,,,,,,,,,,,,,,,,,,,,,,,,,,,,,,,,,,,,,,,,,,,,,,,,,,,,,,,,,,,,,,,,,,,,,,,,,,,,,,,,,,,,,,,,,,,,,
,,,,,,5dd505669740544b263e74ba,62bbf9d222d0c46db6c0c5dd,2022-06-28_20h06.19.402,Colour_Asymmetry_Pilot,2022.1.3,Win32,55.76622797,62bbe60bf3d75ef465d3e404,0,76,76,82,1,twoone,,,,,,,,,,,,,,,,,,,,,,,,,,,,,,,,,,,,,,,,,,,,,,,,,,,,,,,,,,,,,,,,,,,,,,,,,,,,,,,,,,,,,,,,,,,,,,,,,,,,,,,,,,,,,,,,,,,,,,,,,,,,,,,,,,,,,,,,,,,,,,,,,,,,,,,,
,,,,,,5dd505669740544b263e74ba,62bbf9d222d0c46db6c0c5dd,2022-06-28_20h06.19.402,Colour_Asymmetry_Pilot,2022.1.3,Win32,55.76622797,62bbe60bf3d75ef465d3e404,0,77,77,11,1,twofour,,,,,,,,,,,,,,,,,,,,,,,,,,,,,,,,,,,,,,,,,,,,,,,,,,,,,,,,,,,,,,,,,,,,,,,,,,,,,,,,,,,,,,,,,,,,,,,,,,,,,,,,,,,,,,,,,,,,,,,,,,,,,,,,,,,,,,,,,,,,,,,,,,,,,,,,
,,,,,,5dd505669740544b263e74ba,62bbf9d222d0c46db6c0c5dd,2022-06-28_20h06.19.402,Colour_Asymmetry_Pilot,2022.1.3,Win32,55.76622797,62bbe60bf3d75ef465d3e404,0,78,78,121,1,onethree,,,,,,,,,,,,,,,,,,,,,,,,,,,,,,,,,,,,,,,,,,,,,,,,,,,,,,,,,,,,,,,,,,,,,,,,,,,,,,,,,,,,,,,,,,,,,,,,,,,,,,,,,,,,,,,,,,,,,,,,,,,,,,,,,,,,,,,,,,,,,,,,,,,,,,,,
,,,,,,5dd505669740544b263e74ba,62bbf9d222d0c46db6c0c5dd,2022-06-28_20h06.19.402,Colour_Asymmetry_Pilot,2022.1.3,Win32,55.76622797,62bbe60bf3d75ef465d3e404,0,79,79,7,1,fourthree,,,,,,,,,,,,,,,,,,,,,,,,,,,,,,,,,,,,,,,,,,,,,,,,,,,,,,,,,,,,,,,,,,,,,,,,,,,,,,,,,,,,,,,,,,,,,,,,,,,,,,,,,,,,,,,,,,,,,,,,,,,,,,,,,,,,,,,,,,,,,,,,,,,,,,,,
,,,,,,5dd505669740544b263e74ba,62bbf9d222d0c46db6c0c5dd,2022-06-28_20h06.19.402,Colour_Asymmetry_Pilot,2022.1.3,Win32,55.76622797,62bbe60bf3d75ef465d3e404,0,80,80,88,1,onetwo,,,,,,,,,,,,,,,,,,,,,,,,,,,,,,,,,,,,,,,,,,,,,,,,,,,,,,,,,,,,,,,,,,,,,,,,,,,,,,,,,,,,,,,,,,,,,,,,,,,,,,,,,,,,,,,,,,,,,,,,,,,,,,,,,,,,,,,,,,,,,,,,,,,,,,,,
,,,,,,5dd505669740544b263e74ba,62bbf9d222d0c46db6c0c5dd,2022-06-28_20h06.19.402,Colour_Asymmetry_Pilot,2022.1.3,Win32,55.76622797,62bbe60bf3d75ef465d3e404,0,81,81,43,1,twofour,,,,,,,,,,,,,,,,,,,,,,,,,,,,,,,,,,,,,,,,,,,,,,,,,,,,,,,,,,,,,,,,,,,,,,,,,,,,,,,,,,,,,,,,,,,,,,,,,,,,,,,,,,,,,,,,,,,,,,,,,,,,,,,,,,,,,,,,,,,,,,,,,,,,,,,,
,,,,,,5dd505669740544b263e74ba,62bbf9d222d0c46db6c0c5dd,2022-06-28_20h06.19.402,Colour_Asymmetry_Pilot,2022.1.3,Win32,55.76622797,62bbe60bf3d75ef465d3e404,0,82,82,102,1,fourtwo,,,,,,,,,,,,,,,,,,,,,,,,,,,,,,,,,,,,,,,,,,,,,,,,,,,,,,,,,,,,,,,,,,,,,,,,,,,,,,,,,,,,,,,,,,,,,,,,,,,,,,,,,,,,,,,,,,,,,,,,,,,,,,,,,,,,,,,,,,,,,,,,,,,,,,,,
,,,,,,5dd505669740544b263e74ba,62bbf9d222d0c46db6c0c5dd,2022-06-28_20h06.19.402,Colour_Asymmetry_Pilot,2022.1.3,Win32,55.76622797,62bbe60bf3d75ef465d3e404,0,83,83,12,1,threeone,,,,,,,,,,,,,,,,,,,,,,,,,,,,,,,,,,,,,,,,,,,,,,,,,,,,,,,,,,,,,,,,,,,,,,,,,,,,,,,,,,,,,,,,,,,,,,,,,,,,,,,,,,,,,,,,,,,,,,,,,,,,,,,,,,,,,,,,,,,,,,,,,,,,,,,,
,,,,,,5dd505669740544b263e74ba,62bbf9d222d0c46db6c0c5dd,2022-06-28_20h06.19.402,Colour_Asymmetry_Pilot,2022.1.3,Win32,55.76622797,62bbe60bf3d75ef465d3e404,0,84,84,159,1,fourthree,,,,,,,,,,,,,,,,,,,,,,,,,,,,,,,,,,,,,,,,,,,,,,,,,,,,,,,,,,,,,,,,,,,,,,,,,,,,,,,,,,,,,,,,,,,,,,,,,,,,,,,,,,,,,,,,,,,,,,,,,,,,,,,,,,,,,,,,,,,,,,,,,,,,,,,,
,,,,,,5dd505669740544b263e74ba,62bbf9d222d0c46db6c0c5dd,2022-06-28_20h06.19.402,Colour_Asymmetry_Pilot,2022.1.3,Win32,55.76622797,62bbe60bf3d75ef465d3e404,0,85,85,131,1,twofour,,,,,,,,,,,,,,,,,,,,,,,,,,,,,,,,,,,,,,,,,,,,,,,,,,,,,,,,,,,,,,,,,,,,,,,,,,,,,,,,,,,,,,,,,,,,,,,,,,,,,,,,,,,,,,,,,,,,,,,,,,,,,,,,,,,,,,,,,,,,,,,,,,,,,,,,
,,,,,,5dd505669740544b263e74ba,62bbf9d222d0c46db6c0c5dd,2022-06-28_20h06.19.402,Colour_Asymmetry_Pilot,2022.1.3,Win32,55.76622797,62bbe60bf3d75ef465d3e404,0,86,86,151,1,fourthree,,,,,,,,,,,,,,,,,,,,,,,,,,,,,,,,,,,,,,,,,,,,,,,,,,,,,,,,,,,,,,,,,,,,,,,,,,,,,,,,,,,,,,,,,,,,,,,,,,,,,,,,,,,,,,,,,,,,,,,,,,,,,,,,,,,,,,,,,,,,,,,,,,,,,,,,
,,,,,,5dd505669740544b263e74ba,62bbf9d222d0c46db6c0c5dd,2022-06-28_20h06.19.402,Colour_Asymmetry_Pilot,2022.1.3,Win32,55.76622797,62bbe60bf3d75ef465d3e404,0,87,87,85,1,threefour,,,,,,,,,,,,,,,,,,,,,,,,,,,,,,,,,,,,,,,,,,,,,,,,,,,,,,,,,,,,,,,,,,,,,,,,,,,,,,,,,,,,,,,,,,,,,,,,,,,,,,,,,,,,,,,,,,,,,,,,,,,,,,,,,,,,,,,,,,,,,,,,,,,,,,,,
,,,,,,5dd505669740544b263e74ba,62bbf9d222d0c46db6c0c5dd,2022-06-28_20h06.19.402,Colour_Asymmetry_Pilot,2022.1.3,Win32,55.76622797,62bbe60bf3d75ef465d3e404,0,88,88,155,1,twofour,,,,,,,,,,,,,,,,,,,,,,,,,,,,,,,,,,,,,,,,,,,,,,,,,,,,,,,,,,,,,,,,,,,,,,,,,,,,,,,,,,,,,,,,,,,,,,,,,,,,,,,,,,,,,,,,,,,,,,,,,,,,,,,,,,,,,,,,,,,,,,,,,,,,,,,,
,,,,,,5dd505669740544b263e74ba,62bbf9d222d0c46db6c0c5dd,2022-06-28_20h06.19.402,Colour_Asymmetry_Pilot,2022.1.3,Win32,55.76622797,62bbe60bf3d75ef465d3e404,0,89,89,0,1,onetwo,,,,,,,,,,,,,,,,,,,,,,,,,,,,,,,,,,,,,,,,,,,,,,,,,,,,,,,,,,,,,,,,,,,,,,,,,,,,,,,,,,,,,,,,,,,,,,,,,,,,,,,,,,,,,,,,,,,,,,,,,,,,,,,,,,,,,,,,,,,,,,,,,,,,,,,,
,,,,,,5dd505669740544b263e74ba,62bbf9d222d0c46db6c0c5dd,2022-06-28_20h06.19.402,Colour_Asymmetry_Pilot,2022.1.3,Win32,55.76622797,62bbe60bf3d75ef465d3e404,0,90,90,37,1,threefour,,,,,,,,,,,,,,,,,,,,,,,,,,,,,,,,,,,,,,,,,,,,,,,,,,,,,,,,,,,,,,,,,,,,,,,,,,,,,,,,,,,,,,,,,,,,,,,,,,,,,,,,,,,,,,,,,,,,,,,,,,,,,,,,,,,,,,,,,,,,,,,,,,,,,,,,
,,,,,,5dd505669740544b263e74ba,62bbf9d222d0c46db6c0c5dd,2022-06-28_20h06.19.402,Colour_Asymmetry_Pilot,2022.1.3,Win32,55.76622797,62bbe60bf3d75ef465d3e404,0,91,91,143,1,fourthree,,,,,,,,,,,,,,,,,,,,,,,,,,,,,,,,,,,,,,,,,,,,,,,,,,,,,,,,,,,,,,,,,,,,,,,,,,,,,,,,,,,,,,,,,,,,,,,,,,,,,,,,,,,,,,,,,,,,,,,,,,,,,,,,,,,,,,,,,,,,,,,,,,,,,,,,
,,,,,,5dd505669740544b263e74ba,62bbf9d222d0c46db6c0c5dd,2022-06-28_20h06.19.402,Colour_Asymmetry_Pilot,2022.1.3,Win32,55.76622797,62bbe60bf3d75ef465d3e404,0,92,92,45,1,threefour,,,,,,,,,,,,,,,,,,,,,,,,,,,,,,,,,,,,,,,,,,,,,,,,,,,,,,,,,,,,,,,,,,,,,,,,,,,,,,,,,,,,,,,,,,,,,,,,,,,,,,,,,,,,,,,,,,,,,,,,,,,,,,,,,,,,,,,,,,,,,,,,,,,,,,,,
,,,,,,5dd505669740544b263e74ba,62bbf9d222d0c46db6c0c5dd,2022-06-28_20h06.19.402,Colour_Asymmetry_Pilot,2022.1.3,Win32,55.76622797,62bbe60bf3d75ef465d3e404,0,93,93,97,1,onethree,,,,,,,,,,,,,,,,,,,,,,,,,,,,,,,,,,,,,,,,,,,,,,,,,,,,,,,,,,,,,,,,,,,,,,,,,,,,,,,,,,,,,,,,,,,,,,,,,,,,,,,,,,,,,,,,,,,,,,,,,,,,,,,,,,,,,,,,,,,,,,,,,,,,,,,,
,,,,,,5dd505669740544b263e74ba,62bbf9d222d0c46db6c0c5dd,2022-06-28_20h06.19.402,Colour_Asymmetry_Pilot,2022.1.3,Win32,55.76622797,62bbe60bf3d75ef465d3e404,0,94,94,49,1,onethree,,,,,,,,,,,,,,,,,,,,,,,,,,,,,,,,,,,,,,,,,,,,,,,,,,,,,,,,,,,,,,,,,,,,,,,,,,,,,,,,,,,,,,,,,,,,,,,,,,,,,,,,,,,,,,,,,,,,,,,,,,,,,,,,,,,,,,,,,,,,,,,,,,,,,,,,
,,,,,,5dd505669740544b263e74ba,62bbf9d222d0c46db6c0c5dd,2022-06-28_20h06.19.402,Colour_Asymmetry_Pilot,2022.1.3,Win32,55.76622797,62bbe60bf3d75ef465d3e404,0,95,95,161,1,onethree,,,,,,,,,,,,,,,,,,,,,,,,,,,,,,,,,,,,,,,,,,,,,,,,,,,,,,,,,,,,,,,,,,,,,,,,,,,,,,,,,,,,,,,,,,,,,,,,,,,,,,,,,,,,,,,,,,,,,,,,,,,,,,,,,,,,,,,,,,,,,,,,,,,,,,,,
,,,,,,5dd505669740544b263e74ba,62bbf9d222d0c46db6c0c5dd,2022-06-28_20h06.19.402,Colour_Asymmetry_Pilot,2022.1.3,Win32,55.76622797,62bbe60bf3d75ef465d3e404,0,96,96,101,1,threefour,,,,,,,,,,,,,,,,,,,,,,,,,,,,,,,,,,,,,,,,,,,,,,,,,,,,,,,,,,,,,,,,,,,,,,,,,,,,,,,,,,,,,,,,,,,,,,,,,,,,,,,,,,,,,,,,,,,,,,,,,,,,,,,,,,,,,,,,,,,,,,,,,,,,,,,,
,,,,,,5dd505669740544b263e74ba,62bbf9d222d0c46db6c0c5dd,2022-06-28_20h06.19.402,Colour_Asymmetry_Pilot,2022.1.3,Win32,55.76622797,62bbe60bf3d75ef465d3e404,0,97,97,117,1,threefour,,,,,,,,,,,,,,,,,,,,,,,,,,,,,,,,,,,,,,,,,,,,,,,,,,,,,,,,,,,,,,,,,,,,,,,,,,,,,,,,,,,,,,,,,,,,,,,,,,,,,,,,,,,,,,,,,,,,,,,,,,,,,,,,,,,,,,,,,,,,,,,,,,,,,,,,
,,,,,,5dd505669740544b263e74ba,62bbf9d222d0c46db6c0c5dd,2022-06-28_20h06.19.402,Colour_Asymmetry_Pilot,2022.1.3,Win32,55.76622797,62bbe60bf3d75ef465d3e404,0,98,98,69,1,threefour,,,,,,,,,,,,,,,,,,,,,,,,,,,,,,,,,,,,,,,,,,,,,,,,,,,,,,,,,,,,,,,,,,,,,,,,,,,,,,,,,,,,,,,,,,,,,,,,,,,,,,,,,,,,,,,,,,,,,,,,,,,,,,,,,,,,,,,,,,,,,,,,,,,,,,,,
,,,,,,5dd505669740544b263e74ba,62bbf9d222d0c46db6c0c5dd,2022-06-28_20h06.19.402,Colour_Asymmetry_Pilot,2022.1.3,Win32,55.76622797,62bbe60bf3d75ef465d3e404,0,99,99,60,1,threeone,,,,,,,,,,,,,,,,,,,,,,,,,,,,,,,,,,,,,,,,,,,,,,,,,,,,,,,,,,,,,,,,,,,,,,,,,,,,,,,,,,,,,,,,,,,,,,,,,,,,,,,,,,,,,,,,,,,,,,,,,,,,,,,,,,,,,,,,,,,,,,,,,,,,,,,,
,,,,,,5dd505669740544b263e74ba,62bbf9d222d0c46db6c0c5dd,2022-06-28_20h06.19.402,Colour_Asymmetry_Pilot,2022.1.3,Win32,55.76622797,62bbe60bf3d75ef465d3e404,0,100,100,44,1,threeone,,,,,,,,,,,,,,,,,,,,,,,,,,,,,,,,,,,,,,,,,,,,,,,,,,,,,,,,,,,,,,,,,,,,,,,,,,,,,,,,,,,,,,,,,,,,,,,,,,,,,,,,,,,,,,,,,,,,,,,,,,,,,,,,,,,,,,,,,,,,,,,,,,,,,,,,
,,,,,,5dd505669740544b263e74ba,62bbf9d222d0c46db6c0c5dd,2022-06-28_20h06.19.402,Colour_Asymmetry_Pilot,2022.1.3,Win32,55.76622797,62bbe60bf3d75ef465d3e404,0,101,101,113,1,onethree,,,,,,,,,,,,,,,,,,,,,,,,,,,,,,,,,,,,,,,,,,,,,,,,,,,,,,,,,,,,,,,,,,,,,,,,,,,,,,,,,,,,,,,,,,,,,,,,,,,,,,,,,,,,,,,,,,,,,,,,,,,,,,,,,,,,,,,,,,,,,,,,,,,,,,,,
,,,,,,5dd505669740544b263e74ba,62bbf9d222d0c46db6c0c5dd,2022-06-28_20h06.19.402,Colour_Asymmetry_Pilot,2022.1.3,Win32,55.76622797,62bbe60bf3d75ef465d3e404,0,102,102,38,1,fourtwo,,,,,,,,,,,,,,,,,,,,,,,,,,,,,,,,,,,,,,,,,,,,,,,,,,,,,,,,,,,,,,,,,,,,,,,,,,,,,,,,,,,,,,,,,,,,,,,,,,,,,,,,,,,,,,,,,,,,,,,,,,,,,,,,,,,,,,,,,,,,,,,,,,,,,,,,
,,,,,,5dd505669740544b263e74ba,62bbf9d222d0c46db6c0c5dd,2022-06-28_20h06.19.402,Colour_Asymmetry_Pilot,2022.1.3,Win32,55.76622797,62bbe60bf3d75ef465d3e404,0,103,103,142,1,fourtwo,,,,,,,,,,,,,,,,,,,,,,,,,,,,,,,,,,,,,,,,,,,,,,,,,,,,,,,,,,,,,,,,,,,,,,,,,,,,,,,,,,,,,,,,,,,,,,,,,,,,,,,,,,,,,,,,,,,,,,,,,,,,,,,,,,,,,,,,,,,,,,,,,,,,,,,,
,,,,,,5dd505669740544b263e74ba,62bbf9d222d0c46db6c0c5dd,2022-06-28_20h06.19.402,Colour_Asymmetry_Pilot,2022.1.3,Win32,55.76622797,62bbe60bf3d75ef465d3e404,0,104,104,134,1,fourtwo,,,,,,,,,,,,,,,,,,,,,,,,,,,,,,,,,,,,,,,,,,,,,,,,,,,,,,,,,,,,,,,,,,,,,,,,,,,,,,,,,,,,,,,,,,,,,,,,,,,,,,,,,,,,,,,,,,,,,,,,,,,,,,,,,,,,,,,,,,,,,,,,,,,,,,,,
,,,,,,5dd505669740544b263e74ba,62bbf9d222d0c46db6c0c5dd,2022-06-28_20h06.19.402,Colour_Asymmetry_Pilot,2022.1.3,Win32,55.76622797,62bbe60bf3d75ef465d3e404,0,105,105,55,1,fourthree,,,,,,,,,,,,,,,,,,,,,,,,,,,,,,,,,,,,,,,,,,,,,,,,,,,,,,,,,,,,,,,,,,,,,,,,,,,,,,,,,,,,,,,,,,,,,,,,,,,,,,,,,,,,,,,,,,,,,,,,,,,,,,,,,,,,,,,,,,,,,,,,,,,,,,,,
,,,,,,5dd505669740544b263e74ba,62bbf9d222d0c46db6c0c5dd,2022-06-28_20h06.19.402,Colour_Asymmetry_Pilot,2022.1.3,Win32,55.76622797,62bbe60bf3d75ef465d3e404,0,106,106,89,1,onethree,,,,,,,,,,,,,,,,,,,,,,,,,,,,,,,,,,,,,,,,,,,,,,,,,,,,,,,,,,,,,,,,,,,,,,,,,,,,,,,,,,,,,,,,,,,,,,,,,,,,,,,,,,,,,,,,,,,,,,,,,,,,,,,,,,,,,,,,,,,,,,,,,,,,,,,,
,,,,,,5dd505669740544b263e74ba,62bbf9d222d0c46db6c0c5dd,2022-06-28_20h06.19.402,Colour_Asymmetry_Pilot,2022.1.3,Win32,55.76622797,62bbe60bf3d75ef465d3e404,0,107,107,47,1,fourthree,,,,,,,,,,,,,,,,,,,,,,,,,,,,,,,,,,,,,,,,,,,,,,,,,,,,,,,,,,,,,,,,,,,,,,,,,,,,,,,,,,,,,,,,,,,,,,,,,,,,,,,,,,,,,,,,,,,,,,,,,,,,,,,,,,,,,,,,,,,,,,,,,,,,,,,,
,,,,,,5dd505669740544b263e74ba,62bbf9d222d0c46db6c0c5dd,2022-06-28_20h06.19.402,Colour_Asymmetry_Pilot,2022.1.3,Win32,55.76622797,62bbe60bf3d75ef465d3e404,0,108,108,157,1,threefour,,,,,,,,,,,,,,,,,,,,,,,,,,,,,,,,,,,,,,,,,,,,,,,,,,,,,,,,,,,,,,,,,,,,,,,,,,,,,,,,,,,,,,,,,,,,,,,,,,,,,,,,,,,,,,,,,,,,,,,,,,,,,,,,,,,,,,,,,,,,,,,,,,,,,,,,
,,,,,,5dd505669740544b263e74ba,62bbf9d222d0c46db6c0c5dd,2022-06-28_20h06.19.402,Colour_Asymmetry_Pilot,2022.1.3,Win32,55.76622797,62bbe60bf3d75ef465d3e404,0,109,109,136,1,onetwo,,,,,,,,,,,,,,,,,,,,,,,,,,,,,,,,,,,,,,,,,,,,,,,,,,,,,,,,,,,,,,,,,,,,,,,,,,,,,,,,,,,,,,,,,,,,,,,,,,,,,,,,,,,,,,,,,,,,,,,,,,,,,,,,,,,,,,,,,,,,,,,,,,,,,,,,
,,,,,,5dd505669740544b263e74ba,62bbf9d222d0c46db6c0c5dd,2022-06-28_20h06.19.402,Colour_Asymmetry_Pilot,2022.1.3,Win32,55.76622797,62bbe60bf3d75ef465d3e404,0,110,110,148,1,threeone,,,,,,,,,,,,,,,,,,,,,,,,,,,,,,,,,,,,,,,,,,,,,,,,,,,,,,,,,,,,,,,,,,,,,,,,,,,,,,,,,,,,,,,,,,,,,,,,,,,,,,,,,,,,,,,,,,,,,,,,,,,,,,,,,,,,,,,,,,,,,,,,,,,,,,,,
,,,,,,5dd505669740544b263e74ba,62bbf9d222d0c46db6c0c5dd,2022-06-28_20h06.19.402,Colour_Asymmetry_Pilot,2022.1.3,Win32,55.76622797,62bbe60bf3d75ef465d3e404,0,111,111,84,1,threeone,,,,,,,,,,,,,,,,,,,,,,,,,,,,,,,,,,,,,,,,,,,,,,,,,,,,,,,,,,,,,,,,,,,,,,,,,,,,,,,,,,,,,,,,,,,,,,,,,,,,,,,,,,,,,,,,,,,,,,,,,,,,,,,,,,,,,,,,,,,,,,,,,,,,,,,,
,,,,,,5dd505669740544b263e74ba,62bbf9d222d0c46db6c0c5dd,2022-06-28_20h06.19.402,Colour_Asymmetry_Pilot,2022.1.3,Win32,55.76622797,62bbe60bf3d75ef465d3e404,0,112,112,124,1,threeone,,,,,,,,,,,,,,,,,,,,,,,,,,,,,,,,,,,,,,,,,,,,,,,,,,,,,,,,,,,,,,,,,,,,,,,,,,,,,,,,,,,,,,,,,,,,,,,,,,,,,,,,,,,,,,,,,,,,,,,,,,,,,,,,,,,,,,,,,,,,,,,,,,,,,,,,
,,,,,,5dd505669740544b263e74ba,62bbf9d222d0c46db6c0c5dd,2022-06-28_20h06.19.402,Colour_Asymmetry_Pilot,2022.1.3,Win32,55.76622797,62bbe60bf3d75ef465d3e404,0,113,113,46,1,fourtwo,,,,,,,,,,,,,,,,,,,,,,,,,,,,,,,,,,,,,,,,,,,,,,,,,,,,,,,,,,,,,,,,,,,,,,,,,,,,,,,,,,,,,,,,,,,,,,,,,,,,,,,,,,,,,,,,,,,,,,,,,,,,,,,,,,,,,,,,,,,,,,,,,,,,,,,,
,,,,,,5dd505669740544b263e74ba,62bbf9d222d0c46db6c0c5dd,2022-06-28_20h06.19.402,Colour_Asymmetry_Pilot,2022.1.3,Win32,55.76622797,62bbe60bf3d75ef465d3e404,0,114,114,130,1,twoone,,,,,,,,,,,,,,,,,,,,,,,,,,,,,,,,,,,,,,,,,,,,,,,,,,,,,,,,,,,,,,,,,,,,,,,,,,,,,,,,,,,,,,,,,,,,,,,,,,,,,,,,,,,,,,,,,,,,,,,,,,,,,,,,,,,,,,,,,,,,,,,,,,,,,,,,
,,,,,,5dd505669740544b263e74ba,62bbf9d222d0c46db6c0c5dd,2022-06-28_20h06.19.402,Colour_Asymmetry_Pilot,2022.1.3,Win32,55.76622797,62bbe60bf3d75ef465d3e404,0,115,115,77,1,threefour,,,,,,,,,,,,,,,,,,,,,,,,,,,,,,,,,,,,,,,,,,,,,,,,,,,,,,,,,,,,,,,,,,,,,,,,,,,,,,,,,,,,,,,,,,,,,,,,,,,,,,,,,,,,,,,,,,,,,,,,,,,,,,,,,,,,,,,,,,,,,,,,,,,,,,,,
,,,,,,5dd505669740544b263e74ba,62bbf9d222d0c46db6c0c5dd,2022-06-28_20h06.19.402,Colour_Asymmetry_Pilot,2022.1.3,Win32,55.76622797,62bbe60bf3d75ef465d3e404,0,116,116,128,1,onetwo,,,,,,,,,,,,,,,,,,,,,,,,,,,,,,,,,,,,,,,,,,,,,,,,,,,,,,,,,,,,,,,,,,,,,,,,,,,,,,,,,,,,,,,,,,,,,,,,,,,,,,,,,,,,,,,,,,,,,,,,,,,,,,,,,,,,,,,,,,,,,,,,,,,,,,,,
,,,,,,5dd505669740544b263e74ba,62bbf9d222d0c46db6c0c5dd,2022-06-28_20h06.19.402,Colour_Asymmetry_Pilot,2022.1.3,Win32,55.76622797,62bbe60bf3d75ef465d3e404,0,117,117,6,1,fourtwo,,,,,,,,,,,,,,,,,,,,,,,,,,,,,,,,,,,,,,,,,,,,,,,,,,,,,,,,,,,,,,,,,,,,,,,,,,,,,,,,,,,,,,,,,,,,,,,,,,,,,,,,,,,,,,,,,,,,,,,,,,,,,,,,,,,,,,,,,,,,,,,,,,,,,,,,
,,,,,,5dd505669740544b263e74ba,62bbf9d222d0c46db6c0c5dd,2022-06-28_20h06.19.402,Colour_Asymmetry_Pilot,2022.1.3,Win32,55.76622797,62bbe60bf3d75ef465d3e404,0,118,118,3,1,twofour,,,,,,,,,,,,,,,,,,,,,,,,,,,,,,,,,,,,,,,,,,,,,,,,,,,,,,,,,,,,,,,,,,,,,,,,,,,,,,,,,,,,,,,,,,,,,,,,,,,,,,,,,,,,,,,,,,,,,,,,,,,,,,,,,,,,,,,,,,,,,,,,,,,,,,,,
,,,,,,5dd505669740544b263e74ba,62bbf9d222d0c46db6c0c5dd,2022-06-28_20h06.19.402,Colour_Asymmetry_Pilot,2022.1.3,Win32,55.76622797,62bbe60bf3d75ef465d3e404,0,119,119,14,1,fourtwo,,,,,,,,,,,,,,,,,,,,,,,,,,,,,,,,,,,,,,,,,,,,,,,,,,,,,,,,,,,,,,,,,,,,,,,,,,,,,,,,,,,,,,,,,,,,,,,,,,,,,,,,,,,,,,,,,,,,,,,,,,,,,,,,,,,,,,,,,,,,,,,,,,,,,,,,
,,,,,,5dd505669740544b263e74ba,62bbf9d222d0c46db6c0c5dd,2022-06-28_20h06.19.402,Colour_Asymmetry_Pilot,2022.1.3,Win32,55.76622797,62bbe60bf3d75ef465d3e404,0,120,120,156,1,threeone,,,,,,,,,,,,,,,,,,,,,,,,,,,,,,,,,,,,,,,,,,,,,,,,,,,,,,,,,,,,,,,,,,,,,,,,,,,,,,,,,,,,,,,,,,,,,,,,,,,,,,,,,,,,,,,,,,,,,,,,,,,,,,,,,,,,,,,,,,,,,,,,,,,,,,,,
,,,,,,5dd505669740544b263e74ba,62bbf9d222d0c46db6c0c5dd,2022-06-28_20h06.19.402,Colour_Asymmetry_Pilot,2022.1.3,Win32,55.76622797,62bbe60bf3d75ef465d3e404,0,121,121,140,1,threeone,,,,,,,,,,,,,,,,,,,,,,,,,,,,,,,,,,,,,,,,,,,,,,,,,,,,,,,,,,,,,,,,,,,,,,,,,,,,,,,,,,,,,,,,,,,,,,,,,,,,,,,,,,,,,,,,,,,,,,,,,,,,,,,,,,,,,,,,,,,,,,,,,,,,,,,,
,,,,,,5dd505669740544b263e74ba,62bbf9d222d0c46db6c0c5dd,2022-06-28_20h06.19.402,Colour_Asymmetry_Pilot,2022.1.3,Win32,55.76622797,62bbe60bf3d75ef465d3e404,0,122,122,53,1,threefour,,,,,,,,,,,,,,,,,,,,,,,,,,,,,,,,,,,,,,,,,,,,,,,,,,,,,,,,,,,,,,,,,,,,,,,,,,,,,,,,,,,,,,,,,,,,,,,,,,,,,,,,,,,,,,,,,,,,,,,,,,,,,,,,,,,,,,,,,,,,,,,,,,,,,,,,
,,,,,,5dd505669740544b263e74ba,62bbf9d222d0c46db6c0c5dd,2022-06-28_20h06.19.402,Colour_Asymmetry_Pilot,2022.1.3,Win32,55.76622797,62bbe60bf3d75ef465d3e404,0,123,123,141,1,threefour,,,,,,,,,,,,,,,,,,,,,,,,,,,,,,,,,,,,,,,,,,,,,,,,,,,,,,,,,,,,,,,,,,,,,,,,,,,,,,,,,,,,,,,,,,,,,,,,,,,,,,,,,,,,,,,,,,,,,,,,,,,,,,,,,,,,,,,,,,,,,,,,,,,,,,,,
,,,,,,5dd505669740544b263e74ba,62bbf9d222d0c46db6c0c5dd,2022-06-28_20h06.19.402,Colour_Asymmetry_Pilot,2022.1.3,Win32,55.76622797,62bbe60bf3d75ef465d3e404,0,124,124,153,1,onethree,,,,,,,,,,,,,,,,,,,,,,,,,,,,,,,,,,,,,,,,,,,,,,,,,,,,,,,,,,,,,,,,,,,,,,,,,,,,,,,,,,,,,,,,,,,,,,,,,,,,,,,,,,,,,,,,,,,,,,,,,,,,,,,,,,,,,,,,,,,,,,,,,,,,,,,,
,,,,,,5dd505669740544b263e74ba,62bbf9d222d0c46db6c0c5dd,2022-06-28_20h06.19.402,Colour_Asymmetry_Pilot,2022.1.3,Win32,55.76622797,62bbe60bf3d75ef465d3e404,0,125,125,15,1,fourthree,,,,,,,,,,,,,,,,,,,,,,,,,,,,,,,,,,,,,,,,,,,,,,,,,,,,,,,,,,,,,,,,,,,,,,,,,,,,,,,,,,,,,,,,,,,,,,,,,,,,,,,,,,,,,,,,,,,,,,,,,,,,,,,,,,,,,,,,,,,,,,,,,,,,,,,,
,,,,,,5dd505669740544b263e74ba,62bbf9d222d0c46db6c0c5dd,2022-06-28_20h06.19.402,Colour_Asymmetry_Pilot,2022.1.3,Win32,55.76622797,62bbe60bf3d75ef465d3e404,0,126,126,83,1,twofour,,,,,,,,,,,,,,,,,,,,,,,,,,,,,,,,,,,,,,,,,,,,,,,,,,,,,,,,,,,,,,,,,,,,,,,,,,,,,,,,,,,,,,,,,,,,,,,,,,,,,,,,,,,,,,,,,,,,,,,,,,,,,,,,,,,,,,,,,,,,,,,,,,,,,,,,
,,,,,,5dd505669740544b263e74ba,62bbf9d222d0c46db6c0c5dd,2022-06-28_20h06.19.402,Colour_Asymmetry_Pilot,2022.1.3,Win32,55.76622797,62bbe60bf3d75ef465d3e404,0,127,127,122,1,twoone,,,,,,,,,,,,,,,,,,,,,,,,,,,,,,,,,,,,,,,,,,,,,,,,,,,,,,,,,,,,,,,,,,,,,,,,,,,,,,,,,,,,,,,,,,,,,,,,,,,,,,,,,,,,,,,,,,,,,,,,,,,,,,,,,,,,,,,,,,,,,,,,,,,,,,,,
,,,,,,5dd505669740544b263e74ba,62bbf9d222d0c46db6c0c5dd,2022-06-28_20h06.19.402,Colour_Asymmetry_Pilot,2022.1.3,Win32,55.76622797,62bbe60bf3d75ef465d3e404,0,128,128,91,1,twofour,,,,,,,,,,,,,,,,,,,,,,,,,,,,,,,,,,,,,,,,,,,,,,,,,,,,,,,,,,,,,,,,,,,,,,,,,,,,,,,,,,,,,,,,,,,,,,,,,,,,,,,,,,,,,,,,,,,,,,,,,,,,,,,,,,,,,,,,,,,,,,,,,,,,,,,,
,,,,,,5dd505669740544b263e74ba,62bbf9d222d0c46db6c0c5dd,2022-06-28_20h06.19.402,Colour_Asymmetry_Pilot,2022.1.3,Win32,55.76622797,62bbe60bf3d75ef465d3e404,0,129,129,115,1,twofour,,,,,,,,,,,,,,,,,,,,,,,,,,,,,,,,,,,,,,,,,,,,,,,,,,,,,,,,,,,,,,,,,,,,,,,,,,,,,,,,,,,,,,,,,,,,,,,,,,,,,,,,,,,,,,,,,,,,,,,,,,,,,,,,,,,,,,,,,,,,,,,,,,,,,,,,
,,,,,,5dd505669740544b263e74ba,62bbf9d222d0c46db6c0c5dd,2022-06-28_20h06.19.402,Colour_Asymmetry_Pilot,2022.1.3,Win32,55.76622797,62bbe60bf3d75ef465d3e404,0,130,130,22,1,fourtwo,,,,,,,,,,,,,,,,,,,,,,,,,,,,,,,,,,,,,,,,,,,,,,,,,,,,,,,,,,,,,,,,,,,,,,,,,,,,,,,,,,,,,,,,,,,,,,,,,,,,,,,,,,,,,,,,,,,,,,,,,,,,,,,,,,,,,,,,,,,,,,,,,,,,,,,,
,,,,,,5dd505669740544b263e74ba,62bbf9d222d0c46db6c0c5dd,2022-06-28_20h06.19.402,Colour_Asymmetry_Pilot,2022.1.3,Win32,55.76622797,62bbe60bf3d75ef465d3e404,0,131,131,66,1,twoone,,,,,,,,,,,,,,,,,,,,,,,,,,,,,,,,,,,,,,,,,,,,,,,,,,,,,,,,,,,,,,,,,,,,,,,,,,,,,,,,,,,,,,,,,,,,,,,,,,,,,,,,,,,,,,,,,,,,,,,,,,,,,,,,,,,,,,,,,,,,,,,,,,,,,,,,
,,,,,,5dd505669740544b263e74ba,62bbf9d222d0c46db6c0c5dd,2022-06-28_20h06.19.402,Colour_Asymmetry_Pilot,2022.1.3,Win32,55.76622797,62bbe60bf3d75ef465d3e404,0,132,132,59,1,twofour,,,,,,,,,,,,,,,,,,,,,,,,,,,,,,,,,,,,,,,,,,,,,,,,,,,,,,,,,,,,,,,,,,,,,,,,,,,,,,,,,,,,,,,,,,,,,,,,,,,,,,,,,,,,,,,,,,,,,,,,,,,,,,,,,,,,,,,,,,,,,,,,,,,,,,,,
,,,,,,5dd505669740544b263e74ba,62bbf9d222d0c46db6c0c5dd,2022-06-28_20h06.19.402,Colour_Asymmetry_Pilot,2022.1.3,Win32,55.76622797,62bbe60bf3d75ef465d3e404,0,133,133,81,1,onethree,,,,,,,,,,,,,,,,,,,,,,,,,,,,,,,,,,,,,,,,,,,,,,,,,,,,,,,,,,,,,,,,,,,,,,,,,,,,,,,,,,,,,,,,,,,,,,,,,,,,,,,,,,,,,,,,,,,,,,,,,,,,,,,,,,,,,,,,,,,,,,,,,,,,,,,,
,,,,,,5dd505669740544b263e74ba,62bbf9d222d0c46db6c0c5dd,2022-06-28_20h06.19.402,Colour_Asymmetry_Pilot,2022.1.3,Win32,55.76622797,62bbe60bf3d75ef465d3e404,0,134,134,33,1,onethree,,,,,,,,,,,,,,,,,,,,,,,,,,,,,,,,,,,,,,,,,,,,,,,,,,,,,,,,,,,,,,,,,,,,,,,,,,,,,,,,,,,,,,,,,,,,,,,,,,,,,,,,,,,,,,,,,,,,,,,,,,,,,,,,,,,,,,,,,,,,,,,,,,,,,,,,
,,,,,,5dd505669740544b263e74ba,62bbf9d222d0c46db6c0c5dd,2022-06-28_20h06.19.402,Colour_Asymmetry_Pilot,2022.1.3,Win32,55.76622797,62bbe60bf3d75ef465d3e404,0,135,135,52,1,threeone,,,,,,,,,,,,,,,,,,,,,,,,,,,,,,,,,,,,,,,,,,,,,,,,,,,,,,,,,,,,,,,,,,,,,,,,,,,,,,,,,,,,,,,,,,,,,,,,,,,,,,,,,,,,,,,,,,,,,,,,,,,,,,,,,,,,,,,,,,,,,,,,,,,,,,,,
,,,,,,5dd505669740544b263e74ba,62bbf9d222d0c46db6c0c5dd,2022-06-28_20h06.19.402,Colour_Asymmetry_Pilot,2022.1.3,Win32,55.76622797,62bbe60bf3d75ef465d3e404,0,136,136,135,1,fourthree,,,,,,,,,,,,,,,,,,,,,,,,,,,,,,,,,,,,,,,,,,,,,,,,,,,,,,,,,,,,,,,,,,,,,,,,,,,,,,,,,,,,,,,,,,,,,,,,,,,,,,,,,,,,,,,,,,,,,,,,,,,,,,,,,,,,,,,,,,,,,,,,,,,,,,,,
,,,,,,5dd505669740544b263e74ba,62bbf9d222d0c46db6c0c5dd,2022-06-28_20h06.19.402,Colour_Asymmetry_Pilot,2022.1.3,Win32,55.76622797,62bbe60bf3d75ef465d3e404,0,137,137,154,1,twoone,,,,,,,,,,,,,,,,,,,,,,,,,,,,,,,,,,,,,,,,,,,,,,,,,,,,,,,,,,,,,,,,,,,,,,,,,,,,,,,,,,,,,,,,,,,,,,,,,,,,,,,,,,,,,,,,,,,,,,,,,,,,,,,,,,,,,,,,,,,,,,,,,,,,,,,,
,,,,,,5dd505669740544b263e74ba,62bbf9d222d0c46db6c0c5dd,2022-06-28_20h06.19.402,Colour_Asymmetry_Pilot,2022.1.3,Win32,55.76622797,62bbe60bf3d75ef465d3e404,0,138,138,144,1,onetwo,,,,,,,,,,,,,,,,,,,,,,,,,,,,,,,,,,,,,,,,,,,,,,,,,,,,,,,,,,,,,,,,,,,,,,,,,,,,,,,,,,,,,,,,,,,,,,,,,,,,,,,,,,,,,,,,,,,,,,,,,,,,,,,,,,,,,,,,,,,,,,,,,,,,,,,,
,,,,,,5dd505669740544b263e74ba,62bbf9d222d0c46db6c0c5dd,2022-06-28_20h06.19.402,Colour_Asymmetry_Pilot,2022.1.3,Win32,55.76622797,62bbe60bf3d75ef465d3e404,0,139,139,42,1,twoone,,,,,,,,,,,,,,,,,,,,,,,,,,,,,,,,,,,,,,,,,,,,,,,,,,,,,,,,,,,,,,,,,,,,,,,,,,,,,,,,,,,,,,,,,,,,,,,,,,,,,,,,,,,,,,,,,,,,,,,,,,,,,,,,,,,,,,,,,,,,,,,,,,,,,,,,
,,,,,,5dd505669740544b263e74ba,62bbf9d222d0c46db6c0c5dd,2022-06-28_20h06.19.402,Colour_Asymmetry_Pilot,2022.1.3,Win32,55.76622797,62bbe60bf3d75ef465d3e404,0,140,140,98,1,twoone,,,,,,,,,,,,,,,,,,,,,,,,,,,,,,,,,,,,,,,,,,,,,,,,,,,,,,,,,,,,,,,,,,,,,,,,,,,,,,,,,,,,,,,,,,,,,,,,,,,,,,,,,,,,,,,,,,,,,,,,,,,,,,,,,,,,,,,,,,,,,,,,,,,,,,,,
,,,,,,5dd505669740544b263e74ba,62bbf9d222d0c46db6c0c5dd,2022-06-28_20h06.19.402,Colour_Asymmetry_Pilot,2022.1.3,Win32,55.76622797,62bbe60bf3d75ef465d3e404,0,141,141,27,1,twofour,,,,,,,,,,,,,,,,,,,,,,,,,,,,,,,,,,,,,,,,,,,,,,,,,,,,,,,,,,,,,,,,,,,,,,,,,,,,,,,,,,,,,,,,,,,,,,,,,,,,,,,,,,,,,,,,,,,,,,,,,,,,,,,,,,,,,,,,,,,,,,,,,,,,,,,,
,,,,,,5dd505669740544b263e74ba,62bbf9d222d0c46db6c0c5dd,2022-06-28_20h06.19.402,Colour_Asymmetry_Pilot,2022.1.3,Win32,55.76622797,62bbe60bf3d75ef465d3e404,0,142,142,95,1,fourthree,,,,,,,,,,,,,,,,,,,,,,,,,,,,,,,,,,,,,,,,,,,,,,,,,,,,,,,,,,,,,,,,,,,,,,,,,,,,,,,,,,,,,,,,,,,,,,,,,,,,,,,,,,,,,,,,,,,,,,,,,,,,,,,,,,,,,,,,,,,,,,,,,,,,,,,,
,,,,,,5dd505669740544b263e74ba,62bbf9d222d0c46db6c0c5dd,2022-06-28_20h06.19.402,Colour_Asymmetry_Pilot,2022.1.3,Win32,55.76622797,62bbe60bf3d75ef465d3e404,0,143,143,125,1,threefour,,,,,,,,,,,,,,,,,,,,,,,,,,,,,,,,,,,,,,,,,,,,,,,,,,,,,,,,,,,,,,,,,,,,,,,,,,,,,,,,,,,,,,,,,,,,,,,,,,,,,,,,,,,,,,,,,,,,,,,,,,,,,,,,,,,,,,,,,,,,,,,,,,,,,,,,
,,,,,,5dd505669740544b263e74ba,62bbf9d222d0c46db6c0c5dd,2022-06-28_20h06.19.402,Colour_Asymmetry_Pilot,2022.1.3,Win32,55.76622797,62bbe60bf3d75ef465d3e404,0,144,144,17,1,onethree,,,,,,,,,,,,,,,,,,,,,,,,,,,,,,,,,,,,,,,,,,,,,,,,,,,,,,,,,,,,,,,,,,,,,,,,,,,,,,,,,,,,,,,,,,,,,,,,,,,,,,,,,,,,,,,,,,,,,,,,,,,,,,,,,,,,,,,,,,,,,,,,,,,,,,,,
,,,,,,5dd505669740544b263e74ba,62bbf9d222d0c46db6c0c5dd,2022-06-28_20h06.19.402,Colour_Asymmetry_Pilot,2022.1.3,Win32,55.76622797,62bbe60bf3d75ef465d3e404,0,145,145,79,1,fourthree,,,,,,,,,,,,,,,,,,,,,,,,,,,,,,,,,,,,,,,,,,,,,,,,,,,,,,,,,,,,,,,,,,,,,,,,,,,,,,,,,,,,,,,,,,,,,,,,,,,,,,,,,,,,,,,,,,,,,,,,,,,,,,,,,,,,,,,,,,,,,,,,,,,,,,,,
,,,,,,5dd505669740544b263e74ba,62bbf9d222d0c46db6c0c5dd,2022-06-28_20h06.19.402,Colour_Asymmetry_Pilot,2022.1.3,Win32,55.76622797,62bbe60bf3d75ef465d3e404,0,146,146,100,1,threeone,,,,,,,,,,,,,,,,,,,,,,,,,,,,,,,,,,,,,,,,,,,,,,,,,,,,,,,,,,,,,,,,,,,,,,,,,,,,,,,,,,,,,,,,,,,,,,,,,,,,,,,,,,,,,,,,,,,,,,,,,,,,,,,,,,,,,,,,,,,,,,,,,,,,,,,,
,,,,,,5dd505669740544b263e74ba,62bbf9d222d0c46db6c0c5dd,2022-06-28_20h06.19.402,Colour_Asymmetry_Pilot,2022.1.3,Win32,55.76622797,62bbe60bf3d75ef465d3e404,0,147,147,110,1,fourtwo,,,,,,,,,,,,,,,,,,,,,,,,,,,,,,,,,,,,,,,,,,,,,,,,,,,,,,,,,,,,,,,,,,,,,,,,,,,,,,,,,,,,,,,,,,,,,,,,,,,,,,,,,,,,,,,,,,,,,,,,,,,,,,,,,,,,,,,,,,,,,,,,,,,,,,,,
,,,,,,5dd505669740544b263e74ba,62bbf9d222d0c46db6c0c5dd,2022-06-28_20h06.19.402,Colour_Asymmetry_Pilot,2022.1.3,Win32,55.76622797,62bbe60bf3d75ef465d3e404,0,148,148,150,1,fourtwo,,,,,,,,,,,,,,,,,,,,,,,,,,,,,,,,,,,,,,,,,,,,,,,,,,,,,,,,,,,,,,,,,,,,,,,,,,,,,,,,,,,,,,,,,,,,,,,,,,,,,,,,,,,,,,,,,,,,,,,,,,,,,,,,,,,,,,,,,,,,,,,,,,,,,,,,
,,,,,,5dd505669740544b263e74ba,62bbf9d222d0c46db6c0c5dd,2022-06-28_20h06.19.402,Colour_Asymmetry_Pilot,2022.1.3,Win32,55.76622797,62bbe60bf3d75ef465d3e404,0,149,149,5,1,threefour,,,,,,,,,,,,,,,,,,,,,,,,,,,,,,,,,,,,,,,,,,,,,,,,,,,,,,,,,,,,,,,,,,,,,,,,,,,,,,,,,,,,,,,,,,,,,,,,,,,,,,,,,,,,,,,,,,,,,,,,,,,,,,,,,,,,,,,,,,,,,,,,,,,,,,,,
,,,,,,5dd505669740544b263e74ba,62bbf9d222d0c46db6c0c5dd,2022-06-28_20h06.19.402,Colour_Asymmetry_Pilot,2022.1.3,Win32,55.76622797,62bbe60bf3d75ef465d3e404,0,150,150,8,1,onetwo,,,,,,,,,,,,,,,,,,,,,,,,,,,,,,,,,,,,,,,,,,,,,,,,,,,,,,,,,,,,,,,,,,,,,,,,,,,,,,,,,,,,,,,,,,,,,,,,,,,,,,,,,,,,,,,,,,,,,,,,,,,,,,,,,,,,,,,,,,,,,,,,,,,,,,,,
,,,,,,5dd505669740544b263e74ba,62bbf9d222d0c46db6c0c5dd,2022-06-28_20h06.19.402,Colour_Asymmetry_Pilot,2022.1.3,Win32,55.76622797,62bbe60bf3d75ef465d3e404,0,151,151,71,1,fourthree,,,,,,,,,,,,,,,,,,,,,,,,,,,,,,,,,,,,,,,,,,,,,,,,,,,,,,,,,,,,,,,,,,,,,,,,,,,,,,,,,,,,,,,,,,,,,,,,,,,,,,,,,,,,,,,,,,,,,,,,,,,,,,,,,,,,,,,,,,,,,,,,,,,,,,,,
,,,,,,5dd505669740544b263e74ba,62bbf9d222d0c46db6c0c5dd,2022-06-28_20h06.19.402,Colour_Asymmetry_Pilot,2022.1.3,Win32,55.76622797,62bbe60bf3d75ef465d3e404,0,152,152,35,1,twofour,,,,,,,,,,,,,,,,,,,,,,,,,,,,,,,,,,,,,,,,,,,,,,,,,,,,,,,,,,,,,,,,,,,,,,,,,,,,,,,,,,,,,,,,,,,,,,,,,,,,,,,,,,,,,,,,,,,,,,,,,,,,,,,,,,,,,,,,,,,,,,,,,,,,,,,,
,,,,,,5dd505669740544b263e74ba,62bbf9d222d0c46db6c0c5dd,2022-06-28_20h06.19.402,Colour_Asymmetry_Pilot,2022.1.3,Win32,55.76622797,62bbe60bf3d75ef465d3e404,0,153,153,48,1,onetwo,,,,,,,,,,,,,,,,,,,,,,,,,,,,,,,,,,,,,,,,,,,,,,,,,,,,,,,,,,,,,,,,,,,,,,,,,,,,,,,,,,,,,,,,,,,,,,,,,,,,,,,,,,,,,,,,,,,,,,,,,,,,,,,,,,,,,,,,,,,,,,,,,,,,,,,,
,,,,,,5dd505669740544b263e74ba,62bbf9d222d0c46db6c0c5dd,2022-06-28_20h06.19.402,Colour_Asymmetry_Pilot,2022.1.3,Win32,55.76622797,62bbe60bf3d75ef465d3e404,0,154,154,9,1,onethree,,,,,,,,,,,,,,,,,,,,,,,,,,,,,,,,,,,,,,,,,,,,,,,,,,,,,,,,,,,,,,,,,,,,,,,,,,,,,,,,,,,,,,,,,,,,,,,,,,,,,,,,,,,,,,,,,,,,,,,,,,,,,,,,,,,,,,,,,,,,,,,,,,,,,,,,
,,,,,,5dd505669740544b263e74ba,62bbf9d222d0c46db6c0c5dd,2022-06-28_20h06.19.402,Colour_Asymmetry_Pilot,2022.1.3,Win32,55.76622797,62bbe60bf3d75ef465d3e404,0,155,155,118,1,fourtwo,,,,,,,,,,,,,,,,,,,,,,,,,,,,,,,,,,,,,,,,,,,,,,,,,,,,,,,,,,,,,,,,,,,,,,,,,,,,,,,,,,,,,,,,,,,,,,,,,,,,,,,,,,,,,,,,,,,,,,,,,,,,,,,,,,,,,,,,,,,,,,,,,,,,,,,,
,,,,,,5dd505669740544b263e74ba,62bbf9d222d0c46db6c0c5dd,2022-06-28_20h06.19.402,Colour_Asymmetry_Pilot,2022.1.3,Win32,55.76622797,62bbe60bf3d75ef465d3e404,0,156,156,58,1,twoone,,,,,,,,,,,,,,,,,,,,,,,,,,,,,,,,,,,,,,,,,,,,,,,,,,,,,,,,,,,,,,,,,,,,,,,,,,,,,,,,,,,,,,,,,,,,,,,,,,,,,,,,,,,,,,,,,,,,,,,,,,,,,,,,,,,,,,,,,,,,,,,,,,,,,,,,
,,,,,,5dd505669740544b263e74ba,62bbf9d222d0c46db6c0c5dd,2022-06-28_20h06.19.402,Colour_Asymmetry_Pilot,2022.1.3,Win32,55.76622797,62bbe60bf3d75ef465d3e404,0,157,157,109,1,threefour,,,,,,,,,,,,,,,,,,,,,,,,,,,,,,,,,,,,,,,,,,,,,,,,,,,,,,,,,,,,,,,,,,,,,,,,,,,,,,,,,,,,,,,,,,,,,,,,,,,,,,,,,,,,,,,,,,,,,,,,,,,,,,,,,,,,,,,,,,,,,,,,,,,,,,,,
,,,,,,5dd505669740544b263e74ba,62bbf9d222d0c46db6c0c5dd,2022-06-28_20h06.19.402,Colour_Asymmetry_Pilot,2022.1.3,Win32,55.76622797,62bbe60bf3d75ef465d3e404,0,158,158,73,1,onethree,,,,,,,,,,,,,,,,,,,,,,,,,,,,,,,,,,,,,,,,,,,,,,,,,,,,,,,,,,,,,,,,,,,,,,,,,,,,,,,,,,,,,,,,,,,,,,,,,,,,,,,,,,,,,,,,,,,,,,,,,,,,,,,,,,,,,,,,,,,,,,,,,,,,,,,,
,,,,,,5dd505669740544b263e74ba,62bbf9d222d0c46db6c0c5dd,2022-06-28_20h06.19.402,Colour_Asymmetry_Pilot,2022.1.3,Win32,55.76622797,62bbe60bf3d75ef465d3e404,0,159,159,13,1,threefour,,,,,,,,,,,,,,,,,,,,,,,,,,,,,,,,,,,,,,,,,,,,,,,,,,,,,,,,,,,,,,,,,,,,,,,,,,,,,,,,,,,,,,,,,,,,,,,,,,,,,,,,,,,,,,,,,,,,,,,,,,,,,,,,,,,,,,,,,,,,,,,,,,,,,,,,
,,,,,,5dd505669740544b263e74ba,62bbf9d222d0c46db6c0c5dd,2022-06-28_20h06.19.402,Colour_Asymmetry_Pilot,2022.1.3,Win32,55.76622797,62bbe60bf3d75ef465d3e404,0,160,160,94,1,fourtwo,,,,,,,,,,,,,,,,,,,,,,,,,,,,,,,,,,,,,,,,,,,,,,,,,,,,,,,,,,,,,,,,,,,,,,,,,,,,,,,,,,,,,,,,,,,,,,,,,,,,,,,,,,,,,,,,,,,,,,,,,,,,,,,,,,,,,,,,,,,,,,,,,,,,,,,,
,,,,,,5dd505669740544b263e74ba,62bbf9d222d0c46db6c0c5dd,2022-06-28_20h06.19.402,Colour_Asymmetry_Pilot,2022.1.3,Win32,55.76622797,62bbe60bf3d75ef465d3e404,0,161,161,108,1,threeone,,,,,,,,,,,,,,,,,,,,,,,,,,,,,,,,,,,,,,,,,,,,,,,,,,,,,,,,,,,,,,,,,,,,,,,,,,,,,,,,,,,,,,,,,,,,,,,,,,,,,,,,,,,,,,,,,,,,,,,,,,,,,,,,,,,,,,,,,,,,,,,,,,,,,,,,
,,,,,,5dd505669740544b263e74ba,62bbf9d222d0c46db6c0c5dd,2022-06-28_20h06.19.402,Colour_Asymmetry_Pilot,2022.1.3,Win32,55.76622797,62bbe60bf3d75ef465d3e404,,,,,,,space,1.9872,space,13.1805,space,26.3637,space,6.3094,space,2.1344,space,4.6884,"[-0.6942,-0.7648,-0.12959999999999994]",threefour,"[-0.6942,-0.7648,-0.12959999999999994]",4,5.8458,49.60003662,104.7999878,1,0,0,response1disk_5,-12,-4,1,0,0,rectangle_8,88,-56,1,0,0,response3disk_7,5,2,-6.399963379,6.399993896,1,0,0,rectangle_4,0,0,0,0,1,,,,,,,,,,,,,,,,,,,,,,,,,,,,,,,,,,,,,,,,,,,,,,,,,,,,,,,,,,,,,,,,,,,,,,,,,,,,,,,,,,,,,,,,,,,,,,,,,,,,,,,,
,,,,,,5dd505669740544b263e74ba,62bbf9d222d0c46db6c0c5dd,2022-06-28_20h06.19.402,Colour_Asymmetry_Pilot,2022.1.3,Win32,55.76622797,62bbe60bf3d75ef465d3e404,,,,,,,,,,,,,,,,,,,"[0.05879999999999996,0.2784,0.5841999999999998]",fourthree,"[0.2784,-0.31000000000000005,-0.5452]",-4,7.4408,-52,95.19998169,1,0,0,response7disk_5,0.799987793,-0.800018311,1,0,0,rectangle_8,0.799987793,-0.800018311,1,0,0,,,2,0.799987793,-0.800018311,1,0,0,,1,0,1,0,1,,,,,,,,,,,,,,,,,,,,,,,,,,,,,,,,,,,,,,,,,,,,,,,,,,,,,,,,,,,,,,,,,,,,,,,,,,,,,,,,,,,,,,,,,,,,,,,,,,,,,,,,
,,,,,,5dd505669740544b263e74ba,62bbf9d222d0c46db6c0c5dd,2022-06-28_20h06.19.402,Colour_Asymmetry_Pilot,2022.1.3,Win32,55.76622797,62bbe60bf3d75ef465d3e404,,,,,,,,,,,,,,,,,,,"[-0.4668,-0.8746,-0.2942]",fourthree,"[-0.8118,-0.8198,-0.5452]",4,3.9805,51.20001221,107.1999817,1,0,0,response1disk_5,4.799987793,0.799987793,1,0,0,rectangle_8,83.20001221,-47.20001221,1,0,0,response3disk_7,5,2,-21.59997559,-3.200012207,1,0,0,rectangle_4,2,0,2,0,1,,,,,,,,,,,,,,,,,,,,,,,,,,,,,,,,,,,,,,,,,,,,,,,,,,,,,,,,,,,,,,,,,,,,,,,,,,,,,,,,,,,,,,,,,,,,,,,,,,,,,,,,
,,,,,,5dd505669740544b263e74ba,62bbf9d222d0c46db6c0c5dd,2022-06-28_20h06.19.402,Colour_Asymmetry_Pilot,2022.1.3,Win32,55.76622797,62bbe60bf3d75ef465d3e404,,,,,,,,,,,,,,,,,,,"[-0.06680000000000008,-0.45100000000000007,-0.906]",fourthree,"[-0.9766,-0.34920000000000007,0.2156]",-4,1.8307,-50.39996338,111.1999817,1,0,0,response7disk_5,-7.200012207,0.799987793,1,0,0,rectangle_8,-7.200012207,0.799987793,1,0,0,,,2,-7.200012207,0.799987793,1,0,0,,3,0,3,0,1,,,,,,,,,,,,,,,,,,,,,,,,,,,,,,,,,,,,,,,,,,,,,,,,,,,,,,,,,,,,,,,,,,,,,,,,,,,,,,,,,,,,,,,,,,,,,,,,,,,,,,,,
,,,,,,5dd505669740544b263e74ba,62bbf9d222d0c46db6c0c5dd,2022-06-28_20h06.19.402,Colour_Asymmetry_Pilot,2022.1.3,Win32,55.76622797,62bbe60bf3d75ef465d3e404,,,,,,,,,,,,,,,,,,,"[-0.9766,-0.34920000000000007,0.2156]",twoone,"[0.23120000000000007,-0.7726,-0.34120000000000006]",-4,1.1907,-44.79998779,100.7999878,1,0,0,response7disk_5,-0.799987793,0.799987793,1,0,0,rectangle_8,-0.799987793,0.799987793,1,0,0,,,2,-0.799987793,0.799987793,1,0,0,,4,0,4,0,1,,,,,,,,,,,,,,,,,,,,,,,,,,,,,,,,,,,,,,,,,,,,,,,,,,,,,,,,,,,,,,,,,,,,,,,,,,,,,,,,,,,,,,,,,,,,,,,,,,,,,,,,
,,,,,,5dd505669740544b263e74ba,62bbf9d222d0c46db6c0c5dd,2022-06-28_20h06.19.402,Colour_Asymmetry_Pilot,2022.1.3,Win32,55.76622797,62bbe60bf3d75ef465d3e404,,,,,,,,,,,,,,,,,,,"[-0.9216,-0.5529999999999999,-0.3962]",threeone,"[-0.6,0.16860000000000008,0.44300000000000006]",-4,2.251,-38.39996338,116.7999878,1,0,0,response7disk_5,8,8.799987793,1,0,0,rectangle_8,8,8.799987793,1,0,0,,,2,8,8.799987793,1,0,0,,5,0,5,0,1,,,,,,,,,,,,,,,,,,,,,,,,,,,,,,,,,,,,,,,,,,,,,,,,,,,,,,,,,,,,,,,,,,,,,,,,,,,,,,,,,,,,,,,,,,,,,,,,,,,,,,,,
,,,,,,5dd505669740544b263e74ba,62bbf9d222d0c46db6c0c5dd,2022-06-28_20h06.19.402,Colour_Asymmetry_Pilot,2022.1.3,Win32,55.76622797,62bbe60bf3d75ef465d3e404,,,,,,,,,,,,,,,,,,,"[0.0351999999999999,0.41159999999999997,0.0038000000000000256]",fourtwo,"[-0.10599999999999998,-0.10599999999999998,0.5841999999999998]",-4,1.0504,-44.79998779,79.19998169,1,0,0,response7disk_5,4,3.199981689,1,0,0,rectangle_8,4,3.199981689,1,0,0,,,2,4,3.199981689,1,0,0,,6,0,6,0,1,,,,,,,,,,,,,,,,,,,,,,,,,,,,,,,,,,,,,,,,,,,,,,,,,,,,,,,,,,,,,,,,,,,,,,,,,,,,,,,,,,,,,,,,,,,,,,,,,,,,,,,,
,,,,,,5dd505669740544b263e74ba,62bbf9d222d0c46db6c0c5dd,2022-06-28_20h06.19.402,Colour_Asymmetry_Pilot,2022.1.3,Win32,55.76622797,62bbe60bf3d75ef465d3e404,,,,,,,,,,,,,,,,,,,,threefour,,-4,1.5011,,,,,,,,,,,,,,,,,,,,,,,,,,,,,,,,space,4.6211,"[-0.6,0.16860000000000008,0.44300000000000006]","[0.40379999999999994,0.09000000000000008,0.44300000000000006]",-53.59997559,118.3999939,1,0,0,response7disk,-6.399963379,3.199981689,1,0,0,rectangle,-6.399963379,3.199981689,1,0,0,,2,0.0029,0,-6.399963379,3.199981689,1,0,0,0,0,0,122,1,41,second,,,,,,,,,,,,,,,,,,,,,,,,,,,,,,,,,,,,,,,,,,,,,,,,,,,,,,,,,,,,,,,,,,,
,,,,,,5dd505669740544b263e74ba,62bbf9d222d0c46db6c0c5dd,2022-06-28_20h06.19.402,Colour_Asymmetry_Pilot,2022.1.3,Win32,55.76622797,62bbe60bf3d75ef465d3e404,,,,,,,,,,,,,,,,,,,,twoone,,-4,2.2107,,,,,,,,,,,,,,,,,,,,,,,,,,,,,,,,,,"[-0.5688,-0.08239999999999992,-0.1844]","[0.8274000000000001,-0.5844,-0.9452]",-58.39996338,104,1,0,0,response7disk,-1.599975586,-4.800018311,1,0,0,rectangle,-1.599975586,-4.800018311,1,0,0,,3,0.0049,0,-1.599975586,-4.800018311,1,0,0,0,1,1,29,1,29,first,,,,,,,,,,,,,,,,,,,,,,,,,,,,,,,,,,,,,,,,,,,,,,,,,,,,,,,,,,,,,,,,,,,
,,,,,,5dd505669740544b263e74ba,62bbf9d222d0c46db6c0c5dd,2022-06-28_20h06.19.402,Colour_Asymmetry_Pilot,2022.1.3,Win32,55.76622797,62bbe60bf3d75ef465d3e404,,,,,,,,,,,,,,,,,,,,fourthree,,4,0.8886,,,,,,,,,,,,,,,,,,,,,,,,,,,,,,,,,,"[0.23920000000000008,0.2704,0.16060000000000008]","[0.7018,0.7802,-0.16079999999999994]",43.20001221,107.1999817,1,0,0,response1disk,-0.799987793,5.600006104,1,0,0,rectangle,-0.799987793,5.600006104,1,0,0,,3,0.0007,0,-0.799987793,5.600006104,1,0,0,0,2,2,88,1,7,second,,,,,,,,,,,,,,,,,,,,,,,,,,,,,,,,,,,,,,,,,,,,,,,,,,,,,,,,,,,,,,,,,,,
,,,,,,5dd505669740544b263e74ba,62bbf9d222d0c46db6c0c5dd,2022-06-28_20h06.19.402,Colour_Asymmetry_Pilot,2022.1.3,Win32,55.76622797,62bbe60bf3d75ef465d3e404,,,,,,,,,,,,,,,,,,,,fourtwo,,-4,0.891,,,,,,,,,,,,,,,,,,,,,,,,,,,,,,,,,,"[0.7018,0.7176,0.6155999999999999]","[-0.9688,-0.38039999999999996,-0.41979999999999995]",-64,100,1,0,0,response7disk,-7.200012207,4,1,0,0,rectangle,-7.200012207,4,1,0,0,,2,0.0043,0,-7.200012207,4,1,0,0,0,3,3,60,1,60,first,,,,,,,,,,,,,,,,,,,,,,,,,,,,,,,,,,,,,,,,,,,,,,,,,,,,,,,,,,,,,,,,,,,
,,,,,,5dd505669740544b263e74ba,62bbf9d222d0c46db6c0c5dd,2022-06-28_20h06.19.402,Colour_Asymmetry_Pilot,2022.1.3,Win32,55.76622797,62bbe60bf3d75ef465d3e404,,,,,,,,,,,,,,,,,,,,fourtwo,,-4,0.5792,,,,,,,,,,,,,,,,,,,,,,,,,,,,,,,,,,"[0.05879999999999996,0.2784,0.5841999999999998]","[-0.5922000000000001,-0.7492000000000001,-0.5296000000000001]",-42.39996338,86.3999939,1,0,0,response7disk,-1.599975586,5.600006104,1,0,0,rectangle,-1.599975586,5.600006104,1,0,0,,1,0.0034,0,-1.599975586,5.600006104,1,0,0,0,4,4,20,1,20,first,,,,,,,,,,,,,,,,,,,,,,,,,,,,,,,,,,,,,,,,,,,,,,,,,,,,,,,,,,,,,,,,,,,
,,,,,,5dd505669740544b263e74ba,62bbf9d222d0c46db6c0c5dd,2022-06-28_20h06.19.402,Colour_Asymmetry_Pilot,2022.1.3,Win32,55.76622797,62bbe60bf3d75ef465d3e404,,,,,,,,,,,,,,,,,,,,onethree,,-4,0.6479,,,,,,,,,,,,,,,,,,,,,,,,,,,,,,,,,,"[-0.17659999999999998,0.3253999999999999,0.19999999999999996]","[0.37240000000000006,0.4980000000000002,-0.2864]",-57.59997559,114.3999939,1,0,0,response7disk,-5.599975586,7.199981689,1,0,0,rectangle,-5.599975586,7.199981689,1,0,0,,1,0.0019,0,-5.599975586,7.199981689,1,0,0,0,5,5,25,1,25,first,,,,,,,,,,,,,,,,,,,,,,,,,,,,,,,,,,,,,,,,,,,,,,,,,,,,,,,,,,,,,,,,,,,
,,,,,,5dd505669740544b263e74ba,62bbf9d222d0c46db6c0c5dd,2022-06-28_20h06.19.402,Colour_Asymmetry_Pilot,2022.1.3,Win32,55.76622797,62bbe60bf3d75ef465d3e404,,,,,,,,,,,,,,,,,,,,twofour,,-4,0.5579,,,,,,,,,,,,,,,,,,,,,,,,,,,,,,,,,,"[-0.6706000000000001,-0.6157999999999999,-0.6786]","[0.09799999999999986,-0.24719999999999998,0.15280000000000005]",-57.59997559,106.3999939,1,0,0,response7disk,-4.799987793,-3.200012207,1,0,0,rectangle,-4.799987793,-3.200012207,1,0,0,,3,0.0041,0,-4.799987793,-3.200012207,1,0,0,0,6,6,6,1,6,first,,,,,,,,,,,,,,,,,,,,,,,,,,,,,,,,,,,,,,,,,,,,,,,,,,,,,,,,,,,,,,,,,,,
,,,,,,5dd505669740544b263e74ba,62bbf9d222d0c46db6c0c5dd,2022-06-28_20h06.19.402,Colour_Asymmetry_Pilot,2022.1.3,Win32,55.76622797,62bbe60bf3d75ef465d3e404,,,,,,,,,,,,,,,,,,,,threefour,,-4,0.5609,,,,,,,,,,,,,,,,,,,,,,,,,,,,,,,,,,"[-0.26280000000000003,-0.4746,-0.2158]","[0.7802,-0.23140000000000005,-0.20799999999999996]",-46.39996338,81.6000061,1,0,0,response7disk,-5.599975586,0.799987793,1,0,0,rectangle,-5.599975586,0.799987793,1,0,0,,3,0.001,0,-5.599975586,0.799987793,1,0,0,0,7,7,3,1,3,first,,,,,,,,,,,,,,,,,,,,,,,,,,,,,,,,,,,,,,,,,,,,,,,,,,,,,,,,,,,,,,,,,,,
,,,,,,5dd505669740544b263e74ba,62bbf9d222d0c46db6c0c5dd,2022-06-28_20h06.19.402,Colour_Asymmetry_Pilot,2022.1.3,Win32,55.76622797,62bbe60bf3d75ef465d3e404,,,,,,,,,,,,,,,,,,,,twofour,,-4,0.8776,,,,,,,,,,,,,,,,,,,,,,,,,,,,,,,,,,"[-0.10599999999999998,-0.10599999999999998,0.5841999999999998]","[-0.4668,-0.8746,-0.2942]",-40,99.19998169,1,0,0,response7disk,-5.599975586,6.399993896,1,0,0,rectangle,-5.599975586,6.399993896,1,0,0,,1,0.0038,0,-5.599975586,6.399993896,1,0,0,0,8,8,99,1,18,second,,,,,,,,,,,,,,,,,,,,,,,,,,,,,,,,,,,,,,,,,,,,,,,,,,,,,,,,,,,,,,,,,,,
,,,,,,5dd505669740544b263e74ba,62bbf9d222d0c46db6c0c5dd,2022-06-28_20h06.19.402,Colour_Asymmetry_Pilot,2022.1.3,Win32,55.76622797,62bbe60bf3d75ef465d3e404,,,,,,,,,,,,,,,,,,,,fourtwo,,-4,0.4378,,,,,,,,,,,,,,,,,,,,,,,,,,,,,,,,,,"[0.6625999999999999,0.4980000000000002,-0.357]","[0.7646000000000002,0.07440000000000002,0.2704]",-38.39996338,99.19998169,1,0,0,response7disk,-5.599975586,1.600006104,1,0,0,rectangle,-5.599975586,1.600006104,1,0,0,,1,0.0008,0,-5.599975586,1.600006104,1,0,0,0,9,9,74,1,74,first,,,,,,,,,,,,,,,,,,,,,,,,,,,,,,,,,,,,,,,,,,,,,,,,,,,,,,,,,,,,,,,,,,,
,,,,,,5dd505669740544b263e74ba,62bbf9d222d0c46db6c0c5dd,2022-06-28_20h06.19.402,Colour_Asymmetry_Pilot,2022.1.3,Win32,55.76622797,62bbe60bf3d75ef465d3e404,,,,,,,,,,,,,,,,,,,,threeone,,-4,0.3845,,,,,,,,,,,,,,,,,,,,,,,,,,,,,,,,,,"[-0.20799999999999996,-0.655,-0.01980000000000004]","[-0.2942,-0.24719999999999998,-0.357]",-42.39996338,100.7999878,1,0,0,response7disk,-8.799987793,-2.399993896,1,0,0,rectangle,-8.799987793,-2.399993896,1,0,0,,2,0.0031,0,-8.799987793,-2.399993896,1,0,0,0,10,10,108,1,27,second,,,,,,,,,,,,,,,,,,,,,,,,,,,,,,,,,,,,,,,,,,,,,,,,,,,,,,,,,,,,,,,,,,,
,,,,,,5dd505669740544b263e74ba,62bbf9d222d0c46db6c0c5dd,2022-06-28_20h06.19.402,Colour_Asymmetry_Pilot,2022.1.3,Win32,55.76622797,62bbe60bf3d75ef465d3e404,,,,,,,,,,,,,,,,,,,,threeone,,4,0.6302,,,,,,,,,,,,,,,,,,,,,,,,,,,,,,,,,,"[-0.5922000000000001,-0.7492000000000001,-0.5296000000000001]","[-0.9766,-0.6472,0.07440000000000002]",34.40002441,85.6000061,1,0,0,response1disk,11.20001221,3.199981689,1,0,0,rectangle,11.20001221,3.199981689,1,0,0,,1,0.0032,0,11.20001221,3.199981689,1,0,0,0,11,11,62,1,62,first,,,,,,,,,,,,,,,,,,,,,,,,,,,,,,,,,,,,,,,,,,,,,,,,,,,,,,,,,,,,,,,,,,,
,,,,,,5dd505669740544b263e74ba,62bbf9d222d0c46db6c0c5dd,2022-06-28_20h06.19.402,Colour_Asymmetry_Pilot,2022.1.3,Win32,55.76622797,62bbe60bf3d75ef465d3e404,,,,,,,,,,,,,,,,,,,,onetwo,,-4,0.5825,,,,,,,,,,,,,,,,,,,,,,,,,,,,,,,,,,"[0.5449999999999999,-0.31000000000000005,-0.0354000000000001]","[-0.9688,-0.4902000000000001,-0.12159999999999993]",-34.39996338,94.3999939,1,0,0,response7disk,-8.799987793,0.799987793,1,0,0,rectangle,-8.799987793,0.799987793,1,0,0,,2,0.0036,0,-8.799987793,0.799987793,1,0,0,0,12,12,19,1,19,first,,,,,,,,,,,,,,,,,,,,,,,,,,,,,,,,,,,,,,,,,,,,,,,,,,,,,,,,,,,,,,,,,,,
,,,,,,5dd505669740544b263e74ba,62bbf9d222d0c46db6c0c5dd,2022-06-28_20h06.19.402,Colour_Asymmetry_Pilot,2022.1.3,Win32,55.76622797,62bbe60bf3d75ef465d3e404,,,,,,,,,,,,,,,,,,,,fourthree,,4,0.5082,,,,,,,,,,,,,,,,,,,,,,,,,,,,,,,,,,"[0.5528,0.7409999999999999,-0.71]","[-0.17659999999999998,-0.2864,-0.8354]",36,88.79998779,1,0,0,response1disk,11.20001221,3.199981689,1,0,0,rectangle,11.20001221,3.199981689,1,0,0,,3,0.0042,0,11.20001221,3.199981689,1,0,0,0,13,13,66,1,66,first,,,,,,,,,,,,,,,,,,,,,,,,,,,,,,,,,,,,,,,,,,,,,,,,,,,,,,,,,,,,,,,,,,,
,,,,,,5dd505669740544b263e74ba,62bbf9d222d0c46db6c0c5dd,2022-06-28_20h06.19.402,Colour_Asymmetry_Pilot,2022.1.3,Win32,55.76622797,62bbe60bf3d75ef465d3e404,,,,,,,,,,,,,,,,,,,,fourthree,,4,0.7015,,,,,,,,,,,,,,,,,,,,,,,,,,,,,,,,,,"[0.23920000000000008,0.2704,0.16060000000000008]","[-0.4902000000000001,0.2704,-0.45899999999999996]",36,97.6000061,1,0,0,response1disk,1.600036621,-2.399993896,1,0,0,rectangle,1.600036621,-2.399993896,1,0,0,,2,0.0032,0,1.600036621,-2.399993896,1,0,0,0,14,14,24,1,24,first,,,,,,,,,,,,,,,,,,,,,,,,,,,,,,,,,,,,,,,,,,,,,,,,,,,,,,,,,,,,,,,,,,,
,,,,,,5dd505669740544b263e74ba,62bbf9d222d0c46db6c0c5dd,2022-06-28_20h06.19.402,Colour_Asymmetry_Pilot,2022.1.3,Win32,55.76622797,62bbe60bf3d75ef465d3e404,,,,,,,,,,,,,,,,,,,,twofour,,-4,0.4474,,,,,,,,,,,,,,,,,,,,,,,,,,,,,,,,,,"[0.30180000000000007,-0.7884,-0.9844]","[-0.9688,-0.7412000000000001,-0.4902000000000001]",-43.20001221,100,1,0,0,response7disk,-3.200012207,4,1,0,0,rectangle,-3.200012207,4,1,0,0,,2,0.0009,0,-3.200012207,4,1,0,0,0,15,15,39,1,39,first,,,,,,,,,,,,,,,,,,,,,,,,,,,,,,,,,,,,,,,,,,,,,,,,,,,,,,,,,,,,,,,,,,,
,,,,,,5dd505669740544b263e74ba,62bbf9d222d0c46db6c0c5dd,2022-06-28_20h06.19.402,Colour_Asymmetry_Pilot,2022.1.3,Win32,55.76622797,62bbe60bf3d75ef465d3e404,,,,,,,,,,,,,,,,,,,,fourthree,,4,0.5063,,,,,,,,,,,,,,,,,,,,,,,,,,,,,,,,,,"[0.8115999999999999,-0.0040000000000000036,-0.09819999999999995]","[0.796,0.2156,-0.27859999999999996]",45.60003662,84.79998779,1,0,0,response1disk,0.799987793,4,1,0,0,rectangle,0.799987793,4,1,0,0,,1,0.0035,0,0.799987793,4,1,0,0,0,16,16,34,1,34,first,,,,,,,,,,,,,,,,,,,,,,,,,,,,,,,,,,,,,,,,,,,,,,,,,,,,,,,,,,,,,,,,,,,
,,,,,,5dd505669740544b263e74ba,62bbf9d222d0c46db6c0c5dd,2022-06-28_20h06.19.402,Colour_Asymmetry_Pilot,2022.1.3,Win32,55.76622797,62bbe60bf3d75ef465d3e404,,,,,,,,,,,,,,,,,,,,onethree,,-4,0.4282,,,,,,,,,,,,,,,,,,,,,,,,,,,,,,,,,,"[-0.6706000000000001,-0.6157999999999999,-0.6786]","[0.7176,-0.906,-0.6864]",-44.79998779,83.19998169,1,0,0,response7disk,-20.79998779,0.799987793,1,0,0,rectangle,-20.79998779,0.799987793,1,0,0,,1,0.001,0,-20.79998779,0.799987793,1,0,0,0,17,17,119,1,38,second,,,,,,,,,,,,,,,,,,,,,,,,,,,,,,,,,,,,,,,,,,,,,,,,,,,,,,,,,,,,,,,,,,,
