trials.thisRepN,trials.thisTrialN,trials.thisN,trials.thisIndex,trials.ran,Colourcodes,participant,session,date,expName,psychopyVersion,OS,frameRate,study_id,trials_4.thisRepN,trials_4.thisTrialN,trials_4.thisN,trials_4.thisIndex,trials_4.ran,StimulusPos,key_resp.keys,key_resp.rt,key_resp_2.keys,key_resp_2.rt,key_resp_15.keys,key_resp_15.rt,key_resp_17.keys,key_resp_17.rt,key_resp_9.keys,key_resp_9.rt,key_resp_10.keys,key_resp_10.rt,Circle1_col,Ecc,Circle2_col,similarity,response_time,mouse_5.x,mouse_5.y,mouse_5.leftButton,mouse_5.midButton,mouse_5.rightButton,mouse_5.clicked_name,mouse_10.x,mouse_10.y,mouse_10.leftButton,mouse_10.midButton,mouse_10.rightButton,mouse_10.clicked_name,mouse_7.x,mouse_7.y,mouse_7.leftButton,mouse_7.midButton,mouse_7.rightButton,catchnumberprac,mouse_6.x,mouse_6.y,mouse_6.leftButton,mouse_6.midButton,mouse_6.rightButton,duringprac.thisRepN,duringprac.thisTrialN,duringprac.thisN,duringprac.thisIndex,duringprac.ran,mouse_7.clicked_name,catchprac,mouse_6.clicked_name,key_resp_22.keys,key_resp_22.rt,Circle1_colour,Circle2_colour,mouse.x,mouse.y,mouse.leftButton,mouse.midButton,mouse.rightButton,mouse.clicked_name,mouse_2.x,mouse_2.y,mouse_2.leftButton,mouse_2.midButton,mouse_2.rightButton,mouse_2.clicked_name,mouse_3.x,mouse_3.y,mouse_3.leftButton,mouse_3.midButton,mouse_3.rightButton,catchresponse,catchnumber,response_time_catch,Catch,mouse_11.x,mouse_11.y,mouse_11.leftButton,mouse_11.midButton,mouse_11.rightButton,trials_2.thisRepN,trials_2.thisTrialN,trials_2.thisN,trials_2.thisIndex,trials_2.ran,Colourpair,Temporder,mouse_3.clicked_name,mouse_11.clicked_name,trials_3.thisRepN,trials_3.thisTrialN,trials_3.thisN,trials_3.thisIndex,trials_3.ran,key_resp_instr_Ishi.keys,key_resp_instr_Ishi.rt,Ishi_trial_keyresp.keys,Ishi_trial_keyresp.rt,Ishi_textbox.text,Ishi_loop.thisRepN,Ishi_loop.thisTrialN,Ishi_loop.thisN,Ishi_loop.thisIndex,Ishi_loop.ran,imageaddress,textbox.text,mouse_4.x,mouse_4.y,mouse_4.leftButton,mouse_4.midButton,mouse_4.rightButton,mouse_4.clicked_name,textbox_2.text,mouse_8.x,mouse_8.y,mouse_8.leftButton,mouse_8.midButton,mouse_8.rightButton,mouse_8.clicked_name,textbox_3.text,mouse_9.x,mouse_9.y,mouse_9.leftButton,mouse_9.midButton,mouse_9.rightButton,mouse_9.clicked_name,textbox_4.text,mouse_12.x,mouse_12.y,mouse_12.leftButton,mouse_12.midButton,mouse_12.rightButton,mouse_12.clicked_name,textbox_5.text,mouse_13.x,mouse_13.y,mouse_13.leftButton,mouse_13.midButton,mouse_13.rightButton,mouse_13.clicked_name,textbox_6.text,mouse_14.x,mouse_14.y,mouse_14.leftButton,mouse_14.midButton,mouse_14.rightButton,mouse_14.clicked_name,textbox_7.text,mouse_15.x,mouse_15.y,mouse_15.leftButton,mouse_15.midButton,mouse_15.rightButton,mouse_15.clicked_name
0,0,0,25,1,,5cabf58293e29a0016018c30,62bbfac6b1da8ea619ee871c,2022-06-29_09h11.52,Colour_Asymmetry_Pilot,2022.1.3,MacIntel,58.82352941,62bbe60bf3d75ef465d3e404,,,,,,,,,,,,,,,,,,,,,,,,,,,,,,,,,,,,,,,,,,,,,,,,,,,,,,,,,,,,,,,,,,,,,,,,,,,,,,,,,,,,,,,,,,,,,,,,,,,,,,,,,,,,,,,,,,,,,,,,,,,,,,,,,,,,,,,,,,,,,,,,,,,,,,,,,,,,,,
0,1,1,67,1,,5cabf58293e29a0016018c30,62bbfac6b1da8ea619ee871c,2022-06-29_09h11.52,Colour_Asymmetry_Pilot,2022.1.3,MacIntel,58.82352941,62bbe60bf3d75ef465d3e404,,,,,,,,,,,,,,,,,,,,,,,,,,,,,,,,,,,,,,,,,,,,,,,,,,,,,,,,,,,,,,,,,,,,,,,,,,,,,,,,,,,,,,,,,,,,,,,,,,,,,,,,,,,,,,,,,,,,,,,,,,,,,,,,,,,,,,,,,,,,,,,,,,,,,,,,,,,,,,
0,2,2,26,1,,5cabf58293e29a0016018c30,62bbfac6b1da8ea619ee871c,2022-06-29_09h11.52,Colour_Asymmetry_Pilot,2022.1.3,MacIntel,58.82352941,62bbe60bf3d75ef465d3e404,,,,,,,,,,,,,,,,,,,,,,,,,,,,,,,,,,,,,,,,,,,,,,,,,,,,,,,,,,,,,,,,,,,,,,,,,,,,,,,,,,,,,,,,,,,,,,,,,,,,,,,,,,,,,,,,,,,,,,,,,,,,,,,,,,,,,,,,,,,,,,,,,,,,,,,,,,,,,,
0,3,3,92,1,,5cabf58293e29a0016018c30,62bbfac6b1da8ea619ee871c,2022-06-29_09h11.52,Colour_Asymmetry_Pilot,2022.1.3,MacIntel,58.82352941,62bbe60bf3d75ef465d3e404,,,,,,,,,,,,,,,,,,,,,,,,,,,,,,,,,,,,,,,,,,,,,,,,,,,,,,,,,,,,,,,,,,,,,,,,,,,,,,,,,,,,,,,,,,,,,,,,,,,,,,,,,,,,,,,,,,,,,,,,,,,,,,,,,,,,,,,,,,,,,,,,,,,,,,,,,,,,,,
0,4,4,89,1,,5cabf58293e29a0016018c30,62bbfac6b1da8ea619ee871c,2022-06-29_09h11.52,Colour_Asymmetry_Pilot,2022.1.3,MacIntel,58.82352941,62bbe60bf3d75ef465d3e404,,,,,,,,,,,,,,,,,,,,,,,,,,,,,,,,,,,,,,,,,,,,,,,,,,,,,,,,,,,,,,,,,,,,,,,,,,,,,,,,,,,,,,,,,,,,,,,,,,,,,,,,,,,,,,,,,,,,,,,,,,,,,,,,,,,,,,,,,,,,,,,,,,,,,,,,,,,,,,
0,5,5,38,1,,5cabf58293e29a0016018c30,62bbfac6b1da8ea619ee871c,2022-06-29_09h11.52,Colour_Asymmetry_Pilot,2022.1.3,MacIntel,58.82352941,62bbe60bf3d75ef465d3e404,,,,,,,,,,,,,,,,,,,,,,,,,,,,,,,,,,,,,,,,,,,,,,,,,,,,,,,,,,,,,,,,,,,,,,,,,,,,,,,,,,,,,,,,,,,,,,,,,,,,,,,,,,,,,,,,,,,,,,,,,,,,,,,,,,,,,,,,,,,,,,,,,,,,,,,,,,,,,,
0,6,6,50,1,,5cabf58293e29a0016018c30,62bbfac6b1da8ea619ee871c,2022-06-29_09h11.52,Colour_Asymmetry_Pilot,2022.1.3,MacIntel,58.82352941,62bbe60bf3d75ef465d3e404,,,,,,,,,,,,,,,,,,,,,,,,,,,,,,,,,,,,,,,,,,,,,,,,,,,,,,,,,,,,,,,,,,,,,,,,,,,,,,,,,,,,,,,,,,,,,,,,,,,,,,,,,,,,,,,,,,,,,,,,,,,,,,,,,,,,,,,,,,,,,,,,,,,,,,,,,,,,,,
0,7,7,88,1,,5cabf58293e29a0016018c30,62bbfac6b1da8ea619ee871c,2022-06-29_09h11.52,Colour_Asymmetry_Pilot,2022.1.3,MacIntel,58.82352941,62bbe60bf3d75ef465d3e404,,,,,,,,,,,,,,,,,,,,,,,,,,,,,,,,,,,,,,,,,,,,,,,,,,,,,,,,,,,,,,,,,,,,,,,,,,,,,,,,,,,,,,,,,,,,,,,,,,,,,,,,,,,,,,,,,,,,,,,,,,,,,,,,,,,,,,,,,,,,,,,,,,,,,,,,,,,,,,
0,8,8,82,1,,5cabf58293e29a0016018c30,62bbfac6b1da8ea619ee871c,2022-06-29_09h11.52,Colour_Asymmetry_Pilot,2022.1.3,MacIntel,58.82352941,62bbe60bf3d75ef465d3e404,,,,,,,,,,,,,,,,,,,,,,,,,,,,,,,,,,,,,,,,,,,,,,,,,,,,,,,,,,,,,,,,,,,,,,,,,,,,,,,,,,,,,,,,,,,,,,,,,,,,,,,,,,,,,,,,,,,,,,,,,,,,,,,,,,,,,,,,,,,,,,,,,,,,,,,,,,,,,,
0,9,9,73,1,,5cabf58293e29a0016018c30,62bbfac6b1da8ea619ee871c,2022-06-29_09h11.52,Colour_Asymmetry_Pilot,2022.1.3,MacIntel,58.82352941,62bbe60bf3d75ef465d3e404,,,,,,,,,,,,,,,,,,,,,,,,,,,,,,,,,,,,,,,,,,,,,,,,,,,,,,,,,,,,,,,,,,,,,,,,,,,,,,,,,,,,,,,,,,,,,,,,,,,,,,,,,,,,,,,,,,,,,,,,,,,,,,,,,,,,,,,,,,,,,,,,,,,,,,,,,,,,,,
0,10,10,42,1,,5cabf58293e29a0016018c30,62bbfac6b1da8ea619ee871c,2022-06-29_09h11.52,Colour_Asymmetry_Pilot,2022.1.3,MacIntel,58.82352941,62bbe60bf3d75ef465d3e404,,,,,,,,,,,,,,,,,,,,,,,,,,,,,,,,,,,,,,,,,,,,,,,,,,,,,,,,,,,,,,,,,,,,,,,,,,,,,,,,,,,,,,,,,,,,,,,,,,,,,,,,,,,,,,,,,,,,,,,,,,,,,,,,,,,,,,,,,,,,,,,,,,,,,,,,,,,,,,
0,11,11,31,1,,5cabf58293e29a0016018c30,62bbfac6b1da8ea619ee871c,2022-06-29_09h11.52,Colour_Asymmetry_Pilot,2022.1.3,MacIntel,58.82352941,62bbe60bf3d75ef465d3e404,,,,,,,,,,,,,,,,,,,,,,,,,,,,,,,,,,,,,,,,,,,,,,,,,,,,,,,,,,,,,,,,,,,,,,,,,,,,,,,,,,,,,,,,,,,,,,,,,,,,,,,,,,,,,,,,,,,,,,,,,,,,,,,,,,,,,,,,,,,,,,,,,,,,,,,,,,,,,,
0,12,12,57,1,,5cabf58293e29a0016018c30,62bbfac6b1da8ea619ee871c,2022-06-29_09h11.52,Colour_Asymmetry_Pilot,2022.1.3,MacIntel,58.82352941,62bbe60bf3d75ef465d3e404,,,,,,,,,,,,,,,,,,,,,,,,,,,,,,,,,,,,,,,,,,,,,,,,,,,,,,,,,,,,,,,,,,,,,,,,,,,,,,,,,,,,,,,,,,,,,,,,,,,,,,,,,,,,,,,,,,,,,,,,,,,,,,,,,,,,,,,,,,,,,,,,,,,,,,,,,,,,,,
0,13,13,60,1,,5cabf58293e29a0016018c30,62bbfac6b1da8ea619ee871c,2022-06-29_09h11.52,Colour_Asymmetry_Pilot,2022.1.3,MacIntel,58.82352941,62bbe60bf3d75ef465d3e404,,,,,,,,,,,,,,,,,,,,,,,,,,,,,,,,,,,,,,,,,,,,,,,,,,,,,,,,,,,,,,,,,,,,,,,,,,,,,,,,,,,,,,,,,,,,,,,,,,,,,,,,,,,,,,,,,,,,,,,,,,,,,,,,,,,,,,,,,,,,,,,,,,,,,,,,,,,,,,
0,14,14,81,1,,5cabf58293e29a0016018c30,62bbfac6b1da8ea619ee871c,2022-06-29_09h11.52,Colour_Asymmetry_Pilot,2022.1.3,MacIntel,58.82352941,62bbe60bf3d75ef465d3e404,,,,,,,,,,,,,,,,,,,,,,,,,,,,,,,,,,,,,,,,,,,,,,,,,,,,,,,,,,,,,,,,,,,,,,,,,,,,,,,,,,,,,,,,,,,,,,,,,,,,,,,,,,,,,,,,,,,,,,,,,,,,,,,,,,,,,,,,,,,,,,,,,,,,,,,,,,,,,,
0,15,15,39,1,,5cabf58293e29a0016018c30,62bbfac6b1da8ea619ee871c,2022-06-29_09h11.52,Colour_Asymmetry_Pilot,2022.1.3,MacIntel,58.82352941,62bbe60bf3d75ef465d3e404,,,,,,,,,,,,,,,,,,,,,,,,,,,,,,,,,,,,,,,,,,,,,,,,,,,,,,,,,,,,,,,,,,,,,,,,,,,,,,,,,,,,,,,,,,,,,,,,,,,,,,,,,,,,,,,,,,,,,,,,,,,,,,,,,,,,,,,,,,,,,,,,,,,,,,,,,,,,,,
0,16,16,1,1,,5cabf58293e29a0016018c30,62bbfac6b1da8ea619ee871c,2022-06-29_09h11.52,Colour_Asymmetry_Pilot,2022.1.3,MacIntel,58.82352941,62bbe60bf3d75ef465d3e404,,,,,,,,,,,,,,,,,,,,,,,,,,,,,,,,,,,,,,,,,,,,,,,,,,,,,,,,,,,,,,,,,,,,,,,,,,,,,,,,,,,,,,,,,,,,,,,,,,,,,,,,,,,,,,,,,,,,,,,,,,,,,,,,,,,,,,,,,,,,,,,,,,,,,,,,,,,,,,
0,17,17,77,1,,5cabf58293e29a0016018c30,62bbfac6b1da8ea619ee871c,2022-06-29_09h11.52,Colour_Asymmetry_Pilot,2022.1.3,MacIntel,58.82352941,62bbe60bf3d75ef465d3e404,,,,,,,,,,,,,,,,,,,,,,,,,,,,,,,,,,,,,,,,,,,,,,,,,,,,,,,,,,,,,,,,,,,,,,,,,,,,,,,,,,,,,,,,,,,,,,,,,,,,,,,,,,,,,,,,,,,,,,,,,,,,,,,,,,,,,,,,,,,,,,,,,,,,,,,,,,,,,,
0,18,18,21,1,,5cabf58293e29a0016018c30,62bbfac6b1da8ea619ee871c,2022-06-29_09h11.52,Colour_Asymmetry_Pilot,2022.1.3,MacIntel,58.82352941,62bbe60bf3d75ef465d3e404,,,,,,,,,,,,,,,,,,,,,,,,,,,,,,,,,,,,,,,,,,,,,,,,,,,,,,,,,,,,,,,,,,,,,,,,,,,,,,,,,,,,,,,,,,,,,,,,,,,,,,,,,,,,,,,,,,,,,,,,,,,,,,,,,,,,,,,,,,,,,,,,,,,,,,,,,,,,,,
0,19,19,83,1,,5cabf58293e29a0016018c30,62bbfac6b1da8ea619ee871c,2022-06-29_09h11.52,Colour_Asymmetry_Pilot,2022.1.3,MacIntel,58.82352941,62bbe60bf3d75ef465d3e404,,,,,,,,,,,,,,,,,,,,,,,,,,,,,,,,,,,,,,,,,,,,,,,,,,,,,,,,,,,,,,,,,,,,,,,,,,,,,,,,,,,,,,,,,,,,,,,,,,,,,,,,,,,,,,,,,,,,,,,,,,,,,,,,,,,,,,,,,,,,,,,,,,,,,,,,,,,,,,
0,20,20,70,1,,5cabf58293e29a0016018c30,62bbfac6b1da8ea619ee871c,2022-06-29_09h11.52,Colour_Asymmetry_Pilot,2022.1.3,MacIntel,58.82352941,62bbe60bf3d75ef465d3e404,,,,,,,,,,,,,,,,,,,,,,,,,,,,,,,,,,,,,,,,,,,,,,,,,,,,,,,,,,,,,,,,,,,,,,,,,,,,,,,,,,,,,,,,,,,,,,,,,,,,,,,,,,,,,,,,,,,,,,,,,,,,,,,,,,,,,,,,,,,,,,,,,,,,,,,,,,,,,,
0,21,21,12,1,,5cabf58293e29a0016018c30,62bbfac6b1da8ea619ee871c,2022-06-29_09h11.52,Colour_Asymmetry_Pilot,2022.1.3,MacIntel,58.82352941,62bbe60bf3d75ef465d3e404,,,,,,,,,,,,,,,,,,,,,,,,,,,,,,,,,,,,,,,,,,,,,,,,,,,,,,,,,,,,,,,,,,,,,,,,,,,,,,,,,,,,,,,,,,,,,,,,,,,,,,,,,,,,,,,,,,,,,,,,,,,,,,,,,,,,,,,,,,,,,,,,,,,,,,,,,,,,,,
0,22,22,15,1,,5cabf58293e29a0016018c30,62bbfac6b1da8ea619ee871c,2022-06-29_09h11.52,Colour_Asymmetry_Pilot,2022.1.3,MacIntel,58.82352941,62bbe60bf3d75ef465d3e404,,,,,,,,,,,,,,,,,,,,,,,,,,,,,,,,,,,,,,,,,,,,,,,,,,,,,,,,,,,,,,,,,,,,,,,,,,,,,,,,,,,,,,,,,,,,,,,,,,,,,,,,,,,,,,,,,,,,,,,,,,,,,,,,,,,,,,,,,,,,,,,,,,,,,,,,,,,,,,
0,23,23,78,1,,5cabf58293e29a0016018c30,62bbfac6b1da8ea619ee871c,2022-06-29_09h11.52,Colour_Asymmetry_Pilot,2022.1.3,MacIntel,58.82352941,62bbe60bf3d75ef465d3e404,,,,,,,,,,,,,,,,,,,,,,,,,,,,,,,,,,,,,,,,,,,,,,,,,,,,,,,,,,,,,,,,,,,,,,,,,,,,,,,,,,,,,,,,,,,,,,,,,,,,,,,,,,,,,,,,,,,,,,,,,,,,,,,,,,,,,,,,,,,,,,,,,,,,,,,,,,,,,,
0,24,24,51,1,,5cabf58293e29a0016018c30,62bbfac6b1da8ea619ee871c,2022-06-29_09h11.52,Colour_Asymmetry_Pilot,2022.1.3,MacIntel,58.82352941,62bbe60bf3d75ef465d3e404,,,,,,,,,,,,,,,,,,,,,,,,,,,,,,,,,,,,,,,,,,,,,,,,,,,,,,,,,,,,,,,,,,,,,,,,,,,,,,,,,,,,,,,,,,,,,,,,,,,,,,,,,,,,,,,,,,,,,,,,,,,,,,,,,,,,,,,,,,,,,,,,,,,,,,,,,,,,,,
0,25,25,63,1,,5cabf58293e29a0016018c30,62bbfac6b1da8ea619ee871c,2022-06-29_09h11.52,Colour_Asymmetry_Pilot,2022.1.3,MacIntel,58.82352941,62bbe60bf3d75ef465d3e404,,,,,,,,,,,,,,,,,,,,,,,,,,,,,,,,,,,,,,,,,,,,,,,,,,,,,,,,,,,,,,,,,,,,,,,,,,,,,,,,,,,,,,,,,,,,,,,,,,,,,,,,,,,,,,,,,,,,,,,,,,,,,,,,,,,,,,,,,,,,,,,,,,,,,,,,,,,,,,
0,26,26,40,1,,5cabf58293e29a0016018c30,62bbfac6b1da8ea619ee871c,2022-06-29_09h11.52,Colour_Asymmetry_Pilot,2022.1.3,MacIntel,58.82352941,62bbe60bf3d75ef465d3e404,,,,,,,,,,,,,,,,,,,,,,,,,,,,,,,,,,,,,,,,,,,,,,,,,,,,,,,,,,,,,,,,,,,,,,,,,,,,,,,,,,,,,,,,,,,,,,,,,,,,,,,,,,,,,,,,,,,,,,,,,,,,,,,,,,,,,,,,,,,,,,,,,,,,,,,,,,,,,,
0,27,27,86,1,,5cabf58293e29a0016018c30,62bbfac6b1da8ea619ee871c,2022-06-29_09h11.52,Colour_Asymmetry_Pilot,2022.1.3,MacIntel,58.82352941,62bbe60bf3d75ef465d3e404,,,,,,,,,,,,,,,,,,,,,,,,,,,,,,,,,,,,,,,,,,,,,,,,,,,,,,,,,,,,,,,,,,,,,,,,,,,,,,,,,,,,,,,,,,,,,,,,,,,,,,,,,,,,,,,,,,,,,,,,,,,,,,,,,,,,,,,,,,,,,,,,,,,,,,,,,,,,,,
0,28,28,49,1,,5cabf58293e29a0016018c30,62bbfac6b1da8ea619ee871c,2022-06-29_09h11.52,Colour_Asymmetry_Pilot,2022.1.3,MacIntel,58.82352941,62bbe60bf3d75ef465d3e404,,,,,,,,,,,,,,,,,,,,,,,,,,,,,,,,,,,,,,,,,,,,,,,,,,,,,,,,,,,,,,,,,,,,,,,,,,,,,,,,,,,,,,,,,,,,,,,,,,,,,,,,,,,,,,,,,,,,,,,,,,,,,,,,,,,,,,,,,,,,,,,,,,,,,,,,,,,,,,
0,29,29,56,1,,5cabf58293e29a0016018c30,62bbfac6b1da8ea619ee871c,2022-06-29_09h11.52,Colour_Asymmetry_Pilot,2022.1.3,MacIntel,58.82352941,62bbe60bf3d75ef465d3e404,,,,,,,,,,,,,,,,,,,,,,,,,,,,,,,,,,,,,,,,,,,,,,,,,,,,,,,,,,,,,,,,,,,,,,,,,,,,,,,,,,,,,,,,,,,,,,,,,,,,,,,,,,,,,,,,,,,,,,,,,,,,,,,,,,,,,,,,,,,,,,,,,,,,,,,,,,,,,,
0,30,30,33,1,,5cabf58293e29a0016018c30,62bbfac6b1da8ea619ee871c,2022-06-29_09h11.52,Colour_Asymmetry_Pilot,2022.1.3,MacIntel,58.82352941,62bbe60bf3d75ef465d3e404,,,,,,,,,,,,,,,,,,,,,,,,,,,,,,,,,,,,,,,,,,,,,,,,,,,,,,,,,,,,,,,,,,,,,,,,,,,,,,,,,,,,,,,,,,,,,,,,,,,,,,,,,,,,,,,,,,,,,,,,,,,,,,,,,,,,,,,,,,,,,,,,,,,,,,,,,,,,,,
0,31,31,36,1,,5cabf58293e29a0016018c30,62bbfac6b1da8ea619ee871c,2022-06-29_09h11.52,Colour_Asymmetry_Pilot,2022.1.3,MacIntel,58.82352941,62bbe60bf3d75ef465d3e404,,,,,,,,,,,,,,,,,,,,,,,,,,,,,,,,,,,,,,,,,,,,,,,,,,,,,,,,,,,,,,,,,,,,,,,,,,,,,,,,,,,,,,,,,,,,,,,,,,,,,,,,,,,,,,,,,,,,,,,,,,,,,,,,,,,,,,,,,,,,,,,,,,,,,,,,,,,,,,
0,32,32,65,1,,5cabf58293e29a0016018c30,62bbfac6b1da8ea619ee871c,2022-06-29_09h11.52,Colour_Asymmetry_Pilot,2022.1.3,MacIntel,58.82352941,62bbe60bf3d75ef465d3e404,,,,,,,,,,,,,,,,,,,,,,,,,,,,,,,,,,,,,,,,,,,,,,,,,,,,,,,,,,,,,,,,,,,,,,,,,,,,,,,,,,,,,,,,,,,,,,,,,,,,,,,,,,,,,,,,,,,,,,,,,,,,,,,,,,,,,,,,,,,,,,,,,,,,,,,,,,,,,,
0,33,33,16,1,,5cabf58293e29a0016018c30,62bbfac6b1da8ea619ee871c,2022-06-29_09h11.52,Colour_Asymmetry_Pilot,2022.1.3,MacIntel,58.82352941,62bbe60bf3d75ef465d3e404,,,,,,,,,,,,,,,,,,,,,,,,,,,,,,,,,,,,,,,,,,,,,,,,,,,,,,,,,,,,,,,,,,,,,,,,,,,,,,,,,,,,,,,,,,,,,,,,,,,,,,,,,,,,,,,,,,,,,,,,,,,,,,,,,,,,,,,,,,,,,,,,,,,,,,,,,,,,,,
0,34,34,48,1,,5cabf58293e29a0016018c30,62bbfac6b1da8ea619ee871c,2022-06-29_09h11.52,Colour_Asymmetry_Pilot,2022.1.3,MacIntel,58.82352941,62bbe60bf3d75ef465d3e404,,,,,,,,,,,,,,,,,,,,,,,,,,,,,,,,,,,,,,,,,,,,,,,,,,,,,,,,,,,,,,,,,,,,,,,,,,,,,,,,,,,,,,,,,,,,,,,,,,,,,,,,,,,,,,,,,,,,,,,,,,,,,,,,,,,,,,,,,,,,,,,,,,,,,,,,,,,,,,
0,35,35,0,1,,5cabf58293e29a0016018c30,62bbfac6b1da8ea619ee871c,2022-06-29_09h11.52,Colour_Asymmetry_Pilot,2022.1.3,MacIntel,58.82352941,62bbe60bf3d75ef465d3e404,,,,,,,,,,,,,,,,,,,,,,,,,,,,,,,,,,,,,,,,,,,,,,,,,,,,,,,,,,,,,,,,,,,,,,,,,,,,,,,,,,,,,,,,,,,,,,,,,,,,,,,,,,,,,,,,,,,,,,,,,,,,,,,,,,,,,,,,,,,,,,,,,,,,,,,,,,,,,,
0,36,36,54,1,,5cabf58293e29a0016018c30,62bbfac6b1da8ea619ee871c,2022-06-29_09h11.52,Colour_Asymmetry_Pilot,2022.1.3,MacIntel,58.82352941,62bbe60bf3d75ef465d3e404,,,,,,,,,,,,,,,,,,,,,,,,,,,,,,,,,,,,,,,,,,,,,,,,,,,,,,,,,,,,,,,,,,,,,,,,,,,,,,,,,,,,,,,,,,,,,,,,,,,,,,,,,,,,,,,,,,,,,,,,,,,,,,,,,,,,,,,,,,,,,,,,,,,,,,,,,,,,,,
0,37,37,24,1,,5cabf58293e29a0016018c30,62bbfac6b1da8ea619ee871c,2022-06-29_09h11.52,Colour_Asymmetry_Pilot,2022.1.3,MacIntel,58.82352941,62bbe60bf3d75ef465d3e404,,,,,,,,,,,,,,,,,,,,,,,,,,,,,,,,,,,,,,,,,,,,,,,,,,,,,,,,,,,,,,,,,,,,,,,,,,,,,,,,,,,,,,,,,,,,,,,,,,,,,,,,,,,,,,,,,,,,,,,,,,,,,,,,,,,,,,,,,,,,,,,,,,,,,,,,,,,,,,
0,38,38,66,1,,5cabf58293e29a0016018c30,62bbfac6b1da8ea619ee871c,2022-06-29_09h11.52,Colour_Asymmetry_Pilot,2022.1.3,MacIntel,58.82352941,62bbe60bf3d75ef465d3e404,,,,,,,,,,,,,,,,,,,,,,,,,,,,,,,,,,,,,,,,,,,,,,,,,,,,,,,,,,,,,,,,,,,,,,,,,,,,,,,,,,,,,,,,,,,,,,,,,,,,,,,,,,,,,,,,,,,,,,,,,,,,,,,,,,,,,,,,,,,,,,,,,,,,,,,,,,,,,,
0,39,39,44,1,,5cabf58293e29a0016018c30,62bbfac6b1da8ea619ee871c,2022-06-29_09h11.52,Colour_Asymmetry_Pilot,2022.1.3,MacIntel,58.82352941,62bbe60bf3d75ef465d3e404,,,,,,,,,,,,,,,,,,,,,,,,,,,,,,,,,,,,,,,,,,,,,,,,,,,,,,,,,,,,,,,,,,,,,,,,,,,,,,,,,,,,,,,,,,,,,,,,,,,,,,,,,,,,,,,,,,,,,,,,,,,,,,,,,,,,,,,,,,,,,,,,,,,,,,,,,,,,,,
0,40,40,28,1,,5cabf58293e29a0016018c30,62bbfac6b1da8ea619ee871c,2022-06-29_09h11.52,Colour_Asymmetry_Pilot,2022.1.3,MacIntel,58.82352941,62bbe60bf3d75ef465d3e404,,,,,,,,,,,,,,,,,,,,,,,,,,,,,,,,,,,,,,,,,,,,,,,,,,,,,,,,,,,,,,,,,,,,,,,,,,,,,,,,,,,,,,,,,,,,,,,,,,,,,,,,,,,,,,,,,,,,,,,,,,,,,,,,,,,,,,,,,,,,,,,,,,,,,,,,,,,,,,
0,41,41,47,1,,5cabf58293e29a0016018c30,62bbfac6b1da8ea619ee871c,2022-06-29_09h11.52,Colour_Asymmetry_Pilot,2022.1.3,MacIntel,58.82352941,62bbe60bf3d75ef465d3e404,,,,,,,,,,,,,,,,,,,,,,,,,,,,,,,,,,,,,,,,,,,,,,,,,,,,,,,,,,,,,,,,,,,,,,,,,,,,,,,,,,,,,,,,,,,,,,,,,,,,,,,,,,,,,,,,,,,,,,,,,,,,,,,,,,,,,,,,,,,,,,,,,,,,,,,,,,,,,,
0,42,42,29,1,,5cabf58293e29a0016018c30,62bbfac6b1da8ea619ee871c,2022-06-29_09h11.52,Colour_Asymmetry_Pilot,2022.1.3,MacIntel,58.82352941,62bbe60bf3d75ef465d3e404,,,,,,,,,,,,,,,,,,,,,,,,,,,,,,,,,,,,,,,,,,,,,,,,,,,,,,,,,,,,,,,,,,,,,,,,,,,,,,,,,,,,,,,,,,,,,,,,,,,,,,,,,,,,,,,,,,,,,,,,,,,,,,,,,,,,,,,,,,,,,,,,,,,,,,,,,,,,,,
0,43,43,87,1,,5cabf58293e29a0016018c30,62bbfac6b1da8ea619ee871c,2022-06-29_09h11.52,Colour_Asymmetry_Pilot,2022.1.3,MacIntel,58.82352941,62bbe60bf3d75ef465d3e404,,,,,,,,,,,,,,,,,,,,,,,,,,,,,,,,,,,,,,,,,,,,,,,,,,,,,,,,,,,,,,,,,,,,,,,,,,,,,,,,,,,,,,,,,,,,,,,,,,,,,,,,,,,,,,,,,,,,,,,,,,,,,,,,,,,,,,,,,,,,,,,,,,,,,,,,,,,,,,
0,44,44,53,1,,5cabf58293e29a0016018c30,62bbfac6b1da8ea619ee871c,2022-06-29_09h11.52,Colour_Asymmetry_Pilot,2022.1.3,MacIntel,58.82352941,62bbe60bf3d75ef465d3e404,,,,,,,,,,,,,,,,,,,,,,,,,,,,,,,,,,,,,,,,,,,,,,,,,,,,,,,,,,,,,,,,,,,,,,,,,,,,,,,,,,,,,,,,,,,,,,,,,,,,,,,,,,,,,,,,,,,,,,,,,,,,,,,,,,,,,,,,,,,,,,,,,,,,,,,,,,,,,,
0,45,45,62,1,,5cabf58293e29a0016018c30,62bbfac6b1da8ea619ee871c,2022-06-29_09h11.52,Colour_Asymmetry_Pilot,2022.1.3,MacIntel,58.82352941,62bbe60bf3d75ef465d3e404,,,,,,,,,,,,,,,,,,,,,,,,,,,,,,,,,,,,,,,,,,,,,,,,,,,,,,,,,,,,,,,,,,,,,,,,,,,,,,,,,,,,,,,,,,,,,,,,,,,,,,,,,,,,,,,,,,,,,,,,,,,,,,,,,,,,,,,,,,,,,,,,,,,,,,,,,,,,,,
0,46,46,8,1,,5cabf58293e29a0016018c30,62bbfac6b1da8ea619ee871c,2022-06-29_09h11.52,Colour_Asymmetry_Pilot,2022.1.3,MacIntel,58.82352941,62bbe60bf3d75ef465d3e404,,,,,,,,,,,,,,,,,,,,,,,,,,,,,,,,,,,,,,,,,,,,,,,,,,,,,,,,,,,,,,,,,,,,,,,,,,,,,,,,,,,,,,,,,,,,,,,,,,,,,,,,,,,,,,,,,,,,,,,,,,,,,,,,,,,,,,,,,,,,,,,,,,,,,,,,,,,,,,
0,47,47,13,1,,5cabf58293e29a0016018c30,62bbfac6b1da8ea619ee871c,2022-06-29_09h11.52,Colour_Asymmetry_Pilot,2022.1.3,MacIntel,58.82352941,62bbe60bf3d75ef465d3e404,,,,,,,,,,,,,,,,,,,,,,,,,,,,,,,,,,,,,,,,,,,,,,,,,,,,,,,,,,,,,,,,,,,,,,,,,,,,,,,,,,,,,,,,,,,,,,,,,,,,,,,,,,,,,,,,,,,,,,,,,,,,,,,,,,,,,,,,,,,,,,,,,,,,,,,,,,,,,,
0,48,48,20,1,,5cabf58293e29a0016018c30,62bbfac6b1da8ea619ee871c,2022-06-29_09h11.52,Colour_Asymmetry_Pilot,2022.1.3,MacIntel,58.82352941,62bbe60bf3d75ef465d3e404,,,,,,,,,,,,,,,,,,,,,,,,,,,,,,,,,,,,,,,,,,,,,,,,,,,,,,,,,,,,,,,,,,,,,,,,,,,,,,,,,,,,,,,,,,,,,,,,,,,,,,,,,,,,,,,,,,,,,,,,,,,,,,,,,,,,,,,,,,,,,,,,,,,,,,,,,,,,,,
0,49,49,71,1,,5cabf58293e29a0016018c30,62bbfac6b1da8ea619ee871c,2022-06-29_09h11.52,Colour_Asymmetry_Pilot,2022.1.3,MacIntel,58.82352941,62bbe60bf3d75ef465d3e404,,,,,,,,,,,,,,,,,,,,,,,,,,,,,,,,,,,,,,,,,,,,,,,,,,,,,,,,,,,,,,,,,,,,,,,,,,,,,,,,,,,,,,,,,,,,,,,,,,,,,,,,,,,,,,,,,,,,,,,,,,,,,,,,,,,,,,,,,,,,,,,,,,,,,,,,,,,,,,
0,50,50,79,1,,5cabf58293e29a0016018c30,62bbfac6b1da8ea619ee871c,2022-06-29_09h11.52,Colour_Asymmetry_Pilot,2022.1.3,MacIntel,58.82352941,62bbe60bf3d75ef465d3e404,,,,,,,,,,,,,,,,,,,,,,,,,,,,,,,,,,,,,,,,,,,,,,,,,,,,,,,,,,,,,,,,,,,,,,,,,,,,,,,,,,,,,,,,,,,,,,,,,,,,,,,,,,,,,,,,,,,,,,,,,,,,,,,,,,,,,,,,,,,,,,,,,,,,,,,,,,,,,,
0,51,51,4,1,,5cabf58293e29a0016018c30,62bbfac6b1da8ea619ee871c,2022-06-29_09h11.52,Colour_Asymmetry_Pilot,2022.1.3,MacIntel,58.82352941,62bbe60bf3d75ef465d3e404,,,,,,,,,,,,,,,,,,,,,,,,,,,,,,,,,,,,,,,,,,,,,,,,,,,,,,,,,,,,,,,,,,,,,,,,,,,,,,,,,,,,,,,,,,,,,,,,,,,,,,,,,,,,,,,,,,,,,,,,,,,,,,,,,,,,,,,,,,,,,,,,,,,,,,,,,,,,,,
0,52,52,5,1,,5cabf58293e29a0016018c30,62bbfac6b1da8ea619ee871c,2022-06-29_09h11.52,Colour_Asymmetry_Pilot,2022.1.3,MacIntel,58.82352941,62bbe60bf3d75ef465d3e404,,,,,,,,,,,,,,,,,,,,,,,,,,,,,,,,,,,,,,,,,,,,,,,,,,,,,,,,,,,,,,,,,,,,,,,,,,,,,,,,,,,,,,,,,,,,,,,,,,,,,,,,,,,,,,,,,,,,,,,,,,,,,,,,,,,,,,,,,,,,,,,,,,,,,,,,,,,,,,
0,53,53,58,1,,5cabf58293e29a0016018c30,62bbfac6b1da8ea619ee871c,2022-06-29_09h11.52,Colour_Asymmetry_Pilot,2022.1.3,MacIntel,58.82352941,62bbe60bf3d75ef465d3e404,,,,,,,,,,,,,,,,,,,,,,,,,,,,,,,,,,,,,,,,,,,,,,,,,,,,,,,,,,,,,,,,,,,,,,,,,,,,,,,,,,,,,,,,,,,,,,,,,,,,,,,,,,,,,,,,,,,,,,,,,,,,,,,,,,,,,,,,,,,,,,,,,,,,,,,,,,,,,,
0,54,54,80,1,,5cabf58293e29a0016018c30,62bbfac6b1da8ea619ee871c,2022-06-29_09h11.52,Colour_Asymmetry_Pilot,2022.1.3,MacIntel,58.82352941,62bbe60bf3d75ef465d3e404,,,,,,,,,,,,,,,,,,,,,,,,,,,,,,,,,,,,,,,,,,,,,,,,,,,,,,,,,,,,,,,,,,,,,,,,,,,,,,,,,,,,,,,,,,,,,,,,,,,,,,,,,,,,,,,,,,,,,,,,,,,,,,,,,,,,,,,,,,,,,,,,,,,,,,,,,,,,,,
0,55,55,27,1,,5cabf58293e29a0016018c30,62bbfac6b1da8ea619ee871c,2022-06-29_09h11.52,Colour_Asymmetry_Pilot,2022.1.3,MacIntel,58.82352941,62bbe60bf3d75ef465d3e404,,,,,,,,,,,,,,,,,,,,,,,,,,,,,,,,,,,,,,,,,,,,,,,,,,,,,,,,,,,,,,,,,,,,,,,,,,,,,,,,,,,,,,,,,,,,,,,,,,,,,,,,,,,,,,,,,,,,,,,,,,,,,,,,,,,,,,,,,,,,,,,,,,,,,,,,,,,,,,
0,56,56,41,1,,5cabf58293e29a0016018c30,62bbfac6b1da8ea619ee871c,2022-06-29_09h11.52,Colour_Asymmetry_Pilot,2022.1.3,MacIntel,58.82352941,62bbe60bf3d75ef465d3e404,,,,,,,,,,,,,,,,,,,,,,,,,,,,,,,,,,,,,,,,,,,,,,,,,,,,,,,,,,,,,,,,,,,,,,,,,,,,,,,,,,,,,,,,,,,,,,,,,,,,,,,,,,,,,,,,,,,,,,,,,,,,,,,,,,,,,,,,,,,,,,,,,,,,,,,,,,,,,,
0,57,57,43,1,,5cabf58293e29a0016018c30,62bbfac6b1da8ea619ee871c,2022-06-29_09h11.52,Colour_Asymmetry_Pilot,2022.1.3,MacIntel,58.82352941,62bbe60bf3d75ef465d3e404,,,,,,,,,,,,,,,,,,,,,,,,,,,,,,,,,,,,,,,,,,,,,,,,,,,,,,,,,,,,,,,,,,,,,,,,,,,,,,,,,,,,,,,,,,,,,,,,,,,,,,,,,,,,,,,,,,,,,,,,,,,,,,,,,,,,,,,,,,,,,,,,,,,,,,,,,,,,,,
0,58,58,32,1,,5cabf58293e29a0016018c30,62bbfac6b1da8ea619ee871c,2022-06-29_09h11.52,Colour_Asymmetry_Pilot,2022.1.3,MacIntel,58.82352941,62bbe60bf3d75ef465d3e404,,,,,,,,,,,,,,,,,,,,,,,,,,,,,,,,,,,,,,,,,,,,,,,,,,,,,,,,,,,,,,,,,,,,,,,,,,,,,,,,,,,,,,,,,,,,,,,,,,,,,,,,,,,,,,,,,,,,,,,,,,,,,,,,,,,,,,,,,,,,,,,,,,,,,,,,,,,,,,
0,59,59,37,1,,5cabf58293e29a0016018c30,62bbfac6b1da8ea619ee871c,2022-06-29_09h11.52,Colour_Asymmetry_Pilot,2022.1.3,MacIntel,58.82352941,62bbe60bf3d75ef465d3e404,,,,,,,,,,,,,,,,,,,,,,,,,,,,,,,,,,,,,,,,,,,,,,,,,,,,,,,,,,,,,,,,,,,,,,,,,,,,,,,,,,,,,,,,,,,,,,,,,,,,,,,,,,,,,,,,,,,,,,,,,,,,,,,,,,,,,,,,,,,,,,,,,,,,,,,,,,,,,,
0,60,60,85,1,,5cabf58293e29a0016018c30,62bbfac6b1da8ea619ee871c,2022-06-29_09h11.52,Colour_Asymmetry_Pilot,2022.1.3,MacIntel,58.82352941,62bbe60bf3d75ef465d3e404,,,,,,,,,,,,,,,,,,,,,,,,,,,,,,,,,,,,,,,,,,,,,,,,,,,,,,,,,,,,,,,,,,,,,,,,,,,,,,,,,,,,,,,,,,,,,,,,,,,,,,,,,,,,,,,,,,,,,,,,,,,,,,,,,,,,,,,,,,,,,,,,,,,,,,,,,,,,,,
0,61,61,75,1,,5cabf58293e29a0016018c30,62bbfac6b1da8ea619ee871c,2022-06-29_09h11.52,Colour_Asymmetry_Pilot,2022.1.3,MacIntel,58.82352941,62bbe60bf3d75ef465d3e404,,,,,,,,,,,,,,,,,,,,,,,,,,,,,,,,,,,,,,,,,,,,,,,,,,,,,,,,,,,,,,,,,,,,,,,,,,,,,,,,,,,,,,,,,,,,,,,,,,,,,,,,,,,,,,,,,,,,,,,,,,,,,,,,,,,,,,,,,,,,,,,,,,,,,,,,,,,,,,
0,62,62,45,1,,5cabf58293e29a0016018c30,62bbfac6b1da8ea619ee871c,2022-06-29_09h11.52,Colour_Asymmetry_Pilot,2022.1.3,MacIntel,58.82352941,62bbe60bf3d75ef465d3e404,,,,,,,,,,,,,,,,,,,,,,,,,,,,,,,,,,,,,,,,,,,,,,,,,,,,,,,,,,,,,,,,,,,,,,,,,,,,,,,,,,,,,,,,,,,,,,,,,,,,,,,,,,,,,,,,,,,,,,,,,,,,,,,,,,,,,,,,,,,,,,,,,,,,,,,,,,,,,,
0,63,63,9,1,,5cabf58293e29a0016018c30,62bbfac6b1da8ea619ee871c,2022-06-29_09h11.52,Colour_Asymmetry_Pilot,2022.1.3,MacIntel,58.82352941,62bbe60bf3d75ef465d3e404,,,,,,,,,,,,,,,,,,,,,,,,,,,,,,,,,,,,,,,,,,,,,,,,,,,,,,,,,,,,,,,,,,,,,,,,,,,,,,,,,,,,,,,,,,,,,,,,,,,,,,,,,,,,,,,,,,,,,,,,,,,,,,,,,,,,,,,,,,,,,,,,,,,,,,,,,,,,,,
0,64,64,34,1,,5cabf58293e29a0016018c30,62bbfac6b1da8ea619ee871c,2022-06-29_09h11.52,Colour_Asymmetry_Pilot,2022.1.3,MacIntel,58.82352941,62bbe60bf3d75ef465d3e404,,,,,,,,,,,,,,,,,,,,,,,,,,,,,,,,,,,,,,,,,,,,,,,,,,,,,,,,,,,,,,,,,,,,,,,,,,,,,,,,,,,,,,,,,,,,,,,,,,,,,,,,,,,,,,,,,,,,,,,,,,,,,,,,,,,,,,,,,,,,,,,,,,,,,,,,,,,,,,
0,65,65,61,1,,5cabf58293e29a0016018c30,62bbfac6b1da8ea619ee871c,2022-06-29_09h11.52,Colour_Asymmetry_Pilot,2022.1.3,MacIntel,58.82352941,62bbe60bf3d75ef465d3e404,,,,,,,,,,,,,,,,,,,,,,,,,,,,,,,,,,,,,,,,,,,,,,,,,,,,,,,,,,,,,,,,,,,,,,,,,,,,,,,,,,,,,,,,,,,,,,,,,,,,,,,,,,,,,,,,,,,,,,,,,,,,,,,,,,,,,,,,,,,,,,,,,,,,,,,,,,,,,,
0,66,66,7,1,,5cabf58293e29a0016018c30,62bbfac6b1da8ea619ee871c,2022-06-29_09h11.52,Colour_Asymmetry_Pilot,2022.1.3,MacIntel,58.82352941,62bbe60bf3d75ef465d3e404,,,,,,,,,,,,,,,,,,,,,,,,,,,,,,,,,,,,,,,,,,,,,,,,,,,,,,,,,,,,,,,,,,,,,,,,,,,,,,,,,,,,,,,,,,,,,,,,,,,,,,,,,,,,,,,,,,,,,,,,,,,,,,,,,,,,,,,,,,,,,,,,,,,,,,,,,,,,,,
0,67,67,46,1,,5cabf58293e29a0016018c30,62bbfac6b1da8ea619ee871c,2022-06-29_09h11.52,Colour_Asymmetry_Pilot,2022.1.3,MacIntel,58.82352941,62bbe60bf3d75ef465d3e404,,,,,,,,,,,,,,,,,,,,,,,,,,,,,,,,,,,,,,,,,,,,,,,,,,,,,,,,,,,,,,,,,,,,,,,,,,,,,,,,,,,,,,,,,,,,,,,,,,,,,,,,,,,,,,,,,,,,,,,,,,,,,,,,,,,,,,,,,,,,,,,,,,,,,,,,,,,,,,
0,68,68,22,1,,5cabf58293e29a0016018c30,62bbfac6b1da8ea619ee871c,2022-06-29_09h11.52,Colour_Asymmetry_Pilot,2022.1.3,MacIntel,58.82352941,62bbe60bf3d75ef465d3e404,,,,,,,,,,,,,,,,,,,,,,,,,,,,,,,,,,,,,,,,,,,,,,,,,,,,,,,,,,,,,,,,,,,,,,,,,,,,,,,,,,,,,,,,,,,,,,,,,,,,,,,,,,,,,,,,,,,,,,,,,,,,,,,,,,,,,,,,,,,,,,,,,,,,,,,,,,,,,,
0,69,69,52,1,,5cabf58293e29a0016018c30,62bbfac6b1da8ea619ee871c,2022-06-29_09h11.52,Colour_Asymmetry_Pilot,2022.1.3,MacIntel,58.82352941,62bbe60bf3d75ef465d3e404,,,,,,,,,,,,,,,,,,,,,,,,,,,,,,,,,,,,,,,,,,,,,,,,,,,,,,,,,,,,,,,,,,,,,,,,,,,,,,,,,,,,,,,,,,,,,,,,,,,,,,,,,,,,,,,,,,,,,,,,,,,,,,,,,,,,,,,,,,,,,,,,,,,,,,,,,,,,,,
0,70,70,2,1,,5cabf58293e29a0016018c30,62bbfac6b1da8ea619ee871c,2022-06-29_09h11.52,Colour_Asymmetry_Pilot,2022.1.3,MacIntel,58.82352941,62bbe60bf3d75ef465d3e404,,,,,,,,,,,,,,,,,,,,,,,,,,,,,,,,,,,,,,,,,,,,,,,,,,,,,,,,,,,,,,,,,,,,,,,,,,,,,,,,,,,,,,,,,,,,,,,,,,,,,,,,,,,,,,,,,,,,,,,,,,,,,,,,,,,,,,,,,,,,,,,,,,,,,,,,,,,,,,
0,71,71,10,1,,5cabf58293e29a0016018c30,62bbfac6b1da8ea619ee871c,2022-06-29_09h11.52,Colour_Asymmetry_Pilot,2022.1.3,MacIntel,58.82352941,62bbe60bf3d75ef465d3e404,,,,,,,,,,,,,,,,,,,,,,,,,,,,,,,,,,,,,,,,,,,,,,,,,,,,,,,,,,,,,,,,,,,,,,,,,,,,,,,,,,,,,,,,,,,,,,,,,,,,,,,,,,,,,,,,,,,,,,,,,,,,,,,,,,,,,,,,,,,,,,,,,,,,,,,,,,,,,,
0,72,72,91,1,,5cabf58293e29a0016018c30,62bbfac6b1da8ea619ee871c,2022-06-29_09h11.52,Colour_Asymmetry_Pilot,2022.1.3,MacIntel,58.82352941,62bbe60bf3d75ef465d3e404,,,,,,,,,,,,,,,,,,,,,,,,,,,,,,,,,,,,,,,,,,,,,,,,,,,,,,,,,,,,,,,,,,,,,,,,,,,,,,,,,,,,,,,,,,,,,,,,,,,,,,,,,,,,,,,,,,,,,,,,,,,,,,,,,,,,,,,,,,,,,,,,,,,,,,,,,,,,,,
0,73,73,23,1,,5cabf58293e29a0016018c30,62bbfac6b1da8ea619ee871c,2022-06-29_09h11.52,Colour_Asymmetry_Pilot,2022.1.3,MacIntel,58.82352941,62bbe60bf3d75ef465d3e404,,,,,,,,,,,,,,,,,,,,,,,,,,,,,,,,,,,,,,,,,,,,,,,,,,,,,,,,,,,,,,,,,,,,,,,,,,,,,,,,,,,,,,,,,,,,,,,,,,,,,,,,,,,,,,,,,,,,,,,,,,,,,,,,,,,,,,,,,,,,,,,,,,,,,,,,,,,,,,
0,74,74,18,1,,5cabf58293e29a0016018c30,62bbfac6b1da8ea619ee871c,2022-06-29_09h11.52,Colour_Asymmetry_Pilot,2022.1.3,MacIntel,58.82352941,62bbe60bf3d75ef465d3e404,,,,,,,,,,,,,,,,,,,,,,,,,,,,,,,,,,,,,,,,,,,,,,,,,,,,,,,,,,,,,,,,,,,,,,,,,,,,,,,,,,,,,,,,,,,,,,,,,,,,,,,,,,,,,,,,,,,,,,,,,,,,,,,,,,,,,,,,,,,,,,,,,,,,,,,,,,,,,,
0,75,75,69,1,,5cabf58293e29a0016018c30,62bbfac6b1da8ea619ee871c,2022-06-29_09h11.52,Colour_Asymmetry_Pilot,2022.1.3,MacIntel,58.82352941,62bbe60bf3d75ef465d3e404,,,,,,,,,,,,,,,,,,,,,,,,,,,,,,,,,,,,,,,,,,,,,,,,,,,,,,,,,,,,,,,,,,,,,,,,,,,,,,,,,,,,,,,,,,,,,,,,,,,,,,,,,,,,,,,,,,,,,,,,,,,,,,,,,,,,,,,,,,,,,,,,,,,,,,,,,,,,,,
0,76,76,3,1,,5cabf58293e29a0016018c30,62bbfac6b1da8ea619ee871c,2022-06-29_09h11.52,Colour_Asymmetry_Pilot,2022.1.3,MacIntel,58.82352941,62bbe60bf3d75ef465d3e404,,,,,,,,,,,,,,,,,,,,,,,,,,,,,,,,,,,,,,,,,,,,,,,,,,,,,,,,,,,,,,,,,,,,,,,,,,,,,,,,,,,,,,,,,,,,,,,,,,,,,,,,,,,,,,,,,,,,,,,,,,,,,,,,,,,,,,,,,,,,,,,,,,,,,,,,,,,,,,
0,77,77,68,1,,5cabf58293e29a0016018c30,62bbfac6b1da8ea619ee871c,2022-06-29_09h11.52,Colour_Asymmetry_Pilot,2022.1.3,MacIntel,58.82352941,62bbe60bf3d75ef465d3e404,,,,,,,,,,,,,,,,,,,,,,,,,,,,,,,,,,,,,,,,,,,,,,,,,,,,,,,,,,,,,,,,,,,,,,,,,,,,,,,,,,,,,,,,,,,,,,,,,,,,,,,,,,,,,,,,,,,,,,,,,,,,,,,,,,,,,,,,,,,,,,,,,,,,,,,,,,,,,,
0,78,78,19,1,,5cabf58293e29a0016018c30,62bbfac6b1da8ea619ee871c,2022-06-29_09h11.52,Colour_Asymmetry_Pilot,2022.1.3,MacIntel,58.82352941,62bbe60bf3d75ef465d3e404,,,,,,,,,,,,,,,,,,,,,,,,,,,,,,,,,,,,,,,,,,,,,,,,,,,,,,,,,,,,,,,,,,,,,,,,,,,,,,,,,,,,,,,,,,,,,,,,,,,,,,,,,,,,,,,,,,,,,,,,,,,,,,,,,,,,,,,,,,,,,,,,,,,,,,,,,,,,,,
0,79,79,59,1,,5cabf58293e29a0016018c30,62bbfac6b1da8ea619ee871c,2022-06-29_09h11.52,Colour_Asymmetry_Pilot,2022.1.3,MacIntel,58.82352941,62bbe60bf3d75ef465d3e404,,,,,,,,,,,,,,,,,,,,,,,,,,,,,,,,,,,,,,,,,,,,,,,,,,,,,,,,,,,,,,,,,,,,,,,,,,,,,,,,,,,,,,,,,,,,,,,,,,,,,,,,,,,,,,,,,,,,,,,,,,,,,,,,,,,,,,,,,,,,,,,,,,,,,,,,,,,,,,
0,80,80,64,1,,5cabf58293e29a0016018c30,62bbfac6b1da8ea619ee871c,2022-06-29_09h11.52,Colour_Asymmetry_Pilot,2022.1.3,MacIntel,58.82352941,62bbe60bf3d75ef465d3e404,,,,,,,,,,,,,,,,,,,,,,,,,,,,,,,,,,,,,,,,,,,,,,,,,,,,,,,,,,,,,,,,,,,,,,,,,,,,,,,,,,,,,,,,,,,,,,,,,,,,,,,,,,,,,,,,,,,,,,,,,,,,,,,,,,,,,,,,,,,,,,,,,,,,,,,,,,,,,,
0,81,81,17,1,,5cabf58293e29a0016018c30,62bbfac6b1da8ea619ee871c,2022-06-29_09h11.52,Colour_Asymmetry_Pilot,2022.1.3,MacIntel,58.82352941,62bbe60bf3d75ef465d3e404,,,,,,,,,,,,,,,,,,,,,,,,,,,,,,,,,,,,,,,,,,,,,,,,,,,,,,,,,,,,,,,,,,,,,,,,,,,,,,,,,,,,,,,,,,,,,,,,,,,,,,,,,,,,,,,,,,,,,,,,,,,,,,,,,,,,,,,,,,,,,,,,,,,,,,,,,,,,,,
0,82,82,72,1,,5cabf58293e29a0016018c30,62bbfac6b1da8ea619ee871c,2022-06-29_09h11.52,Colour_Asymmetry_Pilot,2022.1.3,MacIntel,58.82352941,62bbe60bf3d75ef465d3e404,,,,,,,,,,,,,,,,,,,,,,,,,,,,,,,,,,,,,,,,,,,,,,,,,,,,,,,,,,,,,,,,,,,,,,,,,,,,,,,,,,,,,,,,,,,,,,,,,,,,,,,,,,,,,,,,,,,,,,,,,,,,,,,,,,,,,,,,,,,,,,,,,,,,,,,,,,,,,,
0,83,83,6,1,,5cabf58293e29a0016018c30,62bbfac6b1da8ea619ee871c,2022-06-29_09h11.52,Colour_Asymmetry_Pilot,2022.1.3,MacIntel,58.82352941,62bbe60bf3d75ef465d3e404,,,,,,,,,,,,,,,,,,,,,,,,,,,,,,,,,,,,,,,,,,,,,,,,,,,,,,,,,,,,,,,,,,,,,,,,,,,,,,,,,,,,,,,,,,,,,,,,,,,,,,,,,,,,,,,,,,,,,,,,,,,,,,,,,,,,,,,,,,,,,,,,,,,,,,,,,,,,,,
0,84,84,14,1,,5cabf58293e29a0016018c30,62bbfac6b1da8ea619ee871c,2022-06-29_09h11.52,Colour_Asymmetry_Pilot,2022.1.3,MacIntel,58.82352941,62bbe60bf3d75ef465d3e404,,,,,,,,,,,,,,,,,,,,,,,,,,,,,,,,,,,,,,,,,,,,,,,,,,,,,,,,,,,,,,,,,,,,,,,,,,,,,,,,,,,,,,,,,,,,,,,,,,,,,,,,,,,,,,,,,,,,,,,,,,,,,,,,,,,,,,,,,,,,,,,,,,,,,,,,,,,,,,
0,85,85,76,1,,5cabf58293e29a0016018c30,62bbfac6b1da8ea619ee871c,2022-06-29_09h11.52,Colour_Asymmetry_Pilot,2022.1.3,MacIntel,58.82352941,62bbe60bf3d75ef465d3e404,,,,,,,,,,,,,,,,,,,,,,,,,,,,,,,,,,,,,,,,,,,,,,,,,,,,,,,,,,,,,,,,,,,,,,,,,,,,,,,,,,,,,,,,,,,,,,,,,,,,,,,,,,,,,,,,,,,,,,,,,,,,,,,,,,,,,,,,,,,,,,,,,,,,,,,,,,,,,,
0,86,86,30,1,,5cabf58293e29a0016018c30,62bbfac6b1da8ea619ee871c,2022-06-29_09h11.52,Colour_Asymmetry_Pilot,2022.1.3,MacIntel,58.82352941,62bbe60bf3d75ef465d3e404,,,,,,,,,,,,,,,,,,,,,,,,,,,,,,,,,,,,,,,,,,,,,,,,,,,,,,,,,,,,,,,,,,,,,,,,,,,,,,,,,,,,,,,,,,,,,,,,,,,,,,,,,,,,,,,,,,,,,,,,,,,,,,,,,,,,,,,,,,,,,,,,,,,,,,,,,,,,,,
0,87,87,90,1,,5cabf58293e29a0016018c30,62bbfac6b1da8ea619ee871c,2022-06-29_09h11.52,Colour_Asymmetry_Pilot,2022.1.3,MacIntel,58.82352941,62bbe60bf3d75ef465d3e404,,,,,,,,,,,,,,,,,,,,,,,,,,,,,,,,,,,,,,,,,,,,,,,,,,,,,,,,,,,,,,,,,,,,,,,,,,,,,,,,,,,,,,,,,,,,,,,,,,,,,,,,,,,,,,,,,,,,,,,,,,,,,,,,,,,,,,,,,,,,,,,,,,,,,,,,,,,,,,
0,88,88,74,1,,5cabf58293e29a0016018c30,62bbfac6b1da8ea619ee871c,2022-06-29_09h11.52,Colour_Asymmetry_Pilot,2022.1.3,MacIntel,58.82352941,62bbe60bf3d75ef465d3e404,,,,,,,,,,,,,,,,,,,,,,,,,,,,,,,,,,,,,,,,,,,,,,,,,,,,,,,,,,,,,,,,,,,,,,,,,,,,,,,,,,,,,,,,,,,,,,,,,,,,,,,,,,,,,,,,,,,,,,,,,,,,,,,,,,,,,,,,,,,,,,,,,,,,,,,,,,,,,,
0,89,89,84,1,,5cabf58293e29a0016018c30,62bbfac6b1da8ea619ee871c,2022-06-29_09h11.52,Colour_Asymmetry_Pilot,2022.1.3,MacIntel,58.82352941,62bbe60bf3d75ef465d3e404,,,,,,,,,,,,,,,,,,,,,,,,,,,,,,,,,,,,,,,,,,,,,,,,,,,,,,,,,,,,,,,,,,,,,,,,,,,,,,,,,,,,,,,,,,,,,,,,,,,,,,,,,,,,,,,,,,,,,,,,,,,,,,,,,,,,,,,,,,,,,,,,,,,,,,,,,,,,,,
0,90,90,11,1,,5cabf58293e29a0016018c30,62bbfac6b1da8ea619ee871c,2022-06-29_09h11.52,Colour_Asymmetry_Pilot,2022.1.3,MacIntel,58.82352941,62bbe60bf3d75ef465d3e404,,,,,,,,,,,,,,,,,,,,,,,,,,,,,,,,,,,,,,,,,,,,,,,,,,,,,,,,,,,,,,,,,,,,,,,,,,,,,,,,,,,,,,,,,,,,,,,,,,,,,,,,,,,,,,,,,,,,,,,,,,,,,,,,,,,,,,,,,,,,,,,,,,,,,,,,,,,,,,
0,91,91,55,1,,5cabf58293e29a0016018c30,62bbfac6b1da8ea619ee871c,2022-06-29_09h11.52,Colour_Asymmetry_Pilot,2022.1.3,MacIntel,58.82352941,62bbe60bf3d75ef465d3e404,,,,,,,,,,,,,,,,,,,,,,,,,,,,,,,,,,,,,,,,,,,,,,,,,,,,,,,,,,,,,,,,,,,,,,,,,,,,,,,,,,,,,,,,,,,,,,,,,,,,,,,,,,,,,,,,,,,,,,,,,,,,,,,,,,,,,,,,,,,,,,,,,,,,,,,,,,,,,,
0,92,92,35,1,,5cabf58293e29a0016018c30,62bbfac6b1da8ea619ee871c,2022-06-29_09h11.52,Colour_Asymmetry_Pilot,2022.1.3,MacIntel,58.82352941,62bbe60bf3d75ef465d3e404,,,,,,,,,,,,,,,,,,,,,,,,,,,,,,,,,,,,,,,,,,,,,,,,,,,,,,,,,,,,,,,,,,,,,,,,,,,,,,,,,,,,,,,,,,,,,,,,,,,,,,,,,,,,,,,,,,,,,,,,,,,,,,,,,,,,,,,,,,,,,,,,,,,,,,,,,,,,,,
,,,,,,5cabf58293e29a0016018c30,62bbfac6b1da8ea619ee871c,2022-06-29_09h11.52,Colour_Asymmetry_Pilot,2022.1.3,MacIntel,58.82352941,62bbe60bf3d75ef465d3e404,0,0,0,39,1,fourthree,,,,,,,,,,,,,,,,,,,,,,,,,,,,,,,,,,,,,,,,,,,,,,,,,,,,,,,,,,,,,,,,,,,,,,,,,,,,,,,,,,,,,,,,,,,,,,,,,,,,,,,,,,,,,,,,,,,,,,,,,,,,,,,,,,,,,,,,,,,,,,,,,,,,,,,,
,,,,,,5cabf58293e29a0016018c30,62bbfac6b1da8ea619ee871c,2022-06-29_09h11.52,Colour_Asymmetry_Pilot,2022.1.3,MacIntel,58.82352941,62bbe60bf3d75ef465d3e404,0,1,1,98,1,twoone,,,,,,,,,,,,,,,,,,,,,,,,,,,,,,,,,,,,,,,,,,,,,,,,,,,,,,,,,,,,,,,,,,,,,,,,,,,,,,,,,,,,,,,,,,,,,,,,,,,,,,,,,,,,,,,,,,,,,,,,,,,,,,,,,,,,,,,,,,,,,,,,,,,,,,,,
,,,,,,5cabf58293e29a0016018c30,62bbfac6b1da8ea619ee871c,2022-06-29_09h11.52,Colour_Asymmetry_Pilot,2022.1.3,MacIntel,58.82352941,62bbe60bf3d75ef465d3e404,0,2,2,131,1,twofour,,,,,,,,,,,,,,,,,,,,,,,,,,,,,,,,,,,,,,,,,,,,,,,,,,,,,,,,,,,,,,,,,,,,,,,,,,,,,,,,,,,,,,,,,,,,,,,,,,,,,,,,,,,,,,,,,,,,,,,,,,,,,,,,,,,,,,,,,,,,,,,,,,,,,,,,
,,,,,,5cabf58293e29a0016018c30,62bbfac6b1da8ea619ee871c,2022-06-29_09h11.52,Colour_Asymmetry_Pilot,2022.1.3,MacIntel,58.82352941,62bbe60bf3d75ef465d3e404,0,3,3,144,1,onetwo,,,,,,,,,,,,,,,,,,,,,,,,,,,,,,,,,,,,,,,,,,,,,,,,,,,,,,,,,,,,,,,,,,,,,,,,,,,,,,,,,,,,,,,,,,,,,,,,,,,,,,,,,,,,,,,,,,,,,,,,,,,,,,,,,,,,,,,,,,,,,,,,,,,,,,,,
,,,,,,5cabf58293e29a0016018c30,62bbfac6b1da8ea619ee871c,2022-06-29_09h11.52,Colour_Asymmetry_Pilot,2022.1.3,MacIntel,58.82352941,62bbe60bf3d75ef465d3e404,0,4,4,123,1,twofour,,,,,,,,,,,,,,,,,,,,,,,,,,,,,,,,,,,,,,,,,,,,,,,,,,,,,,,,,,,,,,,,,,,,,,,,,,,,,,,,,,,,,,,,,,,,,,,,,,,,,,,,,,,,,,,,,,,,,,,,,,,,,,,,,,,,,,,,,,,,,,,,,,,,,,,,
,,,,,,5cabf58293e29a0016018c30,62bbfac6b1da8ea619ee871c,2022-06-29_09h11.52,Colour_Asymmetry_Pilot,2022.1.3,MacIntel,58.82352941,62bbe60bf3d75ef465d3e404,0,5,5,37,1,threefour,,,,,,,,,,,,,,,,,,,,,,,,,,,,,,,,,,,,,,,,,,,,,,,,,,,,,,,,,,,,,,,,,,,,,,,,,,,,,,,,,,,,,,,,,,,,,,,,,,,,,,,,,,,,,,,,,,,,,,,,,,,,,,,,,,,,,,,,,,,,,,,,,,,,,,,,
,,,,,,5cabf58293e29a0016018c30,62bbfac6b1da8ea619ee871c,2022-06-29_09h11.52,Colour_Asymmetry_Pilot,2022.1.3,MacIntel,58.82352941,62bbe60bf3d75ef465d3e404,0,6,6,142,1,fourtwo,,,,,,,,,,,,,,,,,,,,,,,,,,,,,,,,,,,,,,,,,,,,,,,,,,,,,,,,,,,,,,,,,,,,,,,,,,,,,,,,,,,,,,,,,,,,,,,,,,,,,,,,,,,,,,,,,,,,,,,,,,,,,,,,,,,,,,,,,,,,,,,,,,,,,,,,
,,,,,,5cabf58293e29a0016018c30,62bbfac6b1da8ea619ee871c,2022-06-29_09h11.52,Colour_Asymmetry_Pilot,2022.1.3,MacIntel,58.82352941,62bbe60bf3d75ef465d3e404,0,7,7,6,1,fourtwo,,,,,,,,,,,,,,,,,,,,,,,,,,,,,,,,,,,,,,,,,,,,,,,,,,,,,,,,,,,,,,,,,,,,,,,,,,,,,,,,,,,,,,,,,,,,,,,,,,,,,,,,,,,,,,,,,,,,,,,,,,,,,,,,,,,,,,,,,,,,,,,,,,,,,,,,
,,,,,,5cabf58293e29a0016018c30,62bbfac6b1da8ea619ee871c,2022-06-29_09h11.52,Colour_Asymmetry_Pilot,2022.1.3,MacIntel,58.82352941,62bbe60bf3d75ef465d3e404,0,8,8,50,1,twoone,,,,,,,,,,,,,,,,,,,,,,,,,,,,,,,,,,,,,,,,,,,,,,,,,,,,,,,,,,,,,,,,,,,,,,,,,,,,,,,,,,,,,,,,,,,,,,,,,,,,,,,,,,,,,,,,,,,,,,,,,,,,,,,,,,,,,,,,,,,,,,,,,,,,,,,,
,,,,,,5cabf58293e29a0016018c30,62bbfac6b1da8ea619ee871c,2022-06-29_09h11.52,Colour_Asymmetry_Pilot,2022.1.3,MacIntel,58.82352941,62bbe60bf3d75ef465d3e404,0,9,9,76,1,threeone,,,,,,,,,,,,,,,,,,,,,,,,,,,,,,,,,,,,,,,,,,,,,,,,,,,,,,,,,,,,,,,,,,,,,,,,,,,,,,,,,,,,,,,,,,,,,,,,,,,,,,,,,,,,,,,,,,,,,,,,,,,,,,,,,,,,,,,,,,,,,,,,,,,,,,,,
,,,,,,5cabf58293e29a0016018c30,62bbfac6b1da8ea619ee871c,2022-06-29_09h11.52,Colour_Asymmetry_Pilot,2022.1.3,MacIntel,58.82352941,62bbe60bf3d75ef465d3e404,0,10,10,122,1,twoone,,,,,,,,,,,,,,,,,,,,,,,,,,,,,,,,,,,,,,,,,,,,,,,,,,,,,,,,,,,,,,,,,,,,,,,,,,,,,,,,,,,,,,,,,,,,,,,,,,,,,,,,,,,,,,,,,,,,,,,,,,,,,,,,,,,,,,,,,,,,,,,,,,,,,,,,
,,,,,,5cabf58293e29a0016018c30,62bbfac6b1da8ea619ee871c,2022-06-29_09h11.52,Colour_Asymmetry_Pilot,2022.1.3,MacIntel,58.82352941,62bbe60bf3d75ef465d3e404,0,11,11,61,1,threefour,,,,,,,,,,,,,,,,,,,,,,,,,,,,,,,,,,,,,,,,,,,,,,,,,,,,,,,,,,,,,,,,,,,,,,,,,,,,,,,,,,,,,,,,,,,,,,,,,,,,,,,,,,,,,,,,,,,,,,,,,,,,,,,,,,,,,,,,,,,,,,,,,,,,,,,,
,,,,,,5cabf58293e29a0016018c30,62bbfac6b1da8ea619ee871c,2022-06-29_09h11.52,Colour_Asymmetry_Pilot,2022.1.3,MacIntel,58.82352941,62bbe60bf3d75ef465d3e404,0,12,12,86,1,fourtwo,,,,,,,,,,,,,,,,,,,,,,,,,,,,,,,,,,,,,,,,,,,,,,,,,,,,,,,,,,,,,,,,,,,,,,,,,,,,,,,,,,,,,,,,,,,,,,,,,,,,,,,,,,,,,,,,,,,,,,,,,,,,,,,,,,,,,,,,,,,,,,,,,,,,,,,,
,,,,,,5cabf58293e29a0016018c30,62bbfac6b1da8ea619ee871c,2022-06-29_09h11.52,Colour_Asymmetry_Pilot,2022.1.3,MacIntel,58.82352941,62bbe60bf3d75ef465d3e404,0,13,13,137,1,onethree,,,,,,,,,,,,,,,,,,,,,,,,,,,,,,,,,,,,,,,,,,,,,,,,,,,,,,,,,,,,,,,,,,,,,,,,,,,,,,,,,,,,,,,,,,,,,,,,,,,,,,,,,,,,,,,,,,,,,,,,,,,,,,,,,,,,,,,,,,,,,,,,,,,,,,,,
,,,,,,5cabf58293e29a0016018c30,62bbfac6b1da8ea619ee871c,2022-06-29_09h11.52,Colour_Asymmetry_Pilot,2022.1.3,MacIntel,58.82352941,62bbe60bf3d75ef465d3e404,0,14,14,12,1,threeone,,,,,,,,,,,,,,,,,,,,,,,,,,,,,,,,,,,,,,,,,,,,,,,,,,,,,,,,,,,,,,,,,,,,,,,,,,,,,,,,,,,,,,,,,,,,,,,,,,,,,,,,,,,,,,,,,,,,,,,,,,,,,,,,,,,,,,,,,,,,,,,,,,,,,,,,
,,,,,,5cabf58293e29a0016018c30,62bbfac6b1da8ea619ee871c,2022-06-29_09h11.52,Colour_Asymmetry_Pilot,2022.1.3,MacIntel,58.82352941,62bbe60bf3d75ef465d3e404,0,15,15,128,1,onetwo,,,,,,,,,,,,,,,,,,,,,,,,,,,,,,,,,,,,,,,,,,,,,,,,,,,,,,,,,,,,,,,,,,,,,,,,,,,,,,,,,,,,,,,,,,,,,,,,,,,,,,,,,,,,,,,,,,,,,,,,,,,,,,,,,,,,,,,,,,,,,,,,,,,,,,,,
,,,,,,5cabf58293e29a0016018c30,62bbfac6b1da8ea619ee871c,2022-06-29_09h11.52,Colour_Asymmetry_Pilot,2022.1.3,MacIntel,58.82352941,62bbe60bf3d75ef465d3e404,0,16,16,73,1,onethree,,,,,,,,,,,,,,,,,,,,,,,,,,,,,,,,,,,,,,,,,,,,,,,,,,,,,,,,,,,,,,,,,,,,,,,,,,,,,,,,,,,,,,,,,,,,,,,,,,,,,,,,,,,,,,,,,,,,,,,,,,,,,,,,,,,,,,,,,,,,,,,,,,,,,,,,
,,,,,,5cabf58293e29a0016018c30,62bbfac6b1da8ea619ee871c,2022-06-29_09h11.52,Colour_Asymmetry_Pilot,2022.1.3,MacIntel,58.82352941,62bbe60bf3d75ef465d3e404,0,17,17,89,1,onethree,,,,,,,,,,,,,,,,,,,,,,,,,,,,,,,,,,,,,,,,,,,,,,,,,,,,,,,,,,,,,,,,,,,,,,,,,,,,,,,,,,,,,,,,,,,,,,,,,,,,,,,,,,,,,,,,,,,,,,,,,,,,,,,,,,,,,,,,,,,,,,,,,,,,,,,,
,,,,,,5cabf58293e29a0016018c30,62bbfac6b1da8ea619ee871c,2022-06-29_09h11.52,Colour_Asymmetry_Pilot,2022.1.3,MacIntel,58.82352941,62bbe60bf3d75ef465d3e404,0,18,18,40,1,onetwo,,,,,,,,,,,,,,,,,,,,,,,,,,,,,,,,,,,,,,,,,,,,,,,,,,,,,,,,,,,,,,,,,,,,,,,,,,,,,,,,,,,,,,,,,,,,,,,,,,,,,,,,,,,,,,,,,,,,,,,,,,,,,,,,,,,,,,,,,,,,,,,,,,,,,,,,
,,,,,,5cabf58293e29a0016018c30,62bbfac6b1da8ea619ee871c,2022-06-29_09h11.52,Colour_Asymmetry_Pilot,2022.1.3,MacIntel,58.82352941,62bbe60bf3d75ef465d3e404,0,19,19,107,1,twofour,,,,,,,,,,,,,,,,,,,,,,,,,,,,,,,,,,,,,,,,,,,,,,,,,,,,,,,,,,,,,,,,,,,,,,,,,,,,,,,,,,,,,,,,,,,,,,,,,,,,,,,,,,,,,,,,,,,,,,,,,,,,,,,,,,,,,,,,,,,,,,,,,,,,,,,,
,,,,,,5cabf58293e29a0016018c30,62bbfac6b1da8ea619ee871c,2022-06-29_09h11.52,Colour_Asymmetry_Pilot,2022.1.3,MacIntel,58.82352941,62bbe60bf3d75ef465d3e404,0,20,20,47,1,fourthree,,,,,,,,,,,,,,,,,,,,,,,,,,,,,,,,,,,,,,,,,,,,,,,,,,,,,,,,,,,,,,,,,,,,,,,,,,,,,,,,,,,,,,,,,,,,,,,,,,,,,,,,,,,,,,,,,,,,,,,,,,,,,,,,,,,,,,,,,,,,,,,,,,,,,,,,
,,,,,,5cabf58293e29a0016018c30,62bbfac6b1da8ea619ee871c,2022-06-29_09h11.52,Colour_Asymmetry_Pilot,2022.1.3,MacIntel,58.82352941,62bbe60bf3d75ef465d3e404,0,21,21,159,1,fourthree,,,,,,,,,,,,,,,,,,,,,,,,,,,,,,,,,,,,,,,,,,,,,,,,,,,,,,,,,,,,,,,,,,,,,,,,,,,,,,,,,,,,,,,,,,,,,,,,,,,,,,,,,,,,,,,,,,,,,,,,,,,,,,,,,,,,,,,,,,,,,,,,,,,,,,,,
,,,,,,5cabf58293e29a0016018c30,62bbfac6b1da8ea619ee871c,2022-06-29_09h11.52,Colour_Asymmetry_Pilot,2022.1.3,MacIntel,58.82352941,62bbe60bf3d75ef465d3e404,0,22,22,157,1,threefour,,,,,,,,,,,,,,,,,,,,,,,,,,,,,,,,,,,,,,,,,,,,,,,,,,,,,,,,,,,,,,,,,,,,,,,,,,,,,,,,,,,,,,,,,,,,,,,,,,,,,,,,,,,,,,,,,,,,,,,,,,,,,,,,,,,,,,,,,,,,,,,,,,,,,,,,
,,,,,,5cabf58293e29a0016018c30,62bbfac6b1da8ea619ee871c,2022-06-29_09h11.52,Colour_Asymmetry_Pilot,2022.1.3,MacIntel,58.82352941,62bbe60bf3d75ef465d3e404,0,23,23,130,1,twoone,,,,,,,,,,,,,,,,,,,,,,,,,,,,,,,,,,,,,,,,,,,,,,,,,,,,,,,,,,,,,,,,,,,,,,,,,,,,,,,,,,,,,,,,,,,,,,,,,,,,,,,,,,,,,,,,,,,,,,,,,,,,,,,,,,,,,,,,,,,,,,,,,,,,,,,,
,,,,,,5cabf58293e29a0016018c30,62bbfac6b1da8ea619ee871c,2022-06-29_09h11.52,Colour_Asymmetry_Pilot,2022.1.3,MacIntel,58.82352941,62bbe60bf3d75ef465d3e404,0,24,24,34,1,twoone,,,,,,,,,,,,,,,,,,,,,,,,,,,,,,,,,,,,,,,,,,,,,,,,,,,,,,,,,,,,,,,,,,,,,,,,,,,,,,,,,,,,,,,,,,,,,,,,,,,,,,,,,,,,,,,,,,,,,,,,,,,,,,,,,,,,,,,,,,,,,,,,,,,,,,,,
,,,,,,5cabf58293e29a0016018c30,62bbfac6b1da8ea619ee871c,2022-06-29_09h11.52,Colour_Asymmetry_Pilot,2022.1.3,MacIntel,58.82352941,62bbe60bf3d75ef465d3e404,0,25,25,3,1,twofour,,,,,,,,,,,,,,,,,,,,,,,,,,,,,,,,,,,,,,,,,,,,,,,,,,,,,,,,,,,,,,,,,,,,,,,,,,,,,,,,,,,,,,,,,,,,,,,,,,,,,,,,,,,,,,,,,,,,,,,,,,,,,,,,,,,,,,,,,,,,,,,,,,,,,,,,
,,,,,,5cabf58293e29a0016018c30,62bbfac6b1da8ea619ee871c,2022-06-29_09h11.52,Colour_Asymmetry_Pilot,2022.1.3,MacIntel,58.82352941,62bbe60bf3d75ef465d3e404,0,26,26,0,1,onetwo,,,,,,,,,,,,,,,,,,,,,,,,,,,,,,,,,,,,,,,,,,,,,,,,,,,,,,,,,,,,,,,,,,,,,,,,,,,,,,,,,,,,,,,,,,,,,,,,,,,,,,,,,,,,,,,,,,,,,,,,,,,,,,,,,,,,,,,,,,,,,,,,,,,,,,,,
,,,,,,5cabf58293e29a0016018c30,62bbfac6b1da8ea619ee871c,2022-06-29_09h11.52,Colour_Asymmetry_Pilot,2022.1.3,MacIntel,58.82352941,62bbe60bf3d75ef465d3e404,0,27,27,46,1,fourtwo,,,,,,,,,,,,,,,,,,,,,,,,,,,,,,,,,,,,,,,,,,,,,,,,,,,,,,,,,,,,,,,,,,,,,,,,,,,,,,,,,,,,,,,,,,,,,,,,,,,,,,,,,,,,,,,,,,,,,,,,,,,,,,,,,,,,,,,,,,,,,,,,,,,,,,,,
,,,,,,5cabf58293e29a0016018c30,62bbfac6b1da8ea619ee871c,2022-06-29_09h11.52,Colour_Asymmetry_Pilot,2022.1.3,MacIntel,58.82352941,62bbe60bf3d75ef465d3e404,0,28,28,77,1,threefour,,,,,,,,,,,,,,,,,,,,,,,,,,,,,,,,,,,,,,,,,,,,,,,,,,,,,,,,,,,,,,,,,,,,,,,,,,,,,,,,,,,,,,,,,,,,,,,,,,,,,,,,,,,,,,,,,,,,,,,,,,,,,,,,,,,,,,,,,,,,,,,,,,,,,,,,
,,,,,,5cabf58293e29a0016018c30,62bbfac6b1da8ea619ee871c,2022-06-29_09h11.52,Colour_Asymmetry_Pilot,2022.1.3,MacIntel,58.82352941,62bbe60bf3d75ef465d3e404,0,29,29,82,1,twoone,,,,,,,,,,,,,,,,,,,,,,,,,,,,,,,,,,,,,,,,,,,,,,,,,,,,,,,,,,,,,,,,,,,,,,,,,,,,,,,,,,,,,,,,,,,,,,,,,,,,,,,,,,,,,,,,,,,,,,,,,,,,,,,,,,,,,,,,,,,,,,,,,,,,,,,,
,,,,,,5cabf58293e29a0016018c30,62bbfac6b1da8ea619ee871c,2022-06-29_09h11.52,Colour_Asymmetry_Pilot,2022.1.3,MacIntel,58.82352941,62bbe60bf3d75ef465d3e404,0,30,30,118,1,fourtwo,,,,,,,,,,,,,,,,,,,,,,,,,,,,,,,,,,,,,,,,,,,,,,,,,,,,,,,,,,,,,,,,,,,,,,,,,,,,,,,,,,,,,,,,,,,,,,,,,,,,,,,,,,,,,,,,,,,,,,,,,,,,,,,,,,,,,,,,,,,,,,,,,,,,,,,,
,,,,,,5cabf58293e29a0016018c30,62bbfac6b1da8ea619ee871c,2022-06-29_09h11.52,Colour_Asymmetry_Pilot,2022.1.3,MacIntel,58.82352941,62bbe60bf3d75ef465d3e404,0,31,31,48,1,onetwo,,,,,,,,,,,,,,,,,,,,,,,,,,,,,,,,,,,,,,,,,,,,,,,,,,,,,,,,,,,,,,,,,,,,,,,,,,,,,,,,,,,,,,,,,,,,,,,,,,,,,,,,,,,,,,,,,,,,,,,,,,,,,,,,,,,,,,,,,,,,,,,,,,,,,,,,
,,,,,,5cabf58293e29a0016018c30,62bbfac6b1da8ea619ee871c,2022-06-29_09h11.52,Colour_Asymmetry_Pilot,2022.1.3,MacIntel,58.82352941,62bbe60bf3d75ef465d3e404,0,32,32,151,1,fourthree,,,,,,,,,,,,,,,,,,,,,,,,,,,,,,,,,,,,,,,,,,,,,,,,,,,,,,,,,,,,,,,,,,,,,,,,,,,,,,,,,,,,,,,,,,,,,,,,,,,,,,,,,,,,,,,,,,,,,,,,,,,,,,,,,,,,,,,,,,,,,,,,,,,,,,,,
,,,,,,5cabf58293e29a0016018c30,62bbfac6b1da8ea619ee871c,2022-06-29_09h11.52,Colour_Asymmetry_Pilot,2022.1.3,MacIntel,58.82352941,62bbe60bf3d75ef465d3e404,0,33,33,75,1,twofour,,,,,,,,,,,,,,,,,,,,,,,,,,,,,,,,,,,,,,,,,,,,,,,,,,,,,,,,,,,,,,,,,,,,,,,,,,,,,,,,,,,,,,,,,,,,,,,,,,,,,,,,,,,,,,,,,,,,,,,,,,,,,,,,,,,,,,,,,,,,,,,,,,,,,,,,
,,,,,,5cabf58293e29a0016018c30,62bbfac6b1da8ea619ee871c,2022-06-29_09h11.52,Colour_Asymmetry_Pilot,2022.1.3,MacIntel,58.82352941,62bbe60bf3d75ef465d3e404,0,34,34,16,1,onetwo,,,,,,,,,,,,,,,,,,,,,,,,,,,,,,,,,,,,,,,,,,,,,,,,,,,,,,,,,,,,,,,,,,,,,,,,,,,,,,,,,,,,,,,,,,,,,,,,,,,,,,,,,,,,,,,,,,,,,,,,,,,,,,,,,,,,,,,,,,,,,,,,,,,,,,,,
,,,,,,5cabf58293e29a0016018c30,62bbfac6b1da8ea619ee871c,2022-06-29_09h11.52,Colour_Asymmetry_Pilot,2022.1.3,MacIntel,58.82352941,62bbe60bf3d75ef465d3e404,0,35,35,116,1,threeone,,,,,,,,,,,,,,,,,,,,,,,,,,,,,,,,,,,,,,,,,,,,,,,,,,,,,,,,,,,,,,,,,,,,,,,,,,,,,,,,,,,,,,,,,,,,,,,,,,,,,,,,,,,,,,,,,,,,,,,,,,,,,,,,,,,,,,,,,,,,,,,,,,,,,,,,
,,,,,,5cabf58293e29a0016018c30,62bbfac6b1da8ea619ee871c,2022-06-29_09h11.52,Colour_Asymmetry_Pilot,2022.1.3,MacIntel,58.82352941,62bbe60bf3d75ef465d3e404,0,36,36,150,1,fourtwo,,,,,,,,,,,,,,,,,,,,,,,,,,,,,,,,,,,,,,,,,,,,,,,,,,,,,,,,,,,,,,,,,,,,,,,,,,,,,,,,,,,,,,,,,,,,,,,,,,,,,,,,,,,,,,,,,,,,,,,,,,,,,,,,,,,,,,,,,,,,,,,,,,,,,,,,
,,,,,,5cabf58293e29a0016018c30,62bbfac6b1da8ea619ee871c,2022-06-29_09h11.52,Colour_Asymmetry_Pilot,2022.1.3,MacIntel,58.82352941,62bbe60bf3d75ef465d3e404,0,37,37,126,1,fourtwo,,,,,,,,,,,,,,,,,,,,,,,,,,,,,,,,,,,,,,,,,,,,,,,,,,,,,,,,,,,,,,,,,,,,,,,,,,,,,,,,,,,,,,,,,,,,,,,,,,,,,,,,,,,,,,,,,,,,,,,,,,,,,,,,,,,,,,,,,,,,,,,,,,,,,,,,
,,,,,,5cabf58293e29a0016018c30,62bbfac6b1da8ea619ee871c,2022-06-29_09h11.52,Colour_Asymmetry_Pilot,2022.1.3,MacIntel,58.82352941,62bbe60bf3d75ef465d3e404,0,38,38,161,1,onethree,,,,,,,,,,,,,,,,,,,,,,,,,,,,,,,,,,,,,,,,,,,,,,,,,,,,,,,,,,,,,,,,,,,,,,,,,,,,,,,,,,,,,,,,,,,,,,,,,,,,,,,,,,,,,,,,,,,,,,,,,,,,,,,,,,,,,,,,,,,,,,,,,,,,,,,,
,,,,,,5cabf58293e29a0016018c30,62bbfac6b1da8ea619ee871c,2022-06-29_09h11.52,Colour_Asymmetry_Pilot,2022.1.3,MacIntel,58.82352941,62bbe60bf3d75ef465d3e404,0,39,39,2,1,twoone,,,,,,,,,,,,,,,,,,,,,,,,,,,,,,,,,,,,,,,,,,,,,,,,,,,,,,,,,,,,,,,,,,,,,,,,,,,,,,,,,,,,,,,,,,,,,,,,,,,,,,,,,,,,,,,,,,,,,,,,,,,,,,,,,,,,,,,,,,,,,,,,,,,,,,,,
,,,,,,5cabf58293e29a0016018c30,62bbfac6b1da8ea619ee871c,2022-06-29_09h11.52,Colour_Asymmetry_Pilot,2022.1.3,MacIntel,58.82352941,62bbe60bf3d75ef465d3e404,0,40,40,158,1,fourtwo,,,,,,,,,,,,,,,,,,,,,,,,,,,,,,,,,,,,,,,,,,,,,,,,,,,,,,,,,,,,,,,,,,,,,,,,,,,,,,,,,,,,,,,,,,,,,,,,,,,,,,,,,,,,,,,,,,,,,,,,,,,,,,,,,,,,,,,,,,,,,,,,,,,,,,,,
,,,,,,5cabf58293e29a0016018c30,62bbfac6b1da8ea619ee871c,2022-06-29_09h11.52,Colour_Asymmetry_Pilot,2022.1.3,MacIntel,58.82352941,62bbe60bf3d75ef465d3e404,0,41,41,160,1,onetwo,,,,,,,,,,,,,,,,,,,,,,,,,,,,,,,,,,,,,,,,,,,,,,,,,,,,,,,,,,,,,,,,,,,,,,,,,,,,,,,,,,,,,,,,,,,,,,,,,,,,,,,,,,,,,,,,,,,,,,,,,,,,,,,,,,,,,,,,,,,,,,,,,,,,,,,,
,,,,,,5cabf58293e29a0016018c30,62bbfac6b1da8ea619ee871c,2022-06-29_09h11.52,Colour_Asymmetry_Pilot,2022.1.3,MacIntel,58.82352941,62bbe60bf3d75ef465d3e404,0,42,42,44,1,threeone,,,,,,,,,,,,,,,,,,,,,,,,,,,,,,,,,,,,,,,,,,,,,,,,,,,,,,,,,,,,,,,,,,,,,,,,,,,,,,,,,,,,,,,,,,,,,,,,,,,,,,,,,,,,,,,,,,,,,,,,,,,,,,,,,,,,,,,,,,,,,,,,,,,,,,,,
,,,,,,5cabf58293e29a0016018c30,62bbfac6b1da8ea619ee871c,2022-06-29_09h11.52,Colour_Asymmetry_Pilot,2022.1.3,MacIntel,58.82352941,62bbe60bf3d75ef465d3e404,0,43,43,135,1,fourthree,,,,,,,,,,,,,,,,,,,,,,,,,,,,,,,,,,,,,,,,,,,,,,,,,,,,,,,,,,,,,,,,,,,,,,,,,,,,,,,,,,,,,,,,,,,,,,,,,,,,,,,,,,,,,,,,,,,,,,,,,,,,,,,,,,,,,,,,,,,,,,,,,,,,,,,,
,,,,,,5cabf58293e29a0016018c30,62bbfac6b1da8ea619ee871c,2022-06-29_09h11.52,Colour_Asymmetry_Pilot,2022.1.3,MacIntel,58.82352941,62bbe60bf3d75ef465d3e404,0,44,44,29,1,threefour,,,,,,,,,,,,,,,,,,,,,,,,,,,,,,,,,,,,,,,,,,,,,,,,,,,,,,,,,,,,,,,,,,,,,,,,,,,,,,,,,,,,,,,,,,,,,,,,,,,,,,,,,,,,,,,,,,,,,,,,,,,,,,,,,,,,,,,,,,,,,,,,,,,,,,,,
,,,,,,5cabf58293e29a0016018c30,62bbfac6b1da8ea619ee871c,2022-06-29_09h11.52,Colour_Asymmetry_Pilot,2022.1.3,MacIntel,58.82352941,62bbe60bf3d75ef465d3e404,0,45,45,143,1,fourthree,,,,,,,,,,,,,,,,,,,,,,,,,,,,,,,,,,,,,,,,,,,,,,,,,,,,,,,,,,,,,,,,,,,,,,,,,,,,,,,,,,,,,,,,,,,,,,,,,,,,,,,,,,,,,,,,,,,,,,,,,,,,,,,,,,,,,,,,,,,,,,,,,,,,,,,,
,,,,,,5cabf58293e29a0016018c30,62bbfac6b1da8ea619ee871c,2022-06-29_09h11.52,Colour_Asymmetry_Pilot,2022.1.3,MacIntel,58.82352941,62bbe60bf3d75ef465d3e404,0,46,46,104,1,onetwo,,,,,,,,,,,,,,,,,,,,,,,,,,,,,,,,,,,,,,,,,,,,,,,,,,,,,,,,,,,,,,,,,,,,,,,,,,,,,,,,,,,,,,,,,,,,,,,,,,,,,,,,,,,,,,,,,,,,,,,,,,,,,,,,,,,,,,,,,,,,,,,,,,,,,,,,
,,,,,,5cabf58293e29a0016018c30,62bbfac6b1da8ea619ee871c,2022-06-29_09h11.52,Colour_Asymmetry_Pilot,2022.1.3,MacIntel,58.82352941,62bbe60bf3d75ef465d3e404,0,47,47,129,1,onethree,,,,,,,,,,,,,,,,,,,,,,,,,,,,,,,,,,,,,,,,,,,,,,,,,,,,,,,,,,,,,,,,,,,,,,,,,,,,,,,,,,,,,,,,,,,,,,,,,,,,,,,,,,,,,,,,,,,,,,,,,,,,,,,,,,,,,,,,,,,,,,,,,,,,,,,,
,,,,,,5cabf58293e29a0016018c30,62bbfac6b1da8ea619ee871c,2022-06-29_09h11.52,Colour_Asymmetry_Pilot,2022.1.3,MacIntel,58.82352941,62bbe60bf3d75ef465d3e404,0,48,48,71,1,fourthree,,,,,,,,,,,,,,,,,,,,,,,,,,,,,,,,,,,,,,,,,,,,,,,,,,,,,,,,,,,,,,,,,,,,,,,,,,,,,,,,,,,,,,,,,,,,,,,,,,,,,,,,,,,,,,,,,,,,,,,,,,,,,,,,,,,,,,,,,,,,,,,,,,,,,,,,
,,,,,,5cabf58293e29a0016018c30,62bbfac6b1da8ea619ee871c,2022-06-29_09h11.52,Colour_Asymmetry_Pilot,2022.1.3,MacIntel,58.82352941,62bbe60bf3d75ef465d3e404,0,49,49,121,1,onethree,,,,,,,,,,,,,,,,,,,,,,,,,,,,,,,,,,,,,,,,,,,,,,,,,,,,,,,,,,,,,,,,,,,,,,,,,,,,,,,,,,,,,,,,,,,,,,,,,,,,,,,,,,,,,,,,,,,,,,,,,,,,,,,,,,,,,,,,,,,,,,,,,,,,,,,,
,,,,,,5cabf58293e29a0016018c30,62bbfac6b1da8ea619ee871c,2022-06-29_09h11.52,Colour_Asymmetry_Pilot,2022.1.3,MacIntel,58.82352941,62bbe60bf3d75ef465d3e404,0,50,50,100,1,threeone,,,,,,,,,,,,,,,,,,,,,,,,,,,,,,,,,,,,,,,,,,,,,,,,,,,,,,,,,,,,,,,,,,,,,,,,,,,,,,,,,,,,,,,,,,,,,,,,,,,,,,,,,,,,,,,,,,,,,,,,,,,,,,,,,,,,,,,,,,,,,,,,,,,,,,,,
,,,,,,5cabf58293e29a0016018c30,62bbfac6b1da8ea619ee871c,2022-06-29_09h11.52,Colour_Asymmetry_Pilot,2022.1.3,MacIntel,58.82352941,62bbe60bf3d75ef465d3e404,0,51,51,17,1,onethree,,,,,,,,,,,,,,,,,,,,,,,,,,,,,,,,,,,,,,,,,,,,,,,,,,,,,,,,,,,,,,,,,,,,,,,,,,,,,,,,,,,,,,,,,,,,,,,,,,,,,,,,,,,,,,,,,,,,,,,,,,,,,,,,,,,,,,,,,,,,,,,,,,,,,,,,
,,,,,,5cabf58293e29a0016018c30,62bbfac6b1da8ea619ee871c,2022-06-29_09h11.52,Colour_Asymmetry_Pilot,2022.1.3,MacIntel,58.82352941,62bbe60bf3d75ef465d3e404,0,52,52,154,1,twoone,,,,,,,,,,,,,,,,,,,,,,,,,,,,,,,,,,,,,,,,,,,,,,,,,,,,,,,,,,,,,,,,,,,,,,,,,,,,,,,,,,,,,,,,,,,,,,,,,,,,,,,,,,,,,,,,,,,,,,,,,,,,,,,,,,,,,,,,,,,,,,,,,,,,,,,,
,,,,,,5cabf58293e29a0016018c30,62bbfac6b1da8ea619ee871c,2022-06-29_09h11.52,Colour_Asymmetry_Pilot,2022.1.3,MacIntel,58.82352941,62bbe60bf3d75ef465d3e404,0,53,53,54,1,fourtwo,,,,,,,,,,,,,,,,,,,,,,,,,,,,,,,,,,,,,,,,,,,,,,,,,,,,,,,,,,,,,,,,,,,,,,,,,,,,,,,,,,,,,,,,,,,,,,,,,,,,,,,,,,,,,,,,,,,,,,,,,,,,,,,,,,,,,,,,,,,,,,,,,,,,,,,,
,,,,,,5cabf58293e29a0016018c30,62bbfac6b1da8ea619ee871c,2022-06-29_09h11.52,Colour_Asymmetry_Pilot,2022.1.3,MacIntel,58.82352941,62bbe60bf3d75ef465d3e404,0,54,54,152,1,onetwo,,,,,,,,,,,,,,,,,,,,,,,,,,,,,,,,,,,,,,,,,,,,,,,,,,,,,,,,,,,,,,,,,,,,,,,,,,,,,,,,,,,,,,,,,,,,,,,,,,,,,,,,,,,,,,,,,,,,,,,,,,,,,,,,,,,,,,,,,,,,,,,,,,,,,,,,
,,,,,,5cabf58293e29a0016018c30,62bbfac6b1da8ea619ee871c,2022-06-29_09h11.52,Colour_Asymmetry_Pilot,2022.1.3,MacIntel,58.82352941,62bbe60bf3d75ef465d3e404,0,55,55,11,1,twofour,,,,,,,,,,,,,,,,,,,,,,,,,,,,,,,,,,,,,,,,,,,,,,,,,,,,,,,,,,,,,,,,,,,,,,,,,,,,,,,,,,,,,,,,,,,,,,,,,,,,,,,,,,,,,,,,,,,,,,,,,,,,,,,,,,,,,,,,,,,,,,,,,,,,,,,,
,,,,,,5cabf58293e29a0016018c30,62bbfac6b1da8ea619ee871c,2022-06-29_09h11.52,Colour_Asymmetry_Pilot,2022.1.3,MacIntel,58.82352941,62bbe60bf3d75ef465d3e404,0,56,56,132,1,threeone,,,,,,,,,,,,,,,,,,,,,,,,,,,,,,,,,,,,,,,,,,,,,,,,,,,,,,,,,,,,,,,,,,,,,,,,,,,,,,,,,,,,,,,,,,,,,,,,,,,,,,,,,,,,,,,,,,,,,,,,,,,,,,,,,,,,,,,,,,,,,,,,,,,,,,,,
,,,,,,5cabf58293e29a0016018c30,62bbfac6b1da8ea619ee871c,2022-06-29_09h11.52,Colour_Asymmetry_Pilot,2022.1.3,MacIntel,58.82352941,62bbe60bf3d75ef465d3e404,0,57,57,13,1,threefour,,,,,,,,,,,,,,,,,,,,,,,,,,,,,,,,,,,,,,,,,,,,,,,,,,,,,,,,,,,,,,,,,,,,,,,,,,,,,,,,,,,,,,,,,,,,,,,,,,,,,,,,,,,,,,,,,,,,,,,,,,,,,,,,,,,,,,,,,,,,,,,,,,,,,,,,
,,,,,,5cabf58293e29a0016018c30,62bbfac6b1da8ea619ee871c,2022-06-29_09h11.52,Colour_Asymmetry_Pilot,2022.1.3,MacIntel,58.82352941,62bbe60bf3d75ef465d3e404,0,58,58,66,1,twoone,,,,,,,,,,,,,,,,,,,,,,,,,,,,,,,,,,,,,,,,,,,,,,,,,,,,,,,,,,,,,,,,,,,,,,,,,,,,,,,,,,,,,,,,,,,,,,,,,,,,,,,,,,,,,,,,,,,,,,,,,,,,,,,,,,,,,,,,,,,,,,,,,,,,,,,,
,,,,,,5cabf58293e29a0016018c30,62bbfac6b1da8ea619ee871c,2022-06-29_09h11.52,Colour_Asymmetry_Pilot,2022.1.3,MacIntel,58.82352941,62bbe60bf3d75ef465d3e404,0,59,59,80,1,onetwo,,,,,,,,,,,,,,,,,,,,,,,,,,,,,,,,,,,,,,,,,,,,,,,,,,,,,,,,,,,,,,,,,,,,,,,,,,,,,,,,,,,,,,,,,,,,,,,,,,,,,,,,,,,,,,,,,,,,,,,,,,,,,,,,,,,,,,,,,,,,,,,,,,,,,,,,
,,,,,,5cabf58293e29a0016018c30,62bbfac6b1da8ea619ee871c,2022-06-29_09h11.52,Colour_Asymmetry_Pilot,2022.1.3,MacIntel,58.82352941,62bbe60bf3d75ef465d3e404,0,60,60,9,1,onethree,,,,,,,,,,,,,,,,,,,,,,,,,,,,,,,,,,,,,,,,,,,,,,,,,,,,,,,,,,,,,,,,,,,,,,,,,,,,,,,,,,,,,,,,,,,,,,,,,,,,,,,,,,,,,,,,,,,,,,,,,,,,,,,,,,,,,,,,,,,,,,,,,,,,,,,,
,,,,,,5cabf58293e29a0016018c30,62bbfac6b1da8ea619ee871c,2022-06-29_09h11.52,Colour_Asymmetry_Pilot,2022.1.3,MacIntel,58.82352941,62bbe60bf3d75ef465d3e404,0,61,61,103,1,fourthree,,,,,,,,,,,,,,,,,,,,,,,,,,,,,,,,,,,,,,,,,,,,,,,,,,,,,,,,,,,,,,,,,,,,,,,,,,,,,,,,,,,,,,,,,,,,,,,,,,,,,,,,,,,,,,,,,,,,,,,,,,,,,,,,,,,,,,,,,,,,,,,,,,,,,,,,
,,,,,,5cabf58293e29a0016018c30,62bbfac6b1da8ea619ee871c,2022-06-29_09h11.52,Colour_Asymmetry_Pilot,2022.1.3,MacIntel,58.82352941,62bbe60bf3d75ef465d3e404,0,62,62,87,1,fourthree,,,,,,,,,,,,,,,,,,,,,,,,,,,,,,,,,,,,,,,,,,,,,,,,,,,,,,,,,,,,,,,,,,,,,,,,,,,,,,,,,,,,,,,,,,,,,,,,,,,,,,,,,,,,,,,,,,,,,,,,,,,,,,,,,,,,,,,,,,,,,,,,,,,,,,,,
,,,,,,5cabf58293e29a0016018c30,62bbfac6b1da8ea619ee871c,2022-06-29_09h11.52,Colour_Asymmetry_Pilot,2022.1.3,MacIntel,58.82352941,62bbe60bf3d75ef465d3e404,0,63,63,25,1,onethree,,,,,,,,,,,,,,,,,,,,,,,,,,,,,,,,,,,,,,,,,,,,,,,,,,,,,,,,,,,,,,,,,,,,,,,,,,,,,,,,,,,,,,,,,,,,,,,,,,,,,,,,,,,,,,,,,,,,,,,,,,,,,,,,,,,,,,,,,,,,,,,,,,,,,,,,
,,,,,,5cabf58293e29a0016018c30,62bbfac6b1da8ea619ee871c,2022-06-29_09h11.52,Colour_Asymmetry_Pilot,2022.1.3,MacIntel,58.82352941,62bbe60bf3d75ef465d3e404,0,64,64,28,1,threeone,,,,,,,,,,,,,,,,,,,,,,,,,,,,,,,,,,,,,,,,,,,,,,,,,,,,,,,,,,,,,,,,,,,,,,,,,,,,,,,,,,,,,,,,,,,,,,,,,,,,,,,,,,,,,,,,,,,,,,,,,,,,,,,,,,,,,,,,,,,,,,,,,,,,,,,,
,,,,,,5cabf58293e29a0016018c30,62bbfac6b1da8ea619ee871c,2022-06-29_09h11.52,Colour_Asymmetry_Pilot,2022.1.3,MacIntel,58.82352941,62bbe60bf3d75ef465d3e404,0,65,65,95,1,fourthree,,,,,,,,,,,,,,,,,,,,,,,,,,,,,,,,,,,,,,,,,,,,,,,,,,,,,,,,,,,,,,,,,,,,,,,,,,,,,,,,,,,,,,,,,,,,,,,,,,,,,,,,,,,,,,,,,,,,,,,,,,,,,,,,,,,,,,,,,,,,,,,,,,,,,,,,
,,,,,,5cabf58293e29a0016018c30,62bbfac6b1da8ea619ee871c,2022-06-29_09h11.52,Colour_Asymmetry_Pilot,2022.1.3,MacIntel,58.82352941,62bbe60bf3d75ef465d3e404,0,66,66,78,1,fourtwo,,,,,,,,,,,,,,,,,,,,,,,,,,,,,,,,,,,,,,,,,,,,,,,,,,,,,,,,,,,,,,,,,,,,,,,,,,,,,,,,,,,,,,,,,,,,,,,,,,,,,,,,,,,,,,,,,,,,,,,,,,,,,,,,,,,,,,,,,,,,,,,,,,,,,,,,
,,,,,,5cabf58293e29a0016018c30,62bbfac6b1da8ea619ee871c,2022-06-29_09h11.52,Colour_Asymmetry_Pilot,2022.1.3,MacIntel,58.82352941,62bbe60bf3d75ef465d3e404,0,67,67,108,1,threeone,,,,,,,,,,,,,,,,,,,,,,,,,,,,,,,,,,,,,,,,,,,,,,,,,,,,,,,,,,,,,,,,,,,,,,,,,,,,,,,,,,,,,,,,,,,,,,,,,,,,,,,,,,,,,,,,,,,,,,,,,,,,,,,,,,,,,,,,,,,,,,,,,,,,,,,,
,,,,,,5cabf58293e29a0016018c30,62bbfac6b1da8ea619ee871c,2022-06-29_09h11.52,Colour_Asymmetry_Pilot,2022.1.3,MacIntel,58.82352941,62bbe60bf3d75ef465d3e404,0,68,68,38,1,fourtwo,,,,,,,,,,,,,,,,,,,,,,,,,,,,,,,,,,,,,,,,,,,,,,,,,,,,,,,,,,,,,,,,,,,,,,,,,,,,,,,,,,,,,,,,,,,,,,,,,,,,,,,,,,,,,,,,,,,,,,,,,,,,,,,,,,,,,,,,,,,,,,,,,,,,,,,,
,,,,,,5cabf58293e29a0016018c30,62bbfac6b1da8ea619ee871c,2022-06-29_09h11.52,Colour_Asymmetry_Pilot,2022.1.3,MacIntel,58.82352941,62bbe60bf3d75ef465d3e404,0,69,69,31,1,fourthree,,,,,,,,,,,,,,,,,,,,,,,,,,,,,,,,,,,,,,,,,,,,,,,,,,,,,,,,,,,,,,,,,,,,,,,,,,,,,,,,,,,,,,,,,,,,,,,,,,,,,,,,,,,,,,,,,,,,,,,,,,,,,,,,,,,,,,,,,,,,,,,,,,,,,,,,
,,,,,,5cabf58293e29a0016018c30,62bbfac6b1da8ea619ee871c,2022-06-29_09h11.52,Colour_Asymmetry_Pilot,2022.1.3,MacIntel,58.82352941,62bbe60bf3d75ef465d3e404,0,70,70,19,1,twofour,,,,,,,,,,,,,,,,,,,,,,,,,,,,,,,,,,,,,,,,,,,,,,,,,,,,,,,,,,,,,,,,,,,,,,,,,,,,,,,,,,,,,,,,,,,,,,,,,,,,,,,,,,,,,,,,,,,,,,,,,,,,,,,,,,,,,,,,,,,,,,,,,,,,,,,,
,,,,,,5cabf58293e29a0016018c30,62bbfac6b1da8ea619ee871c,2022-06-29_09h11.52,Colour_Asymmetry_Pilot,2022.1.3,MacIntel,58.82352941,62bbe60bf3d75ef465d3e404,0,71,71,20,1,threeone,,,,,,,,,,,,,,,,,,,,,,,,,,,,,,,,,,,,,,,,,,,,,,,,,,,,,,,,,,,,,,,,,,,,,,,,,,,,,,,,,,,,,,,,,,,,,,,,,,,,,,,,,,,,,,,,,,,,,,,,,,,,,,,,,,,,,,,,,,,,,,,,,,,,,,,,
,,,,,,5cabf58293e29a0016018c30,62bbfac6b1da8ea619ee871c,2022-06-29_09h11.52,Colour_Asymmetry_Pilot,2022.1.3,MacIntel,58.82352941,62bbe60bf3d75ef465d3e404,0,72,72,111,1,fourthree,,,,,,,,,,,,,,,,,,,,,,,,,,,,,,,,,,,,,,,,,,,,,,,,,,,,,,,,,,,,,,,,,,,,,,,,,,,,,,,,,,,,,,,,,,,,,,,,,,,,,,,,,,,,,,,,,,,,,,,,,,,,,,,,,,,,,,,,,,,,,,,,,,,,,,,,
,,,,,,5cabf58293e29a0016018c30,62bbfac6b1da8ea619ee871c,2022-06-29_09h11.52,Colour_Asymmetry_Pilot,2022.1.3,MacIntel,58.82352941,62bbe60bf3d75ef465d3e404,0,73,73,136,1,onetwo,,,,,,,,,,,,,,,,,,,,,,,,,,,,,,,,,,,,,,,,,,,,,,,,,,,,,,,,,,,,,,,,,,,,,,,,,,,,,,,,,,,,,,,,,,,,,,,,,,,,,,,,,,,,,,,,,,,,,,,,,,,,,,,,,,,,,,,,,,,,,,,,,,,,,,,,
,,,,,,5cabf58293e29a0016018c30,62bbfac6b1da8ea619ee871c,2022-06-29_09h11.52,Colour_Asymmetry_Pilot,2022.1.3,MacIntel,58.82352941,62bbe60bf3d75ef465d3e404,0,74,74,115,1,twofour,,,,,,,,,,,,,,,,,,,,,,,,,,,,,,,,,,,,,,,,,,,,,,,,,,,,,,,,,,,,,,,,,,,,,,,,,,,,,,,,,,,,,,,,,,,,,,,,,,,,,,,,,,,,,,,,,,,,,,,,,,,,,,,,,,,,,,,,,,,,,,,,,,,,,,,,
,,,,,,5cabf58293e29a0016018c30,62bbfac6b1da8ea619ee871c,2022-06-29_09h11.52,Colour_Asymmetry_Pilot,2022.1.3,MacIntel,58.82352941,62bbe60bf3d75ef465d3e404,0,75,75,102,1,fourtwo,,,,,,,,,,,,,,,,,,,,,,,,,,,,,,,,,,,,,,,,,,,,,,,,,,,,,,,,,,,,,,,,,,,,,,,,,,,,,,,,,,,,,,,,,,,,,,,,,,,,,,,,,,,,,,,,,,,,,,,,,,,,,,,,,,,,,,,,,,,,,,,,,,,,,,,,
,,,,,,5cabf58293e29a0016018c30,62bbfac6b1da8ea619ee871c,2022-06-29_09h11.52,Colour_Asymmetry_Pilot,2022.1.3,MacIntel,58.82352941,62bbe60bf3d75ef465d3e404,0,76,76,55,1,fourthree,,,,,,,,,,,,,,,,,,,,,,,,,,,,,,,,,,,,,,,,,,,,,,,,,,,,,,,,,,,,,,,,,,,,,,,,,,,,,,,,,,,,,,,,,,,,,,,,,,,,,,,,,,,,,,,,,,,,,,,,,,,,,,,,,,,,,,,,,,,,,,,,,,,,,,,,
,,,,,,5cabf58293e29a0016018c30,62bbfac6b1da8ea619ee871c,2022-06-29_09h11.52,Colour_Asymmetry_Pilot,2022.1.3,MacIntel,58.82352941,62bbe60bf3d75ef465d3e404,0,77,77,21,1,threefour,,,,,,,,,,,,,,,,,,,,,,,,,,,,,,,,,,,,,,,,,,,,,,,,,,,,,,,,,,,,,,,,,,,,,,,,,,,,,,,,,,,,,,,,,,,,,,,,,,,,,,,,,,,,,,,,,,,,,,,,,,,,,,,,,,,,,,,,,,,,,,,,,,,,,,,,
,,,,,,5cabf58293e29a0016018c30,62bbfac6b1da8ea619ee871c,2022-06-29_09h11.52,Colour_Asymmetry_Pilot,2022.1.3,MacIntel,58.82352941,62bbe60bf3d75ef465d3e404,0,78,78,45,1,threefour,,,,,,,,,,,,,,,,,,,,,,,,,,,,,,,,,,,,,,,,,,,,,,,,,,,,,,,,,,,,,,,,,,,,,,,,,,,,,,,,,,,,,,,,,,,,,,,,,,,,,,,,,,,,,,,,,,,,,,,,,,,,,,,,,,,,,,,,,,,,,,,,,,,,,,,,
,,,,,,5cabf58293e29a0016018c30,62bbfac6b1da8ea619ee871c,2022-06-29_09h11.52,Colour_Asymmetry_Pilot,2022.1.3,MacIntel,58.82352941,62bbe60bf3d75ef465d3e404,0,79,79,62,1,fourtwo,,,,,,,,,,,,,,,,,,,,,,,,,,,,,,,,,,,,,,,,,,,,,,,,,,,,,,,,,,,,,,,,,,,,,,,,,,,,,,,,,,,,,,,,,,,,,,,,,,,,,,,,,,,,,,,,,,,,,,,,,,,,,,,,,,,,,,,,,,,,,,,,,,,,,,,,
,,,,,,5cabf58293e29a0016018c30,62bbfac6b1da8ea619ee871c,2022-06-29_09h11.52,Colour_Asymmetry_Pilot,2022.1.3,MacIntel,58.82352941,62bbe60bf3d75ef465d3e404,0,80,80,119,1,fourthree,,,,,,,,,,,,,,,,,,,,,,,,,,,,,,,,,,,,,,,,,,,,,,,,,,,,,,,,,,,,,,,,,,,,,,,,,,,,,,,,,,,,,,,,,,,,,,,,,,,,,,,,,,,,,,,,,,,,,,,,,,,,,,,,,,,,,,,,,,,,,,,,,,,,,,,,
,,,,,,5cabf58293e29a0016018c30,62bbfac6b1da8ea619ee871c,2022-06-29_09h11.52,Colour_Asymmetry_Pilot,2022.1.3,MacIntel,58.82352941,62bbe60bf3d75ef465d3e404,0,81,81,90,1,twoone,,,,,,,,,,,,,,,,,,,,,,,,,,,,,,,,,,,,,,,,,,,,,,,,,,,,,,,,,,,,,,,,,,,,,,,,,,,,,,,,,,,,,,,,,,,,,,,,,,,,,,,,,,,,,,,,,,,,,,,,,,,,,,,,,,,,,,,,,,,,,,,,,,,,,,,,
,,,,,,5cabf58293e29a0016018c30,62bbfac6b1da8ea619ee871c,2022-06-29_09h11.52,Colour_Asymmetry_Pilot,2022.1.3,MacIntel,58.82352941,62bbe60bf3d75ef465d3e404,0,82,82,156,1,threeone,,,,,,,,,,,,,,,,,,,,,,,,,,,,,,,,,,,,,,,,,,,,,,,,,,,,,,,,,,,,,,,,,,,,,,,,,,,,,,,,,,,,,,,,,,,,,,,,,,,,,,,,,,,,,,,,,,,,,,,,,,,,,,,,,,,,,,,,,,,,,,,,,,,,,,,,
,,,,,,5cabf58293e29a0016018c30,62bbfac6b1da8ea619ee871c,2022-06-29_09h11.52,Colour_Asymmetry_Pilot,2022.1.3,MacIntel,58.82352941,62bbe60bf3d75ef465d3e404,0,83,83,147,1,twofour,,,,,,,,,,,,,,,,,,,,,,,,,,,,,,,,,,,,,,,,,,,,,,,,,,,,,,,,,,,,,,,,,,,,,,,,,,,,,,,,,,,,,,,,,,,,,,,,,,,,,,,,,,,,,,,,,,,,,,,,,,,,,,,,,,,,,,,,,,,,,,,,,,,,,,,,
,,,,,,5cabf58293e29a0016018c30,62bbfac6b1da8ea619ee871c,2022-06-29_09h11.52,Colour_Asymmetry_Pilot,2022.1.3,MacIntel,58.82352941,62bbe60bf3d75ef465d3e404,0,84,84,84,1,threeone,,,,,,,,,,,,,,,,,,,,,,,,,,,,,,,,,,,,,,,,,,,,,,,,,,,,,,,,,,,,,,,,,,,,,,,,,,,,,,,,,,,,,,,,,,,,,,,,,,,,,,,,,,,,,,,,,,,,,,,,,,,,,,,,,,,,,,,,,,,,,,,,,,,,,,,,
,,,,,,5cabf58293e29a0016018c30,62bbfac6b1da8ea619ee871c,2022-06-29_09h11.52,Colour_Asymmetry_Pilot,2022.1.3,MacIntel,58.82352941,62bbe60bf3d75ef465d3e404,0,85,85,106,1,twoone,,,,,,,,,,,,,,,,,,,,,,,,,,,,,,,,,,,,,,,,,,,,,,,,,,,,,,,,,,,,,,,,,,,,,,,,,,,,,,,,,,,,,,,,,,,,,,,,,,,,,,,,,,,,,,,,,,,,,,,,,,,,,,,,,,,,,,,,,,,,,,,,,,,,,,,,
,,,,,,5cabf58293e29a0016018c30,62bbfac6b1da8ea619ee871c,2022-06-29_09h11.52,Colour_Asymmetry_Pilot,2022.1.3,MacIntel,58.82352941,62bbe60bf3d75ef465d3e404,0,86,86,113,1,onethree,,,,,,,,,,,,,,,,,,,,,,,,,,,,,,,,,,,,,,,,,,,,,,,,,,,,,,,,,,,,,,,,,,,,,,,,,,,,,,,,,,,,,,,,,,,,,,,,,,,,,,,,,,,,,,,,,,,,,,,,,,,,,,,,,,,,,,,,,,,,,,,,,,,,,,,,
,,,,,,5cabf58293e29a0016018c30,62bbfac6b1da8ea619ee871c,2022-06-29_09h11.52,Colour_Asymmetry_Pilot,2022.1.3,MacIntel,58.82352941,62bbe60bf3d75ef465d3e404,0,87,87,148,1,threeone,,,,,,,,,,,,,,,,,,,,,,,,,,,,,,,,,,,,,,,,,,,,,,,,,,,,,,,,,,,,,,,,,,,,,,,,,,,,,,,,,,,,,,,,,,,,,,,,,,,,,,,,,,,,,,,,,,,,,,,,,,,,,,,,,,,,,,,,,,,,,,,,,,,,,,,,
,,,,,,5cabf58293e29a0016018c30,62bbfac6b1da8ea619ee871c,2022-06-29_09h11.52,Colour_Asymmetry_Pilot,2022.1.3,MacIntel,58.82352941,62bbe60bf3d75ef465d3e404,0,88,88,74,1,twoone,,,,,,,,,,,,,,,,,,,,,,,,,,,,,,,,,,,,,,,,,,,,,,,,,,,,,,,,,,,,,,,,,,,,,,,,,,,,,,,,,,,,,,,,,,,,,,,,,,,,,,,,,,,,,,,,,,,,,,,,,,,,,,,,,,,,,,,,,,,,,,,,,,,,,,,,
,,,,,,5cabf58293e29a0016018c30,62bbfac6b1da8ea619ee871c,2022-06-29_09h11.52,Colour_Asymmetry_Pilot,2022.1.3,MacIntel,58.82352941,62bbe60bf3d75ef465d3e404,0,89,89,112,1,onetwo,,,,,,,,,,,,,,,,,,,,,,,,,,,,,,,,,,,,,,,,,,,,,,,,,,,,,,,,,,,,,,,,,,,,,,,,,,,,,,,,,,,,,,,,,,,,,,,,,,,,,,,,,,,,,,,,,,,,,,,,,,,,,,,,,,,,,,,,,,,,,,,,,,,,,,,,
,,,,,,5cabf58293e29a0016018c30,62bbfac6b1da8ea619ee871c,2022-06-29_09h11.52,Colour_Asymmetry_Pilot,2022.1.3,MacIntel,58.82352941,62bbe60bf3d75ef465d3e404,0,90,90,64,1,onetwo,,,,,,,,,,,,,,,,,,,,,,,,,,,,,,,,,,,,,,,,,,,,,,,,,,,,,,,,,,,,,,,,,,,,,,,,,,,,,,,,,,,,,,,,,,,,,,,,,,,,,,,,,,,,,,,,,,,,,,,,,,,,,,,,,,,,,,,,,,,,,,,,,,,,,,,,
,,,,,,5cabf58293e29a0016018c30,62bbfac6b1da8ea619ee871c,2022-06-29_09h11.52,Colour_Asymmetry_Pilot,2022.1.3,MacIntel,58.82352941,62bbe60bf3d75ef465d3e404,0,91,91,117,1,threefour,,,,,,,,,,,,,,,,,,,,,,,,,,,,,,,,,,,,,,,,,,,,,,,,,,,,,,,,,,,,,,,,,,,,,,,,,,,,,,,,,,,,,,,,,,,,,,,,,,,,,,,,,,,,,,,,,,,,,,,,,,,,,,,,,,,,,,,,,,,,,,,,,,,,,,,,
,,,,,,5cabf58293e29a0016018c30,62bbfac6b1da8ea619ee871c,2022-06-29_09h11.52,Colour_Asymmetry_Pilot,2022.1.3,MacIntel,58.82352941,62bbe60bf3d75ef465d3e404,0,92,92,36,1,threeone,,,,,,,,,,,,,,,,,,,,,,,,,,,,,,,,,,,,,,,,,,,,,,,,,,,,,,,,,,,,,,,,,,,,,,,,,,,,,,,,,,,,,,,,,,,,,,,,,,,,,,,,,,,,,,,,,,,,,,,,,,,,,,,,,,,,,,,,,,,,,,,,,,,,,,,,
,,,,,,5cabf58293e29a0016018c30,62bbfac6b1da8ea619ee871c,2022-06-29_09h11.52,Colour_Asymmetry_Pilot,2022.1.3,MacIntel,58.82352941,62bbe60bf3d75ef465d3e404,0,93,93,110,1,fourtwo,,,,,,,,,,,,,,,,,,,,,,,,,,,,,,,,,,,,,,,,,,,,,,,,,,,,,,,,,,,,,,,,,,,,,,,,,,,,,,,,,,,,,,,,,,,,,,,,,,,,,,,,,,,,,,,,,,,,,,,,,,,,,,,,,,,,,,,,,,,,,,,,,,,,,,,,
,,,,,,5cabf58293e29a0016018c30,62bbfac6b1da8ea619ee871c,2022-06-29_09h11.52,Colour_Asymmetry_Pilot,2022.1.3,MacIntel,58.82352941,62bbe60bf3d75ef465d3e404,0,94,94,68,1,threeone,,,,,,,,,,,,,,,,,,,,,,,,,,,,,,,,,,,,,,,,,,,,,,,,,,,,,,,,,,,,,,,,,,,,,,,,,,,,,,,,,,,,,,,,,,,,,,,,,,,,,,,,,,,,,,,,,,,,,,,,,,,,,,,,,,,,,,,,,,,,,,,,,,,,,,,,
,,,,,,5cabf58293e29a0016018c30,62bbfac6b1da8ea619ee871c,2022-06-29_09h11.52,Colour_Asymmetry_Pilot,2022.1.3,MacIntel,58.82352941,62bbe60bf3d75ef465d3e404,0,95,95,5,1,threefour,,,,,,,,,,,,,,,,,,,,,,,,,,,,,,,,,,,,,,,,,,,,,,,,,,,,,,,,,,,,,,,,,,,,,,,,,,,,,,,,,,,,,,,,,,,,,,,,,,,,,,,,,,,,,,,,,,,,,,,,,,,,,,,,,,,,,,,,,,,,,,,,,,,,,,,,
,,,,,,5cabf58293e29a0016018c30,62bbfac6b1da8ea619ee871c,2022-06-29_09h11.52,Colour_Asymmetry_Pilot,2022.1.3,MacIntel,58.82352941,62bbe60bf3d75ef465d3e404,0,96,96,24,1,onetwo,,,,,,,,,,,,,,,,,,,,,,,,,,,,,,,,,,,,,,,,,,,,,,,,,,,,,,,,,,,,,,,,,,,,,,,,,,,,,,,,,,,,,,,,,,,,,,,,,,,,,,,,,,,,,,,,,,,,,,,,,,,,,,,,,,,,,,,,,,,,,,,,,,,,,,,,
,,,,,,5cabf58293e29a0016018c30,62bbfac6b1da8ea619ee871c,2022-06-29_09h11.52,Colour_Asymmetry_Pilot,2022.1.3,MacIntel,58.82352941,62bbe60bf3d75ef465d3e404,0,97,97,92,1,threeone,,,,,,,,,,,,,,,,,,,,,,,,,,,,,,,,,,,,,,,,,,,,,,,,,,,,,,,,,,,,,,,,,,,,,,,,,,,,,,,,,,,,,,,,,,,,,,,,,,,,,,,,,,,,,,,,,,,,,,,,,,,,,,,,,,,,,,,,,,,,,,,,,,,,,,,,
,,,,,,5cabf58293e29a0016018c30,62bbfac6b1da8ea619ee871c,2022-06-29_09h11.52,Colour_Asymmetry_Pilot,2022.1.3,MacIntel,58.82352941,62bbe60bf3d75ef465d3e404,0,98,98,23,1,fourthree,,,,,,,,,,,,,,,,,,,,,,,,,,,,,,,,,,,,,,,,,,,,,,,,,,,,,,,,,,,,,,,,,,,,,,,,,,,,,,,,,,,,,,,,,,,,,,,,,,,,,,,,,,,,,,,,,,,,,,,,,,,,,,,,,,,,,,,,,,,,,,,,,,,,,,,,
,,,,,,5cabf58293e29a0016018c30,62bbfac6b1da8ea619ee871c,2022-06-29_09h11.52,Colour_Asymmetry_Pilot,2022.1.3,MacIntel,58.82352941,62bbe60bf3d75ef465d3e404,0,99,99,52,1,threeone,,,,,,,,,,,,,,,,,,,,,,,,,,,,,,,,,,,,,,,,,,,,,,,,,,,,,,,,,,,,,,,,,,,,,,,,,,,,,,,,,,,,,,,,,,,,,,,,,,,,,,,,,,,,,,,,,,,,,,,,,,,,,,,,,,,,,,,,,,,,,,,,,,,,,,,,
,,,,,,5cabf58293e29a0016018c30,62bbfac6b1da8ea619ee871c,2022-06-29_09h11.52,Colour_Asymmetry_Pilot,2022.1.3,MacIntel,58.82352941,62bbe60bf3d75ef465d3e404,0,100,100,125,1,threefour,,,,,,,,,,,,,,,,,,,,,,,,,,,,,,,,,,,,,,,,,,,,,,,,,,,,,,,,,,,,,,,,,,,,,,,,,,,,,,,,,,,,,,,,,,,,,,,,,,,,,,,,,,,,,,,,,,,,,,,,,,,,,,,,,,,,,,,,,,,,,,,,,,,,,,,,
,,,,,,5cabf58293e29a0016018c30,62bbfac6b1da8ea619ee871c,2022-06-29_09h11.52,Colour_Asymmetry_Pilot,2022.1.3,MacIntel,58.82352941,62bbe60bf3d75ef465d3e404,0,101,101,30,1,fourtwo,,,,,,,,,,,,,,,,,,,,,,,,,,,,,,,,,,,,,,,,,,,,,,,,,,,,,,,,,,,,,,,,,,,,,,,,,,,,,,,,,,,,,,,,,,,,,,,,,,,,,,,,,,,,,,,,,,,,,,,,,,,,,,,,,,,,,,,,,,,,,,,,,,,,,,,,
,,,,,,5cabf58293e29a0016018c30,62bbfac6b1da8ea619ee871c,2022-06-29_09h11.52,Colour_Asymmetry_Pilot,2022.1.3,MacIntel,58.82352941,62bbe60bf3d75ef465d3e404,0,102,102,33,1,onethree,,,,,,,,,,,,,,,,,,,,,,,,,,,,,,,,,,,,,,,,,,,,,,,,,,,,,,,,,,,,,,,,,,,,,,,,,,,,,,,,,,,,,,,,,,,,,,,,,,,,,,,,,,,,,,,,,,,,,,,,,,,,,,,,,,,,,,,,,,,,,,,,,,,,,,,,
,,,,,,5cabf58293e29a0016018c30,62bbfac6b1da8ea619ee871c,2022-06-29_09h11.52,Colour_Asymmetry_Pilot,2022.1.3,MacIntel,58.82352941,62bbe60bf3d75ef465d3e404,0,103,103,32,1,onetwo,,,,,,,,,,,,,,,,,,,,,,,,,,,,,,,,,,,,,,,,,,,,,,,,,,,,,,,,,,,,,,,,,,,,,,,,,,,,,,,,,,,,,,,,,,,,,,,,,,,,,,,,,,,,,,,,,,,,,,,,,,,,,,,,,,,,,,,,,,,,,,,,,,,,,,,,
,,,,,,5cabf58293e29a0016018c30,62bbfac6b1da8ea619ee871c,2022-06-29_09h11.52,Colour_Asymmetry_Pilot,2022.1.3,MacIntel,58.82352941,62bbe60bf3d75ef465d3e404,0,104,104,14,1,fourtwo,,,,,,,,,,,,,,,,,,,,,,,,,,,,,,,,,,,,,,,,,,,,,,,,,,,,,,,,,,,,,,,,,,,,,,,,,,,,,,,,,,,,,,,,,,,,,,,,,,,,,,,,,,,,,,,,,,,,,,,,,,,,,,,,,,,,,,,,,,,,,,,,,,,,,,,,
,,,,,,5cabf58293e29a0016018c30,62bbfac6b1da8ea619ee871c,2022-06-29_09h11.52,Colour_Asymmetry_Pilot,2022.1.3,MacIntel,58.82352941,62bbe60bf3d75ef465d3e404,0,105,105,99,1,twofour,,,,,,,,,,,,,,,,,,,,,,,,,,,,,,,,,,,,,,,,,,,,,,,,,,,,,,,,,,,,,,,,,,,,,,,,,,,,,,,,,,,,,,,,,,,,,,,,,,,,,,,,,,,,,,,,,,,,,,,,,,,,,,,,,,,,,,,,,,,,,,,,,,,,,,,,
,,,,,,5cabf58293e29a0016018c30,62bbfac6b1da8ea619ee871c,2022-06-29_09h11.52,Colour_Asymmetry_Pilot,2022.1.3,MacIntel,58.82352941,62bbe60bf3d75ef465d3e404,0,106,106,60,1,threeone,,,,,,,,,,,,,,,,,,,,,,,,,,,,,,,,,,,,,,,,,,,,,,,,,,,,,,,,,,,,,,,,,,,,,,,,,,,,,,,,,,,,,,,,,,,,,,,,,,,,,,,,,,,,,,,,,,,,,,,,,,,,,,,,,,,,,,,,,,,,,,,,,,,,,,,,
,,,,,,5cabf58293e29a0016018c30,62bbfac6b1da8ea619ee871c,2022-06-29_09h11.52,Colour_Asymmetry_Pilot,2022.1.3,MacIntel,58.82352941,62bbe60bf3d75ef465d3e404,0,107,107,114,1,twoone,,,,,,,,,,,,,,,,,,,,,,,,,,,,,,,,,,,,,,,,,,,,,,,,,,,,,,,,,,,,,,,,,,,,,,,,,,,,,,,,,,,,,,,,,,,,,,,,,,,,,,,,,,,,,,,,,,,,,,,,,,,,,,,,,,,,,,,,,,,,,,,,,,,,,,,,
,,,,,,5cabf58293e29a0016018c30,62bbfac6b1da8ea619ee871c,2022-06-29_09h11.52,Colour_Asymmetry_Pilot,2022.1.3,MacIntel,58.82352941,62bbe60bf3d75ef465d3e404,0,108,108,63,1,fourthree,,,,,,,,,,,,,,,,,,,,,,,,,,,,,,,,,,,,,,,,,,,,,,,,,,,,,,,,,,,,,,,,,,,,,,,,,,,,,,,,,,,,,,,,,,,,,,,,,,,,,,,,,,,,,,,,,,,,,,,,,,,,,,,,,,,,,,,,,,,,,,,,,,,,,,,,
,,,,,,5cabf58293e29a0016018c30,62bbfac6b1da8ea619ee871c,2022-06-29_09h11.52,Colour_Asymmetry_Pilot,2022.1.3,MacIntel,58.82352941,62bbe60bf3d75ef465d3e404,0,109,109,91,1,twofour,,,,,,,,,,,,,,,,,,,,,,,,,,,,,,,,,,,,,,,,,,,,,,,,,,,,,,,,,,,,,,,,,,,,,,,,,,,,,,,,,,,,,,,,,,,,,,,,,,,,,,,,,,,,,,,,,,,,,,,,,,,,,,,,,,,,,,,,,,,,,,,,,,,,,,,,
,,,,,,5cabf58293e29a0016018c30,62bbfac6b1da8ea619ee871c,2022-06-29_09h11.52,Colour_Asymmetry_Pilot,2022.1.3,MacIntel,58.82352941,62bbe60bf3d75ef465d3e404,0,110,110,85,1,threefour,,,,,,,,,,,,,,,,,,,,,,,,,,,,,,,,,,,,,,,,,,,,,,,,,,,,,,,,,,,,,,,,,,,,,,,,,,,,,,,,,,,,,,,,,,,,,,,,,,,,,,,,,,,,,,,,,,,,,,,,,,,,,,,,,,,,,,,,,,,,,,,,,,,,,,,,
,,,,,,5cabf58293e29a0016018c30,62bbfac6b1da8ea619ee871c,2022-06-29_09h11.52,Colour_Asymmetry_Pilot,2022.1.3,MacIntel,58.82352941,62bbe60bf3d75ef465d3e404,0,111,111,145,1,onethree,,,,,,,,,,,,,,,,,,,,,,,,,,,,,,,,,,,,,,,,,,,,,,,,,,,,,,,,,,,,,,,,,,,,,,,,,,,,,,,,,,,,,,,,,,,,,,,,,,,,,,,,,,,,,,,,,,,,,,,,,,,,,,,,,,,,,,,,,,,,,,,,,,,,,,,,
,,,,,,5cabf58293e29a0016018c30,62bbfac6b1da8ea619ee871c,2022-06-29_09h11.52,Colour_Asymmetry_Pilot,2022.1.3,MacIntel,58.82352941,62bbe60bf3d75ef465d3e404,0,112,112,42,1,twoone,,,,,,,,,,,,,,,,,,,,,,,,,,,,,,,,,,,,,,,,,,,,,,,,,,,,,,,,,,,,,,,,,,,,,,,,,,,,,,,,,,,,,,,,,,,,,,,,,,,,,,,,,,,,,,,,,,,,,,,,,,,,,,,,,,,,,,,,,,,,,,,,,,,,,,,,
,,,,,,5cabf58293e29a0016018c30,62bbfac6b1da8ea619ee871c,2022-06-29_09h11.52,Colour_Asymmetry_Pilot,2022.1.3,MacIntel,58.82352941,62bbe60bf3d75ef465d3e404,0,113,113,134,1,fourtwo,,,,,,,,,,,,,,,,,,,,,,,,,,,,,,,,,,,,,,,,,,,,,,,,,,,,,,,,,,,,,,,,,,,,,,,,,,,,,,,,,,,,,,,,,,,,,,,,,,,,,,,,,,,,,,,,,,,,,,,,,,,,,,,,,,,,,,,,,,,,,,,,,,,,,,,,
,,,,,,5cabf58293e29a0016018c30,62bbfac6b1da8ea619ee871c,2022-06-29_09h11.52,Colour_Asymmetry_Pilot,2022.1.3,MacIntel,58.82352941,62bbe60bf3d75ef465d3e404,0,114,114,93,1,threefour,,,,,,,,,,,,,,,,,,,,,,,,,,,,,,,,,,,,,,,,,,,,,,,,,,,,,,,,,,,,,,,,,,,,,,,,,,,,,,,,,,,,,,,,,,,,,,,,,,,,,,,,,,,,,,,,,,,,,,,,,,,,,,,,,,,,,,,,,,,,,,,,,,,,,,,,
,,,,,,5cabf58293e29a0016018c30,62bbfac6b1da8ea619ee871c,2022-06-29_09h11.52,Colour_Asymmetry_Pilot,2022.1.3,MacIntel,58.82352941,62bbe60bf3d75ef465d3e404,0,115,115,94,1,fourtwo,,,,,,,,,,,,,,,,,,,,,,,,,,,,,,,,,,,,,,,,,,,,,,,,,,,,,,,,,,,,,,,,,,,,,,,,,,,,,,,,,,,,,,,,,,,,,,,,,,,,,,,,,,,,,,,,,,,,,,,,,,,,,,,,,,,,,,,,,,,,,,,,,,,,,,,,
,,,,,,5cabf58293e29a0016018c30,62bbfac6b1da8ea619ee871c,2022-06-29_09h11.52,Colour_Asymmetry_Pilot,2022.1.3,MacIntel,58.82352941,62bbe60bf3d75ef465d3e404,0,116,116,72,1,onetwo,,,,,,,,,,,,,,,,,,,,,,,,,,,,,,,,,,,,,,,,,,,,,,,,,,,,,,,,,,,,,,,,,,,,,,,,,,,,,,,,,,,,,,,,,,,,,,,,,,,,,,,,,,,,,,,,,,,,,,,,,,,,,,,,,,,,,,,,,,,,,,,,,,,,,,,,
,,,,,,5cabf58293e29a0016018c30,62bbfac6b1da8ea619ee871c,2022-06-29_09h11.52,Colour_Asymmetry_Pilot,2022.1.3,MacIntel,58.82352941,62bbe60bf3d75ef465d3e404,0,117,117,97,1,onethree,,,,,,,,,,,,,,,,,,,,,,,,,,,,,,,,,,,,,,,,,,,,,,,,,,,,,,,,,,,,,,,,,,,,,,,,,,,,,,,,,,,,,,,,,,,,,,,,,,,,,,,,,,,,,,,,,,,,,,,,,,,,,,,,,,,,,,,,,,,,,,,,,,,,,,,,
,,,,,,5cabf58293e29a0016018c30,62bbfac6b1da8ea619ee871c,2022-06-29_09h11.52,Colour_Asymmetry_Pilot,2022.1.3,MacIntel,58.82352941,62bbe60bf3d75ef465d3e404,0,118,118,58,1,twoone,,,,,,,,,,,,,,,,,,,,,,,,,,,,,,,,,,,,,,,,,,,,,,,,,,,,,,,,,,,,,,,,,,,,,,,,,,,,,,,,,,,,,,,,,,,,,,,,,,,,,,,,,,,,,,,,,,,,,,,,,,,,,,,,,,,,,,,,,,,,,,,,,,,,,,,,
,,,,,,5cabf58293e29a0016018c30,62bbfac6b1da8ea619ee871c,2022-06-29_09h11.52,Colour_Asymmetry_Pilot,2022.1.3,MacIntel,58.82352941,62bbe60bf3d75ef465d3e404,0,119,119,139,1,twofour,,,,,,,,,,,,,,,,,,,,,,,,,,,,,,,,,,,,,,,,,,,,,,,,,,,,,,,,,,,,,,,,,,,,,,,,,,,,,,,,,,,,,,,,,,,,,,,,,,,,,,,,,,,,,,,,,,,,,,,,,,,,,,,,,,,,,,,,,,,,,,,,,,,,,,,,
,,,,,,5cabf58293e29a0016018c30,62bbfac6b1da8ea619ee871c,2022-06-29_09h11.52,Colour_Asymmetry_Pilot,2022.1.3,MacIntel,58.82352941,62bbe60bf3d75ef465d3e404,0,120,120,22,1,fourtwo,,,,,,,,,,,,,,,,,,,,,,,,,,,,,,,,,,,,,,,,,,,,,,,,,,,,,,,,,,,,,,,,,,,,,,,,,,,,,,,,,,,,,,,,,,,,,,,,,,,,,,,,,,,,,,,,,,,,,,,,,,,,,,,,,,,,,,,,,,,,,,,,,,,,,,,,
,,,,,,5cabf58293e29a0016018c30,62bbfac6b1da8ea619ee871c,2022-06-29_09h11.52,Colour_Asymmetry_Pilot,2022.1.3,MacIntel,58.82352941,62bbe60bf3d75ef465d3e404,0,121,121,41,1,onethree,,,,,,,,,,,,,,,,,,,,,,,,,,,,,,,,,,,,,,,,,,,,,,,,,,,,,,,,,,,,,,,,,,,,,,,,,,,,,,,,,,,,,,,,,,,,,,,,,,,,,,,,,,,,,,,,,,,,,,,,,,,,,,,,,,,,,,,,,,,,,,,,,,,,,,,,
,,,,,,5cabf58293e29a0016018c30,62bbfac6b1da8ea619ee871c,2022-06-29_09h11.52,Colour_Asymmetry_Pilot,2022.1.3,MacIntel,58.82352941,62bbe60bf3d75ef465d3e404,0,122,122,83,1,twofour,,,,,,,,,,,,,,,,,,,,,,,,,,,,,,,,,,,,,,,,,,,,,,,,,,,,,,,,,,,,,,,,,,,,,,,,,,,,,,,,,,,,,,,,,,,,,,,,,,,,,,,,,,,,,,,,,,,,,,,,,,,,,,,,,,,,,,,,,,,,,,,,,,,,,,,,
,,,,,,5cabf58293e29a0016018c30,62bbfac6b1da8ea619ee871c,2022-06-29_09h11.52,Colour_Asymmetry_Pilot,2022.1.3,MacIntel,58.82352941,62bbe60bf3d75ef465d3e404,0,123,123,51,1,twofour,,,,,,,,,,,,,,,,,,,,,,,,,,,,,,,,,,,,,,,,,,,,,,,,,,,,,,,,,,,,,,,,,,,,,,,,,,,,,,,,,,,,,,,,,,,,,,,,,,,,,,,,,,,,,,,,,,,,,,,,,,,,,,,,,,,,,,,,,,,,,,,,,,,,,,,,
,,,,,,5cabf58293e29a0016018c30,62bbfac6b1da8ea619ee871c,2022-06-29_09h11.52,Colour_Asymmetry_Pilot,2022.1.3,MacIntel,58.82352941,62bbe60bf3d75ef465d3e404,0,124,124,53,1,threefour,,,,,,,,,,,,,,,,,,,,,,,,,,,,,,,,,,,,,,,,,,,,,,,,,,,,,,,,,,,,,,,,,,,,,,,,,,,,,,,,,,,,,,,,,,,,,,,,,,,,,,,,,,,,,,,,,,,,,,,,,,,,,,,,,,,,,,,,,,,,,,,,,,,,,,,,
,,,,,,5cabf58293e29a0016018c30,62bbfac6b1da8ea619ee871c,2022-06-29_09h11.52,Colour_Asymmetry_Pilot,2022.1.3,MacIntel,58.82352941,62bbe60bf3d75ef465d3e404,0,125,125,133,1,threefour,,,,,,,,,,,,,,,,,,,,,,,,,,,,,,,,,,,,,,,,,,,,,,,,,,,,,,,,,,,,,,,,,,,,,,,,,,,,,,,,,,,,,,,,,,,,,,,,,,,,,,,,,,,,,,,,,,,,,,,,,,,,,,,,,,,,,,,,,,,,,,,,,,,,,,,,
,,,,,,5cabf58293e29a0016018c30,62bbfac6b1da8ea619ee871c,2022-06-29_09h11.52,Colour_Asymmetry_Pilot,2022.1.3,MacIntel,58.82352941,62bbe60bf3d75ef465d3e404,0,126,126,96,1,onetwo,,,,,,,,,,,,,,,,,,,,,,,,,,,,,,,,,,,,,,,,,,,,,,,,,,,,,,,,,,,,,,,,,,,,,,,,,,,,,,,,,,,,,,,,,,,,,,,,,,,,,,,,,,,,,,,,,,,,,,,,,,,,,,,,,,,,,,,,,,,,,,,,,,,,,,,,
,,,,,,5cabf58293e29a0016018c30,62bbfac6b1da8ea619ee871c,2022-06-29_09h11.52,Colour_Asymmetry_Pilot,2022.1.3,MacIntel,58.82352941,62bbe60bf3d75ef465d3e404,0,127,127,26,1,twoone,,,,,,,,,,,,,,,,,,,,,,,,,,,,,,,,,,,,,,,,,,,,,,,,,,,,,,,,,,,,,,,,,,,,,,,,,,,,,,,,,,,,,,,,,,,,,,,,,,,,,,,,,,,,,,,,,,,,,,,,,,,,,,,,,,,,,,,,,,,,,,,,,,,,,,,,
,,,,,,5cabf58293e29a0016018c30,62bbfac6b1da8ea619ee871c,2022-06-29_09h11.52,Colour_Asymmetry_Pilot,2022.1.3,MacIntel,58.82352941,62bbe60bf3d75ef465d3e404,0,128,128,149,1,threefour,,,,,,,,,,,,,,,,,,,,,,,,,,,,,,,,,,,,,,,,,,,,,,,,,,,,,,,,,,,,,,,,,,,,,,,,,,,,,,,,,,,,,,,,,,,,,,,,,,,,,,,,,,,,,,,,,,,,,,,,,,,,,,,,,,,,,,,,,,,,,,,,,,,,,,,,
,,,,,,5cabf58293e29a0016018c30,62bbfac6b1da8ea619ee871c,2022-06-29_09h11.52,Colour_Asymmetry_Pilot,2022.1.3,MacIntel,58.82352941,62bbe60bf3d75ef465d3e404,0,129,129,18,1,twoone,,,,,,,,,,,,,,,,,,,,,,,,,,,,,,,,,,,,,,,,,,,,,,,,,,,,,,,,,,,,,,,,,,,,,,,,,,,,,,,,,,,,,,,,,,,,,,,,,,,,,,,,,,,,,,,,,,,,,,,,,,,,,,,,,,,,,,,,,,,,,,,,,,,,,,,,
,,,,,,5cabf58293e29a0016018c30,62bbfac6b1da8ea619ee871c,2022-06-29_09h11.52,Colour_Asymmetry_Pilot,2022.1.3,MacIntel,58.82352941,62bbe60bf3d75ef465d3e404,0,130,130,1,1,onethree,,,,,,,,,,,,,,,,,,,,,,,,,,,,,,,,,,,,,,,,,,,,,,,,,,,,,,,,,,,,,,,,,,,,,,,,,,,,,,,,,,,,,,,,,,,,,,,,,,,,,,,,,,,,,,,,,,,,,,,,,,,,,,,,,,,,,,,,,,,,,,,,,,,,,,,,
,,,,,,5cabf58293e29a0016018c30,62bbfac6b1da8ea619ee871c,2022-06-29_09h11.52,Colour_Asymmetry_Pilot,2022.1.3,MacIntel,58.82352941,62bbe60bf3d75ef465d3e404,0,131,131,43,1,twofour,,,,,,,,,,,,,,,,,,,,,,,,,,,,,,,,,,,,,,,,,,,,,,,,,,,,,,,,,,,,,,,,,,,,,,,,,,,,,,,,,,,,,,,,,,,,,,,,,,,,,,,,,,,,,,,,,,,,,,,,,,,,,,,,,,,,,,,,,,,,,,,,,,,,,,,,
,,,,,,5cabf58293e29a0016018c30,62bbfac6b1da8ea619ee871c,2022-06-29_09h11.52,Colour_Asymmetry_Pilot,2022.1.3,MacIntel,58.82352941,62bbe60bf3d75ef465d3e404,0,132,132,105,1,onethree,,,,,,,,,,,,,,,,,,,,,,,,,,,,,,,,,,,,,,,,,,,,,,,,,,,,,,,,,,,,,,,,,,,,,,,,,,,,,,,,,,,,,,,,,,,,,,,,,,,,,,,,,,,,,,,,,,,,,,,,,,,,,,,,,,,,,,,,,,,,,,,,,,,,,,,,
,,,,,,5cabf58293e29a0016018c30,62bbfac6b1da8ea619ee871c,2022-06-29_09h11.52,Colour_Asymmetry_Pilot,2022.1.3,MacIntel,58.82352941,62bbe60bf3d75ef465d3e404,0,133,133,59,1,twofour,,,,,,,,,,,,,,,,,,,,,,,,,,,,,,,,,,,,,,,,,,,,,,,,,,,,,,,,,,,,,,,,,,,,,,,,,,,,,,,,,,,,,,,,,,,,,,,,,,,,,,,,,,,,,,,,,,,,,,,,,,,,,,,,,,,,,,,,,,,,,,,,,,,,,,,,
,,,,,,5cabf58293e29a0016018c30,62bbfac6b1da8ea619ee871c,2022-06-29_09h11.52,Colour_Asymmetry_Pilot,2022.1.3,MacIntel,58.82352941,62bbe60bf3d75ef465d3e404,0,134,134,56,1,onetwo,,,,,,,,,,,,,,,,,,,,,,,,,,,,,,,,,,,,,,,,,,,,,,,,,,,,,,,,,,,,,,,,,,,,,,,,,,,,,,,,,,,,,,,,,,,,,,,,,,,,,,,,,,,,,,,,,,,,,,,,,,,,,,,,,,,,,,,,,,,,,,,,,,,,,,,,
,,,,,,5cabf58293e29a0016018c30,62bbfac6b1da8ea619ee871c,2022-06-29_09h11.52,Colour_Asymmetry_Pilot,2022.1.3,MacIntel,58.82352941,62bbe60bf3d75ef465d3e404,0,135,135,4,1,threeone,,,,,,,,,,,,,,,,,,,,,,,,,,,,,,,,,,,,,,,,,,,,,,,,,,,,,,,,,,,,,,,,,,,,,,,,,,,,,,,,,,,,,,,,,,,,,,,,,,,,,,,,,,,,,,,,,,,,,,,,,,,,,,,,,,,,,,,,,,,,,,,,,,,,,,,,
,,,,,,5cabf58293e29a0016018c30,62bbfac6b1da8ea619ee871c,2022-06-29_09h11.52,Colour_Asymmetry_Pilot,2022.1.3,MacIntel,58.82352941,62bbe60bf3d75ef465d3e404,0,136,136,65,1,onethree,,,,,,,,,,,,,,,,,,,,,,,,,,,,,,,,,,,,,,,,,,,,,,,,,,,,,,,,,,,,,,,,,,,,,,,,,,,,,,,,,,,,,,,,,,,,,,,,,,,,,,,,,,,,,,,,,,,,,,,,,,,,,,,,,,,,,,,,,,,,,,,,,,,,,,,,
,,,,,,5cabf58293e29a0016018c30,62bbfac6b1da8ea619ee871c,2022-06-29_09h11.52,Colour_Asymmetry_Pilot,2022.1.3,MacIntel,58.82352941,62bbe60bf3d75ef465d3e404,0,137,137,10,1,twoone,,,,,,,,,,,,,,,,,,,,,,,,,,,,,,,,,,,,,,,,,,,,,,,,,,,,,,,,,,,,,,,,,,,,,,,,,,,,,,,,,,,,,,,,,,,,,,,,,,,,,,,,,,,,,,,,,,,,,,,,,,,,,,,,,,,,,,,,,,,,,,,,,,,,,,,,
,,,,,,5cabf58293e29a0016018c30,62bbfac6b1da8ea619ee871c,2022-06-29_09h11.52,Colour_Asymmetry_Pilot,2022.1.3,MacIntel,58.82352941,62bbe60bf3d75ef465d3e404,0,138,138,88,1,onetwo,,,,,,,,,,,,,,,,,,,,,,,,,,,,,,,,,,,,,,,,,,,,,,,,,,,,,,,,,,,,,,,,,,,,,,,,,,,,,,,,,,,,,,,,,,,,,,,,,,,,,,,,,,,,,,,,,,,,,,,,,,,,,,,,,,,,,,,,,,,,,,,,,,,,,,,,
,,,,,,5cabf58293e29a0016018c30,62bbfac6b1da8ea619ee871c,2022-06-29_09h11.52,Colour_Asymmetry_Pilot,2022.1.3,MacIntel,58.82352941,62bbe60bf3d75ef465d3e404,0,139,139,27,1,twofour,,,,,,,,,,,,,,,,,,,,,,,,,,,,,,,,,,,,,,,,,,,,,,,,,,,,,,,,,,,,,,,,,,,,,,,,,,,,,,,,,,,,,,,,,,,,,,,,,,,,,,,,,,,,,,,,,,,,,,,,,,,,,,,,,,,,,,,,,,,,,,,,,,,,,,,,
,,,,,,5cabf58293e29a0016018c30,62bbfac6b1da8ea619ee871c,2022-06-29_09h11.52,Colour_Asymmetry_Pilot,2022.1.3,MacIntel,58.82352941,62bbe60bf3d75ef465d3e404,0,140,140,153,1,onethree,,,,,,,,,,,,,,,,,,,,,,,,,,,,,,,,,,,,,,,,,,,,,,,,,,,,,,,,,,,,,,,,,,,,,,,,,,,,,,,,,,,,,,,,,,,,,,,,,,,,,,,,,,,,,,,,,,,,,,,,,,,,,,,,,,,,,,,,,,,,,,,,,,,,,,,,
,,,,,,5cabf58293e29a0016018c30,62bbfac6b1da8ea619ee871c,2022-06-29_09h11.52,Colour_Asymmetry_Pilot,2022.1.3,MacIntel,58.82352941,62bbe60bf3d75ef465d3e404,0,141,141,67,1,twofour,,,,,,,,,,,,,,,,,,,,,,,,,,,,,,,,,,,,,,,,,,,,,,,,,,,,,,,,,,,,,,,,,,,,,,,,,,,,,,,,,,,,,,,,,,,,,,,,,,,,,,,,,,,,,,,,,,,,,,,,,,,,,,,,,,,,,,,,,,,,,,,,,,,,,,,,
,,,,,,5cabf58293e29a0016018c30,62bbfac6b1da8ea619ee871c,2022-06-29_09h11.52,Colour_Asymmetry_Pilot,2022.1.3,MacIntel,58.82352941,62bbe60bf3d75ef465d3e404,0,142,142,57,1,onethree,,,,,,,,,,,,,,,,,,,,,,,,,,,,,,,,,,,,,,,,,,,,,,,,,,,,,,,,,,,,,,,,,,,,,,,,,,,,,,,,,,,,,,,,,,,,,,,,,,,,,,,,,,,,,,,,,,,,,,,,,,,,,,,,,,,,,,,,,,,,,,,,,,,,,,,,
,,,,,,5cabf58293e29a0016018c30,62bbfac6b1da8ea619ee871c,2022-06-29_09h11.52,Colour_Asymmetry_Pilot,2022.1.3,MacIntel,58.82352941,62bbe60bf3d75ef465d3e404,0,143,143,155,1,twofour,,,,,,,,,,,,,,,,,,,,,,,,,,,,,,,,,,,,,,,,,,,,,,,,,,,,,,,,,,,,,,,,,,,,,,,,,,,,,,,,,,,,,,,,,,,,,,,,,,,,,,,,,,,,,,,,,,,,,,,,,,,,,,,,,,,,,,,,,,,,,,,,,,,,,,,,
,,,,,,5cabf58293e29a0016018c30,62bbfac6b1da8ea619ee871c,2022-06-29_09h11.52,Colour_Asymmetry_Pilot,2022.1.3,MacIntel,58.82352941,62bbe60bf3d75ef465d3e404,0,144,144,7,1,fourthree,,,,,,,,,,,,,,,,,,,,,,,,,,,,,,,,,,,,,,,,,,,,,,,,,,,,,,,,,,,,,,,,,,,,,,,,,,,,,,,,,,,,,,,,,,,,,,,,,,,,,,,,,,,,,,,,,,,,,,,,,,,,,,,,,,,,,,,,,,,,,,,,,,,,,,,,
,,,,,,5cabf58293e29a0016018c30,62bbfac6b1da8ea619ee871c,2022-06-29_09h11.52,Colour_Asymmetry_Pilot,2022.1.3,MacIntel,58.82352941,62bbe60bf3d75ef465d3e404,0,145,145,127,1,fourthree,,,,,,,,,,,,,,,,,,,,,,,,,,,,,,,,,,,,,,,,,,,,,,,,,,,,,,,,,,,,,,,,,,,,,,,,,,,,,,,,,,,,,,,,,,,,,,,,,,,,,,,,,,,,,,,,,,,,,,,,,,,,,,,,,,,,,,,,,,,,,,,,,,,,,,,,
,,,,,,5cabf58293e29a0016018c30,62bbfac6b1da8ea619ee871c,2022-06-29_09h11.52,Colour_Asymmetry_Pilot,2022.1.3,MacIntel,58.82352941,62bbe60bf3d75ef465d3e404,0,146,146,69,1,threefour,,,,,,,,,,,,,,,,,,,,,,,,,,,,,,,,,,,,,,,,,,,,,,,,,,,,,,,,,,,,,,,,,,,,,,,,,,,,,,,,,,,,,,,,,,,,,,,,,,,,,,,,,,,,,,,,,,,,,,,,,,,,,,,,,,,,,,,,,,,,,,,,,,,,,,,,
,,,,,,5cabf58293e29a0016018c30,62bbfac6b1da8ea619ee871c,2022-06-29_09h11.52,Colour_Asymmetry_Pilot,2022.1.3,MacIntel,58.82352941,62bbe60bf3d75ef465d3e404,0,147,147,138,1,twoone,,,,,,,,,,,,,,,,,,,,,,,,,,,,,,,,,,,,,,,,,,,,,,,,,,,,,,,,,,,,,,,,,,,,,,,,,,,,,,,,,,,,,,,,,,,,,,,,,,,,,,,,,,,,,,,,,,,,,,,,,,,,,,,,,,,,,,,,,,,,,,,,,,,,,,,,
,,,,,,5cabf58293e29a0016018c30,62bbfac6b1da8ea619ee871c,2022-06-29_09h11.52,Colour_Asymmetry_Pilot,2022.1.3,MacIntel,58.82352941,62bbe60bf3d75ef465d3e404,0,148,148,79,1,fourthree,,,,,,,,,,,,,,,,,,,,,,,,,,,,,,,,,,,,,,,,,,,,,,,,,,,,,,,,,,,,,,,,,,,,,,,,,,,,,,,,,,,,,,,,,,,,,,,,,,,,,,,,,,,,,,,,,,,,,,,,,,,,,,,,,,,,,,,,,,,,,,,,,,,,,,,,
,,,,,,5cabf58293e29a0016018c30,62bbfac6b1da8ea619ee871c,2022-06-29_09h11.52,Colour_Asymmetry_Pilot,2022.1.3,MacIntel,58.82352941,62bbe60bf3d75ef465d3e404,0,149,149,101,1,threefour,,,,,,,,,,,,,,,,,,,,,,,,,,,,,,,,,,,,,,,,,,,,,,,,,,,,,,,,,,,,,,,,,,,,,,,,,,,,,,,,,,,,,,,,,,,,,,,,,,,,,,,,,,,,,,,,,,,,,,,,,,,,,,,,,,,,,,,,,,,,,,,,,,,,,,,,
,,,,,,5cabf58293e29a0016018c30,62bbfac6b1da8ea619ee871c,2022-06-29_09h11.52,Colour_Asymmetry_Pilot,2022.1.3,MacIntel,58.82352941,62bbe60bf3d75ef465d3e404,0,150,150,49,1,onethree,,,,,,,,,,,,,,,,,,,,,,,,,,,,,,,,,,,,,,,,,,,,,,,,,,,,,,,,,,,,,,,,,,,,,,,,,,,,,,,,,,,,,,,,,,,,,,,,,,,,,,,,,,,,,,,,,,,,,,,,,,,,,,,,,,,,,,,,,,,,,,,,,,,,,,,,
,,,,,,5cabf58293e29a0016018c30,62bbfac6b1da8ea619ee871c,2022-06-29_09h11.52,Colour_Asymmetry_Pilot,2022.1.3,MacIntel,58.82352941,62bbe60bf3d75ef465d3e404,0,151,151,124,1,threeone,,,,,,,,,,,,,,,,,,,,,,,,,,,,,,,,,,,,,,,,,,,,,,,,,,,,,,,,,,,,,,,,,,,,,,,,,,,,,,,,,,,,,,,,,,,,,,,,,,,,,,,,,,,,,,,,,,,,,,,,,,,,,,,,,,,,,,,,,,,,,,,,,,,,,,,,
,,,,,,5cabf58293e29a0016018c30,62bbfac6b1da8ea619ee871c,2022-06-29_09h11.52,Colour_Asymmetry_Pilot,2022.1.3,MacIntel,58.82352941,62bbe60bf3d75ef465d3e404,0,152,152,70,1,fourtwo,,,,,,,,,,,,,,,,,,,,,,,,,,,,,,,,,,,,,,,,,,,,,,,,,,,,,,,,,,,,,,,,,,,,,,,,,,,,,,,,,,,,,,,,,,,,,,,,,,,,,,,,,,,,,,,,,,,,,,,,,,,,,,,,,,,,,,,,,,,,,,,,,,,,,,,,
,,,,,,5cabf58293e29a0016018c30,62bbfac6b1da8ea619ee871c,2022-06-29_09h11.52,Colour_Asymmetry_Pilot,2022.1.3,MacIntel,58.82352941,62bbe60bf3d75ef465d3e404,0,153,153,109,1,threefour,,,,,,,,,,,,,,,,,,,,,,,,,,,,,,,,,,,,,,,,,,,,,,,,,,,,,,,,,,,,,,,,,,,,,,,,,,,,,,,,,,,,,,,,,,,,,,,,,,,,,,,,,,,,,,,,,,,,,,,,,,,,,,,,,,,,,,,,,,,,,,,,,,,,,,,,
,,,,,,5cabf58293e29a0016018c30,62bbfac6b1da8ea619ee871c,2022-06-29_09h11.52,Colour_Asymmetry_Pilot,2022.1.3,MacIntel,58.82352941,62bbe60bf3d75ef465d3e404,0,154,154,8,1,onetwo,,,,,,,,,,,,,,,,,,,,,,,,,,,,,,,,,,,,,,,,,,,,,,,,,,,,,,,,,,,,,,,,,,,,,,,,,,,,,,,,,,,,,,,,,,,,,,,,,,,,,,,,,,,,,,,,,,,,,,,,,,,,,,,,,,,,,,,,,,,,,,,,,,,,,,,,
,,,,,,5cabf58293e29a0016018c30,62bbfac6b1da8ea619ee871c,2022-06-29_09h11.52,Colour_Asymmetry_Pilot,2022.1.3,MacIntel,58.82352941,62bbe60bf3d75ef465d3e404,0,155,155,120,1,onetwo,,,,,,,,,,,,,,,,,,,,,,,,,,,,,,,,,,,,,,,,,,,,,,,,,,,,,,,,,,,,,,,,,,,,,,,,,,,,,,,,,,,,,,,,,,,,,,,,,,,,,,,,,,,,,,,,,,,,,,,,,,,,,,,,,,,,,,,,,,,,,,,,,,,,,,,,
,,,,,,5cabf58293e29a0016018c30,62bbfac6b1da8ea619ee871c,2022-06-29_09h11.52,Colour_Asymmetry_Pilot,2022.1.3,MacIntel,58.82352941,62bbe60bf3d75ef465d3e404,0,156,156,141,1,threefour,,,,,,,,,,,,,,,,,,,,,,,,,,,,,,,,,,,,,,,,,,,,,,,,,,,,,,,,,,,,,,,,,,,,,,,,,,,,,,,,,,,,,,,,,,,,,,,,,,,,,,,,,,,,,,,,,,,,,,,,,,,,,,,,,,,,,,,,,,,,,,,,,,,,,,,,
,,,,,,5cabf58293e29a0016018c30,62bbfac6b1da8ea619ee871c,2022-06-29_09h11.52,Colour_Asymmetry_Pilot,2022.1.3,MacIntel,58.82352941,62bbe60bf3d75ef465d3e404,0,157,157,35,1,twofour,,,,,,,,,,,,,,,,,,,,,,,,,,,,,,,,,,,,,,,,,,,,,,,,,,,,,,,,,,,,,,,,,,,,,,,,,,,,,,,,,,,,,,,,,,,,,,,,,,,,,,,,,,,,,,,,,,,,,,,,,,,,,,,,,,,,,,,,,,,,,,,,,,,,,,,,
,,,,,,5cabf58293e29a0016018c30,62bbfac6b1da8ea619ee871c,2022-06-29_09h11.52,Colour_Asymmetry_Pilot,2022.1.3,MacIntel,58.82352941,62bbe60bf3d75ef465d3e404,0,158,158,15,1,fourthree,,,,,,,,,,,,,,,,,,,,,,,,,,,,,,,,,,,,,,,,,,,,,,,,,,,,,,,,,,,,,,,,,,,,,,,,,,,,,,,,,,,,,,,,,,,,,,,,,,,,,,,,,,,,,,,,,,,,,,,,,,,,,,,,,,,,,,,,,,,,,,,,,,,,,,,,
,,,,,,5cabf58293e29a0016018c30,62bbfac6b1da8ea619ee871c,2022-06-29_09h11.52,Colour_Asymmetry_Pilot,2022.1.3,MacIntel,58.82352941,62bbe60bf3d75ef465d3e404,0,159,159,140,1,threeone,,,,,,,,,,,,,,,,,,,,,,,,,,,,,,,,,,,,,,,,,,,,,,,,,,,,,,,,,,,,,,,,,,,,,,,,,,,,,,,,,,,,,,,,,,,,,,,,,,,,,,,,,,,,,,,,,,,,,,,,,,,,,,,,,,,,,,,,,,,,,,,,,,,,,,,,
,,,,,,5cabf58293e29a0016018c30,62bbfac6b1da8ea619ee871c,2022-06-29_09h11.52,Colour_Asymmetry_Pilot,2022.1.3,MacIntel,58.82352941,62bbe60bf3d75ef465d3e404,0,160,160,146,1,twoone,,,,,,,,,,,,,,,,,,,,,,,,,,,,,,,,,,,,,,,,,,,,,,,,,,,,,,,,,,,,,,,,,,,,,,,,,,,,,,,,,,,,,,,,,,,,,,,,,,,,,,,,,,,,,,,,,,,,,,,,,,,,,,,,,,,,,,,,,,,,,,,,,,,,,,,,
,,,,,,5cabf58293e29a0016018c30,62bbfac6b1da8ea619ee871c,2022-06-29_09h11.52,Colour_Asymmetry_Pilot,2022.1.3,MacIntel,58.82352941,62bbe60bf3d75ef465d3e404,0,161,161,81,1,onethree,,,,,,,,,,,,,,,,,,,,,,,,,,,,,,,,,,,,,,,,,,,,,,,,,,,,,,,,,,,,,,,,,,,,,,,,,,,,,,,,,,,,,,,,,,,,,,,,,,,,,,,,,,,,,,,,,,,,,,,,,,,,,,,,,,,,,,,,,,,,,,,,,,,,,,,,
,,,,,,5cabf58293e29a0016018c30,62bbfac6b1da8ea619ee871c,2022-06-29_09h11.52,Colour_Asymmetry_Pilot,2022.1.3,MacIntel,58.82352941,62bbe60bf3d75ef465d3e404,,,,,,,space,22.954,space,52.795,space,411.302,space,87.071,space,3.024,space,4.024,"[-0.011800000000000033,-0.906,-0.45100000000000007]",onethree,"[0.37240000000000006,-0.050999999999999934,-0.5216]",-4,13.661,-22,89,1,0,0,response7disk_5,4,-4,1,0,0,rectangle_8,4,-4,1,0,0,4,4,-4,1,0,0,0,0,0,0,1,,,,,,,,,,,,,,,,,,,,,,,,,,,,,,,,,,,,,,,,,,,,,,,,,,,,,,,,,,,,,,,,,,,,,,,,,,,,,,,,,,,,,,,,,,,,,,,,,,,,,,,,,,,
,,,,,,5cabf58293e29a0016018c30,62bbfac6b1da8ea619ee871c,2022-06-29_09h11.52,Colour_Asymmetry_Pilot,2022.1.3,MacIntel,58.82352941,62bbe60bf3d75ef465d3e404,,,,,,,,,,,,,,,,,,,"[0.12939999999999996,-0.2864,0.3253999999999999]",fourtwo,"[0.7018,0.7802,-0.16079999999999994]",-4,2.505,-43,87,1,0,0,response7disk_5,4,-6,1,0,0,rectangle_8,4,-6,1,0,0,4,4,-6,1,0,0,1,0,1,0,1,,,,,,,,,,,,,,,,,,,,,,,,,,,,,,,,,,,,,,,,,,,,,,,,,,,,,,,,,,,,,,,,,,,,,,,,,,,,,,,,,,,,,,,,,,,,,,,,,,,,,,,,,,,
,,,,,,5cabf58293e29a0016018c30,62bbfac6b1da8ea619ee871c,2022-06-29_09h11.52,Colour_Asymmetry_Pilot,2022.1.3,MacIntel,58.82352941,62bbe60bf3d75ef465d3e404,,,,,,,,,,,,,,,,,,,"[-0.6,0.16860000000000008,0.44300000000000006]",threefour,"[-0.10599999999999998,-0.10599999999999998,0.5841999999999998]",2,2.289,84,-52,1,0,0,response3disk_5,2,-1,1,0,0,rectangle_8,2,-1,1,0,0,4,2,-1,1,0,0,2,0,2,0,1,,,,,,,,,,,,,,,,,,,,,,,,,,,,,,,,,,,,,,,,,,,,,,,,,,,,,,,,,,,,,,,,,,,,,,,,,,,,,,,,,,,,,,,,,,,,,,,,,,,,,,,,,,,
,,,,,,5cabf58293e29a0016018c30,62bbfac6b1da8ea619ee871c,2022-06-29_09h11.52,Colour_Asymmetry_Pilot,2022.1.3,MacIntel,58.82352941,62bbe60bf3d75ef465d3e404,,,,,,,,,,,,,,,,,,,"[0.7802,-0.23140000000000005,-0.20799999999999996]",fourthree,"[-0.01980000000000004,-0.5138,-0.38039999999999996]",-3,20.077,-62,20,1,0,0,response7disk_5,7,-7,1,0,0,rectangle_8,33,72,1,0,0,4,7,-1,1,0,0,3,0,3,0,1,response1disk_7,7,rectangle_4,,,,,,,,,,,,,,,,,,,,,,,,,,,,,,,,,,,,,,,,,,,,,,,,,,,,,,,,,,,,,,,,,,,,,,,,,,,,,,,,,,,,,,,,,,,,,,,,,,,,,,,,
,,,,,,5cabf58293e29a0016018c30,62bbfac6b1da8ea619ee871c,2022-06-29_09h11.52,Colour_Asymmetry_Pilot,2022.1.3,MacIntel,58.82352941,62bbe60bf3d75ef465d3e404,,,,,,,,,,,,,,,,,,,"[-0.17659999999999998,-0.2864,-0.8354]",onetwo,"[-0.26280000000000003,-0.4746,-0.2158]",-3,1.071,-54,26,1,0,0,response7disk_5,-25,2,1,0,0,rectangle_8,-25,2,1,0,0,4,-25,2,1,0,0,4,0,4,0,1,,,,,,,,,,,,,,,,,,,,,,,,,,,,,,,,,,,,,,,,,,,,,,,,,,,,,,,,,,,,,,,,,,,,,,,,,,,,,,,,,,,,,,,,,,,,,,,,,,,,,,,,,,,
,,,,,,5cabf58293e29a0016018c30,62bbfac6b1da8ea619ee871c,2022-06-29_09h11.52,Colour_Asymmetry_Pilot,2022.1.3,MacIntel,58.82352941,62bbe60bf3d75ef465d3e404,,,,,,,,,,,,,,,,,,,"[-0.6235999999999999,-0.6786,-0.08239999999999992]",fourtwo,"[0.3802000000000001,0.19199999999999995,-0.6394]",3,92.799,82,29,1,0,0,response1disk_5,10,-9,1,0,0,rectangle_8,10,-9,1,0,0,4,10,-9,1,0,0,5,0,5,0,1,,,,,,,,,,,,,,,,,,,,,,,,,,,,,,,,,,,,,,,,,,,,,,,,,,,,,,,,,,,,,,,,,,,,,,,,,,,,,,,,,,,,,,,,,,,,,,,,,,,,,,,,,,,
,,,,,,5cabf58293e29a0016018c30,62bbfac6b1da8ea619ee871c,2022-06-29_09h11.52,Colour_Asymmetry_Pilot,2022.1.3,MacIntel,58.82352941,62bbe60bf3d75ef465d3e404,,,,,,,,,,,,,,,,,,,"[0.2784,-0.31000000000000005,-0.5452]",onethree,"[-0.07459999999999989,0.12139999999999995,-0.9922]",2,1.72,68,-36,1,0,0,response3disk_5,9,-6,1,0,0,rectangle_8,9,-6,1,0,0,4,9,-6,1,0,0,6,0,6,0,1,,,,,,,,,,,,,,,,,,,,,,,,,,,,,,,,,,,,,,,,,,,,,,,,,,,,,,,,,,,,,,,,,,,,,,,,,,,,,,,,,,,,,,,,,,,,,,,,,,,,,,,,,,,
,,,,,,5cabf58293e29a0016018c30,62bbfac6b1da8ea619ee871c,2022-06-29_09h11.52,Colour_Asymmetry_Pilot,2022.1.3,MacIntel,58.82352941,62bbe60bf3d75ef465d3e404,,,,,,,,,,,,,,,,,,,,fourthree,,-1,1.79,,,,,,,,,,,,,,,,,,,,,,,,,,,,,,,,space,4.045,"[0.2862,0.7802,0.3568]","[0.37240000000000006,-0.050999999999999934,-0.5216]",-30,-80,1,0,0,response5disk,3,0,1,0,0,rectangle,3,0,1,0,0,,2,0.013,0,3,0,1,0,0,0,0,0,113,1,32,second,,,,,,,,,,,,,,,,,,,,,,,,,,,,,,,,,,,,,,,,,,,,,,,,,,,,,,,,,,,,,,,,,,,
,,,,,,5cabf58293e29a0016018c30,62bbfac6b1da8ea619ee871c,2022-06-29_09h11.52,Colour_Asymmetry_Pilot,2022.1.3,MacIntel,58.82352941,62bbe60bf3d75ef465d3e404,,,,,,,,,,,,,,,,,,,,twoone,,2,1.553,,,,,,,,,,,,,,,,,,,,,,,,,,,,,,,,,,"[-0.17659999999999998,0.3253999999999999,0.19999999999999996]","[0.9763999999999999,0.8588,-0.05900000000000005]",83,-29,1,0,0,response3disk,5,1,1,0,0,rectangle,5,1,1,0,0,,3,0.007,0,5,1,1,0,0,0,1,1,126,1,45,second,,,,,,,,,,,,,,,,,,,,,,,,,,,,,,,,,,,,,,,,,,,,,,,,,,,,,,,,,,,,,,,,,,,
,,,,,,5cabf58293e29a0016018c30,62bbfac6b1da8ea619ee871c,2022-06-29_09h11.52,Colour_Asymmetry_Pilot,2022.1.3,MacIntel,58.82352941,62bbe60bf3d75ef465d3e404,,,,,,,,,,,,,,,,,,,,twofour,,2,1.003,,,,,,,,,,,,,,,,,,,,,,,,,,,,,,,,,,"[0.23120000000000007,-0.7726,-0.34120000000000006]","[0.19199999999999995,0.18419999999999992,0.5136000000000001]",83,-41,1,0,0,response3disk,11,7,1,0,0,rectangle,11,7,1,0,0,,1,0.006,0,11,7,1,0,0,0,2,2,144,1,63,second,,,,,,,,,,,,,,,,,,,,,,,,,,,,,,,,,,,,,,,,,,,,,,,,,,,,,,,,,,,,,,,,,,,
,,,,,,5cabf58293e29a0016018c30,62bbfac6b1da8ea619ee871c,2022-06-29_09h11.52,Colour_Asymmetry_Pilot,2022.1.3,MacIntel,58.82352941,62bbe60bf3d75ef465d3e404,,,,,,,,,,,,,,,,,,,,onetwo,,4,1.454,,,,,,,,,,,,,,,,,,,,,,,,,,,,,,,,,,"[-0.10599999999999998,-0.10599999999999998,0.5841999999999998]","[-0.9688,-0.4902000000000001,-0.12159999999999993]",48,84,1,0,0,response1disk,7,10,1,0,0,rectangle,7,10,1,0,0,,2,0.005,0,7,10,1,0,0,0,3,3,44,1,44,first,,,,,,,,,,,,,,,,,,,,,,,,,,,,,,,,,,,,,,,,,,,,,,,,,,,,,,,,,,,,,,,,,,,
,,,,,,5cabf58293e29a0016018c30,62bbfac6b1da8ea619ee871c,2022-06-29_09h11.52,Colour_Asymmetry_Pilot,2022.1.3,MacIntel,58.82352941,62bbe60bf3d75ef465d3e404,,,,,,,,,,,,,,,,,,,,twofour,,-2,1.019,,,,,,,,,,,,,,,,,,,,,,,,,,,,,,,,,,"[0.9213999999999998,0.6391999999999998,-0.9922]","[-0.24719999999999998,-0.0354000000000001,0.3175999999999999]",-69,-36,1,0,0,response5disk,-4,7,1,0,0,rectangle,-4,7,1,0,0,,1,0.007,0,-4,7,1,0,0,0,4,4,22,1,22,first,,,,,,,,,,,,,,,,,,,,,,,,,,,,,,,,,,,,,,,,,,,,,,,,,,,,,,,,,,,,,,,,,,,
,,,,,,5cabf58293e29a0016018c30,62bbfac6b1da8ea619ee871c,2022-06-29_09h11.52,Colour_Asymmetry_Pilot,2022.1.3,MacIntel,58.82352941,62bbe60bf3d75ef465d3e404,,,,,,,,,,,,,,,,,,,,threefour,,4,1.536,,,,,,,,,,,,,,,,,,,,,,,,,,,,,,,,,,"[0.3881999999999999,-0.23939999999999995,-0.05040000000000011]","[0.7802,-0.23140000000000005,-0.20799999999999996]",47,80,1,0,0,response1disk,6,-6,1,0,0,rectangle,6,-6,1,0,0,,2,0.007,0,6,-6,1,0,0,0,5,5,92,1,11,second,,,,,,,,,,,,,,,,,,,,,,,,,,,,,,,,,,,,,,,,,,,,,,,,,,,,,,,,,,,,,,,,,,,
,,,,,,5cabf58293e29a0016018c30,62bbfac6b1da8ea619ee871c,2022-06-29_09h11.52,Colour_Asymmetry_Pilot,2022.1.3,MacIntel,58.82352941,62bbe60bf3d75ef465d3e404,,,,,,,,,,,,,,,,,,,,fourtwo,,2,1.102,,,,,,,,,,,,,,,,,,,,,,,,,,,,,,,,,,"[-0.2942,-0.24719999999999998,-0.357]","[-0.5922000000000001,-0.7492000000000001,-0.5296000000000001]",67,-32,1,0,0,response3disk,10,-7,1,0,0,rectangle,10,-7,1,0,0,,2,0.001,0,10,-7,1,0,0,0,6,6,9,1,9,first,,,,,,,,,,,,,,,,,,,,,,,,,,,,,,,,,,,,,,,,,,,,,,,,,,,,,,,,,,,,,,,,,,,
,,,,,,5cabf58293e29a0016018c30,62bbfac6b1da8ea619ee871c,2022-06-29_09h11.52,Colour_Asymmetry_Pilot,2022.1.3,MacIntel,58.82352941,62bbe60bf3d75ef465d3e404,,,,,,,,,,,,,,,,,,,,fourtwo,,1,1.771,,,,,,,,,,,,,,,,,,,,,,,,,,,,,,,,,,"[-0.4902000000000001,0.2704,-0.45899999999999996]","[-0.10599999999999998,-0.10599999999999998,0.5841999999999998]",45,-72,1,0,0,response3disk,15,4,1,0,0,rectangle,15,4,1,0,0,,1,0.006,0,15,4,1,0,0,0,7,7,54,1,54,first,,,,,,,,,,,,,,,,,,,,,,,,,,,,,,,,,,,,,,,,,,,,,,,,,,,,,,,,,,,,,,,,,,,
,,,,,,5cabf58293e29a0016018c30,62bbfac6b1da8ea619ee871c,2022-06-29_09h11.52,Colour_Asymmetry_Pilot,2022.1.3,MacIntel,58.82352941,62bbe60bf3d75ef465d3e404,,,,,,,,,,,,,,,,,,,,twoone,,-1,1.336,,,,,,,,,,,,,,,,,,,,,,,,,,,,,,,,,,"[-0.10599999999999998,-0.15300000000000002,0.15280000000000005]","[0.9763999999999999,0.30979999999999985,-0.6786]",-34,-59,1,0,0,response5disk,2,-8,1,0,0,rectangle,2,-8,1,0,0,,2,0.006,0,2,-8,1,0,0,0,8,8,28,1,28,first,,,,,,,,,,,,,,,,,,,,,,,,,,,,,,,,,,,,,,,,,,,,,,,,,,,,,,,,,,,,,,,,,,,
,,,,,,5cabf58293e29a0016018c30,62bbfac6b1da8ea619ee871c,2022-06-29_09h11.52,Colour_Asymmetry_Pilot,2022.1.3,MacIntel,58.82352941,62bbe60bf3d75ef465d3e404,,,,,,,,,,,,,,,,,,,,threeone,,-3,1.686,,,,,,,,,,,,,,,,,,,,,,,,,,,,,,,,,,"[0.18419999999999992,-0.4276,-0.404]","[-0.6,0.16860000000000008,0.44300000000000006]",-60,24,1,0,0,response7disk,1,-6,1,0,0,rectangle,1,-6,1,0,0,,3,0.006,0,1,-6,1,0,0,0,9,9,137,1,56,second,,,,,,,,,,,,,,,,,,,,,,,,,,,,,,,,,,,,,,,,,,,,,,,,,,,,,,,,,,,,,,,,,,,
,,,,,,5cabf58293e29a0016018c30,62bbfac6b1da8ea619ee871c,2022-06-29_09h11.52,Colour_Asymmetry_Pilot,2022.1.3,MacIntel,58.82352941,62bbe60bf3d75ef465d3e404,,,,,,,,,,,,,,,,,,,,twoone,,1,1.303,,,,,,,,,,,,,,,,,,,,,,,,,,,,,,,,,,"[0.34099999999999997,0.5841999999999998,-0.9844]","[-0.24719999999999998,-0.0354000000000001,0.3175999999999999]",44,-82,1,0,0,response3disk,8,-2,1,0,0,rectangle,8,-2,1,0,0,,1,0.006,0,8,-2,1,0,0,0,10,10,8,1,8,first,,,,,,,,,,,,,,,,,,,,,,,,,,,,,,,,,,,,,,,,,,,,,,,,,,,,,,,,,,,,,,,,,,,
,,,,,,5cabf58293e29a0016018c30,62bbfac6b1da8ea619ee871c,2022-06-29_09h11.52,Colour_Asymmetry_Pilot,2022.1.3,MacIntel,58.82352941,62bbe60bf3d75ef465d3e404,,,,,,,,,,,,,,,,,,,,threefour,,1,0.567,,,,,,,,,,,,,,,,,,,,,,,,,,,,,,,,,,"[0.9763999999999999,0.8588,-0.05900000000000005]","[-0.17659999999999998,0.3253999999999999,0.19999999999999996]",25,-52,1,0,0,response3disk,15,1,1,0,0,rectangle,15,1,1,0,0,,2,0.006,0,15,1,1,0,0,0,11,11,45,1,45,first,,,,,,,,,,,,,,,,,,,,,,,,,,,,,,,,,,,,,,,,,,,,,,,,,,,,,,,,,,,,,,,,,,,
,,,,,,5cabf58293e29a0016018c30,62bbfac6b1da8ea619ee871c,2022-06-29_09h11.52,Colour_Asymmetry_Pilot,2022.1.3,MacIntel,58.82352941,62bbe60bf3d75ef465d3e404,,,,,,,,,,,,,,,,,,,,fourtwo,,1,0.902,,,,,,,,,,,,,,,,,,,,,,,,,,,,,,,,,,"[0.0351999999999999,0.41159999999999997,0.0038000000000000256]","[-0.9216,-0.5529999999999999,-0.3962]",46,-90,1,0,0,response3disk,9,3,1,0,0,rectangle,9,3,1,0,0,,2,0.001,0,9,3,1,0,0,0,12,12,27,1,27,first,,,,,,,,,,,,,,,,,,,,,,,,,,,,,,,,,,,,,,,,,,,,,,,,,,,,,,,,,,,,,,,,,,,
,,,,,,5cabf58293e29a0016018c30,62bbfac6b1da8ea619ee871c,2022-06-29_09h11.52,Colour_Asymmetry_Pilot,2022.1.3,MacIntel,58.82352941,62bbe60bf3d75ef465d3e404,,,,,,,,,,,,,,,,,,,,onethree,,2,0.418,,,,,,,,,,,,,,,,,,,,,,,,,,,,,,,,,,"[-0.26280000000000003,-0.4746,-0.2158]","[0.19199999999999995,0.18419999999999992,0.5136000000000001]",71,-31,1,0,0,response3disk,4,2,1,0,0,rectangle,4,2,1,0,0,,3,0.006,0,4,2,1,0,0,0,13,13,59,1,59,first,,,,,,,,,,,,,,,,,,,,,,,,,,,,,,,,,,,,,,,,,,,,,,,,,,,,,,,,,,,,,,,,,,,
,,,,,,5cabf58293e29a0016018c30,62bbfac6b1da8ea619ee871c,2022-06-29_09h11.52,Colour_Asymmetry_Pilot,2022.1.3,MacIntel,58.82352941,62bbe60bf3d75ef465d3e404,,,,,,,,,,,,,,,,,,,,threeone,,-2,0.819,,,,,,,,,,,,,,,,,,,,,,,,,,,,,,,,,,"[-0.011800000000000033,-0.906,-0.45100000000000007]","[-0.6235999999999999,-0.6786,-0.08239999999999992]",-53,-26,1,0,0,response5disk,-12,-1,1,0,0,rectangle,-12,-1,1,0,0,,3,0,0,-12,-1,1,0,0,0,14,14,65,1,65,first,,,,,,,,,,,,,,,,,,,,,,,,,,,,,,,,,,,,,,,,,,,,,,,,,,,,,,,,,,,,,,,,,,,
,,,,,,5cabf58293e29a0016018c30,62bbfac6b1da8ea619ee871c,2022-06-29_09h11.52,Colour_Asymmetry_Pilot,2022.1.3,MacIntel,58.82352941,62bbe60bf3d75ef465d3e404,,,,,,,,,,,,,,,,,,,,onetwo,,-1,1.521,,,,,,,,,,,,,,,,,,,,,,,,,,,,,,,,,,"[0.34099999999999997,0.12939999999999996,-0.9766]","[0.22340000000000004,-0.9296,-0.7884]",-24,-75,1,0,0,response5disk,4,-2,1,0,0,rectangle,4,-2,1,0,0,,3,0.001,0,4,-2,1,0,0,0,15,15,153,1,72,second,,,,,,,,,,,,,,,,,,,,,,,,,,,,,,,,,,,,,,,,,,,,,,,,,,,,,,,,,,,,,,,,,,,
,,,,,,5cabf58293e29a0016018c30,62bbfac6b1da8ea619ee871c,2022-06-29_09h11.52,Colour_Asymmetry_Pilot,2022.1.3,MacIntel,58.82352941,62bbe60bf3d75ef465d3e404,,,,,,,,,,,,,,,,,,,,onethree,,1,1.254,,,,,,,,,,,,,,,,,,,,,,,,,,,,,,,,,,"[0.23920000000000008,0.2704,0.16060000000000008]","[-0.6,0.16860000000000008,0.44300000000000006]",38,-69,1,0,0,response3disk,15,-1,1,0,0,rectangle,15,-1,1,0,0,,3,0.001,0,15,-1,1,0,0,0,16,16,43,1,43,first,,,,,,,,,,,,,,,,,,,,,,,,,,,,,,,,,,,,,,,,,,,,,,,,,,,,,,,,,,,,,,,,,,,
,,,,,,5cabf58293e29a0016018c30,62bbfac6b1da8ea619ee871c,2022-06-29_09h11.52,Colour_Asymmetry_Pilot,2022.1.3,MacIntel,58.82352941,62bbe60bf3d75ef465d3e404,,,,,,,,,,,,,,,,,,,,onethree,,2,0.803,,,,,,,,,,,,,,,,,,,,,,,,,,,,,,,,,,"[-0.30200000000000005,0.14500000000000002,0.2784]","[0.19199999999999995,0.18419999999999992,0.5136000000000001]",78,-49,1,0,0,response3disk,1,-4,1,0,0,rectangle,1,-4,1,0,0,,1,0.005,0,1,-4,1,0,0,0,17,17,106,1,25,second,,,,,,,,,,,,,,,,,,,,,,,,,,,,,,,,,,,,,,,,,,,,,,,,,,,,,,,,,,,,,,,,,,,
,,,,,,5cabf58293e29a0016018c30,62bbfac6b1da8ea619ee871c,2022-06-29_09h11.52,Colour_Asymmetry_Pilot,2022.1.3,MacIntel,58.82352941,62bbe60bf3d75ef465d3e404,,,,,,,,,,,,,,,,,,,,onetwo,,-2,1.103,,,,,,,,,,,,,,,,,,,,,,,,,,,,,,,,,,"[0.6547999999999998,-0.043199999999999905,-0.011800000000000033]","[-0.45899999999999996,-0.3256,-0.9374]",-60,-42,1,0,0,response5disk,-19,5,1,0,0,rectangle,-19,5,1,0,0,,1,0,0,-19,5,1,0,0,0,18,18,158,1,77,second,,,,,,,,,,,,,,,,,,,,,,,,,,,,,,,,,,,,,,,,,,,,,,,,,,,,,,,,,,,,,,,,,,,
,,,,,,5cabf58293e29a0016018c30,62bbfac6b1da8ea619ee871c,2022-06-29_09h11.52,Colour_Asymmetry_Pilot,2022.1.3,MacIntel,58.82352941,62bbe60bf3d75ef465d3e404,,,,,,,,,,,,,,,,,,,,twofour,,1,0.964,,,,,,,,,,,,,,,,,,,,,,,,,,,,,,,,,,"[1,0.12939999999999996,-1]","[-0.38039999999999996,-0.4276,-0.1452]",41,-71,1,0,0,response3disk,10,-10,1,0,0,rectangle,10,-10,1,0,0,,3,0.005,0,10,-10,1,0,0,0,19,19,81,1,0,second,,,,,,,,,,,,,,,,,,,,,,,,,,,,,,,,,,,,,,,,,,,,,,,,,,,,,,,,,,,,,,,,,,,
,,,,,,5cabf58293e29a0016018c30,62bbfac6b1da8ea619ee871c,2022-06-29_09h11.52,Colour_Asymmetry_Pilot,2022.1.3,MacIntel,58.82352941,62bbe60bf3d75ef465d3e404,,,,,,,,,,,,,,,,,,,,fourthree,,2,0.753,,,,,,,,,,,,,,,,,,,,,,,,,,,,,,,,,,"[-0.6706000000000001,-0.6157999999999999,-0.6786]","[0.23920000000000008,0.2704,0.16060000000000008]",78,-55,1,0,0,response3disk,4,-5,1,0,0,rectangle,4,-5,1,0,0,,2,0.006,0,4,-5,1,0,0,0,20,20,93,1,12,second,,,,,,,,,,,,,,,,,,,,,,,,,,,,,,,,,,,,,,,,,,,,,,,,,,,,,,,,,,,,,,,,,,,
