trials.thisRepN,trials.thisTrialN,trials.thisN,trials.thisIndex,trials.ran,Colourcodes,participant,session,date,expName,psychopyVersion,OS,frameRate,study_id,trials_4.thisRepN,trials_4.thisTrialN,trials_4.thisN,trials_4.thisIndex,trials_4.ran,StimulusPos,key_resp.keys,key_resp.rt,key_resp_2.keys,key_resp_2.rt,key_resp_15.keys,key_resp_15.rt,key_resp_17.keys,key_resp_17.rt,key_resp_9.keys,key_resp_9.rt,key_resp_10.keys,key_resp_10.rt,Circle1_col,Ecc,Circle2_col,similarity,response_time,mouse_5.x,mouse_5.y,mouse_5.leftButton,mouse_5.midButton,mouse_5.rightButton,mouse_5.clicked_name,mouse_10.x,mouse_10.y,mouse_10.leftButton,mouse_10.midButton,mouse_10.rightButton,mouse_10.clicked_name,mouse_7.x,mouse_7.y,mouse_7.leftButton,mouse_7.midButton,mouse_7.rightButton,catchnumberprac,mouse_6.x,mouse_6.y,mouse_6.leftButton,mouse_6.midButton,mouse_6.rightButton,duringprac.thisRepN,duringprac.thisTrialN,duringprac.thisN,duringprac.thisIndex,duringprac.ran,mouse_7.clicked_name,catchprac,mouse_6.clicked_name,key_resp_22.keys,key_resp_22.rt,Circle1_colour,Circle2_colour,mouse.x,mouse.y,mouse.leftButton,mouse.midButton,mouse.rightButton,mouse.clicked_name,mouse_2.x,mouse_2.y,mouse_2.leftButton,mouse_2.midButton,mouse_2.rightButton,mouse_2.clicked_name,mouse_3.x,mouse_3.y,mouse_3.leftButton,mouse_3.midButton,mouse_3.rightButton,catchresponse,catchnumber,response_time_catch,Catch,mouse_11.x,mouse_11.y,mouse_11.leftButton,mouse_11.midButton,mouse_11.rightButton,trials_2.thisRepN,trials_2.thisTrialN,trials_2.thisN,trials_2.thisIndex,trials_2.ran,Colourpair,Temporder,mouse_3.clicked_name,mouse_11.clicked_name,trials_3.thisRepN,trials_3.thisTrialN,trials_3.thisN,trials_3.thisIndex,trials_3.ran,key_resp_instr_Ishi.keys,key_resp_instr_Ishi.rt,Ishi_trial_keyresp.keys,Ishi_trial_keyresp.rt,Ishi_textbox.text,Ishi_loop.thisRepN,Ishi_loop.thisTrialN,Ishi_loop.thisN,Ishi_loop.thisIndex,Ishi_loop.ran,imageaddress,textbox.text,mouse_4.x,mouse_4.y,mouse_4.leftButton,mouse_4.midButton,mouse_4.rightButton,mouse_4.clicked_name,textbox_2.text,mouse_8.x,mouse_8.y,mouse_8.leftButton,mouse_8.midButton,mouse_8.rightButton,mouse_8.clicked_name,textbox_3.text,mouse_9.x,mouse_9.y,mouse_9.leftButton,mouse_9.midButton,mouse_9.rightButton,mouse_9.clicked_name,textbox_4.text,mouse_12.x,mouse_12.y,mouse_12.leftButton,mouse_12.midButton,mouse_12.rightButton,mouse_12.clicked_name,textbox_5.text,mouse_13.x,mouse_13.y,mouse_13.leftButton,mouse_13.midButton,mouse_13.rightButton,mouse_13.clicked_name,textbox_6.text,mouse_14.x,mouse_14.y,mouse_14.leftButton,mouse_14.midButton,mouse_14.rightButton,mouse_14.clicked_name,textbox_7.text,mouse_15.x,mouse_15.y,mouse_15.leftButton,mouse_15.midButton,mouse_15.rightButton,mouse_15.clicked_name
0,0,0,18,1,,60fc7f3f9cc85bfba63d07b5,62bbf9edd9725e00c7cc9778,2022-06-29_09h16.22.413,Colour_Asymmetry_Pilot,2022.1.3,Win32,40.01920922,62bbe60bf3d75ef465d3e404,,,,,,,,,,,,,,,,,,,,,,,,,,,,,,,,,,,,,,,,,,,,,,,,,,,,,,,,,,,,,,,,,,,,,,,,,,,,,,,,,,,,,,,,,,,,,,,,,,,,,,,,,,,,,,,,,,,,,,,,,,,,,,,,,,,,,,,,,,,,,,,,,,,,,,,,,,,,,,
0,1,1,78,1,,60fc7f3f9cc85bfba63d07b5,62bbf9edd9725e00c7cc9778,2022-06-29_09h16.22.413,Colour_Asymmetry_Pilot,2022.1.3,Win32,40.01920922,62bbe60bf3d75ef465d3e404,,,,,,,,,,,,,,,,,,,,,,,,,,,,,,,,,,,,,,,,,,,,,,,,,,,,,,,,,,,,,,,,,,,,,,,,,,,,,,,,,,,,,,,,,,,,,,,,,,,,,,,,,,,,,,,,,,,,,,,,,,,,,,,,,,,,,,,,,,,,,,,,,,,,,,,,,,,,,,
0,2,2,8,1,,60fc7f3f9cc85bfba63d07b5,62bbf9edd9725e00c7cc9778,2022-06-29_09h16.22.413,Colour_Asymmetry_Pilot,2022.1.3,Win32,40.01920922,62bbe60bf3d75ef465d3e404,,,,,,,,,,,,,,,,,,,,,,,,,,,,,,,,,,,,,,,,,,,,,,,,,,,,,,,,,,,,,,,,,,,,,,,,,,,,,,,,,,,,,,,,,,,,,,,,,,,,,,,,,,,,,,,,,,,,,,,,,,,,,,,,,,,,,,,,,,,,,,,,,,,,,,,,,,,,,,
0,3,3,81,1,,60fc7f3f9cc85bfba63d07b5,62bbf9edd9725e00c7cc9778,2022-06-29_09h16.22.413,Colour_Asymmetry_Pilot,2022.1.3,Win32,40.01920922,62bbe60bf3d75ef465d3e404,,,,,,,,,,,,,,,,,,,,,,,,,,,,,,,,,,,,,,,,,,,,,,,,,,,,,,,,,,,,,,,,,,,,,,,,,,,,,,,,,,,,,,,,,,,,,,,,,,,,,,,,,,,,,,,,,,,,,,,,,,,,,,,,,,,,,,,,,,,,,,,,,,,,,,,,,,,,,,
0,4,4,72,1,,60fc7f3f9cc85bfba63d07b5,62bbf9edd9725e00c7cc9778,2022-06-29_09h16.22.413,Colour_Asymmetry_Pilot,2022.1.3,Win32,40.01920922,62bbe60bf3d75ef465d3e404,,,,,,,,,,,,,,,,,,,,,,,,,,,,,,,,,,,,,,,,,,,,,,,,,,,,,,,,,,,,,,,,,,,,,,,,,,,,,,,,,,,,,,,,,,,,,,,,,,,,,,,,,,,,,,,,,,,,,,,,,,,,,,,,,,,,,,,,,,,,,,,,,,,,,,,,,,,,,,
0,5,5,3,1,,60fc7f3f9cc85bfba63d07b5,62bbf9edd9725e00c7cc9778,2022-06-29_09h16.22.413,Colour_Asymmetry_Pilot,2022.1.3,Win32,40.01920922,62bbe60bf3d75ef465d3e404,,,,,,,,,,,,,,,,,,,,,,,,,,,,,,,,,,,,,,,,,,,,,,,,,,,,,,,,,,,,,,,,,,,,,,,,,,,,,,,,,,,,,,,,,,,,,,,,,,,,,,,,,,,,,,,,,,,,,,,,,,,,,,,,,,,,,,,,,,,,,,,,,,,,,,,,,,,,,,
0,6,6,79,1,,60fc7f3f9cc85bfba63d07b5,62bbf9edd9725e00c7cc9778,2022-06-29_09h16.22.413,Colour_Asymmetry_Pilot,2022.1.3,Win32,40.01920922,62bbe60bf3d75ef465d3e404,,,,,,,,,,,,,,,,,,,,,,,,,,,,,,,,,,,,,,,,,,,,,,,,,,,,,,,,,,,,,,,,,,,,,,,,,,,,,,,,,,,,,,,,,,,,,,,,,,,,,,,,,,,,,,,,,,,,,,,,,,,,,,,,,,,,,,,,,,,,,,,,,,,,,,,,,,,,,,
0,7,7,38,1,,60fc7f3f9cc85bfba63d07b5,62bbf9edd9725e00c7cc9778,2022-06-29_09h16.22.413,Colour_Asymmetry_Pilot,2022.1.3,Win32,40.01920922,62bbe60bf3d75ef465d3e404,,,,,,,,,,,,,,,,,,,,,,,,,,,,,,,,,,,,,,,,,,,,,,,,,,,,,,,,,,,,,,,,,,,,,,,,,,,,,,,,,,,,,,,,,,,,,,,,,,,,,,,,,,,,,,,,,,,,,,,,,,,,,,,,,,,,,,,,,,,,,,,,,,,,,,,,,,,,,,
0,8,8,31,1,,60fc7f3f9cc85bfba63d07b5,62bbf9edd9725e00c7cc9778,2022-06-29_09h16.22.413,Colour_Asymmetry_Pilot,2022.1.3,Win32,40.01920922,62bbe60bf3d75ef465d3e404,,,,,,,,,,,,,,,,,,,,,,,,,,,,,,,,,,,,,,,,,,,,,,,,,,,,,,,,,,,,,,,,,,,,,,,,,,,,,,,,,,,,,,,,,,,,,,,,,,,,,,,,,,,,,,,,,,,,,,,,,,,,,,,,,,,,,,,,,,,,,,,,,,,,,,,,,,,,,,
0,9,9,54,1,,60fc7f3f9cc85bfba63d07b5,62bbf9edd9725e00c7cc9778,2022-06-29_09h16.22.413,Colour_Asymmetry_Pilot,2022.1.3,Win32,40.01920922,62bbe60bf3d75ef465d3e404,,,,,,,,,,,,,,,,,,,,,,,,,,,,,,,,,,,,,,,,,,,,,,,,,,,,,,,,,,,,,,,,,,,,,,,,,,,,,,,,,,,,,,,,,,,,,,,,,,,,,,,,,,,,,,,,,,,,,,,,,,,,,,,,,,,,,,,,,,,,,,,,,,,,,,,,,,,,,,
0,10,10,55,1,,60fc7f3f9cc85bfba63d07b5,62bbf9edd9725e00c7cc9778,2022-06-29_09h16.22.413,Colour_Asymmetry_Pilot,2022.1.3,Win32,40.01920922,62bbe60bf3d75ef465d3e404,,,,,,,,,,,,,,,,,,,,,,,,,,,,,,,,,,,,,,,,,,,,,,,,,,,,,,,,,,,,,,,,,,,,,,,,,,,,,,,,,,,,,,,,,,,,,,,,,,,,,,,,,,,,,,,,,,,,,,,,,,,,,,,,,,,,,,,,,,,,,,,,,,,,,,,,,,,,,,
0,11,11,77,1,,60fc7f3f9cc85bfba63d07b5,62bbf9edd9725e00c7cc9778,2022-06-29_09h16.22.413,Colour_Asymmetry_Pilot,2022.1.3,Win32,40.01920922,62bbe60bf3d75ef465d3e404,,,,,,,,,,,,,,,,,,,,,,,,,,,,,,,,,,,,,,,,,,,,,,,,,,,,,,,,,,,,,,,,,,,,,,,,,,,,,,,,,,,,,,,,,,,,,,,,,,,,,,,,,,,,,,,,,,,,,,,,,,,,,,,,,,,,,,,,,,,,,,,,,,,,,,,,,,,,,,
0,12,12,51,1,,60fc7f3f9cc85bfba63d07b5,62bbf9edd9725e00c7cc9778,2022-06-29_09h16.22.413,Colour_Asymmetry_Pilot,2022.1.3,Win32,40.01920922,62bbe60bf3d75ef465d3e404,,,,,,,,,,,,,,,,,,,,,,,,,,,,,,,,,,,,,,,,,,,,,,,,,,,,,,,,,,,,,,,,,,,,,,,,,,,,,,,,,,,,,,,,,,,,,,,,,,,,,,,,,,,,,,,,,,,,,,,,,,,,,,,,,,,,,,,,,,,,,,,,,,,,,,,,,,,,,,
0,13,13,6,1,,60fc7f3f9cc85bfba63d07b5,62bbf9edd9725e00c7cc9778,2022-06-29_09h16.22.413,Colour_Asymmetry_Pilot,2022.1.3,Win32,40.01920922,62bbe60bf3d75ef465d3e404,,,,,,,,,,,,,,,,,,,,,,,,,,,,,,,,,,,,,,,,,,,,,,,,,,,,,,,,,,,,,,,,,,,,,,,,,,,,,,,,,,,,,,,,,,,,,,,,,,,,,,,,,,,,,,,,,,,,,,,,,,,,,,,,,,,,,,,,,,,,,,,,,,,,,,,,,,,,,,
0,14,14,0,1,,60fc7f3f9cc85bfba63d07b5,62bbf9edd9725e00c7cc9778,2022-06-29_09h16.22.413,Colour_Asymmetry_Pilot,2022.1.3,Win32,40.01920922,62bbe60bf3d75ef465d3e404,,,,,,,,,,,,,,,,,,,,,,,,,,,,,,,,,,,,,,,,,,,,,,,,,,,,,,,,,,,,,,,,,,,,,,,,,,,,,,,,,,,,,,,,,,,,,,,,,,,,,,,,,,,,,,,,,,,,,,,,,,,,,,,,,,,,,,,,,,,,,,,,,,,,,,,,,,,,,,
0,15,15,27,1,,60fc7f3f9cc85bfba63d07b5,62bbf9edd9725e00c7cc9778,2022-06-29_09h16.22.413,Colour_Asymmetry_Pilot,2022.1.3,Win32,40.01920922,62bbe60bf3d75ef465d3e404,,,,,,,,,,,,,,,,,,,,,,,,,,,,,,,,,,,,,,,,,,,,,,,,,,,,,,,,,,,,,,,,,,,,,,,,,,,,,,,,,,,,,,,,,,,,,,,,,,,,,,,,,,,,,,,,,,,,,,,,,,,,,,,,,,,,,,,,,,,,,,,,,,,,,,,,,,,,,,
0,16,16,26,1,,60fc7f3f9cc85bfba63d07b5,62bbf9edd9725e00c7cc9778,2022-06-29_09h16.22.413,Colour_Asymmetry_Pilot,2022.1.3,Win32,40.01920922,62bbe60bf3d75ef465d3e404,,,,,,,,,,,,,,,,,,,,,,,,,,,,,,,,,,,,,,,,,,,,,,,,,,,,,,,,,,,,,,,,,,,,,,,,,,,,,,,,,,,,,,,,,,,,,,,,,,,,,,,,,,,,,,,,,,,,,,,,,,,,,,,,,,,,,,,,,,,,,,,,,,,,,,,,,,,,,,
0,17,17,42,1,,60fc7f3f9cc85bfba63d07b5,62bbf9edd9725e00c7cc9778,2022-06-29_09h16.22.413,Colour_Asymmetry_Pilot,2022.1.3,Win32,40.01920922,62bbe60bf3d75ef465d3e404,,,,,,,,,,,,,,,,,,,,,,,,,,,,,,,,,,,,,,,,,,,,,,,,,,,,,,,,,,,,,,,,,,,,,,,,,,,,,,,,,,,,,,,,,,,,,,,,,,,,,,,,,,,,,,,,,,,,,,,,,,,,,,,,,,,,,,,,,,,,,,,,,,,,,,,,,,,,,,
0,18,18,22,1,,60fc7f3f9cc85bfba63d07b5,62bbf9edd9725e00c7cc9778,2022-06-29_09h16.22.413,Colour_Asymmetry_Pilot,2022.1.3,Win32,40.01920922,62bbe60bf3d75ef465d3e404,,,,,,,,,,,,,,,,,,,,,,,,,,,,,,,,,,,,,,,,,,,,,,,,,,,,,,,,,,,,,,,,,,,,,,,,,,,,,,,,,,,,,,,,,,,,,,,,,,,,,,,,,,,,,,,,,,,,,,,,,,,,,,,,,,,,,,,,,,,,,,,,,,,,,,,,,,,,,,
0,19,19,30,1,,60fc7f3f9cc85bfba63d07b5,62bbf9edd9725e00c7cc9778,2022-06-29_09h16.22.413,Colour_Asymmetry_Pilot,2022.1.3,Win32,40.01920922,62bbe60bf3d75ef465d3e404,,,,,,,,,,,,,,,,,,,,,,,,,,,,,,,,,,,,,,,,,,,,,,,,,,,,,,,,,,,,,,,,,,,,,,,,,,,,,,,,,,,,,,,,,,,,,,,,,,,,,,,,,,,,,,,,,,,,,,,,,,,,,,,,,,,,,,,,,,,,,,,,,,,,,,,,,,,,,,
0,20,20,59,1,,60fc7f3f9cc85bfba63d07b5,62bbf9edd9725e00c7cc9778,2022-06-29_09h16.22.413,Colour_Asymmetry_Pilot,2022.1.3,Win32,40.01920922,62bbe60bf3d75ef465d3e404,,,,,,,,,,,,,,,,,,,,,,,,,,,,,,,,,,,,,,,,,,,,,,,,,,,,,,,,,,,,,,,,,,,,,,,,,,,,,,,,,,,,,,,,,,,,,,,,,,,,,,,,,,,,,,,,,,,,,,,,,,,,,,,,,,,,,,,,,,,,,,,,,,,,,,,,,,,,,,
0,21,21,58,1,,60fc7f3f9cc85bfba63d07b5,62bbf9edd9725e00c7cc9778,2022-06-29_09h16.22.413,Colour_Asymmetry_Pilot,2022.1.3,Win32,40.01920922,62bbe60bf3d75ef465d3e404,,,,,,,,,,,,,,,,,,,,,,,,,,,,,,,,,,,,,,,,,,,,,,,,,,,,,,,,,,,,,,,,,,,,,,,,,,,,,,,,,,,,,,,,,,,,,,,,,,,,,,,,,,,,,,,,,,,,,,,,,,,,,,,,,,,,,,,,,,,,,,,,,,,,,,,,,,,,,,
0,22,22,64,1,,60fc7f3f9cc85bfba63d07b5,62bbf9edd9725e00c7cc9778,2022-06-29_09h16.22.413,Colour_Asymmetry_Pilot,2022.1.3,Win32,40.01920922,62bbe60bf3d75ef465d3e404,,,,,,,,,,,,,,,,,,,,,,,,,,,,,,,,,,,,,,,,,,,,,,,,,,,,,,,,,,,,,,,,,,,,,,,,,,,,,,,,,,,,,,,,,,,,,,,,,,,,,,,,,,,,,,,,,,,,,,,,,,,,,,,,,,,,,,,,,,,,,,,,,,,,,,,,,,,,,,
0,23,23,88,1,,60fc7f3f9cc85bfba63d07b5,62bbf9edd9725e00c7cc9778,2022-06-29_09h16.22.413,Colour_Asymmetry_Pilot,2022.1.3,Win32,40.01920922,62bbe60bf3d75ef465d3e404,,,,,,,,,,,,,,,,,,,,,,,,,,,,,,,,,,,,,,,,,,,,,,,,,,,,,,,,,,,,,,,,,,,,,,,,,,,,,,,,,,,,,,,,,,,,,,,,,,,,,,,,,,,,,,,,,,,,,,,,,,,,,,,,,,,,,,,,,,,,,,,,,,,,,,,,,,,,,,
0,24,24,63,1,,60fc7f3f9cc85bfba63d07b5,62bbf9edd9725e00c7cc9778,2022-06-29_09h16.22.413,Colour_Asymmetry_Pilot,2022.1.3,Win32,40.01920922,62bbe60bf3d75ef465d3e404,,,,,,,,,,,,,,,,,,,,,,,,,,,,,,,,,,,,,,,,,,,,,,,,,,,,,,,,,,,,,,,,,,,,,,,,,,,,,,,,,,,,,,,,,,,,,,,,,,,,,,,,,,,,,,,,,,,,,,,,,,,,,,,,,,,,,,,,,,,,,,,,,,,,,,,,,,,,,,
0,25,25,13,1,,60fc7f3f9cc85bfba63d07b5,62bbf9edd9725e00c7cc9778,2022-06-29_09h16.22.413,Colour_Asymmetry_Pilot,2022.1.3,Win32,40.01920922,62bbe60bf3d75ef465d3e404,,,,,,,,,,,,,,,,,,,,,,,,,,,,,,,,,,,,,,,,,,,,,,,,,,,,,,,,,,,,,,,,,,,,,,,,,,,,,,,,,,,,,,,,,,,,,,,,,,,,,,,,,,,,,,,,,,,,,,,,,,,,,,,,,,,,,,,,,,,,,,,,,,,,,,,,,,,,,,
0,26,26,44,1,,60fc7f3f9cc85bfba63d07b5,62bbf9edd9725e00c7cc9778,2022-06-29_09h16.22.413,Colour_Asymmetry_Pilot,2022.1.3,Win32,40.01920922,62bbe60bf3d75ef465d3e404,,,,,,,,,,,,,,,,,,,,,,,,,,,,,,,,,,,,,,,,,,,,,,,,,,,,,,,,,,,,,,,,,,,,,,,,,,,,,,,,,,,,,,,,,,,,,,,,,,,,,,,,,,,,,,,,,,,,,,,,,,,,,,,,,,,,,,,,,,,,,,,,,,,,,,,,,,,,,,
0,27,27,50,1,,60fc7f3f9cc85bfba63d07b5,62bbf9edd9725e00c7cc9778,2022-06-29_09h16.22.413,Colour_Asymmetry_Pilot,2022.1.3,Win32,40.01920922,62bbe60bf3d75ef465d3e404,,,,,,,,,,,,,,,,,,,,,,,,,,,,,,,,,,,,,,,,,,,,,,,,,,,,,,,,,,,,,,,,,,,,,,,,,,,,,,,,,,,,,,,,,,,,,,,,,,,,,,,,,,,,,,,,,,,,,,,,,,,,,,,,,,,,,,,,,,,,,,,,,,,,,,,,,,,,,,
0,28,28,15,1,,60fc7f3f9cc85bfba63d07b5,62bbf9edd9725e00c7cc9778,2022-06-29_09h16.22.413,Colour_Asymmetry_Pilot,2022.1.3,Win32,40.01920922,62bbe60bf3d75ef465d3e404,,,,,,,,,,,,,,,,,,,,,,,,,,,,,,,,,,,,,,,,,,,,,,,,,,,,,,,,,,,,,,,,,,,,,,,,,,,,,,,,,,,,,,,,,,,,,,,,,,,,,,,,,,,,,,,,,,,,,,,,,,,,,,,,,,,,,,,,,,,,,,,,,,,,,,,,,,,,,,
0,29,29,2,1,,60fc7f3f9cc85bfba63d07b5,62bbf9edd9725e00c7cc9778,2022-06-29_09h16.22.413,Colour_Asymmetry_Pilot,2022.1.3,Win32,40.01920922,62bbe60bf3d75ef465d3e404,,,,,,,,,,,,,,,,,,,,,,,,,,,,,,,,,,,,,,,,,,,,,,,,,,,,,,,,,,,,,,,,,,,,,,,,,,,,,,,,,,,,,,,,,,,,,,,,,,,,,,,,,,,,,,,,,,,,,,,,,,,,,,,,,,,,,,,,,,,,,,,,,,,,,,,,,,,,,,
0,30,30,9,1,,60fc7f3f9cc85bfba63d07b5,62bbf9edd9725e00c7cc9778,2022-06-29_09h16.22.413,Colour_Asymmetry_Pilot,2022.1.3,Win32,40.01920922,62bbe60bf3d75ef465d3e404,,,,,,,,,,,,,,,,,,,,,,,,,,,,,,,,,,,,,,,,,,,,,,,,,,,,,,,,,,,,,,,,,,,,,,,,,,,,,,,,,,,,,,,,,,,,,,,,,,,,,,,,,,,,,,,,,,,,,,,,,,,,,,,,,,,,,,,,,,,,,,,,,,,,,,,,,,,,,,
0,31,31,69,1,,60fc7f3f9cc85bfba63d07b5,62bbf9edd9725e00c7cc9778,2022-06-29_09h16.22.413,Colour_Asymmetry_Pilot,2022.1.3,Win32,40.01920922,62bbe60bf3d75ef465d3e404,,,,,,,,,,,,,,,,,,,,,,,,,,,,,,,,,,,,,,,,,,,,,,,,,,,,,,,,,,,,,,,,,,,,,,,,,,,,,,,,,,,,,,,,,,,,,,,,,,,,,,,,,,,,,,,,,,,,,,,,,,,,,,,,,,,,,,,,,,,,,,,,,,,,,,,,,,,,,,
0,32,32,49,1,,60fc7f3f9cc85bfba63d07b5,62bbf9edd9725e00c7cc9778,2022-06-29_09h16.22.413,Colour_Asymmetry_Pilot,2022.1.3,Win32,40.01920922,62bbe60bf3d75ef465d3e404,,,,,,,,,,,,,,,,,,,,,,,,,,,,,,,,,,,,,,,,,,,,,,,,,,,,,,,,,,,,,,,,,,,,,,,,,,,,,,,,,,,,,,,,,,,,,,,,,,,,,,,,,,,,,,,,,,,,,,,,,,,,,,,,,,,,,,,,,,,,,,,,,,,,,,,,,,,,,,
0,33,33,23,1,,60fc7f3f9cc85bfba63d07b5,62bbf9edd9725e00c7cc9778,2022-06-29_09h16.22.413,Colour_Asymmetry_Pilot,2022.1.3,Win32,40.01920922,62bbe60bf3d75ef465d3e404,,,,,,,,,,,,,,,,,,,,,,,,,,,,,,,,,,,,,,,,,,,,,,,,,,,,,,,,,,,,,,,,,,,,,,,,,,,,,,,,,,,,,,,,,,,,,,,,,,,,,,,,,,,,,,,,,,,,,,,,,,,,,,,,,,,,,,,,,,,,,,,,,,,,,,,,,,,,,,
0,34,34,17,1,,60fc7f3f9cc85bfba63d07b5,62bbf9edd9725e00c7cc9778,2022-06-29_09h16.22.413,Colour_Asymmetry_Pilot,2022.1.3,Win32,40.01920922,62bbe60bf3d75ef465d3e404,,,,,,,,,,,,,,,,,,,,,,,,,,,,,,,,,,,,,,,,,,,,,,,,,,,,,,,,,,,,,,,,,,,,,,,,,,,,,,,,,,,,,,,,,,,,,,,,,,,,,,,,,,,,,,,,,,,,,,,,,,,,,,,,,,,,,,,,,,,,,,,,,,,,,,,,,,,,,,
0,35,35,75,1,,60fc7f3f9cc85bfba63d07b5,62bbf9edd9725e00c7cc9778,2022-06-29_09h16.22.413,Colour_Asymmetry_Pilot,2022.1.3,Win32,40.01920922,62bbe60bf3d75ef465d3e404,,,,,,,,,,,,,,,,,,,,,,,,,,,,,,,,,,,,,,,,,,,,,,,,,,,,,,,,,,,,,,,,,,,,,,,,,,,,,,,,,,,,,,,,,,,,,,,,,,,,,,,,,,,,,,,,,,,,,,,,,,,,,,,,,,,,,,,,,,,,,,,,,,,,,,,,,,,,,,
0,36,36,39,1,,60fc7f3f9cc85bfba63d07b5,62bbf9edd9725e00c7cc9778,2022-06-29_09h16.22.413,Colour_Asymmetry_Pilot,2022.1.3,Win32,40.01920922,62bbe60bf3d75ef465d3e404,,,,,,,,,,,,,,,,,,,,,,,,,,,,,,,,,,,,,,,,,,,,,,,,,,,,,,,,,,,,,,,,,,,,,,,,,,,,,,,,,,,,,,,,,,,,,,,,,,,,,,,,,,,,,,,,,,,,,,,,,,,,,,,,,,,,,,,,,,,,,,,,,,,,,,,,,,,,,,
0,37,37,65,1,,60fc7f3f9cc85bfba63d07b5,62bbf9edd9725e00c7cc9778,2022-06-29_09h16.22.413,Colour_Asymmetry_Pilot,2022.1.3,Win32,40.01920922,62bbe60bf3d75ef465d3e404,,,,,,,,,,,,,,,,,,,,,,,,,,,,,,,,,,,,,,,,,,,,,,,,,,,,,,,,,,,,,,,,,,,,,,,,,,,,,,,,,,,,,,,,,,,,,,,,,,,,,,,,,,,,,,,,,,,,,,,,,,,,,,,,,,,,,,,,,,,,,,,,,,,,,,,,,,,,,,
0,38,38,7,1,,60fc7f3f9cc85bfba63d07b5,62bbf9edd9725e00c7cc9778,2022-06-29_09h16.22.413,Colour_Asymmetry_Pilot,2022.1.3,Win32,40.01920922,62bbe60bf3d75ef465d3e404,,,,,,,,,,,,,,,,,,,,,,,,,,,,,,,,,,,,,,,,,,,,,,,,,,,,,,,,,,,,,,,,,,,,,,,,,,,,,,,,,,,,,,,,,,,,,,,,,,,,,,,,,,,,,,,,,,,,,,,,,,,,,,,,,,,,,,,,,,,,,,,,,,,,,,,,,,,,,,
0,39,39,32,1,,60fc7f3f9cc85bfba63d07b5,62bbf9edd9725e00c7cc9778,2022-06-29_09h16.22.413,Colour_Asymmetry_Pilot,2022.1.3,Win32,40.01920922,62bbe60bf3d75ef465d3e404,,,,,,,,,,,,,,,,,,,,,,,,,,,,,,,,,,,,,,,,,,,,,,,,,,,,,,,,,,,,,,,,,,,,,,,,,,,,,,,,,,,,,,,,,,,,,,,,,,,,,,,,,,,,,,,,,,,,,,,,,,,,,,,,,,,,,,,,,,,,,,,,,,,,,,,,,,,,,,
0,40,40,89,1,,60fc7f3f9cc85bfba63d07b5,62bbf9edd9725e00c7cc9778,2022-06-29_09h16.22.413,Colour_Asymmetry_Pilot,2022.1.3,Win32,40.01920922,62bbe60bf3d75ef465d3e404,,,,,,,,,,,,,,,,,,,,,,,,,,,,,,,,,,,,,,,,,,,,,,,,,,,,,,,,,,,,,,,,,,,,,,,,,,,,,,,,,,,,,,,,,,,,,,,,,,,,,,,,,,,,,,,,,,,,,,,,,,,,,,,,,,,,,,,,,,,,,,,,,,,,,,,,,,,,,,
0,41,41,74,1,,60fc7f3f9cc85bfba63d07b5,62bbf9edd9725e00c7cc9778,2022-06-29_09h16.22.413,Colour_Asymmetry_Pilot,2022.1.3,Win32,40.01920922,62bbe60bf3d75ef465d3e404,,,,,,,,,,,,,,,,,,,,,,,,,,,,,,,,,,,,,,,,,,,,,,,,,,,,,,,,,,,,,,,,,,,,,,,,,,,,,,,,,,,,,,,,,,,,,,,,,,,,,,,,,,,,,,,,,,,,,,,,,,,,,,,,,,,,,,,,,,,,,,,,,,,,,,,,,,,,,,
0,42,42,56,1,,60fc7f3f9cc85bfba63d07b5,62bbf9edd9725e00c7cc9778,2022-06-29_09h16.22.413,Colour_Asymmetry_Pilot,2022.1.3,Win32,40.01920922,62bbe60bf3d75ef465d3e404,,,,,,,,,,,,,,,,,,,,,,,,,,,,,,,,,,,,,,,,,,,,,,,,,,,,,,,,,,,,,,,,,,,,,,,,,,,,,,,,,,,,,,,,,,,,,,,,,,,,,,,,,,,,,,,,,,,,,,,,,,,,,,,,,,,,,,,,,,,,,,,,,,,,,,,,,,,,,,
0,43,43,47,1,,60fc7f3f9cc85bfba63d07b5,62bbf9edd9725e00c7cc9778,2022-06-29_09h16.22.413,Colour_Asymmetry_Pilot,2022.1.3,Win32,40.01920922,62bbe60bf3d75ef465d3e404,,,,,,,,,,,,,,,,,,,,,,,,,,,,,,,,,,,,,,,,,,,,,,,,,,,,,,,,,,,,,,,,,,,,,,,,,,,,,,,,,,,,,,,,,,,,,,,,,,,,,,,,,,,,,,,,,,,,,,,,,,,,,,,,,,,,,,,,,,,,,,,,,,,,,,,,,,,,,,
0,44,44,61,1,,60fc7f3f9cc85bfba63d07b5,62bbf9edd9725e00c7cc9778,2022-06-29_09h16.22.413,Colour_Asymmetry_Pilot,2022.1.3,Win32,40.01920922,62bbe60bf3d75ef465d3e404,,,,,,,,,,,,,,,,,,,,,,,,,,,,,,,,,,,,,,,,,,,,,,,,,,,,,,,,,,,,,,,,,,,,,,,,,,,,,,,,,,,,,,,,,,,,,,,,,,,,,,,,,,,,,,,,,,,,,,,,,,,,,,,,,,,,,,,,,,,,,,,,,,,,,,,,,,,,,,
0,45,45,84,1,,60fc7f3f9cc85bfba63d07b5,62bbf9edd9725e00c7cc9778,2022-06-29_09h16.22.413,Colour_Asymmetry_Pilot,2022.1.3,Win32,40.01920922,62bbe60bf3d75ef465d3e404,,,,,,,,,,,,,,,,,,,,,,,,,,,,,,,,,,,,,,,,,,,,,,,,,,,,,,,,,,,,,,,,,,,,,,,,,,,,,,,,,,,,,,,,,,,,,,,,,,,,,,,,,,,,,,,,,,,,,,,,,,,,,,,,,,,,,,,,,,,,,,,,,,,,,,,,,,,,,,
0,46,46,70,1,,60fc7f3f9cc85bfba63d07b5,62bbf9edd9725e00c7cc9778,2022-06-29_09h16.22.413,Colour_Asymmetry_Pilot,2022.1.3,Win32,40.01920922,62bbe60bf3d75ef465d3e404,,,,,,,,,,,,,,,,,,,,,,,,,,,,,,,,,,,,,,,,,,,,,,,,,,,,,,,,,,,,,,,,,,,,,,,,,,,,,,,,,,,,,,,,,,,,,,,,,,,,,,,,,,,,,,,,,,,,,,,,,,,,,,,,,,,,,,,,,,,,,,,,,,,,,,,,,,,,,,
0,47,47,35,1,,60fc7f3f9cc85bfba63d07b5,62bbf9edd9725e00c7cc9778,2022-06-29_09h16.22.413,Colour_Asymmetry_Pilot,2022.1.3,Win32,40.01920922,62bbe60bf3d75ef465d3e404,,,,,,,,,,,,,,,,,,,,,,,,,,,,,,,,,,,,,,,,,,,,,,,,,,,,,,,,,,,,,,,,,,,,,,,,,,,,,,,,,,,,,,,,,,,,,,,,,,,,,,,,,,,,,,,,,,,,,,,,,,,,,,,,,,,,,,,,,,,,,,,,,,,,,,,,,,,,,,
0,48,48,45,1,,60fc7f3f9cc85bfba63d07b5,62bbf9edd9725e00c7cc9778,2022-06-29_09h16.22.413,Colour_Asymmetry_Pilot,2022.1.3,Win32,40.01920922,62bbe60bf3d75ef465d3e404,,,,,,,,,,,,,,,,,,,,,,,,,,,,,,,,,,,,,,,,,,,,,,,,,,,,,,,,,,,,,,,,,,,,,,,,,,,,,,,,,,,,,,,,,,,,,,,,,,,,,,,,,,,,,,,,,,,,,,,,,,,,,,,,,,,,,,,,,,,,,,,,,,,,,,,,,,,,,,
0,49,49,25,1,,60fc7f3f9cc85bfba63d07b5,62bbf9edd9725e00c7cc9778,2022-06-29_09h16.22.413,Colour_Asymmetry_Pilot,2022.1.3,Win32,40.01920922,62bbe60bf3d75ef465d3e404,,,,,,,,,,,,,,,,,,,,,,,,,,,,,,,,,,,,,,,,,,,,,,,,,,,,,,,,,,,,,,,,,,,,,,,,,,,,,,,,,,,,,,,,,,,,,,,,,,,,,,,,,,,,,,,,,,,,,,,,,,,,,,,,,,,,,,,,,,,,,,,,,,,,,,,,,,,,,,
0,50,50,46,1,,60fc7f3f9cc85bfba63d07b5,62bbf9edd9725e00c7cc9778,2022-06-29_09h16.22.413,Colour_Asymmetry_Pilot,2022.1.3,Win32,40.01920922,62bbe60bf3d75ef465d3e404,,,,,,,,,,,,,,,,,,,,,,,,,,,,,,,,,,,,,,,,,,,,,,,,,,,,,,,,,,,,,,,,,,,,,,,,,,,,,,,,,,,,,,,,,,,,,,,,,,,,,,,,,,,,,,,,,,,,,,,,,,,,,,,,,,,,,,,,,,,,,,,,,,,,,,,,,,,,,,
0,51,51,12,1,,60fc7f3f9cc85bfba63d07b5,62bbf9edd9725e00c7cc9778,2022-06-29_09h16.22.413,Colour_Asymmetry_Pilot,2022.1.3,Win32,40.01920922,62bbe60bf3d75ef465d3e404,,,,,,,,,,,,,,,,,,,,,,,,,,,,,,,,,,,,,,,,,,,,,,,,,,,,,,,,,,,,,,,,,,,,,,,,,,,,,,,,,,,,,,,,,,,,,,,,,,,,,,,,,,,,,,,,,,,,,,,,,,,,,,,,,,,,,,,,,,,,,,,,,,,,,,,,,,,,,,
0,52,52,67,1,,60fc7f3f9cc85bfba63d07b5,62bbf9edd9725e00c7cc9778,2022-06-29_09h16.22.413,Colour_Asymmetry_Pilot,2022.1.3,Win32,40.01920922,62bbe60bf3d75ef465d3e404,,,,,,,,,,,,,,,,,,,,,,,,,,,,,,,,,,,,,,,,,,,,,,,,,,,,,,,,,,,,,,,,,,,,,,,,,,,,,,,,,,,,,,,,,,,,,,,,,,,,,,,,,,,,,,,,,,,,,,,,,,,,,,,,,,,,,,,,,,,,,,,,,,,,,,,,,,,,,,
0,53,53,85,1,,60fc7f3f9cc85bfba63d07b5,62bbf9edd9725e00c7cc9778,2022-06-29_09h16.22.413,Colour_Asymmetry_Pilot,2022.1.3,Win32,40.01920922,62bbe60bf3d75ef465d3e404,,,,,,,,,,,,,,,,,,,,,,,,,,,,,,,,,,,,,,,,,,,,,,,,,,,,,,,,,,,,,,,,,,,,,,,,,,,,,,,,,,,,,,,,,,,,,,,,,,,,,,,,,,,,,,,,,,,,,,,,,,,,,,,,,,,,,,,,,,,,,,,,,,,,,,,,,,,,,,
0,54,54,29,1,,60fc7f3f9cc85bfba63d07b5,62bbf9edd9725e00c7cc9778,2022-06-29_09h16.22.413,Colour_Asymmetry_Pilot,2022.1.3,Win32,40.01920922,62bbe60bf3d75ef465d3e404,,,,,,,,,,,,,,,,,,,,,,,,,,,,,,,,,,,,,,,,,,,,,,,,,,,,,,,,,,,,,,,,,,,,,,,,,,,,,,,,,,,,,,,,,,,,,,,,,,,,,,,,,,,,,,,,,,,,,,,,,,,,,,,,,,,,,,,,,,,,,,,,,,,,,,,,,,,,,,
0,55,55,24,1,,60fc7f3f9cc85bfba63d07b5,62bbf9edd9725e00c7cc9778,2022-06-29_09h16.22.413,Colour_Asymmetry_Pilot,2022.1.3,Win32,40.01920922,62bbe60bf3d75ef465d3e404,,,,,,,,,,,,,,,,,,,,,,,,,,,,,,,,,,,,,,,,,,,,,,,,,,,,,,,,,,,,,,,,,,,,,,,,,,,,,,,,,,,,,,,,,,,,,,,,,,,,,,,,,,,,,,,,,,,,,,,,,,,,,,,,,,,,,,,,,,,,,,,,,,,,,,,,,,,,,,
0,56,56,86,1,,60fc7f3f9cc85bfba63d07b5,62bbf9edd9725e00c7cc9778,2022-06-29_09h16.22.413,Colour_Asymmetry_Pilot,2022.1.3,Win32,40.01920922,62bbe60bf3d75ef465d3e404,,,,,,,,,,,,,,,,,,,,,,,,,,,,,,,,,,,,,,,,,,,,,,,,,,,,,,,,,,,,,,,,,,,,,,,,,,,,,,,,,,,,,,,,,,,,,,,,,,,,,,,,,,,,,,,,,,,,,,,,,,,,,,,,,,,,,,,,,,,,,,,,,,,,,,,,,,,,,,
0,57,57,80,1,,60fc7f3f9cc85bfba63d07b5,62bbf9edd9725e00c7cc9778,2022-06-29_09h16.22.413,Colour_Asymmetry_Pilot,2022.1.3,Win32,40.01920922,62bbe60bf3d75ef465d3e404,,,,,,,,,,,,,,,,,,,,,,,,,,,,,,,,,,,,,,,,,,,,,,,,,,,,,,,,,,,,,,,,,,,,,,,,,,,,,,,,,,,,,,,,,,,,,,,,,,,,,,,,,,,,,,,,,,,,,,,,,,,,,,,,,,,,,,,,,,,,,,,,,,,,,,,,,,,,,,
0,58,58,33,1,,60fc7f3f9cc85bfba63d07b5,62bbf9edd9725e00c7cc9778,2022-06-29_09h16.22.413,Colour_Asymmetry_Pilot,2022.1.3,Win32,40.01920922,62bbe60bf3d75ef465d3e404,,,,,,,,,,,,,,,,,,,,,,,,,,,,,,,,,,,,,,,,,,,,,,,,,,,,,,,,,,,,,,,,,,,,,,,,,,,,,,,,,,,,,,,,,,,,,,,,,,,,,,,,,,,,,,,,,,,,,,,,,,,,,,,,,,,,,,,,,,,,,,,,,,,,,,,,,,,,,,
0,59,59,71,1,,60fc7f3f9cc85bfba63d07b5,62bbf9edd9725e00c7cc9778,2022-06-29_09h16.22.413,Colour_Asymmetry_Pilot,2022.1.3,Win32,40.01920922,62bbe60bf3d75ef465d3e404,,,,,,,,,,,,,,,,,,,,,,,,,,,,,,,,,,,,,,,,,,,,,,,,,,,,,,,,,,,,,,,,,,,,,,,,,,,,,,,,,,,,,,,,,,,,,,,,,,,,,,,,,,,,,,,,,,,,,,,,,,,,,,,,,,,,,,,,,,,,,,,,,,,,,,,,,,,,,,
0,60,60,76,1,,60fc7f3f9cc85bfba63d07b5,62bbf9edd9725e00c7cc9778,2022-06-29_09h16.22.413,Colour_Asymmetry_Pilot,2022.1.3,Win32,40.01920922,62bbe60bf3d75ef465d3e404,,,,,,,,,,,,,,,,,,,,,,,,,,,,,,,,,,,,,,,,,,,,,,,,,,,,,,,,,,,,,,,,,,,,,,,,,,,,,,,,,,,,,,,,,,,,,,,,,,,,,,,,,,,,,,,,,,,,,,,,,,,,,,,,,,,,,,,,,,,,,,,,,,,,,,,,,,,,,,
0,61,61,21,1,,60fc7f3f9cc85bfba63d07b5,62bbf9edd9725e00c7cc9778,2022-06-29_09h16.22.413,Colour_Asymmetry_Pilot,2022.1.3,Win32,40.01920922,62bbe60bf3d75ef465d3e404,,,,,,,,,,,,,,,,,,,,,,,,,,,,,,,,,,,,,,,,,,,,,,,,,,,,,,,,,,,,,,,,,,,,,,,,,,,,,,,,,,,,,,,,,,,,,,,,,,,,,,,,,,,,,,,,,,,,,,,,,,,,,,,,,,,,,,,,,,,,,,,,,,,,,,,,,,,,,,
0,62,62,40,1,,60fc7f3f9cc85bfba63d07b5,62bbf9edd9725e00c7cc9778,2022-06-29_09h16.22.413,Colour_Asymmetry_Pilot,2022.1.3,Win32,40.01920922,62bbe60bf3d75ef465d3e404,,,,,,,,,,,,,,,,,,,,,,,,,,,,,,,,,,,,,,,,,,,,,,,,,,,,,,,,,,,,,,,,,,,,,,,,,,,,,,,,,,,,,,,,,,,,,,,,,,,,,,,,,,,,,,,,,,,,,,,,,,,,,,,,,,,,,,,,,,,,,,,,,,,,,,,,,,,,,,
0,63,63,66,1,,60fc7f3f9cc85bfba63d07b5,62bbf9edd9725e00c7cc9778,2022-06-29_09h16.22.413,Colour_Asymmetry_Pilot,2022.1.3,Win32,40.01920922,62bbe60bf3d75ef465d3e404,,,,,,,,,,,,,,,,,,,,,,,,,,,,,,,,,,,,,,,,,,,,,,,,,,,,,,,,,,,,,,,,,,,,,,,,,,,,,,,,,,,,,,,,,,,,,,,,,,,,,,,,,,,,,,,,,,,,,,,,,,,,,,,,,,,,,,,,,,,,,,,,,,,,,,,,,,,,,,
0,64,64,19,1,,60fc7f3f9cc85bfba63d07b5,62bbf9edd9725e00c7cc9778,2022-06-29_09h16.22.413,Colour_Asymmetry_Pilot,2022.1.3,Win32,40.01920922,62bbe60bf3d75ef465d3e404,,,,,,,,,,,,,,,,,,,,,,,,,,,,,,,,,,,,,,,,,,,,,,,,,,,,,,,,,,,,,,,,,,,,,,,,,,,,,,,,,,,,,,,,,,,,,,,,,,,,,,,,,,,,,,,,,,,,,,,,,,,,,,,,,,,,,,,,,,,,,,,,,,,,,,,,,,,,,,
0,65,65,87,1,,60fc7f3f9cc85bfba63d07b5,62bbf9edd9725e00c7cc9778,2022-06-29_09h16.22.413,Colour_Asymmetry_Pilot,2022.1.3,Win32,40.01920922,62bbe60bf3d75ef465d3e404,,,,,,,,,,,,,,,,,,,,,,,,,,,,,,,,,,,,,,,,,,,,,,,,,,,,,,,,,,,,,,,,,,,,,,,,,,,,,,,,,,,,,,,,,,,,,,,,,,,,,,,,,,,,,,,,,,,,,,,,,,,,,,,,,,,,,,,,,,,,,,,,,,,,,,,,,,,,,,
0,66,66,92,1,,60fc7f3f9cc85bfba63d07b5,62bbf9edd9725e00c7cc9778,2022-06-29_09h16.22.413,Colour_Asymmetry_Pilot,2022.1.3,Win32,40.01920922,62bbe60bf3d75ef465d3e404,,,,,,,,,,,,,,,,,,,,,,,,,,,,,,,,,,,,,,,,,,,,,,,,,,,,,,,,,,,,,,,,,,,,,,,,,,,,,,,,,,,,,,,,,,,,,,,,,,,,,,,,,,,,,,,,,,,,,,,,,,,,,,,,,,,,,,,,,,,,,,,,,,,,,,,,,,,,,,
0,67,67,41,1,,60fc7f3f9cc85bfba63d07b5,62bbf9edd9725e00c7cc9778,2022-06-29_09h16.22.413,Colour_Asymmetry_Pilot,2022.1.3,Win32,40.01920922,62bbe60bf3d75ef465d3e404,,,,,,,,,,,,,,,,,,,,,,,,,,,,,,,,,,,,,,,,,,,,,,,,,,,,,,,,,,,,,,,,,,,,,,,,,,,,,,,,,,,,,,,,,,,,,,,,,,,,,,,,,,,,,,,,,,,,,,,,,,,,,,,,,,,,,,,,,,,,,,,,,,,,,,,,,,,,,,
0,68,68,20,1,,60fc7f3f9cc85bfba63d07b5,62bbf9edd9725e00c7cc9778,2022-06-29_09h16.22.413,Colour_Asymmetry_Pilot,2022.1.3,Win32,40.01920922,62bbe60bf3d75ef465d3e404,,,,,,,,,,,,,,,,,,,,,,,,,,,,,,,,,,,,,,,,,,,,,,,,,,,,,,,,,,,,,,,,,,,,,,,,,,,,,,,,,,,,,,,,,,,,,,,,,,,,,,,,,,,,,,,,,,,,,,,,,,,,,,,,,,,,,,,,,,,,,,,,,,,,,,,,,,,,,,
0,69,69,91,1,,60fc7f3f9cc85bfba63d07b5,62bbf9edd9725e00c7cc9778,2022-06-29_09h16.22.413,Colour_Asymmetry_Pilot,2022.1.3,Win32,40.01920922,62bbe60bf3d75ef465d3e404,,,,,,,,,,,,,,,,,,,,,,,,,,,,,,,,,,,,,,,,,,,,,,,,,,,,,,,,,,,,,,,,,,,,,,,,,,,,,,,,,,,,,,,,,,,,,,,,,,,,,,,,,,,,,,,,,,,,,,,,,,,,,,,,,,,,,,,,,,,,,,,,,,,,,,,,,,,,,,
0,70,70,34,1,,60fc7f3f9cc85bfba63d07b5,62bbf9edd9725e00c7cc9778,2022-06-29_09h16.22.413,Colour_Asymmetry_Pilot,2022.1.3,Win32,40.01920922,62bbe60bf3d75ef465d3e404,,,,,,,,,,,,,,,,,,,,,,,,,,,,,,,,,,,,,,,,,,,,,,,,,,,,,,,,,,,,,,,,,,,,,,,,,,,,,,,,,,,,,,,,,,,,,,,,,,,,,,,,,,,,,,,,,,,,,,,,,,,,,,,,,,,,,,,,,,,,,,,,,,,,,,,,,,,,,,
0,71,71,36,1,,60fc7f3f9cc85bfba63d07b5,62bbf9edd9725e00c7cc9778,2022-06-29_09h16.22.413,Colour_Asymmetry_Pilot,2022.1.3,Win32,40.01920922,62bbe60bf3d75ef465d3e404,,,,,,,,,,,,,,,,,,,,,,,,,,,,,,,,,,,,,,,,,,,,,,,,,,,,,,,,,,,,,,,,,,,,,,,,,,,,,,,,,,,,,,,,,,,,,,,,,,,,,,,,,,,,,,,,,,,,,,,,,,,,,,,,,,,,,,,,,,,,,,,,,,,,,,,,,,,,,,
0,72,72,73,1,,60fc7f3f9cc85bfba63d07b5,62bbf9edd9725e00c7cc9778,2022-06-29_09h16.22.413,Colour_Asymmetry_Pilot,2022.1.3,Win32,40.01920922,62bbe60bf3d75ef465d3e404,,,,,,,,,,,,,,,,,,,,,,,,,,,,,,,,,,,,,,,,,,,,,,,,,,,,,,,,,,,,,,,,,,,,,,,,,,,,,,,,,,,,,,,,,,,,,,,,,,,,,,,,,,,,,,,,,,,,,,,,,,,,,,,,,,,,,,,,,,,,,,,,,,,,,,,,,,,,,,
0,73,73,52,1,,60fc7f3f9cc85bfba63d07b5,62bbf9edd9725e00c7cc9778,2022-06-29_09h16.22.413,Colour_Asymmetry_Pilot,2022.1.3,Win32,40.01920922,62bbe60bf3d75ef465d3e404,,,,,,,,,,,,,,,,,,,,,,,,,,,,,,,,,,,,,,,,,,,,,,,,,,,,,,,,,,,,,,,,,,,,,,,,,,,,,,,,,,,,,,,,,,,,,,,,,,,,,,,,,,,,,,,,,,,,,,,,,,,,,,,,,,,,,,,,,,,,,,,,,,,,,,,,,,,,,,
0,74,74,4,1,,60fc7f3f9cc85bfba63d07b5,62bbf9edd9725e00c7cc9778,2022-06-29_09h16.22.413,Colour_Asymmetry_Pilot,2022.1.3,Win32,40.01920922,62bbe60bf3d75ef465d3e404,,,,,,,,,,,,,,,,,,,,,,,,,,,,,,,,,,,,,,,,,,,,,,,,,,,,,,,,,,,,,,,,,,,,,,,,,,,,,,,,,,,,,,,,,,,,,,,,,,,,,,,,,,,,,,,,,,,,,,,,,,,,,,,,,,,,,,,,,,,,,,,,,,,,,,,,,,,,,,
0,75,75,57,1,,60fc7f3f9cc85bfba63d07b5,62bbf9edd9725e00c7cc9778,2022-06-29_09h16.22.413,Colour_Asymmetry_Pilot,2022.1.3,Win32,40.01920922,62bbe60bf3d75ef465d3e404,,,,,,,,,,,,,,,,,,,,,,,,,,,,,,,,,,,,,,,,,,,,,,,,,,,,,,,,,,,,,,,,,,,,,,,,,,,,,,,,,,,,,,,,,,,,,,,,,,,,,,,,,,,,,,,,,,,,,,,,,,,,,,,,,,,,,,,,,,,,,,,,,,,,,,,,,,,,,,
0,76,76,14,1,,60fc7f3f9cc85bfba63d07b5,62bbf9edd9725e00c7cc9778,2022-06-29_09h16.22.413,Colour_Asymmetry_Pilot,2022.1.3,Win32,40.01920922,62bbe60bf3d75ef465d3e404,,,,,,,,,,,,,,,,,,,,,,,,,,,,,,,,,,,,,,,,,,,,,,,,,,,,,,,,,,,,,,,,,,,,,,,,,,,,,,,,,,,,,,,,,,,,,,,,,,,,,,,,,,,,,,,,,,,,,,,,,,,,,,,,,,,,,,,,,,,,,,,,,,,,,,,,,,,,,,
0,77,77,83,1,,60fc7f3f9cc85bfba63d07b5,62bbf9edd9725e00c7cc9778,2022-06-29_09h16.22.413,Colour_Asymmetry_Pilot,2022.1.3,Win32,40.01920922,62bbe60bf3d75ef465d3e404,,,,,,,,,,,,,,,,,,,,,,,,,,,,,,,,,,,,,,,,,,,,,,,,,,,,,,,,,,,,,,,,,,,,,,,,,,,,,,,,,,,,,,,,,,,,,,,,,,,,,,,,,,,,,,,,,,,,,,,,,,,,,,,,,,,,,,,,,,,,,,,,,,,,,,,,,,,,,,
0,78,78,82,1,,60fc7f3f9cc85bfba63d07b5,62bbf9edd9725e00c7cc9778,2022-06-29_09h16.22.413,Colour_Asymmetry_Pilot,2022.1.3,Win32,40.01920922,62bbe60bf3d75ef465d3e404,,,,,,,,,,,,,,,,,,,,,,,,,,,,,,,,,,,,,,,,,,,,,,,,,,,,,,,,,,,,,,,,,,,,,,,,,,,,,,,,,,,,,,,,,,,,,,,,,,,,,,,,,,,,,,,,,,,,,,,,,,,,,,,,,,,,,,,,,,,,,,,,,,,,,,,,,,,,,,
0,79,79,10,1,,60fc7f3f9cc85bfba63d07b5,62bbf9edd9725e00c7cc9778,2022-06-29_09h16.22.413,Colour_Asymmetry_Pilot,2022.1.3,Win32,40.01920922,62bbe60bf3d75ef465d3e404,,,,,,,,,,,,,,,,,,,,,,,,,,,,,,,,,,,,,,,,,,,,,,,,,,,,,,,,,,,,,,,,,,,,,,,,,,,,,,,,,,,,,,,,,,,,,,,,,,,,,,,,,,,,,,,,,,,,,,,,,,,,,,,,,,,,,,,,,,,,,,,,,,,,,,,,,,,,,,
0,80,80,11,1,,60fc7f3f9cc85bfba63d07b5,62bbf9edd9725e00c7cc9778,2022-06-29_09h16.22.413,Colour_Asymmetry_Pilot,2022.1.3,Win32,40.01920922,62bbe60bf3d75ef465d3e404,,,,,,,,,,,,,,,,,,,,,,,,,,,,,,,,,,,,,,,,,,,,,,,,,,,,,,,,,,,,,,,,,,,,,,,,,,,,,,,,,,,,,,,,,,,,,,,,,,,,,,,,,,,,,,,,,,,,,,,,,,,,,,,,,,,,,,,,,,,,,,,,,,,,,,,,,,,,,,
0,81,81,43,1,,60fc7f3f9cc85bfba63d07b5,62bbf9edd9725e00c7cc9778,2022-06-29_09h16.22.413,Colour_Asymmetry_Pilot,2022.1.3,Win32,40.01920922,62bbe60bf3d75ef465d3e404,,,,,,,,,,,,,,,,,,,,,,,,,,,,,,,,,,,,,,,,,,,,,,,,,,,,,,,,,,,,,,,,,,,,,,,,,,,,,,,,,,,,,,,,,,,,,,,,,,,,,,,,,,,,,,,,,,,,,,,,,,,,,,,,,,,,,,,,,,,,,,,,,,,,,,,,,,,,,,
0,82,82,60,1,,60fc7f3f9cc85bfba63d07b5,62bbf9edd9725e00c7cc9778,2022-06-29_09h16.22.413,Colour_Asymmetry_Pilot,2022.1.3,Win32,40.01920922,62bbe60bf3d75ef465d3e404,,,,,,,,,,,,,,,,,,,,,,,,,,,,,,,,,,,,,,,,,,,,,,,,,,,,,,,,,,,,,,,,,,,,,,,,,,,,,,,,,,,,,,,,,,,,,,,,,,,,,,,,,,,,,,,,,,,,,,,,,,,,,,,,,,,,,,,,,,,,,,,,,,,,,,,,,,,,,,
0,83,83,53,1,,60fc7f3f9cc85bfba63d07b5,62bbf9edd9725e00c7cc9778,2022-06-29_09h16.22.413,Colour_Asymmetry_Pilot,2022.1.3,Win32,40.01920922,62bbe60bf3d75ef465d3e404,,,,,,,,,,,,,,,,,,,,,,,,,,,,,,,,,,,,,,,,,,,,,,,,,,,,,,,,,,,,,,,,,,,,,,,,,,,,,,,,,,,,,,,,,,,,,,,,,,,,,,,,,,,,,,,,,,,,,,,,,,,,,,,,,,,,,,,,,,,,,,,,,,,,,,,,,,,,,,
0,84,84,48,1,,60fc7f3f9cc85bfba63d07b5,62bbf9edd9725e00c7cc9778,2022-06-29_09h16.22.413,Colour_Asymmetry_Pilot,2022.1.3,Win32,40.01920922,62bbe60bf3d75ef465d3e404,,,,,,,,,,,,,,,,,,,,,,,,,,,,,,,,,,,,,,,,,,,,,,,,,,,,,,,,,,,,,,,,,,,,,,,,,,,,,,,,,,,,,,,,,,,,,,,,,,,,,,,,,,,,,,,,,,,,,,,,,,,,,,,,,,,,,,,,,,,,,,,,,,,,,,,,,,,,,,
0,85,85,68,1,,60fc7f3f9cc85bfba63d07b5,62bbf9edd9725e00c7cc9778,2022-06-29_09h16.22.413,Colour_Asymmetry_Pilot,2022.1.3,Win32,40.01920922,62bbe60bf3d75ef465d3e404,,,,,,,,,,,,,,,,,,,,,,,,,,,,,,,,,,,,,,,,,,,,,,,,,,,,,,,,,,,,,,,,,,,,,,,,,,,,,,,,,,,,,,,,,,,,,,,,,,,,,,,,,,,,,,,,,,,,,,,,,,,,,,,,,,,,,,,,,,,,,,,,,,,,,,,,,,,,,,
0,86,86,37,1,,60fc7f3f9cc85bfba63d07b5,62bbf9edd9725e00c7cc9778,2022-06-29_09h16.22.413,Colour_Asymmetry_Pilot,2022.1.3,Win32,40.01920922,62bbe60bf3d75ef465d3e404,,,,,,,,,,,,,,,,,,,,,,,,,,,,,,,,,,,,,,,,,,,,,,,,,,,,,,,,,,,,,,,,,,,,,,,,,,,,,,,,,,,,,,,,,,,,,,,,,,,,,,,,,,,,,,,,,,,,,,,,,,,,,,,,,,,,,,,,,,,,,,,,,,,,,,,,,,,,,,
0,87,87,1,1,,60fc7f3f9cc85bfba63d07b5,62bbf9edd9725e00c7cc9778,2022-06-29_09h16.22.413,Colour_Asymmetry_Pilot,2022.1.3,Win32,40.01920922,62bbe60bf3d75ef465d3e404,,,,,,,,,,,,,,,,,,,,,,,,,,,,,,,,,,,,,,,,,,,,,,,,,,,,,,,,,,,,,,,,,,,,,,,,,,,,,,,,,,,,,,,,,,,,,,,,,,,,,,,,,,,,,,,,,,,,,,,,,,,,,,,,,,,,,,,,,,,,,,,,,,,,,,,,,,,,,,
0,88,88,90,1,,60fc7f3f9cc85bfba63d07b5,62bbf9edd9725e00c7cc9778,2022-06-29_09h16.22.413,Colour_Asymmetry_Pilot,2022.1.3,Win32,40.01920922,62bbe60bf3d75ef465d3e404,,,,,,,,,,,,,,,,,,,,,,,,,,,,,,,,,,,,,,,,,,,,,,,,,,,,,,,,,,,,,,,,,,,,,,,,,,,,,,,,,,,,,,,,,,,,,,,,,,,,,,,,,,,,,,,,,,,,,,,,,,,,,,,,,,,,,,,,,,,,,,,,,,,,,,,,,,,,,,
0,89,89,16,1,,60fc7f3f9cc85bfba63d07b5,62bbf9edd9725e00c7cc9778,2022-06-29_09h16.22.413,Colour_Asymmetry_Pilot,2022.1.3,Win32,40.01920922,62bbe60bf3d75ef465d3e404,,,,,,,,,,,,,,,,,,,,,,,,,,,,,,,,,,,,,,,,,,,,,,,,,,,,,,,,,,,,,,,,,,,,,,,,,,,,,,,,,,,,,,,,,,,,,,,,,,,,,,,,,,,,,,,,,,,,,,,,,,,,,,,,,,,,,,,,,,,,,,,,,,,,,,,,,,,,,,
0,90,90,62,1,,60fc7f3f9cc85bfba63d07b5,62bbf9edd9725e00c7cc9778,2022-06-29_09h16.22.413,Colour_Asymmetry_Pilot,2022.1.3,Win32,40.01920922,62bbe60bf3d75ef465d3e404,,,,,,,,,,,,,,,,,,,,,,,,,,,,,,,,,,,,,,,,,,,,,,,,,,,,,,,,,,,,,,,,,,,,,,,,,,,,,,,,,,,,,,,,,,,,,,,,,,,,,,,,,,,,,,,,,,,,,,,,,,,,,,,,,,,,,,,,,,,,,,,,,,,,,,,,,,,,,,
0,91,91,5,1,,60fc7f3f9cc85bfba63d07b5,62bbf9edd9725e00c7cc9778,2022-06-29_09h16.22.413,Colour_Asymmetry_Pilot,2022.1.3,Win32,40.01920922,62bbe60bf3d75ef465d3e404,,,,,,,,,,,,,,,,,,,,,,,,,,,,,,,,,,,,,,,,,,,,,,,,,,,,,,,,,,,,,,,,,,,,,,,,,,,,,,,,,,,,,,,,,,,,,,,,,,,,,,,,,,,,,,,,,,,,,,,,,,,,,,,,,,,,,,,,,,,,,,,,,,,,,,,,,,,,,,
0,92,92,28,1,,60fc7f3f9cc85bfba63d07b5,62bbf9edd9725e00c7cc9778,2022-06-29_09h16.22.413,Colour_Asymmetry_Pilot,2022.1.3,Win32,40.01920922,62bbe60bf3d75ef465d3e404,,,,,,,,,,,,,,,,,,,,,,,,,,,,,,,,,,,,,,,,,,,,,,,,,,,,,,,,,,,,,,,,,,,,,,,,,,,,,,,,,,,,,,,,,,,,,,,,,,,,,,,,,,,,,,,,,,,,,,,,,,,,,,,,,,,,,,,,,,,,,,,,,,,,,,,,,,,,,,
,,,,,,60fc7f3f9cc85bfba63d07b5,62bbf9edd9725e00c7cc9778,2022-06-29_09h16.22.413,Colour_Asymmetry_Pilot,2022.1.3,Win32,40.01920922,62bbe60bf3d75ef465d3e404,0,0,0,159,1,fourthree,,,,,,,,,,,,,,,,,,,,,,,,,,,,,,,,,,,,,,,,,,,,,,,,,,,,,,,,,,,,,,,,,,,,,,,,,,,,,,,,,,,,,,,,,,,,,,,,,,,,,,,,,,,,,,,,,,,,,,,,,,,,,,,,,,,,,,,,,,,,,,,,,,,,,,,,
,,,,,,60fc7f3f9cc85bfba63d07b5,62bbf9edd9725e00c7cc9778,2022-06-29_09h16.22.413,Colour_Asymmetry_Pilot,2022.1.3,Win32,40.01920922,62bbe60bf3d75ef465d3e404,0,1,1,53,1,threefour,,,,,,,,,,,,,,,,,,,,,,,,,,,,,,,,,,,,,,,,,,,,,,,,,,,,,,,,,,,,,,,,,,,,,,,,,,,,,,,,,,,,,,,,,,,,,,,,,,,,,,,,,,,,,,,,,,,,,,,,,,,,,,,,,,,,,,,,,,,,,,,,,,,,,,,,
,,,,,,60fc7f3f9cc85bfba63d07b5,62bbf9edd9725e00c7cc9778,2022-06-29_09h16.22.413,Colour_Asymmetry_Pilot,2022.1.3,Win32,40.01920922,62bbe60bf3d75ef465d3e404,0,2,2,104,1,onetwo,,,,,,,,,,,,,,,,,,,,,,,,,,,,,,,,,,,,,,,,,,,,,,,,,,,,,,,,,,,,,,,,,,,,,,,,,,,,,,,,,,,,,,,,,,,,,,,,,,,,,,,,,,,,,,,,,,,,,,,,,,,,,,,,,,,,,,,,,,,,,,,,,,,,,,,,
,,,,,,60fc7f3f9cc85bfba63d07b5,62bbf9edd9725e00c7cc9778,2022-06-29_09h16.22.413,Colour_Asymmetry_Pilot,2022.1.3,Win32,40.01920922,62bbe60bf3d75ef465d3e404,0,3,3,51,1,twofour,,,,,,,,,,,,,,,,,,,,,,,,,,,,,,,,,,,,,,,,,,,,,,,,,,,,,,,,,,,,,,,,,,,,,,,,,,,,,,,,,,,,,,,,,,,,,,,,,,,,,,,,,,,,,,,,,,,,,,,,,,,,,,,,,,,,,,,,,,,,,,,,,,,,,,,,
,,,,,,60fc7f3f9cc85bfba63d07b5,62bbf9edd9725e00c7cc9778,2022-06-29_09h16.22.413,Colour_Asymmetry_Pilot,2022.1.3,Win32,40.01920922,62bbe60bf3d75ef465d3e404,0,4,4,134,1,fourtwo,,,,,,,,,,,,,,,,,,,,,,,,,,,,,,,,,,,,,,,,,,,,,,,,,,,,,,,,,,,,,,,,,,,,,,,,,,,,,,,,,,,,,,,,,,,,,,,,,,,,,,,,,,,,,,,,,,,,,,,,,,,,,,,,,,,,,,,,,,,,,,,,,,,,,,,,
,,,,,,60fc7f3f9cc85bfba63d07b5,62bbf9edd9725e00c7cc9778,2022-06-29_09h16.22.413,Colour_Asymmetry_Pilot,2022.1.3,Win32,40.01920922,62bbe60bf3d75ef465d3e404,0,5,5,57,1,onethree,,,,,,,,,,,,,,,,,,,,,,,,,,,,,,,,,,,,,,,,,,,,,,,,,,,,,,,,,,,,,,,,,,,,,,,,,,,,,,,,,,,,,,,,,,,,,,,,,,,,,,,,,,,,,,,,,,,,,,,,,,,,,,,,,,,,,,,,,,,,,,,,,,,,,,,,
,,,,,,60fc7f3f9cc85bfba63d07b5,62bbf9edd9725e00c7cc9778,2022-06-29_09h16.22.413,Colour_Asymmetry_Pilot,2022.1.3,Win32,40.01920922,62bbe60bf3d75ef465d3e404,0,6,6,2,1,twoone,,,,,,,,,,,,,,,,,,,,,,,,,,,,,,,,,,,,,,,,,,,,,,,,,,,,,,,,,,,,,,,,,,,,,,,,,,,,,,,,,,,,,,,,,,,,,,,,,,,,,,,,,,,,,,,,,,,,,,,,,,,,,,,,,,,,,,,,,,,,,,,,,,,,,,,,
,,,,,,60fc7f3f9cc85bfba63d07b5,62bbf9edd9725e00c7cc9778,2022-06-29_09h16.22.413,Colour_Asymmetry_Pilot,2022.1.3,Win32,40.01920922,62bbe60bf3d75ef465d3e404,0,7,7,124,1,threeone,,,,,,,,,,,,,,,,,,,,,,,,,,,,,,,,,,,,,,,,,,,,,,,,,,,,,,,,,,,,,,,,,,,,,,,,,,,,,,,,,,,,,,,,,,,,,,,,,,,,,,,,,,,,,,,,,,,,,,,,,,,,,,,,,,,,,,,,,,,,,,,,,,,,,,,,
,,,,,,60fc7f3f9cc85bfba63d07b5,62bbf9edd9725e00c7cc9778,2022-06-29_09h16.22.413,Colour_Asymmetry_Pilot,2022.1.3,Win32,40.01920922,62bbe60bf3d75ef465d3e404,0,8,8,97,1,onethree,,,,,,,,,,,,,,,,,,,,,,,,,,,,,,,,,,,,,,,,,,,,,,,,,,,,,,,,,,,,,,,,,,,,,,,,,,,,,,,,,,,,,,,,,,,,,,,,,,,,,,,,,,,,,,,,,,,,,,,,,,,,,,,,,,,,,,,,,,,,,,,,,,,,,,,,
,,,,,,60fc7f3f9cc85bfba63d07b5,62bbf9edd9725e00c7cc9778,2022-06-29_09h16.22.413,Colour_Asymmetry_Pilot,2022.1.3,Win32,40.01920922,62bbe60bf3d75ef465d3e404,0,9,9,13,1,threefour,,,,,,,,,,,,,,,,,,,,,,,,,,,,,,,,,,,,,,,,,,,,,,,,,,,,,,,,,,,,,,,,,,,,,,,,,,,,,,,,,,,,,,,,,,,,,,,,,,,,,,,,,,,,,,,,,,,,,,,,,,,,,,,,,,,,,,,,,,,,,,,,,,,,,,,,
,,,,,,60fc7f3f9cc85bfba63d07b5,62bbf9edd9725e00c7cc9778,2022-06-29_09h16.22.413,Colour_Asymmetry_Pilot,2022.1.3,Win32,40.01920922,62bbe60bf3d75ef465d3e404,0,10,10,127,1,fourthree,,,,,,,,,,,,,,,,,,,,,,,,,,,,,,,,,,,,,,,,,,,,,,,,,,,,,,,,,,,,,,,,,,,,,,,,,,,,,,,,,,,,,,,,,,,,,,,,,,,,,,,,,,,,,,,,,,,,,,,,,,,,,,,,,,,,,,,,,,,,,,,,,,,,,,,,
,,,,,,60fc7f3f9cc85bfba63d07b5,62bbf9edd9725e00c7cc9778,2022-06-29_09h16.22.413,Colour_Asymmetry_Pilot,2022.1.3,Win32,40.01920922,62bbe60bf3d75ef465d3e404,0,11,11,142,1,fourtwo,,,,,,,,,,,,,,,,,,,,,,,,,,,,,,,,,,,,,,,,,,,,,,,,,,,,,,,,,,,,,,,,,,,,,,,,,,,,,,,,,,,,,,,,,,,,,,,,,,,,,,,,,,,,,,,,,,,,,,,,,,,,,,,,,,,,,,,,,,,,,,,,,,,,,,,,
,,,,,,60fc7f3f9cc85bfba63d07b5,62bbf9edd9725e00c7cc9778,2022-06-29_09h16.22.413,Colour_Asymmetry_Pilot,2022.1.3,Win32,40.01920922,62bbe60bf3d75ef465d3e404,0,12,12,62,1,fourtwo,,,,,,,,,,,,,,,,,,,,,,,,,,,,,,,,,,,,,,,,,,,,,,,,,,,,,,,,,,,,,,,,,,,,,,,,,,,,,,,,,,,,,,,,,,,,,,,,,,,,,,,,,,,,,,,,,,,,,,,,,,,,,,,,,,,,,,,,,,,,,,,,,,,,,,,,
,,,,,,60fc7f3f9cc85bfba63d07b5,62bbf9edd9725e00c7cc9778,2022-06-29_09h16.22.413,Colour_Asymmetry_Pilot,2022.1.3,Win32,40.01920922,62bbe60bf3d75ef465d3e404,0,13,13,121,1,onethree,,,,,,,,,,,,,,,,,,,,,,,,,,,,,,,,,,,,,,,,,,,,,,,,,,,,,,,,,,,,,,,,,,,,,,,,,,,,,,,,,,,,,,,,,,,,,,,,,,,,,,,,,,,,,,,,,,,,,,,,,,,,,,,,,,,,,,,,,,,,,,,,,,,,,,,,
,,,,,,60fc7f3f9cc85bfba63d07b5,62bbf9edd9725e00c7cc9778,2022-06-29_09h16.22.413,Colour_Asymmetry_Pilot,2022.1.3,Win32,40.01920922,62bbe60bf3d75ef465d3e404,0,14,14,27,1,twofour,,,,,,,,,,,,,,,,,,,,,,,,,,,,,,,,,,,,,,,,,,,,,,,,,,,,,,,,,,,,,,,,,,,,,,,,,,,,,,,,,,,,,,,,,,,,,,,,,,,,,,,,,,,,,,,,,,,,,,,,,,,,,,,,,,,,,,,,,,,,,,,,,,,,,,,,
,,,,,,60fc7f3f9cc85bfba63d07b5,62bbf9edd9725e00c7cc9778,2022-06-29_09h16.22.413,Colour_Asymmetry_Pilot,2022.1.3,Win32,40.01920922,62bbe60bf3d75ef465d3e404,0,15,15,145,1,onethree,,,,,,,,,,,,,,,,,,,,,,,,,,,,,,,,,,,,,,,,,,,,,,,,,,,,,,,,,,,,,,,,,,,,,,,,,,,,,,,,,,,,,,,,,,,,,,,,,,,,,,,,,,,,,,,,,,,,,,,,,,,,,,,,,,,,,,,,,,,,,,,,,,,,,,,,
,,,,,,60fc7f3f9cc85bfba63d07b5,62bbf9edd9725e00c7cc9778,2022-06-29_09h16.22.413,Colour_Asymmetry_Pilot,2022.1.3,Win32,40.01920922,62bbe60bf3d75ef465d3e404,0,16,16,65,1,onethree,,,,,,,,,,,,,,,,,,,,,,,,,,,,,,,,,,,,,,,,,,,,,,,,,,,,,,,,,,,,,,,,,,,,,,,,,,,,,,,,,,,,,,,,,,,,,,,,,,,,,,,,,,,,,,,,,,,,,,,,,,,,,,,,,,,,,,,,,,,,,,,,,,,,,,,,
,,,,,,60fc7f3f9cc85bfba63d07b5,62bbf9edd9725e00c7cc9778,2022-06-29_09h16.22.413,Colour_Asymmetry_Pilot,2022.1.3,Win32,40.01920922,62bbe60bf3d75ef465d3e404,0,17,17,59,1,twofour,,,,,,,,,,,,,,,,,,,,,,,,,,,,,,,,,,,,,,,,,,,,,,,,,,,,,,,,,,,,,,,,,,,,,,,,,,,,,,,,,,,,,,,,,,,,,,,,,,,,,,,,,,,,,,,,,,,,,,,,,,,,,,,,,,,,,,,,,,,,,,,,,,,,,,,,
,,,,,,60fc7f3f9cc85bfba63d07b5,62bbf9edd9725e00c7cc9778,2022-06-29_09h16.22.413,Colour_Asymmetry_Pilot,2022.1.3,Win32,40.01920922,62bbe60bf3d75ef465d3e404,0,18,18,68,1,threeone,,,,,,,,,,,,,,,,,,,,,,,,,,,,,,,,,,,,,,,,,,,,,,,,,,,,,,,,,,,,,,,,,,,,,,,,,,,,,,,,,,,,,,,,,,,,,,,,,,,,,,,,,,,,,,,,,,,,,,,,,,,,,,,,,,,,,,,,,,,,,,,,,,,,,,,,
,,,,,,60fc7f3f9cc85bfba63d07b5,62bbf9edd9725e00c7cc9778,2022-06-29_09h16.22.413,Colour_Asymmetry_Pilot,2022.1.3,Win32,40.01920922,62bbe60bf3d75ef465d3e404,0,19,19,138,1,twoone,,,,,,,,,,,,,,,,,,,,,,,,,,,,,,,,,,,,,,,,,,,,,,,,,,,,,,,,,,,,,,,,,,,,,,,,,,,,,,,,,,,,,,,,,,,,,,,,,,,,,,,,,,,,,,,,,,,,,,,,,,,,,,,,,,,,,,,,,,,,,,,,,,,,,,,,
,,,,,,60fc7f3f9cc85bfba63d07b5,62bbf9edd9725e00c7cc9778,2022-06-29_09h16.22.413,Colour_Asymmetry_Pilot,2022.1.3,Win32,40.01920922,62bbe60bf3d75ef465d3e404,0,20,20,31,1,fourthree,,,,,,,,,,,,,,,,,,,,,,,,,,,,,,,,,,,,,,,,,,,,,,,,,,,,,,,,,,,,,,,,,,,,,,,,,,,,,,,,,,,,,,,,,,,,,,,,,,,,,,,,,,,,,,,,,,,,,,,,,,,,,,,,,,,,,,,,,,,,,,,,,,,,,,,,
,,,,,,60fc7f3f9cc85bfba63d07b5,62bbf9edd9725e00c7cc9778,2022-06-29_09h16.22.413,Colour_Asymmetry_Pilot,2022.1.3,Win32,40.01920922,62bbe60bf3d75ef465d3e404,0,21,21,29,1,threefour,,,,,,,,,,,,,,,,,,,,,,,,,,,,,,,,,,,,,,,,,,,,,,,,,,,,,,,,,,,,,,,,,,,,,,,,,,,,,,,,,,,,,,,,,,,,,,,,,,,,,,,,,,,,,,,,,,,,,,,,,,,,,,,,,,,,,,,,,,,,,,,,,,,,,,,,
,,,,,,60fc7f3f9cc85bfba63d07b5,62bbf9edd9725e00c7cc9778,2022-06-29_09h16.22.413,Colour_Asymmetry_Pilot,2022.1.3,Win32,40.01920922,62bbe60bf3d75ef465d3e404,0,22,22,90,1,twoone,,,,,,,,,,,,,,,,,,,,,,,,,,,,,,,,,,,,,,,,,,,,,,,,,,,,,,,,,,,,,,,,,,,,,,,,,,,,,,,,,,,,,,,,,,,,,,,,,,,,,,,,,,,,,,,,,,,,,,,,,,,,,,,,,,,,,,,,,,,,,,,,,,,,,,,,
,,,,,,60fc7f3f9cc85bfba63d07b5,62bbf9edd9725e00c7cc9778,2022-06-29_09h16.22.413,Colour_Asymmetry_Pilot,2022.1.3,Win32,40.01920922,62bbe60bf3d75ef465d3e404,0,23,23,147,1,twofour,,,,,,,,,,,,,,,,,,,,,,,,,,,,,,,,,,,,,,,,,,,,,,,,,,,,,,,,,,,,,,,,,,,,,,,,,,,,,,,,,,,,,,,,,,,,,,,,,,,,,,,,,,,,,,,,,,,,,,,,,,,,,,,,,,,,,,,,,,,,,,,,,,,,,,,,
,,,,,,60fc7f3f9cc85bfba63d07b5,62bbf9edd9725e00c7cc9778,2022-06-29_09h16.22.413,Colour_Asymmetry_Pilot,2022.1.3,Win32,40.01920922,62bbe60bf3d75ef465d3e404,0,24,24,84,1,threeone,,,,,,,,,,,,,,,,,,,,,,,,,,,,,,,,,,,,,,,,,,,,,,,,,,,,,,,,,,,,,,,,,,,,,,,,,,,,,,,,,,,,,,,,,,,,,,,,,,,,,,,,,,,,,,,,,,,,,,,,,,,,,,,,,,,,,,,,,,,,,,,,,,,,,,,,
,,,,,,60fc7f3f9cc85bfba63d07b5,62bbf9edd9725e00c7cc9778,2022-06-29_09h16.22.413,Colour_Asymmetry_Pilot,2022.1.3,Win32,40.01920922,62bbe60bf3d75ef465d3e404,0,25,25,18,1,twoone,,,,,,,,,,,,,,,,,,,,,,,,,,,,,,,,,,,,,,,,,,,,,,,,,,,,,,,,,,,,,,,,,,,,,,,,,,,,,,,,,,,,,,,,,,,,,,,,,,,,,,,,,,,,,,,,,,,,,,,,,,,,,,,,,,,,,,,,,,,,,,,,,,,,,,,,
,,,,,,60fc7f3f9cc85bfba63d07b5,62bbf9edd9725e00c7cc9778,2022-06-29_09h16.22.413,Colour_Asymmetry_Pilot,2022.1.3,Win32,40.01920922,62bbe60bf3d75ef465d3e404,0,26,26,137,1,onethree,,,,,,,,,,,,,,,,,,,,,,,,,,,,,,,,,,,,,,,,,,,,,,,,,,,,,,,,,,,,,,,,,,,,,,,,,,,,,,,,,,,,,,,,,,,,,,,,,,,,,,,,,,,,,,,,,,,,,,,,,,,,,,,,,,,,,,,,,,,,,,,,,,,,,,,,
,,,,,,60fc7f3f9cc85bfba63d07b5,62bbf9edd9725e00c7cc9778,2022-06-29_09h16.22.413,Colour_Asymmetry_Pilot,2022.1.3,Win32,40.01920922,62bbe60bf3d75ef465d3e404,0,27,27,26,1,twoone,,,,,,,,,,,,,,,,,,,,,,,,,,,,,,,,,,,,,,,,,,,,,,,,,,,,,,,,,,,,,,,,,,,,,,,,,,,,,,,,,,,,,,,,,,,,,,,,,,,,,,,,,,,,,,,,,,,,,,,,,,,,,,,,,,,,,,,,,,,,,,,,,,,,,,,,
,,,,,,60fc7f3f9cc85bfba63d07b5,62bbf9edd9725e00c7cc9778,2022-06-29_09h16.22.413,Colour_Asymmetry_Pilot,2022.1.3,Win32,40.01920922,62bbe60bf3d75ef465d3e404,0,28,28,12,1,threeone,,,,,,,,,,,,,,,,,,,,,,,,,,,,,,,,,,,,,,,,,,,,,,,,,,,,,,,,,,,,,,,,,,,,,,,,,,,,,,,,,,,,,,,,,,,,,,,,,,,,,,,,,,,,,,,,,,,,,,,,,,,,,,,,,,,,,,,,,,,,,,,,,,,,,,,,
,,,,,,60fc7f3f9cc85bfba63d07b5,62bbf9edd9725e00c7cc9778,2022-06-29_09h16.22.413,Colour_Asymmetry_Pilot,2022.1.3,Win32,40.01920922,62bbe60bf3d75ef465d3e404,0,29,29,34,1,twoone,,,,,,,,,,,,,,,,,,,,,,,,,,,,,,,,,,,,,,,,,,,,,,,,,,,,,,,,,,,,,,,,,,,,,,,,,,,,,,,,,,,,,,,,,,,,,,,,,,,,,,,,,,,,,,,,,,,,,,,,,,,,,,,,,,,,,,,,,,,,,,,,,,,,,,,,
,,,,,,60fc7f3f9cc85bfba63d07b5,62bbf9edd9725e00c7cc9778,2022-06-29_09h16.22.413,Colour_Asymmetry_Pilot,2022.1.3,Win32,40.01920922,62bbe60bf3d75ef465d3e404,0,30,30,154,1,twoone,,,,,,,,,,,,,,,,,,,,,,,,,,,,,,,,,,,,,,,,,,,,,,,,,,,,,,,,,,,,,,,,,,,,,,,,,,,,,,,,,,,,,,,,,,,,,,,,,,,,,,,,,,,,,,,,,,,,,,,,,,,,,,,,,,,,,,,,,,,,,,,,,,,,,,,,
,,,,,,60fc7f3f9cc85bfba63d07b5,62bbf9edd9725e00c7cc9778,2022-06-29_09h16.22.413,Colour_Asymmetry_Pilot,2022.1.3,Win32,40.01920922,62bbe60bf3d75ef465d3e404,0,31,31,63,1,fourthree,,,,,,,,,,,,,,,,,,,,,,,,,,,,,,,,,,,,,,,,,,,,,,,,,,,,,,,,,,,,,,,,,,,,,,,,,,,,,,,,,,,,,,,,,,,,,,,,,,,,,,,,,,,,,,,,,,,,,,,,,,,,,,,,,,,,,,,,,,,,,,,,,,,,,,,,
,,,,,,60fc7f3f9cc85bfba63d07b5,62bbf9edd9725e00c7cc9778,2022-06-29_09h16.22.413,Colour_Asymmetry_Pilot,2022.1.3,Win32,40.01920922,62bbe60bf3d75ef465d3e404,0,32,32,40,1,onetwo,,,,,,,,,,,,,,,,,,,,,,,,,,,,,,,,,,,,,,,,,,,,,,,,,,,,,,,,,,,,,,,,,,,,,,,,,,,,,,,,,,,,,,,,,,,,,,,,,,,,,,,,,,,,,,,,,,,,,,,,,,,,,,,,,,,,,,,,,,,,,,,,,,,,,,,,
,,,,,,60fc7f3f9cc85bfba63d07b5,62bbf9edd9725e00c7cc9778,2022-06-29_09h16.22.413,Colour_Asymmetry_Pilot,2022.1.3,Win32,40.01920922,62bbe60bf3d75ef465d3e404,0,33,33,15,1,fourthree,,,,,,,,,,,,,,,,,,,,,,,,,,,,,,,,,,,,,,,,,,,,,,,,,,,,,,,,,,,,,,,,,,,,,,,,,,,,,,,,,,,,,,,,,,,,,,,,,,,,,,,,,,,,,,,,,,,,,,,,,,,,,,,,,,,,,,,,,,,,,,,,,,,,,,,,
,,,,,,60fc7f3f9cc85bfba63d07b5,62bbf9edd9725e00c7cc9778,2022-06-29_09h16.22.413,Colour_Asymmetry_Pilot,2022.1.3,Win32,40.01920922,62bbe60bf3d75ef465d3e404,0,34,34,132,1,threeone,,,,,,,,,,,,,,,,,,,,,,,,,,,,,,,,,,,,,,,,,,,,,,,,,,,,,,,,,,,,,,,,,,,,,,,,,,,,,,,,,,,,,,,,,,,,,,,,,,,,,,,,,,,,,,,,,,,,,,,,,,,,,,,,,,,,,,,,,,,,,,,,,,,,,,,,
,,,,,,60fc7f3f9cc85bfba63d07b5,62bbf9edd9725e00c7cc9778,2022-06-29_09h16.22.413,Colour_Asymmetry_Pilot,2022.1.3,Win32,40.01920922,62bbe60bf3d75ef465d3e404,0,35,35,56,1,onetwo,,,,,,,,,,,,,,,,,,,,,,,,,,,,,,,,,,,,,,,,,,,,,,,,,,,,,,,,,,,,,,,,,,,,,,,,,,,,,,,,,,,,,,,,,,,,,,,,,,,,,,,,,,,,,,,,,,,,,,,,,,,,,,,,,,,,,,,,,,,,,,,,,,,,,,,,
,,,,,,60fc7f3f9cc85bfba63d07b5,62bbf9edd9725e00c7cc9778,2022-06-29_09h16.22.413,Colour_Asymmetry_Pilot,2022.1.3,Win32,40.01920922,62bbe60bf3d75ef465d3e404,0,36,36,9,1,onethree,,,,,,,,,,,,,,,,,,,,,,,,,,,,,,,,,,,,,,,,,,,,,,,,,,,,,,,,,,,,,,,,,,,,,,,,,,,,,,,,,,,,,,,,,,,,,,,,,,,,,,,,,,,,,,,,,,,,,,,,,,,,,,,,,,,,,,,,,,,,,,,,,,,,,,,,
,,,,,,60fc7f3f9cc85bfba63d07b5,62bbf9edd9725e00c7cc9778,2022-06-29_09h16.22.413,Colour_Asymmetry_Pilot,2022.1.3,Win32,40.01920922,62bbe60bf3d75ef465d3e404,0,37,37,76,1,threeone,,,,,,,,,,,,,,,,,,,,,,,,,,,,,,,,,,,,,,,,,,,,,,,,,,,,,,,,,,,,,,,,,,,,,,,,,,,,,,,,,,,,,,,,,,,,,,,,,,,,,,,,,,,,,,,,,,,,,,,,,,,,,,,,,,,,,,,,,,,,,,,,,,,,,,,,
,,,,,,60fc7f3f9cc85bfba63d07b5,62bbf9edd9725e00c7cc9778,2022-06-29_09h16.22.413,Colour_Asymmetry_Pilot,2022.1.3,Win32,40.01920922,62bbe60bf3d75ef465d3e404,0,38,38,19,1,twofour,,,,,,,,,,,,,,,,,,,,,,,,,,,,,,,,,,,,,,,,,,,,,,,,,,,,,,,,,,,,,,,,,,,,,,,,,,,,,,,,,,,,,,,,,,,,,,,,,,,,,,,,,,,,,,,,,,,,,,,,,,,,,,,,,,,,,,,,,,,,,,,,,,,,,,,,
,,,,,,60fc7f3f9cc85bfba63d07b5,62bbf9edd9725e00c7cc9778,2022-06-29_09h16.22.413,Colour_Asymmetry_Pilot,2022.1.3,Win32,40.01920922,62bbe60bf3d75ef465d3e404,0,39,39,81,1,onethree,,,,,,,,,,,,,,,,,,,,,,,,,,,,,,,,,,,,,,,,,,,,,,,,,,,,,,,,,,,,,,,,,,,,,,,,,,,,,,,,,,,,,,,,,,,,,,,,,,,,,,,,,,,,,,,,,,,,,,,,,,,,,,,,,,,,,,,,,,,,,,,,,,,,,,,,
,,,,,,60fc7f3f9cc85bfba63d07b5,62bbf9edd9725e00c7cc9778,2022-06-29_09h16.22.413,Colour_Asymmetry_Pilot,2022.1.3,Win32,40.01920922,62bbe60bf3d75ef465d3e404,0,40,40,151,1,fourthree,,,,,,,,,,,,,,,,,,,,,,,,,,,,,,,,,,,,,,,,,,,,,,,,,,,,,,,,,,,,,,,,,,,,,,,,,,,,,,,,,,,,,,,,,,,,,,,,,,,,,,,,,,,,,,,,,,,,,,,,,,,,,,,,,,,,,,,,,,,,,,,,,,,,,,,,
,,,,,,60fc7f3f9cc85bfba63d07b5,62bbf9edd9725e00c7cc9778,2022-06-29_09h16.22.413,Colour_Asymmetry_Pilot,2022.1.3,Win32,40.01920922,62bbe60bf3d75ef465d3e404,0,41,41,107,1,twofour,,,,,,,,,,,,,,,,,,,,,,,,,,,,,,,,,,,,,,,,,,,,,,,,,,,,,,,,,,,,,,,,,,,,,,,,,,,,,,,,,,,,,,,,,,,,,,,,,,,,,,,,,,,,,,,,,,,,,,,,,,,,,,,,,,,,,,,,,,,,,,,,,,,,,,,,
,,,,,,60fc7f3f9cc85bfba63d07b5,62bbf9edd9725e00c7cc9778,2022-06-29_09h16.22.413,Colour_Asymmetry_Pilot,2022.1.3,Win32,40.01920922,62bbe60bf3d75ef465d3e404,0,42,42,149,1,threefour,,,,,,,,,,,,,,,,,,,,,,,,,,,,,,,,,,,,,,,,,,,,,,,,,,,,,,,,,,,,,,,,,,,,,,,,,,,,,,,,,,,,,,,,,,,,,,,,,,,,,,,,,,,,,,,,,,,,,,,,,,,,,,,,,,,,,,,,,,,,,,,,,,,,,,,,
,,,,,,60fc7f3f9cc85bfba63d07b5,62bbf9edd9725e00c7cc9778,2022-06-29_09h16.22.413,Colour_Asymmetry_Pilot,2022.1.3,Win32,40.01920922,62bbe60bf3d75ef465d3e404,0,43,43,21,1,threefour,,,,,,,,,,,,,,,,,,,,,,,,,,,,,,,,,,,,,,,,,,,,,,,,,,,,,,,,,,,,,,,,,,,,,,,,,,,,,,,,,,,,,,,,,,,,,,,,,,,,,,,,,,,,,,,,,,,,,,,,,,,,,,,,,,,,,,,,,,,,,,,,,,,,,,,,
,,,,,,60fc7f3f9cc85bfba63d07b5,62bbf9edd9725e00c7cc9778,2022-06-29_09h16.22.413,Colour_Asymmetry_Pilot,2022.1.3,Win32,40.01920922,62bbe60bf3d75ef465d3e404,0,44,44,50,1,twoone,,,,,,,,,,,,,,,,,,,,,,,,,,,,,,,,,,,,,,,,,,,,,,,,,,,,,,,,,,,,,,,,,,,,,,,,,,,,,,,,,,,,,,,,,,,,,,,,,,,,,,,,,,,,,,,,,,,,,,,,,,,,,,,,,,,,,,,,,,,,,,,,,,,,,,,,
,,,,,,60fc7f3f9cc85bfba63d07b5,62bbf9edd9725e00c7cc9778,2022-06-29_09h16.22.413,Colour_Asymmetry_Pilot,2022.1.3,Win32,40.01920922,62bbe60bf3d75ef465d3e404,0,45,45,23,1,fourthree,,,,,,,,,,,,,,,,,,,,,,,,,,,,,,,,,,,,,,,,,,,,,,,,,,,,,,,,,,,,,,,,,,,,,,,,,,,,,,,,,,,,,,,,,,,,,,,,,,,,,,,,,,,,,,,,,,,,,,,,,,,,,,,,,,,,,,,,,,,,,,,,,,,,,,,,
,,,,,,60fc7f3f9cc85bfba63d07b5,62bbf9edd9725e00c7cc9778,2022-06-29_09h16.22.413,Colour_Asymmetry_Pilot,2022.1.3,Win32,40.01920922,62bbe60bf3d75ef465d3e404,0,46,46,111,1,fourthree,,,,,,,,,,,,,,,,,,,,,,,,,,,,,,,,,,,,,,,,,,,,,,,,,,,,,,,,,,,,,,,,,,,,,,,,,,,,,,,,,,,,,,,,,,,,,,,,,,,,,,,,,,,,,,,,,,,,,,,,,,,,,,,,,,,,,,,,,,,,,,,,,,,,,,,,
,,,,,,60fc7f3f9cc85bfba63d07b5,62bbf9edd9725e00c7cc9778,2022-06-29_09h16.22.413,Colour_Asymmetry_Pilot,2022.1.3,Win32,40.01920922,62bbe60bf3d75ef465d3e404,0,47,47,153,1,onethree,,,,,,,,,,,,,,,,,,,,,,,,,,,,,,,,,,,,,,,,,,,,,,,,,,,,,,,,,,,,,,,,,,,,,,,,,,,,,,,,,,,,,,,,,,,,,,,,,,,,,,,,,,,,,,,,,,,,,,,,,,,,,,,,,,,,,,,,,,,,,,,,,,,,,,,,
,,,,,,60fc7f3f9cc85bfba63d07b5,62bbf9edd9725e00c7cc9778,2022-06-29_09h16.22.413,Colour_Asymmetry_Pilot,2022.1.3,Win32,40.01920922,62bbe60bf3d75ef465d3e404,0,48,48,155,1,twofour,,,,,,,,,,,,,,,,,,,,,,,,,,,,,,,,,,,,,,,,,,,,,,,,,,,,,,,,,,,,,,,,,,,,,,,,,,,,,,,,,,,,,,,,,,,,,,,,,,,,,,,,,,,,,,,,,,,,,,,,,,,,,,,,,,,,,,,,,,,,,,,,,,,,,,,,
,,,,,,60fc7f3f9cc85bfba63d07b5,62bbf9edd9725e00c7cc9778,2022-06-29_09h16.22.413,Colour_Asymmetry_Pilot,2022.1.3,Win32,40.01920922,62bbe60bf3d75ef465d3e404,0,49,49,83,1,twofour,,,,,,,,,,,,,,,,,,,,,,,,,,,,,,,,,,,,,,,,,,,,,,,,,,,,,,,,,,,,,,,,,,,,,,,,,,,,,,,,,,,,,,,,,,,,,,,,,,,,,,,,,,,,,,,,,,,,,,,,,,,,,,,,,,,,,,,,,,,,,,,,,,,,,,,,
,,,,,,60fc7f3f9cc85bfba63d07b5,62bbf9edd9725e00c7cc9778,2022-06-29_09h16.22.413,Colour_Asymmetry_Pilot,2022.1.3,Win32,40.01920922,62bbe60bf3d75ef465d3e404,0,50,50,122,1,twoone,,,,,,,,,,,,,,,,,,,,,,,,,,,,,,,,,,,,,,,,,,,,,,,,,,,,,,,,,,,,,,,,,,,,,,,,,,,,,,,,,,,,,,,,,,,,,,,,,,,,,,,,,,,,,,,,,,,,,,,,,,,,,,,,,,,,,,,,,,,,,,,,,,,,,,,,
,,,,,,60fc7f3f9cc85bfba63d07b5,62bbf9edd9725e00c7cc9778,2022-06-29_09h16.22.413,Colour_Asymmetry_Pilot,2022.1.3,Win32,40.01920922,62bbe60bf3d75ef465d3e404,0,51,51,87,1,fourthree,,,,,,,,,,,,,,,,,,,,,,,,,,,,,,,,,,,,,,,,,,,,,,,,,,,,,,,,,,,,,,,,,,,,,,,,,,,,,,,,,,,,,,,,,,,,,,,,,,,,,,,,,,,,,,,,,,,,,,,,,,,,,,,,,,,,,,,,,,,,,,,,,,,,,,,,
,,,,,,60fc7f3f9cc85bfba63d07b5,62bbf9edd9725e00c7cc9778,2022-06-29_09h16.22.413,Colour_Asymmetry_Pilot,2022.1.3,Win32,40.01920922,62bbe60bf3d75ef465d3e404,0,52,52,25,1,onethree,,,,,,,,,,,,,,,,,,,,,,,,,,,,,,,,,,,,,,,,,,,,,,,,,,,,,,,,,,,,,,,,,,,,,,,,,,,,,,,,,,,,,,,,,,,,,,,,,,,,,,,,,,,,,,,,,,,,,,,,,,,,,,,,,,,,,,,,,,,,,,,,,,,,,,,,
,,,,,,60fc7f3f9cc85bfba63d07b5,62bbf9edd9725e00c7cc9778,2022-06-29_09h16.22.413,Colour_Asymmetry_Pilot,2022.1.3,Win32,40.01920922,62bbe60bf3d75ef465d3e404,0,53,53,35,1,twofour,,,,,,,,,,,,,,,,,,,,,,,,,,,,,,,,,,,,,,,,,,,,,,,,,,,,,,,,,,,,,,,,,,,,,,,,,,,,,,,,,,,,,,,,,,,,,,,,,,,,,,,,,,,,,,,,,,,,,,,,,,,,,,,,,,,,,,,,,,,,,,,,,,,,,,,,
,,,,,,60fc7f3f9cc85bfba63d07b5,62bbf9edd9725e00c7cc9778,2022-06-29_09h16.22.413,Colour_Asymmetry_Pilot,2022.1.3,Win32,40.01920922,62bbe60bf3d75ef465d3e404,0,54,54,95,1,fourthree,,,,,,,,,,,,,,,,,,,,,,,,,,,,,,,,,,,,,,,,,,,,,,,,,,,,,,,,,,,,,,,,,,,,,,,,,,,,,,,,,,,,,,,,,,,,,,,,,,,,,,,,,,,,,,,,,,,,,,,,,,,,,,,,,,,,,,,,,,,,,,,,,,,,,,,,
,,,,,,60fc7f3f9cc85bfba63d07b5,62bbf9edd9725e00c7cc9778,2022-06-29_09h16.22.413,Colour_Asymmetry_Pilot,2022.1.3,Win32,40.01920922,62bbe60bf3d75ef465d3e404,0,55,55,22,1,fourtwo,,,,,,,,,,,,,,,,,,,,,,,,,,,,,,,,,,,,,,,,,,,,,,,,,,,,,,,,,,,,,,,,,,,,,,,,,,,,,,,,,,,,,,,,,,,,,,,,,,,,,,,,,,,,,,,,,,,,,,,,,,,,,,,,,,,,,,,,,,,,,,,,,,,,,,,,
,,,,,,60fc7f3f9cc85bfba63d07b5,62bbf9edd9725e00c7cc9778,2022-06-29_09h16.22.413,Colour_Asymmetry_Pilot,2022.1.3,Win32,40.01920922,62bbe60bf3d75ef465d3e404,0,56,56,89,1,onethree,,,,,,,,,,,,,,,,,,,,,,,,,,,,,,,,,,,,,,,,,,,,,,,,,,,,,,,,,,,,,,,,,,,,,,,,,,,,,,,,,,,,,,,,,,,,,,,,,,,,,,,,,,,,,,,,,,,,,,,,,,,,,,,,,,,,,,,,,,,,,,,,,,,,,,,,
,,,,,,60fc7f3f9cc85bfba63d07b5,62bbf9edd9725e00c7cc9778,2022-06-29_09h16.22.413,Colour_Asymmetry_Pilot,2022.1.3,Win32,40.01920922,62bbe60bf3d75ef465d3e404,0,57,57,3,1,twofour,,,,,,,,,,,,,,,,,,,,,,,,,,,,,,,,,,,,,,,,,,,,,,,,,,,,,,,,,,,,,,,,,,,,,,,,,,,,,,,,,,,,,,,,,,,,,,,,,,,,,,,,,,,,,,,,,,,,,,,,,,,,,,,,,,,,,,,,,,,,,,,,,,,,,,,,
,,,,,,60fc7f3f9cc85bfba63d07b5,62bbf9edd9725e00c7cc9778,2022-06-29_09h16.22.413,Colour_Asymmetry_Pilot,2022.1.3,Win32,40.01920922,62bbe60bf3d75ef465d3e404,0,58,58,64,1,onetwo,,,,,,,,,,,,,,,,,,,,,,,,,,,,,,,,,,,,,,,,,,,,,,,,,,,,,,,,,,,,,,,,,,,,,,,,,,,,,,,,,,,,,,,,,,,,,,,,,,,,,,,,,,,,,,,,,,,,,,,,,,,,,,,,,,,,,,,,,,,,,,,,,,,,,,,,
,,,,,,60fc7f3f9cc85bfba63d07b5,62bbf9edd9725e00c7cc9778,2022-06-29_09h16.22.413,Colour_Asymmetry_Pilot,2022.1.3,Win32,40.01920922,62bbe60bf3d75ef465d3e404,0,59,59,110,1,fourtwo,,,,,,,,,,,,,,,,,,,,,,,,,,,,,,,,,,,,,,,,,,,,,,,,,,,,,,,,,,,,,,,,,,,,,,,,,,,,,,,,,,,,,,,,,,,,,,,,,,,,,,,,,,,,,,,,,,,,,,,,,,,,,,,,,,,,,,,,,,,,,,,,,,,,,,,,
,,,,,,60fc7f3f9cc85bfba63d07b5,62bbf9edd9725e00c7cc9778,2022-06-29_09h16.22.413,Colour_Asymmetry_Pilot,2022.1.3,Win32,40.01920922,62bbe60bf3d75ef465d3e404,0,60,60,131,1,twofour,,,,,,,,,,,,,,,,,,,,,,,,,,,,,,,,,,,,,,,,,,,,,,,,,,,,,,,,,,,,,,,,,,,,,,,,,,,,,,,,,,,,,,,,,,,,,,,,,,,,,,,,,,,,,,,,,,,,,,,,,,,,,,,,,,,,,,,,,,,,,,,,,,,,,,,,
,,,,,,60fc7f3f9cc85bfba63d07b5,62bbf9edd9725e00c7cc9778,2022-06-29_09h16.22.413,Colour_Asymmetry_Pilot,2022.1.3,Win32,40.01920922,62bbe60bf3d75ef465d3e404,0,61,61,39,1,fourthree,,,,,,,,,,,,,,,,,,,,,,,,,,,,,,,,,,,,,,,,,,,,,,,,,,,,,,,,,,,,,,,,,,,,,,,,,,,,,,,,,,,,,,,,,,,,,,,,,,,,,,,,,,,,,,,,,,,,,,,,,,,,,,,,,,,,,,,,,,,,,,,,,,,,,,,,
,,,,,,60fc7f3f9cc85bfba63d07b5,62bbf9edd9725e00c7cc9778,2022-06-29_09h16.22.413,Colour_Asymmetry_Pilot,2022.1.3,Win32,40.01920922,62bbe60bf3d75ef465d3e404,0,62,62,70,1,fourtwo,,,,,,,,,,,,,,,,,,,,,,,,,,,,,,,,,,,,,,,,,,,,,,,,,,,,,,,,,,,,,,,,,,,,,,,,,,,,,,,,,,,,,,,,,,,,,,,,,,,,,,,,,,,,,,,,,,,,,,,,,,,,,,,,,,,,,,,,,,,,,,,,,,,,,,,,
,,,,,,60fc7f3f9cc85bfba63d07b5,62bbf9edd9725e00c7cc9778,2022-06-29_09h16.22.413,Colour_Asymmetry_Pilot,2022.1.3,Win32,40.01920922,62bbe60bf3d75ef465d3e404,0,63,63,160,1,onetwo,,,,,,,,,,,,,,,,,,,,,,,,,,,,,,,,,,,,,,,,,,,,,,,,,,,,,,,,,,,,,,,,,,,,,,,,,,,,,,,,,,,,,,,,,,,,,,,,,,,,,,,,,,,,,,,,,,,,,,,,,,,,,,,,,,,,,,,,,,,,,,,,,,,,,,,,
,,,,,,60fc7f3f9cc85bfba63d07b5,62bbf9edd9725e00c7cc9778,2022-06-29_09h16.22.413,Colour_Asymmetry_Pilot,2022.1.3,Win32,40.01920922,62bbe60bf3d75ef465d3e404,0,64,64,47,1,fourthree,,,,,,,,,,,,,,,,,,,,,,,,,,,,,,,,,,,,,,,,,,,,,,,,,,,,,,,,,,,,,,,,,,,,,,,,,,,,,,,,,,,,,,,,,,,,,,,,,,,,,,,,,,,,,,,,,,,,,,,,,,,,,,,,,,,,,,,,,,,,,,,,,,,,,,,,
,,,,,,60fc7f3f9cc85bfba63d07b5,62bbf9edd9725e00c7cc9778,2022-06-29_09h16.22.413,Colour_Asymmetry_Pilot,2022.1.3,Win32,40.01920922,62bbe60bf3d75ef465d3e404,0,65,65,20,1,threeone,,,,,,,,,,,,,,,,,,,,,,,,,,,,,,,,,,,,,,,,,,,,,,,,,,,,,,,,,,,,,,,,,,,,,,,,,,,,,,,,,,,,,,,,,,,,,,,,,,,,,,,,,,,,,,,,,,,,,,,,,,,,,,,,,,,,,,,,,,,,,,,,,,,,,,,,
,,,,,,60fc7f3f9cc85bfba63d07b5,62bbf9edd9725e00c7cc9778,2022-06-29_09h16.22.413,Colour_Asymmetry_Pilot,2022.1.3,Win32,40.01920922,62bbe60bf3d75ef465d3e404,0,66,66,32,1,onetwo,,,,,,,,,,,,,,,,,,,,,,,,,,,,,,,,,,,,,,,,,,,,,,,,,,,,,,,,,,,,,,,,,,,,,,,,,,,,,,,,,,,,,,,,,,,,,,,,,,,,,,,,,,,,,,,,,,,,,,,,,,,,,,,,,,,,,,,,,,,,,,,,,,,,,,,,
,,,,,,60fc7f3f9cc85bfba63d07b5,62bbf9edd9725e00c7cc9778,2022-06-29_09h16.22.413,Colour_Asymmetry_Pilot,2022.1.3,Win32,40.01920922,62bbe60bf3d75ef465d3e404,0,67,67,98,1,twoone,,,,,,,,,,,,,,,,,,,,,,,,,,,,,,,,,,,,,,,,,,,,,,,,,,,,,,,,,,,,,,,,,,,,,,,,,,,,,,,,,,,,,,,,,,,,,,,,,,,,,,,,,,,,,,,,,,,,,,,,,,,,,,,,,,,,,,,,,,,,,,,,,,,,,,,,
,,,,,,60fc7f3f9cc85bfba63d07b5,62bbf9edd9725e00c7cc9778,2022-06-29_09h16.22.413,Colour_Asymmetry_Pilot,2022.1.3,Win32,40.01920922,62bbe60bf3d75ef465d3e404,0,68,68,157,1,threefour,,,,,,,,,,,,,,,,,,,,,,,,,,,,,,,,,,,,,,,,,,,,,,,,,,,,,,,,,,,,,,,,,,,,,,,,,,,,,,,,,,,,,,,,,,,,,,,,,,,,,,,,,,,,,,,,,,,,,,,,,,,,,,,,,,,,,,,,,,,,,,,,,,,,,,,,
,,,,,,60fc7f3f9cc85bfba63d07b5,62bbf9edd9725e00c7cc9778,2022-06-29_09h16.22.413,Colour_Asymmetry_Pilot,2022.1.3,Win32,40.01920922,62bbe60bf3d75ef465d3e404,0,69,69,115,1,twofour,,,,,,,,,,,,,,,,,,,,,,,,,,,,,,,,,,,,,,,,,,,,,,,,,,,,,,,,,,,,,,,,,,,,,,,,,,,,,,,,,,,,,,,,,,,,,,,,,,,,,,,,,,,,,,,,,,,,,,,,,,,,,,,,,,,,,,,,,,,,,,,,,,,,,,,,
,,,,,,60fc7f3f9cc85bfba63d07b5,62bbf9edd9725e00c7cc9778,2022-06-29_09h16.22.413,Colour_Asymmetry_Pilot,2022.1.3,Win32,40.01920922,62bbe60bf3d75ef465d3e404,0,70,70,74,1,twoone,,,,,,,,,,,,,,,,,,,,,,,,,,,,,,,,,,,,,,,,,,,,,,,,,,,,,,,,,,,,,,,,,,,,,,,,,,,,,,,,,,,,,,,,,,,,,,,,,,,,,,,,,,,,,,,,,,,,,,,,,,,,,,,,,,,,,,,,,,,,,,,,,,,,,,,,
,,,,,,60fc7f3f9cc85bfba63d07b5,62bbf9edd9725e00c7cc9778,2022-06-29_09h16.22.413,Colour_Asymmetry_Pilot,2022.1.3,Win32,40.01920922,62bbe60bf3d75ef465d3e404,0,71,71,102,1,fourtwo,,,,,,,,,,,,,,,,,,,,,,,,,,,,,,,,,,,,,,,,,,,,,,,,,,,,,,,,,,,,,,,,,,,,,,,,,,,,,,,,,,,,,,,,,,,,,,,,,,,,,,,,,,,,,,,,,,,,,,,,,,,,,,,,,,,,,,,,,,,,,,,,,,,,,,,,
,,,,,,60fc7f3f9cc85bfba63d07b5,62bbf9edd9725e00c7cc9778,2022-06-29_09h16.22.413,Colour_Asymmetry_Pilot,2022.1.3,Win32,40.01920922,62bbe60bf3d75ef465d3e404,0,72,72,0,1,onetwo,,,,,,,,,,,,,,,,,,,,,,,,,,,,,,,,,,,,,,,,,,,,,,,,,,,,,,,,,,,,,,,,,,,,,,,,,,,,,,,,,,,,,,,,,,,,,,,,,,,,,,,,,,,,,,,,,,,,,,,,,,,,,,,,,,,,,,,,,,,,,,,,,,,,,,,,
,,,,,,60fc7f3f9cc85bfba63d07b5,62bbf9edd9725e00c7cc9778,2022-06-29_09h16.22.413,Colour_Asymmetry_Pilot,2022.1.3,Win32,40.01920922,62bbe60bf3d75ef465d3e404,0,73,73,38,1,fourtwo,,,,,,,,,,,,,,,,,,,,,,,,,,,,,,,,,,,,,,,,,,,,,,,,,,,,,,,,,,,,,,,,,,,,,,,,,,,,,,,,,,,,,,,,,,,,,,,,,,,,,,,,,,,,,,,,,,,,,,,,,,,,,,,,,,,,,,,,,,,,,,,,,,,,,,,,
,,,,,,60fc7f3f9cc85bfba63d07b5,62bbf9edd9725e00c7cc9778,2022-06-29_09h16.22.413,Colour_Asymmetry_Pilot,2022.1.3,Win32,40.01920922,62bbe60bf3d75ef465d3e404,0,74,74,99,1,twofour,,,,,,,,,,,,,,,,,,,,,,,,,,,,,,,,,,,,,,,,,,,,,,,,,,,,,,,,,,,,,,,,,,,,,,,,,,,,,,,,,,,,,,,,,,,,,,,,,,,,,,,,,,,,,,,,,,,,,,,,,,,,,,,,,,,,,,,,,,,,,,,,,,,,,,,,
,,,,,,60fc7f3f9cc85bfba63d07b5,62bbf9edd9725e00c7cc9778,2022-06-29_09h16.22.413,Colour_Asymmetry_Pilot,2022.1.3,Win32,40.01920922,62bbe60bf3d75ef465d3e404,0,75,75,119,1,fourthree,,,,,,,,,,,,,,,,,,,,,,,,,,,,,,,,,,,,,,,,,,,,,,,,,,,,,,,,,,,,,,,,,,,,,,,,,,,,,,,,,,,,,,,,,,,,,,,,,,,,,,,,,,,,,,,,,,,,,,,,,,,,,,,,,,,,,,,,,,,,,,,,,,,,,,,,
,,,,,,60fc7f3f9cc85bfba63d07b5,62bbf9edd9725e00c7cc9778,2022-06-29_09h16.22.413,Colour_Asymmetry_Pilot,2022.1.3,Win32,40.01920922,62bbe60bf3d75ef465d3e404,0,76,76,91,1,twofour,,,,,,,,,,,,,,,,,,,,,,,,,,,,,,,,,,,,,,,,,,,,,,,,,,,,,,,,,,,,,,,,,,,,,,,,,,,,,,,,,,,,,,,,,,,,,,,,,,,,,,,,,,,,,,,,,,,,,,,,,,,,,,,,,,,,,,,,,,,,,,,,,,,,,,,,
,,,,,,60fc7f3f9cc85bfba63d07b5,62bbf9edd9725e00c7cc9778,2022-06-29_09h16.22.413,Colour_Asymmetry_Pilot,2022.1.3,Win32,40.01920922,62bbe60bf3d75ef465d3e404,0,77,77,11,1,twofour,,,,,,,,,,,,,,,,,,,,,,,,,,,,,,,,,,,,,,,,,,,,,,,,,,,,,,,,,,,,,,,,,,,,,,,,,,,,,,,,,,,,,,,,,,,,,,,,,,,,,,,,,,,,,,,,,,,,,,,,,,,,,,,,,,,,,,,,,,,,,,,,,,,,,,,,
,,,,,,60fc7f3f9cc85bfba63d07b5,62bbf9edd9725e00c7cc9778,2022-06-29_09h16.22.413,Colour_Asymmetry_Pilot,2022.1.3,Win32,40.01920922,62bbe60bf3d75ef465d3e404,0,78,78,41,1,onethree,,,,,,,,,,,,,,,,,,,,,,,,,,,,,,,,,,,,,,,,,,,,,,,,,,,,,,,,,,,,,,,,,,,,,,,,,,,,,,,,,,,,,,,,,,,,,,,,,,,,,,,,,,,,,,,,,,,,,,,,,,,,,,,,,,,,,,,,,,,,,,,,,,,,,,,,
,,,,,,60fc7f3f9cc85bfba63d07b5,62bbf9edd9725e00c7cc9778,2022-06-29_09h16.22.413,Colour_Asymmetry_Pilot,2022.1.3,Win32,40.01920922,62bbe60bf3d75ef465d3e404,0,79,79,135,1,fourthree,,,,,,,,,,,,,,,,,,,,,,,,,,,,,,,,,,,,,,,,,,,,,,,,,,,,,,,,,,,,,,,,,,,,,,,,,,,,,,,,,,,,,,,,,,,,,,,,,,,,,,,,,,,,,,,,,,,,,,,,,,,,,,,,,,,,,,,,,,,,,,,,,,,,,,,,
,,,,,,60fc7f3f9cc85bfba63d07b5,62bbf9edd9725e00c7cc9778,2022-06-29_09h16.22.413,Colour_Asymmetry_Pilot,2022.1.3,Win32,40.01920922,62bbe60bf3d75ef465d3e404,0,80,80,114,1,twoone,,,,,,,,,,,,,,,,,,,,,,,,,,,,,,,,,,,,,,,,,,,,,,,,,,,,,,,,,,,,,,,,,,,,,,,,,,,,,,,,,,,,,,,,,,,,,,,,,,,,,,,,,,,,,,,,,,,,,,,,,,,,,,,,,,,,,,,,,,,,,,,,,,,,,,,,
,,,,,,60fc7f3f9cc85bfba63d07b5,62bbf9edd9725e00c7cc9778,2022-06-29_09h16.22.413,Colour_Asymmetry_Pilot,2022.1.3,Win32,40.01920922,62bbe60bf3d75ef465d3e404,0,81,81,156,1,threeone,,,,,,,,,,,,,,,,,,,,,,,,,,,,,,,,,,,,,,,,,,,,,,,,,,,,,,,,,,,,,,,,,,,,,,,,,,,,,,,,,,,,,,,,,,,,,,,,,,,,,,,,,,,,,,,,,,,,,,,,,,,,,,,,,,,,,,,,,,,,,,,,,,,,,,,,
,,,,,,60fc7f3f9cc85bfba63d07b5,62bbf9edd9725e00c7cc9778,2022-06-29_09h16.22.413,Colour_Asymmetry_Pilot,2022.1.3,Win32,40.01920922,62bbe60bf3d75ef465d3e404,0,82,82,100,1,threeone,,,,,,,,,,,,,,,,,,,,,,,,,,,,,,,,,,,,,,,,,,,,,,,,,,,,,,,,,,,,,,,,,,,,,,,,,,,,,,,,,,,,,,,,,,,,,,,,,,,,,,,,,,,,,,,,,,,,,,,,,,,,,,,,,,,,,,,,,,,,,,,,,,,,,,,,
,,,,,,60fc7f3f9cc85bfba63d07b5,62bbf9edd9725e00c7cc9778,2022-06-29_09h16.22.413,Colour_Asymmetry_Pilot,2022.1.3,Win32,40.01920922,62bbe60bf3d75ef465d3e404,0,83,83,117,1,threefour,,,,,,,,,,,,,,,,,,,,,,,,,,,,,,,,,,,,,,,,,,,,,,,,,,,,,,,,,,,,,,,,,,,,,,,,,,,,,,,,,,,,,,,,,,,,,,,,,,,,,,,,,,,,,,,,,,,,,,,,,,,,,,,,,,,,,,,,,,,,,,,,,,,,,,,,
,,,,,,60fc7f3f9cc85bfba63d07b5,62bbf9edd9725e00c7cc9778,2022-06-29_09h16.22.413,Colour_Asymmetry_Pilot,2022.1.3,Win32,40.01920922,62bbe60bf3d75ef465d3e404,0,84,84,128,1,onetwo,,,,,,,,,,,,,,,,,,,,,,,,,,,,,,,,,,,,,,,,,,,,,,,,,,,,,,,,,,,,,,,,,,,,,,,,,,,,,,,,,,,,,,,,,,,,,,,,,,,,,,,,,,,,,,,,,,,,,,,,,,,,,,,,,,,,,,,,,,,,,,,,,,,,,,,,
,,,,,,60fc7f3f9cc85bfba63d07b5,62bbf9edd9725e00c7cc9778,2022-06-29_09h16.22.413,Colour_Asymmetry_Pilot,2022.1.3,Win32,40.01920922,62bbe60bf3d75ef465d3e404,0,85,85,16,1,onetwo,,,,,,,,,,,,,,,,,,,,,,,,,,,,,,,,,,,,,,,,,,,,,,,,,,,,,,,,,,,,,,,,,,,,,,,,,,,,,,,,,,,,,,,,,,,,,,,,,,,,,,,,,,,,,,,,,,,,,,,,,,,,,,,,,,,,,,,,,,,,,,,,,,,,,,,,
,,,,,,60fc7f3f9cc85bfba63d07b5,62bbf9edd9725e00c7cc9778,2022-06-29_09h16.22.413,Colour_Asymmetry_Pilot,2022.1.3,Win32,40.01920922,62bbe60bf3d75ef465d3e404,0,86,86,112,1,onetwo,,,,,,,,,,,,,,,,,,,,,,,,,,,,,,,,,,,,,,,,,,,,,,,,,,,,,,,,,,,,,,,,,,,,,,,,,,,,,,,,,,,,,,,,,,,,,,,,,,,,,,,,,,,,,,,,,,,,,,,,,,,,,,,,,,,,,,,,,,,,,,,,,,,,,,,,
,,,,,,60fc7f3f9cc85bfba63d07b5,62bbf9edd9725e00c7cc9778,2022-06-29_09h16.22.413,Colour_Asymmetry_Pilot,2022.1.3,Win32,40.01920922,62bbe60bf3d75ef465d3e404,0,87,87,61,1,threefour,,,,,,,,,,,,,,,,,,,,,,,,,,,,,,,,,,,,,,,,,,,,,,,,,,,,,,,,,,,,,,,,,,,,,,,,,,,,,,,,,,,,,,,,,,,,,,,,,,,,,,,,,,,,,,,,,,,,,,,,,,,,,,,,,,,,,,,,,,,,,,,,,,,,,,,,
,,,,,,60fc7f3f9cc85bfba63d07b5,62bbf9edd9725e00c7cc9778,2022-06-29_09h16.22.413,Colour_Asymmetry_Pilot,2022.1.3,Win32,40.01920922,62bbe60bf3d75ef465d3e404,0,88,88,152,1,onetwo,,,,,,,,,,,,,,,,,,,,,,,,,,,,,,,,,,,,,,,,,,,,,,,,,,,,,,,,,,,,,,,,,,,,,,,,,,,,,,,,,,,,,,,,,,,,,,,,,,,,,,,,,,,,,,,,,,,,,,,,,,,,,,,,,,,,,,,,,,,,,,,,,,,,,,,,
,,,,,,60fc7f3f9cc85bfba63d07b5,62bbf9edd9725e00c7cc9778,2022-06-29_09h16.22.413,Colour_Asymmetry_Pilot,2022.1.3,Win32,40.01920922,62bbe60bf3d75ef465d3e404,0,89,89,105,1,onethree,,,,,,,,,,,,,,,,,,,,,,,,,,,,,,,,,,,,,,,,,,,,,,,,,,,,,,,,,,,,,,,,,,,,,,,,,,,,,,,,,,,,,,,,,,,,,,,,,,,,,,,,,,,,,,,,,,,,,,,,,,,,,,,,,,,,,,,,,,,,,,,,,,,,,,,,
,,,,,,60fc7f3f9cc85bfba63d07b5,62bbf9edd9725e00c7cc9778,2022-06-29_09h16.22.413,Colour_Asymmetry_Pilot,2022.1.3,Win32,40.01920922,62bbe60bf3d75ef465d3e404,0,90,90,106,1,twoone,,,,,,,,,,,,,,,,,,,,,,,,,,,,,,,,,,,,,,,,,,,,,,,,,,,,,,,,,,,,,,,,,,,,,,,,,,,,,,,,,,,,,,,,,,,,,,,,,,,,,,,,,,,,,,,,,,,,,,,,,,,,,,,,,,,,,,,,,,,,,,,,,,,,,,,,
,,,,,,60fc7f3f9cc85bfba63d07b5,62bbf9edd9725e00c7cc9778,2022-06-29_09h16.22.413,Colour_Asymmetry_Pilot,2022.1.3,Win32,40.01920922,62bbe60bf3d75ef465d3e404,0,91,91,5,1,threefour,,,,,,,,,,,,,,,,,,,,,,,,,,,,,,,,,,,,,,,,,,,,,,,,,,,,,,,,,,,,,,,,,,,,,,,,,,,,,,,,,,,,,,,,,,,,,,,,,,,,,,,,,,,,,,,,,,,,,,,,,,,,,,,,,,,,,,,,,,,,,,,,,,,,,,,,
,,,,,,60fc7f3f9cc85bfba63d07b5,62bbf9edd9725e00c7cc9778,2022-06-29_09h16.22.413,Colour_Asymmetry_Pilot,2022.1.3,Win32,40.01920922,62bbe60bf3d75ef465d3e404,0,92,92,130,1,twoone,,,,,,,,,,,,,,,,,,,,,,,,,,,,,,,,,,,,,,,,,,,,,,,,,,,,,,,,,,,,,,,,,,,,,,,,,,,,,,,,,,,,,,,,,,,,,,,,,,,,,,,,,,,,,,,,,,,,,,,,,,,,,,,,,,,,,,,,,,,,,,,,,,,,,,,,
,,,,,,60fc7f3f9cc85bfba63d07b5,62bbf9edd9725e00c7cc9778,2022-06-29_09h16.22.413,Colour_Asymmetry_Pilot,2022.1.3,Win32,40.01920922,62bbe60bf3d75ef465d3e404,0,93,93,73,1,onethree,,,,,,,,,,,,,,,,,,,,,,,,,,,,,,,,,,,,,,,,,,,,,,,,,,,,,,,,,,,,,,,,,,,,,,,,,,,,,,,,,,,,,,,,,,,,,,,,,,,,,,,,,,,,,,,,,,,,,,,,,,,,,,,,,,,,,,,,,,,,,,,,,,,,,,,,
,,,,,,60fc7f3f9cc85bfba63d07b5,62bbf9edd9725e00c7cc9778,2022-06-29_09h16.22.413,Colour_Asymmetry_Pilot,2022.1.3,Win32,40.01920922,62bbe60bf3d75ef465d3e404,0,94,94,43,1,twofour,,,,,,,,,,,,,,,,,,,,,,,,,,,,,,,,,,,,,,,,,,,,,,,,,,,,,,,,,,,,,,,,,,,,,,,,,,,,,,,,,,,,,,,,,,,,,,,,,,,,,,,,,,,,,,,,,,,,,,,,,,,,,,,,,,,,,,,,,,,,,,,,,,,,,,,,
,,,,,,60fc7f3f9cc85bfba63d07b5,62bbf9edd9725e00c7cc9778,2022-06-29_09h16.22.413,Colour_Asymmetry_Pilot,2022.1.3,Win32,40.01920922,62bbe60bf3d75ef465d3e404,0,95,95,139,1,twofour,,,,,,,,,,,,,,,,,,,,,,,,,,,,,,,,,,,,,,,,,,,,,,,,,,,,,,,,,,,,,,,,,,,,,,,,,,,,,,,,,,,,,,,,,,,,,,,,,,,,,,,,,,,,,,,,,,,,,,,,,,,,,,,,,,,,,,,,,,,,,,,,,,,,,,,,
,,,,,,60fc7f3f9cc85bfba63d07b5,62bbf9edd9725e00c7cc9778,2022-06-29_09h16.22.413,Colour_Asymmetry_Pilot,2022.1.3,Win32,40.01920922,62bbe60bf3d75ef465d3e404,0,96,96,118,1,fourtwo,,,,,,,,,,,,,,,,,,,,,,,,,,,,,,,,,,,,,,,,,,,,,,,,,,,,,,,,,,,,,,,,,,,,,,,,,,,,,,,,,,,,,,,,,,,,,,,,,,,,,,,,,,,,,,,,,,,,,,,,,,,,,,,,,,,,,,,,,,,,,,,,,,,,,,,,
,,,,,,60fc7f3f9cc85bfba63d07b5,62bbf9edd9725e00c7cc9778,2022-06-29_09h16.22.413,Colour_Asymmetry_Pilot,2022.1.3,Win32,40.01920922,62bbe60bf3d75ef465d3e404,0,97,97,94,1,fourtwo,,,,,,,,,,,,,,,,,,,,,,,,,,,,,,,,,,,,,,,,,,,,,,,,,,,,,,,,,,,,,,,,,,,,,,,,,,,,,,,,,,,,,,,,,,,,,,,,,,,,,,,,,,,,,,,,,,,,,,,,,,,,,,,,,,,,,,,,,,,,,,,,,,,,,,,,
,,,,,,60fc7f3f9cc85bfba63d07b5,62bbf9edd9725e00c7cc9778,2022-06-29_09h16.22.413,Colour_Asymmetry_Pilot,2022.1.3,Win32,40.01920922,62bbe60bf3d75ef465d3e404,0,98,98,82,1,twoone,,,,,,,,,,,,,,,,,,,,,,,,,,,,,,,,,,,,,,,,,,,,,,,,,,,,,,,,,,,,,,,,,,,,,,,,,,,,,,,,,,,,,,,,,,,,,,,,,,,,,,,,,,,,,,,,,,,,,,,,,,,,,,,,,,,,,,,,,,,,,,,,,,,,,,,,
,,,,,,60fc7f3f9cc85bfba63d07b5,62bbf9edd9725e00c7cc9778,2022-06-29_09h16.22.413,Colour_Asymmetry_Pilot,2022.1.3,Win32,40.01920922,62bbe60bf3d75ef465d3e404,0,99,99,44,1,threeone,,,,,,,,,,,,,,,,,,,,,,,,,,,,,,,,,,,,,,,,,,,,,,,,,,,,,,,,,,,,,,,,,,,,,,,,,,,,,,,,,,,,,,,,,,,,,,,,,,,,,,,,,,,,,,,,,,,,,,,,,,,,,,,,,,,,,,,,,,,,,,,,,,,,,,,,
,,,,,,60fc7f3f9cc85bfba63d07b5,62bbf9edd9725e00c7cc9778,2022-06-29_09h16.22.413,Colour_Asymmetry_Pilot,2022.1.3,Win32,40.01920922,62bbe60bf3d75ef465d3e404,0,100,100,77,1,threefour,,,,,,,,,,,,,,,,,,,,,,,,,,,,,,,,,,,,,,,,,,,,,,,,,,,,,,,,,,,,,,,,,,,,,,,,,,,,,,,,,,,,,,,,,,,,,,,,,,,,,,,,,,,,,,,,,,,,,,,,,,,,,,,,,,,,,,,,,,,,,,,,,,,,,,,,
,,,,,,60fc7f3f9cc85bfba63d07b5,62bbf9edd9725e00c7cc9778,2022-06-29_09h16.22.413,Colour_Asymmetry_Pilot,2022.1.3,Win32,40.01920922,62bbe60bf3d75ef465d3e404,0,101,101,42,1,twoone,,,,,,,,,,,,,,,,,,,,,,,,,,,,,,,,,,,,,,,,,,,,,,,,,,,,,,,,,,,,,,,,,,,,,,,,,,,,,,,,,,,,,,,,,,,,,,,,,,,,,,,,,,,,,,,,,,,,,,,,,,,,,,,,,,,,,,,,,,,,,,,,,,,,,,,,
,,,,,,60fc7f3f9cc85bfba63d07b5,62bbf9edd9725e00c7cc9778,2022-06-29_09h16.22.413,Colour_Asymmetry_Pilot,2022.1.3,Win32,40.01920922,62bbe60bf3d75ef465d3e404,0,102,102,161,1,onethree,,,,,,,,,,,,,,,,,,,,,,,,,,,,,,,,,,,,,,,,,,,,,,,,,,,,,,,,,,,,,,,,,,,,,,,,,,,,,,,,,,,,,,,,,,,,,,,,,,,,,,,,,,,,,,,,,,,,,,,,,,,,,,,,,,,,,,,,,,,,,,,,,,,,,,,,
,,,,,,60fc7f3f9cc85bfba63d07b5,62bbf9edd9725e00c7cc9778,2022-06-29_09h16.22.413,Colour_Asymmetry_Pilot,2022.1.3,Win32,40.01920922,62bbe60bf3d75ef465d3e404,0,103,103,33,1,onethree,,,,,,,,,,,,,,,,,,,,,,,,,,,,,,,,,,,,,,,,,,,,,,,,,,,,,,,,,,,,,,,,,,,,,,,,,,,,,,,,,,,,,,,,,,,,,,,,,,,,,,,,,,,,,,,,,,,,,,,,,,,,,,,,,,,,,,,,,,,,,,,,,,,,,,,,
,,,,,,60fc7f3f9cc85bfba63d07b5,62bbf9edd9725e00c7cc9778,2022-06-29_09h16.22.413,Colour_Asymmetry_Pilot,2022.1.3,Win32,40.01920922,62bbe60bf3d75ef465d3e404,0,104,104,55,1,fourthree,,,,,,,,,,,,,,,,,,,,,,,,,,,,,,,,,,,,,,,,,,,,,,,,,,,,,,,,,,,,,,,,,,,,,,,,,,,,,,,,,,,,,,,,,,,,,,,,,,,,,,,,,,,,,,,,,,,,,,,,,,,,,,,,,,,,,,,,,,,,,,,,,,,,,,,,
,,,,,,60fc7f3f9cc85bfba63d07b5,62bbf9edd9725e00c7cc9778,2022-06-29_09h16.22.413,Colour_Asymmetry_Pilot,2022.1.3,Win32,40.01920922,62bbe60bf3d75ef465d3e404,0,105,105,14,1,fourtwo,,,,,,,,,,,,,,,,,,,,,,,,,,,,,,,,,,,,,,,,,,,,,,,,,,,,,,,,,,,,,,,,,,,,,,,,,,,,,,,,,,,,,,,,,,,,,,,,,,,,,,,,,,,,,,,,,,,,,,,,,,,,,,,,,,,,,,,,,,,,,,,,,,,,,,,,
,,,,,,60fc7f3f9cc85bfba63d07b5,62bbf9edd9725e00c7cc9778,2022-06-29_09h16.22.413,Colour_Asymmetry_Pilot,2022.1.3,Win32,40.01920922,62bbe60bf3d75ef465d3e404,0,106,106,66,1,twoone,,,,,,,,,,,,,,,,,,,,,,,,,,,,,,,,,,,,,,,,,,,,,,,,,,,,,,,,,,,,,,,,,,,,,,,,,,,,,,,,,,,,,,,,,,,,,,,,,,,,,,,,,,,,,,,,,,,,,,,,,,,,,,,,,,,,,,,,,,,,,,,,,,,,,,,,
,,,,,,60fc7f3f9cc85bfba63d07b5,62bbf9edd9725e00c7cc9778,2022-06-29_09h16.22.413,Colour_Asymmetry_Pilot,2022.1.3,Win32,40.01920922,62bbe60bf3d75ef465d3e404,0,107,107,136,1,onetwo,,,,,,,,,,,,,,,,,,,,,,,,,,,,,,,,,,,,,,,,,,,,,,,,,,,,,,,,,,,,,,,,,,,,,,,,,,,,,,,,,,,,,,,,,,,,,,,,,,,,,,,,,,,,,,,,,,,,,,,,,,,,,,,,,,,,,,,,,,,,,,,,,,,,,,,,
,,,,,,60fc7f3f9cc85bfba63d07b5,62bbf9edd9725e00c7cc9778,2022-06-29_09h16.22.413,Colour_Asymmetry_Pilot,2022.1.3,Win32,40.01920922,62bbe60bf3d75ef465d3e404,0,108,108,1,1,onethree,,,,,,,,,,,,,,,,,,,,,,,,,,,,,,,,,,,,,,,,,,,,,,,,,,,,,,,,,,,,,,,,,,,,,,,,,,,,,,,,,,,,,,,,,,,,,,,,,,,,,,,,,,,,,,,,,,,,,,,,,,,,,,,,,,,,,,,,,,,,,,,,,,,,,,,,
,,,,,,60fc7f3f9cc85bfba63d07b5,62bbf9edd9725e00c7cc9778,2022-06-29_09h16.22.413,Colour_Asymmetry_Pilot,2022.1.3,Win32,40.01920922,62bbe60bf3d75ef465d3e404,0,109,109,6,1,fourtwo,,,,,,,,,,,,,,,,,,,,,,,,,,,,,,,,,,,,,,,,,,,,,,,,,,,,,,,,,,,,,,,,,,,,,,,,,,,,,,,,,,,,,,,,,,,,,,,,,,,,,,,,,,,,,,,,,,,,,,,,,,,,,,,,,,,,,,,,,,,,,,,,,,,,,,,,
,,,,,,60fc7f3f9cc85bfba63d07b5,62bbf9edd9725e00c7cc9778,2022-06-29_09h16.22.413,Colour_Asymmetry_Pilot,2022.1.3,Win32,40.01920922,62bbe60bf3d75ef465d3e404,0,110,110,141,1,threefour,,,,,,,,,,,,,,,,,,,,,,,,,,,,,,,,,,,,,,,,,,,,,,,,,,,,,,,,,,,,,,,,,,,,,,,,,,,,,,,,,,,,,,,,,,,,,,,,,,,,,,,,,,,,,,,,,,,,,,,,,,,,,,,,,,,,,,,,,,,,,,,,,,,,,,,,
,,,,,,60fc7f3f9cc85bfba63d07b5,62bbf9edd9725e00c7cc9778,2022-06-29_09h16.22.413,Colour_Asymmetry_Pilot,2022.1.3,Win32,40.01920922,62bbe60bf3d75ef465d3e404,0,111,111,79,1,fourthree,,,,,,,,,,,,,,,,,,,,,,,,,,,,,,,,,,,,,,,,,,,,,,,,,,,,,,,,,,,,,,,,,,,,,,,,,,,,,,,,,,,,,,,,,,,,,,,,,,,,,,,,,,,,,,,,,,,,,,,,,,,,,,,,,,,,,,,,,,,,,,,,,,,,,,,,
,,,,,,60fc7f3f9cc85bfba63d07b5,62bbf9edd9725e00c7cc9778,2022-06-29_09h16.22.413,Colour_Asymmetry_Pilot,2022.1.3,Win32,40.01920922,62bbe60bf3d75ef465d3e404,0,112,112,116,1,threeone,,,,,,,,,,,,,,,,,,,,,,,,,,,,,,,,,,,,,,,,,,,,,,,,,,,,,,,,,,,,,,,,,,,,,,,,,,,,,,,,,,,,,,,,,,,,,,,,,,,,,,,,,,,,,,,,,,,,,,,,,,,,,,,,,,,,,,,,,,,,,,,,,,,,,,,,
,,,,,,60fc7f3f9cc85bfba63d07b5,62bbf9edd9725e00c7cc9778,2022-06-29_09h16.22.413,Colour_Asymmetry_Pilot,2022.1.3,Win32,40.01920922,62bbe60bf3d75ef465d3e404,0,113,113,158,1,fourtwo,,,,,,,,,,,,,,,,,,,,,,,,,,,,,,,,,,,,,,,,,,,,,,,,,,,,,,,,,,,,,,,,,,,,,,,,,,,,,,,,,,,,,,,,,,,,,,,,,,,,,,,,,,,,,,,,,,,,,,,,,,,,,,,,,,,,,,,,,,,,,,,,,,,,,,,,
,,,,,,60fc7f3f9cc85bfba63d07b5,62bbf9edd9725e00c7cc9778,2022-06-29_09h16.22.413,Colour_Asymmetry_Pilot,2022.1.3,Win32,40.01920922,62bbe60bf3d75ef465d3e404,0,114,114,125,1,threefour,,,,,,,,,,,,,,,,,,,,,,,,,,,,,,,,,,,,,,,,,,,,,,,,,,,,,,,,,,,,,,,,,,,,,,,,,,,,,,,,,,,,,,,,,,,,,,,,,,,,,,,,,,,,,,,,,,,,,,,,,,,,,,,,,,,,,,,,,,,,,,,,,,,,,,,,
,,,,,,60fc7f3f9cc85bfba63d07b5,62bbf9edd9725e00c7cc9778,2022-06-29_09h16.22.413,Colour_Asymmetry_Pilot,2022.1.3,Win32,40.01920922,62bbe60bf3d75ef465d3e404,0,115,115,129,1,onethree,,,,,,,,,,,,,,,,,,,,,,,,,,,,,,,,,,,,,,,,,,,,,,,,,,,,,,,,,,,,,,,,,,,,,,,,,,,,,,,,,,,,,,,,,,,,,,,,,,,,,,,,,,,,,,,,,,,,,,,,,,,,,,,,,,,,,,,,,,,,,,,,,,,,,,,,
,,,,,,60fc7f3f9cc85bfba63d07b5,62bbf9edd9725e00c7cc9778,2022-06-29_09h16.22.413,Colour_Asymmetry_Pilot,2022.1.3,Win32,40.01920922,62bbe60bf3d75ef465d3e404,0,116,116,37,1,threefour,,,,,,,,,,,,,,,,,,,,,,,,,,,,,,,,,,,,,,,,,,,,,,,,,,,,,,,,,,,,,,,,,,,,,,,,,,,,,,,,,,,,,,,,,,,,,,,,,,,,,,,,,,,,,,,,,,,,,,,,,,,,,,,,,,,,,,,,,,,,,,,,,,,,,,,,
,,,,,,60fc7f3f9cc85bfba63d07b5,62bbf9edd9725e00c7cc9778,2022-06-29_09h16.22.413,Colour_Asymmetry_Pilot,2022.1.3,Win32,40.01920922,62bbe60bf3d75ef465d3e404,0,117,117,72,1,onetwo,,,,,,,,,,,,,,,,,,,,,,,,,,,,,,,,,,,,,,,,,,,,,,,,,,,,,,,,,,,,,,,,,,,,,,,,,,,,,,,,,,,,,,,,,,,,,,,,,,,,,,,,,,,,,,,,,,,,,,,,,,,,,,,,,,,,,,,,,,,,,,,,,,,,,,,,
,,,,,,60fc7f3f9cc85bfba63d07b5,62bbf9edd9725e00c7cc9778,2022-06-29_09h16.22.413,Colour_Asymmetry_Pilot,2022.1.3,Win32,40.01920922,62bbe60bf3d75ef465d3e404,0,118,118,109,1,threefour,,,,,,,,,,,,,,,,,,,,,,,,,,,,,,,,,,,,,,,,,,,,,,,,,,,,,,,,,,,,,,,,,,,,,,,,,,,,,,,,,,,,,,,,,,,,,,,,,,,,,,,,,,,,,,,,,,,,,,,,,,,,,,,,,,,,,,,,,,,,,,,,,,,,,,,,
,,,,,,60fc7f3f9cc85bfba63d07b5,62bbf9edd9725e00c7cc9778,2022-06-29_09h16.22.413,Colour_Asymmetry_Pilot,2022.1.3,Win32,40.01920922,62bbe60bf3d75ef465d3e404,0,119,119,48,1,onetwo,,,,,,,,,,,,,,,,,,,,,,,,,,,,,,,,,,,,,,,,,,,,,,,,,,,,,,,,,,,,,,,,,,,,,,,,,,,,,,,,,,,,,,,,,,,,,,,,,,,,,,,,,,,,,,,,,,,,,,,,,,,,,,,,,,,,,,,,,,,,,,,,,,,,,,,,
,,,,,,60fc7f3f9cc85bfba63d07b5,62bbf9edd9725e00c7cc9778,2022-06-29_09h16.22.413,Colour_Asymmetry_Pilot,2022.1.3,Win32,40.01920922,62bbe60bf3d75ef465d3e404,0,120,120,88,1,onetwo,,,,,,,,,,,,,,,,,,,,,,,,,,,,,,,,,,,,,,,,,,,,,,,,,,,,,,,,,,,,,,,,,,,,,,,,,,,,,,,,,,,,,,,,,,,,,,,,,,,,,,,,,,,,,,,,,,,,,,,,,,,,,,,,,,,,,,,,,,,,,,,,,,,,,,,,
,,,,,,60fc7f3f9cc85bfba63d07b5,62bbf9edd9725e00c7cc9778,2022-06-29_09h16.22.413,Colour_Asymmetry_Pilot,2022.1.3,Win32,40.01920922,62bbe60bf3d75ef465d3e404,0,121,121,143,1,fourthree,,,,,,,,,,,,,,,,,,,,,,,,,,,,,,,,,,,,,,,,,,,,,,,,,,,,,,,,,,,,,,,,,,,,,,,,,,,,,,,,,,,,,,,,,,,,,,,,,,,,,,,,,,,,,,,,,,,,,,,,,,,,,,,,,,,,,,,,,,,,,,,,,,,,,,,,
,,,,,,60fc7f3f9cc85bfba63d07b5,62bbf9edd9725e00c7cc9778,2022-06-29_09h16.22.413,Colour_Asymmetry_Pilot,2022.1.3,Win32,40.01920922,62bbe60bf3d75ef465d3e404,0,122,122,58,1,twoone,,,,,,,,,,,,,,,,,,,,,,,,,,,,,,,,,,,,,,,,,,,,,,,,,,,,,,,,,,,,,,,,,,,,,,,,,,,,,,,,,,,,,,,,,,,,,,,,,,,,,,,,,,,,,,,,,,,,,,,,,,,,,,,,,,,,,,,,,,,,,,,,,,,,,,,,
,,,,,,60fc7f3f9cc85bfba63d07b5,62bbf9edd9725e00c7cc9778,2022-06-29_09h16.22.413,Colour_Asymmetry_Pilot,2022.1.3,Win32,40.01920922,62bbe60bf3d75ef465d3e404,0,123,123,8,1,onetwo,,,,,,,,,,,,,,,,,,,,,,,,,,,,,,,,,,,,,,,,,,,,,,,,,,,,,,,,,,,,,,,,,,,,,,,,,,,,,,,,,,,,,,,,,,,,,,,,,,,,,,,,,,,,,,,,,,,,,,,,,,,,,,,,,,,,,,,,,,,,,,,,,,,,,,,,
,,,,,,60fc7f3f9cc85bfba63d07b5,62bbf9edd9725e00c7cc9778,2022-06-29_09h16.22.413,Colour_Asymmetry_Pilot,2022.1.3,Win32,40.01920922,62bbe60bf3d75ef465d3e404,0,124,124,45,1,threefour,,,,,,,,,,,,,,,,,,,,,,,,,,,,,,,,,,,,,,,,,,,,,,,,,,,,,,,,,,,,,,,,,,,,,,,,,,,,,,,,,,,,,,,,,,,,,,,,,,,,,,,,,,,,,,,,,,,,,,,,,,,,,,,,,,,,,,,,,,,,,,,,,,,,,,,,
,,,,,,60fc7f3f9cc85bfba63d07b5,62bbf9edd9725e00c7cc9778,2022-06-29_09h16.22.413,Colour_Asymmetry_Pilot,2022.1.3,Win32,40.01920922,62bbe60bf3d75ef465d3e404,0,125,125,28,1,threeone,,,,,,,,,,,,,,,,,,,,,,,,,,,,,,,,,,,,,,,,,,,,,,,,,,,,,,,,,,,,,,,,,,,,,,,,,,,,,,,,,,,,,,,,,,,,,,,,,,,,,,,,,,,,,,,,,,,,,,,,,,,,,,,,,,,,,,,,,,,,,,,,,,,,,,,,
,,,,,,60fc7f3f9cc85bfba63d07b5,62bbf9edd9725e00c7cc9778,2022-06-29_09h16.22.413,Colour_Asymmetry_Pilot,2022.1.3,Win32,40.01920922,62bbe60bf3d75ef465d3e404,0,126,126,54,1,fourtwo,,,,,,,,,,,,,,,,,,,,,,,,,,,,,,,,,,,,,,,,,,,,,,,,,,,,,,,,,,,,,,,,,,,,,,,,,,,,,,,,,,,,,,,,,,,,,,,,,,,,,,,,,,,,,,,,,,,,,,,,,,,,,,,,,,,,,,,,,,,,,,,,,,,,,,,,
,,,,,,60fc7f3f9cc85bfba63d07b5,62bbf9edd9725e00c7cc9778,2022-06-29_09h16.22.413,Colour_Asymmetry_Pilot,2022.1.3,Win32,40.01920922,62bbe60bf3d75ef465d3e404,0,127,127,120,1,onetwo,,,,,,,,,,,,,,,,,,,,,,,,,,,,,,,,,,,,,,,,,,,,,,,,,,,,,,,,,,,,,,,,,,,,,,,,,,,,,,,,,,,,,,,,,,,,,,,,,,,,,,,,,,,,,,,,,,,,,,,,,,,,,,,,,,,,,,,,,,,,,,,,,,,,,,,,
,,,,,,60fc7f3f9cc85bfba63d07b5,62bbf9edd9725e00c7cc9778,2022-06-29_09h16.22.413,Colour_Asymmetry_Pilot,2022.1.3,Win32,40.01920922,62bbe60bf3d75ef465d3e404,0,128,128,10,1,twoone,,,,,,,,,,,,,,,,,,,,,,,,,,,,,,,,,,,,,,,,,,,,,,,,,,,,,,,,,,,,,,,,,,,,,,,,,,,,,,,,,,,,,,,,,,,,,,,,,,,,,,,,,,,,,,,,,,,,,,,,,,,,,,,,,,,,,,,,,,,,,,,,,,,,,,,,
,,,,,,60fc7f3f9cc85bfba63d07b5,62bbf9edd9725e00c7cc9778,2022-06-29_09h16.22.413,Colour_Asymmetry_Pilot,2022.1.3,Win32,40.01920922,62bbe60bf3d75ef465d3e404,0,129,129,46,1,fourtwo,,,,,,,,,,,,,,,,,,,,,,,,,,,,,,,,,,,,,,,,,,,,,,,,,,,,,,,,,,,,,,,,,,,,,,,,,,,,,,,,,,,,,,,,,,,,,,,,,,,,,,,,,,,,,,,,,,,,,,,,,,,,,,,,,,,,,,,,,,,,,,,,,,,,,,,,
,,,,,,60fc7f3f9cc85bfba63d07b5,62bbf9edd9725e00c7cc9778,2022-06-29_09h16.22.413,Colour_Asymmetry_Pilot,2022.1.3,Win32,40.01920922,62bbe60bf3d75ef465d3e404,0,130,130,103,1,fourthree,,,,,,,,,,,,,,,,,,,,,,,,,,,,,,,,,,,,,,,,,,,,,,,,,,,,,,,,,,,,,,,,,,,,,,,,,,,,,,,,,,,,,,,,,,,,,,,,,,,,,,,,,,,,,,,,,,,,,,,,,,,,,,,,,,,,,,,,,,,,,,,,,,,,,,,,
,,,,,,60fc7f3f9cc85bfba63d07b5,62bbf9edd9725e00c7cc9778,2022-06-29_09h16.22.413,Colour_Asymmetry_Pilot,2022.1.3,Win32,40.01920922,62bbe60bf3d75ef465d3e404,0,131,131,60,1,threeone,,,,,,,,,,,,,,,,,,,,,,,,,,,,,,,,,,,,,,,,,,,,,,,,,,,,,,,,,,,,,,,,,,,,,,,,,,,,,,,,,,,,,,,,,,,,,,,,,,,,,,,,,,,,,,,,,,,,,,,,,,,,,,,,,,,,,,,,,,,,,,,,,,,,,,,,
,,,,,,60fc7f3f9cc85bfba63d07b5,62bbf9edd9725e00c7cc9778,2022-06-29_09h16.22.413,Colour_Asymmetry_Pilot,2022.1.3,Win32,40.01920922,62bbe60bf3d75ef465d3e404,0,132,132,52,1,threeone,,,,,,,,,,,,,,,,,,,,,,,,,,,,,,,,,,,,,,,,,,,,,,,,,,,,,,,,,,,,,,,,,,,,,,,,,,,,,,,,,,,,,,,,,,,,,,,,,,,,,,,,,,,,,,,,,,,,,,,,,,,,,,,,,,,,,,,,,,,,,,,,,,,,,,,,
,,,,,,60fc7f3f9cc85bfba63d07b5,62bbf9edd9725e00c7cc9778,2022-06-29_09h16.22.413,Colour_Asymmetry_Pilot,2022.1.3,Win32,40.01920922,62bbe60bf3d75ef465d3e404,0,133,133,140,1,threeone,,,,,,,,,,,,,,,,,,,,,,,,,,,,,,,,,,,,,,,,,,,,,,,,,,,,,,,,,,,,,,,,,,,,,,,,,,,,,,,,,,,,,,,,,,,,,,,,,,,,,,,,,,,,,,,,,,,,,,,,,,,,,,,,,,,,,,,,,,,,,,,,,,,,,,,,
,,,,,,60fc7f3f9cc85bfba63d07b5,62bbf9edd9725e00c7cc9778,2022-06-29_09h16.22.413,Colour_Asymmetry_Pilot,2022.1.3,Win32,40.01920922,62bbe60bf3d75ef465d3e404,0,134,134,67,1,twofour,,,,,,,,,,,,,,,,,,,,,,,,,,,,,,,,,,,,,,,,,,,,,,,,,,,,,,,,,,,,,,,,,,,,,,,,,,,,,,,,,,,,,,,,,,,,,,,,,,,,,,,,,,,,,,,,,,,,,,,,,,,,,,,,,,,,,,,,,,,,,,,,,,,,,,,,
,,,,,,60fc7f3f9cc85bfba63d07b5,62bbf9edd9725e00c7cc9778,2022-06-29_09h16.22.413,Colour_Asymmetry_Pilot,2022.1.3,Win32,40.01920922,62bbe60bf3d75ef465d3e404,0,135,135,92,1,threeone,,,,,,,,,,,,,,,,,,,,,,,,,,,,,,,,,,,,,,,,,,,,,,,,,,,,,,,,,,,,,,,,,,,,,,,,,,,,,,,,,,,,,,,,,,,,,,,,,,,,,,,,,,,,,,,,,,,,,,,,,,,,,,,,,,,,,,,,,,,,,,,,,,,,,,,,
,,,,,,60fc7f3f9cc85bfba63d07b5,62bbf9edd9725e00c7cc9778,2022-06-29_09h16.22.413,Colour_Asymmetry_Pilot,2022.1.3,Win32,40.01920922,62bbe60bf3d75ef465d3e404,0,136,136,85,1,threefour,,,,,,,,,,,,,,,,,,,,,,,,,,,,,,,,,,,,,,,,,,,,,,,,,,,,,,,,,,,,,,,,,,,,,,,,,,,,,,,,,,,,,,,,,,,,,,,,,,,,,,,,,,,,,,,,,,,,,,,,,,,,,,,,,,,,,,,,,,,,,,,,,,,,,,,,
,,,,,,60fc7f3f9cc85bfba63d07b5,62bbf9edd9725e00c7cc9778,2022-06-29_09h16.22.413,Colour_Asymmetry_Pilot,2022.1.3,Win32,40.01920922,62bbe60bf3d75ef465d3e404,0,137,137,146,1,twoone,,,,,,,,,,,,,,,,,,,,,,,,,,,,,,,,,,,,,,,,,,,,,,,,,,,,,,,,,,,,,,,,,,,,,,,,,,,,,,,,,,,,,,,,,,,,,,,,,,,,,,,,,,,,,,,,,,,,,,,,,,,,,,,,,,,,,,,,,,,,,,,,,,,,,,,,
,,,,,,60fc7f3f9cc85bfba63d07b5,62bbf9edd9725e00c7cc9778,2022-06-29_09h16.22.413,Colour_Asymmetry_Pilot,2022.1.3,Win32,40.01920922,62bbe60bf3d75ef465d3e404,0,138,138,144,1,onetwo,,,,,,,,,,,,,,,,,,,,,,,,,,,,,,,,,,,,,,,,,,,,,,,,,,,,,,,,,,,,,,,,,,,,,,,,,,,,,,,,,,,,,,,,,,,,,,,,,,,,,,,,,,,,,,,,,,,,,,,,,,,,,,,,,,,,,,,,,,,,,,,,,,,,,,,,
,,,,,,60fc7f3f9cc85bfba63d07b5,62bbf9edd9725e00c7cc9778,2022-06-29_09h16.22.413,Colour_Asymmetry_Pilot,2022.1.3,Win32,40.01920922,62bbe60bf3d75ef465d3e404,0,139,139,148,1,threeone,,,,,,,,,,,,,,,,,,,,,,,,,,,,,,,,,,,,,,,,,,,,,,,,,,,,,,,,,,,,,,,,,,,,,,,,,,,,,,,,,,,,,,,,,,,,,,,,,,,,,,,,,,,,,,,,,,,,,,,,,,,,,,,,,,,,,,,,,,,,,,,,,,,,,,,,
,,,,,,60fc7f3f9cc85bfba63d07b5,62bbf9edd9725e00c7cc9778,2022-06-29_09h16.22.413,Colour_Asymmetry_Pilot,2022.1.3,Win32,40.01920922,62bbe60bf3d75ef465d3e404,0,140,140,126,1,fourtwo,,,,,,,,,,,,,,,,,,,,,,,,,,,,,,,,,,,,,,,,,,,,,,,,,,,,,,,,,,,,,,,,,,,,,,,,,,,,,,,,,,,,,,,,,,,,,,,,,,,,,,,,,,,,,,,,,,,,,,,,,,,,,,,,,,,,,,,,,,,,,,,,,,,,,,,,
,,,,,,60fc7f3f9cc85bfba63d07b5,62bbf9edd9725e00c7cc9778,2022-06-29_09h16.22.413,Colour_Asymmetry_Pilot,2022.1.3,Win32,40.01920922,62bbe60bf3d75ef465d3e404,0,141,141,80,1,onetwo,,,,,,,,,,,,,,,,,,,,,,,,,,,,,,,,,,,,,,,,,,,,,,,,,,,,,,,,,,,,,,,,,,,,,,,,,,,,,,,,,,,,,,,,,,,,,,,,,,,,,,,,,,,,,,,,,,,,,,,,,,,,,,,,,,,,,,,,,,,,,,,,,,,,,,,,
,,,,,,60fc7f3f9cc85bfba63d07b5,62bbf9edd9725e00c7cc9778,2022-06-29_09h16.22.413,Colour_Asymmetry_Pilot,2022.1.3,Win32,40.01920922,62bbe60bf3d75ef465d3e404,0,142,142,123,1,twofour,,,,,,,,,,,,,,,,,,,,,,,,,,,,,,,,,,,,,,,,,,,,,,,,,,,,,,,,,,,,,,,,,,,,,,,,,,,,,,,,,,,,,,,,,,,,,,,,,,,,,,,,,,,,,,,,,,,,,,,,,,,,,,,,,,,,,,,,,,,,,,,,,,,,,,,,
,,,,,,60fc7f3f9cc85bfba63d07b5,62bbf9edd9725e00c7cc9778,2022-06-29_09h16.22.413,Colour_Asymmetry_Pilot,2022.1.3,Win32,40.01920922,62bbe60bf3d75ef465d3e404,0,143,143,30,1,fourtwo,,,,,,,,,,,,,,,,,,,,,,,,,,,,,,,,,,,,,,,,,,,,,,,,,,,,,,,,,,,,,,,,,,,,,,,,,,,,,,,,,,,,,,,,,,,,,,,,,,,,,,,,,,,,,,,,,,,,,,,,,,,,,,,,,,,,,,,,,,,,,,,,,,,,,,,,
,,,,,,60fc7f3f9cc85bfba63d07b5,62bbf9edd9725e00c7cc9778,2022-06-29_09h16.22.413,Colour_Asymmetry_Pilot,2022.1.3,Win32,40.01920922,62bbe60bf3d75ef465d3e404,0,144,144,71,1,fourthree,,,,,,,,,,,,,,,,,,,,,,,,,,,,,,,,,,,,,,,,,,,,,,,,,,,,,,,,,,,,,,,,,,,,,,,,,,,,,,,,,,,,,,,,,,,,,,,,,,,,,,,,,,,,,,,,,,,,,,,,,,,,,,,,,,,,,,,,,,,,,,,,,,,,,,,,
,,,,,,60fc7f3f9cc85bfba63d07b5,62bbf9edd9725e00c7cc9778,2022-06-29_09h16.22.413,Colour_Asymmetry_Pilot,2022.1.3,Win32,40.01920922,62bbe60bf3d75ef465d3e404,0,145,145,69,1,threefour,,,,,,,,,,,,,,,,,,,,,,,,,,,,,,,,,,,,,,,,,,,,,,,,,,,,,,,,,,,,,,,,,,,,,,,,,,,,,,,,,,,,,,,,,,,,,,,,,,,,,,,,,,,,,,,,,,,,,,,,,,,,,,,,,,,,,,,,,,,,,,,,,,,,,,,,
,,,,,,60fc7f3f9cc85bfba63d07b5,62bbf9edd9725e00c7cc9778,2022-06-29_09h16.22.413,Colour_Asymmetry_Pilot,2022.1.3,Win32,40.01920922,62bbe60bf3d75ef465d3e404,0,146,146,17,1,onethree,,,,,,,,,,,,,,,,,,,,,,,,,,,,,,,,,,,,,,,,,,,,,,,,,,,,,,,,,,,,,,,,,,,,,,,,,,,,,,,,,,,,,,,,,,,,,,,,,,,,,,,,,,,,,,,,,,,,,,,,,,,,,,,,,,,,,,,,,,,,,,,,,,,,,,,,
,,,,,,60fc7f3f9cc85bfba63d07b5,62bbf9edd9725e00c7cc9778,2022-06-29_09h16.22.413,Colour_Asymmetry_Pilot,2022.1.3,Win32,40.01920922,62bbe60bf3d75ef465d3e404,0,147,147,78,1,fourtwo,,,,,,,,,,,,,,,,,,,,,,,,,,,,,,,,,,,,,,,,,,,,,,,,,,,,,,,,,,,,,,,,,,,,,,,,,,,,,,,,,,,,,,,,,,,,,,,,,,,,,,,,,,,,,,,,,,,,,,,,,,,,,,,,,,,,,,,,,,,,,,,,,,,,,,,,
,,,,,,60fc7f3f9cc85bfba63d07b5,62bbf9edd9725e00c7cc9778,2022-06-29_09h16.22.413,Colour_Asymmetry_Pilot,2022.1.3,Win32,40.01920922,62bbe60bf3d75ef465d3e404,0,148,148,96,1,onetwo,,,,,,,,,,,,,,,,,,,,,,,,,,,,,,,,,,,,,,,,,,,,,,,,,,,,,,,,,,,,,,,,,,,,,,,,,,,,,,,,,,,,,,,,,,,,,,,,,,,,,,,,,,,,,,,,,,,,,,,,,,,,,,,,,,,,,,,,,,,,,,,,,,,,,,,,
,,,,,,60fc7f3f9cc85bfba63d07b5,62bbf9edd9725e00c7cc9778,2022-06-29_09h16.22.413,Colour_Asymmetry_Pilot,2022.1.3,Win32,40.01920922,62bbe60bf3d75ef465d3e404,0,149,149,93,1,threefour,,,,,,,,,,,,,,,,,,,,,,,,,,,,,,,,,,,,,,,,,,,,,,,,,,,,,,,,,,,,,,,,,,,,,,,,,,,,,,,,,,,,,,,,,,,,,,,,,,,,,,,,,,,,,,,,,,,,,,,,,,,,,,,,,,,,,,,,,,,,,,,,,,,,,,,,
,,,,,,60fc7f3f9cc85bfba63d07b5,62bbf9edd9725e00c7cc9778,2022-06-29_09h16.22.413,Colour_Asymmetry_Pilot,2022.1.3,Win32,40.01920922,62bbe60bf3d75ef465d3e404,0,150,150,24,1,onetwo,,,,,,,,,,,,,,,,,,,,,,,,,,,,,,,,,,,,,,,,,,,,,,,,,,,,,,,,,,,,,,,,,,,,,,,,,,,,,,,,,,,,,,,,,,,,,,,,,,,,,,,,,,,,,,,,,,,,,,,,,,,,,,,,,,,,,,,,,,,,,,,,,,,,,,,,
,,,,,,60fc7f3f9cc85bfba63d07b5,62bbf9edd9725e00c7cc9778,2022-06-29_09h16.22.413,Colour_Asymmetry_Pilot,2022.1.3,Win32,40.01920922,62bbe60bf3d75ef465d3e404,0,151,151,86,1,fourtwo,,,,,,,,,,,,,,,,,,,,,,,,,,,,,,,,,,,,,,,,,,,,,,,,,,,,,,,,,,,,,,,,,,,,,,,,,,,,,,,,,,,,,,,,,,,,,,,,,,,,,,,,,,,,,,,,,,,,,,,,,,,,,,,,,,,,,,,,,,,,,,,,,,,,,,,,
,,,,,,60fc7f3f9cc85bfba63d07b5,62bbf9edd9725e00c7cc9778,2022-06-29_09h16.22.413,Colour_Asymmetry_Pilot,2022.1.3,Win32,40.01920922,62bbe60bf3d75ef465d3e404,0,152,152,101,1,threefour,,,,,,,,,,,,,,,,,,,,,,,,,,,,,,,,,,,,,,,,,,,,,,,,,,,,,,,,,,,,,,,,,,,,,,,,,,,,,,,,,,,,,,,,,,,,,,,,,,,,,,,,,,,,,,,,,,,,,,,,,,,,,,,,,,,,,,,,,,,,,,,,,,,,,,,,
,,,,,,60fc7f3f9cc85bfba63d07b5,62bbf9edd9725e00c7cc9778,2022-06-29_09h16.22.413,Colour_Asymmetry_Pilot,2022.1.3,Win32,40.01920922,62bbe60bf3d75ef465d3e404,0,153,153,7,1,fourthree,,,,,,,,,,,,,,,,,,,,,,,,,,,,,,,,,,,,,,,,,,,,,,,,,,,,,,,,,,,,,,,,,,,,,,,,,,,,,,,,,,,,,,,,,,,,,,,,,,,,,,,,,,,,,,,,,,,,,,,,,,,,,,,,,,,,,,,,,,,,,,,,,,,,,,,,
,,,,,,60fc7f3f9cc85bfba63d07b5,62bbf9edd9725e00c7cc9778,2022-06-29_09h16.22.413,Colour_Asymmetry_Pilot,2022.1.3,Win32,40.01920922,62bbe60bf3d75ef465d3e404,0,154,154,108,1,threeone,,,,,,,,,,,,,,,,,,,,,,,,,,,,,,,,,,,,,,,,,,,,,,,,,,,,,,,,,,,,,,,,,,,,,,,,,,,,,,,,,,,,,,,,,,,,,,,,,,,,,,,,,,,,,,,,,,,,,,,,,,,,,,,,,,,,,,,,,,,,,,,,,,,,,,,,
,,,,,,60fc7f3f9cc85bfba63d07b5,62bbf9edd9725e00c7cc9778,2022-06-29_09h16.22.413,Colour_Asymmetry_Pilot,2022.1.3,Win32,40.01920922,62bbe60bf3d75ef465d3e404,0,155,155,113,1,onethree,,,,,,,,,,,,,,,,,,,,,,,,,,,,,,,,,,,,,,,,,,,,,,,,,,,,,,,,,,,,,,,,,,,,,,,,,,,,,,,,,,,,,,,,,,,,,,,,,,,,,,,,,,,,,,,,,,,,,,,,,,,,,,,,,,,,,,,,,,,,,,,,,,,,,,,,
,,,,,,60fc7f3f9cc85bfba63d07b5,62bbf9edd9725e00c7cc9778,2022-06-29_09h16.22.413,Colour_Asymmetry_Pilot,2022.1.3,Win32,40.01920922,62bbe60bf3d75ef465d3e404,0,156,156,49,1,onethree,,,,,,,,,,,,,,,,,,,,,,,,,,,,,,,,,,,,,,,,,,,,,,,,,,,,,,,,,,,,,,,,,,,,,,,,,,,,,,,,,,,,,,,,,,,,,,,,,,,,,,,,,,,,,,,,,,,,,,,,,,,,,,,,,,,,,,,,,,,,,,,,,,,,,,,,
,,,,,,60fc7f3f9cc85bfba63d07b5,62bbf9edd9725e00c7cc9778,2022-06-29_09h16.22.413,Colour_Asymmetry_Pilot,2022.1.3,Win32,40.01920922,62bbe60bf3d75ef465d3e404,0,157,157,75,1,twofour,,,,,,,,,,,,,,,,,,,,,,,,,,,,,,,,,,,,,,,,,,,,,,,,,,,,,,,,,,,,,,,,,,,,,,,,,,,,,,,,,,,,,,,,,,,,,,,,,,,,,,,,,,,,,,,,,,,,,,,,,,,,,,,,,,,,,,,,,,,,,,,,,,,,,,,,
,,,,,,60fc7f3f9cc85bfba63d07b5,62bbf9edd9725e00c7cc9778,2022-06-29_09h16.22.413,Colour_Asymmetry_Pilot,2022.1.3,Win32,40.01920922,62bbe60bf3d75ef465d3e404,0,158,158,150,1,fourtwo,,,,,,,,,,,,,,,,,,,,,,,,,,,,,,,,,,,,,,,,,,,,,,,,,,,,,,,,,,,,,,,,,,,,,,,,,,,,,,,,,,,,,,,,,,,,,,,,,,,,,,,,,,,,,,,,,,,,,,,,,,,,,,,,,,,,,,,,,,,,,,,,,,,,,,,,
,,,,,,60fc7f3f9cc85bfba63d07b5,62bbf9edd9725e00c7cc9778,2022-06-29_09h16.22.413,Colour_Asymmetry_Pilot,2022.1.3,Win32,40.01920922,62bbe60bf3d75ef465d3e404,0,159,159,4,1,threeone,,,,,,,,,,,,,,,,,,,,,,,,,,,,,,,,,,,,,,,,,,,,,,,,,,,,,,,,,,,,,,,,,,,,,,,,,,,,,,,,,,,,,,,,,,,,,,,,,,,,,,,,,,,,,,,,,,,,,,,,,,,,,,,,,,,,,,,,,,,,,,,,,,,,,,,,
,,,,,,60fc7f3f9cc85bfba63d07b5,62bbf9edd9725e00c7cc9778,2022-06-29_09h16.22.413,Colour_Asymmetry_Pilot,2022.1.3,Win32,40.01920922,62bbe60bf3d75ef465d3e404,0,160,160,133,1,threefour,,,,,,,,,,,,,,,,,,,,,,,,,,,,,,,,,,,,,,,,,,,,,,,,,,,,,,,,,,,,,,,,,,,,,,,,,,,,,,,,,,,,,,,,,,,,,,,,,,,,,,,,,,,,,,,,,,,,,,,,,,,,,,,,,,,,,,,,,,,,,,,,,,,,,,,,
,,,,,,60fc7f3f9cc85bfba63d07b5,62bbf9edd9725e00c7cc9778,2022-06-29_09h16.22.413,Colour_Asymmetry_Pilot,2022.1.3,Win32,40.01920922,62bbe60bf3d75ef465d3e404,0,161,161,36,1,threeone,,,,,,,,,,,,,,,,,,,,,,,,,,,,,,,,,,,,,,,,,,,,,,,,,,,,,,,,,,,,,,,,,,,,,,,,,,,,,,,,,,,,,,,,,,,,,,,,,,,,,,,,,,,,,,,,,,,,,,,,,,,,,,,,,,,,,,,,,,,,,,,,,,,,,,,,
,,,,,,60fc7f3f9cc85bfba63d07b5,62bbf9edd9725e00c7cc9778,2022-06-29_09h16.22.413,Colour_Asymmetry_Pilot,2022.1.3,Win32,40.01920922,62bbe60bf3d75ef465d3e404,,,,,,,space,1.8962,space,37.0098,space,138.8621,space,24.2842,space,4.1739,space,114.4566,"[0.2784,-0.31000000000000005,-0.5452]",twoone,"[-0.8118,-0.8198,-0.5452]",-4,8.8399,-46,89,1,0,0,response7disk_5,2,1,1,0,0,rectangle_8,2,1,1,0,0,4,2,1,1,0,0,0,0,0,0,1,,,,,,,,,,,,,,,,,,,,,,,,,,,,,,,,,,,,,,,,,,,,,,,,,,,,,,,,,,,,,,,,,,,,,,,,,,,,,,,,,,,,,,,,,,,,,,,,,,,,,,,,,,,
,,,,,,60fc7f3f9cc85bfba63d07b5,62bbf9edd9725e00c7cc9778,2022-06-29_09h16.22.413,Colour_Asymmetry_Pilot,2022.1.3,Win32,40.01920922,62bbe60bf3d75ef465d3e404,,,,,,,,,,,,,,,,,,,"[0.9763999999999999,0.8588,-0.05900000000000005]",threefour,"[0.05879999999999996,0.2784,0.5841999999999998]",-3,6.0541,-72,46,1,0,0,response7disk_5,0,-1,1,0,0,rectangle_8,37,76,1,0,0,4,16,-9,1,0,0,1,0,1,0,1,response1disk_7,7,rectangle_4,,,,,,,,,,,,,,,,,,,,,,,,,,,,,,,,,,,,,,,,,,,,,,,,,,,,,,,,,,,,,,,,,,,,,,,,,,,,,,,,,,,,,,,,,,,,,,,,,,,,,,,,
,,,,,,60fc7f3f9cc85bfba63d07b5,62bbf9edd9725e00c7cc9778,2022-06-29_09h16.22.413,Colour_Asymmetry_Pilot,2022.1.3,Win32,40.01920922,62bbe60bf3d75ef465d3e404,,,,,,,,,,,,,,,,,,,"[-0.45899999999999996,-0.3256,-0.9374]",twoone,"[-0.30200000000000005,0.14500000000000002,0.2784]",1,5.501,52,-95,1,0,0,response3disk_5,-2,1,1,0,0,rectangle_8,-2,1,1,0,0,4,-2,1,1,0,0,2,0,2,0,1,,,,,,,,,,,,,,,,,,,,,,,,,,,,,,,,,,,,,,,,,,,,,,,,,,,,,,,,,,,,,,,,,,,,,,,,,,,,,,,,,,,,,,,,,,,,,,,,,,,,,,,,,,,
,,,,,,60fc7f3f9cc85bfba63d07b5,62bbf9edd9725e00c7cc9778,2022-06-29_09h16.22.413,Colour_Asymmetry_Pilot,2022.1.3,Win32,40.01920922,62bbe60bf3d75ef465d3e404,,,,,,,,,,,,,,,,,,,"[0.40379999999999994,0.09000000000000008,0.44300000000000006]",threefour,"[-0.34920000000000007,-0.702,-0.5216]",1,2.5752,32,-83,1,0,0,response3disk_5,-1,-1,1,0,0,rectangle_8,-1,-1,1,0,0,4,-1,-1,1,0,0,3,0,3,0,1,,,,,,,,,,,,,,,,,,,,,,,,,,,,,,,,,,,,,,,,,,,,,,,,,,,,,,,,,,,,,,,,,,,,,,,,,,,,,,,,,,,,,,,,,,,,,,,,,,,,,,,,,,,
,,,,,,60fc7f3f9cc85bfba63d07b5,62bbf9edd9725e00c7cc9778,2022-06-29_09h16.22.413,Colour_Asymmetry_Pilot,2022.1.3,Win32,40.01920922,62bbe60bf3d75ef465d3e404,,,,,,,,,,,,,,,,,,,"[-0.48240000000000005,0.3175999999999999,0.2156]",fourtwo,"[0.9686000000000001,0.3802000000000001,0.19999999999999996]",-2,2.9242,-60,-25,1,0,0,response5disk_5,0,-5,1,0,0,rectangle_8,0,-5,1,0,0,4,0,-5,1,0,0,4,0,4,0,1,,,,,,,,,,,,,,,,,,,,,,,,,,,,,,,,,,,,,,,,,,,,,,,,,,,,,,,,,,,,,,,,,,,,,,,,,,,,,,,,,,,,,,,,,,,,,,,,,,,,,,,,,,,
,,,,,,60fc7f3f9cc85bfba63d07b5,62bbf9edd9725e00c7cc9778,2022-06-29_09h16.22.413,Colour_Asymmetry_Pilot,2022.1.3,Win32,40.01920922,62bbe60bf3d75ef465d3e404,,,,,,,,,,,,,,,,,,,"[-0.9296,-0.12959999999999994,-0.043199999999999905]",fourtwo,"[-0.24719999999999998,-0.0354000000000001,0.3175999999999999]",2,2.6006,72,-31,1,0,0,response3disk_5,-3,1,1,0,0,rectangle_8,-3,1,1,0,0,4,-3,1,1,0,0,5,0,5,0,1,,,,,,,,,,,,,,,,,,,,,,,,,,,,,,,,,,,,,,,,,,,,,,,,,,,,,,,,,,,,,,,,,,,,,,,,,,,,,,,,,,,,,,,,,,,,,,,,,,,,,,,,,,,
,,,,,,60fc7f3f9cc85bfba63d07b5,62bbf9edd9725e00c7cc9778,2022-06-29_09h16.22.413,Colour_Asymmetry_Pilot,2022.1.3,Win32,40.01920922,62bbe60bf3d75ef465d3e404,,,,,,,,,,,,,,,,,,,"[0.34099999999999997,0.5841999999999998,-0.9844]",fourthree,"[-0.24719999999999998,0.5213999999999999,-0.12959999999999994]",2,2.2537,82,-37,1,0,0,response3disk_5,-1,0,1,0,0,rectangle_8,-1,0,1,0,0,4,-1,0,1,0,0,6,0,6,0,1,,,,,,,,,,,,,,,,,,,,,,,,,,,,,,,,,,,,,,,,,,,,,,,,,,,,,,,,,,,,,,,,,,,,,,,,,,,,,,,,,,,,,,,,,,,,,,,,,,,,,,,,,,,
,,,,,,60fc7f3f9cc85bfba63d07b5,62bbf9edd9725e00c7cc9778,2022-06-29_09h16.22.413,Colour_Asymmetry_Pilot,2022.1.3,Win32,40.01920922,62bbe60bf3d75ef465d3e404,,,,,,,,,,,,,,,,,,,,fourthree,,-4,3.3283,,,,,,,,,,,,,,,,,,,,,,,,,,,,,,,,space,9.285,"[0.23920000000000008,0.2704,0.16060000000000008]","[1,0.12939999999999996,-1]",-56,74,1,0,0,response7disk,-4,-1,1,0,0,rectangle,-4,-1,1,0,0,,2,0.0025,0,-4,-1,1,0,0,0,0,0,100,1,19,second,,,,,,,,,,,,,,,,,,,,,,,,,,,,,,,,,,,,,,,,,,,,,,,,,,,,,,,,,,,,,,,,,,,
,,,,,,60fc7f3f9cc85bfba63d07b5,62bbf9edd9725e00c7cc9778,2022-06-29_09h16.22.413,Colour_Asymmetry_Pilot,2022.1.3,Win32,40.01920922,62bbe60bf3d75ef465d3e404,,,,,,,,,,,,,,,,,,,,threefour,,-4,1.4752,,,,,,,,,,,,,,,,,,,,,,,,,,,,,,,,,,"[0.7176,-0.906,-0.6864]","[-0.48240000000000005,0.3175999999999999,0.2156]",-30,85,1,0,0,response7disk,1,2,1,0,0,rectangle,1,2,1,0,0,,3,0.0028,0,1,2,1,0,0,0,1,1,34,1,34,first,,,,,,,,,,,,,,,,,,,,,,,,,,,,,,,,,,,,,,,,,,,,,,,,,,,,,,,,,,,,,,,,,,,
,,,,,,60fc7f3f9cc85bfba63d07b5,62bbf9edd9725e00c7cc9778,2022-06-29_09h16.22.413,Colour_Asymmetry_Pilot,2022.1.3,Win32,40.01920922,62bbe60bf3d75ef465d3e404,,,,,,,,,,,,,,,,,,,,onetwo,,3,1.5515,,,,,,,,,,,,,,,,,,,,,,,,,,,,,,,,,,"[-0.8982,-0.37259999999999993,0.2784]","[-0.9688,-0.7412000000000001,-0.4902000000000001]",76,32,1,0,0,response1disk,2,1,1,0,0,rectangle,2,1,1,0,0,,2,0.0033,0,2,1,1,0,0,0,2,2,40,1,40,first,,,,,,,,,,,,,,,,,,,,,,,,,,,,,,,,,,,,,,,,,,,,,,,,,,,,,,,,,,,,,,,,,,,
,,,,,,60fc7f3f9cc85bfba63d07b5,62bbf9edd9725e00c7cc9778,2022-06-29_09h16.22.413,Colour_Asymmetry_Pilot,2022.1.3,Win32,40.01920922,62bbe60bf3d75ef465d3e404,,,,,,,,,,,,,,,,,,,,twofour,,3,0.8751,,,,,,,,,,,,,,,,,,,,,,,,,,,,,,,,,,"[-0.011800000000000033,-0.906,-0.45100000000000007]","[-0.26280000000000003,-0.4746,-0.2158]",68,30,1,0,0,response1disk,6,-5,1,0,0,rectangle,6,-5,1,0,0,,1,0.0051,0,6,-5,1,0,0,0,3,3,24,1,24,first,,,,,,,,,,,,,,,,,,,,,,,,,,,,,,,,,,,,,,,,,,,,,,,,,,,,,,,,,,,,,,,,,,,
,,,,,,60fc7f3f9cc85bfba63d07b5,62bbf9edd9725e00c7cc9778,2022-06-29_09h16.22.413,Colour_Asymmetry_Pilot,2022.1.3,Win32,40.01920922,62bbe60bf3d75ef465d3e404,,,,,,,,,,,,,,,,,,,,fourtwo,,2,2.1522,,,,,,,,,,,,,,,,,,,,,,,,,,,,,,,,,,"[-0.7412000000000001,-0.08239999999999992,-0.6864]","[-0.9844,-0.9688,-0.9922]",77,-50,1,0,0,response3disk,-7,-3,1,0,0,rectangle,-7,-3,1,0,0,,2,0.0024,0,-7,-3,1,0,0,0,4,4,152,1,71,second,,,,,,,,,,,,,,,,,,,,,,,,,,,,,,,,,,,,,,,,,,,,,,,,,,,,,,,,,,,,,,,,,,,
,,,,,,60fc7f3f9cc85bfba63d07b5,62bbf9edd9725e00c7cc9778,2022-06-29_09h16.22.413,Colour_Asymmetry_Pilot,2022.1.3,Win32,40.01920922,62bbe60bf3d75ef465d3e404,,,,,,,,,,,,,,,,,,,,onethree,,-2,1.851,,,,,,,,,,,,,,,,,,,,,,,,,,,,,,,,,,"[0.9842,0.7409999999999999,-0.6628000000000001]","[0.6547999999999998,-0.043199999999999905,-0.011800000000000033]",-60,-33,1,0,0,response5disk,-2,-3,1,0,0,rectangle,-2,-3,1,0,0,,3,0.0022,0,-2,-3,1,0,0,0,5,5,122,1,41,second,,,,,,,,,,,,,,,,,,,,,,,,,,,,,,,,,,,,,,,,,,,,,,,,,,,,,,,,,,,,,,,,,,,
,,,,,,60fc7f3f9cc85bfba63d07b5,62bbf9edd9725e00c7cc9778,2022-06-29_09h16.22.413,Colour_Asymmetry_Pilot,2022.1.3,Win32,40.01920922,62bbe60bf3d75ef465d3e404,,,,,,,,,,,,,,,,,,,,twoone,,-3,0.7969,,,,,,,,,,,,,,,,,,,,,,,,,,,,,,,,,,"[1,0.12939999999999996,-1]","[-0.4982,-0.2942,-0.0354000000000001]",-69,29,1,0,0,response7disk,0,1,1,0,0,rectangle,0,1,1,0,0,,1,0.0038,0,0,1,1,0,0,0,6,6,134,1,53,second,,,,,,,,,,,,,,,,,,,,,,,,,,,,,,,,,,,,,,,,,,,,,,,,,,,,,,,,,,,,,,,,,,,
,,,,,,60fc7f3f9cc85bfba63d07b5,62bbf9edd9725e00c7cc9778,2022-06-29_09h16.22.413,Colour_Asymmetry_Pilot,2022.1.3,Win32,40.01920922,62bbe60bf3d75ef465d3e404,,,,,,,,,,,,,,,,,,,,threeone,,-3,1.0254,,,,,,,,,,,,,,,,,,,,,,,,,,,,,,,,,,"[0.4196,0.4665999999999999,0.3568]","[0.9763999999999999,0.8588,-0.05900000000000005]",-113,35,1,0,0,response7disk,-3,4,1,0,0,rectangle,72,-34,1,0,0,2,2,2.7944,1,-5,2,1,0,0,0,7,7,161,1,80,second,response3disk_3,rectangle,,,,,,,,,,,,,,,,,,,,,,,,,,,,,,,,,,,,,,,,,,,,,,,,,,,,,,,,,,,,,,,,,
,,,,,,60fc7f3f9cc85bfba63d07b5,62bbf9edd9725e00c7cc9778,2022-06-29_09h16.22.413,Colour_Asymmetry_Pilot,2022.1.3,Win32,40.01920922,62bbe60bf3d75ef465d3e404,,,,,,,,,,,,,,,,,,,,onethree,,-3,1.8018,,,,,,,,,,,,,,,,,,,,,,,,,,,,,,,,,,"[-0.09019999999999995,0.44300000000000006,0.5371999999999999]","[0.6547999999999998,-0.043199999999999905,-0.011800000000000033]",-66,34,1,0,0,response7disk,-2,3,1,0,0,rectangle,-2,3,1,0,0,2,1,0.0034,0,-2,3,1,0,0,0,8,8,26,1,26,first,,,,,,,,,,,,,,,,,,,,,,,,,,,,,,,,,,,,,,,,,,,,,,,,,,,,,,,,,,,,,,,,,,,
,,,,,,60fc7f3f9cc85bfba63d07b5,62bbf9edd9725e00c7cc9778,2022-06-29_09h16.22.413,Colour_Asymmetry_Pilot,2022.1.3,Win32,40.01920922,62bbe60bf3d75ef465d3e404,,,,,,,,,,,,,,,,,,,,threefour,,3,1.7505,,,,,,,,,,,,,,,,,,,,,,,,,,,,,,,,,,"[0.5449999999999999,-0.31000000000000005,-0.0354000000000001]","[0.9763999999999999,-0.1137999999999999,-0.6314]",72,36,1,0,0,response1disk,0,1,1,0,0,rectangle,0,1,1,0,0,2,3,0.0046,0,0,1,1,0,0,0,9,9,95,1,14,second,,,,,,,,,,,,,,,,,,,,,,,,,,,,,,,,,,,,,,,,,,,,,,,,,,,,,,,,,,,,,,,,,,,
,,,,,,60fc7f3f9cc85bfba63d07b5,62bbf9edd9725e00c7cc9778,2022-06-29_09h16.22.413,Colour_Asymmetry_Pilot,2022.1.3,Win32,40.01920922,62bbe60bf3d75ef465d3e404,,,,,,,,,,,,,,,,,,,,fourthree,,1,1.3986,,,,,,,,,,,,,,,,,,,,,,,,,,,,,,,,,,"[-0.07459999999999989,0.12139999999999995,-0.9922]","[-0.4668,-0.8746,-0.2942]",31,-69,1,0,0,response3disk,0,5,1,0,0,rectangle,0,5,1,0,0,2,3,0.0007,0,0,5,1,0,0,0,10,10,2,1,2,first,,,,,,,,,,,,,,,,,,,,,,,,,,,,,,,,,,,,,,,,,,,,,,,,,,,,,,,,,,,,,,,,,,,
,,,,,,60fc7f3f9cc85bfba63d07b5,62bbf9edd9725e00c7cc9778,2022-06-29_09h16.22.413,Colour_Asymmetry_Pilot,2022.1.3,Win32,40.01920922,62bbe60bf3d75ef465d3e404,,,,,,,,,,,,,,,,,,,,fourtwo,,-2,1.751,,,,,,,,,,,,,,,,,,,,,,,,,,,,,,,,,,"[-0.4746,-0.0354000000000001,0.5449999999999999]","[-0.8198,-0.5138,-0.7492000000000001]",-79,-42,1,0,0,response5disk,0,0,1,0,0,rectangle,0,0,1,0,0,2,3,0.0008,0,0,0,1,0,0,0,11,11,13,1,13,first,,,,,,,,,,,,,,,,,,,,,,,,,,,,,,,,,,,,,,,,,,,,,,,,,,,,,,,,,,,,,,,,,,,
,,,,,,60fc7f3f9cc85bfba63d07b5,62bbf9edd9725e00c7cc9778,2022-06-29_09h16.22.413,Colour_Asymmetry_Pilot,2022.1.3,Win32,40.01920922,62bbe60bf3d75ef465d3e404,,,,,,,,,,,,,,,,,,,,fourtwo,,1,1.5518,,,,,,,,,,,,,,,,,,,,,,,,,,,,,,,,,,"[-0.45899999999999996,-0.3256,-0.9374]","[0.34099999999999997,0.5841999999999998,-0.9844]",43,-52,1,0,0,response3disk,-4,4,1,0,0,rectangle,-4,4,1,0,0,2,1,0.0016,0,-4,4,1,0,0,0,12,12,101,1,20,second,,,,,,,,,,,,,,,,,,,,,,,,,,,,,,,,,,,,,,,,,,,,,,,,,,,,,,,,,,,,,,,,,,,
,,,,,,60fc7f3f9cc85bfba63d07b5,62bbf9edd9725e00c7cc9778,2022-06-29_09h16.22.413,Colour_Asymmetry_Pilot,2022.1.3,Win32,40.01920922,62bbe60bf3d75ef465d3e404,,,,,,,,,,,,,,,,,,,,onethree,,2,2.151,,,,,,,,,,,,,,,,,,,,,,,,,,,,,,,,,,"[0.7018,0.7176,0.6155999999999999]","[-0.0040000000000000036,0.02739999999999987,-0.08239999999999992]",74,-42,1,0,0,response3disk,0,1,1,0,0,rectangle,0,1,1,0,0,2,1,0.0009,0,0,1,1,0,0,0,13,13,72,1,72,first,,,,,,,,,,,,,,,,,,,,,,,,,,,,,,,,,,,,,,,,,,,,,,,,,,,,,,,,,,,,,,,,,,,
,,,,,,60fc7f3f9cc85bfba63d07b5,62bbf9edd9725e00c7cc9778,2022-06-29_09h16.22.413,Colour_Asymmetry_Pilot,2022.1.3,Win32,40.01920922,62bbe60bf3d75ef465d3e404,,,,,,,,,,,,,,,,,,,,twofour,,1,2.8294,,,,,,,,,,,,,,,,,,,,,,,,,,,,,,,,,,"[0.3802000000000001,0.19199999999999995,-0.6394]","[0.9763999999999999,0.8588,-0.05900000000000005]",26,-67,1,0,0,response3disk,-5,6,1,0,0,rectangle,-5,6,1,0,0,2,3,0.001,0,-5,6,1,0,0,0,14,14,23,1,23,first,,,,,,,,,,,,,,,,,,,,,,,,,,,,,,,,,,,,,,,,,,,,,,,,,,,,,,,,,,,,,,,,,,,
,,,,,,60fc7f3f9cc85bfba63d07b5,62bbf9edd9725e00c7cc9778,2022-06-29_09h16.22.413,Colour_Asymmetry_Pilot,2022.1.3,Win32,40.01920922,62bbe60bf3d75ef465d3e404,,,,,,,,,,,,,,,,,,,,onethree,,-3,3.1506,,,,,,,,,,,,,,,,,,,,,,,,,,,,,,,,,,"[-0.9688,-0.38039999999999996,-0.41979999999999995]","[0.6547999999999998,-0.043199999999999905,-0.011800000000000033]",-72,26,1,0,0,response7disk,-2,0,1,0,0,rectangle,-2,0,1,0,0,2,3,0.0006,0,-2,0,1,0,0,0,15,15,90,1,9,second,,,,,,,,,,,,,,,,,,,,,,,,,,,,,,,,,,,,,,,,,,,,,,,,,,,,,,,,,,,,,,,,,,,
,,,,,,60fc7f3f9cc85bfba63d07b5,62bbf9edd9725e00c7cc9778,2022-06-29_09h16.22.413,Colour_Asymmetry_Pilot,2022.1.3,Win32,40.01920922,62bbe60bf3d75ef465d3e404,,,,,,,,,,,,,,,,,,,,onethree,,-3,1.6516,,,,,,,,,,,,,,,,,,,,,,,,,,,,,,,,,,"[0.30180000000000007,-0.7884,-0.9844]","[-0.7412000000000001,-0.08239999999999992,-0.6864]",-80,32,1,0,0,response7disk,3,5,1,0,0,rectangle,3,5,1,0,0,2,2,0.0029,0,3,5,1,0,0,0,16,16,58,1,58,first,,,,,,,,,,,,,,,,,,,,,,,,,,,,,,,,,,,,,,,,,,,,,,,,,,,,,,,,,,,,,,,,,,,
,,,,,,60fc7f3f9cc85bfba63d07b5,62bbf9edd9725e00c7cc9778,2022-06-29_09h16.22.413,Colour_Asymmetry_Pilot,2022.1.3,Win32,40.01920922,62bbe60bf3d75ef465d3e404,,,,,,,,,,,,,,,,,,,,twofour,,-1,1.5261,,,,,,,,,,,,,,,,,,,,,,,,,,,,,,,,,,"[-0.06680000000000008,-0.45100000000000007,-0.906]","[0.09799999999999986,-0.24719999999999998,0.15280000000000005]",-31,-61,1,0,0,response5disk,3,2,1,0,0,rectangle,75,23,1,0,0,3,3,1.8991,1,-3,-4,1,0,0,0,17,17,55,1,55,first,response1disk_3,rectangle,,,,,,,,,,,,,,,,,,,,,,,,,,,,,,,,,,,,,,,,,,,,,,,,,,,,,,,,,,,,,,,,,
,,,,,,60fc7f3f9cc85bfba63d07b5,62bbf9edd9725e00c7cc9778,2022-06-29_09h16.22.413,Colour_Asymmetry_Pilot,2022.1.3,Win32,40.01920922,62bbe60bf3d75ef465d3e404,,,,,,,,,,,,,,,,,,,,threeone,,2,1.9259,,,,,,,,,,,,,,,,,,,,,,,,,,,,,,,,,,"[-0.07459999999999989,0.12139999999999995,-0.9922]","[-0.17659999999999998,0.3253999999999999,0.19999999999999996]",68,-37,1,0,0,response3disk,-2,1,1,0,0,rectangle,-2,1,1,0,0,3,2,0.0028,0,-2,1,1,0,0,0,18,18,129,1,48,second,,,,,,,,,,,,,,,,,,,,,,,,,,,,,,,,,,,,,,,,,,,,,,,,,,,,,,,,,,,,,,,,,,,
,,,,,,60fc7f3f9cc85bfba63d07b5,62bbf9edd9725e00c7cc9778,2022-06-29_09h16.22.413,Colour_Asymmetry_Pilot,2022.1.3,Win32,40.01920922,62bbe60bf3d75ef465d3e404,,,,,,,,,,,,,,,,,,,,twoone,,1,0.7242,,,,,,,,,,,,,,,,,,,,,,,,,,,,,,,,,,"[-0.4982,-0.2942,-0.0354000000000001]","[0.40379999999999994,0.09000000000000008,0.44300000000000006]",30,-59,1,0,0,response3disk,-2,-2,1,0,0,rectangle,65,-35,1,0,0,2,2,1.3758,1,-6,3,1,0,0,0,19,19,97,1,16,second,response3disk_3,rectangle,,,,,,,,,,,,,,,,,,,,,,,,,,,,,,,,,,,,,,,,,,,,,,,,,,,,,,,,,,,,,,,,,
,,,,,,60fc7f3f9cc85bfba63d07b5,62bbf9edd9725e00c7cc9778,2022-06-29_09h16.22.413,Colour_Asymmetry_Pilot,2022.1.3,Win32,40.01920922,62bbe60bf3d75ef465d3e404,,,,,,,,,,,,,,,,,,,,fourthree,,-1,1.9004,,,,,,,,,,,,,,,,,,,,,,,,,,,,,,,,,,"[0.9213999999999998,0.6391999999999998,-0.9922]","[0.5449999999999999,-0.31000000000000005,-0.0354000000000001]",-46,-72,1,0,0,response5disk,-4,1,1,0,0,rectangle,-4,1,1,0,0,2,1,0.0032,0,-4,1,1,0,0,0,20,20,33,1,33,first,,,,,,,,,,,,,,,,,,,,,,,,,,,,,,,,,,,,,,,,,,,,,,,,,,,,,,,,,,,,,,,,,,,
