trials.thisRepN,trials.thisTrialN,trials.thisN,trials.thisIndex,trials.ran,Colourcodes,participant,session,date,expName,psychopyVersion,OS,frameRate,study_id,trials_4.thisRepN,trials_4.thisTrialN,trials_4.thisN,trials_4.thisIndex,trials_4.ran,StimulusPos,key_resp.keys,key_resp.rt,key_resp_2.keys,key_resp_2.rt,key_resp_15.keys,key_resp_15.rt,key_resp_17.keys,key_resp_17.rt,key_resp_9.keys,key_resp_9.rt,key_resp_10.keys,key_resp_10.rt,Circle1_col,Ecc,Circle2_col,similarity,response_time,mouse_5.x,mouse_5.y,mouse_5.leftButton,mouse_5.midButton,mouse_5.rightButton,mouse_5.clicked_name,mouse_10.x,mouse_10.y,mouse_10.leftButton,mouse_10.midButton,mouse_10.rightButton,mouse_10.clicked_name,mouse_7.x,mouse_7.y,mouse_7.leftButton,mouse_7.midButton,mouse_7.rightButton,mouse_7.clicked_name,catchprac,catchnumberprac,mouse_6.x,mouse_6.y,mouse_6.leftButton,mouse_6.midButton,mouse_6.rightButton,mouse_6.clicked_name,duringprac.thisRepN,duringprac.thisTrialN,duringprac.thisN,duringprac.thisIndex,duringprac.ran,key_resp_22.keys,key_resp_22.rt,Circle1_colour,Circle2_colour,mouse.x,mouse.y,mouse.leftButton,mouse.midButton,mouse.rightButton,mouse.clicked_name,mouse_2.x,mouse_2.y,mouse_2.leftButton,mouse_2.midButton,mouse_2.rightButton,mouse_2.clicked_name,mouse_3.x,mouse_3.y,mouse_3.leftButton,mouse_3.midButton,mouse_3.rightButton,catchresponse,catchnumber,response_time_catch,Catch,mouse_11.x,mouse_11.y,mouse_11.leftButton,mouse_11.midButton,mouse_11.rightButton,trials_2.thisRepN,trials_2.thisTrialN,trials_2.thisN,trials_2.thisIndex,trials_2.ran,Colourpair,Temporder,mouse_3.clicked_name,mouse_11.clicked_name,trials_3.thisRepN,trials_3.thisTrialN,trials_3.thisN,trials_3.thisIndex,trials_3.ran,key_resp_instr_Ishi.keys,key_resp_instr_Ishi.rt,Ishi_trial_keyresp.keys,Ishi_trial_keyresp.rt,Ishi_textbox.text,Ishi_loop.thisRepN,Ishi_loop.thisTrialN,Ishi_loop.thisN,Ishi_loop.thisIndex,Ishi_loop.ran,imageaddress,textbox.text,mouse_4.x,mouse_4.y,mouse_4.leftButton,mouse_4.midButton,mouse_4.rightButton,mouse_4.clicked_name,textbox_2.text,mouse_8.x,mouse_8.y,mouse_8.leftButton,mouse_8.midButton,mouse_8.rightButton,mouse_8.clicked_name,textbox_3.text,mouse_9.x,mouse_9.y,mouse_9.leftButton,mouse_9.midButton,mouse_9.rightButton,mouse_9.clicked_name,textbox_4.text,mouse_12.x,mouse_12.y,mouse_12.leftButton,mouse_12.midButton,mouse_12.rightButton,mouse_12.clicked_name,textbox_5.text,mouse_13.x,mouse_13.y,mouse_13.leftButton,mouse_13.midButton,mouse_13.rightButton,mouse_13.clicked_name,textbox_6.text,mouse_14.x,mouse_14.y,mouse_14.leftButton,mouse_14.midButton,mouse_14.rightButton,mouse_14.clicked_name,textbox_7.text,mouse_15.x,mouse_15.y,mouse_15.leftButton,mouse_15.midButton,mouse_15.rightButton,mouse_15.clicked_name
0,0,0,84,1,,5dee3c313ccb8a4cbe050a84,62bbfb43a391ce9d357778e2,2022-06-29_10h12.15.957,Colour_Asymmetry_Pilot,2022.1.3,Win32,59.95203837,62bbe60bf3d75ef465d3e404,,,,,,,,,,,,,,,,,,,,,,,,,,,,,,,,,,,,,,,,,,,,,,,,,,,,,,,,,,,,,,,,,,,,,,,,,,,,,,,,,,,,,,,,,,,,,,,,,,,,,,,,,,,,,,,,,,,,,,,,,,,,,,,,,,,,,,,,,,,,,,,,,,,,,,,,,,,,,,
0,1,1,4,1,,5dee3c313ccb8a4cbe050a84,62bbfb43a391ce9d357778e2,2022-06-29_10h12.15.957,Colour_Asymmetry_Pilot,2022.1.3,Win32,59.95203837,62bbe60bf3d75ef465d3e404,,,,,,,,,,,,,,,,,,,,,,,,,,,,,,,,,,,,,,,,,,,,,,,,,,,,,,,,,,,,,,,,,,,,,,,,,,,,,,,,,,,,,,,,,,,,,,,,,,,,,,,,,,,,,,,,,,,,,,,,,,,,,,,,,,,,,,,,,,,,,,,,,,,,,,,,,,,,,,
0,2,2,40,1,,5dee3c313ccb8a4cbe050a84,62bbfb43a391ce9d357778e2,2022-06-29_10h12.15.957,Colour_Asymmetry_Pilot,2022.1.3,Win32,59.95203837,62bbe60bf3d75ef465d3e404,,,,,,,,,,,,,,,,,,,,,,,,,,,,,,,,,,,,,,,,,,,,,,,,,,,,,,,,,,,,,,,,,,,,,,,,,,,,,,,,,,,,,,,,,,,,,,,,,,,,,,,,,,,,,,,,,,,,,,,,,,,,,,,,,,,,,,,,,,,,,,,,,,,,,,,,,,,,,,
0,3,3,87,1,,5dee3c313ccb8a4cbe050a84,62bbfb43a391ce9d357778e2,2022-06-29_10h12.15.957,Colour_Asymmetry_Pilot,2022.1.3,Win32,59.95203837,62bbe60bf3d75ef465d3e404,,,,,,,,,,,,,,,,,,,,,,,,,,,,,,,,,,,,,,,,,,,,,,,,,,,,,,,,,,,,,,,,,,,,,,,,,,,,,,,,,,,,,,,,,,,,,,,,,,,,,,,,,,,,,,,,,,,,,,,,,,,,,,,,,,,,,,,,,,,,,,,,,,,,,,,,,,,,,,
0,4,4,9,1,,5dee3c313ccb8a4cbe050a84,62bbfb43a391ce9d357778e2,2022-06-29_10h12.15.957,Colour_Asymmetry_Pilot,2022.1.3,Win32,59.95203837,62bbe60bf3d75ef465d3e404,,,,,,,,,,,,,,,,,,,,,,,,,,,,,,,,,,,,,,,,,,,,,,,,,,,,,,,,,,,,,,,,,,,,,,,,,,,,,,,,,,,,,,,,,,,,,,,,,,,,,,,,,,,,,,,,,,,,,,,,,,,,,,,,,,,,,,,,,,,,,,,,,,,,,,,,,,,,,,
0,5,5,72,1,,5dee3c313ccb8a4cbe050a84,62bbfb43a391ce9d357778e2,2022-06-29_10h12.15.957,Colour_Asymmetry_Pilot,2022.1.3,Win32,59.95203837,62bbe60bf3d75ef465d3e404,,,,,,,,,,,,,,,,,,,,,,,,,,,,,,,,,,,,,,,,,,,,,,,,,,,,,,,,,,,,,,,,,,,,,,,,,,,,,,,,,,,,,,,,,,,,,,,,,,,,,,,,,,,,,,,,,,,,,,,,,,,,,,,,,,,,,,,,,,,,,,,,,,,,,,,,,,,,,,
0,6,6,63,1,,5dee3c313ccb8a4cbe050a84,62bbfb43a391ce9d357778e2,2022-06-29_10h12.15.957,Colour_Asymmetry_Pilot,2022.1.3,Win32,59.95203837,62bbe60bf3d75ef465d3e404,,,,,,,,,,,,,,,,,,,,,,,,,,,,,,,,,,,,,,,,,,,,,,,,,,,,,,,,,,,,,,,,,,,,,,,,,,,,,,,,,,,,,,,,,,,,,,,,,,,,,,,,,,,,,,,,,,,,,,,,,,,,,,,,,,,,,,,,,,,,,,,,,,,,,,,,,,,,,,
0,7,7,3,1,,5dee3c313ccb8a4cbe050a84,62bbfb43a391ce9d357778e2,2022-06-29_10h12.15.957,Colour_Asymmetry_Pilot,2022.1.3,Win32,59.95203837,62bbe60bf3d75ef465d3e404,,,,,,,,,,,,,,,,,,,,,,,,,,,,,,,,,,,,,,,,,,,,,,,,,,,,,,,,,,,,,,,,,,,,,,,,,,,,,,,,,,,,,,,,,,,,,,,,,,,,,,,,,,,,,,,,,,,,,,,,,,,,,,,,,,,,,,,,,,,,,,,,,,,,,,,,,,,,,,
0,8,8,11,1,,5dee3c313ccb8a4cbe050a84,62bbfb43a391ce9d357778e2,2022-06-29_10h12.15.957,Colour_Asymmetry_Pilot,2022.1.3,Win32,59.95203837,62bbe60bf3d75ef465d3e404,,,,,,,,,,,,,,,,,,,,,,,,,,,,,,,,,,,,,,,,,,,,,,,,,,,,,,,,,,,,,,,,,,,,,,,,,,,,,,,,,,,,,,,,,,,,,,,,,,,,,,,,,,,,,,,,,,,,,,,,,,,,,,,,,,,,,,,,,,,,,,,,,,,,,,,,,,,,,,
0,9,9,74,1,,5dee3c313ccb8a4cbe050a84,62bbfb43a391ce9d357778e2,2022-06-29_10h12.15.957,Colour_Asymmetry_Pilot,2022.1.3,Win32,59.95203837,62bbe60bf3d75ef465d3e404,,,,,,,,,,,,,,,,,,,,,,,,,,,,,,,,,,,,,,,,,,,,,,,,,,,,,,,,,,,,,,,,,,,,,,,,,,,,,,,,,,,,,,,,,,,,,,,,,,,,,,,,,,,,,,,,,,,,,,,,,,,,,,,,,,,,,,,,,,,,,,,,,,,,,,,,,,,,,,
0,10,10,53,1,,5dee3c313ccb8a4cbe050a84,62bbfb43a391ce9d357778e2,2022-06-29_10h12.15.957,Colour_Asymmetry_Pilot,2022.1.3,Win32,59.95203837,62bbe60bf3d75ef465d3e404,,,,,,,,,,,,,,,,,,,,,,,,,,,,,,,,,,,,,,,,,,,,,,,,,,,,,,,,,,,,,,,,,,,,,,,,,,,,,,,,,,,,,,,,,,,,,,,,,,,,,,,,,,,,,,,,,,,,,,,,,,,,,,,,,,,,,,,,,,,,,,,,,,,,,,,,,,,,,,
0,11,11,13,1,,5dee3c313ccb8a4cbe050a84,62bbfb43a391ce9d357778e2,2022-06-29_10h12.15.957,Colour_Asymmetry_Pilot,2022.1.3,Win32,59.95203837,62bbe60bf3d75ef465d3e404,,,,,,,,,,,,,,,,,,,,,,,,,,,,,,,,,,,,,,,,,,,,,,,,,,,,,,,,,,,,,,,,,,,,,,,,,,,,,,,,,,,,,,,,,,,,,,,,,,,,,,,,,,,,,,,,,,,,,,,,,,,,,,,,,,,,,,,,,,,,,,,,,,,,,,,,,,,,,,
0,12,12,8,1,,5dee3c313ccb8a4cbe050a84,62bbfb43a391ce9d357778e2,2022-06-29_10h12.15.957,Colour_Asymmetry_Pilot,2022.1.3,Win32,59.95203837,62bbe60bf3d75ef465d3e404,,,,,,,,,,,,,,,,,,,,,,,,,,,,,,,,,,,,,,,,,,,,,,,,,,,,,,,,,,,,,,,,,,,,,,,,,,,,,,,,,,,,,,,,,,,,,,,,,,,,,,,,,,,,,,,,,,,,,,,,,,,,,,,,,,,,,,,,,,,,,,,,,,,,,,,,,,,,,,
0,13,13,17,1,,5dee3c313ccb8a4cbe050a84,62bbfb43a391ce9d357778e2,2022-06-29_10h12.15.957,Colour_Asymmetry_Pilot,2022.1.3,Win32,59.95203837,62bbe60bf3d75ef465d3e404,,,,,,,,,,,,,,,,,,,,,,,,,,,,,,,,,,,,,,,,,,,,,,,,,,,,,,,,,,,,,,,,,,,,,,,,,,,,,,,,,,,,,,,,,,,,,,,,,,,,,,,,,,,,,,,,,,,,,,,,,,,,,,,,,,,,,,,,,,,,,,,,,,,,,,,,,,,,,,
0,14,14,10,1,,5dee3c313ccb8a4cbe050a84,62bbfb43a391ce9d357778e2,2022-06-29_10h12.15.957,Colour_Asymmetry_Pilot,2022.1.3,Win32,59.95203837,62bbe60bf3d75ef465d3e404,,,,,,,,,,,,,,,,,,,,,,,,,,,,,,,,,,,,,,,,,,,,,,,,,,,,,,,,,,,,,,,,,,,,,,,,,,,,,,,,,,,,,,,,,,,,,,,,,,,,,,,,,,,,,,,,,,,,,,,,,,,,,,,,,,,,,,,,,,,,,,,,,,,,,,,,,,,,,,
0,15,15,80,1,,5dee3c313ccb8a4cbe050a84,62bbfb43a391ce9d357778e2,2022-06-29_10h12.15.957,Colour_Asymmetry_Pilot,2022.1.3,Win32,59.95203837,62bbe60bf3d75ef465d3e404,,,,,,,,,,,,,,,,,,,,,,,,,,,,,,,,,,,,,,,,,,,,,,,,,,,,,,,,,,,,,,,,,,,,,,,,,,,,,,,,,,,,,,,,,,,,,,,,,,,,,,,,,,,,,,,,,,,,,,,,,,,,,,,,,,,,,,,,,,,,,,,,,,,,,,,,,,,,,,
0,16,16,79,1,,5dee3c313ccb8a4cbe050a84,62bbfb43a391ce9d357778e2,2022-06-29_10h12.15.957,Colour_Asymmetry_Pilot,2022.1.3,Win32,59.95203837,62bbe60bf3d75ef465d3e404,,,,,,,,,,,,,,,,,,,,,,,,,,,,,,,,,,,,,,,,,,,,,,,,,,,,,,,,,,,,,,,,,,,,,,,,,,,,,,,,,,,,,,,,,,,,,,,,,,,,,,,,,,,,,,,,,,,,,,,,,,,,,,,,,,,,,,,,,,,,,,,,,,,,,,,,,,,,,,
0,17,17,64,1,,5dee3c313ccb8a4cbe050a84,62bbfb43a391ce9d357778e2,2022-06-29_10h12.15.957,Colour_Asymmetry_Pilot,2022.1.3,Win32,59.95203837,62bbe60bf3d75ef465d3e404,,,,,,,,,,,,,,,,,,,,,,,,,,,,,,,,,,,,,,,,,,,,,,,,,,,,,,,,,,,,,,,,,,,,,,,,,,,,,,,,,,,,,,,,,,,,,,,,,,,,,,,,,,,,,,,,,,,,,,,,,,,,,,,,,,,,,,,,,,,,,,,,,,,,,,,,,,,,,,
0,18,18,78,1,,5dee3c313ccb8a4cbe050a84,62bbfb43a391ce9d357778e2,2022-06-29_10h12.15.957,Colour_Asymmetry_Pilot,2022.1.3,Win32,59.95203837,62bbe60bf3d75ef465d3e404,,,,,,,,,,,,,,,,,,,,,,,,,,,,,,,,,,,,,,,,,,,,,,,,,,,,,,,,,,,,,,,,,,,,,,,,,,,,,,,,,,,,,,,,,,,,,,,,,,,,,,,,,,,,,,,,,,,,,,,,,,,,,,,,,,,,,,,,,,,,,,,,,,,,,,,,,,,,,,
0,19,19,57,1,,5dee3c313ccb8a4cbe050a84,62bbfb43a391ce9d357778e2,2022-06-29_10h12.15.957,Colour_Asymmetry_Pilot,2022.1.3,Win32,59.95203837,62bbe60bf3d75ef465d3e404,,,,,,,,,,,,,,,,,,,,,,,,,,,,,,,,,,,,,,,,,,,,,,,,,,,,,,,,,,,,,,,,,,,,,,,,,,,,,,,,,,,,,,,,,,,,,,,,,,,,,,,,,,,,,,,,,,,,,,,,,,,,,,,,,,,,,,,,,,,,,,,,,,,,,,,,,,,,,,
0,20,20,36,1,,5dee3c313ccb8a4cbe050a84,62bbfb43a391ce9d357778e2,2022-06-29_10h12.15.957,Colour_Asymmetry_Pilot,2022.1.3,Win32,59.95203837,62bbe60bf3d75ef465d3e404,,,,,,,,,,,,,,,,,,,,,,,,,,,,,,,,,,,,,,,,,,,,,,,,,,,,,,,,,,,,,,,,,,,,,,,,,,,,,,,,,,,,,,,,,,,,,,,,,,,,,,,,,,,,,,,,,,,,,,,,,,,,,,,,,,,,,,,,,,,,,,,,,,,,,,,,,,,,,,
0,21,21,92,1,,5dee3c313ccb8a4cbe050a84,62bbfb43a391ce9d357778e2,2022-06-29_10h12.15.957,Colour_Asymmetry_Pilot,2022.1.3,Win32,59.95203837,62bbe60bf3d75ef465d3e404,,,,,,,,,,,,,,,,,,,,,,,,,,,,,,,,,,,,,,,,,,,,,,,,,,,,,,,,,,,,,,,,,,,,,,,,,,,,,,,,,,,,,,,,,,,,,,,,,,,,,,,,,,,,,,,,,,,,,,,,,,,,,,,,,,,,,,,,,,,,,,,,,,,,,,,,,,,,,,
0,22,22,85,1,,5dee3c313ccb8a4cbe050a84,62bbfb43a391ce9d357778e2,2022-06-29_10h12.15.957,Colour_Asymmetry_Pilot,2022.1.3,Win32,59.95203837,62bbe60bf3d75ef465d3e404,,,,,,,,,,,,,,,,,,,,,,,,,,,,,,,,,,,,,,,,,,,,,,,,,,,,,,,,,,,,,,,,,,,,,,,,,,,,,,,,,,,,,,,,,,,,,,,,,,,,,,,,,,,,,,,,,,,,,,,,,,,,,,,,,,,,,,,,,,,,,,,,,,,,,,,,,,,,,,
0,23,23,90,1,,5dee3c313ccb8a4cbe050a84,62bbfb43a391ce9d357778e2,2022-06-29_10h12.15.957,Colour_Asymmetry_Pilot,2022.1.3,Win32,59.95203837,62bbe60bf3d75ef465d3e404,,,,,,,,,,,,,,,,,,,,,,,,,,,,,,,,,,,,,,,,,,,,,,,,,,,,,,,,,,,,,,,,,,,,,,,,,,,,,,,,,,,,,,,,,,,,,,,,,,,,,,,,,,,,,,,,,,,,,,,,,,,,,,,,,,,,,,,,,,,,,,,,,,,,,,,,,,,,,,
0,24,24,12,1,,5dee3c313ccb8a4cbe050a84,62bbfb43a391ce9d357778e2,2022-06-29_10h12.15.957,Colour_Asymmetry_Pilot,2022.1.3,Win32,59.95203837,62bbe60bf3d75ef465d3e404,,,,,,,,,,,,,,,,,,,,,,,,,,,,,,,,,,,,,,,,,,,,,,,,,,,,,,,,,,,,,,,,,,,,,,,,,,,,,,,,,,,,,,,,,,,,,,,,,,,,,,,,,,,,,,,,,,,,,,,,,,,,,,,,,,,,,,,,,,,,,,,,,,,,,,,,,,,,,,
0,25,25,71,1,,5dee3c313ccb8a4cbe050a84,62bbfb43a391ce9d357778e2,2022-06-29_10h12.15.957,Colour_Asymmetry_Pilot,2022.1.3,Win32,59.95203837,62bbe60bf3d75ef465d3e404,,,,,,,,,,,,,,,,,,,,,,,,,,,,,,,,,,,,,,,,,,,,,,,,,,,,,,,,,,,,,,,,,,,,,,,,,,,,,,,,,,,,,,,,,,,,,,,,,,,,,,,,,,,,,,,,,,,,,,,,,,,,,,,,,,,,,,,,,,,,,,,,,,,,,,,,,,,,,,
0,26,26,47,1,,5dee3c313ccb8a4cbe050a84,62bbfb43a391ce9d357778e2,2022-06-29_10h12.15.957,Colour_Asymmetry_Pilot,2022.1.3,Win32,59.95203837,62bbe60bf3d75ef465d3e404,,,,,,,,,,,,,,,,,,,,,,,,,,,,,,,,,,,,,,,,,,,,,,,,,,,,,,,,,,,,,,,,,,,,,,,,,,,,,,,,,,,,,,,,,,,,,,,,,,,,,,,,,,,,,,,,,,,,,,,,,,,,,,,,,,,,,,,,,,,,,,,,,,,,,,,,,,,,,,
0,27,27,37,1,,5dee3c313ccb8a4cbe050a84,62bbfb43a391ce9d357778e2,2022-06-29_10h12.15.957,Colour_Asymmetry_Pilot,2022.1.3,Win32,59.95203837,62bbe60bf3d75ef465d3e404,,,,,,,,,,,,,,,,,,,,,,,,,,,,,,,,,,,,,,,,,,,,,,,,,,,,,,,,,,,,,,,,,,,,,,,,,,,,,,,,,,,,,,,,,,,,,,,,,,,,,,,,,,,,,,,,,,,,,,,,,,,,,,,,,,,,,,,,,,,,,,,,,,,,,,,,,,,,,,
0,28,28,48,1,,5dee3c313ccb8a4cbe050a84,62bbfb43a391ce9d357778e2,2022-06-29_10h12.15.957,Colour_Asymmetry_Pilot,2022.1.3,Win32,59.95203837,62bbe60bf3d75ef465d3e404,,,,,,,,,,,,,,,,,,,,,,,,,,,,,,,,,,,,,,,,,,,,,,,,,,,,,,,,,,,,,,,,,,,,,,,,,,,,,,,,,,,,,,,,,,,,,,,,,,,,,,,,,,,,,,,,,,,,,,,,,,,,,,,,,,,,,,,,,,,,,,,,,,,,,,,,,,,,,,
0,29,29,7,1,,5dee3c313ccb8a4cbe050a84,62bbfb43a391ce9d357778e2,2022-06-29_10h12.15.957,Colour_Asymmetry_Pilot,2022.1.3,Win32,59.95203837,62bbe60bf3d75ef465d3e404,,,,,,,,,,,,,,,,,,,,,,,,,,,,,,,,,,,,,,,,,,,,,,,,,,,,,,,,,,,,,,,,,,,,,,,,,,,,,,,,,,,,,,,,,,,,,,,,,,,,,,,,,,,,,,,,,,,,,,,,,,,,,,,,,,,,,,,,,,,,,,,,,,,,,,,,,,,,,,
0,30,30,56,1,,5dee3c313ccb8a4cbe050a84,62bbfb43a391ce9d357778e2,2022-06-29_10h12.15.957,Colour_Asymmetry_Pilot,2022.1.3,Win32,59.95203837,62bbe60bf3d75ef465d3e404,,,,,,,,,,,,,,,,,,,,,,,,,,,,,,,,,,,,,,,,,,,,,,,,,,,,,,,,,,,,,,,,,,,,,,,,,,,,,,,,,,,,,,,,,,,,,,,,,,,,,,,,,,,,,,,,,,,,,,,,,,,,,,,,,,,,,,,,,,,,,,,,,,,,,,,,,,,,,,
0,31,31,60,1,,5dee3c313ccb8a4cbe050a84,62bbfb43a391ce9d357778e2,2022-06-29_10h12.15.957,Colour_Asymmetry_Pilot,2022.1.3,Win32,59.95203837,62bbe60bf3d75ef465d3e404,,,,,,,,,,,,,,,,,,,,,,,,,,,,,,,,,,,,,,,,,,,,,,,,,,,,,,,,,,,,,,,,,,,,,,,,,,,,,,,,,,,,,,,,,,,,,,,,,,,,,,,,,,,,,,,,,,,,,,,,,,,,,,,,,,,,,,,,,,,,,,,,,,,,,,,,,,,,,,
0,32,32,52,1,,5dee3c313ccb8a4cbe050a84,62bbfb43a391ce9d357778e2,2022-06-29_10h12.15.957,Colour_Asymmetry_Pilot,2022.1.3,Win32,59.95203837,62bbe60bf3d75ef465d3e404,,,,,,,,,,,,,,,,,,,,,,,,,,,,,,,,,,,,,,,,,,,,,,,,,,,,,,,,,,,,,,,,,,,,,,,,,,,,,,,,,,,,,,,,,,,,,,,,,,,,,,,,,,,,,,,,,,,,,,,,,,,,,,,,,,,,,,,,,,,,,,,,,,,,,,,,,,,,,,
0,33,33,62,1,,5dee3c313ccb8a4cbe050a84,62bbfb43a391ce9d357778e2,2022-06-29_10h12.15.957,Colour_Asymmetry_Pilot,2022.1.3,Win32,59.95203837,62bbe60bf3d75ef465d3e404,,,,,,,,,,,,,,,,,,,,,,,,,,,,,,,,,,,,,,,,,,,,,,,,,,,,,,,,,,,,,,,,,,,,,,,,,,,,,,,,,,,,,,,,,,,,,,,,,,,,,,,,,,,,,,,,,,,,,,,,,,,,,,,,,,,,,,,,,,,,,,,,,,,,,,,,,,,,,,
0,34,34,1,1,,5dee3c313ccb8a4cbe050a84,62bbfb43a391ce9d357778e2,2022-06-29_10h12.15.957,Colour_Asymmetry_Pilot,2022.1.3,Win32,59.95203837,62bbe60bf3d75ef465d3e404,,,,,,,,,,,,,,,,,,,,,,,,,,,,,,,,,,,,,,,,,,,,,,,,,,,,,,,,,,,,,,,,,,,,,,,,,,,,,,,,,,,,,,,,,,,,,,,,,,,,,,,,,,,,,,,,,,,,,,,,,,,,,,,,,,,,,,,,,,,,,,,,,,,,,,,,,,,,,,
0,35,35,24,1,,5dee3c313ccb8a4cbe050a84,62bbfb43a391ce9d357778e2,2022-06-29_10h12.15.957,Colour_Asymmetry_Pilot,2022.1.3,Win32,59.95203837,62bbe60bf3d75ef465d3e404,,,,,,,,,,,,,,,,,,,,,,,,,,,,,,,,,,,,,,,,,,,,,,,,,,,,,,,,,,,,,,,,,,,,,,,,,,,,,,,,,,,,,,,,,,,,,,,,,,,,,,,,,,,,,,,,,,,,,,,,,,,,,,,,,,,,,,,,,,,,,,,,,,,,,,,,,,,,,,
0,36,36,23,1,,5dee3c313ccb8a4cbe050a84,62bbfb43a391ce9d357778e2,2022-06-29_10h12.15.957,Colour_Asymmetry_Pilot,2022.1.3,Win32,59.95203837,62bbe60bf3d75ef465d3e404,,,,,,,,,,,,,,,,,,,,,,,,,,,,,,,,,,,,,,,,,,,,,,,,,,,,,,,,,,,,,,,,,,,,,,,,,,,,,,,,,,,,,,,,,,,,,,,,,,,,,,,,,,,,,,,,,,,,,,,,,,,,,,,,,,,,,,,,,,,,,,,,,,,,,,,,,,,,,,
0,37,37,44,1,,5dee3c313ccb8a4cbe050a84,62bbfb43a391ce9d357778e2,2022-06-29_10h12.15.957,Colour_Asymmetry_Pilot,2022.1.3,Win32,59.95203837,62bbe60bf3d75ef465d3e404,,,,,,,,,,,,,,,,,,,,,,,,,,,,,,,,,,,,,,,,,,,,,,,,,,,,,,,,,,,,,,,,,,,,,,,,,,,,,,,,,,,,,,,,,,,,,,,,,,,,,,,,,,,,,,,,,,,,,,,,,,,,,,,,,,,,,,,,,,,,,,,,,,,,,,,,,,,,,,
0,38,38,28,1,,5dee3c313ccb8a4cbe050a84,62bbfb43a391ce9d357778e2,2022-06-29_10h12.15.957,Colour_Asymmetry_Pilot,2022.1.3,Win32,59.95203837,62bbe60bf3d75ef465d3e404,,,,,,,,,,,,,,,,,,,,,,,,,,,,,,,,,,,,,,,,,,,,,,,,,,,,,,,,,,,,,,,,,,,,,,,,,,,,,,,,,,,,,,,,,,,,,,,,,,,,,,,,,,,,,,,,,,,,,,,,,,,,,,,,,,,,,,,,,,,,,,,,,,,,,,,,,,,,,,
0,39,39,6,1,,5dee3c313ccb8a4cbe050a84,62bbfb43a391ce9d357778e2,2022-06-29_10h12.15.957,Colour_Asymmetry_Pilot,2022.1.3,Win32,59.95203837,62bbe60bf3d75ef465d3e404,,,,,,,,,,,,,,,,,,,,,,,,,,,,,,,,,,,,,,,,,,,,,,,,,,,,,,,,,,,,,,,,,,,,,,,,,,,,,,,,,,,,,,,,,,,,,,,,,,,,,,,,,,,,,,,,,,,,,,,,,,,,,,,,,,,,,,,,,,,,,,,,,,,,,,,,,,,,,,
0,40,40,29,1,,5dee3c313ccb8a4cbe050a84,62bbfb43a391ce9d357778e2,2022-06-29_10h12.15.957,Colour_Asymmetry_Pilot,2022.1.3,Win32,59.95203837,62bbe60bf3d75ef465d3e404,,,,,,,,,,,,,,,,,,,,,,,,,,,,,,,,,,,,,,,,,,,,,,,,,,,,,,,,,,,,,,,,,,,,,,,,,,,,,,,,,,,,,,,,,,,,,,,,,,,,,,,,,,,,,,,,,,,,,,,,,,,,,,,,,,,,,,,,,,,,,,,,,,,,,,,,,,,,,,
0,41,41,81,1,,5dee3c313ccb8a4cbe050a84,62bbfb43a391ce9d357778e2,2022-06-29_10h12.15.957,Colour_Asymmetry_Pilot,2022.1.3,Win32,59.95203837,62bbe60bf3d75ef465d3e404,,,,,,,,,,,,,,,,,,,,,,,,,,,,,,,,,,,,,,,,,,,,,,,,,,,,,,,,,,,,,,,,,,,,,,,,,,,,,,,,,,,,,,,,,,,,,,,,,,,,,,,,,,,,,,,,,,,,,,,,,,,,,,,,,,,,,,,,,,,,,,,,,,,,,,,,,,,,,,
0,42,42,46,1,,5dee3c313ccb8a4cbe050a84,62bbfb43a391ce9d357778e2,2022-06-29_10h12.15.957,Colour_Asymmetry_Pilot,2022.1.3,Win32,59.95203837,62bbe60bf3d75ef465d3e404,,,,,,,,,,,,,,,,,,,,,,,,,,,,,,,,,,,,,,,,,,,,,,,,,,,,,,,,,,,,,,,,,,,,,,,,,,,,,,,,,,,,,,,,,,,,,,,,,,,,,,,,,,,,,,,,,,,,,,,,,,,,,,,,,,,,,,,,,,,,,,,,,,,,,,,,,,,,,,
0,43,43,19,1,,5dee3c313ccb8a4cbe050a84,62bbfb43a391ce9d357778e2,2022-06-29_10h12.15.957,Colour_Asymmetry_Pilot,2022.1.3,Win32,59.95203837,62bbe60bf3d75ef465d3e404,,,,,,,,,,,,,,,,,,,,,,,,,,,,,,,,,,,,,,,,,,,,,,,,,,,,,,,,,,,,,,,,,,,,,,,,,,,,,,,,,,,,,,,,,,,,,,,,,,,,,,,,,,,,,,,,,,,,,,,,,,,,,,,,,,,,,,,,,,,,,,,,,,,,,,,,,,,,,,
0,44,44,86,1,,5dee3c313ccb8a4cbe050a84,62bbfb43a391ce9d357778e2,2022-06-29_10h12.15.957,Colour_Asymmetry_Pilot,2022.1.3,Win32,59.95203837,62bbe60bf3d75ef465d3e404,,,,,,,,,,,,,,,,,,,,,,,,,,,,,,,,,,,,,,,,,,,,,,,,,,,,,,,,,,,,,,,,,,,,,,,,,,,,,,,,,,,,,,,,,,,,,,,,,,,,,,,,,,,,,,,,,,,,,,,,,,,,,,,,,,,,,,,,,,,,,,,,,,,,,,,,,,,,,,
0,45,45,34,1,,5dee3c313ccb8a4cbe050a84,62bbfb43a391ce9d357778e2,2022-06-29_10h12.15.957,Colour_Asymmetry_Pilot,2022.1.3,Win32,59.95203837,62bbe60bf3d75ef465d3e404,,,,,,,,,,,,,,,,,,,,,,,,,,,,,,,,,,,,,,,,,,,,,,,,,,,,,,,,,,,,,,,,,,,,,,,,,,,,,,,,,,,,,,,,,,,,,,,,,,,,,,,,,,,,,,,,,,,,,,,,,,,,,,,,,,,,,,,,,,,,,,,,,,,,,,,,,,,,,,
0,46,46,50,1,,5dee3c313ccb8a4cbe050a84,62bbfb43a391ce9d357778e2,2022-06-29_10h12.15.957,Colour_Asymmetry_Pilot,2022.1.3,Win32,59.95203837,62bbe60bf3d75ef465d3e404,,,,,,,,,,,,,,,,,,,,,,,,,,,,,,,,,,,,,,,,,,,,,,,,,,,,,,,,,,,,,,,,,,,,,,,,,,,,,,,,,,,,,,,,,,,,,,,,,,,,,,,,,,,,,,,,,,,,,,,,,,,,,,,,,,,,,,,,,,,,,,,,,,,,,,,,,,,,,,
0,47,47,43,1,,5dee3c313ccb8a4cbe050a84,62bbfb43a391ce9d357778e2,2022-06-29_10h12.15.957,Colour_Asymmetry_Pilot,2022.1.3,Win32,59.95203837,62bbe60bf3d75ef465d3e404,,,,,,,,,,,,,,,,,,,,,,,,,,,,,,,,,,,,,,,,,,,,,,,,,,,,,,,,,,,,,,,,,,,,,,,,,,,,,,,,,,,,,,,,,,,,,,,,,,,,,,,,,,,,,,,,,,,,,,,,,,,,,,,,,,,,,,,,,,,,,,,,,,,,,,,,,,,,,,
0,48,48,67,1,,5dee3c313ccb8a4cbe050a84,62bbfb43a391ce9d357778e2,2022-06-29_10h12.15.957,Colour_Asymmetry_Pilot,2022.1.3,Win32,59.95203837,62bbe60bf3d75ef465d3e404,,,,,,,,,,,,,,,,,,,,,,,,,,,,,,,,,,,,,,,,,,,,,,,,,,,,,,,,,,,,,,,,,,,,,,,,,,,,,,,,,,,,,,,,,,,,,,,,,,,,,,,,,,,,,,,,,,,,,,,,,,,,,,,,,,,,,,,,,,,,,,,,,,,,,,,,,,,,,,
0,49,49,51,1,,5dee3c313ccb8a4cbe050a84,62bbfb43a391ce9d357778e2,2022-06-29_10h12.15.957,Colour_Asymmetry_Pilot,2022.1.3,Win32,59.95203837,62bbe60bf3d75ef465d3e404,,,,,,,,,,,,,,,,,,,,,,,,,,,,,,,,,,,,,,,,,,,,,,,,,,,,,,,,,,,,,,,,,,,,,,,,,,,,,,,,,,,,,,,,,,,,,,,,,,,,,,,,,,,,,,,,,,,,,,,,,,,,,,,,,,,,,,,,,,,,,,,,,,,,,,,,,,,,,,
0,50,50,0,1,,5dee3c313ccb8a4cbe050a84,62bbfb43a391ce9d357778e2,2022-06-29_10h12.15.957,Colour_Asymmetry_Pilot,2022.1.3,Win32,59.95203837,62bbe60bf3d75ef465d3e404,,,,,,,,,,,,,,,,,,,,,,,,,,,,,,,,,,,,,,,,,,,,,,,,,,,,,,,,,,,,,,,,,,,,,,,,,,,,,,,,,,,,,,,,,,,,,,,,,,,,,,,,,,,,,,,,,,,,,,,,,,,,,,,,,,,,,,,,,,,,,,,,,,,,,,,,,,,,,,
0,51,51,35,1,,5dee3c313ccb8a4cbe050a84,62bbfb43a391ce9d357778e2,2022-06-29_10h12.15.957,Colour_Asymmetry_Pilot,2022.1.3,Win32,59.95203837,62bbe60bf3d75ef465d3e404,,,,,,,,,,,,,,,,,,,,,,,,,,,,,,,,,,,,,,,,,,,,,,,,,,,,,,,,,,,,,,,,,,,,,,,,,,,,,,,,,,,,,,,,,,,,,,,,,,,,,,,,,,,,,,,,,,,,,,,,,,,,,,,,,,,,,,,,,,,,,,,,,,,,,,,,,,,,,,
0,52,52,5,1,,5dee3c313ccb8a4cbe050a84,62bbfb43a391ce9d357778e2,2022-06-29_10h12.15.957,Colour_Asymmetry_Pilot,2022.1.3,Win32,59.95203837,62bbe60bf3d75ef465d3e404,,,,,,,,,,,,,,,,,,,,,,,,,,,,,,,,,,,,,,,,,,,,,,,,,,,,,,,,,,,,,,,,,,,,,,,,,,,,,,,,,,,,,,,,,,,,,,,,,,,,,,,,,,,,,,,,,,,,,,,,,,,,,,,,,,,,,,,,,,,,,,,,,,,,,,,,,,,,,,
0,53,53,16,1,,5dee3c313ccb8a4cbe050a84,62bbfb43a391ce9d357778e2,2022-06-29_10h12.15.957,Colour_Asymmetry_Pilot,2022.1.3,Win32,59.95203837,62bbe60bf3d75ef465d3e404,,,,,,,,,,,,,,,,,,,,,,,,,,,,,,,,,,,,,,,,,,,,,,,,,,,,,,,,,,,,,,,,,,,,,,,,,,,,,,,,,,,,,,,,,,,,,,,,,,,,,,,,,,,,,,,,,,,,,,,,,,,,,,,,,,,,,,,,,,,,,,,,,,,,,,,,,,,,,,
0,54,54,91,1,,5dee3c313ccb8a4cbe050a84,62bbfb43a391ce9d357778e2,2022-06-29_10h12.15.957,Colour_Asymmetry_Pilot,2022.1.3,Win32,59.95203837,62bbe60bf3d75ef465d3e404,,,,,,,,,,,,,,,,,,,,,,,,,,,,,,,,,,,,,,,,,,,,,,,,,,,,,,,,,,,,,,,,,,,,,,,,,,,,,,,,,,,,,,,,,,,,,,,,,,,,,,,,,,,,,,,,,,,,,,,,,,,,,,,,,,,,,,,,,,,,,,,,,,,,,,,,,,,,,,
0,55,55,82,1,,5dee3c313ccb8a4cbe050a84,62bbfb43a391ce9d357778e2,2022-06-29_10h12.15.957,Colour_Asymmetry_Pilot,2022.1.3,Win32,59.95203837,62bbe60bf3d75ef465d3e404,,,,,,,,,,,,,,,,,,,,,,,,,,,,,,,,,,,,,,,,,,,,,,,,,,,,,,,,,,,,,,,,,,,,,,,,,,,,,,,,,,,,,,,,,,,,,,,,,,,,,,,,,,,,,,,,,,,,,,,,,,,,,,,,,,,,,,,,,,,,,,,,,,,,,,,,,,,,,,
0,56,56,76,1,,5dee3c313ccb8a4cbe050a84,62bbfb43a391ce9d357778e2,2022-06-29_10h12.15.957,Colour_Asymmetry_Pilot,2022.1.3,Win32,59.95203837,62bbe60bf3d75ef465d3e404,,,,,,,,,,,,,,,,,,,,,,,,,,,,,,,,,,,,,,,,,,,,,,,,,,,,,,,,,,,,,,,,,,,,,,,,,,,,,,,,,,,,,,,,,,,,,,,,,,,,,,,,,,,,,,,,,,,,,,,,,,,,,,,,,,,,,,,,,,,,,,,,,,,,,,,,,,,,,,
0,57,57,88,1,,5dee3c313ccb8a4cbe050a84,62bbfb43a391ce9d357778e2,2022-06-29_10h12.15.957,Colour_Asymmetry_Pilot,2022.1.3,Win32,59.95203837,62bbe60bf3d75ef465d3e404,,,,,,,,,,,,,,,,,,,,,,,,,,,,,,,,,,,,,,,,,,,,,,,,,,,,,,,,,,,,,,,,,,,,,,,,,,,,,,,,,,,,,,,,,,,,,,,,,,,,,,,,,,,,,,,,,,,,,,,,,,,,,,,,,,,,,,,,,,,,,,,,,,,,,,,,,,,,,,
0,58,58,33,1,,5dee3c313ccb8a4cbe050a84,62bbfb43a391ce9d357778e2,2022-06-29_10h12.15.957,Colour_Asymmetry_Pilot,2022.1.3,Win32,59.95203837,62bbe60bf3d75ef465d3e404,,,,,,,,,,,,,,,,,,,,,,,,,,,,,,,,,,,,,,,,,,,,,,,,,,,,,,,,,,,,,,,,,,,,,,,,,,,,,,,,,,,,,,,,,,,,,,,,,,,,,,,,,,,,,,,,,,,,,,,,,,,,,,,,,,,,,,,,,,,,,,,,,,,,,,,,,,,,,,
0,59,59,25,1,,5dee3c313ccb8a4cbe050a84,62bbfb43a391ce9d357778e2,2022-06-29_10h12.15.957,Colour_Asymmetry_Pilot,2022.1.3,Win32,59.95203837,62bbe60bf3d75ef465d3e404,,,,,,,,,,,,,,,,,,,,,,,,,,,,,,,,,,,,,,,,,,,,,,,,,,,,,,,,,,,,,,,,,,,,,,,,,,,,,,,,,,,,,,,,,,,,,,,,,,,,,,,,,,,,,,,,,,,,,,,,,,,,,,,,,,,,,,,,,,,,,,,,,,,,,,,,,,,,,,
0,60,60,22,1,,5dee3c313ccb8a4cbe050a84,62bbfb43a391ce9d357778e2,2022-06-29_10h12.15.957,Colour_Asymmetry_Pilot,2022.1.3,Win32,59.95203837,62bbe60bf3d75ef465d3e404,,,,,,,,,,,,,,,,,,,,,,,,,,,,,,,,,,,,,,,,,,,,,,,,,,,,,,,,,,,,,,,,,,,,,,,,,,,,,,,,,,,,,,,,,,,,,,,,,,,,,,,,,,,,,,,,,,,,,,,,,,,,,,,,,,,,,,,,,,,,,,,,,,,,,,,,,,,,,,
0,61,61,75,1,,5dee3c313ccb8a4cbe050a84,62bbfb43a391ce9d357778e2,2022-06-29_10h12.15.957,Colour_Asymmetry_Pilot,2022.1.3,Win32,59.95203837,62bbe60bf3d75ef465d3e404,,,,,,,,,,,,,,,,,,,,,,,,,,,,,,,,,,,,,,,,,,,,,,,,,,,,,,,,,,,,,,,,,,,,,,,,,,,,,,,,,,,,,,,,,,,,,,,,,,,,,,,,,,,,,,,,,,,,,,,,,,,,,,,,,,,,,,,,,,,,,,,,,,,,,,,,,,,,,,
0,62,62,39,1,,5dee3c313ccb8a4cbe050a84,62bbfb43a391ce9d357778e2,2022-06-29_10h12.15.957,Colour_Asymmetry_Pilot,2022.1.3,Win32,59.95203837,62bbe60bf3d75ef465d3e404,,,,,,,,,,,,,,,,,,,,,,,,,,,,,,,,,,,,,,,,,,,,,,,,,,,,,,,,,,,,,,,,,,,,,,,,,,,,,,,,,,,,,,,,,,,,,,,,,,,,,,,,,,,,,,,,,,,,,,,,,,,,,,,,,,,,,,,,,,,,,,,,,,,,,,,,,,,,,,
0,63,63,65,1,,5dee3c313ccb8a4cbe050a84,62bbfb43a391ce9d357778e2,2022-06-29_10h12.15.957,Colour_Asymmetry_Pilot,2022.1.3,Win32,59.95203837,62bbe60bf3d75ef465d3e404,,,,,,,,,,,,,,,,,,,,,,,,,,,,,,,,,,,,,,,,,,,,,,,,,,,,,,,,,,,,,,,,,,,,,,,,,,,,,,,,,,,,,,,,,,,,,,,,,,,,,,,,,,,,,,,,,,,,,,,,,,,,,,,,,,,,,,,,,,,,,,,,,,,,,,,,,,,,,,
0,64,64,61,1,,5dee3c313ccb8a4cbe050a84,62bbfb43a391ce9d357778e2,2022-06-29_10h12.15.957,Colour_Asymmetry_Pilot,2022.1.3,Win32,59.95203837,62bbe60bf3d75ef465d3e404,,,,,,,,,,,,,,,,,,,,,,,,,,,,,,,,,,,,,,,,,,,,,,,,,,,,,,,,,,,,,,,,,,,,,,,,,,,,,,,,,,,,,,,,,,,,,,,,,,,,,,,,,,,,,,,,,,,,,,,,,,,,,,,,,,,,,,,,,,,,,,,,,,,,,,,,,,,,,,
0,65,65,26,1,,5dee3c313ccb8a4cbe050a84,62bbfb43a391ce9d357778e2,2022-06-29_10h12.15.957,Colour_Asymmetry_Pilot,2022.1.3,Win32,59.95203837,62bbe60bf3d75ef465d3e404,,,,,,,,,,,,,,,,,,,,,,,,,,,,,,,,,,,,,,,,,,,,,,,,,,,,,,,,,,,,,,,,,,,,,,,,,,,,,,,,,,,,,,,,,,,,,,,,,,,,,,,,,,,,,,,,,,,,,,,,,,,,,,,,,,,,,,,,,,,,,,,,,,,,,,,,,,,,,,
0,66,66,55,1,,5dee3c313ccb8a4cbe050a84,62bbfb43a391ce9d357778e2,2022-06-29_10h12.15.957,Colour_Asymmetry_Pilot,2022.1.3,Win32,59.95203837,62bbe60bf3d75ef465d3e404,,,,,,,,,,,,,,,,,,,,,,,,,,,,,,,,,,,,,,,,,,,,,,,,,,,,,,,,,,,,,,,,,,,,,,,,,,,,,,,,,,,,,,,,,,,,,,,,,,,,,,,,,,,,,,,,,,,,,,,,,,,,,,,,,,,,,,,,,,,,,,,,,,,,,,,,,,,,,,
0,67,67,66,1,,5dee3c313ccb8a4cbe050a84,62bbfb43a391ce9d357778e2,2022-06-29_10h12.15.957,Colour_Asymmetry_Pilot,2022.1.3,Win32,59.95203837,62bbe60bf3d75ef465d3e404,,,,,,,,,,,,,,,,,,,,,,,,,,,,,,,,,,,,,,,,,,,,,,,,,,,,,,,,,,,,,,,,,,,,,,,,,,,,,,,,,,,,,,,,,,,,,,,,,,,,,,,,,,,,,,,,,,,,,,,,,,,,,,,,,,,,,,,,,,,,,,,,,,,,,,,,,,,,,,
0,68,68,2,1,,5dee3c313ccb8a4cbe050a84,62bbfb43a391ce9d357778e2,2022-06-29_10h12.15.957,Colour_Asymmetry_Pilot,2022.1.3,Win32,59.95203837,62bbe60bf3d75ef465d3e404,,,,,,,,,,,,,,,,,,,,,,,,,,,,,,,,,,,,,,,,,,,,,,,,,,,,,,,,,,,,,,,,,,,,,,,,,,,,,,,,,,,,,,,,,,,,,,,,,,,,,,,,,,,,,,,,,,,,,,,,,,,,,,,,,,,,,,,,,,,,,,,,,,,,,,,,,,,,,,
0,69,69,15,1,,5dee3c313ccb8a4cbe050a84,62bbfb43a391ce9d357778e2,2022-06-29_10h12.15.957,Colour_Asymmetry_Pilot,2022.1.3,Win32,59.95203837,62bbe60bf3d75ef465d3e404,,,,,,,,,,,,,,,,,,,,,,,,,,,,,,,,,,,,,,,,,,,,,,,,,,,,,,,,,,,,,,,,,,,,,,,,,,,,,,,,,,,,,,,,,,,,,,,,,,,,,,,,,,,,,,,,,,,,,,,,,,,,,,,,,,,,,,,,,,,,,,,,,,,,,,,,,,,,,,
0,70,70,30,1,,5dee3c313ccb8a4cbe050a84,62bbfb43a391ce9d357778e2,2022-06-29_10h12.15.957,Colour_Asymmetry_Pilot,2022.1.3,Win32,59.95203837,62bbe60bf3d75ef465d3e404,,,,,,,,,,,,,,,,,,,,,,,,,,,,,,,,,,,,,,,,,,,,,,,,,,,,,,,,,,,,,,,,,,,,,,,,,,,,,,,,,,,,,,,,,,,,,,,,,,,,,,,,,,,,,,,,,,,,,,,,,,,,,,,,,,,,,,,,,,,,,,,,,,,,,,,,,,,,,,
0,71,71,73,1,,5dee3c313ccb8a4cbe050a84,62bbfb43a391ce9d357778e2,2022-06-29_10h12.15.957,Colour_Asymmetry_Pilot,2022.1.3,Win32,59.95203837,62bbe60bf3d75ef465d3e404,,,,,,,,,,,,,,,,,,,,,,,,,,,,,,,,,,,,,,,,,,,,,,,,,,,,,,,,,,,,,,,,,,,,,,,,,,,,,,,,,,,,,,,,,,,,,,,,,,,,,,,,,,,,,,,,,,,,,,,,,,,,,,,,,,,,,,,,,,,,,,,,,,,,,,,,,,,,,,
0,72,72,38,1,,5dee3c313ccb8a4cbe050a84,62bbfb43a391ce9d357778e2,2022-06-29_10h12.15.957,Colour_Asymmetry_Pilot,2022.1.3,Win32,59.95203837,62bbe60bf3d75ef465d3e404,,,,,,,,,,,,,,,,,,,,,,,,,,,,,,,,,,,,,,,,,,,,,,,,,,,,,,,,,,,,,,,,,,,,,,,,,,,,,,,,,,,,,,,,,,,,,,,,,,,,,,,,,,,,,,,,,,,,,,,,,,,,,,,,,,,,,,,,,,,,,,,,,,,,,,,,,,,,,,
0,73,73,59,1,,5dee3c313ccb8a4cbe050a84,62bbfb43a391ce9d357778e2,2022-06-29_10h12.15.957,Colour_Asymmetry_Pilot,2022.1.3,Win32,59.95203837,62bbe60bf3d75ef465d3e404,,,,,,,,,,,,,,,,,,,,,,,,,,,,,,,,,,,,,,,,,,,,,,,,,,,,,,,,,,,,,,,,,,,,,,,,,,,,,,,,,,,,,,,,,,,,,,,,,,,,,,,,,,,,,,,,,,,,,,,,,,,,,,,,,,,,,,,,,,,,,,,,,,,,,,,,,,,,,,
0,74,74,32,1,,5dee3c313ccb8a4cbe050a84,62bbfb43a391ce9d357778e2,2022-06-29_10h12.15.957,Colour_Asymmetry_Pilot,2022.1.3,Win32,59.95203837,62bbe60bf3d75ef465d3e404,,,,,,,,,,,,,,,,,,,,,,,,,,,,,,,,,,,,,,,,,,,,,,,,,,,,,,,,,,,,,,,,,,,,,,,,,,,,,,,,,,,,,,,,,,,,,,,,,,,,,,,,,,,,,,,,,,,,,,,,,,,,,,,,,,,,,,,,,,,,,,,,,,,,,,,,,,,,,,
0,75,75,68,1,,5dee3c313ccb8a4cbe050a84,62bbfb43a391ce9d357778e2,2022-06-29_10h12.15.957,Colour_Asymmetry_Pilot,2022.1.3,Win32,59.95203837,62bbe60bf3d75ef465d3e404,,,,,,,,,,,,,,,,,,,,,,,,,,,,,,,,,,,,,,,,,,,,,,,,,,,,,,,,,,,,,,,,,,,,,,,,,,,,,,,,,,,,,,,,,,,,,,,,,,,,,,,,,,,,,,,,,,,,,,,,,,,,,,,,,,,,,,,,,,,,,,,,,,,,,,,,,,,,,,
0,76,76,58,1,,5dee3c313ccb8a4cbe050a84,62bbfb43a391ce9d357778e2,2022-06-29_10h12.15.957,Colour_Asymmetry_Pilot,2022.1.3,Win32,59.95203837,62bbe60bf3d75ef465d3e404,,,,,,,,,,,,,,,,,,,,,,,,,,,,,,,,,,,,,,,,,,,,,,,,,,,,,,,,,,,,,,,,,,,,,,,,,,,,,,,,,,,,,,,,,,,,,,,,,,,,,,,,,,,,,,,,,,,,,,,,,,,,,,,,,,,,,,,,,,,,,,,,,,,,,,,,,,,,,,
0,77,77,31,1,,5dee3c313ccb8a4cbe050a84,62bbfb43a391ce9d357778e2,2022-06-29_10h12.15.957,Colour_Asymmetry_Pilot,2022.1.3,Win32,59.95203837,62bbe60bf3d75ef465d3e404,,,,,,,,,,,,,,,,,,,,,,,,,,,,,,,,,,,,,,,,,,,,,,,,,,,,,,,,,,,,,,,,,,,,,,,,,,,,,,,,,,,,,,,,,,,,,,,,,,,,,,,,,,,,,,,,,,,,,,,,,,,,,,,,,,,,,,,,,,,,,,,,,,,,,,,,,,,,,,
0,78,78,20,1,,5dee3c313ccb8a4cbe050a84,62bbfb43a391ce9d357778e2,2022-06-29_10h12.15.957,Colour_Asymmetry_Pilot,2022.1.3,Win32,59.95203837,62bbe60bf3d75ef465d3e404,,,,,,,,,,,,,,,,,,,,,,,,,,,,,,,,,,,,,,,,,,,,,,,,,,,,,,,,,,,,,,,,,,,,,,,,,,,,,,,,,,,,,,,,,,,,,,,,,,,,,,,,,,,,,,,,,,,,,,,,,,,,,,,,,,,,,,,,,,,,,,,,,,,,,,,,,,,,,,
0,79,79,41,1,,5dee3c313ccb8a4cbe050a84,62bbfb43a391ce9d357778e2,2022-06-29_10h12.15.957,Colour_Asymmetry_Pilot,2022.1.3,Win32,59.95203837,62bbe60bf3d75ef465d3e404,,,,,,,,,,,,,,,,,,,,,,,,,,,,,,,,,,,,,,,,,,,,,,,,,,,,,,,,,,,,,,,,,,,,,,,,,,,,,,,,,,,,,,,,,,,,,,,,,,,,,,,,,,,,,,,,,,,,,,,,,,,,,,,,,,,,,,,,,,,,,,,,,,,,,,,,,,,,,,
0,80,80,14,1,,5dee3c313ccb8a4cbe050a84,62bbfb43a391ce9d357778e2,2022-06-29_10h12.15.957,Colour_Asymmetry_Pilot,2022.1.3,Win32,59.95203837,62bbe60bf3d75ef465d3e404,,,,,,,,,,,,,,,,,,,,,,,,,,,,,,,,,,,,,,,,,,,,,,,,,,,,,,,,,,,,,,,,,,,,,,,,,,,,,,,,,,,,,,,,,,,,,,,,,,,,,,,,,,,,,,,,,,,,,,,,,,,,,,,,,,,,,,,,,,,,,,,,,,,,,,,,,,,,,,
0,81,81,21,1,,5dee3c313ccb8a4cbe050a84,62bbfb43a391ce9d357778e2,2022-06-29_10h12.15.957,Colour_Asymmetry_Pilot,2022.1.3,Win32,59.95203837,62bbe60bf3d75ef465d3e404,,,,,,,,,,,,,,,,,,,,,,,,,,,,,,,,,,,,,,,,,,,,,,,,,,,,,,,,,,,,,,,,,,,,,,,,,,,,,,,,,,,,,,,,,,,,,,,,,,,,,,,,,,,,,,,,,,,,,,,,,,,,,,,,,,,,,,,,,,,,,,,,,,,,,,,,,,,,,,
0,82,82,27,1,,5dee3c313ccb8a4cbe050a84,62bbfb43a391ce9d357778e2,2022-06-29_10h12.15.957,Colour_Asymmetry_Pilot,2022.1.3,Win32,59.95203837,62bbe60bf3d75ef465d3e404,,,,,,,,,,,,,,,,,,,,,,,,,,,,,,,,,,,,,,,,,,,,,,,,,,,,,,,,,,,,,,,,,,,,,,,,,,,,,,,,,,,,,,,,,,,,,,,,,,,,,,,,,,,,,,,,,,,,,,,,,,,,,,,,,,,,,,,,,,,,,,,,,,,,,,,,,,,,,,
0,83,83,18,1,,5dee3c313ccb8a4cbe050a84,62bbfb43a391ce9d357778e2,2022-06-29_10h12.15.957,Colour_Asymmetry_Pilot,2022.1.3,Win32,59.95203837,62bbe60bf3d75ef465d3e404,,,,,,,,,,,,,,,,,,,,,,,,,,,,,,,,,,,,,,,,,,,,,,,,,,,,,,,,,,,,,,,,,,,,,,,,,,,,,,,,,,,,,,,,,,,,,,,,,,,,,,,,,,,,,,,,,,,,,,,,,,,,,,,,,,,,,,,,,,,,,,,,,,,,,,,,,,,,,,
0,84,84,89,1,,5dee3c313ccb8a4cbe050a84,62bbfb43a391ce9d357778e2,2022-06-29_10h12.15.957,Colour_Asymmetry_Pilot,2022.1.3,Win32,59.95203837,62bbe60bf3d75ef465d3e404,,,,,,,,,,,,,,,,,,,,,,,,,,,,,,,,,,,,,,,,,,,,,,,,,,,,,,,,,,,,,,,,,,,,,,,,,,,,,,,,,,,,,,,,,,,,,,,,,,,,,,,,,,,,,,,,,,,,,,,,,,,,,,,,,,,,,,,,,,,,,,,,,,,,,,,,,,,,,,
0,85,85,70,1,,5dee3c313ccb8a4cbe050a84,62bbfb43a391ce9d357778e2,2022-06-29_10h12.15.957,Colour_Asymmetry_Pilot,2022.1.3,Win32,59.95203837,62bbe60bf3d75ef465d3e404,,,,,,,,,,,,,,,,,,,,,,,,,,,,,,,,,,,,,,,,,,,,,,,,,,,,,,,,,,,,,,,,,,,,,,,,,,,,,,,,,,,,,,,,,,,,,,,,,,,,,,,,,,,,,,,,,,,,,,,,,,,,,,,,,,,,,,,,,,,,,,,,,,,,,,,,,,,,,,
0,86,86,49,1,,5dee3c313ccb8a4cbe050a84,62bbfb43a391ce9d357778e2,2022-06-29_10h12.15.957,Colour_Asymmetry_Pilot,2022.1.3,Win32,59.95203837,62bbe60bf3d75ef465d3e404,,,,,,,,,,,,,,,,,,,,,,,,,,,,,,,,,,,,,,,,,,,,,,,,,,,,,,,,,,,,,,,,,,,,,,,,,,,,,,,,,,,,,,,,,,,,,,,,,,,,,,,,,,,,,,,,,,,,,,,,,,,,,,,,,,,,,,,,,,,,,,,,,,,,,,,,,,,,,,
0,87,87,69,1,,5dee3c313ccb8a4cbe050a84,62bbfb43a391ce9d357778e2,2022-06-29_10h12.15.957,Colour_Asymmetry_Pilot,2022.1.3,Win32,59.95203837,62bbe60bf3d75ef465d3e404,,,,,,,,,,,,,,,,,,,,,,,,,,,,,,,,,,,,,,,,,,,,,,,,,,,,,,,,,,,,,,,,,,,,,,,,,,,,,,,,,,,,,,,,,,,,,,,,,,,,,,,,,,,,,,,,,,,,,,,,,,,,,,,,,,,,,,,,,,,,,,,,,,,,,,,,,,,,,,
0,88,88,83,1,,5dee3c313ccb8a4cbe050a84,62bbfb43a391ce9d357778e2,2022-06-29_10h12.15.957,Colour_Asymmetry_Pilot,2022.1.3,Win32,59.95203837,62bbe60bf3d75ef465d3e404,,,,,,,,,,,,,,,,,,,,,,,,,,,,,,,,,,,,,,,,,,,,,,,,,,,,,,,,,,,,,,,,,,,,,,,,,,,,,,,,,,,,,,,,,,,,,,,,,,,,,,,,,,,,,,,,,,,,,,,,,,,,,,,,,,,,,,,,,,,,,,,,,,,,,,,,,,,,,,
0,89,89,45,1,,5dee3c313ccb8a4cbe050a84,62bbfb43a391ce9d357778e2,2022-06-29_10h12.15.957,Colour_Asymmetry_Pilot,2022.1.3,Win32,59.95203837,62bbe60bf3d75ef465d3e404,,,,,,,,,,,,,,,,,,,,,,,,,,,,,,,,,,,,,,,,,,,,,,,,,,,,,,,,,,,,,,,,,,,,,,,,,,,,,,,,,,,,,,,,,,,,,,,,,,,,,,,,,,,,,,,,,,,,,,,,,,,,,,,,,,,,,,,,,,,,,,,,,,,,,,,,,,,,,,
0,90,90,77,1,,5dee3c313ccb8a4cbe050a84,62bbfb43a391ce9d357778e2,2022-06-29_10h12.15.957,Colour_Asymmetry_Pilot,2022.1.3,Win32,59.95203837,62bbe60bf3d75ef465d3e404,,,,,,,,,,,,,,,,,,,,,,,,,,,,,,,,,,,,,,,,,,,,,,,,,,,,,,,,,,,,,,,,,,,,,,,,,,,,,,,,,,,,,,,,,,,,,,,,,,,,,,,,,,,,,,,,,,,,,,,,,,,,,,,,,,,,,,,,,,,,,,,,,,,,,,,,,,,,,,
0,91,91,54,1,,5dee3c313ccb8a4cbe050a84,62bbfb43a391ce9d357778e2,2022-06-29_10h12.15.957,Colour_Asymmetry_Pilot,2022.1.3,Win32,59.95203837,62bbe60bf3d75ef465d3e404,,,,,,,,,,,,,,,,,,,,,,,,,,,,,,,,,,,,,,,,,,,,,,,,,,,,,,,,,,,,,,,,,,,,,,,,,,,,,,,,,,,,,,,,,,,,,,,,,,,,,,,,,,,,,,,,,,,,,,,,,,,,,,,,,,,,,,,,,,,,,,,,,,,,,,,,,,,,,,
0,92,92,42,1,,5dee3c313ccb8a4cbe050a84,62bbfb43a391ce9d357778e2,2022-06-29_10h12.15.957,Colour_Asymmetry_Pilot,2022.1.3,Win32,59.95203837,62bbe60bf3d75ef465d3e404,,,,,,,,,,,,,,,,,,,,,,,,,,,,,,,,,,,,,,,,,,,,,,,,,,,,,,,,,,,,,,,,,,,,,,,,,,,,,,,,,,,,,,,,,,,,,,,,,,,,,,,,,,,,,,,,,,,,,,,,,,,,,,,,,,,,,,,,,,,,,,,,,,,,,,,,,,,,,,
,,,,,,5dee3c313ccb8a4cbe050a84,62bbfb43a391ce9d357778e2,2022-06-29_10h12.15.957,Colour_Asymmetry_Pilot,2022.1.3,Win32,59.95203837,62bbe60bf3d75ef465d3e404,0,0,0,128,1,onetwo,,,,,,,,,,,,,,,,,,,,,,,,,,,,,,,,,,,,,,,,,,,,,,,,,,,,,,,,,,,,,,,,,,,,,,,,,,,,,,,,,,,,,,,,,,,,,,,,,,,,,,,,,,,,,,,,,,,,,,,,,,,,,,,,,,,,,,,,,,,,,,,,,,,,,,,,
,,,,,,5dee3c313ccb8a4cbe050a84,62bbfb43a391ce9d357778e2,2022-06-29_10h12.15.957,Colour_Asymmetry_Pilot,2022.1.3,Win32,59.95203837,62bbe60bf3d75ef465d3e404,0,1,1,15,1,fourthree,,,,,,,,,,,,,,,,,,,,,,,,,,,,,,,,,,,,,,,,,,,,,,,,,,,,,,,,,,,,,,,,,,,,,,,,,,,,,,,,,,,,,,,,,,,,,,,,,,,,,,,,,,,,,,,,,,,,,,,,,,,,,,,,,,,,,,,,,,,,,,,,,,,,,,,,
,,,,,,5dee3c313ccb8a4cbe050a84,62bbfb43a391ce9d357778e2,2022-06-29_10h12.15.957,Colour_Asymmetry_Pilot,2022.1.3,Win32,59.95203837,62bbe60bf3d75ef465d3e404,0,2,2,7,1,fourthree,,,,,,,,,,,,,,,,,,,,,,,,,,,,,,,,,,,,,,,,,,,,,,,,,,,,,,,,,,,,,,,,,,,,,,,,,,,,,,,,,,,,,,,,,,,,,,,,,,,,,,,,,,,,,,,,,,,,,,,,,,,,,,,,,,,,,,,,,,,,,,,,,,,,,,,,
,,,,,,5dee3c313ccb8a4cbe050a84,62bbfb43a391ce9d357778e2,2022-06-29_10h12.15.957,Colour_Asymmetry_Pilot,2022.1.3,Win32,59.95203837,62bbe60bf3d75ef465d3e404,0,3,3,9,1,onethree,,,,,,,,,,,,,,,,,,,,,,,,,,,,,,,,,,,,,,,,,,,,,,,,,,,,,,,,,,,,,,,,,,,,,,,,,,,,,,,,,,,,,,,,,,,,,,,,,,,,,,,,,,,,,,,,,,,,,,,,,,,,,,,,,,,,,,,,,,,,,,,,,,,,,,,,
,,,,,,5dee3c313ccb8a4cbe050a84,62bbfb43a391ce9d357778e2,2022-06-29_10h12.15.957,Colour_Asymmetry_Pilot,2022.1.3,Win32,59.95203837,62bbe60bf3d75ef465d3e404,0,4,4,81,1,onethree,,,,,,,,,,,,,,,,,,,,,,,,,,,,,,,,,,,,,,,,,,,,,,,,,,,,,,,,,,,,,,,,,,,,,,,,,,,,,,,,,,,,,,,,,,,,,,,,,,,,,,,,,,,,,,,,,,,,,,,,,,,,,,,,,,,,,,,,,,,,,,,,,,,,,,,,
,,,,,,5dee3c313ccb8a4cbe050a84,62bbfb43a391ce9d357778e2,2022-06-29_10h12.15.957,Colour_Asymmetry_Pilot,2022.1.3,Win32,59.95203837,62bbe60bf3d75ef465d3e404,0,5,5,50,1,twoone,,,,,,,,,,,,,,,,,,,,,,,,,,,,,,,,,,,,,,,,,,,,,,,,,,,,,,,,,,,,,,,,,,,,,,,,,,,,,,,,,,,,,,,,,,,,,,,,,,,,,,,,,,,,,,,,,,,,,,,,,,,,,,,,,,,,,,,,,,,,,,,,,,,,,,,,
,,,,,,5dee3c313ccb8a4cbe050a84,62bbfb43a391ce9d357778e2,2022-06-29_10h12.15.957,Colour_Asymmetry_Pilot,2022.1.3,Win32,59.95203837,62bbe60bf3d75ef465d3e404,0,6,6,70,1,fourtwo,,,,,,,,,,,,,,,,,,,,,,,,,,,,,,,,,,,,,,,,,,,,,,,,,,,,,,,,,,,,,,,,,,,,,,,,,,,,,,,,,,,,,,,,,,,,,,,,,,,,,,,,,,,,,,,,,,,,,,,,,,,,,,,,,,,,,,,,,,,,,,,,,,,,,,,,
,,,,,,5dee3c313ccb8a4cbe050a84,62bbfb43a391ce9d357778e2,2022-06-29_10h12.15.957,Colour_Asymmetry_Pilot,2022.1.3,Win32,59.95203837,62bbe60bf3d75ef465d3e404,0,7,7,74,1,twoone,,,,,,,,,,,,,,,,,,,,,,,,,,,,,,,,,,,,,,,,,,,,,,,,,,,,,,,,,,,,,,,,,,,,,,,,,,,,,,,,,,,,,,,,,,,,,,,,,,,,,,,,,,,,,,,,,,,,,,,,,,,,,,,,,,,,,,,,,,,,,,,,,,,,,,,,
,,,,,,5dee3c313ccb8a4cbe050a84,62bbfb43a391ce9d357778e2,2022-06-29_10h12.15.957,Colour_Asymmetry_Pilot,2022.1.3,Win32,59.95203837,62bbe60bf3d75ef465d3e404,0,8,8,87,1,fourthree,,,,,,,,,,,,,,,,,,,,,,,,,,,,,,,,,,,,,,,,,,,,,,,,,,,,,,,,,,,,,,,,,,,,,,,,,,,,,,,,,,,,,,,,,,,,,,,,,,,,,,,,,,,,,,,,,,,,,,,,,,,,,,,,,,,,,,,,,,,,,,,,,,,,,,,,
,,,,,,5dee3c313ccb8a4cbe050a84,62bbfb43a391ce9d357778e2,2022-06-29_10h12.15.957,Colour_Asymmetry_Pilot,2022.1.3,Win32,59.95203837,62bbe60bf3d75ef465d3e404,0,9,9,129,1,onethree,,,,,,,,,,,,,,,,,,,,,,,,,,,,,,,,,,,,,,,,,,,,,,,,,,,,,,,,,,,,,,,,,,,,,,,,,,,,,,,,,,,,,,,,,,,,,,,,,,,,,,,,,,,,,,,,,,,,,,,,,,,,,,,,,,,,,,,,,,,,,,,,,,,,,,,,
,,,,,,5dee3c313ccb8a4cbe050a84,62bbfb43a391ce9d357778e2,2022-06-29_10h12.15.957,Colour_Asymmetry_Pilot,2022.1.3,Win32,59.95203837,62bbe60bf3d75ef465d3e404,0,10,10,38,1,fourtwo,,,,,,,,,,,,,,,,,,,,,,,,,,,,,,,,,,,,,,,,,,,,,,,,,,,,,,,,,,,,,,,,,,,,,,,,,,,,,,,,,,,,,,,,,,,,,,,,,,,,,,,,,,,,,,,,,,,,,,,,,,,,,,,,,,,,,,,,,,,,,,,,,,,,,,,,
,,,,,,5dee3c313ccb8a4cbe050a84,62bbfb43a391ce9d357778e2,2022-06-29_10h12.15.957,Colour_Asymmetry_Pilot,2022.1.3,Win32,59.95203837,62bbe60bf3d75ef465d3e404,0,11,11,45,1,threefour,,,,,,,,,,,,,,,,,,,,,,,,,,,,,,,,,,,,,,,,,,,,,,,,,,,,,,,,,,,,,,,,,,,,,,,,,,,,,,,,,,,,,,,,,,,,,,,,,,,,,,,,,,,,,,,,,,,,,,,,,,,,,,,,,,,,,,,,,,,,,,,,,,,,,,,,
,,,,,,5dee3c313ccb8a4cbe050a84,62bbfb43a391ce9d357778e2,2022-06-29_10h12.15.957,Colour_Asymmetry_Pilot,2022.1.3,Win32,59.95203837,62bbe60bf3d75ef465d3e404,0,12,12,22,1,fourtwo,,,,,,,,,,,,,,,,,,,,,,,,,,,,,,,,,,,,,,,,,,,,,,,,,,,,,,,,,,,,,,,,,,,,,,,,,,,,,,,,,,,,,,,,,,,,,,,,,,,,,,,,,,,,,,,,,,,,,,,,,,,,,,,,,,,,,,,,,,,,,,,,,,,,,,,,
,,,,,,5dee3c313ccb8a4cbe050a84,62bbfb43a391ce9d357778e2,2022-06-29_10h12.15.957,Colour_Asymmetry_Pilot,2022.1.3,Win32,59.95203837,62bbe60bf3d75ef465d3e404,0,13,13,41,1,onethree,,,,,,,,,,,,,,,,,,,,,,,,,,,,,,,,,,,,,,,,,,,,,,,,,,,,,,,,,,,,,,,,,,,,,,,,,,,,,,,,,,,,,,,,,,,,,,,,,,,,,,,,,,,,,,,,,,,,,,,,,,,,,,,,,,,,,,,,,,,,,,,,,,,,,,,,
,,,,,,5dee3c313ccb8a4cbe050a84,62bbfb43a391ce9d357778e2,2022-06-29_10h12.15.957,Colour_Asymmetry_Pilot,2022.1.3,Win32,59.95203837,62bbe60bf3d75ef465d3e404,0,14,14,138,1,twoone,,,,,,,,,,,,,,,,,,,,,,,,,,,,,,,,,,,,,,,,,,,,,,,,,,,,,,,,,,,,,,,,,,,,,,,,,,,,,,,,,,,,,,,,,,,,,,,,,,,,,,,,,,,,,,,,,,,,,,,,,,,,,,,,,,,,,,,,,,,,,,,,,,,,,,,,
,,,,,,5dee3c313ccb8a4cbe050a84,62bbfb43a391ce9d357778e2,2022-06-29_10h12.15.957,Colour_Asymmetry_Pilot,2022.1.3,Win32,59.95203837,62bbe60bf3d75ef465d3e404,0,15,15,5,1,threefour,,,,,,,,,,,,,,,,,,,,,,,,,,,,,,,,,,,,,,,,,,,,,,,,,,,,,,,,,,,,,,,,,,,,,,,,,,,,,,,,,,,,,,,,,,,,,,,,,,,,,,,,,,,,,,,,,,,,,,,,,,,,,,,,,,,,,,,,,,,,,,,,,,,,,,,,
,,,,,,5dee3c313ccb8a4cbe050a84,62bbfb43a391ce9d357778e2,2022-06-29_10h12.15.957,Colour_Asymmetry_Pilot,2022.1.3,Win32,59.95203837,62bbe60bf3d75ef465d3e404,0,16,16,29,1,threefour,,,,,,,,,,,,,,,,,,,,,,,,,,,,,,,,,,,,,,,,,,,,,,,,,,,,,,,,,,,,,,,,,,,,,,,,,,,,,,,,,,,,,,,,,,,,,,,,,,,,,,,,,,,,,,,,,,,,,,,,,,,,,,,,,,,,,,,,,,,,,,,,,,,,,,,,
,,,,,,5dee3c313ccb8a4cbe050a84,62bbfb43a391ce9d357778e2,2022-06-29_10h12.15.957,Colour_Asymmetry_Pilot,2022.1.3,Win32,59.95203837,62bbe60bf3d75ef465d3e404,0,17,17,142,1,fourtwo,,,,,,,,,,,,,,,,,,,,,,,,,,,,,,,,,,,,,,,,,,,,,,,,,,,,,,,,,,,,,,,,,,,,,,,,,,,,,,,,,,,,,,,,,,,,,,,,,,,,,,,,,,,,,,,,,,,,,,,,,,,,,,,,,,,,,,,,,,,,,,,,,,,,,,,,
,,,,,,5dee3c313ccb8a4cbe050a84,62bbfb43a391ce9d357778e2,2022-06-29_10h12.15.957,Colour_Asymmetry_Pilot,2022.1.3,Win32,59.95203837,62bbe60bf3d75ef465d3e404,0,18,18,97,1,onethree,,,,,,,,,,,,,,,,,,,,,,,,,,,,,,,,,,,,,,,,,,,,,,,,,,,,,,,,,,,,,,,,,,,,,,,,,,,,,,,,,,,,,,,,,,,,,,,,,,,,,,,,,,,,,,,,,,,,,,,,,,,,,,,,,,,,,,,,,,,,,,,,,,,,,,,,
,,,,,,5dee3c313ccb8a4cbe050a84,62bbfb43a391ce9d357778e2,2022-06-29_10h12.15.957,Colour_Asymmetry_Pilot,2022.1.3,Win32,59.95203837,62bbe60bf3d75ef465d3e404,0,19,19,49,1,onethree,,,,,,,,,,,,,,,,,,,,,,,,,,,,,,,,,,,,,,,,,,,,,,,,,,,,,,,,,,,,,,,,,,,,,,,,,,,,,,,,,,,,,,,,,,,,,,,,,,,,,,,,,,,,,,,,,,,,,,,,,,,,,,,,,,,,,,,,,,,,,,,,,,,,,,,,
,,,,,,5dee3c313ccb8a4cbe050a84,62bbfb43a391ce9d357778e2,2022-06-29_10h12.15.957,Colour_Asymmetry_Pilot,2022.1.3,Win32,59.95203837,62bbe60bf3d75ef465d3e404,0,20,20,57,1,onethree,,,,,,,,,,,,,,,,,,,,,,,,,,,,,,,,,,,,,,,,,,,,,,,,,,,,,,,,,,,,,,,,,,,,,,,,,,,,,,,,,,,,,,,,,,,,,,,,,,,,,,,,,,,,,,,,,,,,,,,,,,,,,,,,,,,,,,,,,,,,,,,,,,,,,,,,
,,,,,,5dee3c313ccb8a4cbe050a84,62bbfb43a391ce9d357778e2,2022-06-29_10h12.15.957,Colour_Asymmetry_Pilot,2022.1.3,Win32,59.95203837,62bbe60bf3d75ef465d3e404,0,21,21,133,1,threefour,,,,,,,,,,,,,,,,,,,,,,,,,,,,,,,,,,,,,,,,,,,,,,,,,,,,,,,,,,,,,,,,,,,,,,,,,,,,,,,,,,,,,,,,,,,,,,,,,,,,,,,,,,,,,,,,,,,,,,,,,,,,,,,,,,,,,,,,,,,,,,,,,,,,,,,,
,,,,,,5dee3c313ccb8a4cbe050a84,62bbfb43a391ce9d357778e2,2022-06-29_10h12.15.957,Colour_Asymmetry_Pilot,2022.1.3,Win32,59.95203837,62bbe60bf3d75ef465d3e404,0,22,22,110,1,fourtwo,,,,,,,,,,,,,,,,,,,,,,,,,,,,,,,,,,,,,,,,,,,,,,,,,,,,,,,,,,,,,,,,,,,,,,,,,,,,,,,,,,,,,,,,,,,,,,,,,,,,,,,,,,,,,,,,,,,,,,,,,,,,,,,,,,,,,,,,,,,,,,,,,,,,,,,,
,,,,,,5dee3c313ccb8a4cbe050a84,62bbfb43a391ce9d357778e2,2022-06-29_10h12.15.957,Colour_Asymmetry_Pilot,2022.1.3,Win32,59.95203837,62bbe60bf3d75ef465d3e404,0,23,23,116,1,threeone,,,,,,,,,,,,,,,,,,,,,,,,,,,,,,,,,,,,,,,,,,,,,,,,,,,,,,,,,,,,,,,,,,,,,,,,,,,,,,,,,,,,,,,,,,,,,,,,,,,,,,,,,,,,,,,,,,,,,,,,,,,,,,,,,,,,,,,,,,,,,,,,,,,,,,,,
,,,,,,5dee3c313ccb8a4cbe050a84,62bbfb43a391ce9d357778e2,2022-06-29_10h12.15.957,Colour_Asymmetry_Pilot,2022.1.3,Win32,59.95203837,62bbe60bf3d75ef465d3e404,0,24,24,78,1,fourtwo,,,,,,,,,,,,,,,,,,,,,,,,,,,,,,,,,,,,,,,,,,,,,,,,,,,,,,,,,,,,,,,,,,,,,,,,,,,,,,,,,,,,,,,,,,,,,,,,,,,,,,,,,,,,,,,,,,,,,,,,,,,,,,,,,,,,,,,,,,,,,,,,,,,,,,,,
,,,,,,5dee3c313ccb8a4cbe050a84,62bbfb43a391ce9d357778e2,2022-06-29_10h12.15.957,Colour_Asymmetry_Pilot,2022.1.3,Win32,59.95203837,62bbe60bf3d75ef465d3e404,0,25,25,53,1,threefour,,,,,,,,,,,,,,,,,,,,,,,,,,,,,,,,,,,,,,,,,,,,,,,,,,,,,,,,,,,,,,,,,,,,,,,,,,,,,,,,,,,,,,,,,,,,,,,,,,,,,,,,,,,,,,,,,,,,,,,,,,,,,,,,,,,,,,,,,,,,,,,,,,,,,,,,
,,,,,,5dee3c313ccb8a4cbe050a84,62bbfb43a391ce9d357778e2,2022-06-29_10h12.15.957,Colour_Asymmetry_Pilot,2022.1.3,Win32,59.95203837,62bbe60bf3d75ef465d3e404,0,26,26,18,1,twoone,,,,,,,,,,,,,,,,,,,,,,,,,,,,,,,,,,,,,,,,,,,,,,,,,,,,,,,,,,,,,,,,,,,,,,,,,,,,,,,,,,,,,,,,,,,,,,,,,,,,,,,,,,,,,,,,,,,,,,,,,,,,,,,,,,,,,,,,,,,,,,,,,,,,,,,,
,,,,,,5dee3c313ccb8a4cbe050a84,62bbfb43a391ce9d357778e2,2022-06-29_10h12.15.957,Colour_Asymmetry_Pilot,2022.1.3,Win32,59.95203837,62bbe60bf3d75ef465d3e404,0,27,27,113,1,onethree,,,,,,,,,,,,,,,,,,,,,,,,,,,,,,,,,,,,,,,,,,,,,,,,,,,,,,,,,,,,,,,,,,,,,,,,,,,,,,,,,,,,,,,,,,,,,,,,,,,,,,,,,,,,,,,,,,,,,,,,,,,,,,,,,,,,,,,,,,,,,,,,,,,,,,,,
,,,,,,5dee3c313ccb8a4cbe050a84,62bbfb43a391ce9d357778e2,2022-06-29_10h12.15.957,Colour_Asymmetry_Pilot,2022.1.3,Win32,59.95203837,62bbe60bf3d75ef465d3e404,0,28,28,61,1,threefour,,,,,,,,,,,,,,,,,,,,,,,,,,,,,,,,,,,,,,,,,,,,,,,,,,,,,,,,,,,,,,,,,,,,,,,,,,,,,,,,,,,,,,,,,,,,,,,,,,,,,,,,,,,,,,,,,,,,,,,,,,,,,,,,,,,,,,,,,,,,,,,,,,,,,,,,
,,,,,,5dee3c313ccb8a4cbe050a84,62bbfb43a391ce9d357778e2,2022-06-29_10h12.15.957,Colour_Asymmetry_Pilot,2022.1.3,Win32,59.95203837,62bbe60bf3d75ef465d3e404,0,29,29,1,1,onethree,,,,,,,,,,,,,,,,,,,,,,,,,,,,,,,,,,,,,,,,,,,,,,,,,,,,,,,,,,,,,,,,,,,,,,,,,,,,,,,,,,,,,,,,,,,,,,,,,,,,,,,,,,,,,,,,,,,,,,,,,,,,,,,,,,,,,,,,,,,,,,,,,,,,,,,,
,,,,,,5dee3c313ccb8a4cbe050a84,62bbfb43a391ce9d357778e2,2022-06-29_10h12.15.957,Colour_Asymmetry_Pilot,2022.1.3,Win32,59.95203837,62bbe60bf3d75ef465d3e404,0,30,30,109,1,threefour,,,,,,,,,,,,,,,,,,,,,,,,,,,,,,,,,,,,,,,,,,,,,,,,,,,,,,,,,,,,,,,,,,,,,,,,,,,,,,,,,,,,,,,,,,,,,,,,,,,,,,,,,,,,,,,,,,,,,,,,,,,,,,,,,,,,,,,,,,,,,,,,,,,,,,,,
,,,,,,5dee3c313ccb8a4cbe050a84,62bbfb43a391ce9d357778e2,2022-06-29_10h12.15.957,Colour_Asymmetry_Pilot,2022.1.3,Win32,59.95203837,62bbe60bf3d75ef465d3e404,0,31,31,90,1,twoone,,,,,,,,,,,,,,,,,,,,,,,,,,,,,,,,,,,,,,,,,,,,,,,,,,,,,,,,,,,,,,,,,,,,,,,,,,,,,,,,,,,,,,,,,,,,,,,,,,,,,,,,,,,,,,,,,,,,,,,,,,,,,,,,,,,,,,,,,,,,,,,,,,,,,,,,
,,,,,,5dee3c313ccb8a4cbe050a84,62bbfb43a391ce9d357778e2,2022-06-29_10h12.15.957,Colour_Asymmetry_Pilot,2022.1.3,Win32,59.95203837,62bbe60bf3d75ef465d3e404,0,32,32,27,1,twofour,,,,,,,,,,,,,,,,,,,,,,,,,,,,,,,,,,,,,,,,,,,,,,,,,,,,,,,,,,,,,,,,,,,,,,,,,,,,,,,,,,,,,,,,,,,,,,,,,,,,,,,,,,,,,,,,,,,,,,,,,,,,,,,,,,,,,,,,,,,,,,,,,,,,,,,,
,,,,,,5dee3c313ccb8a4cbe050a84,62bbfb43a391ce9d357778e2,2022-06-29_10h12.15.957,Colour_Asymmetry_Pilot,2022.1.3,Win32,59.95203837,62bbe60bf3d75ef465d3e404,0,33,33,56,1,onetwo,,,,,,,,,,,,,,,,,,,,,,,,,,,,,,,,,,,,,,,,,,,,,,,,,,,,,,,,,,,,,,,,,,,,,,,,,,,,,,,,,,,,,,,,,,,,,,,,,,,,,,,,,,,,,,,,,,,,,,,,,,,,,,,,,,,,,,,,,,,,,,,,,,,,,,,,
,,,,,,5dee3c313ccb8a4cbe050a84,62bbfb43a391ce9d357778e2,2022-06-29_10h12.15.957,Colour_Asymmetry_Pilot,2022.1.3,Win32,59.95203837,62bbe60bf3d75ef465d3e404,0,34,34,89,1,onethree,,,,,,,,,,,,,,,,,,,,,,,,,,,,,,,,,,,,,,,,,,,,,,,,,,,,,,,,,,,,,,,,,,,,,,,,,,,,,,,,,,,,,,,,,,,,,,,,,,,,,,,,,,,,,,,,,,,,,,,,,,,,,,,,,,,,,,,,,,,,,,,,,,,,,,,,
,,,,,,5dee3c313ccb8a4cbe050a84,62bbfb43a391ce9d357778e2,2022-06-29_10h12.15.957,Colour_Asymmetry_Pilot,2022.1.3,Win32,59.95203837,62bbe60bf3d75ef465d3e404,0,35,35,124,1,threeone,,,,,,,,,,,,,,,,,,,,,,,,,,,,,,,,,,,,,,,,,,,,,,,,,,,,,,,,,,,,,,,,,,,,,,,,,,,,,,,,,,,,,,,,,,,,,,,,,,,,,,,,,,,,,,,,,,,,,,,,,,,,,,,,,,,,,,,,,,,,,,,,,,,,,,,,
,,,,,,5dee3c313ccb8a4cbe050a84,62bbfb43a391ce9d357778e2,2022-06-29_10h12.15.957,Colour_Asymmetry_Pilot,2022.1.3,Win32,59.95203837,62bbe60bf3d75ef465d3e404,0,36,36,120,1,onetwo,,,,,,,,,,,,,,,,,,,,,,,,,,,,,,,,,,,,,,,,,,,,,,,,,,,,,,,,,,,,,,,,,,,,,,,,,,,,,,,,,,,,,,,,,,,,,,,,,,,,,,,,,,,,,,,,,,,,,,,,,,,,,,,,,,,,,,,,,,,,,,,,,,,,,,,,
,,,,,,5dee3c313ccb8a4cbe050a84,62bbfb43a391ce9d357778e2,2022-06-29_10h12.15.957,Colour_Asymmetry_Pilot,2022.1.3,Win32,59.95203837,62bbe60bf3d75ef465d3e404,0,37,37,28,1,threeone,,,,,,,,,,,,,,,,,,,,,,,,,,,,,,,,,,,,,,,,,,,,,,,,,,,,,,,,,,,,,,,,,,,,,,,,,,,,,,,,,,,,,,,,,,,,,,,,,,,,,,,,,,,,,,,,,,,,,,,,,,,,,,,,,,,,,,,,,,,,,,,,,,,,,,,,
,,,,,,5dee3c313ccb8a4cbe050a84,62bbfb43a391ce9d357778e2,2022-06-29_10h12.15.957,Colour_Asymmetry_Pilot,2022.1.3,Win32,59.95203837,62bbe60bf3d75ef465d3e404,0,38,38,148,1,threeone,,,,,,,,,,,,,,,,,,,,,,,,,,,,,,,,,,,,,,,,,,,,,,,,,,,,,,,,,,,,,,,,,,,,,,,,,,,,,,,,,,,,,,,,,,,,,,,,,,,,,,,,,,,,,,,,,,,,,,,,,,,,,,,,,,,,,,,,,,,,,,,,,,,,,,,,
,,,,,,5dee3c313ccb8a4cbe050a84,62bbfb43a391ce9d357778e2,2022-06-29_10h12.15.957,Colour_Asymmetry_Pilot,2022.1.3,Win32,59.95203837,62bbe60bf3d75ef465d3e404,0,39,39,14,1,fourtwo,,,,,,,,,,,,,,,,,,,,,,,,,,,,,,,,,,,,,,,,,,,,,,,,,,,,,,,,,,,,,,,,,,,,,,,,,,,,,,,,,,,,,,,,,,,,,,,,,,,,,,,,,,,,,,,,,,,,,,,,,,,,,,,,,,,,,,,,,,,,,,,,,,,,,,,,
,,,,,,5dee3c313ccb8a4cbe050a84,62bbfb43a391ce9d357778e2,2022-06-29_10h12.15.957,Colour_Asymmetry_Pilot,2022.1.3,Win32,59.95203837,62bbe60bf3d75ef465d3e404,0,40,40,4,1,threeone,,,,,,,,,,,,,,,,,,,,,,,,,,,,,,,,,,,,,,,,,,,,,,,,,,,,,,,,,,,,,,,,,,,,,,,,,,,,,,,,,,,,,,,,,,,,,,,,,,,,,,,,,,,,,,,,,,,,,,,,,,,,,,,,,,,,,,,,,,,,,,,,,,,,,,,,
,,,,,,5dee3c313ccb8a4cbe050a84,62bbfb43a391ce9d357778e2,2022-06-29_10h12.15.957,Colour_Asymmetry_Pilot,2022.1.3,Win32,59.95203837,62bbe60bf3d75ef465d3e404,0,41,41,141,1,threefour,,,,,,,,,,,,,,,,,,,,,,,,,,,,,,,,,,,,,,,,,,,,,,,,,,,,,,,,,,,,,,,,,,,,,,,,,,,,,,,,,,,,,,,,,,,,,,,,,,,,,,,,,,,,,,,,,,,,,,,,,,,,,,,,,,,,,,,,,,,,,,,,,,,,,,,,
,,,,,,5dee3c313ccb8a4cbe050a84,62bbfb43a391ce9d357778e2,2022-06-29_10h12.15.957,Colour_Asymmetry_Pilot,2022.1.3,Win32,59.95203837,62bbe60bf3d75ef465d3e404,0,42,42,123,1,twofour,,,,,,,,,,,,,,,,,,,,,,,,,,,,,,,,,,,,,,,,,,,,,,,,,,,,,,,,,,,,,,,,,,,,,,,,,,,,,,,,,,,,,,,,,,,,,,,,,,,,,,,,,,,,,,,,,,,,,,,,,,,,,,,,,,,,,,,,,,,,,,,,,,,,,,,,
,,,,,,5dee3c313ccb8a4cbe050a84,62bbfb43a391ce9d357778e2,2022-06-29_10h12.15.957,Colour_Asymmetry_Pilot,2022.1.3,Win32,59.95203837,62bbe60bf3d75ef465d3e404,0,43,43,30,1,fourtwo,,,,,,,,,,,,,,,,,,,,,,,,,,,,,,,,,,,,,,,,,,,,,,,,,,,,,,,,,,,,,,,,,,,,,,,,,,,,,,,,,,,,,,,,,,,,,,,,,,,,,,,,,,,,,,,,,,,,,,,,,,,,,,,,,,,,,,,,,,,,,,,,,,,,,,,,
,,,,,,5dee3c313ccb8a4cbe050a84,62bbfb43a391ce9d357778e2,2022-06-29_10h12.15.957,Colour_Asymmetry_Pilot,2022.1.3,Win32,59.95203837,62bbe60bf3d75ef465d3e404,0,44,44,68,1,threeone,,,,,,,,,,,,,,,,,,,,,,,,,,,,,,,,,,,,,,,,,,,,,,,,,,,,,,,,,,,,,,,,,,,,,,,,,,,,,,,,,,,,,,,,,,,,,,,,,,,,,,,,,,,,,,,,,,,,,,,,,,,,,,,,,,,,,,,,,,,,,,,,,,,,,,,,
,,,,,,5dee3c313ccb8a4cbe050a84,62bbfb43a391ce9d357778e2,2022-06-29_10h12.15.957,Colour_Asymmetry_Pilot,2022.1.3,Win32,59.95203837,62bbe60bf3d75ef465d3e404,0,45,45,117,1,threefour,,,,,,,,,,,,,,,,,,,,,,,,,,,,,,,,,,,,,,,,,,,,,,,,,,,,,,,,,,,,,,,,,,,,,,,,,,,,,,,,,,,,,,,,,,,,,,,,,,,,,,,,,,,,,,,,,,,,,,,,,,,,,,,,,,,,,,,,,,,,,,,,,,,,,,,,
,,,,,,5dee3c313ccb8a4cbe050a84,62bbfb43a391ce9d357778e2,2022-06-29_10h12.15.957,Colour_Asymmetry_Pilot,2022.1.3,Win32,59.95203837,62bbe60bf3d75ef465d3e404,0,46,46,108,1,threeone,,,,,,,,,,,,,,,,,,,,,,,,,,,,,,,,,,,,,,,,,,,,,,,,,,,,,,,,,,,,,,,,,,,,,,,,,,,,,,,,,,,,,,,,,,,,,,,,,,,,,,,,,,,,,,,,,,,,,,,,,,,,,,,,,,,,,,,,,,,,,,,,,,,,,,,,
,,,,,,5dee3c313ccb8a4cbe050a84,62bbfb43a391ce9d357778e2,2022-06-29_10h12.15.957,Colour_Asymmetry_Pilot,2022.1.3,Win32,59.95203837,62bbe60bf3d75ef465d3e404,0,47,47,11,1,twofour,,,,,,,,,,,,,,,,,,,,,,,,,,,,,,,,,,,,,,,,,,,,,,,,,,,,,,,,,,,,,,,,,,,,,,,,,,,,,,,,,,,,,,,,,,,,,,,,,,,,,,,,,,,,,,,,,,,,,,,,,,,,,,,,,,,,,,,,,,,,,,,,,,,,,,,,
,,,,,,5dee3c313ccb8a4cbe050a84,62bbfb43a391ce9d357778e2,2022-06-29_10h12.15.957,Colour_Asymmetry_Pilot,2022.1.3,Win32,59.95203837,62bbe60bf3d75ef465d3e404,0,48,48,37,1,threefour,,,,,,,,,,,,,,,,,,,,,,,,,,,,,,,,,,,,,,,,,,,,,,,,,,,,,,,,,,,,,,,,,,,,,,,,,,,,,,,,,,,,,,,,,,,,,,,,,,,,,,,,,,,,,,,,,,,,,,,,,,,,,,,,,,,,,,,,,,,,,,,,,,,,,,,,
,,,,,,5dee3c313ccb8a4cbe050a84,62bbfb43a391ce9d357778e2,2022-06-29_10h12.15.957,Colour_Asymmetry_Pilot,2022.1.3,Win32,59.95203837,62bbe60bf3d75ef465d3e404,0,49,49,100,1,threeone,,,,,,,,,,,,,,,,,,,,,,,,,,,,,,,,,,,,,,,,,,,,,,,,,,,,,,,,,,,,,,,,,,,,,,,,,,,,,,,,,,,,,,,,,,,,,,,,,,,,,,,,,,,,,,,,,,,,,,,,,,,,,,,,,,,,,,,,,,,,,,,,,,,,,,,,
,,,,,,5dee3c313ccb8a4cbe050a84,62bbfb43a391ce9d357778e2,2022-06-29_10h12.15.957,Colour_Asymmetry_Pilot,2022.1.3,Win32,59.95203837,62bbe60bf3d75ef465d3e404,0,50,50,76,1,threeone,,,,,,,,,,,,,,,,,,,,,,,,,,,,,,,,,,,,,,,,,,,,,,,,,,,,,,,,,,,,,,,,,,,,,,,,,,,,,,,,,,,,,,,,,,,,,,,,,,,,,,,,,,,,,,,,,,,,,,,,,,,,,,,,,,,,,,,,,,,,,,,,,,,,,,,,
,,,,,,5dee3c313ccb8a4cbe050a84,62bbfb43a391ce9d357778e2,2022-06-29_10h12.15.957,Colour_Asymmetry_Pilot,2022.1.3,Win32,59.95203837,62bbe60bf3d75ef465d3e404,0,51,51,72,1,onetwo,,,,,,,,,,,,,,,,,,,,,,,,,,,,,,,,,,,,,,,,,,,,,,,,,,,,,,,,,,,,,,,,,,,,,,,,,,,,,,,,,,,,,,,,,,,,,,,,,,,,,,,,,,,,,,,,,,,,,,,,,,,,,,,,,,,,,,,,,,,,,,,,,,,,,,,,
,,,,,,5dee3c313ccb8a4cbe050a84,62bbfb43a391ce9d357778e2,2022-06-29_10h12.15.957,Colour_Asymmetry_Pilot,2022.1.3,Win32,59.95203837,62bbe60bf3d75ef465d3e404,0,52,52,93,1,threefour,,,,,,,,,,,,,,,,,,,,,,,,,,,,,,,,,,,,,,,,,,,,,,,,,,,,,,,,,,,,,,,,,,,,,,,,,,,,,,,,,,,,,,,,,,,,,,,,,,,,,,,,,,,,,,,,,,,,,,,,,,,,,,,,,,,,,,,,,,,,,,,,,,,,,,,,
,,,,,,5dee3c313ccb8a4cbe050a84,62bbfb43a391ce9d357778e2,2022-06-29_10h12.15.957,Colour_Asymmetry_Pilot,2022.1.3,Win32,59.95203837,62bbe60bf3d75ef465d3e404,0,53,53,111,1,fourthree,,,,,,,,,,,,,,,,,,,,,,,,,,,,,,,,,,,,,,,,,,,,,,,,,,,,,,,,,,,,,,,,,,,,,,,,,,,,,,,,,,,,,,,,,,,,,,,,,,,,,,,,,,,,,,,,,,,,,,,,,,,,,,,,,,,,,,,,,,,,,,,,,,,,,,,,
,,,,,,5dee3c313ccb8a4cbe050a84,62bbfb43a391ce9d357778e2,2022-06-29_10h12.15.957,Colour_Asymmetry_Pilot,2022.1.3,Win32,59.95203837,62bbe60bf3d75ef465d3e404,0,54,54,34,1,twoone,,,,,,,,,,,,,,,,,,,,,,,,,,,,,,,,,,,,,,,,,,,,,,,,,,,,,,,,,,,,,,,,,,,,,,,,,,,,,,,,,,,,,,,,,,,,,,,,,,,,,,,,,,,,,,,,,,,,,,,,,,,,,,,,,,,,,,,,,,,,,,,,,,,,,,,,
,,,,,,5dee3c313ccb8a4cbe050a84,62bbfb43a391ce9d357778e2,2022-06-29_10h12.15.957,Colour_Asymmetry_Pilot,2022.1.3,Win32,59.95203837,62bbe60bf3d75ef465d3e404,0,55,55,16,1,onetwo,,,,,,,,,,,,,,,,,,,,,,,,,,,,,,,,,,,,,,,,,,,,,,,,,,,,,,,,,,,,,,,,,,,,,,,,,,,,,,,,,,,,,,,,,,,,,,,,,,,,,,,,,,,,,,,,,,,,,,,,,,,,,,,,,,,,,,,,,,,,,,,,,,,,,,,,
,,,,,,5dee3c313ccb8a4cbe050a84,62bbfb43a391ce9d357778e2,2022-06-29_10h12.15.957,Colour_Asymmetry_Pilot,2022.1.3,Win32,59.95203837,62bbe60bf3d75ef465d3e404,0,56,56,161,1,onethree,,,,,,,,,,,,,,,,,,,,,,,,,,,,,,,,,,,,,,,,,,,,,,,,,,,,,,,,,,,,,,,,,,,,,,,,,,,,,,,,,,,,,,,,,,,,,,,,,,,,,,,,,,,,,,,,,,,,,,,,,,,,,,,,,,,,,,,,,,,,,,,,,,,,,,,,
,,,,,,5dee3c313ccb8a4cbe050a84,62bbfb43a391ce9d357778e2,2022-06-29_10h12.15.957,Colour_Asymmetry_Pilot,2022.1.3,Win32,59.95203837,62bbe60bf3d75ef465d3e404,0,57,57,10,1,twoone,,,,,,,,,,,,,,,,,,,,,,,,,,,,,,,,,,,,,,,,,,,,,,,,,,,,,,,,,,,,,,,,,,,,,,,,,,,,,,,,,,,,,,,,,,,,,,,,,,,,,,,,,,,,,,,,,,,,,,,,,,,,,,,,,,,,,,,,,,,,,,,,,,,,,,,,
,,,,,,5dee3c313ccb8a4cbe050a84,62bbfb43a391ce9d357778e2,2022-06-29_10h12.15.957,Colour_Asymmetry_Pilot,2022.1.3,Win32,59.95203837,62bbe60bf3d75ef465d3e404,0,58,58,32,1,onetwo,,,,,,,,,,,,,,,,,,,,,,,,,,,,,,,,,,,,,,,,,,,,,,,,,,,,,,,,,,,,,,,,,,,,,,,,,,,,,,,,,,,,,,,,,,,,,,,,,,,,,,,,,,,,,,,,,,,,,,,,,,,,,,,,,,,,,,,,,,,,,,,,,,,,,,,,
,,,,,,5dee3c313ccb8a4cbe050a84,62bbfb43a391ce9d357778e2,2022-06-29_10h12.15.957,Colour_Asymmetry_Pilot,2022.1.3,Win32,59.95203837,62bbe60bf3d75ef465d3e404,0,59,59,102,1,fourtwo,,,,,,,,,,,,,,,,,,,,,,,,,,,,,,,,,,,,,,,,,,,,,,,,,,,,,,,,,,,,,,,,,,,,,,,,,,,,,,,,,,,,,,,,,,,,,,,,,,,,,,,,,,,,,,,,,,,,,,,,,,,,,,,,,,,,,,,,,,,,,,,,,,,,,,,,
,,,,,,5dee3c313ccb8a4cbe050a84,62bbfb43a391ce9d357778e2,2022-06-29_10h12.15.957,Colour_Asymmetry_Pilot,2022.1.3,Win32,59.95203837,62bbe60bf3d75ef465d3e404,0,60,60,36,1,threeone,,,,,,,,,,,,,,,,,,,,,,,,,,,,,,,,,,,,,,,,,,,,,,,,,,,,,,,,,,,,,,,,,,,,,,,,,,,,,,,,,,,,,,,,,,,,,,,,,,,,,,,,,,,,,,,,,,,,,,,,,,,,,,,,,,,,,,,,,,,,,,,,,,,,,,,,
,,,,,,5dee3c313ccb8a4cbe050a84,62bbfb43a391ce9d357778e2,2022-06-29_10h12.15.957,Colour_Asymmetry_Pilot,2022.1.3,Win32,59.95203837,62bbe60bf3d75ef465d3e404,0,61,61,42,1,twoone,,,,,,,,,,,,,,,,,,,,,,,,,,,,,,,,,,,,,,,,,,,,,,,,,,,,,,,,,,,,,,,,,,,,,,,,,,,,,,,,,,,,,,,,,,,,,,,,,,,,,,,,,,,,,,,,,,,,,,,,,,,,,,,,,,,,,,,,,,,,,,,,,,,,,,,,
,,,,,,5dee3c313ccb8a4cbe050a84,62bbfb43a391ce9d357778e2,2022-06-29_10h12.15.957,Colour_Asymmetry_Pilot,2022.1.3,Win32,59.95203837,62bbe60bf3d75ef465d3e404,0,62,62,94,1,fourtwo,,,,,,,,,,,,,,,,,,,,,,,,,,,,,,,,,,,,,,,,,,,,,,,,,,,,,,,,,,,,,,,,,,,,,,,,,,,,,,,,,,,,,,,,,,,,,,,,,,,,,,,,,,,,,,,,,,,,,,,,,,,,,,,,,,,,,,,,,,,,,,,,,,,,,,,,
,,,,,,5dee3c313ccb8a4cbe050a84,62bbfb43a391ce9d357778e2,2022-06-29_10h12.15.957,Colour_Asymmetry_Pilot,2022.1.3,Win32,59.95203837,62bbe60bf3d75ef465d3e404,0,63,63,125,1,threefour,,,,,,,,,,,,,,,,,,,,,,,,,,,,,,,,,,,,,,,,,,,,,,,,,,,,,,,,,,,,,,,,,,,,,,,,,,,,,,,,,,,,,,,,,,,,,,,,,,,,,,,,,,,,,,,,,,,,,,,,,,,,,,,,,,,,,,,,,,,,,,,,,,,,,,,,
,,,,,,5dee3c313ccb8a4cbe050a84,62bbfb43a391ce9d357778e2,2022-06-29_10h12.15.957,Colour_Asymmetry_Pilot,2022.1.3,Win32,59.95203837,62bbe60bf3d75ef465d3e404,0,64,64,136,1,onetwo,,,,,,,,,,,,,,,,,,,,,,,,,,,,,,,,,,,,,,,,,,,,,,,,,,,,,,,,,,,,,,,,,,,,,,,,,,,,,,,,,,,,,,,,,,,,,,,,,,,,,,,,,,,,,,,,,,,,,,,,,,,,,,,,,,,,,,,,,,,,,,,,,,,,,,,,
,,,,,,5dee3c313ccb8a4cbe050a84,62bbfb43a391ce9d357778e2,2022-06-29_10h12.15.957,Colour_Asymmetry_Pilot,2022.1.3,Win32,59.95203837,62bbe60bf3d75ef465d3e404,0,65,65,6,1,fourtwo,,,,,,,,,,,,,,,,,,,,,,,,,,,,,,,,,,,,,,,,,,,,,,,,,,,,,,,,,,,,,,,,,,,,,,,,,,,,,,,,,,,,,,,,,,,,,,,,,,,,,,,,,,,,,,,,,,,,,,,,,,,,,,,,,,,,,,,,,,,,,,,,,,,,,,,,
,,,,,,5dee3c313ccb8a4cbe050a84,62bbfb43a391ce9d357778e2,2022-06-29_10h12.15.957,Colour_Asymmetry_Pilot,2022.1.3,Win32,59.95203837,62bbe60bf3d75ef465d3e404,0,66,66,96,1,onetwo,,,,,,,,,,,,,,,,,,,,,,,,,,,,,,,,,,,,,,,,,,,,,,,,,,,,,,,,,,,,,,,,,,,,,,,,,,,,,,,,,,,,,,,,,,,,,,,,,,,,,,,,,,,,,,,,,,,,,,,,,,,,,,,,,,,,,,,,,,,,,,,,,,,,,,,,
,,,,,,5dee3c313ccb8a4cbe050a84,62bbfb43a391ce9d357778e2,2022-06-29_10h12.15.957,Colour_Asymmetry_Pilot,2022.1.3,Win32,59.95203837,62bbe60bf3d75ef465d3e404,0,67,67,104,1,onetwo,,,,,,,,,,,,,,,,,,,,,,,,,,,,,,,,,,,,,,,,,,,,,,,,,,,,,,,,,,,,,,,,,,,,,,,,,,,,,,,,,,,,,,,,,,,,,,,,,,,,,,,,,,,,,,,,,,,,,,,,,,,,,,,,,,,,,,,,,,,,,,,,,,,,,,,,
,,,,,,5dee3c313ccb8a4cbe050a84,62bbfb43a391ce9d357778e2,2022-06-29_10h12.15.957,Colour_Asymmetry_Pilot,2022.1.3,Win32,59.95203837,62bbe60bf3d75ef465d3e404,0,68,68,51,1,twofour,,,,,,,,,,,,,,,,,,,,,,,,,,,,,,,,,,,,,,,,,,,,,,,,,,,,,,,,,,,,,,,,,,,,,,,,,,,,,,,,,,,,,,,,,,,,,,,,,,,,,,,,,,,,,,,,,,,,,,,,,,,,,,,,,,,,,,,,,,,,,,,,,,,,,,,,
,,,,,,5dee3c313ccb8a4cbe050a84,62bbfb43a391ce9d357778e2,2022-06-29_10h12.15.957,Colour_Asymmetry_Pilot,2022.1.3,Win32,59.95203837,62bbe60bf3d75ef465d3e404,0,69,69,23,1,fourthree,,,,,,,,,,,,,,,,,,,,,,,,,,,,,,,,,,,,,,,,,,,,,,,,,,,,,,,,,,,,,,,,,,,,,,,,,,,,,,,,,,,,,,,,,,,,,,,,,,,,,,,,,,,,,,,,,,,,,,,,,,,,,,,,,,,,,,,,,,,,,,,,,,,,,,,,
,,,,,,5dee3c313ccb8a4cbe050a84,62bbfb43a391ce9d357778e2,2022-06-29_10h12.15.957,Colour_Asymmetry_Pilot,2022.1.3,Win32,59.95203837,62bbe60bf3d75ef465d3e404,0,70,70,40,1,onetwo,,,,,,,,,,,,,,,,,,,,,,,,,,,,,,,,,,,,,,,,,,,,,,,,,,,,,,,,,,,,,,,,,,,,,,,,,,,,,,,,,,,,,,,,,,,,,,,,,,,,,,,,,,,,,,,,,,,,,,,,,,,,,,,,,,,,,,,,,,,,,,,,,,,,,,,,
,,,,,,5dee3c313ccb8a4cbe050a84,62bbfb43a391ce9d357778e2,2022-06-29_10h12.15.957,Colour_Asymmetry_Pilot,2022.1.3,Win32,59.95203837,62bbe60bf3d75ef465d3e404,0,71,71,69,1,threefour,,,,,,,,,,,,,,,,,,,,,,,,,,,,,,,,,,,,,,,,,,,,,,,,,,,,,,,,,,,,,,,,,,,,,,,,,,,,,,,,,,,,,,,,,,,,,,,,,,,,,,,,,,,,,,,,,,,,,,,,,,,,,,,,,,,,,,,,,,,,,,,,,,,,,,,,
,,,,,,5dee3c313ccb8a4cbe050a84,62bbfb43a391ce9d357778e2,2022-06-29_10h12.15.957,Colour_Asymmetry_Pilot,2022.1.3,Win32,59.95203837,62bbe60bf3d75ef465d3e404,0,72,72,139,1,twofour,,,,,,,,,,,,,,,,,,,,,,,,,,,,,,,,,,,,,,,,,,,,,,,,,,,,,,,,,,,,,,,,,,,,,,,,,,,,,,,,,,,,,,,,,,,,,,,,,,,,,,,,,,,,,,,,,,,,,,,,,,,,,,,,,,,,,,,,,,,,,,,,,,,,,,,,
,,,,,,5dee3c313ccb8a4cbe050a84,62bbfb43a391ce9d357778e2,2022-06-29_10h12.15.957,Colour_Asymmetry_Pilot,2022.1.3,Win32,59.95203837,62bbe60bf3d75ef465d3e404,0,73,73,20,1,threeone,,,,,,,,,,,,,,,,,,,,,,,,,,,,,,,,,,,,,,,,,,,,,,,,,,,,,,,,,,,,,,,,,,,,,,,,,,,,,,,,,,,,,,,,,,,,,,,,,,,,,,,,,,,,,,,,,,,,,,,,,,,,,,,,,,,,,,,,,,,,,,,,,,,,,,,,
,,,,,,5dee3c313ccb8a4cbe050a84,62bbfb43a391ce9d357778e2,2022-06-29_10h12.15.957,Colour_Asymmetry_Pilot,2022.1.3,Win32,59.95203837,62bbe60bf3d75ef465d3e404,0,74,74,159,1,fourthree,,,,,,,,,,,,,,,,,,,,,,,,,,,,,,,,,,,,,,,,,,,,,,,,,,,,,,,,,,,,,,,,,,,,,,,,,,,,,,,,,,,,,,,,,,,,,,,,,,,,,,,,,,,,,,,,,,,,,,,,,,,,,,,,,,,,,,,,,,,,,,,,,,,,,,,,
,,,,,,5dee3c313ccb8a4cbe050a84,62bbfb43a391ce9d357778e2,2022-06-29_10h12.15.957,Colour_Asymmetry_Pilot,2022.1.3,Win32,59.95203837,62bbe60bf3d75ef465d3e404,0,75,75,58,1,twoone,,,,,,,,,,,,,,,,,,,,,,,,,,,,,,,,,,,,,,,,,,,,,,,,,,,,,,,,,,,,,,,,,,,,,,,,,,,,,,,,,,,,,,,,,,,,,,,,,,,,,,,,,,,,,,,,,,,,,,,,,,,,,,,,,,,,,,,,,,,,,,,,,,,,,,,,
,,,,,,5dee3c313ccb8a4cbe050a84,62bbfb43a391ce9d357778e2,2022-06-29_10h12.15.957,Colour_Asymmetry_Pilot,2022.1.3,Win32,59.95203837,62bbe60bf3d75ef465d3e404,0,76,76,105,1,onethree,,,,,,,,,,,,,,,,,,,,,,,,,,,,,,,,,,,,,,,,,,,,,,,,,,,,,,,,,,,,,,,,,,,,,,,,,,,,,,,,,,,,,,,,,,,,,,,,,,,,,,,,,,,,,,,,,,,,,,,,,,,,,,,,,,,,,,,,,,,,,,,,,,,,,,,,
,,,,,,5dee3c313ccb8a4cbe050a84,62bbfb43a391ce9d357778e2,2022-06-29_10h12.15.957,Colour_Asymmetry_Pilot,2022.1.3,Win32,59.95203837,62bbe60bf3d75ef465d3e404,0,77,77,67,1,twofour,,,,,,,,,,,,,,,,,,,,,,,,,,,,,,,,,,,,,,,,,,,,,,,,,,,,,,,,,,,,,,,,,,,,,,,,,,,,,,,,,,,,,,,,,,,,,,,,,,,,,,,,,,,,,,,,,,,,,,,,,,,,,,,,,,,,,,,,,,,,,,,,,,,,,,,,
,,,,,,5dee3c313ccb8a4cbe050a84,62bbfb43a391ce9d357778e2,2022-06-29_10h12.15.957,Colour_Asymmetry_Pilot,2022.1.3,Win32,59.95203837,62bbe60bf3d75ef465d3e404,0,78,78,39,1,fourthree,,,,,,,,,,,,,,,,,,,,,,,,,,,,,,,,,,,,,,,,,,,,,,,,,,,,,,,,,,,,,,,,,,,,,,,,,,,,,,,,,,,,,,,,,,,,,,,,,,,,,,,,,,,,,,,,,,,,,,,,,,,,,,,,,,,,,,,,,,,,,,,,,,,,,,,,
,,,,,,5dee3c313ccb8a4cbe050a84,62bbfb43a391ce9d357778e2,2022-06-29_10h12.15.957,Colour_Asymmetry_Pilot,2022.1.3,Win32,59.95203837,62bbe60bf3d75ef465d3e404,0,79,79,145,1,onethree,,,,,,,,,,,,,,,,,,,,,,,,,,,,,,,,,,,,,,,,,,,,,,,,,,,,,,,,,,,,,,,,,,,,,,,,,,,,,,,,,,,,,,,,,,,,,,,,,,,,,,,,,,,,,,,,,,,,,,,,,,,,,,,,,,,,,,,,,,,,,,,,,,,,,,,,
,,,,,,5dee3c313ccb8a4cbe050a84,62bbfb43a391ce9d357778e2,2022-06-29_10h12.15.957,Colour_Asymmetry_Pilot,2022.1.3,Win32,59.95203837,62bbe60bf3d75ef465d3e404,0,80,80,79,1,fourthree,,,,,,,,,,,,,,,,,,,,,,,,,,,,,,,,,,,,,,,,,,,,,,,,,,,,,,,,,,,,,,,,,,,,,,,,,,,,,,,,,,,,,,,,,,,,,,,,,,,,,,,,,,,,,,,,,,,,,,,,,,,,,,,,,,,,,,,,,,,,,,,,,,,,,,,,
,,,,,,5dee3c313ccb8a4cbe050a84,62bbfb43a391ce9d357778e2,2022-06-29_10h12.15.957,Colour_Asymmetry_Pilot,2022.1.3,Win32,59.95203837,62bbe60bf3d75ef465d3e404,0,81,81,54,1,fourtwo,,,,,,,,,,,,,,,,,,,,,,,,,,,,,,,,,,,,,,,,,,,,,,,,,,,,,,,,,,,,,,,,,,,,,,,,,,,,,,,,,,,,,,,,,,,,,,,,,,,,,,,,,,,,,,,,,,,,,,,,,,,,,,,,,,,,,,,,,,,,,,,,,,,,,,,,
,,,,,,5dee3c313ccb8a4cbe050a84,62bbfb43a391ce9d357778e2,2022-06-29_10h12.15.957,Colour_Asymmetry_Pilot,2022.1.3,Win32,59.95203837,62bbe60bf3d75ef465d3e404,0,82,82,153,1,onethree,,,,,,,,,,,,,,,,,,,,,,,,,,,,,,,,,,,,,,,,,,,,,,,,,,,,,,,,,,,,,,,,,,,,,,,,,,,,,,,,,,,,,,,,,,,,,,,,,,,,,,,,,,,,,,,,,,,,,,,,,,,,,,,,,,,,,,,,,,,,,,,,,,,,,,,,
,,,,,,5dee3c313ccb8a4cbe050a84,62bbfb43a391ce9d357778e2,2022-06-29_10h12.15.957,Colour_Asymmetry_Pilot,2022.1.3,Win32,59.95203837,62bbe60bf3d75ef465d3e404,0,83,83,112,1,onetwo,,,,,,,,,,,,,,,,,,,,,,,,,,,,,,,,,,,,,,,,,,,,,,,,,,,,,,,,,,,,,,,,,,,,,,,,,,,,,,,,,,,,,,,,,,,,,,,,,,,,,,,,,,,,,,,,,,,,,,,,,,,,,,,,,,,,,,,,,,,,,,,,,,,,,,,,
,,,,,,5dee3c313ccb8a4cbe050a84,62bbfb43a391ce9d357778e2,2022-06-29_10h12.15.957,Colour_Asymmetry_Pilot,2022.1.3,Win32,59.95203837,62bbe60bf3d75ef465d3e404,0,84,84,31,1,fourthree,,,,,,,,,,,,,,,,,,,,,,,,,,,,,,,,,,,,,,,,,,,,,,,,,,,,,,,,,,,,,,,,,,,,,,,,,,,,,,,,,,,,,,,,,,,,,,,,,,,,,,,,,,,,,,,,,,,,,,,,,,,,,,,,,,,,,,,,,,,,,,,,,,,,,,,,
,,,,,,5dee3c313ccb8a4cbe050a84,62bbfb43a391ce9d357778e2,2022-06-29_10h12.15.957,Colour_Asymmetry_Pilot,2022.1.3,Win32,59.95203837,62bbe60bf3d75ef465d3e404,0,85,85,149,1,threefour,,,,,,,,,,,,,,,,,,,,,,,,,,,,,,,,,,,,,,,,,,,,,,,,,,,,,,,,,,,,,,,,,,,,,,,,,,,,,,,,,,,,,,,,,,,,,,,,,,,,,,,,,,,,,,,,,,,,,,,,,,,,,,,,,,,,,,,,,,,,,,,,,,,,,,,,
,,,,,,5dee3c313ccb8a4cbe050a84,62bbfb43a391ce9d357778e2,2022-06-29_10h12.15.957,Colour_Asymmetry_Pilot,2022.1.3,Win32,59.95203837,62bbe60bf3d75ef465d3e404,0,86,86,65,1,onethree,,,,,,,,,,,,,,,,,,,,,,,,,,,,,,,,,,,,,,,,,,,,,,,,,,,,,,,,,,,,,,,,,,,,,,,,,,,,,,,,,,,,,,,,,,,,,,,,,,,,,,,,,,,,,,,,,,,,,,,,,,,,,,,,,,,,,,,,,,,,,,,,,,,,,,,,
,,,,,,5dee3c313ccb8a4cbe050a84,62bbfb43a391ce9d357778e2,2022-06-29_10h12.15.957,Colour_Asymmetry_Pilot,2022.1.3,Win32,59.95203837,62bbe60bf3d75ef465d3e404,0,87,87,62,1,fourtwo,,,,,,,,,,,,,,,,,,,,,,,,,,,,,,,,,,,,,,,,,,,,,,,,,,,,,,,,,,,,,,,,,,,,,,,,,,,,,,,,,,,,,,,,,,,,,,,,,,,,,,,,,,,,,,,,,,,,,,,,,,,,,,,,,,,,,,,,,,,,,,,,,,,,,,,,
,,,,,,5dee3c313ccb8a4cbe050a84,62bbfb43a391ce9d357778e2,2022-06-29_10h12.15.957,Colour_Asymmetry_Pilot,2022.1.3,Win32,59.95203837,62bbe60bf3d75ef465d3e404,0,88,88,75,1,twofour,,,,,,,,,,,,,,,,,,,,,,,,,,,,,,,,,,,,,,,,,,,,,,,,,,,,,,,,,,,,,,,,,,,,,,,,,,,,,,,,,,,,,,,,,,,,,,,,,,,,,,,,,,,,,,,,,,,,,,,,,,,,,,,,,,,,,,,,,,,,,,,,,,,,,,,,
,,,,,,5dee3c313ccb8a4cbe050a84,62bbfb43a391ce9d357778e2,2022-06-29_10h12.15.957,Colour_Asymmetry_Pilot,2022.1.3,Win32,59.95203837,62bbe60bf3d75ef465d3e404,0,89,89,2,1,twoone,,,,,,,,,,,,,,,,,,,,,,,,,,,,,,,,,,,,,,,,,,,,,,,,,,,,,,,,,,,,,,,,,,,,,,,,,,,,,,,,,,,,,,,,,,,,,,,,,,,,,,,,,,,,,,,,,,,,,,,,,,,,,,,,,,,,,,,,,,,,,,,,,,,,,,,,
,,,,,,5dee3c313ccb8a4cbe050a84,62bbfb43a391ce9d357778e2,2022-06-29_10h12.15.957,Colour_Asymmetry_Pilot,2022.1.3,Win32,59.95203837,62bbe60bf3d75ef465d3e404,0,90,90,115,1,twofour,,,,,,,,,,,,,,,,,,,,,,,,,,,,,,,,,,,,,,,,,,,,,,,,,,,,,,,,,,,,,,,,,,,,,,,,,,,,,,,,,,,,,,,,,,,,,,,,,,,,,,,,,,,,,,,,,,,,,,,,,,,,,,,,,,,,,,,,,,,,,,,,,,,,,,,,
,,,,,,5dee3c313ccb8a4cbe050a84,62bbfb43a391ce9d357778e2,2022-06-29_10h12.15.957,Colour_Asymmetry_Pilot,2022.1.3,Win32,59.95203837,62bbe60bf3d75ef465d3e404,0,91,91,63,1,fourthree,,,,,,,,,,,,,,,,,,,,,,,,,,,,,,,,,,,,,,,,,,,,,,,,,,,,,,,,,,,,,,,,,,,,,,,,,,,,,,,,,,,,,,,,,,,,,,,,,,,,,,,,,,,,,,,,,,,,,,,,,,,,,,,,,,,,,,,,,,,,,,,,,,,,,,,,
,,,,,,5dee3c313ccb8a4cbe050a84,62bbfb43a391ce9d357778e2,2022-06-29_10h12.15.957,Colour_Asymmetry_Pilot,2022.1.3,Win32,59.95203837,62bbe60bf3d75ef465d3e404,0,92,92,59,1,twofour,,,,,,,,,,,,,,,,,,,,,,,,,,,,,,,,,,,,,,,,,,,,,,,,,,,,,,,,,,,,,,,,,,,,,,,,,,,,,,,,,,,,,,,,,,,,,,,,,,,,,,,,,,,,,,,,,,,,,,,,,,,,,,,,,,,,,,,,,,,,,,,,,,,,,,,,
,,,,,,5dee3c313ccb8a4cbe050a84,62bbfb43a391ce9d357778e2,2022-06-29_10h12.15.957,Colour_Asymmetry_Pilot,2022.1.3,Win32,59.95203837,62bbe60bf3d75ef465d3e404,0,93,93,147,1,twofour,,,,,,,,,,,,,,,,,,,,,,,,,,,,,,,,,,,,,,,,,,,,,,,,,,,,,,,,,,,,,,,,,,,,,,,,,,,,,,,,,,,,,,,,,,,,,,,,,,,,,,,,,,,,,,,,,,,,,,,,,,,,,,,,,,,,,,,,,,,,,,,,,,,,,,,,
,,,,,,5dee3c313ccb8a4cbe050a84,62bbfb43a391ce9d357778e2,2022-06-29_10h12.15.957,Colour_Asymmetry_Pilot,2022.1.3,Win32,59.95203837,62bbe60bf3d75ef465d3e404,0,94,94,98,1,twoone,,,,,,,,,,,,,,,,,,,,,,,,,,,,,,,,,,,,,,,,,,,,,,,,,,,,,,,,,,,,,,,,,,,,,,,,,,,,,,,,,,,,,,,,,,,,,,,,,,,,,,,,,,,,,,,,,,,,,,,,,,,,,,,,,,,,,,,,,,,,,,,,,,,,,,,,
,,,,,,5dee3c313ccb8a4cbe050a84,62bbfb43a391ce9d357778e2,2022-06-29_10h12.15.957,Colour_Asymmetry_Pilot,2022.1.3,Win32,59.95203837,62bbe60bf3d75ef465d3e404,0,95,95,150,1,fourtwo,,,,,,,,,,,,,,,,,,,,,,,,,,,,,,,,,,,,,,,,,,,,,,,,,,,,,,,,,,,,,,,,,,,,,,,,,,,,,,,,,,,,,,,,,,,,,,,,,,,,,,,,,,,,,,,,,,,,,,,,,,,,,,,,,,,,,,,,,,,,,,,,,,,,,,,,
,,,,,,5dee3c313ccb8a4cbe050a84,62bbfb43a391ce9d357778e2,2022-06-29_10h12.15.957,Colour_Asymmetry_Pilot,2022.1.3,Win32,59.95203837,62bbe60bf3d75ef465d3e404,0,96,96,144,1,onetwo,,,,,,,,,,,,,,,,,,,,,,,,,,,,,,,,,,,,,,,,,,,,,,,,,,,,,,,,,,,,,,,,,,,,,,,,,,,,,,,,,,,,,,,,,,,,,,,,,,,,,,,,,,,,,,,,,,,,,,,,,,,,,,,,,,,,,,,,,,,,,,,,,,,,,,,,
,,,,,,5dee3c313ccb8a4cbe050a84,62bbfb43a391ce9d357778e2,2022-06-29_10h12.15.957,Colour_Asymmetry_Pilot,2022.1.3,Win32,59.95203837,62bbe60bf3d75ef465d3e404,0,97,97,35,1,twofour,,,,,,,,,,,,,,,,,,,,,,,,,,,,,,,,,,,,,,,,,,,,,,,,,,,,,,,,,,,,,,,,,,,,,,,,,,,,,,,,,,,,,,,,,,,,,,,,,,,,,,,,,,,,,,,,,,,,,,,,,,,,,,,,,,,,,,,,,,,,,,,,,,,,,,,,
,,,,,,5dee3c313ccb8a4cbe050a84,62bbfb43a391ce9d357778e2,2022-06-29_10h12.15.957,Colour_Asymmetry_Pilot,2022.1.3,Win32,59.95203837,62bbe60bf3d75ef465d3e404,0,98,98,88,1,onetwo,,,,,,,,,,,,,,,,,,,,,,,,,,,,,,,,,,,,,,,,,,,,,,,,,,,,,,,,,,,,,,,,,,,,,,,,,,,,,,,,,,,,,,,,,,,,,,,,,,,,,,,,,,,,,,,,,,,,,,,,,,,,,,,,,,,,,,,,,,,,,,,,,,,,,,,,
,,,,,,5dee3c313ccb8a4cbe050a84,62bbfb43a391ce9d357778e2,2022-06-29_10h12.15.957,Colour_Asymmetry_Pilot,2022.1.3,Win32,59.95203837,62bbe60bf3d75ef465d3e404,0,99,99,52,1,threeone,,,,,,,,,,,,,,,,,,,,,,,,,,,,,,,,,,,,,,,,,,,,,,,,,,,,,,,,,,,,,,,,,,,,,,,,,,,,,,,,,,,,,,,,,,,,,,,,,,,,,,,,,,,,,,,,,,,,,,,,,,,,,,,,,,,,,,,,,,,,,,,,,,,,,,,,
,,,,,,5dee3c313ccb8a4cbe050a84,62bbfb43a391ce9d357778e2,2022-06-29_10h12.15.957,Colour_Asymmetry_Pilot,2022.1.3,Win32,59.95203837,62bbe60bf3d75ef465d3e404,0,100,100,137,1,onethree,,,,,,,,,,,,,,,,,,,,,,,,,,,,,,,,,,,,,,,,,,,,,,,,,,,,,,,,,,,,,,,,,,,,,,,,,,,,,,,,,,,,,,,,,,,,,,,,,,,,,,,,,,,,,,,,,,,,,,,,,,,,,,,,,,,,,,,,,,,,,,,,,,,,,,,,
,,,,,,5dee3c313ccb8a4cbe050a84,62bbfb43a391ce9d357778e2,2022-06-29_10h12.15.957,Colour_Asymmetry_Pilot,2022.1.3,Win32,59.95203837,62bbe60bf3d75ef465d3e404,0,101,101,8,1,onetwo,,,,,,,,,,,,,,,,,,,,,,,,,,,,,,,,,,,,,,,,,,,,,,,,,,,,,,,,,,,,,,,,,,,,,,,,,,,,,,,,,,,,,,,,,,,,,,,,,,,,,,,,,,,,,,,,,,,,,,,,,,,,,,,,,,,,,,,,,,,,,,,,,,,,,,,,
,,,,,,5dee3c313ccb8a4cbe050a84,62bbfb43a391ce9d357778e2,2022-06-29_10h12.15.957,Colour_Asymmetry_Pilot,2022.1.3,Win32,59.95203837,62bbe60bf3d75ef465d3e404,0,102,102,92,1,threeone,,,,,,,,,,,,,,,,,,,,,,,,,,,,,,,,,,,,,,,,,,,,,,,,,,,,,,,,,,,,,,,,,,,,,,,,,,,,,,,,,,,,,,,,,,,,,,,,,,,,,,,,,,,,,,,,,,,,,,,,,,,,,,,,,,,,,,,,,,,,,,,,,,,,,,,,
,,,,,,5dee3c313ccb8a4cbe050a84,62bbfb43a391ce9d357778e2,2022-06-29_10h12.15.957,Colour_Asymmetry_Pilot,2022.1.3,Win32,59.95203837,62bbe60bf3d75ef465d3e404,0,103,103,85,1,threefour,,,,,,,,,,,,,,,,,,,,,,,,,,,,,,,,,,,,,,,,,,,,,,,,,,,,,,,,,,,,,,,,,,,,,,,,,,,,,,,,,,,,,,,,,,,,,,,,,,,,,,,,,,,,,,,,,,,,,,,,,,,,,,,,,,,,,,,,,,,,,,,,,,,,,,,,
,,,,,,5dee3c313ccb8a4cbe050a84,62bbfb43a391ce9d357778e2,2022-06-29_10h12.15.957,Colour_Asymmetry_Pilot,2022.1.3,Win32,59.95203837,62bbe60bf3d75ef465d3e404,0,104,104,3,1,twofour,,,,,,,,,,,,,,,,,,,,,,,,,,,,,,,,,,,,,,,,,,,,,,,,,,,,,,,,,,,,,,,,,,,,,,,,,,,,,,,,,,,,,,,,,,,,,,,,,,,,,,,,,,,,,,,,,,,,,,,,,,,,,,,,,,,,,,,,,,,,,,,,,,,,,,,,
,,,,,,5dee3c313ccb8a4cbe050a84,62bbfb43a391ce9d357778e2,2022-06-29_10h12.15.957,Colour_Asymmetry_Pilot,2022.1.3,Win32,59.95203837,62bbe60bf3d75ef465d3e404,0,105,105,19,1,twofour,,,,,,,,,,,,,,,,,,,,,,,,,,,,,,,,,,,,,,,,,,,,,,,,,,,,,,,,,,,,,,,,,,,,,,,,,,,,,,,,,,,,,,,,,,,,,,,,,,,,,,,,,,,,,,,,,,,,,,,,,,,,,,,,,,,,,,,,,,,,,,,,,,,,,,,,
,,,,,,5dee3c313ccb8a4cbe050a84,62bbfb43a391ce9d357778e2,2022-06-29_10h12.15.957,Colour_Asymmetry_Pilot,2022.1.3,Win32,59.95203837,62bbe60bf3d75ef465d3e404,0,106,106,64,1,onetwo,,,,,,,,,,,,,,,,,,,,,,,,,,,,,,,,,,,,,,,,,,,,,,,,,,,,,,,,,,,,,,,,,,,,,,,,,,,,,,,,,,,,,,,,,,,,,,,,,,,,,,,,,,,,,,,,,,,,,,,,,,,,,,,,,,,,,,,,,,,,,,,,,,,,,,,,
,,,,,,5dee3c313ccb8a4cbe050a84,62bbfb43a391ce9d357778e2,2022-06-29_10h12.15.957,Colour_Asymmetry_Pilot,2022.1.3,Win32,59.95203837,62bbe60bf3d75ef465d3e404,0,107,107,21,1,threefour,,,,,,,,,,,,,,,,,,,,,,,,,,,,,,,,,,,,,,,,,,,,,,,,,,,,,,,,,,,,,,,,,,,,,,,,,,,,,,,,,,,,,,,,,,,,,,,,,,,,,,,,,,,,,,,,,,,,,,,,,,,,,,,,,,,,,,,,,,,,,,,,,,,,,,,,
,,,,,,5dee3c313ccb8a4cbe050a84,62bbfb43a391ce9d357778e2,2022-06-29_10h12.15.957,Colour_Asymmetry_Pilot,2022.1.3,Win32,59.95203837,62bbe60bf3d75ef465d3e404,0,108,108,152,1,onetwo,,,,,,,,,,,,,,,,,,,,,,,,,,,,,,,,,,,,,,,,,,,,,,,,,,,,,,,,,,,,,,,,,,,,,,,,,,,,,,,,,,,,,,,,,,,,,,,,,,,,,,,,,,,,,,,,,,,,,,,,,,,,,,,,,,,,,,,,,,,,,,,,,,,,,,,,
,,,,,,5dee3c313ccb8a4cbe050a84,62bbfb43a391ce9d357778e2,2022-06-29_10h12.15.957,Colour_Asymmetry_Pilot,2022.1.3,Win32,59.95203837,62bbe60bf3d75ef465d3e404,0,109,109,25,1,onethree,,,,,,,,,,,,,,,,,,,,,,,,,,,,,,,,,,,,,,,,,,,,,,,,,,,,,,,,,,,,,,,,,,,,,,,,,,,,,,,,,,,,,,,,,,,,,,,,,,,,,,,,,,,,,,,,,,,,,,,,,,,,,,,,,,,,,,,,,,,,,,,,,,,,,,,,
,,,,,,5dee3c313ccb8a4cbe050a84,62bbfb43a391ce9d357778e2,2022-06-29_10h12.15.957,Colour_Asymmetry_Pilot,2022.1.3,Win32,59.95203837,62bbe60bf3d75ef465d3e404,0,110,110,0,1,onetwo,,,,,,,,,,,,,,,,,,,,,,,,,,,,,,,,,,,,,,,,,,,,,,,,,,,,,,,,,,,,,,,,,,,,,,,,,,,,,,,,,,,,,,,,,,,,,,,,,,,,,,,,,,,,,,,,,,,,,,,,,,,,,,,,,,,,,,,,,,,,,,,,,,,,,,,,
,,,,,,5dee3c313ccb8a4cbe050a84,62bbfb43a391ce9d357778e2,2022-06-29_10h12.15.957,Colour_Asymmetry_Pilot,2022.1.3,Win32,59.95203837,62bbe60bf3d75ef465d3e404,0,111,111,46,1,fourtwo,,,,,,,,,,,,,,,,,,,,,,,,,,,,,,,,,,,,,,,,,,,,,,,,,,,,,,,,,,,,,,,,,,,,,,,,,,,,,,,,,,,,,,,,,,,,,,,,,,,,,,,,,,,,,,,,,,,,,,,,,,,,,,,,,,,,,,,,,,,,,,,,,,,,,,,,
,,,,,,5dee3c313ccb8a4cbe050a84,62bbfb43a391ce9d357778e2,2022-06-29_10h12.15.957,Colour_Asymmetry_Pilot,2022.1.3,Win32,59.95203837,62bbe60bf3d75ef465d3e404,0,112,112,130,1,twoone,,,,,,,,,,,,,,,,,,,,,,,,,,,,,,,,,,,,,,,,,,,,,,,,,,,,,,,,,,,,,,,,,,,,,,,,,,,,,,,,,,,,,,,,,,,,,,,,,,,,,,,,,,,,,,,,,,,,,,,,,,,,,,,,,,,,,,,,,,,,,,,,,,,,,,,,
,,,,,,5dee3c313ccb8a4cbe050a84,62bbfb43a391ce9d357778e2,2022-06-29_10h12.15.957,Colour_Asymmetry_Pilot,2022.1.3,Win32,59.95203837,62bbe60bf3d75ef465d3e404,0,113,113,121,1,onethree,,,,,,,,,,,,,,,,,,,,,,,,,,,,,,,,,,,,,,,,,,,,,,,,,,,,,,,,,,,,,,,,,,,,,,,,,,,,,,,,,,,,,,,,,,,,,,,,,,,,,,,,,,,,,,,,,,,,,,,,,,,,,,,,,,,,,,,,,,,,,,,,,,,,,,,,
,,,,,,5dee3c313ccb8a4cbe050a84,62bbfb43a391ce9d357778e2,2022-06-29_10h12.15.957,Colour_Asymmetry_Pilot,2022.1.3,Win32,59.95203837,62bbe60bf3d75ef465d3e404,0,114,114,24,1,onetwo,,,,,,,,,,,,,,,,,,,,,,,,,,,,,,,,,,,,,,,,,,,,,,,,,,,,,,,,,,,,,,,,,,,,,,,,,,,,,,,,,,,,,,,,,,,,,,,,,,,,,,,,,,,,,,,,,,,,,,,,,,,,,,,,,,,,,,,,,,,,,,,,,,,,,,,,
,,,,,,5dee3c313ccb8a4cbe050a84,62bbfb43a391ce9d357778e2,2022-06-29_10h12.15.957,Colour_Asymmetry_Pilot,2022.1.3,Win32,59.95203837,62bbe60bf3d75ef465d3e404,0,115,115,114,1,twoone,,,,,,,,,,,,,,,,,,,,,,,,,,,,,,,,,,,,,,,,,,,,,,,,,,,,,,,,,,,,,,,,,,,,,,,,,,,,,,,,,,,,,,,,,,,,,,,,,,,,,,,,,,,,,,,,,,,,,,,,,,,,,,,,,,,,,,,,,,,,,,,,,,,,,,,,
,,,,,,5dee3c313ccb8a4cbe050a84,62bbfb43a391ce9d357778e2,2022-06-29_10h12.15.957,Colour_Asymmetry_Pilot,2022.1.3,Win32,59.95203837,62bbe60bf3d75ef465d3e404,0,116,116,131,1,twofour,,,,,,,,,,,,,,,,,,,,,,,,,,,,,,,,,,,,,,,,,,,,,,,,,,,,,,,,,,,,,,,,,,,,,,,,,,,,,,,,,,,,,,,,,,,,,,,,,,,,,,,,,,,,,,,,,,,,,,,,,,,,,,,,,,,,,,,,,,,,,,,,,,,,,,,,
,,,,,,5dee3c313ccb8a4cbe050a84,62bbfb43a391ce9d357778e2,2022-06-29_10h12.15.957,Colour_Asymmetry_Pilot,2022.1.3,Win32,59.95203837,62bbe60bf3d75ef465d3e404,0,117,117,44,1,threeone,,,,,,,,,,,,,,,,,,,,,,,,,,,,,,,,,,,,,,,,,,,,,,,,,,,,,,,,,,,,,,,,,,,,,,,,,,,,,,,,,,,,,,,,,,,,,,,,,,,,,,,,,,,,,,,,,,,,,,,,,,,,,,,,,,,,,,,,,,,,,,,,,,,,,,,,
,,,,,,5dee3c313ccb8a4cbe050a84,62bbfb43a391ce9d357778e2,2022-06-29_10h12.15.957,Colour_Asymmetry_Pilot,2022.1.3,Win32,59.95203837,62bbe60bf3d75ef465d3e404,0,118,118,82,1,twoone,,,,,,,,,,,,,,,,,,,,,,,,,,,,,,,,,,,,,,,,,,,,,,,,,,,,,,,,,,,,,,,,,,,,,,,,,,,,,,,,,,,,,,,,,,,,,,,,,,,,,,,,,,,,,,,,,,,,,,,,,,,,,,,,,,,,,,,,,,,,,,,,,,,,,,,,
,,,,,,5dee3c313ccb8a4cbe050a84,62bbfb43a391ce9d357778e2,2022-06-29_10h12.15.957,Colour_Asymmetry_Pilot,2022.1.3,Win32,59.95203837,62bbe60bf3d75ef465d3e404,0,119,119,103,1,fourthree,,,,,,,,,,,,,,,,,,,,,,,,,,,,,,,,,,,,,,,,,,,,,,,,,,,,,,,,,,,,,,,,,,,,,,,,,,,,,,,,,,,,,,,,,,,,,,,,,,,,,,,,,,,,,,,,,,,,,,,,,,,,,,,,,,,,,,,,,,,,,,,,,,,,,,,,
,,,,,,5dee3c313ccb8a4cbe050a84,62bbfb43a391ce9d357778e2,2022-06-29_10h12.15.957,Colour_Asymmetry_Pilot,2022.1.3,Win32,59.95203837,62bbe60bf3d75ef465d3e404,0,120,120,127,1,fourthree,,,,,,,,,,,,,,,,,,,,,,,,,,,,,,,,,,,,,,,,,,,,,,,,,,,,,,,,,,,,,,,,,,,,,,,,,,,,,,,,,,,,,,,,,,,,,,,,,,,,,,,,,,,,,,,,,,,,,,,,,,,,,,,,,,,,,,,,,,,,,,,,,,,,,,,,
,,,,,,5dee3c313ccb8a4cbe050a84,62bbfb43a391ce9d357778e2,2022-06-29_10h12.15.957,Colour_Asymmetry_Pilot,2022.1.3,Win32,59.95203837,62bbe60bf3d75ef465d3e404,0,121,121,71,1,fourthree,,,,,,,,,,,,,,,,,,,,,,,,,,,,,,,,,,,,,,,,,,,,,,,,,,,,,,,,,,,,,,,,,,,,,,,,,,,,,,,,,,,,,,,,,,,,,,,,,,,,,,,,,,,,,,,,,,,,,,,,,,,,,,,,,,,,,,,,,,,,,,,,,,,,,,,,
,,,,,,5dee3c313ccb8a4cbe050a84,62bbfb43a391ce9d357778e2,2022-06-29_10h12.15.957,Colour_Asymmetry_Pilot,2022.1.3,Win32,59.95203837,62bbe60bf3d75ef465d3e404,0,122,122,86,1,fourtwo,,,,,,,,,,,,,,,,,,,,,,,,,,,,,,,,,,,,,,,,,,,,,,,,,,,,,,,,,,,,,,,,,,,,,,,,,,,,,,,,,,,,,,,,,,,,,,,,,,,,,,,,,,,,,,,,,,,,,,,,,,,,,,,,,,,,,,,,,,,,,,,,,,,,,,,,
,,,,,,5dee3c313ccb8a4cbe050a84,62bbfb43a391ce9d357778e2,2022-06-29_10h12.15.957,Colour_Asymmetry_Pilot,2022.1.3,Win32,59.95203837,62bbe60bf3d75ef465d3e404,0,123,123,118,1,fourtwo,,,,,,,,,,,,,,,,,,,,,,,,,,,,,,,,,,,,,,,,,,,,,,,,,,,,,,,,,,,,,,,,,,,,,,,,,,,,,,,,,,,,,,,,,,,,,,,,,,,,,,,,,,,,,,,,,,,,,,,,,,,,,,,,,,,,,,,,,,,,,,,,,,,,,,,,
,,,,,,5dee3c313ccb8a4cbe050a84,62bbfb43a391ce9d357778e2,2022-06-29_10h12.15.957,Colour_Asymmetry_Pilot,2022.1.3,Win32,59.95203837,62bbe60bf3d75ef465d3e404,0,124,124,48,1,onetwo,,,,,,,,,,,,,,,,,,,,,,,,,,,,,,,,,,,,,,,,,,,,,,,,,,,,,,,,,,,,,,,,,,,,,,,,,,,,,,,,,,,,,,,,,,,,,,,,,,,,,,,,,,,,,,,,,,,,,,,,,,,,,,,,,,,,,,,,,,,,,,,,,,,,,,,,
,,,,,,5dee3c313ccb8a4cbe050a84,62bbfb43a391ce9d357778e2,2022-06-29_10h12.15.957,Colour_Asymmetry_Pilot,2022.1.3,Win32,59.95203837,62bbe60bf3d75ef465d3e404,0,125,125,73,1,onethree,,,,,,,,,,,,,,,,,,,,,,,,,,,,,,,,,,,,,,,,,,,,,,,,,,,,,,,,,,,,,,,,,,,,,,,,,,,,,,,,,,,,,,,,,,,,,,,,,,,,,,,,,,,,,,,,,,,,,,,,,,,,,,,,,,,,,,,,,,,,,,,,,,,,,,,,
,,,,,,5dee3c313ccb8a4cbe050a84,62bbfb43a391ce9d357778e2,2022-06-29_10h12.15.957,Colour_Asymmetry_Pilot,2022.1.3,Win32,59.95203837,62bbe60bf3d75ef465d3e404,0,126,126,140,1,threeone,,,,,,,,,,,,,,,,,,,,,,,,,,,,,,,,,,,,,,,,,,,,,,,,,,,,,,,,,,,,,,,,,,,,,,,,,,,,,,,,,,,,,,,,,,,,,,,,,,,,,,,,,,,,,,,,,,,,,,,,,,,,,,,,,,,,,,,,,,,,,,,,,,,,,,,,
,,,,,,5dee3c313ccb8a4cbe050a84,62bbfb43a391ce9d357778e2,2022-06-29_10h12.15.957,Colour_Asymmetry_Pilot,2022.1.3,Win32,59.95203837,62bbe60bf3d75ef465d3e404,0,127,127,33,1,onethree,,,,,,,,,,,,,,,,,,,,,,,,,,,,,,,,,,,,,,,,,,,,,,,,,,,,,,,,,,,,,,,,,,,,,,,,,,,,,,,,,,,,,,,,,,,,,,,,,,,,,,,,,,,,,,,,,,,,,,,,,,,,,,,,,,,,,,,,,,,,,,,,,,,,,,,,
,,,,,,5dee3c313ccb8a4cbe050a84,62bbfb43a391ce9d357778e2,2022-06-29_10h12.15.957,Colour_Asymmetry_Pilot,2022.1.3,Win32,59.95203837,62bbe60bf3d75ef465d3e404,0,128,128,26,1,twoone,,,,,,,,,,,,,,,,,,,,,,,,,,,,,,,,,,,,,,,,,,,,,,,,,,,,,,,,,,,,,,,,,,,,,,,,,,,,,,,,,,,,,,,,,,,,,,,,,,,,,,,,,,,,,,,,,,,,,,,,,,,,,,,,,,,,,,,,,,,,,,,,,,,,,,,,
,,,,,,5dee3c313ccb8a4cbe050a84,62bbfb43a391ce9d357778e2,2022-06-29_10h12.15.957,Colour_Asymmetry_Pilot,2022.1.3,Win32,59.95203837,62bbe60bf3d75ef465d3e404,0,129,129,122,1,twoone,,,,,,,,,,,,,,,,,,,,,,,,,,,,,,,,,,,,,,,,,,,,,,,,,,,,,,,,,,,,,,,,,,,,,,,,,,,,,,,,,,,,,,,,,,,,,,,,,,,,,,,,,,,,,,,,,,,,,,,,,,,,,,,,,,,,,,,,,,,,,,,,,,,,,,,,
,,,,,,5dee3c313ccb8a4cbe050a84,62bbfb43a391ce9d357778e2,2022-06-29_10h12.15.957,Colour_Asymmetry_Pilot,2022.1.3,Win32,59.95203837,62bbe60bf3d75ef465d3e404,0,130,130,146,1,twoone,,,,,,,,,,,,,,,,,,,,,,,,,,,,,,,,,,,,,,,,,,,,,,,,,,,,,,,,,,,,,,,,,,,,,,,,,,,,,,,,,,,,,,,,,,,,,,,,,,,,,,,,,,,,,,,,,,,,,,,,,,,,,,,,,,,,,,,,,,,,,,,,,,,,,,,,
,,,,,,5dee3c313ccb8a4cbe050a84,62bbfb43a391ce9d357778e2,2022-06-29_10h12.15.957,Colour_Asymmetry_Pilot,2022.1.3,Win32,59.95203837,62bbe60bf3d75ef465d3e404,0,131,131,47,1,fourthree,,,,,,,,,,,,,,,,,,,,,,,,,,,,,,,,,,,,,,,,,,,,,,,,,,,,,,,,,,,,,,,,,,,,,,,,,,,,,,,,,,,,,,,,,,,,,,,,,,,,,,,,,,,,,,,,,,,,,,,,,,,,,,,,,,,,,,,,,,,,,,,,,,,,,,,,
,,,,,,5dee3c313ccb8a4cbe050a84,62bbfb43a391ce9d357778e2,2022-06-29_10h12.15.957,Colour_Asymmetry_Pilot,2022.1.3,Win32,59.95203837,62bbe60bf3d75ef465d3e404,0,132,132,158,1,fourtwo,,,,,,,,,,,,,,,,,,,,,,,,,,,,,,,,,,,,,,,,,,,,,,,,,,,,,,,,,,,,,,,,,,,,,,,,,,,,,,,,,,,,,,,,,,,,,,,,,,,,,,,,,,,,,,,,,,,,,,,,,,,,,,,,,,,,,,,,,,,,,,,,,,,,,,,,
,,,,,,5dee3c313ccb8a4cbe050a84,62bbfb43a391ce9d357778e2,2022-06-29_10h12.15.957,Colour_Asymmetry_Pilot,2022.1.3,Win32,59.95203837,62bbe60bf3d75ef465d3e404,0,133,133,83,1,twofour,,,,,,,,,,,,,,,,,,,,,,,,,,,,,,,,,,,,,,,,,,,,,,,,,,,,,,,,,,,,,,,,,,,,,,,,,,,,,,,,,,,,,,,,,,,,,,,,,,,,,,,,,,,,,,,,,,,,,,,,,,,,,,,,,,,,,,,,,,,,,,,,,,,,,,,,
,,,,,,5dee3c313ccb8a4cbe050a84,62bbfb43a391ce9d357778e2,2022-06-29_10h12.15.957,Colour_Asymmetry_Pilot,2022.1.3,Win32,59.95203837,62bbe60bf3d75ef465d3e404,0,134,134,101,1,threefour,,,,,,,,,,,,,,,,,,,,,,,,,,,,,,,,,,,,,,,,,,,,,,,,,,,,,,,,,,,,,,,,,,,,,,,,,,,,,,,,,,,,,,,,,,,,,,,,,,,,,,,,,,,,,,,,,,,,,,,,,,,,,,,,,,,,,,,,,,,,,,,,,,,,,,,,
,,,,,,5dee3c313ccb8a4cbe050a84,62bbfb43a391ce9d357778e2,2022-06-29_10h12.15.957,Colour_Asymmetry_Pilot,2022.1.3,Win32,59.95203837,62bbe60bf3d75ef465d3e404,0,135,135,80,1,onetwo,,,,,,,,,,,,,,,,,,,,,,,,,,,,,,,,,,,,,,,,,,,,,,,,,,,,,,,,,,,,,,,,,,,,,,,,,,,,,,,,,,,,,,,,,,,,,,,,,,,,,,,,,,,,,,,,,,,,,,,,,,,,,,,,,,,,,,,,,,,,,,,,,,,,,,,,
,,,,,,5dee3c313ccb8a4cbe050a84,62bbfb43a391ce9d357778e2,2022-06-29_10h12.15.957,Colour_Asymmetry_Pilot,2022.1.3,Win32,59.95203837,62bbe60bf3d75ef465d3e404,0,136,136,134,1,fourtwo,,,,,,,,,,,,,,,,,,,,,,,,,,,,,,,,,,,,,,,,,,,,,,,,,,,,,,,,,,,,,,,,,,,,,,,,,,,,,,,,,,,,,,,,,,,,,,,,,,,,,,,,,,,,,,,,,,,,,,,,,,,,,,,,,,,,,,,,,,,,,,,,,,,,,,,,
,,,,,,5dee3c313ccb8a4cbe050a84,62bbfb43a391ce9d357778e2,2022-06-29_10h12.15.957,Colour_Asymmetry_Pilot,2022.1.3,Win32,59.95203837,62bbe60bf3d75ef465d3e404,0,137,137,91,1,twofour,,,,,,,,,,,,,,,,,,,,,,,,,,,,,,,,,,,,,,,,,,,,,,,,,,,,,,,,,,,,,,,,,,,,,,,,,,,,,,,,,,,,,,,,,,,,,,,,,,,,,,,,,,,,,,,,,,,,,,,,,,,,,,,,,,,,,,,,,,,,,,,,,,,,,,,,
,,,,,,5dee3c313ccb8a4cbe050a84,62bbfb43a391ce9d357778e2,2022-06-29_10h12.15.957,Colour_Asymmetry_Pilot,2022.1.3,Win32,59.95203837,62bbe60bf3d75ef465d3e404,0,138,138,95,1,fourthree,,,,,,,,,,,,,,,,,,,,,,,,,,,,,,,,,,,,,,,,,,,,,,,,,,,,,,,,,,,,,,,,,,,,,,,,,,,,,,,,,,,,,,,,,,,,,,,,,,,,,,,,,,,,,,,,,,,,,,,,,,,,,,,,,,,,,,,,,,,,,,,,,,,,,,,,
,,,,,,5dee3c313ccb8a4cbe050a84,62bbfb43a391ce9d357778e2,2022-06-29_10h12.15.957,Colour_Asymmetry_Pilot,2022.1.3,Win32,59.95203837,62bbe60bf3d75ef465d3e404,0,139,139,99,1,twofour,,,,,,,,,,,,,,,,,,,,,,,,,,,,,,,,,,,,,,,,,,,,,,,,,,,,,,,,,,,,,,,,,,,,,,,,,,,,,,,,,,,,,,,,,,,,,,,,,,,,,,,,,,,,,,,,,,,,,,,,,,,,,,,,,,,,,,,,,,,,,,,,,,,,,,,,
,,,,,,5dee3c313ccb8a4cbe050a84,62bbfb43a391ce9d357778e2,2022-06-29_10h12.15.957,Colour_Asymmetry_Pilot,2022.1.3,Win32,59.95203837,62bbe60bf3d75ef465d3e404,0,140,140,55,1,fourthree,,,,,,,,,,,,,,,,,,,,,,,,,,,,,,,,,,,,,,,,,,,,,,,,,,,,,,,,,,,,,,,,,,,,,,,,,,,,,,,,,,,,,,,,,,,,,,,,,,,,,,,,,,,,,,,,,,,,,,,,,,,,,,,,,,,,,,,,,,,,,,,,,,,,,,,,
,,,,,,5dee3c313ccb8a4cbe050a84,62bbfb43a391ce9d357778e2,2022-06-29_10h12.15.957,Colour_Asymmetry_Pilot,2022.1.3,Win32,59.95203837,62bbe60bf3d75ef465d3e404,0,141,141,106,1,twoone,,,,,,,,,,,,,,,,,,,,,,,,,,,,,,,,,,,,,,,,,,,,,,,,,,,,,,,,,,,,,,,,,,,,,,,,,,,,,,,,,,,,,,,,,,,,,,,,,,,,,,,,,,,,,,,,,,,,,,,,,,,,,,,,,,,,,,,,,,,,,,,,,,,,,,,,
,,,,,,5dee3c313ccb8a4cbe050a84,62bbfb43a391ce9d357778e2,2022-06-29_10h12.15.957,Colour_Asymmetry_Pilot,2022.1.3,Win32,59.95203837,62bbe60bf3d75ef465d3e404,0,142,142,107,1,twofour,,,,,,,,,,,,,,,,,,,,,,,,,,,,,,,,,,,,,,,,,,,,,,,,,,,,,,,,,,,,,,,,,,,,,,,,,,,,,,,,,,,,,,,,,,,,,,,,,,,,,,,,,,,,,,,,,,,,,,,,,,,,,,,,,,,,,,,,,,,,,,,,,,,,,,,,
,,,,,,5dee3c313ccb8a4cbe050a84,62bbfb43a391ce9d357778e2,2022-06-29_10h12.15.957,Colour_Asymmetry_Pilot,2022.1.3,Win32,59.95203837,62bbe60bf3d75ef465d3e404,0,143,143,43,1,twofour,,,,,,,,,,,,,,,,,,,,,,,,,,,,,,,,,,,,,,,,,,,,,,,,,,,,,,,,,,,,,,,,,,,,,,,,,,,,,,,,,,,,,,,,,,,,,,,,,,,,,,,,,,,,,,,,,,,,,,,,,,,,,,,,,,,,,,,,,,,,,,,,,,,,,,,,
,,,,,,5dee3c313ccb8a4cbe050a84,62bbfb43a391ce9d357778e2,2022-06-29_10h12.15.957,Colour_Asymmetry_Pilot,2022.1.3,Win32,59.95203837,62bbe60bf3d75ef465d3e404,0,144,144,119,1,fourthree,,,,,,,,,,,,,,,,,,,,,,,,,,,,,,,,,,,,,,,,,,,,,,,,,,,,,,,,,,,,,,,,,,,,,,,,,,,,,,,,,,,,,,,,,,,,,,,,,,,,,,,,,,,,,,,,,,,,,,,,,,,,,,,,,,,,,,,,,,,,,,,,,,,,,,,,
,,,,,,5dee3c313ccb8a4cbe050a84,62bbfb43a391ce9d357778e2,2022-06-29_10h12.15.957,Colour_Asymmetry_Pilot,2022.1.3,Win32,59.95203837,62bbe60bf3d75ef465d3e404,0,145,145,12,1,threeone,,,,,,,,,,,,,,,,,,,,,,,,,,,,,,,,,,,,,,,,,,,,,,,,,,,,,,,,,,,,,,,,,,,,,,,,,,,,,,,,,,,,,,,,,,,,,,,,,,,,,,,,,,,,,,,,,,,,,,,,,,,,,,,,,,,,,,,,,,,,,,,,,,,,,,,,
,,,,,,5dee3c313ccb8a4cbe050a84,62bbfb43a391ce9d357778e2,2022-06-29_10h12.15.957,Colour_Asymmetry_Pilot,2022.1.3,Win32,59.95203837,62bbe60bf3d75ef465d3e404,0,146,146,143,1,fourthree,,,,,,,,,,,,,,,,,,,,,,,,,,,,,,,,,,,,,,,,,,,,,,,,,,,,,,,,,,,,,,,,,,,,,,,,,,,,,,,,,,,,,,,,,,,,,,,,,,,,,,,,,,,,,,,,,,,,,,,,,,,,,,,,,,,,,,,,,,,,,,,,,,,,,,,,
,,,,,,5dee3c313ccb8a4cbe050a84,62bbfb43a391ce9d357778e2,2022-06-29_10h12.15.957,Colour_Asymmetry_Pilot,2022.1.3,Win32,59.95203837,62bbe60bf3d75ef465d3e404,0,147,147,154,1,twoone,,,,,,,,,,,,,,,,,,,,,,,,,,,,,,,,,,,,,,,,,,,,,,,,,,,,,,,,,,,,,,,,,,,,,,,,,,,,,,,,,,,,,,,,,,,,,,,,,,,,,,,,,,,,,,,,,,,,,,,,,,,,,,,,,,,,,,,,,,,,,,,,,,,,,,,,
,,,,,,5dee3c313ccb8a4cbe050a84,62bbfb43a391ce9d357778e2,2022-06-29_10h12.15.957,Colour_Asymmetry_Pilot,2022.1.3,Win32,59.95203837,62bbe60bf3d75ef465d3e404,0,148,148,17,1,onethree,,,,,,,,,,,,,,,,,,,,,,,,,,,,,,,,,,,,,,,,,,,,,,,,,,,,,,,,,,,,,,,,,,,,,,,,,,,,,,,,,,,,,,,,,,,,,,,,,,,,,,,,,,,,,,,,,,,,,,,,,,,,,,,,,,,,,,,,,,,,,,,,,,,,,,,,
,,,,,,5dee3c313ccb8a4cbe050a84,62bbfb43a391ce9d357778e2,2022-06-29_10h12.15.957,Colour_Asymmetry_Pilot,2022.1.3,Win32,59.95203837,62bbe60bf3d75ef465d3e404,0,149,149,77,1,threefour,,,,,,,,,,,,,,,,,,,,,,,,,,,,,,,,,,,,,,,,,,,,,,,,,,,,,,,,,,,,,,,,,,,,,,,,,,,,,,,,,,,,,,,,,,,,,,,,,,,,,,,,,,,,,,,,,,,,,,,,,,,,,,,,,,,,,,,,,,,,,,,,,,,,,,,,
,,,,,,5dee3c313ccb8a4cbe050a84,62bbfb43a391ce9d357778e2,2022-06-29_10h12.15.957,Colour_Asymmetry_Pilot,2022.1.3,Win32,59.95203837,62bbe60bf3d75ef465d3e404,0,150,150,66,1,twoone,,,,,,,,,,,,,,,,,,,,,,,,,,,,,,,,,,,,,,,,,,,,,,,,,,,,,,,,,,,,,,,,,,,,,,,,,,,,,,,,,,,,,,,,,,,,,,,,,,,,,,,,,,,,,,,,,,,,,,,,,,,,,,,,,,,,,,,,,,,,,,,,,,,,,,,,
,,,,,,5dee3c313ccb8a4cbe050a84,62bbfb43a391ce9d357778e2,2022-06-29_10h12.15.957,Colour_Asymmetry_Pilot,2022.1.3,Win32,59.95203837,62bbe60bf3d75ef465d3e404,0,151,151,84,1,threeone,,,,,,,,,,,,,,,,,,,,,,,,,,,,,,,,,,,,,,,,,,,,,,,,,,,,,,,,,,,,,,,,,,,,,,,,,,,,,,,,,,,,,,,,,,,,,,,,,,,,,,,,,,,,,,,,,,,,,,,,,,,,,,,,,,,,,,,,,,,,,,,,,,,,,,,,
,,,,,,5dee3c313ccb8a4cbe050a84,62bbfb43a391ce9d357778e2,2022-06-29_10h12.15.957,Colour_Asymmetry_Pilot,2022.1.3,Win32,59.95203837,62bbe60bf3d75ef465d3e404,0,152,152,13,1,threefour,,,,,,,,,,,,,,,,,,,,,,,,,,,,,,,,,,,,,,,,,,,,,,,,,,,,,,,,,,,,,,,,,,,,,,,,,,,,,,,,,,,,,,,,,,,,,,,,,,,,,,,,,,,,,,,,,,,,,,,,,,,,,,,,,,,,,,,,,,,,,,,,,,,,,,,,
,,,,,,5dee3c313ccb8a4cbe050a84,62bbfb43a391ce9d357778e2,2022-06-29_10h12.15.957,Colour_Asymmetry_Pilot,2022.1.3,Win32,59.95203837,62bbe60bf3d75ef465d3e404,0,153,153,156,1,threeone,,,,,,,,,,,,,,,,,,,,,,,,,,,,,,,,,,,,,,,,,,,,,,,,,,,,,,,,,,,,,,,,,,,,,,,,,,,,,,,,,,,,,,,,,,,,,,,,,,,,,,,,,,,,,,,,,,,,,,,,,,,,,,,,,,,,,,,,,,,,,,,,,,,,,,,,
,,,,,,5dee3c313ccb8a4cbe050a84,62bbfb43a391ce9d357778e2,2022-06-29_10h12.15.957,Colour_Asymmetry_Pilot,2022.1.3,Win32,59.95203837,62bbe60bf3d75ef465d3e404,0,154,154,132,1,threeone,,,,,,,,,,,,,,,,,,,,,,,,,,,,,,,,,,,,,,,,,,,,,,,,,,,,,,,,,,,,,,,,,,,,,,,,,,,,,,,,,,,,,,,,,,,,,,,,,,,,,,,,,,,,,,,,,,,,,,,,,,,,,,,,,,,,,,,,,,,,,,,,,,,,,,,,
,,,,,,5dee3c313ccb8a4cbe050a84,62bbfb43a391ce9d357778e2,2022-06-29_10h12.15.957,Colour_Asymmetry_Pilot,2022.1.3,Win32,59.95203837,62bbe60bf3d75ef465d3e404,0,155,155,160,1,onetwo,,,,,,,,,,,,,,,,,,,,,,,,,,,,,,,,,,,,,,,,,,,,,,,,,,,,,,,,,,,,,,,,,,,,,,,,,,,,,,,,,,,,,,,,,,,,,,,,,,,,,,,,,,,,,,,,,,,,,,,,,,,,,,,,,,,,,,,,,,,,,,,,,,,,,,,,
,,,,,,5dee3c313ccb8a4cbe050a84,62bbfb43a391ce9d357778e2,2022-06-29_10h12.15.957,Colour_Asymmetry_Pilot,2022.1.3,Win32,59.95203837,62bbe60bf3d75ef465d3e404,0,156,156,157,1,threefour,,,,,,,,,,,,,,,,,,,,,,,,,,,,,,,,,,,,,,,,,,,,,,,,,,,,,,,,,,,,,,,,,,,,,,,,,,,,,,,,,,,,,,,,,,,,,,,,,,,,,,,,,,,,,,,,,,,,,,,,,,,,,,,,,,,,,,,,,,,,,,,,,,,,,,,,
,,,,,,5dee3c313ccb8a4cbe050a84,62bbfb43a391ce9d357778e2,2022-06-29_10h12.15.957,Colour_Asymmetry_Pilot,2022.1.3,Win32,59.95203837,62bbe60bf3d75ef465d3e404,0,157,157,60,1,threeone,,,,,,,,,,,,,,,,,,,,,,,,,,,,,,,,,,,,,,,,,,,,,,,,,,,,,,,,,,,,,,,,,,,,,,,,,,,,,,,,,,,,,,,,,,,,,,,,,,,,,,,,,,,,,,,,,,,,,,,,,,,,,,,,,,,,,,,,,,,,,,,,,,,,,,,,
,,,,,,5dee3c313ccb8a4cbe050a84,62bbfb43a391ce9d357778e2,2022-06-29_10h12.15.957,Colour_Asymmetry_Pilot,2022.1.3,Win32,59.95203837,62bbe60bf3d75ef465d3e404,0,158,158,155,1,twofour,,,,,,,,,,,,,,,,,,,,,,,,,,,,,,,,,,,,,,,,,,,,,,,,,,,,,,,,,,,,,,,,,,,,,,,,,,,,,,,,,,,,,,,,,,,,,,,,,,,,,,,,,,,,,,,,,,,,,,,,,,,,,,,,,,,,,,,,,,,,,,,,,,,,,,,,
,,,,,,5dee3c313ccb8a4cbe050a84,62bbfb43a391ce9d357778e2,2022-06-29_10h12.15.957,Colour_Asymmetry_Pilot,2022.1.3,Win32,59.95203837,62bbe60bf3d75ef465d3e404,0,159,159,126,1,fourtwo,,,,,,,,,,,,,,,,,,,,,,,,,,,,,,,,,,,,,,,,,,,,,,,,,,,,,,,,,,,,,,,,,,,,,,,,,,,,,,,,,,,,,,,,,,,,,,,,,,,,,,,,,,,,,,,,,,,,,,,,,,,,,,,,,,,,,,,,,,,,,,,,,,,,,,,,
,,,,,,5dee3c313ccb8a4cbe050a84,62bbfb43a391ce9d357778e2,2022-06-29_10h12.15.957,Colour_Asymmetry_Pilot,2022.1.3,Win32,59.95203837,62bbe60bf3d75ef465d3e404,0,160,160,151,1,fourthree,,,,,,,,,,,,,,,,,,,,,,,,,,,,,,,,,,,,,,,,,,,,,,,,,,,,,,,,,,,,,,,,,,,,,,,,,,,,,,,,,,,,,,,,,,,,,,,,,,,,,,,,,,,,,,,,,,,,,,,,,,,,,,,,,,,,,,,,,,,,,,,,,,,,,,,,
,,,,,,5dee3c313ccb8a4cbe050a84,62bbfb43a391ce9d357778e2,2022-06-29_10h12.15.957,Colour_Asymmetry_Pilot,2022.1.3,Win32,59.95203837,62bbe60bf3d75ef465d3e404,0,161,161,135,1,fourthree,,,,,,,,,,,,,,,,,,,,,,,,,,,,,,,,,,,,,,,,,,,,,,,,,,,,,,,,,,,,,,,,,,,,,,,,,,,,,,,,,,,,,,,,,,,,,,,,,,,,,,,,,,,,,,,,,,,,,,,,,,,,,,,,,,,,,,,,,,,,,,,,,,,,,,,,
,,,,,,5dee3c313ccb8a4cbe050a84,62bbfb43a391ce9d357778e2,2022-06-29_10h12.15.957,Colour_Asymmetry_Pilot,2022.1.3,Win32,59.95203837,62bbe60bf3d75ef465d3e404,,,,,,,space,1.845,space,2.117,space,19.639,space,6.373,space,0.034,space,2.566,"[0.9686000000000001,0.5763999999999998,0.11359999999999992]",onetwo,"[0.40379999999999994,0.09000000000000008,0.44300000000000006]",-3,5.856,-103,42.5,1,0,0,response7disk_5,-19,-4.5,1,0,0,rectangle_8,150,45.5,1,0,0,response1disk_7,6,3,-12,7.5,1,0,0,rectangle_4,0,0,0,0,1,,,,,,,,,,,,,,,,,,,,,,,,,,,,,,,,,,,,,,,,,,,,,,,,,,,,,,,,,,,,,,,,,,,,,,,,,,,,,,,,,,,,,,,,,,,,,,,,,,,,,,,,
,,,,,,5dee3c313ccb8a4cbe050a84,62bbfb43a391ce9d357778e2,2022-06-29_10h12.15.957,Colour_Asymmetry_Pilot,2022.1.3,Win32,59.95203837,62bbe60bf3d75ef465d3e404,,,,,,,,,,,,,,,,,,,"[-0.6706000000000001,-0.6157999999999999,-0.6786]",threeone,"[0.8115999999999999,-0.0040000000000000036,-0.09819999999999995]",-4,2.285,-67,120.5,1,0,0,response7disk_5,-4,-7.5,1,0,0,rectangle_8,-4,-7.5,1,0,0,,,3,-4,-7.5,1,0,0,,1,0,1,0,1,,,,,,,,,,,,,,,,,,,,,,,,,,,,,,,,,,,,,,,,,,,,,,,,,,,,,,,,,,,,,,,,,,,,,,,,,,,,,,,,,,,,,,,,,,,,,,,,,,,,,,,,
,,,,,,5dee3c313ccb8a4cbe050a84,62bbfb43a391ce9d357778e2,2022-06-29_10h12.15.957,Colour_Asymmetry_Pilot,2022.1.3,Win32,59.95203837,62bbe60bf3d75ef465d3e404,,,,,,,,,,,,,,,,,,,"[-0.8118,-0.8198,-0.5452]",onethree,"[0.9842,0.7409999999999999,-0.6628000000000001]",-4,1.484,-67,107.5,1,0,0,response7disk_5,-9,-14.5,1,0,0,rectangle_8,-9,-14.5,1,0,0,,,3,-9,-14.5,1,0,0,,2,0,2,0,1,,,,,,,,,,,,,,,,,,,,,,,,,,,,,,,,,,,,,,,,,,,,,,,,,,,,,,,,,,,,,,,,,,,,,,,,,,,,,,,,,,,,,,,,,,,,,,,,,,,,,,,,
,,,,,,5dee3c313ccb8a4cbe050a84,62bbfb43a391ce9d357778e2,2022-06-29_10h12.15.957,Colour_Asymmetry_Pilot,2022.1.3,Win32,59.95203837,62bbe60bf3d75ef465d3e404,,,,,,,,,,,,,,,,,,,"[-0.2942,-0.7648,-0.7492000000000001]",twofour,"[0.5449999999999999,-0.31000000000000005,-0.0354000000000001]",-2,1.7,-107,-54.5,1,0,0,response5disk_5,0,-8.5,1,0,0,rectangle_8,114,62.5,1,0,0,response1disk_7,6,3,19,-0.5,1,0,0,rectangle_4,3,0,3,0,1,,,,,,,,,,,,,,,,,,,,,,,,,,,,,,,,,,,,,,,,,,,,,,,,,,,,,,,,,,,,,,,,,,,,,,,,,,,,,,,,,,,,,,,,,,,,,,,,,,,,,,,,
,,,,,,5dee3c313ccb8a4cbe050a84,62bbfb43a391ce9d357778e2,2022-06-29_10h12.15.957,Colour_Asymmetry_Pilot,2022.1.3,Win32,59.95203837,62bbe60bf3d75ef465d3e404,,,,,,,,,,,,,,,,,,,"[0.7646000000000002,0.07440000000000002,0.2704]",onetwo,"[-0.26280000000000003,-0.4746,-0.2158]",-2,2.116,-121,-68.5,1,0,0,response5disk_5,27,4.5,1,0,0,rectangle_8,27,4.5,1,0,0,,,3,27,4.5,1,0,0,,4,0,4,0,1,,,,,,,,,,,,,,,,,,,,,,,,,,,,,,,,,,,,,,,,,,,,,,,,,,,,,,,,,,,,,,,,,,,,,,,,,,,,,,,,,,,,,,,,,,,,,,,,,,,,,,,,
,,,,,,5dee3c313ccb8a4cbe050a84,62bbfb43a391ce9d357778e2,2022-06-29_10h12.15.957,Colour_Asymmetry_Pilot,2022.1.3,Win32,59.95203837,62bbe60bf3d75ef465d3e404,,,,,,,,,,,,,,,,,,,"[0.3802000000000001,0.19199999999999995,-0.6394]",fourtwo,"[0.7646000000000002,0.07440000000000002,0.2704]",1,3.234,61,-129.5,1,0,0,response3disk_5,9,-8.5,1,0,0,rectangle_8,9,-8.5,1,0,0,,,3,9,-8.5,1,0,0,,5,0,5,0,1,,,,,,,,,,,,,,,,,,,,,,,,,,,,,,,,,,,,,,,,,,,,,,,,,,,,,,,,,,,,,,,,,,,,,,,,,,,,,,,,,,,,,,,,,,,,,,,,,,,,,,,,
,,,,,,5dee3c313ccb8a4cbe050a84,62bbfb43a391ce9d357778e2,2022-06-29_10h12.15.957,Colour_Asymmetry_Pilot,2022.1.3,Win32,59.95203837,62bbe60bf3d75ef465d3e404,,,,,,,,,,,,,,,,,,,"[0.09799999999999986,-0.24719999999999998,0.15280000000000005]",fourthree,"[-0.050999999999999934,-0.6706000000000001,-0.804]",2,1.217,125,-62.5,1,0,0,response3disk_5,2,-12.5,1,0,0,rectangle_8,2,-12.5,1,0,0,,,3,2,-12.5,1,0,0,,6,0,6,0,1,,,,,,,,,,,,,,,,,,,,,,,,,,,,,,,,,,,,,,,,,,,,,,,,,,,,,,,,,,,,,,,,,,,,,,,,,,,,,,,,,,,,,,,,,,,,,,,,,,,,,,,,
,,,,,,5dee3c313ccb8a4cbe050a84,62bbfb43a391ce9d357778e2,2022-06-29_10h12.15.957,Colour_Asymmetry_Pilot,2022.1.3,Win32,59.95203837,62bbe60bf3d75ef465d3e404,,,,,,,,,,,,,,,,,,,,onetwo,,-4,1.683,,,,,,,,,,,,,,,,,,,,,,,,,,,,,,,,space,2.847,"[-0.4902000000000001,0.2704,-0.45899999999999996]","[-0.9766,-0.6472,0.07440000000000002]",-63,94.5,1,0,0,response7disk,-7,1.5,1,0,0,rectangle,-7,1.5,1,0,0,,3,0.004,0,-7,1.5,1,0,0,0,0,0,100,1,19,second,,,,,,,,,,,,,,,,,,,,,,,,,,,,,,,,,,,,,,,,,,,,,,,,,,,,,,,,,,,,,,,,,,,
,,,,,,5dee3c313ccb8a4cbe050a84,62bbfb43a391ce9d357778e2,2022-06-29_10h12.15.957,Colour_Asymmetry_Pilot,2022.1.3,Win32,59.95203837,62bbe60bf3d75ef465d3e404,,,,,,,,,,,,,,,,,,,,fourthree,,1,1.7,,,,,,,,,,,,,,,,,,,,,,,,,,,,,,,,,,"[0.37240000000000006,0.4980000000000002,-0.2864]","[0.7802,-0.23140000000000005,-0.20799999999999996]",63,-121.5,1,0,0,response3disk,-6,-7.5,1,0,0,rectangle,-6,-7.5,1,0,0,,1,0.003,0,-6,-7.5,1,0,0,0,1,1,34,1,34,first,,,,,,,,,,,,,,,,,,,,,,,,,,,,,,,,,,,,,,,,,,,,,,,,,,,,,,,,,,,,,,,,,,,
,,,,,,5dee3c313ccb8a4cbe050a84,62bbfb43a391ce9d357778e2,2022-06-29_10h12.15.957,Colour_Asymmetry_Pilot,2022.1.3,Win32,59.95203837,62bbe60bf3d75ef465d3e404,,,,,,,,,,,,,,,,,,,,fourthree,,2,0.816,,,,,,,,,,,,,,,,,,,,,,,,,,,,,,,,,,"[0.6547999999999998,-0.043199999999999905,-0.011800000000000033]","[0.23920000000000008,0.2704,0.16060000000000008]",117,-48.5,1,0,0,response3disk,6,-4.5,1,0,0,rectangle,6,-4.5,1,0,0,,1,0,0,6,-4.5,1,0,0,0,2,2,40,1,40,first,,,,,,,,,,,,,,,,,,,,,,,,,,,,,,,,,,,,,,,,,,,,,,,,,,,,,,,,,,,,,,,,,,,
,,,,,,5dee3c313ccb8a4cbe050a84,62bbfb43a391ce9d357778e2,2022-06-29_10h12.15.957,Colour_Asymmetry_Pilot,2022.1.3,Win32,59.95203837,62bbe60bf3d75ef465d3e404,,,,,,,,,,,,,,,,,,,,onethree,,-4,0.649,,,,,,,,,,,,,,,,,,,,,,,,,,,,,,,,,,"[-0.4982,-0.2942,-0.0354000000000001]","[0.9842,0.7409999999999999,-0.6628000000000001]",-66,116.5,1,0,0,response7disk,-2,-0.5,1,0,0,rectangle,-2,-0.5,1,0,0,,2,0.002,0,-2,-0.5,1,0,0,0,3,3,24,1,24,first,,,,,,,,,,,,,,,,,,,,,,,,,,,,,,,,,,,,,,,,,,,,,,,,,,,,,,,,,,,,,,,,,,,
,,,,,,5dee3c313ccb8a4cbe050a84,62bbfb43a391ce9d357778e2,2022-06-29_10h12.15.957,Colour_Asymmetry_Pilot,2022.1.3,Win32,59.95203837,62bbe60bf3d75ef465d3e404,,,,,,,,,,,,,,,,,,,,onethree,,2,0.999,,,,,,,,,,,,,,,,,,,,,,,,,,,,,,,,,,"[0.2784,-0.31000000000000005,-0.5452]","[-0.20799999999999996,-0.655,-0.01980000000000004]",123,-69.5,1,0,0,response3disk,-26,-11.5,1,0,0,rectangle,-26,-11.5,1,0,0,,1,0.003,0,-26,-11.5,1,0,0,0,4,4,152,1,71,second,,,,,,,,,,,,,,,,,,,,,,,,,,,,,,,,,,,,,,,,,,,,,,,,,,,,,,,,,,,,,,,,,,,
,,,,,,5dee3c313ccb8a4cbe050a84,62bbfb43a391ce9d357778e2,2022-06-29_10h12.15.957,Colour_Asymmetry_Pilot,2022.1.3,Win32,59.95203837,62bbe60bf3d75ef465d3e404,,,,,,,,,,,,,,,,,,,,twoone,,3,0.7,,,,,,,,,,,,,,,,,,,,,,,,,,,,,,,,,,"[-0.9688,-0.38039999999999996,-0.41979999999999995]","[-0.45899999999999996,-0.3256,-0.9374]",147,86.5,1,0,0,response1disk,-3,14.5,1,0,0,rectangle,-3,14.5,1,0,0,,1,0,0,-3,14.5,1,0,0,0,5,5,122,1,41,second,,,,,,,,,,,,,,,,,,,,,,,,,,,,,,,,,,,,,,,,,,,,,,,,,,,,,,,,,,,,,,,,,,,
,,,,,,5dee3c313ccb8a4cbe050a84,62bbfb43a391ce9d357778e2,2022-06-29_10h12.15.957,Colour_Asymmetry_Pilot,2022.1.3,Win32,59.95203837,62bbe60bf3d75ef465d3e404,,,,,,,,,,,,,,,,,,,,fourtwo,,2,0.882,,,,,,,,,,,,,,,,,,,,,,,,,,,,,,,,,,"[-0.26280000000000003,-0.4746,-0.2158]","[0.23120000000000007,-0.7726,-0.34120000000000006]",109,-47.5,1,0,0,response3disk,-9,-6.5,1,0,0,rectangle,-9,-6.5,1,0,0,,2,0.002,0,-9,-6.5,1,0,0,0,6,6,134,1,53,second,,,,,,,,,,,,,,,,,,,,,,,,,,,,,,,,,,,,,,,,,,,,,,,,,,,,,,,,,,,,,,,,,,,
,,,,,,5dee3c313ccb8a4cbe050a84,62bbfb43a391ce9d357778e2,2022-06-29_10h12.15.957,Colour_Asymmetry_Pilot,2022.1.3,Win32,59.95203837,62bbe60bf3d75ef465d3e404,,,,,,,,,,,,,,,,,,,,twoone,,-4,0.499,,,,,,,,,,,,,,,,,,,,,,,,,,,,,,,,,,"[-0.9296,-0.12959999999999994,-0.043199999999999905]","[0.9763999999999999,0.30979999999999985,-0.6786]",-68,131.5,1,0,0,response7disk,-3,-5.5,1,0,0,rectangle,126,60.5,1,0,0,3,3,2.516,1,18,-12.5,1,0,0,0,7,7,161,1,80,second,response1disk_3,rectangle,,,,,,,,,,,,,,,,,,,,,,,,,,,,,,,,,,,,,,,,,,,,,,,,,,,,,,,,,,,,,,,,,
,,,,,,5dee3c313ccb8a4cbe050a84,62bbfb43a391ce9d357778e2,2022-06-29_10h12.15.957,Colour_Asymmetry_Pilot,2022.1.3,Win32,59.95203837,62bbe60bf3d75ef465d3e404,,,,,,,,,,,,,,,,,,,,fourthree,,-3,1.783,,,,,,,,,,,,,,,,,,,,,,,,,,,,,,,,,,"[-0.9766,-0.34920000000000007,0.2156]","[0.0351999999999999,0.41159999999999997,0.0038000000000000256]",-71,41.5,1,0,0,response7disk,-28,8.5,1,0,0,rectangle,-28,8.5,1,0,0,3,1,0.002,0,-28,8.5,1,0,0,0,8,8,26,1,26,first,,,,,,,,,,,,,,,,,,,,,,,,,,,,,,,,,,,,,,,,,,,,,,,,,,,,,,,,,,,,,,,,,,,
,,,,,,5dee3c313ccb8a4cbe050a84,62bbfb43a391ce9d357778e2,2022-06-29_10h12.15.957,Colour_Asymmetry_Pilot,2022.1.3,Win32,59.95203837,62bbe60bf3d75ef465d3e404,,,,,,,,,,,,,,,,,,,,onethree,,-4,0.433,,,,,,,,,,,,,,,,,,,,,,,,,,,,,,,,,,"[-0.8982,-0.37259999999999993,0.2784]","[0.9763999999999999,-0.1137999999999999,-0.6314]",-42,129.5,1,0,0,response7disk,4,7.5,1,0,0,rectangle,4,7.5,1,0,0,3,2,0.003,0,4,7.5,1,0,0,0,9,9,95,1,14,second,,,,,,,,,,,,,,,,,,,,,,,,,,,,,,,,,,,,,,,,,,,,,,,,,,,,,,,,,,,,,,,,,,,
,,,,,,5dee3c313ccb8a4cbe050a84,62bbfb43a391ce9d357778e2,2022-06-29_10h12.15.957,Colour_Asymmetry_Pilot,2022.1.3,Win32,59.95203837,62bbe60bf3d75ef465d3e404,,,,,,,,,,,,,,,,,,,,fourtwo,,3,0.766,,,,,,,,,,,,,,,,,,,,,,,,,,,,,,,,,,"[-0.45899999999999996,-0.3256,-0.9374]","[-0.8198,-0.5138,-0.7492000000000001]",113,63.5,1,0,0,response1disk,0,-4.5,1,0,0,rectangle,0,-4.5,1,0,0,3,1,0.002,0,0,-4.5,1,0,0,0,10,10,2,1,2,first,,,,,,,,,,,,,,,,,,,,,,,,,,,,,,,,,,,,,,,,,,,,,,,,,,,,,,,,,,,,,,,,,,,
,,,,,,5dee3c313ccb8a4cbe050a84,62bbfb43a391ce9d357778e2,2022-06-29_10h12.15.957,Colour_Asymmetry_Pilot,2022.1.3,Win32,59.95203837,62bbe60bf3d75ef465d3e404,,,,,,,,,,,,,,,,,,,,threefour,,2,1.083,,,,,,,,,,,,,,,,,,,,,,,,,,,,,,,,,,"[-0.38039999999999996,-0.4276,-0.1452]","[-0.9766,-0.34920000000000007,0.2156]",108,-66.5,1,0,0,response3disk,9,-2.5,1,0,0,rectangle,9,-2.5,1,0,0,3,2,0.002,0,9,-2.5,1,0,0,0,11,11,13,1,13,first,,,,,,,,,,,,,,,,,,,,,,,,,,,,,,,,,,,,,,,,,,,,,,,,,,,,,,,,,,,,,,,,,,,
,,,,,,5dee3c313ccb8a4cbe050a84,62bbfb43a391ce9d357778e2,2022-06-29_10h12.15.957,Colour_Asymmetry_Pilot,2022.1.3,Win32,59.95203837,62bbe60bf3d75ef465d3e404,,,,,,,,,,,,,,,,,,,,fourtwo,,-3,1.551,,,,,,,,,,,,,,,,,,,,,,,,,,,,,,,,,,"[-0.8118,-0.8198,-0.5452]","[0.22340000000000004,-0.9296,-0.7884]",-119,42.5,1,0,0,response7disk,4,14.5,1,0,0,rectangle,4,14.5,1,0,0,3,2,0,0,4,14.5,1,0,0,0,12,12,101,1,20,second,,,,,,,,,,,,,,,,,,,,,,,,,,,,,,,,,,,,,,,,,,,,,,,,,,,,,,,,,,,,,,,,,,,
,,,,,,5dee3c313ccb8a4cbe050a84,62bbfb43a391ce9d357778e2,2022-06-29_10h12.15.957,Colour_Asymmetry_Pilot,2022.1.3,Win32,59.95203837,62bbe60bf3d75ef465d3e404,,,,,,,,,,,,,,,,,,,,onethree,,-4,0.351,,,,,,,,,,,,,,,,,,,,,,,,,,,,,,,,,,"[0.18419999999999992,-0.4276,-0.404]","[0.6625999999999999,0.4980000000000002,-0.357]",-40,102.5,1,0,0,response7disk,4,-10.5,1,0,0,rectangle,4,-10.5,1,0,0,3,2,0.001,0,4,-10.5,1,0,0,0,13,13,72,1,72,first,,,,,,,,,,,,,,,,,,,,,,,,,,,,,,,,,,,,,,,,,,,,,,,,,,,,,,,,,,,,,,,,,,,
,,,,,,5dee3c313ccb8a4cbe050a84,62bbfb43a391ce9d357778e2,2022-06-29_10h12.15.957,Colour_Asymmetry_Pilot,2022.1.3,Win32,59.95203837,62bbe60bf3d75ef465d3e404,,,,,,,,,,,,,,,,,,,,twoone,,1,1.916,,,,,,,,,,,,,,,,,,,,,,,,,,,,,,,,,,"[0.0351999999999999,0.41159999999999997,0.0038000000000000256]","[0.9763999999999999,0.30979999999999985,-0.6786]",79,-118.5,1,0,0,response3disk,2,17.5,1,0,0,rectangle,2,17.5,1,0,0,3,2,0,0,2,17.5,1,0,0,0,14,14,23,1,23,first,,,,,,,,,,,,,,,,,,,,,,,,,,,,,,,,,,,,,,,,,,,,,,,,,,,,,,,,,,,,,,,,,,,
,,,,,,5dee3c313ccb8a4cbe050a84,62bbfb43a391ce9d357778e2,2022-06-29_10h12.15.957,Colour_Asymmetry_Pilot,2022.1.3,Win32,59.95203837,62bbe60bf3d75ef465d3e404,,,,,,,,,,,,,,,,,,,,threefour,,2,2.082,,,,,,,,,,,,,,,,,,,,,,,,,,,,,,,,,,"[-0.9688,-0.7412000000000001,-0.4902000000000001]","[-0.6,0.16860000000000008,0.44300000000000006]",114,-47.5,1,0,0,response3disk,28,-1.5,1,0,0,rectangle,28,-1.5,1,0,0,3,1,0.004,0,28,-1.5,1,0,0,0,15,15,90,1,9,second,,,,,,,,,,,,,,,,,,,,,,,,,,,,,,,,,,,,,,,,,,,,,,,,,,,,,,,,,,,,,,,,,,,
,,,,,,5dee3c313ccb8a4cbe050a84,62bbfb43a391ce9d357778e2,2022-06-29_10h12.15.957,Colour_Asymmetry_Pilot,2022.1.3,Win32,59.95203837,62bbe60bf3d75ef465d3e404,,,,,,,,,,,,,,,,,,,,threefour,,2,0.934,,,,,,,,,,,,,,,,,,,,,,,,,,,,,,,,,,"[0.05879999999999996,0.2784,0.5841999999999998]","[-0.9688,-0.7412000000000001,-0.4902000000000001]",95,-53.5,1,0,0,response3disk,-17,-4.5,1,0,0,rectangle,-17,-4.5,1,0,0,3,1,0,0,-17,-4.5,1,0,0,0,16,16,58,1,58,first,,,,,,,,,,,,,,,,,,,,,,,,,,,,,,,,,,,,,,,,,,,,,,,,,,,,,,,,,,,,,,,,,,,
,,,,,,5dee3c313ccb8a4cbe050a84,62bbfb43a391ce9d357778e2,2022-06-29_10h12.15.957,Colour_Asymmetry_Pilot,2022.1.3,Win32,59.95203837,62bbe60bf3d75ef465d3e404,,,,,,,,,,,,,,,,,,,,fourtwo,,-4,0.768,,,,,,,,,,,,,,,,,,,,,,,,,,,,,,,,,,"[-0.6235999999999999,-0.6786,-0.08239999999999992]","[0.9842,0.7409999999999999,-0.6628000000000001]",-65,119.5,1,0,0,response7disk,-5,-11.5,1,0,0,rectangle,64,-126.5,1,0,0,1,1,1.533,1,-2,-11.5,1,0,0,0,17,17,55,1,55,first,response3disk_3,rectangle,,,,,,,,,,,,,,,,,,,,,,,,,,,,,,,,,,,,,,,,,,,,,,,,,,,,,,,,,,,,,,,,,
,,,,,,5dee3c313ccb8a4cbe050a84,62bbfb43a391ce9d357778e2,2022-06-29_10h12.15.957,Colour_Asymmetry_Pilot,2022.1.3,Win32,59.95203837,62bbe60bf3d75ef465d3e404,,,,,,,,,,,,,,,,,,,,onethree,,2,0.535,,,,,,,,,,,,,,,,,,,,,,,,,,,,,,,,,,"[-0.26280000000000003,-0.2158,-0.3256]","[-0.9688,-0.4902000000000001,-0.12159999999999993]",101,-49.5,1,0,0,response3disk,-26,-4.5,1,0,0,rectangle,-26,-4.5,1,0,0,1,2,0.002,0,-26,-4.5,1,0,0,0,18,18,129,1,48,second,,,,,,,,,,,,,,,,,,,,,,,,,,,,,,,,,,,,,,,,,,,,,,,,,,,,,,,,,,,,,,,,,,,
,,,,,,5dee3c313ccb8a4cbe050a84,62bbfb43a391ce9d357778e2,2022-06-29_10h12.15.957,Colour_Asymmetry_Pilot,2022.1.3,Win32,59.95203837,62bbe60bf3d75ef465d3e404,,,,,,,,,,,,,,,,,,,,onethree,,-4,1.333,,,,,,,,,,,,,,,,,,,,,,,,,,,,,,,,,,"[-0.09019999999999995,0.44300000000000006,0.5371999999999999]","[-0.0040000000000000036,0.02739999999999987,-0.08239999999999992]",-53,96.5,1,0,0,response7disk,12,-5.5,1,0,0,rectangle,65,-130.5,1,0,0,1,1,2.1,1,2,-5.5,1,0,0,0,19,19,97,1,16,second,response3disk_3,rectangle,,,,,,,,,,,,,,,,,,,,,,,,,,,,,,,,,,,,,,,,,,,,,,,,,,,,,,,,,,,,,,,,,
