trials.thisRepN,trials.thisTrialN,trials.thisN,trials.thisIndex,trials.ran,Colourcodes,participant,session,date,expName,psychopyVersion,OS,frameRate,study_id,trials_4.thisRepN,trials_4.thisTrialN,trials_4.thisN,trials_4.thisIndex,trials_4.ran,StimulusPos,key_resp.keys,key_resp.rt,key_resp_2.keys,key_resp_2.rt,key_resp_15.keys,key_resp_15.rt,key_resp_17.keys,key_resp_17.rt,key_resp_9.keys,key_resp_9.rt,key_resp_10.keys,key_resp_10.rt,Circle1_col,Ecc,Circle2_col,similarity,response_time,mouse_5.x,mouse_5.y,mouse_5.leftButton,mouse_5.midButton,mouse_5.rightButton,mouse_5.clicked_name,mouse_10.x,mouse_10.y,mouse_10.leftButton,mouse_10.midButton,mouse_10.rightButton,mouse_10.clicked_name,mouse_7.x,mouse_7.y,mouse_7.leftButton,mouse_7.midButton,mouse_7.rightButton,catchnumberprac,mouse_6.x,mouse_6.y,mouse_6.leftButton,mouse_6.midButton,mouse_6.rightButton,duringprac.thisRepN,duringprac.thisTrialN,duringprac.thisN,duringprac.thisIndex,duringprac.ran,mouse_7.clicked_name,catchprac,mouse_6.clicked_name,key_resp_22.keys,key_resp_22.rt,Circle1_colour,Circle2_colour,mouse.x,mouse.y,mouse.leftButton,mouse.midButton,mouse.rightButton,mouse.clicked_name,mouse_2.x,mouse_2.y,mouse_2.leftButton,mouse_2.midButton,mouse_2.rightButton,mouse_2.clicked_name,mouse_3.x,mouse_3.y,mouse_3.leftButton,mouse_3.midButton,mouse_3.rightButton,catchresponse,catchnumber,response_time_catch,Catch,mouse_11.x,mouse_11.y,mouse_11.leftButton,mouse_11.midButton,mouse_11.rightButton,trials_2.thisRepN,trials_2.thisTrialN,trials_2.thisN,trials_2.thisIndex,trials_2.ran,Colourpair,Temporder,mouse_3.clicked_name,mouse_11.clicked_name,trials_3.thisRepN,trials_3.thisTrialN,trials_3.thisN,trials_3.thisIndex,trials_3.ran,key_resp_instr_Ishi.keys,key_resp_instr_Ishi.rt,Ishi_trial_keyresp.keys,Ishi_trial_keyresp.rt,Ishi_textbox.text,Ishi_loop.thisRepN,Ishi_loop.thisTrialN,Ishi_loop.thisN,Ishi_loop.thisIndex,Ishi_loop.ran,imageaddress,textbox.text,mouse_4.x,mouse_4.y,mouse_4.leftButton,mouse_4.midButton,mouse_4.rightButton,mouse_4.clicked_name,textbox_2.text,mouse_8.x,mouse_8.y,mouse_8.leftButton,mouse_8.midButton,mouse_8.rightButton,mouse_8.clicked_name,textbox_3.text,mouse_9.x,mouse_9.y,mouse_9.leftButton,mouse_9.midButton,mouse_9.rightButton,mouse_9.clicked_name,textbox_4.text,mouse_12.x,mouse_12.y,mouse_12.leftButton,mouse_12.midButton,mouse_12.rightButton,mouse_12.clicked_name,textbox_5.text,mouse_13.x,mouse_13.y,mouse_13.leftButton,mouse_13.midButton,mouse_13.rightButton,mouse_13.clicked_name,textbox_6.text,mouse_14.x,mouse_14.y,mouse_14.leftButton,mouse_14.midButton,mouse_14.rightButton,mouse_14.clicked_name,textbox_7.text,mouse_15.x,mouse_15.y,mouse_15.leftButton,mouse_15.midButton,mouse_15.rightButton,mouse_15.clicked_name
0,0,0,72,1,,602d29200724e36ae7a9def2,62bc3b3d22e728ce4bf89c35,2022-06-29_13h45.09.385,Colour_Asymmetry_Pilot,2022.1.3,Win32,60.20107158,62bbe60bf3d75ef465d3e404,,,,,,,,,,,,,,,,,,,,,,,,,,,,,,,,,,,,,,,,,,,,,,,,,,,,,,,,,,,,,,,,,,,,,,,,,,,,,,,,,,,,,,,,,,,,,,,,,,,,,,,,,,,,,,,,,,,,,,,,,,,,,,,,,,,,,,,,,,,,,,,,,,,,,,,,,,,,,,
0,1,1,2,1,,602d29200724e36ae7a9def2,62bc3b3d22e728ce4bf89c35,2022-06-29_13h45.09.385,Colour_Asymmetry_Pilot,2022.1.3,Win32,60.20107158,62bbe60bf3d75ef465d3e404,,,,,,,,,,,,,,,,,,,,,,,,,,,,,,,,,,,,,,,,,,,,,,,,,,,,,,,,,,,,,,,,,,,,,,,,,,,,,,,,,,,,,,,,,,,,,,,,,,,,,,,,,,,,,,,,,,,,,,,,,,,,,,,,,,,,,,,,,,,,,,,,,,,,,,,,,,,,,,
0,2,2,77,1,,602d29200724e36ae7a9def2,62bc3b3d22e728ce4bf89c35,2022-06-29_13h45.09.385,Colour_Asymmetry_Pilot,2022.1.3,Win32,60.20107158,62bbe60bf3d75ef465d3e404,,,,,,,,,,,,,,,,,,,,,,,,,,,,,,,,,,,,,,,,,,,,,,,,,,,,,,,,,,,,,,,,,,,,,,,,,,,,,,,,,,,,,,,,,,,,,,,,,,,,,,,,,,,,,,,,,,,,,,,,,,,,,,,,,,,,,,,,,,,,,,,,,,,,,,,,,,,,,,
0,3,3,10,1,,602d29200724e36ae7a9def2,62bc3b3d22e728ce4bf89c35,2022-06-29_13h45.09.385,Colour_Asymmetry_Pilot,2022.1.3,Win32,60.20107158,62bbe60bf3d75ef465d3e404,,,,,,,,,,,,,,,,,,,,,,,,,,,,,,,,,,,,,,,,,,,,,,,,,,,,,,,,,,,,,,,,,,,,,,,,,,,,,,,,,,,,,,,,,,,,,,,,,,,,,,,,,,,,,,,,,,,,,,,,,,,,,,,,,,,,,,,,,,,,,,,,,,,,,,,,,,,,,,
0,4,4,69,1,,602d29200724e36ae7a9def2,62bc3b3d22e728ce4bf89c35,2022-06-29_13h45.09.385,Colour_Asymmetry_Pilot,2022.1.3,Win32,60.20107158,62bbe60bf3d75ef465d3e404,,,,,,,,,,,,,,,,,,,,,,,,,,,,,,,,,,,,,,,,,,,,,,,,,,,,,,,,,,,,,,,,,,,,,,,,,,,,,,,,,,,,,,,,,,,,,,,,,,,,,,,,,,,,,,,,,,,,,,,,,,,,,,,,,,,,,,,,,,,,,,,,,,,,,,,,,,,,,,
0,5,5,38,1,,602d29200724e36ae7a9def2,62bc3b3d22e728ce4bf89c35,2022-06-29_13h45.09.385,Colour_Asymmetry_Pilot,2022.1.3,Win32,60.20107158,62bbe60bf3d75ef465d3e404,,,,,,,,,,,,,,,,,,,,,,,,,,,,,,,,,,,,,,,,,,,,,,,,,,,,,,,,,,,,,,,,,,,,,,,,,,,,,,,,,,,,,,,,,,,,,,,,,,,,,,,,,,,,,,,,,,,,,,,,,,,,,,,,,,,,,,,,,,,,,,,,,,,,,,,,,,,,,,
0,6,6,9,1,,602d29200724e36ae7a9def2,62bc3b3d22e728ce4bf89c35,2022-06-29_13h45.09.385,Colour_Asymmetry_Pilot,2022.1.3,Win32,60.20107158,62bbe60bf3d75ef465d3e404,,,,,,,,,,,,,,,,,,,,,,,,,,,,,,,,,,,,,,,,,,,,,,,,,,,,,,,,,,,,,,,,,,,,,,,,,,,,,,,,,,,,,,,,,,,,,,,,,,,,,,,,,,,,,,,,,,,,,,,,,,,,,,,,,,,,,,,,,,,,,,,,,,,,,,,,,,,,,,
0,7,7,71,1,,602d29200724e36ae7a9def2,62bc3b3d22e728ce4bf89c35,2022-06-29_13h45.09.385,Colour_Asymmetry_Pilot,2022.1.3,Win32,60.20107158,62bbe60bf3d75ef465d3e404,,,,,,,,,,,,,,,,,,,,,,,,,,,,,,,,,,,,,,,,,,,,,,,,,,,,,,,,,,,,,,,,,,,,,,,,,,,,,,,,,,,,,,,,,,,,,,,,,,,,,,,,,,,,,,,,,,,,,,,,,,,,,,,,,,,,,,,,,,,,,,,,,,,,,,,,,,,,,,
0,8,8,64,1,,602d29200724e36ae7a9def2,62bc3b3d22e728ce4bf89c35,2022-06-29_13h45.09.385,Colour_Asymmetry_Pilot,2022.1.3,Win32,60.20107158,62bbe60bf3d75ef465d3e404,,,,,,,,,,,,,,,,,,,,,,,,,,,,,,,,,,,,,,,,,,,,,,,,,,,,,,,,,,,,,,,,,,,,,,,,,,,,,,,,,,,,,,,,,,,,,,,,,,,,,,,,,,,,,,,,,,,,,,,,,,,,,,,,,,,,,,,,,,,,,,,,,,,,,,,,,,,,,,
0,9,9,79,1,,602d29200724e36ae7a9def2,62bc3b3d22e728ce4bf89c35,2022-06-29_13h45.09.385,Colour_Asymmetry_Pilot,2022.1.3,Win32,60.20107158,62bbe60bf3d75ef465d3e404,,,,,,,,,,,,,,,,,,,,,,,,,,,,,,,,,,,,,,,,,,,,,,,,,,,,,,,,,,,,,,,,,,,,,,,,,,,,,,,,,,,,,,,,,,,,,,,,,,,,,,,,,,,,,,,,,,,,,,,,,,,,,,,,,,,,,,,,,,,,,,,,,,,,,,,,,,,,,,
0,10,10,30,1,,602d29200724e36ae7a9def2,62bc3b3d22e728ce4bf89c35,2022-06-29_13h45.09.385,Colour_Asymmetry_Pilot,2022.1.3,Win32,60.20107158,62bbe60bf3d75ef465d3e404,,,,,,,,,,,,,,,,,,,,,,,,,,,,,,,,,,,,,,,,,,,,,,,,,,,,,,,,,,,,,,,,,,,,,,,,,,,,,,,,,,,,,,,,,,,,,,,,,,,,,,,,,,,,,,,,,,,,,,,,,,,,,,,,,,,,,,,,,,,,,,,,,,,,,,,,,,,,,,
0,11,11,24,1,,602d29200724e36ae7a9def2,62bc3b3d22e728ce4bf89c35,2022-06-29_13h45.09.385,Colour_Asymmetry_Pilot,2022.1.3,Win32,60.20107158,62bbe60bf3d75ef465d3e404,,,,,,,,,,,,,,,,,,,,,,,,,,,,,,,,,,,,,,,,,,,,,,,,,,,,,,,,,,,,,,,,,,,,,,,,,,,,,,,,,,,,,,,,,,,,,,,,,,,,,,,,,,,,,,,,,,,,,,,,,,,,,,,,,,,,,,,,,,,,,,,,,,,,,,,,,,,,,,
0,12,12,50,1,,602d29200724e36ae7a9def2,62bc3b3d22e728ce4bf89c35,2022-06-29_13h45.09.385,Colour_Asymmetry_Pilot,2022.1.3,Win32,60.20107158,62bbe60bf3d75ef465d3e404,,,,,,,,,,,,,,,,,,,,,,,,,,,,,,,,,,,,,,,,,,,,,,,,,,,,,,,,,,,,,,,,,,,,,,,,,,,,,,,,,,,,,,,,,,,,,,,,,,,,,,,,,,,,,,,,,,,,,,,,,,,,,,,,,,,,,,,,,,,,,,,,,,,,,,,,,,,,,,
0,13,13,81,1,,602d29200724e36ae7a9def2,62bc3b3d22e728ce4bf89c35,2022-06-29_13h45.09.385,Colour_Asymmetry_Pilot,2022.1.3,Win32,60.20107158,62bbe60bf3d75ef465d3e404,,,,,,,,,,,,,,,,,,,,,,,,,,,,,,,,,,,,,,,,,,,,,,,,,,,,,,,,,,,,,,,,,,,,,,,,,,,,,,,,,,,,,,,,,,,,,,,,,,,,,,,,,,,,,,,,,,,,,,,,,,,,,,,,,,,,,,,,,,,,,,,,,,,,,,,,,,,,,,
0,14,14,84,1,,602d29200724e36ae7a9def2,62bc3b3d22e728ce4bf89c35,2022-06-29_13h45.09.385,Colour_Asymmetry_Pilot,2022.1.3,Win32,60.20107158,62bbe60bf3d75ef465d3e404,,,,,,,,,,,,,,,,,,,,,,,,,,,,,,,,,,,,,,,,,,,,,,,,,,,,,,,,,,,,,,,,,,,,,,,,,,,,,,,,,,,,,,,,,,,,,,,,,,,,,,,,,,,,,,,,,,,,,,,,,,,,,,,,,,,,,,,,,,,,,,,,,,,,,,,,,,,,,,
0,15,15,16,1,,602d29200724e36ae7a9def2,62bc3b3d22e728ce4bf89c35,2022-06-29_13h45.09.385,Colour_Asymmetry_Pilot,2022.1.3,Win32,60.20107158,62bbe60bf3d75ef465d3e404,,,,,,,,,,,,,,,,,,,,,,,,,,,,,,,,,,,,,,,,,,,,,,,,,,,,,,,,,,,,,,,,,,,,,,,,,,,,,,,,,,,,,,,,,,,,,,,,,,,,,,,,,,,,,,,,,,,,,,,,,,,,,,,,,,,,,,,,,,,,,,,,,,,,,,,,,,,,,,
0,16,16,15,1,,602d29200724e36ae7a9def2,62bc3b3d22e728ce4bf89c35,2022-06-29_13h45.09.385,Colour_Asymmetry_Pilot,2022.1.3,Win32,60.20107158,62bbe60bf3d75ef465d3e404,,,,,,,,,,,,,,,,,,,,,,,,,,,,,,,,,,,,,,,,,,,,,,,,,,,,,,,,,,,,,,,,,,,,,,,,,,,,,,,,,,,,,,,,,,,,,,,,,,,,,,,,,,,,,,,,,,,,,,,,,,,,,,,,,,,,,,,,,,,,,,,,,,,,,,,,,,,,,,
0,17,17,17,1,,602d29200724e36ae7a9def2,62bc3b3d22e728ce4bf89c35,2022-06-29_13h45.09.385,Colour_Asymmetry_Pilot,2022.1.3,Win32,60.20107158,62bbe60bf3d75ef465d3e404,,,,,,,,,,,,,,,,,,,,,,,,,,,,,,,,,,,,,,,,,,,,,,,,,,,,,,,,,,,,,,,,,,,,,,,,,,,,,,,,,,,,,,,,,,,,,,,,,,,,,,,,,,,,,,,,,,,,,,,,,,,,,,,,,,,,,,,,,,,,,,,,,,,,,,,,,,,,,,
0,18,18,8,1,,602d29200724e36ae7a9def2,62bc3b3d22e728ce4bf89c35,2022-06-29_13h45.09.385,Colour_Asymmetry_Pilot,2022.1.3,Win32,60.20107158,62bbe60bf3d75ef465d3e404,,,,,,,,,,,,,,,,,,,,,,,,,,,,,,,,,,,,,,,,,,,,,,,,,,,,,,,,,,,,,,,,,,,,,,,,,,,,,,,,,,,,,,,,,,,,,,,,,,,,,,,,,,,,,,,,,,,,,,,,,,,,,,,,,,,,,,,,,,,,,,,,,,,,,,,,,,,,,,
0,19,19,11,1,,602d29200724e36ae7a9def2,62bc3b3d22e728ce4bf89c35,2022-06-29_13h45.09.385,Colour_Asymmetry_Pilot,2022.1.3,Win32,60.20107158,62bbe60bf3d75ef465d3e404,,,,,,,,,,,,,,,,,,,,,,,,,,,,,,,,,,,,,,,,,,,,,,,,,,,,,,,,,,,,,,,,,,,,,,,,,,,,,,,,,,,,,,,,,,,,,,,,,,,,,,,,,,,,,,,,,,,,,,,,,,,,,,,,,,,,,,,,,,,,,,,,,,,,,,,,,,,,,,
0,20,20,44,1,,602d29200724e36ae7a9def2,62bc3b3d22e728ce4bf89c35,2022-06-29_13h45.09.385,Colour_Asymmetry_Pilot,2022.1.3,Win32,60.20107158,62bbe60bf3d75ef465d3e404,,,,,,,,,,,,,,,,,,,,,,,,,,,,,,,,,,,,,,,,,,,,,,,,,,,,,,,,,,,,,,,,,,,,,,,,,,,,,,,,,,,,,,,,,,,,,,,,,,,,,,,,,,,,,,,,,,,,,,,,,,,,,,,,,,,,,,,,,,,,,,,,,,,,,,,,,,,,,,
0,21,21,67,1,,602d29200724e36ae7a9def2,62bc3b3d22e728ce4bf89c35,2022-06-29_13h45.09.385,Colour_Asymmetry_Pilot,2022.1.3,Win32,60.20107158,62bbe60bf3d75ef465d3e404,,,,,,,,,,,,,,,,,,,,,,,,,,,,,,,,,,,,,,,,,,,,,,,,,,,,,,,,,,,,,,,,,,,,,,,,,,,,,,,,,,,,,,,,,,,,,,,,,,,,,,,,,,,,,,,,,,,,,,,,,,,,,,,,,,,,,,,,,,,,,,,,,,,,,,,,,,,,,,
0,22,22,56,1,,602d29200724e36ae7a9def2,62bc3b3d22e728ce4bf89c35,2022-06-29_13h45.09.385,Colour_Asymmetry_Pilot,2022.1.3,Win32,60.20107158,62bbe60bf3d75ef465d3e404,,,,,,,,,,,,,,,,,,,,,,,,,,,,,,,,,,,,,,,,,,,,,,,,,,,,,,,,,,,,,,,,,,,,,,,,,,,,,,,,,,,,,,,,,,,,,,,,,,,,,,,,,,,,,,,,,,,,,,,,,,,,,,,,,,,,,,,,,,,,,,,,,,,,,,,,,,,,,,
0,23,23,35,1,,602d29200724e36ae7a9def2,62bc3b3d22e728ce4bf89c35,2022-06-29_13h45.09.385,Colour_Asymmetry_Pilot,2022.1.3,Win32,60.20107158,62bbe60bf3d75ef465d3e404,,,,,,,,,,,,,,,,,,,,,,,,,,,,,,,,,,,,,,,,,,,,,,,,,,,,,,,,,,,,,,,,,,,,,,,,,,,,,,,,,,,,,,,,,,,,,,,,,,,,,,,,,,,,,,,,,,,,,,,,,,,,,,,,,,,,,,,,,,,,,,,,,,,,,,,,,,,,,,
0,24,24,43,1,,602d29200724e36ae7a9def2,62bc3b3d22e728ce4bf89c35,2022-06-29_13h45.09.385,Colour_Asymmetry_Pilot,2022.1.3,Win32,60.20107158,62bbe60bf3d75ef465d3e404,,,,,,,,,,,,,,,,,,,,,,,,,,,,,,,,,,,,,,,,,,,,,,,,,,,,,,,,,,,,,,,,,,,,,,,,,,,,,,,,,,,,,,,,,,,,,,,,,,,,,,,,,,,,,,,,,,,,,,,,,,,,,,,,,,,,,,,,,,,,,,,,,,,,,,,,,,,,,,
0,25,25,92,1,,602d29200724e36ae7a9def2,62bc3b3d22e728ce4bf89c35,2022-06-29_13h45.09.385,Colour_Asymmetry_Pilot,2022.1.3,Win32,60.20107158,62bbe60bf3d75ef465d3e404,,,,,,,,,,,,,,,,,,,,,,,,,,,,,,,,,,,,,,,,,,,,,,,,,,,,,,,,,,,,,,,,,,,,,,,,,,,,,,,,,,,,,,,,,,,,,,,,,,,,,,,,,,,,,,,,,,,,,,,,,,,,,,,,,,,,,,,,,,,,,,,,,,,,,,,,,,,,,,
0,26,26,58,1,,602d29200724e36ae7a9def2,62bc3b3d22e728ce4bf89c35,2022-06-29_13h45.09.385,Colour_Asymmetry_Pilot,2022.1.3,Win32,60.20107158,62bbe60bf3d75ef465d3e404,,,,,,,,,,,,,,,,,,,,,,,,,,,,,,,,,,,,,,,,,,,,,,,,,,,,,,,,,,,,,,,,,,,,,,,,,,,,,,,,,,,,,,,,,,,,,,,,,,,,,,,,,,,,,,,,,,,,,,,,,,,,,,,,,,,,,,,,,,,,,,,,,,,,,,,,,,,,,,
0,27,27,73,1,,602d29200724e36ae7a9def2,62bc3b3d22e728ce4bf89c35,2022-06-29_13h45.09.385,Colour_Asymmetry_Pilot,2022.1.3,Win32,60.20107158,62bbe60bf3d75ef465d3e404,,,,,,,,,,,,,,,,,,,,,,,,,,,,,,,,,,,,,,,,,,,,,,,,,,,,,,,,,,,,,,,,,,,,,,,,,,,,,,,,,,,,,,,,,,,,,,,,,,,,,,,,,,,,,,,,,,,,,,,,,,,,,,,,,,,,,,,,,,,,,,,,,,,,,,,,,,,,,,
0,28,28,60,1,,602d29200724e36ae7a9def2,62bc3b3d22e728ce4bf89c35,2022-06-29_13h45.09.385,Colour_Asymmetry_Pilot,2022.1.3,Win32,60.20107158,62bbe60bf3d75ef465d3e404,,,,,,,,,,,,,,,,,,,,,,,,,,,,,,,,,,,,,,,,,,,,,,,,,,,,,,,,,,,,,,,,,,,,,,,,,,,,,,,,,,,,,,,,,,,,,,,,,,,,,,,,,,,,,,,,,,,,,,,,,,,,,,,,,,,,,,,,,,,,,,,,,,,,,,,,,,,,,,
0,29,29,41,1,,602d29200724e36ae7a9def2,62bc3b3d22e728ce4bf89c35,2022-06-29_13h45.09.385,Colour_Asymmetry_Pilot,2022.1.3,Win32,60.20107158,62bbe60bf3d75ef465d3e404,,,,,,,,,,,,,,,,,,,,,,,,,,,,,,,,,,,,,,,,,,,,,,,,,,,,,,,,,,,,,,,,,,,,,,,,,,,,,,,,,,,,,,,,,,,,,,,,,,,,,,,,,,,,,,,,,,,,,,,,,,,,,,,,,,,,,,,,,,,,,,,,,,,,,,,,,,,,,,
0,30,30,55,1,,602d29200724e36ae7a9def2,62bc3b3d22e728ce4bf89c35,2022-06-29_13h45.09.385,Colour_Asymmetry_Pilot,2022.1.3,Win32,60.20107158,62bbe60bf3d75ef465d3e404,,,,,,,,,,,,,,,,,,,,,,,,,,,,,,,,,,,,,,,,,,,,,,,,,,,,,,,,,,,,,,,,,,,,,,,,,,,,,,,,,,,,,,,,,,,,,,,,,,,,,,,,,,,,,,,,,,,,,,,,,,,,,,,,,,,,,,,,,,,,,,,,,,,,,,,,,,,,,,
0,31,31,74,1,,602d29200724e36ae7a9def2,62bc3b3d22e728ce4bf89c35,2022-06-29_13h45.09.385,Colour_Asymmetry_Pilot,2022.1.3,Win32,60.20107158,62bbe60bf3d75ef465d3e404,,,,,,,,,,,,,,,,,,,,,,,,,,,,,,,,,,,,,,,,,,,,,,,,,,,,,,,,,,,,,,,,,,,,,,,,,,,,,,,,,,,,,,,,,,,,,,,,,,,,,,,,,,,,,,,,,,,,,,,,,,,,,,,,,,,,,,,,,,,,,,,,,,,,,,,,,,,,,,
0,32,32,13,1,,602d29200724e36ae7a9def2,62bc3b3d22e728ce4bf89c35,2022-06-29_13h45.09.385,Colour_Asymmetry_Pilot,2022.1.3,Win32,60.20107158,62bbe60bf3d75ef465d3e404,,,,,,,,,,,,,,,,,,,,,,,,,,,,,,,,,,,,,,,,,,,,,,,,,,,,,,,,,,,,,,,,,,,,,,,,,,,,,,,,,,,,,,,,,,,,,,,,,,,,,,,,,,,,,,,,,,,,,,,,,,,,,,,,,,,,,,,,,,,,,,,,,,,,,,,,,,,,,,
0,33,33,4,1,,602d29200724e36ae7a9def2,62bc3b3d22e728ce4bf89c35,2022-06-29_13h45.09.385,Colour_Asymmetry_Pilot,2022.1.3,Win32,60.20107158,62bbe60bf3d75ef465d3e404,,,,,,,,,,,,,,,,,,,,,,,,,,,,,,,,,,,,,,,,,,,,,,,,,,,,,,,,,,,,,,,,,,,,,,,,,,,,,,,,,,,,,,,,,,,,,,,,,,,,,,,,,,,,,,,,,,,,,,,,,,,,,,,,,,,,,,,,,,,,,,,,,,,,,,,,,,,,,,
0,34,34,23,1,,602d29200724e36ae7a9def2,62bc3b3d22e728ce4bf89c35,2022-06-29_13h45.09.385,Colour_Asymmetry_Pilot,2022.1.3,Win32,60.20107158,62bbe60bf3d75ef465d3e404,,,,,,,,,,,,,,,,,,,,,,,,,,,,,,,,,,,,,,,,,,,,,,,,,,,,,,,,,,,,,,,,,,,,,,,,,,,,,,,,,,,,,,,,,,,,,,,,,,,,,,,,,,,,,,,,,,,,,,,,,,,,,,,,,,,,,,,,,,,,,,,,,,,,,,,,,,,,,,
0,35,35,36,1,,602d29200724e36ae7a9def2,62bc3b3d22e728ce4bf89c35,2022-06-29_13h45.09.385,Colour_Asymmetry_Pilot,2022.1.3,Win32,60.20107158,62bbe60bf3d75ef465d3e404,,,,,,,,,,,,,,,,,,,,,,,,,,,,,,,,,,,,,,,,,,,,,,,,,,,,,,,,,,,,,,,,,,,,,,,,,,,,,,,,,,,,,,,,,,,,,,,,,,,,,,,,,,,,,,,,,,,,,,,,,,,,,,,,,,,,,,,,,,,,,,,,,,,,,,,,,,,,,,
0,36,36,53,1,,602d29200724e36ae7a9def2,62bc3b3d22e728ce4bf89c35,2022-06-29_13h45.09.385,Colour_Asymmetry_Pilot,2022.1.3,Win32,60.20107158,62bbe60bf3d75ef465d3e404,,,,,,,,,,,,,,,,,,,,,,,,,,,,,,,,,,,,,,,,,,,,,,,,,,,,,,,,,,,,,,,,,,,,,,,,,,,,,,,,,,,,,,,,,,,,,,,,,,,,,,,,,,,,,,,,,,,,,,,,,,,,,,,,,,,,,,,,,,,,,,,,,,,,,,,,,,,,,,
0,37,37,85,1,,602d29200724e36ae7a9def2,62bc3b3d22e728ce4bf89c35,2022-06-29_13h45.09.385,Colour_Asymmetry_Pilot,2022.1.3,Win32,60.20107158,62bbe60bf3d75ef465d3e404,,,,,,,,,,,,,,,,,,,,,,,,,,,,,,,,,,,,,,,,,,,,,,,,,,,,,,,,,,,,,,,,,,,,,,,,,,,,,,,,,,,,,,,,,,,,,,,,,,,,,,,,,,,,,,,,,,,,,,,,,,,,,,,,,,,,,,,,,,,,,,,,,,,,,,,,,,,,,,
0,38,38,70,1,,602d29200724e36ae7a9def2,62bc3b3d22e728ce4bf89c35,2022-06-29_13h45.09.385,Colour_Asymmetry_Pilot,2022.1.3,Win32,60.20107158,62bbe60bf3d75ef465d3e404,,,,,,,,,,,,,,,,,,,,,,,,,,,,,,,,,,,,,,,,,,,,,,,,,,,,,,,,,,,,,,,,,,,,,,,,,,,,,,,,,,,,,,,,,,,,,,,,,,,,,,,,,,,,,,,,,,,,,,,,,,,,,,,,,,,,,,,,,,,,,,,,,,,,,,,,,,,,,,
0,39,39,62,1,,602d29200724e36ae7a9def2,62bc3b3d22e728ce4bf89c35,2022-06-29_13h45.09.385,Colour_Asymmetry_Pilot,2022.1.3,Win32,60.20107158,62bbe60bf3d75ef465d3e404,,,,,,,,,,,,,,,,,,,,,,,,,,,,,,,,,,,,,,,,,,,,,,,,,,,,,,,,,,,,,,,,,,,,,,,,,,,,,,,,,,,,,,,,,,,,,,,,,,,,,,,,,,,,,,,,,,,,,,,,,,,,,,,,,,,,,,,,,,,,,,,,,,,,,,,,,,,,,,
0,40,40,32,1,,602d29200724e36ae7a9def2,62bc3b3d22e728ce4bf89c35,2022-06-29_13h45.09.385,Colour_Asymmetry_Pilot,2022.1.3,Win32,60.20107158,62bbe60bf3d75ef465d3e404,,,,,,,,,,,,,,,,,,,,,,,,,,,,,,,,,,,,,,,,,,,,,,,,,,,,,,,,,,,,,,,,,,,,,,,,,,,,,,,,,,,,,,,,,,,,,,,,,,,,,,,,,,,,,,,,,,,,,,,,,,,,,,,,,,,,,,,,,,,,,,,,,,,,,,,,,,,,,,
0,41,41,14,1,,602d29200724e36ae7a9def2,62bc3b3d22e728ce4bf89c35,2022-06-29_13h45.09.385,Colour_Asymmetry_Pilot,2022.1.3,Win32,60.20107158,62bbe60bf3d75ef465d3e404,,,,,,,,,,,,,,,,,,,,,,,,,,,,,,,,,,,,,,,,,,,,,,,,,,,,,,,,,,,,,,,,,,,,,,,,,,,,,,,,,,,,,,,,,,,,,,,,,,,,,,,,,,,,,,,,,,,,,,,,,,,,,,,,,,,,,,,,,,,,,,,,,,,,,,,,,,,,,,
0,42,42,5,1,,602d29200724e36ae7a9def2,62bc3b3d22e728ce4bf89c35,2022-06-29_13h45.09.385,Colour_Asymmetry_Pilot,2022.1.3,Win32,60.20107158,62bbe60bf3d75ef465d3e404,,,,,,,,,,,,,,,,,,,,,,,,,,,,,,,,,,,,,,,,,,,,,,,,,,,,,,,,,,,,,,,,,,,,,,,,,,,,,,,,,,,,,,,,,,,,,,,,,,,,,,,,,,,,,,,,,,,,,,,,,,,,,,,,,,,,,,,,,,,,,,,,,,,,,,,,,,,,,,
0,43,43,48,1,,602d29200724e36ae7a9def2,62bc3b3d22e728ce4bf89c35,2022-06-29_13h45.09.385,Colour_Asymmetry_Pilot,2022.1.3,Win32,60.20107158,62bbe60bf3d75ef465d3e404,,,,,,,,,,,,,,,,,,,,,,,,,,,,,,,,,,,,,,,,,,,,,,,,,,,,,,,,,,,,,,,,,,,,,,,,,,,,,,,,,,,,,,,,,,,,,,,,,,,,,,,,,,,,,,,,,,,,,,,,,,,,,,,,,,,,,,,,,,,,,,,,,,,,,,,,,,,,,,
0,44,44,28,1,,602d29200724e36ae7a9def2,62bc3b3d22e728ce4bf89c35,2022-06-29_13h45.09.385,Colour_Asymmetry_Pilot,2022.1.3,Win32,60.20107158,62bbe60bf3d75ef465d3e404,,,,,,,,,,,,,,,,,,,,,,,,,,,,,,,,,,,,,,,,,,,,,,,,,,,,,,,,,,,,,,,,,,,,,,,,,,,,,,,,,,,,,,,,,,,,,,,,,,,,,,,,,,,,,,,,,,,,,,,,,,,,,,,,,,,,,,,,,,,,,,,,,,,,,,,,,,,,,,
0,45,45,90,1,,602d29200724e36ae7a9def2,62bc3b3d22e728ce4bf89c35,2022-06-29_13h45.09.385,Colour_Asymmetry_Pilot,2022.1.3,Win32,60.20107158,62bbe60bf3d75ef465d3e404,,,,,,,,,,,,,,,,,,,,,,,,,,,,,,,,,,,,,,,,,,,,,,,,,,,,,,,,,,,,,,,,,,,,,,,,,,,,,,,,,,,,,,,,,,,,,,,,,,,,,,,,,,,,,,,,,,,,,,,,,,,,,,,,,,,,,,,,,,,,,,,,,,,,,,,,,,,,,,
0,46,46,59,1,,602d29200724e36ae7a9def2,62bc3b3d22e728ce4bf89c35,2022-06-29_13h45.09.385,Colour_Asymmetry_Pilot,2022.1.3,Win32,60.20107158,62bbe60bf3d75ef465d3e404,,,,,,,,,,,,,,,,,,,,,,,,,,,,,,,,,,,,,,,,,,,,,,,,,,,,,,,,,,,,,,,,,,,,,,,,,,,,,,,,,,,,,,,,,,,,,,,,,,,,,,,,,,,,,,,,,,,,,,,,,,,,,,,,,,,,,,,,,,,,,,,,,,,,,,,,,,,,,,
0,47,47,37,1,,602d29200724e36ae7a9def2,62bc3b3d22e728ce4bf89c35,2022-06-29_13h45.09.385,Colour_Asymmetry_Pilot,2022.1.3,Win32,60.20107158,62bbe60bf3d75ef465d3e404,,,,,,,,,,,,,,,,,,,,,,,,,,,,,,,,,,,,,,,,,,,,,,,,,,,,,,,,,,,,,,,,,,,,,,,,,,,,,,,,,,,,,,,,,,,,,,,,,,,,,,,,,,,,,,,,,,,,,,,,,,,,,,,,,,,,,,,,,,,,,,,,,,,,,,,,,,,,,,
0,48,48,34,1,,602d29200724e36ae7a9def2,62bc3b3d22e728ce4bf89c35,2022-06-29_13h45.09.385,Colour_Asymmetry_Pilot,2022.1.3,Win32,60.20107158,62bbe60bf3d75ef465d3e404,,,,,,,,,,,,,,,,,,,,,,,,,,,,,,,,,,,,,,,,,,,,,,,,,,,,,,,,,,,,,,,,,,,,,,,,,,,,,,,,,,,,,,,,,,,,,,,,,,,,,,,,,,,,,,,,,,,,,,,,,,,,,,,,,,,,,,,,,,,,,,,,,,,,,,,,,,,,,,
0,49,49,52,1,,602d29200724e36ae7a9def2,62bc3b3d22e728ce4bf89c35,2022-06-29_13h45.09.385,Colour_Asymmetry_Pilot,2022.1.3,Win32,60.20107158,62bbe60bf3d75ef465d3e404,,,,,,,,,,,,,,,,,,,,,,,,,,,,,,,,,,,,,,,,,,,,,,,,,,,,,,,,,,,,,,,,,,,,,,,,,,,,,,,,,,,,,,,,,,,,,,,,,,,,,,,,,,,,,,,,,,,,,,,,,,,,,,,,,,,,,,,,,,,,,,,,,,,,,,,,,,,,,,
0,50,50,78,1,,602d29200724e36ae7a9def2,62bc3b3d22e728ce4bf89c35,2022-06-29_13h45.09.385,Colour_Asymmetry_Pilot,2022.1.3,Win32,60.20107158,62bbe60bf3d75ef465d3e404,,,,,,,,,,,,,,,,,,,,,,,,,,,,,,,,,,,,,,,,,,,,,,,,,,,,,,,,,,,,,,,,,,,,,,,,,,,,,,,,,,,,,,,,,,,,,,,,,,,,,,,,,,,,,,,,,,,,,,,,,,,,,,,,,,,,,,,,,,,,,,,,,,,,,,,,,,,,,,
0,51,51,0,1,,602d29200724e36ae7a9def2,62bc3b3d22e728ce4bf89c35,2022-06-29_13h45.09.385,Colour_Asymmetry_Pilot,2022.1.3,Win32,60.20107158,62bbe60bf3d75ef465d3e404,,,,,,,,,,,,,,,,,,,,,,,,,,,,,,,,,,,,,,,,,,,,,,,,,,,,,,,,,,,,,,,,,,,,,,,,,,,,,,,,,,,,,,,,,,,,,,,,,,,,,,,,,,,,,,,,,,,,,,,,,,,,,,,,,,,,,,,,,,,,,,,,,,,,,,,,,,,,,,
0,52,52,20,1,,602d29200724e36ae7a9def2,62bc3b3d22e728ce4bf89c35,2022-06-29_13h45.09.385,Colour_Asymmetry_Pilot,2022.1.3,Win32,60.20107158,62bbe60bf3d75ef465d3e404,,,,,,,,,,,,,,,,,,,,,,,,,,,,,,,,,,,,,,,,,,,,,,,,,,,,,,,,,,,,,,,,,,,,,,,,,,,,,,,,,,,,,,,,,,,,,,,,,,,,,,,,,,,,,,,,,,,,,,,,,,,,,,,,,,,,,,,,,,,,,,,,,,,,,,,,,,,,,,
0,53,53,87,1,,602d29200724e36ae7a9def2,62bc3b3d22e728ce4bf89c35,2022-06-29_13h45.09.385,Colour_Asymmetry_Pilot,2022.1.3,Win32,60.20107158,62bbe60bf3d75ef465d3e404,,,,,,,,,,,,,,,,,,,,,,,,,,,,,,,,,,,,,,,,,,,,,,,,,,,,,,,,,,,,,,,,,,,,,,,,,,,,,,,,,,,,,,,,,,,,,,,,,,,,,,,,,,,,,,,,,,,,,,,,,,,,,,,,,,,,,,,,,,,,,,,,,,,,,,,,,,,,,,
0,54,54,66,1,,602d29200724e36ae7a9def2,62bc3b3d22e728ce4bf89c35,2022-06-29_13h45.09.385,Colour_Asymmetry_Pilot,2022.1.3,Win32,60.20107158,62bbe60bf3d75ef465d3e404,,,,,,,,,,,,,,,,,,,,,,,,,,,,,,,,,,,,,,,,,,,,,,,,,,,,,,,,,,,,,,,,,,,,,,,,,,,,,,,,,,,,,,,,,,,,,,,,,,,,,,,,,,,,,,,,,,,,,,,,,,,,,,,,,,,,,,,,,,,,,,,,,,,,,,,,,,,,,,
0,55,55,7,1,,602d29200724e36ae7a9def2,62bc3b3d22e728ce4bf89c35,2022-06-29_13h45.09.385,Colour_Asymmetry_Pilot,2022.1.3,Win32,60.20107158,62bbe60bf3d75ef465d3e404,,,,,,,,,,,,,,,,,,,,,,,,,,,,,,,,,,,,,,,,,,,,,,,,,,,,,,,,,,,,,,,,,,,,,,,,,,,,,,,,,,,,,,,,,,,,,,,,,,,,,,,,,,,,,,,,,,,,,,,,,,,,,,,,,,,,,,,,,,,,,,,,,,,,,,,,,,,,,,
0,56,56,83,1,,602d29200724e36ae7a9def2,62bc3b3d22e728ce4bf89c35,2022-06-29_13h45.09.385,Colour_Asymmetry_Pilot,2022.1.3,Win32,60.20107158,62bbe60bf3d75ef465d3e404,,,,,,,,,,,,,,,,,,,,,,,,,,,,,,,,,,,,,,,,,,,,,,,,,,,,,,,,,,,,,,,,,,,,,,,,,,,,,,,,,,,,,,,,,,,,,,,,,,,,,,,,,,,,,,,,,,,,,,,,,,,,,,,,,,,,,,,,,,,,,,,,,,,,,,,,,,,,,,
0,57,57,76,1,,602d29200724e36ae7a9def2,62bc3b3d22e728ce4bf89c35,2022-06-29_13h45.09.385,Colour_Asymmetry_Pilot,2022.1.3,Win32,60.20107158,62bbe60bf3d75ef465d3e404,,,,,,,,,,,,,,,,,,,,,,,,,,,,,,,,,,,,,,,,,,,,,,,,,,,,,,,,,,,,,,,,,,,,,,,,,,,,,,,,,,,,,,,,,,,,,,,,,,,,,,,,,,,,,,,,,,,,,,,,,,,,,,,,,,,,,,,,,,,,,,,,,,,,,,,,,,,,,,
0,58,58,40,1,,602d29200724e36ae7a9def2,62bc3b3d22e728ce4bf89c35,2022-06-29_13h45.09.385,Colour_Asymmetry_Pilot,2022.1.3,Win32,60.20107158,62bbe60bf3d75ef465d3e404,,,,,,,,,,,,,,,,,,,,,,,,,,,,,,,,,,,,,,,,,,,,,,,,,,,,,,,,,,,,,,,,,,,,,,,,,,,,,,,,,,,,,,,,,,,,,,,,,,,,,,,,,,,,,,,,,,,,,,,,,,,,,,,,,,,,,,,,,,,,,,,,,,,,,,,,,,,,,,
0,59,59,63,1,,602d29200724e36ae7a9def2,62bc3b3d22e728ce4bf89c35,2022-06-29_13h45.09.385,Colour_Asymmetry_Pilot,2022.1.3,Win32,60.20107158,62bbe60bf3d75ef465d3e404,,,,,,,,,,,,,,,,,,,,,,,,,,,,,,,,,,,,,,,,,,,,,,,,,,,,,,,,,,,,,,,,,,,,,,,,,,,,,,,,,,,,,,,,,,,,,,,,,,,,,,,,,,,,,,,,,,,,,,,,,,,,,,,,,,,,,,,,,,,,,,,,,,,,,,,,,,,,,,
0,60,60,61,1,,602d29200724e36ae7a9def2,62bc3b3d22e728ce4bf89c35,2022-06-29_13h45.09.385,Colour_Asymmetry_Pilot,2022.1.3,Win32,60.20107158,62bbe60bf3d75ef465d3e404,,,,,,,,,,,,,,,,,,,,,,,,,,,,,,,,,,,,,,,,,,,,,,,,,,,,,,,,,,,,,,,,,,,,,,,,,,,,,,,,,,,,,,,,,,,,,,,,,,,,,,,,,,,,,,,,,,,,,,,,,,,,,,,,,,,,,,,,,,,,,,,,,,,,,,,,,,,,,,
0,61,61,27,1,,602d29200724e36ae7a9def2,62bc3b3d22e728ce4bf89c35,2022-06-29_13h45.09.385,Colour_Asymmetry_Pilot,2022.1.3,Win32,60.20107158,62bbe60bf3d75ef465d3e404,,,,,,,,,,,,,,,,,,,,,,,,,,,,,,,,,,,,,,,,,,,,,,,,,,,,,,,,,,,,,,,,,,,,,,,,,,,,,,,,,,,,,,,,,,,,,,,,,,,,,,,,,,,,,,,,,,,,,,,,,,,,,,,,,,,,,,,,,,,,,,,,,,,,,,,,,,,,,,
0,62,62,80,1,,602d29200724e36ae7a9def2,62bc3b3d22e728ce4bf89c35,2022-06-29_13h45.09.385,Colour_Asymmetry_Pilot,2022.1.3,Win32,60.20107158,62bbe60bf3d75ef465d3e404,,,,,,,,,,,,,,,,,,,,,,,,,,,,,,,,,,,,,,,,,,,,,,,,,,,,,,,,,,,,,,,,,,,,,,,,,,,,,,,,,,,,,,,,,,,,,,,,,,,,,,,,,,,,,,,,,,,,,,,,,,,,,,,,,,,,,,,,,,,,,,,,,,,,,,,,,,,,,,
0,63,63,12,1,,602d29200724e36ae7a9def2,62bc3b3d22e728ce4bf89c35,2022-06-29_13h45.09.385,Colour_Asymmetry_Pilot,2022.1.3,Win32,60.20107158,62bbe60bf3d75ef465d3e404,,,,,,,,,,,,,,,,,,,,,,,,,,,,,,,,,,,,,,,,,,,,,,,,,,,,,,,,,,,,,,,,,,,,,,,,,,,,,,,,,,,,,,,,,,,,,,,,,,,,,,,,,,,,,,,,,,,,,,,,,,,,,,,,,,,,,,,,,,,,,,,,,,,,,,,,,,,,,,
0,64,64,18,1,,602d29200724e36ae7a9def2,62bc3b3d22e728ce4bf89c35,2022-06-29_13h45.09.385,Colour_Asymmetry_Pilot,2022.1.3,Win32,60.20107158,62bbe60bf3d75ef465d3e404,,,,,,,,,,,,,,,,,,,,,,,,,,,,,,,,,,,,,,,,,,,,,,,,,,,,,,,,,,,,,,,,,,,,,,,,,,,,,,,,,,,,,,,,,,,,,,,,,,,,,,,,,,,,,,,,,,,,,,,,,,,,,,,,,,,,,,,,,,,,,,,,,,,,,,,,,,,,,,
0,65,65,3,1,,602d29200724e36ae7a9def2,62bc3b3d22e728ce4bf89c35,2022-06-29_13h45.09.385,Colour_Asymmetry_Pilot,2022.1.3,Win32,60.20107158,62bbe60bf3d75ef465d3e404,,,,,,,,,,,,,,,,,,,,,,,,,,,,,,,,,,,,,,,,,,,,,,,,,,,,,,,,,,,,,,,,,,,,,,,,,,,,,,,,,,,,,,,,,,,,,,,,,,,,,,,,,,,,,,,,,,,,,,,,,,,,,,,,,,,,,,,,,,,,,,,,,,,,,,,,,,,,,,
0,66,66,45,1,,602d29200724e36ae7a9def2,62bc3b3d22e728ce4bf89c35,2022-06-29_13h45.09.385,Colour_Asymmetry_Pilot,2022.1.3,Win32,60.20107158,62bbe60bf3d75ef465d3e404,,,,,,,,,,,,,,,,,,,,,,,,,,,,,,,,,,,,,,,,,,,,,,,,,,,,,,,,,,,,,,,,,,,,,,,,,,,,,,,,,,,,,,,,,,,,,,,,,,,,,,,,,,,,,,,,,,,,,,,,,,,,,,,,,,,,,,,,,,,,,,,,,,,,,,,,,,,,,,
0,67,67,49,1,,602d29200724e36ae7a9def2,62bc3b3d22e728ce4bf89c35,2022-06-29_13h45.09.385,Colour_Asymmetry_Pilot,2022.1.3,Win32,60.20107158,62bbe60bf3d75ef465d3e404,,,,,,,,,,,,,,,,,,,,,,,,,,,,,,,,,,,,,,,,,,,,,,,,,,,,,,,,,,,,,,,,,,,,,,,,,,,,,,,,,,,,,,,,,,,,,,,,,,,,,,,,,,,,,,,,,,,,,,,,,,,,,,,,,,,,,,,,,,,,,,,,,,,,,,,,,,,,,,
0,68,68,47,1,,602d29200724e36ae7a9def2,62bc3b3d22e728ce4bf89c35,2022-06-29_13h45.09.385,Colour_Asymmetry_Pilot,2022.1.3,Win32,60.20107158,62bbe60bf3d75ef465d3e404,,,,,,,,,,,,,,,,,,,,,,,,,,,,,,,,,,,,,,,,,,,,,,,,,,,,,,,,,,,,,,,,,,,,,,,,,,,,,,,,,,,,,,,,,,,,,,,,,,,,,,,,,,,,,,,,,,,,,,,,,,,,,,,,,,,,,,,,,,,,,,,,,,,,,,,,,,,,,,
0,69,69,91,1,,602d29200724e36ae7a9def2,62bc3b3d22e728ce4bf89c35,2022-06-29_13h45.09.385,Colour_Asymmetry_Pilot,2022.1.3,Win32,60.20107158,62bbe60bf3d75ef465d3e404,,,,,,,,,,,,,,,,,,,,,,,,,,,,,,,,,,,,,,,,,,,,,,,,,,,,,,,,,,,,,,,,,,,,,,,,,,,,,,,,,,,,,,,,,,,,,,,,,,,,,,,,,,,,,,,,,,,,,,,,,,,,,,,,,,,,,,,,,,,,,,,,,,,,,,,,,,,,,,
0,70,70,25,1,,602d29200724e36ae7a9def2,62bc3b3d22e728ce4bf89c35,2022-06-29_13h45.09.385,Colour_Asymmetry_Pilot,2022.1.3,Win32,60.20107158,62bbe60bf3d75ef465d3e404,,,,,,,,,,,,,,,,,,,,,,,,,,,,,,,,,,,,,,,,,,,,,,,,,,,,,,,,,,,,,,,,,,,,,,,,,,,,,,,,,,,,,,,,,,,,,,,,,,,,,,,,,,,,,,,,,,,,,,,,,,,,,,,,,,,,,,,,,,,,,,,,,,,,,,,,,,,,,,
0,71,71,33,1,,602d29200724e36ae7a9def2,62bc3b3d22e728ce4bf89c35,2022-06-29_13h45.09.385,Colour_Asymmetry_Pilot,2022.1.3,Win32,60.20107158,62bbe60bf3d75ef465d3e404,,,,,,,,,,,,,,,,,,,,,,,,,,,,,,,,,,,,,,,,,,,,,,,,,,,,,,,,,,,,,,,,,,,,,,,,,,,,,,,,,,,,,,,,,,,,,,,,,,,,,,,,,,,,,,,,,,,,,,,,,,,,,,,,,,,,,,,,,,,,,,,,,,,,,,,,,,,,,,
0,72,72,19,1,,602d29200724e36ae7a9def2,62bc3b3d22e728ce4bf89c35,2022-06-29_13h45.09.385,Colour_Asymmetry_Pilot,2022.1.3,Win32,60.20107158,62bbe60bf3d75ef465d3e404,,,,,,,,,,,,,,,,,,,,,,,,,,,,,,,,,,,,,,,,,,,,,,,,,,,,,,,,,,,,,,,,,,,,,,,,,,,,,,,,,,,,,,,,,,,,,,,,,,,,,,,,,,,,,,,,,,,,,,,,,,,,,,,,,,,,,,,,,,,,,,,,,,,,,,,,,,,,,,
0,73,73,6,1,,602d29200724e36ae7a9def2,62bc3b3d22e728ce4bf89c35,2022-06-29_13h45.09.385,Colour_Asymmetry_Pilot,2022.1.3,Win32,60.20107158,62bbe60bf3d75ef465d3e404,,,,,,,,,,,,,,,,,,,,,,,,,,,,,,,,,,,,,,,,,,,,,,,,,,,,,,,,,,,,,,,,,,,,,,,,,,,,,,,,,,,,,,,,,,,,,,,,,,,,,,,,,,,,,,,,,,,,,,,,,,,,,,,,,,,,,,,,,,,,,,,,,,,,,,,,,,,,,,
0,74,74,68,1,,602d29200724e36ae7a9def2,62bc3b3d22e728ce4bf89c35,2022-06-29_13h45.09.385,Colour_Asymmetry_Pilot,2022.1.3,Win32,60.20107158,62bbe60bf3d75ef465d3e404,,,,,,,,,,,,,,,,,,,,,,,,,,,,,,,,,,,,,,,,,,,,,,,,,,,,,,,,,,,,,,,,,,,,,,,,,,,,,,,,,,,,,,,,,,,,,,,,,,,,,,,,,,,,,,,,,,,,,,,,,,,,,,,,,,,,,,,,,,,,,,,,,,,,,,,,,,,,,,
0,75,75,51,1,,602d29200724e36ae7a9def2,62bc3b3d22e728ce4bf89c35,2022-06-29_13h45.09.385,Colour_Asymmetry_Pilot,2022.1.3,Win32,60.20107158,62bbe60bf3d75ef465d3e404,,,,,,,,,,,,,,,,,,,,,,,,,,,,,,,,,,,,,,,,,,,,,,,,,,,,,,,,,,,,,,,,,,,,,,,,,,,,,,,,,,,,,,,,,,,,,,,,,,,,,,,,,,,,,,,,,,,,,,,,,,,,,,,,,,,,,,,,,,,,,,,,,,,,,,,,,,,,,,
0,76,76,89,1,,602d29200724e36ae7a9def2,62bc3b3d22e728ce4bf89c35,2022-06-29_13h45.09.385,Colour_Asymmetry_Pilot,2022.1.3,Win32,60.20107158,62bbe60bf3d75ef465d3e404,,,,,,,,,,,,,,,,,,,,,,,,,,,,,,,,,,,,,,,,,,,,,,,,,,,,,,,,,,,,,,,,,,,,,,,,,,,,,,,,,,,,,,,,,,,,,,,,,,,,,,,,,,,,,,,,,,,,,,,,,,,,,,,,,,,,,,,,,,,,,,,,,,,,,,,,,,,,,,
0,77,77,39,1,,602d29200724e36ae7a9def2,62bc3b3d22e728ce4bf89c35,2022-06-29_13h45.09.385,Colour_Asymmetry_Pilot,2022.1.3,Win32,60.20107158,62bbe60bf3d75ef465d3e404,,,,,,,,,,,,,,,,,,,,,,,,,,,,,,,,,,,,,,,,,,,,,,,,,,,,,,,,,,,,,,,,,,,,,,,,,,,,,,,,,,,,,,,,,,,,,,,,,,,,,,,,,,,,,,,,,,,,,,,,,,,,,,,,,,,,,,,,,,,,,,,,,,,,,,,,,,,,,,
0,78,78,42,1,,602d29200724e36ae7a9def2,62bc3b3d22e728ce4bf89c35,2022-06-29_13h45.09.385,Colour_Asymmetry_Pilot,2022.1.3,Win32,60.20107158,62bbe60bf3d75ef465d3e404,,,,,,,,,,,,,,,,,,,,,,,,,,,,,,,,,,,,,,,,,,,,,,,,,,,,,,,,,,,,,,,,,,,,,,,,,,,,,,,,,,,,,,,,,,,,,,,,,,,,,,,,,,,,,,,,,,,,,,,,,,,,,,,,,,,,,,,,,,,,,,,,,,,,,,,,,,,,,,
0,79,79,75,1,,602d29200724e36ae7a9def2,62bc3b3d22e728ce4bf89c35,2022-06-29_13h45.09.385,Colour_Asymmetry_Pilot,2022.1.3,Win32,60.20107158,62bbe60bf3d75ef465d3e404,,,,,,,,,,,,,,,,,,,,,,,,,,,,,,,,,,,,,,,,,,,,,,,,,,,,,,,,,,,,,,,,,,,,,,,,,,,,,,,,,,,,,,,,,,,,,,,,,,,,,,,,,,,,,,,,,,,,,,,,,,,,,,,,,,,,,,,,,,,,,,,,,,,,,,,,,,,,,,
0,80,80,88,1,,602d29200724e36ae7a9def2,62bc3b3d22e728ce4bf89c35,2022-06-29_13h45.09.385,Colour_Asymmetry_Pilot,2022.1.3,Win32,60.20107158,62bbe60bf3d75ef465d3e404,,,,,,,,,,,,,,,,,,,,,,,,,,,,,,,,,,,,,,,,,,,,,,,,,,,,,,,,,,,,,,,,,,,,,,,,,,,,,,,,,,,,,,,,,,,,,,,,,,,,,,,,,,,,,,,,,,,,,,,,,,,,,,,,,,,,,,,,,,,,,,,,,,,,,,,,,,,,,,
0,81,81,54,1,,602d29200724e36ae7a9def2,62bc3b3d22e728ce4bf89c35,2022-06-29_13h45.09.385,Colour_Asymmetry_Pilot,2022.1.3,Win32,60.20107158,62bbe60bf3d75ef465d3e404,,,,,,,,,,,,,,,,,,,,,,,,,,,,,,,,,,,,,,,,,,,,,,,,,,,,,,,,,,,,,,,,,,,,,,,,,,,,,,,,,,,,,,,,,,,,,,,,,,,,,,,,,,,,,,,,,,,,,,,,,,,,,,,,,,,,,,,,,,,,,,,,,,,,,,,,,,,,,,
0,82,82,21,1,,602d29200724e36ae7a9def2,62bc3b3d22e728ce4bf89c35,2022-06-29_13h45.09.385,Colour_Asymmetry_Pilot,2022.1.3,Win32,60.20107158,62bbe60bf3d75ef465d3e404,,,,,,,,,,,,,,,,,,,,,,,,,,,,,,,,,,,,,,,,,,,,,,,,,,,,,,,,,,,,,,,,,,,,,,,,,,,,,,,,,,,,,,,,,,,,,,,,,,,,,,,,,,,,,,,,,,,,,,,,,,,,,,,,,,,,,,,,,,,,,,,,,,,,,,,,,,,,,,
0,83,83,46,1,,602d29200724e36ae7a9def2,62bc3b3d22e728ce4bf89c35,2022-06-29_13h45.09.385,Colour_Asymmetry_Pilot,2022.1.3,Win32,60.20107158,62bbe60bf3d75ef465d3e404,,,,,,,,,,,,,,,,,,,,,,,,,,,,,,,,,,,,,,,,,,,,,,,,,,,,,,,,,,,,,,,,,,,,,,,,,,,,,,,,,,,,,,,,,,,,,,,,,,,,,,,,,,,,,,,,,,,,,,,,,,,,,,,,,,,,,,,,,,,,,,,,,,,,,,,,,,,,,,
0,84,84,57,1,,602d29200724e36ae7a9def2,62bc3b3d22e728ce4bf89c35,2022-06-29_13h45.09.385,Colour_Asymmetry_Pilot,2022.1.3,Win32,60.20107158,62bbe60bf3d75ef465d3e404,,,,,,,,,,,,,,,,,,,,,,,,,,,,,,,,,,,,,,,,,,,,,,,,,,,,,,,,,,,,,,,,,,,,,,,,,,,,,,,,,,,,,,,,,,,,,,,,,,,,,,,,,,,,,,,,,,,,,,,,,,,,,,,,,,,,,,,,,,,,,,,,,,,,,,,,,,,,,,
0,85,85,65,1,,602d29200724e36ae7a9def2,62bc3b3d22e728ce4bf89c35,2022-06-29_13h45.09.385,Colour_Asymmetry_Pilot,2022.1.3,Win32,60.20107158,62bbe60bf3d75ef465d3e404,,,,,,,,,,,,,,,,,,,,,,,,,,,,,,,,,,,,,,,,,,,,,,,,,,,,,,,,,,,,,,,,,,,,,,,,,,,,,,,,,,,,,,,,,,,,,,,,,,,,,,,,,,,,,,,,,,,,,,,,,,,,,,,,,,,,,,,,,,,,,,,,,,,,,,,,,,,,,,
0,86,86,29,1,,602d29200724e36ae7a9def2,62bc3b3d22e728ce4bf89c35,2022-06-29_13h45.09.385,Colour_Asymmetry_Pilot,2022.1.3,Win32,60.20107158,62bbe60bf3d75ef465d3e404,,,,,,,,,,,,,,,,,,,,,,,,,,,,,,,,,,,,,,,,,,,,,,,,,,,,,,,,,,,,,,,,,,,,,,,,,,,,,,,,,,,,,,,,,,,,,,,,,,,,,,,,,,,,,,,,,,,,,,,,,,,,,,,,,,,,,,,,,,,,,,,,,,,,,,,,,,,,,,
0,87,87,86,1,,602d29200724e36ae7a9def2,62bc3b3d22e728ce4bf89c35,2022-06-29_13h45.09.385,Colour_Asymmetry_Pilot,2022.1.3,Win32,60.20107158,62bbe60bf3d75ef465d3e404,,,,,,,,,,,,,,,,,,,,,,,,,,,,,,,,,,,,,,,,,,,,,,,,,,,,,,,,,,,,,,,,,,,,,,,,,,,,,,,,,,,,,,,,,,,,,,,,,,,,,,,,,,,,,,,,,,,,,,,,,,,,,,,,,,,,,,,,,,,,,,,,,,,,,,,,,,,,,,
0,88,88,31,1,,602d29200724e36ae7a9def2,62bc3b3d22e728ce4bf89c35,2022-06-29_13h45.09.385,Colour_Asymmetry_Pilot,2022.1.3,Win32,60.20107158,62bbe60bf3d75ef465d3e404,,,,,,,,,,,,,,,,,,,,,,,,,,,,,,,,,,,,,,,,,,,,,,,,,,,,,,,,,,,,,,,,,,,,,,,,,,,,,,,,,,,,,,,,,,,,,,,,,,,,,,,,,,,,,,,,,,,,,,,,,,,,,,,,,,,,,,,,,,,,,,,,,,,,,,,,,,,,,,
0,89,89,1,1,,602d29200724e36ae7a9def2,62bc3b3d22e728ce4bf89c35,2022-06-29_13h45.09.385,Colour_Asymmetry_Pilot,2022.1.3,Win32,60.20107158,62bbe60bf3d75ef465d3e404,,,,,,,,,,,,,,,,,,,,,,,,,,,,,,,,,,,,,,,,,,,,,,,,,,,,,,,,,,,,,,,,,,,,,,,,,,,,,,,,,,,,,,,,,,,,,,,,,,,,,,,,,,,,,,,,,,,,,,,,,,,,,,,,,,,,,,,,,,,,,,,,,,,,,,,,,,,,,,
0,90,90,82,1,,602d29200724e36ae7a9def2,62bc3b3d22e728ce4bf89c35,2022-06-29_13h45.09.385,Colour_Asymmetry_Pilot,2022.1.3,Win32,60.20107158,62bbe60bf3d75ef465d3e404,,,,,,,,,,,,,,,,,,,,,,,,,,,,,,,,,,,,,,,,,,,,,,,,,,,,,,,,,,,,,,,,,,,,,,,,,,,,,,,,,,,,,,,,,,,,,,,,,,,,,,,,,,,,,,,,,,,,,,,,,,,,,,,,,,,,,,,,,,,,,,,,,,,,,,,,,,,,,,
0,91,91,26,1,,602d29200724e36ae7a9def2,62bc3b3d22e728ce4bf89c35,2022-06-29_13h45.09.385,Colour_Asymmetry_Pilot,2022.1.3,Win32,60.20107158,62bbe60bf3d75ef465d3e404,,,,,,,,,,,,,,,,,,,,,,,,,,,,,,,,,,,,,,,,,,,,,,,,,,,,,,,,,,,,,,,,,,,,,,,,,,,,,,,,,,,,,,,,,,,,,,,,,,,,,,,,,,,,,,,,,,,,,,,,,,,,,,,,,,,,,,,,,,,,,,,,,,,,,,,,,,,,,,
0,92,92,22,1,,602d29200724e36ae7a9def2,62bc3b3d22e728ce4bf89c35,2022-06-29_13h45.09.385,Colour_Asymmetry_Pilot,2022.1.3,Win32,60.20107158,62bbe60bf3d75ef465d3e404,,,,,,,,,,,,,,,,,,,,,,,,,,,,,,,,,,,,,,,,,,,,,,,,,,,,,,,,,,,,,,,,,,,,,,,,,,,,,,,,,,,,,,,,,,,,,,,,,,,,,,,,,,,,,,,,,,,,,,,,,,,,,,,,,,,,,,,,,,,,,,,,,,,,,,,,,,,,,,
,,,,,,602d29200724e36ae7a9def2,62bc3b3d22e728ce4bf89c35,2022-06-29_13h45.09.385,Colour_Asymmetry_Pilot,2022.1.3,Win32,60.20107158,62bbe60bf3d75ef465d3e404,0,0,0,44,1,threeone,,,,,,,,,,,,,,,,,,,,,,,,,,,,,,,,,,,,,,,,,,,,,,,,,,,,,,,,,,,,,,,,,,,,,,,,,,,,,,,,,,,,,,,,,,,,,,,,,,,,,,,,,,,,,,,,,,,,,,,,,,,,,,,,,,,,,,,,,,,,,,,,,,,,,,,,
,,,,,,602d29200724e36ae7a9def2,62bc3b3d22e728ce4bf89c35,2022-06-29_13h45.09.385,Colour_Asymmetry_Pilot,2022.1.3,Win32,60.20107158,62bbe60bf3d75ef465d3e404,0,1,1,24,1,onetwo,,,,,,,,,,,,,,,,,,,,,,,,,,,,,,,,,,,,,,,,,,,,,,,,,,,,,,,,,,,,,,,,,,,,,,,,,,,,,,,,,,,,,,,,,,,,,,,,,,,,,,,,,,,,,,,,,,,,,,,,,,,,,,,,,,,,,,,,,,,,,,,,,,,,,,,,
,,,,,,602d29200724e36ae7a9def2,62bc3b3d22e728ce4bf89c35,2022-06-29_13h45.09.385,Colour_Asymmetry_Pilot,2022.1.3,Win32,60.20107158,62bbe60bf3d75ef465d3e404,0,2,2,41,1,onethree,,,,,,,,,,,,,,,,,,,,,,,,,,,,,,,,,,,,,,,,,,,,,,,,,,,,,,,,,,,,,,,,,,,,,,,,,,,,,,,,,,,,,,,,,,,,,,,,,,,,,,,,,,,,,,,,,,,,,,,,,,,,,,,,,,,,,,,,,,,,,,,,,,,,,,,,
,,,,,,602d29200724e36ae7a9def2,62bc3b3d22e728ce4bf89c35,2022-06-29_13h45.09.385,Colour_Asymmetry_Pilot,2022.1.3,Win32,60.20107158,62bbe60bf3d75ef465d3e404,0,3,3,161,1,onethree,,,,,,,,,,,,,,,,,,,,,,,,,,,,,,,,,,,,,,,,,,,,,,,,,,,,,,,,,,,,,,,,,,,,,,,,,,,,,,,,,,,,,,,,,,,,,,,,,,,,,,,,,,,,,,,,,,,,,,,,,,,,,,,,,,,,,,,,,,,,,,,,,,,,,,,,
,,,,,,602d29200724e36ae7a9def2,62bc3b3d22e728ce4bf89c35,2022-06-29_13h45.09.385,Colour_Asymmetry_Pilot,2022.1.3,Win32,60.20107158,62bbe60bf3d75ef465d3e404,0,4,4,114,1,twoone,,,,,,,,,,,,,,,,,,,,,,,,,,,,,,,,,,,,,,,,,,,,,,,,,,,,,,,,,,,,,,,,,,,,,,,,,,,,,,,,,,,,,,,,,,,,,,,,,,,,,,,,,,,,,,,,,,,,,,,,,,,,,,,,,,,,,,,,,,,,,,,,,,,,,,,,
,,,,,,602d29200724e36ae7a9def2,62bc3b3d22e728ce4bf89c35,2022-06-29_13h45.09.385,Colour_Asymmetry_Pilot,2022.1.3,Win32,60.20107158,62bbe60bf3d75ef465d3e404,0,5,5,28,1,threeone,,,,,,,,,,,,,,,,,,,,,,,,,,,,,,,,,,,,,,,,,,,,,,,,,,,,,,,,,,,,,,,,,,,,,,,,,,,,,,,,,,,,,,,,,,,,,,,,,,,,,,,,,,,,,,,,,,,,,,,,,,,,,,,,,,,,,,,,,,,,,,,,,,,,,,,,
,,,,,,602d29200724e36ae7a9def2,62bc3b3d22e728ce4bf89c35,2022-06-29_13h45.09.385,Colour_Asymmetry_Pilot,2022.1.3,Win32,60.20107158,62bbe60bf3d75ef465d3e404,0,6,6,0,1,onetwo,,,,,,,,,,,,,,,,,,,,,,,,,,,,,,,,,,,,,,,,,,,,,,,,,,,,,,,,,,,,,,,,,,,,,,,,,,,,,,,,,,,,,,,,,,,,,,,,,,,,,,,,,,,,,,,,,,,,,,,,,,,,,,,,,,,,,,,,,,,,,,,,,,,,,,,,
,,,,,,602d29200724e36ae7a9def2,62bc3b3d22e728ce4bf89c35,2022-06-29_13h45.09.385,Colour_Asymmetry_Pilot,2022.1.3,Win32,60.20107158,62bbe60bf3d75ef465d3e404,0,7,7,34,1,twoone,,,,,,,,,,,,,,,,,,,,,,,,,,,,,,,,,,,,,,,,,,,,,,,,,,,,,,,,,,,,,,,,,,,,,,,,,,,,,,,,,,,,,,,,,,,,,,,,,,,,,,,,,,,,,,,,,,,,,,,,,,,,,,,,,,,,,,,,,,,,,,,,,,,,,,,,
,,,,,,602d29200724e36ae7a9def2,62bc3b3d22e728ce4bf89c35,2022-06-29_13h45.09.385,Colour_Asymmetry_Pilot,2022.1.3,Win32,60.20107158,62bbe60bf3d75ef465d3e404,0,8,8,100,1,threeone,,,,,,,,,,,,,,,,,,,,,,,,,,,,,,,,,,,,,,,,,,,,,,,,,,,,,,,,,,,,,,,,,,,,,,,,,,,,,,,,,,,,,,,,,,,,,,,,,,,,,,,,,,,,,,,,,,,,,,,,,,,,,,,,,,,,,,,,,,,,,,,,,,,,,,,,
,,,,,,602d29200724e36ae7a9def2,62bc3b3d22e728ce4bf89c35,2022-06-29_13h45.09.385,Colour_Asymmetry_Pilot,2022.1.3,Win32,60.20107158,62bbe60bf3d75ef465d3e404,0,9,9,124,1,threeone,,,,,,,,,,,,,,,,,,,,,,,,,,,,,,,,,,,,,,,,,,,,,,,,,,,,,,,,,,,,,,,,,,,,,,,,,,,,,,,,,,,,,,,,,,,,,,,,,,,,,,,,,,,,,,,,,,,,,,,,,,,,,,,,,,,,,,,,,,,,,,,,,,,,,,,,
,,,,,,602d29200724e36ae7a9def2,62bc3b3d22e728ce4bf89c35,2022-06-29_13h45.09.385,Colour_Asymmetry_Pilot,2022.1.3,Win32,60.20107158,62bbe60bf3d75ef465d3e404,0,10,10,160,1,onetwo,,,,,,,,,,,,,,,,,,,,,,,,,,,,,,,,,,,,,,,,,,,,,,,,,,,,,,,,,,,,,,,,,,,,,,,,,,,,,,,,,,,,,,,,,,,,,,,,,,,,,,,,,,,,,,,,,,,,,,,,,,,,,,,,,,,,,,,,,,,,,,,,,,,,,,,,
,,,,,,602d29200724e36ae7a9def2,62bc3b3d22e728ce4bf89c35,2022-06-29_13h45.09.385,Colour_Asymmetry_Pilot,2022.1.3,Win32,60.20107158,62bbe60bf3d75ef465d3e404,0,11,11,51,1,twofour,,,,,,,,,,,,,,,,,,,,,,,,,,,,,,,,,,,,,,,,,,,,,,,,,,,,,,,,,,,,,,,,,,,,,,,,,,,,,,,,,,,,,,,,,,,,,,,,,,,,,,,,,,,,,,,,,,,,,,,,,,,,,,,,,,,,,,,,,,,,,,,,,,,,,,,,
,,,,,,602d29200724e36ae7a9def2,62bc3b3d22e728ce4bf89c35,2022-06-29_13h45.09.385,Colour_Asymmetry_Pilot,2022.1.3,Win32,60.20107158,62bbe60bf3d75ef465d3e404,0,12,12,33,1,onethree,,,,,,,,,,,,,,,,,,,,,,,,,,,,,,,,,,,,,,,,,,,,,,,,,,,,,,,,,,,,,,,,,,,,,,,,,,,,,,,,,,,,,,,,,,,,,,,,,,,,,,,,,,,,,,,,,,,,,,,,,,,,,,,,,,,,,,,,,,,,,,,,,,,,,,,,
,,,,,,602d29200724e36ae7a9def2,62bc3b3d22e728ce4bf89c35,2022-06-29_13h45.09.385,Colour_Asymmetry_Pilot,2022.1.3,Win32,60.20107158,62bbe60bf3d75ef465d3e404,0,13,13,43,1,twofour,,,,,,,,,,,,,,,,,,,,,,,,,,,,,,,,,,,,,,,,,,,,,,,,,,,,,,,,,,,,,,,,,,,,,,,,,,,,,,,,,,,,,,,,,,,,,,,,,,,,,,,,,,,,,,,,,,,,,,,,,,,,,,,,,,,,,,,,,,,,,,,,,,,,,,,,
,,,,,,602d29200724e36ae7a9def2,62bc3b3d22e728ce4bf89c35,2022-06-29_13h45.09.385,Colour_Asymmetry_Pilot,2022.1.3,Win32,60.20107158,62bbe60bf3d75ef465d3e404,0,14,14,2,1,twoone,,,,,,,,,,,,,,,,,,,,,,,,,,,,,,,,,,,,,,,,,,,,,,,,,,,,,,,,,,,,,,,,,,,,,,,,,,,,,,,,,,,,,,,,,,,,,,,,,,,,,,,,,,,,,,,,,,,,,,,,,,,,,,,,,,,,,,,,,,,,,,,,,,,,,,,,
,,,,,,602d29200724e36ae7a9def2,62bc3b3d22e728ce4bf89c35,2022-06-29_13h45.09.385,Colour_Asymmetry_Pilot,2022.1.3,Win32,60.20107158,62bbe60bf3d75ef465d3e404,0,15,15,130,1,twoone,,,,,,,,,,,,,,,,,,,,,,,,,,,,,,,,,,,,,,,,,,,,,,,,,,,,,,,,,,,,,,,,,,,,,,,,,,,,,,,,,,,,,,,,,,,,,,,,,,,,,,,,,,,,,,,,,,,,,,,,,,,,,,,,,,,,,,,,,,,,,,,,,,,,,,,,
,,,,,,602d29200724e36ae7a9def2,62bc3b3d22e728ce4bf89c35,2022-06-29_13h45.09.385,Colour_Asymmetry_Pilot,2022.1.3,Win32,60.20107158,62bbe60bf3d75ef465d3e404,0,16,16,72,1,onetwo,,,,,,,,,,,,,,,,,,,,,,,,,,,,,,,,,,,,,,,,,,,,,,,,,,,,,,,,,,,,,,,,,,,,,,,,,,,,,,,,,,,,,,,,,,,,,,,,,,,,,,,,,,,,,,,,,,,,,,,,,,,,,,,,,,,,,,,,,,,,,,,,,,,,,,,,
,,,,,,602d29200724e36ae7a9def2,62bc3b3d22e728ce4bf89c35,2022-06-29_13h45.09.385,Colour_Asymmetry_Pilot,2022.1.3,Win32,60.20107158,62bbe60bf3d75ef465d3e404,0,17,17,120,1,onetwo,,,,,,,,,,,,,,,,,,,,,,,,,,,,,,,,,,,,,,,,,,,,,,,,,,,,,,,,,,,,,,,,,,,,,,,,,,,,,,,,,,,,,,,,,,,,,,,,,,,,,,,,,,,,,,,,,,,,,,,,,,,,,,,,,,,,,,,,,,,,,,,,,,,,,,,,
,,,,,,602d29200724e36ae7a9def2,62bc3b3d22e728ce4bf89c35,2022-06-29_13h45.09.385,Colour_Asymmetry_Pilot,2022.1.3,Win32,60.20107158,62bbe60bf3d75ef465d3e404,0,18,18,116,1,threeone,,,,,,,,,,,,,,,,,,,,,,,,,,,,,,,,,,,,,,,,,,,,,,,,,,,,,,,,,,,,,,,,,,,,,,,,,,,,,,,,,,,,,,,,,,,,,,,,,,,,,,,,,,,,,,,,,,,,,,,,,,,,,,,,,,,,,,,,,,,,,,,,,,,,,,,,
,,,,,,602d29200724e36ae7a9def2,62bc3b3d22e728ce4bf89c35,2022-06-29_13h45.09.385,Colour_Asymmetry_Pilot,2022.1.3,Win32,60.20107158,62bbe60bf3d75ef465d3e404,0,19,19,76,1,threeone,,,,,,,,,,,,,,,,,,,,,,,,,,,,,,,,,,,,,,,,,,,,,,,,,,,,,,,,,,,,,,,,,,,,,,,,,,,,,,,,,,,,,,,,,,,,,,,,,,,,,,,,,,,,,,,,,,,,,,,,,,,,,,,,,,,,,,,,,,,,,,,,,,,,,,,,
,,,,,,602d29200724e36ae7a9def2,62bc3b3d22e728ce4bf89c35,2022-06-29_13h45.09.385,Colour_Asymmetry_Pilot,2022.1.3,Win32,60.20107158,62bbe60bf3d75ef465d3e404,0,20,20,108,1,threeone,,,,,,,,,,,,,,,,,,,,,,,,,,,,,,,,,,,,,,,,,,,,,,,,,,,,,,,,,,,,,,,,,,,,,,,,,,,,,,,,,,,,,,,,,,,,,,,,,,,,,,,,,,,,,,,,,,,,,,,,,,,,,,,,,,,,,,,,,,,,,,,,,,,,,,,,
,,,,,,602d29200724e36ae7a9def2,62bc3b3d22e728ce4bf89c35,2022-06-29_13h45.09.385,Colour_Asymmetry_Pilot,2022.1.3,Win32,60.20107158,62bbe60bf3d75ef465d3e404,0,21,21,118,1,fourtwo,,,,,,,,,,,,,,,,,,,,,,,,,,,,,,,,,,,,,,,,,,,,,,,,,,,,,,,,,,,,,,,,,,,,,,,,,,,,,,,,,,,,,,,,,,,,,,,,,,,,,,,,,,,,,,,,,,,,,,,,,,,,,,,,,,,,,,,,,,,,,,,,,,,,,,,,
,,,,,,602d29200724e36ae7a9def2,62bc3b3d22e728ce4bf89c35,2022-06-29_13h45.09.385,Colour_Asymmetry_Pilot,2022.1.3,Win32,60.20107158,62bbe60bf3d75ef465d3e404,0,22,22,17,1,onethree,,,,,,,,,,,,,,,,,,,,,,,,,,,,,,,,,,,,,,,,,,,,,,,,,,,,,,,,,,,,,,,,,,,,,,,,,,,,,,,,,,,,,,,,,,,,,,,,,,,,,,,,,,,,,,,,,,,,,,,,,,,,,,,,,,,,,,,,,,,,,,,,,,,,,,,,
,,,,,,602d29200724e36ae7a9def2,62bc3b3d22e728ce4bf89c35,2022-06-29_13h45.09.385,Colour_Asymmetry_Pilot,2022.1.3,Win32,60.20107158,62bbe60bf3d75ef465d3e404,0,23,23,15,1,fourthree,,,,,,,,,,,,,,,,,,,,,,,,,,,,,,,,,,,,,,,,,,,,,,,,,,,,,,,,,,,,,,,,,,,,,,,,,,,,,,,,,,,,,,,,,,,,,,,,,,,,,,,,,,,,,,,,,,,,,,,,,,,,,,,,,,,,,,,,,,,,,,,,,,,,,,,,
,,,,,,602d29200724e36ae7a9def2,62bc3b3d22e728ce4bf89c35,2022-06-29_13h45.09.385,Colour_Asymmetry_Pilot,2022.1.3,Win32,60.20107158,62bbe60bf3d75ef465d3e404,0,24,24,141,1,threefour,,,,,,,,,,,,,,,,,,,,,,,,,,,,,,,,,,,,,,,,,,,,,,,,,,,,,,,,,,,,,,,,,,,,,,,,,,,,,,,,,,,,,,,,,,,,,,,,,,,,,,,,,,,,,,,,,,,,,,,,,,,,,,,,,,,,,,,,,,,,,,,,,,,,,,,,
,,,,,,602d29200724e36ae7a9def2,62bc3b3d22e728ce4bf89c35,2022-06-29_13h45.09.385,Colour_Asymmetry_Pilot,2022.1.3,Win32,60.20107158,62bbe60bf3d75ef465d3e404,0,25,25,27,1,twofour,,,,,,,,,,,,,,,,,,,,,,,,,,,,,,,,,,,,,,,,,,,,,,,,,,,,,,,,,,,,,,,,,,,,,,,,,,,,,,,,,,,,,,,,,,,,,,,,,,,,,,,,,,,,,,,,,,,,,,,,,,,,,,,,,,,,,,,,,,,,,,,,,,,,,,,,
,,,,,,602d29200724e36ae7a9def2,62bc3b3d22e728ce4bf89c35,2022-06-29_13h45.09.385,Colour_Asymmetry_Pilot,2022.1.3,Win32,60.20107158,62bbe60bf3d75ef465d3e404,0,26,26,92,1,threeone,,,,,,,,,,,,,,,,,,,,,,,,,,,,,,,,,,,,,,,,,,,,,,,,,,,,,,,,,,,,,,,,,,,,,,,,,,,,,,,,,,,,,,,,,,,,,,,,,,,,,,,,,,,,,,,,,,,,,,,,,,,,,,,,,,,,,,,,,,,,,,,,,,,,,,,,
,,,,,,602d29200724e36ae7a9def2,62bc3b3d22e728ce4bf89c35,2022-06-29_13h45.09.385,Colour_Asymmetry_Pilot,2022.1.3,Win32,60.20107158,62bbe60bf3d75ef465d3e404,0,27,27,94,1,fourtwo,,,,,,,,,,,,,,,,,,,,,,,,,,,,,,,,,,,,,,,,,,,,,,,,,,,,,,,,,,,,,,,,,,,,,,,,,,,,,,,,,,,,,,,,,,,,,,,,,,,,,,,,,,,,,,,,,,,,,,,,,,,,,,,,,,,,,,,,,,,,,,,,,,,,,,,,
,,,,,,602d29200724e36ae7a9def2,62bc3b3d22e728ce4bf89c35,2022-06-29_13h45.09.385,Colour_Asymmetry_Pilot,2022.1.3,Win32,60.20107158,62bbe60bf3d75ef465d3e404,0,28,28,59,1,twofour,,,,,,,,,,,,,,,,,,,,,,,,,,,,,,,,,,,,,,,,,,,,,,,,,,,,,,,,,,,,,,,,,,,,,,,,,,,,,,,,,,,,,,,,,,,,,,,,,,,,,,,,,,,,,,,,,,,,,,,,,,,,,,,,,,,,,,,,,,,,,,,,,,,,,,,,
,,,,,,602d29200724e36ae7a9def2,62bc3b3d22e728ce4bf89c35,2022-06-29_13h45.09.385,Colour_Asymmetry_Pilot,2022.1.3,Win32,60.20107158,62bbe60bf3d75ef465d3e404,0,29,29,60,1,threeone,,,,,,,,,,,,,,,,,,,,,,,,,,,,,,,,,,,,,,,,,,,,,,,,,,,,,,,,,,,,,,,,,,,,,,,,,,,,,,,,,,,,,,,,,,,,,,,,,,,,,,,,,,,,,,,,,,,,,,,,,,,,,,,,,,,,,,,,,,,,,,,,,,,,,,,,
,,,,,,602d29200724e36ae7a9def2,62bc3b3d22e728ce4bf89c35,2022-06-29_13h45.09.385,Colour_Asymmetry_Pilot,2022.1.3,Win32,60.20107158,62bbe60bf3d75ef465d3e404,0,30,30,138,1,twoone,,,,,,,,,,,,,,,,,,,,,,,,,,,,,,,,,,,,,,,,,,,,,,,,,,,,,,,,,,,,,,,,,,,,,,,,,,,,,,,,,,,,,,,,,,,,,,,,,,,,,,,,,,,,,,,,,,,,,,,,,,,,,,,,,,,,,,,,,,,,,,,,,,,,,,,,
,,,,,,602d29200724e36ae7a9def2,62bc3b3d22e728ce4bf89c35,2022-06-29_13h45.09.385,Colour_Asymmetry_Pilot,2022.1.3,Win32,60.20107158,62bbe60bf3d75ef465d3e404,0,31,31,142,1,fourtwo,,,,,,,,,,,,,,,,,,,,,,,,,,,,,,,,,,,,,,,,,,,,,,,,,,,,,,,,,,,,,,,,,,,,,,,,,,,,,,,,,,,,,,,,,,,,,,,,,,,,,,,,,,,,,,,,,,,,,,,,,,,,,,,,,,,,,,,,,,,,,,,,,,,,,,,,
,,,,,,602d29200724e36ae7a9def2,62bc3b3d22e728ce4bf89c35,2022-06-29_13h45.09.385,Colour_Asymmetry_Pilot,2022.1.3,Win32,60.20107158,62bbe60bf3d75ef465d3e404,0,32,32,47,1,fourthree,,,,,,,,,,,,,,,,,,,,,,,,,,,,,,,,,,,,,,,,,,,,,,,,,,,,,,,,,,,,,,,,,,,,,,,,,,,,,,,,,,,,,,,,,,,,,,,,,,,,,,,,,,,,,,,,,,,,,,,,,,,,,,,,,,,,,,,,,,,,,,,,,,,,,,,,
,,,,,,602d29200724e36ae7a9def2,62bc3b3d22e728ce4bf89c35,2022-06-29_13h45.09.385,Colour_Asymmetry_Pilot,2022.1.3,Win32,60.20107158,62bbe60bf3d75ef465d3e404,0,33,33,159,1,fourthree,,,,,,,,,,,,,,,,,,,,,,,,,,,,,,,,,,,,,,,,,,,,,,,,,,,,,,,,,,,,,,,,,,,,,,,,,,,,,,,,,,,,,,,,,,,,,,,,,,,,,,,,,,,,,,,,,,,,,,,,,,,,,,,,,,,,,,,,,,,,,,,,,,,,,,,,
,,,,,,602d29200724e36ae7a9def2,62bc3b3d22e728ce4bf89c35,2022-06-29_13h45.09.385,Colour_Asymmetry_Pilot,2022.1.3,Win32,60.20107158,62bbe60bf3d75ef465d3e404,0,34,34,79,1,fourthree,,,,,,,,,,,,,,,,,,,,,,,,,,,,,,,,,,,,,,,,,,,,,,,,,,,,,,,,,,,,,,,,,,,,,,,,,,,,,,,,,,,,,,,,,,,,,,,,,,,,,,,,,,,,,,,,,,,,,,,,,,,,,,,,,,,,,,,,,,,,,,,,,,,,,,,,
,,,,,,602d29200724e36ae7a9def2,62bc3b3d22e728ce4bf89c35,2022-06-29_13h45.09.385,Colour_Asymmetry_Pilot,2022.1.3,Win32,60.20107158,62bbe60bf3d75ef465d3e404,0,35,35,19,1,twofour,,,,,,,,,,,,,,,,,,,,,,,,,,,,,,,,,,,,,,,,,,,,,,,,,,,,,,,,,,,,,,,,,,,,,,,,,,,,,,,,,,,,,,,,,,,,,,,,,,,,,,,,,,,,,,,,,,,,,,,,,,,,,,,,,,,,,,,,,,,,,,,,,,,,,,,,
,,,,,,602d29200724e36ae7a9def2,62bc3b3d22e728ce4bf89c35,2022-06-29_13h45.09.385,Colour_Asymmetry_Pilot,2022.1.3,Win32,60.20107158,62bbe60bf3d75ef465d3e404,0,36,36,53,1,threefour,,,,,,,,,,,,,,,,,,,,,,,,,,,,,,,,,,,,,,,,,,,,,,,,,,,,,,,,,,,,,,,,,,,,,,,,,,,,,,,,,,,,,,,,,,,,,,,,,,,,,,,,,,,,,,,,,,,,,,,,,,,,,,,,,,,,,,,,,,,,,,,,,,,,,,,,
,,,,,,602d29200724e36ae7a9def2,62bc3b3d22e728ce4bf89c35,2022-06-29_13h45.09.385,Colour_Asymmetry_Pilot,2022.1.3,Win32,60.20107158,62bbe60bf3d75ef465d3e404,0,37,37,152,1,onetwo,,,,,,,,,,,,,,,,,,,,,,,,,,,,,,,,,,,,,,,,,,,,,,,,,,,,,,,,,,,,,,,,,,,,,,,,,,,,,,,,,,,,,,,,,,,,,,,,,,,,,,,,,,,,,,,,,,,,,,,,,,,,,,,,,,,,,,,,,,,,,,,,,,,,,,,,
,,,,,,602d29200724e36ae7a9def2,62bc3b3d22e728ce4bf89c35,2022-06-29_13h45.09.385,Colour_Asymmetry_Pilot,2022.1.3,Win32,60.20107158,62bbe60bf3d75ef465d3e404,0,38,38,134,1,fourtwo,,,,,,,,,,,,,,,,,,,,,,,,,,,,,,,,,,,,,,,,,,,,,,,,,,,,,,,,,,,,,,,,,,,,,,,,,,,,,,,,,,,,,,,,,,,,,,,,,,,,,,,,,,,,,,,,,,,,,,,,,,,,,,,,,,,,,,,,,,,,,,,,,,,,,,,,
,,,,,,602d29200724e36ae7a9def2,62bc3b3d22e728ce4bf89c35,2022-06-29_13h45.09.385,Colour_Asymmetry_Pilot,2022.1.3,Win32,60.20107158,62bbe60bf3d75ef465d3e404,0,39,39,151,1,fourthree,,,,,,,,,,,,,,,,,,,,,,,,,,,,,,,,,,,,,,,,,,,,,,,,,,,,,,,,,,,,,,,,,,,,,,,,,,,,,,,,,,,,,,,,,,,,,,,,,,,,,,,,,,,,,,,,,,,,,,,,,,,,,,,,,,,,,,,,,,,,,,,,,,,,,,,,
,,,,,,602d29200724e36ae7a9def2,62bc3b3d22e728ce4bf89c35,2022-06-29_13h45.09.385,Colour_Asymmetry_Pilot,2022.1.3,Win32,60.20107158,62bbe60bf3d75ef465d3e404,0,40,40,56,1,onetwo,,,,,,,,,,,,,,,,,,,,,,,,,,,,,,,,,,,,,,,,,,,,,,,,,,,,,,,,,,,,,,,,,,,,,,,,,,,,,,,,,,,,,,,,,,,,,,,,,,,,,,,,,,,,,,,,,,,,,,,,,,,,,,,,,,,,,,,,,,,,,,,,,,,,,,,,
,,,,,,602d29200724e36ae7a9def2,62bc3b3d22e728ce4bf89c35,2022-06-29_13h45.09.385,Colour_Asymmetry_Pilot,2022.1.3,Win32,60.20107158,62bbe60bf3d75ef465d3e404,0,41,41,13,1,threefour,,,,,,,,,,,,,,,,,,,,,,,,,,,,,,,,,,,,,,,,,,,,,,,,,,,,,,,,,,,,,,,,,,,,,,,,,,,,,,,,,,,,,,,,,,,,,,,,,,,,,,,,,,,,,,,,,,,,,,,,,,,,,,,,,,,,,,,,,,,,,,,,,,,,,,,,
,,,,,,602d29200724e36ae7a9def2,62bc3b3d22e728ce4bf89c35,2022-06-29_13h45.09.385,Colour_Asymmetry_Pilot,2022.1.3,Win32,60.20107158,62bbe60bf3d75ef465d3e404,0,42,42,65,1,onethree,,,,,,,,,,,,,,,,,,,,,,,,,,,,,,,,,,,,,,,,,,,,,,,,,,,,,,,,,,,,,,,,,,,,,,,,,,,,,,,,,,,,,,,,,,,,,,,,,,,,,,,,,,,,,,,,,,,,,,,,,,,,,,,,,,,,,,,,,,,,,,,,,,,,,,,,
,,,,,,602d29200724e36ae7a9def2,62bc3b3d22e728ce4bf89c35,2022-06-29_13h45.09.385,Colour_Asymmetry_Pilot,2022.1.3,Win32,60.20107158,62bbe60bf3d75ef465d3e404,0,43,43,127,1,fourthree,,,,,,,,,,,,,,,,,,,,,,,,,,,,,,,,,,,,,,,,,,,,,,,,,,,,,,,,,,,,,,,,,,,,,,,,,,,,,,,,,,,,,,,,,,,,,,,,,,,,,,,,,,,,,,,,,,,,,,,,,,,,,,,,,,,,,,,,,,,,,,,,,,,,,,,,
,,,,,,602d29200724e36ae7a9def2,62bc3b3d22e728ce4bf89c35,2022-06-29_13h45.09.385,Colour_Asymmetry_Pilot,2022.1.3,Win32,60.20107158,62bbe60bf3d75ef465d3e404,0,44,44,104,1,onetwo,,,,,,,,,,,,,,,,,,,,,,,,,,,,,,,,,,,,,,,,,,,,,,,,,,,,,,,,,,,,,,,,,,,,,,,,,,,,,,,,,,,,,,,,,,,,,,,,,,,,,,,,,,,,,,,,,,,,,,,,,,,,,,,,,,,,,,,,,,,,,,,,,,,,,,,,
,,,,,,602d29200724e36ae7a9def2,62bc3b3d22e728ce4bf89c35,2022-06-29_13h45.09.385,Colour_Asymmetry_Pilot,2022.1.3,Win32,60.20107158,62bbe60bf3d75ef465d3e404,0,45,45,64,1,onetwo,,,,,,,,,,,,,,,,,,,,,,,,,,,,,,,,,,,,,,,,,,,,,,,,,,,,,,,,,,,,,,,,,,,,,,,,,,,,,,,,,,,,,,,,,,,,,,,,,,,,,,,,,,,,,,,,,,,,,,,,,,,,,,,,,,,,,,,,,,,,,,,,,,,,,,,,
,,,,,,602d29200724e36ae7a9def2,62bc3b3d22e728ce4bf89c35,2022-06-29_13h45.09.385,Colour_Asymmetry_Pilot,2022.1.3,Win32,60.20107158,62bbe60bf3d75ef465d3e404,0,46,46,74,1,twoone,,,,,,,,,,,,,,,,,,,,,,,,,,,,,,,,,,,,,,,,,,,,,,,,,,,,,,,,,,,,,,,,,,,,,,,,,,,,,,,,,,,,,,,,,,,,,,,,,,,,,,,,,,,,,,,,,,,,,,,,,,,,,,,,,,,,,,,,,,,,,,,,,,,,,,,,
,,,,,,602d29200724e36ae7a9def2,62bc3b3d22e728ce4bf89c35,2022-06-29_13h45.09.385,Colour_Asymmetry_Pilot,2022.1.3,Win32,60.20107158,62bbe60bf3d75ef465d3e404,0,47,47,22,1,fourtwo,,,,,,,,,,,,,,,,,,,,,,,,,,,,,,,,,,,,,,,,,,,,,,,,,,,,,,,,,,,,,,,,,,,,,,,,,,,,,,,,,,,,,,,,,,,,,,,,,,,,,,,,,,,,,,,,,,,,,,,,,,,,,,,,,,,,,,,,,,,,,,,,,,,,,,,,
,,,,,,602d29200724e36ae7a9def2,62bc3b3d22e728ce4bf89c35,2022-06-29_13h45.09.385,Colour_Asymmetry_Pilot,2022.1.3,Win32,60.20107158,62bbe60bf3d75ef465d3e404,0,48,48,107,1,twofour,,,,,,,,,,,,,,,,,,,,,,,,,,,,,,,,,,,,,,,,,,,,,,,,,,,,,,,,,,,,,,,,,,,,,,,,,,,,,,,,,,,,,,,,,,,,,,,,,,,,,,,,,,,,,,,,,,,,,,,,,,,,,,,,,,,,,,,,,,,,,,,,,,,,,,,,
,,,,,,602d29200724e36ae7a9def2,62bc3b3d22e728ce4bf89c35,2022-06-29_13h45.09.385,Colour_Asymmetry_Pilot,2022.1.3,Win32,60.20107158,62bbe60bf3d75ef465d3e404,0,49,49,91,1,twofour,,,,,,,,,,,,,,,,,,,,,,,,,,,,,,,,,,,,,,,,,,,,,,,,,,,,,,,,,,,,,,,,,,,,,,,,,,,,,,,,,,,,,,,,,,,,,,,,,,,,,,,,,,,,,,,,,,,,,,,,,,,,,,,,,,,,,,,,,,,,,,,,,,,,,,,,
,,,,,,602d29200724e36ae7a9def2,62bc3b3d22e728ce4bf89c35,2022-06-29_13h45.09.385,Colour_Asymmetry_Pilot,2022.1.3,Win32,60.20107158,62bbe60bf3d75ef465d3e404,0,50,50,20,1,threeone,,,,,,,,,,,,,,,,,,,,,,,,,,,,,,,,,,,,,,,,,,,,,,,,,,,,,,,,,,,,,,,,,,,,,,,,,,,,,,,,,,,,,,,,,,,,,,,,,,,,,,,,,,,,,,,,,,,,,,,,,,,,,,,,,,,,,,,,,,,,,,,,,,,,,,,,
,,,,,,602d29200724e36ae7a9def2,62bc3b3d22e728ce4bf89c35,2022-06-29_13h45.09.385,Colour_Asymmetry_Pilot,2022.1.3,Win32,60.20107158,62bbe60bf3d75ef465d3e404,0,51,51,21,1,threefour,,,,,,,,,,,,,,,,,,,,,,,,,,,,,,,,,,,,,,,,,,,,,,,,,,,,,,,,,,,,,,,,,,,,,,,,,,,,,,,,,,,,,,,,,,,,,,,,,,,,,,,,,,,,,,,,,,,,,,,,,,,,,,,,,,,,,,,,,,,,,,,,,,,,,,,,
,,,,,,602d29200724e36ae7a9def2,62bc3b3d22e728ce4bf89c35,2022-06-29_13h45.09.385,Colour_Asymmetry_Pilot,2022.1.3,Win32,60.20107158,62bbe60bf3d75ef465d3e404,0,52,52,75,1,twofour,,,,,,,,,,,,,,,,,,,,,,,,,,,,,,,,,,,,,,,,,,,,,,,,,,,,,,,,,,,,,,,,,,,,,,,,,,,,,,,,,,,,,,,,,,,,,,,,,,,,,,,,,,,,,,,,,,,,,,,,,,,,,,,,,,,,,,,,,,,,,,,,,,,,,,,,
,,,,,,602d29200724e36ae7a9def2,62bc3b3d22e728ce4bf89c35,2022-06-29_13h45.09.385,Colour_Asymmetry_Pilot,2022.1.3,Win32,60.20107158,62bbe60bf3d75ef465d3e404,0,53,53,158,1,fourtwo,,,,,,,,,,,,,,,,,,,,,,,,,,,,,,,,,,,,,,,,,,,,,,,,,,,,,,,,,,,,,,,,,,,,,,,,,,,,,,,,,,,,,,,,,,,,,,,,,,,,,,,,,,,,,,,,,,,,,,,,,,,,,,,,,,,,,,,,,,,,,,,,,,,,,,,,
,,,,,,602d29200724e36ae7a9def2,62bc3b3d22e728ce4bf89c35,2022-06-29_13h45.09.385,Colour_Asymmetry_Pilot,2022.1.3,Win32,60.20107158,62bbe60bf3d75ef465d3e404,0,54,54,102,1,fourtwo,,,,,,,,,,,,,,,,,,,,,,,,,,,,,,,,,,,,,,,,,,,,,,,,,,,,,,,,,,,,,,,,,,,,,,,,,,,,,,,,,,,,,,,,,,,,,,,,,,,,,,,,,,,,,,,,,,,,,,,,,,,,,,,,,,,,,,,,,,,,,,,,,,,,,,,,
,,,,,,602d29200724e36ae7a9def2,62bc3b3d22e728ce4bf89c35,2022-06-29_13h45.09.385,Colour_Asymmetry_Pilot,2022.1.3,Win32,60.20107158,62bbe60bf3d75ef465d3e404,0,55,55,106,1,twoone,,,,,,,,,,,,,,,,,,,,,,,,,,,,,,,,,,,,,,,,,,,,,,,,,,,,,,,,,,,,,,,,,,,,,,,,,,,,,,,,,,,,,,,,,,,,,,,,,,,,,,,,,,,,,,,,,,,,,,,,,,,,,,,,,,,,,,,,,,,,,,,,,,,,,,,,
,,,,,,602d29200724e36ae7a9def2,62bc3b3d22e728ce4bf89c35,2022-06-29_13h45.09.385,Colour_Asymmetry_Pilot,2022.1.3,Win32,60.20107158,62bbe60bf3d75ef465d3e404,0,56,56,11,1,twofour,,,,,,,,,,,,,,,,,,,,,,,,,,,,,,,,,,,,,,,,,,,,,,,,,,,,,,,,,,,,,,,,,,,,,,,,,,,,,,,,,,,,,,,,,,,,,,,,,,,,,,,,,,,,,,,,,,,,,,,,,,,,,,,,,,,,,,,,,,,,,,,,,,,,,,,,
,,,,,,602d29200724e36ae7a9def2,62bc3b3d22e728ce4bf89c35,2022-06-29_13h45.09.385,Colour_Asymmetry_Pilot,2022.1.3,Win32,60.20107158,62bbe60bf3d75ef465d3e404,0,57,57,131,1,twofour,,,,,,,,,,,,,,,,,,,,,,,,,,,,,,,,,,,,,,,,,,,,,,,,,,,,,,,,,,,,,,,,,,,,,,,,,,,,,,,,,,,,,,,,,,,,,,,,,,,,,,,,,,,,,,,,,,,,,,,,,,,,,,,,,,,,,,,,,,,,,,,,,,,,,,,,
,,,,,,602d29200724e36ae7a9def2,62bc3b3d22e728ce4bf89c35,2022-06-29_13h45.09.385,Colour_Asymmetry_Pilot,2022.1.3,Win32,60.20107158,62bbe60bf3d75ef465d3e404,0,58,58,81,1,onethree,,,,,,,,,,,,,,,,,,,,,,,,,,,,,,,,,,,,,,,,,,,,,,,,,,,,,,,,,,,,,,,,,,,,,,,,,,,,,,,,,,,,,,,,,,,,,,,,,,,,,,,,,,,,,,,,,,,,,,,,,,,,,,,,,,,,,,,,,,,,,,,,,,,,,,,,
,,,,,,602d29200724e36ae7a9def2,62bc3b3d22e728ce4bf89c35,2022-06-29_13h45.09.385,Colour_Asymmetry_Pilot,2022.1.3,Win32,60.20107158,62bbe60bf3d75ef465d3e404,0,59,59,3,1,twofour,,,,,,,,,,,,,,,,,,,,,,,,,,,,,,,,,,,,,,,,,,,,,,,,,,,,,,,,,,,,,,,,,,,,,,,,,,,,,,,,,,,,,,,,,,,,,,,,,,,,,,,,,,,,,,,,,,,,,,,,,,,,,,,,,,,,,,,,,,,,,,,,,,,,,,,,
,,,,,,602d29200724e36ae7a9def2,62bc3b3d22e728ce4bf89c35,2022-06-29_13h45.09.385,Colour_Asymmetry_Pilot,2022.1.3,Win32,60.20107158,62bbe60bf3d75ef465d3e404,0,60,60,68,1,threeone,,,,,,,,,,,,,,,,,,,,,,,,,,,,,,,,,,,,,,,,,,,,,,,,,,,,,,,,,,,,,,,,,,,,,,,,,,,,,,,,,,,,,,,,,,,,,,,,,,,,,,,,,,,,,,,,,,,,,,,,,,,,,,,,,,,,,,,,,,,,,,,,,,,,,,,,
,,,,,,602d29200724e36ae7a9def2,62bc3b3d22e728ce4bf89c35,2022-06-29_13h45.09.385,Colour_Asymmetry_Pilot,2022.1.3,Win32,60.20107158,62bbe60bf3d75ef465d3e404,0,61,61,103,1,fourthree,,,,,,,,,,,,,,,,,,,,,,,,,,,,,,,,,,,,,,,,,,,,,,,,,,,,,,,,,,,,,,,,,,,,,,,,,,,,,,,,,,,,,,,,,,,,,,,,,,,,,,,,,,,,,,,,,,,,,,,,,,,,,,,,,,,,,,,,,,,,,,,,,,,,,,,,
,,,,,,602d29200724e36ae7a9def2,62bc3b3d22e728ce4bf89c35,2022-06-29_13h45.09.385,Colour_Asymmetry_Pilot,2022.1.3,Win32,60.20107158,62bbe60bf3d75ef465d3e404,0,62,62,122,1,twoone,,,,,,,,,,,,,,,,,,,,,,,,,,,,,,,,,,,,,,,,,,,,,,,,,,,,,,,,,,,,,,,,,,,,,,,,,,,,,,,,,,,,,,,,,,,,,,,,,,,,,,,,,,,,,,,,,,,,,,,,,,,,,,,,,,,,,,,,,,,,,,,,,,,,,,,,
,,,,,,602d29200724e36ae7a9def2,62bc3b3d22e728ce4bf89c35,2022-06-29_13h45.09.385,Colour_Asymmetry_Pilot,2022.1.3,Win32,60.20107158,62bbe60bf3d75ef465d3e404,0,63,63,154,1,twoone,,,,,,,,,,,,,,,,,,,,,,,,,,,,,,,,,,,,,,,,,,,,,,,,,,,,,,,,,,,,,,,,,,,,,,,,,,,,,,,,,,,,,,,,,,,,,,,,,,,,,,,,,,,,,,,,,,,,,,,,,,,,,,,,,,,,,,,,,,,,,,,,,,,,,,,,
,,,,,,602d29200724e36ae7a9def2,62bc3b3d22e728ce4bf89c35,2022-06-29_13h45.09.385,Colour_Asymmetry_Pilot,2022.1.3,Win32,60.20107158,62bbe60bf3d75ef465d3e404,0,64,64,146,1,twoone,,,,,,,,,,,,,,,,,,,,,,,,,,,,,,,,,,,,,,,,,,,,,,,,,,,,,,,,,,,,,,,,,,,,,,,,,,,,,,,,,,,,,,,,,,,,,,,,,,,,,,,,,,,,,,,,,,,,,,,,,,,,,,,,,,,,,,,,,,,,,,,,,,,,,,,,
,,,,,,602d29200724e36ae7a9def2,62bc3b3d22e728ce4bf89c35,2022-06-29_13h45.09.385,Colour_Asymmetry_Pilot,2022.1.3,Win32,60.20107158,62bbe60bf3d75ef465d3e404,0,65,65,99,1,twofour,,,,,,,,,,,,,,,,,,,,,,,,,,,,,,,,,,,,,,,,,,,,,,,,,,,,,,,,,,,,,,,,,,,,,,,,,,,,,,,,,,,,,,,,,,,,,,,,,,,,,,,,,,,,,,,,,,,,,,,,,,,,,,,,,,,,,,,,,,,,,,,,,,,,,,,,
,,,,,,602d29200724e36ae7a9def2,62bc3b3d22e728ce4bf89c35,2022-06-29_13h45.09.385,Colour_Asymmetry_Pilot,2022.1.3,Win32,60.20107158,62bbe60bf3d75ef465d3e404,0,66,66,123,1,twofour,,,,,,,,,,,,,,,,,,,,,,,,,,,,,,,,,,,,,,,,,,,,,,,,,,,,,,,,,,,,,,,,,,,,,,,,,,,,,,,,,,,,,,,,,,,,,,,,,,,,,,,,,,,,,,,,,,,,,,,,,,,,,,,,,,,,,,,,,,,,,,,,,,,,,,,,
,,,,,,602d29200724e36ae7a9def2,62bc3b3d22e728ce4bf89c35,2022-06-29_13h45.09.385,Colour_Asymmetry_Pilot,2022.1.3,Win32,60.20107158,62bbe60bf3d75ef465d3e404,0,67,67,29,1,threefour,,,,,,,,,,,,,,,,,,,,,,,,,,,,,,,,,,,,,,,,,,,,,,,,,,,,,,,,,,,,,,,,,,,,,,,,,,,,,,,,,,,,,,,,,,,,,,,,,,,,,,,,,,,,,,,,,,,,,,,,,,,,,,,,,,,,,,,,,,,,,,,,,,,,,,,,
,,,,,,602d29200724e36ae7a9def2,62bc3b3d22e728ce4bf89c35,2022-06-29_13h45.09.385,Colour_Asymmetry_Pilot,2022.1.3,Win32,60.20107158,62bbe60bf3d75ef465d3e404,0,68,68,112,1,onetwo,,,,,,,,,,,,,,,,,,,,,,,,,,,,,,,,,,,,,,,,,,,,,,,,,,,,,,,,,,,,,,,,,,,,,,,,,,,,,,,,,,,,,,,,,,,,,,,,,,,,,,,,,,,,,,,,,,,,,,,,,,,,,,,,,,,,,,,,,,,,,,,,,,,,,,,,
,,,,,,602d29200724e36ae7a9def2,62bc3b3d22e728ce4bf89c35,2022-06-29_13h45.09.385,Colour_Asymmetry_Pilot,2022.1.3,Win32,60.20107158,62bbe60bf3d75ef465d3e404,0,69,69,25,1,onethree,,,,,,,,,,,,,,,,,,,,,,,,,,,,,,,,,,,,,,,,,,,,,,,,,,,,,,,,,,,,,,,,,,,,,,,,,,,,,,,,,,,,,,,,,,,,,,,,,,,,,,,,,,,,,,,,,,,,,,,,,,,,,,,,,,,,,,,,,,,,,,,,,,,,,,,,
,,,,,,602d29200724e36ae7a9def2,62bc3b3d22e728ce4bf89c35,2022-06-29_13h45.09.385,Colour_Asymmetry_Pilot,2022.1.3,Win32,60.20107158,62bbe60bf3d75ef465d3e404,0,70,70,61,1,threefour,,,,,,,,,,,,,,,,,,,,,,,,,,,,,,,,,,,,,,,,,,,,,,,,,,,,,,,,,,,,,,,,,,,,,,,,,,,,,,,,,,,,,,,,,,,,,,,,,,,,,,,,,,,,,,,,,,,,,,,,,,,,,,,,,,,,,,,,,,,,,,,,,,,,,,,,
,,,,,,602d29200724e36ae7a9def2,62bc3b3d22e728ce4bf89c35,2022-06-29_13h45.09.385,Colour_Asymmetry_Pilot,2022.1.3,Win32,60.20107158,62bbe60bf3d75ef465d3e404,0,71,71,57,1,onethree,,,,,,,,,,,,,,,,,,,,,,,,,,,,,,,,,,,,,,,,,,,,,,,,,,,,,,,,,,,,,,,,,,,,,,,,,,,,,,,,,,,,,,,,,,,,,,,,,,,,,,,,,,,,,,,,,,,,,,,,,,,,,,,,,,,,,,,,,,,,,,,,,,,,,,,,
,,,,,,602d29200724e36ae7a9def2,62bc3b3d22e728ce4bf89c35,2022-06-29_13h45.09.385,Colour_Asymmetry_Pilot,2022.1.3,Win32,60.20107158,62bbe60bf3d75ef465d3e404,0,72,72,78,1,fourtwo,,,,,,,,,,,,,,,,,,,,,,,,,,,,,,,,,,,,,,,,,,,,,,,,,,,,,,,,,,,,,,,,,,,,,,,,,,,,,,,,,,,,,,,,,,,,,,,,,,,,,,,,,,,,,,,,,,,,,,,,,,,,,,,,,,,,,,,,,,,,,,,,,,,,,,,,
,,,,,,602d29200724e36ae7a9def2,62bc3b3d22e728ce4bf89c35,2022-06-29_13h45.09.385,Colour_Asymmetry_Pilot,2022.1.3,Win32,60.20107158,62bbe60bf3d75ef465d3e404,0,73,73,153,1,onethree,,,,,,,,,,,,,,,,,,,,,,,,,,,,,,,,,,,,,,,,,,,,,,,,,,,,,,,,,,,,,,,,,,,,,,,,,,,,,,,,,,,,,,,,,,,,,,,,,,,,,,,,,,,,,,,,,,,,,,,,,,,,,,,,,,,,,,,,,,,,,,,,,,,,,,,,
,,,,,,602d29200724e36ae7a9def2,62bc3b3d22e728ce4bf89c35,2022-06-29_13h45.09.385,Colour_Asymmetry_Pilot,2022.1.3,Win32,60.20107158,62bbe60bf3d75ef465d3e404,0,74,74,148,1,threeone,,,,,,,,,,,,,,,,,,,,,,,,,,,,,,,,,,,,,,,,,,,,,,,,,,,,,,,,,,,,,,,,,,,,,,,,,,,,,,,,,,,,,,,,,,,,,,,,,,,,,,,,,,,,,,,,,,,,,,,,,,,,,,,,,,,,,,,,,,,,,,,,,,,,,,,,
,,,,,,602d29200724e36ae7a9def2,62bc3b3d22e728ce4bf89c35,2022-06-29_13h45.09.385,Colour_Asymmetry_Pilot,2022.1.3,Win32,60.20107158,62bbe60bf3d75ef465d3e404,0,75,75,135,1,fourthree,,,,,,,,,,,,,,,,,,,,,,,,,,,,,,,,,,,,,,,,,,,,,,,,,,,,,,,,,,,,,,,,,,,,,,,,,,,,,,,,,,,,,,,,,,,,,,,,,,,,,,,,,,,,,,,,,,,,,,,,,,,,,,,,,,,,,,,,,,,,,,,,,,,,,,,,
,,,,,,602d29200724e36ae7a9def2,62bc3b3d22e728ce4bf89c35,2022-06-29_13h45.09.385,Colour_Asymmetry_Pilot,2022.1.3,Win32,60.20107158,62bbe60bf3d75ef465d3e404,0,76,76,77,1,threefour,,,,,,,,,,,,,,,,,,,,,,,,,,,,,,,,,,,,,,,,,,,,,,,,,,,,,,,,,,,,,,,,,,,,,,,,,,,,,,,,,,,,,,,,,,,,,,,,,,,,,,,,,,,,,,,,,,,,,,,,,,,,,,,,,,,,,,,,,,,,,,,,,,,,,,,,
,,,,,,602d29200724e36ae7a9def2,62bc3b3d22e728ce4bf89c35,2022-06-29_13h45.09.385,Colour_Asymmetry_Pilot,2022.1.3,Win32,60.20107158,62bbe60bf3d75ef465d3e404,0,77,77,132,1,threeone,,,,,,,,,,,,,,,,,,,,,,,,,,,,,,,,,,,,,,,,,,,,,,,,,,,,,,,,,,,,,,,,,,,,,,,,,,,,,,,,,,,,,,,,,,,,,,,,,,,,,,,,,,,,,,,,,,,,,,,,,,,,,,,,,,,,,,,,,,,,,,,,,,,,,,,,
,,,,,,602d29200724e36ae7a9def2,62bc3b3d22e728ce4bf89c35,2022-06-29_13h45.09.385,Colour_Asymmetry_Pilot,2022.1.3,Win32,60.20107158,62bbe60bf3d75ef465d3e404,0,78,78,136,1,onetwo,,,,,,,,,,,,,,,,,,,,,,,,,,,,,,,,,,,,,,,,,,,,,,,,,,,,,,,,,,,,,,,,,,,,,,,,,,,,,,,,,,,,,,,,,,,,,,,,,,,,,,,,,,,,,,,,,,,,,,,,,,,,,,,,,,,,,,,,,,,,,,,,,,,,,,,,
,,,,,,602d29200724e36ae7a9def2,62bc3b3d22e728ce4bf89c35,2022-06-29_13h45.09.385,Colour_Asymmetry_Pilot,2022.1.3,Win32,60.20107158,62bbe60bf3d75ef465d3e404,0,79,79,82,1,twoone,,,,,,,,,,,,,,,,,,,,,,,,,,,,,,,,,,,,,,,,,,,,,,,,,,,,,,,,,,,,,,,,,,,,,,,,,,,,,,,,,,,,,,,,,,,,,,,,,,,,,,,,,,,,,,,,,,,,,,,,,,,,,,,,,,,,,,,,,,,,,,,,,,,,,,,,
,,,,,,602d29200724e36ae7a9def2,62bc3b3d22e728ce4bf89c35,2022-06-29_13h45.09.385,Colour_Asymmetry_Pilot,2022.1.3,Win32,60.20107158,62bbe60bf3d75ef465d3e404,0,80,80,113,1,onethree,,,,,,,,,,,,,,,,,,,,,,,,,,,,,,,,,,,,,,,,,,,,,,,,,,,,,,,,,,,,,,,,,,,,,,,,,,,,,,,,,,,,,,,,,,,,,,,,,,,,,,,,,,,,,,,,,,,,,,,,,,,,,,,,,,,,,,,,,,,,,,,,,,,,,,,,
,,,,,,602d29200724e36ae7a9def2,62bc3b3d22e728ce4bf89c35,2022-06-29_13h45.09.385,Colour_Asymmetry_Pilot,2022.1.3,Win32,60.20107158,62bbe60bf3d75ef465d3e404,0,81,81,157,1,threefour,,,,,,,,,,,,,,,,,,,,,,,,,,,,,,,,,,,,,,,,,,,,,,,,,,,,,,,,,,,,,,,,,,,,,,,,,,,,,,,,,,,,,,,,,,,,,,,,,,,,,,,,,,,,,,,,,,,,,,,,,,,,,,,,,,,,,,,,,,,,,,,,,,,,,,,,
,,,,,,602d29200724e36ae7a9def2,62bc3b3d22e728ce4bf89c35,2022-06-29_13h45.09.385,Colour_Asymmetry_Pilot,2022.1.3,Win32,60.20107158,62bbe60bf3d75ef465d3e404,0,82,82,18,1,twoone,,,,,,,,,,,,,,,,,,,,,,,,,,,,,,,,,,,,,,,,,,,,,,,,,,,,,,,,,,,,,,,,,,,,,,,,,,,,,,,,,,,,,,,,,,,,,,,,,,,,,,,,,,,,,,,,,,,,,,,,,,,,,,,,,,,,,,,,,,,,,,,,,,,,,,,,
,,,,,,602d29200724e36ae7a9def2,62bc3b3d22e728ce4bf89c35,2022-06-29_13h45.09.385,Colour_Asymmetry_Pilot,2022.1.3,Win32,60.20107158,62bbe60bf3d75ef465d3e404,0,83,83,101,1,threefour,,,,,,,,,,,,,,,,,,,,,,,,,,,,,,,,,,,,,,,,,,,,,,,,,,,,,,,,,,,,,,,,,,,,,,,,,,,,,,,,,,,,,,,,,,,,,,,,,,,,,,,,,,,,,,,,,,,,,,,,,,,,,,,,,,,,,,,,,,,,,,,,,,,,,,,,
,,,,,,602d29200724e36ae7a9def2,62bc3b3d22e728ce4bf89c35,2022-06-29_13h45.09.385,Colour_Asymmetry_Pilot,2022.1.3,Win32,60.20107158,62bbe60bf3d75ef465d3e404,0,84,84,93,1,threefour,,,,,,,,,,,,,,,,,,,,,,,,,,,,,,,,,,,,,,,,,,,,,,,,,,,,,,,,,,,,,,,,,,,,,,,,,,,,,,,,,,,,,,,,,,,,,,,,,,,,,,,,,,,,,,,,,,,,,,,,,,,,,,,,,,,,,,,,,,,,,,,,,,,,,,,,
,,,,,,602d29200724e36ae7a9def2,62bc3b3d22e728ce4bf89c35,2022-06-29_13h45.09.385,Colour_Asymmetry_Pilot,2022.1.3,Win32,60.20107158,62bbe60bf3d75ef465d3e404,0,85,85,42,1,twoone,,,,,,,,,,,,,,,,,,,,,,,,,,,,,,,,,,,,,,,,,,,,,,,,,,,,,,,,,,,,,,,,,,,,,,,,,,,,,,,,,,,,,,,,,,,,,,,,,,,,,,,,,,,,,,,,,,,,,,,,,,,,,,,,,,,,,,,,,,,,,,,,,,,,,,,,
,,,,,,602d29200724e36ae7a9def2,62bc3b3d22e728ce4bf89c35,2022-06-29_13h45.09.385,Colour_Asymmetry_Pilot,2022.1.3,Win32,60.20107158,62bbe60bf3d75ef465d3e404,0,86,86,137,1,onethree,,,,,,,,,,,,,,,,,,,,,,,,,,,,,,,,,,,,,,,,,,,,,,,,,,,,,,,,,,,,,,,,,,,,,,,,,,,,,,,,,,,,,,,,,,,,,,,,,,,,,,,,,,,,,,,,,,,,,,,,,,,,,,,,,,,,,,,,,,,,,,,,,,,,,,,,
,,,,,,602d29200724e36ae7a9def2,62bc3b3d22e728ce4bf89c35,2022-06-29_13h45.09.385,Colour_Asymmetry_Pilot,2022.1.3,Win32,60.20107158,62bbe60bf3d75ef465d3e404,0,87,87,83,1,twofour,,,,,,,,,,,,,,,,,,,,,,,,,,,,,,,,,,,,,,,,,,,,,,,,,,,,,,,,,,,,,,,,,,,,,,,,,,,,,,,,,,,,,,,,,,,,,,,,,,,,,,,,,,,,,,,,,,,,,,,,,,,,,,,,,,,,,,,,,,,,,,,,,,,,,,,,
,,,,,,602d29200724e36ae7a9def2,62bc3b3d22e728ce4bf89c35,2022-06-29_13h45.09.385,Colour_Asymmetry_Pilot,2022.1.3,Win32,60.20107158,62bbe60bf3d75ef465d3e404,0,88,88,155,1,twofour,,,,,,,,,,,,,,,,,,,,,,,,,,,,,,,,,,,,,,,,,,,,,,,,,,,,,,,,,,,,,,,,,,,,,,,,,,,,,,,,,,,,,,,,,,,,,,,,,,,,,,,,,,,,,,,,,,,,,,,,,,,,,,,,,,,,,,,,,,,,,,,,,,,,,,,,
,,,,,,602d29200724e36ae7a9def2,62bc3b3d22e728ce4bf89c35,2022-06-29_13h45.09.385,Colour_Asymmetry_Pilot,2022.1.3,Win32,60.20107158,62bbe60bf3d75ef465d3e404,0,89,89,54,1,fourtwo,,,,,,,,,,,,,,,,,,,,,,,,,,,,,,,,,,,,,,,,,,,,,,,,,,,,,,,,,,,,,,,,,,,,,,,,,,,,,,,,,,,,,,,,,,,,,,,,,,,,,,,,,,,,,,,,,,,,,,,,,,,,,,,,,,,,,,,,,,,,,,,,,,,,,,,,
,,,,,,602d29200724e36ae7a9def2,62bc3b3d22e728ce4bf89c35,2022-06-29_13h45.09.385,Colour_Asymmetry_Pilot,2022.1.3,Win32,60.20107158,62bbe60bf3d75ef465d3e404,0,90,90,143,1,fourthree,,,,,,,,,,,,,,,,,,,,,,,,,,,,,,,,,,,,,,,,,,,,,,,,,,,,,,,,,,,,,,,,,,,,,,,,,,,,,,,,,,,,,,,,,,,,,,,,,,,,,,,,,,,,,,,,,,,,,,,,,,,,,,,,,,,,,,,,,,,,,,,,,,,,,,,,
,,,,,,602d29200724e36ae7a9def2,62bc3b3d22e728ce4bf89c35,2022-06-29_13h45.09.385,Colour_Asymmetry_Pilot,2022.1.3,Win32,60.20107158,62bbe60bf3d75ef465d3e404,0,91,91,50,1,twoone,,,,,,,,,,,,,,,,,,,,,,,,,,,,,,,,,,,,,,,,,,,,,,,,,,,,,,,,,,,,,,,,,,,,,,,,,,,,,,,,,,,,,,,,,,,,,,,,,,,,,,,,,,,,,,,,,,,,,,,,,,,,,,,,,,,,,,,,,,,,,,,,,,,,,,,,
,,,,,,602d29200724e36ae7a9def2,62bc3b3d22e728ce4bf89c35,2022-06-29_13h45.09.385,Colour_Asymmetry_Pilot,2022.1.3,Win32,60.20107158,62bbe60bf3d75ef465d3e404,0,92,92,105,1,onethree,,,,,,,,,,,,,,,,,,,,,,,,,,,,,,,,,,,,,,,,,,,,,,,,,,,,,,,,,,,,,,,,,,,,,,,,,,,,,,,,,,,,,,,,,,,,,,,,,,,,,,,,,,,,,,,,,,,,,,,,,,,,,,,,,,,,,,,,,,,,,,,,,,,,,,,,
,,,,,,602d29200724e36ae7a9def2,62bc3b3d22e728ce4bf89c35,2022-06-29_13h45.09.385,Colour_Asymmetry_Pilot,2022.1.3,Win32,60.20107158,62bbe60bf3d75ef465d3e404,0,93,93,111,1,fourthree,,,,,,,,,,,,,,,,,,,,,,,,,,,,,,,,,,,,,,,,,,,,,,,,,,,,,,,,,,,,,,,,,,,,,,,,,,,,,,,,,,,,,,,,,,,,,,,,,,,,,,,,,,,,,,,,,,,,,,,,,,,,,,,,,,,,,,,,,,,,,,,,,,,,,,,,
,,,,,,602d29200724e36ae7a9def2,62bc3b3d22e728ce4bf89c35,2022-06-29_13h45.09.385,Colour_Asymmetry_Pilot,2022.1.3,Win32,60.20107158,62bbe60bf3d75ef465d3e404,0,94,94,84,1,threeone,,,,,,,,,,,,,,,,,,,,,,,,,,,,,,,,,,,,,,,,,,,,,,,,,,,,,,,,,,,,,,,,,,,,,,,,,,,,,,,,,,,,,,,,,,,,,,,,,,,,,,,,,,,,,,,,,,,,,,,,,,,,,,,,,,,,,,,,,,,,,,,,,,,,,,,,
,,,,,,602d29200724e36ae7a9def2,62bc3b3d22e728ce4bf89c35,2022-06-29_13h45.09.385,Colour_Asymmetry_Pilot,2022.1.3,Win32,60.20107158,62bbe60bf3d75ef465d3e404,0,95,95,140,1,threeone,,,,,,,,,,,,,,,,,,,,,,,,,,,,,,,,,,,,,,,,,,,,,,,,,,,,,,,,,,,,,,,,,,,,,,,,,,,,,,,,,,,,,,,,,,,,,,,,,,,,,,,,,,,,,,,,,,,,,,,,,,,,,,,,,,,,,,,,,,,,,,,,,,,,,,,,
,,,,,,602d29200724e36ae7a9def2,62bc3b3d22e728ce4bf89c35,2022-06-29_13h45.09.385,Colour_Asymmetry_Pilot,2022.1.3,Win32,60.20107158,62bbe60bf3d75ef465d3e404,0,96,96,98,1,twoone,,,,,,,,,,,,,,,,,,,,,,,,,,,,,,,,,,,,,,,,,,,,,,,,,,,,,,,,,,,,,,,,,,,,,,,,,,,,,,,,,,,,,,,,,,,,,,,,,,,,,,,,,,,,,,,,,,,,,,,,,,,,,,,,,,,,,,,,,,,,,,,,,,,,,,,,
,,,,,,602d29200724e36ae7a9def2,62bc3b3d22e728ce4bf89c35,2022-06-29_13h45.09.385,Colour_Asymmetry_Pilot,2022.1.3,Win32,60.20107158,62bbe60bf3d75ef465d3e404,0,97,97,110,1,fourtwo,,,,,,,,,,,,,,,,,,,,,,,,,,,,,,,,,,,,,,,,,,,,,,,,,,,,,,,,,,,,,,,,,,,,,,,,,,,,,,,,,,,,,,,,,,,,,,,,,,,,,,,,,,,,,,,,,,,,,,,,,,,,,,,,,,,,,,,,,,,,,,,,,,,,,,,,
,,,,,,602d29200724e36ae7a9def2,62bc3b3d22e728ce4bf89c35,2022-06-29_13h45.09.385,Colour_Asymmetry_Pilot,2022.1.3,Win32,60.20107158,62bbe60bf3d75ef465d3e404,0,98,98,125,1,threefour,,,,,,,,,,,,,,,,,,,,,,,,,,,,,,,,,,,,,,,,,,,,,,,,,,,,,,,,,,,,,,,,,,,,,,,,,,,,,,,,,,,,,,,,,,,,,,,,,,,,,,,,,,,,,,,,,,,,,,,,,,,,,,,,,,,,,,,,,,,,,,,,,,,,,,,,
,,,,,,602d29200724e36ae7a9def2,62bc3b3d22e728ce4bf89c35,2022-06-29_13h45.09.385,Colour_Asymmetry_Pilot,2022.1.3,Win32,60.20107158,62bbe60bf3d75ef465d3e404,0,99,99,40,1,onetwo,,,,,,,,,,,,,,,,,,,,,,,,,,,,,,,,,,,,,,,,,,,,,,,,,,,,,,,,,,,,,,,,,,,,,,,,,,,,,,,,,,,,,,,,,,,,,,,,,,,,,,,,,,,,,,,,,,,,,,,,,,,,,,,,,,,,,,,,,,,,,,,,,,,,,,,,
,,,,,,602d29200724e36ae7a9def2,62bc3b3d22e728ce4bf89c35,2022-06-29_13h45.09.385,Colour_Asymmetry_Pilot,2022.1.3,Win32,60.20107158,62bbe60bf3d75ef465d3e404,0,100,100,5,1,threefour,,,,,,,,,,,,,,,,,,,,,,,,,,,,,,,,,,,,,,,,,,,,,,,,,,,,,,,,,,,,,,,,,,,,,,,,,,,,,,,,,,,,,,,,,,,,,,,,,,,,,,,,,,,,,,,,,,,,,,,,,,,,,,,,,,,,,,,,,,,,,,,,,,,,,,,,
,,,,,,602d29200724e36ae7a9def2,62bc3b3d22e728ce4bf89c35,2022-06-29_13h45.09.385,Colour_Asymmetry_Pilot,2022.1.3,Win32,60.20107158,62bbe60bf3d75ef465d3e404,0,101,101,150,1,fourtwo,,,,,,,,,,,,,,,,,,,,,,,,,,,,,,,,,,,,,,,,,,,,,,,,,,,,,,,,,,,,,,,,,,,,,,,,,,,,,,,,,,,,,,,,,,,,,,,,,,,,,,,,,,,,,,,,,,,,,,,,,,,,,,,,,,,,,,,,,,,,,,,,,,,,,,,,
,,,,,,602d29200724e36ae7a9def2,62bc3b3d22e728ce4bf89c35,2022-06-29_13h45.09.385,Colour_Asymmetry_Pilot,2022.1.3,Win32,60.20107158,62bbe60bf3d75ef465d3e404,0,102,102,117,1,threefour,,,,,,,,,,,,,,,,,,,,,,,,,,,,,,,,,,,,,,,,,,,,,,,,,,,,,,,,,,,,,,,,,,,,,,,,,,,,,,,,,,,,,,,,,,,,,,,,,,,,,,,,,,,,,,,,,,,,,,,,,,,,,,,,,,,,,,,,,,,,,,,,,,,,,,,,
,,,,,,602d29200724e36ae7a9def2,62bc3b3d22e728ce4bf89c35,2022-06-29_13h45.09.385,Colour_Asymmetry_Pilot,2022.1.3,Win32,60.20107158,62bbe60bf3d75ef465d3e404,0,103,103,80,1,onetwo,,,,,,,,,,,,,,,,,,,,,,,,,,,,,,,,,,,,,,,,,,,,,,,,,,,,,,,,,,,,,,,,,,,,,,,,,,,,,,,,,,,,,,,,,,,,,,,,,,,,,,,,,,,,,,,,,,,,,,,,,,,,,,,,,,,,,,,,,,,,,,,,,,,,,,,,
,,,,,,602d29200724e36ae7a9def2,62bc3b3d22e728ce4bf89c35,2022-06-29_13h45.09.385,Colour_Asymmetry_Pilot,2022.1.3,Win32,60.20107158,62bbe60bf3d75ef465d3e404,0,104,104,39,1,fourthree,,,,,,,,,,,,,,,,,,,,,,,,,,,,,,,,,,,,,,,,,,,,,,,,,,,,,,,,,,,,,,,,,,,,,,,,,,,,,,,,,,,,,,,,,,,,,,,,,,,,,,,,,,,,,,,,,,,,,,,,,,,,,,,,,,,,,,,,,,,,,,,,,,,,,,,,
,,,,,,602d29200724e36ae7a9def2,62bc3b3d22e728ce4bf89c35,2022-06-29_13h45.09.385,Colour_Asymmetry_Pilot,2022.1.3,Win32,60.20107158,62bbe60bf3d75ef465d3e404,0,105,105,48,1,onetwo,,,,,,,,,,,,,,,,,,,,,,,,,,,,,,,,,,,,,,,,,,,,,,,,,,,,,,,,,,,,,,,,,,,,,,,,,,,,,,,,,,,,,,,,,,,,,,,,,,,,,,,,,,,,,,,,,,,,,,,,,,,,,,,,,,,,,,,,,,,,,,,,,,,,,,,,
,,,,,,602d29200724e36ae7a9def2,62bc3b3d22e728ce4bf89c35,2022-06-29_13h45.09.385,Colour_Asymmetry_Pilot,2022.1.3,Win32,60.20107158,62bbe60bf3d75ef465d3e404,0,106,106,38,1,fourtwo,,,,,,,,,,,,,,,,,,,,,,,,,,,,,,,,,,,,,,,,,,,,,,,,,,,,,,,,,,,,,,,,,,,,,,,,,,,,,,,,,,,,,,,,,,,,,,,,,,,,,,,,,,,,,,,,,,,,,,,,,,,,,,,,,,,,,,,,,,,,,,,,,,,,,,,,
,,,,,,602d29200724e36ae7a9def2,62bc3b3d22e728ce4bf89c35,2022-06-29_13h45.09.385,Colour_Asymmetry_Pilot,2022.1.3,Win32,60.20107158,62bbe60bf3d75ef465d3e404,0,107,107,71,1,fourthree,,,,,,,,,,,,,,,,,,,,,,,,,,,,,,,,,,,,,,,,,,,,,,,,,,,,,,,,,,,,,,,,,,,,,,,,,,,,,,,,,,,,,,,,,,,,,,,,,,,,,,,,,,,,,,,,,,,,,,,,,,,,,,,,,,,,,,,,,,,,,,,,,,,,,,,,
,,,,,,602d29200724e36ae7a9def2,62bc3b3d22e728ce4bf89c35,2022-06-29_13h45.09.385,Colour_Asymmetry_Pilot,2022.1.3,Win32,60.20107158,62bbe60bf3d75ef465d3e404,0,108,108,69,1,threefour,,,,,,,,,,,,,,,,,,,,,,,,,,,,,,,,,,,,,,,,,,,,,,,,,,,,,,,,,,,,,,,,,,,,,,,,,,,,,,,,,,,,,,,,,,,,,,,,,,,,,,,,,,,,,,,,,,,,,,,,,,,,,,,,,,,,,,,,,,,,,,,,,,,,,,,,
,,,,,,602d29200724e36ae7a9def2,62bc3b3d22e728ce4bf89c35,2022-06-29_13h45.09.385,Colour_Asymmetry_Pilot,2022.1.3,Win32,60.20107158,62bbe60bf3d75ef465d3e404,0,109,109,85,1,threefour,,,,,,,,,,,,,,,,,,,,,,,,,,,,,,,,,,,,,,,,,,,,,,,,,,,,,,,,,,,,,,,,,,,,,,,,,,,,,,,,,,,,,,,,,,,,,,,,,,,,,,,,,,,,,,,,,,,,,,,,,,,,,,,,,,,,,,,,,,,,,,,,,,,,,,,,
,,,,,,602d29200724e36ae7a9def2,62bc3b3d22e728ce4bf89c35,2022-06-29_13h45.09.385,Colour_Asymmetry_Pilot,2022.1.3,Win32,60.20107158,62bbe60bf3d75ef465d3e404,0,110,110,97,1,onethree,,,,,,,,,,,,,,,,,,,,,,,,,,,,,,,,,,,,,,,,,,,,,,,,,,,,,,,,,,,,,,,,,,,,,,,,,,,,,,,,,,,,,,,,,,,,,,,,,,,,,,,,,,,,,,,,,,,,,,,,,,,,,,,,,,,,,,,,,,,,,,,,,,,,,,,,
,,,,,,602d29200724e36ae7a9def2,62bc3b3d22e728ce4bf89c35,2022-06-29_13h45.09.385,Colour_Asymmetry_Pilot,2022.1.3,Win32,60.20107158,62bbe60bf3d75ef465d3e404,0,111,111,119,1,fourthree,,,,,,,,,,,,,,,,,,,,,,,,,,,,,,,,,,,,,,,,,,,,,,,,,,,,,,,,,,,,,,,,,,,,,,,,,,,,,,,,,,,,,,,,,,,,,,,,,,,,,,,,,,,,,,,,,,,,,,,,,,,,,,,,,,,,,,,,,,,,,,,,,,,,,,,,
,,,,,,602d29200724e36ae7a9def2,62bc3b3d22e728ce4bf89c35,2022-06-29_13h45.09.385,Colour_Asymmetry_Pilot,2022.1.3,Win32,60.20107158,62bbe60bf3d75ef465d3e404,0,112,112,144,1,onetwo,,,,,,,,,,,,,,,,,,,,,,,,,,,,,,,,,,,,,,,,,,,,,,,,,,,,,,,,,,,,,,,,,,,,,,,,,,,,,,,,,,,,,,,,,,,,,,,,,,,,,,,,,,,,,,,,,,,,,,,,,,,,,,,,,,,,,,,,,,,,,,,,,,,,,,,,
,,,,,,602d29200724e36ae7a9def2,62bc3b3d22e728ce4bf89c35,2022-06-29_13h45.09.385,Colour_Asymmetry_Pilot,2022.1.3,Win32,60.20107158,62bbe60bf3d75ef465d3e404,0,113,113,26,1,twoone,,,,,,,,,,,,,,,,,,,,,,,,,,,,,,,,,,,,,,,,,,,,,,,,,,,,,,,,,,,,,,,,,,,,,,,,,,,,,,,,,,,,,,,,,,,,,,,,,,,,,,,,,,,,,,,,,,,,,,,,,,,,,,,,,,,,,,,,,,,,,,,,,,,,,,,,
,,,,,,602d29200724e36ae7a9def2,62bc3b3d22e728ce4bf89c35,2022-06-29_13h45.09.385,Colour_Asymmetry_Pilot,2022.1.3,Win32,60.20107158,62bbe60bf3d75ef465d3e404,0,114,114,139,1,twofour,,,,,,,,,,,,,,,,,,,,,,,,,,,,,,,,,,,,,,,,,,,,,,,,,,,,,,,,,,,,,,,,,,,,,,,,,,,,,,,,,,,,,,,,,,,,,,,,,,,,,,,,,,,,,,,,,,,,,,,,,,,,,,,,,,,,,,,,,,,,,,,,,,,,,,,,
,,,,,,602d29200724e36ae7a9def2,62bc3b3d22e728ce4bf89c35,2022-06-29_13h45.09.385,Colour_Asymmetry_Pilot,2022.1.3,Win32,60.20107158,62bbe60bf3d75ef465d3e404,0,115,115,10,1,twoone,,,,,,,,,,,,,,,,,,,,,,,,,,,,,,,,,,,,,,,,,,,,,,,,,,,,,,,,,,,,,,,,,,,,,,,,,,,,,,,,,,,,,,,,,,,,,,,,,,,,,,,,,,,,,,,,,,,,,,,,,,,,,,,,,,,,,,,,,,,,,,,,,,,,,,,,
,,,,,,602d29200724e36ae7a9def2,62bc3b3d22e728ce4bf89c35,2022-06-29_13h45.09.385,Colour_Asymmetry_Pilot,2022.1.3,Win32,60.20107158,62bbe60bf3d75ef465d3e404,0,116,116,58,1,twoone,,,,,,,,,,,,,,,,,,,,,,,,,,,,,,,,,,,,,,,,,,,,,,,,,,,,,,,,,,,,,,,,,,,,,,,,,,,,,,,,,,,,,,,,,,,,,,,,,,,,,,,,,,,,,,,,,,,,,,,,,,,,,,,,,,,,,,,,,,,,,,,,,,,,,,,,
,,,,,,602d29200724e36ae7a9def2,62bc3b3d22e728ce4bf89c35,2022-06-29_13h45.09.385,Colour_Asymmetry_Pilot,2022.1.3,Win32,60.20107158,62bbe60bf3d75ef465d3e404,0,117,117,9,1,onethree,,,,,,,,,,,,,,,,,,,,,,,,,,,,,,,,,,,,,,,,,,,,,,,,,,,,,,,,,,,,,,,,,,,,,,,,,,,,,,,,,,,,,,,,,,,,,,,,,,,,,,,,,,,,,,,,,,,,,,,,,,,,,,,,,,,,,,,,,,,,,,,,,,,,,,,,
,,,,,,602d29200724e36ae7a9def2,62bc3b3d22e728ce4bf89c35,2022-06-29_13h45.09.385,Colour_Asymmetry_Pilot,2022.1.3,Win32,60.20107158,62bbe60bf3d75ef465d3e404,0,118,118,8,1,onetwo,,,,,,,,,,,,,,,,,,,,,,,,,,,,,,,,,,,,,,,,,,,,,,,,,,,,,,,,,,,,,,,,,,,,,,,,,,,,,,,,,,,,,,,,,,,,,,,,,,,,,,,,,,,,,,,,,,,,,,,,,,,,,,,,,,,,,,,,,,,,,,,,,,,,,,,,
,,,,,,602d29200724e36ae7a9def2,62bc3b3d22e728ce4bf89c35,2022-06-29_13h45.09.385,Colour_Asymmetry_Pilot,2022.1.3,Win32,60.20107158,62bbe60bf3d75ef465d3e404,0,119,119,96,1,onetwo,,,,,,,,,,,,,,,,,,,,,,,,,,,,,,,,,,,,,,,,,,,,,,,,,,,,,,,,,,,,,,,,,,,,,,,,,,,,,,,,,,,,,,,,,,,,,,,,,,,,,,,,,,,,,,,,,,,,,,,,,,,,,,,,,,,,,,,,,,,,,,,,,,,,,,,,
,,,,,,602d29200724e36ae7a9def2,62bc3b3d22e728ce4bf89c35,2022-06-29_13h45.09.385,Colour_Asymmetry_Pilot,2022.1.3,Win32,60.20107158,62bbe60bf3d75ef465d3e404,0,120,120,55,1,fourthree,,,,,,,,,,,,,,,,,,,,,,,,,,,,,,,,,,,,,,,,,,,,,,,,,,,,,,,,,,,,,,,,,,,,,,,,,,,,,,,,,,,,,,,,,,,,,,,,,,,,,,,,,,,,,,,,,,,,,,,,,,,,,,,,,,,,,,,,,,,,,,,,,,,,,,,,
,,,,,,602d29200724e36ae7a9def2,62bc3b3d22e728ce4bf89c35,2022-06-29_13h45.09.385,Colour_Asymmetry_Pilot,2022.1.3,Win32,60.20107158,62bbe60bf3d75ef465d3e404,0,121,121,149,1,threefour,,,,,,,,,,,,,,,,,,,,,,,,,,,,,,,,,,,,,,,,,,,,,,,,,,,,,,,,,,,,,,,,,,,,,,,,,,,,,,,,,,,,,,,,,,,,,,,,,,,,,,,,,,,,,,,,,,,,,,,,,,,,,,,,,,,,,,,,,,,,,,,,,,,,,,,,
,,,,,,602d29200724e36ae7a9def2,62bc3b3d22e728ce4bf89c35,2022-06-29_13h45.09.385,Colour_Asymmetry_Pilot,2022.1.3,Win32,60.20107158,62bbe60bf3d75ef465d3e404,0,122,122,86,1,fourtwo,,,,,,,,,,,,,,,,,,,,,,,,,,,,,,,,,,,,,,,,,,,,,,,,,,,,,,,,,,,,,,,,,,,,,,,,,,,,,,,,,,,,,,,,,,,,,,,,,,,,,,,,,,,,,,,,,,,,,,,,,,,,,,,,,,,,,,,,,,,,,,,,,,,,,,,,
,,,,,,602d29200724e36ae7a9def2,62bc3b3d22e728ce4bf89c35,2022-06-29_13h45.09.385,Colour_Asymmetry_Pilot,2022.1.3,Win32,60.20107158,62bbe60bf3d75ef465d3e404,0,123,123,49,1,onethree,,,,,,,,,,,,,,,,,,,,,,,,,,,,,,,,,,,,,,,,,,,,,,,,,,,,,,,,,,,,,,,,,,,,,,,,,,,,,,,,,,,,,,,,,,,,,,,,,,,,,,,,,,,,,,,,,,,,,,,,,,,,,,,,,,,,,,,,,,,,,,,,,,,,,,,,
,,,,,,602d29200724e36ae7a9def2,62bc3b3d22e728ce4bf89c35,2022-06-29_13h45.09.385,Colour_Asymmetry_Pilot,2022.1.3,Win32,60.20107158,62bbe60bf3d75ef465d3e404,0,124,124,129,1,onethree,,,,,,,,,,,,,,,,,,,,,,,,,,,,,,,,,,,,,,,,,,,,,,,,,,,,,,,,,,,,,,,,,,,,,,,,,,,,,,,,,,,,,,,,,,,,,,,,,,,,,,,,,,,,,,,,,,,,,,,,,,,,,,,,,,,,,,,,,,,,,,,,,,,,,,,,
,,,,,,602d29200724e36ae7a9def2,62bc3b3d22e728ce4bf89c35,2022-06-29_13h45.09.385,Colour_Asymmetry_Pilot,2022.1.3,Win32,60.20107158,62bbe60bf3d75ef465d3e404,0,125,125,73,1,onethree,,,,,,,,,,,,,,,,,,,,,,,,,,,,,,,,,,,,,,,,,,,,,,,,,,,,,,,,,,,,,,,,,,,,,,,,,,,,,,,,,,,,,,,,,,,,,,,,,,,,,,,,,,,,,,,,,,,,,,,,,,,,,,,,,,,,,,,,,,,,,,,,,,,,,,,,
,,,,,,602d29200724e36ae7a9def2,62bc3b3d22e728ce4bf89c35,2022-06-29_13h45.09.385,Colour_Asymmetry_Pilot,2022.1.3,Win32,60.20107158,62bbe60bf3d75ef465d3e404,0,126,126,1,1,onethree,,,,,,,,,,,,,,,,,,,,,,,,,,,,,,,,,,,,,,,,,,,,,,,,,,,,,,,,,,,,,,,,,,,,,,,,,,,,,,,,,,,,,,,,,,,,,,,,,,,,,,,,,,,,,,,,,,,,,,,,,,,,,,,,,,,,,,,,,,,,,,,,,,,,,,,,
,,,,,,602d29200724e36ae7a9def2,62bc3b3d22e728ce4bf89c35,2022-06-29_13h45.09.385,Colour_Asymmetry_Pilot,2022.1.3,Win32,60.20107158,62bbe60bf3d75ef465d3e404,0,127,127,14,1,fourtwo,,,,,,,,,,,,,,,,,,,,,,,,,,,,,,,,,,,,,,,,,,,,,,,,,,,,,,,,,,,,,,,,,,,,,,,,,,,,,,,,,,,,,,,,,,,,,,,,,,,,,,,,,,,,,,,,,,,,,,,,,,,,,,,,,,,,,,,,,,,,,,,,,,,,,,,,
,,,,,,602d29200724e36ae7a9def2,62bc3b3d22e728ce4bf89c35,2022-06-29_13h45.09.385,Colour_Asymmetry_Pilot,2022.1.3,Win32,60.20107158,62bbe60bf3d75ef465d3e404,0,128,128,145,1,onethree,,,,,,,,,,,,,,,,,,,,,,,,,,,,,,,,,,,,,,,,,,,,,,,,,,,,,,,,,,,,,,,,,,,,,,,,,,,,,,,,,,,,,,,,,,,,,,,,,,,,,,,,,,,,,,,,,,,,,,,,,,,,,,,,,,,,,,,,,,,,,,,,,,,,,,,,
,,,,,,602d29200724e36ae7a9def2,62bc3b3d22e728ce4bf89c35,2022-06-29_13h45.09.385,Colour_Asymmetry_Pilot,2022.1.3,Win32,60.20107158,62bbe60bf3d75ef465d3e404,0,129,129,121,1,onethree,,,,,,,,,,,,,,,,,,,,,,,,,,,,,,,,,,,,,,,,,,,,,,,,,,,,,,,,,,,,,,,,,,,,,,,,,,,,,,,,,,,,,,,,,,,,,,,,,,,,,,,,,,,,,,,,,,,,,,,,,,,,,,,,,,,,,,,,,,,,,,,,,,,,,,,,
,,,,,,602d29200724e36ae7a9def2,62bc3b3d22e728ce4bf89c35,2022-06-29_13h45.09.385,Colour_Asymmetry_Pilot,2022.1.3,Win32,60.20107158,62bbe60bf3d75ef465d3e404,0,130,130,16,1,onetwo,,,,,,,,,,,,,,,,,,,,,,,,,,,,,,,,,,,,,,,,,,,,,,,,,,,,,,,,,,,,,,,,,,,,,,,,,,,,,,,,,,,,,,,,,,,,,,,,,,,,,,,,,,,,,,,,,,,,,,,,,,,,,,,,,,,,,,,,,,,,,,,,,,,,,,,,
,,,,,,602d29200724e36ae7a9def2,62bc3b3d22e728ce4bf89c35,2022-06-29_13h45.09.385,Colour_Asymmetry_Pilot,2022.1.3,Win32,60.20107158,62bbe60bf3d75ef465d3e404,0,131,131,87,1,fourthree,,,,,,,,,,,,,,,,,,,,,,,,,,,,,,,,,,,,,,,,,,,,,,,,,,,,,,,,,,,,,,,,,,,,,,,,,,,,,,,,,,,,,,,,,,,,,,,,,,,,,,,,,,,,,,,,,,,,,,,,,,,,,,,,,,,,,,,,,,,,,,,,,,,,,,,,
,,,,,,602d29200724e36ae7a9def2,62bc3b3d22e728ce4bf89c35,2022-06-29_13h45.09.385,Colour_Asymmetry_Pilot,2022.1.3,Win32,60.20107158,62bbe60bf3d75ef465d3e404,0,132,132,90,1,twoone,,,,,,,,,,,,,,,,,,,,,,,,,,,,,,,,,,,,,,,,,,,,,,,,,,,,,,,,,,,,,,,,,,,,,,,,,,,,,,,,,,,,,,,,,,,,,,,,,,,,,,,,,,,,,,,,,,,,,,,,,,,,,,,,,,,,,,,,,,,,,,,,,,,,,,,,
,,,,,,602d29200724e36ae7a9def2,62bc3b3d22e728ce4bf89c35,2022-06-29_13h45.09.385,Colour_Asymmetry_Pilot,2022.1.3,Win32,60.20107158,62bbe60bf3d75ef465d3e404,0,133,133,128,1,onetwo,,,,,,,,,,,,,,,,,,,,,,,,,,,,,,,,,,,,,,,,,,,,,,,,,,,,,,,,,,,,,,,,,,,,,,,,,,,,,,,,,,,,,,,,,,,,,,,,,,,,,,,,,,,,,,,,,,,,,,,,,,,,,,,,,,,,,,,,,,,,,,,,,,,,,,,,
,,,,,,602d29200724e36ae7a9def2,62bc3b3d22e728ce4bf89c35,2022-06-29_13h45.09.385,Colour_Asymmetry_Pilot,2022.1.3,Win32,60.20107158,62bbe60bf3d75ef465d3e404,0,134,134,63,1,fourthree,,,,,,,,,,,,,,,,,,,,,,,,,,,,,,,,,,,,,,,,,,,,,,,,,,,,,,,,,,,,,,,,,,,,,,,,,,,,,,,,,,,,,,,,,,,,,,,,,,,,,,,,,,,,,,,,,,,,,,,,,,,,,,,,,,,,,,,,,,,,,,,,,,,,,,,,
,,,,,,602d29200724e36ae7a9def2,62bc3b3d22e728ce4bf89c35,2022-06-29_13h45.09.385,Colour_Asymmetry_Pilot,2022.1.3,Win32,60.20107158,62bbe60bf3d75ef465d3e404,0,135,135,126,1,fourtwo,,,,,,,,,,,,,,,,,,,,,,,,,,,,,,,,,,,,,,,,,,,,,,,,,,,,,,,,,,,,,,,,,,,,,,,,,,,,,,,,,,,,,,,,,,,,,,,,,,,,,,,,,,,,,,,,,,,,,,,,,,,,,,,,,,,,,,,,,,,,,,,,,,,,,,,,
,,,,,,602d29200724e36ae7a9def2,62bc3b3d22e728ce4bf89c35,2022-06-29_13h45.09.385,Colour_Asymmetry_Pilot,2022.1.3,Win32,60.20107158,62bbe60bf3d75ef465d3e404,0,136,136,52,1,threeone,,,,,,,,,,,,,,,,,,,,,,,,,,,,,,,,,,,,,,,,,,,,,,,,,,,,,,,,,,,,,,,,,,,,,,,,,,,,,,,,,,,,,,,,,,,,,,,,,,,,,,,,,,,,,,,,,,,,,,,,,,,,,,,,,,,,,,,,,,,,,,,,,,,,,,,,
,,,,,,602d29200724e36ae7a9def2,62bc3b3d22e728ce4bf89c35,2022-06-29_13h45.09.385,Colour_Asymmetry_Pilot,2022.1.3,Win32,60.20107158,62bbe60bf3d75ef465d3e404,0,137,137,156,1,threeone,,,,,,,,,,,,,,,,,,,,,,,,,,,,,,,,,,,,,,,,,,,,,,,,,,,,,,,,,,,,,,,,,,,,,,,,,,,,,,,,,,,,,,,,,,,,,,,,,,,,,,,,,,,,,,,,,,,,,,,,,,,,,,,,,,,,,,,,,,,,,,,,,,,,,,,,
,,,,,,602d29200724e36ae7a9def2,62bc3b3d22e728ce4bf89c35,2022-06-29_13h45.09.385,Colour_Asymmetry_Pilot,2022.1.3,Win32,60.20107158,62bbe60bf3d75ef465d3e404,0,138,138,62,1,fourtwo,,,,,,,,,,,,,,,,,,,,,,,,,,,,,,,,,,,,,,,,,,,,,,,,,,,,,,,,,,,,,,,,,,,,,,,,,,,,,,,,,,,,,,,,,,,,,,,,,,,,,,,,,,,,,,,,,,,,,,,,,,,,,,,,,,,,,,,,,,,,,,,,,,,,,,,,
,,,,,,602d29200724e36ae7a9def2,62bc3b3d22e728ce4bf89c35,2022-06-29_13h45.09.385,Colour_Asymmetry_Pilot,2022.1.3,Win32,60.20107158,62bbe60bf3d75ef465d3e404,0,139,139,95,1,fourthree,,,,,,,,,,,,,,,,,,,,,,,,,,,,,,,,,,,,,,,,,,,,,,,,,,,,,,,,,,,,,,,,,,,,,,,,,,,,,,,,,,,,,,,,,,,,,,,,,,,,,,,,,,,,,,,,,,,,,,,,,,,,,,,,,,,,,,,,,,,,,,,,,,,,,,,,
,,,,,,602d29200724e36ae7a9def2,62bc3b3d22e728ce4bf89c35,2022-06-29_13h45.09.385,Colour_Asymmetry_Pilot,2022.1.3,Win32,60.20107158,62bbe60bf3d75ef465d3e404,0,140,140,31,1,fourthree,,,,,,,,,,,,,,,,,,,,,,,,,,,,,,,,,,,,,,,,,,,,,,,,,,,,,,,,,,,,,,,,,,,,,,,,,,,,,,,,,,,,,,,,,,,,,,,,,,,,,,,,,,,,,,,,,,,,,,,,,,,,,,,,,,,,,,,,,,,,,,,,,,,,,,,,
,,,,,,602d29200724e36ae7a9def2,62bc3b3d22e728ce4bf89c35,2022-06-29_13h45.09.385,Colour_Asymmetry_Pilot,2022.1.3,Win32,60.20107158,62bbe60bf3d75ef465d3e404,0,141,141,36,1,threeone,,,,,,,,,,,,,,,,,,,,,,,,,,,,,,,,,,,,,,,,,,,,,,,,,,,,,,,,,,,,,,,,,,,,,,,,,,,,,,,,,,,,,,,,,,,,,,,,,,,,,,,,,,,,,,,,,,,,,,,,,,,,,,,,,,,,,,,,,,,,,,,,,,,,,,,,
,,,,,,602d29200724e36ae7a9def2,62bc3b3d22e728ce4bf89c35,2022-06-29_13h45.09.385,Colour_Asymmetry_Pilot,2022.1.3,Win32,60.20107158,62bbe60bf3d75ef465d3e404,0,142,142,67,1,twofour,,,,,,,,,,,,,,,,,,,,,,,,,,,,,,,,,,,,,,,,,,,,,,,,,,,,,,,,,,,,,,,,,,,,,,,,,,,,,,,,,,,,,,,,,,,,,,,,,,,,,,,,,,,,,,,,,,,,,,,,,,,,,,,,,,,,,,,,,,,,,,,,,,,,,,,,
,,,,,,602d29200724e36ae7a9def2,62bc3b3d22e728ce4bf89c35,2022-06-29_13h45.09.385,Colour_Asymmetry_Pilot,2022.1.3,Win32,60.20107158,62bbe60bf3d75ef465d3e404,0,143,143,66,1,twoone,,,,,,,,,,,,,,,,,,,,,,,,,,,,,,,,,,,,,,,,,,,,,,,,,,,,,,,,,,,,,,,,,,,,,,,,,,,,,,,,,,,,,,,,,,,,,,,,,,,,,,,,,,,,,,,,,,,,,,,,,,,,,,,,,,,,,,,,,,,,,,,,,,,,,,,,
,,,,,,602d29200724e36ae7a9def2,62bc3b3d22e728ce4bf89c35,2022-06-29_13h45.09.385,Colour_Asymmetry_Pilot,2022.1.3,Win32,60.20107158,62bbe60bf3d75ef465d3e404,0,144,144,89,1,onethree,,,,,,,,,,,,,,,,,,,,,,,,,,,,,,,,,,,,,,,,,,,,,,,,,,,,,,,,,,,,,,,,,,,,,,,,,,,,,,,,,,,,,,,,,,,,,,,,,,,,,,,,,,,,,,,,,,,,,,,,,,,,,,,,,,,,,,,,,,,,,,,,,,,,,,,,
,,,,,,602d29200724e36ae7a9def2,62bc3b3d22e728ce4bf89c35,2022-06-29_13h45.09.385,Colour_Asymmetry_Pilot,2022.1.3,Win32,60.20107158,62bbe60bf3d75ef465d3e404,0,145,145,46,1,fourtwo,,,,,,,,,,,,,,,,,,,,,,,,,,,,,,,,,,,,,,,,,,,,,,,,,,,,,,,,,,,,,,,,,,,,,,,,,,,,,,,,,,,,,,,,,,,,,,,,,,,,,,,,,,,,,,,,,,,,,,,,,,,,,,,,,,,,,,,,,,,,,,,,,,,,,,,,
,,,,,,602d29200724e36ae7a9def2,62bc3b3d22e728ce4bf89c35,2022-06-29_13h45.09.385,Colour_Asymmetry_Pilot,2022.1.3,Win32,60.20107158,62bbe60bf3d75ef465d3e404,0,146,146,6,1,fourtwo,,,,,,,,,,,,,,,,,,,,,,,,,,,,,,,,,,,,,,,,,,,,,,,,,,,,,,,,,,,,,,,,,,,,,,,,,,,,,,,,,,,,,,,,,,,,,,,,,,,,,,,,,,,,,,,,,,,,,,,,,,,,,,,,,,,,,,,,,,,,,,,,,,,,,,,,
,,,,,,602d29200724e36ae7a9def2,62bc3b3d22e728ce4bf89c35,2022-06-29_13h45.09.385,Colour_Asymmetry_Pilot,2022.1.3,Win32,60.20107158,62bbe60bf3d75ef465d3e404,0,147,147,23,1,fourthree,,,,,,,,,,,,,,,,,,,,,,,,,,,,,,,,,,,,,,,,,,,,,,,,,,,,,,,,,,,,,,,,,,,,,,,,,,,,,,,,,,,,,,,,,,,,,,,,,,,,,,,,,,,,,,,,,,,,,,,,,,,,,,,,,,,,,,,,,,,,,,,,,,,,,,,,
,,,,,,602d29200724e36ae7a9def2,62bc3b3d22e728ce4bf89c35,2022-06-29_13h45.09.385,Colour_Asymmetry_Pilot,2022.1.3,Win32,60.20107158,62bbe60bf3d75ef465d3e404,0,148,148,115,1,twofour,,,,,,,,,,,,,,,,,,,,,,,,,,,,,,,,,,,,,,,,,,,,,,,,,,,,,,,,,,,,,,,,,,,,,,,,,,,,,,,,,,,,,,,,,,,,,,,,,,,,,,,,,,,,,,,,,,,,,,,,,,,,,,,,,,,,,,,,,,,,,,,,,,,,,,,,
,,,,,,602d29200724e36ae7a9def2,62bc3b3d22e728ce4bf89c35,2022-06-29_13h45.09.385,Colour_Asymmetry_Pilot,2022.1.3,Win32,60.20107158,62bbe60bf3d75ef465d3e404,0,149,149,12,1,threeone,,,,,,,,,,,,,,,,,,,,,,,,,,,,,,,,,,,,,,,,,,,,,,,,,,,,,,,,,,,,,,,,,,,,,,,,,,,,,,,,,,,,,,,,,,,,,,,,,,,,,,,,,,,,,,,,,,,,,,,,,,,,,,,,,,,,,,,,,,,,,,,,,,,,,,,,
,,,,,,602d29200724e36ae7a9def2,62bc3b3d22e728ce4bf89c35,2022-06-29_13h45.09.385,Colour_Asymmetry_Pilot,2022.1.3,Win32,60.20107158,62bbe60bf3d75ef465d3e404,0,150,150,30,1,fourtwo,,,,,,,,,,,,,,,,,,,,,,,,,,,,,,,,,,,,,,,,,,,,,,,,,,,,,,,,,,,,,,,,,,,,,,,,,,,,,,,,,,,,,,,,,,,,,,,,,,,,,,,,,,,,,,,,,,,,,,,,,,,,,,,,,,,,,,,,,,,,,,,,,,,,,,,,
,,,,,,602d29200724e36ae7a9def2,62bc3b3d22e728ce4bf89c35,2022-06-29_13h45.09.385,Colour_Asymmetry_Pilot,2022.1.3,Win32,60.20107158,62bbe60bf3d75ef465d3e404,0,151,151,35,1,twofour,,,,,,,,,,,,,,,,,,,,,,,,,,,,,,,,,,,,,,,,,,,,,,,,,,,,,,,,,,,,,,,,,,,,,,,,,,,,,,,,,,,,,,,,,,,,,,,,,,,,,,,,,,,,,,,,,,,,,,,,,,,,,,,,,,,,,,,,,,,,,,,,,,,,,,,,
,,,,,,602d29200724e36ae7a9def2,62bc3b3d22e728ce4bf89c35,2022-06-29_13h45.09.385,Colour_Asymmetry_Pilot,2022.1.3,Win32,60.20107158,62bbe60bf3d75ef465d3e404,0,152,152,133,1,threefour,,,,,,,,,,,,,,,,,,,,,,,,,,,,,,,,,,,,,,,,,,,,,,,,,,,,,,,,,,,,,,,,,,,,,,,,,,,,,,,,,,,,,,,,,,,,,,,,,,,,,,,,,,,,,,,,,,,,,,,,,,,,,,,,,,,,,,,,,,,,,,,,,,,,,,,,
,,,,,,602d29200724e36ae7a9def2,62bc3b3d22e728ce4bf89c35,2022-06-29_13h45.09.385,Colour_Asymmetry_Pilot,2022.1.3,Win32,60.20107158,62bbe60bf3d75ef465d3e404,0,153,153,88,1,onetwo,,,,,,,,,,,,,,,,,,,,,,,,,,,,,,,,,,,,,,,,,,,,,,,,,,,,,,,,,,,,,,,,,,,,,,,,,,,,,,,,,,,,,,,,,,,,,,,,,,,,,,,,,,,,,,,,,,,,,,,,,,,,,,,,,,,,,,,,,,,,,,,,,,,,,,,,
,,,,,,602d29200724e36ae7a9def2,62bc3b3d22e728ce4bf89c35,2022-06-29_13h45.09.385,Colour_Asymmetry_Pilot,2022.1.3,Win32,60.20107158,62bbe60bf3d75ef465d3e404,0,154,154,147,1,twofour,,,,,,,,,,,,,,,,,,,,,,,,,,,,,,,,,,,,,,,,,,,,,,,,,,,,,,,,,,,,,,,,,,,,,,,,,,,,,,,,,,,,,,,,,,,,,,,,,,,,,,,,,,,,,,,,,,,,,,,,,,,,,,,,,,,,,,,,,,,,,,,,,,,,,,,,
,,,,,,602d29200724e36ae7a9def2,62bc3b3d22e728ce4bf89c35,2022-06-29_13h45.09.385,Colour_Asymmetry_Pilot,2022.1.3,Win32,60.20107158,62bbe60bf3d75ef465d3e404,0,155,155,109,1,threefour,,,,,,,,,,,,,,,,,,,,,,,,,,,,,,,,,,,,,,,,,,,,,,,,,,,,,,,,,,,,,,,,,,,,,,,,,,,,,,,,,,,,,,,,,,,,,,,,,,,,,,,,,,,,,,,,,,,,,,,,,,,,,,,,,,,,,,,,,,,,,,,,,,,,,,,,
,,,,,,602d29200724e36ae7a9def2,62bc3b3d22e728ce4bf89c35,2022-06-29_13h45.09.385,Colour_Asymmetry_Pilot,2022.1.3,Win32,60.20107158,62bbe60bf3d75ef465d3e404,0,156,156,7,1,fourthree,,,,,,,,,,,,,,,,,,,,,,,,,,,,,,,,,,,,,,,,,,,,,,,,,,,,,,,,,,,,,,,,,,,,,,,,,,,,,,,,,,,,,,,,,,,,,,,,,,,,,,,,,,,,,,,,,,,,,,,,,,,,,,,,,,,,,,,,,,,,,,,,,,,,,,,,
,,,,,,602d29200724e36ae7a9def2,62bc3b3d22e728ce4bf89c35,2022-06-29_13h45.09.385,Colour_Asymmetry_Pilot,2022.1.3,Win32,60.20107158,62bbe60bf3d75ef465d3e404,0,157,157,4,1,threeone,,,,,,,,,,,,,,,,,,,,,,,,,,,,,,,,,,,,,,,,,,,,,,,,,,,,,,,,,,,,,,,,,,,,,,,,,,,,,,,,,,,,,,,,,,,,,,,,,,,,,,,,,,,,,,,,,,,,,,,,,,,,,,,,,,,,,,,,,,,,,,,,,,,,,,,,
,,,,,,602d29200724e36ae7a9def2,62bc3b3d22e728ce4bf89c35,2022-06-29_13h45.09.385,Colour_Asymmetry_Pilot,2022.1.3,Win32,60.20107158,62bbe60bf3d75ef465d3e404,0,158,158,37,1,threefour,,,,,,,,,,,,,,,,,,,,,,,,,,,,,,,,,,,,,,,,,,,,,,,,,,,,,,,,,,,,,,,,,,,,,,,,,,,,,,,,,,,,,,,,,,,,,,,,,,,,,,,,,,,,,,,,,,,,,,,,,,,,,,,,,,,,,,,,,,,,,,,,,,,,,,,,
,,,,,,602d29200724e36ae7a9def2,62bc3b3d22e728ce4bf89c35,2022-06-29_13h45.09.385,Colour_Asymmetry_Pilot,2022.1.3,Win32,60.20107158,62bbe60bf3d75ef465d3e404,0,159,159,45,1,threefour,,,,,,,,,,,,,,,,,,,,,,,,,,,,,,,,,,,,,,,,,,,,,,,,,,,,,,,,,,,,,,,,,,,,,,,,,,,,,,,,,,,,,,,,,,,,,,,,,,,,,,,,,,,,,,,,,,,,,,,,,,,,,,,,,,,,,,,,,,,,,,,,,,,,,,,,
,,,,,,602d29200724e36ae7a9def2,62bc3b3d22e728ce4bf89c35,2022-06-29_13h45.09.385,Colour_Asymmetry_Pilot,2022.1.3,Win32,60.20107158,62bbe60bf3d75ef465d3e404,0,160,160,32,1,onetwo,,,,,,,,,,,,,,,,,,,,,,,,,,,,,,,,,,,,,,,,,,,,,,,,,,,,,,,,,,,,,,,,,,,,,,,,,,,,,,,,,,,,,,,,,,,,,,,,,,,,,,,,,,,,,,,,,,,,,,,,,,,,,,,,,,,,,,,,,,,,,,,,,,,,,,,,
,,,,,,602d29200724e36ae7a9def2,62bc3b3d22e728ce4bf89c35,2022-06-29_13h45.09.385,Colour_Asymmetry_Pilot,2022.1.3,Win32,60.20107158,62bbe60bf3d75ef465d3e404,0,161,161,70,1,fourtwo,,,,,,,,,,,,,,,,,,,,,,,,,,,,,,,,,,,,,,,,,,,,,,,,,,,,,,,,,,,,,,,,,,,,,,,,,,,,,,,,,,,,,,,,,,,,,,,,,,,,,,,,,,,,,,,,,,,,,,,,,,,,,,,,,,,,,,,,,,,,,,,,,,,,,,,,
,,,,,,602d29200724e36ae7a9def2,62bc3b3d22e728ce4bf89c35,2022-06-29_13h45.09.385,Colour_Asymmetry_Pilot,2022.1.3,Win32,60.20107158,62bbe60bf3d75ef465d3e404,,,,,,,space,861.1092,space,4.5216,space,82.4212,space,26.6962,space,9.9699,space,8.6465,"[-0.9216,-0.5529999999999999,-0.3962]",fourtwo,"[0.7018,0.7176,0.6155999999999999]",-4,24.3401,-34,96,1,0,0,response7disk_5,1,4,1,0,0,rectangle_8,1,4,1,0,0,4,1,4,1,0,0,0,0,0,0,1,,,,,,,,,,,,,,,,,,,,,,,,,,,,,,,,,,,,,,,,,,,,,,,,,,,,,,,,,,,,,,,,,,,,,,,,,,,,,,,,,,,,,,,,,,,,,,,,,,,,,,,,,,,
,,,,,,602d29200724e36ae7a9def2,62bc3b3d22e728ce4bf89c35,2022-06-29_13h45.09.385,Colour_Asymmetry_Pilot,2022.1.3,Win32,60.20107158,62bbe60bf3d75ef465d3e404,,,,,,,,,,,,,,,,,,,"[0.796,0.2156,-0.27859999999999996]",twofour,"[-0.20799999999999996,-0.655,-0.01980000000000004]",-4,1.4985,-66,104,1,0,0,response7disk_5,-13,-7,1,0,0,rectangle_8,-13,-7,1,0,0,4,-13,-7,1,0,0,1,0,1,0,1,,,,,,,,,,,,,,,,,,,,,,,,,,,,,,,,,,,,,,,,,,,,,,,,,,,,,,,,,,,,,,,,,,,,,,,,,,,,,,,,,,,,,,,,,,,,,,,,,,,,,,,,,,,
,,,,,,602d29200724e36ae7a9def2,62bc3b3d22e728ce4bf89c35,2022-06-29_13h45.09.385,Colour_Asymmetry_Pilot,2022.1.3,Win32,60.20107158,62bbe60bf3d75ef465d3e404,,,,,,,,,,,,,,,,,,,"[-0.9766,-0.34920000000000007,0.2156]",threeone,"[0.04299999999999993,0.16060000000000008,-0.6628000000000001]",-4,1.5651,-38,72,1,0,0,response7disk_5,-15,0,1,0,0,rectangle_8,-15,0,1,0,0,4,-15,0,1,0,0,2,0,2,0,1,,,,,,,,,,,,,,,,,,,,,,,,,,,,,,,,,,,,,,,,,,,,,,,,,,,,,,,,,,,,,,,,,,,,,,,,,,,,,,,,,,,,,,,,,,,,,,,,,,,,,,,,,,,
,,,,,,602d29200724e36ae7a9def2,62bc3b3d22e728ce4bf89c35,2022-06-29_13h45.09.385,Colour_Asymmetry_Pilot,2022.1.3,Win32,60.20107158,62bbe60bf3d75ef465d3e404,,,,,,,,,,,,,,,,,,,"[-0.6235999999999999,-0.6786,-0.08239999999999992]",twofour,"[-0.9766,-0.34920000000000007,0.2156]",3,2.0482,86,33,1,0,0,response1disk_5,8,-2,1,0,0,rectangle_8,8,-2,1,0,0,4,8,-2,1,0,0,3,0,3,0,1,,,,,,,,,,,,,,,,,,,,,,,,,,,,,,,,,,,,,,,,,,,,,,,,,,,,,,,,,,,,,,,,,,,,,,,,,,,,,,,,,,,,,,,,,,,,,,,,,,,,,,,,,,,
,,,,,,602d29200724e36ae7a9def2,62bc3b3d22e728ce4bf89c35,2022-06-29_13h45.09.385,Colour_Asymmetry_Pilot,2022.1.3,Win32,60.20107158,62bbe60bf3d75ef465d3e404,,,,,,,,,,,,,,,,,,,"[0.9686000000000001,0.3802000000000001,0.19999999999999996]",onetwo,"[0.30180000000000007,-0.7884,-0.9844]",1,1.8984,38,-78,1,0,0,response3disk_5,7,-6,1,0,0,rectangle_8,30,88,1,0,0,4,-7,0,1,0,0,4,0,4,0,1,response1disk_7,7,rectangle_4,,,,,,,,,,,,,,,,,,,,,,,,,,,,,,,,,,,,,,,,,,,,,,,,,,,,,,,,,,,,,,,,,,,,,,,,,,,,,,,,,,,,,,,,,,,,,,,,,,,,,,,,
,,,,,,602d29200724e36ae7a9def2,62bc3b3d22e728ce4bf89c35,2022-06-29_13h45.09.385,Colour_Asymmetry_Pilot,2022.1.3,Win32,60.20107158,62bbe60bf3d75ef465d3e404,,,,,,,,,,,,,,,,,,,"[-0.07459999999999989,0.12139999999999995,-0.9922]",threeone,"[0.9842,0.7409999999999999,-0.6628000000000001]",-3,5.0618,-91,41,1,0,0,response7disk_5,-30,-1,1,0,0,rectangle_8,-37,-69,1,0,0,4,-3,3,1,0,0,5,0,5,0,1,response5disk_7,3,rectangle_4,,,,,,,,,,,,,,,,,,,,,,,,,,,,,,,,,,,,,,,,,,,,,,,,,,,,,,,,,,,,,,,,,,,,,,,,,,,,,,,,,,,,,,,,,,,,,,,,,,,,,,,,
,,,,,,602d29200724e36ae7a9def2,62bc3b3d22e728ce4bf89c35,2022-06-29_13h45.09.385,Colour_Asymmetry_Pilot,2022.1.3,Win32,60.20107158,62bbe60bf3d75ef465d3e404,,,,,,,,,,,,,,,,,,,"[0.9686000000000001,0.5763999999999998,0.11359999999999992]",onethree,"[-0.9844,-0.9688,-0.9922]",-4,1.7316,-39,69,1,0,0,response7disk_5,-4,6,1,0,0,rectangle_8,-4,6,1,0,0,4,-4,6,1,0,0,6,0,6,0,1,,,,,,,,,,,,,,,,,,,,,,,,,,,,,,,,,,,,,,,,,,,,,,,,,,,,,,,,,,,,,,,,,,,,,,,,,,,,,,,,,,,,,,,,,,,,,,,,,,,,,,,,,,,
,,,,,,602d29200724e36ae7a9def2,62bc3b3d22e728ce4bf89c35,2022-06-29_13h45.09.385,Colour_Asymmetry_Pilot,2022.1.3,Win32,60.20107158,62bbe60bf3d75ef465d3e404,,,,,,,,,,,,,,,,,,,,threeone,,-3,2.6985,,,,,,,,,,,,,,,,,,,,,,,,,,,,,,,,space,9.5106,"[-0.34920000000000007,-0.702,-0.5216]","[-0.5452,-0.608,0.2470000000000001]",-85,51,1,0,0,response7disk,-30,-7,1,0,0,rectangle,-30,-7,1,0,0,,2,0.0024,0,-30,-7,1,0,0,0,0,0,48,1,48,first,,,,,,,,,,,,,,,,,,,,,,,,,,,,,,,,,,,,,,,,,,,,,,,,,,,,,,,,,,,,,,,,,,,
,,,,,,602d29200724e36ae7a9def2,62bc3b3d22e728ce4bf89c35,2022-06-29_13h45.09.385,Colour_Asymmetry_Pilot,2022.1.3,Win32,60.20107158,62bbe60bf3d75ef465d3e404,,,,,,,,,,,,,,,,,,,,onetwo,,2,1.1825,,,,,,,,,,,,,,,,,,,,,,,,,,,,,,,,,,"[-0.01980000000000004,-0.5138,-0.38039999999999996]","[0.7176,-0.906,-0.6864]",76,-32,1,0,0,response3disk,13,-7,1,0,0,rectangle,13,-7,1,0,0,,2,0.0003,0,13,-7,1,0,0,0,1,1,119,1,38,second,,,,,,,,,,,,,,,,,,,,,,,,,,,,,,,,,,,,,,,,,,,,,,,,,,,,,,,,,,,,,,,,,,,
,,,,,,602d29200724e36ae7a9def2,62bc3b3d22e728ce4bf89c35,2022-06-29_13h45.09.385,Colour_Asymmetry_Pilot,2022.1.3,Win32,60.20107158,62bbe60bf3d75ef465d3e404,,,,,,,,,,,,,,,,,,,,onethree,,-4,1.1157,,,,,,,,,,,,,,,,,,,,,,,,,,,,,,,,,,"[0.19199999999999995,0.18419999999999992,0.5136000000000001]","[0.7018,0.7802,-0.16079999999999994]",-60,75,1,0,0,response7disk,-18,5,1,0,0,rectangle,-18,5,1,0,0,,3,0.0019,0,-18,5,1,0,0,0,2,2,22,1,22,first,,,,,,,,,,,,,,,,,,,,,,,,,,,,,,,,,,,,,,,,,,,,,,,,,,,,,,,,,,,,,,,,,,,
,,,,,,602d29200724e36ae7a9def2,62bc3b3d22e728ce4bf89c35,2022-06-29_13h45.09.385,Colour_Asymmetry_Pilot,2022.1.3,Win32,60.20107158,62bbe60bf3d75ef465d3e404,,,,,,,,,,,,,,,,,,,,onethree,,3,1.249,,,,,,,,,,,,,,,,,,,,,,,,,,,,,,,,,,"[0.34099999999999997,0.12939999999999996,-0.9766]","[0.7018,0.7802,-0.16079999999999994]",87,39,1,0,0,response1disk,10,5,1,0,0,rectangle,10,5,1,0,0,,3,0.0003,0,10,5,1,0,0,0,3,3,26,1,26,first,,,,,,,,,,,,,,,,,,,,,,,,,,,,,,,,,,,,,,,,,,,,,,,,,,,,,,,,,,,,,,,,,,,
,,,,,,602d29200724e36ae7a9def2,62bc3b3d22e728ce4bf89c35,2022-06-29_13h45.09.385,Colour_Asymmetry_Pilot,2022.1.3,Win32,60.20107158,62bbe60bf3d75ef465d3e404,,,,,,,,,,,,,,,,,,,,twoone,,1,1.0336,,,,,,,,,,,,,,,,,,,,,,,,,,,,,,,,,,"[0.4196,0.4665999999999999,0.3568]","[-0.24719999999999998,0.5213999999999999,-0.12959999999999994]",47,-69,1,0,0,response3disk,-10,4,1,0,0,rectangle,-10,4,1,0,0,,3,0.0001,0,-10,4,1,0,0,0,4,4,15,1,15,first,,,,,,,,,,,,,,,,,,,,,,,,,,,,,,,,,,,,,,,,,,,,,,,,,,,,,,,,,,,,,,,,,,,
,,,,,,602d29200724e36ae7a9def2,62bc3b3d22e728ce4bf89c35,2022-06-29_13h45.09.385,Colour_Asymmetry_Pilot,2022.1.3,Win32,60.20107158,62bbe60bf3d75ef465d3e404,,,,,,,,,,,,,,,,,,,,threeone,,4,0.9659,,,,,,,,,,,,,,,,,,,,,,,,,,,,,,,,,,"[0.22340000000000004,-0.9296,-0.7884]","[0.18419999999999992,-0.4276,-0.404]",45,75,1,0,0,response1disk,-12,-8,1,0,0,rectangle,-12,-8,1,0,0,,3,0.0004,0,-12,-8,1,0,0,0,5,5,130,1,49,second,,,,,,,,,,,,,,,,,,,,,,,,,,,,,,,,,,,,,,,,,,,,,,,,,,,,,,,,,,,,,,,,,,,
,,,,,,602d29200724e36ae7a9def2,62bc3b3d22e728ce4bf89c35,2022-06-29_13h45.09.385,Colour_Asymmetry_Pilot,2022.1.3,Win32,60.20107158,62bbe60bf3d75ef465d3e404,,,,,,,,,,,,,,,,,,,,onetwo,,4,0.4826,,,,,,,,,,,,,,,,,,,,,,,,,,,,,,,,,,"[-0.6942,-0.7648,-0.12959999999999994]","[-0.6235999999999999,-0.6786,-0.08239999999999992]",44,103,1,0,0,response1disk,6,9,1,0,0,rectangle,6,9,1,0,0,,1,0.0016,0,6,9,1,0,0,0,6,6,84,1,3,second,,,,,,,,,,,,,,,,,,,,,,,,,,,,,,,,,,,,,,,,,,,,,,,,,,,,,,,,,,,,,,,,,,,
,,,,,,602d29200724e36ae7a9def2,62bc3b3d22e728ce4bf89c35,2022-06-29_13h45.09.385,Colour_Asymmetry_Pilot,2022.1.3,Win32,60.20107158,62bbe60bf3d75ef465d3e404,,,,,,,,,,,,,,,,,,,,twoone,,-4,0.9151,,,,,,,,,,,,,,,,,,,,,,,,,,,,,,,,,,"[0.37240000000000006,0.4980000000000002,-0.2864]","[-0.011800000000000033,-0.906,-0.45100000000000007]",-64,68,1,0,0,response7disk,-4,13,1,0,0,rectangle,-4,13,1,0,0,,2,0.0016,0,-4,13,1,0,0,0,7,7,154,1,73,second,,,,,,,,,,,,,,,,,,,,,,,,,,,,,,,,,,,,,,,,,,,,,,,,,,,,,,,,,,,,,,,,,,,
,,,,,,602d29200724e36ae7a9def2,62bc3b3d22e728ce4bf89c35,2022-06-29_13h45.09.385,Colour_Asymmetry_Pilot,2022.1.3,Win32,60.20107158,62bbe60bf3d75ef465d3e404,,,,,,,,,,,,,,,,,,,,threeone,,-1,0.9658,,,,,,,,,,,,,,,,,,,,,,,,,,,,,,,,,,"[0.8274000000000001,-0.5844,-0.9452]","[0.23120000000000007,-0.7726,-0.34120000000000006]",-33,-75,1,0,0,response5disk,-12,-1,1,0,0,rectangle,-12,-1,1,0,0,,1,0.0008,0,-12,-1,1,0,0,0,8,8,71,1,71,first,,,,,,,,,,,,,,,,,,,,,,,,,,,,,,,,,,,,,,,,,,,,,,,,,,,,,,,,,,,,,,,,,,,
,,,,,,602d29200724e36ae7a9def2,62bc3b3d22e728ce4bf89c35,2022-06-29_13h45.09.385,Colour_Asymmetry_Pilot,2022.1.3,Win32,60.20107158,62bbe60bf3d75ef465d3e404,,,,,,,,,,,,,,,,,,,,threeone,,3,1.7151,,,,,,,,,,,,,,,,,,,,,,,,,,,,,,,,,,"[-0.07459999999999989,0.12139999999999995,-0.9922]","[-0.5688,-0.08239999999999992,-0.1844]",72,31,1,0,0,response1disk,18,5,1,0,0,rectangle,18,5,1,0,0,,2,0.0017,0,18,5,1,0,0,0,9,9,101,1,20,second,,,,,,,,,,,,,,,,,,,,,,,,,,,,,,,,,,,,,,,,,,,,,,,,,,,,,,,,,,,,,,,,,,,
,,,,,,602d29200724e36ae7a9def2,62bc3b3d22e728ce4bf89c35,2022-06-29_13h45.09.385,Colour_Asymmetry_Pilot,2022.1.3,Win32,60.20107158,62bbe60bf3d75ef465d3e404,,,,,,,,,,,,,,,,,,,,onetwo,,2,1.2156,,,,,,,,,,,,,,,,,,,,,,,,,,,,,,,,,,"[0.9763999999999999,-0.1137999999999999,-0.6314]","[0.34099999999999997,0.12939999999999996,-0.9766]",61,-36,1,0,0,response3disk,3,-6,1,0,0,rectangle,3,-6,1,0,0,,2,0.0003,0,3,-6,1,0,0,0,10,10,82,1,1,second,,,,,,,,,,,,,,,,,,,,,,,,,,,,,,,,,,,,,,,,,,,,,,,,,,,,,,,,,,,,,,,,,,,
,,,,,,602d29200724e36ae7a9def2,62bc3b3d22e728ce4bf89c35,2022-06-29_13h45.09.385,Colour_Asymmetry_Pilot,2022.1.3,Win32,60.20107158,62bbe60bf3d75ef465d3e404,,,,,,,,,,,,,,,,,,,,twofour,,-4,0.9825,,,,,,,,,,,,,,,,,,,,,,,,,,,,,,,,,,"[-0.38039999999999996,-0.4276,-0.1452]","[0.9842,0.7409999999999999,-0.6628000000000001]",-34,52,1,0,0,response7disk,-16,1,1,0,0,rectangle,-16,1,1,0,0,,3,0.0014,0,-16,1,1,0,0,0,11,11,7,1,7,first,,,,,,,,,,,,,,,,,,,,,,,,,,,,,,,,,,,,,,,,,,,,,,,,,,,,,,,,,,,,,,,,,,,
,,,,,,602d29200724e36ae7a9def2,62bc3b3d22e728ce4bf89c35,2022-06-29_13h45.09.385,Colour_Asymmetry_Pilot,2022.1.3,Win32,60.20107158,62bbe60bf3d75ef465d3e404,,,,,,,,,,,,,,,,,,,,onethree,,2,1.4153,,,,,,,,,,,,,,,,,,,,,,,,,,,,,,,,,,"[-0.9216,-0.5529999999999999,-0.3962]","[0.0351999999999999,0.41159999999999997,0.0038000000000000256]",83,-34,1,0,0,response3disk,21,-2,1,0,0,rectangle,21,-2,1,0,0,,3,0.0003,0,21,-2,1,0,0,0,12,12,98,1,17,second,,,,,,,,,,,,,,,,,,,,,,,,,,,,,,,,,,,,,,,,,,,,,,,,,,,,,,,,,,,,,,,,,,,
,,,,,,602d29200724e36ae7a9def2,62bc3b3d22e728ce4bf89c35,2022-06-29_13h45.09.385,Colour_Asymmetry_Pilot,2022.1.3,Win32,60.20107158,62bbe60bf3d75ef465d3e404,,,,,,,,,,,,,,,,,,,,twofour,,-4,0.9158,,,,,,,,,,,,,,,,,,,,,,,,,,,,,,,,,,"[0.23920000000000008,0.2704,0.16060000000000008]","[-0.9766,-0.6472,0.07440000000000002]",-46,76,1,0,0,response7disk,-5,-5,1,0,0,rectangle,-5,-5,1,0,0,,3,0.0005,0,-5,-5,1,0,0,0,13,13,30,1,30,first,,,,,,,,,,,,,,,,,,,,,,,,,,,,,,,,,,,,,,,,,,,,,,,,,,,,,,,,,,,,,,,,,,,
,,,,,,602d29200724e36ae7a9def2,62bc3b3d22e728ce4bf89c35,2022-06-29_13h45.09.385,Colour_Asymmetry_Pilot,2022.1.3,Win32,60.20107158,62bbe60bf3d75ef465d3e404,,,,,,,,,,,,,,,,,,,,twoone,,3,0.9326,,,,,,,,,,,,,,,,,,,,,,,,,,,,,,,,,,"[-0.5922000000000001,-0.7492000000000001,-0.5296000000000001]","[-0.011800000000000033,-0.906,-0.45100000000000007]",71,34,1,0,0,response1disk,11,6,1,0,0,rectangle,11,6,1,0,0,,1,0.0015,0,11,6,1,0,0,0,14,14,138,1,57,second,,,,,,,,,,,,,,,,,,,,,,,,,,,,,,,,,,,,,,,,,,,,,,,,,,,,,,,,,,,,,,,,,,,
,,,,,,602d29200724e36ae7a9def2,62bc3b3d22e728ce4bf89c35,2022-06-29_13h45.09.385,Colour_Asymmetry_Pilot,2022.1.3,Win32,60.20107158,62bbe60bf3d75ef465d3e404,,,,,,,,,,,,,,,,,,,,twoone,,-3,1.8482,,,,,,,,,,,,,,,,,,,,,,,,,,,,,,,,,,"[0.11359999999999992,0.6312,0.5213999999999999]","[0.6625999999999999,0.4980000000000002,-0.357]",-82,40,1,0,0,response7disk,-14,3,1,0,0,rectangle,101,32,1,0,0,3,3,3.3808,1,6,-1,1,0,0,0,15,15,104,1,23,second,response1disk_3,rectangle,,,,,,,,,,,,,,,,,,,,,,,,,,,,,,,,,,,,,,,,,,,,,,,,,,,,,,,,,,,,,,,,,
,,,,,,602d29200724e36ae7a9def2,62bc3b3d22e728ce4bf89c35,2022-06-29_13h45.09.385,Colour_Asymmetry_Pilot,2022.1.3,Win32,60.20107158,62bbe60bf3d75ef465d3e404,,,,,,,,,,,,,,,,,,,,onetwo,,-3,2.3148,,,,,,,,,,,,,,,,,,,,,,,,,,,,,,,,,,"[0.7802,-0.23140000000000005,-0.20799999999999996]","[0.05879999999999996,0.2784,0.5841999999999998]",-102,36,1,0,0,response7disk,4,1,1,0,0,rectangle,4,1,1,0,0,3,3,9.99999E-05,0,4,1,1,0,0,0,16,16,122,1,41,second,,,,,,,,,,,,,,,,,,,,,,,,,,,,,,,,,,,,,,,,,,,,,,,,,,,,,,,,,,,,,,,,,,,
,,,,,,602d29200724e36ae7a9def2,62bc3b3d22e728ce4bf89c35,2022-06-29_13h45.09.385,Colour_Asymmetry_Pilot,2022.1.3,Win32,60.20107158,62bbe60bf3d75ef465d3e404,,,,,,,,,,,,,,,,,,,,onetwo,,-4,0.8326,,,,,,,,,,,,,,,,,,,,,,,,,,,,,,,,,,"[0.8115999999999999,-0.0040000000000000036,-0.09819999999999995]","[-0.06680000000000008,-0.45100000000000007,-0.906]",-17,44,1,0,0,response7disk,2,1,1,0,0,rectangle,2,1,1,0,0,3,2,0.0008,0,2,1,1,0,0,0,17,17,53,1,53,first,,,,,,,,,,,,,,,,,,,,,,,,,,,,,,,,,,,,,,,,,,,,,,,,,,,,,,,,,,,,,,,,,,,
,,,,,,602d29200724e36ae7a9def2,62bc3b3d22e728ce4bf89c35,2022-06-29_13h45.09.385,Colour_Asymmetry_Pilot,2022.1.3,Win32,60.20107158,62bbe60bf3d75ef465d3e404,,,,,,,,,,,,,,,,,,,,threeone,,2,1.1489,,,,,,,,,,,,,,,,,,,,,,,,,,,,,,,,,,"[0.7646000000000002,0.07440000000000002,0.2704]","[-0.10599999999999998,-0.15300000000000002,0.15280000000000005]",100,-25,1,0,0,response3disk,8,3,1,0,0,rectangle,8,3,1,0,0,3,3,0.0013,0,8,3,1,0,0,0,18,18,156,1,75,second,,,,,,,,,,,,,,,,,,,,,,,,,,,,,,,,,,,,,,,,,,,,,,,,,,,,,,,,,,,,,,,,,,,
,,,,,,602d29200724e36ae7a9def2,62bc3b3d22e728ce4bf89c35,2022-06-29_13h45.09.385,Colour_Asymmetry_Pilot,2022.1.3,Win32,60.20107158,62bbe60bf3d75ef465d3e404,,,,,,,,,,,,,,,,,,,,threeone,,-3,2.2978,,,,,,,,,,,,,,,,,,,,,,,,,,,,,,,,,,"[0.34099999999999997,0.5841999999999998,-0.9844]","[-0.10599999999999998,-0.15300000000000002,0.15280000000000005]",-90,44,1,0,0,response7disk,-1,1,1,0,0,rectangle,-1,1,1,0,0,3,3,0.0003,0,-1,1,1,0,0,0,19,19,150,1,69,second,,,,,,,,,,,,,,,,,,,,,,,,,,,,,,,,,,,,,,,,,,,,,,,,,,,,,,,,,,,,,,,,,,,
,,,,,,602d29200724e36ae7a9def2,62bc3b3d22e728ce4bf89c35,2022-06-29_13h45.09.385,Colour_Asymmetry_Pilot,2022.1.3,Win32,60.20107158,62bbe60bf3d75ef465d3e404,,,,,,,,,,,,,,,,,,,,threeone,,-2,1.2989,,,,,,,,,,,,,,,,,,,,,,,,,,,,,,,,,,"[0.9842,0.7409999999999999,-0.6628000000000001]","[-0.38039999999999996,-0.4276,-0.1452]",-85,-25,1,0,0,response5disk,-2,9,1,0,0,rectangle,-2,9,1,0,0,3,1,0.0018,0,-2,9,1,0,0,0,20,20,88,1,7,second,,,,,,,,,,,,,,,,,,,,,,,,,,,,,,,,,,,,,,,,,,,,,,,,,,,,,,,,,,,,,,,,,,,
