trials.thisRepN,trials.thisTrialN,trials.thisN,trials.thisIndex,trials.ran,Colourcodes,participant,session,date,expName,psychopyVersion,OS,frameRate,study_id,trials_4.thisRepN,trials_4.thisTrialN,trials_4.thisN,trials_4.thisIndex,trials_4.ran,StimulusPos,key_resp.keys,key_resp.rt,key_resp_2.keys,key_resp_2.rt,key_resp_15.keys,key_resp_15.rt,key_resp_17.keys,key_resp_17.rt,key_resp_9.keys,key_resp_9.rt,key_resp_10.keys,key_resp_10.rt,Circle1_col,Ecc,Circle2_col,similarity,response_time,mouse_5.x,mouse_5.y,mouse_5.leftButton,mouse_5.midButton,mouse_5.rightButton,mouse_5.clicked_name,mouse_10.x,mouse_10.y,mouse_10.leftButton,mouse_10.midButton,mouse_10.rightButton,mouse_10.clicked_name,mouse_7.x,mouse_7.y,mouse_7.leftButton,mouse_7.midButton,mouse_7.rightButton,catchnumberprac,mouse_6.x,mouse_6.y,mouse_6.leftButton,mouse_6.midButton,mouse_6.rightButton,duringprac.thisRepN,duringprac.thisTrialN,duringprac.thisN,duringprac.thisIndex,duringprac.ran,mouse_7.clicked_name,catchprac,mouse_6.clicked_name,key_resp_22.keys,key_resp_22.rt,Circle1_colour,Circle2_colour,mouse.x,mouse.y,mouse.leftButton,mouse.midButton,mouse.rightButton,mouse.clicked_name,mouse_2.x,mouse_2.y,mouse_2.leftButton,mouse_2.midButton,mouse_2.rightButton,mouse_2.clicked_name,mouse_3.x,mouse_3.y,mouse_3.leftButton,mouse_3.midButton,mouse_3.rightButton,catchresponse,catchnumber,response_time_catch,Catch,mouse_11.x,mouse_11.y,mouse_11.leftButton,mouse_11.midButton,mouse_11.rightButton,trials_2.thisRepN,trials_2.thisTrialN,trials_2.thisN,trials_2.thisIndex,trials_2.ran,Colourpair,Temporder,mouse_3.clicked_name,mouse_11.clicked_name,trials_3.thisRepN,trials_3.thisTrialN,trials_3.thisN,trials_3.thisIndex,trials_3.ran,key_resp_instr_Ishi.keys,key_resp_instr_Ishi.rt,Ishi_trial_keyresp.keys,Ishi_trial_keyresp.rt,Ishi_textbox.text,Ishi_loop.thisRepN,Ishi_loop.thisTrialN,Ishi_loop.thisN,Ishi_loop.thisIndex,Ishi_loop.ran,imageaddress,textbox.text,mouse_4.x,mouse_4.y,mouse_4.leftButton,mouse_4.midButton,mouse_4.rightButton,mouse_4.clicked_name,textbox_2.text,mouse_8.x,mouse_8.y,mouse_8.leftButton,mouse_8.midButton,mouse_8.rightButton,mouse_8.clicked_name,textbox_3.text,mouse_9.x,mouse_9.y,mouse_9.leftButton,mouse_9.midButton,mouse_9.rightButton,mouse_9.clicked_name,textbox_4.text,mouse_12.x,mouse_12.y,mouse_12.leftButton,mouse_12.midButton,mouse_12.rightButton,mouse_12.clicked_name,textbox_5.text,mouse_13.x,mouse_13.y,mouse_13.leftButton,mouse_13.midButton,mouse_13.rightButton,mouse_13.clicked_name,textbox_6.text,mouse_14.x,mouse_14.y,mouse_14.leftButton,mouse_14.midButton,mouse_14.rightButton,mouse_14.clicked_name,textbox_7.text,mouse_15.x,mouse_15.y,mouse_15.leftButton,mouse_15.midButton,mouse_15.rightButton,mouse_15.clicked_name
0,0,0,66,1,,611424d6d8ab51566db0adc1,62bbf9b64068efa22e44d4bd,2022-06-29_09h06.22.654,Colour_Asymmetry_Pilot,2022.1.3,Win32,60.04924038,62bbe60bf3d75ef465d3e404,,,,,,,,,,,,,,,,,,,,,,,,,,,,,,,,,,,,,,,,,,,,,,,,,,,,,,,,,,,,,,,,,,,,,,,,,,,,,,,,,,,,,,,,,,,,,,,,,,,,,,,,,,,,,,,,,,,,,,,,,,,,,,,,,,,,,,,,,,,,,,,,,,,,,,,,,,,,,,
0,1,1,4,1,,611424d6d8ab51566db0adc1,62bbf9b64068efa22e44d4bd,2022-06-29_09h06.22.654,Colour_Asymmetry_Pilot,2022.1.3,Win32,60.04924038,62bbe60bf3d75ef465d3e404,,,,,,,,,,,,,,,,,,,,,,,,,,,,,,,,,,,,,,,,,,,,,,,,,,,,,,,,,,,,,,,,,,,,,,,,,,,,,,,,,,,,,,,,,,,,,,,,,,,,,,,,,,,,,,,,,,,,,,,,,,,,,,,,,,,,,,,,,,,,,,,,,,,,,,,,,,,,,,
0,2,2,35,1,,611424d6d8ab51566db0adc1,62bbf9b64068efa22e44d4bd,2022-06-29_09h06.22.654,Colour_Asymmetry_Pilot,2022.1.3,Win32,60.04924038,62bbe60bf3d75ef465d3e404,,,,,,,,,,,,,,,,,,,,,,,,,,,,,,,,,,,,,,,,,,,,,,,,,,,,,,,,,,,,,,,,,,,,,,,,,,,,,,,,,,,,,,,,,,,,,,,,,,,,,,,,,,,,,,,,,,,,,,,,,,,,,,,,,,,,,,,,,,,,,,,,,,,,,,,,,,,,,,
0,3,3,92,1,,611424d6d8ab51566db0adc1,62bbf9b64068efa22e44d4bd,2022-06-29_09h06.22.654,Colour_Asymmetry_Pilot,2022.1.3,Win32,60.04924038,62bbe60bf3d75ef465d3e404,,,,,,,,,,,,,,,,,,,,,,,,,,,,,,,,,,,,,,,,,,,,,,,,,,,,,,,,,,,,,,,,,,,,,,,,,,,,,,,,,,,,,,,,,,,,,,,,,,,,,,,,,,,,,,,,,,,,,,,,,,,,,,,,,,,,,,,,,,,,,,,,,,,,,,,,,,,,,,
0,4,4,46,1,,611424d6d8ab51566db0adc1,62bbf9b64068efa22e44d4bd,2022-06-29_09h06.22.654,Colour_Asymmetry_Pilot,2022.1.3,Win32,60.04924038,62bbe60bf3d75ef465d3e404,,,,,,,,,,,,,,,,,,,,,,,,,,,,,,,,,,,,,,,,,,,,,,,,,,,,,,,,,,,,,,,,,,,,,,,,,,,,,,,,,,,,,,,,,,,,,,,,,,,,,,,,,,,,,,,,,,,,,,,,,,,,,,,,,,,,,,,,,,,,,,,,,,,,,,,,,,,,,,
0,5,5,30,1,,611424d6d8ab51566db0adc1,62bbf9b64068efa22e44d4bd,2022-06-29_09h06.22.654,Colour_Asymmetry_Pilot,2022.1.3,Win32,60.04924038,62bbe60bf3d75ef465d3e404,,,,,,,,,,,,,,,,,,,,,,,,,,,,,,,,,,,,,,,,,,,,,,,,,,,,,,,,,,,,,,,,,,,,,,,,,,,,,,,,,,,,,,,,,,,,,,,,,,,,,,,,,,,,,,,,,,,,,,,,,,,,,,,,,,,,,,,,,,,,,,,,,,,,,,,,,,,,,,
0,6,6,47,1,,611424d6d8ab51566db0adc1,62bbf9b64068efa22e44d4bd,2022-06-29_09h06.22.654,Colour_Asymmetry_Pilot,2022.1.3,Win32,60.04924038,62bbe60bf3d75ef465d3e404,,,,,,,,,,,,,,,,,,,,,,,,,,,,,,,,,,,,,,,,,,,,,,,,,,,,,,,,,,,,,,,,,,,,,,,,,,,,,,,,,,,,,,,,,,,,,,,,,,,,,,,,,,,,,,,,,,,,,,,,,,,,,,,,,,,,,,,,,,,,,,,,,,,,,,,,,,,,,,
0,7,7,64,1,,611424d6d8ab51566db0adc1,62bbf9b64068efa22e44d4bd,2022-06-29_09h06.22.654,Colour_Asymmetry_Pilot,2022.1.3,Win32,60.04924038,62bbe60bf3d75ef465d3e404,,,,,,,,,,,,,,,,,,,,,,,,,,,,,,,,,,,,,,,,,,,,,,,,,,,,,,,,,,,,,,,,,,,,,,,,,,,,,,,,,,,,,,,,,,,,,,,,,,,,,,,,,,,,,,,,,,,,,,,,,,,,,,,,,,,,,,,,,,,,,,,,,,,,,,,,,,,,,,
0,8,8,67,1,,611424d6d8ab51566db0adc1,62bbf9b64068efa22e44d4bd,2022-06-29_09h06.22.654,Colour_Asymmetry_Pilot,2022.1.3,Win32,60.04924038,62bbe60bf3d75ef465d3e404,,,,,,,,,,,,,,,,,,,,,,,,,,,,,,,,,,,,,,,,,,,,,,,,,,,,,,,,,,,,,,,,,,,,,,,,,,,,,,,,,,,,,,,,,,,,,,,,,,,,,,,,,,,,,,,,,,,,,,,,,,,,,,,,,,,,,,,,,,,,,,,,,,,,,,,,,,,,,,
0,9,9,88,1,,611424d6d8ab51566db0adc1,62bbf9b64068efa22e44d4bd,2022-06-29_09h06.22.654,Colour_Asymmetry_Pilot,2022.1.3,Win32,60.04924038,62bbe60bf3d75ef465d3e404,,,,,,,,,,,,,,,,,,,,,,,,,,,,,,,,,,,,,,,,,,,,,,,,,,,,,,,,,,,,,,,,,,,,,,,,,,,,,,,,,,,,,,,,,,,,,,,,,,,,,,,,,,,,,,,,,,,,,,,,,,,,,,,,,,,,,,,,,,,,,,,,,,,,,,,,,,,,,,
0,10,10,87,1,,611424d6d8ab51566db0adc1,62bbf9b64068efa22e44d4bd,2022-06-29_09h06.22.654,Colour_Asymmetry_Pilot,2022.1.3,Win32,60.04924038,62bbe60bf3d75ef465d3e404,,,,,,,,,,,,,,,,,,,,,,,,,,,,,,,,,,,,,,,,,,,,,,,,,,,,,,,,,,,,,,,,,,,,,,,,,,,,,,,,,,,,,,,,,,,,,,,,,,,,,,,,,,,,,,,,,,,,,,,,,,,,,,,,,,,,,,,,,,,,,,,,,,,,,,,,,,,,,,
0,11,11,37,1,,611424d6d8ab51566db0adc1,62bbf9b64068efa22e44d4bd,2022-06-29_09h06.22.654,Colour_Asymmetry_Pilot,2022.1.3,Win32,60.04924038,62bbe60bf3d75ef465d3e404,,,,,,,,,,,,,,,,,,,,,,,,,,,,,,,,,,,,,,,,,,,,,,,,,,,,,,,,,,,,,,,,,,,,,,,,,,,,,,,,,,,,,,,,,,,,,,,,,,,,,,,,,,,,,,,,,,,,,,,,,,,,,,,,,,,,,,,,,,,,,,,,,,,,,,,,,,,,,,
0,12,12,32,1,,611424d6d8ab51566db0adc1,62bbf9b64068efa22e44d4bd,2022-06-29_09h06.22.654,Colour_Asymmetry_Pilot,2022.1.3,Win32,60.04924038,62bbe60bf3d75ef465d3e404,,,,,,,,,,,,,,,,,,,,,,,,,,,,,,,,,,,,,,,,,,,,,,,,,,,,,,,,,,,,,,,,,,,,,,,,,,,,,,,,,,,,,,,,,,,,,,,,,,,,,,,,,,,,,,,,,,,,,,,,,,,,,,,,,,,,,,,,,,,,,,,,,,,,,,,,,,,,,,
0,13,13,7,1,,611424d6d8ab51566db0adc1,62bbf9b64068efa22e44d4bd,2022-06-29_09h06.22.654,Colour_Asymmetry_Pilot,2022.1.3,Win32,60.04924038,62bbe60bf3d75ef465d3e404,,,,,,,,,,,,,,,,,,,,,,,,,,,,,,,,,,,,,,,,,,,,,,,,,,,,,,,,,,,,,,,,,,,,,,,,,,,,,,,,,,,,,,,,,,,,,,,,,,,,,,,,,,,,,,,,,,,,,,,,,,,,,,,,,,,,,,,,,,,,,,,,,,,,,,,,,,,,,,
0,14,14,36,1,,611424d6d8ab51566db0adc1,62bbf9b64068efa22e44d4bd,2022-06-29_09h06.22.654,Colour_Asymmetry_Pilot,2022.1.3,Win32,60.04924038,62bbe60bf3d75ef465d3e404,,,,,,,,,,,,,,,,,,,,,,,,,,,,,,,,,,,,,,,,,,,,,,,,,,,,,,,,,,,,,,,,,,,,,,,,,,,,,,,,,,,,,,,,,,,,,,,,,,,,,,,,,,,,,,,,,,,,,,,,,,,,,,,,,,,,,,,,,,,,,,,,,,,,,,,,,,,,,,
0,15,15,89,1,,611424d6d8ab51566db0adc1,62bbf9b64068efa22e44d4bd,2022-06-29_09h06.22.654,Colour_Asymmetry_Pilot,2022.1.3,Win32,60.04924038,62bbe60bf3d75ef465d3e404,,,,,,,,,,,,,,,,,,,,,,,,,,,,,,,,,,,,,,,,,,,,,,,,,,,,,,,,,,,,,,,,,,,,,,,,,,,,,,,,,,,,,,,,,,,,,,,,,,,,,,,,,,,,,,,,,,,,,,,,,,,,,,,,,,,,,,,,,,,,,,,,,,,,,,,,,,,,,,
0,16,16,75,1,,611424d6d8ab51566db0adc1,62bbf9b64068efa22e44d4bd,2022-06-29_09h06.22.654,Colour_Asymmetry_Pilot,2022.1.3,Win32,60.04924038,62bbe60bf3d75ef465d3e404,,,,,,,,,,,,,,,,,,,,,,,,,,,,,,,,,,,,,,,,,,,,,,,,,,,,,,,,,,,,,,,,,,,,,,,,,,,,,,,,,,,,,,,,,,,,,,,,,,,,,,,,,,,,,,,,,,,,,,,,,,,,,,,,,,,,,,,,,,,,,,,,,,,,,,,,,,,,,,
0,17,17,31,1,,611424d6d8ab51566db0adc1,62bbf9b64068efa22e44d4bd,2022-06-29_09h06.22.654,Colour_Asymmetry_Pilot,2022.1.3,Win32,60.04924038,62bbe60bf3d75ef465d3e404,,,,,,,,,,,,,,,,,,,,,,,,,,,,,,,,,,,,,,,,,,,,,,,,,,,,,,,,,,,,,,,,,,,,,,,,,,,,,,,,,,,,,,,,,,,,,,,,,,,,,,,,,,,,,,,,,,,,,,,,,,,,,,,,,,,,,,,,,,,,,,,,,,,,,,,,,,,,,,
0,18,18,58,1,,611424d6d8ab51566db0adc1,62bbf9b64068efa22e44d4bd,2022-06-29_09h06.22.654,Colour_Asymmetry_Pilot,2022.1.3,Win32,60.04924038,62bbe60bf3d75ef465d3e404,,,,,,,,,,,,,,,,,,,,,,,,,,,,,,,,,,,,,,,,,,,,,,,,,,,,,,,,,,,,,,,,,,,,,,,,,,,,,,,,,,,,,,,,,,,,,,,,,,,,,,,,,,,,,,,,,,,,,,,,,,,,,,,,,,,,,,,,,,,,,,,,,,,,,,,,,,,,,,
0,19,19,23,1,,611424d6d8ab51566db0adc1,62bbf9b64068efa22e44d4bd,2022-06-29_09h06.22.654,Colour_Asymmetry_Pilot,2022.1.3,Win32,60.04924038,62bbe60bf3d75ef465d3e404,,,,,,,,,,,,,,,,,,,,,,,,,,,,,,,,,,,,,,,,,,,,,,,,,,,,,,,,,,,,,,,,,,,,,,,,,,,,,,,,,,,,,,,,,,,,,,,,,,,,,,,,,,,,,,,,,,,,,,,,,,,,,,,,,,,,,,,,,,,,,,,,,,,,,,,,,,,,,,
0,20,20,45,1,,611424d6d8ab51566db0adc1,62bbf9b64068efa22e44d4bd,2022-06-29_09h06.22.654,Colour_Asymmetry_Pilot,2022.1.3,Win32,60.04924038,62bbe60bf3d75ef465d3e404,,,,,,,,,,,,,,,,,,,,,,,,,,,,,,,,,,,,,,,,,,,,,,,,,,,,,,,,,,,,,,,,,,,,,,,,,,,,,,,,,,,,,,,,,,,,,,,,,,,,,,,,,,,,,,,,,,,,,,,,,,,,,,,,,,,,,,,,,,,,,,,,,,,,,,,,,,,,,,
0,21,21,60,1,,611424d6d8ab51566db0adc1,62bbf9b64068efa22e44d4bd,2022-06-29_09h06.22.654,Colour_Asymmetry_Pilot,2022.1.3,Win32,60.04924038,62bbe60bf3d75ef465d3e404,,,,,,,,,,,,,,,,,,,,,,,,,,,,,,,,,,,,,,,,,,,,,,,,,,,,,,,,,,,,,,,,,,,,,,,,,,,,,,,,,,,,,,,,,,,,,,,,,,,,,,,,,,,,,,,,,,,,,,,,,,,,,,,,,,,,,,,,,,,,,,,,,,,,,,,,,,,,,,
0,22,22,25,1,,611424d6d8ab51566db0adc1,62bbf9b64068efa22e44d4bd,2022-06-29_09h06.22.654,Colour_Asymmetry_Pilot,2022.1.3,Win32,60.04924038,62bbe60bf3d75ef465d3e404,,,,,,,,,,,,,,,,,,,,,,,,,,,,,,,,,,,,,,,,,,,,,,,,,,,,,,,,,,,,,,,,,,,,,,,,,,,,,,,,,,,,,,,,,,,,,,,,,,,,,,,,,,,,,,,,,,,,,,,,,,,,,,,,,,,,,,,,,,,,,,,,,,,,,,,,,,,,,,
0,23,23,59,1,,611424d6d8ab51566db0adc1,62bbf9b64068efa22e44d4bd,2022-06-29_09h06.22.654,Colour_Asymmetry_Pilot,2022.1.3,Win32,60.04924038,62bbe60bf3d75ef465d3e404,,,,,,,,,,,,,,,,,,,,,,,,,,,,,,,,,,,,,,,,,,,,,,,,,,,,,,,,,,,,,,,,,,,,,,,,,,,,,,,,,,,,,,,,,,,,,,,,,,,,,,,,,,,,,,,,,,,,,,,,,,,,,,,,,,,,,,,,,,,,,,,,,,,,,,,,,,,,,,
0,24,24,91,1,,611424d6d8ab51566db0adc1,62bbf9b64068efa22e44d4bd,2022-06-29_09h06.22.654,Colour_Asymmetry_Pilot,2022.1.3,Win32,60.04924038,62bbe60bf3d75ef465d3e404,,,,,,,,,,,,,,,,,,,,,,,,,,,,,,,,,,,,,,,,,,,,,,,,,,,,,,,,,,,,,,,,,,,,,,,,,,,,,,,,,,,,,,,,,,,,,,,,,,,,,,,,,,,,,,,,,,,,,,,,,,,,,,,,,,,,,,,,,,,,,,,,,,,,,,,,,,,,,,
0,25,25,28,1,,611424d6d8ab51566db0adc1,62bbf9b64068efa22e44d4bd,2022-06-29_09h06.22.654,Colour_Asymmetry_Pilot,2022.1.3,Win32,60.04924038,62bbe60bf3d75ef465d3e404,,,,,,,,,,,,,,,,,,,,,,,,,,,,,,,,,,,,,,,,,,,,,,,,,,,,,,,,,,,,,,,,,,,,,,,,,,,,,,,,,,,,,,,,,,,,,,,,,,,,,,,,,,,,,,,,,,,,,,,,,,,,,,,,,,,,,,,,,,,,,,,,,,,,,,,,,,,,,,
0,26,26,63,1,,611424d6d8ab51566db0adc1,62bbf9b64068efa22e44d4bd,2022-06-29_09h06.22.654,Colour_Asymmetry_Pilot,2022.1.3,Win32,60.04924038,62bbe60bf3d75ef465d3e404,,,,,,,,,,,,,,,,,,,,,,,,,,,,,,,,,,,,,,,,,,,,,,,,,,,,,,,,,,,,,,,,,,,,,,,,,,,,,,,,,,,,,,,,,,,,,,,,,,,,,,,,,,,,,,,,,,,,,,,,,,,,,,,,,,,,,,,,,,,,,,,,,,,,,,,,,,,,,,
0,27,27,43,1,,611424d6d8ab51566db0adc1,62bbf9b64068efa22e44d4bd,2022-06-29_09h06.22.654,Colour_Asymmetry_Pilot,2022.1.3,Win32,60.04924038,62bbe60bf3d75ef465d3e404,,,,,,,,,,,,,,,,,,,,,,,,,,,,,,,,,,,,,,,,,,,,,,,,,,,,,,,,,,,,,,,,,,,,,,,,,,,,,,,,,,,,,,,,,,,,,,,,,,,,,,,,,,,,,,,,,,,,,,,,,,,,,,,,,,,,,,,,,,,,,,,,,,,,,,,,,,,,,,
0,28,28,69,1,,611424d6d8ab51566db0adc1,62bbf9b64068efa22e44d4bd,2022-06-29_09h06.22.654,Colour_Asymmetry_Pilot,2022.1.3,Win32,60.04924038,62bbe60bf3d75ef465d3e404,,,,,,,,,,,,,,,,,,,,,,,,,,,,,,,,,,,,,,,,,,,,,,,,,,,,,,,,,,,,,,,,,,,,,,,,,,,,,,,,,,,,,,,,,,,,,,,,,,,,,,,,,,,,,,,,,,,,,,,,,,,,,,,,,,,,,,,,,,,,,,,,,,,,,,,,,,,,,,
0,29,29,6,1,,611424d6d8ab51566db0adc1,62bbf9b64068efa22e44d4bd,2022-06-29_09h06.22.654,Colour_Asymmetry_Pilot,2022.1.3,Win32,60.04924038,62bbe60bf3d75ef465d3e404,,,,,,,,,,,,,,,,,,,,,,,,,,,,,,,,,,,,,,,,,,,,,,,,,,,,,,,,,,,,,,,,,,,,,,,,,,,,,,,,,,,,,,,,,,,,,,,,,,,,,,,,,,,,,,,,,,,,,,,,,,,,,,,,,,,,,,,,,,,,,,,,,,,,,,,,,,,,,,
0,30,30,1,1,,611424d6d8ab51566db0adc1,62bbf9b64068efa22e44d4bd,2022-06-29_09h06.22.654,Colour_Asymmetry_Pilot,2022.1.3,Win32,60.04924038,62bbe60bf3d75ef465d3e404,,,,,,,,,,,,,,,,,,,,,,,,,,,,,,,,,,,,,,,,,,,,,,,,,,,,,,,,,,,,,,,,,,,,,,,,,,,,,,,,,,,,,,,,,,,,,,,,,,,,,,,,,,,,,,,,,,,,,,,,,,,,,,,,,,,,,,,,,,,,,,,,,,,,,,,,,,,,,,
0,31,31,34,1,,611424d6d8ab51566db0adc1,62bbf9b64068efa22e44d4bd,2022-06-29_09h06.22.654,Colour_Asymmetry_Pilot,2022.1.3,Win32,60.04924038,62bbe60bf3d75ef465d3e404,,,,,,,,,,,,,,,,,,,,,,,,,,,,,,,,,,,,,,,,,,,,,,,,,,,,,,,,,,,,,,,,,,,,,,,,,,,,,,,,,,,,,,,,,,,,,,,,,,,,,,,,,,,,,,,,,,,,,,,,,,,,,,,,,,,,,,,,,,,,,,,,,,,,,,,,,,,,,,
0,32,32,48,1,,611424d6d8ab51566db0adc1,62bbf9b64068efa22e44d4bd,2022-06-29_09h06.22.654,Colour_Asymmetry_Pilot,2022.1.3,Win32,60.04924038,62bbe60bf3d75ef465d3e404,,,,,,,,,,,,,,,,,,,,,,,,,,,,,,,,,,,,,,,,,,,,,,,,,,,,,,,,,,,,,,,,,,,,,,,,,,,,,,,,,,,,,,,,,,,,,,,,,,,,,,,,,,,,,,,,,,,,,,,,,,,,,,,,,,,,,,,,,,,,,,,,,,,,,,,,,,,,,,
0,33,33,27,1,,611424d6d8ab51566db0adc1,62bbf9b64068efa22e44d4bd,2022-06-29_09h06.22.654,Colour_Asymmetry_Pilot,2022.1.3,Win32,60.04924038,62bbe60bf3d75ef465d3e404,,,,,,,,,,,,,,,,,,,,,,,,,,,,,,,,,,,,,,,,,,,,,,,,,,,,,,,,,,,,,,,,,,,,,,,,,,,,,,,,,,,,,,,,,,,,,,,,,,,,,,,,,,,,,,,,,,,,,,,,,,,,,,,,,,,,,,,,,,,,,,,,,,,,,,,,,,,,,,
0,34,34,65,1,,611424d6d8ab51566db0adc1,62bbf9b64068efa22e44d4bd,2022-06-29_09h06.22.654,Colour_Asymmetry_Pilot,2022.1.3,Win32,60.04924038,62bbe60bf3d75ef465d3e404,,,,,,,,,,,,,,,,,,,,,,,,,,,,,,,,,,,,,,,,,,,,,,,,,,,,,,,,,,,,,,,,,,,,,,,,,,,,,,,,,,,,,,,,,,,,,,,,,,,,,,,,,,,,,,,,,,,,,,,,,,,,,,,,,,,,,,,,,,,,,,,,,,,,,,,,,,,,,,
0,35,35,49,1,,611424d6d8ab51566db0adc1,62bbf9b64068efa22e44d4bd,2022-06-29_09h06.22.654,Colour_Asymmetry_Pilot,2022.1.3,Win32,60.04924038,62bbe60bf3d75ef465d3e404,,,,,,,,,,,,,,,,,,,,,,,,,,,,,,,,,,,,,,,,,,,,,,,,,,,,,,,,,,,,,,,,,,,,,,,,,,,,,,,,,,,,,,,,,,,,,,,,,,,,,,,,,,,,,,,,,,,,,,,,,,,,,,,,,,,,,,,,,,,,,,,,,,,,,,,,,,,,,,
0,36,36,90,1,,611424d6d8ab51566db0adc1,62bbf9b64068efa22e44d4bd,2022-06-29_09h06.22.654,Colour_Asymmetry_Pilot,2022.1.3,Win32,60.04924038,62bbe60bf3d75ef465d3e404,,,,,,,,,,,,,,,,,,,,,,,,,,,,,,,,,,,,,,,,,,,,,,,,,,,,,,,,,,,,,,,,,,,,,,,,,,,,,,,,,,,,,,,,,,,,,,,,,,,,,,,,,,,,,,,,,,,,,,,,,,,,,,,,,,,,,,,,,,,,,,,,,,,,,,,,,,,,,,
0,37,37,19,1,,611424d6d8ab51566db0adc1,62bbf9b64068efa22e44d4bd,2022-06-29_09h06.22.654,Colour_Asymmetry_Pilot,2022.1.3,Win32,60.04924038,62bbe60bf3d75ef465d3e404,,,,,,,,,,,,,,,,,,,,,,,,,,,,,,,,,,,,,,,,,,,,,,,,,,,,,,,,,,,,,,,,,,,,,,,,,,,,,,,,,,,,,,,,,,,,,,,,,,,,,,,,,,,,,,,,,,,,,,,,,,,,,,,,,,,,,,,,,,,,,,,,,,,,,,,,,,,,,,
0,38,38,18,1,,611424d6d8ab51566db0adc1,62bbf9b64068efa22e44d4bd,2022-06-29_09h06.22.654,Colour_Asymmetry_Pilot,2022.1.3,Win32,60.04924038,62bbe60bf3d75ef465d3e404,,,,,,,,,,,,,,,,,,,,,,,,,,,,,,,,,,,,,,,,,,,,,,,,,,,,,,,,,,,,,,,,,,,,,,,,,,,,,,,,,,,,,,,,,,,,,,,,,,,,,,,,,,,,,,,,,,,,,,,,,,,,,,,,,,,,,,,,,,,,,,,,,,,,,,,,,,,,,,
0,39,39,9,1,,611424d6d8ab51566db0adc1,62bbf9b64068efa22e44d4bd,2022-06-29_09h06.22.654,Colour_Asymmetry_Pilot,2022.1.3,Win32,60.04924038,62bbe60bf3d75ef465d3e404,,,,,,,,,,,,,,,,,,,,,,,,,,,,,,,,,,,,,,,,,,,,,,,,,,,,,,,,,,,,,,,,,,,,,,,,,,,,,,,,,,,,,,,,,,,,,,,,,,,,,,,,,,,,,,,,,,,,,,,,,,,,,,,,,,,,,,,,,,,,,,,,,,,,,,,,,,,,,,
0,40,40,56,1,,611424d6d8ab51566db0adc1,62bbf9b64068efa22e44d4bd,2022-06-29_09h06.22.654,Colour_Asymmetry_Pilot,2022.1.3,Win32,60.04924038,62bbe60bf3d75ef465d3e404,,,,,,,,,,,,,,,,,,,,,,,,,,,,,,,,,,,,,,,,,,,,,,,,,,,,,,,,,,,,,,,,,,,,,,,,,,,,,,,,,,,,,,,,,,,,,,,,,,,,,,,,,,,,,,,,,,,,,,,,,,,,,,,,,,,,,,,,,,,,,,,,,,,,,,,,,,,,,,
0,41,41,86,1,,611424d6d8ab51566db0adc1,62bbf9b64068efa22e44d4bd,2022-06-29_09h06.22.654,Colour_Asymmetry_Pilot,2022.1.3,Win32,60.04924038,62bbe60bf3d75ef465d3e404,,,,,,,,,,,,,,,,,,,,,,,,,,,,,,,,,,,,,,,,,,,,,,,,,,,,,,,,,,,,,,,,,,,,,,,,,,,,,,,,,,,,,,,,,,,,,,,,,,,,,,,,,,,,,,,,,,,,,,,,,,,,,,,,,,,,,,,,,,,,,,,,,,,,,,,,,,,,,,
0,42,42,24,1,,611424d6d8ab51566db0adc1,62bbf9b64068efa22e44d4bd,2022-06-29_09h06.22.654,Colour_Asymmetry_Pilot,2022.1.3,Win32,60.04924038,62bbe60bf3d75ef465d3e404,,,,,,,,,,,,,,,,,,,,,,,,,,,,,,,,,,,,,,,,,,,,,,,,,,,,,,,,,,,,,,,,,,,,,,,,,,,,,,,,,,,,,,,,,,,,,,,,,,,,,,,,,,,,,,,,,,,,,,,,,,,,,,,,,,,,,,,,,,,,,,,,,,,,,,,,,,,,,,
0,43,43,72,1,,611424d6d8ab51566db0adc1,62bbf9b64068efa22e44d4bd,2022-06-29_09h06.22.654,Colour_Asymmetry_Pilot,2022.1.3,Win32,60.04924038,62bbe60bf3d75ef465d3e404,,,,,,,,,,,,,,,,,,,,,,,,,,,,,,,,,,,,,,,,,,,,,,,,,,,,,,,,,,,,,,,,,,,,,,,,,,,,,,,,,,,,,,,,,,,,,,,,,,,,,,,,,,,,,,,,,,,,,,,,,,,,,,,,,,,,,,,,,,,,,,,,,,,,,,,,,,,,,,
0,44,44,70,1,,611424d6d8ab51566db0adc1,62bbf9b64068efa22e44d4bd,2022-06-29_09h06.22.654,Colour_Asymmetry_Pilot,2022.1.3,Win32,60.04924038,62bbe60bf3d75ef465d3e404,,,,,,,,,,,,,,,,,,,,,,,,,,,,,,,,,,,,,,,,,,,,,,,,,,,,,,,,,,,,,,,,,,,,,,,,,,,,,,,,,,,,,,,,,,,,,,,,,,,,,,,,,,,,,,,,,,,,,,,,,,,,,,,,,,,,,,,,,,,,,,,,,,,,,,,,,,,,,,
0,45,45,73,1,,611424d6d8ab51566db0adc1,62bbf9b64068efa22e44d4bd,2022-06-29_09h06.22.654,Colour_Asymmetry_Pilot,2022.1.3,Win32,60.04924038,62bbe60bf3d75ef465d3e404,,,,,,,,,,,,,,,,,,,,,,,,,,,,,,,,,,,,,,,,,,,,,,,,,,,,,,,,,,,,,,,,,,,,,,,,,,,,,,,,,,,,,,,,,,,,,,,,,,,,,,,,,,,,,,,,,,,,,,,,,,,,,,,,,,,,,,,,,,,,,,,,,,,,,,,,,,,,,,
0,46,46,22,1,,611424d6d8ab51566db0adc1,62bbf9b64068efa22e44d4bd,2022-06-29_09h06.22.654,Colour_Asymmetry_Pilot,2022.1.3,Win32,60.04924038,62bbe60bf3d75ef465d3e404,,,,,,,,,,,,,,,,,,,,,,,,,,,,,,,,,,,,,,,,,,,,,,,,,,,,,,,,,,,,,,,,,,,,,,,,,,,,,,,,,,,,,,,,,,,,,,,,,,,,,,,,,,,,,,,,,,,,,,,,,,,,,,,,,,,,,,,,,,,,,,,,,,,,,,,,,,,,,,
0,47,47,55,1,,611424d6d8ab51566db0adc1,62bbf9b64068efa22e44d4bd,2022-06-29_09h06.22.654,Colour_Asymmetry_Pilot,2022.1.3,Win32,60.04924038,62bbe60bf3d75ef465d3e404,,,,,,,,,,,,,,,,,,,,,,,,,,,,,,,,,,,,,,,,,,,,,,,,,,,,,,,,,,,,,,,,,,,,,,,,,,,,,,,,,,,,,,,,,,,,,,,,,,,,,,,,,,,,,,,,,,,,,,,,,,,,,,,,,,,,,,,,,,,,,,,,,,,,,,,,,,,,,,
0,48,48,40,1,,611424d6d8ab51566db0adc1,62bbf9b64068efa22e44d4bd,2022-06-29_09h06.22.654,Colour_Asymmetry_Pilot,2022.1.3,Win32,60.04924038,62bbe60bf3d75ef465d3e404,,,,,,,,,,,,,,,,,,,,,,,,,,,,,,,,,,,,,,,,,,,,,,,,,,,,,,,,,,,,,,,,,,,,,,,,,,,,,,,,,,,,,,,,,,,,,,,,,,,,,,,,,,,,,,,,,,,,,,,,,,,,,,,,,,,,,,,,,,,,,,,,,,,,,,,,,,,,,,
0,49,49,29,1,,611424d6d8ab51566db0adc1,62bbf9b64068efa22e44d4bd,2022-06-29_09h06.22.654,Colour_Asymmetry_Pilot,2022.1.3,Win32,60.04924038,62bbe60bf3d75ef465d3e404,,,,,,,,,,,,,,,,,,,,,,,,,,,,,,,,,,,,,,,,,,,,,,,,,,,,,,,,,,,,,,,,,,,,,,,,,,,,,,,,,,,,,,,,,,,,,,,,,,,,,,,,,,,,,,,,,,,,,,,,,,,,,,,,,,,,,,,,,,,,,,,,,,,,,,,,,,,,,,
0,50,50,83,1,,611424d6d8ab51566db0adc1,62bbf9b64068efa22e44d4bd,2022-06-29_09h06.22.654,Colour_Asymmetry_Pilot,2022.1.3,Win32,60.04924038,62bbe60bf3d75ef465d3e404,,,,,,,,,,,,,,,,,,,,,,,,,,,,,,,,,,,,,,,,,,,,,,,,,,,,,,,,,,,,,,,,,,,,,,,,,,,,,,,,,,,,,,,,,,,,,,,,,,,,,,,,,,,,,,,,,,,,,,,,,,,,,,,,,,,,,,,,,,,,,,,,,,,,,,,,,,,,,,
0,51,51,41,1,,611424d6d8ab51566db0adc1,62bbf9b64068efa22e44d4bd,2022-06-29_09h06.22.654,Colour_Asymmetry_Pilot,2022.1.3,Win32,60.04924038,62bbe60bf3d75ef465d3e404,,,,,,,,,,,,,,,,,,,,,,,,,,,,,,,,,,,,,,,,,,,,,,,,,,,,,,,,,,,,,,,,,,,,,,,,,,,,,,,,,,,,,,,,,,,,,,,,,,,,,,,,,,,,,,,,,,,,,,,,,,,,,,,,,,,,,,,,,,,,,,,,,,,,,,,,,,,,,,
0,52,52,11,1,,611424d6d8ab51566db0adc1,62bbf9b64068efa22e44d4bd,2022-06-29_09h06.22.654,Colour_Asymmetry_Pilot,2022.1.3,Win32,60.04924038,62bbe60bf3d75ef465d3e404,,,,,,,,,,,,,,,,,,,,,,,,,,,,,,,,,,,,,,,,,,,,,,,,,,,,,,,,,,,,,,,,,,,,,,,,,,,,,,,,,,,,,,,,,,,,,,,,,,,,,,,,,,,,,,,,,,,,,,,,,,,,,,,,,,,,,,,,,,,,,,,,,,,,,,,,,,,,,,
0,53,53,39,1,,611424d6d8ab51566db0adc1,62bbf9b64068efa22e44d4bd,2022-06-29_09h06.22.654,Colour_Asymmetry_Pilot,2022.1.3,Win32,60.04924038,62bbe60bf3d75ef465d3e404,,,,,,,,,,,,,,,,,,,,,,,,,,,,,,,,,,,,,,,,,,,,,,,,,,,,,,,,,,,,,,,,,,,,,,,,,,,,,,,,,,,,,,,,,,,,,,,,,,,,,,,,,,,,,,,,,,,,,,,,,,,,,,,,,,,,,,,,,,,,,,,,,,,,,,,,,,,,,,
0,54,54,12,1,,611424d6d8ab51566db0adc1,62bbf9b64068efa22e44d4bd,2022-06-29_09h06.22.654,Colour_Asymmetry_Pilot,2022.1.3,Win32,60.04924038,62bbe60bf3d75ef465d3e404,,,,,,,,,,,,,,,,,,,,,,,,,,,,,,,,,,,,,,,,,,,,,,,,,,,,,,,,,,,,,,,,,,,,,,,,,,,,,,,,,,,,,,,,,,,,,,,,,,,,,,,,,,,,,,,,,,,,,,,,,,,,,,,,,,,,,,,,,,,,,,,,,,,,,,,,,,,,,,
0,55,55,8,1,,611424d6d8ab51566db0adc1,62bbf9b64068efa22e44d4bd,2022-06-29_09h06.22.654,Colour_Asymmetry_Pilot,2022.1.3,Win32,60.04924038,62bbe60bf3d75ef465d3e404,,,,,,,,,,,,,,,,,,,,,,,,,,,,,,,,,,,,,,,,,,,,,,,,,,,,,,,,,,,,,,,,,,,,,,,,,,,,,,,,,,,,,,,,,,,,,,,,,,,,,,,,,,,,,,,,,,,,,,,,,,,,,,,,,,,,,,,,,,,,,,,,,,,,,,,,,,,,,,
0,56,56,78,1,,611424d6d8ab51566db0adc1,62bbf9b64068efa22e44d4bd,2022-06-29_09h06.22.654,Colour_Asymmetry_Pilot,2022.1.3,Win32,60.04924038,62bbe60bf3d75ef465d3e404,,,,,,,,,,,,,,,,,,,,,,,,,,,,,,,,,,,,,,,,,,,,,,,,,,,,,,,,,,,,,,,,,,,,,,,,,,,,,,,,,,,,,,,,,,,,,,,,,,,,,,,,,,,,,,,,,,,,,,,,,,,,,,,,,,,,,,,,,,,,,,,,,,,,,,,,,,,,,,
0,57,57,2,1,,611424d6d8ab51566db0adc1,62bbf9b64068efa22e44d4bd,2022-06-29_09h06.22.654,Colour_Asymmetry_Pilot,2022.1.3,Win32,60.04924038,62bbe60bf3d75ef465d3e404,,,,,,,,,,,,,,,,,,,,,,,,,,,,,,,,,,,,,,,,,,,,,,,,,,,,,,,,,,,,,,,,,,,,,,,,,,,,,,,,,,,,,,,,,,,,,,,,,,,,,,,,,,,,,,,,,,,,,,,,,,,,,,,,,,,,,,,,,,,,,,,,,,,,,,,,,,,,,,
0,58,58,74,1,,611424d6d8ab51566db0adc1,62bbf9b64068efa22e44d4bd,2022-06-29_09h06.22.654,Colour_Asymmetry_Pilot,2022.1.3,Win32,60.04924038,62bbe60bf3d75ef465d3e404,,,,,,,,,,,,,,,,,,,,,,,,,,,,,,,,,,,,,,,,,,,,,,,,,,,,,,,,,,,,,,,,,,,,,,,,,,,,,,,,,,,,,,,,,,,,,,,,,,,,,,,,,,,,,,,,,,,,,,,,,,,,,,,,,,,,,,,,,,,,,,,,,,,,,,,,,,,,,,
0,59,59,13,1,,611424d6d8ab51566db0adc1,62bbf9b64068efa22e44d4bd,2022-06-29_09h06.22.654,Colour_Asymmetry_Pilot,2022.1.3,Win32,60.04924038,62bbe60bf3d75ef465d3e404,,,,,,,,,,,,,,,,,,,,,,,,,,,,,,,,,,,,,,,,,,,,,,,,,,,,,,,,,,,,,,,,,,,,,,,,,,,,,,,,,,,,,,,,,,,,,,,,,,,,,,,,,,,,,,,,,,,,,,,,,,,,,,,,,,,,,,,,,,,,,,,,,,,,,,,,,,,,,,
0,60,60,57,1,,611424d6d8ab51566db0adc1,62bbf9b64068efa22e44d4bd,2022-06-29_09h06.22.654,Colour_Asymmetry_Pilot,2022.1.3,Win32,60.04924038,62bbe60bf3d75ef465d3e404,,,,,,,,,,,,,,,,,,,,,,,,,,,,,,,,,,,,,,,,,,,,,,,,,,,,,,,,,,,,,,,,,,,,,,,,,,,,,,,,,,,,,,,,,,,,,,,,,,,,,,,,,,,,,,,,,,,,,,,,,,,,,,,,,,,,,,,,,,,,,,,,,,,,,,,,,,,,,,
0,61,61,82,1,,611424d6d8ab51566db0adc1,62bbf9b64068efa22e44d4bd,2022-06-29_09h06.22.654,Colour_Asymmetry_Pilot,2022.1.3,Win32,60.04924038,62bbe60bf3d75ef465d3e404,,,,,,,,,,,,,,,,,,,,,,,,,,,,,,,,,,,,,,,,,,,,,,,,,,,,,,,,,,,,,,,,,,,,,,,,,,,,,,,,,,,,,,,,,,,,,,,,,,,,,,,,,,,,,,,,,,,,,,,,,,,,,,,,,,,,,,,,,,,,,,,,,,,,,,,,,,,,,,
0,62,62,42,1,,611424d6d8ab51566db0adc1,62bbf9b64068efa22e44d4bd,2022-06-29_09h06.22.654,Colour_Asymmetry_Pilot,2022.1.3,Win32,60.04924038,62bbe60bf3d75ef465d3e404,,,,,,,,,,,,,,,,,,,,,,,,,,,,,,,,,,,,,,,,,,,,,,,,,,,,,,,,,,,,,,,,,,,,,,,,,,,,,,,,,,,,,,,,,,,,,,,,,,,,,,,,,,,,,,,,,,,,,,,,,,,,,,,,,,,,,,,,,,,,,,,,,,,,,,,,,,,,,,
0,63,63,71,1,,611424d6d8ab51566db0adc1,62bbf9b64068efa22e44d4bd,2022-06-29_09h06.22.654,Colour_Asymmetry_Pilot,2022.1.3,Win32,60.04924038,62bbe60bf3d75ef465d3e404,,,,,,,,,,,,,,,,,,,,,,,,,,,,,,,,,,,,,,,,,,,,,,,,,,,,,,,,,,,,,,,,,,,,,,,,,,,,,,,,,,,,,,,,,,,,,,,,,,,,,,,,,,,,,,,,,,,,,,,,,,,,,,,,,,,,,,,,,,,,,,,,,,,,,,,,,,,,,,
0,64,64,15,1,,611424d6d8ab51566db0adc1,62bbf9b64068efa22e44d4bd,2022-06-29_09h06.22.654,Colour_Asymmetry_Pilot,2022.1.3,Win32,60.04924038,62bbe60bf3d75ef465d3e404,,,,,,,,,,,,,,,,,,,,,,,,,,,,,,,,,,,,,,,,,,,,,,,,,,,,,,,,,,,,,,,,,,,,,,,,,,,,,,,,,,,,,,,,,,,,,,,,,,,,,,,,,,,,,,,,,,,,,,,,,,,,,,,,,,,,,,,,,,,,,,,,,,,,,,,,,,,,,,
0,65,65,79,1,,611424d6d8ab51566db0adc1,62bbf9b64068efa22e44d4bd,2022-06-29_09h06.22.654,Colour_Asymmetry_Pilot,2022.1.3,Win32,60.04924038,62bbe60bf3d75ef465d3e404,,,,,,,,,,,,,,,,,,,,,,,,,,,,,,,,,,,,,,,,,,,,,,,,,,,,,,,,,,,,,,,,,,,,,,,,,,,,,,,,,,,,,,,,,,,,,,,,,,,,,,,,,,,,,,,,,,,,,,,,,,,,,,,,,,,,,,,,,,,,,,,,,,,,,,,,,,,,,,
0,66,66,84,1,,611424d6d8ab51566db0adc1,62bbf9b64068efa22e44d4bd,2022-06-29_09h06.22.654,Colour_Asymmetry_Pilot,2022.1.3,Win32,60.04924038,62bbe60bf3d75ef465d3e404,,,,,,,,,,,,,,,,,,,,,,,,,,,,,,,,,,,,,,,,,,,,,,,,,,,,,,,,,,,,,,,,,,,,,,,,,,,,,,,,,,,,,,,,,,,,,,,,,,,,,,,,,,,,,,,,,,,,,,,,,,,,,,,,,,,,,,,,,,,,,,,,,,,,,,,,,,,,,,
0,67,67,3,1,,611424d6d8ab51566db0adc1,62bbf9b64068efa22e44d4bd,2022-06-29_09h06.22.654,Colour_Asymmetry_Pilot,2022.1.3,Win32,60.04924038,62bbe60bf3d75ef465d3e404,,,,,,,,,,,,,,,,,,,,,,,,,,,,,,,,,,,,,,,,,,,,,,,,,,,,,,,,,,,,,,,,,,,,,,,,,,,,,,,,,,,,,,,,,,,,,,,,,,,,,,,,,,,,,,,,,,,,,,,,,,,,,,,,,,,,,,,,,,,,,,,,,,,,,,,,,,,,,,
0,68,68,5,1,,611424d6d8ab51566db0adc1,62bbf9b64068efa22e44d4bd,2022-06-29_09h06.22.654,Colour_Asymmetry_Pilot,2022.1.3,Win32,60.04924038,62bbe60bf3d75ef465d3e404,,,,,,,,,,,,,,,,,,,,,,,,,,,,,,,,,,,,,,,,,,,,,,,,,,,,,,,,,,,,,,,,,,,,,,,,,,,,,,,,,,,,,,,,,,,,,,,,,,,,,,,,,,,,,,,,,,,,,,,,,,,,,,,,,,,,,,,,,,,,,,,,,,,,,,,,,,,,,,
0,69,69,26,1,,611424d6d8ab51566db0adc1,62bbf9b64068efa22e44d4bd,2022-06-29_09h06.22.654,Colour_Asymmetry_Pilot,2022.1.3,Win32,60.04924038,62bbe60bf3d75ef465d3e404,,,,,,,,,,,,,,,,,,,,,,,,,,,,,,,,,,,,,,,,,,,,,,,,,,,,,,,,,,,,,,,,,,,,,,,,,,,,,,,,,,,,,,,,,,,,,,,,,,,,,,,,,,,,,,,,,,,,,,,,,,,,,,,,,,,,,,,,,,,,,,,,,,,,,,,,,,,,,,
0,70,70,50,1,,611424d6d8ab51566db0adc1,62bbf9b64068efa22e44d4bd,2022-06-29_09h06.22.654,Colour_Asymmetry_Pilot,2022.1.3,Win32,60.04924038,62bbe60bf3d75ef465d3e404,,,,,,,,,,,,,,,,,,,,,,,,,,,,,,,,,,,,,,,,,,,,,,,,,,,,,,,,,,,,,,,,,,,,,,,,,,,,,,,,,,,,,,,,,,,,,,,,,,,,,,,,,,,,,,,,,,,,,,,,,,,,,,,,,,,,,,,,,,,,,,,,,,,,,,,,,,,,,,
0,71,71,10,1,,611424d6d8ab51566db0adc1,62bbf9b64068efa22e44d4bd,2022-06-29_09h06.22.654,Colour_Asymmetry_Pilot,2022.1.3,Win32,60.04924038,62bbe60bf3d75ef465d3e404,,,,,,,,,,,,,,,,,,,,,,,,,,,,,,,,,,,,,,,,,,,,,,,,,,,,,,,,,,,,,,,,,,,,,,,,,,,,,,,,,,,,,,,,,,,,,,,,,,,,,,,,,,,,,,,,,,,,,,,,,,,,,,,,,,,,,,,,,,,,,,,,,,,,,,,,,,,,,,
0,72,72,54,1,,611424d6d8ab51566db0adc1,62bbf9b64068efa22e44d4bd,2022-06-29_09h06.22.654,Colour_Asymmetry_Pilot,2022.1.3,Win32,60.04924038,62bbe60bf3d75ef465d3e404,,,,,,,,,,,,,,,,,,,,,,,,,,,,,,,,,,,,,,,,,,,,,,,,,,,,,,,,,,,,,,,,,,,,,,,,,,,,,,,,,,,,,,,,,,,,,,,,,,,,,,,,,,,,,,,,,,,,,,,,,,,,,,,,,,,,,,,,,,,,,,,,,,,,,,,,,,,,,,
0,73,73,33,1,,611424d6d8ab51566db0adc1,62bbf9b64068efa22e44d4bd,2022-06-29_09h06.22.654,Colour_Asymmetry_Pilot,2022.1.3,Win32,60.04924038,62bbe60bf3d75ef465d3e404,,,,,,,,,,,,,,,,,,,,,,,,,,,,,,,,,,,,,,,,,,,,,,,,,,,,,,,,,,,,,,,,,,,,,,,,,,,,,,,,,,,,,,,,,,,,,,,,,,,,,,,,,,,,,,,,,,,,,,,,,,,,,,,,,,,,,,,,,,,,,,,,,,,,,,,,,,,,,,
0,74,74,17,1,,611424d6d8ab51566db0adc1,62bbf9b64068efa22e44d4bd,2022-06-29_09h06.22.654,Colour_Asymmetry_Pilot,2022.1.3,Win32,60.04924038,62bbe60bf3d75ef465d3e404,,,,,,,,,,,,,,,,,,,,,,,,,,,,,,,,,,,,,,,,,,,,,,,,,,,,,,,,,,,,,,,,,,,,,,,,,,,,,,,,,,,,,,,,,,,,,,,,,,,,,,,,,,,,,,,,,,,,,,,,,,,,,,,,,,,,,,,,,,,,,,,,,,,,,,,,,,,,,,
0,75,75,62,1,,611424d6d8ab51566db0adc1,62bbf9b64068efa22e44d4bd,2022-06-29_09h06.22.654,Colour_Asymmetry_Pilot,2022.1.3,Win32,60.04924038,62bbe60bf3d75ef465d3e404,,,,,,,,,,,,,,,,,,,,,,,,,,,,,,,,,,,,,,,,,,,,,,,,,,,,,,,,,,,,,,,,,,,,,,,,,,,,,,,,,,,,,,,,,,,,,,,,,,,,,,,,,,,,,,,,,,,,,,,,,,,,,,,,,,,,,,,,,,,,,,,,,,,,,,,,,,,,,,
0,76,76,80,1,,611424d6d8ab51566db0adc1,62bbf9b64068efa22e44d4bd,2022-06-29_09h06.22.654,Colour_Asymmetry_Pilot,2022.1.3,Win32,60.04924038,62bbe60bf3d75ef465d3e404,,,,,,,,,,,,,,,,,,,,,,,,,,,,,,,,,,,,,,,,,,,,,,,,,,,,,,,,,,,,,,,,,,,,,,,,,,,,,,,,,,,,,,,,,,,,,,,,,,,,,,,,,,,,,,,,,,,,,,,,,,,,,,,,,,,,,,,,,,,,,,,,,,,,,,,,,,,,,,
0,77,77,38,1,,611424d6d8ab51566db0adc1,62bbf9b64068efa22e44d4bd,2022-06-29_09h06.22.654,Colour_Asymmetry_Pilot,2022.1.3,Win32,60.04924038,62bbe60bf3d75ef465d3e404,,,,,,,,,,,,,,,,,,,,,,,,,,,,,,,,,,,,,,,,,,,,,,,,,,,,,,,,,,,,,,,,,,,,,,,,,,,,,,,,,,,,,,,,,,,,,,,,,,,,,,,,,,,,,,,,,,,,,,,,,,,,,,,,,,,,,,,,,,,,,,,,,,,,,,,,,,,,,,
0,78,78,76,1,,611424d6d8ab51566db0adc1,62bbf9b64068efa22e44d4bd,2022-06-29_09h06.22.654,Colour_Asymmetry_Pilot,2022.1.3,Win32,60.04924038,62bbe60bf3d75ef465d3e404,,,,,,,,,,,,,,,,,,,,,,,,,,,,,,,,,,,,,,,,,,,,,,,,,,,,,,,,,,,,,,,,,,,,,,,,,,,,,,,,,,,,,,,,,,,,,,,,,,,,,,,,,,,,,,,,,,,,,,,,,,,,,,,,,,,,,,,,,,,,,,,,,,,,,,,,,,,,,,
0,79,79,85,1,,611424d6d8ab51566db0adc1,62bbf9b64068efa22e44d4bd,2022-06-29_09h06.22.654,Colour_Asymmetry_Pilot,2022.1.3,Win32,60.04924038,62bbe60bf3d75ef465d3e404,,,,,,,,,,,,,,,,,,,,,,,,,,,,,,,,,,,,,,,,,,,,,,,,,,,,,,,,,,,,,,,,,,,,,,,,,,,,,,,,,,,,,,,,,,,,,,,,,,,,,,,,,,,,,,,,,,,,,,,,,,,,,,,,,,,,,,,,,,,,,,,,,,,,,,,,,,,,,,
0,80,80,16,1,,611424d6d8ab51566db0adc1,62bbf9b64068efa22e44d4bd,2022-06-29_09h06.22.654,Colour_Asymmetry_Pilot,2022.1.3,Win32,60.04924038,62bbe60bf3d75ef465d3e404,,,,,,,,,,,,,,,,,,,,,,,,,,,,,,,,,,,,,,,,,,,,,,,,,,,,,,,,,,,,,,,,,,,,,,,,,,,,,,,,,,,,,,,,,,,,,,,,,,,,,,,,,,,,,,,,,,,,,,,,,,,,,,,,,,,,,,,,,,,,,,,,,,,,,,,,,,,,,,
0,81,81,14,1,,611424d6d8ab51566db0adc1,62bbf9b64068efa22e44d4bd,2022-06-29_09h06.22.654,Colour_Asymmetry_Pilot,2022.1.3,Win32,60.04924038,62bbe60bf3d75ef465d3e404,,,,,,,,,,,,,,,,,,,,,,,,,,,,,,,,,,,,,,,,,,,,,,,,,,,,,,,,,,,,,,,,,,,,,,,,,,,,,,,,,,,,,,,,,,,,,,,,,,,,,,,,,,,,,,,,,,,,,,,,,,,,,,,,,,,,,,,,,,,,,,,,,,,,,,,,,,,,,,
0,82,82,52,1,,611424d6d8ab51566db0adc1,62bbf9b64068efa22e44d4bd,2022-06-29_09h06.22.654,Colour_Asymmetry_Pilot,2022.1.3,Win32,60.04924038,62bbe60bf3d75ef465d3e404,,,,,,,,,,,,,,,,,,,,,,,,,,,,,,,,,,,,,,,,,,,,,,,,,,,,,,,,,,,,,,,,,,,,,,,,,,,,,,,,,,,,,,,,,,,,,,,,,,,,,,,,,,,,,,,,,,,,,,,,,,,,,,,,,,,,,,,,,,,,,,,,,,,,,,,,,,,,,,
0,83,83,53,1,,611424d6d8ab51566db0adc1,62bbf9b64068efa22e44d4bd,2022-06-29_09h06.22.654,Colour_Asymmetry_Pilot,2022.1.3,Win32,60.04924038,62bbe60bf3d75ef465d3e404,,,,,,,,,,,,,,,,,,,,,,,,,,,,,,,,,,,,,,,,,,,,,,,,,,,,,,,,,,,,,,,,,,,,,,,,,,,,,,,,,,,,,,,,,,,,,,,,,,,,,,,,,,,,,,,,,,,,,,,,,,,,,,,,,,,,,,,,,,,,,,,,,,,,,,,,,,,,,,
0,84,84,51,1,,611424d6d8ab51566db0adc1,62bbf9b64068efa22e44d4bd,2022-06-29_09h06.22.654,Colour_Asymmetry_Pilot,2022.1.3,Win32,60.04924038,62bbe60bf3d75ef465d3e404,,,,,,,,,,,,,,,,,,,,,,,,,,,,,,,,,,,,,,,,,,,,,,,,,,,,,,,,,,,,,,,,,,,,,,,,,,,,,,,,,,,,,,,,,,,,,,,,,,,,,,,,,,,,,,,,,,,,,,,,,,,,,,,,,,,,,,,,,,,,,,,,,,,,,,,,,,,,,,
0,85,85,81,1,,611424d6d8ab51566db0adc1,62bbf9b64068efa22e44d4bd,2022-06-29_09h06.22.654,Colour_Asymmetry_Pilot,2022.1.3,Win32,60.04924038,62bbe60bf3d75ef465d3e404,,,,,,,,,,,,,,,,,,,,,,,,,,,,,,,,,,,,,,,,,,,,,,,,,,,,,,,,,,,,,,,,,,,,,,,,,,,,,,,,,,,,,,,,,,,,,,,,,,,,,,,,,,,,,,,,,,,,,,,,,,,,,,,,,,,,,,,,,,,,,,,,,,,,,,,,,,,,,,
0,86,86,44,1,,611424d6d8ab51566db0adc1,62bbf9b64068efa22e44d4bd,2022-06-29_09h06.22.654,Colour_Asymmetry_Pilot,2022.1.3,Win32,60.04924038,62bbe60bf3d75ef465d3e404,,,,,,,,,,,,,,,,,,,,,,,,,,,,,,,,,,,,,,,,,,,,,,,,,,,,,,,,,,,,,,,,,,,,,,,,,,,,,,,,,,,,,,,,,,,,,,,,,,,,,,,,,,,,,,,,,,,,,,,,,,,,,,,,,,,,,,,,,,,,,,,,,,,,,,,,,,,,,,
0,87,87,0,1,,611424d6d8ab51566db0adc1,62bbf9b64068efa22e44d4bd,2022-06-29_09h06.22.654,Colour_Asymmetry_Pilot,2022.1.3,Win32,60.04924038,62bbe60bf3d75ef465d3e404,,,,,,,,,,,,,,,,,,,,,,,,,,,,,,,,,,,,,,,,,,,,,,,,,,,,,,,,,,,,,,,,,,,,,,,,,,,,,,,,,,,,,,,,,,,,,,,,,,,,,,,,,,,,,,,,,,,,,,,,,,,,,,,,,,,,,,,,,,,,,,,,,,,,,,,,,,,,,,
0,88,88,20,1,,611424d6d8ab51566db0adc1,62bbf9b64068efa22e44d4bd,2022-06-29_09h06.22.654,Colour_Asymmetry_Pilot,2022.1.3,Win32,60.04924038,62bbe60bf3d75ef465d3e404,,,,,,,,,,,,,,,,,,,,,,,,,,,,,,,,,,,,,,,,,,,,,,,,,,,,,,,,,,,,,,,,,,,,,,,,,,,,,,,,,,,,,,,,,,,,,,,,,,,,,,,,,,,,,,,,,,,,,,,,,,,,,,,,,,,,,,,,,,,,,,,,,,,,,,,,,,,,,,
0,89,89,61,1,,611424d6d8ab51566db0adc1,62bbf9b64068efa22e44d4bd,2022-06-29_09h06.22.654,Colour_Asymmetry_Pilot,2022.1.3,Win32,60.04924038,62bbe60bf3d75ef465d3e404,,,,,,,,,,,,,,,,,,,,,,,,,,,,,,,,,,,,,,,,,,,,,,,,,,,,,,,,,,,,,,,,,,,,,,,,,,,,,,,,,,,,,,,,,,,,,,,,,,,,,,,,,,,,,,,,,,,,,,,,,,,,,,,,,,,,,,,,,,,,,,,,,,,,,,,,,,,,,,
0,90,90,68,1,,611424d6d8ab51566db0adc1,62bbf9b64068efa22e44d4bd,2022-06-29_09h06.22.654,Colour_Asymmetry_Pilot,2022.1.3,Win32,60.04924038,62bbe60bf3d75ef465d3e404,,,,,,,,,,,,,,,,,,,,,,,,,,,,,,,,,,,,,,,,,,,,,,,,,,,,,,,,,,,,,,,,,,,,,,,,,,,,,,,,,,,,,,,,,,,,,,,,,,,,,,,,,,,,,,,,,,,,,,,,,,,,,,,,,,,,,,,,,,,,,,,,,,,,,,,,,,,,,,
0,91,91,21,1,,611424d6d8ab51566db0adc1,62bbf9b64068efa22e44d4bd,2022-06-29_09h06.22.654,Colour_Asymmetry_Pilot,2022.1.3,Win32,60.04924038,62bbe60bf3d75ef465d3e404,,,,,,,,,,,,,,,,,,,,,,,,,,,,,,,,,,,,,,,,,,,,,,,,,,,,,,,,,,,,,,,,,,,,,,,,,,,,,,,,,,,,,,,,,,,,,,,,,,,,,,,,,,,,,,,,,,,,,,,,,,,,,,,,,,,,,,,,,,,,,,,,,,,,,,,,,,,,,,
0,92,92,77,1,,611424d6d8ab51566db0adc1,62bbf9b64068efa22e44d4bd,2022-06-29_09h06.22.654,Colour_Asymmetry_Pilot,2022.1.3,Win32,60.04924038,62bbe60bf3d75ef465d3e404,,,,,,,,,,,,,,,,,,,,,,,,,,,,,,,,,,,,,,,,,,,,,,,,,,,,,,,,,,,,,,,,,,,,,,,,,,,,,,,,,,,,,,,,,,,,,,,,,,,,,,,,,,,,,,,,,,,,,,,,,,,,,,,,,,,,,,,,,,,,,,,,,,,,,,,,,,,,,,
,,,,,,611424d6d8ab51566db0adc1,62bbf9b64068efa22e44d4bd,2022-06-29_09h06.22.654,Colour_Asymmetry_Pilot,2022.1.3,Win32,60.04924038,62bbe60bf3d75ef465d3e404,0,0,0,63,1,fourthree,,,,,,,,,,,,,,,,,,,,,,,,,,,,,,,,,,,,,,,,,,,,,,,,,,,,,,,,,,,,,,,,,,,,,,,,,,,,,,,,,,,,,,,,,,,,,,,,,,,,,,,,,,,,,,,,,,,,,,,,,,,,,,,,,,,,,,,,,,,,,,,,,,,,,,,,
,,,,,,611424d6d8ab51566db0adc1,62bbf9b64068efa22e44d4bd,2022-06-29_09h06.22.654,Colour_Asymmetry_Pilot,2022.1.3,Win32,60.04924038,62bbe60bf3d75ef465d3e404,0,1,1,114,1,twoone,,,,,,,,,,,,,,,,,,,,,,,,,,,,,,,,,,,,,,,,,,,,,,,,,,,,,,,,,,,,,,,,,,,,,,,,,,,,,,,,,,,,,,,,,,,,,,,,,,,,,,,,,,,,,,,,,,,,,,,,,,,,,,,,,,,,,,,,,,,,,,,,,,,,,,,,
,,,,,,611424d6d8ab51566db0adc1,62bbf9b64068efa22e44d4bd,2022-06-29_09h06.22.654,Colour_Asymmetry_Pilot,2022.1.3,Win32,60.04924038,62bbe60bf3d75ef465d3e404,0,2,2,109,1,threefour,,,,,,,,,,,,,,,,,,,,,,,,,,,,,,,,,,,,,,,,,,,,,,,,,,,,,,,,,,,,,,,,,,,,,,,,,,,,,,,,,,,,,,,,,,,,,,,,,,,,,,,,,,,,,,,,,,,,,,,,,,,,,,,,,,,,,,,,,,,,,,,,,,,,,,,,
,,,,,,611424d6d8ab51566db0adc1,62bbf9b64068efa22e44d4bd,2022-06-29_09h06.22.654,Colour_Asymmetry_Pilot,2022.1.3,Win32,60.04924038,62bbe60bf3d75ef465d3e404,0,3,3,27,1,twofour,,,,,,,,,,,,,,,,,,,,,,,,,,,,,,,,,,,,,,,,,,,,,,,,,,,,,,,,,,,,,,,,,,,,,,,,,,,,,,,,,,,,,,,,,,,,,,,,,,,,,,,,,,,,,,,,,,,,,,,,,,,,,,,,,,,,,,,,,,,,,,,,,,,,,,,,
,,,,,,611424d6d8ab51566db0adc1,62bbf9b64068efa22e44d4bd,2022-06-29_09h06.22.654,Colour_Asymmetry_Pilot,2022.1.3,Win32,60.04924038,62bbe60bf3d75ef465d3e404,0,4,4,118,1,fourtwo,,,,,,,,,,,,,,,,,,,,,,,,,,,,,,,,,,,,,,,,,,,,,,,,,,,,,,,,,,,,,,,,,,,,,,,,,,,,,,,,,,,,,,,,,,,,,,,,,,,,,,,,,,,,,,,,,,,,,,,,,,,,,,,,,,,,,,,,,,,,,,,,,,,,,,,,
,,,,,,611424d6d8ab51566db0adc1,62bbf9b64068efa22e44d4bd,2022-06-29_09h06.22.654,Colour_Asymmetry_Pilot,2022.1.3,Win32,60.04924038,62bbe60bf3d75ef465d3e404,0,5,5,65,1,onethree,,,,,,,,,,,,,,,,,,,,,,,,,,,,,,,,,,,,,,,,,,,,,,,,,,,,,,,,,,,,,,,,,,,,,,,,,,,,,,,,,,,,,,,,,,,,,,,,,,,,,,,,,,,,,,,,,,,,,,,,,,,,,,,,,,,,,,,,,,,,,,,,,,,,,,,,
,,,,,,611424d6d8ab51566db0adc1,62bbf9b64068efa22e44d4bd,2022-06-29_09h06.22.654,Colour_Asymmetry_Pilot,2022.1.3,Win32,60.04924038,62bbe60bf3d75ef465d3e404,0,6,6,0,1,onetwo,,,,,,,,,,,,,,,,,,,,,,,,,,,,,,,,,,,,,,,,,,,,,,,,,,,,,,,,,,,,,,,,,,,,,,,,,,,,,,,,,,,,,,,,,,,,,,,,,,,,,,,,,,,,,,,,,,,,,,,,,,,,,,,,,,,,,,,,,,,,,,,,,,,,,,,,
,,,,,,611424d6d8ab51566db0adc1,62bbf9b64068efa22e44d4bd,2022-06-29_09h06.22.654,Colour_Asymmetry_Pilot,2022.1.3,Win32,60.04924038,62bbe60bf3d75ef465d3e404,0,7,7,140,1,threeone,,,,,,,,,,,,,,,,,,,,,,,,,,,,,,,,,,,,,,,,,,,,,,,,,,,,,,,,,,,,,,,,,,,,,,,,,,,,,,,,,,,,,,,,,,,,,,,,,,,,,,,,,,,,,,,,,,,,,,,,,,,,,,,,,,,,,,,,,,,,,,,,,,,,,,,,
,,,,,,611424d6d8ab51566db0adc1,62bbf9b64068efa22e44d4bd,2022-06-29_09h06.22.654,Colour_Asymmetry_Pilot,2022.1.3,Win32,60.04924038,62bbe60bf3d75ef465d3e404,0,8,8,135,1,fourthree,,,,,,,,,,,,,,,,,,,,,,,,,,,,,,,,,,,,,,,,,,,,,,,,,,,,,,,,,,,,,,,,,,,,,,,,,,,,,,,,,,,,,,,,,,,,,,,,,,,,,,,,,,,,,,,,,,,,,,,,,,,,,,,,,,,,,,,,,,,,,,,,,,,,,,,,
,,,,,,611424d6d8ab51566db0adc1,62bbf9b64068efa22e44d4bd,2022-06-29_09h06.22.654,Colour_Asymmetry_Pilot,2022.1.3,Win32,60.04924038,62bbe60bf3d75ef465d3e404,0,9,9,107,1,twofour,,,,,,,,,,,,,,,,,,,,,,,,,,,,,,,,,,,,,,,,,,,,,,,,,,,,,,,,,,,,,,,,,,,,,,,,,,,,,,,,,,,,,,,,,,,,,,,,,,,,,,,,,,,,,,,,,,,,,,,,,,,,,,,,,,,,,,,,,,,,,,,,,,,,,,,,
,,,,,,611424d6d8ab51566db0adc1,62bbf9b64068efa22e44d4bd,2022-06-29_09h06.22.654,Colour_Asymmetry_Pilot,2022.1.3,Win32,60.04924038,62bbe60bf3d75ef465d3e404,0,10,10,50,1,twoone,,,,,,,,,,,,,,,,,,,,,,,,,,,,,,,,,,,,,,,,,,,,,,,,,,,,,,,,,,,,,,,,,,,,,,,,,,,,,,,,,,,,,,,,,,,,,,,,,,,,,,,,,,,,,,,,,,,,,,,,,,,,,,,,,,,,,,,,,,,,,,,,,,,,,,,,
,,,,,,611424d6d8ab51566db0adc1,62bbf9b64068efa22e44d4bd,2022-06-29_09h06.22.654,Colour_Asymmetry_Pilot,2022.1.3,Win32,60.04924038,62bbe60bf3d75ef465d3e404,0,11,11,11,1,twofour,,,,,,,,,,,,,,,,,,,,,,,,,,,,,,,,,,,,,,,,,,,,,,,,,,,,,,,,,,,,,,,,,,,,,,,,,,,,,,,,,,,,,,,,,,,,,,,,,,,,,,,,,,,,,,,,,,,,,,,,,,,,,,,,,,,,,,,,,,,,,,,,,,,,,,,,
,,,,,,611424d6d8ab51566db0adc1,62bbf9b64068efa22e44d4bd,2022-06-29_09h06.22.654,Colour_Asymmetry_Pilot,2022.1.3,Win32,60.04924038,62bbe60bf3d75ef465d3e404,0,12,12,124,1,threeone,,,,,,,,,,,,,,,,,,,,,,,,,,,,,,,,,,,,,,,,,,,,,,,,,,,,,,,,,,,,,,,,,,,,,,,,,,,,,,,,,,,,,,,,,,,,,,,,,,,,,,,,,,,,,,,,,,,,,,,,,,,,,,,,,,,,,,,,,,,,,,,,,,,,,,,,
,,,,,,611424d6d8ab51566db0adc1,62bbf9b64068efa22e44d4bd,2022-06-29_09h06.22.654,Colour_Asymmetry_Pilot,2022.1.3,Win32,60.04924038,62bbe60bf3d75ef465d3e404,0,13,13,85,1,threefour,,,,,,,,,,,,,,,,,,,,,,,,,,,,,,,,,,,,,,,,,,,,,,,,,,,,,,,,,,,,,,,,,,,,,,,,,,,,,,,,,,,,,,,,,,,,,,,,,,,,,,,,,,,,,,,,,,,,,,,,,,,,,,,,,,,,,,,,,,,,,,,,,,,,,,,,
,,,,,,611424d6d8ab51566db0adc1,62bbf9b64068efa22e44d4bd,2022-06-29_09h06.22.654,Colour_Asymmetry_Pilot,2022.1.3,Win32,60.04924038,62bbe60bf3d75ef465d3e404,0,14,14,66,1,twoone,,,,,,,,,,,,,,,,,,,,,,,,,,,,,,,,,,,,,,,,,,,,,,,,,,,,,,,,,,,,,,,,,,,,,,,,,,,,,,,,,,,,,,,,,,,,,,,,,,,,,,,,,,,,,,,,,,,,,,,,,,,,,,,,,,,,,,,,,,,,,,,,,,,,,,,,
,,,,,,611424d6d8ab51566db0adc1,62bbf9b64068efa22e44d4bd,2022-06-29_09h06.22.654,Colour_Asymmetry_Pilot,2022.1.3,Win32,60.04924038,62bbe60bf3d75ef465d3e404,0,15,15,117,1,threefour,,,,,,,,,,,,,,,,,,,,,,,,,,,,,,,,,,,,,,,,,,,,,,,,,,,,,,,,,,,,,,,,,,,,,,,,,,,,,,,,,,,,,,,,,,,,,,,,,,,,,,,,,,,,,,,,,,,,,,,,,,,,,,,,,,,,,,,,,,,,,,,,,,,,,,,,
,,,,,,611424d6d8ab51566db0adc1,62bbf9b64068efa22e44d4bd,2022-06-29_09h06.22.654,Colour_Asymmetry_Pilot,2022.1.3,Win32,60.04924038,62bbe60bf3d75ef465d3e404,0,16,16,91,1,twofour,,,,,,,,,,,,,,,,,,,,,,,,,,,,,,,,,,,,,,,,,,,,,,,,,,,,,,,,,,,,,,,,,,,,,,,,,,,,,,,,,,,,,,,,,,,,,,,,,,,,,,,,,,,,,,,,,,,,,,,,,,,,,,,,,,,,,,,,,,,,,,,,,,,,,,,,
,,,,,,611424d6d8ab51566db0adc1,62bbf9b64068efa22e44d4bd,2022-06-29_09h06.22.654,Colour_Asymmetry_Pilot,2022.1.3,Win32,60.04924038,62bbe60bf3d75ef465d3e404,0,17,17,79,1,fourthree,,,,,,,,,,,,,,,,,,,,,,,,,,,,,,,,,,,,,,,,,,,,,,,,,,,,,,,,,,,,,,,,,,,,,,,,,,,,,,,,,,,,,,,,,,,,,,,,,,,,,,,,,,,,,,,,,,,,,,,,,,,,,,,,,,,,,,,,,,,,,,,,,,,,,,,,
,,,,,,611424d6d8ab51566db0adc1,62bbf9b64068efa22e44d4bd,2022-06-29_09h06.22.654,Colour_Asymmetry_Pilot,2022.1.3,Win32,60.04924038,62bbe60bf3d75ef465d3e404,0,18,18,144,1,onetwo,,,,,,,,,,,,,,,,,,,,,,,,,,,,,,,,,,,,,,,,,,,,,,,,,,,,,,,,,,,,,,,,,,,,,,,,,,,,,,,,,,,,,,,,,,,,,,,,,,,,,,,,,,,,,,,,,,,,,,,,,,,,,,,,,,,,,,,,,,,,,,,,,,,,,,,,
,,,,,,611424d6d8ab51566db0adc1,62bbf9b64068efa22e44d4bd,2022-06-29_09h06.22.654,Colour_Asymmetry_Pilot,2022.1.3,Win32,60.04924038,62bbe60bf3d75ef465d3e404,0,19,19,86,1,fourtwo,,,,,,,,,,,,,,,,,,,,,,,,,,,,,,,,,,,,,,,,,,,,,,,,,,,,,,,,,,,,,,,,,,,,,,,,,,,,,,,,,,,,,,,,,,,,,,,,,,,,,,,,,,,,,,,,,,,,,,,,,,,,,,,,,,,,,,,,,,,,,,,,,,,,,,,,
,,,,,,611424d6d8ab51566db0adc1,62bbf9b64068efa22e44d4bd,2022-06-29_09h06.22.654,Colour_Asymmetry_Pilot,2022.1.3,Win32,60.04924038,62bbe60bf3d75ef465d3e404,0,20,20,48,1,onetwo,,,,,,,,,,,,,,,,,,,,,,,,,,,,,,,,,,,,,,,,,,,,,,,,,,,,,,,,,,,,,,,,,,,,,,,,,,,,,,,,,,,,,,,,,,,,,,,,,,,,,,,,,,,,,,,,,,,,,,,,,,,,,,,,,,,,,,,,,,,,,,,,,,,,,,,,
,,,,,,611424d6d8ab51566db0adc1,62bbf9b64068efa22e44d4bd,2022-06-29_09h06.22.654,Colour_Asymmetry_Pilot,2022.1.3,Win32,60.04924038,62bbe60bf3d75ef465d3e404,0,21,21,22,1,fourtwo,,,,,,,,,,,,,,,,,,,,,,,,,,,,,,,,,,,,,,,,,,,,,,,,,,,,,,,,,,,,,,,,,,,,,,,,,,,,,,,,,,,,,,,,,,,,,,,,,,,,,,,,,,,,,,,,,,,,,,,,,,,,,,,,,,,,,,,,,,,,,,,,,,,,,,,,
,,,,,,611424d6d8ab51566db0adc1,62bbf9b64068efa22e44d4bd,2022-06-29_09h06.22.654,Colour_Asymmetry_Pilot,2022.1.3,Win32,60.04924038,62bbe60bf3d75ef465d3e404,0,22,22,38,1,fourtwo,,,,,,,,,,,,,,,,,,,,,,,,,,,,,,,,,,,,,,,,,,,,,,,,,,,,,,,,,,,,,,,,,,,,,,,,,,,,,,,,,,,,,,,,,,,,,,,,,,,,,,,,,,,,,,,,,,,,,,,,,,,,,,,,,,,,,,,,,,,,,,,,,,,,,,,,
,,,,,,611424d6d8ab51566db0adc1,62bbf9b64068efa22e44d4bd,2022-06-29_09h06.22.654,Colour_Asymmetry_Pilot,2022.1.3,Win32,60.04924038,62bbe60bf3d75ef465d3e404,0,23,23,42,1,twoone,,,,,,,,,,,,,,,,,,,,,,,,,,,,,,,,,,,,,,,,,,,,,,,,,,,,,,,,,,,,,,,,,,,,,,,,,,,,,,,,,,,,,,,,,,,,,,,,,,,,,,,,,,,,,,,,,,,,,,,,,,,,,,,,,,,,,,,,,,,,,,,,,,,,,,,,
,,,,,,611424d6d8ab51566db0adc1,62bbf9b64068efa22e44d4bd,2022-06-29_09h06.22.654,Colour_Asymmetry_Pilot,2022.1.3,Win32,60.04924038,62bbe60bf3d75ef465d3e404,0,24,24,13,1,threefour,,,,,,,,,,,,,,,,,,,,,,,,,,,,,,,,,,,,,,,,,,,,,,,,,,,,,,,,,,,,,,,,,,,,,,,,,,,,,,,,,,,,,,,,,,,,,,,,,,,,,,,,,,,,,,,,,,,,,,,,,,,,,,,,,,,,,,,,,,,,,,,,,,,,,,,,
,,,,,,611424d6d8ab51566db0adc1,62bbf9b64068efa22e44d4bd,2022-06-29_09h06.22.654,Colour_Asymmetry_Pilot,2022.1.3,Win32,60.04924038,62bbe60bf3d75ef465d3e404,0,25,25,5,1,threefour,,,,,,,,,,,,,,,,,,,,,,,,,,,,,,,,,,,,,,,,,,,,,,,,,,,,,,,,,,,,,,,,,,,,,,,,,,,,,,,,,,,,,,,,,,,,,,,,,,,,,,,,,,,,,,,,,,,,,,,,,,,,,,,,,,,,,,,,,,,,,,,,,,,,,,,,
,,,,,,611424d6d8ab51566db0adc1,62bbf9b64068efa22e44d4bd,2022-06-29_09h06.22.654,Colour_Asymmetry_Pilot,2022.1.3,Win32,60.04924038,62bbe60bf3d75ef465d3e404,0,26,26,113,1,onethree,,,,,,,,,,,,,,,,,,,,,,,,,,,,,,,,,,,,,,,,,,,,,,,,,,,,,,,,,,,,,,,,,,,,,,,,,,,,,,,,,,,,,,,,,,,,,,,,,,,,,,,,,,,,,,,,,,,,,,,,,,,,,,,,,,,,,,,,,,,,,,,,,,,,,,,,
,,,,,,611424d6d8ab51566db0adc1,62bbf9b64068efa22e44d4bd,2022-06-29_09h06.22.654,Colour_Asymmetry_Pilot,2022.1.3,Win32,60.04924038,62bbe60bf3d75ef465d3e404,0,27,27,1,1,onethree,,,,,,,,,,,,,,,,,,,,,,,,,,,,,,,,,,,,,,,,,,,,,,,,,,,,,,,,,,,,,,,,,,,,,,,,,,,,,,,,,,,,,,,,,,,,,,,,,,,,,,,,,,,,,,,,,,,,,,,,,,,,,,,,,,,,,,,,,,,,,,,,,,,,,,,,
,,,,,,611424d6d8ab51566db0adc1,62bbf9b64068efa22e44d4bd,2022-06-29_09h06.22.654,Colour_Asymmetry_Pilot,2022.1.3,Win32,60.04924038,62bbe60bf3d75ef465d3e404,0,28,28,77,1,threefour,,,,,,,,,,,,,,,,,,,,,,,,,,,,,,,,,,,,,,,,,,,,,,,,,,,,,,,,,,,,,,,,,,,,,,,,,,,,,,,,,,,,,,,,,,,,,,,,,,,,,,,,,,,,,,,,,,,,,,,,,,,,,,,,,,,,,,,,,,,,,,,,,,,,,,,,
,,,,,,611424d6d8ab51566db0adc1,62bbf9b64068efa22e44d4bd,2022-06-29_09h06.22.654,Colour_Asymmetry_Pilot,2022.1.3,Win32,60.04924038,62bbe60bf3d75ef465d3e404,0,29,29,80,1,onetwo,,,,,,,,,,,,,,,,,,,,,,,,,,,,,,,,,,,,,,,,,,,,,,,,,,,,,,,,,,,,,,,,,,,,,,,,,,,,,,,,,,,,,,,,,,,,,,,,,,,,,,,,,,,,,,,,,,,,,,,,,,,,,,,,,,,,,,,,,,,,,,,,,,,,,,,,
,,,,,,611424d6d8ab51566db0adc1,62bbf9b64068efa22e44d4bd,2022-06-29_09h06.22.654,Colour_Asymmetry_Pilot,2022.1.3,Win32,60.04924038,62bbe60bf3d75ef465d3e404,0,30,30,26,1,twoone,,,,,,,,,,,,,,,,,,,,,,,,,,,,,,,,,,,,,,,,,,,,,,,,,,,,,,,,,,,,,,,,,,,,,,,,,,,,,,,,,,,,,,,,,,,,,,,,,,,,,,,,,,,,,,,,,,,,,,,,,,,,,,,,,,,,,,,,,,,,,,,,,,,,,,,,
,,,,,,611424d6d8ab51566db0adc1,62bbf9b64068efa22e44d4bd,2022-06-29_09h06.22.654,Colour_Asymmetry_Pilot,2022.1.3,Win32,60.04924038,62bbe60bf3d75ef465d3e404,0,31,31,28,1,threeone,,,,,,,,,,,,,,,,,,,,,,,,,,,,,,,,,,,,,,,,,,,,,,,,,,,,,,,,,,,,,,,,,,,,,,,,,,,,,,,,,,,,,,,,,,,,,,,,,,,,,,,,,,,,,,,,,,,,,,,,,,,,,,,,,,,,,,,,,,,,,,,,,,,,,,,,
,,,,,,611424d6d8ab51566db0adc1,62bbf9b64068efa22e44d4bd,2022-06-29_09h06.22.654,Colour_Asymmetry_Pilot,2022.1.3,Win32,60.04924038,62bbe60bf3d75ef465d3e404,0,32,32,146,1,twoone,,,,,,,,,,,,,,,,,,,,,,,,,,,,,,,,,,,,,,,,,,,,,,,,,,,,,,,,,,,,,,,,,,,,,,,,,,,,,,,,,,,,,,,,,,,,,,,,,,,,,,,,,,,,,,,,,,,,,,,,,,,,,,,,,,,,,,,,,,,,,,,,,,,,,,,,
,,,,,,611424d6d8ab51566db0adc1,62bbf9b64068efa22e44d4bd,2022-06-29_09h06.22.654,Colour_Asymmetry_Pilot,2022.1.3,Win32,60.04924038,62bbe60bf3d75ef465d3e404,0,33,33,60,1,threeone,,,,,,,,,,,,,,,,,,,,,,,,,,,,,,,,,,,,,,,,,,,,,,,,,,,,,,,,,,,,,,,,,,,,,,,,,,,,,,,,,,,,,,,,,,,,,,,,,,,,,,,,,,,,,,,,,,,,,,,,,,,,,,,,,,,,,,,,,,,,,,,,,,,,,,,,
,,,,,,611424d6d8ab51566db0adc1,62bbf9b64068efa22e44d4bd,2022-06-29_09h06.22.654,Colour_Asymmetry_Pilot,2022.1.3,Win32,60.04924038,62bbe60bf3d75ef465d3e404,0,34,34,45,1,threefour,,,,,,,,,,,,,,,,,,,,,,,,,,,,,,,,,,,,,,,,,,,,,,,,,,,,,,,,,,,,,,,,,,,,,,,,,,,,,,,,,,,,,,,,,,,,,,,,,,,,,,,,,,,,,,,,,,,,,,,,,,,,,,,,,,,,,,,,,,,,,,,,,,,,,,,,
,,,,,,611424d6d8ab51566db0adc1,62bbf9b64068efa22e44d4bd,2022-06-29_09h06.22.654,Colour_Asymmetry_Pilot,2022.1.3,Win32,60.04924038,62bbe60bf3d75ef465d3e404,0,35,35,37,1,threefour,,,,,,,,,,,,,,,,,,,,,,,,,,,,,,,,,,,,,,,,,,,,,,,,,,,,,,,,,,,,,,,,,,,,,,,,,,,,,,,,,,,,,,,,,,,,,,,,,,,,,,,,,,,,,,,,,,,,,,,,,,,,,,,,,,,,,,,,,,,,,,,,,,,,,,,,
,,,,,,611424d6d8ab51566db0adc1,62bbf9b64068efa22e44d4bd,2022-06-29_09h06.22.654,Colour_Asymmetry_Pilot,2022.1.3,Win32,60.04924038,62bbe60bf3d75ef465d3e404,0,36,36,72,1,onetwo,,,,,,,,,,,,,,,,,,,,,,,,,,,,,,,,,,,,,,,,,,,,,,,,,,,,,,,,,,,,,,,,,,,,,,,,,,,,,,,,,,,,,,,,,,,,,,,,,,,,,,,,,,,,,,,,,,,,,,,,,,,,,,,,,,,,,,,,,,,,,,,,,,,,,,,,
,,,,,,611424d6d8ab51566db0adc1,62bbf9b64068efa22e44d4bd,2022-06-29_09h06.22.654,Colour_Asymmetry_Pilot,2022.1.3,Win32,60.04924038,62bbe60bf3d75ef465d3e404,0,37,37,56,1,onetwo,,,,,,,,,,,,,,,,,,,,,,,,,,,,,,,,,,,,,,,,,,,,,,,,,,,,,,,,,,,,,,,,,,,,,,,,,,,,,,,,,,,,,,,,,,,,,,,,,,,,,,,,,,,,,,,,,,,,,,,,,,,,,,,,,,,,,,,,,,,,,,,,,,,,,,,,
,,,,,,611424d6d8ab51566db0adc1,62bbf9b64068efa22e44d4bd,2022-06-29_09h06.22.654,Colour_Asymmetry_Pilot,2022.1.3,Win32,60.04924038,62bbe60bf3d75ef465d3e404,0,38,38,24,1,onetwo,,,,,,,,,,,,,,,,,,,,,,,,,,,,,,,,,,,,,,,,,,,,,,,,,,,,,,,,,,,,,,,,,,,,,,,,,,,,,,,,,,,,,,,,,,,,,,,,,,,,,,,,,,,,,,,,,,,,,,,,,,,,,,,,,,,,,,,,,,,,,,,,,,,,,,,,
,,,,,,611424d6d8ab51566db0adc1,62bbf9b64068efa22e44d4bd,2022-06-29_09h06.22.654,Colour_Asymmetry_Pilot,2022.1.3,Win32,60.04924038,62bbe60bf3d75ef465d3e404,0,39,39,158,1,fourtwo,,,,,,,,,,,,,,,,,,,,,,,,,,,,,,,,,,,,,,,,,,,,,,,,,,,,,,,,,,,,,,,,,,,,,,,,,,,,,,,,,,,,,,,,,,,,,,,,,,,,,,,,,,,,,,,,,,,,,,,,,,,,,,,,,,,,,,,,,,,,,,,,,,,,,,,,
,,,,,,611424d6d8ab51566db0adc1,62bbf9b64068efa22e44d4bd,2022-06-29_09h06.22.654,Colour_Asymmetry_Pilot,2022.1.3,Win32,60.04924038,62bbe60bf3d75ef465d3e404,0,40,40,59,1,twofour,,,,,,,,,,,,,,,,,,,,,,,,,,,,,,,,,,,,,,,,,,,,,,,,,,,,,,,,,,,,,,,,,,,,,,,,,,,,,,,,,,,,,,,,,,,,,,,,,,,,,,,,,,,,,,,,,,,,,,,,,,,,,,,,,,,,,,,,,,,,,,,,,,,,,,,,
,,,,,,611424d6d8ab51566db0adc1,62bbf9b64068efa22e44d4bd,2022-06-29_09h06.22.654,Colour_Asymmetry_Pilot,2022.1.3,Win32,60.04924038,62bbe60bf3d75ef465d3e404,0,41,41,10,1,twoone,,,,,,,,,,,,,,,,,,,,,,,,,,,,,,,,,,,,,,,,,,,,,,,,,,,,,,,,,,,,,,,,,,,,,,,,,,,,,,,,,,,,,,,,,,,,,,,,,,,,,,,,,,,,,,,,,,,,,,,,,,,,,,,,,,,,,,,,,,,,,,,,,,,,,,,,
,,,,,,611424d6d8ab51566db0adc1,62bbf9b64068efa22e44d4bd,2022-06-29_09h06.22.654,Colour_Asymmetry_Pilot,2022.1.3,Win32,60.04924038,62bbe60bf3d75ef465d3e404,0,42,42,130,1,twoone,,,,,,,,,,,,,,,,,,,,,,,,,,,,,,,,,,,,,,,,,,,,,,,,,,,,,,,,,,,,,,,,,,,,,,,,,,,,,,,,,,,,,,,,,,,,,,,,,,,,,,,,,,,,,,,,,,,,,,,,,,,,,,,,,,,,,,,,,,,,,,,,,,,,,,,,
,,,,,,611424d6d8ab51566db0adc1,62bbf9b64068efa22e44d4bd,2022-06-29_09h06.22.654,Colour_Asymmetry_Pilot,2022.1.3,Win32,60.04924038,62bbe60bf3d75ef465d3e404,0,43,43,6,1,fourtwo,,,,,,,,,,,,,,,,,,,,,,,,,,,,,,,,,,,,,,,,,,,,,,,,,,,,,,,,,,,,,,,,,,,,,,,,,,,,,,,,,,,,,,,,,,,,,,,,,,,,,,,,,,,,,,,,,,,,,,,,,,,,,,,,,,,,,,,,,,,,,,,,,,,,,,,,
,,,,,,611424d6d8ab51566db0adc1,62bbf9b64068efa22e44d4bd,2022-06-29_09h06.22.654,Colour_Asymmetry_Pilot,2022.1.3,Win32,60.04924038,62bbe60bf3d75ef465d3e404,0,44,44,62,1,fourtwo,,,,,,,,,,,,,,,,,,,,,,,,,,,,,,,,,,,,,,,,,,,,,,,,,,,,,,,,,,,,,,,,,,,,,,,,,,,,,,,,,,,,,,,,,,,,,,,,,,,,,,,,,,,,,,,,,,,,,,,,,,,,,,,,,,,,,,,,,,,,,,,,,,,,,,,,
,,,,,,611424d6d8ab51566db0adc1,62bbf9b64068efa22e44d4bd,2022-06-29_09h06.22.654,Colour_Asymmetry_Pilot,2022.1.3,Win32,60.04924038,62bbe60bf3d75ef465d3e404,0,45,45,125,1,threefour,,,,,,,,,,,,,,,,,,,,,,,,,,,,,,,,,,,,,,,,,,,,,,,,,,,,,,,,,,,,,,,,,,,,,,,,,,,,,,,,,,,,,,,,,,,,,,,,,,,,,,,,,,,,,,,,,,,,,,,,,,,,,,,,,,,,,,,,,,,,,,,,,,,,,,,,
,,,,,,611424d6d8ab51566db0adc1,62bbf9b64068efa22e44d4bd,2022-06-29_09h06.22.654,Colour_Asymmetry_Pilot,2022.1.3,Win32,60.04924038,62bbe60bf3d75ef465d3e404,0,46,46,97,1,onethree,,,,,,,,,,,,,,,,,,,,,,,,,,,,,,,,,,,,,,,,,,,,,,,,,,,,,,,,,,,,,,,,,,,,,,,,,,,,,,,,,,,,,,,,,,,,,,,,,,,,,,,,,,,,,,,,,,,,,,,,,,,,,,,,,,,,,,,,,,,,,,,,,,,,,,,,
,,,,,,611424d6d8ab51566db0adc1,62bbf9b64068efa22e44d4bd,2022-06-29_09h06.22.654,Colour_Asymmetry_Pilot,2022.1.3,Win32,60.04924038,62bbe60bf3d75ef465d3e404,0,47,47,57,1,onethree,,,,,,,,,,,,,,,,,,,,,,,,,,,,,,,,,,,,,,,,,,,,,,,,,,,,,,,,,,,,,,,,,,,,,,,,,,,,,,,,,,,,,,,,,,,,,,,,,,,,,,,,,,,,,,,,,,,,,,,,,,,,,,,,,,,,,,,,,,,,,,,,,,,,,,,,
,,,,,,611424d6d8ab51566db0adc1,62bbf9b64068efa22e44d4bd,2022-06-29_09h06.22.654,Colour_Asymmetry_Pilot,2022.1.3,Win32,60.04924038,62bbe60bf3d75ef465d3e404,0,48,48,7,1,fourthree,,,,,,,,,,,,,,,,,,,,,,,,,,,,,,,,,,,,,,,,,,,,,,,,,,,,,,,,,,,,,,,,,,,,,,,,,,,,,,,,,,,,,,,,,,,,,,,,,,,,,,,,,,,,,,,,,,,,,,,,,,,,,,,,,,,,,,,,,,,,,,,,,,,,,,,,
,,,,,,611424d6d8ab51566db0adc1,62bbf9b64068efa22e44d4bd,2022-06-29_09h06.22.654,Colour_Asymmetry_Pilot,2022.1.3,Win32,60.04924038,62bbe60bf3d75ef465d3e404,0,49,49,139,1,twofour,,,,,,,,,,,,,,,,,,,,,,,,,,,,,,,,,,,,,,,,,,,,,,,,,,,,,,,,,,,,,,,,,,,,,,,,,,,,,,,,,,,,,,,,,,,,,,,,,,,,,,,,,,,,,,,,,,,,,,,,,,,,,,,,,,,,,,,,,,,,,,,,,,,,,,,,
,,,,,,611424d6d8ab51566db0adc1,62bbf9b64068efa22e44d4bd,2022-06-29_09h06.22.654,Colour_Asymmetry_Pilot,2022.1.3,Win32,60.04924038,62bbe60bf3d75ef465d3e404,0,50,50,29,1,threefour,,,,,,,,,,,,,,,,,,,,,,,,,,,,,,,,,,,,,,,,,,,,,,,,,,,,,,,,,,,,,,,,,,,,,,,,,,,,,,,,,,,,,,,,,,,,,,,,,,,,,,,,,,,,,,,,,,,,,,,,,,,,,,,,,,,,,,,,,,,,,,,,,,,,,,,,
,,,,,,611424d6d8ab51566db0adc1,62bbf9b64068efa22e44d4bd,2022-06-29_09h06.22.654,Colour_Asymmetry_Pilot,2022.1.3,Win32,60.04924038,62bbe60bf3d75ef465d3e404,0,51,51,3,1,twofour,,,,,,,,,,,,,,,,,,,,,,,,,,,,,,,,,,,,,,,,,,,,,,,,,,,,,,,,,,,,,,,,,,,,,,,,,,,,,,,,,,,,,,,,,,,,,,,,,,,,,,,,,,,,,,,,,,,,,,,,,,,,,,,,,,,,,,,,,,,,,,,,,,,,,,,,
,,,,,,611424d6d8ab51566db0adc1,62bbf9b64068efa22e44d4bd,2022-06-29_09h06.22.654,Colour_Asymmetry_Pilot,2022.1.3,Win32,60.04924038,62bbe60bf3d75ef465d3e404,0,52,52,103,1,fourthree,,,,,,,,,,,,,,,,,,,,,,,,,,,,,,,,,,,,,,,,,,,,,,,,,,,,,,,,,,,,,,,,,,,,,,,,,,,,,,,,,,,,,,,,,,,,,,,,,,,,,,,,,,,,,,,,,,,,,,,,,,,,,,,,,,,,,,,,,,,,,,,,,,,,,,,,
,,,,,,611424d6d8ab51566db0adc1,62bbf9b64068efa22e44d4bd,2022-06-29_09h06.22.654,Colour_Asymmetry_Pilot,2022.1.3,Win32,60.04924038,62bbe60bf3d75ef465d3e404,0,53,53,55,1,fourthree,,,,,,,,,,,,,,,,,,,,,,,,,,,,,,,,,,,,,,,,,,,,,,,,,,,,,,,,,,,,,,,,,,,,,,,,,,,,,,,,,,,,,,,,,,,,,,,,,,,,,,,,,,,,,,,,,,,,,,,,,,,,,,,,,,,,,,,,,,,,,,,,,,,,,,,,
,,,,,,611424d6d8ab51566db0adc1,62bbf9b64068efa22e44d4bd,2022-06-29_09h06.22.654,Colour_Asymmetry_Pilot,2022.1.3,Win32,60.04924038,62bbe60bf3d75ef465d3e404,0,54,54,112,1,onetwo,,,,,,,,,,,,,,,,,,,,,,,,,,,,,,,,,,,,,,,,,,,,,,,,,,,,,,,,,,,,,,,,,,,,,,,,,,,,,,,,,,,,,,,,,,,,,,,,,,,,,,,,,,,,,,,,,,,,,,,,,,,,,,,,,,,,,,,,,,,,,,,,,,,,,,,,
,,,,,,611424d6d8ab51566db0adc1,62bbf9b64068efa22e44d4bd,2022-06-29_09h06.22.654,Colour_Asymmetry_Pilot,2022.1.3,Win32,60.04924038,62bbe60bf3d75ef465d3e404,0,55,55,52,1,threeone,,,,,,,,,,,,,,,,,,,,,,,,,,,,,,,,,,,,,,,,,,,,,,,,,,,,,,,,,,,,,,,,,,,,,,,,,,,,,,,,,,,,,,,,,,,,,,,,,,,,,,,,,,,,,,,,,,,,,,,,,,,,,,,,,,,,,,,,,,,,,,,,,,,,,,,,
,,,,,,611424d6d8ab51566db0adc1,62bbf9b64068efa22e44d4bd,2022-06-29_09h06.22.654,Colour_Asymmetry_Pilot,2022.1.3,Win32,60.04924038,62bbe60bf3d75ef465d3e404,0,56,56,73,1,onethree,,,,,,,,,,,,,,,,,,,,,,,,,,,,,,,,,,,,,,,,,,,,,,,,,,,,,,,,,,,,,,,,,,,,,,,,,,,,,,,,,,,,,,,,,,,,,,,,,,,,,,,,,,,,,,,,,,,,,,,,,,,,,,,,,,,,,,,,,,,,,,,,,,,,,,,,
,,,,,,611424d6d8ab51566db0adc1,62bbf9b64068efa22e44d4bd,2022-06-29_09h06.22.654,Colour_Asymmetry_Pilot,2022.1.3,Win32,60.04924038,62bbe60bf3d75ef465d3e404,0,57,57,131,1,twofour,,,,,,,,,,,,,,,,,,,,,,,,,,,,,,,,,,,,,,,,,,,,,,,,,,,,,,,,,,,,,,,,,,,,,,,,,,,,,,,,,,,,,,,,,,,,,,,,,,,,,,,,,,,,,,,,,,,,,,,,,,,,,,,,,,,,,,,,,,,,,,,,,,,,,,,,
,,,,,,611424d6d8ab51566db0adc1,62bbf9b64068efa22e44d4bd,2022-06-29_09h06.22.654,Colour_Asymmetry_Pilot,2022.1.3,Win32,60.04924038,62bbe60bf3d75ef465d3e404,0,58,58,68,1,threeone,,,,,,,,,,,,,,,,,,,,,,,,,,,,,,,,,,,,,,,,,,,,,,,,,,,,,,,,,,,,,,,,,,,,,,,,,,,,,,,,,,,,,,,,,,,,,,,,,,,,,,,,,,,,,,,,,,,,,,,,,,,,,,,,,,,,,,,,,,,,,,,,,,,,,,,,
,,,,,,611424d6d8ab51566db0adc1,62bbf9b64068efa22e44d4bd,2022-06-29_09h06.22.654,Colour_Asymmetry_Pilot,2022.1.3,Win32,60.04924038,62bbe60bf3d75ef465d3e404,0,59,59,25,1,onethree,,,,,,,,,,,,,,,,,,,,,,,,,,,,,,,,,,,,,,,,,,,,,,,,,,,,,,,,,,,,,,,,,,,,,,,,,,,,,,,,,,,,,,,,,,,,,,,,,,,,,,,,,,,,,,,,,,,,,,,,,,,,,,,,,,,,,,,,,,,,,,,,,,,,,,,,
,,,,,,611424d6d8ab51566db0adc1,62bbf9b64068efa22e44d4bd,2022-06-29_09h06.22.654,Colour_Asymmetry_Pilot,2022.1.3,Win32,60.04924038,62bbe60bf3d75ef465d3e404,0,60,60,54,1,fourtwo,,,,,,,,,,,,,,,,,,,,,,,,,,,,,,,,,,,,,,,,,,,,,,,,,,,,,,,,,,,,,,,,,,,,,,,,,,,,,,,,,,,,,,,,,,,,,,,,,,,,,,,,,,,,,,,,,,,,,,,,,,,,,,,,,,,,,,,,,,,,,,,,,,,,,,,,
,,,,,,611424d6d8ab51566db0adc1,62bbf9b64068efa22e44d4bd,2022-06-29_09h06.22.654,Colour_Asymmetry_Pilot,2022.1.3,Win32,60.04924038,62bbe60bf3d75ef465d3e404,0,61,61,40,1,onetwo,,,,,,,,,,,,,,,,,,,,,,,,,,,,,,,,,,,,,,,,,,,,,,,,,,,,,,,,,,,,,,,,,,,,,,,,,,,,,,,,,,,,,,,,,,,,,,,,,,,,,,,,,,,,,,,,,,,,,,,,,,,,,,,,,,,,,,,,,,,,,,,,,,,,,,,,
,,,,,,611424d6d8ab51566db0adc1,62bbf9b64068efa22e44d4bd,2022-06-29_09h06.22.654,Colour_Asymmetry_Pilot,2022.1.3,Win32,60.04924038,62bbe60bf3d75ef465d3e404,0,62,62,89,1,onethree,,,,,,,,,,,,,,,,,,,,,,,,,,,,,,,,,,,,,,,,,,,,,,,,,,,,,,,,,,,,,,,,,,,,,,,,,,,,,,,,,,,,,,,,,,,,,,,,,,,,,,,,,,,,,,,,,,,,,,,,,,,,,,,,,,,,,,,,,,,,,,,,,,,,,,,,
,,,,,,611424d6d8ab51566db0adc1,62bbf9b64068efa22e44d4bd,2022-06-29_09h06.22.654,Colour_Asymmetry_Pilot,2022.1.3,Win32,60.04924038,62bbe60bf3d75ef465d3e404,0,63,63,82,1,twoone,,,,,,,,,,,,,,,,,,,,,,,,,,,,,,,,,,,,,,,,,,,,,,,,,,,,,,,,,,,,,,,,,,,,,,,,,,,,,,,,,,,,,,,,,,,,,,,,,,,,,,,,,,,,,,,,,,,,,,,,,,,,,,,,,,,,,,,,,,,,,,,,,,,,,,,,
,,,,,,611424d6d8ab51566db0adc1,62bbf9b64068efa22e44d4bd,2022-06-29_09h06.22.654,Colour_Asymmetry_Pilot,2022.1.3,Win32,60.04924038,62bbe60bf3d75ef465d3e404,0,64,64,153,1,onethree,,,,,,,,,,,,,,,,,,,,,,,,,,,,,,,,,,,,,,,,,,,,,,,,,,,,,,,,,,,,,,,,,,,,,,,,,,,,,,,,,,,,,,,,,,,,,,,,,,,,,,,,,,,,,,,,,,,,,,,,,,,,,,,,,,,,,,,,,,,,,,,,,,,,,,,,
,,,,,,611424d6d8ab51566db0adc1,62bbf9b64068efa22e44d4bd,2022-06-29_09h06.22.654,Colour_Asymmetry_Pilot,2022.1.3,Win32,60.04924038,62bbe60bf3d75ef465d3e404,0,65,65,76,1,threeone,,,,,,,,,,,,,,,,,,,,,,,,,,,,,,,,,,,,,,,,,,,,,,,,,,,,,,,,,,,,,,,,,,,,,,,,,,,,,,,,,,,,,,,,,,,,,,,,,,,,,,,,,,,,,,,,,,,,,,,,,,,,,,,,,,,,,,,,,,,,,,,,,,,,,,,,
,,,,,,611424d6d8ab51566db0adc1,62bbf9b64068efa22e44d4bd,2022-06-29_09h06.22.654,Colour_Asymmetry_Pilot,2022.1.3,Win32,60.04924038,62bbe60bf3d75ef465d3e404,0,66,66,120,1,onetwo,,,,,,,,,,,,,,,,,,,,,,,,,,,,,,,,,,,,,,,,,,,,,,,,,,,,,,,,,,,,,,,,,,,,,,,,,,,,,,,,,,,,,,,,,,,,,,,,,,,,,,,,,,,,,,,,,,,,,,,,,,,,,,,,,,,,,,,,,,,,,,,,,,,,,,,,
,,,,,,611424d6d8ab51566db0adc1,62bbf9b64068efa22e44d4bd,2022-06-29_09h06.22.654,Colour_Asymmetry_Pilot,2022.1.3,Win32,60.04924038,62bbe60bf3d75ef465d3e404,0,67,67,136,1,onetwo,,,,,,,,,,,,,,,,,,,,,,,,,,,,,,,,,,,,,,,,,,,,,,,,,,,,,,,,,,,,,,,,,,,,,,,,,,,,,,,,,,,,,,,,,,,,,,,,,,,,,,,,,,,,,,,,,,,,,,,,,,,,,,,,,,,,,,,,,,,,,,,,,,,,,,,,
,,,,,,611424d6d8ab51566db0adc1,62bbf9b64068efa22e44d4bd,2022-06-29_09h06.22.654,Colour_Asymmetry_Pilot,2022.1.3,Win32,60.04924038,62bbe60bf3d75ef465d3e404,0,68,68,14,1,fourtwo,,,,,,,,,,,,,,,,,,,,,,,,,,,,,,,,,,,,,,,,,,,,,,,,,,,,,,,,,,,,,,,,,,,,,,,,,,,,,,,,,,,,,,,,,,,,,,,,,,,,,,,,,,,,,,,,,,,,,,,,,,,,,,,,,,,,,,,,,,,,,,,,,,,,,,,,
,,,,,,611424d6d8ab51566db0adc1,62bbf9b64068efa22e44d4bd,2022-06-29_09h06.22.654,Colour_Asymmetry_Pilot,2022.1.3,Win32,60.04924038,62bbe60bf3d75ef465d3e404,0,69,69,138,1,twoone,,,,,,,,,,,,,,,,,,,,,,,,,,,,,,,,,,,,,,,,,,,,,,,,,,,,,,,,,,,,,,,,,,,,,,,,,,,,,,,,,,,,,,,,,,,,,,,,,,,,,,,,,,,,,,,,,,,,,,,,,,,,,,,,,,,,,,,,,,,,,,,,,,,,,,,,
,,,,,,611424d6d8ab51566db0adc1,62bbf9b64068efa22e44d4bd,2022-06-29_09h06.22.654,Colour_Asymmetry_Pilot,2022.1.3,Win32,60.04924038,62bbe60bf3d75ef465d3e404,0,70,70,41,1,onethree,,,,,,,,,,,,,,,,,,,,,,,,,,,,,,,,,,,,,,,,,,,,,,,,,,,,,,,,,,,,,,,,,,,,,,,,,,,,,,,,,,,,,,,,,,,,,,,,,,,,,,,,,,,,,,,,,,,,,,,,,,,,,,,,,,,,,,,,,,,,,,,,,,,,,,,,
,,,,,,611424d6d8ab51566db0adc1,62bbf9b64068efa22e44d4bd,2022-06-29_09h06.22.654,Colour_Asymmetry_Pilot,2022.1.3,Win32,60.04924038,62bbe60bf3d75ef465d3e404,0,71,71,61,1,threefour,,,,,,,,,,,,,,,,,,,,,,,,,,,,,,,,,,,,,,,,,,,,,,,,,,,,,,,,,,,,,,,,,,,,,,,,,,,,,,,,,,,,,,,,,,,,,,,,,,,,,,,,,,,,,,,,,,,,,,,,,,,,,,,,,,,,,,,,,,,,,,,,,,,,,,,,
,,,,,,611424d6d8ab51566db0adc1,62bbf9b64068efa22e44d4bd,2022-06-29_09h06.22.654,Colour_Asymmetry_Pilot,2022.1.3,Win32,60.04924038,62bbe60bf3d75ef465d3e404,0,72,72,128,1,onetwo,,,,,,,,,,,,,,,,,,,,,,,,,,,,,,,,,,,,,,,,,,,,,,,,,,,,,,,,,,,,,,,,,,,,,,,,,,,,,,,,,,,,,,,,,,,,,,,,,,,,,,,,,,,,,,,,,,,,,,,,,,,,,,,,,,,,,,,,,,,,,,,,,,,,,,,,
,,,,,,611424d6d8ab51566db0adc1,62bbf9b64068efa22e44d4bd,2022-06-29_09h06.22.654,Colour_Asymmetry_Pilot,2022.1.3,Win32,60.04924038,62bbe60bf3d75ef465d3e404,0,73,73,30,1,fourtwo,,,,,,,,,,,,,,,,,,,,,,,,,,,,,,,,,,,,,,,,,,,,,,,,,,,,,,,,,,,,,,,,,,,,,,,,,,,,,,,,,,,,,,,,,,,,,,,,,,,,,,,,,,,,,,,,,,,,,,,,,,,,,,,,,,,,,,,,,,,,,,,,,,,,,,,,
,,,,,,611424d6d8ab51566db0adc1,62bbf9b64068efa22e44d4bd,2022-06-29_09h06.22.654,Colour_Asymmetry_Pilot,2022.1.3,Win32,60.04924038,62bbe60bf3d75ef465d3e404,0,74,74,44,1,threeone,,,,,,,,,,,,,,,,,,,,,,,,,,,,,,,,,,,,,,,,,,,,,,,,,,,,,,,,,,,,,,,,,,,,,,,,,,,,,,,,,,,,,,,,,,,,,,,,,,,,,,,,,,,,,,,,,,,,,,,,,,,,,,,,,,,,,,,,,,,,,,,,,,,,,,,,
,,,,,,611424d6d8ab51566db0adc1,62bbf9b64068efa22e44d4bd,2022-06-29_09h06.22.654,Colour_Asymmetry_Pilot,2022.1.3,Win32,60.04924038,62bbe60bf3d75ef465d3e404,0,75,75,122,1,twoone,,,,,,,,,,,,,,,,,,,,,,,,,,,,,,,,,,,,,,,,,,,,,,,,,,,,,,,,,,,,,,,,,,,,,,,,,,,,,,,,,,,,,,,,,,,,,,,,,,,,,,,,,,,,,,,,,,,,,,,,,,,,,,,,,,,,,,,,,,,,,,,,,,,,,,,,
,,,,,,611424d6d8ab51566db0adc1,62bbf9b64068efa22e44d4bd,2022-06-29_09h06.22.654,Colour_Asymmetry_Pilot,2022.1.3,Win32,60.04924038,62bbe60bf3d75ef465d3e404,0,76,76,119,1,fourthree,,,,,,,,,,,,,,,,,,,,,,,,,,,,,,,,,,,,,,,,,,,,,,,,,,,,,,,,,,,,,,,,,,,,,,,,,,,,,,,,,,,,,,,,,,,,,,,,,,,,,,,,,,,,,,,,,,,,,,,,,,,,,,,,,,,,,,,,,,,,,,,,,,,,,,,,
,,,,,,611424d6d8ab51566db0adc1,62bbf9b64068efa22e44d4bd,2022-06-29_09h06.22.654,Colour_Asymmetry_Pilot,2022.1.3,Win32,60.04924038,62bbe60bf3d75ef465d3e404,0,77,77,31,1,fourthree,,,,,,,,,,,,,,,,,,,,,,,,,,,,,,,,,,,,,,,,,,,,,,,,,,,,,,,,,,,,,,,,,,,,,,,,,,,,,,,,,,,,,,,,,,,,,,,,,,,,,,,,,,,,,,,,,,,,,,,,,,,,,,,,,,,,,,,,,,,,,,,,,,,,,,,,
,,,,,,611424d6d8ab51566db0adc1,62bbf9b64068efa22e44d4bd,2022-06-29_09h06.22.654,Colour_Asymmetry_Pilot,2022.1.3,Win32,60.04924038,62bbe60bf3d75ef465d3e404,0,78,78,134,1,fourtwo,,,,,,,,,,,,,,,,,,,,,,,,,,,,,,,,,,,,,,,,,,,,,,,,,,,,,,,,,,,,,,,,,,,,,,,,,,,,,,,,,,,,,,,,,,,,,,,,,,,,,,,,,,,,,,,,,,,,,,,,,,,,,,,,,,,,,,,,,,,,,,,,,,,,,,,,
,,,,,,611424d6d8ab51566db0adc1,62bbf9b64068efa22e44d4bd,2022-06-29_09h06.22.654,Colour_Asymmetry_Pilot,2022.1.3,Win32,60.04924038,62bbe60bf3d75ef465d3e404,0,79,79,81,1,onethree,,,,,,,,,,,,,,,,,,,,,,,,,,,,,,,,,,,,,,,,,,,,,,,,,,,,,,,,,,,,,,,,,,,,,,,,,,,,,,,,,,,,,,,,,,,,,,,,,,,,,,,,,,,,,,,,,,,,,,,,,,,,,,,,,,,,,,,,,,,,,,,,,,,,,,,,
,,,,,,611424d6d8ab51566db0adc1,62bbf9b64068efa22e44d4bd,2022-06-29_09h06.22.654,Colour_Asymmetry_Pilot,2022.1.3,Win32,60.04924038,62bbe60bf3d75ef465d3e404,0,80,80,150,1,fourtwo,,,,,,,,,,,,,,,,,,,,,,,,,,,,,,,,,,,,,,,,,,,,,,,,,,,,,,,,,,,,,,,,,,,,,,,,,,,,,,,,,,,,,,,,,,,,,,,,,,,,,,,,,,,,,,,,,,,,,,,,,,,,,,,,,,,,,,,,,,,,,,,,,,,,,,,,
,,,,,,611424d6d8ab51566db0adc1,62bbf9b64068efa22e44d4bd,2022-06-29_09h06.22.654,Colour_Asymmetry_Pilot,2022.1.3,Win32,60.04924038,62bbe60bf3d75ef465d3e404,0,81,81,111,1,fourthree,,,,,,,,,,,,,,,,,,,,,,,,,,,,,,,,,,,,,,,,,,,,,,,,,,,,,,,,,,,,,,,,,,,,,,,,,,,,,,,,,,,,,,,,,,,,,,,,,,,,,,,,,,,,,,,,,,,,,,,,,,,,,,,,,,,,,,,,,,,,,,,,,,,,,,,,
,,,,,,611424d6d8ab51566db0adc1,62bbf9b64068efa22e44d4bd,2022-06-29_09h06.22.654,Colour_Asymmetry_Pilot,2022.1.3,Win32,60.04924038,62bbe60bf3d75ef465d3e404,0,82,82,19,1,twofour,,,,,,,,,,,,,,,,,,,,,,,,,,,,,,,,,,,,,,,,,,,,,,,,,,,,,,,,,,,,,,,,,,,,,,,,,,,,,,,,,,,,,,,,,,,,,,,,,,,,,,,,,,,,,,,,,,,,,,,,,,,,,,,,,,,,,,,,,,,,,,,,,,,,,,,,
,,,,,,611424d6d8ab51566db0adc1,62bbf9b64068efa22e44d4bd,2022-06-29_09h06.22.654,Colour_Asymmetry_Pilot,2022.1.3,Win32,60.04924038,62bbe60bf3d75ef465d3e404,0,83,83,157,1,threefour,,,,,,,,,,,,,,,,,,,,,,,,,,,,,,,,,,,,,,,,,,,,,,,,,,,,,,,,,,,,,,,,,,,,,,,,,,,,,,,,,,,,,,,,,,,,,,,,,,,,,,,,,,,,,,,,,,,,,,,,,,,,,,,,,,,,,,,,,,,,,,,,,,,,,,,,
,,,,,,611424d6d8ab51566db0adc1,62bbf9b64068efa22e44d4bd,2022-06-29_09h06.22.654,Colour_Asymmetry_Pilot,2022.1.3,Win32,60.04924038,62bbe60bf3d75ef465d3e404,0,84,84,126,1,fourtwo,,,,,,,,,,,,,,,,,,,,,,,,,,,,,,,,,,,,,,,,,,,,,,,,,,,,,,,,,,,,,,,,,,,,,,,,,,,,,,,,,,,,,,,,,,,,,,,,,,,,,,,,,,,,,,,,,,,,,,,,,,,,,,,,,,,,,,,,,,,,,,,,,,,,,,,,
,,,,,,611424d6d8ab51566db0adc1,62bbf9b64068efa22e44d4bd,2022-06-29_09h06.22.654,Colour_Asymmetry_Pilot,2022.1.3,Win32,60.04924038,62bbe60bf3d75ef465d3e404,0,85,85,95,1,fourthree,,,,,,,,,,,,,,,,,,,,,,,,,,,,,,,,,,,,,,,,,,,,,,,,,,,,,,,,,,,,,,,,,,,,,,,,,,,,,,,,,,,,,,,,,,,,,,,,,,,,,,,,,,,,,,,,,,,,,,,,,,,,,,,,,,,,,,,,,,,,,,,,,,,,,,,,
,,,,,,611424d6d8ab51566db0adc1,62bbf9b64068efa22e44d4bd,2022-06-29_09h06.22.654,Colour_Asymmetry_Pilot,2022.1.3,Win32,60.04924038,62bbe60bf3d75ef465d3e404,0,86,86,84,1,threeone,,,,,,,,,,,,,,,,,,,,,,,,,,,,,,,,,,,,,,,,,,,,,,,,,,,,,,,,,,,,,,,,,,,,,,,,,,,,,,,,,,,,,,,,,,,,,,,,,,,,,,,,,,,,,,,,,,,,,,,,,,,,,,,,,,,,,,,,,,,,,,,,,,,,,,,,
,,,,,,611424d6d8ab51566db0adc1,62bbf9b64068efa22e44d4bd,2022-06-29_09h06.22.654,Colour_Asymmetry_Pilot,2022.1.3,Win32,60.04924038,62bbe60bf3d75ef465d3e404,0,87,87,16,1,onetwo,,,,,,,,,,,,,,,,,,,,,,,,,,,,,,,,,,,,,,,,,,,,,,,,,,,,,,,,,,,,,,,,,,,,,,,,,,,,,,,,,,,,,,,,,,,,,,,,,,,,,,,,,,,,,,,,,,,,,,,,,,,,,,,,,,,,,,,,,,,,,,,,,,,,,,,,
,,,,,,611424d6d8ab51566db0adc1,62bbf9b64068efa22e44d4bd,2022-06-29_09h06.22.654,Colour_Asymmetry_Pilot,2022.1.3,Win32,60.04924038,62bbe60bf3d75ef465d3e404,0,88,88,148,1,threeone,,,,,,,,,,,,,,,,,,,,,,,,,,,,,,,,,,,,,,,,,,,,,,,,,,,,,,,,,,,,,,,,,,,,,,,,,,,,,,,,,,,,,,,,,,,,,,,,,,,,,,,,,,,,,,,,,,,,,,,,,,,,,,,,,,,,,,,,,,,,,,,,,,,,,,,,
,,,,,,611424d6d8ab51566db0adc1,62bbf9b64068efa22e44d4bd,2022-06-29_09h06.22.654,Colour_Asymmetry_Pilot,2022.1.3,Win32,60.04924038,62bbe60bf3d75ef465d3e404,0,89,89,98,1,twoone,,,,,,,,,,,,,,,,,,,,,,,,,,,,,,,,,,,,,,,,,,,,,,,,,,,,,,,,,,,,,,,,,,,,,,,,,,,,,,,,,,,,,,,,,,,,,,,,,,,,,,,,,,,,,,,,,,,,,,,,,,,,,,,,,,,,,,,,,,,,,,,,,,,,,,,,
,,,,,,611424d6d8ab51566db0adc1,62bbf9b64068efa22e44d4bd,2022-06-29_09h06.22.654,Colour_Asymmetry_Pilot,2022.1.3,Win32,60.04924038,62bbe60bf3d75ef465d3e404,0,90,90,47,1,fourthree,,,,,,,,,,,,,,,,,,,,,,,,,,,,,,,,,,,,,,,,,,,,,,,,,,,,,,,,,,,,,,,,,,,,,,,,,,,,,,,,,,,,,,,,,,,,,,,,,,,,,,,,,,,,,,,,,,,,,,,,,,,,,,,,,,,,,,,,,,,,,,,,,,,,,,,,
,,,,,,611424d6d8ab51566db0adc1,62bbf9b64068efa22e44d4bd,2022-06-29_09h06.22.654,Colour_Asymmetry_Pilot,2022.1.3,Win32,60.04924038,62bbe60bf3d75ef465d3e404,0,91,91,133,1,threefour,,,,,,,,,,,,,,,,,,,,,,,,,,,,,,,,,,,,,,,,,,,,,,,,,,,,,,,,,,,,,,,,,,,,,,,,,,,,,,,,,,,,,,,,,,,,,,,,,,,,,,,,,,,,,,,,,,,,,,,,,,,,,,,,,,,,,,,,,,,,,,,,,,,,,,,,
,,,,,,611424d6d8ab51566db0adc1,62bbf9b64068efa22e44d4bd,2022-06-29_09h06.22.654,Colour_Asymmetry_Pilot,2022.1.3,Win32,60.04924038,62bbe60bf3d75ef465d3e404,0,92,92,155,1,twofour,,,,,,,,,,,,,,,,,,,,,,,,,,,,,,,,,,,,,,,,,,,,,,,,,,,,,,,,,,,,,,,,,,,,,,,,,,,,,,,,,,,,,,,,,,,,,,,,,,,,,,,,,,,,,,,,,,,,,,,,,,,,,,,,,,,,,,,,,,,,,,,,,,,,,,,,
,,,,,,611424d6d8ab51566db0adc1,62bbf9b64068efa22e44d4bd,2022-06-29_09h06.22.654,Colour_Asymmetry_Pilot,2022.1.3,Win32,60.04924038,62bbe60bf3d75ef465d3e404,0,93,93,75,1,twofour,,,,,,,,,,,,,,,,,,,,,,,,,,,,,,,,,,,,,,,,,,,,,,,,,,,,,,,,,,,,,,,,,,,,,,,,,,,,,,,,,,,,,,,,,,,,,,,,,,,,,,,,,,,,,,,,,,,,,,,,,,,,,,,,,,,,,,,,,,,,,,,,,,,,,,,,
,,,,,,611424d6d8ab51566db0adc1,62bbf9b64068efa22e44d4bd,2022-06-29_09h06.22.654,Colour_Asymmetry_Pilot,2022.1.3,Win32,60.04924038,62bbe60bf3d75ef465d3e404,0,94,94,90,1,twoone,,,,,,,,,,,,,,,,,,,,,,,,,,,,,,,,,,,,,,,,,,,,,,,,,,,,,,,,,,,,,,,,,,,,,,,,,,,,,,,,,,,,,,,,,,,,,,,,,,,,,,,,,,,,,,,,,,,,,,,,,,,,,,,,,,,,,,,,,,,,,,,,,,,,,,,,
,,,,,,611424d6d8ab51566db0adc1,62bbf9b64068efa22e44d4bd,2022-06-29_09h06.22.654,Colour_Asymmetry_Pilot,2022.1.3,Win32,60.04924038,62bbe60bf3d75ef465d3e404,0,95,95,49,1,onethree,,,,,,,,,,,,,,,,,,,,,,,,,,,,,,,,,,,,,,,,,,,,,,,,,,,,,,,,,,,,,,,,,,,,,,,,,,,,,,,,,,,,,,,,,,,,,,,,,,,,,,,,,,,,,,,,,,,,,,,,,,,,,,,,,,,,,,,,,,,,,,,,,,,,,,,,
,,,,,,611424d6d8ab51566db0adc1,62bbf9b64068efa22e44d4bd,2022-06-29_09h06.22.654,Colour_Asymmetry_Pilot,2022.1.3,Win32,60.04924038,62bbe60bf3d75ef465d3e404,0,96,96,83,1,twofour,,,,,,,,,,,,,,,,,,,,,,,,,,,,,,,,,,,,,,,,,,,,,,,,,,,,,,,,,,,,,,,,,,,,,,,,,,,,,,,,,,,,,,,,,,,,,,,,,,,,,,,,,,,,,,,,,,,,,,,,,,,,,,,,,,,,,,,,,,,,,,,,,,,,,,,,
,,,,,,611424d6d8ab51566db0adc1,62bbf9b64068efa22e44d4bd,2022-06-29_09h06.22.654,Colour_Asymmetry_Pilot,2022.1.3,Win32,60.04924038,62bbe60bf3d75ef465d3e404,0,97,97,4,1,threeone,,,,,,,,,,,,,,,,,,,,,,,,,,,,,,,,,,,,,,,,,,,,,,,,,,,,,,,,,,,,,,,,,,,,,,,,,,,,,,,,,,,,,,,,,,,,,,,,,,,,,,,,,,,,,,,,,,,,,,,,,,,,,,,,,,,,,,,,,,,,,,,,,,,,,,,,
,,,,,,611424d6d8ab51566db0adc1,62bbf9b64068efa22e44d4bd,2022-06-29_09h06.22.654,Colour_Asymmetry_Pilot,2022.1.3,Win32,60.04924038,62bbe60bf3d75ef465d3e404,0,98,98,2,1,twoone,,,,,,,,,,,,,,,,,,,,,,,,,,,,,,,,,,,,,,,,,,,,,,,,,,,,,,,,,,,,,,,,,,,,,,,,,,,,,,,,,,,,,,,,,,,,,,,,,,,,,,,,,,,,,,,,,,,,,,,,,,,,,,,,,,,,,,,,,,,,,,,,,,,,,,,,
,,,,,,611424d6d8ab51566db0adc1,62bbf9b64068efa22e44d4bd,2022-06-29_09h06.22.654,Colour_Asymmetry_Pilot,2022.1.3,Win32,60.04924038,62bbe60bf3d75ef465d3e404,0,99,99,116,1,threeone,,,,,,,,,,,,,,,,,,,,,,,,,,,,,,,,,,,,,,,,,,,,,,,,,,,,,,,,,,,,,,,,,,,,,,,,,,,,,,,,,,,,,,,,,,,,,,,,,,,,,,,,,,,,,,,,,,,,,,,,,,,,,,,,,,,,,,,,,,,,,,,,,,,,,,,,
,,,,,,611424d6d8ab51566db0adc1,62bbf9b64068efa22e44d4bd,2022-06-29_09h06.22.654,Colour_Asymmetry_Pilot,2022.1.3,Win32,60.04924038,62bbe60bf3d75ef465d3e404,0,100,100,53,1,threefour,,,,,,,,,,,,,,,,,,,,,,,,,,,,,,,,,,,,,,,,,,,,,,,,,,,,,,,,,,,,,,,,,,,,,,,,,,,,,,,,,,,,,,,,,,,,,,,,,,,,,,,,,,,,,,,,,,,,,,,,,,,,,,,,,,,,,,,,,,,,,,,,,,,,,,,,
,,,,,,611424d6d8ab51566db0adc1,62bbf9b64068efa22e44d4bd,2022-06-29_09h06.22.654,Colour_Asymmetry_Pilot,2022.1.3,Win32,60.04924038,62bbe60bf3d75ef465d3e404,0,101,101,8,1,onetwo,,,,,,,,,,,,,,,,,,,,,,,,,,,,,,,,,,,,,,,,,,,,,,,,,,,,,,,,,,,,,,,,,,,,,,,,,,,,,,,,,,,,,,,,,,,,,,,,,,,,,,,,,,,,,,,,,,,,,,,,,,,,,,,,,,,,,,,,,,,,,,,,,,,,,,,,
,,,,,,611424d6d8ab51566db0adc1,62bbf9b64068efa22e44d4bd,2022-06-29_09h06.22.654,Colour_Asymmetry_Pilot,2022.1.3,Win32,60.04924038,62bbe60bf3d75ef465d3e404,0,102,102,142,1,fourtwo,,,,,,,,,,,,,,,,,,,,,,,,,,,,,,,,,,,,,,,,,,,,,,,,,,,,,,,,,,,,,,,,,,,,,,,,,,,,,,,,,,,,,,,,,,,,,,,,,,,,,,,,,,,,,,,,,,,,,,,,,,,,,,,,,,,,,,,,,,,,,,,,,,,,,,,,
,,,,,,611424d6d8ab51566db0adc1,62bbf9b64068efa22e44d4bd,2022-06-29_09h06.22.654,Colour_Asymmetry_Pilot,2022.1.3,Win32,60.04924038,62bbe60bf3d75ef465d3e404,0,103,103,121,1,onethree,,,,,,,,,,,,,,,,,,,,,,,,,,,,,,,,,,,,,,,,,,,,,,,,,,,,,,,,,,,,,,,,,,,,,,,,,,,,,,,,,,,,,,,,,,,,,,,,,,,,,,,,,,,,,,,,,,,,,,,,,,,,,,,,,,,,,,,,,,,,,,,,,,,,,,,,
,,,,,,611424d6d8ab51566db0adc1,62bbf9b64068efa22e44d4bd,2022-06-29_09h06.22.654,Colour_Asymmetry_Pilot,2022.1.3,Win32,60.04924038,62bbe60bf3d75ef465d3e404,0,104,104,94,1,fourtwo,,,,,,,,,,,,,,,,,,,,,,,,,,,,,,,,,,,,,,,,,,,,,,,,,,,,,,,,,,,,,,,,,,,,,,,,,,,,,,,,,,,,,,,,,,,,,,,,,,,,,,,,,,,,,,,,,,,,,,,,,,,,,,,,,,,,,,,,,,,,,,,,,,,,,,,,
,,,,,,611424d6d8ab51566db0adc1,62bbf9b64068efa22e44d4bd,2022-06-29_09h06.22.654,Colour_Asymmetry_Pilot,2022.1.3,Win32,60.04924038,62bbe60bf3d75ef465d3e404,0,105,105,92,1,threeone,,,,,,,,,,,,,,,,,,,,,,,,,,,,,,,,,,,,,,,,,,,,,,,,,,,,,,,,,,,,,,,,,,,,,,,,,,,,,,,,,,,,,,,,,,,,,,,,,,,,,,,,,,,,,,,,,,,,,,,,,,,,,,,,,,,,,,,,,,,,,,,,,,,,,,,,
,,,,,,611424d6d8ab51566db0adc1,62bbf9b64068efa22e44d4bd,2022-06-29_09h06.22.654,Colour_Asymmetry_Pilot,2022.1.3,Win32,60.04924038,62bbe60bf3d75ef465d3e404,0,106,106,161,1,onethree,,,,,,,,,,,,,,,,,,,,,,,,,,,,,,,,,,,,,,,,,,,,,,,,,,,,,,,,,,,,,,,,,,,,,,,,,,,,,,,,,,,,,,,,,,,,,,,,,,,,,,,,,,,,,,,,,,,,,,,,,,,,,,,,,,,,,,,,,,,,,,,,,,,,,,,,
,,,,,,611424d6d8ab51566db0adc1,62bbf9b64068efa22e44d4bd,2022-06-29_09h06.22.654,Colour_Asymmetry_Pilot,2022.1.3,Win32,60.04924038,62bbe60bf3d75ef465d3e404,0,107,107,145,1,onethree,,,,,,,,,,,,,,,,,,,,,,,,,,,,,,,,,,,,,,,,,,,,,,,,,,,,,,,,,,,,,,,,,,,,,,,,,,,,,,,,,,,,,,,,,,,,,,,,,,,,,,,,,,,,,,,,,,,,,,,,,,,,,,,,,,,,,,,,,,,,,,,,,,,,,,,,
,,,,,,611424d6d8ab51566db0adc1,62bbf9b64068efa22e44d4bd,2022-06-29_09h06.22.654,Colour_Asymmetry_Pilot,2022.1.3,Win32,60.04924038,62bbe60bf3d75ef465d3e404,0,108,108,151,1,fourthree,,,,,,,,,,,,,,,,,,,,,,,,,,,,,,,,,,,,,,,,,,,,,,,,,,,,,,,,,,,,,,,,,,,,,,,,,,,,,,,,,,,,,,,,,,,,,,,,,,,,,,,,,,,,,,,,,,,,,,,,,,,,,,,,,,,,,,,,,,,,,,,,,,,,,,,,
,,,,,,611424d6d8ab51566db0adc1,62bbf9b64068efa22e44d4bd,2022-06-29_09h06.22.654,Colour_Asymmetry_Pilot,2022.1.3,Win32,60.04924038,62bbe60bf3d75ef465d3e404,0,109,109,12,1,threeone,,,,,,,,,,,,,,,,,,,,,,,,,,,,,,,,,,,,,,,,,,,,,,,,,,,,,,,,,,,,,,,,,,,,,,,,,,,,,,,,,,,,,,,,,,,,,,,,,,,,,,,,,,,,,,,,,,,,,,,,,,,,,,,,,,,,,,,,,,,,,,,,,,,,,,,,
,,,,,,611424d6d8ab51566db0adc1,62bbf9b64068efa22e44d4bd,2022-06-29_09h06.22.654,Colour_Asymmetry_Pilot,2022.1.3,Win32,60.04924038,62bbe60bf3d75ef465d3e404,0,110,110,141,1,threefour,,,,,,,,,,,,,,,,,,,,,,,,,,,,,,,,,,,,,,,,,,,,,,,,,,,,,,,,,,,,,,,,,,,,,,,,,,,,,,,,,,,,,,,,,,,,,,,,,,,,,,,,,,,,,,,,,,,,,,,,,,,,,,,,,,,,,,,,,,,,,,,,,,,,,,,,
,,,,,,611424d6d8ab51566db0adc1,62bbf9b64068efa22e44d4bd,2022-06-29_09h06.22.654,Colour_Asymmetry_Pilot,2022.1.3,Win32,60.04924038,62bbe60bf3d75ef465d3e404,0,111,111,152,1,onetwo,,,,,,,,,,,,,,,,,,,,,,,,,,,,,,,,,,,,,,,,,,,,,,,,,,,,,,,,,,,,,,,,,,,,,,,,,,,,,,,,,,,,,,,,,,,,,,,,,,,,,,,,,,,,,,,,,,,,,,,,,,,,,,,,,,,,,,,,,,,,,,,,,,,,,,,,
,,,,,,611424d6d8ab51566db0adc1,62bbf9b64068efa22e44d4bd,2022-06-29_09h06.22.654,Colour_Asymmetry_Pilot,2022.1.3,Win32,60.04924038,62bbe60bf3d75ef465d3e404,0,112,112,70,1,fourtwo,,,,,,,,,,,,,,,,,,,,,,,,,,,,,,,,,,,,,,,,,,,,,,,,,,,,,,,,,,,,,,,,,,,,,,,,,,,,,,,,,,,,,,,,,,,,,,,,,,,,,,,,,,,,,,,,,,,,,,,,,,,,,,,,,,,,,,,,,,,,,,,,,,,,,,,,
,,,,,,611424d6d8ab51566db0adc1,62bbf9b64068efa22e44d4bd,2022-06-29_09h06.22.654,Colour_Asymmetry_Pilot,2022.1.3,Win32,60.04924038,62bbe60bf3d75ef465d3e404,0,113,113,99,1,twofour,,,,,,,,,,,,,,,,,,,,,,,,,,,,,,,,,,,,,,,,,,,,,,,,,,,,,,,,,,,,,,,,,,,,,,,,,,,,,,,,,,,,,,,,,,,,,,,,,,,,,,,,,,,,,,,,,,,,,,,,,,,,,,,,,,,,,,,,,,,,,,,,,,,,,,,,
,,,,,,611424d6d8ab51566db0adc1,62bbf9b64068efa22e44d4bd,2022-06-29_09h06.22.654,Colour_Asymmetry_Pilot,2022.1.3,Win32,60.04924038,62bbe60bf3d75ef465d3e404,0,114,114,69,1,threefour,,,,,,,,,,,,,,,,,,,,,,,,,,,,,,,,,,,,,,,,,,,,,,,,,,,,,,,,,,,,,,,,,,,,,,,,,,,,,,,,,,,,,,,,,,,,,,,,,,,,,,,,,,,,,,,,,,,,,,,,,,,,,,,,,,,,,,,,,,,,,,,,,,,,,,,,
,,,,,,611424d6d8ab51566db0adc1,62bbf9b64068efa22e44d4bd,2022-06-29_09h06.22.654,Colour_Asymmetry_Pilot,2022.1.3,Win32,60.04924038,62bbe60bf3d75ef465d3e404,0,115,115,93,1,threefour,,,,,,,,,,,,,,,,,,,,,,,,,,,,,,,,,,,,,,,,,,,,,,,,,,,,,,,,,,,,,,,,,,,,,,,,,,,,,,,,,,,,,,,,,,,,,,,,,,,,,,,,,,,,,,,,,,,,,,,,,,,,,,,,,,,,,,,,,,,,,,,,,,,,,,,,
,,,,,,611424d6d8ab51566db0adc1,62bbf9b64068efa22e44d4bd,2022-06-29_09h06.22.654,Colour_Asymmetry_Pilot,2022.1.3,Win32,60.04924038,62bbe60bf3d75ef465d3e404,0,116,116,129,1,onethree,,,,,,,,,,,,,,,,,,,,,,,,,,,,,,,,,,,,,,,,,,,,,,,,,,,,,,,,,,,,,,,,,,,,,,,,,,,,,,,,,,,,,,,,,,,,,,,,,,,,,,,,,,,,,,,,,,,,,,,,,,,,,,,,,,,,,,,,,,,,,,,,,,,,,,,,
,,,,,,611424d6d8ab51566db0adc1,62bbf9b64068efa22e44d4bd,2022-06-29_09h06.22.654,Colour_Asymmetry_Pilot,2022.1.3,Win32,60.04924038,62bbe60bf3d75ef465d3e404,0,117,117,123,1,twofour,,,,,,,,,,,,,,,,,,,,,,,,,,,,,,,,,,,,,,,,,,,,,,,,,,,,,,,,,,,,,,,,,,,,,,,,,,,,,,,,,,,,,,,,,,,,,,,,,,,,,,,,,,,,,,,,,,,,,,,,,,,,,,,,,,,,,,,,,,,,,,,,,,,,,,,,
,,,,,,611424d6d8ab51566db0adc1,62bbf9b64068efa22e44d4bd,2022-06-29_09h06.22.654,Colour_Asymmetry_Pilot,2022.1.3,Win32,60.04924038,62bbe60bf3d75ef465d3e404,0,118,118,58,1,twoone,,,,,,,,,,,,,,,,,,,,,,,,,,,,,,,,,,,,,,,,,,,,,,,,,,,,,,,,,,,,,,,,,,,,,,,,,,,,,,,,,,,,,,,,,,,,,,,,,,,,,,,,,,,,,,,,,,,,,,,,,,,,,,,,,,,,,,,,,,,,,,,,,,,,,,,,
,,,,,,611424d6d8ab51566db0adc1,62bbf9b64068efa22e44d4bd,2022-06-29_09h06.22.654,Colour_Asymmetry_Pilot,2022.1.3,Win32,60.04924038,62bbe60bf3d75ef465d3e404,0,119,119,34,1,twoone,,,,,,,,,,,,,,,,,,,,,,,,,,,,,,,,,,,,,,,,,,,,,,,,,,,,,,,,,,,,,,,,,,,,,,,,,,,,,,,,,,,,,,,,,,,,,,,,,,,,,,,,,,,,,,,,,,,,,,,,,,,,,,,,,,,,,,,,,,,,,,,,,,,,,,,,
,,,,,,611424d6d8ab51566db0adc1,62bbf9b64068efa22e44d4bd,2022-06-29_09h06.22.654,Colour_Asymmetry_Pilot,2022.1.3,Win32,60.04924038,62bbe60bf3d75ef465d3e404,0,120,120,127,1,fourthree,,,,,,,,,,,,,,,,,,,,,,,,,,,,,,,,,,,,,,,,,,,,,,,,,,,,,,,,,,,,,,,,,,,,,,,,,,,,,,,,,,,,,,,,,,,,,,,,,,,,,,,,,,,,,,,,,,,,,,,,,,,,,,,,,,,,,,,,,,,,,,,,,,,,,,,,
,,,,,,611424d6d8ab51566db0adc1,62bbf9b64068efa22e44d4bd,2022-06-29_09h06.22.654,Colour_Asymmetry_Pilot,2022.1.3,Win32,60.04924038,62bbe60bf3d75ef465d3e404,0,121,121,20,1,threeone,,,,,,,,,,,,,,,,,,,,,,,,,,,,,,,,,,,,,,,,,,,,,,,,,,,,,,,,,,,,,,,,,,,,,,,,,,,,,,,,,,,,,,,,,,,,,,,,,,,,,,,,,,,,,,,,,,,,,,,,,,,,,,,,,,,,,,,,,,,,,,,,,,,,,,,,
,,,,,,611424d6d8ab51566db0adc1,62bbf9b64068efa22e44d4bd,2022-06-29_09h06.22.654,Colour_Asymmetry_Pilot,2022.1.3,Win32,60.04924038,62bbe60bf3d75ef465d3e404,0,122,122,36,1,threeone,,,,,,,,,,,,,,,,,,,,,,,,,,,,,,,,,,,,,,,,,,,,,,,,,,,,,,,,,,,,,,,,,,,,,,,,,,,,,,,,,,,,,,,,,,,,,,,,,,,,,,,,,,,,,,,,,,,,,,,,,,,,,,,,,,,,,,,,,,,,,,,,,,,,,,,,
,,,,,,611424d6d8ab51566db0adc1,62bbf9b64068efa22e44d4bd,2022-06-29_09h06.22.654,Colour_Asymmetry_Pilot,2022.1.3,Win32,60.04924038,62bbe60bf3d75ef465d3e404,0,123,123,74,1,twoone,,,,,,,,,,,,,,,,,,,,,,,,,,,,,,,,,,,,,,,,,,,,,,,,,,,,,,,,,,,,,,,,,,,,,,,,,,,,,,,,,,,,,,,,,,,,,,,,,,,,,,,,,,,,,,,,,,,,,,,,,,,,,,,,,,,,,,,,,,,,,,,,,,,,,,,,
,,,,,,611424d6d8ab51566db0adc1,62bbf9b64068efa22e44d4bd,2022-06-29_09h06.22.654,Colour_Asymmetry_Pilot,2022.1.3,Win32,60.04924038,62bbe60bf3d75ef465d3e404,0,124,124,35,1,twofour,,,,,,,,,,,,,,,,,,,,,,,,,,,,,,,,,,,,,,,,,,,,,,,,,,,,,,,,,,,,,,,,,,,,,,,,,,,,,,,,,,,,,,,,,,,,,,,,,,,,,,,,,,,,,,,,,,,,,,,,,,,,,,,,,,,,,,,,,,,,,,,,,,,,,,,,
,,,,,,611424d6d8ab51566db0adc1,62bbf9b64068efa22e44d4bd,2022-06-29_09h06.22.654,Colour_Asymmetry_Pilot,2022.1.3,Win32,60.04924038,62bbe60bf3d75ef465d3e404,0,125,125,17,1,onethree,,,,,,,,,,,,,,,,,,,,,,,,,,,,,,,,,,,,,,,,,,,,,,,,,,,,,,,,,,,,,,,,,,,,,,,,,,,,,,,,,,,,,,,,,,,,,,,,,,,,,,,,,,,,,,,,,,,,,,,,,,,,,,,,,,,,,,,,,,,,,,,,,,,,,,,,
,,,,,,611424d6d8ab51566db0adc1,62bbf9b64068efa22e44d4bd,2022-06-29_09h06.22.654,Colour_Asymmetry_Pilot,2022.1.3,Win32,60.04924038,62bbe60bf3d75ef465d3e404,0,126,126,132,1,threeone,,,,,,,,,,,,,,,,,,,,,,,,,,,,,,,,,,,,,,,,,,,,,,,,,,,,,,,,,,,,,,,,,,,,,,,,,,,,,,,,,,,,,,,,,,,,,,,,,,,,,,,,,,,,,,,,,,,,,,,,,,,,,,,,,,,,,,,,,,,,,,,,,,,,,,,,
,,,,,,611424d6d8ab51566db0adc1,62bbf9b64068efa22e44d4bd,2022-06-29_09h06.22.654,Colour_Asymmetry_Pilot,2022.1.3,Win32,60.04924038,62bbe60bf3d75ef465d3e404,0,127,127,87,1,fourthree,,,,,,,,,,,,,,,,,,,,,,,,,,,,,,,,,,,,,,,,,,,,,,,,,,,,,,,,,,,,,,,,,,,,,,,,,,,,,,,,,,,,,,,,,,,,,,,,,,,,,,,,,,,,,,,,,,,,,,,,,,,,,,,,,,,,,,,,,,,,,,,,,,,,,,,,
,,,,,,611424d6d8ab51566db0adc1,62bbf9b64068efa22e44d4bd,2022-06-29_09h06.22.654,Colour_Asymmetry_Pilot,2022.1.3,Win32,60.04924038,62bbe60bf3d75ef465d3e404,0,128,128,110,1,fourtwo,,,,,,,,,,,,,,,,,,,,,,,,,,,,,,,,,,,,,,,,,,,,,,,,,,,,,,,,,,,,,,,,,,,,,,,,,,,,,,,,,,,,,,,,,,,,,,,,,,,,,,,,,,,,,,,,,,,,,,,,,,,,,,,,,,,,,,,,,,,,,,,,,,,,,,,,
,,,,,,611424d6d8ab51566db0adc1,62bbf9b64068efa22e44d4bd,2022-06-29_09h06.22.654,Colour_Asymmetry_Pilot,2022.1.3,Win32,60.04924038,62bbe60bf3d75ef465d3e404,0,129,129,46,1,fourtwo,,,,,,,,,,,,,,,,,,,,,,,,,,,,,,,,,,,,,,,,,,,,,,,,,,,,,,,,,,,,,,,,,,,,,,,,,,,,,,,,,,,,,,,,,,,,,,,,,,,,,,,,,,,,,,,,,,,,,,,,,,,,,,,,,,,,,,,,,,,,,,,,,,,,,,,,
,,,,,,611424d6d8ab51566db0adc1,62bbf9b64068efa22e44d4bd,2022-06-29_09h06.22.654,Colour_Asymmetry_Pilot,2022.1.3,Win32,60.04924038,62bbe60bf3d75ef465d3e404,0,130,130,21,1,threefour,,,,,,,,,,,,,,,,,,,,,,,,,,,,,,,,,,,,,,,,,,,,,,,,,,,,,,,,,,,,,,,,,,,,,,,,,,,,,,,,,,,,,,,,,,,,,,,,,,,,,,,,,,,,,,,,,,,,,,,,,,,,,,,,,,,,,,,,,,,,,,,,,,,,,,,,
,,,,,,611424d6d8ab51566db0adc1,62bbf9b64068efa22e44d4bd,2022-06-29_09h06.22.654,Colour_Asymmetry_Pilot,2022.1.3,Win32,60.04924038,62bbe60bf3d75ef465d3e404,0,131,131,32,1,onetwo,,,,,,,,,,,,,,,,,,,,,,,,,,,,,,,,,,,,,,,,,,,,,,,,,,,,,,,,,,,,,,,,,,,,,,,,,,,,,,,,,,,,,,,,,,,,,,,,,,,,,,,,,,,,,,,,,,,,,,,,,,,,,,,,,,,,,,,,,,,,,,,,,,,,,,,,
,,,,,,611424d6d8ab51566db0adc1,62bbf9b64068efa22e44d4bd,2022-06-29_09h06.22.654,Colour_Asymmetry_Pilot,2022.1.3,Win32,60.04924038,62bbe60bf3d75ef465d3e404,0,132,132,9,1,onethree,,,,,,,,,,,,,,,,,,,,,,,,,,,,,,,,,,,,,,,,,,,,,,,,,,,,,,,,,,,,,,,,,,,,,,,,,,,,,,,,,,,,,,,,,,,,,,,,,,,,,,,,,,,,,,,,,,,,,,,,,,,,,,,,,,,,,,,,,,,,,,,,,,,,,,,,
,,,,,,611424d6d8ab51566db0adc1,62bbf9b64068efa22e44d4bd,2022-06-29_09h06.22.654,Colour_Asymmetry_Pilot,2022.1.3,Win32,60.04924038,62bbe60bf3d75ef465d3e404,0,133,133,143,1,fourthree,,,,,,,,,,,,,,,,,,,,,,,,,,,,,,,,,,,,,,,,,,,,,,,,,,,,,,,,,,,,,,,,,,,,,,,,,,,,,,,,,,,,,,,,,,,,,,,,,,,,,,,,,,,,,,,,,,,,,,,,,,,,,,,,,,,,,,,,,,,,,,,,,,,,,,,,
,,,,,,611424d6d8ab51566db0adc1,62bbf9b64068efa22e44d4bd,2022-06-29_09h06.22.654,Colour_Asymmetry_Pilot,2022.1.3,Win32,60.04924038,62bbe60bf3d75ef465d3e404,0,134,134,149,1,threefour,,,,,,,,,,,,,,,,,,,,,,,,,,,,,,,,,,,,,,,,,,,,,,,,,,,,,,,,,,,,,,,,,,,,,,,,,,,,,,,,,,,,,,,,,,,,,,,,,,,,,,,,,,,,,,,,,,,,,,,,,,,,,,,,,,,,,,,,,,,,,,,,,,,,,,,,
,,,,,,611424d6d8ab51566db0adc1,62bbf9b64068efa22e44d4bd,2022-06-29_09h06.22.654,Colour_Asymmetry_Pilot,2022.1.3,Win32,60.04924038,62bbe60bf3d75ef465d3e404,0,135,135,51,1,twofour,,,,,,,,,,,,,,,,,,,,,,,,,,,,,,,,,,,,,,,,,,,,,,,,,,,,,,,,,,,,,,,,,,,,,,,,,,,,,,,,,,,,,,,,,,,,,,,,,,,,,,,,,,,,,,,,,,,,,,,,,,,,,,,,,,,,,,,,,,,,,,,,,,,,,,,,
,,,,,,611424d6d8ab51566db0adc1,62bbf9b64068efa22e44d4bd,2022-06-29_09h06.22.654,Colour_Asymmetry_Pilot,2022.1.3,Win32,60.04924038,62bbe60bf3d75ef465d3e404,0,136,136,64,1,onetwo,,,,,,,,,,,,,,,,,,,,,,,,,,,,,,,,,,,,,,,,,,,,,,,,,,,,,,,,,,,,,,,,,,,,,,,,,,,,,,,,,,,,,,,,,,,,,,,,,,,,,,,,,,,,,,,,,,,,,,,,,,,,,,,,,,,,,,,,,,,,,,,,,,,,,,,,
,,,,,,611424d6d8ab51566db0adc1,62bbf9b64068efa22e44d4bd,2022-06-29_09h06.22.654,Colour_Asymmetry_Pilot,2022.1.3,Win32,60.04924038,62bbe60bf3d75ef465d3e404,0,137,137,115,1,twofour,,,,,,,,,,,,,,,,,,,,,,,,,,,,,,,,,,,,,,,,,,,,,,,,,,,,,,,,,,,,,,,,,,,,,,,,,,,,,,,,,,,,,,,,,,,,,,,,,,,,,,,,,,,,,,,,,,,,,,,,,,,,,,,,,,,,,,,,,,,,,,,,,,,,,,,,
,,,,,,611424d6d8ab51566db0adc1,62bbf9b64068efa22e44d4bd,2022-06-29_09h06.22.654,Colour_Asymmetry_Pilot,2022.1.3,Win32,60.04924038,62bbe60bf3d75ef465d3e404,0,138,138,160,1,onetwo,,,,,,,,,,,,,,,,,,,,,,,,,,,,,,,,,,,,,,,,,,,,,,,,,,,,,,,,,,,,,,,,,,,,,,,,,,,,,,,,,,,,,,,,,,,,,,,,,,,,,,,,,,,,,,,,,,,,,,,,,,,,,,,,,,,,,,,,,,,,,,,,,,,,,,,,
,,,,,,611424d6d8ab51566db0adc1,62bbf9b64068efa22e44d4bd,2022-06-29_09h06.22.654,Colour_Asymmetry_Pilot,2022.1.3,Win32,60.04924038,62bbe60bf3d75ef465d3e404,0,139,139,78,1,fourtwo,,,,,,,,,,,,,,,,,,,,,,,,,,,,,,,,,,,,,,,,,,,,,,,,,,,,,,,,,,,,,,,,,,,,,,,,,,,,,,,,,,,,,,,,,,,,,,,,,,,,,,,,,,,,,,,,,,,,,,,,,,,,,,,,,,,,,,,,,,,,,,,,,,,,,,,,
,,,,,,611424d6d8ab51566db0adc1,62bbf9b64068efa22e44d4bd,2022-06-29_09h06.22.654,Colour_Asymmetry_Pilot,2022.1.3,Win32,60.04924038,62bbe60bf3d75ef465d3e404,0,140,140,156,1,threeone,,,,,,,,,,,,,,,,,,,,,,,,,,,,,,,,,,,,,,,,,,,,,,,,,,,,,,,,,,,,,,,,,,,,,,,,,,,,,,,,,,,,,,,,,,,,,,,,,,,,,,,,,,,,,,,,,,,,,,,,,,,,,,,,,,,,,,,,,,,,,,,,,,,,,,,,
,,,,,,611424d6d8ab51566db0adc1,62bbf9b64068efa22e44d4bd,2022-06-29_09h06.22.654,Colour_Asymmetry_Pilot,2022.1.3,Win32,60.04924038,62bbe60bf3d75ef465d3e404,0,141,141,15,1,fourthree,,,,,,,,,,,,,,,,,,,,,,,,,,,,,,,,,,,,,,,,,,,,,,,,,,,,,,,,,,,,,,,,,,,,,,,,,,,,,,,,,,,,,,,,,,,,,,,,,,,,,,,,,,,,,,,,,,,,,,,,,,,,,,,,,,,,,,,,,,,,,,,,,,,,,,,,
,,,,,,611424d6d8ab51566db0adc1,62bbf9b64068efa22e44d4bd,2022-06-29_09h06.22.654,Colour_Asymmetry_Pilot,2022.1.3,Win32,60.04924038,62bbe60bf3d75ef465d3e404,0,142,142,147,1,twofour,,,,,,,,,,,,,,,,,,,,,,,,,,,,,,,,,,,,,,,,,,,,,,,,,,,,,,,,,,,,,,,,,,,,,,,,,,,,,,,,,,,,,,,,,,,,,,,,,,,,,,,,,,,,,,,,,,,,,,,,,,,,,,,,,,,,,,,,,,,,,,,,,,,,,,,,
,,,,,,611424d6d8ab51566db0adc1,62bbf9b64068efa22e44d4bd,2022-06-29_09h06.22.654,Colour_Asymmetry_Pilot,2022.1.3,Win32,60.04924038,62bbe60bf3d75ef465d3e404,0,143,143,102,1,fourtwo,,,,,,,,,,,,,,,,,,,,,,,,,,,,,,,,,,,,,,,,,,,,,,,,,,,,,,,,,,,,,,,,,,,,,,,,,,,,,,,,,,,,,,,,,,,,,,,,,,,,,,,,,,,,,,,,,,,,,,,,,,,,,,,,,,,,,,,,,,,,,,,,,,,,,,,,
,,,,,,611424d6d8ab51566db0adc1,62bbf9b64068efa22e44d4bd,2022-06-29_09h06.22.654,Colour_Asymmetry_Pilot,2022.1.3,Win32,60.04924038,62bbe60bf3d75ef465d3e404,0,144,144,154,1,twoone,,,,,,,,,,,,,,,,,,,,,,,,,,,,,,,,,,,,,,,,,,,,,,,,,,,,,,,,,,,,,,,,,,,,,,,,,,,,,,,,,,,,,,,,,,,,,,,,,,,,,,,,,,,,,,,,,,,,,,,,,,,,,,,,,,,,,,,,,,,,,,,,,,,,,,,,
,,,,,,611424d6d8ab51566db0adc1,62bbf9b64068efa22e44d4bd,2022-06-29_09h06.22.654,Colour_Asymmetry_Pilot,2022.1.3,Win32,60.04924038,62bbe60bf3d75ef465d3e404,0,145,145,106,1,twoone,,,,,,,,,,,,,,,,,,,,,,,,,,,,,,,,,,,,,,,,,,,,,,,,,,,,,,,,,,,,,,,,,,,,,,,,,,,,,,,,,,,,,,,,,,,,,,,,,,,,,,,,,,,,,,,,,,,,,,,,,,,,,,,,,,,,,,,,,,,,,,,,,,,,,,,,
,,,,,,611424d6d8ab51566db0adc1,62bbf9b64068efa22e44d4bd,2022-06-29_09h06.22.654,Colour_Asymmetry_Pilot,2022.1.3,Win32,60.04924038,62bbe60bf3d75ef465d3e404,0,146,146,104,1,onetwo,,,,,,,,,,,,,,,,,,,,,,,,,,,,,,,,,,,,,,,,,,,,,,,,,,,,,,,,,,,,,,,,,,,,,,,,,,,,,,,,,,,,,,,,,,,,,,,,,,,,,,,,,,,,,,,,,,,,,,,,,,,,,,,,,,,,,,,,,,,,,,,,,,,,,,,,
,,,,,,611424d6d8ab51566db0adc1,62bbf9b64068efa22e44d4bd,2022-06-29_09h06.22.654,Colour_Asymmetry_Pilot,2022.1.3,Win32,60.04924038,62bbe60bf3d75ef465d3e404,0,147,147,33,1,onethree,,,,,,,,,,,,,,,,,,,,,,,,,,,,,,,,,,,,,,,,,,,,,,,,,,,,,,,,,,,,,,,,,,,,,,,,,,,,,,,,,,,,,,,,,,,,,,,,,,,,,,,,,,,,,,,,,,,,,,,,,,,,,,,,,,,,,,,,,,,,,,,,,,,,,,,,
,,,,,,611424d6d8ab51566db0adc1,62bbf9b64068efa22e44d4bd,2022-06-29_09h06.22.654,Colour_Asymmetry_Pilot,2022.1.3,Win32,60.04924038,62bbe60bf3d75ef465d3e404,0,148,148,67,1,twofour,,,,,,,,,,,,,,,,,,,,,,,,,,,,,,,,,,,,,,,,,,,,,,,,,,,,,,,,,,,,,,,,,,,,,,,,,,,,,,,,,,,,,,,,,,,,,,,,,,,,,,,,,,,,,,,,,,,,,,,,,,,,,,,,,,,,,,,,,,,,,,,,,,,,,,,,
,,,,,,611424d6d8ab51566db0adc1,62bbf9b64068efa22e44d4bd,2022-06-29_09h06.22.654,Colour_Asymmetry_Pilot,2022.1.3,Win32,60.04924038,62bbe60bf3d75ef465d3e404,0,149,149,108,1,threeone,,,,,,,,,,,,,,,,,,,,,,,,,,,,,,,,,,,,,,,,,,,,,,,,,,,,,,,,,,,,,,,,,,,,,,,,,,,,,,,,,,,,,,,,,,,,,,,,,,,,,,,,,,,,,,,,,,,,,,,,,,,,,,,,,,,,,,,,,,,,,,,,,,,,,,,,
,,,,,,611424d6d8ab51566db0adc1,62bbf9b64068efa22e44d4bd,2022-06-29_09h06.22.654,Colour_Asymmetry_Pilot,2022.1.3,Win32,60.04924038,62bbe60bf3d75ef465d3e404,0,150,150,100,1,threeone,,,,,,,,,,,,,,,,,,,,,,,,,,,,,,,,,,,,,,,,,,,,,,,,,,,,,,,,,,,,,,,,,,,,,,,,,,,,,,,,,,,,,,,,,,,,,,,,,,,,,,,,,,,,,,,,,,,,,,,,,,,,,,,,,,,,,,,,,,,,,,,,,,,,,,,,
,,,,,,611424d6d8ab51566db0adc1,62bbf9b64068efa22e44d4bd,2022-06-29_09h06.22.654,Colour_Asymmetry_Pilot,2022.1.3,Win32,60.04924038,62bbe60bf3d75ef465d3e404,0,151,151,23,1,fourthree,,,,,,,,,,,,,,,,,,,,,,,,,,,,,,,,,,,,,,,,,,,,,,,,,,,,,,,,,,,,,,,,,,,,,,,,,,,,,,,,,,,,,,,,,,,,,,,,,,,,,,,,,,,,,,,,,,,,,,,,,,,,,,,,,,,,,,,,,,,,,,,,,,,,,,,,
,,,,,,611424d6d8ab51566db0adc1,62bbf9b64068efa22e44d4bd,2022-06-29_09h06.22.654,Colour_Asymmetry_Pilot,2022.1.3,Win32,60.04924038,62bbe60bf3d75ef465d3e404,0,152,152,96,1,onetwo,,,,,,,,,,,,,,,,,,,,,,,,,,,,,,,,,,,,,,,,,,,,,,,,,,,,,,,,,,,,,,,,,,,,,,,,,,,,,,,,,,,,,,,,,,,,,,,,,,,,,,,,,,,,,,,,,,,,,,,,,,,,,,,,,,,,,,,,,,,,,,,,,,,,,,,,
,,,,,,611424d6d8ab51566db0adc1,62bbf9b64068efa22e44d4bd,2022-06-29_09h06.22.654,Colour_Asymmetry_Pilot,2022.1.3,Win32,60.04924038,62bbe60bf3d75ef465d3e404,0,153,153,18,1,twoone,,,,,,,,,,,,,,,,,,,,,,,,,,,,,,,,,,,,,,,,,,,,,,,,,,,,,,,,,,,,,,,,,,,,,,,,,,,,,,,,,,,,,,,,,,,,,,,,,,,,,,,,,,,,,,,,,,,,,,,,,,,,,,,,,,,,,,,,,,,,,,,,,,,,,,,,
,,,,,,611424d6d8ab51566db0adc1,62bbf9b64068efa22e44d4bd,2022-06-29_09h06.22.654,Colour_Asymmetry_Pilot,2022.1.3,Win32,60.04924038,62bbe60bf3d75ef465d3e404,0,154,154,71,1,fourthree,,,,,,,,,,,,,,,,,,,,,,,,,,,,,,,,,,,,,,,,,,,,,,,,,,,,,,,,,,,,,,,,,,,,,,,,,,,,,,,,,,,,,,,,,,,,,,,,,,,,,,,,,,,,,,,,,,,,,,,,,,,,,,,,,,,,,,,,,,,,,,,,,,,,,,,,
,,,,,,611424d6d8ab51566db0adc1,62bbf9b64068efa22e44d4bd,2022-06-29_09h06.22.654,Colour_Asymmetry_Pilot,2022.1.3,Win32,60.04924038,62bbe60bf3d75ef465d3e404,0,155,155,39,1,fourthree,,,,,,,,,,,,,,,,,,,,,,,,,,,,,,,,,,,,,,,,,,,,,,,,,,,,,,,,,,,,,,,,,,,,,,,,,,,,,,,,,,,,,,,,,,,,,,,,,,,,,,,,,,,,,,,,,,,,,,,,,,,,,,,,,,,,,,,,,,,,,,,,,,,,,,,,
,,,,,,611424d6d8ab51566db0adc1,62bbf9b64068efa22e44d4bd,2022-06-29_09h06.22.654,Colour_Asymmetry_Pilot,2022.1.3,Win32,60.04924038,62bbe60bf3d75ef465d3e404,0,156,156,137,1,onethree,,,,,,,,,,,,,,,,,,,,,,,,,,,,,,,,,,,,,,,,,,,,,,,,,,,,,,,,,,,,,,,,,,,,,,,,,,,,,,,,,,,,,,,,,,,,,,,,,,,,,,,,,,,,,,,,,,,,,,,,,,,,,,,,,,,,,,,,,,,,,,,,,,,,,,,,
,,,,,,611424d6d8ab51566db0adc1,62bbf9b64068efa22e44d4bd,2022-06-29_09h06.22.654,Colour_Asymmetry_Pilot,2022.1.3,Win32,60.04924038,62bbe60bf3d75ef465d3e404,0,157,157,159,1,fourthree,,,,,,,,,,,,,,,,,,,,,,,,,,,,,,,,,,,,,,,,,,,,,,,,,,,,,,,,,,,,,,,,,,,,,,,,,,,,,,,,,,,,,,,,,,,,,,,,,,,,,,,,,,,,,,,,,,,,,,,,,,,,,,,,,,,,,,,,,,,,,,,,,,,,,,,,
,,,,,,611424d6d8ab51566db0adc1,62bbf9b64068efa22e44d4bd,2022-06-29_09h06.22.654,Colour_Asymmetry_Pilot,2022.1.3,Win32,60.04924038,62bbe60bf3d75ef465d3e404,0,158,158,105,1,onethree,,,,,,,,,,,,,,,,,,,,,,,,,,,,,,,,,,,,,,,,,,,,,,,,,,,,,,,,,,,,,,,,,,,,,,,,,,,,,,,,,,,,,,,,,,,,,,,,,,,,,,,,,,,,,,,,,,,,,,,,,,,,,,,,,,,,,,,,,,,,,,,,,,,,,,,,
,,,,,,611424d6d8ab51566db0adc1,62bbf9b64068efa22e44d4bd,2022-06-29_09h06.22.654,Colour_Asymmetry_Pilot,2022.1.3,Win32,60.04924038,62bbe60bf3d75ef465d3e404,0,159,159,88,1,onetwo,,,,,,,,,,,,,,,,,,,,,,,,,,,,,,,,,,,,,,,,,,,,,,,,,,,,,,,,,,,,,,,,,,,,,,,,,,,,,,,,,,,,,,,,,,,,,,,,,,,,,,,,,,,,,,,,,,,,,,,,,,,,,,,,,,,,,,,,,,,,,,,,,,,,,,,,
,,,,,,611424d6d8ab51566db0adc1,62bbf9b64068efa22e44d4bd,2022-06-29_09h06.22.654,Colour_Asymmetry_Pilot,2022.1.3,Win32,60.04924038,62bbe60bf3d75ef465d3e404,0,160,160,101,1,threefour,,,,,,,,,,,,,,,,,,,,,,,,,,,,,,,,,,,,,,,,,,,,,,,,,,,,,,,,,,,,,,,,,,,,,,,,,,,,,,,,,,,,,,,,,,,,,,,,,,,,,,,,,,,,,,,,,,,,,,,,,,,,,,,,,,,,,,,,,,,,,,,,,,,,,,,,
,,,,,,611424d6d8ab51566db0adc1,62bbf9b64068efa22e44d4bd,2022-06-29_09h06.22.654,Colour_Asymmetry_Pilot,2022.1.3,Win32,60.04924038,62bbe60bf3d75ef465d3e404,0,161,161,43,1,twofour,,,,,,,,,,,,,,,,,,,,,,,,,,,,,,,,,,,,,,,,,,,,,,,,,,,,,,,,,,,,,,,,,,,,,,,,,,,,,,,,,,,,,,,,,,,,,,,,,,,,,,,,,,,,,,,,,,,,,,,,,,,,,,,,,,,,,,,,,,,,,,,,,,,,,,,,
,,,,,,611424d6d8ab51566db0adc1,62bbf9b64068efa22e44d4bd,2022-06-29_09h06.22.654,Colour_Asymmetry_Pilot,2022.1.3,Win32,60.04924038,62bbe60bf3d75ef465d3e404,,,,,,,space,7.2179,space,48.1133,space,92.9924,space,15.8195,space,5.2983,space,7.0346,"[-0.6,0.16860000000000008,0.44300000000000006]",fourthree,"[0.8115999999999999,-0.0040000000000000036,-0.09819999999999995]",-4,15.255,-49.75,136.25,1,0,0,response7disk_5,15.25,-6.25,1,0,0,rectangle_8,15.25,-6.25,1,0,0,1,15.25,-6.25,1,0,0,0,0,0,0,1,,,,,,,,,,,,,,,,,,,,,,,,,,,,,,,,,,,,,,,,,,,,,,,,,,,,,,,,,,,,,,,,,,,,,,,,,,,,,,,,,,,,,,,,,,,,,,,,,,,,,,,,,,,
,,,,,,611424d6d8ab51566db0adc1,62bbf9b64068efa22e44d4bd,2022-06-29_09h06.22.654,Colour_Asymmetry_Pilot,2022.1.3,Win32,60.04924038,62bbe60bf3d75ef465d3e404,,,,,,,,,,,,,,,,,,,"[0.3568,-0.20799999999999996,-0.9844]",fourtwo,"[-0.26280000000000003,-0.4746,-0.2158]",-3,5.0833,-88.5,60,1,0,0,response7disk_5,11.5,-2.5,1,0,0,rectangle_8,11.5,-2.5,1,0,0,1,11.5,-2.5,1,0,0,1,0,1,0,1,,,,,,,,,,,,,,,,,,,,,,,,,,,,,,,,,,,,,,,,,,,,,,,,,,,,,,,,,,,,,,,,,,,,,,,,,,,,,,,,,,,,,,,,,,,,,,,,,,,,,,,,,,,
,,,,,,611424d6d8ab51566db0adc1,62bbf9b64068efa22e44d4bd,2022-06-29_09h06.22.654,Colour_Asymmetry_Pilot,2022.1.3,Win32,60.04924038,62bbe60bf3d75ef465d3e404,,,,,,,,,,,,,,,,,,,"[-0.10599999999999998,-0.10599999999999998,0.5841999999999998]",onetwo,"[-0.10599999999999998,-0.15300000000000002,0.15280000000000005]",3,2.217,127.75,45,1,0,0,response1disk_5,5.25,3.75,1,0,0,rectangle_8,5.25,3.75,1,0,0,1,5.25,3.75,1,0,0,2,0,2,0,1,,,,,,,,,,,,,,,,,,,,,,,,,,,,,,,,,,,,,,,,,,,,,,,,,,,,,,,,,,,,,,,,,,,,,,,,,,,,,,,,,,,,,,,,,,,,,,,,,,,,,,,,,,,
,,,,,,611424d6d8ab51566db0adc1,62bbf9b64068efa22e44d4bd,2022-06-29_09h06.22.654,Colour_Asymmetry_Pilot,2022.1.3,Win32,60.04924038,62bbe60bf3d75ef465d3e404,,,,,,,,,,,,,,,,,,,"[-0.24719999999999998,0.5213999999999999,-0.12959999999999994]",onetwo,"[-0.06680000000000008,-0.45100000000000007,-0.906]",-4,1.134,-57.25,111.25,1,0,0,response7disk_5,17.75,1.25,1,0,0,rectangle_8,17.75,1.25,1,0,0,1,17.75,1.25,1,0,0,3,0,3,0,1,,,,,,,,,,,,,,,,,,,,,,,,,,,,,,,,,,,,,,,,,,,,,,,,,,,,,,,,,,,,,,,,,,,,,,,,,,,,,,,,,,,,,,,,,,,,,,,,,,,,,,,,,,,
,,,,,,611424d6d8ab51566db0adc1,62bbf9b64068efa22e44d4bd,2022-06-29_09h06.22.654,Colour_Asymmetry_Pilot,2022.1.3,Win32,60.04924038,62bbe60bf3d75ef465d3e404,,,,,,,,,,,,,,,,,,,"[0.8115999999999999,-0.0040000000000000036,-0.09819999999999995]",onethree,"[0.8274000000000001,-0.5844,-0.9452]",2,2.5682,109,-42.5,1,0,0,response3disk_5,10.25,6.25,1,0,0,rectangle_8,10.25,6.25,1,0,0,1,10.25,6.25,1,0,0,4,0,4,0,1,,,,,,,,,,,,,,,,,,,,,,,,,,,,,,,,,,,,,,,,,,,,,,,,,,,,,,,,,,,,,,,,,,,,,,,,,,,,,,,,,,,,,,,,,,,,,,,,,,,,,,,,,,,
,,,,,,611424d6d8ab51566db0adc1,62bbf9b64068efa22e44d4bd,2022-06-29_09h06.22.654,Colour_Asymmetry_Pilot,2022.1.3,Win32,60.04924038,62bbe60bf3d75ef465d3e404,,,,,,,,,,,,,,,,,,,"[-0.7412000000000001,-0.08239999999999992,-0.6864]",twofour,"[0.3568,-0.20799999999999996,-0.9844]",-4,2.7507,-68.5,130,1,0,0,response7disk_5,-16,3.75,1,0,0,rectangle_8,39,-122.5,1,0,0,1,4,-1.25,1,0,0,5,0,5,0,1,response3disk_7,4,rectangle_4,,,,,,,,,,,,,,,,,,,,,,,,,,,,,,,,,,,,,,,,,,,,,,,,,,,,,,,,,,,,,,,,,,,,,,,,,,,,,,,,,,,,,,,,,,,,,,,,,,,,,,,,
,,,,,,611424d6d8ab51566db0adc1,62bbf9b64068efa22e44d4bd,2022-06-29_09h06.22.654,Colour_Asymmetry_Pilot,2022.1.3,Win32,60.04924038,62bbe60bf3d75ef465d3e404,,,,,,,,,,,,,,,,,,,"[-0.6706000000000001,-0.6157999999999999,-0.6786]",onethree,"[-0.45899999999999996,-0.3256,-0.9374]",1,2.6493,40.25,-106.25,1,0,0,response3disk_5,17.75,3.75,1,0,0,rectangle_8,17.75,3.75,1,0,0,1,17.75,3.75,1,0,0,6,0,6,0,1,,,,,,,,,,,,,,,,,,,,,,,,,,,,,,,,,,,,,,,,,,,,,,,,,,,,,,,,,,,,,,,,,,,,,,,,,,,,,,,,,,,,,,,,,,,,,,,,,,,,,,,,,,,
,,,,,,611424d6d8ab51566db0adc1,62bbf9b64068efa22e44d4bd,2022-06-29_09h06.22.654,Colour_Asymmetry_Pilot,2022.1.3,Win32,60.04924038,62bbe60bf3d75ef465d3e404,,,,,,,,,,,,,,,,,,,,fourthree,,1,4.2853,,,,,,,,,,,,,,,,,,,,,,,,,,,,,,,,space,15.351,"[-0.6,0.16860000000000008,0.44300000000000006]","[-0.38039999999999996,-0.4276,-0.1452]",66.5,-100,1,0,0,response3disk,21.5,-1.25,1,0,0,rectangle,21.5,-1.25,1,0,0,,3,0.0015,0,21.5,-1.25,1,0,0,0,0,0,80,1,80,first,,,,,,,,,,,,,,,,,,,,,,,,,,,,,,,,,,,,,,,,,,,,,,,,,,,,,,,,,,,,,,,,,,,
,,,,,,611424d6d8ab51566db0adc1,62bbf9b64068efa22e44d4bd,2022-06-29_09h06.22.654,Colour_Asymmetry_Pilot,2022.1.3,Win32,60.04924038,62bbe60bf3d75ef465d3e404,,,,,,,,,,,,,,,,,,,,twoone,,1,1.2165,,,,,,,,,,,,,,,,,,,,,,,,,,,,,,,,,,"[-0.5922000000000001,-0.7492000000000001,-0.5296000000000001]","[-0.2942,-0.7648,-0.7492000000000001]",65.25,-95,1,0,0,response3disk,0.25,-1.25,1,0,0,rectangle,0.25,-1.25,1,0,0,,2,0.0021,0,0.25,-1.25,1,0,0,0,1,1,4,1,4,first,,,,,,,,,,,,,,,,,,,,,,,,,,,,,,,,,,,,,,,,,,,,,,,,,,,,,,,,,,,,,,,,,,,
,,,,,,611424d6d8ab51566db0adc1,62bbf9b64068efa22e44d4bd,2022-06-29_09h06.22.654,Colour_Asymmetry_Pilot,2022.1.3,Win32,60.04924038,62bbe60bf3d75ef465d3e404,,,,,,,,,,,,,,,,,,,,threefour,,-2,1.4668,,,,,,,,,,,,,,,,,,,,,,,,,,,,,,,,,,"[0.7802,-0.23140000000000005,-0.20799999999999996]","[0.9763999999999999,0.8588,-0.05900000000000005]",-89.75,-48.75,1,0,0,response5disk,-1,17.5,1,0,0,rectangle,-1,17.5,1,0,0,,1,0.0028,0,-1,17.5,1,0,0,0,2,2,130,1,49,second,,,,,,,,,,,,,,,,,,,,,,,,,,,,,,,,,,,,,,,,,,,,,,,,,,,,,,,,,,,,,,,,,,,
,,,,,,611424d6d8ab51566db0adc1,62bbf9b64068efa22e44d4bd,2022-06-29_09h06.22.654,Colour_Asymmetry_Pilot,2022.1.3,Win32,60.04924038,62bbe60bf3d75ef465d3e404,,,,,,,,,,,,,,,,,,,,twofour,,-2,4.7663,,,,,,,,,,,,,,,,,,,,,,,,,,,,,,,,,,"[-0.17659999999999998,-0.2864,-0.8354]","[0.9763999999999999,-0.1137999999999999,-0.6314]",-74.75,-30,1,0,0,response5disk,10.25,6.25,1,0,0,rectangle,10.25,6.25,1,0,0,,2,0.0032,0,10.25,6.25,1,0,0,0,3,3,61,1,61,first,,,,,,,,,,,,,,,,,,,,,,,,,,,,,,,,,,,,,,,,,,,,,,,,,,,,,,,,,,,,,,,,,,,
,,,,,,611424d6d8ab51566db0adc1,62bbf9b64068efa22e44d4bd,2022-06-29_09h06.22.654,Colour_Asymmetry_Pilot,2022.1.3,Win32,60.04924038,62bbe60bf3d75ef465d3e404,,,,,,,,,,,,,,,,,,,,fourtwo,,3,1.1499,,,,,,,,,,,,,,,,,,,,,,,,,,,,,,,,,,"[0.9686000000000001,0.3802000000000001,0.19999999999999996]","[0.05879999999999996,0.2784,0.5841999999999998]",102.75,80,1,0,0,response1disk,26.5,12.5,1,0,0,rectangle,26.5,12.5,1,0,0,,3,0.0031,0,26.5,12.5,1,0,0,0,4,4,53,1,53,first,,,,,,,,,,,,,,,,,,,,,,,,,,,,,,,,,,,,,,,,,,,,,,,,,,,,,,,,,,,,,,,,,,,
,,,,,,611424d6d8ab51566db0adc1,62bbf9b64068efa22e44d4bd,2022-06-29_09h06.22.654,Colour_Asymmetry_Pilot,2022.1.3,Win32,60.04924038,62bbe60bf3d75ef465d3e404,,,,,,,,,,,,,,,,,,,,onethree,,3,3.0832,,,,,,,,,,,,,,,,,,,,,,,,,,,,,,,,,,"[-0.48240000000000005,0.3175999999999999,0.2156]","[0.4196,0.4665999999999999,0.3568]",129,51.25,1,0,0,response1disk,32.75,-11.25,1,0,0,rectangle,32.75,-11.25,1,0,0,,2,0.0026,0,32.75,-11.25,1,0,0,0,5,5,101,1,20,second,,,,,,,,,,,,,,,,,,,,,,,,,,,,,,,,,,,,,,,,,,,,,,,,,,,,,,,,,,,,,,,,,,,
,,,,,,611424d6d8ab51566db0adc1,62bbf9b64068efa22e44d4bd,2022-06-29_09h06.22.654,Colour_Asymmetry_Pilot,2022.1.3,Win32,60.04924038,62bbe60bf3d75ef465d3e404,,,,,,,,,,,,,,,,,,,,onetwo,,-4,3.5694,,,,,,,,,,,,,,,,,,,,,,,,,,,,,,,,,,"[-0.9844,-0.9688,-0.9922]","[0.3568,-0.20799999999999996,-0.9844]",-51,101.25,1,0,0,response7disk,15.25,11.25,1,0,0,rectangle,15.25,11.25,1,0,0,,3,0.0033,0,15.25,11.25,1,0,0,0,6,6,96,1,15,second,,,,,,,,,,,,,,,,,,,,,,,,,,,,,,,,,,,,,,,,,,,,,,,,,,,,,,,,,,,,,,,,,,,
,,,,,,611424d6d8ab51566db0adc1,62bbf9b64068efa22e44d4bd,2022-06-29_09h06.22.654,Colour_Asymmetry_Pilot,2022.1.3,Win32,60.04924038,62bbe60bf3d75ef465d3e404,,,,,,,,,,,,,,,,,,,,threeone,,3,1.85,,,,,,,,,,,,,,,,,,,,,,,,,,,,,,,,,,"[-0.9688,-0.4902000000000001,-0.12159999999999993]","[-0.24719999999999998,-0.0354000000000001,0.3175999999999999]",119,63.75,1,0,0,response1disk,1.5,0,1,0,0,rectangle,1.5,0,1,0,0,,3,0.0002,0,1.5,0,1,0,0,0,7,7,42,1,42,first,,,,,,,,,,,,,,,,,,,,,,,,,,,,,,,,,,,,,,,,,,,,,,,,,,,,,,,,,,,,,,,,,,,
,,,,,,611424d6d8ab51566db0adc1,62bbf9b64068efa22e44d4bd,2022-06-29_09h06.22.654,Colour_Asymmetry_Pilot,2022.1.3,Win32,60.04924038,62bbe60bf3d75ef465d3e404,,,,,,,,,,,,,,,,,,,,fourthree,,-3,3.2334,,,,,,,,,,,,,,,,,,,,,,,,,,,,,,,,,,"[-0.20799999999999996,-0.655,-0.01980000000000004]","[-0.9766,-0.34920000000000007,0.2156]",-89.75,56.25,1,0,0,response7disk,-13.5,-2.5,1,0,0,rectangle,-13.5,-2.5,1,0,0,,3,0.0002,0,-13.5,-2.5,1,0,0,0,8,8,12,1,12,first,,,,,,,,,,,,,,,,,,,,,,,,,,,,,,,,,,,,,,,,,,,,,,,,,,,,,,,,,,,,,,,,,,,
,,,,,,611424d6d8ab51566db0adc1,62bbf9b64068efa22e44d4bd,2022-06-29_09h06.22.654,Colour_Asymmetry_Pilot,2022.1.3,Win32,60.04924038,62bbe60bf3d75ef465d3e404,,,,,,,,,,,,,,,,,,,,twofour,,-4,1.1665,,,,,,,,,,,,,,,,,,,,,,,,,,,,,,,,,,"[-0.34920000000000007,-0.702,-0.5216]","[-0.07459999999999989,0.12139999999999995,-0.9922]",-44.75,107.5,1,0,0,response7disk,1.5,-3.75,1,0,0,rectangle,1.5,-3.75,1,0,0,,2,0.0036,0,1.5,-3.75,1,0,0,0,9,9,94,1,13,second,,,,,,,,,,,,,,,,,,,,,,,,,,,,,,,,,,,,,,,,,,,,,,,,,,,,,,,,,,,,,,,,,,,
,,,,,,611424d6d8ab51566db0adc1,62bbf9b64068efa22e44d4bd,2022-06-29_09h06.22.654,Colour_Asymmetry_Pilot,2022.1.3,Win32,60.04924038,62bbe60bf3d75ef465d3e404,,,,,,,,,,,,,,,,,,,,twoone,,-4,0.7834,,,,,,,,,,,,,,,,,,,,,,,,,,,,,,,,,,"[-0.6,0.16860000000000008,0.44300000000000006]","[0.7176,-0.906,-0.6864]",-43.5,100,1,0,0,response7disk,25.25,-2.5,1,0,0,rectangle,25.25,-2.5,1,0,0,,3,0.0028,0,25.25,-2.5,1,0,0,0,10,10,120,1,39,second,,,,,,,,,,,,,,,,,,,,,,,,,,,,,,,,,,,,,,,,,,,,,,,,,,,,,,,,,,,,,,,,,,,
,,,,,,611424d6d8ab51566db0adc1,62bbf9b64068efa22e44d4bd,2022-06-29_09h06.22.654,Colour_Asymmetry_Pilot,2022.1.3,Win32,60.04924038,62bbe60bf3d75ef465d3e404,,,,,,,,,,,,,,,,,,,,twofour,,2,3.8999,,,,,,,,,,,,,,,,,,,,,,,,,,,,,,,,,,"[-0.5452,-0.608,0.2470000000000001]","[-0.01980000000000004,-0.5138,-0.38039999999999996]",109,-35,1,0,0,response3disk,5.25,13.75,1,0,0,rectangle,5.25,13.75,1,0,0,,3,1E-04,0,5.25,13.75,1,0,0,0,11,11,126,1,45,second,,,,,,,,,,,,,,,,,,,,,,,,,,,,,,,,,,,,,,,,,,,,,,,,,,,,,,,,,,,,,,,,,,,
,,,,,,611424d6d8ab51566db0adc1,62bbf9b64068efa22e44d4bd,2022-06-29_09h06.22.654,Colour_Asymmetry_Pilot,2022.1.3,Win32,60.04924038,62bbe60bf3d75ef465d3e404,,,,,,,,,,,,,,,,,,,,threeone,,-4,1.0165,,,,,,,,,,,,,,,,,,,,,,,,,,,,,,,,,,"[0.9763999999999999,0.8588,-0.05900000000000005]","[0.7802,-0.23140000000000005,-0.20799999999999996]",-67.25,103.75,1,0,0,response7disk,19,16.25,1,0,0,rectangle,19,16.25,1,0,0,,1,0.0037,0,19,16.25,1,0,0,0,12,12,49,1,49,first,,,,,,,,,,,,,,,,,,,,,,,,,,,,,,,,,,,,,,,,,,,,,,,,,,,,,,,,,,,,,,,,,,,
,,,,,,611424d6d8ab51566db0adc1,62bbf9b64068efa22e44d4bd,2022-06-29_09h06.22.654,Colour_Asymmetry_Pilot,2022.1.3,Win32,60.04924038,62bbe60bf3d75ef465d3e404,,,,,,,,,,,,,,,,,,,,threefour,,2,2.0831,,,,,,,,,,,,,,,,,,,,,,,,,,,,,,,,,,"[0.7646000000000002,0.07440000000000002,0.2704]","[0.2784,-0.31000000000000005,-0.5452]",116.5,-38.75,1,0,0,response3disk,-11,12.5,1,0,0,rectangle,-11,12.5,1,0,0,,3,0.0027,0,-11,12.5,1,0,0,0,13,13,32,1,32,first,,,,,,,,,,,,,,,,,,,,,,,,,,,,,,,,,,,,,,,,,,,,,,,,,,,,,,,,,,,,,,,,,,,
,,,,,,611424d6d8ab51566db0adc1,62bbf9b64068efa22e44d4bd,2022-06-29_09h06.22.654,Colour_Asymmetry_Pilot,2022.1.3,Win32,60.04924038,62bbe60bf3d75ef465d3e404,,,,,,,,,,,,,,,,,,,,twoone,,-4,2.2833,,,,,,,,,,,,,,,,,,,,,,,,,,,,,,,,,,"[-0.5922000000000001,-0.7492000000000001,-0.5296000000000001]","[0.2784,-0.31000000000000005,-0.5452]",-41,143.75,1,0,0,response7disk,4,11.25,1,0,0,rectangle,4,11.25,1,0,0,,1,0.0035,0,4,11.25,1,0,0,0,14,14,155,1,74,second,,,,,,,,,,,,,,,,,,,,,,,,,,,,,,,,,,,,,,,,,,,,,,,,,,,,,,,,,,,,,,,,,,,
,,,,,,611424d6d8ab51566db0adc1,62bbf9b64068efa22e44d4bd,2022-06-29_09h06.22.654,Colour_Asymmetry_Pilot,2022.1.3,Win32,60.04924038,62bbe60bf3d75ef465d3e404,,,,,,,,,,,,,,,,,,,,threefour,,-4,0.5502,,,,,,,,,,,,,,,,,,,,,,,,,,,,,,,,,,"[0.6547999999999998,-0.043199999999999905,-0.011800000000000033]","[-0.48240000000000005,0.3175999999999999,0.2156]",-44.75,102.5,1,0,0,response7disk,6.5,12.5,1,0,0,rectangle,6.5,12.5,1,0,0,,3,0.0031,0,6.5,12.5,1,0,0,0,15,15,129,1,48,second,,,,,,,,,,,,,,,,,,,,,,,,,,,,,,,,,,,,,,,,,,,,,,,,,,,,,,,,,,,,,,,,,,,
,,,,,,611424d6d8ab51566db0adc1,62bbf9b64068efa22e44d4bd,2022-06-29_09h06.22.654,Colour_Asymmetry_Pilot,2022.1.3,Win32,60.04924038,62bbe60bf3d75ef465d3e404,,,,,,,,,,,,,,,,,,,,twofour,,-2,4.4498,,,,,,,,,,,,,,,,,,,,,,,,,,,,,,,,,,"[-0.34920000000000007,-0.702,-0.5216]","[0.8274000000000001,-0.5844,-0.9452]",-84.75,-32.5,1,0,0,response5disk,-11,7.5,1,0,0,rectangle,-11,7.5,1,0,0,,1,0.0031,0,-11,7.5,1,0,0,0,16,16,29,1,29,first,,,,,,,,,,,,,,,,,,,,,,,,,,,,,,,,,,,,,,,,,,,,,,,,,,,,,,,,,,,,,,,,,,,
,,,,,,611424d6d8ab51566db0adc1,62bbf9b64068efa22e44d4bd,2022-06-29_09h06.22.654,Colour_Asymmetry_Pilot,2022.1.3,Win32,60.04924038,62bbe60bf3d75ef465d3e404,,,,,,,,,,,,,,,,,,,,fourthree,,-4,0.7165,,,,,,,,,,,,,,,,,,,,,,,,,,,,,,,,,,"[0.9372,0.9450000000000001,0.8980000000000001]","[0.796,0.2156,-0.27859999999999996]",-61,108.75,1,0,0,response7disk,-26,15,1,0,0,rectangle,-26,15,1,0,0,,3,0.0039,0,-26,15,1,0,0,0,17,17,124,1,43,second,,,,,,,,,,,,,,,,,,,,,,,,,,,,,,,,,,,,,,,,,,,,,,,,,,,,,,,,,,,,,,,,,,,
,,,,,,611424d6d8ab51566db0adc1,62bbf9b64068efa22e44d4bd,2022-06-29_09h06.22.654,Colour_Asymmetry_Pilot,2022.1.3,Win32,60.04924038,62bbe60bf3d75ef465d3e404,,,,,,,,,,,,,,,,,,,,onetwo,,-4,0.5166,,,,,,,,,,,,,,,,,,,,,,,,,,,,,,,,,,"[0.6625999999999999,0.4980000000000002,-0.357]","[-0.34920000000000007,-0.702,-0.5216]",-49.75,98.75,1,0,0,response7disk,1.5,7.5,1,0,0,rectangle,1.5,7.5,1,0,0,,3,0.0002,0,1.5,7.5,1,0,0,0,18,18,98,1,17,second,,,,,,,,,,,,,,,,,,,,,,,,,,,,,,,,,,,,,,,,,,,,,,,,,,,,,,,,,,,,,,,,,,,
,,,,,,611424d6d8ab51566db0adc1,62bbf9b64068efa22e44d4bd,2022-06-29_09h06.22.654,Colour_Asymmetry_Pilot,2022.1.3,Win32,60.04924038,62bbe60bf3d75ef465d3e404,,,,,,,,,,,,,,,,,,,,fourtwo,,-4,0.5833,,,,,,,,,,,,,,,,,,,,,,,,,,,,,,,,,,"[-0.45899999999999996,-0.3256,-0.9374]","[-0.6235999999999999,-0.6786,-0.08239999999999992]",-52.25,111.25,1,0,0,response7disk,-6,3.75,1,0,0,rectangle,-6,3.75,1,0,0,,1,0.0028,0,-6,3.75,1,0,0,0,19,19,73,1,73,first,,,,,,,,,,,,,,,,,,,,,,,,,,,,,,,,,,,,,,,,,,,,,,,,,,,,,,,,,,,,,,,,,,,
