trials.thisRepN,trials.thisTrialN,trials.thisN,trials.thisIndex,trials.ran,Colourcodes,participant,session,date,expName,psychopyVersion,OS,frameRate,study_id,trials_4.thisRepN,trials_4.thisTrialN,trials_4.thisN,trials_4.thisIndex,trials_4.ran,StimulusPos,key_resp.keys,key_resp.rt,key_resp_2.keys,key_resp_2.rt,key_resp_15.keys,key_resp_15.rt,key_resp_17.keys,key_resp_17.rt,key_resp_9.keys,key_resp_9.rt,key_resp_10.keys,key_resp_10.rt,Circle1_col,Ecc,Circle2_col,similarity,response_time,mouse_5.x,mouse_5.y,mouse_5.leftButton,mouse_5.midButton,mouse_5.rightButton,mouse_5.clicked_name,mouse_10.x,mouse_10.y,mouse_10.leftButton,mouse_10.midButton,mouse_10.rightButton,mouse_10.clicked_name,mouse_7.x,mouse_7.y,mouse_7.leftButton,mouse_7.midButton,mouse_7.rightButton,mouse_7.clicked_name,catchprac,catchnumberprac,mouse_6.x,mouse_6.y,mouse_6.leftButton,mouse_6.midButton,mouse_6.rightButton,mouse_6.clicked_name,duringprac.thisRepN,duringprac.thisTrialN,duringprac.thisN,duringprac.thisIndex,duringprac.ran,key_resp_22.keys,key_resp_22.rt,Circle1_colour,Circle2_colour,mouse.x,mouse.y,mouse.leftButton,mouse.midButton,mouse.rightButton,mouse.clicked_name,mouse_2.x,mouse_2.y,mouse_2.leftButton,mouse_2.midButton,mouse_2.rightButton,mouse_2.clicked_name,mouse_3.x,mouse_3.y,mouse_3.leftButton,mouse_3.midButton,mouse_3.rightButton,catchresponse,catchnumber,response_time_catch,Catch,mouse_11.x,mouse_11.y,mouse_11.leftButton,mouse_11.midButton,mouse_11.rightButton,trials_2.thisRepN,trials_2.thisTrialN,trials_2.thisN,trials_2.thisIndex,trials_2.ran,Colourpair,Temporder,mouse_3.clicked_name,mouse_11.clicked_name,trials_3.thisRepN,trials_3.thisTrialN,trials_3.thisN,trials_3.thisIndex,trials_3.ran,key_resp_instr_Ishi.keys,key_resp_instr_Ishi.rt,Ishi_trial_keyresp.keys,Ishi_trial_keyresp.rt,Ishi_textbox.text,Ishi_loop.thisRepN,Ishi_loop.thisTrialN,Ishi_loop.thisN,Ishi_loop.thisIndex,Ishi_loop.ran,imageaddress,textbox.text,mouse_4.x,mouse_4.y,mouse_4.leftButton,mouse_4.midButton,mouse_4.rightButton,mouse_4.clicked_name,textbox_2.text,mouse_8.x,mouse_8.y,mouse_8.leftButton,mouse_8.midButton,mouse_8.rightButton,mouse_8.clicked_name,textbox_3.text,mouse_9.x,mouse_9.y,mouse_9.leftButton,mouse_9.midButton,mouse_9.rightButton,mouse_9.clicked_name,textbox_4.text,mouse_12.x,mouse_12.y,mouse_12.leftButton,mouse_12.midButton,mouse_12.rightButton,mouse_12.clicked_name,textbox_5.text,mouse_13.x,mouse_13.y,mouse_13.leftButton,mouse_13.midButton,mouse_13.rightButton,mouse_13.clicked_name,textbox_6.text,mouse_14.x,mouse_14.y,mouse_14.leftButton,mouse_14.midButton,mouse_14.rightButton,mouse_14.clicked_name,textbox_7.text,mouse_15.x,mouse_15.y,mouse_15.leftButton,mouse_15.midButton,mouse_15.rightButton,mouse_15.clicked_name
0,0,0,4,1,,6131d01bc956974e057e9f72,62bbfb46f096412934dc47db,2022-06-29_09h12.35.094,Colour_Asymmetry_Pilot,2022.1.3,Win32,61.01653548,62bbe60bf3d75ef465d3e404,,,,,,,,,,,,,,,,,,,,,,,,,,,,,,,,,,,,,,,,,,,,,,,,,,,,,,,,,,,,,,,,,,,,,,,,,,,,,,,,,,,,,,,,,,,,,,,,,,,,,,,,,,,,,,,,,,,,,,,,,,,,,,,,,,,,,,,,,,,,,,,,,,,,,,,,,,,,,,
0,1,1,24,1,,6131d01bc956974e057e9f72,62bbfb46f096412934dc47db,2022-06-29_09h12.35.094,Colour_Asymmetry_Pilot,2022.1.3,Win32,61.01653548,62bbe60bf3d75ef465d3e404,,,,,,,,,,,,,,,,,,,,,,,,,,,,,,,,,,,,,,,,,,,,,,,,,,,,,,,,,,,,,,,,,,,,,,,,,,,,,,,,,,,,,,,,,,,,,,,,,,,,,,,,,,,,,,,,,,,,,,,,,,,,,,,,,,,,,,,,,,,,,,,,,,,,,,,,,,,,,,
0,2,2,25,1,,6131d01bc956974e057e9f72,62bbfb46f096412934dc47db,2022-06-29_09h12.35.094,Colour_Asymmetry_Pilot,2022.1.3,Win32,61.01653548,62bbe60bf3d75ef465d3e404,,,,,,,,,,,,,,,,,,,,,,,,,,,,,,,,,,,,,,,,,,,,,,,,,,,,,,,,,,,,,,,,,,,,,,,,,,,,,,,,,,,,,,,,,,,,,,,,,,,,,,,,,,,,,,,,,,,,,,,,,,,,,,,,,,,,,,,,,,,,,,,,,,,,,,,,,,,,,,
0,3,3,54,1,,6131d01bc956974e057e9f72,62bbfb46f096412934dc47db,2022-06-29_09h12.35.094,Colour_Asymmetry_Pilot,2022.1.3,Win32,61.01653548,62bbe60bf3d75ef465d3e404,,,,,,,,,,,,,,,,,,,,,,,,,,,,,,,,,,,,,,,,,,,,,,,,,,,,,,,,,,,,,,,,,,,,,,,,,,,,,,,,,,,,,,,,,,,,,,,,,,,,,,,,,,,,,,,,,,,,,,,,,,,,,,,,,,,,,,,,,,,,,,,,,,,,,,,,,,,,,,
0,4,4,72,1,,6131d01bc956974e057e9f72,62bbfb46f096412934dc47db,2022-06-29_09h12.35.094,Colour_Asymmetry_Pilot,2022.1.3,Win32,61.01653548,62bbe60bf3d75ef465d3e404,,,,,,,,,,,,,,,,,,,,,,,,,,,,,,,,,,,,,,,,,,,,,,,,,,,,,,,,,,,,,,,,,,,,,,,,,,,,,,,,,,,,,,,,,,,,,,,,,,,,,,,,,,,,,,,,,,,,,,,,,,,,,,,,,,,,,,,,,,,,,,,,,,,,,,,,,,,,,,
0,5,5,16,1,,6131d01bc956974e057e9f72,62bbfb46f096412934dc47db,2022-06-29_09h12.35.094,Colour_Asymmetry_Pilot,2022.1.3,Win32,61.01653548,62bbe60bf3d75ef465d3e404,,,,,,,,,,,,,,,,,,,,,,,,,,,,,,,,,,,,,,,,,,,,,,,,,,,,,,,,,,,,,,,,,,,,,,,,,,,,,,,,,,,,,,,,,,,,,,,,,,,,,,,,,,,,,,,,,,,,,,,,,,,,,,,,,,,,,,,,,,,,,,,,,,,,,,,,,,,,,,
0,6,6,84,1,,6131d01bc956974e057e9f72,62bbfb46f096412934dc47db,2022-06-29_09h12.35.094,Colour_Asymmetry_Pilot,2022.1.3,Win32,61.01653548,62bbe60bf3d75ef465d3e404,,,,,,,,,,,,,,,,,,,,,,,,,,,,,,,,,,,,,,,,,,,,,,,,,,,,,,,,,,,,,,,,,,,,,,,,,,,,,,,,,,,,,,,,,,,,,,,,,,,,,,,,,,,,,,,,,,,,,,,,,,,,,,,,,,,,,,,,,,,,,,,,,,,,,,,,,,,,,,
0,7,7,48,1,,6131d01bc956974e057e9f72,62bbfb46f096412934dc47db,2022-06-29_09h12.35.094,Colour_Asymmetry_Pilot,2022.1.3,Win32,61.01653548,62bbe60bf3d75ef465d3e404,,,,,,,,,,,,,,,,,,,,,,,,,,,,,,,,,,,,,,,,,,,,,,,,,,,,,,,,,,,,,,,,,,,,,,,,,,,,,,,,,,,,,,,,,,,,,,,,,,,,,,,,,,,,,,,,,,,,,,,,,,,,,,,,,,,,,,,,,,,,,,,,,,,,,,,,,,,,,,
0,8,8,53,1,,6131d01bc956974e057e9f72,62bbfb46f096412934dc47db,2022-06-29_09h12.35.094,Colour_Asymmetry_Pilot,2022.1.3,Win32,61.01653548,62bbe60bf3d75ef465d3e404,,,,,,,,,,,,,,,,,,,,,,,,,,,,,,,,,,,,,,,,,,,,,,,,,,,,,,,,,,,,,,,,,,,,,,,,,,,,,,,,,,,,,,,,,,,,,,,,,,,,,,,,,,,,,,,,,,,,,,,,,,,,,,,,,,,,,,,,,,,,,,,,,,,,,,,,,,,,,,
0,9,9,88,1,,6131d01bc956974e057e9f72,62bbfb46f096412934dc47db,2022-06-29_09h12.35.094,Colour_Asymmetry_Pilot,2022.1.3,Win32,61.01653548,62bbe60bf3d75ef465d3e404,,,,,,,,,,,,,,,,,,,,,,,,,,,,,,,,,,,,,,,,,,,,,,,,,,,,,,,,,,,,,,,,,,,,,,,,,,,,,,,,,,,,,,,,,,,,,,,,,,,,,,,,,,,,,,,,,,,,,,,,,,,,,,,,,,,,,,,,,,,,,,,,,,,,,,,,,,,,,,
0,10,10,71,1,,6131d01bc956974e057e9f72,62bbfb46f096412934dc47db,2022-06-29_09h12.35.094,Colour_Asymmetry_Pilot,2022.1.3,Win32,61.01653548,62bbe60bf3d75ef465d3e404,,,,,,,,,,,,,,,,,,,,,,,,,,,,,,,,,,,,,,,,,,,,,,,,,,,,,,,,,,,,,,,,,,,,,,,,,,,,,,,,,,,,,,,,,,,,,,,,,,,,,,,,,,,,,,,,,,,,,,,,,,,,,,,,,,,,,,,,,,,,,,,,,,,,,,,,,,,,,,
0,11,11,1,1,,6131d01bc956974e057e9f72,62bbfb46f096412934dc47db,2022-06-29_09h12.35.094,Colour_Asymmetry_Pilot,2022.1.3,Win32,61.01653548,62bbe60bf3d75ef465d3e404,,,,,,,,,,,,,,,,,,,,,,,,,,,,,,,,,,,,,,,,,,,,,,,,,,,,,,,,,,,,,,,,,,,,,,,,,,,,,,,,,,,,,,,,,,,,,,,,,,,,,,,,,,,,,,,,,,,,,,,,,,,,,,,,,,,,,,,,,,,,,,,,,,,,,,,,,,,,,,
0,12,12,14,1,,6131d01bc956974e057e9f72,62bbfb46f096412934dc47db,2022-06-29_09h12.35.094,Colour_Asymmetry_Pilot,2022.1.3,Win32,61.01653548,62bbe60bf3d75ef465d3e404,,,,,,,,,,,,,,,,,,,,,,,,,,,,,,,,,,,,,,,,,,,,,,,,,,,,,,,,,,,,,,,,,,,,,,,,,,,,,,,,,,,,,,,,,,,,,,,,,,,,,,,,,,,,,,,,,,,,,,,,,,,,,,,,,,,,,,,,,,,,,,,,,,,,,,,,,,,,,,
0,13,13,0,1,,6131d01bc956974e057e9f72,62bbfb46f096412934dc47db,2022-06-29_09h12.35.094,Colour_Asymmetry_Pilot,2022.1.3,Win32,61.01653548,62bbe60bf3d75ef465d3e404,,,,,,,,,,,,,,,,,,,,,,,,,,,,,,,,,,,,,,,,,,,,,,,,,,,,,,,,,,,,,,,,,,,,,,,,,,,,,,,,,,,,,,,,,,,,,,,,,,,,,,,,,,,,,,,,,,,,,,,,,,,,,,,,,,,,,,,,,,,,,,,,,,,,,,,,,,,,,,
0,14,14,82,1,,6131d01bc956974e057e9f72,62bbfb46f096412934dc47db,2022-06-29_09h12.35.094,Colour_Asymmetry_Pilot,2022.1.3,Win32,61.01653548,62bbe60bf3d75ef465d3e404,,,,,,,,,,,,,,,,,,,,,,,,,,,,,,,,,,,,,,,,,,,,,,,,,,,,,,,,,,,,,,,,,,,,,,,,,,,,,,,,,,,,,,,,,,,,,,,,,,,,,,,,,,,,,,,,,,,,,,,,,,,,,,,,,,,,,,,,,,,,,,,,,,,,,,,,,,,,,,
0,15,15,36,1,,6131d01bc956974e057e9f72,62bbfb46f096412934dc47db,2022-06-29_09h12.35.094,Colour_Asymmetry_Pilot,2022.1.3,Win32,61.01653548,62bbe60bf3d75ef465d3e404,,,,,,,,,,,,,,,,,,,,,,,,,,,,,,,,,,,,,,,,,,,,,,,,,,,,,,,,,,,,,,,,,,,,,,,,,,,,,,,,,,,,,,,,,,,,,,,,,,,,,,,,,,,,,,,,,,,,,,,,,,,,,,,,,,,,,,,,,,,,,,,,,,,,,,,,,,,,,,
0,16,16,15,1,,6131d01bc956974e057e9f72,62bbfb46f096412934dc47db,2022-06-29_09h12.35.094,Colour_Asymmetry_Pilot,2022.1.3,Win32,61.01653548,62bbe60bf3d75ef465d3e404,,,,,,,,,,,,,,,,,,,,,,,,,,,,,,,,,,,,,,,,,,,,,,,,,,,,,,,,,,,,,,,,,,,,,,,,,,,,,,,,,,,,,,,,,,,,,,,,,,,,,,,,,,,,,,,,,,,,,,,,,,,,,,,,,,,,,,,,,,,,,,,,,,,,,,,,,,,,,,
0,17,17,90,1,,6131d01bc956974e057e9f72,62bbfb46f096412934dc47db,2022-06-29_09h12.35.094,Colour_Asymmetry_Pilot,2022.1.3,Win32,61.01653548,62bbe60bf3d75ef465d3e404,,,,,,,,,,,,,,,,,,,,,,,,,,,,,,,,,,,,,,,,,,,,,,,,,,,,,,,,,,,,,,,,,,,,,,,,,,,,,,,,,,,,,,,,,,,,,,,,,,,,,,,,,,,,,,,,,,,,,,,,,,,,,,,,,,,,,,,,,,,,,,,,,,,,,,,,,,,,,,
0,18,18,47,1,,6131d01bc956974e057e9f72,62bbfb46f096412934dc47db,2022-06-29_09h12.35.094,Colour_Asymmetry_Pilot,2022.1.3,Win32,61.01653548,62bbe60bf3d75ef465d3e404,,,,,,,,,,,,,,,,,,,,,,,,,,,,,,,,,,,,,,,,,,,,,,,,,,,,,,,,,,,,,,,,,,,,,,,,,,,,,,,,,,,,,,,,,,,,,,,,,,,,,,,,,,,,,,,,,,,,,,,,,,,,,,,,,,,,,,,,,,,,,,,,,,,,,,,,,,,,,,
0,19,19,89,1,,6131d01bc956974e057e9f72,62bbfb46f096412934dc47db,2022-06-29_09h12.35.094,Colour_Asymmetry_Pilot,2022.1.3,Win32,61.01653548,62bbe60bf3d75ef465d3e404,,,,,,,,,,,,,,,,,,,,,,,,,,,,,,,,,,,,,,,,,,,,,,,,,,,,,,,,,,,,,,,,,,,,,,,,,,,,,,,,,,,,,,,,,,,,,,,,,,,,,,,,,,,,,,,,,,,,,,,,,,,,,,,,,,,,,,,,,,,,,,,,,,,,,,,,,,,,,,
0,20,20,33,1,,6131d01bc956974e057e9f72,62bbfb46f096412934dc47db,2022-06-29_09h12.35.094,Colour_Asymmetry_Pilot,2022.1.3,Win32,61.01653548,62bbe60bf3d75ef465d3e404,,,,,,,,,,,,,,,,,,,,,,,,,,,,,,,,,,,,,,,,,,,,,,,,,,,,,,,,,,,,,,,,,,,,,,,,,,,,,,,,,,,,,,,,,,,,,,,,,,,,,,,,,,,,,,,,,,,,,,,,,,,,,,,,,,,,,,,,,,,,,,,,,,,,,,,,,,,,,,
0,21,21,69,1,,6131d01bc956974e057e9f72,62bbfb46f096412934dc47db,2022-06-29_09h12.35.094,Colour_Asymmetry_Pilot,2022.1.3,Win32,61.01653548,62bbe60bf3d75ef465d3e404,,,,,,,,,,,,,,,,,,,,,,,,,,,,,,,,,,,,,,,,,,,,,,,,,,,,,,,,,,,,,,,,,,,,,,,,,,,,,,,,,,,,,,,,,,,,,,,,,,,,,,,,,,,,,,,,,,,,,,,,,,,,,,,,,,,,,,,,,,,,,,,,,,,,,,,,,,,,,,
0,22,22,87,1,,6131d01bc956974e057e9f72,62bbfb46f096412934dc47db,2022-06-29_09h12.35.094,Colour_Asymmetry_Pilot,2022.1.3,Win32,61.01653548,62bbe60bf3d75ef465d3e404,,,,,,,,,,,,,,,,,,,,,,,,,,,,,,,,,,,,,,,,,,,,,,,,,,,,,,,,,,,,,,,,,,,,,,,,,,,,,,,,,,,,,,,,,,,,,,,,,,,,,,,,,,,,,,,,,,,,,,,,,,,,,,,,,,,,,,,,,,,,,,,,,,,,,,,,,,,,,,
0,23,23,61,1,,6131d01bc956974e057e9f72,62bbfb46f096412934dc47db,2022-06-29_09h12.35.094,Colour_Asymmetry_Pilot,2022.1.3,Win32,61.01653548,62bbe60bf3d75ef465d3e404,,,,,,,,,,,,,,,,,,,,,,,,,,,,,,,,,,,,,,,,,,,,,,,,,,,,,,,,,,,,,,,,,,,,,,,,,,,,,,,,,,,,,,,,,,,,,,,,,,,,,,,,,,,,,,,,,,,,,,,,,,,,,,,,,,,,,,,,,,,,,,,,,,,,,,,,,,,,,,
0,24,24,22,1,,6131d01bc956974e057e9f72,62bbfb46f096412934dc47db,2022-06-29_09h12.35.094,Colour_Asymmetry_Pilot,2022.1.3,Win32,61.01653548,62bbe60bf3d75ef465d3e404,,,,,,,,,,,,,,,,,,,,,,,,,,,,,,,,,,,,,,,,,,,,,,,,,,,,,,,,,,,,,,,,,,,,,,,,,,,,,,,,,,,,,,,,,,,,,,,,,,,,,,,,,,,,,,,,,,,,,,,,,,,,,,,,,,,,,,,,,,,,,,,,,,,,,,,,,,,,,,
0,25,25,67,1,,6131d01bc956974e057e9f72,62bbfb46f096412934dc47db,2022-06-29_09h12.35.094,Colour_Asymmetry_Pilot,2022.1.3,Win32,61.01653548,62bbe60bf3d75ef465d3e404,,,,,,,,,,,,,,,,,,,,,,,,,,,,,,,,,,,,,,,,,,,,,,,,,,,,,,,,,,,,,,,,,,,,,,,,,,,,,,,,,,,,,,,,,,,,,,,,,,,,,,,,,,,,,,,,,,,,,,,,,,,,,,,,,,,,,,,,,,,,,,,,,,,,,,,,,,,,,,
0,26,26,21,1,,6131d01bc956974e057e9f72,62bbfb46f096412934dc47db,2022-06-29_09h12.35.094,Colour_Asymmetry_Pilot,2022.1.3,Win32,61.01653548,62bbe60bf3d75ef465d3e404,,,,,,,,,,,,,,,,,,,,,,,,,,,,,,,,,,,,,,,,,,,,,,,,,,,,,,,,,,,,,,,,,,,,,,,,,,,,,,,,,,,,,,,,,,,,,,,,,,,,,,,,,,,,,,,,,,,,,,,,,,,,,,,,,,,,,,,,,,,,,,,,,,,,,,,,,,,,,,
0,27,27,45,1,,6131d01bc956974e057e9f72,62bbfb46f096412934dc47db,2022-06-29_09h12.35.094,Colour_Asymmetry_Pilot,2022.1.3,Win32,61.01653548,62bbe60bf3d75ef465d3e404,,,,,,,,,,,,,,,,,,,,,,,,,,,,,,,,,,,,,,,,,,,,,,,,,,,,,,,,,,,,,,,,,,,,,,,,,,,,,,,,,,,,,,,,,,,,,,,,,,,,,,,,,,,,,,,,,,,,,,,,,,,,,,,,,,,,,,,,,,,,,,,,,,,,,,,,,,,,,,
0,28,28,81,1,,6131d01bc956974e057e9f72,62bbfb46f096412934dc47db,2022-06-29_09h12.35.094,Colour_Asymmetry_Pilot,2022.1.3,Win32,61.01653548,62bbe60bf3d75ef465d3e404,,,,,,,,,,,,,,,,,,,,,,,,,,,,,,,,,,,,,,,,,,,,,,,,,,,,,,,,,,,,,,,,,,,,,,,,,,,,,,,,,,,,,,,,,,,,,,,,,,,,,,,,,,,,,,,,,,,,,,,,,,,,,,,,,,,,,,,,,,,,,,,,,,,,,,,,,,,,,,
0,29,29,18,1,,6131d01bc956974e057e9f72,62bbfb46f096412934dc47db,2022-06-29_09h12.35.094,Colour_Asymmetry_Pilot,2022.1.3,Win32,61.01653548,62bbe60bf3d75ef465d3e404,,,,,,,,,,,,,,,,,,,,,,,,,,,,,,,,,,,,,,,,,,,,,,,,,,,,,,,,,,,,,,,,,,,,,,,,,,,,,,,,,,,,,,,,,,,,,,,,,,,,,,,,,,,,,,,,,,,,,,,,,,,,,,,,,,,,,,,,,,,,,,,,,,,,,,,,,,,,,,
0,30,30,78,1,,6131d01bc956974e057e9f72,62bbfb46f096412934dc47db,2022-06-29_09h12.35.094,Colour_Asymmetry_Pilot,2022.1.3,Win32,61.01653548,62bbe60bf3d75ef465d3e404,,,,,,,,,,,,,,,,,,,,,,,,,,,,,,,,,,,,,,,,,,,,,,,,,,,,,,,,,,,,,,,,,,,,,,,,,,,,,,,,,,,,,,,,,,,,,,,,,,,,,,,,,,,,,,,,,,,,,,,,,,,,,,,,,,,,,,,,,,,,,,,,,,,,,,,,,,,,,,
0,31,31,85,1,,6131d01bc956974e057e9f72,62bbfb46f096412934dc47db,2022-06-29_09h12.35.094,Colour_Asymmetry_Pilot,2022.1.3,Win32,61.01653548,62bbe60bf3d75ef465d3e404,,,,,,,,,,,,,,,,,,,,,,,,,,,,,,,,,,,,,,,,,,,,,,,,,,,,,,,,,,,,,,,,,,,,,,,,,,,,,,,,,,,,,,,,,,,,,,,,,,,,,,,,,,,,,,,,,,,,,,,,,,,,,,,,,,,,,,,,,,,,,,,,,,,,,,,,,,,,,,
0,32,32,40,1,,6131d01bc956974e057e9f72,62bbfb46f096412934dc47db,2022-06-29_09h12.35.094,Colour_Asymmetry_Pilot,2022.1.3,Win32,61.01653548,62bbe60bf3d75ef465d3e404,,,,,,,,,,,,,,,,,,,,,,,,,,,,,,,,,,,,,,,,,,,,,,,,,,,,,,,,,,,,,,,,,,,,,,,,,,,,,,,,,,,,,,,,,,,,,,,,,,,,,,,,,,,,,,,,,,,,,,,,,,,,,,,,,,,,,,,,,,,,,,,,,,,,,,,,,,,,,,
0,33,33,52,1,,6131d01bc956974e057e9f72,62bbfb46f096412934dc47db,2022-06-29_09h12.35.094,Colour_Asymmetry_Pilot,2022.1.3,Win32,61.01653548,62bbe60bf3d75ef465d3e404,,,,,,,,,,,,,,,,,,,,,,,,,,,,,,,,,,,,,,,,,,,,,,,,,,,,,,,,,,,,,,,,,,,,,,,,,,,,,,,,,,,,,,,,,,,,,,,,,,,,,,,,,,,,,,,,,,,,,,,,,,,,,,,,,,,,,,,,,,,,,,,,,,,,,,,,,,,,,,
0,34,34,23,1,,6131d01bc956974e057e9f72,62bbfb46f096412934dc47db,2022-06-29_09h12.35.094,Colour_Asymmetry_Pilot,2022.1.3,Win32,61.01653548,62bbe60bf3d75ef465d3e404,,,,,,,,,,,,,,,,,,,,,,,,,,,,,,,,,,,,,,,,,,,,,,,,,,,,,,,,,,,,,,,,,,,,,,,,,,,,,,,,,,,,,,,,,,,,,,,,,,,,,,,,,,,,,,,,,,,,,,,,,,,,,,,,,,,,,,,,,,,,,,,,,,,,,,,,,,,,,,
0,35,35,46,1,,6131d01bc956974e057e9f72,62bbfb46f096412934dc47db,2022-06-29_09h12.35.094,Colour_Asymmetry_Pilot,2022.1.3,Win32,61.01653548,62bbe60bf3d75ef465d3e404,,,,,,,,,,,,,,,,,,,,,,,,,,,,,,,,,,,,,,,,,,,,,,,,,,,,,,,,,,,,,,,,,,,,,,,,,,,,,,,,,,,,,,,,,,,,,,,,,,,,,,,,,,,,,,,,,,,,,,,,,,,,,,,,,,,,,,,,,,,,,,,,,,,,,,,,,,,,,,
0,36,36,58,1,,6131d01bc956974e057e9f72,62bbfb46f096412934dc47db,2022-06-29_09h12.35.094,Colour_Asymmetry_Pilot,2022.1.3,Win32,61.01653548,62bbe60bf3d75ef465d3e404,,,,,,,,,,,,,,,,,,,,,,,,,,,,,,,,,,,,,,,,,,,,,,,,,,,,,,,,,,,,,,,,,,,,,,,,,,,,,,,,,,,,,,,,,,,,,,,,,,,,,,,,,,,,,,,,,,,,,,,,,,,,,,,,,,,,,,,,,,,,,,,,,,,,,,,,,,,,,,
0,37,37,5,1,,6131d01bc956974e057e9f72,62bbfb46f096412934dc47db,2022-06-29_09h12.35.094,Colour_Asymmetry_Pilot,2022.1.3,Win32,61.01653548,62bbe60bf3d75ef465d3e404,,,,,,,,,,,,,,,,,,,,,,,,,,,,,,,,,,,,,,,,,,,,,,,,,,,,,,,,,,,,,,,,,,,,,,,,,,,,,,,,,,,,,,,,,,,,,,,,,,,,,,,,,,,,,,,,,,,,,,,,,,,,,,,,,,,,,,,,,,,,,,,,,,,,,,,,,,,,,,
0,38,38,29,1,,6131d01bc956974e057e9f72,62bbfb46f096412934dc47db,2022-06-29_09h12.35.094,Colour_Asymmetry_Pilot,2022.1.3,Win32,61.01653548,62bbe60bf3d75ef465d3e404,,,,,,,,,,,,,,,,,,,,,,,,,,,,,,,,,,,,,,,,,,,,,,,,,,,,,,,,,,,,,,,,,,,,,,,,,,,,,,,,,,,,,,,,,,,,,,,,,,,,,,,,,,,,,,,,,,,,,,,,,,,,,,,,,,,,,,,,,,,,,,,,,,,,,,,,,,,,,,
0,39,39,59,1,,6131d01bc956974e057e9f72,62bbfb46f096412934dc47db,2022-06-29_09h12.35.094,Colour_Asymmetry_Pilot,2022.1.3,Win32,61.01653548,62bbe60bf3d75ef465d3e404,,,,,,,,,,,,,,,,,,,,,,,,,,,,,,,,,,,,,,,,,,,,,,,,,,,,,,,,,,,,,,,,,,,,,,,,,,,,,,,,,,,,,,,,,,,,,,,,,,,,,,,,,,,,,,,,,,,,,,,,,,,,,,,,,,,,,,,,,,,,,,,,,,,,,,,,,,,,,,
0,40,40,32,1,,6131d01bc956974e057e9f72,62bbfb46f096412934dc47db,2022-06-29_09h12.35.094,Colour_Asymmetry_Pilot,2022.1.3,Win32,61.01653548,62bbe60bf3d75ef465d3e404,,,,,,,,,,,,,,,,,,,,,,,,,,,,,,,,,,,,,,,,,,,,,,,,,,,,,,,,,,,,,,,,,,,,,,,,,,,,,,,,,,,,,,,,,,,,,,,,,,,,,,,,,,,,,,,,,,,,,,,,,,,,,,,,,,,,,,,,,,,,,,,,,,,,,,,,,,,,,,
0,41,41,20,1,,6131d01bc956974e057e9f72,62bbfb46f096412934dc47db,2022-06-29_09h12.35.094,Colour_Asymmetry_Pilot,2022.1.3,Win32,61.01653548,62bbe60bf3d75ef465d3e404,,,,,,,,,,,,,,,,,,,,,,,,,,,,,,,,,,,,,,,,,,,,,,,,,,,,,,,,,,,,,,,,,,,,,,,,,,,,,,,,,,,,,,,,,,,,,,,,,,,,,,,,,,,,,,,,,,,,,,,,,,,,,,,,,,,,,,,,,,,,,,,,,,,,,,,,,,,,,,
0,42,42,38,1,,6131d01bc956974e057e9f72,62bbfb46f096412934dc47db,2022-06-29_09h12.35.094,Colour_Asymmetry_Pilot,2022.1.3,Win32,61.01653548,62bbe60bf3d75ef465d3e404,,,,,,,,,,,,,,,,,,,,,,,,,,,,,,,,,,,,,,,,,,,,,,,,,,,,,,,,,,,,,,,,,,,,,,,,,,,,,,,,,,,,,,,,,,,,,,,,,,,,,,,,,,,,,,,,,,,,,,,,,,,,,,,,,,,,,,,,,,,,,,,,,,,,,,,,,,,,,,
0,43,43,37,1,,6131d01bc956974e057e9f72,62bbfb46f096412934dc47db,2022-06-29_09h12.35.094,Colour_Asymmetry_Pilot,2022.1.3,Win32,61.01653548,62bbe60bf3d75ef465d3e404,,,,,,,,,,,,,,,,,,,,,,,,,,,,,,,,,,,,,,,,,,,,,,,,,,,,,,,,,,,,,,,,,,,,,,,,,,,,,,,,,,,,,,,,,,,,,,,,,,,,,,,,,,,,,,,,,,,,,,,,,,,,,,,,,,,,,,,,,,,,,,,,,,,,,,,,,,,,,,
0,44,44,31,1,,6131d01bc956974e057e9f72,62bbfb46f096412934dc47db,2022-06-29_09h12.35.094,Colour_Asymmetry_Pilot,2022.1.3,Win32,61.01653548,62bbe60bf3d75ef465d3e404,,,,,,,,,,,,,,,,,,,,,,,,,,,,,,,,,,,,,,,,,,,,,,,,,,,,,,,,,,,,,,,,,,,,,,,,,,,,,,,,,,,,,,,,,,,,,,,,,,,,,,,,,,,,,,,,,,,,,,,,,,,,,,,,,,,,,,,,,,,,,,,,,,,,,,,,,,,,,,
0,45,45,9,1,,6131d01bc956974e057e9f72,62bbfb46f096412934dc47db,2022-06-29_09h12.35.094,Colour_Asymmetry_Pilot,2022.1.3,Win32,61.01653548,62bbe60bf3d75ef465d3e404,,,,,,,,,,,,,,,,,,,,,,,,,,,,,,,,,,,,,,,,,,,,,,,,,,,,,,,,,,,,,,,,,,,,,,,,,,,,,,,,,,,,,,,,,,,,,,,,,,,,,,,,,,,,,,,,,,,,,,,,,,,,,,,,,,,,,,,,,,,,,,,,,,,,,,,,,,,,,,
0,46,46,51,1,,6131d01bc956974e057e9f72,62bbfb46f096412934dc47db,2022-06-29_09h12.35.094,Colour_Asymmetry_Pilot,2022.1.3,Win32,61.01653548,62bbe60bf3d75ef465d3e404,,,,,,,,,,,,,,,,,,,,,,,,,,,,,,,,,,,,,,,,,,,,,,,,,,,,,,,,,,,,,,,,,,,,,,,,,,,,,,,,,,,,,,,,,,,,,,,,,,,,,,,,,,,,,,,,,,,,,,,,,,,,,,,,,,,,,,,,,,,,,,,,,,,,,,,,,,,,,,
0,47,47,50,1,,6131d01bc956974e057e9f72,62bbfb46f096412934dc47db,2022-06-29_09h12.35.094,Colour_Asymmetry_Pilot,2022.1.3,Win32,61.01653548,62bbe60bf3d75ef465d3e404,,,,,,,,,,,,,,,,,,,,,,,,,,,,,,,,,,,,,,,,,,,,,,,,,,,,,,,,,,,,,,,,,,,,,,,,,,,,,,,,,,,,,,,,,,,,,,,,,,,,,,,,,,,,,,,,,,,,,,,,,,,,,,,,,,,,,,,,,,,,,,,,,,,,,,,,,,,,,,
0,48,48,60,1,,6131d01bc956974e057e9f72,62bbfb46f096412934dc47db,2022-06-29_09h12.35.094,Colour_Asymmetry_Pilot,2022.1.3,Win32,61.01653548,62bbe60bf3d75ef465d3e404,,,,,,,,,,,,,,,,,,,,,,,,,,,,,,,,,,,,,,,,,,,,,,,,,,,,,,,,,,,,,,,,,,,,,,,,,,,,,,,,,,,,,,,,,,,,,,,,,,,,,,,,,,,,,,,,,,,,,,,,,,,,,,,,,,,,,,,,,,,,,,,,,,,,,,,,,,,,,,
0,49,49,49,1,,6131d01bc956974e057e9f72,62bbfb46f096412934dc47db,2022-06-29_09h12.35.094,Colour_Asymmetry_Pilot,2022.1.3,Win32,61.01653548,62bbe60bf3d75ef465d3e404,,,,,,,,,,,,,,,,,,,,,,,,,,,,,,,,,,,,,,,,,,,,,,,,,,,,,,,,,,,,,,,,,,,,,,,,,,,,,,,,,,,,,,,,,,,,,,,,,,,,,,,,,,,,,,,,,,,,,,,,,,,,,,,,,,,,,,,,,,,,,,,,,,,,,,,,,,,,,,
0,50,50,65,1,,6131d01bc956974e057e9f72,62bbfb46f096412934dc47db,2022-06-29_09h12.35.094,Colour_Asymmetry_Pilot,2022.1.3,Win32,61.01653548,62bbe60bf3d75ef465d3e404,,,,,,,,,,,,,,,,,,,,,,,,,,,,,,,,,,,,,,,,,,,,,,,,,,,,,,,,,,,,,,,,,,,,,,,,,,,,,,,,,,,,,,,,,,,,,,,,,,,,,,,,,,,,,,,,,,,,,,,,,,,,,,,,,,,,,,,,,,,,,,,,,,,,,,,,,,,,,,
0,51,51,13,1,,6131d01bc956974e057e9f72,62bbfb46f096412934dc47db,2022-06-29_09h12.35.094,Colour_Asymmetry_Pilot,2022.1.3,Win32,61.01653548,62bbe60bf3d75ef465d3e404,,,,,,,,,,,,,,,,,,,,,,,,,,,,,,,,,,,,,,,,,,,,,,,,,,,,,,,,,,,,,,,,,,,,,,,,,,,,,,,,,,,,,,,,,,,,,,,,,,,,,,,,,,,,,,,,,,,,,,,,,,,,,,,,,,,,,,,,,,,,,,,,,,,,,,,,,,,,,,
0,52,52,63,1,,6131d01bc956974e057e9f72,62bbfb46f096412934dc47db,2022-06-29_09h12.35.094,Colour_Asymmetry_Pilot,2022.1.3,Win32,61.01653548,62bbe60bf3d75ef465d3e404,,,,,,,,,,,,,,,,,,,,,,,,,,,,,,,,,,,,,,,,,,,,,,,,,,,,,,,,,,,,,,,,,,,,,,,,,,,,,,,,,,,,,,,,,,,,,,,,,,,,,,,,,,,,,,,,,,,,,,,,,,,,,,,,,,,,,,,,,,,,,,,,,,,,,,,,,,,,,,
0,53,53,7,1,,6131d01bc956974e057e9f72,62bbfb46f096412934dc47db,2022-06-29_09h12.35.094,Colour_Asymmetry_Pilot,2022.1.3,Win32,61.01653548,62bbe60bf3d75ef465d3e404,,,,,,,,,,,,,,,,,,,,,,,,,,,,,,,,,,,,,,,,,,,,,,,,,,,,,,,,,,,,,,,,,,,,,,,,,,,,,,,,,,,,,,,,,,,,,,,,,,,,,,,,,,,,,,,,,,,,,,,,,,,,,,,,,,,,,,,,,,,,,,,,,,,,,,,,,,,,,,
0,54,54,92,1,,6131d01bc956974e057e9f72,62bbfb46f096412934dc47db,2022-06-29_09h12.35.094,Colour_Asymmetry_Pilot,2022.1.3,Win32,61.01653548,62bbe60bf3d75ef465d3e404,,,,,,,,,,,,,,,,,,,,,,,,,,,,,,,,,,,,,,,,,,,,,,,,,,,,,,,,,,,,,,,,,,,,,,,,,,,,,,,,,,,,,,,,,,,,,,,,,,,,,,,,,,,,,,,,,,,,,,,,,,,,,,,,,,,,,,,,,,,,,,,,,,,,,,,,,,,,,,
0,55,55,79,1,,6131d01bc956974e057e9f72,62bbfb46f096412934dc47db,2022-06-29_09h12.35.094,Colour_Asymmetry_Pilot,2022.1.3,Win32,61.01653548,62bbe60bf3d75ef465d3e404,,,,,,,,,,,,,,,,,,,,,,,,,,,,,,,,,,,,,,,,,,,,,,,,,,,,,,,,,,,,,,,,,,,,,,,,,,,,,,,,,,,,,,,,,,,,,,,,,,,,,,,,,,,,,,,,,,,,,,,,,,,,,,,,,,,,,,,,,,,,,,,,,,,,,,,,,,,,,,
0,56,56,26,1,,6131d01bc956974e057e9f72,62bbfb46f096412934dc47db,2022-06-29_09h12.35.094,Colour_Asymmetry_Pilot,2022.1.3,Win32,61.01653548,62bbe60bf3d75ef465d3e404,,,,,,,,,,,,,,,,,,,,,,,,,,,,,,,,,,,,,,,,,,,,,,,,,,,,,,,,,,,,,,,,,,,,,,,,,,,,,,,,,,,,,,,,,,,,,,,,,,,,,,,,,,,,,,,,,,,,,,,,,,,,,,,,,,,,,,,,,,,,,,,,,,,,,,,,,,,,,,
0,57,57,35,1,,6131d01bc956974e057e9f72,62bbfb46f096412934dc47db,2022-06-29_09h12.35.094,Colour_Asymmetry_Pilot,2022.1.3,Win32,61.01653548,62bbe60bf3d75ef465d3e404,,,,,,,,,,,,,,,,,,,,,,,,,,,,,,,,,,,,,,,,,,,,,,,,,,,,,,,,,,,,,,,,,,,,,,,,,,,,,,,,,,,,,,,,,,,,,,,,,,,,,,,,,,,,,,,,,,,,,,,,,,,,,,,,,,,,,,,,,,,,,,,,,,,,,,,,,,,,,,
0,58,58,62,1,,6131d01bc956974e057e9f72,62bbfb46f096412934dc47db,2022-06-29_09h12.35.094,Colour_Asymmetry_Pilot,2022.1.3,Win32,61.01653548,62bbe60bf3d75ef465d3e404,,,,,,,,,,,,,,,,,,,,,,,,,,,,,,,,,,,,,,,,,,,,,,,,,,,,,,,,,,,,,,,,,,,,,,,,,,,,,,,,,,,,,,,,,,,,,,,,,,,,,,,,,,,,,,,,,,,,,,,,,,,,,,,,,,,,,,,,,,,,,,,,,,,,,,,,,,,,,,
0,59,59,56,1,,6131d01bc956974e057e9f72,62bbfb46f096412934dc47db,2022-06-29_09h12.35.094,Colour_Asymmetry_Pilot,2022.1.3,Win32,61.01653548,62bbe60bf3d75ef465d3e404,,,,,,,,,,,,,,,,,,,,,,,,,,,,,,,,,,,,,,,,,,,,,,,,,,,,,,,,,,,,,,,,,,,,,,,,,,,,,,,,,,,,,,,,,,,,,,,,,,,,,,,,,,,,,,,,,,,,,,,,,,,,,,,,,,,,,,,,,,,,,,,,,,,,,,,,,,,,,,
0,60,60,77,1,,6131d01bc956974e057e9f72,62bbfb46f096412934dc47db,2022-06-29_09h12.35.094,Colour_Asymmetry_Pilot,2022.1.3,Win32,61.01653548,62bbe60bf3d75ef465d3e404,,,,,,,,,,,,,,,,,,,,,,,,,,,,,,,,,,,,,,,,,,,,,,,,,,,,,,,,,,,,,,,,,,,,,,,,,,,,,,,,,,,,,,,,,,,,,,,,,,,,,,,,,,,,,,,,,,,,,,,,,,,,,,,,,,,,,,,,,,,,,,,,,,,,,,,,,,,,,,
0,61,61,73,1,,6131d01bc956974e057e9f72,62bbfb46f096412934dc47db,2022-06-29_09h12.35.094,Colour_Asymmetry_Pilot,2022.1.3,Win32,61.01653548,62bbe60bf3d75ef465d3e404,,,,,,,,,,,,,,,,,,,,,,,,,,,,,,,,,,,,,,,,,,,,,,,,,,,,,,,,,,,,,,,,,,,,,,,,,,,,,,,,,,,,,,,,,,,,,,,,,,,,,,,,,,,,,,,,,,,,,,,,,,,,,,,,,,,,,,,,,,,,,,,,,,,,,,,,,,,,,,
0,62,62,12,1,,6131d01bc956974e057e9f72,62bbfb46f096412934dc47db,2022-06-29_09h12.35.094,Colour_Asymmetry_Pilot,2022.1.3,Win32,61.01653548,62bbe60bf3d75ef465d3e404,,,,,,,,,,,,,,,,,,,,,,,,,,,,,,,,,,,,,,,,,,,,,,,,,,,,,,,,,,,,,,,,,,,,,,,,,,,,,,,,,,,,,,,,,,,,,,,,,,,,,,,,,,,,,,,,,,,,,,,,,,,,,,,,,,,,,,,,,,,,,,,,,,,,,,,,,,,,,,
0,63,63,8,1,,6131d01bc956974e057e9f72,62bbfb46f096412934dc47db,2022-06-29_09h12.35.094,Colour_Asymmetry_Pilot,2022.1.3,Win32,61.01653548,62bbe60bf3d75ef465d3e404,,,,,,,,,,,,,,,,,,,,,,,,,,,,,,,,,,,,,,,,,,,,,,,,,,,,,,,,,,,,,,,,,,,,,,,,,,,,,,,,,,,,,,,,,,,,,,,,,,,,,,,,,,,,,,,,,,,,,,,,,,,,,,,,,,,,,,,,,,,,,,,,,,,,,,,,,,,,,,
0,64,64,39,1,,6131d01bc956974e057e9f72,62bbfb46f096412934dc47db,2022-06-29_09h12.35.094,Colour_Asymmetry_Pilot,2022.1.3,Win32,61.01653548,62bbe60bf3d75ef465d3e404,,,,,,,,,,,,,,,,,,,,,,,,,,,,,,,,,,,,,,,,,,,,,,,,,,,,,,,,,,,,,,,,,,,,,,,,,,,,,,,,,,,,,,,,,,,,,,,,,,,,,,,,,,,,,,,,,,,,,,,,,,,,,,,,,,,,,,,,,,,,,,,,,,,,,,,,,,,,,,
0,65,65,30,1,,6131d01bc956974e057e9f72,62bbfb46f096412934dc47db,2022-06-29_09h12.35.094,Colour_Asymmetry_Pilot,2022.1.3,Win32,61.01653548,62bbe60bf3d75ef465d3e404,,,,,,,,,,,,,,,,,,,,,,,,,,,,,,,,,,,,,,,,,,,,,,,,,,,,,,,,,,,,,,,,,,,,,,,,,,,,,,,,,,,,,,,,,,,,,,,,,,,,,,,,,,,,,,,,,,,,,,,,,,,,,,,,,,,,,,,,,,,,,,,,,,,,,,,,,,,,,,
0,66,66,80,1,,6131d01bc956974e057e9f72,62bbfb46f096412934dc47db,2022-06-29_09h12.35.094,Colour_Asymmetry_Pilot,2022.1.3,Win32,61.01653548,62bbe60bf3d75ef465d3e404,,,,,,,,,,,,,,,,,,,,,,,,,,,,,,,,,,,,,,,,,,,,,,,,,,,,,,,,,,,,,,,,,,,,,,,,,,,,,,,,,,,,,,,,,,,,,,,,,,,,,,,,,,,,,,,,,,,,,,,,,,,,,,,,,,,,,,,,,,,,,,,,,,,,,,,,,,,,,,
0,67,67,83,1,,6131d01bc956974e057e9f72,62bbfb46f096412934dc47db,2022-06-29_09h12.35.094,Colour_Asymmetry_Pilot,2022.1.3,Win32,61.01653548,62bbe60bf3d75ef465d3e404,,,,,,,,,,,,,,,,,,,,,,,,,,,,,,,,,,,,,,,,,,,,,,,,,,,,,,,,,,,,,,,,,,,,,,,,,,,,,,,,,,,,,,,,,,,,,,,,,,,,,,,,,,,,,,,,,,,,,,,,,,,,,,,,,,,,,,,,,,,,,,,,,,,,,,,,,,,,,,
0,68,68,17,1,,6131d01bc956974e057e9f72,62bbfb46f096412934dc47db,2022-06-29_09h12.35.094,Colour_Asymmetry_Pilot,2022.1.3,Win32,61.01653548,62bbe60bf3d75ef465d3e404,,,,,,,,,,,,,,,,,,,,,,,,,,,,,,,,,,,,,,,,,,,,,,,,,,,,,,,,,,,,,,,,,,,,,,,,,,,,,,,,,,,,,,,,,,,,,,,,,,,,,,,,,,,,,,,,,,,,,,,,,,,,,,,,,,,,,,,,,,,,,,,,,,,,,,,,,,,,,,
0,69,69,91,1,,6131d01bc956974e057e9f72,62bbfb46f096412934dc47db,2022-06-29_09h12.35.094,Colour_Asymmetry_Pilot,2022.1.3,Win32,61.01653548,62bbe60bf3d75ef465d3e404,,,,,,,,,,,,,,,,,,,,,,,,,,,,,,,,,,,,,,,,,,,,,,,,,,,,,,,,,,,,,,,,,,,,,,,,,,,,,,,,,,,,,,,,,,,,,,,,,,,,,,,,,,,,,,,,,,,,,,,,,,,,,,,,,,,,,,,,,,,,,,,,,,,,,,,,,,,,,,
0,70,70,68,1,,6131d01bc956974e057e9f72,62bbfb46f096412934dc47db,2022-06-29_09h12.35.094,Colour_Asymmetry_Pilot,2022.1.3,Win32,61.01653548,62bbe60bf3d75ef465d3e404,,,,,,,,,,,,,,,,,,,,,,,,,,,,,,,,,,,,,,,,,,,,,,,,,,,,,,,,,,,,,,,,,,,,,,,,,,,,,,,,,,,,,,,,,,,,,,,,,,,,,,,,,,,,,,,,,,,,,,,,,,,,,,,,,,,,,,,,,,,,,,,,,,,,,,,,,,,,,,
0,71,71,76,1,,6131d01bc956974e057e9f72,62bbfb46f096412934dc47db,2022-06-29_09h12.35.094,Colour_Asymmetry_Pilot,2022.1.3,Win32,61.01653548,62bbe60bf3d75ef465d3e404,,,,,,,,,,,,,,,,,,,,,,,,,,,,,,,,,,,,,,,,,,,,,,,,,,,,,,,,,,,,,,,,,,,,,,,,,,,,,,,,,,,,,,,,,,,,,,,,,,,,,,,,,,,,,,,,,,,,,,,,,,,,,,,,,,,,,,,,,,,,,,,,,,,,,,,,,,,,,,
0,72,72,57,1,,6131d01bc956974e057e9f72,62bbfb46f096412934dc47db,2022-06-29_09h12.35.094,Colour_Asymmetry_Pilot,2022.1.3,Win32,61.01653548,62bbe60bf3d75ef465d3e404,,,,,,,,,,,,,,,,,,,,,,,,,,,,,,,,,,,,,,,,,,,,,,,,,,,,,,,,,,,,,,,,,,,,,,,,,,,,,,,,,,,,,,,,,,,,,,,,,,,,,,,,,,,,,,,,,,,,,,,,,,,,,,,,,,,,,,,,,,,,,,,,,,,,,,,,,,,,,,
0,73,73,2,1,,6131d01bc956974e057e9f72,62bbfb46f096412934dc47db,2022-06-29_09h12.35.094,Colour_Asymmetry_Pilot,2022.1.3,Win32,61.01653548,62bbe60bf3d75ef465d3e404,,,,,,,,,,,,,,,,,,,,,,,,,,,,,,,,,,,,,,,,,,,,,,,,,,,,,,,,,,,,,,,,,,,,,,,,,,,,,,,,,,,,,,,,,,,,,,,,,,,,,,,,,,,,,,,,,,,,,,,,,,,,,,,,,,,,,,,,,,,,,,,,,,,,,,,,,,,,,,
0,74,74,44,1,,6131d01bc956974e057e9f72,62bbfb46f096412934dc47db,2022-06-29_09h12.35.094,Colour_Asymmetry_Pilot,2022.1.3,Win32,61.01653548,62bbe60bf3d75ef465d3e404,,,,,,,,,,,,,,,,,,,,,,,,,,,,,,,,,,,,,,,,,,,,,,,,,,,,,,,,,,,,,,,,,,,,,,,,,,,,,,,,,,,,,,,,,,,,,,,,,,,,,,,,,,,,,,,,,,,,,,,,,,,,,,,,,,,,,,,,,,,,,,,,,,,,,,,,,,,,,,
0,75,75,41,1,,6131d01bc956974e057e9f72,62bbfb46f096412934dc47db,2022-06-29_09h12.35.094,Colour_Asymmetry_Pilot,2022.1.3,Win32,61.01653548,62bbe60bf3d75ef465d3e404,,,,,,,,,,,,,,,,,,,,,,,,,,,,,,,,,,,,,,,,,,,,,,,,,,,,,,,,,,,,,,,,,,,,,,,,,,,,,,,,,,,,,,,,,,,,,,,,,,,,,,,,,,,,,,,,,,,,,,,,,,,,,,,,,,,,,,,,,,,,,,,,,,,,,,,,,,,,,,
0,76,76,75,1,,6131d01bc956974e057e9f72,62bbfb46f096412934dc47db,2022-06-29_09h12.35.094,Colour_Asymmetry_Pilot,2022.1.3,Win32,61.01653548,62bbe60bf3d75ef465d3e404,,,,,,,,,,,,,,,,,,,,,,,,,,,,,,,,,,,,,,,,,,,,,,,,,,,,,,,,,,,,,,,,,,,,,,,,,,,,,,,,,,,,,,,,,,,,,,,,,,,,,,,,,,,,,,,,,,,,,,,,,,,,,,,,,,,,,,,,,,,,,,,,,,,,,,,,,,,,,,
0,77,77,86,1,,6131d01bc956974e057e9f72,62bbfb46f096412934dc47db,2022-06-29_09h12.35.094,Colour_Asymmetry_Pilot,2022.1.3,Win32,61.01653548,62bbe60bf3d75ef465d3e404,,,,,,,,,,,,,,,,,,,,,,,,,,,,,,,,,,,,,,,,,,,,,,,,,,,,,,,,,,,,,,,,,,,,,,,,,,,,,,,,,,,,,,,,,,,,,,,,,,,,,,,,,,,,,,,,,,,,,,,,,,,,,,,,,,,,,,,,,,,,,,,,,,,,,,,,,,,,,,
0,78,78,34,1,,6131d01bc956974e057e9f72,62bbfb46f096412934dc47db,2022-06-29_09h12.35.094,Colour_Asymmetry_Pilot,2022.1.3,Win32,61.01653548,62bbe60bf3d75ef465d3e404,,,,,,,,,,,,,,,,,,,,,,,,,,,,,,,,,,,,,,,,,,,,,,,,,,,,,,,,,,,,,,,,,,,,,,,,,,,,,,,,,,,,,,,,,,,,,,,,,,,,,,,,,,,,,,,,,,,,,,,,,,,,,,,,,,,,,,,,,,,,,,,,,,,,,,,,,,,,,,
0,79,79,43,1,,6131d01bc956974e057e9f72,62bbfb46f096412934dc47db,2022-06-29_09h12.35.094,Colour_Asymmetry_Pilot,2022.1.3,Win32,61.01653548,62bbe60bf3d75ef465d3e404,,,,,,,,,,,,,,,,,,,,,,,,,,,,,,,,,,,,,,,,,,,,,,,,,,,,,,,,,,,,,,,,,,,,,,,,,,,,,,,,,,,,,,,,,,,,,,,,,,,,,,,,,,,,,,,,,,,,,,,,,,,,,,,,,,,,,,,,,,,,,,,,,,,,,,,,,,,,,,
0,80,80,19,1,,6131d01bc956974e057e9f72,62bbfb46f096412934dc47db,2022-06-29_09h12.35.094,Colour_Asymmetry_Pilot,2022.1.3,Win32,61.01653548,62bbe60bf3d75ef465d3e404,,,,,,,,,,,,,,,,,,,,,,,,,,,,,,,,,,,,,,,,,,,,,,,,,,,,,,,,,,,,,,,,,,,,,,,,,,,,,,,,,,,,,,,,,,,,,,,,,,,,,,,,,,,,,,,,,,,,,,,,,,,,,,,,,,,,,,,,,,,,,,,,,,,,,,,,,,,,,,
0,81,81,55,1,,6131d01bc956974e057e9f72,62bbfb46f096412934dc47db,2022-06-29_09h12.35.094,Colour_Asymmetry_Pilot,2022.1.3,Win32,61.01653548,62bbe60bf3d75ef465d3e404,,,,,,,,,,,,,,,,,,,,,,,,,,,,,,,,,,,,,,,,,,,,,,,,,,,,,,,,,,,,,,,,,,,,,,,,,,,,,,,,,,,,,,,,,,,,,,,,,,,,,,,,,,,,,,,,,,,,,,,,,,,,,,,,,,,,,,,,,,,,,,,,,,,,,,,,,,,,,,
0,82,82,6,1,,6131d01bc956974e057e9f72,62bbfb46f096412934dc47db,2022-06-29_09h12.35.094,Colour_Asymmetry_Pilot,2022.1.3,Win32,61.01653548,62bbe60bf3d75ef465d3e404,,,,,,,,,,,,,,,,,,,,,,,,,,,,,,,,,,,,,,,,,,,,,,,,,,,,,,,,,,,,,,,,,,,,,,,,,,,,,,,,,,,,,,,,,,,,,,,,,,,,,,,,,,,,,,,,,,,,,,,,,,,,,,,,,,,,,,,,,,,,,,,,,,,,,,,,,,,,,,
0,83,83,11,1,,6131d01bc956974e057e9f72,62bbfb46f096412934dc47db,2022-06-29_09h12.35.094,Colour_Asymmetry_Pilot,2022.1.3,Win32,61.01653548,62bbe60bf3d75ef465d3e404,,,,,,,,,,,,,,,,,,,,,,,,,,,,,,,,,,,,,,,,,,,,,,,,,,,,,,,,,,,,,,,,,,,,,,,,,,,,,,,,,,,,,,,,,,,,,,,,,,,,,,,,,,,,,,,,,,,,,,,,,,,,,,,,,,,,,,,,,,,,,,,,,,,,,,,,,,,,,,
0,84,84,70,1,,6131d01bc956974e057e9f72,62bbfb46f096412934dc47db,2022-06-29_09h12.35.094,Colour_Asymmetry_Pilot,2022.1.3,Win32,61.01653548,62bbe60bf3d75ef465d3e404,,,,,,,,,,,,,,,,,,,,,,,,,,,,,,,,,,,,,,,,,,,,,,,,,,,,,,,,,,,,,,,,,,,,,,,,,,,,,,,,,,,,,,,,,,,,,,,,,,,,,,,,,,,,,,,,,,,,,,,,,,,,,,,,,,,,,,,,,,,,,,,,,,,,,,,,,,,,,,
0,85,85,64,1,,6131d01bc956974e057e9f72,62bbfb46f096412934dc47db,2022-06-29_09h12.35.094,Colour_Asymmetry_Pilot,2022.1.3,Win32,61.01653548,62bbe60bf3d75ef465d3e404,,,,,,,,,,,,,,,,,,,,,,,,,,,,,,,,,,,,,,,,,,,,,,,,,,,,,,,,,,,,,,,,,,,,,,,,,,,,,,,,,,,,,,,,,,,,,,,,,,,,,,,,,,,,,,,,,,,,,,,,,,,,,,,,,,,,,,,,,,,,,,,,,,,,,,,,,,,,,,
0,86,86,27,1,,6131d01bc956974e057e9f72,62bbfb46f096412934dc47db,2022-06-29_09h12.35.094,Colour_Asymmetry_Pilot,2022.1.3,Win32,61.01653548,62bbe60bf3d75ef465d3e404,,,,,,,,,,,,,,,,,,,,,,,,,,,,,,,,,,,,,,,,,,,,,,,,,,,,,,,,,,,,,,,,,,,,,,,,,,,,,,,,,,,,,,,,,,,,,,,,,,,,,,,,,,,,,,,,,,,,,,,,,,,,,,,,,,,,,,,,,,,,,,,,,,,,,,,,,,,,,,
0,87,87,74,1,,6131d01bc956974e057e9f72,62bbfb46f096412934dc47db,2022-06-29_09h12.35.094,Colour_Asymmetry_Pilot,2022.1.3,Win32,61.01653548,62bbe60bf3d75ef465d3e404,,,,,,,,,,,,,,,,,,,,,,,,,,,,,,,,,,,,,,,,,,,,,,,,,,,,,,,,,,,,,,,,,,,,,,,,,,,,,,,,,,,,,,,,,,,,,,,,,,,,,,,,,,,,,,,,,,,,,,,,,,,,,,,,,,,,,,,,,,,,,,,,,,,,,,,,,,,,,,
0,88,88,10,1,,6131d01bc956974e057e9f72,62bbfb46f096412934dc47db,2022-06-29_09h12.35.094,Colour_Asymmetry_Pilot,2022.1.3,Win32,61.01653548,62bbe60bf3d75ef465d3e404,,,,,,,,,,,,,,,,,,,,,,,,,,,,,,,,,,,,,,,,,,,,,,,,,,,,,,,,,,,,,,,,,,,,,,,,,,,,,,,,,,,,,,,,,,,,,,,,,,,,,,,,,,,,,,,,,,,,,,,,,,,,,,,,,,,,,,,,,,,,,,,,,,,,,,,,,,,,,,
0,89,89,42,1,,6131d01bc956974e057e9f72,62bbfb46f096412934dc47db,2022-06-29_09h12.35.094,Colour_Asymmetry_Pilot,2022.1.3,Win32,61.01653548,62bbe60bf3d75ef465d3e404,,,,,,,,,,,,,,,,,,,,,,,,,,,,,,,,,,,,,,,,,,,,,,,,,,,,,,,,,,,,,,,,,,,,,,,,,,,,,,,,,,,,,,,,,,,,,,,,,,,,,,,,,,,,,,,,,,,,,,,,,,,,,,,,,,,,,,,,,,,,,,,,,,,,,,,,,,,,,,
0,90,90,3,1,,6131d01bc956974e057e9f72,62bbfb46f096412934dc47db,2022-06-29_09h12.35.094,Colour_Asymmetry_Pilot,2022.1.3,Win32,61.01653548,62bbe60bf3d75ef465d3e404,,,,,,,,,,,,,,,,,,,,,,,,,,,,,,,,,,,,,,,,,,,,,,,,,,,,,,,,,,,,,,,,,,,,,,,,,,,,,,,,,,,,,,,,,,,,,,,,,,,,,,,,,,,,,,,,,,,,,,,,,,,,,,,,,,,,,,,,,,,,,,,,,,,,,,,,,,,,,,
0,91,91,66,1,,6131d01bc956974e057e9f72,62bbfb46f096412934dc47db,2022-06-29_09h12.35.094,Colour_Asymmetry_Pilot,2022.1.3,Win32,61.01653548,62bbe60bf3d75ef465d3e404,,,,,,,,,,,,,,,,,,,,,,,,,,,,,,,,,,,,,,,,,,,,,,,,,,,,,,,,,,,,,,,,,,,,,,,,,,,,,,,,,,,,,,,,,,,,,,,,,,,,,,,,,,,,,,,,,,,,,,,,,,,,,,,,,,,,,,,,,,,,,,,,,,,,,,,,,,,,,,
0,92,92,28,1,,6131d01bc956974e057e9f72,62bbfb46f096412934dc47db,2022-06-29_09h12.35.094,Colour_Asymmetry_Pilot,2022.1.3,Win32,61.01653548,62bbe60bf3d75ef465d3e404,,,,,,,,,,,,,,,,,,,,,,,,,,,,,,,,,,,,,,,,,,,,,,,,,,,,,,,,,,,,,,,,,,,,,,,,,,,,,,,,,,,,,,,,,,,,,,,,,,,,,,,,,,,,,,,,,,,,,,,,,,,,,,,,,,,,,,,,,,,,,,,,,,,,,,,,,,,,,,
,,,,,,6131d01bc956974e057e9f72,62bbfb46f096412934dc47db,2022-06-29_09h12.35.094,Colour_Asymmetry_Pilot,2022.1.3,Win32,61.01653548,62bbe60bf3d75ef465d3e404,0,0,0,12,1,threeone,,,,,,,,,,,,,,,,,,,,,,,,,,,,,,,,,,,,,,,,,,,,,,,,,,,,,,,,,,,,,,,,,,,,,,,,,,,,,,,,,,,,,,,,,,,,,,,,,,,,,,,,,,,,,,,,,,,,,,,,,,,,,,,,,,,,,,,,,,,,,,,,,,,,,,,,
,,,,,,6131d01bc956974e057e9f72,62bbfb46f096412934dc47db,2022-06-29_09h12.35.094,Colour_Asymmetry_Pilot,2022.1.3,Win32,61.01653548,62bbe60bf3d75ef465d3e404,0,1,1,139,1,twofour,,,,,,,,,,,,,,,,,,,,,,,,,,,,,,,,,,,,,,,,,,,,,,,,,,,,,,,,,,,,,,,,,,,,,,,,,,,,,,,,,,,,,,,,,,,,,,,,,,,,,,,,,,,,,,,,,,,,,,,,,,,,,,,,,,,,,,,,,,,,,,,,,,,,,,,,
,,,,,,6131d01bc956974e057e9f72,62bbfb46f096412934dc47db,2022-06-29_09h12.35.094,Colour_Asymmetry_Pilot,2022.1.3,Win32,61.01653548,62bbe60bf3d75ef465d3e404,0,2,2,83,1,twofour,,,,,,,,,,,,,,,,,,,,,,,,,,,,,,,,,,,,,,,,,,,,,,,,,,,,,,,,,,,,,,,,,,,,,,,,,,,,,,,,,,,,,,,,,,,,,,,,,,,,,,,,,,,,,,,,,,,,,,,,,,,,,,,,,,,,,,,,,,,,,,,,,,,,,,,,
,,,,,,6131d01bc956974e057e9f72,62bbfb46f096412934dc47db,2022-06-29_09h12.35.094,Colour_Asymmetry_Pilot,2022.1.3,Win32,61.01653548,62bbe60bf3d75ef465d3e404,0,3,3,103,1,fourthree,,,,,,,,,,,,,,,,,,,,,,,,,,,,,,,,,,,,,,,,,,,,,,,,,,,,,,,,,,,,,,,,,,,,,,,,,,,,,,,,,,,,,,,,,,,,,,,,,,,,,,,,,,,,,,,,,,,,,,,,,,,,,,,,,,,,,,,,,,,,,,,,,,,,,,,,
,,,,,,6131d01bc956974e057e9f72,62bbfb46f096412934dc47db,2022-06-29_09h12.35.094,Colour_Asymmetry_Pilot,2022.1.3,Win32,61.01653548,62bbe60bf3d75ef465d3e404,0,4,4,37,1,threefour,,,,,,,,,,,,,,,,,,,,,,,,,,,,,,,,,,,,,,,,,,,,,,,,,,,,,,,,,,,,,,,,,,,,,,,,,,,,,,,,,,,,,,,,,,,,,,,,,,,,,,,,,,,,,,,,,,,,,,,,,,,,,,,,,,,,,,,,,,,,,,,,,,,,,,,,
,,,,,,6131d01bc956974e057e9f72,62bbfb46f096412934dc47db,2022-06-29_09h12.35.094,Colour_Asymmetry_Pilot,2022.1.3,Win32,61.01653548,62bbe60bf3d75ef465d3e404,0,5,5,125,1,threefour,,,,,,,,,,,,,,,,,,,,,,,,,,,,,,,,,,,,,,,,,,,,,,,,,,,,,,,,,,,,,,,,,,,,,,,,,,,,,,,,,,,,,,,,,,,,,,,,,,,,,,,,,,,,,,,,,,,,,,,,,,,,,,,,,,,,,,,,,,,,,,,,,,,,,,,,
,,,,,,6131d01bc956974e057e9f72,62bbfb46f096412934dc47db,2022-06-29_09h12.35.094,Colour_Asymmetry_Pilot,2022.1.3,Win32,61.01653548,62bbe60bf3d75ef465d3e404,0,6,6,36,1,threeone,,,,,,,,,,,,,,,,,,,,,,,,,,,,,,,,,,,,,,,,,,,,,,,,,,,,,,,,,,,,,,,,,,,,,,,,,,,,,,,,,,,,,,,,,,,,,,,,,,,,,,,,,,,,,,,,,,,,,,,,,,,,,,,,,,,,,,,,,,,,,,,,,,,,,,,,
,,,,,,6131d01bc956974e057e9f72,62bbfb46f096412934dc47db,2022-06-29_09h12.35.094,Colour_Asymmetry_Pilot,2022.1.3,Win32,61.01653548,62bbe60bf3d75ef465d3e404,0,7,7,92,1,threeone,,,,,,,,,,,,,,,,,,,,,,,,,,,,,,,,,,,,,,,,,,,,,,,,,,,,,,,,,,,,,,,,,,,,,,,,,,,,,,,,,,,,,,,,,,,,,,,,,,,,,,,,,,,,,,,,,,,,,,,,,,,,,,,,,,,,,,,,,,,,,,,,,,,,,,,,
,,,,,,6131d01bc956974e057e9f72,62bbfb46f096412934dc47db,2022-06-29_09h12.35.094,Colour_Asymmetry_Pilot,2022.1.3,Win32,61.01653548,62bbe60bf3d75ef465d3e404,0,8,8,16,1,onetwo,,,,,,,,,,,,,,,,,,,,,,,,,,,,,,,,,,,,,,,,,,,,,,,,,,,,,,,,,,,,,,,,,,,,,,,,,,,,,,,,,,,,,,,,,,,,,,,,,,,,,,,,,,,,,,,,,,,,,,,,,,,,,,,,,,,,,,,,,,,,,,,,,,,,,,,,
,,,,,,6131d01bc956974e057e9f72,62bbfb46f096412934dc47db,2022-06-29_09h12.35.094,Colour_Asymmetry_Pilot,2022.1.3,Win32,61.01653548,62bbe60bf3d75ef465d3e404,0,9,9,84,1,threeone,,,,,,,,,,,,,,,,,,,,,,,,,,,,,,,,,,,,,,,,,,,,,,,,,,,,,,,,,,,,,,,,,,,,,,,,,,,,,,,,,,,,,,,,,,,,,,,,,,,,,,,,,,,,,,,,,,,,,,,,,,,,,,,,,,,,,,,,,,,,,,,,,,,,,,,,
,,,,,,6131d01bc956974e057e9f72,62bbfb46f096412934dc47db,2022-06-29_09h12.35.094,Colour_Asymmetry_Pilot,2022.1.3,Win32,61.01653548,62bbe60bf3d75ef465d3e404,0,10,10,140,1,threeone,,,,,,,,,,,,,,,,,,,,,,,,,,,,,,,,,,,,,,,,,,,,,,,,,,,,,,,,,,,,,,,,,,,,,,,,,,,,,,,,,,,,,,,,,,,,,,,,,,,,,,,,,,,,,,,,,,,,,,,,,,,,,,,,,,,,,,,,,,,,,,,,,,,,,,,,
,,,,,,6131d01bc956974e057e9f72,62bbfb46f096412934dc47db,2022-06-29_09h12.35.094,Colour_Asymmetry_Pilot,2022.1.3,Win32,61.01653548,62bbe60bf3d75ef465d3e404,0,11,11,152,1,onetwo,,,,,,,,,,,,,,,,,,,,,,,,,,,,,,,,,,,,,,,,,,,,,,,,,,,,,,,,,,,,,,,,,,,,,,,,,,,,,,,,,,,,,,,,,,,,,,,,,,,,,,,,,,,,,,,,,,,,,,,,,,,,,,,,,,,,,,,,,,,,,,,,,,,,,,,,
,,,,,,6131d01bc956974e057e9f72,62bbfb46f096412934dc47db,2022-06-29_09h12.35.094,Colour_Asymmetry_Pilot,2022.1.3,Win32,61.01653548,62bbe60bf3d75ef465d3e404,0,12,12,59,1,twofour,,,,,,,,,,,,,,,,,,,,,,,,,,,,,,,,,,,,,,,,,,,,,,,,,,,,,,,,,,,,,,,,,,,,,,,,,,,,,,,,,,,,,,,,,,,,,,,,,,,,,,,,,,,,,,,,,,,,,,,,,,,,,,,,,,,,,,,,,,,,,,,,,,,,,,,,
,,,,,,6131d01bc956974e057e9f72,62bbfb46f096412934dc47db,2022-06-29_09h12.35.094,Colour_Asymmetry_Pilot,2022.1.3,Win32,61.01653548,62bbe60bf3d75ef465d3e404,0,13,13,102,1,fourtwo,,,,,,,,,,,,,,,,,,,,,,,,,,,,,,,,,,,,,,,,,,,,,,,,,,,,,,,,,,,,,,,,,,,,,,,,,,,,,,,,,,,,,,,,,,,,,,,,,,,,,,,,,,,,,,,,,,,,,,,,,,,,,,,,,,,,,,,,,,,,,,,,,,,,,,,,
,,,,,,6131d01bc956974e057e9f72,62bbfb46f096412934dc47db,2022-06-29_09h12.35.094,Colour_Asymmetry_Pilot,2022.1.3,Win32,61.01653548,62bbe60bf3d75ef465d3e404,0,14,14,29,1,threefour,,,,,,,,,,,,,,,,,,,,,,,,,,,,,,,,,,,,,,,,,,,,,,,,,,,,,,,,,,,,,,,,,,,,,,,,,,,,,,,,,,,,,,,,,,,,,,,,,,,,,,,,,,,,,,,,,,,,,,,,,,,,,,,,,,,,,,,,,,,,,,,,,,,,,,,,
,,,,,,6131d01bc956974e057e9f72,62bbfb46f096412934dc47db,2022-06-29_09h12.35.094,Colour_Asymmetry_Pilot,2022.1.3,Win32,61.01653548,62bbe60bf3d75ef465d3e404,0,15,15,4,1,threeone,,,,,,,,,,,,,,,,,,,,,,,,,,,,,,,,,,,,,,,,,,,,,,,,,,,,,,,,,,,,,,,,,,,,,,,,,,,,,,,,,,,,,,,,,,,,,,,,,,,,,,,,,,,,,,,,,,,,,,,,,,,,,,,,,,,,,,,,,,,,,,,,,,,,,,,,
,,,,,,6131d01bc956974e057e9f72,62bbfb46f096412934dc47db,2022-06-29_09h12.35.094,Colour_Asymmetry_Pilot,2022.1.3,Win32,61.01653548,62bbe60bf3d75ef465d3e404,0,16,16,91,1,twofour,,,,,,,,,,,,,,,,,,,,,,,,,,,,,,,,,,,,,,,,,,,,,,,,,,,,,,,,,,,,,,,,,,,,,,,,,,,,,,,,,,,,,,,,,,,,,,,,,,,,,,,,,,,,,,,,,,,,,,,,,,,,,,,,,,,,,,,,,,,,,,,,,,,,,,,,
,,,,,,6131d01bc956974e057e9f72,62bbfb46f096412934dc47db,2022-06-29_09h12.35.094,Colour_Asymmetry_Pilot,2022.1.3,Win32,61.01653548,62bbe60bf3d75ef465d3e404,0,17,17,161,1,onethree,,,,,,,,,,,,,,,,,,,,,,,,,,,,,,,,,,,,,,,,,,,,,,,,,,,,,,,,,,,,,,,,,,,,,,,,,,,,,,,,,,,,,,,,,,,,,,,,,,,,,,,,,,,,,,,,,,,,,,,,,,,,,,,,,,,,,,,,,,,,,,,,,,,,,,,,
,,,,,,6131d01bc956974e057e9f72,62bbfb46f096412934dc47db,2022-06-29_09h12.35.094,Colour_Asymmetry_Pilot,2022.1.3,Win32,61.01653548,62bbe60bf3d75ef465d3e404,0,18,18,56,1,onetwo,,,,,,,,,,,,,,,,,,,,,,,,,,,,,,,,,,,,,,,,,,,,,,,,,,,,,,,,,,,,,,,,,,,,,,,,,,,,,,,,,,,,,,,,,,,,,,,,,,,,,,,,,,,,,,,,,,,,,,,,,,,,,,,,,,,,,,,,,,,,,,,,,,,,,,,,
,,,,,,6131d01bc956974e057e9f72,62bbfb46f096412934dc47db,2022-06-29_09h12.35.094,Colour_Asymmetry_Pilot,2022.1.3,Win32,61.01653548,62bbe60bf3d75ef465d3e404,0,19,19,146,1,twoone,,,,,,,,,,,,,,,,,,,,,,,,,,,,,,,,,,,,,,,,,,,,,,,,,,,,,,,,,,,,,,,,,,,,,,,,,,,,,,,,,,,,,,,,,,,,,,,,,,,,,,,,,,,,,,,,,,,,,,,,,,,,,,,,,,,,,,,,,,,,,,,,,,,,,,,,
,,,,,,6131d01bc956974e057e9f72,62bbfb46f096412934dc47db,2022-06-29_09h12.35.094,Colour_Asymmetry_Pilot,2022.1.3,Win32,61.01653548,62bbe60bf3d75ef465d3e404,0,20,20,64,1,onetwo,,,,,,,,,,,,,,,,,,,,,,,,,,,,,,,,,,,,,,,,,,,,,,,,,,,,,,,,,,,,,,,,,,,,,,,,,,,,,,,,,,,,,,,,,,,,,,,,,,,,,,,,,,,,,,,,,,,,,,,,,,,,,,,,,,,,,,,,,,,,,,,,,,,,,,,,
,,,,,,6131d01bc956974e057e9f72,62bbfb46f096412934dc47db,2022-06-29_09h12.35.094,Colour_Asymmetry_Pilot,2022.1.3,Win32,61.01653548,62bbe60bf3d75ef465d3e404,0,21,21,67,1,twofour,,,,,,,,,,,,,,,,,,,,,,,,,,,,,,,,,,,,,,,,,,,,,,,,,,,,,,,,,,,,,,,,,,,,,,,,,,,,,,,,,,,,,,,,,,,,,,,,,,,,,,,,,,,,,,,,,,,,,,,,,,,,,,,,,,,,,,,,,,,,,,,,,,,,,,,,
,,,,,,6131d01bc956974e057e9f72,62bbfb46f096412934dc47db,2022-06-29_09h12.35.094,Colour_Asymmetry_Pilot,2022.1.3,Win32,61.01653548,62bbe60bf3d75ef465d3e404,0,22,22,17,1,onethree,,,,,,,,,,,,,,,,,,,,,,,,,,,,,,,,,,,,,,,,,,,,,,,,,,,,,,,,,,,,,,,,,,,,,,,,,,,,,,,,,,,,,,,,,,,,,,,,,,,,,,,,,,,,,,,,,,,,,,,,,,,,,,,,,,,,,,,,,,,,,,,,,,,,,,,,
,,,,,,6131d01bc956974e057e9f72,62bbfb46f096412934dc47db,2022-06-29_09h12.35.094,Colour_Asymmetry_Pilot,2022.1.3,Win32,61.01653548,62bbe60bf3d75ef465d3e404,0,23,23,1,1,onethree,,,,,,,,,,,,,,,,,,,,,,,,,,,,,,,,,,,,,,,,,,,,,,,,,,,,,,,,,,,,,,,,,,,,,,,,,,,,,,,,,,,,,,,,,,,,,,,,,,,,,,,,,,,,,,,,,,,,,,,,,,,,,,,,,,,,,,,,,,,,,,,,,,,,,,,,
,,,,,,6131d01bc956974e057e9f72,62bbfb46f096412934dc47db,2022-06-29_09h12.35.094,Colour_Asymmetry_Pilot,2022.1.3,Win32,61.01653548,62bbe60bf3d75ef465d3e404,0,24,24,99,1,twofour,,,,,,,,,,,,,,,,,,,,,,,,,,,,,,,,,,,,,,,,,,,,,,,,,,,,,,,,,,,,,,,,,,,,,,,,,,,,,,,,,,,,,,,,,,,,,,,,,,,,,,,,,,,,,,,,,,,,,,,,,,,,,,,,,,,,,,,,,,,,,,,,,,,,,,,,
,,,,,,6131d01bc956974e057e9f72,62bbfb46f096412934dc47db,2022-06-29_09h12.35.094,Colour_Asymmetry_Pilot,2022.1.3,Win32,61.01653548,62bbe60bf3d75ef465d3e404,0,25,25,120,1,onetwo,,,,,,,,,,,,,,,,,,,,,,,,,,,,,,,,,,,,,,,,,,,,,,,,,,,,,,,,,,,,,,,,,,,,,,,,,,,,,,,,,,,,,,,,,,,,,,,,,,,,,,,,,,,,,,,,,,,,,,,,,,,,,,,,,,,,,,,,,,,,,,,,,,,,,,,,
,,,,,,6131d01bc956974e057e9f72,62bbfb46f096412934dc47db,2022-06-29_09h12.35.094,Colour_Asymmetry_Pilot,2022.1.3,Win32,61.01653548,62bbe60bf3d75ef465d3e404,0,26,26,80,1,onetwo,,,,,,,,,,,,,,,,,,,,,,,,,,,,,,,,,,,,,,,,,,,,,,,,,,,,,,,,,,,,,,,,,,,,,,,,,,,,,,,,,,,,,,,,,,,,,,,,,,,,,,,,,,,,,,,,,,,,,,,,,,,,,,,,,,,,,,,,,,,,,,,,,,,,,,,,
,,,,,,6131d01bc956974e057e9f72,62bbfb46f096412934dc47db,2022-06-29_09h12.35.094,Colour_Asymmetry_Pilot,2022.1.3,Win32,61.01653548,62bbe60bf3d75ef465d3e404,0,27,27,89,1,onethree,,,,,,,,,,,,,,,,,,,,,,,,,,,,,,,,,,,,,,,,,,,,,,,,,,,,,,,,,,,,,,,,,,,,,,,,,,,,,,,,,,,,,,,,,,,,,,,,,,,,,,,,,,,,,,,,,,,,,,,,,,,,,,,,,,,,,,,,,,,,,,,,,,,,,,,,
,,,,,,6131d01bc956974e057e9f72,62bbfb46f096412934dc47db,2022-06-29_09h12.35.094,Colour_Asymmetry_Pilot,2022.1.3,Win32,61.01653548,62bbe60bf3d75ef465d3e404,0,28,28,143,1,fourthree,,,,,,,,,,,,,,,,,,,,,,,,,,,,,,,,,,,,,,,,,,,,,,,,,,,,,,,,,,,,,,,,,,,,,,,,,,,,,,,,,,,,,,,,,,,,,,,,,,,,,,,,,,,,,,,,,,,,,,,,,,,,,,,,,,,,,,,,,,,,,,,,,,,,,,,,
,,,,,,6131d01bc956974e057e9f72,62bbfb46f096412934dc47db,2022-06-29_09h12.35.094,Colour_Asymmetry_Pilot,2022.1.3,Win32,61.01653548,62bbe60bf3d75ef465d3e404,0,29,29,122,1,twoone,,,,,,,,,,,,,,,,,,,,,,,,,,,,,,,,,,,,,,,,,,,,,,,,,,,,,,,,,,,,,,,,,,,,,,,,,,,,,,,,,,,,,,,,,,,,,,,,,,,,,,,,,,,,,,,,,,,,,,,,,,,,,,,,,,,,,,,,,,,,,,,,,,,,,,,,
,,,,,,6131d01bc956974e057e9f72,62bbfb46f096412934dc47db,2022-06-29_09h12.35.094,Colour_Asymmetry_Pilot,2022.1.3,Win32,61.01653548,62bbe60bf3d75ef465d3e404,0,30,30,147,1,twofour,,,,,,,,,,,,,,,,,,,,,,,,,,,,,,,,,,,,,,,,,,,,,,,,,,,,,,,,,,,,,,,,,,,,,,,,,,,,,,,,,,,,,,,,,,,,,,,,,,,,,,,,,,,,,,,,,,,,,,,,,,,,,,,,,,,,,,,,,,,,,,,,,,,,,,,,
,,,,,,6131d01bc956974e057e9f72,62bbfb46f096412934dc47db,2022-06-29_09h12.35.094,Colour_Asymmetry_Pilot,2022.1.3,Win32,61.01653548,62bbe60bf3d75ef465d3e404,0,31,31,81,1,onethree,,,,,,,,,,,,,,,,,,,,,,,,,,,,,,,,,,,,,,,,,,,,,,,,,,,,,,,,,,,,,,,,,,,,,,,,,,,,,,,,,,,,,,,,,,,,,,,,,,,,,,,,,,,,,,,,,,,,,,,,,,,,,,,,,,,,,,,,,,,,,,,,,,,,,,,,
,,,,,,6131d01bc956974e057e9f72,62bbfb46f096412934dc47db,2022-06-29_09h12.35.094,Colour_Asymmetry_Pilot,2022.1.3,Win32,61.01653548,62bbe60bf3d75ef465d3e404,0,32,32,21,1,threefour,,,,,,,,,,,,,,,,,,,,,,,,,,,,,,,,,,,,,,,,,,,,,,,,,,,,,,,,,,,,,,,,,,,,,,,,,,,,,,,,,,,,,,,,,,,,,,,,,,,,,,,,,,,,,,,,,,,,,,,,,,,,,,,,,,,,,,,,,,,,,,,,,,,,,,,,
,,,,,,6131d01bc956974e057e9f72,62bbfb46f096412934dc47db,2022-06-29_09h12.35.094,Colour_Asymmetry_Pilot,2022.1.3,Win32,61.01653548,62bbe60bf3d75ef465d3e404,0,33,33,138,1,twoone,,,,,,,,,,,,,,,,,,,,,,,,,,,,,,,,,,,,,,,,,,,,,,,,,,,,,,,,,,,,,,,,,,,,,,,,,,,,,,,,,,,,,,,,,,,,,,,,,,,,,,,,,,,,,,,,,,,,,,,,,,,,,,,,,,,,,,,,,,,,,,,,,,,,,,,,
,,,,,,6131d01bc956974e057e9f72,62bbfb46f096412934dc47db,2022-06-29_09h12.35.094,Colour_Asymmetry_Pilot,2022.1.3,Win32,61.01653548,62bbe60bf3d75ef465d3e404,0,34,34,117,1,threefour,,,,,,,,,,,,,,,,,,,,,,,,,,,,,,,,,,,,,,,,,,,,,,,,,,,,,,,,,,,,,,,,,,,,,,,,,,,,,,,,,,,,,,,,,,,,,,,,,,,,,,,,,,,,,,,,,,,,,,,,,,,,,,,,,,,,,,,,,,,,,,,,,,,,,,,,
,,,,,,6131d01bc956974e057e9f72,62bbfb46f096412934dc47db,2022-06-29_09h12.35.094,Colour_Asymmetry_Pilot,2022.1.3,Win32,61.01653548,62bbe60bf3d75ef465d3e404,0,35,35,66,1,twoone,,,,,,,,,,,,,,,,,,,,,,,,,,,,,,,,,,,,,,,,,,,,,,,,,,,,,,,,,,,,,,,,,,,,,,,,,,,,,,,,,,,,,,,,,,,,,,,,,,,,,,,,,,,,,,,,,,,,,,,,,,,,,,,,,,,,,,,,,,,,,,,,,,,,,,,,
,,,,,,6131d01bc956974e057e9f72,62bbfb46f096412934dc47db,2022-06-29_09h12.35.094,Colour_Asymmetry_Pilot,2022.1.3,Win32,61.01653548,62bbe60bf3d75ef465d3e404,0,36,36,57,1,onethree,,,,,,,,,,,,,,,,,,,,,,,,,,,,,,,,,,,,,,,,,,,,,,,,,,,,,,,,,,,,,,,,,,,,,,,,,,,,,,,,,,,,,,,,,,,,,,,,,,,,,,,,,,,,,,,,,,,,,,,,,,,,,,,,,,,,,,,,,,,,,,,,,,,,,,,,
,,,,,,6131d01bc956974e057e9f72,62bbfb46f096412934dc47db,2022-06-29_09h12.35.094,Colour_Asymmetry_Pilot,2022.1.3,Win32,61.01653548,62bbe60bf3d75ef465d3e404,0,37,37,155,1,twofour,,,,,,,,,,,,,,,,,,,,,,,,,,,,,,,,,,,,,,,,,,,,,,,,,,,,,,,,,,,,,,,,,,,,,,,,,,,,,,,,,,,,,,,,,,,,,,,,,,,,,,,,,,,,,,,,,,,,,,,,,,,,,,,,,,,,,,,,,,,,,,,,,,,,,,,,
,,,,,,6131d01bc956974e057e9f72,62bbfb46f096412934dc47db,2022-06-29_09h12.35.094,Colour_Asymmetry_Pilot,2022.1.3,Win32,61.01653548,62bbe60bf3d75ef465d3e404,0,38,38,130,1,twoone,,,,,,,,,,,,,,,,,,,,,,,,,,,,,,,,,,,,,,,,,,,,,,,,,,,,,,,,,,,,,,,,,,,,,,,,,,,,,,,,,,,,,,,,,,,,,,,,,,,,,,,,,,,,,,,,,,,,,,,,,,,,,,,,,,,,,,,,,,,,,,,,,,,,,,,,
,,,,,,6131d01bc956974e057e9f72,62bbfb46f096412934dc47db,2022-06-29_09h12.35.094,Colour_Asymmetry_Pilot,2022.1.3,Win32,61.01653548,62bbe60bf3d75ef465d3e404,0,39,39,116,1,threeone,,,,,,,,,,,,,,,,,,,,,,,,,,,,,,,,,,,,,,,,,,,,,,,,,,,,,,,,,,,,,,,,,,,,,,,,,,,,,,,,,,,,,,,,,,,,,,,,,,,,,,,,,,,,,,,,,,,,,,,,,,,,,,,,,,,,,,,,,,,,,,,,,,,,,,,,
,,,,,,6131d01bc956974e057e9f72,62bbfb46f096412934dc47db,2022-06-29_09h12.35.094,Colour_Asymmetry_Pilot,2022.1.3,Win32,61.01653548,62bbe60bf3d75ef465d3e404,0,40,40,27,1,twofour,,,,,,,,,,,,,,,,,,,,,,,,,,,,,,,,,,,,,,,,,,,,,,,,,,,,,,,,,,,,,,,,,,,,,,,,,,,,,,,,,,,,,,,,,,,,,,,,,,,,,,,,,,,,,,,,,,,,,,,,,,,,,,,,,,,,,,,,,,,,,,,,,,,,,,,,
,,,,,,6131d01bc956974e057e9f72,62bbfb46f096412934dc47db,2022-06-29_09h12.35.094,Colour_Asymmetry_Pilot,2022.1.3,Win32,61.01653548,62bbe60bf3d75ef465d3e404,0,41,41,61,1,threefour,,,,,,,,,,,,,,,,,,,,,,,,,,,,,,,,,,,,,,,,,,,,,,,,,,,,,,,,,,,,,,,,,,,,,,,,,,,,,,,,,,,,,,,,,,,,,,,,,,,,,,,,,,,,,,,,,,,,,,,,,,,,,,,,,,,,,,,,,,,,,,,,,,,,,,,,
,,,,,,6131d01bc956974e057e9f72,62bbfb46f096412934dc47db,2022-06-29_09h12.35.094,Colour_Asymmetry_Pilot,2022.1.3,Win32,61.01653548,62bbe60bf3d75ef465d3e404,0,42,42,51,1,twofour,,,,,,,,,,,,,,,,,,,,,,,,,,,,,,,,,,,,,,,,,,,,,,,,,,,,,,,,,,,,,,,,,,,,,,,,,,,,,,,,,,,,,,,,,,,,,,,,,,,,,,,,,,,,,,,,,,,,,,,,,,,,,,,,,,,,,,,,,,,,,,,,,,,,,,,,
,,,,,,6131d01bc956974e057e9f72,62bbfb46f096412934dc47db,2022-06-29_09h12.35.094,Colour_Asymmetry_Pilot,2022.1.3,Win32,61.01653548,62bbe60bf3d75ef465d3e404,0,43,43,118,1,fourtwo,,,,,,,,,,,,,,,,,,,,,,,,,,,,,,,,,,,,,,,,,,,,,,,,,,,,,,,,,,,,,,,,,,,,,,,,,,,,,,,,,,,,,,,,,,,,,,,,,,,,,,,,,,,,,,,,,,,,,,,,,,,,,,,,,,,,,,,,,,,,,,,,,,,,,,,,
,,,,,,6131d01bc956974e057e9f72,62bbfb46f096412934dc47db,2022-06-29_09h12.35.094,Colour_Asymmetry_Pilot,2022.1.3,Win32,61.01653548,62bbe60bf3d75ef465d3e404,0,44,44,141,1,threefour,,,,,,,,,,,,,,,,,,,,,,,,,,,,,,,,,,,,,,,,,,,,,,,,,,,,,,,,,,,,,,,,,,,,,,,,,,,,,,,,,,,,,,,,,,,,,,,,,,,,,,,,,,,,,,,,,,,,,,,,,,,,,,,,,,,,,,,,,,,,,,,,,,,,,,,,
,,,,,,6131d01bc956974e057e9f72,62bbfb46f096412934dc47db,2022-06-29_09h12.35.094,Colour_Asymmetry_Pilot,2022.1.3,Win32,61.01653548,62bbe60bf3d75ef465d3e404,0,45,45,124,1,threeone,,,,,,,,,,,,,,,,,,,,,,,,,,,,,,,,,,,,,,,,,,,,,,,,,,,,,,,,,,,,,,,,,,,,,,,,,,,,,,,,,,,,,,,,,,,,,,,,,,,,,,,,,,,,,,,,,,,,,,,,,,,,,,,,,,,,,,,,,,,,,,,,,,,,,,,,
,,,,,,6131d01bc956974e057e9f72,62bbfb46f096412934dc47db,2022-06-29_09h12.35.094,Colour_Asymmetry_Pilot,2022.1.3,Win32,61.01653548,62bbe60bf3d75ef465d3e404,0,46,46,126,1,fourtwo,,,,,,,,,,,,,,,,,,,,,,,,,,,,,,,,,,,,,,,,,,,,,,,,,,,,,,,,,,,,,,,,,,,,,,,,,,,,,,,,,,,,,,,,,,,,,,,,,,,,,,,,,,,,,,,,,,,,,,,,,,,,,,,,,,,,,,,,,,,,,,,,,,,,,,,,
,,,,,,6131d01bc956974e057e9f72,62bbfb46f096412934dc47db,2022-06-29_09h12.35.094,Colour_Asymmetry_Pilot,2022.1.3,Win32,61.01653548,62bbe60bf3d75ef465d3e404,0,47,47,10,1,twoone,,,,,,,,,,,,,,,,,,,,,,,,,,,,,,,,,,,,,,,,,,,,,,,,,,,,,,,,,,,,,,,,,,,,,,,,,,,,,,,,,,,,,,,,,,,,,,,,,,,,,,,,,,,,,,,,,,,,,,,,,,,,,,,,,,,,,,,,,,,,,,,,,,,,,,,,
,,,,,,6131d01bc956974e057e9f72,62bbfb46f096412934dc47db,2022-06-29_09h12.35.094,Colour_Asymmetry_Pilot,2022.1.3,Win32,61.01653548,62bbe60bf3d75ef465d3e404,0,48,48,77,1,threefour,,,,,,,,,,,,,,,,,,,,,,,,,,,,,,,,,,,,,,,,,,,,,,,,,,,,,,,,,,,,,,,,,,,,,,,,,,,,,,,,,,,,,,,,,,,,,,,,,,,,,,,,,,,,,,,,,,,,,,,,,,,,,,,,,,,,,,,,,,,,,,,,,,,,,,,,
,,,,,,6131d01bc956974e057e9f72,62bbfb46f096412934dc47db,2022-06-29_09h12.35.094,Colour_Asymmetry_Pilot,2022.1.3,Win32,61.01653548,62bbe60bf3d75ef465d3e404,0,49,49,145,1,onethree,,,,,,,,,,,,,,,,,,,,,,,,,,,,,,,,,,,,,,,,,,,,,,,,,,,,,,,,,,,,,,,,,,,,,,,,,,,,,,,,,,,,,,,,,,,,,,,,,,,,,,,,,,,,,,,,,,,,,,,,,,,,,,,,,,,,,,,,,,,,,,,,,,,,,,,,
,,,,,,6131d01bc956974e057e9f72,62bbfb46f096412934dc47db,2022-06-29_09h12.35.094,Colour_Asymmetry_Pilot,2022.1.3,Win32,61.01653548,62bbe60bf3d75ef465d3e404,0,50,50,111,1,fourthree,,,,,,,,,,,,,,,,,,,,,,,,,,,,,,,,,,,,,,,,,,,,,,,,,,,,,,,,,,,,,,,,,,,,,,,,,,,,,,,,,,,,,,,,,,,,,,,,,,,,,,,,,,,,,,,,,,,,,,,,,,,,,,,,,,,,,,,,,,,,,,,,,,,,,,,,
,,,,,,6131d01bc956974e057e9f72,62bbfb46f096412934dc47db,2022-06-29_09h12.35.094,Colour_Asymmetry_Pilot,2022.1.3,Win32,61.01653548,62bbe60bf3d75ef465d3e404,0,51,51,20,1,threeone,,,,,,,,,,,,,,,,,,,,,,,,,,,,,,,,,,,,,,,,,,,,,,,,,,,,,,,,,,,,,,,,,,,,,,,,,,,,,,,,,,,,,,,,,,,,,,,,,,,,,,,,,,,,,,,,,,,,,,,,,,,,,,,,,,,,,,,,,,,,,,,,,,,,,,,,
,,,,,,6131d01bc956974e057e9f72,62bbfb46f096412934dc47db,2022-06-29_09h12.35.094,Colour_Asymmetry_Pilot,2022.1.3,Win32,61.01653548,62bbe60bf3d75ef465d3e404,0,52,52,94,1,fourtwo,,,,,,,,,,,,,,,,,,,,,,,,,,,,,,,,,,,,,,,,,,,,,,,,,,,,,,,,,,,,,,,,,,,,,,,,,,,,,,,,,,,,,,,,,,,,,,,,,,,,,,,,,,,,,,,,,,,,,,,,,,,,,,,,,,,,,,,,,,,,,,,,,,,,,,,,
,,,,,,6131d01bc956974e057e9f72,62bbfb46f096412934dc47db,2022-06-29_09h12.35.094,Colour_Asymmetry_Pilot,2022.1.3,Win32,61.01653548,62bbe60bf3d75ef465d3e404,0,53,53,26,1,twoone,,,,,,,,,,,,,,,,,,,,,,,,,,,,,,,,,,,,,,,,,,,,,,,,,,,,,,,,,,,,,,,,,,,,,,,,,,,,,,,,,,,,,,,,,,,,,,,,,,,,,,,,,,,,,,,,,,,,,,,,,,,,,,,,,,,,,,,,,,,,,,,,,,,,,,,,
,,,,,,6131d01bc956974e057e9f72,62bbfb46f096412934dc47db,2022-06-29_09h12.35.094,Colour_Asymmetry_Pilot,2022.1.3,Win32,61.01653548,62bbe60bf3d75ef465d3e404,0,54,54,15,1,fourthree,,,,,,,,,,,,,,,,,,,,,,,,,,,,,,,,,,,,,,,,,,,,,,,,,,,,,,,,,,,,,,,,,,,,,,,,,,,,,,,,,,,,,,,,,,,,,,,,,,,,,,,,,,,,,,,,,,,,,,,,,,,,,,,,,,,,,,,,,,,,,,,,,,,,,,,,
,,,,,,6131d01bc956974e057e9f72,62bbfb46f096412934dc47db,2022-06-29_09h12.35.094,Colour_Asymmetry_Pilot,2022.1.3,Win32,61.01653548,62bbe60bf3d75ef465d3e404,0,55,55,43,1,twofour,,,,,,,,,,,,,,,,,,,,,,,,,,,,,,,,,,,,,,,,,,,,,,,,,,,,,,,,,,,,,,,,,,,,,,,,,,,,,,,,,,,,,,,,,,,,,,,,,,,,,,,,,,,,,,,,,,,,,,,,,,,,,,,,,,,,,,,,,,,,,,,,,,,,,,,,
,,,,,,6131d01bc956974e057e9f72,62bbfb46f096412934dc47db,2022-06-29_09h12.35.094,Colour_Asymmetry_Pilot,2022.1.3,Win32,61.01653548,62bbe60bf3d75ef465d3e404,0,56,56,52,1,threeone,,,,,,,,,,,,,,,,,,,,,,,,,,,,,,,,,,,,,,,,,,,,,,,,,,,,,,,,,,,,,,,,,,,,,,,,,,,,,,,,,,,,,,,,,,,,,,,,,,,,,,,,,,,,,,,,,,,,,,,,,,,,,,,,,,,,,,,,,,,,,,,,,,,,,,,,
,,,,,,6131d01bc956974e057e9f72,62bbfb46f096412934dc47db,2022-06-29_09h12.35.094,Colour_Asymmetry_Pilot,2022.1.3,Win32,61.01653548,62bbe60bf3d75ef465d3e404,0,57,57,19,1,twofour,,,,,,,,,,,,,,,,,,,,,,,,,,,,,,,,,,,,,,,,,,,,,,,,,,,,,,,,,,,,,,,,,,,,,,,,,,,,,,,,,,,,,,,,,,,,,,,,,,,,,,,,,,,,,,,,,,,,,,,,,,,,,,,,,,,,,,,,,,,,,,,,,,,,,,,,
,,,,,,6131d01bc956974e057e9f72,62bbfb46f096412934dc47db,2022-06-29_09h12.35.094,Colour_Asymmetry_Pilot,2022.1.3,Win32,61.01653548,62bbe60bf3d75ef465d3e404,0,58,58,79,1,fourthree,,,,,,,,,,,,,,,,,,,,,,,,,,,,,,,,,,,,,,,,,,,,,,,,,,,,,,,,,,,,,,,,,,,,,,,,,,,,,,,,,,,,,,,,,,,,,,,,,,,,,,,,,,,,,,,,,,,,,,,,,,,,,,,,,,,,,,,,,,,,,,,,,,,,,,,,
,,,,,,6131d01bc956974e057e9f72,62bbfb46f096412934dc47db,2022-06-29_09h12.35.094,Colour_Asymmetry_Pilot,2022.1.3,Win32,61.01653548,62bbe60bf3d75ef465d3e404,0,59,59,108,1,threeone,,,,,,,,,,,,,,,,,,,,,,,,,,,,,,,,,,,,,,,,,,,,,,,,,,,,,,,,,,,,,,,,,,,,,,,,,,,,,,,,,,,,,,,,,,,,,,,,,,,,,,,,,,,,,,,,,,,,,,,,,,,,,,,,,,,,,,,,,,,,,,,,,,,,,,,,
,,,,,,6131d01bc956974e057e9f72,62bbfb46f096412934dc47db,2022-06-29_09h12.35.094,Colour_Asymmetry_Pilot,2022.1.3,Win32,61.01653548,62bbe60bf3d75ef465d3e404,0,60,60,46,1,fourtwo,,,,,,,,,,,,,,,,,,,,,,,,,,,,,,,,,,,,,,,,,,,,,,,,,,,,,,,,,,,,,,,,,,,,,,,,,,,,,,,,,,,,,,,,,,,,,,,,,,,,,,,,,,,,,,,,,,,,,,,,,,,,,,,,,,,,,,,,,,,,,,,,,,,,,,,,
,,,,,,6131d01bc956974e057e9f72,62bbfb46f096412934dc47db,2022-06-29_09h12.35.094,Colour_Asymmetry_Pilot,2022.1.3,Win32,61.01653548,62bbe60bf3d75ef465d3e404,0,61,61,106,1,twoone,,,,,,,,,,,,,,,,,,,,,,,,,,,,,,,,,,,,,,,,,,,,,,,,,,,,,,,,,,,,,,,,,,,,,,,,,,,,,,,,,,,,,,,,,,,,,,,,,,,,,,,,,,,,,,,,,,,,,,,,,,,,,,,,,,,,,,,,,,,,,,,,,,,,,,,,
,,,,,,6131d01bc956974e057e9f72,62bbfb46f096412934dc47db,2022-06-29_09h12.35.094,Colour_Asymmetry_Pilot,2022.1.3,Win32,61.01653548,62bbe60bf3d75ef465d3e404,0,62,62,136,1,onetwo,,,,,,,,,,,,,,,,,,,,,,,,,,,,,,,,,,,,,,,,,,,,,,,,,,,,,,,,,,,,,,,,,,,,,,,,,,,,,,,,,,,,,,,,,,,,,,,,,,,,,,,,,,,,,,,,,,,,,,,,,,,,,,,,,,,,,,,,,,,,,,,,,,,,,,,,
,,,,,,6131d01bc956974e057e9f72,62bbfb46f096412934dc47db,2022-06-29_09h12.35.094,Colour_Asymmetry_Pilot,2022.1.3,Win32,61.01653548,62bbe60bf3d75ef465d3e404,0,63,63,25,1,onethree,,,,,,,,,,,,,,,,,,,,,,,,,,,,,,,,,,,,,,,,,,,,,,,,,,,,,,,,,,,,,,,,,,,,,,,,,,,,,,,,,,,,,,,,,,,,,,,,,,,,,,,,,,,,,,,,,,,,,,,,,,,,,,,,,,,,,,,,,,,,,,,,,,,,,,,,
,,,,,,6131d01bc956974e057e9f72,62bbfb46f096412934dc47db,2022-06-29_09h12.35.094,Colour_Asymmetry_Pilot,2022.1.3,Win32,61.01653548,62bbe60bf3d75ef465d3e404,0,64,64,137,1,onethree,,,,,,,,,,,,,,,,,,,,,,,,,,,,,,,,,,,,,,,,,,,,,,,,,,,,,,,,,,,,,,,,,,,,,,,,,,,,,,,,,,,,,,,,,,,,,,,,,,,,,,,,,,,,,,,,,,,,,,,,,,,,,,,,,,,,,,,,,,,,,,,,,,,,,,,,
,,,,,,6131d01bc956974e057e9f72,62bbfb46f096412934dc47db,2022-06-29_09h12.35.094,Colour_Asymmetry_Pilot,2022.1.3,Win32,61.01653548,62bbe60bf3d75ef465d3e404,0,65,65,45,1,threefour,,,,,,,,,,,,,,,,,,,,,,,,,,,,,,,,,,,,,,,,,,,,,,,,,,,,,,,,,,,,,,,,,,,,,,,,,,,,,,,,,,,,,,,,,,,,,,,,,,,,,,,,,,,,,,,,,,,,,,,,,,,,,,,,,,,,,,,,,,,,,,,,,,,,,,,,
,,,,,,6131d01bc956974e057e9f72,62bbfb46f096412934dc47db,2022-06-29_09h12.35.094,Colour_Asymmetry_Pilot,2022.1.3,Win32,61.01653548,62bbe60bf3d75ef465d3e404,0,66,66,70,1,fourtwo,,,,,,,,,,,,,,,,,,,,,,,,,,,,,,,,,,,,,,,,,,,,,,,,,,,,,,,,,,,,,,,,,,,,,,,,,,,,,,,,,,,,,,,,,,,,,,,,,,,,,,,,,,,,,,,,,,,,,,,,,,,,,,,,,,,,,,,,,,,,,,,,,,,,,,,,
,,,,,,6131d01bc956974e057e9f72,62bbfb46f096412934dc47db,2022-06-29_09h12.35.094,Colour_Asymmetry_Pilot,2022.1.3,Win32,61.01653548,62bbe60bf3d75ef465d3e404,0,67,67,6,1,fourtwo,,,,,,,,,,,,,,,,,,,,,,,,,,,,,,,,,,,,,,,,,,,,,,,,,,,,,,,,,,,,,,,,,,,,,,,,,,,,,,,,,,,,,,,,,,,,,,,,,,,,,,,,,,,,,,,,,,,,,,,,,,,,,,,,,,,,,,,,,,,,,,,,,,,,,,,,
,,,,,,6131d01bc956974e057e9f72,62bbfb46f096412934dc47db,2022-06-29_09h12.35.094,Colour_Asymmetry_Pilot,2022.1.3,Win32,61.01653548,62bbe60bf3d75ef465d3e404,0,68,68,13,1,threefour,,,,,,,,,,,,,,,,,,,,,,,,,,,,,,,,,,,,,,,,,,,,,,,,,,,,,,,,,,,,,,,,,,,,,,,,,,,,,,,,,,,,,,,,,,,,,,,,,,,,,,,,,,,,,,,,,,,,,,,,,,,,,,,,,,,,,,,,,,,,,,,,,,,,,,,,
,,,,,,6131d01bc956974e057e9f72,62bbfb46f096412934dc47db,2022-06-29_09h12.35.094,Colour_Asymmetry_Pilot,2022.1.3,Win32,61.01653548,62bbe60bf3d75ef465d3e404,0,69,69,97,1,onethree,,,,,,,,,,,,,,,,,,,,,,,,,,,,,,,,,,,,,,,,,,,,,,,,,,,,,,,,,,,,,,,,,,,,,,,,,,,,,,,,,,,,,,,,,,,,,,,,,,,,,,,,,,,,,,,,,,,,,,,,,,,,,,,,,,,,,,,,,,,,,,,,,,,,,,,,
,,,,,,6131d01bc956974e057e9f72,62bbfb46f096412934dc47db,2022-06-29_09h12.35.094,Colour_Asymmetry_Pilot,2022.1.3,Win32,61.01653548,62bbe60bf3d75ef465d3e404,0,70,70,75,1,twofour,,,,,,,,,,,,,,,,,,,,,,,,,,,,,,,,,,,,,,,,,,,,,,,,,,,,,,,,,,,,,,,,,,,,,,,,,,,,,,,,,,,,,,,,,,,,,,,,,,,,,,,,,,,,,,,,,,,,,,,,,,,,,,,,,,,,,,,,,,,,,,,,,,,,,,,,
,,,,,,6131d01bc956974e057e9f72,62bbfb46f096412934dc47db,2022-06-29_09h12.35.094,Colour_Asymmetry_Pilot,2022.1.3,Win32,61.01653548,62bbe60bf3d75ef465d3e404,0,71,71,114,1,twoone,,,,,,,,,,,,,,,,,,,,,,,,,,,,,,,,,,,,,,,,,,,,,,,,,,,,,,,,,,,,,,,,,,,,,,,,,,,,,,,,,,,,,,,,,,,,,,,,,,,,,,,,,,,,,,,,,,,,,,,,,,,,,,,,,,,,,,,,,,,,,,,,,,,,,,,,
,,,,,,6131d01bc956974e057e9f72,62bbfb46f096412934dc47db,2022-06-29_09h12.35.094,Colour_Asymmetry_Pilot,2022.1.3,Win32,61.01653548,62bbe60bf3d75ef465d3e404,0,72,72,150,1,fourtwo,,,,,,,,,,,,,,,,,,,,,,,,,,,,,,,,,,,,,,,,,,,,,,,,,,,,,,,,,,,,,,,,,,,,,,,,,,,,,,,,,,,,,,,,,,,,,,,,,,,,,,,,,,,,,,,,,,,,,,,,,,,,,,,,,,,,,,,,,,,,,,,,,,,,,,,,
,,,,,,6131d01bc956974e057e9f72,62bbfb46f096412934dc47db,2022-06-29_09h12.35.094,Colour_Asymmetry_Pilot,2022.1.3,Win32,61.01653548,62bbe60bf3d75ef465d3e404,0,73,73,49,1,onethree,,,,,,,,,,,,,,,,,,,,,,,,,,,,,,,,,,,,,,,,,,,,,,,,,,,,,,,,,,,,,,,,,,,,,,,,,,,,,,,,,,,,,,,,,,,,,,,,,,,,,,,,,,,,,,,,,,,,,,,,,,,,,,,,,,,,,,,,,,,,,,,,,,,,,,,,
,,,,,,6131d01bc956974e057e9f72,62bbfb46f096412934dc47db,2022-06-29_09h12.35.094,Colour_Asymmetry_Pilot,2022.1.3,Win32,61.01653548,62bbe60bf3d75ef465d3e404,0,74,74,87,1,fourthree,,,,,,,,,,,,,,,,,,,,,,,,,,,,,,,,,,,,,,,,,,,,,,,,,,,,,,,,,,,,,,,,,,,,,,,,,,,,,,,,,,,,,,,,,,,,,,,,,,,,,,,,,,,,,,,,,,,,,,,,,,,,,,,,,,,,,,,,,,,,,,,,,,,,,,,,
,,,,,,6131d01bc956974e057e9f72,62bbfb46f096412934dc47db,2022-06-29_09h12.35.094,Colour_Asymmetry_Pilot,2022.1.3,Win32,61.01653548,62bbe60bf3d75ef465d3e404,0,75,75,123,1,twofour,,,,,,,,,,,,,,,,,,,,,,,,,,,,,,,,,,,,,,,,,,,,,,,,,,,,,,,,,,,,,,,,,,,,,,,,,,,,,,,,,,,,,,,,,,,,,,,,,,,,,,,,,,,,,,,,,,,,,,,,,,,,,,,,,,,,,,,,,,,,,,,,,,,,,,,,
,,,,,,6131d01bc956974e057e9f72,62bbfb46f096412934dc47db,2022-06-29_09h12.35.094,Colour_Asymmetry_Pilot,2022.1.3,Win32,61.01653548,62bbe60bf3d75ef465d3e404,0,76,76,24,1,onetwo,,,,,,,,,,,,,,,,,,,,,,,,,,,,,,,,,,,,,,,,,,,,,,,,,,,,,,,,,,,,,,,,,,,,,,,,,,,,,,,,,,,,,,,,,,,,,,,,,,,,,,,,,,,,,,,,,,,,,,,,,,,,,,,,,,,,,,,,,,,,,,,,,,,,,,,,
,,,,,,6131d01bc956974e057e9f72,62bbfb46f096412934dc47db,2022-06-29_09h12.35.094,Colour_Asymmetry_Pilot,2022.1.3,Win32,61.01653548,62bbe60bf3d75ef465d3e404,0,77,77,112,1,onetwo,,,,,,,,,,,,,,,,,,,,,,,,,,,,,,,,,,,,,,,,,,,,,,,,,,,,,,,,,,,,,,,,,,,,,,,,,,,,,,,,,,,,,,,,,,,,,,,,,,,,,,,,,,,,,,,,,,,,,,,,,,,,,,,,,,,,,,,,,,,,,,,,,,,,,,,,
,,,,,,6131d01bc956974e057e9f72,62bbfb46f096412934dc47db,2022-06-29_09h12.35.094,Colour_Asymmetry_Pilot,2022.1.3,Win32,61.01653548,62bbe60bf3d75ef465d3e404,0,78,78,9,1,onethree,,,,,,,,,,,,,,,,,,,,,,,,,,,,,,,,,,,,,,,,,,,,,,,,,,,,,,,,,,,,,,,,,,,,,,,,,,,,,,,,,,,,,,,,,,,,,,,,,,,,,,,,,,,,,,,,,,,,,,,,,,,,,,,,,,,,,,,,,,,,,,,,,,,,,,,,
,,,,,,6131d01bc956974e057e9f72,62bbfb46f096412934dc47db,2022-06-29_09h12.35.094,Colour_Asymmetry_Pilot,2022.1.3,Win32,61.01653548,62bbe60bf3d75ef465d3e404,0,79,79,41,1,onethree,,,,,,,,,,,,,,,,,,,,,,,,,,,,,,,,,,,,,,,,,,,,,,,,,,,,,,,,,,,,,,,,,,,,,,,,,,,,,,,,,,,,,,,,,,,,,,,,,,,,,,,,,,,,,,,,,,,,,,,,,,,,,,,,,,,,,,,,,,,,,,,,,,,,,,,,
,,,,,,6131d01bc956974e057e9f72,62bbfb46f096412934dc47db,2022-06-29_09h12.35.094,Colour_Asymmetry_Pilot,2022.1.3,Win32,61.01653548,62bbe60bf3d75ef465d3e404,0,80,80,105,1,onethree,,,,,,,,,,,,,,,,,,,,,,,,,,,,,,,,,,,,,,,,,,,,,,,,,,,,,,,,,,,,,,,,,,,,,,,,,,,,,,,,,,,,,,,,,,,,,,,,,,,,,,,,,,,,,,,,,,,,,,,,,,,,,,,,,,,,,,,,,,,,,,,,,,,,,,,,
,,,,,,6131d01bc956974e057e9f72,62bbfb46f096412934dc47db,2022-06-29_09h12.35.094,Colour_Asymmetry_Pilot,2022.1.3,Win32,61.01653548,62bbe60bf3d75ef465d3e404,0,81,81,100,1,threeone,,,,,,,,,,,,,,,,,,,,,,,,,,,,,,,,,,,,,,,,,,,,,,,,,,,,,,,,,,,,,,,,,,,,,,,,,,,,,,,,,,,,,,,,,,,,,,,,,,,,,,,,,,,,,,,,,,,,,,,,,,,,,,,,,,,,,,,,,,,,,,,,,,,,,,,,
,,,,,,6131d01bc956974e057e9f72,62bbfb46f096412934dc47db,2022-06-29_09h12.35.094,Colour_Asymmetry_Pilot,2022.1.3,Win32,61.01653548,62bbe60bf3d75ef465d3e404,0,82,82,72,1,onetwo,,,,,,,,,,,,,,,,,,,,,,,,,,,,,,,,,,,,,,,,,,,,,,,,,,,,,,,,,,,,,,,,,,,,,,,,,,,,,,,,,,,,,,,,,,,,,,,,,,,,,,,,,,,,,,,,,,,,,,,,,,,,,,,,,,,,,,,,,,,,,,,,,,,,,,,,
,,,,,,6131d01bc956974e057e9f72,62bbfb46f096412934dc47db,2022-06-29_09h12.35.094,Colour_Asymmetry_Pilot,2022.1.3,Win32,61.01653548,62bbe60bf3d75ef465d3e404,0,83,83,88,1,onetwo,,,,,,,,,,,,,,,,,,,,,,,,,,,,,,,,,,,,,,,,,,,,,,,,,,,,,,,,,,,,,,,,,,,,,,,,,,,,,,,,,,,,,,,,,,,,,,,,,,,,,,,,,,,,,,,,,,,,,,,,,,,,,,,,,,,,,,,,,,,,,,,,,,,,,,,,
,,,,,,6131d01bc956974e057e9f72,62bbfb46f096412934dc47db,2022-06-29_09h12.35.094,Colour_Asymmetry_Pilot,2022.1.3,Win32,61.01653548,62bbe60bf3d75ef465d3e404,0,84,84,131,1,twofour,,,,,,,,,,,,,,,,,,,,,,,,,,,,,,,,,,,,,,,,,,,,,,,,,,,,,,,,,,,,,,,,,,,,,,,,,,,,,,,,,,,,,,,,,,,,,,,,,,,,,,,,,,,,,,,,,,,,,,,,,,,,,,,,,,,,,,,,,,,,,,,,,,,,,,,,
,,,,,,6131d01bc956974e057e9f72,62bbfb46f096412934dc47db,2022-06-29_09h12.35.094,Colour_Asymmetry_Pilot,2022.1.3,Win32,61.01653548,62bbe60bf3d75ef465d3e404,0,85,85,115,1,twofour,,,,,,,,,,,,,,,,,,,,,,,,,,,,,,,,,,,,,,,,,,,,,,,,,,,,,,,,,,,,,,,,,,,,,,,,,,,,,,,,,,,,,,,,,,,,,,,,,,,,,,,,,,,,,,,,,,,,,,,,,,,,,,,,,,,,,,,,,,,,,,,,,,,,,,,,
,,,,,,6131d01bc956974e057e9f72,62bbfb46f096412934dc47db,2022-06-29_09h12.35.094,Colour_Asymmetry_Pilot,2022.1.3,Win32,61.01653548,62bbe60bf3d75ef465d3e404,0,86,86,22,1,fourtwo,,,,,,,,,,,,,,,,,,,,,,,,,,,,,,,,,,,,,,,,,,,,,,,,,,,,,,,,,,,,,,,,,,,,,,,,,,,,,,,,,,,,,,,,,,,,,,,,,,,,,,,,,,,,,,,,,,,,,,,,,,,,,,,,,,,,,,,,,,,,,,,,,,,,,,,,
,,,,,,6131d01bc956974e057e9f72,62bbfb46f096412934dc47db,2022-06-29_09h12.35.094,Colour_Asymmetry_Pilot,2022.1.3,Win32,61.01653548,62bbe60bf3d75ef465d3e404,0,87,87,85,1,threefour,,,,,,,,,,,,,,,,,,,,,,,,,,,,,,,,,,,,,,,,,,,,,,,,,,,,,,,,,,,,,,,,,,,,,,,,,,,,,,,,,,,,,,,,,,,,,,,,,,,,,,,,,,,,,,,,,,,,,,,,,,,,,,,,,,,,,,,,,,,,,,,,,,,,,,,,
,,,,,,6131d01bc956974e057e9f72,62bbfb46f096412934dc47db,2022-06-29_09h12.35.094,Colour_Asymmetry_Pilot,2022.1.3,Win32,61.01653548,62bbe60bf3d75ef465d3e404,0,88,88,134,1,fourtwo,,,,,,,,,,,,,,,,,,,,,,,,,,,,,,,,,,,,,,,,,,,,,,,,,,,,,,,,,,,,,,,,,,,,,,,,,,,,,,,,,,,,,,,,,,,,,,,,,,,,,,,,,,,,,,,,,,,,,,,,,,,,,,,,,,,,,,,,,,,,,,,,,,,,,,,,
,,,,,,6131d01bc956974e057e9f72,62bbfb46f096412934dc47db,2022-06-29_09h12.35.094,Colour_Asymmetry_Pilot,2022.1.3,Win32,61.01653548,62bbe60bf3d75ef465d3e404,0,89,89,53,1,threefour,,,,,,,,,,,,,,,,,,,,,,,,,,,,,,,,,,,,,,,,,,,,,,,,,,,,,,,,,,,,,,,,,,,,,,,,,,,,,,,,,,,,,,,,,,,,,,,,,,,,,,,,,,,,,,,,,,,,,,,,,,,,,,,,,,,,,,,,,,,,,,,,,,,,,,,,
,,,,,,6131d01bc956974e057e9f72,62bbfb46f096412934dc47db,2022-06-29_09h12.35.094,Colour_Asymmetry_Pilot,2022.1.3,Win32,61.01653548,62bbe60bf3d75ef465d3e404,0,90,90,95,1,fourthree,,,,,,,,,,,,,,,,,,,,,,,,,,,,,,,,,,,,,,,,,,,,,,,,,,,,,,,,,,,,,,,,,,,,,,,,,,,,,,,,,,,,,,,,,,,,,,,,,,,,,,,,,,,,,,,,,,,,,,,,,,,,,,,,,,,,,,,,,,,,,,,,,,,,,,,,
,,,,,,6131d01bc956974e057e9f72,62bbfb46f096412934dc47db,2022-06-29_09h12.35.094,Colour_Asymmetry_Pilot,2022.1.3,Win32,61.01653548,62bbe60bf3d75ef465d3e404,0,91,91,40,1,onetwo,,,,,,,,,,,,,,,,,,,,,,,,,,,,,,,,,,,,,,,,,,,,,,,,,,,,,,,,,,,,,,,,,,,,,,,,,,,,,,,,,,,,,,,,,,,,,,,,,,,,,,,,,,,,,,,,,,,,,,,,,,,,,,,,,,,,,,,,,,,,,,,,,,,,,,,,
,,,,,,6131d01bc956974e057e9f72,62bbfb46f096412934dc47db,2022-06-29_09h12.35.094,Colour_Asymmetry_Pilot,2022.1.3,Win32,61.01653548,62bbe60bf3d75ef465d3e404,0,92,92,3,1,twofour,,,,,,,,,,,,,,,,,,,,,,,,,,,,,,,,,,,,,,,,,,,,,,,,,,,,,,,,,,,,,,,,,,,,,,,,,,,,,,,,,,,,,,,,,,,,,,,,,,,,,,,,,,,,,,,,,,,,,,,,,,,,,,,,,,,,,,,,,,,,,,,,,,,,,,,,
,,,,,,6131d01bc956974e057e9f72,62bbfb46f096412934dc47db,2022-06-29_09h12.35.094,Colour_Asymmetry_Pilot,2022.1.3,Win32,61.01653548,62bbe60bf3d75ef465d3e404,0,93,93,74,1,twoone,,,,,,,,,,,,,,,,,,,,,,,,,,,,,,,,,,,,,,,,,,,,,,,,,,,,,,,,,,,,,,,,,,,,,,,,,,,,,,,,,,,,,,,,,,,,,,,,,,,,,,,,,,,,,,,,,,,,,,,,,,,,,,,,,,,,,,,,,,,,,,,,,,,,,,,,
,,,,,,6131d01bc956974e057e9f72,62bbfb46f096412934dc47db,2022-06-29_09h12.35.094,Colour_Asymmetry_Pilot,2022.1.3,Win32,61.01653548,62bbe60bf3d75ef465d3e404,0,94,94,142,1,fourtwo,,,,,,,,,,,,,,,,,,,,,,,,,,,,,,,,,,,,,,,,,,,,,,,,,,,,,,,,,,,,,,,,,,,,,,,,,,,,,,,,,,,,,,,,,,,,,,,,,,,,,,,,,,,,,,,,,,,,,,,,,,,,,,,,,,,,,,,,,,,,,,,,,,,,,,,,
,,,,,,6131d01bc956974e057e9f72,62bbfb46f096412934dc47db,2022-06-29_09h12.35.094,Colour_Asymmetry_Pilot,2022.1.3,Win32,61.01653548,62bbe60bf3d75ef465d3e404,0,95,95,128,1,onetwo,,,,,,,,,,,,,,,,,,,,,,,,,,,,,,,,,,,,,,,,,,,,,,,,,,,,,,,,,,,,,,,,,,,,,,,,,,,,,,,,,,,,,,,,,,,,,,,,,,,,,,,,,,,,,,,,,,,,,,,,,,,,,,,,,,,,,,,,,,,,,,,,,,,,,,,,
,,,,,,6131d01bc956974e057e9f72,62bbfb46f096412934dc47db,2022-06-29_09h12.35.094,Colour_Asymmetry_Pilot,2022.1.3,Win32,61.01653548,62bbe60bf3d75ef465d3e404,0,96,96,76,1,threeone,,,,,,,,,,,,,,,,,,,,,,,,,,,,,,,,,,,,,,,,,,,,,,,,,,,,,,,,,,,,,,,,,,,,,,,,,,,,,,,,,,,,,,,,,,,,,,,,,,,,,,,,,,,,,,,,,,,,,,,,,,,,,,,,,,,,,,,,,,,,,,,,,,,,,,,,
,,,,,,6131d01bc956974e057e9f72,62bbfb46f096412934dc47db,2022-06-29_09h12.35.094,Colour_Asymmetry_Pilot,2022.1.3,Win32,61.01653548,62bbe60bf3d75ef465d3e404,0,97,97,148,1,threeone,,,,,,,,,,,,,,,,,,,,,,,,,,,,,,,,,,,,,,,,,,,,,,,,,,,,,,,,,,,,,,,,,,,,,,,,,,,,,,,,,,,,,,,,,,,,,,,,,,,,,,,,,,,,,,,,,,,,,,,,,,,,,,,,,,,,,,,,,,,,,,,,,,,,,,,,
,,,,,,6131d01bc956974e057e9f72,62bbfb46f096412934dc47db,2022-06-29_09h12.35.094,Colour_Asymmetry_Pilot,2022.1.3,Win32,61.01653548,62bbe60bf3d75ef465d3e404,0,98,98,34,1,twoone,,,,,,,,,,,,,,,,,,,,,,,,,,,,,,,,,,,,,,,,,,,,,,,,,,,,,,,,,,,,,,,,,,,,,,,,,,,,,,,,,,,,,,,,,,,,,,,,,,,,,,,,,,,,,,,,,,,,,,,,,,,,,,,,,,,,,,,,,,,,,,,,,,,,,,,,
,,,,,,6131d01bc956974e057e9f72,62bbfb46f096412934dc47db,2022-06-29_09h12.35.094,Colour_Asymmetry_Pilot,2022.1.3,Win32,61.01653548,62bbe60bf3d75ef465d3e404,0,99,99,35,1,twofour,,,,,,,,,,,,,,,,,,,,,,,,,,,,,,,,,,,,,,,,,,,,,,,,,,,,,,,,,,,,,,,,,,,,,,,,,,,,,,,,,,,,,,,,,,,,,,,,,,,,,,,,,,,,,,,,,,,,,,,,,,,,,,,,,,,,,,,,,,,,,,,,,,,,,,,,
,,,,,,6131d01bc956974e057e9f72,62bbfb46f096412934dc47db,2022-06-29_09h12.35.094,Colour_Asymmetry_Pilot,2022.1.3,Win32,61.01653548,62bbe60bf3d75ef465d3e404,0,100,100,157,1,threefour,,,,,,,,,,,,,,,,,,,,,,,,,,,,,,,,,,,,,,,,,,,,,,,,,,,,,,,,,,,,,,,,,,,,,,,,,,,,,,,,,,,,,,,,,,,,,,,,,,,,,,,,,,,,,,,,,,,,,,,,,,,,,,,,,,,,,,,,,,,,,,,,,,,,,,,,
,,,,,,6131d01bc956974e057e9f72,62bbfb46f096412934dc47db,2022-06-29_09h12.35.094,Colour_Asymmetry_Pilot,2022.1.3,Win32,61.01653548,62bbe60bf3d75ef465d3e404,0,101,101,149,1,threefour,,,,,,,,,,,,,,,,,,,,,,,,,,,,,,,,,,,,,,,,,,,,,,,,,,,,,,,,,,,,,,,,,,,,,,,,,,,,,,,,,,,,,,,,,,,,,,,,,,,,,,,,,,,,,,,,,,,,,,,,,,,,,,,,,,,,,,,,,,,,,,,,,,,,,,,,
,,,,,,6131d01bc956974e057e9f72,62bbfb46f096412934dc47db,2022-06-29_09h12.35.094,Colour_Asymmetry_Pilot,2022.1.3,Win32,61.01653548,62bbe60bf3d75ef465d3e404,0,102,102,68,1,threeone,,,,,,,,,,,,,,,,,,,,,,,,,,,,,,,,,,,,,,,,,,,,,,,,,,,,,,,,,,,,,,,,,,,,,,,,,,,,,,,,,,,,,,,,,,,,,,,,,,,,,,,,,,,,,,,,,,,,,,,,,,,,,,,,,,,,,,,,,,,,,,,,,,,,,,,,
,,,,,,6131d01bc956974e057e9f72,62bbfb46f096412934dc47db,2022-06-29_09h12.35.094,Colour_Asymmetry_Pilot,2022.1.3,Win32,61.01653548,62bbe60bf3d75ef465d3e404,0,103,103,104,1,onetwo,,,,,,,,,,,,,,,,,,,,,,,,,,,,,,,,,,,,,,,,,,,,,,,,,,,,,,,,,,,,,,,,,,,,,,,,,,,,,,,,,,,,,,,,,,,,,,,,,,,,,,,,,,,,,,,,,,,,,,,,,,,,,,,,,,,,,,,,,,,,,,,,,,,,,,,,
,,,,,,6131d01bc956974e057e9f72,62bbfb46f096412934dc47db,2022-06-29_09h12.35.094,Colour_Asymmetry_Pilot,2022.1.3,Win32,61.01653548,62bbe60bf3d75ef465d3e404,0,104,104,101,1,threefour,,,,,,,,,,,,,,,,,,,,,,,,,,,,,,,,,,,,,,,,,,,,,,,,,,,,,,,,,,,,,,,,,,,,,,,,,,,,,,,,,,,,,,,,,,,,,,,,,,,,,,,,,,,,,,,,,,,,,,,,,,,,,,,,,,,,,,,,,,,,,,,,,,,,,,,,
,,,,,,6131d01bc956974e057e9f72,62bbfb46f096412934dc47db,2022-06-29_09h12.35.094,Colour_Asymmetry_Pilot,2022.1.3,Win32,61.01653548,62bbe60bf3d75ef465d3e404,0,105,105,5,1,threefour,,,,,,,,,,,,,,,,,,,,,,,,,,,,,,,,,,,,,,,,,,,,,,,,,,,,,,,,,,,,,,,,,,,,,,,,,,,,,,,,,,,,,,,,,,,,,,,,,,,,,,,,,,,,,,,,,,,,,,,,,,,,,,,,,,,,,,,,,,,,,,,,,,,,,,,,
,,,,,,6131d01bc956974e057e9f72,62bbfb46f096412934dc47db,2022-06-29_09h12.35.094,Colour_Asymmetry_Pilot,2022.1.3,Win32,61.01653548,62bbe60bf3d75ef465d3e404,0,106,106,2,1,twoone,,,,,,,,,,,,,,,,,,,,,,,,,,,,,,,,,,,,,,,,,,,,,,,,,,,,,,,,,,,,,,,,,,,,,,,,,,,,,,,,,,,,,,,,,,,,,,,,,,,,,,,,,,,,,,,,,,,,,,,,,,,,,,,,,,,,,,,,,,,,,,,,,,,,,,,,
,,,,,,6131d01bc956974e057e9f72,62bbfb46f096412934dc47db,2022-06-29_09h12.35.094,Colour_Asymmetry_Pilot,2022.1.3,Win32,61.01653548,62bbe60bf3d75ef465d3e404,0,107,107,38,1,fourtwo,,,,,,,,,,,,,,,,,,,,,,,,,,,,,,,,,,,,,,,,,,,,,,,,,,,,,,,,,,,,,,,,,,,,,,,,,,,,,,,,,,,,,,,,,,,,,,,,,,,,,,,,,,,,,,,,,,,,,,,,,,,,,,,,,,,,,,,,,,,,,,,,,,,,,,,,
,,,,,,6131d01bc956974e057e9f72,62bbfb46f096412934dc47db,2022-06-29_09h12.35.094,Colour_Asymmetry_Pilot,2022.1.3,Win32,61.01653548,62bbe60bf3d75ef465d3e404,0,108,108,135,1,fourthree,,,,,,,,,,,,,,,,,,,,,,,,,,,,,,,,,,,,,,,,,,,,,,,,,,,,,,,,,,,,,,,,,,,,,,,,,,,,,,,,,,,,,,,,,,,,,,,,,,,,,,,,,,,,,,,,,,,,,,,,,,,,,,,,,,,,,,,,,,,,,,,,,,,,,,,,
,,,,,,6131d01bc956974e057e9f72,62bbfb46f096412934dc47db,2022-06-29_09h12.35.094,Colour_Asymmetry_Pilot,2022.1.3,Win32,61.01653548,62bbe60bf3d75ef465d3e404,0,109,109,32,1,onetwo,,,,,,,,,,,,,,,,,,,,,,,,,,,,,,,,,,,,,,,,,,,,,,,,,,,,,,,,,,,,,,,,,,,,,,,,,,,,,,,,,,,,,,,,,,,,,,,,,,,,,,,,,,,,,,,,,,,,,,,,,,,,,,,,,,,,,,,,,,,,,,,,,,,,,,,,
,,,,,,6131d01bc956974e057e9f72,62bbfb46f096412934dc47db,2022-06-29_09h12.35.094,Colour_Asymmetry_Pilot,2022.1.3,Win32,61.01653548,62bbe60bf3d75ef465d3e404,0,110,110,60,1,threeone,,,,,,,,,,,,,,,,,,,,,,,,,,,,,,,,,,,,,,,,,,,,,,,,,,,,,,,,,,,,,,,,,,,,,,,,,,,,,,,,,,,,,,,,,,,,,,,,,,,,,,,,,,,,,,,,,,,,,,,,,,,,,,,,,,,,,,,,,,,,,,,,,,,,,,,,
,,,,,,6131d01bc956974e057e9f72,62bbfb46f096412934dc47db,2022-06-29_09h12.35.094,Colour_Asymmetry_Pilot,2022.1.3,Win32,61.01653548,62bbe60bf3d75ef465d3e404,0,111,111,158,1,fourtwo,,,,,,,,,,,,,,,,,,,,,,,,,,,,,,,,,,,,,,,,,,,,,,,,,,,,,,,,,,,,,,,,,,,,,,,,,,,,,,,,,,,,,,,,,,,,,,,,,,,,,,,,,,,,,,,,,,,,,,,,,,,,,,,,,,,,,,,,,,,,,,,,,,,,,,,,
,,,,,,6131d01bc956974e057e9f72,62bbfb46f096412934dc47db,2022-06-29_09h12.35.094,Colour_Asymmetry_Pilot,2022.1.3,Win32,61.01653548,62bbe60bf3d75ef465d3e404,0,112,112,151,1,fourthree,,,,,,,,,,,,,,,,,,,,,,,,,,,,,,,,,,,,,,,,,,,,,,,,,,,,,,,,,,,,,,,,,,,,,,,,,,,,,,,,,,,,,,,,,,,,,,,,,,,,,,,,,,,,,,,,,,,,,,,,,,,,,,,,,,,,,,,,,,,,,,,,,,,,,,,,
,,,,,,6131d01bc956974e057e9f72,62bbfb46f096412934dc47db,2022-06-29_09h12.35.094,Colour_Asymmetry_Pilot,2022.1.3,Win32,61.01653548,62bbe60bf3d75ef465d3e404,0,113,113,98,1,twoone,,,,,,,,,,,,,,,,,,,,,,,,,,,,,,,,,,,,,,,,,,,,,,,,,,,,,,,,,,,,,,,,,,,,,,,,,,,,,,,,,,,,,,,,,,,,,,,,,,,,,,,,,,,,,,,,,,,,,,,,,,,,,,,,,,,,,,,,,,,,,,,,,,,,,,,,
,,,,,,6131d01bc956974e057e9f72,62bbfb46f096412934dc47db,2022-06-29_09h12.35.094,Colour_Asymmetry_Pilot,2022.1.3,Win32,61.01653548,62bbe60bf3d75ef465d3e404,0,114,114,121,1,onethree,,,,,,,,,,,,,,,,,,,,,,,,,,,,,,,,,,,,,,,,,,,,,,,,,,,,,,,,,,,,,,,,,,,,,,,,,,,,,,,,,,,,,,,,,,,,,,,,,,,,,,,,,,,,,,,,,,,,,,,,,,,,,,,,,,,,,,,,,,,,,,,,,,,,,,,,
,,,,,,6131d01bc956974e057e9f72,62bbfb46f096412934dc47db,2022-06-29_09h12.35.094,Colour_Asymmetry_Pilot,2022.1.3,Win32,61.01653548,62bbe60bf3d75ef465d3e404,0,115,115,78,1,fourtwo,,,,,,,,,,,,,,,,,,,,,,,,,,,,,,,,,,,,,,,,,,,,,,,,,,,,,,,,,,,,,,,,,,,,,,,,,,,,,,,,,,,,,,,,,,,,,,,,,,,,,,,,,,,,,,,,,,,,,,,,,,,,,,,,,,,,,,,,,,,,,,,,,,,,,,,,
,,,,,,6131d01bc956974e057e9f72,62bbfb46f096412934dc47db,2022-06-29_09h12.35.094,Colour_Asymmetry_Pilot,2022.1.3,Win32,61.01653548,62bbe60bf3d75ef465d3e404,0,116,116,54,1,fourtwo,,,,,,,,,,,,,,,,,,,,,,,,,,,,,,,,,,,,,,,,,,,,,,,,,,,,,,,,,,,,,,,,,,,,,,,,,,,,,,,,,,,,,,,,,,,,,,,,,,,,,,,,,,,,,,,,,,,,,,,,,,,,,,,,,,,,,,,,,,,,,,,,,,,,,,,,
,,,,,,6131d01bc956974e057e9f72,62bbfb46f096412934dc47db,2022-06-29_09h12.35.094,Colour_Asymmetry_Pilot,2022.1.3,Win32,61.01653548,62bbe60bf3d75ef465d3e404,0,117,117,69,1,threefour,,,,,,,,,,,,,,,,,,,,,,,,,,,,,,,,,,,,,,,,,,,,,,,,,,,,,,,,,,,,,,,,,,,,,,,,,,,,,,,,,,,,,,,,,,,,,,,,,,,,,,,,,,,,,,,,,,,,,,,,,,,,,,,,,,,,,,,,,,,,,,,,,,,,,,,,
,,,,,,6131d01bc956974e057e9f72,62bbfb46f096412934dc47db,2022-06-29_09h12.35.094,Colour_Asymmetry_Pilot,2022.1.3,Win32,61.01653548,62bbe60bf3d75ef465d3e404,0,118,118,62,1,fourtwo,,,,,,,,,,,,,,,,,,,,,,,,,,,,,,,,,,,,,,,,,,,,,,,,,,,,,,,,,,,,,,,,,,,,,,,,,,,,,,,,,,,,,,,,,,,,,,,,,,,,,,,,,,,,,,,,,,,,,,,,,,,,,,,,,,,,,,,,,,,,,,,,,,,,,,,,
,,,,,,6131d01bc956974e057e9f72,62bbfb46f096412934dc47db,2022-06-29_09h12.35.094,Colour_Asymmetry_Pilot,2022.1.3,Win32,61.01653548,62bbe60bf3d75ef465d3e404,0,119,119,44,1,threeone,,,,,,,,,,,,,,,,,,,,,,,,,,,,,,,,,,,,,,,,,,,,,,,,,,,,,,,,,,,,,,,,,,,,,,,,,,,,,,,,,,,,,,,,,,,,,,,,,,,,,,,,,,,,,,,,,,,,,,,,,,,,,,,,,,,,,,,,,,,,,,,,,,,,,,,,
,,,,,,6131d01bc956974e057e9f72,62bbfb46f096412934dc47db,2022-06-29_09h12.35.094,Colour_Asymmetry_Pilot,2022.1.3,Win32,61.01653548,62bbe60bf3d75ef465d3e404,0,120,120,42,1,twoone,,,,,,,,,,,,,,,,,,,,,,,,,,,,,,,,,,,,,,,,,,,,,,,,,,,,,,,,,,,,,,,,,,,,,,,,,,,,,,,,,,,,,,,,,,,,,,,,,,,,,,,,,,,,,,,,,,,,,,,,,,,,,,,,,,,,,,,,,,,,,,,,,,,,,,,,
,,,,,,6131d01bc956974e057e9f72,62bbfb46f096412934dc47db,2022-06-29_09h12.35.094,Colour_Asymmetry_Pilot,2022.1.3,Win32,61.01653548,62bbe60bf3d75ef465d3e404,0,121,121,39,1,fourthree,,,,,,,,,,,,,,,,,,,,,,,,,,,,,,,,,,,,,,,,,,,,,,,,,,,,,,,,,,,,,,,,,,,,,,,,,,,,,,,,,,,,,,,,,,,,,,,,,,,,,,,,,,,,,,,,,,,,,,,,,,,,,,,,,,,,,,,,,,,,,,,,,,,,,,,,
,,,,,,6131d01bc956974e057e9f72,62bbfb46f096412934dc47db,2022-06-29_09h12.35.094,Colour_Asymmetry_Pilot,2022.1.3,Win32,61.01653548,62bbe60bf3d75ef465d3e404,0,122,122,159,1,fourthree,,,,,,,,,,,,,,,,,,,,,,,,,,,,,,,,,,,,,,,,,,,,,,,,,,,,,,,,,,,,,,,,,,,,,,,,,,,,,,,,,,,,,,,,,,,,,,,,,,,,,,,,,,,,,,,,,,,,,,,,,,,,,,,,,,,,,,,,,,,,,,,,,,,,,,,,
,,,,,,6131d01bc956974e057e9f72,62bbfb46f096412934dc47db,2022-06-29_09h12.35.094,Colour_Asymmetry_Pilot,2022.1.3,Win32,61.01653548,62bbe60bf3d75ef465d3e404,0,123,123,154,1,twoone,,,,,,,,,,,,,,,,,,,,,,,,,,,,,,,,,,,,,,,,,,,,,,,,,,,,,,,,,,,,,,,,,,,,,,,,,,,,,,,,,,,,,,,,,,,,,,,,,,,,,,,,,,,,,,,,,,,,,,,,,,,,,,,,,,,,,,,,,,,,,,,,,,,,,,,,
,,,,,,6131d01bc956974e057e9f72,62bbfb46f096412934dc47db,2022-06-29_09h12.35.094,Colour_Asymmetry_Pilot,2022.1.3,Win32,61.01653548,62bbe60bf3d75ef465d3e404,0,124,124,8,1,onetwo,,,,,,,,,,,,,,,,,,,,,,,,,,,,,,,,,,,,,,,,,,,,,,,,,,,,,,,,,,,,,,,,,,,,,,,,,,,,,,,,,,,,,,,,,,,,,,,,,,,,,,,,,,,,,,,,,,,,,,,,,,,,,,,,,,,,,,,,,,,,,,,,,,,,,,,,
,,,,,,6131d01bc956974e057e9f72,62bbfb46f096412934dc47db,2022-06-29_09h12.35.094,Colour_Asymmetry_Pilot,2022.1.3,Win32,61.01653548,62bbe60bf3d75ef465d3e404,0,125,125,129,1,onethree,,,,,,,,,,,,,,,,,,,,,,,,,,,,,,,,,,,,,,,,,,,,,,,,,,,,,,,,,,,,,,,,,,,,,,,,,,,,,,,,,,,,,,,,,,,,,,,,,,,,,,,,,,,,,,,,,,,,,,,,,,,,,,,,,,,,,,,,,,,,,,,,,,,,,,,,
,,,,,,6131d01bc956974e057e9f72,62bbfb46f096412934dc47db,2022-06-29_09h12.35.094,Colour_Asymmetry_Pilot,2022.1.3,Win32,61.01653548,62bbe60bf3d75ef465d3e404,0,126,126,48,1,onetwo,,,,,,,,,,,,,,,,,,,,,,,,,,,,,,,,,,,,,,,,,,,,,,,,,,,,,,,,,,,,,,,,,,,,,,,,,,,,,,,,,,,,,,,,,,,,,,,,,,,,,,,,,,,,,,,,,,,,,,,,,,,,,,,,,,,,,,,,,,,,,,,,,,,,,,,,
,,,,,,6131d01bc956974e057e9f72,62bbfb46f096412934dc47db,2022-06-29_09h12.35.094,Colour_Asymmetry_Pilot,2022.1.3,Win32,61.01653548,62bbe60bf3d75ef465d3e404,0,127,127,82,1,twoone,,,,,,,,,,,,,,,,,,,,,,,,,,,,,,,,,,,,,,,,,,,,,,,,,,,,,,,,,,,,,,,,,,,,,,,,,,,,,,,,,,,,,,,,,,,,,,,,,,,,,,,,,,,,,,,,,,,,,,,,,,,,,,,,,,,,,,,,,,,,,,,,,,,,,,,,
,,,,,,6131d01bc956974e057e9f72,62bbfb46f096412934dc47db,2022-06-29_09h12.35.094,Colour_Asymmetry_Pilot,2022.1.3,Win32,61.01653548,62bbe60bf3d75ef465d3e404,0,128,128,90,1,twoone,,,,,,,,,,,,,,,,,,,,,,,,,,,,,,,,,,,,,,,,,,,,,,,,,,,,,,,,,,,,,,,,,,,,,,,,,,,,,,,,,,,,,,,,,,,,,,,,,,,,,,,,,,,,,,,,,,,,,,,,,,,,,,,,,,,,,,,,,,,,,,,,,,,,,,,,
,,,,,,6131d01bc956974e057e9f72,62bbfb46f096412934dc47db,2022-06-29_09h12.35.094,Colour_Asymmetry_Pilot,2022.1.3,Win32,61.01653548,62bbe60bf3d75ef465d3e404,0,129,129,156,1,threeone,,,,,,,,,,,,,,,,,,,,,,,,,,,,,,,,,,,,,,,,,,,,,,,,,,,,,,,,,,,,,,,,,,,,,,,,,,,,,,,,,,,,,,,,,,,,,,,,,,,,,,,,,,,,,,,,,,,,,,,,,,,,,,,,,,,,,,,,,,,,,,,,,,,,,,,,
,,,,,,6131d01bc956974e057e9f72,62bbfb46f096412934dc47db,2022-06-29_09h12.35.094,Colour_Asymmetry_Pilot,2022.1.3,Win32,61.01653548,62bbe60bf3d75ef465d3e404,0,130,130,153,1,onethree,,,,,,,,,,,,,,,,,,,,,,,,,,,,,,,,,,,,,,,,,,,,,,,,,,,,,,,,,,,,,,,,,,,,,,,,,,,,,,,,,,,,,,,,,,,,,,,,,,,,,,,,,,,,,,,,,,,,,,,,,,,,,,,,,,,,,,,,,,,,,,,,,,,,,,,,
,,,,,,6131d01bc956974e057e9f72,62bbfb46f096412934dc47db,2022-06-29_09h12.35.094,Colour_Asymmetry_Pilot,2022.1.3,Win32,61.01653548,62bbe60bf3d75ef465d3e404,0,131,131,119,1,fourthree,,,,,,,,,,,,,,,,,,,,,,,,,,,,,,,,,,,,,,,,,,,,,,,,,,,,,,,,,,,,,,,,,,,,,,,,,,,,,,,,,,,,,,,,,,,,,,,,,,,,,,,,,,,,,,,,,,,,,,,,,,,,,,,,,,,,,,,,,,,,,,,,,,,,,,,,
,,,,,,6131d01bc956974e057e9f72,62bbfb46f096412934dc47db,2022-06-29_09h12.35.094,Colour_Asymmetry_Pilot,2022.1.3,Win32,61.01653548,62bbe60bf3d75ef465d3e404,0,132,132,28,1,threeone,,,,,,,,,,,,,,,,,,,,,,,,,,,,,,,,,,,,,,,,,,,,,,,,,,,,,,,,,,,,,,,,,,,,,,,,,,,,,,,,,,,,,,,,,,,,,,,,,,,,,,,,,,,,,,,,,,,,,,,,,,,,,,,,,,,,,,,,,,,,,,,,,,,,,,,,
,,,,,,6131d01bc956974e057e9f72,62bbfb46f096412934dc47db,2022-06-29_09h12.35.094,Colour_Asymmetry_Pilot,2022.1.3,Win32,61.01653548,62bbe60bf3d75ef465d3e404,0,133,133,63,1,fourthree,,,,,,,,,,,,,,,,,,,,,,,,,,,,,,,,,,,,,,,,,,,,,,,,,,,,,,,,,,,,,,,,,,,,,,,,,,,,,,,,,,,,,,,,,,,,,,,,,,,,,,,,,,,,,,,,,,,,,,,,,,,,,,,,,,,,,,,,,,,,,,,,,,,,,,,,
,,,,,,6131d01bc956974e057e9f72,62bbfb46f096412934dc47db,2022-06-29_09h12.35.094,Colour_Asymmetry_Pilot,2022.1.3,Win32,61.01653548,62bbe60bf3d75ef465d3e404,0,134,134,86,1,fourtwo,,,,,,,,,,,,,,,,,,,,,,,,,,,,,,,,,,,,,,,,,,,,,,,,,,,,,,,,,,,,,,,,,,,,,,,,,,,,,,,,,,,,,,,,,,,,,,,,,,,,,,,,,,,,,,,,,,,,,,,,,,,,,,,,,,,,,,,,,,,,,,,,,,,,,,,,
,,,,,,6131d01bc956974e057e9f72,62bbfb46f096412934dc47db,2022-06-29_09h12.35.094,Colour_Asymmetry_Pilot,2022.1.3,Win32,61.01653548,62bbe60bf3d75ef465d3e404,0,135,135,18,1,twoone,,,,,,,,,,,,,,,,,,,,,,,,,,,,,,,,,,,,,,,,,,,,,,,,,,,,,,,,,,,,,,,,,,,,,,,,,,,,,,,,,,,,,,,,,,,,,,,,,,,,,,,,,,,,,,,,,,,,,,,,,,,,,,,,,,,,,,,,,,,,,,,,,,,,,,,,
,,,,,,6131d01bc956974e057e9f72,62bbfb46f096412934dc47db,2022-06-29_09h12.35.094,Colour_Asymmetry_Pilot,2022.1.3,Win32,61.01653548,62bbe60bf3d75ef465d3e404,0,136,136,133,1,threefour,,,,,,,,,,,,,,,,,,,,,,,,,,,,,,,,,,,,,,,,,,,,,,,,,,,,,,,,,,,,,,,,,,,,,,,,,,,,,,,,,,,,,,,,,,,,,,,,,,,,,,,,,,,,,,,,,,,,,,,,,,,,,,,,,,,,,,,,,,,,,,,,,,,,,,,,
,,,,,,6131d01bc956974e057e9f72,62bbfb46f096412934dc47db,2022-06-29_09h12.35.094,Colour_Asymmetry_Pilot,2022.1.3,Win32,61.01653548,62bbe60bf3d75ef465d3e404,0,137,137,7,1,fourthree,,,,,,,,,,,,,,,,,,,,,,,,,,,,,,,,,,,,,,,,,,,,,,,,,,,,,,,,,,,,,,,,,,,,,,,,,,,,,,,,,,,,,,,,,,,,,,,,,,,,,,,,,,,,,,,,,,,,,,,,,,,,,,,,,,,,,,,,,,,,,,,,,,,,,,,,
,,,,,,6131d01bc956974e057e9f72,62bbfb46f096412934dc47db,2022-06-29_09h12.35.094,Colour_Asymmetry_Pilot,2022.1.3,Win32,61.01653548,62bbe60bf3d75ef465d3e404,0,138,138,23,1,fourthree,,,,,,,,,,,,,,,,,,,,,,,,,,,,,,,,,,,,,,,,,,,,,,,,,,,,,,,,,,,,,,,,,,,,,,,,,,,,,,,,,,,,,,,,,,,,,,,,,,,,,,,,,,,,,,,,,,,,,,,,,,,,,,,,,,,,,,,,,,,,,,,,,,,,,,,,
,,,,,,6131d01bc956974e057e9f72,62bbfb46f096412934dc47db,2022-06-29_09h12.35.094,Colour_Asymmetry_Pilot,2022.1.3,Win32,61.01653548,62bbe60bf3d75ef465d3e404,0,139,139,127,1,fourthree,,,,,,,,,,,,,,,,,,,,,,,,,,,,,,,,,,,,,,,,,,,,,,,,,,,,,,,,,,,,,,,,,,,,,,,,,,,,,,,,,,,,,,,,,,,,,,,,,,,,,,,,,,,,,,,,,,,,,,,,,,,,,,,,,,,,,,,,,,,,,,,,,,,,,,,,
,,,,,,6131d01bc956974e057e9f72,62bbfb46f096412934dc47db,2022-06-29_09h12.35.094,Colour_Asymmetry_Pilot,2022.1.3,Win32,61.01653548,62bbe60bf3d75ef465d3e404,0,140,140,144,1,onetwo,,,,,,,,,,,,,,,,,,,,,,,,,,,,,,,,,,,,,,,,,,,,,,,,,,,,,,,,,,,,,,,,,,,,,,,,,,,,,,,,,,,,,,,,,,,,,,,,,,,,,,,,,,,,,,,,,,,,,,,,,,,,,,,,,,,,,,,,,,,,,,,,,,,,,,,,
,,,,,,6131d01bc956974e057e9f72,62bbfb46f096412934dc47db,2022-06-29_09h12.35.094,Colour_Asymmetry_Pilot,2022.1.3,Win32,61.01653548,62bbe60bf3d75ef465d3e404,0,141,141,113,1,onethree,,,,,,,,,,,,,,,,,,,,,,,,,,,,,,,,,,,,,,,,,,,,,,,,,,,,,,,,,,,,,,,,,,,,,,,,,,,,,,,,,,,,,,,,,,,,,,,,,,,,,,,,,,,,,,,,,,,,,,,,,,,,,,,,,,,,,,,,,,,,,,,,,,,,,,,,
,,,,,,6131d01bc956974e057e9f72,62bbfb46f096412934dc47db,2022-06-29_09h12.35.094,Colour_Asymmetry_Pilot,2022.1.3,Win32,61.01653548,62bbe60bf3d75ef465d3e404,0,142,142,73,1,onethree,,,,,,,,,,,,,,,,,,,,,,,,,,,,,,,,,,,,,,,,,,,,,,,,,,,,,,,,,,,,,,,,,,,,,,,,,,,,,,,,,,,,,,,,,,,,,,,,,,,,,,,,,,,,,,,,,,,,,,,,,,,,,,,,,,,,,,,,,,,,,,,,,,,,,,,,
,,,,,,6131d01bc956974e057e9f72,62bbfb46f096412934dc47db,2022-06-29_09h12.35.094,Colour_Asymmetry_Pilot,2022.1.3,Win32,61.01653548,62bbe60bf3d75ef465d3e404,0,143,143,14,1,fourtwo,,,,,,,,,,,,,,,,,,,,,,,,,,,,,,,,,,,,,,,,,,,,,,,,,,,,,,,,,,,,,,,,,,,,,,,,,,,,,,,,,,,,,,,,,,,,,,,,,,,,,,,,,,,,,,,,,,,,,,,,,,,,,,,,,,,,,,,,,,,,,,,,,,,,,,,,
,,,,,,6131d01bc956974e057e9f72,62bbfb46f096412934dc47db,2022-06-29_09h12.35.094,Colour_Asymmetry_Pilot,2022.1.3,Win32,61.01653548,62bbe60bf3d75ef465d3e404,0,144,144,47,1,fourthree,,,,,,,,,,,,,,,,,,,,,,,,,,,,,,,,,,,,,,,,,,,,,,,,,,,,,,,,,,,,,,,,,,,,,,,,,,,,,,,,,,,,,,,,,,,,,,,,,,,,,,,,,,,,,,,,,,,,,,,,,,,,,,,,,,,,,,,,,,,,,,,,,,,,,,,,
,,,,,,6131d01bc956974e057e9f72,62bbfb46f096412934dc47db,2022-06-29_09h12.35.094,Colour_Asymmetry_Pilot,2022.1.3,Win32,61.01653548,62bbe60bf3d75ef465d3e404,0,145,145,31,1,fourthree,,,,,,,,,,,,,,,,,,,,,,,,,,,,,,,,,,,,,,,,,,,,,,,,,,,,,,,,,,,,,,,,,,,,,,,,,,,,,,,,,,,,,,,,,,,,,,,,,,,,,,,,,,,,,,,,,,,,,,,,,,,,,,,,,,,,,,,,,,,,,,,,,,,,,,,,
,,,,,,6131d01bc956974e057e9f72,62bbfb46f096412934dc47db,2022-06-29_09h12.35.094,Colour_Asymmetry_Pilot,2022.1.3,Win32,61.01653548,62bbe60bf3d75ef465d3e404,0,146,146,11,1,twofour,,,,,,,,,,,,,,,,,,,,,,,,,,,,,,,,,,,,,,,,,,,,,,,,,,,,,,,,,,,,,,,,,,,,,,,,,,,,,,,,,,,,,,,,,,,,,,,,,,,,,,,,,,,,,,,,,,,,,,,,,,,,,,,,,,,,,,,,,,,,,,,,,,,,,,,,
,,,,,,6131d01bc956974e057e9f72,62bbfb46f096412934dc47db,2022-06-29_09h12.35.094,Colour_Asymmetry_Pilot,2022.1.3,Win32,61.01653548,62bbe60bf3d75ef465d3e404,0,147,147,65,1,onethree,,,,,,,,,,,,,,,,,,,,,,,,,,,,,,,,,,,,,,,,,,,,,,,,,,,,,,,,,,,,,,,,,,,,,,,,,,,,,,,,,,,,,,,,,,,,,,,,,,,,,,,,,,,,,,,,,,,,,,,,,,,,,,,,,,,,,,,,,,,,,,,,,,,,,,,,
,,,,,,6131d01bc956974e057e9f72,62bbfb46f096412934dc47db,2022-06-29_09h12.35.094,Colour_Asymmetry_Pilot,2022.1.3,Win32,61.01653548,62bbe60bf3d75ef465d3e404,0,148,148,96,1,onetwo,,,,,,,,,,,,,,,,,,,,,,,,,,,,,,,,,,,,,,,,,,,,,,,,,,,,,,,,,,,,,,,,,,,,,,,,,,,,,,,,,,,,,,,,,,,,,,,,,,,,,,,,,,,,,,,,,,,,,,,,,,,,,,,,,,,,,,,,,,,,,,,,,,,,,,,,
,,,,,,6131d01bc956974e057e9f72,62bbfb46f096412934dc47db,2022-06-29_09h12.35.094,Colour_Asymmetry_Pilot,2022.1.3,Win32,61.01653548,62bbe60bf3d75ef465d3e404,0,149,149,109,1,threefour,,,,,,,,,,,,,,,,,,,,,,,,,,,,,,,,,,,,,,,,,,,,,,,,,,,,,,,,,,,,,,,,,,,,,,,,,,,,,,,,,,,,,,,,,,,,,,,,,,,,,,,,,,,,,,,,,,,,,,,,,,,,,,,,,,,,,,,,,,,,,,,,,,,,,,,,
,,,,,,6131d01bc956974e057e9f72,62bbfb46f096412934dc47db,2022-06-29_09h12.35.094,Colour_Asymmetry_Pilot,2022.1.3,Win32,61.01653548,62bbe60bf3d75ef465d3e404,0,150,150,50,1,twoone,,,,,,,,,,,,,,,,,,,,,,,,,,,,,,,,,,,,,,,,,,,,,,,,,,,,,,,,,,,,,,,,,,,,,,,,,,,,,,,,,,,,,,,,,,,,,,,,,,,,,,,,,,,,,,,,,,,,,,,,,,,,,,,,,,,,,,,,,,,,,,,,,,,,,,,,
,,,,,,6131d01bc956974e057e9f72,62bbfb46f096412934dc47db,2022-06-29_09h12.35.094,Colour_Asymmetry_Pilot,2022.1.3,Win32,61.01653548,62bbe60bf3d75ef465d3e404,0,151,151,58,1,twoone,,,,,,,,,,,,,,,,,,,,,,,,,,,,,,,,,,,,,,,,,,,,,,,,,,,,,,,,,,,,,,,,,,,,,,,,,,,,,,,,,,,,,,,,,,,,,,,,,,,,,,,,,,,,,,,,,,,,,,,,,,,,,,,,,,,,,,,,,,,,,,,,,,,,,,,,
,,,,,,6131d01bc956974e057e9f72,62bbfb46f096412934dc47db,2022-06-29_09h12.35.094,Colour_Asymmetry_Pilot,2022.1.3,Win32,61.01653548,62bbe60bf3d75ef465d3e404,0,152,152,93,1,threefour,,,,,,,,,,,,,,,,,,,,,,,,,,,,,,,,,,,,,,,,,,,,,,,,,,,,,,,,,,,,,,,,,,,,,,,,,,,,,,,,,,,,,,,,,,,,,,,,,,,,,,,,,,,,,,,,,,,,,,,,,,,,,,,,,,,,,,,,,,,,,,,,,,,,,,,,
,,,,,,6131d01bc956974e057e9f72,62bbfb46f096412934dc47db,2022-06-29_09h12.35.094,Colour_Asymmetry_Pilot,2022.1.3,Win32,61.01653548,62bbe60bf3d75ef465d3e404,0,153,153,71,1,fourthree,,,,,,,,,,,,,,,,,,,,,,,,,,,,,,,,,,,,,,,,,,,,,,,,,,,,,,,,,,,,,,,,,,,,,,,,,,,,,,,,,,,,,,,,,,,,,,,,,,,,,,,,,,,,,,,,,,,,,,,,,,,,,,,,,,,,,,,,,,,,,,,,,,,,,,,,
,,,,,,6131d01bc956974e057e9f72,62bbfb46f096412934dc47db,2022-06-29_09h12.35.094,Colour_Asymmetry_Pilot,2022.1.3,Win32,61.01653548,62bbe60bf3d75ef465d3e404,0,154,154,55,1,fourthree,,,,,,,,,,,,,,,,,,,,,,,,,,,,,,,,,,,,,,,,,,,,,,,,,,,,,,,,,,,,,,,,,,,,,,,,,,,,,,,,,,,,,,,,,,,,,,,,,,,,,,,,,,,,,,,,,,,,,,,,,,,,,,,,,,,,,,,,,,,,,,,,,,,,,,,,
,,,,,,6131d01bc956974e057e9f72,62bbfb46f096412934dc47db,2022-06-29_09h12.35.094,Colour_Asymmetry_Pilot,2022.1.3,Win32,61.01653548,62bbe60bf3d75ef465d3e404,0,155,155,30,1,fourtwo,,,,,,,,,,,,,,,,,,,,,,,,,,,,,,,,,,,,,,,,,,,,,,,,,,,,,,,,,,,,,,,,,,,,,,,,,,,,,,,,,,,,,,,,,,,,,,,,,,,,,,,,,,,,,,,,,,,,,,,,,,,,,,,,,,,,,,,,,,,,,,,,,,,,,,,,
,,,,,,6131d01bc956974e057e9f72,62bbfb46f096412934dc47db,2022-06-29_09h12.35.094,Colour_Asymmetry_Pilot,2022.1.3,Win32,61.01653548,62bbe60bf3d75ef465d3e404,0,156,156,0,1,onetwo,,,,,,,,,,,,,,,,,,,,,,,,,,,,,,,,,,,,,,,,,,,,,,,,,,,,,,,,,,,,,,,,,,,,,,,,,,,,,,,,,,,,,,,,,,,,,,,,,,,,,,,,,,,,,,,,,,,,,,,,,,,,,,,,,,,,,,,,,,,,,,,,,,,,,,,,
,,,,,,6131d01bc956974e057e9f72,62bbfb46f096412934dc47db,2022-06-29_09h12.35.094,Colour_Asymmetry_Pilot,2022.1.3,Win32,61.01653548,62bbe60bf3d75ef465d3e404,0,157,157,107,1,twofour,,,,,,,,,,,,,,,,,,,,,,,,,,,,,,,,,,,,,,,,,,,,,,,,,,,,,,,,,,,,,,,,,,,,,,,,,,,,,,,,,,,,,,,,,,,,,,,,,,,,,,,,,,,,,,,,,,,,,,,,,,,,,,,,,,,,,,,,,,,,,,,,,,,,,,,,
,,,,,,6131d01bc956974e057e9f72,62bbfb46f096412934dc47db,2022-06-29_09h12.35.094,Colour_Asymmetry_Pilot,2022.1.3,Win32,61.01653548,62bbe60bf3d75ef465d3e404,0,158,158,160,1,onetwo,,,,,,,,,,,,,,,,,,,,,,,,,,,,,,,,,,,,,,,,,,,,,,,,,,,,,,,,,,,,,,,,,,,,,,,,,,,,,,,,,,,,,,,,,,,,,,,,,,,,,,,,,,,,,,,,,,,,,,,,,,,,,,,,,,,,,,,,,,,,,,,,,,,,,,,,
,,,,,,6131d01bc956974e057e9f72,62bbfb46f096412934dc47db,2022-06-29_09h12.35.094,Colour_Asymmetry_Pilot,2022.1.3,Win32,61.01653548,62bbe60bf3d75ef465d3e404,0,159,159,33,1,onethree,,,,,,,,,,,,,,,,,,,,,,,,,,,,,,,,,,,,,,,,,,,,,,,,,,,,,,,,,,,,,,,,,,,,,,,,,,,,,,,,,,,,,,,,,,,,,,,,,,,,,,,,,,,,,,,,,,,,,,,,,,,,,,,,,,,,,,,,,,,,,,,,,,,,,,,,
,,,,,,6131d01bc956974e057e9f72,62bbfb46f096412934dc47db,2022-06-29_09h12.35.094,Colour_Asymmetry_Pilot,2022.1.3,Win32,61.01653548,62bbe60bf3d75ef465d3e404,0,160,160,132,1,threeone,,,,,,,,,,,,,,,,,,,,,,,,,,,,,,,,,,,,,,,,,,,,,,,,,,,,,,,,,,,,,,,,,,,,,,,,,,,,,,,,,,,,,,,,,,,,,,,,,,,,,,,,,,,,,,,,,,,,,,,,,,,,,,,,,,,,,,,,,,,,,,,,,,,,,,,,
,,,,,,6131d01bc956974e057e9f72,62bbfb46f096412934dc47db,2022-06-29_09h12.35.094,Colour_Asymmetry_Pilot,2022.1.3,Win32,61.01653548,62bbe60bf3d75ef465d3e404,0,161,161,110,1,fourtwo,,,,,,,,,,,,,,,,,,,,,,,,,,,,,,,,,,,,,,,,,,,,,,,,,,,,,,,,,,,,,,,,,,,,,,,,,,,,,,,,,,,,,,,,,,,,,,,,,,,,,,,,,,,,,,,,,,,,,,,,,,,,,,,,,,,,,,,,,,,,,,,,,,,,,,,,
,,,,,,6131d01bc956974e057e9f72,62bbfb46f096412934dc47db,2022-06-29_09h12.35.094,Colour_Asymmetry_Pilot,2022.1.3,Win32,61.01653548,62bbe60bf3d75ef465d3e404,,,,,,,space,5.6201,space,49.5256,space,22.8335,space,19.0146,space,2.4542,space,5.0606,"[0.8274000000000001,-0.5844,-0.9452]",onethree,"[0.9372,0.9450000000000001,0.8980000000000001]",4,13.6836,58.40002441,98.3999939,1,0,0,response1disk_5,-8.799987793,-2.399993896,1,0,0,rectangle_8,52,-80.79998779,1,0,0,response3disk_7,4,3,-0.799987793,7.199981689,1,0,0,rectangle_4,0,0,0,0,1,,,,,,,,,,,,,,,,,,,,,,,,,,,,,,,,,,,,,,,,,,,,,,,,,,,,,,,,,,,,,,,,,,,,,,,,,,,,,,,,,,,,,,,,,,,,,,,,,,,,,,,,
,,,,,,6131d01bc956974e057e9f72,62bbfb46f096412934dc47db,2022-06-29_09h12.35.094,Colour_Asymmetry_Pilot,2022.1.3,Win32,61.01653548,62bbe60bf3d75ef465d3e404,,,,,,,,,,,,,,,,,,,"[-0.26280000000000003,-0.4746,-0.2158]",threeone,"[0.34099999999999997,0.5841999999999998,-0.9844]",-4,4.6827,-48.79998779,97.6000061,1,0,0,response7disk_5,13.60003662,3.199981689,1,0,0,rectangle_8,86.40002441,34.3999939,1,0,0,response1disk_7,6,3,-24.79998779,-4.800018311,1,0,0,rectangle_4,1,0,1,0,1,,,,,,,,,,,,,,,,,,,,,,,,,,,,,,,,,,,,,,,,,,,,,,,,,,,,,,,,,,,,,,,,,,,,,,,,,,,,,,,,,,,,,,,,,,,,,,,,,,,,,,,,
,,,,,,6131d01bc956974e057e9f72,62bbfb46f096412934dc47db,2022-06-29_09h12.35.094,Colour_Asymmetry_Pilot,2022.1.3,Win32,61.01653548,62bbe60bf3d75ef465d3e404,,,,,,,,,,,,,,,,,,,"[0.9842,0.7409999999999999,-0.6628000000000001]",onethree,"[0.9213999999999998,0.6391999999999998,-0.9922]",4,5.2159,66.40002441,123.1999817,1,0,0,response1disk_5,3.200012207,8.799987793,1,0,0,rectangle_8,3.200012207,8.799987793,1,0,0,,,3,3.200012207,8.799987793,1,0,0,,2,0,2,0,1,,,,,,,,,,,,,,,,,,,,,,,,,,,,,,,,,,,,,,,,,,,,,,,,,,,,,,,,,,,,,,,,,,,,,,,,,,,,,,,,,,,,,,,,,,,,,,,,,,,,,,,,
,,,,,,6131d01bc956974e057e9f72,62bbfb46f096412934dc47db,2022-06-29_09h12.35.094,Colour_Asymmetry_Pilot,2022.1.3,Win32,61.01653548,62bbe60bf3d75ef465d3e404,,,,,,,,,,,,,,,,,,,"[0.40379999999999994,0.09000000000000008,0.44300000000000006]",threefour,"[-0.06680000000000008,-0.45100000000000007,-0.906]",-4,5.4502,-39.20001221,115.1999817,1,0,0,response7disk_5,13.60003662,0,1,0,0,rectangle_8,13.60003662,0,1,0,0,,,3,13.60003662,0,1,0,0,,3,0,3,0,1,,,,,,,,,,,,,,,,,,,,,,,,,,,,,,,,,,,,,,,,,,,,,,,,,,,,,,,,,,,,,,,,,,,,,,,,,,,,,,,,,,,,,,,,,,,,,,,,,,,,,,,,
,,,,,,6131d01bc956974e057e9f72,62bbfb46f096412934dc47db,2022-06-29_09h12.35.094,Colour_Asymmetry_Pilot,2022.1.3,Win32,61.01653548,62bbe60bf3d75ef465d3e404,,,,,,,,,,,,,,,,,,,"[0.0351999999999999,0.41159999999999997,0.0038000000000000256]",fourthree,"[0.8274000000000001,-0.5844,-0.9452]",-4,42.0778,-35.20001221,122.3999939,1,0,0,response7disk_5,-11.20001221,4.799987793,1,0,0,rectangle_8,-11.20001221,4.799987793,1,0,0,,,3,-11.20001221,4.799987793,1,0,0,,4,0,4,0,1,,,,,,,,,,,,,,,,,,,,,,,,,,,,,,,,,,,,,,,,,,,,,,,,,,,,,,,,,,,,,,,,,,,,,,,,,,,,,,,,,,,,,,,,,,,,,,,,,,,,,,,,
,,,,,,6131d01bc956974e057e9f72,62bbfb46f096412934dc47db,2022-06-29_09h12.35.094,Colour_Asymmetry_Pilot,2022.1.3,Win32,61.01653548,62bbe60bf3d75ef465d3e404,,,,,,,,,,,,,,,,,,,"[-0.26280000000000003,-0.4746,-0.2158]",onethree,"[-0.17659999999999998,0.3253999999999999,0.19999999999999996]",-4,3.5495,-48.79998779,100.7999878,1,0,0,response7disk_5,5.600036621,1.600006104,1,0,0,rectangle_8,5.600036621,1.600006104,1,0,0,,,3,5.600036621,1.600006104,1,0,0,,5,0,5,0,1,,,,,,,,,,,,,,,,,,,,,,,,,,,,,,,,,,,,,,,,,,,,,,,,,,,,,,,,,,,,,,,,,,,,,,,,,,,,,,,,,,,,,,,,,,,,,,,,,,,,,,,,
,,,,,,6131d01bc956974e057e9f72,62bbfb46f096412934dc47db,2022-06-29_09h12.35.094,Colour_Asymmetry_Pilot,2022.1.3,Win32,61.01653548,62bbe60bf3d75ef465d3e404,,,,,,,,,,,,,,,,,,,"[-0.9688,-0.4902000000000001,-0.12159999999999993]",threeone,"[-0.4902000000000001,0.2704,-0.45899999999999996]",-4,13.0811,-51.20001221,114.3999939,1,0,0,response7disk_5,6.400024414,5.600006104,1,0,0,rectangle_8,6.400024414,5.600006104,1,0,0,,,3,6.400024414,5.600006104,1,0,0,,6,0,6,0,1,,,,,,,,,,,,,,,,,,,,,,,,,,,,,,,,,,,,,,,,,,,,,,,,,,,,,,,,,,,,,,,,,,,,,,,,,,,,,,,,,,,,,,,,,,,,,,,,,,,,,,,,
,,,,,,6131d01bc956974e057e9f72,62bbfb46f096412934dc47db,2022-06-29_09h12.35.094,Colour_Asymmetry_Pilot,2022.1.3,Win32,61.01653548,62bbe60bf3d75ef465d3e404,,,,,,,,,,,,,,,,,,,,threeone,,4,5.034,,,,,,,,,,,,,,,,,,,,,,,,,,,,,,,,space,22.2852,"[0.22340000000000004,-0.9296,-0.7884]","[0.3802000000000001,0.19199999999999995,-0.6394]",56,111.1999817,1,0,0,response1disk,11.20001221,-5.600006104,1,0,0,rectangle,11.20001221,-5.600006104,1,0,0,,2,0.0027,0,11.20001221,-5.600006104,1,0,0,0,0,0,77,1,77,first,,,,,,,,,,,,,,,,,,,,,,,,,,,,,,,,,,,,,,,,,,,,,,,,,,,,,,,,,,,,,,,,,,,
,,,,,,6131d01bc956974e057e9f72,62bbfb46f096412934dc47db,2022-06-29_09h12.35.094,Colour_Asymmetry_Pilot,2022.1.3,Win32,61.01653548,62bbe60bf3d75ef465d3e404,,,,,,,,,,,,,,,,,,,,twofour,,4,5.2996,,,,,,,,,,,,,,,,,,,,,,,,,,,,,,,,,,"[-0.4276,0.0038000000000000256,-0.3256]","[0.23920000000000008,0.2704,0.16060000000000008]",49.60003662,106.3999939,1,0,0,response1disk,-1.599975586,-6.399993896,1,0,0,rectangle,-1.599975586,-6.399993896,1,0,0,,2,0.0006,0,-1.599975586,-6.399993896,1,0,0,0,1,1,157,1,76,second,,,,,,,,,,,,,,,,,,,,,,,,,,,,,,,,,,,,,,,,,,,,,,,,,,,,,,,,,,,,,,,,,,,
,,,,,,6131d01bc956974e057e9f72,62bbfb46f096412934dc47db,2022-06-29_09h12.35.094,Colour_Asymmetry_Pilot,2022.1.3,Win32,61.01653548,62bbe60bf3d75ef465d3e404,,,,,,,,,,,,,,,,,,,,twofour,,-4,4.0166,,,,,,,,,,,,,,,,,,,,,,,,,,,,,,,,,,"[0.23920000000000008,0.2704,0.16060000000000008]","[-0.4276,0.0038000000000000256,-0.3256]",-49.59997559,118.3999939,1,0,0,response7disk,-7.200012207,-11.20001221,1,0,0,rectangle,105.6000366,-31.20001221,1,0,0,2,2,7.7697,1,-5.599975586,6.399993896,1,0,0,0,2,2,76,1,76,first,response3disk_3,rectangle,,,,,,,,,,,,,,,,,,,,,,,,,,,,,,,,,,,,,,,,,,,,,,,,,,,,,,,,,,,,,,,,,
,,,,,,6131d01bc956974e057e9f72,62bbfb46f096412934dc47db,2022-06-29_09h12.35.094,Colour_Asymmetry_Pilot,2022.1.3,Win32,61.01653548,62bbe60bf3d75ef465d3e404,,,,,,,,,,,,,,,,,,,,fourthree,,-4,6.666,,,,,,,,,,,,,,,,,,,,,,,,,,,,,,,,,,"[-0.20799999999999996,-0.655,-0.01980000000000004]","[0.7018,0.7176,0.6155999999999999]",-45.59997559,104.7999878,1,0,0,response7disk,4,7.199981689,1,0,0,rectangle,4,7.199981689,1,0,0,2,3,0.0019,0,4,7.199981689,1,0,0,0,3,3,20,1,20,first,,,,,,,,,,,,,,,,,,,,,,,,,,,,,,,,,,,,,,,,,,,,,,,,,,,,,,,,,,,,,,,,,,,
,,,,,,6131d01bc956974e057e9f72,62bbfb46f096412934dc47db,2022-06-29_09h12.35.094,Colour_Asymmetry_Pilot,2022.1.3,Win32,61.01653548,62bbe60bf3d75ef465d3e404,,,,,,,,,,,,,,,,,,,,threefour,,4,2.5,,,,,,,,,,,,,,,,,,,,,,,,,,,,,,,,,,"[0.3881999999999999,-0.23939999999999995,-0.05040000000000011]","[0.11359999999999992,0.6312,0.5213999999999999]",38.40002441,105.6000061,1,0,0,response1disk,0.799987793,-5.600006104,1,0,0,rectangle,0.799987793,-5.600006104,1,0,0,2,1,0.0025,0,0.799987793,-5.600006104,1,0,0,0,4,4,127,1,46,second,,,,,,,,,,,,,,,,,,,,,,,,,,,,,,,,,,,,,,,,,,,,,,,,,,,,,,,,,,,,,,,,,,,
,,,,,,6131d01bc956974e057e9f72,62bbfb46f096412934dc47db,2022-06-29_09h12.35.094,Colour_Asymmetry_Pilot,2022.1.3,Win32,61.01653548,62bbe60bf3d75ef465d3e404,,,,,,,,,,,,,,,,,,,,threefour,,-4,3.9827,,,,,,,,,,,,,,,,,,,,,,,,,,,,,,,,,,"[-0.0040000000000000036,0.02739999999999987,-0.08239999999999992]","[-0.9766,-0.34920000000000007,0.2156]",-57.59997559,111.1999817,1,0,0,response7disk,-1.599975586,-11.20001221,1,0,0,rectangle,44.79998779,-108,1,0,0,1,1,5.1659,1,-7.200012207,-3.200012207,1,0,0,0,5,5,159,1,78,second,response3disk_3,rectangle,,,,,,,,,,,,,,,,,,,,,,,,,,,,,,,,,,,,,,,,,,,,,,,,,,,,,,,,,,,,,,,,,
,,,,,,6131d01bc956974e057e9f72,62bbfb46f096412934dc47db,2022-06-29_09h12.35.094,Colour_Asymmetry_Pilot,2022.1.3,Win32,61.01653548,62bbe60bf3d75ef465d3e404,,,,,,,,,,,,,,,,,,,,threeone,,4,3.3996,,,,,,,,,,,,,,,,,,,,,,,,,,,,,,,,,,"[-0.8198,-0.5138,-0.7492000000000001]","[0.2784,-0.31000000000000005,-0.5452]",48,119.1999817,1,0,0,response1disk,-4.799987793,8.799987793,1,0,0,rectangle,-4.799987793,8.799987793,1,0,0,1,3,0.0021,0,-4.799987793,8.799987793,1,0,0,0,6,6,13,1,13,first,,,,,,,,,,,,,,,,,,,,,,,,,,,,,,,,,,,,,,,,,,,,,,,,,,,,,,,,,,,,,,,,,,,
,,,,,,6131d01bc956974e057e9f72,62bbfb46f096412934dc47db,2022-06-29_09h12.35.094,Colour_Asymmetry_Pilot,2022.1.3,Win32,61.01653548,62bbe60bf3d75ef465d3e404,,,,,,,,,,,,,,,,,,,,threeone,,-4,3.3494,,,,,,,,,,,,,,,,,,,,,,,,,,,,,,,,,,"[0.7018,0.7176,0.6155999999999999]","[-0.34920000000000007,-0.702,-0.5216]",-34.39996338,100.7999878,1,0,0,response7disk,0.799987793,6.399993896,1,0,0,rectangle,0.799987793,6.399993896,1,0,0,1,1,0.0023,0,0.799987793,6.399993896,1,0,0,0,7,7,21,1,21,first,,,,,,,,,,,,,,,,,,,,,,,,,,,,,,,,,,,,,,,,,,,,,,,,,,,,,,,,,,,,,,,,,,,
,,,,,,6131d01bc956974e057e9f72,62bbfb46f096412934dc47db,2022-06-29_09h12.35.094,Colour_Asymmetry_Pilot,2022.1.3,Win32,61.01653548,62bbe60bf3d75ef465d3e404,,,,,,,,,,,,,,,,,,,,onetwo,,-4,6.7326,,,,,,,,,,,,,,,,,,,,,,,,,,,,,,,,,,"[-0.10599999999999998,-0.15300000000000002,0.15280000000000005]","[-0.050999999999999934,-0.6706000000000001,-0.804]",-55.20001221,114.3999939,1,0,0,response7disk,0,-0.800018311,1,0,0,rectangle,0,-0.800018311,1,0,0,1,3,0.0012,0,0,-0.800018311,1,0,0,0,8,8,154,1,73,second,,,,,,,,,,,,,,,,,,,,,,,,,,,,,,,,,,,,,,,,,,,,,,,,,,,,,,,,,,,,,,,,,,,
,,,,,,6131d01bc956974e057e9f72,62bbfb46f096412934dc47db,2022-06-29_09h12.35.094,Colour_Asymmetry_Pilot,2022.1.3,Win32,61.01653548,62bbe60bf3d75ef465d3e404,,,,,,,,,,,,,,,,,,,,threeone,,-4,5.4161,,,,,,,,,,,,,,,,,,,,,,,,,,,,,,,,,,"[0.22340000000000004,-0.9296,-0.7884]","[-0.24719999999999998,0.5213999999999999,-0.12959999999999994]",-53.59997559,107.1999817,1,0,0,response7disk,-0.799987793,2.399993896,1,0,0,rectangle,-0.799987793,2.399993896,1,0,0,1,1,0.0016,0,-0.799987793,2.399993896,1,0,0,0,9,9,15,1,15,first,,,,,,,,,,,,,,,,,,,,,,,,,,,,,,,,,,,,,,,,,,,,,,,,,,,,,,,,,,,,,,,,,,,
,,,,,,6131d01bc956974e057e9f72,62bbfb46f096412934dc47db,2022-06-29_09h12.35.094,Colour_Asymmetry_Pilot,2022.1.3,Win32,61.01653548,62bbe60bf3d75ef465d3e404,,,,,,,,,,,,,,,,,,,,threeone,,-4,3.0631,,,,,,,,,,,,,,,,,,,,,,,,,,,,,,,,,,"[0.7176,-0.906,-0.6864]","[-0.45899999999999996,-0.3256,-0.9374]",-33.59997559,100,1,0,0,response7disk,18.40002441,-5.600006104,1,0,0,rectangle,18.40002441,-5.600006104,1,0,0,1,3,0.0013,0,18.40002441,-5.600006104,1,0,0,0,10,10,107,1,26,second,,,,,,,,,,,,,,,,,,,,,,,,,,,,,,,,,,,,,,,,,,,,,,,,,,,,,,,,,,,,,,,,,,,
,,,,,,6131d01bc956974e057e9f72,62bbfb46f096412934dc47db,2022-06-29_09h12.35.094,Colour_Asymmetry_Pilot,2022.1.3,Win32,61.01653548,62bbe60bf3d75ef465d3e404,,,,,,,,,,,,,,,,,,,,onetwo,,4,2.4628,,,,,,,,,,,,,,,,,,,,,,,,,,,,,,,,,,"[0.9213999999999998,0.6391999999999998,-0.9922]","[1,0.12939999999999996,-1]",49.60003662,108.7999878,1,0,0,response1disk,-2.399963379,1.600006104,1,0,0,rectangle,-2.399963379,1.600006104,1,0,0,1,3,0.0002,0,-2.399963379,1.600006104,1,0,0,0,11,11,19,1,19,first,,,,,,,,,,,,,,,,,,,,,,,,,,,,,,,,,,,,,,,,,,,,,,,,,,,,,,,,,,,,,,,,,,,
,,,,,,6131d01bc956974e057e9f72,62bbfb46f096412934dc47db,2022-06-29_09h12.35.094,Colour_Asymmetry_Pilot,2022.1.3,Win32,61.01653548,62bbe60bf3d75ef465d3e404,,,,,,,,,,,,,,,,,,,,twofour,,-4,4.083,,,,,,,,,,,,,,,,,,,,,,,,,,,,,,,,,,"[0.9763999999999999,0.8588,-0.05900000000000005]","[0.23120000000000007,-0.7726,-0.34120000000000006]",-52,74.3999939,1,0,0,response7disk,20.79998779,-3.200012207,1,0,0,rectangle,20.79998779,-3.200012207,1,0,0,1,3,0.0002,0,20.79998779,-3.200012207,1,0,0,0,12,12,67,1,67,first,,,,,,,,,,,,,,,,,,,,,,,,,,,,,,,,,,,,,,,,,,,,,,,,,,,,,,,,,,,,,,,,,,,
,,,,,,6131d01bc956974e057e9f72,62bbfb46f096412934dc47db,2022-06-29_09h12.35.094,Colour_Asymmetry_Pilot,2022.1.3,Win32,61.01653548,62bbe60bf3d75ef465d3e404,,,,,,,,,,,,,,,,,,,,fourtwo,,-4,6.6828,,,,,,,,,,,,,,,,,,,,,,,,,,,,,,,,,,"[-0.011800000000000033,-0.906,-0.45100000000000007]","[-0.2942,-0.24719999999999998,-0.357]",-41.59997559,97.6000061,1,0,0,response7disk,7.200012207,-5.600006104,1,0,0,rectangle,7.200012207,-5.600006104,1,0,0,1,3,0.0004,0,7.200012207,-5.600006104,1,0,0,0,13,13,128,1,47,second,,,,,,,,,,,,,,,,,,,,,,,,,,,,,,,,,,,,,,,,,,,,,,,,,,,,,,,,,,,,,,,,,,,
,,,,,,6131d01bc956974e057e9f72,62bbfb46f096412934dc47db,2022-06-29_09h12.35.094,Colour_Asymmetry_Pilot,2022.1.3,Win32,61.01653548,62bbe60bf3d75ef465d3e404,,,,,,,,,,,,,,,,,,,,threefour,,-4,3.6159,,,,,,,,,,,,,,,,,,,,,,,,,,,,,,,,,,"[0.5449999999999999,-0.31000000000000005,-0.0354000000000001]","[0.4196,0.4665999999999999,0.3568]",-49.59997559,102.3999939,1,0,0,response7disk,7.200012207,-8,1,0,0,rectangle,7.200012207,-8,1,0,0,1,2,0.0013,0,7.200012207,-8,1,0,0,0,14,14,116,1,35,second,,,,,,,,,,,,,,,,,,,,,,,,,,,,,,,,,,,,,,,,,,,,,,,,,,,,,,,,,,,,,,,,,,,
,,,,,,6131d01bc956974e057e9f72,62bbfb46f096412934dc47db,2022-06-29_09h12.35.094,Colour_Asymmetry_Pilot,2022.1.3,Win32,61.01653548,62bbe60bf3d75ef465d3e404,,,,,,,,,,,,,,,,,,,,threeone,,4,2.1666,,,,,,,,,,,,,,,,,,,,,,,,,,,,,,,,,,"[-0.8198,-0.5138,-0.7492000000000001]","[0.0351999999999999,0.41159999999999997,0.0038000000000000256]",49.60003662,112.7999878,1,0,0,response1disk,-4,2.399993896,1,0,0,rectangle,-4,2.399993896,1,0,0,1,1,0.0012,0,-4,2.399993896,1,0,0,0,15,15,64,1,64,first,,,,,,,,,,,,,,,,,,,,,,,,,,,,,,,,,,,,,,,,,,,,,,,,,,,,,,,,,,,,,,,,,,,
,,,,,,6131d01bc956974e057e9f72,62bbfb46f096412934dc47db,2022-06-29_09h12.35.094,Colour_Asymmetry_Pilot,2022.1.3,Win32,61.01653548,62bbe60bf3d75ef465d3e404,,,,,,,,,,,,,,,,,,,,twofour,,4,2.0999,,,,,,,,,,,,,,,,,,,,,,,,,,,,,,,,,,"[-0.8982,-0.37259999999999993,0.2784]","[0.9213999999999998,0.6391999999999998,-0.9922]",41.60003662,125.6000061,1,0,0,response1disk,4.799987793,6.399993896,1,0,0,rectangle,4.799987793,6.399993896,1,0,0,1,3,0.0015,0,4.799987793,6.399993896,1,0,0,0,16,16,114,1,33,second,,,,,,,,,,,,,,,,,,,,,,,,,,,,,,,,,,,,,,,,,,,,,,,,,,,,,,,,,,,,,,,,,,,
