trials.thisRepN,trials.thisTrialN,trials.thisN,trials.thisIndex,trials.ran,Colourcodes,participant,session,date,expName,psychopyVersion,OS,frameRate,study_id,trials_4.thisRepN,trials_4.thisTrialN,trials_4.thisN,trials_4.thisIndex,trials_4.ran,StimulusPos,key_resp.keys,key_resp.rt,key_resp_2.keys,key_resp_2.rt,key_resp_15.keys,key_resp_15.rt,key_resp_17.keys,key_resp_17.rt,key_resp_9.keys,key_resp_9.rt,key_resp_10.keys,key_resp_10.rt,Circle1_col,Ecc,Circle2_col,similarity,response_time,mouse_5.x,mouse_5.y,mouse_5.leftButton,mouse_5.midButton,mouse_5.rightButton,mouse_5.clicked_name,mouse_10.x,mouse_10.y,mouse_10.leftButton,mouse_10.midButton,mouse_10.rightButton,mouse_10.clicked_name,mouse_7.x,mouse_7.y,mouse_7.leftButton,mouse_7.midButton,mouse_7.rightButton,catchnumberprac,mouse_6.x,mouse_6.y,mouse_6.leftButton,mouse_6.midButton,mouse_6.rightButton,duringprac.thisRepN,duringprac.thisTrialN,duringprac.thisN,duringprac.thisIndex,duringprac.ran,mouse_7.clicked_name,catchprac,mouse_6.clicked_name,key_resp_22.keys,key_resp_22.rt,Circle1_colour,Circle2_colour,mouse.x,mouse.y,mouse.leftButton,mouse.midButton,mouse.rightButton,mouse.clicked_name,mouse_2.x,mouse_2.y,mouse_2.leftButton,mouse_2.midButton,mouse_2.rightButton,mouse_2.clicked_name,mouse_3.x,mouse_3.y,mouse_3.leftButton,mouse_3.midButton,mouse_3.rightButton,catchresponse,catchnumber,response_time_catch,Catch,mouse_11.x,mouse_11.y,mouse_11.leftButton,mouse_11.midButton,mouse_11.rightButton,trials_2.thisRepN,trials_2.thisTrialN,trials_2.thisN,trials_2.thisIndex,trials_2.ran,Colourpair,Temporder,mouse_3.clicked_name,mouse_11.clicked_name,trials_3.thisRepN,trials_3.thisTrialN,trials_3.thisN,trials_3.thisIndex,trials_3.ran,textbox.text,mouse_4.x,mouse_4.y,mouse_4.leftButton,mouse_4.midButton,mouse_4.rightButton,mouse_4.clicked_name,textbox_2.text,mouse_8.x,mouse_8.y,mouse_8.leftButton,mouse_8.midButton,mouse_8.rightButton,mouse_8.clicked_name,textbox_3.text,mouse_9.x,mouse_9.y,mouse_9.leftButton,mouse_9.midButton,mouse_9.rightButton,mouse_9.clicked_name,textbox_4.text,mouse_12.x,mouse_12.y,mouse_12.leftButton,mouse_12.midButton,mouse_12.rightButton,mouse_12.clicked_name,textbox_5.text,mouse_13.x,mouse_13.y,mouse_13.leftButton,mouse_13.midButton,mouse_13.rightButton,mouse_13.clicked_name,textbox_6.text,mouse_14.x,mouse_14.y,mouse_14.leftButton,mouse_14.midButton,mouse_14.rightButton,textbox_7.text,mouse_15.x,mouse_15.y,mouse_15.leftButton,mouse_15.midButton,mouse_15.rightButton,mouse_15.clicked_name
0,0,0,66,1,,5e722b8cffc65d01103bbc8a,629c523699299cb1d11838ab,2022-06-05_08h51.03.281,Colour_Asymmetry_Pilot,2022.1.3,Win32,60.9236018,629c4b6caf241d5e6e00bfc0,,,,,,,,,,,,,,,,,,,,,,,,,,,,,,,,,,,,,,,,,,,,,,,,,,,,,,,,,,,,,,,,,,,,,,,,,,,,,,,,,,,,,,,,,,,,,,,,,,,,,,,,,,,,,,,,,,,,,,,,,,,,,,,,,,,,,,,,,,,,,,,,,,
0,1,1,45,1,,5e722b8cffc65d01103bbc8a,629c523699299cb1d11838ab,2022-06-05_08h51.03.281,Colour_Asymmetry_Pilot,2022.1.3,Win32,60.9236018,629c4b6caf241d5e6e00bfc0,,,,,,,,,,,,,,,,,,,,,,,,,,,,,,,,,,,,,,,,,,,,,,,,,,,,,,,,,,,,,,,,,,,,,,,,,,,,,,,,,,,,,,,,,,,,,,,,,,,,,,,,,,,,,,,,,,,,,,,,,,,,,,,,,,,,,,,,,,,,,,,,,,
0,2,2,70,1,,5e722b8cffc65d01103bbc8a,629c523699299cb1d11838ab,2022-06-05_08h51.03.281,Colour_Asymmetry_Pilot,2022.1.3,Win32,60.9236018,629c4b6caf241d5e6e00bfc0,,,,,,,,,,,,,,,,,,,,,,,,,,,,,,,,,,,,,,,,,,,,,,,,,,,,,,,,,,,,,,,,,,,,,,,,,,,,,,,,,,,,,,,,,,,,,,,,,,,,,,,,,,,,,,,,,,,,,,,,,,,,,,,,,,,,,,,,,,,,,,,,,,
0,3,3,35,1,,5e722b8cffc65d01103bbc8a,629c523699299cb1d11838ab,2022-06-05_08h51.03.281,Colour_Asymmetry_Pilot,2022.1.3,Win32,60.9236018,629c4b6caf241d5e6e00bfc0,,,,,,,,,,,,,,,,,,,,,,,,,,,,,,,,,,,,,,,,,,,,,,,,,,,,,,,,,,,,,,,,,,,,,,,,,,,,,,,,,,,,,,,,,,,,,,,,,,,,,,,,,,,,,,,,,,,,,,,,,,,,,,,,,,,,,,,,,,,,,,,,,,
0,4,4,58,1,,5e722b8cffc65d01103bbc8a,629c523699299cb1d11838ab,2022-06-05_08h51.03.281,Colour_Asymmetry_Pilot,2022.1.3,Win32,60.9236018,629c4b6caf241d5e6e00bfc0,,,,,,,,,,,,,,,,,,,,,,,,,,,,,,,,,,,,,,,,,,,,,,,,,,,,,,,,,,,,,,,,,,,,,,,,,,,,,,,,,,,,,,,,,,,,,,,,,,,,,,,,,,,,,,,,,,,,,,,,,,,,,,,,,,,,,,,,,,,,,,,,,,
0,5,5,43,1,,5e722b8cffc65d01103bbc8a,629c523699299cb1d11838ab,2022-06-05_08h51.03.281,Colour_Asymmetry_Pilot,2022.1.3,Win32,60.9236018,629c4b6caf241d5e6e00bfc0,,,,,,,,,,,,,,,,,,,,,,,,,,,,,,,,,,,,,,,,,,,,,,,,,,,,,,,,,,,,,,,,,,,,,,,,,,,,,,,,,,,,,,,,,,,,,,,,,,,,,,,,,,,,,,,,,,,,,,,,,,,,,,,,,,,,,,,,,,,,,,,,,,
0,6,6,67,1,,5e722b8cffc65d01103bbc8a,629c523699299cb1d11838ab,2022-06-05_08h51.03.281,Colour_Asymmetry_Pilot,2022.1.3,Win32,60.9236018,629c4b6caf241d5e6e00bfc0,,,,,,,,,,,,,,,,,,,,,,,,,,,,,,,,,,,,,,,,,,,,,,,,,,,,,,,,,,,,,,,,,,,,,,,,,,,,,,,,,,,,,,,,,,,,,,,,,,,,,,,,,,,,,,,,,,,,,,,,,,,,,,,,,,,,,,,,,,,,,,,,,,
0,7,7,76,1,,5e722b8cffc65d01103bbc8a,629c523699299cb1d11838ab,2022-06-05_08h51.03.281,Colour_Asymmetry_Pilot,2022.1.3,Win32,60.9236018,629c4b6caf241d5e6e00bfc0,,,,,,,,,,,,,,,,,,,,,,,,,,,,,,,,,,,,,,,,,,,,,,,,,,,,,,,,,,,,,,,,,,,,,,,,,,,,,,,,,,,,,,,,,,,,,,,,,,,,,,,,,,,,,,,,,,,,,,,,,,,,,,,,,,,,,,,,,,,,,,,,,,
0,8,8,85,1,,5e722b8cffc65d01103bbc8a,629c523699299cb1d11838ab,2022-06-05_08h51.03.281,Colour_Asymmetry_Pilot,2022.1.3,Win32,60.9236018,629c4b6caf241d5e6e00bfc0,,,,,,,,,,,,,,,,,,,,,,,,,,,,,,,,,,,,,,,,,,,,,,,,,,,,,,,,,,,,,,,,,,,,,,,,,,,,,,,,,,,,,,,,,,,,,,,,,,,,,,,,,,,,,,,,,,,,,,,,,,,,,,,,,,,,,,,,,,,,,,,,,,
0,9,9,8,1,,5e722b8cffc65d01103bbc8a,629c523699299cb1d11838ab,2022-06-05_08h51.03.281,Colour_Asymmetry_Pilot,2022.1.3,Win32,60.9236018,629c4b6caf241d5e6e00bfc0,,,,,,,,,,,,,,,,,,,,,,,,,,,,,,,,,,,,,,,,,,,,,,,,,,,,,,,,,,,,,,,,,,,,,,,,,,,,,,,,,,,,,,,,,,,,,,,,,,,,,,,,,,,,,,,,,,,,,,,,,,,,,,,,,,,,,,,,,,,,,,,,,,
0,10,10,5,1,,5e722b8cffc65d01103bbc8a,629c523699299cb1d11838ab,2022-06-05_08h51.03.281,Colour_Asymmetry_Pilot,2022.1.3,Win32,60.9236018,629c4b6caf241d5e6e00bfc0,,,,,,,,,,,,,,,,,,,,,,,,,,,,,,,,,,,,,,,,,,,,,,,,,,,,,,,,,,,,,,,,,,,,,,,,,,,,,,,,,,,,,,,,,,,,,,,,,,,,,,,,,,,,,,,,,,,,,,,,,,,,,,,,,,,,,,,,,,,,,,,,,,
0,11,11,84,1,,5e722b8cffc65d01103bbc8a,629c523699299cb1d11838ab,2022-06-05_08h51.03.281,Colour_Asymmetry_Pilot,2022.1.3,Win32,60.9236018,629c4b6caf241d5e6e00bfc0,,,,,,,,,,,,,,,,,,,,,,,,,,,,,,,,,,,,,,,,,,,,,,,,,,,,,,,,,,,,,,,,,,,,,,,,,,,,,,,,,,,,,,,,,,,,,,,,,,,,,,,,,,,,,,,,,,,,,,,,,,,,,,,,,,,,,,,,,,,,,,,,,,
0,12,12,91,1,,5e722b8cffc65d01103bbc8a,629c523699299cb1d11838ab,2022-06-05_08h51.03.281,Colour_Asymmetry_Pilot,2022.1.3,Win32,60.9236018,629c4b6caf241d5e6e00bfc0,,,,,,,,,,,,,,,,,,,,,,,,,,,,,,,,,,,,,,,,,,,,,,,,,,,,,,,,,,,,,,,,,,,,,,,,,,,,,,,,,,,,,,,,,,,,,,,,,,,,,,,,,,,,,,,,,,,,,,,,,,,,,,,,,,,,,,,,,,,,,,,,,,
0,13,13,72,1,,5e722b8cffc65d01103bbc8a,629c523699299cb1d11838ab,2022-06-05_08h51.03.281,Colour_Asymmetry_Pilot,2022.1.3,Win32,60.9236018,629c4b6caf241d5e6e00bfc0,,,,,,,,,,,,,,,,,,,,,,,,,,,,,,,,,,,,,,,,,,,,,,,,,,,,,,,,,,,,,,,,,,,,,,,,,,,,,,,,,,,,,,,,,,,,,,,,,,,,,,,,,,,,,,,,,,,,,,,,,,,,,,,,,,,,,,,,,,,,,,,,,,
0,14,14,81,1,,5e722b8cffc65d01103bbc8a,629c523699299cb1d11838ab,2022-06-05_08h51.03.281,Colour_Asymmetry_Pilot,2022.1.3,Win32,60.9236018,629c4b6caf241d5e6e00bfc0,,,,,,,,,,,,,,,,,,,,,,,,,,,,,,,,,,,,,,,,,,,,,,,,,,,,,,,,,,,,,,,,,,,,,,,,,,,,,,,,,,,,,,,,,,,,,,,,,,,,,,,,,,,,,,,,,,,,,,,,,,,,,,,,,,,,,,,,,,,,,,,,,,
0,15,15,10,1,,5e722b8cffc65d01103bbc8a,629c523699299cb1d11838ab,2022-06-05_08h51.03.281,Colour_Asymmetry_Pilot,2022.1.3,Win32,60.9236018,629c4b6caf241d5e6e00bfc0,,,,,,,,,,,,,,,,,,,,,,,,,,,,,,,,,,,,,,,,,,,,,,,,,,,,,,,,,,,,,,,,,,,,,,,,,,,,,,,,,,,,,,,,,,,,,,,,,,,,,,,,,,,,,,,,,,,,,,,,,,,,,,,,,,,,,,,,,,,,,,,,,,
0,16,16,54,1,,5e722b8cffc65d01103bbc8a,629c523699299cb1d11838ab,2022-06-05_08h51.03.281,Colour_Asymmetry_Pilot,2022.1.3,Win32,60.9236018,629c4b6caf241d5e6e00bfc0,,,,,,,,,,,,,,,,,,,,,,,,,,,,,,,,,,,,,,,,,,,,,,,,,,,,,,,,,,,,,,,,,,,,,,,,,,,,,,,,,,,,,,,,,,,,,,,,,,,,,,,,,,,,,,,,,,,,,,,,,,,,,,,,,,,,,,,,,,,,,,,,,,
0,17,17,49,1,,5e722b8cffc65d01103bbc8a,629c523699299cb1d11838ab,2022-06-05_08h51.03.281,Colour_Asymmetry_Pilot,2022.1.3,Win32,60.9236018,629c4b6caf241d5e6e00bfc0,,,,,,,,,,,,,,,,,,,,,,,,,,,,,,,,,,,,,,,,,,,,,,,,,,,,,,,,,,,,,,,,,,,,,,,,,,,,,,,,,,,,,,,,,,,,,,,,,,,,,,,,,,,,,,,,,,,,,,,,,,,,,,,,,,,,,,,,,,,,,,,,,,
0,18,18,69,1,,5e722b8cffc65d01103bbc8a,629c523699299cb1d11838ab,2022-06-05_08h51.03.281,Colour_Asymmetry_Pilot,2022.1.3,Win32,60.9236018,629c4b6caf241d5e6e00bfc0,,,,,,,,,,,,,,,,,,,,,,,,,,,,,,,,,,,,,,,,,,,,,,,,,,,,,,,,,,,,,,,,,,,,,,,,,,,,,,,,,,,,,,,,,,,,,,,,,,,,,,,,,,,,,,,,,,,,,,,,,,,,,,,,,,,,,,,,,,,,,,,,,,
0,19,19,21,1,,5e722b8cffc65d01103bbc8a,629c523699299cb1d11838ab,2022-06-05_08h51.03.281,Colour_Asymmetry_Pilot,2022.1.3,Win32,60.9236018,629c4b6caf241d5e6e00bfc0,,,,,,,,,,,,,,,,,,,,,,,,,,,,,,,,,,,,,,,,,,,,,,,,,,,,,,,,,,,,,,,,,,,,,,,,,,,,,,,,,,,,,,,,,,,,,,,,,,,,,,,,,,,,,,,,,,,,,,,,,,,,,,,,,,,,,,,,,,,,,,,,,,
0,20,20,75,1,,5e722b8cffc65d01103bbc8a,629c523699299cb1d11838ab,2022-06-05_08h51.03.281,Colour_Asymmetry_Pilot,2022.1.3,Win32,60.9236018,629c4b6caf241d5e6e00bfc0,,,,,,,,,,,,,,,,,,,,,,,,,,,,,,,,,,,,,,,,,,,,,,,,,,,,,,,,,,,,,,,,,,,,,,,,,,,,,,,,,,,,,,,,,,,,,,,,,,,,,,,,,,,,,,,,,,,,,,,,,,,,,,,,,,,,,,,,,,,,,,,,,,
0,21,21,48,1,,5e722b8cffc65d01103bbc8a,629c523699299cb1d11838ab,2022-06-05_08h51.03.281,Colour_Asymmetry_Pilot,2022.1.3,Win32,60.9236018,629c4b6caf241d5e6e00bfc0,,,,,,,,,,,,,,,,,,,,,,,,,,,,,,,,,,,,,,,,,,,,,,,,,,,,,,,,,,,,,,,,,,,,,,,,,,,,,,,,,,,,,,,,,,,,,,,,,,,,,,,,,,,,,,,,,,,,,,,,,,,,,,,,,,,,,,,,,,,,,,,,,,
0,22,22,27,1,,5e722b8cffc65d01103bbc8a,629c523699299cb1d11838ab,2022-06-05_08h51.03.281,Colour_Asymmetry_Pilot,2022.1.3,Win32,60.9236018,629c4b6caf241d5e6e00bfc0,,,,,,,,,,,,,,,,,,,,,,,,,,,,,,,,,,,,,,,,,,,,,,,,,,,,,,,,,,,,,,,,,,,,,,,,,,,,,,,,,,,,,,,,,,,,,,,,,,,,,,,,,,,,,,,,,,,,,,,,,,,,,,,,,,,,,,,,,,,,,,,,,,
0,23,23,41,1,,5e722b8cffc65d01103bbc8a,629c523699299cb1d11838ab,2022-06-05_08h51.03.281,Colour_Asymmetry_Pilot,2022.1.3,Win32,60.9236018,629c4b6caf241d5e6e00bfc0,,,,,,,,,,,,,,,,,,,,,,,,,,,,,,,,,,,,,,,,,,,,,,,,,,,,,,,,,,,,,,,,,,,,,,,,,,,,,,,,,,,,,,,,,,,,,,,,,,,,,,,,,,,,,,,,,,,,,,,,,,,,,,,,,,,,,,,,,,,,,,,,,,
0,24,24,30,1,,5e722b8cffc65d01103bbc8a,629c523699299cb1d11838ab,2022-06-05_08h51.03.281,Colour_Asymmetry_Pilot,2022.1.3,Win32,60.9236018,629c4b6caf241d5e6e00bfc0,,,,,,,,,,,,,,,,,,,,,,,,,,,,,,,,,,,,,,,,,,,,,,,,,,,,,,,,,,,,,,,,,,,,,,,,,,,,,,,,,,,,,,,,,,,,,,,,,,,,,,,,,,,,,,,,,,,,,,,,,,,,,,,,,,,,,,,,,,,,,,,,,,
0,25,25,77,1,,5e722b8cffc65d01103bbc8a,629c523699299cb1d11838ab,2022-06-05_08h51.03.281,Colour_Asymmetry_Pilot,2022.1.3,Win32,60.9236018,629c4b6caf241d5e6e00bfc0,,,,,,,,,,,,,,,,,,,,,,,,,,,,,,,,,,,,,,,,,,,,,,,,,,,,,,,,,,,,,,,,,,,,,,,,,,,,,,,,,,,,,,,,,,,,,,,,,,,,,,,,,,,,,,,,,,,,,,,,,,,,,,,,,,,,,,,,,,,,,,,,,,
0,26,26,50,1,,5e722b8cffc65d01103bbc8a,629c523699299cb1d11838ab,2022-06-05_08h51.03.281,Colour_Asymmetry_Pilot,2022.1.3,Win32,60.9236018,629c4b6caf241d5e6e00bfc0,,,,,,,,,,,,,,,,,,,,,,,,,,,,,,,,,,,,,,,,,,,,,,,,,,,,,,,,,,,,,,,,,,,,,,,,,,,,,,,,,,,,,,,,,,,,,,,,,,,,,,,,,,,,,,,,,,,,,,,,,,,,,,,,,,,,,,,,,,,,,,,,,,
0,27,27,16,1,,5e722b8cffc65d01103bbc8a,629c523699299cb1d11838ab,2022-06-05_08h51.03.281,Colour_Asymmetry_Pilot,2022.1.3,Win32,60.9236018,629c4b6caf241d5e6e00bfc0,,,,,,,,,,,,,,,,,,,,,,,,,,,,,,,,,,,,,,,,,,,,,,,,,,,,,,,,,,,,,,,,,,,,,,,,,,,,,,,,,,,,,,,,,,,,,,,,,,,,,,,,,,,,,,,,,,,,,,,,,,,,,,,,,,,,,,,,,,,,,,,,,,
0,28,28,18,1,,5e722b8cffc65d01103bbc8a,629c523699299cb1d11838ab,2022-06-05_08h51.03.281,Colour_Asymmetry_Pilot,2022.1.3,Win32,60.9236018,629c4b6caf241d5e6e00bfc0,,,,,,,,,,,,,,,,,,,,,,,,,,,,,,,,,,,,,,,,,,,,,,,,,,,,,,,,,,,,,,,,,,,,,,,,,,,,,,,,,,,,,,,,,,,,,,,,,,,,,,,,,,,,,,,,,,,,,,,,,,,,,,,,,,,,,,,,,,,,,,,,,,
0,29,29,83,1,,5e722b8cffc65d01103bbc8a,629c523699299cb1d11838ab,2022-06-05_08h51.03.281,Colour_Asymmetry_Pilot,2022.1.3,Win32,60.9236018,629c4b6caf241d5e6e00bfc0,,,,,,,,,,,,,,,,,,,,,,,,,,,,,,,,,,,,,,,,,,,,,,,,,,,,,,,,,,,,,,,,,,,,,,,,,,,,,,,,,,,,,,,,,,,,,,,,,,,,,,,,,,,,,,,,,,,,,,,,,,,,,,,,,,,,,,,,,,,,,,,,,,
0,30,30,89,1,,5e722b8cffc65d01103bbc8a,629c523699299cb1d11838ab,2022-06-05_08h51.03.281,Colour_Asymmetry_Pilot,2022.1.3,Win32,60.9236018,629c4b6caf241d5e6e00bfc0,,,,,,,,,,,,,,,,,,,,,,,,,,,,,,,,,,,,,,,,,,,,,,,,,,,,,,,,,,,,,,,,,,,,,,,,,,,,,,,,,,,,,,,,,,,,,,,,,,,,,,,,,,,,,,,,,,,,,,,,,,,,,,,,,,,,,,,,,,,,,,,,,,
0,31,31,11,1,,5e722b8cffc65d01103bbc8a,629c523699299cb1d11838ab,2022-06-05_08h51.03.281,Colour_Asymmetry_Pilot,2022.1.3,Win32,60.9236018,629c4b6caf241d5e6e00bfc0,,,,,,,,,,,,,,,,,,,,,,,,,,,,,,,,,,,,,,,,,,,,,,,,,,,,,,,,,,,,,,,,,,,,,,,,,,,,,,,,,,,,,,,,,,,,,,,,,,,,,,,,,,,,,,,,,,,,,,,,,,,,,,,,,,,,,,,,,,,,,,,,,,
0,32,32,64,1,,5e722b8cffc65d01103bbc8a,629c523699299cb1d11838ab,2022-06-05_08h51.03.281,Colour_Asymmetry_Pilot,2022.1.3,Win32,60.9236018,629c4b6caf241d5e6e00bfc0,,,,,,,,,,,,,,,,,,,,,,,,,,,,,,,,,,,,,,,,,,,,,,,,,,,,,,,,,,,,,,,,,,,,,,,,,,,,,,,,,,,,,,,,,,,,,,,,,,,,,,,,,,,,,,,,,,,,,,,,,,,,,,,,,,,,,,,,,,,,,,,,,,
0,33,33,34,1,,5e722b8cffc65d01103bbc8a,629c523699299cb1d11838ab,2022-06-05_08h51.03.281,Colour_Asymmetry_Pilot,2022.1.3,Win32,60.9236018,629c4b6caf241d5e6e00bfc0,,,,,,,,,,,,,,,,,,,,,,,,,,,,,,,,,,,,,,,,,,,,,,,,,,,,,,,,,,,,,,,,,,,,,,,,,,,,,,,,,,,,,,,,,,,,,,,,,,,,,,,,,,,,,,,,,,,,,,,,,,,,,,,,,,,,,,,,,,,,,,,,,,
0,34,34,12,1,,5e722b8cffc65d01103bbc8a,629c523699299cb1d11838ab,2022-06-05_08h51.03.281,Colour_Asymmetry_Pilot,2022.1.3,Win32,60.9236018,629c4b6caf241d5e6e00bfc0,,,,,,,,,,,,,,,,,,,,,,,,,,,,,,,,,,,,,,,,,,,,,,,,,,,,,,,,,,,,,,,,,,,,,,,,,,,,,,,,,,,,,,,,,,,,,,,,,,,,,,,,,,,,,,,,,,,,,,,,,,,,,,,,,,,,,,,,,,,,,,,,,,
0,35,35,65,1,,5e722b8cffc65d01103bbc8a,629c523699299cb1d11838ab,2022-06-05_08h51.03.281,Colour_Asymmetry_Pilot,2022.1.3,Win32,60.9236018,629c4b6caf241d5e6e00bfc0,,,,,,,,,,,,,,,,,,,,,,,,,,,,,,,,,,,,,,,,,,,,,,,,,,,,,,,,,,,,,,,,,,,,,,,,,,,,,,,,,,,,,,,,,,,,,,,,,,,,,,,,,,,,,,,,,,,,,,,,,,,,,,,,,,,,,,,,,,,,,,,,,,
0,36,36,33,1,,5e722b8cffc65d01103bbc8a,629c523699299cb1d11838ab,2022-06-05_08h51.03.281,Colour_Asymmetry_Pilot,2022.1.3,Win32,60.9236018,629c4b6caf241d5e6e00bfc0,,,,,,,,,,,,,,,,,,,,,,,,,,,,,,,,,,,,,,,,,,,,,,,,,,,,,,,,,,,,,,,,,,,,,,,,,,,,,,,,,,,,,,,,,,,,,,,,,,,,,,,,,,,,,,,,,,,,,,,,,,,,,,,,,,,,,,,,,,,,,,,,,,
0,37,37,51,1,,5e722b8cffc65d01103bbc8a,629c523699299cb1d11838ab,2022-06-05_08h51.03.281,Colour_Asymmetry_Pilot,2022.1.3,Win32,60.9236018,629c4b6caf241d5e6e00bfc0,,,,,,,,,,,,,,,,,,,,,,,,,,,,,,,,,,,,,,,,,,,,,,,,,,,,,,,,,,,,,,,,,,,,,,,,,,,,,,,,,,,,,,,,,,,,,,,,,,,,,,,,,,,,,,,,,,,,,,,,,,,,,,,,,,,,,,,,,,,,,,,,,,
0,38,38,19,1,,5e722b8cffc65d01103bbc8a,629c523699299cb1d11838ab,2022-06-05_08h51.03.281,Colour_Asymmetry_Pilot,2022.1.3,Win32,60.9236018,629c4b6caf241d5e6e00bfc0,,,,,,,,,,,,,,,,,,,,,,,,,,,,,,,,,,,,,,,,,,,,,,,,,,,,,,,,,,,,,,,,,,,,,,,,,,,,,,,,,,,,,,,,,,,,,,,,,,,,,,,,,,,,,,,,,,,,,,,,,,,,,,,,,,,,,,,,,,,,,,,,,,
0,39,39,59,1,,5e722b8cffc65d01103bbc8a,629c523699299cb1d11838ab,2022-06-05_08h51.03.281,Colour_Asymmetry_Pilot,2022.1.3,Win32,60.9236018,629c4b6caf241d5e6e00bfc0,,,,,,,,,,,,,,,,,,,,,,,,,,,,,,,,,,,,,,,,,,,,,,,,,,,,,,,,,,,,,,,,,,,,,,,,,,,,,,,,,,,,,,,,,,,,,,,,,,,,,,,,,,,,,,,,,,,,,,,,,,,,,,,,,,,,,,,,,,,,,,,,,,
0,40,40,86,1,,5e722b8cffc65d01103bbc8a,629c523699299cb1d11838ab,2022-06-05_08h51.03.281,Colour_Asymmetry_Pilot,2022.1.3,Win32,60.9236018,629c4b6caf241d5e6e00bfc0,,,,,,,,,,,,,,,,,,,,,,,,,,,,,,,,,,,,,,,,,,,,,,,,,,,,,,,,,,,,,,,,,,,,,,,,,,,,,,,,,,,,,,,,,,,,,,,,,,,,,,,,,,,,,,,,,,,,,,,,,,,,,,,,,,,,,,,,,,,,,,,,,,
0,41,41,37,1,,5e722b8cffc65d01103bbc8a,629c523699299cb1d11838ab,2022-06-05_08h51.03.281,Colour_Asymmetry_Pilot,2022.1.3,Win32,60.9236018,629c4b6caf241d5e6e00bfc0,,,,,,,,,,,,,,,,,,,,,,,,,,,,,,,,,,,,,,,,,,,,,,,,,,,,,,,,,,,,,,,,,,,,,,,,,,,,,,,,,,,,,,,,,,,,,,,,,,,,,,,,,,,,,,,,,,,,,,,,,,,,,,,,,,,,,,,,,,,,,,,,,,
0,42,42,53,1,,5e722b8cffc65d01103bbc8a,629c523699299cb1d11838ab,2022-06-05_08h51.03.281,Colour_Asymmetry_Pilot,2022.1.3,Win32,60.9236018,629c4b6caf241d5e6e00bfc0,,,,,,,,,,,,,,,,,,,,,,,,,,,,,,,,,,,,,,,,,,,,,,,,,,,,,,,,,,,,,,,,,,,,,,,,,,,,,,,,,,,,,,,,,,,,,,,,,,,,,,,,,,,,,,,,,,,,,,,,,,,,,,,,,,,,,,,,,,,,,,,,,,
0,43,43,9,1,,5e722b8cffc65d01103bbc8a,629c523699299cb1d11838ab,2022-06-05_08h51.03.281,Colour_Asymmetry_Pilot,2022.1.3,Win32,60.9236018,629c4b6caf241d5e6e00bfc0,,,,,,,,,,,,,,,,,,,,,,,,,,,,,,,,,,,,,,,,,,,,,,,,,,,,,,,,,,,,,,,,,,,,,,,,,,,,,,,,,,,,,,,,,,,,,,,,,,,,,,,,,,,,,,,,,,,,,,,,,,,,,,,,,,,,,,,,,,,,,,,,,,
0,44,44,87,1,,5e722b8cffc65d01103bbc8a,629c523699299cb1d11838ab,2022-06-05_08h51.03.281,Colour_Asymmetry_Pilot,2022.1.3,Win32,60.9236018,629c4b6caf241d5e6e00bfc0,,,,,,,,,,,,,,,,,,,,,,,,,,,,,,,,,,,,,,,,,,,,,,,,,,,,,,,,,,,,,,,,,,,,,,,,,,,,,,,,,,,,,,,,,,,,,,,,,,,,,,,,,,,,,,,,,,,,,,,,,,,,,,,,,,,,,,,,,,,,,,,,,,
0,45,45,80,1,,5e722b8cffc65d01103bbc8a,629c523699299cb1d11838ab,2022-06-05_08h51.03.281,Colour_Asymmetry_Pilot,2022.1.3,Win32,60.9236018,629c4b6caf241d5e6e00bfc0,,,,,,,,,,,,,,,,,,,,,,,,,,,,,,,,,,,,,,,,,,,,,,,,,,,,,,,,,,,,,,,,,,,,,,,,,,,,,,,,,,,,,,,,,,,,,,,,,,,,,,,,,,,,,,,,,,,,,,,,,,,,,,,,,,,,,,,,,,,,,,,,,,
0,46,46,6,1,,5e722b8cffc65d01103bbc8a,629c523699299cb1d11838ab,2022-06-05_08h51.03.281,Colour_Asymmetry_Pilot,2022.1.3,Win32,60.9236018,629c4b6caf241d5e6e00bfc0,,,,,,,,,,,,,,,,,,,,,,,,,,,,,,,,,,,,,,,,,,,,,,,,,,,,,,,,,,,,,,,,,,,,,,,,,,,,,,,,,,,,,,,,,,,,,,,,,,,,,,,,,,,,,,,,,,,,,,,,,,,,,,,,,,,,,,,,,,,,,,,,,,
0,47,47,32,1,,5e722b8cffc65d01103bbc8a,629c523699299cb1d11838ab,2022-06-05_08h51.03.281,Colour_Asymmetry_Pilot,2022.1.3,Win32,60.9236018,629c4b6caf241d5e6e00bfc0,,,,,,,,,,,,,,,,,,,,,,,,,,,,,,,,,,,,,,,,,,,,,,,,,,,,,,,,,,,,,,,,,,,,,,,,,,,,,,,,,,,,,,,,,,,,,,,,,,,,,,,,,,,,,,,,,,,,,,,,,,,,,,,,,,,,,,,,,,,,,,,,,,
0,48,48,71,1,,5e722b8cffc65d01103bbc8a,629c523699299cb1d11838ab,2022-06-05_08h51.03.281,Colour_Asymmetry_Pilot,2022.1.3,Win32,60.9236018,629c4b6caf241d5e6e00bfc0,,,,,,,,,,,,,,,,,,,,,,,,,,,,,,,,,,,,,,,,,,,,,,,,,,,,,,,,,,,,,,,,,,,,,,,,,,,,,,,,,,,,,,,,,,,,,,,,,,,,,,,,,,,,,,,,,,,,,,,,,,,,,,,,,,,,,,,,,,,,,,,,,,
0,49,49,39,1,,5e722b8cffc65d01103bbc8a,629c523699299cb1d11838ab,2022-06-05_08h51.03.281,Colour_Asymmetry_Pilot,2022.1.3,Win32,60.9236018,629c4b6caf241d5e6e00bfc0,,,,,,,,,,,,,,,,,,,,,,,,,,,,,,,,,,,,,,,,,,,,,,,,,,,,,,,,,,,,,,,,,,,,,,,,,,,,,,,,,,,,,,,,,,,,,,,,,,,,,,,,,,,,,,,,,,,,,,,,,,,,,,,,,,,,,,,,,,,,,,,,,,
0,50,50,4,1,,5e722b8cffc65d01103bbc8a,629c523699299cb1d11838ab,2022-06-05_08h51.03.281,Colour_Asymmetry_Pilot,2022.1.3,Win32,60.9236018,629c4b6caf241d5e6e00bfc0,,,,,,,,,,,,,,,,,,,,,,,,,,,,,,,,,,,,,,,,,,,,,,,,,,,,,,,,,,,,,,,,,,,,,,,,,,,,,,,,,,,,,,,,,,,,,,,,,,,,,,,,,,,,,,,,,,,,,,,,,,,,,,,,,,,,,,,,,,,,,,,,,,
0,51,51,38,1,,5e722b8cffc65d01103bbc8a,629c523699299cb1d11838ab,2022-06-05_08h51.03.281,Colour_Asymmetry_Pilot,2022.1.3,Win32,60.9236018,629c4b6caf241d5e6e00bfc0,,,,,,,,,,,,,,,,,,,,,,,,,,,,,,,,,,,,,,,,,,,,,,,,,,,,,,,,,,,,,,,,,,,,,,,,,,,,,,,,,,,,,,,,,,,,,,,,,,,,,,,,,,,,,,,,,,,,,,,,,,,,,,,,,,,,,,,,,,,,,,,,,,
0,52,52,44,1,,5e722b8cffc65d01103bbc8a,629c523699299cb1d11838ab,2022-06-05_08h51.03.281,Colour_Asymmetry_Pilot,2022.1.3,Win32,60.9236018,629c4b6caf241d5e6e00bfc0,,,,,,,,,,,,,,,,,,,,,,,,,,,,,,,,,,,,,,,,,,,,,,,,,,,,,,,,,,,,,,,,,,,,,,,,,,,,,,,,,,,,,,,,,,,,,,,,,,,,,,,,,,,,,,,,,,,,,,,,,,,,,,,,,,,,,,,,,,,,,,,,,,
0,53,53,42,1,,5e722b8cffc65d01103bbc8a,629c523699299cb1d11838ab,2022-06-05_08h51.03.281,Colour_Asymmetry_Pilot,2022.1.3,Win32,60.9236018,629c4b6caf241d5e6e00bfc0,,,,,,,,,,,,,,,,,,,,,,,,,,,,,,,,,,,,,,,,,,,,,,,,,,,,,,,,,,,,,,,,,,,,,,,,,,,,,,,,,,,,,,,,,,,,,,,,,,,,,,,,,,,,,,,,,,,,,,,,,,,,,,,,,,,,,,,,,,,,,,,,,,
0,54,54,2,1,,5e722b8cffc65d01103bbc8a,629c523699299cb1d11838ab,2022-06-05_08h51.03.281,Colour_Asymmetry_Pilot,2022.1.3,Win32,60.9236018,629c4b6caf241d5e6e00bfc0,,,,,,,,,,,,,,,,,,,,,,,,,,,,,,,,,,,,,,,,,,,,,,,,,,,,,,,,,,,,,,,,,,,,,,,,,,,,,,,,,,,,,,,,,,,,,,,,,,,,,,,,,,,,,,,,,,,,,,,,,,,,,,,,,,,,,,,,,,,,,,,,,,
0,55,55,78,1,,5e722b8cffc65d01103bbc8a,629c523699299cb1d11838ab,2022-06-05_08h51.03.281,Colour_Asymmetry_Pilot,2022.1.3,Win32,60.9236018,629c4b6caf241d5e6e00bfc0,,,,,,,,,,,,,,,,,,,,,,,,,,,,,,,,,,,,,,,,,,,,,,,,,,,,,,,,,,,,,,,,,,,,,,,,,,,,,,,,,,,,,,,,,,,,,,,,,,,,,,,,,,,,,,,,,,,,,,,,,,,,,,,,,,,,,,,,,,,,,,,,,,
0,56,56,24,1,,5e722b8cffc65d01103bbc8a,629c523699299cb1d11838ab,2022-06-05_08h51.03.281,Colour_Asymmetry_Pilot,2022.1.3,Win32,60.9236018,629c4b6caf241d5e6e00bfc0,,,,,,,,,,,,,,,,,,,,,,,,,,,,,,,,,,,,,,,,,,,,,,,,,,,,,,,,,,,,,,,,,,,,,,,,,,,,,,,,,,,,,,,,,,,,,,,,,,,,,,,,,,,,,,,,,,,,,,,,,,,,,,,,,,,,,,,,,,,,,,,,,,
0,57,57,62,1,,5e722b8cffc65d01103bbc8a,629c523699299cb1d11838ab,2022-06-05_08h51.03.281,Colour_Asymmetry_Pilot,2022.1.3,Win32,60.9236018,629c4b6caf241d5e6e00bfc0,,,,,,,,,,,,,,,,,,,,,,,,,,,,,,,,,,,,,,,,,,,,,,,,,,,,,,,,,,,,,,,,,,,,,,,,,,,,,,,,,,,,,,,,,,,,,,,,,,,,,,,,,,,,,,,,,,,,,,,,,,,,,,,,,,,,,,,,,,,,,,,,,,
0,58,58,1,1,,5e722b8cffc65d01103bbc8a,629c523699299cb1d11838ab,2022-06-05_08h51.03.281,Colour_Asymmetry_Pilot,2022.1.3,Win32,60.9236018,629c4b6caf241d5e6e00bfc0,,,,,,,,,,,,,,,,,,,,,,,,,,,,,,,,,,,,,,,,,,,,,,,,,,,,,,,,,,,,,,,,,,,,,,,,,,,,,,,,,,,,,,,,,,,,,,,,,,,,,,,,,,,,,,,,,,,,,,,,,,,,,,,,,,,,,,,,,,,,,,,,,,
0,59,59,55,1,,5e722b8cffc65d01103bbc8a,629c523699299cb1d11838ab,2022-06-05_08h51.03.281,Colour_Asymmetry_Pilot,2022.1.3,Win32,60.9236018,629c4b6caf241d5e6e00bfc0,,,,,,,,,,,,,,,,,,,,,,,,,,,,,,,,,,,,,,,,,,,,,,,,,,,,,,,,,,,,,,,,,,,,,,,,,,,,,,,,,,,,,,,,,,,,,,,,,,,,,,,,,,,,,,,,,,,,,,,,,,,,,,,,,,,,,,,,,,,,,,,,,,
0,60,60,29,1,,5e722b8cffc65d01103bbc8a,629c523699299cb1d11838ab,2022-06-05_08h51.03.281,Colour_Asymmetry_Pilot,2022.1.3,Win32,60.9236018,629c4b6caf241d5e6e00bfc0,,,,,,,,,,,,,,,,,,,,,,,,,,,,,,,,,,,,,,,,,,,,,,,,,,,,,,,,,,,,,,,,,,,,,,,,,,,,,,,,,,,,,,,,,,,,,,,,,,,,,,,,,,,,,,,,,,,,,,,,,,,,,,,,,,,,,,,,,,,,,,,,,,
0,61,61,7,1,,5e722b8cffc65d01103bbc8a,629c523699299cb1d11838ab,2022-06-05_08h51.03.281,Colour_Asymmetry_Pilot,2022.1.3,Win32,60.9236018,629c4b6caf241d5e6e00bfc0,,,,,,,,,,,,,,,,,,,,,,,,,,,,,,,,,,,,,,,,,,,,,,,,,,,,,,,,,,,,,,,,,,,,,,,,,,,,,,,,,,,,,,,,,,,,,,,,,,,,,,,,,,,,,,,,,,,,,,,,,,,,,,,,,,,,,,,,,,,,,,,,,,
0,62,62,15,1,,5e722b8cffc65d01103bbc8a,629c523699299cb1d11838ab,2022-06-05_08h51.03.281,Colour_Asymmetry_Pilot,2022.1.3,Win32,60.9236018,629c4b6caf241d5e6e00bfc0,,,,,,,,,,,,,,,,,,,,,,,,,,,,,,,,,,,,,,,,,,,,,,,,,,,,,,,,,,,,,,,,,,,,,,,,,,,,,,,,,,,,,,,,,,,,,,,,,,,,,,,,,,,,,,,,,,,,,,,,,,,,,,,,,,,,,,,,,,,,,,,,,,
0,63,63,88,1,,5e722b8cffc65d01103bbc8a,629c523699299cb1d11838ab,2022-06-05_08h51.03.281,Colour_Asymmetry_Pilot,2022.1.3,Win32,60.9236018,629c4b6caf241d5e6e00bfc0,,,,,,,,,,,,,,,,,,,,,,,,,,,,,,,,,,,,,,,,,,,,,,,,,,,,,,,,,,,,,,,,,,,,,,,,,,,,,,,,,,,,,,,,,,,,,,,,,,,,,,,,,,,,,,,,,,,,,,,,,,,,,,,,,,,,,,,,,,,,,,,,,,
0,64,64,28,1,,5e722b8cffc65d01103bbc8a,629c523699299cb1d11838ab,2022-06-05_08h51.03.281,Colour_Asymmetry_Pilot,2022.1.3,Win32,60.9236018,629c4b6caf241d5e6e00bfc0,,,,,,,,,,,,,,,,,,,,,,,,,,,,,,,,,,,,,,,,,,,,,,,,,,,,,,,,,,,,,,,,,,,,,,,,,,,,,,,,,,,,,,,,,,,,,,,,,,,,,,,,,,,,,,,,,,,,,,,,,,,,,,,,,,,,,,,,,,,,,,,,,,
0,65,65,13,1,,5e722b8cffc65d01103bbc8a,629c523699299cb1d11838ab,2022-06-05_08h51.03.281,Colour_Asymmetry_Pilot,2022.1.3,Win32,60.9236018,629c4b6caf241d5e6e00bfc0,,,,,,,,,,,,,,,,,,,,,,,,,,,,,,,,,,,,,,,,,,,,,,,,,,,,,,,,,,,,,,,,,,,,,,,,,,,,,,,,,,,,,,,,,,,,,,,,,,,,,,,,,,,,,,,,,,,,,,,,,,,,,,,,,,,,,,,,,,,,,,,,,,
0,66,66,90,1,,5e722b8cffc65d01103bbc8a,629c523699299cb1d11838ab,2022-06-05_08h51.03.281,Colour_Asymmetry_Pilot,2022.1.3,Win32,60.9236018,629c4b6caf241d5e6e00bfc0,,,,,,,,,,,,,,,,,,,,,,,,,,,,,,,,,,,,,,,,,,,,,,,,,,,,,,,,,,,,,,,,,,,,,,,,,,,,,,,,,,,,,,,,,,,,,,,,,,,,,,,,,,,,,,,,,,,,,,,,,,,,,,,,,,,,,,,,,,,,,,,,,,
0,67,67,61,1,,5e722b8cffc65d01103bbc8a,629c523699299cb1d11838ab,2022-06-05_08h51.03.281,Colour_Asymmetry_Pilot,2022.1.3,Win32,60.9236018,629c4b6caf241d5e6e00bfc0,,,,,,,,,,,,,,,,,,,,,,,,,,,,,,,,,,,,,,,,,,,,,,,,,,,,,,,,,,,,,,,,,,,,,,,,,,,,,,,,,,,,,,,,,,,,,,,,,,,,,,,,,,,,,,,,,,,,,,,,,,,,,,,,,,,,,,,,,,,,,,,,,,
0,68,68,26,1,,5e722b8cffc65d01103bbc8a,629c523699299cb1d11838ab,2022-06-05_08h51.03.281,Colour_Asymmetry_Pilot,2022.1.3,Win32,60.9236018,629c4b6caf241d5e6e00bfc0,,,,,,,,,,,,,,,,,,,,,,,,,,,,,,,,,,,,,,,,,,,,,,,,,,,,,,,,,,,,,,,,,,,,,,,,,,,,,,,,,,,,,,,,,,,,,,,,,,,,,,,,,,,,,,,,,,,,,,,,,,,,,,,,,,,,,,,,,,,,,,,,,,
0,69,69,47,1,,5e722b8cffc65d01103bbc8a,629c523699299cb1d11838ab,2022-06-05_08h51.03.281,Colour_Asymmetry_Pilot,2022.1.3,Win32,60.9236018,629c4b6caf241d5e6e00bfc0,,,,,,,,,,,,,,,,,,,,,,,,,,,,,,,,,,,,,,,,,,,,,,,,,,,,,,,,,,,,,,,,,,,,,,,,,,,,,,,,,,,,,,,,,,,,,,,,,,,,,,,,,,,,,,,,,,,,,,,,,,,,,,,,,,,,,,,,,,,,,,,,,,
0,70,70,31,1,,5e722b8cffc65d01103bbc8a,629c523699299cb1d11838ab,2022-06-05_08h51.03.281,Colour_Asymmetry_Pilot,2022.1.3,Win32,60.9236018,629c4b6caf241d5e6e00bfc0,,,,,,,,,,,,,,,,,,,,,,,,,,,,,,,,,,,,,,,,,,,,,,,,,,,,,,,,,,,,,,,,,,,,,,,,,,,,,,,,,,,,,,,,,,,,,,,,,,,,,,,,,,,,,,,,,,,,,,,,,,,,,,,,,,,,,,,,,,,,,,,,,,
0,71,71,57,1,,5e722b8cffc65d01103bbc8a,629c523699299cb1d11838ab,2022-06-05_08h51.03.281,Colour_Asymmetry_Pilot,2022.1.3,Win32,60.9236018,629c4b6caf241d5e6e00bfc0,,,,,,,,,,,,,,,,,,,,,,,,,,,,,,,,,,,,,,,,,,,,,,,,,,,,,,,,,,,,,,,,,,,,,,,,,,,,,,,,,,,,,,,,,,,,,,,,,,,,,,,,,,,,,,,,,,,,,,,,,,,,,,,,,,,,,,,,,,,,,,,,,,
0,72,72,68,1,,5e722b8cffc65d01103bbc8a,629c523699299cb1d11838ab,2022-06-05_08h51.03.281,Colour_Asymmetry_Pilot,2022.1.3,Win32,60.9236018,629c4b6caf241d5e6e00bfc0,,,,,,,,,,,,,,,,,,,,,,,,,,,,,,,,,,,,,,,,,,,,,,,,,,,,,,,,,,,,,,,,,,,,,,,,,,,,,,,,,,,,,,,,,,,,,,,,,,,,,,,,,,,,,,,,,,,,,,,,,,,,,,,,,,,,,,,,,,,,,,,,,,
0,73,73,20,1,,5e722b8cffc65d01103bbc8a,629c523699299cb1d11838ab,2022-06-05_08h51.03.281,Colour_Asymmetry_Pilot,2022.1.3,Win32,60.9236018,629c4b6caf241d5e6e00bfc0,,,,,,,,,,,,,,,,,,,,,,,,,,,,,,,,,,,,,,,,,,,,,,,,,,,,,,,,,,,,,,,,,,,,,,,,,,,,,,,,,,,,,,,,,,,,,,,,,,,,,,,,,,,,,,,,,,,,,,,,,,,,,,,,,,,,,,,,,,,,,,,,,,
0,74,74,36,1,,5e722b8cffc65d01103bbc8a,629c523699299cb1d11838ab,2022-06-05_08h51.03.281,Colour_Asymmetry_Pilot,2022.1.3,Win32,60.9236018,629c4b6caf241d5e6e00bfc0,,,,,,,,,,,,,,,,,,,,,,,,,,,,,,,,,,,,,,,,,,,,,,,,,,,,,,,,,,,,,,,,,,,,,,,,,,,,,,,,,,,,,,,,,,,,,,,,,,,,,,,,,,,,,,,,,,,,,,,,,,,,,,,,,,,,,,,,,,,,,,,,,,
0,75,75,52,1,,5e722b8cffc65d01103bbc8a,629c523699299cb1d11838ab,2022-06-05_08h51.03.281,Colour_Asymmetry_Pilot,2022.1.3,Win32,60.9236018,629c4b6caf241d5e6e00bfc0,,,,,,,,,,,,,,,,,,,,,,,,,,,,,,,,,,,,,,,,,,,,,,,,,,,,,,,,,,,,,,,,,,,,,,,,,,,,,,,,,,,,,,,,,,,,,,,,,,,,,,,,,,,,,,,,,,,,,,,,,,,,,,,,,,,,,,,,,,,,,,,,,,
0,76,76,0,1,,5e722b8cffc65d01103bbc8a,629c523699299cb1d11838ab,2022-06-05_08h51.03.281,Colour_Asymmetry_Pilot,2022.1.3,Win32,60.9236018,629c4b6caf241d5e6e00bfc0,,,,,,,,,,,,,,,,,,,,,,,,,,,,,,,,,,,,,,,,,,,,,,,,,,,,,,,,,,,,,,,,,,,,,,,,,,,,,,,,,,,,,,,,,,,,,,,,,,,,,,,,,,,,,,,,,,,,,,,,,,,,,,,,,,,,,,,,,,,,,,,,,,
0,77,77,60,1,,5e722b8cffc65d01103bbc8a,629c523699299cb1d11838ab,2022-06-05_08h51.03.281,Colour_Asymmetry_Pilot,2022.1.3,Win32,60.9236018,629c4b6caf241d5e6e00bfc0,,,,,,,,,,,,,,,,,,,,,,,,,,,,,,,,,,,,,,,,,,,,,,,,,,,,,,,,,,,,,,,,,,,,,,,,,,,,,,,,,,,,,,,,,,,,,,,,,,,,,,,,,,,,,,,,,,,,,,,,,,,,,,,,,,,,,,,,,,,,,,,,,,
0,78,78,3,1,,5e722b8cffc65d01103bbc8a,629c523699299cb1d11838ab,2022-06-05_08h51.03.281,Colour_Asymmetry_Pilot,2022.1.3,Win32,60.9236018,629c4b6caf241d5e6e00bfc0,,,,,,,,,,,,,,,,,,,,,,,,,,,,,,,,,,,,,,,,,,,,,,,,,,,,,,,,,,,,,,,,,,,,,,,,,,,,,,,,,,,,,,,,,,,,,,,,,,,,,,,,,,,,,,,,,,,,,,,,,,,,,,,,,,,,,,,,,,,,,,,,,,
0,79,79,82,1,,5e722b8cffc65d01103bbc8a,629c523699299cb1d11838ab,2022-06-05_08h51.03.281,Colour_Asymmetry_Pilot,2022.1.3,Win32,60.9236018,629c4b6caf241d5e6e00bfc0,,,,,,,,,,,,,,,,,,,,,,,,,,,,,,,,,,,,,,,,,,,,,,,,,,,,,,,,,,,,,,,,,,,,,,,,,,,,,,,,,,,,,,,,,,,,,,,,,,,,,,,,,,,,,,,,,,,,,,,,,,,,,,,,,,,,,,,,,,,,,,,,,,
0,80,80,79,1,,5e722b8cffc65d01103bbc8a,629c523699299cb1d11838ab,2022-06-05_08h51.03.281,Colour_Asymmetry_Pilot,2022.1.3,Win32,60.9236018,629c4b6caf241d5e6e00bfc0,,,,,,,,,,,,,,,,,,,,,,,,,,,,,,,,,,,,,,,,,,,,,,,,,,,,,,,,,,,,,,,,,,,,,,,,,,,,,,,,,,,,,,,,,,,,,,,,,,,,,,,,,,,,,,,,,,,,,,,,,,,,,,,,,,,,,,,,,,,,,,,,,,
0,81,81,74,1,,5e722b8cffc65d01103bbc8a,629c523699299cb1d11838ab,2022-06-05_08h51.03.281,Colour_Asymmetry_Pilot,2022.1.3,Win32,60.9236018,629c4b6caf241d5e6e00bfc0,,,,,,,,,,,,,,,,,,,,,,,,,,,,,,,,,,,,,,,,,,,,,,,,,,,,,,,,,,,,,,,,,,,,,,,,,,,,,,,,,,,,,,,,,,,,,,,,,,,,,,,,,,,,,,,,,,,,,,,,,,,,,,,,,,,,,,,,,,,,,,,,,,
0,82,82,17,1,,5e722b8cffc65d01103bbc8a,629c523699299cb1d11838ab,2022-06-05_08h51.03.281,Colour_Asymmetry_Pilot,2022.1.3,Win32,60.9236018,629c4b6caf241d5e6e00bfc0,,,,,,,,,,,,,,,,,,,,,,,,,,,,,,,,,,,,,,,,,,,,,,,,,,,,,,,,,,,,,,,,,,,,,,,,,,,,,,,,,,,,,,,,,,,,,,,,,,,,,,,,,,,,,,,,,,,,,,,,,,,,,,,,,,,,,,,,,,,,,,,,,,
0,83,83,73,1,,5e722b8cffc65d01103bbc8a,629c523699299cb1d11838ab,2022-06-05_08h51.03.281,Colour_Asymmetry_Pilot,2022.1.3,Win32,60.9236018,629c4b6caf241d5e6e00bfc0,,,,,,,,,,,,,,,,,,,,,,,,,,,,,,,,,,,,,,,,,,,,,,,,,,,,,,,,,,,,,,,,,,,,,,,,,,,,,,,,,,,,,,,,,,,,,,,,,,,,,,,,,,,,,,,,,,,,,,,,,,,,,,,,,,,,,,,,,,,,,,,,,,
0,84,84,22,1,,5e722b8cffc65d01103bbc8a,629c523699299cb1d11838ab,2022-06-05_08h51.03.281,Colour_Asymmetry_Pilot,2022.1.3,Win32,60.9236018,629c4b6caf241d5e6e00bfc0,,,,,,,,,,,,,,,,,,,,,,,,,,,,,,,,,,,,,,,,,,,,,,,,,,,,,,,,,,,,,,,,,,,,,,,,,,,,,,,,,,,,,,,,,,,,,,,,,,,,,,,,,,,,,,,,,,,,,,,,,,,,,,,,,,,,,,,,,,,,,,,,,,
0,85,85,14,1,,5e722b8cffc65d01103bbc8a,629c523699299cb1d11838ab,2022-06-05_08h51.03.281,Colour_Asymmetry_Pilot,2022.1.3,Win32,60.9236018,629c4b6caf241d5e6e00bfc0,,,,,,,,,,,,,,,,,,,,,,,,,,,,,,,,,,,,,,,,,,,,,,,,,,,,,,,,,,,,,,,,,,,,,,,,,,,,,,,,,,,,,,,,,,,,,,,,,,,,,,,,,,,,,,,,,,,,,,,,,,,,,,,,,,,,,,,,,,,,,,,,,,
0,86,86,92,1,,5e722b8cffc65d01103bbc8a,629c523699299cb1d11838ab,2022-06-05_08h51.03.281,Colour_Asymmetry_Pilot,2022.1.3,Win32,60.9236018,629c4b6caf241d5e6e00bfc0,,,,,,,,,,,,,,,,,,,,,,,,,,,,,,,,,,,,,,,,,,,,,,,,,,,,,,,,,,,,,,,,,,,,,,,,,,,,,,,,,,,,,,,,,,,,,,,,,,,,,,,,,,,,,,,,,,,,,,,,,,,,,,,,,,,,,,,,,,,,,,,,,,
0,87,87,40,1,,5e722b8cffc65d01103bbc8a,629c523699299cb1d11838ab,2022-06-05_08h51.03.281,Colour_Asymmetry_Pilot,2022.1.3,Win32,60.9236018,629c4b6caf241d5e6e00bfc0,,,,,,,,,,,,,,,,,,,,,,,,,,,,,,,,,,,,,,,,,,,,,,,,,,,,,,,,,,,,,,,,,,,,,,,,,,,,,,,,,,,,,,,,,,,,,,,,,,,,,,,,,,,,,,,,,,,,,,,,,,,,,,,,,,,,,,,,,,,,,,,,,,
0,88,88,23,1,,5e722b8cffc65d01103bbc8a,629c523699299cb1d11838ab,2022-06-05_08h51.03.281,Colour_Asymmetry_Pilot,2022.1.3,Win32,60.9236018,629c4b6caf241d5e6e00bfc0,,,,,,,,,,,,,,,,,,,,,,,,,,,,,,,,,,,,,,,,,,,,,,,,,,,,,,,,,,,,,,,,,,,,,,,,,,,,,,,,,,,,,,,,,,,,,,,,,,,,,,,,,,,,,,,,,,,,,,,,,,,,,,,,,,,,,,,,,,,,,,,,,,
0,89,89,56,1,,5e722b8cffc65d01103bbc8a,629c523699299cb1d11838ab,2022-06-05_08h51.03.281,Colour_Asymmetry_Pilot,2022.1.3,Win32,60.9236018,629c4b6caf241d5e6e00bfc0,,,,,,,,,,,,,,,,,,,,,,,,,,,,,,,,,,,,,,,,,,,,,,,,,,,,,,,,,,,,,,,,,,,,,,,,,,,,,,,,,,,,,,,,,,,,,,,,,,,,,,,,,,,,,,,,,,,,,,,,,,,,,,,,,,,,,,,,,,,,,,,,,,
0,90,90,63,1,,5e722b8cffc65d01103bbc8a,629c523699299cb1d11838ab,2022-06-05_08h51.03.281,Colour_Asymmetry_Pilot,2022.1.3,Win32,60.9236018,629c4b6caf241d5e6e00bfc0,,,,,,,,,,,,,,,,,,,,,,,,,,,,,,,,,,,,,,,,,,,,,,,,,,,,,,,,,,,,,,,,,,,,,,,,,,,,,,,,,,,,,,,,,,,,,,,,,,,,,,,,,,,,,,,,,,,,,,,,,,,,,,,,,,,,,,,,,,,,,,,,,,
0,91,91,25,1,,5e722b8cffc65d01103bbc8a,629c523699299cb1d11838ab,2022-06-05_08h51.03.281,Colour_Asymmetry_Pilot,2022.1.3,Win32,60.9236018,629c4b6caf241d5e6e00bfc0,,,,,,,,,,,,,,,,,,,,,,,,,,,,,,,,,,,,,,,,,,,,,,,,,,,,,,,,,,,,,,,,,,,,,,,,,,,,,,,,,,,,,,,,,,,,,,,,,,,,,,,,,,,,,,,,,,,,,,,,,,,,,,,,,,,,,,,,,,,,,,,,,,
0,92,92,46,1,,5e722b8cffc65d01103bbc8a,629c523699299cb1d11838ab,2022-06-05_08h51.03.281,Colour_Asymmetry_Pilot,2022.1.3,Win32,60.9236018,629c4b6caf241d5e6e00bfc0,,,,,,,,,,,,,,,,,,,,,,,,,,,,,,,,,,,,,,,,,,,,,,,,,,,,,,,,,,,,,,,,,,,,,,,,,,,,,,,,,,,,,,,,,,,,,,,,,,,,,,,,,,,,,,,,,,,,,,,,,,,,,,,,,,,,,,,,,,,,,,,,,,
,,,,,,5e722b8cffc65d01103bbc8a,629c523699299cb1d11838ab,2022-06-05_08h51.03.281,Colour_Asymmetry_Pilot,2022.1.3,Win32,60.9236018,629c4b6caf241d5e6e00bfc0,0,0,0,9,1,onethree,,,,,,,,,,,,,,,,,,,,,,,,,,,,,,,,,,,,,,,,,,,,,,,,,,,,,,,,,,,,,,,,,,,,,,,,,,,,,,,,,,,,,,,,,,,,,,,,,,,,,,,,,,,,,,,,,,,,,,,,,,,,,,,,,,,,,,,,,,,,
,,,,,,5e722b8cffc65d01103bbc8a,629c523699299cb1d11838ab,2022-06-05_08h51.03.281,Colour_Asymmetry_Pilot,2022.1.3,Win32,60.9236018,629c4b6caf241d5e6e00bfc0,0,1,1,50,1,twoone,,,,,,,,,,,,,,,,,,,,,,,,,,,,,,,,,,,,,,,,,,,,,,,,,,,,,,,,,,,,,,,,,,,,,,,,,,,,,,,,,,,,,,,,,,,,,,,,,,,,,,,,,,,,,,,,,,,,,,,,,,,,,,,,,,,,,,,,,,,,
,,,,,,5e722b8cffc65d01103bbc8a,629c523699299cb1d11838ab,2022-06-05_08h51.03.281,Colour_Asymmetry_Pilot,2022.1.3,Win32,60.9236018,629c4b6caf241d5e6e00bfc0,0,2,2,26,1,twoone,,,,,,,,,,,,,,,,,,,,,,,,,,,,,,,,,,,,,,,,,,,,,,,,,,,,,,,,,,,,,,,,,,,,,,,,,,,,,,,,,,,,,,,,,,,,,,,,,,,,,,,,,,,,,,,,,,,,,,,,,,,,,,,,,,,,,,,,,,,,
,,,,,,5e722b8cffc65d01103bbc8a,629c523699299cb1d11838ab,2022-06-05_08h51.03.281,Colour_Asymmetry_Pilot,2022.1.3,Win32,60.9236018,629c4b6caf241d5e6e00bfc0,0,3,3,56,1,onetwo,,,,,,,,,,,,,,,,,,,,,,,,,,,,,,,,,,,,,,,,,,,,,,,,,,,,,,,,,,,,,,,,,,,,,,,,,,,,,,,,,,,,,,,,,,,,,,,,,,,,,,,,,,,,,,,,,,,,,,,,,,,,,,,,,,,,,,,,,,,,
,,,,,,5e722b8cffc65d01103bbc8a,629c523699299cb1d11838ab,2022-06-05_08h51.03.281,Colour_Asymmetry_Pilot,2022.1.3,Win32,60.9236018,629c4b6caf241d5e6e00bfc0,0,4,4,41,1,onethree,,,,,,,,,,,,,,,,,,,,,,,,,,,,,,,,,,,,,,,,,,,,,,,,,,,,,,,,,,,,,,,,,,,,,,,,,,,,,,,,,,,,,,,,,,,,,,,,,,,,,,,,,,,,,,,,,,,,,,,,,,,,,,,,,,,,,,,,,,,,
,,,,,,5e722b8cffc65d01103bbc8a,629c523699299cb1d11838ab,2022-06-05_08h51.03.281,Colour_Asymmetry_Pilot,2022.1.3,Win32,60.9236018,629c4b6caf241d5e6e00bfc0,0,5,5,90,1,twoone,,,,,,,,,,,,,,,,,,,,,,,,,,,,,,,,,,,,,,,,,,,,,,,,,,,,,,,,,,,,,,,,,,,,,,,,,,,,,,,,,,,,,,,,,,,,,,,,,,,,,,,,,,,,,,,,,,,,,,,,,,,,,,,,,,,,,,,,,,,,
,,,,,,5e722b8cffc65d01103bbc8a,629c523699299cb1d11838ab,2022-06-05_08h51.03.281,Colour_Asymmetry_Pilot,2022.1.3,Win32,60.9236018,629c4b6caf241d5e6e00bfc0,0,6,6,160,1,onetwo,,,,,,,,,,,,,,,,,,,,,,,,,,,,,,,,,,,,,,,,,,,,,,,,,,,,,,,,,,,,,,,,,,,,,,,,,,,,,,,,,,,,,,,,,,,,,,,,,,,,,,,,,,,,,,,,,,,,,,,,,,,,,,,,,,,,,,,,,,,,
,,,,,,5e722b8cffc65d01103bbc8a,629c523699299cb1d11838ab,2022-06-05_08h51.03.281,Colour_Asymmetry_Pilot,2022.1.3,Win32,60.9236018,629c4b6caf241d5e6e00bfc0,0,7,7,38,1,fourtwo,,,,,,,,,,,,,,,,,,,,,,,,,,,,,,,,,,,,,,,,,,,,,,,,,,,,,,,,,,,,,,,,,,,,,,,,,,,,,,,,,,,,,,,,,,,,,,,,,,,,,,,,,,,,,,,,,,,,,,,,,,,,,,,,,,,,,,,,,,,,
,,,,,,5e722b8cffc65d01103bbc8a,629c523699299cb1d11838ab,2022-06-05_08h51.03.281,Colour_Asymmetry_Pilot,2022.1.3,Win32,60.9236018,629c4b6caf241d5e6e00bfc0,0,8,8,30,1,fourtwo,,,,,,,,,,,,,,,,,,,,,,,,,,,,,,,,,,,,,,,,,,,,,,,,,,,,,,,,,,,,,,,,,,,,,,,,,,,,,,,,,,,,,,,,,,,,,,,,,,,,,,,,,,,,,,,,,,,,,,,,,,,,,,,,,,,,,,,,,,,,
,,,,,,5e722b8cffc65d01103bbc8a,629c523699299cb1d11838ab,2022-06-05_08h51.03.281,Colour_Asymmetry_Pilot,2022.1.3,Win32,60.9236018,629c4b6caf241d5e6e00bfc0,0,9,9,44,1,threeone,,,,,,,,,,,,,,,,,,,,,,,,,,,,,,,,,,,,,,,,,,,,,,,,,,,,,,,,,,,,,,,,,,,,,,,,,,,,,,,,,,,,,,,,,,,,,,,,,,,,,,,,,,,,,,,,,,,,,,,,,,,,,,,,,,,,,,,,,,,,
,,,,,,5e722b8cffc65d01103bbc8a,629c523699299cb1d11838ab,2022-06-05_08h51.03.281,Colour_Asymmetry_Pilot,2022.1.3,Win32,60.9236018,629c4b6caf241d5e6e00bfc0,0,10,10,124,1,threeone,,,,,,,,,,,,,,,,,,,,,,,,,,,,,,,,,,,,,,,,,,,,,,,,,,,,,,,,,,,,,,,,,,,,,,,,,,,,,,,,,,,,,,,,,,,,,,,,,,,,,,,,,,,,,,,,,,,,,,,,,,,,,,,,,,,,,,,,,,,,
,,,,,,5e722b8cffc65d01103bbc8a,629c523699299cb1d11838ab,2022-06-05_08h51.03.281,Colour_Asymmetry_Pilot,2022.1.3,Win32,60.9236018,629c4b6caf241d5e6e00bfc0,0,11,11,134,1,fourtwo,,,,,,,,,,,,,,,,,,,,,,,,,,,,,,,,,,,,,,,,,,,,,,,,,,,,,,,,,,,,,,,,,,,,,,,,,,,,,,,,,,,,,,,,,,,,,,,,,,,,,,,,,,,,,,,,,,,,,,,,,,,,,,,,,,,,,,,,,,,,
,,,,,,5e722b8cffc65d01103bbc8a,629c523699299cb1d11838ab,2022-06-05_08h51.03.281,Colour_Asymmetry_Pilot,2022.1.3,Win32,60.9236018,629c4b6caf241d5e6e00bfc0,0,12,12,64,1,onetwo,,,,,,,,,,,,,,,,,,,,,,,,,,,,,,,,,,,,,,,,,,,,,,,,,,,,,,,,,,,,,,,,,,,,,,,,,,,,,,,,,,,,,,,,,,,,,,,,,,,,,,,,,,,,,,,,,,,,,,,,,,,,,,,,,,,,,,,,,,,,
,,,,,,5e722b8cffc65d01103bbc8a,629c523699299cb1d11838ab,2022-06-05_08h51.03.281,Colour_Asymmetry_Pilot,2022.1.3,Win32,60.9236018,629c4b6caf241d5e6e00bfc0,0,13,13,67,1,twofour,,,,,,,,,,,,,,,,,,,,,,,,,,,,,,,,,,,,,,,,,,,,,,,,,,,,,,,,,,,,,,,,,,,,,,,,,,,,,,,,,,,,,,,,,,,,,,,,,,,,,,,,,,,,,,,,,,,,,,,,,,,,,,,,,,,,,,,,,,,,
,,,,,,5e722b8cffc65d01103bbc8a,629c523699299cb1d11838ab,2022-06-05_08h51.03.281,Colour_Asymmetry_Pilot,2022.1.3,Win32,60.9236018,629c4b6caf241d5e6e00bfc0,0,14,14,87,1,fourthree,,,,,,,,,,,,,,,,,,,,,,,,,,,,,,,,,,,,,,,,,,,,,,,,,,,,,,,,,,,,,,,,,,,,,,,,,,,,,,,,,,,,,,,,,,,,,,,,,,,,,,,,,,,,,,,,,,,,,,,,,,,,,,,,,,,,,,,,,,,,
,,,,,,5e722b8cffc65d01103bbc8a,629c523699299cb1d11838ab,2022-06-05_08h51.03.281,Colour_Asymmetry_Pilot,2022.1.3,Win32,60.9236018,629c4b6caf241d5e6e00bfc0,0,15,15,52,1,threeone,,,,,,,,,,,,,,,,,,,,,,,,,,,,,,,,,,,,,,,,,,,,,,,,,,,,,,,,,,,,,,,,,,,,,,,,,,,,,,,,,,,,,,,,,,,,,,,,,,,,,,,,,,,,,,,,,,,,,,,,,,,,,,,,,,,,,,,,,,,,
,,,,,,5e722b8cffc65d01103bbc8a,629c523699299cb1d11838ab,2022-06-05_08h51.03.281,Colour_Asymmetry_Pilot,2022.1.3,Win32,60.9236018,629c4b6caf241d5e6e00bfc0,0,16,16,53,1,threefour,,,,,,,,,,,,,,,,,,,,,,,,,,,,,,,,,,,,,,,,,,,,,,,,,,,,,,,,,,,,,,,,,,,,,,,,,,,,,,,,,,,,,,,,,,,,,,,,,,,,,,,,,,,,,,,,,,,,,,,,,,,,,,,,,,,,,,,,,,,,
,,,,,,5e722b8cffc65d01103bbc8a,629c523699299cb1d11838ab,2022-06-05_08h51.03.281,Colour_Asymmetry_Pilot,2022.1.3,Win32,60.9236018,629c4b6caf241d5e6e00bfc0,0,17,17,72,1,onetwo,,,,,,,,,,,,,,,,,,,,,,,,,,,,,,,,,,,,,,,,,,,,,,,,,,,,,,,,,,,,,,,,,,,,,,,,,,,,,,,,,,,,,,,,,,,,,,,,,,,,,,,,,,,,,,,,,,,,,,,,,,,,,,,,,,,,,,,,,,,,
,,,,,,5e722b8cffc65d01103bbc8a,629c523699299cb1d11838ab,2022-06-05_08h51.03.281,Colour_Asymmetry_Pilot,2022.1.3,Win32,60.9236018,629c4b6caf241d5e6e00bfc0,0,18,18,89,1,onethree,,,,,,,,,,,,,,,,,,,,,,,,,,,,,,,,,,,,,,,,,,,,,,,,,,,,,,,,,,,,,,,,,,,,,,,,,,,,,,,,,,,,,,,,,,,,,,,,,,,,,,,,,,,,,,,,,,,,,,,,,,,,,,,,,,,,,,,,,,,,
,,,,,,5e722b8cffc65d01103bbc8a,629c523699299cb1d11838ab,2022-06-05_08h51.03.281,Colour_Asymmetry_Pilot,2022.1.3,Win32,60.9236018,629c4b6caf241d5e6e00bfc0,0,19,19,61,1,threefour,,,,,,,,,,,,,,,,,,,,,,,,,,,,,,,,,,,,,,,,,,,,,,,,,,,,,,,,,,,,,,,,,,,,,,,,,,,,,,,,,,,,,,,,,,,,,,,,,,,,,,,,,,,,,,,,,,,,,,,,,,,,,,,,,,,,,,,,,,,,
,,,,,,5e722b8cffc65d01103bbc8a,629c523699299cb1d11838ab,2022-06-05_08h51.03.281,Colour_Asymmetry_Pilot,2022.1.3,Win32,60.9236018,629c4b6caf241d5e6e00bfc0,0,20,20,93,1,threefour,,,,,,,,,,,,,,,,,,,,,,,,,,,,,,,,,,,,,,,,,,,,,,,,,,,,,,,,,,,,,,,,,,,,,,,,,,,,,,,,,,,,,,,,,,,,,,,,,,,,,,,,,,,,,,,,,,,,,,,,,,,,,,,,,,,,,,,,,,,,
,,,,,,5e722b8cffc65d01103bbc8a,629c523699299cb1d11838ab,2022-06-05_08h51.03.281,Colour_Asymmetry_Pilot,2022.1.3,Win32,60.9236018,629c4b6caf241d5e6e00bfc0,0,21,21,131,1,twofour,,,,,,,,,,,,,,,,,,,,,,,,,,,,,,,,,,,,,,,,,,,,,,,,,,,,,,,,,,,,,,,,,,,,,,,,,,,,,,,,,,,,,,,,,,,,,,,,,,,,,,,,,,,,,,,,,,,,,,,,,,,,,,,,,,,,,,,,,,,,
,,,,,,5e722b8cffc65d01103bbc8a,629c523699299cb1d11838ab,2022-06-05_08h51.03.281,Colour_Asymmetry_Pilot,2022.1.3,Win32,60.9236018,629c4b6caf241d5e6e00bfc0,0,22,22,103,1,fourthree,,,,,,,,,,,,,,,,,,,,,,,,,,,,,,,,,,,,,,,,,,,,,,,,,,,,,,,,,,,,,,,,,,,,,,,,,,,,,,,,,,,,,,,,,,,,,,,,,,,,,,,,,,,,,,,,,,,,,,,,,,,,,,,,,,,,,,,,,,,,
,,,,,,5e722b8cffc65d01103bbc8a,629c523699299cb1d11838ab,2022-06-05_08h51.03.281,Colour_Asymmetry_Pilot,2022.1.3,Win32,60.9236018,629c4b6caf241d5e6e00bfc0,0,23,23,22,1,fourtwo,,,,,,,,,,,,,,,,,,,,,,,,,,,,,,,,,,,,,,,,,,,,,,,,,,,,,,,,,,,,,,,,,,,,,,,,,,,,,,,,,,,,,,,,,,,,,,,,,,,,,,,,,,,,,,,,,,,,,,,,,,,,,,,,,,,,,,,,,,,,
,,,,,,5e722b8cffc65d01103bbc8a,629c523699299cb1d11838ab,2022-06-05_08h51.03.281,Colour_Asymmetry_Pilot,2022.1.3,Win32,60.9236018,629c4b6caf241d5e6e00bfc0,0,24,24,21,1,threefour,,,,,,,,,,,,,,,,,,,,,,,,,,,,,,,,,,,,,,,,,,,,,,,,,,,,,,,,,,,,,,,,,,,,,,,,,,,,,,,,,,,,,,,,,,,,,,,,,,,,,,,,,,,,,,,,,,,,,,,,,,,,,,,,,,,,,,,,,,,,
,,,,,,5e722b8cffc65d01103bbc8a,629c523699299cb1d11838ab,2022-06-05_08h51.03.281,Colour_Asymmetry_Pilot,2022.1.3,Win32,60.9236018,629c4b6caf241d5e6e00bfc0,0,25,25,34,1,twoone,,,,,,,,,,,,,,,,,,,,,,,,,,,,,,,,,,,,,,,,,,,,,,,,,,,,,,,,,,,,,,,,,,,,,,,,,,,,,,,,,,,,,,,,,,,,,,,,,,,,,,,,,,,,,,,,,,,,,,,,,,,,,,,,,,,,,,,,,,,,
,,,,,,5e722b8cffc65d01103bbc8a,629c523699299cb1d11838ab,2022-06-05_08h51.03.281,Colour_Asymmetry_Pilot,2022.1.3,Win32,60.9236018,629c4b6caf241d5e6e00bfc0,0,26,26,140,1,threeone,,,,,,,,,,,,,,,,,,,,,,,,,,,,,,,,,,,,,,,,,,,,,,,,,,,,,,,,,,,,,,,,,,,,,,,,,,,,,,,,,,,,,,,,,,,,,,,,,,,,,,,,,,,,,,,,,,,,,,,,,,,,,,,,,,,,,,,,,,,,
,,,,,,5e722b8cffc65d01103bbc8a,629c523699299cb1d11838ab,2022-06-05_08h51.03.281,Colour_Asymmetry_Pilot,2022.1.3,Win32,60.9236018,629c4b6caf241d5e6e00bfc0,0,27,27,96,1,onetwo,,,,,,,,,,,,,,,,,,,,,,,,,,,,,,,,,,,,,,,,,,,,,,,,,,,,,,,,,,,,,,,,,,,,,,,,,,,,,,,,,,,,,,,,,,,,,,,,,,,,,,,,,,,,,,,,,,,,,,,,,,,,,,,,,,,,,,,,,,,,
,,,,,,5e722b8cffc65d01103bbc8a,629c523699299cb1d11838ab,2022-06-05_08h51.03.281,Colour_Asymmetry_Pilot,2022.1.3,Win32,60.9236018,629c4b6caf241d5e6e00bfc0,0,28,28,13,1,threefour,,,,,,,,,,,,,,,,,,,,,,,,,,,,,,,,,,,,,,,,,,,,,,,,,,,,,,,,,,,,,,,,,,,,,,,,,,,,,,,,,,,,,,,,,,,,,,,,,,,,,,,,,,,,,,,,,,,,,,,,,,,,,,,,,,,,,,,,,,,,
,,,,,,5e722b8cffc65d01103bbc8a,629c523699299cb1d11838ab,2022-06-05_08h51.03.281,Colour_Asymmetry_Pilot,2022.1.3,Win32,60.9236018,629c4b6caf241d5e6e00bfc0,0,29,29,108,1,threeone,,,,,,,,,,,,,,,,,,,,,,,,,,,,,,,,,,,,,,,,,,,,,,,,,,,,,,,,,,,,,,,,,,,,,,,,,,,,,,,,,,,,,,,,,,,,,,,,,,,,,,,,,,,,,,,,,,,,,,,,,,,,,,,,,,,,,,,,,,,,
,,,,,,5e722b8cffc65d01103bbc8a,629c523699299cb1d11838ab,2022-06-05_08h51.03.281,Colour_Asymmetry_Pilot,2022.1.3,Win32,60.9236018,629c4b6caf241d5e6e00bfc0,0,30,30,112,1,onetwo,,,,,,,,,,,,,,,,,,,,,,,,,,,,,,,,,,,,,,,,,,,,,,,,,,,,,,,,,,,,,,,,,,,,,,,,,,,,,,,,,,,,,,,,,,,,,,,,,,,,,,,,,,,,,,,,,,,,,,,,,,,,,,,,,,,,,,,,,,,,
,,,,,,5e722b8cffc65d01103bbc8a,629c523699299cb1d11838ab,2022-06-05_08h51.03.281,Colour_Asymmetry_Pilot,2022.1.3,Win32,60.9236018,629c4b6caf241d5e6e00bfc0,0,31,31,31,1,fourthree,,,,,,,,,,,,,,,,,,,,,,,,,,,,,,,,,,,,,,,,,,,,,,,,,,,,,,,,,,,,,,,,,,,,,,,,,,,,,,,,,,,,,,,,,,,,,,,,,,,,,,,,,,,,,,,,,,,,,,,,,,,,,,,,,,,,,,,,,,,,
,,,,,,5e722b8cffc65d01103bbc8a,629c523699299cb1d11838ab,2022-06-05_08h51.03.281,Colour_Asymmetry_Pilot,2022.1.3,Win32,60.9236018,629c4b6caf241d5e6e00bfc0,0,32,32,145,1,onethree,,,,,,,,,,,,,,,,,,,,,,,,,,,,,,,,,,,,,,,,,,,,,,,,,,,,,,,,,,,,,,,,,,,,,,,,,,,,,,,,,,,,,,,,,,,,,,,,,,,,,,,,,,,,,,,,,,,,,,,,,,,,,,,,,,,,,,,,,,,,
,,,,,,5e722b8cffc65d01103bbc8a,629c523699299cb1d11838ab,2022-06-05_08h51.03.281,Colour_Asymmetry_Pilot,2022.1.3,Win32,60.9236018,629c4b6caf241d5e6e00bfc0,0,33,33,91,1,twofour,,,,,,,,,,,,,,,,,,,,,,,,,,,,,,,,,,,,,,,,,,,,,,,,,,,,,,,,,,,,,,,,,,,,,,,,,,,,,,,,,,,,,,,,,,,,,,,,,,,,,,,,,,,,,,,,,,,,,,,,,,,,,,,,,,,,,,,,,,,,
,,,,,,5e722b8cffc65d01103bbc8a,629c523699299cb1d11838ab,2022-06-05_08h51.03.281,Colour_Asymmetry_Pilot,2022.1.3,Win32,60.9236018,629c4b6caf241d5e6e00bfc0,0,34,34,142,1,fourtwo,,,,,,,,,,,,,,,,,,,,,,,,,,,,,,,,,,,,,,,,,,,,,,,,,,,,,,,,,,,,,,,,,,,,,,,,,,,,,,,,,,,,,,,,,,,,,,,,,,,,,,,,,,,,,,,,,,,,,,,,,,,,,,,,,,,,,,,,,,,,
,,,,,,5e722b8cffc65d01103bbc8a,629c523699299cb1d11838ab,2022-06-05_08h51.03.281,Colour_Asymmetry_Pilot,2022.1.3,Win32,60.9236018,629c4b6caf241d5e6e00bfc0,0,35,35,155,1,twofour,,,,,,,,,,,,,,,,,,,,,,,,,,,,,,,,,,,,,,,,,,,,,,,,,,,,,,,,,,,,,,,,,,,,,,,,,,,,,,,,,,,,,,,,,,,,,,,,,,,,,,,,,,,,,,,,,,,,,,,,,,,,,,,,,,,,,,,,,,,,
,,,,,,5e722b8cffc65d01103bbc8a,629c523699299cb1d11838ab,2022-06-05_08h51.03.281,Colour_Asymmetry_Pilot,2022.1.3,Win32,60.9236018,629c4b6caf241d5e6e00bfc0,0,36,36,135,1,fourthree,,,,,,,,,,,,,,,,,,,,,,,,,,,,,,,,,,,,,,,,,,,,,,,,,,,,,,,,,,,,,,,,,,,,,,,,,,,,,,,,,,,,,,,,,,,,,,,,,,,,,,,,,,,,,,,,,,,,,,,,,,,,,,,,,,,,,,,,,,,,
,,,,,,5e722b8cffc65d01103bbc8a,629c523699299cb1d11838ab,2022-06-05_08h51.03.281,Colour_Asymmetry_Pilot,2022.1.3,Win32,60.9236018,629c4b6caf241d5e6e00bfc0,0,37,37,48,1,onetwo,,,,,,,,,,,,,,,,,,,,,,,,,,,,,,,,,,,,,,,,,,,,,,,,,,,,,,,,,,,,,,,,,,,,,,,,,,,,,,,,,,,,,,,,,,,,,,,,,,,,,,,,,,,,,,,,,,,,,,,,,,,,,,,,,,,,,,,,,,,,
,,,,,,5e722b8cffc65d01103bbc8a,629c523699299cb1d11838ab,2022-06-05_08h51.03.281,Colour_Asymmetry_Pilot,2022.1.3,Win32,60.9236018,629c4b6caf241d5e6e00bfc0,0,38,38,33,1,onethree,,,,,,,,,,,,,,,,,,,,,,,,,,,,,,,,,,,,,,,,,,,,,,,,,,,,,,,,,,,,,,,,,,,,,,,,,,,,,,,,,,,,,,,,,,,,,,,,,,,,,,,,,,,,,,,,,,,,,,,,,,,,,,,,,,,,,,,,,,,,
,,,,,,5e722b8cffc65d01103bbc8a,629c523699299cb1d11838ab,2022-06-05_08h51.03.281,Colour_Asymmetry_Pilot,2022.1.3,Win32,60.9236018,629c4b6caf241d5e6e00bfc0,0,39,39,55,1,fourthree,,,,,,,,,,,,,,,,,,,,,,,,,,,,,,,,,,,,,,,,,,,,,,,,,,,,,,,,,,,,,,,,,,,,,,,,,,,,,,,,,,,,,,,,,,,,,,,,,,,,,,,,,,,,,,,,,,,,,,,,,,,,,,,,,,,,,,,,,,,,
,,,,,,5e722b8cffc65d01103bbc8a,629c523699299cb1d11838ab,2022-06-05_08h51.03.281,Colour_Asymmetry_Pilot,2022.1.3,Win32,60.9236018,629c4b6caf241d5e6e00bfc0,0,40,40,42,1,twoone,,,,,,,,,,,,,,,,,,,,,,,,,,,,,,,,,,,,,,,,,,,,,,,,,,,,,,,,,,,,,,,,,,,,,,,,,,,,,,,,,,,,,,,,,,,,,,,,,,,,,,,,,,,,,,,,,,,,,,,,,,,,,,,,,,,,,,,,,,,,
,,,,,,5e722b8cffc65d01103bbc8a,629c523699299cb1d11838ab,2022-06-05_08h51.03.281,Colour_Asymmetry_Pilot,2022.1.3,Win32,60.9236018,629c4b6caf241d5e6e00bfc0,0,41,41,36,1,threeone,,,,,,,,,,,,,,,,,,,,,,,,,,,,,,,,,,,,,,,,,,,,,,,,,,,,,,,,,,,,,,,,,,,,,,,,,,,,,,,,,,,,,,,,,,,,,,,,,,,,,,,,,,,,,,,,,,,,,,,,,,,,,,,,,,,,,,,,,,,,
,,,,,,5e722b8cffc65d01103bbc8a,629c523699299cb1d11838ab,2022-06-05_08h51.03.281,Colour_Asymmetry_Pilot,2022.1.3,Win32,60.9236018,629c4b6caf241d5e6e00bfc0,0,42,42,3,1,twofour,,,,,,,,,,,,,,,,,,,,,,,,,,,,,,,,,,,,,,,,,,,,,,,,,,,,,,,,,,,,,,,,,,,,,,,,,,,,,,,,,,,,,,,,,,,,,,,,,,,,,,,,,,,,,,,,,,,,,,,,,,,,,,,,,,,,,,,,,,,,
,,,,,,5e722b8cffc65d01103bbc8a,629c523699299cb1d11838ab,2022-06-05_08h51.03.281,Colour_Asymmetry_Pilot,2022.1.3,Win32,60.9236018,629c4b6caf241d5e6e00bfc0,0,43,43,68,1,threeone,,,,,,,,,,,,,,,,,,,,,,,,,,,,,,,,,,,,,,,,,,,,,,,,,,,,,,,,,,,,,,,,,,,,,,,,,,,,,,,,,,,,,,,,,,,,,,,,,,,,,,,,,,,,,,,,,,,,,,,,,,,,,,,,,,,,,,,,,,,,
,,,,,,5e722b8cffc65d01103bbc8a,629c523699299cb1d11838ab,2022-06-05_08h51.03.281,Colour_Asymmetry_Pilot,2022.1.3,Win32,60.9236018,629c4b6caf241d5e6e00bfc0,0,44,44,29,1,threefour,,,,,,,,,,,,,,,,,,,,,,,,,,,,,,,,,,,,,,,,,,,,,,,,,,,,,,,,,,,,,,,,,,,,,,,,,,,,,,,,,,,,,,,,,,,,,,,,,,,,,,,,,,,,,,,,,,,,,,,,,,,,,,,,,,,,,,,,,,,,
,,,,,,5e722b8cffc65d01103bbc8a,629c523699299cb1d11838ab,2022-06-05_08h51.03.281,Colour_Asymmetry_Pilot,2022.1.3,Win32,60.9236018,629c4b6caf241d5e6e00bfc0,0,45,45,80,1,onetwo,,,,,,,,,,,,,,,,,,,,,,,,,,,,,,,,,,,,,,,,,,,,,,,,,,,,,,,,,,,,,,,,,,,,,,,,,,,,,,,,,,,,,,,,,,,,,,,,,,,,,,,,,,,,,,,,,,,,,,,,,,,,,,,,,,,,,,,,,,,,
,,,,,,5e722b8cffc65d01103bbc8a,629c523699299cb1d11838ab,2022-06-05_08h51.03.281,Colour_Asymmetry_Pilot,2022.1.3,Win32,60.9236018,629c4b6caf241d5e6e00bfc0,0,46,46,0,1,onetwo,,,,,,,,,,,,,,,,,,,,,,,,,,,,,,,,,,,,,,,,,,,,,,,,,,,,,,,,,,,,,,,,,,,,,,,,,,,,,,,,,,,,,,,,,,,,,,,,,,,,,,,,,,,,,,,,,,,,,,,,,,,,,,,,,,,,,,,,,,,,
,,,,,,5e722b8cffc65d01103bbc8a,629c523699299cb1d11838ab,2022-06-05_08h51.03.281,Colour_Asymmetry_Pilot,2022.1.3,Win32,60.9236018,629c4b6caf241d5e6e00bfc0,0,47,47,66,1,twoone,,,,,,,,,,,,,,,,,,,,,,,,,,,,,,,,,,,,,,,,,,,,,,,,,,,,,,,,,,,,,,,,,,,,,,,,,,,,,,,,,,,,,,,,,,,,,,,,,,,,,,,,,,,,,,,,,,,,,,,,,,,,,,,,,,,,,,,,,,,,
,,,,,,5e722b8cffc65d01103bbc8a,629c523699299cb1d11838ab,2022-06-05_08h51.03.281,Colour_Asymmetry_Pilot,2022.1.3,Win32,60.9236018,629c4b6caf241d5e6e00bfc0,0,48,48,94,1,fourtwo,,,,,,,,,,,,,,,,,,,,,,,,,,,,,,,,,,,,,,,,,,,,,,,,,,,,,,,,,,,,,,,,,,,,,,,,,,,,,,,,,,,,,,,,,,,,,,,,,,,,,,,,,,,,,,,,,,,,,,,,,,,,,,,,,,,,,,,,,,,,
,,,,,,5e722b8cffc65d01103bbc8a,629c523699299cb1d11838ab,2022-06-05_08h51.03.281,Colour_Asymmetry_Pilot,2022.1.3,Win32,60.9236018,629c4b6caf241d5e6e00bfc0,0,49,49,111,1,fourthree,,,,,,,,,,,,,,,,,,,,,,,,,,,,,,,,,,,,,,,,,,,,,,,,,,,,,,,,,,,,,,,,,,,,,,,,,,,,,,,,,,,,,,,,,,,,,,,,,,,,,,,,,,,,,,,,,,,,,,,,,,,,,,,,,,,,,,,,,,,,
,,,,,,5e722b8cffc65d01103bbc8a,629c523699299cb1d11838ab,2022-06-05_08h51.03.281,Colour_Asymmetry_Pilot,2022.1.3,Win32,60.9236018,629c4b6caf241d5e6e00bfc0,0,50,50,144,1,onetwo,,,,,,,,,,,,,,,,,,,,,,,,,,,,,,,,,,,,,,,,,,,,,,,,,,,,,,,,,,,,,,,,,,,,,,,,,,,,,,,,,,,,,,,,,,,,,,,,,,,,,,,,,,,,,,,,,,,,,,,,,,,,,,,,,,,,,,,,,,,,
,,,,,,5e722b8cffc65d01103bbc8a,629c523699299cb1d11838ab,2022-06-05_08h51.03.281,Colour_Asymmetry_Pilot,2022.1.3,Win32,60.9236018,629c4b6caf241d5e6e00bfc0,0,51,51,92,1,threeone,,,,,,,,,,,,,,,,,,,,,,,,,,,,,,,,,,,,,,,,,,,,,,,,,,,,,,,,,,,,,,,,,,,,,,,,,,,,,,,,,,,,,,,,,,,,,,,,,,,,,,,,,,,,,,,,,,,,,,,,,,,,,,,,,,,,,,,,,,,,
,,,,,,5e722b8cffc65d01103bbc8a,629c523699299cb1d11838ab,2022-06-05_08h51.03.281,Colour_Asymmetry_Pilot,2022.1.3,Win32,60.9236018,629c4b6caf241d5e6e00bfc0,0,52,52,102,1,fourtwo,,,,,,,,,,,,,,,,,,,,,,,,,,,,,,,,,,,,,,,,,,,,,,,,,,,,,,,,,,,,,,,,,,,,,,,,,,,,,,,,,,,,,,,,,,,,,,,,,,,,,,,,,,,,,,,,,,,,,,,,,,,,,,,,,,,,,,,,,,,,
,,,,,,5e722b8cffc65d01103bbc8a,629c523699299cb1d11838ab,2022-06-05_08h51.03.281,Colour_Asymmetry_Pilot,2022.1.3,Win32,60.9236018,629c4b6caf241d5e6e00bfc0,0,53,53,110,1,fourtwo,,,,,,,,,,,,,,,,,,,,,,,,,,,,,,,,,,,,,,,,,,,,,,,,,,,,,,,,,,,,,,,,,,,,,,,,,,,,,,,,,,,,,,,,,,,,,,,,,,,,,,,,,,,,,,,,,,,,,,,,,,,,,,,,,,,,,,,,,,,,
,,,,,,5e722b8cffc65d01103bbc8a,629c523699299cb1d11838ab,2022-06-05_08h51.03.281,Colour_Asymmetry_Pilot,2022.1.3,Win32,60.9236018,629c4b6caf241d5e6e00bfc0,0,54,54,119,1,fourthree,,,,,,,,,,,,,,,,,,,,,,,,,,,,,,,,,,,,,,,,,,,,,,,,,,,,,,,,,,,,,,,,,,,,,,,,,,,,,,,,,,,,,,,,,,,,,,,,,,,,,,,,,,,,,,,,,,,,,,,,,,,,,,,,,,,,,,,,,,,,
,,,,,,5e722b8cffc65d01103bbc8a,629c523699299cb1d11838ab,2022-06-05_08h51.03.281,Colour_Asymmetry_Pilot,2022.1.3,Win32,60.9236018,629c4b6caf241d5e6e00bfc0,0,55,55,158,1,fourtwo,,,,,,,,,,,,,,,,,,,,,,,,,,,,,,,,,,,,,,,,,,,,,,,,,,,,,,,,,,,,,,,,,,,,,,,,,,,,,,,,,,,,,,,,,,,,,,,,,,,,,,,,,,,,,,,,,,,,,,,,,,,,,,,,,,,,,,,,,,,,
,,,,,,5e722b8cffc65d01103bbc8a,629c523699299cb1d11838ab,2022-06-05_08h51.03.281,Colour_Asymmetry_Pilot,2022.1.3,Win32,60.9236018,629c4b6caf241d5e6e00bfc0,0,56,56,62,1,fourtwo,,,,,,,,,,,,,,,,,,,,,,,,,,,,,,,,,,,,,,,,,,,,,,,,,,,,,,,,,,,,,,,,,,,,,,,,,,,,,,,,,,,,,,,,,,,,,,,,,,,,,,,,,,,,,,,,,,,,,,,,,,,,,,,,,,,,,,,,,,,,
,,,,,,5e722b8cffc65d01103bbc8a,629c523699299cb1d11838ab,2022-06-05_08h51.03.281,Colour_Asymmetry_Pilot,2022.1.3,Win32,60.9236018,629c4b6caf241d5e6e00bfc0,0,57,57,153,1,onethree,,,,,,,,,,,,,,,,,,,,,,,,,,,,,,,,,,,,,,,,,,,,,,,,,,,,,,,,,,,,,,,,,,,,,,,,,,,,,,,,,,,,,,,,,,,,,,,,,,,,,,,,,,,,,,,,,,,,,,,,,,,,,,,,,,,,,,,,,,,,
,,,,,,5e722b8cffc65d01103bbc8a,629c523699299cb1d11838ab,2022-06-05_08h51.03.281,Colour_Asymmetry_Pilot,2022.1.3,Win32,60.9236018,629c4b6caf241d5e6e00bfc0,0,58,58,63,1,fourthree,,,,,,,,,,,,,,,,,,,,,,,,,,,,,,,,,,,,,,,,,,,,,,,,,,,,,,,,,,,,,,,,,,,,,,,,,,,,,,,,,,,,,,,,,,,,,,,,,,,,,,,,,,,,,,,,,,,,,,,,,,,,,,,,,,,,,,,,,,,,
,,,,,,5e722b8cffc65d01103bbc8a,629c523699299cb1d11838ab,2022-06-05_08h51.03.281,Colour_Asymmetry_Pilot,2022.1.3,Win32,60.9236018,629c4b6caf241d5e6e00bfc0,0,59,59,73,1,onethree,,,,,,,,,,,,,,,,,,,,,,,,,,,,,,,,,,,,,,,,,,,,,,,,,,,,,,,,,,,,,,,,,,,,,,,,,,,,,,,,,,,,,,,,,,,,,,,,,,,,,,,,,,,,,,,,,,,,,,,,,,,,,,,,,,,,,,,,,,,,
,,,,,,5e722b8cffc65d01103bbc8a,629c523699299cb1d11838ab,2022-06-05_08h51.03.281,Colour_Asymmetry_Pilot,2022.1.3,Win32,60.9236018,629c4b6caf241d5e6e00bfc0,0,60,60,8,1,onetwo,,,,,,,,,,,,,,,,,,,,,,,,,,,,,,,,,,,,,,,,,,,,,,,,,,,,,,,,,,,,,,,,,,,,,,,,,,,,,,,,,,,,,,,,,,,,,,,,,,,,,,,,,,,,,,,,,,,,,,,,,,,,,,,,,,,,,,,,,,,,
,,,,,,5e722b8cffc65d01103bbc8a,629c523699299cb1d11838ab,2022-06-05_08h51.03.281,Colour_Asymmetry_Pilot,2022.1.3,Win32,60.9236018,629c4b6caf241d5e6e00bfc0,0,61,61,2,1,twoone,,,,,,,,,,,,,,,,,,,,,,,,,,,,,,,,,,,,,,,,,,,,,,,,,,,,,,,,,,,,,,,,,,,,,,,,,,,,,,,,,,,,,,,,,,,,,,,,,,,,,,,,,,,,,,,,,,,,,,,,,,,,,,,,,,,,,,,,,,,,
,,,,,,5e722b8cffc65d01103bbc8a,629c523699299cb1d11838ab,2022-06-05_08h51.03.281,Colour_Asymmetry_Pilot,2022.1.3,Win32,60.9236018,629c4b6caf241d5e6e00bfc0,0,62,62,49,1,onethree,,,,,,,,,,,,,,,,,,,,,,,,,,,,,,,,,,,,,,,,,,,,,,,,,,,,,,,,,,,,,,,,,,,,,,,,,,,,,,,,,,,,,,,,,,,,,,,,,,,,,,,,,,,,,,,,,,,,,,,,,,,,,,,,,,,,,,,,,,,,
,,,,,,5e722b8cffc65d01103bbc8a,629c523699299cb1d11838ab,2022-06-05_08h51.03.281,Colour_Asymmetry_Pilot,2022.1.3,Win32,60.9236018,629c4b6caf241d5e6e00bfc0,0,63,63,10,1,twoone,,,,,,,,,,,,,,,,,,,,,,,,,,,,,,,,,,,,,,,,,,,,,,,,,,,,,,,,,,,,,,,,,,,,,,,,,,,,,,,,,,,,,,,,,,,,,,,,,,,,,,,,,,,,,,,,,,,,,,,,,,,,,,,,,,,,,,,,,,,,
,,,,,,5e722b8cffc65d01103bbc8a,629c523699299cb1d11838ab,2022-06-05_08h51.03.281,Colour_Asymmetry_Pilot,2022.1.3,Win32,60.9236018,629c4b6caf241d5e6e00bfc0,0,64,64,136,1,onetwo,,,,,,,,,,,,,,,,,,,,,,,,,,,,,,,,,,,,,,,,,,,,,,,,,,,,,,,,,,,,,,,,,,,,,,,,,,,,,,,,,,,,,,,,,,,,,,,,,,,,,,,,,,,,,,,,,,,,,,,,,,,,,,,,,,,,,,,,,,,,
,,,,,,5e722b8cffc65d01103bbc8a,629c523699299cb1d11838ab,2022-06-05_08h51.03.281,Colour_Asymmetry_Pilot,2022.1.3,Win32,60.9236018,629c4b6caf241d5e6e00bfc0,0,65,65,5,1,threefour,,,,,,,,,,,,,,,,,,,,,,,,,,,,,,,,,,,,,,,,,,,,,,,,,,,,,,,,,,,,,,,,,,,,,,,,,,,,,,,,,,,,,,,,,,,,,,,,,,,,,,,,,,,,,,,,,,,,,,,,,,,,,,,,,,,,,,,,,,,,
,,,,,,5e722b8cffc65d01103bbc8a,629c523699299cb1d11838ab,2022-06-05_08h51.03.281,Colour_Asymmetry_Pilot,2022.1.3,Win32,60.9236018,629c4b6caf241d5e6e00bfc0,0,66,66,126,1,fourtwo,,,,,,,,,,,,,,,,,,,,,,,,,,,,,,,,,,,,,,,,,,,,,,,,,,,,,,,,,,,,,,,,,,,,,,,,,,,,,,,,,,,,,,,,,,,,,,,,,,,,,,,,,,,,,,,,,,,,,,,,,,,,,,,,,,,,,,,,,,,,
,,,,,,5e722b8cffc65d01103bbc8a,629c523699299cb1d11838ab,2022-06-05_08h51.03.281,Colour_Asymmetry_Pilot,2022.1.3,Win32,60.9236018,629c4b6caf241d5e6e00bfc0,0,67,67,77,1,threefour,,,,,,,,,,,,,,,,,,,,,,,,,,,,,,,,,,,,,,,,,,,,,,,,,,,,,,,,,,,,,,,,,,,,,,,,,,,,,,,,,,,,,,,,,,,,,,,,,,,,,,,,,,,,,,,,,,,,,,,,,,,,,,,,,,,,,,,,,,,,
,,,,,,5e722b8cffc65d01103bbc8a,629c523699299cb1d11838ab,2022-06-05_08h51.03.281,Colour_Asymmetry_Pilot,2022.1.3,Win32,60.9236018,629c4b6caf241d5e6e00bfc0,0,68,68,151,1,fourthree,,,,,,,,,,,,,,,,,,,,,,,,,,,,,,,,,,,,,,,,,,,,,,,,,,,,,,,,,,,,,,,,,,,,,,,,,,,,,,,,,,,,,,,,,,,,,,,,,,,,,,,,,,,,,,,,,,,,,,,,,,,,,,,,,,,,,,,,,,,,
,,,,,,5e722b8cffc65d01103bbc8a,629c523699299cb1d11838ab,2022-06-05_08h51.03.281,Colour_Asymmetry_Pilot,2022.1.3,Win32,60.9236018,629c4b6caf241d5e6e00bfc0,0,69,69,74,1,twoone,,,,,,,,,,,,,,,,,,,,,,,,,,,,,,,,,,,,,,,,,,,,,,,,,,,,,,,,,,,,,,,,,,,,,,,,,,,,,,,,,,,,,,,,,,,,,,,,,,,,,,,,,,,,,,,,,,,,,,,,,,,,,,,,,,,,,,,,,,,,
,,,,,,5e722b8cffc65d01103bbc8a,629c523699299cb1d11838ab,2022-06-05_08h51.03.281,Colour_Asymmetry_Pilot,2022.1.3,Win32,60.9236018,629c4b6caf241d5e6e00bfc0,0,70,70,86,1,fourtwo,,,,,,,,,,,,,,,,,,,,,,,,,,,,,,,,,,,,,,,,,,,,,,,,,,,,,,,,,,,,,,,,,,,,,,,,,,,,,,,,,,,,,,,,,,,,,,,,,,,,,,,,,,,,,,,,,,,,,,,,,,,,,,,,,,,,,,,,,,,,
,,,,,,5e722b8cffc65d01103bbc8a,629c523699299cb1d11838ab,2022-06-05_08h51.03.281,Colour_Asymmetry_Pilot,2022.1.3,Win32,60.9236018,629c4b6caf241d5e6e00bfc0,0,71,71,141,1,threefour,,,,,,,,,,,,,,,,,,,,,,,,,,,,,,,,,,,,,,,,,,,,,,,,,,,,,,,,,,,,,,,,,,,,,,,,,,,,,,,,,,,,,,,,,,,,,,,,,,,,,,,,,,,,,,,,,,,,,,,,,,,,,,,,,,,,,,,,,,,,
,,,,,,5e722b8cffc65d01103bbc8a,629c523699299cb1d11838ab,2022-06-05_08h51.03.281,Colour_Asymmetry_Pilot,2022.1.3,Win32,60.9236018,629c4b6caf241d5e6e00bfc0,0,72,72,100,1,threeone,,,,,,,,,,,,,,,,,,,,,,,,,,,,,,,,,,,,,,,,,,,,,,,,,,,,,,,,,,,,,,,,,,,,,,,,,,,,,,,,,,,,,,,,,,,,,,,,,,,,,,,,,,,,,,,,,,,,,,,,,,,,,,,,,,,,,,,,,,,,
,,,,,,5e722b8cffc65d01103bbc8a,629c523699299cb1d11838ab,2022-06-05_08h51.03.281,Colour_Asymmetry_Pilot,2022.1.3,Win32,60.9236018,629c4b6caf241d5e6e00bfc0,0,73,73,118,1,fourtwo,,,,,,,,,,,,,,,,,,,,,,,,,,,,,,,,,,,,,,,,,,,,,,,,,,,,,,,,,,,,,,,,,,,,,,,,,,,,,,,,,,,,,,,,,,,,,,,,,,,,,,,,,,,,,,,,,,,,,,,,,,,,,,,,,,,,,,,,,,,,
,,,,,,5e722b8cffc65d01103bbc8a,629c523699299cb1d11838ab,2022-06-05_08h51.03.281,Colour_Asymmetry_Pilot,2022.1.3,Win32,60.9236018,629c4b6caf241d5e6e00bfc0,0,74,74,60,1,threeone,,,,,,,,,,,,,,,,,,,,,,,,,,,,,,,,,,,,,,,,,,,,,,,,,,,,,,,,,,,,,,,,,,,,,,,,,,,,,,,,,,,,,,,,,,,,,,,,,,,,,,,,,,,,,,,,,,,,,,,,,,,,,,,,,,,,,,,,,,,,
,,,,,,5e722b8cffc65d01103bbc8a,629c523699299cb1d11838ab,2022-06-05_08h51.03.281,Colour_Asymmetry_Pilot,2022.1.3,Win32,60.9236018,629c4b6caf241d5e6e00bfc0,0,75,75,149,1,threefour,,,,,,,,,,,,,,,,,,,,,,,,,,,,,,,,,,,,,,,,,,,,,,,,,,,,,,,,,,,,,,,,,,,,,,,,,,,,,,,,,,,,,,,,,,,,,,,,,,,,,,,,,,,,,,,,,,,,,,,,,,,,,,,,,,,,,,,,,,,,
,,,,,,5e722b8cffc65d01103bbc8a,629c523699299cb1d11838ab,2022-06-05_08h51.03.281,Colour_Asymmetry_Pilot,2022.1.3,Win32,60.9236018,629c4b6caf241d5e6e00bfc0,0,76,76,139,1,twofour,,,,,,,,,,,,,,,,,,,,,,,,,,,,,,,,,,,,,,,,,,,,,,,,,,,,,,,,,,,,,,,,,,,,,,,,,,,,,,,,,,,,,,,,,,,,,,,,,,,,,,,,,,,,,,,,,,,,,,,,,,,,,,,,,,,,,,,,,,,,
,,,,,,5e722b8cffc65d01103bbc8a,629c523699299cb1d11838ab,2022-06-05_08h51.03.281,Colour_Asymmetry_Pilot,2022.1.3,Win32,60.9236018,629c4b6caf241d5e6e00bfc0,0,77,77,120,1,onetwo,,,,,,,,,,,,,,,,,,,,,,,,,,,,,,,,,,,,,,,,,,,,,,,,,,,,,,,,,,,,,,,,,,,,,,,,,,,,,,,,,,,,,,,,,,,,,,,,,,,,,,,,,,,,,,,,,,,,,,,,,,,,,,,,,,,,,,,,,,,,
,,,,,,5e722b8cffc65d01103bbc8a,629c523699299cb1d11838ab,2022-06-05_08h51.03.281,Colour_Asymmetry_Pilot,2022.1.3,Win32,60.9236018,629c4b6caf241d5e6e00bfc0,0,78,78,6,1,fourtwo,,,,,,,,,,,,,,,,,,,,,,,,,,,,,,,,,,,,,,,,,,,,,,,,,,,,,,,,,,,,,,,,,,,,,,,,,,,,,,,,,,,,,,,,,,,,,,,,,,,,,,,,,,,,,,,,,,,,,,,,,,,,,,,,,,,,,,,,,,,,
,,,,,,5e722b8cffc65d01103bbc8a,629c523699299cb1d11838ab,2022-06-05_08h51.03.281,Colour_Asymmetry_Pilot,2022.1.3,Win32,60.9236018,629c4b6caf241d5e6e00bfc0,0,79,79,97,1,onethree,,,,,,,,,,,,,,,,,,,,,,,,,,,,,,,,,,,,,,,,,,,,,,,,,,,,,,,,,,,,,,,,,,,,,,,,,,,,,,,,,,,,,,,,,,,,,,,,,,,,,,,,,,,,,,,,,,,,,,,,,,,,,,,,,,,,,,,,,,,,
,,,,,,5e722b8cffc65d01103bbc8a,629c523699299cb1d11838ab,2022-06-05_08h51.03.281,Colour_Asymmetry_Pilot,2022.1.3,Win32,60.9236018,629c4b6caf241d5e6e00bfc0,0,80,80,130,1,twoone,,,,,,,,,,,,,,,,,,,,,,,,,,,,,,,,,,,,,,,,,,,,,,,,,,,,,,,,,,,,,,,,,,,,,,,,,,,,,,,,,,,,,,,,,,,,,,,,,,,,,,,,,,,,,,,,,,,,,,,,,,,,,,,,,,,,,,,,,,,,
,,,,,,5e722b8cffc65d01103bbc8a,629c523699299cb1d11838ab,2022-06-05_08h51.03.281,Colour_Asymmetry_Pilot,2022.1.3,Win32,60.9236018,629c4b6caf241d5e6e00bfc0,0,81,81,32,1,onetwo,,,,,,,,,,,,,,,,,,,,,,,,,,,,,,,,,,,,,,,,,,,,,,,,,,,,,,,,,,,,,,,,,,,,,,,,,,,,,,,,,,,,,,,,,,,,,,,,,,,,,,,,,,,,,,,,,,,,,,,,,,,,,,,,,,,,,,,,,,,,
,,,,,,5e722b8cffc65d01103bbc8a,629c523699299cb1d11838ab,2022-06-05_08h51.03.281,Colour_Asymmetry_Pilot,2022.1.3,Win32,60.9236018,629c4b6caf241d5e6e00bfc0,0,82,82,99,1,twofour,,,,,,,,,,,,,,,,,,,,,,,,,,,,,,,,,,,,,,,,,,,,,,,,,,,,,,,,,,,,,,,,,,,,,,,,,,,,,,,,,,,,,,,,,,,,,,,,,,,,,,,,,,,,,,,,,,,,,,,,,,,,,,,,,,,,,,,,,,,,
,,,,,,5e722b8cffc65d01103bbc8a,629c523699299cb1d11838ab,2022-06-05_08h51.03.281,Colour_Asymmetry_Pilot,2022.1.3,Win32,60.9236018,629c4b6caf241d5e6e00bfc0,0,83,83,35,1,twofour,,,,,,,,,,,,,,,,,,,,,,,,,,,,,,,,,,,,,,,,,,,,,,,,,,,,,,,,,,,,,,,,,,,,,,,,,,,,,,,,,,,,,,,,,,,,,,,,,,,,,,,,,,,,,,,,,,,,,,,,,,,,,,,,,,,,,,,,,,,,
,,,,,,5e722b8cffc65d01103bbc8a,629c523699299cb1d11838ab,2022-06-05_08h51.03.281,Colour_Asymmetry_Pilot,2022.1.3,Win32,60.9236018,629c4b6caf241d5e6e00bfc0,0,84,84,148,1,threeone,,,,,,,,,,,,,,,,,,,,,,,,,,,,,,,,,,,,,,,,,,,,,,,,,,,,,,,,,,,,,,,,,,,,,,,,,,,,,,,,,,,,,,,,,,,,,,,,,,,,,,,,,,,,,,,,,,,,,,,,,,,,,,,,,,,,,,,,,,,,
,,,,,,5e722b8cffc65d01103bbc8a,629c523699299cb1d11838ab,2022-06-05_08h51.03.281,Colour_Asymmetry_Pilot,2022.1.3,Win32,60.9236018,629c4b6caf241d5e6e00bfc0,0,85,85,83,1,twofour,,,,,,,,,,,,,,,,,,,,,,,,,,,,,,,,,,,,,,,,,,,,,,,,,,,,,,,,,,,,,,,,,,,,,,,,,,,,,,,,,,,,,,,,,,,,,,,,,,,,,,,,,,,,,,,,,,,,,,,,,,,,,,,,,,,,,,,,,,,,
,,,,,,5e722b8cffc65d01103bbc8a,629c523699299cb1d11838ab,2022-06-05_08h51.03.281,Colour_Asymmetry_Pilot,2022.1.3,Win32,60.9236018,629c4b6caf241d5e6e00bfc0,0,86,86,106,1,twoone,,,,,,,,,,,,,,,,,,,,,,,,,,,,,,,,,,,,,,,,,,,,,,,,,,,,,,,,,,,,,,,,,,,,,,,,,,,,,,,,,,,,,,,,,,,,,,,,,,,,,,,,,,,,,,,,,,,,,,,,,,,,,,,,,,,,,,,,,,,,
,,,,,,5e722b8cffc65d01103bbc8a,629c523699299cb1d11838ab,2022-06-05_08h51.03.281,Colour_Asymmetry_Pilot,2022.1.3,Win32,60.9236018,629c4b6caf241d5e6e00bfc0,0,87,87,143,1,fourthree,,,,,,,,,,,,,,,,,,,,,,,,,,,,,,,,,,,,,,,,,,,,,,,,,,,,,,,,,,,,,,,,,,,,,,,,,,,,,,,,,,,,,,,,,,,,,,,,,,,,,,,,,,,,,,,,,,,,,,,,,,,,,,,,,,,,,,,,,,,,
,,,,,,5e722b8cffc65d01103bbc8a,629c523699299cb1d11838ab,2022-06-05_08h51.03.281,Colour_Asymmetry_Pilot,2022.1.3,Win32,60.9236018,629c4b6caf241d5e6e00bfc0,0,88,88,101,1,threefour,,,,,,,,,,,,,,,,,,,,,,,,,,,,,,,,,,,,,,,,,,,,,,,,,,,,,,,,,,,,,,,,,,,,,,,,,,,,,,,,,,,,,,,,,,,,,,,,,,,,,,,,,,,,,,,,,,,,,,,,,,,,,,,,,,,,,,,,,,,,
,,,,,,5e722b8cffc65d01103bbc8a,629c523699299cb1d11838ab,2022-06-05_08h51.03.281,Colour_Asymmetry_Pilot,2022.1.3,Win32,60.9236018,629c4b6caf241d5e6e00bfc0,0,89,89,122,1,twoone,,,,,,,,,,,,,,,,,,,,,,,,,,,,,,,,,,,,,,,,,,,,,,,,,,,,,,,,,,,,,,,,,,,,,,,,,,,,,,,,,,,,,,,,,,,,,,,,,,,,,,,,,,,,,,,,,,,,,,,,,,,,,,,,,,,,,,,,,,,,
,,,,,,5e722b8cffc65d01103bbc8a,629c523699299cb1d11838ab,2022-06-05_08h51.03.281,Colour_Asymmetry_Pilot,2022.1.3,Win32,60.9236018,629c4b6caf241d5e6e00bfc0,0,90,90,156,1,threeone,,,,,,,,,,,,,,,,,,,,,,,,,,,,,,,,,,,,,,,,,,,,,,,,,,,,,,,,,,,,,,,,,,,,,,,,,,,,,,,,,,,,,,,,,,,,,,,,,,,,,,,,,,,,,,,,,,,,,,,,,,,,,,,,,,,,,,,,,,,,
,,,,,,5e722b8cffc65d01103bbc8a,629c523699299cb1d11838ab,2022-06-05_08h51.03.281,Colour_Asymmetry_Pilot,2022.1.3,Win32,60.9236018,629c4b6caf241d5e6e00bfc0,0,91,91,18,1,twoone,,,,,,,,,,,,,,,,,,,,,,,,,,,,,,,,,,,,,,,,,,,,,,,,,,,,,,,,,,,,,,,,,,,,,,,,,,,,,,,,,,,,,,,,,,,,,,,,,,,,,,,,,,,,,,,,,,,,,,,,,,,,,,,,,,,,,,,,,,,,
,,,,,,5e722b8cffc65d01103bbc8a,629c523699299cb1d11838ab,2022-06-05_08h51.03.281,Colour_Asymmetry_Pilot,2022.1.3,Win32,60.9236018,629c4b6caf241d5e6e00bfc0,0,92,92,39,1,fourthree,,,,,,,,,,,,,,,,,,,,,,,,,,,,,,,,,,,,,,,,,,,,,,,,,,,,,,,,,,,,,,,,,,,,,,,,,,,,,,,,,,,,,,,,,,,,,,,,,,,,,,,,,,,,,,,,,,,,,,,,,,,,,,,,,,,,,,,,,,,,
,,,,,,5e722b8cffc65d01103bbc8a,629c523699299cb1d11838ab,2022-06-05_08h51.03.281,Colour_Asymmetry_Pilot,2022.1.3,Win32,60.9236018,629c4b6caf241d5e6e00bfc0,0,93,93,150,1,fourtwo,,,,,,,,,,,,,,,,,,,,,,,,,,,,,,,,,,,,,,,,,,,,,,,,,,,,,,,,,,,,,,,,,,,,,,,,,,,,,,,,,,,,,,,,,,,,,,,,,,,,,,,,,,,,,,,,,,,,,,,,,,,,,,,,,,,,,,,,,,,,
,,,,,,5e722b8cffc65d01103bbc8a,629c523699299cb1d11838ab,2022-06-05_08h51.03.281,Colour_Asymmetry_Pilot,2022.1.3,Win32,60.9236018,629c4b6caf241d5e6e00bfc0,0,94,94,4,1,threeone,,,,,,,,,,,,,,,,,,,,,,,,,,,,,,,,,,,,,,,,,,,,,,,,,,,,,,,,,,,,,,,,,,,,,,,,,,,,,,,,,,,,,,,,,,,,,,,,,,,,,,,,,,,,,,,,,,,,,,,,,,,,,,,,,,,,,,,,,,,,
,,,,,,5e722b8cffc65d01103bbc8a,629c523699299cb1d11838ab,2022-06-05_08h51.03.281,Colour_Asymmetry_Pilot,2022.1.3,Win32,60.9236018,629c4b6caf241d5e6e00bfc0,0,95,95,127,1,fourthree,,,,,,,,,,,,,,,,,,,,,,,,,,,,,,,,,,,,,,,,,,,,,,,,,,,,,,,,,,,,,,,,,,,,,,,,,,,,,,,,,,,,,,,,,,,,,,,,,,,,,,,,,,,,,,,,,,,,,,,,,,,,,,,,,,,,,,,,,,,,
,,,,,,5e722b8cffc65d01103bbc8a,629c523699299cb1d11838ab,2022-06-05_08h51.03.281,Colour_Asymmetry_Pilot,2022.1.3,Win32,60.9236018,629c4b6caf241d5e6e00bfc0,0,96,96,129,1,onethree,,,,,,,,,,,,,,,,,,,,,,,,,,,,,,,,,,,,,,,,,,,,,,,,,,,,,,,,,,,,,,,,,,,,,,,,,,,,,,,,,,,,,,,,,,,,,,,,,,,,,,,,,,,,,,,,,,,,,,,,,,,,,,,,,,,,,,,,,,,,
,,,,,,5e722b8cffc65d01103bbc8a,629c523699299cb1d11838ab,2022-06-05_08h51.03.281,Colour_Asymmetry_Pilot,2022.1.3,Win32,60.9236018,629c4b6caf241d5e6e00bfc0,0,97,97,116,1,threeone,,,,,,,,,,,,,,,,,,,,,,,,,,,,,,,,,,,,,,,,,,,,,,,,,,,,,,,,,,,,,,,,,,,,,,,,,,,,,,,,,,,,,,,,,,,,,,,,,,,,,,,,,,,,,,,,,,,,,,,,,,,,,,,,,,,,,,,,,,,,
,,,,,,5e722b8cffc65d01103bbc8a,629c523699299cb1d11838ab,2022-06-05_08h51.03.281,Colour_Asymmetry_Pilot,2022.1.3,Win32,60.9236018,629c4b6caf241d5e6e00bfc0,0,98,98,12,1,threeone,,,,,,,,,,,,,,,,,,,,,,,,,,,,,,,,,,,,,,,,,,,,,,,,,,,,,,,,,,,,,,,,,,,,,,,,,,,,,,,,,,,,,,,,,,,,,,,,,,,,,,,,,,,,,,,,,,,,,,,,,,,,,,,,,,,,,,,,,,,,
,,,,,,5e722b8cffc65d01103bbc8a,629c523699299cb1d11838ab,2022-06-05_08h51.03.281,Colour_Asymmetry_Pilot,2022.1.3,Win32,60.9236018,629c4b6caf241d5e6e00bfc0,0,99,99,43,1,twofour,,,,,,,,,,,,,,,,,,,,,,,,,,,,,,,,,,,,,,,,,,,,,,,,,,,,,,,,,,,,,,,,,,,,,,,,,,,,,,,,,,,,,,,,,,,,,,,,,,,,,,,,,,,,,,,,,,,,,,,,,,,,,,,,,,,,,,,,,,,,
,,,,,,5e722b8cffc65d01103bbc8a,629c523699299cb1d11838ab,2022-06-05_08h51.03.281,Colour_Asymmetry_Pilot,2022.1.3,Win32,60.9236018,629c4b6caf241d5e6e00bfc0,0,100,100,23,1,fourthree,,,,,,,,,,,,,,,,,,,,,,,,,,,,,,,,,,,,,,,,,,,,,,,,,,,,,,,,,,,,,,,,,,,,,,,,,,,,,,,,,,,,,,,,,,,,,,,,,,,,,,,,,,,,,,,,,,,,,,,,,,,,,,,,,,,,,,,,,,,,
,,,,,,5e722b8cffc65d01103bbc8a,629c523699299cb1d11838ab,2022-06-05_08h51.03.281,Colour_Asymmetry_Pilot,2022.1.3,Win32,60.9236018,629c4b6caf241d5e6e00bfc0,0,101,101,65,1,onethree,,,,,,,,,,,,,,,,,,,,,,,,,,,,,,,,,,,,,,,,,,,,,,,,,,,,,,,,,,,,,,,,,,,,,,,,,,,,,,,,,,,,,,,,,,,,,,,,,,,,,,,,,,,,,,,,,,,,,,,,,,,,,,,,,,,,,,,,,,,,
,,,,,,5e722b8cffc65d01103bbc8a,629c523699299cb1d11838ab,2022-06-05_08h51.03.281,Colour_Asymmetry_Pilot,2022.1.3,Win32,60.9236018,629c4b6caf241d5e6e00bfc0,0,102,102,16,1,onetwo,,,,,,,,,,,,,,,,,,,,,,,,,,,,,,,,,,,,,,,,,,,,,,,,,,,,,,,,,,,,,,,,,,,,,,,,,,,,,,,,,,,,,,,,,,,,,,,,,,,,,,,,,,,,,,,,,,,,,,,,,,,,,,,,,,,,,,,,,,,,
,,,,,,5e722b8cffc65d01103bbc8a,629c523699299cb1d11838ab,2022-06-05_08h51.03.281,Colour_Asymmetry_Pilot,2022.1.3,Win32,60.9236018,629c4b6caf241d5e6e00bfc0,0,103,103,98,1,twoone,,,,,,,,,,,,,,,,,,,,,,,,,,,,,,,,,,,,,,,,,,,,,,,,,,,,,,,,,,,,,,,,,,,,,,,,,,,,,,,,,,,,,,,,,,,,,,,,,,,,,,,,,,,,,,,,,,,,,,,,,,,,,,,,,,,,,,,,,,,,
,,,,,,5e722b8cffc65d01103bbc8a,629c523699299cb1d11838ab,2022-06-05_08h51.03.281,Colour_Asymmetry_Pilot,2022.1.3,Win32,60.9236018,629c4b6caf241d5e6e00bfc0,0,104,104,47,1,fourthree,,,,,,,,,,,,,,,,,,,,,,,,,,,,,,,,,,,,,,,,,,,,,,,,,,,,,,,,,,,,,,,,,,,,,,,,,,,,,,,,,,,,,,,,,,,,,,,,,,,,,,,,,,,,,,,,,,,,,,,,,,,,,,,,,,,,,,,,,,,,
,,,,,,5e722b8cffc65d01103bbc8a,629c523699299cb1d11838ab,2022-06-05_08h51.03.281,Colour_Asymmetry_Pilot,2022.1.3,Win32,60.9236018,629c4b6caf241d5e6e00bfc0,0,105,105,84,1,threeone,,,,,,,,,,,,,,,,,,,,,,,,,,,,,,,,,,,,,,,,,,,,,,,,,,,,,,,,,,,,,,,,,,,,,,,,,,,,,,,,,,,,,,,,,,,,,,,,,,,,,,,,,,,,,,,,,,,,,,,,,,,,,,,,,,,,,,,,,,,,
,,,,,,5e722b8cffc65d01103bbc8a,629c523699299cb1d11838ab,2022-06-05_08h51.03.281,Colour_Asymmetry_Pilot,2022.1.3,Win32,60.9236018,629c4b6caf241d5e6e00bfc0,0,106,106,54,1,fourtwo,,,,,,,,,,,,,,,,,,,,,,,,,,,,,,,,,,,,,,,,,,,,,,,,,,,,,,,,,,,,,,,,,,,,,,,,,,,,,,,,,,,,,,,,,,,,,,,,,,,,,,,,,,,,,,,,,,,,,,,,,,,,,,,,,,,,,,,,,,,,
,,,,,,5e722b8cffc65d01103bbc8a,629c523699299cb1d11838ab,2022-06-05_08h51.03.281,Colour_Asymmetry_Pilot,2022.1.3,Win32,60.9236018,629c4b6caf241d5e6e00bfc0,0,107,107,69,1,threefour,,,,,,,,,,,,,,,,,,,,,,,,,,,,,,,,,,,,,,,,,,,,,,,,,,,,,,,,,,,,,,,,,,,,,,,,,,,,,,,,,,,,,,,,,,,,,,,,,,,,,,,,,,,,,,,,,,,,,,,,,,,,,,,,,,,,,,,,,,,,
,,,,,,5e722b8cffc65d01103bbc8a,629c523699299cb1d11838ab,2022-06-05_08h51.03.281,Colour_Asymmetry_Pilot,2022.1.3,Win32,60.9236018,629c4b6caf241d5e6e00bfc0,0,108,108,114,1,twoone,,,,,,,,,,,,,,,,,,,,,,,,,,,,,,,,,,,,,,,,,,,,,,,,,,,,,,,,,,,,,,,,,,,,,,,,,,,,,,,,,,,,,,,,,,,,,,,,,,,,,,,,,,,,,,,,,,,,,,,,,,,,,,,,,,,,,,,,,,,,
,,,,,,5e722b8cffc65d01103bbc8a,629c523699299cb1d11838ab,2022-06-05_08h51.03.281,Colour_Asymmetry_Pilot,2022.1.3,Win32,60.9236018,629c4b6caf241d5e6e00bfc0,0,109,109,152,1,onetwo,,,,,,,,,,,,,,,,,,,,,,,,,,,,,,,,,,,,,,,,,,,,,,,,,,,,,,,,,,,,,,,,,,,,,,,,,,,,,,,,,,,,,,,,,,,,,,,,,,,,,,,,,,,,,,,,,,,,,,,,,,,,,,,,,,,,,,,,,,,,
,,,,,,5e722b8cffc65d01103bbc8a,629c523699299cb1d11838ab,2022-06-05_08h51.03.281,Colour_Asymmetry_Pilot,2022.1.3,Win32,60.9236018,629c4b6caf241d5e6e00bfc0,0,110,110,24,1,onetwo,,,,,,,,,,,,,,,,,,,,,,,,,,,,,,,,,,,,,,,,,,,,,,,,,,,,,,,,,,,,,,,,,,,,,,,,,,,,,,,,,,,,,,,,,,,,,,,,,,,,,,,,,,,,,,,,,,,,,,,,,,,,,,,,,,,,,,,,,,,,
,,,,,,5e722b8cffc65d01103bbc8a,629c523699299cb1d11838ab,2022-06-05_08h51.03.281,Colour_Asymmetry_Pilot,2022.1.3,Win32,60.9236018,629c4b6caf241d5e6e00bfc0,0,111,111,76,1,threeone,,,,,,,,,,,,,,,,,,,,,,,,,,,,,,,,,,,,,,,,,,,,,,,,,,,,,,,,,,,,,,,,,,,,,,,,,,,,,,,,,,,,,,,,,,,,,,,,,,,,,,,,,,,,,,,,,,,,,,,,,,,,,,,,,,,,,,,,,,,,
,,,,,,5e722b8cffc65d01103bbc8a,629c523699299cb1d11838ab,2022-06-05_08h51.03.281,Colour_Asymmetry_Pilot,2022.1.3,Win32,60.9236018,629c4b6caf241d5e6e00bfc0,0,112,112,20,1,threeone,,,,,,,,,,,,,,,,,,,,,,,,,,,,,,,,,,,,,,,,,,,,,,,,,,,,,,,,,,,,,,,,,,,,,,,,,,,,,,,,,,,,,,,,,,,,,,,,,,,,,,,,,,,,,,,,,,,,,,,,,,,,,,,,,,,,,,,,,,,,
,,,,,,5e722b8cffc65d01103bbc8a,629c523699299cb1d11838ab,2022-06-05_08h51.03.281,Colour_Asymmetry_Pilot,2022.1.3,Win32,60.9236018,629c4b6caf241d5e6e00bfc0,0,113,113,125,1,threefour,,,,,,,,,,,,,,,,,,,,,,,,,,,,,,,,,,,,,,,,,,,,,,,,,,,,,,,,,,,,,,,,,,,,,,,,,,,,,,,,,,,,,,,,,,,,,,,,,,,,,,,,,,,,,,,,,,,,,,,,,,,,,,,,,,,,,,,,,,,,
,,,,,,5e722b8cffc65d01103bbc8a,629c523699299cb1d11838ab,2022-06-05_08h51.03.281,Colour_Asymmetry_Pilot,2022.1.3,Win32,60.9236018,629c4b6caf241d5e6e00bfc0,0,114,114,25,1,onethree,,,,,,,,,,,,,,,,,,,,,,,,,,,,,,,,,,,,,,,,,,,,,,,,,,,,,,,,,,,,,,,,,,,,,,,,,,,,,,,,,,,,,,,,,,,,,,,,,,,,,,,,,,,,,,,,,,,,,,,,,,,,,,,,,,,,,,,,,,,,
,,,,,,5e722b8cffc65d01103bbc8a,629c523699299cb1d11838ab,2022-06-05_08h51.03.281,Colour_Asymmetry_Pilot,2022.1.3,Win32,60.9236018,629c4b6caf241d5e6e00bfc0,0,115,115,146,1,twoone,,,,,,,,,,,,,,,,,,,,,,,,,,,,,,,,,,,,,,,,,,,,,,,,,,,,,,,,,,,,,,,,,,,,,,,,,,,,,,,,,,,,,,,,,,,,,,,,,,,,,,,,,,,,,,,,,,,,,,,,,,,,,,,,,,,,,,,,,,,,
,,,,,,5e722b8cffc65d01103bbc8a,629c523699299cb1d11838ab,2022-06-05_08h51.03.281,Colour_Asymmetry_Pilot,2022.1.3,Win32,60.9236018,629c4b6caf241d5e6e00bfc0,0,116,116,37,1,threefour,,,,,,,,,,,,,,,,,,,,,,,,,,,,,,,,,,,,,,,,,,,,,,,,,,,,,,,,,,,,,,,,,,,,,,,,,,,,,,,,,,,,,,,,,,,,,,,,,,,,,,,,,,,,,,,,,,,,,,,,,,,,,,,,,,,,,,,,,,,,
,,,,,,5e722b8cffc65d01103bbc8a,629c523699299cb1d11838ab,2022-06-05_08h51.03.281,Colour_Asymmetry_Pilot,2022.1.3,Win32,60.9236018,629c4b6caf241d5e6e00bfc0,0,117,117,88,1,onetwo,,,,,,,,,,,,,,,,,,,,,,,,,,,,,,,,,,,,,,,,,,,,,,,,,,,,,,,,,,,,,,,,,,,,,,,,,,,,,,,,,,,,,,,,,,,,,,,,,,,,,,,,,,,,,,,,,,,,,,,,,,,,,,,,,,,,,,,,,,,,
,,,,,,5e722b8cffc65d01103bbc8a,629c523699299cb1d11838ab,2022-06-05_08h51.03.281,Colour_Asymmetry_Pilot,2022.1.3,Win32,60.9236018,629c4b6caf241d5e6e00bfc0,0,118,118,113,1,onethree,,,,,,,,,,,,,,,,,,,,,,,,,,,,,,,,,,,,,,,,,,,,,,,,,,,,,,,,,,,,,,,,,,,,,,,,,,,,,,,,,,,,,,,,,,,,,,,,,,,,,,,,,,,,,,,,,,,,,,,,,,,,,,,,,,,,,,,,,,,,
,,,,,,5e722b8cffc65d01103bbc8a,629c523699299cb1d11838ab,2022-06-05_08h51.03.281,Colour_Asymmetry_Pilot,2022.1.3,Win32,60.9236018,629c4b6caf241d5e6e00bfc0,0,119,119,81,1,onethree,,,,,,,,,,,,,,,,,,,,,,,,,,,,,,,,,,,,,,,,,,,,,,,,,,,,,,,,,,,,,,,,,,,,,,,,,,,,,,,,,,,,,,,,,,,,,,,,,,,,,,,,,,,,,,,,,,,,,,,,,,,,,,,,,,,,,,,,,,,,
,,,,,,5e722b8cffc65d01103bbc8a,629c523699299cb1d11838ab,2022-06-05_08h51.03.281,Colour_Asymmetry_Pilot,2022.1.3,Win32,60.9236018,629c4b6caf241d5e6e00bfc0,0,120,120,19,1,twofour,,,,,,,,,,,,,,,,,,,,,,,,,,,,,,,,,,,,,,,,,,,,,,,,,,,,,,,,,,,,,,,,,,,,,,,,,,,,,,,,,,,,,,,,,,,,,,,,,,,,,,,,,,,,,,,,,,,,,,,,,,,,,,,,,,,,,,,,,,,,
,,,,,,5e722b8cffc65d01103bbc8a,629c523699299cb1d11838ab,2022-06-05_08h51.03.281,Colour_Asymmetry_Pilot,2022.1.3,Win32,60.9236018,629c4b6caf241d5e6e00bfc0,0,121,121,45,1,threefour,,,,,,,,,,,,,,,,,,,,,,,,,,,,,,,,,,,,,,,,,,,,,,,,,,,,,,,,,,,,,,,,,,,,,,,,,,,,,,,,,,,,,,,,,,,,,,,,,,,,,,,,,,,,,,,,,,,,,,,,,,,,,,,,,,,,,,,,,,,,
,,,,,,5e722b8cffc65d01103bbc8a,629c523699299cb1d11838ab,2022-06-05_08h51.03.281,Colour_Asymmetry_Pilot,2022.1.3,Win32,60.9236018,629c4b6caf241d5e6e00bfc0,0,122,122,59,1,twofour,,,,,,,,,,,,,,,,,,,,,,,,,,,,,,,,,,,,,,,,,,,,,,,,,,,,,,,,,,,,,,,,,,,,,,,,,,,,,,,,,,,,,,,,,,,,,,,,,,,,,,,,,,,,,,,,,,,,,,,,,,,,,,,,,,,,,,,,,,,,
,,,,,,5e722b8cffc65d01103bbc8a,629c523699299cb1d11838ab,2022-06-05_08h51.03.281,Colour_Asymmetry_Pilot,2022.1.3,Win32,60.9236018,629c4b6caf241d5e6e00bfc0,0,123,123,79,1,fourthree,,,,,,,,,,,,,,,,,,,,,,,,,,,,,,,,,,,,,,,,,,,,,,,,,,,,,,,,,,,,,,,,,,,,,,,,,,,,,,,,,,,,,,,,,,,,,,,,,,,,,,,,,,,,,,,,,,,,,,,,,,,,,,,,,,,,,,,,,,,,
,,,,,,5e722b8cffc65d01103bbc8a,629c523699299cb1d11838ab,2022-06-05_08h51.03.281,Colour_Asymmetry_Pilot,2022.1.3,Win32,60.9236018,629c4b6caf241d5e6e00bfc0,0,124,124,109,1,threefour,,,,,,,,,,,,,,,,,,,,,,,,,,,,,,,,,,,,,,,,,,,,,,,,,,,,,,,,,,,,,,,,,,,,,,,,,,,,,,,,,,,,,,,,,,,,,,,,,,,,,,,,,,,,,,,,,,,,,,,,,,,,,,,,,,,,,,,,,,,,
,,,,,,5e722b8cffc65d01103bbc8a,629c523699299cb1d11838ab,2022-06-05_08h51.03.281,Colour_Asymmetry_Pilot,2022.1.3,Win32,60.9236018,629c4b6caf241d5e6e00bfc0,0,125,125,27,1,twofour,,,,,,,,,,,,,,,,,,,,,,,,,,,,,,,,,,,,,,,,,,,,,,,,,,,,,,,,,,,,,,,,,,,,,,,,,,,,,,,,,,,,,,,,,,,,,,,,,,,,,,,,,,,,,,,,,,,,,,,,,,,,,,,,,,,,,,,,,,,,
,,,,,,5e722b8cffc65d01103bbc8a,629c523699299cb1d11838ab,2022-06-05_08h51.03.281,Colour_Asymmetry_Pilot,2022.1.3,Win32,60.9236018,629c4b6caf241d5e6e00bfc0,0,126,126,85,1,threefour,,,,,,,,,,,,,,,,,,,,,,,,,,,,,,,,,,,,,,,,,,,,,,,,,,,,,,,,,,,,,,,,,,,,,,,,,,,,,,,,,,,,,,,,,,,,,,,,,,,,,,,,,,,,,,,,,,,,,,,,,,,,,,,,,,,,,,,,,,,,
,,,,,,5e722b8cffc65d01103bbc8a,629c523699299cb1d11838ab,2022-06-05_08h51.03.281,Colour_Asymmetry_Pilot,2022.1.3,Win32,60.9236018,629c4b6caf241d5e6e00bfc0,0,127,127,1,1,onethree,,,,,,,,,,,,,,,,,,,,,,,,,,,,,,,,,,,,,,,,,,,,,,,,,,,,,,,,,,,,,,,,,,,,,,,,,,,,,,,,,,,,,,,,,,,,,,,,,,,,,,,,,,,,,,,,,,,,,,,,,,,,,,,,,,,,,,,,,,,,
,,,,,,5e722b8cffc65d01103bbc8a,629c523699299cb1d11838ab,2022-06-05_08h51.03.281,Colour_Asymmetry_Pilot,2022.1.3,Win32,60.9236018,629c4b6caf241d5e6e00bfc0,0,128,128,132,1,threeone,,,,,,,,,,,,,,,,,,,,,,,,,,,,,,,,,,,,,,,,,,,,,,,,,,,,,,,,,,,,,,,,,,,,,,,,,,,,,,,,,,,,,,,,,,,,,,,,,,,,,,,,,,,,,,,,,,,,,,,,,,,,,,,,,,,,,,,,,,,,
,,,,,,5e722b8cffc65d01103bbc8a,629c523699299cb1d11838ab,2022-06-05_08h51.03.281,Colour_Asymmetry_Pilot,2022.1.3,Win32,60.9236018,629c4b6caf241d5e6e00bfc0,0,129,129,71,1,fourthree,,,,,,,,,,,,,,,,,,,,,,,,,,,,,,,,,,,,,,,,,,,,,,,,,,,,,,,,,,,,,,,,,,,,,,,,,,,,,,,,,,,,,,,,,,,,,,,,,,,,,,,,,,,,,,,,,,,,,,,,,,,,,,,,,,,,,,,,,,,,
,,,,,,5e722b8cffc65d01103bbc8a,629c523699299cb1d11838ab,2022-06-05_08h51.03.281,Colour_Asymmetry_Pilot,2022.1.3,Win32,60.9236018,629c4b6caf241d5e6e00bfc0,0,130,130,51,1,twofour,,,,,,,,,,,,,,,,,,,,,,,,,,,,,,,,,,,,,,,,,,,,,,,,,,,,,,,,,,,,,,,,,,,,,,,,,,,,,,,,,,,,,,,,,,,,,,,,,,,,,,,,,,,,,,,,,,,,,,,,,,,,,,,,,,,,,,,,,,,,
,,,,,,5e722b8cffc65d01103bbc8a,629c523699299cb1d11838ab,2022-06-05_08h51.03.281,Colour_Asymmetry_Pilot,2022.1.3,Win32,60.9236018,629c4b6caf241d5e6e00bfc0,0,131,131,133,1,threefour,,,,,,,,,,,,,,,,,,,,,,,,,,,,,,,,,,,,,,,,,,,,,,,,,,,,,,,,,,,,,,,,,,,,,,,,,,,,,,,,,,,,,,,,,,,,,,,,,,,,,,,,,,,,,,,,,,,,,,,,,,,,,,,,,,,,,,,,,,,,
,,,,,,5e722b8cffc65d01103bbc8a,629c523699299cb1d11838ab,2022-06-05_08h51.03.281,Colour_Asymmetry_Pilot,2022.1.3,Win32,60.9236018,629c4b6caf241d5e6e00bfc0,0,132,132,161,1,onethree,,,,,,,,,,,,,,,,,,,,,,,,,,,,,,,,,,,,,,,,,,,,,,,,,,,,,,,,,,,,,,,,,,,,,,,,,,,,,,,,,,,,,,,,,,,,,,,,,,,,,,,,,,,,,,,,,,,,,,,,,,,,,,,,,,,,,,,,,,,,
,,,,,,5e722b8cffc65d01103bbc8a,629c523699299cb1d11838ab,2022-06-05_08h51.03.281,Colour_Asymmetry_Pilot,2022.1.3,Win32,60.9236018,629c4b6caf241d5e6e00bfc0,0,133,133,104,1,onetwo,,,,,,,,,,,,,,,,,,,,,,,,,,,,,,,,,,,,,,,,,,,,,,,,,,,,,,,,,,,,,,,,,,,,,,,,,,,,,,,,,,,,,,,,,,,,,,,,,,,,,,,,,,,,,,,,,,,,,,,,,,,,,,,,,,,,,,,,,,,,
,,,,,,5e722b8cffc65d01103bbc8a,629c523699299cb1d11838ab,2022-06-05_08h51.03.281,Colour_Asymmetry_Pilot,2022.1.3,Win32,60.9236018,629c4b6caf241d5e6e00bfc0,0,134,134,95,1,fourthree,,,,,,,,,,,,,,,,,,,,,,,,,,,,,,,,,,,,,,,,,,,,,,,,,,,,,,,,,,,,,,,,,,,,,,,,,,,,,,,,,,,,,,,,,,,,,,,,,,,,,,,,,,,,,,,,,,,,,,,,,,,,,,,,,,,,,,,,,,,,
,,,,,,5e722b8cffc65d01103bbc8a,629c523699299cb1d11838ab,2022-06-05_08h51.03.281,Colour_Asymmetry_Pilot,2022.1.3,Win32,60.9236018,629c4b6caf241d5e6e00bfc0,0,135,135,159,1,fourthree,,,,,,,,,,,,,,,,,,,,,,,,,,,,,,,,,,,,,,,,,,,,,,,,,,,,,,,,,,,,,,,,,,,,,,,,,,,,,,,,,,,,,,,,,,,,,,,,,,,,,,,,,,,,,,,,,,,,,,,,,,,,,,,,,,,,,,,,,,,,
,,,,,,5e722b8cffc65d01103bbc8a,629c523699299cb1d11838ab,2022-06-05_08h51.03.281,Colour_Asymmetry_Pilot,2022.1.3,Win32,60.9236018,629c4b6caf241d5e6e00bfc0,0,136,136,40,1,onetwo,,,,,,,,,,,,,,,,,,,,,,,,,,,,,,,,,,,,,,,,,,,,,,,,,,,,,,,,,,,,,,,,,,,,,,,,,,,,,,,,,,,,,,,,,,,,,,,,,,,,,,,,,,,,,,,,,,,,,,,,,,,,,,,,,,,,,,,,,,,,
,,,,,,5e722b8cffc65d01103bbc8a,629c523699299cb1d11838ab,2022-06-05_08h51.03.281,Colour_Asymmetry_Pilot,2022.1.3,Win32,60.9236018,629c4b6caf241d5e6e00bfc0,0,137,137,123,1,twofour,,,,,,,,,,,,,,,,,,,,,,,,,,,,,,,,,,,,,,,,,,,,,,,,,,,,,,,,,,,,,,,,,,,,,,,,,,,,,,,,,,,,,,,,,,,,,,,,,,,,,,,,,,,,,,,,,,,,,,,,,,,,,,,,,,,,,,,,,,,,
,,,,,,5e722b8cffc65d01103bbc8a,629c523699299cb1d11838ab,2022-06-05_08h51.03.281,Colour_Asymmetry_Pilot,2022.1.3,Win32,60.9236018,629c4b6caf241d5e6e00bfc0,0,138,138,128,1,onetwo,,,,,,,,,,,,,,,,,,,,,,,,,,,,,,,,,,,,,,,,,,,,,,,,,,,,,,,,,,,,,,,,,,,,,,,,,,,,,,,,,,,,,,,,,,,,,,,,,,,,,,,,,,,,,,,,,,,,,,,,,,,,,,,,,,,,,,,,,,,,
,,,,,,5e722b8cffc65d01103bbc8a,629c523699299cb1d11838ab,2022-06-05_08h51.03.281,Colour_Asymmetry_Pilot,2022.1.3,Win32,60.9236018,629c4b6caf241d5e6e00bfc0,0,139,139,57,1,onethree,,,,,,,,,,,,,,,,,,,,,,,,,,,,,,,,,,,,,,,,,,,,,,,,,,,,,,,,,,,,,,,,,,,,,,,,,,,,,,,,,,,,,,,,,,,,,,,,,,,,,,,,,,,,,,,,,,,,,,,,,,,,,,,,,,,,,,,,,,,,
,,,,,,5e722b8cffc65d01103bbc8a,629c523699299cb1d11838ab,2022-06-05_08h51.03.281,Colour_Asymmetry_Pilot,2022.1.3,Win32,60.9236018,629c4b6caf241d5e6e00bfc0,0,140,140,137,1,onethree,,,,,,,,,,,,,,,,,,,,,,,,,,,,,,,,,,,,,,,,,,,,,,,,,,,,,,,,,,,,,,,,,,,,,,,,,,,,,,,,,,,,,,,,,,,,,,,,,,,,,,,,,,,,,,,,,,,,,,,,,,,,,,,,,,,,,,,,,,,,
,,,,,,5e722b8cffc65d01103bbc8a,629c523699299cb1d11838ab,2022-06-05_08h51.03.281,Colour_Asymmetry_Pilot,2022.1.3,Win32,60.9236018,629c4b6caf241d5e6e00bfc0,0,141,141,7,1,fourthree,,,,,,,,,,,,,,,,,,,,,,,,,,,,,,,,,,,,,,,,,,,,,,,,,,,,,,,,,,,,,,,,,,,,,,,,,,,,,,,,,,,,,,,,,,,,,,,,,,,,,,,,,,,,,,,,,,,,,,,,,,,,,,,,,,,,,,,,,,,,
,,,,,,5e722b8cffc65d01103bbc8a,629c523699299cb1d11838ab,2022-06-05_08h51.03.281,Colour_Asymmetry_Pilot,2022.1.3,Win32,60.9236018,629c4b6caf241d5e6e00bfc0,0,142,142,117,1,threefour,,,,,,,,,,,,,,,,,,,,,,,,,,,,,,,,,,,,,,,,,,,,,,,,,,,,,,,,,,,,,,,,,,,,,,,,,,,,,,,,,,,,,,,,,,,,,,,,,,,,,,,,,,,,,,,,,,,,,,,,,,,,,,,,,,,,,,,,,,,,
,,,,,,5e722b8cffc65d01103bbc8a,629c523699299cb1d11838ab,2022-06-05_08h51.03.281,Colour_Asymmetry_Pilot,2022.1.3,Win32,60.9236018,629c4b6caf241d5e6e00bfc0,0,143,143,15,1,fourthree,,,,,,,,,,,,,,,,,,,,,,,,,,,,,,,,,,,,,,,,,,,,,,,,,,,,,,,,,,,,,,,,,,,,,,,,,,,,,,,,,,,,,,,,,,,,,,,,,,,,,,,,,,,,,,,,,,,,,,,,,,,,,,,,,,,,,,,,,,,,
,,,,,,5e722b8cffc65d01103bbc8a,629c523699299cb1d11838ab,2022-06-05_08h51.03.281,Colour_Asymmetry_Pilot,2022.1.3,Win32,60.9236018,629c4b6caf241d5e6e00bfc0,0,144,144,75,1,twofour,,,,,,,,,,,,,,,,,,,,,,,,,,,,,,,,,,,,,,,,,,,,,,,,,,,,,,,,,,,,,,,,,,,,,,,,,,,,,,,,,,,,,,,,,,,,,,,,,,,,,,,,,,,,,,,,,,,,,,,,,,,,,,,,,,,,,,,,,,,,
,,,,,,5e722b8cffc65d01103bbc8a,629c523699299cb1d11838ab,2022-06-05_08h51.03.281,Colour_Asymmetry_Pilot,2022.1.3,Win32,60.9236018,629c4b6caf241d5e6e00bfc0,0,145,145,14,1,fourtwo,,,,,,,,,,,,,,,,,,,,,,,,,,,,,,,,,,,,,,,,,,,,,,,,,,,,,,,,,,,,,,,,,,,,,,,,,,,,,,,,,,,,,,,,,,,,,,,,,,,,,,,,,,,,,,,,,,,,,,,,,,,,,,,,,,,,,,,,,,,,
,,,,,,5e722b8cffc65d01103bbc8a,629c523699299cb1d11838ab,2022-06-05_08h51.03.281,Colour_Asymmetry_Pilot,2022.1.3,Win32,60.9236018,629c4b6caf241d5e6e00bfc0,0,146,146,154,1,twoone,,,,,,,,,,,,,,,,,,,,,,,,,,,,,,,,,,,,,,,,,,,,,,,,,,,,,,,,,,,,,,,,,,,,,,,,,,,,,,,,,,,,,,,,,,,,,,,,,,,,,,,,,,,,,,,,,,,,,,,,,,,,,,,,,,,,,,,,,,,,
,,,,,,5e722b8cffc65d01103bbc8a,629c523699299cb1d11838ab,2022-06-05_08h51.03.281,Colour_Asymmetry_Pilot,2022.1.3,Win32,60.9236018,629c4b6caf241d5e6e00bfc0,0,147,147,78,1,fourtwo,,,,,,,,,,,,,,,,,,,,,,,,,,,,,,,,,,,,,,,,,,,,,,,,,,,,,,,,,,,,,,,,,,,,,,,,,,,,,,,,,,,,,,,,,,,,,,,,,,,,,,,,,,,,,,,,,,,,,,,,,,,,,,,,,,,,,,,,,,,,
,,,,,,5e722b8cffc65d01103bbc8a,629c523699299cb1d11838ab,2022-06-05_08h51.03.281,Colour_Asymmetry_Pilot,2022.1.3,Win32,60.9236018,629c4b6caf241d5e6e00bfc0,0,148,148,46,1,fourtwo,,,,,,,,,,,,,,,,,,,,,,,,,,,,,,,,,,,,,,,,,,,,,,,,,,,,,,,,,,,,,,,,,,,,,,,,,,,,,,,,,,,,,,,,,,,,,,,,,,,,,,,,,,,,,,,,,,,,,,,,,,,,,,,,,,,,,,,,,,,,
,,,,,,5e722b8cffc65d01103bbc8a,629c523699299cb1d11838ab,2022-06-05_08h51.03.281,Colour_Asymmetry_Pilot,2022.1.3,Win32,60.9236018,629c4b6caf241d5e6e00bfc0,0,149,149,82,1,twoone,,,,,,,,,,,,,,,,,,,,,,,,,,,,,,,,,,,,,,,,,,,,,,,,,,,,,,,,,,,,,,,,,,,,,,,,,,,,,,,,,,,,,,,,,,,,,,,,,,,,,,,,,,,,,,,,,,,,,,,,,,,,,,,,,,,,,,,,,,,,
,,,,,,5e722b8cffc65d01103bbc8a,629c523699299cb1d11838ab,2022-06-05_08h51.03.281,Colour_Asymmetry_Pilot,2022.1.3,Win32,60.9236018,629c4b6caf241d5e6e00bfc0,0,150,150,157,1,threefour,,,,,,,,,,,,,,,,,,,,,,,,,,,,,,,,,,,,,,,,,,,,,,,,,,,,,,,,,,,,,,,,,,,,,,,,,,,,,,,,,,,,,,,,,,,,,,,,,,,,,,,,,,,,,,,,,,,,,,,,,,,,,,,,,,,,,,,,,,,,
,,,,,,5e722b8cffc65d01103bbc8a,629c523699299cb1d11838ab,2022-06-05_08h51.03.281,Colour_Asymmetry_Pilot,2022.1.3,Win32,60.9236018,629c4b6caf241d5e6e00bfc0,0,151,151,138,1,twoone,,,,,,,,,,,,,,,,,,,,,,,,,,,,,,,,,,,,,,,,,,,,,,,,,,,,,,,,,,,,,,,,,,,,,,,,,,,,,,,,,,,,,,,,,,,,,,,,,,,,,,,,,,,,,,,,,,,,,,,,,,,,,,,,,,,,,,,,,,,,
,,,,,,5e722b8cffc65d01103bbc8a,629c523699299cb1d11838ab,2022-06-05_08h51.03.281,Colour_Asymmetry_Pilot,2022.1.3,Win32,60.9236018,629c4b6caf241d5e6e00bfc0,0,152,152,28,1,threeone,,,,,,,,,,,,,,,,,,,,,,,,,,,,,,,,,,,,,,,,,,,,,,,,,,,,,,,,,,,,,,,,,,,,,,,,,,,,,,,,,,,,,,,,,,,,,,,,,,,,,,,,,,,,,,,,,,,,,,,,,,,,,,,,,,,,,,,,,,,,
,,,,,,5e722b8cffc65d01103bbc8a,629c523699299cb1d11838ab,2022-06-05_08h51.03.281,Colour_Asymmetry_Pilot,2022.1.3,Win32,60.9236018,629c4b6caf241d5e6e00bfc0,0,153,153,105,1,onethree,,,,,,,,,,,,,,,,,,,,,,,,,,,,,,,,,,,,,,,,,,,,,,,,,,,,,,,,,,,,,,,,,,,,,,,,,,,,,,,,,,,,,,,,,,,,,,,,,,,,,,,,,,,,,,,,,,,,,,,,,,,,,,,,,,,,,,,,,,,,
,,,,,,5e722b8cffc65d01103bbc8a,629c523699299cb1d11838ab,2022-06-05_08h51.03.281,Colour_Asymmetry_Pilot,2022.1.3,Win32,60.9236018,629c4b6caf241d5e6e00bfc0,0,154,154,121,1,onethree,,,,,,,,,,,,,,,,,,,,,,,,,,,,,,,,,,,,,,,,,,,,,,,,,,,,,,,,,,,,,,,,,,,,,,,,,,,,,,,,,,,,,,,,,,,,,,,,,,,,,,,,,,,,,,,,,,,,,,,,,,,,,,,,,,,,,,,,,,,,
,,,,,,5e722b8cffc65d01103bbc8a,629c523699299cb1d11838ab,2022-06-05_08h51.03.281,Colour_Asymmetry_Pilot,2022.1.3,Win32,60.9236018,629c4b6caf241d5e6e00bfc0,0,155,155,107,1,twofour,,,,,,,,,,,,,,,,,,,,,,,,,,,,,,,,,,,,,,,,,,,,,,,,,,,,,,,,,,,,,,,,,,,,,,,,,,,,,,,,,,,,,,,,,,,,,,,,,,,,,,,,,,,,,,,,,,,,,,,,,,,,,,,,,,,,,,,,,,,,
,,,,,,5e722b8cffc65d01103bbc8a,629c523699299cb1d11838ab,2022-06-05_08h51.03.281,Colour_Asymmetry_Pilot,2022.1.3,Win32,60.9236018,629c4b6caf241d5e6e00bfc0,0,156,156,11,1,twofour,,,,,,,,,,,,,,,,,,,,,,,,,,,,,,,,,,,,,,,,,,,,,,,,,,,,,,,,,,,,,,,,,,,,,,,,,,,,,,,,,,,,,,,,,,,,,,,,,,,,,,,,,,,,,,,,,,,,,,,,,,,,,,,,,,,,,,,,,,,,
,,,,,,5e722b8cffc65d01103bbc8a,629c523699299cb1d11838ab,2022-06-05_08h51.03.281,Colour_Asymmetry_Pilot,2022.1.3,Win32,60.9236018,629c4b6caf241d5e6e00bfc0,0,157,157,17,1,onethree,,,,,,,,,,,,,,,,,,,,,,,,,,,,,,,,,,,,,,,,,,,,,,,,,,,,,,,,,,,,,,,,,,,,,,,,,,,,,,,,,,,,,,,,,,,,,,,,,,,,,,,,,,,,,,,,,,,,,,,,,,,,,,,,,,,,,,,,,,,,
,,,,,,5e722b8cffc65d01103bbc8a,629c523699299cb1d11838ab,2022-06-05_08h51.03.281,Colour_Asymmetry_Pilot,2022.1.3,Win32,60.9236018,629c4b6caf241d5e6e00bfc0,0,158,158,70,1,fourtwo,,,,,,,,,,,,,,,,,,,,,,,,,,,,,,,,,,,,,,,,,,,,,,,,,,,,,,,,,,,,,,,,,,,,,,,,,,,,,,,,,,,,,,,,,,,,,,,,,,,,,,,,,,,,,,,,,,,,,,,,,,,,,,,,,,,,,,,,,,,,
,,,,,,5e722b8cffc65d01103bbc8a,629c523699299cb1d11838ab,2022-06-05_08h51.03.281,Colour_Asymmetry_Pilot,2022.1.3,Win32,60.9236018,629c4b6caf241d5e6e00bfc0,0,159,159,147,1,twofour,,,,,,,,,,,,,,,,,,,,,,,,,,,,,,,,,,,,,,,,,,,,,,,,,,,,,,,,,,,,,,,,,,,,,,,,,,,,,,,,,,,,,,,,,,,,,,,,,,,,,,,,,,,,,,,,,,,,,,,,,,,,,,,,,,,,,,,,,,,,
,,,,,,5e722b8cffc65d01103bbc8a,629c523699299cb1d11838ab,2022-06-05_08h51.03.281,Colour_Asymmetry_Pilot,2022.1.3,Win32,60.9236018,629c4b6caf241d5e6e00bfc0,0,160,160,115,1,twofour,,,,,,,,,,,,,,,,,,,,,,,,,,,,,,,,,,,,,,,,,,,,,,,,,,,,,,,,,,,,,,,,,,,,,,,,,,,,,,,,,,,,,,,,,,,,,,,,,,,,,,,,,,,,,,,,,,,,,,,,,,,,,,,,,,,,,,,,,,,,
,,,,,,5e722b8cffc65d01103bbc8a,629c523699299cb1d11838ab,2022-06-05_08h51.03.281,Colour_Asymmetry_Pilot,2022.1.3,Win32,60.9236018,629c4b6caf241d5e6e00bfc0,0,161,161,58,1,twoone,,,,,,,,,,,,,,,,,,,,,,,,,,,,,,,,,,,,,,,,,,,,,,,,,,,,,,,,,,,,,,,,,,,,,,,,,,,,,,,,,,,,,,,,,,,,,,,,,,,,,,,,,,,,,,,,,,,,,,,,,,,,,,,,,,,,,,,,,,,,
,,,,,,5e722b8cffc65d01103bbc8a,629c523699299cb1d11838ab,2022-06-05_08h51.03.281,Colour_Asymmetry_Pilot,2022.1.3,Win32,60.9236018,629c4b6caf241d5e6e00bfc0,,,,,,,space,1.9995,space,5.7407,space,24.9411,space,17.6728,space,2.2493,space,2.819,"[-0.10599999999999998,-0.15300000000000002,0.15280000000000005]",threeone,"[-0.9296,-0.12959999999999994,-0.043199999999999905]",2,6.6548,51.33337402,-37.33334351,1,0,0,response3disk_5,-7.333312988,5.333312988,1,0,0,rectangle_8,-7.333312988,5.333312988,1,0,0,1,-7.333312988,5.333312988,1,0,0,0,0,0,0,1,,,,,,,,,,,,,,,,,,,,,,,,,,,,,,,,,,,,,,,,,,,,,,,,,,,,,,,,,,,,,,,,,,,,,,,,,,,,,,,,,,,,,,,,,,,,,,,
,,,,,,5e722b8cffc65d01103bbc8a,629c523699299cb1d11838ab,2022-06-05_08h51.03.281,Colour_Asymmetry_Pilot,2022.1.3,Win32,60.9236018,629c4b6caf241d5e6e00bfc0,,,,,,,,,,,,,,,,,,,"[-0.06680000000000008,-0.45100000000000007,-0.906]",threefour,"[0.2862,0.7802,0.3568]",-4,2.7322,-46,82,1,0,0,response7disk_5,-0.666625977,-2,1,0,0,rectangle_8,40.66668701,-93.33334351,1,0,0,1,10.66668701,0.666656494,1,0,0,1,0,1,0,1,response3disk_7,4,rectangle_4,,,,,,,,,,,,,,,,,,,,,,,,,,,,,,,,,,,,,,,,,,,,,,,,,,,,,,,,,,,,,,,,,,,,,,,,,,,,,,,,,,,,,,,,,,,,
,,,,,,5e722b8cffc65d01103bbc8a,629c523699299cb1d11838ab,2022-06-05_08h51.03.281,Colour_Asymmetry_Pilot,2022.1.3,Win32,60.9236018,629c4b6caf241d5e6e00bfc0,,,,,,,,,,,,,,,,,,,"[0.09799999999999986,-0.24719999999999998,0.15280000000000005]",fourthree,"[-0.24719999999999998,-0.0354000000000001,0.3175999999999999]",1,4.4989,44,-82.66668701,1,0,0,response3disk_5,-4,8.666656494,1,0,0,rectangle_8,-4,8.666656494,1,0,0,1,-4,8.666656494,1,0,0,2,0,2,0,1,,,,,,,,,,,,,,,,,,,,,,,,,,,,,,,,,,,,,,,,,,,,,,,,,,,,,,,,,,,,,,,,,,,,,,,,,,,,,,,,,,,,,,,,,,,,,,,
,,,,,,5e722b8cffc65d01103bbc8a,629c523699299cb1d11838ab,2022-06-05_08h51.03.281,Colour_Asymmetry_Pilot,2022.1.3,Win32,60.9236018,629c4b6caf241d5e6e00bfc0,,,,,,,,,,,,,,,,,,,"[0.37240000000000006,-0.050999999999999934,-0.5216]",threefour,"[0.18419999999999992,-0.4276,-0.404]",-1,3.0821,-38,-80.66668701,1,0,0,response5disk_5,-5.333312988,-8.666687012,1,0,0,rectangle_8,-5.333312988,-8.666687012,1,0,0,1,-5.333312988,-8.666687012,1,0,0,3,0,3,0,1,,,,,,,,,,,,,,,,,,,,,,,,,,,,,,,,,,,,,,,,,,,,,,,,,,,,,,,,,,,,,,,,,,,,,,,,,,,,,,,,,,,,,,,,,,,,,,,
,,,,,,5e722b8cffc65d01103bbc8a,629c523699299cb1d11838ab,2022-06-05_08h51.03.281,Colour_Asymmetry_Pilot,2022.1.3,Win32,60.9236018,629c4b6caf241d5e6e00bfc0,,,,,,,,,,,,,,,,,,,"[-0.9138,-0.5296000000000001,-0.5529999999999999]",threeone,"[0.37240000000000006,-0.050999999999999934,-0.5216]",-3,2.0659,-68.66662598,37.33331299,1,0,0,response7disk_5,-2.666625977,0.666656494,1,0,0,rectangle_8,-2.666625977,0.666656494,1,0,0,1,-2.666625977,0.666656494,1,0,0,4,0,4,0,1,,,,,,,,,,,,,,,,,,,,,,,,,,,,,,,,,,,,,,,,,,,,,,,,,,,,,,,,,,,,,,,,,,,,,,,,,,,,,,,,,,,,,,,,,,,,,,,
,,,,,,5e722b8cffc65d01103bbc8a,629c523699299cb1d11838ab,2022-06-05_08h51.03.281,Colour_Asymmetry_Pilot,2022.1.3,Win32,60.9236018,629c4b6caf241d5e6e00bfc0,,,,,,,,,,,,,,,,,,,"[-0.09019999999999995,0.44300000000000006,0.5371999999999999]",fourthree,"[-0.8118,-0.8198,-0.5452]",-4,2.1666,-42.66662598,89.33331299,1,0,0,response7disk_5,4.666687012,10.66665649,1,0,0,rectangle_8,4.666687012,10.66665649,1,0,0,1,4.666687012,10.66665649,1,0,0,5,0,5,0,1,,,,,,,,,,,,,,,,,,,,,,,,,,,,,,,,,,,,,,,,,,,,,,,,,,,,,,,,,,,,,,,,,,,,,,,,,,,,,,,,,,,,,,,,,,,,,,,
,,,,,,5e722b8cffc65d01103bbc8a,629c523699299cb1d11838ab,2022-06-05_08h51.03.281,Colour_Asymmetry_Pilot,2022.1.3,Win32,60.9236018,629c4b6caf241d5e6e00bfc0,,,,,,,,,,,,,,,,,,,"[-0.5922000000000001,-0.7492000000000001,-0.5296000000000001]",fourthree,"[0.6547999999999998,-0.043199999999999905,-0.011800000000000033]",-3,1.616,-64,34.66665649,1,0,0,response7disk_5,-8,4.666656494,1,0,0,rectangle_8,-8,4.666656494,1,0,0,1,-8,4.666656494,1,0,0,6,0,6,0,1,,,,,,,,,,,,,,,,,,,,,,,,,,,,,,,,,,,,,,,,,,,,,,,,,,,,,,,,,,,,,,,,,,,,,,,,,,,,,,,,,,,,,,,,,,,,,,,
,,,,,,5e722b8cffc65d01103bbc8a,629c523699299cb1d11838ab,2022-06-05_08h51.03.281,Colour_Asymmetry_Pilot,2022.1.3,Win32,60.9236018,629c4b6caf241d5e6e00bfc0,,,,,,,,,,,,,,,,,,,,onethree,,-2,1.9157,,,,,,,,,,,,,,,,,,,,,,,,,,,,,,,,space,3.9531,"[1,0.12939999999999996,-1]","[-0.011800000000000033,-0.906,-0.45100000000000007]",-76,-39.33334351,1,0,0,response5disk,-10,-1.333343506,1,0,0,rectangle,-10,-1.333343506,1,0,0,,3,0.005,0,-10,-1.333343506,1,0,0,0,0,0,46,1,46,first,,,,,,,,,,,,,,,,,,,,,,,,,,,,,,,,,,,,,,,,,,,,,,,,,,,,,,,
,,,,,,5e722b8cffc65d01103bbc8a,629c523699299cb1d11838ab,2022-06-05_08h51.03.281,Colour_Asymmetry_Pilot,2022.1.3,Win32,60.9236018,629c4b6caf241d5e6e00bfc0,,,,,,,,,,,,,,,,,,,,twoone,,-4,0.9834,,,,,,,,,,,,,,,,,,,,,,,,,,,,,,,,,,"[-0.48240000000000005,0.3175999999999999,0.2156]","[0.9763999999999999,0.30979999999999985,-0.6786]",-29.33331299,61.33331299,1,0,0,response7disk,-5.333312988,2.666656494,1,0,0,rectangle,-5.333312988,2.666656494,1,0,0,,3,0.0002,0,-5.333312988,2.666656494,1,0,0,0,1,1,43,1,43,first,,,,,,,,,,,,,,,,,,,,,,,,,,,,,,,,,,,,,,,,,,,,,,,,,,,,,,,
,,,,,,5e722b8cffc65d01103bbc8a,629c523699299cb1d11838ab,2022-06-05_08h51.03.281,Colour_Asymmetry_Pilot,2022.1.3,Win32,60.9236018,629c4b6caf241d5e6e00bfc0,,,,,,,,,,,,,,,,,,,,twoone,,-3,9.0627,,,,,,,,,,,,,,,,,,,,,,,,,,,,,,,,,,"[-0.011800000000000033,-0.906,-0.45100000000000007]","[-0.6706000000000001,-0.6157999999999999,-0.6786]",-73.33331299,37.33331299,1,0,0,response7disk,13.33337402,5.333312988,1,0,0,rectangle,13.33337402,5.333312988,1,0,0,,1,0.0011,0,13.33337402,5.333312988,1,0,0,0,2,2,33,1,33,first,,,,,,,,,,,,,,,,,,,,,,,,,,,,,,,,,,,,,,,,,,,,,,,,,,,,,,,
,,,,,,5e722b8cffc65d01103bbc8a,629c523699299cb1d11838ab,2022-06-05_08h51.03.281,Colour_Asymmetry_Pilot,2022.1.3,Win32,60.9236018,629c4b6caf241d5e6e00bfc0,,,,,,,,,,,,,,,,,,,,onetwo,,-2,1.299,,,,,,,,,,,,,,,,,,,,,,,,,,,,,,,,,,"[0.6625999999999999,0.4980000000000002,-0.357]","[0.18419999999999992,-0.4276,-0.404]",-74,-37.33334351,1,0,0,response5disk,-6.666625977,-4,1,0,0,rectangle,-6.666625977,-4,1,0,0,,1,0.0002,0,-6.666625977,-4,1,0,0,0,3,3,133,1,52,second,,,,,,,,,,,,,,,,,,,,,,,,,,,,,,,,,,,,,,,,,,,,,,,,,,,,,,,
,,,,,,5e722b8cffc65d01103bbc8a,629c523699299cb1d11838ab,2022-06-05_08h51.03.281,Colour_Asymmetry_Pilot,2022.1.3,Win32,60.9236018,629c4b6caf241d5e6e00bfc0,,,,,,,,,,,,,,,,,,,,onethree,,-1,1.7155,,,,,,,,,,,,,,,,,,,,,,,,,,,,,,,,,,"[0.18419999999999992,-0.4276,-0.404]","[-0.5922000000000001,-0.7492000000000001,-0.5296000000000001]",-44,-61.33334351,1,0,0,response5disk,-2,-4.666687012,1,0,0,rectangle,-2,-4.666687012,1,0,0,,2,0.0031,0,-2,-4.666687012,1,0,0,0,4,4,74,1,74,first,,,,,,,,,,,,,,,,,,,,,,,,,,,,,,,,,,,,,,,,,,,,,,,,,,,,,,,
,,,,,,5e722b8cffc65d01103bbc8a,629c523699299cb1d11838ab,2022-06-05_08h51.03.281,Colour_Asymmetry_Pilot,2022.1.3,Win32,60.9236018,629c4b6caf241d5e6e00bfc0,,,,,,,,,,,,,,,,,,,,twoone,,-4,0.9659,,,,,,,,,,,,,,,,,,,,,,,,,,,,,,,,,,"[0.7018,0.7176,0.6155999999999999]","[0.22340000000000004,-0.9296,-0.7884]",-40,60.66665649,1,0,0,response7disk,-4,-4.666687012,1,0,0,rectangle,-4,-4.666687012,1,0,0,,1,0.0027,0,-4,-4.666687012,1,0,0,0,5,5,130,1,49,second,,,,,,,,,,,,,,,,,,,,,,,,,,,,,,,,,,,,,,,,,,,,,,,,,,,,,,,
,,,,,,5e722b8cffc65d01103bbc8a,629c523699299cb1d11838ab,2022-06-05_08h51.03.281,Colour_Asymmetry_Pilot,2022.1.3,Win32,60.9236018,629c4b6caf241d5e6e00bfc0,,,,,,,,,,,,,,,,,,,,onetwo,,-3,1.0828,,,,,,,,,,,,,,,,,,,,,,,,,,,,,,,,,,"[0.18419999999999992,-0.4276,-0.404]","[0.19199999999999995,0.18419999999999992,0.5136000000000001]",-64,30.66665649,1,0,0,response7disk,-9.333312988,-4,1,0,0,rectangle,-9.333312988,-4,1,0,0,,3,0.0022,0,-9.333312988,-4,1,0,0,0,6,6,19,1,19,first,,,,,,,,,,,,,,,,,,,,,,,,,,,,,,,,,,,,,,,,,,,,,,,,,,,,,,,
,,,,,,5e722b8cffc65d01103bbc8a,629c523699299cb1d11838ab,2022-06-05_08h51.03.281,Colour_Asymmetry_Pilot,2022.1.3,Win32,60.9236018,629c4b6caf241d5e6e00bfc0,,,,,,,,,,,,,,,,,,,,fourtwo,,1,1.6323,,,,,,,,,,,,,,,,,,,,,,,,,,,,,,,,,,"[-0.9766,-0.34920000000000007,0.2156]","[-0.5922000000000001,-0.7492000000000001,-0.5296000000000001]",48.66668701,-72,1,0,0,response3disk,-4,-4,1,0,0,rectangle,-4,-4,1,0,0,,1,0.0061,0,-4,-4,1,0,0,0,7,7,95,1,14,second,,,,,,,,,,,,,,,,,,,,,,,,,,,,,,,,,,,,,,,,,,,,,,,,,,,,,,,
,,,,,,5e722b8cffc65d01103bbc8a,629c523699299cb1d11838ab,2022-06-05_08h51.03.281,Colour_Asymmetry_Pilot,2022.1.3,Win32,60.9236018,629c4b6caf241d5e6e00bfc0,,,,,,,,,,,,,,,,,,,,fourtwo,,-1,1.2497,,,,,,,,,,,,,,,,,,,,,,,,,,,,,,,,,,"[0.3802000000000001,0.19199999999999995,-0.6394]","[-0.011800000000000033,-0.906,-0.45100000000000007]",-29.33331299,-90,1,0,0,response5disk,-4,10,1,0,0,rectangle,-4,10,1,0,0,,2,0.0012,0,-4,10,1,0,0,0,8,8,117,1,36,second,,,,,,,,,,,,,,,,,,,,,,,,,,,,,,,,,,,,,,,,,,,,,,,,,,,,,,,
,,,,,,5e722b8cffc65d01103bbc8a,629c523699299cb1d11838ab,2022-06-05_08h51.03.281,Colour_Asymmetry_Pilot,2022.1.3,Win32,60.9236018,629c4b6caf241d5e6e00bfc0,,,,,,,,,,,,,,,,,,,,threeone,,1,1.766,,,,,,,,,,,,,,,,,,,,,,,,,,,,,,,,,,"[-0.2942,-0.7648,-0.7492000000000001]","[0.18419999999999992,-0.4276,-0.404]",39.33337402,-70,1,0,0,response3disk,-3.333312988,-6.666687012,1,0,0,rectangle,-3.333312988,-6.666687012,1,0,0,,3,0.0023,0,-3.333312988,-6.666687012,1,0,0,0,9,9,92,1,11,second,,,,,,,,,,,,,,,,,,,,,,,,,,,,,,,,,,,,,,,,,,,,,,,,,,,,,,,
,,,,,,5e722b8cffc65d01103bbc8a,629c523699299cb1d11838ab,2022-06-05_08h51.03.281,Colour_Asymmetry_Pilot,2022.1.3,Win32,60.9236018,629c4b6caf241d5e6e00bfc0,,,,,,,,,,,,,,,,,,,,threeone,,1,1.1165,,,,,,,,,,,,,,,,,,,,,,,,,,,,,,,,,,"[0.37240000000000006,-0.050999999999999934,-0.5216]","[0.4196,0.4665999999999999,0.3568]",46,-66,1,0,0,response3disk,3.333374023,4.666656494,1,0,0,rectangle,3.333374023,4.666656494,1,0,0,,1,0.0029,0,3.333374023,4.666656494,1,0,0,0,10,10,12,1,12,first,,,,,,,,,,,,,,,,,,,,,,,,,,,,,,,,,,,,,,,,,,,,,,,,,,,,,,,
,,,,,,5e722b8cffc65d01103bbc8a,629c523699299cb1d11838ab,2022-06-05_08h51.03.281,Colour_Asymmetry_Pilot,2022.1.3,Win32,60.9236018,629c4b6caf241d5e6e00bfc0,,,,,,,,,,,,,,,,,,,,fourtwo,,1,0.9161,,,,,,,,,,,,,,,,,,,,,,,,,,,,,,,,,,"[0.9372,0.9450000000000001,0.8980000000000001]","[0.9763999999999999,0.8588,-0.05900000000000005]",29.33337402,-62.66668701,1,0,0,response3disk,-5.333312988,2.666656494,1,0,0,rectangle,-5.333312988,2.666656494,1,0,0,,2,0.0011,0,-5.333312988,2.666656494,1,0,0,0,11,11,39,1,39,first,,,,,,,,,,,,,,,,,,,,,,,,,,,,,,,,,,,,,,,,,,,,,,,,,,,,,,,
,,,,,,5e722b8cffc65d01103bbc8a,629c523699299cb1d11838ab,2022-06-05_08h51.03.281,Colour_Asymmetry_Pilot,2022.1.3,Win32,60.9236018,629c4b6caf241d5e6e00bfc0,,,,,,,,,,,,,,,,,,,,onetwo,,-1,1.2997,,,,,,,,,,,,,,,,,,,,,,,,,,,,,,,,,,"[-0.8118,-0.8198,-0.5452]","[-0.050999999999999934,-0.6706000000000001,-0.804]",-40.66662598,-67.33334351,1,0,0,response5disk,12.66668701,-1.333343506,1,0,0,rectangle,12.66668701,-1.333343506,1,0,0,,3,0.0013,0,12.66668701,-1.333343506,1,0,0,0,12,12,113,1,32,second,,,,,,,,,,,,,,,,,,,,,,,,,,,,,,,,,,,,,,,,,,,,,,,,,,,,,,,
,,,,,,5e722b8cffc65d01103bbc8a,629c523699299cb1d11838ab,2022-06-05_08h51.03.281,Colour_Asymmetry_Pilot,2022.1.3,Win32,60.9236018,629c4b6caf241d5e6e00bfc0,,,,,,,,,,,,,,,,,,,,twofour,,-2,1.5333,,,,,,,,,,,,,,,,,,,,,,,,,,,,,,,,,,"[0.8115999999999999,-0.0040000000000000036,-0.09819999999999995]","[-0.9216,-0.5529999999999999,-0.3962]",-68.66662598,-44.66668701,1,0,0,response5disk,6.666687012,-1.333343506,1,0,0,rectangle,6.666687012,-1.333343506,1,0,0,,1,0.0027,0,6.666687012,-1.333343506,1,0,0,0,13,13,41,1,41,first,,,,,,,,,,,,,,,,,,,,,,,,,,,,,,,,,,,,,,,,,,,,,,,,,,,,,,,
,,,,,,5e722b8cffc65d01103bbc8a,629c523699299cb1d11838ab,2022-06-05_08h51.03.281,Colour_Asymmetry_Pilot,2022.1.3,Win32,60.9236018,629c4b6caf241d5e6e00bfc0,,,,,,,,,,,,,,,,,,,,fourthree,,1,1.4163,,,,,,,,,,,,,,,,,,,,,,,,,,,,,,,,,,"[-0.9766,-0.34920000000000007,0.2156]","[0.19199999999999995,0.18419999999999992,0.5136000000000001]",26,-61.33334351,1,0,0,response3disk,-6,-1.333343506,1,0,0,rectangle,-6,-1.333343506,1,0,0,,1,0.0004,0,-6,-1.333343506,1,0,0,0,14,14,126,1,45,second,,,,,,,,,,,,,,,,,,,,,,,,,,,,,,,,,,,,,,,,,,,,,,,,,,,,,,,
,,,,,,5e722b8cffc65d01103bbc8a,629c523699299cb1d11838ab,2022-06-05_08h51.03.281,Colour_Asymmetry_Pilot,2022.1.3,Win32,60.9236018,629c4b6caf241d5e6e00bfc0,,,,,,,,,,,,,,,,,,,,threeone,,-1,1.1829,,,,,,,,,,,,,,,,,,,,,,,,,,,,,,,,,,"[0.9372,0.20779999999999998,0.2704]","[0.05879999999999996,0.2784,0.5841999999999998]",-24,-72,1,0,0,response5disk,1.333374023,-1.333343506,1,0,0,rectangle,1.333374023,-1.333343506,1,0,0,,3,0.0026,0,1.333374023,-1.333343506,1,0,0,0,15,15,61,1,61,first,,,,,,,,,,,,,,,,,,,,,,,,,,,,,,,,,,,,,,,,,,,,,,,,,,,,,,,
,,,,,,5e722b8cffc65d01103bbc8a,629c523699299cb1d11838ab,2022-06-05_08h51.03.281,Colour_Asymmetry_Pilot,2022.1.3,Win32,60.9236018,629c4b6caf241d5e6e00bfc0,,,,,,,,,,,,,,,,,,,,threefour,,-1,1.0327,,,,,,,,,,,,,,,,,,,,,,,,,,,,,,,,,,"[0.2784,-0.31000000000000005,-0.5452]","[0.2862,0.7802,0.3568]",-30,-82,1,0,0,response5disk,-1.333312988,-0.666687012,1,0,0,rectangle,-1.333312988,-0.666687012,1,0,0,,3,0.0003,0,-1.333312988,-0.666687012,1,0,0,0,16,16,91,1,10,second,,,,,,,,,,,,,,,,,,,,,,,,,,,,,,,,,,,,,,,,,,,,,,,,,,,,,,,
,,,,,,5e722b8cffc65d01103bbc8a,629c523699299cb1d11838ab,2022-06-05_08h51.03.281,Colour_Asymmetry_Pilot,2022.1.3,Win32,60.9236018,629c4b6caf241d5e6e00bfc0,,,,,,,,,,,,,,,,,,,,onetwo,,-2,1.1823,,,,,,,,,,,,,,,,,,,,,,,,,,,,,,,,,,"[-0.4746,-0.0354000000000001,0.5449999999999999]","[0.9686000000000001,0.5763999999999998,0.11359999999999992]",-55.33331299,-25.33334351,1,0,0,response5disk,-2.666625977,9.333312988,1,0,0,rectangle,-2.666625977,9.333312988,1,0,0,,3,0.0003,0,-2.666625977,9.333312988,1,0,0,0,17,17,2,1,2,first,,,,,,,,,,,,,,,,,,,,,,,,,,,,,,,,,,,,,,,,,,,,,,,,,,,,,,,
,,,,,,5e722b8cffc65d01103bbc8a,629c523699299cb1d11838ab,2022-06-05_08h51.03.281,Colour_Asymmetry_Pilot,2022.1.3,Win32,60.9236018,629c4b6caf241d5e6e00bfc0,,,,,,,,,,,,,,,,,,,,onethree,,-4,2.1669,,,,,,,,,,,,,,,,,,,,,,,,,,,,,,,,,,"[-0.6235999999999999,-0.6786,-0.08239999999999992]","[0.3568,-0.20799999999999996,-0.9844]",-33.33331299,84,1,0,0,response7disk,-2,2.666656494,1,0,0,rectangle,-2,2.666656494,1,0,0,,2,0.0018,0,-2,2.666656494,1,0,0,0,18,18,132,1,51,second,,,,,,,,,,,,,,,,,,,,,,,,,,,,,,,,,,,,,,,,,,,,,,,,,,,,,,,
,,,,,,5e722b8cffc65d01103bbc8a,629c523699299cb1d11838ab,2022-06-05_08h51.03.281,Colour_Asymmetry_Pilot,2022.1.3,Win32,60.9236018,629c4b6caf241d5e6e00bfc0,,,,,,,,,,,,,,,,,,,,threefour,,-1,1.3494,,,,,,,,,,,,,,,,,,,,,,,,,,,,,,,,,,"[0.9213999999999998,0.6391999999999998,-0.9922]","[0.23920000000000008,0.2704,0.16060000000000008]",-29.33331299,-58,1,0,0,response5disk,2,-2,1,0,0,rectangle,42,-79.33334351,1,0,0,1,1,2.6019,1,-8.666625977,8,1,0,0,0,19,19,76,1,76,first,response3disk_3,rectangle,,,,,,,,,,,,,,,,,,,,,,,,,,,,,,,,,,,,,,,,,,,,,,,,,,,,,
,,,,,,5e722b8cffc65d01103bbc8a,629c523699299cb1d11838ab,2022-06-05_08h51.03.281,Colour_Asymmetry_Pilot,2022.1.3,Win32,60.9236018,629c4b6caf241d5e6e00bfc0,,,,,,,,,,,,,,,,,,,,threefour,,-1,2.1159,,,,,,,,,,,,,,,,,,,,,,,,,,,,,,,,,,"[0.2784,-0.31000000000000005,-0.5452]","[0.5528,0.7409999999999999,-0.71]",-26,-62.66668701,1,0,0,response5disk,8,4,1,0,0,rectangle,8,4,1,0,0,1,2,0.0036,0,8,4,1,0,0,0,20,20,107,1,26,second,,,,,,,,,,,,,,,,,,,,,,,,,,,,,,,,,,,,,,,,,,,,,,,,,,,,,,,
,,,,,,5e722b8cffc65d01103bbc8a,629c523699299cb1d11838ab,2022-06-05_08h51.03.281,Colour_Asymmetry_Pilot,2022.1.3,Win32,60.9236018,629c4b6caf241d5e6e00bfc0,,,,,,,,,,,,,,,,,,,,twofour,,1,1.1161,,,,,,,,,,,,,,,,,,,,,,,,,,,,,,,,,,"[-0.01980000000000004,-0.5138,-0.38039999999999996]","[-0.10599999999999998,-0.15300000000000002,0.15280000000000005]",44.66668701,-78.66668701,1,0,0,response3disk,4.666687012,-5.333343506,1,0,0,rectangle,4.666687012,-5.333343506,1,0,0,1,2,0.0002,0,4.666687012,-5.333343506,1,0,0,0,21,21,68,1,68,first,,,,,,,,,,,,,,,,,,,,,,,,,,,,,,,,,,,,,,,,,,,,,,,,,,,,,,,
,,,,,,5e722b8cffc65d01103bbc8a,629c523699299cb1d11838ab,2022-06-05_08h51.03.281,Colour_Asymmetry_Pilot,2022.1.3,Win32,60.9236018,629c4b6caf241d5e6e00bfc0,,,,,,,,,,,,,,,,,,,,fourthree,,1,1.8491,,,,,,,,,,,,,,,,,,,,,,,,,,,,,,,,,,"[0.0351999999999999,0.41159999999999997,0.0038000000000000256]","[-0.48240000000000005,0.3175999999999999,0.2156]",38.66668701,-64.66668701,1,0,0,response3disk,2,-4,1,0,0,rectangle,2,-4,1,0,0,1,3,0.0019,0,2,-4,1,0,0,0,22,22,123,1,42,second,,,,,,,,,,,,,,,,,,,,,,,,,,,,,,,,,,,,,,,,,,,,,,,,,,,,,,,
,,,,,,5e722b8cffc65d01103bbc8a,629c523699299cb1d11838ab,2022-06-05_08h51.03.281,Colour_Asymmetry_Pilot,2022.1.3,Win32,60.9236018,629c4b6caf241d5e6e00bfc0,,,,,,,,,,,,,,,,,,,,fourtwo,,-3,2.5323,,,,,,,,,,,,,,,,,,,,,,,,,,,,,,,,,,"[-0.9688,-0.7412000000000001,-0.4902000000000001]","[0.3568,-0.20799999999999996,-0.9844]",-72,20.66665649,1,0,0,response7disk,-14,-2,1,0,0,rectangle,-14,-2,1,0,0,1,3,0.0002,0,-14,-2,1,0,0,0,23,23,57,1,57,first,,,,,,,,,,,,,,,,,,,,,,,,,,,,,,,,,,,,,,,,,,,,,,,,,,,,,,,
,,,,,,5e722b8cffc65d01103bbc8a,629c523699299cb1d11838ab,2022-06-05_08h51.03.281,Colour_Asymmetry_Pilot,2022.1.3,Win32,60.9236018,629c4b6caf241d5e6e00bfc0,,,,,,,,,,,,,,,,,,,,threefour,,1,1.4328,,,,,,,,,,,,,,,,,,,,,,,,,,,,,,,,,,"[0.9686000000000001,0.5763999999999998,0.11359999999999992]","[0.34099999999999997,0.5841999999999998,-0.9844]",33.33337402,-77.33334351,1,0,0,response3disk,5.333374023,0.666656494,1,0,0,rectangle,5.333374023,0.666656494,1,0,0,1,3,0.0012,0,5.333374023,0.666656494,1,0,0,0,24,24,70,1,70,first,,,,,,,,,,,,,,,,,,,,,,,,,,,,,,,,,,,,,,,,,,,,,,,,,,,,,,,
