trials.thisRepN,trials.thisTrialN,trials.thisN,trials.thisIndex,trials.ran,Colourcodes,participant,session,date,expName,psychopyVersion,OS,frameRate,study_id,trials_4.thisRepN,trials_4.thisTrialN,trials_4.thisN,trials_4.thisIndex,trials_4.ran,StimulusPos,key_resp.keys,key_resp.rt,key_resp_2.keys,key_resp_2.rt,key_resp_15.keys,key_resp_15.rt,key_resp_17.keys,key_resp_17.rt,key_resp_9.keys,key_resp_9.rt,key_resp_10.keys,key_resp_10.rt,Circle1_col,Ecc,Circle2_col,similarity,response_time,mouse_5.x,mouse_5.y,mouse_5.leftButton,mouse_5.midButton,mouse_5.rightButton,mouse_5.clicked_name,mouse_10.x,mouse_10.y,mouse_10.leftButton,mouse_10.midButton,mouse_10.rightButton,mouse_10.clicked_name,mouse_7.x,mouse_7.y,mouse_7.leftButton,mouse_7.midButton,mouse_7.rightButton,catchnumberprac,mouse_6.x,mouse_6.y,mouse_6.leftButton,mouse_6.midButton,mouse_6.rightButton,duringprac.thisRepN,duringprac.thisTrialN,duringprac.thisN,duringprac.thisIndex,duringprac.ran,mouse_7.clicked_name,catchprac,mouse_6.clicked_name,key_resp_22.keys,key_resp_22.rt,Circle1_colour,Circle2_colour,mouse.x,mouse.y,mouse.leftButton,mouse.midButton,mouse.rightButton,mouse.clicked_name,mouse_2.x,mouse_2.y,mouse_2.leftButton,mouse_2.midButton,mouse_2.rightButton,mouse_2.clicked_name,mouse_3.x,mouse_3.y,mouse_3.leftButton,mouse_3.midButton,mouse_3.rightButton,catchresponse,catchnumber,response_time_catch,Catch,mouse_11.x,mouse_11.y,mouse_11.leftButton,mouse_11.midButton,mouse_11.rightButton,trials_2.thisRepN,trials_2.thisTrialN,trials_2.thisN,trials_2.thisIndex,trials_2.ran,Colourpair,Temporder,mouse_3.clicked_name,mouse_11.clicked_name,trials_3.thisRepN,trials_3.thisTrialN,trials_3.thisN,trials_3.thisIndex,trials_3.ran,key_resp_instr_Ishi.keys,key_resp_instr_Ishi.rt,Ishi_trial_keyresp.keys,Ishi_trial_keyresp.rt,Ishi_textbox.text,Ishi_loop.thisRepN,Ishi_loop.thisTrialN,Ishi_loop.thisN,Ishi_loop.thisIndex,Ishi_loop.ran,imageaddress,textbox.text,mouse_4.x,mouse_4.y,mouse_4.leftButton,mouse_4.midButton,mouse_4.rightButton,mouse_4.clicked_name,textbox_2.text,mouse_8.x,mouse_8.y,mouse_8.leftButton,mouse_8.midButton,mouse_8.rightButton,mouse_8.clicked_name,textbox_3.text,mouse_9.x,mouse_9.y,mouse_9.leftButton,mouse_9.midButton,mouse_9.rightButton,mouse_9.clicked_name,textbox_4.text,mouse_12.x,mouse_12.y,mouse_12.leftButton,mouse_12.midButton,mouse_12.rightButton,mouse_12.clicked_name,textbox_5.text,mouse_13.x,mouse_13.y,mouse_13.leftButton,mouse_13.midButton,mouse_13.rightButton,mouse_13.clicked_name,textbox_6.text,mouse_14.x,mouse_14.y,mouse_14.leftButton,mouse_14.midButton,mouse_14.rightButton,mouse_14.clicked_name,textbox_7.text,mouse_15.x,mouse_15.y,mouse_15.leftButton,mouse_15.midButton,mouse_15.rightButton,mouse_15.clicked_name
0,0,0,28,1,,6102a52c8a4ed0d104d68a15,62bbf9391ce067b5633dbc50,2022-06-29_09h10.27.718,Colour_Asymmetry_Pilot,2022.1.3,Win32,64,62bbe60bf3d75ef465d3e404,,,,,,,,,,,,,,,,,,,,,,,,,,,,,,,,,,,,,,,,,,,,,,,,,,,,,,,,,,,,,,,,,,,,,,,,,,,,,,,,,,,,,,,,,,,,,,,,,,,,,,,,,,,,,,,,,,,,,,,,,,,,,,,,,,,,,,,,,,,,,,,,,,,,,,,,,,,,,,
0,1,1,30,1,,6102a52c8a4ed0d104d68a15,62bbf9391ce067b5633dbc50,2022-06-29_09h10.27.718,Colour_Asymmetry_Pilot,2022.1.3,Win32,64,62bbe60bf3d75ef465d3e404,,,,,,,,,,,,,,,,,,,,,,,,,,,,,,,,,,,,,,,,,,,,,,,,,,,,,,,,,,,,,,,,,,,,,,,,,,,,,,,,,,,,,,,,,,,,,,,,,,,,,,,,,,,,,,,,,,,,,,,,,,,,,,,,,,,,,,,,,,,,,,,,,,,,,,,,,,,,,,
0,2,2,79,1,,6102a52c8a4ed0d104d68a15,62bbf9391ce067b5633dbc50,2022-06-29_09h10.27.718,Colour_Asymmetry_Pilot,2022.1.3,Win32,64,62bbe60bf3d75ef465d3e404,,,,,,,,,,,,,,,,,,,,,,,,,,,,,,,,,,,,,,,,,,,,,,,,,,,,,,,,,,,,,,,,,,,,,,,,,,,,,,,,,,,,,,,,,,,,,,,,,,,,,,,,,,,,,,,,,,,,,,,,,,,,,,,,,,,,,,,,,,,,,,,,,,,,,,,,,,,,,,
0,3,3,15,1,,6102a52c8a4ed0d104d68a15,62bbf9391ce067b5633dbc50,2022-06-29_09h10.27.718,Colour_Asymmetry_Pilot,2022.1.3,Win32,64,62bbe60bf3d75ef465d3e404,,,,,,,,,,,,,,,,,,,,,,,,,,,,,,,,,,,,,,,,,,,,,,,,,,,,,,,,,,,,,,,,,,,,,,,,,,,,,,,,,,,,,,,,,,,,,,,,,,,,,,,,,,,,,,,,,,,,,,,,,,,,,,,,,,,,,,,,,,,,,,,,,,,,,,,,,,,,,,
0,4,4,4,1,,6102a52c8a4ed0d104d68a15,62bbf9391ce067b5633dbc50,2022-06-29_09h10.27.718,Colour_Asymmetry_Pilot,2022.1.3,Win32,64,62bbe60bf3d75ef465d3e404,,,,,,,,,,,,,,,,,,,,,,,,,,,,,,,,,,,,,,,,,,,,,,,,,,,,,,,,,,,,,,,,,,,,,,,,,,,,,,,,,,,,,,,,,,,,,,,,,,,,,,,,,,,,,,,,,,,,,,,,,,,,,,,,,,,,,,,,,,,,,,,,,,,,,,,,,,,,,,
0,5,5,66,1,,6102a52c8a4ed0d104d68a15,62bbf9391ce067b5633dbc50,2022-06-29_09h10.27.718,Colour_Asymmetry_Pilot,2022.1.3,Win32,64,62bbe60bf3d75ef465d3e404,,,,,,,,,,,,,,,,,,,,,,,,,,,,,,,,,,,,,,,,,,,,,,,,,,,,,,,,,,,,,,,,,,,,,,,,,,,,,,,,,,,,,,,,,,,,,,,,,,,,,,,,,,,,,,,,,,,,,,,,,,,,,,,,,,,,,,,,,,,,,,,,,,,,,,,,,,,,,,
0,6,6,19,1,,6102a52c8a4ed0d104d68a15,62bbf9391ce067b5633dbc50,2022-06-29_09h10.27.718,Colour_Asymmetry_Pilot,2022.1.3,Win32,64,62bbe60bf3d75ef465d3e404,,,,,,,,,,,,,,,,,,,,,,,,,,,,,,,,,,,,,,,,,,,,,,,,,,,,,,,,,,,,,,,,,,,,,,,,,,,,,,,,,,,,,,,,,,,,,,,,,,,,,,,,,,,,,,,,,,,,,,,,,,,,,,,,,,,,,,,,,,,,,,,,,,,,,,,,,,,,,,
0,7,7,37,1,,6102a52c8a4ed0d104d68a15,62bbf9391ce067b5633dbc50,2022-06-29_09h10.27.718,Colour_Asymmetry_Pilot,2022.1.3,Win32,64,62bbe60bf3d75ef465d3e404,,,,,,,,,,,,,,,,,,,,,,,,,,,,,,,,,,,,,,,,,,,,,,,,,,,,,,,,,,,,,,,,,,,,,,,,,,,,,,,,,,,,,,,,,,,,,,,,,,,,,,,,,,,,,,,,,,,,,,,,,,,,,,,,,,,,,,,,,,,,,,,,,,,,,,,,,,,,,,
0,8,8,33,1,,6102a52c8a4ed0d104d68a15,62bbf9391ce067b5633dbc50,2022-06-29_09h10.27.718,Colour_Asymmetry_Pilot,2022.1.3,Win32,64,62bbe60bf3d75ef465d3e404,,,,,,,,,,,,,,,,,,,,,,,,,,,,,,,,,,,,,,,,,,,,,,,,,,,,,,,,,,,,,,,,,,,,,,,,,,,,,,,,,,,,,,,,,,,,,,,,,,,,,,,,,,,,,,,,,,,,,,,,,,,,,,,,,,,,,,,,,,,,,,,,,,,,,,,,,,,,,,
0,9,9,2,1,,6102a52c8a4ed0d104d68a15,62bbf9391ce067b5633dbc50,2022-06-29_09h10.27.718,Colour_Asymmetry_Pilot,2022.1.3,Win32,64,62bbe60bf3d75ef465d3e404,,,,,,,,,,,,,,,,,,,,,,,,,,,,,,,,,,,,,,,,,,,,,,,,,,,,,,,,,,,,,,,,,,,,,,,,,,,,,,,,,,,,,,,,,,,,,,,,,,,,,,,,,,,,,,,,,,,,,,,,,,,,,,,,,,,,,,,,,,,,,,,,,,,,,,,,,,,,,,
0,10,10,84,1,,6102a52c8a4ed0d104d68a15,62bbf9391ce067b5633dbc50,2022-06-29_09h10.27.718,Colour_Asymmetry_Pilot,2022.1.3,Win32,64,62bbe60bf3d75ef465d3e404,,,,,,,,,,,,,,,,,,,,,,,,,,,,,,,,,,,,,,,,,,,,,,,,,,,,,,,,,,,,,,,,,,,,,,,,,,,,,,,,,,,,,,,,,,,,,,,,,,,,,,,,,,,,,,,,,,,,,,,,,,,,,,,,,,,,,,,,,,,,,,,,,,,,,,,,,,,,,,
0,11,11,18,1,,6102a52c8a4ed0d104d68a15,62bbf9391ce067b5633dbc50,2022-06-29_09h10.27.718,Colour_Asymmetry_Pilot,2022.1.3,Win32,64,62bbe60bf3d75ef465d3e404,,,,,,,,,,,,,,,,,,,,,,,,,,,,,,,,,,,,,,,,,,,,,,,,,,,,,,,,,,,,,,,,,,,,,,,,,,,,,,,,,,,,,,,,,,,,,,,,,,,,,,,,,,,,,,,,,,,,,,,,,,,,,,,,,,,,,,,,,,,,,,,,,,,,,,,,,,,,,,
0,12,12,0,1,,6102a52c8a4ed0d104d68a15,62bbf9391ce067b5633dbc50,2022-06-29_09h10.27.718,Colour_Asymmetry_Pilot,2022.1.3,Win32,64,62bbe60bf3d75ef465d3e404,,,,,,,,,,,,,,,,,,,,,,,,,,,,,,,,,,,,,,,,,,,,,,,,,,,,,,,,,,,,,,,,,,,,,,,,,,,,,,,,,,,,,,,,,,,,,,,,,,,,,,,,,,,,,,,,,,,,,,,,,,,,,,,,,,,,,,,,,,,,,,,,,,,,,,,,,,,,,,
0,13,13,1,1,,6102a52c8a4ed0d104d68a15,62bbf9391ce067b5633dbc50,2022-06-29_09h10.27.718,Colour_Asymmetry_Pilot,2022.1.3,Win32,64,62bbe60bf3d75ef465d3e404,,,,,,,,,,,,,,,,,,,,,,,,,,,,,,,,,,,,,,,,,,,,,,,,,,,,,,,,,,,,,,,,,,,,,,,,,,,,,,,,,,,,,,,,,,,,,,,,,,,,,,,,,,,,,,,,,,,,,,,,,,,,,,,,,,,,,,,,,,,,,,,,,,,,,,,,,,,,,,
0,14,14,13,1,,6102a52c8a4ed0d104d68a15,62bbf9391ce067b5633dbc50,2022-06-29_09h10.27.718,Colour_Asymmetry_Pilot,2022.1.3,Win32,64,62bbe60bf3d75ef465d3e404,,,,,,,,,,,,,,,,,,,,,,,,,,,,,,,,,,,,,,,,,,,,,,,,,,,,,,,,,,,,,,,,,,,,,,,,,,,,,,,,,,,,,,,,,,,,,,,,,,,,,,,,,,,,,,,,,,,,,,,,,,,,,,,,,,,,,,,,,,,,,,,,,,,,,,,,,,,,,,
0,15,15,85,1,,6102a52c8a4ed0d104d68a15,62bbf9391ce067b5633dbc50,2022-06-29_09h10.27.718,Colour_Asymmetry_Pilot,2022.1.3,Win32,64,62bbe60bf3d75ef465d3e404,,,,,,,,,,,,,,,,,,,,,,,,,,,,,,,,,,,,,,,,,,,,,,,,,,,,,,,,,,,,,,,,,,,,,,,,,,,,,,,,,,,,,,,,,,,,,,,,,,,,,,,,,,,,,,,,,,,,,,,,,,,,,,,,,,,,,,,,,,,,,,,,,,,,,,,,,,,,,,
0,16,16,10,1,,6102a52c8a4ed0d104d68a15,62bbf9391ce067b5633dbc50,2022-06-29_09h10.27.718,Colour_Asymmetry_Pilot,2022.1.3,Win32,64,62bbe60bf3d75ef465d3e404,,,,,,,,,,,,,,,,,,,,,,,,,,,,,,,,,,,,,,,,,,,,,,,,,,,,,,,,,,,,,,,,,,,,,,,,,,,,,,,,,,,,,,,,,,,,,,,,,,,,,,,,,,,,,,,,,,,,,,,,,,,,,,,,,,,,,,,,,,,,,,,,,,,,,,,,,,,,,,
0,17,17,74,1,,6102a52c8a4ed0d104d68a15,62bbf9391ce067b5633dbc50,2022-06-29_09h10.27.718,Colour_Asymmetry_Pilot,2022.1.3,Win32,64,62bbe60bf3d75ef465d3e404,,,,,,,,,,,,,,,,,,,,,,,,,,,,,,,,,,,,,,,,,,,,,,,,,,,,,,,,,,,,,,,,,,,,,,,,,,,,,,,,,,,,,,,,,,,,,,,,,,,,,,,,,,,,,,,,,,,,,,,,,,,,,,,,,,,,,,,,,,,,,,,,,,,,,,,,,,,,,,
0,18,18,49,1,,6102a52c8a4ed0d104d68a15,62bbf9391ce067b5633dbc50,2022-06-29_09h10.27.718,Colour_Asymmetry_Pilot,2022.1.3,Win32,64,62bbe60bf3d75ef465d3e404,,,,,,,,,,,,,,,,,,,,,,,,,,,,,,,,,,,,,,,,,,,,,,,,,,,,,,,,,,,,,,,,,,,,,,,,,,,,,,,,,,,,,,,,,,,,,,,,,,,,,,,,,,,,,,,,,,,,,,,,,,,,,,,,,,,,,,,,,,,,,,,,,,,,,,,,,,,,,,
0,19,19,40,1,,6102a52c8a4ed0d104d68a15,62bbf9391ce067b5633dbc50,2022-06-29_09h10.27.718,Colour_Asymmetry_Pilot,2022.1.3,Win32,64,62bbe60bf3d75ef465d3e404,,,,,,,,,,,,,,,,,,,,,,,,,,,,,,,,,,,,,,,,,,,,,,,,,,,,,,,,,,,,,,,,,,,,,,,,,,,,,,,,,,,,,,,,,,,,,,,,,,,,,,,,,,,,,,,,,,,,,,,,,,,,,,,,,,,,,,,,,,,,,,,,,,,,,,,,,,,,,,
0,20,20,52,1,,6102a52c8a4ed0d104d68a15,62bbf9391ce067b5633dbc50,2022-06-29_09h10.27.718,Colour_Asymmetry_Pilot,2022.1.3,Win32,64,62bbe60bf3d75ef465d3e404,,,,,,,,,,,,,,,,,,,,,,,,,,,,,,,,,,,,,,,,,,,,,,,,,,,,,,,,,,,,,,,,,,,,,,,,,,,,,,,,,,,,,,,,,,,,,,,,,,,,,,,,,,,,,,,,,,,,,,,,,,,,,,,,,,,,,,,,,,,,,,,,,,,,,,,,,,,,,,
0,21,21,86,1,,6102a52c8a4ed0d104d68a15,62bbf9391ce067b5633dbc50,2022-06-29_09h10.27.718,Colour_Asymmetry_Pilot,2022.1.3,Win32,64,62bbe60bf3d75ef465d3e404,,,,,,,,,,,,,,,,,,,,,,,,,,,,,,,,,,,,,,,,,,,,,,,,,,,,,,,,,,,,,,,,,,,,,,,,,,,,,,,,,,,,,,,,,,,,,,,,,,,,,,,,,,,,,,,,,,,,,,,,,,,,,,,,,,,,,,,,,,,,,,,,,,,,,,,,,,,,,,
0,22,22,36,1,,6102a52c8a4ed0d104d68a15,62bbf9391ce067b5633dbc50,2022-06-29_09h10.27.718,Colour_Asymmetry_Pilot,2022.1.3,Win32,64,62bbe60bf3d75ef465d3e404,,,,,,,,,,,,,,,,,,,,,,,,,,,,,,,,,,,,,,,,,,,,,,,,,,,,,,,,,,,,,,,,,,,,,,,,,,,,,,,,,,,,,,,,,,,,,,,,,,,,,,,,,,,,,,,,,,,,,,,,,,,,,,,,,,,,,,,,,,,,,,,,,,,,,,,,,,,,,,
0,23,23,24,1,,6102a52c8a4ed0d104d68a15,62bbf9391ce067b5633dbc50,2022-06-29_09h10.27.718,Colour_Asymmetry_Pilot,2022.1.3,Win32,64,62bbe60bf3d75ef465d3e404,,,,,,,,,,,,,,,,,,,,,,,,,,,,,,,,,,,,,,,,,,,,,,,,,,,,,,,,,,,,,,,,,,,,,,,,,,,,,,,,,,,,,,,,,,,,,,,,,,,,,,,,,,,,,,,,,,,,,,,,,,,,,,,,,,,,,,,,,,,,,,,,,,,,,,,,,,,,,,
0,24,24,34,1,,6102a52c8a4ed0d104d68a15,62bbf9391ce067b5633dbc50,2022-06-29_09h10.27.718,Colour_Asymmetry_Pilot,2022.1.3,Win32,64,62bbe60bf3d75ef465d3e404,,,,,,,,,,,,,,,,,,,,,,,,,,,,,,,,,,,,,,,,,,,,,,,,,,,,,,,,,,,,,,,,,,,,,,,,,,,,,,,,,,,,,,,,,,,,,,,,,,,,,,,,,,,,,,,,,,,,,,,,,,,,,,,,,,,,,,,,,,,,,,,,,,,,,,,,,,,,,,
0,25,25,92,1,,6102a52c8a4ed0d104d68a15,62bbf9391ce067b5633dbc50,2022-06-29_09h10.27.718,Colour_Asymmetry_Pilot,2022.1.3,Win32,64,62bbe60bf3d75ef465d3e404,,,,,,,,,,,,,,,,,,,,,,,,,,,,,,,,,,,,,,,,,,,,,,,,,,,,,,,,,,,,,,,,,,,,,,,,,,,,,,,,,,,,,,,,,,,,,,,,,,,,,,,,,,,,,,,,,,,,,,,,,,,,,,,,,,,,,,,,,,,,,,,,,,,,,,,,,,,,,,
0,26,26,77,1,,6102a52c8a4ed0d104d68a15,62bbf9391ce067b5633dbc50,2022-06-29_09h10.27.718,Colour_Asymmetry_Pilot,2022.1.3,Win32,64,62bbe60bf3d75ef465d3e404,,,,,,,,,,,,,,,,,,,,,,,,,,,,,,,,,,,,,,,,,,,,,,,,,,,,,,,,,,,,,,,,,,,,,,,,,,,,,,,,,,,,,,,,,,,,,,,,,,,,,,,,,,,,,,,,,,,,,,,,,,,,,,,,,,,,,,,,,,,,,,,,,,,,,,,,,,,,,,
0,27,27,89,1,,6102a52c8a4ed0d104d68a15,62bbf9391ce067b5633dbc50,2022-06-29_09h10.27.718,Colour_Asymmetry_Pilot,2022.1.3,Win32,64,62bbe60bf3d75ef465d3e404,,,,,,,,,,,,,,,,,,,,,,,,,,,,,,,,,,,,,,,,,,,,,,,,,,,,,,,,,,,,,,,,,,,,,,,,,,,,,,,,,,,,,,,,,,,,,,,,,,,,,,,,,,,,,,,,,,,,,,,,,,,,,,,,,,,,,,,,,,,,,,,,,,,,,,,,,,,,,,
0,28,28,53,1,,6102a52c8a4ed0d104d68a15,62bbf9391ce067b5633dbc50,2022-06-29_09h10.27.718,Colour_Asymmetry_Pilot,2022.1.3,Win32,64,62bbe60bf3d75ef465d3e404,,,,,,,,,,,,,,,,,,,,,,,,,,,,,,,,,,,,,,,,,,,,,,,,,,,,,,,,,,,,,,,,,,,,,,,,,,,,,,,,,,,,,,,,,,,,,,,,,,,,,,,,,,,,,,,,,,,,,,,,,,,,,,,,,,,,,,,,,,,,,,,,,,,,,,,,,,,,,,
0,29,29,83,1,,6102a52c8a4ed0d104d68a15,62bbf9391ce067b5633dbc50,2022-06-29_09h10.27.718,Colour_Asymmetry_Pilot,2022.1.3,Win32,64,62bbe60bf3d75ef465d3e404,,,,,,,,,,,,,,,,,,,,,,,,,,,,,,,,,,,,,,,,,,,,,,,,,,,,,,,,,,,,,,,,,,,,,,,,,,,,,,,,,,,,,,,,,,,,,,,,,,,,,,,,,,,,,,,,,,,,,,,,,,,,,,,,,,,,,,,,,,,,,,,,,,,,,,,,,,,,,,
0,30,30,31,1,,6102a52c8a4ed0d104d68a15,62bbf9391ce067b5633dbc50,2022-06-29_09h10.27.718,Colour_Asymmetry_Pilot,2022.1.3,Win32,64,62bbe60bf3d75ef465d3e404,,,,,,,,,,,,,,,,,,,,,,,,,,,,,,,,,,,,,,,,,,,,,,,,,,,,,,,,,,,,,,,,,,,,,,,,,,,,,,,,,,,,,,,,,,,,,,,,,,,,,,,,,,,,,,,,,,,,,,,,,,,,,,,,,,,,,,,,,,,,,,,,,,,,,,,,,,,,,,
0,31,31,11,1,,6102a52c8a4ed0d104d68a15,62bbf9391ce067b5633dbc50,2022-06-29_09h10.27.718,Colour_Asymmetry_Pilot,2022.1.3,Win32,64,62bbe60bf3d75ef465d3e404,,,,,,,,,,,,,,,,,,,,,,,,,,,,,,,,,,,,,,,,,,,,,,,,,,,,,,,,,,,,,,,,,,,,,,,,,,,,,,,,,,,,,,,,,,,,,,,,,,,,,,,,,,,,,,,,,,,,,,,,,,,,,,,,,,,,,,,,,,,,,,,,,,,,,,,,,,,,,,
0,32,32,45,1,,6102a52c8a4ed0d104d68a15,62bbf9391ce067b5633dbc50,2022-06-29_09h10.27.718,Colour_Asymmetry_Pilot,2022.1.3,Win32,64,62bbe60bf3d75ef465d3e404,,,,,,,,,,,,,,,,,,,,,,,,,,,,,,,,,,,,,,,,,,,,,,,,,,,,,,,,,,,,,,,,,,,,,,,,,,,,,,,,,,,,,,,,,,,,,,,,,,,,,,,,,,,,,,,,,,,,,,,,,,,,,,,,,,,,,,,,,,,,,,,,,,,,,,,,,,,,,,
0,33,33,3,1,,6102a52c8a4ed0d104d68a15,62bbf9391ce067b5633dbc50,2022-06-29_09h10.27.718,Colour_Asymmetry_Pilot,2022.1.3,Win32,64,62bbe60bf3d75ef465d3e404,,,,,,,,,,,,,,,,,,,,,,,,,,,,,,,,,,,,,,,,,,,,,,,,,,,,,,,,,,,,,,,,,,,,,,,,,,,,,,,,,,,,,,,,,,,,,,,,,,,,,,,,,,,,,,,,,,,,,,,,,,,,,,,,,,,,,,,,,,,,,,,,,,,,,,,,,,,,,,
0,34,34,27,1,,6102a52c8a4ed0d104d68a15,62bbf9391ce067b5633dbc50,2022-06-29_09h10.27.718,Colour_Asymmetry_Pilot,2022.1.3,Win32,64,62bbe60bf3d75ef465d3e404,,,,,,,,,,,,,,,,,,,,,,,,,,,,,,,,,,,,,,,,,,,,,,,,,,,,,,,,,,,,,,,,,,,,,,,,,,,,,,,,,,,,,,,,,,,,,,,,,,,,,,,,,,,,,,,,,,,,,,,,,,,,,,,,,,,,,,,,,,,,,,,,,,,,,,,,,,,,,,
0,35,35,87,1,,6102a52c8a4ed0d104d68a15,62bbf9391ce067b5633dbc50,2022-06-29_09h10.27.718,Colour_Asymmetry_Pilot,2022.1.3,Win32,64,62bbe60bf3d75ef465d3e404,,,,,,,,,,,,,,,,,,,,,,,,,,,,,,,,,,,,,,,,,,,,,,,,,,,,,,,,,,,,,,,,,,,,,,,,,,,,,,,,,,,,,,,,,,,,,,,,,,,,,,,,,,,,,,,,,,,,,,,,,,,,,,,,,,,,,,,,,,,,,,,,,,,,,,,,,,,,,,
0,36,36,14,1,,6102a52c8a4ed0d104d68a15,62bbf9391ce067b5633dbc50,2022-06-29_09h10.27.718,Colour_Asymmetry_Pilot,2022.1.3,Win32,64,62bbe60bf3d75ef465d3e404,,,,,,,,,,,,,,,,,,,,,,,,,,,,,,,,,,,,,,,,,,,,,,,,,,,,,,,,,,,,,,,,,,,,,,,,,,,,,,,,,,,,,,,,,,,,,,,,,,,,,,,,,,,,,,,,,,,,,,,,,,,,,,,,,,,,,,,,,,,,,,,,,,,,,,,,,,,,,,
0,37,37,35,1,,6102a52c8a4ed0d104d68a15,62bbf9391ce067b5633dbc50,2022-06-29_09h10.27.718,Colour_Asymmetry_Pilot,2022.1.3,Win32,64,62bbe60bf3d75ef465d3e404,,,,,,,,,,,,,,,,,,,,,,,,,,,,,,,,,,,,,,,,,,,,,,,,,,,,,,,,,,,,,,,,,,,,,,,,,,,,,,,,,,,,,,,,,,,,,,,,,,,,,,,,,,,,,,,,,,,,,,,,,,,,,,,,,,,,,,,,,,,,,,,,,,,,,,,,,,,,,,
0,38,38,38,1,,6102a52c8a4ed0d104d68a15,62bbf9391ce067b5633dbc50,2022-06-29_09h10.27.718,Colour_Asymmetry_Pilot,2022.1.3,Win32,64,62bbe60bf3d75ef465d3e404,,,,,,,,,,,,,,,,,,,,,,,,,,,,,,,,,,,,,,,,,,,,,,,,,,,,,,,,,,,,,,,,,,,,,,,,,,,,,,,,,,,,,,,,,,,,,,,,,,,,,,,,,,,,,,,,,,,,,,,,,,,,,,,,,,,,,,,,,,,,,,,,,,,,,,,,,,,,,,
0,39,39,21,1,,6102a52c8a4ed0d104d68a15,62bbf9391ce067b5633dbc50,2022-06-29_09h10.27.718,Colour_Asymmetry_Pilot,2022.1.3,Win32,64,62bbe60bf3d75ef465d3e404,,,,,,,,,,,,,,,,,,,,,,,,,,,,,,,,,,,,,,,,,,,,,,,,,,,,,,,,,,,,,,,,,,,,,,,,,,,,,,,,,,,,,,,,,,,,,,,,,,,,,,,,,,,,,,,,,,,,,,,,,,,,,,,,,,,,,,,,,,,,,,,,,,,,,,,,,,,,,,
0,40,40,61,1,,6102a52c8a4ed0d104d68a15,62bbf9391ce067b5633dbc50,2022-06-29_09h10.27.718,Colour_Asymmetry_Pilot,2022.1.3,Win32,64,62bbe60bf3d75ef465d3e404,,,,,,,,,,,,,,,,,,,,,,,,,,,,,,,,,,,,,,,,,,,,,,,,,,,,,,,,,,,,,,,,,,,,,,,,,,,,,,,,,,,,,,,,,,,,,,,,,,,,,,,,,,,,,,,,,,,,,,,,,,,,,,,,,,,,,,,,,,,,,,,,,,,,,,,,,,,,,,
0,41,41,48,1,,6102a52c8a4ed0d104d68a15,62bbf9391ce067b5633dbc50,2022-06-29_09h10.27.718,Colour_Asymmetry_Pilot,2022.1.3,Win32,64,62bbe60bf3d75ef465d3e404,,,,,,,,,,,,,,,,,,,,,,,,,,,,,,,,,,,,,,,,,,,,,,,,,,,,,,,,,,,,,,,,,,,,,,,,,,,,,,,,,,,,,,,,,,,,,,,,,,,,,,,,,,,,,,,,,,,,,,,,,,,,,,,,,,,,,,,,,,,,,,,,,,,,,,,,,,,,,,
0,42,42,59,1,,6102a52c8a4ed0d104d68a15,62bbf9391ce067b5633dbc50,2022-06-29_09h10.27.718,Colour_Asymmetry_Pilot,2022.1.3,Win32,64,62bbe60bf3d75ef465d3e404,,,,,,,,,,,,,,,,,,,,,,,,,,,,,,,,,,,,,,,,,,,,,,,,,,,,,,,,,,,,,,,,,,,,,,,,,,,,,,,,,,,,,,,,,,,,,,,,,,,,,,,,,,,,,,,,,,,,,,,,,,,,,,,,,,,,,,,,,,,,,,,,,,,,,,,,,,,,,,
0,43,43,16,1,,6102a52c8a4ed0d104d68a15,62bbf9391ce067b5633dbc50,2022-06-29_09h10.27.718,Colour_Asymmetry_Pilot,2022.1.3,Win32,64,62bbe60bf3d75ef465d3e404,,,,,,,,,,,,,,,,,,,,,,,,,,,,,,,,,,,,,,,,,,,,,,,,,,,,,,,,,,,,,,,,,,,,,,,,,,,,,,,,,,,,,,,,,,,,,,,,,,,,,,,,,,,,,,,,,,,,,,,,,,,,,,,,,,,,,,,,,,,,,,,,,,,,,,,,,,,,,,
0,44,44,70,1,,6102a52c8a4ed0d104d68a15,62bbf9391ce067b5633dbc50,2022-06-29_09h10.27.718,Colour_Asymmetry_Pilot,2022.1.3,Win32,64,62bbe60bf3d75ef465d3e404,,,,,,,,,,,,,,,,,,,,,,,,,,,,,,,,,,,,,,,,,,,,,,,,,,,,,,,,,,,,,,,,,,,,,,,,,,,,,,,,,,,,,,,,,,,,,,,,,,,,,,,,,,,,,,,,,,,,,,,,,,,,,,,,,,,,,,,,,,,,,,,,,,,,,,,,,,,,,,
0,45,45,62,1,,6102a52c8a4ed0d104d68a15,62bbf9391ce067b5633dbc50,2022-06-29_09h10.27.718,Colour_Asymmetry_Pilot,2022.1.3,Win32,64,62bbe60bf3d75ef465d3e404,,,,,,,,,,,,,,,,,,,,,,,,,,,,,,,,,,,,,,,,,,,,,,,,,,,,,,,,,,,,,,,,,,,,,,,,,,,,,,,,,,,,,,,,,,,,,,,,,,,,,,,,,,,,,,,,,,,,,,,,,,,,,,,,,,,,,,,,,,,,,,,,,,,,,,,,,,,,,,
0,46,46,12,1,,6102a52c8a4ed0d104d68a15,62bbf9391ce067b5633dbc50,2022-06-29_09h10.27.718,Colour_Asymmetry_Pilot,2022.1.3,Win32,64,62bbe60bf3d75ef465d3e404,,,,,,,,,,,,,,,,,,,,,,,,,,,,,,,,,,,,,,,,,,,,,,,,,,,,,,,,,,,,,,,,,,,,,,,,,,,,,,,,,,,,,,,,,,,,,,,,,,,,,,,,,,,,,,,,,,,,,,,,,,,,,,,,,,,,,,,,,,,,,,,,,,,,,,,,,,,,,,
0,47,47,41,1,,6102a52c8a4ed0d104d68a15,62bbf9391ce067b5633dbc50,2022-06-29_09h10.27.718,Colour_Asymmetry_Pilot,2022.1.3,Win32,64,62bbe60bf3d75ef465d3e404,,,,,,,,,,,,,,,,,,,,,,,,,,,,,,,,,,,,,,,,,,,,,,,,,,,,,,,,,,,,,,,,,,,,,,,,,,,,,,,,,,,,,,,,,,,,,,,,,,,,,,,,,,,,,,,,,,,,,,,,,,,,,,,,,,,,,,,,,,,,,,,,,,,,,,,,,,,,,,
0,48,48,23,1,,6102a52c8a4ed0d104d68a15,62bbf9391ce067b5633dbc50,2022-06-29_09h10.27.718,Colour_Asymmetry_Pilot,2022.1.3,Win32,64,62bbe60bf3d75ef465d3e404,,,,,,,,,,,,,,,,,,,,,,,,,,,,,,,,,,,,,,,,,,,,,,,,,,,,,,,,,,,,,,,,,,,,,,,,,,,,,,,,,,,,,,,,,,,,,,,,,,,,,,,,,,,,,,,,,,,,,,,,,,,,,,,,,,,,,,,,,,,,,,,,,,,,,,,,,,,,,,
0,49,49,26,1,,6102a52c8a4ed0d104d68a15,62bbf9391ce067b5633dbc50,2022-06-29_09h10.27.718,Colour_Asymmetry_Pilot,2022.1.3,Win32,64,62bbe60bf3d75ef465d3e404,,,,,,,,,,,,,,,,,,,,,,,,,,,,,,,,,,,,,,,,,,,,,,,,,,,,,,,,,,,,,,,,,,,,,,,,,,,,,,,,,,,,,,,,,,,,,,,,,,,,,,,,,,,,,,,,,,,,,,,,,,,,,,,,,,,,,,,,,,,,,,,,,,,,,,,,,,,,,,
0,50,50,5,1,,6102a52c8a4ed0d104d68a15,62bbf9391ce067b5633dbc50,2022-06-29_09h10.27.718,Colour_Asymmetry_Pilot,2022.1.3,Win32,64,62bbe60bf3d75ef465d3e404,,,,,,,,,,,,,,,,,,,,,,,,,,,,,,,,,,,,,,,,,,,,,,,,,,,,,,,,,,,,,,,,,,,,,,,,,,,,,,,,,,,,,,,,,,,,,,,,,,,,,,,,,,,,,,,,,,,,,,,,,,,,,,,,,,,,,,,,,,,,,,,,,,,,,,,,,,,,,,
0,51,51,88,1,,6102a52c8a4ed0d104d68a15,62bbf9391ce067b5633dbc50,2022-06-29_09h10.27.718,Colour_Asymmetry_Pilot,2022.1.3,Win32,64,62bbe60bf3d75ef465d3e404,,,,,,,,,,,,,,,,,,,,,,,,,,,,,,,,,,,,,,,,,,,,,,,,,,,,,,,,,,,,,,,,,,,,,,,,,,,,,,,,,,,,,,,,,,,,,,,,,,,,,,,,,,,,,,,,,,,,,,,,,,,,,,,,,,,,,,,,,,,,,,,,,,,,,,,,,,,,,,
0,52,52,42,1,,6102a52c8a4ed0d104d68a15,62bbf9391ce067b5633dbc50,2022-06-29_09h10.27.718,Colour_Asymmetry_Pilot,2022.1.3,Win32,64,62bbe60bf3d75ef465d3e404,,,,,,,,,,,,,,,,,,,,,,,,,,,,,,,,,,,,,,,,,,,,,,,,,,,,,,,,,,,,,,,,,,,,,,,,,,,,,,,,,,,,,,,,,,,,,,,,,,,,,,,,,,,,,,,,,,,,,,,,,,,,,,,,,,,,,,,,,,,,,,,,,,,,,,,,,,,,,,
0,53,53,44,1,,6102a52c8a4ed0d104d68a15,62bbf9391ce067b5633dbc50,2022-06-29_09h10.27.718,Colour_Asymmetry_Pilot,2022.1.3,Win32,64,62bbe60bf3d75ef465d3e404,,,,,,,,,,,,,,,,,,,,,,,,,,,,,,,,,,,,,,,,,,,,,,,,,,,,,,,,,,,,,,,,,,,,,,,,,,,,,,,,,,,,,,,,,,,,,,,,,,,,,,,,,,,,,,,,,,,,,,,,,,,,,,,,,,,,,,,,,,,,,,,,,,,,,,,,,,,,,,
0,54,54,82,1,,6102a52c8a4ed0d104d68a15,62bbf9391ce067b5633dbc50,2022-06-29_09h10.27.718,Colour_Asymmetry_Pilot,2022.1.3,Win32,64,62bbe60bf3d75ef465d3e404,,,,,,,,,,,,,,,,,,,,,,,,,,,,,,,,,,,,,,,,,,,,,,,,,,,,,,,,,,,,,,,,,,,,,,,,,,,,,,,,,,,,,,,,,,,,,,,,,,,,,,,,,,,,,,,,,,,,,,,,,,,,,,,,,,,,,,,,,,,,,,,,,,,,,,,,,,,,,,
0,55,55,7,1,,6102a52c8a4ed0d104d68a15,62bbf9391ce067b5633dbc50,2022-06-29_09h10.27.718,Colour_Asymmetry_Pilot,2022.1.3,Win32,64,62bbe60bf3d75ef465d3e404,,,,,,,,,,,,,,,,,,,,,,,,,,,,,,,,,,,,,,,,,,,,,,,,,,,,,,,,,,,,,,,,,,,,,,,,,,,,,,,,,,,,,,,,,,,,,,,,,,,,,,,,,,,,,,,,,,,,,,,,,,,,,,,,,,,,,,,,,,,,,,,,,,,,,,,,,,,,,,
0,56,56,75,1,,6102a52c8a4ed0d104d68a15,62bbf9391ce067b5633dbc50,2022-06-29_09h10.27.718,Colour_Asymmetry_Pilot,2022.1.3,Win32,64,62bbe60bf3d75ef465d3e404,,,,,,,,,,,,,,,,,,,,,,,,,,,,,,,,,,,,,,,,,,,,,,,,,,,,,,,,,,,,,,,,,,,,,,,,,,,,,,,,,,,,,,,,,,,,,,,,,,,,,,,,,,,,,,,,,,,,,,,,,,,,,,,,,,,,,,,,,,,,,,,,,,,,,,,,,,,,,,
0,57,57,47,1,,6102a52c8a4ed0d104d68a15,62bbf9391ce067b5633dbc50,2022-06-29_09h10.27.718,Colour_Asymmetry_Pilot,2022.1.3,Win32,64,62bbe60bf3d75ef465d3e404,,,,,,,,,,,,,,,,,,,,,,,,,,,,,,,,,,,,,,,,,,,,,,,,,,,,,,,,,,,,,,,,,,,,,,,,,,,,,,,,,,,,,,,,,,,,,,,,,,,,,,,,,,,,,,,,,,,,,,,,,,,,,,,,,,,,,,,,,,,,,,,,,,,,,,,,,,,,,,
0,58,58,68,1,,6102a52c8a4ed0d104d68a15,62bbf9391ce067b5633dbc50,2022-06-29_09h10.27.718,Colour_Asymmetry_Pilot,2022.1.3,Win32,64,62bbe60bf3d75ef465d3e404,,,,,,,,,,,,,,,,,,,,,,,,,,,,,,,,,,,,,,,,,,,,,,,,,,,,,,,,,,,,,,,,,,,,,,,,,,,,,,,,,,,,,,,,,,,,,,,,,,,,,,,,,,,,,,,,,,,,,,,,,,,,,,,,,,,,,,,,,,,,,,,,,,,,,,,,,,,,,,
0,59,59,46,1,,6102a52c8a4ed0d104d68a15,62bbf9391ce067b5633dbc50,2022-06-29_09h10.27.718,Colour_Asymmetry_Pilot,2022.1.3,Win32,64,62bbe60bf3d75ef465d3e404,,,,,,,,,,,,,,,,,,,,,,,,,,,,,,,,,,,,,,,,,,,,,,,,,,,,,,,,,,,,,,,,,,,,,,,,,,,,,,,,,,,,,,,,,,,,,,,,,,,,,,,,,,,,,,,,,,,,,,,,,,,,,,,,,,,,,,,,,,,,,,,,,,,,,,,,,,,,,,
0,60,60,69,1,,6102a52c8a4ed0d104d68a15,62bbf9391ce067b5633dbc50,2022-06-29_09h10.27.718,Colour_Asymmetry_Pilot,2022.1.3,Win32,64,62bbe60bf3d75ef465d3e404,,,,,,,,,,,,,,,,,,,,,,,,,,,,,,,,,,,,,,,,,,,,,,,,,,,,,,,,,,,,,,,,,,,,,,,,,,,,,,,,,,,,,,,,,,,,,,,,,,,,,,,,,,,,,,,,,,,,,,,,,,,,,,,,,,,,,,,,,,,,,,,,,,,,,,,,,,,,,,
0,61,61,29,1,,6102a52c8a4ed0d104d68a15,62bbf9391ce067b5633dbc50,2022-06-29_09h10.27.718,Colour_Asymmetry_Pilot,2022.1.3,Win32,64,62bbe60bf3d75ef465d3e404,,,,,,,,,,,,,,,,,,,,,,,,,,,,,,,,,,,,,,,,,,,,,,,,,,,,,,,,,,,,,,,,,,,,,,,,,,,,,,,,,,,,,,,,,,,,,,,,,,,,,,,,,,,,,,,,,,,,,,,,,,,,,,,,,,,,,,,,,,,,,,,,,,,,,,,,,,,,,,
0,62,62,32,1,,6102a52c8a4ed0d104d68a15,62bbf9391ce067b5633dbc50,2022-06-29_09h10.27.718,Colour_Asymmetry_Pilot,2022.1.3,Win32,64,62bbe60bf3d75ef465d3e404,,,,,,,,,,,,,,,,,,,,,,,,,,,,,,,,,,,,,,,,,,,,,,,,,,,,,,,,,,,,,,,,,,,,,,,,,,,,,,,,,,,,,,,,,,,,,,,,,,,,,,,,,,,,,,,,,,,,,,,,,,,,,,,,,,,,,,,,,,,,,,,,,,,,,,,,,,,,,,
0,63,63,57,1,,6102a52c8a4ed0d104d68a15,62bbf9391ce067b5633dbc50,2022-06-29_09h10.27.718,Colour_Asymmetry_Pilot,2022.1.3,Win32,64,62bbe60bf3d75ef465d3e404,,,,,,,,,,,,,,,,,,,,,,,,,,,,,,,,,,,,,,,,,,,,,,,,,,,,,,,,,,,,,,,,,,,,,,,,,,,,,,,,,,,,,,,,,,,,,,,,,,,,,,,,,,,,,,,,,,,,,,,,,,,,,,,,,,,,,,,,,,,,,,,,,,,,,,,,,,,,,,
0,64,64,64,1,,6102a52c8a4ed0d104d68a15,62bbf9391ce067b5633dbc50,2022-06-29_09h10.27.718,Colour_Asymmetry_Pilot,2022.1.3,Win32,64,62bbe60bf3d75ef465d3e404,,,,,,,,,,,,,,,,,,,,,,,,,,,,,,,,,,,,,,,,,,,,,,,,,,,,,,,,,,,,,,,,,,,,,,,,,,,,,,,,,,,,,,,,,,,,,,,,,,,,,,,,,,,,,,,,,,,,,,,,,,,,,,,,,,,,,,,,,,,,,,,,,,,,,,,,,,,,,,
0,65,65,54,1,,6102a52c8a4ed0d104d68a15,62bbf9391ce067b5633dbc50,2022-06-29_09h10.27.718,Colour_Asymmetry_Pilot,2022.1.3,Win32,64,62bbe60bf3d75ef465d3e404,,,,,,,,,,,,,,,,,,,,,,,,,,,,,,,,,,,,,,,,,,,,,,,,,,,,,,,,,,,,,,,,,,,,,,,,,,,,,,,,,,,,,,,,,,,,,,,,,,,,,,,,,,,,,,,,,,,,,,,,,,,,,,,,,,,,,,,,,,,,,,,,,,,,,,,,,,,,,,
0,66,66,72,1,,6102a52c8a4ed0d104d68a15,62bbf9391ce067b5633dbc50,2022-06-29_09h10.27.718,Colour_Asymmetry_Pilot,2022.1.3,Win32,64,62bbe60bf3d75ef465d3e404,,,,,,,,,,,,,,,,,,,,,,,,,,,,,,,,,,,,,,,,,,,,,,,,,,,,,,,,,,,,,,,,,,,,,,,,,,,,,,,,,,,,,,,,,,,,,,,,,,,,,,,,,,,,,,,,,,,,,,,,,,,,,,,,,,,,,,,,,,,,,,,,,,,,,,,,,,,,,,
0,67,67,63,1,,6102a52c8a4ed0d104d68a15,62bbf9391ce067b5633dbc50,2022-06-29_09h10.27.718,Colour_Asymmetry_Pilot,2022.1.3,Win32,64,62bbe60bf3d75ef465d3e404,,,,,,,,,,,,,,,,,,,,,,,,,,,,,,,,,,,,,,,,,,,,,,,,,,,,,,,,,,,,,,,,,,,,,,,,,,,,,,,,,,,,,,,,,,,,,,,,,,,,,,,,,,,,,,,,,,,,,,,,,,,,,,,,,,,,,,,,,,,,,,,,,,,,,,,,,,,,,,
0,68,68,22,1,,6102a52c8a4ed0d104d68a15,62bbf9391ce067b5633dbc50,2022-06-29_09h10.27.718,Colour_Asymmetry_Pilot,2022.1.3,Win32,64,62bbe60bf3d75ef465d3e404,,,,,,,,,,,,,,,,,,,,,,,,,,,,,,,,,,,,,,,,,,,,,,,,,,,,,,,,,,,,,,,,,,,,,,,,,,,,,,,,,,,,,,,,,,,,,,,,,,,,,,,,,,,,,,,,,,,,,,,,,,,,,,,,,,,,,,,,,,,,,,,,,,,,,,,,,,,,,,
0,69,69,56,1,,6102a52c8a4ed0d104d68a15,62bbf9391ce067b5633dbc50,2022-06-29_09h10.27.718,Colour_Asymmetry_Pilot,2022.1.3,Win32,64,62bbe60bf3d75ef465d3e404,,,,,,,,,,,,,,,,,,,,,,,,,,,,,,,,,,,,,,,,,,,,,,,,,,,,,,,,,,,,,,,,,,,,,,,,,,,,,,,,,,,,,,,,,,,,,,,,,,,,,,,,,,,,,,,,,,,,,,,,,,,,,,,,,,,,,,,,,,,,,,,,,,,,,,,,,,,,,,
0,70,70,81,1,,6102a52c8a4ed0d104d68a15,62bbf9391ce067b5633dbc50,2022-06-29_09h10.27.718,Colour_Asymmetry_Pilot,2022.1.3,Win32,64,62bbe60bf3d75ef465d3e404,,,,,,,,,,,,,,,,,,,,,,,,,,,,,,,,,,,,,,,,,,,,,,,,,,,,,,,,,,,,,,,,,,,,,,,,,,,,,,,,,,,,,,,,,,,,,,,,,,,,,,,,,,,,,,,,,,,,,,,,,,,,,,,,,,,,,,,,,,,,,,,,,,,,,,,,,,,,,,
0,71,71,60,1,,6102a52c8a4ed0d104d68a15,62bbf9391ce067b5633dbc50,2022-06-29_09h10.27.718,Colour_Asymmetry_Pilot,2022.1.3,Win32,64,62bbe60bf3d75ef465d3e404,,,,,,,,,,,,,,,,,,,,,,,,,,,,,,,,,,,,,,,,,,,,,,,,,,,,,,,,,,,,,,,,,,,,,,,,,,,,,,,,,,,,,,,,,,,,,,,,,,,,,,,,,,,,,,,,,,,,,,,,,,,,,,,,,,,,,,,,,,,,,,,,,,,,,,,,,,,,,,
0,72,72,25,1,,6102a52c8a4ed0d104d68a15,62bbf9391ce067b5633dbc50,2022-06-29_09h10.27.718,Colour_Asymmetry_Pilot,2022.1.3,Win32,64,62bbe60bf3d75ef465d3e404,,,,,,,,,,,,,,,,,,,,,,,,,,,,,,,,,,,,,,,,,,,,,,,,,,,,,,,,,,,,,,,,,,,,,,,,,,,,,,,,,,,,,,,,,,,,,,,,,,,,,,,,,,,,,,,,,,,,,,,,,,,,,,,,,,,,,,,,,,,,,,,,,,,,,,,,,,,,,,
0,73,73,91,1,,6102a52c8a4ed0d104d68a15,62bbf9391ce067b5633dbc50,2022-06-29_09h10.27.718,Colour_Asymmetry_Pilot,2022.1.3,Win32,64,62bbe60bf3d75ef465d3e404,,,,,,,,,,,,,,,,,,,,,,,,,,,,,,,,,,,,,,,,,,,,,,,,,,,,,,,,,,,,,,,,,,,,,,,,,,,,,,,,,,,,,,,,,,,,,,,,,,,,,,,,,,,,,,,,,,,,,,,,,,,,,,,,,,,,,,,,,,,,,,,,,,,,,,,,,,,,,,
0,74,74,6,1,,6102a52c8a4ed0d104d68a15,62bbf9391ce067b5633dbc50,2022-06-29_09h10.27.718,Colour_Asymmetry_Pilot,2022.1.3,Win32,64,62bbe60bf3d75ef465d3e404,,,,,,,,,,,,,,,,,,,,,,,,,,,,,,,,,,,,,,,,,,,,,,,,,,,,,,,,,,,,,,,,,,,,,,,,,,,,,,,,,,,,,,,,,,,,,,,,,,,,,,,,,,,,,,,,,,,,,,,,,,,,,,,,,,,,,,,,,,,,,,,,,,,,,,,,,,,,,,
0,75,75,73,1,,6102a52c8a4ed0d104d68a15,62bbf9391ce067b5633dbc50,2022-06-29_09h10.27.718,Colour_Asymmetry_Pilot,2022.1.3,Win32,64,62bbe60bf3d75ef465d3e404,,,,,,,,,,,,,,,,,,,,,,,,,,,,,,,,,,,,,,,,,,,,,,,,,,,,,,,,,,,,,,,,,,,,,,,,,,,,,,,,,,,,,,,,,,,,,,,,,,,,,,,,,,,,,,,,,,,,,,,,,,,,,,,,,,,,,,,,,,,,,,,,,,,,,,,,,,,,,,
0,76,76,67,1,,6102a52c8a4ed0d104d68a15,62bbf9391ce067b5633dbc50,2022-06-29_09h10.27.718,Colour_Asymmetry_Pilot,2022.1.3,Win32,64,62bbe60bf3d75ef465d3e404,,,,,,,,,,,,,,,,,,,,,,,,,,,,,,,,,,,,,,,,,,,,,,,,,,,,,,,,,,,,,,,,,,,,,,,,,,,,,,,,,,,,,,,,,,,,,,,,,,,,,,,,,,,,,,,,,,,,,,,,,,,,,,,,,,,,,,,,,,,,,,,,,,,,,,,,,,,,,,
0,77,77,20,1,,6102a52c8a4ed0d104d68a15,62bbf9391ce067b5633dbc50,2022-06-29_09h10.27.718,Colour_Asymmetry_Pilot,2022.1.3,Win32,64,62bbe60bf3d75ef465d3e404,,,,,,,,,,,,,,,,,,,,,,,,,,,,,,,,,,,,,,,,,,,,,,,,,,,,,,,,,,,,,,,,,,,,,,,,,,,,,,,,,,,,,,,,,,,,,,,,,,,,,,,,,,,,,,,,,,,,,,,,,,,,,,,,,,,,,,,,,,,,,,,,,,,,,,,,,,,,,,
0,78,78,17,1,,6102a52c8a4ed0d104d68a15,62bbf9391ce067b5633dbc50,2022-06-29_09h10.27.718,Colour_Asymmetry_Pilot,2022.1.3,Win32,64,62bbe60bf3d75ef465d3e404,,,,,,,,,,,,,,,,,,,,,,,,,,,,,,,,,,,,,,,,,,,,,,,,,,,,,,,,,,,,,,,,,,,,,,,,,,,,,,,,,,,,,,,,,,,,,,,,,,,,,,,,,,,,,,,,,,,,,,,,,,,,,,,,,,,,,,,,,,,,,,,,,,,,,,,,,,,,,,
0,79,79,65,1,,6102a52c8a4ed0d104d68a15,62bbf9391ce067b5633dbc50,2022-06-29_09h10.27.718,Colour_Asymmetry_Pilot,2022.1.3,Win32,64,62bbe60bf3d75ef465d3e404,,,,,,,,,,,,,,,,,,,,,,,,,,,,,,,,,,,,,,,,,,,,,,,,,,,,,,,,,,,,,,,,,,,,,,,,,,,,,,,,,,,,,,,,,,,,,,,,,,,,,,,,,,,,,,,,,,,,,,,,,,,,,,,,,,,,,,,,,,,,,,,,,,,,,,,,,,,,,,
0,80,80,58,1,,6102a52c8a4ed0d104d68a15,62bbf9391ce067b5633dbc50,2022-06-29_09h10.27.718,Colour_Asymmetry_Pilot,2022.1.3,Win32,64,62bbe60bf3d75ef465d3e404,,,,,,,,,,,,,,,,,,,,,,,,,,,,,,,,,,,,,,,,,,,,,,,,,,,,,,,,,,,,,,,,,,,,,,,,,,,,,,,,,,,,,,,,,,,,,,,,,,,,,,,,,,,,,,,,,,,,,,,,,,,,,,,,,,,,,,,,,,,,,,,,,,,,,,,,,,,,,,
0,81,81,55,1,,6102a52c8a4ed0d104d68a15,62bbf9391ce067b5633dbc50,2022-06-29_09h10.27.718,Colour_Asymmetry_Pilot,2022.1.3,Win32,64,62bbe60bf3d75ef465d3e404,,,,,,,,,,,,,,,,,,,,,,,,,,,,,,,,,,,,,,,,,,,,,,,,,,,,,,,,,,,,,,,,,,,,,,,,,,,,,,,,,,,,,,,,,,,,,,,,,,,,,,,,,,,,,,,,,,,,,,,,,,,,,,,,,,,,,,,,,,,,,,,,,,,,,,,,,,,,,,
0,82,82,71,1,,6102a52c8a4ed0d104d68a15,62bbf9391ce067b5633dbc50,2022-06-29_09h10.27.718,Colour_Asymmetry_Pilot,2022.1.3,Win32,64,62bbe60bf3d75ef465d3e404,,,,,,,,,,,,,,,,,,,,,,,,,,,,,,,,,,,,,,,,,,,,,,,,,,,,,,,,,,,,,,,,,,,,,,,,,,,,,,,,,,,,,,,,,,,,,,,,,,,,,,,,,,,,,,,,,,,,,,,,,,,,,,,,,,,,,,,,,,,,,,,,,,,,,,,,,,,,,,
0,83,83,90,1,,6102a52c8a4ed0d104d68a15,62bbf9391ce067b5633dbc50,2022-06-29_09h10.27.718,Colour_Asymmetry_Pilot,2022.1.3,Win32,64,62bbe60bf3d75ef465d3e404,,,,,,,,,,,,,,,,,,,,,,,,,,,,,,,,,,,,,,,,,,,,,,,,,,,,,,,,,,,,,,,,,,,,,,,,,,,,,,,,,,,,,,,,,,,,,,,,,,,,,,,,,,,,,,,,,,,,,,,,,,,,,,,,,,,,,,,,,,,,,,,,,,,,,,,,,,,,,,
0,84,84,76,1,,6102a52c8a4ed0d104d68a15,62bbf9391ce067b5633dbc50,2022-06-29_09h10.27.718,Colour_Asymmetry_Pilot,2022.1.3,Win32,64,62bbe60bf3d75ef465d3e404,,,,,,,,,,,,,,,,,,,,,,,,,,,,,,,,,,,,,,,,,,,,,,,,,,,,,,,,,,,,,,,,,,,,,,,,,,,,,,,,,,,,,,,,,,,,,,,,,,,,,,,,,,,,,,,,,,,,,,,,,,,,,,,,,,,,,,,,,,,,,,,,,,,,,,,,,,,,,,
0,85,85,51,1,,6102a52c8a4ed0d104d68a15,62bbf9391ce067b5633dbc50,2022-06-29_09h10.27.718,Colour_Asymmetry_Pilot,2022.1.3,Win32,64,62bbe60bf3d75ef465d3e404,,,,,,,,,,,,,,,,,,,,,,,,,,,,,,,,,,,,,,,,,,,,,,,,,,,,,,,,,,,,,,,,,,,,,,,,,,,,,,,,,,,,,,,,,,,,,,,,,,,,,,,,,,,,,,,,,,,,,,,,,,,,,,,,,,,,,,,,,,,,,,,,,,,,,,,,,,,,,,
0,86,86,9,1,,6102a52c8a4ed0d104d68a15,62bbf9391ce067b5633dbc50,2022-06-29_09h10.27.718,Colour_Asymmetry_Pilot,2022.1.3,Win32,64,62bbe60bf3d75ef465d3e404,,,,,,,,,,,,,,,,,,,,,,,,,,,,,,,,,,,,,,,,,,,,,,,,,,,,,,,,,,,,,,,,,,,,,,,,,,,,,,,,,,,,,,,,,,,,,,,,,,,,,,,,,,,,,,,,,,,,,,,,,,,,,,,,,,,,,,,,,,,,,,,,,,,,,,,,,,,,,,
0,87,87,39,1,,6102a52c8a4ed0d104d68a15,62bbf9391ce067b5633dbc50,2022-06-29_09h10.27.718,Colour_Asymmetry_Pilot,2022.1.3,Win32,64,62bbe60bf3d75ef465d3e404,,,,,,,,,,,,,,,,,,,,,,,,,,,,,,,,,,,,,,,,,,,,,,,,,,,,,,,,,,,,,,,,,,,,,,,,,,,,,,,,,,,,,,,,,,,,,,,,,,,,,,,,,,,,,,,,,,,,,,,,,,,,,,,,,,,,,,,,,,,,,,,,,,,,,,,,,,,,,,
0,88,88,43,1,,6102a52c8a4ed0d104d68a15,62bbf9391ce067b5633dbc50,2022-06-29_09h10.27.718,Colour_Asymmetry_Pilot,2022.1.3,Win32,64,62bbe60bf3d75ef465d3e404,,,,,,,,,,,,,,,,,,,,,,,,,,,,,,,,,,,,,,,,,,,,,,,,,,,,,,,,,,,,,,,,,,,,,,,,,,,,,,,,,,,,,,,,,,,,,,,,,,,,,,,,,,,,,,,,,,,,,,,,,,,,,,,,,,,,,,,,,,,,,,,,,,,,,,,,,,,,,,
0,89,89,50,1,,6102a52c8a4ed0d104d68a15,62bbf9391ce067b5633dbc50,2022-06-29_09h10.27.718,Colour_Asymmetry_Pilot,2022.1.3,Win32,64,62bbe60bf3d75ef465d3e404,,,,,,,,,,,,,,,,,,,,,,,,,,,,,,,,,,,,,,,,,,,,,,,,,,,,,,,,,,,,,,,,,,,,,,,,,,,,,,,,,,,,,,,,,,,,,,,,,,,,,,,,,,,,,,,,,,,,,,,,,,,,,,,,,,,,,,,,,,,,,,,,,,,,,,,,,,,,,,
0,90,90,8,1,,6102a52c8a4ed0d104d68a15,62bbf9391ce067b5633dbc50,2022-06-29_09h10.27.718,Colour_Asymmetry_Pilot,2022.1.3,Win32,64,62bbe60bf3d75ef465d3e404,,,,,,,,,,,,,,,,,,,,,,,,,,,,,,,,,,,,,,,,,,,,,,,,,,,,,,,,,,,,,,,,,,,,,,,,,,,,,,,,,,,,,,,,,,,,,,,,,,,,,,,,,,,,,,,,,,,,,,,,,,,,,,,,,,,,,,,,,,,,,,,,,,,,,,,,,,,,,,
0,91,91,80,1,,6102a52c8a4ed0d104d68a15,62bbf9391ce067b5633dbc50,2022-06-29_09h10.27.718,Colour_Asymmetry_Pilot,2022.1.3,Win32,64,62bbe60bf3d75ef465d3e404,,,,,,,,,,,,,,,,,,,,,,,,,,,,,,,,,,,,,,,,,,,,,,,,,,,,,,,,,,,,,,,,,,,,,,,,,,,,,,,,,,,,,,,,,,,,,,,,,,,,,,,,,,,,,,,,,,,,,,,,,,,,,,,,,,,,,,,,,,,,,,,,,,,,,,,,,,,,,,
0,92,92,78,1,,6102a52c8a4ed0d104d68a15,62bbf9391ce067b5633dbc50,2022-06-29_09h10.27.718,Colour_Asymmetry_Pilot,2022.1.3,Win32,64,62bbe60bf3d75ef465d3e404,,,,,,,,,,,,,,,,,,,,,,,,,,,,,,,,,,,,,,,,,,,,,,,,,,,,,,,,,,,,,,,,,,,,,,,,,,,,,,,,,,,,,,,,,,,,,,,,,,,,,,,,,,,,,,,,,,,,,,,,,,,,,,,,,,,,,,,,,,,,,,,,,,,,,,,,,,,,,,
,,,,,,6102a52c8a4ed0d104d68a15,62bbf9391ce067b5633dbc50,2022-06-29_09h10.27.718,Colour_Asymmetry_Pilot,2022.1.3,Win32,64,62bbe60bf3d75ef465d3e404,0,0,0,11,1,twofour,,,,,,,,,,,,,,,,,,,,,,,,,,,,,,,,,,,,,,,,,,,,,,,,,,,,,,,,,,,,,,,,,,,,,,,,,,,,,,,,,,,,,,,,,,,,,,,,,,,,,,,,,,,,,,,,,,,,,,,,,,,,,,,,,,,,,,,,,,,,,,,,,,,,,,,,
,,,,,,6102a52c8a4ed0d104d68a15,62bbf9391ce067b5633dbc50,2022-06-29_09h10.27.718,Colour_Asymmetry_Pilot,2022.1.3,Win32,64,62bbe60bf3d75ef465d3e404,0,1,1,151,1,fourthree,,,,,,,,,,,,,,,,,,,,,,,,,,,,,,,,,,,,,,,,,,,,,,,,,,,,,,,,,,,,,,,,,,,,,,,,,,,,,,,,,,,,,,,,,,,,,,,,,,,,,,,,,,,,,,,,,,,,,,,,,,,,,,,,,,,,,,,,,,,,,,,,,,,,,,,,
,,,,,,6102a52c8a4ed0d104d68a15,62bbf9391ce067b5633dbc50,2022-06-29_09h10.27.718,Colour_Asymmetry_Pilot,2022.1.3,Win32,64,62bbe60bf3d75ef465d3e404,0,2,2,33,1,onethree,,,,,,,,,,,,,,,,,,,,,,,,,,,,,,,,,,,,,,,,,,,,,,,,,,,,,,,,,,,,,,,,,,,,,,,,,,,,,,,,,,,,,,,,,,,,,,,,,,,,,,,,,,,,,,,,,,,,,,,,,,,,,,,,,,,,,,,,,,,,,,,,,,,,,,,,
,,,,,,6102a52c8a4ed0d104d68a15,62bbf9391ce067b5633dbc50,2022-06-29_09h10.27.718,Colour_Asymmetry_Pilot,2022.1.3,Win32,64,62bbe60bf3d75ef465d3e404,0,3,3,47,1,fourthree,,,,,,,,,,,,,,,,,,,,,,,,,,,,,,,,,,,,,,,,,,,,,,,,,,,,,,,,,,,,,,,,,,,,,,,,,,,,,,,,,,,,,,,,,,,,,,,,,,,,,,,,,,,,,,,,,,,,,,,,,,,,,,,,,,,,,,,,,,,,,,,,,,,,,,,,
,,,,,,6102a52c8a4ed0d104d68a15,62bbf9391ce067b5633dbc50,2022-06-29_09h10.27.718,Colour_Asymmetry_Pilot,2022.1.3,Win32,64,62bbe60bf3d75ef465d3e404,0,4,4,96,1,onetwo,,,,,,,,,,,,,,,,,,,,,,,,,,,,,,,,,,,,,,,,,,,,,,,,,,,,,,,,,,,,,,,,,,,,,,,,,,,,,,,,,,,,,,,,,,,,,,,,,,,,,,,,,,,,,,,,,,,,,,,,,,,,,,,,,,,,,,,,,,,,,,,,,,,,,,,,
,,,,,,6102a52c8a4ed0d104d68a15,62bbf9391ce067b5633dbc50,2022-06-29_09h10.27.718,Colour_Asymmetry_Pilot,2022.1.3,Win32,64,62bbe60bf3d75ef465d3e404,0,5,5,69,1,threefour,,,,,,,,,,,,,,,,,,,,,,,,,,,,,,,,,,,,,,,,,,,,,,,,,,,,,,,,,,,,,,,,,,,,,,,,,,,,,,,,,,,,,,,,,,,,,,,,,,,,,,,,,,,,,,,,,,,,,,,,,,,,,,,,,,,,,,,,,,,,,,,,,,,,,,,,
,,,,,,6102a52c8a4ed0d104d68a15,62bbf9391ce067b5633dbc50,2022-06-29_09h10.27.718,Colour_Asymmetry_Pilot,2022.1.3,Win32,64,62bbe60bf3d75ef465d3e404,0,6,6,130,1,twoone,,,,,,,,,,,,,,,,,,,,,,,,,,,,,,,,,,,,,,,,,,,,,,,,,,,,,,,,,,,,,,,,,,,,,,,,,,,,,,,,,,,,,,,,,,,,,,,,,,,,,,,,,,,,,,,,,,,,,,,,,,,,,,,,,,,,,,,,,,,,,,,,,,,,,,,,
,,,,,,6102a52c8a4ed0d104d68a15,62bbf9391ce067b5633dbc50,2022-06-29_09h10.27.718,Colour_Asymmetry_Pilot,2022.1.3,Win32,64,62bbe60bf3d75ef465d3e404,0,7,7,21,1,threefour,,,,,,,,,,,,,,,,,,,,,,,,,,,,,,,,,,,,,,,,,,,,,,,,,,,,,,,,,,,,,,,,,,,,,,,,,,,,,,,,,,,,,,,,,,,,,,,,,,,,,,,,,,,,,,,,,,,,,,,,,,,,,,,,,,,,,,,,,,,,,,,,,,,,,,,,
,,,,,,6102a52c8a4ed0d104d68a15,62bbf9391ce067b5633dbc50,2022-06-29_09h10.27.718,Colour_Asymmetry_Pilot,2022.1.3,Win32,64,62bbe60bf3d75ef465d3e404,0,8,8,85,1,threefour,,,,,,,,,,,,,,,,,,,,,,,,,,,,,,,,,,,,,,,,,,,,,,,,,,,,,,,,,,,,,,,,,,,,,,,,,,,,,,,,,,,,,,,,,,,,,,,,,,,,,,,,,,,,,,,,,,,,,,,,,,,,,,,,,,,,,,,,,,,,,,,,,,,,,,,,
,,,,,,6102a52c8a4ed0d104d68a15,62bbf9391ce067b5633dbc50,2022-06-29_09h10.27.718,Colour_Asymmetry_Pilot,2022.1.3,Win32,64,62bbe60bf3d75ef465d3e404,0,9,9,20,1,threeone,,,,,,,,,,,,,,,,,,,,,,,,,,,,,,,,,,,,,,,,,,,,,,,,,,,,,,,,,,,,,,,,,,,,,,,,,,,,,,,,,,,,,,,,,,,,,,,,,,,,,,,,,,,,,,,,,,,,,,,,,,,,,,,,,,,,,,,,,,,,,,,,,,,,,,,,
,,,,,,6102a52c8a4ed0d104d68a15,62bbf9391ce067b5633dbc50,2022-06-29_09h10.27.718,Colour_Asymmetry_Pilot,2022.1.3,Win32,64,62bbe60bf3d75ef465d3e404,0,10,10,126,1,fourtwo,,,,,,,,,,,,,,,,,,,,,,,,,,,,,,,,,,,,,,,,,,,,,,,,,,,,,,,,,,,,,,,,,,,,,,,,,,,,,,,,,,,,,,,,,,,,,,,,,,,,,,,,,,,,,,,,,,,,,,,,,,,,,,,,,,,,,,,,,,,,,,,,,,,,,,,,
,,,,,,6102a52c8a4ed0d104d68a15,62bbf9391ce067b5633dbc50,2022-06-29_09h10.27.718,Colour_Asymmetry_Pilot,2022.1.3,Win32,64,62bbe60bf3d75ef465d3e404,0,11,11,9,1,onethree,,,,,,,,,,,,,,,,,,,,,,,,,,,,,,,,,,,,,,,,,,,,,,,,,,,,,,,,,,,,,,,,,,,,,,,,,,,,,,,,,,,,,,,,,,,,,,,,,,,,,,,,,,,,,,,,,,,,,,,,,,,,,,,,,,,,,,,,,,,,,,,,,,,,,,,,
,,,,,,6102a52c8a4ed0d104d68a15,62bbf9391ce067b5633dbc50,2022-06-29_09h10.27.718,Colour_Asymmetry_Pilot,2022.1.3,Win32,64,62bbe60bf3d75ef465d3e404,0,12,12,122,1,twoone,,,,,,,,,,,,,,,,,,,,,,,,,,,,,,,,,,,,,,,,,,,,,,,,,,,,,,,,,,,,,,,,,,,,,,,,,,,,,,,,,,,,,,,,,,,,,,,,,,,,,,,,,,,,,,,,,,,,,,,,,,,,,,,,,,,,,,,,,,,,,,,,,,,,,,,,
,,,,,,6102a52c8a4ed0d104d68a15,62bbf9391ce067b5633dbc50,2022-06-29_09h10.27.718,Colour_Asymmetry_Pilot,2022.1.3,Win32,64,62bbe60bf3d75ef465d3e404,0,13,13,95,1,fourthree,,,,,,,,,,,,,,,,,,,,,,,,,,,,,,,,,,,,,,,,,,,,,,,,,,,,,,,,,,,,,,,,,,,,,,,,,,,,,,,,,,,,,,,,,,,,,,,,,,,,,,,,,,,,,,,,,,,,,,,,,,,,,,,,,,,,,,,,,,,,,,,,,,,,,,,,
,,,,,,6102a52c8a4ed0d104d68a15,62bbf9391ce067b5633dbc50,2022-06-29_09h10.27.718,Colour_Asymmetry_Pilot,2022.1.3,Win32,64,62bbe60bf3d75ef465d3e404,0,14,14,67,1,twofour,,,,,,,,,,,,,,,,,,,,,,,,,,,,,,,,,,,,,,,,,,,,,,,,,,,,,,,,,,,,,,,,,,,,,,,,,,,,,,,,,,,,,,,,,,,,,,,,,,,,,,,,,,,,,,,,,,,,,,,,,,,,,,,,,,,,,,,,,,,,,,,,,,,,,,,,
,,,,,,6102a52c8a4ed0d104d68a15,62bbf9391ce067b5633dbc50,2022-06-29_09h10.27.718,Colour_Asymmetry_Pilot,2022.1.3,Win32,64,62bbe60bf3d75ef465d3e404,0,15,15,24,1,onetwo,,,,,,,,,,,,,,,,,,,,,,,,,,,,,,,,,,,,,,,,,,,,,,,,,,,,,,,,,,,,,,,,,,,,,,,,,,,,,,,,,,,,,,,,,,,,,,,,,,,,,,,,,,,,,,,,,,,,,,,,,,,,,,,,,,,,,,,,,,,,,,,,,,,,,,,,
,,,,,,6102a52c8a4ed0d104d68a15,62bbf9391ce067b5633dbc50,2022-06-29_09h10.27.718,Colour_Asymmetry_Pilot,2022.1.3,Win32,64,62bbe60bf3d75ef465d3e404,0,16,16,72,1,onetwo,,,,,,,,,,,,,,,,,,,,,,,,,,,,,,,,,,,,,,,,,,,,,,,,,,,,,,,,,,,,,,,,,,,,,,,,,,,,,,,,,,,,,,,,,,,,,,,,,,,,,,,,,,,,,,,,,,,,,,,,,,,,,,,,,,,,,,,,,,,,,,,,,,,,,,,,
,,,,,,6102a52c8a4ed0d104d68a15,62bbf9391ce067b5633dbc50,2022-06-29_09h10.27.718,Colour_Asymmetry_Pilot,2022.1.3,Win32,64,62bbe60bf3d75ef465d3e404,0,17,17,25,1,onethree,,,,,,,,,,,,,,,,,,,,,,,,,,,,,,,,,,,,,,,,,,,,,,,,,,,,,,,,,,,,,,,,,,,,,,,,,,,,,,,,,,,,,,,,,,,,,,,,,,,,,,,,,,,,,,,,,,,,,,,,,,,,,,,,,,,,,,,,,,,,,,,,,,,,,,,,
,,,,,,6102a52c8a4ed0d104d68a15,62bbf9391ce067b5633dbc50,2022-06-29_09h10.27.718,Colour_Asymmetry_Pilot,2022.1.3,Win32,64,62bbe60bf3d75ef465d3e404,0,18,18,76,1,threeone,,,,,,,,,,,,,,,,,,,,,,,,,,,,,,,,,,,,,,,,,,,,,,,,,,,,,,,,,,,,,,,,,,,,,,,,,,,,,,,,,,,,,,,,,,,,,,,,,,,,,,,,,,,,,,,,,,,,,,,,,,,,,,,,,,,,,,,,,,,,,,,,,,,,,,,,
,,,,,,6102a52c8a4ed0d104d68a15,62bbf9391ce067b5633dbc50,2022-06-29_09h10.27.718,Colour_Asymmetry_Pilot,2022.1.3,Win32,64,62bbe60bf3d75ef465d3e404,0,19,19,58,1,twoone,,,,,,,,,,,,,,,,,,,,,,,,,,,,,,,,,,,,,,,,,,,,,,,,,,,,,,,,,,,,,,,,,,,,,,,,,,,,,,,,,,,,,,,,,,,,,,,,,,,,,,,,,,,,,,,,,,,,,,,,,,,,,,,,,,,,,,,,,,,,,,,,,,,,,,,,
,,,,,,6102a52c8a4ed0d104d68a15,62bbf9391ce067b5633dbc50,2022-06-29_09h10.27.718,Colour_Asymmetry_Pilot,2022.1.3,Win32,64,62bbe60bf3d75ef465d3e404,0,20,20,135,1,fourthree,,,,,,,,,,,,,,,,,,,,,,,,,,,,,,,,,,,,,,,,,,,,,,,,,,,,,,,,,,,,,,,,,,,,,,,,,,,,,,,,,,,,,,,,,,,,,,,,,,,,,,,,,,,,,,,,,,,,,,,,,,,,,,,,,,,,,,,,,,,,,,,,,,,,,,,,
,,,,,,6102a52c8a4ed0d104d68a15,62bbf9391ce067b5633dbc50,2022-06-29_09h10.27.718,Colour_Asymmetry_Pilot,2022.1.3,Win32,64,62bbe60bf3d75ef465d3e404,0,21,21,5,1,threefour,,,,,,,,,,,,,,,,,,,,,,,,,,,,,,,,,,,,,,,,,,,,,,,,,,,,,,,,,,,,,,,,,,,,,,,,,,,,,,,,,,,,,,,,,,,,,,,,,,,,,,,,,,,,,,,,,,,,,,,,,,,,,,,,,,,,,,,,,,,,,,,,,,,,,,,,
,,,,,,6102a52c8a4ed0d104d68a15,62bbf9391ce067b5633dbc50,2022-06-29_09h10.27.718,Colour_Asymmetry_Pilot,2022.1.3,Win32,64,62bbe60bf3d75ef465d3e404,0,22,22,88,1,onetwo,,,,,,,,,,,,,,,,,,,,,,,,,,,,,,,,,,,,,,,,,,,,,,,,,,,,,,,,,,,,,,,,,,,,,,,,,,,,,,,,,,,,,,,,,,,,,,,,,,,,,,,,,,,,,,,,,,,,,,,,,,,,,,,,,,,,,,,,,,,,,,,,,,,,,,,,
,,,,,,6102a52c8a4ed0d104d68a15,62bbf9391ce067b5633dbc50,2022-06-29_09h10.27.718,Colour_Asymmetry_Pilot,2022.1.3,Win32,64,62bbe60bf3d75ef465d3e404,0,23,23,53,1,threefour,,,,,,,,,,,,,,,,,,,,,,,,,,,,,,,,,,,,,,,,,,,,,,,,,,,,,,,,,,,,,,,,,,,,,,,,,,,,,,,,,,,,,,,,,,,,,,,,,,,,,,,,,,,,,,,,,,,,,,,,,,,,,,,,,,,,,,,,,,,,,,,,,,,,,,,,
,,,,,,6102a52c8a4ed0d104d68a15,62bbf9391ce067b5633dbc50,2022-06-29_09h10.27.718,Colour_Asymmetry_Pilot,2022.1.3,Win32,64,62bbe60bf3d75ef465d3e404,0,24,24,26,1,twoone,,,,,,,,,,,,,,,,,,,,,,,,,,,,,,,,,,,,,,,,,,,,,,,,,,,,,,,,,,,,,,,,,,,,,,,,,,,,,,,,,,,,,,,,,,,,,,,,,,,,,,,,,,,,,,,,,,,,,,,,,,,,,,,,,,,,,,,,,,,,,,,,,,,,,,,,
,,,,,,6102a52c8a4ed0d104d68a15,62bbf9391ce067b5633dbc50,2022-06-29_09h10.27.718,Colour_Asymmetry_Pilot,2022.1.3,Win32,64,62bbe60bf3d75ef465d3e404,0,25,25,114,1,twoone,,,,,,,,,,,,,,,,,,,,,,,,,,,,,,,,,,,,,,,,,,,,,,,,,,,,,,,,,,,,,,,,,,,,,,,,,,,,,,,,,,,,,,,,,,,,,,,,,,,,,,,,,,,,,,,,,,,,,,,,,,,,,,,,,,,,,,,,,,,,,,,,,,,,,,,,
,,,,,,6102a52c8a4ed0d104d68a15,62bbf9391ce067b5633dbc50,2022-06-29_09h10.27.718,Colour_Asymmetry_Pilot,2022.1.3,Win32,64,62bbe60bf3d75ef465d3e404,0,26,26,141,1,threefour,,,,,,,,,,,,,,,,,,,,,,,,,,,,,,,,,,,,,,,,,,,,,,,,,,,,,,,,,,,,,,,,,,,,,,,,,,,,,,,,,,,,,,,,,,,,,,,,,,,,,,,,,,,,,,,,,,,,,,,,,,,,,,,,,,,,,,,,,,,,,,,,,,,,,,,,
,,,,,,6102a52c8a4ed0d104d68a15,62bbf9391ce067b5633dbc50,2022-06-29_09h10.27.718,Colour_Asymmetry_Pilot,2022.1.3,Win32,64,62bbe60bf3d75ef465d3e404,0,27,27,28,1,threeone,,,,,,,,,,,,,,,,,,,,,,,,,,,,,,,,,,,,,,,,,,,,,,,,,,,,,,,,,,,,,,,,,,,,,,,,,,,,,,,,,,,,,,,,,,,,,,,,,,,,,,,,,,,,,,,,,,,,,,,,,,,,,,,,,,,,,,,,,,,,,,,,,,,,,,,,
,,,,,,6102a52c8a4ed0d104d68a15,62bbf9391ce067b5633dbc50,2022-06-29_09h10.27.718,Colour_Asymmetry_Pilot,2022.1.3,Win32,64,62bbe60bf3d75ef465d3e404,0,28,28,29,1,threefour,,,,,,,,,,,,,,,,,,,,,,,,,,,,,,,,,,,,,,,,,,,,,,,,,,,,,,,,,,,,,,,,,,,,,,,,,,,,,,,,,,,,,,,,,,,,,,,,,,,,,,,,,,,,,,,,,,,,,,,,,,,,,,,,,,,,,,,,,,,,,,,,,,,,,,,,
,,,,,,6102a52c8a4ed0d104d68a15,62bbf9391ce067b5633dbc50,2022-06-29_09h10.27.718,Colour_Asymmetry_Pilot,2022.1.3,Win32,64,62bbe60bf3d75ef465d3e404,0,29,29,10,1,twoone,,,,,,,,,,,,,,,,,,,,,,,,,,,,,,,,,,,,,,,,,,,,,,,,,,,,,,,,,,,,,,,,,,,,,,,,,,,,,,,,,,,,,,,,,,,,,,,,,,,,,,,,,,,,,,,,,,,,,,,,,,,,,,,,,,,,,,,,,,,,,,,,,,,,,,,,
,,,,,,6102a52c8a4ed0d104d68a15,62bbf9391ce067b5633dbc50,2022-06-29_09h10.27.718,Colour_Asymmetry_Pilot,2022.1.3,Win32,64,62bbe60bf3d75ef465d3e404,0,30,30,123,1,twofour,,,,,,,,,,,,,,,,,,,,,,,,,,,,,,,,,,,,,,,,,,,,,,,,,,,,,,,,,,,,,,,,,,,,,,,,,,,,,,,,,,,,,,,,,,,,,,,,,,,,,,,,,,,,,,,,,,,,,,,,,,,,,,,,,,,,,,,,,,,,,,,,,,,,,,,,
,,,,,,6102a52c8a4ed0d104d68a15,62bbf9391ce067b5633dbc50,2022-06-29_09h10.27.718,Colour_Asymmetry_Pilot,2022.1.3,Win32,64,62bbe60bf3d75ef465d3e404,0,31,31,144,1,onetwo,,,,,,,,,,,,,,,,,,,,,,,,,,,,,,,,,,,,,,,,,,,,,,,,,,,,,,,,,,,,,,,,,,,,,,,,,,,,,,,,,,,,,,,,,,,,,,,,,,,,,,,,,,,,,,,,,,,,,,,,,,,,,,,,,,,,,,,,,,,,,,,,,,,,,,,,
,,,,,,6102a52c8a4ed0d104d68a15,62bbf9391ce067b5633dbc50,2022-06-29_09h10.27.718,Colour_Asymmetry_Pilot,2022.1.3,Win32,64,62bbe60bf3d75ef465d3e404,0,32,32,113,1,onethree,,,,,,,,,,,,,,,,,,,,,,,,,,,,,,,,,,,,,,,,,,,,,,,,,,,,,,,,,,,,,,,,,,,,,,,,,,,,,,,,,,,,,,,,,,,,,,,,,,,,,,,,,,,,,,,,,,,,,,,,,,,,,,,,,,,,,,,,,,,,,,,,,,,,,,,,
,,,,,,6102a52c8a4ed0d104d68a15,62bbf9391ce067b5633dbc50,2022-06-29_09h10.27.718,Colour_Asymmetry_Pilot,2022.1.3,Win32,64,62bbe60bf3d75ef465d3e404,0,33,33,152,1,onetwo,,,,,,,,,,,,,,,,,,,,,,,,,,,,,,,,,,,,,,,,,,,,,,,,,,,,,,,,,,,,,,,,,,,,,,,,,,,,,,,,,,,,,,,,,,,,,,,,,,,,,,,,,,,,,,,,,,,,,,,,,,,,,,,,,,,,,,,,,,,,,,,,,,,,,,,,
,,,,,,6102a52c8a4ed0d104d68a15,62bbf9391ce067b5633dbc50,2022-06-29_09h10.27.718,Colour_Asymmetry_Pilot,2022.1.3,Win32,64,62bbe60bf3d75ef465d3e404,0,34,34,64,1,onetwo,,,,,,,,,,,,,,,,,,,,,,,,,,,,,,,,,,,,,,,,,,,,,,,,,,,,,,,,,,,,,,,,,,,,,,,,,,,,,,,,,,,,,,,,,,,,,,,,,,,,,,,,,,,,,,,,,,,,,,,,,,,,,,,,,,,,,,,,,,,,,,,,,,,,,,,,
,,,,,,6102a52c8a4ed0d104d68a15,62bbf9391ce067b5633dbc50,2022-06-29_09h10.27.718,Colour_Asymmetry_Pilot,2022.1.3,Win32,64,62bbe60bf3d75ef465d3e404,0,35,35,37,1,threefour,,,,,,,,,,,,,,,,,,,,,,,,,,,,,,,,,,,,,,,,,,,,,,,,,,,,,,,,,,,,,,,,,,,,,,,,,,,,,,,,,,,,,,,,,,,,,,,,,,,,,,,,,,,,,,,,,,,,,,,,,,,,,,,,,,,,,,,,,,,,,,,,,,,,,,,,
,,,,,,6102a52c8a4ed0d104d68a15,62bbf9391ce067b5633dbc50,2022-06-29_09h10.27.718,Colour_Asymmetry_Pilot,2022.1.3,Win32,64,62bbe60bf3d75ef465d3e404,0,36,36,35,1,twofour,,,,,,,,,,,,,,,,,,,,,,,,,,,,,,,,,,,,,,,,,,,,,,,,,,,,,,,,,,,,,,,,,,,,,,,,,,,,,,,,,,,,,,,,,,,,,,,,,,,,,,,,,,,,,,,,,,,,,,,,,,,,,,,,,,,,,,,,,,,,,,,,,,,,,,,,
,,,,,,6102a52c8a4ed0d104d68a15,62bbf9391ce067b5633dbc50,2022-06-29_09h10.27.718,Colour_Asymmetry_Pilot,2022.1.3,Win32,64,62bbe60bf3d75ef465d3e404,0,37,37,41,1,onethree,,,,,,,,,,,,,,,,,,,,,,,,,,,,,,,,,,,,,,,,,,,,,,,,,,,,,,,,,,,,,,,,,,,,,,,,,,,,,,,,,,,,,,,,,,,,,,,,,,,,,,,,,,,,,,,,,,,,,,,,,,,,,,,,,,,,,,,,,,,,,,,,,,,,,,,,
,,,,,,6102a52c8a4ed0d104d68a15,62bbf9391ce067b5633dbc50,2022-06-29_09h10.27.718,Colour_Asymmetry_Pilot,2022.1.3,Win32,64,62bbe60bf3d75ef465d3e404,0,38,38,103,1,fourthree,,,,,,,,,,,,,,,,,,,,,,,,,,,,,,,,,,,,,,,,,,,,,,,,,,,,,,,,,,,,,,,,,,,,,,,,,,,,,,,,,,,,,,,,,,,,,,,,,,,,,,,,,,,,,,,,,,,,,,,,,,,,,,,,,,,,,,,,,,,,,,,,,,,,,,,,
,,,,,,6102a52c8a4ed0d104d68a15,62bbf9391ce067b5633dbc50,2022-06-29_09h10.27.718,Colour_Asymmetry_Pilot,2022.1.3,Win32,64,62bbe60bf3d75ef465d3e404,0,39,39,111,1,fourthree,,,,,,,,,,,,,,,,,,,,,,,,,,,,,,,,,,,,,,,,,,,,,,,,,,,,,,,,,,,,,,,,,,,,,,,,,,,,,,,,,,,,,,,,,,,,,,,,,,,,,,,,,,,,,,,,,,,,,,,,,,,,,,,,,,,,,,,,,,,,,,,,,,,,,,,,
,,,,,,6102a52c8a4ed0d104d68a15,62bbf9391ce067b5633dbc50,2022-06-29_09h10.27.718,Colour_Asymmetry_Pilot,2022.1.3,Win32,64,62bbe60bf3d75ef465d3e404,0,40,40,17,1,onethree,,,,,,,,,,,,,,,,,,,,,,,,,,,,,,,,,,,,,,,,,,,,,,,,,,,,,,,,,,,,,,,,,,,,,,,,,,,,,,,,,,,,,,,,,,,,,,,,,,,,,,,,,,,,,,,,,,,,,,,,,,,,,,,,,,,,,,,,,,,,,,,,,,,,,,,,
,,,,,,6102a52c8a4ed0d104d68a15,62bbf9391ce067b5633dbc50,2022-06-29_09h10.27.718,Colour_Asymmetry_Pilot,2022.1.3,Win32,64,62bbe60bf3d75ef465d3e404,0,41,41,154,1,twoone,,,,,,,,,,,,,,,,,,,,,,,,,,,,,,,,,,,,,,,,,,,,,,,,,,,,,,,,,,,,,,,,,,,,,,,,,,,,,,,,,,,,,,,,,,,,,,,,,,,,,,,,,,,,,,,,,,,,,,,,,,,,,,,,,,,,,,,,,,,,,,,,,,,,,,,,
,,,,,,6102a52c8a4ed0d104d68a15,62bbf9391ce067b5633dbc50,2022-06-29_09h10.27.718,Colour_Asymmetry_Pilot,2022.1.3,Win32,64,62bbe60bf3d75ef465d3e404,0,42,42,107,1,twofour,,,,,,,,,,,,,,,,,,,,,,,,,,,,,,,,,,,,,,,,,,,,,,,,,,,,,,,,,,,,,,,,,,,,,,,,,,,,,,,,,,,,,,,,,,,,,,,,,,,,,,,,,,,,,,,,,,,,,,,,,,,,,,,,,,,,,,,,,,,,,,,,,,,,,,,,
,,,,,,6102a52c8a4ed0d104d68a15,62bbf9391ce067b5633dbc50,2022-06-29_09h10.27.718,Colour_Asymmetry_Pilot,2022.1.3,Win32,64,62bbe60bf3d75ef465d3e404,0,43,43,77,1,threefour,,,,,,,,,,,,,,,,,,,,,,,,,,,,,,,,,,,,,,,,,,,,,,,,,,,,,,,,,,,,,,,,,,,,,,,,,,,,,,,,,,,,,,,,,,,,,,,,,,,,,,,,,,,,,,,,,,,,,,,,,,,,,,,,,,,,,,,,,,,,,,,,,,,,,,,,
,,,,,,6102a52c8a4ed0d104d68a15,62bbf9391ce067b5633dbc50,2022-06-29_09h10.27.718,Colour_Asymmetry_Pilot,2022.1.3,Win32,64,62bbe60bf3d75ef465d3e404,0,44,44,60,1,threeone,,,,,,,,,,,,,,,,,,,,,,,,,,,,,,,,,,,,,,,,,,,,,,,,,,,,,,,,,,,,,,,,,,,,,,,,,,,,,,,,,,,,,,,,,,,,,,,,,,,,,,,,,,,,,,,,,,,,,,,,,,,,,,,,,,,,,,,,,,,,,,,,,,,,,,,,
,,,,,,6102a52c8a4ed0d104d68a15,62bbf9391ce067b5633dbc50,2022-06-29_09h10.27.718,Colour_Asymmetry_Pilot,2022.1.3,Win32,64,62bbe60bf3d75ef465d3e404,0,45,45,106,1,twoone,,,,,,,,,,,,,,,,,,,,,,,,,,,,,,,,,,,,,,,,,,,,,,,,,,,,,,,,,,,,,,,,,,,,,,,,,,,,,,,,,,,,,,,,,,,,,,,,,,,,,,,,,,,,,,,,,,,,,,,,,,,,,,,,,,,,,,,,,,,,,,,,,,,,,,,,
,,,,,,6102a52c8a4ed0d104d68a15,62bbf9391ce067b5633dbc50,2022-06-29_09h10.27.718,Colour_Asymmetry_Pilot,2022.1.3,Win32,64,62bbe60bf3d75ef465d3e404,0,46,46,98,1,twoone,,,,,,,,,,,,,,,,,,,,,,,,,,,,,,,,,,,,,,,,,,,,,,,,,,,,,,,,,,,,,,,,,,,,,,,,,,,,,,,,,,,,,,,,,,,,,,,,,,,,,,,,,,,,,,,,,,,,,,,,,,,,,,,,,,,,,,,,,,,,,,,,,,,,,,,,
,,,,,,6102a52c8a4ed0d104d68a15,62bbf9391ce067b5633dbc50,2022-06-29_09h10.27.718,Colour_Asymmetry_Pilot,2022.1.3,Win32,64,62bbe60bf3d75ef465d3e404,0,47,47,92,1,threeone,,,,,,,,,,,,,,,,,,,,,,,,,,,,,,,,,,,,,,,,,,,,,,,,,,,,,,,,,,,,,,,,,,,,,,,,,,,,,,,,,,,,,,,,,,,,,,,,,,,,,,,,,,,,,,,,,,,,,,,,,,,,,,,,,,,,,,,,,,,,,,,,,,,,,,,,
,,,,,,6102a52c8a4ed0d104d68a15,62bbf9391ce067b5633dbc50,2022-06-29_09h10.27.718,Colour_Asymmetry_Pilot,2022.1.3,Win32,64,62bbe60bf3d75ef465d3e404,0,48,48,18,1,twoone,,,,,,,,,,,,,,,,,,,,,,,,,,,,,,,,,,,,,,,,,,,,,,,,,,,,,,,,,,,,,,,,,,,,,,,,,,,,,,,,,,,,,,,,,,,,,,,,,,,,,,,,,,,,,,,,,,,,,,,,,,,,,,,,,,,,,,,,,,,,,,,,,,,,,,,,
,,,,,,6102a52c8a4ed0d104d68a15,62bbf9391ce067b5633dbc50,2022-06-29_09h10.27.718,Colour_Asymmetry_Pilot,2022.1.3,Win32,64,62bbe60bf3d75ef465d3e404,0,49,49,1,1,onethree,,,,,,,,,,,,,,,,,,,,,,,,,,,,,,,,,,,,,,,,,,,,,,,,,,,,,,,,,,,,,,,,,,,,,,,,,,,,,,,,,,,,,,,,,,,,,,,,,,,,,,,,,,,,,,,,,,,,,,,,,,,,,,,,,,,,,,,,,,,,,,,,,,,,,,,,
,,,,,,6102a52c8a4ed0d104d68a15,62bbf9391ce067b5633dbc50,2022-06-29_09h10.27.718,Colour_Asymmetry_Pilot,2022.1.3,Win32,64,62bbe60bf3d75ef465d3e404,0,50,50,121,1,onethree,,,,,,,,,,,,,,,,,,,,,,,,,,,,,,,,,,,,,,,,,,,,,,,,,,,,,,,,,,,,,,,,,,,,,,,,,,,,,,,,,,,,,,,,,,,,,,,,,,,,,,,,,,,,,,,,,,,,,,,,,,,,,,,,,,,,,,,,,,,,,,,,,,,,,,,,
,,,,,,6102a52c8a4ed0d104d68a15,62bbf9391ce067b5633dbc50,2022-06-29_09h10.27.718,Colour_Asymmetry_Pilot,2022.1.3,Win32,64,62bbe60bf3d75ef465d3e404,0,51,51,59,1,twofour,,,,,,,,,,,,,,,,,,,,,,,,,,,,,,,,,,,,,,,,,,,,,,,,,,,,,,,,,,,,,,,,,,,,,,,,,,,,,,,,,,,,,,,,,,,,,,,,,,,,,,,,,,,,,,,,,,,,,,,,,,,,,,,,,,,,,,,,,,,,,,,,,,,,,,,,
,,,,,,6102a52c8a4ed0d104d68a15,62bbf9391ce067b5633dbc50,2022-06-29_09h10.27.718,Colour_Asymmetry_Pilot,2022.1.3,Win32,64,62bbe60bf3d75ef465d3e404,0,52,52,44,1,threeone,,,,,,,,,,,,,,,,,,,,,,,,,,,,,,,,,,,,,,,,,,,,,,,,,,,,,,,,,,,,,,,,,,,,,,,,,,,,,,,,,,,,,,,,,,,,,,,,,,,,,,,,,,,,,,,,,,,,,,,,,,,,,,,,,,,,,,,,,,,,,,,,,,,,,,,,
,,,,,,6102a52c8a4ed0d104d68a15,62bbf9391ce067b5633dbc50,2022-06-29_09h10.27.718,Colour_Asymmetry_Pilot,2022.1.3,Win32,64,62bbe60bf3d75ef465d3e404,0,53,53,56,1,onetwo,,,,,,,,,,,,,,,,,,,,,,,,,,,,,,,,,,,,,,,,,,,,,,,,,,,,,,,,,,,,,,,,,,,,,,,,,,,,,,,,,,,,,,,,,,,,,,,,,,,,,,,,,,,,,,,,,,,,,,,,,,,,,,,,,,,,,,,,,,,,,,,,,,,,,,,,
,,,,,,6102a52c8a4ed0d104d68a15,62bbf9391ce067b5633dbc50,2022-06-29_09h10.27.718,Colour_Asymmetry_Pilot,2022.1.3,Win32,64,62bbe60bf3d75ef465d3e404,0,54,54,129,1,onethree,,,,,,,,,,,,,,,,,,,,,,,,,,,,,,,,,,,,,,,,,,,,,,,,,,,,,,,,,,,,,,,,,,,,,,,,,,,,,,,,,,,,,,,,,,,,,,,,,,,,,,,,,,,,,,,,,,,,,,,,,,,,,,,,,,,,,,,,,,,,,,,,,,,,,,,,
,,,,,,6102a52c8a4ed0d104d68a15,62bbf9391ce067b5633dbc50,2022-06-29_09h10.27.718,Colour_Asymmetry_Pilot,2022.1.3,Win32,64,62bbe60bf3d75ef465d3e404,0,55,55,137,1,onethree,,,,,,,,,,,,,,,,,,,,,,,,,,,,,,,,,,,,,,,,,,,,,,,,,,,,,,,,,,,,,,,,,,,,,,,,,,,,,,,,,,,,,,,,,,,,,,,,,,,,,,,,,,,,,,,,,,,,,,,,,,,,,,,,,,,,,,,,,,,,,,,,,,,,,,,,
,,,,,,6102a52c8a4ed0d104d68a15,62bbf9391ce067b5633dbc50,2022-06-29_09h10.27.718,Colour_Asymmetry_Pilot,2022.1.3,Win32,64,62bbe60bf3d75ef465d3e404,0,56,56,3,1,twofour,,,,,,,,,,,,,,,,,,,,,,,,,,,,,,,,,,,,,,,,,,,,,,,,,,,,,,,,,,,,,,,,,,,,,,,,,,,,,,,,,,,,,,,,,,,,,,,,,,,,,,,,,,,,,,,,,,,,,,,,,,,,,,,,,,,,,,,,,,,,,,,,,,,,,,,,
,,,,,,6102a52c8a4ed0d104d68a15,62bbf9391ce067b5633dbc50,2022-06-29_09h10.27.718,Colour_Asymmetry_Pilot,2022.1.3,Win32,64,62bbe60bf3d75ef465d3e404,0,57,57,57,1,onethree,,,,,,,,,,,,,,,,,,,,,,,,,,,,,,,,,,,,,,,,,,,,,,,,,,,,,,,,,,,,,,,,,,,,,,,,,,,,,,,,,,,,,,,,,,,,,,,,,,,,,,,,,,,,,,,,,,,,,,,,,,,,,,,,,,,,,,,,,,,,,,,,,,,,,,,,
,,,,,,6102a52c8a4ed0d104d68a15,62bbf9391ce067b5633dbc50,2022-06-29_09h10.27.718,Colour_Asymmetry_Pilot,2022.1.3,Win32,64,62bbe60bf3d75ef465d3e404,0,58,58,61,1,threefour,,,,,,,,,,,,,,,,,,,,,,,,,,,,,,,,,,,,,,,,,,,,,,,,,,,,,,,,,,,,,,,,,,,,,,,,,,,,,,,,,,,,,,,,,,,,,,,,,,,,,,,,,,,,,,,,,,,,,,,,,,,,,,,,,,,,,,,,,,,,,,,,,,,,,,,,
,,,,,,6102a52c8a4ed0d104d68a15,62bbf9391ce067b5633dbc50,2022-06-29_09h10.27.718,Colour_Asymmetry_Pilot,2022.1.3,Win32,64,62bbe60bf3d75ef465d3e404,0,59,59,159,1,fourthree,,,,,,,,,,,,,,,,,,,,,,,,,,,,,,,,,,,,,,,,,,,,,,,,,,,,,,,,,,,,,,,,,,,,,,,,,,,,,,,,,,,,,,,,,,,,,,,,,,,,,,,,,,,,,,,,,,,,,,,,,,,,,,,,,,,,,,,,,,,,,,,,,,,,,,,,
,,,,,,6102a52c8a4ed0d104d68a15,62bbf9391ce067b5633dbc50,2022-06-29_09h10.27.718,Colour_Asymmetry_Pilot,2022.1.3,Win32,64,62bbe60bf3d75ef465d3e404,0,60,60,48,1,onetwo,,,,,,,,,,,,,,,,,,,,,,,,,,,,,,,,,,,,,,,,,,,,,,,,,,,,,,,,,,,,,,,,,,,,,,,,,,,,,,,,,,,,,,,,,,,,,,,,,,,,,,,,,,,,,,,,,,,,,,,,,,,,,,,,,,,,,,,,,,,,,,,,,,,,,,,,
,,,,,,6102a52c8a4ed0d104d68a15,62bbf9391ce067b5633dbc50,2022-06-29_09h10.27.718,Colour_Asymmetry_Pilot,2022.1.3,Win32,64,62bbe60bf3d75ef465d3e404,0,61,61,149,1,threefour,,,,,,,,,,,,,,,,,,,,,,,,,,,,,,,,,,,,,,,,,,,,,,,,,,,,,,,,,,,,,,,,,,,,,,,,,,,,,,,,,,,,,,,,,,,,,,,,,,,,,,,,,,,,,,,,,,,,,,,,,,,,,,,,,,,,,,,,,,,,,,,,,,,,,,,,
,,,,,,6102a52c8a4ed0d104d68a15,62bbf9391ce067b5633dbc50,2022-06-29_09h10.27.718,Colour_Asymmetry_Pilot,2022.1.3,Win32,64,62bbe60bf3d75ef465d3e404,0,62,62,74,1,twoone,,,,,,,,,,,,,,,,,,,,,,,,,,,,,,,,,,,,,,,,,,,,,,,,,,,,,,,,,,,,,,,,,,,,,,,,,,,,,,,,,,,,,,,,,,,,,,,,,,,,,,,,,,,,,,,,,,,,,,,,,,,,,,,,,,,,,,,,,,,,,,,,,,,,,,,,
,,,,,,6102a52c8a4ed0d104d68a15,62bbf9391ce067b5633dbc50,2022-06-29_09h10.27.718,Colour_Asymmetry_Pilot,2022.1.3,Win32,64,62bbe60bf3d75ef465d3e404,0,63,63,87,1,fourthree,,,,,,,,,,,,,,,,,,,,,,,,,,,,,,,,,,,,,,,,,,,,,,,,,,,,,,,,,,,,,,,,,,,,,,,,,,,,,,,,,,,,,,,,,,,,,,,,,,,,,,,,,,,,,,,,,,,,,,,,,,,,,,,,,,,,,,,,,,,,,,,,,,,,,,,,
,,,,,,6102a52c8a4ed0d104d68a15,62bbf9391ce067b5633dbc50,2022-06-29_09h10.27.718,Colour_Asymmetry_Pilot,2022.1.3,Win32,64,62bbe60bf3d75ef465d3e404,0,64,64,8,1,onetwo,,,,,,,,,,,,,,,,,,,,,,,,,,,,,,,,,,,,,,,,,,,,,,,,,,,,,,,,,,,,,,,,,,,,,,,,,,,,,,,,,,,,,,,,,,,,,,,,,,,,,,,,,,,,,,,,,,,,,,,,,,,,,,,,,,,,,,,,,,,,,,,,,,,,,,,,
,,,,,,6102a52c8a4ed0d104d68a15,62bbf9391ce067b5633dbc50,2022-06-29_09h10.27.718,Colour_Asymmetry_Pilot,2022.1.3,Win32,64,62bbe60bf3d75ef465d3e404,0,65,65,7,1,fourthree,,,,,,,,,,,,,,,,,,,,,,,,,,,,,,,,,,,,,,,,,,,,,,,,,,,,,,,,,,,,,,,,,,,,,,,,,,,,,,,,,,,,,,,,,,,,,,,,,,,,,,,,,,,,,,,,,,,,,,,,,,,,,,,,,,,,,,,,,,,,,,,,,,,,,,,,
,,,,,,6102a52c8a4ed0d104d68a15,62bbf9391ce067b5633dbc50,2022-06-29_09h10.27.718,Colour_Asymmetry_Pilot,2022.1.3,Win32,64,62bbe60bf3d75ef465d3e404,0,66,66,84,1,threeone,,,,,,,,,,,,,,,,,,,,,,,,,,,,,,,,,,,,,,,,,,,,,,,,,,,,,,,,,,,,,,,,,,,,,,,,,,,,,,,,,,,,,,,,,,,,,,,,,,,,,,,,,,,,,,,,,,,,,,,,,,,,,,,,,,,,,,,,,,,,,,,,,,,,,,,,
,,,,,,6102a52c8a4ed0d104d68a15,62bbf9391ce067b5633dbc50,2022-06-29_09h10.27.718,Colour_Asymmetry_Pilot,2022.1.3,Win32,64,62bbe60bf3d75ef465d3e404,0,67,67,143,1,fourthree,,,,,,,,,,,,,,,,,,,,,,,,,,,,,,,,,,,,,,,,,,,,,,,,,,,,,,,,,,,,,,,,,,,,,,,,,,,,,,,,,,,,,,,,,,,,,,,,,,,,,,,,,,,,,,,,,,,,,,,,,,,,,,,,,,,,,,,,,,,,,,,,,,,,,,,,
,,,,,,6102a52c8a4ed0d104d68a15,62bbf9391ce067b5633dbc50,2022-06-29_09h10.27.718,Colour_Asymmetry_Pilot,2022.1.3,Win32,64,62bbe60bf3d75ef465d3e404,0,68,68,22,1,fourtwo,,,,,,,,,,,,,,,,,,,,,,,,,,,,,,,,,,,,,,,,,,,,,,,,,,,,,,,,,,,,,,,,,,,,,,,,,,,,,,,,,,,,,,,,,,,,,,,,,,,,,,,,,,,,,,,,,,,,,,,,,,,,,,,,,,,,,,,,,,,,,,,,,,,,,,,,
,,,,,,6102a52c8a4ed0d104d68a15,62bbf9391ce067b5633dbc50,2022-06-29_09h10.27.718,Colour_Asymmetry_Pilot,2022.1.3,Win32,64,62bbe60bf3d75ef465d3e404,0,69,69,71,1,fourthree,,,,,,,,,,,,,,,,,,,,,,,,,,,,,,,,,,,,,,,,,,,,,,,,,,,,,,,,,,,,,,,,,,,,,,,,,,,,,,,,,,,,,,,,,,,,,,,,,,,,,,,,,,,,,,,,,,,,,,,,,,,,,,,,,,,,,,,,,,,,,,,,,,,,,,,,
,,,,,,6102a52c8a4ed0d104d68a15,62bbf9391ce067b5633dbc50,2022-06-29_09h10.27.718,Colour_Asymmetry_Pilot,2022.1.3,Win32,64,62bbe60bf3d75ef465d3e404,0,70,70,147,1,twofour,,,,,,,,,,,,,,,,,,,,,,,,,,,,,,,,,,,,,,,,,,,,,,,,,,,,,,,,,,,,,,,,,,,,,,,,,,,,,,,,,,,,,,,,,,,,,,,,,,,,,,,,,,,,,,,,,,,,,,,,,,,,,,,,,,,,,,,,,,,,,,,,,,,,,,,,
,,,,,,6102a52c8a4ed0d104d68a15,62bbf9391ce067b5633dbc50,2022-06-29_09h10.27.718,Colour_Asymmetry_Pilot,2022.1.3,Win32,64,62bbe60bf3d75ef465d3e404,0,71,71,156,1,threeone,,,,,,,,,,,,,,,,,,,,,,,,,,,,,,,,,,,,,,,,,,,,,,,,,,,,,,,,,,,,,,,,,,,,,,,,,,,,,,,,,,,,,,,,,,,,,,,,,,,,,,,,,,,,,,,,,,,,,,,,,,,,,,,,,,,,,,,,,,,,,,,,,,,,,,,,
,,,,,,6102a52c8a4ed0d104d68a15,62bbf9391ce067b5633dbc50,2022-06-29_09h10.27.718,Colour_Asymmetry_Pilot,2022.1.3,Win32,64,62bbe60bf3d75ef465d3e404,0,72,72,30,1,fourtwo,,,,,,,,,,,,,,,,,,,,,,,,,,,,,,,,,,,,,,,,,,,,,,,,,,,,,,,,,,,,,,,,,,,,,,,,,,,,,,,,,,,,,,,,,,,,,,,,,,,,,,,,,,,,,,,,,,,,,,,,,,,,,,,,,,,,,,,,,,,,,,,,,,,,,,,,
,,,,,,6102a52c8a4ed0d104d68a15,62bbf9391ce067b5633dbc50,2022-06-29_09h10.27.718,Colour_Asymmetry_Pilot,2022.1.3,Win32,64,62bbe60bf3d75ef465d3e404,0,73,73,120,1,onetwo,,,,,,,,,,,,,,,,,,,,,,,,,,,,,,,,,,,,,,,,,,,,,,,,,,,,,,,,,,,,,,,,,,,,,,,,,,,,,,,,,,,,,,,,,,,,,,,,,,,,,,,,,,,,,,,,,,,,,,,,,,,,,,,,,,,,,,,,,,,,,,,,,,,,,,,,
,,,,,,6102a52c8a4ed0d104d68a15,62bbf9391ce067b5633dbc50,2022-06-29_09h10.27.718,Colour_Asymmetry_Pilot,2022.1.3,Win32,64,62bbe60bf3d75ef465d3e404,0,74,74,31,1,fourthree,,,,,,,,,,,,,,,,,,,,,,,,,,,,,,,,,,,,,,,,,,,,,,,,,,,,,,,,,,,,,,,,,,,,,,,,,,,,,,,,,,,,,,,,,,,,,,,,,,,,,,,,,,,,,,,,,,,,,,,,,,,,,,,,,,,,,,,,,,,,,,,,,,,,,,,,
,,,,,,6102a52c8a4ed0d104d68a15,62bbf9391ce067b5633dbc50,2022-06-29_09h10.27.718,Colour_Asymmetry_Pilot,2022.1.3,Win32,64,62bbe60bf3d75ef465d3e404,0,75,75,132,1,threeone,,,,,,,,,,,,,,,,,,,,,,,,,,,,,,,,,,,,,,,,,,,,,,,,,,,,,,,,,,,,,,,,,,,,,,,,,,,,,,,,,,,,,,,,,,,,,,,,,,,,,,,,,,,,,,,,,,,,,,,,,,,,,,,,,,,,,,,,,,,,,,,,,,,,,,,,
,,,,,,6102a52c8a4ed0d104d68a15,62bbf9391ce067b5633dbc50,2022-06-29_09h10.27.718,Colour_Asymmetry_Pilot,2022.1.3,Win32,64,62bbe60bf3d75ef465d3e404,0,76,76,51,1,twofour,,,,,,,,,,,,,,,,,,,,,,,,,,,,,,,,,,,,,,,,,,,,,,,,,,,,,,,,,,,,,,,,,,,,,,,,,,,,,,,,,,,,,,,,,,,,,,,,,,,,,,,,,,,,,,,,,,,,,,,,,,,,,,,,,,,,,,,,,,,,,,,,,,,,,,,,
,,,,,,6102a52c8a4ed0d104d68a15,62bbf9391ce067b5633dbc50,2022-06-29_09h10.27.718,Colour_Asymmetry_Pilot,2022.1.3,Win32,64,62bbe60bf3d75ef465d3e404,0,77,77,109,1,threefour,,,,,,,,,,,,,,,,,,,,,,,,,,,,,,,,,,,,,,,,,,,,,,,,,,,,,,,,,,,,,,,,,,,,,,,,,,,,,,,,,,,,,,,,,,,,,,,,,,,,,,,,,,,,,,,,,,,,,,,,,,,,,,,,,,,,,,,,,,,,,,,,,,,,,,,,
,,,,,,6102a52c8a4ed0d104d68a15,62bbf9391ce067b5633dbc50,2022-06-29_09h10.27.718,Colour_Asymmetry_Pilot,2022.1.3,Win32,64,62bbe60bf3d75ef465d3e404,0,78,78,45,1,threefour,,,,,,,,,,,,,,,,,,,,,,,,,,,,,,,,,,,,,,,,,,,,,,,,,,,,,,,,,,,,,,,,,,,,,,,,,,,,,,,,,,,,,,,,,,,,,,,,,,,,,,,,,,,,,,,,,,,,,,,,,,,,,,,,,,,,,,,,,,,,,,,,,,,,,,,,
,,,,,,6102a52c8a4ed0d104d68a15,62bbf9391ce067b5633dbc50,2022-06-29_09h10.27.718,Colour_Asymmetry_Pilot,2022.1.3,Win32,64,62bbe60bf3d75ef465d3e404,0,79,79,16,1,onetwo,,,,,,,,,,,,,,,,,,,,,,,,,,,,,,,,,,,,,,,,,,,,,,,,,,,,,,,,,,,,,,,,,,,,,,,,,,,,,,,,,,,,,,,,,,,,,,,,,,,,,,,,,,,,,,,,,,,,,,,,,,,,,,,,,,,,,,,,,,,,,,,,,,,,,,,,
,,,,,,6102a52c8a4ed0d104d68a15,62bbf9391ce067b5633dbc50,2022-06-29_09h10.27.718,Colour_Asymmetry_Pilot,2022.1.3,Win32,64,62bbe60bf3d75ef465d3e404,0,80,80,42,1,twoone,,,,,,,,,,,,,,,,,,,,,,,,,,,,,,,,,,,,,,,,,,,,,,,,,,,,,,,,,,,,,,,,,,,,,,,,,,,,,,,,,,,,,,,,,,,,,,,,,,,,,,,,,,,,,,,,,,,,,,,,,,,,,,,,,,,,,,,,,,,,,,,,,,,,,,,,
,,,,,,6102a52c8a4ed0d104d68a15,62bbf9391ce067b5633dbc50,2022-06-29_09h10.27.718,Colour_Asymmetry_Pilot,2022.1.3,Win32,64,62bbe60bf3d75ef465d3e404,0,81,81,161,1,onethree,,,,,,,,,,,,,,,,,,,,,,,,,,,,,,,,,,,,,,,,,,,,,,,,,,,,,,,,,,,,,,,,,,,,,,,,,,,,,,,,,,,,,,,,,,,,,,,,,,,,,,,,,,,,,,,,,,,,,,,,,,,,,,,,,,,,,,,,,,,,,,,,,,,,,,,,
,,,,,,6102a52c8a4ed0d104d68a15,62bbf9391ce067b5633dbc50,2022-06-29_09h10.27.718,Colour_Asymmetry_Pilot,2022.1.3,Win32,64,62bbe60bf3d75ef465d3e404,0,82,82,43,1,twofour,,,,,,,,,,,,,,,,,,,,,,,,,,,,,,,,,,,,,,,,,,,,,,,,,,,,,,,,,,,,,,,,,,,,,,,,,,,,,,,,,,,,,,,,,,,,,,,,,,,,,,,,,,,,,,,,,,,,,,,,,,,,,,,,,,,,,,,,,,,,,,,,,,,,,,,,
,,,,,,6102a52c8a4ed0d104d68a15,62bbf9391ce067b5633dbc50,2022-06-29_09h10.27.718,Colour_Asymmetry_Pilot,2022.1.3,Win32,64,62bbe60bf3d75ef465d3e404,0,83,83,118,1,fourtwo,,,,,,,,,,,,,,,,,,,,,,,,,,,,,,,,,,,,,,,,,,,,,,,,,,,,,,,,,,,,,,,,,,,,,,,,,,,,,,,,,,,,,,,,,,,,,,,,,,,,,,,,,,,,,,,,,,,,,,,,,,,,,,,,,,,,,,,,,,,,,,,,,,,,,,,,
,,,,,,6102a52c8a4ed0d104d68a15,62bbf9391ce067b5633dbc50,2022-06-29_09h10.27.718,Colour_Asymmetry_Pilot,2022.1.3,Win32,64,62bbe60bf3d75ef465d3e404,0,84,84,133,1,threefour,,,,,,,,,,,,,,,,,,,,,,,,,,,,,,,,,,,,,,,,,,,,,,,,,,,,,,,,,,,,,,,,,,,,,,,,,,,,,,,,,,,,,,,,,,,,,,,,,,,,,,,,,,,,,,,,,,,,,,,,,,,,,,,,,,,,,,,,,,,,,,,,,,,,,,,,
,,,,,,6102a52c8a4ed0d104d68a15,62bbf9391ce067b5633dbc50,2022-06-29_09h10.27.718,Colour_Asymmetry_Pilot,2022.1.3,Win32,64,62bbe60bf3d75ef465d3e404,0,85,85,101,1,threefour,,,,,,,,,,,,,,,,,,,,,,,,,,,,,,,,,,,,,,,,,,,,,,,,,,,,,,,,,,,,,,,,,,,,,,,,,,,,,,,,,,,,,,,,,,,,,,,,,,,,,,,,,,,,,,,,,,,,,,,,,,,,,,,,,,,,,,,,,,,,,,,,,,,,,,,,
,,,,,,6102a52c8a4ed0d104d68a15,62bbf9391ce067b5633dbc50,2022-06-29_09h10.27.718,Colour_Asymmetry_Pilot,2022.1.3,Win32,64,62bbe60bf3d75ef465d3e404,0,86,86,119,1,fourthree,,,,,,,,,,,,,,,,,,,,,,,,,,,,,,,,,,,,,,,,,,,,,,,,,,,,,,,,,,,,,,,,,,,,,,,,,,,,,,,,,,,,,,,,,,,,,,,,,,,,,,,,,,,,,,,,,,,,,,,,,,,,,,,,,,,,,,,,,,,,,,,,,,,,,,,,
,,,,,,6102a52c8a4ed0d104d68a15,62bbf9391ce067b5633dbc50,2022-06-29_09h10.27.718,Colour_Asymmetry_Pilot,2022.1.3,Win32,64,62bbe60bf3d75ef465d3e404,0,87,87,97,1,onethree,,,,,,,,,,,,,,,,,,,,,,,,,,,,,,,,,,,,,,,,,,,,,,,,,,,,,,,,,,,,,,,,,,,,,,,,,,,,,,,,,,,,,,,,,,,,,,,,,,,,,,,,,,,,,,,,,,,,,,,,,,,,,,,,,,,,,,,,,,,,,,,,,,,,,,,,
,,,,,,6102a52c8a4ed0d104d68a15,62bbf9391ce067b5633dbc50,2022-06-29_09h10.27.718,Colour_Asymmetry_Pilot,2022.1.3,Win32,64,62bbe60bf3d75ef465d3e404,0,88,88,13,1,threefour,,,,,,,,,,,,,,,,,,,,,,,,,,,,,,,,,,,,,,,,,,,,,,,,,,,,,,,,,,,,,,,,,,,,,,,,,,,,,,,,,,,,,,,,,,,,,,,,,,,,,,,,,,,,,,,,,,,,,,,,,,,,,,,,,,,,,,,,,,,,,,,,,,,,,,,,
,,,,,,6102a52c8a4ed0d104d68a15,62bbf9391ce067b5633dbc50,2022-06-29_09h10.27.718,Colour_Asymmetry_Pilot,2022.1.3,Win32,64,62bbe60bf3d75ef465d3e404,0,89,89,86,1,fourtwo,,,,,,,,,,,,,,,,,,,,,,,,,,,,,,,,,,,,,,,,,,,,,,,,,,,,,,,,,,,,,,,,,,,,,,,,,,,,,,,,,,,,,,,,,,,,,,,,,,,,,,,,,,,,,,,,,,,,,,,,,,,,,,,,,,,,,,,,,,,,,,,,,,,,,,,,
,,,,,,6102a52c8a4ed0d104d68a15,62bbf9391ce067b5633dbc50,2022-06-29_09h10.27.718,Colour_Asymmetry_Pilot,2022.1.3,Win32,64,62bbe60bf3d75ef465d3e404,0,90,90,79,1,fourthree,,,,,,,,,,,,,,,,,,,,,,,,,,,,,,,,,,,,,,,,,,,,,,,,,,,,,,,,,,,,,,,,,,,,,,,,,,,,,,,,,,,,,,,,,,,,,,,,,,,,,,,,,,,,,,,,,,,,,,,,,,,,,,,,,,,,,,,,,,,,,,,,,,,,,,,,
,,,,,,6102a52c8a4ed0d104d68a15,62bbf9391ce067b5633dbc50,2022-06-29_09h10.27.718,Colour_Asymmetry_Pilot,2022.1.3,Win32,64,62bbe60bf3d75ef465d3e404,0,91,91,73,1,onethree,,,,,,,,,,,,,,,,,,,,,,,,,,,,,,,,,,,,,,,,,,,,,,,,,,,,,,,,,,,,,,,,,,,,,,,,,,,,,,,,,,,,,,,,,,,,,,,,,,,,,,,,,,,,,,,,,,,,,,,,,,,,,,,,,,,,,,,,,,,,,,,,,,,,,,,,
,,,,,,6102a52c8a4ed0d104d68a15,62bbf9391ce067b5633dbc50,2022-06-29_09h10.27.718,Colour_Asymmetry_Pilot,2022.1.3,Win32,64,62bbe60bf3d75ef465d3e404,0,92,92,32,1,onetwo,,,,,,,,,,,,,,,,,,,,,,,,,,,,,,,,,,,,,,,,,,,,,,,,,,,,,,,,,,,,,,,,,,,,,,,,,,,,,,,,,,,,,,,,,,,,,,,,,,,,,,,,,,,,,,,,,,,,,,,,,,,,,,,,,,,,,,,,,,,,,,,,,,,,,,,,
,,,,,,6102a52c8a4ed0d104d68a15,62bbf9391ce067b5633dbc50,2022-06-29_09h10.27.718,Colour_Asymmetry_Pilot,2022.1.3,Win32,64,62bbe60bf3d75ef465d3e404,0,93,93,0,1,onetwo,,,,,,,,,,,,,,,,,,,,,,,,,,,,,,,,,,,,,,,,,,,,,,,,,,,,,,,,,,,,,,,,,,,,,,,,,,,,,,,,,,,,,,,,,,,,,,,,,,,,,,,,,,,,,,,,,,,,,,,,,,,,,,,,,,,,,,,,,,,,,,,,,,,,,,,,
,,,,,,6102a52c8a4ed0d104d68a15,62bbf9391ce067b5633dbc50,2022-06-29_09h10.27.718,Colour_Asymmetry_Pilot,2022.1.3,Win32,64,62bbe60bf3d75ef465d3e404,0,94,94,19,1,twofour,,,,,,,,,,,,,,,,,,,,,,,,,,,,,,,,,,,,,,,,,,,,,,,,,,,,,,,,,,,,,,,,,,,,,,,,,,,,,,,,,,,,,,,,,,,,,,,,,,,,,,,,,,,,,,,,,,,,,,,,,,,,,,,,,,,,,,,,,,,,,,,,,,,,,,,,
,,,,,,6102a52c8a4ed0d104d68a15,62bbf9391ce067b5633dbc50,2022-06-29_09h10.27.718,Colour_Asymmetry_Pilot,2022.1.3,Win32,64,62bbe60bf3d75ef465d3e404,0,95,95,153,1,onethree,,,,,,,,,,,,,,,,,,,,,,,,,,,,,,,,,,,,,,,,,,,,,,,,,,,,,,,,,,,,,,,,,,,,,,,,,,,,,,,,,,,,,,,,,,,,,,,,,,,,,,,,,,,,,,,,,,,,,,,,,,,,,,,,,,,,,,,,,,,,,,,,,,,,,,,,
,,,,,,6102a52c8a4ed0d104d68a15,62bbf9391ce067b5633dbc50,2022-06-29_09h10.27.718,Colour_Asymmetry_Pilot,2022.1.3,Win32,64,62bbe60bf3d75ef465d3e404,0,96,96,112,1,onetwo,,,,,,,,,,,,,,,,,,,,,,,,,,,,,,,,,,,,,,,,,,,,,,,,,,,,,,,,,,,,,,,,,,,,,,,,,,,,,,,,,,,,,,,,,,,,,,,,,,,,,,,,,,,,,,,,,,,,,,,,,,,,,,,,,,,,,,,,,,,,,,,,,,,,,,,,
,,,,,,6102a52c8a4ed0d104d68a15,62bbf9391ce067b5633dbc50,2022-06-29_09h10.27.718,Colour_Asymmetry_Pilot,2022.1.3,Win32,64,62bbe60bf3d75ef465d3e404,0,97,97,99,1,twofour,,,,,,,,,,,,,,,,,,,,,,,,,,,,,,,,,,,,,,,,,,,,,,,,,,,,,,,,,,,,,,,,,,,,,,,,,,,,,,,,,,,,,,,,,,,,,,,,,,,,,,,,,,,,,,,,,,,,,,,,,,,,,,,,,,,,,,,,,,,,,,,,,,,,,,,,
,,,,,,6102a52c8a4ed0d104d68a15,62bbf9391ce067b5633dbc50,2022-06-29_09h10.27.718,Colour_Asymmetry_Pilot,2022.1.3,Win32,64,62bbe60bf3d75ef465d3e404,0,98,98,36,1,threeone,,,,,,,,,,,,,,,,,,,,,,,,,,,,,,,,,,,,,,,,,,,,,,,,,,,,,,,,,,,,,,,,,,,,,,,,,,,,,,,,,,,,,,,,,,,,,,,,,,,,,,,,,,,,,,,,,,,,,,,,,,,,,,,,,,,,,,,,,,,,,,,,,,,,,,,,
,,,,,,6102a52c8a4ed0d104d68a15,62bbf9391ce067b5633dbc50,2022-06-29_09h10.27.718,Colour_Asymmetry_Pilot,2022.1.3,Win32,64,62bbe60bf3d75ef465d3e404,0,99,99,115,1,twofour,,,,,,,,,,,,,,,,,,,,,,,,,,,,,,,,,,,,,,,,,,,,,,,,,,,,,,,,,,,,,,,,,,,,,,,,,,,,,,,,,,,,,,,,,,,,,,,,,,,,,,,,,,,,,,,,,,,,,,,,,,,,,,,,,,,,,,,,,,,,,,,,,,,,,,,,
,,,,,,6102a52c8a4ed0d104d68a15,62bbf9391ce067b5633dbc50,2022-06-29_09h10.27.718,Colour_Asymmetry_Pilot,2022.1.3,Win32,64,62bbe60bf3d75ef465d3e404,0,100,100,65,1,onethree,,,,,,,,,,,,,,,,,,,,,,,,,,,,,,,,,,,,,,,,,,,,,,,,,,,,,,,,,,,,,,,,,,,,,,,,,,,,,,,,,,,,,,,,,,,,,,,,,,,,,,,,,,,,,,,,,,,,,,,,,,,,,,,,,,,,,,,,,,,,,,,,,,,,,,,,
,,,,,,6102a52c8a4ed0d104d68a15,62bbf9391ce067b5633dbc50,2022-06-29_09h10.27.718,Colour_Asymmetry_Pilot,2022.1.3,Win32,64,62bbe60bf3d75ef465d3e404,0,101,101,110,1,fourtwo,,,,,,,,,,,,,,,,,,,,,,,,,,,,,,,,,,,,,,,,,,,,,,,,,,,,,,,,,,,,,,,,,,,,,,,,,,,,,,,,,,,,,,,,,,,,,,,,,,,,,,,,,,,,,,,,,,,,,,,,,,,,,,,,,,,,,,,,,,,,,,,,,,,,,,,,
,,,,,,6102a52c8a4ed0d104d68a15,62bbf9391ce067b5633dbc50,2022-06-29_09h10.27.718,Colour_Asymmetry_Pilot,2022.1.3,Win32,64,62bbe60bf3d75ef465d3e404,0,102,102,70,1,fourtwo,,,,,,,,,,,,,,,,,,,,,,,,,,,,,,,,,,,,,,,,,,,,,,,,,,,,,,,,,,,,,,,,,,,,,,,,,,,,,,,,,,,,,,,,,,,,,,,,,,,,,,,,,,,,,,,,,,,,,,,,,,,,,,,,,,,,,,,,,,,,,,,,,,,,,,,,
,,,,,,6102a52c8a4ed0d104d68a15,62bbf9391ce067b5633dbc50,2022-06-29_09h10.27.718,Colour_Asymmetry_Pilot,2022.1.3,Win32,64,62bbe60bf3d75ef465d3e404,0,103,103,27,1,twofour,,,,,,,,,,,,,,,,,,,,,,,,,,,,,,,,,,,,,,,,,,,,,,,,,,,,,,,,,,,,,,,,,,,,,,,,,,,,,,,,,,,,,,,,,,,,,,,,,,,,,,,,,,,,,,,,,,,,,,,,,,,,,,,,,,,,,,,,,,,,,,,,,,,,,,,,
,,,,,,6102a52c8a4ed0d104d68a15,62bbf9391ce067b5633dbc50,2022-06-29_09h10.27.718,Colour_Asymmetry_Pilot,2022.1.3,Win32,64,62bbe60bf3d75ef465d3e404,0,104,104,142,1,fourtwo,,,,,,,,,,,,,,,,,,,,,,,,,,,,,,,,,,,,,,,,,,,,,,,,,,,,,,,,,,,,,,,,,,,,,,,,,,,,,,,,,,,,,,,,,,,,,,,,,,,,,,,,,,,,,,,,,,,,,,,,,,,,,,,,,,,,,,,,,,,,,,,,,,,,,,,,
,,,,,,6102a52c8a4ed0d104d68a15,62bbf9391ce067b5633dbc50,2022-06-29_09h10.27.718,Colour_Asymmetry_Pilot,2022.1.3,Win32,64,62bbe60bf3d75ef465d3e404,0,105,105,155,1,twofour,,,,,,,,,,,,,,,,,,,,,,,,,,,,,,,,,,,,,,,,,,,,,,,,,,,,,,,,,,,,,,,,,,,,,,,,,,,,,,,,,,,,,,,,,,,,,,,,,,,,,,,,,,,,,,,,,,,,,,,,,,,,,,,,,,,,,,,,,,,,,,,,,,,,,,,,
,,,,,,6102a52c8a4ed0d104d68a15,62bbf9391ce067b5633dbc50,2022-06-29_09h10.27.718,Colour_Asymmetry_Pilot,2022.1.3,Win32,64,62bbe60bf3d75ef465d3e404,0,106,106,78,1,fourtwo,,,,,,,,,,,,,,,,,,,,,,,,,,,,,,,,,,,,,,,,,,,,,,,,,,,,,,,,,,,,,,,,,,,,,,,,,,,,,,,,,,,,,,,,,,,,,,,,,,,,,,,,,,,,,,,,,,,,,,,,,,,,,,,,,,,,,,,,,,,,,,,,,,,,,,,,
,,,,,,6102a52c8a4ed0d104d68a15,62bbf9391ce067b5633dbc50,2022-06-29_09h10.27.718,Colour_Asymmetry_Pilot,2022.1.3,Win32,64,62bbe60bf3d75ef465d3e404,0,107,107,91,1,twofour,,,,,,,,,,,,,,,,,,,,,,,,,,,,,,,,,,,,,,,,,,,,,,,,,,,,,,,,,,,,,,,,,,,,,,,,,,,,,,,,,,,,,,,,,,,,,,,,,,,,,,,,,,,,,,,,,,,,,,,,,,,,,,,,,,,,,,,,,,,,,,,,,,,,,,,,
,,,,,,6102a52c8a4ed0d104d68a15,62bbf9391ce067b5633dbc50,2022-06-29_09h10.27.718,Colour_Asymmetry_Pilot,2022.1.3,Win32,64,62bbe60bf3d75ef465d3e404,0,108,108,50,1,twoone,,,,,,,,,,,,,,,,,,,,,,,,,,,,,,,,,,,,,,,,,,,,,,,,,,,,,,,,,,,,,,,,,,,,,,,,,,,,,,,,,,,,,,,,,,,,,,,,,,,,,,,,,,,,,,,,,,,,,,,,,,,,,,,,,,,,,,,,,,,,,,,,,,,,,,,,
,,,,,,6102a52c8a4ed0d104d68a15,62bbf9391ce067b5633dbc50,2022-06-29_09h10.27.718,Colour_Asymmetry_Pilot,2022.1.3,Win32,64,62bbe60bf3d75ef465d3e404,0,109,109,105,1,onethree,,,,,,,,,,,,,,,,,,,,,,,,,,,,,,,,,,,,,,,,,,,,,,,,,,,,,,,,,,,,,,,,,,,,,,,,,,,,,,,,,,,,,,,,,,,,,,,,,,,,,,,,,,,,,,,,,,,,,,,,,,,,,,,,,,,,,,,,,,,,,,,,,,,,,,,,
,,,,,,6102a52c8a4ed0d104d68a15,62bbf9391ce067b5633dbc50,2022-06-29_09h10.27.718,Colour_Asymmetry_Pilot,2022.1.3,Win32,64,62bbe60bf3d75ef465d3e404,0,110,110,136,1,onetwo,,,,,,,,,,,,,,,,,,,,,,,,,,,,,,,,,,,,,,,,,,,,,,,,,,,,,,,,,,,,,,,,,,,,,,,,,,,,,,,,,,,,,,,,,,,,,,,,,,,,,,,,,,,,,,,,,,,,,,,,,,,,,,,,,,,,,,,,,,,,,,,,,,,,,,,,
,,,,,,6102a52c8a4ed0d104d68a15,62bbf9391ce067b5633dbc50,2022-06-29_09h10.27.718,Colour_Asymmetry_Pilot,2022.1.3,Win32,64,62bbe60bf3d75ef465d3e404,0,111,111,148,1,threeone,,,,,,,,,,,,,,,,,,,,,,,,,,,,,,,,,,,,,,,,,,,,,,,,,,,,,,,,,,,,,,,,,,,,,,,,,,,,,,,,,,,,,,,,,,,,,,,,,,,,,,,,,,,,,,,,,,,,,,,,,,,,,,,,,,,,,,,,,,,,,,,,,,,,,,,,
,,,,,,6102a52c8a4ed0d104d68a15,62bbf9391ce067b5633dbc50,2022-06-29_09h10.27.718,Colour_Asymmetry_Pilot,2022.1.3,Win32,64,62bbe60bf3d75ef465d3e404,0,112,112,12,1,threeone,,,,,,,,,,,,,,,,,,,,,,,,,,,,,,,,,,,,,,,,,,,,,,,,,,,,,,,,,,,,,,,,,,,,,,,,,,,,,,,,,,,,,,,,,,,,,,,,,,,,,,,,,,,,,,,,,,,,,,,,,,,,,,,,,,,,,,,,,,,,,,,,,,,,,,,,
,,,,,,6102a52c8a4ed0d104d68a15,62bbf9391ce067b5633dbc50,2022-06-29_09h10.27.718,Colour_Asymmetry_Pilot,2022.1.3,Win32,64,62bbe60bf3d75ef465d3e404,0,113,113,52,1,threeone,,,,,,,,,,,,,,,,,,,,,,,,,,,,,,,,,,,,,,,,,,,,,,,,,,,,,,,,,,,,,,,,,,,,,,,,,,,,,,,,,,,,,,,,,,,,,,,,,,,,,,,,,,,,,,,,,,,,,,,,,,,,,,,,,,,,,,,,,,,,,,,,,,,,,,,,
,,,,,,6102a52c8a4ed0d104d68a15,62bbf9391ce067b5633dbc50,2022-06-29_09h10.27.718,Colour_Asymmetry_Pilot,2022.1.3,Win32,64,62bbe60bf3d75ef465d3e404,0,114,114,125,1,threefour,,,,,,,,,,,,,,,,,,,,,,,,,,,,,,,,,,,,,,,,,,,,,,,,,,,,,,,,,,,,,,,,,,,,,,,,,,,,,,,,,,,,,,,,,,,,,,,,,,,,,,,,,,,,,,,,,,,,,,,,,,,,,,,,,,,,,,,,,,,,,,,,,,,,,,,,
,,,,,,6102a52c8a4ed0d104d68a15,62bbf9391ce067b5633dbc50,2022-06-29_09h10.27.718,Colour_Asymmetry_Pilot,2022.1.3,Win32,64,62bbe60bf3d75ef465d3e404,0,115,115,54,1,fourtwo,,,,,,,,,,,,,,,,,,,,,,,,,,,,,,,,,,,,,,,,,,,,,,,,,,,,,,,,,,,,,,,,,,,,,,,,,,,,,,,,,,,,,,,,,,,,,,,,,,,,,,,,,,,,,,,,,,,,,,,,,,,,,,,,,,,,,,,,,,,,,,,,,,,,,,,,
,,,,,,6102a52c8a4ed0d104d68a15,62bbf9391ce067b5633dbc50,2022-06-29_09h10.27.718,Colour_Asymmetry_Pilot,2022.1.3,Win32,64,62bbe60bf3d75ef465d3e404,0,116,116,138,1,twoone,,,,,,,,,,,,,,,,,,,,,,,,,,,,,,,,,,,,,,,,,,,,,,,,,,,,,,,,,,,,,,,,,,,,,,,,,,,,,,,,,,,,,,,,,,,,,,,,,,,,,,,,,,,,,,,,,,,,,,,,,,,,,,,,,,,,,,,,,,,,,,,,,,,,,,,,
,,,,,,6102a52c8a4ed0d104d68a15,62bbf9391ce067b5633dbc50,2022-06-29_09h10.27.718,Colour_Asymmetry_Pilot,2022.1.3,Win32,64,62bbe60bf3d75ef465d3e404,0,117,117,75,1,twofour,,,,,,,,,,,,,,,,,,,,,,,,,,,,,,,,,,,,,,,,,,,,,,,,,,,,,,,,,,,,,,,,,,,,,,,,,,,,,,,,,,,,,,,,,,,,,,,,,,,,,,,,,,,,,,,,,,,,,,,,,,,,,,,,,,,,,,,,,,,,,,,,,,,,,,,,
,,,,,,6102a52c8a4ed0d104d68a15,62bbf9391ce067b5633dbc50,2022-06-29_09h10.27.718,Colour_Asymmetry_Pilot,2022.1.3,Win32,64,62bbe60bf3d75ef465d3e404,0,118,118,82,1,twoone,,,,,,,,,,,,,,,,,,,,,,,,,,,,,,,,,,,,,,,,,,,,,,,,,,,,,,,,,,,,,,,,,,,,,,,,,,,,,,,,,,,,,,,,,,,,,,,,,,,,,,,,,,,,,,,,,,,,,,,,,,,,,,,,,,,,,,,,,,,,,,,,,,,,,,,,
,,,,,,6102a52c8a4ed0d104d68a15,62bbf9391ce067b5633dbc50,2022-06-29_09h10.27.718,Colour_Asymmetry_Pilot,2022.1.3,Win32,64,62bbe60bf3d75ef465d3e404,0,119,119,94,1,fourtwo,,,,,,,,,,,,,,,,,,,,,,,,,,,,,,,,,,,,,,,,,,,,,,,,,,,,,,,,,,,,,,,,,,,,,,,,,,,,,,,,,,,,,,,,,,,,,,,,,,,,,,,,,,,,,,,,,,,,,,,,,,,,,,,,,,,,,,,,,,,,,,,,,,,,,,,,
,,,,,,6102a52c8a4ed0d104d68a15,62bbf9391ce067b5633dbc50,2022-06-29_09h10.27.718,Colour_Asymmetry_Pilot,2022.1.3,Win32,64,62bbe60bf3d75ef465d3e404,0,120,120,90,1,twoone,,,,,,,,,,,,,,,,,,,,,,,,,,,,,,,,,,,,,,,,,,,,,,,,,,,,,,,,,,,,,,,,,,,,,,,,,,,,,,,,,,,,,,,,,,,,,,,,,,,,,,,,,,,,,,,,,,,,,,,,,,,,,,,,,,,,,,,,,,,,,,,,,,,,,,,,
,,,,,,6102a52c8a4ed0d104d68a15,62bbf9391ce067b5633dbc50,2022-06-29_09h10.27.718,Colour_Asymmetry_Pilot,2022.1.3,Win32,64,62bbe60bf3d75ef465d3e404,0,121,121,158,1,fourtwo,,,,,,,,,,,,,,,,,,,,,,,,,,,,,,,,,,,,,,,,,,,,,,,,,,,,,,,,,,,,,,,,,,,,,,,,,,,,,,,,,,,,,,,,,,,,,,,,,,,,,,,,,,,,,,,,,,,,,,,,,,,,,,,,,,,,,,,,,,,,,,,,,,,,,,,,
,,,,,,6102a52c8a4ed0d104d68a15,62bbf9391ce067b5633dbc50,2022-06-29_09h10.27.718,Colour_Asymmetry_Pilot,2022.1.3,Win32,64,62bbe60bf3d75ef465d3e404,0,122,122,160,1,onetwo,,,,,,,,,,,,,,,,,,,,,,,,,,,,,,,,,,,,,,,,,,,,,,,,,,,,,,,,,,,,,,,,,,,,,,,,,,,,,,,,,,,,,,,,,,,,,,,,,,,,,,,,,,,,,,,,,,,,,,,,,,,,,,,,,,,,,,,,,,,,,,,,,,,,,,,,
,,,,,,6102a52c8a4ed0d104d68a15,62bbf9391ce067b5633dbc50,2022-06-29_09h10.27.718,Colour_Asymmetry_Pilot,2022.1.3,Win32,64,62bbe60bf3d75ef465d3e404,0,123,123,128,1,onetwo,,,,,,,,,,,,,,,,,,,,,,,,,,,,,,,,,,,,,,,,,,,,,,,,,,,,,,,,,,,,,,,,,,,,,,,,,,,,,,,,,,,,,,,,,,,,,,,,,,,,,,,,,,,,,,,,,,,,,,,,,,,,,,,,,,,,,,,,,,,,,,,,,,,,,,,,
,,,,,,6102a52c8a4ed0d104d68a15,62bbf9391ce067b5633dbc50,2022-06-29_09h10.27.718,Colour_Asymmetry_Pilot,2022.1.3,Win32,64,62bbe60bf3d75ef465d3e404,0,124,124,145,1,onethree,,,,,,,,,,,,,,,,,,,,,,,,,,,,,,,,,,,,,,,,,,,,,,,,,,,,,,,,,,,,,,,,,,,,,,,,,,,,,,,,,,,,,,,,,,,,,,,,,,,,,,,,,,,,,,,,,,,,,,,,,,,,,,,,,,,,,,,,,,,,,,,,,,,,,,,,
,,,,,,6102a52c8a4ed0d104d68a15,62bbf9391ce067b5633dbc50,2022-06-29_09h10.27.718,Colour_Asymmetry_Pilot,2022.1.3,Win32,64,62bbe60bf3d75ef465d3e404,0,125,125,81,1,onethree,,,,,,,,,,,,,,,,,,,,,,,,,,,,,,,,,,,,,,,,,,,,,,,,,,,,,,,,,,,,,,,,,,,,,,,,,,,,,,,,,,,,,,,,,,,,,,,,,,,,,,,,,,,,,,,,,,,,,,,,,,,,,,,,,,,,,,,,,,,,,,,,,,,,,,,,
,,,,,,6102a52c8a4ed0d104d68a15,62bbf9391ce067b5633dbc50,2022-06-29_09h10.27.718,Colour_Asymmetry_Pilot,2022.1.3,Win32,64,62bbe60bf3d75ef465d3e404,0,126,126,140,1,threeone,,,,,,,,,,,,,,,,,,,,,,,,,,,,,,,,,,,,,,,,,,,,,,,,,,,,,,,,,,,,,,,,,,,,,,,,,,,,,,,,,,,,,,,,,,,,,,,,,,,,,,,,,,,,,,,,,,,,,,,,,,,,,,,,,,,,,,,,,,,,,,,,,,,,,,,,
,,,,,,6102a52c8a4ed0d104d68a15,62bbf9391ce067b5633dbc50,2022-06-29_09h10.27.718,Colour_Asymmetry_Pilot,2022.1.3,Win32,64,62bbe60bf3d75ef465d3e404,0,127,127,146,1,twoone,,,,,,,,,,,,,,,,,,,,,,,,,,,,,,,,,,,,,,,,,,,,,,,,,,,,,,,,,,,,,,,,,,,,,,,,,,,,,,,,,,,,,,,,,,,,,,,,,,,,,,,,,,,,,,,,,,,,,,,,,,,,,,,,,,,,,,,,,,,,,,,,,,,,,,,,
,,,,,,6102a52c8a4ed0d104d68a15,62bbf9391ce067b5633dbc50,2022-06-29_09h10.27.718,Colour_Asymmetry_Pilot,2022.1.3,Win32,64,62bbe60bf3d75ef465d3e404,0,128,128,139,1,twofour,,,,,,,,,,,,,,,,,,,,,,,,,,,,,,,,,,,,,,,,,,,,,,,,,,,,,,,,,,,,,,,,,,,,,,,,,,,,,,,,,,,,,,,,,,,,,,,,,,,,,,,,,,,,,,,,,,,,,,,,,,,,,,,,,,,,,,,,,,,,,,,,,,,,,,,,
,,,,,,6102a52c8a4ed0d104d68a15,62bbf9391ce067b5633dbc50,2022-06-29_09h10.27.718,Colour_Asymmetry_Pilot,2022.1.3,Win32,64,62bbe60bf3d75ef465d3e404,0,129,129,102,1,fourtwo,,,,,,,,,,,,,,,,,,,,,,,,,,,,,,,,,,,,,,,,,,,,,,,,,,,,,,,,,,,,,,,,,,,,,,,,,,,,,,,,,,,,,,,,,,,,,,,,,,,,,,,,,,,,,,,,,,,,,,,,,,,,,,,,,,,,,,,,,,,,,,,,,,,,,,,,
,,,,,,6102a52c8a4ed0d104d68a15,62bbf9391ce067b5633dbc50,2022-06-29_09h10.27.718,Colour_Asymmetry_Pilot,2022.1.3,Win32,64,62bbe60bf3d75ef465d3e404,0,130,130,62,1,fourtwo,,,,,,,,,,,,,,,,,,,,,,,,,,,,,,,,,,,,,,,,,,,,,,,,,,,,,,,,,,,,,,,,,,,,,,,,,,,,,,,,,,,,,,,,,,,,,,,,,,,,,,,,,,,,,,,,,,,,,,,,,,,,,,,,,,,,,,,,,,,,,,,,,,,,,,,,
,,,,,,6102a52c8a4ed0d104d68a15,62bbf9391ce067b5633dbc50,2022-06-29_09h10.27.718,Colour_Asymmetry_Pilot,2022.1.3,Win32,64,62bbe60bf3d75ef465d3e404,0,131,131,104,1,onetwo,,,,,,,,,,,,,,,,,,,,,,,,,,,,,,,,,,,,,,,,,,,,,,,,,,,,,,,,,,,,,,,,,,,,,,,,,,,,,,,,,,,,,,,,,,,,,,,,,,,,,,,,,,,,,,,,,,,,,,,,,,,,,,,,,,,,,,,,,,,,,,,,,,,,,,,,
,,,,,,6102a52c8a4ed0d104d68a15,62bbf9391ce067b5633dbc50,2022-06-29_09h10.27.718,Colour_Asymmetry_Pilot,2022.1.3,Win32,64,62bbe60bf3d75ef465d3e404,0,132,132,40,1,onetwo,,,,,,,,,,,,,,,,,,,,,,,,,,,,,,,,,,,,,,,,,,,,,,,,,,,,,,,,,,,,,,,,,,,,,,,,,,,,,,,,,,,,,,,,,,,,,,,,,,,,,,,,,,,,,,,,,,,,,,,,,,,,,,,,,,,,,,,,,,,,,,,,,,,,,,,,
,,,,,,6102a52c8a4ed0d104d68a15,62bbf9391ce067b5633dbc50,2022-06-29_09h10.27.718,Colour_Asymmetry_Pilot,2022.1.3,Win32,64,62bbe60bf3d75ef465d3e404,0,133,133,4,1,threeone,,,,,,,,,,,,,,,,,,,,,,,,,,,,,,,,,,,,,,,,,,,,,,,,,,,,,,,,,,,,,,,,,,,,,,,,,,,,,,,,,,,,,,,,,,,,,,,,,,,,,,,,,,,,,,,,,,,,,,,,,,,,,,,,,,,,,,,,,,,,,,,,,,,,,,,,
,,,,,,6102a52c8a4ed0d104d68a15,62bbf9391ce067b5633dbc50,2022-06-29_09h10.27.718,Colour_Asymmetry_Pilot,2022.1.3,Win32,64,62bbe60bf3d75ef465d3e404,0,134,134,100,1,threeone,,,,,,,,,,,,,,,,,,,,,,,,,,,,,,,,,,,,,,,,,,,,,,,,,,,,,,,,,,,,,,,,,,,,,,,,,,,,,,,,,,,,,,,,,,,,,,,,,,,,,,,,,,,,,,,,,,,,,,,,,,,,,,,,,,,,,,,,,,,,,,,,,,,,,,,,
,,,,,,6102a52c8a4ed0d104d68a15,62bbf9391ce067b5633dbc50,2022-06-29_09h10.27.718,Colour_Asymmetry_Pilot,2022.1.3,Win32,64,62bbe60bf3d75ef465d3e404,0,135,135,108,1,threeone,,,,,,,,,,,,,,,,,,,,,,,,,,,,,,,,,,,,,,,,,,,,,,,,,,,,,,,,,,,,,,,,,,,,,,,,,,,,,,,,,,,,,,,,,,,,,,,,,,,,,,,,,,,,,,,,,,,,,,,,,,,,,,,,,,,,,,,,,,,,,,,,,,,,,,,,
,,,,,,6102a52c8a4ed0d104d68a15,62bbf9391ce067b5633dbc50,2022-06-29_09h10.27.718,Colour_Asymmetry_Pilot,2022.1.3,Win32,64,62bbe60bf3d75ef465d3e404,0,136,136,80,1,onetwo,,,,,,,,,,,,,,,,,,,,,,,,,,,,,,,,,,,,,,,,,,,,,,,,,,,,,,,,,,,,,,,,,,,,,,,,,,,,,,,,,,,,,,,,,,,,,,,,,,,,,,,,,,,,,,,,,,,,,,,,,,,,,,,,,,,,,,,,,,,,,,,,,,,,,,,,
,,,,,,6102a52c8a4ed0d104d68a15,62bbf9391ce067b5633dbc50,2022-06-29_09h10.27.718,Colour_Asymmetry_Pilot,2022.1.3,Win32,64,62bbe60bf3d75ef465d3e404,0,137,137,124,1,threeone,,,,,,,,,,,,,,,,,,,,,,,,,,,,,,,,,,,,,,,,,,,,,,,,,,,,,,,,,,,,,,,,,,,,,,,,,,,,,,,,,,,,,,,,,,,,,,,,,,,,,,,,,,,,,,,,,,,,,,,,,,,,,,,,,,,,,,,,,,,,,,,,,,,,,,,,
,,,,,,6102a52c8a4ed0d104d68a15,62bbf9391ce067b5633dbc50,2022-06-29_09h10.27.718,Colour_Asymmetry_Pilot,2022.1.3,Win32,64,62bbe60bf3d75ef465d3e404,0,138,138,46,1,fourtwo,,,,,,,,,,,,,,,,,,,,,,,,,,,,,,,,,,,,,,,,,,,,,,,,,,,,,,,,,,,,,,,,,,,,,,,,,,,,,,,,,,,,,,,,,,,,,,,,,,,,,,,,,,,,,,,,,,,,,,,,,,,,,,,,,,,,,,,,,,,,,,,,,,,,,,,,
,,,,,,6102a52c8a4ed0d104d68a15,62bbf9391ce067b5633dbc50,2022-06-29_09h10.27.718,Colour_Asymmetry_Pilot,2022.1.3,Win32,64,62bbe60bf3d75ef465d3e404,0,139,139,49,1,onethree,,,,,,,,,,,,,,,,,,,,,,,,,,,,,,,,,,,,,,,,,,,,,,,,,,,,,,,,,,,,,,,,,,,,,,,,,,,,,,,,,,,,,,,,,,,,,,,,,,,,,,,,,,,,,,,,,,,,,,,,,,,,,,,,,,,,,,,,,,,,,,,,,,,,,,,,
,,,,,,6102a52c8a4ed0d104d68a15,62bbf9391ce067b5633dbc50,2022-06-29_09h10.27.718,Colour_Asymmetry_Pilot,2022.1.3,Win32,64,62bbe60bf3d75ef465d3e404,0,140,140,93,1,threefour,,,,,,,,,,,,,,,,,,,,,,,,,,,,,,,,,,,,,,,,,,,,,,,,,,,,,,,,,,,,,,,,,,,,,,,,,,,,,,,,,,,,,,,,,,,,,,,,,,,,,,,,,,,,,,,,,,,,,,,,,,,,,,,,,,,,,,,,,,,,,,,,,,,,,,,,
,,,,,,6102a52c8a4ed0d104d68a15,62bbf9391ce067b5633dbc50,2022-06-29_09h10.27.718,Colour_Asymmetry_Pilot,2022.1.3,Win32,64,62bbe60bf3d75ef465d3e404,0,141,141,6,1,fourtwo,,,,,,,,,,,,,,,,,,,,,,,,,,,,,,,,,,,,,,,,,,,,,,,,,,,,,,,,,,,,,,,,,,,,,,,,,,,,,,,,,,,,,,,,,,,,,,,,,,,,,,,,,,,,,,,,,,,,,,,,,,,,,,,,,,,,,,,,,,,,,,,,,,,,,,,,
,,,,,,6102a52c8a4ed0d104d68a15,62bbf9391ce067b5633dbc50,2022-06-29_09h10.27.718,Colour_Asymmetry_Pilot,2022.1.3,Win32,64,62bbe60bf3d75ef465d3e404,0,142,142,15,1,fourthree,,,,,,,,,,,,,,,,,,,,,,,,,,,,,,,,,,,,,,,,,,,,,,,,,,,,,,,,,,,,,,,,,,,,,,,,,,,,,,,,,,,,,,,,,,,,,,,,,,,,,,,,,,,,,,,,,,,,,,,,,,,,,,,,,,,,,,,,,,,,,,,,,,,,,,,,
,,,,,,6102a52c8a4ed0d104d68a15,62bbf9391ce067b5633dbc50,2022-06-29_09h10.27.718,Colour_Asymmetry_Pilot,2022.1.3,Win32,64,62bbe60bf3d75ef465d3e404,0,143,143,14,1,fourtwo,,,,,,,,,,,,,,,,,,,,,,,,,,,,,,,,,,,,,,,,,,,,,,,,,,,,,,,,,,,,,,,,,,,,,,,,,,,,,,,,,,,,,,,,,,,,,,,,,,,,,,,,,,,,,,,,,,,,,,,,,,,,,,,,,,,,,,,,,,,,,,,,,,,,,,,,
,,,,,,6102a52c8a4ed0d104d68a15,62bbf9391ce067b5633dbc50,2022-06-29_09h10.27.718,Colour_Asymmetry_Pilot,2022.1.3,Win32,64,62bbe60bf3d75ef465d3e404,0,144,144,68,1,threeone,,,,,,,,,,,,,,,,,,,,,,,,,,,,,,,,,,,,,,,,,,,,,,,,,,,,,,,,,,,,,,,,,,,,,,,,,,,,,,,,,,,,,,,,,,,,,,,,,,,,,,,,,,,,,,,,,,,,,,,,,,,,,,,,,,,,,,,,,,,,,,,,,,,,,,,,
,,,,,,6102a52c8a4ed0d104d68a15,62bbf9391ce067b5633dbc50,2022-06-29_09h10.27.718,Colour_Asymmetry_Pilot,2022.1.3,Win32,64,62bbe60bf3d75ef465d3e404,0,145,145,38,1,fourtwo,,,,,,,,,,,,,,,,,,,,,,,,,,,,,,,,,,,,,,,,,,,,,,,,,,,,,,,,,,,,,,,,,,,,,,,,,,,,,,,,,,,,,,,,,,,,,,,,,,,,,,,,,,,,,,,,,,,,,,,,,,,,,,,,,,,,,,,,,,,,,,,,,,,,,,,,
,,,,,,6102a52c8a4ed0d104d68a15,62bbf9391ce067b5633dbc50,2022-06-29_09h10.27.718,Colour_Asymmetry_Pilot,2022.1.3,Win32,64,62bbe60bf3d75ef465d3e404,0,146,146,117,1,threefour,,,,,,,,,,,,,,,,,,,,,,,,,,,,,,,,,,,,,,,,,,,,,,,,,,,,,,,,,,,,,,,,,,,,,,,,,,,,,,,,,,,,,,,,,,,,,,,,,,,,,,,,,,,,,,,,,,,,,,,,,,,,,,,,,,,,,,,,,,,,,,,,,,,,,,,,
,,,,,,6102a52c8a4ed0d104d68a15,62bbf9391ce067b5633dbc50,2022-06-29_09h10.27.718,Colour_Asymmetry_Pilot,2022.1.3,Win32,64,62bbe60bf3d75ef465d3e404,0,147,147,127,1,fourthree,,,,,,,,,,,,,,,,,,,,,,,,,,,,,,,,,,,,,,,,,,,,,,,,,,,,,,,,,,,,,,,,,,,,,,,,,,,,,,,,,,,,,,,,,,,,,,,,,,,,,,,,,,,,,,,,,,,,,,,,,,,,,,,,,,,,,,,,,,,,,,,,,,,,,,,,
,,,,,,6102a52c8a4ed0d104d68a15,62bbf9391ce067b5633dbc50,2022-06-29_09h10.27.718,Colour_Asymmetry_Pilot,2022.1.3,Win32,64,62bbe60bf3d75ef465d3e404,0,148,148,34,1,twoone,,,,,,,,,,,,,,,,,,,,,,,,,,,,,,,,,,,,,,,,,,,,,,,,,,,,,,,,,,,,,,,,,,,,,,,,,,,,,,,,,,,,,,,,,,,,,,,,,,,,,,,,,,,,,,,,,,,,,,,,,,,,,,,,,,,,,,,,,,,,,,,,,,,,,,,,
,,,,,,6102a52c8a4ed0d104d68a15,62bbf9391ce067b5633dbc50,2022-06-29_09h10.27.718,Colour_Asymmetry_Pilot,2022.1.3,Win32,64,62bbe60bf3d75ef465d3e404,0,149,149,157,1,threefour,,,,,,,,,,,,,,,,,,,,,,,,,,,,,,,,,,,,,,,,,,,,,,,,,,,,,,,,,,,,,,,,,,,,,,,,,,,,,,,,,,,,,,,,,,,,,,,,,,,,,,,,,,,,,,,,,,,,,,,,,,,,,,,,,,,,,,,,,,,,,,,,,,,,,,,,
,,,,,,6102a52c8a4ed0d104d68a15,62bbf9391ce067b5633dbc50,2022-06-29_09h10.27.718,Colour_Asymmetry_Pilot,2022.1.3,Win32,64,62bbe60bf3d75ef465d3e404,0,150,150,63,1,fourthree,,,,,,,,,,,,,,,,,,,,,,,,,,,,,,,,,,,,,,,,,,,,,,,,,,,,,,,,,,,,,,,,,,,,,,,,,,,,,,,,,,,,,,,,,,,,,,,,,,,,,,,,,,,,,,,,,,,,,,,,,,,,,,,,,,,,,,,,,,,,,,,,,,,,,,,,
,,,,,,6102a52c8a4ed0d104d68a15,62bbf9391ce067b5633dbc50,2022-06-29_09h10.27.718,Colour_Asymmetry_Pilot,2022.1.3,Win32,64,62bbe60bf3d75ef465d3e404,0,151,151,39,1,fourthree,,,,,,,,,,,,,,,,,,,,,,,,,,,,,,,,,,,,,,,,,,,,,,,,,,,,,,,,,,,,,,,,,,,,,,,,,,,,,,,,,,,,,,,,,,,,,,,,,,,,,,,,,,,,,,,,,,,,,,,,,,,,,,,,,,,,,,,,,,,,,,,,,,,,,,,,
,,,,,,6102a52c8a4ed0d104d68a15,62bbf9391ce067b5633dbc50,2022-06-29_09h10.27.718,Colour_Asymmetry_Pilot,2022.1.3,Win32,64,62bbe60bf3d75ef465d3e404,0,152,152,89,1,onethree,,,,,,,,,,,,,,,,,,,,,,,,,,,,,,,,,,,,,,,,,,,,,,,,,,,,,,,,,,,,,,,,,,,,,,,,,,,,,,,,,,,,,,,,,,,,,,,,,,,,,,,,,,,,,,,,,,,,,,,,,,,,,,,,,,,,,,,,,,,,,,,,,,,,,,,,
,,,,,,6102a52c8a4ed0d104d68a15,62bbf9391ce067b5633dbc50,2022-06-29_09h10.27.718,Colour_Asymmetry_Pilot,2022.1.3,Win32,64,62bbe60bf3d75ef465d3e404,0,153,153,134,1,fourtwo,,,,,,,,,,,,,,,,,,,,,,,,,,,,,,,,,,,,,,,,,,,,,,,,,,,,,,,,,,,,,,,,,,,,,,,,,,,,,,,,,,,,,,,,,,,,,,,,,,,,,,,,,,,,,,,,,,,,,,,,,,,,,,,,,,,,,,,,,,,,,,,,,,,,,,,,
,,,,,,6102a52c8a4ed0d104d68a15,62bbf9391ce067b5633dbc50,2022-06-29_09h10.27.718,Colour_Asymmetry_Pilot,2022.1.3,Win32,64,62bbe60bf3d75ef465d3e404,0,154,154,83,1,twofour,,,,,,,,,,,,,,,,,,,,,,,,,,,,,,,,,,,,,,,,,,,,,,,,,,,,,,,,,,,,,,,,,,,,,,,,,,,,,,,,,,,,,,,,,,,,,,,,,,,,,,,,,,,,,,,,,,,,,,,,,,,,,,,,,,,,,,,,,,,,,,,,,,,,,,,,
,,,,,,6102a52c8a4ed0d104d68a15,62bbf9391ce067b5633dbc50,2022-06-29_09h10.27.718,Colour_Asymmetry_Pilot,2022.1.3,Win32,64,62bbe60bf3d75ef465d3e404,0,155,155,150,1,fourtwo,,,,,,,,,,,,,,,,,,,,,,,,,,,,,,,,,,,,,,,,,,,,,,,,,,,,,,,,,,,,,,,,,,,,,,,,,,,,,,,,,,,,,,,,,,,,,,,,,,,,,,,,,,,,,,,,,,,,,,,,,,,,,,,,,,,,,,,,,,,,,,,,,,,,,,,,
,,,,,,6102a52c8a4ed0d104d68a15,62bbf9391ce067b5633dbc50,2022-06-29_09h10.27.718,Colour_Asymmetry_Pilot,2022.1.3,Win32,64,62bbe60bf3d75ef465d3e404,0,156,156,2,1,twoone,,,,,,,,,,,,,,,,,,,,,,,,,,,,,,,,,,,,,,,,,,,,,,,,,,,,,,,,,,,,,,,,,,,,,,,,,,,,,,,,,,,,,,,,,,,,,,,,,,,,,,,,,,,,,,,,,,,,,,,,,,,,,,,,,,,,,,,,,,,,,,,,,,,,,,,,
,,,,,,6102a52c8a4ed0d104d68a15,62bbf9391ce067b5633dbc50,2022-06-29_09h10.27.718,Colour_Asymmetry_Pilot,2022.1.3,Win32,64,62bbe60bf3d75ef465d3e404,0,157,157,131,1,twofour,,,,,,,,,,,,,,,,,,,,,,,,,,,,,,,,,,,,,,,,,,,,,,,,,,,,,,,,,,,,,,,,,,,,,,,,,,,,,,,,,,,,,,,,,,,,,,,,,,,,,,,,,,,,,,,,,,,,,,,,,,,,,,,,,,,,,,,,,,,,,,,,,,,,,,,,
,,,,,,6102a52c8a4ed0d104d68a15,62bbf9391ce067b5633dbc50,2022-06-29_09h10.27.718,Colour_Asymmetry_Pilot,2022.1.3,Win32,64,62bbe60bf3d75ef465d3e404,0,158,158,23,1,fourthree,,,,,,,,,,,,,,,,,,,,,,,,,,,,,,,,,,,,,,,,,,,,,,,,,,,,,,,,,,,,,,,,,,,,,,,,,,,,,,,,,,,,,,,,,,,,,,,,,,,,,,,,,,,,,,,,,,,,,,,,,,,,,,,,,,,,,,,,,,,,,,,,,,,,,,,,
,,,,,,6102a52c8a4ed0d104d68a15,62bbf9391ce067b5633dbc50,2022-06-29_09h10.27.718,Colour_Asymmetry_Pilot,2022.1.3,Win32,64,62bbe60bf3d75ef465d3e404,0,159,159,55,1,fourthree,,,,,,,,,,,,,,,,,,,,,,,,,,,,,,,,,,,,,,,,,,,,,,,,,,,,,,,,,,,,,,,,,,,,,,,,,,,,,,,,,,,,,,,,,,,,,,,,,,,,,,,,,,,,,,,,,,,,,,,,,,,,,,,,,,,,,,,,,,,,,,,,,,,,,,,,
,,,,,,6102a52c8a4ed0d104d68a15,62bbf9391ce067b5633dbc50,2022-06-29_09h10.27.718,Colour_Asymmetry_Pilot,2022.1.3,Win32,64,62bbe60bf3d75ef465d3e404,0,160,160,66,1,twoone,,,,,,,,,,,,,,,,,,,,,,,,,,,,,,,,,,,,,,,,,,,,,,,,,,,,,,,,,,,,,,,,,,,,,,,,,,,,,,,,,,,,,,,,,,,,,,,,,,,,,,,,,,,,,,,,,,,,,,,,,,,,,,,,,,,,,,,,,,,,,,,,,,,,,,,,
,,,,,,6102a52c8a4ed0d104d68a15,62bbf9391ce067b5633dbc50,2022-06-29_09h10.27.718,Colour_Asymmetry_Pilot,2022.1.3,Win32,64,62bbe60bf3d75ef465d3e404,0,161,161,116,1,threeone,,,,,,,,,,,,,,,,,,,,,,,,,,,,,,,,,,,,,,,,,,,,,,,,,,,,,,,,,,,,,,,,,,,,,,,,,,,,,,,,,,,,,,,,,,,,,,,,,,,,,,,,,,,,,,,,,,,,,,,,,,,,,,,,,,,,,,,,,,,,,,,,,,,,,,,,
,,,,,,6102a52c8a4ed0d104d68a15,62bbf9391ce067b5633dbc50,2022-06-29_09h10.27.718,Colour_Asymmetry_Pilot,2022.1.3,Win32,64,62bbe60bf3d75ef465d3e404,,,,,,,space,9.2892,space,51.7987,space,36.2038,space,20.9777,space,2.775,space,12.2669,"[0.37240000000000006,-0.050999999999999934,-0.5216]",threefour,"[0.6547999999999998,-0.043199999999999905,-0.011800000000000033]",-4,29.0798,-42,93,1,0,0,response7disk_5,-8,10,1,0,0,rectangle_8,-8,10,1,0,0,3,-8,10,1,0,0,0,0,0,0,1,,,,,,,,,,,,,,,,,,,,,,,,,,,,,,,,,,,,,,,,,,,,,,,,,,,,,,,,,,,,,,,,,,,,,,,,,,,,,,,,,,,,,,,,,,,,,,,,,,,,,,,,,,,
,,,,,,6102a52c8a4ed0d104d68a15,62bbf9391ce067b5633dbc50,2022-06-29_09h10.27.718,Colour_Asymmetry_Pilot,2022.1.3,Win32,64,62bbe60bf3d75ef465d3e404,,,,,,,,,,,,,,,,,,,"[0.37240000000000006,-0.050999999999999934,-0.5216]",onethree,"[0.9686000000000001,0.3802000000000001,0.19999999999999996]",-4,4.226,-46,94,1,0,0,response7disk_5,6,2,1,0,0,rectangle_8,91,34,1,0,0,3,10,-4,1,0,0,1,0,1,0,1,response1disk_7,6,rectangle_4,,,,,,,,,,,,,,,,,,,,,,,,,,,,,,,,,,,,,,,,,,,,,,,,,,,,,,,,,,,,,,,,,,,,,,,,,,,,,,,,,,,,,,,,,,,,,,,,,,,,,,,,
,,,,,,6102a52c8a4ed0d104d68a15,62bbf9391ce067b5633dbc50,2022-06-29_09h10.27.718,Colour_Asymmetry_Pilot,2022.1.3,Win32,64,62bbe60bf3d75ef465d3e404,,,,,,,,,,,,,,,,,,,"[-0.9296,-0.12959999999999994,-0.043199999999999905]",threefour,"[-0.30200000000000005,0.14500000000000002,0.2784]",4,2.3601,41,83,1,0,0,response1disk_5,1,4,1,0,0,rectangle_8,92,38,1,0,0,3,-18,-6,1,0,0,2,0,2,0,1,response1disk_7,6,rectangle_4,,,,,,,,,,,,,,,,,,,,,,,,,,,,,,,,,,,,,,,,,,,,,,,,,,,,,,,,,,,,,,,,,,,,,,,,,,,,,,,,,,,,,,,,,,,,,,,,,,,,,,,,
,,,,,,6102a52c8a4ed0d104d68a15,62bbf9391ce067b5633dbc50,2022-06-29_09h10.27.718,Colour_Asymmetry_Pilot,2022.1.3,Win32,64,62bbe60bf3d75ef465d3e404,,,,,,,,,,,,,,,,,,,"[0.18419999999999992,-0.4276,-0.404]",threefour,"[-0.7412000000000001,-0.08239999999999992,-0.6864]",-4,3.1767,-46,89,1,0,0,response7disk_5,-3,10,1,0,0,rectangle_8,-3,10,1,0,0,3,-3,10,1,0,0,3,0,3,0,1,,,,,,,,,,,,,,,,,,,,,,,,,,,,,,,,,,,,,,,,,,,,,,,,,,,,,,,,,,,,,,,,,,,,,,,,,,,,,,,,,,,,,,,,,,,,,,,,,,,,,,,,,,,
,,,,,,6102a52c8a4ed0d104d68a15,62bbf9391ce067b5633dbc50,2022-06-29_09h10.27.718,Colour_Asymmetry_Pilot,2022.1.3,Win32,64,62bbe60bf3d75ef465d3e404,,,,,,,,,,,,,,,,,,,"[-0.9844,-0.9688,-0.9922]",fourthree,"[0.05879999999999996,0.2784,0.5841999999999998]",-4,3.2544,-40,87,1,0,0,response7disk_5,6,-1,1,0,0,rectangle_8,6,-1,1,0,0,3,6,-1,1,0,0,4,0,4,0,1,,,,,,,,,,,,,,,,,,,,,,,,,,,,,,,,,,,,,,,,,,,,,,,,,,,,,,,,,,,,,,,,,,,,,,,,,,,,,,,,,,,,,,,,,,,,,,,,,,,,,,,,,,,
,,,,,,6102a52c8a4ed0d104d68a15,62bbf9391ce067b5633dbc50,2022-06-29_09h10.27.718,Colour_Asymmetry_Pilot,2022.1.3,Win32,64,62bbe60bf3d75ef465d3e404,,,,,,,,,,,,,,,,,,,"[-0.30200000000000005,0.14500000000000002,0.2784]",threeone,"[0.23120000000000007,-0.7726,-0.34120000000000006]",-4,2.2697,-41,87,1,0,0,response7disk_5,-1,0,1,0,0,rectangle_8,-1,0,1,0,0,3,-1,0,1,0,0,5,0,5,0,1,,,,,,,,,,,,,,,,,,,,,,,,,,,,,,,,,,,,,,,,,,,,,,,,,,,,,,,,,,,,,,,,,,,,,,,,,,,,,,,,,,,,,,,,,,,,,,,,,,,,,,,,,,,
,,,,,,6102a52c8a4ed0d104d68a15,62bbf9391ce067b5633dbc50,2022-06-29_09h10.27.718,Colour_Asymmetry_Pilot,2022.1.3,Win32,64,62bbe60bf3d75ef465d3e404,,,,,,,,,,,,,,,,,,,"[-0.6942,-0.7648,-0.12959999999999994]",onethree,"[-0.10599999999999998,-0.15300000000000002,0.15280000000000005]",4,1.6663,39,105,1,0,0,response1disk_5,-10,1,1,0,0,rectangle_8,-10,1,1,0,0,3,-10,1,1,0,0,6,0,6,0,1,,,,,,,,,,,,,,,,,,,,,,,,,,,,,,,,,,,,,,,,,,,,,,,,,,,,,,,,,,,,,,,,,,,,,,,,,,,,,,,,,,,,,,,,,,,,,,,,,,,,,,,,,,,
,,,,,,6102a52c8a4ed0d104d68a15,62bbf9391ce067b5633dbc50,2022-06-29_09h10.27.718,Colour_Asymmetry_Pilot,2022.1.3,Win32,64,62bbe60bf3d75ef465d3e404,,,,,,,,,,,,,,,,,,,,twofour,,4,3.4221,,,,,,,,,,,,,,,,,,,,,,,,,,,,,,,,space,3.43,"[0.04299999999999993,0.16060000000000008,-0.6628000000000001]","[0.9763999999999999,0.30979999999999985,-0.6786]",48,101,1,0,0,response1disk,1,2,1,0,0,rectangle,1,2,1,0,0,,3,0.0015,0,1,2,1,0,0,0,0,0,80,1,80,first,,,,,,,,,,,,,,,,,,,,,,,,,,,,,,,,,,,,,,,,,,,,,,,,,,,,,,,,,,,,,,,,,,,
,,,,,,6102a52c8a4ed0d104d68a15,62bbf9391ce067b5633dbc50,2022-06-29_09h10.27.718,Colour_Asymmetry_Pilot,2022.1.3,Win32,64,62bbe60bf3d75ef465d3e404,,,,,,,,,,,,,,,,,,,,fourthree,,4,1.5541,,,,,,,,,,,,,,,,,,,,,,,,,,,,,,,,,,"[-0.10599999999999998,-0.10599999999999998,0.5841999999999998]","[-0.30200000000000005,0.14500000000000002,0.2784]",40,82,1,0,0,response1disk,6,1,1,0,0,rectangle,6,1,1,0,0,,1,0.0011,0,6,1,1,0,0,0,1,1,4,1,4,first,,,,,,,,,,,,,,,,,,,,,,,,,,,,,,,,,,,,,,,,,,,,,,,,,,,,,,,,,,,,,,,,,,,
,,,,,,6102a52c8a4ed0d104d68a15,62bbf9391ce067b5633dbc50,2022-06-29_09h10.27.718,Colour_Asymmetry_Pilot,2022.1.3,Win32,64,62bbe60bf3d75ef465d3e404,,,,,,,,,,,,,,,,,,,,onethree,,-4,1.0865,,,,,,,,,,,,,,,,,,,,,,,,,,,,,,,,,,"[-0.7412000000000001,-0.08239999999999992,-0.6864]","[0.9763999999999999,-0.1137999999999999,-0.6314]",-45,107,1,0,0,response7disk,5,2,1,0,0,rectangle,5,2,1,0,0,,1,0.0002,0,5,2,1,0,0,0,2,2,130,1,49,second,,,,,,,,,,,,,,,,,,,,,,,,,,,,,,,,,,,,,,,,,,,,,,,,,,,,,,,,,,,,,,,,,,,
,,,,,,6102a52c8a4ed0d104d68a15,62bbf9391ce067b5633dbc50,2022-06-29_09h10.27.718,Colour_Asymmetry_Pilot,2022.1.3,Win32,64,62bbe60bf3d75ef465d3e404,,,,,,,,,,,,,,,,,,,,fourthree,,-4,1.1985,,,,,,,,,,,,,,,,,,,,,,,,,,,,,,,,,,"[0.7802,-0.23140000000000005,-0.20799999999999996]","[-0.24719999999999998,-0.0354000000000001,0.3175999999999999]",-45,103,1,0,0,response7disk,20,-5,1,0,0,rectangle,20,-5,1,0,0,,2,0.006,0,20,-5,1,0,0,0,3,3,61,1,61,first,,,,,,,,,,,,,,,,,,,,,,,,,,,,,,,,,,,,,,,,,,,,,,,,,,,,,,,,,,,,,,,,,,,
,,,,,,6102a52c8a4ed0d104d68a15,62bbf9391ce067b5633dbc50,2022-06-29_09h10.27.718,Colour_Asymmetry_Pilot,2022.1.3,Win32,64,62bbe60bf3d75ef465d3e404,,,,,,,,,,,,,,,,,,,,onetwo,,4,2.9468,,,,,,,,,,,,,,,,,,,,,,,,,,,,,,,,,,"[0.2862,0.7802,0.3568]","[0.19199999999999995,0.18419999999999992,0.5136000000000001]",41,93,1,0,0,response1disk,4,0,1,0,0,rectangle,4,0,1,0,0,,3,0.0007,0,4,0,1,0,0,0,4,4,53,1,53,first,,,,,,,,,,,,,,,,,,,,,,,,,,,,,,,,,,,,,,,,,,,,,,,,,,,,,,,,,,,,,,,,,,,
,,,,,,6102a52c8a4ed0d104d68a15,62bbf9391ce067b5633dbc50,2022-06-29_09h10.27.718,Colour_Asymmetry_Pilot,2022.1.3,Win32,64,62bbe60bf3d75ef465d3e404,,,,,,,,,,,,,,,,,,,,threefour,,-4,0.684,,,,,,,,,,,,,,,,,,,,,,,,,,,,,,,,,,"[-0.9216,-0.5529999999999999,-0.3962]","[0.5528,0.7409999999999999,-0.71]",-47,86,1,0,0,response7disk,2,6,1,0,0,rectangle,2,6,1,0,0,,3,0.0002,0,2,6,1,0,0,0,5,5,101,1,20,second,,,,,,,,,,,,,,,,,,,,,,,,,,,,,,,,,,,,,,,,,,,,,,,,,,,,,,,,,,,,,,,,,,,
,,,,,,6102a52c8a4ed0d104d68a15,62bbf9391ce067b5633dbc50,2022-06-29_09h10.27.718,Colour_Asymmetry_Pilot,2022.1.3,Win32,64,62bbe60bf3d75ef465d3e404,,,,,,,,,,,,,,,,,,,,twoone,,-4,1.1833,,,,,,,,,,,,,,,,,,,,,,,,,,,,,,,,,,"[0.9213999999999998,0.6391999999999998,-0.9922]","[0.8274000000000001,-0.5844,-0.9452]",-44,86,1,0,0,response7disk,0,-3,1,0,0,rectangle,0,-3,1,0,0,,1,0.0008,0,0,-3,1,0,0,0,6,6,96,1,15,second,,,,,,,,,,,,,,,,,,,,,,,,,,,,,,,,,,,,,,,,,,,,,,,,,,,,,,,,,,,,,,,,,,,
,,,,,,6102a52c8a4ed0d104d68a15,62bbf9391ce067b5633dbc50,2022-06-29_09h10.27.718,Colour_Asymmetry_Pilot,2022.1.3,Win32,64,62bbe60bf3d75ef465d3e404,,,,,,,,,,,,,,,,,,,,threefour,,-4,0.6929,,,,,,,,,,,,,,,,,,,,,,,,,,,,,,,,,,"[0.23920000000000008,0.2704,0.16060000000000008]","[-0.9766,-0.6472,0.07440000000000002]",-28,82,1,0,0,response7disk,10,1,1,0,0,rectangle,10,1,1,0,0,,2,0.0009,0,10,1,1,0,0,0,7,7,42,1,42,first,,,,,,,,,,,,,,,,,,,,,,,,,,,,,,,,,,,,,,,,,,,,,,,,,,,,,,,,,,,,,,,,,,,
,,,,,,6102a52c8a4ed0d104d68a15,62bbf9391ce067b5633dbc50,2022-06-29_09h10.27.718,Colour_Asymmetry_Pilot,2022.1.3,Win32,64,62bbe60bf3d75ef465d3e404,,,,,,,,,,,,,,,,,,,,threefour,,-4,0.6289,,,,,,,,,,,,,,,,,,,,,,,,,,,,,,,,,,"[0.30180000000000007,-0.7884,-0.9844]","[-0.9296,-0.12959999999999994,-0.043199999999999905]",-45,96,1,0,0,response7disk,2,11,1,0,0,rectangle,2,11,1,0,0,,1,0.0023,0,2,11,1,0,0,0,8,8,12,1,12,first,,,,,,,,,,,,,,,,,,,,,,,,,,,,,,,,,,,,,,,,,,,,,,,,,,,,,,,,,,,,,,,,,,,
,,,,,,6102a52c8a4ed0d104d68a15,62bbf9391ce067b5633dbc50,2022-06-29_09h10.27.718,Colour_Asymmetry_Pilot,2022.1.3,Win32,64,62bbe60bf3d75ef465d3e404,,,,,,,,,,,,,,,,,,,,threeone,,-4,0.9081,,,,,,,,,,,,,,,,,,,,,,,,,,,,,,,,,,"[-0.17659999999999998,-0.2864,-0.8354]","[0.9686000000000001,0.3802000000000001,0.19999999999999996]",-46,84,1,0,0,response7disk,6,-1,1,0,0,rectangle,6,-1,1,0,0,,1,0.0002,0,6,-1,1,0,0,0,9,9,94,1,13,second,,,,,,,,,,,,,,,,,,,,,,,,,,,,,,,,,,,,,,,,,,,,,,,,,,,,,,,,,,,,,,,,,,,
,,,,,,6102a52c8a4ed0d104d68a15,62bbf9391ce067b5633dbc50,2022-06-29_09h10.27.718,Colour_Asymmetry_Pilot,2022.1.3,Win32,64,62bbe60bf3d75ef465d3e404,,,,,,,,,,,,,,,,,,,,fourtwo,,-4,1.8691,,,,,,,,,,,,,,,,,,,,,,,,,,,,,,,,,,"[0.23920000000000008,0.2704,0.16060000000000008]","[0.8274000000000001,-0.5844,-0.9452]",-40,90,1,0,0,response7disk,10,3,1,0,0,rectangle,10,3,1,0,0,,3,0.0011,0,10,3,1,0,0,0,10,10,120,1,39,second,,,,,,,,,,,,,,,,,,,,,,,,,,,,,,,,,,,,,,,,,,,,,,,,,,,,,,,,,,,,,,,,,,,
,,,,,,6102a52c8a4ed0d104d68a15,62bbf9391ce067b5633dbc50,2022-06-29_09h10.27.718,Colour_Asymmetry_Pilot,2022.1.3,Win32,64,62bbe60bf3d75ef465d3e404,,,,,,,,,,,,,,,,,,,,onethree,,-4,0.7256,,,,,,,,,,,,,,,,,,,,,,,,,,,,,,,,,,"[0.9213999999999998,0.6391999999999998,-0.9922]","[0.23120000000000007,-0.7726,-0.34120000000000006]",-53,83,1,0,0,response7disk,-4,-12,1,0,0,rectangle,-4,-12,1,0,0,,3,0.0002,0,-4,-12,1,0,0,0,11,11,126,1,45,second,,,,,,,,,,,,,,,,,,,,,,,,,,,,,,,,,,,,,,,,,,,,,,,,,,,,,,,,,,,,,,,,,,,
,,,,,,6102a52c8a4ed0d104d68a15,62bbf9391ce067b5633dbc50,2022-06-29_09h10.27.718,Colour_Asymmetry_Pilot,2022.1.3,Win32,64,62bbe60bf3d75ef465d3e404,,,,,,,,,,,,,,,,,,,,twoone,,-4,0.7415,,,,,,,,,,,,,,,,,,,,,,,,,,,,,,,,,,"[0.9763999999999999,-0.1137999999999999,-0.6314]","[-0.7412000000000001,-0.08239999999999992,-0.6864]",-40,81,1,0,0,response7disk,3,4,1,0,0,rectangle,3,4,1,0,0,,2,0.0011,0,3,4,1,0,0,0,12,12,49,1,49,first,,,,,,,,,,,,,,,,,,,,,,,,,,,,,,,,,,,,,,,,,,,,,,,,,,,,,,,,,,,,,,,,,,,
,,,,,,6102a52c8a4ed0d104d68a15,62bbf9391ce067b5633dbc50,2022-06-29_09h10.27.718,Colour_Asymmetry_Pilot,2022.1.3,Win32,64,62bbe60bf3d75ef465d3e404,,,,,,,,,,,,,,,,,,,,fourthree,,-4,0.6797,,,,,,,,,,,,,,,,,,,,,,,,,,,,,,,,,,"[0.6547999999999998,-0.043199999999999905,-0.011800000000000033]","[0.09799999999999986,-0.24719999999999998,0.15280000000000005]",-48,108,1,0,0,response7disk,-5,11,1,0,0,rectangle,-5,11,1,0,0,,2,0.0004,0,-5,11,1,0,0,0,13,13,32,1,32,first,,,,,,,,,,,,,,,,,,,,,,,,,,,,,,,,,,,,,,,,,,,,,,,,,,,,,,,,,,,,,,,,,,,
,,,,,,6102a52c8a4ed0d104d68a15,62bbf9391ce067b5633dbc50,2022-06-29_09h10.27.718,Colour_Asymmetry_Pilot,2022.1.3,Win32,64,62bbe60bf3d75ef465d3e404,,,,,,,,,,,,,,,,,,,,twofour,,-4,0.7523,,,,,,,,,,,,,,,,,,,,,,,,,,,,,,,,,,"[-0.4982,-0.2942,-0.0354000000000001]","[0.34099999999999997,0.5841999999999998,-0.9844]",-32,82,1,0,0,response7disk,7,-6,1,0,0,rectangle,7,-6,1,0,0,,1,0.0017,0,7,-6,1,0,0,0,14,14,155,1,74,second,,,,,,,,,,,,,,,,,,,,,,,,,,,,,,,,,,,,,,,,,,,,,,,,,,,,,,,,,,,,,,,,,,,
,,,,,,6102a52c8a4ed0d104d68a15,62bbf9391ce067b5633dbc50,2022-06-29_09h10.27.718,Colour_Asymmetry_Pilot,2022.1.3,Win32,64,62bbe60bf3d75ef465d3e404,,,,,,,,,,,,,,,,,,,,onetwo,,-4,0.5598,,,,,,,,,,,,,,,,,,,,,,,,,,,,,,,,,,"[0.12939999999999996,-0.2864,0.3253999999999999]","[0.34099999999999997,0.5841999999999998,-0.9844]",-76,90,1,0,0,response7disk,7,-1,1,0,0,rectangle,7,-1,1,0,0,,1,0.0002,0,7,-1,1,0,0,0,15,15,129,1,48,second,,,,,,,,,,,,,,,,,,,,,,,,,,,,,,,,,,,,,,,,,,,,,,,,,,,,,,,,,,,,,,,,,,,
,,,,,,6102a52c8a4ed0d104d68a15,62bbf9391ce067b5633dbc50,2022-06-29_09h10.27.718,Colour_Asymmetry_Pilot,2022.1.3,Win32,64,62bbe60bf3d75ef465d3e404,,,,,,,,,,,,,,,,,,,,onetwo,,4,0.7084,,,,,,,,,,,,,,,,,,,,,,,,,,,,,,,,,,"[0.04299999999999993,0.16060000000000008,-0.6628000000000001]","[0.37240000000000006,0.4980000000000002,-0.2864]",45,78,1,0,0,response1disk,-2,1,1,0,0,rectangle,-2,1,1,0,0,,2,0.0006,0,-2,1,1,0,0,0,16,16,29,1,29,first,,,,,,,,,,,,,,,,,,,,,,,,,,,,,,,,,,,,,,,,,,,,,,,,,,,,,,,,,,,,,,,,,,,
,,,,,,6102a52c8a4ed0d104d68a15,62bbf9391ce067b5633dbc50,2022-06-29_09h10.27.718,Colour_Asymmetry_Pilot,2022.1.3,Win32,64,62bbe60bf3d75ef465d3e404,,,,,,,,,,,,,,,,,,,,onethree,,-4,0.7362,,,,,,,,,,,,,,,,,,,,,,,,,,,,,,,,,,"[-0.9688,-0.7412000000000001,-0.4902000000000001]","[0.9372,0.20779999999999998,0.2704]",-41,78,1,0,0,response7disk,0,7,1,0,0,rectangle,0,7,1,0,0,,3,0.0009,0,0,7,1,0,0,0,17,17,124,1,43,second,,,,,,,,,,,,,,,,,,,,,,,,,,,,,,,,,,,,,,,,,,,,,,,,,,,,,,,,,,,,,,,,,,,
,,,,,,6102a52c8a4ed0d104d68a15,62bbf9391ce067b5633dbc50,2022-06-29_09h10.27.718,Colour_Asymmetry_Pilot,2022.1.3,Win32,64,62bbe60bf3d75ef465d3e404,,,,,,,,,,,,,,,,,,,,threeone,,-4,1.1854,,,,,,,,,,,,,,,,,,,,,,,,,,,,,,,,,,"[0.7018,0.7176,0.6155999999999999]","[0.23120000000000007,-0.7726,-0.34120000000000006]",-37,94,1,0,0,response7disk,0,4,1,0,0,rectangle,0,4,1,0,0,,2,0.0007,0,0,4,1,0,0,0,18,18,98,1,17,second,,,,,,,,,,,,,,,,,,,,,,,,,,,,,,,,,,,,,,,,,,,,,,,,,,,,,,,,,,,,,,,,,,,
,,,,,,6102a52c8a4ed0d104d68a15,62bbf9391ce067b5633dbc50,2022-06-29_09h10.27.718,Colour_Asymmetry_Pilot,2022.1.3,Win32,64,62bbe60bf3d75ef465d3e404,,,,,,,,,,,,,,,,,,,,twoone,,-4,0.5543,,,,,,,,,,,,,,,,,,,,,,,,,,,,,,,,,,"[-0.24719999999999998,0.5213999999999999,-0.12959999999999994]","[0.9372,0.9450000000000001,0.8980000000000001]",-42,109,1,0,0,response7disk,15,8,1,0,0,rectangle,15,8,1,0,0,,2,0.0002,0,15,8,1,0,0,0,19,19,73,1,73,first,,,,,,,,,,,,,,,,,,,,,,,,,,,,,,,,,,,,,,,,,,,,,,,,,,,,,,,,,,,,,,,,,,,
,,,,,,6102a52c8a4ed0d104d68a15,62bbf9391ce067b5633dbc50,2022-06-29_09h10.27.718,Colour_Asymmetry_Pilot,2022.1.3,Win32,64,62bbe60bf3d75ef465d3e404,,,,,,,,,,,,,,,,,,,,fourthree,,-4,0.8474,,,,,,,,,,,,,,,,,,,,,,,,,,,,,,,,,,"[0.09799999999999986,-0.24719999999999998,0.15280000000000005]","[-0.17659999999999998,0.3253999999999999,0.19999999999999996]",-42,100,1,0,0,response7disk,-4,3,1,0,0,rectangle,100,34,1,0,0,3,3,7.2026,1,0,4,1,0,0,0,20,20,97,1,16,second,response1disk_3,rectangle,,,,,,,,,,,,,,,,,,,,,,,,,,,,,,,,,,,,,,,,,,,,,,,,,,,,,,,,,,,,,,,,,
,,,,,,6102a52c8a4ed0d104d68a15,62bbf9391ce067b5633dbc50,2022-06-29_09h10.27.718,Colour_Asymmetry_Pilot,2022.1.3,Win32,64,62bbe60bf3d75ef465d3e404,,,,,,,,,,,,,,,,,,,,threefour,,-4,4.5395,,,,,,,,,,,,,,,,,,,,,,,,,,,,,,,,,,"[-0.4746,-0.0354000000000001,0.5449999999999999]","[0.9686000000000001,0.5763999999999998,0.11359999999999992]",-46,96,1,0,0,response7disk,13,-2,1,0,0,rectangle,81,48,1,0,0,3,2,3.5612,1,-7,-5,1,0,0,0,21,21,104,1,23,second,response1disk_3,rectangle,,,,,,,,,,,,,,,,,,,,,,,,,,,,,,,,,,,,,,,,,,,,,,,,,,,,,,,,,,,,,,,,,
,,,,,,6102a52c8a4ed0d104d68a15,62bbf9391ce067b5633dbc50,2022-06-29_09h10.27.718,Colour_Asymmetry_Pilot,2022.1.3,Win32,64,62bbe60bf3d75ef465d3e404,,,,,,,,,,,,,,,,,,,,onetwo,,-4,0.8917,,,,,,,,,,,,,,,,,,,,,,,,,,,,,,,,,,"[-0.6,0.16860000000000008,0.44300000000000006]","[-0.5688,-0.08239999999999992,-0.1844]",-48,78,1,0,0,response7disk,-1,-1,1,0,0,rectangle,-1,-1,1,0,0,3,3,0.0018,0,-1,-1,1,0,0,0,22,22,3,1,3,first,,,,,,,,,,,,,,,,,,,,,,,,,,,,,,,,,,,,,,,,,,,,,,,,,,,,,,,,,,,,,,,,,,,
,,,,,,6102a52c8a4ed0d104d68a15,62bbf9391ce067b5633dbc50,2022-06-29_09h10.27.718,Colour_Asymmetry_Pilot,2022.1.3,Win32,64,62bbe60bf3d75ef465d3e404,,,,,,,,,,,,,,,,,,,,threefour,,-4,0.6629,,,,,,,,,,,,,,,,,,,,,,,,,,,,,,,,,,"[0.37240000000000006,0.4980000000000002,-0.2864]","[0.8115999999999999,-0.0040000000000000036,-0.09819999999999995]",-32,77,1,0,0,response7disk,12,0,1,0,0,rectangle,12,0,1,0,0,3,3,0,0,12,0,1,0,0,0,23,23,111,1,30,second,,,,,,,,,,,,,,,,,,,,,,,,,,,,,,,,,,,,,,,,,,,,,,,,,,,,,,,,,,,,,,,,,,,
,,,,,,6102a52c8a4ed0d104d68a15,62bbf9391ce067b5633dbc50,2022-06-29_09h10.27.718,Colour_Asymmetry_Pilot,2022.1.3,Win32,64,62bbe60bf3d75ef465d3e404,,,,,,,,,,,,,,,,,,,,twoone,,-4,0.6599,,,,,,,,,,,,,,,,,,,,,,,,,,,,,,,,,,"[0.5449999999999999,-0.31000000000000005,-0.0354000000000001]","[-0.0040000000000000036,0.02739999999999987,-0.08239999999999992]",-38,83,1,0,0,response7disk,-2,3,1,0,0,rectangle,-2,3,1,0,0,3,1,0.0006,0,-2,3,1,0,0,0,24,24,137,1,56,second,,,,,,,,,,,,,,,,,,,,,,,,,,,,,,,,,,,,,,,,,,,,,,,,,,,,,,,,,,,,,,,,,,,
