trials.thisRepN,trials.thisTrialN,trials.thisN,trials.thisIndex,trials.ran,Colourcodes,participant,session,date,expName,psychopyVersion,OS,frameRate,study_id,trials_4.thisRepN,trials_4.thisTrialN,trials_4.thisN,trials_4.thisIndex,trials_4.ran,StimulusPos,key_resp.keys,key_resp.rt,key_resp_2.keys,key_resp_2.rt,key_resp_15.keys,key_resp_15.rt,key_resp_17.keys,key_resp_17.rt,key_resp_9.keys,key_resp_9.rt,key_resp_10.keys,key_resp_10.rt,Circle1_col,Ecc,Circle2_col,similarity,response_time,mouse_5.x,mouse_5.y,mouse_5.leftButton,mouse_5.midButton,mouse_5.rightButton,mouse_5.clicked_name,mouse_10.x,mouse_10.y,mouse_10.leftButton,mouse_10.midButton,mouse_10.rightButton,mouse_10.clicked_name,mouse_7.x,mouse_7.y,mouse_7.leftButton,mouse_7.midButton,mouse_7.rightButton,mouse_7.clicked_name,catchprac,catchnumberprac,mouse_6.x,mouse_6.y,mouse_6.leftButton,mouse_6.midButton,mouse_6.rightButton,mouse_6.clicked_name,duringprac.thisRepN,duringprac.thisTrialN,duringprac.thisN,duringprac.thisIndex,duringprac.ran,key_resp_22.keys,key_resp_22.rt,Circle1_colour,Circle2_colour,mouse.x,mouse.y,mouse.leftButton,mouse.midButton,mouse.rightButton,mouse.clicked_name,mouse_2.x,mouse_2.y,mouse_2.leftButton,mouse_2.midButton,mouse_2.rightButton,mouse_2.clicked_name,mouse_3.x,mouse_3.y,mouse_3.leftButton,mouse_3.midButton,mouse_3.rightButton,catchresponse,catchnumber,response_time_catch,Catch,mouse_11.x,mouse_11.y,mouse_11.leftButton,mouse_11.midButton,mouse_11.rightButton,trials_2.thisRepN,trials_2.thisTrialN,trials_2.thisN,trials_2.thisIndex,trials_2.ran,Colourpair,Temporder,mouse_3.clicked_name,mouse_11.clicked_name,trials_3.thisRepN,trials_3.thisTrialN,trials_3.thisN,trials_3.thisIndex,trials_3.ran,key_resp_instr_Ishi.keys,key_resp_instr_Ishi.rt,Ishi_trial_keyresp.keys,Ishi_trial_keyresp.rt,Ishi_textbox.text,Ishi_loop.thisRepN,Ishi_loop.thisTrialN,Ishi_loop.thisN,Ishi_loop.thisIndex,Ishi_loop.ran,imageaddress,textbox.text,mouse_4.x,mouse_4.y,mouse_4.leftButton,mouse_4.midButton,mouse_4.rightButton,mouse_4.clicked_name,textbox_2.text,mouse_8.x,mouse_8.y,mouse_8.leftButton,mouse_8.midButton,mouse_8.rightButton,mouse_8.clicked_name,textbox_3.text,mouse_9.x,mouse_9.y,mouse_9.leftButton,mouse_9.midButton,mouse_9.rightButton,mouse_9.clicked_name,textbox_4.text,mouse_12.x,mouse_12.y,mouse_12.leftButton,mouse_12.midButton,mouse_12.rightButton,mouse_12.clicked_name,textbox_5.text,mouse_13.x,mouse_13.y,mouse_13.leftButton,mouse_13.midButton,mouse_13.rightButton,mouse_13.clicked_name,textbox_6.text,mouse_14.x,mouse_14.y,mouse_14.leftButton,mouse_14.midButton,mouse_14.rightButton,mouse_14.clicked_name,textbox_7.text,mouse_15.x,mouse_15.y,mouse_15.leftButton,mouse_15.midButton,mouse_15.rightButton,mouse_15.clicked_name
0,0,0,40,1,,5f5e2b126352f0691ad71e33,62bc03380d9832bba4822fee,2022-06-29_09h46.20.010,Colour_Asymmetry_Pilot,2022.1.3,Win32,144.092219,62bbe60bf3d75ef465d3e404,,,,,,,,,,,,,,,,,,,,,,,,,,,,,,,,,,,,,,,,,,,,,,,,,,,,,,,,,,,,,,,,,,,,,,,,,,,,,,,,,,,,,,,,,,,,,,,,,,,,,,,,,,,,,,,,,,,,,,,,,,,,,,,,,,,,,,,,,,,,,,,,,,,,,,,,,,,,,,
0,1,1,72,1,,5f5e2b126352f0691ad71e33,62bc03380d9832bba4822fee,2022-06-29_09h46.20.010,Colour_Asymmetry_Pilot,2022.1.3,Win32,144.092219,62bbe60bf3d75ef465d3e404,,,,,,,,,,,,,,,,,,,,,,,,,,,,,,,,,,,,,,,,,,,,,,,,,,,,,,,,,,,,,,,,,,,,,,,,,,,,,,,,,,,,,,,,,,,,,,,,,,,,,,,,,,,,,,,,,,,,,,,,,,,,,,,,,,,,,,,,,,,,,,,,,,,,,,,,,,,,,,
0,2,2,23,1,,5f5e2b126352f0691ad71e33,62bc03380d9832bba4822fee,2022-06-29_09h46.20.010,Colour_Asymmetry_Pilot,2022.1.3,Win32,144.092219,62bbe60bf3d75ef465d3e404,,,,,,,,,,,,,,,,,,,,,,,,,,,,,,,,,,,,,,,,,,,,,,,,,,,,,,,,,,,,,,,,,,,,,,,,,,,,,,,,,,,,,,,,,,,,,,,,,,,,,,,,,,,,,,,,,,,,,,,,,,,,,,,,,,,,,,,,,,,,,,,,,,,,,,,,,,,,,,
0,3,3,69,1,,5f5e2b126352f0691ad71e33,62bc03380d9832bba4822fee,2022-06-29_09h46.20.010,Colour_Asymmetry_Pilot,2022.1.3,Win32,144.092219,62bbe60bf3d75ef465d3e404,,,,,,,,,,,,,,,,,,,,,,,,,,,,,,,,,,,,,,,,,,,,,,,,,,,,,,,,,,,,,,,,,,,,,,,,,,,,,,,,,,,,,,,,,,,,,,,,,,,,,,,,,,,,,,,,,,,,,,,,,,,,,,,,,,,,,,,,,,,,,,,,,,,,,,,,,,,,,,
0,4,4,0,1,,5f5e2b126352f0691ad71e33,62bc03380d9832bba4822fee,2022-06-29_09h46.20.010,Colour_Asymmetry_Pilot,2022.1.3,Win32,144.092219,62bbe60bf3d75ef465d3e404,,,,,,,,,,,,,,,,,,,,,,,,,,,,,,,,,,,,,,,,,,,,,,,,,,,,,,,,,,,,,,,,,,,,,,,,,,,,,,,,,,,,,,,,,,,,,,,,,,,,,,,,,,,,,,,,,,,,,,,,,,,,,,,,,,,,,,,,,,,,,,,,,,,,,,,,,,,,,,
0,5,5,81,1,,5f5e2b126352f0691ad71e33,62bc03380d9832bba4822fee,2022-06-29_09h46.20.010,Colour_Asymmetry_Pilot,2022.1.3,Win32,144.092219,62bbe60bf3d75ef465d3e404,,,,,,,,,,,,,,,,,,,,,,,,,,,,,,,,,,,,,,,,,,,,,,,,,,,,,,,,,,,,,,,,,,,,,,,,,,,,,,,,,,,,,,,,,,,,,,,,,,,,,,,,,,,,,,,,,,,,,,,,,,,,,,,,,,,,,,,,,,,,,,,,,,,,,,,,,,,,,,
0,6,6,51,1,,5f5e2b126352f0691ad71e33,62bc03380d9832bba4822fee,2022-06-29_09h46.20.010,Colour_Asymmetry_Pilot,2022.1.3,Win32,144.092219,62bbe60bf3d75ef465d3e404,,,,,,,,,,,,,,,,,,,,,,,,,,,,,,,,,,,,,,,,,,,,,,,,,,,,,,,,,,,,,,,,,,,,,,,,,,,,,,,,,,,,,,,,,,,,,,,,,,,,,,,,,,,,,,,,,,,,,,,,,,,,,,,,,,,,,,,,,,,,,,,,,,,,,,,,,,,,,,
0,7,7,44,1,,5f5e2b126352f0691ad71e33,62bc03380d9832bba4822fee,2022-06-29_09h46.20.010,Colour_Asymmetry_Pilot,2022.1.3,Win32,144.092219,62bbe60bf3d75ef465d3e404,,,,,,,,,,,,,,,,,,,,,,,,,,,,,,,,,,,,,,,,,,,,,,,,,,,,,,,,,,,,,,,,,,,,,,,,,,,,,,,,,,,,,,,,,,,,,,,,,,,,,,,,,,,,,,,,,,,,,,,,,,,,,,,,,,,,,,,,,,,,,,,,,,,,,,,,,,,,,,
0,8,8,67,1,,5f5e2b126352f0691ad71e33,62bc03380d9832bba4822fee,2022-06-29_09h46.20.010,Colour_Asymmetry_Pilot,2022.1.3,Win32,144.092219,62bbe60bf3d75ef465d3e404,,,,,,,,,,,,,,,,,,,,,,,,,,,,,,,,,,,,,,,,,,,,,,,,,,,,,,,,,,,,,,,,,,,,,,,,,,,,,,,,,,,,,,,,,,,,,,,,,,,,,,,,,,,,,,,,,,,,,,,,,,,,,,,,,,,,,,,,,,,,,,,,,,,,,,,,,,,,,,
0,9,9,3,1,,5f5e2b126352f0691ad71e33,62bc03380d9832bba4822fee,2022-06-29_09h46.20.010,Colour_Asymmetry_Pilot,2022.1.3,Win32,144.092219,62bbe60bf3d75ef465d3e404,,,,,,,,,,,,,,,,,,,,,,,,,,,,,,,,,,,,,,,,,,,,,,,,,,,,,,,,,,,,,,,,,,,,,,,,,,,,,,,,,,,,,,,,,,,,,,,,,,,,,,,,,,,,,,,,,,,,,,,,,,,,,,,,,,,,,,,,,,,,,,,,,,,,,,,,,,,,,,
0,10,10,62,1,,5f5e2b126352f0691ad71e33,62bc03380d9832bba4822fee,2022-06-29_09h46.20.010,Colour_Asymmetry_Pilot,2022.1.3,Win32,144.092219,62bbe60bf3d75ef465d3e404,,,,,,,,,,,,,,,,,,,,,,,,,,,,,,,,,,,,,,,,,,,,,,,,,,,,,,,,,,,,,,,,,,,,,,,,,,,,,,,,,,,,,,,,,,,,,,,,,,,,,,,,,,,,,,,,,,,,,,,,,,,,,,,,,,,,,,,,,,,,,,,,,,,,,,,,,,,,,,
0,11,11,74,1,,5f5e2b126352f0691ad71e33,62bc03380d9832bba4822fee,2022-06-29_09h46.20.010,Colour_Asymmetry_Pilot,2022.1.3,Win32,144.092219,62bbe60bf3d75ef465d3e404,,,,,,,,,,,,,,,,,,,,,,,,,,,,,,,,,,,,,,,,,,,,,,,,,,,,,,,,,,,,,,,,,,,,,,,,,,,,,,,,,,,,,,,,,,,,,,,,,,,,,,,,,,,,,,,,,,,,,,,,,,,,,,,,,,,,,,,,,,,,,,,,,,,,,,,,,,,,,,
0,12,12,36,1,,5f5e2b126352f0691ad71e33,62bc03380d9832bba4822fee,2022-06-29_09h46.20.010,Colour_Asymmetry_Pilot,2022.1.3,Win32,144.092219,62bbe60bf3d75ef465d3e404,,,,,,,,,,,,,,,,,,,,,,,,,,,,,,,,,,,,,,,,,,,,,,,,,,,,,,,,,,,,,,,,,,,,,,,,,,,,,,,,,,,,,,,,,,,,,,,,,,,,,,,,,,,,,,,,,,,,,,,,,,,,,,,,,,,,,,,,,,,,,,,,,,,,,,,,,,,,,,
0,13,13,53,1,,5f5e2b126352f0691ad71e33,62bc03380d9832bba4822fee,2022-06-29_09h46.20.010,Colour_Asymmetry_Pilot,2022.1.3,Win32,144.092219,62bbe60bf3d75ef465d3e404,,,,,,,,,,,,,,,,,,,,,,,,,,,,,,,,,,,,,,,,,,,,,,,,,,,,,,,,,,,,,,,,,,,,,,,,,,,,,,,,,,,,,,,,,,,,,,,,,,,,,,,,,,,,,,,,,,,,,,,,,,,,,,,,,,,,,,,,,,,,,,,,,,,,,,,,,,,,,,
0,14,14,84,1,,5f5e2b126352f0691ad71e33,62bc03380d9832bba4822fee,2022-06-29_09h46.20.010,Colour_Asymmetry_Pilot,2022.1.3,Win32,144.092219,62bbe60bf3d75ef465d3e404,,,,,,,,,,,,,,,,,,,,,,,,,,,,,,,,,,,,,,,,,,,,,,,,,,,,,,,,,,,,,,,,,,,,,,,,,,,,,,,,,,,,,,,,,,,,,,,,,,,,,,,,,,,,,,,,,,,,,,,,,,,,,,,,,,,,,,,,,,,,,,,,,,,,,,,,,,,,,,
0,15,15,63,1,,5f5e2b126352f0691ad71e33,62bc03380d9832bba4822fee,2022-06-29_09h46.20.010,Colour_Asymmetry_Pilot,2022.1.3,Win32,144.092219,62bbe60bf3d75ef465d3e404,,,,,,,,,,,,,,,,,,,,,,,,,,,,,,,,,,,,,,,,,,,,,,,,,,,,,,,,,,,,,,,,,,,,,,,,,,,,,,,,,,,,,,,,,,,,,,,,,,,,,,,,,,,,,,,,,,,,,,,,,,,,,,,,,,,,,,,,,,,,,,,,,,,,,,,,,,,,,,
0,16,16,91,1,,5f5e2b126352f0691ad71e33,62bc03380d9832bba4822fee,2022-06-29_09h46.20.010,Colour_Asymmetry_Pilot,2022.1.3,Win32,144.092219,62bbe60bf3d75ef465d3e404,,,,,,,,,,,,,,,,,,,,,,,,,,,,,,,,,,,,,,,,,,,,,,,,,,,,,,,,,,,,,,,,,,,,,,,,,,,,,,,,,,,,,,,,,,,,,,,,,,,,,,,,,,,,,,,,,,,,,,,,,,,,,,,,,,,,,,,,,,,,,,,,,,,,,,,,,,,,,,
0,17,17,39,1,,5f5e2b126352f0691ad71e33,62bc03380d9832bba4822fee,2022-06-29_09h46.20.010,Colour_Asymmetry_Pilot,2022.1.3,Win32,144.092219,62bbe60bf3d75ef465d3e404,,,,,,,,,,,,,,,,,,,,,,,,,,,,,,,,,,,,,,,,,,,,,,,,,,,,,,,,,,,,,,,,,,,,,,,,,,,,,,,,,,,,,,,,,,,,,,,,,,,,,,,,,,,,,,,,,,,,,,,,,,,,,,,,,,,,,,,,,,,,,,,,,,,,,,,,,,,,,,
0,18,18,88,1,,5f5e2b126352f0691ad71e33,62bc03380d9832bba4822fee,2022-06-29_09h46.20.010,Colour_Asymmetry_Pilot,2022.1.3,Win32,144.092219,62bbe60bf3d75ef465d3e404,,,,,,,,,,,,,,,,,,,,,,,,,,,,,,,,,,,,,,,,,,,,,,,,,,,,,,,,,,,,,,,,,,,,,,,,,,,,,,,,,,,,,,,,,,,,,,,,,,,,,,,,,,,,,,,,,,,,,,,,,,,,,,,,,,,,,,,,,,,,,,,,,,,,,,,,,,,,,,
0,19,19,70,1,,5f5e2b126352f0691ad71e33,62bc03380d9832bba4822fee,2022-06-29_09h46.20.010,Colour_Asymmetry_Pilot,2022.1.3,Win32,144.092219,62bbe60bf3d75ef465d3e404,,,,,,,,,,,,,,,,,,,,,,,,,,,,,,,,,,,,,,,,,,,,,,,,,,,,,,,,,,,,,,,,,,,,,,,,,,,,,,,,,,,,,,,,,,,,,,,,,,,,,,,,,,,,,,,,,,,,,,,,,,,,,,,,,,,,,,,,,,,,,,,,,,,,,,,,,,,,,,
0,20,20,50,1,,5f5e2b126352f0691ad71e33,62bc03380d9832bba4822fee,2022-06-29_09h46.20.010,Colour_Asymmetry_Pilot,2022.1.3,Win32,144.092219,62bbe60bf3d75ef465d3e404,,,,,,,,,,,,,,,,,,,,,,,,,,,,,,,,,,,,,,,,,,,,,,,,,,,,,,,,,,,,,,,,,,,,,,,,,,,,,,,,,,,,,,,,,,,,,,,,,,,,,,,,,,,,,,,,,,,,,,,,,,,,,,,,,,,,,,,,,,,,,,,,,,,,,,,,,,,,,,
0,21,21,82,1,,5f5e2b126352f0691ad71e33,62bc03380d9832bba4822fee,2022-06-29_09h46.20.010,Colour_Asymmetry_Pilot,2022.1.3,Win32,144.092219,62bbe60bf3d75ef465d3e404,,,,,,,,,,,,,,,,,,,,,,,,,,,,,,,,,,,,,,,,,,,,,,,,,,,,,,,,,,,,,,,,,,,,,,,,,,,,,,,,,,,,,,,,,,,,,,,,,,,,,,,,,,,,,,,,,,,,,,,,,,,,,,,,,,,,,,,,,,,,,,,,,,,,,,,,,,,,,,
0,22,22,4,1,,5f5e2b126352f0691ad71e33,62bc03380d9832bba4822fee,2022-06-29_09h46.20.010,Colour_Asymmetry_Pilot,2022.1.3,Win32,144.092219,62bbe60bf3d75ef465d3e404,,,,,,,,,,,,,,,,,,,,,,,,,,,,,,,,,,,,,,,,,,,,,,,,,,,,,,,,,,,,,,,,,,,,,,,,,,,,,,,,,,,,,,,,,,,,,,,,,,,,,,,,,,,,,,,,,,,,,,,,,,,,,,,,,,,,,,,,,,,,,,,,,,,,,,,,,,,,,,
0,23,23,71,1,,5f5e2b126352f0691ad71e33,62bc03380d9832bba4822fee,2022-06-29_09h46.20.010,Colour_Asymmetry_Pilot,2022.1.3,Win32,144.092219,62bbe60bf3d75ef465d3e404,,,,,,,,,,,,,,,,,,,,,,,,,,,,,,,,,,,,,,,,,,,,,,,,,,,,,,,,,,,,,,,,,,,,,,,,,,,,,,,,,,,,,,,,,,,,,,,,,,,,,,,,,,,,,,,,,,,,,,,,,,,,,,,,,,,,,,,,,,,,,,,,,,,,,,,,,,,,,,
0,24,24,30,1,,5f5e2b126352f0691ad71e33,62bc03380d9832bba4822fee,2022-06-29_09h46.20.010,Colour_Asymmetry_Pilot,2022.1.3,Win32,144.092219,62bbe60bf3d75ef465d3e404,,,,,,,,,,,,,,,,,,,,,,,,,,,,,,,,,,,,,,,,,,,,,,,,,,,,,,,,,,,,,,,,,,,,,,,,,,,,,,,,,,,,,,,,,,,,,,,,,,,,,,,,,,,,,,,,,,,,,,,,,,,,,,,,,,,,,,,,,,,,,,,,,,,,,,,,,,,,,,
0,25,25,26,1,,5f5e2b126352f0691ad71e33,62bc03380d9832bba4822fee,2022-06-29_09h46.20.010,Colour_Asymmetry_Pilot,2022.1.3,Win32,144.092219,62bbe60bf3d75ef465d3e404,,,,,,,,,,,,,,,,,,,,,,,,,,,,,,,,,,,,,,,,,,,,,,,,,,,,,,,,,,,,,,,,,,,,,,,,,,,,,,,,,,,,,,,,,,,,,,,,,,,,,,,,,,,,,,,,,,,,,,,,,,,,,,,,,,,,,,,,,,,,,,,,,,,,,,,,,,,,,,
0,26,26,52,1,,5f5e2b126352f0691ad71e33,62bc03380d9832bba4822fee,2022-06-29_09h46.20.010,Colour_Asymmetry_Pilot,2022.1.3,Win32,144.092219,62bbe60bf3d75ef465d3e404,,,,,,,,,,,,,,,,,,,,,,,,,,,,,,,,,,,,,,,,,,,,,,,,,,,,,,,,,,,,,,,,,,,,,,,,,,,,,,,,,,,,,,,,,,,,,,,,,,,,,,,,,,,,,,,,,,,,,,,,,,,,,,,,,,,,,,,,,,,,,,,,,,,,,,,,,,,,,,
0,27,27,58,1,,5f5e2b126352f0691ad71e33,62bc03380d9832bba4822fee,2022-06-29_09h46.20.010,Colour_Asymmetry_Pilot,2022.1.3,Win32,144.092219,62bbe60bf3d75ef465d3e404,,,,,,,,,,,,,,,,,,,,,,,,,,,,,,,,,,,,,,,,,,,,,,,,,,,,,,,,,,,,,,,,,,,,,,,,,,,,,,,,,,,,,,,,,,,,,,,,,,,,,,,,,,,,,,,,,,,,,,,,,,,,,,,,,,,,,,,,,,,,,,,,,,,,,,,,,,,,,,
0,28,28,55,1,,5f5e2b126352f0691ad71e33,62bc03380d9832bba4822fee,2022-06-29_09h46.20.010,Colour_Asymmetry_Pilot,2022.1.3,Win32,144.092219,62bbe60bf3d75ef465d3e404,,,,,,,,,,,,,,,,,,,,,,,,,,,,,,,,,,,,,,,,,,,,,,,,,,,,,,,,,,,,,,,,,,,,,,,,,,,,,,,,,,,,,,,,,,,,,,,,,,,,,,,,,,,,,,,,,,,,,,,,,,,,,,,,,,,,,,,,,,,,,,,,,,,,,,,,,,,,,,
0,29,29,56,1,,5f5e2b126352f0691ad71e33,62bc03380d9832bba4822fee,2022-06-29_09h46.20.010,Colour_Asymmetry_Pilot,2022.1.3,Win32,144.092219,62bbe60bf3d75ef465d3e404,,,,,,,,,,,,,,,,,,,,,,,,,,,,,,,,,,,,,,,,,,,,,,,,,,,,,,,,,,,,,,,,,,,,,,,,,,,,,,,,,,,,,,,,,,,,,,,,,,,,,,,,,,,,,,,,,,,,,,,,,,,,,,,,,,,,,,,,,,,,,,,,,,,,,,,,,,,,,,
0,30,30,8,1,,5f5e2b126352f0691ad71e33,62bc03380d9832bba4822fee,2022-06-29_09h46.20.010,Colour_Asymmetry_Pilot,2022.1.3,Win32,144.092219,62bbe60bf3d75ef465d3e404,,,,,,,,,,,,,,,,,,,,,,,,,,,,,,,,,,,,,,,,,,,,,,,,,,,,,,,,,,,,,,,,,,,,,,,,,,,,,,,,,,,,,,,,,,,,,,,,,,,,,,,,,,,,,,,,,,,,,,,,,,,,,,,,,,,,,,,,,,,,,,,,,,,,,,,,,,,,,,
0,31,31,22,1,,5f5e2b126352f0691ad71e33,62bc03380d9832bba4822fee,2022-06-29_09h46.20.010,Colour_Asymmetry_Pilot,2022.1.3,Win32,144.092219,62bbe60bf3d75ef465d3e404,,,,,,,,,,,,,,,,,,,,,,,,,,,,,,,,,,,,,,,,,,,,,,,,,,,,,,,,,,,,,,,,,,,,,,,,,,,,,,,,,,,,,,,,,,,,,,,,,,,,,,,,,,,,,,,,,,,,,,,,,,,,,,,,,,,,,,,,,,,,,,,,,,,,,,,,,,,,,,
0,32,32,46,1,,5f5e2b126352f0691ad71e33,62bc03380d9832bba4822fee,2022-06-29_09h46.20.010,Colour_Asymmetry_Pilot,2022.1.3,Win32,144.092219,62bbe60bf3d75ef465d3e404,,,,,,,,,,,,,,,,,,,,,,,,,,,,,,,,,,,,,,,,,,,,,,,,,,,,,,,,,,,,,,,,,,,,,,,,,,,,,,,,,,,,,,,,,,,,,,,,,,,,,,,,,,,,,,,,,,,,,,,,,,,,,,,,,,,,,,,,,,,,,,,,,,,,,,,,,,,,,,
0,33,33,49,1,,5f5e2b126352f0691ad71e33,62bc03380d9832bba4822fee,2022-06-29_09h46.20.010,Colour_Asymmetry_Pilot,2022.1.3,Win32,144.092219,62bbe60bf3d75ef465d3e404,,,,,,,,,,,,,,,,,,,,,,,,,,,,,,,,,,,,,,,,,,,,,,,,,,,,,,,,,,,,,,,,,,,,,,,,,,,,,,,,,,,,,,,,,,,,,,,,,,,,,,,,,,,,,,,,,,,,,,,,,,,,,,,,,,,,,,,,,,,,,,,,,,,,,,,,,,,,,,
0,34,34,43,1,,5f5e2b126352f0691ad71e33,62bc03380d9832bba4822fee,2022-06-29_09h46.20.010,Colour_Asymmetry_Pilot,2022.1.3,Win32,144.092219,62bbe60bf3d75ef465d3e404,,,,,,,,,,,,,,,,,,,,,,,,,,,,,,,,,,,,,,,,,,,,,,,,,,,,,,,,,,,,,,,,,,,,,,,,,,,,,,,,,,,,,,,,,,,,,,,,,,,,,,,,,,,,,,,,,,,,,,,,,,,,,,,,,,,,,,,,,,,,,,,,,,,,,,,,,,,,,,
0,35,35,68,1,,5f5e2b126352f0691ad71e33,62bc03380d9832bba4822fee,2022-06-29_09h46.20.010,Colour_Asymmetry_Pilot,2022.1.3,Win32,144.092219,62bbe60bf3d75ef465d3e404,,,,,,,,,,,,,,,,,,,,,,,,,,,,,,,,,,,,,,,,,,,,,,,,,,,,,,,,,,,,,,,,,,,,,,,,,,,,,,,,,,,,,,,,,,,,,,,,,,,,,,,,,,,,,,,,,,,,,,,,,,,,,,,,,,,,,,,,,,,,,,,,,,,,,,,,,,,,,,
0,36,36,28,1,,5f5e2b126352f0691ad71e33,62bc03380d9832bba4822fee,2022-06-29_09h46.20.010,Colour_Asymmetry_Pilot,2022.1.3,Win32,144.092219,62bbe60bf3d75ef465d3e404,,,,,,,,,,,,,,,,,,,,,,,,,,,,,,,,,,,,,,,,,,,,,,,,,,,,,,,,,,,,,,,,,,,,,,,,,,,,,,,,,,,,,,,,,,,,,,,,,,,,,,,,,,,,,,,,,,,,,,,,,,,,,,,,,,,,,,,,,,,,,,,,,,,,,,,,,,,,,,
0,37,37,32,1,,5f5e2b126352f0691ad71e33,62bc03380d9832bba4822fee,2022-06-29_09h46.20.010,Colour_Asymmetry_Pilot,2022.1.3,Win32,144.092219,62bbe60bf3d75ef465d3e404,,,,,,,,,,,,,,,,,,,,,,,,,,,,,,,,,,,,,,,,,,,,,,,,,,,,,,,,,,,,,,,,,,,,,,,,,,,,,,,,,,,,,,,,,,,,,,,,,,,,,,,,,,,,,,,,,,,,,,,,,,,,,,,,,,,,,,,,,,,,,,,,,,,,,,,,,,,,,,
0,38,38,29,1,,5f5e2b126352f0691ad71e33,62bc03380d9832bba4822fee,2022-06-29_09h46.20.010,Colour_Asymmetry_Pilot,2022.1.3,Win32,144.092219,62bbe60bf3d75ef465d3e404,,,,,,,,,,,,,,,,,,,,,,,,,,,,,,,,,,,,,,,,,,,,,,,,,,,,,,,,,,,,,,,,,,,,,,,,,,,,,,,,,,,,,,,,,,,,,,,,,,,,,,,,,,,,,,,,,,,,,,,,,,,,,,,,,,,,,,,,,,,,,,,,,,,,,,,,,,,,,,
0,39,39,60,1,,5f5e2b126352f0691ad71e33,62bc03380d9832bba4822fee,2022-06-29_09h46.20.010,Colour_Asymmetry_Pilot,2022.1.3,Win32,144.092219,62bbe60bf3d75ef465d3e404,,,,,,,,,,,,,,,,,,,,,,,,,,,,,,,,,,,,,,,,,,,,,,,,,,,,,,,,,,,,,,,,,,,,,,,,,,,,,,,,,,,,,,,,,,,,,,,,,,,,,,,,,,,,,,,,,,,,,,,,,,,,,,,,,,,,,,,,,,,,,,,,,,,,,,,,,,,,,,
0,40,40,14,1,,5f5e2b126352f0691ad71e33,62bc03380d9832bba4822fee,2022-06-29_09h46.20.010,Colour_Asymmetry_Pilot,2022.1.3,Win32,144.092219,62bbe60bf3d75ef465d3e404,,,,,,,,,,,,,,,,,,,,,,,,,,,,,,,,,,,,,,,,,,,,,,,,,,,,,,,,,,,,,,,,,,,,,,,,,,,,,,,,,,,,,,,,,,,,,,,,,,,,,,,,,,,,,,,,,,,,,,,,,,,,,,,,,,,,,,,,,,,,,,,,,,,,,,,,,,,,,,
0,41,41,19,1,,5f5e2b126352f0691ad71e33,62bc03380d9832bba4822fee,2022-06-29_09h46.20.010,Colour_Asymmetry_Pilot,2022.1.3,Win32,144.092219,62bbe60bf3d75ef465d3e404,,,,,,,,,,,,,,,,,,,,,,,,,,,,,,,,,,,,,,,,,,,,,,,,,,,,,,,,,,,,,,,,,,,,,,,,,,,,,,,,,,,,,,,,,,,,,,,,,,,,,,,,,,,,,,,,,,,,,,,,,,,,,,,,,,,,,,,,,,,,,,,,,,,,,,,,,,,,,,
0,42,42,6,1,,5f5e2b126352f0691ad71e33,62bc03380d9832bba4822fee,2022-06-29_09h46.20.010,Colour_Asymmetry_Pilot,2022.1.3,Win32,144.092219,62bbe60bf3d75ef465d3e404,,,,,,,,,,,,,,,,,,,,,,,,,,,,,,,,,,,,,,,,,,,,,,,,,,,,,,,,,,,,,,,,,,,,,,,,,,,,,,,,,,,,,,,,,,,,,,,,,,,,,,,,,,,,,,,,,,,,,,,,,,,,,,,,,,,,,,,,,,,,,,,,,,,,,,,,,,,,,,
0,43,43,17,1,,5f5e2b126352f0691ad71e33,62bc03380d9832bba4822fee,2022-06-29_09h46.20.010,Colour_Asymmetry_Pilot,2022.1.3,Win32,144.092219,62bbe60bf3d75ef465d3e404,,,,,,,,,,,,,,,,,,,,,,,,,,,,,,,,,,,,,,,,,,,,,,,,,,,,,,,,,,,,,,,,,,,,,,,,,,,,,,,,,,,,,,,,,,,,,,,,,,,,,,,,,,,,,,,,,,,,,,,,,,,,,,,,,,,,,,,,,,,,,,,,,,,,,,,,,,,,,,
0,44,44,47,1,,5f5e2b126352f0691ad71e33,62bc03380d9832bba4822fee,2022-06-29_09h46.20.010,Colour_Asymmetry_Pilot,2022.1.3,Win32,144.092219,62bbe60bf3d75ef465d3e404,,,,,,,,,,,,,,,,,,,,,,,,,,,,,,,,,,,,,,,,,,,,,,,,,,,,,,,,,,,,,,,,,,,,,,,,,,,,,,,,,,,,,,,,,,,,,,,,,,,,,,,,,,,,,,,,,,,,,,,,,,,,,,,,,,,,,,,,,,,,,,,,,,,,,,,,,,,,,,
0,45,45,18,1,,5f5e2b126352f0691ad71e33,62bc03380d9832bba4822fee,2022-06-29_09h46.20.010,Colour_Asymmetry_Pilot,2022.1.3,Win32,144.092219,62bbe60bf3d75ef465d3e404,,,,,,,,,,,,,,,,,,,,,,,,,,,,,,,,,,,,,,,,,,,,,,,,,,,,,,,,,,,,,,,,,,,,,,,,,,,,,,,,,,,,,,,,,,,,,,,,,,,,,,,,,,,,,,,,,,,,,,,,,,,,,,,,,,,,,,,,,,,,,,,,,,,,,,,,,,,,,,
0,46,46,15,1,,5f5e2b126352f0691ad71e33,62bc03380d9832bba4822fee,2022-06-29_09h46.20.010,Colour_Asymmetry_Pilot,2022.1.3,Win32,144.092219,62bbe60bf3d75ef465d3e404,,,,,,,,,,,,,,,,,,,,,,,,,,,,,,,,,,,,,,,,,,,,,,,,,,,,,,,,,,,,,,,,,,,,,,,,,,,,,,,,,,,,,,,,,,,,,,,,,,,,,,,,,,,,,,,,,,,,,,,,,,,,,,,,,,,,,,,,,,,,,,,,,,,,,,,,,,,,,,
0,47,47,89,1,,5f5e2b126352f0691ad71e33,62bc03380d9832bba4822fee,2022-06-29_09h46.20.010,Colour_Asymmetry_Pilot,2022.1.3,Win32,144.092219,62bbe60bf3d75ef465d3e404,,,,,,,,,,,,,,,,,,,,,,,,,,,,,,,,,,,,,,,,,,,,,,,,,,,,,,,,,,,,,,,,,,,,,,,,,,,,,,,,,,,,,,,,,,,,,,,,,,,,,,,,,,,,,,,,,,,,,,,,,,,,,,,,,,,,,,,,,,,,,,,,,,,,,,,,,,,,,,
0,48,48,78,1,,5f5e2b126352f0691ad71e33,62bc03380d9832bba4822fee,2022-06-29_09h46.20.010,Colour_Asymmetry_Pilot,2022.1.3,Win32,144.092219,62bbe60bf3d75ef465d3e404,,,,,,,,,,,,,,,,,,,,,,,,,,,,,,,,,,,,,,,,,,,,,,,,,,,,,,,,,,,,,,,,,,,,,,,,,,,,,,,,,,,,,,,,,,,,,,,,,,,,,,,,,,,,,,,,,,,,,,,,,,,,,,,,,,,,,,,,,,,,,,,,,,,,,,,,,,,,,,
0,49,49,33,1,,5f5e2b126352f0691ad71e33,62bc03380d9832bba4822fee,2022-06-29_09h46.20.010,Colour_Asymmetry_Pilot,2022.1.3,Win32,144.092219,62bbe60bf3d75ef465d3e404,,,,,,,,,,,,,,,,,,,,,,,,,,,,,,,,,,,,,,,,,,,,,,,,,,,,,,,,,,,,,,,,,,,,,,,,,,,,,,,,,,,,,,,,,,,,,,,,,,,,,,,,,,,,,,,,,,,,,,,,,,,,,,,,,,,,,,,,,,,,,,,,,,,,,,,,,,,,,,
0,50,50,79,1,,5f5e2b126352f0691ad71e33,62bc03380d9832bba4822fee,2022-06-29_09h46.20.010,Colour_Asymmetry_Pilot,2022.1.3,Win32,144.092219,62bbe60bf3d75ef465d3e404,,,,,,,,,,,,,,,,,,,,,,,,,,,,,,,,,,,,,,,,,,,,,,,,,,,,,,,,,,,,,,,,,,,,,,,,,,,,,,,,,,,,,,,,,,,,,,,,,,,,,,,,,,,,,,,,,,,,,,,,,,,,,,,,,,,,,,,,,,,,,,,,,,,,,,,,,,,,,,
0,51,51,2,1,,5f5e2b126352f0691ad71e33,62bc03380d9832bba4822fee,2022-06-29_09h46.20.010,Colour_Asymmetry_Pilot,2022.1.3,Win32,144.092219,62bbe60bf3d75ef465d3e404,,,,,,,,,,,,,,,,,,,,,,,,,,,,,,,,,,,,,,,,,,,,,,,,,,,,,,,,,,,,,,,,,,,,,,,,,,,,,,,,,,,,,,,,,,,,,,,,,,,,,,,,,,,,,,,,,,,,,,,,,,,,,,,,,,,,,,,,,,,,,,,,,,,,,,,,,,,,,,
0,52,52,75,1,,5f5e2b126352f0691ad71e33,62bc03380d9832bba4822fee,2022-06-29_09h46.20.010,Colour_Asymmetry_Pilot,2022.1.3,Win32,144.092219,62bbe60bf3d75ef465d3e404,,,,,,,,,,,,,,,,,,,,,,,,,,,,,,,,,,,,,,,,,,,,,,,,,,,,,,,,,,,,,,,,,,,,,,,,,,,,,,,,,,,,,,,,,,,,,,,,,,,,,,,,,,,,,,,,,,,,,,,,,,,,,,,,,,,,,,,,,,,,,,,,,,,,,,,,,,,,,,
0,53,53,21,1,,5f5e2b126352f0691ad71e33,62bc03380d9832bba4822fee,2022-06-29_09h46.20.010,Colour_Asymmetry_Pilot,2022.1.3,Win32,144.092219,62bbe60bf3d75ef465d3e404,,,,,,,,,,,,,,,,,,,,,,,,,,,,,,,,,,,,,,,,,,,,,,,,,,,,,,,,,,,,,,,,,,,,,,,,,,,,,,,,,,,,,,,,,,,,,,,,,,,,,,,,,,,,,,,,,,,,,,,,,,,,,,,,,,,,,,,,,,,,,,,,,,,,,,,,,,,,,,
0,54,54,61,1,,5f5e2b126352f0691ad71e33,62bc03380d9832bba4822fee,2022-06-29_09h46.20.010,Colour_Asymmetry_Pilot,2022.1.3,Win32,144.092219,62bbe60bf3d75ef465d3e404,,,,,,,,,,,,,,,,,,,,,,,,,,,,,,,,,,,,,,,,,,,,,,,,,,,,,,,,,,,,,,,,,,,,,,,,,,,,,,,,,,,,,,,,,,,,,,,,,,,,,,,,,,,,,,,,,,,,,,,,,,,,,,,,,,,,,,,,,,,,,,,,,,,,,,,,,,,,,,
0,55,55,45,1,,5f5e2b126352f0691ad71e33,62bc03380d9832bba4822fee,2022-06-29_09h46.20.010,Colour_Asymmetry_Pilot,2022.1.3,Win32,144.092219,62bbe60bf3d75ef465d3e404,,,,,,,,,,,,,,,,,,,,,,,,,,,,,,,,,,,,,,,,,,,,,,,,,,,,,,,,,,,,,,,,,,,,,,,,,,,,,,,,,,,,,,,,,,,,,,,,,,,,,,,,,,,,,,,,,,,,,,,,,,,,,,,,,,,,,,,,,,,,,,,,,,,,,,,,,,,,,,
0,56,56,86,1,,5f5e2b126352f0691ad71e33,62bc03380d9832bba4822fee,2022-06-29_09h46.20.010,Colour_Asymmetry_Pilot,2022.1.3,Win32,144.092219,62bbe60bf3d75ef465d3e404,,,,,,,,,,,,,,,,,,,,,,,,,,,,,,,,,,,,,,,,,,,,,,,,,,,,,,,,,,,,,,,,,,,,,,,,,,,,,,,,,,,,,,,,,,,,,,,,,,,,,,,,,,,,,,,,,,,,,,,,,,,,,,,,,,,,,,,,,,,,,,,,,,,,,,,,,,,,,,
0,57,57,59,1,,5f5e2b126352f0691ad71e33,62bc03380d9832bba4822fee,2022-06-29_09h46.20.010,Colour_Asymmetry_Pilot,2022.1.3,Win32,144.092219,62bbe60bf3d75ef465d3e404,,,,,,,,,,,,,,,,,,,,,,,,,,,,,,,,,,,,,,,,,,,,,,,,,,,,,,,,,,,,,,,,,,,,,,,,,,,,,,,,,,,,,,,,,,,,,,,,,,,,,,,,,,,,,,,,,,,,,,,,,,,,,,,,,,,,,,,,,,,,,,,,,,,,,,,,,,,,,,
0,58,58,9,1,,5f5e2b126352f0691ad71e33,62bc03380d9832bba4822fee,2022-06-29_09h46.20.010,Colour_Asymmetry_Pilot,2022.1.3,Win32,144.092219,62bbe60bf3d75ef465d3e404,,,,,,,,,,,,,,,,,,,,,,,,,,,,,,,,,,,,,,,,,,,,,,,,,,,,,,,,,,,,,,,,,,,,,,,,,,,,,,,,,,,,,,,,,,,,,,,,,,,,,,,,,,,,,,,,,,,,,,,,,,,,,,,,,,,,,,,,,,,,,,,,,,,,,,,,,,,,,,
0,59,59,54,1,,5f5e2b126352f0691ad71e33,62bc03380d9832bba4822fee,2022-06-29_09h46.20.010,Colour_Asymmetry_Pilot,2022.1.3,Win32,144.092219,62bbe60bf3d75ef465d3e404,,,,,,,,,,,,,,,,,,,,,,,,,,,,,,,,,,,,,,,,,,,,,,,,,,,,,,,,,,,,,,,,,,,,,,,,,,,,,,,,,,,,,,,,,,,,,,,,,,,,,,,,,,,,,,,,,,,,,,,,,,,,,,,,,,,,,,,,,,,,,,,,,,,,,,,,,,,,,,
0,60,60,73,1,,5f5e2b126352f0691ad71e33,62bc03380d9832bba4822fee,2022-06-29_09h46.20.010,Colour_Asymmetry_Pilot,2022.1.3,Win32,144.092219,62bbe60bf3d75ef465d3e404,,,,,,,,,,,,,,,,,,,,,,,,,,,,,,,,,,,,,,,,,,,,,,,,,,,,,,,,,,,,,,,,,,,,,,,,,,,,,,,,,,,,,,,,,,,,,,,,,,,,,,,,,,,,,,,,,,,,,,,,,,,,,,,,,,,,,,,,,,,,,,,,,,,,,,,,,,,,,,
0,61,61,11,1,,5f5e2b126352f0691ad71e33,62bc03380d9832bba4822fee,2022-06-29_09h46.20.010,Colour_Asymmetry_Pilot,2022.1.3,Win32,144.092219,62bbe60bf3d75ef465d3e404,,,,,,,,,,,,,,,,,,,,,,,,,,,,,,,,,,,,,,,,,,,,,,,,,,,,,,,,,,,,,,,,,,,,,,,,,,,,,,,,,,,,,,,,,,,,,,,,,,,,,,,,,,,,,,,,,,,,,,,,,,,,,,,,,,,,,,,,,,,,,,,,,,,,,,,,,,,,,,
0,62,62,65,1,,5f5e2b126352f0691ad71e33,62bc03380d9832bba4822fee,2022-06-29_09h46.20.010,Colour_Asymmetry_Pilot,2022.1.3,Win32,144.092219,62bbe60bf3d75ef465d3e404,,,,,,,,,,,,,,,,,,,,,,,,,,,,,,,,,,,,,,,,,,,,,,,,,,,,,,,,,,,,,,,,,,,,,,,,,,,,,,,,,,,,,,,,,,,,,,,,,,,,,,,,,,,,,,,,,,,,,,,,,,,,,,,,,,,,,,,,,,,,,,,,,,,,,,,,,,,,,,
0,63,63,38,1,,5f5e2b126352f0691ad71e33,62bc03380d9832bba4822fee,2022-06-29_09h46.20.010,Colour_Asymmetry_Pilot,2022.1.3,Win32,144.092219,62bbe60bf3d75ef465d3e404,,,,,,,,,,,,,,,,,,,,,,,,,,,,,,,,,,,,,,,,,,,,,,,,,,,,,,,,,,,,,,,,,,,,,,,,,,,,,,,,,,,,,,,,,,,,,,,,,,,,,,,,,,,,,,,,,,,,,,,,,,,,,,,,,,,,,,,,,,,,,,,,,,,,,,,,,,,,,,
0,64,64,37,1,,5f5e2b126352f0691ad71e33,62bc03380d9832bba4822fee,2022-06-29_09h46.20.010,Colour_Asymmetry_Pilot,2022.1.3,Win32,144.092219,62bbe60bf3d75ef465d3e404,,,,,,,,,,,,,,,,,,,,,,,,,,,,,,,,,,,,,,,,,,,,,,,,,,,,,,,,,,,,,,,,,,,,,,,,,,,,,,,,,,,,,,,,,,,,,,,,,,,,,,,,,,,,,,,,,,,,,,,,,,,,,,,,,,,,,,,,,,,,,,,,,,,,,,,,,,,,,,
0,65,65,1,1,,5f5e2b126352f0691ad71e33,62bc03380d9832bba4822fee,2022-06-29_09h46.20.010,Colour_Asymmetry_Pilot,2022.1.3,Win32,144.092219,62bbe60bf3d75ef465d3e404,,,,,,,,,,,,,,,,,,,,,,,,,,,,,,,,,,,,,,,,,,,,,,,,,,,,,,,,,,,,,,,,,,,,,,,,,,,,,,,,,,,,,,,,,,,,,,,,,,,,,,,,,,,,,,,,,,,,,,,,,,,,,,,,,,,,,,,,,,,,,,,,,,,,,,,,,,,,,,
0,66,66,42,1,,5f5e2b126352f0691ad71e33,62bc03380d9832bba4822fee,2022-06-29_09h46.20.010,Colour_Asymmetry_Pilot,2022.1.3,Win32,144.092219,62bbe60bf3d75ef465d3e404,,,,,,,,,,,,,,,,,,,,,,,,,,,,,,,,,,,,,,,,,,,,,,,,,,,,,,,,,,,,,,,,,,,,,,,,,,,,,,,,,,,,,,,,,,,,,,,,,,,,,,,,,,,,,,,,,,,,,,,,,,,,,,,,,,,,,,,,,,,,,,,,,,,,,,,,,,,,,,
0,67,67,41,1,,5f5e2b126352f0691ad71e33,62bc03380d9832bba4822fee,2022-06-29_09h46.20.010,Colour_Asymmetry_Pilot,2022.1.3,Win32,144.092219,62bbe60bf3d75ef465d3e404,,,,,,,,,,,,,,,,,,,,,,,,,,,,,,,,,,,,,,,,,,,,,,,,,,,,,,,,,,,,,,,,,,,,,,,,,,,,,,,,,,,,,,,,,,,,,,,,,,,,,,,,,,,,,,,,,,,,,,,,,,,,,,,,,,,,,,,,,,,,,,,,,,,,,,,,,,,,,,
0,68,68,77,1,,5f5e2b126352f0691ad71e33,62bc03380d9832bba4822fee,2022-06-29_09h46.20.010,Colour_Asymmetry_Pilot,2022.1.3,Win32,144.092219,62bbe60bf3d75ef465d3e404,,,,,,,,,,,,,,,,,,,,,,,,,,,,,,,,,,,,,,,,,,,,,,,,,,,,,,,,,,,,,,,,,,,,,,,,,,,,,,,,,,,,,,,,,,,,,,,,,,,,,,,,,,,,,,,,,,,,,,,,,,,,,,,,,,,,,,,,,,,,,,,,,,,,,,,,,,,,,,
0,69,69,85,1,,5f5e2b126352f0691ad71e33,62bc03380d9832bba4822fee,2022-06-29_09h46.20.010,Colour_Asymmetry_Pilot,2022.1.3,Win32,144.092219,62bbe60bf3d75ef465d3e404,,,,,,,,,,,,,,,,,,,,,,,,,,,,,,,,,,,,,,,,,,,,,,,,,,,,,,,,,,,,,,,,,,,,,,,,,,,,,,,,,,,,,,,,,,,,,,,,,,,,,,,,,,,,,,,,,,,,,,,,,,,,,,,,,,,,,,,,,,,,,,,,,,,,,,,,,,,,,,
0,70,70,35,1,,5f5e2b126352f0691ad71e33,62bc03380d9832bba4822fee,2022-06-29_09h46.20.010,Colour_Asymmetry_Pilot,2022.1.3,Win32,144.092219,62bbe60bf3d75ef465d3e404,,,,,,,,,,,,,,,,,,,,,,,,,,,,,,,,,,,,,,,,,,,,,,,,,,,,,,,,,,,,,,,,,,,,,,,,,,,,,,,,,,,,,,,,,,,,,,,,,,,,,,,,,,,,,,,,,,,,,,,,,,,,,,,,,,,,,,,,,,,,,,,,,,,,,,,,,,,,,,
0,71,71,92,1,,5f5e2b126352f0691ad71e33,62bc03380d9832bba4822fee,2022-06-29_09h46.20.010,Colour_Asymmetry_Pilot,2022.1.3,Win32,144.092219,62bbe60bf3d75ef465d3e404,,,,,,,,,,,,,,,,,,,,,,,,,,,,,,,,,,,,,,,,,,,,,,,,,,,,,,,,,,,,,,,,,,,,,,,,,,,,,,,,,,,,,,,,,,,,,,,,,,,,,,,,,,,,,,,,,,,,,,,,,,,,,,,,,,,,,,,,,,,,,,,,,,,,,,,,,,,,,,
0,72,72,57,1,,5f5e2b126352f0691ad71e33,62bc03380d9832bba4822fee,2022-06-29_09h46.20.010,Colour_Asymmetry_Pilot,2022.1.3,Win32,144.092219,62bbe60bf3d75ef465d3e404,,,,,,,,,,,,,,,,,,,,,,,,,,,,,,,,,,,,,,,,,,,,,,,,,,,,,,,,,,,,,,,,,,,,,,,,,,,,,,,,,,,,,,,,,,,,,,,,,,,,,,,,,,,,,,,,,,,,,,,,,,,,,,,,,,,,,,,,,,,,,,,,,,,,,,,,,,,,,,
0,73,73,25,1,,5f5e2b126352f0691ad71e33,62bc03380d9832bba4822fee,2022-06-29_09h46.20.010,Colour_Asymmetry_Pilot,2022.1.3,Win32,144.092219,62bbe60bf3d75ef465d3e404,,,,,,,,,,,,,,,,,,,,,,,,,,,,,,,,,,,,,,,,,,,,,,,,,,,,,,,,,,,,,,,,,,,,,,,,,,,,,,,,,,,,,,,,,,,,,,,,,,,,,,,,,,,,,,,,,,,,,,,,,,,,,,,,,,,,,,,,,,,,,,,,,,,,,,,,,,,,,,
0,74,74,34,1,,5f5e2b126352f0691ad71e33,62bc03380d9832bba4822fee,2022-06-29_09h46.20.010,Colour_Asymmetry_Pilot,2022.1.3,Win32,144.092219,62bbe60bf3d75ef465d3e404,,,,,,,,,,,,,,,,,,,,,,,,,,,,,,,,,,,,,,,,,,,,,,,,,,,,,,,,,,,,,,,,,,,,,,,,,,,,,,,,,,,,,,,,,,,,,,,,,,,,,,,,,,,,,,,,,,,,,,,,,,,,,,,,,,,,,,,,,,,,,,,,,,,,,,,,,,,,,,
0,75,75,7,1,,5f5e2b126352f0691ad71e33,62bc03380d9832bba4822fee,2022-06-29_09h46.20.010,Colour_Asymmetry_Pilot,2022.1.3,Win32,144.092219,62bbe60bf3d75ef465d3e404,,,,,,,,,,,,,,,,,,,,,,,,,,,,,,,,,,,,,,,,,,,,,,,,,,,,,,,,,,,,,,,,,,,,,,,,,,,,,,,,,,,,,,,,,,,,,,,,,,,,,,,,,,,,,,,,,,,,,,,,,,,,,,,,,,,,,,,,,,,,,,,,,,,,,,,,,,,,,,
0,76,76,87,1,,5f5e2b126352f0691ad71e33,62bc03380d9832bba4822fee,2022-06-29_09h46.20.010,Colour_Asymmetry_Pilot,2022.1.3,Win32,144.092219,62bbe60bf3d75ef465d3e404,,,,,,,,,,,,,,,,,,,,,,,,,,,,,,,,,,,,,,,,,,,,,,,,,,,,,,,,,,,,,,,,,,,,,,,,,,,,,,,,,,,,,,,,,,,,,,,,,,,,,,,,,,,,,,,,,,,,,,,,,,,,,,,,,,,,,,,,,,,,,,,,,,,,,,,,,,,,,,
0,77,77,27,1,,5f5e2b126352f0691ad71e33,62bc03380d9832bba4822fee,2022-06-29_09h46.20.010,Colour_Asymmetry_Pilot,2022.1.3,Win32,144.092219,62bbe60bf3d75ef465d3e404,,,,,,,,,,,,,,,,,,,,,,,,,,,,,,,,,,,,,,,,,,,,,,,,,,,,,,,,,,,,,,,,,,,,,,,,,,,,,,,,,,,,,,,,,,,,,,,,,,,,,,,,,,,,,,,,,,,,,,,,,,,,,,,,,,,,,,,,,,,,,,,,,,,,,,,,,,,,,,
0,78,78,90,1,,5f5e2b126352f0691ad71e33,62bc03380d9832bba4822fee,2022-06-29_09h46.20.010,Colour_Asymmetry_Pilot,2022.1.3,Win32,144.092219,62bbe60bf3d75ef465d3e404,,,,,,,,,,,,,,,,,,,,,,,,,,,,,,,,,,,,,,,,,,,,,,,,,,,,,,,,,,,,,,,,,,,,,,,,,,,,,,,,,,,,,,,,,,,,,,,,,,,,,,,,,,,,,,,,,,,,,,,,,,,,,,,,,,,,,,,,,,,,,,,,,,,,,,,,,,,,,,
0,79,79,16,1,,5f5e2b126352f0691ad71e33,62bc03380d9832bba4822fee,2022-06-29_09h46.20.010,Colour_Asymmetry_Pilot,2022.1.3,Win32,144.092219,62bbe60bf3d75ef465d3e404,,,,,,,,,,,,,,,,,,,,,,,,,,,,,,,,,,,,,,,,,,,,,,,,,,,,,,,,,,,,,,,,,,,,,,,,,,,,,,,,,,,,,,,,,,,,,,,,,,,,,,,,,,,,,,,,,,,,,,,,,,,,,,,,,,,,,,,,,,,,,,,,,,,,,,,,,,,,,,
0,80,80,13,1,,5f5e2b126352f0691ad71e33,62bc03380d9832bba4822fee,2022-06-29_09h46.20.010,Colour_Asymmetry_Pilot,2022.1.3,Win32,144.092219,62bbe60bf3d75ef465d3e404,,,,,,,,,,,,,,,,,,,,,,,,,,,,,,,,,,,,,,,,,,,,,,,,,,,,,,,,,,,,,,,,,,,,,,,,,,,,,,,,,,,,,,,,,,,,,,,,,,,,,,,,,,,,,,,,,,,,,,,,,,,,,,,,,,,,,,,,,,,,,,,,,,,,,,,,,,,,,,
0,81,81,83,1,,5f5e2b126352f0691ad71e33,62bc03380d9832bba4822fee,2022-06-29_09h46.20.010,Colour_Asymmetry_Pilot,2022.1.3,Win32,144.092219,62bbe60bf3d75ef465d3e404,,,,,,,,,,,,,,,,,,,,,,,,,,,,,,,,,,,,,,,,,,,,,,,,,,,,,,,,,,,,,,,,,,,,,,,,,,,,,,,,,,,,,,,,,,,,,,,,,,,,,,,,,,,,,,,,,,,,,,,,,,,,,,,,,,,,,,,,,,,,,,,,,,,,,,,,,,,,,,
0,82,82,5,1,,5f5e2b126352f0691ad71e33,62bc03380d9832bba4822fee,2022-06-29_09h46.20.010,Colour_Asymmetry_Pilot,2022.1.3,Win32,144.092219,62bbe60bf3d75ef465d3e404,,,,,,,,,,,,,,,,,,,,,,,,,,,,,,,,,,,,,,,,,,,,,,,,,,,,,,,,,,,,,,,,,,,,,,,,,,,,,,,,,,,,,,,,,,,,,,,,,,,,,,,,,,,,,,,,,,,,,,,,,,,,,,,,,,,,,,,,,,,,,,,,,,,,,,,,,,,,,,
0,83,83,12,1,,5f5e2b126352f0691ad71e33,62bc03380d9832bba4822fee,2022-06-29_09h46.20.010,Colour_Asymmetry_Pilot,2022.1.3,Win32,144.092219,62bbe60bf3d75ef465d3e404,,,,,,,,,,,,,,,,,,,,,,,,,,,,,,,,,,,,,,,,,,,,,,,,,,,,,,,,,,,,,,,,,,,,,,,,,,,,,,,,,,,,,,,,,,,,,,,,,,,,,,,,,,,,,,,,,,,,,,,,,,,,,,,,,,,,,,,,,,,,,,,,,,,,,,,,,,,,,,
0,84,84,10,1,,5f5e2b126352f0691ad71e33,62bc03380d9832bba4822fee,2022-06-29_09h46.20.010,Colour_Asymmetry_Pilot,2022.1.3,Win32,144.092219,62bbe60bf3d75ef465d3e404,,,,,,,,,,,,,,,,,,,,,,,,,,,,,,,,,,,,,,,,,,,,,,,,,,,,,,,,,,,,,,,,,,,,,,,,,,,,,,,,,,,,,,,,,,,,,,,,,,,,,,,,,,,,,,,,,,,,,,,,,,,,,,,,,,,,,,,,,,,,,,,,,,,,,,,,,,,,,,
0,85,85,20,1,,5f5e2b126352f0691ad71e33,62bc03380d9832bba4822fee,2022-06-29_09h46.20.010,Colour_Asymmetry_Pilot,2022.1.3,Win32,144.092219,62bbe60bf3d75ef465d3e404,,,,,,,,,,,,,,,,,,,,,,,,,,,,,,,,,,,,,,,,,,,,,,,,,,,,,,,,,,,,,,,,,,,,,,,,,,,,,,,,,,,,,,,,,,,,,,,,,,,,,,,,,,,,,,,,,,,,,,,,,,,,,,,,,,,,,,,,,,,,,,,,,,,,,,,,,,,,,,
0,86,86,48,1,,5f5e2b126352f0691ad71e33,62bc03380d9832bba4822fee,2022-06-29_09h46.20.010,Colour_Asymmetry_Pilot,2022.1.3,Win32,144.092219,62bbe60bf3d75ef465d3e404,,,,,,,,,,,,,,,,,,,,,,,,,,,,,,,,,,,,,,,,,,,,,,,,,,,,,,,,,,,,,,,,,,,,,,,,,,,,,,,,,,,,,,,,,,,,,,,,,,,,,,,,,,,,,,,,,,,,,,,,,,,,,,,,,,,,,,,,,,,,,,,,,,,,,,,,,,,,,,
0,87,87,24,1,,5f5e2b126352f0691ad71e33,62bc03380d9832bba4822fee,2022-06-29_09h46.20.010,Colour_Asymmetry_Pilot,2022.1.3,Win32,144.092219,62bbe60bf3d75ef465d3e404,,,,,,,,,,,,,,,,,,,,,,,,,,,,,,,,,,,,,,,,,,,,,,,,,,,,,,,,,,,,,,,,,,,,,,,,,,,,,,,,,,,,,,,,,,,,,,,,,,,,,,,,,,,,,,,,,,,,,,,,,,,,,,,,,,,,,,,,,,,,,,,,,,,,,,,,,,,,,,
0,88,88,64,1,,5f5e2b126352f0691ad71e33,62bc03380d9832bba4822fee,2022-06-29_09h46.20.010,Colour_Asymmetry_Pilot,2022.1.3,Win32,144.092219,62bbe60bf3d75ef465d3e404,,,,,,,,,,,,,,,,,,,,,,,,,,,,,,,,,,,,,,,,,,,,,,,,,,,,,,,,,,,,,,,,,,,,,,,,,,,,,,,,,,,,,,,,,,,,,,,,,,,,,,,,,,,,,,,,,,,,,,,,,,,,,,,,,,,,,,,,,,,,,,,,,,,,,,,,,,,,,,
0,89,89,80,1,,5f5e2b126352f0691ad71e33,62bc03380d9832bba4822fee,2022-06-29_09h46.20.010,Colour_Asymmetry_Pilot,2022.1.3,Win32,144.092219,62bbe60bf3d75ef465d3e404,,,,,,,,,,,,,,,,,,,,,,,,,,,,,,,,,,,,,,,,,,,,,,,,,,,,,,,,,,,,,,,,,,,,,,,,,,,,,,,,,,,,,,,,,,,,,,,,,,,,,,,,,,,,,,,,,,,,,,,,,,,,,,,,,,,,,,,,,,,,,,,,,,,,,,,,,,,,,,
0,90,90,66,1,,5f5e2b126352f0691ad71e33,62bc03380d9832bba4822fee,2022-06-29_09h46.20.010,Colour_Asymmetry_Pilot,2022.1.3,Win32,144.092219,62bbe60bf3d75ef465d3e404,,,,,,,,,,,,,,,,,,,,,,,,,,,,,,,,,,,,,,,,,,,,,,,,,,,,,,,,,,,,,,,,,,,,,,,,,,,,,,,,,,,,,,,,,,,,,,,,,,,,,,,,,,,,,,,,,,,,,,,,,,,,,,,,,,,,,,,,,,,,,,,,,,,,,,,,,,,,,,
0,91,91,76,1,,5f5e2b126352f0691ad71e33,62bc03380d9832bba4822fee,2022-06-29_09h46.20.010,Colour_Asymmetry_Pilot,2022.1.3,Win32,144.092219,62bbe60bf3d75ef465d3e404,,,,,,,,,,,,,,,,,,,,,,,,,,,,,,,,,,,,,,,,,,,,,,,,,,,,,,,,,,,,,,,,,,,,,,,,,,,,,,,,,,,,,,,,,,,,,,,,,,,,,,,,,,,,,,,,,,,,,,,,,,,,,,,,,,,,,,,,,,,,,,,,,,,,,,,,,,,,,,
0,92,92,31,1,,5f5e2b126352f0691ad71e33,62bc03380d9832bba4822fee,2022-06-29_09h46.20.010,Colour_Asymmetry_Pilot,2022.1.3,Win32,144.092219,62bbe60bf3d75ef465d3e404,,,,,,,,,,,,,,,,,,,,,,,,,,,,,,,,,,,,,,,,,,,,,,,,,,,,,,,,,,,,,,,,,,,,,,,,,,,,,,,,,,,,,,,,,,,,,,,,,,,,,,,,,,,,,,,,,,,,,,,,,,,,,,,,,,,,,,,,,,,,,,,,,,,,,,,,,,,,,,
,,,,,,5f5e2b126352f0691ad71e33,62bc03380d9832bba4822fee,2022-06-29_09h46.20.010,Colour_Asymmetry_Pilot,2022.1.3,Win32,144.092219,62bbe60bf3d75ef465d3e404,0,0,0,54,1,fourtwo,,,,,,,,,,,,,,,,,,,,,,,,,,,,,,,,,,,,,,,,,,,,,,,,,,,,,,,,,,,,,,,,,,,,,,,,,,,,,,,,,,,,,,,,,,,,,,,,,,,,,,,,,,,,,,,,,,,,,,,,,,,,,,,,,,,,,,,,,,,,,,,,,,,,,,,,
,,,,,,5f5e2b126352f0691ad71e33,62bc03380d9832bba4822fee,2022-06-29_09h46.20.010,Colour_Asymmetry_Pilot,2022.1.3,Win32,144.092219,62bbe60bf3d75ef465d3e404,0,1,1,15,1,fourthree,,,,,,,,,,,,,,,,,,,,,,,,,,,,,,,,,,,,,,,,,,,,,,,,,,,,,,,,,,,,,,,,,,,,,,,,,,,,,,,,,,,,,,,,,,,,,,,,,,,,,,,,,,,,,,,,,,,,,,,,,,,,,,,,,,,,,,,,,,,,,,,,,,,,,,,,
,,,,,,5f5e2b126352f0691ad71e33,62bc03380d9832bba4822fee,2022-06-29_09h46.20.010,Colour_Asymmetry_Pilot,2022.1.3,Win32,144.092219,62bbe60bf3d75ef465d3e404,0,2,2,40,1,onetwo,,,,,,,,,,,,,,,,,,,,,,,,,,,,,,,,,,,,,,,,,,,,,,,,,,,,,,,,,,,,,,,,,,,,,,,,,,,,,,,,,,,,,,,,,,,,,,,,,,,,,,,,,,,,,,,,,,,,,,,,,,,,,,,,,,,,,,,,,,,,,,,,,,,,,,,,
,,,,,,5f5e2b126352f0691ad71e33,62bc03380d9832bba4822fee,2022-06-29_09h46.20.010,Colour_Asymmetry_Pilot,2022.1.3,Win32,144.092219,62bbe60bf3d75ef465d3e404,0,3,3,107,1,twofour,,,,,,,,,,,,,,,,,,,,,,,,,,,,,,,,,,,,,,,,,,,,,,,,,,,,,,,,,,,,,,,,,,,,,,,,,,,,,,,,,,,,,,,,,,,,,,,,,,,,,,,,,,,,,,,,,,,,,,,,,,,,,,,,,,,,,,,,,,,,,,,,,,,,,,,,
,,,,,,5f5e2b126352f0691ad71e33,62bc03380d9832bba4822fee,2022-06-29_09h46.20.010,Colour_Asymmetry_Pilot,2022.1.3,Win32,144.092219,62bbe60bf3d75ef465d3e404,0,4,4,154,1,twoone,,,,,,,,,,,,,,,,,,,,,,,,,,,,,,,,,,,,,,,,,,,,,,,,,,,,,,,,,,,,,,,,,,,,,,,,,,,,,,,,,,,,,,,,,,,,,,,,,,,,,,,,,,,,,,,,,,,,,,,,,,,,,,,,,,,,,,,,,,,,,,,,,,,,,,,,
,,,,,,5f5e2b126352f0691ad71e33,62bc03380d9832bba4822fee,2022-06-29_09h46.20.010,Colour_Asymmetry_Pilot,2022.1.3,Win32,144.092219,62bbe60bf3d75ef465d3e404,0,5,5,76,1,threeone,,,,,,,,,,,,,,,,,,,,,,,,,,,,,,,,,,,,,,,,,,,,,,,,,,,,,,,,,,,,,,,,,,,,,,,,,,,,,,,,,,,,,,,,,,,,,,,,,,,,,,,,,,,,,,,,,,,,,,,,,,,,,,,,,,,,,,,,,,,,,,,,,,,,,,,,
,,,,,,5f5e2b126352f0691ad71e33,62bc03380d9832bba4822fee,2022-06-29_09h46.20.010,Colour_Asymmetry_Pilot,2022.1.3,Win32,144.092219,62bbe60bf3d75ef465d3e404,0,6,6,114,1,twoone,,,,,,,,,,,,,,,,,,,,,,,,,,,,,,,,,,,,,,,,,,,,,,,,,,,,,,,,,,,,,,,,,,,,,,,,,,,,,,,,,,,,,,,,,,,,,,,,,,,,,,,,,,,,,,,,,,,,,,,,,,,,,,,,,,,,,,,,,,,,,,,,,,,,,,,,
,,,,,,5f5e2b126352f0691ad71e33,62bc03380d9832bba4822fee,2022-06-29_09h46.20.010,Colour_Asymmetry_Pilot,2022.1.3,Win32,144.092219,62bbe60bf3d75ef465d3e404,0,7,7,34,1,twoone,,,,,,,,,,,,,,,,,,,,,,,,,,,,,,,,,,,,,,,,,,,,,,,,,,,,,,,,,,,,,,,,,,,,,,,,,,,,,,,,,,,,,,,,,,,,,,,,,,,,,,,,,,,,,,,,,,,,,,,,,,,,,,,,,,,,,,,,,,,,,,,,,,,,,,,,
,,,,,,5f5e2b126352f0691ad71e33,62bc03380d9832bba4822fee,2022-06-29_09h46.20.010,Colour_Asymmetry_Pilot,2022.1.3,Win32,144.092219,62bbe60bf3d75ef465d3e404,0,8,8,103,1,fourthree,,,,,,,,,,,,,,,,,,,,,,,,,,,,,,,,,,,,,,,,,,,,,,,,,,,,,,,,,,,,,,,,,,,,,,,,,,,,,,,,,,,,,,,,,,,,,,,,,,,,,,,,,,,,,,,,,,,,,,,,,,,,,,,,,,,,,,,,,,,,,,,,,,,,,,,,
,,,,,,5f5e2b126352f0691ad71e33,62bc03380d9832bba4822fee,2022-06-29_09h46.20.010,Colour_Asymmetry_Pilot,2022.1.3,Win32,144.092219,62bbe60bf3d75ef465d3e404,0,9,9,131,1,twofour,,,,,,,,,,,,,,,,,,,,,,,,,,,,,,,,,,,,,,,,,,,,,,,,,,,,,,,,,,,,,,,,,,,,,,,,,,,,,,,,,,,,,,,,,,,,,,,,,,,,,,,,,,,,,,,,,,,,,,,,,,,,,,,,,,,,,,,,,,,,,,,,,,,,,,,,
,,,,,,5f5e2b126352f0691ad71e33,62bc03380d9832bba4822fee,2022-06-29_09h46.20.010,Colour_Asymmetry_Pilot,2022.1.3,Win32,144.092219,62bbe60bf3d75ef465d3e404,0,10,10,113,1,onethree,,,,,,,,,,,,,,,,,,,,,,,,,,,,,,,,,,,,,,,,,,,,,,,,,,,,,,,,,,,,,,,,,,,,,,,,,,,,,,,,,,,,,,,,,,,,,,,,,,,,,,,,,,,,,,,,,,,,,,,,,,,,,,,,,,,,,,,,,,,,,,,,,,,,,,,,
,,,,,,5f5e2b126352f0691ad71e33,62bc03380d9832bba4822fee,2022-06-29_09h46.20.010,Colour_Asymmetry_Pilot,2022.1.3,Win32,144.092219,62bbe60bf3d75ef465d3e404,0,11,11,11,1,twofour,,,,,,,,,,,,,,,,,,,,,,,,,,,,,,,,,,,,,,,,,,,,,,,,,,,,,,,,,,,,,,,,,,,,,,,,,,,,,,,,,,,,,,,,,,,,,,,,,,,,,,,,,,,,,,,,,,,,,,,,,,,,,,,,,,,,,,,,,,,,,,,,,,,,,,,,
,,,,,,5f5e2b126352f0691ad71e33,62bc03380d9832bba4822fee,2022-06-29_09h46.20.010,Colour_Asymmetry_Pilot,2022.1.3,Win32,144.092219,62bbe60bf3d75ef465d3e404,0,12,12,21,1,threefour,,,,,,,,,,,,,,,,,,,,,,,,,,,,,,,,,,,,,,,,,,,,,,,,,,,,,,,,,,,,,,,,,,,,,,,,,,,,,,,,,,,,,,,,,,,,,,,,,,,,,,,,,,,,,,,,,,,,,,,,,,,,,,,,,,,,,,,,,,,,,,,,,,,,,,,,
,,,,,,5f5e2b126352f0691ad71e33,62bc03380d9832bba4822fee,2022-06-29_09h46.20.010,Colour_Asymmetry_Pilot,2022.1.3,Win32,144.092219,62bbe60bf3d75ef465d3e404,0,13,13,57,1,onethree,,,,,,,,,,,,,,,,,,,,,,,,,,,,,,,,,,,,,,,,,,,,,,,,,,,,,,,,,,,,,,,,,,,,,,,,,,,,,,,,,,,,,,,,,,,,,,,,,,,,,,,,,,,,,,,,,,,,,,,,,,,,,,,,,,,,,,,,,,,,,,,,,,,,,,,,
,,,,,,5f5e2b126352f0691ad71e33,62bc03380d9832bba4822fee,2022-06-29_09h46.20.010,Colour_Asymmetry_Pilot,2022.1.3,Win32,144.092219,62bbe60bf3d75ef465d3e404,0,14,14,9,1,onethree,,,,,,,,,,,,,,,,,,,,,,,,,,,,,,,,,,,,,,,,,,,,,,,,,,,,,,,,,,,,,,,,,,,,,,,,,,,,,,,,,,,,,,,,,,,,,,,,,,,,,,,,,,,,,,,,,,,,,,,,,,,,,,,,,,,,,,,,,,,,,,,,,,,,,,,,
,,,,,,5f5e2b126352f0691ad71e33,62bc03380d9832bba4822fee,2022-06-29_09h46.20.010,Colour_Asymmetry_Pilot,2022.1.3,Win32,144.092219,62bbe60bf3d75ef465d3e404,0,15,15,84,1,threeone,,,,,,,,,,,,,,,,,,,,,,,,,,,,,,,,,,,,,,,,,,,,,,,,,,,,,,,,,,,,,,,,,,,,,,,,,,,,,,,,,,,,,,,,,,,,,,,,,,,,,,,,,,,,,,,,,,,,,,,,,,,,,,,,,,,,,,,,,,,,,,,,,,,,,,,,
,,,,,,5f5e2b126352f0691ad71e33,62bc03380d9832bba4822fee,2022-06-29_09h46.20.010,Colour_Asymmetry_Pilot,2022.1.3,Win32,144.092219,62bbe60bf3d75ef465d3e404,0,16,16,48,1,onetwo,,,,,,,,,,,,,,,,,,,,,,,,,,,,,,,,,,,,,,,,,,,,,,,,,,,,,,,,,,,,,,,,,,,,,,,,,,,,,,,,,,,,,,,,,,,,,,,,,,,,,,,,,,,,,,,,,,,,,,,,,,,,,,,,,,,,,,,,,,,,,,,,,,,,,,,,
,,,,,,5f5e2b126352f0691ad71e33,62bc03380d9832bba4822fee,2022-06-29_09h46.20.010,Colour_Asymmetry_Pilot,2022.1.3,Win32,144.092219,62bbe60bf3d75ef465d3e404,0,17,17,130,1,twoone,,,,,,,,,,,,,,,,,,,,,,,,,,,,,,,,,,,,,,,,,,,,,,,,,,,,,,,,,,,,,,,,,,,,,,,,,,,,,,,,,,,,,,,,,,,,,,,,,,,,,,,,,,,,,,,,,,,,,,,,,,,,,,,,,,,,,,,,,,,,,,,,,,,,,,,,
,,,,,,5f5e2b126352f0691ad71e33,62bc03380d9832bba4822fee,2022-06-29_09h46.20.010,Colour_Asymmetry_Pilot,2022.1.3,Win32,144.092219,62bbe60bf3d75ef465d3e404,0,18,18,122,1,twoone,,,,,,,,,,,,,,,,,,,,,,,,,,,,,,,,,,,,,,,,,,,,,,,,,,,,,,,,,,,,,,,,,,,,,,,,,,,,,,,,,,,,,,,,,,,,,,,,,,,,,,,,,,,,,,,,,,,,,,,,,,,,,,,,,,,,,,,,,,,,,,,,,,,,,,,,
,,,,,,5f5e2b126352f0691ad71e33,62bc03380d9832bba4822fee,2022-06-29_09h46.20.010,Colour_Asymmetry_Pilot,2022.1.3,Win32,144.092219,62bbe60bf3d75ef465d3e404,0,19,19,137,1,onethree,,,,,,,,,,,,,,,,,,,,,,,,,,,,,,,,,,,,,,,,,,,,,,,,,,,,,,,,,,,,,,,,,,,,,,,,,,,,,,,,,,,,,,,,,,,,,,,,,,,,,,,,,,,,,,,,,,,,,,,,,,,,,,,,,,,,,,,,,,,,,,,,,,,,,,,,
,,,,,,5f5e2b126352f0691ad71e33,62bc03380d9832bba4822fee,2022-06-29_09h46.20.010,Colour_Asymmetry_Pilot,2022.1.3,Win32,144.092219,62bbe60bf3d75ef465d3e404,0,20,20,4,1,threeone,,,,,,,,,,,,,,,,,,,,,,,,,,,,,,,,,,,,,,,,,,,,,,,,,,,,,,,,,,,,,,,,,,,,,,,,,,,,,,,,,,,,,,,,,,,,,,,,,,,,,,,,,,,,,,,,,,,,,,,,,,,,,,,,,,,,,,,,,,,,,,,,,,,,,,,,
,,,,,,5f5e2b126352f0691ad71e33,62bc03380d9832bba4822fee,2022-06-29_09h46.20.010,Colour_Asymmetry_Pilot,2022.1.3,Win32,144.092219,62bbe60bf3d75ef465d3e404,0,21,21,99,1,twofour,,,,,,,,,,,,,,,,,,,,,,,,,,,,,,,,,,,,,,,,,,,,,,,,,,,,,,,,,,,,,,,,,,,,,,,,,,,,,,,,,,,,,,,,,,,,,,,,,,,,,,,,,,,,,,,,,,,,,,,,,,,,,,,,,,,,,,,,,,,,,,,,,,,,,,,,
,,,,,,5f5e2b126352f0691ad71e33,62bc03380d9832bba4822fee,2022-06-29_09h46.20.010,Colour_Asymmetry_Pilot,2022.1.3,Win32,144.092219,62bbe60bf3d75ef465d3e404,0,22,22,105,1,onethree,,,,,,,,,,,,,,,,,,,,,,,,,,,,,,,,,,,,,,,,,,,,,,,,,,,,,,,,,,,,,,,,,,,,,,,,,,,,,,,,,,,,,,,,,,,,,,,,,,,,,,,,,,,,,,,,,,,,,,,,,,,,,,,,,,,,,,,,,,,,,,,,,,,,,,,,
,,,,,,5f5e2b126352f0691ad71e33,62bc03380d9832bba4822fee,2022-06-29_09h46.20.010,Colour_Asymmetry_Pilot,2022.1.3,Win32,144.092219,62bbe60bf3d75ef465d3e404,0,23,23,41,1,onethree,,,,,,,,,,,,,,,,,,,,,,,,,,,,,,,,,,,,,,,,,,,,,,,,,,,,,,,,,,,,,,,,,,,,,,,,,,,,,,,,,,,,,,,,,,,,,,,,,,,,,,,,,,,,,,,,,,,,,,,,,,,,,,,,,,,,,,,,,,,,,,,,,,,,,,,,
,,,,,,5f5e2b126352f0691ad71e33,62bc03380d9832bba4822fee,2022-06-29_09h46.20.010,Colour_Asymmetry_Pilot,2022.1.3,Win32,144.092219,62bbe60bf3d75ef465d3e404,0,24,24,101,1,threefour,,,,,,,,,,,,,,,,,,,,,,,,,,,,,,,,,,,,,,,,,,,,,,,,,,,,,,,,,,,,,,,,,,,,,,,,,,,,,,,,,,,,,,,,,,,,,,,,,,,,,,,,,,,,,,,,,,,,,,,,,,,,,,,,,,,,,,,,,,,,,,,,,,,,,,,,
,,,,,,5f5e2b126352f0691ad71e33,62bc03380d9832bba4822fee,2022-06-29_09h46.20.010,Colour_Asymmetry_Pilot,2022.1.3,Win32,144.092219,62bbe60bf3d75ef465d3e404,0,25,25,135,1,fourthree,,,,,,,,,,,,,,,,,,,,,,,,,,,,,,,,,,,,,,,,,,,,,,,,,,,,,,,,,,,,,,,,,,,,,,,,,,,,,,,,,,,,,,,,,,,,,,,,,,,,,,,,,,,,,,,,,,,,,,,,,,,,,,,,,,,,,,,,,,,,,,,,,,,,,,,,
,,,,,,5f5e2b126352f0691ad71e33,62bc03380d9832bba4822fee,2022-06-29_09h46.20.010,Colour_Asymmetry_Pilot,2022.1.3,Win32,144.092219,62bbe60bf3d75ef465d3e404,0,26,26,148,1,threeone,,,,,,,,,,,,,,,,,,,,,,,,,,,,,,,,,,,,,,,,,,,,,,,,,,,,,,,,,,,,,,,,,,,,,,,,,,,,,,,,,,,,,,,,,,,,,,,,,,,,,,,,,,,,,,,,,,,,,,,,,,,,,,,,,,,,,,,,,,,,,,,,,,,,,,,,
,,,,,,5f5e2b126352f0691ad71e33,62bc03380d9832bba4822fee,2022-06-29_09h46.20.010,Colour_Asymmetry_Pilot,2022.1.3,Win32,144.092219,62bbe60bf3d75ef465d3e404,0,27,27,46,1,fourtwo,,,,,,,,,,,,,,,,,,,,,,,,,,,,,,,,,,,,,,,,,,,,,,,,,,,,,,,,,,,,,,,,,,,,,,,,,,,,,,,,,,,,,,,,,,,,,,,,,,,,,,,,,,,,,,,,,,,,,,,,,,,,,,,,,,,,,,,,,,,,,,,,,,,,,,,,
,,,,,,5f5e2b126352f0691ad71e33,62bc03380d9832bba4822fee,2022-06-29_09h46.20.010,Colour_Asymmetry_Pilot,2022.1.3,Win32,144.092219,62bbe60bf3d75ef465d3e404,0,28,28,23,1,fourthree,,,,,,,,,,,,,,,,,,,,,,,,,,,,,,,,,,,,,,,,,,,,,,,,,,,,,,,,,,,,,,,,,,,,,,,,,,,,,,,,,,,,,,,,,,,,,,,,,,,,,,,,,,,,,,,,,,,,,,,,,,,,,,,,,,,,,,,,,,,,,,,,,,,,,,,,
,,,,,,5f5e2b126352f0691ad71e33,62bc03380d9832bba4822fee,2022-06-29_09h46.20.010,Colour_Asymmetry_Pilot,2022.1.3,Win32,144.092219,62bbe60bf3d75ef465d3e404,0,29,29,24,1,onetwo,,,,,,,,,,,,,,,,,,,,,,,,,,,,,,,,,,,,,,,,,,,,,,,,,,,,,,,,,,,,,,,,,,,,,,,,,,,,,,,,,,,,,,,,,,,,,,,,,,,,,,,,,,,,,,,,,,,,,,,,,,,,,,,,,,,,,,,,,,,,,,,,,,,,,,,,
,,,,,,5f5e2b126352f0691ad71e33,62bc03380d9832bba4822fee,2022-06-29_09h46.20.010,Colour_Asymmetry_Pilot,2022.1.3,Win32,144.092219,62bbe60bf3d75ef465d3e404,0,30,30,37,1,threefour,,,,,,,,,,,,,,,,,,,,,,,,,,,,,,,,,,,,,,,,,,,,,,,,,,,,,,,,,,,,,,,,,,,,,,,,,,,,,,,,,,,,,,,,,,,,,,,,,,,,,,,,,,,,,,,,,,,,,,,,,,,,,,,,,,,,,,,,,,,,,,,,,,,,,,,,
,,,,,,5f5e2b126352f0691ad71e33,62bc03380d9832bba4822fee,2022-06-29_09h46.20.010,Colour_Asymmetry_Pilot,2022.1.3,Win32,144.092219,62bbe60bf3d75ef465d3e404,0,31,31,147,1,twofour,,,,,,,,,,,,,,,,,,,,,,,,,,,,,,,,,,,,,,,,,,,,,,,,,,,,,,,,,,,,,,,,,,,,,,,,,,,,,,,,,,,,,,,,,,,,,,,,,,,,,,,,,,,,,,,,,,,,,,,,,,,,,,,,,,,,,,,,,,,,,,,,,,,,,,,,
,,,,,,5f5e2b126352f0691ad71e33,62bc03380d9832bba4822fee,2022-06-29_09h46.20.010,Colour_Asymmetry_Pilot,2022.1.3,Win32,144.092219,62bbe60bf3d75ef465d3e404,0,32,32,42,1,twoone,,,,,,,,,,,,,,,,,,,,,,,,,,,,,,,,,,,,,,,,,,,,,,,,,,,,,,,,,,,,,,,,,,,,,,,,,,,,,,,,,,,,,,,,,,,,,,,,,,,,,,,,,,,,,,,,,,,,,,,,,,,,,,,,,,,,,,,,,,,,,,,,,,,,,,,,
,,,,,,5f5e2b126352f0691ad71e33,62bc03380d9832bba4822fee,2022-06-29_09h46.20.010,Colour_Asymmetry_Pilot,2022.1.3,Win32,144.092219,62bbe60bf3d75ef465d3e404,0,33,33,155,1,twofour,,,,,,,,,,,,,,,,,,,,,,,,,,,,,,,,,,,,,,,,,,,,,,,,,,,,,,,,,,,,,,,,,,,,,,,,,,,,,,,,,,,,,,,,,,,,,,,,,,,,,,,,,,,,,,,,,,,,,,,,,,,,,,,,,,,,,,,,,,,,,,,,,,,,,,,,
,,,,,,5f5e2b126352f0691ad71e33,62bc03380d9832bba4822fee,2022-06-29_09h46.20.010,Colour_Asymmetry_Pilot,2022.1.3,Win32,144.092219,62bbe60bf3d75ef465d3e404,0,34,34,10,1,twoone,,,,,,,,,,,,,,,,,,,,,,,,,,,,,,,,,,,,,,,,,,,,,,,,,,,,,,,,,,,,,,,,,,,,,,,,,,,,,,,,,,,,,,,,,,,,,,,,,,,,,,,,,,,,,,,,,,,,,,,,,,,,,,,,,,,,,,,,,,,,,,,,,,,,,,,,
,,,,,,5f5e2b126352f0691ad71e33,62bc03380d9832bba4822fee,2022-06-29_09h46.20.010,Colour_Asymmetry_Pilot,2022.1.3,Win32,144.092219,62bbe60bf3d75ef465d3e404,0,35,35,28,1,threeone,,,,,,,,,,,,,,,,,,,,,,,,,,,,,,,,,,,,,,,,,,,,,,,,,,,,,,,,,,,,,,,,,,,,,,,,,,,,,,,,,,,,,,,,,,,,,,,,,,,,,,,,,,,,,,,,,,,,,,,,,,,,,,,,,,,,,,,,,,,,,,,,,,,,,,,,
,,,,,,5f5e2b126352f0691ad71e33,62bc03380d9832bba4822fee,2022-06-29_09h46.20.010,Colour_Asymmetry_Pilot,2022.1.3,Win32,144.092219,62bbe60bf3d75ef465d3e404,0,36,36,66,1,twoone,,,,,,,,,,,,,,,,,,,,,,,,,,,,,,,,,,,,,,,,,,,,,,,,,,,,,,,,,,,,,,,,,,,,,,,,,,,,,,,,,,,,,,,,,,,,,,,,,,,,,,,,,,,,,,,,,,,,,,,,,,,,,,,,,,,,,,,,,,,,,,,,,,,,,,,,
,,,,,,5f5e2b126352f0691ad71e33,62bc03380d9832bba4822fee,2022-06-29_09h46.20.010,Colour_Asymmetry_Pilot,2022.1.3,Win32,144.092219,62bbe60bf3d75ef465d3e404,0,37,37,55,1,fourthree,,,,,,,,,,,,,,,,,,,,,,,,,,,,,,,,,,,,,,,,,,,,,,,,,,,,,,,,,,,,,,,,,,,,,,,,,,,,,,,,,,,,,,,,,,,,,,,,,,,,,,,,,,,,,,,,,,,,,,,,,,,,,,,,,,,,,,,,,,,,,,,,,,,,,,,,
,,,,,,5f5e2b126352f0691ad71e33,62bc03380d9832bba4822fee,2022-06-29_09h46.20.010,Colour_Asymmetry_Pilot,2022.1.3,Win32,144.092219,62bbe60bf3d75ef465d3e404,0,38,38,36,1,threeone,,,,,,,,,,,,,,,,,,,,,,,,,,,,,,,,,,,,,,,,,,,,,,,,,,,,,,,,,,,,,,,,,,,,,,,,,,,,,,,,,,,,,,,,,,,,,,,,,,,,,,,,,,,,,,,,,,,,,,,,,,,,,,,,,,,,,,,,,,,,,,,,,,,,,,,,
,,,,,,5f5e2b126352f0691ad71e33,62bc03380d9832bba4822fee,2022-06-29_09h46.20.010,Colour_Asymmetry_Pilot,2022.1.3,Win32,144.092219,62bbe60bf3d75ef465d3e404,0,39,39,133,1,threefour,,,,,,,,,,,,,,,,,,,,,,,,,,,,,,,,,,,,,,,,,,,,,,,,,,,,,,,,,,,,,,,,,,,,,,,,,,,,,,,,,,,,,,,,,,,,,,,,,,,,,,,,,,,,,,,,,,,,,,,,,,,,,,,,,,,,,,,,,,,,,,,,,,,,,,,,
,,,,,,5f5e2b126352f0691ad71e33,62bc03380d9832bba4822fee,2022-06-29_09h46.20.010,Colour_Asymmetry_Pilot,2022.1.3,Win32,144.092219,62bbe60bf3d75ef465d3e404,0,40,40,132,1,threeone,,,,,,,,,,,,,,,,,,,,,,,,,,,,,,,,,,,,,,,,,,,,,,,,,,,,,,,,,,,,,,,,,,,,,,,,,,,,,,,,,,,,,,,,,,,,,,,,,,,,,,,,,,,,,,,,,,,,,,,,,,,,,,,,,,,,,,,,,,,,,,,,,,,,,,,,
,,,,,,5f5e2b126352f0691ad71e33,62bc03380d9832bba4822fee,2022-06-29_09h46.20.010,Colour_Asymmetry_Pilot,2022.1.3,Win32,144.092219,62bbe60bf3d75ef465d3e404,0,41,41,97,1,onethree,,,,,,,,,,,,,,,,,,,,,,,,,,,,,,,,,,,,,,,,,,,,,,,,,,,,,,,,,,,,,,,,,,,,,,,,,,,,,,,,,,,,,,,,,,,,,,,,,,,,,,,,,,,,,,,,,,,,,,,,,,,,,,,,,,,,,,,,,,,,,,,,,,,,,,,,
,,,,,,5f5e2b126352f0691ad71e33,62bc03380d9832bba4822fee,2022-06-29_09h46.20.010,Colour_Asymmetry_Pilot,2022.1.3,Win32,144.092219,62bbe60bf3d75ef465d3e404,0,42,42,25,1,onethree,,,,,,,,,,,,,,,,,,,,,,,,,,,,,,,,,,,,,,,,,,,,,,,,,,,,,,,,,,,,,,,,,,,,,,,,,,,,,,,,,,,,,,,,,,,,,,,,,,,,,,,,,,,,,,,,,,,,,,,,,,,,,,,,,,,,,,,,,,,,,,,,,,,,,,,,
,,,,,,5f5e2b126352f0691ad71e33,62bc03380d9832bba4822fee,2022-06-29_09h46.20.010,Colour_Asymmetry_Pilot,2022.1.3,Win32,144.092219,62bbe60bf3d75ef465d3e404,0,43,43,18,1,twoone,,,,,,,,,,,,,,,,,,,,,,,,,,,,,,,,,,,,,,,,,,,,,,,,,,,,,,,,,,,,,,,,,,,,,,,,,,,,,,,,,,,,,,,,,,,,,,,,,,,,,,,,,,,,,,,,,,,,,,,,,,,,,,,,,,,,,,,,,,,,,,,,,,,,,,,,
,,,,,,5f5e2b126352f0691ad71e33,62bc03380d9832bba4822fee,2022-06-29_09h46.20.010,Colour_Asymmetry_Pilot,2022.1.3,Win32,144.092219,62bbe60bf3d75ef465d3e404,0,44,44,58,1,twoone,,,,,,,,,,,,,,,,,,,,,,,,,,,,,,,,,,,,,,,,,,,,,,,,,,,,,,,,,,,,,,,,,,,,,,,,,,,,,,,,,,,,,,,,,,,,,,,,,,,,,,,,,,,,,,,,,,,,,,,,,,,,,,,,,,,,,,,,,,,,,,,,,,,,,,,,
,,,,,,5f5e2b126352f0691ad71e33,62bc03380d9832bba4822fee,2022-06-29_09h46.20.010,Colour_Asymmetry_Pilot,2022.1.3,Win32,144.092219,62bbe60bf3d75ef465d3e404,0,45,45,39,1,fourthree,,,,,,,,,,,,,,,,,,,,,,,,,,,,,,,,,,,,,,,,,,,,,,,,,,,,,,,,,,,,,,,,,,,,,,,,,,,,,,,,,,,,,,,,,,,,,,,,,,,,,,,,,,,,,,,,,,,,,,,,,,,,,,,,,,,,,,,,,,,,,,,,,,,,,,,,
,,,,,,5f5e2b126352f0691ad71e33,62bc03380d9832bba4822fee,2022-06-29_09h46.20.010,Colour_Asymmetry_Pilot,2022.1.3,Win32,144.092219,62bbe60bf3d75ef465d3e404,0,46,46,13,1,threefour,,,,,,,,,,,,,,,,,,,,,,,,,,,,,,,,,,,,,,,,,,,,,,,,,,,,,,,,,,,,,,,,,,,,,,,,,,,,,,,,,,,,,,,,,,,,,,,,,,,,,,,,,,,,,,,,,,,,,,,,,,,,,,,,,,,,,,,,,,,,,,,,,,,,,,,,
,,,,,,5f5e2b126352f0691ad71e33,62bc03380d9832bba4822fee,2022-06-29_09h46.20.010,Colour_Asymmetry_Pilot,2022.1.3,Win32,144.092219,62bbe60bf3d75ef465d3e404,0,47,47,91,1,twofour,,,,,,,,,,,,,,,,,,,,,,,,,,,,,,,,,,,,,,,,,,,,,,,,,,,,,,,,,,,,,,,,,,,,,,,,,,,,,,,,,,,,,,,,,,,,,,,,,,,,,,,,,,,,,,,,,,,,,,,,,,,,,,,,,,,,,,,,,,,,,,,,,,,,,,,,
,,,,,,5f5e2b126352f0691ad71e33,62bc03380d9832bba4822fee,2022-06-29_09h46.20.010,Colour_Asymmetry_Pilot,2022.1.3,Win32,144.092219,62bbe60bf3d75ef465d3e404,0,48,48,64,1,onetwo,,,,,,,,,,,,,,,,,,,,,,,,,,,,,,,,,,,,,,,,,,,,,,,,,,,,,,,,,,,,,,,,,,,,,,,,,,,,,,,,,,,,,,,,,,,,,,,,,,,,,,,,,,,,,,,,,,,,,,,,,,,,,,,,,,,,,,,,,,,,,,,,,,,,,,,,
,,,,,,5f5e2b126352f0691ad71e33,62bc03380d9832bba4822fee,2022-06-29_09h46.20.010,Colour_Asymmetry_Pilot,2022.1.3,Win32,144.092219,62bbe60bf3d75ef465d3e404,0,49,49,0,1,onetwo,,,,,,,,,,,,,,,,,,,,,,,,,,,,,,,,,,,,,,,,,,,,,,,,,,,,,,,,,,,,,,,,,,,,,,,,,,,,,,,,,,,,,,,,,,,,,,,,,,,,,,,,,,,,,,,,,,,,,,,,,,,,,,,,,,,,,,,,,,,,,,,,,,,,,,,,
,,,,,,5f5e2b126352f0691ad71e33,62bc03380d9832bba4822fee,2022-06-29_09h46.20.010,Colour_Asymmetry_Pilot,2022.1.3,Win32,144.092219,62bbe60bf3d75ef465d3e404,0,50,50,89,1,onethree,,,,,,,,,,,,,,,,,,,,,,,,,,,,,,,,,,,,,,,,,,,,,,,,,,,,,,,,,,,,,,,,,,,,,,,,,,,,,,,,,,,,,,,,,,,,,,,,,,,,,,,,,,,,,,,,,,,,,,,,,,,,,,,,,,,,,,,,,,,,,,,,,,,,,,,,
,,,,,,5f5e2b126352f0691ad71e33,62bc03380d9832bba4822fee,2022-06-29_09h46.20.010,Colour_Asymmetry_Pilot,2022.1.3,Win32,144.092219,62bbe60bf3d75ef465d3e404,0,51,51,149,1,threefour,,,,,,,,,,,,,,,,,,,,,,,,,,,,,,,,,,,,,,,,,,,,,,,,,,,,,,,,,,,,,,,,,,,,,,,,,,,,,,,,,,,,,,,,,,,,,,,,,,,,,,,,,,,,,,,,,,,,,,,,,,,,,,,,,,,,,,,,,,,,,,,,,,,,,,,,
,,,,,,5f5e2b126352f0691ad71e33,62bc03380d9832bba4822fee,2022-06-29_09h46.20.010,Colour_Asymmetry_Pilot,2022.1.3,Win32,144.092219,62bbe60bf3d75ef465d3e404,0,52,52,145,1,onethree,,,,,,,,,,,,,,,,,,,,,,,,,,,,,,,,,,,,,,,,,,,,,,,,,,,,,,,,,,,,,,,,,,,,,,,,,,,,,,,,,,,,,,,,,,,,,,,,,,,,,,,,,,,,,,,,,,,,,,,,,,,,,,,,,,,,,,,,,,,,,,,,,,,,,,,,
,,,,,,5f5e2b126352f0691ad71e33,62bc03380d9832bba4822fee,2022-06-29_09h46.20.010,Colour_Asymmetry_Pilot,2022.1.3,Win32,144.092219,62bbe60bf3d75ef465d3e404,0,53,53,134,1,fourtwo,,,,,,,,,,,,,,,,,,,,,,,,,,,,,,,,,,,,,,,,,,,,,,,,,,,,,,,,,,,,,,,,,,,,,,,,,,,,,,,,,,,,,,,,,,,,,,,,,,,,,,,,,,,,,,,,,,,,,,,,,,,,,,,,,,,,,,,,,,,,,,,,,,,,,,,,
,,,,,,5f5e2b126352f0691ad71e33,62bc03380d9832bba4822fee,2022-06-29_09h46.20.010,Colour_Asymmetry_Pilot,2022.1.3,Win32,144.092219,62bbe60bf3d75ef465d3e404,0,54,54,16,1,onetwo,,,,,,,,,,,,,,,,,,,,,,,,,,,,,,,,,,,,,,,,,,,,,,,,,,,,,,,,,,,,,,,,,,,,,,,,,,,,,,,,,,,,,,,,,,,,,,,,,,,,,,,,,,,,,,,,,,,,,,,,,,,,,,,,,,,,,,,,,,,,,,,,,,,,,,,,
,,,,,,5f5e2b126352f0691ad71e33,62bc03380d9832bba4822fee,2022-06-29_09h46.20.010,Colour_Asymmetry_Pilot,2022.1.3,Win32,144.092219,62bbe60bf3d75ef465d3e404,0,55,55,120,1,onetwo,,,,,,,,,,,,,,,,,,,,,,,,,,,,,,,,,,,,,,,,,,,,,,,,,,,,,,,,,,,,,,,,,,,,,,,,,,,,,,,,,,,,,,,,,,,,,,,,,,,,,,,,,,,,,,,,,,,,,,,,,,,,,,,,,,,,,,,,,,,,,,,,,,,,,,,,
,,,,,,5f5e2b126352f0691ad71e33,62bc03380d9832bba4822fee,2022-06-29_09h46.20.010,Colour_Asymmetry_Pilot,2022.1.3,Win32,144.092219,62bbe60bf3d75ef465d3e404,0,56,56,117,1,threefour,,,,,,,,,,,,,,,,,,,,,,,,,,,,,,,,,,,,,,,,,,,,,,,,,,,,,,,,,,,,,,,,,,,,,,,,,,,,,,,,,,,,,,,,,,,,,,,,,,,,,,,,,,,,,,,,,,,,,,,,,,,,,,,,,,,,,,,,,,,,,,,,,,,,,,,,
,,,,,,5f5e2b126352f0691ad71e33,62bc03380d9832bba4822fee,2022-06-29_09h46.20.010,Colour_Asymmetry_Pilot,2022.1.3,Win32,144.092219,62bbe60bf3d75ef465d3e404,0,57,57,88,1,onetwo,,,,,,,,,,,,,,,,,,,,,,,,,,,,,,,,,,,,,,,,,,,,,,,,,,,,,,,,,,,,,,,,,,,,,,,,,,,,,,,,,,,,,,,,,,,,,,,,,,,,,,,,,,,,,,,,,,,,,,,,,,,,,,,,,,,,,,,,,,,,,,,,,,,,,,,,
,,,,,,5f5e2b126352f0691ad71e33,62bc03380d9832bba4822fee,2022-06-29_09h46.20.010,Colour_Asymmetry_Pilot,2022.1.3,Win32,144.092219,62bbe60bf3d75ef465d3e404,0,58,58,31,1,fourthree,,,,,,,,,,,,,,,,,,,,,,,,,,,,,,,,,,,,,,,,,,,,,,,,,,,,,,,,,,,,,,,,,,,,,,,,,,,,,,,,,,,,,,,,,,,,,,,,,,,,,,,,,,,,,,,,,,,,,,,,,,,,,,,,,,,,,,,,,,,,,,,,,,,,,,,,
,,,,,,5f5e2b126352f0691ad71e33,62bc03380d9832bba4822fee,2022-06-29_09h46.20.010,Colour_Asymmetry_Pilot,2022.1.3,Win32,144.092219,62bbe60bf3d75ef465d3e404,0,59,59,27,1,twofour,,,,,,,,,,,,,,,,,,,,,,,,,,,,,,,,,,,,,,,,,,,,,,,,,,,,,,,,,,,,,,,,,,,,,,,,,,,,,,,,,,,,,,,,,,,,,,,,,,,,,,,,,,,,,,,,,,,,,,,,,,,,,,,,,,,,,,,,,,,,,,,,,,,,,,,,
,,,,,,5f5e2b126352f0691ad71e33,62bc03380d9832bba4822fee,2022-06-29_09h46.20.010,Colour_Asymmetry_Pilot,2022.1.3,Win32,144.092219,62bbe60bf3d75ef465d3e404,0,60,60,85,1,threefour,,,,,,,,,,,,,,,,,,,,,,,,,,,,,,,,,,,,,,,,,,,,,,,,,,,,,,,,,,,,,,,,,,,,,,,,,,,,,,,,,,,,,,,,,,,,,,,,,,,,,,,,,,,,,,,,,,,,,,,,,,,,,,,,,,,,,,,,,,,,,,,,,,,,,,,,
,,,,,,5f5e2b126352f0691ad71e33,62bc03380d9832bba4822fee,2022-06-29_09h46.20.010,Colour_Asymmetry_Pilot,2022.1.3,Win32,144.092219,62bbe60bf3d75ef465d3e404,0,61,61,56,1,onetwo,,,,,,,,,,,,,,,,,,,,,,,,,,,,,,,,,,,,,,,,,,,,,,,,,,,,,,,,,,,,,,,,,,,,,,,,,,,,,,,,,,,,,,,,,,,,,,,,,,,,,,,,,,,,,,,,,,,,,,,,,,,,,,,,,,,,,,,,,,,,,,,,,,,,,,,,
,,,,,,5f5e2b126352f0691ad71e33,62bc03380d9832bba4822fee,2022-06-29_09h46.20.010,Colour_Asymmetry_Pilot,2022.1.3,Win32,144.092219,62bbe60bf3d75ef465d3e404,0,62,62,121,1,onethree,,,,,,,,,,,,,,,,,,,,,,,,,,,,,,,,,,,,,,,,,,,,,,,,,,,,,,,,,,,,,,,,,,,,,,,,,,,,,,,,,,,,,,,,,,,,,,,,,,,,,,,,,,,,,,,,,,,,,,,,,,,,,,,,,,,,,,,,,,,,,,,,,,,,,,,,
,,,,,,5f5e2b126352f0691ad71e33,62bc03380d9832bba4822fee,2022-06-29_09h46.20.010,Colour_Asymmetry_Pilot,2022.1.3,Win32,144.092219,62bbe60bf3d75ef465d3e404,0,63,63,128,1,onetwo,,,,,,,,,,,,,,,,,,,,,,,,,,,,,,,,,,,,,,,,,,,,,,,,,,,,,,,,,,,,,,,,,,,,,,,,,,,,,,,,,,,,,,,,,,,,,,,,,,,,,,,,,,,,,,,,,,,,,,,,,,,,,,,,,,,,,,,,,,,,,,,,,,,,,,,,
,,,,,,5f5e2b126352f0691ad71e33,62bc03380d9832bba4822fee,2022-06-29_09h46.20.010,Colour_Asymmetry_Pilot,2022.1.3,Win32,144.092219,62bbe60bf3d75ef465d3e404,0,64,64,95,1,fourthree,,,,,,,,,,,,,,,,,,,,,,,,,,,,,,,,,,,,,,,,,,,,,,,,,,,,,,,,,,,,,,,,,,,,,,,,,,,,,,,,,,,,,,,,,,,,,,,,,,,,,,,,,,,,,,,,,,,,,,,,,,,,,,,,,,,,,,,,,,,,,,,,,,,,,,,,
,,,,,,5f5e2b126352f0691ad71e33,62bc03380d9832bba4822fee,2022-06-29_09h46.20.010,Colour_Asymmetry_Pilot,2022.1.3,Win32,144.092219,62bbe60bf3d75ef465d3e404,0,65,65,29,1,threefour,,,,,,,,,,,,,,,,,,,,,,,,,,,,,,,,,,,,,,,,,,,,,,,,,,,,,,,,,,,,,,,,,,,,,,,,,,,,,,,,,,,,,,,,,,,,,,,,,,,,,,,,,,,,,,,,,,,,,,,,,,,,,,,,,,,,,,,,,,,,,,,,,,,,,,,,
,,,,,,5f5e2b126352f0691ad71e33,62bc03380d9832bba4822fee,2022-06-29_09h46.20.010,Colour_Asymmetry_Pilot,2022.1.3,Win32,144.092219,62bbe60bf3d75ef465d3e404,0,66,66,87,1,fourthree,,,,,,,,,,,,,,,,,,,,,,,,,,,,,,,,,,,,,,,,,,,,,,,,,,,,,,,,,,,,,,,,,,,,,,,,,,,,,,,,,,,,,,,,,,,,,,,,,,,,,,,,,,,,,,,,,,,,,,,,,,,,,,,,,,,,,,,,,,,,,,,,,,,,,,,,
,,,,,,5f5e2b126352f0691ad71e33,62bc03380d9832bba4822fee,2022-06-29_09h46.20.010,Colour_Asymmetry_Pilot,2022.1.3,Win32,144.092219,62bbe60bf3d75ef465d3e404,0,67,67,69,1,threefour,,,,,,,,,,,,,,,,,,,,,,,,,,,,,,,,,,,,,,,,,,,,,,,,,,,,,,,,,,,,,,,,,,,,,,,,,,,,,,,,,,,,,,,,,,,,,,,,,,,,,,,,,,,,,,,,,,,,,,,,,,,,,,,,,,,,,,,,,,,,,,,,,,,,,,,,
,,,,,,5f5e2b126352f0691ad71e33,62bc03380d9832bba4822fee,2022-06-29_09h46.20.010,Colour_Asymmetry_Pilot,2022.1.3,Win32,144.092219,62bbe60bf3d75ef465d3e404,0,68,68,86,1,fourtwo,,,,,,,,,,,,,,,,,,,,,,,,,,,,,,,,,,,,,,,,,,,,,,,,,,,,,,,,,,,,,,,,,,,,,,,,,,,,,,,,,,,,,,,,,,,,,,,,,,,,,,,,,,,,,,,,,,,,,,,,,,,,,,,,,,,,,,,,,,,,,,,,,,,,,,,,
,,,,,,5f5e2b126352f0691ad71e33,62bc03380d9832bba4822fee,2022-06-29_09h46.20.010,Colour_Asymmetry_Pilot,2022.1.3,Win32,144.092219,62bbe60bf3d75ef465d3e404,0,69,69,118,1,fourtwo,,,,,,,,,,,,,,,,,,,,,,,,,,,,,,,,,,,,,,,,,,,,,,,,,,,,,,,,,,,,,,,,,,,,,,,,,,,,,,,,,,,,,,,,,,,,,,,,,,,,,,,,,,,,,,,,,,,,,,,,,,,,,,,,,,,,,,,,,,,,,,,,,,,,,,,,
,,,,,,5f5e2b126352f0691ad71e33,62bc03380d9832bba4822fee,2022-06-29_09h46.20.010,Colour_Asymmetry_Pilot,2022.1.3,Win32,144.092219,62bbe60bf3d75ef465d3e404,0,70,70,161,1,onethree,,,,,,,,,,,,,,,,,,,,,,,,,,,,,,,,,,,,,,,,,,,,,,,,,,,,,,,,,,,,,,,,,,,,,,,,,,,,,,,,,,,,,,,,,,,,,,,,,,,,,,,,,,,,,,,,,,,,,,,,,,,,,,,,,,,,,,,,,,,,,,,,,,,,,,,,
,,,,,,5f5e2b126352f0691ad71e33,62bc03380d9832bba4822fee,2022-06-29_09h46.20.010,Colour_Asymmetry_Pilot,2022.1.3,Win32,144.092219,62bbe60bf3d75ef465d3e404,0,71,71,141,1,threefour,,,,,,,,,,,,,,,,,,,,,,,,,,,,,,,,,,,,,,,,,,,,,,,,,,,,,,,,,,,,,,,,,,,,,,,,,,,,,,,,,,,,,,,,,,,,,,,,,,,,,,,,,,,,,,,,,,,,,,,,,,,,,,,,,,,,,,,,,,,,,,,,,,,,,,,,
,,,,,,5f5e2b126352f0691ad71e33,62bc03380d9832bba4822fee,2022-06-29_09h46.20.010,Colour_Asymmetry_Pilot,2022.1.3,Win32,144.092219,62bbe60bf3d75ef465d3e404,0,72,72,8,1,onetwo,,,,,,,,,,,,,,,,,,,,,,,,,,,,,,,,,,,,,,,,,,,,,,,,,,,,,,,,,,,,,,,,,,,,,,,,,,,,,,,,,,,,,,,,,,,,,,,,,,,,,,,,,,,,,,,,,,,,,,,,,,,,,,,,,,,,,,,,,,,,,,,,,,,,,,,,
,,,,,,5f5e2b126352f0691ad71e33,62bc03380d9832bba4822fee,2022-06-29_09h46.20.010,Colour_Asymmetry_Pilot,2022.1.3,Win32,144.092219,62bbe60bf3d75ef465d3e404,0,73,73,2,1,twoone,,,,,,,,,,,,,,,,,,,,,,,,,,,,,,,,,,,,,,,,,,,,,,,,,,,,,,,,,,,,,,,,,,,,,,,,,,,,,,,,,,,,,,,,,,,,,,,,,,,,,,,,,,,,,,,,,,,,,,,,,,,,,,,,,,,,,,,,,,,,,,,,,,,,,,,,
,,,,,,5f5e2b126352f0691ad71e33,62bc03380d9832bba4822fee,2022-06-29_09h46.20.010,Colour_Asymmetry_Pilot,2022.1.3,Win32,144.092219,62bbe60bf3d75ef465d3e404,0,74,74,50,1,twoone,,,,,,,,,,,,,,,,,,,,,,,,,,,,,,,,,,,,,,,,,,,,,,,,,,,,,,,,,,,,,,,,,,,,,,,,,,,,,,,,,,,,,,,,,,,,,,,,,,,,,,,,,,,,,,,,,,,,,,,,,,,,,,,,,,,,,,,,,,,,,,,,,,,,,,,,
,,,,,,5f5e2b126352f0691ad71e33,62bc03380d9832bba4822fee,2022-06-29_09h46.20.010,Colour_Asymmetry_Pilot,2022.1.3,Win32,144.092219,62bbe60bf3d75ef465d3e404,0,75,75,14,1,fourtwo,,,,,,,,,,,,,,,,,,,,,,,,,,,,,,,,,,,,,,,,,,,,,,,,,,,,,,,,,,,,,,,,,,,,,,,,,,,,,,,,,,,,,,,,,,,,,,,,,,,,,,,,,,,,,,,,,,,,,,,,,,,,,,,,,,,,,,,,,,,,,,,,,,,,,,,,
,,,,,,5f5e2b126352f0691ad71e33,62bc03380d9832bba4822fee,2022-06-29_09h46.20.010,Colour_Asymmetry_Pilot,2022.1.3,Win32,144.092219,62bbe60bf3d75ef465d3e404,0,76,76,159,1,fourthree,,,,,,,,,,,,,,,,,,,,,,,,,,,,,,,,,,,,,,,,,,,,,,,,,,,,,,,,,,,,,,,,,,,,,,,,,,,,,,,,,,,,,,,,,,,,,,,,,,,,,,,,,,,,,,,,,,,,,,,,,,,,,,,,,,,,,,,,,,,,,,,,,,,,,,,,
,,,,,,5f5e2b126352f0691ad71e33,62bc03380d9832bba4822fee,2022-06-29_09h46.20.010,Colour_Asymmetry_Pilot,2022.1.3,Win32,144.092219,62bbe60bf3d75ef465d3e404,0,77,77,61,1,threefour,,,,,,,,,,,,,,,,,,,,,,,,,,,,,,,,,,,,,,,,,,,,,,,,,,,,,,,,,,,,,,,,,,,,,,,,,,,,,,,,,,,,,,,,,,,,,,,,,,,,,,,,,,,,,,,,,,,,,,,,,,,,,,,,,,,,,,,,,,,,,,,,,,,,,,,,
,,,,,,5f5e2b126352f0691ad71e33,62bc03380d9832bba4822fee,2022-06-29_09h46.20.010,Colour_Asymmetry_Pilot,2022.1.3,Win32,144.092219,62bbe60bf3d75ef465d3e404,0,78,78,160,1,onetwo,,,,,,,,,,,,,,,,,,,,,,,,,,,,,,,,,,,,,,,,,,,,,,,,,,,,,,,,,,,,,,,,,,,,,,,,,,,,,,,,,,,,,,,,,,,,,,,,,,,,,,,,,,,,,,,,,,,,,,,,,,,,,,,,,,,,,,,,,,,,,,,,,,,,,,,,
,,,,,,5f5e2b126352f0691ad71e33,62bc03380d9832bba4822fee,2022-06-29_09h46.20.010,Colour_Asymmetry_Pilot,2022.1.3,Win32,144.092219,62bbe60bf3d75ef465d3e404,0,79,79,140,1,threeone,,,,,,,,,,,,,,,,,,,,,,,,,,,,,,,,,,,,,,,,,,,,,,,,,,,,,,,,,,,,,,,,,,,,,,,,,,,,,,,,,,,,,,,,,,,,,,,,,,,,,,,,,,,,,,,,,,,,,,,,,,,,,,,,,,,,,,,,,,,,,,,,,,,,,,,,
,,,,,,5f5e2b126352f0691ad71e33,62bc03380d9832bba4822fee,2022-06-29_09h46.20.010,Colour_Asymmetry_Pilot,2022.1.3,Win32,144.092219,62bbe60bf3d75ef465d3e404,0,80,80,30,1,fourtwo,,,,,,,,,,,,,,,,,,,,,,,,,,,,,,,,,,,,,,,,,,,,,,,,,,,,,,,,,,,,,,,,,,,,,,,,,,,,,,,,,,,,,,,,,,,,,,,,,,,,,,,,,,,,,,,,,,,,,,,,,,,,,,,,,,,,,,,,,,,,,,,,,,,,,,,,
,,,,,,5f5e2b126352f0691ad71e33,62bc03380d9832bba4822fee,2022-06-29_09h46.20.010,Colour_Asymmetry_Pilot,2022.1.3,Win32,144.092219,62bbe60bf3d75ef465d3e404,0,81,81,44,1,threeone,,,,,,,,,,,,,,,,,,,,,,,,,,,,,,,,,,,,,,,,,,,,,,,,,,,,,,,,,,,,,,,,,,,,,,,,,,,,,,,,,,,,,,,,,,,,,,,,,,,,,,,,,,,,,,,,,,,,,,,,,,,,,,,,,,,,,,,,,,,,,,,,,,,,,,,,
,,,,,,5f5e2b126352f0691ad71e33,62bc03380d9832bba4822fee,2022-06-29_09h46.20.010,Colour_Asymmetry_Pilot,2022.1.3,Win32,144.092219,62bbe60bf3d75ef465d3e404,0,82,82,98,1,twoone,,,,,,,,,,,,,,,,,,,,,,,,,,,,,,,,,,,,,,,,,,,,,,,,,,,,,,,,,,,,,,,,,,,,,,,,,,,,,,,,,,,,,,,,,,,,,,,,,,,,,,,,,,,,,,,,,,,,,,,,,,,,,,,,,,,,,,,,,,,,,,,,,,,,,,,,
,,,,,,5f5e2b126352f0691ad71e33,62bc03380d9832bba4822fee,2022-06-29_09h46.20.010,Colour_Asymmetry_Pilot,2022.1.3,Win32,144.092219,62bbe60bf3d75ef465d3e404,0,83,83,116,1,threeone,,,,,,,,,,,,,,,,,,,,,,,,,,,,,,,,,,,,,,,,,,,,,,,,,,,,,,,,,,,,,,,,,,,,,,,,,,,,,,,,,,,,,,,,,,,,,,,,,,,,,,,,,,,,,,,,,,,,,,,,,,,,,,,,,,,,,,,,,,,,,,,,,,,,,,,,
,,,,,,5f5e2b126352f0691ad71e33,62bc03380d9832bba4822fee,2022-06-29_09h46.20.010,Colour_Asymmetry_Pilot,2022.1.3,Win32,144.092219,62bbe60bf3d75ef465d3e404,0,84,84,20,1,threeone,,,,,,,,,,,,,,,,,,,,,,,,,,,,,,,,,,,,,,,,,,,,,,,,,,,,,,,,,,,,,,,,,,,,,,,,,,,,,,,,,,,,,,,,,,,,,,,,,,,,,,,,,,,,,,,,,,,,,,,,,,,,,,,,,,,,,,,,,,,,,,,,,,,,,,,,
,,,,,,5f5e2b126352f0691ad71e33,62bc03380d9832bba4822fee,2022-06-29_09h46.20.010,Colour_Asymmetry_Pilot,2022.1.3,Win32,144.092219,62bbe60bf3d75ef465d3e404,0,85,85,7,1,fourthree,,,,,,,,,,,,,,,,,,,,,,,,,,,,,,,,,,,,,,,,,,,,,,,,,,,,,,,,,,,,,,,,,,,,,,,,,,,,,,,,,,,,,,,,,,,,,,,,,,,,,,,,,,,,,,,,,,,,,,,,,,,,,,,,,,,,,,,,,,,,,,,,,,,,,,,,
,,,,,,5f5e2b126352f0691ad71e33,62bc03380d9832bba4822fee,2022-06-29_09h46.20.010,Colour_Asymmetry_Pilot,2022.1.3,Win32,144.092219,62bbe60bf3d75ef465d3e404,0,86,86,150,1,fourtwo,,,,,,,,,,,,,,,,,,,,,,,,,,,,,,,,,,,,,,,,,,,,,,,,,,,,,,,,,,,,,,,,,,,,,,,,,,,,,,,,,,,,,,,,,,,,,,,,,,,,,,,,,,,,,,,,,,,,,,,,,,,,,,,,,,,,,,,,,,,,,,,,,,,,,,,,
,,,,,,5f5e2b126352f0691ad71e33,62bc03380d9832bba4822fee,2022-06-29_09h46.20.010,Colour_Asymmetry_Pilot,2022.1.3,Win32,144.092219,62bbe60bf3d75ef465d3e404,0,87,87,59,1,twofour,,,,,,,,,,,,,,,,,,,,,,,,,,,,,,,,,,,,,,,,,,,,,,,,,,,,,,,,,,,,,,,,,,,,,,,,,,,,,,,,,,,,,,,,,,,,,,,,,,,,,,,,,,,,,,,,,,,,,,,,,,,,,,,,,,,,,,,,,,,,,,,,,,,,,,,,
,,,,,,5f5e2b126352f0691ad71e33,62bc03380d9832bba4822fee,2022-06-29_09h46.20.010,Colour_Asymmetry_Pilot,2022.1.3,Win32,144.092219,62bbe60bf3d75ef465d3e404,0,88,88,47,1,fourthree,,,,,,,,,,,,,,,,,,,,,,,,,,,,,,,,,,,,,,,,,,,,,,,,,,,,,,,,,,,,,,,,,,,,,,,,,,,,,,,,,,,,,,,,,,,,,,,,,,,,,,,,,,,,,,,,,,,,,,,,,,,,,,,,,,,,,,,,,,,,,,,,,,,,,,,,
,,,,,,5f5e2b126352f0691ad71e33,62bc03380d9832bba4822fee,2022-06-29_09h46.20.010,Colour_Asymmetry_Pilot,2022.1.3,Win32,144.092219,62bbe60bf3d75ef465d3e404,0,89,89,90,1,twoone,,,,,,,,,,,,,,,,,,,,,,,,,,,,,,,,,,,,,,,,,,,,,,,,,,,,,,,,,,,,,,,,,,,,,,,,,,,,,,,,,,,,,,,,,,,,,,,,,,,,,,,,,,,,,,,,,,,,,,,,,,,,,,,,,,,,,,,,,,,,,,,,,,,,,,,,
,,,,,,5f5e2b126352f0691ad71e33,62bc03380d9832bba4822fee,2022-06-29_09h46.20.010,Colour_Asymmetry_Pilot,2022.1.3,Win32,144.092219,62bbe60bf3d75ef465d3e404,0,90,90,100,1,threeone,,,,,,,,,,,,,,,,,,,,,,,,,,,,,,,,,,,,,,,,,,,,,,,,,,,,,,,,,,,,,,,,,,,,,,,,,,,,,,,,,,,,,,,,,,,,,,,,,,,,,,,,,,,,,,,,,,,,,,,,,,,,,,,,,,,,,,,,,,,,,,,,,,,,,,,,
,,,,,,5f5e2b126352f0691ad71e33,62bc03380d9832bba4822fee,2022-06-29_09h46.20.010,Colour_Asymmetry_Pilot,2022.1.3,Win32,144.092219,62bbe60bf3d75ef465d3e404,0,91,91,110,1,fourtwo,,,,,,,,,,,,,,,,,,,,,,,,,,,,,,,,,,,,,,,,,,,,,,,,,,,,,,,,,,,,,,,,,,,,,,,,,,,,,,,,,,,,,,,,,,,,,,,,,,,,,,,,,,,,,,,,,,,,,,,,,,,,,,,,,,,,,,,,,,,,,,,,,,,,,,,,
,,,,,,5f5e2b126352f0691ad71e33,62bc03380d9832bba4822fee,2022-06-29_09h46.20.010,Colour_Asymmetry_Pilot,2022.1.3,Win32,144.092219,62bbe60bf3d75ef465d3e404,0,92,92,138,1,twoone,,,,,,,,,,,,,,,,,,,,,,,,,,,,,,,,,,,,,,,,,,,,,,,,,,,,,,,,,,,,,,,,,,,,,,,,,,,,,,,,,,,,,,,,,,,,,,,,,,,,,,,,,,,,,,,,,,,,,,,,,,,,,,,,,,,,,,,,,,,,,,,,,,,,,,,,
,,,,,,5f5e2b126352f0691ad71e33,62bc03380d9832bba4822fee,2022-06-29_09h46.20.010,Colour_Asymmetry_Pilot,2022.1.3,Win32,144.092219,62bbe60bf3d75ef465d3e404,0,93,93,19,1,twofour,,,,,,,,,,,,,,,,,,,,,,,,,,,,,,,,,,,,,,,,,,,,,,,,,,,,,,,,,,,,,,,,,,,,,,,,,,,,,,,,,,,,,,,,,,,,,,,,,,,,,,,,,,,,,,,,,,,,,,,,,,,,,,,,,,,,,,,,,,,,,,,,,,,,,,,,
,,,,,,5f5e2b126352f0691ad71e33,62bc03380d9832bba4822fee,2022-06-29_09h46.20.010,Colour_Asymmetry_Pilot,2022.1.3,Win32,144.092219,62bbe60bf3d75ef465d3e404,0,94,94,74,1,twoone,,,,,,,,,,,,,,,,,,,,,,,,,,,,,,,,,,,,,,,,,,,,,,,,,,,,,,,,,,,,,,,,,,,,,,,,,,,,,,,,,,,,,,,,,,,,,,,,,,,,,,,,,,,,,,,,,,,,,,,,,,,,,,,,,,,,,,,,,,,,,,,,,,,,,,,,
,,,,,,5f5e2b126352f0691ad71e33,62bc03380d9832bba4822fee,2022-06-29_09h46.20.010,Colour_Asymmetry_Pilot,2022.1.3,Win32,144.092219,62bbe60bf3d75ef465d3e404,0,95,95,12,1,threeone,,,,,,,,,,,,,,,,,,,,,,,,,,,,,,,,,,,,,,,,,,,,,,,,,,,,,,,,,,,,,,,,,,,,,,,,,,,,,,,,,,,,,,,,,,,,,,,,,,,,,,,,,,,,,,,,,,,,,,,,,,,,,,,,,,,,,,,,,,,,,,,,,,,,,,,,
,,,,,,5f5e2b126352f0691ad71e33,62bc03380d9832bba4822fee,2022-06-29_09h46.20.010,Colour_Asymmetry_Pilot,2022.1.3,Win32,144.092219,62bbe60bf3d75ef465d3e404,0,96,96,96,1,onetwo,,,,,,,,,,,,,,,,,,,,,,,,,,,,,,,,,,,,,,,,,,,,,,,,,,,,,,,,,,,,,,,,,,,,,,,,,,,,,,,,,,,,,,,,,,,,,,,,,,,,,,,,,,,,,,,,,,,,,,,,,,,,,,,,,,,,,,,,,,,,,,,,,,,,,,,,
,,,,,,5f5e2b126352f0691ad71e33,62bc03380d9832bba4822fee,2022-06-29_09h46.20.010,Colour_Asymmetry_Pilot,2022.1.3,Win32,144.092219,62bbe60bf3d75ef465d3e404,0,97,97,51,1,twofour,,,,,,,,,,,,,,,,,,,,,,,,,,,,,,,,,,,,,,,,,,,,,,,,,,,,,,,,,,,,,,,,,,,,,,,,,,,,,,,,,,,,,,,,,,,,,,,,,,,,,,,,,,,,,,,,,,,,,,,,,,,,,,,,,,,,,,,,,,,,,,,,,,,,,,,,
,,,,,,5f5e2b126352f0691ad71e33,62bc03380d9832bba4822fee,2022-06-29_09h46.20.010,Colour_Asymmetry_Pilot,2022.1.3,Win32,144.092219,62bbe60bf3d75ef465d3e404,0,98,98,75,1,twofour,,,,,,,,,,,,,,,,,,,,,,,,,,,,,,,,,,,,,,,,,,,,,,,,,,,,,,,,,,,,,,,,,,,,,,,,,,,,,,,,,,,,,,,,,,,,,,,,,,,,,,,,,,,,,,,,,,,,,,,,,,,,,,,,,,,,,,,,,,,,,,,,,,,,,,,,
,,,,,,5f5e2b126352f0691ad71e33,62bc03380d9832bba4822fee,2022-06-29_09h46.20.010,Colour_Asymmetry_Pilot,2022.1.3,Win32,144.092219,62bbe60bf3d75ef465d3e404,0,99,99,129,1,onethree,,,,,,,,,,,,,,,,,,,,,,,,,,,,,,,,,,,,,,,,,,,,,,,,,,,,,,,,,,,,,,,,,,,,,,,,,,,,,,,,,,,,,,,,,,,,,,,,,,,,,,,,,,,,,,,,,,,,,,,,,,,,,,,,,,,,,,,,,,,,,,,,,,,,,,,,
,,,,,,5f5e2b126352f0691ad71e33,62bc03380d9832bba4822fee,2022-06-29_09h46.20.010,Colour_Asymmetry_Pilot,2022.1.3,Win32,144.092219,62bbe60bf3d75ef465d3e404,0,100,100,1,1,onethree,,,,,,,,,,,,,,,,,,,,,,,,,,,,,,,,,,,,,,,,,,,,,,,,,,,,,,,,,,,,,,,,,,,,,,,,,,,,,,,,,,,,,,,,,,,,,,,,,,,,,,,,,,,,,,,,,,,,,,,,,,,,,,,,,,,,,,,,,,,,,,,,,,,,,,,,
,,,,,,5f5e2b126352f0691ad71e33,62bc03380d9832bba4822fee,2022-06-29_09h46.20.010,Colour_Asymmetry_Pilot,2022.1.3,Win32,144.092219,62bbe60bf3d75ef465d3e404,0,101,101,136,1,onetwo,,,,,,,,,,,,,,,,,,,,,,,,,,,,,,,,,,,,,,,,,,,,,,,,,,,,,,,,,,,,,,,,,,,,,,,,,,,,,,,,,,,,,,,,,,,,,,,,,,,,,,,,,,,,,,,,,,,,,,,,,,,,,,,,,,,,,,,,,,,,,,,,,,,,,,,,
,,,,,,5f5e2b126352f0691ad71e33,62bc03380d9832bba4822fee,2022-06-29_09h46.20.010,Colour_Asymmetry_Pilot,2022.1.3,Win32,144.092219,62bbe60bf3d75ef465d3e404,0,102,102,6,1,fourtwo,,,,,,,,,,,,,,,,,,,,,,,,,,,,,,,,,,,,,,,,,,,,,,,,,,,,,,,,,,,,,,,,,,,,,,,,,,,,,,,,,,,,,,,,,,,,,,,,,,,,,,,,,,,,,,,,,,,,,,,,,,,,,,,,,,,,,,,,,,,,,,,,,,,,,,,,
,,,,,,5f5e2b126352f0691ad71e33,62bc03380d9832bba4822fee,2022-06-29_09h46.20.010,Colour_Asymmetry_Pilot,2022.1.3,Win32,144.092219,62bbe60bf3d75ef465d3e404,0,103,103,60,1,threeone,,,,,,,,,,,,,,,,,,,,,,,,,,,,,,,,,,,,,,,,,,,,,,,,,,,,,,,,,,,,,,,,,,,,,,,,,,,,,,,,,,,,,,,,,,,,,,,,,,,,,,,,,,,,,,,,,,,,,,,,,,,,,,,,,,,,,,,,,,,,,,,,,,,,,,,,
,,,,,,5f5e2b126352f0691ad71e33,62bc03380d9832bba4822fee,2022-06-29_09h46.20.010,Colour_Asymmetry_Pilot,2022.1.3,Win32,144.092219,62bbe60bf3d75ef465d3e404,0,104,104,106,1,twoone,,,,,,,,,,,,,,,,,,,,,,,,,,,,,,,,,,,,,,,,,,,,,,,,,,,,,,,,,,,,,,,,,,,,,,,,,,,,,,,,,,,,,,,,,,,,,,,,,,,,,,,,,,,,,,,,,,,,,,,,,,,,,,,,,,,,,,,,,,,,,,,,,,,,,,,,
,,,,,,5f5e2b126352f0691ad71e33,62bc03380d9832bba4822fee,2022-06-29_09h46.20.010,Colour_Asymmetry_Pilot,2022.1.3,Win32,144.092219,62bbe60bf3d75ef465d3e404,0,105,105,32,1,onetwo,,,,,,,,,,,,,,,,,,,,,,,,,,,,,,,,,,,,,,,,,,,,,,,,,,,,,,,,,,,,,,,,,,,,,,,,,,,,,,,,,,,,,,,,,,,,,,,,,,,,,,,,,,,,,,,,,,,,,,,,,,,,,,,,,,,,,,,,,,,,,,,,,,,,,,,,
,,,,,,5f5e2b126352f0691ad71e33,62bc03380d9832bba4822fee,2022-06-29_09h46.20.010,Colour_Asymmetry_Pilot,2022.1.3,Win32,144.092219,62bbe60bf3d75ef465d3e404,0,106,106,127,1,fourthree,,,,,,,,,,,,,,,,,,,,,,,,,,,,,,,,,,,,,,,,,,,,,,,,,,,,,,,,,,,,,,,,,,,,,,,,,,,,,,,,,,,,,,,,,,,,,,,,,,,,,,,,,,,,,,,,,,,,,,,,,,,,,,,,,,,,,,,,,,,,,,,,,,,,,,,,
,,,,,,5f5e2b126352f0691ad71e33,62bc03380d9832bba4822fee,2022-06-29_09h46.20.010,Colour_Asymmetry_Pilot,2022.1.3,Win32,144.092219,62bbe60bf3d75ef465d3e404,0,107,107,78,1,fourtwo,,,,,,,,,,,,,,,,,,,,,,,,,,,,,,,,,,,,,,,,,,,,,,,,,,,,,,,,,,,,,,,,,,,,,,,,,,,,,,,,,,,,,,,,,,,,,,,,,,,,,,,,,,,,,,,,,,,,,,,,,,,,,,,,,,,,,,,,,,,,,,,,,,,,,,,,
,,,,,,5f5e2b126352f0691ad71e33,62bc03380d9832bba4822fee,2022-06-29_09h46.20.010,Colour_Asymmetry_Pilot,2022.1.3,Win32,144.092219,62bbe60bf3d75ef465d3e404,0,108,108,142,1,fourtwo,,,,,,,,,,,,,,,,,,,,,,,,,,,,,,,,,,,,,,,,,,,,,,,,,,,,,,,,,,,,,,,,,,,,,,,,,,,,,,,,,,,,,,,,,,,,,,,,,,,,,,,,,,,,,,,,,,,,,,,,,,,,,,,,,,,,,,,,,,,,,,,,,,,,,,,,
,,,,,,5f5e2b126352f0691ad71e33,62bc03380d9832bba4822fee,2022-06-29_09h46.20.010,Colour_Asymmetry_Pilot,2022.1.3,Win32,144.092219,62bbe60bf3d75ef465d3e404,0,109,109,111,1,fourthree,,,,,,,,,,,,,,,,,,,,,,,,,,,,,,,,,,,,,,,,,,,,,,,,,,,,,,,,,,,,,,,,,,,,,,,,,,,,,,,,,,,,,,,,,,,,,,,,,,,,,,,,,,,,,,,,,,,,,,,,,,,,,,,,,,,,,,,,,,,,,,,,,,,,,,,,
,,,,,,5f5e2b126352f0691ad71e33,62bc03380d9832bba4822fee,2022-06-29_09h46.20.010,Colour_Asymmetry_Pilot,2022.1.3,Win32,144.092219,62bbe60bf3d75ef465d3e404,0,110,110,123,1,twofour,,,,,,,,,,,,,,,,,,,,,,,,,,,,,,,,,,,,,,,,,,,,,,,,,,,,,,,,,,,,,,,,,,,,,,,,,,,,,,,,,,,,,,,,,,,,,,,,,,,,,,,,,,,,,,,,,,,,,,,,,,,,,,,,,,,,,,,,,,,,,,,,,,,,,,,,
,,,,,,5f5e2b126352f0691ad71e33,62bc03380d9832bba4822fee,2022-06-29_09h46.20.010,Colour_Asymmetry_Pilot,2022.1.3,Win32,144.092219,62bbe60bf3d75ef465d3e404,0,111,111,26,1,twoone,,,,,,,,,,,,,,,,,,,,,,,,,,,,,,,,,,,,,,,,,,,,,,,,,,,,,,,,,,,,,,,,,,,,,,,,,,,,,,,,,,,,,,,,,,,,,,,,,,,,,,,,,,,,,,,,,,,,,,,,,,,,,,,,,,,,,,,,,,,,,,,,,,,,,,,,
,,,,,,5f5e2b126352f0691ad71e33,62bc03380d9832bba4822fee,2022-06-29_09h46.20.010,Colour_Asymmetry_Pilot,2022.1.3,Win32,144.092219,62bbe60bf3d75ef465d3e404,0,112,112,71,1,fourthree,,,,,,,,,,,,,,,,,,,,,,,,,,,,,,,,,,,,,,,,,,,,,,,,,,,,,,,,,,,,,,,,,,,,,,,,,,,,,,,,,,,,,,,,,,,,,,,,,,,,,,,,,,,,,,,,,,,,,,,,,,,,,,,,,,,,,,,,,,,,,,,,,,,,,,,,
,,,,,,5f5e2b126352f0691ad71e33,62bc03380d9832bba4822fee,2022-06-29_09h46.20.010,Colour_Asymmetry_Pilot,2022.1.3,Win32,144.092219,62bbe60bf3d75ef465d3e404,0,113,113,143,1,fourthree,,,,,,,,,,,,,,,,,,,,,,,,,,,,,,,,,,,,,,,,,,,,,,,,,,,,,,,,,,,,,,,,,,,,,,,,,,,,,,,,,,,,,,,,,,,,,,,,,,,,,,,,,,,,,,,,,,,,,,,,,,,,,,,,,,,,,,,,,,,,,,,,,,,,,,,,
,,,,,,5f5e2b126352f0691ad71e33,62bc03380d9832bba4822fee,2022-06-29_09h46.20.010,Colour_Asymmetry_Pilot,2022.1.3,Win32,144.092219,62bbe60bf3d75ef465d3e404,0,114,114,109,1,threefour,,,,,,,,,,,,,,,,,,,,,,,,,,,,,,,,,,,,,,,,,,,,,,,,,,,,,,,,,,,,,,,,,,,,,,,,,,,,,,,,,,,,,,,,,,,,,,,,,,,,,,,,,,,,,,,,,,,,,,,,,,,,,,,,,,,,,,,,,,,,,,,,,,,,,,,,
,,,,,,5f5e2b126352f0691ad71e33,62bc03380d9832bba4822fee,2022-06-29_09h46.20.010,Colour_Asymmetry_Pilot,2022.1.3,Win32,144.092219,62bbe60bf3d75ef465d3e404,0,115,115,5,1,threefour,,,,,,,,,,,,,,,,,,,,,,,,,,,,,,,,,,,,,,,,,,,,,,,,,,,,,,,,,,,,,,,,,,,,,,,,,,,,,,,,,,,,,,,,,,,,,,,,,,,,,,,,,,,,,,,,,,,,,,,,,,,,,,,,,,,,,,,,,,,,,,,,,,,,,,,,
,,,,,,5f5e2b126352f0691ad71e33,62bc03380d9832bba4822fee,2022-06-29_09h46.20.010,Colour_Asymmetry_Pilot,2022.1.3,Win32,144.092219,62bbe60bf3d75ef465d3e404,0,116,116,35,1,twofour,,,,,,,,,,,,,,,,,,,,,,,,,,,,,,,,,,,,,,,,,,,,,,,,,,,,,,,,,,,,,,,,,,,,,,,,,,,,,,,,,,,,,,,,,,,,,,,,,,,,,,,,,,,,,,,,,,,,,,,,,,,,,,,,,,,,,,,,,,,,,,,,,,,,,,,,
,,,,,,5f5e2b126352f0691ad71e33,62bc03380d9832bba4822fee,2022-06-29_09h46.20.010,Colour_Asymmetry_Pilot,2022.1.3,Win32,144.092219,62bbe60bf3d75ef465d3e404,0,117,117,144,1,onetwo,,,,,,,,,,,,,,,,,,,,,,,,,,,,,,,,,,,,,,,,,,,,,,,,,,,,,,,,,,,,,,,,,,,,,,,,,,,,,,,,,,,,,,,,,,,,,,,,,,,,,,,,,,,,,,,,,,,,,,,,,,,,,,,,,,,,,,,,,,,,,,,,,,,,,,,,
,,,,,,5f5e2b126352f0691ad71e33,62bc03380d9832bba4822fee,2022-06-29_09h46.20.010,Colour_Asymmetry_Pilot,2022.1.3,Win32,144.092219,62bbe60bf3d75ef465d3e404,0,118,118,93,1,threefour,,,,,,,,,,,,,,,,,,,,,,,,,,,,,,,,,,,,,,,,,,,,,,,,,,,,,,,,,,,,,,,,,,,,,,,,,,,,,,,,,,,,,,,,,,,,,,,,,,,,,,,,,,,,,,,,,,,,,,,,,,,,,,,,,,,,,,,,,,,,,,,,,,,,,,,,
,,,,,,5f5e2b126352f0691ad71e33,62bc03380d9832bba4822fee,2022-06-29_09h46.20.010,Colour_Asymmetry_Pilot,2022.1.3,Win32,144.092219,62bbe60bf3d75ef465d3e404,0,119,119,43,1,twofour,,,,,,,,,,,,,,,,,,,,,,,,,,,,,,,,,,,,,,,,,,,,,,,,,,,,,,,,,,,,,,,,,,,,,,,,,,,,,,,,,,,,,,,,,,,,,,,,,,,,,,,,,,,,,,,,,,,,,,,,,,,,,,,,,,,,,,,,,,,,,,,,,,,,,,,,
,,,,,,5f5e2b126352f0691ad71e33,62bc03380d9832bba4822fee,2022-06-29_09h46.20.010,Colour_Asymmetry_Pilot,2022.1.3,Win32,144.092219,62bbe60bf3d75ef465d3e404,0,120,120,102,1,fourtwo,,,,,,,,,,,,,,,,,,,,,,,,,,,,,,,,,,,,,,,,,,,,,,,,,,,,,,,,,,,,,,,,,,,,,,,,,,,,,,,,,,,,,,,,,,,,,,,,,,,,,,,,,,,,,,,,,,,,,,,,,,,,,,,,,,,,,,,,,,,,,,,,,,,,,,,,
,,,,,,5f5e2b126352f0691ad71e33,62bc03380d9832bba4822fee,2022-06-29_09h46.20.010,Colour_Asymmetry_Pilot,2022.1.3,Win32,144.092219,62bbe60bf3d75ef465d3e404,0,121,121,73,1,onethree,,,,,,,,,,,,,,,,,,,,,,,,,,,,,,,,,,,,,,,,,,,,,,,,,,,,,,,,,,,,,,,,,,,,,,,,,,,,,,,,,,,,,,,,,,,,,,,,,,,,,,,,,,,,,,,,,,,,,,,,,,,,,,,,,,,,,,,,,,,,,,,,,,,,,,,,
,,,,,,5f5e2b126352f0691ad71e33,62bc03380d9832bba4822fee,2022-06-29_09h46.20.010,Colour_Asymmetry_Pilot,2022.1.3,Win32,144.092219,62bbe60bf3d75ef465d3e404,0,122,122,52,1,threeone,,,,,,,,,,,,,,,,,,,,,,,,,,,,,,,,,,,,,,,,,,,,,,,,,,,,,,,,,,,,,,,,,,,,,,,,,,,,,,,,,,,,,,,,,,,,,,,,,,,,,,,,,,,,,,,,,,,,,,,,,,,,,,,,,,,,,,,,,,,,,,,,,,,,,,,,
,,,,,,5f5e2b126352f0691ad71e33,62bc03380d9832bba4822fee,2022-06-29_09h46.20.010,Colour_Asymmetry_Pilot,2022.1.3,Win32,144.092219,62bbe60bf3d75ef465d3e404,0,123,123,79,1,fourthree,,,,,,,,,,,,,,,,,,,,,,,,,,,,,,,,,,,,,,,,,,,,,,,,,,,,,,,,,,,,,,,,,,,,,,,,,,,,,,,,,,,,,,,,,,,,,,,,,,,,,,,,,,,,,,,,,,,,,,,,,,,,,,,,,,,,,,,,,,,,,,,,,,,,,,,,
,,,,,,5f5e2b126352f0691ad71e33,62bc03380d9832bba4822fee,2022-06-29_09h46.20.010,Colour_Asymmetry_Pilot,2022.1.3,Win32,144.092219,62bbe60bf3d75ef465d3e404,0,124,124,53,1,threefour,,,,,,,,,,,,,,,,,,,,,,,,,,,,,,,,,,,,,,,,,,,,,,,,,,,,,,,,,,,,,,,,,,,,,,,,,,,,,,,,,,,,,,,,,,,,,,,,,,,,,,,,,,,,,,,,,,,,,,,,,,,,,,,,,,,,,,,,,,,,,,,,,,,,,,,,
,,,,,,5f5e2b126352f0691ad71e33,62bc03380d9832bba4822fee,2022-06-29_09h46.20.010,Colour_Asymmetry_Pilot,2022.1.3,Win32,144.092219,62bbe60bf3d75ef465d3e404,0,125,125,22,1,fourtwo,,,,,,,,,,,,,,,,,,,,,,,,,,,,,,,,,,,,,,,,,,,,,,,,,,,,,,,,,,,,,,,,,,,,,,,,,,,,,,,,,,,,,,,,,,,,,,,,,,,,,,,,,,,,,,,,,,,,,,,,,,,,,,,,,,,,,,,,,,,,,,,,,,,,,,,,
,,,,,,5f5e2b126352f0691ad71e33,62bc03380d9832bba4822fee,2022-06-29_09h46.20.010,Colour_Asymmetry_Pilot,2022.1.3,Win32,144.092219,62bbe60bf3d75ef465d3e404,0,126,126,67,1,twofour,,,,,,,,,,,,,,,,,,,,,,,,,,,,,,,,,,,,,,,,,,,,,,,,,,,,,,,,,,,,,,,,,,,,,,,,,,,,,,,,,,,,,,,,,,,,,,,,,,,,,,,,,,,,,,,,,,,,,,,,,,,,,,,,,,,,,,,,,,,,,,,,,,,,,,,,
,,,,,,5f5e2b126352f0691ad71e33,62bc03380d9832bba4822fee,2022-06-29_09h46.20.010,Colour_Asymmetry_Pilot,2022.1.3,Win32,144.092219,62bbe60bf3d75ef465d3e404,0,127,127,33,1,onethree,,,,,,,,,,,,,,,,,,,,,,,,,,,,,,,,,,,,,,,,,,,,,,,,,,,,,,,,,,,,,,,,,,,,,,,,,,,,,,,,,,,,,,,,,,,,,,,,,,,,,,,,,,,,,,,,,,,,,,,,,,,,,,,,,,,,,,,,,,,,,,,,,,,,,,,,
,,,,,,5f5e2b126352f0691ad71e33,62bc03380d9832bba4822fee,2022-06-29_09h46.20.010,Colour_Asymmetry_Pilot,2022.1.3,Win32,144.092219,62bbe60bf3d75ef465d3e404,0,128,128,68,1,threeone,,,,,,,,,,,,,,,,,,,,,,,,,,,,,,,,,,,,,,,,,,,,,,,,,,,,,,,,,,,,,,,,,,,,,,,,,,,,,,,,,,,,,,,,,,,,,,,,,,,,,,,,,,,,,,,,,,,,,,,,,,,,,,,,,,,,,,,,,,,,,,,,,,,,,,,,
,,,,,,5f5e2b126352f0691ad71e33,62bc03380d9832bba4822fee,2022-06-29_09h46.20.010,Colour_Asymmetry_Pilot,2022.1.3,Win32,144.092219,62bbe60bf3d75ef465d3e404,0,129,129,125,1,threefour,,,,,,,,,,,,,,,,,,,,,,,,,,,,,,,,,,,,,,,,,,,,,,,,,,,,,,,,,,,,,,,,,,,,,,,,,,,,,,,,,,,,,,,,,,,,,,,,,,,,,,,,,,,,,,,,,,,,,,,,,,,,,,,,,,,,,,,,,,,,,,,,,,,,,,,,
,,,,,,5f5e2b126352f0691ad71e33,62bc03380d9832bba4822fee,2022-06-29_09h46.20.010,Colour_Asymmetry_Pilot,2022.1.3,Win32,144.092219,62bbe60bf3d75ef465d3e404,0,130,130,65,1,onethree,,,,,,,,,,,,,,,,,,,,,,,,,,,,,,,,,,,,,,,,,,,,,,,,,,,,,,,,,,,,,,,,,,,,,,,,,,,,,,,,,,,,,,,,,,,,,,,,,,,,,,,,,,,,,,,,,,,,,,,,,,,,,,,,,,,,,,,,,,,,,,,,,,,,,,,,
,,,,,,5f5e2b126352f0691ad71e33,62bc03380d9832bba4822fee,2022-06-29_09h46.20.010,Colour_Asymmetry_Pilot,2022.1.3,Win32,144.092219,62bbe60bf3d75ef465d3e404,0,131,131,156,1,threeone,,,,,,,,,,,,,,,,,,,,,,,,,,,,,,,,,,,,,,,,,,,,,,,,,,,,,,,,,,,,,,,,,,,,,,,,,,,,,,,,,,,,,,,,,,,,,,,,,,,,,,,,,,,,,,,,,,,,,,,,,,,,,,,,,,,,,,,,,,,,,,,,,,,,,,,,
,,,,,,5f5e2b126352f0691ad71e33,62bc03380d9832bba4822fee,2022-06-29_09h46.20.010,Colour_Asymmetry_Pilot,2022.1.3,Win32,144.092219,62bbe60bf3d75ef465d3e404,0,132,132,157,1,threefour,,,,,,,,,,,,,,,,,,,,,,,,,,,,,,,,,,,,,,,,,,,,,,,,,,,,,,,,,,,,,,,,,,,,,,,,,,,,,,,,,,,,,,,,,,,,,,,,,,,,,,,,,,,,,,,,,,,,,,,,,,,,,,,,,,,,,,,,,,,,,,,,,,,,,,,,
,,,,,,5f5e2b126352f0691ad71e33,62bc03380d9832bba4822fee,2022-06-29_09h46.20.010,Colour_Asymmetry_Pilot,2022.1.3,Win32,144.092219,62bbe60bf3d75ef465d3e404,0,133,133,139,1,twofour,,,,,,,,,,,,,,,,,,,,,,,,,,,,,,,,,,,,,,,,,,,,,,,,,,,,,,,,,,,,,,,,,,,,,,,,,,,,,,,,,,,,,,,,,,,,,,,,,,,,,,,,,,,,,,,,,,,,,,,,,,,,,,,,,,,,,,,,,,,,,,,,,,,,,,,,
,,,,,,5f5e2b126352f0691ad71e33,62bc03380d9832bba4822fee,2022-06-29_09h46.20.010,Colour_Asymmetry_Pilot,2022.1.3,Win32,144.092219,62bbe60bf3d75ef465d3e404,0,134,134,80,1,onetwo,,,,,,,,,,,,,,,,,,,,,,,,,,,,,,,,,,,,,,,,,,,,,,,,,,,,,,,,,,,,,,,,,,,,,,,,,,,,,,,,,,,,,,,,,,,,,,,,,,,,,,,,,,,,,,,,,,,,,,,,,,,,,,,,,,,,,,,,,,,,,,,,,,,,,,,,
,,,,,,5f5e2b126352f0691ad71e33,62bc03380d9832bba4822fee,2022-06-29_09h46.20.010,Colour_Asymmetry_Pilot,2022.1.3,Win32,144.092219,62bbe60bf3d75ef465d3e404,0,135,135,38,1,fourtwo,,,,,,,,,,,,,,,,,,,,,,,,,,,,,,,,,,,,,,,,,,,,,,,,,,,,,,,,,,,,,,,,,,,,,,,,,,,,,,,,,,,,,,,,,,,,,,,,,,,,,,,,,,,,,,,,,,,,,,,,,,,,,,,,,,,,,,,,,,,,,,,,,,,,,,,,
,,,,,,5f5e2b126352f0691ad71e33,62bc03380d9832bba4822fee,2022-06-29_09h46.20.010,Colour_Asymmetry_Pilot,2022.1.3,Win32,144.092219,62bbe60bf3d75ef465d3e404,0,136,136,92,1,threeone,,,,,,,,,,,,,,,,,,,,,,,,,,,,,,,,,,,,,,,,,,,,,,,,,,,,,,,,,,,,,,,,,,,,,,,,,,,,,,,,,,,,,,,,,,,,,,,,,,,,,,,,,,,,,,,,,,,,,,,,,,,,,,,,,,,,,,,,,,,,,,,,,,,,,,,,
,,,,,,5f5e2b126352f0691ad71e33,62bc03380d9832bba4822fee,2022-06-29_09h46.20.010,Colour_Asymmetry_Pilot,2022.1.3,Win32,144.092219,62bbe60bf3d75ef465d3e404,0,137,137,81,1,onethree,,,,,,,,,,,,,,,,,,,,,,,,,,,,,,,,,,,,,,,,,,,,,,,,,,,,,,,,,,,,,,,,,,,,,,,,,,,,,,,,,,,,,,,,,,,,,,,,,,,,,,,,,,,,,,,,,,,,,,,,,,,,,,,,,,,,,,,,,,,,,,,,,,,,,,,,
,,,,,,5f5e2b126352f0691ad71e33,62bc03380d9832bba4822fee,2022-06-29_09h46.20.010,Colour_Asymmetry_Pilot,2022.1.3,Win32,144.092219,62bbe60bf3d75ef465d3e404,0,138,138,45,1,threefour,,,,,,,,,,,,,,,,,,,,,,,,,,,,,,,,,,,,,,,,,,,,,,,,,,,,,,,,,,,,,,,,,,,,,,,,,,,,,,,,,,,,,,,,,,,,,,,,,,,,,,,,,,,,,,,,,,,,,,,,,,,,,,,,,,,,,,,,,,,,,,,,,,,,,,,,
,,,,,,5f5e2b126352f0691ad71e33,62bc03380d9832bba4822fee,2022-06-29_09h46.20.010,Colour_Asymmetry_Pilot,2022.1.3,Win32,144.092219,62bbe60bf3d75ef465d3e404,0,139,139,77,1,threefour,,,,,,,,,,,,,,,,,,,,,,,,,,,,,,,,,,,,,,,,,,,,,,,,,,,,,,,,,,,,,,,,,,,,,,,,,,,,,,,,,,,,,,,,,,,,,,,,,,,,,,,,,,,,,,,,,,,,,,,,,,,,,,,,,,,,,,,,,,,,,,,,,,,,,,,,
,,,,,,5f5e2b126352f0691ad71e33,62bc03380d9832bba4822fee,2022-06-29_09h46.20.010,Colour_Asymmetry_Pilot,2022.1.3,Win32,144.092219,62bbe60bf3d75ef465d3e404,0,140,140,158,1,fourtwo,,,,,,,,,,,,,,,,,,,,,,,,,,,,,,,,,,,,,,,,,,,,,,,,,,,,,,,,,,,,,,,,,,,,,,,,,,,,,,,,,,,,,,,,,,,,,,,,,,,,,,,,,,,,,,,,,,,,,,,,,,,,,,,,,,,,,,,,,,,,,,,,,,,,,,,,
,,,,,,5f5e2b126352f0691ad71e33,62bc03380d9832bba4822fee,2022-06-29_09h46.20.010,Colour_Asymmetry_Pilot,2022.1.3,Win32,144.092219,62bbe60bf3d75ef465d3e404,0,141,141,17,1,onethree,,,,,,,,,,,,,,,,,,,,,,,,,,,,,,,,,,,,,,,,,,,,,,,,,,,,,,,,,,,,,,,,,,,,,,,,,,,,,,,,,,,,,,,,,,,,,,,,,,,,,,,,,,,,,,,,,,,,,,,,,,,,,,,,,,,,,,,,,,,,,,,,,,,,,,,,
,,,,,,5f5e2b126352f0691ad71e33,62bc03380d9832bba4822fee,2022-06-29_09h46.20.010,Colour_Asymmetry_Pilot,2022.1.3,Win32,144.092219,62bbe60bf3d75ef465d3e404,0,142,142,3,1,twofour,,,,,,,,,,,,,,,,,,,,,,,,,,,,,,,,,,,,,,,,,,,,,,,,,,,,,,,,,,,,,,,,,,,,,,,,,,,,,,,,,,,,,,,,,,,,,,,,,,,,,,,,,,,,,,,,,,,,,,,,,,,,,,,,,,,,,,,,,,,,,,,,,,,,,,,,
,,,,,,5f5e2b126352f0691ad71e33,62bc03380d9832bba4822fee,2022-06-29_09h46.20.010,Colour_Asymmetry_Pilot,2022.1.3,Win32,144.092219,62bbe60bf3d75ef465d3e404,0,143,143,70,1,fourtwo,,,,,,,,,,,,,,,,,,,,,,,,,,,,,,,,,,,,,,,,,,,,,,,,,,,,,,,,,,,,,,,,,,,,,,,,,,,,,,,,,,,,,,,,,,,,,,,,,,,,,,,,,,,,,,,,,,,,,,,,,,,,,,,,,,,,,,,,,,,,,,,,,,,,,,,,
,,,,,,5f5e2b126352f0691ad71e33,62bc03380d9832bba4822fee,2022-06-29_09h46.20.010,Colour_Asymmetry_Pilot,2022.1.3,Win32,144.092219,62bbe60bf3d75ef465d3e404,0,144,144,153,1,onethree,,,,,,,,,,,,,,,,,,,,,,,,,,,,,,,,,,,,,,,,,,,,,,,,,,,,,,,,,,,,,,,,,,,,,,,,,,,,,,,,,,,,,,,,,,,,,,,,,,,,,,,,,,,,,,,,,,,,,,,,,,,,,,,,,,,,,,,,,,,,,,,,,,,,,,,,
,,,,,,5f5e2b126352f0691ad71e33,62bc03380d9832bba4822fee,2022-06-29_09h46.20.010,Colour_Asymmetry_Pilot,2022.1.3,Win32,144.092219,62bbe60bf3d75ef465d3e404,0,145,145,104,1,onetwo,,,,,,,,,,,,,,,,,,,,,,,,,,,,,,,,,,,,,,,,,,,,,,,,,,,,,,,,,,,,,,,,,,,,,,,,,,,,,,,,,,,,,,,,,,,,,,,,,,,,,,,,,,,,,,,,,,,,,,,,,,,,,,,,,,,,,,,,,,,,,,,,,,,,,,,,
,,,,,,5f5e2b126352f0691ad71e33,62bc03380d9832bba4822fee,2022-06-29_09h46.20.010,Colour_Asymmetry_Pilot,2022.1.3,Win32,144.092219,62bbe60bf3d75ef465d3e404,0,146,146,63,1,fourthree,,,,,,,,,,,,,,,,,,,,,,,,,,,,,,,,,,,,,,,,,,,,,,,,,,,,,,,,,,,,,,,,,,,,,,,,,,,,,,,,,,,,,,,,,,,,,,,,,,,,,,,,,,,,,,,,,,,,,,,,,,,,,,,,,,,,,,,,,,,,,,,,,,,,,,,,
,,,,,,5f5e2b126352f0691ad71e33,62bc03380d9832bba4822fee,2022-06-29_09h46.20.010,Colour_Asymmetry_Pilot,2022.1.3,Win32,144.092219,62bbe60bf3d75ef465d3e404,0,147,147,151,1,fourthree,,,,,,,,,,,,,,,,,,,,,,,,,,,,,,,,,,,,,,,,,,,,,,,,,,,,,,,,,,,,,,,,,,,,,,,,,,,,,,,,,,,,,,,,,,,,,,,,,,,,,,,,,,,,,,,,,,,,,,,,,,,,,,,,,,,,,,,,,,,,,,,,,,,,,,,,
,,,,,,5f5e2b126352f0691ad71e33,62bc03380d9832bba4822fee,2022-06-29_09h46.20.010,Colour_Asymmetry_Pilot,2022.1.3,Win32,144.092219,62bbe60bf3d75ef465d3e404,0,148,148,83,1,twofour,,,,,,,,,,,,,,,,,,,,,,,,,,,,,,,,,,,,,,,,,,,,,,,,,,,,,,,,,,,,,,,,,,,,,,,,,,,,,,,,,,,,,,,,,,,,,,,,,,,,,,,,,,,,,,,,,,,,,,,,,,,,,,,,,,,,,,,,,,,,,,,,,,,,,,,,
,,,,,,5f5e2b126352f0691ad71e33,62bc03380d9832bba4822fee,2022-06-29_09h46.20.010,Colour_Asymmetry_Pilot,2022.1.3,Win32,144.092219,62bbe60bf3d75ef465d3e404,0,149,149,115,1,twofour,,,,,,,,,,,,,,,,,,,,,,,,,,,,,,,,,,,,,,,,,,,,,,,,,,,,,,,,,,,,,,,,,,,,,,,,,,,,,,,,,,,,,,,,,,,,,,,,,,,,,,,,,,,,,,,,,,,,,,,,,,,,,,,,,,,,,,,,,,,,,,,,,,,,,,,,
,,,,,,5f5e2b126352f0691ad71e33,62bc03380d9832bba4822fee,2022-06-29_09h46.20.010,Colour_Asymmetry_Pilot,2022.1.3,Win32,144.092219,62bbe60bf3d75ef465d3e404,0,150,150,112,1,onetwo,,,,,,,,,,,,,,,,,,,,,,,,,,,,,,,,,,,,,,,,,,,,,,,,,,,,,,,,,,,,,,,,,,,,,,,,,,,,,,,,,,,,,,,,,,,,,,,,,,,,,,,,,,,,,,,,,,,,,,,,,,,,,,,,,,,,,,,,,,,,,,,,,,,,,,,,
,,,,,,5f5e2b126352f0691ad71e33,62bc03380d9832bba4822fee,2022-06-29_09h46.20.010,Colour_Asymmetry_Pilot,2022.1.3,Win32,144.092219,62bbe60bf3d75ef465d3e404,0,151,151,126,1,fourtwo,,,,,,,,,,,,,,,,,,,,,,,,,,,,,,,,,,,,,,,,,,,,,,,,,,,,,,,,,,,,,,,,,,,,,,,,,,,,,,,,,,,,,,,,,,,,,,,,,,,,,,,,,,,,,,,,,,,,,,,,,,,,,,,,,,,,,,,,,,,,,,,,,,,,,,,,
,,,,,,5f5e2b126352f0691ad71e33,62bc03380d9832bba4822fee,2022-06-29_09h46.20.010,Colour_Asymmetry_Pilot,2022.1.3,Win32,144.092219,62bbe60bf3d75ef465d3e404,0,152,152,82,1,twoone,,,,,,,,,,,,,,,,,,,,,,,,,,,,,,,,,,,,,,,,,,,,,,,,,,,,,,,,,,,,,,,,,,,,,,,,,,,,,,,,,,,,,,,,,,,,,,,,,,,,,,,,,,,,,,,,,,,,,,,,,,,,,,,,,,,,,,,,,,,,,,,,,,,,,,,,
,,,,,,5f5e2b126352f0691ad71e33,62bc03380d9832bba4822fee,2022-06-29_09h46.20.010,Colour_Asymmetry_Pilot,2022.1.3,Win32,144.092219,62bbe60bf3d75ef465d3e404,0,153,153,94,1,fourtwo,,,,,,,,,,,,,,,,,,,,,,,,,,,,,,,,,,,,,,,,,,,,,,,,,,,,,,,,,,,,,,,,,,,,,,,,,,,,,,,,,,,,,,,,,,,,,,,,,,,,,,,,,,,,,,,,,,,,,,,,,,,,,,,,,,,,,,,,,,,,,,,,,,,,,,,,
,,,,,,5f5e2b126352f0691ad71e33,62bc03380d9832bba4822fee,2022-06-29_09h46.20.010,Colour_Asymmetry_Pilot,2022.1.3,Win32,144.092219,62bbe60bf3d75ef465d3e404,0,154,154,152,1,onetwo,,,,,,,,,,,,,,,,,,,,,,,,,,,,,,,,,,,,,,,,,,,,,,,,,,,,,,,,,,,,,,,,,,,,,,,,,,,,,,,,,,,,,,,,,,,,,,,,,,,,,,,,,,,,,,,,,,,,,,,,,,,,,,,,,,,,,,,,,,,,,,,,,,,,,,,,
,,,,,,5f5e2b126352f0691ad71e33,62bc03380d9832bba4822fee,2022-06-29_09h46.20.010,Colour_Asymmetry_Pilot,2022.1.3,Win32,144.092219,62bbe60bf3d75ef465d3e404,0,155,155,124,1,threeone,,,,,,,,,,,,,,,,,,,,,,,,,,,,,,,,,,,,,,,,,,,,,,,,,,,,,,,,,,,,,,,,,,,,,,,,,,,,,,,,,,,,,,,,,,,,,,,,,,,,,,,,,,,,,,,,,,,,,,,,,,,,,,,,,,,,,,,,,,,,,,,,,,,,,,,,
,,,,,,5f5e2b126352f0691ad71e33,62bc03380d9832bba4822fee,2022-06-29_09h46.20.010,Colour_Asymmetry_Pilot,2022.1.3,Win32,144.092219,62bbe60bf3d75ef465d3e404,0,156,156,72,1,onetwo,,,,,,,,,,,,,,,,,,,,,,,,,,,,,,,,,,,,,,,,,,,,,,,,,,,,,,,,,,,,,,,,,,,,,,,,,,,,,,,,,,,,,,,,,,,,,,,,,,,,,,,,,,,,,,,,,,,,,,,,,,,,,,,,,,,,,,,,,,,,,,,,,,,,,,,,
,,,,,,5f5e2b126352f0691ad71e33,62bc03380d9832bba4822fee,2022-06-29_09h46.20.010,Colour_Asymmetry_Pilot,2022.1.3,Win32,144.092219,62bbe60bf3d75ef465d3e404,0,157,157,49,1,onethree,,,,,,,,,,,,,,,,,,,,,,,,,,,,,,,,,,,,,,,,,,,,,,,,,,,,,,,,,,,,,,,,,,,,,,,,,,,,,,,,,,,,,,,,,,,,,,,,,,,,,,,,,,,,,,,,,,,,,,,,,,,,,,,,,,,,,,,,,,,,,,,,,,,,,,,,
,,,,,,5f5e2b126352f0691ad71e33,62bc03380d9832bba4822fee,2022-06-29_09h46.20.010,Colour_Asymmetry_Pilot,2022.1.3,Win32,144.092219,62bbe60bf3d75ef465d3e404,0,158,158,62,1,fourtwo,,,,,,,,,,,,,,,,,,,,,,,,,,,,,,,,,,,,,,,,,,,,,,,,,,,,,,,,,,,,,,,,,,,,,,,,,,,,,,,,,,,,,,,,,,,,,,,,,,,,,,,,,,,,,,,,,,,,,,,,,,,,,,,,,,,,,,,,,,,,,,,,,,,,,,,,
,,,,,,5f5e2b126352f0691ad71e33,62bc03380d9832bba4822fee,2022-06-29_09h46.20.010,Colour_Asymmetry_Pilot,2022.1.3,Win32,144.092219,62bbe60bf3d75ef465d3e404,0,159,159,146,1,twoone,,,,,,,,,,,,,,,,,,,,,,,,,,,,,,,,,,,,,,,,,,,,,,,,,,,,,,,,,,,,,,,,,,,,,,,,,,,,,,,,,,,,,,,,,,,,,,,,,,,,,,,,,,,,,,,,,,,,,,,,,,,,,,,,,,,,,,,,,,,,,,,,,,,,,,,,
,,,,,,5f5e2b126352f0691ad71e33,62bc03380d9832bba4822fee,2022-06-29_09h46.20.010,Colour_Asymmetry_Pilot,2022.1.3,Win32,144.092219,62bbe60bf3d75ef465d3e404,0,160,160,108,1,threeone,,,,,,,,,,,,,,,,,,,,,,,,,,,,,,,,,,,,,,,,,,,,,,,,,,,,,,,,,,,,,,,,,,,,,,,,,,,,,,,,,,,,,,,,,,,,,,,,,,,,,,,,,,,,,,,,,,,,,,,,,,,,,,,,,,,,,,,,,,,,,,,,,,,,,,,,
,,,,,,5f5e2b126352f0691ad71e33,62bc03380d9832bba4822fee,2022-06-29_09h46.20.010,Colour_Asymmetry_Pilot,2022.1.3,Win32,144.092219,62bbe60bf3d75ef465d3e404,0,161,161,119,1,fourthree,,,,,,,,,,,,,,,,,,,,,,,,,,,,,,,,,,,,,,,,,,,,,,,,,,,,,,,,,,,,,,,,,,,,,,,,,,,,,,,,,,,,,,,,,,,,,,,,,,,,,,,,,,,,,,,,,,,,,,,,,,,,,,,,,,,,,,,,,,,,,,,,,,,,,,,,
,,,,,,5f5e2b126352f0691ad71e33,62bc03380d9832bba4822fee,2022-06-29_09h46.20.010,Colour_Asymmetry_Pilot,2022.1.3,Win32,144.092219,62bbe60bf3d75ef465d3e404,,,,,,,space,622.369,space,10.229,space,25.149,space,7.619,space,3.142,space,3.803,"[-0.2942,-0.7648,-0.7492000000000001]",twoone,"[-0.6706000000000001,-0.6157999999999999,-0.6786]",-4,10.877,-45,110,1,0,0,response7disk_5,-3,1,1,0,0,rectangle_8,64,-125,1,0,0,response3disk_7,4,1,-2,12,1,0,0,rectangle_4,0,0,0,0,1,,,,,,,,,,,,,,,,,,,,,,,,,,,,,,,,,,,,,,,,,,,,,,,,,,,,,,,,,,,,,,,,,,,,,,,,,,,,,,,,,,,,,,,,,,,,,,,,,,,,,,,,
,,,,,,5f5e2b126352f0691ad71e33,62bc03380d9832bba4822fee,2022-06-29_09h46.20.010,Colour_Asymmetry_Pilot,2022.1.3,Win32,144.092219,62bbe60bf3d75ef465d3e404,,,,,,,,,,,,,,,,,,,"[-0.24719999999999998,-0.0354000000000001,0.3175999999999999]",threeone,"[0.2862,0.7802,0.3568]",-4,5.792,-65,119,1,0,0,response7disk_5,-9,4,1,0,0,rectangle_8,-9,4,1,0,0,,,1,-9,4,1,0,0,,1,0,1,0,1,,,,,,,,,,,,,,,,,,,,,,,,,,,,,,,,,,,,,,,,,,,,,,,,,,,,,,,,,,,,,,,,,,,,,,,,,,,,,,,,,,,,,,,,,,,,,,,,,,,,,,,,
,,,,,,5f5e2b126352f0691ad71e33,62bc03380d9832bba4822fee,2022-06-29_09h46.20.010,Colour_Asymmetry_Pilot,2022.1.3,Win32,144.092219,62bbe60bf3d75ef465d3e404,,,,,,,,,,,,,,,,,,,"[-0.7412000000000001,-0.08239999999999992,-0.6864]",threeone,"[0.23120000000000007,-0.7726,-0.34120000000000006]",-4,1.062,-60,111,1,0,0,response7disk_5,3,-6,1,0,0,rectangle_8,44,-130,1,0,0,response3disk_7,4,1,-10,7,1,0,0,rectangle_4,2,0,2,0,1,,,,,,,,,,,,,,,,,,,,,,,,,,,,,,,,,,,,,,,,,,,,,,,,,,,,,,,,,,,,,,,,,,,,,,,,,,,,,,,,,,,,,,,,,,,,,,,,,,,,,,,,
,,,,,,5f5e2b126352f0691ad71e33,62bc03380d9832bba4822fee,2022-06-29_09h46.20.010,Colour_Asymmetry_Pilot,2022.1.3,Win32,144.092219,62bbe60bf3d75ef465d3e404,,,,,,,,,,,,,,,,,,,"[0.9686000000000001,0.3802000000000001,0.19999999999999996]",onetwo,"[-0.17659999999999998,-0.2864,-0.8354]",-3,1.84,-93,40,1,0,0,response7disk_5,-4,-15,1,0,0,rectangle_8,-4,-15,1,0,0,,,1,-4,-15,1,0,0,,3,0,3,0,1,,,,,,,,,,,,,,,,,,,,,,,,,,,,,,,,,,,,,,,,,,,,,,,,,,,,,,,,,,,,,,,,,,,,,,,,,,,,,,,,,,,,,,,,,,,,,,,,,,,,,,,,
,,,,,,5f5e2b126352f0691ad71e33,62bc03380d9832bba4822fee,2022-06-29_09h46.20.010,Colour_Asymmetry_Pilot,2022.1.3,Win32,144.092219,62bbe60bf3d75ef465d3e404,,,,,,,,,,,,,,,,,,,"[0.19199999999999995,0.18419999999999992,0.5136000000000001]",twofour,"[-0.26280000000000003,-0.4746,-0.2158]",-1,3.328,-35,-77,1,0,0,response5disk_5,-12,1,1,0,0,rectangle_8,-12,1,1,0,0,,,1,-12,1,1,0,0,,4,0,4,0,1,,,,,,,,,,,,,,,,,,,,,,,,,,,,,,,,,,,,,,,,,,,,,,,,,,,,,,,,,,,,,,,,,,,,,,,,,,,,,,,,,,,,,,,,,,,,,,,,,,,,,,,,
,,,,,,5f5e2b126352f0691ad71e33,62bc03380d9832bba4822fee,2022-06-29_09h46.20.010,Colour_Asymmetry_Pilot,2022.1.3,Win32,144.092219,62bbe60bf3d75ef465d3e404,,,,,,,,,,,,,,,,,,,"[-0.8118,-0.8198,-0.5452]",twofour,"[-0.5922000000000001,-0.7492000000000001,-0.5296000000000001]",-1,3.265,-44,-84,1,0,0,response5disk_5,-16,2,1,0,0,rectangle_8,-16,2,1,0,0,,,1,-16,2,1,0,0,,5,0,5,0,1,,,,,,,,,,,,,,,,,,,,,,,,,,,,,,,,,,,,,,,,,,,,,,,,,,,,,,,,,,,,,,,,,,,,,,,,,,,,,,,,,,,,,,,,,,,,,,,,,,,,,,,,
,,,,,,5f5e2b126352f0691ad71e33,62bc03380d9832bba4822fee,2022-06-29_09h46.20.010,Colour_Asymmetry_Pilot,2022.1.3,Win32,144.092219,62bbe60bf3d75ef465d3e404,,,,,,,,,,,,,,,,,,,"[0.2784,-0.31000000000000005,-0.5452]",fourthree,"[-0.48240000000000005,0.3175999999999999,0.2156]",-4,0.855,-42,72,1,0,0,response7disk_5,3,3,1,0,0,rectangle_8,3,3,1,0,0,,,1,3,3,1,0,0,,6,0,6,0,1,,,,,,,,,,,,,,,,,,,,,,,,,,,,,,,,,,,,,,,,,,,,,,,,,,,,,,,,,,,,,,,,,,,,,,,,,,,,,,,,,,,,,,,,,,,,,,,,,,,,,,,,
,,,,,,5f5e2b126352f0691ad71e33,62bc03380d9832bba4822fee,2022-06-29_09h46.20.010,Colour_Asymmetry_Pilot,2022.1.3,Win32,144.092219,62bbe60bf3d75ef465d3e404,,,,,,,,,,,,,,,,,,,,fourtwo,,-4,1.112,,,,,,,,,,,,,,,,,,,,,,,,,,,,,,,,space,4.068,"[-0.9766,-0.34920000000000007,0.2156]","[0.2862,0.7802,0.3568]",-40,93,1,0,0,response7disk,-7,3,1,0,0,rectangle,-7,3,1,0,0,,2,0,0,-7,3,1,0,0,0,0,0,69,1,69,first,,,,,,,,,,,,,,,,,,,,,,,,,,,,,,,,,,,,,,,,,,,,,,,,,,,,,,,,,,,,,,,,,,,
,,,,,,5f5e2b126352f0691ad71e33,62bc03380d9832bba4822fee,2022-06-29_09h46.20.010,Colour_Asymmetry_Pilot,2022.1.3,Win32,144.092219,62bbe60bf3d75ef465d3e404,,,,,,,,,,,,,,,,,,,,fourthree,,-4,0.438,,,,,,,,,,,,,,,,,,,,,,,,,,,,,,,,,,"[1,0.12939999999999996,-1]","[0.12939999999999996,-0.2864,0.3253999999999999]",-41,75,1,0,0,response7disk,-4,-4,1,0,0,rectangle,-4,-4,1,0,0,,2,0.001,0,-4,-4,1,0,0,0,1,1,110,1,29,second,,,,,,,,,,,,,,,,,,,,,,,,,,,,,,,,,,,,,,,,,,,,,,,,,,,,,,,,,,,,,,,,,,,
,,,,,,5f5e2b126352f0691ad71e33,62bc03380d9832bba4822fee,2022-06-29_09h46.20.010,Colour_Asymmetry_Pilot,2022.1.3,Win32,144.092219,62bbe60bf3d75ef465d3e404,,,,,,,,,,,,,,,,,,,,onetwo,,-3,0.993,,,,,,,,,,,,,,,,,,,,,,,,,,,,,,,,,,"[-0.06680000000000008,-0.45100000000000007,-0.906]","[-0.6706000000000001,-0.6157999999999999,-0.6786]",-72,32,1,0,0,response7disk,-4,-13,1,0,0,rectangle,-4,-13,1,0,0,,2,0,0,-4,-13,1,0,0,0,2,2,113,1,32,second,,,,,,,,,,,,,,,,,,,,,,,,,,,,,,,,,,,,,,,,,,,,,,,,,,,,,,,,,,,,,,,,,,,
,,,,,,5f5e2b126352f0691ad71e33,62bc03380d9832bba4822fee,2022-06-29_09h46.20.010,Colour_Asymmetry_Pilot,2022.1.3,Win32,144.092219,62bbe60bf3d75ef465d3e404,,,,,,,,,,,,,,,,,,,,twofour,,-4,0.389,,,,,,,,,,,,,,,,,,,,,,,,,,,,,,,,,,"[-0.6942,-0.7648,-0.12959999999999994]","[0.37240000000000006,-0.050999999999999934,-0.5216]",-43,68,1,0,0,response7disk,-13,-8,1,0,0,rectangle,-13,-8,1,0,0,,2,0,0,-13,-8,1,0,0,0,3,3,143,1,62,second,,,,,,,,,,,,,,,,,,,,,,,,,,,,,,,,,,,,,,,,,,,,,,,,,,,,,,,,,,,,,,,,,,,
,,,,,,5f5e2b126352f0691ad71e33,62bc03380d9832bba4822fee,2022-06-29_09h46.20.010,Colour_Asymmetry_Pilot,2022.1.3,Win32,144.092219,62bbe60bf3d75ef465d3e404,,,,,,,,,,,,,,,,,,,,twoone,,-4,0.597,,,,,,,,,,,,,,,,,,,,,,,,,,,,,,,,,,"[0.4196,0.4665999999999999,0.3568]","[-0.5922000000000001,-0.7492000000000001,-0.5296000000000001]",-40,76,1,0,0,response7disk,-4,3,1,0,0,rectangle,-4,3,1,0,0,,1,0.001,0,-4,3,1,0,0,0,4,4,115,1,34,second,,,,,,,,,,,,,,,,,,,,,,,,,,,,,,,,,,,,,,,,,,,,,,,,,,,,,,,,,,,,,,,,,,,
,,,,,,5f5e2b126352f0691ad71e33,62bc03380d9832bba4822fee,2022-06-29_09h46.20.010,Colour_Asymmetry_Pilot,2022.1.3,Win32,144.092219,62bbe60bf3d75ef465d3e404,,,,,,,,,,,,,,,,,,,,threeone,,-4,0.39,,,,,,,,,,,,,,,,,,,,,,,,,,,,,,,,,,"[-0.17659999999999998,0.3253999999999999,0.19999999999999996]","[-0.01980000000000004,-0.5138,-0.38039999999999996]",-38,70,1,0,0,response7disk,-4,-12,1,0,0,rectangle,-4,-12,1,0,0,,1,0,0,-4,-12,1,0,0,0,5,5,127,1,46,second,,,,,,,,,,,,,,,,,,,,,,,,,,,,,,,,,,,,,,,,,,,,,,,,,,,,,,,,,,,,,,,,,,,
,,,,,,5f5e2b126352f0691ad71e33,62bc03380d9832bba4822fee,2022-06-29_09h46.20.010,Colour_Asymmetry_Pilot,2022.1.3,Win32,144.092219,62bbe60bf3d75ef465d3e404,,,,,,,,,,,,,,,,,,,,twoone,,-3,0.571,,,,,,,,,,,,,,,,,,,,,,,,,,,,,,,,,,"[-0.45899999999999996,-0.3256,-0.9374]","[-0.24719999999999998,-0.0354000000000001,0.3175999999999999]",-66,28,1,0,0,response7disk,-14,-14,1,0,0,rectangle,-14,-14,1,0,0,,1,0.001,0,-14,-14,1,0,0,0,6,6,6,1,6,first,,,,,,,,,,,,,,,,,,,,,,,,,,,,,,,,,,,,,,,,,,,,,,,,,,,,,,,,,,,,,,,,,,,
,,,,,,5f5e2b126352f0691ad71e33,62bc03380d9832bba4822fee,2022-06-29_09h46.20.010,Colour_Asymmetry_Pilot,2022.1.3,Win32,144.092219,62bbe60bf3d75ef465d3e404,,,,,,,,,,,,,,,,,,,,twoone,,-4,0.285,,,,,,,,,,,,,,,,,,,,,,,,,,,,,,,,,,"[-0.4276,0.0038000000000000256,-0.3256]","[0.796,0.2156,-0.27859999999999996]",-49,86,1,0,0,response7disk,-11,7,1,0,0,rectangle,-11,7,1,0,0,,2,0,0,-11,7,1,0,0,0,7,7,101,1,20,second,,,,,,,,,,,,,,,,,,,,,,,,,,,,,,,,,,,,,,,,,,,,,,,,,,,,,,,,,,,,,,,,,,,
,,,,,,5f5e2b126352f0691ad71e33,62bc03380d9832bba4822fee,2022-06-29_09h46.20.010,Colour_Asymmetry_Pilot,2022.1.3,Win32,144.092219,62bbe60bf3d75ef465d3e404,,,,,,,,,,,,,,,,,,,,fourthree,,3,4.764,,,,,,,,,,,,,,,,,,,,,,,,,,,,,,,,,,"[-0.050999999999999934,-0.6706000000000001,-0.804]","[0.22340000000000004,-0.9296,-0.7884]",73,39,1,0,0,response1disk,30,2,1,0,0,rectangle,30,2,1,0,0,,2,0,0,30,2,1,0,0,0,8,8,154,1,73,second,,,,,,,,,,,,,,,,,,,,,,,,,,,,,,,,,,,,,,,,,,,,,,,,,,,,,,,,,,,,,,,,,,,
,,,,,,5f5e2b126352f0691ad71e33,62bc03380d9832bba4822fee,2022-06-29_09h46.20.010,Colour_Asymmetry_Pilot,2022.1.3,Win32,144.092219,62bbe60bf3d75ef465d3e404,,,,,,,,,,,,,,,,,,,,twofour,,-4,0.333,,,,,,,,,,,,,,,,,,,,,,,,,,,,,,,,,,"[-0.6942,-0.7648,-0.12959999999999994]","[0.8274000000000001,-0.5844,-0.9452]",-47,80,1,0,0,response7disk,-2,-21,1,0,0,rectangle,-2,-21,1,0,0,,2,0.001,0,-2,-21,1,0,0,0,9,9,135,1,54,second,,,,,,,,,,,,,,,,,,,,,,,,,,,,,,,,,,,,,,,,,,,,,,,,,,,,,,,,,,,,,,,,,,,
,,,,,,5f5e2b126352f0691ad71e33,62bc03380d9832bba4822fee,2022-06-29_09h46.20.010,Colour_Asymmetry_Pilot,2022.1.3,Win32,144.092219,62bbe60bf3d75ef465d3e404,,,,,,,,,,,,,,,,,,,,onethree,,-3,0.855,,,,,,,,,,,,,,,,,,,,,,,,,,,,,,,,,,"[-0.4746,-0.0354000000000001,0.5449999999999999]","[-0.26280000000000003,-0.2158,-0.3256]",-77,48,1,0,0,response7disk,-22,6,1,0,0,rectangle,-22,6,1,0,0,,1,0,0,-22,6,1,0,0,0,10,10,70,1,70,first,,,,,,,,,,,,,,,,,,,,,,,,,,,,,,,,,,,,,,,,,,,,,,,,,,,,,,,,,,,,,,,,,,,
,,,,,,5f5e2b126352f0691ad71e33,62bc03380d9832bba4822fee,2022-06-29_09h46.20.010,Colour_Asymmetry_Pilot,2022.1.3,Win32,144.092219,62bbe60bf3d75ef465d3e404,,,,,,,,,,,,,,,,,,,,twofour,,-1,0.659,,,,,,,,,,,,,,,,,,,,,,,,,,,,,,,,,,"[-0.8982,-0.37259999999999993,0.2784]","[-0.48240000000000005,0.3175999999999999,0.2156]",-40,-72,1,0,0,response5disk,11,12,1,0,0,rectangle,11,12,1,0,0,,3,0.001,0,11,12,1,0,0,0,11,11,77,1,77,first,,,,,,,,,,,,,,,,,,,,,,,,,,,,,,,,,,,,,,,,,,,,,,,,,,,,,,,,,,,,,,,,,,,
,,,,,,5f5e2b126352f0691ad71e33,62bc03380d9832bba4822fee,2022-06-29_09h46.20.010,Colour_Asymmetry_Pilot,2022.1.3,Win32,144.092219,62bbe60bf3d75ef465d3e404,,,,,,,,,,,,,,,,,,,,threefour,,-4,0.576,,,,,,,,,,,,,,,,,,,,,,,,,,,,,,,,,,"[-0.4902000000000001,0.2704,-0.45899999999999996]","[-0.9688,-0.4902000000000001,-0.12159999999999993]",-48,85,1,0,0,response7disk,-28,17,1,0,0,rectangle,-28,17,1,0,0,,3,0,0,-28,17,1,0,0,0,12,12,92,1,11,second,,,,,,,,,,,,,,,,,,,,,,,,,,,,,,,,,,,,,,,,,,,,,,,,,,,,,,,,,,,,,,,,,,,
,,,,,,5f5e2b126352f0691ad71e33,62bc03380d9832bba4822fee,2022-06-29_09h46.20.010,Colour_Asymmetry_Pilot,2022.1.3,Win32,144.092219,62bbe60bf3d75ef465d3e404,,,,,,,,,,,,,,,,,,,,onethree,,-3,0.785,,,,,,,,,,,,,,,,,,,,,,,,,,,,,,,,,,"[1,0.12939999999999996,-1]","[-0.2942,-0.7648,-0.7492000000000001]",-59,35,1,0,0,response7disk,-12,-6,1,0,0,rectangle,-12,-6,1,0,0,,2,0,0,-12,-6,1,0,0,0,13,13,16,1,16,first,,,,,,,,,,,,,,,,,,,,,,,,,,,,,,,,,,,,,,,,,,,,,,,,,,,,,,,,,,,,,,,,,,,
,,,,,,5f5e2b126352f0691ad71e33,62bc03380d9832bba4822fee,2022-06-29_09h46.20.010,Colour_Asymmetry_Pilot,2022.1.3,Win32,144.092219,62bbe60bf3d75ef465d3e404,,,,,,,,,,,,,,,,,,,,onethree,,-4,0.341,,,,,,,,,,,,,,,,,,,,,,,,,,,,,,,,,,"[-0.5922000000000001,-0.7492000000000001,-0.5296000000000001]","[0.3802000000000001,0.19199999999999995,-0.6394]",-48,80,1,0,0,response7disk,-9,7,1,0,0,rectangle,-9,7,1,0,0,,3,0,0,-9,7,1,0,0,0,14,14,21,1,21,first,,,,,,,,,,,,,,,,,,,,,,,,,,,,,,,,,,,,,,,,,,,,,,,,,,,,,,,,,,,,,,,,,,,
,,,,,,5f5e2b126352f0691ad71e33,62bc03380d9832bba4822fee,2022-06-29_09h46.20.010,Colour_Asymmetry_Pilot,2022.1.3,Win32,144.092219,62bbe60bf3d75ef465d3e404,,,,,,,,,,,,,,,,,,,,threeone,,-4,0.34,,,,,,,,,,,,,,,,,,,,,,,,,,,,,,,,,,"[0.7646000000000002,0.07440000000000002,0.2704]","[-0.2942,-0.24719999999999998,-0.357]",-51,77,1,0,0,response7disk,-16,4,1,0,0,rectangle,-16,4,1,0,0,,2,0,0,-16,4,1,0,0,0,15,15,94,1,13,second,,,,,,,,,,,,,,,,,,,,,,,,,,,,,,,,,,,,,,,,,,,,,,,,,,,,,,,,,,,,,,,,,,,
,,,,,,5f5e2b126352f0691ad71e33,62bc03380d9832bba4822fee,2022-06-29_09h46.20.010,Colour_Asymmetry_Pilot,2022.1.3,Win32,144.092219,62bbe60bf3d75ef465d3e404,,,,,,,,,,,,,,,,,,,,onetwo,,-2,0.86,,,,,,,,,,,,,,,,,,,,,,,,,,,,,,,,,,"[0.34099999999999997,0.12939999999999996,-0.9766]","[0.8115999999999999,-0.0040000000000000036,-0.09819999999999995]",-63,-35,1,0,0,response5disk,-10,7,1,0,0,rectangle,-10,7,1,0,0,,2,0.001,0,-10,7,1,0,0,0,16,16,156,1,75,second,,,,,,,,,,,,,,,,,,,,,,,,,,,,,,,,,,,,,,,,,,,,,,,,,,,,,,,,,,,,,,,,,,,
,,,,,,5f5e2b126352f0691ad71e33,62bc03380d9832bba4822fee,2022-06-29_09h46.20.010,Colour_Asymmetry_Pilot,2022.1.3,Win32,144.092219,62bbe60bf3d75ef465d3e404,,,,,,,,,,,,,,,,,,,,twoone,,-4,0.236,,,,,,,,,,,,,,,,,,,,,,,,,,,,,,,,,,"[-0.4902000000000001,0.2704,-0.45899999999999996]","[-0.5922000000000001,-0.7492000000000001,-0.5296000000000001]",-46,97,1,0,0,response7disk,-8,4,1,0,0,rectangle,-8,4,1,0,0,,2,0,0,-8,4,1,0,0,0,17,17,88,1,7,second,,,,,,,,,,,,,,,,,,,,,,,,,,,,,,,,,,,,,,,,,,,,,,,,,,,,,,,,,,,,,,,,,,,
,,,,,,5f5e2b126352f0691ad71e33,62bc03380d9832bba4822fee,2022-06-29_09h46.20.010,Colour_Asymmetry_Pilot,2022.1.3,Win32,144.092219,62bbe60bf3d75ef465d3e404,,,,,,,,,,,,,,,,,,,,twoone,,-1,0.59,,,,,,,,,,,,,,,,,,,,,,,,,,,,,,,,,,"[-0.2942,-0.7648,-0.7492000000000001]","[-0.26280000000000003,-0.4746,-0.2158]",-39,-68,1,0,0,response5disk,5,4,1,0,0,rectangle,5,4,1,0,0,,3,0.001,0,5,4,1,0,0,0,18,18,118,1,37,second,,,,,,,,,,,,,,,,,,,,,,,,,,,,,,,,,,,,,,,,,,,,,,,,,,,,,,,,,,,,,,,,,,,
,,,,,,5f5e2b126352f0691ad71e33,62bc03380d9832bba4822fee,2022-06-29_09h46.20.010,Colour_Asymmetry_Pilot,2022.1.3,Win32,144.092219,62bbe60bf3d75ef465d3e404,,,,,,,,,,,,,,,,,,,,onethree,,-4,0.25,,,,,,,,,,,,,,,,,,,,,,,,,,,,,,,,,,"[0.5449999999999999,-0.31000000000000005,-0.0354000000000001]","[-0.10599999999999998,-0.10599999999999998,0.5841999999999998]",-54,88,1,0,0,response7disk,-22,-9,1,0,0,rectangle,-22,-9,1,0,0,,1,0.001,0,-22,-9,1,0,0,0,19,19,2,1,2,first,,,,,,,,,,,,,,,,,,,,,,,,,,,,,,,,,,,,,,,,,,,,,,,,,,,,,,,,,,,,,,,,,,,
,,,,,,5f5e2b126352f0691ad71e33,62bc03380d9832bba4822fee,2022-06-29_09h46.20.010,Colour_Asymmetry_Pilot,2022.1.3,Win32,144.092219,62bbe60bf3d75ef465d3e404,,,,,,,,,,,,,,,,,,,,threeone,,3,0.681,,,,,,,,,,,,,,,,,,,,,,,,,,,,,,,,,,"[-0.5922000000000001,-0.7492000000000001,-0.5296000000000001]","[-0.26280000000000003,-0.4746,-0.2158]",78,47,1,0,0,response1disk,13,-11,1,0,0,rectangle,13,-11,1,0,0,,2,0.001,0,13,-11,1,0,0,0,20,20,106,1,25,second,,,,,,,,,,,,,,,,,,,,,,,,,,,,,,,,,,,,,,,,,,,,,,,,,,,,,,,,,,,,,,,,,,,
