trials.thisRepN,trials.thisTrialN,trials.thisN,trials.thisIndex,trials.ran,Colourcodes,participant,session,date,expName,psychopyVersion,OS,frameRate,study_id,trials_4.thisRepN,trials_4.thisTrialN,trials_4.thisN,trials_4.thisIndex,trials_4.ran,StimulusPos,key_resp.keys,key_resp.rt,key_resp_2.keys,key_resp_2.rt,key_resp_15.keys,key_resp_15.rt,key_resp_17.keys,key_resp_17.rt,key_resp_9.keys,key_resp_9.rt,key_resp_10.keys,key_resp_10.rt,Circle1_col,Ecc,Circle2_col,similarity,response_time,mouse_5.x,mouse_5.y,mouse_5.leftButton,mouse_5.midButton,mouse_5.rightButton,mouse_5.clicked_name,mouse_10.x,mouse_10.y,mouse_10.leftButton,mouse_10.midButton,mouse_10.rightButton,mouse_10.clicked_name,mouse_7.x,mouse_7.y,mouse_7.leftButton,mouse_7.midButton,mouse_7.rightButton,catchnumberprac,mouse_6.x,mouse_6.y,mouse_6.leftButton,mouse_6.midButton,mouse_6.rightButton,duringprac.thisRepN,duringprac.thisTrialN,duringprac.thisN,duringprac.thisIndex,duringprac.ran,mouse_7.clicked_name,catchprac,mouse_6.clicked_name,key_resp_22.keys,key_resp_22.rt,Circle1_colour,Circle2_colour,mouse.x,mouse.y,mouse.leftButton,mouse.midButton,mouse.rightButton,mouse.clicked_name,mouse_2.x,mouse_2.y,mouse_2.leftButton,mouse_2.midButton,mouse_2.rightButton,mouse_2.clicked_name,mouse_3.x,mouse_3.y,mouse_3.leftButton,mouse_3.midButton,mouse_3.rightButton,catchresponse,catchnumber,response_time_catch,Catch,mouse_11.x,mouse_11.y,mouse_11.leftButton,mouse_11.midButton,mouse_11.rightButton,trials_2.thisRepN,trials_2.thisTrialN,trials_2.thisN,trials_2.thisIndex,trials_2.ran,Colourpair,Temporder,mouse_3.clicked_name,mouse_11.clicked_name,trials_3.thisRepN,trials_3.thisTrialN,trials_3.thisN,trials_3.thisIndex,trials_3.ran,key_resp_instr_Ishi.keys,key_resp_instr_Ishi.rt,Ishi_trial_keyresp.keys,Ishi_trial_keyresp.rt,Ishi_textbox.text,Ishi_loop.thisRepN,Ishi_loop.thisTrialN,Ishi_loop.thisN,Ishi_loop.thisIndex,Ishi_loop.ran,imageaddress,textbox.text,mouse_4.x,mouse_4.y,mouse_4.leftButton,mouse_4.midButton,mouse_4.rightButton,mouse_4.clicked_name,textbox_2.text,mouse_8.x,mouse_8.y,mouse_8.leftButton,mouse_8.midButton,mouse_8.rightButton,mouse_8.clicked_name,textbox_3.text,mouse_9.x,mouse_9.y,mouse_9.leftButton,mouse_9.midButton,mouse_9.rightButton,mouse_9.clicked_name,textbox_4.text,mouse_12.x,mouse_12.y,mouse_12.leftButton,mouse_12.midButton,mouse_12.rightButton,mouse_12.clicked_name,textbox_5.text,mouse_13.x,mouse_13.y,mouse_13.leftButton,mouse_13.midButton,mouse_13.rightButton,mouse_13.clicked_name,textbox_6.text,mouse_14.x,mouse_14.y,mouse_14.leftButton,mouse_14.midButton,mouse_14.rightButton,textbox_7.text,mouse_15.x,mouse_15.y,mouse_15.leftButton,mouse_15.midButton,mouse_15.rightButton,mouse_15.clicked_name
0,0,0,35,1,,6171acbd32a9c4f4a22f348a,62bbfae82e1821b3c42830cb,2022-06-29_09h13.26.127,Colour_Asymmetry_Pilot,2022.1.3,Win32,60.01680471,62bbe60bf3d75ef465d3e404,,,,,,,,,,,,,,,,,,,,,,,,,,,,,,,,,,,,,,,,,,,,,,,,,,,,,,,,,,,,,,,,,,,,,,,,,,,,,,,,,,,,,,,,,,,,,,,,,,,,,,,,,,,,,,,,,,,,,,,,,,,,,,,,,,,,,,,,,,,,,,,,,,,,,,,,,,,,,
0,1,1,11,1,,6171acbd32a9c4f4a22f348a,62bbfae82e1821b3c42830cb,2022-06-29_09h13.26.127,Colour_Asymmetry_Pilot,2022.1.3,Win32,60.01680471,62bbe60bf3d75ef465d3e404,,,,,,,,,,,,,,,,,,,,,,,,,,,,,,,,,,,,,,,,,,,,,,,,,,,,,,,,,,,,,,,,,,,,,,,,,,,,,,,,,,,,,,,,,,,,,,,,,,,,,,,,,,,,,,,,,,,,,,,,,,,,,,,,,,,,,,,,,,,,,,,,,,,,,,,,,,,,,
0,2,2,2,1,,6171acbd32a9c4f4a22f348a,62bbfae82e1821b3c42830cb,2022-06-29_09h13.26.127,Colour_Asymmetry_Pilot,2022.1.3,Win32,60.01680471,62bbe60bf3d75ef465d3e404,,,,,,,,,,,,,,,,,,,,,,,,,,,,,,,,,,,,,,,,,,,,,,,,,,,,,,,,,,,,,,,,,,,,,,,,,,,,,,,,,,,,,,,,,,,,,,,,,,,,,,,,,,,,,,,,,,,,,,,,,,,,,,,,,,,,,,,,,,,,,,,,,,,,,,,,,,,,,
0,3,3,32,1,,6171acbd32a9c4f4a22f348a,62bbfae82e1821b3c42830cb,2022-06-29_09h13.26.127,Colour_Asymmetry_Pilot,2022.1.3,Win32,60.01680471,62bbe60bf3d75ef465d3e404,,,,,,,,,,,,,,,,,,,,,,,,,,,,,,,,,,,,,,,,,,,,,,,,,,,,,,,,,,,,,,,,,,,,,,,,,,,,,,,,,,,,,,,,,,,,,,,,,,,,,,,,,,,,,,,,,,,,,,,,,,,,,,,,,,,,,,,,,,,,,,,,,,,,,,,,,,,,,
0,4,4,21,1,,6171acbd32a9c4f4a22f348a,62bbfae82e1821b3c42830cb,2022-06-29_09h13.26.127,Colour_Asymmetry_Pilot,2022.1.3,Win32,60.01680471,62bbe60bf3d75ef465d3e404,,,,,,,,,,,,,,,,,,,,,,,,,,,,,,,,,,,,,,,,,,,,,,,,,,,,,,,,,,,,,,,,,,,,,,,,,,,,,,,,,,,,,,,,,,,,,,,,,,,,,,,,,,,,,,,,,,,,,,,,,,,,,,,,,,,,,,,,,,,,,,,,,,,,,,,,,,,,,
0,5,5,46,1,,6171acbd32a9c4f4a22f348a,62bbfae82e1821b3c42830cb,2022-06-29_09h13.26.127,Colour_Asymmetry_Pilot,2022.1.3,Win32,60.01680471,62bbe60bf3d75ef465d3e404,,,,,,,,,,,,,,,,,,,,,,,,,,,,,,,,,,,,,,,,,,,,,,,,,,,,,,,,,,,,,,,,,,,,,,,,,,,,,,,,,,,,,,,,,,,,,,,,,,,,,,,,,,,,,,,,,,,,,,,,,,,,,,,,,,,,,,,,,,,,,,,,,,,,,,,,,,,,,
0,6,6,87,1,,6171acbd32a9c4f4a22f348a,62bbfae82e1821b3c42830cb,2022-06-29_09h13.26.127,Colour_Asymmetry_Pilot,2022.1.3,Win32,60.01680471,62bbe60bf3d75ef465d3e404,,,,,,,,,,,,,,,,,,,,,,,,,,,,,,,,,,,,,,,,,,,,,,,,,,,,,,,,,,,,,,,,,,,,,,,,,,,,,,,,,,,,,,,,,,,,,,,,,,,,,,,,,,,,,,,,,,,,,,,,,,,,,,,,,,,,,,,,,,,,,,,,,,,,,,,,,,,,,
0,7,7,10,1,,6171acbd32a9c4f4a22f348a,62bbfae82e1821b3c42830cb,2022-06-29_09h13.26.127,Colour_Asymmetry_Pilot,2022.1.3,Win32,60.01680471,62bbe60bf3d75ef465d3e404,,,,,,,,,,,,,,,,,,,,,,,,,,,,,,,,,,,,,,,,,,,,,,,,,,,,,,,,,,,,,,,,,,,,,,,,,,,,,,,,,,,,,,,,,,,,,,,,,,,,,,,,,,,,,,,,,,,,,,,,,,,,,,,,,,,,,,,,,,,,,,,,,,,,,,,,,,,,,
0,8,8,0,1,,6171acbd32a9c4f4a22f348a,62bbfae82e1821b3c42830cb,2022-06-29_09h13.26.127,Colour_Asymmetry_Pilot,2022.1.3,Win32,60.01680471,62bbe60bf3d75ef465d3e404,,,,,,,,,,,,,,,,,,,,,,,,,,,,,,,,,,,,,,,,,,,,,,,,,,,,,,,,,,,,,,,,,,,,,,,,,,,,,,,,,,,,,,,,,,,,,,,,,,,,,,,,,,,,,,,,,,,,,,,,,,,,,,,,,,,,,,,,,,,,,,,,,,,,,,,,,,,,,
0,9,9,48,1,,6171acbd32a9c4f4a22f348a,62bbfae82e1821b3c42830cb,2022-06-29_09h13.26.127,Colour_Asymmetry_Pilot,2022.1.3,Win32,60.01680471,62bbe60bf3d75ef465d3e404,,,,,,,,,,,,,,,,,,,,,,,,,,,,,,,,,,,,,,,,,,,,,,,,,,,,,,,,,,,,,,,,,,,,,,,,,,,,,,,,,,,,,,,,,,,,,,,,,,,,,,,,,,,,,,,,,,,,,,,,,,,,,,,,,,,,,,,,,,,,,,,,,,,,,,,,,,,,,
0,10,10,64,1,,6171acbd32a9c4f4a22f348a,62bbfae82e1821b3c42830cb,2022-06-29_09h13.26.127,Colour_Asymmetry_Pilot,2022.1.3,Win32,60.01680471,62bbe60bf3d75ef465d3e404,,,,,,,,,,,,,,,,,,,,,,,,,,,,,,,,,,,,,,,,,,,,,,,,,,,,,,,,,,,,,,,,,,,,,,,,,,,,,,,,,,,,,,,,,,,,,,,,,,,,,,,,,,,,,,,,,,,,,,,,,,,,,,,,,,,,,,,,,,,,,,,,,,,,,,,,,,,,,
0,11,11,6,1,,6171acbd32a9c4f4a22f348a,62bbfae82e1821b3c42830cb,2022-06-29_09h13.26.127,Colour_Asymmetry_Pilot,2022.1.3,Win32,60.01680471,62bbe60bf3d75ef465d3e404,,,,,,,,,,,,,,,,,,,,,,,,,,,,,,,,,,,,,,,,,,,,,,,,,,,,,,,,,,,,,,,,,,,,,,,,,,,,,,,,,,,,,,,,,,,,,,,,,,,,,,,,,,,,,,,,,,,,,,,,,,,,,,,,,,,,,,,,,,,,,,,,,,,,,,,,,,,,,
0,12,12,37,1,,6171acbd32a9c4f4a22f348a,62bbfae82e1821b3c42830cb,2022-06-29_09h13.26.127,Colour_Asymmetry_Pilot,2022.1.3,Win32,60.01680471,62bbe60bf3d75ef465d3e404,,,,,,,,,,,,,,,,,,,,,,,,,,,,,,,,,,,,,,,,,,,,,,,,,,,,,,,,,,,,,,,,,,,,,,,,,,,,,,,,,,,,,,,,,,,,,,,,,,,,,,,,,,,,,,,,,,,,,,,,,,,,,,,,,,,,,,,,,,,,,,,,,,,,,,,,,,,,,
0,13,13,47,1,,6171acbd32a9c4f4a22f348a,62bbfae82e1821b3c42830cb,2022-06-29_09h13.26.127,Colour_Asymmetry_Pilot,2022.1.3,Win32,60.01680471,62bbe60bf3d75ef465d3e404,,,,,,,,,,,,,,,,,,,,,,,,,,,,,,,,,,,,,,,,,,,,,,,,,,,,,,,,,,,,,,,,,,,,,,,,,,,,,,,,,,,,,,,,,,,,,,,,,,,,,,,,,,,,,,,,,,,,,,,,,,,,,,,,,,,,,,,,,,,,,,,,,,,,,,,,,,,,,
0,14,14,54,1,,6171acbd32a9c4f4a22f348a,62bbfae82e1821b3c42830cb,2022-06-29_09h13.26.127,Colour_Asymmetry_Pilot,2022.1.3,Win32,60.01680471,62bbe60bf3d75ef465d3e404,,,,,,,,,,,,,,,,,,,,,,,,,,,,,,,,,,,,,,,,,,,,,,,,,,,,,,,,,,,,,,,,,,,,,,,,,,,,,,,,,,,,,,,,,,,,,,,,,,,,,,,,,,,,,,,,,,,,,,,,,,,,,,,,,,,,,,,,,,,,,,,,,,,,,,,,,,,,,
0,15,15,89,1,,6171acbd32a9c4f4a22f348a,62bbfae82e1821b3c42830cb,2022-06-29_09h13.26.127,Colour_Asymmetry_Pilot,2022.1.3,Win32,60.01680471,62bbe60bf3d75ef465d3e404,,,,,,,,,,,,,,,,,,,,,,,,,,,,,,,,,,,,,,,,,,,,,,,,,,,,,,,,,,,,,,,,,,,,,,,,,,,,,,,,,,,,,,,,,,,,,,,,,,,,,,,,,,,,,,,,,,,,,,,,,,,,,,,,,,,,,,,,,,,,,,,,,,,,,,,,,,,,,
0,16,16,45,1,,6171acbd32a9c4f4a22f348a,62bbfae82e1821b3c42830cb,2022-06-29_09h13.26.127,Colour_Asymmetry_Pilot,2022.1.3,Win32,60.01680471,62bbe60bf3d75ef465d3e404,,,,,,,,,,,,,,,,,,,,,,,,,,,,,,,,,,,,,,,,,,,,,,,,,,,,,,,,,,,,,,,,,,,,,,,,,,,,,,,,,,,,,,,,,,,,,,,,,,,,,,,,,,,,,,,,,,,,,,,,,,,,,,,,,,,,,,,,,,,,,,,,,,,,,,,,,,,,,
0,17,17,3,1,,6171acbd32a9c4f4a22f348a,62bbfae82e1821b3c42830cb,2022-06-29_09h13.26.127,Colour_Asymmetry_Pilot,2022.1.3,Win32,60.01680471,62bbe60bf3d75ef465d3e404,,,,,,,,,,,,,,,,,,,,,,,,,,,,,,,,,,,,,,,,,,,,,,,,,,,,,,,,,,,,,,,,,,,,,,,,,,,,,,,,,,,,,,,,,,,,,,,,,,,,,,,,,,,,,,,,,,,,,,,,,,,,,,,,,,,,,,,,,,,,,,,,,,,,,,,,,,,,,
0,18,18,44,1,,6171acbd32a9c4f4a22f348a,62bbfae82e1821b3c42830cb,2022-06-29_09h13.26.127,Colour_Asymmetry_Pilot,2022.1.3,Win32,60.01680471,62bbe60bf3d75ef465d3e404,,,,,,,,,,,,,,,,,,,,,,,,,,,,,,,,,,,,,,,,,,,,,,,,,,,,,,,,,,,,,,,,,,,,,,,,,,,,,,,,,,,,,,,,,,,,,,,,,,,,,,,,,,,,,,,,,,,,,,,,,,,,,,,,,,,,,,,,,,,,,,,,,,,,,,,,,,,,,
0,19,19,8,1,,6171acbd32a9c4f4a22f348a,62bbfae82e1821b3c42830cb,2022-06-29_09h13.26.127,Colour_Asymmetry_Pilot,2022.1.3,Win32,60.01680471,62bbe60bf3d75ef465d3e404,,,,,,,,,,,,,,,,,,,,,,,,,,,,,,,,,,,,,,,,,,,,,,,,,,,,,,,,,,,,,,,,,,,,,,,,,,,,,,,,,,,,,,,,,,,,,,,,,,,,,,,,,,,,,,,,,,,,,,,,,,,,,,,,,,,,,,,,,,,,,,,,,,,,,,,,,,,,,
0,20,20,23,1,,6171acbd32a9c4f4a22f348a,62bbfae82e1821b3c42830cb,2022-06-29_09h13.26.127,Colour_Asymmetry_Pilot,2022.1.3,Win32,60.01680471,62bbe60bf3d75ef465d3e404,,,,,,,,,,,,,,,,,,,,,,,,,,,,,,,,,,,,,,,,,,,,,,,,,,,,,,,,,,,,,,,,,,,,,,,,,,,,,,,,,,,,,,,,,,,,,,,,,,,,,,,,,,,,,,,,,,,,,,,,,,,,,,,,,,,,,,,,,,,,,,,,,,,,,,,,,,,,,
0,21,21,43,1,,6171acbd32a9c4f4a22f348a,62bbfae82e1821b3c42830cb,2022-06-29_09h13.26.127,Colour_Asymmetry_Pilot,2022.1.3,Win32,60.01680471,62bbe60bf3d75ef465d3e404,,,,,,,,,,,,,,,,,,,,,,,,,,,,,,,,,,,,,,,,,,,,,,,,,,,,,,,,,,,,,,,,,,,,,,,,,,,,,,,,,,,,,,,,,,,,,,,,,,,,,,,,,,,,,,,,,,,,,,,,,,,,,,,,,,,,,,,,,,,,,,,,,,,,,,,,,,,,,
0,22,22,20,1,,6171acbd32a9c4f4a22f348a,62bbfae82e1821b3c42830cb,2022-06-29_09h13.26.127,Colour_Asymmetry_Pilot,2022.1.3,Win32,60.01680471,62bbe60bf3d75ef465d3e404,,,,,,,,,,,,,,,,,,,,,,,,,,,,,,,,,,,,,,,,,,,,,,,,,,,,,,,,,,,,,,,,,,,,,,,,,,,,,,,,,,,,,,,,,,,,,,,,,,,,,,,,,,,,,,,,,,,,,,,,,,,,,,,,,,,,,,,,,,,,,,,,,,,,,,,,,,,,,
0,23,23,29,1,,6171acbd32a9c4f4a22f348a,62bbfae82e1821b3c42830cb,2022-06-29_09h13.26.127,Colour_Asymmetry_Pilot,2022.1.3,Win32,60.01680471,62bbe60bf3d75ef465d3e404,,,,,,,,,,,,,,,,,,,,,,,,,,,,,,,,,,,,,,,,,,,,,,,,,,,,,,,,,,,,,,,,,,,,,,,,,,,,,,,,,,,,,,,,,,,,,,,,,,,,,,,,,,,,,,,,,,,,,,,,,,,,,,,,,,,,,,,,,,,,,,,,,,,,,,,,,,,,,
0,24,24,60,1,,6171acbd32a9c4f4a22f348a,62bbfae82e1821b3c42830cb,2022-06-29_09h13.26.127,Colour_Asymmetry_Pilot,2022.1.3,Win32,60.01680471,62bbe60bf3d75ef465d3e404,,,,,,,,,,,,,,,,,,,,,,,,,,,,,,,,,,,,,,,,,,,,,,,,,,,,,,,,,,,,,,,,,,,,,,,,,,,,,,,,,,,,,,,,,,,,,,,,,,,,,,,,,,,,,,,,,,,,,,,,,,,,,,,,,,,,,,,,,,,,,,,,,,,,,,,,,,,,,
0,25,25,50,1,,6171acbd32a9c4f4a22f348a,62bbfae82e1821b3c42830cb,2022-06-29_09h13.26.127,Colour_Asymmetry_Pilot,2022.1.3,Win32,60.01680471,62bbe60bf3d75ef465d3e404,,,,,,,,,,,,,,,,,,,,,,,,,,,,,,,,,,,,,,,,,,,,,,,,,,,,,,,,,,,,,,,,,,,,,,,,,,,,,,,,,,,,,,,,,,,,,,,,,,,,,,,,,,,,,,,,,,,,,,,,,,,,,,,,,,,,,,,,,,,,,,,,,,,,,,,,,,,,,
0,26,26,13,1,,6171acbd32a9c4f4a22f348a,62bbfae82e1821b3c42830cb,2022-06-29_09h13.26.127,Colour_Asymmetry_Pilot,2022.1.3,Win32,60.01680471,62bbe60bf3d75ef465d3e404,,,,,,,,,,,,,,,,,,,,,,,,,,,,,,,,,,,,,,,,,,,,,,,,,,,,,,,,,,,,,,,,,,,,,,,,,,,,,,,,,,,,,,,,,,,,,,,,,,,,,,,,,,,,,,,,,,,,,,,,,,,,,,,,,,,,,,,,,,,,,,,,,,,,,,,,,,,,,
0,27,27,14,1,,6171acbd32a9c4f4a22f348a,62bbfae82e1821b3c42830cb,2022-06-29_09h13.26.127,Colour_Asymmetry_Pilot,2022.1.3,Win32,60.01680471,62bbe60bf3d75ef465d3e404,,,,,,,,,,,,,,,,,,,,,,,,,,,,,,,,,,,,,,,,,,,,,,,,,,,,,,,,,,,,,,,,,,,,,,,,,,,,,,,,,,,,,,,,,,,,,,,,,,,,,,,,,,,,,,,,,,,,,,,,,,,,,,,,,,,,,,,,,,,,,,,,,,,,,,,,,,,,,
0,28,28,84,1,,6171acbd32a9c4f4a22f348a,62bbfae82e1821b3c42830cb,2022-06-29_09h13.26.127,Colour_Asymmetry_Pilot,2022.1.3,Win32,60.01680471,62bbe60bf3d75ef465d3e404,,,,,,,,,,,,,,,,,,,,,,,,,,,,,,,,,,,,,,,,,,,,,,,,,,,,,,,,,,,,,,,,,,,,,,,,,,,,,,,,,,,,,,,,,,,,,,,,,,,,,,,,,,,,,,,,,,,,,,,,,,,,,,,,,,,,,,,,,,,,,,,,,,,,,,,,,,,,,
0,29,29,59,1,,6171acbd32a9c4f4a22f348a,62bbfae82e1821b3c42830cb,2022-06-29_09h13.26.127,Colour_Asymmetry_Pilot,2022.1.3,Win32,60.01680471,62bbe60bf3d75ef465d3e404,,,,,,,,,,,,,,,,,,,,,,,,,,,,,,,,,,,,,,,,,,,,,,,,,,,,,,,,,,,,,,,,,,,,,,,,,,,,,,,,,,,,,,,,,,,,,,,,,,,,,,,,,,,,,,,,,,,,,,,,,,,,,,,,,,,,,,,,,,,,,,,,,,,,,,,,,,,,,
0,30,30,72,1,,6171acbd32a9c4f4a22f348a,62bbfae82e1821b3c42830cb,2022-06-29_09h13.26.127,Colour_Asymmetry_Pilot,2022.1.3,Win32,60.01680471,62bbe60bf3d75ef465d3e404,,,,,,,,,,,,,,,,,,,,,,,,,,,,,,,,,,,,,,,,,,,,,,,,,,,,,,,,,,,,,,,,,,,,,,,,,,,,,,,,,,,,,,,,,,,,,,,,,,,,,,,,,,,,,,,,,,,,,,,,,,,,,,,,,,,,,,,,,,,,,,,,,,,,,,,,,,,,,
0,31,31,91,1,,6171acbd32a9c4f4a22f348a,62bbfae82e1821b3c42830cb,2022-06-29_09h13.26.127,Colour_Asymmetry_Pilot,2022.1.3,Win32,60.01680471,62bbe60bf3d75ef465d3e404,,,,,,,,,,,,,,,,,,,,,,,,,,,,,,,,,,,,,,,,,,,,,,,,,,,,,,,,,,,,,,,,,,,,,,,,,,,,,,,,,,,,,,,,,,,,,,,,,,,,,,,,,,,,,,,,,,,,,,,,,,,,,,,,,,,,,,,,,,,,,,,,,,,,,,,,,,,,,
0,32,32,24,1,,6171acbd32a9c4f4a22f348a,62bbfae82e1821b3c42830cb,2022-06-29_09h13.26.127,Colour_Asymmetry_Pilot,2022.1.3,Win32,60.01680471,62bbe60bf3d75ef465d3e404,,,,,,,,,,,,,,,,,,,,,,,,,,,,,,,,,,,,,,,,,,,,,,,,,,,,,,,,,,,,,,,,,,,,,,,,,,,,,,,,,,,,,,,,,,,,,,,,,,,,,,,,,,,,,,,,,,,,,,,,,,,,,,,,,,,,,,,,,,,,,,,,,,,,,,,,,,,,,
0,33,33,51,1,,6171acbd32a9c4f4a22f348a,62bbfae82e1821b3c42830cb,2022-06-29_09h13.26.127,Colour_Asymmetry_Pilot,2022.1.3,Win32,60.01680471,62bbe60bf3d75ef465d3e404,,,,,,,,,,,,,,,,,,,,,,,,,,,,,,,,,,,,,,,,,,,,,,,,,,,,,,,,,,,,,,,,,,,,,,,,,,,,,,,,,,,,,,,,,,,,,,,,,,,,,,,,,,,,,,,,,,,,,,,,,,,,,,,,,,,,,,,,,,,,,,,,,,,,,,,,,,,,,
0,34,34,27,1,,6171acbd32a9c4f4a22f348a,62bbfae82e1821b3c42830cb,2022-06-29_09h13.26.127,Colour_Asymmetry_Pilot,2022.1.3,Win32,60.01680471,62bbe60bf3d75ef465d3e404,,,,,,,,,,,,,,,,,,,,,,,,,,,,,,,,,,,,,,,,,,,,,,,,,,,,,,,,,,,,,,,,,,,,,,,,,,,,,,,,,,,,,,,,,,,,,,,,,,,,,,,,,,,,,,,,,,,,,,,,,,,,,,,,,,,,,,,,,,,,,,,,,,,,,,,,,,,,,
0,35,35,36,1,,6171acbd32a9c4f4a22f348a,62bbfae82e1821b3c42830cb,2022-06-29_09h13.26.127,Colour_Asymmetry_Pilot,2022.1.3,Win32,60.01680471,62bbe60bf3d75ef465d3e404,,,,,,,,,,,,,,,,,,,,,,,,,,,,,,,,,,,,,,,,,,,,,,,,,,,,,,,,,,,,,,,,,,,,,,,,,,,,,,,,,,,,,,,,,,,,,,,,,,,,,,,,,,,,,,,,,,,,,,,,,,,,,,,,,,,,,,,,,,,,,,,,,,,,,,,,,,,,,
0,36,36,19,1,,6171acbd32a9c4f4a22f348a,62bbfae82e1821b3c42830cb,2022-06-29_09h13.26.127,Colour_Asymmetry_Pilot,2022.1.3,Win32,60.01680471,62bbe60bf3d75ef465d3e404,,,,,,,,,,,,,,,,,,,,,,,,,,,,,,,,,,,,,,,,,,,,,,,,,,,,,,,,,,,,,,,,,,,,,,,,,,,,,,,,,,,,,,,,,,,,,,,,,,,,,,,,,,,,,,,,,,,,,,,,,,,,,,,,,,,,,,,,,,,,,,,,,,,,,,,,,,,,,
0,37,37,58,1,,6171acbd32a9c4f4a22f348a,62bbfae82e1821b3c42830cb,2022-06-29_09h13.26.127,Colour_Asymmetry_Pilot,2022.1.3,Win32,60.01680471,62bbe60bf3d75ef465d3e404,,,,,,,,,,,,,,,,,,,,,,,,,,,,,,,,,,,,,,,,,,,,,,,,,,,,,,,,,,,,,,,,,,,,,,,,,,,,,,,,,,,,,,,,,,,,,,,,,,,,,,,,,,,,,,,,,,,,,,,,,,,,,,,,,,,,,,,,,,,,,,,,,,,,,,,,,,,,,
0,38,38,31,1,,6171acbd32a9c4f4a22f348a,62bbfae82e1821b3c42830cb,2022-06-29_09h13.26.127,Colour_Asymmetry_Pilot,2022.1.3,Win32,60.01680471,62bbe60bf3d75ef465d3e404,,,,,,,,,,,,,,,,,,,,,,,,,,,,,,,,,,,,,,,,,,,,,,,,,,,,,,,,,,,,,,,,,,,,,,,,,,,,,,,,,,,,,,,,,,,,,,,,,,,,,,,,,,,,,,,,,,,,,,,,,,,,,,,,,,,,,,,,,,,,,,,,,,,,,,,,,,,,,
0,39,39,83,1,,6171acbd32a9c4f4a22f348a,62bbfae82e1821b3c42830cb,2022-06-29_09h13.26.127,Colour_Asymmetry_Pilot,2022.1.3,Win32,60.01680471,62bbe60bf3d75ef465d3e404,,,,,,,,,,,,,,,,,,,,,,,,,,,,,,,,,,,,,,,,,,,,,,,,,,,,,,,,,,,,,,,,,,,,,,,,,,,,,,,,,,,,,,,,,,,,,,,,,,,,,,,,,,,,,,,,,,,,,,,,,,,,,,,,,,,,,,,,,,,,,,,,,,,,,,,,,,,,,
0,40,40,39,1,,6171acbd32a9c4f4a22f348a,62bbfae82e1821b3c42830cb,2022-06-29_09h13.26.127,Colour_Asymmetry_Pilot,2022.1.3,Win32,60.01680471,62bbe60bf3d75ef465d3e404,,,,,,,,,,,,,,,,,,,,,,,,,,,,,,,,,,,,,,,,,,,,,,,,,,,,,,,,,,,,,,,,,,,,,,,,,,,,,,,,,,,,,,,,,,,,,,,,,,,,,,,,,,,,,,,,,,,,,,,,,,,,,,,,,,,,,,,,,,,,,,,,,,,,,,,,,,,,,
0,41,41,18,1,,6171acbd32a9c4f4a22f348a,62bbfae82e1821b3c42830cb,2022-06-29_09h13.26.127,Colour_Asymmetry_Pilot,2022.1.3,Win32,60.01680471,62bbe60bf3d75ef465d3e404,,,,,,,,,,,,,,,,,,,,,,,,,,,,,,,,,,,,,,,,,,,,,,,,,,,,,,,,,,,,,,,,,,,,,,,,,,,,,,,,,,,,,,,,,,,,,,,,,,,,,,,,,,,,,,,,,,,,,,,,,,,,,,,,,,,,,,,,,,,,,,,,,,,,,,,,,,,,,
0,42,42,30,1,,6171acbd32a9c4f4a22f348a,62bbfae82e1821b3c42830cb,2022-06-29_09h13.26.127,Colour_Asymmetry_Pilot,2022.1.3,Win32,60.01680471,62bbe60bf3d75ef465d3e404,,,,,,,,,,,,,,,,,,,,,,,,,,,,,,,,,,,,,,,,,,,,,,,,,,,,,,,,,,,,,,,,,,,,,,,,,,,,,,,,,,,,,,,,,,,,,,,,,,,,,,,,,,,,,,,,,,,,,,,,,,,,,,,,,,,,,,,,,,,,,,,,,,,,,,,,,,,,,
0,43,43,65,1,,6171acbd32a9c4f4a22f348a,62bbfae82e1821b3c42830cb,2022-06-29_09h13.26.127,Colour_Asymmetry_Pilot,2022.1.3,Win32,60.01680471,62bbe60bf3d75ef465d3e404,,,,,,,,,,,,,,,,,,,,,,,,,,,,,,,,,,,,,,,,,,,,,,,,,,,,,,,,,,,,,,,,,,,,,,,,,,,,,,,,,,,,,,,,,,,,,,,,,,,,,,,,,,,,,,,,,,,,,,,,,,,,,,,,,,,,,,,,,,,,,,,,,,,,,,,,,,,,,
0,44,44,28,1,,6171acbd32a9c4f4a22f348a,62bbfae82e1821b3c42830cb,2022-06-29_09h13.26.127,Colour_Asymmetry_Pilot,2022.1.3,Win32,60.01680471,62bbe60bf3d75ef465d3e404,,,,,,,,,,,,,,,,,,,,,,,,,,,,,,,,,,,,,,,,,,,,,,,,,,,,,,,,,,,,,,,,,,,,,,,,,,,,,,,,,,,,,,,,,,,,,,,,,,,,,,,,,,,,,,,,,,,,,,,,,,,,,,,,,,,,,,,,,,,,,,,,,,,,,,,,,,,,,
0,45,45,92,1,,6171acbd32a9c4f4a22f348a,62bbfae82e1821b3c42830cb,2022-06-29_09h13.26.127,Colour_Asymmetry_Pilot,2022.1.3,Win32,60.01680471,62bbe60bf3d75ef465d3e404,,,,,,,,,,,,,,,,,,,,,,,,,,,,,,,,,,,,,,,,,,,,,,,,,,,,,,,,,,,,,,,,,,,,,,,,,,,,,,,,,,,,,,,,,,,,,,,,,,,,,,,,,,,,,,,,,,,,,,,,,,,,,,,,,,,,,,,,,,,,,,,,,,,,,,,,,,,,,
0,46,46,57,1,,6171acbd32a9c4f4a22f348a,62bbfae82e1821b3c42830cb,2022-06-29_09h13.26.127,Colour_Asymmetry_Pilot,2022.1.3,Win32,60.01680471,62bbe60bf3d75ef465d3e404,,,,,,,,,,,,,,,,,,,,,,,,,,,,,,,,,,,,,,,,,,,,,,,,,,,,,,,,,,,,,,,,,,,,,,,,,,,,,,,,,,,,,,,,,,,,,,,,,,,,,,,,,,,,,,,,,,,,,,,,,,,,,,,,,,,,,,,,,,,,,,,,,,,,,,,,,,,,,
0,47,47,68,1,,6171acbd32a9c4f4a22f348a,62bbfae82e1821b3c42830cb,2022-06-29_09h13.26.127,Colour_Asymmetry_Pilot,2022.1.3,Win32,60.01680471,62bbe60bf3d75ef465d3e404,,,,,,,,,,,,,,,,,,,,,,,,,,,,,,,,,,,,,,,,,,,,,,,,,,,,,,,,,,,,,,,,,,,,,,,,,,,,,,,,,,,,,,,,,,,,,,,,,,,,,,,,,,,,,,,,,,,,,,,,,,,,,,,,,,,,,,,,,,,,,,,,,,,,,,,,,,,,,
0,48,48,81,1,,6171acbd32a9c4f4a22f348a,62bbfae82e1821b3c42830cb,2022-06-29_09h13.26.127,Colour_Asymmetry_Pilot,2022.1.3,Win32,60.01680471,62bbe60bf3d75ef465d3e404,,,,,,,,,,,,,,,,,,,,,,,,,,,,,,,,,,,,,,,,,,,,,,,,,,,,,,,,,,,,,,,,,,,,,,,,,,,,,,,,,,,,,,,,,,,,,,,,,,,,,,,,,,,,,,,,,,,,,,,,,,,,,,,,,,,,,,,,,,,,,,,,,,,,,,,,,,,,,
0,49,49,74,1,,6171acbd32a9c4f4a22f348a,62bbfae82e1821b3c42830cb,2022-06-29_09h13.26.127,Colour_Asymmetry_Pilot,2022.1.3,Win32,60.01680471,62bbe60bf3d75ef465d3e404,,,,,,,,,,,,,,,,,,,,,,,,,,,,,,,,,,,,,,,,,,,,,,,,,,,,,,,,,,,,,,,,,,,,,,,,,,,,,,,,,,,,,,,,,,,,,,,,,,,,,,,,,,,,,,,,,,,,,,,,,,,,,,,,,,,,,,,,,,,,,,,,,,,,,,,,,,,,,
0,50,50,52,1,,6171acbd32a9c4f4a22f348a,62bbfae82e1821b3c42830cb,2022-06-29_09h13.26.127,Colour_Asymmetry_Pilot,2022.1.3,Win32,60.01680471,62bbe60bf3d75ef465d3e404,,,,,,,,,,,,,,,,,,,,,,,,,,,,,,,,,,,,,,,,,,,,,,,,,,,,,,,,,,,,,,,,,,,,,,,,,,,,,,,,,,,,,,,,,,,,,,,,,,,,,,,,,,,,,,,,,,,,,,,,,,,,,,,,,,,,,,,,,,,,,,,,,,,,,,,,,,,,,
0,51,51,26,1,,6171acbd32a9c4f4a22f348a,62bbfae82e1821b3c42830cb,2022-06-29_09h13.26.127,Colour_Asymmetry_Pilot,2022.1.3,Win32,60.01680471,62bbe60bf3d75ef465d3e404,,,,,,,,,,,,,,,,,,,,,,,,,,,,,,,,,,,,,,,,,,,,,,,,,,,,,,,,,,,,,,,,,,,,,,,,,,,,,,,,,,,,,,,,,,,,,,,,,,,,,,,,,,,,,,,,,,,,,,,,,,,,,,,,,,,,,,,,,,,,,,,,,,,,,,,,,,,,,
0,52,52,56,1,,6171acbd32a9c4f4a22f348a,62bbfae82e1821b3c42830cb,2022-06-29_09h13.26.127,Colour_Asymmetry_Pilot,2022.1.3,Win32,60.01680471,62bbe60bf3d75ef465d3e404,,,,,,,,,,,,,,,,,,,,,,,,,,,,,,,,,,,,,,,,,,,,,,,,,,,,,,,,,,,,,,,,,,,,,,,,,,,,,,,,,,,,,,,,,,,,,,,,,,,,,,,,,,,,,,,,,,,,,,,,,,,,,,,,,,,,,,,,,,,,,,,,,,,,,,,,,,,,,
0,53,53,61,1,,6171acbd32a9c4f4a22f348a,62bbfae82e1821b3c42830cb,2022-06-29_09h13.26.127,Colour_Asymmetry_Pilot,2022.1.3,Win32,60.01680471,62bbe60bf3d75ef465d3e404,,,,,,,,,,,,,,,,,,,,,,,,,,,,,,,,,,,,,,,,,,,,,,,,,,,,,,,,,,,,,,,,,,,,,,,,,,,,,,,,,,,,,,,,,,,,,,,,,,,,,,,,,,,,,,,,,,,,,,,,,,,,,,,,,,,,,,,,,,,,,,,,,,,,,,,,,,,,,
0,54,54,78,1,,6171acbd32a9c4f4a22f348a,62bbfae82e1821b3c42830cb,2022-06-29_09h13.26.127,Colour_Asymmetry_Pilot,2022.1.3,Win32,60.01680471,62bbe60bf3d75ef465d3e404,,,,,,,,,,,,,,,,,,,,,,,,,,,,,,,,,,,,,,,,,,,,,,,,,,,,,,,,,,,,,,,,,,,,,,,,,,,,,,,,,,,,,,,,,,,,,,,,,,,,,,,,,,,,,,,,,,,,,,,,,,,,,,,,,,,,,,,,,,,,,,,,,,,,,,,,,,,,,
0,55,55,66,1,,6171acbd32a9c4f4a22f348a,62bbfae82e1821b3c42830cb,2022-06-29_09h13.26.127,Colour_Asymmetry_Pilot,2022.1.3,Win32,60.01680471,62bbe60bf3d75ef465d3e404,,,,,,,,,,,,,,,,,,,,,,,,,,,,,,,,,,,,,,,,,,,,,,,,,,,,,,,,,,,,,,,,,,,,,,,,,,,,,,,,,,,,,,,,,,,,,,,,,,,,,,,,,,,,,,,,,,,,,,,,,,,,,,,,,,,,,,,,,,,,,,,,,,,,,,,,,,,,,
0,56,56,16,1,,6171acbd32a9c4f4a22f348a,62bbfae82e1821b3c42830cb,2022-06-29_09h13.26.127,Colour_Asymmetry_Pilot,2022.1.3,Win32,60.01680471,62bbe60bf3d75ef465d3e404,,,,,,,,,,,,,,,,,,,,,,,,,,,,,,,,,,,,,,,,,,,,,,,,,,,,,,,,,,,,,,,,,,,,,,,,,,,,,,,,,,,,,,,,,,,,,,,,,,,,,,,,,,,,,,,,,,,,,,,,,,,,,,,,,,,,,,,,,,,,,,,,,,,,,,,,,,,,,
0,57,57,5,1,,6171acbd32a9c4f4a22f348a,62bbfae82e1821b3c42830cb,2022-06-29_09h13.26.127,Colour_Asymmetry_Pilot,2022.1.3,Win32,60.01680471,62bbe60bf3d75ef465d3e404,,,,,,,,,,,,,,,,,,,,,,,,,,,,,,,,,,,,,,,,,,,,,,,,,,,,,,,,,,,,,,,,,,,,,,,,,,,,,,,,,,,,,,,,,,,,,,,,,,,,,,,,,,,,,,,,,,,,,,,,,,,,,,,,,,,,,,,,,,,,,,,,,,,,,,,,,,,,,
0,58,58,25,1,,6171acbd32a9c4f4a22f348a,62bbfae82e1821b3c42830cb,2022-06-29_09h13.26.127,Colour_Asymmetry_Pilot,2022.1.3,Win32,60.01680471,62bbe60bf3d75ef465d3e404,,,,,,,,,,,,,,,,,,,,,,,,,,,,,,,,,,,,,,,,,,,,,,,,,,,,,,,,,,,,,,,,,,,,,,,,,,,,,,,,,,,,,,,,,,,,,,,,,,,,,,,,,,,,,,,,,,,,,,,,,,,,,,,,,,,,,,,,,,,,,,,,,,,,,,,,,,,,,
0,59,59,1,1,,6171acbd32a9c4f4a22f348a,62bbfae82e1821b3c42830cb,2022-06-29_09h13.26.127,Colour_Asymmetry_Pilot,2022.1.3,Win32,60.01680471,62bbe60bf3d75ef465d3e404,,,,,,,,,,,,,,,,,,,,,,,,,,,,,,,,,,,,,,,,,,,,,,,,,,,,,,,,,,,,,,,,,,,,,,,,,,,,,,,,,,,,,,,,,,,,,,,,,,,,,,,,,,,,,,,,,,,,,,,,,,,,,,,,,,,,,,,,,,,,,,,,,,,,,,,,,,,,,
0,60,60,76,1,,6171acbd32a9c4f4a22f348a,62bbfae82e1821b3c42830cb,2022-06-29_09h13.26.127,Colour_Asymmetry_Pilot,2022.1.3,Win32,60.01680471,62bbe60bf3d75ef465d3e404,,,,,,,,,,,,,,,,,,,,,,,,,,,,,,,,,,,,,,,,,,,,,,,,,,,,,,,,,,,,,,,,,,,,,,,,,,,,,,,,,,,,,,,,,,,,,,,,,,,,,,,,,,,,,,,,,,,,,,,,,,,,,,,,,,,,,,,,,,,,,,,,,,,,,,,,,,,,,
0,61,61,75,1,,6171acbd32a9c4f4a22f348a,62bbfae82e1821b3c42830cb,2022-06-29_09h13.26.127,Colour_Asymmetry_Pilot,2022.1.3,Win32,60.01680471,62bbe60bf3d75ef465d3e404,,,,,,,,,,,,,,,,,,,,,,,,,,,,,,,,,,,,,,,,,,,,,,,,,,,,,,,,,,,,,,,,,,,,,,,,,,,,,,,,,,,,,,,,,,,,,,,,,,,,,,,,,,,,,,,,,,,,,,,,,,,,,,,,,,,,,,,,,,,,,,,,,,,,,,,,,,,,,
0,62,62,88,1,,6171acbd32a9c4f4a22f348a,62bbfae82e1821b3c42830cb,2022-06-29_09h13.26.127,Colour_Asymmetry_Pilot,2022.1.3,Win32,60.01680471,62bbe60bf3d75ef465d3e404,,,,,,,,,,,,,,,,,,,,,,,,,,,,,,,,,,,,,,,,,,,,,,,,,,,,,,,,,,,,,,,,,,,,,,,,,,,,,,,,,,,,,,,,,,,,,,,,,,,,,,,,,,,,,,,,,,,,,,,,,,,,,,,,,,,,,,,,,,,,,,,,,,,,,,,,,,,,,
0,63,63,38,1,,6171acbd32a9c4f4a22f348a,62bbfae82e1821b3c42830cb,2022-06-29_09h13.26.127,Colour_Asymmetry_Pilot,2022.1.3,Win32,60.01680471,62bbe60bf3d75ef465d3e404,,,,,,,,,,,,,,,,,,,,,,,,,,,,,,,,,,,,,,,,,,,,,,,,,,,,,,,,,,,,,,,,,,,,,,,,,,,,,,,,,,,,,,,,,,,,,,,,,,,,,,,,,,,,,,,,,,,,,,,,,,,,,,,,,,,,,,,,,,,,,,,,,,,,,,,,,,,,,
0,64,64,22,1,,6171acbd32a9c4f4a22f348a,62bbfae82e1821b3c42830cb,2022-06-29_09h13.26.127,Colour_Asymmetry_Pilot,2022.1.3,Win32,60.01680471,62bbe60bf3d75ef465d3e404,,,,,,,,,,,,,,,,,,,,,,,,,,,,,,,,,,,,,,,,,,,,,,,,,,,,,,,,,,,,,,,,,,,,,,,,,,,,,,,,,,,,,,,,,,,,,,,,,,,,,,,,,,,,,,,,,,,,,,,,,,,,,,,,,,,,,,,,,,,,,,,,,,,,,,,,,,,,,
0,65,65,42,1,,6171acbd32a9c4f4a22f348a,62bbfae82e1821b3c42830cb,2022-06-29_09h13.26.127,Colour_Asymmetry_Pilot,2022.1.3,Win32,60.01680471,62bbe60bf3d75ef465d3e404,,,,,,,,,,,,,,,,,,,,,,,,,,,,,,,,,,,,,,,,,,,,,,,,,,,,,,,,,,,,,,,,,,,,,,,,,,,,,,,,,,,,,,,,,,,,,,,,,,,,,,,,,,,,,,,,,,,,,,,,,,,,,,,,,,,,,,,,,,,,,,,,,,,,,,,,,,,,,
0,66,66,90,1,,6171acbd32a9c4f4a22f348a,62bbfae82e1821b3c42830cb,2022-06-29_09h13.26.127,Colour_Asymmetry_Pilot,2022.1.3,Win32,60.01680471,62bbe60bf3d75ef465d3e404,,,,,,,,,,,,,,,,,,,,,,,,,,,,,,,,,,,,,,,,,,,,,,,,,,,,,,,,,,,,,,,,,,,,,,,,,,,,,,,,,,,,,,,,,,,,,,,,,,,,,,,,,,,,,,,,,,,,,,,,,,,,,,,,,,,,,,,,,,,,,,,,,,,,,,,,,,,,,
0,67,67,63,1,,6171acbd32a9c4f4a22f348a,62bbfae82e1821b3c42830cb,2022-06-29_09h13.26.127,Colour_Asymmetry_Pilot,2022.1.3,Win32,60.01680471,62bbe60bf3d75ef465d3e404,,,,,,,,,,,,,,,,,,,,,,,,,,,,,,,,,,,,,,,,,,,,,,,,,,,,,,,,,,,,,,,,,,,,,,,,,,,,,,,,,,,,,,,,,,,,,,,,,,,,,,,,,,,,,,,,,,,,,,,,,,,,,,,,,,,,,,,,,,,,,,,,,,,,,,,,,,,,,
0,68,68,4,1,,6171acbd32a9c4f4a22f348a,62bbfae82e1821b3c42830cb,2022-06-29_09h13.26.127,Colour_Asymmetry_Pilot,2022.1.3,Win32,60.01680471,62bbe60bf3d75ef465d3e404,,,,,,,,,,,,,,,,,,,,,,,,,,,,,,,,,,,,,,,,,,,,,,,,,,,,,,,,,,,,,,,,,,,,,,,,,,,,,,,,,,,,,,,,,,,,,,,,,,,,,,,,,,,,,,,,,,,,,,,,,,,,,,,,,,,,,,,,,,,,,,,,,,,,,,,,,,,,,
0,69,69,7,1,,6171acbd32a9c4f4a22f348a,62bbfae82e1821b3c42830cb,2022-06-29_09h13.26.127,Colour_Asymmetry_Pilot,2022.1.3,Win32,60.01680471,62bbe60bf3d75ef465d3e404,,,,,,,,,,,,,,,,,,,,,,,,,,,,,,,,,,,,,,,,,,,,,,,,,,,,,,,,,,,,,,,,,,,,,,,,,,,,,,,,,,,,,,,,,,,,,,,,,,,,,,,,,,,,,,,,,,,,,,,,,,,,,,,,,,,,,,,,,,,,,,,,,,,,,,,,,,,,,
0,70,70,80,1,,6171acbd32a9c4f4a22f348a,62bbfae82e1821b3c42830cb,2022-06-29_09h13.26.127,Colour_Asymmetry_Pilot,2022.1.3,Win32,60.01680471,62bbe60bf3d75ef465d3e404,,,,,,,,,,,,,,,,,,,,,,,,,,,,,,,,,,,,,,,,,,,,,,,,,,,,,,,,,,,,,,,,,,,,,,,,,,,,,,,,,,,,,,,,,,,,,,,,,,,,,,,,,,,,,,,,,,,,,,,,,,,,,,,,,,,,,,,,,,,,,,,,,,,,,,,,,,,,,
0,71,71,62,1,,6171acbd32a9c4f4a22f348a,62bbfae82e1821b3c42830cb,2022-06-29_09h13.26.127,Colour_Asymmetry_Pilot,2022.1.3,Win32,60.01680471,62bbe60bf3d75ef465d3e404,,,,,,,,,,,,,,,,,,,,,,,,,,,,,,,,,,,,,,,,,,,,,,,,,,,,,,,,,,,,,,,,,,,,,,,,,,,,,,,,,,,,,,,,,,,,,,,,,,,,,,,,,,,,,,,,,,,,,,,,,,,,,,,,,,,,,,,,,,,,,,,,,,,,,,,,,,,,,
0,72,72,12,1,,6171acbd32a9c4f4a22f348a,62bbfae82e1821b3c42830cb,2022-06-29_09h13.26.127,Colour_Asymmetry_Pilot,2022.1.3,Win32,60.01680471,62bbe60bf3d75ef465d3e404,,,,,,,,,,,,,,,,,,,,,,,,,,,,,,,,,,,,,,,,,,,,,,,,,,,,,,,,,,,,,,,,,,,,,,,,,,,,,,,,,,,,,,,,,,,,,,,,,,,,,,,,,,,,,,,,,,,,,,,,,,,,,,,,,,,,,,,,,,,,,,,,,,,,,,,,,,,,,
0,73,73,9,1,,6171acbd32a9c4f4a22f348a,62bbfae82e1821b3c42830cb,2022-06-29_09h13.26.127,Colour_Asymmetry_Pilot,2022.1.3,Win32,60.01680471,62bbe60bf3d75ef465d3e404,,,,,,,,,,,,,,,,,,,,,,,,,,,,,,,,,,,,,,,,,,,,,,,,,,,,,,,,,,,,,,,,,,,,,,,,,,,,,,,,,,,,,,,,,,,,,,,,,,,,,,,,,,,,,,,,,,,,,,,,,,,,,,,,,,,,,,,,,,,,,,,,,,,,,,,,,,,,,
0,74,74,71,1,,6171acbd32a9c4f4a22f348a,62bbfae82e1821b3c42830cb,2022-06-29_09h13.26.127,Colour_Asymmetry_Pilot,2022.1.3,Win32,60.01680471,62bbe60bf3d75ef465d3e404,,,,,,,,,,,,,,,,,,,,,,,,,,,,,,,,,,,,,,,,,,,,,,,,,,,,,,,,,,,,,,,,,,,,,,,,,,,,,,,,,,,,,,,,,,,,,,,,,,,,,,,,,,,,,,,,,,,,,,,,,,,,,,,,,,,,,,,,,,,,,,,,,,,,,,,,,,,,,
0,75,75,77,1,,6171acbd32a9c4f4a22f348a,62bbfae82e1821b3c42830cb,2022-06-29_09h13.26.127,Colour_Asymmetry_Pilot,2022.1.3,Win32,60.01680471,62bbe60bf3d75ef465d3e404,,,,,,,,,,,,,,,,,,,,,,,,,,,,,,,,,,,,,,,,,,,,,,,,,,,,,,,,,,,,,,,,,,,,,,,,,,,,,,,,,,,,,,,,,,,,,,,,,,,,,,,,,,,,,,,,,,,,,,,,,,,,,,,,,,,,,,,,,,,,,,,,,,,,,,,,,,,,,
0,76,76,85,1,,6171acbd32a9c4f4a22f348a,62bbfae82e1821b3c42830cb,2022-06-29_09h13.26.127,Colour_Asymmetry_Pilot,2022.1.3,Win32,60.01680471,62bbe60bf3d75ef465d3e404,,,,,,,,,,,,,,,,,,,,,,,,,,,,,,,,,,,,,,,,,,,,,,,,,,,,,,,,,,,,,,,,,,,,,,,,,,,,,,,,,,,,,,,,,,,,,,,,,,,,,,,,,,,,,,,,,,,,,,,,,,,,,,,,,,,,,,,,,,,,,,,,,,,,,,,,,,,,,
0,77,77,41,1,,6171acbd32a9c4f4a22f348a,62bbfae82e1821b3c42830cb,2022-06-29_09h13.26.127,Colour_Asymmetry_Pilot,2022.1.3,Win32,60.01680471,62bbe60bf3d75ef465d3e404,,,,,,,,,,,,,,,,,,,,,,,,,,,,,,,,,,,,,,,,,,,,,,,,,,,,,,,,,,,,,,,,,,,,,,,,,,,,,,,,,,,,,,,,,,,,,,,,,,,,,,,,,,,,,,,,,,,,,,,,,,,,,,,,,,,,,,,,,,,,,,,,,,,,,,,,,,,,,
0,78,78,82,1,,6171acbd32a9c4f4a22f348a,62bbfae82e1821b3c42830cb,2022-06-29_09h13.26.127,Colour_Asymmetry_Pilot,2022.1.3,Win32,60.01680471,62bbe60bf3d75ef465d3e404,,,,,,,,,,,,,,,,,,,,,,,,,,,,,,,,,,,,,,,,,,,,,,,,,,,,,,,,,,,,,,,,,,,,,,,,,,,,,,,,,,,,,,,,,,,,,,,,,,,,,,,,,,,,,,,,,,,,,,,,,,,,,,,,,,,,,,,,,,,,,,,,,,,,,,,,,,,,,
0,79,79,86,1,,6171acbd32a9c4f4a22f348a,62bbfae82e1821b3c42830cb,2022-06-29_09h13.26.127,Colour_Asymmetry_Pilot,2022.1.3,Win32,60.01680471,62bbe60bf3d75ef465d3e404,,,,,,,,,,,,,,,,,,,,,,,,,,,,,,,,,,,,,,,,,,,,,,,,,,,,,,,,,,,,,,,,,,,,,,,,,,,,,,,,,,,,,,,,,,,,,,,,,,,,,,,,,,,,,,,,,,,,,,,,,,,,,,,,,,,,,,,,,,,,,,,,,,,,,,,,,,,,,
0,80,80,79,1,,6171acbd32a9c4f4a22f348a,62bbfae82e1821b3c42830cb,2022-06-29_09h13.26.127,Colour_Asymmetry_Pilot,2022.1.3,Win32,60.01680471,62bbe60bf3d75ef465d3e404,,,,,,,,,,,,,,,,,,,,,,,,,,,,,,,,,,,,,,,,,,,,,,,,,,,,,,,,,,,,,,,,,,,,,,,,,,,,,,,,,,,,,,,,,,,,,,,,,,,,,,,,,,,,,,,,,,,,,,,,,,,,,,,,,,,,,,,,,,,,,,,,,,,,,,,,,,,,,
0,81,81,67,1,,6171acbd32a9c4f4a22f348a,62bbfae82e1821b3c42830cb,2022-06-29_09h13.26.127,Colour_Asymmetry_Pilot,2022.1.3,Win32,60.01680471,62bbe60bf3d75ef465d3e404,,,,,,,,,,,,,,,,,,,,,,,,,,,,,,,,,,,,,,,,,,,,,,,,,,,,,,,,,,,,,,,,,,,,,,,,,,,,,,,,,,,,,,,,,,,,,,,,,,,,,,,,,,,,,,,,,,,,,,,,,,,,,,,,,,,,,,,,,,,,,,,,,,,,,,,,,,,,,
0,82,82,69,1,,6171acbd32a9c4f4a22f348a,62bbfae82e1821b3c42830cb,2022-06-29_09h13.26.127,Colour_Asymmetry_Pilot,2022.1.3,Win32,60.01680471,62bbe60bf3d75ef465d3e404,,,,,,,,,,,,,,,,,,,,,,,,,,,,,,,,,,,,,,,,,,,,,,,,,,,,,,,,,,,,,,,,,,,,,,,,,,,,,,,,,,,,,,,,,,,,,,,,,,,,,,,,,,,,,,,,,,,,,,,,,,,,,,,,,,,,,,,,,,,,,,,,,,,,,,,,,,,,,
0,83,83,73,1,,6171acbd32a9c4f4a22f348a,62bbfae82e1821b3c42830cb,2022-06-29_09h13.26.127,Colour_Asymmetry_Pilot,2022.1.3,Win32,60.01680471,62bbe60bf3d75ef465d3e404,,,,,,,,,,,,,,,,,,,,,,,,,,,,,,,,,,,,,,,,,,,,,,,,,,,,,,,,,,,,,,,,,,,,,,,,,,,,,,,,,,,,,,,,,,,,,,,,,,,,,,,,,,,,,,,,,,,,,,,,,,,,,,,,,,,,,,,,,,,,,,,,,,,,,,,,,,,,,
0,84,84,15,1,,6171acbd32a9c4f4a22f348a,62bbfae82e1821b3c42830cb,2022-06-29_09h13.26.127,Colour_Asymmetry_Pilot,2022.1.3,Win32,60.01680471,62bbe60bf3d75ef465d3e404,,,,,,,,,,,,,,,,,,,,,,,,,,,,,,,,,,,,,,,,,,,,,,,,,,,,,,,,,,,,,,,,,,,,,,,,,,,,,,,,,,,,,,,,,,,,,,,,,,,,,,,,,,,,,,,,,,,,,,,,,,,,,,,,,,,,,,,,,,,,,,,,,,,,,,,,,,,,,
0,85,85,55,1,,6171acbd32a9c4f4a22f348a,62bbfae82e1821b3c42830cb,2022-06-29_09h13.26.127,Colour_Asymmetry_Pilot,2022.1.3,Win32,60.01680471,62bbe60bf3d75ef465d3e404,,,,,,,,,,,,,,,,,,,,,,,,,,,,,,,,,,,,,,,,,,,,,,,,,,,,,,,,,,,,,,,,,,,,,,,,,,,,,,,,,,,,,,,,,,,,,,,,,,,,,,,,,,,,,,,,,,,,,,,,,,,,,,,,,,,,,,,,,,,,,,,,,,,,,,,,,,,,,
0,86,86,33,1,,6171acbd32a9c4f4a22f348a,62bbfae82e1821b3c42830cb,2022-06-29_09h13.26.127,Colour_Asymmetry_Pilot,2022.1.3,Win32,60.01680471,62bbe60bf3d75ef465d3e404,,,,,,,,,,,,,,,,,,,,,,,,,,,,,,,,,,,,,,,,,,,,,,,,,,,,,,,,,,,,,,,,,,,,,,,,,,,,,,,,,,,,,,,,,,,,,,,,,,,,,,,,,,,,,,,,,,,,,,,,,,,,,,,,,,,,,,,,,,,,,,,,,,,,,,,,,,,,,
0,87,87,17,1,,6171acbd32a9c4f4a22f348a,62bbfae82e1821b3c42830cb,2022-06-29_09h13.26.127,Colour_Asymmetry_Pilot,2022.1.3,Win32,60.01680471,62bbe60bf3d75ef465d3e404,,,,,,,,,,,,,,,,,,,,,,,,,,,,,,,,,,,,,,,,,,,,,,,,,,,,,,,,,,,,,,,,,,,,,,,,,,,,,,,,,,,,,,,,,,,,,,,,,,,,,,,,,,,,,,,,,,,,,,,,,,,,,,,,,,,,,,,,,,,,,,,,,,,,,,,,,,,,,
0,88,88,70,1,,6171acbd32a9c4f4a22f348a,62bbfae82e1821b3c42830cb,2022-06-29_09h13.26.127,Colour_Asymmetry_Pilot,2022.1.3,Win32,60.01680471,62bbe60bf3d75ef465d3e404,,,,,,,,,,,,,,,,,,,,,,,,,,,,,,,,,,,,,,,,,,,,,,,,,,,,,,,,,,,,,,,,,,,,,,,,,,,,,,,,,,,,,,,,,,,,,,,,,,,,,,,,,,,,,,,,,,,,,,,,,,,,,,,,,,,,,,,,,,,,,,,,,,,,,,,,,,,,,
0,89,89,34,1,,6171acbd32a9c4f4a22f348a,62bbfae82e1821b3c42830cb,2022-06-29_09h13.26.127,Colour_Asymmetry_Pilot,2022.1.3,Win32,60.01680471,62bbe60bf3d75ef465d3e404,,,,,,,,,,,,,,,,,,,,,,,,,,,,,,,,,,,,,,,,,,,,,,,,,,,,,,,,,,,,,,,,,,,,,,,,,,,,,,,,,,,,,,,,,,,,,,,,,,,,,,,,,,,,,,,,,,,,,,,,,,,,,,,,,,,,,,,,,,,,,,,,,,,,,,,,,,,,,
0,90,90,40,1,,6171acbd32a9c4f4a22f348a,62bbfae82e1821b3c42830cb,2022-06-29_09h13.26.127,Colour_Asymmetry_Pilot,2022.1.3,Win32,60.01680471,62bbe60bf3d75ef465d3e404,,,,,,,,,,,,,,,,,,,,,,,,,,,,,,,,,,,,,,,,,,,,,,,,,,,,,,,,,,,,,,,,,,,,,,,,,,,,,,,,,,,,,,,,,,,,,,,,,,,,,,,,,,,,,,,,,,,,,,,,,,,,,,,,,,,,,,,,,,,,,,,,,,,,,,,,,,,,,
0,91,91,49,1,,6171acbd32a9c4f4a22f348a,62bbfae82e1821b3c42830cb,2022-06-29_09h13.26.127,Colour_Asymmetry_Pilot,2022.1.3,Win32,60.01680471,62bbe60bf3d75ef465d3e404,,,,,,,,,,,,,,,,,,,,,,,,,,,,,,,,,,,,,,,,,,,,,,,,,,,,,,,,,,,,,,,,,,,,,,,,,,,,,,,,,,,,,,,,,,,,,,,,,,,,,,,,,,,,,,,,,,,,,,,,,,,,,,,,,,,,,,,,,,,,,,,,,,,,,,,,,,,,,
0,92,92,53,1,,6171acbd32a9c4f4a22f348a,62bbfae82e1821b3c42830cb,2022-06-29_09h13.26.127,Colour_Asymmetry_Pilot,2022.1.3,Win32,60.01680471,62bbe60bf3d75ef465d3e404,,,,,,,,,,,,,,,,,,,,,,,,,,,,,,,,,,,,,,,,,,,,,,,,,,,,,,,,,,,,,,,,,,,,,,,,,,,,,,,,,,,,,,,,,,,,,,,,,,,,,,,,,,,,,,,,,,,,,,,,,,,,,,,,,,,,,,,,,,,,,,,,,,,,,,,,,,,,,
,,,,,,6171acbd32a9c4f4a22f348a,62bbfae82e1821b3c42830cb,2022-06-29_09h13.26.127,Colour_Asymmetry_Pilot,2022.1.3,Win32,60.01680471,62bbe60bf3d75ef465d3e404,0,0,0,25,1,onethree,,,,,,,,,,,,,,,,,,,,,,,,,,,,,,,,,,,,,,,,,,,,,,,,,,,,,,,,,,,,,,,,,,,,,,,,,,,,,,,,,,,,,,,,,,,,,,,,,,,,,,,,,,,,,,,,,,,,,,,,,,,,,,,,,,,,,,,,,,,,,,,,,,,,,,,
,,,,,,6171acbd32a9c4f4a22f348a,62bbfae82e1821b3c42830cb,2022-06-29_09h13.26.127,Colour_Asymmetry_Pilot,2022.1.3,Win32,60.01680471,62bbe60bf3d75ef465d3e404,0,1,1,53,1,threefour,,,,,,,,,,,,,,,,,,,,,,,,,,,,,,,,,,,,,,,,,,,,,,,,,,,,,,,,,,,,,,,,,,,,,,,,,,,,,,,,,,,,,,,,,,,,,,,,,,,,,,,,,,,,,,,,,,,,,,,,,,,,,,,,,,,,,,,,,,,,,,,,,,,,,,,
,,,,,,6171acbd32a9c4f4a22f348a,62bbfae82e1821b3c42830cb,2022-06-29_09h13.26.127,Colour_Asymmetry_Pilot,2022.1.3,Win32,60.01680471,62bbe60bf3d75ef465d3e404,0,2,2,150,1,fourtwo,,,,,,,,,,,,,,,,,,,,,,,,,,,,,,,,,,,,,,,,,,,,,,,,,,,,,,,,,,,,,,,,,,,,,,,,,,,,,,,,,,,,,,,,,,,,,,,,,,,,,,,,,,,,,,,,,,,,,,,,,,,,,,,,,,,,,,,,,,,,,,,,,,,,,,,
,,,,,,6171acbd32a9c4f4a22f348a,62bbfae82e1821b3c42830cb,2022-06-29_09h13.26.127,Colour_Asymmetry_Pilot,2022.1.3,Win32,60.01680471,62bbe60bf3d75ef465d3e404,0,3,3,74,1,twoone,,,,,,,,,,,,,,,,,,,,,,,,,,,,,,,,,,,,,,,,,,,,,,,,,,,,,,,,,,,,,,,,,,,,,,,,,,,,,,,,,,,,,,,,,,,,,,,,,,,,,,,,,,,,,,,,,,,,,,,,,,,,,,,,,,,,,,,,,,,,,,,,,,,,,,,
,,,,,,6171acbd32a9c4f4a22f348a,62bbfae82e1821b3c42830cb,2022-06-29_09h13.26.127,Colour_Asymmetry_Pilot,2022.1.3,Win32,60.01680471,62bbe60bf3d75ef465d3e404,0,4,4,8,1,onetwo,,,,,,,,,,,,,,,,,,,,,,,,,,,,,,,,,,,,,,,,,,,,,,,,,,,,,,,,,,,,,,,,,,,,,,,,,,,,,,,,,,,,,,,,,,,,,,,,,,,,,,,,,,,,,,,,,,,,,,,,,,,,,,,,,,,,,,,,,,,,,,,,,,,,,,,
,,,,,,6171acbd32a9c4f4a22f348a,62bbfae82e1821b3c42830cb,2022-06-29_09h13.26.127,Colour_Asymmetry_Pilot,2022.1.3,Win32,60.01680471,62bbe60bf3d75ef465d3e404,0,5,5,59,1,twofour,,,,,,,,,,,,,,,,,,,,,,,,,,,,,,,,,,,,,,,,,,,,,,,,,,,,,,,,,,,,,,,,,,,,,,,,,,,,,,,,,,,,,,,,,,,,,,,,,,,,,,,,,,,,,,,,,,,,,,,,,,,,,,,,,,,,,,,,,,,,,,,,,,,,,,,
,,,,,,6171acbd32a9c4f4a22f348a,62bbfae82e1821b3c42830cb,2022-06-29_09h13.26.127,Colour_Asymmetry_Pilot,2022.1.3,Win32,60.01680471,62bbe60bf3d75ef465d3e404,0,6,6,68,1,threeone,,,,,,,,,,,,,,,,,,,,,,,,,,,,,,,,,,,,,,,,,,,,,,,,,,,,,,,,,,,,,,,,,,,,,,,,,,,,,,,,,,,,,,,,,,,,,,,,,,,,,,,,,,,,,,,,,,,,,,,,,,,,,,,,,,,,,,,,,,,,,,,,,,,,,,,
,,,,,,6171acbd32a9c4f4a22f348a,62bbfae82e1821b3c42830cb,2022-06-29_09h13.26.127,Colour_Asymmetry_Pilot,2022.1.3,Win32,60.01680471,62bbe60bf3d75ef465d3e404,0,7,7,121,1,onethree,,,,,,,,,,,,,,,,,,,,,,,,,,,,,,,,,,,,,,,,,,,,,,,,,,,,,,,,,,,,,,,,,,,,,,,,,,,,,,,,,,,,,,,,,,,,,,,,,,,,,,,,,,,,,,,,,,,,,,,,,,,,,,,,,,,,,,,,,,,,,,,,,,,,,,,
,,,,,,6171acbd32a9c4f4a22f348a,62bbfae82e1821b3c42830cb,2022-06-29_09h13.26.127,Colour_Asymmetry_Pilot,2022.1.3,Win32,60.01680471,62bbe60bf3d75ef465d3e404,0,8,8,44,1,threeone,,,,,,,,,,,,,,,,,,,,,,,,,,,,,,,,,,,,,,,,,,,,,,,,,,,,,,,,,,,,,,,,,,,,,,,,,,,,,,,,,,,,,,,,,,,,,,,,,,,,,,,,,,,,,,,,,,,,,,,,,,,,,,,,,,,,,,,,,,,,,,,,,,,,,,,
,,,,,,6171acbd32a9c4f4a22f348a,62bbfae82e1821b3c42830cb,2022-06-29_09h13.26.127,Colour_Asymmetry_Pilot,2022.1.3,Win32,60.01680471,62bbe60bf3d75ef465d3e404,0,9,9,16,1,onetwo,,,,,,,,,,,,,,,,,,,,,,,,,,,,,,,,,,,,,,,,,,,,,,,,,,,,,,,,,,,,,,,,,,,,,,,,,,,,,,,,,,,,,,,,,,,,,,,,,,,,,,,,,,,,,,,,,,,,,,,,,,,,,,,,,,,,,,,,,,,,,,,,,,,,,,,
,,,,,,6171acbd32a9c4f4a22f348a,62bbfae82e1821b3c42830cb,2022-06-29_09h13.26.127,Colour_Asymmetry_Pilot,2022.1.3,Win32,60.01680471,62bbe60bf3d75ef465d3e404,0,10,10,115,1,twofour,,,,,,,,,,,,,,,,,,,,,,,,,,,,,,,,,,,,,,,,,,,,,,,,,,,,,,,,,,,,,,,,,,,,,,,,,,,,,,,,,,,,,,,,,,,,,,,,,,,,,,,,,,,,,,,,,,,,,,,,,,,,,,,,,,,,,,,,,,,,,,,,,,,,,,,
,,,,,,6171acbd32a9c4f4a22f348a,62bbfae82e1821b3c42830cb,2022-06-29_09h13.26.127,Colour_Asymmetry_Pilot,2022.1.3,Win32,60.01680471,62bbe60bf3d75ef465d3e404,0,11,11,107,1,twofour,,,,,,,,,,,,,,,,,,,,,,,,,,,,,,,,,,,,,,,,,,,,,,,,,,,,,,,,,,,,,,,,,,,,,,,,,,,,,,,,,,,,,,,,,,,,,,,,,,,,,,,,,,,,,,,,,,,,,,,,,,,,,,,,,,,,,,,,,,,,,,,,,,,,,,,
,,,,,,6171acbd32a9c4f4a22f348a,62bbfae82e1821b3c42830cb,2022-06-29_09h13.26.127,Colour_Asymmetry_Pilot,2022.1.3,Win32,60.01680471,62bbe60bf3d75ef465d3e404,0,12,12,159,1,fourthree,,,,,,,,,,,,,,,,,,,,,,,,,,,,,,,,,,,,,,,,,,,,,,,,,,,,,,,,,,,,,,,,,,,,,,,,,,,,,,,,,,,,,,,,,,,,,,,,,,,,,,,,,,,,,,,,,,,,,,,,,,,,,,,,,,,,,,,,,,,,,,,,,,,,,,,
,,,,,,6171acbd32a9c4f4a22f348a,62bbfae82e1821b3c42830cb,2022-06-29_09h13.26.127,Colour_Asymmetry_Pilot,2022.1.3,Win32,60.01680471,62bbe60bf3d75ef465d3e404,0,13,13,98,1,twoone,,,,,,,,,,,,,,,,,,,,,,,,,,,,,,,,,,,,,,,,,,,,,,,,,,,,,,,,,,,,,,,,,,,,,,,,,,,,,,,,,,,,,,,,,,,,,,,,,,,,,,,,,,,,,,,,,,,,,,,,,,,,,,,,,,,,,,,,,,,,,,,,,,,,,,,
,,,,,,6171acbd32a9c4f4a22f348a,62bbfae82e1821b3c42830cb,2022-06-29_09h13.26.127,Colour_Asymmetry_Pilot,2022.1.3,Win32,60.01680471,62bbe60bf3d75ef465d3e404,0,14,14,89,1,onethree,,,,,,,,,,,,,,,,,,,,,,,,,,,,,,,,,,,,,,,,,,,,,,,,,,,,,,,,,,,,,,,,,,,,,,,,,,,,,,,,,,,,,,,,,,,,,,,,,,,,,,,,,,,,,,,,,,,,,,,,,,,,,,,,,,,,,,,,,,,,,,,,,,,,,,,
,,,,,,6171acbd32a9c4f4a22f348a,62bbfae82e1821b3c42830cb,2022-06-29_09h13.26.127,Colour_Asymmetry_Pilot,2022.1.3,Win32,60.01680471,62bbe60bf3d75ef465d3e404,0,15,15,103,1,fourthree,,,,,,,,,,,,,,,,,,,,,,,,,,,,,,,,,,,,,,,,,,,,,,,,,,,,,,,,,,,,,,,,,,,,,,,,,,,,,,,,,,,,,,,,,,,,,,,,,,,,,,,,,,,,,,,,,,,,,,,,,,,,,,,,,,,,,,,,,,,,,,,,,,,,,,,
,,,,,,6171acbd32a9c4f4a22f348a,62bbfae82e1821b3c42830cb,2022-06-29_09h13.26.127,Colour_Asymmetry_Pilot,2022.1.3,Win32,60.01680471,62bbe60bf3d75ef465d3e404,0,16,16,151,1,fourthree,,,,,,,,,,,,,,,,,,,,,,,,,,,,,,,,,,,,,,,,,,,,,,,,,,,,,,,,,,,,,,,,,,,,,,,,,,,,,,,,,,,,,,,,,,,,,,,,,,,,,,,,,,,,,,,,,,,,,,,,,,,,,,,,,,,,,,,,,,,,,,,,,,,,,,,
,,,,,,6171acbd32a9c4f4a22f348a,62bbfae82e1821b3c42830cb,2022-06-29_09h13.26.127,Colour_Asymmetry_Pilot,2022.1.3,Win32,60.01680471,62bbe60bf3d75ef465d3e404,0,17,17,146,1,twoone,,,,,,,,,,,,,,,,,,,,,,,,,,,,,,,,,,,,,,,,,,,,,,,,,,,,,,,,,,,,,,,,,,,,,,,,,,,,,,,,,,,,,,,,,,,,,,,,,,,,,,,,,,,,,,,,,,,,,,,,,,,,,,,,,,,,,,,,,,,,,,,,,,,,,,,
,,,,,,6171acbd32a9c4f4a22f348a,62bbfae82e1821b3c42830cb,2022-06-29_09h13.26.127,Colour_Asymmetry_Pilot,2022.1.3,Win32,60.01680471,62bbe60bf3d75ef465d3e404,0,18,18,119,1,fourthree,,,,,,,,,,,,,,,,,,,,,,,,,,,,,,,,,,,,,,,,,,,,,,,,,,,,,,,,,,,,,,,,,,,,,,,,,,,,,,,,,,,,,,,,,,,,,,,,,,,,,,,,,,,,,,,,,,,,,,,,,,,,,,,,,,,,,,,,,,,,,,,,,,,,,,,
,,,,,,6171acbd32a9c4f4a22f348a,62bbfae82e1821b3c42830cb,2022-06-29_09h13.26.127,Colour_Asymmetry_Pilot,2022.1.3,Win32,60.01680471,62bbe60bf3d75ef465d3e404,0,19,19,148,1,threeone,,,,,,,,,,,,,,,,,,,,,,,,,,,,,,,,,,,,,,,,,,,,,,,,,,,,,,,,,,,,,,,,,,,,,,,,,,,,,,,,,,,,,,,,,,,,,,,,,,,,,,,,,,,,,,,,,,,,,,,,,,,,,,,,,,,,,,,,,,,,,,,,,,,,,,,
,,,,,,6171acbd32a9c4f4a22f348a,62bbfae82e1821b3c42830cb,2022-06-29_09h13.26.127,Colour_Asymmetry_Pilot,2022.1.3,Win32,60.01680471,62bbe60bf3d75ef465d3e404,0,20,20,61,1,threefour,,,,,,,,,,,,,,,,,,,,,,,,,,,,,,,,,,,,,,,,,,,,,,,,,,,,,,,,,,,,,,,,,,,,,,,,,,,,,,,,,,,,,,,,,,,,,,,,,,,,,,,,,,,,,,,,,,,,,,,,,,,,,,,,,,,,,,,,,,,,,,,,,,,,,,,
,,,,,,6171acbd32a9c4f4a22f348a,62bbfae82e1821b3c42830cb,2022-06-29_09h13.26.127,Colour_Asymmetry_Pilot,2022.1.3,Win32,60.01680471,62bbe60bf3d75ef465d3e404,0,21,21,77,1,threefour,,,,,,,,,,,,,,,,,,,,,,,,,,,,,,,,,,,,,,,,,,,,,,,,,,,,,,,,,,,,,,,,,,,,,,,,,,,,,,,,,,,,,,,,,,,,,,,,,,,,,,,,,,,,,,,,,,,,,,,,,,,,,,,,,,,,,,,,,,,,,,,,,,,,,,,
,,,,,,6171acbd32a9c4f4a22f348a,62bbfae82e1821b3c42830cb,2022-06-29_09h13.26.127,Colour_Asymmetry_Pilot,2022.1.3,Win32,60.01680471,62bbe60bf3d75ef465d3e404,0,22,22,60,1,threeone,,,,,,,,,,,,,,,,,,,,,,,,,,,,,,,,,,,,,,,,,,,,,,,,,,,,,,,,,,,,,,,,,,,,,,,,,,,,,,,,,,,,,,,,,,,,,,,,,,,,,,,,,,,,,,,,,,,,,,,,,,,,,,,,,,,,,,,,,,,,,,,,,,,,,,,
,,,,,,6171acbd32a9c4f4a22f348a,62bbfae82e1821b3c42830cb,2022-06-29_09h13.26.127,Colour_Asymmetry_Pilot,2022.1.3,Win32,60.01680471,62bbe60bf3d75ef465d3e404,0,23,23,108,1,threeone,,,,,,,,,,,,,,,,,,,,,,,,,,,,,,,,,,,,,,,,,,,,,,,,,,,,,,,,,,,,,,,,,,,,,,,,,,,,,,,,,,,,,,,,,,,,,,,,,,,,,,,,,,,,,,,,,,,,,,,,,,,,,,,,,,,,,,,,,,,,,,,,,,,,,,,
,,,,,,6171acbd32a9c4f4a22f348a,62bbfae82e1821b3c42830cb,2022-06-29_09h13.26.127,Colour_Asymmetry_Pilot,2022.1.3,Win32,60.01680471,62bbe60bf3d75ef465d3e404,0,24,24,128,1,onetwo,,,,,,,,,,,,,,,,,,,,,,,,,,,,,,,,,,,,,,,,,,,,,,,,,,,,,,,,,,,,,,,,,,,,,,,,,,,,,,,,,,,,,,,,,,,,,,,,,,,,,,,,,,,,,,,,,,,,,,,,,,,,,,,,,,,,,,,,,,,,,,,,,,,,,,,
,,,,,,6171acbd32a9c4f4a22f348a,62bbfae82e1821b3c42830cb,2022-06-29_09h13.26.127,Colour_Asymmetry_Pilot,2022.1.3,Win32,60.01680471,62bbe60bf3d75ef465d3e404,0,25,25,17,1,onethree,,,,,,,,,,,,,,,,,,,,,,,,,,,,,,,,,,,,,,,,,,,,,,,,,,,,,,,,,,,,,,,,,,,,,,,,,,,,,,,,,,,,,,,,,,,,,,,,,,,,,,,,,,,,,,,,,,,,,,,,,,,,,,,,,,,,,,,,,,,,,,,,,,,,,,,
,,,,,,6171acbd32a9c4f4a22f348a,62bbfae82e1821b3c42830cb,2022-06-29_09h13.26.127,Colour_Asymmetry_Pilot,2022.1.3,Win32,60.01680471,62bbe60bf3d75ef465d3e404,0,26,26,38,1,fourtwo,,,,,,,,,,,,,,,,,,,,,,,,,,,,,,,,,,,,,,,,,,,,,,,,,,,,,,,,,,,,,,,,,,,,,,,,,,,,,,,,,,,,,,,,,,,,,,,,,,,,,,,,,,,,,,,,,,,,,,,,,,,,,,,,,,,,,,,,,,,,,,,,,,,,,,,
,,,,,,6171acbd32a9c4f4a22f348a,62bbfae82e1821b3c42830cb,2022-06-29_09h13.26.127,Colour_Asymmetry_Pilot,2022.1.3,Win32,60.01680471,62bbe60bf3d75ef465d3e404,0,27,27,75,1,twofour,,,,,,,,,,,,,,,,,,,,,,,,,,,,,,,,,,,,,,,,,,,,,,,,,,,,,,,,,,,,,,,,,,,,,,,,,,,,,,,,,,,,,,,,,,,,,,,,,,,,,,,,,,,,,,,,,,,,,,,,,,,,,,,,,,,,,,,,,,,,,,,,,,,,,,,
,,,,,,6171acbd32a9c4f4a22f348a,62bbfae82e1821b3c42830cb,2022-06-29_09h13.26.127,Colour_Asymmetry_Pilot,2022.1.3,Win32,60.01680471,62bbe60bf3d75ef465d3e404,0,28,28,73,1,onethree,,,,,,,,,,,,,,,,,,,,,,,,,,,,,,,,,,,,,,,,,,,,,,,,,,,,,,,,,,,,,,,,,,,,,,,,,,,,,,,,,,,,,,,,,,,,,,,,,,,,,,,,,,,,,,,,,,,,,,,,,,,,,,,,,,,,,,,,,,,,,,,,,,,,,,,
,,,,,,6171acbd32a9c4f4a22f348a,62bbfae82e1821b3c42830cb,2022-06-29_09h13.26.127,Colour_Asymmetry_Pilot,2022.1.3,Win32,60.01680471,62bbe60bf3d75ef465d3e404,0,29,29,47,1,fourthree,,,,,,,,,,,,,,,,,,,,,,,,,,,,,,,,,,,,,,,,,,,,,,,,,,,,,,,,,,,,,,,,,,,,,,,,,,,,,,,,,,,,,,,,,,,,,,,,,,,,,,,,,,,,,,,,,,,,,,,,,,,,,,,,,,,,,,,,,,,,,,,,,,,,,,,
,,,,,,6171acbd32a9c4f4a22f348a,62bbfae82e1821b3c42830cb,2022-06-29_09h13.26.127,Colour_Asymmetry_Pilot,2022.1.3,Win32,60.01680471,62bbe60bf3d75ef465d3e404,0,30,30,147,1,twofour,,,,,,,,,,,,,,,,,,,,,,,,,,,,,,,,,,,,,,,,,,,,,,,,,,,,,,,,,,,,,,,,,,,,,,,,,,,,,,,,,,,,,,,,,,,,,,,,,,,,,,,,,,,,,,,,,,,,,,,,,,,,,,,,,,,,,,,,,,,,,,,,,,,,,,,
,,,,,,6171acbd32a9c4f4a22f348a,62bbfae82e1821b3c42830cb,2022-06-29_09h13.26.127,Colour_Asymmetry_Pilot,2022.1.3,Win32,60.01680471,62bbe60bf3d75ef465d3e404,0,31,31,29,1,threefour,,,,,,,,,,,,,,,,,,,,,,,,,,,,,,,,,,,,,,,,,,,,,,,,,,,,,,,,,,,,,,,,,,,,,,,,,,,,,,,,,,,,,,,,,,,,,,,,,,,,,,,,,,,,,,,,,,,,,,,,,,,,,,,,,,,,,,,,,,,,,,,,,,,,,,,
,,,,,,6171acbd32a9c4f4a22f348a,62bbfae82e1821b3c42830cb,2022-06-29_09h13.26.127,Colour_Asymmetry_Pilot,2022.1.3,Win32,60.01680471,62bbe60bf3d75ef465d3e404,0,32,32,56,1,onetwo,,,,,,,,,,,,,,,,,,,,,,,,,,,,,,,,,,,,,,,,,,,,,,,,,,,,,,,,,,,,,,,,,,,,,,,,,,,,,,,,,,,,,,,,,,,,,,,,,,,,,,,,,,,,,,,,,,,,,,,,,,,,,,,,,,,,,,,,,,,,,,,,,,,,,,,
,,,,,,6171acbd32a9c4f4a22f348a,62bbfae82e1821b3c42830cb,2022-06-29_09h13.26.127,Colour_Asymmetry_Pilot,2022.1.3,Win32,60.01680471,62bbe60bf3d75ef465d3e404,0,33,33,67,1,twofour,,,,,,,,,,,,,,,,,,,,,,,,,,,,,,,,,,,,,,,,,,,,,,,,,,,,,,,,,,,,,,,,,,,,,,,,,,,,,,,,,,,,,,,,,,,,,,,,,,,,,,,,,,,,,,,,,,,,,,,,,,,,,,,,,,,,,,,,,,,,,,,,,,,,,,,
,,,,,,6171acbd32a9c4f4a22f348a,62bbfae82e1821b3c42830cb,2022-06-29_09h13.26.127,Colour_Asymmetry_Pilot,2022.1.3,Win32,60.01680471,62bbe60bf3d75ef465d3e404,0,34,34,23,1,fourthree,,,,,,,,,,,,,,,,,,,,,,,,,,,,,,,,,,,,,,,,,,,,,,,,,,,,,,,,,,,,,,,,,,,,,,,,,,,,,,,,,,,,,,,,,,,,,,,,,,,,,,,,,,,,,,,,,,,,,,,,,,,,,,,,,,,,,,,,,,,,,,,,,,,,,,,
,,,,,,6171acbd32a9c4f4a22f348a,62bbfae82e1821b3c42830cb,2022-06-29_09h13.26.127,Colour_Asymmetry_Pilot,2022.1.3,Win32,60.01680471,62bbe60bf3d75ef465d3e404,0,35,35,57,1,onethree,,,,,,,,,,,,,,,,,,,,,,,,,,,,,,,,,,,,,,,,,,,,,,,,,,,,,,,,,,,,,,,,,,,,,,,,,,,,,,,,,,,,,,,,,,,,,,,,,,,,,,,,,,,,,,,,,,,,,,,,,,,,,,,,,,,,,,,,,,,,,,,,,,,,,,,
,,,,,,6171acbd32a9c4f4a22f348a,62bbfae82e1821b3c42830cb,2022-06-29_09h13.26.127,Colour_Asymmetry_Pilot,2022.1.3,Win32,60.01680471,62bbe60bf3d75ef465d3e404,0,36,36,78,1,fourtwo,,,,,,,,,,,,,,,,,,,,,,,,,,,,,,,,,,,,,,,,,,,,,,,,,,,,,,,,,,,,,,,,,,,,,,,,,,,,,,,,,,,,,,,,,,,,,,,,,,,,,,,,,,,,,,,,,,,,,,,,,,,,,,,,,,,,,,,,,,,,,,,,,,,,,,,
,,,,,,6171acbd32a9c4f4a22f348a,62bbfae82e1821b3c42830cb,2022-06-29_09h13.26.127,Colour_Asymmetry_Pilot,2022.1.3,Win32,60.01680471,62bbe60bf3d75ef465d3e404,0,37,37,72,1,onetwo,,,,,,,,,,,,,,,,,,,,,,,,,,,,,,,,,,,,,,,,,,,,,,,,,,,,,,,,,,,,,,,,,,,,,,,,,,,,,,,,,,,,,,,,,,,,,,,,,,,,,,,,,,,,,,,,,,,,,,,,,,,,,,,,,,,,,,,,,,,,,,,,,,,,,,,
,,,,,,6171acbd32a9c4f4a22f348a,62bbfae82e1821b3c42830cb,2022-06-29_09h13.26.127,Colour_Asymmetry_Pilot,2022.1.3,Win32,60.01680471,62bbe60bf3d75ef465d3e404,0,38,38,92,1,threeone,,,,,,,,,,,,,,,,,,,,,,,,,,,,,,,,,,,,,,,,,,,,,,,,,,,,,,,,,,,,,,,,,,,,,,,,,,,,,,,,,,,,,,,,,,,,,,,,,,,,,,,,,,,,,,,,,,,,,,,,,,,,,,,,,,,,,,,,,,,,,,,,,,,,,,,
,,,,,,6171acbd32a9c4f4a22f348a,62bbfae82e1821b3c42830cb,2022-06-29_09h13.26.127,Colour_Asymmetry_Pilot,2022.1.3,Win32,60.01680471,62bbe60bf3d75ef465d3e404,0,39,39,125,1,threefour,,,,,,,,,,,,,,,,,,,,,,,,,,,,,,,,,,,,,,,,,,,,,,,,,,,,,,,,,,,,,,,,,,,,,,,,,,,,,,,,,,,,,,,,,,,,,,,,,,,,,,,,,,,,,,,,,,,,,,,,,,,,,,,,,,,,,,,,,,,,,,,,,,,,,,,
,,,,,,6171acbd32a9c4f4a22f348a,62bbfae82e1821b3c42830cb,2022-06-29_09h13.26.127,Colour_Asymmetry_Pilot,2022.1.3,Win32,60.01680471,62bbe60bf3d75ef465d3e404,0,40,40,2,1,twoone,,,,,,,,,,,,,,,,,,,,,,,,,,,,,,,,,,,,,,,,,,,,,,,,,,,,,,,,,,,,,,,,,,,,,,,,,,,,,,,,,,,,,,,,,,,,,,,,,,,,,,,,,,,,,,,,,,,,,,,,,,,,,,,,,,,,,,,,,,,,,,,,,,,,,,,
,,,,,,6171acbd32a9c4f4a22f348a,62bbfae82e1821b3c42830cb,2022-06-29_09h13.26.127,Colour_Asymmetry_Pilot,2022.1.3,Win32,60.01680471,62bbe60bf3d75ef465d3e404,0,41,41,149,1,threefour,,,,,,,,,,,,,,,,,,,,,,,,,,,,,,,,,,,,,,,,,,,,,,,,,,,,,,,,,,,,,,,,,,,,,,,,,,,,,,,,,,,,,,,,,,,,,,,,,,,,,,,,,,,,,,,,,,,,,,,,,,,,,,,,,,,,,,,,,,,,,,,,,,,,,,,
,,,,,,6171acbd32a9c4f4a22f348a,62bbfae82e1821b3c42830cb,2022-06-29_09h13.26.127,Colour_Asymmetry_Pilot,2022.1.3,Win32,60.01680471,62bbe60bf3d75ef465d3e404,0,42,42,111,1,fourthree,,,,,,,,,,,,,,,,,,,,,,,,,,,,,,,,,,,,,,,,,,,,,,,,,,,,,,,,,,,,,,,,,,,,,,,,,,,,,,,,,,,,,,,,,,,,,,,,,,,,,,,,,,,,,,,,,,,,,,,,,,,,,,,,,,,,,,,,,,,,,,,,,,,,,,,
,,,,,,6171acbd32a9c4f4a22f348a,62bbfae82e1821b3c42830cb,2022-06-29_09h13.26.127,Colour_Asymmetry_Pilot,2022.1.3,Win32,60.01680471,62bbe60bf3d75ef465d3e404,0,43,43,113,1,onethree,,,,,,,,,,,,,,,,,,,,,,,,,,,,,,,,,,,,,,,,,,,,,,,,,,,,,,,,,,,,,,,,,,,,,,,,,,,,,,,,,,,,,,,,,,,,,,,,,,,,,,,,,,,,,,,,,,,,,,,,,,,,,,,,,,,,,,,,,,,,,,,,,,,,,,,
,,,,,,6171acbd32a9c4f4a22f348a,62bbfae82e1821b3c42830cb,2022-06-29_09h13.26.127,Colour_Asymmetry_Pilot,2022.1.3,Win32,60.01680471,62bbe60bf3d75ef465d3e404,0,44,44,102,1,fourtwo,,,,,,,,,,,,,,,,,,,,,,,,,,,,,,,,,,,,,,,,,,,,,,,,,,,,,,,,,,,,,,,,,,,,,,,,,,,,,,,,,,,,,,,,,,,,,,,,,,,,,,,,,,,,,,,,,,,,,,,,,,,,,,,,,,,,,,,,,,,,,,,,,,,,,,,
,,,,,,6171acbd32a9c4f4a22f348a,62bbfae82e1821b3c42830cb,2022-06-29_09h13.26.127,Colour_Asymmetry_Pilot,2022.1.3,Win32,60.01680471,62bbe60bf3d75ef465d3e404,0,45,45,123,1,twofour,,,,,,,,,,,,,,,,,,,,,,,,,,,,,,,,,,,,,,,,,,,,,,,,,,,,,,,,,,,,,,,,,,,,,,,,,,,,,,,,,,,,,,,,,,,,,,,,,,,,,,,,,,,,,,,,,,,,,,,,,,,,,,,,,,,,,,,,,,,,,,,,,,,,,,,
,,,,,,6171acbd32a9c4f4a22f348a,62bbfae82e1821b3c42830cb,2022-06-29_09h13.26.127,Colour_Asymmetry_Pilot,2022.1.3,Win32,60.01680471,62bbe60bf3d75ef465d3e404,0,46,46,26,1,twoone,,,,,,,,,,,,,,,,,,,,,,,,,,,,,,,,,,,,,,,,,,,,,,,,,,,,,,,,,,,,,,,,,,,,,,,,,,,,,,,,,,,,,,,,,,,,,,,,,,,,,,,,,,,,,,,,,,,,,,,,,,,,,,,,,,,,,,,,,,,,,,,,,,,,,,,
,,,,,,6171acbd32a9c4f4a22f348a,62bbfae82e1821b3c42830cb,2022-06-29_09h13.26.127,Colour_Asymmetry_Pilot,2022.1.3,Win32,60.01680471,62bbe60bf3d75ef465d3e404,0,47,47,137,1,onethree,,,,,,,,,,,,,,,,,,,,,,,,,,,,,,,,,,,,,,,,,,,,,,,,,,,,,,,,,,,,,,,,,,,,,,,,,,,,,,,,,,,,,,,,,,,,,,,,,,,,,,,,,,,,,,,,,,,,,,,,,,,,,,,,,,,,,,,,,,,,,,,,,,,,,,,
,,,,,,6171acbd32a9c4f4a22f348a,62bbfae82e1821b3c42830cb,2022-06-29_09h13.26.127,Colour_Asymmetry_Pilot,2022.1.3,Win32,60.01680471,62bbe60bf3d75ef465d3e404,0,48,48,105,1,onethree,,,,,,,,,,,,,,,,,,,,,,,,,,,,,,,,,,,,,,,,,,,,,,,,,,,,,,,,,,,,,,,,,,,,,,,,,,,,,,,,,,,,,,,,,,,,,,,,,,,,,,,,,,,,,,,,,,,,,,,,,,,,,,,,,,,,,,,,,,,,,,,,,,,,,,,
,,,,,,6171acbd32a9c4f4a22f348a,62bbfae82e1821b3c42830cb,2022-06-29_09h13.26.127,Colour_Asymmetry_Pilot,2022.1.3,Win32,60.01680471,62bbe60bf3d75ef465d3e404,0,49,49,62,1,fourtwo,,,,,,,,,,,,,,,,,,,,,,,,,,,,,,,,,,,,,,,,,,,,,,,,,,,,,,,,,,,,,,,,,,,,,,,,,,,,,,,,,,,,,,,,,,,,,,,,,,,,,,,,,,,,,,,,,,,,,,,,,,,,,,,,,,,,,,,,,,,,,,,,,,,,,,,
,,,,,,6171acbd32a9c4f4a22f348a,62bbfae82e1821b3c42830cb,2022-06-29_09h13.26.127,Colour_Asymmetry_Pilot,2022.1.3,Win32,60.01680471,62bbe60bf3d75ef465d3e404,0,50,50,87,1,fourthree,,,,,,,,,,,,,,,,,,,,,,,,,,,,,,,,,,,,,,,,,,,,,,,,,,,,,,,,,,,,,,,,,,,,,,,,,,,,,,,,,,,,,,,,,,,,,,,,,,,,,,,,,,,,,,,,,,,,,,,,,,,,,,,,,,,,,,,,,,,,,,,,,,,,,,,
,,,,,,6171acbd32a9c4f4a22f348a,62bbfae82e1821b3c42830cb,2022-06-29_09h13.26.127,Colour_Asymmetry_Pilot,2022.1.3,Win32,60.01680471,62bbe60bf3d75ef465d3e404,0,51,51,35,1,twofour,,,,,,,,,,,,,,,,,,,,,,,,,,,,,,,,,,,,,,,,,,,,,,,,,,,,,,,,,,,,,,,,,,,,,,,,,,,,,,,,,,,,,,,,,,,,,,,,,,,,,,,,,,,,,,,,,,,,,,,,,,,,,,,,,,,,,,,,,,,,,,,,,,,,,,,
,,,,,,6171acbd32a9c4f4a22f348a,62bbfae82e1821b3c42830cb,2022-06-29_09h13.26.127,Colour_Asymmetry_Pilot,2022.1.3,Win32,60.01680471,62bbe60bf3d75ef465d3e404,0,52,52,127,1,fourthree,,,,,,,,,,,,,,,,,,,,,,,,,,,,,,,,,,,,,,,,,,,,,,,,,,,,,,,,,,,,,,,,,,,,,,,,,,,,,,,,,,,,,,,,,,,,,,,,,,,,,,,,,,,,,,,,,,,,,,,,,,,,,,,,,,,,,,,,,,,,,,,,,,,,,,,
,,,,,,6171acbd32a9c4f4a22f348a,62bbfae82e1821b3c42830cb,2022-06-29_09h13.26.127,Colour_Asymmetry_Pilot,2022.1.3,Win32,60.01680471,62bbe60bf3d75ef465d3e404,0,53,53,153,1,onethree,,,,,,,,,,,,,,,,,,,,,,,,,,,,,,,,,,,,,,,,,,,,,,,,,,,,,,,,,,,,,,,,,,,,,,,,,,,,,,,,,,,,,,,,,,,,,,,,,,,,,,,,,,,,,,,,,,,,,,,,,,,,,,,,,,,,,,,,,,,,,,,,,,,,,,,
,,,,,,6171acbd32a9c4f4a22f348a,62bbfae82e1821b3c42830cb,2022-06-29_09h13.26.127,Colour_Asymmetry_Pilot,2022.1.3,Win32,60.01680471,62bbe60bf3d75ef465d3e404,0,54,54,131,1,twofour,,,,,,,,,,,,,,,,,,,,,,,,,,,,,,,,,,,,,,,,,,,,,,,,,,,,,,,,,,,,,,,,,,,,,,,,,,,,,,,,,,,,,,,,,,,,,,,,,,,,,,,,,,,,,,,,,,,,,,,,,,,,,,,,,,,,,,,,,,,,,,,,,,,,,,,
,,,,,,6171acbd32a9c4f4a22f348a,62bbfae82e1821b3c42830cb,2022-06-29_09h13.26.127,Colour_Asymmetry_Pilot,2022.1.3,Win32,60.01680471,62bbe60bf3d75ef465d3e404,0,55,55,133,1,threefour,,,,,,,,,,,,,,,,,,,,,,,,,,,,,,,,,,,,,,,,,,,,,,,,,,,,,,,,,,,,,,,,,,,,,,,,,,,,,,,,,,,,,,,,,,,,,,,,,,,,,,,,,,,,,,,,,,,,,,,,,,,,,,,,,,,,,,,,,,,,,,,,,,,,,,,
,,,,,,6171acbd32a9c4f4a22f348a,62bbfae82e1821b3c42830cb,2022-06-29_09h13.26.127,Colour_Asymmetry_Pilot,2022.1.3,Win32,60.01680471,62bbe60bf3d75ef465d3e404,0,56,56,157,1,threefour,,,,,,,,,,,,,,,,,,,,,,,,,,,,,,,,,,,,,,,,,,,,,,,,,,,,,,,,,,,,,,,,,,,,,,,,,,,,,,,,,,,,,,,,,,,,,,,,,,,,,,,,,,,,,,,,,,,,,,,,,,,,,,,,,,,,,,,,,,,,,,,,,,,,,,,
,,,,,,6171acbd32a9c4f4a22f348a,62bbfae82e1821b3c42830cb,2022-06-29_09h13.26.127,Colour_Asymmetry_Pilot,2022.1.3,Win32,60.01680471,62bbe60bf3d75ef465d3e404,0,57,57,21,1,threefour,,,,,,,,,,,,,,,,,,,,,,,,,,,,,,,,,,,,,,,,,,,,,,,,,,,,,,,,,,,,,,,,,,,,,,,,,,,,,,,,,,,,,,,,,,,,,,,,,,,,,,,,,,,,,,,,,,,,,,,,,,,,,,,,,,,,,,,,,,,,,,,,,,,,,,,
,,,,,,6171acbd32a9c4f4a22f348a,62bbfae82e1821b3c42830cb,2022-06-29_09h13.26.127,Colour_Asymmetry_Pilot,2022.1.3,Win32,60.01680471,62bbe60bf3d75ef465d3e404,0,58,58,0,1,onetwo,,,,,,,,,,,,,,,,,,,,,,,,,,,,,,,,,,,,,,,,,,,,,,,,,,,,,,,,,,,,,,,,,,,,,,,,,,,,,,,,,,,,,,,,,,,,,,,,,,,,,,,,,,,,,,,,,,,,,,,,,,,,,,,,,,,,,,,,,,,,,,,,,,,,,,,
,,,,,,6171acbd32a9c4f4a22f348a,62bbfae82e1821b3c42830cb,2022-06-29_09h13.26.127,Colour_Asymmetry_Pilot,2022.1.3,Win32,60.01680471,62bbe60bf3d75ef465d3e404,0,59,59,7,1,fourthree,,,,,,,,,,,,,,,,,,,,,,,,,,,,,,,,,,,,,,,,,,,,,,,,,,,,,,,,,,,,,,,,,,,,,,,,,,,,,,,,,,,,,,,,,,,,,,,,,,,,,,,,,,,,,,,,,,,,,,,,,,,,,,,,,,,,,,,,,,,,,,,,,,,,,,,
,,,,,,6171acbd32a9c4f4a22f348a,62bbfae82e1821b3c42830cb,2022-06-29_09h13.26.127,Colour_Asymmetry_Pilot,2022.1.3,Win32,60.01680471,62bbe60bf3d75ef465d3e404,0,60,60,1,1,onethree,,,,,,,,,,,,,,,,,,,,,,,,,,,,,,,,,,,,,,,,,,,,,,,,,,,,,,,,,,,,,,,,,,,,,,,,,,,,,,,,,,,,,,,,,,,,,,,,,,,,,,,,,,,,,,,,,,,,,,,,,,,,,,,,,,,,,,,,,,,,,,,,,,,,,,,
,,,,,,6171acbd32a9c4f4a22f348a,62bbfae82e1821b3c42830cb,2022-06-29_09h13.26.127,Colour_Asymmetry_Pilot,2022.1.3,Win32,60.01680471,62bbe60bf3d75ef465d3e404,0,61,61,83,1,twofour,,,,,,,,,,,,,,,,,,,,,,,,,,,,,,,,,,,,,,,,,,,,,,,,,,,,,,,,,,,,,,,,,,,,,,,,,,,,,,,,,,,,,,,,,,,,,,,,,,,,,,,,,,,,,,,,,,,,,,,,,,,,,,,,,,,,,,,,,,,,,,,,,,,,,,,
,,,,,,6171acbd32a9c4f4a22f348a,62bbfae82e1821b3c42830cb,2022-06-29_09h13.26.127,Colour_Asymmetry_Pilot,2022.1.3,Win32,60.01680471,62bbe60bf3d75ef465d3e404,0,62,62,30,1,fourtwo,,,,,,,,,,,,,,,,,,,,,,,,,,,,,,,,,,,,,,,,,,,,,,,,,,,,,,,,,,,,,,,,,,,,,,,,,,,,,,,,,,,,,,,,,,,,,,,,,,,,,,,,,,,,,,,,,,,,,,,,,,,,,,,,,,,,,,,,,,,,,,,,,,,,,,,
,,,,,,6171acbd32a9c4f4a22f348a,62bbfae82e1821b3c42830cb,2022-06-29_09h13.26.127,Colour_Asymmetry_Pilot,2022.1.3,Win32,60.01680471,62bbe60bf3d75ef465d3e404,0,63,63,99,1,twofour,,,,,,,,,,,,,,,,,,,,,,,,,,,,,,,,,,,,,,,,,,,,,,,,,,,,,,,,,,,,,,,,,,,,,,,,,,,,,,,,,,,,,,,,,,,,,,,,,,,,,,,,,,,,,,,,,,,,,,,,,,,,,,,,,,,,,,,,,,,,,,,,,,,,,,,
,,,,,,6171acbd32a9c4f4a22f348a,62bbfae82e1821b3c42830cb,2022-06-29_09h13.26.127,Colour_Asymmetry_Pilot,2022.1.3,Win32,60.01680471,62bbe60bf3d75ef465d3e404,0,64,64,97,1,onethree,,,,,,,,,,,,,,,,,,,,,,,,,,,,,,,,,,,,,,,,,,,,,,,,,,,,,,,,,,,,,,,,,,,,,,,,,,,,,,,,,,,,,,,,,,,,,,,,,,,,,,,,,,,,,,,,,,,,,,,,,,,,,,,,,,,,,,,,,,,,,,,,,,,,,,,
,,,,,,6171acbd32a9c4f4a22f348a,62bbfae82e1821b3c42830cb,2022-06-29_09h13.26.127,Colour_Asymmetry_Pilot,2022.1.3,Win32,60.01680471,62bbe60bf3d75ef465d3e404,0,65,65,135,1,fourthree,,,,,,,,,,,,,,,,,,,,,,,,,,,,,,,,,,,,,,,,,,,,,,,,,,,,,,,,,,,,,,,,,,,,,,,,,,,,,,,,,,,,,,,,,,,,,,,,,,,,,,,,,,,,,,,,,,,,,,,,,,,,,,,,,,,,,,,,,,,,,,,,,,,,,,,
,,,,,,6171acbd32a9c4f4a22f348a,62bbfae82e1821b3c42830cb,2022-06-29_09h13.26.127,Colour_Asymmetry_Pilot,2022.1.3,Win32,60.01680471,62bbe60bf3d75ef465d3e404,0,66,66,84,1,threeone,,,,,,,,,,,,,,,,,,,,,,,,,,,,,,,,,,,,,,,,,,,,,,,,,,,,,,,,,,,,,,,,,,,,,,,,,,,,,,,,,,,,,,,,,,,,,,,,,,,,,,,,,,,,,,,,,,,,,,,,,,,,,,,,,,,,,,,,,,,,,,,,,,,,,,,
,,,,,,6171acbd32a9c4f4a22f348a,62bbfae82e1821b3c42830cb,2022-06-29_09h13.26.127,Colour_Asymmetry_Pilot,2022.1.3,Win32,60.01680471,62bbe60bf3d75ef465d3e404,0,67,67,64,1,onetwo,,,,,,,,,,,,,,,,,,,,,,,,,,,,,,,,,,,,,,,,,,,,,,,,,,,,,,,,,,,,,,,,,,,,,,,,,,,,,,,,,,,,,,,,,,,,,,,,,,,,,,,,,,,,,,,,,,,,,,,,,,,,,,,,,,,,,,,,,,,,,,,,,,,,,,,
,,,,,,6171acbd32a9c4f4a22f348a,62bbfae82e1821b3c42830cb,2022-06-29_09h13.26.127,Colour_Asymmetry_Pilot,2022.1.3,Win32,60.01680471,62bbe60bf3d75ef465d3e404,0,68,68,101,1,threefour,,,,,,,,,,,,,,,,,,,,,,,,,,,,,,,,,,,,,,,,,,,,,,,,,,,,,,,,,,,,,,,,,,,,,,,,,,,,,,,,,,,,,,,,,,,,,,,,,,,,,,,,,,,,,,,,,,,,,,,,,,,,,,,,,,,,,,,,,,,,,,,,,,,,,,,
,,,,,,6171acbd32a9c4f4a22f348a,62bbfae82e1821b3c42830cb,2022-06-29_09h13.26.127,Colour_Asymmetry_Pilot,2022.1.3,Win32,60.01680471,62bbe60bf3d75ef465d3e404,0,69,69,109,1,threefour,,,,,,,,,,,,,,,,,,,,,,,,,,,,,,,,,,,,,,,,,,,,,,,,,,,,,,,,,,,,,,,,,,,,,,,,,,,,,,,,,,,,,,,,,,,,,,,,,,,,,,,,,,,,,,,,,,,,,,,,,,,,,,,,,,,,,,,,,,,,,,,,,,,,,,,
,,,,,,6171acbd32a9c4f4a22f348a,62bbfae82e1821b3c42830cb,2022-06-29_09h13.26.127,Colour_Asymmetry_Pilot,2022.1.3,Win32,60.01680471,62bbe60bf3d75ef465d3e404,0,70,70,36,1,threeone,,,,,,,,,,,,,,,,,,,,,,,,,,,,,,,,,,,,,,,,,,,,,,,,,,,,,,,,,,,,,,,,,,,,,,,,,,,,,,,,,,,,,,,,,,,,,,,,,,,,,,,,,,,,,,,,,,,,,,,,,,,,,,,,,,,,,,,,,,,,,,,,,,,,,,,
,,,,,,6171acbd32a9c4f4a22f348a,62bbfae82e1821b3c42830cb,2022-06-29_09h13.26.127,Colour_Asymmetry_Pilot,2022.1.3,Win32,60.01680471,62bbe60bf3d75ef465d3e404,0,71,71,91,1,twofour,,,,,,,,,,,,,,,,,,,,,,,,,,,,,,,,,,,,,,,,,,,,,,,,,,,,,,,,,,,,,,,,,,,,,,,,,,,,,,,,,,,,,,,,,,,,,,,,,,,,,,,,,,,,,,,,,,,,,,,,,,,,,,,,,,,,,,,,,,,,,,,,,,,,,,,
,,,,,,6171acbd32a9c4f4a22f348a,62bbfae82e1821b3c42830cb,2022-06-29_09h13.26.127,Colour_Asymmetry_Pilot,2022.1.3,Win32,60.01680471,62bbe60bf3d75ef465d3e404,0,72,72,93,1,threefour,,,,,,,,,,,,,,,,,,,,,,,,,,,,,,,,,,,,,,,,,,,,,,,,,,,,,,,,,,,,,,,,,,,,,,,,,,,,,,,,,,,,,,,,,,,,,,,,,,,,,,,,,,,,,,,,,,,,,,,,,,,,,,,,,,,,,,,,,,,,,,,,,,,,,,,
,,,,,,6171acbd32a9c4f4a22f348a,62bbfae82e1821b3c42830cb,2022-06-29_09h13.26.127,Colour_Asymmetry_Pilot,2022.1.3,Win32,60.01680471,62bbe60bf3d75ef465d3e404,0,73,73,139,1,twofour,,,,,,,,,,,,,,,,,,,,,,,,,,,,,,,,,,,,,,,,,,,,,,,,,,,,,,,,,,,,,,,,,,,,,,,,,,,,,,,,,,,,,,,,,,,,,,,,,,,,,,,,,,,,,,,,,,,,,,,,,,,,,,,,,,,,,,,,,,,,,,,,,,,,,,,
,,,,,,6171acbd32a9c4f4a22f348a,62bbfae82e1821b3c42830cb,2022-06-29_09h13.26.127,Colour_Asymmetry_Pilot,2022.1.3,Win32,60.01680471,62bbe60bf3d75ef465d3e404,0,74,74,71,1,fourthree,,,,,,,,,,,,,,,,,,,,,,,,,,,,,,,,,,,,,,,,,,,,,,,,,,,,,,,,,,,,,,,,,,,,,,,,,,,,,,,,,,,,,,,,,,,,,,,,,,,,,,,,,,,,,,,,,,,,,,,,,,,,,,,,,,,,,,,,,,,,,,,,,,,,,,,
,,,,,,6171acbd32a9c4f4a22f348a,62bbfae82e1821b3c42830cb,2022-06-29_09h13.26.127,Colour_Asymmetry_Pilot,2022.1.3,Win32,60.01680471,62bbe60bf3d75ef465d3e404,0,75,75,130,1,twoone,,,,,,,,,,,,,,,,,,,,,,,,,,,,,,,,,,,,,,,,,,,,,,,,,,,,,,,,,,,,,,,,,,,,,,,,,,,,,,,,,,,,,,,,,,,,,,,,,,,,,,,,,,,,,,,,,,,,,,,,,,,,,,,,,,,,,,,,,,,,,,,,,,,,,,,
,,,,,,6171acbd32a9c4f4a22f348a,62bbfae82e1821b3c42830cb,2022-06-29_09h13.26.127,Colour_Asymmetry_Pilot,2022.1.3,Win32,60.01680471,62bbe60bf3d75ef465d3e404,0,76,76,34,1,twoone,,,,,,,,,,,,,,,,,,,,,,,,,,,,,,,,,,,,,,,,,,,,,,,,,,,,,,,,,,,,,,,,,,,,,,,,,,,,,,,,,,,,,,,,,,,,,,,,,,,,,,,,,,,,,,,,,,,,,,,,,,,,,,,,,,,,,,,,,,,,,,,,,,,,,,,
,,,,,,6171acbd32a9c4f4a22f348a,62bbfae82e1821b3c42830cb,2022-06-29_09h13.26.127,Colour_Asymmetry_Pilot,2022.1.3,Win32,60.01680471,62bbe60bf3d75ef465d3e404,0,77,77,15,1,fourthree,,,,,,,,,,,,,,,,,,,,,,,,,,,,,,,,,,,,,,,,,,,,,,,,,,,,,,,,,,,,,,,,,,,,,,,,,,,,,,,,,,,,,,,,,,,,,,,,,,,,,,,,,,,,,,,,,,,,,,,,,,,,,,,,,,,,,,,,,,,,,,,,,,,,,,,
,,,,,,6171acbd32a9c4f4a22f348a,62bbfae82e1821b3c42830cb,2022-06-29_09h13.26.127,Colour_Asymmetry_Pilot,2022.1.3,Win32,60.01680471,62bbe60bf3d75ef465d3e404,0,78,78,22,1,fourtwo,,,,,,,,,,,,,,,,,,,,,,,,,,,,,,,,,,,,,,,,,,,,,,,,,,,,,,,,,,,,,,,,,,,,,,,,,,,,,,,,,,,,,,,,,,,,,,,,,,,,,,,,,,,,,,,,,,,,,,,,,,,,,,,,,,,,,,,,,,,,,,,,,,,,,,,
,,,,,,6171acbd32a9c4f4a22f348a,62bbfae82e1821b3c42830cb,2022-06-29_09h13.26.127,Colour_Asymmetry_Pilot,2022.1.3,Win32,60.01680471,62bbe60bf3d75ef465d3e404,0,79,79,32,1,onetwo,,,,,,,,,,,,,,,,,,,,,,,,,,,,,,,,,,,,,,,,,,,,,,,,,,,,,,,,,,,,,,,,,,,,,,,,,,,,,,,,,,,,,,,,,,,,,,,,,,,,,,,,,,,,,,,,,,,,,,,,,,,,,,,,,,,,,,,,,,,,,,,,,,,,,,,
,,,,,,6171acbd32a9c4f4a22f348a,62bbfae82e1821b3c42830cb,2022-06-29_09h13.26.127,Colour_Asymmetry_Pilot,2022.1.3,Win32,60.01680471,62bbe60bf3d75ef465d3e404,0,80,80,154,1,twoone,,,,,,,,,,,,,,,,,,,,,,,,,,,,,,,,,,,,,,,,,,,,,,,,,,,,,,,,,,,,,,,,,,,,,,,,,,,,,,,,,,,,,,,,,,,,,,,,,,,,,,,,,,,,,,,,,,,,,,,,,,,,,,,,,,,,,,,,,,,,,,,,,,,,,,,
,,,,,,6171acbd32a9c4f4a22f348a,62bbfae82e1821b3c42830cb,2022-06-29_09h13.26.127,Colour_Asymmetry_Pilot,2022.1.3,Win32,60.01680471,62bbe60bf3d75ef465d3e404,0,81,81,152,1,onetwo,,,,,,,,,,,,,,,,,,,,,,,,,,,,,,,,,,,,,,,,,,,,,,,,,,,,,,,,,,,,,,,,,,,,,,,,,,,,,,,,,,,,,,,,,,,,,,,,,,,,,,,,,,,,,,,,,,,,,,,,,,,,,,,,,,,,,,,,,,,,,,,,,,,,,,,
,,,,,,6171acbd32a9c4f4a22f348a,62bbfae82e1821b3c42830cb,2022-06-29_09h13.26.127,Colour_Asymmetry_Pilot,2022.1.3,Win32,60.01680471,62bbe60bf3d75ef465d3e404,0,82,82,41,1,onethree,,,,,,,,,,,,,,,,,,,,,,,,,,,,,,,,,,,,,,,,,,,,,,,,,,,,,,,,,,,,,,,,,,,,,,,,,,,,,,,,,,,,,,,,,,,,,,,,,,,,,,,,,,,,,,,,,,,,,,,,,,,,,,,,,,,,,,,,,,,,,,,,,,,,,,,
,,,,,,6171acbd32a9c4f4a22f348a,62bbfae82e1821b3c42830cb,2022-06-29_09h13.26.127,Colour_Asymmetry_Pilot,2022.1.3,Win32,60.01680471,62bbe60bf3d75ef465d3e404,0,83,83,114,1,twoone,,,,,,,,,,,,,,,,,,,,,,,,,,,,,,,,,,,,,,,,,,,,,,,,,,,,,,,,,,,,,,,,,,,,,,,,,,,,,,,,,,,,,,,,,,,,,,,,,,,,,,,,,,,,,,,,,,,,,,,,,,,,,,,,,,,,,,,,,,,,,,,,,,,,,,,
,,,,,,6171acbd32a9c4f4a22f348a,62bbfae82e1821b3c42830cb,2022-06-29_09h13.26.127,Colour_Asymmetry_Pilot,2022.1.3,Win32,60.01680471,62bbe60bf3d75ef465d3e404,0,84,84,14,1,fourtwo,,,,,,,,,,,,,,,,,,,,,,,,,,,,,,,,,,,,,,,,,,,,,,,,,,,,,,,,,,,,,,,,,,,,,,,,,,,,,,,,,,,,,,,,,,,,,,,,,,,,,,,,,,,,,,,,,,,,,,,,,,,,,,,,,,,,,,,,,,,,,,,,,,,,,,,
,,,,,,6171acbd32a9c4f4a22f348a,62bbfae82e1821b3c42830cb,2022-06-29_09h13.26.127,Colour_Asymmetry_Pilot,2022.1.3,Win32,60.01680471,62bbe60bf3d75ef465d3e404,0,85,85,52,1,threeone,,,,,,,,,,,,,,,,,,,,,,,,,,,,,,,,,,,,,,,,,,,,,,,,,,,,,,,,,,,,,,,,,,,,,,,,,,,,,,,,,,,,,,,,,,,,,,,,,,,,,,,,,,,,,,,,,,,,,,,,,,,,,,,,,,,,,,,,,,,,,,,,,,,,,,,
,,,,,,6171acbd32a9c4f4a22f348a,62bbfae82e1821b3c42830cb,2022-06-29_09h13.26.127,Colour_Asymmetry_Pilot,2022.1.3,Win32,60.01680471,62bbe60bf3d75ef465d3e404,0,86,86,145,1,onethree,,,,,,,,,,,,,,,,,,,,,,,,,,,,,,,,,,,,,,,,,,,,,,,,,,,,,,,,,,,,,,,,,,,,,,,,,,,,,,,,,,,,,,,,,,,,,,,,,,,,,,,,,,,,,,,,,,,,,,,,,,,,,,,,,,,,,,,,,,,,,,,,,,,,,,,
,,,,,,6171acbd32a9c4f4a22f348a,62bbfae82e1821b3c42830cb,2022-06-29_09h13.26.127,Colour_Asymmetry_Pilot,2022.1.3,Win32,60.01680471,62bbe60bf3d75ef465d3e404,0,87,87,141,1,threefour,,,,,,,,,,,,,,,,,,,,,,,,,,,,,,,,,,,,,,,,,,,,,,,,,,,,,,,,,,,,,,,,,,,,,,,,,,,,,,,,,,,,,,,,,,,,,,,,,,,,,,,,,,,,,,,,,,,,,,,,,,,,,,,,,,,,,,,,,,,,,,,,,,,,,,,
,,,,,,6171acbd32a9c4f4a22f348a,62bbfae82e1821b3c42830cb,2022-06-29_09h13.26.127,Colour_Asymmetry_Pilot,2022.1.3,Win32,60.01680471,62bbe60bf3d75ef465d3e404,0,88,88,143,1,fourthree,,,,,,,,,,,,,,,,,,,,,,,,,,,,,,,,,,,,,,,,,,,,,,,,,,,,,,,,,,,,,,,,,,,,,,,,,,,,,,,,,,,,,,,,,,,,,,,,,,,,,,,,,,,,,,,,,,,,,,,,,,,,,,,,,,,,,,,,,,,,,,,,,,,,,,,
,,,,,,6171acbd32a9c4f4a22f348a,62bbfae82e1821b3c42830cb,2022-06-29_09h13.26.127,Colour_Asymmetry_Pilot,2022.1.3,Win32,60.01680471,62bbe60bf3d75ef465d3e404,0,89,89,58,1,twoone,,,,,,,,,,,,,,,,,,,,,,,,,,,,,,,,,,,,,,,,,,,,,,,,,,,,,,,,,,,,,,,,,,,,,,,,,,,,,,,,,,,,,,,,,,,,,,,,,,,,,,,,,,,,,,,,,,,,,,,,,,,,,,,,,,,,,,,,,,,,,,,,,,,,,,,
,,,,,,6171acbd32a9c4f4a22f348a,62bbfae82e1821b3c42830cb,2022-06-29_09h13.26.127,Colour_Asymmetry_Pilot,2022.1.3,Win32,60.01680471,62bbe60bf3d75ef465d3e404,0,90,90,88,1,onetwo,,,,,,,,,,,,,,,,,,,,,,,,,,,,,,,,,,,,,,,,,,,,,,,,,,,,,,,,,,,,,,,,,,,,,,,,,,,,,,,,,,,,,,,,,,,,,,,,,,,,,,,,,,,,,,,,,,,,,,,,,,,,,,,,,,,,,,,,,,,,,,,,,,,,,,,
,,,,,,6171acbd32a9c4f4a22f348a,62bbfae82e1821b3c42830cb,2022-06-29_09h13.26.127,Colour_Asymmetry_Pilot,2022.1.3,Win32,60.01680471,62bbe60bf3d75ef465d3e404,0,91,91,51,1,twofour,,,,,,,,,,,,,,,,,,,,,,,,,,,,,,,,,,,,,,,,,,,,,,,,,,,,,,,,,,,,,,,,,,,,,,,,,,,,,,,,,,,,,,,,,,,,,,,,,,,,,,,,,,,,,,,,,,,,,,,,,,,,,,,,,,,,,,,,,,,,,,,,,,,,,,,
,,,,,,6171acbd32a9c4f4a22f348a,62bbfae82e1821b3c42830cb,2022-06-29_09h13.26.127,Colour_Asymmetry_Pilot,2022.1.3,Win32,60.01680471,62bbe60bf3d75ef465d3e404,0,92,92,45,1,threefour,,,,,,,,,,,,,,,,,,,,,,,,,,,,,,,,,,,,,,,,,,,,,,,,,,,,,,,,,,,,,,,,,,,,,,,,,,,,,,,,,,,,,,,,,,,,,,,,,,,,,,,,,,,,,,,,,,,,,,,,,,,,,,,,,,,,,,,,,,,,,,,,,,,,,,,
,,,,,,6171acbd32a9c4f4a22f348a,62bbfae82e1821b3c42830cb,2022-06-29_09h13.26.127,Colour_Asymmetry_Pilot,2022.1.3,Win32,60.01680471,62bbe60bf3d75ef465d3e404,0,93,93,140,1,threeone,,,,,,,,,,,,,,,,,,,,,,,,,,,,,,,,,,,,,,,,,,,,,,,,,,,,,,,,,,,,,,,,,,,,,,,,,,,,,,,,,,,,,,,,,,,,,,,,,,,,,,,,,,,,,,,,,,,,,,,,,,,,,,,,,,,,,,,,,,,,,,,,,,,,,,,
,,,,,,6171acbd32a9c4f4a22f348a,62bbfae82e1821b3c42830cb,2022-06-29_09h13.26.127,Colour_Asymmetry_Pilot,2022.1.3,Win32,60.01680471,62bbe60bf3d75ef465d3e404,0,94,94,132,1,threeone,,,,,,,,,,,,,,,,,,,,,,,,,,,,,,,,,,,,,,,,,,,,,,,,,,,,,,,,,,,,,,,,,,,,,,,,,,,,,,,,,,,,,,,,,,,,,,,,,,,,,,,,,,,,,,,,,,,,,,,,,,,,,,,,,,,,,,,,,,,,,,,,,,,,,,,
,,,,,,6171acbd32a9c4f4a22f348a,62bbfae82e1821b3c42830cb,2022-06-29_09h13.26.127,Colour_Asymmetry_Pilot,2022.1.3,Win32,60.01680471,62bbe60bf3d75ef465d3e404,0,95,95,118,1,fourtwo,,,,,,,,,,,,,,,,,,,,,,,,,,,,,,,,,,,,,,,,,,,,,,,,,,,,,,,,,,,,,,,,,,,,,,,,,,,,,,,,,,,,,,,,,,,,,,,,,,,,,,,,,,,,,,,,,,,,,,,,,,,,,,,,,,,,,,,,,,,,,,,,,,,,,,,
,,,,,,6171acbd32a9c4f4a22f348a,62bbfae82e1821b3c42830cb,2022-06-29_09h13.26.127,Colour_Asymmetry_Pilot,2022.1.3,Win32,60.01680471,62bbe60bf3d75ef465d3e404,0,96,96,116,1,threeone,,,,,,,,,,,,,,,,,,,,,,,,,,,,,,,,,,,,,,,,,,,,,,,,,,,,,,,,,,,,,,,,,,,,,,,,,,,,,,,,,,,,,,,,,,,,,,,,,,,,,,,,,,,,,,,,,,,,,,,,,,,,,,,,,,,,,,,,,,,,,,,,,,,,,,,
,,,,,,6171acbd32a9c4f4a22f348a,62bbfae82e1821b3c42830cb,2022-06-29_09h13.26.127,Colour_Asymmetry_Pilot,2022.1.3,Win32,60.01680471,62bbe60bf3d75ef465d3e404,0,97,97,27,1,twofour,,,,,,,,,,,,,,,,,,,,,,,,,,,,,,,,,,,,,,,,,,,,,,,,,,,,,,,,,,,,,,,,,,,,,,,,,,,,,,,,,,,,,,,,,,,,,,,,,,,,,,,,,,,,,,,,,,,,,,,,,,,,,,,,,,,,,,,,,,,,,,,,,,,,,,,
,,,,,,6171acbd32a9c4f4a22f348a,62bbfae82e1821b3c42830cb,2022-06-29_09h13.26.127,Colour_Asymmetry_Pilot,2022.1.3,Win32,60.01680471,62bbe60bf3d75ef465d3e404,0,98,98,129,1,onethree,,,,,,,,,,,,,,,,,,,,,,,,,,,,,,,,,,,,,,,,,,,,,,,,,,,,,,,,,,,,,,,,,,,,,,,,,,,,,,,,,,,,,,,,,,,,,,,,,,,,,,,,,,,,,,,,,,,,,,,,,,,,,,,,,,,,,,,,,,,,,,,,,,,,,,,
,,,,,,6171acbd32a9c4f4a22f348a,62bbfae82e1821b3c42830cb,2022-06-29_09h13.26.127,Colour_Asymmetry_Pilot,2022.1.3,Win32,60.01680471,62bbe60bf3d75ef465d3e404,0,99,99,9,1,onethree,,,,,,,,,,,,,,,,,,,,,,,,,,,,,,,,,,,,,,,,,,,,,,,,,,,,,,,,,,,,,,,,,,,,,,,,,,,,,,,,,,,,,,,,,,,,,,,,,,,,,,,,,,,,,,,,,,,,,,,,,,,,,,,,,,,,,,,,,,,,,,,,,,,,,,,
,,,,,,6171acbd32a9c4f4a22f348a,62bbfae82e1821b3c42830cb,2022-06-29_09h13.26.127,Colour_Asymmetry_Pilot,2022.1.3,Win32,60.01680471,62bbe60bf3d75ef465d3e404,0,100,100,160,1,onetwo,,,,,,,,,,,,,,,,,,,,,,,,,,,,,,,,,,,,,,,,,,,,,,,,,,,,,,,,,,,,,,,,,,,,,,,,,,,,,,,,,,,,,,,,,,,,,,,,,,,,,,,,,,,,,,,,,,,,,,,,,,,,,,,,,,,,,,,,,,,,,,,,,,,,,,,
,,,,,,6171acbd32a9c4f4a22f348a,62bbfae82e1821b3c42830cb,2022-06-29_09h13.26.127,Colour_Asymmetry_Pilot,2022.1.3,Win32,60.01680471,62bbe60bf3d75ef465d3e404,0,101,101,54,1,fourtwo,,,,,,,,,,,,,,,,,,,,,,,,,,,,,,,,,,,,,,,,,,,,,,,,,,,,,,,,,,,,,,,,,,,,,,,,,,,,,,,,,,,,,,,,,,,,,,,,,,,,,,,,,,,,,,,,,,,,,,,,,,,,,,,,,,,,,,,,,,,,,,,,,,,,,,,
,,,,,,6171acbd32a9c4f4a22f348a,62bbfae82e1821b3c42830cb,2022-06-29_09h13.26.127,Colour_Asymmetry_Pilot,2022.1.3,Win32,60.01680471,62bbe60bf3d75ef465d3e404,0,102,102,24,1,onetwo,,,,,,,,,,,,,,,,,,,,,,,,,,,,,,,,,,,,,,,,,,,,,,,,,,,,,,,,,,,,,,,,,,,,,,,,,,,,,,,,,,,,,,,,,,,,,,,,,,,,,,,,,,,,,,,,,,,,,,,,,,,,,,,,,,,,,,,,,,,,,,,,,,,,,,,
,,,,,,6171acbd32a9c4f4a22f348a,62bbfae82e1821b3c42830cb,2022-06-29_09h13.26.127,Colour_Asymmetry_Pilot,2022.1.3,Win32,60.01680471,62bbe60bf3d75ef465d3e404,0,103,103,69,1,threefour,,,,,,,,,,,,,,,,,,,,,,,,,,,,,,,,,,,,,,,,,,,,,,,,,,,,,,,,,,,,,,,,,,,,,,,,,,,,,,,,,,,,,,,,,,,,,,,,,,,,,,,,,,,,,,,,,,,,,,,,,,,,,,,,,,,,,,,,,,,,,,,,,,,,,,,
,,,,,,6171acbd32a9c4f4a22f348a,62bbfae82e1821b3c42830cb,2022-06-29_09h13.26.127,Colour_Asymmetry_Pilot,2022.1.3,Win32,60.01680471,62bbe60bf3d75ef465d3e404,0,104,104,18,1,twoone,,,,,,,,,,,,,,,,,,,,,,,,,,,,,,,,,,,,,,,,,,,,,,,,,,,,,,,,,,,,,,,,,,,,,,,,,,,,,,,,,,,,,,,,,,,,,,,,,,,,,,,,,,,,,,,,,,,,,,,,,,,,,,,,,,,,,,,,,,,,,,,,,,,,,,,
,,,,,,6171acbd32a9c4f4a22f348a,62bbfae82e1821b3c42830cb,2022-06-29_09h13.26.127,Colour_Asymmetry_Pilot,2022.1.3,Win32,60.01680471,62bbe60bf3d75ef465d3e404,0,105,105,39,1,fourthree,,,,,,,,,,,,,,,,,,,,,,,,,,,,,,,,,,,,,,,,,,,,,,,,,,,,,,,,,,,,,,,,,,,,,,,,,,,,,,,,,,,,,,,,,,,,,,,,,,,,,,,,,,,,,,,,,,,,,,,,,,,,,,,,,,,,,,,,,,,,,,,,,,,,,,,
,,,,,,6171acbd32a9c4f4a22f348a,62bbfae82e1821b3c42830cb,2022-06-29_09h13.26.127,Colour_Asymmetry_Pilot,2022.1.3,Win32,60.01680471,62bbe60bf3d75ef465d3e404,0,106,106,85,1,threefour,,,,,,,,,,,,,,,,,,,,,,,,,,,,,,,,,,,,,,,,,,,,,,,,,,,,,,,,,,,,,,,,,,,,,,,,,,,,,,,,,,,,,,,,,,,,,,,,,,,,,,,,,,,,,,,,,,,,,,,,,,,,,,,,,,,,,,,,,,,,,,,,,,,,,,,
,,,,,,6171acbd32a9c4f4a22f348a,62bbfae82e1821b3c42830cb,2022-06-29_09h13.26.127,Colour_Asymmetry_Pilot,2022.1.3,Win32,60.01680471,62bbe60bf3d75ef465d3e404,0,107,107,46,1,fourtwo,,,,,,,,,,,,,,,,,,,,,,,,,,,,,,,,,,,,,,,,,,,,,,,,,,,,,,,,,,,,,,,,,,,,,,,,,,,,,,,,,,,,,,,,,,,,,,,,,,,,,,,,,,,,,,,,,,,,,,,,,,,,,,,,,,,,,,,,,,,,,,,,,,,,,,,
,,,,,,6171acbd32a9c4f4a22f348a,62bbfae82e1821b3c42830cb,2022-06-29_09h13.26.127,Colour_Asymmetry_Pilot,2022.1.3,Win32,60.01680471,62bbe60bf3d75ef465d3e404,0,108,108,19,1,twofour,,,,,,,,,,,,,,,,,,,,,,,,,,,,,,,,,,,,,,,,,,,,,,,,,,,,,,,,,,,,,,,,,,,,,,,,,,,,,,,,,,,,,,,,,,,,,,,,,,,,,,,,,,,,,,,,,,,,,,,,,,,,,,,,,,,,,,,,,,,,,,,,,,,,,,,
,,,,,,6171acbd32a9c4f4a22f348a,62bbfae82e1821b3c42830cb,2022-06-29_09h13.26.127,Colour_Asymmetry_Pilot,2022.1.3,Win32,60.01680471,62bbe60bf3d75ef465d3e404,0,109,109,80,1,onetwo,,,,,,,,,,,,,,,,,,,,,,,,,,,,,,,,,,,,,,,,,,,,,,,,,,,,,,,,,,,,,,,,,,,,,,,,,,,,,,,,,,,,,,,,,,,,,,,,,,,,,,,,,,,,,,,,,,,,,,,,,,,,,,,,,,,,,,,,,,,,,,,,,,,,,,,
,,,,,,6171acbd32a9c4f4a22f348a,62bbfae82e1821b3c42830cb,2022-06-29_09h13.26.127,Colour_Asymmetry_Pilot,2022.1.3,Win32,60.01680471,62bbe60bf3d75ef465d3e404,0,110,110,124,1,threeone,,,,,,,,,,,,,,,,,,,,,,,,,,,,,,,,,,,,,,,,,,,,,,,,,,,,,,,,,,,,,,,,,,,,,,,,,,,,,,,,,,,,,,,,,,,,,,,,,,,,,,,,,,,,,,,,,,,,,,,,,,,,,,,,,,,,,,,,,,,,,,,,,,,,,,,
,,,,,,6171acbd32a9c4f4a22f348a,62bbfae82e1821b3c42830cb,2022-06-29_09h13.26.127,Colour_Asymmetry_Pilot,2022.1.3,Win32,60.01680471,62bbe60bf3d75ef465d3e404,0,111,111,50,1,twoone,,,,,,,,,,,,,,,,,,,,,,,,,,,,,,,,,,,,,,,,,,,,,,,,,,,,,,,,,,,,,,,,,,,,,,,,,,,,,,,,,,,,,,,,,,,,,,,,,,,,,,,,,,,,,,,,,,,,,,,,,,,,,,,,,,,,,,,,,,,,,,,,,,,,,,,
,,,,,,6171acbd32a9c4f4a22f348a,62bbfae82e1821b3c42830cb,2022-06-29_09h13.26.127,Colour_Asymmetry_Pilot,2022.1.3,Win32,60.01680471,62bbe60bf3d75ef465d3e404,0,112,112,94,1,fourtwo,,,,,,,,,,,,,,,,,,,,,,,,,,,,,,,,,,,,,,,,,,,,,,,,,,,,,,,,,,,,,,,,,,,,,,,,,,,,,,,,,,,,,,,,,,,,,,,,,,,,,,,,,,,,,,,,,,,,,,,,,,,,,,,,,,,,,,,,,,,,,,,,,,,,,,,
,,,,,,6171acbd32a9c4f4a22f348a,62bbfae82e1821b3c42830cb,2022-06-29_09h13.26.127,Colour_Asymmetry_Pilot,2022.1.3,Win32,60.01680471,62bbe60bf3d75ef465d3e404,0,113,113,48,1,onetwo,,,,,,,,,,,,,,,,,,,,,,,,,,,,,,,,,,,,,,,,,,,,,,,,,,,,,,,,,,,,,,,,,,,,,,,,,,,,,,,,,,,,,,,,,,,,,,,,,,,,,,,,,,,,,,,,,,,,,,,,,,,,,,,,,,,,,,,,,,,,,,,,,,,,,,,
,,,,,,6171acbd32a9c4f4a22f348a,62bbfae82e1821b3c42830cb,2022-06-29_09h13.26.127,Colour_Asymmetry_Pilot,2022.1.3,Win32,60.01680471,62bbe60bf3d75ef465d3e404,0,114,114,31,1,fourthree,,,,,,,,,,,,,,,,,,,,,,,,,,,,,,,,,,,,,,,,,,,,,,,,,,,,,,,,,,,,,,,,,,,,,,,,,,,,,,,,,,,,,,,,,,,,,,,,,,,,,,,,,,,,,,,,,,,,,,,,,,,,,,,,,,,,,,,,,,,,,,,,,,,,,,,
,,,,,,6171acbd32a9c4f4a22f348a,62bbfae82e1821b3c42830cb,2022-06-29_09h13.26.127,Colour_Asymmetry_Pilot,2022.1.3,Win32,60.01680471,62bbe60bf3d75ef465d3e404,0,115,115,66,1,twoone,,,,,,,,,,,,,,,,,,,,,,,,,,,,,,,,,,,,,,,,,,,,,,,,,,,,,,,,,,,,,,,,,,,,,,,,,,,,,,,,,,,,,,,,,,,,,,,,,,,,,,,,,,,,,,,,,,,,,,,,,,,,,,,,,,,,,,,,,,,,,,,,,,,,,,,
,,,,,,6171acbd32a9c4f4a22f348a,62bbfae82e1821b3c42830cb,2022-06-29_09h13.26.127,Colour_Asymmetry_Pilot,2022.1.3,Win32,60.01680471,62bbe60bf3d75ef465d3e404,0,116,116,43,1,twofour,,,,,,,,,,,,,,,,,,,,,,,,,,,,,,,,,,,,,,,,,,,,,,,,,,,,,,,,,,,,,,,,,,,,,,,,,,,,,,,,,,,,,,,,,,,,,,,,,,,,,,,,,,,,,,,,,,,,,,,,,,,,,,,,,,,,,,,,,,,,,,,,,,,,,,,
,,,,,,6171acbd32a9c4f4a22f348a,62bbfae82e1821b3c42830cb,2022-06-29_09h13.26.127,Colour_Asymmetry_Pilot,2022.1.3,Win32,60.01680471,62bbe60bf3d75ef465d3e404,0,117,117,20,1,threeone,,,,,,,,,,,,,,,,,,,,,,,,,,,,,,,,,,,,,,,,,,,,,,,,,,,,,,,,,,,,,,,,,,,,,,,,,,,,,,,,,,,,,,,,,,,,,,,,,,,,,,,,,,,,,,,,,,,,,,,,,,,,,,,,,,,,,,,,,,,,,,,,,,,,,,,
,,,,,,6171acbd32a9c4f4a22f348a,62bbfae82e1821b3c42830cb,2022-06-29_09h13.26.127,Colour_Asymmetry_Pilot,2022.1.3,Win32,60.01680471,62bbe60bf3d75ef465d3e404,0,118,118,4,1,threeone,,,,,,,,,,,,,,,,,,,,,,,,,,,,,,,,,,,,,,,,,,,,,,,,,,,,,,,,,,,,,,,,,,,,,,,,,,,,,,,,,,,,,,,,,,,,,,,,,,,,,,,,,,,,,,,,,,,,,,,,,,,,,,,,,,,,,,,,,,,,,,,,,,,,,,,
,,,,,,6171acbd32a9c4f4a22f348a,62bbfae82e1821b3c42830cb,2022-06-29_09h13.26.127,Colour_Asymmetry_Pilot,2022.1.3,Win32,60.01680471,62bbe60bf3d75ef465d3e404,0,119,119,70,1,fourtwo,,,,,,,,,,,,,,,,,,,,,,,,,,,,,,,,,,,,,,,,,,,,,,,,,,,,,,,,,,,,,,,,,,,,,,,,,,,,,,,,,,,,,,,,,,,,,,,,,,,,,,,,,,,,,,,,,,,,,,,,,,,,,,,,,,,,,,,,,,,,,,,,,,,,,,,
,,,,,,6171acbd32a9c4f4a22f348a,62bbfae82e1821b3c42830cb,2022-06-29_09h13.26.127,Colour_Asymmetry_Pilot,2022.1.3,Win32,60.01680471,62bbe60bf3d75ef465d3e404,0,120,120,126,1,fourtwo,,,,,,,,,,,,,,,,,,,,,,,,,,,,,,,,,,,,,,,,,,,,,,,,,,,,,,,,,,,,,,,,,,,,,,,,,,,,,,,,,,,,,,,,,,,,,,,,,,,,,,,,,,,,,,,,,,,,,,,,,,,,,,,,,,,,,,,,,,,,,,,,,,,,,,,
,,,,,,6171acbd32a9c4f4a22f348a,62bbfae82e1821b3c42830cb,2022-06-29_09h13.26.127,Colour_Asymmetry_Pilot,2022.1.3,Win32,60.01680471,62bbe60bf3d75ef465d3e404,0,121,121,49,1,onethree,,,,,,,,,,,,,,,,,,,,,,,,,,,,,,,,,,,,,,,,,,,,,,,,,,,,,,,,,,,,,,,,,,,,,,,,,,,,,,,,,,,,,,,,,,,,,,,,,,,,,,,,,,,,,,,,,,,,,,,,,,,,,,,,,,,,,,,,,,,,,,,,,,,,,,,
,,,,,,6171acbd32a9c4f4a22f348a,62bbfae82e1821b3c42830cb,2022-06-29_09h13.26.127,Colour_Asymmetry_Pilot,2022.1.3,Win32,60.01680471,62bbe60bf3d75ef465d3e404,0,122,122,138,1,twoone,,,,,,,,,,,,,,,,,,,,,,,,,,,,,,,,,,,,,,,,,,,,,,,,,,,,,,,,,,,,,,,,,,,,,,,,,,,,,,,,,,,,,,,,,,,,,,,,,,,,,,,,,,,,,,,,,,,,,,,,,,,,,,,,,,,,,,,,,,,,,,,,,,,,,,,
,,,,,,6171acbd32a9c4f4a22f348a,62bbfae82e1821b3c42830cb,2022-06-29_09h13.26.127,Colour_Asymmetry_Pilot,2022.1.3,Win32,60.01680471,62bbe60bf3d75ef465d3e404,0,123,123,106,1,twoone,,,,,,,,,,,,,,,,,,,,,,,,,,,,,,,,,,,,,,,,,,,,,,,,,,,,,,,,,,,,,,,,,,,,,,,,,,,,,,,,,,,,,,,,,,,,,,,,,,,,,,,,,,,,,,,,,,,,,,,,,,,,,,,,,,,,,,,,,,,,,,,,,,,,,,,
,,,,,,6171acbd32a9c4f4a22f348a,62bbfae82e1821b3c42830cb,2022-06-29_09h13.26.127,Colour_Asymmetry_Pilot,2022.1.3,Win32,60.01680471,62bbe60bf3d75ef465d3e404,0,124,124,112,1,onetwo,,,,,,,,,,,,,,,,,,,,,,,,,,,,,,,,,,,,,,,,,,,,,,,,,,,,,,,,,,,,,,,,,,,,,,,,,,,,,,,,,,,,,,,,,,,,,,,,,,,,,,,,,,,,,,,,,,,,,,,,,,,,,,,,,,,,,,,,,,,,,,,,,,,,,,,
,,,,,,6171acbd32a9c4f4a22f348a,62bbfae82e1821b3c42830cb,2022-06-29_09h13.26.127,Colour_Asymmetry_Pilot,2022.1.3,Win32,60.01680471,62bbe60bf3d75ef465d3e404,0,125,125,81,1,onethree,,,,,,,,,,,,,,,,,,,,,,,,,,,,,,,,,,,,,,,,,,,,,,,,,,,,,,,,,,,,,,,,,,,,,,,,,,,,,,,,,,,,,,,,,,,,,,,,,,,,,,,,,,,,,,,,,,,,,,,,,,,,,,,,,,,,,,,,,,,,,,,,,,,,,,,
,,,,,,6171acbd32a9c4f4a22f348a,62bbfae82e1821b3c42830cb,2022-06-29_09h13.26.127,Colour_Asymmetry_Pilot,2022.1.3,Win32,60.01680471,62bbe60bf3d75ef465d3e404,0,126,126,120,1,onetwo,,,,,,,,,,,,,,,,,,,,,,,,,,,,,,,,,,,,,,,,,,,,,,,,,,,,,,,,,,,,,,,,,,,,,,,,,,,,,,,,,,,,,,,,,,,,,,,,,,,,,,,,,,,,,,,,,,,,,,,,,,,,,,,,,,,,,,,,,,,,,,,,,,,,,,,
,,,,,,6171acbd32a9c4f4a22f348a,62bbfae82e1821b3c42830cb,2022-06-29_09h13.26.127,Colour_Asymmetry_Pilot,2022.1.3,Win32,60.01680471,62bbe60bf3d75ef465d3e404,0,127,127,136,1,onetwo,,,,,,,,,,,,,,,,,,,,,,,,,,,,,,,,,,,,,,,,,,,,,,,,,,,,,,,,,,,,,,,,,,,,,,,,,,,,,,,,,,,,,,,,,,,,,,,,,,,,,,,,,,,,,,,,,,,,,,,,,,,,,,,,,,,,,,,,,,,,,,,,,,,,,,,
,,,,,,6171acbd32a9c4f4a22f348a,62bbfae82e1821b3c42830cb,2022-06-29_09h13.26.127,Colour_Asymmetry_Pilot,2022.1.3,Win32,60.01680471,62bbe60bf3d75ef465d3e404,0,128,128,63,1,fourthree,,,,,,,,,,,,,,,,,,,,,,,,,,,,,,,,,,,,,,,,,,,,,,,,,,,,,,,,,,,,,,,,,,,,,,,,,,,,,,,,,,,,,,,,,,,,,,,,,,,,,,,,,,,,,,,,,,,,,,,,,,,,,,,,,,,,,,,,,,,,,,,,,,,,,,,
,,,,,,6171acbd32a9c4f4a22f348a,62bbfae82e1821b3c42830cb,2022-06-29_09h13.26.127,Colour_Asymmetry_Pilot,2022.1.3,Win32,60.01680471,62bbe60bf3d75ef465d3e404,0,129,129,86,1,fourtwo,,,,,,,,,,,,,,,,,,,,,,,,,,,,,,,,,,,,,,,,,,,,,,,,,,,,,,,,,,,,,,,,,,,,,,,,,,,,,,,,,,,,,,,,,,,,,,,,,,,,,,,,,,,,,,,,,,,,,,,,,,,,,,,,,,,,,,,,,,,,,,,,,,,,,,,
,,,,,,6171acbd32a9c4f4a22f348a,62bbfae82e1821b3c42830cb,2022-06-29_09h13.26.127,Colour_Asymmetry_Pilot,2022.1.3,Win32,60.01680471,62bbe60bf3d75ef465d3e404,0,130,130,12,1,threeone,,,,,,,,,,,,,,,,,,,,,,,,,,,,,,,,,,,,,,,,,,,,,,,,,,,,,,,,,,,,,,,,,,,,,,,,,,,,,,,,,,,,,,,,,,,,,,,,,,,,,,,,,,,,,,,,,,,,,,,,,,,,,,,,,,,,,,,,,,,,,,,,,,,,,,,
,,,,,,6171acbd32a9c4f4a22f348a,62bbfae82e1821b3c42830cb,2022-06-29_09h13.26.127,Colour_Asymmetry_Pilot,2022.1.3,Win32,60.01680471,62bbe60bf3d75ef465d3e404,0,131,131,40,1,onetwo,,,,,,,,,,,,,,,,,,,,,,,,,,,,,,,,,,,,,,,,,,,,,,,,,,,,,,,,,,,,,,,,,,,,,,,,,,,,,,,,,,,,,,,,,,,,,,,,,,,,,,,,,,,,,,,,,,,,,,,,,,,,,,,,,,,,,,,,,,,,,,,,,,,,,,,
,,,,,,6171acbd32a9c4f4a22f348a,62bbfae82e1821b3c42830cb,2022-06-29_09h13.26.127,Colour_Asymmetry_Pilot,2022.1.3,Win32,60.01680471,62bbe60bf3d75ef465d3e404,0,132,132,104,1,onetwo,,,,,,,,,,,,,,,,,,,,,,,,,,,,,,,,,,,,,,,,,,,,,,,,,,,,,,,,,,,,,,,,,,,,,,,,,,,,,,,,,,,,,,,,,,,,,,,,,,,,,,,,,,,,,,,,,,,,,,,,,,,,,,,,,,,,,,,,,,,,,,,,,,,,,,,
,,,,,,6171acbd32a9c4f4a22f348a,62bbfae82e1821b3c42830cb,2022-06-29_09h13.26.127,Colour_Asymmetry_Pilot,2022.1.3,Win32,60.01680471,62bbe60bf3d75ef465d3e404,0,133,133,155,1,twofour,,,,,,,,,,,,,,,,,,,,,,,,,,,,,,,,,,,,,,,,,,,,,,,,,,,,,,,,,,,,,,,,,,,,,,,,,,,,,,,,,,,,,,,,,,,,,,,,,,,,,,,,,,,,,,,,,,,,,,,,,,,,,,,,,,,,,,,,,,,,,,,,,,,,,,,
,,,,,,6171acbd32a9c4f4a22f348a,62bbfae82e1821b3c42830cb,2022-06-29_09h13.26.127,Colour_Asymmetry_Pilot,2022.1.3,Win32,60.01680471,62bbe60bf3d75ef465d3e404,0,134,134,33,1,onethree,,,,,,,,,,,,,,,,,,,,,,,,,,,,,,,,,,,,,,,,,,,,,,,,,,,,,,,,,,,,,,,,,,,,,,,,,,,,,,,,,,,,,,,,,,,,,,,,,,,,,,,,,,,,,,,,,,,,,,,,,,,,,,,,,,,,,,,,,,,,,,,,,,,,,,,
,,,,,,6171acbd32a9c4f4a22f348a,62bbfae82e1821b3c42830cb,2022-06-29_09h13.26.127,Colour_Asymmetry_Pilot,2022.1.3,Win32,60.01680471,62bbe60bf3d75ef465d3e404,0,135,135,95,1,fourthree,,,,,,,,,,,,,,,,,,,,,,,,,,,,,,,,,,,,,,,,,,,,,,,,,,,,,,,,,,,,,,,,,,,,,,,,,,,,,,,,,,,,,,,,,,,,,,,,,,,,,,,,,,,,,,,,,,,,,,,,,,,,,,,,,,,,,,,,,,,,,,,,,,,,,,,
,,,,,,6171acbd32a9c4f4a22f348a,62bbfae82e1821b3c42830cb,2022-06-29_09h13.26.127,Colour_Asymmetry_Pilot,2022.1.3,Win32,60.01680471,62bbe60bf3d75ef465d3e404,0,136,136,158,1,fourtwo,,,,,,,,,,,,,,,,,,,,,,,,,,,,,,,,,,,,,,,,,,,,,,,,,,,,,,,,,,,,,,,,,,,,,,,,,,,,,,,,,,,,,,,,,,,,,,,,,,,,,,,,,,,,,,,,,,,,,,,,,,,,,,,,,,,,,,,,,,,,,,,,,,,,,,,
,,,,,,6171acbd32a9c4f4a22f348a,62bbfae82e1821b3c42830cb,2022-06-29_09h13.26.127,Colour_Asymmetry_Pilot,2022.1.3,Win32,60.01680471,62bbe60bf3d75ef465d3e404,0,137,137,42,1,twoone,,,,,,,,,,,,,,,,,,,,,,,,,,,,,,,,,,,,,,,,,,,,,,,,,,,,,,,,,,,,,,,,,,,,,,,,,,,,,,,,,,,,,,,,,,,,,,,,,,,,,,,,,,,,,,,,,,,,,,,,,,,,,,,,,,,,,,,,,,,,,,,,,,,,,,,
,,,,,,6171acbd32a9c4f4a22f348a,62bbfae82e1821b3c42830cb,2022-06-29_09h13.26.127,Colour_Asymmetry_Pilot,2022.1.3,Win32,60.01680471,62bbe60bf3d75ef465d3e404,0,138,138,6,1,fourtwo,,,,,,,,,,,,,,,,,,,,,,,,,,,,,,,,,,,,,,,,,,,,,,,,,,,,,,,,,,,,,,,,,,,,,,,,,,,,,,,,,,,,,,,,,,,,,,,,,,,,,,,,,,,,,,,,,,,,,,,,,,,,,,,,,,,,,,,,,,,,,,,,,,,,,,,
,,,,,,6171acbd32a9c4f4a22f348a,62bbfae82e1821b3c42830cb,2022-06-29_09h13.26.127,Colour_Asymmetry_Pilot,2022.1.3,Win32,60.01680471,62bbe60bf3d75ef465d3e404,0,139,139,13,1,threefour,,,,,,,,,,,,,,,,,,,,,,,,,,,,,,,,,,,,,,,,,,,,,,,,,,,,,,,,,,,,,,,,,,,,,,,,,,,,,,,,,,,,,,,,,,,,,,,,,,,,,,,,,,,,,,,,,,,,,,,,,,,,,,,,,,,,,,,,,,,,,,,,,,,,,,,
,,,,,,6171acbd32a9c4f4a22f348a,62bbfae82e1821b3c42830cb,2022-06-29_09h13.26.127,Colour_Asymmetry_Pilot,2022.1.3,Win32,60.01680471,62bbe60bf3d75ef465d3e404,0,140,140,110,1,fourtwo,,,,,,,,,,,,,,,,,,,,,,,,,,,,,,,,,,,,,,,,,,,,,,,,,,,,,,,,,,,,,,,,,,,,,,,,,,,,,,,,,,,,,,,,,,,,,,,,,,,,,,,,,,,,,,,,,,,,,,,,,,,,,,,,,,,,,,,,,,,,,,,,,,,,,,,
,,,,,,6171acbd32a9c4f4a22f348a,62bbfae82e1821b3c42830cb,2022-06-29_09h13.26.127,Colour_Asymmetry_Pilot,2022.1.3,Win32,60.01680471,62bbe60bf3d75ef465d3e404,0,141,141,76,1,threeone,,,,,,,,,,,,,,,,,,,,,,,,,,,,,,,,,,,,,,,,,,,,,,,,,,,,,,,,,,,,,,,,,,,,,,,,,,,,,,,,,,,,,,,,,,,,,,,,,,,,,,,,,,,,,,,,,,,,,,,,,,,,,,,,,,,,,,,,,,,,,,,,,,,,,,,
,,,,,,6171acbd32a9c4f4a22f348a,62bbfae82e1821b3c42830cb,2022-06-29_09h13.26.127,Colour_Asymmetry_Pilot,2022.1.3,Win32,60.01680471,62bbe60bf3d75ef465d3e404,0,142,142,90,1,twoone,,,,,,,,,,,,,,,,,,,,,,,,,,,,,,,,,,,,,,,,,,,,,,,,,,,,,,,,,,,,,,,,,,,,,,,,,,,,,,,,,,,,,,,,,,,,,,,,,,,,,,,,,,,,,,,,,,,,,,,,,,,,,,,,,,,,,,,,,,,,,,,,,,,,,,,
,,,,,,6171acbd32a9c4f4a22f348a,62bbfae82e1821b3c42830cb,2022-06-29_09h13.26.127,Colour_Asymmetry_Pilot,2022.1.3,Win32,60.01680471,62bbe60bf3d75ef465d3e404,0,143,143,55,1,fourthree,,,,,,,,,,,,,,,,,,,,,,,,,,,,,,,,,,,,,,,,,,,,,,,,,,,,,,,,,,,,,,,,,,,,,,,,,,,,,,,,,,,,,,,,,,,,,,,,,,,,,,,,,,,,,,,,,,,,,,,,,,,,,,,,,,,,,,,,,,,,,,,,,,,,,,,
,,,,,,6171acbd32a9c4f4a22f348a,62bbfae82e1821b3c42830cb,2022-06-29_09h13.26.127,Colour_Asymmetry_Pilot,2022.1.3,Win32,60.01680471,62bbe60bf3d75ef465d3e404,0,144,144,82,1,twoone,,,,,,,,,,,,,,,,,,,,,,,,,,,,,,,,,,,,,,,,,,,,,,,,,,,,,,,,,,,,,,,,,,,,,,,,,,,,,,,,,,,,,,,,,,,,,,,,,,,,,,,,,,,,,,,,,,,,,,,,,,,,,,,,,,,,,,,,,,,,,,,,,,,,,,,
,,,,,,6171acbd32a9c4f4a22f348a,62bbfae82e1821b3c42830cb,2022-06-29_09h13.26.127,Colour_Asymmetry_Pilot,2022.1.3,Win32,60.01680471,62bbe60bf3d75ef465d3e404,0,145,145,100,1,threeone,,,,,,,,,,,,,,,,,,,,,,,,,,,,,,,,,,,,,,,,,,,,,,,,,,,,,,,,,,,,,,,,,,,,,,,,,,,,,,,,,,,,,,,,,,,,,,,,,,,,,,,,,,,,,,,,,,,,,,,,,,,,,,,,,,,,,,,,,,,,,,,,,,,,,,,
,,,,,,6171acbd32a9c4f4a22f348a,62bbfae82e1821b3c42830cb,2022-06-29_09h13.26.127,Colour_Asymmetry_Pilot,2022.1.3,Win32,60.01680471,62bbe60bf3d75ef465d3e404,0,146,146,37,1,threefour,,,,,,,,,,,,,,,,,,,,,,,,,,,,,,,,,,,,,,,,,,,,,,,,,,,,,,,,,,,,,,,,,,,,,,,,,,,,,,,,,,,,,,,,,,,,,,,,,,,,,,,,,,,,,,,,,,,,,,,,,,,,,,,,,,,,,,,,,,,,,,,,,,,,,,,
,,,,,,6171acbd32a9c4f4a22f348a,62bbfae82e1821b3c42830cb,2022-06-29_09h13.26.127,Colour_Asymmetry_Pilot,2022.1.3,Win32,60.01680471,62bbe60bf3d75ef465d3e404,0,147,147,117,1,threefour,,,,,,,,,,,,,,,,,,,,,,,,,,,,,,,,,,,,,,,,,,,,,,,,,,,,,,,,,,,,,,,,,,,,,,,,,,,,,,,,,,,,,,,,,,,,,,,,,,,,,,,,,,,,,,,,,,,,,,,,,,,,,,,,,,,,,,,,,,,,,,,,,,,,,,,
,,,,,,6171acbd32a9c4f4a22f348a,62bbfae82e1821b3c42830cb,2022-06-29_09h13.26.127,Colour_Asymmetry_Pilot,2022.1.3,Win32,60.01680471,62bbe60bf3d75ef465d3e404,0,148,148,28,1,threeone,,,,,,,,,,,,,,,,,,,,,,,,,,,,,,,,,,,,,,,,,,,,,,,,,,,,,,,,,,,,,,,,,,,,,,,,,,,,,,,,,,,,,,,,,,,,,,,,,,,,,,,,,,,,,,,,,,,,,,,,,,,,,,,,,,,,,,,,,,,,,,,,,,,,,,,
,,,,,,6171acbd32a9c4f4a22f348a,62bbfae82e1821b3c42830cb,2022-06-29_09h13.26.127,Colour_Asymmetry_Pilot,2022.1.3,Win32,60.01680471,62bbe60bf3d75ef465d3e404,0,149,149,161,1,onethree,,,,,,,,,,,,,,,,,,,,,,,,,,,,,,,,,,,,,,,,,,,,,,,,,,,,,,,,,,,,,,,,,,,,,,,,,,,,,,,,,,,,,,,,,,,,,,,,,,,,,,,,,,,,,,,,,,,,,,,,,,,,,,,,,,,,,,,,,,,,,,,,,,,,,,,
,,,,,,6171acbd32a9c4f4a22f348a,62bbfae82e1821b3c42830cb,2022-06-29_09h13.26.127,Colour_Asymmetry_Pilot,2022.1.3,Win32,60.01680471,62bbe60bf3d75ef465d3e404,0,150,150,144,1,onetwo,,,,,,,,,,,,,,,,,,,,,,,,,,,,,,,,,,,,,,,,,,,,,,,,,,,,,,,,,,,,,,,,,,,,,,,,,,,,,,,,,,,,,,,,,,,,,,,,,,,,,,,,,,,,,,,,,,,,,,,,,,,,,,,,,,,,,,,,,,,,,,,,,,,,,,,
,,,,,,6171acbd32a9c4f4a22f348a,62bbfae82e1821b3c42830cb,2022-06-29_09h13.26.127,Colour_Asymmetry_Pilot,2022.1.3,Win32,60.01680471,62bbe60bf3d75ef465d3e404,0,151,151,65,1,onethree,,,,,,,,,,,,,,,,,,,,,,,,,,,,,,,,,,,,,,,,,,,,,,,,,,,,,,,,,,,,,,,,,,,,,,,,,,,,,,,,,,,,,,,,,,,,,,,,,,,,,,,,,,,,,,,,,,,,,,,,,,,,,,,,,,,,,,,,,,,,,,,,,,,,,,,
,,,,,,6171acbd32a9c4f4a22f348a,62bbfae82e1821b3c42830cb,2022-06-29_09h13.26.127,Colour_Asymmetry_Pilot,2022.1.3,Win32,60.01680471,62bbe60bf3d75ef465d3e404,0,152,152,3,1,twofour,,,,,,,,,,,,,,,,,,,,,,,,,,,,,,,,,,,,,,,,,,,,,,,,,,,,,,,,,,,,,,,,,,,,,,,,,,,,,,,,,,,,,,,,,,,,,,,,,,,,,,,,,,,,,,,,,,,,,,,,,,,,,,,,,,,,,,,,,,,,,,,,,,,,,,,
,,,,,,6171acbd32a9c4f4a22f348a,62bbfae82e1821b3c42830cb,2022-06-29_09h13.26.127,Colour_Asymmetry_Pilot,2022.1.3,Win32,60.01680471,62bbe60bf3d75ef465d3e404,0,153,153,134,1,fourtwo,,,,,,,,,,,,,,,,,,,,,,,,,,,,,,,,,,,,,,,,,,,,,,,,,,,,,,,,,,,,,,,,,,,,,,,,,,,,,,,,,,,,,,,,,,,,,,,,,,,,,,,,,,,,,,,,,,,,,,,,,,,,,,,,,,,,,,,,,,,,,,,,,,,,,,,
,,,,,,6171acbd32a9c4f4a22f348a,62bbfae82e1821b3c42830cb,2022-06-29_09h13.26.127,Colour_Asymmetry_Pilot,2022.1.3,Win32,60.01680471,62bbe60bf3d75ef465d3e404,0,154,154,10,1,twoone,,,,,,,,,,,,,,,,,,,,,,,,,,,,,,,,,,,,,,,,,,,,,,,,,,,,,,,,,,,,,,,,,,,,,,,,,,,,,,,,,,,,,,,,,,,,,,,,,,,,,,,,,,,,,,,,,,,,,,,,,,,,,,,,,,,,,,,,,,,,,,,,,,,,,,,
,,,,,,6171acbd32a9c4f4a22f348a,62bbfae82e1821b3c42830cb,2022-06-29_09h13.26.127,Colour_Asymmetry_Pilot,2022.1.3,Win32,60.01680471,62bbe60bf3d75ef465d3e404,0,155,155,96,1,onetwo,,,,,,,,,,,,,,,,,,,,,,,,,,,,,,,,,,,,,,,,,,,,,,,,,,,,,,,,,,,,,,,,,,,,,,,,,,,,,,,,,,,,,,,,,,,,,,,,,,,,,,,,,,,,,,,,,,,,,,,,,,,,,,,,,,,,,,,,,,,,,,,,,,,,,,,
,,,,,,6171acbd32a9c4f4a22f348a,62bbfae82e1821b3c42830cb,2022-06-29_09h13.26.127,Colour_Asymmetry_Pilot,2022.1.3,Win32,60.01680471,62bbe60bf3d75ef465d3e404,0,156,156,79,1,fourthree,,,,,,,,,,,,,,,,,,,,,,,,,,,,,,,,,,,,,,,,,,,,,,,,,,,,,,,,,,,,,,,,,,,,,,,,,,,,,,,,,,,,,,,,,,,,,,,,,,,,,,,,,,,,,,,,,,,,,,,,,,,,,,,,,,,,,,,,,,,,,,,,,,,,,,,
,,,,,,6171acbd32a9c4f4a22f348a,62bbfae82e1821b3c42830cb,2022-06-29_09h13.26.127,Colour_Asymmetry_Pilot,2022.1.3,Win32,60.01680471,62bbe60bf3d75ef465d3e404,0,157,157,142,1,fourtwo,,,,,,,,,,,,,,,,,,,,,,,,,,,,,,,,,,,,,,,,,,,,,,,,,,,,,,,,,,,,,,,,,,,,,,,,,,,,,,,,,,,,,,,,,,,,,,,,,,,,,,,,,,,,,,,,,,,,,,,,,,,,,,,,,,,,,,,,,,,,,,,,,,,,,,,
,,,,,,6171acbd32a9c4f4a22f348a,62bbfae82e1821b3c42830cb,2022-06-29_09h13.26.127,Colour_Asymmetry_Pilot,2022.1.3,Win32,60.01680471,62bbe60bf3d75ef465d3e404,0,158,158,156,1,threeone,,,,,,,,,,,,,,,,,,,,,,,,,,,,,,,,,,,,,,,,,,,,,,,,,,,,,,,,,,,,,,,,,,,,,,,,,,,,,,,,,,,,,,,,,,,,,,,,,,,,,,,,,,,,,,,,,,,,,,,,,,,,,,,,,,,,,,,,,,,,,,,,,,,,,,,
,,,,,,6171acbd32a9c4f4a22f348a,62bbfae82e1821b3c42830cb,2022-06-29_09h13.26.127,Colour_Asymmetry_Pilot,2022.1.3,Win32,60.01680471,62bbe60bf3d75ef465d3e404,0,159,159,11,1,twofour,,,,,,,,,,,,,,,,,,,,,,,,,,,,,,,,,,,,,,,,,,,,,,,,,,,,,,,,,,,,,,,,,,,,,,,,,,,,,,,,,,,,,,,,,,,,,,,,,,,,,,,,,,,,,,,,,,,,,,,,,,,,,,,,,,,,,,,,,,,,,,,,,,,,,,,
,,,,,,6171acbd32a9c4f4a22f348a,62bbfae82e1821b3c42830cb,2022-06-29_09h13.26.127,Colour_Asymmetry_Pilot,2022.1.3,Win32,60.01680471,62bbe60bf3d75ef465d3e404,0,160,160,5,1,threefour,,,,,,,,,,,,,,,,,,,,,,,,,,,,,,,,,,,,,,,,,,,,,,,,,,,,,,,,,,,,,,,,,,,,,,,,,,,,,,,,,,,,,,,,,,,,,,,,,,,,,,,,,,,,,,,,,,,,,,,,,,,,,,,,,,,,,,,,,,,,,,,,,,,,,,,
,,,,,,6171acbd32a9c4f4a22f348a,62bbfae82e1821b3c42830cb,2022-06-29_09h13.26.127,Colour_Asymmetry_Pilot,2022.1.3,Win32,60.01680471,62bbe60bf3d75ef465d3e404,0,161,161,122,1,twoone,,,,,,,,,,,,,,,,,,,,,,,,,,,,,,,,,,,,,,,,,,,,,,,,,,,,,,,,,,,,,,,,,,,,,,,,,,,,,,,,,,,,,,,,,,,,,,,,,,,,,,,,,,,,,,,,,,,,,,,,,,,,,,,,,,,,,,,,,,,,,,,,,,,,,,,
,,,,,,6171acbd32a9c4f4a22f348a,62bbfae82e1821b3c42830cb,2022-06-29_09h13.26.127,Colour_Asymmetry_Pilot,2022.1.3,Win32,60.01680471,62bbe60bf3d75ef465d3e404,,,,,,,space,4.0122,space,86.8722,space,91.7705,space,17.0506,space,6.4579,space,8.3045,"[1,0.12939999999999996,-1]",fourthree,"[-0.9766,-0.34920000000000007,0.2156]",-4,20.9087,-48.79998779,67.19998169,1,0,0,response7disk_5,7.200012207,4,1,0,0,rectangle_8,7.200012207,4,1,0,0,1,7.200012207,4,1,0,0,0,0,0,0,1,,,,,,,,,,,,,,,,,,,,,,,,,,,,,,,,,,,,,,,,,,,,,,,,,,,,,,,,,,,,,,,,,,,,,,,,,,,,,,,,,,,,,,,,,,,,,,,,,,,,,,,,,,
,,,,,,6171acbd32a9c4f4a22f348a,62bbfae82e1821b3c42830cb,2022-06-29_09h13.26.127,Colour_Asymmetry_Pilot,2022.1.3,Win32,60.01680471,62bbe60bf3d75ef465d3e404,,,,,,,,,,,,,,,,,,,"[-0.5688,-0.08239999999999992,-0.1844]",threeone,"[-0.9138,-0.5296000000000001,-0.5529999999999999]",-3,8.6505,-94.39996338,41.6000061,1,0,0,response7disk_5,-5.599975586,-6.399993896,1,0,0,rectangle_8,-5.599975586,-6.399993896,1,0,0,1,-5.599975586,-6.399993896,1,0,0,1,0,1,0,1,,,,,,,,,,,,,,,,,,,,,,,,,,,,,,,,,,,,,,,,,,,,,,,,,,,,,,,,,,,,,,,,,,,,,,,,,,,,,,,,,,,,,,,,,,,,,,,,,,,,,,,,,,
,,,,,,6171acbd32a9c4f4a22f348a,62bbfae82e1821b3c42830cb,2022-06-29_09h13.26.127,Colour_Asymmetry_Pilot,2022.1.3,Win32,60.01680471,62bbe60bf3d75ef465d3e404,,,,,,,,,,,,,,,,,,,"[-0.8118,-0.8198,-0.5452]",onethree,"[0.9763999999999999,-0.1137999999999999,-0.6314]",-4,7.084,-49.59997559,101.6000061,1,0,0,response7disk_5,-3.200012207,-3.200012207,1,0,0,rectangle_8,-3.200012207,-3.200012207,1,0,0,1,-3.200012207,-3.200012207,1,0,0,2,0,2,0,1,,,,,,,,,,,,,,,,,,,,,,,,,,,,,,,,,,,,,,,,,,,,,,,,,,,,,,,,,,,,,,,,,,,,,,,,,,,,,,,,,,,,,,,,,,,,,,,,,,,,,,,,,,
,,,,,,6171acbd32a9c4f4a22f348a,62bbfae82e1821b3c42830cb,2022-06-29_09h13.26.127,Colour_Asymmetry_Pilot,2022.1.3,Win32,60.01680471,62bbe60bf3d75ef465d3e404,,,,,,,,,,,,,,,,,,,"[-0.24719999999999998,0.5213999999999999,-0.12959999999999994]",onetwo,"[-0.4668,-0.8746,-0.2942]",-4,4.4504,-60.79998779,124.7999878,1,0,0,response7disk_5,7.200012207,3.199981689,1,0,0,rectangle_8,48.79998779,-120,1,0,0,1,-0.799987793,11.19998169,1,0,0,3,0,3,0,1,response3disk_7,4,rectangle_4,,,,,,,,,,,,,,,,,,,,,,,,,,,,,,,,,,,,,,,,,,,,,,,,,,,,,,,,,,,,,,,,,,,,,,,,,,,,,,,,,,,,,,,,,,,,,,,,,,,,,,,
,,,,,,6171acbd32a9c4f4a22f348a,62bbfae82e1821b3c42830cb,2022-06-29_09h13.26.127,Colour_Asymmetry_Pilot,2022.1.3,Win32,60.01680471,62bbe60bf3d75ef465d3e404,,,,,,,,,,,,,,,,,,,"[-0.2942,-0.24719999999999998,-0.357]",onethree,"[-0.24719999999999998,0.5213999999999999,-0.12959999999999994]",-2,8.7505,-103.2000122,-42.3999939,1,0,0,response5disk_5,-3.200012207,-11.20001221,1,0,0,rectangle_8,-3.200012207,-11.20001221,1,0,0,1,-3.200012207,-11.20001221,1,0,0,4,0,4,0,1,,,,,,,,,,,,,,,,,,,,,,,,,,,,,,,,,,,,,,,,,,,,,,,,,,,,,,,,,,,,,,,,,,,,,,,,,,,,,,,,,,,,,,,,,,,,,,,,,,,,,,,,,,
,,,,,,6171acbd32a9c4f4a22f348a,62bbfae82e1821b3c42830cb,2022-06-29_09h13.26.127,Colour_Asymmetry_Pilot,2022.1.3,Win32,60.01680471,62bbe60bf3d75ef465d3e404,,,,,,,,,,,,,,,,,,,"[0.9763999999999999,0.8588,-0.05900000000000005]",fourtwo,"[-0.8118,-0.8198,-0.5452]",-4,2.2834,-36,96,1,0,0,response7disk_5,-13.59997559,-8.800018311,1,0,0,rectangle_8,55.20001221,-119.2000122,1,0,0,1,-8,-9.600006104,1,0,0,5,0,5,0,1,response3disk_7,4,rectangle_4,,,,,,,,,,,,,,,,,,,,,,,,,,,,,,,,,,,,,,,,,,,,,,,,,,,,,,,,,,,,,,,,,,,,,,,,,,,,,,,,,,,,,,,,,,,,,,,,,,,,,,,
,,,,,,6171acbd32a9c4f4a22f348a,62bbfae82e1821b3c42830cb,2022-06-29_09h13.26.127,Colour_Asymmetry_Pilot,2022.1.3,Win32,60.01680471,62bbe60bf3d75ef465d3e404,,,,,,,,,,,,,,,,,,,"[-0.4746,-0.0354000000000001,0.5449999999999999]",threefour,"[-0.20799999999999996,-0.655,-0.01980000000000004]",-2,3.9831,-108,-76.80001831,1,0,0,response5disk_5,4,7.199981689,1,0,0,rectangle_8,4,7.199981689,1,0,0,1,4,7.199981689,1,0,0,6,0,6,0,1,,,,,,,,,,,,,,,,,,,,,,,,,,,,,,,,,,,,,,,,,,,,,,,,,,,,,,,,,,,,,,,,,,,,,,,,,,,,,,,,,,,,,,,,,,,,,,,,,,,,,,,,,,
,,,,,,6171acbd32a9c4f4a22f348a,62bbfae82e1821b3c42830cb,2022-06-29_09h13.26.127,Colour_Asymmetry_Pilot,2022.1.3,Win32,60.01680471,62bbe60bf3d75ef465d3e404,,,,,,,,,,,,,,,,,,,,onethree,,-3,6.6015,,,,,,,,,,,,,,,,,,,,,,,,,,,,,,,,space,21.8257,"[0.3802000000000001,0.19199999999999995,-0.6394]","[-0.09019999999999995,0.44300000000000006,0.5371999999999999]",-102.3999634,62.3999939,1,0,0,response7disk,-0.799987793,0,1,0,0,rectangle,-0.799987793,0,1,0,0,,2,0.0016,0,-0.799987793,0,1,0,0,0,0,0,122,1,41,second,,,,,,,,,,,,,,,,,,,,,,,,,,,,,,,,,,,,,,,,,,,,,,,,,,,,,,,,,,,,,,,,,,
,,,,,,6171acbd32a9c4f4a22f348a,62bbfae82e1821b3c42830cb,2022-06-29_09h13.26.127,Colour_Asymmetry_Pilot,2022.1.3,Win32,60.01680471,62bbe60bf3d75ef465d3e404,,,,,,,,,,,,,,,,,,,,threefour,,-3,5.2169,,,,,,,,,,,,,,,,,,,,,,,,,,,,,,,,,,"[-0.011800000000000033,-0.906,-0.45100000000000007]","[-0.4746,-0.0354000000000001,0.5449999999999999]",-101.5999756,38.3999939,1,0,0,response7disk,1.600036621,5.600006104,1,0,0,rectangle,1.600036621,5.600006104,1,0,0,,2,0.0002,0,1.600036621,5.600006104,1,0,0,0,1,1,20,1,20,first,,,,,,,,,,,,,,,,,,,,,,,,,,,,,,,,,,,,,,,,,,,,,,,,,,,,,,,,,,,,,,,,,,
,,,,,,6171acbd32a9c4f4a22f348a,62bbfae82e1821b3c42830cb,2022-06-29_09h13.26.127,Colour_Asymmetry_Pilot,2022.1.3,Win32,60.01680471,62bbe60bf3d75ef465d3e404,,,,,,,,,,,,,,,,,,,,fourtwo,,-1,6.2167,,,,,,,,,,,,,,,,,,,,,,,,,,,,,,,,,,"[-0.26280000000000003,-0.2158,-0.3256]","[-0.01980000000000004,-0.5138,-0.38039999999999996]",-40.79998779,-112.7999878,1,0,0,response5disk,-3.200012207,-6.399993896,1,0,0,rectangle,62.40002441,-112.7999878,1,0,0,1,1,4.333,1,4.799987793,0,1,0,0,0,2,2,97,1,16,second,response3disk_3,rectangle,,,,,,,,,,,,,,,,,,,,,,,,,,,,,,,,,,,,,,,,,,,,,,,,,,,,,,,,,,,,,,,,
,,,,,,6171acbd32a9c4f4a22f348a,62bbfae82e1821b3c42830cb,2022-06-29_09h13.26.127,Colour_Asymmetry_Pilot,2022.1.3,Win32,60.01680471,62bbe60bf3d75ef465d3e404,,,,,,,,,,,,,,,,,,,,twoone,,3,8.8006,,,,,,,,,,,,,,,,,,,,,,,,,,,,,,,,,,"[0.7018,0.7176,0.6155999999999999]","[0.7018,0.7176,0.6155999999999999]",88.79998779,43.19998169,1,0,0,response1disk,-12,0,1,0,0,rectangle,-12,0,1,0,0,1,1,0.0002,0,-12,0,1,0,0,0,3,3,132,1,51,second,,,,,,,,,,,,,,,,,,,,,,,,,,,,,,,,,,,,,,,,,,,,,,,,,,,,,,,,,,,,,,,,,,
,,,,,,6171acbd32a9c4f4a22f348a,62bbfae82e1821b3c42830cb,2022-06-29_09h13.26.127,Colour_Asymmetry_Pilot,2022.1.3,Win32,60.01680471,62bbe60bf3d75ef465d3e404,,,,,,,,,,,,,,,,,,,,onetwo,,-4,2.667,,,,,,,,,,,,,,,,,,,,,,,,,,,,,,,,,,"[0.19199999999999995,0.18419999999999992,0.5136000000000001]","[0.34099999999999997,0.5841999999999998,-0.9844]",-51.20001221,88,1,0,0,response7disk,4.799987793,-4,1,0,0,rectangle,4.799987793,-4,1,0,0,1,3,0.0009,0,4.799987793,-4,1,0,0,0,4,4,8,1,8,first,,,,,,,,,,,,,,,,,,,,,,,,,,,,,,,,,,,,,,,,,,,,,,,,,,,,,,,,,,,,,,,,,,
,,,,,,6171acbd32a9c4f4a22f348a,62bbfae82e1821b3c42830cb,2022-06-29_09h13.26.127,Colour_Asymmetry_Pilot,2022.1.3,Win32,60.01680471,62bbe60bf3d75ef465d3e404,,,,,,,,,,,,,,,,,,,,twofour,,-4,1.9168,,,,,,,,,,,,,,,,,,,,,,,,,,,,,,,,,,"[-0.5922000000000001,-0.7492000000000001,-0.5296000000000001]","[0.9842,0.7409999999999999,-0.6628000000000001]",-44.79998779,71.19998169,1,0,0,response7disk,-3.200012207,-10.3999939,1,0,0,rectangle,-3.200012207,-10.3999939,1,0,0,1,3,1E-04,0,-3.200012207,-10.3999939,1,0,0,0,5,5,126,1,45,second,,,,,,,,,,,,,,,,,,,,,,,,,,,,,,,,,,,,,,,,,,,,,,,,,,,,,,,,,,,,,,,,,,
,,,,,,6171acbd32a9c4f4a22f348a,62bbfae82e1821b3c42830cb,2022-06-29_09h13.26.127,Colour_Asymmetry_Pilot,2022.1.3,Win32,60.01680471,62bbe60bf3d75ef465d3e404,,,,,,,,,,,,,,,,,,,,threeone,,-3,4.1835,,,,,,,,,,,,,,,,,,,,,,,,,,,,,,,,,,"[0.37240000000000006,-0.050999999999999934,-0.5216]","[-0.4982,-0.2942,-0.0354000000000001]",-106.3999634,48,1,0,0,response7disk,0,-9.600006104,1,0,0,rectangle,0,-9.600006104,1,0,0,1,2,0.001,0,0,-9.600006104,1,0,0,0,6,6,32,1,32,first,,,,,,,,,,,,,,,,,,,,,,,,,,,,,,,,,,,,,,,,,,,,,,,,,,,,,,,,,,,,,,,,,,
,,,,,,6171acbd32a9c4f4a22f348a,62bbfae82e1821b3c42830cb,2022-06-29_09h13.26.127,Colour_Asymmetry_Pilot,2022.1.3,Win32,60.01680471,62bbe60bf3d75ef465d3e404,,,,,,,,,,,,,,,,,,,,onethree,,-2,3.4168,,,,,,,,,,,,,,,,,,,,,,,,,,,,,,,,,,"[0.7018,0.7176,0.6155999999999999]","[0.9372,0.20779999999999998,0.2704]",-99.20001221,-34.3999939,1,0,0,response5disk,-8.799987793,-4,1,0,0,rectangle,-8.799987793,-4,1,0,0,1,3,0.001,0,-8.799987793,-4,1,0,0,0,7,7,143,1,62,second,,,,,,,,,,,,,,,,,,,,,,,,,,,,,,,,,,,,,,,,,,,,,,,,,,,,,,,,,,,,,,,,,,
,,,,,,6171acbd32a9c4f4a22f348a,62bbfae82e1821b3c42830cb,2022-06-29_09h13.26.127,Colour_Asymmetry_Pilot,2022.1.3,Win32,60.01680471,62bbe60bf3d75ef465d3e404,,,,,,,,,,,,,,,,,,,,threeone,,-1,2.7668,,,,,,,,,,,,,,,,,,,,,,,,,,,,,,,,,,"[-0.9688,-0.38039999999999996,-0.41979999999999995]","[-0.45899999999999996,-0.3256,-0.9374]",-52,-111.2000122,1,0,0,response5disk,8.799987793,2.399993896,1,0,0,rectangle,8.799987793,2.399993896,1,0,0,1,3,0.0001,0,8.799987793,2.399993896,1,0,0,0,8,8,82,1,1,second,,,,,,,,,,,,,,,,,,,,,,,,,,,,,,,,,,,,,,,,,,,,,,,,,,,,,,,,,,,,,,,,,,
,,,,,,6171acbd32a9c4f4a22f348a,62bbfae82e1821b3c42830cb,2022-06-29_09h13.26.127,Colour_Asymmetry_Pilot,2022.1.3,Win32,60.01680471,62bbe60bf3d75ef465d3e404,,,,,,,,,,,,,,,,,,,,onetwo,,-4,1.601,,,,,,,,,,,,,,,,,,,,,,,,,,,,,,,,,,"[0.23920000000000008,0.2704,0.16060000000000008]","[-0.2942,-0.7648,-0.7492000000000001]",-40,123.1999817,1,0,0,response7disk,-5.599975586,-2.399993896,1,0,0,rectangle,-5.599975586,-2.399993896,1,0,0,1,2,0.001,0,-5.599975586,-2.399993896,1,0,0,0,9,9,27,1,27,first,,,,,,,,,,,,,,,,,,,,,,,,,,,,,,,,,,,,,,,,,,,,,,,,,,,,,,,,,,,,,,,,,,
,,,,,,6171acbd32a9c4f4a22f348a,62bbfae82e1821b3c42830cb,2022-06-29_09h13.26.127,Colour_Asymmetry_Pilot,2022.1.3,Win32,60.01680471,62bbe60bf3d75ef465d3e404,,,,,,,,,,,,,,,,,,,,twofour,,-4,1.7835,,,,,,,,,,,,,,,,,,,,,,,,,,,,,,,,,,"[-0.2942,-0.7648,-0.7492000000000001]","[0.23920000000000008,0.2704,0.16060000000000008]",-48,121.6000061,1,0,0,response7disk,-18.39996338,-4,1,0,0,rectangle,-18.39996338,-4,1,0,0,1,2,0.0002,0,-18.39996338,-4,1,0,0,0,10,10,108,1,27,second,,,,,,,,,,,,,,,,,,,,,,,,,,,,,,,,,,,,,,,,,,,,,,,,,,,,,,,,,,,,,,,,,,
,,,,,,6171acbd32a9c4f4a22f348a,62bbfae82e1821b3c42830cb,2022-06-29_09h13.26.127,Colour_Asymmetry_Pilot,2022.1.3,Win32,60.01680471,62bbe60bf3d75ef465d3e404,,,,,,,,,,,,,,,,,,,,twofour,,-2,6.2505,,,,,,,,,,,,,,,,,,,,,,,,,,,,,,,,,,"[0.3568,-0.20799999999999996,-0.9844]","[-0.24719999999999998,0.5213999999999999,-0.12959999999999994]",-123.2000122,-44,1,0,0,response5disk,10.40002441,10.3999939,1,0,0,rectangle,10.40002441,10.3999939,1,0,0,1,1,0.0011,0,10.40002441,10.3999939,1,0,0,0,11,11,40,1,40,first,,,,,,,,,,,,,,,,,,,,,,,,,,,,,,,,,,,,,,,,,,,,,,,,,,,,,,,,,,,,,,,,,,
,,,,,,6171acbd32a9c4f4a22f348a,62bbfae82e1821b3c42830cb,2022-06-29_09h13.26.127,Colour_Asymmetry_Pilot,2022.1.3,Win32,60.01680471,62bbe60bf3d75ef465d3e404,,,,,,,,,,,,,,,,,,,,fourthree,,-2,8.2005,,,,,,,,,,,,,,,,,,,,,,,,,,,,,,,,,,"[-0.9138,-0.5296000000000001,-0.5529999999999999]","[0.4196,0.4665999999999999,0.3568]",-118.3999634,-46.3999939,1,0,0,response5disk,-14.39996338,-4,1,0,0,rectangle,-14.39996338,-4,1,0,0,1,2,0.0019,0,-14.39996338,-4,1,0,0,0,12,12,107,1,26,second,,,,,,,,,,,,,,,,,,,,,,,,,,,,,,,,,,,,,,,,,,,,,,,,,,,,,,,,,,,,,,,,,,
,,,,,,6171acbd32a9c4f4a22f348a,62bbfae82e1821b3c42830cb,2022-06-29_09h13.26.127,Colour_Asymmetry_Pilot,2022.1.3,Win32,60.01680471,62bbe60bf3d75ef465d3e404,,,,,,,,,,,,,,,,,,,,twoone,,-4,7.417,,,,,,,,,,,,,,,,,,,,,,,,,,,,,,,,,,"[-0.10599999999999998,-0.10599999999999998,0.5841999999999998]","[0.3802000000000001,0.19199999999999995,-0.6394]",-44,84,1,0,0,response7disk,8,8.799987793,1,0,0,rectangle,8,8.799987793,1,0,0,1,3,0.0009,0,8,8.799987793,1,0,0,0,13,13,22,1,22,first,,,,,,,,,,,,,,,,,,,,,,,,,,,,,,,,,,,,,,,,,,,,,,,,,,,,,,,,,,,,,,,,,,
,,,,,,6171acbd32a9c4f4a22f348a,62bbfae82e1821b3c42830cb,2022-06-29_09h13.26.127,Colour_Asymmetry_Pilot,2022.1.3,Win32,60.01680471,62bbe60bf3d75ef465d3e404,,,,,,,,,,,,,,,,,,,,onethree,,-4,2.5834,,,,,,,,,,,,,,,,,,,,,,,,,,,,,,,,,,"[-0.5688,-0.08239999999999992,-0.1844]","[0.9763999999999999,-0.1137999999999999,-0.6314]",-57.59997559,105.6000061,1,0,0,response7disk,-7.200012207,-8,1,0,0,rectangle,-7.200012207,-8,1,0,0,1,2,0.001,0,-7.200012207,-8,1,0,0,0,14,14,157,1,76,second,,,,,,,,,,,,,,,,,,,,,,,,,,,,,,,,,,,,,,,,,,,,,,,,,,,,,,,,,,,,,,,,,,
,,,,,,6171acbd32a9c4f4a22f348a,62bbfae82e1821b3c42830cb,2022-06-29_09h13.26.127,Colour_Asymmetry_Pilot,2022.1.3,Win32,60.01680471,62bbe60bf3d75ef465d3e404,,,,,,,,,,,,,,,,,,,,fourthree,,-4,3.0003,,,,,,,,,,,,,,,,,,,,,,,,,,,,,,,,,,"[0.34099999999999997,0.5841999999999998,-0.9844]","[0.5449999999999999,-0.31000000000000005,-0.0354000000000001]",-56.79998779,88.79998779,1,0,0,response7disk,14.40002441,0,1,0,0,rectangle,14.40002441,0,1,0,0,1,3,0.001,0,14.40002441,0,1,0,0,0,15,15,0,1,0,first,,,,,,,,,,,,,,,,,,,,,,,,,,,,,,,,,,,,,,,,,,,,,,,,,,,,,,,,,,,,,,,,,,
,,,,,,6171acbd32a9c4f4a22f348a,62bbfae82e1821b3c42830cb,2022-06-29_09h13.26.127,Colour_Asymmetry_Pilot,2022.1.3,Win32,60.01680471,62bbe60bf3d75ef465d3e404,,,,,,,,,,,,,,,,,,,,fourthree,,-4,5.3001,,,,,,,,,,,,,,,,,,,,,,,,,,,,,,,,,,"[0.37240000000000006,0.4980000000000002,-0.2864]","[0.2784,-0.31000000000000005,-0.5452]",-42.39996338,92.79998779,1,0,0,response7disk,-4.799987793,4,1,0,0,rectangle,-4.799987793,4,1,0,0,1,3,1E-04,0,-4.799987793,4,1,0,0,0,16,16,156,1,75,second,,,,,,,,,,,,,,,,,,,,,,,,,,,,,,,,,,,,,,,,,,,,,,,,,,,,,,,,,,,,,,,,,,
,,,,,,6171acbd32a9c4f4a22f348a,62bbfae82e1821b3c42830cb,2022-06-29_09h13.26.127,Colour_Asymmetry_Pilot,2022.1.3,Win32,60.01680471,62bbe60bf3d75ef465d3e404,,,,,,,,,,,,,,,,,,,,twoone,,-3,6.5171,,,,,,,,,,,,,,,,,,,,,,,,,,,,,,,,,,"[-0.7412000000000001,-0.08239999999999992,-0.6864]","[0.19199999999999995,0.18419999999999992,0.5136000000000001]",-94.39996338,52.79998779,1,0,0,response7disk,-15.20001221,-5.600006104,1,0,0,rectangle,-15.20001221,-5.600006104,1,0,0,1,3,0.0001,0,-15.20001221,-5.600006104,1,0,0,0,17,17,33,1,33,first,,,,,,,,,,,,,,,,,,,,,,,,,,,,,,,,,,,,,,,,,,,,,,,,,,,,,,,,,,,,,,,,,,
,,,,,,6171acbd32a9c4f4a22f348a,62bbfae82e1821b3c42830cb,2022-06-29_09h13.26.127,Colour_Asymmetry_Pilot,2022.1.3,Win32,60.01680471,62bbe60bf3d75ef465d3e404,,,,,,,,,,,,,,,,,,,,fourthree,,-4,1.5336,,,,,,,,,,,,,,,,,,,,,,,,,,,,,,,,,,"[-0.8982,-0.37259999999999993,0.2784]","[0.9842,0.7409999999999999,-0.6628000000000001]",-30.39996338,69.6000061,1,0,0,response7disk,-4,6.399993896,1,0,0,rectangle,-4,6.399993896,1,0,0,1,1,0.0009,0,-4,6.399993896,1,0,0,0,18,18,133,1,52,second,,,,,,,,,,,,,,,,,,,,,,,,,,,,,,,,,,,,,,,,,,,,,,,,,,,,,,,,,,,,,,,,,,
