trials.thisRepN,trials.thisTrialN,trials.thisN,trials.thisIndex,trials.ran,Colourcodes,participant,session,date,expName,psychopyVersion,OS,frameRate,study_id,trials_4.thisRepN,trials_4.thisTrialN,trials_4.thisN,trials_4.thisIndex,trials_4.ran,StimulusPos,key_resp.keys,key_resp.rt,key_resp_2.keys,key_resp_2.rt,key_resp_15.keys,key_resp_15.rt,key_resp_17.keys,key_resp_17.rt,key_resp_9.keys,key_resp_9.rt,key_resp_10.keys,key_resp_10.rt,Circle1_col,Ecc,Circle2_col,similarity,response_time,mouse_5.x,mouse_5.y,mouse_5.leftButton,mouse_5.midButton,mouse_5.rightButton,mouse_5.clicked_name,mouse_10.x,mouse_10.y,mouse_10.leftButton,mouse_10.midButton,mouse_10.rightButton,mouse_10.clicked_name,mouse_7.x,mouse_7.y,mouse_7.leftButton,mouse_7.midButton,mouse_7.rightButton,catchnumberprac,mouse_6.x,mouse_6.y,mouse_6.leftButton,mouse_6.midButton,mouse_6.rightButton,duringprac.thisRepN,duringprac.thisTrialN,duringprac.thisN,duringprac.thisIndex,duringprac.ran,mouse_7.clicked_name,catchprac,mouse_6.clicked_name,key_resp_22.keys,key_resp_22.rt,Circle1_colour,Circle2_colour,mouse.x,mouse.y,mouse.leftButton,mouse.midButton,mouse.rightButton,mouse.clicked_name,mouse_2.x,mouse_2.y,mouse_2.leftButton,mouse_2.midButton,mouse_2.rightButton,mouse_2.clicked_name,mouse_3.x,mouse_3.y,mouse_3.leftButton,mouse_3.midButton,mouse_3.rightButton,catchresponse,catchnumber,response_time_catch,Catch,mouse_11.x,mouse_11.y,mouse_11.leftButton,mouse_11.midButton,mouse_11.rightButton,trials_2.thisRepN,trials_2.thisTrialN,trials_2.thisN,trials_2.thisIndex,trials_2.ran,Colourpair,Temporder,mouse_3.clicked_name,mouse_11.clicked_name,trials_3.thisRepN,trials_3.thisTrialN,trials_3.thisN,trials_3.thisIndex,trials_3.ran,key_resp_instr_Ishi.keys,key_resp_instr_Ishi.rt,Ishi_trial_keyresp.keys,Ishi_trial_keyresp.rt,Ishi_textbox.text,Ishi_loop.thisRepN,Ishi_loop.thisTrialN,Ishi_loop.thisN,Ishi_loop.thisIndex,Ishi_loop.ran,imageaddress,textbox.text,mouse_4.x,mouse_4.y,mouse_4.leftButton,mouse_4.midButton,mouse_4.rightButton,mouse_4.clicked_name,textbox_2.text,mouse_8.x,mouse_8.y,mouse_8.leftButton,mouse_8.midButton,mouse_8.rightButton,mouse_8.clicked_name,textbox_3.text,mouse_9.x,mouse_9.y,mouse_9.leftButton,mouse_9.midButton,mouse_9.rightButton,mouse_9.clicked_name,textbox_4.text,mouse_12.x,mouse_12.y,mouse_12.leftButton,mouse_12.midButton,mouse_12.rightButton,mouse_12.clicked_name,textbox_5.text,mouse_13.x,mouse_13.y,mouse_13.leftButton,mouse_13.midButton,mouse_13.rightButton,mouse_13.clicked_name,textbox_6.text,mouse_14.x,mouse_14.y,mouse_14.leftButton,mouse_14.midButton,mouse_14.rightButton,textbox_7.text,mouse_15.x,mouse_15.y,mouse_15.leftButton,mouse_15.midButton,mouse_15.rightButton,mouse_15.clicked_name
0,0,0,69,1,,6010601cc932aa3661b459ec,62bbfb6da391ce9d357778e6,2022-06-29_10h13.10.892,Colour_Asymmetry_Pilot,2022.1.3,Win32,60.07088364,62bbe60bf3d75ef465d3e404,,,,,,,,,,,,,,,,,,,,,,,,,,,,,,,,,,,,,,,,,,,,,,,,,,,,,,,,,,,,,,,,,,,,,,,,,,,,,,,,,,,,,,,,,,,,,,,,,,,,,,,,,,,,,,,,,,,,,,,,,,,,,,,,,,,,,,,,,,,,,,,,,,,,,,,,,,,,,
0,1,1,45,1,,6010601cc932aa3661b459ec,62bbfb6da391ce9d357778e6,2022-06-29_10h13.10.892,Colour_Asymmetry_Pilot,2022.1.3,Win32,60.07088364,62bbe60bf3d75ef465d3e404,,,,,,,,,,,,,,,,,,,,,,,,,,,,,,,,,,,,,,,,,,,,,,,,,,,,,,,,,,,,,,,,,,,,,,,,,,,,,,,,,,,,,,,,,,,,,,,,,,,,,,,,,,,,,,,,,,,,,,,,,,,,,,,,,,,,,,,,,,,,,,,,,,,,,,,,,,,,,
0,2,2,42,1,,6010601cc932aa3661b459ec,62bbfb6da391ce9d357778e6,2022-06-29_10h13.10.892,Colour_Asymmetry_Pilot,2022.1.3,Win32,60.07088364,62bbe60bf3d75ef465d3e404,,,,,,,,,,,,,,,,,,,,,,,,,,,,,,,,,,,,,,,,,,,,,,,,,,,,,,,,,,,,,,,,,,,,,,,,,,,,,,,,,,,,,,,,,,,,,,,,,,,,,,,,,,,,,,,,,,,,,,,,,,,,,,,,,,,,,,,,,,,,,,,,,,,,,,,,,,,,,
0,3,3,57,1,,6010601cc932aa3661b459ec,62bbfb6da391ce9d357778e6,2022-06-29_10h13.10.892,Colour_Asymmetry_Pilot,2022.1.3,Win32,60.07088364,62bbe60bf3d75ef465d3e404,,,,,,,,,,,,,,,,,,,,,,,,,,,,,,,,,,,,,,,,,,,,,,,,,,,,,,,,,,,,,,,,,,,,,,,,,,,,,,,,,,,,,,,,,,,,,,,,,,,,,,,,,,,,,,,,,,,,,,,,,,,,,,,,,,,,,,,,,,,,,,,,,,,,,,,,,,,,,
0,4,4,24,1,,6010601cc932aa3661b459ec,62bbfb6da391ce9d357778e6,2022-06-29_10h13.10.892,Colour_Asymmetry_Pilot,2022.1.3,Win32,60.07088364,62bbe60bf3d75ef465d3e404,,,,,,,,,,,,,,,,,,,,,,,,,,,,,,,,,,,,,,,,,,,,,,,,,,,,,,,,,,,,,,,,,,,,,,,,,,,,,,,,,,,,,,,,,,,,,,,,,,,,,,,,,,,,,,,,,,,,,,,,,,,,,,,,,,,,,,,,,,,,,,,,,,,,,,,,,,,,,
0,5,5,47,1,,6010601cc932aa3661b459ec,62bbfb6da391ce9d357778e6,2022-06-29_10h13.10.892,Colour_Asymmetry_Pilot,2022.1.3,Win32,60.07088364,62bbe60bf3d75ef465d3e404,,,,,,,,,,,,,,,,,,,,,,,,,,,,,,,,,,,,,,,,,,,,,,,,,,,,,,,,,,,,,,,,,,,,,,,,,,,,,,,,,,,,,,,,,,,,,,,,,,,,,,,,,,,,,,,,,,,,,,,,,,,,,,,,,,,,,,,,,,,,,,,,,,,,,,,,,,,,,
0,6,6,77,1,,6010601cc932aa3661b459ec,62bbfb6da391ce9d357778e6,2022-06-29_10h13.10.892,Colour_Asymmetry_Pilot,2022.1.3,Win32,60.07088364,62bbe60bf3d75ef465d3e404,,,,,,,,,,,,,,,,,,,,,,,,,,,,,,,,,,,,,,,,,,,,,,,,,,,,,,,,,,,,,,,,,,,,,,,,,,,,,,,,,,,,,,,,,,,,,,,,,,,,,,,,,,,,,,,,,,,,,,,,,,,,,,,,,,,,,,,,,,,,,,,,,,,,,,,,,,,,,
0,7,7,74,1,,6010601cc932aa3661b459ec,62bbfb6da391ce9d357778e6,2022-06-29_10h13.10.892,Colour_Asymmetry_Pilot,2022.1.3,Win32,60.07088364,62bbe60bf3d75ef465d3e404,,,,,,,,,,,,,,,,,,,,,,,,,,,,,,,,,,,,,,,,,,,,,,,,,,,,,,,,,,,,,,,,,,,,,,,,,,,,,,,,,,,,,,,,,,,,,,,,,,,,,,,,,,,,,,,,,,,,,,,,,,,,,,,,,,,,,,,,,,,,,,,,,,,,,,,,,,,,,
0,8,8,50,1,,6010601cc932aa3661b459ec,62bbfb6da391ce9d357778e6,2022-06-29_10h13.10.892,Colour_Asymmetry_Pilot,2022.1.3,Win32,60.07088364,62bbe60bf3d75ef465d3e404,,,,,,,,,,,,,,,,,,,,,,,,,,,,,,,,,,,,,,,,,,,,,,,,,,,,,,,,,,,,,,,,,,,,,,,,,,,,,,,,,,,,,,,,,,,,,,,,,,,,,,,,,,,,,,,,,,,,,,,,,,,,,,,,,,,,,,,,,,,,,,,,,,,,,,,,,,,,,
0,9,9,7,1,,6010601cc932aa3661b459ec,62bbfb6da391ce9d357778e6,2022-06-29_10h13.10.892,Colour_Asymmetry_Pilot,2022.1.3,Win32,60.07088364,62bbe60bf3d75ef465d3e404,,,,,,,,,,,,,,,,,,,,,,,,,,,,,,,,,,,,,,,,,,,,,,,,,,,,,,,,,,,,,,,,,,,,,,,,,,,,,,,,,,,,,,,,,,,,,,,,,,,,,,,,,,,,,,,,,,,,,,,,,,,,,,,,,,,,,,,,,,,,,,,,,,,,,,,,,,,,,
0,10,10,87,1,,6010601cc932aa3661b459ec,62bbfb6da391ce9d357778e6,2022-06-29_10h13.10.892,Colour_Asymmetry_Pilot,2022.1.3,Win32,60.07088364,62bbe60bf3d75ef465d3e404,,,,,,,,,,,,,,,,,,,,,,,,,,,,,,,,,,,,,,,,,,,,,,,,,,,,,,,,,,,,,,,,,,,,,,,,,,,,,,,,,,,,,,,,,,,,,,,,,,,,,,,,,,,,,,,,,,,,,,,,,,,,,,,,,,,,,,,,,,,,,,,,,,,,,,,,,,,,,
0,11,11,56,1,,6010601cc932aa3661b459ec,62bbfb6da391ce9d357778e6,2022-06-29_10h13.10.892,Colour_Asymmetry_Pilot,2022.1.3,Win32,60.07088364,62bbe60bf3d75ef465d3e404,,,,,,,,,,,,,,,,,,,,,,,,,,,,,,,,,,,,,,,,,,,,,,,,,,,,,,,,,,,,,,,,,,,,,,,,,,,,,,,,,,,,,,,,,,,,,,,,,,,,,,,,,,,,,,,,,,,,,,,,,,,,,,,,,,,,,,,,,,,,,,,,,,,,,,,,,,,,,
0,12,12,89,1,,6010601cc932aa3661b459ec,62bbfb6da391ce9d357778e6,2022-06-29_10h13.10.892,Colour_Asymmetry_Pilot,2022.1.3,Win32,60.07088364,62bbe60bf3d75ef465d3e404,,,,,,,,,,,,,,,,,,,,,,,,,,,,,,,,,,,,,,,,,,,,,,,,,,,,,,,,,,,,,,,,,,,,,,,,,,,,,,,,,,,,,,,,,,,,,,,,,,,,,,,,,,,,,,,,,,,,,,,,,,,,,,,,,,,,,,,,,,,,,,,,,,,,,,,,,,,,,
0,13,13,11,1,,6010601cc932aa3661b459ec,62bbfb6da391ce9d357778e6,2022-06-29_10h13.10.892,Colour_Asymmetry_Pilot,2022.1.3,Win32,60.07088364,62bbe60bf3d75ef465d3e404,,,,,,,,,,,,,,,,,,,,,,,,,,,,,,,,,,,,,,,,,,,,,,,,,,,,,,,,,,,,,,,,,,,,,,,,,,,,,,,,,,,,,,,,,,,,,,,,,,,,,,,,,,,,,,,,,,,,,,,,,,,,,,,,,,,,,,,,,,,,,,,,,,,,,,,,,,,,,
0,14,14,18,1,,6010601cc932aa3661b459ec,62bbfb6da391ce9d357778e6,2022-06-29_10h13.10.892,Colour_Asymmetry_Pilot,2022.1.3,Win32,60.07088364,62bbe60bf3d75ef465d3e404,,,,,,,,,,,,,,,,,,,,,,,,,,,,,,,,,,,,,,,,,,,,,,,,,,,,,,,,,,,,,,,,,,,,,,,,,,,,,,,,,,,,,,,,,,,,,,,,,,,,,,,,,,,,,,,,,,,,,,,,,,,,,,,,,,,,,,,,,,,,,,,,,,,,,,,,,,,,,
0,15,15,43,1,,6010601cc932aa3661b459ec,62bbfb6da391ce9d357778e6,2022-06-29_10h13.10.892,Colour_Asymmetry_Pilot,2022.1.3,Win32,60.07088364,62bbe60bf3d75ef465d3e404,,,,,,,,,,,,,,,,,,,,,,,,,,,,,,,,,,,,,,,,,,,,,,,,,,,,,,,,,,,,,,,,,,,,,,,,,,,,,,,,,,,,,,,,,,,,,,,,,,,,,,,,,,,,,,,,,,,,,,,,,,,,,,,,,,,,,,,,,,,,,,,,,,,,,,,,,,,,,
0,16,16,14,1,,6010601cc932aa3661b459ec,62bbfb6da391ce9d357778e6,2022-06-29_10h13.10.892,Colour_Asymmetry_Pilot,2022.1.3,Win32,60.07088364,62bbe60bf3d75ef465d3e404,,,,,,,,,,,,,,,,,,,,,,,,,,,,,,,,,,,,,,,,,,,,,,,,,,,,,,,,,,,,,,,,,,,,,,,,,,,,,,,,,,,,,,,,,,,,,,,,,,,,,,,,,,,,,,,,,,,,,,,,,,,,,,,,,,,,,,,,,,,,,,,,,,,,,,,,,,,,,
0,17,17,6,1,,6010601cc932aa3661b459ec,62bbfb6da391ce9d357778e6,2022-06-29_10h13.10.892,Colour_Asymmetry_Pilot,2022.1.3,Win32,60.07088364,62bbe60bf3d75ef465d3e404,,,,,,,,,,,,,,,,,,,,,,,,,,,,,,,,,,,,,,,,,,,,,,,,,,,,,,,,,,,,,,,,,,,,,,,,,,,,,,,,,,,,,,,,,,,,,,,,,,,,,,,,,,,,,,,,,,,,,,,,,,,,,,,,,,,,,,,,,,,,,,,,,,,,,,,,,,,,,
0,18,18,5,1,,6010601cc932aa3661b459ec,62bbfb6da391ce9d357778e6,2022-06-29_10h13.10.892,Colour_Asymmetry_Pilot,2022.1.3,Win32,60.07088364,62bbe60bf3d75ef465d3e404,,,,,,,,,,,,,,,,,,,,,,,,,,,,,,,,,,,,,,,,,,,,,,,,,,,,,,,,,,,,,,,,,,,,,,,,,,,,,,,,,,,,,,,,,,,,,,,,,,,,,,,,,,,,,,,,,,,,,,,,,,,,,,,,,,,,,,,,,,,,,,,,,,,,,,,,,,,,,
0,19,19,34,1,,6010601cc932aa3661b459ec,62bbfb6da391ce9d357778e6,2022-06-29_10h13.10.892,Colour_Asymmetry_Pilot,2022.1.3,Win32,60.07088364,62bbe60bf3d75ef465d3e404,,,,,,,,,,,,,,,,,,,,,,,,,,,,,,,,,,,,,,,,,,,,,,,,,,,,,,,,,,,,,,,,,,,,,,,,,,,,,,,,,,,,,,,,,,,,,,,,,,,,,,,,,,,,,,,,,,,,,,,,,,,,,,,,,,,,,,,,,,,,,,,,,,,,,,,,,,,,,
0,20,20,21,1,,6010601cc932aa3661b459ec,62bbfb6da391ce9d357778e6,2022-06-29_10h13.10.892,Colour_Asymmetry_Pilot,2022.1.3,Win32,60.07088364,62bbe60bf3d75ef465d3e404,,,,,,,,,,,,,,,,,,,,,,,,,,,,,,,,,,,,,,,,,,,,,,,,,,,,,,,,,,,,,,,,,,,,,,,,,,,,,,,,,,,,,,,,,,,,,,,,,,,,,,,,,,,,,,,,,,,,,,,,,,,,,,,,,,,,,,,,,,,,,,,,,,,,,,,,,,,,,
0,21,21,48,1,,6010601cc932aa3661b459ec,62bbfb6da391ce9d357778e6,2022-06-29_10h13.10.892,Colour_Asymmetry_Pilot,2022.1.3,Win32,60.07088364,62bbe60bf3d75ef465d3e404,,,,,,,,,,,,,,,,,,,,,,,,,,,,,,,,,,,,,,,,,,,,,,,,,,,,,,,,,,,,,,,,,,,,,,,,,,,,,,,,,,,,,,,,,,,,,,,,,,,,,,,,,,,,,,,,,,,,,,,,,,,,,,,,,,,,,,,,,,,,,,,,,,,,,,,,,,,,,
0,22,22,25,1,,6010601cc932aa3661b459ec,62bbfb6da391ce9d357778e6,2022-06-29_10h13.10.892,Colour_Asymmetry_Pilot,2022.1.3,Win32,60.07088364,62bbe60bf3d75ef465d3e404,,,,,,,,,,,,,,,,,,,,,,,,,,,,,,,,,,,,,,,,,,,,,,,,,,,,,,,,,,,,,,,,,,,,,,,,,,,,,,,,,,,,,,,,,,,,,,,,,,,,,,,,,,,,,,,,,,,,,,,,,,,,,,,,,,,,,,,,,,,,,,,,,,,,,,,,,,,,,
0,23,23,83,1,,6010601cc932aa3661b459ec,62bbfb6da391ce9d357778e6,2022-06-29_10h13.10.892,Colour_Asymmetry_Pilot,2022.1.3,Win32,60.07088364,62bbe60bf3d75ef465d3e404,,,,,,,,,,,,,,,,,,,,,,,,,,,,,,,,,,,,,,,,,,,,,,,,,,,,,,,,,,,,,,,,,,,,,,,,,,,,,,,,,,,,,,,,,,,,,,,,,,,,,,,,,,,,,,,,,,,,,,,,,,,,,,,,,,,,,,,,,,,,,,,,,,,,,,,,,,,,,
0,24,24,84,1,,6010601cc932aa3661b459ec,62bbfb6da391ce9d357778e6,2022-06-29_10h13.10.892,Colour_Asymmetry_Pilot,2022.1.3,Win32,60.07088364,62bbe60bf3d75ef465d3e404,,,,,,,,,,,,,,,,,,,,,,,,,,,,,,,,,,,,,,,,,,,,,,,,,,,,,,,,,,,,,,,,,,,,,,,,,,,,,,,,,,,,,,,,,,,,,,,,,,,,,,,,,,,,,,,,,,,,,,,,,,,,,,,,,,,,,,,,,,,,,,,,,,,,,,,,,,,,,
0,25,25,88,1,,6010601cc932aa3661b459ec,62bbfb6da391ce9d357778e6,2022-06-29_10h13.10.892,Colour_Asymmetry_Pilot,2022.1.3,Win32,60.07088364,62bbe60bf3d75ef465d3e404,,,,,,,,,,,,,,,,,,,,,,,,,,,,,,,,,,,,,,,,,,,,,,,,,,,,,,,,,,,,,,,,,,,,,,,,,,,,,,,,,,,,,,,,,,,,,,,,,,,,,,,,,,,,,,,,,,,,,,,,,,,,,,,,,,,,,,,,,,,,,,,,,,,,,,,,,,,,,
0,26,26,49,1,,6010601cc932aa3661b459ec,62bbfb6da391ce9d357778e6,2022-06-29_10h13.10.892,Colour_Asymmetry_Pilot,2022.1.3,Win32,60.07088364,62bbe60bf3d75ef465d3e404,,,,,,,,,,,,,,,,,,,,,,,,,,,,,,,,,,,,,,,,,,,,,,,,,,,,,,,,,,,,,,,,,,,,,,,,,,,,,,,,,,,,,,,,,,,,,,,,,,,,,,,,,,,,,,,,,,,,,,,,,,,,,,,,,,,,,,,,,,,,,,,,,,,,,,,,,,,,,
0,27,27,3,1,,6010601cc932aa3661b459ec,62bbfb6da391ce9d357778e6,2022-06-29_10h13.10.892,Colour_Asymmetry_Pilot,2022.1.3,Win32,60.07088364,62bbe60bf3d75ef465d3e404,,,,,,,,,,,,,,,,,,,,,,,,,,,,,,,,,,,,,,,,,,,,,,,,,,,,,,,,,,,,,,,,,,,,,,,,,,,,,,,,,,,,,,,,,,,,,,,,,,,,,,,,,,,,,,,,,,,,,,,,,,,,,,,,,,,,,,,,,,,,,,,,,,,,,,,,,,,,,
0,28,28,23,1,,6010601cc932aa3661b459ec,62bbfb6da391ce9d357778e6,2022-06-29_10h13.10.892,Colour_Asymmetry_Pilot,2022.1.3,Win32,60.07088364,62bbe60bf3d75ef465d3e404,,,,,,,,,,,,,,,,,,,,,,,,,,,,,,,,,,,,,,,,,,,,,,,,,,,,,,,,,,,,,,,,,,,,,,,,,,,,,,,,,,,,,,,,,,,,,,,,,,,,,,,,,,,,,,,,,,,,,,,,,,,,,,,,,,,,,,,,,,,,,,,,,,,,,,,,,,,,,
0,29,29,32,1,,6010601cc932aa3661b459ec,62bbfb6da391ce9d357778e6,2022-06-29_10h13.10.892,Colour_Asymmetry_Pilot,2022.1.3,Win32,60.07088364,62bbe60bf3d75ef465d3e404,,,,,,,,,,,,,,,,,,,,,,,,,,,,,,,,,,,,,,,,,,,,,,,,,,,,,,,,,,,,,,,,,,,,,,,,,,,,,,,,,,,,,,,,,,,,,,,,,,,,,,,,,,,,,,,,,,,,,,,,,,,,,,,,,,,,,,,,,,,,,,,,,,,,,,,,,,,,,
0,30,30,2,1,,6010601cc932aa3661b459ec,62bbfb6da391ce9d357778e6,2022-06-29_10h13.10.892,Colour_Asymmetry_Pilot,2022.1.3,Win32,60.07088364,62bbe60bf3d75ef465d3e404,,,,,,,,,,,,,,,,,,,,,,,,,,,,,,,,,,,,,,,,,,,,,,,,,,,,,,,,,,,,,,,,,,,,,,,,,,,,,,,,,,,,,,,,,,,,,,,,,,,,,,,,,,,,,,,,,,,,,,,,,,,,,,,,,,,,,,,,,,,,,,,,,,,,,,,,,,,,,
0,31,31,78,1,,6010601cc932aa3661b459ec,62bbfb6da391ce9d357778e6,2022-06-29_10h13.10.892,Colour_Asymmetry_Pilot,2022.1.3,Win32,60.07088364,62bbe60bf3d75ef465d3e404,,,,,,,,,,,,,,,,,,,,,,,,,,,,,,,,,,,,,,,,,,,,,,,,,,,,,,,,,,,,,,,,,,,,,,,,,,,,,,,,,,,,,,,,,,,,,,,,,,,,,,,,,,,,,,,,,,,,,,,,,,,,,,,,,,,,,,,,,,,,,,,,,,,,,,,,,,,,,
0,32,32,10,1,,6010601cc932aa3661b459ec,62bbfb6da391ce9d357778e6,2022-06-29_10h13.10.892,Colour_Asymmetry_Pilot,2022.1.3,Win32,60.07088364,62bbe60bf3d75ef465d3e404,,,,,,,,,,,,,,,,,,,,,,,,,,,,,,,,,,,,,,,,,,,,,,,,,,,,,,,,,,,,,,,,,,,,,,,,,,,,,,,,,,,,,,,,,,,,,,,,,,,,,,,,,,,,,,,,,,,,,,,,,,,,,,,,,,,,,,,,,,,,,,,,,,,,,,,,,,,,,
0,33,33,65,1,,6010601cc932aa3661b459ec,62bbfb6da391ce9d357778e6,2022-06-29_10h13.10.892,Colour_Asymmetry_Pilot,2022.1.3,Win32,60.07088364,62bbe60bf3d75ef465d3e404,,,,,,,,,,,,,,,,,,,,,,,,,,,,,,,,,,,,,,,,,,,,,,,,,,,,,,,,,,,,,,,,,,,,,,,,,,,,,,,,,,,,,,,,,,,,,,,,,,,,,,,,,,,,,,,,,,,,,,,,,,,,,,,,,,,,,,,,,,,,,,,,,,,,,,,,,,,,,
0,34,34,64,1,,6010601cc932aa3661b459ec,62bbfb6da391ce9d357778e6,2022-06-29_10h13.10.892,Colour_Asymmetry_Pilot,2022.1.3,Win32,60.07088364,62bbe60bf3d75ef465d3e404,,,,,,,,,,,,,,,,,,,,,,,,,,,,,,,,,,,,,,,,,,,,,,,,,,,,,,,,,,,,,,,,,,,,,,,,,,,,,,,,,,,,,,,,,,,,,,,,,,,,,,,,,,,,,,,,,,,,,,,,,,,,,,,,,,,,,,,,,,,,,,,,,,,,,,,,,,,,,
0,35,35,1,1,,6010601cc932aa3661b459ec,62bbfb6da391ce9d357778e6,2022-06-29_10h13.10.892,Colour_Asymmetry_Pilot,2022.1.3,Win32,60.07088364,62bbe60bf3d75ef465d3e404,,,,,,,,,,,,,,,,,,,,,,,,,,,,,,,,,,,,,,,,,,,,,,,,,,,,,,,,,,,,,,,,,,,,,,,,,,,,,,,,,,,,,,,,,,,,,,,,,,,,,,,,,,,,,,,,,,,,,,,,,,,,,,,,,,,,,,,,,,,,,,,,,,,,,,,,,,,,,
0,36,36,17,1,,6010601cc932aa3661b459ec,62bbfb6da391ce9d357778e6,2022-06-29_10h13.10.892,Colour_Asymmetry_Pilot,2022.1.3,Win32,60.07088364,62bbe60bf3d75ef465d3e404,,,,,,,,,,,,,,,,,,,,,,,,,,,,,,,,,,,,,,,,,,,,,,,,,,,,,,,,,,,,,,,,,,,,,,,,,,,,,,,,,,,,,,,,,,,,,,,,,,,,,,,,,,,,,,,,,,,,,,,,,,,,,,,,,,,,,,,,,,,,,,,,,,,,,,,,,,,,,
0,37,37,71,1,,6010601cc932aa3661b459ec,62bbfb6da391ce9d357778e6,2022-06-29_10h13.10.892,Colour_Asymmetry_Pilot,2022.1.3,Win32,60.07088364,62bbe60bf3d75ef465d3e404,,,,,,,,,,,,,,,,,,,,,,,,,,,,,,,,,,,,,,,,,,,,,,,,,,,,,,,,,,,,,,,,,,,,,,,,,,,,,,,,,,,,,,,,,,,,,,,,,,,,,,,,,,,,,,,,,,,,,,,,,,,,,,,,,,,,,,,,,,,,,,,,,,,,,,,,,,,,,
0,38,38,92,1,,6010601cc932aa3661b459ec,62bbfb6da391ce9d357778e6,2022-06-29_10h13.10.892,Colour_Asymmetry_Pilot,2022.1.3,Win32,60.07088364,62bbe60bf3d75ef465d3e404,,,,,,,,,,,,,,,,,,,,,,,,,,,,,,,,,,,,,,,,,,,,,,,,,,,,,,,,,,,,,,,,,,,,,,,,,,,,,,,,,,,,,,,,,,,,,,,,,,,,,,,,,,,,,,,,,,,,,,,,,,,,,,,,,,,,,,,,,,,,,,,,,,,,,,,,,,,,,
0,39,39,51,1,,6010601cc932aa3661b459ec,62bbfb6da391ce9d357778e6,2022-06-29_10h13.10.892,Colour_Asymmetry_Pilot,2022.1.3,Win32,60.07088364,62bbe60bf3d75ef465d3e404,,,,,,,,,,,,,,,,,,,,,,,,,,,,,,,,,,,,,,,,,,,,,,,,,,,,,,,,,,,,,,,,,,,,,,,,,,,,,,,,,,,,,,,,,,,,,,,,,,,,,,,,,,,,,,,,,,,,,,,,,,,,,,,,,,,,,,,,,,,,,,,,,,,,,,,,,,,,,
0,40,40,15,1,,6010601cc932aa3661b459ec,62bbfb6da391ce9d357778e6,2022-06-29_10h13.10.892,Colour_Asymmetry_Pilot,2022.1.3,Win32,60.07088364,62bbe60bf3d75ef465d3e404,,,,,,,,,,,,,,,,,,,,,,,,,,,,,,,,,,,,,,,,,,,,,,,,,,,,,,,,,,,,,,,,,,,,,,,,,,,,,,,,,,,,,,,,,,,,,,,,,,,,,,,,,,,,,,,,,,,,,,,,,,,,,,,,,,,,,,,,,,,,,,,,,,,,,,,,,,,,,
0,41,41,41,1,,6010601cc932aa3661b459ec,62bbfb6da391ce9d357778e6,2022-06-29_10h13.10.892,Colour_Asymmetry_Pilot,2022.1.3,Win32,60.07088364,62bbe60bf3d75ef465d3e404,,,,,,,,,,,,,,,,,,,,,,,,,,,,,,,,,,,,,,,,,,,,,,,,,,,,,,,,,,,,,,,,,,,,,,,,,,,,,,,,,,,,,,,,,,,,,,,,,,,,,,,,,,,,,,,,,,,,,,,,,,,,,,,,,,,,,,,,,,,,,,,,,,,,,,,,,,,,,
0,42,42,46,1,,6010601cc932aa3661b459ec,62bbfb6da391ce9d357778e6,2022-06-29_10h13.10.892,Colour_Asymmetry_Pilot,2022.1.3,Win32,60.07088364,62bbe60bf3d75ef465d3e404,,,,,,,,,,,,,,,,,,,,,,,,,,,,,,,,,,,,,,,,,,,,,,,,,,,,,,,,,,,,,,,,,,,,,,,,,,,,,,,,,,,,,,,,,,,,,,,,,,,,,,,,,,,,,,,,,,,,,,,,,,,,,,,,,,,,,,,,,,,,,,,,,,,,,,,,,,,,,
0,43,43,53,1,,6010601cc932aa3661b459ec,62bbfb6da391ce9d357778e6,2022-06-29_10h13.10.892,Colour_Asymmetry_Pilot,2022.1.3,Win32,60.07088364,62bbe60bf3d75ef465d3e404,,,,,,,,,,,,,,,,,,,,,,,,,,,,,,,,,,,,,,,,,,,,,,,,,,,,,,,,,,,,,,,,,,,,,,,,,,,,,,,,,,,,,,,,,,,,,,,,,,,,,,,,,,,,,,,,,,,,,,,,,,,,,,,,,,,,,,,,,,,,,,,,,,,,,,,,,,,,,
0,44,44,33,1,,6010601cc932aa3661b459ec,62bbfb6da391ce9d357778e6,2022-06-29_10h13.10.892,Colour_Asymmetry_Pilot,2022.1.3,Win32,60.07088364,62bbe60bf3d75ef465d3e404,,,,,,,,,,,,,,,,,,,,,,,,,,,,,,,,,,,,,,,,,,,,,,,,,,,,,,,,,,,,,,,,,,,,,,,,,,,,,,,,,,,,,,,,,,,,,,,,,,,,,,,,,,,,,,,,,,,,,,,,,,,,,,,,,,,,,,,,,,,,,,,,,,,,,,,,,,,,,
0,45,45,52,1,,6010601cc932aa3661b459ec,62bbfb6da391ce9d357778e6,2022-06-29_10h13.10.892,Colour_Asymmetry_Pilot,2022.1.3,Win32,60.07088364,62bbe60bf3d75ef465d3e404,,,,,,,,,,,,,,,,,,,,,,,,,,,,,,,,,,,,,,,,,,,,,,,,,,,,,,,,,,,,,,,,,,,,,,,,,,,,,,,,,,,,,,,,,,,,,,,,,,,,,,,,,,,,,,,,,,,,,,,,,,,,,,,,,,,,,,,,,,,,,,,,,,,,,,,,,,,,,
0,46,46,28,1,,6010601cc932aa3661b459ec,62bbfb6da391ce9d357778e6,2022-06-29_10h13.10.892,Colour_Asymmetry_Pilot,2022.1.3,Win32,60.07088364,62bbe60bf3d75ef465d3e404,,,,,,,,,,,,,,,,,,,,,,,,,,,,,,,,,,,,,,,,,,,,,,,,,,,,,,,,,,,,,,,,,,,,,,,,,,,,,,,,,,,,,,,,,,,,,,,,,,,,,,,,,,,,,,,,,,,,,,,,,,,,,,,,,,,,,,,,,,,,,,,,,,,,,,,,,,,,,
0,47,47,61,1,,6010601cc932aa3661b459ec,62bbfb6da391ce9d357778e6,2022-06-29_10h13.10.892,Colour_Asymmetry_Pilot,2022.1.3,Win32,60.07088364,62bbe60bf3d75ef465d3e404,,,,,,,,,,,,,,,,,,,,,,,,,,,,,,,,,,,,,,,,,,,,,,,,,,,,,,,,,,,,,,,,,,,,,,,,,,,,,,,,,,,,,,,,,,,,,,,,,,,,,,,,,,,,,,,,,,,,,,,,,,,,,,,,,,,,,,,,,,,,,,,,,,,,,,,,,,,,,
0,48,48,27,1,,6010601cc932aa3661b459ec,62bbfb6da391ce9d357778e6,2022-06-29_10h13.10.892,Colour_Asymmetry_Pilot,2022.1.3,Win32,60.07088364,62bbe60bf3d75ef465d3e404,,,,,,,,,,,,,,,,,,,,,,,,,,,,,,,,,,,,,,,,,,,,,,,,,,,,,,,,,,,,,,,,,,,,,,,,,,,,,,,,,,,,,,,,,,,,,,,,,,,,,,,,,,,,,,,,,,,,,,,,,,,,,,,,,,,,,,,,,,,,,,,,,,,,,,,,,,,,,
0,49,49,79,1,,6010601cc932aa3661b459ec,62bbfb6da391ce9d357778e6,2022-06-29_10h13.10.892,Colour_Asymmetry_Pilot,2022.1.3,Win32,60.07088364,62bbe60bf3d75ef465d3e404,,,,,,,,,,,,,,,,,,,,,,,,,,,,,,,,,,,,,,,,,,,,,,,,,,,,,,,,,,,,,,,,,,,,,,,,,,,,,,,,,,,,,,,,,,,,,,,,,,,,,,,,,,,,,,,,,,,,,,,,,,,,,,,,,,,,,,,,,,,,,,,,,,,,,,,,,,,,,
0,50,50,38,1,,6010601cc932aa3661b459ec,62bbfb6da391ce9d357778e6,2022-06-29_10h13.10.892,Colour_Asymmetry_Pilot,2022.1.3,Win32,60.07088364,62bbe60bf3d75ef465d3e404,,,,,,,,,,,,,,,,,,,,,,,,,,,,,,,,,,,,,,,,,,,,,,,,,,,,,,,,,,,,,,,,,,,,,,,,,,,,,,,,,,,,,,,,,,,,,,,,,,,,,,,,,,,,,,,,,,,,,,,,,,,,,,,,,,,,,,,,,,,,,,,,,,,,,,,,,,,,,
0,51,51,54,1,,6010601cc932aa3661b459ec,62bbfb6da391ce9d357778e6,2022-06-29_10h13.10.892,Colour_Asymmetry_Pilot,2022.1.3,Win32,60.07088364,62bbe60bf3d75ef465d3e404,,,,,,,,,,,,,,,,,,,,,,,,,,,,,,,,,,,,,,,,,,,,,,,,,,,,,,,,,,,,,,,,,,,,,,,,,,,,,,,,,,,,,,,,,,,,,,,,,,,,,,,,,,,,,,,,,,,,,,,,,,,,,,,,,,,,,,,,,,,,,,,,,,,,,,,,,,,,,
0,52,52,90,1,,6010601cc932aa3661b459ec,62bbfb6da391ce9d357778e6,2022-06-29_10h13.10.892,Colour_Asymmetry_Pilot,2022.1.3,Win32,60.07088364,62bbe60bf3d75ef465d3e404,,,,,,,,,,,,,,,,,,,,,,,,,,,,,,,,,,,,,,,,,,,,,,,,,,,,,,,,,,,,,,,,,,,,,,,,,,,,,,,,,,,,,,,,,,,,,,,,,,,,,,,,,,,,,,,,,,,,,,,,,,,,,,,,,,,,,,,,,,,,,,,,,,,,,,,,,,,,,
0,53,53,85,1,,6010601cc932aa3661b459ec,62bbfb6da391ce9d357778e6,2022-06-29_10h13.10.892,Colour_Asymmetry_Pilot,2022.1.3,Win32,60.07088364,62bbe60bf3d75ef465d3e404,,,,,,,,,,,,,,,,,,,,,,,,,,,,,,,,,,,,,,,,,,,,,,,,,,,,,,,,,,,,,,,,,,,,,,,,,,,,,,,,,,,,,,,,,,,,,,,,,,,,,,,,,,,,,,,,,,,,,,,,,,,,,,,,,,,,,,,,,,,,,,,,,,,,,,,,,,,,,
0,54,54,9,1,,6010601cc932aa3661b459ec,62bbfb6da391ce9d357778e6,2022-06-29_10h13.10.892,Colour_Asymmetry_Pilot,2022.1.3,Win32,60.07088364,62bbe60bf3d75ef465d3e404,,,,,,,,,,,,,,,,,,,,,,,,,,,,,,,,,,,,,,,,,,,,,,,,,,,,,,,,,,,,,,,,,,,,,,,,,,,,,,,,,,,,,,,,,,,,,,,,,,,,,,,,,,,,,,,,,,,,,,,,,,,,,,,,,,,,,,,,,,,,,,,,,,,,,,,,,,,,,
0,55,55,8,1,,6010601cc932aa3661b459ec,62bbfb6da391ce9d357778e6,2022-06-29_10h13.10.892,Colour_Asymmetry_Pilot,2022.1.3,Win32,60.07088364,62bbe60bf3d75ef465d3e404,,,,,,,,,,,,,,,,,,,,,,,,,,,,,,,,,,,,,,,,,,,,,,,,,,,,,,,,,,,,,,,,,,,,,,,,,,,,,,,,,,,,,,,,,,,,,,,,,,,,,,,,,,,,,,,,,,,,,,,,,,,,,,,,,,,,,,,,,,,,,,,,,,,,,,,,,,,,,
0,56,56,67,1,,6010601cc932aa3661b459ec,62bbfb6da391ce9d357778e6,2022-06-29_10h13.10.892,Colour_Asymmetry_Pilot,2022.1.3,Win32,60.07088364,62bbe60bf3d75ef465d3e404,,,,,,,,,,,,,,,,,,,,,,,,,,,,,,,,,,,,,,,,,,,,,,,,,,,,,,,,,,,,,,,,,,,,,,,,,,,,,,,,,,,,,,,,,,,,,,,,,,,,,,,,,,,,,,,,,,,,,,,,,,,,,,,,,,,,,,,,,,,,,,,,,,,,,,,,,,,,,
0,57,57,75,1,,6010601cc932aa3661b459ec,62bbfb6da391ce9d357778e6,2022-06-29_10h13.10.892,Colour_Asymmetry_Pilot,2022.1.3,Win32,60.07088364,62bbe60bf3d75ef465d3e404,,,,,,,,,,,,,,,,,,,,,,,,,,,,,,,,,,,,,,,,,,,,,,,,,,,,,,,,,,,,,,,,,,,,,,,,,,,,,,,,,,,,,,,,,,,,,,,,,,,,,,,,,,,,,,,,,,,,,,,,,,,,,,,,,,,,,,,,,,,,,,,,,,,,,,,,,,,,,
0,58,58,22,1,,6010601cc932aa3661b459ec,62bbfb6da391ce9d357778e6,2022-06-29_10h13.10.892,Colour_Asymmetry_Pilot,2022.1.3,Win32,60.07088364,62bbe60bf3d75ef465d3e404,,,,,,,,,,,,,,,,,,,,,,,,,,,,,,,,,,,,,,,,,,,,,,,,,,,,,,,,,,,,,,,,,,,,,,,,,,,,,,,,,,,,,,,,,,,,,,,,,,,,,,,,,,,,,,,,,,,,,,,,,,,,,,,,,,,,,,,,,,,,,,,,,,,,,,,,,,,,,
0,59,59,31,1,,6010601cc932aa3661b459ec,62bbfb6da391ce9d357778e6,2022-06-29_10h13.10.892,Colour_Asymmetry_Pilot,2022.1.3,Win32,60.07088364,62bbe60bf3d75ef465d3e404,,,,,,,,,,,,,,,,,,,,,,,,,,,,,,,,,,,,,,,,,,,,,,,,,,,,,,,,,,,,,,,,,,,,,,,,,,,,,,,,,,,,,,,,,,,,,,,,,,,,,,,,,,,,,,,,,,,,,,,,,,,,,,,,,,,,,,,,,,,,,,,,,,,,,,,,,,,,,
0,60,60,81,1,,6010601cc932aa3661b459ec,62bbfb6da391ce9d357778e6,2022-06-29_10h13.10.892,Colour_Asymmetry_Pilot,2022.1.3,Win32,60.07088364,62bbe60bf3d75ef465d3e404,,,,,,,,,,,,,,,,,,,,,,,,,,,,,,,,,,,,,,,,,,,,,,,,,,,,,,,,,,,,,,,,,,,,,,,,,,,,,,,,,,,,,,,,,,,,,,,,,,,,,,,,,,,,,,,,,,,,,,,,,,,,,,,,,,,,,,,,,,,,,,,,,,,,,,,,,,,,,
0,61,61,16,1,,6010601cc932aa3661b459ec,62bbfb6da391ce9d357778e6,2022-06-29_10h13.10.892,Colour_Asymmetry_Pilot,2022.1.3,Win32,60.07088364,62bbe60bf3d75ef465d3e404,,,,,,,,,,,,,,,,,,,,,,,,,,,,,,,,,,,,,,,,,,,,,,,,,,,,,,,,,,,,,,,,,,,,,,,,,,,,,,,,,,,,,,,,,,,,,,,,,,,,,,,,,,,,,,,,,,,,,,,,,,,,,,,,,,,,,,,,,,,,,,,,,,,,,,,,,,,,,
0,62,62,35,1,,6010601cc932aa3661b459ec,62bbfb6da391ce9d357778e6,2022-06-29_10h13.10.892,Colour_Asymmetry_Pilot,2022.1.3,Win32,60.07088364,62bbe60bf3d75ef465d3e404,,,,,,,,,,,,,,,,,,,,,,,,,,,,,,,,,,,,,,,,,,,,,,,,,,,,,,,,,,,,,,,,,,,,,,,,,,,,,,,,,,,,,,,,,,,,,,,,,,,,,,,,,,,,,,,,,,,,,,,,,,,,,,,,,,,,,,,,,,,,,,,,,,,,,,,,,,,,,
0,63,63,62,1,,6010601cc932aa3661b459ec,62bbfb6da391ce9d357778e6,2022-06-29_10h13.10.892,Colour_Asymmetry_Pilot,2022.1.3,Win32,60.07088364,62bbe60bf3d75ef465d3e404,,,,,,,,,,,,,,,,,,,,,,,,,,,,,,,,,,,,,,,,,,,,,,,,,,,,,,,,,,,,,,,,,,,,,,,,,,,,,,,,,,,,,,,,,,,,,,,,,,,,,,,,,,,,,,,,,,,,,,,,,,,,,,,,,,,,,,,,,,,,,,,,,,,,,,,,,,,,,
0,64,64,76,1,,6010601cc932aa3661b459ec,62bbfb6da391ce9d357778e6,2022-06-29_10h13.10.892,Colour_Asymmetry_Pilot,2022.1.3,Win32,60.07088364,62bbe60bf3d75ef465d3e404,,,,,,,,,,,,,,,,,,,,,,,,,,,,,,,,,,,,,,,,,,,,,,,,,,,,,,,,,,,,,,,,,,,,,,,,,,,,,,,,,,,,,,,,,,,,,,,,,,,,,,,,,,,,,,,,,,,,,,,,,,,,,,,,,,,,,,,,,,,,,,,,,,,,,,,,,,,,,
0,65,65,44,1,,6010601cc932aa3661b459ec,62bbfb6da391ce9d357778e6,2022-06-29_10h13.10.892,Colour_Asymmetry_Pilot,2022.1.3,Win32,60.07088364,62bbe60bf3d75ef465d3e404,,,,,,,,,,,,,,,,,,,,,,,,,,,,,,,,,,,,,,,,,,,,,,,,,,,,,,,,,,,,,,,,,,,,,,,,,,,,,,,,,,,,,,,,,,,,,,,,,,,,,,,,,,,,,,,,,,,,,,,,,,,,,,,,,,,,,,,,,,,,,,,,,,,,,,,,,,,,,
0,66,66,39,1,,6010601cc932aa3661b459ec,62bbfb6da391ce9d357778e6,2022-06-29_10h13.10.892,Colour_Asymmetry_Pilot,2022.1.3,Win32,60.07088364,62bbe60bf3d75ef465d3e404,,,,,,,,,,,,,,,,,,,,,,,,,,,,,,,,,,,,,,,,,,,,,,,,,,,,,,,,,,,,,,,,,,,,,,,,,,,,,,,,,,,,,,,,,,,,,,,,,,,,,,,,,,,,,,,,,,,,,,,,,,,,,,,,,,,,,,,,,,,,,,,,,,,,,,,,,,,,,
0,67,67,29,1,,6010601cc932aa3661b459ec,62bbfb6da391ce9d357778e6,2022-06-29_10h13.10.892,Colour_Asymmetry_Pilot,2022.1.3,Win32,60.07088364,62bbe60bf3d75ef465d3e404,,,,,,,,,,,,,,,,,,,,,,,,,,,,,,,,,,,,,,,,,,,,,,,,,,,,,,,,,,,,,,,,,,,,,,,,,,,,,,,,,,,,,,,,,,,,,,,,,,,,,,,,,,,,,,,,,,,,,,,,,,,,,,,,,,,,,,,,,,,,,,,,,,,,,,,,,,,,,
0,68,68,60,1,,6010601cc932aa3661b459ec,62bbfb6da391ce9d357778e6,2022-06-29_10h13.10.892,Colour_Asymmetry_Pilot,2022.1.3,Win32,60.07088364,62bbe60bf3d75ef465d3e404,,,,,,,,,,,,,,,,,,,,,,,,,,,,,,,,,,,,,,,,,,,,,,,,,,,,,,,,,,,,,,,,,,,,,,,,,,,,,,,,,,,,,,,,,,,,,,,,,,,,,,,,,,,,,,,,,,,,,,,,,,,,,,,,,,,,,,,,,,,,,,,,,,,,,,,,,,,,,
0,69,69,59,1,,6010601cc932aa3661b459ec,62bbfb6da391ce9d357778e6,2022-06-29_10h13.10.892,Colour_Asymmetry_Pilot,2022.1.3,Win32,60.07088364,62bbe60bf3d75ef465d3e404,,,,,,,,,,,,,,,,,,,,,,,,,,,,,,,,,,,,,,,,,,,,,,,,,,,,,,,,,,,,,,,,,,,,,,,,,,,,,,,,,,,,,,,,,,,,,,,,,,,,,,,,,,,,,,,,,,,,,,,,,,,,,,,,,,,,,,,,,,,,,,,,,,,,,,,,,,,,,
0,70,70,30,1,,6010601cc932aa3661b459ec,62bbfb6da391ce9d357778e6,2022-06-29_10h13.10.892,Colour_Asymmetry_Pilot,2022.1.3,Win32,60.07088364,62bbe60bf3d75ef465d3e404,,,,,,,,,,,,,,,,,,,,,,,,,,,,,,,,,,,,,,,,,,,,,,,,,,,,,,,,,,,,,,,,,,,,,,,,,,,,,,,,,,,,,,,,,,,,,,,,,,,,,,,,,,,,,,,,,,,,,,,,,,,,,,,,,,,,,,,,,,,,,,,,,,,,,,,,,,,,,
0,71,71,82,1,,6010601cc932aa3661b459ec,62bbfb6da391ce9d357778e6,2022-06-29_10h13.10.892,Colour_Asymmetry_Pilot,2022.1.3,Win32,60.07088364,62bbe60bf3d75ef465d3e404,,,,,,,,,,,,,,,,,,,,,,,,,,,,,,,,,,,,,,,,,,,,,,,,,,,,,,,,,,,,,,,,,,,,,,,,,,,,,,,,,,,,,,,,,,,,,,,,,,,,,,,,,,,,,,,,,,,,,,,,,,,,,,,,,,,,,,,,,,,,,,,,,,,,,,,,,,,,,
0,72,72,4,1,,6010601cc932aa3661b459ec,62bbfb6da391ce9d357778e6,2022-06-29_10h13.10.892,Colour_Asymmetry_Pilot,2022.1.3,Win32,60.07088364,62bbe60bf3d75ef465d3e404,,,,,,,,,,,,,,,,,,,,,,,,,,,,,,,,,,,,,,,,,,,,,,,,,,,,,,,,,,,,,,,,,,,,,,,,,,,,,,,,,,,,,,,,,,,,,,,,,,,,,,,,,,,,,,,,,,,,,,,,,,,,,,,,,,,,,,,,,,,,,,,,,,,,,,,,,,,,,
0,73,73,66,1,,6010601cc932aa3661b459ec,62bbfb6da391ce9d357778e6,2022-06-29_10h13.10.892,Colour_Asymmetry_Pilot,2022.1.3,Win32,60.07088364,62bbe60bf3d75ef465d3e404,,,,,,,,,,,,,,,,,,,,,,,,,,,,,,,,,,,,,,,,,,,,,,,,,,,,,,,,,,,,,,,,,,,,,,,,,,,,,,,,,,,,,,,,,,,,,,,,,,,,,,,,,,,,,,,,,,,,,,,,,,,,,,,,,,,,,,,,,,,,,,,,,,,,,,,,,,,,,
0,74,74,73,1,,6010601cc932aa3661b459ec,62bbfb6da391ce9d357778e6,2022-06-29_10h13.10.892,Colour_Asymmetry_Pilot,2022.1.3,Win32,60.07088364,62bbe60bf3d75ef465d3e404,,,,,,,,,,,,,,,,,,,,,,,,,,,,,,,,,,,,,,,,,,,,,,,,,,,,,,,,,,,,,,,,,,,,,,,,,,,,,,,,,,,,,,,,,,,,,,,,,,,,,,,,,,,,,,,,,,,,,,,,,,,,,,,,,,,,,,,,,,,,,,,,,,,,,,,,,,,,,
0,75,75,40,1,,6010601cc932aa3661b459ec,62bbfb6da391ce9d357778e6,2022-06-29_10h13.10.892,Colour_Asymmetry_Pilot,2022.1.3,Win32,60.07088364,62bbe60bf3d75ef465d3e404,,,,,,,,,,,,,,,,,,,,,,,,,,,,,,,,,,,,,,,,,,,,,,,,,,,,,,,,,,,,,,,,,,,,,,,,,,,,,,,,,,,,,,,,,,,,,,,,,,,,,,,,,,,,,,,,,,,,,,,,,,,,,,,,,,,,,,,,,,,,,,,,,,,,,,,,,,,,,
0,76,76,19,1,,6010601cc932aa3661b459ec,62bbfb6da391ce9d357778e6,2022-06-29_10h13.10.892,Colour_Asymmetry_Pilot,2022.1.3,Win32,60.07088364,62bbe60bf3d75ef465d3e404,,,,,,,,,,,,,,,,,,,,,,,,,,,,,,,,,,,,,,,,,,,,,,,,,,,,,,,,,,,,,,,,,,,,,,,,,,,,,,,,,,,,,,,,,,,,,,,,,,,,,,,,,,,,,,,,,,,,,,,,,,,,,,,,,,,,,,,,,,,,,,,,,,,,,,,,,,,,,
0,77,77,37,1,,6010601cc932aa3661b459ec,62bbfb6da391ce9d357778e6,2022-06-29_10h13.10.892,Colour_Asymmetry_Pilot,2022.1.3,Win32,60.07088364,62bbe60bf3d75ef465d3e404,,,,,,,,,,,,,,,,,,,,,,,,,,,,,,,,,,,,,,,,,,,,,,,,,,,,,,,,,,,,,,,,,,,,,,,,,,,,,,,,,,,,,,,,,,,,,,,,,,,,,,,,,,,,,,,,,,,,,,,,,,,,,,,,,,,,,,,,,,,,,,,,,,,,,,,,,,,,,
0,78,78,36,1,,6010601cc932aa3661b459ec,62bbfb6da391ce9d357778e6,2022-06-29_10h13.10.892,Colour_Asymmetry_Pilot,2022.1.3,Win32,60.07088364,62bbe60bf3d75ef465d3e404,,,,,,,,,,,,,,,,,,,,,,,,,,,,,,,,,,,,,,,,,,,,,,,,,,,,,,,,,,,,,,,,,,,,,,,,,,,,,,,,,,,,,,,,,,,,,,,,,,,,,,,,,,,,,,,,,,,,,,,,,,,,,,,,,,,,,,,,,,,,,,,,,,,,,,,,,,,,,
0,79,79,68,1,,6010601cc932aa3661b459ec,62bbfb6da391ce9d357778e6,2022-06-29_10h13.10.892,Colour_Asymmetry_Pilot,2022.1.3,Win32,60.07088364,62bbe60bf3d75ef465d3e404,,,,,,,,,,,,,,,,,,,,,,,,,,,,,,,,,,,,,,,,,,,,,,,,,,,,,,,,,,,,,,,,,,,,,,,,,,,,,,,,,,,,,,,,,,,,,,,,,,,,,,,,,,,,,,,,,,,,,,,,,,,,,,,,,,,,,,,,,,,,,,,,,,,,,,,,,,,,,
0,80,80,72,1,,6010601cc932aa3661b459ec,62bbfb6da391ce9d357778e6,2022-06-29_10h13.10.892,Colour_Asymmetry_Pilot,2022.1.3,Win32,60.07088364,62bbe60bf3d75ef465d3e404,,,,,,,,,,,,,,,,,,,,,,,,,,,,,,,,,,,,,,,,,,,,,,,,,,,,,,,,,,,,,,,,,,,,,,,,,,,,,,,,,,,,,,,,,,,,,,,,,,,,,,,,,,,,,,,,,,,,,,,,,,,,,,,,,,,,,,,,,,,,,,,,,,,,,,,,,,,,,
0,81,81,70,1,,6010601cc932aa3661b459ec,62bbfb6da391ce9d357778e6,2022-06-29_10h13.10.892,Colour_Asymmetry_Pilot,2022.1.3,Win32,60.07088364,62bbe60bf3d75ef465d3e404,,,,,,,,,,,,,,,,,,,,,,,,,,,,,,,,,,,,,,,,,,,,,,,,,,,,,,,,,,,,,,,,,,,,,,,,,,,,,,,,,,,,,,,,,,,,,,,,,,,,,,,,,,,,,,,,,,,,,,,,,,,,,,,,,,,,,,,,,,,,,,,,,,,,,,,,,,,,,
0,82,82,12,1,,6010601cc932aa3661b459ec,62bbfb6da391ce9d357778e6,2022-06-29_10h13.10.892,Colour_Asymmetry_Pilot,2022.1.3,Win32,60.07088364,62bbe60bf3d75ef465d3e404,,,,,,,,,,,,,,,,,,,,,,,,,,,,,,,,,,,,,,,,,,,,,,,,,,,,,,,,,,,,,,,,,,,,,,,,,,,,,,,,,,,,,,,,,,,,,,,,,,,,,,,,,,,,,,,,,,,,,,,,,,,,,,,,,,,,,,,,,,,,,,,,,,,,,,,,,,,,,
0,83,83,58,1,,6010601cc932aa3661b459ec,62bbfb6da391ce9d357778e6,2022-06-29_10h13.10.892,Colour_Asymmetry_Pilot,2022.1.3,Win32,60.07088364,62bbe60bf3d75ef465d3e404,,,,,,,,,,,,,,,,,,,,,,,,,,,,,,,,,,,,,,,,,,,,,,,,,,,,,,,,,,,,,,,,,,,,,,,,,,,,,,,,,,,,,,,,,,,,,,,,,,,,,,,,,,,,,,,,,,,,,,,,,,,,,,,,,,,,,,,,,,,,,,,,,,,,,,,,,,,,,
0,84,84,13,1,,6010601cc932aa3661b459ec,62bbfb6da391ce9d357778e6,2022-06-29_10h13.10.892,Colour_Asymmetry_Pilot,2022.1.3,Win32,60.07088364,62bbe60bf3d75ef465d3e404,,,,,,,,,,,,,,,,,,,,,,,,,,,,,,,,,,,,,,,,,,,,,,,,,,,,,,,,,,,,,,,,,,,,,,,,,,,,,,,,,,,,,,,,,,,,,,,,,,,,,,,,,,,,,,,,,,,,,,,,,,,,,,,,,,,,,,,,,,,,,,,,,,,,,,,,,,,,,
0,85,85,63,1,,6010601cc932aa3661b459ec,62bbfb6da391ce9d357778e6,2022-06-29_10h13.10.892,Colour_Asymmetry_Pilot,2022.1.3,Win32,60.07088364,62bbe60bf3d75ef465d3e404,,,,,,,,,,,,,,,,,,,,,,,,,,,,,,,,,,,,,,,,,,,,,,,,,,,,,,,,,,,,,,,,,,,,,,,,,,,,,,,,,,,,,,,,,,,,,,,,,,,,,,,,,,,,,,,,,,,,,,,,,,,,,,,,,,,,,,,,,,,,,,,,,,,,,,,,,,,,,
0,86,86,55,1,,6010601cc932aa3661b459ec,62bbfb6da391ce9d357778e6,2022-06-29_10h13.10.892,Colour_Asymmetry_Pilot,2022.1.3,Win32,60.07088364,62bbe60bf3d75ef465d3e404,,,,,,,,,,,,,,,,,,,,,,,,,,,,,,,,,,,,,,,,,,,,,,,,,,,,,,,,,,,,,,,,,,,,,,,,,,,,,,,,,,,,,,,,,,,,,,,,,,,,,,,,,,,,,,,,,,,,,,,,,,,,,,,,,,,,,,,,,,,,,,,,,,,,,,,,,,,,,
0,87,87,20,1,,6010601cc932aa3661b459ec,62bbfb6da391ce9d357778e6,2022-06-29_10h13.10.892,Colour_Asymmetry_Pilot,2022.1.3,Win32,60.07088364,62bbe60bf3d75ef465d3e404,,,,,,,,,,,,,,,,,,,,,,,,,,,,,,,,,,,,,,,,,,,,,,,,,,,,,,,,,,,,,,,,,,,,,,,,,,,,,,,,,,,,,,,,,,,,,,,,,,,,,,,,,,,,,,,,,,,,,,,,,,,,,,,,,,,,,,,,,,,,,,,,,,,,,,,,,,,,,
0,88,88,80,1,,6010601cc932aa3661b459ec,62bbfb6da391ce9d357778e6,2022-06-29_10h13.10.892,Colour_Asymmetry_Pilot,2022.1.3,Win32,60.07088364,62bbe60bf3d75ef465d3e404,,,,,,,,,,,,,,,,,,,,,,,,,,,,,,,,,,,,,,,,,,,,,,,,,,,,,,,,,,,,,,,,,,,,,,,,,,,,,,,,,,,,,,,,,,,,,,,,,,,,,,,,,,,,,,,,,,,,,,,,,,,,,,,,,,,,,,,,,,,,,,,,,,,,,,,,,,,,,
0,89,89,91,1,,6010601cc932aa3661b459ec,62bbfb6da391ce9d357778e6,2022-06-29_10h13.10.892,Colour_Asymmetry_Pilot,2022.1.3,Win32,60.07088364,62bbe60bf3d75ef465d3e404,,,,,,,,,,,,,,,,,,,,,,,,,,,,,,,,,,,,,,,,,,,,,,,,,,,,,,,,,,,,,,,,,,,,,,,,,,,,,,,,,,,,,,,,,,,,,,,,,,,,,,,,,,,,,,,,,,,,,,,,,,,,,,,,,,,,,,,,,,,,,,,,,,,,,,,,,,,,,
0,90,90,86,1,,6010601cc932aa3661b459ec,62bbfb6da391ce9d357778e6,2022-06-29_10h13.10.892,Colour_Asymmetry_Pilot,2022.1.3,Win32,60.07088364,62bbe60bf3d75ef465d3e404,,,,,,,,,,,,,,,,,,,,,,,,,,,,,,,,,,,,,,,,,,,,,,,,,,,,,,,,,,,,,,,,,,,,,,,,,,,,,,,,,,,,,,,,,,,,,,,,,,,,,,,,,,,,,,,,,,,,,,,,,,,,,,,,,,,,,,,,,,,,,,,,,,,,,,,,,,,,,
0,91,91,0,1,,6010601cc932aa3661b459ec,62bbfb6da391ce9d357778e6,2022-06-29_10h13.10.892,Colour_Asymmetry_Pilot,2022.1.3,Win32,60.07088364,62bbe60bf3d75ef465d3e404,,,,,,,,,,,,,,,,,,,,,,,,,,,,,,,,,,,,,,,,,,,,,,,,,,,,,,,,,,,,,,,,,,,,,,,,,,,,,,,,,,,,,,,,,,,,,,,,,,,,,,,,,,,,,,,,,,,,,,,,,,,,,,,,,,,,,,,,,,,,,,,,,,,,,,,,,,,,,
0,92,92,26,1,,6010601cc932aa3661b459ec,62bbfb6da391ce9d357778e6,2022-06-29_10h13.10.892,Colour_Asymmetry_Pilot,2022.1.3,Win32,60.07088364,62bbe60bf3d75ef465d3e404,,,,,,,,,,,,,,,,,,,,,,,,,,,,,,,,,,,,,,,,,,,,,,,,,,,,,,,,,,,,,,,,,,,,,,,,,,,,,,,,,,,,,,,,,,,,,,,,,,,,,,,,,,,,,,,,,,,,,,,,,,,,,,,,,,,,,,,,,,,,,,,,,,,,,,,,,,,,,
,,,,,,6010601cc932aa3661b459ec,62bbfb6da391ce9d357778e6,2022-06-29_10h13.10.892,Colour_Asymmetry_Pilot,2022.1.3,Win32,60.07088364,62bbe60bf3d75ef465d3e404,0,0,0,125,1,threefour,,,,,,,,,,,,,,,,,,,,,,,,,,,,,,,,,,,,,,,,,,,,,,,,,,,,,,,,,,,,,,,,,,,,,,,,,,,,,,,,,,,,,,,,,,,,,,,,,,,,,,,,,,,,,,,,,,,,,,,,,,,,,,,,,,,,,,,,,,,,,,,,,,,,,,,
,,,,,,6010601cc932aa3661b459ec,62bbfb6da391ce9d357778e6,2022-06-29_10h13.10.892,Colour_Asymmetry_Pilot,2022.1.3,Win32,60.07088364,62bbe60bf3d75ef465d3e404,0,1,1,44,1,threeone,,,,,,,,,,,,,,,,,,,,,,,,,,,,,,,,,,,,,,,,,,,,,,,,,,,,,,,,,,,,,,,,,,,,,,,,,,,,,,,,,,,,,,,,,,,,,,,,,,,,,,,,,,,,,,,,,,,,,,,,,,,,,,,,,,,,,,,,,,,,,,,,,,,,,,,
,,,,,,6010601cc932aa3661b459ec,62bbfb6da391ce9d357778e6,2022-06-29_10h13.10.892,Colour_Asymmetry_Pilot,2022.1.3,Win32,60.07088364,62bbe60bf3d75ef465d3e404,0,2,2,51,1,twofour,,,,,,,,,,,,,,,,,,,,,,,,,,,,,,,,,,,,,,,,,,,,,,,,,,,,,,,,,,,,,,,,,,,,,,,,,,,,,,,,,,,,,,,,,,,,,,,,,,,,,,,,,,,,,,,,,,,,,,,,,,,,,,,,,,,,,,,,,,,,,,,,,,,,,,,
,,,,,,6010601cc932aa3661b459ec,62bbfb6da391ce9d357778e6,2022-06-29_10h13.10.892,Colour_Asymmetry_Pilot,2022.1.3,Win32,60.07088364,62bbe60bf3d75ef465d3e404,0,3,3,142,1,fourtwo,,,,,,,,,,,,,,,,,,,,,,,,,,,,,,,,,,,,,,,,,,,,,,,,,,,,,,,,,,,,,,,,,,,,,,,,,,,,,,,,,,,,,,,,,,,,,,,,,,,,,,,,,,,,,,,,,,,,,,,,,,,,,,,,,,,,,,,,,,,,,,,,,,,,,,,
,,,,,,6010601cc932aa3661b459ec,62bbfb6da391ce9d357778e6,2022-06-29_10h13.10.892,Colour_Asymmetry_Pilot,2022.1.3,Win32,60.07088364,62bbe60bf3d75ef465d3e404,0,4,4,148,1,threeone,,,,,,,,,,,,,,,,,,,,,,,,,,,,,,,,,,,,,,,,,,,,,,,,,,,,,,,,,,,,,,,,,,,,,,,,,,,,,,,,,,,,,,,,,,,,,,,,,,,,,,,,,,,,,,,,,,,,,,,,,,,,,,,,,,,,,,,,,,,,,,,,,,,,,,,
,,,,,,6010601cc932aa3661b459ec,62bbfb6da391ce9d357778e6,2022-06-29_10h13.10.892,Colour_Asymmetry_Pilot,2022.1.3,Win32,60.07088364,62bbe60bf3d75ef465d3e404,0,5,5,128,1,onetwo,,,,,,,,,,,,,,,,,,,,,,,,,,,,,,,,,,,,,,,,,,,,,,,,,,,,,,,,,,,,,,,,,,,,,,,,,,,,,,,,,,,,,,,,,,,,,,,,,,,,,,,,,,,,,,,,,,,,,,,,,,,,,,,,,,,,,,,,,,,,,,,,,,,,,,,
,,,,,,6010601cc932aa3661b459ec,62bbfb6da391ce9d357778e6,2022-06-29_10h13.10.892,Colour_Asymmetry_Pilot,2022.1.3,Win32,60.07088364,62bbe60bf3d75ef465d3e404,0,6,6,152,1,onetwo,,,,,,,,,,,,,,,,,,,,,,,,,,,,,,,,,,,,,,,,,,,,,,,,,,,,,,,,,,,,,,,,,,,,,,,,,,,,,,,,,,,,,,,,,,,,,,,,,,,,,,,,,,,,,,,,,,,,,,,,,,,,,,,,,,,,,,,,,,,,,,,,,,,,,,,
,,,,,,6010601cc932aa3661b459ec,62bbfb6da391ce9d357778e6,2022-06-29_10h13.10.892,Colour_Asymmetry_Pilot,2022.1.3,Win32,60.07088364,62bbe60bf3d75ef465d3e404,0,7,7,150,1,fourtwo,,,,,,,,,,,,,,,,,,,,,,,,,,,,,,,,,,,,,,,,,,,,,,,,,,,,,,,,,,,,,,,,,,,,,,,,,,,,,,,,,,,,,,,,,,,,,,,,,,,,,,,,,,,,,,,,,,,,,,,,,,,,,,,,,,,,,,,,,,,,,,,,,,,,,,,
,,,,,,6010601cc932aa3661b459ec,62bbfb6da391ce9d357778e6,2022-06-29_10h13.10.892,Colour_Asymmetry_Pilot,2022.1.3,Win32,60.07088364,62bbe60bf3d75ef465d3e404,0,8,8,141,1,threefour,,,,,,,,,,,,,,,,,,,,,,,,,,,,,,,,,,,,,,,,,,,,,,,,,,,,,,,,,,,,,,,,,,,,,,,,,,,,,,,,,,,,,,,,,,,,,,,,,,,,,,,,,,,,,,,,,,,,,,,,,,,,,,,,,,,,,,,,,,,,,,,,,,,,,,,
,,,,,,6010601cc932aa3661b459ec,62bbfb6da391ce9d357778e6,2022-06-29_10h13.10.892,Colour_Asymmetry_Pilot,2022.1.3,Win32,60.07088364,62bbe60bf3d75ef465d3e404,0,9,9,33,1,onethree,,,,,,,,,,,,,,,,,,,,,,,,,,,,,,,,,,,,,,,,,,,,,,,,,,,,,,,,,,,,,,,,,,,,,,,,,,,,,,,,,,,,,,,,,,,,,,,,,,,,,,,,,,,,,,,,,,,,,,,,,,,,,,,,,,,,,,,,,,,,,,,,,,,,,,,
,,,,,,6010601cc932aa3661b459ec,62bbfb6da391ce9d357778e6,2022-06-29_10h13.10.892,Colour_Asymmetry_Pilot,2022.1.3,Win32,60.07088364,62bbe60bf3d75ef465d3e404,0,10,10,149,1,threefour,,,,,,,,,,,,,,,,,,,,,,,,,,,,,,,,,,,,,,,,,,,,,,,,,,,,,,,,,,,,,,,,,,,,,,,,,,,,,,,,,,,,,,,,,,,,,,,,,,,,,,,,,,,,,,,,,,,,,,,,,,,,,,,,,,,,,,,,,,,,,,,,,,,,,,,
,,,,,,6010601cc932aa3661b459ec,62bbfb6da391ce9d357778e6,2022-06-29_10h13.10.892,Colour_Asymmetry_Pilot,2022.1.3,Win32,60.07088364,62bbe60bf3d75ef465d3e404,0,11,11,143,1,fourthree,,,,,,,,,,,,,,,,,,,,,,,,,,,,,,,,,,,,,,,,,,,,,,,,,,,,,,,,,,,,,,,,,,,,,,,,,,,,,,,,,,,,,,,,,,,,,,,,,,,,,,,,,,,,,,,,,,,,,,,,,,,,,,,,,,,,,,,,,,,,,,,,,,,,,,,
,,,,,,6010601cc932aa3661b459ec,62bbfb6da391ce9d357778e6,2022-06-29_10h13.10.892,Colour_Asymmetry_Pilot,2022.1.3,Win32,60.07088364,62bbe60bf3d75ef465d3e404,0,12,12,160,1,onetwo,,,,,,,,,,,,,,,,,,,,,,,,,,,,,,,,,,,,,,,,,,,,,,,,,,,,,,,,,,,,,,,,,,,,,,,,,,,,,,,,,,,,,,,,,,,,,,,,,,,,,,,,,,,,,,,,,,,,,,,,,,,,,,,,,,,,,,,,,,,,,,,,,,,,,,,
,,,,,,6010601cc932aa3661b459ec,62bbfb6da391ce9d357778e6,2022-06-29_10h13.10.892,Colour_Asymmetry_Pilot,2022.1.3,Win32,60.07088364,62bbe60bf3d75ef465d3e404,0,13,13,11,1,twofour,,,,,,,,,,,,,,,,,,,,,,,,,,,,,,,,,,,,,,,,,,,,,,,,,,,,,,,,,,,,,,,,,,,,,,,,,,,,,,,,,,,,,,,,,,,,,,,,,,,,,,,,,,,,,,,,,,,,,,,,,,,,,,,,,,,,,,,,,,,,,,,,,,,,,,,
,,,,,,6010601cc932aa3661b459ec,62bbfb6da391ce9d357778e6,2022-06-29_10h13.10.892,Colour_Asymmetry_Pilot,2022.1.3,Win32,60.07088364,62bbe60bf3d75ef465d3e404,0,14,14,119,1,fourthree,,,,,,,,,,,,,,,,,,,,,,,,,,,,,,,,,,,,,,,,,,,,,,,,,,,,,,,,,,,,,,,,,,,,,,,,,,,,,,,,,,,,,,,,,,,,,,,,,,,,,,,,,,,,,,,,,,,,,,,,,,,,,,,,,,,,,,,,,,,,,,,,,,,,,,,
,,,,,,6010601cc932aa3661b459ec,62bbfb6da391ce9d357778e6,2022-06-29_10h13.10.892,Colour_Asymmetry_Pilot,2022.1.3,Win32,60.07088364,62bbe60bf3d75ef465d3e404,0,15,15,111,1,fourthree,,,,,,,,,,,,,,,,,,,,,,,,,,,,,,,,,,,,,,,,,,,,,,,,,,,,,,,,,,,,,,,,,,,,,,,,,,,,,,,,,,,,,,,,,,,,,,,,,,,,,,,,,,,,,,,,,,,,,,,,,,,,,,,,,,,,,,,,,,,,,,,,,,,,,,,
,,,,,,6010601cc932aa3661b459ec,62bbfb6da391ce9d357778e6,2022-06-29_10h13.10.892,Colour_Asymmetry_Pilot,2022.1.3,Win32,60.07088364,62bbe60bf3d75ef465d3e404,0,16,16,62,1,fourtwo,,,,,,,,,,,,,,,,,,,,,,,,,,,,,,,,,,,,,,,,,,,,,,,,,,,,,,,,,,,,,,,,,,,,,,,,,,,,,,,,,,,,,,,,,,,,,,,,,,,,,,,,,,,,,,,,,,,,,,,,,,,,,,,,,,,,,,,,,,,,,,,,,,,,,,,
,,,,,,6010601cc932aa3661b459ec,62bbfb6da391ce9d357778e6,2022-06-29_10h13.10.892,Colour_Asymmetry_Pilot,2022.1.3,Win32,60.07088364,62bbe60bf3d75ef465d3e404,0,17,17,88,1,onetwo,,,,,,,,,,,,,,,,,,,,,,,,,,,,,,,,,,,,,,,,,,,,,,,,,,,,,,,,,,,,,,,,,,,,,,,,,,,,,,,,,,,,,,,,,,,,,,,,,,,,,,,,,,,,,,,,,,,,,,,,,,,,,,,,,,,,,,,,,,,,,,,,,,,,,,,
,,,,,,6010601cc932aa3661b459ec,62bbfb6da391ce9d357778e6,2022-06-29_10h13.10.892,Colour_Asymmetry_Pilot,2022.1.3,Win32,60.07088364,62bbe60bf3d75ef465d3e404,0,18,18,159,1,fourthree,,,,,,,,,,,,,,,,,,,,,,,,,,,,,,,,,,,,,,,,,,,,,,,,,,,,,,,,,,,,,,,,,,,,,,,,,,,,,,,,,,,,,,,,,,,,,,,,,,,,,,,,,,,,,,,,,,,,,,,,,,,,,,,,,,,,,,,,,,,,,,,,,,,,,,,
,,,,,,6010601cc932aa3661b459ec,62bbfb6da391ce9d357778e6,2022-06-29_10h13.10.892,Colour_Asymmetry_Pilot,2022.1.3,Win32,60.07088364,62bbe60bf3d75ef465d3e404,0,19,19,37,1,threefour,,,,,,,,,,,,,,,,,,,,,,,,,,,,,,,,,,,,,,,,,,,,,,,,,,,,,,,,,,,,,,,,,,,,,,,,,,,,,,,,,,,,,,,,,,,,,,,,,,,,,,,,,,,,,,,,,,,,,,,,,,,,,,,,,,,,,,,,,,,,,,,,,,,,,,,
,,,,,,6010601cc932aa3661b459ec,62bbfb6da391ce9d357778e6,2022-06-29_10h13.10.892,Colour_Asymmetry_Pilot,2022.1.3,Win32,60.07088364,62bbe60bf3d75ef465d3e404,0,20,20,59,1,twofour,,,,,,,,,,,,,,,,,,,,,,,,,,,,,,,,,,,,,,,,,,,,,,,,,,,,,,,,,,,,,,,,,,,,,,,,,,,,,,,,,,,,,,,,,,,,,,,,,,,,,,,,,,,,,,,,,,,,,,,,,,,,,,,,,,,,,,,,,,,,,,,,,,,,,,,
,,,,,,6010601cc932aa3661b459ec,62bbfb6da391ce9d357778e6,2022-06-29_10h13.10.892,Colour_Asymmetry_Pilot,2022.1.3,Win32,60.07088364,62bbe60bf3d75ef465d3e404,0,21,21,153,1,onethree,,,,,,,,,,,,,,,,,,,,,,,,,,,,,,,,,,,,,,,,,,,,,,,,,,,,,,,,,,,,,,,,,,,,,,,,,,,,,,,,,,,,,,,,,,,,,,,,,,,,,,,,,,,,,,,,,,,,,,,,,,,,,,,,,,,,,,,,,,,,,,,,,,,,,,,
,,,,,,6010601cc932aa3661b459ec,62bbfb6da391ce9d357778e6,2022-06-29_10h13.10.892,Colour_Asymmetry_Pilot,2022.1.3,Win32,60.07088364,62bbe60bf3d75ef465d3e404,0,22,22,106,1,twoone,,,,,,,,,,,,,,,,,,,,,,,,,,,,,,,,,,,,,,,,,,,,,,,,,,,,,,,,,,,,,,,,,,,,,,,,,,,,,,,,,,,,,,,,,,,,,,,,,,,,,,,,,,,,,,,,,,,,,,,,,,,,,,,,,,,,,,,,,,,,,,,,,,,,,,,
,,,,,,6010601cc932aa3661b459ec,62bbfb6da391ce9d357778e6,2022-06-29_10h13.10.892,Colour_Asymmetry_Pilot,2022.1.3,Win32,60.07088364,62bbe60bf3d75ef465d3e404,0,23,23,132,1,threeone,,,,,,,,,,,,,,,,,,,,,,,,,,,,,,,,,,,,,,,,,,,,,,,,,,,,,,,,,,,,,,,,,,,,,,,,,,,,,,,,,,,,,,,,,,,,,,,,,,,,,,,,,,,,,,,,,,,,,,,,,,,,,,,,,,,,,,,,,,,,,,,,,,,,,,,
,,,,,,6010601cc932aa3661b459ec,62bbfb6da391ce9d357778e6,2022-06-29_10h13.10.892,Colour_Asymmetry_Pilot,2022.1.3,Win32,60.07088364,62bbe60bf3d75ef465d3e404,0,24,24,81,1,onethree,,,,,,,,,,,,,,,,,,,,,,,,,,,,,,,,,,,,,,,,,,,,,,,,,,,,,,,,,,,,,,,,,,,,,,,,,,,,,,,,,,,,,,,,,,,,,,,,,,,,,,,,,,,,,,,,,,,,,,,,,,,,,,,,,,,,,,,,,,,,,,,,,,,,,,,
,,,,,,6010601cc932aa3661b459ec,62bbfb6da391ce9d357778e6,2022-06-29_10h13.10.892,Colour_Asymmetry_Pilot,2022.1.3,Win32,60.07088364,62bbe60bf3d75ef465d3e404,0,25,25,42,1,twoone,,,,,,,,,,,,,,,,,,,,,,,,,,,,,,,,,,,,,,,,,,,,,,,,,,,,,,,,,,,,,,,,,,,,,,,,,,,,,,,,,,,,,,,,,,,,,,,,,,,,,,,,,,,,,,,,,,,,,,,,,,,,,,,,,,,,,,,,,,,,,,,,,,,,,,,
,,,,,,6010601cc932aa3661b459ec,62bbfb6da391ce9d357778e6,2022-06-29_10h13.10.892,Colour_Asymmetry_Pilot,2022.1.3,Win32,60.07088364,62bbe60bf3d75ef465d3e404,0,26,26,12,1,threeone,,,,,,,,,,,,,,,,,,,,,,,,,,,,,,,,,,,,,,,,,,,,,,,,,,,,,,,,,,,,,,,,,,,,,,,,,,,,,,,,,,,,,,,,,,,,,,,,,,,,,,,,,,,,,,,,,,,,,,,,,,,,,,,,,,,,,,,,,,,,,,,,,,,,,,,
,,,,,,6010601cc932aa3661b459ec,62bbfb6da391ce9d357778e6,2022-06-29_10h13.10.892,Colour_Asymmetry_Pilot,2022.1.3,Win32,60.07088364,62bbe60bf3d75ef465d3e404,0,27,27,64,1,onetwo,,,,,,,,,,,,,,,,,,,,,,,,,,,,,,,,,,,,,,,,,,,,,,,,,,,,,,,,,,,,,,,,,,,,,,,,,,,,,,,,,,,,,,,,,,,,,,,,,,,,,,,,,,,,,,,,,,,,,,,,,,,,,,,,,,,,,,,,,,,,,,,,,,,,,,,
,,,,,,6010601cc932aa3661b459ec,62bbfb6da391ce9d357778e6,2022-06-29_10h13.10.892,Colour_Asymmetry_Pilot,2022.1.3,Win32,60.07088364,62bbe60bf3d75ef465d3e404,0,28,28,60,1,threeone,,,,,,,,,,,,,,,,,,,,,,,,,,,,,,,,,,,,,,,,,,,,,,,,,,,,,,,,,,,,,,,,,,,,,,,,,,,,,,,,,,,,,,,,,,,,,,,,,,,,,,,,,,,,,,,,,,,,,,,,,,,,,,,,,,,,,,,,,,,,,,,,,,,,,,,
,,,,,,6010601cc932aa3661b459ec,62bbfb6da391ce9d357778e6,2022-06-29_10h13.10.892,Colour_Asymmetry_Pilot,2022.1.3,Win32,60.07088364,62bbe60bf3d75ef465d3e404,0,29,29,80,1,onetwo,,,,,,,,,,,,,,,,,,,,,,,,,,,,,,,,,,,,,,,,,,,,,,,,,,,,,,,,,,,,,,,,,,,,,,,,,,,,,,,,,,,,,,,,,,,,,,,,,,,,,,,,,,,,,,,,,,,,,,,,,,,,,,,,,,,,,,,,,,,,,,,,,,,,,,,
,,,,,,6010601cc932aa3661b459ec,62bbfb6da391ce9d357778e6,2022-06-29_10h13.10.892,Colour_Asymmetry_Pilot,2022.1.3,Win32,60.07088364,62bbe60bf3d75ef465d3e404,0,30,30,116,1,threeone,,,,,,,,,,,,,,,,,,,,,,,,,,,,,,,,,,,,,,,,,,,,,,,,,,,,,,,,,,,,,,,,,,,,,,,,,,,,,,,,,,,,,,,,,,,,,,,,,,,,,,,,,,,,,,,,,,,,,,,,,,,,,,,,,,,,,,,,,,,,,,,,,,,,,,,
,,,,,,6010601cc932aa3661b459ec,62bbfb6da391ce9d357778e6,2022-06-29_10h13.10.892,Colour_Asymmetry_Pilot,2022.1.3,Win32,60.07088364,62bbe60bf3d75ef465d3e404,0,31,31,123,1,twofour,,,,,,,,,,,,,,,,,,,,,,,,,,,,,,,,,,,,,,,,,,,,,,,,,,,,,,,,,,,,,,,,,,,,,,,,,,,,,,,,,,,,,,,,,,,,,,,,,,,,,,,,,,,,,,,,,,,,,,,,,,,,,,,,,,,,,,,,,,,,,,,,,,,,,,,
,,,,,,6010601cc932aa3661b459ec,62bbfb6da391ce9d357778e6,2022-06-29_10h13.10.892,Colour_Asymmetry_Pilot,2022.1.3,Win32,60.07088364,62bbe60bf3d75ef465d3e404,0,32,32,158,1,fourtwo,,,,,,,,,,,,,,,,,,,,,,,,,,,,,,,,,,,,,,,,,,,,,,,,,,,,,,,,,,,,,,,,,,,,,,,,,,,,,,,,,,,,,,,,,,,,,,,,,,,,,,,,,,,,,,,,,,,,,,,,,,,,,,,,,,,,,,,,,,,,,,,,,,,,,,,
,,,,,,6010601cc932aa3661b459ec,62bbfb6da391ce9d357778e6,2022-06-29_10h13.10.892,Colour_Asymmetry_Pilot,2022.1.3,Win32,60.07088364,62bbe60bf3d75ef465d3e404,0,33,33,74,1,twoone,,,,,,,,,,,,,,,,,,,,,,,,,,,,,,,,,,,,,,,,,,,,,,,,,,,,,,,,,,,,,,,,,,,,,,,,,,,,,,,,,,,,,,,,,,,,,,,,,,,,,,,,,,,,,,,,,,,,,,,,,,,,,,,,,,,,,,,,,,,,,,,,,,,,,,,
,,,,,,6010601cc932aa3661b459ec,62bbfb6da391ce9d357778e6,2022-06-29_10h13.10.892,Colour_Asymmetry_Pilot,2022.1.3,Win32,60.07088364,62bbe60bf3d75ef465d3e404,0,34,34,102,1,fourtwo,,,,,,,,,,,,,,,,,,,,,,,,,,,,,,,,,,,,,,,,,,,,,,,,,,,,,,,,,,,,,,,,,,,,,,,,,,,,,,,,,,,,,,,,,,,,,,,,,,,,,,,,,,,,,,,,,,,,,,,,,,,,,,,,,,,,,,,,,,,,,,,,,,,,,,,
,,,,,,6010601cc932aa3661b459ec,62bbfb6da391ce9d357778e6,2022-06-29_10h13.10.892,Colour_Asymmetry_Pilot,2022.1.3,Win32,60.07088364,62bbe60bf3d75ef465d3e404,0,35,35,36,1,threeone,,,,,,,,,,,,,,,,,,,,,,,,,,,,,,,,,,,,,,,,,,,,,,,,,,,,,,,,,,,,,,,,,,,,,,,,,,,,,,,,,,,,,,,,,,,,,,,,,,,,,,,,,,,,,,,,,,,,,,,,,,,,,,,,,,,,,,,,,,,,,,,,,,,,,,,
,,,,,,6010601cc932aa3661b459ec,62bbfb6da391ce9d357778e6,2022-06-29_10h13.10.892,Colour_Asymmetry_Pilot,2022.1.3,Win32,60.07088364,62bbe60bf3d75ef465d3e404,0,36,36,75,1,twofour,,,,,,,,,,,,,,,,,,,,,,,,,,,,,,,,,,,,,,,,,,,,,,,,,,,,,,,,,,,,,,,,,,,,,,,,,,,,,,,,,,,,,,,,,,,,,,,,,,,,,,,,,,,,,,,,,,,,,,,,,,,,,,,,,,,,,,,,,,,,,,,,,,,,,,,
,,,,,,6010601cc932aa3661b459ec,62bbfb6da391ce9d357778e6,2022-06-29_10h13.10.892,Colour_Asymmetry_Pilot,2022.1.3,Win32,60.07088364,62bbe60bf3d75ef465d3e404,0,37,37,136,1,onetwo,,,,,,,,,,,,,,,,,,,,,,,,,,,,,,,,,,,,,,,,,,,,,,,,,,,,,,,,,,,,,,,,,,,,,,,,,,,,,,,,,,,,,,,,,,,,,,,,,,,,,,,,,,,,,,,,,,,,,,,,,,,,,,,,,,,,,,,,,,,,,,,,,,,,,,,
,,,,,,6010601cc932aa3661b459ec,62bbfb6da391ce9d357778e6,2022-06-29_10h13.10.892,Colour_Asymmetry_Pilot,2022.1.3,Win32,60.07088364,62bbe60bf3d75ef465d3e404,0,38,38,22,1,fourtwo,,,,,,,,,,,,,,,,,,,,,,,,,,,,,,,,,,,,,,,,,,,,,,,,,,,,,,,,,,,,,,,,,,,,,,,,,,,,,,,,,,,,,,,,,,,,,,,,,,,,,,,,,,,,,,,,,,,,,,,,,,,,,,,,,,,,,,,,,,,,,,,,,,,,,,,
,,,,,,6010601cc932aa3661b459ec,62bbfb6da391ce9d357778e6,2022-06-29_10h13.10.892,Colour_Asymmetry_Pilot,2022.1.3,Win32,60.07088364,62bbe60bf3d75ef465d3e404,0,39,39,26,1,twoone,,,,,,,,,,,,,,,,,,,,,,,,,,,,,,,,,,,,,,,,,,,,,,,,,,,,,,,,,,,,,,,,,,,,,,,,,,,,,,,,,,,,,,,,,,,,,,,,,,,,,,,,,,,,,,,,,,,,,,,,,,,,,,,,,,,,,,,,,,,,,,,,,,,,,,,
,,,,,,6010601cc932aa3661b459ec,62bbfb6da391ce9d357778e6,2022-06-29_10h13.10.892,Colour_Asymmetry_Pilot,2022.1.3,Win32,60.07088364,62bbe60bf3d75ef465d3e404,0,40,40,39,1,fourthree,,,,,,,,,,,,,,,,,,,,,,,,,,,,,,,,,,,,,,,,,,,,,,,,,,,,,,,,,,,,,,,,,,,,,,,,,,,,,,,,,,,,,,,,,,,,,,,,,,,,,,,,,,,,,,,,,,,,,,,,,,,,,,,,,,,,,,,,,,,,,,,,,,,,,,,
,,,,,,6010601cc932aa3661b459ec,62bbfb6da391ce9d357778e6,2022-06-29_10h13.10.892,Colour_Asymmetry_Pilot,2022.1.3,Win32,60.07088364,62bbe60bf3d75ef465d3e404,0,41,41,58,1,twoone,,,,,,,,,,,,,,,,,,,,,,,,,,,,,,,,,,,,,,,,,,,,,,,,,,,,,,,,,,,,,,,,,,,,,,,,,,,,,,,,,,,,,,,,,,,,,,,,,,,,,,,,,,,,,,,,,,,,,,,,,,,,,,,,,,,,,,,,,,,,,,,,,,,,,,,
,,,,,,6010601cc932aa3661b459ec,62bbfb6da391ce9d357778e6,2022-06-29_10h13.10.892,Colour_Asymmetry_Pilot,2022.1.3,Win32,60.07088364,62bbe60bf3d75ef465d3e404,0,42,42,61,1,threefour,,,,,,,,,,,,,,,,,,,,,,,,,,,,,,,,,,,,,,,,,,,,,,,,,,,,,,,,,,,,,,,,,,,,,,,,,,,,,,,,,,,,,,,,,,,,,,,,,,,,,,,,,,,,,,,,,,,,,,,,,,,,,,,,,,,,,,,,,,,,,,,,,,,,,,,
,,,,,,6010601cc932aa3661b459ec,62bbfb6da391ce9d357778e6,2022-06-29_10h13.10.892,Colour_Asymmetry_Pilot,2022.1.3,Win32,60.07088364,62bbe60bf3d75ef465d3e404,0,43,43,131,1,twofour,,,,,,,,,,,,,,,,,,,,,,,,,,,,,,,,,,,,,,,,,,,,,,,,,,,,,,,,,,,,,,,,,,,,,,,,,,,,,,,,,,,,,,,,,,,,,,,,,,,,,,,,,,,,,,,,,,,,,,,,,,,,,,,,,,,,,,,,,,,,,,,,,,,,,,,
,,,,,,6010601cc932aa3661b459ec,62bbfb6da391ce9d357778e6,2022-06-29_10h13.10.892,Colour_Asymmetry_Pilot,2022.1.3,Win32,60.07088364,62bbe60bf3d75ef465d3e404,0,44,44,87,1,fourthree,,,,,,,,,,,,,,,,,,,,,,,,,,,,,,,,,,,,,,,,,,,,,,,,,,,,,,,,,,,,,,,,,,,,,,,,,,,,,,,,,,,,,,,,,,,,,,,,,,,,,,,,,,,,,,,,,,,,,,,,,,,,,,,,,,,,,,,,,,,,,,,,,,,,,,,
,,,,,,6010601cc932aa3661b459ec,62bbfb6da391ce9d357778e6,2022-06-29_10h13.10.892,Colour_Asymmetry_Pilot,2022.1.3,Win32,60.07088364,62bbe60bf3d75ef465d3e404,0,45,45,34,1,twoone,,,,,,,,,,,,,,,,,,,,,,,,,,,,,,,,,,,,,,,,,,,,,,,,,,,,,,,,,,,,,,,,,,,,,,,,,,,,,,,,,,,,,,,,,,,,,,,,,,,,,,,,,,,,,,,,,,,,,,,,,,,,,,,,,,,,,,,,,,,,,,,,,,,,,,,
,,,,,,6010601cc932aa3661b459ec,62bbfb6da391ce9d357778e6,2022-06-29_10h13.10.892,Colour_Asymmetry_Pilot,2022.1.3,Win32,60.07088364,62bbe60bf3d75ef465d3e404,0,46,46,13,1,threefour,,,,,,,,,,,,,,,,,,,,,,,,,,,,,,,,,,,,,,,,,,,,,,,,,,,,,,,,,,,,,,,,,,,,,,,,,,,,,,,,,,,,,,,,,,,,,,,,,,,,,,,,,,,,,,,,,,,,,,,,,,,,,,,,,,,,,,,,,,,,,,,,,,,,,,,
,,,,,,6010601cc932aa3661b459ec,62bbfb6da391ce9d357778e6,2022-06-29_10h13.10.892,Colour_Asymmetry_Pilot,2022.1.3,Win32,60.07088364,62bbe60bf3d75ef465d3e404,0,47,47,49,1,onethree,,,,,,,,,,,,,,,,,,,,,,,,,,,,,,,,,,,,,,,,,,,,,,,,,,,,,,,,,,,,,,,,,,,,,,,,,,,,,,,,,,,,,,,,,,,,,,,,,,,,,,,,,,,,,,,,,,,,,,,,,,,,,,,,,,,,,,,,,,,,,,,,,,,,,,,
,,,,,,6010601cc932aa3661b459ec,62bbfb6da391ce9d357778e6,2022-06-29_10h13.10.892,Colour_Asymmetry_Pilot,2022.1.3,Win32,60.07088364,62bbe60bf3d75ef465d3e404,0,48,48,31,1,fourthree,,,,,,,,,,,,,,,,,,,,,,,,,,,,,,,,,,,,,,,,,,,,,,,,,,,,,,,,,,,,,,,,,,,,,,,,,,,,,,,,,,,,,,,,,,,,,,,,,,,,,,,,,,,,,,,,,,,,,,,,,,,,,,,,,,,,,,,,,,,,,,,,,,,,,,,
,,,,,,6010601cc932aa3661b459ec,62bbfb6da391ce9d357778e6,2022-06-29_10h13.10.892,Colour_Asymmetry_Pilot,2022.1.3,Win32,60.07088364,62bbe60bf3d75ef465d3e404,0,49,49,15,1,fourthree,,,,,,,,,,,,,,,,,,,,,,,,,,,,,,,,,,,,,,,,,,,,,,,,,,,,,,,,,,,,,,,,,,,,,,,,,,,,,,,,,,,,,,,,,,,,,,,,,,,,,,,,,,,,,,,,,,,,,,,,,,,,,,,,,,,,,,,,,,,,,,,,,,,,,,,
,,,,,,6010601cc932aa3661b459ec,62bbfb6da391ce9d357778e6,2022-06-29_10h13.10.892,Colour_Asymmetry_Pilot,2022.1.3,Win32,60.07088364,62bbe60bf3d75ef465d3e404,0,50,50,156,1,threeone,,,,,,,,,,,,,,,,,,,,,,,,,,,,,,,,,,,,,,,,,,,,,,,,,,,,,,,,,,,,,,,,,,,,,,,,,,,,,,,,,,,,,,,,,,,,,,,,,,,,,,,,,,,,,,,,,,,,,,,,,,,,,,,,,,,,,,,,,,,,,,,,,,,,,,,
,,,,,,6010601cc932aa3661b459ec,62bbfb6da391ce9d357778e6,2022-06-29_10h13.10.892,Colour_Asymmetry_Pilot,2022.1.3,Win32,60.07088364,62bbe60bf3d75ef465d3e404,0,51,51,50,1,twoone,,,,,,,,,,,,,,,,,,,,,,,,,,,,,,,,,,,,,,,,,,,,,,,,,,,,,,,,,,,,,,,,,,,,,,,,,,,,,,,,,,,,,,,,,,,,,,,,,,,,,,,,,,,,,,,,,,,,,,,,,,,,,,,,,,,,,,,,,,,,,,,,,,,,,,,
,,,,,,6010601cc932aa3661b459ec,62bbfb6da391ce9d357778e6,2022-06-29_10h13.10.892,Colour_Asymmetry_Pilot,2022.1.3,Win32,60.07088364,62bbe60bf3d75ef465d3e404,0,52,52,146,1,twoone,,,,,,,,,,,,,,,,,,,,,,,,,,,,,,,,,,,,,,,,,,,,,,,,,,,,,,,,,,,,,,,,,,,,,,,,,,,,,,,,,,,,,,,,,,,,,,,,,,,,,,,,,,,,,,,,,,,,,,,,,,,,,,,,,,,,,,,,,,,,,,,,,,,,,,,
,,,,,,6010601cc932aa3661b459ec,62bbfb6da391ce9d357778e6,2022-06-29_10h13.10.892,Colour_Asymmetry_Pilot,2022.1.3,Win32,60.07088364,62bbe60bf3d75ef465d3e404,0,53,53,10,1,twoone,,,,,,,,,,,,,,,,,,,,,,,,,,,,,,,,,,,,,,,,,,,,,,,,,,,,,,,,,,,,,,,,,,,,,,,,,,,,,,,,,,,,,,,,,,,,,,,,,,,,,,,,,,,,,,,,,,,,,,,,,,,,,,,,,,,,,,,,,,,,,,,,,,,,,,,
,,,,,,6010601cc932aa3661b459ec,62bbfb6da391ce9d357778e6,2022-06-29_10h13.10.892,Colour_Asymmetry_Pilot,2022.1.3,Win32,60.07088364,62bbe60bf3d75ef465d3e404,0,54,54,144,1,onetwo,,,,,,,,,,,,,,,,,,,,,,,,,,,,,,,,,,,,,,,,,,,,,,,,,,,,,,,,,,,,,,,,,,,,,,,,,,,,,,,,,,,,,,,,,,,,,,,,,,,,,,,,,,,,,,,,,,,,,,,,,,,,,,,,,,,,,,,,,,,,,,,,,,,,,,,
,,,,,,6010601cc932aa3661b459ec,62bbfb6da391ce9d357778e6,2022-06-29_10h13.10.892,Colour_Asymmetry_Pilot,2022.1.3,Win32,60.07088364,62bbe60bf3d75ef465d3e404,0,55,55,151,1,fourthree,,,,,,,,,,,,,,,,,,,,,,,,,,,,,,,,,,,,,,,,,,,,,,,,,,,,,,,,,,,,,,,,,,,,,,,,,,,,,,,,,,,,,,,,,,,,,,,,,,,,,,,,,,,,,,,,,,,,,,,,,,,,,,,,,,,,,,,,,,,,,,,,,,,,,,,
,,,,,,6010601cc932aa3661b459ec,62bbfb6da391ce9d357778e6,2022-06-29_10h13.10.892,Colour_Asymmetry_Pilot,2022.1.3,Win32,60.07088364,62bbe60bf3d75ef465d3e404,0,56,56,52,1,threeone,,,,,,,,,,,,,,,,,,,,,,,,,,,,,,,,,,,,,,,,,,,,,,,,,,,,,,,,,,,,,,,,,,,,,,,,,,,,,,,,,,,,,,,,,,,,,,,,,,,,,,,,,,,,,,,,,,,,,,,,,,,,,,,,,,,,,,,,,,,,,,,,,,,,,,,
,,,,,,6010601cc932aa3661b459ec,62bbfb6da391ce9d357778e6,2022-06-29_10h13.10.892,Colour_Asymmetry_Pilot,2022.1.3,Win32,60.07088364,62bbe60bf3d75ef465d3e404,0,57,57,4,1,threeone,,,,,,,,,,,,,,,,,,,,,,,,,,,,,,,,,,,,,,,,,,,,,,,,,,,,,,,,,,,,,,,,,,,,,,,,,,,,,,,,,,,,,,,,,,,,,,,,,,,,,,,,,,,,,,,,,,,,,,,,,,,,,,,,,,,,,,,,,,,,,,,,,,,,,,,
,,,,,,6010601cc932aa3661b459ec,62bbfb6da391ce9d357778e6,2022-06-29_10h13.10.892,Colour_Asymmetry_Pilot,2022.1.3,Win32,60.07088364,62bbe60bf3d75ef465d3e404,0,58,58,147,1,twofour,,,,,,,,,,,,,,,,,,,,,,,,,,,,,,,,,,,,,,,,,,,,,,,,,,,,,,,,,,,,,,,,,,,,,,,,,,,,,,,,,,,,,,,,,,,,,,,,,,,,,,,,,,,,,,,,,,,,,,,,,,,,,,,,,,,,,,,,,,,,,,,,,,,,,,,
,,,,,,6010601cc932aa3661b459ec,62bbfb6da391ce9d357778e6,2022-06-29_10h13.10.892,Colour_Asymmetry_Pilot,2022.1.3,Win32,60.07088364,62bbe60bf3d75ef465d3e404,0,59,59,82,1,twoone,,,,,,,,,,,,,,,,,,,,,,,,,,,,,,,,,,,,,,,,,,,,,,,,,,,,,,,,,,,,,,,,,,,,,,,,,,,,,,,,,,,,,,,,,,,,,,,,,,,,,,,,,,,,,,,,,,,,,,,,,,,,,,,,,,,,,,,,,,,,,,,,,,,,,,,
,,,,,,6010601cc932aa3661b459ec,62bbfb6da391ce9d357778e6,2022-06-29_10h13.10.892,Colour_Asymmetry_Pilot,2022.1.3,Win32,60.07088364,62bbe60bf3d75ef465d3e404,0,60,60,138,1,twoone,,,,,,,,,,,,,,,,,,,,,,,,,,,,,,,,,,,,,,,,,,,,,,,,,,,,,,,,,,,,,,,,,,,,,,,,,,,,,,,,,,,,,,,,,,,,,,,,,,,,,,,,,,,,,,,,,,,,,,,,,,,,,,,,,,,,,,,,,,,,,,,,,,,,,,,
,,,,,,6010601cc932aa3661b459ec,62bbfb6da391ce9d357778e6,2022-06-29_10h13.10.892,Colour_Asymmetry_Pilot,2022.1.3,Win32,60.07088364,62bbe60bf3d75ef465d3e404,0,61,61,65,1,onethree,,,,,,,,,,,,,,,,,,,,,,,,,,,,,,,,,,,,,,,,,,,,,,,,,,,,,,,,,,,,,,,,,,,,,,,,,,,,,,,,,,,,,,,,,,,,,,,,,,,,,,,,,,,,,,,,,,,,,,,,,,,,,,,,,,,,,,,,,,,,,,,,,,,,,,,
,,,,,,6010601cc932aa3661b459ec,62bbfb6da391ce9d357778e6,2022-06-29_10h13.10.892,Colour_Asymmetry_Pilot,2022.1.3,Win32,60.07088364,62bbe60bf3d75ef465d3e404,0,62,62,29,1,threefour,,,,,,,,,,,,,,,,,,,,,,,,,,,,,,,,,,,,,,,,,,,,,,,,,,,,,,,,,,,,,,,,,,,,,,,,,,,,,,,,,,,,,,,,,,,,,,,,,,,,,,,,,,,,,,,,,,,,,,,,,,,,,,,,,,,,,,,,,,,,,,,,,,,,,,,
,,,,,,6010601cc932aa3661b459ec,62bbfb6da391ce9d357778e6,2022-06-29_10h13.10.892,Colour_Asymmetry_Pilot,2022.1.3,Win32,60.07088364,62bbe60bf3d75ef465d3e404,0,63,63,109,1,threefour,,,,,,,,,,,,,,,,,,,,,,,,,,,,,,,,,,,,,,,,,,,,,,,,,,,,,,,,,,,,,,,,,,,,,,,,,,,,,,,,,,,,,,,,,,,,,,,,,,,,,,,,,,,,,,,,,,,,,,,,,,,,,,,,,,,,,,,,,,,,,,,,,,,,,,,
,,,,,,6010601cc932aa3661b459ec,62bbfb6da391ce9d357778e6,2022-06-29_10h13.10.892,Colour_Asymmetry_Pilot,2022.1.3,Win32,60.07088364,62bbe60bf3d75ef465d3e404,0,64,64,66,1,twoone,,,,,,,,,,,,,,,,,,,,,,,,,,,,,,,,,,,,,,,,,,,,,,,,,,,,,,,,,,,,,,,,,,,,,,,,,,,,,,,,,,,,,,,,,,,,,,,,,,,,,,,,,,,,,,,,,,,,,,,,,,,,,,,,,,,,,,,,,,,,,,,,,,,,,,,
,,,,,,6010601cc932aa3661b459ec,62bbfb6da391ce9d357778e6,2022-06-29_10h13.10.892,Colour_Asymmetry_Pilot,2022.1.3,Win32,60.07088364,62bbe60bf3d75ef465d3e404,0,65,65,100,1,threeone,,,,,,,,,,,,,,,,,,,,,,,,,,,,,,,,,,,,,,,,,,,,,,,,,,,,,,,,,,,,,,,,,,,,,,,,,,,,,,,,,,,,,,,,,,,,,,,,,,,,,,,,,,,,,,,,,,,,,,,,,,,,,,,,,,,,,,,,,,,,,,,,,,,,,,,
,,,,,,6010601cc932aa3661b459ec,62bbfb6da391ce9d357778e6,2022-06-29_10h13.10.892,Colour_Asymmetry_Pilot,2022.1.3,Win32,60.07088364,62bbe60bf3d75ef465d3e404,0,66,66,19,1,twofour,,,,,,,,,,,,,,,,,,,,,,,,,,,,,,,,,,,,,,,,,,,,,,,,,,,,,,,,,,,,,,,,,,,,,,,,,,,,,,,,,,,,,,,,,,,,,,,,,,,,,,,,,,,,,,,,,,,,,,,,,,,,,,,,,,,,,,,,,,,,,,,,,,,,,,,
,,,,,,6010601cc932aa3661b459ec,62bbfb6da391ce9d357778e6,2022-06-29_10h13.10.892,Colour_Asymmetry_Pilot,2022.1.3,Win32,60.07088364,62bbe60bf3d75ef465d3e404,0,67,67,72,1,onetwo,,,,,,,,,,,,,,,,,,,,,,,,,,,,,,,,,,,,,,,,,,,,,,,,,,,,,,,,,,,,,,,,,,,,,,,,,,,,,,,,,,,,,,,,,,,,,,,,,,,,,,,,,,,,,,,,,,,,,,,,,,,,,,,,,,,,,,,,,,,,,,,,,,,,,,,
,,,,,,6010601cc932aa3661b459ec,62bbfb6da391ce9d357778e6,2022-06-29_10h13.10.892,Colour_Asymmetry_Pilot,2022.1.3,Win32,60.07088364,62bbe60bf3d75ef465d3e404,0,68,68,69,1,threefour,,,,,,,,,,,,,,,,,,,,,,,,,,,,,,,,,,,,,,,,,,,,,,,,,,,,,,,,,,,,,,,,,,,,,,,,,,,,,,,,,,,,,,,,,,,,,,,,,,,,,,,,,,,,,,,,,,,,,,,,,,,,,,,,,,,,,,,,,,,,,,,,,,,,,,,
,,,,,,6010601cc932aa3661b459ec,62bbfb6da391ce9d357778e6,2022-06-29_10h13.10.892,Colour_Asymmetry_Pilot,2022.1.3,Win32,60.07088364,62bbe60bf3d75ef465d3e404,0,69,69,145,1,onethree,,,,,,,,,,,,,,,,,,,,,,,,,,,,,,,,,,,,,,,,,,,,,,,,,,,,,,,,,,,,,,,,,,,,,,,,,,,,,,,,,,,,,,,,,,,,,,,,,,,,,,,,,,,,,,,,,,,,,,,,,,,,,,,,,,,,,,,,,,,,,,,,,,,,,,,
,,,,,,6010601cc932aa3661b459ec,62bbfb6da391ce9d357778e6,2022-06-29_10h13.10.892,Colour_Asymmetry_Pilot,2022.1.3,Win32,60.07088364,62bbe60bf3d75ef465d3e404,0,70,70,6,1,fourtwo,,,,,,,,,,,,,,,,,,,,,,,,,,,,,,,,,,,,,,,,,,,,,,,,,,,,,,,,,,,,,,,,,,,,,,,,,,,,,,,,,,,,,,,,,,,,,,,,,,,,,,,,,,,,,,,,,,,,,,,,,,,,,,,,,,,,,,,,,,,,,,,,,,,,,,,
,,,,,,6010601cc932aa3661b459ec,62bbfb6da391ce9d357778e6,2022-06-29_10h13.10.892,Colour_Asymmetry_Pilot,2022.1.3,Win32,60.07088364,62bbe60bf3d75ef465d3e404,0,71,71,107,1,twofour,,,,,,,,,,,,,,,,,,,,,,,,,,,,,,,,,,,,,,,,,,,,,,,,,,,,,,,,,,,,,,,,,,,,,,,,,,,,,,,,,,,,,,,,,,,,,,,,,,,,,,,,,,,,,,,,,,,,,,,,,,,,,,,,,,,,,,,,,,,,,,,,,,,,,,,
,,,,,,6010601cc932aa3661b459ec,62bbfb6da391ce9d357778e6,2022-06-29_10h13.10.892,Colour_Asymmetry_Pilot,2022.1.3,Win32,60.07088364,62bbe60bf3d75ef465d3e404,0,72,72,161,1,onethree,,,,,,,,,,,,,,,,,,,,,,,,,,,,,,,,,,,,,,,,,,,,,,,,,,,,,,,,,,,,,,,,,,,,,,,,,,,,,,,,,,,,,,,,,,,,,,,,,,,,,,,,,,,,,,,,,,,,,,,,,,,,,,,,,,,,,,,,,,,,,,,,,,,,,,,
,,,,,,6010601cc932aa3661b459ec,62bbfb6da391ce9d357778e6,2022-06-29_10h13.10.892,Colour_Asymmetry_Pilot,2022.1.3,Win32,60.07088364,62bbe60bf3d75ef465d3e404,0,73,73,21,1,threefour,,,,,,,,,,,,,,,,,,,,,,,,,,,,,,,,,,,,,,,,,,,,,,,,,,,,,,,,,,,,,,,,,,,,,,,,,,,,,,,,,,,,,,,,,,,,,,,,,,,,,,,,,,,,,,,,,,,,,,,,,,,,,,,,,,,,,,,,,,,,,,,,,,,,,,,
,,,,,,6010601cc932aa3661b459ec,62bbfb6da391ce9d357778e6,2022-06-29_10h13.10.892,Colour_Asymmetry_Pilot,2022.1.3,Win32,60.07088364,62bbe60bf3d75ef465d3e404,0,74,74,155,1,twofour,,,,,,,,,,,,,,,,,,,,,,,,,,,,,,,,,,,,,,,,,,,,,,,,,,,,,,,,,,,,,,,,,,,,,,,,,,,,,,,,,,,,,,,,,,,,,,,,,,,,,,,,,,,,,,,,,,,,,,,,,,,,,,,,,,,,,,,,,,,,,,,,,,,,,,,
,,,,,,6010601cc932aa3661b459ec,62bbfb6da391ce9d357778e6,2022-06-29_10h13.10.892,Colour_Asymmetry_Pilot,2022.1.3,Win32,60.07088364,62bbe60bf3d75ef465d3e404,0,75,75,130,1,twoone,,,,,,,,,,,,,,,,,,,,,,,,,,,,,,,,,,,,,,,,,,,,,,,,,,,,,,,,,,,,,,,,,,,,,,,,,,,,,,,,,,,,,,,,,,,,,,,,,,,,,,,,,,,,,,,,,,,,,,,,,,,,,,,,,,,,,,,,,,,,,,,,,,,,,,,
,,,,,,6010601cc932aa3661b459ec,62bbfb6da391ce9d357778e6,2022-06-29_10h13.10.892,Colour_Asymmetry_Pilot,2022.1.3,Win32,60.07088364,62bbe60bf3d75ef465d3e404,0,76,76,99,1,twofour,,,,,,,,,,,,,,,,,,,,,,,,,,,,,,,,,,,,,,,,,,,,,,,,,,,,,,,,,,,,,,,,,,,,,,,,,,,,,,,,,,,,,,,,,,,,,,,,,,,,,,,,,,,,,,,,,,,,,,,,,,,,,,,,,,,,,,,,,,,,,,,,,,,,,,,
,,,,,,6010601cc932aa3661b459ec,62bbfb6da391ce9d357778e6,2022-06-29_10h13.10.892,Colour_Asymmetry_Pilot,2022.1.3,Win32,60.07088364,62bbe60bf3d75ef465d3e404,0,77,77,54,1,fourtwo,,,,,,,,,,,,,,,,,,,,,,,,,,,,,,,,,,,,,,,,,,,,,,,,,,,,,,,,,,,,,,,,,,,,,,,,,,,,,,,,,,,,,,,,,,,,,,,,,,,,,,,,,,,,,,,,,,,,,,,,,,,,,,,,,,,,,,,,,,,,,,,,,,,,,,,
,,,,,,6010601cc932aa3661b459ec,62bbfb6da391ce9d357778e6,2022-06-29_10h13.10.892,Colour_Asymmetry_Pilot,2022.1.3,Win32,60.07088364,62bbe60bf3d75ef465d3e404,0,78,78,48,1,onetwo,,,,,,,,,,,,,,,,,,,,,,,,,,,,,,,,,,,,,,,,,,,,,,,,,,,,,,,,,,,,,,,,,,,,,,,,,,,,,,,,,,,,,,,,,,,,,,,,,,,,,,,,,,,,,,,,,,,,,,,,,,,,,,,,,,,,,,,,,,,,,,,,,,,,,,,
,,,,,,6010601cc932aa3661b459ec,62bbfb6da391ce9d357778e6,2022-06-29_10h13.10.892,Colour_Asymmetry_Pilot,2022.1.3,Win32,60.07088364,62bbe60bf3d75ef465d3e404,0,79,79,98,1,twoone,,,,,,,,,,,,,,,,,,,,,,,,,,,,,,,,,,,,,,,,,,,,,,,,,,,,,,,,,,,,,,,,,,,,,,,,,,,,,,,,,,,,,,,,,,,,,,,,,,,,,,,,,,,,,,,,,,,,,,,,,,,,,,,,,,,,,,,,,,,,,,,,,,,,,,,
,,,,,,6010601cc932aa3661b459ec,62bbfb6da391ce9d357778e6,2022-06-29_10h13.10.892,Colour_Asymmetry_Pilot,2022.1.3,Win32,60.07088364,62bbe60bf3d75ef465d3e404,0,80,80,45,1,threefour,,,,,,,,,,,,,,,,,,,,,,,,,,,,,,,,,,,,,,,,,,,,,,,,,,,,,,,,,,,,,,,,,,,,,,,,,,,,,,,,,,,,,,,,,,,,,,,,,,,,,,,,,,,,,,,,,,,,,,,,,,,,,,,,,,,,,,,,,,,,,,,,,,,,,,,
,,,,,,6010601cc932aa3661b459ec,62bbfb6da391ce9d357778e6,2022-06-29_10h13.10.892,Colour_Asymmetry_Pilot,2022.1.3,Win32,60.07088364,62bbe60bf3d75ef465d3e404,0,81,81,85,1,threefour,,,,,,,,,,,,,,,,,,,,,,,,,,,,,,,,,,,,,,,,,,,,,,,,,,,,,,,,,,,,,,,,,,,,,,,,,,,,,,,,,,,,,,,,,,,,,,,,,,,,,,,,,,,,,,,,,,,,,,,,,,,,,,,,,,,,,,,,,,,,,,,,,,,,,,,
,,,,,,6010601cc932aa3661b459ec,62bbfb6da391ce9d357778e6,2022-06-29_10h13.10.892,Colour_Asymmetry_Pilot,2022.1.3,Win32,60.07088364,62bbe60bf3d75ef465d3e404,0,82,82,1,1,onethree,,,,,,,,,,,,,,,,,,,,,,,,,,,,,,,,,,,,,,,,,,,,,,,,,,,,,,,,,,,,,,,,,,,,,,,,,,,,,,,,,,,,,,,,,,,,,,,,,,,,,,,,,,,,,,,,,,,,,,,,,,,,,,,,,,,,,,,,,,,,,,,,,,,,,,,
,,,,,,6010601cc932aa3661b459ec,62bbfb6da391ce9d357778e6,2022-06-29_10h13.10.892,Colour_Asymmetry_Pilot,2022.1.3,Win32,60.07088364,62bbe60bf3d75ef465d3e404,0,83,83,135,1,fourthree,,,,,,,,,,,,,,,,,,,,,,,,,,,,,,,,,,,,,,,,,,,,,,,,,,,,,,,,,,,,,,,,,,,,,,,,,,,,,,,,,,,,,,,,,,,,,,,,,,,,,,,,,,,,,,,,,,,,,,,,,,,,,,,,,,,,,,,,,,,,,,,,,,,,,,,
,,,,,,6010601cc932aa3661b459ec,62bbfb6da391ce9d357778e6,2022-06-29_10h13.10.892,Colour_Asymmetry_Pilot,2022.1.3,Win32,60.07088364,62bbe60bf3d75ef465d3e404,0,84,84,133,1,threefour,,,,,,,,,,,,,,,,,,,,,,,,,,,,,,,,,,,,,,,,,,,,,,,,,,,,,,,,,,,,,,,,,,,,,,,,,,,,,,,,,,,,,,,,,,,,,,,,,,,,,,,,,,,,,,,,,,,,,,,,,,,,,,,,,,,,,,,,,,,,,,,,,,,,,,,
,,,,,,6010601cc932aa3661b459ec,62bbfb6da391ce9d357778e6,2022-06-29_10h13.10.892,Colour_Asymmetry_Pilot,2022.1.3,Win32,60.07088364,62bbe60bf3d75ef465d3e404,0,85,85,2,1,twoone,,,,,,,,,,,,,,,,,,,,,,,,,,,,,,,,,,,,,,,,,,,,,,,,,,,,,,,,,,,,,,,,,,,,,,,,,,,,,,,,,,,,,,,,,,,,,,,,,,,,,,,,,,,,,,,,,,,,,,,,,,,,,,,,,,,,,,,,,,,,,,,,,,,,,,,
,,,,,,6010601cc932aa3661b459ec,62bbfb6da391ce9d357778e6,2022-06-29_10h13.10.892,Colour_Asymmetry_Pilot,2022.1.3,Win32,60.07088364,62bbe60bf3d75ef465d3e404,0,86,86,124,1,threeone,,,,,,,,,,,,,,,,,,,,,,,,,,,,,,,,,,,,,,,,,,,,,,,,,,,,,,,,,,,,,,,,,,,,,,,,,,,,,,,,,,,,,,,,,,,,,,,,,,,,,,,,,,,,,,,,,,,,,,,,,,,,,,,,,,,,,,,,,,,,,,,,,,,,,,,
,,,,,,6010601cc932aa3661b459ec,62bbfb6da391ce9d357778e6,2022-06-29_10h13.10.892,Colour_Asymmetry_Pilot,2022.1.3,Win32,60.07088364,62bbe60bf3d75ef465d3e404,0,87,87,126,1,fourtwo,,,,,,,,,,,,,,,,,,,,,,,,,,,,,,,,,,,,,,,,,,,,,,,,,,,,,,,,,,,,,,,,,,,,,,,,,,,,,,,,,,,,,,,,,,,,,,,,,,,,,,,,,,,,,,,,,,,,,,,,,,,,,,,,,,,,,,,,,,,,,,,,,,,,,,,
,,,,,,6010601cc932aa3661b459ec,62bbfb6da391ce9d357778e6,2022-06-29_10h13.10.892,Colour_Asymmetry_Pilot,2022.1.3,Win32,60.07088364,62bbe60bf3d75ef465d3e404,0,88,88,96,1,onetwo,,,,,,,,,,,,,,,,,,,,,,,,,,,,,,,,,,,,,,,,,,,,,,,,,,,,,,,,,,,,,,,,,,,,,,,,,,,,,,,,,,,,,,,,,,,,,,,,,,,,,,,,,,,,,,,,,,,,,,,,,,,,,,,,,,,,,,,,,,,,,,,,,,,,,,,
,,,,,,6010601cc932aa3661b459ec,62bbfb6da391ce9d357778e6,2022-06-29_10h13.10.892,Colour_Asymmetry_Pilot,2022.1.3,Win32,60.07088364,62bbe60bf3d75ef465d3e404,0,89,89,56,1,onetwo,,,,,,,,,,,,,,,,,,,,,,,,,,,,,,,,,,,,,,,,,,,,,,,,,,,,,,,,,,,,,,,,,,,,,,,,,,,,,,,,,,,,,,,,,,,,,,,,,,,,,,,,,,,,,,,,,,,,,,,,,,,,,,,,,,,,,,,,,,,,,,,,,,,,,,,
,,,,,,6010601cc932aa3661b459ec,62bbfb6da391ce9d357778e6,2022-06-29_10h13.10.892,Colour_Asymmetry_Pilot,2022.1.3,Win32,60.07088364,62bbe60bf3d75ef465d3e404,0,90,90,71,1,fourthree,,,,,,,,,,,,,,,,,,,,,,,,,,,,,,,,,,,,,,,,,,,,,,,,,,,,,,,,,,,,,,,,,,,,,,,,,,,,,,,,,,,,,,,,,,,,,,,,,,,,,,,,,,,,,,,,,,,,,,,,,,,,,,,,,,,,,,,,,,,,,,,,,,,,,,,
,,,,,,6010601cc932aa3661b459ec,62bbfb6da391ce9d357778e6,2022-06-29_10h13.10.892,Colour_Asymmetry_Pilot,2022.1.3,Win32,60.07088364,62bbe60bf3d75ef465d3e404,0,91,91,134,1,fourtwo,,,,,,,,,,,,,,,,,,,,,,,,,,,,,,,,,,,,,,,,,,,,,,,,,,,,,,,,,,,,,,,,,,,,,,,,,,,,,,,,,,,,,,,,,,,,,,,,,,,,,,,,,,,,,,,,,,,,,,,,,,,,,,,,,,,,,,,,,,,,,,,,,,,,,,,
,,,,,,6010601cc932aa3661b459ec,62bbfb6da391ce9d357778e6,2022-06-29_10h13.10.892,Colour_Asymmetry_Pilot,2022.1.3,Win32,60.07088364,62bbe60bf3d75ef465d3e404,0,92,92,47,1,fourthree,,,,,,,,,,,,,,,,,,,,,,,,,,,,,,,,,,,,,,,,,,,,,,,,,,,,,,,,,,,,,,,,,,,,,,,,,,,,,,,,,,,,,,,,,,,,,,,,,,,,,,,,,,,,,,,,,,,,,,,,,,,,,,,,,,,,,,,,,,,,,,,,,,,,,,,
,,,,,,6010601cc932aa3661b459ec,62bbfb6da391ce9d357778e6,2022-06-29_10h13.10.892,Colour_Asymmetry_Pilot,2022.1.3,Win32,60.07088364,62bbe60bf3d75ef465d3e404,0,93,93,110,1,fourtwo,,,,,,,,,,,,,,,,,,,,,,,,,,,,,,,,,,,,,,,,,,,,,,,,,,,,,,,,,,,,,,,,,,,,,,,,,,,,,,,,,,,,,,,,,,,,,,,,,,,,,,,,,,,,,,,,,,,,,,,,,,,,,,,,,,,,,,,,,,,,,,,,,,,,,,,
,,,,,,6010601cc932aa3661b459ec,62bbfb6da391ce9d357778e6,2022-06-29_10h13.10.892,Colour_Asymmetry_Pilot,2022.1.3,Win32,60.07088364,62bbe60bf3d75ef465d3e404,0,94,94,140,1,threeone,,,,,,,,,,,,,,,,,,,,,,,,,,,,,,,,,,,,,,,,,,,,,,,,,,,,,,,,,,,,,,,,,,,,,,,,,,,,,,,,,,,,,,,,,,,,,,,,,,,,,,,,,,,,,,,,,,,,,,,,,,,,,,,,,,,,,,,,,,,,,,,,,,,,,,,
,,,,,,6010601cc932aa3661b459ec,62bbfb6da391ce9d357778e6,2022-06-29_10h13.10.892,Colour_Asymmetry_Pilot,2022.1.3,Win32,60.07088364,62bbe60bf3d75ef465d3e404,0,95,95,122,1,twoone,,,,,,,,,,,,,,,,,,,,,,,,,,,,,,,,,,,,,,,,,,,,,,,,,,,,,,,,,,,,,,,,,,,,,,,,,,,,,,,,,,,,,,,,,,,,,,,,,,,,,,,,,,,,,,,,,,,,,,,,,,,,,,,,,,,,,,,,,,,,,,,,,,,,,,,
,,,,,,6010601cc932aa3661b459ec,62bbfb6da391ce9d357778e6,2022-06-29_10h13.10.892,Colour_Asymmetry_Pilot,2022.1.3,Win32,60.07088364,62bbe60bf3d75ef465d3e404,0,96,96,139,1,twofour,,,,,,,,,,,,,,,,,,,,,,,,,,,,,,,,,,,,,,,,,,,,,,,,,,,,,,,,,,,,,,,,,,,,,,,,,,,,,,,,,,,,,,,,,,,,,,,,,,,,,,,,,,,,,,,,,,,,,,,,,,,,,,,,,,,,,,,,,,,,,,,,,,,,,,,
,,,,,,6010601cc932aa3661b459ec,62bbfb6da391ce9d357778e6,2022-06-29_10h13.10.892,Colour_Asymmetry_Pilot,2022.1.3,Win32,60.07088364,62bbe60bf3d75ef465d3e404,0,97,97,86,1,fourtwo,,,,,,,,,,,,,,,,,,,,,,,,,,,,,,,,,,,,,,,,,,,,,,,,,,,,,,,,,,,,,,,,,,,,,,,,,,,,,,,,,,,,,,,,,,,,,,,,,,,,,,,,,,,,,,,,,,,,,,,,,,,,,,,,,,,,,,,,,,,,,,,,,,,,,,,
,,,,,,6010601cc932aa3661b459ec,62bbfb6da391ce9d357778e6,2022-06-29_10h13.10.892,Colour_Asymmetry_Pilot,2022.1.3,Win32,60.07088364,62bbe60bf3d75ef465d3e404,0,98,98,32,1,onetwo,,,,,,,,,,,,,,,,,,,,,,,,,,,,,,,,,,,,,,,,,,,,,,,,,,,,,,,,,,,,,,,,,,,,,,,,,,,,,,,,,,,,,,,,,,,,,,,,,,,,,,,,,,,,,,,,,,,,,,,,,,,,,,,,,,,,,,,,,,,,,,,,,,,,,,,
,,,,,,6010601cc932aa3661b459ec,62bbfb6da391ce9d357778e6,2022-06-29_10h13.10.892,Colour_Asymmetry_Pilot,2022.1.3,Win32,60.07088364,62bbe60bf3d75ef465d3e404,0,99,99,8,1,onetwo,,,,,,,,,,,,,,,,,,,,,,,,,,,,,,,,,,,,,,,,,,,,,,,,,,,,,,,,,,,,,,,,,,,,,,,,,,,,,,,,,,,,,,,,,,,,,,,,,,,,,,,,,,,,,,,,,,,,,,,,,,,,,,,,,,,,,,,,,,,,,,,,,,,,,,,
,,,,,,6010601cc932aa3661b459ec,62bbfb6da391ce9d357778e6,2022-06-29_10h13.10.892,Colour_Asymmetry_Pilot,2022.1.3,Win32,60.07088364,62bbe60bf3d75ef465d3e404,0,100,100,14,1,fourtwo,,,,,,,,,,,,,,,,,,,,,,,,,,,,,,,,,,,,,,,,,,,,,,,,,,,,,,,,,,,,,,,,,,,,,,,,,,,,,,,,,,,,,,,,,,,,,,,,,,,,,,,,,,,,,,,,,,,,,,,,,,,,,,,,,,,,,,,,,,,,,,,,,,,,,,,
,,,,,,6010601cc932aa3661b459ec,62bbfb6da391ce9d357778e6,2022-06-29_10h13.10.892,Colour_Asymmetry_Pilot,2022.1.3,Win32,60.07088364,62bbe60bf3d75ef465d3e404,0,101,101,67,1,twofour,,,,,,,,,,,,,,,,,,,,,,,,,,,,,,,,,,,,,,,,,,,,,,,,,,,,,,,,,,,,,,,,,,,,,,,,,,,,,,,,,,,,,,,,,,,,,,,,,,,,,,,,,,,,,,,,,,,,,,,,,,,,,,,,,,,,,,,,,,,,,,,,,,,,,,,
,,,,,,6010601cc932aa3661b459ec,62bbfb6da391ce9d357778e6,2022-06-29_10h13.10.892,Colour_Asymmetry_Pilot,2022.1.3,Win32,60.07088364,62bbe60bf3d75ef465d3e404,0,102,102,41,1,onethree,,,,,,,,,,,,,,,,,,,,,,,,,,,,,,,,,,,,,,,,,,,,,,,,,,,,,,,,,,,,,,,,,,,,,,,,,,,,,,,,,,,,,,,,,,,,,,,,,,,,,,,,,,,,,,,,,,,,,,,,,,,,,,,,,,,,,,,,,,,,,,,,,,,,,,,
,,,,,,6010601cc932aa3661b459ec,62bbfb6da391ce9d357778e6,2022-06-29_10h13.10.892,Colour_Asymmetry_Pilot,2022.1.3,Win32,60.07088364,62bbe60bf3d75ef465d3e404,0,103,103,137,1,onethree,,,,,,,,,,,,,,,,,,,,,,,,,,,,,,,,,,,,,,,,,,,,,,,,,,,,,,,,,,,,,,,,,,,,,,,,,,,,,,,,,,,,,,,,,,,,,,,,,,,,,,,,,,,,,,,,,,,,,,,,,,,,,,,,,,,,,,,,,,,,,,,,,,,,,,,
,,,,,,6010601cc932aa3661b459ec,62bbfb6da391ce9d357778e6,2022-06-29_10h13.10.892,Colour_Asymmetry_Pilot,2022.1.3,Win32,60.07088364,62bbe60bf3d75ef465d3e404,0,104,104,79,1,fourthree,,,,,,,,,,,,,,,,,,,,,,,,,,,,,,,,,,,,,,,,,,,,,,,,,,,,,,,,,,,,,,,,,,,,,,,,,,,,,,,,,,,,,,,,,,,,,,,,,,,,,,,,,,,,,,,,,,,,,,,,,,,,,,,,,,,,,,,,,,,,,,,,,,,,,,,
,,,,,,6010601cc932aa3661b459ec,62bbfb6da391ce9d357778e6,2022-06-29_10h13.10.892,Colour_Asymmetry_Pilot,2022.1.3,Win32,60.07088364,62bbe60bf3d75ef465d3e404,0,105,105,83,1,twofour,,,,,,,,,,,,,,,,,,,,,,,,,,,,,,,,,,,,,,,,,,,,,,,,,,,,,,,,,,,,,,,,,,,,,,,,,,,,,,,,,,,,,,,,,,,,,,,,,,,,,,,,,,,,,,,,,,,,,,,,,,,,,,,,,,,,,,,,,,,,,,,,,,,,,,,
,,,,,,6010601cc932aa3661b459ec,62bbfb6da391ce9d357778e6,2022-06-29_10h13.10.892,Colour_Asymmetry_Pilot,2022.1.3,Win32,60.07088364,62bbe60bf3d75ef465d3e404,0,106,106,84,1,threeone,,,,,,,,,,,,,,,,,,,,,,,,,,,,,,,,,,,,,,,,,,,,,,,,,,,,,,,,,,,,,,,,,,,,,,,,,,,,,,,,,,,,,,,,,,,,,,,,,,,,,,,,,,,,,,,,,,,,,,,,,,,,,,,,,,,,,,,,,,,,,,,,,,,,,,,
,,,,,,6010601cc932aa3661b459ec,62bbfb6da391ce9d357778e6,2022-06-29_10h13.10.892,Colour_Asymmetry_Pilot,2022.1.3,Win32,60.07088364,62bbe60bf3d75ef465d3e404,0,107,107,27,1,twofour,,,,,,,,,,,,,,,,,,,,,,,,,,,,,,,,,,,,,,,,,,,,,,,,,,,,,,,,,,,,,,,,,,,,,,,,,,,,,,,,,,,,,,,,,,,,,,,,,,,,,,,,,,,,,,,,,,,,,,,,,,,,,,,,,,,,,,,,,,,,,,,,,,,,,,,
,,,,,,6010601cc932aa3661b459ec,62bbfb6da391ce9d357778e6,2022-06-29_10h13.10.892,Colour_Asymmetry_Pilot,2022.1.3,Win32,60.07088364,62bbe60bf3d75ef465d3e404,0,108,108,28,1,threeone,,,,,,,,,,,,,,,,,,,,,,,,,,,,,,,,,,,,,,,,,,,,,,,,,,,,,,,,,,,,,,,,,,,,,,,,,,,,,,,,,,,,,,,,,,,,,,,,,,,,,,,,,,,,,,,,,,,,,,,,,,,,,,,,,,,,,,,,,,,,,,,,,,,,,,,
,,,,,,6010601cc932aa3661b459ec,62bbfb6da391ce9d357778e6,2022-06-29_10h13.10.892,Colour_Asymmetry_Pilot,2022.1.3,Win32,60.07088364,62bbe60bf3d75ef465d3e404,0,109,109,70,1,fourtwo,,,,,,,,,,,,,,,,,,,,,,,,,,,,,,,,,,,,,,,,,,,,,,,,,,,,,,,,,,,,,,,,,,,,,,,,,,,,,,,,,,,,,,,,,,,,,,,,,,,,,,,,,,,,,,,,,,,,,,,,,,,,,,,,,,,,,,,,,,,,,,,,,,,,,,,
,,,,,,6010601cc932aa3661b459ec,62bbfb6da391ce9d357778e6,2022-06-29_10h13.10.892,Colour_Asymmetry_Pilot,2022.1.3,Win32,60.07088364,62bbe60bf3d75ef465d3e404,0,110,110,121,1,onethree,,,,,,,,,,,,,,,,,,,,,,,,,,,,,,,,,,,,,,,,,,,,,,,,,,,,,,,,,,,,,,,,,,,,,,,,,,,,,,,,,,,,,,,,,,,,,,,,,,,,,,,,,,,,,,,,,,,,,,,,,,,,,,,,,,,,,,,,,,,,,,,,,,,,,,,
,,,,,,6010601cc932aa3661b459ec,62bbfb6da391ce9d357778e6,2022-06-29_10h13.10.892,Colour_Asymmetry_Pilot,2022.1.3,Win32,60.07088364,62bbe60bf3d75ef465d3e404,0,111,111,103,1,fourthree,,,,,,,,,,,,,,,,,,,,,,,,,,,,,,,,,,,,,,,,,,,,,,,,,,,,,,,,,,,,,,,,,,,,,,,,,,,,,,,,,,,,,,,,,,,,,,,,,,,,,,,,,,,,,,,,,,,,,,,,,,,,,,,,,,,,,,,,,,,,,,,,,,,,,,,
,,,,,,6010601cc932aa3661b459ec,62bbfb6da391ce9d357778e6,2022-06-29_10h13.10.892,Colour_Asymmetry_Pilot,2022.1.3,Win32,60.07088364,62bbe60bf3d75ef465d3e404,0,112,112,94,1,fourtwo,,,,,,,,,,,,,,,,,,,,,,,,,,,,,,,,,,,,,,,,,,,,,,,,,,,,,,,,,,,,,,,,,,,,,,,,,,,,,,,,,,,,,,,,,,,,,,,,,,,,,,,,,,,,,,,,,,,,,,,,,,,,,,,,,,,,,,,,,,,,,,,,,,,,,,,
,,,,,,6010601cc932aa3661b459ec,62bbfb6da391ce9d357778e6,2022-06-29_10h13.10.892,Colour_Asymmetry_Pilot,2022.1.3,Win32,60.07088364,62bbe60bf3d75ef465d3e404,0,113,113,17,1,onethree,,,,,,,,,,,,,,,,,,,,,,,,,,,,,,,,,,,,,,,,,,,,,,,,,,,,,,,,,,,,,,,,,,,,,,,,,,,,,,,,,,,,,,,,,,,,,,,,,,,,,,,,,,,,,,,,,,,,,,,,,,,,,,,,,,,,,,,,,,,,,,,,,,,,,,,
,,,,,,6010601cc932aa3661b459ec,62bbfb6da391ce9d357778e6,2022-06-29_10h13.10.892,Colour_Asymmetry_Pilot,2022.1.3,Win32,60.07088364,62bbe60bf3d75ef465d3e404,0,114,114,23,1,fourthree,,,,,,,,,,,,,,,,,,,,,,,,,,,,,,,,,,,,,,,,,,,,,,,,,,,,,,,,,,,,,,,,,,,,,,,,,,,,,,,,,,,,,,,,,,,,,,,,,,,,,,,,,,,,,,,,,,,,,,,,,,,,,,,,,,,,,,,,,,,,,,,,,,,,,,,
,,,,,,6010601cc932aa3661b459ec,62bbfb6da391ce9d357778e6,2022-06-29_10h13.10.892,Colour_Asymmetry_Pilot,2022.1.3,Win32,60.07088364,62bbe60bf3d75ef465d3e404,0,115,115,5,1,threefour,,,,,,,,,,,,,,,,,,,,,,,,,,,,,,,,,,,,,,,,,,,,,,,,,,,,,,,,,,,,,,,,,,,,,,,,,,,,,,,,,,,,,,,,,,,,,,,,,,,,,,,,,,,,,,,,,,,,,,,,,,,,,,,,,,,,,,,,,,,,,,,,,,,,,,,
,,,,,,6010601cc932aa3661b459ec,62bbfb6da391ce9d357778e6,2022-06-29_10h13.10.892,Colour_Asymmetry_Pilot,2022.1.3,Win32,60.07088364,62bbe60bf3d75ef465d3e404,0,116,116,97,1,onethree,,,,,,,,,,,,,,,,,,,,,,,,,,,,,,,,,,,,,,,,,,,,,,,,,,,,,,,,,,,,,,,,,,,,,,,,,,,,,,,,,,,,,,,,,,,,,,,,,,,,,,,,,,,,,,,,,,,,,,,,,,,,,,,,,,,,,,,,,,,,,,,,,,,,,,,
,,,,,,6010601cc932aa3661b459ec,62bbfb6da391ce9d357778e6,2022-06-29_10h13.10.892,Colour_Asymmetry_Pilot,2022.1.3,Win32,60.07088364,62bbe60bf3d75ef465d3e404,0,117,117,154,1,twoone,,,,,,,,,,,,,,,,,,,,,,,,,,,,,,,,,,,,,,,,,,,,,,,,,,,,,,,,,,,,,,,,,,,,,,,,,,,,,,,,,,,,,,,,,,,,,,,,,,,,,,,,,,,,,,,,,,,,,,,,,,,,,,,,,,,,,,,,,,,,,,,,,,,,,,,
,,,,,,6010601cc932aa3661b459ec,62bbfb6da391ce9d357778e6,2022-06-29_10h13.10.892,Colour_Asymmetry_Pilot,2022.1.3,Win32,60.07088364,62bbe60bf3d75ef465d3e404,0,118,118,78,1,fourtwo,,,,,,,,,,,,,,,,,,,,,,,,,,,,,,,,,,,,,,,,,,,,,,,,,,,,,,,,,,,,,,,,,,,,,,,,,,,,,,,,,,,,,,,,,,,,,,,,,,,,,,,,,,,,,,,,,,,,,,,,,,,,,,,,,,,,,,,,,,,,,,,,,,,,,,,
,,,,,,6010601cc932aa3661b459ec,62bbfb6da391ce9d357778e6,2022-06-29_10h13.10.892,Colour_Asymmetry_Pilot,2022.1.3,Win32,60.07088364,62bbe60bf3d75ef465d3e404,0,119,119,0,1,onetwo,,,,,,,,,,,,,,,,,,,,,,,,,,,,,,,,,,,,,,,,,,,,,,,,,,,,,,,,,,,,,,,,,,,,,,,,,,,,,,,,,,,,,,,,,,,,,,,,,,,,,,,,,,,,,,,,,,,,,,,,,,,,,,,,,,,,,,,,,,,,,,,,,,,,,,,
,,,,,,6010601cc932aa3661b459ec,62bbfb6da391ce9d357778e6,2022-06-29_10h13.10.892,Colour_Asymmetry_Pilot,2022.1.3,Win32,60.07088364,62bbe60bf3d75ef465d3e404,0,120,120,53,1,threefour,,,,,,,,,,,,,,,,,,,,,,,,,,,,,,,,,,,,,,,,,,,,,,,,,,,,,,,,,,,,,,,,,,,,,,,,,,,,,,,,,,,,,,,,,,,,,,,,,,,,,,,,,,,,,,,,,,,,,,,,,,,,,,,,,,,,,,,,,,,,,,,,,,,,,,,
,,,,,,6010601cc932aa3661b459ec,62bbfb6da391ce9d357778e6,2022-06-29_10h13.10.892,Colour_Asymmetry_Pilot,2022.1.3,Win32,60.07088364,62bbe60bf3d75ef465d3e404,0,121,121,77,1,threefour,,,,,,,,,,,,,,,,,,,,,,,,,,,,,,,,,,,,,,,,,,,,,,,,,,,,,,,,,,,,,,,,,,,,,,,,,,,,,,,,,,,,,,,,,,,,,,,,,,,,,,,,,,,,,,,,,,,,,,,,,,,,,,,,,,,,,,,,,,,,,,,,,,,,,,,
,,,,,,6010601cc932aa3661b459ec,62bbfb6da391ce9d357778e6,2022-06-29_10h13.10.892,Colour_Asymmetry_Pilot,2022.1.3,Win32,60.07088364,62bbe60bf3d75ef465d3e404,0,122,122,127,1,fourthree,,,,,,,,,,,,,,,,,,,,,,,,,,,,,,,,,,,,,,,,,,,,,,,,,,,,,,,,,,,,,,,,,,,,,,,,,,,,,,,,,,,,,,,,,,,,,,,,,,,,,,,,,,,,,,,,,,,,,,,,,,,,,,,,,,,,,,,,,,,,,,,,,,,,,,,
,,,,,,6010601cc932aa3661b459ec,62bbfb6da391ce9d357778e6,2022-06-29_10h13.10.892,Colour_Asymmetry_Pilot,2022.1.3,Win32,60.07088364,62bbe60bf3d75ef465d3e404,0,123,123,57,1,onethree,,,,,,,,,,,,,,,,,,,,,,,,,,,,,,,,,,,,,,,,,,,,,,,,,,,,,,,,,,,,,,,,,,,,,,,,,,,,,,,,,,,,,,,,,,,,,,,,,,,,,,,,,,,,,,,,,,,,,,,,,,,,,,,,,,,,,,,,,,,,,,,,,,,,,,,
,,,,,,6010601cc932aa3661b459ec,62bbfb6da391ce9d357778e6,2022-06-29_10h13.10.892,Colour_Asymmetry_Pilot,2022.1.3,Win32,60.07088364,62bbe60bf3d75ef465d3e404,0,124,124,117,1,threefour,,,,,,,,,,,,,,,,,,,,,,,,,,,,,,,,,,,,,,,,,,,,,,,,,,,,,,,,,,,,,,,,,,,,,,,,,,,,,,,,,,,,,,,,,,,,,,,,,,,,,,,,,,,,,,,,,,,,,,,,,,,,,,,,,,,,,,,,,,,,,,,,,,,,,,,
,,,,,,6010601cc932aa3661b459ec,62bbfb6da391ce9d357778e6,2022-06-29_10h13.10.892,Colour_Asymmetry_Pilot,2022.1.3,Win32,60.07088364,62bbe60bf3d75ef465d3e404,0,125,125,40,1,onetwo,,,,,,,,,,,,,,,,,,,,,,,,,,,,,,,,,,,,,,,,,,,,,,,,,,,,,,,,,,,,,,,,,,,,,,,,,,,,,,,,,,,,,,,,,,,,,,,,,,,,,,,,,,,,,,,,,,,,,,,,,,,,,,,,,,,,,,,,,,,,,,,,,,,,,,,
,,,,,,6010601cc932aa3661b459ec,62bbfb6da391ce9d357778e6,2022-06-29_10h13.10.892,Colour_Asymmetry_Pilot,2022.1.3,Win32,60.07088364,62bbe60bf3d75ef465d3e404,0,126,126,95,1,fourthree,,,,,,,,,,,,,,,,,,,,,,,,,,,,,,,,,,,,,,,,,,,,,,,,,,,,,,,,,,,,,,,,,,,,,,,,,,,,,,,,,,,,,,,,,,,,,,,,,,,,,,,,,,,,,,,,,,,,,,,,,,,,,,,,,,,,,,,,,,,,,,,,,,,,,,,
,,,,,,6010601cc932aa3661b459ec,62bbfb6da391ce9d357778e6,2022-06-29_10h13.10.892,Colour_Asymmetry_Pilot,2022.1.3,Win32,60.07088364,62bbe60bf3d75ef465d3e404,0,127,127,24,1,onetwo,,,,,,,,,,,,,,,,,,,,,,,,,,,,,,,,,,,,,,,,,,,,,,,,,,,,,,,,,,,,,,,,,,,,,,,,,,,,,,,,,,,,,,,,,,,,,,,,,,,,,,,,,,,,,,,,,,,,,,,,,,,,,,,,,,,,,,,,,,,,,,,,,,,,,,,
,,,,,,6010601cc932aa3661b459ec,62bbfb6da391ce9d357778e6,2022-06-29_10h13.10.892,Colour_Asymmetry_Pilot,2022.1.3,Win32,60.07088364,62bbe60bf3d75ef465d3e404,0,128,128,157,1,threefour,,,,,,,,,,,,,,,,,,,,,,,,,,,,,,,,,,,,,,,,,,,,,,,,,,,,,,,,,,,,,,,,,,,,,,,,,,,,,,,,,,,,,,,,,,,,,,,,,,,,,,,,,,,,,,,,,,,,,,,,,,,,,,,,,,,,,,,,,,,,,,,,,,,,,,,
,,,,,,6010601cc932aa3661b459ec,62bbfb6da391ce9d357778e6,2022-06-29_10h13.10.892,Colour_Asymmetry_Pilot,2022.1.3,Win32,60.07088364,62bbe60bf3d75ef465d3e404,0,129,129,115,1,twofour,,,,,,,,,,,,,,,,,,,,,,,,,,,,,,,,,,,,,,,,,,,,,,,,,,,,,,,,,,,,,,,,,,,,,,,,,,,,,,,,,,,,,,,,,,,,,,,,,,,,,,,,,,,,,,,,,,,,,,,,,,,,,,,,,,,,,,,,,,,,,,,,,,,,,,,
,,,,,,6010601cc932aa3661b459ec,62bbfb6da391ce9d357778e6,2022-06-29_10h13.10.892,Colour_Asymmetry_Pilot,2022.1.3,Win32,60.07088364,62bbe60bf3d75ef465d3e404,0,130,130,9,1,onethree,,,,,,,,,,,,,,,,,,,,,,,,,,,,,,,,,,,,,,,,,,,,,,,,,,,,,,,,,,,,,,,,,,,,,,,,,,,,,,,,,,,,,,,,,,,,,,,,,,,,,,,,,,,,,,,,,,,,,,,,,,,,,,,,,,,,,,,,,,,,,,,,,,,,,,,
,,,,,,6010601cc932aa3661b459ec,62bbfb6da391ce9d357778e6,2022-06-29_10h13.10.892,Colour_Asymmetry_Pilot,2022.1.3,Win32,60.07088364,62bbe60bf3d75ef465d3e404,0,131,131,18,1,twoone,,,,,,,,,,,,,,,,,,,,,,,,,,,,,,,,,,,,,,,,,,,,,,,,,,,,,,,,,,,,,,,,,,,,,,,,,,,,,,,,,,,,,,,,,,,,,,,,,,,,,,,,,,,,,,,,,,,,,,,,,,,,,,,,,,,,,,,,,,,,,,,,,,,,,,,
,,,,,,6010601cc932aa3661b459ec,62bbfb6da391ce9d357778e6,2022-06-29_10h13.10.892,Colour_Asymmetry_Pilot,2022.1.3,Win32,60.07088364,62bbe60bf3d75ef465d3e404,0,132,132,112,1,onetwo,,,,,,,,,,,,,,,,,,,,,,,,,,,,,,,,,,,,,,,,,,,,,,,,,,,,,,,,,,,,,,,,,,,,,,,,,,,,,,,,,,,,,,,,,,,,,,,,,,,,,,,,,,,,,,,,,,,,,,,,,,,,,,,,,,,,,,,,,,,,,,,,,,,,,,,
,,,,,,6010601cc932aa3661b459ec,62bbfb6da391ce9d357778e6,2022-06-29_10h13.10.892,Colour_Asymmetry_Pilot,2022.1.3,Win32,60.07088364,62bbe60bf3d75ef465d3e404,0,133,133,3,1,twofour,,,,,,,,,,,,,,,,,,,,,,,,,,,,,,,,,,,,,,,,,,,,,,,,,,,,,,,,,,,,,,,,,,,,,,,,,,,,,,,,,,,,,,,,,,,,,,,,,,,,,,,,,,,,,,,,,,,,,,,,,,,,,,,,,,,,,,,,,,,,,,,,,,,,,,,
,,,,,,6010601cc932aa3661b459ec,62bbfb6da391ce9d357778e6,2022-06-29_10h13.10.892,Colour_Asymmetry_Pilot,2022.1.3,Win32,60.07088364,62bbe60bf3d75ef465d3e404,0,134,134,108,1,threeone,,,,,,,,,,,,,,,,,,,,,,,,,,,,,,,,,,,,,,,,,,,,,,,,,,,,,,,,,,,,,,,,,,,,,,,,,,,,,,,,,,,,,,,,,,,,,,,,,,,,,,,,,,,,,,,,,,,,,,,,,,,,,,,,,,,,,,,,,,,,,,,,,,,,,,,
,,,,,,6010601cc932aa3661b459ec,62bbfb6da391ce9d357778e6,2022-06-29_10h13.10.892,Colour_Asymmetry_Pilot,2022.1.3,Win32,60.07088364,62bbe60bf3d75ef465d3e404,0,135,135,120,1,onetwo,,,,,,,,,,,,,,,,,,,,,,,,,,,,,,,,,,,,,,,,,,,,,,,,,,,,,,,,,,,,,,,,,,,,,,,,,,,,,,,,,,,,,,,,,,,,,,,,,,,,,,,,,,,,,,,,,,,,,,,,,,,,,,,,,,,,,,,,,,,,,,,,,,,,,,,
,,,,,,6010601cc932aa3661b459ec,62bbfb6da391ce9d357778e6,2022-06-29_10h13.10.892,Colour_Asymmetry_Pilot,2022.1.3,Win32,60.07088364,62bbe60bf3d75ef465d3e404,0,136,136,105,1,onethree,,,,,,,,,,,,,,,,,,,,,,,,,,,,,,,,,,,,,,,,,,,,,,,,,,,,,,,,,,,,,,,,,,,,,,,,,,,,,,,,,,,,,,,,,,,,,,,,,,,,,,,,,,,,,,,,,,,,,,,,,,,,,,,,,,,,,,,,,,,,,,,,,,,,,,,
,,,,,,6010601cc932aa3661b459ec,62bbfb6da391ce9d357778e6,2022-06-29_10h13.10.892,Colour_Asymmetry_Pilot,2022.1.3,Win32,60.07088364,62bbe60bf3d75ef465d3e404,0,137,137,55,1,fourthree,,,,,,,,,,,,,,,,,,,,,,,,,,,,,,,,,,,,,,,,,,,,,,,,,,,,,,,,,,,,,,,,,,,,,,,,,,,,,,,,,,,,,,,,,,,,,,,,,,,,,,,,,,,,,,,,,,,,,,,,,,,,,,,,,,,,,,,,,,,,,,,,,,,,,,,
,,,,,,6010601cc932aa3661b459ec,62bbfb6da391ce9d357778e6,2022-06-29_10h13.10.892,Colour_Asymmetry_Pilot,2022.1.3,Win32,60.07088364,62bbe60bf3d75ef465d3e404,0,138,138,7,1,fourthree,,,,,,,,,,,,,,,,,,,,,,,,,,,,,,,,,,,,,,,,,,,,,,,,,,,,,,,,,,,,,,,,,,,,,,,,,,,,,,,,,,,,,,,,,,,,,,,,,,,,,,,,,,,,,,,,,,,,,,,,,,,,,,,,,,,,,,,,,,,,,,,,,,,,,,,
,,,,,,6010601cc932aa3661b459ec,62bbfb6da391ce9d357778e6,2022-06-29_10h13.10.892,Colour_Asymmetry_Pilot,2022.1.3,Win32,60.07088364,62bbe60bf3d75ef465d3e404,0,139,139,118,1,fourtwo,,,,,,,,,,,,,,,,,,,,,,,,,,,,,,,,,,,,,,,,,,,,,,,,,,,,,,,,,,,,,,,,,,,,,,,,,,,,,,,,,,,,,,,,,,,,,,,,,,,,,,,,,,,,,,,,,,,,,,,,,,,,,,,,,,,,,,,,,,,,,,,,,,,,,,,
,,,,,,6010601cc932aa3661b459ec,62bbfb6da391ce9d357778e6,2022-06-29_10h13.10.892,Colour_Asymmetry_Pilot,2022.1.3,Win32,60.07088364,62bbe60bf3d75ef465d3e404,0,140,140,92,1,threeone,,,,,,,,,,,,,,,,,,,,,,,,,,,,,,,,,,,,,,,,,,,,,,,,,,,,,,,,,,,,,,,,,,,,,,,,,,,,,,,,,,,,,,,,,,,,,,,,,,,,,,,,,,,,,,,,,,,,,,,,,,,,,,,,,,,,,,,,,,,,,,,,,,,,,,,
,,,,,,6010601cc932aa3661b459ec,62bbfb6da391ce9d357778e6,2022-06-29_10h13.10.892,Colour_Asymmetry_Pilot,2022.1.3,Win32,60.07088364,62bbe60bf3d75ef465d3e404,0,141,141,20,1,threeone,,,,,,,,,,,,,,,,,,,,,,,,,,,,,,,,,,,,,,,,,,,,,,,,,,,,,,,,,,,,,,,,,,,,,,,,,,,,,,,,,,,,,,,,,,,,,,,,,,,,,,,,,,,,,,,,,,,,,,,,,,,,,,,,,,,,,,,,,,,,,,,,,,,,,,,
,,,,,,6010601cc932aa3661b459ec,62bbfb6da391ce9d357778e6,2022-06-29_10h13.10.892,Colour_Asymmetry_Pilot,2022.1.3,Win32,60.07088364,62bbe60bf3d75ef465d3e404,0,142,142,16,1,onetwo,,,,,,,,,,,,,,,,,,,,,,,,,,,,,,,,,,,,,,,,,,,,,,,,,,,,,,,,,,,,,,,,,,,,,,,,,,,,,,,,,,,,,,,,,,,,,,,,,,,,,,,,,,,,,,,,,,,,,,,,,,,,,,,,,,,,,,,,,,,,,,,,,,,,,,,
,,,,,,6010601cc932aa3661b459ec,62bbfb6da391ce9d357778e6,2022-06-29_10h13.10.892,Colour_Asymmetry_Pilot,2022.1.3,Win32,60.07088364,62bbe60bf3d75ef465d3e404,0,143,143,114,1,twoone,,,,,,,,,,,,,,,,,,,,,,,,,,,,,,,,,,,,,,,,,,,,,,,,,,,,,,,,,,,,,,,,,,,,,,,,,,,,,,,,,,,,,,,,,,,,,,,,,,,,,,,,,,,,,,,,,,,,,,,,,,,,,,,,,,,,,,,,,,,,,,,,,,,,,,,
,,,,,,6010601cc932aa3661b459ec,62bbfb6da391ce9d357778e6,2022-06-29_10h13.10.892,Colour_Asymmetry_Pilot,2022.1.3,Win32,60.07088364,62bbe60bf3d75ef465d3e404,0,144,144,129,1,onethree,,,,,,,,,,,,,,,,,,,,,,,,,,,,,,,,,,,,,,,,,,,,,,,,,,,,,,,,,,,,,,,,,,,,,,,,,,,,,,,,,,,,,,,,,,,,,,,,,,,,,,,,,,,,,,,,,,,,,,,,,,,,,,,,,,,,,,,,,,,,,,,,,,,,,,,
,,,,,,6010601cc932aa3661b459ec,62bbfb6da391ce9d357778e6,2022-06-29_10h13.10.892,Colour_Asymmetry_Pilot,2022.1.3,Win32,60.07088364,62bbe60bf3d75ef465d3e404,0,145,145,90,1,twoone,,,,,,,,,,,,,,,,,,,,,,,,,,,,,,,,,,,,,,,,,,,,,,,,,,,,,,,,,,,,,,,,,,,,,,,,,,,,,,,,,,,,,,,,,,,,,,,,,,,,,,,,,,,,,,,,,,,,,,,,,,,,,,,,,,,,,,,,,,,,,,,,,,,,,,,
,,,,,,6010601cc932aa3661b459ec,62bbfb6da391ce9d357778e6,2022-06-29_10h13.10.892,Colour_Asymmetry_Pilot,2022.1.3,Win32,60.07088364,62bbe60bf3d75ef465d3e404,0,146,146,89,1,onethree,,,,,,,,,,,,,,,,,,,,,,,,,,,,,,,,,,,,,,,,,,,,,,,,,,,,,,,,,,,,,,,,,,,,,,,,,,,,,,,,,,,,,,,,,,,,,,,,,,,,,,,,,,,,,,,,,,,,,,,,,,,,,,,,,,,,,,,,,,,,,,,,,,,,,,,
,,,,,,6010601cc932aa3661b459ec,62bbfb6da391ce9d357778e6,2022-06-29_10h13.10.892,Colour_Asymmetry_Pilot,2022.1.3,Win32,60.07088364,62bbe60bf3d75ef465d3e404,0,147,147,68,1,threeone,,,,,,,,,,,,,,,,,,,,,,,,,,,,,,,,,,,,,,,,,,,,,,,,,,,,,,,,,,,,,,,,,,,,,,,,,,,,,,,,,,,,,,,,,,,,,,,,,,,,,,,,,,,,,,,,,,,,,,,,,,,,,,,,,,,,,,,,,,,,,,,,,,,,,,,
,,,,,,6010601cc932aa3661b459ec,62bbfb6da391ce9d357778e6,2022-06-29_10h13.10.892,Colour_Asymmetry_Pilot,2022.1.3,Win32,60.07088364,62bbe60bf3d75ef465d3e404,0,148,148,104,1,onetwo,,,,,,,,,,,,,,,,,,,,,,,,,,,,,,,,,,,,,,,,,,,,,,,,,,,,,,,,,,,,,,,,,,,,,,,,,,,,,,,,,,,,,,,,,,,,,,,,,,,,,,,,,,,,,,,,,,,,,,,,,,,,,,,,,,,,,,,,,,,,,,,,,,,,,,,
,,,,,,6010601cc932aa3661b459ec,62bbfb6da391ce9d357778e6,2022-06-29_10h13.10.892,Colour_Asymmetry_Pilot,2022.1.3,Win32,60.07088364,62bbe60bf3d75ef465d3e404,0,149,149,63,1,fourthree,,,,,,,,,,,,,,,,,,,,,,,,,,,,,,,,,,,,,,,,,,,,,,,,,,,,,,,,,,,,,,,,,,,,,,,,,,,,,,,,,,,,,,,,,,,,,,,,,,,,,,,,,,,,,,,,,,,,,,,,,,,,,,,,,,,,,,,,,,,,,,,,,,,,,,,
,,,,,,6010601cc932aa3661b459ec,62bbfb6da391ce9d357778e6,2022-06-29_10h13.10.892,Colour_Asymmetry_Pilot,2022.1.3,Win32,60.07088364,62bbe60bf3d75ef465d3e404,0,150,150,113,1,onethree,,,,,,,,,,,,,,,,,,,,,,,,,,,,,,,,,,,,,,,,,,,,,,,,,,,,,,,,,,,,,,,,,,,,,,,,,,,,,,,,,,,,,,,,,,,,,,,,,,,,,,,,,,,,,,,,,,,,,,,,,,,,,,,,,,,,,,,,,,,,,,,,,,,,,,,
,,,,,,6010601cc932aa3661b459ec,62bbfb6da391ce9d357778e6,2022-06-29_10h13.10.892,Colour_Asymmetry_Pilot,2022.1.3,Win32,60.07088364,62bbe60bf3d75ef465d3e404,0,151,151,76,1,threeone,,,,,,,,,,,,,,,,,,,,,,,,,,,,,,,,,,,,,,,,,,,,,,,,,,,,,,,,,,,,,,,,,,,,,,,,,,,,,,,,,,,,,,,,,,,,,,,,,,,,,,,,,,,,,,,,,,,,,,,,,,,,,,,,,,,,,,,,,,,,,,,,,,,,,,,
,,,,,,6010601cc932aa3661b459ec,62bbfb6da391ce9d357778e6,2022-06-29_10h13.10.892,Colour_Asymmetry_Pilot,2022.1.3,Win32,60.07088364,62bbe60bf3d75ef465d3e404,0,152,152,35,1,twofour,,,,,,,,,,,,,,,,,,,,,,,,,,,,,,,,,,,,,,,,,,,,,,,,,,,,,,,,,,,,,,,,,,,,,,,,,,,,,,,,,,,,,,,,,,,,,,,,,,,,,,,,,,,,,,,,,,,,,,,,,,,,,,,,,,,,,,,,,,,,,,,,,,,,,,,
,,,,,,6010601cc932aa3661b459ec,62bbfb6da391ce9d357778e6,2022-06-29_10h13.10.892,Colour_Asymmetry_Pilot,2022.1.3,Win32,60.07088364,62bbe60bf3d75ef465d3e404,0,153,153,101,1,threefour,,,,,,,,,,,,,,,,,,,,,,,,,,,,,,,,,,,,,,,,,,,,,,,,,,,,,,,,,,,,,,,,,,,,,,,,,,,,,,,,,,,,,,,,,,,,,,,,,,,,,,,,,,,,,,,,,,,,,,,,,,,,,,,,,,,,,,,,,,,,,,,,,,,,,,,
,,,,,,6010601cc932aa3661b459ec,62bbfb6da391ce9d357778e6,2022-06-29_10h13.10.892,Colour_Asymmetry_Pilot,2022.1.3,Win32,60.07088364,62bbe60bf3d75ef465d3e404,0,154,154,30,1,fourtwo,,,,,,,,,,,,,,,,,,,,,,,,,,,,,,,,,,,,,,,,,,,,,,,,,,,,,,,,,,,,,,,,,,,,,,,,,,,,,,,,,,,,,,,,,,,,,,,,,,,,,,,,,,,,,,,,,,,,,,,,,,,,,,,,,,,,,,,,,,,,,,,,,,,,,,,
,,,,,,6010601cc932aa3661b459ec,62bbfb6da391ce9d357778e6,2022-06-29_10h13.10.892,Colour_Asymmetry_Pilot,2022.1.3,Win32,60.07088364,62bbe60bf3d75ef465d3e404,0,155,155,38,1,fourtwo,,,,,,,,,,,,,,,,,,,,,,,,,,,,,,,,,,,,,,,,,,,,,,,,,,,,,,,,,,,,,,,,,,,,,,,,,,,,,,,,,,,,,,,,,,,,,,,,,,,,,,,,,,,,,,,,,,,,,,,,,,,,,,,,,,,,,,,,,,,,,,,,,,,,,,,
,,,,,,6010601cc932aa3661b459ec,62bbfb6da391ce9d357778e6,2022-06-29_10h13.10.892,Colour_Asymmetry_Pilot,2022.1.3,Win32,60.07088364,62bbe60bf3d75ef465d3e404,0,156,156,43,1,twofour,,,,,,,,,,,,,,,,,,,,,,,,,,,,,,,,,,,,,,,,,,,,,,,,,,,,,,,,,,,,,,,,,,,,,,,,,,,,,,,,,,,,,,,,,,,,,,,,,,,,,,,,,,,,,,,,,,,,,,,,,,,,,,,,,,,,,,,,,,,,,,,,,,,,,,,
,,,,,,6010601cc932aa3661b459ec,62bbfb6da391ce9d357778e6,2022-06-29_10h13.10.892,Colour_Asymmetry_Pilot,2022.1.3,Win32,60.07088364,62bbe60bf3d75ef465d3e404,0,157,157,93,1,threefour,,,,,,,,,,,,,,,,,,,,,,,,,,,,,,,,,,,,,,,,,,,,,,,,,,,,,,,,,,,,,,,,,,,,,,,,,,,,,,,,,,,,,,,,,,,,,,,,,,,,,,,,,,,,,,,,,,,,,,,,,,,,,,,,,,,,,,,,,,,,,,,,,,,,,,,
,,,,,,6010601cc932aa3661b459ec,62bbfb6da391ce9d357778e6,2022-06-29_10h13.10.892,Colour_Asymmetry_Pilot,2022.1.3,Win32,60.07088364,62bbe60bf3d75ef465d3e404,0,158,158,73,1,onethree,,,,,,,,,,,,,,,,,,,,,,,,,,,,,,,,,,,,,,,,,,,,,,,,,,,,,,,,,,,,,,,,,,,,,,,,,,,,,,,,,,,,,,,,,,,,,,,,,,,,,,,,,,,,,,,,,,,,,,,,,,,,,,,,,,,,,,,,,,,,,,,,,,,,,,,
,,,,,,6010601cc932aa3661b459ec,62bbfb6da391ce9d357778e6,2022-06-29_10h13.10.892,Colour_Asymmetry_Pilot,2022.1.3,Win32,60.07088364,62bbe60bf3d75ef465d3e404,0,159,159,25,1,onethree,,,,,,,,,,,,,,,,,,,,,,,,,,,,,,,,,,,,,,,,,,,,,,,,,,,,,,,,,,,,,,,,,,,,,,,,,,,,,,,,,,,,,,,,,,,,,,,,,,,,,,,,,,,,,,,,,,,,,,,,,,,,,,,,,,,,,,,,,,,,,,,,,,,,,,,
,,,,,,6010601cc932aa3661b459ec,62bbfb6da391ce9d357778e6,2022-06-29_10h13.10.892,Colour_Asymmetry_Pilot,2022.1.3,Win32,60.07088364,62bbe60bf3d75ef465d3e404,0,160,160,91,1,twofour,,,,,,,,,,,,,,,,,,,,,,,,,,,,,,,,,,,,,,,,,,,,,,,,,,,,,,,,,,,,,,,,,,,,,,,,,,,,,,,,,,,,,,,,,,,,,,,,,,,,,,,,,,,,,,,,,,,,,,,,,,,,,,,,,,,,,,,,,,,,,,,,,,,,,,,
,,,,,,6010601cc932aa3661b459ec,62bbfb6da391ce9d357778e6,2022-06-29_10h13.10.892,Colour_Asymmetry_Pilot,2022.1.3,Win32,60.07088364,62bbe60bf3d75ef465d3e404,0,161,161,46,1,fourtwo,,,,,,,,,,,,,,,,,,,,,,,,,,,,,,,,,,,,,,,,,,,,,,,,,,,,,,,,,,,,,,,,,,,,,,,,,,,,,,,,,,,,,,,,,,,,,,,,,,,,,,,,,,,,,,,,,,,,,,,,,,,,,,,,,,,,,,,,,,,,,,,,,,,,,,,
,,,,,,6010601cc932aa3661b459ec,62bbfb6da391ce9d357778e6,2022-06-29_10h13.10.892,Colour_Asymmetry_Pilot,2022.1.3,Win32,60.07088364,62bbe60bf3d75ef465d3e404,,,,,,,space,1.236,space,13.8806,space,15.8334,space,7.1002,space,2.2927,space,3.3655,"[-0.4902000000000001,0.2704,-0.45899999999999996]",threeone,"[0.34099999999999997,0.12939999999999996,-0.9766]",-4,8.3549,-39,113.5,1,0,0,response7disk_5,-2,3.5,1,0,0,rectangle_8,-2,3.5,1,0,0,3,-2,3.5,1,0,0,0,0,0,0,1,,,,,,,,,,,,,,,,,,,,,,,,,,,,,,,,,,,,,,,,,,,,,,,,,,,,,,,,,,,,,,,,,,,,,,,,,,,,,,,,,,,,,,,,,,,,,,,,,,,,,,,,,,
,,,,,,6010601cc932aa3661b459ec,62bbfb6da391ce9d357778e6,2022-06-29_10h13.10.892,Colour_Asymmetry_Pilot,2022.1.3,Win32,60.07088364,62bbe60bf3d75ef465d3e404,,,,,,,,,,,,,,,,,,,"[0.2784,-0.31000000000000005,-0.5452]",onethree,"[-0.5688,-0.08239999999999992,-0.1844]",-4,2.616,-70,101.5,1,0,0,response7disk_5,4,5.5,1,0,0,rectangle_8,4,5.5,1,0,0,3,4,5.5,1,0,0,1,0,1,0,1,,,,,,,,,,,,,,,,,,,,,,,,,,,,,,,,,,,,,,,,,,,,,,,,,,,,,,,,,,,,,,,,,,,,,,,,,,,,,,,,,,,,,,,,,,,,,,,,,,,,,,,,,,
,,,,,,6010601cc932aa3661b459ec,62bbfb6da391ce9d357778e6,2022-06-29_10h13.10.892,Colour_Asymmetry_Pilot,2022.1.3,Win32,60.07088364,62bbe60bf3d75ef465d3e404,,,,,,,,,,,,,,,,,,,"[0.9842,0.7409999999999999,-0.6628000000000001]",fourthree,"[-0.2942,-0.7648,-0.7492000000000001]",-4,2.616,-25,54.5,1,0,0,response7disk_5,9,-2.5,1,0,0,rectangle_8,9,-2.5,1,0,0,3,9,-2.5,1,0,0,2,0,2,0,1,,,,,,,,,,,,,,,,,,,,,,,,,,,,,,,,,,,,,,,,,,,,,,,,,,,,,,,,,,,,,,,,,,,,,,,,,,,,,,,,,,,,,,,,,,,,,,,,,,,,,,,,,,
,,,,,,6010601cc932aa3661b459ec,62bbfb6da391ce9d357778e6,2022-06-29_10h13.10.892,Colour_Asymmetry_Pilot,2022.1.3,Win32,60.07088364,62bbe60bf3d75ef465d3e404,,,,,,,,,,,,,,,,,,,"[-0.6706000000000001,-0.6157999999999999,-0.6786]",threefour,"[0.37240000000000006,0.4980000000000002,-0.2864]",-2,2.2001,-75,-38.5,1,0,0,response5disk_5,13,-0.5,1,0,0,rectangle_8,13,-0.5,1,0,0,3,13,-0.5,1,0,0,3,0,3,0,1,,,,,,,,,,,,,,,,,,,,,,,,,,,,,,,,,,,,,,,,,,,,,,,,,,,,,,,,,,,,,,,,,,,,,,,,,,,,,,,,,,,,,,,,,,,,,,,,,,,,,,,,,,
,,,,,,6010601cc932aa3661b459ec,62bbfb6da391ce9d357778e6,2022-06-29_10h13.10.892,Colour_Asymmetry_Pilot,2022.1.3,Win32,60.07088364,62bbe60bf3d75ef465d3e404,,,,,,,,,,,,,,,,,,,"[0.11359999999999992,0.6312,0.5213999999999999]",threeone,"[-0.10599999999999998,-0.15300000000000002,0.15280000000000005]",-1,3.2,-73,-93.5,1,0,0,response5disk_5,2,2.5,1,0,0,rectangle_8,127,47.5,1,0,0,3,-13,3.5,1,0,0,4,0,4,0,1,response1disk_7,6,rectangle_4,,,,,,,,,,,,,,,,,,,,,,,,,,,,,,,,,,,,,,,,,,,,,,,,,,,,,,,,,,,,,,,,,,,,,,,,,,,,,,,,,,,,,,,,,,,,,,,,,,,,,,,
,,,,,,6010601cc932aa3661b459ec,62bbfb6da391ce9d357778e6,2022-06-29_10h13.10.892,Colour_Asymmetry_Pilot,2022.1.3,Win32,60.07088364,62bbe60bf3d75ef465d3e404,,,,,,,,,,,,,,,,,,,"[0.0351999999999999,0.41159999999999997,0.0038000000000000256]",fourtwo,"[0.9842,0.7409999999999999,-0.6628000000000001]",-2,1.8663,-97,-38.5,1,0,0,response5disk_5,7,-6.5,1,0,0,rectangle_8,7,-6.5,1,0,0,3,7,-6.5,1,0,0,5,0,5,0,1,,,,,,,,,,,,,,,,,,,,,,,,,,,,,,,,,,,,,,,,,,,,,,,,,,,,,,,,,,,,,,,,,,,,,,,,,,,,,,,,,,,,,,,,,,,,,,,,,,,,,,,,,,
,,,,,,6010601cc932aa3661b459ec,62bbfb6da391ce9d357778e6,2022-06-29_10h13.10.892,Colour_Asymmetry_Pilot,2022.1.3,Win32,60.07088364,62bbe60bf3d75ef465d3e404,,,,,,,,,,,,,,,,,,,"[0.04299999999999993,0.16060000000000008,-0.6628000000000001]",onetwo,"[0.23920000000000008,0.2704,0.16060000000000008]",1,1.5833,66,-106.5,1,0,0,response3disk_5,2,-5.5,1,0,0,rectangle_8,2,-5.5,1,0,0,3,2,-5.5,1,0,0,6,0,6,0,1,,,,,,,,,,,,,,,,,,,,,,,,,,,,,,,,,,,,,,,,,,,,,,,,,,,,,,,,,,,,,,,,,,,,,,,,,,,,,,,,,,,,,,,,,,,,,,,,,,,,,,,,,,
,,,,,,6010601cc932aa3661b459ec,62bbfb6da391ce9d357778e6,2022-06-29_10h13.10.892,Colour_Asymmetry_Pilot,2022.1.3,Win32,60.07088364,62bbe60bf3d75ef465d3e404,,,,,,,,,,,,,,,,,,,,threefour,,2,1.2968,,,,,,,,,,,,,,,,,,,,,,,,,,,,,,,,space,2.8161,"[0.40379999999999994,0.09000000000000008,0.44300000000000006]","[-0.26280000000000003,-0.4746,-0.2158]",153,-45.5,1,0,0,response3disk,10,0.5,1,0,0,rectangle,10,0.5,1,0,0,,3,0.0009,0,10,0.5,1,0,0,0,0,0,18,1,18,first,,,,,,,,,,,,,,,,,,,,,,,,,,,,,,,,,,,,,,,,,,,,,,,,,,,,,,,,,,,,,,,,,,
,,,,,,6010601cc932aa3661b459ec,62bbfb6da391ce9d357778e6,2022-06-29_10h13.10.892,Colour_Asymmetry_Pilot,2022.1.3,Win32,60.07088364,62bbe60bf3d75ef465d3e404,,,,,,,,,,,,,,,,,,,,threeone,,-1,1.1169,,,,,,,,,,,,,,,,,,,,,,,,,,,,,,,,,,"[-0.10599999999999998,-0.15300000000000002,0.15280000000000005]","[-0.5452,-0.608,0.2470000000000001]",-30,-84.5,1,0,0,response5disk,-10,0.5,1,0,0,rectangle,-10,0.5,1,0,0,,3,0.0007,0,-10,0.5,1,0,0,0,1,1,100,1,19,second,,,,,,,,,,,,,,,,,,,,,,,,,,,,,,,,,,,,,,,,,,,,,,,,,,,,,,,,,,,,,,,,,,
,,,,,,6010601cc932aa3661b459ec,62bbfb6da391ce9d357778e6,2022-06-29_10h13.10.892,Colour_Asymmetry_Pilot,2022.1.3,Win32,60.07088364,62bbe60bf3d75ef465d3e404,,,,,,,,,,,,,,,,,,,,twofour,,-2,0.9994,,,,,,,,,,,,,,,,,,,,,,,,,,,,,,,,,,"[-0.17659999999999998,0.3253999999999999,0.19999999999999996]","[-0.10599999999999998,-0.15300000000000002,0.15280000000000005]",-68,-43.5,1,0,0,response5disk,-6,-0.5,1,0,0,rectangle,-6,-0.5,1,0,0,,3,0.0002,0,-6,-0.5,1,0,0,0,2,2,33,1,33,first,,,,,,,,,,,,,,,,,,,,,,,,,,,,,,,,,,,,,,,,,,,,,,,,,,,,,,,,,,,,,,,,,,
,,,,,,6010601cc932aa3661b459ec,62bbfb6da391ce9d357778e6,2022-06-29_10h13.10.892,Colour_Asymmetry_Pilot,2022.1.3,Win32,60.07088364,62bbe60bf3d75ef465d3e404,,,,,,,,,,,,,,,,,,,,fourtwo,,-4,0.9838,,,,,,,,,,,,,,,,,,,,,,,,,,,,,,,,,,"[0.8115999999999999,-0.0040000000000000036,-0.09819999999999995]","[-0.8118,-0.8198,-0.5452]",-67,104.5,1,0,0,response7disk,-16,7.5,1,0,0,rectangle,-16,7.5,1,0,0,,1,0.0012,0,-16,7.5,1,0,0,0,3,3,82,1,1,second,,,,,,,,,,,,,,,,,,,,,,,,,,,,,,,,,,,,,,,,,,,,,,,,,,,,,,,,,,,,,,,,,,
,,,,,,6010601cc932aa3661b459ec,62bbfb6da391ce9d357778e6,2022-06-29_10h13.10.892,Colour_Asymmetry_Pilot,2022.1.3,Win32,60.07088364,62bbe60bf3d75ef465d3e404,,,,,,,,,,,,,,,,,,,,threeone,,-4,0.5834,,,,,,,,,,,,,,,,,,,,,,,,,,,,,,,,,,"[0.7018,0.7176,0.6155999999999999]","[0.9372,0.20779999999999998,0.2704]",-63,92.5,1,0,0,response7disk,-11,-0.5,1,0,0,rectangle,-11,-0.5,1,0,0,,1,0.0002,0,-11,-0.5,1,0,0,0,4,4,47,1,47,first,,,,,,,,,,,,,,,,,,,,,,,,,,,,,,,,,,,,,,,,,,,,,,,,,,,,,,,,,,,,,,,,,,
,,,,,,6010601cc932aa3661b459ec,62bbfb6da391ce9d357778e6,2022-06-29_10h13.10.892,Colour_Asymmetry_Pilot,2022.1.3,Win32,60.07088364,62bbe60bf3d75ef465d3e404,,,,,,,,,,,,,,,,,,,,onetwo,,3,0.7666,,,,,,,,,,,,,,,,,,,,,,,,,,,,,,,,,,"[-0.8982,-0.37259999999999993,0.2784]","[-0.9688,-0.4902000000000001,-0.12159999999999993]",98,40.5,1,0,0,response1disk,16,-2.5,1,0,0,rectangle,16,-2.5,1,0,0,,1,0.0001,0,16,-2.5,1,0,0,0,5,5,14,1,14,first,,,,,,,,,,,,,,,,,,,,,,,,,,,,,,,,,,,,,,,,,,,,,,,,,,,,,,,,,,,,,,,,,,
,,,,,,6010601cc932aa3661b459ec,62bbfb6da391ce9d357778e6,2022-06-29_10h13.10.892,Colour_Asymmetry_Pilot,2022.1.3,Win32,60.07088364,62bbe60bf3d75ef465d3e404,,,,,,,,,,,,,,,,,,,,onetwo,,-3,0.7489,,,,,,,,,,,,,,,,,,,,,,,,,,,,,,,,,,"[0.19199999999999995,0.18419999999999992,0.5136000000000001]","[-0.7412000000000001,-0.08239999999999992,-0.6864]",-94,34.5,1,0,0,response7disk,-3,2.5,1,0,0,rectangle,-3,2.5,1,0,0,,1,0.0002,0,-3,2.5,1,0,0,0,6,6,59,1,59,first,,,,,,,,,,,,,,,,,,,,,,,,,,,,,,,,,,,,,,,,,,,,,,,,,,,,,,,,,,,,,,,,,,
,,,,,,6010601cc932aa3661b459ec,62bbfb6da391ce9d357778e6,2022-06-29_10h13.10.892,Colour_Asymmetry_Pilot,2022.1.3,Win32,60.07088364,62bbe60bf3d75ef465d3e404,,,,,,,,,,,,,,,,,,,,fourtwo,,2,0.5163,,,,,,,,,,,,,,,,,,,,,,,,,,,,,,,,,,"[0.8115999999999999,-0.0040000000000000036,-0.09819999999999995]","[0.8274000000000001,-0.5844,-0.9452]",90,-40.5,1,0,0,response3disk,14,-7.5,1,0,0,rectangle,14,-7.5,1,0,0,,1,0.0001,0,14,-7.5,1,0,0,0,7,7,68,1,68,first,,,,,,,,,,,,,,,,,,,,,,,,,,,,,,,,,,,,,,,,,,,,,,,,,,,,,,,,,,,,,,,,,,
,,,,,,6010601cc932aa3661b459ec,62bbfb6da391ce9d357778e6,2022-06-29_10h13.10.892,Colour_Asymmetry_Pilot,2022.1.3,Win32,60.07088364,62bbe60bf3d75ef465d3e404,,,,,,,,,,,,,,,,,,,,threefour,,-4,0.532,,,,,,,,,,,,,,,,,,,,,,,,,,,,,,,,,,"[-0.17659999999999998,0.3253999999999999,0.19999999999999996]","[1,0.12939999999999996,-1]",-58,103.5,1,0,0,response7disk,1,-7.5,1,0,0,rectangle,1,-7.5,1,0,0,,2,0.0004,0,1,-7.5,1,0,0,0,8,8,32,1,32,first,,,,,,,,,,,,,,,,,,,,,,,,,,,,,,,,,,,,,,,,,,,,,,,,,,,,,,,,,,,,,,,,,,
,,,,,,6010601cc932aa3661b459ec,62bbfb6da391ce9d357778e6,2022-06-29_10h13.10.892,Colour_Asymmetry_Pilot,2022.1.3,Win32,60.07088364,62bbe60bf3d75ef465d3e404,,,,,,,,,,,,,,,,,,,,onethree,,-4,0.3999,,,,,,,,,,,,,,,,,,,,,,,,,,,,,,,,,,"[-0.6706000000000001,-0.6157999999999999,-0.6786]","[0.5449999999999999,-0.31000000000000005,-0.0354000000000001]",-63,109.5,1,0,0,response7disk,-2,-1.5,1,0,0,rectangle,-2,-1.5,1,0,0,,2,0.0001,0,-2,-1.5,1,0,0,0,9,9,37,1,37,first,,,,,,,,,,,,,,,,,,,,,,,,,,,,,,,,,,,,,,,,,,,,,,,,,,,,,,,,,,,,,,,,,,
,,,,,,6010601cc932aa3661b459ec,62bbfb6da391ce9d357778e6,2022-06-29_10h13.10.892,Colour_Asymmetry_Pilot,2022.1.3,Win32,60.07088364,62bbe60bf3d75ef465d3e404,,,,,,,,,,,,,,,,,,,,threefour,,-2,1.0166,,,,,,,,,,,,,,,,,,,,,,,,,,,,,,,,,,"[-0.6,0.16860000000000008,0.44300000000000006]","[-0.9844,-0.9688,-0.9922]",-68,-41.5,1,0,0,response5disk,19,-9.5,1,0,0,rectangle,19,-9.5,1,0,0,,3,0.0016,0,19,-9.5,1,0,0,0,10,10,53,1,53,first,,,,,,,,,,,,,,,,,,,,,,,,,,,,,,,,,,,,,,,,,,,,,,,,,,,,,,,,,,,,,,,,,,
,,,,,,6010601cc932aa3661b459ec,62bbfb6da391ce9d357778e6,2022-06-29_10h13.10.892,Colour_Asymmetry_Pilot,2022.1.3,Win32,60.07088364,62bbe60bf3d75ef465d3e404,,,,,,,,,,,,,,,,,,,,fourthree,,-3,0.3669,,,,,,,,,,,,,,,,,,,,,,,,,,,,,,,,,,"[-0.6235999999999999,-0.6786,-0.08239999999999992]","[-0.06680000000000008,-0.45100000000000007,-0.906]",-103,48.5,1,0,0,response7disk,-7,-12.5,1,0,0,rectangle,-7,-12.5,1,0,0,,1,0.0013,0,-7,-12.5,1,0,0,0,11,11,24,1,24,first,,,,,,,,,,,,,,,,,,,,,,,,,,,,,,,,,,,,,,,,,,,,,,,,,,,,,,,,,,,,,,,,,,
,,,,,,6010601cc932aa3661b459ec,62bbfb6da391ce9d357778e6,2022-06-29_10h13.10.892,Colour_Asymmetry_Pilot,2022.1.3,Win32,60.07088364,62bbe60bf3d75ef465d3e404,,,,,,,,,,,,,,,,,,,,onetwo,,-3,0.3833,,,,,,,,,,,,,,,,,,,,,,,,,,,,,,,,,,"[0.796,0.2156,-0.27859999999999996]","[-0.07459999999999989,0.12139999999999995,-0.9922]",-100,57.5,1,0,0,response7disk,-6,5.5,1,0,0,rectangle,123,61.5,1,0,0,3,3,1.8833,1,12,7.5,1,0,0,0,12,12,161,1,80,second,response1disk_3,rectangle,,,,,,,,,,,,,,,,,,,,,,,,,,,,,,,,,,,,,,,,,,,,,,,,,,,,,,,,,,,,,,,,
,,,,,,6010601cc932aa3661b459ec,62bbfb6da391ce9d357778e6,2022-06-29_10h13.10.892,Colour_Asymmetry_Pilot,2022.1.3,Win32,60.07088364,62bbe60bf3d75ef465d3e404,,,,,,,,,,,,,,,,,,,,twofour,,-4,0.6881,,,,,,,,,,,,,,,,,,,,,,,,,,,,,,,,,,"[0.04299999999999993,0.16060000000000008,-0.6628000000000001]","[0.7176,-0.906,-0.6864]",-71,92.5,1,0,0,response7disk,-15,-0.5,1,0,0,rectangle,-15,-0.5,1,0,0,3,1,0.0006,0,-15,-0.5,1,0,0,0,13,13,137,1,56,second,,,,,,,,,,,,,,,,,,,,,,,,,,,,,,,,,,,,,,,,,,,,,,,,,,,,,,,,,,,,,,,,,,
,,,,,,6010601cc932aa3661b459ec,62bbfb6da391ce9d357778e6,2022-06-29_10h13.10.892,Colour_Asymmetry_Pilot,2022.1.3,Win32,60.07088364,62bbe60bf3d75ef465d3e404,,,,,,,,,,,,,,,,,,,,fourthree,,-2,0.5836,,,,,,,,,,,,,,,,,,,,,,,,,,,,,,,,,,"[-0.5452,-0.608,0.2470000000000001]","[-0.34920000000000007,-0.702,-0.5216]",-115,-46.5,1,0,0,response5disk,11,4.5,1,0,0,rectangle,11,4.5,1,0,0,3,3,0.0019,0,11,4.5,1,0,0,0,14,14,62,1,62,first,,,,,,,,,,,,,,,,,,,,,,,,,,,,,,,,,,,,,,,,,,,,,,,,,,,,,,,,,,,,,,,,,,
,,,,,,6010601cc932aa3661b459ec,62bbfb6da391ce9d357778e6,2022-06-29_10h13.10.892,Colour_Asymmetry_Pilot,2022.1.3,Win32,60.07088364,62bbe60bf3d75ef465d3e404,,,,,,,,,,,,,,,,,,,,fourthree,,-3,0.4465,,,,,,,,,,,,,,,,,,,,,,,,,,,,,,,,,,"[-0.24719999999999998,-0.0354000000000001,0.3175999999999999]","[0.3568,-0.20799999999999996,-0.9844]",-102,47.5,1,0,0,response7disk,-6,1.5,1,0,0,rectangle,-6,1.5,1,0,0,3,3,0.0001,0,-6,1.5,1,0,0,0,15,15,81,1,0,second,,,,,,,,,,,,,,,,,,,,,,,,,,,,,,,,,,,,,,,,,,,,,,,,,,,,,,,,,,,,,,,,,,
,,,,,,6010601cc932aa3661b459ec,62bbfb6da391ce9d357778e6,2022-06-29_10h13.10.892,Colour_Asymmetry_Pilot,2022.1.3,Win32,60.07088364,62bbe60bf3d75ef465d3e404,,,,,,,,,,,,,,,,,,,,fourtwo,,-4,0.5458,,,,,,,,,,,,,,,,,,,,,,,,,,,,,,,,,,"[-0.4668,-0.8746,-0.2942]","[0.4196,0.4665999999999999,0.3568]",-64,103.5,1,0,0,response7disk,-7,0.5,1,0,0,rectangle,-7,0.5,1,0,0,3,2,0.0005,0,-7,0.5,1,0,0,0,16,16,8,1,8,first,,,,,,,,,,,,,,,,,,,,,,,,,,,,,,,,,,,,,,,,,,,,,,,,,,,,,,,,,,,,,,,,,,
,,,,,,6010601cc932aa3661b459ec,62bbfb6da391ce9d357778e6,2022-06-29_10h13.10.892,Colour_Asymmetry_Pilot,2022.1.3,Win32,60.07088364,62bbe60bf3d75ef465d3e404,,,,,,,,,,,,,,,,,,,,onetwo,,-3,0.3678,,,,,,,,,,,,,,,,,,,,,,,,,,,,,,,,,,"[0.6547999999999998,-0.043199999999999905,-0.011800000000000033]","[0.19199999999999995,0.18419999999999992,0.5136000000000001]",-79,48.5,1,0,0,response7disk,-8,-1.5,1,0,0,rectangle,-8,-1.5,1,0,0,3,3,0.0005,0,-8,-1.5,1,0,0,0,17,17,139,1,58,second,,,,,,,,,,,,,,,,,,,,,,,,,,,,,,,,,,,,,,,,,,,,,,,,,,,,,,,,,,,,,,,,,,
,,,,,,6010601cc932aa3661b459ec,62bbfb6da391ce9d357778e6,2022-06-29_10h13.10.892,Colour_Asymmetry_Pilot,2022.1.3,Win32,60.07088364,62bbe60bf3d75ef465d3e404,,,,,,,,,,,,,,,,,,,,fourthree,,-4,0.3156,,,,,,,,,,,,,,,,,,,,,,,,,,,,,,,,,,"[0.34099999999999997,0.12939999999999996,-0.9766]","[-0.5452,-0.608,0.2470000000000001]",-39,76.5,1,0,0,response7disk,-2,-0.5,1,0,0,rectangle,-2,-0.5,1,0,0,3,2,0.0016,0,-2,-0.5,1,0,0,0,18,18,107,1,26,second,,,,,,,,,,,,,,,,,,,,,,,,,,,,,,,,,,,,,,,,,,,,,,,,,,,,,,,,,,,,,,,,,,
,,,,,,6010601cc932aa3661b459ec,62bbfb6da391ce9d357778e6,2022-06-29_10h13.10.892,Colour_Asymmetry_Pilot,2022.1.3,Win32,60.07088364,62bbe60bf3d75ef465d3e404,,,,,,,,,,,,,,,,,,,,threefour,,-4,0.3499,,,,,,,,,,,,,,,,,,,,,,,,,,,,,,,,,,"[0.8274000000000001,-0.5844,-0.9452]","[-0.48240000000000005,0.3175999999999999,0.2156]",-49,101.5,1,0,0,response7disk,-2,7.5,1,0,0,rectangle,-2,7.5,1,0,0,3,1,0.0017,0,-2,7.5,1,0,0,0,19,19,65,1,65,first,,,,,,,,,,,,,,,,,,,,,,,,,,,,,,,,,,,,,,,,,,,,,,,,,,,,,,,,,,,,,,,,,,
,,,,,,6010601cc932aa3661b459ec,62bbfb6da391ce9d357778e6,2022-06-29_10h13.10.892,Colour_Asymmetry_Pilot,2022.1.3,Win32,60.07088364,62bbe60bf3d75ef465d3e404,,,,,,,,,,,,,,,,,,,,twofour,,-3,0.387,,,,,,,,,,,,,,,,,,,,,,,,,,,,,,,,,,"[-0.06680000000000008,-0.45100000000000007,-0.906]","[0.4196,0.4665999999999999,0.3568]",-93,51.5,1,0,0,response7disk,-22,10.5,1,0,0,rectangle,-22,10.5,1,0,0,3,2,0.0006,0,-22,10.5,1,0,0,0,20,20,155,1,74,second,,,,,,,,,,,,,,,,,,,,,,,,,,,,,,,,,,,,,,,,,,,,,,,,,,,,,,,,,,,,,,,,,,
