trials.thisRepN,trials.thisTrialN,trials.thisN,trials.thisIndex,trials.ran,Colourcodes,participant,session,date,expName,psychopyVersion,OS,frameRate,study_id,trials_4.thisRepN,trials_4.thisTrialN,trials_4.thisN,trials_4.thisIndex,trials_4.ran,StimulusPos,key_resp.keys,key_resp.rt,key_resp_2.keys,key_resp_2.rt,key_resp_15.keys,key_resp_15.rt,key_resp_17.keys,key_resp_17.rt,key_resp_9.keys,key_resp_9.rt,key_resp_10.keys,key_resp_10.rt,Circle1_col,Ecc,Circle2_col,similarity,response_time,mouse_5.x,mouse_5.y,mouse_5.leftButton,mouse_5.midButton,mouse_5.rightButton,mouse_5.clicked_name,mouse_10.x,mouse_10.y,mouse_10.leftButton,mouse_10.midButton,mouse_10.rightButton,mouse_10.clicked_name,mouse_7.x,mouse_7.y,mouse_7.leftButton,mouse_7.midButton,mouse_7.rightButton,catchnumberprac,mouse_6.x,mouse_6.y,mouse_6.leftButton,mouse_6.midButton,mouse_6.rightButton,duringprac.thisRepN,duringprac.thisTrialN,duringprac.thisN,duringprac.thisIndex,duringprac.ran,key_resp_22.keys,key_resp_22.rt,Circle1_colour,Circle2_colour,mouse.x,mouse.y,mouse.leftButton,mouse.midButton,mouse.rightButton,mouse.clicked_name,mouse_2.x,mouse_2.y,mouse_2.leftButton,mouse_2.midButton,mouse_2.rightButton,mouse_2.clicked_name,mouse_3.x,mouse_3.y,mouse_3.leftButton,mouse_3.midButton,mouse_3.rightButton,catchresponse,catchnumber,response_time_catch,Catch,mouse_11.x,mouse_11.y,mouse_11.leftButton,mouse_11.midButton,mouse_11.rightButton,trials_2.thisRepN,trials_2.thisTrialN,trials_2.thisN,trials_2.thisIndex,trials_2.ran,Colourpair,Temporder,mouse_3.clicked_name,mouse_11.clicked_name,trials_3.thisRepN,trials_3.thisTrialN,trials_3.thisN,trials_3.thisIndex,trials_3.ran,key_resp_instr_Ishi.keys,key_resp_instr_Ishi.rt,Ishi_trial_keyresp.keys,Ishi_trial_keyresp.rt,Ishi_textbox.text,Ishi_loop.thisRepN,Ishi_loop.thisTrialN,Ishi_loop.thisN,Ishi_loop.thisIndex,Ishi_loop.ran,imageaddress,textbox.text,mouse_4.x,mouse_4.y,mouse_4.leftButton,mouse_4.midButton,mouse_4.rightButton,mouse_4.clicked_name,textbox_2.text,mouse_8.x,mouse_8.y,mouse_8.leftButton,mouse_8.midButton,mouse_8.rightButton,mouse_8.clicked_name,textbox_3.text,mouse_9.x,mouse_9.y,mouse_9.leftButton,mouse_9.midButton,mouse_9.rightButton,mouse_9.clicked_name,textbox_4.text,mouse_12.x,mouse_12.y,mouse_12.leftButton,mouse_12.midButton,mouse_12.rightButton,mouse_12.clicked_name,textbox_5.text,mouse_13.x,mouse_13.y,mouse_13.leftButton,mouse_13.midButton,mouse_13.rightButton,mouse_13.clicked_name,textbox_6.text,mouse_14.x,mouse_14.y,mouse_14.leftButton,mouse_14.midButton,mouse_14.rightButton,mouse_14.clicked_name,textbox_7.text,mouse_15.x,mouse_15.y,mouse_15.leftButton,mouse_15.midButton,mouse_15.rightButton,mouse_15.clicked_name
0,0,0,92,1,,614cf1b2025f87af3ca56ebd,62bbfb7b6205431a697012c5,2022-06-29_09h27.36.556,Colour_Asymmetry_Pilot,2022.1.3,Win32,60.29908345,62bbe60bf3d75ef465d3e404,,,,,,,,,,,,,,,,,,,,,,,,,,,,,,,,,,,,,,,,,,,,,,,,,,,,,,,,,,,,,,,,,,,,,,,,,,,,,,,,,,,,,,,,,,,,,,,,,,,,,,,,,,,,,,,,,,,,,,,,,,,,,,,,,,,,,,,,,,,,,,,,,,,,,,,,,,,
0,1,1,71,1,,614cf1b2025f87af3ca56ebd,62bbfb7b6205431a697012c5,2022-06-29_09h27.36.556,Colour_Asymmetry_Pilot,2022.1.3,Win32,60.29908345,62bbe60bf3d75ef465d3e404,,,,,,,,,,,,,,,,,,,,,,,,,,,,,,,,,,,,,,,,,,,,,,,,,,,,,,,,,,,,,,,,,,,,,,,,,,,,,,,,,,,,,,,,,,,,,,,,,,,,,,,,,,,,,,,,,,,,,,,,,,,,,,,,,,,,,,,,,,,,,,,,,,,,,,,,,,,
0,2,2,54,1,,614cf1b2025f87af3ca56ebd,62bbfb7b6205431a697012c5,2022-06-29_09h27.36.556,Colour_Asymmetry_Pilot,2022.1.3,Win32,60.29908345,62bbe60bf3d75ef465d3e404,,,,,,,,,,,,,,,,,,,,,,,,,,,,,,,,,,,,,,,,,,,,,,,,,,,,,,,,,,,,,,,,,,,,,,,,,,,,,,,,,,,,,,,,,,,,,,,,,,,,,,,,,,,,,,,,,,,,,,,,,,,,,,,,,,,,,,,,,,,,,,,,,,,,,,,,,,,
0,3,3,75,1,,614cf1b2025f87af3ca56ebd,62bbfb7b6205431a697012c5,2022-06-29_09h27.36.556,Colour_Asymmetry_Pilot,2022.1.3,Win32,60.29908345,62bbe60bf3d75ef465d3e404,,,,,,,,,,,,,,,,,,,,,,,,,,,,,,,,,,,,,,,,,,,,,,,,,,,,,,,,,,,,,,,,,,,,,,,,,,,,,,,,,,,,,,,,,,,,,,,,,,,,,,,,,,,,,,,,,,,,,,,,,,,,,,,,,,,,,,,,,,,,,,,,,,,,,,,,,,,
0,4,4,90,1,,614cf1b2025f87af3ca56ebd,62bbfb7b6205431a697012c5,2022-06-29_09h27.36.556,Colour_Asymmetry_Pilot,2022.1.3,Win32,60.29908345,62bbe60bf3d75ef465d3e404,,,,,,,,,,,,,,,,,,,,,,,,,,,,,,,,,,,,,,,,,,,,,,,,,,,,,,,,,,,,,,,,,,,,,,,,,,,,,,,,,,,,,,,,,,,,,,,,,,,,,,,,,,,,,,,,,,,,,,,,,,,,,,,,,,,,,,,,,,,,,,,,,,,,,,,,,,,
0,5,5,69,1,,614cf1b2025f87af3ca56ebd,62bbfb7b6205431a697012c5,2022-06-29_09h27.36.556,Colour_Asymmetry_Pilot,2022.1.3,Win32,60.29908345,62bbe60bf3d75ef465d3e404,,,,,,,,,,,,,,,,,,,,,,,,,,,,,,,,,,,,,,,,,,,,,,,,,,,,,,,,,,,,,,,,,,,,,,,,,,,,,,,,,,,,,,,,,,,,,,,,,,,,,,,,,,,,,,,,,,,,,,,,,,,,,,,,,,,,,,,,,,,,,,,,,,,,,,,,,,,
0,6,6,61,1,,614cf1b2025f87af3ca56ebd,62bbfb7b6205431a697012c5,2022-06-29_09h27.36.556,Colour_Asymmetry_Pilot,2022.1.3,Win32,60.29908345,62bbe60bf3d75ef465d3e404,,,,,,,,,,,,,,,,,,,,,,,,,,,,,,,,,,,,,,,,,,,,,,,,,,,,,,,,,,,,,,,,,,,,,,,,,,,,,,,,,,,,,,,,,,,,,,,,,,,,,,,,,,,,,,,,,,,,,,,,,,,,,,,,,,,,,,,,,,,,,,,,,,,,,,,,,,,
0,7,7,32,1,,614cf1b2025f87af3ca56ebd,62bbfb7b6205431a697012c5,2022-06-29_09h27.36.556,Colour_Asymmetry_Pilot,2022.1.3,Win32,60.29908345,62bbe60bf3d75ef465d3e404,,,,,,,,,,,,,,,,,,,,,,,,,,,,,,,,,,,,,,,,,,,,,,,,,,,,,,,,,,,,,,,,,,,,,,,,,,,,,,,,,,,,,,,,,,,,,,,,,,,,,,,,,,,,,,,,,,,,,,,,,,,,,,,,,,,,,,,,,,,,,,,,,,,,,,,,,,,
0,8,8,37,1,,614cf1b2025f87af3ca56ebd,62bbfb7b6205431a697012c5,2022-06-29_09h27.36.556,Colour_Asymmetry_Pilot,2022.1.3,Win32,60.29908345,62bbe60bf3d75ef465d3e404,,,,,,,,,,,,,,,,,,,,,,,,,,,,,,,,,,,,,,,,,,,,,,,,,,,,,,,,,,,,,,,,,,,,,,,,,,,,,,,,,,,,,,,,,,,,,,,,,,,,,,,,,,,,,,,,,,,,,,,,,,,,,,,,,,,,,,,,,,,,,,,,,,,,,,,,,,,
0,9,9,31,1,,614cf1b2025f87af3ca56ebd,62bbfb7b6205431a697012c5,2022-06-29_09h27.36.556,Colour_Asymmetry_Pilot,2022.1.3,Win32,60.29908345,62bbe60bf3d75ef465d3e404,,,,,,,,,,,,,,,,,,,,,,,,,,,,,,,,,,,,,,,,,,,,,,,,,,,,,,,,,,,,,,,,,,,,,,,,,,,,,,,,,,,,,,,,,,,,,,,,,,,,,,,,,,,,,,,,,,,,,,,,,,,,,,,,,,,,,,,,,,,,,,,,,,,,,,,,,,,
0,10,10,62,1,,614cf1b2025f87af3ca56ebd,62bbfb7b6205431a697012c5,2022-06-29_09h27.36.556,Colour_Asymmetry_Pilot,2022.1.3,Win32,60.29908345,62bbe60bf3d75ef465d3e404,,,,,,,,,,,,,,,,,,,,,,,,,,,,,,,,,,,,,,,,,,,,,,,,,,,,,,,,,,,,,,,,,,,,,,,,,,,,,,,,,,,,,,,,,,,,,,,,,,,,,,,,,,,,,,,,,,,,,,,,,,,,,,,,,,,,,,,,,,,,,,,,,,,,,,,,,,,
0,11,11,29,1,,614cf1b2025f87af3ca56ebd,62bbfb7b6205431a697012c5,2022-06-29_09h27.36.556,Colour_Asymmetry_Pilot,2022.1.3,Win32,60.29908345,62bbe60bf3d75ef465d3e404,,,,,,,,,,,,,,,,,,,,,,,,,,,,,,,,,,,,,,,,,,,,,,,,,,,,,,,,,,,,,,,,,,,,,,,,,,,,,,,,,,,,,,,,,,,,,,,,,,,,,,,,,,,,,,,,,,,,,,,,,,,,,,,,,,,,,,,,,,,,,,,,,,,,,,,,,,,
0,12,12,33,1,,614cf1b2025f87af3ca56ebd,62bbfb7b6205431a697012c5,2022-06-29_09h27.36.556,Colour_Asymmetry_Pilot,2022.1.3,Win32,60.29908345,62bbe60bf3d75ef465d3e404,,,,,,,,,,,,,,,,,,,,,,,,,,,,,,,,,,,,,,,,,,,,,,,,,,,,,,,,,,,,,,,,,,,,,,,,,,,,,,,,,,,,,,,,,,,,,,,,,,,,,,,,,,,,,,,,,,,,,,,,,,,,,,,,,,,,,,,,,,,,,,,,,,,,,,,,,,,
0,13,13,76,1,,614cf1b2025f87af3ca56ebd,62bbfb7b6205431a697012c5,2022-06-29_09h27.36.556,Colour_Asymmetry_Pilot,2022.1.3,Win32,60.29908345,62bbe60bf3d75ef465d3e404,,,,,,,,,,,,,,,,,,,,,,,,,,,,,,,,,,,,,,,,,,,,,,,,,,,,,,,,,,,,,,,,,,,,,,,,,,,,,,,,,,,,,,,,,,,,,,,,,,,,,,,,,,,,,,,,,,,,,,,,,,,,,,,,,,,,,,,,,,,,,,,,,,,,,,,,,,,
0,14,14,11,1,,614cf1b2025f87af3ca56ebd,62bbfb7b6205431a697012c5,2022-06-29_09h27.36.556,Colour_Asymmetry_Pilot,2022.1.3,Win32,60.29908345,62bbe60bf3d75ef465d3e404,,,,,,,,,,,,,,,,,,,,,,,,,,,,,,,,,,,,,,,,,,,,,,,,,,,,,,,,,,,,,,,,,,,,,,,,,,,,,,,,,,,,,,,,,,,,,,,,,,,,,,,,,,,,,,,,,,,,,,,,,,,,,,,,,,,,,,,,,,,,,,,,,,,,,,,,,,,
0,15,15,89,1,,614cf1b2025f87af3ca56ebd,62bbfb7b6205431a697012c5,2022-06-29_09h27.36.556,Colour_Asymmetry_Pilot,2022.1.3,Win32,60.29908345,62bbe60bf3d75ef465d3e404,,,,,,,,,,,,,,,,,,,,,,,,,,,,,,,,,,,,,,,,,,,,,,,,,,,,,,,,,,,,,,,,,,,,,,,,,,,,,,,,,,,,,,,,,,,,,,,,,,,,,,,,,,,,,,,,,,,,,,,,,,,,,,,,,,,,,,,,,,,,,,,,,,,,,,,,,,,
0,16,16,18,1,,614cf1b2025f87af3ca56ebd,62bbfb7b6205431a697012c5,2022-06-29_09h27.36.556,Colour_Asymmetry_Pilot,2022.1.3,Win32,60.29908345,62bbe60bf3d75ef465d3e404,,,,,,,,,,,,,,,,,,,,,,,,,,,,,,,,,,,,,,,,,,,,,,,,,,,,,,,,,,,,,,,,,,,,,,,,,,,,,,,,,,,,,,,,,,,,,,,,,,,,,,,,,,,,,,,,,,,,,,,,,,,,,,,,,,,,,,,,,,,,,,,,,,,,,,,,,,,
0,17,17,39,1,,614cf1b2025f87af3ca56ebd,62bbfb7b6205431a697012c5,2022-06-29_09h27.36.556,Colour_Asymmetry_Pilot,2022.1.3,Win32,60.29908345,62bbe60bf3d75ef465d3e404,,,,,,,,,,,,,,,,,,,,,,,,,,,,,,,,,,,,,,,,,,,,,,,,,,,,,,,,,,,,,,,,,,,,,,,,,,,,,,,,,,,,,,,,,,,,,,,,,,,,,,,,,,,,,,,,,,,,,,,,,,,,,,,,,,,,,,,,,,,,,,,,,,,,,,,,,,,
0,18,18,64,1,,614cf1b2025f87af3ca56ebd,62bbfb7b6205431a697012c5,2022-06-29_09h27.36.556,Colour_Asymmetry_Pilot,2022.1.3,Win32,60.29908345,62bbe60bf3d75ef465d3e404,,,,,,,,,,,,,,,,,,,,,,,,,,,,,,,,,,,,,,,,,,,,,,,,,,,,,,,,,,,,,,,,,,,,,,,,,,,,,,,,,,,,,,,,,,,,,,,,,,,,,,,,,,,,,,,,,,,,,,,,,,,,,,,,,,,,,,,,,,,,,,,,,,,,,,,,,,,
0,19,19,78,1,,614cf1b2025f87af3ca56ebd,62bbfb7b6205431a697012c5,2022-06-29_09h27.36.556,Colour_Asymmetry_Pilot,2022.1.3,Win32,60.29908345,62bbe60bf3d75ef465d3e404,,,,,,,,,,,,,,,,,,,,,,,,,,,,,,,,,,,,,,,,,,,,,,,,,,,,,,,,,,,,,,,,,,,,,,,,,,,,,,,,,,,,,,,,,,,,,,,,,,,,,,,,,,,,,,,,,,,,,,,,,,,,,,,,,,,,,,,,,,,,,,,,,,,,,,,,,,,
0,20,20,24,1,,614cf1b2025f87af3ca56ebd,62bbfb7b6205431a697012c5,2022-06-29_09h27.36.556,Colour_Asymmetry_Pilot,2022.1.3,Win32,60.29908345,62bbe60bf3d75ef465d3e404,,,,,,,,,,,,,,,,,,,,,,,,,,,,,,,,,,,,,,,,,,,,,,,,,,,,,,,,,,,,,,,,,,,,,,,,,,,,,,,,,,,,,,,,,,,,,,,,,,,,,,,,,,,,,,,,,,,,,,,,,,,,,,,,,,,,,,,,,,,,,,,,,,,,,,,,,,,
0,21,21,67,1,,614cf1b2025f87af3ca56ebd,62bbfb7b6205431a697012c5,2022-06-29_09h27.36.556,Colour_Asymmetry_Pilot,2022.1.3,Win32,60.29908345,62bbe60bf3d75ef465d3e404,,,,,,,,,,,,,,,,,,,,,,,,,,,,,,,,,,,,,,,,,,,,,,,,,,,,,,,,,,,,,,,,,,,,,,,,,,,,,,,,,,,,,,,,,,,,,,,,,,,,,,,,,,,,,,,,,,,,,,,,,,,,,,,,,,,,,,,,,,,,,,,,,,,,,,,,,,,
0,22,22,30,1,,614cf1b2025f87af3ca56ebd,62bbfb7b6205431a697012c5,2022-06-29_09h27.36.556,Colour_Asymmetry_Pilot,2022.1.3,Win32,60.29908345,62bbe60bf3d75ef465d3e404,,,,,,,,,,,,,,,,,,,,,,,,,,,,,,,,,,,,,,,,,,,,,,,,,,,,,,,,,,,,,,,,,,,,,,,,,,,,,,,,,,,,,,,,,,,,,,,,,,,,,,,,,,,,,,,,,,,,,,,,,,,,,,,,,,,,,,,,,,,,,,,,,,,,,,,,,,,
0,23,23,51,1,,614cf1b2025f87af3ca56ebd,62bbfb7b6205431a697012c5,2022-06-29_09h27.36.556,Colour_Asymmetry_Pilot,2022.1.3,Win32,60.29908345,62bbe60bf3d75ef465d3e404,,,,,,,,,,,,,,,,,,,,,,,,,,,,,,,,,,,,,,,,,,,,,,,,,,,,,,,,,,,,,,,,,,,,,,,,,,,,,,,,,,,,,,,,,,,,,,,,,,,,,,,,,,,,,,,,,,,,,,,,,,,,,,,,,,,,,,,,,,,,,,,,,,,,,,,,,,,
0,24,24,87,1,,614cf1b2025f87af3ca56ebd,62bbfb7b6205431a697012c5,2022-06-29_09h27.36.556,Colour_Asymmetry_Pilot,2022.1.3,Win32,60.29908345,62bbe60bf3d75ef465d3e404,,,,,,,,,,,,,,,,,,,,,,,,,,,,,,,,,,,,,,,,,,,,,,,,,,,,,,,,,,,,,,,,,,,,,,,,,,,,,,,,,,,,,,,,,,,,,,,,,,,,,,,,,,,,,,,,,,,,,,,,,,,,,,,,,,,,,,,,,,,,,,,,,,,,,,,,,,,
0,25,25,49,1,,614cf1b2025f87af3ca56ebd,62bbfb7b6205431a697012c5,2022-06-29_09h27.36.556,Colour_Asymmetry_Pilot,2022.1.3,Win32,60.29908345,62bbe60bf3d75ef465d3e404,,,,,,,,,,,,,,,,,,,,,,,,,,,,,,,,,,,,,,,,,,,,,,,,,,,,,,,,,,,,,,,,,,,,,,,,,,,,,,,,,,,,,,,,,,,,,,,,,,,,,,,,,,,,,,,,,,,,,,,,,,,,,,,,,,,,,,,,,,,,,,,,,,,,,,,,,,,
0,26,26,21,1,,614cf1b2025f87af3ca56ebd,62bbfb7b6205431a697012c5,2022-06-29_09h27.36.556,Colour_Asymmetry_Pilot,2022.1.3,Win32,60.29908345,62bbe60bf3d75ef465d3e404,,,,,,,,,,,,,,,,,,,,,,,,,,,,,,,,,,,,,,,,,,,,,,,,,,,,,,,,,,,,,,,,,,,,,,,,,,,,,,,,,,,,,,,,,,,,,,,,,,,,,,,,,,,,,,,,,,,,,,,,,,,,,,,,,,,,,,,,,,,,,,,,,,,,,,,,,,,
0,27,27,60,1,,614cf1b2025f87af3ca56ebd,62bbfb7b6205431a697012c5,2022-06-29_09h27.36.556,Colour_Asymmetry_Pilot,2022.1.3,Win32,60.29908345,62bbe60bf3d75ef465d3e404,,,,,,,,,,,,,,,,,,,,,,,,,,,,,,,,,,,,,,,,,,,,,,,,,,,,,,,,,,,,,,,,,,,,,,,,,,,,,,,,,,,,,,,,,,,,,,,,,,,,,,,,,,,,,,,,,,,,,,,,,,,,,,,,,,,,,,,,,,,,,,,,,,,,,,,,,,,
0,28,28,74,1,,614cf1b2025f87af3ca56ebd,62bbfb7b6205431a697012c5,2022-06-29_09h27.36.556,Colour_Asymmetry_Pilot,2022.1.3,Win32,60.29908345,62bbe60bf3d75ef465d3e404,,,,,,,,,,,,,,,,,,,,,,,,,,,,,,,,,,,,,,,,,,,,,,,,,,,,,,,,,,,,,,,,,,,,,,,,,,,,,,,,,,,,,,,,,,,,,,,,,,,,,,,,,,,,,,,,,,,,,,,,,,,,,,,,,,,,,,,,,,,,,,,,,,,,,,,,,,,
0,29,29,58,1,,614cf1b2025f87af3ca56ebd,62bbfb7b6205431a697012c5,2022-06-29_09h27.36.556,Colour_Asymmetry_Pilot,2022.1.3,Win32,60.29908345,62bbe60bf3d75ef465d3e404,,,,,,,,,,,,,,,,,,,,,,,,,,,,,,,,,,,,,,,,,,,,,,,,,,,,,,,,,,,,,,,,,,,,,,,,,,,,,,,,,,,,,,,,,,,,,,,,,,,,,,,,,,,,,,,,,,,,,,,,,,,,,,,,,,,,,,,,,,,,,,,,,,,,,,,,,,,
0,30,30,5,1,,614cf1b2025f87af3ca56ebd,62bbfb7b6205431a697012c5,2022-06-29_09h27.36.556,Colour_Asymmetry_Pilot,2022.1.3,Win32,60.29908345,62bbe60bf3d75ef465d3e404,,,,,,,,,,,,,,,,,,,,,,,,,,,,,,,,,,,,,,,,,,,,,,,,,,,,,,,,,,,,,,,,,,,,,,,,,,,,,,,,,,,,,,,,,,,,,,,,,,,,,,,,,,,,,,,,,,,,,,,,,,,,,,,,,,,,,,,,,,,,,,,,,,,,,,,,,,,
0,31,31,53,1,,614cf1b2025f87af3ca56ebd,62bbfb7b6205431a697012c5,2022-06-29_09h27.36.556,Colour_Asymmetry_Pilot,2022.1.3,Win32,60.29908345,62bbe60bf3d75ef465d3e404,,,,,,,,,,,,,,,,,,,,,,,,,,,,,,,,,,,,,,,,,,,,,,,,,,,,,,,,,,,,,,,,,,,,,,,,,,,,,,,,,,,,,,,,,,,,,,,,,,,,,,,,,,,,,,,,,,,,,,,,,,,,,,,,,,,,,,,,,,,,,,,,,,,,,,,,,,,
0,32,32,82,1,,614cf1b2025f87af3ca56ebd,62bbfb7b6205431a697012c5,2022-06-29_09h27.36.556,Colour_Asymmetry_Pilot,2022.1.3,Win32,60.29908345,62bbe60bf3d75ef465d3e404,,,,,,,,,,,,,,,,,,,,,,,,,,,,,,,,,,,,,,,,,,,,,,,,,,,,,,,,,,,,,,,,,,,,,,,,,,,,,,,,,,,,,,,,,,,,,,,,,,,,,,,,,,,,,,,,,,,,,,,,,,,,,,,,,,,,,,,,,,,,,,,,,,,,,,,,,,,
0,33,33,38,1,,614cf1b2025f87af3ca56ebd,62bbfb7b6205431a697012c5,2022-06-29_09h27.36.556,Colour_Asymmetry_Pilot,2022.1.3,Win32,60.29908345,62bbe60bf3d75ef465d3e404,,,,,,,,,,,,,,,,,,,,,,,,,,,,,,,,,,,,,,,,,,,,,,,,,,,,,,,,,,,,,,,,,,,,,,,,,,,,,,,,,,,,,,,,,,,,,,,,,,,,,,,,,,,,,,,,,,,,,,,,,,,,,,,,,,,,,,,,,,,,,,,,,,,,,,,,,,,
0,34,34,1,1,,614cf1b2025f87af3ca56ebd,62bbfb7b6205431a697012c5,2022-06-29_09h27.36.556,Colour_Asymmetry_Pilot,2022.1.3,Win32,60.29908345,62bbe60bf3d75ef465d3e404,,,,,,,,,,,,,,,,,,,,,,,,,,,,,,,,,,,,,,,,,,,,,,,,,,,,,,,,,,,,,,,,,,,,,,,,,,,,,,,,,,,,,,,,,,,,,,,,,,,,,,,,,,,,,,,,,,,,,,,,,,,,,,,,,,,,,,,,,,,,,,,,,,,,,,,,,,,
0,35,35,43,1,,614cf1b2025f87af3ca56ebd,62bbfb7b6205431a697012c5,2022-06-29_09h27.36.556,Colour_Asymmetry_Pilot,2022.1.3,Win32,60.29908345,62bbe60bf3d75ef465d3e404,,,,,,,,,,,,,,,,,,,,,,,,,,,,,,,,,,,,,,,,,,,,,,,,,,,,,,,,,,,,,,,,,,,,,,,,,,,,,,,,,,,,,,,,,,,,,,,,,,,,,,,,,,,,,,,,,,,,,,,,,,,,,,,,,,,,,,,,,,,,,,,,,,,,,,,,,,,
0,36,36,27,1,,614cf1b2025f87af3ca56ebd,62bbfb7b6205431a697012c5,2022-06-29_09h27.36.556,Colour_Asymmetry_Pilot,2022.1.3,Win32,60.29908345,62bbe60bf3d75ef465d3e404,,,,,,,,,,,,,,,,,,,,,,,,,,,,,,,,,,,,,,,,,,,,,,,,,,,,,,,,,,,,,,,,,,,,,,,,,,,,,,,,,,,,,,,,,,,,,,,,,,,,,,,,,,,,,,,,,,,,,,,,,,,,,,,,,,,,,,,,,,,,,,,,,,,,,,,,,,,
0,37,37,0,1,,614cf1b2025f87af3ca56ebd,62bbfb7b6205431a697012c5,2022-06-29_09h27.36.556,Colour_Asymmetry_Pilot,2022.1.3,Win32,60.29908345,62bbe60bf3d75ef465d3e404,,,,,,,,,,,,,,,,,,,,,,,,,,,,,,,,,,,,,,,,,,,,,,,,,,,,,,,,,,,,,,,,,,,,,,,,,,,,,,,,,,,,,,,,,,,,,,,,,,,,,,,,,,,,,,,,,,,,,,,,,,,,,,,,,,,,,,,,,,,,,,,,,,,,,,,,,,,
0,38,38,42,1,,614cf1b2025f87af3ca56ebd,62bbfb7b6205431a697012c5,2022-06-29_09h27.36.556,Colour_Asymmetry_Pilot,2022.1.3,Win32,60.29908345,62bbe60bf3d75ef465d3e404,,,,,,,,,,,,,,,,,,,,,,,,,,,,,,,,,,,,,,,,,,,,,,,,,,,,,,,,,,,,,,,,,,,,,,,,,,,,,,,,,,,,,,,,,,,,,,,,,,,,,,,,,,,,,,,,,,,,,,,,,,,,,,,,,,,,,,,,,,,,,,,,,,,,,,,,,,,
0,39,39,47,1,,614cf1b2025f87af3ca56ebd,62bbfb7b6205431a697012c5,2022-06-29_09h27.36.556,Colour_Asymmetry_Pilot,2022.1.3,Win32,60.29908345,62bbe60bf3d75ef465d3e404,,,,,,,,,,,,,,,,,,,,,,,,,,,,,,,,,,,,,,,,,,,,,,,,,,,,,,,,,,,,,,,,,,,,,,,,,,,,,,,,,,,,,,,,,,,,,,,,,,,,,,,,,,,,,,,,,,,,,,,,,,,,,,,,,,,,,,,,,,,,,,,,,,,,,,,,,,,
0,40,40,91,1,,614cf1b2025f87af3ca56ebd,62bbfb7b6205431a697012c5,2022-06-29_09h27.36.556,Colour_Asymmetry_Pilot,2022.1.3,Win32,60.29908345,62bbe60bf3d75ef465d3e404,,,,,,,,,,,,,,,,,,,,,,,,,,,,,,,,,,,,,,,,,,,,,,,,,,,,,,,,,,,,,,,,,,,,,,,,,,,,,,,,,,,,,,,,,,,,,,,,,,,,,,,,,,,,,,,,,,,,,,,,,,,,,,,,,,,,,,,,,,,,,,,,,,,,,,,,,,,
0,41,41,81,1,,614cf1b2025f87af3ca56ebd,62bbfb7b6205431a697012c5,2022-06-29_09h27.36.556,Colour_Asymmetry_Pilot,2022.1.3,Win32,60.29908345,62bbe60bf3d75ef465d3e404,,,,,,,,,,,,,,,,,,,,,,,,,,,,,,,,,,,,,,,,,,,,,,,,,,,,,,,,,,,,,,,,,,,,,,,,,,,,,,,,,,,,,,,,,,,,,,,,,,,,,,,,,,,,,,,,,,,,,,,,,,,,,,,,,,,,,,,,,,,,,,,,,,,,,,,,,,,
0,42,42,72,1,,614cf1b2025f87af3ca56ebd,62bbfb7b6205431a697012c5,2022-06-29_09h27.36.556,Colour_Asymmetry_Pilot,2022.1.3,Win32,60.29908345,62bbe60bf3d75ef465d3e404,,,,,,,,,,,,,,,,,,,,,,,,,,,,,,,,,,,,,,,,,,,,,,,,,,,,,,,,,,,,,,,,,,,,,,,,,,,,,,,,,,,,,,,,,,,,,,,,,,,,,,,,,,,,,,,,,,,,,,,,,,,,,,,,,,,,,,,,,,,,,,,,,,,,,,,,,,,
0,43,43,2,1,,614cf1b2025f87af3ca56ebd,62bbfb7b6205431a697012c5,2022-06-29_09h27.36.556,Colour_Asymmetry_Pilot,2022.1.3,Win32,60.29908345,62bbe60bf3d75ef465d3e404,,,,,,,,,,,,,,,,,,,,,,,,,,,,,,,,,,,,,,,,,,,,,,,,,,,,,,,,,,,,,,,,,,,,,,,,,,,,,,,,,,,,,,,,,,,,,,,,,,,,,,,,,,,,,,,,,,,,,,,,,,,,,,,,,,,,,,,,,,,,,,,,,,,,,,,,,,,
0,44,44,63,1,,614cf1b2025f87af3ca56ebd,62bbfb7b6205431a697012c5,2022-06-29_09h27.36.556,Colour_Asymmetry_Pilot,2022.1.3,Win32,60.29908345,62bbe60bf3d75ef465d3e404,,,,,,,,,,,,,,,,,,,,,,,,,,,,,,,,,,,,,,,,,,,,,,,,,,,,,,,,,,,,,,,,,,,,,,,,,,,,,,,,,,,,,,,,,,,,,,,,,,,,,,,,,,,,,,,,,,,,,,,,,,,,,,,,,,,,,,,,,,,,,,,,,,,,,,,,,,,
0,45,45,73,1,,614cf1b2025f87af3ca56ebd,62bbfb7b6205431a697012c5,2022-06-29_09h27.36.556,Colour_Asymmetry_Pilot,2022.1.3,Win32,60.29908345,62bbe60bf3d75ef465d3e404,,,,,,,,,,,,,,,,,,,,,,,,,,,,,,,,,,,,,,,,,,,,,,,,,,,,,,,,,,,,,,,,,,,,,,,,,,,,,,,,,,,,,,,,,,,,,,,,,,,,,,,,,,,,,,,,,,,,,,,,,,,,,,,,,,,,,,,,,,,,,,,,,,,,,,,,,,,
0,46,46,20,1,,614cf1b2025f87af3ca56ebd,62bbfb7b6205431a697012c5,2022-06-29_09h27.36.556,Colour_Asymmetry_Pilot,2022.1.3,Win32,60.29908345,62bbe60bf3d75ef465d3e404,,,,,,,,,,,,,,,,,,,,,,,,,,,,,,,,,,,,,,,,,,,,,,,,,,,,,,,,,,,,,,,,,,,,,,,,,,,,,,,,,,,,,,,,,,,,,,,,,,,,,,,,,,,,,,,,,,,,,,,,,,,,,,,,,,,,,,,,,,,,,,,,,,,,,,,,,,,
0,47,47,86,1,,614cf1b2025f87af3ca56ebd,62bbfb7b6205431a697012c5,2022-06-29_09h27.36.556,Colour_Asymmetry_Pilot,2022.1.3,Win32,60.29908345,62bbe60bf3d75ef465d3e404,,,,,,,,,,,,,,,,,,,,,,,,,,,,,,,,,,,,,,,,,,,,,,,,,,,,,,,,,,,,,,,,,,,,,,,,,,,,,,,,,,,,,,,,,,,,,,,,,,,,,,,,,,,,,,,,,,,,,,,,,,,,,,,,,,,,,,,,,,,,,,,,,,,,,,,,,,,
0,48,48,26,1,,614cf1b2025f87af3ca56ebd,62bbfb7b6205431a697012c5,2022-06-29_09h27.36.556,Colour_Asymmetry_Pilot,2022.1.3,Win32,60.29908345,62bbe60bf3d75ef465d3e404,,,,,,,,,,,,,,,,,,,,,,,,,,,,,,,,,,,,,,,,,,,,,,,,,,,,,,,,,,,,,,,,,,,,,,,,,,,,,,,,,,,,,,,,,,,,,,,,,,,,,,,,,,,,,,,,,,,,,,,,,,,,,,,,,,,,,,,,,,,,,,,,,,,,,,,,,,,
0,49,49,50,1,,614cf1b2025f87af3ca56ebd,62bbfb7b6205431a697012c5,2022-06-29_09h27.36.556,Colour_Asymmetry_Pilot,2022.1.3,Win32,60.29908345,62bbe60bf3d75ef465d3e404,,,,,,,,,,,,,,,,,,,,,,,,,,,,,,,,,,,,,,,,,,,,,,,,,,,,,,,,,,,,,,,,,,,,,,,,,,,,,,,,,,,,,,,,,,,,,,,,,,,,,,,,,,,,,,,,,,,,,,,,,,,,,,,,,,,,,,,,,,,,,,,,,,,,,,,,,,,
0,50,50,57,1,,614cf1b2025f87af3ca56ebd,62bbfb7b6205431a697012c5,2022-06-29_09h27.36.556,Colour_Asymmetry_Pilot,2022.1.3,Win32,60.29908345,62bbe60bf3d75ef465d3e404,,,,,,,,,,,,,,,,,,,,,,,,,,,,,,,,,,,,,,,,,,,,,,,,,,,,,,,,,,,,,,,,,,,,,,,,,,,,,,,,,,,,,,,,,,,,,,,,,,,,,,,,,,,,,,,,,,,,,,,,,,,,,,,,,,,,,,,,,,,,,,,,,,,,,,,,,,,
0,51,51,80,1,,614cf1b2025f87af3ca56ebd,62bbfb7b6205431a697012c5,2022-06-29_09h27.36.556,Colour_Asymmetry_Pilot,2022.1.3,Win32,60.29908345,62bbe60bf3d75ef465d3e404,,,,,,,,,,,,,,,,,,,,,,,,,,,,,,,,,,,,,,,,,,,,,,,,,,,,,,,,,,,,,,,,,,,,,,,,,,,,,,,,,,,,,,,,,,,,,,,,,,,,,,,,,,,,,,,,,,,,,,,,,,,,,,,,,,,,,,,,,,,,,,,,,,,,,,,,,,,
0,52,52,22,1,,614cf1b2025f87af3ca56ebd,62bbfb7b6205431a697012c5,2022-06-29_09h27.36.556,Colour_Asymmetry_Pilot,2022.1.3,Win32,60.29908345,62bbe60bf3d75ef465d3e404,,,,,,,,,,,,,,,,,,,,,,,,,,,,,,,,,,,,,,,,,,,,,,,,,,,,,,,,,,,,,,,,,,,,,,,,,,,,,,,,,,,,,,,,,,,,,,,,,,,,,,,,,,,,,,,,,,,,,,,,,,,,,,,,,,,,,,,,,,,,,,,,,,,,,,,,,,,
0,53,53,66,1,,614cf1b2025f87af3ca56ebd,62bbfb7b6205431a697012c5,2022-06-29_09h27.36.556,Colour_Asymmetry_Pilot,2022.1.3,Win32,60.29908345,62bbe60bf3d75ef465d3e404,,,,,,,,,,,,,,,,,,,,,,,,,,,,,,,,,,,,,,,,,,,,,,,,,,,,,,,,,,,,,,,,,,,,,,,,,,,,,,,,,,,,,,,,,,,,,,,,,,,,,,,,,,,,,,,,,,,,,,,,,,,,,,,,,,,,,,,,,,,,,,,,,,,,,,,,,,,
0,54,54,85,1,,614cf1b2025f87af3ca56ebd,62bbfb7b6205431a697012c5,2022-06-29_09h27.36.556,Colour_Asymmetry_Pilot,2022.1.3,Win32,60.29908345,62bbe60bf3d75ef465d3e404,,,,,,,,,,,,,,,,,,,,,,,,,,,,,,,,,,,,,,,,,,,,,,,,,,,,,,,,,,,,,,,,,,,,,,,,,,,,,,,,,,,,,,,,,,,,,,,,,,,,,,,,,,,,,,,,,,,,,,,,,,,,,,,,,,,,,,,,,,,,,,,,,,,,,,,,,,,
0,55,55,35,1,,614cf1b2025f87af3ca56ebd,62bbfb7b6205431a697012c5,2022-06-29_09h27.36.556,Colour_Asymmetry_Pilot,2022.1.3,Win32,60.29908345,62bbe60bf3d75ef465d3e404,,,,,,,,,,,,,,,,,,,,,,,,,,,,,,,,,,,,,,,,,,,,,,,,,,,,,,,,,,,,,,,,,,,,,,,,,,,,,,,,,,,,,,,,,,,,,,,,,,,,,,,,,,,,,,,,,,,,,,,,,,,,,,,,,,,,,,,,,,,,,,,,,,,,,,,,,,,
0,56,56,25,1,,614cf1b2025f87af3ca56ebd,62bbfb7b6205431a697012c5,2022-06-29_09h27.36.556,Colour_Asymmetry_Pilot,2022.1.3,Win32,60.29908345,62bbe60bf3d75ef465d3e404,,,,,,,,,,,,,,,,,,,,,,,,,,,,,,,,,,,,,,,,,,,,,,,,,,,,,,,,,,,,,,,,,,,,,,,,,,,,,,,,,,,,,,,,,,,,,,,,,,,,,,,,,,,,,,,,,,,,,,,,,,,,,,,,,,,,,,,,,,,,,,,,,,,,,,,,,,,
0,57,57,8,1,,614cf1b2025f87af3ca56ebd,62bbfb7b6205431a697012c5,2022-06-29_09h27.36.556,Colour_Asymmetry_Pilot,2022.1.3,Win32,60.29908345,62bbe60bf3d75ef465d3e404,,,,,,,,,,,,,,,,,,,,,,,,,,,,,,,,,,,,,,,,,,,,,,,,,,,,,,,,,,,,,,,,,,,,,,,,,,,,,,,,,,,,,,,,,,,,,,,,,,,,,,,,,,,,,,,,,,,,,,,,,,,,,,,,,,,,,,,,,,,,,,,,,,,,,,,,,,,
0,58,58,84,1,,614cf1b2025f87af3ca56ebd,62bbfb7b6205431a697012c5,2022-06-29_09h27.36.556,Colour_Asymmetry_Pilot,2022.1.3,Win32,60.29908345,62bbe60bf3d75ef465d3e404,,,,,,,,,,,,,,,,,,,,,,,,,,,,,,,,,,,,,,,,,,,,,,,,,,,,,,,,,,,,,,,,,,,,,,,,,,,,,,,,,,,,,,,,,,,,,,,,,,,,,,,,,,,,,,,,,,,,,,,,,,,,,,,,,,,,,,,,,,,,,,,,,,,,,,,,,,,
0,59,59,28,1,,614cf1b2025f87af3ca56ebd,62bbfb7b6205431a697012c5,2022-06-29_09h27.36.556,Colour_Asymmetry_Pilot,2022.1.3,Win32,60.29908345,62bbe60bf3d75ef465d3e404,,,,,,,,,,,,,,,,,,,,,,,,,,,,,,,,,,,,,,,,,,,,,,,,,,,,,,,,,,,,,,,,,,,,,,,,,,,,,,,,,,,,,,,,,,,,,,,,,,,,,,,,,,,,,,,,,,,,,,,,,,,,,,,,,,,,,,,,,,,,,,,,,,,,,,,,,,,
0,60,60,6,1,,614cf1b2025f87af3ca56ebd,62bbfb7b6205431a697012c5,2022-06-29_09h27.36.556,Colour_Asymmetry_Pilot,2022.1.3,Win32,60.29908345,62bbe60bf3d75ef465d3e404,,,,,,,,,,,,,,,,,,,,,,,,,,,,,,,,,,,,,,,,,,,,,,,,,,,,,,,,,,,,,,,,,,,,,,,,,,,,,,,,,,,,,,,,,,,,,,,,,,,,,,,,,,,,,,,,,,,,,,,,,,,,,,,,,,,,,,,,,,,,,,,,,,,,,,,,,,,
0,61,61,40,1,,614cf1b2025f87af3ca56ebd,62bbfb7b6205431a697012c5,2022-06-29_09h27.36.556,Colour_Asymmetry_Pilot,2022.1.3,Win32,60.29908345,62bbe60bf3d75ef465d3e404,,,,,,,,,,,,,,,,,,,,,,,,,,,,,,,,,,,,,,,,,,,,,,,,,,,,,,,,,,,,,,,,,,,,,,,,,,,,,,,,,,,,,,,,,,,,,,,,,,,,,,,,,,,,,,,,,,,,,,,,,,,,,,,,,,,,,,,,,,,,,,,,,,,,,,,,,,,
0,62,62,34,1,,614cf1b2025f87af3ca56ebd,62bbfb7b6205431a697012c5,2022-06-29_09h27.36.556,Colour_Asymmetry_Pilot,2022.1.3,Win32,60.29908345,62bbe60bf3d75ef465d3e404,,,,,,,,,,,,,,,,,,,,,,,,,,,,,,,,,,,,,,,,,,,,,,,,,,,,,,,,,,,,,,,,,,,,,,,,,,,,,,,,,,,,,,,,,,,,,,,,,,,,,,,,,,,,,,,,,,,,,,,,,,,,,,,,,,,,,,,,,,,,,,,,,,,,,,,,,,,
0,63,63,45,1,,614cf1b2025f87af3ca56ebd,62bbfb7b6205431a697012c5,2022-06-29_09h27.36.556,Colour_Asymmetry_Pilot,2022.1.3,Win32,60.29908345,62bbe60bf3d75ef465d3e404,,,,,,,,,,,,,,,,,,,,,,,,,,,,,,,,,,,,,,,,,,,,,,,,,,,,,,,,,,,,,,,,,,,,,,,,,,,,,,,,,,,,,,,,,,,,,,,,,,,,,,,,,,,,,,,,,,,,,,,,,,,,,,,,,,,,,,,,,,,,,,,,,,,,,,,,,,,
0,64,64,83,1,,614cf1b2025f87af3ca56ebd,62bbfb7b6205431a697012c5,2022-06-29_09h27.36.556,Colour_Asymmetry_Pilot,2022.1.3,Win32,60.29908345,62bbe60bf3d75ef465d3e404,,,,,,,,,,,,,,,,,,,,,,,,,,,,,,,,,,,,,,,,,,,,,,,,,,,,,,,,,,,,,,,,,,,,,,,,,,,,,,,,,,,,,,,,,,,,,,,,,,,,,,,,,,,,,,,,,,,,,,,,,,,,,,,,,,,,,,,,,,,,,,,,,,,,,,,,,,,
0,65,65,13,1,,614cf1b2025f87af3ca56ebd,62bbfb7b6205431a697012c5,2022-06-29_09h27.36.556,Colour_Asymmetry_Pilot,2022.1.3,Win32,60.29908345,62bbe60bf3d75ef465d3e404,,,,,,,,,,,,,,,,,,,,,,,,,,,,,,,,,,,,,,,,,,,,,,,,,,,,,,,,,,,,,,,,,,,,,,,,,,,,,,,,,,,,,,,,,,,,,,,,,,,,,,,,,,,,,,,,,,,,,,,,,,,,,,,,,,,,,,,,,,,,,,,,,,,,,,,,,,,
0,66,66,77,1,,614cf1b2025f87af3ca56ebd,62bbfb7b6205431a697012c5,2022-06-29_09h27.36.556,Colour_Asymmetry_Pilot,2022.1.3,Win32,60.29908345,62bbe60bf3d75ef465d3e404,,,,,,,,,,,,,,,,,,,,,,,,,,,,,,,,,,,,,,,,,,,,,,,,,,,,,,,,,,,,,,,,,,,,,,,,,,,,,,,,,,,,,,,,,,,,,,,,,,,,,,,,,,,,,,,,,,,,,,,,,,,,,,,,,,,,,,,,,,,,,,,,,,,,,,,,,,,
0,67,67,17,1,,614cf1b2025f87af3ca56ebd,62bbfb7b6205431a697012c5,2022-06-29_09h27.36.556,Colour_Asymmetry_Pilot,2022.1.3,Win32,60.29908345,62bbe60bf3d75ef465d3e404,,,,,,,,,,,,,,,,,,,,,,,,,,,,,,,,,,,,,,,,,,,,,,,,,,,,,,,,,,,,,,,,,,,,,,,,,,,,,,,,,,,,,,,,,,,,,,,,,,,,,,,,,,,,,,,,,,,,,,,,,,,,,,,,,,,,,,,,,,,,,,,,,,,,,,,,,,,
0,68,68,55,1,,614cf1b2025f87af3ca56ebd,62bbfb7b6205431a697012c5,2022-06-29_09h27.36.556,Colour_Asymmetry_Pilot,2022.1.3,Win32,60.29908345,62bbe60bf3d75ef465d3e404,,,,,,,,,,,,,,,,,,,,,,,,,,,,,,,,,,,,,,,,,,,,,,,,,,,,,,,,,,,,,,,,,,,,,,,,,,,,,,,,,,,,,,,,,,,,,,,,,,,,,,,,,,,,,,,,,,,,,,,,,,,,,,,,,,,,,,,,,,,,,,,,,,,,,,,,,,,
0,69,69,48,1,,614cf1b2025f87af3ca56ebd,62bbfb7b6205431a697012c5,2022-06-29_09h27.36.556,Colour_Asymmetry_Pilot,2022.1.3,Win32,60.29908345,62bbe60bf3d75ef465d3e404,,,,,,,,,,,,,,,,,,,,,,,,,,,,,,,,,,,,,,,,,,,,,,,,,,,,,,,,,,,,,,,,,,,,,,,,,,,,,,,,,,,,,,,,,,,,,,,,,,,,,,,,,,,,,,,,,,,,,,,,,,,,,,,,,,,,,,,,,,,,,,,,,,,,,,,,,,,
0,70,70,41,1,,614cf1b2025f87af3ca56ebd,62bbfb7b6205431a697012c5,2022-06-29_09h27.36.556,Colour_Asymmetry_Pilot,2022.1.3,Win32,60.29908345,62bbe60bf3d75ef465d3e404,,,,,,,,,,,,,,,,,,,,,,,,,,,,,,,,,,,,,,,,,,,,,,,,,,,,,,,,,,,,,,,,,,,,,,,,,,,,,,,,,,,,,,,,,,,,,,,,,,,,,,,,,,,,,,,,,,,,,,,,,,,,,,,,,,,,,,,,,,,,,,,,,,,,,,,,,,,
0,71,71,65,1,,614cf1b2025f87af3ca56ebd,62bbfb7b6205431a697012c5,2022-06-29_09h27.36.556,Colour_Asymmetry_Pilot,2022.1.3,Win32,60.29908345,62bbe60bf3d75ef465d3e404,,,,,,,,,,,,,,,,,,,,,,,,,,,,,,,,,,,,,,,,,,,,,,,,,,,,,,,,,,,,,,,,,,,,,,,,,,,,,,,,,,,,,,,,,,,,,,,,,,,,,,,,,,,,,,,,,,,,,,,,,,,,,,,,,,,,,,,,,,,,,,,,,,,,,,,,,,,
0,72,72,4,1,,614cf1b2025f87af3ca56ebd,62bbfb7b6205431a697012c5,2022-06-29_09h27.36.556,Colour_Asymmetry_Pilot,2022.1.3,Win32,60.29908345,62bbe60bf3d75ef465d3e404,,,,,,,,,,,,,,,,,,,,,,,,,,,,,,,,,,,,,,,,,,,,,,,,,,,,,,,,,,,,,,,,,,,,,,,,,,,,,,,,,,,,,,,,,,,,,,,,,,,,,,,,,,,,,,,,,,,,,,,,,,,,,,,,,,,,,,,,,,,,,,,,,,,,,,,,,,,
0,73,73,56,1,,614cf1b2025f87af3ca56ebd,62bbfb7b6205431a697012c5,2022-06-29_09h27.36.556,Colour_Asymmetry_Pilot,2022.1.3,Win32,60.29908345,62bbe60bf3d75ef465d3e404,,,,,,,,,,,,,,,,,,,,,,,,,,,,,,,,,,,,,,,,,,,,,,,,,,,,,,,,,,,,,,,,,,,,,,,,,,,,,,,,,,,,,,,,,,,,,,,,,,,,,,,,,,,,,,,,,,,,,,,,,,,,,,,,,,,,,,,,,,,,,,,,,,,,,,,,,,,
0,74,74,68,1,,614cf1b2025f87af3ca56ebd,62bbfb7b6205431a697012c5,2022-06-29_09h27.36.556,Colour_Asymmetry_Pilot,2022.1.3,Win32,60.29908345,62bbe60bf3d75ef465d3e404,,,,,,,,,,,,,,,,,,,,,,,,,,,,,,,,,,,,,,,,,,,,,,,,,,,,,,,,,,,,,,,,,,,,,,,,,,,,,,,,,,,,,,,,,,,,,,,,,,,,,,,,,,,,,,,,,,,,,,,,,,,,,,,,,,,,,,,,,,,,,,,,,,,,,,,,,,,
0,75,75,52,1,,614cf1b2025f87af3ca56ebd,62bbfb7b6205431a697012c5,2022-06-29_09h27.36.556,Colour_Asymmetry_Pilot,2022.1.3,Win32,60.29908345,62bbe60bf3d75ef465d3e404,,,,,,,,,,,,,,,,,,,,,,,,,,,,,,,,,,,,,,,,,,,,,,,,,,,,,,,,,,,,,,,,,,,,,,,,,,,,,,,,,,,,,,,,,,,,,,,,,,,,,,,,,,,,,,,,,,,,,,,,,,,,,,,,,,,,,,,,,,,,,,,,,,,,,,,,,,,
0,76,76,19,1,,614cf1b2025f87af3ca56ebd,62bbfb7b6205431a697012c5,2022-06-29_09h27.36.556,Colour_Asymmetry_Pilot,2022.1.3,Win32,60.29908345,62bbe60bf3d75ef465d3e404,,,,,,,,,,,,,,,,,,,,,,,,,,,,,,,,,,,,,,,,,,,,,,,,,,,,,,,,,,,,,,,,,,,,,,,,,,,,,,,,,,,,,,,,,,,,,,,,,,,,,,,,,,,,,,,,,,,,,,,,,,,,,,,,,,,,,,,,,,,,,,,,,,,,,,,,,,,
0,77,77,46,1,,614cf1b2025f87af3ca56ebd,62bbfb7b6205431a697012c5,2022-06-29_09h27.36.556,Colour_Asymmetry_Pilot,2022.1.3,Win32,60.29908345,62bbe60bf3d75ef465d3e404,,,,,,,,,,,,,,,,,,,,,,,,,,,,,,,,,,,,,,,,,,,,,,,,,,,,,,,,,,,,,,,,,,,,,,,,,,,,,,,,,,,,,,,,,,,,,,,,,,,,,,,,,,,,,,,,,,,,,,,,,,,,,,,,,,,,,,,,,,,,,,,,,,,,,,,,,,,
0,78,78,12,1,,614cf1b2025f87af3ca56ebd,62bbfb7b6205431a697012c5,2022-06-29_09h27.36.556,Colour_Asymmetry_Pilot,2022.1.3,Win32,60.29908345,62bbe60bf3d75ef465d3e404,,,,,,,,,,,,,,,,,,,,,,,,,,,,,,,,,,,,,,,,,,,,,,,,,,,,,,,,,,,,,,,,,,,,,,,,,,,,,,,,,,,,,,,,,,,,,,,,,,,,,,,,,,,,,,,,,,,,,,,,,,,,,,,,,,,,,,,,,,,,,,,,,,,,,,,,,,,
0,79,79,70,1,,614cf1b2025f87af3ca56ebd,62bbfb7b6205431a697012c5,2022-06-29_09h27.36.556,Colour_Asymmetry_Pilot,2022.1.3,Win32,60.29908345,62bbe60bf3d75ef465d3e404,,,,,,,,,,,,,,,,,,,,,,,,,,,,,,,,,,,,,,,,,,,,,,,,,,,,,,,,,,,,,,,,,,,,,,,,,,,,,,,,,,,,,,,,,,,,,,,,,,,,,,,,,,,,,,,,,,,,,,,,,,,,,,,,,,,,,,,,,,,,,,,,,,,,,,,,,,,
0,80,80,15,1,,614cf1b2025f87af3ca56ebd,62bbfb7b6205431a697012c5,2022-06-29_09h27.36.556,Colour_Asymmetry_Pilot,2022.1.3,Win32,60.29908345,62bbe60bf3d75ef465d3e404,,,,,,,,,,,,,,,,,,,,,,,,,,,,,,,,,,,,,,,,,,,,,,,,,,,,,,,,,,,,,,,,,,,,,,,,,,,,,,,,,,,,,,,,,,,,,,,,,,,,,,,,,,,,,,,,,,,,,,,,,,,,,,,,,,,,,,,,,,,,,,,,,,,,,,,,,,,
0,81,81,88,1,,614cf1b2025f87af3ca56ebd,62bbfb7b6205431a697012c5,2022-06-29_09h27.36.556,Colour_Asymmetry_Pilot,2022.1.3,Win32,60.29908345,62bbe60bf3d75ef465d3e404,,,,,,,,,,,,,,,,,,,,,,,,,,,,,,,,,,,,,,,,,,,,,,,,,,,,,,,,,,,,,,,,,,,,,,,,,,,,,,,,,,,,,,,,,,,,,,,,,,,,,,,,,,,,,,,,,,,,,,,,,,,,,,,,,,,,,,,,,,,,,,,,,,,,,,,,,,,
0,82,82,9,1,,614cf1b2025f87af3ca56ebd,62bbfb7b6205431a697012c5,2022-06-29_09h27.36.556,Colour_Asymmetry_Pilot,2022.1.3,Win32,60.29908345,62bbe60bf3d75ef465d3e404,,,,,,,,,,,,,,,,,,,,,,,,,,,,,,,,,,,,,,,,,,,,,,,,,,,,,,,,,,,,,,,,,,,,,,,,,,,,,,,,,,,,,,,,,,,,,,,,,,,,,,,,,,,,,,,,,,,,,,,,,,,,,,,,,,,,,,,,,,,,,,,,,,,,,,,,,,,
0,83,83,10,1,,614cf1b2025f87af3ca56ebd,62bbfb7b6205431a697012c5,2022-06-29_09h27.36.556,Colour_Asymmetry_Pilot,2022.1.3,Win32,60.29908345,62bbe60bf3d75ef465d3e404,,,,,,,,,,,,,,,,,,,,,,,,,,,,,,,,,,,,,,,,,,,,,,,,,,,,,,,,,,,,,,,,,,,,,,,,,,,,,,,,,,,,,,,,,,,,,,,,,,,,,,,,,,,,,,,,,,,,,,,,,,,,,,,,,,,,,,,,,,,,,,,,,,,,,,,,,,,
0,84,84,7,1,,614cf1b2025f87af3ca56ebd,62bbfb7b6205431a697012c5,2022-06-29_09h27.36.556,Colour_Asymmetry_Pilot,2022.1.3,Win32,60.29908345,62bbe60bf3d75ef465d3e404,,,,,,,,,,,,,,,,,,,,,,,,,,,,,,,,,,,,,,,,,,,,,,,,,,,,,,,,,,,,,,,,,,,,,,,,,,,,,,,,,,,,,,,,,,,,,,,,,,,,,,,,,,,,,,,,,,,,,,,,,,,,,,,,,,,,,,,,,,,,,,,,,,,,,,,,,,,
0,85,85,79,1,,614cf1b2025f87af3ca56ebd,62bbfb7b6205431a697012c5,2022-06-29_09h27.36.556,Colour_Asymmetry_Pilot,2022.1.3,Win32,60.29908345,62bbe60bf3d75ef465d3e404,,,,,,,,,,,,,,,,,,,,,,,,,,,,,,,,,,,,,,,,,,,,,,,,,,,,,,,,,,,,,,,,,,,,,,,,,,,,,,,,,,,,,,,,,,,,,,,,,,,,,,,,,,,,,,,,,,,,,,,,,,,,,,,,,,,,,,,,,,,,,,,,,,,,,,,,,,,
0,86,86,16,1,,614cf1b2025f87af3ca56ebd,62bbfb7b6205431a697012c5,2022-06-29_09h27.36.556,Colour_Asymmetry_Pilot,2022.1.3,Win32,60.29908345,62bbe60bf3d75ef465d3e404,,,,,,,,,,,,,,,,,,,,,,,,,,,,,,,,,,,,,,,,,,,,,,,,,,,,,,,,,,,,,,,,,,,,,,,,,,,,,,,,,,,,,,,,,,,,,,,,,,,,,,,,,,,,,,,,,,,,,,,,,,,,,,,,,,,,,,,,,,,,,,,,,,,,,,,,,,,
0,87,87,36,1,,614cf1b2025f87af3ca56ebd,62bbfb7b6205431a697012c5,2022-06-29_09h27.36.556,Colour_Asymmetry_Pilot,2022.1.3,Win32,60.29908345,62bbe60bf3d75ef465d3e404,,,,,,,,,,,,,,,,,,,,,,,,,,,,,,,,,,,,,,,,,,,,,,,,,,,,,,,,,,,,,,,,,,,,,,,,,,,,,,,,,,,,,,,,,,,,,,,,,,,,,,,,,,,,,,,,,,,,,,,,,,,,,,,,,,,,,,,,,,,,,,,,,,,,,,,,,,,
0,88,88,3,1,,614cf1b2025f87af3ca56ebd,62bbfb7b6205431a697012c5,2022-06-29_09h27.36.556,Colour_Asymmetry_Pilot,2022.1.3,Win32,60.29908345,62bbe60bf3d75ef465d3e404,,,,,,,,,,,,,,,,,,,,,,,,,,,,,,,,,,,,,,,,,,,,,,,,,,,,,,,,,,,,,,,,,,,,,,,,,,,,,,,,,,,,,,,,,,,,,,,,,,,,,,,,,,,,,,,,,,,,,,,,,,,,,,,,,,,,,,,,,,,,,,,,,,,,,,,,,,,
0,89,89,14,1,,614cf1b2025f87af3ca56ebd,62bbfb7b6205431a697012c5,2022-06-29_09h27.36.556,Colour_Asymmetry_Pilot,2022.1.3,Win32,60.29908345,62bbe60bf3d75ef465d3e404,,,,,,,,,,,,,,,,,,,,,,,,,,,,,,,,,,,,,,,,,,,,,,,,,,,,,,,,,,,,,,,,,,,,,,,,,,,,,,,,,,,,,,,,,,,,,,,,,,,,,,,,,,,,,,,,,,,,,,,,,,,,,,,,,,,,,,,,,,,,,,,,,,,,,,,,,,,
0,90,90,59,1,,614cf1b2025f87af3ca56ebd,62bbfb7b6205431a697012c5,2022-06-29_09h27.36.556,Colour_Asymmetry_Pilot,2022.1.3,Win32,60.29908345,62bbe60bf3d75ef465d3e404,,,,,,,,,,,,,,,,,,,,,,,,,,,,,,,,,,,,,,,,,,,,,,,,,,,,,,,,,,,,,,,,,,,,,,,,,,,,,,,,,,,,,,,,,,,,,,,,,,,,,,,,,,,,,,,,,,,,,,,,,,,,,,,,,,,,,,,,,,,,,,,,,,,,,,,,,,,
0,91,91,44,1,,614cf1b2025f87af3ca56ebd,62bbfb7b6205431a697012c5,2022-06-29_09h27.36.556,Colour_Asymmetry_Pilot,2022.1.3,Win32,60.29908345,62bbe60bf3d75ef465d3e404,,,,,,,,,,,,,,,,,,,,,,,,,,,,,,,,,,,,,,,,,,,,,,,,,,,,,,,,,,,,,,,,,,,,,,,,,,,,,,,,,,,,,,,,,,,,,,,,,,,,,,,,,,,,,,,,,,,,,,,,,,,,,,,,,,,,,,,,,,,,,,,,,,,,,,,,,,,
0,92,92,23,1,,614cf1b2025f87af3ca56ebd,62bbfb7b6205431a697012c5,2022-06-29_09h27.36.556,Colour_Asymmetry_Pilot,2022.1.3,Win32,60.29908345,62bbe60bf3d75ef465d3e404,,,,,,,,,,,,,,,,,,,,,,,,,,,,,,,,,,,,,,,,,,,,,,,,,,,,,,,,,,,,,,,,,,,,,,,,,,,,,,,,,,,,,,,,,,,,,,,,,,,,,,,,,,,,,,,,,,,,,,,,,,,,,,,,,,,,,,,,,,,,,,,,,,,,,,,,,,,
,,,,,,614cf1b2025f87af3ca56ebd,62bbfb7b6205431a697012c5,2022-06-29_09h27.36.556,Colour_Asymmetry_Pilot,2022.1.3,Win32,60.29908345,62bbe60bf3d75ef465d3e404,0,0,0,133,1,threefour,,,,,,,,,,,,,,,,,,,,,,,,,,,,,,,,,,,,,,,,,,,,,,,,,,,,,,,,,,,,,,,,,,,,,,,,,,,,,,,,,,,,,,,,,,,,,,,,,,,,,,,,,,,,,,,,,,,,,,,,,,,,,,,,,,,,,,,,,,,,,,,,,,,,,
,,,,,,614cf1b2025f87af3ca56ebd,62bbfb7b6205431a697012c5,2022-06-29_09h27.36.556,Colour_Asymmetry_Pilot,2022.1.3,Win32,60.29908345,62bbe60bf3d75ef465d3e404,0,1,1,70,1,fourtwo,,,,,,,,,,,,,,,,,,,,,,,,,,,,,,,,,,,,,,,,,,,,,,,,,,,,,,,,,,,,,,,,,,,,,,,,,,,,,,,,,,,,,,,,,,,,,,,,,,,,,,,,,,,,,,,,,,,,,,,,,,,,,,,,,,,,,,,,,,,,,,,,,,,,,
,,,,,,614cf1b2025f87af3ca56ebd,62bbfb7b6205431a697012c5,2022-06-29_09h27.36.556,Colour_Asymmetry_Pilot,2022.1.3,Win32,60.29908345,62bbe60bf3d75ef465d3e404,0,2,2,148,1,threeone,,,,,,,,,,,,,,,,,,,,,,,,,,,,,,,,,,,,,,,,,,,,,,,,,,,,,,,,,,,,,,,,,,,,,,,,,,,,,,,,,,,,,,,,,,,,,,,,,,,,,,,,,,,,,,,,,,,,,,,,,,,,,,,,,,,,,,,,,,,,,,,,,,,,,
,,,,,,614cf1b2025f87af3ca56ebd,62bbfb7b6205431a697012c5,2022-06-29_09h27.36.556,Colour_Asymmetry_Pilot,2022.1.3,Win32,60.29908345,62bbe60bf3d75ef465d3e404,0,3,3,56,1,onetwo,,,,,,,,,,,,,,,,,,,,,,,,,,,,,,,,,,,,,,,,,,,,,,,,,,,,,,,,,,,,,,,,,,,,,,,,,,,,,,,,,,,,,,,,,,,,,,,,,,,,,,,,,,,,,,,,,,,,,,,,,,,,,,,,,,,,,,,,,,,,,,,,,,,,,
,,,,,,614cf1b2025f87af3ca56ebd,62bbfb7b6205431a697012c5,2022-06-29_09h27.36.556,Colour_Asymmetry_Pilot,2022.1.3,Win32,60.29908345,62bbe60bf3d75ef465d3e404,0,4,4,149,1,threefour,,,,,,,,,,,,,,,,,,,,,,,,,,,,,,,,,,,,,,,,,,,,,,,,,,,,,,,,,,,,,,,,,,,,,,,,,,,,,,,,,,,,,,,,,,,,,,,,,,,,,,,,,,,,,,,,,,,,,,,,,,,,,,,,,,,,,,,,,,,,,,,,,,,,,
,,,,,,614cf1b2025f87af3ca56ebd,62bbfb7b6205431a697012c5,2022-06-29_09h27.36.556,Colour_Asymmetry_Pilot,2022.1.3,Win32,60.29908345,62bbe60bf3d75ef465d3e404,0,5,5,33,1,onethree,,,,,,,,,,,,,,,,,,,,,,,,,,,,,,,,,,,,,,,,,,,,,,,,,,,,,,,,,,,,,,,,,,,,,,,,,,,,,,,,,,,,,,,,,,,,,,,,,,,,,,,,,,,,,,,,,,,,,,,,,,,,,,,,,,,,,,,,,,,,,,,,,,,,,
,,,,,,614cf1b2025f87af3ca56ebd,62bbfb7b6205431a697012c5,2022-06-29_09h27.36.556,Colour_Asymmetry_Pilot,2022.1.3,Win32,60.29908345,62bbe60bf3d75ef465d3e404,0,6,6,75,1,twofour,,,,,,,,,,,,,,,,,,,,,,,,,,,,,,,,,,,,,,,,,,,,,,,,,,,,,,,,,,,,,,,,,,,,,,,,,,,,,,,,,,,,,,,,,,,,,,,,,,,,,,,,,,,,,,,,,,,,,,,,,,,,,,,,,,,,,,,,,,,,,,,,,,,,,
,,,,,,614cf1b2025f87af3ca56ebd,62bbfb7b6205431a697012c5,2022-06-29_09h27.36.556,Colour_Asymmetry_Pilot,2022.1.3,Win32,60.29908345,62bbe60bf3d75ef465d3e404,0,7,7,50,1,twoone,,,,,,,,,,,,,,,,,,,,,,,,,,,,,,,,,,,,,,,,,,,,,,,,,,,,,,,,,,,,,,,,,,,,,,,,,,,,,,,,,,,,,,,,,,,,,,,,,,,,,,,,,,,,,,,,,,,,,,,,,,,,,,,,,,,,,,,,,,,,,,,,,,,,,
,,,,,,614cf1b2025f87af3ca56ebd,62bbfb7b6205431a697012c5,2022-06-29_09h27.36.556,Colour_Asymmetry_Pilot,2022.1.3,Win32,60.29908345,62bbe60bf3d75ef465d3e404,0,8,8,152,1,onetwo,,,,,,,,,,,,,,,,,,,,,,,,,,,,,,,,,,,,,,,,,,,,,,,,,,,,,,,,,,,,,,,,,,,,,,,,,,,,,,,,,,,,,,,,,,,,,,,,,,,,,,,,,,,,,,,,,,,,,,,,,,,,,,,,,,,,,,,,,,,,,,,,,,,,,
,,,,,,614cf1b2025f87af3ca56ebd,62bbfb7b6205431a697012c5,2022-06-29_09h27.36.556,Colour_Asymmetry_Pilot,2022.1.3,Win32,60.29908345,62bbe60bf3d75ef465d3e404,0,9,9,139,1,twofour,,,,,,,,,,,,,,,,,,,,,,,,,,,,,,,,,,,,,,,,,,,,,,,,,,,,,,,,,,,,,,,,,,,,,,,,,,,,,,,,,,,,,,,,,,,,,,,,,,,,,,,,,,,,,,,,,,,,,,,,,,,,,,,,,,,,,,,,,,,,,,,,,,,,,
,,,,,,614cf1b2025f87af3ca56ebd,62bbfb7b6205431a697012c5,2022-06-29_09h27.36.556,Colour_Asymmetry_Pilot,2022.1.3,Win32,60.29908345,62bbe60bf3d75ef465d3e404,0,10,10,116,1,threeone,,,,,,,,,,,,,,,,,,,,,,,,,,,,,,,,,,,,,,,,,,,,,,,,,,,,,,,,,,,,,,,,,,,,,,,,,,,,,,,,,,,,,,,,,,,,,,,,,,,,,,,,,,,,,,,,,,,,,,,,,,,,,,,,,,,,,,,,,,,,,,,,,,,,,
,,,,,,614cf1b2025f87af3ca56ebd,62bbfb7b6205431a697012c5,2022-06-29_09h27.36.556,Colour_Asymmetry_Pilot,2022.1.3,Win32,60.29908345,62bbe60bf3d75ef465d3e404,0,11,11,22,1,fourtwo,,,,,,,,,,,,,,,,,,,,,,,,,,,,,,,,,,,,,,,,,,,,,,,,,,,,,,,,,,,,,,,,,,,,,,,,,,,,,,,,,,,,,,,,,,,,,,,,,,,,,,,,,,,,,,,,,,,,,,,,,,,,,,,,,,,,,,,,,,,,,,,,,,,,,
,,,,,,614cf1b2025f87af3ca56ebd,62bbfb7b6205431a697012c5,2022-06-29_09h27.36.556,Colour_Asymmetry_Pilot,2022.1.3,Win32,60.29908345,62bbe60bf3d75ef465d3e404,0,12,12,34,1,twoone,,,,,,,,,,,,,,,,,,,,,,,,,,,,,,,,,,,,,,,,,,,,,,,,,,,,,,,,,,,,,,,,,,,,,,,,,,,,,,,,,,,,,,,,,,,,,,,,,,,,,,,,,,,,,,,,,,,,,,,,,,,,,,,,,,,,,,,,,,,,,,,,,,,,,
,,,,,,614cf1b2025f87af3ca56ebd,62bbfb7b6205431a697012c5,2022-06-29_09h27.36.556,Colour_Asymmetry_Pilot,2022.1.3,Win32,60.29908345,62bbe60bf3d75ef465d3e404,0,13,13,98,1,twoone,,,,,,,,,,,,,,,,,,,,,,,,,,,,,,,,,,,,,,,,,,,,,,,,,,,,,,,,,,,,,,,,,,,,,,,,,,,,,,,,,,,,,,,,,,,,,,,,,,,,,,,,,,,,,,,,,,,,,,,,,,,,,,,,,,,,,,,,,,,,,,,,,,,,,
,,,,,,614cf1b2025f87af3ca56ebd,62bbfb7b6205431a697012c5,2022-06-29_09h27.36.556,Colour_Asymmetry_Pilot,2022.1.3,Win32,60.29908345,62bbe60bf3d75ef465d3e404,0,14,14,38,1,fourtwo,,,,,,,,,,,,,,,,,,,,,,,,,,,,,,,,,,,,,,,,,,,,,,,,,,,,,,,,,,,,,,,,,,,,,,,,,,,,,,,,,,,,,,,,,,,,,,,,,,,,,,,,,,,,,,,,,,,,,,,,,,,,,,,,,,,,,,,,,,,,,,,,,,,,,
,,,,,,614cf1b2025f87af3ca56ebd,62bbfb7b6205431a697012c5,2022-06-29_09h27.36.556,Colour_Asymmetry_Pilot,2022.1.3,Win32,60.29908345,62bbe60bf3d75ef465d3e404,0,15,15,142,1,fourtwo,,,,,,,,,,,,,,,,,,,,,,,,,,,,,,,,,,,,,,,,,,,,,,,,,,,,,,,,,,,,,,,,,,,,,,,,,,,,,,,,,,,,,,,,,,,,,,,,,,,,,,,,,,,,,,,,,,,,,,,,,,,,,,,,,,,,,,,,,,,,,,,,,,,,,
,,,,,,614cf1b2025f87af3ca56ebd,62bbfb7b6205431a697012c5,2022-06-29_09h27.36.556,Colour_Asymmetry_Pilot,2022.1.3,Win32,60.29908345,62bbe60bf3d75ef465d3e404,0,16,16,43,1,twofour,,,,,,,,,,,,,,,,,,,,,,,,,,,,,,,,,,,,,,,,,,,,,,,,,,,,,,,,,,,,,,,,,,,,,,,,,,,,,,,,,,,,,,,,,,,,,,,,,,,,,,,,,,,,,,,,,,,,,,,,,,,,,,,,,,,,,,,,,,,,,,,,,,,,,
,,,,,,614cf1b2025f87af3ca56ebd,62bbfb7b6205431a697012c5,2022-06-29_09h27.36.556,Colour_Asymmetry_Pilot,2022.1.3,Win32,60.29908345,62bbe60bf3d75ef465d3e404,0,17,17,122,1,twoone,,,,,,,,,,,,,,,,,,,,,,,,,,,,,,,,,,,,,,,,,,,,,,,,,,,,,,,,,,,,,,,,,,,,,,,,,,,,,,,,,,,,,,,,,,,,,,,,,,,,,,,,,,,,,,,,,,,,,,,,,,,,,,,,,,,,,,,,,,,,,,,,,,,,,
,,,,,,614cf1b2025f87af3ca56ebd,62bbfb7b6205431a697012c5,2022-06-29_09h27.36.556,Colour_Asymmetry_Pilot,2022.1.3,Win32,60.29908345,62bbe60bf3d75ef465d3e404,0,18,18,107,1,twofour,,,,,,,,,,,,,,,,,,,,,,,,,,,,,,,,,,,,,,,,,,,,,,,,,,,,,,,,,,,,,,,,,,,,,,,,,,,,,,,,,,,,,,,,,,,,,,,,,,,,,,,,,,,,,,,,,,,,,,,,,,,,,,,,,,,,,,,,,,,,,,,,,,,,,
,,,,,,614cf1b2025f87af3ca56ebd,62bbfb7b6205431a697012c5,2022-06-29_09h27.36.556,Colour_Asymmetry_Pilot,2022.1.3,Win32,60.29908345,62bbe60bf3d75ef465d3e404,0,19,19,137,1,onethree,,,,,,,,,,,,,,,,,,,,,,,,,,,,,,,,,,,,,,,,,,,,,,,,,,,,,,,,,,,,,,,,,,,,,,,,,,,,,,,,,,,,,,,,,,,,,,,,,,,,,,,,,,,,,,,,,,,,,,,,,,,,,,,,,,,,,,,,,,,,,,,,,,,,,
,,,,,,614cf1b2025f87af3ca56ebd,62bbfb7b6205431a697012c5,2022-06-29_09h27.36.556,Colour_Asymmetry_Pilot,2022.1.3,Win32,60.29908345,62bbe60bf3d75ef465d3e404,0,20,20,117,1,threefour,,,,,,,,,,,,,,,,,,,,,,,,,,,,,,,,,,,,,,,,,,,,,,,,,,,,,,,,,,,,,,,,,,,,,,,,,,,,,,,,,,,,,,,,,,,,,,,,,,,,,,,,,,,,,,,,,,,,,,,,,,,,,,,,,,,,,,,,,,,,,,,,,,,,,
,,,,,,614cf1b2025f87af3ca56ebd,62bbfb7b6205431a697012c5,2022-06-29_09h27.36.556,Colour_Asymmetry_Pilot,2022.1.3,Win32,60.29908345,62bbe60bf3d75ef465d3e404,0,21,21,130,1,twoone,,,,,,,,,,,,,,,,,,,,,,,,,,,,,,,,,,,,,,,,,,,,,,,,,,,,,,,,,,,,,,,,,,,,,,,,,,,,,,,,,,,,,,,,,,,,,,,,,,,,,,,,,,,,,,,,,,,,,,,,,,,,,,,,,,,,,,,,,,,,,,,,,,,,,
,,,,,,614cf1b2025f87af3ca56ebd,62bbfb7b6205431a697012c5,2022-06-29_09h27.36.556,Colour_Asymmetry_Pilot,2022.1.3,Win32,60.29908345,62bbe60bf3d75ef465d3e404,0,22,22,97,1,onethree,,,,,,,,,,,,,,,,,,,,,,,,,,,,,,,,,,,,,,,,,,,,,,,,,,,,,,,,,,,,,,,,,,,,,,,,,,,,,,,,,,,,,,,,,,,,,,,,,,,,,,,,,,,,,,,,,,,,,,,,,,,,,,,,,,,,,,,,,,,,,,,,,,,,,
,,,,,,614cf1b2025f87af3ca56ebd,62bbfb7b6205431a697012c5,2022-06-29_09h27.36.556,Colour_Asymmetry_Pilot,2022.1.3,Win32,60.29908345,62bbe60bf3d75ef465d3e404,0,23,23,28,1,threeone,,,,,,,,,,,,,,,,,,,,,,,,,,,,,,,,,,,,,,,,,,,,,,,,,,,,,,,,,,,,,,,,,,,,,,,,,,,,,,,,,,,,,,,,,,,,,,,,,,,,,,,,,,,,,,,,,,,,,,,,,,,,,,,,,,,,,,,,,,,,,,,,,,,,,
,,,,,,614cf1b2025f87af3ca56ebd,62bbfb7b6205431a697012c5,2022-06-29_09h27.36.556,Colour_Asymmetry_Pilot,2022.1.3,Win32,60.29908345,62bbe60bf3d75ef465d3e404,0,24,24,44,1,threeone,,,,,,,,,,,,,,,,,,,,,,,,,,,,,,,,,,,,,,,,,,,,,,,,,,,,,,,,,,,,,,,,,,,,,,,,,,,,,,,,,,,,,,,,,,,,,,,,,,,,,,,,,,,,,,,,,,,,,,,,,,,,,,,,,,,,,,,,,,,,,,,,,,,,,
,,,,,,614cf1b2025f87af3ca56ebd,62bbfb7b6205431a697012c5,2022-06-29_09h27.36.556,Colour_Asymmetry_Pilot,2022.1.3,Win32,60.29908345,62bbe60bf3d75ef465d3e404,0,25,25,47,1,fourthree,,,,,,,,,,,,,,,,,,,,,,,,,,,,,,,,,,,,,,,,,,,,,,,,,,,,,,,,,,,,,,,,,,,,,,,,,,,,,,,,,,,,,,,,,,,,,,,,,,,,,,,,,,,,,,,,,,,,,,,,,,,,,,,,,,,,,,,,,,,,,,,,,,,,,
,,,,,,614cf1b2025f87af3ca56ebd,62bbfb7b6205431a697012c5,2022-06-29_09h27.36.556,Colour_Asymmetry_Pilot,2022.1.3,Win32,60.29908345,62bbe60bf3d75ef465d3e404,0,26,26,32,1,onetwo,,,,,,,,,,,,,,,,,,,,,,,,,,,,,,,,,,,,,,,,,,,,,,,,,,,,,,,,,,,,,,,,,,,,,,,,,,,,,,,,,,,,,,,,,,,,,,,,,,,,,,,,,,,,,,,,,,,,,,,,,,,,,,,,,,,,,,,,,,,,,,,,,,,,,
,,,,,,614cf1b2025f87af3ca56ebd,62bbfb7b6205431a697012c5,2022-06-29_09h27.36.556,Colour_Asymmetry_Pilot,2022.1.3,Win32,60.29908345,62bbe60bf3d75ef465d3e404,0,27,27,81,1,onethree,,,,,,,,,,,,,,,,,,,,,,,,,,,,,,,,,,,,,,,,,,,,,,,,,,,,,,,,,,,,,,,,,,,,,,,,,,,,,,,,,,,,,,,,,,,,,,,,,,,,,,,,,,,,,,,,,,,,,,,,,,,,,,,,,,,,,,,,,,,,,,,,,,,,,
,,,,,,614cf1b2025f87af3ca56ebd,62bbfb7b6205431a697012c5,2022-06-29_09h27.36.556,Colour_Asymmetry_Pilot,2022.1.3,Win32,60.29908345,62bbe60bf3d75ef465d3e404,0,28,28,136,1,onetwo,,,,,,,,,,,,,,,,,,,,,,,,,,,,,,,,,,,,,,,,,,,,,,,,,,,,,,,,,,,,,,,,,,,,,,,,,,,,,,,,,,,,,,,,,,,,,,,,,,,,,,,,,,,,,,,,,,,,,,,,,,,,,,,,,,,,,,,,,,,,,,,,,,,,,
,,,,,,614cf1b2025f87af3ca56ebd,62bbfb7b6205431a697012c5,2022-06-29_09h27.36.556,Colour_Asymmetry_Pilot,2022.1.3,Win32,60.29908345,62bbe60bf3d75ef465d3e404,0,29,29,138,1,twoone,,,,,,,,,,,,,,,,,,,,,,,,,,,,,,,,,,,,,,,,,,,,,,,,,,,,,,,,,,,,,,,,,,,,,,,,,,,,,,,,,,,,,,,,,,,,,,,,,,,,,,,,,,,,,,,,,,,,,,,,,,,,,,,,,,,,,,,,,,,,,,,,,,,,,
,,,,,,614cf1b2025f87af3ca56ebd,62bbfb7b6205431a697012c5,2022-06-29_09h27.36.556,Colour_Asymmetry_Pilot,2022.1.3,Win32,60.29908345,62bbe60bf3d75ef465d3e404,0,30,30,24,1,onetwo,,,,,,,,,,,,,,,,,,,,,,,,,,,,,,,,,,,,,,,,,,,,,,,,,,,,,,,,,,,,,,,,,,,,,,,,,,,,,,,,,,,,,,,,,,,,,,,,,,,,,,,,,,,,,,,,,,,,,,,,,,,,,,,,,,,,,,,,,,,,,,,,,,,,,
,,,,,,614cf1b2025f87af3ca56ebd,62bbfb7b6205431a697012c5,2022-06-29_09h27.36.556,Colour_Asymmetry_Pilot,2022.1.3,Win32,60.29908345,62bbe60bf3d75ef465d3e404,0,31,31,74,1,twoone,,,,,,,,,,,,,,,,,,,,,,,,,,,,,,,,,,,,,,,,,,,,,,,,,,,,,,,,,,,,,,,,,,,,,,,,,,,,,,,,,,,,,,,,,,,,,,,,,,,,,,,,,,,,,,,,,,,,,,,,,,,,,,,,,,,,,,,,,,,,,,,,,,,,,
,,,,,,614cf1b2025f87af3ca56ebd,62bbfb7b6205431a697012c5,2022-06-29_09h27.36.556,Colour_Asymmetry_Pilot,2022.1.3,Win32,60.29908345,62bbe60bf3d75ef465d3e404,0,32,32,19,1,twofour,,,,,,,,,,,,,,,,,,,,,,,,,,,,,,,,,,,,,,,,,,,,,,,,,,,,,,,,,,,,,,,,,,,,,,,,,,,,,,,,,,,,,,,,,,,,,,,,,,,,,,,,,,,,,,,,,,,,,,,,,,,,,,,,,,,,,,,,,,,,,,,,,,,,,
,,,,,,614cf1b2025f87af3ca56ebd,62bbfb7b6205431a697012c5,2022-06-29_09h27.36.556,Colour_Asymmetry_Pilot,2022.1.3,Win32,60.29908345,62bbe60bf3d75ef465d3e404,0,33,33,1,1,onethree,,,,,,,,,,,,,,,,,,,,,,,,,,,,,,,,,,,,,,,,,,,,,,,,,,,,,,,,,,,,,,,,,,,,,,,,,,,,,,,,,,,,,,,,,,,,,,,,,,,,,,,,,,,,,,,,,,,,,,,,,,,,,,,,,,,,,,,,,,,,,,,,,,,,,
,,,,,,614cf1b2025f87af3ca56ebd,62bbfb7b6205431a697012c5,2022-06-29_09h27.36.556,Colour_Asymmetry_Pilot,2022.1.3,Win32,60.29908345,62bbe60bf3d75ef465d3e404,0,34,34,29,1,threefour,,,,,,,,,,,,,,,,,,,,,,,,,,,,,,,,,,,,,,,,,,,,,,,,,,,,,,,,,,,,,,,,,,,,,,,,,,,,,,,,,,,,,,,,,,,,,,,,,,,,,,,,,,,,,,,,,,,,,,,,,,,,,,,,,,,,,,,,,,,,,,,,,,,,,
,,,,,,614cf1b2025f87af3ca56ebd,62bbfb7b6205431a697012c5,2022-06-29_09h27.36.556,Colour_Asymmetry_Pilot,2022.1.3,Win32,60.29908345,62bbe60bf3d75ef465d3e404,0,35,35,14,1,fourtwo,,,,,,,,,,,,,,,,,,,,,,,,,,,,,,,,,,,,,,,,,,,,,,,,,,,,,,,,,,,,,,,,,,,,,,,,,,,,,,,,,,,,,,,,,,,,,,,,,,,,,,,,,,,,,,,,,,,,,,,,,,,,,,,,,,,,,,,,,,,,,,,,,,,,,
,,,,,,614cf1b2025f87af3ca56ebd,62bbfb7b6205431a697012c5,2022-06-29_09h27.36.556,Colour_Asymmetry_Pilot,2022.1.3,Win32,60.29908345,62bbe60bf3d75ef465d3e404,0,36,36,53,1,threefour,,,,,,,,,,,,,,,,,,,,,,,,,,,,,,,,,,,,,,,,,,,,,,,,,,,,,,,,,,,,,,,,,,,,,,,,,,,,,,,,,,,,,,,,,,,,,,,,,,,,,,,,,,,,,,,,,,,,,,,,,,,,,,,,,,,,,,,,,,,,,,,,,,,,,
,,,,,,614cf1b2025f87af3ca56ebd,62bbfb7b6205431a697012c5,2022-06-29_09h27.36.556,Colour_Asymmetry_Pilot,2022.1.3,Win32,60.29908345,62bbe60bf3d75ef465d3e404,0,37,37,124,1,threeone,,,,,,,,,,,,,,,,,,,,,,,,,,,,,,,,,,,,,,,,,,,,,,,,,,,,,,,,,,,,,,,,,,,,,,,,,,,,,,,,,,,,,,,,,,,,,,,,,,,,,,,,,,,,,,,,,,,,,,,,,,,,,,,,,,,,,,,,,,,,,,,,,,,,,
,,,,,,614cf1b2025f87af3ca56ebd,62bbfb7b6205431a697012c5,2022-06-29_09h27.36.556,Colour_Asymmetry_Pilot,2022.1.3,Win32,60.29908345,62bbe60bf3d75ef465d3e404,0,38,38,30,1,fourtwo,,,,,,,,,,,,,,,,,,,,,,,,,,,,,,,,,,,,,,,,,,,,,,,,,,,,,,,,,,,,,,,,,,,,,,,,,,,,,,,,,,,,,,,,,,,,,,,,,,,,,,,,,,,,,,,,,,,,,,,,,,,,,,,,,,,,,,,,,,,,,,,,,,,,,
,,,,,,614cf1b2025f87af3ca56ebd,62bbfb7b6205431a697012c5,2022-06-29_09h27.36.556,Colour_Asymmetry_Pilot,2022.1.3,Win32,60.29908345,62bbe60bf3d75ef465d3e404,0,39,39,48,1,onetwo,,,,,,,,,,,,,,,,,,,,,,,,,,,,,,,,,,,,,,,,,,,,,,,,,,,,,,,,,,,,,,,,,,,,,,,,,,,,,,,,,,,,,,,,,,,,,,,,,,,,,,,,,,,,,,,,,,,,,,,,,,,,,,,,,,,,,,,,,,,,,,,,,,,,,
,,,,,,614cf1b2025f87af3ca56ebd,62bbfb7b6205431a697012c5,2022-06-29_09h27.36.556,Colour_Asymmetry_Pilot,2022.1.3,Win32,60.29908345,62bbe60bf3d75ef465d3e404,0,40,40,61,1,threefour,,,,,,,,,,,,,,,,,,,,,,,,,,,,,,,,,,,,,,,,,,,,,,,,,,,,,,,,,,,,,,,,,,,,,,,,,,,,,,,,,,,,,,,,,,,,,,,,,,,,,,,,,,,,,,,,,,,,,,,,,,,,,,,,,,,,,,,,,,,,,,,,,,,,,
,,,,,,614cf1b2025f87af3ca56ebd,62bbfb7b6205431a697012c5,2022-06-29_09h27.36.556,Colour_Asymmetry_Pilot,2022.1.3,Win32,60.29908345,62bbe60bf3d75ef465d3e404,0,41,41,67,1,twofour,,,,,,,,,,,,,,,,,,,,,,,,,,,,,,,,,,,,,,,,,,,,,,,,,,,,,,,,,,,,,,,,,,,,,,,,,,,,,,,,,,,,,,,,,,,,,,,,,,,,,,,,,,,,,,,,,,,,,,,,,,,,,,,,,,,,,,,,,,,,,,,,,,,,,
,,,,,,614cf1b2025f87af3ca56ebd,62bbfb7b6205431a697012c5,2022-06-29_09h27.36.556,Colour_Asymmetry_Pilot,2022.1.3,Win32,60.29908345,62bbe60bf3d75ef465d3e404,0,42,42,9,1,onethree,,,,,,,,,,,,,,,,,,,,,,,,,,,,,,,,,,,,,,,,,,,,,,,,,,,,,,,,,,,,,,,,,,,,,,,,,,,,,,,,,,,,,,,,,,,,,,,,,,,,,,,,,,,,,,,,,,,,,,,,,,,,,,,,,,,,,,,,,,,,,,,,,,,,,
,,,,,,614cf1b2025f87af3ca56ebd,62bbfb7b6205431a697012c5,2022-06-29_09h27.36.556,Colour_Asymmetry_Pilot,2022.1.3,Win32,60.29908345,62bbe60bf3d75ef465d3e404,0,43,43,83,1,twofour,,,,,,,,,,,,,,,,,,,,,,,,,,,,,,,,,,,,,,,,,,,,,,,,,,,,,,,,,,,,,,,,,,,,,,,,,,,,,,,,,,,,,,,,,,,,,,,,,,,,,,,,,,,,,,,,,,,,,,,,,,,,,,,,,,,,,,,,,,,,,,,,,,,,,
,,,,,,614cf1b2025f87af3ca56ebd,62bbfb7b6205431a697012c5,2022-06-29_09h27.36.556,Colour_Asymmetry_Pilot,2022.1.3,Win32,60.29908345,62bbe60bf3d75ef465d3e404,0,44,44,95,1,fourthree,,,,,,,,,,,,,,,,,,,,,,,,,,,,,,,,,,,,,,,,,,,,,,,,,,,,,,,,,,,,,,,,,,,,,,,,,,,,,,,,,,,,,,,,,,,,,,,,,,,,,,,,,,,,,,,,,,,,,,,,,,,,,,,,,,,,,,,,,,,,,,,,,,,,,
,,,,,,614cf1b2025f87af3ca56ebd,62bbfb7b6205431a697012c5,2022-06-29_09h27.36.556,Colour_Asymmetry_Pilot,2022.1.3,Win32,60.29908345,62bbe60bf3d75ef465d3e404,0,45,45,161,1,onethree,,,,,,,,,,,,,,,,,,,,,,,,,,,,,,,,,,,,,,,,,,,,,,,,,,,,,,,,,,,,,,,,,,,,,,,,,,,,,,,,,,,,,,,,,,,,,,,,,,,,,,,,,,,,,,,,,,,,,,,,,,,,,,,,,,,,,,,,,,,,,,,,,,,,,
,,,,,,614cf1b2025f87af3ca56ebd,62bbfb7b6205431a697012c5,2022-06-29_09h27.36.556,Colour_Asymmetry_Pilot,2022.1.3,Win32,60.29908345,62bbe60bf3d75ef465d3e404,0,46,46,26,1,twoone,,,,,,,,,,,,,,,,,,,,,,,,,,,,,,,,,,,,,,,,,,,,,,,,,,,,,,,,,,,,,,,,,,,,,,,,,,,,,,,,,,,,,,,,,,,,,,,,,,,,,,,,,,,,,,,,,,,,,,,,,,,,,,,,,,,,,,,,,,,,,,,,,,,,,
,,,,,,614cf1b2025f87af3ca56ebd,62bbfb7b6205431a697012c5,2022-06-29_09h27.36.556,Colour_Asymmetry_Pilot,2022.1.3,Win32,60.29908345,62bbe60bf3d75ef465d3e404,0,47,47,84,1,threeone,,,,,,,,,,,,,,,,,,,,,,,,,,,,,,,,,,,,,,,,,,,,,,,,,,,,,,,,,,,,,,,,,,,,,,,,,,,,,,,,,,,,,,,,,,,,,,,,,,,,,,,,,,,,,,,,,,,,,,,,,,,,,,,,,,,,,,,,,,,,,,,,,,,,,
,,,,,,614cf1b2025f87af3ca56ebd,62bbfb7b6205431a697012c5,2022-06-29_09h27.36.556,Colour_Asymmetry_Pilot,2022.1.3,Win32,60.29908345,62bbe60bf3d75ef465d3e404,0,48,48,134,1,fourtwo,,,,,,,,,,,,,,,,,,,,,,,,,,,,,,,,,,,,,,,,,,,,,,,,,,,,,,,,,,,,,,,,,,,,,,,,,,,,,,,,,,,,,,,,,,,,,,,,,,,,,,,,,,,,,,,,,,,,,,,,,,,,,,,,,,,,,,,,,,,,,,,,,,,,,
,,,,,,614cf1b2025f87af3ca56ebd,62bbfb7b6205431a697012c5,2022-06-29_09h27.36.556,Colour_Asymmetry_Pilot,2022.1.3,Win32,60.29908345,62bbe60bf3d75ef465d3e404,0,49,49,93,1,threefour,,,,,,,,,,,,,,,,,,,,,,,,,,,,,,,,,,,,,,,,,,,,,,,,,,,,,,,,,,,,,,,,,,,,,,,,,,,,,,,,,,,,,,,,,,,,,,,,,,,,,,,,,,,,,,,,,,,,,,,,,,,,,,,,,,,,,,,,,,,,,,,,,,,,,
,,,,,,614cf1b2025f87af3ca56ebd,62bbfb7b6205431a697012c5,2022-06-29_09h27.36.556,Colour_Asymmetry_Pilot,2022.1.3,Win32,60.29908345,62bbe60bf3d75ef465d3e404,0,50,50,128,1,onetwo,,,,,,,,,,,,,,,,,,,,,,,,,,,,,,,,,,,,,,,,,,,,,,,,,,,,,,,,,,,,,,,,,,,,,,,,,,,,,,,,,,,,,,,,,,,,,,,,,,,,,,,,,,,,,,,,,,,,,,,,,,,,,,,,,,,,,,,,,,,,,,,,,,,,,
,,,,,,614cf1b2025f87af3ca56ebd,62bbfb7b6205431a697012c5,2022-06-29_09h27.36.556,Colour_Asymmetry_Pilot,2022.1.3,Win32,60.29908345,62bbe60bf3d75ef465d3e404,0,51,51,69,1,threefour,,,,,,,,,,,,,,,,,,,,,,,,,,,,,,,,,,,,,,,,,,,,,,,,,,,,,,,,,,,,,,,,,,,,,,,,,,,,,,,,,,,,,,,,,,,,,,,,,,,,,,,,,,,,,,,,,,,,,,,,,,,,,,,,,,,,,,,,,,,,,,,,,,,,,
,,,,,,614cf1b2025f87af3ca56ebd,62bbfb7b6205431a697012c5,2022-06-29_09h27.36.556,Colour_Asymmetry_Pilot,2022.1.3,Win32,60.29908345,62bbe60bf3d75ef465d3e404,0,52,52,159,1,fourthree,,,,,,,,,,,,,,,,,,,,,,,,,,,,,,,,,,,,,,,,,,,,,,,,,,,,,,,,,,,,,,,,,,,,,,,,,,,,,,,,,,,,,,,,,,,,,,,,,,,,,,,,,,,,,,,,,,,,,,,,,,,,,,,,,,,,,,,,,,,,,,,,,,,,,
,,,,,,614cf1b2025f87af3ca56ebd,62bbfb7b6205431a697012c5,2022-06-29_09h27.36.556,Colour_Asymmetry_Pilot,2022.1.3,Win32,60.29908345,62bbe60bf3d75ef465d3e404,0,53,53,3,1,twofour,,,,,,,,,,,,,,,,,,,,,,,,,,,,,,,,,,,,,,,,,,,,,,,,,,,,,,,,,,,,,,,,,,,,,,,,,,,,,,,,,,,,,,,,,,,,,,,,,,,,,,,,,,,,,,,,,,,,,,,,,,,,,,,,,,,,,,,,,,,,,,,,,,,,,
,,,,,,614cf1b2025f87af3ca56ebd,62bbfb7b6205431a697012c5,2022-06-29_09h27.36.556,Colour_Asymmetry_Pilot,2022.1.3,Win32,60.29908345,62bbe60bf3d75ef465d3e404,0,54,54,60,1,threeone,,,,,,,,,,,,,,,,,,,,,,,,,,,,,,,,,,,,,,,,,,,,,,,,,,,,,,,,,,,,,,,,,,,,,,,,,,,,,,,,,,,,,,,,,,,,,,,,,,,,,,,,,,,,,,,,,,,,,,,,,,,,,,,,,,,,,,,,,,,,,,,,,,,,,
,,,,,,614cf1b2025f87af3ca56ebd,62bbfb7b6205431a697012c5,2022-06-29_09h27.36.556,Colour_Asymmetry_Pilot,2022.1.3,Win32,60.29908345,62bbe60bf3d75ef465d3e404,0,55,55,102,1,fourtwo,,,,,,,,,,,,,,,,,,,,,,,,,,,,,,,,,,,,,,,,,,,,,,,,,,,,,,,,,,,,,,,,,,,,,,,,,,,,,,,,,,,,,,,,,,,,,,,,,,,,,,,,,,,,,,,,,,,,,,,,,,,,,,,,,,,,,,,,,,,,,,,,,,,,,
,,,,,,614cf1b2025f87af3ca56ebd,62bbfb7b6205431a697012c5,2022-06-29_09h27.36.556,Colour_Asymmetry_Pilot,2022.1.3,Win32,60.29908345,62bbe60bf3d75ef465d3e404,0,56,56,99,1,twofour,,,,,,,,,,,,,,,,,,,,,,,,,,,,,,,,,,,,,,,,,,,,,,,,,,,,,,,,,,,,,,,,,,,,,,,,,,,,,,,,,,,,,,,,,,,,,,,,,,,,,,,,,,,,,,,,,,,,,,,,,,,,,,,,,,,,,,,,,,,,,,,,,,,,,
,,,,,,614cf1b2025f87af3ca56ebd,62bbfb7b6205431a697012c5,2022-06-29_09h27.36.556,Colour_Asymmetry_Pilot,2022.1.3,Win32,60.29908345,62bbe60bf3d75ef465d3e404,0,57,57,71,1,fourthree,,,,,,,,,,,,,,,,,,,,,,,,,,,,,,,,,,,,,,,,,,,,,,,,,,,,,,,,,,,,,,,,,,,,,,,,,,,,,,,,,,,,,,,,,,,,,,,,,,,,,,,,,,,,,,,,,,,,,,,,,,,,,,,,,,,,,,,,,,,,,,,,,,,,,
,,,,,,614cf1b2025f87af3ca56ebd,62bbfb7b6205431a697012c5,2022-06-29_09h27.36.556,Colour_Asymmetry_Pilot,2022.1.3,Win32,60.29908345,62bbe60bf3d75ef465d3e404,0,58,58,118,1,fourtwo,,,,,,,,,,,,,,,,,,,,,,,,,,,,,,,,,,,,,,,,,,,,,,,,,,,,,,,,,,,,,,,,,,,,,,,,,,,,,,,,,,,,,,,,,,,,,,,,,,,,,,,,,,,,,,,,,,,,,,,,,,,,,,,,,,,,,,,,,,,,,,,,,,,,,
,,,,,,614cf1b2025f87af3ca56ebd,62bbfb7b6205431a697012c5,2022-06-29_09h27.36.556,Colour_Asymmetry_Pilot,2022.1.3,Win32,60.29908345,62bbe60bf3d75ef465d3e404,0,59,59,4,1,threeone,,,,,,,,,,,,,,,,,,,,,,,,,,,,,,,,,,,,,,,,,,,,,,,,,,,,,,,,,,,,,,,,,,,,,,,,,,,,,,,,,,,,,,,,,,,,,,,,,,,,,,,,,,,,,,,,,,,,,,,,,,,,,,,,,,,,,,,,,,,,,,,,,,,,,
,,,,,,614cf1b2025f87af3ca56ebd,62bbfb7b6205431a697012c5,2022-06-29_09h27.36.556,Colour_Asymmetry_Pilot,2022.1.3,Win32,60.29908345,62bbe60bf3d75ef465d3e404,0,60,60,78,1,fourtwo,,,,,,,,,,,,,,,,,,,,,,,,,,,,,,,,,,,,,,,,,,,,,,,,,,,,,,,,,,,,,,,,,,,,,,,,,,,,,,,,,,,,,,,,,,,,,,,,,,,,,,,,,,,,,,,,,,,,,,,,,,,,,,,,,,,,,,,,,,,,,,,,,,,,,
,,,,,,614cf1b2025f87af3ca56ebd,62bbfb7b6205431a697012c5,2022-06-29_09h27.36.556,Colour_Asymmetry_Pilot,2022.1.3,Win32,60.29908345,62bbe60bf3d75ef465d3e404,0,61,61,41,1,onethree,,,,,,,,,,,,,,,,,,,,,,,,,,,,,,,,,,,,,,,,,,,,,,,,,,,,,,,,,,,,,,,,,,,,,,,,,,,,,,,,,,,,,,,,,,,,,,,,,,,,,,,,,,,,,,,,,,,,,,,,,,,,,,,,,,,,,,,,,,,,,,,,,,,,,
,,,,,,614cf1b2025f87af3ca56ebd,62bbfb7b6205431a697012c5,2022-06-29_09h27.36.556,Colour_Asymmetry_Pilot,2022.1.3,Win32,60.29908345,62bbe60bf3d75ef465d3e404,0,62,62,21,1,threefour,,,,,,,,,,,,,,,,,,,,,,,,,,,,,,,,,,,,,,,,,,,,,,,,,,,,,,,,,,,,,,,,,,,,,,,,,,,,,,,,,,,,,,,,,,,,,,,,,,,,,,,,,,,,,,,,,,,,,,,,,,,,,,,,,,,,,,,,,,,,,,,,,,,,,
,,,,,,614cf1b2025f87af3ca56ebd,62bbfb7b6205431a697012c5,2022-06-29_09h27.36.556,Colour_Asymmetry_Pilot,2022.1.3,Win32,60.29908345,62bbe60bf3d75ef465d3e404,0,63,63,160,1,onetwo,,,,,,,,,,,,,,,,,,,,,,,,,,,,,,,,,,,,,,,,,,,,,,,,,,,,,,,,,,,,,,,,,,,,,,,,,,,,,,,,,,,,,,,,,,,,,,,,,,,,,,,,,,,,,,,,,,,,,,,,,,,,,,,,,,,,,,,,,,,,,,,,,,,,,
,,,,,,614cf1b2025f87af3ca56ebd,62bbfb7b6205431a697012c5,2022-06-29_09h27.36.556,Colour_Asymmetry_Pilot,2022.1.3,Win32,60.29908345,62bbe60bf3d75ef465d3e404,0,64,64,76,1,threeone,,,,,,,,,,,,,,,,,,,,,,,,,,,,,,,,,,,,,,,,,,,,,,,,,,,,,,,,,,,,,,,,,,,,,,,,,,,,,,,,,,,,,,,,,,,,,,,,,,,,,,,,,,,,,,,,,,,,,,,,,,,,,,,,,,,,,,,,,,,,,,,,,,,,,
,,,,,,614cf1b2025f87af3ca56ebd,62bbfb7b6205431a697012c5,2022-06-29_09h27.36.556,Colour_Asymmetry_Pilot,2022.1.3,Win32,60.29908345,62bbe60bf3d75ef465d3e404,0,65,65,40,1,onetwo,,,,,,,,,,,,,,,,,,,,,,,,,,,,,,,,,,,,,,,,,,,,,,,,,,,,,,,,,,,,,,,,,,,,,,,,,,,,,,,,,,,,,,,,,,,,,,,,,,,,,,,,,,,,,,,,,,,,,,,,,,,,,,,,,,,,,,,,,,,,,,,,,,,,,
,,,,,,614cf1b2025f87af3ca56ebd,62bbfb7b6205431a697012c5,2022-06-29_09h27.36.556,Colour_Asymmetry_Pilot,2022.1.3,Win32,60.29908345,62bbe60bf3d75ef465d3e404,0,66,66,2,1,twoone,,,,,,,,,,,,,,,,,,,,,,,,,,,,,,,,,,,,,,,,,,,,,,,,,,,,,,,,,,,,,,,,,,,,,,,,,,,,,,,,,,,,,,,,,,,,,,,,,,,,,,,,,,,,,,,,,,,,,,,,,,,,,,,,,,,,,,,,,,,,,,,,,,,,,
,,,,,,614cf1b2025f87af3ca56ebd,62bbfb7b6205431a697012c5,2022-06-29_09h27.36.556,Colour_Asymmetry_Pilot,2022.1.3,Win32,60.29908345,62bbe60bf3d75ef465d3e404,0,67,67,63,1,fourthree,,,,,,,,,,,,,,,,,,,,,,,,,,,,,,,,,,,,,,,,,,,,,,,,,,,,,,,,,,,,,,,,,,,,,,,,,,,,,,,,,,,,,,,,,,,,,,,,,,,,,,,,,,,,,,,,,,,,,,,,,,,,,,,,,,,,,,,,,,,,,,,,,,,,,
,,,,,,614cf1b2025f87af3ca56ebd,62bbfb7b6205431a697012c5,2022-06-29_09h27.36.556,Colour_Asymmetry_Pilot,2022.1.3,Win32,60.29908345,62bbe60bf3d75ef465d3e404,0,68,68,120,1,onetwo,,,,,,,,,,,,,,,,,,,,,,,,,,,,,,,,,,,,,,,,,,,,,,,,,,,,,,,,,,,,,,,,,,,,,,,,,,,,,,,,,,,,,,,,,,,,,,,,,,,,,,,,,,,,,,,,,,,,,,,,,,,,,,,,,,,,,,,,,,,,,,,,,,,,,
,,,,,,614cf1b2025f87af3ca56ebd,62bbfb7b6205431a697012c5,2022-06-29_09h27.36.556,Colour_Asymmetry_Pilot,2022.1.3,Win32,60.29908345,62bbe60bf3d75ef465d3e404,0,69,69,82,1,twoone,,,,,,,,,,,,,,,,,,,,,,,,,,,,,,,,,,,,,,,,,,,,,,,,,,,,,,,,,,,,,,,,,,,,,,,,,,,,,,,,,,,,,,,,,,,,,,,,,,,,,,,,,,,,,,,,,,,,,,,,,,,,,,,,,,,,,,,,,,,,,,,,,,,,,
,,,,,,614cf1b2025f87af3ca56ebd,62bbfb7b6205431a697012c5,2022-06-29_09h27.36.556,Colour_Asymmetry_Pilot,2022.1.3,Win32,60.29908345,62bbe60bf3d75ef465d3e404,0,70,70,23,1,fourthree,,,,,,,,,,,,,,,,,,,,,,,,,,,,,,,,,,,,,,,,,,,,,,,,,,,,,,,,,,,,,,,,,,,,,,,,,,,,,,,,,,,,,,,,,,,,,,,,,,,,,,,,,,,,,,,,,,,,,,,,,,,,,,,,,,,,,,,,,,,,,,,,,,,,,
,,,,,,614cf1b2025f87af3ca56ebd,62bbfb7b6205431a697012c5,2022-06-29_09h27.36.556,Colour_Asymmetry_Pilot,2022.1.3,Win32,60.29908345,62bbe60bf3d75ef465d3e404,0,71,71,150,1,fourtwo,,,,,,,,,,,,,,,,,,,,,,,,,,,,,,,,,,,,,,,,,,,,,,,,,,,,,,,,,,,,,,,,,,,,,,,,,,,,,,,,,,,,,,,,,,,,,,,,,,,,,,,,,,,,,,,,,,,,,,,,,,,,,,,,,,,,,,,,,,,,,,,,,,,,,
,,,,,,614cf1b2025f87af3ca56ebd,62bbfb7b6205431a697012c5,2022-06-29_09h27.36.556,Colour_Asymmetry_Pilot,2022.1.3,Win32,60.29908345,62bbe60bf3d75ef465d3e404,0,72,72,114,1,twoone,,,,,,,,,,,,,,,,,,,,,,,,,,,,,,,,,,,,,,,,,,,,,,,,,,,,,,,,,,,,,,,,,,,,,,,,,,,,,,,,,,,,,,,,,,,,,,,,,,,,,,,,,,,,,,,,,,,,,,,,,,,,,,,,,,,,,,,,,,,,,,,,,,,,,
,,,,,,614cf1b2025f87af3ca56ebd,62bbfb7b6205431a697012c5,2022-06-29_09h27.36.556,Colour_Asymmetry_Pilot,2022.1.3,Win32,60.29908345,62bbe60bf3d75ef465d3e404,0,73,73,109,1,threefour,,,,,,,,,,,,,,,,,,,,,,,,,,,,,,,,,,,,,,,,,,,,,,,,,,,,,,,,,,,,,,,,,,,,,,,,,,,,,,,,,,,,,,,,,,,,,,,,,,,,,,,,,,,,,,,,,,,,,,,,,,,,,,,,,,,,,,,,,,,,,,,,,,,,,
,,,,,,614cf1b2025f87af3ca56ebd,62bbfb7b6205431a697012c5,2022-06-29_09h27.36.556,Colour_Asymmetry_Pilot,2022.1.3,Win32,60.29908345,62bbe60bf3d75ef465d3e404,0,74,74,131,1,twofour,,,,,,,,,,,,,,,,,,,,,,,,,,,,,,,,,,,,,,,,,,,,,,,,,,,,,,,,,,,,,,,,,,,,,,,,,,,,,,,,,,,,,,,,,,,,,,,,,,,,,,,,,,,,,,,,,,,,,,,,,,,,,,,,,,,,,,,,,,,,,,,,,,,,,
,,,,,,614cf1b2025f87af3ca56ebd,62bbfb7b6205431a697012c5,2022-06-29_09h27.36.556,Colour_Asymmetry_Pilot,2022.1.3,Win32,60.29908345,62bbe60bf3d75ef465d3e404,0,75,75,20,1,threeone,,,,,,,,,,,,,,,,,,,,,,,,,,,,,,,,,,,,,,,,,,,,,,,,,,,,,,,,,,,,,,,,,,,,,,,,,,,,,,,,,,,,,,,,,,,,,,,,,,,,,,,,,,,,,,,,,,,,,,,,,,,,,,,,,,,,,,,,,,,,,,,,,,,,,
,,,,,,614cf1b2025f87af3ca56ebd,62bbfb7b6205431a697012c5,2022-06-29_09h27.36.556,Colour_Asymmetry_Pilot,2022.1.3,Win32,60.29908345,62bbe60bf3d75ef465d3e404,0,76,76,87,1,fourthree,,,,,,,,,,,,,,,,,,,,,,,,,,,,,,,,,,,,,,,,,,,,,,,,,,,,,,,,,,,,,,,,,,,,,,,,,,,,,,,,,,,,,,,,,,,,,,,,,,,,,,,,,,,,,,,,,,,,,,,,,,,,,,,,,,,,,,,,,,,,,,,,,,,,,
,,,,,,614cf1b2025f87af3ca56ebd,62bbfb7b6205431a697012c5,2022-06-29_09h27.36.556,Colour_Asymmetry_Pilot,2022.1.3,Win32,60.29908345,62bbe60bf3d75ef465d3e404,0,77,77,112,1,onetwo,,,,,,,,,,,,,,,,,,,,,,,,,,,,,,,,,,,,,,,,,,,,,,,,,,,,,,,,,,,,,,,,,,,,,,,,,,,,,,,,,,,,,,,,,,,,,,,,,,,,,,,,,,,,,,,,,,,,,,,,,,,,,,,,,,,,,,,,,,,,,,,,,,,,,
,,,,,,614cf1b2025f87af3ca56ebd,62bbfb7b6205431a697012c5,2022-06-29_09h27.36.556,Colour_Asymmetry_Pilot,2022.1.3,Win32,60.29908345,62bbe60bf3d75ef465d3e404,0,78,78,140,1,threeone,,,,,,,,,,,,,,,,,,,,,,,,,,,,,,,,,,,,,,,,,,,,,,,,,,,,,,,,,,,,,,,,,,,,,,,,,,,,,,,,,,,,,,,,,,,,,,,,,,,,,,,,,,,,,,,,,,,,,,,,,,,,,,,,,,,,,,,,,,,,,,,,,,,,,
,,,,,,614cf1b2025f87af3ca56ebd,62bbfb7b6205431a697012c5,2022-06-29_09h27.36.556,Colour_Asymmetry_Pilot,2022.1.3,Win32,60.29908345,62bbe60bf3d75ef465d3e404,0,79,79,154,1,twoone,,,,,,,,,,,,,,,,,,,,,,,,,,,,,,,,,,,,,,,,,,,,,,,,,,,,,,,,,,,,,,,,,,,,,,,,,,,,,,,,,,,,,,,,,,,,,,,,,,,,,,,,,,,,,,,,,,,,,,,,,,,,,,,,,,,,,,,,,,,,,,,,,,,,,
,,,,,,614cf1b2025f87af3ca56ebd,62bbfb7b6205431a697012c5,2022-06-29_09h27.36.556,Colour_Asymmetry_Pilot,2022.1.3,Win32,60.29908345,62bbe60bf3d75ef465d3e404,0,80,80,16,1,onetwo,,,,,,,,,,,,,,,,,,,,,,,,,,,,,,,,,,,,,,,,,,,,,,,,,,,,,,,,,,,,,,,,,,,,,,,,,,,,,,,,,,,,,,,,,,,,,,,,,,,,,,,,,,,,,,,,,,,,,,,,,,,,,,,,,,,,,,,,,,,,,,,,,,,,,
,,,,,,614cf1b2025f87af3ca56ebd,62bbfb7b6205431a697012c5,2022-06-29_09h27.36.556,Colour_Asymmetry_Pilot,2022.1.3,Win32,60.29908345,62bbe60bf3d75ef465d3e404,0,81,81,94,1,fourtwo,,,,,,,,,,,,,,,,,,,,,,,,,,,,,,,,,,,,,,,,,,,,,,,,,,,,,,,,,,,,,,,,,,,,,,,,,,,,,,,,,,,,,,,,,,,,,,,,,,,,,,,,,,,,,,,,,,,,,,,,,,,,,,,,,,,,,,,,,,,,,,,,,,,,,
,,,,,,614cf1b2025f87af3ca56ebd,62bbfb7b6205431a697012c5,2022-06-29_09h27.36.556,Colour_Asymmetry_Pilot,2022.1.3,Win32,60.29908345,62bbe60bf3d75ef465d3e404,0,82,82,121,1,onethree,,,,,,,,,,,,,,,,,,,,,,,,,,,,,,,,,,,,,,,,,,,,,,,,,,,,,,,,,,,,,,,,,,,,,,,,,,,,,,,,,,,,,,,,,,,,,,,,,,,,,,,,,,,,,,,,,,,,,,,,,,,,,,,,,,,,,,,,,,,,,,,,,,,,,
,,,,,,614cf1b2025f87af3ca56ebd,62bbfb7b6205431a697012c5,2022-06-29_09h27.36.556,Colour_Asymmetry_Pilot,2022.1.3,Win32,60.29908345,62bbe60bf3d75ef465d3e404,0,83,83,108,1,threeone,,,,,,,,,,,,,,,,,,,,,,,,,,,,,,,,,,,,,,,,,,,,,,,,,,,,,,,,,,,,,,,,,,,,,,,,,,,,,,,,,,,,,,,,,,,,,,,,,,,,,,,,,,,,,,,,,,,,,,,,,,,,,,,,,,,,,,,,,,,,,,,,,,,,,
,,,,,,614cf1b2025f87af3ca56ebd,62bbfb7b6205431a697012c5,2022-06-29_09h27.36.556,Colour_Asymmetry_Pilot,2022.1.3,Win32,60.29908345,62bbe60bf3d75ef465d3e404,0,84,84,62,1,fourtwo,,,,,,,,,,,,,,,,,,,,,,,,,,,,,,,,,,,,,,,,,,,,,,,,,,,,,,,,,,,,,,,,,,,,,,,,,,,,,,,,,,,,,,,,,,,,,,,,,,,,,,,,,,,,,,,,,,,,,,,,,,,,,,,,,,,,,,,,,,,,,,,,,,,,,
,,,,,,614cf1b2025f87af3ca56ebd,62bbfb7b6205431a697012c5,2022-06-29_09h27.36.556,Colour_Asymmetry_Pilot,2022.1.3,Win32,60.29908345,62bbe60bf3d75ef465d3e404,0,85,85,11,1,twofour,,,,,,,,,,,,,,,,,,,,,,,,,,,,,,,,,,,,,,,,,,,,,,,,,,,,,,,,,,,,,,,,,,,,,,,,,,,,,,,,,,,,,,,,,,,,,,,,,,,,,,,,,,,,,,,,,,,,,,,,,,,,,,,,,,,,,,,,,,,,,,,,,,,,,
,,,,,,614cf1b2025f87af3ca56ebd,62bbfb7b6205431a697012c5,2022-06-29_09h27.36.556,Colour_Asymmetry_Pilot,2022.1.3,Win32,60.29908345,62bbe60bf3d75ef465d3e404,0,86,86,106,1,twoone,,,,,,,,,,,,,,,,,,,,,,,,,,,,,,,,,,,,,,,,,,,,,,,,,,,,,,,,,,,,,,,,,,,,,,,,,,,,,,,,,,,,,,,,,,,,,,,,,,,,,,,,,,,,,,,,,,,,,,,,,,,,,,,,,,,,,,,,,,,,,,,,,,,,,
,,,,,,614cf1b2025f87af3ca56ebd,62bbfb7b6205431a697012c5,2022-06-29_09h27.36.556,Colour_Asymmetry_Pilot,2022.1.3,Win32,60.29908345,62bbe60bf3d75ef465d3e404,0,87,87,51,1,twofour,,,,,,,,,,,,,,,,,,,,,,,,,,,,,,,,,,,,,,,,,,,,,,,,,,,,,,,,,,,,,,,,,,,,,,,,,,,,,,,,,,,,,,,,,,,,,,,,,,,,,,,,,,,,,,,,,,,,,,,,,,,,,,,,,,,,,,,,,,,,,,,,,,,,,
,,,,,,614cf1b2025f87af3ca56ebd,62bbfb7b6205431a697012c5,2022-06-29_09h27.36.556,Colour_Asymmetry_Pilot,2022.1.3,Win32,60.29908345,62bbe60bf3d75ef465d3e404,0,88,88,72,1,onetwo,,,,,,,,,,,,,,,,,,,,,,,,,,,,,,,,,,,,,,,,,,,,,,,,,,,,,,,,,,,,,,,,,,,,,,,,,,,,,,,,,,,,,,,,,,,,,,,,,,,,,,,,,,,,,,,,,,,,,,,,,,,,,,,,,,,,,,,,,,,,,,,,,,,,,
,,,,,,614cf1b2025f87af3ca56ebd,62bbfb7b6205431a697012c5,2022-06-29_09h27.36.556,Colour_Asymmetry_Pilot,2022.1.3,Win32,60.29908345,62bbe60bf3d75ef465d3e404,0,89,89,92,1,threeone,,,,,,,,,,,,,,,,,,,,,,,,,,,,,,,,,,,,,,,,,,,,,,,,,,,,,,,,,,,,,,,,,,,,,,,,,,,,,,,,,,,,,,,,,,,,,,,,,,,,,,,,,,,,,,,,,,,,,,,,,,,,,,,,,,,,,,,,,,,,,,,,,,,,,
,,,,,,614cf1b2025f87af3ca56ebd,62bbfb7b6205431a697012c5,2022-06-29_09h27.36.556,Colour_Asymmetry_Pilot,2022.1.3,Win32,60.29908345,62bbe60bf3d75ef465d3e404,0,90,90,147,1,twofour,,,,,,,,,,,,,,,,,,,,,,,,,,,,,,,,,,,,,,,,,,,,,,,,,,,,,,,,,,,,,,,,,,,,,,,,,,,,,,,,,,,,,,,,,,,,,,,,,,,,,,,,,,,,,,,,,,,,,,,,,,,,,,,,,,,,,,,,,,,,,,,,,,,,,
,,,,,,614cf1b2025f87af3ca56ebd,62bbfb7b6205431a697012c5,2022-06-29_09h27.36.556,Colour_Asymmetry_Pilot,2022.1.3,Win32,60.29908345,62bbe60bf3d75ef465d3e404,0,91,91,146,1,twoone,,,,,,,,,,,,,,,,,,,,,,,,,,,,,,,,,,,,,,,,,,,,,,,,,,,,,,,,,,,,,,,,,,,,,,,,,,,,,,,,,,,,,,,,,,,,,,,,,,,,,,,,,,,,,,,,,,,,,,,,,,,,,,,,,,,,,,,,,,,,,,,,,,,,,
,,,,,,614cf1b2025f87af3ca56ebd,62bbfb7b6205431a697012c5,2022-06-29_09h27.36.556,Colour_Asymmetry_Pilot,2022.1.3,Win32,60.29908345,62bbe60bf3d75ef465d3e404,0,92,92,0,1,onetwo,,,,,,,,,,,,,,,,,,,,,,,,,,,,,,,,,,,,,,,,,,,,,,,,,,,,,,,,,,,,,,,,,,,,,,,,,,,,,,,,,,,,,,,,,,,,,,,,,,,,,,,,,,,,,,,,,,,,,,,,,,,,,,,,,,,,,,,,,,,,,,,,,,,,,
,,,,,,614cf1b2025f87af3ca56ebd,62bbfb7b6205431a697012c5,2022-06-29_09h27.36.556,Colour_Asymmetry_Pilot,2022.1.3,Win32,60.29908345,62bbe60bf3d75ef465d3e404,0,93,93,85,1,threefour,,,,,,,,,,,,,,,,,,,,,,,,,,,,,,,,,,,,,,,,,,,,,,,,,,,,,,,,,,,,,,,,,,,,,,,,,,,,,,,,,,,,,,,,,,,,,,,,,,,,,,,,,,,,,,,,,,,,,,,,,,,,,,,,,,,,,,,,,,,,,,,,,,,,,
,,,,,,614cf1b2025f87af3ca56ebd,62bbfb7b6205431a697012c5,2022-06-29_09h27.36.556,Colour_Asymmetry_Pilot,2022.1.3,Win32,60.29908345,62bbe60bf3d75ef465d3e404,0,94,94,151,1,fourthree,,,,,,,,,,,,,,,,,,,,,,,,,,,,,,,,,,,,,,,,,,,,,,,,,,,,,,,,,,,,,,,,,,,,,,,,,,,,,,,,,,,,,,,,,,,,,,,,,,,,,,,,,,,,,,,,,,,,,,,,,,,,,,,,,,,,,,,,,,,,,,,,,,,,,
,,,,,,614cf1b2025f87af3ca56ebd,62bbfb7b6205431a697012c5,2022-06-29_09h27.36.556,Colour_Asymmetry_Pilot,2022.1.3,Win32,60.29908345,62bbe60bf3d75ef465d3e404,0,95,95,157,1,threefour,,,,,,,,,,,,,,,,,,,,,,,,,,,,,,,,,,,,,,,,,,,,,,,,,,,,,,,,,,,,,,,,,,,,,,,,,,,,,,,,,,,,,,,,,,,,,,,,,,,,,,,,,,,,,,,,,,,,,,,,,,,,,,,,,,,,,,,,,,,,,,,,,,,,,
,,,,,,614cf1b2025f87af3ca56ebd,62bbfb7b6205431a697012c5,2022-06-29_09h27.36.556,Colour_Asymmetry_Pilot,2022.1.3,Win32,60.29908345,62bbe60bf3d75ef465d3e404,0,96,96,132,1,threeone,,,,,,,,,,,,,,,,,,,,,,,,,,,,,,,,,,,,,,,,,,,,,,,,,,,,,,,,,,,,,,,,,,,,,,,,,,,,,,,,,,,,,,,,,,,,,,,,,,,,,,,,,,,,,,,,,,,,,,,,,,,,,,,,,,,,,,,,,,,,,,,,,,,,,
,,,,,,614cf1b2025f87af3ca56ebd,62bbfb7b6205431a697012c5,2022-06-29_09h27.36.556,Colour_Asymmetry_Pilot,2022.1.3,Win32,60.29908345,62bbe60bf3d75ef465d3e404,0,97,97,119,1,fourthree,,,,,,,,,,,,,,,,,,,,,,,,,,,,,,,,,,,,,,,,,,,,,,,,,,,,,,,,,,,,,,,,,,,,,,,,,,,,,,,,,,,,,,,,,,,,,,,,,,,,,,,,,,,,,,,,,,,,,,,,,,,,,,,,,,,,,,,,,,,,,,,,,,,,,
,,,,,,614cf1b2025f87af3ca56ebd,62bbfb7b6205431a697012c5,2022-06-29_09h27.36.556,Colour_Asymmetry_Pilot,2022.1.3,Win32,60.29908345,62bbe60bf3d75ef465d3e404,0,98,98,8,1,onetwo,,,,,,,,,,,,,,,,,,,,,,,,,,,,,,,,,,,,,,,,,,,,,,,,,,,,,,,,,,,,,,,,,,,,,,,,,,,,,,,,,,,,,,,,,,,,,,,,,,,,,,,,,,,,,,,,,,,,,,,,,,,,,,,,,,,,,,,,,,,,,,,,,,,,,
,,,,,,614cf1b2025f87af3ca56ebd,62bbfb7b6205431a697012c5,2022-06-29_09h27.36.556,Colour_Asymmetry_Pilot,2022.1.3,Win32,60.29908345,62bbe60bf3d75ef465d3e404,0,99,99,103,1,fourthree,,,,,,,,,,,,,,,,,,,,,,,,,,,,,,,,,,,,,,,,,,,,,,,,,,,,,,,,,,,,,,,,,,,,,,,,,,,,,,,,,,,,,,,,,,,,,,,,,,,,,,,,,,,,,,,,,,,,,,,,,,,,,,,,,,,,,,,,,,,,,,,,,,,,,
,,,,,,614cf1b2025f87af3ca56ebd,62bbfb7b6205431a697012c5,2022-06-29_09h27.36.556,Colour_Asymmetry_Pilot,2022.1.3,Win32,60.29908345,62bbe60bf3d75ef465d3e404,0,100,100,101,1,threefour,,,,,,,,,,,,,,,,,,,,,,,,,,,,,,,,,,,,,,,,,,,,,,,,,,,,,,,,,,,,,,,,,,,,,,,,,,,,,,,,,,,,,,,,,,,,,,,,,,,,,,,,,,,,,,,,,,,,,,,,,,,,,,,,,,,,,,,,,,,,,,,,,,,,,
,,,,,,614cf1b2025f87af3ca56ebd,62bbfb7b6205431a697012c5,2022-06-29_09h27.36.556,Colour_Asymmetry_Pilot,2022.1.3,Win32,60.29908345,62bbe60bf3d75ef465d3e404,0,101,101,100,1,threeone,,,,,,,,,,,,,,,,,,,,,,,,,,,,,,,,,,,,,,,,,,,,,,,,,,,,,,,,,,,,,,,,,,,,,,,,,,,,,,,,,,,,,,,,,,,,,,,,,,,,,,,,,,,,,,,,,,,,,,,,,,,,,,,,,,,,,,,,,,,,,,,,,,,,,
,,,,,,614cf1b2025f87af3ca56ebd,62bbfb7b6205431a697012c5,2022-06-29_09h27.36.556,Colour_Asymmetry_Pilot,2022.1.3,Win32,60.29908345,62bbe60bf3d75ef465d3e404,0,102,102,80,1,onetwo,,,,,,,,,,,,,,,,,,,,,,,,,,,,,,,,,,,,,,,,,,,,,,,,,,,,,,,,,,,,,,,,,,,,,,,,,,,,,,,,,,,,,,,,,,,,,,,,,,,,,,,,,,,,,,,,,,,,,,,,,,,,,,,,,,,,,,,,,,,,,,,,,,,,,
,,,,,,614cf1b2025f87af3ca56ebd,62bbfb7b6205431a697012c5,2022-06-29_09h27.36.556,Colour_Asymmetry_Pilot,2022.1.3,Win32,60.29908345,62bbe60bf3d75ef465d3e404,0,103,103,129,1,onethree,,,,,,,,,,,,,,,,,,,,,,,,,,,,,,,,,,,,,,,,,,,,,,,,,,,,,,,,,,,,,,,,,,,,,,,,,,,,,,,,,,,,,,,,,,,,,,,,,,,,,,,,,,,,,,,,,,,,,,,,,,,,,,,,,,,,,,,,,,,,,,,,,,,,,
,,,,,,614cf1b2025f87af3ca56ebd,62bbfb7b6205431a697012c5,2022-06-29_09h27.36.556,Colour_Asymmetry_Pilot,2022.1.3,Win32,60.29908345,62bbe60bf3d75ef465d3e404,0,104,104,91,1,twofour,,,,,,,,,,,,,,,,,,,,,,,,,,,,,,,,,,,,,,,,,,,,,,,,,,,,,,,,,,,,,,,,,,,,,,,,,,,,,,,,,,,,,,,,,,,,,,,,,,,,,,,,,,,,,,,,,,,,,,,,,,,,,,,,,,,,,,,,,,,,,,,,,,,,,
,,,,,,614cf1b2025f87af3ca56ebd,62bbfb7b6205431a697012c5,2022-06-29_09h27.36.556,Colour_Asymmetry_Pilot,2022.1.3,Win32,60.29908345,62bbe60bf3d75ef465d3e404,0,105,105,37,1,threefour,,,,,,,,,,,,,,,,,,,,,,,,,,,,,,,,,,,,,,,,,,,,,,,,,,,,,,,,,,,,,,,,,,,,,,,,,,,,,,,,,,,,,,,,,,,,,,,,,,,,,,,,,,,,,,,,,,,,,,,,,,,,,,,,,,,,,,,,,,,,,,,,,,,,,
,,,,,,614cf1b2025f87af3ca56ebd,62bbfb7b6205431a697012c5,2022-06-29_09h27.36.556,Colour_Asymmetry_Pilot,2022.1.3,Win32,60.29908345,62bbe60bf3d75ef465d3e404,0,106,106,126,1,fourtwo,,,,,,,,,,,,,,,,,,,,,,,,,,,,,,,,,,,,,,,,,,,,,,,,,,,,,,,,,,,,,,,,,,,,,,,,,,,,,,,,,,,,,,,,,,,,,,,,,,,,,,,,,,,,,,,,,,,,,,,,,,,,,,,,,,,,,,,,,,,,,,,,,,,,,
,,,,,,614cf1b2025f87af3ca56ebd,62bbfb7b6205431a697012c5,2022-06-29_09h27.36.556,Colour_Asymmetry_Pilot,2022.1.3,Win32,60.29908345,62bbe60bf3d75ef465d3e404,0,107,107,45,1,threefour,,,,,,,,,,,,,,,,,,,,,,,,,,,,,,,,,,,,,,,,,,,,,,,,,,,,,,,,,,,,,,,,,,,,,,,,,,,,,,,,,,,,,,,,,,,,,,,,,,,,,,,,,,,,,,,,,,,,,,,,,,,,,,,,,,,,,,,,,,,,,,,,,,,,,
,,,,,,614cf1b2025f87af3ca56ebd,62bbfb7b6205431a697012c5,2022-06-29_09h27.36.556,Colour_Asymmetry_Pilot,2022.1.3,Win32,60.29908345,62bbe60bf3d75ef465d3e404,0,108,108,13,1,threefour,,,,,,,,,,,,,,,,,,,,,,,,,,,,,,,,,,,,,,,,,,,,,,,,,,,,,,,,,,,,,,,,,,,,,,,,,,,,,,,,,,,,,,,,,,,,,,,,,,,,,,,,,,,,,,,,,,,,,,,,,,,,,,,,,,,,,,,,,,,,,,,,,,,,,
,,,,,,614cf1b2025f87af3ca56ebd,62bbfb7b6205431a697012c5,2022-06-29_09h27.36.556,Colour_Asymmetry_Pilot,2022.1.3,Win32,60.29908345,62bbe60bf3d75ef465d3e404,0,109,109,79,1,fourthree,,,,,,,,,,,,,,,,,,,,,,,,,,,,,,,,,,,,,,,,,,,,,,,,,,,,,,,,,,,,,,,,,,,,,,,,,,,,,,,,,,,,,,,,,,,,,,,,,,,,,,,,,,,,,,,,,,,,,,,,,,,,,,,,,,,,,,,,,,,,,,,,,,,,,
,,,,,,614cf1b2025f87af3ca56ebd,62bbfb7b6205431a697012c5,2022-06-29_09h27.36.556,Colour_Asymmetry_Pilot,2022.1.3,Win32,60.29908345,62bbe60bf3d75ef465d3e404,0,110,110,145,1,onethree,,,,,,,,,,,,,,,,,,,,,,,,,,,,,,,,,,,,,,,,,,,,,,,,,,,,,,,,,,,,,,,,,,,,,,,,,,,,,,,,,,,,,,,,,,,,,,,,,,,,,,,,,,,,,,,,,,,,,,,,,,,,,,,,,,,,,,,,,,,,,,,,,,,,,
,,,,,,614cf1b2025f87af3ca56ebd,62bbfb7b6205431a697012c5,2022-06-29_09h27.36.556,Colour_Asymmetry_Pilot,2022.1.3,Win32,60.29908345,62bbe60bf3d75ef465d3e404,0,111,111,115,1,twofour,,,,,,,,,,,,,,,,,,,,,,,,,,,,,,,,,,,,,,,,,,,,,,,,,,,,,,,,,,,,,,,,,,,,,,,,,,,,,,,,,,,,,,,,,,,,,,,,,,,,,,,,,,,,,,,,,,,,,,,,,,,,,,,,,,,,,,,,,,,,,,,,,,,,,
,,,,,,614cf1b2025f87af3ca56ebd,62bbfb7b6205431a697012c5,2022-06-29_09h27.36.556,Colour_Asymmetry_Pilot,2022.1.3,Win32,60.29908345,62bbe60bf3d75ef465d3e404,0,112,112,7,1,fourthree,,,,,,,,,,,,,,,,,,,,,,,,,,,,,,,,,,,,,,,,,,,,,,,,,,,,,,,,,,,,,,,,,,,,,,,,,,,,,,,,,,,,,,,,,,,,,,,,,,,,,,,,,,,,,,,,,,,,,,,,,,,,,,,,,,,,,,,,,,,,,,,,,,,,,
,,,,,,614cf1b2025f87af3ca56ebd,62bbfb7b6205431a697012c5,2022-06-29_09h27.36.556,Colour_Asymmetry_Pilot,2022.1.3,Win32,60.29908345,62bbe60bf3d75ef465d3e404,0,113,113,58,1,twoone,,,,,,,,,,,,,,,,,,,,,,,,,,,,,,,,,,,,,,,,,,,,,,,,,,,,,,,,,,,,,,,,,,,,,,,,,,,,,,,,,,,,,,,,,,,,,,,,,,,,,,,,,,,,,,,,,,,,,,,,,,,,,,,,,,,,,,,,,,,,,,,,,,,,,
,,,,,,614cf1b2025f87af3ca56ebd,62bbfb7b6205431a697012c5,2022-06-29_09h27.36.556,Colour_Asymmetry_Pilot,2022.1.3,Win32,60.29908345,62bbe60bf3d75ef465d3e404,0,114,114,27,1,twofour,,,,,,,,,,,,,,,,,,,,,,,,,,,,,,,,,,,,,,,,,,,,,,,,,,,,,,,,,,,,,,,,,,,,,,,,,,,,,,,,,,,,,,,,,,,,,,,,,,,,,,,,,,,,,,,,,,,,,,,,,,,,,,,,,,,,,,,,,,,,,,,,,,,,,
,,,,,,614cf1b2025f87af3ca56ebd,62bbfb7b6205431a697012c5,2022-06-29_09h27.36.556,Colour_Asymmetry_Pilot,2022.1.3,Win32,60.29908345,62bbe60bf3d75ef465d3e404,0,115,115,111,1,fourthree,,,,,,,,,,,,,,,,,,,,,,,,,,,,,,,,,,,,,,,,,,,,,,,,,,,,,,,,,,,,,,,,,,,,,,,,,,,,,,,,,,,,,,,,,,,,,,,,,,,,,,,,,,,,,,,,,,,,,,,,,,,,,,,,,,,,,,,,,,,,,,,,,,,,,
,,,,,,614cf1b2025f87af3ca56ebd,62bbfb7b6205431a697012c5,2022-06-29_09h27.36.556,Colour_Asymmetry_Pilot,2022.1.3,Win32,60.29908345,62bbe60bf3d75ef465d3e404,0,116,116,5,1,threefour,,,,,,,,,,,,,,,,,,,,,,,,,,,,,,,,,,,,,,,,,,,,,,,,,,,,,,,,,,,,,,,,,,,,,,,,,,,,,,,,,,,,,,,,,,,,,,,,,,,,,,,,,,,,,,,,,,,,,,,,,,,,,,,,,,,,,,,,,,,,,,,,,,,,,
,,,,,,614cf1b2025f87af3ca56ebd,62bbfb7b6205431a697012c5,2022-06-29_09h27.36.556,Colour_Asymmetry_Pilot,2022.1.3,Win32,60.29908345,62bbe60bf3d75ef465d3e404,0,117,117,31,1,fourthree,,,,,,,,,,,,,,,,,,,,,,,,,,,,,,,,,,,,,,,,,,,,,,,,,,,,,,,,,,,,,,,,,,,,,,,,,,,,,,,,,,,,,,,,,,,,,,,,,,,,,,,,,,,,,,,,,,,,,,,,,,,,,,,,,,,,,,,,,,,,,,,,,,,,,
,,,,,,614cf1b2025f87af3ca56ebd,62bbfb7b6205431a697012c5,2022-06-29_09h27.36.556,Colour_Asymmetry_Pilot,2022.1.3,Win32,60.29908345,62bbe60bf3d75ef465d3e404,0,118,118,18,1,twoone,,,,,,,,,,,,,,,,,,,,,,,,,,,,,,,,,,,,,,,,,,,,,,,,,,,,,,,,,,,,,,,,,,,,,,,,,,,,,,,,,,,,,,,,,,,,,,,,,,,,,,,,,,,,,,,,,,,,,,,,,,,,,,,,,,,,,,,,,,,,,,,,,,,,,
,,,,,,614cf1b2025f87af3ca56ebd,62bbfb7b6205431a697012c5,2022-06-29_09h27.36.556,Colour_Asymmetry_Pilot,2022.1.3,Win32,60.29908345,62bbe60bf3d75ef465d3e404,0,119,119,57,1,onethree,,,,,,,,,,,,,,,,,,,,,,,,,,,,,,,,,,,,,,,,,,,,,,,,,,,,,,,,,,,,,,,,,,,,,,,,,,,,,,,,,,,,,,,,,,,,,,,,,,,,,,,,,,,,,,,,,,,,,,,,,,,,,,,,,,,,,,,,,,,,,,,,,,,,,
,,,,,,614cf1b2025f87af3ca56ebd,62bbfb7b6205431a697012c5,2022-06-29_09h27.36.556,Colour_Asymmetry_Pilot,2022.1.3,Win32,60.29908345,62bbe60bf3d75ef465d3e404,0,120,120,54,1,fourtwo,,,,,,,,,,,,,,,,,,,,,,,,,,,,,,,,,,,,,,,,,,,,,,,,,,,,,,,,,,,,,,,,,,,,,,,,,,,,,,,,,,,,,,,,,,,,,,,,,,,,,,,,,,,,,,,,,,,,,,,,,,,,,,,,,,,,,,,,,,,,,,,,,,,,,
,,,,,,614cf1b2025f87af3ca56ebd,62bbfb7b6205431a697012c5,2022-06-29_09h27.36.556,Colour_Asymmetry_Pilot,2022.1.3,Win32,60.29908345,62bbe60bf3d75ef465d3e404,0,121,121,10,1,twoone,,,,,,,,,,,,,,,,,,,,,,,,,,,,,,,,,,,,,,,,,,,,,,,,,,,,,,,,,,,,,,,,,,,,,,,,,,,,,,,,,,,,,,,,,,,,,,,,,,,,,,,,,,,,,,,,,,,,,,,,,,,,,,,,,,,,,,,,,,,,,,,,,,,,,
,,,,,,614cf1b2025f87af3ca56ebd,62bbfb7b6205431a697012c5,2022-06-29_09h27.36.556,Colour_Asymmetry_Pilot,2022.1.3,Win32,60.29908345,62bbe60bf3d75ef465d3e404,0,122,122,59,1,twofour,,,,,,,,,,,,,,,,,,,,,,,,,,,,,,,,,,,,,,,,,,,,,,,,,,,,,,,,,,,,,,,,,,,,,,,,,,,,,,,,,,,,,,,,,,,,,,,,,,,,,,,,,,,,,,,,,,,,,,,,,,,,,,,,,,,,,,,,,,,,,,,,,,,,,
,,,,,,614cf1b2025f87af3ca56ebd,62bbfb7b6205431a697012c5,2022-06-29_09h27.36.556,Colour_Asymmetry_Pilot,2022.1.3,Win32,60.29908345,62bbe60bf3d75ef465d3e404,0,123,123,25,1,onethree,,,,,,,,,,,,,,,,,,,,,,,,,,,,,,,,,,,,,,,,,,,,,,,,,,,,,,,,,,,,,,,,,,,,,,,,,,,,,,,,,,,,,,,,,,,,,,,,,,,,,,,,,,,,,,,,,,,,,,,,,,,,,,,,,,,,,,,,,,,,,,,,,,,,,
,,,,,,614cf1b2025f87af3ca56ebd,62bbfb7b6205431a697012c5,2022-06-29_09h27.36.556,Colour_Asymmetry_Pilot,2022.1.3,Win32,60.29908345,62bbe60bf3d75ef465d3e404,0,124,124,96,1,onetwo,,,,,,,,,,,,,,,,,,,,,,,,,,,,,,,,,,,,,,,,,,,,,,,,,,,,,,,,,,,,,,,,,,,,,,,,,,,,,,,,,,,,,,,,,,,,,,,,,,,,,,,,,,,,,,,,,,,,,,,,,,,,,,,,,,,,,,,,,,,,,,,,,,,,,
,,,,,,614cf1b2025f87af3ca56ebd,62bbfb7b6205431a697012c5,2022-06-29_09h27.36.556,Colour_Asymmetry_Pilot,2022.1.3,Win32,60.29908345,62bbe60bf3d75ef465d3e404,0,125,125,66,1,twoone,,,,,,,,,,,,,,,,,,,,,,,,,,,,,,,,,,,,,,,,,,,,,,,,,,,,,,,,,,,,,,,,,,,,,,,,,,,,,,,,,,,,,,,,,,,,,,,,,,,,,,,,,,,,,,,,,,,,,,,,,,,,,,,,,,,,,,,,,,,,,,,,,,,,,
,,,,,,614cf1b2025f87af3ca56ebd,62bbfb7b6205431a697012c5,2022-06-29_09h27.36.556,Colour_Asymmetry_Pilot,2022.1.3,Win32,60.29908345,62bbe60bf3d75ef465d3e404,0,126,126,77,1,threefour,,,,,,,,,,,,,,,,,,,,,,,,,,,,,,,,,,,,,,,,,,,,,,,,,,,,,,,,,,,,,,,,,,,,,,,,,,,,,,,,,,,,,,,,,,,,,,,,,,,,,,,,,,,,,,,,,,,,,,,,,,,,,,,,,,,,,,,,,,,,,,,,,,,,,
,,,,,,614cf1b2025f87af3ca56ebd,62bbfb7b6205431a697012c5,2022-06-29_09h27.36.556,Colour_Asymmetry_Pilot,2022.1.3,Win32,60.29908345,62bbe60bf3d75ef465d3e404,0,127,127,15,1,fourthree,,,,,,,,,,,,,,,,,,,,,,,,,,,,,,,,,,,,,,,,,,,,,,,,,,,,,,,,,,,,,,,,,,,,,,,,,,,,,,,,,,,,,,,,,,,,,,,,,,,,,,,,,,,,,,,,,,,,,,,,,,,,,,,,,,,,,,,,,,,,,,,,,,,,,
,,,,,,614cf1b2025f87af3ca56ebd,62bbfb7b6205431a697012c5,2022-06-29_09h27.36.556,Colour_Asymmetry_Pilot,2022.1.3,Win32,60.29908345,62bbe60bf3d75ef465d3e404,0,128,128,135,1,fourthree,,,,,,,,,,,,,,,,,,,,,,,,,,,,,,,,,,,,,,,,,,,,,,,,,,,,,,,,,,,,,,,,,,,,,,,,,,,,,,,,,,,,,,,,,,,,,,,,,,,,,,,,,,,,,,,,,,,,,,,,,,,,,,,,,,,,,,,,,,,,,,,,,,,,,
,,,,,,614cf1b2025f87af3ca56ebd,62bbfb7b6205431a697012c5,2022-06-29_09h27.36.556,Colour_Asymmetry_Pilot,2022.1.3,Win32,60.29908345,62bbe60bf3d75ef465d3e404,0,129,129,89,1,onethree,,,,,,,,,,,,,,,,,,,,,,,,,,,,,,,,,,,,,,,,,,,,,,,,,,,,,,,,,,,,,,,,,,,,,,,,,,,,,,,,,,,,,,,,,,,,,,,,,,,,,,,,,,,,,,,,,,,,,,,,,,,,,,,,,,,,,,,,,,,,,,,,,,,,,
,,,,,,614cf1b2025f87af3ca56ebd,62bbfb7b6205431a697012c5,2022-06-29_09h27.36.556,Colour_Asymmetry_Pilot,2022.1.3,Win32,60.29908345,62bbe60bf3d75ef465d3e404,0,130,130,68,1,threeone,,,,,,,,,,,,,,,,,,,,,,,,,,,,,,,,,,,,,,,,,,,,,,,,,,,,,,,,,,,,,,,,,,,,,,,,,,,,,,,,,,,,,,,,,,,,,,,,,,,,,,,,,,,,,,,,,,,,,,,,,,,,,,,,,,,,,,,,,,,,,,,,,,,,,
,,,,,,614cf1b2025f87af3ca56ebd,62bbfb7b6205431a697012c5,2022-06-29_09h27.36.556,Colour_Asymmetry_Pilot,2022.1.3,Win32,60.29908345,62bbe60bf3d75ef465d3e404,0,131,131,6,1,fourtwo,,,,,,,,,,,,,,,,,,,,,,,,,,,,,,,,,,,,,,,,,,,,,,,,,,,,,,,,,,,,,,,,,,,,,,,,,,,,,,,,,,,,,,,,,,,,,,,,,,,,,,,,,,,,,,,,,,,,,,,,,,,,,,,,,,,,,,,,,,,,,,,,,,,,,
,,,,,,614cf1b2025f87af3ca56ebd,62bbfb7b6205431a697012c5,2022-06-29_09h27.36.556,Colour_Asymmetry_Pilot,2022.1.3,Win32,60.29908345,62bbe60bf3d75ef465d3e404,0,132,132,127,1,fourthree,,,,,,,,,,,,,,,,,,,,,,,,,,,,,,,,,,,,,,,,,,,,,,,,,,,,,,,,,,,,,,,,,,,,,,,,,,,,,,,,,,,,,,,,,,,,,,,,,,,,,,,,,,,,,,,,,,,,,,,,,,,,,,,,,,,,,,,,,,,,,,,,,,,,,
,,,,,,614cf1b2025f87af3ca56ebd,62bbfb7b6205431a697012c5,2022-06-29_09h27.36.556,Colour_Asymmetry_Pilot,2022.1.3,Win32,60.29908345,62bbe60bf3d75ef465d3e404,0,133,133,125,1,threefour,,,,,,,,,,,,,,,,,,,,,,,,,,,,,,,,,,,,,,,,,,,,,,,,,,,,,,,,,,,,,,,,,,,,,,,,,,,,,,,,,,,,,,,,,,,,,,,,,,,,,,,,,,,,,,,,,,,,,,,,,,,,,,,,,,,,,,,,,,,,,,,,,,,,,
,,,,,,614cf1b2025f87af3ca56ebd,62bbfb7b6205431a697012c5,2022-06-29_09h27.36.556,Colour_Asymmetry_Pilot,2022.1.3,Win32,60.29908345,62bbe60bf3d75ef465d3e404,0,134,134,49,1,onethree,,,,,,,,,,,,,,,,,,,,,,,,,,,,,,,,,,,,,,,,,,,,,,,,,,,,,,,,,,,,,,,,,,,,,,,,,,,,,,,,,,,,,,,,,,,,,,,,,,,,,,,,,,,,,,,,,,,,,,,,,,,,,,,,,,,,,,,,,,,,,,,,,,,,,
,,,,,,614cf1b2025f87af3ca56ebd,62bbfb7b6205431a697012c5,2022-06-29_09h27.36.556,Colour_Asymmetry_Pilot,2022.1.3,Win32,60.29908345,62bbe60bf3d75ef465d3e404,0,135,135,12,1,threeone,,,,,,,,,,,,,,,,,,,,,,,,,,,,,,,,,,,,,,,,,,,,,,,,,,,,,,,,,,,,,,,,,,,,,,,,,,,,,,,,,,,,,,,,,,,,,,,,,,,,,,,,,,,,,,,,,,,,,,,,,,,,,,,,,,,,,,,,,,,,,,,,,,,,,
,,,,,,614cf1b2025f87af3ca56ebd,62bbfb7b6205431a697012c5,2022-06-29_09h27.36.556,Colour_Asymmetry_Pilot,2022.1.3,Win32,60.29908345,62bbe60bf3d75ef465d3e404,0,136,136,90,1,twoone,,,,,,,,,,,,,,,,,,,,,,,,,,,,,,,,,,,,,,,,,,,,,,,,,,,,,,,,,,,,,,,,,,,,,,,,,,,,,,,,,,,,,,,,,,,,,,,,,,,,,,,,,,,,,,,,,,,,,,,,,,,,,,,,,,,,,,,,,,,,,,,,,,,,,
,,,,,,614cf1b2025f87af3ca56ebd,62bbfb7b6205431a697012c5,2022-06-29_09h27.36.556,Colour_Asymmetry_Pilot,2022.1.3,Win32,60.29908345,62bbe60bf3d75ef465d3e404,0,137,137,156,1,threeone,,,,,,,,,,,,,,,,,,,,,,,,,,,,,,,,,,,,,,,,,,,,,,,,,,,,,,,,,,,,,,,,,,,,,,,,,,,,,,,,,,,,,,,,,,,,,,,,,,,,,,,,,,,,,,,,,,,,,,,,,,,,,,,,,,,,,,,,,,,,,,,,,,,,,
,,,,,,614cf1b2025f87af3ca56ebd,62bbfb7b6205431a697012c5,2022-06-29_09h27.36.556,Colour_Asymmetry_Pilot,2022.1.3,Win32,60.29908345,62bbe60bf3d75ef465d3e404,0,138,138,123,1,twofour,,,,,,,,,,,,,,,,,,,,,,,,,,,,,,,,,,,,,,,,,,,,,,,,,,,,,,,,,,,,,,,,,,,,,,,,,,,,,,,,,,,,,,,,,,,,,,,,,,,,,,,,,,,,,,,,,,,,,,,,,,,,,,,,,,,,,,,,,,,,,,,,,,,,,
,,,,,,614cf1b2025f87af3ca56ebd,62bbfb7b6205431a697012c5,2022-06-29_09h27.36.556,Colour_Asymmetry_Pilot,2022.1.3,Win32,60.29908345,62bbe60bf3d75ef465d3e404,0,139,139,88,1,onetwo,,,,,,,,,,,,,,,,,,,,,,,,,,,,,,,,,,,,,,,,,,,,,,,,,,,,,,,,,,,,,,,,,,,,,,,,,,,,,,,,,,,,,,,,,,,,,,,,,,,,,,,,,,,,,,,,,,,,,,,,,,,,,,,,,,,,,,,,,,,,,,,,,,,,,
,,,,,,614cf1b2025f87af3ca56ebd,62bbfb7b6205431a697012c5,2022-06-29_09h27.36.556,Colour_Asymmetry_Pilot,2022.1.3,Win32,60.29908345,62bbe60bf3d75ef465d3e404,0,140,140,104,1,onetwo,,,,,,,,,,,,,,,,,,,,,,,,,,,,,,,,,,,,,,,,,,,,,,,,,,,,,,,,,,,,,,,,,,,,,,,,,,,,,,,,,,,,,,,,,,,,,,,,,,,,,,,,,,,,,,,,,,,,,,,,,,,,,,,,,,,,,,,,,,,,,,,,,,,,,
,,,,,,614cf1b2025f87af3ca56ebd,62bbfb7b6205431a697012c5,2022-06-29_09h27.36.556,Colour_Asymmetry_Pilot,2022.1.3,Win32,60.29908345,62bbe60bf3d75ef465d3e404,0,141,141,141,1,threefour,,,,,,,,,,,,,,,,,,,,,,,,,,,,,,,,,,,,,,,,,,,,,,,,,,,,,,,,,,,,,,,,,,,,,,,,,,,,,,,,,,,,,,,,,,,,,,,,,,,,,,,,,,,,,,,,,,,,,,,,,,,,,,,,,,,,,,,,,,,,,,,,,,,,,
,,,,,,614cf1b2025f87af3ca56ebd,62bbfb7b6205431a697012c5,2022-06-29_09h27.36.556,Colour_Asymmetry_Pilot,2022.1.3,Win32,60.29908345,62bbe60bf3d75ef465d3e404,0,142,142,86,1,fourtwo,,,,,,,,,,,,,,,,,,,,,,,,,,,,,,,,,,,,,,,,,,,,,,,,,,,,,,,,,,,,,,,,,,,,,,,,,,,,,,,,,,,,,,,,,,,,,,,,,,,,,,,,,,,,,,,,,,,,,,,,,,,,,,,,,,,,,,,,,,,,,,,,,,,,,
,,,,,,614cf1b2025f87af3ca56ebd,62bbfb7b6205431a697012c5,2022-06-29_09h27.36.556,Colour_Asymmetry_Pilot,2022.1.3,Win32,60.29908345,62bbe60bf3d75ef465d3e404,0,143,143,73,1,onethree,,,,,,,,,,,,,,,,,,,,,,,,,,,,,,,,,,,,,,,,,,,,,,,,,,,,,,,,,,,,,,,,,,,,,,,,,,,,,,,,,,,,,,,,,,,,,,,,,,,,,,,,,,,,,,,,,,,,,,,,,,,,,,,,,,,,,,,,,,,,,,,,,,,,,
,,,,,,614cf1b2025f87af3ca56ebd,62bbfb7b6205431a697012c5,2022-06-29_09h27.36.556,Colour_Asymmetry_Pilot,2022.1.3,Win32,60.29908345,62bbe60bf3d75ef465d3e404,0,144,144,158,1,fourtwo,,,,,,,,,,,,,,,,,,,,,,,,,,,,,,,,,,,,,,,,,,,,,,,,,,,,,,,,,,,,,,,,,,,,,,,,,,,,,,,,,,,,,,,,,,,,,,,,,,,,,,,,,,,,,,,,,,,,,,,,,,,,,,,,,,,,,,,,,,,,,,,,,,,,,
,,,,,,614cf1b2025f87af3ca56ebd,62bbfb7b6205431a697012c5,2022-06-29_09h27.36.556,Colour_Asymmetry_Pilot,2022.1.3,Win32,60.29908345,62bbe60bf3d75ef465d3e404,0,145,145,153,1,onethree,,,,,,,,,,,,,,,,,,,,,,,,,,,,,,,,,,,,,,,,,,,,,,,,,,,,,,,,,,,,,,,,,,,,,,,,,,,,,,,,,,,,,,,,,,,,,,,,,,,,,,,,,,,,,,,,,,,,,,,,,,,,,,,,,,,,,,,,,,,,,,,,,,,,,
,,,,,,614cf1b2025f87af3ca56ebd,62bbfb7b6205431a697012c5,2022-06-29_09h27.36.556,Colour_Asymmetry_Pilot,2022.1.3,Win32,60.29908345,62bbe60bf3d75ef465d3e404,0,146,146,110,1,fourtwo,,,,,,,,,,,,,,,,,,,,,,,,,,,,,,,,,,,,,,,,,,,,,,,,,,,,,,,,,,,,,,,,,,,,,,,,,,,,,,,,,,,,,,,,,,,,,,,,,,,,,,,,,,,,,,,,,,,,,,,,,,,,,,,,,,,,,,,,,,,,,,,,,,,,,
,,,,,,614cf1b2025f87af3ca56ebd,62bbfb7b6205431a697012c5,2022-06-29_09h27.36.556,Colour_Asymmetry_Pilot,2022.1.3,Win32,60.29908345,62bbe60bf3d75ef465d3e404,0,147,147,113,1,onethree,,,,,,,,,,,,,,,,,,,,,,,,,,,,,,,,,,,,,,,,,,,,,,,,,,,,,,,,,,,,,,,,,,,,,,,,,,,,,,,,,,,,,,,,,,,,,,,,,,,,,,,,,,,,,,,,,,,,,,,,,,,,,,,,,,,,,,,,,,,,,,,,,,,,,
,,,,,,614cf1b2025f87af3ca56ebd,62bbfb7b6205431a697012c5,2022-06-29_09h27.36.556,Colour_Asymmetry_Pilot,2022.1.3,Win32,60.29908345,62bbe60bf3d75ef465d3e404,0,148,148,42,1,twoone,,,,,,,,,,,,,,,,,,,,,,,,,,,,,,,,,,,,,,,,,,,,,,,,,,,,,,,,,,,,,,,,,,,,,,,,,,,,,,,,,,,,,,,,,,,,,,,,,,,,,,,,,,,,,,,,,,,,,,,,,,,,,,,,,,,,,,,,,,,,,,,,,,,,,
,,,,,,614cf1b2025f87af3ca56ebd,62bbfb7b6205431a697012c5,2022-06-29_09h27.36.556,Colour_Asymmetry_Pilot,2022.1.3,Win32,60.29908345,62bbe60bf3d75ef465d3e404,0,149,149,64,1,onetwo,,,,,,,,,,,,,,,,,,,,,,,,,,,,,,,,,,,,,,,,,,,,,,,,,,,,,,,,,,,,,,,,,,,,,,,,,,,,,,,,,,,,,,,,,,,,,,,,,,,,,,,,,,,,,,,,,,,,,,,,,,,,,,,,,,,,,,,,,,,,,,,,,,,,,
,,,,,,614cf1b2025f87af3ca56ebd,62bbfb7b6205431a697012c5,2022-06-29_09h27.36.556,Colour_Asymmetry_Pilot,2022.1.3,Win32,60.29908345,62bbe60bf3d75ef465d3e404,0,150,150,65,1,onethree,,,,,,,,,,,,,,,,,,,,,,,,,,,,,,,,,,,,,,,,,,,,,,,,,,,,,,,,,,,,,,,,,,,,,,,,,,,,,,,,,,,,,,,,,,,,,,,,,,,,,,,,,,,,,,,,,,,,,,,,,,,,,,,,,,,,,,,,,,,,,,,,,,,,,
,,,,,,614cf1b2025f87af3ca56ebd,62bbfb7b6205431a697012c5,2022-06-29_09h27.36.556,Colour_Asymmetry_Pilot,2022.1.3,Win32,60.29908345,62bbe60bf3d75ef465d3e404,0,151,151,17,1,onethree,,,,,,,,,,,,,,,,,,,,,,,,,,,,,,,,,,,,,,,,,,,,,,,,,,,,,,,,,,,,,,,,,,,,,,,,,,,,,,,,,,,,,,,,,,,,,,,,,,,,,,,,,,,,,,,,,,,,,,,,,,,,,,,,,,,,,,,,,,,,,,,,,,,,,
,,,,,,614cf1b2025f87af3ca56ebd,62bbfb7b6205431a697012c5,2022-06-29_09h27.36.556,Colour_Asymmetry_Pilot,2022.1.3,Win32,60.29908345,62bbe60bf3d75ef465d3e404,0,152,152,144,1,onetwo,,,,,,,,,,,,,,,,,,,,,,,,,,,,,,,,,,,,,,,,,,,,,,,,,,,,,,,,,,,,,,,,,,,,,,,,,,,,,,,,,,,,,,,,,,,,,,,,,,,,,,,,,,,,,,,,,,,,,,,,,,,,,,,,,,,,,,,,,,,,,,,,,,,,,
,,,,,,614cf1b2025f87af3ca56ebd,62bbfb7b6205431a697012c5,2022-06-29_09h27.36.556,Colour_Asymmetry_Pilot,2022.1.3,Win32,60.29908345,62bbe60bf3d75ef465d3e404,0,153,153,46,1,fourtwo,,,,,,,,,,,,,,,,,,,,,,,,,,,,,,,,,,,,,,,,,,,,,,,,,,,,,,,,,,,,,,,,,,,,,,,,,,,,,,,,,,,,,,,,,,,,,,,,,,,,,,,,,,,,,,,,,,,,,,,,,,,,,,,,,,,,,,,,,,,,,,,,,,,,,
,,,,,,614cf1b2025f87af3ca56ebd,62bbfb7b6205431a697012c5,2022-06-29_09h27.36.556,Colour_Asymmetry_Pilot,2022.1.3,Win32,60.29908345,62bbe60bf3d75ef465d3e404,0,154,154,36,1,threeone,,,,,,,,,,,,,,,,,,,,,,,,,,,,,,,,,,,,,,,,,,,,,,,,,,,,,,,,,,,,,,,,,,,,,,,,,,,,,,,,,,,,,,,,,,,,,,,,,,,,,,,,,,,,,,,,,,,,,,,,,,,,,,,,,,,,,,,,,,,,,,,,,,,,,
,,,,,,614cf1b2025f87af3ca56ebd,62bbfb7b6205431a697012c5,2022-06-29_09h27.36.556,Colour_Asymmetry_Pilot,2022.1.3,Win32,60.29908345,62bbe60bf3d75ef465d3e404,0,155,155,105,1,onethree,,,,,,,,,,,,,,,,,,,,,,,,,,,,,,,,,,,,,,,,,,,,,,,,,,,,,,,,,,,,,,,,,,,,,,,,,,,,,,,,,,,,,,,,,,,,,,,,,,,,,,,,,,,,,,,,,,,,,,,,,,,,,,,,,,,,,,,,,,,,,,,,,,,,,
,,,,,,614cf1b2025f87af3ca56ebd,62bbfb7b6205431a697012c5,2022-06-29_09h27.36.556,Colour_Asymmetry_Pilot,2022.1.3,Win32,60.29908345,62bbe60bf3d75ef465d3e404,0,156,156,143,1,fourthree,,,,,,,,,,,,,,,,,,,,,,,,,,,,,,,,,,,,,,,,,,,,,,,,,,,,,,,,,,,,,,,,,,,,,,,,,,,,,,,,,,,,,,,,,,,,,,,,,,,,,,,,,,,,,,,,,,,,,,,,,,,,,,,,,,,,,,,,,,,,,,,,,,,,,
,,,,,,614cf1b2025f87af3ca56ebd,62bbfb7b6205431a697012c5,2022-06-29_09h27.36.556,Colour_Asymmetry_Pilot,2022.1.3,Win32,60.29908345,62bbe60bf3d75ef465d3e404,0,157,157,39,1,fourthree,,,,,,,,,,,,,,,,,,,,,,,,,,,,,,,,,,,,,,,,,,,,,,,,,,,,,,,,,,,,,,,,,,,,,,,,,,,,,,,,,,,,,,,,,,,,,,,,,,,,,,,,,,,,,,,,,,,,,,,,,,,,,,,,,,,,,,,,,,,,,,,,,,,,,
,,,,,,614cf1b2025f87af3ca56ebd,62bbfb7b6205431a697012c5,2022-06-29_09h27.36.556,Colour_Asymmetry_Pilot,2022.1.3,Win32,60.29908345,62bbe60bf3d75ef465d3e404,0,158,158,155,1,twofour,,,,,,,,,,,,,,,,,,,,,,,,,,,,,,,,,,,,,,,,,,,,,,,,,,,,,,,,,,,,,,,,,,,,,,,,,,,,,,,,,,,,,,,,,,,,,,,,,,,,,,,,,,,,,,,,,,,,,,,,,,,,,,,,,,,,,,,,,,,,,,,,,,,,,
,,,,,,614cf1b2025f87af3ca56ebd,62bbfb7b6205431a697012c5,2022-06-29_09h27.36.556,Colour_Asymmetry_Pilot,2022.1.3,Win32,60.29908345,62bbe60bf3d75ef465d3e404,0,159,159,55,1,fourthree,,,,,,,,,,,,,,,,,,,,,,,,,,,,,,,,,,,,,,,,,,,,,,,,,,,,,,,,,,,,,,,,,,,,,,,,,,,,,,,,,,,,,,,,,,,,,,,,,,,,,,,,,,,,,,,,,,,,,,,,,,,,,,,,,,,,,,,,,,,,,,,,,,,,,
,,,,,,614cf1b2025f87af3ca56ebd,62bbfb7b6205431a697012c5,2022-06-29_09h27.36.556,Colour_Asymmetry_Pilot,2022.1.3,Win32,60.29908345,62bbe60bf3d75ef465d3e404,0,160,160,35,1,twofour,,,,,,,,,,,,,,,,,,,,,,,,,,,,,,,,,,,,,,,,,,,,,,,,,,,,,,,,,,,,,,,,,,,,,,,,,,,,,,,,,,,,,,,,,,,,,,,,,,,,,,,,,,,,,,,,,,,,,,,,,,,,,,,,,,,,,,,,,,,,,,,,,,,,,
,,,,,,614cf1b2025f87af3ca56ebd,62bbfb7b6205431a697012c5,2022-06-29_09h27.36.556,Colour_Asymmetry_Pilot,2022.1.3,Win32,60.29908345,62bbe60bf3d75ef465d3e404,0,161,161,52,1,threeone,,,,,,,,,,,,,,,,,,,,,,,,,,,,,,,,,,,,,,,,,,,,,,,,,,,,,,,,,,,,,,,,,,,,,,,,,,,,,,,,,,,,,,,,,,,,,,,,,,,,,,,,,,,,,,,,,,,,,,,,,,,,,,,,,,,,,,,,,,,,,,,,,,,,,
,,,,,,614cf1b2025f87af3ca56ebd,62bbfb7b6205431a697012c5,2022-06-29_09h27.36.556,Colour_Asymmetry_Pilot,2022.1.3,Win32,60.29908345,62bbe60bf3d75ef465d3e404,,,,,,,space,1.78,space,13.3698,space,24.9616,space,9.8647,space,2.8018,space,4.4502,"[-0.2942,-0.24719999999999998,-0.357]",onethree,"[0.9842,0.7409999999999999,-0.6628000000000001]",-4,5.9817,-25,69,1,0,0,response7disk_5,1,1,1,0,0,rectangle_8,1,1,1,0,0,4,1,1,1,0,0,0,0,0,0,1,,,,,,,,,,,,,,,,,,,,,,,,,,,,,,,,,,,,,,,,,,,,,,,,,,,,,,,,,,,,,,,,,,,,,,,,,,,,,,,,,,,,,,,,,,,,,,,,,,,,,,,,
,,,,,,614cf1b2025f87af3ca56ebd,62bbfb7b6205431a697012c5,2022-06-29_09h27.36.556,Colour_Asymmetry_Pilot,2022.1.3,Win32,60.29908345,62bbe60bf3d75ef465d3e404,,,,,,,,,,,,,,,,,,,"[-0.9844,-0.9688,-0.9922]",fourtwo,"[0.3568,-0.20799999999999996,-0.9844]",-4,2.4336,-37,71,1,0,0,response7disk_5,-2,4,1,0,0,rectangle_8,-2,4,1,0,0,4,-2,4,1,0,0,1,0,1,0,1,,,,,,,,,,,,,,,,,,,,,,,,,,,,,,,,,,,,,,,,,,,,,,,,,,,,,,,,,,,,,,,,,,,,,,,,,,,,,,,,,,,,,,,,,,,,,,,,,,,,,,,,
,,,,,,614cf1b2025f87af3ca56ebd,62bbfb7b6205431a697012c5,2022-06-29_09h27.36.556,Colour_Asymmetry_Pilot,2022.1.3,Win32,60.29908345,62bbe60bf3d75ef465d3e404,,,,,,,,,,,,,,,,,,,"[-0.10599999999999998,-0.10599999999999998,0.5841999999999998]",twoone,"[1,0.12939999999999996,-1]",-4,1.437,-27,58,1,0,0,response7disk_5,6,6,1,0,0,rectangle_8,6,6,1,0,0,4,6,6,1,0,0,2,0,2,0,1,,,,,,,,,,,,,,,,,,,,,,,,,,,,,,,,,,,,,,,,,,,,,,,,,,,,,,,,,,,,,,,,,,,,,,,,,,,,,,,,,,,,,,,,,,,,,,,,,,,,,,,,
,,,,,,614cf1b2025f87af3ca56ebd,62bbfb7b6205431a697012c5,2022-06-29_09h27.36.556,Colour_Asymmetry_Pilot,2022.1.3,Win32,60.29908345,62bbe60bf3d75ef465d3e404,,,,,,,,,,,,,,,,,,,"[0.7646000000000002,0.07440000000000002,0.2704]",twoone,"[-0.8982,-0.37259999999999993,0.2784]",-4,1.0176,-30,86,1,0,0,response7disk_5,17,5,1,0,0,rectangle_8,17,5,1,0,0,4,17,5,1,0,0,3,0,3,0,1,,,,,,,,,,,,,,,,,,,,,,,,,,,,,,,,,,,,,,,,,,,,,,,,,,,,,,,,,,,,,,,,,,,,,,,,,,,,,,,,,,,,,,,,,,,,,,,,,,,,,,,,
,,,,,,614cf1b2025f87af3ca56ebd,62bbfb7b6205431a697012c5,2022-06-29_09h27.36.556,Colour_Asymmetry_Pilot,2022.1.3,Win32,60.29908345,62bbe60bf3d75ef465d3e404,,,,,,,,,,,,,,,,,,,"[-0.06680000000000008,-0.45100000000000007,-0.906]",twofour,"[-0.2942,-0.24719999999999998,-0.357]",-4,1.8341,-31,59,1,0,0,response7disk_5,-16,-4,1,0,0,rectangle_8,-16,-4,1,0,0,4,-16,-4,1,0,0,4,0,4,0,1,,,,,,,,,,,,,,,,,,,,,,,,,,,,,,,,,,,,,,,,,,,,,,,,,,,,,,,,,,,,,,,,,,,,,,,,,,,,,,,,,,,,,,,,,,,,,,,,,,,,,,,,
,,,,,,614cf1b2025f87af3ca56ebd,62bbfb7b6205431a697012c5,2022-06-29_09h27.36.556,Colour_Asymmetry_Pilot,2022.1.3,Win32,60.29908345,62bbe60bf3d75ef465d3e404,,,,,,,,,,,,,,,,,,,"[-0.9296,-0.12959999999999994,-0.043199999999999905]",fourtwo,"[-0.2942,-0.7648,-0.7492000000000001]",-4,1.2335,-40,66,1,0,0,response7disk_5,0,-2,1,0,0,rectangle_8,0,-2,1,0,0,4,0,-2,1,0,0,5,0,5,0,1,,,,,,,,,,,,,,,,,,,,,,,,,,,,,,,,,,,,,,,,,,,,,,,,,,,,,,,,,,,,,,,,,,,,,,,,,,,,,,,,,,,,,,,,,,,,,,,,,,,,,,,,
,,,,,,614cf1b2025f87af3ca56ebd,62bbfb7b6205431a697012c5,2022-06-29_09h27.36.556,Colour_Asymmetry_Pilot,2022.1.3,Win32,60.29908345,62bbe60bf3d75ef465d3e404,,,,,,,,,,,,,,,,,,,"[0.23120000000000007,-0.7726,-0.34120000000000006]",fourtwo,"[0.8115999999999999,-0.0040000000000000036,-0.09819999999999995]",-3,2.2001,-41,22,1,0,0,response7disk_5,5,4,1,0,0,rectangle_8,5,4,1,0,0,4,5,4,1,0,0,6,0,6,0,1,,,,,,,,,,,,,,,,,,,,,,,,,,,,,,,,,,,,,,,,,,,,,,,,,,,,,,,,,,,,,,,,,,,,,,,,,,,,,,,,,,,,,,,,,,,,,,,,,,,,,,,,
,,,,,,614cf1b2025f87af3ca56ebd,62bbfb7b6205431a697012c5,2022-06-29_09h27.36.556,Colour_Asymmetry_Pilot,2022.1.3,Win32,60.29908345,62bbe60bf3d75ef465d3e404,,,,,,,,,,,,,,,,,,,,threefour,,-4,1.0477,,,,,,,,,,,,,,,,,,,,,,,,,,,,,space,4.85,"[-0.9844,-0.9688,-0.9922]","[0.18419999999999992,-0.4276,-0.404]",-24,57,1,0,0,response7disk,4,6,1,0,0,rectangle,4,6,1,0,0,,3,0.0043,0,4,6,1,0,0,0,0,0,25,1,25,first,,,,,,,,,,,,,,,,,,,,,,,,,,,,,,,,,,,,,,,,,,,,,,,,,,,,,,,,,,,,,,,,,,,
,,,,,,614cf1b2025f87af3ca56ebd,62bbfb7b6205431a697012c5,2022-06-29_09h27.36.556,Colour_Asymmetry_Pilot,2022.1.3,Win32,60.29908345,62bbe60bf3d75ef465d3e404,,,,,,,,,,,,,,,,,,,,fourtwo,,-3,3.7843,,,,,,,,,,,,,,,,,,,,,,,,,,,,,,,"[-0.0040000000000000036,0.02739999999999987,-0.08239999999999992]","[-0.26280000000000003,-0.4746,-0.2158]",-59,29,1,0,0,response7disk,10,10,1,0,0,rectangle,10,10,1,0,0,,3,0.0004,0,10,10,1,0,0,0,1,1,147,1,66,second,,,,,,,,,,,,,,,,,,,,,,,,,,,,,,,,,,,,,,,,,,,,,,,,,,,,,,,,,,,,,,,,,,,
,,,,,,614cf1b2025f87af3ca56ebd,62bbfb7b6205431a697012c5,2022-06-29_09h27.36.556,Colour_Asymmetry_Pilot,2022.1.3,Win32,60.29908345,62bbe60bf3d75ef465d3e404,,,,,,,,,,,,,,,,,,,,threeone,,-4,1.4366,,,,,,,,,,,,,,,,,,,,,,,,,,,,,,,"[-0.10599999999999998,-0.15300000000000002,0.15280000000000005]","[-0.011800000000000033,-0.906,-0.45100000000000007]",-38,73,1,0,0,response7disk,18,5,1,0,0,rectangle,18,5,1,0,0,,2,0.0025,0,18,5,1,0,0,0,2,2,31,1,31,first,,,,,,,,,,,,,,,,,,,,,,,,,,,,,,,,,,,,,,,,,,,,,,,,,,,,,,,,,,,,,,,,,,,
,,,,,,614cf1b2025f87af3ca56ebd,62bbfb7b6205431a697012c5,2022-06-29_09h27.36.556,Colour_Asymmetry_Pilot,2022.1.3,Win32,60.29908345,62bbe60bf3d75ef465d3e404,,,,,,,,,,,,,,,,,,,,onetwo,,-2,1.0671,,,,,,,,,,,,,,,,,,,,,,,,,,,,,,,"[-0.48240000000000005,0.3175999999999999,0.2156]","[-0.2942,-0.24719999999999998,-0.357]",-50,-27,1,0,0,response5disk,-6,0,1,0,0,rectangle,71,36,1,0,0,3,3,10.735,1,9,6,1,0,0,0,3,3,104,1,23,second,response1disk_3,rectangle,,,,,,,,,,,,,,,,,,,,,,,,,,,,,,,,,,,,,,,,,,,,,,,,,,,,,,,,,,,,,,,,,
,,,,,,614cf1b2025f87af3ca56ebd,62bbfb7b6205431a697012c5,2022-06-29_09h27.36.556,Colour_Asymmetry_Pilot,2022.1.3,Win32,60.29908345,62bbe60bf3d75ef465d3e404,,,,,,,,,,,,,,,,,,,,threefour,,-4,2.2842,,,,,,,,,,,,,,,,,,,,,,,,,,,,,,,"[0.7176,-0.906,-0.6864]","[-0.24719999999999998,0.5213999999999999,-0.12959999999999994]",-21,68,1,0,0,response7disk,-13,0,1,0,0,rectangle,-13,0,1,0,0,3,1,0.0033,0,-13,0,1,0,0,0,4,4,144,1,63,second,,,,,,,,,,,,,,,,,,,,,,,,,,,,,,,,,,,,,,,,,,,,,,,,,,,,,,,,,,,,,,,,,,,
,,,,,,614cf1b2025f87af3ca56ebd,62bbfb7b6205431a697012c5,2022-06-29_09h27.36.556,Colour_Asymmetry_Pilot,2022.1.3,Win32,60.29908345,62bbe60bf3d75ef465d3e404,,,,,,,,,,,,,,,,,,,,onethree,,-1,1.75,,,,,,,,,,,,,,,,,,,,,,,,,,,,,,,"[-0.9296,-0.12959999999999994,-0.043199999999999905]","[-0.4982,-0.2942,-0.0354000000000001]",-44,-70,1,0,0,response5disk,6,2,1,0,0,rectangle,6,2,1,0,0,3,1,0.002,0,6,2,1,0,0,0,5,5,139,1,58,second,,,,,,,,,,,,,,,,,,,,,,,,,,,,,,,,,,,,,,,,,,,,,,,,,,,,,,,,,,,,,,,,,,,
,,,,,,614cf1b2025f87af3ca56ebd,62bbfb7b6205431a697012c5,2022-06-29_09h27.36.556,Colour_Asymmetry_Pilot,2022.1.3,Win32,60.29908345,62bbe60bf3d75ef465d3e404,,,,,,,,,,,,,,,,,,,,twofour,,-1,1.5504,,,,,,,,,,,,,,,,,,,,,,,,,,,,,,,"[-0.4276,0.0038000000000000256,-0.3256]","[-0.2942,-0.24719999999999998,-0.357]",-39,-65,1,0,0,response5disk,-4,-6,1,0,0,rectangle,-4,-6,1,0,0,3,3,0.0024,0,-4,-6,1,0,0,0,6,6,126,1,45,second,,,,,,,,,,,,,,,,,,,,,,,,,,,,,,,,,,,,,,,,,,,,,,,,,,,,,,,,,,,,,,,,,,,
,,,,,,614cf1b2025f87af3ca56ebd,62bbfb7b6205431a697012c5,2022-06-29_09h27.36.556,Colour_Asymmetry_Pilot,2022.1.3,Win32,60.29908345,62bbe60bf3d75ef465d3e404,,,,,,,,,,,,,,,,,,,,twoone,,-4,1.1505,,,,,,,,,,,,,,,,,,,,,,,,,,,,,,,"[0.3802000000000001,0.19199999999999995,-0.6394]","[0.40379999999999994,0.09000000000000008,0.44300000000000006]",-16,70,1,0,0,response7disk,-1,7,1,0,0,rectangle,-1,7,1,0,0,3,2,0.003,0,-1,7,1,0,0,0,7,7,149,1,68,second,,,,,,,,,,,,,,,,,,,,,,,,,,,,,,,,,,,,,,,,,,,,,,,,,,,,,,,,,,,,,,,,,,,
,,,,,,614cf1b2025f87af3ca56ebd,62bbfb7b6205431a697012c5,2022-06-29_09h27.36.556,Colour_Asymmetry_Pilot,2022.1.3,Win32,60.29908345,62bbe60bf3d75ef465d3e404,,,,,,,,,,,,,,,,,,,,onetwo,,-4,0.4852,,,,,,,,,,,,,,,,,,,,,,,,,,,,,,,"[0.23920000000000008,0.2704,0.16060000000000008]","[-0.9766,-0.6472,0.07440000000000002]",-19,47,1,0,0,response7disk,-1,5,1,0,0,rectangle,-1,5,1,0,0,3,2,0.0007,0,-1,5,1,0,0,0,8,8,42,1,42,first,,,,,,,,,,,,,,,,,,,,,,,,,,,,,,,,,,,,,,,,,,,,,,,,,,,,,,,,,,,,,,,,,,,
,,,,,,614cf1b2025f87af3ca56ebd,62bbfb7b6205431a697012c5,2022-06-29_09h27.36.556,Colour_Asymmetry_Pilot,2022.1.3,Win32,60.29908345,62bbe60bf3d75ef465d3e404,,,,,,,,,,,,,,,,,,,,twofour,,-4,0.6,,,,,,,,,,,,,,,,,,,,,,,,,,,,,,,"[-0.011800000000000033,-0.906,-0.45100000000000007]","[-0.4902000000000001,0.2704,-0.45899999999999996]",-28,69,1,0,0,response7disk,4,3,1,0,0,rectangle,4,3,1,0,0,3,3,0.0025,0,4,3,1,0,0,0,9,9,12,1,12,first,,,,,,,,,,,,,,,,,,,,,,,,,,,,,,,,,,,,,,,,,,,,,,,,,,,,,,,,,,,,,,,,,,,
,,,,,,614cf1b2025f87af3ca56ebd,62bbfb7b6205431a697012c5,2022-06-29_09h27.36.556,Colour_Asymmetry_Pilot,2022.1.3,Win32,60.29908345,62bbe60bf3d75ef465d3e404,,,,,,,,,,,,,,,,,,,,threeone,,-1,0.9795,,,,,,,,,,,,,,,,,,,,,,,,,,,,,,,"[-0.2942,-0.24719999999999998,-0.357]","[-0.4276,0.0038000000000000256,-0.3256]",-28,-54,1,0,0,response5disk,1,-10,1,0,0,rectangle,1,-10,1,0,0,3,2,0.0028,0,1,-10,1,0,0,0,10,10,45,1,45,first,,,,,,,,,,,,,,,,,,,,,,,,,,,,,,,,,,,,,,,,,,,,,,,,,,,,,,,,,,,,,,,,,,,
,,,,,,614cf1b2025f87af3ca56ebd,62bbfb7b6205431a697012c5,2022-06-29_09h27.36.556,Colour_Asymmetry_Pilot,2022.1.3,Win32,60.29908345,62bbe60bf3d75ef465d3e404,,,,,,,,,,,,,,,,,,,,fourtwo,,-4,1.1836,,,,,,,,,,,,,,,,,,,,,,,,,,,,,,,"[-0.26280000000000003,-0.2158,-0.3256]","[0.9842,0.7409999999999999,-0.6628000000000001]",-30,46,1,0,0,response7disk,9,-2,1,0,0,rectangle,9,-2,1,0,0,3,1,0.0024,0,9,-2,1,0,0,0,11,11,71,1,71,first,,,,,,,,,,,,,,,,,,,,,,,,,,,,,,,,,,,,,,,,,,,,,,,,,,,,,,,,,,,,,,,,,,,
,,,,,,614cf1b2025f87af3ca56ebd,62bbfb7b6205431a697012c5,2022-06-29_09h27.36.556,Colour_Asymmetry_Pilot,2022.1.3,Win32,60.29908345,62bbe60bf3d75ef465d3e404,,,,,,,,,,,,,,,,,,,,twoone,,-4,0.8723,,,,,,,,,,,,,,,,,,,,,,,,,,,,,,,"[0.6625999999999999,0.4980000000000002,-0.357]","[-0.34920000000000007,-0.702,-0.5216]",-41,47,1,0,0,response7disk,-4,-6,1,0,0,rectangle,-4,-6,1,0,0,3,3,0.0027,0,-4,-6,1,0,0,0,12,12,131,1,50,second,,,,,,,,,,,,,,,,,,,,,,,,,,,,,,,,,,,,,,,,,,,,,,,,,,,,,,,,,,,,,,,,,,,
,,,,,,614cf1b2025f87af3ca56ebd,62bbfb7b6205431a697012c5,2022-06-29_09h27.36.556,Colour_Asymmetry_Pilot,2022.1.3,Win32,60.29908345,62bbe60bf3d75ef465d3e404,,,,,,,,,,,,,,,,,,,,twoone,,-4,0.5168,,,,,,,,,,,,,,,,,,,,,,,,,,,,,,,"[0.04299999999999993,0.16060000000000008,-0.6628000000000001]","[0.12939999999999996,-0.2864,0.3253999999999999]",-34,67,1,0,0,response7disk,29,-2,1,0,0,rectangle,29,-2,1,0,0,3,2,0.0027,0,29,-2,1,0,0,0,13,13,109,1,28,second,,,,,,,,,,,,,,,,,,,,,,,,,,,,,,,,,,,,,,,,,,,,,,,,,,,,,,,,,,,,,,,,,,,
,,,,,,614cf1b2025f87af3ca56ebd,62bbfb7b6205431a697012c5,2022-06-29_09h27.36.556,Colour_Asymmetry_Pilot,2022.1.3,Win32,60.29908345,62bbe60bf3d75ef465d3e404,,,,,,,,,,,,,,,,,,,,fourtwo,,4,1.5382,,,,,,,,,,,,,,,,,,,,,,,,,,,,,,,"[0.09799999999999986,-0.24719999999999998,0.15280000000000005]","[0.12939999999999996,-0.2864,0.3253999999999999]",22,51,1,0,0,response1disk,-19,11,1,0,0,rectangle,-19,11,1,0,0,-3,1,0.0028,0,-19,11,1,0,0,0,14,14,150,1,69,second,,,,,,,,,,,,,,,,,,,,,,,,,,,,,,,,,,,,,,,,,,,,,,,,,,,,,,,,,,,,,,,,,,,
,,,,,,614cf1b2025f87af3ca56ebd,62bbfb7b6205431a697012c5,2022-06-29_09h27.36.556,Colour_Asymmetry_Pilot,2022.1.3,Win32,60.29908345,62bbe60bf3d75ef465d3e404,,,,,,,,,,,,,,,,,,,,fourtwo,,-4,0.9002,,,,,,,,,,,,,,,,,,,,,,,,,,,,,,,"[-0.24719999999999998,-0.0354000000000001,0.3175999999999999]","[0.5449999999999999,-0.31000000000000005,-0.0354000000000001]",-23,37,1,0,0,response7disk,-2,11,1,0,0,rectangle,-2,11,1,0,0,-3,1,0.0003,0,-2,11,1,0,0,0,15,15,100,1,19,second,,,,,,,,,,,,,,,,,,,,,,,,,,,,,,,,,,,,,,,,,,,,,,,,,,,,,,,,,,,,,,,,,,,
,,,,,,614cf1b2025f87af3ca56ebd,62bbfb7b6205431a697012c5,2022-06-29_09h27.36.556,Colour_Asymmetry_Pilot,2022.1.3,Win32,60.29908345,62bbe60bf3d75ef465d3e404,,,,,,,,,,,,,,,,,,,,twofour,,4,0.6336,,,,,,,,,,,,,,,,,,,,,,,,,,,,,,,"[-0.17659999999999998,-0.2864,-0.8354]","[-0.17659999999999998,-0.2864,-0.8354]",33,68,1,0,0,response1disk,22,-6,1,0,0,rectangle,33,-61,1,0,0,1,1,10.7358,1,-11,9,1,0,0,0,16,16,161,1,80,second,response3disk_3,rectangle,,,,,,,,,,,,,,,,,,,,,,,,,,,,,,,,,,,,,,,,,,,,,,,,,,,,,,,,,,,,,,,,,
,,,,,,614cf1b2025f87af3ca56ebd,62bbfb7b6205431a697012c5,2022-06-29_09h27.36.556,Colour_Asymmetry_Pilot,2022.1.3,Win32,60.29908345,62bbe60bf3d75ef465d3e404,,,,,,,,,,,,,,,,,,,,twoone,,-4,0.5348,,,,,,,,,,,,,,,,,,,,,,,,,,,,,,,"[-0.9688,-0.7412000000000001,-0.4902000000000001]","[0.5528,0.7409999999999999,-0.71]",-33,57,1,0,0,response7disk,-8,-5,1,0,0,rectangle,-8,-5,1,0,0,1,2,0.0025,0,-8,-5,1,0,0,0,17,17,49,1,49,first,,,,,,,,,,,,,,,,,,,,,,,,,,,,,,,,,,,,,,,,,,,,,,,,,,,,,,,,,,,,,,,,,,,
,,,,,,614cf1b2025f87af3ca56ebd,62bbfb7b6205431a697012c5,2022-06-29_09h27.36.556,Colour_Asymmetry_Pilot,2022.1.3,Win32,60.29908345,62bbe60bf3d75ef465d3e404,,,,,,,,,,,,,,,,,,,,twofour,,4,1.1868,,,,,,,,,,,,,,,,,,,,,,,,,,,,,,,"[0.05879999999999996,0.2784,0.5841999999999998]","[-0.24719999999999998,-0.0354000000000001,0.3175999999999999]",31,67,1,0,0,response1disk,15,2,1,0,0,rectangle,15,2,1,0,0,1,3,0.0027,0,15,2,1,0,0,0,18,18,128,1,47,second,,,,,,,,,,,,,,,,,,,,,,,,,,,,,,,,,,,,,,,,,,,,,,,,,,,,,,,,,,,,,,,,,,,
,,,,,,614cf1b2025f87af3ca56ebd,62bbfb7b6205431a697012c5,2022-06-29_09h27.36.556,Colour_Asymmetry_Pilot,2022.1.3,Win32,60.29908345,62bbe60bf3d75ef465d3e404,,,,,,,,,,,,,,,,,,,,onethree,,4,0.4205,,,,,,,,,,,,,,,,,,,,,,,,,,,,,,,"[0.9372,0.9450000000000001,0.8980000000000001]","[0.9372,0.9450000000000001,0.8980000000000001]",29,65,1,0,0,response1disk,21,-14,1,0,0,rectangle,39,-61,1,0,0,1,1,4.7814,1,4,9,1,0,0,0,19,19,76,1,76,first,response3disk_3,rectangle,,,,,,,,,,,,,,,,,,,,,,,,,,,,,,,,,,,,,,,,,,,,,,,,,,,,,,,,,,,,,,,,,
,,,,,,614cf1b2025f87af3ca56ebd,62bbfb7b6205431a697012c5,2022-06-29_09h27.36.556,Colour_Asymmetry_Pilot,2022.1.3,Win32,60.29908345,62bbe60bf3d75ef465d3e404,,,,,,,,,,,,,,,,,,,,threefour,,-4,0.7061,,,,,,,,,,,,,,,,,,,,,,,,,,,,,,,"[0.2784,-0.31000000000000005,-0.5452]","[-0.17659999999999998,0.3253999999999999,0.19999999999999996]",-29,56,1,0,0,response7disk,-4,3,1,0,0,rectangle,-4,3,1,0,0,1,2,0.0026,0,-4,3,1,0,0,0,20,20,125,1,44,second,,,,,,,,,,,,,,,,,,,,,,,,,,,,,,,,,,,,,,,,,,,,,,,,,,,,,,,,,,,,,,,,,,,
,,,,,,614cf1b2025f87af3ca56ebd,62bbfb7b6205431a697012c5,2022-06-29_09h27.36.556,Colour_Asymmetry_Pilot,2022.1.3,Win32,60.29908345,62bbe60bf3d75ef465d3e404,,,,,,,,,,,,,,,,,,,,twoone,,-4,0.402,,,,,,,,,,,,,,,,,,,,,,,,,,,,,,,"[-0.9688,-0.4902000000000001,-0.12159999999999993]","[0.2862,0.7802,0.3568]",-28,53,1,0,0,response7disk,5,-2,1,0,0,rectangle,5,-2,1,0,0,1,3,0.0025,0,5,-2,1,0,0,0,21,21,156,1,75,second,,,,,,,,,,,,,,,,,,,,,,,,,,,,,,,,,,,,,,,,,,,,,,,,,,,,,,,,,,,,,,,,,,,
,,,,,,614cf1b2025f87af3ca56ebd,62bbfb7b6205431a697012c5,2022-06-29_09h27.36.556,Colour_Asymmetry_Pilot,2022.1.3,Win32,60.29908345,62bbe60bf3d75ef465d3e404,,,,,,,,,,,,,,,,,,,,onethree,,-4,0.3638,,,,,,,,,,,,,,,,,,,,,,,,,,,,,,,"[-0.6,0.16860000000000008,0.44300000000000006]","[0.6625999999999999,0.4980000000000002,-0.357]",-27,50,1,0,0,response7disk,0,-5,1,0,0,rectangle,0,-5,1,0,0,1,1,0.0022,0,0,-5,1,0,0,0,22,22,60,1,60,first,,,,,,,,,,,,,,,,,,,,,,,,,,,,,,,,,,,,,,,,,,,,,,,,,,,,,,,,,,,,,,,,,,,
