trials.thisRepN,trials.thisTrialN,trials.thisN,trials.thisIndex,trials.ran,Colourcodes,participant,session,date,expName,psychopyVersion,OS,frameRate,study_id,trials_4.thisRepN,trials_4.thisTrialN,trials_4.thisN,trials_4.thisIndex,trials_4.ran,StimulusPos,key_resp.keys,key_resp.rt,key_resp_2.keys,key_resp_2.rt,key_resp_15.keys,key_resp_15.rt,key_resp_17.keys,key_resp_17.rt,key_resp_9.keys,key_resp_9.rt,key_resp_10.keys,key_resp_10.rt,Circle1_col,Ecc,Circle2_col,similarity,response_time,mouse_5.x,mouse_5.y,mouse_5.leftButton,mouse_5.midButton,mouse_5.rightButton,mouse_5.clicked_name,mouse_10.x,mouse_10.y,mouse_10.leftButton,mouse_10.midButton,mouse_10.rightButton,mouse_10.clicked_name,mouse_7.x,mouse_7.y,mouse_7.leftButton,mouse_7.midButton,mouse_7.rightButton,catchnumberprac,mouse_6.x,mouse_6.y,mouse_6.leftButton,mouse_6.midButton,mouse_6.rightButton,duringprac.thisRepN,duringprac.thisTrialN,duringprac.thisN,duringprac.thisIndex,duringprac.ran,mouse_7.clicked_name,catchprac,mouse_6.clicked_name,key_resp_22.keys,key_resp_22.rt,Circle1_colour,Circle2_colour,mouse.x,mouse.y,mouse.leftButton,mouse.midButton,mouse.rightButton,mouse.clicked_name,mouse_2.x,mouse_2.y,mouse_2.leftButton,mouse_2.midButton,mouse_2.rightButton,mouse_2.clicked_name,mouse_3.x,mouse_3.y,mouse_3.leftButton,mouse_3.midButton,mouse_3.rightButton,catchresponse,catchnumber,response_time_catch,Catch,mouse_11.x,mouse_11.y,mouse_11.leftButton,mouse_11.midButton,mouse_11.rightButton,trials_2.thisRepN,trials_2.thisTrialN,trials_2.thisN,trials_2.thisIndex,trials_2.ran,Colourpair,Temporder,mouse_3.clicked_name,mouse_11.clicked_name,trials_3.thisRepN,trials_3.thisTrialN,trials_3.thisN,trials_3.thisIndex,trials_3.ran,key_resp_instr_Ishi.keys,key_resp_instr_Ishi.rt,Ishi_trial_keyresp.keys,Ishi_trial_keyresp.rt,Ishi_textbox.text,Ishi_loop.thisRepN,Ishi_loop.thisTrialN,Ishi_loop.thisN,Ishi_loop.thisIndex,Ishi_loop.ran,imageaddress,textbox.text,mouse_4.x,mouse_4.y,mouse_4.leftButton,mouse_4.midButton,mouse_4.rightButton,mouse_4.clicked_name,textbox_2.text,mouse_8.x,mouse_8.y,mouse_8.leftButton,mouse_8.midButton,mouse_8.rightButton,mouse_8.clicked_name,textbox_3.text,mouse_9.x,mouse_9.y,mouse_9.leftButton,mouse_9.midButton,mouse_9.rightButton,mouse_9.clicked_name,textbox_4.text,mouse_12.x,mouse_12.y,mouse_12.leftButton,mouse_12.midButton,mouse_12.rightButton,mouse_12.clicked_name,textbox_5.text,mouse_13.x,mouse_13.y,mouse_13.leftButton,mouse_13.midButton,mouse_13.rightButton,mouse_13.clicked_name,textbox_6.text,mouse_14.x,mouse_14.y,mouse_14.leftButton,mouse_14.midButton,mouse_14.rightButton,mouse_14.clicked_name,textbox_7.text,mouse_15.x,mouse_15.y,mouse_15.leftButton,mouse_15.midButton,mouse_15.rightButton,mouse_15.clicked_name
0,0,0,70,1,,617028061465253b03b9aabb,62bbf940f649107dbe48ed39,2022-06-29_09h06.54.322,Colour_Asymmetry_Pilot,2022.1.3,Win32,60.80875646,62bbe60bf3d75ef465d3e404,,,,,,,,,,,,,,,,,,,,,,,,,,,,,,,,,,,,,,,,,,,,,,,,,,,,,,,,,,,,,,,,,,,,,,,,,,,,,,,,,,,,,,,,,,,,,,,,,,,,,,,,,,,,,,,,,,,,,,,,,,,,,,,,,,,,,,,,,,,,,,,,,,,,,,,,,,,,,,
0,1,1,63,1,,617028061465253b03b9aabb,62bbf940f649107dbe48ed39,2022-06-29_09h06.54.322,Colour_Asymmetry_Pilot,2022.1.3,Win32,60.80875646,62bbe60bf3d75ef465d3e404,,,,,,,,,,,,,,,,,,,,,,,,,,,,,,,,,,,,,,,,,,,,,,,,,,,,,,,,,,,,,,,,,,,,,,,,,,,,,,,,,,,,,,,,,,,,,,,,,,,,,,,,,,,,,,,,,,,,,,,,,,,,,,,,,,,,,,,,,,,,,,,,,,,,,,,,,,,,,,
0,2,2,54,1,,617028061465253b03b9aabb,62bbf940f649107dbe48ed39,2022-06-29_09h06.54.322,Colour_Asymmetry_Pilot,2022.1.3,Win32,60.80875646,62bbe60bf3d75ef465d3e404,,,,,,,,,,,,,,,,,,,,,,,,,,,,,,,,,,,,,,,,,,,,,,,,,,,,,,,,,,,,,,,,,,,,,,,,,,,,,,,,,,,,,,,,,,,,,,,,,,,,,,,,,,,,,,,,,,,,,,,,,,,,,,,,,,,,,,,,,,,,,,,,,,,,,,,,,,,,,,
0,3,3,7,1,,617028061465253b03b9aabb,62bbf940f649107dbe48ed39,2022-06-29_09h06.54.322,Colour_Asymmetry_Pilot,2022.1.3,Win32,60.80875646,62bbe60bf3d75ef465d3e404,,,,,,,,,,,,,,,,,,,,,,,,,,,,,,,,,,,,,,,,,,,,,,,,,,,,,,,,,,,,,,,,,,,,,,,,,,,,,,,,,,,,,,,,,,,,,,,,,,,,,,,,,,,,,,,,,,,,,,,,,,,,,,,,,,,,,,,,,,,,,,,,,,,,,,,,,,,,,,
0,4,4,24,1,,617028061465253b03b9aabb,62bbf940f649107dbe48ed39,2022-06-29_09h06.54.322,Colour_Asymmetry_Pilot,2022.1.3,Win32,60.80875646,62bbe60bf3d75ef465d3e404,,,,,,,,,,,,,,,,,,,,,,,,,,,,,,,,,,,,,,,,,,,,,,,,,,,,,,,,,,,,,,,,,,,,,,,,,,,,,,,,,,,,,,,,,,,,,,,,,,,,,,,,,,,,,,,,,,,,,,,,,,,,,,,,,,,,,,,,,,,,,,,,,,,,,,,,,,,,,,
0,5,5,92,1,,617028061465253b03b9aabb,62bbf940f649107dbe48ed39,2022-06-29_09h06.54.322,Colour_Asymmetry_Pilot,2022.1.3,Win32,60.80875646,62bbe60bf3d75ef465d3e404,,,,,,,,,,,,,,,,,,,,,,,,,,,,,,,,,,,,,,,,,,,,,,,,,,,,,,,,,,,,,,,,,,,,,,,,,,,,,,,,,,,,,,,,,,,,,,,,,,,,,,,,,,,,,,,,,,,,,,,,,,,,,,,,,,,,,,,,,,,,,,,,,,,,,,,,,,,,,,
0,6,6,17,1,,617028061465253b03b9aabb,62bbf940f649107dbe48ed39,2022-06-29_09h06.54.322,Colour_Asymmetry_Pilot,2022.1.3,Win32,60.80875646,62bbe60bf3d75ef465d3e404,,,,,,,,,,,,,,,,,,,,,,,,,,,,,,,,,,,,,,,,,,,,,,,,,,,,,,,,,,,,,,,,,,,,,,,,,,,,,,,,,,,,,,,,,,,,,,,,,,,,,,,,,,,,,,,,,,,,,,,,,,,,,,,,,,,,,,,,,,,,,,,,,,,,,,,,,,,,,,
0,7,7,40,1,,617028061465253b03b9aabb,62bbf940f649107dbe48ed39,2022-06-29_09h06.54.322,Colour_Asymmetry_Pilot,2022.1.3,Win32,60.80875646,62bbe60bf3d75ef465d3e404,,,,,,,,,,,,,,,,,,,,,,,,,,,,,,,,,,,,,,,,,,,,,,,,,,,,,,,,,,,,,,,,,,,,,,,,,,,,,,,,,,,,,,,,,,,,,,,,,,,,,,,,,,,,,,,,,,,,,,,,,,,,,,,,,,,,,,,,,,,,,,,,,,,,,,,,,,,,,,
0,8,8,55,1,,617028061465253b03b9aabb,62bbf940f649107dbe48ed39,2022-06-29_09h06.54.322,Colour_Asymmetry_Pilot,2022.1.3,Win32,60.80875646,62bbe60bf3d75ef465d3e404,,,,,,,,,,,,,,,,,,,,,,,,,,,,,,,,,,,,,,,,,,,,,,,,,,,,,,,,,,,,,,,,,,,,,,,,,,,,,,,,,,,,,,,,,,,,,,,,,,,,,,,,,,,,,,,,,,,,,,,,,,,,,,,,,,,,,,,,,,,,,,,,,,,,,,,,,,,,,,
0,9,9,18,1,,617028061465253b03b9aabb,62bbf940f649107dbe48ed39,2022-06-29_09h06.54.322,Colour_Asymmetry_Pilot,2022.1.3,Win32,60.80875646,62bbe60bf3d75ef465d3e404,,,,,,,,,,,,,,,,,,,,,,,,,,,,,,,,,,,,,,,,,,,,,,,,,,,,,,,,,,,,,,,,,,,,,,,,,,,,,,,,,,,,,,,,,,,,,,,,,,,,,,,,,,,,,,,,,,,,,,,,,,,,,,,,,,,,,,,,,,,,,,,,,,,,,,,,,,,,,,
0,10,10,37,1,,617028061465253b03b9aabb,62bbf940f649107dbe48ed39,2022-06-29_09h06.54.322,Colour_Asymmetry_Pilot,2022.1.3,Win32,60.80875646,62bbe60bf3d75ef465d3e404,,,,,,,,,,,,,,,,,,,,,,,,,,,,,,,,,,,,,,,,,,,,,,,,,,,,,,,,,,,,,,,,,,,,,,,,,,,,,,,,,,,,,,,,,,,,,,,,,,,,,,,,,,,,,,,,,,,,,,,,,,,,,,,,,,,,,,,,,,,,,,,,,,,,,,,,,,,,,,
0,11,11,53,1,,617028061465253b03b9aabb,62bbf940f649107dbe48ed39,2022-06-29_09h06.54.322,Colour_Asymmetry_Pilot,2022.1.3,Win32,60.80875646,62bbe60bf3d75ef465d3e404,,,,,,,,,,,,,,,,,,,,,,,,,,,,,,,,,,,,,,,,,,,,,,,,,,,,,,,,,,,,,,,,,,,,,,,,,,,,,,,,,,,,,,,,,,,,,,,,,,,,,,,,,,,,,,,,,,,,,,,,,,,,,,,,,,,,,,,,,,,,,,,,,,,,,,,,,,,,,,
0,12,12,75,1,,617028061465253b03b9aabb,62bbf940f649107dbe48ed39,2022-06-29_09h06.54.322,Colour_Asymmetry_Pilot,2022.1.3,Win32,60.80875646,62bbe60bf3d75ef465d3e404,,,,,,,,,,,,,,,,,,,,,,,,,,,,,,,,,,,,,,,,,,,,,,,,,,,,,,,,,,,,,,,,,,,,,,,,,,,,,,,,,,,,,,,,,,,,,,,,,,,,,,,,,,,,,,,,,,,,,,,,,,,,,,,,,,,,,,,,,,,,,,,,,,,,,,,,,,,,,,
0,13,13,66,1,,617028061465253b03b9aabb,62bbf940f649107dbe48ed39,2022-06-29_09h06.54.322,Colour_Asymmetry_Pilot,2022.1.3,Win32,60.80875646,62bbe60bf3d75ef465d3e404,,,,,,,,,,,,,,,,,,,,,,,,,,,,,,,,,,,,,,,,,,,,,,,,,,,,,,,,,,,,,,,,,,,,,,,,,,,,,,,,,,,,,,,,,,,,,,,,,,,,,,,,,,,,,,,,,,,,,,,,,,,,,,,,,,,,,,,,,,,,,,,,,,,,,,,,,,,,,,
0,14,14,30,1,,617028061465253b03b9aabb,62bbf940f649107dbe48ed39,2022-06-29_09h06.54.322,Colour_Asymmetry_Pilot,2022.1.3,Win32,60.80875646,62bbe60bf3d75ef465d3e404,,,,,,,,,,,,,,,,,,,,,,,,,,,,,,,,,,,,,,,,,,,,,,,,,,,,,,,,,,,,,,,,,,,,,,,,,,,,,,,,,,,,,,,,,,,,,,,,,,,,,,,,,,,,,,,,,,,,,,,,,,,,,,,,,,,,,,,,,,,,,,,,,,,,,,,,,,,,,,
0,15,15,56,1,,617028061465253b03b9aabb,62bbf940f649107dbe48ed39,2022-06-29_09h06.54.322,Colour_Asymmetry_Pilot,2022.1.3,Win32,60.80875646,62bbe60bf3d75ef465d3e404,,,,,,,,,,,,,,,,,,,,,,,,,,,,,,,,,,,,,,,,,,,,,,,,,,,,,,,,,,,,,,,,,,,,,,,,,,,,,,,,,,,,,,,,,,,,,,,,,,,,,,,,,,,,,,,,,,,,,,,,,,,,,,,,,,,,,,,,,,,,,,,,,,,,,,,,,,,,,,
0,16,16,29,1,,617028061465253b03b9aabb,62bbf940f649107dbe48ed39,2022-06-29_09h06.54.322,Colour_Asymmetry_Pilot,2022.1.3,Win32,60.80875646,62bbe60bf3d75ef465d3e404,,,,,,,,,,,,,,,,,,,,,,,,,,,,,,,,,,,,,,,,,,,,,,,,,,,,,,,,,,,,,,,,,,,,,,,,,,,,,,,,,,,,,,,,,,,,,,,,,,,,,,,,,,,,,,,,,,,,,,,,,,,,,,,,,,,,,,,,,,,,,,,,,,,,,,,,,,,,,,
0,17,17,45,1,,617028061465253b03b9aabb,62bbf940f649107dbe48ed39,2022-06-29_09h06.54.322,Colour_Asymmetry_Pilot,2022.1.3,Win32,60.80875646,62bbe60bf3d75ef465d3e404,,,,,,,,,,,,,,,,,,,,,,,,,,,,,,,,,,,,,,,,,,,,,,,,,,,,,,,,,,,,,,,,,,,,,,,,,,,,,,,,,,,,,,,,,,,,,,,,,,,,,,,,,,,,,,,,,,,,,,,,,,,,,,,,,,,,,,,,,,,,,,,,,,,,,,,,,,,,,,
0,18,18,20,1,,617028061465253b03b9aabb,62bbf940f649107dbe48ed39,2022-06-29_09h06.54.322,Colour_Asymmetry_Pilot,2022.1.3,Win32,60.80875646,62bbe60bf3d75ef465d3e404,,,,,,,,,,,,,,,,,,,,,,,,,,,,,,,,,,,,,,,,,,,,,,,,,,,,,,,,,,,,,,,,,,,,,,,,,,,,,,,,,,,,,,,,,,,,,,,,,,,,,,,,,,,,,,,,,,,,,,,,,,,,,,,,,,,,,,,,,,,,,,,,,,,,,,,,,,,,,,
0,19,19,8,1,,617028061465253b03b9aabb,62bbf940f649107dbe48ed39,2022-06-29_09h06.54.322,Colour_Asymmetry_Pilot,2022.1.3,Win32,60.80875646,62bbe60bf3d75ef465d3e404,,,,,,,,,,,,,,,,,,,,,,,,,,,,,,,,,,,,,,,,,,,,,,,,,,,,,,,,,,,,,,,,,,,,,,,,,,,,,,,,,,,,,,,,,,,,,,,,,,,,,,,,,,,,,,,,,,,,,,,,,,,,,,,,,,,,,,,,,,,,,,,,,,,,,,,,,,,,,,
0,20,20,51,1,,617028061465253b03b9aabb,62bbf940f649107dbe48ed39,2022-06-29_09h06.54.322,Colour_Asymmetry_Pilot,2022.1.3,Win32,60.80875646,62bbe60bf3d75ef465d3e404,,,,,,,,,,,,,,,,,,,,,,,,,,,,,,,,,,,,,,,,,,,,,,,,,,,,,,,,,,,,,,,,,,,,,,,,,,,,,,,,,,,,,,,,,,,,,,,,,,,,,,,,,,,,,,,,,,,,,,,,,,,,,,,,,,,,,,,,,,,,,,,,,,,,,,,,,,,,,,
0,21,21,71,1,,617028061465253b03b9aabb,62bbf940f649107dbe48ed39,2022-06-29_09h06.54.322,Colour_Asymmetry_Pilot,2022.1.3,Win32,60.80875646,62bbe60bf3d75ef465d3e404,,,,,,,,,,,,,,,,,,,,,,,,,,,,,,,,,,,,,,,,,,,,,,,,,,,,,,,,,,,,,,,,,,,,,,,,,,,,,,,,,,,,,,,,,,,,,,,,,,,,,,,,,,,,,,,,,,,,,,,,,,,,,,,,,,,,,,,,,,,,,,,,,,,,,,,,,,,,,,
0,22,22,27,1,,617028061465253b03b9aabb,62bbf940f649107dbe48ed39,2022-06-29_09h06.54.322,Colour_Asymmetry_Pilot,2022.1.3,Win32,60.80875646,62bbe60bf3d75ef465d3e404,,,,,,,,,,,,,,,,,,,,,,,,,,,,,,,,,,,,,,,,,,,,,,,,,,,,,,,,,,,,,,,,,,,,,,,,,,,,,,,,,,,,,,,,,,,,,,,,,,,,,,,,,,,,,,,,,,,,,,,,,,,,,,,,,,,,,,,,,,,,,,,,,,,,,,,,,,,,,,
0,23,23,22,1,,617028061465253b03b9aabb,62bbf940f649107dbe48ed39,2022-06-29_09h06.54.322,Colour_Asymmetry_Pilot,2022.1.3,Win32,60.80875646,62bbe60bf3d75ef465d3e404,,,,,,,,,,,,,,,,,,,,,,,,,,,,,,,,,,,,,,,,,,,,,,,,,,,,,,,,,,,,,,,,,,,,,,,,,,,,,,,,,,,,,,,,,,,,,,,,,,,,,,,,,,,,,,,,,,,,,,,,,,,,,,,,,,,,,,,,,,,,,,,,,,,,,,,,,,,,,,
0,24,24,3,1,,617028061465253b03b9aabb,62bbf940f649107dbe48ed39,2022-06-29_09h06.54.322,Colour_Asymmetry_Pilot,2022.1.3,Win32,60.80875646,62bbe60bf3d75ef465d3e404,,,,,,,,,,,,,,,,,,,,,,,,,,,,,,,,,,,,,,,,,,,,,,,,,,,,,,,,,,,,,,,,,,,,,,,,,,,,,,,,,,,,,,,,,,,,,,,,,,,,,,,,,,,,,,,,,,,,,,,,,,,,,,,,,,,,,,,,,,,,,,,,,,,,,,,,,,,,,,
0,25,25,42,1,,617028061465253b03b9aabb,62bbf940f649107dbe48ed39,2022-06-29_09h06.54.322,Colour_Asymmetry_Pilot,2022.1.3,Win32,60.80875646,62bbe60bf3d75ef465d3e404,,,,,,,,,,,,,,,,,,,,,,,,,,,,,,,,,,,,,,,,,,,,,,,,,,,,,,,,,,,,,,,,,,,,,,,,,,,,,,,,,,,,,,,,,,,,,,,,,,,,,,,,,,,,,,,,,,,,,,,,,,,,,,,,,,,,,,,,,,,,,,,,,,,,,,,,,,,,,,
0,26,26,35,1,,617028061465253b03b9aabb,62bbf940f649107dbe48ed39,2022-06-29_09h06.54.322,Colour_Asymmetry_Pilot,2022.1.3,Win32,60.80875646,62bbe60bf3d75ef465d3e404,,,,,,,,,,,,,,,,,,,,,,,,,,,,,,,,,,,,,,,,,,,,,,,,,,,,,,,,,,,,,,,,,,,,,,,,,,,,,,,,,,,,,,,,,,,,,,,,,,,,,,,,,,,,,,,,,,,,,,,,,,,,,,,,,,,,,,,,,,,,,,,,,,,,,,,,,,,,,,
0,27,27,5,1,,617028061465253b03b9aabb,62bbf940f649107dbe48ed39,2022-06-29_09h06.54.322,Colour_Asymmetry_Pilot,2022.1.3,Win32,60.80875646,62bbe60bf3d75ef465d3e404,,,,,,,,,,,,,,,,,,,,,,,,,,,,,,,,,,,,,,,,,,,,,,,,,,,,,,,,,,,,,,,,,,,,,,,,,,,,,,,,,,,,,,,,,,,,,,,,,,,,,,,,,,,,,,,,,,,,,,,,,,,,,,,,,,,,,,,,,,,,,,,,,,,,,,,,,,,,,,
0,28,28,76,1,,617028061465253b03b9aabb,62bbf940f649107dbe48ed39,2022-06-29_09h06.54.322,Colour_Asymmetry_Pilot,2022.1.3,Win32,60.80875646,62bbe60bf3d75ef465d3e404,,,,,,,,,,,,,,,,,,,,,,,,,,,,,,,,,,,,,,,,,,,,,,,,,,,,,,,,,,,,,,,,,,,,,,,,,,,,,,,,,,,,,,,,,,,,,,,,,,,,,,,,,,,,,,,,,,,,,,,,,,,,,,,,,,,,,,,,,,,,,,,,,,,,,,,,,,,,,,
0,29,29,73,1,,617028061465253b03b9aabb,62bbf940f649107dbe48ed39,2022-06-29_09h06.54.322,Colour_Asymmetry_Pilot,2022.1.3,Win32,60.80875646,62bbe60bf3d75ef465d3e404,,,,,,,,,,,,,,,,,,,,,,,,,,,,,,,,,,,,,,,,,,,,,,,,,,,,,,,,,,,,,,,,,,,,,,,,,,,,,,,,,,,,,,,,,,,,,,,,,,,,,,,,,,,,,,,,,,,,,,,,,,,,,,,,,,,,,,,,,,,,,,,,,,,,,,,,,,,,,,
0,30,30,77,1,,617028061465253b03b9aabb,62bbf940f649107dbe48ed39,2022-06-29_09h06.54.322,Colour_Asymmetry_Pilot,2022.1.3,Win32,60.80875646,62bbe60bf3d75ef465d3e404,,,,,,,,,,,,,,,,,,,,,,,,,,,,,,,,,,,,,,,,,,,,,,,,,,,,,,,,,,,,,,,,,,,,,,,,,,,,,,,,,,,,,,,,,,,,,,,,,,,,,,,,,,,,,,,,,,,,,,,,,,,,,,,,,,,,,,,,,,,,,,,,,,,,,,,,,,,,,,
0,31,31,64,1,,617028061465253b03b9aabb,62bbf940f649107dbe48ed39,2022-06-29_09h06.54.322,Colour_Asymmetry_Pilot,2022.1.3,Win32,60.80875646,62bbe60bf3d75ef465d3e404,,,,,,,,,,,,,,,,,,,,,,,,,,,,,,,,,,,,,,,,,,,,,,,,,,,,,,,,,,,,,,,,,,,,,,,,,,,,,,,,,,,,,,,,,,,,,,,,,,,,,,,,,,,,,,,,,,,,,,,,,,,,,,,,,,,,,,,,,,,,,,,,,,,,,,,,,,,,,,
0,32,32,1,1,,617028061465253b03b9aabb,62bbf940f649107dbe48ed39,2022-06-29_09h06.54.322,Colour_Asymmetry_Pilot,2022.1.3,Win32,60.80875646,62bbe60bf3d75ef465d3e404,,,,,,,,,,,,,,,,,,,,,,,,,,,,,,,,,,,,,,,,,,,,,,,,,,,,,,,,,,,,,,,,,,,,,,,,,,,,,,,,,,,,,,,,,,,,,,,,,,,,,,,,,,,,,,,,,,,,,,,,,,,,,,,,,,,,,,,,,,,,,,,,,,,,,,,,,,,,,,
0,33,33,46,1,,617028061465253b03b9aabb,62bbf940f649107dbe48ed39,2022-06-29_09h06.54.322,Colour_Asymmetry_Pilot,2022.1.3,Win32,60.80875646,62bbe60bf3d75ef465d3e404,,,,,,,,,,,,,,,,,,,,,,,,,,,,,,,,,,,,,,,,,,,,,,,,,,,,,,,,,,,,,,,,,,,,,,,,,,,,,,,,,,,,,,,,,,,,,,,,,,,,,,,,,,,,,,,,,,,,,,,,,,,,,,,,,,,,,,,,,,,,,,,,,,,,,,,,,,,,,,
0,34,34,14,1,,617028061465253b03b9aabb,62bbf940f649107dbe48ed39,2022-06-29_09h06.54.322,Colour_Asymmetry_Pilot,2022.1.3,Win32,60.80875646,62bbe60bf3d75ef465d3e404,,,,,,,,,,,,,,,,,,,,,,,,,,,,,,,,,,,,,,,,,,,,,,,,,,,,,,,,,,,,,,,,,,,,,,,,,,,,,,,,,,,,,,,,,,,,,,,,,,,,,,,,,,,,,,,,,,,,,,,,,,,,,,,,,,,,,,,,,,,,,,,,,,,,,,,,,,,,,,
0,35,35,34,1,,617028061465253b03b9aabb,62bbf940f649107dbe48ed39,2022-06-29_09h06.54.322,Colour_Asymmetry_Pilot,2022.1.3,Win32,60.80875646,62bbe60bf3d75ef465d3e404,,,,,,,,,,,,,,,,,,,,,,,,,,,,,,,,,,,,,,,,,,,,,,,,,,,,,,,,,,,,,,,,,,,,,,,,,,,,,,,,,,,,,,,,,,,,,,,,,,,,,,,,,,,,,,,,,,,,,,,,,,,,,,,,,,,,,,,,,,,,,,,,,,,,,,,,,,,,,,
0,36,36,39,1,,617028061465253b03b9aabb,62bbf940f649107dbe48ed39,2022-06-29_09h06.54.322,Colour_Asymmetry_Pilot,2022.1.3,Win32,60.80875646,62bbe60bf3d75ef465d3e404,,,,,,,,,,,,,,,,,,,,,,,,,,,,,,,,,,,,,,,,,,,,,,,,,,,,,,,,,,,,,,,,,,,,,,,,,,,,,,,,,,,,,,,,,,,,,,,,,,,,,,,,,,,,,,,,,,,,,,,,,,,,,,,,,,,,,,,,,,,,,,,,,,,,,,,,,,,,,,
0,37,37,57,1,,617028061465253b03b9aabb,62bbf940f649107dbe48ed39,2022-06-29_09h06.54.322,Colour_Asymmetry_Pilot,2022.1.3,Win32,60.80875646,62bbe60bf3d75ef465d3e404,,,,,,,,,,,,,,,,,,,,,,,,,,,,,,,,,,,,,,,,,,,,,,,,,,,,,,,,,,,,,,,,,,,,,,,,,,,,,,,,,,,,,,,,,,,,,,,,,,,,,,,,,,,,,,,,,,,,,,,,,,,,,,,,,,,,,,,,,,,,,,,,,,,,,,,,,,,,,,
0,38,38,19,1,,617028061465253b03b9aabb,62bbf940f649107dbe48ed39,2022-06-29_09h06.54.322,Colour_Asymmetry_Pilot,2022.1.3,Win32,60.80875646,62bbe60bf3d75ef465d3e404,,,,,,,,,,,,,,,,,,,,,,,,,,,,,,,,,,,,,,,,,,,,,,,,,,,,,,,,,,,,,,,,,,,,,,,,,,,,,,,,,,,,,,,,,,,,,,,,,,,,,,,,,,,,,,,,,,,,,,,,,,,,,,,,,,,,,,,,,,,,,,,,,,,,,,,,,,,,,,
0,39,39,59,1,,617028061465253b03b9aabb,62bbf940f649107dbe48ed39,2022-06-29_09h06.54.322,Colour_Asymmetry_Pilot,2022.1.3,Win32,60.80875646,62bbe60bf3d75ef465d3e404,,,,,,,,,,,,,,,,,,,,,,,,,,,,,,,,,,,,,,,,,,,,,,,,,,,,,,,,,,,,,,,,,,,,,,,,,,,,,,,,,,,,,,,,,,,,,,,,,,,,,,,,,,,,,,,,,,,,,,,,,,,,,,,,,,,,,,,,,,,,,,,,,,,,,,,,,,,,,,
0,40,40,41,1,,617028061465253b03b9aabb,62bbf940f649107dbe48ed39,2022-06-29_09h06.54.322,Colour_Asymmetry_Pilot,2022.1.3,Win32,60.80875646,62bbe60bf3d75ef465d3e404,,,,,,,,,,,,,,,,,,,,,,,,,,,,,,,,,,,,,,,,,,,,,,,,,,,,,,,,,,,,,,,,,,,,,,,,,,,,,,,,,,,,,,,,,,,,,,,,,,,,,,,,,,,,,,,,,,,,,,,,,,,,,,,,,,,,,,,,,,,,,,,,,,,,,,,,,,,,,,
0,41,41,74,1,,617028061465253b03b9aabb,62bbf940f649107dbe48ed39,2022-06-29_09h06.54.322,Colour_Asymmetry_Pilot,2022.1.3,Win32,60.80875646,62bbe60bf3d75ef465d3e404,,,,,,,,,,,,,,,,,,,,,,,,,,,,,,,,,,,,,,,,,,,,,,,,,,,,,,,,,,,,,,,,,,,,,,,,,,,,,,,,,,,,,,,,,,,,,,,,,,,,,,,,,,,,,,,,,,,,,,,,,,,,,,,,,,,,,,,,,,,,,,,,,,,,,,,,,,,,,,
0,42,42,86,1,,617028061465253b03b9aabb,62bbf940f649107dbe48ed39,2022-06-29_09h06.54.322,Colour_Asymmetry_Pilot,2022.1.3,Win32,60.80875646,62bbe60bf3d75ef465d3e404,,,,,,,,,,,,,,,,,,,,,,,,,,,,,,,,,,,,,,,,,,,,,,,,,,,,,,,,,,,,,,,,,,,,,,,,,,,,,,,,,,,,,,,,,,,,,,,,,,,,,,,,,,,,,,,,,,,,,,,,,,,,,,,,,,,,,,,,,,,,,,,,,,,,,,,,,,,,,,
0,43,43,89,1,,617028061465253b03b9aabb,62bbf940f649107dbe48ed39,2022-06-29_09h06.54.322,Colour_Asymmetry_Pilot,2022.1.3,Win32,60.80875646,62bbe60bf3d75ef465d3e404,,,,,,,,,,,,,,,,,,,,,,,,,,,,,,,,,,,,,,,,,,,,,,,,,,,,,,,,,,,,,,,,,,,,,,,,,,,,,,,,,,,,,,,,,,,,,,,,,,,,,,,,,,,,,,,,,,,,,,,,,,,,,,,,,,,,,,,,,,,,,,,,,,,,,,,,,,,,,,
0,44,44,85,1,,617028061465253b03b9aabb,62bbf940f649107dbe48ed39,2022-06-29_09h06.54.322,Colour_Asymmetry_Pilot,2022.1.3,Win32,60.80875646,62bbe60bf3d75ef465d3e404,,,,,,,,,,,,,,,,,,,,,,,,,,,,,,,,,,,,,,,,,,,,,,,,,,,,,,,,,,,,,,,,,,,,,,,,,,,,,,,,,,,,,,,,,,,,,,,,,,,,,,,,,,,,,,,,,,,,,,,,,,,,,,,,,,,,,,,,,,,,,,,,,,,,,,,,,,,,,,
0,45,45,60,1,,617028061465253b03b9aabb,62bbf940f649107dbe48ed39,2022-06-29_09h06.54.322,Colour_Asymmetry_Pilot,2022.1.3,Win32,60.80875646,62bbe60bf3d75ef465d3e404,,,,,,,,,,,,,,,,,,,,,,,,,,,,,,,,,,,,,,,,,,,,,,,,,,,,,,,,,,,,,,,,,,,,,,,,,,,,,,,,,,,,,,,,,,,,,,,,,,,,,,,,,,,,,,,,,,,,,,,,,,,,,,,,,,,,,,,,,,,,,,,,,,,,,,,,,,,,,,
0,46,46,13,1,,617028061465253b03b9aabb,62bbf940f649107dbe48ed39,2022-06-29_09h06.54.322,Colour_Asymmetry_Pilot,2022.1.3,Win32,60.80875646,62bbe60bf3d75ef465d3e404,,,,,,,,,,,,,,,,,,,,,,,,,,,,,,,,,,,,,,,,,,,,,,,,,,,,,,,,,,,,,,,,,,,,,,,,,,,,,,,,,,,,,,,,,,,,,,,,,,,,,,,,,,,,,,,,,,,,,,,,,,,,,,,,,,,,,,,,,,,,,,,,,,,,,,,,,,,,,,
0,47,47,91,1,,617028061465253b03b9aabb,62bbf940f649107dbe48ed39,2022-06-29_09h06.54.322,Colour_Asymmetry_Pilot,2022.1.3,Win32,60.80875646,62bbe60bf3d75ef465d3e404,,,,,,,,,,,,,,,,,,,,,,,,,,,,,,,,,,,,,,,,,,,,,,,,,,,,,,,,,,,,,,,,,,,,,,,,,,,,,,,,,,,,,,,,,,,,,,,,,,,,,,,,,,,,,,,,,,,,,,,,,,,,,,,,,,,,,,,,,,,,,,,,,,,,,,,,,,,,,,
0,48,48,58,1,,617028061465253b03b9aabb,62bbf940f649107dbe48ed39,2022-06-29_09h06.54.322,Colour_Asymmetry_Pilot,2022.1.3,Win32,60.80875646,62bbe60bf3d75ef465d3e404,,,,,,,,,,,,,,,,,,,,,,,,,,,,,,,,,,,,,,,,,,,,,,,,,,,,,,,,,,,,,,,,,,,,,,,,,,,,,,,,,,,,,,,,,,,,,,,,,,,,,,,,,,,,,,,,,,,,,,,,,,,,,,,,,,,,,,,,,,,,,,,,,,,,,,,,,,,,,,
0,49,49,25,1,,617028061465253b03b9aabb,62bbf940f649107dbe48ed39,2022-06-29_09h06.54.322,Colour_Asymmetry_Pilot,2022.1.3,Win32,60.80875646,62bbe60bf3d75ef465d3e404,,,,,,,,,,,,,,,,,,,,,,,,,,,,,,,,,,,,,,,,,,,,,,,,,,,,,,,,,,,,,,,,,,,,,,,,,,,,,,,,,,,,,,,,,,,,,,,,,,,,,,,,,,,,,,,,,,,,,,,,,,,,,,,,,,,,,,,,,,,,,,,,,,,,,,,,,,,,,,
0,50,50,90,1,,617028061465253b03b9aabb,62bbf940f649107dbe48ed39,2022-06-29_09h06.54.322,Colour_Asymmetry_Pilot,2022.1.3,Win32,60.80875646,62bbe60bf3d75ef465d3e404,,,,,,,,,,,,,,,,,,,,,,,,,,,,,,,,,,,,,,,,,,,,,,,,,,,,,,,,,,,,,,,,,,,,,,,,,,,,,,,,,,,,,,,,,,,,,,,,,,,,,,,,,,,,,,,,,,,,,,,,,,,,,,,,,,,,,,,,,,,,,,,,,,,,,,,,,,,,,,
0,51,51,28,1,,617028061465253b03b9aabb,62bbf940f649107dbe48ed39,2022-06-29_09h06.54.322,Colour_Asymmetry_Pilot,2022.1.3,Win32,60.80875646,62bbe60bf3d75ef465d3e404,,,,,,,,,,,,,,,,,,,,,,,,,,,,,,,,,,,,,,,,,,,,,,,,,,,,,,,,,,,,,,,,,,,,,,,,,,,,,,,,,,,,,,,,,,,,,,,,,,,,,,,,,,,,,,,,,,,,,,,,,,,,,,,,,,,,,,,,,,,,,,,,,,,,,,,,,,,,,,
0,52,52,68,1,,617028061465253b03b9aabb,62bbf940f649107dbe48ed39,2022-06-29_09h06.54.322,Colour_Asymmetry_Pilot,2022.1.3,Win32,60.80875646,62bbe60bf3d75ef465d3e404,,,,,,,,,,,,,,,,,,,,,,,,,,,,,,,,,,,,,,,,,,,,,,,,,,,,,,,,,,,,,,,,,,,,,,,,,,,,,,,,,,,,,,,,,,,,,,,,,,,,,,,,,,,,,,,,,,,,,,,,,,,,,,,,,,,,,,,,,,,,,,,,,,,,,,,,,,,,,,
0,53,53,12,1,,617028061465253b03b9aabb,62bbf940f649107dbe48ed39,2022-06-29_09h06.54.322,Colour_Asymmetry_Pilot,2022.1.3,Win32,60.80875646,62bbe60bf3d75ef465d3e404,,,,,,,,,,,,,,,,,,,,,,,,,,,,,,,,,,,,,,,,,,,,,,,,,,,,,,,,,,,,,,,,,,,,,,,,,,,,,,,,,,,,,,,,,,,,,,,,,,,,,,,,,,,,,,,,,,,,,,,,,,,,,,,,,,,,,,,,,,,,,,,,,,,,,,,,,,,,,,
0,54,54,48,1,,617028061465253b03b9aabb,62bbf940f649107dbe48ed39,2022-06-29_09h06.54.322,Colour_Asymmetry_Pilot,2022.1.3,Win32,60.80875646,62bbe60bf3d75ef465d3e404,,,,,,,,,,,,,,,,,,,,,,,,,,,,,,,,,,,,,,,,,,,,,,,,,,,,,,,,,,,,,,,,,,,,,,,,,,,,,,,,,,,,,,,,,,,,,,,,,,,,,,,,,,,,,,,,,,,,,,,,,,,,,,,,,,,,,,,,,,,,,,,,,,,,,,,,,,,,,,
0,55,55,61,1,,617028061465253b03b9aabb,62bbf940f649107dbe48ed39,2022-06-29_09h06.54.322,Colour_Asymmetry_Pilot,2022.1.3,Win32,60.80875646,62bbe60bf3d75ef465d3e404,,,,,,,,,,,,,,,,,,,,,,,,,,,,,,,,,,,,,,,,,,,,,,,,,,,,,,,,,,,,,,,,,,,,,,,,,,,,,,,,,,,,,,,,,,,,,,,,,,,,,,,,,,,,,,,,,,,,,,,,,,,,,,,,,,,,,,,,,,,,,,,,,,,,,,,,,,,,,,
0,56,56,78,1,,617028061465253b03b9aabb,62bbf940f649107dbe48ed39,2022-06-29_09h06.54.322,Colour_Asymmetry_Pilot,2022.1.3,Win32,60.80875646,62bbe60bf3d75ef465d3e404,,,,,,,,,,,,,,,,,,,,,,,,,,,,,,,,,,,,,,,,,,,,,,,,,,,,,,,,,,,,,,,,,,,,,,,,,,,,,,,,,,,,,,,,,,,,,,,,,,,,,,,,,,,,,,,,,,,,,,,,,,,,,,,,,,,,,,,,,,,,,,,,,,,,,,,,,,,,,,
0,57,57,11,1,,617028061465253b03b9aabb,62bbf940f649107dbe48ed39,2022-06-29_09h06.54.322,Colour_Asymmetry_Pilot,2022.1.3,Win32,60.80875646,62bbe60bf3d75ef465d3e404,,,,,,,,,,,,,,,,,,,,,,,,,,,,,,,,,,,,,,,,,,,,,,,,,,,,,,,,,,,,,,,,,,,,,,,,,,,,,,,,,,,,,,,,,,,,,,,,,,,,,,,,,,,,,,,,,,,,,,,,,,,,,,,,,,,,,,,,,,,,,,,,,,,,,,,,,,,,,,
0,58,58,36,1,,617028061465253b03b9aabb,62bbf940f649107dbe48ed39,2022-06-29_09h06.54.322,Colour_Asymmetry_Pilot,2022.1.3,Win32,60.80875646,62bbe60bf3d75ef465d3e404,,,,,,,,,,,,,,,,,,,,,,,,,,,,,,,,,,,,,,,,,,,,,,,,,,,,,,,,,,,,,,,,,,,,,,,,,,,,,,,,,,,,,,,,,,,,,,,,,,,,,,,,,,,,,,,,,,,,,,,,,,,,,,,,,,,,,,,,,,,,,,,,,,,,,,,,,,,,,,
0,59,59,2,1,,617028061465253b03b9aabb,62bbf940f649107dbe48ed39,2022-06-29_09h06.54.322,Colour_Asymmetry_Pilot,2022.1.3,Win32,60.80875646,62bbe60bf3d75ef465d3e404,,,,,,,,,,,,,,,,,,,,,,,,,,,,,,,,,,,,,,,,,,,,,,,,,,,,,,,,,,,,,,,,,,,,,,,,,,,,,,,,,,,,,,,,,,,,,,,,,,,,,,,,,,,,,,,,,,,,,,,,,,,,,,,,,,,,,,,,,,,,,,,,,,,,,,,,,,,,,,
0,60,60,67,1,,617028061465253b03b9aabb,62bbf940f649107dbe48ed39,2022-06-29_09h06.54.322,Colour_Asymmetry_Pilot,2022.1.3,Win32,60.80875646,62bbe60bf3d75ef465d3e404,,,,,,,,,,,,,,,,,,,,,,,,,,,,,,,,,,,,,,,,,,,,,,,,,,,,,,,,,,,,,,,,,,,,,,,,,,,,,,,,,,,,,,,,,,,,,,,,,,,,,,,,,,,,,,,,,,,,,,,,,,,,,,,,,,,,,,,,,,,,,,,,,,,,,,,,,,,,,,
0,61,61,33,1,,617028061465253b03b9aabb,62bbf940f649107dbe48ed39,2022-06-29_09h06.54.322,Colour_Asymmetry_Pilot,2022.1.3,Win32,60.80875646,62bbe60bf3d75ef465d3e404,,,,,,,,,,,,,,,,,,,,,,,,,,,,,,,,,,,,,,,,,,,,,,,,,,,,,,,,,,,,,,,,,,,,,,,,,,,,,,,,,,,,,,,,,,,,,,,,,,,,,,,,,,,,,,,,,,,,,,,,,,,,,,,,,,,,,,,,,,,,,,,,,,,,,,,,,,,,,,
0,62,62,49,1,,617028061465253b03b9aabb,62bbf940f649107dbe48ed39,2022-06-29_09h06.54.322,Colour_Asymmetry_Pilot,2022.1.3,Win32,60.80875646,62bbe60bf3d75ef465d3e404,,,,,,,,,,,,,,,,,,,,,,,,,,,,,,,,,,,,,,,,,,,,,,,,,,,,,,,,,,,,,,,,,,,,,,,,,,,,,,,,,,,,,,,,,,,,,,,,,,,,,,,,,,,,,,,,,,,,,,,,,,,,,,,,,,,,,,,,,,,,,,,,,,,,,,,,,,,,,,
0,63,63,16,1,,617028061465253b03b9aabb,62bbf940f649107dbe48ed39,2022-06-29_09h06.54.322,Colour_Asymmetry_Pilot,2022.1.3,Win32,60.80875646,62bbe60bf3d75ef465d3e404,,,,,,,,,,,,,,,,,,,,,,,,,,,,,,,,,,,,,,,,,,,,,,,,,,,,,,,,,,,,,,,,,,,,,,,,,,,,,,,,,,,,,,,,,,,,,,,,,,,,,,,,,,,,,,,,,,,,,,,,,,,,,,,,,,,,,,,,,,,,,,,,,,,,,,,,,,,,,,
0,64,64,9,1,,617028061465253b03b9aabb,62bbf940f649107dbe48ed39,2022-06-29_09h06.54.322,Colour_Asymmetry_Pilot,2022.1.3,Win32,60.80875646,62bbe60bf3d75ef465d3e404,,,,,,,,,,,,,,,,,,,,,,,,,,,,,,,,,,,,,,,,,,,,,,,,,,,,,,,,,,,,,,,,,,,,,,,,,,,,,,,,,,,,,,,,,,,,,,,,,,,,,,,,,,,,,,,,,,,,,,,,,,,,,,,,,,,,,,,,,,,,,,,,,,,,,,,,,,,,,,
0,65,65,84,1,,617028061465253b03b9aabb,62bbf940f649107dbe48ed39,2022-06-29_09h06.54.322,Colour_Asymmetry_Pilot,2022.1.3,Win32,60.80875646,62bbe60bf3d75ef465d3e404,,,,,,,,,,,,,,,,,,,,,,,,,,,,,,,,,,,,,,,,,,,,,,,,,,,,,,,,,,,,,,,,,,,,,,,,,,,,,,,,,,,,,,,,,,,,,,,,,,,,,,,,,,,,,,,,,,,,,,,,,,,,,,,,,,,,,,,,,,,,,,,,,,,,,,,,,,,,,,
0,66,66,23,1,,617028061465253b03b9aabb,62bbf940f649107dbe48ed39,2022-06-29_09h06.54.322,Colour_Asymmetry_Pilot,2022.1.3,Win32,60.80875646,62bbe60bf3d75ef465d3e404,,,,,,,,,,,,,,,,,,,,,,,,,,,,,,,,,,,,,,,,,,,,,,,,,,,,,,,,,,,,,,,,,,,,,,,,,,,,,,,,,,,,,,,,,,,,,,,,,,,,,,,,,,,,,,,,,,,,,,,,,,,,,,,,,,,,,,,,,,,,,,,,,,,,,,,,,,,,,,
0,67,67,6,1,,617028061465253b03b9aabb,62bbf940f649107dbe48ed39,2022-06-29_09h06.54.322,Colour_Asymmetry_Pilot,2022.1.3,Win32,60.80875646,62bbe60bf3d75ef465d3e404,,,,,,,,,,,,,,,,,,,,,,,,,,,,,,,,,,,,,,,,,,,,,,,,,,,,,,,,,,,,,,,,,,,,,,,,,,,,,,,,,,,,,,,,,,,,,,,,,,,,,,,,,,,,,,,,,,,,,,,,,,,,,,,,,,,,,,,,,,,,,,,,,,,,,,,,,,,,,,
0,68,68,88,1,,617028061465253b03b9aabb,62bbf940f649107dbe48ed39,2022-06-29_09h06.54.322,Colour_Asymmetry_Pilot,2022.1.3,Win32,60.80875646,62bbe60bf3d75ef465d3e404,,,,,,,,,,,,,,,,,,,,,,,,,,,,,,,,,,,,,,,,,,,,,,,,,,,,,,,,,,,,,,,,,,,,,,,,,,,,,,,,,,,,,,,,,,,,,,,,,,,,,,,,,,,,,,,,,,,,,,,,,,,,,,,,,,,,,,,,,,,,,,,,,,,,,,,,,,,,,,
0,69,69,4,1,,617028061465253b03b9aabb,62bbf940f649107dbe48ed39,2022-06-29_09h06.54.322,Colour_Asymmetry_Pilot,2022.1.3,Win32,60.80875646,62bbe60bf3d75ef465d3e404,,,,,,,,,,,,,,,,,,,,,,,,,,,,,,,,,,,,,,,,,,,,,,,,,,,,,,,,,,,,,,,,,,,,,,,,,,,,,,,,,,,,,,,,,,,,,,,,,,,,,,,,,,,,,,,,,,,,,,,,,,,,,,,,,,,,,,,,,,,,,,,,,,,,,,,,,,,,,,
0,70,70,69,1,,617028061465253b03b9aabb,62bbf940f649107dbe48ed39,2022-06-29_09h06.54.322,Colour_Asymmetry_Pilot,2022.1.3,Win32,60.80875646,62bbe60bf3d75ef465d3e404,,,,,,,,,,,,,,,,,,,,,,,,,,,,,,,,,,,,,,,,,,,,,,,,,,,,,,,,,,,,,,,,,,,,,,,,,,,,,,,,,,,,,,,,,,,,,,,,,,,,,,,,,,,,,,,,,,,,,,,,,,,,,,,,,,,,,,,,,,,,,,,,,,,,,,,,,,,,,,
0,71,71,72,1,,617028061465253b03b9aabb,62bbf940f649107dbe48ed39,2022-06-29_09h06.54.322,Colour_Asymmetry_Pilot,2022.1.3,Win32,60.80875646,62bbe60bf3d75ef465d3e404,,,,,,,,,,,,,,,,,,,,,,,,,,,,,,,,,,,,,,,,,,,,,,,,,,,,,,,,,,,,,,,,,,,,,,,,,,,,,,,,,,,,,,,,,,,,,,,,,,,,,,,,,,,,,,,,,,,,,,,,,,,,,,,,,,,,,,,,,,,,,,,,,,,,,,,,,,,,,,
0,72,72,52,1,,617028061465253b03b9aabb,62bbf940f649107dbe48ed39,2022-06-29_09h06.54.322,Colour_Asymmetry_Pilot,2022.1.3,Win32,60.80875646,62bbe60bf3d75ef465d3e404,,,,,,,,,,,,,,,,,,,,,,,,,,,,,,,,,,,,,,,,,,,,,,,,,,,,,,,,,,,,,,,,,,,,,,,,,,,,,,,,,,,,,,,,,,,,,,,,,,,,,,,,,,,,,,,,,,,,,,,,,,,,,,,,,,,,,,,,,,,,,,,,,,,,,,,,,,,,,,
0,73,73,47,1,,617028061465253b03b9aabb,62bbf940f649107dbe48ed39,2022-06-29_09h06.54.322,Colour_Asymmetry_Pilot,2022.1.3,Win32,60.80875646,62bbe60bf3d75ef465d3e404,,,,,,,,,,,,,,,,,,,,,,,,,,,,,,,,,,,,,,,,,,,,,,,,,,,,,,,,,,,,,,,,,,,,,,,,,,,,,,,,,,,,,,,,,,,,,,,,,,,,,,,,,,,,,,,,,,,,,,,,,,,,,,,,,,,,,,,,,,,,,,,,,,,,,,,,,,,,,,
0,74,74,38,1,,617028061465253b03b9aabb,62bbf940f649107dbe48ed39,2022-06-29_09h06.54.322,Colour_Asymmetry_Pilot,2022.1.3,Win32,60.80875646,62bbe60bf3d75ef465d3e404,,,,,,,,,,,,,,,,,,,,,,,,,,,,,,,,,,,,,,,,,,,,,,,,,,,,,,,,,,,,,,,,,,,,,,,,,,,,,,,,,,,,,,,,,,,,,,,,,,,,,,,,,,,,,,,,,,,,,,,,,,,,,,,,,,,,,,,,,,,,,,,,,,,,,,,,,,,,,,
0,75,75,81,1,,617028061465253b03b9aabb,62bbf940f649107dbe48ed39,2022-06-29_09h06.54.322,Colour_Asymmetry_Pilot,2022.1.3,Win32,60.80875646,62bbe60bf3d75ef465d3e404,,,,,,,,,,,,,,,,,,,,,,,,,,,,,,,,,,,,,,,,,,,,,,,,,,,,,,,,,,,,,,,,,,,,,,,,,,,,,,,,,,,,,,,,,,,,,,,,,,,,,,,,,,,,,,,,,,,,,,,,,,,,,,,,,,,,,,,,,,,,,,,,,,,,,,,,,,,,,,
0,76,76,26,1,,617028061465253b03b9aabb,62bbf940f649107dbe48ed39,2022-06-29_09h06.54.322,Colour_Asymmetry_Pilot,2022.1.3,Win32,60.80875646,62bbe60bf3d75ef465d3e404,,,,,,,,,,,,,,,,,,,,,,,,,,,,,,,,,,,,,,,,,,,,,,,,,,,,,,,,,,,,,,,,,,,,,,,,,,,,,,,,,,,,,,,,,,,,,,,,,,,,,,,,,,,,,,,,,,,,,,,,,,,,,,,,,,,,,,,,,,,,,,,,,,,,,,,,,,,,,,
0,77,77,87,1,,617028061465253b03b9aabb,62bbf940f649107dbe48ed39,2022-06-29_09h06.54.322,Colour_Asymmetry_Pilot,2022.1.3,Win32,60.80875646,62bbe60bf3d75ef465d3e404,,,,,,,,,,,,,,,,,,,,,,,,,,,,,,,,,,,,,,,,,,,,,,,,,,,,,,,,,,,,,,,,,,,,,,,,,,,,,,,,,,,,,,,,,,,,,,,,,,,,,,,,,,,,,,,,,,,,,,,,,,,,,,,,,,,,,,,,,,,,,,,,,,,,,,,,,,,,,,
0,78,78,32,1,,617028061465253b03b9aabb,62bbf940f649107dbe48ed39,2022-06-29_09h06.54.322,Colour_Asymmetry_Pilot,2022.1.3,Win32,60.80875646,62bbe60bf3d75ef465d3e404,,,,,,,,,,,,,,,,,,,,,,,,,,,,,,,,,,,,,,,,,,,,,,,,,,,,,,,,,,,,,,,,,,,,,,,,,,,,,,,,,,,,,,,,,,,,,,,,,,,,,,,,,,,,,,,,,,,,,,,,,,,,,,,,,,,,,,,,,,,,,,,,,,,,,,,,,,,,,,
0,79,79,21,1,,617028061465253b03b9aabb,62bbf940f649107dbe48ed39,2022-06-29_09h06.54.322,Colour_Asymmetry_Pilot,2022.1.3,Win32,60.80875646,62bbe60bf3d75ef465d3e404,,,,,,,,,,,,,,,,,,,,,,,,,,,,,,,,,,,,,,,,,,,,,,,,,,,,,,,,,,,,,,,,,,,,,,,,,,,,,,,,,,,,,,,,,,,,,,,,,,,,,,,,,,,,,,,,,,,,,,,,,,,,,,,,,,,,,,,,,,,,,,,,,,,,,,,,,,,,,,
0,80,80,82,1,,617028061465253b03b9aabb,62bbf940f649107dbe48ed39,2022-06-29_09h06.54.322,Colour_Asymmetry_Pilot,2022.1.3,Win32,60.80875646,62bbe60bf3d75ef465d3e404,,,,,,,,,,,,,,,,,,,,,,,,,,,,,,,,,,,,,,,,,,,,,,,,,,,,,,,,,,,,,,,,,,,,,,,,,,,,,,,,,,,,,,,,,,,,,,,,,,,,,,,,,,,,,,,,,,,,,,,,,,,,,,,,,,,,,,,,,,,,,,,,,,,,,,,,,,,,,,
0,81,81,15,1,,617028061465253b03b9aabb,62bbf940f649107dbe48ed39,2022-06-29_09h06.54.322,Colour_Asymmetry_Pilot,2022.1.3,Win32,60.80875646,62bbe60bf3d75ef465d3e404,,,,,,,,,,,,,,,,,,,,,,,,,,,,,,,,,,,,,,,,,,,,,,,,,,,,,,,,,,,,,,,,,,,,,,,,,,,,,,,,,,,,,,,,,,,,,,,,,,,,,,,,,,,,,,,,,,,,,,,,,,,,,,,,,,,,,,,,,,,,,,,,,,,,,,,,,,,,,,
0,82,82,31,1,,617028061465253b03b9aabb,62bbf940f649107dbe48ed39,2022-06-29_09h06.54.322,Colour_Asymmetry_Pilot,2022.1.3,Win32,60.80875646,62bbe60bf3d75ef465d3e404,,,,,,,,,,,,,,,,,,,,,,,,,,,,,,,,,,,,,,,,,,,,,,,,,,,,,,,,,,,,,,,,,,,,,,,,,,,,,,,,,,,,,,,,,,,,,,,,,,,,,,,,,,,,,,,,,,,,,,,,,,,,,,,,,,,,,,,,,,,,,,,,,,,,,,,,,,,,,,
0,83,83,50,1,,617028061465253b03b9aabb,62bbf940f649107dbe48ed39,2022-06-29_09h06.54.322,Colour_Asymmetry_Pilot,2022.1.3,Win32,60.80875646,62bbe60bf3d75ef465d3e404,,,,,,,,,,,,,,,,,,,,,,,,,,,,,,,,,,,,,,,,,,,,,,,,,,,,,,,,,,,,,,,,,,,,,,,,,,,,,,,,,,,,,,,,,,,,,,,,,,,,,,,,,,,,,,,,,,,,,,,,,,,,,,,,,,,,,,,,,,,,,,,,,,,,,,,,,,,,,,
0,84,84,83,1,,617028061465253b03b9aabb,62bbf940f649107dbe48ed39,2022-06-29_09h06.54.322,Colour_Asymmetry_Pilot,2022.1.3,Win32,60.80875646,62bbe60bf3d75ef465d3e404,,,,,,,,,,,,,,,,,,,,,,,,,,,,,,,,,,,,,,,,,,,,,,,,,,,,,,,,,,,,,,,,,,,,,,,,,,,,,,,,,,,,,,,,,,,,,,,,,,,,,,,,,,,,,,,,,,,,,,,,,,,,,,,,,,,,,,,,,,,,,,,,,,,,,,,,,,,,,,
0,85,85,0,1,,617028061465253b03b9aabb,62bbf940f649107dbe48ed39,2022-06-29_09h06.54.322,Colour_Asymmetry_Pilot,2022.1.3,Win32,60.80875646,62bbe60bf3d75ef465d3e404,,,,,,,,,,,,,,,,,,,,,,,,,,,,,,,,,,,,,,,,,,,,,,,,,,,,,,,,,,,,,,,,,,,,,,,,,,,,,,,,,,,,,,,,,,,,,,,,,,,,,,,,,,,,,,,,,,,,,,,,,,,,,,,,,,,,,,,,,,,,,,,,,,,,,,,,,,,,,,
0,86,86,10,1,,617028061465253b03b9aabb,62bbf940f649107dbe48ed39,2022-06-29_09h06.54.322,Colour_Asymmetry_Pilot,2022.1.3,Win32,60.80875646,62bbe60bf3d75ef465d3e404,,,,,,,,,,,,,,,,,,,,,,,,,,,,,,,,,,,,,,,,,,,,,,,,,,,,,,,,,,,,,,,,,,,,,,,,,,,,,,,,,,,,,,,,,,,,,,,,,,,,,,,,,,,,,,,,,,,,,,,,,,,,,,,,,,,,,,,,,,,,,,,,,,,,,,,,,,,,,,
0,87,87,62,1,,617028061465253b03b9aabb,62bbf940f649107dbe48ed39,2022-06-29_09h06.54.322,Colour_Asymmetry_Pilot,2022.1.3,Win32,60.80875646,62bbe60bf3d75ef465d3e404,,,,,,,,,,,,,,,,,,,,,,,,,,,,,,,,,,,,,,,,,,,,,,,,,,,,,,,,,,,,,,,,,,,,,,,,,,,,,,,,,,,,,,,,,,,,,,,,,,,,,,,,,,,,,,,,,,,,,,,,,,,,,,,,,,,,,,,,,,,,,,,,,,,,,,,,,,,,,,
0,88,88,65,1,,617028061465253b03b9aabb,62bbf940f649107dbe48ed39,2022-06-29_09h06.54.322,Colour_Asymmetry_Pilot,2022.1.3,Win32,60.80875646,62bbe60bf3d75ef465d3e404,,,,,,,,,,,,,,,,,,,,,,,,,,,,,,,,,,,,,,,,,,,,,,,,,,,,,,,,,,,,,,,,,,,,,,,,,,,,,,,,,,,,,,,,,,,,,,,,,,,,,,,,,,,,,,,,,,,,,,,,,,,,,,,,,,,,,,,,,,,,,,,,,,,,,,,,,,,,,,
0,89,89,80,1,,617028061465253b03b9aabb,62bbf940f649107dbe48ed39,2022-06-29_09h06.54.322,Colour_Asymmetry_Pilot,2022.1.3,Win32,60.80875646,62bbe60bf3d75ef465d3e404,,,,,,,,,,,,,,,,,,,,,,,,,,,,,,,,,,,,,,,,,,,,,,,,,,,,,,,,,,,,,,,,,,,,,,,,,,,,,,,,,,,,,,,,,,,,,,,,,,,,,,,,,,,,,,,,,,,,,,,,,,,,,,,,,,,,,,,,,,,,,,,,,,,,,,,,,,,,,,
0,90,90,79,1,,617028061465253b03b9aabb,62bbf940f649107dbe48ed39,2022-06-29_09h06.54.322,Colour_Asymmetry_Pilot,2022.1.3,Win32,60.80875646,62bbe60bf3d75ef465d3e404,,,,,,,,,,,,,,,,,,,,,,,,,,,,,,,,,,,,,,,,,,,,,,,,,,,,,,,,,,,,,,,,,,,,,,,,,,,,,,,,,,,,,,,,,,,,,,,,,,,,,,,,,,,,,,,,,,,,,,,,,,,,,,,,,,,,,,,,,,,,,,,,,,,,,,,,,,,,,,
0,91,91,43,1,,617028061465253b03b9aabb,62bbf940f649107dbe48ed39,2022-06-29_09h06.54.322,Colour_Asymmetry_Pilot,2022.1.3,Win32,60.80875646,62bbe60bf3d75ef465d3e404,,,,,,,,,,,,,,,,,,,,,,,,,,,,,,,,,,,,,,,,,,,,,,,,,,,,,,,,,,,,,,,,,,,,,,,,,,,,,,,,,,,,,,,,,,,,,,,,,,,,,,,,,,,,,,,,,,,,,,,,,,,,,,,,,,,,,,,,,,,,,,,,,,,,,,,,,,,,,,
0,92,92,44,1,,617028061465253b03b9aabb,62bbf940f649107dbe48ed39,2022-06-29_09h06.54.322,Colour_Asymmetry_Pilot,2022.1.3,Win32,60.80875646,62bbe60bf3d75ef465d3e404,,,,,,,,,,,,,,,,,,,,,,,,,,,,,,,,,,,,,,,,,,,,,,,,,,,,,,,,,,,,,,,,,,,,,,,,,,,,,,,,,,,,,,,,,,,,,,,,,,,,,,,,,,,,,,,,,,,,,,,,,,,,,,,,,,,,,,,,,,,,,,,,,,,,,,,,,,,,,,
,,,,,,617028061465253b03b9aabb,62bbf940f649107dbe48ed39,2022-06-29_09h06.54.322,Colour_Asymmetry_Pilot,2022.1.3,Win32,60.80875646,62bbe60bf3d75ef465d3e404,0,0,0,67,1,twofour,,,,,,,,,,,,,,,,,,,,,,,,,,,,,,,,,,,,,,,,,,,,,,,,,,,,,,,,,,,,,,,,,,,,,,,,,,,,,,,,,,,,,,,,,,,,,,,,,,,,,,,,,,,,,,,,,,,,,,,,,,,,,,,,,,,,,,,,,,,,,,,,,,,,,,,,
,,,,,,617028061465253b03b9aabb,62bbf940f649107dbe48ed39,2022-06-29_09h06.54.322,Colour_Asymmetry_Pilot,2022.1.3,Win32,60.80875646,62bbe60bf3d75ef465d3e404,0,1,1,148,1,threeone,,,,,,,,,,,,,,,,,,,,,,,,,,,,,,,,,,,,,,,,,,,,,,,,,,,,,,,,,,,,,,,,,,,,,,,,,,,,,,,,,,,,,,,,,,,,,,,,,,,,,,,,,,,,,,,,,,,,,,,,,,,,,,,,,,,,,,,,,,,,,,,,,,,,,,,,
,,,,,,617028061465253b03b9aabb,62bbf940f649107dbe48ed39,2022-06-29_09h06.54.322,Colour_Asymmetry_Pilot,2022.1.3,Win32,60.80875646,62bbe60bf3d75ef465d3e404,0,2,2,122,1,twoone,,,,,,,,,,,,,,,,,,,,,,,,,,,,,,,,,,,,,,,,,,,,,,,,,,,,,,,,,,,,,,,,,,,,,,,,,,,,,,,,,,,,,,,,,,,,,,,,,,,,,,,,,,,,,,,,,,,,,,,,,,,,,,,,,,,,,,,,,,,,,,,,,,,,,,,,
,,,,,,617028061465253b03b9aabb,62bbf940f649107dbe48ed39,2022-06-29_09h06.54.322,Colour_Asymmetry_Pilot,2022.1.3,Win32,60.80875646,62bbe60bf3d75ef465d3e404,0,3,3,24,1,onetwo,,,,,,,,,,,,,,,,,,,,,,,,,,,,,,,,,,,,,,,,,,,,,,,,,,,,,,,,,,,,,,,,,,,,,,,,,,,,,,,,,,,,,,,,,,,,,,,,,,,,,,,,,,,,,,,,,,,,,,,,,,,,,,,,,,,,,,,,,,,,,,,,,,,,,,,,
,,,,,,617028061465253b03b9aabb,62bbf940f649107dbe48ed39,2022-06-29_09h06.54.322,Colour_Asymmetry_Pilot,2022.1.3,Win32,60.80875646,62bbe60bf3d75ef465d3e404,0,4,4,161,1,onethree,,,,,,,,,,,,,,,,,,,,,,,,,,,,,,,,,,,,,,,,,,,,,,,,,,,,,,,,,,,,,,,,,,,,,,,,,,,,,,,,,,,,,,,,,,,,,,,,,,,,,,,,,,,,,,,,,,,,,,,,,,,,,,,,,,,,,,,,,,,,,,,,,,,,,,,,
,,,,,,617028061465253b03b9aabb,62bbf940f649107dbe48ed39,2022-06-29_09h06.54.322,Colour_Asymmetry_Pilot,2022.1.3,Win32,60.80875646,62bbe60bf3d75ef465d3e404,0,5,5,76,1,threeone,,,,,,,,,,,,,,,,,,,,,,,,,,,,,,,,,,,,,,,,,,,,,,,,,,,,,,,,,,,,,,,,,,,,,,,,,,,,,,,,,,,,,,,,,,,,,,,,,,,,,,,,,,,,,,,,,,,,,,,,,,,,,,,,,,,,,,,,,,,,,,,,,,,,,,,,
,,,,,,617028061465253b03b9aabb,62bbf940f649107dbe48ed39,2022-06-29_09h06.54.322,Colour_Asymmetry_Pilot,2022.1.3,Win32,60.80875646,62bbe60bf3d75ef465d3e404,0,6,6,11,1,twofour,,,,,,,,,,,,,,,,,,,,,,,,,,,,,,,,,,,,,,,,,,,,,,,,,,,,,,,,,,,,,,,,,,,,,,,,,,,,,,,,,,,,,,,,,,,,,,,,,,,,,,,,,,,,,,,,,,,,,,,,,,,,,,,,,,,,,,,,,,,,,,,,,,,,,,,,
,,,,,,617028061465253b03b9aabb,62bbf940f649107dbe48ed39,2022-06-29_09h06.54.322,Colour_Asymmetry_Pilot,2022.1.3,Win32,60.80875646,62bbe60bf3d75ef465d3e404,0,7,7,9,1,onethree,,,,,,,,,,,,,,,,,,,,,,,,,,,,,,,,,,,,,,,,,,,,,,,,,,,,,,,,,,,,,,,,,,,,,,,,,,,,,,,,,,,,,,,,,,,,,,,,,,,,,,,,,,,,,,,,,,,,,,,,,,,,,,,,,,,,,,,,,,,,,,,,,,,,,,,,
,,,,,,617028061465253b03b9aabb,62bbf940f649107dbe48ed39,2022-06-29_09h06.54.322,Colour_Asymmetry_Pilot,2022.1.3,Win32,60.80875646,62bbe60bf3d75ef465d3e404,0,8,8,28,1,threeone,,,,,,,,,,,,,,,,,,,,,,,,,,,,,,,,,,,,,,,,,,,,,,,,,,,,,,,,,,,,,,,,,,,,,,,,,,,,,,,,,,,,,,,,,,,,,,,,,,,,,,,,,,,,,,,,,,,,,,,,,,,,,,,,,,,,,,,,,,,,,,,,,,,,,,,,
,,,,,,617028061465253b03b9aabb,62bbf940f649107dbe48ed39,2022-06-29_09h06.54.322,Colour_Asymmetry_Pilot,2022.1.3,Win32,60.80875646,62bbe60bf3d75ef465d3e404,0,9,9,44,1,threeone,,,,,,,,,,,,,,,,,,,,,,,,,,,,,,,,,,,,,,,,,,,,,,,,,,,,,,,,,,,,,,,,,,,,,,,,,,,,,,,,,,,,,,,,,,,,,,,,,,,,,,,,,,,,,,,,,,,,,,,,,,,,,,,,,,,,,,,,,,,,,,,,,,,,,,,,
,,,,,,617028061465253b03b9aabb,62bbf940f649107dbe48ed39,2022-06-29_09h06.54.322,Colour_Asymmetry_Pilot,2022.1.3,Win32,60.80875646,62bbe60bf3d75ef465d3e404,0,10,10,96,1,onetwo,,,,,,,,,,,,,,,,,,,,,,,,,,,,,,,,,,,,,,,,,,,,,,,,,,,,,,,,,,,,,,,,,,,,,,,,,,,,,,,,,,,,,,,,,,,,,,,,,,,,,,,,,,,,,,,,,,,,,,,,,,,,,,,,,,,,,,,,,,,,,,,,,,,,,,,,
,,,,,,617028061465253b03b9aabb,62bbf940f649107dbe48ed39,2022-06-29_09h06.54.322,Colour_Asymmetry_Pilot,2022.1.3,Win32,60.80875646,62bbe60bf3d75ef465d3e404,0,11,11,56,1,onetwo,,,,,,,,,,,,,,,,,,,,,,,,,,,,,,,,,,,,,,,,,,,,,,,,,,,,,,,,,,,,,,,,,,,,,,,,,,,,,,,,,,,,,,,,,,,,,,,,,,,,,,,,,,,,,,,,,,,,,,,,,,,,,,,,,,,,,,,,,,,,,,,,,,,,,,,,
,,,,,,617028061465253b03b9aabb,62bbf940f649107dbe48ed39,2022-06-29_09h06.54.322,Colour_Asymmetry_Pilot,2022.1.3,Win32,60.80875646,62bbe60bf3d75ef465d3e404,0,12,12,66,1,twoone,,,,,,,,,,,,,,,,,,,,,,,,,,,,,,,,,,,,,,,,,,,,,,,,,,,,,,,,,,,,,,,,,,,,,,,,,,,,,,,,,,,,,,,,,,,,,,,,,,,,,,,,,,,,,,,,,,,,,,,,,,,,,,,,,,,,,,,,,,,,,,,,,,,,,,,,
,,,,,,617028061465253b03b9aabb,62bbf940f649107dbe48ed39,2022-06-29_09h06.54.322,Colour_Asymmetry_Pilot,2022.1.3,Win32,60.80875646,62bbe60bf3d75ef465d3e404,0,13,13,77,1,threefour,,,,,,,,,,,,,,,,,,,,,,,,,,,,,,,,,,,,,,,,,,,,,,,,,,,,,,,,,,,,,,,,,,,,,,,,,,,,,,,,,,,,,,,,,,,,,,,,,,,,,,,,,,,,,,,,,,,,,,,,,,,,,,,,,,,,,,,,,,,,,,,,,,,,,,,,
,,,,,,617028061465253b03b9aabb,62bbf940f649107dbe48ed39,2022-06-29_09h06.54.322,Colour_Asymmetry_Pilot,2022.1.3,Win32,60.80875646,62bbe60bf3d75ef465d3e404,0,14,14,54,1,fourtwo,,,,,,,,,,,,,,,,,,,,,,,,,,,,,,,,,,,,,,,,,,,,,,,,,,,,,,,,,,,,,,,,,,,,,,,,,,,,,,,,,,,,,,,,,,,,,,,,,,,,,,,,,,,,,,,,,,,,,,,,,,,,,,,,,,,,,,,,,,,,,,,,,,,,,,,,
,,,,,,617028061465253b03b9aabb,62bbf940f649107dbe48ed39,2022-06-29_09h06.54.322,Colour_Asymmetry_Pilot,2022.1.3,Win32,60.80875646,62bbe60bf3d75ef465d3e404,0,15,15,32,1,onetwo,,,,,,,,,,,,,,,,,,,,,,,,,,,,,,,,,,,,,,,,,,,,,,,,,,,,,,,,,,,,,,,,,,,,,,,,,,,,,,,,,,,,,,,,,,,,,,,,,,,,,,,,,,,,,,,,,,,,,,,,,,,,,,,,,,,,,,,,,,,,,,,,,,,,,,,,
,,,,,,617028061465253b03b9aabb,62bbf940f649107dbe48ed39,2022-06-29_09h06.54.322,Colour_Asymmetry_Pilot,2022.1.3,Win32,60.80875646,62bbe60bf3d75ef465d3e404,0,16,16,145,1,onethree,,,,,,,,,,,,,,,,,,,,,,,,,,,,,,,,,,,,,,,,,,,,,,,,,,,,,,,,,,,,,,,,,,,,,,,,,,,,,,,,,,,,,,,,,,,,,,,,,,,,,,,,,,,,,,,,,,,,,,,,,,,,,,,,,,,,,,,,,,,,,,,,,,,,,,,,
,,,,,,617028061465253b03b9aabb,62bbf940f649107dbe48ed39,2022-06-29_09h06.54.322,Colour_Asymmetry_Pilot,2022.1.3,Win32,60.80875646,62bbe60bf3d75ef465d3e404,0,17,17,87,1,fourthree,,,,,,,,,,,,,,,,,,,,,,,,,,,,,,,,,,,,,,,,,,,,,,,,,,,,,,,,,,,,,,,,,,,,,,,,,,,,,,,,,,,,,,,,,,,,,,,,,,,,,,,,,,,,,,,,,,,,,,,,,,,,,,,,,,,,,,,,,,,,,,,,,,,,,,,,
,,,,,,617028061465253b03b9aabb,62bbf940f649107dbe48ed39,2022-06-29_09h06.54.322,Colour_Asymmetry_Pilot,2022.1.3,Win32,60.80875646,62bbe60bf3d75ef465d3e404,0,18,18,137,1,onethree,,,,,,,,,,,,,,,,,,,,,,,,,,,,,,,,,,,,,,,,,,,,,,,,,,,,,,,,,,,,,,,,,,,,,,,,,,,,,,,,,,,,,,,,,,,,,,,,,,,,,,,,,,,,,,,,,,,,,,,,,,,,,,,,,,,,,,,,,,,,,,,,,,,,,,,,
,,,,,,617028061465253b03b9aabb,62bbf940f649107dbe48ed39,2022-06-29_09h06.54.322,Colour_Asymmetry_Pilot,2022.1.3,Win32,60.80875646,62bbe60bf3d75ef465d3e404,0,19,19,158,1,fourtwo,,,,,,,,,,,,,,,,,,,,,,,,,,,,,,,,,,,,,,,,,,,,,,,,,,,,,,,,,,,,,,,,,,,,,,,,,,,,,,,,,,,,,,,,,,,,,,,,,,,,,,,,,,,,,,,,,,,,,,,,,,,,,,,,,,,,,,,,,,,,,,,,,,,,,,,,
,,,,,,617028061465253b03b9aabb,62bbf940f649107dbe48ed39,2022-06-29_09h06.54.322,Colour_Asymmetry_Pilot,2022.1.3,Win32,60.80875646,62bbe60bf3d75ef465d3e404,0,20,20,40,1,onetwo,,,,,,,,,,,,,,,,,,,,,,,,,,,,,,,,,,,,,,,,,,,,,,,,,,,,,,,,,,,,,,,,,,,,,,,,,,,,,,,,,,,,,,,,,,,,,,,,,,,,,,,,,,,,,,,,,,,,,,,,,,,,,,,,,,,,,,,,,,,,,,,,,,,,,,,,
,,,,,,617028061465253b03b9aabb,62bbf940f649107dbe48ed39,2022-06-29_09h06.54.322,Colour_Asymmetry_Pilot,2022.1.3,Win32,60.80875646,62bbe60bf3d75ef465d3e404,0,21,21,43,1,twofour,,,,,,,,,,,,,,,,,,,,,,,,,,,,,,,,,,,,,,,,,,,,,,,,,,,,,,,,,,,,,,,,,,,,,,,,,,,,,,,,,,,,,,,,,,,,,,,,,,,,,,,,,,,,,,,,,,,,,,,,,,,,,,,,,,,,,,,,,,,,,,,,,,,,,,,,
,,,,,,617028061465253b03b9aabb,62bbf940f649107dbe48ed39,2022-06-29_09h06.54.322,Colour_Asymmetry_Pilot,2022.1.3,Win32,60.80875646,62bbe60bf3d75ef465d3e404,0,22,22,156,1,threeone,,,,,,,,,,,,,,,,,,,,,,,,,,,,,,,,,,,,,,,,,,,,,,,,,,,,,,,,,,,,,,,,,,,,,,,,,,,,,,,,,,,,,,,,,,,,,,,,,,,,,,,,,,,,,,,,,,,,,,,,,,,,,,,,,,,,,,,,,,,,,,,,,,,,,,,,
,,,,,,617028061465253b03b9aabb,62bbf940f649107dbe48ed39,2022-06-29_09h06.54.322,Colour_Asymmetry_Pilot,2022.1.3,Win32,60.80875646,62bbe60bf3d75ef465d3e404,0,23,23,89,1,onethree,,,,,,,,,,,,,,,,,,,,,,,,,,,,,,,,,,,,,,,,,,,,,,,,,,,,,,,,,,,,,,,,,,,,,,,,,,,,,,,,,,,,,,,,,,,,,,,,,,,,,,,,,,,,,,,,,,,,,,,,,,,,,,,,,,,,,,,,,,,,,,,,,,,,,,,,
,,,,,,617028061465253b03b9aabb,62bbf940f649107dbe48ed39,2022-06-29_09h06.54.322,Colour_Asymmetry_Pilot,2022.1.3,Win32,60.80875646,62bbe60bf3d75ef465d3e404,0,24,24,37,1,threefour,,,,,,,,,,,,,,,,,,,,,,,,,,,,,,,,,,,,,,,,,,,,,,,,,,,,,,,,,,,,,,,,,,,,,,,,,,,,,,,,,,,,,,,,,,,,,,,,,,,,,,,,,,,,,,,,,,,,,,,,,,,,,,,,,,,,,,,,,,,,,,,,,,,,,,,,
,,,,,,617028061465253b03b9aabb,62bbf940f649107dbe48ed39,2022-06-29_09h06.54.322,Colour_Asymmetry_Pilot,2022.1.3,Win32,60.80875646,62bbe60bf3d75ef465d3e404,0,25,25,58,1,twoone,,,,,,,,,,,,,,,,,,,,,,,,,,,,,,,,,,,,,,,,,,,,,,,,,,,,,,,,,,,,,,,,,,,,,,,,,,,,,,,,,,,,,,,,,,,,,,,,,,,,,,,,,,,,,,,,,,,,,,,,,,,,,,,,,,,,,,,,,,,,,,,,,,,,,,,,
,,,,,,617028061465253b03b9aabb,62bbf940f649107dbe48ed39,2022-06-29_09h06.54.322,Colour_Asymmetry_Pilot,2022.1.3,Win32,60.80875646,62bbe60bf3d75ef465d3e404,0,26,26,15,1,fourthree,,,,,,,,,,,,,,,,,,,,,,,,,,,,,,,,,,,,,,,,,,,,,,,,,,,,,,,,,,,,,,,,,,,,,,,,,,,,,,,,,,,,,,,,,,,,,,,,,,,,,,,,,,,,,,,,,,,,,,,,,,,,,,,,,,,,,,,,,,,,,,,,,,,,,,,,
,,,,,,617028061465253b03b9aabb,62bbf940f649107dbe48ed39,2022-06-29_09h06.54.322,Colour_Asymmetry_Pilot,2022.1.3,Win32,60.80875646,62bbe60bf3d75ef465d3e404,0,27,27,2,1,twoone,,,,,,,,,,,,,,,,,,,,,,,,,,,,,,,,,,,,,,,,,,,,,,,,,,,,,,,,,,,,,,,,,,,,,,,,,,,,,,,,,,,,,,,,,,,,,,,,,,,,,,,,,,,,,,,,,,,,,,,,,,,,,,,,,,,,,,,,,,,,,,,,,,,,,,,,
,,,,,,617028061465253b03b9aabb,62bbf940f649107dbe48ed39,2022-06-29_09h06.54.322,Colour_Asymmetry_Pilot,2022.1.3,Win32,60.80875646,62bbe60bf3d75ef465d3e404,0,28,28,42,1,twoone,,,,,,,,,,,,,,,,,,,,,,,,,,,,,,,,,,,,,,,,,,,,,,,,,,,,,,,,,,,,,,,,,,,,,,,,,,,,,,,,,,,,,,,,,,,,,,,,,,,,,,,,,,,,,,,,,,,,,,,,,,,,,,,,,,,,,,,,,,,,,,,,,,,,,,,,
,,,,,,617028061465253b03b9aabb,62bbf940f649107dbe48ed39,2022-06-29_09h06.54.322,Colour_Asymmetry_Pilot,2022.1.3,Win32,60.80875646,62bbe60bf3d75ef465d3e404,0,29,29,35,1,twofour,,,,,,,,,,,,,,,,,,,,,,,,,,,,,,,,,,,,,,,,,,,,,,,,,,,,,,,,,,,,,,,,,,,,,,,,,,,,,,,,,,,,,,,,,,,,,,,,,,,,,,,,,,,,,,,,,,,,,,,,,,,,,,,,,,,,,,,,,,,,,,,,,,,,,,,,
,,,,,,617028061465253b03b9aabb,62bbf940f649107dbe48ed39,2022-06-29_09h06.54.322,Colour_Asymmetry_Pilot,2022.1.3,Win32,60.80875646,62bbe60bf3d75ef465d3e404,0,30,30,75,1,twofour,,,,,,,,,,,,,,,,,,,,,,,,,,,,,,,,,,,,,,,,,,,,,,,,,,,,,,,,,,,,,,,,,,,,,,,,,,,,,,,,,,,,,,,,,,,,,,,,,,,,,,,,,,,,,,,,,,,,,,,,,,,,,,,,,,,,,,,,,,,,,,,,,,,,,,,,
,,,,,,617028061465253b03b9aabb,62bbf940f649107dbe48ed39,2022-06-29_09h06.54.322,Colour_Asymmetry_Pilot,2022.1.3,Win32,60.80875646,62bbe60bf3d75ef465d3e404,0,31,31,25,1,onethree,,,,,,,,,,,,,,,,,,,,,,,,,,,,,,,,,,,,,,,,,,,,,,,,,,,,,,,,,,,,,,,,,,,,,,,,,,,,,,,,,,,,,,,,,,,,,,,,,,,,,,,,,,,,,,,,,,,,,,,,,,,,,,,,,,,,,,,,,,,,,,,,,,,,,,,,
,,,,,,617028061465253b03b9aabb,62bbf940f649107dbe48ed39,2022-06-29_09h06.54.322,Colour_Asymmetry_Pilot,2022.1.3,Win32,60.80875646,62bbe60bf3d75ef465d3e404,0,32,32,112,1,onetwo,,,,,,,,,,,,,,,,,,,,,,,,,,,,,,,,,,,,,,,,,,,,,,,,,,,,,,,,,,,,,,,,,,,,,,,,,,,,,,,,,,,,,,,,,,,,,,,,,,,,,,,,,,,,,,,,,,,,,,,,,,,,,,,,,,,,,,,,,,,,,,,,,,,,,,,,
,,,,,,617028061465253b03b9aabb,62bbf940f649107dbe48ed39,2022-06-29_09h06.54.322,Colour_Asymmetry_Pilot,2022.1.3,Win32,60.80875646,62bbe60bf3d75ef465d3e404,0,33,33,80,1,onetwo,,,,,,,,,,,,,,,,,,,,,,,,,,,,,,,,,,,,,,,,,,,,,,,,,,,,,,,,,,,,,,,,,,,,,,,,,,,,,,,,,,,,,,,,,,,,,,,,,,,,,,,,,,,,,,,,,,,,,,,,,,,,,,,,,,,,,,,,,,,,,,,,,,,,,,,,
,,,,,,617028061465253b03b9aabb,62bbf940f649107dbe48ed39,2022-06-29_09h06.54.322,Colour_Asymmetry_Pilot,2022.1.3,Win32,60.80875646,62bbe60bf3d75ef465d3e404,0,34,34,65,1,onethree,,,,,,,,,,,,,,,,,,,,,,,,,,,,,,,,,,,,,,,,,,,,,,,,,,,,,,,,,,,,,,,,,,,,,,,,,,,,,,,,,,,,,,,,,,,,,,,,,,,,,,,,,,,,,,,,,,,,,,,,,,,,,,,,,,,,,,,,,,,,,,,,,,,,,,,,
,,,,,,617028061465253b03b9aabb,62bbf940f649107dbe48ed39,2022-06-29_09h06.54.322,Colour_Asymmetry_Pilot,2022.1.3,Win32,60.80875646,62bbe60bf3d75ef465d3e404,0,35,35,53,1,threefour,,,,,,,,,,,,,,,,,,,,,,,,,,,,,,,,,,,,,,,,,,,,,,,,,,,,,,,,,,,,,,,,,,,,,,,,,,,,,,,,,,,,,,,,,,,,,,,,,,,,,,,,,,,,,,,,,,,,,,,,,,,,,,,,,,,,,,,,,,,,,,,,,,,,,,,,
,,,,,,617028061465253b03b9aabb,62bbf940f649107dbe48ed39,2022-06-29_09h06.54.322,Colour_Asymmetry_Pilot,2022.1.3,Win32,60.80875646,62bbe60bf3d75ef465d3e404,0,36,36,62,1,fourtwo,,,,,,,,,,,,,,,,,,,,,,,,,,,,,,,,,,,,,,,,,,,,,,,,,,,,,,,,,,,,,,,,,,,,,,,,,,,,,,,,,,,,,,,,,,,,,,,,,,,,,,,,,,,,,,,,,,,,,,,,,,,,,,,,,,,,,,,,,,,,,,,,,,,,,,,,
,,,,,,617028061465253b03b9aabb,62bbf940f649107dbe48ed39,2022-06-29_09h06.54.322,Colour_Asymmetry_Pilot,2022.1.3,Win32,60.80875646,62bbe60bf3d75ef465d3e404,0,37,37,116,1,threeone,,,,,,,,,,,,,,,,,,,,,,,,,,,,,,,,,,,,,,,,,,,,,,,,,,,,,,,,,,,,,,,,,,,,,,,,,,,,,,,,,,,,,,,,,,,,,,,,,,,,,,,,,,,,,,,,,,,,,,,,,,,,,,,,,,,,,,,,,,,,,,,,,,,,,,,,
,,,,,,617028061465253b03b9aabb,62bbf940f649107dbe48ed39,2022-06-29_09h06.54.322,Colour_Asymmetry_Pilot,2022.1.3,Win32,60.80875646,62bbe60bf3d75ef465d3e404,0,38,38,73,1,onethree,,,,,,,,,,,,,,,,,,,,,,,,,,,,,,,,,,,,,,,,,,,,,,,,,,,,,,,,,,,,,,,,,,,,,,,,,,,,,,,,,,,,,,,,,,,,,,,,,,,,,,,,,,,,,,,,,,,,,,,,,,,,,,,,,,,,,,,,,,,,,,,,,,,,,,,,
,,,,,,617028061465253b03b9aabb,62bbf940f649107dbe48ed39,2022-06-29_09h06.54.322,Colour_Asymmetry_Pilot,2022.1.3,Win32,60.80875646,62bbe60bf3d75ef465d3e404,0,39,39,106,1,twoone,,,,,,,,,,,,,,,,,,,,,,,,,,,,,,,,,,,,,,,,,,,,,,,,,,,,,,,,,,,,,,,,,,,,,,,,,,,,,,,,,,,,,,,,,,,,,,,,,,,,,,,,,,,,,,,,,,,,,,,,,,,,,,,,,,,,,,,,,,,,,,,,,,,,,,,,
,,,,,,617028061465253b03b9aabb,62bbf940f649107dbe48ed39,2022-06-29_09h06.54.322,Colour_Asymmetry_Pilot,2022.1.3,Win32,60.80875646,62bbe60bf3d75ef465d3e404,0,40,40,91,1,twofour,,,,,,,,,,,,,,,,,,,,,,,,,,,,,,,,,,,,,,,,,,,,,,,,,,,,,,,,,,,,,,,,,,,,,,,,,,,,,,,,,,,,,,,,,,,,,,,,,,,,,,,,,,,,,,,,,,,,,,,,,,,,,,,,,,,,,,,,,,,,,,,,,,,,,,,,
,,,,,,617028061465253b03b9aabb,62bbf940f649107dbe48ed39,2022-06-29_09h06.54.322,Colour_Asymmetry_Pilot,2022.1.3,Win32,60.80875646,62bbe60bf3d75ef465d3e404,0,41,41,39,1,fourthree,,,,,,,,,,,,,,,,,,,,,,,,,,,,,,,,,,,,,,,,,,,,,,,,,,,,,,,,,,,,,,,,,,,,,,,,,,,,,,,,,,,,,,,,,,,,,,,,,,,,,,,,,,,,,,,,,,,,,,,,,,,,,,,,,,,,,,,,,,,,,,,,,,,,,,,,
,,,,,,617028061465253b03b9aabb,62bbf940f649107dbe48ed39,2022-06-29_09h06.54.322,Colour_Asymmetry_Pilot,2022.1.3,Win32,60.80875646,62bbe60bf3d75ef465d3e404,0,42,42,29,1,threefour,,,,,,,,,,,,,,,,,,,,,,,,,,,,,,,,,,,,,,,,,,,,,,,,,,,,,,,,,,,,,,,,,,,,,,,,,,,,,,,,,,,,,,,,,,,,,,,,,,,,,,,,,,,,,,,,,,,,,,,,,,,,,,,,,,,,,,,,,,,,,,,,,,,,,,,,
,,,,,,617028061465253b03b9aabb,62bbf940f649107dbe48ed39,2022-06-29_09h06.54.322,Colour_Asymmetry_Pilot,2022.1.3,Win32,60.80875646,62bbe60bf3d75ef465d3e404,0,43,43,140,1,threeone,,,,,,,,,,,,,,,,,,,,,,,,,,,,,,,,,,,,,,,,,,,,,,,,,,,,,,,,,,,,,,,,,,,,,,,,,,,,,,,,,,,,,,,,,,,,,,,,,,,,,,,,,,,,,,,,,,,,,,,,,,,,,,,,,,,,,,,,,,,,,,,,,,,,,,,,
,,,,,,617028061465253b03b9aabb,62bbf940f649107dbe48ed39,2022-06-29_09h06.54.322,Colour_Asymmetry_Pilot,2022.1.3,Win32,60.80875646,62bbe60bf3d75ef465d3e404,0,44,44,8,1,onetwo,,,,,,,,,,,,,,,,,,,,,,,,,,,,,,,,,,,,,,,,,,,,,,,,,,,,,,,,,,,,,,,,,,,,,,,,,,,,,,,,,,,,,,,,,,,,,,,,,,,,,,,,,,,,,,,,,,,,,,,,,,,,,,,,,,,,,,,,,,,,,,,,,,,,,,,,
,,,,,,617028061465253b03b9aabb,62bbf940f649107dbe48ed39,2022-06-29_09h06.54.322,Colour_Asymmetry_Pilot,2022.1.3,Win32,60.80875646,62bbe60bf3d75ef465d3e404,0,45,45,123,1,twofour,,,,,,,,,,,,,,,,,,,,,,,,,,,,,,,,,,,,,,,,,,,,,,,,,,,,,,,,,,,,,,,,,,,,,,,,,,,,,,,,,,,,,,,,,,,,,,,,,,,,,,,,,,,,,,,,,,,,,,,,,,,,,,,,,,,,,,,,,,,,,,,,,,,,,,,,
,,,,,,617028061465253b03b9aabb,62bbf940f649107dbe48ed39,2022-06-29_09h06.54.322,Colour_Asymmetry_Pilot,2022.1.3,Win32,60.80875646,62bbe60bf3d75ef465d3e404,0,46,46,127,1,fourthree,,,,,,,,,,,,,,,,,,,,,,,,,,,,,,,,,,,,,,,,,,,,,,,,,,,,,,,,,,,,,,,,,,,,,,,,,,,,,,,,,,,,,,,,,,,,,,,,,,,,,,,,,,,,,,,,,,,,,,,,,,,,,,,,,,,,,,,,,,,,,,,,,,,,,,,,
,,,,,,617028061465253b03b9aabb,62bbf940f649107dbe48ed39,2022-06-29_09h06.54.322,Colour_Asymmetry_Pilot,2022.1.3,Win32,60.80875646,62bbe60bf3d75ef465d3e404,0,47,47,31,1,fourthree,,,,,,,,,,,,,,,,,,,,,,,,,,,,,,,,,,,,,,,,,,,,,,,,,,,,,,,,,,,,,,,,,,,,,,,,,,,,,,,,,,,,,,,,,,,,,,,,,,,,,,,,,,,,,,,,,,,,,,,,,,,,,,,,,,,,,,,,,,,,,,,,,,,,,,,,
,,,,,,617028061465253b03b9aabb,62bbf940f649107dbe48ed39,2022-06-29_09h06.54.322,Colour_Asymmetry_Pilot,2022.1.3,Win32,60.80875646,62bbe60bf3d75ef465d3e404,0,48,48,1,1,onethree,,,,,,,,,,,,,,,,,,,,,,,,,,,,,,,,,,,,,,,,,,,,,,,,,,,,,,,,,,,,,,,,,,,,,,,,,,,,,,,,,,,,,,,,,,,,,,,,,,,,,,,,,,,,,,,,,,,,,,,,,,,,,,,,,,,,,,,,,,,,,,,,,,,,,,,,
,,,,,,617028061465253b03b9aabb,62bbf940f649107dbe48ed39,2022-06-29_09h06.54.322,Colour_Asymmetry_Pilot,2022.1.3,Win32,60.80875646,62bbe60bf3d75ef465d3e404,0,49,49,47,1,fourthree,,,,,,,,,,,,,,,,,,,,,,,,,,,,,,,,,,,,,,,,,,,,,,,,,,,,,,,,,,,,,,,,,,,,,,,,,,,,,,,,,,,,,,,,,,,,,,,,,,,,,,,,,,,,,,,,,,,,,,,,,,,,,,,,,,,,,,,,,,,,,,,,,,,,,,,,
,,,,,,617028061465253b03b9aabb,62bbf940f649107dbe48ed39,2022-06-29_09h06.54.322,Colour_Asymmetry_Pilot,2022.1.3,Win32,60.80875646,62bbe60bf3d75ef465d3e404,0,50,50,45,1,threefour,,,,,,,,,,,,,,,,,,,,,,,,,,,,,,,,,,,,,,,,,,,,,,,,,,,,,,,,,,,,,,,,,,,,,,,,,,,,,,,,,,,,,,,,,,,,,,,,,,,,,,,,,,,,,,,,,,,,,,,,,,,,,,,,,,,,,,,,,,,,,,,,,,,,,,,,
,,,,,,617028061465253b03b9aabb,62bbf940f649107dbe48ed39,2022-06-29_09h06.54.322,Colour_Asymmetry_Pilot,2022.1.3,Win32,60.80875646,62bbe60bf3d75ef465d3e404,0,51,51,141,1,threefour,,,,,,,,,,,,,,,,,,,,,,,,,,,,,,,,,,,,,,,,,,,,,,,,,,,,,,,,,,,,,,,,,,,,,,,,,,,,,,,,,,,,,,,,,,,,,,,,,,,,,,,,,,,,,,,,,,,,,,,,,,,,,,,,,,,,,,,,,,,,,,,,,,,,,,,,
,,,,,,617028061465253b03b9aabb,62bbf940f649107dbe48ed39,2022-06-29_09h06.54.322,Colour_Asymmetry_Pilot,2022.1.3,Win32,60.80875646,62bbe60bf3d75ef465d3e404,0,52,52,99,1,twofour,,,,,,,,,,,,,,,,,,,,,,,,,,,,,,,,,,,,,,,,,,,,,,,,,,,,,,,,,,,,,,,,,,,,,,,,,,,,,,,,,,,,,,,,,,,,,,,,,,,,,,,,,,,,,,,,,,,,,,,,,,,,,,,,,,,,,,,,,,,,,,,,,,,,,,,,
,,,,,,617028061465253b03b9aabb,62bbf940f649107dbe48ed39,2022-06-29_09h06.54.322,Colour_Asymmetry_Pilot,2022.1.3,Win32,60.80875646,62bbe60bf3d75ef465d3e404,0,53,53,78,1,fourtwo,,,,,,,,,,,,,,,,,,,,,,,,,,,,,,,,,,,,,,,,,,,,,,,,,,,,,,,,,,,,,,,,,,,,,,,,,,,,,,,,,,,,,,,,,,,,,,,,,,,,,,,,,,,,,,,,,,,,,,,,,,,,,,,,,,,,,,,,,,,,,,,,,,,,,,,,
,,,,,,617028061465253b03b9aabb,62bbf940f649107dbe48ed39,2022-06-29_09h06.54.322,Colour_Asymmetry_Pilot,2022.1.3,Win32,60.80875646,62bbe60bf3d75ef465d3e404,0,54,54,70,1,fourtwo,,,,,,,,,,,,,,,,,,,,,,,,,,,,,,,,,,,,,,,,,,,,,,,,,,,,,,,,,,,,,,,,,,,,,,,,,,,,,,,,,,,,,,,,,,,,,,,,,,,,,,,,,,,,,,,,,,,,,,,,,,,,,,,,,,,,,,,,,,,,,,,,,,,,,,,,
,,,,,,617028061465253b03b9aabb,62bbf940f649107dbe48ed39,2022-06-29_09h06.54.322,Colour_Asymmetry_Pilot,2022.1.3,Win32,60.80875646,62bbe60bf3d75ef465d3e404,0,55,55,147,1,twofour,,,,,,,,,,,,,,,,,,,,,,,,,,,,,,,,,,,,,,,,,,,,,,,,,,,,,,,,,,,,,,,,,,,,,,,,,,,,,,,,,,,,,,,,,,,,,,,,,,,,,,,,,,,,,,,,,,,,,,,,,,,,,,,,,,,,,,,,,,,,,,,,,,,,,,,,
,,,,,,617028061465253b03b9aabb,62bbf940f649107dbe48ed39,2022-06-29_09h06.54.322,Colour_Asymmetry_Pilot,2022.1.3,Win32,60.80875646,62bbe60bf3d75ef465d3e404,0,56,56,136,1,onetwo,,,,,,,,,,,,,,,,,,,,,,,,,,,,,,,,,,,,,,,,,,,,,,,,,,,,,,,,,,,,,,,,,,,,,,,,,,,,,,,,,,,,,,,,,,,,,,,,,,,,,,,,,,,,,,,,,,,,,,,,,,,,,,,,,,,,,,,,,,,,,,,,,,,,,,,,
,,,,,,617028061465253b03b9aabb,62bbf940f649107dbe48ed39,2022-06-29_09h06.54.322,Colour_Asymmetry_Pilot,2022.1.3,Win32,60.80875646,62bbe60bf3d75ef465d3e404,0,57,57,20,1,threeone,,,,,,,,,,,,,,,,,,,,,,,,,,,,,,,,,,,,,,,,,,,,,,,,,,,,,,,,,,,,,,,,,,,,,,,,,,,,,,,,,,,,,,,,,,,,,,,,,,,,,,,,,,,,,,,,,,,,,,,,,,,,,,,,,,,,,,,,,,,,,,,,,,,,,,,,
,,,,,,617028061465253b03b9aabb,62bbf940f649107dbe48ed39,2022-06-29_09h06.54.322,Colour_Asymmetry_Pilot,2022.1.3,Win32,60.80875646,62bbe60bf3d75ef465d3e404,0,58,58,84,1,threeone,,,,,,,,,,,,,,,,,,,,,,,,,,,,,,,,,,,,,,,,,,,,,,,,,,,,,,,,,,,,,,,,,,,,,,,,,,,,,,,,,,,,,,,,,,,,,,,,,,,,,,,,,,,,,,,,,,,,,,,,,,,,,,,,,,,,,,,,,,,,,,,,,,,,,,,,
,,,,,,617028061465253b03b9aabb,62bbf940f649107dbe48ed39,2022-06-29_09h06.54.322,Colour_Asymmetry_Pilot,2022.1.3,Win32,60.80875646,62bbe60bf3d75ef465d3e404,0,59,59,105,1,onethree,,,,,,,,,,,,,,,,,,,,,,,,,,,,,,,,,,,,,,,,,,,,,,,,,,,,,,,,,,,,,,,,,,,,,,,,,,,,,,,,,,,,,,,,,,,,,,,,,,,,,,,,,,,,,,,,,,,,,,,,,,,,,,,,,,,,,,,,,,,,,,,,,,,,,,,,
,,,,,,617028061465253b03b9aabb,62bbf940f649107dbe48ed39,2022-06-29_09h06.54.322,Colour_Asymmetry_Pilot,2022.1.3,Win32,60.80875646,62bbe60bf3d75ef465d3e404,0,60,60,152,1,onetwo,,,,,,,,,,,,,,,,,,,,,,,,,,,,,,,,,,,,,,,,,,,,,,,,,,,,,,,,,,,,,,,,,,,,,,,,,,,,,,,,,,,,,,,,,,,,,,,,,,,,,,,,,,,,,,,,,,,,,,,,,,,,,,,,,,,,,,,,,,,,,,,,,,,,,,,,
,,,,,,617028061465253b03b9aabb,62bbf940f649107dbe48ed39,2022-06-29_09h06.54.322,Colour_Asymmetry_Pilot,2022.1.3,Win32,60.80875646,62bbe60bf3d75ef465d3e404,0,61,61,113,1,onethree,,,,,,,,,,,,,,,,,,,,,,,,,,,,,,,,,,,,,,,,,,,,,,,,,,,,,,,,,,,,,,,,,,,,,,,,,,,,,,,,,,,,,,,,,,,,,,,,,,,,,,,,,,,,,,,,,,,,,,,,,,,,,,,,,,,,,,,,,,,,,,,,,,,,,,,,
,,,,,,617028061465253b03b9aabb,62bbf940f649107dbe48ed39,2022-06-29_09h06.54.322,Colour_Asymmetry_Pilot,2022.1.3,Win32,60.80875646,62bbe60bf3d75ef465d3e404,0,62,62,26,1,twoone,,,,,,,,,,,,,,,,,,,,,,,,,,,,,,,,,,,,,,,,,,,,,,,,,,,,,,,,,,,,,,,,,,,,,,,,,,,,,,,,,,,,,,,,,,,,,,,,,,,,,,,,,,,,,,,,,,,,,,,,,,,,,,,,,,,,,,,,,,,,,,,,,,,,,,,,
,,,,,,617028061465253b03b9aabb,62bbf940f649107dbe48ed39,2022-06-29_09h06.54.322,Colour_Asymmetry_Pilot,2022.1.3,Win32,60.80875646,62bbe60bf3d75ef465d3e404,0,63,63,138,1,twoone,,,,,,,,,,,,,,,,,,,,,,,,,,,,,,,,,,,,,,,,,,,,,,,,,,,,,,,,,,,,,,,,,,,,,,,,,,,,,,,,,,,,,,,,,,,,,,,,,,,,,,,,,,,,,,,,,,,,,,,,,,,,,,,,,,,,,,,,,,,,,,,,,,,,,,,,
,,,,,,617028061465253b03b9aabb,62bbf940f649107dbe48ed39,2022-06-29_09h06.54.322,Colour_Asymmetry_Pilot,2022.1.3,Win32,60.80875646,62bbe60bf3d75ef465d3e404,0,64,64,7,1,fourthree,,,,,,,,,,,,,,,,,,,,,,,,,,,,,,,,,,,,,,,,,,,,,,,,,,,,,,,,,,,,,,,,,,,,,,,,,,,,,,,,,,,,,,,,,,,,,,,,,,,,,,,,,,,,,,,,,,,,,,,,,,,,,,,,,,,,,,,,,,,,,,,,,,,,,,,,
,,,,,,617028061465253b03b9aabb,62bbf940f649107dbe48ed39,2022-06-29_09h06.54.322,Colour_Asymmetry_Pilot,2022.1.3,Win32,60.80875646,62bbe60bf3d75ef465d3e404,0,65,65,97,1,onethree,,,,,,,,,,,,,,,,,,,,,,,,,,,,,,,,,,,,,,,,,,,,,,,,,,,,,,,,,,,,,,,,,,,,,,,,,,,,,,,,,,,,,,,,,,,,,,,,,,,,,,,,,,,,,,,,,,,,,,,,,,,,,,,,,,,,,,,,,,,,,,,,,,,,,,,,
,,,,,,617028061465253b03b9aabb,62bbf940f649107dbe48ed39,2022-06-29_09h06.54.322,Colour_Asymmetry_Pilot,2022.1.3,Win32,60.80875646,62bbe60bf3d75ef465d3e404,0,66,66,135,1,fourthree,,,,,,,,,,,,,,,,,,,,,,,,,,,,,,,,,,,,,,,,,,,,,,,,,,,,,,,,,,,,,,,,,,,,,,,,,,,,,,,,,,,,,,,,,,,,,,,,,,,,,,,,,,,,,,,,,,,,,,,,,,,,,,,,,,,,,,,,,,,,,,,,,,,,,,,,
,,,,,,617028061465253b03b9aabb,62bbf940f649107dbe48ed39,2022-06-29_09h06.54.322,Colour_Asymmetry_Pilot,2022.1.3,Win32,60.80875646,62bbe60bf3d75ef465d3e404,0,67,67,71,1,fourthree,,,,,,,,,,,,,,,,,,,,,,,,,,,,,,,,,,,,,,,,,,,,,,,,,,,,,,,,,,,,,,,,,,,,,,,,,,,,,,,,,,,,,,,,,,,,,,,,,,,,,,,,,,,,,,,,,,,,,,,,,,,,,,,,,,,,,,,,,,,,,,,,,,,,,,,,
,,,,,,617028061465253b03b9aabb,62bbf940f649107dbe48ed39,2022-06-29_09h06.54.322,Colour_Asymmetry_Pilot,2022.1.3,Win32,60.80875646,62bbe60bf3d75ef465d3e404,0,68,68,101,1,threefour,,,,,,,,,,,,,,,,,,,,,,,,,,,,,,,,,,,,,,,,,,,,,,,,,,,,,,,,,,,,,,,,,,,,,,,,,,,,,,,,,,,,,,,,,,,,,,,,,,,,,,,,,,,,,,,,,,,,,,,,,,,,,,,,,,,,,,,,,,,,,,,,,,,,,,,,
,,,,,,617028061465253b03b9aabb,62bbf940f649107dbe48ed39,2022-06-29_09h06.54.322,Colour_Asymmetry_Pilot,2022.1.3,Win32,60.80875646,62bbe60bf3d75ef465d3e404,0,69,69,48,1,onetwo,,,,,,,,,,,,,,,,,,,,,,,,,,,,,,,,,,,,,,,,,,,,,,,,,,,,,,,,,,,,,,,,,,,,,,,,,,,,,,,,,,,,,,,,,,,,,,,,,,,,,,,,,,,,,,,,,,,,,,,,,,,,,,,,,,,,,,,,,,,,,,,,,,,,,,,,
,,,,,,617028061465253b03b9aabb,62bbf940f649107dbe48ed39,2022-06-29_09h06.54.322,Colour_Asymmetry_Pilot,2022.1.3,Win32,60.80875646,62bbe60bf3d75ef465d3e404,0,70,70,154,1,twoone,,,,,,,,,,,,,,,,,,,,,,,,,,,,,,,,,,,,,,,,,,,,,,,,,,,,,,,,,,,,,,,,,,,,,,,,,,,,,,,,,,,,,,,,,,,,,,,,,,,,,,,,,,,,,,,,,,,,,,,,,,,,,,,,,,,,,,,,,,,,,,,,,,,,,,,,
,,,,,,617028061465253b03b9aabb,62bbf940f649107dbe48ed39,2022-06-29_09h06.54.322,Colour_Asymmetry_Pilot,2022.1.3,Win32,60.80875646,62bbe60bf3d75ef465d3e404,0,71,71,30,1,fourtwo,,,,,,,,,,,,,,,,,,,,,,,,,,,,,,,,,,,,,,,,,,,,,,,,,,,,,,,,,,,,,,,,,,,,,,,,,,,,,,,,,,,,,,,,,,,,,,,,,,,,,,,,,,,,,,,,,,,,,,,,,,,,,,,,,,,,,,,,,,,,,,,,,,,,,,,,
,,,,,,617028061465253b03b9aabb,62bbf940f649107dbe48ed39,2022-06-29_09h06.54.322,Colour_Asymmetry_Pilot,2022.1.3,Win32,60.80875646,62bbe60bf3d75ef465d3e404,0,72,72,128,1,onetwo,,,,,,,,,,,,,,,,,,,,,,,,,,,,,,,,,,,,,,,,,,,,,,,,,,,,,,,,,,,,,,,,,,,,,,,,,,,,,,,,,,,,,,,,,,,,,,,,,,,,,,,,,,,,,,,,,,,,,,,,,,,,,,,,,,,,,,,,,,,,,,,,,,,,,,,,
,,,,,,617028061465253b03b9aabb,62bbf940f649107dbe48ed39,2022-06-29_09h06.54.322,Colour_Asymmetry_Pilot,2022.1.3,Win32,60.80875646,62bbe60bf3d75ef465d3e404,0,73,73,98,1,twoone,,,,,,,,,,,,,,,,,,,,,,,,,,,,,,,,,,,,,,,,,,,,,,,,,,,,,,,,,,,,,,,,,,,,,,,,,,,,,,,,,,,,,,,,,,,,,,,,,,,,,,,,,,,,,,,,,,,,,,,,,,,,,,,,,,,,,,,,,,,,,,,,,,,,,,,,
,,,,,,617028061465253b03b9aabb,62bbf940f649107dbe48ed39,2022-06-29_09h06.54.322,Colour_Asymmetry_Pilot,2022.1.3,Win32,60.80875646,62bbe60bf3d75ef465d3e404,0,74,74,72,1,onetwo,,,,,,,,,,,,,,,,,,,,,,,,,,,,,,,,,,,,,,,,,,,,,,,,,,,,,,,,,,,,,,,,,,,,,,,,,,,,,,,,,,,,,,,,,,,,,,,,,,,,,,,,,,,,,,,,,,,,,,,,,,,,,,,,,,,,,,,,,,,,,,,,,,,,,,,,
,,,,,,617028061465253b03b9aabb,62bbf940f649107dbe48ed39,2022-06-29_09h06.54.322,Colour_Asymmetry_Pilot,2022.1.3,Win32,60.80875646,62bbe60bf3d75ef465d3e404,0,75,75,33,1,onethree,,,,,,,,,,,,,,,,,,,,,,,,,,,,,,,,,,,,,,,,,,,,,,,,,,,,,,,,,,,,,,,,,,,,,,,,,,,,,,,,,,,,,,,,,,,,,,,,,,,,,,,,,,,,,,,,,,,,,,,,,,,,,,,,,,,,,,,,,,,,,,,,,,,,,,,,
,,,,,,617028061465253b03b9aabb,62bbf940f649107dbe48ed39,2022-06-29_09h06.54.322,Colour_Asymmetry_Pilot,2022.1.3,Win32,60.80875646,62bbe60bf3d75ef465d3e404,0,76,76,16,1,onetwo,,,,,,,,,,,,,,,,,,,,,,,,,,,,,,,,,,,,,,,,,,,,,,,,,,,,,,,,,,,,,,,,,,,,,,,,,,,,,,,,,,,,,,,,,,,,,,,,,,,,,,,,,,,,,,,,,,,,,,,,,,,,,,,,,,,,,,,,,,,,,,,,,,,,,,,,
,,,,,,617028061465253b03b9aabb,62bbf940f649107dbe48ed39,2022-06-29_09h06.54.322,Colour_Asymmetry_Pilot,2022.1.3,Win32,60.80875646,62bbe60bf3d75ef465d3e404,0,77,77,74,1,twoone,,,,,,,,,,,,,,,,,,,,,,,,,,,,,,,,,,,,,,,,,,,,,,,,,,,,,,,,,,,,,,,,,,,,,,,,,,,,,,,,,,,,,,,,,,,,,,,,,,,,,,,,,,,,,,,,,,,,,,,,,,,,,,,,,,,,,,,,,,,,,,,,,,,,,,,,
,,,,,,617028061465253b03b9aabb,62bbf940f649107dbe48ed39,2022-06-29_09h06.54.322,Colour_Asymmetry_Pilot,2022.1.3,Win32,60.80875646,62bbe60bf3d75ef465d3e404,0,78,78,107,1,twofour,,,,,,,,,,,,,,,,,,,,,,,,,,,,,,,,,,,,,,,,,,,,,,,,,,,,,,,,,,,,,,,,,,,,,,,,,,,,,,,,,,,,,,,,,,,,,,,,,,,,,,,,,,,,,,,,,,,,,,,,,,,,,,,,,,,,,,,,,,,,,,,,,,,,,,,,
,,,,,,617028061465253b03b9aabb,62bbf940f649107dbe48ed39,2022-06-29_09h06.54.322,Colour_Asymmetry_Pilot,2022.1.3,Win32,60.80875646,62bbe60bf3d75ef465d3e404,0,79,79,155,1,twofour,,,,,,,,,,,,,,,,,,,,,,,,,,,,,,,,,,,,,,,,,,,,,,,,,,,,,,,,,,,,,,,,,,,,,,,,,,,,,,,,,,,,,,,,,,,,,,,,,,,,,,,,,,,,,,,,,,,,,,,,,,,,,,,,,,,,,,,,,,,,,,,,,,,,,,,,
,,,,,,617028061465253b03b9aabb,62bbf940f649107dbe48ed39,2022-06-29_09h06.54.322,Colour_Asymmetry_Pilot,2022.1.3,Win32,60.80875646,62bbe60bf3d75ef465d3e404,0,80,80,4,1,threeone,,,,,,,,,,,,,,,,,,,,,,,,,,,,,,,,,,,,,,,,,,,,,,,,,,,,,,,,,,,,,,,,,,,,,,,,,,,,,,,,,,,,,,,,,,,,,,,,,,,,,,,,,,,,,,,,,,,,,,,,,,,,,,,,,,,,,,,,,,,,,,,,,,,,,,,,
,,,,,,617028061465253b03b9aabb,62bbf940f649107dbe48ed39,2022-06-29_09h06.54.322,Colour_Asymmetry_Pilot,2022.1.3,Win32,60.80875646,62bbe60bf3d75ef465d3e404,0,81,81,132,1,threeone,,,,,,,,,,,,,,,,,,,,,,,,,,,,,,,,,,,,,,,,,,,,,,,,,,,,,,,,,,,,,,,,,,,,,,,,,,,,,,,,,,,,,,,,,,,,,,,,,,,,,,,,,,,,,,,,,,,,,,,,,,,,,,,,,,,,,,,,,,,,,,,,,,,,,,,,
,,,,,,617028061465253b03b9aabb,62bbf940f649107dbe48ed39,2022-06-29_09h06.54.322,Colour_Asymmetry_Pilot,2022.1.3,Win32,60.80875646,62bbe60bf3d75ef465d3e404,0,82,82,144,1,onetwo,,,,,,,,,,,,,,,,,,,,,,,,,,,,,,,,,,,,,,,,,,,,,,,,,,,,,,,,,,,,,,,,,,,,,,,,,,,,,,,,,,,,,,,,,,,,,,,,,,,,,,,,,,,,,,,,,,,,,,,,,,,,,,,,,,,,,,,,,,,,,,,,,,,,,,,,
,,,,,,617028061465253b03b9aabb,62bbf940f649107dbe48ed39,2022-06-29_09h06.54.322,Colour_Asymmetry_Pilot,2022.1.3,Win32,60.80875646,62bbe60bf3d75ef465d3e404,0,83,83,60,1,threeone,,,,,,,,,,,,,,,,,,,,,,,,,,,,,,,,,,,,,,,,,,,,,,,,,,,,,,,,,,,,,,,,,,,,,,,,,,,,,,,,,,,,,,,,,,,,,,,,,,,,,,,,,,,,,,,,,,,,,,,,,,,,,,,,,,,,,,,,,,,,,,,,,,,,,,,,
,,,,,,617028061465253b03b9aabb,62bbf940f649107dbe48ed39,2022-06-29_09h06.54.322,Colour_Asymmetry_Pilot,2022.1.3,Win32,60.80875646,62bbe60bf3d75ef465d3e404,0,84,84,10,1,twoone,,,,,,,,,,,,,,,,,,,,,,,,,,,,,,,,,,,,,,,,,,,,,,,,,,,,,,,,,,,,,,,,,,,,,,,,,,,,,,,,,,,,,,,,,,,,,,,,,,,,,,,,,,,,,,,,,,,,,,,,,,,,,,,,,,,,,,,,,,,,,,,,,,,,,,,,
,,,,,,617028061465253b03b9aabb,62bbf940f649107dbe48ed39,2022-06-29_09h06.54.322,Colour_Asymmetry_Pilot,2022.1.3,Win32,60.80875646,62bbe60bf3d75ef465d3e404,0,85,85,95,1,fourthree,,,,,,,,,,,,,,,,,,,,,,,,,,,,,,,,,,,,,,,,,,,,,,,,,,,,,,,,,,,,,,,,,,,,,,,,,,,,,,,,,,,,,,,,,,,,,,,,,,,,,,,,,,,,,,,,,,,,,,,,,,,,,,,,,,,,,,,,,,,,,,,,,,,,,,,,
,,,,,,617028061465253b03b9aabb,62bbf940f649107dbe48ed39,2022-06-29_09h06.54.322,Colour_Asymmetry_Pilot,2022.1.3,Win32,60.80875646,62bbe60bf3d75ef465d3e404,0,86,86,41,1,onethree,,,,,,,,,,,,,,,,,,,,,,,,,,,,,,,,,,,,,,,,,,,,,,,,,,,,,,,,,,,,,,,,,,,,,,,,,,,,,,,,,,,,,,,,,,,,,,,,,,,,,,,,,,,,,,,,,,,,,,,,,,,,,,,,,,,,,,,,,,,,,,,,,,,,,,,,
,,,,,,617028061465253b03b9aabb,62bbf940f649107dbe48ed39,2022-06-29_09h06.54.322,Colour_Asymmetry_Pilot,2022.1.3,Win32,60.80875646,62bbe60bf3d75ef465d3e404,0,87,87,159,1,fourthree,,,,,,,,,,,,,,,,,,,,,,,,,,,,,,,,,,,,,,,,,,,,,,,,,,,,,,,,,,,,,,,,,,,,,,,,,,,,,,,,,,,,,,,,,,,,,,,,,,,,,,,,,,,,,,,,,,,,,,,,,,,,,,,,,,,,,,,,,,,,,,,,,,,,,,,,
,,,,,,617028061465253b03b9aabb,62bbf940f649107dbe48ed39,2022-06-29_09h06.54.322,Colour_Asymmetry_Pilot,2022.1.3,Win32,60.80875646,62bbe60bf3d75ef465d3e404,0,88,88,61,1,threefour,,,,,,,,,,,,,,,,,,,,,,,,,,,,,,,,,,,,,,,,,,,,,,,,,,,,,,,,,,,,,,,,,,,,,,,,,,,,,,,,,,,,,,,,,,,,,,,,,,,,,,,,,,,,,,,,,,,,,,,,,,,,,,,,,,,,,,,,,,,,,,,,,,,,,,,,
,,,,,,617028061465253b03b9aabb,62bbf940f649107dbe48ed39,2022-06-29_09h06.54.322,Colour_Asymmetry_Pilot,2022.1.3,Win32,60.80875646,62bbe60bf3d75ef465d3e404,0,89,89,51,1,twofour,,,,,,,,,,,,,,,,,,,,,,,,,,,,,,,,,,,,,,,,,,,,,,,,,,,,,,,,,,,,,,,,,,,,,,,,,,,,,,,,,,,,,,,,,,,,,,,,,,,,,,,,,,,,,,,,,,,,,,,,,,,,,,,,,,,,,,,,,,,,,,,,,,,,,,,,
,,,,,,617028061465253b03b9aabb,62bbf940f649107dbe48ed39,2022-06-29_09h06.54.322,Colour_Asymmetry_Pilot,2022.1.3,Win32,60.80875646,62bbe60bf3d75ef465d3e404,0,90,90,17,1,onethree,,,,,,,,,,,,,,,,,,,,,,,,,,,,,,,,,,,,,,,,,,,,,,,,,,,,,,,,,,,,,,,,,,,,,,,,,,,,,,,,,,,,,,,,,,,,,,,,,,,,,,,,,,,,,,,,,,,,,,,,,,,,,,,,,,,,,,,,,,,,,,,,,,,,,,,,
,,,,,,617028061465253b03b9aabb,62bbf940f649107dbe48ed39,2022-06-29_09h06.54.322,Colour_Asymmetry_Pilot,2022.1.3,Win32,60.80875646,62bbe60bf3d75ef465d3e404,0,91,91,90,1,twoone,,,,,,,,,,,,,,,,,,,,,,,,,,,,,,,,,,,,,,,,,,,,,,,,,,,,,,,,,,,,,,,,,,,,,,,,,,,,,,,,,,,,,,,,,,,,,,,,,,,,,,,,,,,,,,,,,,,,,,,,,,,,,,,,,,,,,,,,,,,,,,,,,,,,,,,,
,,,,,,617028061465253b03b9aabb,62bbf940f649107dbe48ed39,2022-06-29_09h06.54.322,Colour_Asymmetry_Pilot,2022.1.3,Win32,60.80875646,62bbe60bf3d75ef465d3e404,0,92,92,6,1,fourtwo,,,,,,,,,,,,,,,,,,,,,,,,,,,,,,,,,,,,,,,,,,,,,,,,,,,,,,,,,,,,,,,,,,,,,,,,,,,,,,,,,,,,,,,,,,,,,,,,,,,,,,,,,,,,,,,,,,,,,,,,,,,,,,,,,,,,,,,,,,,,,,,,,,,,,,,,
,,,,,,617028061465253b03b9aabb,62bbf940f649107dbe48ed39,2022-06-29_09h06.54.322,Colour_Asymmetry_Pilot,2022.1.3,Win32,60.80875646,62bbe60bf3d75ef465d3e404,0,93,93,0,1,onetwo,,,,,,,,,,,,,,,,,,,,,,,,,,,,,,,,,,,,,,,,,,,,,,,,,,,,,,,,,,,,,,,,,,,,,,,,,,,,,,,,,,,,,,,,,,,,,,,,,,,,,,,,,,,,,,,,,,,,,,,,,,,,,,,,,,,,,,,,,,,,,,,,,,,,,,,,
,,,,,,617028061465253b03b9aabb,62bbf940f649107dbe48ed39,2022-06-29_09h06.54.322,Colour_Asymmetry_Pilot,2022.1.3,Win32,60.80875646,62bbe60bf3d75ef465d3e404,0,94,94,104,1,onetwo,,,,,,,,,,,,,,,,,,,,,,,,,,,,,,,,,,,,,,,,,,,,,,,,,,,,,,,,,,,,,,,,,,,,,,,,,,,,,,,,,,,,,,,,,,,,,,,,,,,,,,,,,,,,,,,,,,,,,,,,,,,,,,,,,,,,,,,,,,,,,,,,,,,,,,,,
,,,,,,617028061465253b03b9aabb,62bbf940f649107dbe48ed39,2022-06-29_09h06.54.322,Colour_Asymmetry_Pilot,2022.1.3,Win32,60.80875646,62bbe60bf3d75ef465d3e404,0,95,95,52,1,threeone,,,,,,,,,,,,,,,,,,,,,,,,,,,,,,,,,,,,,,,,,,,,,,,,,,,,,,,,,,,,,,,,,,,,,,,,,,,,,,,,,,,,,,,,,,,,,,,,,,,,,,,,,,,,,,,,,,,,,,,,,,,,,,,,,,,,,,,,,,,,,,,,,,,,,,,,
,,,,,,617028061465253b03b9aabb,62bbf940f649107dbe48ed39,2022-06-29_09h06.54.322,Colour_Asymmetry_Pilot,2022.1.3,Win32,60.80875646,62bbe60bf3d75ef465d3e404,0,96,96,120,1,onetwo,,,,,,,,,,,,,,,,,,,,,,,,,,,,,,,,,,,,,,,,,,,,,,,,,,,,,,,,,,,,,,,,,,,,,,,,,,,,,,,,,,,,,,,,,,,,,,,,,,,,,,,,,,,,,,,,,,,,,,,,,,,,,,,,,,,,,,,,,,,,,,,,,,,,,,,,
,,,,,,617028061465253b03b9aabb,62bbf940f649107dbe48ed39,2022-06-29_09h06.54.322,Colour_Asymmetry_Pilot,2022.1.3,Win32,60.80875646,62bbe60bf3d75ef465d3e404,0,97,97,81,1,onethree,,,,,,,,,,,,,,,,,,,,,,,,,,,,,,,,,,,,,,,,,,,,,,,,,,,,,,,,,,,,,,,,,,,,,,,,,,,,,,,,,,,,,,,,,,,,,,,,,,,,,,,,,,,,,,,,,,,,,,,,,,,,,,,,,,,,,,,,,,,,,,,,,,,,,,,,
,,,,,,617028061465253b03b9aabb,62bbf940f649107dbe48ed39,2022-06-29_09h06.54.322,Colour_Asymmetry_Pilot,2022.1.3,Win32,60.80875646,62bbe60bf3d75ef465d3e404,0,98,98,88,1,onetwo,,,,,,,,,,,,,,,,,,,,,,,,,,,,,,,,,,,,,,,,,,,,,,,,,,,,,,,,,,,,,,,,,,,,,,,,,,,,,,,,,,,,,,,,,,,,,,,,,,,,,,,,,,,,,,,,,,,,,,,,,,,,,,,,,,,,,,,,,,,,,,,,,,,,,,,,
,,,,,,617028061465253b03b9aabb,62bbf940f649107dbe48ed39,2022-06-29_09h06.54.322,Colour_Asymmetry_Pilot,2022.1.3,Win32,60.80875646,62bbe60bf3d75ef465d3e404,0,99,99,110,1,fourtwo,,,,,,,,,,,,,,,,,,,,,,,,,,,,,,,,,,,,,,,,,,,,,,,,,,,,,,,,,,,,,,,,,,,,,,,,,,,,,,,,,,,,,,,,,,,,,,,,,,,,,,,,,,,,,,,,,,,,,,,,,,,,,,,,,,,,,,,,,,,,,,,,,,,,,,,,
,,,,,,617028061465253b03b9aabb,62bbf940f649107dbe48ed39,2022-06-29_09h06.54.322,Colour_Asymmetry_Pilot,2022.1.3,Win32,60.80875646,62bbe60bf3d75ef465d3e404,0,100,100,119,1,fourthree,,,,,,,,,,,,,,,,,,,,,,,,,,,,,,,,,,,,,,,,,,,,,,,,,,,,,,,,,,,,,,,,,,,,,,,,,,,,,,,,,,,,,,,,,,,,,,,,,,,,,,,,,,,,,,,,,,,,,,,,,,,,,,,,,,,,,,,,,,,,,,,,,,,,,,,,
,,,,,,617028061465253b03b9aabb,62bbf940f649107dbe48ed39,2022-06-29_09h06.54.322,Colour_Asymmetry_Pilot,2022.1.3,Win32,60.80875646,62bbe60bf3d75ef465d3e404,0,101,101,63,1,fourthree,,,,,,,,,,,,,,,,,,,,,,,,,,,,,,,,,,,,,,,,,,,,,,,,,,,,,,,,,,,,,,,,,,,,,,,,,,,,,,,,,,,,,,,,,,,,,,,,,,,,,,,,,,,,,,,,,,,,,,,,,,,,,,,,,,,,,,,,,,,,,,,,,,,,,,,,
,,,,,,617028061465253b03b9aabb,62bbf940f649107dbe48ed39,2022-06-29_09h06.54.322,Colour_Asymmetry_Pilot,2022.1.3,Win32,60.80875646,62bbe60bf3d75ef465d3e404,0,102,102,125,1,threefour,,,,,,,,,,,,,,,,,,,,,,,,,,,,,,,,,,,,,,,,,,,,,,,,,,,,,,,,,,,,,,,,,,,,,,,,,,,,,,,,,,,,,,,,,,,,,,,,,,,,,,,,,,,,,,,,,,,,,,,,,,,,,,,,,,,,,,,,,,,,,,,,,,,,,,,,
,,,,,,617028061465253b03b9aabb,62bbf940f649107dbe48ed39,2022-06-29_09h06.54.322,Colour_Asymmetry_Pilot,2022.1.3,Win32,60.80875646,62bbe60bf3d75ef465d3e404,0,103,103,149,1,threefour,,,,,,,,,,,,,,,,,,,,,,,,,,,,,,,,,,,,,,,,,,,,,,,,,,,,,,,,,,,,,,,,,,,,,,,,,,,,,,,,,,,,,,,,,,,,,,,,,,,,,,,,,,,,,,,,,,,,,,,,,,,,,,,,,,,,,,,,,,,,,,,,,,,,,,,,
,,,,,,617028061465253b03b9aabb,62bbf940f649107dbe48ed39,2022-06-29_09h06.54.322,Colour_Asymmetry_Pilot,2022.1.3,Win32,60.80875646,62bbe60bf3d75ef465d3e404,0,104,104,50,1,twoone,,,,,,,,,,,,,,,,,,,,,,,,,,,,,,,,,,,,,,,,,,,,,,,,,,,,,,,,,,,,,,,,,,,,,,,,,,,,,,,,,,,,,,,,,,,,,,,,,,,,,,,,,,,,,,,,,,,,,,,,,,,,,,,,,,,,,,,,,,,,,,,,,,,,,,,,
,,,,,,617028061465253b03b9aabb,62bbf940f649107dbe48ed39,2022-06-29_09h06.54.322,Colour_Asymmetry_Pilot,2022.1.3,Win32,60.80875646,62bbe60bf3d75ef465d3e404,0,105,105,13,1,threefour,,,,,,,,,,,,,,,,,,,,,,,,,,,,,,,,,,,,,,,,,,,,,,,,,,,,,,,,,,,,,,,,,,,,,,,,,,,,,,,,,,,,,,,,,,,,,,,,,,,,,,,,,,,,,,,,,,,,,,,,,,,,,,,,,,,,,,,,,,,,,,,,,,,,,,,,
,,,,,,617028061465253b03b9aabb,62bbf940f649107dbe48ed39,2022-06-29_09h06.54.322,Colour_Asymmetry_Pilot,2022.1.3,Win32,60.80875646,62bbe60bf3d75ef465d3e404,0,106,106,131,1,twofour,,,,,,,,,,,,,,,,,,,,,,,,,,,,,,,,,,,,,,,,,,,,,,,,,,,,,,,,,,,,,,,,,,,,,,,,,,,,,,,,,,,,,,,,,,,,,,,,,,,,,,,,,,,,,,,,,,,,,,,,,,,,,,,,,,,,,,,,,,,,,,,,,,,,,,,,
,,,,,,617028061465253b03b9aabb,62bbf940f649107dbe48ed39,2022-06-29_09h06.54.322,Colour_Asymmetry_Pilot,2022.1.3,Win32,60.80875646,62bbe60bf3d75ef465d3e404,0,107,107,49,1,onethree,,,,,,,,,,,,,,,,,,,,,,,,,,,,,,,,,,,,,,,,,,,,,,,,,,,,,,,,,,,,,,,,,,,,,,,,,,,,,,,,,,,,,,,,,,,,,,,,,,,,,,,,,,,,,,,,,,,,,,,,,,,,,,,,,,,,,,,,,,,,,,,,,,,,,,,,
,,,,,,617028061465253b03b9aabb,62bbf940f649107dbe48ed39,2022-06-29_09h06.54.322,Colour_Asymmetry_Pilot,2022.1.3,Win32,60.80875646,62bbe60bf3d75ef465d3e404,0,108,108,14,1,fourtwo,,,,,,,,,,,,,,,,,,,,,,,,,,,,,,,,,,,,,,,,,,,,,,,,,,,,,,,,,,,,,,,,,,,,,,,,,,,,,,,,,,,,,,,,,,,,,,,,,,,,,,,,,,,,,,,,,,,,,,,,,,,,,,,,,,,,,,,,,,,,,,,,,,,,,,,,
,,,,,,617028061465253b03b9aabb,62bbf940f649107dbe48ed39,2022-06-29_09h06.54.322,Colour_Asymmetry_Pilot,2022.1.3,Win32,60.80875646,62bbe60bf3d75ef465d3e404,0,109,109,22,1,fourtwo,,,,,,,,,,,,,,,,,,,,,,,,,,,,,,,,,,,,,,,,,,,,,,,,,,,,,,,,,,,,,,,,,,,,,,,,,,,,,,,,,,,,,,,,,,,,,,,,,,,,,,,,,,,,,,,,,,,,,,,,,,,,,,,,,,,,,,,,,,,,,,,,,,,,,,,,
,,,,,,617028061465253b03b9aabb,62bbf940f649107dbe48ed39,2022-06-29_09h06.54.322,Colour_Asymmetry_Pilot,2022.1.3,Win32,60.80875646,62bbe60bf3d75ef465d3e404,0,110,110,102,1,fourtwo,,,,,,,,,,,,,,,,,,,,,,,,,,,,,,,,,,,,,,,,,,,,,,,,,,,,,,,,,,,,,,,,,,,,,,,,,,,,,,,,,,,,,,,,,,,,,,,,,,,,,,,,,,,,,,,,,,,,,,,,,,,,,,,,,,,,,,,,,,,,,,,,,,,,,,,,
,,,,,,617028061465253b03b9aabb,62bbf940f649107dbe48ed39,2022-06-29_09h06.54.322,Colour_Asymmetry_Pilot,2022.1.3,Win32,60.80875646,62bbe60bf3d75ef465d3e404,0,111,111,57,1,onethree,,,,,,,,,,,,,,,,,,,,,,,,,,,,,,,,,,,,,,,,,,,,,,,,,,,,,,,,,,,,,,,,,,,,,,,,,,,,,,,,,,,,,,,,,,,,,,,,,,,,,,,,,,,,,,,,,,,,,,,,,,,,,,,,,,,,,,,,,,,,,,,,,,,,,,,,
,,,,,,617028061465253b03b9aabb,62bbf940f649107dbe48ed39,2022-06-29_09h06.54.322,Colour_Asymmetry_Pilot,2022.1.3,Win32,60.80875646,62bbe60bf3d75ef465d3e404,0,112,112,93,1,threefour,,,,,,,,,,,,,,,,,,,,,,,,,,,,,,,,,,,,,,,,,,,,,,,,,,,,,,,,,,,,,,,,,,,,,,,,,,,,,,,,,,,,,,,,,,,,,,,,,,,,,,,,,,,,,,,,,,,,,,,,,,,,,,,,,,,,,,,,,,,,,,,,,,,,,,,,
,,,,,,617028061465253b03b9aabb,62bbf940f649107dbe48ed39,2022-06-29_09h06.54.322,Colour_Asymmetry_Pilot,2022.1.3,Win32,60.80875646,62bbe60bf3d75ef465d3e404,0,113,113,34,1,twoone,,,,,,,,,,,,,,,,,,,,,,,,,,,,,,,,,,,,,,,,,,,,,,,,,,,,,,,,,,,,,,,,,,,,,,,,,,,,,,,,,,,,,,,,,,,,,,,,,,,,,,,,,,,,,,,,,,,,,,,,,,,,,,,,,,,,,,,,,,,,,,,,,,,,,,,,
,,,,,,617028061465253b03b9aabb,62bbf940f649107dbe48ed39,2022-06-29_09h06.54.322,Colour_Asymmetry_Pilot,2022.1.3,Win32,60.80875646,62bbe60bf3d75ef465d3e404,0,114,114,146,1,twoone,,,,,,,,,,,,,,,,,,,,,,,,,,,,,,,,,,,,,,,,,,,,,,,,,,,,,,,,,,,,,,,,,,,,,,,,,,,,,,,,,,,,,,,,,,,,,,,,,,,,,,,,,,,,,,,,,,,,,,,,,,,,,,,,,,,,,,,,,,,,,,,,,,,,,,,,
,,,,,,617028061465253b03b9aabb,62bbf940f649107dbe48ed39,2022-06-29_09h06.54.322,Colour_Asymmetry_Pilot,2022.1.3,Win32,60.80875646,62bbe60bf3d75ef465d3e404,0,115,115,134,1,fourtwo,,,,,,,,,,,,,,,,,,,,,,,,,,,,,,,,,,,,,,,,,,,,,,,,,,,,,,,,,,,,,,,,,,,,,,,,,,,,,,,,,,,,,,,,,,,,,,,,,,,,,,,,,,,,,,,,,,,,,,,,,,,,,,,,,,,,,,,,,,,,,,,,,,,,,,,,
,,,,,,617028061465253b03b9aabb,62bbf940f649107dbe48ed39,2022-06-29_09h06.54.322,Colour_Asymmetry_Pilot,2022.1.3,Win32,60.80875646,62bbe60bf3d75ef465d3e404,0,116,116,36,1,threeone,,,,,,,,,,,,,,,,,,,,,,,,,,,,,,,,,,,,,,,,,,,,,,,,,,,,,,,,,,,,,,,,,,,,,,,,,,,,,,,,,,,,,,,,,,,,,,,,,,,,,,,,,,,,,,,,,,,,,,,,,,,,,,,,,,,,,,,,,,,,,,,,,,,,,,,,
,,,,,,617028061465253b03b9aabb,62bbf940f649107dbe48ed39,2022-06-29_09h06.54.322,Colour_Asymmetry_Pilot,2022.1.3,Win32,60.80875646,62bbe60bf3d75ef465d3e404,0,117,117,117,1,threefour,,,,,,,,,,,,,,,,,,,,,,,,,,,,,,,,,,,,,,,,,,,,,,,,,,,,,,,,,,,,,,,,,,,,,,,,,,,,,,,,,,,,,,,,,,,,,,,,,,,,,,,,,,,,,,,,,,,,,,,,,,,,,,,,,,,,,,,,,,,,,,,,,,,,,,,,
,,,,,,617028061465253b03b9aabb,62bbf940f649107dbe48ed39,2022-06-29_09h06.54.322,Colour_Asymmetry_Pilot,2022.1.3,Win32,60.80875646,62bbe60bf3d75ef465d3e404,0,118,118,3,1,twofour,,,,,,,,,,,,,,,,,,,,,,,,,,,,,,,,,,,,,,,,,,,,,,,,,,,,,,,,,,,,,,,,,,,,,,,,,,,,,,,,,,,,,,,,,,,,,,,,,,,,,,,,,,,,,,,,,,,,,,,,,,,,,,,,,,,,,,,,,,,,,,,,,,,,,,,,
,,,,,,617028061465253b03b9aabb,62bbf940f649107dbe48ed39,2022-06-29_09h06.54.322,Colour_Asymmetry_Pilot,2022.1.3,Win32,60.80875646,62bbe60bf3d75ef465d3e404,0,119,119,142,1,fourtwo,,,,,,,,,,,,,,,,,,,,,,,,,,,,,,,,,,,,,,,,,,,,,,,,,,,,,,,,,,,,,,,,,,,,,,,,,,,,,,,,,,,,,,,,,,,,,,,,,,,,,,,,,,,,,,,,,,,,,,,,,,,,,,,,,,,,,,,,,,,,,,,,,,,,,,,,
,,,,,,617028061465253b03b9aabb,62bbf940f649107dbe48ed39,2022-06-29_09h06.54.322,Colour_Asymmetry_Pilot,2022.1.3,Win32,60.80875646,62bbe60bf3d75ef465d3e404,0,120,120,59,1,twofour,,,,,,,,,,,,,,,,,,,,,,,,,,,,,,,,,,,,,,,,,,,,,,,,,,,,,,,,,,,,,,,,,,,,,,,,,,,,,,,,,,,,,,,,,,,,,,,,,,,,,,,,,,,,,,,,,,,,,,,,,,,,,,,,,,,,,,,,,,,,,,,,,,,,,,,,
,,,,,,617028061465253b03b9aabb,62bbf940f649107dbe48ed39,2022-06-29_09h06.54.322,Colour_Asymmetry_Pilot,2022.1.3,Win32,60.80875646,62bbe60bf3d75ef465d3e404,0,121,121,5,1,threefour,,,,,,,,,,,,,,,,,,,,,,,,,,,,,,,,,,,,,,,,,,,,,,,,,,,,,,,,,,,,,,,,,,,,,,,,,,,,,,,,,,,,,,,,,,,,,,,,,,,,,,,,,,,,,,,,,,,,,,,,,,,,,,,,,,,,,,,,,,,,,,,,,,,,,,,,
,,,,,,617028061465253b03b9aabb,62bbf940f649107dbe48ed39,2022-06-29_09h06.54.322,Colour_Asymmetry_Pilot,2022.1.3,Win32,60.80875646,62bbe60bf3d75ef465d3e404,0,122,122,126,1,fourtwo,,,,,,,,,,,,,,,,,,,,,,,,,,,,,,,,,,,,,,,,,,,,,,,,,,,,,,,,,,,,,,,,,,,,,,,,,,,,,,,,,,,,,,,,,,,,,,,,,,,,,,,,,,,,,,,,,,,,,,,,,,,,,,,,,,,,,,,,,,,,,,,,,,,,,,,,
,,,,,,617028061465253b03b9aabb,62bbf940f649107dbe48ed39,2022-06-29_09h06.54.322,Colour_Asymmetry_Pilot,2022.1.3,Win32,60.80875646,62bbe60bf3d75ef465d3e404,0,123,123,100,1,threeone,,,,,,,,,,,,,,,,,,,,,,,,,,,,,,,,,,,,,,,,,,,,,,,,,,,,,,,,,,,,,,,,,,,,,,,,,,,,,,,,,,,,,,,,,,,,,,,,,,,,,,,,,,,,,,,,,,,,,,,,,,,,,,,,,,,,,,,,,,,,,,,,,,,,,,,,
,,,,,,617028061465253b03b9aabb,62bbf940f649107dbe48ed39,2022-06-29_09h06.54.322,Colour_Asymmetry_Pilot,2022.1.3,Win32,60.80875646,62bbe60bf3d75ef465d3e404,0,124,124,111,1,fourthree,,,,,,,,,,,,,,,,,,,,,,,,,,,,,,,,,,,,,,,,,,,,,,,,,,,,,,,,,,,,,,,,,,,,,,,,,,,,,,,,,,,,,,,,,,,,,,,,,,,,,,,,,,,,,,,,,,,,,,,,,,,,,,,,,,,,,,,,,,,,,,,,,,,,,,,,
,,,,,,617028061465253b03b9aabb,62bbf940f649107dbe48ed39,2022-06-29_09h06.54.322,Colour_Asymmetry_Pilot,2022.1.3,Win32,60.80875646,62bbe60bf3d75ef465d3e404,0,125,125,46,1,fourtwo,,,,,,,,,,,,,,,,,,,,,,,,,,,,,,,,,,,,,,,,,,,,,,,,,,,,,,,,,,,,,,,,,,,,,,,,,,,,,,,,,,,,,,,,,,,,,,,,,,,,,,,,,,,,,,,,,,,,,,,,,,,,,,,,,,,,,,,,,,,,,,,,,,,,,,,,
,,,,,,617028061465253b03b9aabb,62bbf940f649107dbe48ed39,2022-06-29_09h06.54.322,Colour_Asymmetry_Pilot,2022.1.3,Win32,60.80875646,62bbe60bf3d75ef465d3e404,0,126,126,82,1,twoone,,,,,,,,,,,,,,,,,,,,,,,,,,,,,,,,,,,,,,,,,,,,,,,,,,,,,,,,,,,,,,,,,,,,,,,,,,,,,,,,,,,,,,,,,,,,,,,,,,,,,,,,,,,,,,,,,,,,,,,,,,,,,,,,,,,,,,,,,,,,,,,,,,,,,,,,
,,,,,,617028061465253b03b9aabb,62bbf940f649107dbe48ed39,2022-06-29_09h06.54.322,Colour_Asymmetry_Pilot,2022.1.3,Win32,60.80875646,62bbe60bf3d75ef465d3e404,0,127,127,69,1,threefour,,,,,,,,,,,,,,,,,,,,,,,,,,,,,,,,,,,,,,,,,,,,,,,,,,,,,,,,,,,,,,,,,,,,,,,,,,,,,,,,,,,,,,,,,,,,,,,,,,,,,,,,,,,,,,,,,,,,,,,,,,,,,,,,,,,,,,,,,,,,,,,,,,,,,,,,
,,,,,,617028061465253b03b9aabb,62bbf940f649107dbe48ed39,2022-06-29_09h06.54.322,Colour_Asymmetry_Pilot,2022.1.3,Win32,60.80875646,62bbe60bf3d75ef465d3e404,0,128,128,64,1,onetwo,,,,,,,,,,,,,,,,,,,,,,,,,,,,,,,,,,,,,,,,,,,,,,,,,,,,,,,,,,,,,,,,,,,,,,,,,,,,,,,,,,,,,,,,,,,,,,,,,,,,,,,,,,,,,,,,,,,,,,,,,,,,,,,,,,,,,,,,,,,,,,,,,,,,,,,,
,,,,,,617028061465253b03b9aabb,62bbf940f649107dbe48ed39,2022-06-29_09h06.54.322,Colour_Asymmetry_Pilot,2022.1.3,Win32,60.80875646,62bbe60bf3d75ef465d3e404,0,129,129,79,1,fourthree,,,,,,,,,,,,,,,,,,,,,,,,,,,,,,,,,,,,,,,,,,,,,,,,,,,,,,,,,,,,,,,,,,,,,,,,,,,,,,,,,,,,,,,,,,,,,,,,,,,,,,,,,,,,,,,,,,,,,,,,,,,,,,,,,,,,,,,,,,,,,,,,,,,,,,,,
,,,,,,617028061465253b03b9aabb,62bbf940f649107dbe48ed39,2022-06-29_09h06.54.322,Colour_Asymmetry_Pilot,2022.1.3,Win32,60.80875646,62bbe60bf3d75ef465d3e404,0,130,130,19,1,twofour,,,,,,,,,,,,,,,,,,,,,,,,,,,,,,,,,,,,,,,,,,,,,,,,,,,,,,,,,,,,,,,,,,,,,,,,,,,,,,,,,,,,,,,,,,,,,,,,,,,,,,,,,,,,,,,,,,,,,,,,,,,,,,,,,,,,,,,,,,,,,,,,,,,,,,,,
,,,,,,617028061465253b03b9aabb,62bbf940f649107dbe48ed39,2022-06-29_09h06.54.322,Colour_Asymmetry_Pilot,2022.1.3,Win32,60.80875646,62bbe60bf3d75ef465d3e404,0,131,131,27,1,twofour,,,,,,,,,,,,,,,,,,,,,,,,,,,,,,,,,,,,,,,,,,,,,,,,,,,,,,,,,,,,,,,,,,,,,,,,,,,,,,,,,,,,,,,,,,,,,,,,,,,,,,,,,,,,,,,,,,,,,,,,,,,,,,,,,,,,,,,,,,,,,,,,,,,,,,,,
,,,,,,617028061465253b03b9aabb,62bbf940f649107dbe48ed39,2022-06-29_09h06.54.322,Colour_Asymmetry_Pilot,2022.1.3,Win32,60.80875646,62bbe60bf3d75ef465d3e404,0,132,132,38,1,fourtwo,,,,,,,,,,,,,,,,,,,,,,,,,,,,,,,,,,,,,,,,,,,,,,,,,,,,,,,,,,,,,,,,,,,,,,,,,,,,,,,,,,,,,,,,,,,,,,,,,,,,,,,,,,,,,,,,,,,,,,,,,,,,,,,,,,,,,,,,,,,,,,,,,,,,,,,,
,,,,,,617028061465253b03b9aabb,62bbf940f649107dbe48ed39,2022-06-29_09h06.54.322,Colour_Asymmetry_Pilot,2022.1.3,Win32,60.80875646,62bbe60bf3d75ef465d3e404,0,133,133,114,1,twoone,,,,,,,,,,,,,,,,,,,,,,,,,,,,,,,,,,,,,,,,,,,,,,,,,,,,,,,,,,,,,,,,,,,,,,,,,,,,,,,,,,,,,,,,,,,,,,,,,,,,,,,,,,,,,,,,,,,,,,,,,,,,,,,,,,,,,,,,,,,,,,,,,,,,,,,,
,,,,,,617028061465253b03b9aabb,62bbf940f649107dbe48ed39,2022-06-29_09h06.54.322,Colour_Asymmetry_Pilot,2022.1.3,Win32,60.80875646,62bbe60bf3d75ef465d3e404,0,134,134,21,1,threefour,,,,,,,,,,,,,,,,,,,,,,,,,,,,,,,,,,,,,,,,,,,,,,,,,,,,,,,,,,,,,,,,,,,,,,,,,,,,,,,,,,,,,,,,,,,,,,,,,,,,,,,,,,,,,,,,,,,,,,,,,,,,,,,,,,,,,,,,,,,,,,,,,,,,,,,,
,,,,,,617028061465253b03b9aabb,62bbf940f649107dbe48ed39,2022-06-29_09h06.54.322,Colour_Asymmetry_Pilot,2022.1.3,Win32,60.80875646,62bbe60bf3d75ef465d3e404,0,135,135,150,1,fourtwo,,,,,,,,,,,,,,,,,,,,,,,,,,,,,,,,,,,,,,,,,,,,,,,,,,,,,,,,,,,,,,,,,,,,,,,,,,,,,,,,,,,,,,,,,,,,,,,,,,,,,,,,,,,,,,,,,,,,,,,,,,,,,,,,,,,,,,,,,,,,,,,,,,,,,,,,
,,,,,,617028061465253b03b9aabb,62bbf940f649107dbe48ed39,2022-06-29_09h06.54.322,Colour_Asymmetry_Pilot,2022.1.3,Win32,60.80875646,62bbe60bf3d75ef465d3e404,0,136,136,18,1,twoone,,,,,,,,,,,,,,,,,,,,,,,,,,,,,,,,,,,,,,,,,,,,,,,,,,,,,,,,,,,,,,,,,,,,,,,,,,,,,,,,,,,,,,,,,,,,,,,,,,,,,,,,,,,,,,,,,,,,,,,,,,,,,,,,,,,,,,,,,,,,,,,,,,,,,,,,
,,,,,,617028061465253b03b9aabb,62bbf940f649107dbe48ed39,2022-06-29_09h06.54.322,Colour_Asymmetry_Pilot,2022.1.3,Win32,60.80875646,62bbe60bf3d75ef465d3e404,0,137,137,109,1,threefour,,,,,,,,,,,,,,,,,,,,,,,,,,,,,,,,,,,,,,,,,,,,,,,,,,,,,,,,,,,,,,,,,,,,,,,,,,,,,,,,,,,,,,,,,,,,,,,,,,,,,,,,,,,,,,,,,,,,,,,,,,,,,,,,,,,,,,,,,,,,,,,,,,,,,,,,
,,,,,,617028061465253b03b9aabb,62bbf940f649107dbe48ed39,2022-06-29_09h06.54.322,Colour_Asymmetry_Pilot,2022.1.3,Win32,60.80875646,62bbe60bf3d75ef465d3e404,0,138,138,86,1,fourtwo,,,,,,,,,,,,,,,,,,,,,,,,,,,,,,,,,,,,,,,,,,,,,,,,,,,,,,,,,,,,,,,,,,,,,,,,,,,,,,,,,,,,,,,,,,,,,,,,,,,,,,,,,,,,,,,,,,,,,,,,,,,,,,,,,,,,,,,,,,,,,,,,,,,,,,,,
,,,,,,617028061465253b03b9aabb,62bbf940f649107dbe48ed39,2022-06-29_09h06.54.322,Colour_Asymmetry_Pilot,2022.1.3,Win32,60.80875646,62bbe60bf3d75ef465d3e404,0,139,139,151,1,fourthree,,,,,,,,,,,,,,,,,,,,,,,,,,,,,,,,,,,,,,,,,,,,,,,,,,,,,,,,,,,,,,,,,,,,,,,,,,,,,,,,,,,,,,,,,,,,,,,,,,,,,,,,,,,,,,,,,,,,,,,,,,,,,,,,,,,,,,,,,,,,,,,,,,,,,,,,
,,,,,,617028061465253b03b9aabb,62bbf940f649107dbe48ed39,2022-06-29_09h06.54.322,Colour_Asymmetry_Pilot,2022.1.3,Win32,60.80875646,62bbe60bf3d75ef465d3e404,0,140,140,133,1,threefour,,,,,,,,,,,,,,,,,,,,,,,,,,,,,,,,,,,,,,,,,,,,,,,,,,,,,,,,,,,,,,,,,,,,,,,,,,,,,,,,,,,,,,,,,,,,,,,,,,,,,,,,,,,,,,,,,,,,,,,,,,,,,,,,,,,,,,,,,,,,,,,,,,,,,,,,
,,,,,,617028061465253b03b9aabb,62bbf940f649107dbe48ed39,2022-06-29_09h06.54.322,Colour_Asymmetry_Pilot,2022.1.3,Win32,60.80875646,62bbe60bf3d75ef465d3e404,0,141,141,143,1,fourthree,,,,,,,,,,,,,,,,,,,,,,,,,,,,,,,,,,,,,,,,,,,,,,,,,,,,,,,,,,,,,,,,,,,,,,,,,,,,,,,,,,,,,,,,,,,,,,,,,,,,,,,,,,,,,,,,,,,,,,,,,,,,,,,,,,,,,,,,,,,,,,,,,,,,,,,,
,,,,,,617028061465253b03b9aabb,62bbf940f649107dbe48ed39,2022-06-29_09h06.54.322,Colour_Asymmetry_Pilot,2022.1.3,Win32,60.80875646,62bbe60bf3d75ef465d3e404,0,142,142,130,1,twoone,,,,,,,,,,,,,,,,,,,,,,,,,,,,,,,,,,,,,,,,,,,,,,,,,,,,,,,,,,,,,,,,,,,,,,,,,,,,,,,,,,,,,,,,,,,,,,,,,,,,,,,,,,,,,,,,,,,,,,,,,,,,,,,,,,,,,,,,,,,,,,,,,,,,,,,,
,,,,,,617028061465253b03b9aabb,62bbf940f649107dbe48ed39,2022-06-29_09h06.54.322,Colour_Asymmetry_Pilot,2022.1.3,Win32,60.80875646,62bbe60bf3d75ef465d3e404,0,143,143,153,1,onethree,,,,,,,,,,,,,,,,,,,,,,,,,,,,,,,,,,,,,,,,,,,,,,,,,,,,,,,,,,,,,,,,,,,,,,,,,,,,,,,,,,,,,,,,,,,,,,,,,,,,,,,,,,,,,,,,,,,,,,,,,,,,,,,,,,,,,,,,,,,,,,,,,,,,,,,,
,,,,,,617028061465253b03b9aabb,62bbf940f649107dbe48ed39,2022-06-29_09h06.54.322,Colour_Asymmetry_Pilot,2022.1.3,Win32,60.80875646,62bbe60bf3d75ef465d3e404,0,144,144,118,1,fourtwo,,,,,,,,,,,,,,,,,,,,,,,,,,,,,,,,,,,,,,,,,,,,,,,,,,,,,,,,,,,,,,,,,,,,,,,,,,,,,,,,,,,,,,,,,,,,,,,,,,,,,,,,,,,,,,,,,,,,,,,,,,,,,,,,,,,,,,,,,,,,,,,,,,,,,,,,
,,,,,,617028061465253b03b9aabb,62bbf940f649107dbe48ed39,2022-06-29_09h06.54.322,Colour_Asymmetry_Pilot,2022.1.3,Win32,60.80875646,62bbe60bf3d75ef465d3e404,0,145,145,160,1,onetwo,,,,,,,,,,,,,,,,,,,,,,,,,,,,,,,,,,,,,,,,,,,,,,,,,,,,,,,,,,,,,,,,,,,,,,,,,,,,,,,,,,,,,,,,,,,,,,,,,,,,,,,,,,,,,,,,,,,,,,,,,,,,,,,,,,,,,,,,,,,,,,,,,,,,,,,,
,,,,,,617028061465253b03b9aabb,62bbf940f649107dbe48ed39,2022-06-29_09h06.54.322,Colour_Asymmetry_Pilot,2022.1.3,Win32,60.80875646,62bbe60bf3d75ef465d3e404,0,146,146,103,1,fourthree,,,,,,,,,,,,,,,,,,,,,,,,,,,,,,,,,,,,,,,,,,,,,,,,,,,,,,,,,,,,,,,,,,,,,,,,,,,,,,,,,,,,,,,,,,,,,,,,,,,,,,,,,,,,,,,,,,,,,,,,,,,,,,,,,,,,,,,,,,,,,,,,,,,,,,,,
,,,,,,617028061465253b03b9aabb,62bbf940f649107dbe48ed39,2022-06-29_09h06.54.322,Colour_Asymmetry_Pilot,2022.1.3,Win32,60.80875646,62bbe60bf3d75ef465d3e404,0,147,147,121,1,onethree,,,,,,,,,,,,,,,,,,,,,,,,,,,,,,,,,,,,,,,,,,,,,,,,,,,,,,,,,,,,,,,,,,,,,,,,,,,,,,,,,,,,,,,,,,,,,,,,,,,,,,,,,,,,,,,,,,,,,,,,,,,,,,,,,,,,,,,,,,,,,,,,,,,,,,,,
,,,,,,617028061465253b03b9aabb,62bbf940f649107dbe48ed39,2022-06-29_09h06.54.322,Colour_Asymmetry_Pilot,2022.1.3,Win32,60.80875646,62bbe60bf3d75ef465d3e404,0,148,148,23,1,fourthree,,,,,,,,,,,,,,,,,,,,,,,,,,,,,,,,,,,,,,,,,,,,,,,,,,,,,,,,,,,,,,,,,,,,,,,,,,,,,,,,,,,,,,,,,,,,,,,,,,,,,,,,,,,,,,,,,,,,,,,,,,,,,,,,,,,,,,,,,,,,,,,,,,,,,,,,
,,,,,,617028061465253b03b9aabb,62bbf940f649107dbe48ed39,2022-06-29_09h06.54.322,Colour_Asymmetry_Pilot,2022.1.3,Win32,60.80875646,62bbe60bf3d75ef465d3e404,0,149,149,83,1,twofour,,,,,,,,,,,,,,,,,,,,,,,,,,,,,,,,,,,,,,,,,,,,,,,,,,,,,,,,,,,,,,,,,,,,,,,,,,,,,,,,,,,,,,,,,,,,,,,,,,,,,,,,,,,,,,,,,,,,,,,,,,,,,,,,,,,,,,,,,,,,,,,,,,,,,,,,
,,,,,,617028061465253b03b9aabb,62bbf940f649107dbe48ed39,2022-06-29_09h06.54.322,Colour_Asymmetry_Pilot,2022.1.3,Win32,60.80875646,62bbe60bf3d75ef465d3e404,0,150,150,124,1,threeone,,,,,,,,,,,,,,,,,,,,,,,,,,,,,,,,,,,,,,,,,,,,,,,,,,,,,,,,,,,,,,,,,,,,,,,,,,,,,,,,,,,,,,,,,,,,,,,,,,,,,,,,,,,,,,,,,,,,,,,,,,,,,,,,,,,,,,,,,,,,,,,,,,,,,,,,
,,,,,,617028061465253b03b9aabb,62bbf940f649107dbe48ed39,2022-06-29_09h06.54.322,Colour_Asymmetry_Pilot,2022.1.3,Win32,60.80875646,62bbe60bf3d75ef465d3e404,0,151,151,157,1,threefour,,,,,,,,,,,,,,,,,,,,,,,,,,,,,,,,,,,,,,,,,,,,,,,,,,,,,,,,,,,,,,,,,,,,,,,,,,,,,,,,,,,,,,,,,,,,,,,,,,,,,,,,,,,,,,,,,,,,,,,,,,,,,,,,,,,,,,,,,,,,,,,,,,,,,,,,
,,,,,,617028061465253b03b9aabb,62bbf940f649107dbe48ed39,2022-06-29_09h06.54.322,Colour_Asymmetry_Pilot,2022.1.3,Win32,60.80875646,62bbe60bf3d75ef465d3e404,0,152,152,85,1,threefour,,,,,,,,,,,,,,,,,,,,,,,,,,,,,,,,,,,,,,,,,,,,,,,,,,,,,,,,,,,,,,,,,,,,,,,,,,,,,,,,,,,,,,,,,,,,,,,,,,,,,,,,,,,,,,,,,,,,,,,,,,,,,,,,,,,,,,,,,,,,,,,,,,,,,,,,
,,,,,,617028061465253b03b9aabb,62bbf940f649107dbe48ed39,2022-06-29_09h06.54.322,Colour_Asymmetry_Pilot,2022.1.3,Win32,60.80875646,62bbe60bf3d75ef465d3e404,0,153,153,55,1,fourthree,,,,,,,,,,,,,,,,,,,,,,,,,,,,,,,,,,,,,,,,,,,,,,,,,,,,,,,,,,,,,,,,,,,,,,,,,,,,,,,,,,,,,,,,,,,,,,,,,,,,,,,,,,,,,,,,,,,,,,,,,,,,,,,,,,,,,,,,,,,,,,,,,,,,,,,,
,,,,,,617028061465253b03b9aabb,62bbf940f649107dbe48ed39,2022-06-29_09h06.54.322,Colour_Asymmetry_Pilot,2022.1.3,Win32,60.80875646,62bbe60bf3d75ef465d3e404,0,154,154,68,1,threeone,,,,,,,,,,,,,,,,,,,,,,,,,,,,,,,,,,,,,,,,,,,,,,,,,,,,,,,,,,,,,,,,,,,,,,,,,,,,,,,,,,,,,,,,,,,,,,,,,,,,,,,,,,,,,,,,,,,,,,,,,,,,,,,,,,,,,,,,,,,,,,,,,,,,,,,,
,,,,,,617028061465253b03b9aabb,62bbf940f649107dbe48ed39,2022-06-29_09h06.54.322,Colour_Asymmetry_Pilot,2022.1.3,Win32,60.80875646,62bbe60bf3d75ef465d3e404,0,155,155,12,1,threeone,,,,,,,,,,,,,,,,,,,,,,,,,,,,,,,,,,,,,,,,,,,,,,,,,,,,,,,,,,,,,,,,,,,,,,,,,,,,,,,,,,,,,,,,,,,,,,,,,,,,,,,,,,,,,,,,,,,,,,,,,,,,,,,,,,,,,,,,,,,,,,,,,,,,,,,,
,,,,,,617028061465253b03b9aabb,62bbf940f649107dbe48ed39,2022-06-29_09h06.54.322,Colour_Asymmetry_Pilot,2022.1.3,Win32,60.80875646,62bbe60bf3d75ef465d3e404,0,156,156,139,1,twofour,,,,,,,,,,,,,,,,,,,,,,,,,,,,,,,,,,,,,,,,,,,,,,,,,,,,,,,,,,,,,,,,,,,,,,,,,,,,,,,,,,,,,,,,,,,,,,,,,,,,,,,,,,,,,,,,,,,,,,,,,,,,,,,,,,,,,,,,,,,,,,,,,,,,,,,,
,,,,,,617028061465253b03b9aabb,62bbf940f649107dbe48ed39,2022-06-29_09h06.54.322,Colour_Asymmetry_Pilot,2022.1.3,Win32,60.80875646,62bbe60bf3d75ef465d3e404,0,157,157,129,1,onethree,,,,,,,,,,,,,,,,,,,,,,,,,,,,,,,,,,,,,,,,,,,,,,,,,,,,,,,,,,,,,,,,,,,,,,,,,,,,,,,,,,,,,,,,,,,,,,,,,,,,,,,,,,,,,,,,,,,,,,,,,,,,,,,,,,,,,,,,,,,,,,,,,,,,,,,,
,,,,,,617028061465253b03b9aabb,62bbf940f649107dbe48ed39,2022-06-29_09h06.54.322,Colour_Asymmetry_Pilot,2022.1.3,Win32,60.80875646,62bbe60bf3d75ef465d3e404,0,158,158,108,1,threeone,,,,,,,,,,,,,,,,,,,,,,,,,,,,,,,,,,,,,,,,,,,,,,,,,,,,,,,,,,,,,,,,,,,,,,,,,,,,,,,,,,,,,,,,,,,,,,,,,,,,,,,,,,,,,,,,,,,,,,,,,,,,,,,,,,,,,,,,,,,,,,,,,,,,,,,,
,,,,,,617028061465253b03b9aabb,62bbf940f649107dbe48ed39,2022-06-29_09h06.54.322,Colour_Asymmetry_Pilot,2022.1.3,Win32,60.80875646,62bbe60bf3d75ef465d3e404,0,159,159,115,1,twofour,,,,,,,,,,,,,,,,,,,,,,,,,,,,,,,,,,,,,,,,,,,,,,,,,,,,,,,,,,,,,,,,,,,,,,,,,,,,,,,,,,,,,,,,,,,,,,,,,,,,,,,,,,,,,,,,,,,,,,,,,,,,,,,,,,,,,,,,,,,,,,,,,,,,,,,,
,,,,,,617028061465253b03b9aabb,62bbf940f649107dbe48ed39,2022-06-29_09h06.54.322,Colour_Asymmetry_Pilot,2022.1.3,Win32,60.80875646,62bbe60bf3d75ef465d3e404,0,160,160,94,1,fourtwo,,,,,,,,,,,,,,,,,,,,,,,,,,,,,,,,,,,,,,,,,,,,,,,,,,,,,,,,,,,,,,,,,,,,,,,,,,,,,,,,,,,,,,,,,,,,,,,,,,,,,,,,,,,,,,,,,,,,,,,,,,,,,,,,,,,,,,,,,,,,,,,,,,,,,,,,
,,,,,,617028061465253b03b9aabb,62bbf940f649107dbe48ed39,2022-06-29_09h06.54.322,Colour_Asymmetry_Pilot,2022.1.3,Win32,60.80875646,62bbe60bf3d75ef465d3e404,0,161,161,92,1,threeone,,,,,,,,,,,,,,,,,,,,,,,,,,,,,,,,,,,,,,,,,,,,,,,,,,,,,,,,,,,,,,,,,,,,,,,,,,,,,,,,,,,,,,,,,,,,,,,,,,,,,,,,,,,,,,,,,,,,,,,,,,,,,,,,,,,,,,,,,,,,,,,,,,,,,,,,
,,,,,,617028061465253b03b9aabb,62bbf940f649107dbe48ed39,2022-06-29_09h06.54.322,Colour_Asymmetry_Pilot,2022.1.3,Win32,60.80875646,62bbe60bf3d75ef465d3e404,,,,,,,space,7.847,space,11.4656,space,44.3477,space,10.9227,space,5.5012,space,12.3209,"[0.3802000000000001,0.19199999999999995,-0.6394]",twofour,"[-0.10599999999999998,-0.10599999999999998,0.5841999999999998]",4,3.648,60,105,1,0,0,response1disk_5,-12,-5,1,0,0,rectangle_8,-12,-5,1,0,0,2,-12,-5,1,0,0,0,0,0,0,1,,,,,,,,,,,,,,,,,,,,,,,,,,,,,,,,,,,,,,,,,,,,,,,,,,,,,,,,,,,,,,,,,,,,,,,,,,,,,,,,,,,,,,,,,,,,,,,,,,,,,,,,,,,
,,,,,,617028061465253b03b9aabb,62bbf940f649107dbe48ed39,2022-06-29_09h06.54.322,Colour_Asymmetry_Pilot,2022.1.3,Win32,60.80875646,62bbe60bf3d75ef465d3e404,,,,,,,,,,,,,,,,,,,"[0.37240000000000006,-0.050999999999999934,-0.5216]",fourtwo,"[-0.5688,-0.08239999999999992,-0.1844]",-4,2.3987,-49,62,1,0,0,response7disk_5,19,-1,1,0,0,rectangle_8,19,-1,1,0,0,2,19,-1,1,0,0,1,0,1,0,1,,,,,,,,,,,,,,,,,,,,,,,,,,,,,,,,,,,,,,,,,,,,,,,,,,,,,,,,,,,,,,,,,,,,,,,,,,,,,,,,,,,,,,,,,,,,,,,,,,,,,,,,,,,
,,,,,,617028061465253b03b9aabb,62bbf940f649107dbe48ed39,2022-06-29_09h06.54.322,Colour_Asymmetry_Pilot,2022.1.3,Win32,60.80875646,62bbe60bf3d75ef465d3e404,,,,,,,,,,,,,,,,,,,"[-0.5452,-0.608,0.2470000000000001]",twofour,"[0.19199999999999995,0.18419999999999992,0.5136000000000001]",4,1.3188,40,75,1,0,0,response1disk_5,12,-5,1,0,0,rectangle_8,12,-5,1,0,0,2,12,-5,1,0,0,2,0,2,0,1,,,,,,,,,,,,,,,,,,,,,,,,,,,,,,,,,,,,,,,,,,,,,,,,,,,,,,,,,,,,,,,,,,,,,,,,,,,,,,,,,,,,,,,,,,,,,,,,,,,,,,,,,,,
,,,,,,617028061465253b03b9aabb,62bbf940f649107dbe48ed39,2022-06-29_09h06.54.322,Colour_Asymmetry_Pilot,2022.1.3,Win32,60.80875646,62bbe60bf3d75ef465d3e404,,,,,,,,,,,,,,,,,,,"[0.18419999999999992,-0.4276,-0.404]",onetwo,"[0.3881999999999999,-0.23939999999999995,-0.05040000000000011]",4,1.1003,45,64,1,0,0,response1disk_5,17,3,1,0,0,rectangle_8,17,3,1,0,0,2,17,3,1,0,0,3,0,3,0,1,,,,,,,,,,,,,,,,,,,,,,,,,,,,,,,,,,,,,,,,,,,,,,,,,,,,,,,,,,,,,,,,,,,,,,,,,,,,,,,,,,,,,,,,,,,,,,,,,,,,,,,,,,,
,,,,,,617028061465253b03b9aabb,62bbf940f649107dbe48ed39,2022-06-29_09h06.54.322,Colour_Asymmetry_Pilot,2022.1.3,Win32,60.80875646,62bbe60bf3d75ef465d3e404,,,,,,,,,,,,,,,,,,,"[-0.10599999999999998,-0.15300000000000002,0.15280000000000005]",fourthree,"[0.09799999999999986,-0.24719999999999998,0.15280000000000005]",4,1.2655,26,74,1,0,0,response1disk_5,17,1,1,0,0,rectangle_8,84,-41,1,0,0,2,2,-2,1,0,0,4,0,4,0,1,response3disk_7,5,rectangle_4,,,,,,,,,,,,,,,,,,,,,,,,,,,,,,,,,,,,,,,,,,,,,,,,,,,,,,,,,,,,,,,,,,,,,,,,,,,,,,,,,,,,,,,,,,,,,,,,,,,,,,,,
,,,,,,617028061465253b03b9aabb,62bbf940f649107dbe48ed39,2022-06-29_09h06.54.322,Colour_Asymmetry_Pilot,2022.1.3,Win32,60.80875646,62bbe60bf3d75ef465d3e404,,,,,,,,,,,,,,,,,,,"[0.796,0.2156,-0.27859999999999996]",onetwo,"[0.9763999999999999,0.8588,-0.05900000000000005]",4,3.1176,43,78,1,0,0,response1disk_5,4,-7,1,0,0,rectangle_8,4,-7,1,0,0,2,4,-7,1,0,0,5,0,5,0,1,,,,,,,,,,,,,,,,,,,,,,,,,,,,,,,,,,,,,,,,,,,,,,,,,,,,,,,,,,,,,,,,,,,,,,,,,,,,,,,,,,,,,,,,,,,,,,,,,,,,,,,,,,,
,,,,,,617028061465253b03b9aabb,62bbf940f649107dbe48ed39,2022-06-29_09h06.54.322,Colour_Asymmetry_Pilot,2022.1.3,Win32,60.80875646,62bbe60bf3d75ef465d3e404,,,,,,,,,,,,,,,,,,,"[0.796,0.2156,-0.27859999999999996]",threeone,"[0.9763999999999999,-0.1137999999999999,-0.6314]",4,3.5836,40,91,1,0,0,response1disk_5,13,-1,1,0,0,rectangle_8,13,-1,1,0,0,2,13,-1,1,0,0,6,0,6,0,1,,,,,,,,,,,,,,,,,,,,,,,,,,,,,,,,,,,,,,,,,,,,,,,,,,,,,,,,,,,,,,,,,,,,,,,,,,,,,,,,,,,,,,,,,,,,,,,,,,,,,,,,,,,
,,,,,,617028061465253b03b9aabb,62bbf940f649107dbe48ed39,2022-06-29_09h06.54.322,Colour_Asymmetry_Pilot,2022.1.3,Win32,60.80875646,62bbe60bf3d75ef465d3e404,,,,,,,,,,,,,,,,,,,,twofour,,4,0.7768,,,,,,,,,,,,,,,,,,,,,,,,,,,,,,,,space,7.2366,"[-0.9766,-0.6472,0.07440000000000002]","[-0.30200000000000005,0.14500000000000002,0.2784]",34,85,1,0,0,response1disk,-25,0,1,0,0,rectangle,-25,0,1,0,0,,1,0.0045,0,-25,0,1,0,0,0,0,0,134,1,53,second,,,,,,,,,,,,,,,,,,,,,,,,,,,,,,,,,,,,,,,,,,,,,,,,,,,,,,,,,,,,,,,,,,,
,,,,,,617028061465253b03b9aabb,62bbf940f649107dbe48ed39,2022-06-29_09h06.54.322,Colour_Asymmetry_Pilot,2022.1.3,Win32,60.80875646,62bbe60bf3d75ef465d3e404,,,,,,,,,,,,,,,,,,,,threeone,,4,1.0365,,,,,,,,,,,,,,,,,,,,,,,,,,,,,,,,,,"[-0.20799999999999996,-0.655,-0.01980000000000004]","[-0.20799999999999996,-0.655,-0.01980000000000004]",27,85,1,0,0,response1disk,-2,-1,1,0,0,rectangle,-2,-1,1,0,0,,2,0.0022,0,-2,-1,1,0,0,0,1,1,16,1,16,first,,,,,,,,,,,,,,,,,,,,,,,,,,,,,,,,,,,,,,,,,,,,,,,,,,,,,,,,,,,,,,,,,,,
,,,,,,617028061465253b03b9aabb,62bbf940f649107dbe48ed39,2022-06-29_09h06.54.322,Colour_Asymmetry_Pilot,2022.1.3,Win32,60.80875646,62bbe60bf3d75ef465d3e404,,,,,,,,,,,,,,,,,,,,twoone,,4,0.7686,,,,,,,,,,,,,,,,,,,,,,,,,,,,,,,,,,"[-0.6235999999999999,-0.6786,-0.08239999999999992]","[-0.10599999999999998,-0.10599999999999998,0.5841999999999998]",34,84,1,0,0,response1disk,12,-4,1,0,0,rectangle,12,-4,1,0,0,,1,0.0027,0,12,-4,1,0,0,0,2,2,52,1,52,first,,,,,,,,,,,,,,,,,,,,,,,,,,,,,,,,,,,,,,,,,,,,,,,,,,,,,,,,,,,,,,,,,,,
,,,,,,617028061465253b03b9aabb,62bbf940f649107dbe48ed39,2022-06-29_09h06.54.322,Colour_Asymmetry_Pilot,2022.1.3,Win32,60.80875646,62bbe60bf3d75ef465d3e404,,,,,,,,,,,,,,,,,,,,onetwo,,4,0.616,,,,,,,,,,,,,,,,,,,,,,,,,,,,,,,,,,"[0.2862,0.7802,0.3568]","[-0.9296,-0.12959999999999994,-0.043199999999999905]",51,77,1,0,0,response1disk,20,1,1,0,0,rectangle,20,1,1,0,0,,2,0.0027,0,20,1,1,0,0,0,3,3,21,1,21,first,,,,,,,,,,,,,,,,,,,,,,,,,,,,,,,,,,,,,,,,,,,,,,,,,,,,,,,,,,,,,,,,,,,
,,,,,,617028061465253b03b9aabb,62bbf940f649107dbe48ed39,2022-06-29_09h06.54.322,Colour_Asymmetry_Pilot,2022.1.3,Win32,60.80875646,62bbe60bf3d75ef465d3e404,,,,,,,,,,,,,,,,,,,,onethree,,-4,0.7183,,,,,,,,,,,,,,,,,,,,,,,,,,,,,,,,,,"[0.8274000000000001,-0.5844,-0.9452]","[0.37240000000000006,0.4980000000000002,-0.2864]",-40,75,1,0,0,response7disk,-21,1,1,0,0,rectangle,-21,1,1,0,0,,1,0.0013,0,-21,1,1,0,0,0,4,4,68,1,68,first,,,,,,,,,,,,,,,,,,,,,,,,,,,,,,,,,,,,,,,,,,,,,,,,,,,,,,,,,,,,,,,,,,,
,,,,,,617028061465253b03b9aabb,62bbf940f649107dbe48ed39,2022-06-29_09h06.54.322,Colour_Asymmetry_Pilot,2022.1.3,Win32,60.80875646,62bbe60bf3d75ef465d3e404,,,,,,,,,,,,,,,,,,,,threeone,,-4,0.5989,,,,,,,,,,,,,,,,,,,,,,,,,,,,,,,,,,"[-0.9688,-0.4902000000000001,-0.12159999999999993]","[0.40379999999999994,0.09000000000000008,0.44300000000000006]",-32,67,1,0,0,response7disk,-9,1,1,0,0,rectangle,-9,1,1,0,0,,1,0.0002,0,-9,1,1,0,0,0,5,5,90,1,9,second,,,,,,,,,,,,,,,,,,,,,,,,,,,,,,,,,,,,,,,,,,,,,,,,,,,,,,,,,,,,,,,,,,,
,,,,,,617028061465253b03b9aabb,62bbf940f649107dbe48ed39,2022-06-29_09h06.54.322,Colour_Asymmetry_Pilot,2022.1.3,Win32,60.80875646,62bbe60bf3d75ef465d3e404,,,,,,,,,,,,,,,,,,,,twofour,,-4,0.4587,,,,,,,,,,,,,,,,,,,,,,,,,,,,,,,,,,"[-0.45899999999999996,-0.3256,-0.9374]","[-0.9688,-0.7412000000000001,-0.4902000000000001]",-40,60,1,0,0,response7disk,-18,2,1,0,0,rectangle,-18,2,1,0,0,,2,0.0028,0,-18,2,1,0,0,0,6,6,144,1,63,second,,,,,,,,,,,,,,,,,,,,,,,,,,,,,,,,,,,,,,,,,,,,,,,,,,,,,,,,,,,,,,,,,,,
,,,,,,617028061465253b03b9aabb,62bbf940f649107dbe48ed39,2022-06-29_09h06.54.322,Colour_Asymmetry_Pilot,2022.1.3,Win32,60.80875646,62bbe60bf3d75ef465d3e404,,,,,,,,,,,,,,,,,,,,onethree,,-4,0.8336,,,,,,,,,,,,,,,,,,,,,,,,,,,,,,,,,,"[-0.9688,-0.38039999999999996,-0.41979999999999995]","[0.3881999999999999,-0.23939999999999995,-0.05040000000000011]",-32,64,1,0,0,response7disk,-8,2,1,0,0,rectangle,-8,2,1,0,0,,2,0.0005,0,-8,2,1,0,0,0,7,7,88,1,7,second,,,,,,,,,,,,,,,,,,,,,,,,,,,,,,,,,,,,,,,,,,,,,,,,,,,,,,,,,,,,,,,,,,,
,,,,,,617028061465253b03b9aabb,62bbf940f649107dbe48ed39,2022-06-29_09h06.54.322,Colour_Asymmetry_Pilot,2022.1.3,Win32,60.80875646,62bbe60bf3d75ef465d3e404,,,,,,,,,,,,,,,,,,,,threeone,,-4,1.0181,,,,,,,,,,,,,,,,,,,,,,,,,,,,,,,,,,"[-0.9766,-0.6472,0.07440000000000002]","[-0.6235999999999999,-0.6786,-0.08239999999999992]",-24,61,1,0,0,response7disk,-13,7,1,0,0,rectangle,-13,7,1,0,0,,3,0.0012,0,-13,7,1,0,0,0,8,8,6,1,6,first,,,,,,,,,,,,,,,,,,,,,,,,,,,,,,,,,,,,,,,,,,,,,,,,,,,,,,,,,,,,,,,,,,,
,,,,,,617028061465253b03b9aabb,62bbf940f649107dbe48ed39,2022-06-29_09h06.54.322,Colour_Asymmetry_Pilot,2022.1.3,Win32,60.80875646,62bbe60bf3d75ef465d3e404,,,,,,,,,,,,,,,,,,,,threeone,,-4,0.4362,,,,,,,,,,,,,,,,,,,,,,,,,,,,,,,,,,"[0.11359999999999992,0.6312,0.5213999999999999]","[0.18419999999999992,-0.4276,-0.404]",-31,57,1,0,0,response7disk,-12,1,1,0,0,rectangle,-12,1,1,0,0,,2,0.0011,0,-12,1,1,0,0,0,9,9,70,1,70,first,,,,,,,,,,,,,,,,,,,,,,,,,,,,,,,,,,,,,,,,,,,,,,,,,,,,,,,,,,,,,,,,,,,
,,,,,,617028061465253b03b9aabb,62bbf940f649107dbe48ed39,2022-06-29_09h06.54.322,Colour_Asymmetry_Pilot,2022.1.3,Win32,60.80875646,62bbe60bf3d75ef465d3e404,,,,,,,,,,,,,,,,,,,,onetwo,,4,0.8352,,,,,,,,,,,,,,,,,,,,,,,,,,,,,,,,,,"[-0.9766,-0.6472,0.07440000000000002]","[-0.10599999999999998,-0.15300000000000002,0.15280000000000005]",27,79,1,0,0,response1disk,7,11,1,0,0,rectangle,7,11,1,0,0,,2,0.0002,0,7,11,1,0,0,0,10,10,29,1,29,first,,,,,,,,,,,,,,,,,,,,,,,,,,,,,,,,,,,,,,,,,,,,,,,,,,,,,,,,,,,,,,,,,,,
,,,,,,617028061465253b03b9aabb,62bbf940f649107dbe48ed39,2022-06-29_09h06.54.322,Colour_Asymmetry_Pilot,2022.1.3,Win32,60.80875646,62bbe60bf3d75ef465d3e404,,,,,,,,,,,,,,,,,,,,onetwo,,4,1.3163,,,,,,,,,,,,,,,,,,,,,,,,,,,,,,,,,,"[-0.5922000000000001,-0.7492000000000001,-0.5296000000000001]","[0.12939999999999996,-0.2864,0.3253999999999999]",30,71,1,0,0,response1disk,0,9,1,0,0,rectangle,0,9,1,0,0,,1,0.0011,0,0,9,1,0,0,0,11,11,33,1,33,first,,,,,,,,,,,,,,,,,,,,,,,,,,,,,,,,,,,,,,,,,,,,,,,,,,,,,,,,,,,,,,,,,,,
,,,,,,617028061465253b03b9aabb,62bbf940f649107dbe48ed39,2022-06-29_09h06.54.322,Colour_Asymmetry_Pilot,2022.1.3,Win32,60.80875646,62bbe60bf3d75ef465d3e404,,,,,,,,,,,,,,,,,,,,twoone,,4,0.4502,,,,,,,,,,,,,,,,,,,,,,,,,,,,,,,,,,"[-0.5688,-0.08239999999999992,-0.1844]","[-0.10599999999999998,-0.15300000000000002,0.15280000000000005]",30,67,1,0,0,response1disk,7,5,1,0,0,rectangle,7,5,1,0,0,,3,0.0021,0,7,5,1,0,0,0,12,12,157,1,76,second,,,,,,,,,,,,,,,,,,,,,,,,,,,,,,,,,,,,,,,,,,,,,,,,,,,,,,,,,,,,,,,,,,,
,,,,,,617028061465253b03b9aabb,62bbf940f649107dbe48ed39,2022-06-29_09h06.54.322,Colour_Asymmetry_Pilot,2022.1.3,Win32,60.80875646,62bbe60bf3d75ef465d3e404,,,,,,,,,,,,,,,,,,,,threefour,,4,0.8366,,,,,,,,,,,,,,,,,,,,,,,,,,,,,,,,,,"[-0.34920000000000007,-0.702,-0.5216]","[0.23920000000000008,0.2704,0.16060000000000008]",36,63,1,0,0,response1disk,16,5,1,0,0,rectangle,16,5,1,0,0,,3,0.0004,0,16,5,1,0,0,0,13,13,120,1,39,second,,,,,,,,,,,,,,,,,,,,,,,,,,,,,,,,,,,,,,,,,,,,,,,,,,,,,,,,,,,,,,,,,,,
,,,,,,617028061465253b03b9aabb,62bbf940f649107dbe48ed39,2022-06-29_09h06.54.322,Colour_Asymmetry_Pilot,2022.1.3,Win32,60.80875646,62bbe60bf3d75ef465d3e404,,,,,,,,,,,,,,,,,,,,fourtwo,,-4,0.5552,,,,,,,,,,,,,,,,,,,,,,,,,,,,,,,,,,"[0.3881999999999999,-0.23939999999999995,-0.05040000000000011]","[-0.9688,-0.38039999999999996,-0.41979999999999995]",-18,50,1,0,0,response7disk,-4,-1,1,0,0,rectangle,-4,-1,1,0,0,,1,0.002,0,-4,-1,1,0,0,0,14,14,7,1,7,first,,,,,,,,,,,,,,,,,,,,,,,,,,,,,,,,,,,,,,,,,,,,,,,,,,,,,,,,,,,,,,,,,,,
,,,,,,617028061465253b03b9aabb,62bbf940f649107dbe48ed39,2022-06-29_09h06.54.322,Colour_Asymmetry_Pilot,2022.1.3,Win32,60.80875646,62bbe60bf3d75ef465d3e404,,,,,,,,,,,,,,,,,,,,onetwo,,-4,0.7335,,,,,,,,,,,,,,,,,,,,,,,,,,,,,,,,,,"[0.7802,-0.23140000000000005,-0.20799999999999996]","[-0.4746,-0.0354000000000001,0.5449999999999999]",-49,79,1,0,0,response7disk,-11,11,1,0,0,rectangle,-11,11,1,0,0,,2,0.002,0,-11,11,1,0,0,0,15,15,154,1,73,second,,,,,,,,,,,,,,,,,,,,,,,,,,,,,,,,,,,,,,,,,,,,,,,,,,,,,,,,,,,,,,,,,,,
,,,,,,617028061465253b03b9aabb,62bbf940f649107dbe48ed39,2022-06-29_09h06.54.322,Colour_Asymmetry_Pilot,2022.1.3,Win32,60.80875646,62bbe60bf3d75ef465d3e404,,,,,,,,,,,,,,,,,,,,onethree,,-4,1.5337,,,,,,,,,,,,,,,,,,,,,,,,,,,,,,,,,,"[-0.8118,-0.8198,-0.5452]","[0.34099999999999997,0.5841999999999998,-0.9844]",-41,65,1,0,0,response7disk,-1,-6,1,0,0,rectangle,-1,-6,1,0,0,,3,0.001,0,-1,-6,1,0,0,0,16,16,103,1,22,second,,,,,,,,,,,,,,,,,,,,,,,,,,,,,,,,,,,,,,,,,,,,,,,,,,,,,,,,,,,,,,,,,,,
,,,,,,617028061465253b03b9aabb,62bbf940f649107dbe48ed39,2022-06-29_09h06.54.322,Colour_Asymmetry_Pilot,2022.1.3,Win32,60.80875646,62bbe60bf3d75ef465d3e404,,,,,,,,,,,,,,,,,,,,fourthree,,-4,0.514,,,,,,,,,,,,,,,,,,,,,,,,,,,,,,,,,,"[-0.2942,-0.24719999999999998,-0.357]","[1,0.12939999999999996,-1]",-30,61,1,0,0,response7disk,3,-1,1,0,0,rectangle,3,-1,1,0,0,,2,0.0023,0,3,-1,1,0,0,0,17,17,93,1,12,second,,,,,,,,,,,,,,,,,,,,,,,,,,,,,,,,,,,,,,,,,,,,,,,,,,,,,,,,,,,,,,,,,,,
,,,,,,617028061465253b03b9aabb,62bbf940f649107dbe48ed39,2022-06-29_09h06.54.322,Colour_Asymmetry_Pilot,2022.1.3,Win32,60.80875646,62bbe60bf3d75ef465d3e404,,,,,,,,,,,,,,,,,,,,onethree,,-4,1.052,,,,,,,,,,,,,,,,,,,,,,,,,,,,,,,,,,"[-0.38039999999999996,-0.4276,-0.1452]","[-0.4276,0.0038000000000000256,-0.3256]",-27,49,1,0,0,response7disk,-15,-4,1,0,0,rectangle,-15,-4,1,0,0,,1,0.0011,0,-15,-4,1,0,0,0,18,18,65,1,65,first,,,,,,,,,,,,,,,,,,,,,,,,,,,,,,,,,,,,,,,,,,,,,,,,,,,,,,,,,,,,,,,,,,,
,,,,,,617028061465253b03b9aabb,62bbf940f649107dbe48ed39,2022-06-29_09h06.54.322,Colour_Asymmetry_Pilot,2022.1.3,Win32,60.80875646,62bbe60bf3d75ef465d3e404,,,,,,,,,,,,,,,,,,,,fourtwo,,4,0.7012,,,,,,,,,,,,,,,,,,,,,,,,,,,,,,,,,,"[-0.5922000000000001,-0.7492000000000001,-0.5296000000000001]","[-0.0040000000000000036,0.02739999999999987,-0.08239999999999992]",27,69,1,0,0,response1disk,12,2,1,0,0,rectangle,12,2,1,0,0,,3,0.0011,0,12,2,1,0,0,0,19,19,56,1,56,first,,,,,,,,,,,,,,,,,,,,,,,,,,,,,,,,,,,,,,,,,,,,,,,,,,,,,,,,,,,,,,,,,,,
,,,,,,617028061465253b03b9aabb,62bbf940f649107dbe48ed39,2022-06-29_09h06.54.322,Colour_Asymmetry_Pilot,2022.1.3,Win32,60.80875646,62bbe60bf3d75ef465d3e404,,,,,,,,,,,,,,,,,,,,onetwo,,-4,0.6505,,,,,,,,,,,,,,,,,,,,,,,,,,,,,,,,,,"[0.3568,-0.20799999999999996,-0.9844]","[0.2862,0.7802,0.3568]",-25,50,1,0,0,response7disk,1,-8,1,0,0,rectangle,1,-8,1,0,0,,1,0.001,0,1,-8,1,0,0,0,20,20,83,1,2,second,,,,,,,,,,,,,,,,,,,,,,,,,,,,,,,,,,,,,,,,,,,,,,,,,,,,,,,,,,,,,,,,,,,
