trials.thisRepN,trials.thisTrialN,trials.thisN,trials.thisIndex,trials.ran,Colourcodes,participant,session,date,expName,psychopyVersion,OS,frameRate,study_id,trials_4.thisRepN,trials_4.thisTrialN,trials_4.thisN,trials_4.thisIndex,trials_4.ran,StimulusPos,key_resp.keys,key_resp.rt,key_resp_2.keys,key_resp_2.rt,key_resp_15.keys,key_resp_15.rt,key_resp_17.keys,key_resp_17.rt,key_resp_9.keys,key_resp_9.rt,key_resp_10.keys,key_resp_10.rt,Circle1_col,Ecc,Circle2_col,similarity,response_time,mouse_5.x,mouse_5.y,mouse_5.leftButton,mouse_5.midButton,mouse_5.rightButton,mouse_5.clicked_name,mouse_10.x,mouse_10.y,mouse_10.leftButton,mouse_10.midButton,mouse_10.rightButton,mouse_10.clicked_name,mouse_7.x,mouse_7.y,mouse_7.leftButton,mouse_7.midButton,mouse_7.rightButton,mouse_7.clicked_name,catchprac,catchnumberprac,mouse_6.x,mouse_6.y,mouse_6.leftButton,mouse_6.midButton,mouse_6.rightButton,mouse_6.clicked_name,duringprac.thisRepN,duringprac.thisTrialN,duringprac.thisN,duringprac.thisIndex,duringprac.ran,key_resp_22.keys,key_resp_22.rt,Circle1_colour,Circle2_colour,mouse.x,mouse.y,mouse.leftButton,mouse.midButton,mouse.rightButton,mouse.clicked_name,mouse_2.x,mouse_2.y,mouse_2.leftButton,mouse_2.midButton,mouse_2.rightButton,mouse_2.clicked_name,mouse_3.x,mouse_3.y,mouse_3.leftButton,mouse_3.midButton,mouse_3.rightButton,mouse_3.clicked_name,catchresponse,catchnumber,response_time_catch,Catch,mouse_11.x,mouse_11.y,mouse_11.leftButton,mouse_11.midButton,mouse_11.rightButton,mouse_11.clicked_name,trials_2.thisRepN,trials_2.thisTrialN,trials_2.thisN,trials_2.thisIndex,trials_2.ran,Colourpair,Temporder,trials_3.thisRepN,trials_3.thisTrialN,trials_3.thisN,trials_3.thisIndex,trials_3.ran,key_resp_instr_Ishi.keys,key_resp_instr_Ishi.rt,Ishi_trial_keyresp.keys,Ishi_trial_keyresp.rt,Ishi_textbox.text,Ishi_loop.thisRepN,Ishi_loop.thisTrialN,Ishi_loop.thisN,Ishi_loop.thisIndex,Ishi_loop.ran,imageaddress,textbox.text,mouse_4.x,mouse_4.y,mouse_4.leftButton,mouse_4.midButton,mouse_4.rightButton,mouse_4.clicked_name,textbox_2.text,mouse_8.x,mouse_8.y,mouse_8.leftButton,mouse_8.midButton,mouse_8.rightButton,mouse_8.clicked_name,textbox_3.text,mouse_9.x,mouse_9.y,mouse_9.leftButton,mouse_9.midButton,mouse_9.rightButton,mouse_9.clicked_name,textbox_4.text,mouse_12.x,mouse_12.y,mouse_12.leftButton,mouse_12.midButton,mouse_12.rightButton,mouse_12.clicked_name,textbox_5.text,mouse_13.x,mouse_13.y,mouse_13.leftButton,mouse_13.midButton,mouse_13.rightButton,mouse_13.clicked_name,textbox_6.text,mouse_14.x,mouse_14.y,mouse_14.leftButton,mouse_14.midButton,mouse_14.rightButton,mouse_14.clicked_name,textbox_7.text,mouse_15.x,mouse_15.y,mouse_15.leftButton,mouse_15.midButton,mouse_15.rightButton,mouse_15.clicked_name
0,0,0,55,1,,60dc31374fc70253e7a2d9e9,62bbfb627b006d5efd617960,2022-06-29_09h15.32.053,Colour_Asymmetry_Pilot,2022.1.3,Linux x86_64,60.0276127,62bbe60bf3d75ef465d3e404,,,,,,,,,,,,,,,,,,,,,,,,,,,,,,,,,,,,,,,,,,,,,,,,,,,,,,,,,,,,,,,,,,,,,,,,,,,,,,,,,,,,,,,,,,,,,,,,,,,,,,,,,,,,,,,,,,,,,,,,,,,,,,,,,,,,,,,,,,,,,,,,,,,,,,,,,,,,,,
0,1,1,66,1,,60dc31374fc70253e7a2d9e9,62bbfb627b006d5efd617960,2022-06-29_09h15.32.053,Colour_Asymmetry_Pilot,2022.1.3,Linux x86_64,60.0276127,62bbe60bf3d75ef465d3e404,,,,,,,,,,,,,,,,,,,,,,,,,,,,,,,,,,,,,,,,,,,,,,,,,,,,,,,,,,,,,,,,,,,,,,,,,,,,,,,,,,,,,,,,,,,,,,,,,,,,,,,,,,,,,,,,,,,,,,,,,,,,,,,,,,,,,,,,,,,,,,,,,,,,,,,,,,,,,,
0,2,2,4,1,,60dc31374fc70253e7a2d9e9,62bbfb627b006d5efd617960,2022-06-29_09h15.32.053,Colour_Asymmetry_Pilot,2022.1.3,Linux x86_64,60.0276127,62bbe60bf3d75ef465d3e404,,,,,,,,,,,,,,,,,,,,,,,,,,,,,,,,,,,,,,,,,,,,,,,,,,,,,,,,,,,,,,,,,,,,,,,,,,,,,,,,,,,,,,,,,,,,,,,,,,,,,,,,,,,,,,,,,,,,,,,,,,,,,,,,,,,,,,,,,,,,,,,,,,,,,,,,,,,,,,
0,3,3,78,1,,60dc31374fc70253e7a2d9e9,62bbfb627b006d5efd617960,2022-06-29_09h15.32.053,Colour_Asymmetry_Pilot,2022.1.3,Linux x86_64,60.0276127,62bbe60bf3d75ef465d3e404,,,,,,,,,,,,,,,,,,,,,,,,,,,,,,,,,,,,,,,,,,,,,,,,,,,,,,,,,,,,,,,,,,,,,,,,,,,,,,,,,,,,,,,,,,,,,,,,,,,,,,,,,,,,,,,,,,,,,,,,,,,,,,,,,,,,,,,,,,,,,,,,,,,,,,,,,,,,,,
0,4,4,9,1,,60dc31374fc70253e7a2d9e9,62bbfb627b006d5efd617960,2022-06-29_09h15.32.053,Colour_Asymmetry_Pilot,2022.1.3,Linux x86_64,60.0276127,62bbe60bf3d75ef465d3e404,,,,,,,,,,,,,,,,,,,,,,,,,,,,,,,,,,,,,,,,,,,,,,,,,,,,,,,,,,,,,,,,,,,,,,,,,,,,,,,,,,,,,,,,,,,,,,,,,,,,,,,,,,,,,,,,,,,,,,,,,,,,,,,,,,,,,,,,,,,,,,,,,,,,,,,,,,,,,,
0,5,5,43,1,,60dc31374fc70253e7a2d9e9,62bbfb627b006d5efd617960,2022-06-29_09h15.32.053,Colour_Asymmetry_Pilot,2022.1.3,Linux x86_64,60.0276127,62bbe60bf3d75ef465d3e404,,,,,,,,,,,,,,,,,,,,,,,,,,,,,,,,,,,,,,,,,,,,,,,,,,,,,,,,,,,,,,,,,,,,,,,,,,,,,,,,,,,,,,,,,,,,,,,,,,,,,,,,,,,,,,,,,,,,,,,,,,,,,,,,,,,,,,,,,,,,,,,,,,,,,,,,,,,,,,
0,6,6,45,1,,60dc31374fc70253e7a2d9e9,62bbfb627b006d5efd617960,2022-06-29_09h15.32.053,Colour_Asymmetry_Pilot,2022.1.3,Linux x86_64,60.0276127,62bbe60bf3d75ef465d3e404,,,,,,,,,,,,,,,,,,,,,,,,,,,,,,,,,,,,,,,,,,,,,,,,,,,,,,,,,,,,,,,,,,,,,,,,,,,,,,,,,,,,,,,,,,,,,,,,,,,,,,,,,,,,,,,,,,,,,,,,,,,,,,,,,,,,,,,,,,,,,,,,,,,,,,,,,,,,,,
0,7,7,84,1,,60dc31374fc70253e7a2d9e9,62bbfb627b006d5efd617960,2022-06-29_09h15.32.053,Colour_Asymmetry_Pilot,2022.1.3,Linux x86_64,60.0276127,62bbe60bf3d75ef465d3e404,,,,,,,,,,,,,,,,,,,,,,,,,,,,,,,,,,,,,,,,,,,,,,,,,,,,,,,,,,,,,,,,,,,,,,,,,,,,,,,,,,,,,,,,,,,,,,,,,,,,,,,,,,,,,,,,,,,,,,,,,,,,,,,,,,,,,,,,,,,,,,,,,,,,,,,,,,,,,,
0,8,8,92,1,,60dc31374fc70253e7a2d9e9,62bbfb627b006d5efd617960,2022-06-29_09h15.32.053,Colour_Asymmetry_Pilot,2022.1.3,Linux x86_64,60.0276127,62bbe60bf3d75ef465d3e404,,,,,,,,,,,,,,,,,,,,,,,,,,,,,,,,,,,,,,,,,,,,,,,,,,,,,,,,,,,,,,,,,,,,,,,,,,,,,,,,,,,,,,,,,,,,,,,,,,,,,,,,,,,,,,,,,,,,,,,,,,,,,,,,,,,,,,,,,,,,,,,,,,,,,,,,,,,,,,
0,9,9,77,1,,60dc31374fc70253e7a2d9e9,62bbfb627b006d5efd617960,2022-06-29_09h15.32.053,Colour_Asymmetry_Pilot,2022.1.3,Linux x86_64,60.0276127,62bbe60bf3d75ef465d3e404,,,,,,,,,,,,,,,,,,,,,,,,,,,,,,,,,,,,,,,,,,,,,,,,,,,,,,,,,,,,,,,,,,,,,,,,,,,,,,,,,,,,,,,,,,,,,,,,,,,,,,,,,,,,,,,,,,,,,,,,,,,,,,,,,,,,,,,,,,,,,,,,,,,,,,,,,,,,,,
0,10,10,2,1,,60dc31374fc70253e7a2d9e9,62bbfb627b006d5efd617960,2022-06-29_09h15.32.053,Colour_Asymmetry_Pilot,2022.1.3,Linux x86_64,60.0276127,62bbe60bf3d75ef465d3e404,,,,,,,,,,,,,,,,,,,,,,,,,,,,,,,,,,,,,,,,,,,,,,,,,,,,,,,,,,,,,,,,,,,,,,,,,,,,,,,,,,,,,,,,,,,,,,,,,,,,,,,,,,,,,,,,,,,,,,,,,,,,,,,,,,,,,,,,,,,,,,,,,,,,,,,,,,,,,,
0,11,11,86,1,,60dc31374fc70253e7a2d9e9,62bbfb627b006d5efd617960,2022-06-29_09h15.32.053,Colour_Asymmetry_Pilot,2022.1.3,Linux x86_64,60.0276127,62bbe60bf3d75ef465d3e404,,,,,,,,,,,,,,,,,,,,,,,,,,,,,,,,,,,,,,,,,,,,,,,,,,,,,,,,,,,,,,,,,,,,,,,,,,,,,,,,,,,,,,,,,,,,,,,,,,,,,,,,,,,,,,,,,,,,,,,,,,,,,,,,,,,,,,,,,,,,,,,,,,,,,,,,,,,,,,
0,12,12,30,1,,60dc31374fc70253e7a2d9e9,62bbfb627b006d5efd617960,2022-06-29_09h15.32.053,Colour_Asymmetry_Pilot,2022.1.3,Linux x86_64,60.0276127,62bbe60bf3d75ef465d3e404,,,,,,,,,,,,,,,,,,,,,,,,,,,,,,,,,,,,,,,,,,,,,,,,,,,,,,,,,,,,,,,,,,,,,,,,,,,,,,,,,,,,,,,,,,,,,,,,,,,,,,,,,,,,,,,,,,,,,,,,,,,,,,,,,,,,,,,,,,,,,,,,,,,,,,,,,,,,,,
0,13,13,22,1,,60dc31374fc70253e7a2d9e9,62bbfb627b006d5efd617960,2022-06-29_09h15.32.053,Colour_Asymmetry_Pilot,2022.1.3,Linux x86_64,60.0276127,62bbe60bf3d75ef465d3e404,,,,,,,,,,,,,,,,,,,,,,,,,,,,,,,,,,,,,,,,,,,,,,,,,,,,,,,,,,,,,,,,,,,,,,,,,,,,,,,,,,,,,,,,,,,,,,,,,,,,,,,,,,,,,,,,,,,,,,,,,,,,,,,,,,,,,,,,,,,,,,,,,,,,,,,,,,,,,,
0,14,14,60,1,,60dc31374fc70253e7a2d9e9,62bbfb627b006d5efd617960,2022-06-29_09h15.32.053,Colour_Asymmetry_Pilot,2022.1.3,Linux x86_64,60.0276127,62bbe60bf3d75ef465d3e404,,,,,,,,,,,,,,,,,,,,,,,,,,,,,,,,,,,,,,,,,,,,,,,,,,,,,,,,,,,,,,,,,,,,,,,,,,,,,,,,,,,,,,,,,,,,,,,,,,,,,,,,,,,,,,,,,,,,,,,,,,,,,,,,,,,,,,,,,,,,,,,,,,,,,,,,,,,,,,
0,15,15,89,1,,60dc31374fc70253e7a2d9e9,62bbfb627b006d5efd617960,2022-06-29_09h15.32.053,Colour_Asymmetry_Pilot,2022.1.3,Linux x86_64,60.0276127,62bbe60bf3d75ef465d3e404,,,,,,,,,,,,,,,,,,,,,,,,,,,,,,,,,,,,,,,,,,,,,,,,,,,,,,,,,,,,,,,,,,,,,,,,,,,,,,,,,,,,,,,,,,,,,,,,,,,,,,,,,,,,,,,,,,,,,,,,,,,,,,,,,,,,,,,,,,,,,,,,,,,,,,,,,,,,,,
0,16,16,64,1,,60dc31374fc70253e7a2d9e9,62bbfb627b006d5efd617960,2022-06-29_09h15.32.053,Colour_Asymmetry_Pilot,2022.1.3,Linux x86_64,60.0276127,62bbe60bf3d75ef465d3e404,,,,,,,,,,,,,,,,,,,,,,,,,,,,,,,,,,,,,,,,,,,,,,,,,,,,,,,,,,,,,,,,,,,,,,,,,,,,,,,,,,,,,,,,,,,,,,,,,,,,,,,,,,,,,,,,,,,,,,,,,,,,,,,,,,,,,,,,,,,,,,,,,,,,,,,,,,,,,,
0,17,17,38,1,,60dc31374fc70253e7a2d9e9,62bbfb627b006d5efd617960,2022-06-29_09h15.32.053,Colour_Asymmetry_Pilot,2022.1.3,Linux x86_64,60.0276127,62bbe60bf3d75ef465d3e404,,,,,,,,,,,,,,,,,,,,,,,,,,,,,,,,,,,,,,,,,,,,,,,,,,,,,,,,,,,,,,,,,,,,,,,,,,,,,,,,,,,,,,,,,,,,,,,,,,,,,,,,,,,,,,,,,,,,,,,,,,,,,,,,,,,,,,,,,,,,,,,,,,,,,,,,,,,,,,
0,18,18,53,1,,60dc31374fc70253e7a2d9e9,62bbfb627b006d5efd617960,2022-06-29_09h15.32.053,Colour_Asymmetry_Pilot,2022.1.3,Linux x86_64,60.0276127,62bbe60bf3d75ef465d3e404,,,,,,,,,,,,,,,,,,,,,,,,,,,,,,,,,,,,,,,,,,,,,,,,,,,,,,,,,,,,,,,,,,,,,,,,,,,,,,,,,,,,,,,,,,,,,,,,,,,,,,,,,,,,,,,,,,,,,,,,,,,,,,,,,,,,,,,,,,,,,,,,,,,,,,,,,,,,,,
0,19,19,59,1,,60dc31374fc70253e7a2d9e9,62bbfb627b006d5efd617960,2022-06-29_09h15.32.053,Colour_Asymmetry_Pilot,2022.1.3,Linux x86_64,60.0276127,62bbe60bf3d75ef465d3e404,,,,,,,,,,,,,,,,,,,,,,,,,,,,,,,,,,,,,,,,,,,,,,,,,,,,,,,,,,,,,,,,,,,,,,,,,,,,,,,,,,,,,,,,,,,,,,,,,,,,,,,,,,,,,,,,,,,,,,,,,,,,,,,,,,,,,,,,,,,,,,,,,,,,,,,,,,,,,,
0,20,20,61,1,,60dc31374fc70253e7a2d9e9,62bbfb627b006d5efd617960,2022-06-29_09h15.32.053,Colour_Asymmetry_Pilot,2022.1.3,Linux x86_64,60.0276127,62bbe60bf3d75ef465d3e404,,,,,,,,,,,,,,,,,,,,,,,,,,,,,,,,,,,,,,,,,,,,,,,,,,,,,,,,,,,,,,,,,,,,,,,,,,,,,,,,,,,,,,,,,,,,,,,,,,,,,,,,,,,,,,,,,,,,,,,,,,,,,,,,,,,,,,,,,,,,,,,,,,,,,,,,,,,,,,
0,21,21,40,1,,60dc31374fc70253e7a2d9e9,62bbfb627b006d5efd617960,2022-06-29_09h15.32.053,Colour_Asymmetry_Pilot,2022.1.3,Linux x86_64,60.0276127,62bbe60bf3d75ef465d3e404,,,,,,,,,,,,,,,,,,,,,,,,,,,,,,,,,,,,,,,,,,,,,,,,,,,,,,,,,,,,,,,,,,,,,,,,,,,,,,,,,,,,,,,,,,,,,,,,,,,,,,,,,,,,,,,,,,,,,,,,,,,,,,,,,,,,,,,,,,,,,,,,,,,,,,,,,,,,,,
0,22,22,72,1,,60dc31374fc70253e7a2d9e9,62bbfb627b006d5efd617960,2022-06-29_09h15.32.053,Colour_Asymmetry_Pilot,2022.1.3,Linux x86_64,60.0276127,62bbe60bf3d75ef465d3e404,,,,,,,,,,,,,,,,,,,,,,,,,,,,,,,,,,,,,,,,,,,,,,,,,,,,,,,,,,,,,,,,,,,,,,,,,,,,,,,,,,,,,,,,,,,,,,,,,,,,,,,,,,,,,,,,,,,,,,,,,,,,,,,,,,,,,,,,,,,,,,,,,,,,,,,,,,,,,,
0,23,23,41,1,,60dc31374fc70253e7a2d9e9,62bbfb627b006d5efd617960,2022-06-29_09h15.32.053,Colour_Asymmetry_Pilot,2022.1.3,Linux x86_64,60.0276127,62bbe60bf3d75ef465d3e404,,,,,,,,,,,,,,,,,,,,,,,,,,,,,,,,,,,,,,,,,,,,,,,,,,,,,,,,,,,,,,,,,,,,,,,,,,,,,,,,,,,,,,,,,,,,,,,,,,,,,,,,,,,,,,,,,,,,,,,,,,,,,,,,,,,,,,,,,,,,,,,,,,,,,,,,,,,,,,
0,24,24,75,1,,60dc31374fc70253e7a2d9e9,62bbfb627b006d5efd617960,2022-06-29_09h15.32.053,Colour_Asymmetry_Pilot,2022.1.3,Linux x86_64,60.0276127,62bbe60bf3d75ef465d3e404,,,,,,,,,,,,,,,,,,,,,,,,,,,,,,,,,,,,,,,,,,,,,,,,,,,,,,,,,,,,,,,,,,,,,,,,,,,,,,,,,,,,,,,,,,,,,,,,,,,,,,,,,,,,,,,,,,,,,,,,,,,,,,,,,,,,,,,,,,,,,,,,,,,,,,,,,,,,,,
0,25,25,68,1,,60dc31374fc70253e7a2d9e9,62bbfb627b006d5efd617960,2022-06-29_09h15.32.053,Colour_Asymmetry_Pilot,2022.1.3,Linux x86_64,60.0276127,62bbe60bf3d75ef465d3e404,,,,,,,,,,,,,,,,,,,,,,,,,,,,,,,,,,,,,,,,,,,,,,,,,,,,,,,,,,,,,,,,,,,,,,,,,,,,,,,,,,,,,,,,,,,,,,,,,,,,,,,,,,,,,,,,,,,,,,,,,,,,,,,,,,,,,,,,,,,,,,,,,,,,,,,,,,,,,,
0,26,26,54,1,,60dc31374fc70253e7a2d9e9,62bbfb627b006d5efd617960,2022-06-29_09h15.32.053,Colour_Asymmetry_Pilot,2022.1.3,Linux x86_64,60.0276127,62bbe60bf3d75ef465d3e404,,,,,,,,,,,,,,,,,,,,,,,,,,,,,,,,,,,,,,,,,,,,,,,,,,,,,,,,,,,,,,,,,,,,,,,,,,,,,,,,,,,,,,,,,,,,,,,,,,,,,,,,,,,,,,,,,,,,,,,,,,,,,,,,,,,,,,,,,,,,,,,,,,,,,,,,,,,,,,
0,27,27,88,1,,60dc31374fc70253e7a2d9e9,62bbfb627b006d5efd617960,2022-06-29_09h15.32.053,Colour_Asymmetry_Pilot,2022.1.3,Linux x86_64,60.0276127,62bbe60bf3d75ef465d3e404,,,,,,,,,,,,,,,,,,,,,,,,,,,,,,,,,,,,,,,,,,,,,,,,,,,,,,,,,,,,,,,,,,,,,,,,,,,,,,,,,,,,,,,,,,,,,,,,,,,,,,,,,,,,,,,,,,,,,,,,,,,,,,,,,,,,,,,,,,,,,,,,,,,,,,,,,,,,,,
0,28,28,18,1,,60dc31374fc70253e7a2d9e9,62bbfb627b006d5efd617960,2022-06-29_09h15.32.053,Colour_Asymmetry_Pilot,2022.1.3,Linux x86_64,60.0276127,62bbe60bf3d75ef465d3e404,,,,,,,,,,,,,,,,,,,,,,,,,,,,,,,,,,,,,,,,,,,,,,,,,,,,,,,,,,,,,,,,,,,,,,,,,,,,,,,,,,,,,,,,,,,,,,,,,,,,,,,,,,,,,,,,,,,,,,,,,,,,,,,,,,,,,,,,,,,,,,,,,,,,,,,,,,,,,,
0,29,29,42,1,,60dc31374fc70253e7a2d9e9,62bbfb627b006d5efd617960,2022-06-29_09h15.32.053,Colour_Asymmetry_Pilot,2022.1.3,Linux x86_64,60.0276127,62bbe60bf3d75ef465d3e404,,,,,,,,,,,,,,,,,,,,,,,,,,,,,,,,,,,,,,,,,,,,,,,,,,,,,,,,,,,,,,,,,,,,,,,,,,,,,,,,,,,,,,,,,,,,,,,,,,,,,,,,,,,,,,,,,,,,,,,,,,,,,,,,,,,,,,,,,,,,,,,,,,,,,,,,,,,,,,
0,30,30,12,1,,60dc31374fc70253e7a2d9e9,62bbfb627b006d5efd617960,2022-06-29_09h15.32.053,Colour_Asymmetry_Pilot,2022.1.3,Linux x86_64,60.0276127,62bbe60bf3d75ef465d3e404,,,,,,,,,,,,,,,,,,,,,,,,,,,,,,,,,,,,,,,,,,,,,,,,,,,,,,,,,,,,,,,,,,,,,,,,,,,,,,,,,,,,,,,,,,,,,,,,,,,,,,,,,,,,,,,,,,,,,,,,,,,,,,,,,,,,,,,,,,,,,,,,,,,,,,,,,,,,,,
0,31,31,37,1,,60dc31374fc70253e7a2d9e9,62bbfb627b006d5efd617960,2022-06-29_09h15.32.053,Colour_Asymmetry_Pilot,2022.1.3,Linux x86_64,60.0276127,62bbe60bf3d75ef465d3e404,,,,,,,,,,,,,,,,,,,,,,,,,,,,,,,,,,,,,,,,,,,,,,,,,,,,,,,,,,,,,,,,,,,,,,,,,,,,,,,,,,,,,,,,,,,,,,,,,,,,,,,,,,,,,,,,,,,,,,,,,,,,,,,,,,,,,,,,,,,,,,,,,,,,,,,,,,,,,,
0,32,32,31,1,,60dc31374fc70253e7a2d9e9,62bbfb627b006d5efd617960,2022-06-29_09h15.32.053,Colour_Asymmetry_Pilot,2022.1.3,Linux x86_64,60.0276127,62bbe60bf3d75ef465d3e404,,,,,,,,,,,,,,,,,,,,,,,,,,,,,,,,,,,,,,,,,,,,,,,,,,,,,,,,,,,,,,,,,,,,,,,,,,,,,,,,,,,,,,,,,,,,,,,,,,,,,,,,,,,,,,,,,,,,,,,,,,,,,,,,,,,,,,,,,,,,,,,,,,,,,,,,,,,,,,
0,33,33,63,1,,60dc31374fc70253e7a2d9e9,62bbfb627b006d5efd617960,2022-06-29_09h15.32.053,Colour_Asymmetry_Pilot,2022.1.3,Linux x86_64,60.0276127,62bbe60bf3d75ef465d3e404,,,,,,,,,,,,,,,,,,,,,,,,,,,,,,,,,,,,,,,,,,,,,,,,,,,,,,,,,,,,,,,,,,,,,,,,,,,,,,,,,,,,,,,,,,,,,,,,,,,,,,,,,,,,,,,,,,,,,,,,,,,,,,,,,,,,,,,,,,,,,,,,,,,,,,,,,,,,,,
0,34,34,5,1,,60dc31374fc70253e7a2d9e9,62bbfb627b006d5efd617960,2022-06-29_09h15.32.053,Colour_Asymmetry_Pilot,2022.1.3,Linux x86_64,60.0276127,62bbe60bf3d75ef465d3e404,,,,,,,,,,,,,,,,,,,,,,,,,,,,,,,,,,,,,,,,,,,,,,,,,,,,,,,,,,,,,,,,,,,,,,,,,,,,,,,,,,,,,,,,,,,,,,,,,,,,,,,,,,,,,,,,,,,,,,,,,,,,,,,,,,,,,,,,,,,,,,,,,,,,,,,,,,,,,,
0,35,35,15,1,,60dc31374fc70253e7a2d9e9,62bbfb627b006d5efd617960,2022-06-29_09h15.32.053,Colour_Asymmetry_Pilot,2022.1.3,Linux x86_64,60.0276127,62bbe60bf3d75ef465d3e404,,,,,,,,,,,,,,,,,,,,,,,,,,,,,,,,,,,,,,,,,,,,,,,,,,,,,,,,,,,,,,,,,,,,,,,,,,,,,,,,,,,,,,,,,,,,,,,,,,,,,,,,,,,,,,,,,,,,,,,,,,,,,,,,,,,,,,,,,,,,,,,,,,,,,,,,,,,,,,
0,36,36,36,1,,60dc31374fc70253e7a2d9e9,62bbfb627b006d5efd617960,2022-06-29_09h15.32.053,Colour_Asymmetry_Pilot,2022.1.3,Linux x86_64,60.0276127,62bbe60bf3d75ef465d3e404,,,,,,,,,,,,,,,,,,,,,,,,,,,,,,,,,,,,,,,,,,,,,,,,,,,,,,,,,,,,,,,,,,,,,,,,,,,,,,,,,,,,,,,,,,,,,,,,,,,,,,,,,,,,,,,,,,,,,,,,,,,,,,,,,,,,,,,,,,,,,,,,,,,,,,,,,,,,,,
0,37,37,6,1,,60dc31374fc70253e7a2d9e9,62bbfb627b006d5efd617960,2022-06-29_09h15.32.053,Colour_Asymmetry_Pilot,2022.1.3,Linux x86_64,60.0276127,62bbe60bf3d75ef465d3e404,,,,,,,,,,,,,,,,,,,,,,,,,,,,,,,,,,,,,,,,,,,,,,,,,,,,,,,,,,,,,,,,,,,,,,,,,,,,,,,,,,,,,,,,,,,,,,,,,,,,,,,,,,,,,,,,,,,,,,,,,,,,,,,,,,,,,,,,,,,,,,,,,,,,,,,,,,,,,,
0,38,38,24,1,,60dc31374fc70253e7a2d9e9,62bbfb627b006d5efd617960,2022-06-29_09h15.32.053,Colour_Asymmetry_Pilot,2022.1.3,Linux x86_64,60.0276127,62bbe60bf3d75ef465d3e404,,,,,,,,,,,,,,,,,,,,,,,,,,,,,,,,,,,,,,,,,,,,,,,,,,,,,,,,,,,,,,,,,,,,,,,,,,,,,,,,,,,,,,,,,,,,,,,,,,,,,,,,,,,,,,,,,,,,,,,,,,,,,,,,,,,,,,,,,,,,,,,,,,,,,,,,,,,,,,
0,39,39,90,1,,60dc31374fc70253e7a2d9e9,62bbfb627b006d5efd617960,2022-06-29_09h15.32.053,Colour_Asymmetry_Pilot,2022.1.3,Linux x86_64,60.0276127,62bbe60bf3d75ef465d3e404,,,,,,,,,,,,,,,,,,,,,,,,,,,,,,,,,,,,,,,,,,,,,,,,,,,,,,,,,,,,,,,,,,,,,,,,,,,,,,,,,,,,,,,,,,,,,,,,,,,,,,,,,,,,,,,,,,,,,,,,,,,,,,,,,,,,,,,,,,,,,,,,,,,,,,,,,,,,,,
0,40,40,13,1,,60dc31374fc70253e7a2d9e9,62bbfb627b006d5efd617960,2022-06-29_09h15.32.053,Colour_Asymmetry_Pilot,2022.1.3,Linux x86_64,60.0276127,62bbe60bf3d75ef465d3e404,,,,,,,,,,,,,,,,,,,,,,,,,,,,,,,,,,,,,,,,,,,,,,,,,,,,,,,,,,,,,,,,,,,,,,,,,,,,,,,,,,,,,,,,,,,,,,,,,,,,,,,,,,,,,,,,,,,,,,,,,,,,,,,,,,,,,,,,,,,,,,,,,,,,,,,,,,,,,,
0,41,41,46,1,,60dc31374fc70253e7a2d9e9,62bbfb627b006d5efd617960,2022-06-29_09h15.32.053,Colour_Asymmetry_Pilot,2022.1.3,Linux x86_64,60.0276127,62bbe60bf3d75ef465d3e404,,,,,,,,,,,,,,,,,,,,,,,,,,,,,,,,,,,,,,,,,,,,,,,,,,,,,,,,,,,,,,,,,,,,,,,,,,,,,,,,,,,,,,,,,,,,,,,,,,,,,,,,,,,,,,,,,,,,,,,,,,,,,,,,,,,,,,,,,,,,,,,,,,,,,,,,,,,,,,
0,42,42,74,1,,60dc31374fc70253e7a2d9e9,62bbfb627b006d5efd617960,2022-06-29_09h15.32.053,Colour_Asymmetry_Pilot,2022.1.3,Linux x86_64,60.0276127,62bbe60bf3d75ef465d3e404,,,,,,,,,,,,,,,,,,,,,,,,,,,,,,,,,,,,,,,,,,,,,,,,,,,,,,,,,,,,,,,,,,,,,,,,,,,,,,,,,,,,,,,,,,,,,,,,,,,,,,,,,,,,,,,,,,,,,,,,,,,,,,,,,,,,,,,,,,,,,,,,,,,,,,,,,,,,,,
0,43,43,76,1,,60dc31374fc70253e7a2d9e9,62bbfb627b006d5efd617960,2022-06-29_09h15.32.053,Colour_Asymmetry_Pilot,2022.1.3,Linux x86_64,60.0276127,62bbe60bf3d75ef465d3e404,,,,,,,,,,,,,,,,,,,,,,,,,,,,,,,,,,,,,,,,,,,,,,,,,,,,,,,,,,,,,,,,,,,,,,,,,,,,,,,,,,,,,,,,,,,,,,,,,,,,,,,,,,,,,,,,,,,,,,,,,,,,,,,,,,,,,,,,,,,,,,,,,,,,,,,,,,,,,,
0,44,44,27,1,,60dc31374fc70253e7a2d9e9,62bbfb627b006d5efd617960,2022-06-29_09h15.32.053,Colour_Asymmetry_Pilot,2022.1.3,Linux x86_64,60.0276127,62bbe60bf3d75ef465d3e404,,,,,,,,,,,,,,,,,,,,,,,,,,,,,,,,,,,,,,,,,,,,,,,,,,,,,,,,,,,,,,,,,,,,,,,,,,,,,,,,,,,,,,,,,,,,,,,,,,,,,,,,,,,,,,,,,,,,,,,,,,,,,,,,,,,,,,,,,,,,,,,,,,,,,,,,,,,,,,
0,45,45,33,1,,60dc31374fc70253e7a2d9e9,62bbfb627b006d5efd617960,2022-06-29_09h15.32.053,Colour_Asymmetry_Pilot,2022.1.3,Linux x86_64,60.0276127,62bbe60bf3d75ef465d3e404,,,,,,,,,,,,,,,,,,,,,,,,,,,,,,,,,,,,,,,,,,,,,,,,,,,,,,,,,,,,,,,,,,,,,,,,,,,,,,,,,,,,,,,,,,,,,,,,,,,,,,,,,,,,,,,,,,,,,,,,,,,,,,,,,,,,,,,,,,,,,,,,,,,,,,,,,,,,,,
0,46,46,10,1,,60dc31374fc70253e7a2d9e9,62bbfb627b006d5efd617960,2022-06-29_09h15.32.053,Colour_Asymmetry_Pilot,2022.1.3,Linux x86_64,60.0276127,62bbe60bf3d75ef465d3e404,,,,,,,,,,,,,,,,,,,,,,,,,,,,,,,,,,,,,,,,,,,,,,,,,,,,,,,,,,,,,,,,,,,,,,,,,,,,,,,,,,,,,,,,,,,,,,,,,,,,,,,,,,,,,,,,,,,,,,,,,,,,,,,,,,,,,,,,,,,,,,,,,,,,,,,,,,,,,,
0,47,47,11,1,,60dc31374fc70253e7a2d9e9,62bbfb627b006d5efd617960,2022-06-29_09h15.32.053,Colour_Asymmetry_Pilot,2022.1.3,Linux x86_64,60.0276127,62bbe60bf3d75ef465d3e404,,,,,,,,,,,,,,,,,,,,,,,,,,,,,,,,,,,,,,,,,,,,,,,,,,,,,,,,,,,,,,,,,,,,,,,,,,,,,,,,,,,,,,,,,,,,,,,,,,,,,,,,,,,,,,,,,,,,,,,,,,,,,,,,,,,,,,,,,,,,,,,,,,,,,,,,,,,,,,
0,48,48,71,1,,60dc31374fc70253e7a2d9e9,62bbfb627b006d5efd617960,2022-06-29_09h15.32.053,Colour_Asymmetry_Pilot,2022.1.3,Linux x86_64,60.0276127,62bbe60bf3d75ef465d3e404,,,,,,,,,,,,,,,,,,,,,,,,,,,,,,,,,,,,,,,,,,,,,,,,,,,,,,,,,,,,,,,,,,,,,,,,,,,,,,,,,,,,,,,,,,,,,,,,,,,,,,,,,,,,,,,,,,,,,,,,,,,,,,,,,,,,,,,,,,,,,,,,,,,,,,,,,,,,,,
0,49,49,79,1,,60dc31374fc70253e7a2d9e9,62bbfb627b006d5efd617960,2022-06-29_09h15.32.053,Colour_Asymmetry_Pilot,2022.1.3,Linux x86_64,60.0276127,62bbe60bf3d75ef465d3e404,,,,,,,,,,,,,,,,,,,,,,,,,,,,,,,,,,,,,,,,,,,,,,,,,,,,,,,,,,,,,,,,,,,,,,,,,,,,,,,,,,,,,,,,,,,,,,,,,,,,,,,,,,,,,,,,,,,,,,,,,,,,,,,,,,,,,,,,,,,,,,,,,,,,,,,,,,,,,,
0,50,50,83,1,,60dc31374fc70253e7a2d9e9,62bbfb627b006d5efd617960,2022-06-29_09h15.32.053,Colour_Asymmetry_Pilot,2022.1.3,Linux x86_64,60.0276127,62bbe60bf3d75ef465d3e404,,,,,,,,,,,,,,,,,,,,,,,,,,,,,,,,,,,,,,,,,,,,,,,,,,,,,,,,,,,,,,,,,,,,,,,,,,,,,,,,,,,,,,,,,,,,,,,,,,,,,,,,,,,,,,,,,,,,,,,,,,,,,,,,,,,,,,,,,,,,,,,,,,,,,,,,,,,,,,
0,51,51,25,1,,60dc31374fc70253e7a2d9e9,62bbfb627b006d5efd617960,2022-06-29_09h15.32.053,Colour_Asymmetry_Pilot,2022.1.3,Linux x86_64,60.0276127,62bbe60bf3d75ef465d3e404,,,,,,,,,,,,,,,,,,,,,,,,,,,,,,,,,,,,,,,,,,,,,,,,,,,,,,,,,,,,,,,,,,,,,,,,,,,,,,,,,,,,,,,,,,,,,,,,,,,,,,,,,,,,,,,,,,,,,,,,,,,,,,,,,,,,,,,,,,,,,,,,,,,,,,,,,,,,,,
0,52,52,70,1,,60dc31374fc70253e7a2d9e9,62bbfb627b006d5efd617960,2022-06-29_09h15.32.053,Colour_Asymmetry_Pilot,2022.1.3,Linux x86_64,60.0276127,62bbe60bf3d75ef465d3e404,,,,,,,,,,,,,,,,,,,,,,,,,,,,,,,,,,,,,,,,,,,,,,,,,,,,,,,,,,,,,,,,,,,,,,,,,,,,,,,,,,,,,,,,,,,,,,,,,,,,,,,,,,,,,,,,,,,,,,,,,,,,,,,,,,,,,,,,,,,,,,,,,,,,,,,,,,,,,,
0,53,53,47,1,,60dc31374fc70253e7a2d9e9,62bbfb627b006d5efd617960,2022-06-29_09h15.32.053,Colour_Asymmetry_Pilot,2022.1.3,Linux x86_64,60.0276127,62bbe60bf3d75ef465d3e404,,,,,,,,,,,,,,,,,,,,,,,,,,,,,,,,,,,,,,,,,,,,,,,,,,,,,,,,,,,,,,,,,,,,,,,,,,,,,,,,,,,,,,,,,,,,,,,,,,,,,,,,,,,,,,,,,,,,,,,,,,,,,,,,,,,,,,,,,,,,,,,,,,,,,,,,,,,,,,
0,54,54,3,1,,60dc31374fc70253e7a2d9e9,62bbfb627b006d5efd617960,2022-06-29_09h15.32.053,Colour_Asymmetry_Pilot,2022.1.3,Linux x86_64,60.0276127,62bbe60bf3d75ef465d3e404,,,,,,,,,,,,,,,,,,,,,,,,,,,,,,,,,,,,,,,,,,,,,,,,,,,,,,,,,,,,,,,,,,,,,,,,,,,,,,,,,,,,,,,,,,,,,,,,,,,,,,,,,,,,,,,,,,,,,,,,,,,,,,,,,,,,,,,,,,,,,,,,,,,,,,,,,,,,,,
0,55,55,85,1,,60dc31374fc70253e7a2d9e9,62bbfb627b006d5efd617960,2022-06-29_09h15.32.053,Colour_Asymmetry_Pilot,2022.1.3,Linux x86_64,60.0276127,62bbe60bf3d75ef465d3e404,,,,,,,,,,,,,,,,,,,,,,,,,,,,,,,,,,,,,,,,,,,,,,,,,,,,,,,,,,,,,,,,,,,,,,,,,,,,,,,,,,,,,,,,,,,,,,,,,,,,,,,,,,,,,,,,,,,,,,,,,,,,,,,,,,,,,,,,,,,,,,,,,,,,,,,,,,,,,,
0,56,56,52,1,,60dc31374fc70253e7a2d9e9,62bbfb627b006d5efd617960,2022-06-29_09h15.32.053,Colour_Asymmetry_Pilot,2022.1.3,Linux x86_64,60.0276127,62bbe60bf3d75ef465d3e404,,,,,,,,,,,,,,,,,,,,,,,,,,,,,,,,,,,,,,,,,,,,,,,,,,,,,,,,,,,,,,,,,,,,,,,,,,,,,,,,,,,,,,,,,,,,,,,,,,,,,,,,,,,,,,,,,,,,,,,,,,,,,,,,,,,,,,,,,,,,,,,,,,,,,,,,,,,,,,
0,57,57,48,1,,60dc31374fc70253e7a2d9e9,62bbfb627b006d5efd617960,2022-06-29_09h15.32.053,Colour_Asymmetry_Pilot,2022.1.3,Linux x86_64,60.0276127,62bbe60bf3d75ef465d3e404,,,,,,,,,,,,,,,,,,,,,,,,,,,,,,,,,,,,,,,,,,,,,,,,,,,,,,,,,,,,,,,,,,,,,,,,,,,,,,,,,,,,,,,,,,,,,,,,,,,,,,,,,,,,,,,,,,,,,,,,,,,,,,,,,,,,,,,,,,,,,,,,,,,,,,,,,,,,,,
0,58,58,17,1,,60dc31374fc70253e7a2d9e9,62bbfb627b006d5efd617960,2022-06-29_09h15.32.053,Colour_Asymmetry_Pilot,2022.1.3,Linux x86_64,60.0276127,62bbe60bf3d75ef465d3e404,,,,,,,,,,,,,,,,,,,,,,,,,,,,,,,,,,,,,,,,,,,,,,,,,,,,,,,,,,,,,,,,,,,,,,,,,,,,,,,,,,,,,,,,,,,,,,,,,,,,,,,,,,,,,,,,,,,,,,,,,,,,,,,,,,,,,,,,,,,,,,,,,,,,,,,,,,,,,,
0,59,59,49,1,,60dc31374fc70253e7a2d9e9,62bbfb627b006d5efd617960,2022-06-29_09h15.32.053,Colour_Asymmetry_Pilot,2022.1.3,Linux x86_64,60.0276127,62bbe60bf3d75ef465d3e404,,,,,,,,,,,,,,,,,,,,,,,,,,,,,,,,,,,,,,,,,,,,,,,,,,,,,,,,,,,,,,,,,,,,,,,,,,,,,,,,,,,,,,,,,,,,,,,,,,,,,,,,,,,,,,,,,,,,,,,,,,,,,,,,,,,,,,,,,,,,,,,,,,,,,,,,,,,,,,
0,60,60,35,1,,60dc31374fc70253e7a2d9e9,62bbfb627b006d5efd617960,2022-06-29_09h15.32.053,Colour_Asymmetry_Pilot,2022.1.3,Linux x86_64,60.0276127,62bbe60bf3d75ef465d3e404,,,,,,,,,,,,,,,,,,,,,,,,,,,,,,,,,,,,,,,,,,,,,,,,,,,,,,,,,,,,,,,,,,,,,,,,,,,,,,,,,,,,,,,,,,,,,,,,,,,,,,,,,,,,,,,,,,,,,,,,,,,,,,,,,,,,,,,,,,,,,,,,,,,,,,,,,,,,,,
0,61,61,73,1,,60dc31374fc70253e7a2d9e9,62bbfb627b006d5efd617960,2022-06-29_09h15.32.053,Colour_Asymmetry_Pilot,2022.1.3,Linux x86_64,60.0276127,62bbe60bf3d75ef465d3e404,,,,,,,,,,,,,,,,,,,,,,,,,,,,,,,,,,,,,,,,,,,,,,,,,,,,,,,,,,,,,,,,,,,,,,,,,,,,,,,,,,,,,,,,,,,,,,,,,,,,,,,,,,,,,,,,,,,,,,,,,,,,,,,,,,,,,,,,,,,,,,,,,,,,,,,,,,,,,,
0,62,62,32,1,,60dc31374fc70253e7a2d9e9,62bbfb627b006d5efd617960,2022-06-29_09h15.32.053,Colour_Asymmetry_Pilot,2022.1.3,Linux x86_64,60.0276127,62bbe60bf3d75ef465d3e404,,,,,,,,,,,,,,,,,,,,,,,,,,,,,,,,,,,,,,,,,,,,,,,,,,,,,,,,,,,,,,,,,,,,,,,,,,,,,,,,,,,,,,,,,,,,,,,,,,,,,,,,,,,,,,,,,,,,,,,,,,,,,,,,,,,,,,,,,,,,,,,,,,,,,,,,,,,,,,
0,63,63,65,1,,60dc31374fc70253e7a2d9e9,62bbfb627b006d5efd617960,2022-06-29_09h15.32.053,Colour_Asymmetry_Pilot,2022.1.3,Linux x86_64,60.0276127,62bbe60bf3d75ef465d3e404,,,,,,,,,,,,,,,,,,,,,,,,,,,,,,,,,,,,,,,,,,,,,,,,,,,,,,,,,,,,,,,,,,,,,,,,,,,,,,,,,,,,,,,,,,,,,,,,,,,,,,,,,,,,,,,,,,,,,,,,,,,,,,,,,,,,,,,,,,,,,,,,,,,,,,,,,,,,,,
0,64,64,81,1,,60dc31374fc70253e7a2d9e9,62bbfb627b006d5efd617960,2022-06-29_09h15.32.053,Colour_Asymmetry_Pilot,2022.1.3,Linux x86_64,60.0276127,62bbe60bf3d75ef465d3e404,,,,,,,,,,,,,,,,,,,,,,,,,,,,,,,,,,,,,,,,,,,,,,,,,,,,,,,,,,,,,,,,,,,,,,,,,,,,,,,,,,,,,,,,,,,,,,,,,,,,,,,,,,,,,,,,,,,,,,,,,,,,,,,,,,,,,,,,,,,,,,,,,,,,,,,,,,,,,,
0,65,65,91,1,,60dc31374fc70253e7a2d9e9,62bbfb627b006d5efd617960,2022-06-29_09h15.32.053,Colour_Asymmetry_Pilot,2022.1.3,Linux x86_64,60.0276127,62bbe60bf3d75ef465d3e404,,,,,,,,,,,,,,,,,,,,,,,,,,,,,,,,,,,,,,,,,,,,,,,,,,,,,,,,,,,,,,,,,,,,,,,,,,,,,,,,,,,,,,,,,,,,,,,,,,,,,,,,,,,,,,,,,,,,,,,,,,,,,,,,,,,,,,,,,,,,,,,,,,,,,,,,,,,,,,
0,66,66,67,1,,60dc31374fc70253e7a2d9e9,62bbfb627b006d5efd617960,2022-06-29_09h15.32.053,Colour_Asymmetry_Pilot,2022.1.3,Linux x86_64,60.0276127,62bbe60bf3d75ef465d3e404,,,,,,,,,,,,,,,,,,,,,,,,,,,,,,,,,,,,,,,,,,,,,,,,,,,,,,,,,,,,,,,,,,,,,,,,,,,,,,,,,,,,,,,,,,,,,,,,,,,,,,,,,,,,,,,,,,,,,,,,,,,,,,,,,,,,,,,,,,,,,,,,,,,,,,,,,,,,,,
0,67,67,0,1,,60dc31374fc70253e7a2d9e9,62bbfb627b006d5efd617960,2022-06-29_09h15.32.053,Colour_Asymmetry_Pilot,2022.1.3,Linux x86_64,60.0276127,62bbe60bf3d75ef465d3e404,,,,,,,,,,,,,,,,,,,,,,,,,,,,,,,,,,,,,,,,,,,,,,,,,,,,,,,,,,,,,,,,,,,,,,,,,,,,,,,,,,,,,,,,,,,,,,,,,,,,,,,,,,,,,,,,,,,,,,,,,,,,,,,,,,,,,,,,,,,,,,,,,,,,,,,,,,,,,,
0,68,68,16,1,,60dc31374fc70253e7a2d9e9,62bbfb627b006d5efd617960,2022-06-29_09h15.32.053,Colour_Asymmetry_Pilot,2022.1.3,Linux x86_64,60.0276127,62bbe60bf3d75ef465d3e404,,,,,,,,,,,,,,,,,,,,,,,,,,,,,,,,,,,,,,,,,,,,,,,,,,,,,,,,,,,,,,,,,,,,,,,,,,,,,,,,,,,,,,,,,,,,,,,,,,,,,,,,,,,,,,,,,,,,,,,,,,,,,,,,,,,,,,,,,,,,,,,,,,,,,,,,,,,,,,
0,69,69,14,1,,60dc31374fc70253e7a2d9e9,62bbfb627b006d5efd617960,2022-06-29_09h15.32.053,Colour_Asymmetry_Pilot,2022.1.3,Linux x86_64,60.0276127,62bbe60bf3d75ef465d3e404,,,,,,,,,,,,,,,,,,,,,,,,,,,,,,,,,,,,,,,,,,,,,,,,,,,,,,,,,,,,,,,,,,,,,,,,,,,,,,,,,,,,,,,,,,,,,,,,,,,,,,,,,,,,,,,,,,,,,,,,,,,,,,,,,,,,,,,,,,,,,,,,,,,,,,,,,,,,,,
0,70,70,44,1,,60dc31374fc70253e7a2d9e9,62bbfb627b006d5efd617960,2022-06-29_09h15.32.053,Colour_Asymmetry_Pilot,2022.1.3,Linux x86_64,60.0276127,62bbe60bf3d75ef465d3e404,,,,,,,,,,,,,,,,,,,,,,,,,,,,,,,,,,,,,,,,,,,,,,,,,,,,,,,,,,,,,,,,,,,,,,,,,,,,,,,,,,,,,,,,,,,,,,,,,,,,,,,,,,,,,,,,,,,,,,,,,,,,,,,,,,,,,,,,,,,,,,,,,,,,,,,,,,,,,,
0,71,71,8,1,,60dc31374fc70253e7a2d9e9,62bbfb627b006d5efd617960,2022-06-29_09h15.32.053,Colour_Asymmetry_Pilot,2022.1.3,Linux x86_64,60.0276127,62bbe60bf3d75ef465d3e404,,,,,,,,,,,,,,,,,,,,,,,,,,,,,,,,,,,,,,,,,,,,,,,,,,,,,,,,,,,,,,,,,,,,,,,,,,,,,,,,,,,,,,,,,,,,,,,,,,,,,,,,,,,,,,,,,,,,,,,,,,,,,,,,,,,,,,,,,,,,,,,,,,,,,,,,,,,,,,
0,72,72,26,1,,60dc31374fc70253e7a2d9e9,62bbfb627b006d5efd617960,2022-06-29_09h15.32.053,Colour_Asymmetry_Pilot,2022.1.3,Linux x86_64,60.0276127,62bbe60bf3d75ef465d3e404,,,,,,,,,,,,,,,,,,,,,,,,,,,,,,,,,,,,,,,,,,,,,,,,,,,,,,,,,,,,,,,,,,,,,,,,,,,,,,,,,,,,,,,,,,,,,,,,,,,,,,,,,,,,,,,,,,,,,,,,,,,,,,,,,,,,,,,,,,,,,,,,,,,,,,,,,,,,,,
0,73,73,50,1,,60dc31374fc70253e7a2d9e9,62bbfb627b006d5efd617960,2022-06-29_09h15.32.053,Colour_Asymmetry_Pilot,2022.1.3,Linux x86_64,60.0276127,62bbe60bf3d75ef465d3e404,,,,,,,,,,,,,,,,,,,,,,,,,,,,,,,,,,,,,,,,,,,,,,,,,,,,,,,,,,,,,,,,,,,,,,,,,,,,,,,,,,,,,,,,,,,,,,,,,,,,,,,,,,,,,,,,,,,,,,,,,,,,,,,,,,,,,,,,,,,,,,,,,,,,,,,,,,,,,,
0,74,74,21,1,,60dc31374fc70253e7a2d9e9,62bbfb627b006d5efd617960,2022-06-29_09h15.32.053,Colour_Asymmetry_Pilot,2022.1.3,Linux x86_64,60.0276127,62bbe60bf3d75ef465d3e404,,,,,,,,,,,,,,,,,,,,,,,,,,,,,,,,,,,,,,,,,,,,,,,,,,,,,,,,,,,,,,,,,,,,,,,,,,,,,,,,,,,,,,,,,,,,,,,,,,,,,,,,,,,,,,,,,,,,,,,,,,,,,,,,,,,,,,,,,,,,,,,,,,,,,,,,,,,,,,
0,75,75,23,1,,60dc31374fc70253e7a2d9e9,62bbfb627b006d5efd617960,2022-06-29_09h15.32.053,Colour_Asymmetry_Pilot,2022.1.3,Linux x86_64,60.0276127,62bbe60bf3d75ef465d3e404,,,,,,,,,,,,,,,,,,,,,,,,,,,,,,,,,,,,,,,,,,,,,,,,,,,,,,,,,,,,,,,,,,,,,,,,,,,,,,,,,,,,,,,,,,,,,,,,,,,,,,,,,,,,,,,,,,,,,,,,,,,,,,,,,,,,,,,,,,,,,,,,,,,,,,,,,,,,,,
0,76,76,80,1,,60dc31374fc70253e7a2d9e9,62bbfb627b006d5efd617960,2022-06-29_09h15.32.053,Colour_Asymmetry_Pilot,2022.1.3,Linux x86_64,60.0276127,62bbe60bf3d75ef465d3e404,,,,,,,,,,,,,,,,,,,,,,,,,,,,,,,,,,,,,,,,,,,,,,,,,,,,,,,,,,,,,,,,,,,,,,,,,,,,,,,,,,,,,,,,,,,,,,,,,,,,,,,,,,,,,,,,,,,,,,,,,,,,,,,,,,,,,,,,,,,,,,,,,,,,,,,,,,,,,,
0,77,77,20,1,,60dc31374fc70253e7a2d9e9,62bbfb627b006d5efd617960,2022-06-29_09h15.32.053,Colour_Asymmetry_Pilot,2022.1.3,Linux x86_64,60.0276127,62bbe60bf3d75ef465d3e404,,,,,,,,,,,,,,,,,,,,,,,,,,,,,,,,,,,,,,,,,,,,,,,,,,,,,,,,,,,,,,,,,,,,,,,,,,,,,,,,,,,,,,,,,,,,,,,,,,,,,,,,,,,,,,,,,,,,,,,,,,,,,,,,,,,,,,,,,,,,,,,,,,,,,,,,,,,,,,
0,78,78,39,1,,60dc31374fc70253e7a2d9e9,62bbfb627b006d5efd617960,2022-06-29_09h15.32.053,Colour_Asymmetry_Pilot,2022.1.3,Linux x86_64,60.0276127,62bbe60bf3d75ef465d3e404,,,,,,,,,,,,,,,,,,,,,,,,,,,,,,,,,,,,,,,,,,,,,,,,,,,,,,,,,,,,,,,,,,,,,,,,,,,,,,,,,,,,,,,,,,,,,,,,,,,,,,,,,,,,,,,,,,,,,,,,,,,,,,,,,,,,,,,,,,,,,,,,,,,,,,,,,,,,,,
0,79,79,87,1,,60dc31374fc70253e7a2d9e9,62bbfb627b006d5efd617960,2022-06-29_09h15.32.053,Colour_Asymmetry_Pilot,2022.1.3,Linux x86_64,60.0276127,62bbe60bf3d75ef465d3e404,,,,,,,,,,,,,,,,,,,,,,,,,,,,,,,,,,,,,,,,,,,,,,,,,,,,,,,,,,,,,,,,,,,,,,,,,,,,,,,,,,,,,,,,,,,,,,,,,,,,,,,,,,,,,,,,,,,,,,,,,,,,,,,,,,,,,,,,,,,,,,,,,,,,,,,,,,,,,,
0,80,80,56,1,,60dc31374fc70253e7a2d9e9,62bbfb627b006d5efd617960,2022-06-29_09h15.32.053,Colour_Asymmetry_Pilot,2022.1.3,Linux x86_64,60.0276127,62bbe60bf3d75ef465d3e404,,,,,,,,,,,,,,,,,,,,,,,,,,,,,,,,,,,,,,,,,,,,,,,,,,,,,,,,,,,,,,,,,,,,,,,,,,,,,,,,,,,,,,,,,,,,,,,,,,,,,,,,,,,,,,,,,,,,,,,,,,,,,,,,,,,,,,,,,,,,,,,,,,,,,,,,,,,,,,
0,81,81,58,1,,60dc31374fc70253e7a2d9e9,62bbfb627b006d5efd617960,2022-06-29_09h15.32.053,Colour_Asymmetry_Pilot,2022.1.3,Linux x86_64,60.0276127,62bbe60bf3d75ef465d3e404,,,,,,,,,,,,,,,,,,,,,,,,,,,,,,,,,,,,,,,,,,,,,,,,,,,,,,,,,,,,,,,,,,,,,,,,,,,,,,,,,,,,,,,,,,,,,,,,,,,,,,,,,,,,,,,,,,,,,,,,,,,,,,,,,,,,,,,,,,,,,,,,,,,,,,,,,,,,,,
0,82,82,19,1,,60dc31374fc70253e7a2d9e9,62bbfb627b006d5efd617960,2022-06-29_09h15.32.053,Colour_Asymmetry_Pilot,2022.1.3,Linux x86_64,60.0276127,62bbe60bf3d75ef465d3e404,,,,,,,,,,,,,,,,,,,,,,,,,,,,,,,,,,,,,,,,,,,,,,,,,,,,,,,,,,,,,,,,,,,,,,,,,,,,,,,,,,,,,,,,,,,,,,,,,,,,,,,,,,,,,,,,,,,,,,,,,,,,,,,,,,,,,,,,,,,,,,,,,,,,,,,,,,,,,,
0,83,83,7,1,,60dc31374fc70253e7a2d9e9,62bbfb627b006d5efd617960,2022-06-29_09h15.32.053,Colour_Asymmetry_Pilot,2022.1.3,Linux x86_64,60.0276127,62bbe60bf3d75ef465d3e404,,,,,,,,,,,,,,,,,,,,,,,,,,,,,,,,,,,,,,,,,,,,,,,,,,,,,,,,,,,,,,,,,,,,,,,,,,,,,,,,,,,,,,,,,,,,,,,,,,,,,,,,,,,,,,,,,,,,,,,,,,,,,,,,,,,,,,,,,,,,,,,,,,,,,,,,,,,,,,
0,84,84,34,1,,60dc31374fc70253e7a2d9e9,62bbfb627b006d5efd617960,2022-06-29_09h15.32.053,Colour_Asymmetry_Pilot,2022.1.3,Linux x86_64,60.0276127,62bbe60bf3d75ef465d3e404,,,,,,,,,,,,,,,,,,,,,,,,,,,,,,,,,,,,,,,,,,,,,,,,,,,,,,,,,,,,,,,,,,,,,,,,,,,,,,,,,,,,,,,,,,,,,,,,,,,,,,,,,,,,,,,,,,,,,,,,,,,,,,,,,,,,,,,,,,,,,,,,,,,,,,,,,,,,,,
0,85,85,57,1,,60dc31374fc70253e7a2d9e9,62bbfb627b006d5efd617960,2022-06-29_09h15.32.053,Colour_Asymmetry_Pilot,2022.1.3,Linux x86_64,60.0276127,62bbe60bf3d75ef465d3e404,,,,,,,,,,,,,,,,,,,,,,,,,,,,,,,,,,,,,,,,,,,,,,,,,,,,,,,,,,,,,,,,,,,,,,,,,,,,,,,,,,,,,,,,,,,,,,,,,,,,,,,,,,,,,,,,,,,,,,,,,,,,,,,,,,,,,,,,,,,,,,,,,,,,,,,,,,,,,,
0,86,86,69,1,,60dc31374fc70253e7a2d9e9,62bbfb627b006d5efd617960,2022-06-29_09h15.32.053,Colour_Asymmetry_Pilot,2022.1.3,Linux x86_64,60.0276127,62bbe60bf3d75ef465d3e404,,,,,,,,,,,,,,,,,,,,,,,,,,,,,,,,,,,,,,,,,,,,,,,,,,,,,,,,,,,,,,,,,,,,,,,,,,,,,,,,,,,,,,,,,,,,,,,,,,,,,,,,,,,,,,,,,,,,,,,,,,,,,,,,,,,,,,,,,,,,,,,,,,,,,,,,,,,,,,
0,87,87,51,1,,60dc31374fc70253e7a2d9e9,62bbfb627b006d5efd617960,2022-06-29_09h15.32.053,Colour_Asymmetry_Pilot,2022.1.3,Linux x86_64,60.0276127,62bbe60bf3d75ef465d3e404,,,,,,,,,,,,,,,,,,,,,,,,,,,,,,,,,,,,,,,,,,,,,,,,,,,,,,,,,,,,,,,,,,,,,,,,,,,,,,,,,,,,,,,,,,,,,,,,,,,,,,,,,,,,,,,,,,,,,,,,,,,,,,,,,,,,,,,,,,,,,,,,,,,,,,,,,,,,,,
0,88,88,29,1,,60dc31374fc70253e7a2d9e9,62bbfb627b006d5efd617960,2022-06-29_09h15.32.053,Colour_Asymmetry_Pilot,2022.1.3,Linux x86_64,60.0276127,62bbe60bf3d75ef465d3e404,,,,,,,,,,,,,,,,,,,,,,,,,,,,,,,,,,,,,,,,,,,,,,,,,,,,,,,,,,,,,,,,,,,,,,,,,,,,,,,,,,,,,,,,,,,,,,,,,,,,,,,,,,,,,,,,,,,,,,,,,,,,,,,,,,,,,,,,,,,,,,,,,,,,,,,,,,,,,,
0,89,89,82,1,,60dc31374fc70253e7a2d9e9,62bbfb627b006d5efd617960,2022-06-29_09h15.32.053,Colour_Asymmetry_Pilot,2022.1.3,Linux x86_64,60.0276127,62bbe60bf3d75ef465d3e404,,,,,,,,,,,,,,,,,,,,,,,,,,,,,,,,,,,,,,,,,,,,,,,,,,,,,,,,,,,,,,,,,,,,,,,,,,,,,,,,,,,,,,,,,,,,,,,,,,,,,,,,,,,,,,,,,,,,,,,,,,,,,,,,,,,,,,,,,,,,,,,,,,,,,,,,,,,,,,
0,90,90,28,1,,60dc31374fc70253e7a2d9e9,62bbfb627b006d5efd617960,2022-06-29_09h15.32.053,Colour_Asymmetry_Pilot,2022.1.3,Linux x86_64,60.0276127,62bbe60bf3d75ef465d3e404,,,,,,,,,,,,,,,,,,,,,,,,,,,,,,,,,,,,,,,,,,,,,,,,,,,,,,,,,,,,,,,,,,,,,,,,,,,,,,,,,,,,,,,,,,,,,,,,,,,,,,,,,,,,,,,,,,,,,,,,,,,,,,,,,,,,,,,,,,,,,,,,,,,,,,,,,,,,,,
0,91,91,62,1,,60dc31374fc70253e7a2d9e9,62bbfb627b006d5efd617960,2022-06-29_09h15.32.053,Colour_Asymmetry_Pilot,2022.1.3,Linux x86_64,60.0276127,62bbe60bf3d75ef465d3e404,,,,,,,,,,,,,,,,,,,,,,,,,,,,,,,,,,,,,,,,,,,,,,,,,,,,,,,,,,,,,,,,,,,,,,,,,,,,,,,,,,,,,,,,,,,,,,,,,,,,,,,,,,,,,,,,,,,,,,,,,,,,,,,,,,,,,,,,,,,,,,,,,,,,,,,,,,,,,,
0,92,92,1,1,,60dc31374fc70253e7a2d9e9,62bbfb627b006d5efd617960,2022-06-29_09h15.32.053,Colour_Asymmetry_Pilot,2022.1.3,Linux x86_64,60.0276127,62bbe60bf3d75ef465d3e404,,,,,,,,,,,,,,,,,,,,,,,,,,,,,,,,,,,,,,,,,,,,,,,,,,,,,,,,,,,,,,,,,,,,,,,,,,,,,,,,,,,,,,,,,,,,,,,,,,,,,,,,,,,,,,,,,,,,,,,,,,,,,,,,,,,,,,,,,,,,,,,,,,,,,,,,,,,,,,
,,,,,,60dc31374fc70253e7a2d9e9,62bbfb627b006d5efd617960,2022-06-29_09h15.32.053,Colour_Asymmetry_Pilot,2022.1.3,Linux x86_64,60.0276127,62bbe60bf3d75ef465d3e404,0,0,0,143,1,fourthree,,,,,,,,,,,,,,,,,,,,,,,,,,,,,,,,,,,,,,,,,,,,,,,,,,,,,,,,,,,,,,,,,,,,,,,,,,,,,,,,,,,,,,,,,,,,,,,,,,,,,,,,,,,,,,,,,,,,,,,,,,,,,,,,,,,,,,,,,,,,,,,,,,,,,,,,
,,,,,,60dc31374fc70253e7a2d9e9,62bbfb627b006d5efd617960,2022-06-29_09h15.32.053,Colour_Asymmetry_Pilot,2022.1.3,Linux x86_64,60.0276127,62bbe60bf3d75ef465d3e404,0,1,1,0,1,onetwo,,,,,,,,,,,,,,,,,,,,,,,,,,,,,,,,,,,,,,,,,,,,,,,,,,,,,,,,,,,,,,,,,,,,,,,,,,,,,,,,,,,,,,,,,,,,,,,,,,,,,,,,,,,,,,,,,,,,,,,,,,,,,,,,,,,,,,,,,,,,,,,,,,,,,,,,
,,,,,,60dc31374fc70253e7a2d9e9,62bbfb627b006d5efd617960,2022-06-29_09h15.32.053,Colour_Asymmetry_Pilot,2022.1.3,Linux x86_64,60.0276127,62bbe60bf3d75ef465d3e404,0,2,2,81,1,onethree,,,,,,,,,,,,,,,,,,,,,,,,,,,,,,,,,,,,,,,,,,,,,,,,,,,,,,,,,,,,,,,,,,,,,,,,,,,,,,,,,,,,,,,,,,,,,,,,,,,,,,,,,,,,,,,,,,,,,,,,,,,,,,,,,,,,,,,,,,,,,,,,,,,,,,,,
,,,,,,60dc31374fc70253e7a2d9e9,62bbfb627b006d5efd617960,2022-06-29_09h15.32.053,Colour_Asymmetry_Pilot,2022.1.3,Linux x86_64,60.0276127,62bbe60bf3d75ef465d3e404,0,3,3,114,1,twoone,,,,,,,,,,,,,,,,,,,,,,,,,,,,,,,,,,,,,,,,,,,,,,,,,,,,,,,,,,,,,,,,,,,,,,,,,,,,,,,,,,,,,,,,,,,,,,,,,,,,,,,,,,,,,,,,,,,,,,,,,,,,,,,,,,,,,,,,,,,,,,,,,,,,,,,,
,,,,,,60dc31374fc70253e7a2d9e9,62bbfb627b006d5efd617960,2022-06-29_09h15.32.053,Colour_Asymmetry_Pilot,2022.1.3,Linux x86_64,60.0276127,62bbe60bf3d75ef465d3e404,0,4,4,15,1,fourthree,,,,,,,,,,,,,,,,,,,,,,,,,,,,,,,,,,,,,,,,,,,,,,,,,,,,,,,,,,,,,,,,,,,,,,,,,,,,,,,,,,,,,,,,,,,,,,,,,,,,,,,,,,,,,,,,,,,,,,,,,,,,,,,,,,,,,,,,,,,,,,,,,,,,,,,,
,,,,,,60dc31374fc70253e7a2d9e9,62bbfb627b006d5efd617960,2022-06-29_09h15.32.053,Colour_Asymmetry_Pilot,2022.1.3,Linux x86_64,60.0276127,62bbe60bf3d75ef465d3e404,0,5,5,48,1,onetwo,,,,,,,,,,,,,,,,,,,,,,,,,,,,,,,,,,,,,,,,,,,,,,,,,,,,,,,,,,,,,,,,,,,,,,,,,,,,,,,,,,,,,,,,,,,,,,,,,,,,,,,,,,,,,,,,,,,,,,,,,,,,,,,,,,,,,,,,,,,,,,,,,,,,,,,,
,,,,,,60dc31374fc70253e7a2d9e9,62bbfb627b006d5efd617960,2022-06-29_09h15.32.053,Colour_Asymmetry_Pilot,2022.1.3,Linux x86_64,60.0276127,62bbe60bf3d75ef465d3e404,0,6,6,146,1,twoone,,,,,,,,,,,,,,,,,,,,,,,,,,,,,,,,,,,,,,,,,,,,,,,,,,,,,,,,,,,,,,,,,,,,,,,,,,,,,,,,,,,,,,,,,,,,,,,,,,,,,,,,,,,,,,,,,,,,,,,,,,,,,,,,,,,,,,,,,,,,,,,,,,,,,,,,
,,,,,,60dc31374fc70253e7a2d9e9,62bbfb627b006d5efd617960,2022-06-29_09h15.32.053,Colour_Asymmetry_Pilot,2022.1.3,Linux x86_64,60.0276127,62bbe60bf3d75ef465d3e404,0,7,7,139,1,twofour,,,,,,,,,,,,,,,,,,,,,,,,,,,,,,,,,,,,,,,,,,,,,,,,,,,,,,,,,,,,,,,,,,,,,,,,,,,,,,,,,,,,,,,,,,,,,,,,,,,,,,,,,,,,,,,,,,,,,,,,,,,,,,,,,,,,,,,,,,,,,,,,,,,,,,,,
,,,,,,60dc31374fc70253e7a2d9e9,62bbfb627b006d5efd617960,2022-06-29_09h15.32.053,Colour_Asymmetry_Pilot,2022.1.3,Linux x86_64,60.0276127,62bbe60bf3d75ef465d3e404,0,8,8,128,1,onetwo,,,,,,,,,,,,,,,,,,,,,,,,,,,,,,,,,,,,,,,,,,,,,,,,,,,,,,,,,,,,,,,,,,,,,,,,,,,,,,,,,,,,,,,,,,,,,,,,,,,,,,,,,,,,,,,,,,,,,,,,,,,,,,,,,,,,,,,,,,,,,,,,,,,,,,,,
,,,,,,60dc31374fc70253e7a2d9e9,62bbfb627b006d5efd617960,2022-06-29_09h15.32.053,Colour_Asymmetry_Pilot,2022.1.3,Linux x86_64,60.0276127,62bbe60bf3d75ef465d3e404,0,9,9,68,1,threeone,,,,,,,,,,,,,,,,,,,,,,,,,,,,,,,,,,,,,,,,,,,,,,,,,,,,,,,,,,,,,,,,,,,,,,,,,,,,,,,,,,,,,,,,,,,,,,,,,,,,,,,,,,,,,,,,,,,,,,,,,,,,,,,,,,,,,,,,,,,,,,,,,,,,,,,,
,,,,,,60dc31374fc70253e7a2d9e9,62bbfb627b006d5efd617960,2022-06-29_09h15.32.053,Colour_Asymmetry_Pilot,2022.1.3,Linux x86_64,60.0276127,62bbe60bf3d75ef465d3e404,0,10,10,152,1,onetwo,,,,,,,,,,,,,,,,,,,,,,,,,,,,,,,,,,,,,,,,,,,,,,,,,,,,,,,,,,,,,,,,,,,,,,,,,,,,,,,,,,,,,,,,,,,,,,,,,,,,,,,,,,,,,,,,,,,,,,,,,,,,,,,,,,,,,,,,,,,,,,,,,,,,,,,,
,,,,,,60dc31374fc70253e7a2d9e9,62bbfb627b006d5efd617960,2022-06-29_09h15.32.053,Colour_Asymmetry_Pilot,2022.1.3,Linux x86_64,60.0276127,62bbe60bf3d75ef465d3e404,0,11,11,60,1,threeone,,,,,,,,,,,,,,,,,,,,,,,,,,,,,,,,,,,,,,,,,,,,,,,,,,,,,,,,,,,,,,,,,,,,,,,,,,,,,,,,,,,,,,,,,,,,,,,,,,,,,,,,,,,,,,,,,,,,,,,,,,,,,,,,,,,,,,,,,,,,,,,,,,,,,,,,
,,,,,,60dc31374fc70253e7a2d9e9,62bbfb627b006d5efd617960,2022-06-29_09h15.32.053,Colour_Asymmetry_Pilot,2022.1.3,Linux x86_64,60.0276127,62bbe60bf3d75ef465d3e404,0,12,12,87,1,fourthree,,,,,,,,,,,,,,,,,,,,,,,,,,,,,,,,,,,,,,,,,,,,,,,,,,,,,,,,,,,,,,,,,,,,,,,,,,,,,,,,,,,,,,,,,,,,,,,,,,,,,,,,,,,,,,,,,,,,,,,,,,,,,,,,,,,,,,,,,,,,,,,,,,,,,,,,
,,,,,,60dc31374fc70253e7a2d9e9,62bbfb627b006d5efd617960,2022-06-29_09h15.32.053,Colour_Asymmetry_Pilot,2022.1.3,Linux x86_64,60.0276127,62bbe60bf3d75ef465d3e404,0,13,13,108,1,threeone,,,,,,,,,,,,,,,,,,,,,,,,,,,,,,,,,,,,,,,,,,,,,,,,,,,,,,,,,,,,,,,,,,,,,,,,,,,,,,,,,,,,,,,,,,,,,,,,,,,,,,,,,,,,,,,,,,,,,,,,,,,,,,,,,,,,,,,,,,,,,,,,,,,,,,,,
,,,,,,60dc31374fc70253e7a2d9e9,62bbfb627b006d5efd617960,2022-06-29_09h15.32.053,Colour_Asymmetry_Pilot,2022.1.3,Linux x86_64,60.0276127,62bbe60bf3d75ef465d3e404,0,14,14,75,1,twofour,,,,,,,,,,,,,,,,,,,,,,,,,,,,,,,,,,,,,,,,,,,,,,,,,,,,,,,,,,,,,,,,,,,,,,,,,,,,,,,,,,,,,,,,,,,,,,,,,,,,,,,,,,,,,,,,,,,,,,,,,,,,,,,,,,,,,,,,,,,,,,,,,,,,,,,,
,,,,,,60dc31374fc70253e7a2d9e9,62bbfb627b006d5efd617960,2022-06-29_09h15.32.053,Colour_Asymmetry_Pilot,2022.1.3,Linux x86_64,60.0276127,62bbe60bf3d75ef465d3e404,0,15,15,61,1,threefour,,,,,,,,,,,,,,,,,,,,,,,,,,,,,,,,,,,,,,,,,,,,,,,,,,,,,,,,,,,,,,,,,,,,,,,,,,,,,,,,,,,,,,,,,,,,,,,,,,,,,,,,,,,,,,,,,,,,,,,,,,,,,,,,,,,,,,,,,,,,,,,,,,,,,,,,
,,,,,,60dc31374fc70253e7a2d9e9,62bbfb627b006d5efd617960,2022-06-29_09h15.32.053,Colour_Asymmetry_Pilot,2022.1.3,Linux x86_64,60.0276127,62bbe60bf3d75ef465d3e404,0,16,16,6,1,fourtwo,,,,,,,,,,,,,,,,,,,,,,,,,,,,,,,,,,,,,,,,,,,,,,,,,,,,,,,,,,,,,,,,,,,,,,,,,,,,,,,,,,,,,,,,,,,,,,,,,,,,,,,,,,,,,,,,,,,,,,,,,,,,,,,,,,,,,,,,,,,,,,,,,,,,,,,,
,,,,,,60dc31374fc70253e7a2d9e9,62bbfb627b006d5efd617960,2022-06-29_09h15.32.053,Colour_Asymmetry_Pilot,2022.1.3,Linux x86_64,60.0276127,62bbe60bf3d75ef465d3e404,0,17,17,39,1,fourthree,,,,,,,,,,,,,,,,,,,,,,,,,,,,,,,,,,,,,,,,,,,,,,,,,,,,,,,,,,,,,,,,,,,,,,,,,,,,,,,,,,,,,,,,,,,,,,,,,,,,,,,,,,,,,,,,,,,,,,,,,,,,,,,,,,,,,,,,,,,,,,,,,,,,,,,,
,,,,,,60dc31374fc70253e7a2d9e9,62bbfb627b006d5efd617960,2022-06-29_09h15.32.053,Colour_Asymmetry_Pilot,2022.1.3,Linux x86_64,60.0276127,62bbe60bf3d75ef465d3e404,0,18,18,56,1,onetwo,,,,,,,,,,,,,,,,,,,,,,,,,,,,,,,,,,,,,,,,,,,,,,,,,,,,,,,,,,,,,,,,,,,,,,,,,,,,,,,,,,,,,,,,,,,,,,,,,,,,,,,,,,,,,,,,,,,,,,,,,,,,,,,,,,,,,,,,,,,,,,,,,,,,,,,,
,,,,,,60dc31374fc70253e7a2d9e9,62bbfb627b006d5efd617960,2022-06-29_09h15.32.053,Colour_Asymmetry_Pilot,2022.1.3,Linux x86_64,60.0276127,62bbe60bf3d75ef465d3e404,0,19,19,45,1,threefour,,,,,,,,,,,,,,,,,,,,,,,,,,,,,,,,,,,,,,,,,,,,,,,,,,,,,,,,,,,,,,,,,,,,,,,,,,,,,,,,,,,,,,,,,,,,,,,,,,,,,,,,,,,,,,,,,,,,,,,,,,,,,,,,,,,,,,,,,,,,,,,,,,,,,,,,
,,,,,,60dc31374fc70253e7a2d9e9,62bbfb627b006d5efd617960,2022-06-29_09h15.32.053,Colour_Asymmetry_Pilot,2022.1.3,Linux x86_64,60.0276127,62bbe60bf3d75ef465d3e404,0,20,20,5,1,threefour,,,,,,,,,,,,,,,,,,,,,,,,,,,,,,,,,,,,,,,,,,,,,,,,,,,,,,,,,,,,,,,,,,,,,,,,,,,,,,,,,,,,,,,,,,,,,,,,,,,,,,,,,,,,,,,,,,,,,,,,,,,,,,,,,,,,,,,,,,,,,,,,,,,,,,,,
,,,,,,60dc31374fc70253e7a2d9e9,62bbfb627b006d5efd617960,2022-06-29_09h15.32.053,Colour_Asymmetry_Pilot,2022.1.3,Linux x86_64,60.0276127,62bbe60bf3d75ef465d3e404,0,21,21,95,1,fourthree,,,,,,,,,,,,,,,,,,,,,,,,,,,,,,,,,,,,,,,,,,,,,,,,,,,,,,,,,,,,,,,,,,,,,,,,,,,,,,,,,,,,,,,,,,,,,,,,,,,,,,,,,,,,,,,,,,,,,,,,,,,,,,,,,,,,,,,,,,,,,,,,,,,,,,,,
,,,,,,60dc31374fc70253e7a2d9e9,62bbfb627b006d5efd617960,2022-06-29_09h15.32.053,Colour_Asymmetry_Pilot,2022.1.3,Linux x86_64,60.0276127,62bbe60bf3d75ef465d3e404,0,22,22,42,1,twoone,,,,,,,,,,,,,,,,,,,,,,,,,,,,,,,,,,,,,,,,,,,,,,,,,,,,,,,,,,,,,,,,,,,,,,,,,,,,,,,,,,,,,,,,,,,,,,,,,,,,,,,,,,,,,,,,,,,,,,,,,,,,,,,,,,,,,,,,,,,,,,,,,,,,,,,,
,,,,,,60dc31374fc70253e7a2d9e9,62bbfb627b006d5efd617960,2022-06-29_09h15.32.053,Colour_Asymmetry_Pilot,2022.1.3,Linux x86_64,60.0276127,62bbe60bf3d75ef465d3e404,0,23,23,40,1,onetwo,,,,,,,,,,,,,,,,,,,,,,,,,,,,,,,,,,,,,,,,,,,,,,,,,,,,,,,,,,,,,,,,,,,,,,,,,,,,,,,,,,,,,,,,,,,,,,,,,,,,,,,,,,,,,,,,,,,,,,,,,,,,,,,,,,,,,,,,,,,,,,,,,,,,,,,,
,,,,,,60dc31374fc70253e7a2d9e9,62bbfb627b006d5efd617960,2022-06-29_09h15.32.053,Colour_Asymmetry_Pilot,2022.1.3,Linux x86_64,60.0276127,62bbe60bf3d75ef465d3e404,0,24,24,74,1,twoone,,,,,,,,,,,,,,,,,,,,,,,,,,,,,,,,,,,,,,,,,,,,,,,,,,,,,,,,,,,,,,,,,,,,,,,,,,,,,,,,,,,,,,,,,,,,,,,,,,,,,,,,,,,,,,,,,,,,,,,,,,,,,,,,,,,,,,,,,,,,,,,,,,,,,,,,
,,,,,,60dc31374fc70253e7a2d9e9,62bbfb627b006d5efd617960,2022-06-29_09h15.32.053,Colour_Asymmetry_Pilot,2022.1.3,Linux x86_64,60.0276127,62bbe60bf3d75ef465d3e404,0,25,25,121,1,onethree,,,,,,,,,,,,,,,,,,,,,,,,,,,,,,,,,,,,,,,,,,,,,,,,,,,,,,,,,,,,,,,,,,,,,,,,,,,,,,,,,,,,,,,,,,,,,,,,,,,,,,,,,,,,,,,,,,,,,,,,,,,,,,,,,,,,,,,,,,,,,,,,,,,,,,,,
,,,,,,60dc31374fc70253e7a2d9e9,62bbfb627b006d5efd617960,2022-06-29_09h15.32.053,Colour_Asymmetry_Pilot,2022.1.3,Linux x86_64,60.0276127,62bbe60bf3d75ef465d3e404,0,26,26,118,1,fourtwo,,,,,,,,,,,,,,,,,,,,,,,,,,,,,,,,,,,,,,,,,,,,,,,,,,,,,,,,,,,,,,,,,,,,,,,,,,,,,,,,,,,,,,,,,,,,,,,,,,,,,,,,,,,,,,,,,,,,,,,,,,,,,,,,,,,,,,,,,,,,,,,,,,,,,,,,
,,,,,,60dc31374fc70253e7a2d9e9,62bbfb627b006d5efd617960,2022-06-29_09h15.32.053,Colour_Asymmetry_Pilot,2022.1.3,Linux x86_64,60.0276127,62bbe60bf3d75ef465d3e404,0,27,27,151,1,fourthree,,,,,,,,,,,,,,,,,,,,,,,,,,,,,,,,,,,,,,,,,,,,,,,,,,,,,,,,,,,,,,,,,,,,,,,,,,,,,,,,,,,,,,,,,,,,,,,,,,,,,,,,,,,,,,,,,,,,,,,,,,,,,,,,,,,,,,,,,,,,,,,,,,,,,,,,
,,,,,,60dc31374fc70253e7a2d9e9,62bbfb627b006d5efd617960,2022-06-29_09h15.32.053,Colour_Asymmetry_Pilot,2022.1.3,Linux x86_64,60.0276127,62bbe60bf3d75ef465d3e404,0,28,28,28,1,threeone,,,,,,,,,,,,,,,,,,,,,,,,,,,,,,,,,,,,,,,,,,,,,,,,,,,,,,,,,,,,,,,,,,,,,,,,,,,,,,,,,,,,,,,,,,,,,,,,,,,,,,,,,,,,,,,,,,,,,,,,,,,,,,,,,,,,,,,,,,,,,,,,,,,,,,,,
,,,,,,60dc31374fc70253e7a2d9e9,62bbfb627b006d5efd617960,2022-06-29_09h15.32.053,Colour_Asymmetry_Pilot,2022.1.3,Linux x86_64,60.0276127,62bbe60bf3d75ef465d3e404,0,29,29,30,1,fourtwo,,,,,,,,,,,,,,,,,,,,,,,,,,,,,,,,,,,,,,,,,,,,,,,,,,,,,,,,,,,,,,,,,,,,,,,,,,,,,,,,,,,,,,,,,,,,,,,,,,,,,,,,,,,,,,,,,,,,,,,,,,,,,,,,,,,,,,,,,,,,,,,,,,,,,,,,
,,,,,,60dc31374fc70253e7a2d9e9,62bbfb627b006d5efd617960,2022-06-29_09h15.32.053,Colour_Asymmetry_Pilot,2022.1.3,Linux x86_64,60.0276127,62bbe60bf3d75ef465d3e404,0,30,30,77,1,threefour,,,,,,,,,,,,,,,,,,,,,,,,,,,,,,,,,,,,,,,,,,,,,,,,,,,,,,,,,,,,,,,,,,,,,,,,,,,,,,,,,,,,,,,,,,,,,,,,,,,,,,,,,,,,,,,,,,,,,,,,,,,,,,,,,,,,,,,,,,,,,,,,,,,,,,,,
,,,,,,60dc31374fc70253e7a2d9e9,62bbfb627b006d5efd617960,2022-06-29_09h15.32.053,Colour_Asymmetry_Pilot,2022.1.3,Linux x86_64,60.0276127,62bbe60bf3d75ef465d3e404,0,31,31,37,1,threefour,,,,,,,,,,,,,,,,,,,,,,,,,,,,,,,,,,,,,,,,,,,,,,,,,,,,,,,,,,,,,,,,,,,,,,,,,,,,,,,,,,,,,,,,,,,,,,,,,,,,,,,,,,,,,,,,,,,,,,,,,,,,,,,,,,,,,,,,,,,,,,,,,,,,,,,,
,,,,,,60dc31374fc70253e7a2d9e9,62bbfb627b006d5efd617960,2022-06-29_09h15.32.053,Colour_Asymmetry_Pilot,2022.1.3,Linux x86_64,60.0276127,62bbe60bf3d75ef465d3e404,0,32,32,63,1,fourthree,,,,,,,,,,,,,,,,,,,,,,,,,,,,,,,,,,,,,,,,,,,,,,,,,,,,,,,,,,,,,,,,,,,,,,,,,,,,,,,,,,,,,,,,,,,,,,,,,,,,,,,,,,,,,,,,,,,,,,,,,,,,,,,,,,,,,,,,,,,,,,,,,,,,,,,,
,,,,,,60dc31374fc70253e7a2d9e9,62bbfb627b006d5efd617960,2022-06-29_09h15.32.053,Colour_Asymmetry_Pilot,2022.1.3,Linux x86_64,60.0276127,62bbe60bf3d75ef465d3e404,0,33,33,145,1,onethree,,,,,,,,,,,,,,,,,,,,,,,,,,,,,,,,,,,,,,,,,,,,,,,,,,,,,,,,,,,,,,,,,,,,,,,,,,,,,,,,,,,,,,,,,,,,,,,,,,,,,,,,,,,,,,,,,,,,,,,,,,,,,,,,,,,,,,,,,,,,,,,,,,,,,,,,
,,,,,,60dc31374fc70253e7a2d9e9,62bbfb627b006d5efd617960,2022-06-29_09h15.32.053,Colour_Asymmetry_Pilot,2022.1.3,Linux x86_64,60.0276127,62bbe60bf3d75ef465d3e404,0,34,34,10,1,twoone,,,,,,,,,,,,,,,,,,,,,,,,,,,,,,,,,,,,,,,,,,,,,,,,,,,,,,,,,,,,,,,,,,,,,,,,,,,,,,,,,,,,,,,,,,,,,,,,,,,,,,,,,,,,,,,,,,,,,,,,,,,,,,,,,,,,,,,,,,,,,,,,,,,,,,,,
,,,,,,60dc31374fc70253e7a2d9e9,62bbfb627b006d5efd617960,2022-06-29_09h15.32.053,Colour_Asymmetry_Pilot,2022.1.3,Linux x86_64,60.0276127,62bbe60bf3d75ef465d3e404,0,35,35,127,1,fourthree,,,,,,,,,,,,,,,,,,,,,,,,,,,,,,,,,,,,,,,,,,,,,,,,,,,,,,,,,,,,,,,,,,,,,,,,,,,,,,,,,,,,,,,,,,,,,,,,,,,,,,,,,,,,,,,,,,,,,,,,,,,,,,,,,,,,,,,,,,,,,,,,,,,,,,,,
,,,,,,60dc31374fc70253e7a2d9e9,62bbfb627b006d5efd617960,2022-06-29_09h15.32.053,Colour_Asymmetry_Pilot,2022.1.3,Linux x86_64,60.0276127,62bbe60bf3d75ef465d3e404,0,36,36,88,1,onetwo,,,,,,,,,,,,,,,,,,,,,,,,,,,,,,,,,,,,,,,,,,,,,,,,,,,,,,,,,,,,,,,,,,,,,,,,,,,,,,,,,,,,,,,,,,,,,,,,,,,,,,,,,,,,,,,,,,,,,,,,,,,,,,,,,,,,,,,,,,,,,,,,,,,,,,,,
,,,,,,60dc31374fc70253e7a2d9e9,62bbfb627b006d5efd617960,2022-06-29_09h15.32.053,Colour_Asymmetry_Pilot,2022.1.3,Linux x86_64,60.0276127,62bbe60bf3d75ef465d3e404,0,37,37,67,1,twofour,,,,,,,,,,,,,,,,,,,,,,,,,,,,,,,,,,,,,,,,,,,,,,,,,,,,,,,,,,,,,,,,,,,,,,,,,,,,,,,,,,,,,,,,,,,,,,,,,,,,,,,,,,,,,,,,,,,,,,,,,,,,,,,,,,,,,,,,,,,,,,,,,,,,,,,,
,,,,,,60dc31374fc70253e7a2d9e9,62bbfb627b006d5efd617960,2022-06-29_09h15.32.053,Colour_Asymmetry_Pilot,2022.1.3,Linux x86_64,60.0276127,62bbe60bf3d75ef465d3e404,0,38,38,17,1,onethree,,,,,,,,,,,,,,,,,,,,,,,,,,,,,,,,,,,,,,,,,,,,,,,,,,,,,,,,,,,,,,,,,,,,,,,,,,,,,,,,,,,,,,,,,,,,,,,,,,,,,,,,,,,,,,,,,,,,,,,,,,,,,,,,,,,,,,,,,,,,,,,,,,,,,,,,
,,,,,,60dc31374fc70253e7a2d9e9,62bbfb627b006d5efd617960,2022-06-29_09h15.32.053,Colour_Asymmetry_Pilot,2022.1.3,Linux x86_64,60.0276127,62bbe60bf3d75ef465d3e404,0,39,39,153,1,onethree,,,,,,,,,,,,,,,,,,,,,,,,,,,,,,,,,,,,,,,,,,,,,,,,,,,,,,,,,,,,,,,,,,,,,,,,,,,,,,,,,,,,,,,,,,,,,,,,,,,,,,,,,,,,,,,,,,,,,,,,,,,,,,,,,,,,,,,,,,,,,,,,,,,,,,,,
,,,,,,60dc31374fc70253e7a2d9e9,62bbfb627b006d5efd617960,2022-06-29_09h15.32.053,Colour_Asymmetry_Pilot,2022.1.3,Linux x86_64,60.0276127,62bbe60bf3d75ef465d3e404,0,40,40,82,1,twoone,,,,,,,,,,,,,,,,,,,,,,,,,,,,,,,,,,,,,,,,,,,,,,,,,,,,,,,,,,,,,,,,,,,,,,,,,,,,,,,,,,,,,,,,,,,,,,,,,,,,,,,,,,,,,,,,,,,,,,,,,,,,,,,,,,,,,,,,,,,,,,,,,,,,,,,,
,,,,,,60dc31374fc70253e7a2d9e9,62bbfb627b006d5efd617960,2022-06-29_09h15.32.053,Colour_Asymmetry_Pilot,2022.1.3,Linux x86_64,60.0276127,62bbe60bf3d75ef465d3e404,0,41,41,92,1,threeone,,,,,,,,,,,,,,,,,,,,,,,,,,,,,,,,,,,,,,,,,,,,,,,,,,,,,,,,,,,,,,,,,,,,,,,,,,,,,,,,,,,,,,,,,,,,,,,,,,,,,,,,,,,,,,,,,,,,,,,,,,,,,,,,,,,,,,,,,,,,,,,,,,,,,,,,
,,,,,,60dc31374fc70253e7a2d9e9,62bbfb627b006d5efd617960,2022-06-29_09h15.32.053,Colour_Asymmetry_Pilot,2022.1.3,Linux x86_64,60.0276127,62bbe60bf3d75ef465d3e404,0,42,42,69,1,threefour,,,,,,,,,,,,,,,,,,,,,,,,,,,,,,,,,,,,,,,,,,,,,,,,,,,,,,,,,,,,,,,,,,,,,,,,,,,,,,,,,,,,,,,,,,,,,,,,,,,,,,,,,,,,,,,,,,,,,,,,,,,,,,,,,,,,,,,,,,,,,,,,,,,,,,,,
,,,,,,60dc31374fc70253e7a2d9e9,62bbfb627b006d5efd617960,2022-06-29_09h15.32.053,Colour_Asymmetry_Pilot,2022.1.3,Linux x86_64,60.0276127,62bbe60bf3d75ef465d3e404,0,43,43,14,1,fourtwo,,,,,,,,,,,,,,,,,,,,,,,,,,,,,,,,,,,,,,,,,,,,,,,,,,,,,,,,,,,,,,,,,,,,,,,,,,,,,,,,,,,,,,,,,,,,,,,,,,,,,,,,,,,,,,,,,,,,,,,,,,,,,,,,,,,,,,,,,,,,,,,,,,,,,,,,
,,,,,,60dc31374fc70253e7a2d9e9,62bbfb627b006d5efd617960,2022-06-29_09h15.32.053,Colour_Asymmetry_Pilot,2022.1.3,Linux x86_64,60.0276127,62bbe60bf3d75ef465d3e404,0,44,44,51,1,twofour,,,,,,,,,,,,,,,,,,,,,,,,,,,,,,,,,,,,,,,,,,,,,,,,,,,,,,,,,,,,,,,,,,,,,,,,,,,,,,,,,,,,,,,,,,,,,,,,,,,,,,,,,,,,,,,,,,,,,,,,,,,,,,,,,,,,,,,,,,,,,,,,,,,,,,,,
,,,,,,60dc31374fc70253e7a2d9e9,62bbfb627b006d5efd617960,2022-06-29_09h15.32.053,Colour_Asymmetry_Pilot,2022.1.3,Linux x86_64,60.0276127,62bbe60bf3d75ef465d3e404,0,45,45,113,1,onethree,,,,,,,,,,,,,,,,,,,,,,,,,,,,,,,,,,,,,,,,,,,,,,,,,,,,,,,,,,,,,,,,,,,,,,,,,,,,,,,,,,,,,,,,,,,,,,,,,,,,,,,,,,,,,,,,,,,,,,,,,,,,,,,,,,,,,,,,,,,,,,,,,,,,,,,,
,,,,,,60dc31374fc70253e7a2d9e9,62bbfb627b006d5efd617960,2022-06-29_09h15.32.053,Colour_Asymmetry_Pilot,2022.1.3,Linux x86_64,60.0276127,62bbe60bf3d75ef465d3e404,0,46,46,103,1,fourthree,,,,,,,,,,,,,,,,,,,,,,,,,,,,,,,,,,,,,,,,,,,,,,,,,,,,,,,,,,,,,,,,,,,,,,,,,,,,,,,,,,,,,,,,,,,,,,,,,,,,,,,,,,,,,,,,,,,,,,,,,,,,,,,,,,,,,,,,,,,,,,,,,,,,,,,,
,,,,,,60dc31374fc70253e7a2d9e9,62bbfb627b006d5efd617960,2022-06-29_09h15.32.053,Colour_Asymmetry_Pilot,2022.1.3,Linux x86_64,60.0276127,62bbe60bf3d75ef465d3e404,0,47,47,105,1,onethree,,,,,,,,,,,,,,,,,,,,,,,,,,,,,,,,,,,,,,,,,,,,,,,,,,,,,,,,,,,,,,,,,,,,,,,,,,,,,,,,,,,,,,,,,,,,,,,,,,,,,,,,,,,,,,,,,,,,,,,,,,,,,,,,,,,,,,,,,,,,,,,,,,,,,,,,
,,,,,,60dc31374fc70253e7a2d9e9,62bbfb627b006d5efd617960,2022-06-29_09h15.32.053,Colour_Asymmetry_Pilot,2022.1.3,Linux x86_64,60.0276127,62bbe60bf3d75ef465d3e404,0,48,48,57,1,onethree,,,,,,,,,,,,,,,,,,,,,,,,,,,,,,,,,,,,,,,,,,,,,,,,,,,,,,,,,,,,,,,,,,,,,,,,,,,,,,,,,,,,,,,,,,,,,,,,,,,,,,,,,,,,,,,,,,,,,,,,,,,,,,,,,,,,,,,,,,,,,,,,,,,,,,,,
,,,,,,60dc31374fc70253e7a2d9e9,62bbfb627b006d5efd617960,2022-06-29_09h15.32.053,Colour_Asymmetry_Pilot,2022.1.3,Linux x86_64,60.0276127,62bbe60bf3d75ef465d3e404,0,49,49,27,1,twofour,,,,,,,,,,,,,,,,,,,,,,,,,,,,,,,,,,,,,,,,,,,,,,,,,,,,,,,,,,,,,,,,,,,,,,,,,,,,,,,,,,,,,,,,,,,,,,,,,,,,,,,,,,,,,,,,,,,,,,,,,,,,,,,,,,,,,,,,,,,,,,,,,,,,,,,,
,,,,,,60dc31374fc70253e7a2d9e9,62bbfb627b006d5efd617960,2022-06-29_09h15.32.053,Colour_Asymmetry_Pilot,2022.1.3,Linux x86_64,60.0276127,62bbe60bf3d75ef465d3e404,0,50,50,94,1,fourtwo,,,,,,,,,,,,,,,,,,,,,,,,,,,,,,,,,,,,,,,,,,,,,,,,,,,,,,,,,,,,,,,,,,,,,,,,,,,,,,,,,,,,,,,,,,,,,,,,,,,,,,,,,,,,,,,,,,,,,,,,,,,,,,,,,,,,,,,,,,,,,,,,,,,,,,,,
,,,,,,60dc31374fc70253e7a2d9e9,62bbfb627b006d5efd617960,2022-06-29_09h15.32.053,Colour_Asymmetry_Pilot,2022.1.3,Linux x86_64,60.0276127,62bbe60bf3d75ef465d3e404,0,51,51,73,1,onethree,,,,,,,,,,,,,,,,,,,,,,,,,,,,,,,,,,,,,,,,,,,,,,,,,,,,,,,,,,,,,,,,,,,,,,,,,,,,,,,,,,,,,,,,,,,,,,,,,,,,,,,,,,,,,,,,,,,,,,,,,,,,,,,,,,,,,,,,,,,,,,,,,,,,,,,,
,,,,,,60dc31374fc70253e7a2d9e9,62bbfb627b006d5efd617960,2022-06-29_09h15.32.053,Colour_Asymmetry_Pilot,2022.1.3,Linux x86_64,60.0276127,62bbe60bf3d75ef465d3e404,0,52,52,157,1,threefour,,,,,,,,,,,,,,,,,,,,,,,,,,,,,,,,,,,,,,,,,,,,,,,,,,,,,,,,,,,,,,,,,,,,,,,,,,,,,,,,,,,,,,,,,,,,,,,,,,,,,,,,,,,,,,,,,,,,,,,,,,,,,,,,,,,,,,,,,,,,,,,,,,,,,,,,
,,,,,,60dc31374fc70253e7a2d9e9,62bbfb627b006d5efd617960,2022-06-29_09h15.32.053,Colour_Asymmetry_Pilot,2022.1.3,Linux x86_64,60.0276127,62bbe60bf3d75ef465d3e404,0,53,53,66,1,twoone,,,,,,,,,,,,,,,,,,,,,,,,,,,,,,,,,,,,,,,,,,,,,,,,,,,,,,,,,,,,,,,,,,,,,,,,,,,,,,,,,,,,,,,,,,,,,,,,,,,,,,,,,,,,,,,,,,,,,,,,,,,,,,,,,,,,,,,,,,,,,,,,,,,,,,,,
,,,,,,60dc31374fc70253e7a2d9e9,62bbfb627b006d5efd617960,2022-06-29_09h15.32.053,Colour_Asymmetry_Pilot,2022.1.3,Linux x86_64,60.0276127,62bbe60bf3d75ef465d3e404,0,54,54,110,1,fourtwo,,,,,,,,,,,,,,,,,,,,,,,,,,,,,,,,,,,,,,,,,,,,,,,,,,,,,,,,,,,,,,,,,,,,,,,,,,,,,,,,,,,,,,,,,,,,,,,,,,,,,,,,,,,,,,,,,,,,,,,,,,,,,,,,,,,,,,,,,,,,,,,,,,,,,,,,
,,,,,,60dc31374fc70253e7a2d9e9,62bbfb627b006d5efd617960,2022-06-29_09h15.32.053,Colour_Asymmetry_Pilot,2022.1.3,Linux x86_64,60.0276127,62bbe60bf3d75ef465d3e404,0,55,55,142,1,fourtwo,,,,,,,,,,,,,,,,,,,,,,,,,,,,,,,,,,,,,,,,,,,,,,,,,,,,,,,,,,,,,,,,,,,,,,,,,,,,,,,,,,,,,,,,,,,,,,,,,,,,,,,,,,,,,,,,,,,,,,,,,,,,,,,,,,,,,,,,,,,,,,,,,,,,,,,,
,,,,,,60dc31374fc70253e7a2d9e9,62bbfb627b006d5efd617960,2022-06-29_09h15.32.053,Colour_Asymmetry_Pilot,2022.1.3,Linux x86_64,60.0276127,62bbe60bf3d75ef465d3e404,0,56,56,55,1,fourthree,,,,,,,,,,,,,,,,,,,,,,,,,,,,,,,,,,,,,,,,,,,,,,,,,,,,,,,,,,,,,,,,,,,,,,,,,,,,,,,,,,,,,,,,,,,,,,,,,,,,,,,,,,,,,,,,,,,,,,,,,,,,,,,,,,,,,,,,,,,,,,,,,,,,,,,,
,,,,,,60dc31374fc70253e7a2d9e9,62bbfb627b006d5efd617960,2022-06-29_09h15.32.053,Colour_Asymmetry_Pilot,2022.1.3,Linux x86_64,60.0276127,62bbe60bf3d75ef465d3e404,0,57,57,21,1,threefour,,,,,,,,,,,,,,,,,,,,,,,,,,,,,,,,,,,,,,,,,,,,,,,,,,,,,,,,,,,,,,,,,,,,,,,,,,,,,,,,,,,,,,,,,,,,,,,,,,,,,,,,,,,,,,,,,,,,,,,,,,,,,,,,,,,,,,,,,,,,,,,,,,,,,,,,
,,,,,,60dc31374fc70253e7a2d9e9,62bbfb627b006d5efd617960,2022-06-29_09h15.32.053,Colour_Asymmetry_Pilot,2022.1.3,Linux x86_64,60.0276127,62bbe60bf3d75ef465d3e404,0,58,58,32,1,onetwo,,,,,,,,,,,,,,,,,,,,,,,,,,,,,,,,,,,,,,,,,,,,,,,,,,,,,,,,,,,,,,,,,,,,,,,,,,,,,,,,,,,,,,,,,,,,,,,,,,,,,,,,,,,,,,,,,,,,,,,,,,,,,,,,,,,,,,,,,,,,,,,,,,,,,,,,
,,,,,,60dc31374fc70253e7a2d9e9,62bbfb627b006d5efd617960,2022-06-29_09h15.32.053,Colour_Asymmetry_Pilot,2022.1.3,Linux x86_64,60.0276127,62bbe60bf3d75ef465d3e404,0,59,59,31,1,fourthree,,,,,,,,,,,,,,,,,,,,,,,,,,,,,,,,,,,,,,,,,,,,,,,,,,,,,,,,,,,,,,,,,,,,,,,,,,,,,,,,,,,,,,,,,,,,,,,,,,,,,,,,,,,,,,,,,,,,,,,,,,,,,,,,,,,,,,,,,,,,,,,,,,,,,,,,
,,,,,,60dc31374fc70253e7a2d9e9,62bbfb627b006d5efd617960,2022-06-29_09h15.32.053,Colour_Asymmetry_Pilot,2022.1.3,Linux x86_64,60.0276127,62bbe60bf3d75ef465d3e404,0,60,60,58,1,twoone,,,,,,,,,,,,,,,,,,,,,,,,,,,,,,,,,,,,,,,,,,,,,,,,,,,,,,,,,,,,,,,,,,,,,,,,,,,,,,,,,,,,,,,,,,,,,,,,,,,,,,,,,,,,,,,,,,,,,,,,,,,,,,,,,,,,,,,,,,,,,,,,,,,,,,,,
,,,,,,60dc31374fc70253e7a2d9e9,62bbfb627b006d5efd617960,2022-06-29_09h15.32.053,Colour_Asymmetry_Pilot,2022.1.3,Linux x86_64,60.0276127,62bbe60bf3d75ef465d3e404,0,61,61,16,1,onetwo,,,,,,,,,,,,,,,,,,,,,,,,,,,,,,,,,,,,,,,,,,,,,,,,,,,,,,,,,,,,,,,,,,,,,,,,,,,,,,,,,,,,,,,,,,,,,,,,,,,,,,,,,,,,,,,,,,,,,,,,,,,,,,,,,,,,,,,,,,,,,,,,,,,,,,,,
,,,,,,60dc31374fc70253e7a2d9e9,62bbfb627b006d5efd617960,2022-06-29_09h15.32.053,Colour_Asymmetry_Pilot,2022.1.3,Linux x86_64,60.0276127,62bbe60bf3d75ef465d3e404,0,62,62,98,1,twoone,,,,,,,,,,,,,,,,,,,,,,,,,,,,,,,,,,,,,,,,,,,,,,,,,,,,,,,,,,,,,,,,,,,,,,,,,,,,,,,,,,,,,,,,,,,,,,,,,,,,,,,,,,,,,,,,,,,,,,,,,,,,,,,,,,,,,,,,,,,,,,,,,,,,,,,,
,,,,,,60dc31374fc70253e7a2d9e9,62bbfb627b006d5efd617960,2022-06-29_09h15.32.053,Colour_Asymmetry_Pilot,2022.1.3,Linux x86_64,60.0276127,62bbe60bf3d75ef465d3e404,0,63,63,33,1,onethree,,,,,,,,,,,,,,,,,,,,,,,,,,,,,,,,,,,,,,,,,,,,,,,,,,,,,,,,,,,,,,,,,,,,,,,,,,,,,,,,,,,,,,,,,,,,,,,,,,,,,,,,,,,,,,,,,,,,,,,,,,,,,,,,,,,,,,,,,,,,,,,,,,,,,,,,
,,,,,,60dc31374fc70253e7a2d9e9,62bbfb627b006d5efd617960,2022-06-29_09h15.32.053,Colour_Asymmetry_Pilot,2022.1.3,Linux x86_64,60.0276127,62bbe60bf3d75ef465d3e404,0,64,64,141,1,threefour,,,,,,,,,,,,,,,,,,,,,,,,,,,,,,,,,,,,,,,,,,,,,,,,,,,,,,,,,,,,,,,,,,,,,,,,,,,,,,,,,,,,,,,,,,,,,,,,,,,,,,,,,,,,,,,,,,,,,,,,,,,,,,,,,,,,,,,,,,,,,,,,,,,,,,,,
,,,,,,60dc31374fc70253e7a2d9e9,62bbfb627b006d5efd617960,2022-06-29_09h15.32.053,Colour_Asymmetry_Pilot,2022.1.3,Linux x86_64,60.0276127,62bbe60bf3d75ef465d3e404,0,65,65,26,1,twoone,,,,,,,,,,,,,,,,,,,,,,,,,,,,,,,,,,,,,,,,,,,,,,,,,,,,,,,,,,,,,,,,,,,,,,,,,,,,,,,,,,,,,,,,,,,,,,,,,,,,,,,,,,,,,,,,,,,,,,,,,,,,,,,,,,,,,,,,,,,,,,,,,,,,,,,,
,,,,,,60dc31374fc70253e7a2d9e9,62bbfb627b006d5efd617960,2022-06-29_09h15.32.053,Colour_Asymmetry_Pilot,2022.1.3,Linux x86_64,60.0276127,62bbe60bf3d75ef465d3e404,0,66,66,122,1,twoone,,,,,,,,,,,,,,,,,,,,,,,,,,,,,,,,,,,,,,,,,,,,,,,,,,,,,,,,,,,,,,,,,,,,,,,,,,,,,,,,,,,,,,,,,,,,,,,,,,,,,,,,,,,,,,,,,,,,,,,,,,,,,,,,,,,,,,,,,,,,,,,,,,,,,,,,
,,,,,,60dc31374fc70253e7a2d9e9,62bbfb627b006d5efd617960,2022-06-29_09h15.32.053,Colour_Asymmetry_Pilot,2022.1.3,Linux x86_64,60.0276127,62bbe60bf3d75ef465d3e404,0,67,67,35,1,twofour,,,,,,,,,,,,,,,,,,,,,,,,,,,,,,,,,,,,,,,,,,,,,,,,,,,,,,,,,,,,,,,,,,,,,,,,,,,,,,,,,,,,,,,,,,,,,,,,,,,,,,,,,,,,,,,,,,,,,,,,,,,,,,,,,,,,,,,,,,,,,,,,,,,,,,,,
,,,,,,60dc31374fc70253e7a2d9e9,62bbfb627b006d5efd617960,2022-06-29_09h15.32.053,Colour_Asymmetry_Pilot,2022.1.3,Linux x86_64,60.0276127,62bbe60bf3d75ef465d3e404,0,68,68,129,1,onethree,,,,,,,,,,,,,,,,,,,,,,,,,,,,,,,,,,,,,,,,,,,,,,,,,,,,,,,,,,,,,,,,,,,,,,,,,,,,,,,,,,,,,,,,,,,,,,,,,,,,,,,,,,,,,,,,,,,,,,,,,,,,,,,,,,,,,,,,,,,,,,,,,,,,,,,,
,,,,,,60dc31374fc70253e7a2d9e9,62bbfb627b006d5efd617960,2022-06-29_09h15.32.053,Colour_Asymmetry_Pilot,2022.1.3,Linux x86_64,60.0276127,62bbe60bf3d75ef465d3e404,0,69,69,50,1,twoone,,,,,,,,,,,,,,,,,,,,,,,,,,,,,,,,,,,,,,,,,,,,,,,,,,,,,,,,,,,,,,,,,,,,,,,,,,,,,,,,,,,,,,,,,,,,,,,,,,,,,,,,,,,,,,,,,,,,,,,,,,,,,,,,,,,,,,,,,,,,,,,,,,,,,,,,
,,,,,,60dc31374fc70253e7a2d9e9,62bbfb627b006d5efd617960,2022-06-29_09h15.32.053,Colour_Asymmetry_Pilot,2022.1.3,Linux x86_64,60.0276127,62bbe60bf3d75ef465d3e404,0,70,70,97,1,onethree,,,,,,,,,,,,,,,,,,,,,,,,,,,,,,,,,,,,,,,,,,,,,,,,,,,,,,,,,,,,,,,,,,,,,,,,,,,,,,,,,,,,,,,,,,,,,,,,,,,,,,,,,,,,,,,,,,,,,,,,,,,,,,,,,,,,,,,,,,,,,,,,,,,,,,,,
,,,,,,60dc31374fc70253e7a2d9e9,62bbfb627b006d5efd617960,2022-06-29_09h15.32.053,Colour_Asymmetry_Pilot,2022.1.3,Linux x86_64,60.0276127,62bbe60bf3d75ef465d3e404,0,71,71,1,1,onethree,,,,,,,,,,,,,,,,,,,,,,,,,,,,,,,,,,,,,,,,,,,,,,,,,,,,,,,,,,,,,,,,,,,,,,,,,,,,,,,,,,,,,,,,,,,,,,,,,,,,,,,,,,,,,,,,,,,,,,,,,,,,,,,,,,,,,,,,,,,,,,,,,,,,,,,,
,,,,,,60dc31374fc70253e7a2d9e9,62bbfb627b006d5efd617960,2022-06-29_09h15.32.053,Colour_Asymmetry_Pilot,2022.1.3,Linux x86_64,60.0276127,62bbe60bf3d75ef465d3e404,0,72,72,79,1,fourthree,,,,,,,,,,,,,,,,,,,,,,,,,,,,,,,,,,,,,,,,,,,,,,,,,,,,,,,,,,,,,,,,,,,,,,,,,,,,,,,,,,,,,,,,,,,,,,,,,,,,,,,,,,,,,,,,,,,,,,,,,,,,,,,,,,,,,,,,,,,,,,,,,,,,,,,,
,,,,,,60dc31374fc70253e7a2d9e9,62bbfb627b006d5efd617960,2022-06-29_09h15.32.053,Colour_Asymmetry_Pilot,2022.1.3,Linux x86_64,60.0276127,62bbe60bf3d75ef465d3e404,0,73,73,65,1,onethree,,,,,,,,,,,,,,,,,,,,,,,,,,,,,,,,,,,,,,,,,,,,,,,,,,,,,,,,,,,,,,,,,,,,,,,,,,,,,,,,,,,,,,,,,,,,,,,,,,,,,,,,,,,,,,,,,,,,,,,,,,,,,,,,,,,,,,,,,,,,,,,,,,,,,,,,
,,,,,,60dc31374fc70253e7a2d9e9,62bbfb627b006d5efd617960,2022-06-29_09h15.32.053,Colour_Asymmetry_Pilot,2022.1.3,Linux x86_64,60.0276127,62bbe60bf3d75ef465d3e404,0,74,74,83,1,twofour,,,,,,,,,,,,,,,,,,,,,,,,,,,,,,,,,,,,,,,,,,,,,,,,,,,,,,,,,,,,,,,,,,,,,,,,,,,,,,,,,,,,,,,,,,,,,,,,,,,,,,,,,,,,,,,,,,,,,,,,,,,,,,,,,,,,,,,,,,,,,,,,,,,,,,,,
,,,,,,60dc31374fc70253e7a2d9e9,62bbfb627b006d5efd617960,2022-06-29_09h15.32.053,Colour_Asymmetry_Pilot,2022.1.3,Linux x86_64,60.0276127,62bbe60bf3d75ef465d3e404,0,75,75,54,1,fourtwo,,,,,,,,,,,,,,,,,,,,,,,,,,,,,,,,,,,,,,,,,,,,,,,,,,,,,,,,,,,,,,,,,,,,,,,,,,,,,,,,,,,,,,,,,,,,,,,,,,,,,,,,,,,,,,,,,,,,,,,,,,,,,,,,,,,,,,,,,,,,,,,,,,,,,,,,
,,,,,,60dc31374fc70253e7a2d9e9,62bbfb627b006d5efd617960,2022-06-29_09h15.32.053,Colour_Asymmetry_Pilot,2022.1.3,Linux x86_64,60.0276127,62bbe60bf3d75ef465d3e404,0,76,76,8,1,onetwo,,,,,,,,,,,,,,,,,,,,,,,,,,,,,,,,,,,,,,,,,,,,,,,,,,,,,,,,,,,,,,,,,,,,,,,,,,,,,,,,,,,,,,,,,,,,,,,,,,,,,,,,,,,,,,,,,,,,,,,,,,,,,,,,,,,,,,,,,,,,,,,,,,,,,,,,
,,,,,,60dc31374fc70253e7a2d9e9,62bbfb627b006d5efd617960,2022-06-29_09h15.32.053,Colour_Asymmetry_Pilot,2022.1.3,Linux x86_64,60.0276127,62bbe60bf3d75ef465d3e404,0,77,77,112,1,onetwo,,,,,,,,,,,,,,,,,,,,,,,,,,,,,,,,,,,,,,,,,,,,,,,,,,,,,,,,,,,,,,,,,,,,,,,,,,,,,,,,,,,,,,,,,,,,,,,,,,,,,,,,,,,,,,,,,,,,,,,,,,,,,,,,,,,,,,,,,,,,,,,,,,,,,,,,
,,,,,,60dc31374fc70253e7a2d9e9,62bbfb627b006d5efd617960,2022-06-29_09h15.32.053,Colour_Asymmetry_Pilot,2022.1.3,Linux x86_64,60.0276127,62bbe60bf3d75ef465d3e404,0,78,78,36,1,threeone,,,,,,,,,,,,,,,,,,,,,,,,,,,,,,,,,,,,,,,,,,,,,,,,,,,,,,,,,,,,,,,,,,,,,,,,,,,,,,,,,,,,,,,,,,,,,,,,,,,,,,,,,,,,,,,,,,,,,,,,,,,,,,,,,,,,,,,,,,,,,,,,,,,,,,,,
,,,,,,60dc31374fc70253e7a2d9e9,62bbfb627b006d5efd617960,2022-06-29_09h15.32.053,Colour_Asymmetry_Pilot,2022.1.3,Linux x86_64,60.0276127,62bbe60bf3d75ef465d3e404,0,79,79,130,1,twoone,,,,,,,,,,,,,,,,,,,,,,,,,,,,,,,,,,,,,,,,,,,,,,,,,,,,,,,,,,,,,,,,,,,,,,,,,,,,,,,,,,,,,,,,,,,,,,,,,,,,,,,,,,,,,,,,,,,,,,,,,,,,,,,,,,,,,,,,,,,,,,,,,,,,,,,,
,,,,,,60dc31374fc70253e7a2d9e9,62bbfb627b006d5efd617960,2022-06-29_09h15.32.053,Colour_Asymmetry_Pilot,2022.1.3,Linux x86_64,60.0276127,62bbe60bf3d75ef465d3e404,0,80,80,104,1,onetwo,,,,,,,,,,,,,,,,,,,,,,,,,,,,,,,,,,,,,,,,,,,,,,,,,,,,,,,,,,,,,,,,,,,,,,,,,,,,,,,,,,,,,,,,,,,,,,,,,,,,,,,,,,,,,,,,,,,,,,,,,,,,,,,,,,,,,,,,,,,,,,,,,,,,,,,,
,,,,,,60dc31374fc70253e7a2d9e9,62bbfb627b006d5efd617960,2022-06-29_09h15.32.053,Colour_Asymmetry_Pilot,2022.1.3,Linux x86_64,60.0276127,62bbe60bf3d75ef465d3e404,0,81,81,155,1,twofour,,,,,,,,,,,,,,,,,,,,,,,,,,,,,,,,,,,,,,,,,,,,,,,,,,,,,,,,,,,,,,,,,,,,,,,,,,,,,,,,,,,,,,,,,,,,,,,,,,,,,,,,,,,,,,,,,,,,,,,,,,,,,,,,,,,,,,,,,,,,,,,,,,,,,,,,
,,,,,,60dc31374fc70253e7a2d9e9,62bbfb627b006d5efd617960,2022-06-29_09h15.32.053,Colour_Asymmetry_Pilot,2022.1.3,Linux x86_64,60.0276127,62bbe60bf3d75ef465d3e404,0,82,82,115,1,twofour,,,,,,,,,,,,,,,,,,,,,,,,,,,,,,,,,,,,,,,,,,,,,,,,,,,,,,,,,,,,,,,,,,,,,,,,,,,,,,,,,,,,,,,,,,,,,,,,,,,,,,,,,,,,,,,,,,,,,,,,,,,,,,,,,,,,,,,,,,,,,,,,,,,,,,,,
,,,,,,60dc31374fc70253e7a2d9e9,62bbfb627b006d5efd617960,2022-06-29_09h15.32.053,Colour_Asymmetry_Pilot,2022.1.3,Linux x86_64,60.0276127,62bbe60bf3d75ef465d3e404,0,83,83,134,1,fourtwo,,,,,,,,,,,,,,,,,,,,,,,,,,,,,,,,,,,,,,,,,,,,,,,,,,,,,,,,,,,,,,,,,,,,,,,,,,,,,,,,,,,,,,,,,,,,,,,,,,,,,,,,,,,,,,,,,,,,,,,,,,,,,,,,,,,,,,,,,,,,,,,,,,,,,,,,
,,,,,,60dc31374fc70253e7a2d9e9,62bbfb627b006d5efd617960,2022-06-29_09h15.32.053,Colour_Asymmetry_Pilot,2022.1.3,Linux x86_64,60.0276127,62bbe60bf3d75ef465d3e404,0,84,84,70,1,fourtwo,,,,,,,,,,,,,,,,,,,,,,,,,,,,,,,,,,,,,,,,,,,,,,,,,,,,,,,,,,,,,,,,,,,,,,,,,,,,,,,,,,,,,,,,,,,,,,,,,,,,,,,,,,,,,,,,,,,,,,,,,,,,,,,,,,,,,,,,,,,,,,,,,,,,,,,,
,,,,,,60dc31374fc70253e7a2d9e9,62bbfb627b006d5efd617960,2022-06-29_09h15.32.053,Colour_Asymmetry_Pilot,2022.1.3,Linux x86_64,60.0276127,62bbe60bf3d75ef465d3e404,0,85,85,158,1,fourtwo,,,,,,,,,,,,,,,,,,,,,,,,,,,,,,,,,,,,,,,,,,,,,,,,,,,,,,,,,,,,,,,,,,,,,,,,,,,,,,,,,,,,,,,,,,,,,,,,,,,,,,,,,,,,,,,,,,,,,,,,,,,,,,,,,,,,,,,,,,,,,,,,,,,,,,,,
,,,,,,60dc31374fc70253e7a2d9e9,62bbfb627b006d5efd617960,2022-06-29_09h15.32.053,Colour_Asymmetry_Pilot,2022.1.3,Linux x86_64,60.0276127,62bbe60bf3d75ef465d3e404,0,86,86,25,1,onethree,,,,,,,,,,,,,,,,,,,,,,,,,,,,,,,,,,,,,,,,,,,,,,,,,,,,,,,,,,,,,,,,,,,,,,,,,,,,,,,,,,,,,,,,,,,,,,,,,,,,,,,,,,,,,,,,,,,,,,,,,,,,,,,,,,,,,,,,,,,,,,,,,,,,,,,,
,,,,,,60dc31374fc70253e7a2d9e9,62bbfb627b006d5efd617960,2022-06-29_09h15.32.053,Colour_Asymmetry_Pilot,2022.1.3,Linux x86_64,60.0276127,62bbe60bf3d75ef465d3e404,0,87,87,161,1,onethree,,,,,,,,,,,,,,,,,,,,,,,,,,,,,,,,,,,,,,,,,,,,,,,,,,,,,,,,,,,,,,,,,,,,,,,,,,,,,,,,,,,,,,,,,,,,,,,,,,,,,,,,,,,,,,,,,,,,,,,,,,,,,,,,,,,,,,,,,,,,,,,,,,,,,,,,
,,,,,,60dc31374fc70253e7a2d9e9,62bbfb627b006d5efd617960,2022-06-29_09h15.32.053,Colour_Asymmetry_Pilot,2022.1.3,Linux x86_64,60.0276127,62bbe60bf3d75ef465d3e404,0,88,88,111,1,fourthree,,,,,,,,,,,,,,,,,,,,,,,,,,,,,,,,,,,,,,,,,,,,,,,,,,,,,,,,,,,,,,,,,,,,,,,,,,,,,,,,,,,,,,,,,,,,,,,,,,,,,,,,,,,,,,,,,,,,,,,,,,,,,,,,,,,,,,,,,,,,,,,,,,,,,,,,
,,,,,,60dc31374fc70253e7a2d9e9,62bbfb627b006d5efd617960,2022-06-29_09h15.32.053,Colour_Asymmetry_Pilot,2022.1.3,Linux x86_64,60.0276127,62bbe60bf3d75ef465d3e404,0,89,89,140,1,threeone,,,,,,,,,,,,,,,,,,,,,,,,,,,,,,,,,,,,,,,,,,,,,,,,,,,,,,,,,,,,,,,,,,,,,,,,,,,,,,,,,,,,,,,,,,,,,,,,,,,,,,,,,,,,,,,,,,,,,,,,,,,,,,,,,,,,,,,,,,,,,,,,,,,,,,,,
,,,,,,60dc31374fc70253e7a2d9e9,62bbfb627b006d5efd617960,2022-06-29_09h15.32.053,Colour_Asymmetry_Pilot,2022.1.3,Linux x86_64,60.0276127,62bbe60bf3d75ef465d3e404,0,90,90,120,1,onetwo,,,,,,,,,,,,,,,,,,,,,,,,,,,,,,,,,,,,,,,,,,,,,,,,,,,,,,,,,,,,,,,,,,,,,,,,,,,,,,,,,,,,,,,,,,,,,,,,,,,,,,,,,,,,,,,,,,,,,,,,,,,,,,,,,,,,,,,,,,,,,,,,,,,,,,,,
,,,,,,60dc31374fc70253e7a2d9e9,62bbfb627b006d5efd617960,2022-06-29_09h15.32.053,Colour_Asymmetry_Pilot,2022.1.3,Linux x86_64,60.0276127,62bbe60bf3d75ef465d3e404,0,91,91,136,1,onetwo,,,,,,,,,,,,,,,,,,,,,,,,,,,,,,,,,,,,,,,,,,,,,,,,,,,,,,,,,,,,,,,,,,,,,,,,,,,,,,,,,,,,,,,,,,,,,,,,,,,,,,,,,,,,,,,,,,,,,,,,,,,,,,,,,,,,,,,,,,,,,,,,,,,,,,,,
,,,,,,60dc31374fc70253e7a2d9e9,62bbfb627b006d5efd617960,2022-06-29_09h15.32.053,Colour_Asymmetry_Pilot,2022.1.3,Linux x86_64,60.0276127,62bbe60bf3d75ef465d3e404,0,92,92,29,1,threefour,,,,,,,,,,,,,,,,,,,,,,,,,,,,,,,,,,,,,,,,,,,,,,,,,,,,,,,,,,,,,,,,,,,,,,,,,,,,,,,,,,,,,,,,,,,,,,,,,,,,,,,,,,,,,,,,,,,,,,,,,,,,,,,,,,,,,,,,,,,,,,,,,,,,,,,,
,,,,,,60dc31374fc70253e7a2d9e9,62bbfb627b006d5efd617960,2022-06-29_09h15.32.053,Colour_Asymmetry_Pilot,2022.1.3,Linux x86_64,60.0276127,62bbe60bf3d75ef465d3e404,0,93,93,24,1,onetwo,,,,,,,,,,,,,,,,,,,,,,,,,,,,,,,,,,,,,,,,,,,,,,,,,,,,,,,,,,,,,,,,,,,,,,,,,,,,,,,,,,,,,,,,,,,,,,,,,,,,,,,,,,,,,,,,,,,,,,,,,,,,,,,,,,,,,,,,,,,,,,,,,,,,,,,,
,,,,,,60dc31374fc70253e7a2d9e9,62bbfb627b006d5efd617960,2022-06-29_09h15.32.053,Colour_Asymmetry_Pilot,2022.1.3,Linux x86_64,60.0276127,62bbe60bf3d75ef465d3e404,0,94,94,7,1,fourthree,,,,,,,,,,,,,,,,,,,,,,,,,,,,,,,,,,,,,,,,,,,,,,,,,,,,,,,,,,,,,,,,,,,,,,,,,,,,,,,,,,,,,,,,,,,,,,,,,,,,,,,,,,,,,,,,,,,,,,,,,,,,,,,,,,,,,,,,,,,,,,,,,,,,,,,,
,,,,,,60dc31374fc70253e7a2d9e9,62bbfb627b006d5efd617960,2022-06-29_09h15.32.053,Colour_Asymmetry_Pilot,2022.1.3,Linux x86_64,60.0276127,62bbe60bf3d75ef465d3e404,0,95,95,59,1,twofour,,,,,,,,,,,,,,,,,,,,,,,,,,,,,,,,,,,,,,,,,,,,,,,,,,,,,,,,,,,,,,,,,,,,,,,,,,,,,,,,,,,,,,,,,,,,,,,,,,,,,,,,,,,,,,,,,,,,,,,,,,,,,,,,,,,,,,,,,,,,,,,,,,,,,,,,
,,,,,,60dc31374fc70253e7a2d9e9,62bbfb627b006d5efd617960,2022-06-29_09h15.32.053,Colour_Asymmetry_Pilot,2022.1.3,Linux x86_64,60.0276127,62bbe60bf3d75ef465d3e404,0,96,96,160,1,onetwo,,,,,,,,,,,,,,,,,,,,,,,,,,,,,,,,,,,,,,,,,,,,,,,,,,,,,,,,,,,,,,,,,,,,,,,,,,,,,,,,,,,,,,,,,,,,,,,,,,,,,,,,,,,,,,,,,,,,,,,,,,,,,,,,,,,,,,,,,,,,,,,,,,,,,,,,
,,,,,,60dc31374fc70253e7a2d9e9,62bbfb627b006d5efd617960,2022-06-29_09h15.32.053,Colour_Asymmetry_Pilot,2022.1.3,Linux x86_64,60.0276127,62bbe60bf3d75ef465d3e404,0,97,97,107,1,twofour,,,,,,,,,,,,,,,,,,,,,,,,,,,,,,,,,,,,,,,,,,,,,,,,,,,,,,,,,,,,,,,,,,,,,,,,,,,,,,,,,,,,,,,,,,,,,,,,,,,,,,,,,,,,,,,,,,,,,,,,,,,,,,,,,,,,,,,,,,,,,,,,,,,,,,,,
,,,,,,60dc31374fc70253e7a2d9e9,62bbfb627b006d5efd617960,2022-06-29_09h15.32.053,Colour_Asymmetry_Pilot,2022.1.3,Linux x86_64,60.0276127,62bbe60bf3d75ef465d3e404,0,98,98,144,1,onetwo,,,,,,,,,,,,,,,,,,,,,,,,,,,,,,,,,,,,,,,,,,,,,,,,,,,,,,,,,,,,,,,,,,,,,,,,,,,,,,,,,,,,,,,,,,,,,,,,,,,,,,,,,,,,,,,,,,,,,,,,,,,,,,,,,,,,,,,,,,,,,,,,,,,,,,,,
,,,,,,60dc31374fc70253e7a2d9e9,62bbfb627b006d5efd617960,2022-06-29_09h15.32.053,Colour_Asymmetry_Pilot,2022.1.3,Linux x86_64,60.0276127,62bbe60bf3d75ef465d3e404,0,99,99,2,1,twoone,,,,,,,,,,,,,,,,,,,,,,,,,,,,,,,,,,,,,,,,,,,,,,,,,,,,,,,,,,,,,,,,,,,,,,,,,,,,,,,,,,,,,,,,,,,,,,,,,,,,,,,,,,,,,,,,,,,,,,,,,,,,,,,,,,,,,,,,,,,,,,,,,,,,,,,,
,,,,,,60dc31374fc70253e7a2d9e9,62bbfb627b006d5efd617960,2022-06-29_09h15.32.053,Colour_Asymmetry_Pilot,2022.1.3,Linux x86_64,60.0276127,62bbe60bf3d75ef465d3e404,0,100,100,123,1,twofour,,,,,,,,,,,,,,,,,,,,,,,,,,,,,,,,,,,,,,,,,,,,,,,,,,,,,,,,,,,,,,,,,,,,,,,,,,,,,,,,,,,,,,,,,,,,,,,,,,,,,,,,,,,,,,,,,,,,,,,,,,,,,,,,,,,,,,,,,,,,,,,,,,,,,,,,
,,,,,,60dc31374fc70253e7a2d9e9,62bbfb627b006d5efd617960,2022-06-29_09h15.32.053,Colour_Asymmetry_Pilot,2022.1.3,Linux x86_64,60.0276127,62bbe60bf3d75ef465d3e404,0,101,101,131,1,twofour,,,,,,,,,,,,,,,,,,,,,,,,,,,,,,,,,,,,,,,,,,,,,,,,,,,,,,,,,,,,,,,,,,,,,,,,,,,,,,,,,,,,,,,,,,,,,,,,,,,,,,,,,,,,,,,,,,,,,,,,,,,,,,,,,,,,,,,,,,,,,,,,,,,,,,,,
,,,,,,60dc31374fc70253e7a2d9e9,62bbfb627b006d5efd617960,2022-06-29_09h15.32.053,Colour_Asymmetry_Pilot,2022.1.3,Linux x86_64,60.0276127,62bbe60bf3d75ef465d3e404,0,102,102,119,1,fourthree,,,,,,,,,,,,,,,,,,,,,,,,,,,,,,,,,,,,,,,,,,,,,,,,,,,,,,,,,,,,,,,,,,,,,,,,,,,,,,,,,,,,,,,,,,,,,,,,,,,,,,,,,,,,,,,,,,,,,,,,,,,,,,,,,,,,,,,,,,,,,,,,,,,,,,,,
,,,,,,60dc31374fc70253e7a2d9e9,62bbfb627b006d5efd617960,2022-06-29_09h15.32.053,Colour_Asymmetry_Pilot,2022.1.3,Linux x86_64,60.0276127,62bbe60bf3d75ef465d3e404,0,103,103,44,1,threeone,,,,,,,,,,,,,,,,,,,,,,,,,,,,,,,,,,,,,,,,,,,,,,,,,,,,,,,,,,,,,,,,,,,,,,,,,,,,,,,,,,,,,,,,,,,,,,,,,,,,,,,,,,,,,,,,,,,,,,,,,,,,,,,,,,,,,,,,,,,,,,,,,,,,,,,,
,,,,,,60dc31374fc70253e7a2d9e9,62bbfb627b006d5efd617960,2022-06-29_09h15.32.053,Colour_Asymmetry_Pilot,2022.1.3,Linux x86_64,60.0276127,62bbe60bf3d75ef465d3e404,0,104,104,156,1,threeone,,,,,,,,,,,,,,,,,,,,,,,,,,,,,,,,,,,,,,,,,,,,,,,,,,,,,,,,,,,,,,,,,,,,,,,,,,,,,,,,,,,,,,,,,,,,,,,,,,,,,,,,,,,,,,,,,,,,,,,,,,,,,,,,,,,,,,,,,,,,,,,,,,,,,,,,
,,,,,,60dc31374fc70253e7a2d9e9,62bbfb627b006d5efd617960,2022-06-29_09h15.32.053,Colour_Asymmetry_Pilot,2022.1.3,Linux x86_64,60.0276127,62bbe60bf3d75ef465d3e404,0,105,105,133,1,threefour,,,,,,,,,,,,,,,,,,,,,,,,,,,,,,,,,,,,,,,,,,,,,,,,,,,,,,,,,,,,,,,,,,,,,,,,,,,,,,,,,,,,,,,,,,,,,,,,,,,,,,,,,,,,,,,,,,,,,,,,,,,,,,,,,,,,,,,,,,,,,,,,,,,,,,,,
,,,,,,60dc31374fc70253e7a2d9e9,62bbfb627b006d5efd617960,2022-06-29_09h15.32.053,Colour_Asymmetry_Pilot,2022.1.3,Linux x86_64,60.0276127,62bbe60bf3d75ef465d3e404,0,106,106,101,1,threefour,,,,,,,,,,,,,,,,,,,,,,,,,,,,,,,,,,,,,,,,,,,,,,,,,,,,,,,,,,,,,,,,,,,,,,,,,,,,,,,,,,,,,,,,,,,,,,,,,,,,,,,,,,,,,,,,,,,,,,,,,,,,,,,,,,,,,,,,,,,,,,,,,,,,,,,,
,,,,,,60dc31374fc70253e7a2d9e9,62bbfb627b006d5efd617960,2022-06-29_09h15.32.053,Colour_Asymmetry_Pilot,2022.1.3,Linux x86_64,60.0276127,62bbe60bf3d75ef465d3e404,0,107,107,147,1,twofour,,,,,,,,,,,,,,,,,,,,,,,,,,,,,,,,,,,,,,,,,,,,,,,,,,,,,,,,,,,,,,,,,,,,,,,,,,,,,,,,,,,,,,,,,,,,,,,,,,,,,,,,,,,,,,,,,,,,,,,,,,,,,,,,,,,,,,,,,,,,,,,,,,,,,,,,
,,,,,,60dc31374fc70253e7a2d9e9,62bbfb627b006d5efd617960,2022-06-29_09h15.32.053,Colour_Asymmetry_Pilot,2022.1.3,Linux x86_64,60.0276127,62bbe60bf3d75ef465d3e404,0,108,108,154,1,twoone,,,,,,,,,,,,,,,,,,,,,,,,,,,,,,,,,,,,,,,,,,,,,,,,,,,,,,,,,,,,,,,,,,,,,,,,,,,,,,,,,,,,,,,,,,,,,,,,,,,,,,,,,,,,,,,,,,,,,,,,,,,,,,,,,,,,,,,,,,,,,,,,,,,,,,,,
,,,,,,60dc31374fc70253e7a2d9e9,62bbfb627b006d5efd617960,2022-06-29_09h15.32.053,Colour_Asymmetry_Pilot,2022.1.3,Linux x86_64,60.0276127,62bbe60bf3d75ef465d3e404,0,109,109,64,1,onetwo,,,,,,,,,,,,,,,,,,,,,,,,,,,,,,,,,,,,,,,,,,,,,,,,,,,,,,,,,,,,,,,,,,,,,,,,,,,,,,,,,,,,,,,,,,,,,,,,,,,,,,,,,,,,,,,,,,,,,,,,,,,,,,,,,,,,,,,,,,,,,,,,,,,,,,,,
,,,,,,60dc31374fc70253e7a2d9e9,62bbfb627b006d5efd617960,2022-06-29_09h15.32.053,Colour_Asymmetry_Pilot,2022.1.3,Linux x86_64,60.0276127,62bbe60bf3d75ef465d3e404,0,110,110,90,1,twoone,,,,,,,,,,,,,,,,,,,,,,,,,,,,,,,,,,,,,,,,,,,,,,,,,,,,,,,,,,,,,,,,,,,,,,,,,,,,,,,,,,,,,,,,,,,,,,,,,,,,,,,,,,,,,,,,,,,,,,,,,,,,,,,,,,,,,,,,,,,,,,,,,,,,,,,,
,,,,,,60dc31374fc70253e7a2d9e9,62bbfb627b006d5efd617960,2022-06-29_09h15.32.053,Colour_Asymmetry_Pilot,2022.1.3,Linux x86_64,60.0276127,62bbe60bf3d75ef465d3e404,0,111,111,23,1,fourthree,,,,,,,,,,,,,,,,,,,,,,,,,,,,,,,,,,,,,,,,,,,,,,,,,,,,,,,,,,,,,,,,,,,,,,,,,,,,,,,,,,,,,,,,,,,,,,,,,,,,,,,,,,,,,,,,,,,,,,,,,,,,,,,,,,,,,,,,,,,,,,,,,,,,,,,,
,,,,,,60dc31374fc70253e7a2d9e9,62bbfb627b006d5efd617960,2022-06-29_09h15.32.053,Colour_Asymmetry_Pilot,2022.1.3,Linux x86_64,60.0276127,62bbe60bf3d75ef465d3e404,0,112,112,43,1,twofour,,,,,,,,,,,,,,,,,,,,,,,,,,,,,,,,,,,,,,,,,,,,,,,,,,,,,,,,,,,,,,,,,,,,,,,,,,,,,,,,,,,,,,,,,,,,,,,,,,,,,,,,,,,,,,,,,,,,,,,,,,,,,,,,,,,,,,,,,,,,,,,,,,,,,,,,
,,,,,,60dc31374fc70253e7a2d9e9,62bbfb627b006d5efd617960,2022-06-29_09h15.32.053,Colour_Asymmetry_Pilot,2022.1.3,Linux x86_64,60.0276127,62bbe60bf3d75ef465d3e404,0,113,113,86,1,fourtwo,,,,,,,,,,,,,,,,,,,,,,,,,,,,,,,,,,,,,,,,,,,,,,,,,,,,,,,,,,,,,,,,,,,,,,,,,,,,,,,,,,,,,,,,,,,,,,,,,,,,,,,,,,,,,,,,,,,,,,,,,,,,,,,,,,,,,,,,,,,,,,,,,,,,,,,,
,,,,,,60dc31374fc70253e7a2d9e9,62bbfb627b006d5efd617960,2022-06-29_09h15.32.053,Colour_Asymmetry_Pilot,2022.1.3,Linux x86_64,60.0276127,62bbe60bf3d75ef465d3e404,0,114,114,78,1,fourtwo,,,,,,,,,,,,,,,,,,,,,,,,,,,,,,,,,,,,,,,,,,,,,,,,,,,,,,,,,,,,,,,,,,,,,,,,,,,,,,,,,,,,,,,,,,,,,,,,,,,,,,,,,,,,,,,,,,,,,,,,,,,,,,,,,,,,,,,,,,,,,,,,,,,,,,,,
,,,,,,60dc31374fc70253e7a2d9e9,62bbfb627b006d5efd617960,2022-06-29_09h15.32.053,Colour_Asymmetry_Pilot,2022.1.3,Linux x86_64,60.0276127,62bbe60bf3d75ef465d3e404,0,115,115,46,1,fourtwo,,,,,,,,,,,,,,,,,,,,,,,,,,,,,,,,,,,,,,,,,,,,,,,,,,,,,,,,,,,,,,,,,,,,,,,,,,,,,,,,,,,,,,,,,,,,,,,,,,,,,,,,,,,,,,,,,,,,,,,,,,,,,,,,,,,,,,,,,,,,,,,,,,,,,,,,
,,,,,,60dc31374fc70253e7a2d9e9,62bbfb627b006d5efd617960,2022-06-29_09h15.32.053,Colour_Asymmetry_Pilot,2022.1.3,Linux x86_64,60.0276127,62bbe60bf3d75ef465d3e404,0,116,116,126,1,fourtwo,,,,,,,,,,,,,,,,,,,,,,,,,,,,,,,,,,,,,,,,,,,,,,,,,,,,,,,,,,,,,,,,,,,,,,,,,,,,,,,,,,,,,,,,,,,,,,,,,,,,,,,,,,,,,,,,,,,,,,,,,,,,,,,,,,,,,,,,,,,,,,,,,,,,,,,,
,,,,,,60dc31374fc70253e7a2d9e9,62bbfb627b006d5efd617960,2022-06-29_09h15.32.053,Colour_Asymmetry_Pilot,2022.1.3,Linux x86_64,60.0276127,62bbe60bf3d75ef465d3e404,0,117,117,72,1,onetwo,,,,,,,,,,,,,,,,,,,,,,,,,,,,,,,,,,,,,,,,,,,,,,,,,,,,,,,,,,,,,,,,,,,,,,,,,,,,,,,,,,,,,,,,,,,,,,,,,,,,,,,,,,,,,,,,,,,,,,,,,,,,,,,,,,,,,,,,,,,,,,,,,,,,,,,,
,,,,,,60dc31374fc70253e7a2d9e9,62bbfb627b006d5efd617960,2022-06-29_09h15.32.053,Colour_Asymmetry_Pilot,2022.1.3,Linux x86_64,60.0276127,62bbe60bf3d75ef465d3e404,0,118,118,13,1,threefour,,,,,,,,,,,,,,,,,,,,,,,,,,,,,,,,,,,,,,,,,,,,,,,,,,,,,,,,,,,,,,,,,,,,,,,,,,,,,,,,,,,,,,,,,,,,,,,,,,,,,,,,,,,,,,,,,,,,,,,,,,,,,,,,,,,,,,,,,,,,,,,,,,,,,,,,
,,,,,,60dc31374fc70253e7a2d9e9,62bbfb627b006d5efd617960,2022-06-29_09h15.32.053,Colour_Asymmetry_Pilot,2022.1.3,Linux x86_64,60.0276127,62bbe60bf3d75ef465d3e404,0,119,119,34,1,twoone,,,,,,,,,,,,,,,,,,,,,,,,,,,,,,,,,,,,,,,,,,,,,,,,,,,,,,,,,,,,,,,,,,,,,,,,,,,,,,,,,,,,,,,,,,,,,,,,,,,,,,,,,,,,,,,,,,,,,,,,,,,,,,,,,,,,,,,,,,,,,,,,,,,,,,,,
,,,,,,60dc31374fc70253e7a2d9e9,62bbfb627b006d5efd617960,2022-06-29_09h15.32.053,Colour_Asymmetry_Pilot,2022.1.3,Linux x86_64,60.0276127,62bbe60bf3d75ef465d3e404,0,120,120,85,1,threefour,,,,,,,,,,,,,,,,,,,,,,,,,,,,,,,,,,,,,,,,,,,,,,,,,,,,,,,,,,,,,,,,,,,,,,,,,,,,,,,,,,,,,,,,,,,,,,,,,,,,,,,,,,,,,,,,,,,,,,,,,,,,,,,,,,,,,,,,,,,,,,,,,,,,,,,,
,,,,,,60dc31374fc70253e7a2d9e9,62bbfb627b006d5efd617960,2022-06-29_09h15.32.053,Colour_Asymmetry_Pilot,2022.1.3,Linux x86_64,60.0276127,62bbe60bf3d75ef465d3e404,0,121,121,71,1,fourthree,,,,,,,,,,,,,,,,,,,,,,,,,,,,,,,,,,,,,,,,,,,,,,,,,,,,,,,,,,,,,,,,,,,,,,,,,,,,,,,,,,,,,,,,,,,,,,,,,,,,,,,,,,,,,,,,,,,,,,,,,,,,,,,,,,,,,,,,,,,,,,,,,,,,,,,,
,,,,,,60dc31374fc70253e7a2d9e9,62bbfb627b006d5efd617960,2022-06-29_09h15.32.053,Colour_Asymmetry_Pilot,2022.1.3,Linux x86_64,60.0276127,62bbe60bf3d75ef465d3e404,0,122,122,135,1,fourthree,,,,,,,,,,,,,,,,,,,,,,,,,,,,,,,,,,,,,,,,,,,,,,,,,,,,,,,,,,,,,,,,,,,,,,,,,,,,,,,,,,,,,,,,,,,,,,,,,,,,,,,,,,,,,,,,,,,,,,,,,,,,,,,,,,,,,,,,,,,,,,,,,,,,,,,,
,,,,,,60dc31374fc70253e7a2d9e9,62bbfb627b006d5efd617960,2022-06-29_09h15.32.053,Colour_Asymmetry_Pilot,2022.1.3,Linux x86_64,60.0276127,62bbe60bf3d75ef465d3e404,0,123,123,89,1,onethree,,,,,,,,,,,,,,,,,,,,,,,,,,,,,,,,,,,,,,,,,,,,,,,,,,,,,,,,,,,,,,,,,,,,,,,,,,,,,,,,,,,,,,,,,,,,,,,,,,,,,,,,,,,,,,,,,,,,,,,,,,,,,,,,,,,,,,,,,,,,,,,,,,,,,,,,
,,,,,,60dc31374fc70253e7a2d9e9,62bbfb627b006d5efd617960,2022-06-29_09h15.32.053,Colour_Asymmetry_Pilot,2022.1.3,Linux x86_64,60.0276127,62bbe60bf3d75ef465d3e404,0,124,124,102,1,fourtwo,,,,,,,,,,,,,,,,,,,,,,,,,,,,,,,,,,,,,,,,,,,,,,,,,,,,,,,,,,,,,,,,,,,,,,,,,,,,,,,,,,,,,,,,,,,,,,,,,,,,,,,,,,,,,,,,,,,,,,,,,,,,,,,,,,,,,,,,,,,,,,,,,,,,,,,,
,,,,,,60dc31374fc70253e7a2d9e9,62bbfb627b006d5efd617960,2022-06-29_09h15.32.053,Colour_Asymmetry_Pilot,2022.1.3,Linux x86_64,60.0276127,62bbe60bf3d75ef465d3e404,0,125,125,22,1,fourtwo,,,,,,,,,,,,,,,,,,,,,,,,,,,,,,,,,,,,,,,,,,,,,,,,,,,,,,,,,,,,,,,,,,,,,,,,,,,,,,,,,,,,,,,,,,,,,,,,,,,,,,,,,,,,,,,,,,,,,,,,,,,,,,,,,,,,,,,,,,,,,,,,,,,,,,,,
,,,,,,60dc31374fc70253e7a2d9e9,62bbfb627b006d5efd617960,2022-06-29_09h15.32.053,Colour_Asymmetry_Pilot,2022.1.3,Linux x86_64,60.0276127,62bbe60bf3d75ef465d3e404,0,126,126,106,1,twoone,,,,,,,,,,,,,,,,,,,,,,,,,,,,,,,,,,,,,,,,,,,,,,,,,,,,,,,,,,,,,,,,,,,,,,,,,,,,,,,,,,,,,,,,,,,,,,,,,,,,,,,,,,,,,,,,,,,,,,,,,,,,,,,,,,,,,,,,,,,,,,,,,,,,,,,,
,,,,,,60dc31374fc70253e7a2d9e9,62bbfb627b006d5efd617960,2022-06-29_09h15.32.053,Colour_Asymmetry_Pilot,2022.1.3,Linux x86_64,60.0276127,62bbe60bf3d75ef465d3e404,0,127,127,99,1,twofour,,,,,,,,,,,,,,,,,,,,,,,,,,,,,,,,,,,,,,,,,,,,,,,,,,,,,,,,,,,,,,,,,,,,,,,,,,,,,,,,,,,,,,,,,,,,,,,,,,,,,,,,,,,,,,,,,,,,,,,,,,,,,,,,,,,,,,,,,,,,,,,,,,,,,,,,
,,,,,,60dc31374fc70253e7a2d9e9,62bbfb627b006d5efd617960,2022-06-29_09h15.32.053,Colour_Asymmetry_Pilot,2022.1.3,Linux x86_64,60.0276127,62bbe60bf3d75ef465d3e404,0,128,128,9,1,onethree,,,,,,,,,,,,,,,,,,,,,,,,,,,,,,,,,,,,,,,,,,,,,,,,,,,,,,,,,,,,,,,,,,,,,,,,,,,,,,,,,,,,,,,,,,,,,,,,,,,,,,,,,,,,,,,,,,,,,,,,,,,,,,,,,,,,,,,,,,,,,,,,,,,,,,,,
,,,,,,60dc31374fc70253e7a2d9e9,62bbfb627b006d5efd617960,2022-06-29_09h15.32.053,Colour_Asymmetry_Pilot,2022.1.3,Linux x86_64,60.0276127,62bbe60bf3d75ef465d3e404,0,129,129,18,1,twoone,,,,,,,,,,,,,,,,,,,,,,,,,,,,,,,,,,,,,,,,,,,,,,,,,,,,,,,,,,,,,,,,,,,,,,,,,,,,,,,,,,,,,,,,,,,,,,,,,,,,,,,,,,,,,,,,,,,,,,,,,,,,,,,,,,,,,,,,,,,,,,,,,,,,,,,,
,,,,,,60dc31374fc70253e7a2d9e9,62bbfb627b006d5efd617960,2022-06-29_09h15.32.053,Colour_Asymmetry_Pilot,2022.1.3,Linux x86_64,60.0276127,62bbe60bf3d75ef465d3e404,0,130,130,11,1,twofour,,,,,,,,,,,,,,,,,,,,,,,,,,,,,,,,,,,,,,,,,,,,,,,,,,,,,,,,,,,,,,,,,,,,,,,,,,,,,,,,,,,,,,,,,,,,,,,,,,,,,,,,,,,,,,,,,,,,,,,,,,,,,,,,,,,,,,,,,,,,,,,,,,,,,,,,
,,,,,,60dc31374fc70253e7a2d9e9,62bbfb627b006d5efd617960,2022-06-29_09h15.32.053,Colour_Asymmetry_Pilot,2022.1.3,Linux x86_64,60.0276127,62bbe60bf3d75ef465d3e404,0,131,131,4,1,threeone,,,,,,,,,,,,,,,,,,,,,,,,,,,,,,,,,,,,,,,,,,,,,,,,,,,,,,,,,,,,,,,,,,,,,,,,,,,,,,,,,,,,,,,,,,,,,,,,,,,,,,,,,,,,,,,,,,,,,,,,,,,,,,,,,,,,,,,,,,,,,,,,,,,,,,,,
,,,,,,60dc31374fc70253e7a2d9e9,62bbfb627b006d5efd617960,2022-06-29_09h15.32.053,Colour_Asymmetry_Pilot,2022.1.3,Linux x86_64,60.0276127,62bbe60bf3d75ef465d3e404,0,132,132,93,1,threefour,,,,,,,,,,,,,,,,,,,,,,,,,,,,,,,,,,,,,,,,,,,,,,,,,,,,,,,,,,,,,,,,,,,,,,,,,,,,,,,,,,,,,,,,,,,,,,,,,,,,,,,,,,,,,,,,,,,,,,,,,,,,,,,,,,,,,,,,,,,,,,,,,,,,,,,,
,,,,,,60dc31374fc70253e7a2d9e9,62bbfb627b006d5efd617960,2022-06-29_09h15.32.053,Colour_Asymmetry_Pilot,2022.1.3,Linux x86_64,60.0276127,62bbe60bf3d75ef465d3e404,0,133,133,116,1,threeone,,,,,,,,,,,,,,,,,,,,,,,,,,,,,,,,,,,,,,,,,,,,,,,,,,,,,,,,,,,,,,,,,,,,,,,,,,,,,,,,,,,,,,,,,,,,,,,,,,,,,,,,,,,,,,,,,,,,,,,,,,,,,,,,,,,,,,,,,,,,,,,,,,,,,,,,
,,,,,,60dc31374fc70253e7a2d9e9,62bbfb627b006d5efd617960,2022-06-29_09h15.32.053,Colour_Asymmetry_Pilot,2022.1.3,Linux x86_64,60.0276127,62bbe60bf3d75ef465d3e404,0,134,134,41,1,onethree,,,,,,,,,,,,,,,,,,,,,,,,,,,,,,,,,,,,,,,,,,,,,,,,,,,,,,,,,,,,,,,,,,,,,,,,,,,,,,,,,,,,,,,,,,,,,,,,,,,,,,,,,,,,,,,,,,,,,,,,,,,,,,,,,,,,,,,,,,,,,,,,,,,,,,,,
,,,,,,60dc31374fc70253e7a2d9e9,62bbfb627b006d5efd617960,2022-06-29_09h15.32.053,Colour_Asymmetry_Pilot,2022.1.3,Linux x86_64,60.0276127,62bbe60bf3d75ef465d3e404,0,135,135,62,1,fourtwo,,,,,,,,,,,,,,,,,,,,,,,,,,,,,,,,,,,,,,,,,,,,,,,,,,,,,,,,,,,,,,,,,,,,,,,,,,,,,,,,,,,,,,,,,,,,,,,,,,,,,,,,,,,,,,,,,,,,,,,,,,,,,,,,,,,,,,,,,,,,,,,,,,,,,,,,
,,,,,,60dc31374fc70253e7a2d9e9,62bbfb627b006d5efd617960,2022-06-29_09h15.32.053,Colour_Asymmetry_Pilot,2022.1.3,Linux x86_64,60.0276127,62bbe60bf3d75ef465d3e404,0,136,136,149,1,threefour,,,,,,,,,,,,,,,,,,,,,,,,,,,,,,,,,,,,,,,,,,,,,,,,,,,,,,,,,,,,,,,,,,,,,,,,,,,,,,,,,,,,,,,,,,,,,,,,,,,,,,,,,,,,,,,,,,,,,,,,,,,,,,,,,,,,,,,,,,,,,,,,,,,,,,,,
,,,,,,60dc31374fc70253e7a2d9e9,62bbfb627b006d5efd617960,2022-06-29_09h15.32.053,Colour_Asymmetry_Pilot,2022.1.3,Linux x86_64,60.0276127,62bbe60bf3d75ef465d3e404,0,137,137,49,1,onethree,,,,,,,,,,,,,,,,,,,,,,,,,,,,,,,,,,,,,,,,,,,,,,,,,,,,,,,,,,,,,,,,,,,,,,,,,,,,,,,,,,,,,,,,,,,,,,,,,,,,,,,,,,,,,,,,,,,,,,,,,,,,,,,,,,,,,,,,,,,,,,,,,,,,,,,,
,,,,,,60dc31374fc70253e7a2d9e9,62bbfb627b006d5efd617960,2022-06-29_09h15.32.053,Colour_Asymmetry_Pilot,2022.1.3,Linux x86_64,60.0276127,62bbe60bf3d75ef465d3e404,0,138,138,19,1,twofour,,,,,,,,,,,,,,,,,,,,,,,,,,,,,,,,,,,,,,,,,,,,,,,,,,,,,,,,,,,,,,,,,,,,,,,,,,,,,,,,,,,,,,,,,,,,,,,,,,,,,,,,,,,,,,,,,,,,,,,,,,,,,,,,,,,,,,,,,,,,,,,,,,,,,,,,
,,,,,,60dc31374fc70253e7a2d9e9,62bbfb627b006d5efd617960,2022-06-29_09h15.32.053,Colour_Asymmetry_Pilot,2022.1.3,Linux x86_64,60.0276127,62bbe60bf3d75ef465d3e404,0,139,139,53,1,threefour,,,,,,,,,,,,,,,,,,,,,,,,,,,,,,,,,,,,,,,,,,,,,,,,,,,,,,,,,,,,,,,,,,,,,,,,,,,,,,,,,,,,,,,,,,,,,,,,,,,,,,,,,,,,,,,,,,,,,,,,,,,,,,,,,,,,,,,,,,,,,,,,,,,,,,,,
,,,,,,60dc31374fc70253e7a2d9e9,62bbfb627b006d5efd617960,2022-06-29_09h15.32.053,Colour_Asymmetry_Pilot,2022.1.3,Linux x86_64,60.0276127,62bbe60bf3d75ef465d3e404,0,140,140,137,1,onethree,,,,,,,,,,,,,,,,,,,,,,,,,,,,,,,,,,,,,,,,,,,,,,,,,,,,,,,,,,,,,,,,,,,,,,,,,,,,,,,,,,,,,,,,,,,,,,,,,,,,,,,,,,,,,,,,,,,,,,,,,,,,,,,,,,,,,,,,,,,,,,,,,,,,,,,,
,,,,,,60dc31374fc70253e7a2d9e9,62bbfb627b006d5efd617960,2022-06-29_09h15.32.053,Colour_Asymmetry_Pilot,2022.1.3,Linux x86_64,60.0276127,62bbe60bf3d75ef465d3e404,0,141,141,100,1,threeone,,,,,,,,,,,,,,,,,,,,,,,,,,,,,,,,,,,,,,,,,,,,,,,,,,,,,,,,,,,,,,,,,,,,,,,,,,,,,,,,,,,,,,,,,,,,,,,,,,,,,,,,,,,,,,,,,,,,,,,,,,,,,,,,,,,,,,,,,,,,,,,,,,,,,,,,
,,,,,,60dc31374fc70253e7a2d9e9,62bbfb627b006d5efd617960,2022-06-29_09h15.32.053,Colour_Asymmetry_Pilot,2022.1.3,Linux x86_64,60.0276127,62bbe60bf3d75ef465d3e404,0,142,142,52,1,threeone,,,,,,,,,,,,,,,,,,,,,,,,,,,,,,,,,,,,,,,,,,,,,,,,,,,,,,,,,,,,,,,,,,,,,,,,,,,,,,,,,,,,,,,,,,,,,,,,,,,,,,,,,,,,,,,,,,,,,,,,,,,,,,,,,,,,,,,,,,,,,,,,,,,,,,,,
,,,,,,60dc31374fc70253e7a2d9e9,62bbfb627b006d5efd617960,2022-06-29_09h15.32.053,Colour_Asymmetry_Pilot,2022.1.3,Linux x86_64,60.0276127,62bbe60bf3d75ef465d3e404,0,143,143,80,1,onetwo,,,,,,,,,,,,,,,,,,,,,,,,,,,,,,,,,,,,,,,,,,,,,,,,,,,,,,,,,,,,,,,,,,,,,,,,,,,,,,,,,,,,,,,,,,,,,,,,,,,,,,,,,,,,,,,,,,,,,,,,,,,,,,,,,,,,,,,,,,,,,,,,,,,,,,,,
,,,,,,60dc31374fc70253e7a2d9e9,62bbfb627b006d5efd617960,2022-06-29_09h15.32.053,Colour_Asymmetry_Pilot,2022.1.3,Linux x86_64,60.0276127,62bbe60bf3d75ef465d3e404,0,144,144,96,1,onetwo,,,,,,,,,,,,,,,,,,,,,,,,,,,,,,,,,,,,,,,,,,,,,,,,,,,,,,,,,,,,,,,,,,,,,,,,,,,,,,,,,,,,,,,,,,,,,,,,,,,,,,,,,,,,,,,,,,,,,,,,,,,,,,,,,,,,,,,,,,,,,,,,,,,,,,,,
,,,,,,60dc31374fc70253e7a2d9e9,62bbfb627b006d5efd617960,2022-06-29_09h15.32.053,Colour_Asymmetry_Pilot,2022.1.3,Linux x86_64,60.0276127,62bbe60bf3d75ef465d3e404,0,145,145,91,1,twofour,,,,,,,,,,,,,,,,,,,,,,,,,,,,,,,,,,,,,,,,,,,,,,,,,,,,,,,,,,,,,,,,,,,,,,,,,,,,,,,,,,,,,,,,,,,,,,,,,,,,,,,,,,,,,,,,,,,,,,,,,,,,,,,,,,,,,,,,,,,,,,,,,,,,,,,,
,,,,,,60dc31374fc70253e7a2d9e9,62bbfb627b006d5efd617960,2022-06-29_09h15.32.053,Colour_Asymmetry_Pilot,2022.1.3,Linux x86_64,60.0276127,62bbe60bf3d75ef465d3e404,0,146,146,124,1,threeone,,,,,,,,,,,,,,,,,,,,,,,,,,,,,,,,,,,,,,,,,,,,,,,,,,,,,,,,,,,,,,,,,,,,,,,,,,,,,,,,,,,,,,,,,,,,,,,,,,,,,,,,,,,,,,,,,,,,,,,,,,,,,,,,,,,,,,,,,,,,,,,,,,,,,,,,
,,,,,,60dc31374fc70253e7a2d9e9,62bbfb627b006d5efd617960,2022-06-29_09h15.32.053,Colour_Asymmetry_Pilot,2022.1.3,Linux x86_64,60.0276127,62bbe60bf3d75ef465d3e404,0,147,147,20,1,threeone,,,,,,,,,,,,,,,,,,,,,,,,,,,,,,,,,,,,,,,,,,,,,,,,,,,,,,,,,,,,,,,,,,,,,,,,,,,,,,,,,,,,,,,,,,,,,,,,,,,,,,,,,,,,,,,,,,,,,,,,,,,,,,,,,,,,,,,,,,,,,,,,,,,,,,,,
,,,,,,60dc31374fc70253e7a2d9e9,62bbfb627b006d5efd617960,2022-06-29_09h15.32.053,Colour_Asymmetry_Pilot,2022.1.3,Linux x86_64,60.0276127,62bbe60bf3d75ef465d3e404,0,148,148,3,1,twofour,,,,,,,,,,,,,,,,,,,,,,,,,,,,,,,,,,,,,,,,,,,,,,,,,,,,,,,,,,,,,,,,,,,,,,,,,,,,,,,,,,,,,,,,,,,,,,,,,,,,,,,,,,,,,,,,,,,,,,,,,,,,,,,,,,,,,,,,,,,,,,,,,,,,,,,,
,,,,,,60dc31374fc70253e7a2d9e9,62bbfb627b006d5efd617960,2022-06-29_09h15.32.053,Colour_Asymmetry_Pilot,2022.1.3,Linux x86_64,60.0276127,62bbe60bf3d75ef465d3e404,0,149,149,125,1,threefour,,,,,,,,,,,,,,,,,,,,,,,,,,,,,,,,,,,,,,,,,,,,,,,,,,,,,,,,,,,,,,,,,,,,,,,,,,,,,,,,,,,,,,,,,,,,,,,,,,,,,,,,,,,,,,,,,,,,,,,,,,,,,,,,,,,,,,,,,,,,,,,,,,,,,,,,
,,,,,,60dc31374fc70253e7a2d9e9,62bbfb627b006d5efd617960,2022-06-29_09h15.32.053,Colour_Asymmetry_Pilot,2022.1.3,Linux x86_64,60.0276127,62bbe60bf3d75ef465d3e404,0,150,150,109,1,threefour,,,,,,,,,,,,,,,,,,,,,,,,,,,,,,,,,,,,,,,,,,,,,,,,,,,,,,,,,,,,,,,,,,,,,,,,,,,,,,,,,,,,,,,,,,,,,,,,,,,,,,,,,,,,,,,,,,,,,,,,,,,,,,,,,,,,,,,,,,,,,,,,,,,,,,,,
,,,,,,60dc31374fc70253e7a2d9e9,62bbfb627b006d5efd617960,2022-06-29_09h15.32.053,Colour_Asymmetry_Pilot,2022.1.3,Linux x86_64,60.0276127,62bbe60bf3d75ef465d3e404,0,151,151,159,1,fourthree,,,,,,,,,,,,,,,,,,,,,,,,,,,,,,,,,,,,,,,,,,,,,,,,,,,,,,,,,,,,,,,,,,,,,,,,,,,,,,,,,,,,,,,,,,,,,,,,,,,,,,,,,,,,,,,,,,,,,,,,,,,,,,,,,,,,,,,,,,,,,,,,,,,,,,,,
,,,,,,60dc31374fc70253e7a2d9e9,62bbfb627b006d5efd617960,2022-06-29_09h15.32.053,Colour_Asymmetry_Pilot,2022.1.3,Linux x86_64,60.0276127,62bbe60bf3d75ef465d3e404,0,152,152,47,1,fourthree,,,,,,,,,,,,,,,,,,,,,,,,,,,,,,,,,,,,,,,,,,,,,,,,,,,,,,,,,,,,,,,,,,,,,,,,,,,,,,,,,,,,,,,,,,,,,,,,,,,,,,,,,,,,,,,,,,,,,,,,,,,,,,,,,,,,,,,,,,,,,,,,,,,,,,,,
,,,,,,60dc31374fc70253e7a2d9e9,62bbfb627b006d5efd617960,2022-06-29_09h15.32.053,Colour_Asymmetry_Pilot,2022.1.3,Linux x86_64,60.0276127,62bbe60bf3d75ef465d3e404,0,153,153,138,1,twoone,,,,,,,,,,,,,,,,,,,,,,,,,,,,,,,,,,,,,,,,,,,,,,,,,,,,,,,,,,,,,,,,,,,,,,,,,,,,,,,,,,,,,,,,,,,,,,,,,,,,,,,,,,,,,,,,,,,,,,,,,,,,,,,,,,,,,,,,,,,,,,,,,,,,,,,,
,,,,,,60dc31374fc70253e7a2d9e9,62bbfb627b006d5efd617960,2022-06-29_09h15.32.053,Colour_Asymmetry_Pilot,2022.1.3,Linux x86_64,60.0276127,62bbe60bf3d75ef465d3e404,0,154,154,38,1,fourtwo,,,,,,,,,,,,,,,,,,,,,,,,,,,,,,,,,,,,,,,,,,,,,,,,,,,,,,,,,,,,,,,,,,,,,,,,,,,,,,,,,,,,,,,,,,,,,,,,,,,,,,,,,,,,,,,,,,,,,,,,,,,,,,,,,,,,,,,,,,,,,,,,,,,,,,,,
,,,,,,60dc31374fc70253e7a2d9e9,62bbfb627b006d5efd617960,2022-06-29_09h15.32.053,Colour_Asymmetry_Pilot,2022.1.3,Linux x86_64,60.0276127,62bbe60bf3d75ef465d3e404,0,155,155,84,1,threeone,,,,,,,,,,,,,,,,,,,,,,,,,,,,,,,,,,,,,,,,,,,,,,,,,,,,,,,,,,,,,,,,,,,,,,,,,,,,,,,,,,,,,,,,,,,,,,,,,,,,,,,,,,,,,,,,,,,,,,,,,,,,,,,,,,,,,,,,,,,,,,,,,,,,,,,,
,,,,,,60dc31374fc70253e7a2d9e9,62bbfb627b006d5efd617960,2022-06-29_09h15.32.053,Colour_Asymmetry_Pilot,2022.1.3,Linux x86_64,60.0276127,62bbe60bf3d75ef465d3e404,0,156,156,117,1,threefour,,,,,,,,,,,,,,,,,,,,,,,,,,,,,,,,,,,,,,,,,,,,,,,,,,,,,,,,,,,,,,,,,,,,,,,,,,,,,,,,,,,,,,,,,,,,,,,,,,,,,,,,,,,,,,,,,,,,,,,,,,,,,,,,,,,,,,,,,,,,,,,,,,,,,,,,
,,,,,,60dc31374fc70253e7a2d9e9,62bbfb627b006d5efd617960,2022-06-29_09h15.32.053,Colour_Asymmetry_Pilot,2022.1.3,Linux x86_64,60.0276127,62bbe60bf3d75ef465d3e404,0,157,157,12,1,threeone,,,,,,,,,,,,,,,,,,,,,,,,,,,,,,,,,,,,,,,,,,,,,,,,,,,,,,,,,,,,,,,,,,,,,,,,,,,,,,,,,,,,,,,,,,,,,,,,,,,,,,,,,,,,,,,,,,,,,,,,,,,,,,,,,,,,,,,,,,,,,,,,,,,,,,,,
,,,,,,60dc31374fc70253e7a2d9e9,62bbfb627b006d5efd617960,2022-06-29_09h15.32.053,Colour_Asymmetry_Pilot,2022.1.3,Linux x86_64,60.0276127,62bbe60bf3d75ef465d3e404,0,158,158,148,1,threeone,,,,,,,,,,,,,,,,,,,,,,,,,,,,,,,,,,,,,,,,,,,,,,,,,,,,,,,,,,,,,,,,,,,,,,,,,,,,,,,,,,,,,,,,,,,,,,,,,,,,,,,,,,,,,,,,,,,,,,,,,,,,,,,,,,,,,,,,,,,,,,,,,,,,,,,,
,,,,,,60dc31374fc70253e7a2d9e9,62bbfb627b006d5efd617960,2022-06-29_09h15.32.053,Colour_Asymmetry_Pilot,2022.1.3,Linux x86_64,60.0276127,62bbe60bf3d75ef465d3e404,0,159,159,76,1,threeone,,,,,,,,,,,,,,,,,,,,,,,,,,,,,,,,,,,,,,,,,,,,,,,,,,,,,,,,,,,,,,,,,,,,,,,,,,,,,,,,,,,,,,,,,,,,,,,,,,,,,,,,,,,,,,,,,,,,,,,,,,,,,,,,,,,,,,,,,,,,,,,,,,,,,,,,
,,,,,,60dc31374fc70253e7a2d9e9,62bbfb627b006d5efd617960,2022-06-29_09h15.32.053,Colour_Asymmetry_Pilot,2022.1.3,Linux x86_64,60.0276127,62bbe60bf3d75ef465d3e404,0,160,160,132,1,threeone,,,,,,,,,,,,,,,,,,,,,,,,,,,,,,,,,,,,,,,,,,,,,,,,,,,,,,,,,,,,,,,,,,,,,,,,,,,,,,,,,,,,,,,,,,,,,,,,,,,,,,,,,,,,,,,,,,,,,,,,,,,,,,,,,,,,,,,,,,,,,,,,,,,,,,,,
,,,,,,60dc31374fc70253e7a2d9e9,62bbfb627b006d5efd617960,2022-06-29_09h15.32.053,Colour_Asymmetry_Pilot,2022.1.3,Linux x86_64,60.0276127,62bbe60bf3d75ef465d3e404,0,161,161,150,1,fourtwo,,,,,,,,,,,,,,,,,,,,,,,,,,,,,,,,,,,,,,,,,,,,,,,,,,,,,,,,,,,,,,,,,,,,,,,,,,,,,,,,,,,,,,,,,,,,,,,,,,,,,,,,,,,,,,,,,,,,,,,,,,,,,,,,,,,,,,,,,,,,,,,,,,,,,,,,
,,,,,,60dc31374fc70253e7a2d9e9,62bbfb627b006d5efd617960,2022-06-29_09h15.32.053,Colour_Asymmetry_Pilot,2022.1.3,Linux x86_64,60.0276127,62bbe60bf3d75ef465d3e404,,,,,,,space,4.2539,space,22.0326,space,33.9631,space,20.7099,space,3.2075,space,8.1705,"[0.23120000000000007,-0.7726,-0.34120000000000006]",twoone,"[-0.5452,-0.608,0.2470000000000001]",2,17.8003,70,-35,1,0,0,response3disk_5,-5,3,1,0,0,rectangle_8,71,35,1,0,0,response1disk_7,6,3,8,2,1,0,0,rectangle_4,0,0,0,0,1,,,,,,,,,,,,,,,,,,,,,,,,,,,,,,,,,,,,,,,,,,,,,,,,,,,,,,,,,,,,,,,,,,,,,,,,,,,,,,,,,,,,,,,,,,,,,,,,,,,,,,,,
,,,,,,60dc31374fc70253e7a2d9e9,62bbfb627b006d5efd617960,2022-06-29_09h15.32.053,Colour_Asymmetry_Pilot,2022.1.3,Linux x86_64,60.0276127,62bbe60bf3d75ef465d3e404,,,,,,,,,,,,,,,,,,,"[-0.050999999999999934,-0.6706000000000001,-0.804]",fourtwo,"[1,0.12939999999999996,-1]",-1,12.0832,-43,-95,1,0,0,response5disk_5,-6,-1,1,0,0,rectangle_8,-6,-1,1,0,0,,,3,-6,-1,1,0,0,,1,0,1,0,1,,,,,,,,,,,,,,,,,,,,,,,,,,,,,,,,,,,,,,,,,,,,,,,,,,,,,,,,,,,,,,,,,,,,,,,,,,,,,,,,,,,,,,,,,,,,,,,,,,,,,,,,
,,,,,,60dc31374fc70253e7a2d9e9,62bbfb627b006d5efd617960,2022-06-29_09h15.32.053,Colour_Asymmetry_Pilot,2022.1.3,Linux x86_64,60.0276127,62bbe60bf3d75ef465d3e404,,,,,,,,,,,,,,,,,,,"[-0.17659999999999998,-0.2864,-0.8354]",twofour,"[0.9213999999999998,0.6391999999999998,-0.9922]",1,13.5994,29,-93,1,0,0,response3disk_5,1,-4,1,0,0,rectangle_8,1,-4,1,0,0,,,3,1,-4,1,0,0,,2,0,2,0,1,,,,,,,,,,,,,,,,,,,,,,,,,,,,,,,,,,,,,,,,,,,,,,,,,,,,,,,,,,,,,,,,,,,,,,,,,,,,,,,,,,,,,,,,,,,,,,,,,,,,,,,,
,,,,,,60dc31374fc70253e7a2d9e9,62bbfb627b006d5efd617960,2022-06-29_09h15.32.053,Colour_Asymmetry_Pilot,2022.1.3,Linux x86_64,60.0276127,62bbe60bf3d75ef465d3e404,,,,,,,,,,,,,,,,,,,"[-0.6235999999999999,-0.6786,-0.08239999999999992]",onethree,"[-0.45899999999999996,-0.3256,-0.9374]",-2,11.2966,-75,-35,1,0,0,response5disk_5,-2,-6,1,0,0,rectangle_8,-2,-6,1,0,0,,,3,-2,-6,1,0,0,,3,0,3,0,1,,,,,,,,,,,,,,,,,,,,,,,,,,,,,,,,,,,,,,,,,,,,,,,,,,,,,,,,,,,,,,,,,,,,,,,,,,,,,,,,,,,,,,,,,,,,,,,,,,,,,,,,
,,,,,,60dc31374fc70253e7a2d9e9,62bbfb627b006d5efd617960,2022-06-29_09h15.32.053,Colour_Asymmetry_Pilot,2022.1.3,Linux x86_64,60.0276127,62bbe60bf3d75ef465d3e404,,,,,,,,,,,,,,,,,,,"[-0.2942,-0.7648,-0.7492000000000001]",fourthree,"[0.19199999999999995,0.18419999999999992,0.5136000000000001]",-4,4.0145,-48,74,1,0,0,response7disk_5,-6,3,1,0,0,rectangle_8,-6,3,1,0,0,,,3,-6,3,1,0,0,,4,0,4,0,1,,,,,,,,,,,,,,,,,,,,,,,,,,,,,,,,,,,,,,,,,,,,,,,,,,,,,,,,,,,,,,,,,,,,,,,,,,,,,,,,,,,,,,,,,,,,,,,,,,,,,,,,
,,,,,,60dc31374fc70253e7a2d9e9,62bbfb627b006d5efd617960,2022-06-29_09h15.32.053,Colour_Asymmetry_Pilot,2022.1.3,Linux x86_64,60.0276127,62bbe60bf3d75ef465d3e404,,,,,,,,,,,,,,,,,,,"[-0.09019999999999995,0.44300000000000006,0.5371999999999999]",threeone,"[0.22340000000000004,-0.9296,-0.7884]",-4,1.9834,-46,75,1,0,0,response7disk_5,-2,-1,1,0,0,rectangle_8,88,37,1,0,0,response1disk_7,6,3,3,-5,1,0,0,rectangle_4,5,0,5,0,1,,,,,,,,,,,,,,,,,,,,,,,,,,,,,,,,,,,,,,,,,,,,,,,,,,,,,,,,,,,,,,,,,,,,,,,,,,,,,,,,,,,,,,,,,,,,,,,,,,,,,,,,
,,,,,,60dc31374fc70253e7a2d9e9,62bbfb627b006d5efd617960,2022-06-29_09h15.32.053,Colour_Asymmetry_Pilot,2022.1.3,Linux x86_64,60.0276127,62bbe60bf3d75ef465d3e404,,,,,,,,,,,,,,,,,,,"[0.3568,-0.20799999999999996,-0.9844]",onetwo,"[0.7802,-0.23140000000000005,-0.20799999999999996]",-2,2.6517,-76,-50,1,0,0,response5disk_5,-4,7,1,0,0,rectangle_8,-4,7,1,0,0,,,3,-4,7,1,0,0,,6,0,6,0,1,,,,,,,,,,,,,,,,,,,,,,,,,,,,,,,,,,,,,,,,,,,,,,,,,,,,,,,,,,,,,,,,,,,,,,,,,,,,,,,,,,,,,,,,,,,,,,,,,,,,,,,,
,,,,,,60dc31374fc70253e7a2d9e9,62bbfb627b006d5efd617960,2022-06-29_09h15.32.053,Colour_Asymmetry_Pilot,2022.1.3,Linux x86_64,60.0276127,62bbe60bf3d75ef465d3e404,,,,,,,,,,,,,,,,,,,,fourthree,,3,3.7161,,,,,,,,,,,,,,,,,,,,,,,,,,,,,,,,space,4.1527,"[0.23120000000000007,-0.7726,-0.34120000000000006]","[0.22340000000000004,-0.9296,-0.7884]",98,27,1,0,0,response1disk,-15,1,1,0,0,rectangle,44,-96,1,0,0,response3disk_3,1,1,6.0307,1,9,-2,1,0,0,rectangle,0,0,0,161,1,80,second,,,,,,,,,,,,,,,,,,,,,,,,,,,,,,,,,,,,,,,,,,,,,,,,,,,,,,,,,,,,,,,,,
,,,,,,60dc31374fc70253e7a2d9e9,62bbfb627b006d5efd617960,2022-06-29_09h15.32.053,Colour_Asymmetry_Pilot,2022.1.3,Linux x86_64,60.0276127,62bbe60bf3d75ef465d3e404,,,,,,,,,,,,,,,,,,,,onetwo,,-3,1.4212,,,,,,,,,,,,,,,,,,,,,,,,,,,,,,,,,,"[-0.9688,-0.7412000000000001,-0.4902000000000001]","[-0.24719999999999998,-0.0354000000000001,0.3175999999999999]",-108,41,1,0,0,response7disk,5,-8,1,0,0,rectangle,5,-8,1,0,0,,1,1,0.0011,0,5,-8,1,0,0,,0,1,1,158,1,77,second,,,,,,,,,,,,,,,,,,,,,,,,,,,,,,,,,,,,,,,,,,,,,,,,,,,,,,,,,,,,,,,,,
,,,,,,60dc31374fc70253e7a2d9e9,62bbfb627b006d5efd617960,2022-06-29_09h15.32.053,Colour_Asymmetry_Pilot,2022.1.3,Linux x86_64,60.0276127,62bbe60bf3d75ef465d3e404,,,,,,,,,,,,,,,,,,,,onethree,,1,1.7998,,,,,,,,,,,,,,,,,,,,,,,,,,,,,,,,,,"[0.9763999999999999,0.30979999999999985,-0.6786]","[-0.17659999999999998,-0.2864,-0.8354]",48,-90,1,0,0,response3disk,-7,4,1,0,0,rectangle,-7,4,1,0,0,,1,1,0.0008,0,-7,4,1,0,0,,0,2,2,89,1,8,second,,,,,,,,,,,,,,,,,,,,,,,,,,,,,,,,,,,,,,,,,,,,,,,,,,,,,,,,,,,,,,,,,
,,,,,,60dc31374fc70253e7a2d9e9,62bbfb627b006d5efd617960,2022-06-29_09h15.32.053,Colour_Asymmetry_Pilot,2022.1.3,Linux x86_64,60.0276127,62bbe60bf3d75ef465d3e404,,,,,,,,,,,,,,,,,,,,twoone,,2,2.4172,,,,,,,,,,,,,,,,,,,,,,,,,,,,,,,,,,"[-0.26280000000000003,-0.2158,-0.3256]","[-0.24719999999999998,-0.0354000000000001,0.3175999999999999]",86,-59,1,0,0,response3disk,1,-4,1,0,0,rectangle,1,-4,1,0,0,,1,1,0.0011,0,1,-4,1,0,0,,0,3,3,121,1,40,second,,,,,,,,,,,,,,,,,,,,,,,,,,,,,,,,,,,,,,,,,,,,,,,,,,,,,,,,,,,,,,,,,
,,,,,,60dc31374fc70253e7a2d9e9,62bbfb627b006d5efd617960,2022-06-29_09h15.32.053,Colour_Asymmetry_Pilot,2022.1.3,Linux x86_64,60.0276127,62bbe60bf3d75ef465d3e404,,,,,,,,,,,,,,,,,,,,fourthree,,-1,1.0863,,,,,,,,,,,,,,,,,,,,,,,,,,,,,,,,,,"[0.2862,0.7802,0.3568]","[0.3881999999999999,-0.23939999999999995,-0.05040000000000011]",-53,-101,1,0,0,response5disk,7,-3,1,0,0,rectangle,7,-3,1,0,0,,1,2,0.0092,0,7,-3,1,0,0,,0,4,4,115,1,34,second,,,,,,,,,,,,,,,,,,,,,,,,,,,,,,,,,,,,,,,,,,,,,,,,,,,,,,,,,,,,,,,,,
,,,,,,60dc31374fc70253e7a2d9e9,62bbfb627b006d5efd617960,2022-06-29_09h15.32.053,Colour_Asymmetry_Pilot,2022.1.3,Linux x86_64,60.0276127,62bbe60bf3d75ef465d3e404,,,,,,,,,,,,,,,,,,,,onetwo,,-3,1.6542,,,,,,,,,,,,,,,,,,,,,,,,,,,,,,,,,,"[-0.26280000000000003,-0.4746,-0.2158]","[0.34099999999999997,0.5841999999999998,-0.9844]",-82,45,1,0,0,response7disk,-1,5,1,0,0,rectangle,-1,5,1,0,0,,1,2,0.0021,0,-1,5,1,0,0,,0,5,5,72,1,72,first,,,,,,,,,,,,,,,,,,,,,,,,,,,,,,,,,,,,,,,,,,,,,,,,,,,,,,,,,,,,,,,,,
,,,,,,60dc31374fc70253e7a2d9e9,62bbfb627b006d5efd617960,2022-06-29_09h15.32.053,Colour_Asymmetry_Pilot,2022.1.3,Linux x86_64,60.0276127,62bbe60bf3d75ef465d3e404,,,,,,,,,,,,,,,,,,,,twoone,,1,1.249,,,,,,,,,,,,,,,,,,,,,,,,,,,,,,,,,,"[-0.5452,-0.608,0.2470000000000001]","[-0.2942,-0.24719999999999998,-0.357]",30,-108,1,0,0,response3disk,-11,0,1,0,0,rectangle,-11,0,1,0,0,,1,1,0.0029,0,-11,0,1,0,0,,0,6,6,83,1,2,second,,,,,,,,,,,,,,,,,,,,,,,,,,,,,,,,,,,,,,,,,,,,,,,,,,,,,,,,,,,,,,,,,
,,,,,,60dc31374fc70253e7a2d9e9,62bbfb627b006d5efd617960,2022-06-29_09h15.32.053,Colour_Asymmetry_Pilot,2022.1.3,Linux x86_64,60.0276127,62bbe60bf3d75ef465d3e404,,,,,,,,,,,,,,,,,,,,twofour,,1,1.605,,,,,,,,,,,,,,,,,,,,,,,,,,,,,,,,,,"[0.09799999999999986,-0.24719999999999998,0.15280000000000005]","[-0.9296,-0.12959999999999994,-0.043199999999999905]",57,-79,1,0,0,response3disk,2,-7,1,0,0,rectangle,2,-7,1,0,0,,1,3,0.0066,0,2,-7,1,0,0,,0,7,7,146,1,65,second,,,,,,,,,,,,,,,,,,,,,,,,,,,,,,,,,,,,,,,,,,,,,,,,,,,,,,,,,,,,,,,,,
,,,,,,60dc31374fc70253e7a2d9e9,62bbfb627b006d5efd617960,2022-06-29_09h15.32.053,Colour_Asymmetry_Pilot,2022.1.3,Linux x86_64,60.0276127,62bbe60bf3d75ef465d3e404,,,,,,,,,,,,,,,,,,,,onetwo,,-1,1.0012,,,,,,,,,,,,,,,,,,,,,,,,,,,,,,,,,,"[-0.9688,-0.38039999999999996,-0.41979999999999995]","[0.23120000000000007,-0.7726,-0.34120000000000006]",-39,-97,1,0,0,response5disk,-2,-2,1,0,0,rectangle,-2,-2,1,0,0,,1,3,0.0016,0,-2,-2,1,0,0,,0,8,8,23,1,23,first,,,,,,,,,,,,,,,,,,,,,,,,,,,,,,,,,,,,,,,,,,,,,,,,,,,,,,,,,,,,,,,,,
,,,,,,60dc31374fc70253e7a2d9e9,62bbfb627b006d5efd617960,2022-06-29_09h15.32.053,Colour_Asymmetry_Pilot,2022.1.3,Linux x86_64,60.0276127,62bbe60bf3d75ef465d3e404,,,,,,,,,,,,,,,,,,,,threeone,,-3,0.7415,,,,,,,,,,,,,,,,,,,,,,,,,,,,,,,,,,"[-0.20799999999999996,-0.655,-0.01980000000000004]","[0.34099999999999997,0.12939999999999996,-0.9766]",-71,34,1,0,0,response7disk,-8,5,1,0,0,rectangle,52,-87,1,0,0,response3disk_3,1,1,3.6081,1,-4,7,1,0,0,rectangle,0,9,9,55,1,55,first,,,,,,,,,,,,,,,,,,,,,,,,,,,,,,,,,,,,,,,,,,,,,,,,,,,,,,,,,,,,,,,,,
,,,,,,60dc31374fc70253e7a2d9e9,62bbfb627b006d5efd617960,2022-06-29_09h15.32.053,Colour_Asymmetry_Pilot,2022.1.3,Linux x86_64,60.0276127,62bbe60bf3d75ef465d3e404,,,,,,,,,,,,,,,,,,,,onetwo,,-2,1.0565,,,,,,,,,,,,,,,,,,,,,,,,,,,,,,,,,,"[-0.5688,-0.08239999999999992,-0.1844]","[0.796,0.2156,-0.27859999999999996]",-75,-31,1,0,0,response5disk,6,0,1,0,0,rectangle,6,0,1,0,0,,1,1,0.001,0,6,0,1,0,0,,0,10,10,56,1,56,first,,,,,,,,,,,,,,,,,,,,,,,,,,,,,,,,,,,,,,,,,,,,,,,,,,,,,,,,,,,,,,,,,
,,,,,,60dc31374fc70253e7a2d9e9,62bbfb627b006d5efd617960,2022-06-29_09h15.32.053,Colour_Asymmetry_Pilot,2022.1.3,Linux x86_64,60.0276127,62bbe60bf3d75ef465d3e404,,,,,,,,,,,,,,,,,,,,threeone,,1,0.8995,,,,,,,,,,,,,,,,,,,,,,,,,,,,,,,,,,"[0.5528,0.7409999999999999,-0.71]","[-0.24719999999999998,0.5213999999999999,-0.12959999999999994]",23,-95,1,0,0,response3disk,-5,6,1,0,0,rectangle,-5,6,1,0,0,,1,1,0.0012,0,-5,6,1,0,0,,0,11,11,120,1,39,second,,,,,,,,,,,,,,,,,,,,,,,,,,,,,,,,,,,,,,,,,,,,,,,,,,,,,,,,,,,,,,,,,
,,,,,,60dc31374fc70253e7a2d9e9,62bbfb627b006d5efd617960,2022-06-29_09h15.32.053,Colour_Asymmetry_Pilot,2022.1.3,Linux x86_64,60.0276127,62bbe60bf3d75ef465d3e404,,,,,,,,,,,,,,,,,,,,fourthree,,-3,0.6789,,,,,,,,,,,,,,,,,,,,,,,,,,,,,,,,,,"[0.6547999999999998,-0.043199999999999905,-0.011800000000000033]","[-0.38039999999999996,-0.4276,-0.1452]",-74,38,1,0,0,response7disk,12,0,1,0,0,rectangle,12,0,1,0,0,,1,2,0.0073,0,12,0,1,0,0,,0,12,12,90,1,9,second,,,,,,,,,,,,,,,,,,,,,,,,,,,,,,,,,,,,,,,,,,,,,,,,,,,,,,,,,,,,,,,,,
,,,,,,60dc31374fc70253e7a2d9e9,62bbfb627b006d5efd617960,2022-06-29_09h15.32.053,Colour_Asymmetry_Pilot,2022.1.3,Linux x86_64,60.0276127,62bbe60bf3d75ef465d3e404,,,,,,,,,,,,,,,,,,,,threeone,,2,1.3842,,,,,,,,,,,,,,,,,,,,,,,,,,,,,,,,,,"[-0.9296,-0.12959999999999994,-0.043199999999999905]","[0.09799999999999986,-0.24719999999999998,0.15280000000000005]",68,-54,1,0,0,response3disk,4,0,1,0,0,rectangle,4,0,1,0,0,,1,3,0.0033,0,4,0,1,0,0,,0,13,13,65,1,65,first,,,,,,,,,,,,,,,,,,,,,,,,,,,,,,,,,,,,,,,,,,,,,,,,,,,,,,,,,,,,,,,,,
,,,,,,60dc31374fc70253e7a2d9e9,62bbfb627b006d5efd617960,2022-06-29_09h15.32.053,Colour_Asymmetry_Pilot,2022.1.3,Linux x86_64,60.0276127,62bbe60bf3d75ef465d3e404,,,,,,,,,,,,,,,,,,,,twofour,,1,0.756,,,,,,,,,,,,,,,,,,,,,,,,,,,,,,,,,,"[-0.24719999999999998,0.5213999999999999,-0.12959999999999994]","[-0.4746,-0.0354000000000001,0.5449999999999999]",36,-85,1,0,0,response3disk,-2,-6,1,0,0,rectangle,-2,-6,1,0,0,,1,2,0.01,0,-2,-6,1,0,0,,0,14,14,125,1,44,second,,,,,,,,,,,,,,,,,,,,,,,,,,,,,,,,,,,,,,,,,,,,,,,,,,,,,,,,,,,,,,,,,
,,,,,,60dc31374fc70253e7a2d9e9,62bbfb627b006d5efd617960,2022-06-29_09h15.32.053,Colour_Asymmetry_Pilot,2022.1.3,Linux x86_64,60.0276127,62bbe60bf3d75ef465d3e404,,,,,,,,,,,,,,,,,,,,threefour,,-3,0.6825,,,,,,,,,,,,,,,,,,,,,,,,,,,,,,,,,,"[-0.38039999999999996,-0.4276,-0.1452]","[0.6547999999999998,-0.043199999999999905,-0.011800000000000033]",-85,50,1,0,0,response7disk,-2,-5,1,0,0,rectangle,-2,-5,1,0,0,,1,3,0.0056,0,-2,-5,1,0,0,,0,15,15,9,1,9,first,,,,,,,,,,,,,,,,,,,,,,,,,,,,,,,,,,,,,,,,,,,,,,,,,,,,,,,,,,,,,,,,,
,,,,,,60dc31374fc70253e7a2d9e9,62bbfb627b006d5efd617960,2022-06-29_09h15.32.053,Colour_Asymmetry_Pilot,2022.1.3,Linux x86_64,60.0276127,62bbe60bf3d75ef465d3e404,,,,,,,,,,,,,,,,,,,,fourtwo,,1,0.702,,,,,,,,,,,,,,,,,,,,,,,,,,,,,,,,,,"[-0.2942,-0.24719999999999998,-0.357]","[0.4196,0.4665999999999999,0.3568]",49,-78,1,0,0,response3disk,5,-7,1,0,0,rectangle,5,-7,1,0,0,,1,2,0.0038,0,5,-7,1,0,0,,0,16,16,66,1,66,first,,,,,,,,,,,,,,,,,,,,,,,,,,,,,,,,,,,,,,,,,,,,,,,,,,,,,,,,,,,,,,,,,
