trials.thisRepN,trials.thisTrialN,trials.thisN,trials.thisIndex,trials.ran,Colourcodes,participant,session,date,expName,psychopyVersion,OS,frameRate,study_id,trials_4.thisRepN,trials_4.thisTrialN,trials_4.thisN,trials_4.thisIndex,trials_4.ran,StimulusPos,key_resp.keys,key_resp.rt,key_resp_2.keys,key_resp_2.rt,key_resp_15.keys,key_resp_15.rt,key_resp_17.keys,key_resp_17.rt,key_resp_9.keys,key_resp_9.rt,key_resp_10.keys,key_resp_10.rt,Circle1_col,Ecc,Circle2_col,similarity,response_time,mouse_5.x,mouse_5.y,mouse_5.leftButton,mouse_5.midButton,mouse_5.rightButton,mouse_5.clicked_name,mouse_10.x,mouse_10.y,mouse_10.leftButton,mouse_10.midButton,mouse_10.rightButton,mouse_10.clicked_name,mouse_7.x,mouse_7.y,mouse_7.leftButton,mouse_7.midButton,mouse_7.rightButton,catchnumberprac,mouse_6.x,mouse_6.y,mouse_6.leftButton,mouse_6.midButton,mouse_6.rightButton,duringprac.thisRepN,duringprac.thisTrialN,duringprac.thisN,duringprac.thisIndex,duringprac.ran,mouse_7.clicked_name,catchprac,mouse_6.clicked_name,key_resp_22.keys,key_resp_22.rt,Circle1_colour,Circle2_colour,mouse.x,mouse.y,mouse.leftButton,mouse.midButton,mouse.rightButton,mouse.clicked_name,mouse_2.x,mouse_2.y,mouse_2.leftButton,mouse_2.midButton,mouse_2.rightButton,mouse_2.clicked_name,mouse_3.x,mouse_3.y,mouse_3.leftButton,mouse_3.midButton,mouse_3.rightButton,catchresponse,catchnumber,response_time_catch,Catch,mouse_11.x,mouse_11.y,mouse_11.leftButton,mouse_11.midButton,mouse_11.rightButton,trials_2.thisRepN,trials_2.thisTrialN,trials_2.thisN,trials_2.thisIndex,trials_2.ran,Colourpair,Temporder,mouse_3.clicked_name,mouse_11.clicked_name,trials_3.thisRepN,trials_3.thisTrialN,trials_3.thisN,trials_3.thisIndex,trials_3.ran,key_resp_instr_Ishi.keys,key_resp_instr_Ishi.rt,Ishi_trial_keyresp.keys,Ishi_trial_keyresp.rt,Ishi_textbox.text,Ishi_loop.thisRepN,Ishi_loop.thisTrialN,Ishi_loop.thisN,Ishi_loop.thisIndex,Ishi_loop.ran,imageaddress,textbox.text,mouse_4.x,mouse_4.y,mouse_4.leftButton,mouse_4.midButton,mouse_4.rightButton,mouse_4.clicked_name,textbox_2.text,mouse_8.x,mouse_8.y,mouse_8.leftButton,mouse_8.midButton,mouse_8.rightButton,mouse_8.clicked_name,textbox_3.text,mouse_9.x,mouse_9.y,mouse_9.leftButton,mouse_9.midButton,mouse_9.rightButton,mouse_9.clicked_name,textbox_4.text,mouse_12.x,mouse_12.y,mouse_12.leftButton,mouse_12.midButton,mouse_12.rightButton,mouse_12.clicked_name,textbox_5.text,mouse_13.x,mouse_13.y,mouse_13.leftButton,mouse_13.midButton,mouse_13.rightButton,mouse_13.clicked_name,textbox_6.text,mouse_14.x,mouse_14.y,mouse_14.leftButton,mouse_14.midButton,mouse_14.rightButton,mouse_14.clicked_name,textbox_7.text,mouse_15.x,mouse_15.y,mouse_15.leftButton,mouse_15.midButton,mouse_15.rightButton,mouse_15.clicked_name
0,0,0,80,1,,61632bd53a9234c3d53d4d3e,62bbfb2190e1cf83174d9127,2022-06-29_09h21.26.866,Colour_Asymmetry_Pilot,2022.1.3,Win32,60.13952369,62bbe60bf3d75ef465d3e404,,,,,,,,,,,,,,,,,,,,,,,,,,,,,,,,,,,,,,,,,,,,,,,,,,,,,,,,,,,,,,,,,,,,,,,,,,,,,,,,,,,,,,,,,,,,,,,,,,,,,,,,,,,,,,,,,,,,,,,,,,,,,,,,,,,,,,,,,,,,,,,,,,,,,,,,,,,,,,
0,1,1,35,1,,61632bd53a9234c3d53d4d3e,62bbfb2190e1cf83174d9127,2022-06-29_09h21.26.866,Colour_Asymmetry_Pilot,2022.1.3,Win32,60.13952369,62bbe60bf3d75ef465d3e404,,,,,,,,,,,,,,,,,,,,,,,,,,,,,,,,,,,,,,,,,,,,,,,,,,,,,,,,,,,,,,,,,,,,,,,,,,,,,,,,,,,,,,,,,,,,,,,,,,,,,,,,,,,,,,,,,,,,,,,,,,,,,,,,,,,,,,,,,,,,,,,,,,,,,,,,,,,,,,
0,2,2,37,1,,61632bd53a9234c3d53d4d3e,62bbfb2190e1cf83174d9127,2022-06-29_09h21.26.866,Colour_Asymmetry_Pilot,2022.1.3,Win32,60.13952369,62bbe60bf3d75ef465d3e404,,,,,,,,,,,,,,,,,,,,,,,,,,,,,,,,,,,,,,,,,,,,,,,,,,,,,,,,,,,,,,,,,,,,,,,,,,,,,,,,,,,,,,,,,,,,,,,,,,,,,,,,,,,,,,,,,,,,,,,,,,,,,,,,,,,,,,,,,,,,,,,,,,,,,,,,,,,,,,
0,3,3,18,1,,61632bd53a9234c3d53d4d3e,62bbfb2190e1cf83174d9127,2022-06-29_09h21.26.866,Colour_Asymmetry_Pilot,2022.1.3,Win32,60.13952369,62bbe60bf3d75ef465d3e404,,,,,,,,,,,,,,,,,,,,,,,,,,,,,,,,,,,,,,,,,,,,,,,,,,,,,,,,,,,,,,,,,,,,,,,,,,,,,,,,,,,,,,,,,,,,,,,,,,,,,,,,,,,,,,,,,,,,,,,,,,,,,,,,,,,,,,,,,,,,,,,,,,,,,,,,,,,,,,
0,4,4,11,1,,61632bd53a9234c3d53d4d3e,62bbfb2190e1cf83174d9127,2022-06-29_09h21.26.866,Colour_Asymmetry_Pilot,2022.1.3,Win32,60.13952369,62bbe60bf3d75ef465d3e404,,,,,,,,,,,,,,,,,,,,,,,,,,,,,,,,,,,,,,,,,,,,,,,,,,,,,,,,,,,,,,,,,,,,,,,,,,,,,,,,,,,,,,,,,,,,,,,,,,,,,,,,,,,,,,,,,,,,,,,,,,,,,,,,,,,,,,,,,,,,,,,,,,,,,,,,,,,,,,
0,5,5,6,1,,61632bd53a9234c3d53d4d3e,62bbfb2190e1cf83174d9127,2022-06-29_09h21.26.866,Colour_Asymmetry_Pilot,2022.1.3,Win32,60.13952369,62bbe60bf3d75ef465d3e404,,,,,,,,,,,,,,,,,,,,,,,,,,,,,,,,,,,,,,,,,,,,,,,,,,,,,,,,,,,,,,,,,,,,,,,,,,,,,,,,,,,,,,,,,,,,,,,,,,,,,,,,,,,,,,,,,,,,,,,,,,,,,,,,,,,,,,,,,,,,,,,,,,,,,,,,,,,,,,
0,6,6,61,1,,61632bd53a9234c3d53d4d3e,62bbfb2190e1cf83174d9127,2022-06-29_09h21.26.866,Colour_Asymmetry_Pilot,2022.1.3,Win32,60.13952369,62bbe60bf3d75ef465d3e404,,,,,,,,,,,,,,,,,,,,,,,,,,,,,,,,,,,,,,,,,,,,,,,,,,,,,,,,,,,,,,,,,,,,,,,,,,,,,,,,,,,,,,,,,,,,,,,,,,,,,,,,,,,,,,,,,,,,,,,,,,,,,,,,,,,,,,,,,,,,,,,,,,,,,,,,,,,,,,
0,7,7,45,1,,61632bd53a9234c3d53d4d3e,62bbfb2190e1cf83174d9127,2022-06-29_09h21.26.866,Colour_Asymmetry_Pilot,2022.1.3,Win32,60.13952369,62bbe60bf3d75ef465d3e404,,,,,,,,,,,,,,,,,,,,,,,,,,,,,,,,,,,,,,,,,,,,,,,,,,,,,,,,,,,,,,,,,,,,,,,,,,,,,,,,,,,,,,,,,,,,,,,,,,,,,,,,,,,,,,,,,,,,,,,,,,,,,,,,,,,,,,,,,,,,,,,,,,,,,,,,,,,,,,
0,8,8,62,1,,61632bd53a9234c3d53d4d3e,62bbfb2190e1cf83174d9127,2022-06-29_09h21.26.866,Colour_Asymmetry_Pilot,2022.1.3,Win32,60.13952369,62bbe60bf3d75ef465d3e404,,,,,,,,,,,,,,,,,,,,,,,,,,,,,,,,,,,,,,,,,,,,,,,,,,,,,,,,,,,,,,,,,,,,,,,,,,,,,,,,,,,,,,,,,,,,,,,,,,,,,,,,,,,,,,,,,,,,,,,,,,,,,,,,,,,,,,,,,,,,,,,,,,,,,,,,,,,,,,
0,9,9,48,1,,61632bd53a9234c3d53d4d3e,62bbfb2190e1cf83174d9127,2022-06-29_09h21.26.866,Colour_Asymmetry_Pilot,2022.1.3,Win32,60.13952369,62bbe60bf3d75ef465d3e404,,,,,,,,,,,,,,,,,,,,,,,,,,,,,,,,,,,,,,,,,,,,,,,,,,,,,,,,,,,,,,,,,,,,,,,,,,,,,,,,,,,,,,,,,,,,,,,,,,,,,,,,,,,,,,,,,,,,,,,,,,,,,,,,,,,,,,,,,,,,,,,,,,,,,,,,,,,,,,
0,10,10,92,1,,61632bd53a9234c3d53d4d3e,62bbfb2190e1cf83174d9127,2022-06-29_09h21.26.866,Colour_Asymmetry_Pilot,2022.1.3,Win32,60.13952369,62bbe60bf3d75ef465d3e404,,,,,,,,,,,,,,,,,,,,,,,,,,,,,,,,,,,,,,,,,,,,,,,,,,,,,,,,,,,,,,,,,,,,,,,,,,,,,,,,,,,,,,,,,,,,,,,,,,,,,,,,,,,,,,,,,,,,,,,,,,,,,,,,,,,,,,,,,,,,,,,,,,,,,,,,,,,,,,
0,11,11,87,1,,61632bd53a9234c3d53d4d3e,62bbfb2190e1cf83174d9127,2022-06-29_09h21.26.866,Colour_Asymmetry_Pilot,2022.1.3,Win32,60.13952369,62bbe60bf3d75ef465d3e404,,,,,,,,,,,,,,,,,,,,,,,,,,,,,,,,,,,,,,,,,,,,,,,,,,,,,,,,,,,,,,,,,,,,,,,,,,,,,,,,,,,,,,,,,,,,,,,,,,,,,,,,,,,,,,,,,,,,,,,,,,,,,,,,,,,,,,,,,,,,,,,,,,,,,,,,,,,,,,
0,12,12,54,1,,61632bd53a9234c3d53d4d3e,62bbfb2190e1cf83174d9127,2022-06-29_09h21.26.866,Colour_Asymmetry_Pilot,2022.1.3,Win32,60.13952369,62bbe60bf3d75ef465d3e404,,,,,,,,,,,,,,,,,,,,,,,,,,,,,,,,,,,,,,,,,,,,,,,,,,,,,,,,,,,,,,,,,,,,,,,,,,,,,,,,,,,,,,,,,,,,,,,,,,,,,,,,,,,,,,,,,,,,,,,,,,,,,,,,,,,,,,,,,,,,,,,,,,,,,,,,,,,,,,
0,13,13,46,1,,61632bd53a9234c3d53d4d3e,62bbfb2190e1cf83174d9127,2022-06-29_09h21.26.866,Colour_Asymmetry_Pilot,2022.1.3,Win32,60.13952369,62bbe60bf3d75ef465d3e404,,,,,,,,,,,,,,,,,,,,,,,,,,,,,,,,,,,,,,,,,,,,,,,,,,,,,,,,,,,,,,,,,,,,,,,,,,,,,,,,,,,,,,,,,,,,,,,,,,,,,,,,,,,,,,,,,,,,,,,,,,,,,,,,,,,,,,,,,,,,,,,,,,,,,,,,,,,,,,
0,14,14,71,1,,61632bd53a9234c3d53d4d3e,62bbfb2190e1cf83174d9127,2022-06-29_09h21.26.866,Colour_Asymmetry_Pilot,2022.1.3,Win32,60.13952369,62bbe60bf3d75ef465d3e404,,,,,,,,,,,,,,,,,,,,,,,,,,,,,,,,,,,,,,,,,,,,,,,,,,,,,,,,,,,,,,,,,,,,,,,,,,,,,,,,,,,,,,,,,,,,,,,,,,,,,,,,,,,,,,,,,,,,,,,,,,,,,,,,,,,,,,,,,,,,,,,,,,,,,,,,,,,,,,
0,15,15,91,1,,61632bd53a9234c3d53d4d3e,62bbfb2190e1cf83174d9127,2022-06-29_09h21.26.866,Colour_Asymmetry_Pilot,2022.1.3,Win32,60.13952369,62bbe60bf3d75ef465d3e404,,,,,,,,,,,,,,,,,,,,,,,,,,,,,,,,,,,,,,,,,,,,,,,,,,,,,,,,,,,,,,,,,,,,,,,,,,,,,,,,,,,,,,,,,,,,,,,,,,,,,,,,,,,,,,,,,,,,,,,,,,,,,,,,,,,,,,,,,,,,,,,,,,,,,,,,,,,,,,
0,16,16,12,1,,61632bd53a9234c3d53d4d3e,62bbfb2190e1cf83174d9127,2022-06-29_09h21.26.866,Colour_Asymmetry_Pilot,2022.1.3,Win32,60.13952369,62bbe60bf3d75ef465d3e404,,,,,,,,,,,,,,,,,,,,,,,,,,,,,,,,,,,,,,,,,,,,,,,,,,,,,,,,,,,,,,,,,,,,,,,,,,,,,,,,,,,,,,,,,,,,,,,,,,,,,,,,,,,,,,,,,,,,,,,,,,,,,,,,,,,,,,,,,,,,,,,,,,,,,,,,,,,,,,
0,17,17,4,1,,61632bd53a9234c3d53d4d3e,62bbfb2190e1cf83174d9127,2022-06-29_09h21.26.866,Colour_Asymmetry_Pilot,2022.1.3,Win32,60.13952369,62bbe60bf3d75ef465d3e404,,,,,,,,,,,,,,,,,,,,,,,,,,,,,,,,,,,,,,,,,,,,,,,,,,,,,,,,,,,,,,,,,,,,,,,,,,,,,,,,,,,,,,,,,,,,,,,,,,,,,,,,,,,,,,,,,,,,,,,,,,,,,,,,,,,,,,,,,,,,,,,,,,,,,,,,,,,,,,
0,18,18,76,1,,61632bd53a9234c3d53d4d3e,62bbfb2190e1cf83174d9127,2022-06-29_09h21.26.866,Colour_Asymmetry_Pilot,2022.1.3,Win32,60.13952369,62bbe60bf3d75ef465d3e404,,,,,,,,,,,,,,,,,,,,,,,,,,,,,,,,,,,,,,,,,,,,,,,,,,,,,,,,,,,,,,,,,,,,,,,,,,,,,,,,,,,,,,,,,,,,,,,,,,,,,,,,,,,,,,,,,,,,,,,,,,,,,,,,,,,,,,,,,,,,,,,,,,,,,,,,,,,,,,
0,19,19,51,1,,61632bd53a9234c3d53d4d3e,62bbfb2190e1cf83174d9127,2022-06-29_09h21.26.866,Colour_Asymmetry_Pilot,2022.1.3,Win32,60.13952369,62bbe60bf3d75ef465d3e404,,,,,,,,,,,,,,,,,,,,,,,,,,,,,,,,,,,,,,,,,,,,,,,,,,,,,,,,,,,,,,,,,,,,,,,,,,,,,,,,,,,,,,,,,,,,,,,,,,,,,,,,,,,,,,,,,,,,,,,,,,,,,,,,,,,,,,,,,,,,,,,,,,,,,,,,,,,,,,
0,20,20,21,1,,61632bd53a9234c3d53d4d3e,62bbfb2190e1cf83174d9127,2022-06-29_09h21.26.866,Colour_Asymmetry_Pilot,2022.1.3,Win32,60.13952369,62bbe60bf3d75ef465d3e404,,,,,,,,,,,,,,,,,,,,,,,,,,,,,,,,,,,,,,,,,,,,,,,,,,,,,,,,,,,,,,,,,,,,,,,,,,,,,,,,,,,,,,,,,,,,,,,,,,,,,,,,,,,,,,,,,,,,,,,,,,,,,,,,,,,,,,,,,,,,,,,,,,,,,,,,,,,,,,
0,21,21,40,1,,61632bd53a9234c3d53d4d3e,62bbfb2190e1cf83174d9127,2022-06-29_09h21.26.866,Colour_Asymmetry_Pilot,2022.1.3,Win32,60.13952369,62bbe60bf3d75ef465d3e404,,,,,,,,,,,,,,,,,,,,,,,,,,,,,,,,,,,,,,,,,,,,,,,,,,,,,,,,,,,,,,,,,,,,,,,,,,,,,,,,,,,,,,,,,,,,,,,,,,,,,,,,,,,,,,,,,,,,,,,,,,,,,,,,,,,,,,,,,,,,,,,,,,,,,,,,,,,,,,
0,22,22,7,1,,61632bd53a9234c3d53d4d3e,62bbfb2190e1cf83174d9127,2022-06-29_09h21.26.866,Colour_Asymmetry_Pilot,2022.1.3,Win32,60.13952369,62bbe60bf3d75ef465d3e404,,,,,,,,,,,,,,,,,,,,,,,,,,,,,,,,,,,,,,,,,,,,,,,,,,,,,,,,,,,,,,,,,,,,,,,,,,,,,,,,,,,,,,,,,,,,,,,,,,,,,,,,,,,,,,,,,,,,,,,,,,,,,,,,,,,,,,,,,,,,,,,,,,,,,,,,,,,,,,
0,23,23,22,1,,61632bd53a9234c3d53d4d3e,62bbfb2190e1cf83174d9127,2022-06-29_09h21.26.866,Colour_Asymmetry_Pilot,2022.1.3,Win32,60.13952369,62bbe60bf3d75ef465d3e404,,,,,,,,,,,,,,,,,,,,,,,,,,,,,,,,,,,,,,,,,,,,,,,,,,,,,,,,,,,,,,,,,,,,,,,,,,,,,,,,,,,,,,,,,,,,,,,,,,,,,,,,,,,,,,,,,,,,,,,,,,,,,,,,,,,,,,,,,,,,,,,,,,,,,,,,,,,,,,
0,24,24,39,1,,61632bd53a9234c3d53d4d3e,62bbfb2190e1cf83174d9127,2022-06-29_09h21.26.866,Colour_Asymmetry_Pilot,2022.1.3,Win32,60.13952369,62bbe60bf3d75ef465d3e404,,,,,,,,,,,,,,,,,,,,,,,,,,,,,,,,,,,,,,,,,,,,,,,,,,,,,,,,,,,,,,,,,,,,,,,,,,,,,,,,,,,,,,,,,,,,,,,,,,,,,,,,,,,,,,,,,,,,,,,,,,,,,,,,,,,,,,,,,,,,,,,,,,,,,,,,,,,,,,
0,25,25,69,1,,61632bd53a9234c3d53d4d3e,62bbfb2190e1cf83174d9127,2022-06-29_09h21.26.866,Colour_Asymmetry_Pilot,2022.1.3,Win32,60.13952369,62bbe60bf3d75ef465d3e404,,,,,,,,,,,,,,,,,,,,,,,,,,,,,,,,,,,,,,,,,,,,,,,,,,,,,,,,,,,,,,,,,,,,,,,,,,,,,,,,,,,,,,,,,,,,,,,,,,,,,,,,,,,,,,,,,,,,,,,,,,,,,,,,,,,,,,,,,,,,,,,,,,,,,,,,,,,,,,
0,26,26,74,1,,61632bd53a9234c3d53d4d3e,62bbfb2190e1cf83174d9127,2022-06-29_09h21.26.866,Colour_Asymmetry_Pilot,2022.1.3,Win32,60.13952369,62bbe60bf3d75ef465d3e404,,,,,,,,,,,,,,,,,,,,,,,,,,,,,,,,,,,,,,,,,,,,,,,,,,,,,,,,,,,,,,,,,,,,,,,,,,,,,,,,,,,,,,,,,,,,,,,,,,,,,,,,,,,,,,,,,,,,,,,,,,,,,,,,,,,,,,,,,,,,,,,,,,,,,,,,,,,,,,
0,27,27,81,1,,61632bd53a9234c3d53d4d3e,62bbfb2190e1cf83174d9127,2022-06-29_09h21.26.866,Colour_Asymmetry_Pilot,2022.1.3,Win32,60.13952369,62bbe60bf3d75ef465d3e404,,,,,,,,,,,,,,,,,,,,,,,,,,,,,,,,,,,,,,,,,,,,,,,,,,,,,,,,,,,,,,,,,,,,,,,,,,,,,,,,,,,,,,,,,,,,,,,,,,,,,,,,,,,,,,,,,,,,,,,,,,,,,,,,,,,,,,,,,,,,,,,,,,,,,,,,,,,,,,
0,28,28,88,1,,61632bd53a9234c3d53d4d3e,62bbfb2190e1cf83174d9127,2022-06-29_09h21.26.866,Colour_Asymmetry_Pilot,2022.1.3,Win32,60.13952369,62bbe60bf3d75ef465d3e404,,,,,,,,,,,,,,,,,,,,,,,,,,,,,,,,,,,,,,,,,,,,,,,,,,,,,,,,,,,,,,,,,,,,,,,,,,,,,,,,,,,,,,,,,,,,,,,,,,,,,,,,,,,,,,,,,,,,,,,,,,,,,,,,,,,,,,,,,,,,,,,,,,,,,,,,,,,,,,
0,29,29,20,1,,61632bd53a9234c3d53d4d3e,62bbfb2190e1cf83174d9127,2022-06-29_09h21.26.866,Colour_Asymmetry_Pilot,2022.1.3,Win32,60.13952369,62bbe60bf3d75ef465d3e404,,,,,,,,,,,,,,,,,,,,,,,,,,,,,,,,,,,,,,,,,,,,,,,,,,,,,,,,,,,,,,,,,,,,,,,,,,,,,,,,,,,,,,,,,,,,,,,,,,,,,,,,,,,,,,,,,,,,,,,,,,,,,,,,,,,,,,,,,,,,,,,,,,,,,,,,,,,,,,
0,30,30,47,1,,61632bd53a9234c3d53d4d3e,62bbfb2190e1cf83174d9127,2022-06-29_09h21.26.866,Colour_Asymmetry_Pilot,2022.1.3,Win32,60.13952369,62bbe60bf3d75ef465d3e404,,,,,,,,,,,,,,,,,,,,,,,,,,,,,,,,,,,,,,,,,,,,,,,,,,,,,,,,,,,,,,,,,,,,,,,,,,,,,,,,,,,,,,,,,,,,,,,,,,,,,,,,,,,,,,,,,,,,,,,,,,,,,,,,,,,,,,,,,,,,,,,,,,,,,,,,,,,,,,
0,31,31,85,1,,61632bd53a9234c3d53d4d3e,62bbfb2190e1cf83174d9127,2022-06-29_09h21.26.866,Colour_Asymmetry_Pilot,2022.1.3,Win32,60.13952369,62bbe60bf3d75ef465d3e404,,,,,,,,,,,,,,,,,,,,,,,,,,,,,,,,,,,,,,,,,,,,,,,,,,,,,,,,,,,,,,,,,,,,,,,,,,,,,,,,,,,,,,,,,,,,,,,,,,,,,,,,,,,,,,,,,,,,,,,,,,,,,,,,,,,,,,,,,,,,,,,,,,,,,,,,,,,,,,
0,32,32,42,1,,61632bd53a9234c3d53d4d3e,62bbfb2190e1cf83174d9127,2022-06-29_09h21.26.866,Colour_Asymmetry_Pilot,2022.1.3,Win32,60.13952369,62bbe60bf3d75ef465d3e404,,,,,,,,,,,,,,,,,,,,,,,,,,,,,,,,,,,,,,,,,,,,,,,,,,,,,,,,,,,,,,,,,,,,,,,,,,,,,,,,,,,,,,,,,,,,,,,,,,,,,,,,,,,,,,,,,,,,,,,,,,,,,,,,,,,,,,,,,,,,,,,,,,,,,,,,,,,,,,
0,33,33,33,1,,61632bd53a9234c3d53d4d3e,62bbfb2190e1cf83174d9127,2022-06-29_09h21.26.866,Colour_Asymmetry_Pilot,2022.1.3,Win32,60.13952369,62bbe60bf3d75ef465d3e404,,,,,,,,,,,,,,,,,,,,,,,,,,,,,,,,,,,,,,,,,,,,,,,,,,,,,,,,,,,,,,,,,,,,,,,,,,,,,,,,,,,,,,,,,,,,,,,,,,,,,,,,,,,,,,,,,,,,,,,,,,,,,,,,,,,,,,,,,,,,,,,,,,,,,,,,,,,,,,
0,34,34,32,1,,61632bd53a9234c3d53d4d3e,62bbfb2190e1cf83174d9127,2022-06-29_09h21.26.866,Colour_Asymmetry_Pilot,2022.1.3,Win32,60.13952369,62bbe60bf3d75ef465d3e404,,,,,,,,,,,,,,,,,,,,,,,,,,,,,,,,,,,,,,,,,,,,,,,,,,,,,,,,,,,,,,,,,,,,,,,,,,,,,,,,,,,,,,,,,,,,,,,,,,,,,,,,,,,,,,,,,,,,,,,,,,,,,,,,,,,,,,,,,,,,,,,,,,,,,,,,,,,,,,
0,35,35,30,1,,61632bd53a9234c3d53d4d3e,62bbfb2190e1cf83174d9127,2022-06-29_09h21.26.866,Colour_Asymmetry_Pilot,2022.1.3,Win32,60.13952369,62bbe60bf3d75ef465d3e404,,,,,,,,,,,,,,,,,,,,,,,,,,,,,,,,,,,,,,,,,,,,,,,,,,,,,,,,,,,,,,,,,,,,,,,,,,,,,,,,,,,,,,,,,,,,,,,,,,,,,,,,,,,,,,,,,,,,,,,,,,,,,,,,,,,,,,,,,,,,,,,,,,,,,,,,,,,,,,
0,36,36,3,1,,61632bd53a9234c3d53d4d3e,62bbfb2190e1cf83174d9127,2022-06-29_09h21.26.866,Colour_Asymmetry_Pilot,2022.1.3,Win32,60.13952369,62bbe60bf3d75ef465d3e404,,,,,,,,,,,,,,,,,,,,,,,,,,,,,,,,,,,,,,,,,,,,,,,,,,,,,,,,,,,,,,,,,,,,,,,,,,,,,,,,,,,,,,,,,,,,,,,,,,,,,,,,,,,,,,,,,,,,,,,,,,,,,,,,,,,,,,,,,,,,,,,,,,,,,,,,,,,,,,
0,37,37,9,1,,61632bd53a9234c3d53d4d3e,62bbfb2190e1cf83174d9127,2022-06-29_09h21.26.866,Colour_Asymmetry_Pilot,2022.1.3,Win32,60.13952369,62bbe60bf3d75ef465d3e404,,,,,,,,,,,,,,,,,,,,,,,,,,,,,,,,,,,,,,,,,,,,,,,,,,,,,,,,,,,,,,,,,,,,,,,,,,,,,,,,,,,,,,,,,,,,,,,,,,,,,,,,,,,,,,,,,,,,,,,,,,,,,,,,,,,,,,,,,,,,,,,,,,,,,,,,,,,,,,
0,38,38,78,1,,61632bd53a9234c3d53d4d3e,62bbfb2190e1cf83174d9127,2022-06-29_09h21.26.866,Colour_Asymmetry_Pilot,2022.1.3,Win32,60.13952369,62bbe60bf3d75ef465d3e404,,,,,,,,,,,,,,,,,,,,,,,,,,,,,,,,,,,,,,,,,,,,,,,,,,,,,,,,,,,,,,,,,,,,,,,,,,,,,,,,,,,,,,,,,,,,,,,,,,,,,,,,,,,,,,,,,,,,,,,,,,,,,,,,,,,,,,,,,,,,,,,,,,,,,,,,,,,,,,
0,39,39,68,1,,61632bd53a9234c3d53d4d3e,62bbfb2190e1cf83174d9127,2022-06-29_09h21.26.866,Colour_Asymmetry_Pilot,2022.1.3,Win32,60.13952369,62bbe60bf3d75ef465d3e404,,,,,,,,,,,,,,,,,,,,,,,,,,,,,,,,,,,,,,,,,,,,,,,,,,,,,,,,,,,,,,,,,,,,,,,,,,,,,,,,,,,,,,,,,,,,,,,,,,,,,,,,,,,,,,,,,,,,,,,,,,,,,,,,,,,,,,,,,,,,,,,,,,,,,,,,,,,,,,
0,40,40,72,1,,61632bd53a9234c3d53d4d3e,62bbfb2190e1cf83174d9127,2022-06-29_09h21.26.866,Colour_Asymmetry_Pilot,2022.1.3,Win32,60.13952369,62bbe60bf3d75ef465d3e404,,,,,,,,,,,,,,,,,,,,,,,,,,,,,,,,,,,,,,,,,,,,,,,,,,,,,,,,,,,,,,,,,,,,,,,,,,,,,,,,,,,,,,,,,,,,,,,,,,,,,,,,,,,,,,,,,,,,,,,,,,,,,,,,,,,,,,,,,,,,,,,,,,,,,,,,,,,,,,
0,41,41,31,1,,61632bd53a9234c3d53d4d3e,62bbfb2190e1cf83174d9127,2022-06-29_09h21.26.866,Colour_Asymmetry_Pilot,2022.1.3,Win32,60.13952369,62bbe60bf3d75ef465d3e404,,,,,,,,,,,,,,,,,,,,,,,,,,,,,,,,,,,,,,,,,,,,,,,,,,,,,,,,,,,,,,,,,,,,,,,,,,,,,,,,,,,,,,,,,,,,,,,,,,,,,,,,,,,,,,,,,,,,,,,,,,,,,,,,,,,,,,,,,,,,,,,,,,,,,,,,,,,,,,
0,42,42,59,1,,61632bd53a9234c3d53d4d3e,62bbfb2190e1cf83174d9127,2022-06-29_09h21.26.866,Colour_Asymmetry_Pilot,2022.1.3,Win32,60.13952369,62bbe60bf3d75ef465d3e404,,,,,,,,,,,,,,,,,,,,,,,,,,,,,,,,,,,,,,,,,,,,,,,,,,,,,,,,,,,,,,,,,,,,,,,,,,,,,,,,,,,,,,,,,,,,,,,,,,,,,,,,,,,,,,,,,,,,,,,,,,,,,,,,,,,,,,,,,,,,,,,,,,,,,,,,,,,,,,
0,43,43,38,1,,61632bd53a9234c3d53d4d3e,62bbfb2190e1cf83174d9127,2022-06-29_09h21.26.866,Colour_Asymmetry_Pilot,2022.1.3,Win32,60.13952369,62bbe60bf3d75ef465d3e404,,,,,,,,,,,,,,,,,,,,,,,,,,,,,,,,,,,,,,,,,,,,,,,,,,,,,,,,,,,,,,,,,,,,,,,,,,,,,,,,,,,,,,,,,,,,,,,,,,,,,,,,,,,,,,,,,,,,,,,,,,,,,,,,,,,,,,,,,,,,,,,,,,,,,,,,,,,,,,
0,44,44,24,1,,61632bd53a9234c3d53d4d3e,62bbfb2190e1cf83174d9127,2022-06-29_09h21.26.866,Colour_Asymmetry_Pilot,2022.1.3,Win32,60.13952369,62bbe60bf3d75ef465d3e404,,,,,,,,,,,,,,,,,,,,,,,,,,,,,,,,,,,,,,,,,,,,,,,,,,,,,,,,,,,,,,,,,,,,,,,,,,,,,,,,,,,,,,,,,,,,,,,,,,,,,,,,,,,,,,,,,,,,,,,,,,,,,,,,,,,,,,,,,,,,,,,,,,,,,,,,,,,,,,
0,45,45,84,1,,61632bd53a9234c3d53d4d3e,62bbfb2190e1cf83174d9127,2022-06-29_09h21.26.866,Colour_Asymmetry_Pilot,2022.1.3,Win32,60.13952369,62bbe60bf3d75ef465d3e404,,,,,,,,,,,,,,,,,,,,,,,,,,,,,,,,,,,,,,,,,,,,,,,,,,,,,,,,,,,,,,,,,,,,,,,,,,,,,,,,,,,,,,,,,,,,,,,,,,,,,,,,,,,,,,,,,,,,,,,,,,,,,,,,,,,,,,,,,,,,,,,,,,,,,,,,,,,,,,
0,46,46,73,1,,61632bd53a9234c3d53d4d3e,62bbfb2190e1cf83174d9127,2022-06-29_09h21.26.866,Colour_Asymmetry_Pilot,2022.1.3,Win32,60.13952369,62bbe60bf3d75ef465d3e404,,,,,,,,,,,,,,,,,,,,,,,,,,,,,,,,,,,,,,,,,,,,,,,,,,,,,,,,,,,,,,,,,,,,,,,,,,,,,,,,,,,,,,,,,,,,,,,,,,,,,,,,,,,,,,,,,,,,,,,,,,,,,,,,,,,,,,,,,,,,,,,,,,,,,,,,,,,,,,
0,47,47,0,1,,61632bd53a9234c3d53d4d3e,62bbfb2190e1cf83174d9127,2022-06-29_09h21.26.866,Colour_Asymmetry_Pilot,2022.1.3,Win32,60.13952369,62bbe60bf3d75ef465d3e404,,,,,,,,,,,,,,,,,,,,,,,,,,,,,,,,,,,,,,,,,,,,,,,,,,,,,,,,,,,,,,,,,,,,,,,,,,,,,,,,,,,,,,,,,,,,,,,,,,,,,,,,,,,,,,,,,,,,,,,,,,,,,,,,,,,,,,,,,,,,,,,,,,,,,,,,,,,,,,
0,48,48,15,1,,61632bd53a9234c3d53d4d3e,62bbfb2190e1cf83174d9127,2022-06-29_09h21.26.866,Colour_Asymmetry_Pilot,2022.1.3,Win32,60.13952369,62bbe60bf3d75ef465d3e404,,,,,,,,,,,,,,,,,,,,,,,,,,,,,,,,,,,,,,,,,,,,,,,,,,,,,,,,,,,,,,,,,,,,,,,,,,,,,,,,,,,,,,,,,,,,,,,,,,,,,,,,,,,,,,,,,,,,,,,,,,,,,,,,,,,,,,,,,,,,,,,,,,,,,,,,,,,,,,
0,49,49,2,1,,61632bd53a9234c3d53d4d3e,62bbfb2190e1cf83174d9127,2022-06-29_09h21.26.866,Colour_Asymmetry_Pilot,2022.1.3,Win32,60.13952369,62bbe60bf3d75ef465d3e404,,,,,,,,,,,,,,,,,,,,,,,,,,,,,,,,,,,,,,,,,,,,,,,,,,,,,,,,,,,,,,,,,,,,,,,,,,,,,,,,,,,,,,,,,,,,,,,,,,,,,,,,,,,,,,,,,,,,,,,,,,,,,,,,,,,,,,,,,,,,,,,,,,,,,,,,,,,,,,
0,50,50,67,1,,61632bd53a9234c3d53d4d3e,62bbfb2190e1cf83174d9127,2022-06-29_09h21.26.866,Colour_Asymmetry_Pilot,2022.1.3,Win32,60.13952369,62bbe60bf3d75ef465d3e404,,,,,,,,,,,,,,,,,,,,,,,,,,,,,,,,,,,,,,,,,,,,,,,,,,,,,,,,,,,,,,,,,,,,,,,,,,,,,,,,,,,,,,,,,,,,,,,,,,,,,,,,,,,,,,,,,,,,,,,,,,,,,,,,,,,,,,,,,,,,,,,,,,,,,,,,,,,,,,
0,51,51,90,1,,61632bd53a9234c3d53d4d3e,62bbfb2190e1cf83174d9127,2022-06-29_09h21.26.866,Colour_Asymmetry_Pilot,2022.1.3,Win32,60.13952369,62bbe60bf3d75ef465d3e404,,,,,,,,,,,,,,,,,,,,,,,,,,,,,,,,,,,,,,,,,,,,,,,,,,,,,,,,,,,,,,,,,,,,,,,,,,,,,,,,,,,,,,,,,,,,,,,,,,,,,,,,,,,,,,,,,,,,,,,,,,,,,,,,,,,,,,,,,,,,,,,,,,,,,,,,,,,,,,
0,52,52,41,1,,61632bd53a9234c3d53d4d3e,62bbfb2190e1cf83174d9127,2022-06-29_09h21.26.866,Colour_Asymmetry_Pilot,2022.1.3,Win32,60.13952369,62bbe60bf3d75ef465d3e404,,,,,,,,,,,,,,,,,,,,,,,,,,,,,,,,,,,,,,,,,,,,,,,,,,,,,,,,,,,,,,,,,,,,,,,,,,,,,,,,,,,,,,,,,,,,,,,,,,,,,,,,,,,,,,,,,,,,,,,,,,,,,,,,,,,,,,,,,,,,,,,,,,,,,,,,,,,,,,
0,53,53,50,1,,61632bd53a9234c3d53d4d3e,62bbfb2190e1cf83174d9127,2022-06-29_09h21.26.866,Colour_Asymmetry_Pilot,2022.1.3,Win32,60.13952369,62bbe60bf3d75ef465d3e404,,,,,,,,,,,,,,,,,,,,,,,,,,,,,,,,,,,,,,,,,,,,,,,,,,,,,,,,,,,,,,,,,,,,,,,,,,,,,,,,,,,,,,,,,,,,,,,,,,,,,,,,,,,,,,,,,,,,,,,,,,,,,,,,,,,,,,,,,,,,,,,,,,,,,,,,,,,,,,
0,54,54,86,1,,61632bd53a9234c3d53d4d3e,62bbfb2190e1cf83174d9127,2022-06-29_09h21.26.866,Colour_Asymmetry_Pilot,2022.1.3,Win32,60.13952369,62bbe60bf3d75ef465d3e404,,,,,,,,,,,,,,,,,,,,,,,,,,,,,,,,,,,,,,,,,,,,,,,,,,,,,,,,,,,,,,,,,,,,,,,,,,,,,,,,,,,,,,,,,,,,,,,,,,,,,,,,,,,,,,,,,,,,,,,,,,,,,,,,,,,,,,,,,,,,,,,,,,,,,,,,,,,,,,
0,55,55,53,1,,61632bd53a9234c3d53d4d3e,62bbfb2190e1cf83174d9127,2022-06-29_09h21.26.866,Colour_Asymmetry_Pilot,2022.1.3,Win32,60.13952369,62bbe60bf3d75ef465d3e404,,,,,,,,,,,,,,,,,,,,,,,,,,,,,,,,,,,,,,,,,,,,,,,,,,,,,,,,,,,,,,,,,,,,,,,,,,,,,,,,,,,,,,,,,,,,,,,,,,,,,,,,,,,,,,,,,,,,,,,,,,,,,,,,,,,,,,,,,,,,,,,,,,,,,,,,,,,,,,
0,56,56,36,1,,61632bd53a9234c3d53d4d3e,62bbfb2190e1cf83174d9127,2022-06-29_09h21.26.866,Colour_Asymmetry_Pilot,2022.1.3,Win32,60.13952369,62bbe60bf3d75ef465d3e404,,,,,,,,,,,,,,,,,,,,,,,,,,,,,,,,,,,,,,,,,,,,,,,,,,,,,,,,,,,,,,,,,,,,,,,,,,,,,,,,,,,,,,,,,,,,,,,,,,,,,,,,,,,,,,,,,,,,,,,,,,,,,,,,,,,,,,,,,,,,,,,,,,,,,,,,,,,,,,
0,57,57,19,1,,61632bd53a9234c3d53d4d3e,62bbfb2190e1cf83174d9127,2022-06-29_09h21.26.866,Colour_Asymmetry_Pilot,2022.1.3,Win32,60.13952369,62bbe60bf3d75ef465d3e404,,,,,,,,,,,,,,,,,,,,,,,,,,,,,,,,,,,,,,,,,,,,,,,,,,,,,,,,,,,,,,,,,,,,,,,,,,,,,,,,,,,,,,,,,,,,,,,,,,,,,,,,,,,,,,,,,,,,,,,,,,,,,,,,,,,,,,,,,,,,,,,,,,,,,,,,,,,,,,
0,58,58,65,1,,61632bd53a9234c3d53d4d3e,62bbfb2190e1cf83174d9127,2022-06-29_09h21.26.866,Colour_Asymmetry_Pilot,2022.1.3,Win32,60.13952369,62bbe60bf3d75ef465d3e404,,,,,,,,,,,,,,,,,,,,,,,,,,,,,,,,,,,,,,,,,,,,,,,,,,,,,,,,,,,,,,,,,,,,,,,,,,,,,,,,,,,,,,,,,,,,,,,,,,,,,,,,,,,,,,,,,,,,,,,,,,,,,,,,,,,,,,,,,,,,,,,,,,,,,,,,,,,,,,
0,59,59,16,1,,61632bd53a9234c3d53d4d3e,62bbfb2190e1cf83174d9127,2022-06-29_09h21.26.866,Colour_Asymmetry_Pilot,2022.1.3,Win32,60.13952369,62bbe60bf3d75ef465d3e404,,,,,,,,,,,,,,,,,,,,,,,,,,,,,,,,,,,,,,,,,,,,,,,,,,,,,,,,,,,,,,,,,,,,,,,,,,,,,,,,,,,,,,,,,,,,,,,,,,,,,,,,,,,,,,,,,,,,,,,,,,,,,,,,,,,,,,,,,,,,,,,,,,,,,,,,,,,,,,
0,60,60,5,1,,61632bd53a9234c3d53d4d3e,62bbfb2190e1cf83174d9127,2022-06-29_09h21.26.866,Colour_Asymmetry_Pilot,2022.1.3,Win32,60.13952369,62bbe60bf3d75ef465d3e404,,,,,,,,,,,,,,,,,,,,,,,,,,,,,,,,,,,,,,,,,,,,,,,,,,,,,,,,,,,,,,,,,,,,,,,,,,,,,,,,,,,,,,,,,,,,,,,,,,,,,,,,,,,,,,,,,,,,,,,,,,,,,,,,,,,,,,,,,,,,,,,,,,,,,,,,,,,,,,
0,61,61,63,1,,61632bd53a9234c3d53d4d3e,62bbfb2190e1cf83174d9127,2022-06-29_09h21.26.866,Colour_Asymmetry_Pilot,2022.1.3,Win32,60.13952369,62bbe60bf3d75ef465d3e404,,,,,,,,,,,,,,,,,,,,,,,,,,,,,,,,,,,,,,,,,,,,,,,,,,,,,,,,,,,,,,,,,,,,,,,,,,,,,,,,,,,,,,,,,,,,,,,,,,,,,,,,,,,,,,,,,,,,,,,,,,,,,,,,,,,,,,,,,,,,,,,,,,,,,,,,,,,,,,
0,62,62,49,1,,61632bd53a9234c3d53d4d3e,62bbfb2190e1cf83174d9127,2022-06-29_09h21.26.866,Colour_Asymmetry_Pilot,2022.1.3,Win32,60.13952369,62bbe60bf3d75ef465d3e404,,,,,,,,,,,,,,,,,,,,,,,,,,,,,,,,,,,,,,,,,,,,,,,,,,,,,,,,,,,,,,,,,,,,,,,,,,,,,,,,,,,,,,,,,,,,,,,,,,,,,,,,,,,,,,,,,,,,,,,,,,,,,,,,,,,,,,,,,,,,,,,,,,,,,,,,,,,,,,
0,63,63,64,1,,61632bd53a9234c3d53d4d3e,62bbfb2190e1cf83174d9127,2022-06-29_09h21.26.866,Colour_Asymmetry_Pilot,2022.1.3,Win32,60.13952369,62bbe60bf3d75ef465d3e404,,,,,,,,,,,,,,,,,,,,,,,,,,,,,,,,,,,,,,,,,,,,,,,,,,,,,,,,,,,,,,,,,,,,,,,,,,,,,,,,,,,,,,,,,,,,,,,,,,,,,,,,,,,,,,,,,,,,,,,,,,,,,,,,,,,,,,,,,,,,,,,,,,,,,,,,,,,,,,
0,64,64,10,1,,61632bd53a9234c3d53d4d3e,62bbfb2190e1cf83174d9127,2022-06-29_09h21.26.866,Colour_Asymmetry_Pilot,2022.1.3,Win32,60.13952369,62bbe60bf3d75ef465d3e404,,,,,,,,,,,,,,,,,,,,,,,,,,,,,,,,,,,,,,,,,,,,,,,,,,,,,,,,,,,,,,,,,,,,,,,,,,,,,,,,,,,,,,,,,,,,,,,,,,,,,,,,,,,,,,,,,,,,,,,,,,,,,,,,,,,,,,,,,,,,,,,,,,,,,,,,,,,,,,
0,65,65,77,1,,61632bd53a9234c3d53d4d3e,62bbfb2190e1cf83174d9127,2022-06-29_09h21.26.866,Colour_Asymmetry_Pilot,2022.1.3,Win32,60.13952369,62bbe60bf3d75ef465d3e404,,,,,,,,,,,,,,,,,,,,,,,,,,,,,,,,,,,,,,,,,,,,,,,,,,,,,,,,,,,,,,,,,,,,,,,,,,,,,,,,,,,,,,,,,,,,,,,,,,,,,,,,,,,,,,,,,,,,,,,,,,,,,,,,,,,,,,,,,,,,,,,,,,,,,,,,,,,,,,
0,66,66,60,1,,61632bd53a9234c3d53d4d3e,62bbfb2190e1cf83174d9127,2022-06-29_09h21.26.866,Colour_Asymmetry_Pilot,2022.1.3,Win32,60.13952369,62bbe60bf3d75ef465d3e404,,,,,,,,,,,,,,,,,,,,,,,,,,,,,,,,,,,,,,,,,,,,,,,,,,,,,,,,,,,,,,,,,,,,,,,,,,,,,,,,,,,,,,,,,,,,,,,,,,,,,,,,,,,,,,,,,,,,,,,,,,,,,,,,,,,,,,,,,,,,,,,,,,,,,,,,,,,,,,
0,67,67,57,1,,61632bd53a9234c3d53d4d3e,62bbfb2190e1cf83174d9127,2022-06-29_09h21.26.866,Colour_Asymmetry_Pilot,2022.1.3,Win32,60.13952369,62bbe60bf3d75ef465d3e404,,,,,,,,,,,,,,,,,,,,,,,,,,,,,,,,,,,,,,,,,,,,,,,,,,,,,,,,,,,,,,,,,,,,,,,,,,,,,,,,,,,,,,,,,,,,,,,,,,,,,,,,,,,,,,,,,,,,,,,,,,,,,,,,,,,,,,,,,,,,,,,,,,,,,,,,,,,,,,
0,68,68,52,1,,61632bd53a9234c3d53d4d3e,62bbfb2190e1cf83174d9127,2022-06-29_09h21.26.866,Colour_Asymmetry_Pilot,2022.1.3,Win32,60.13952369,62bbe60bf3d75ef465d3e404,,,,,,,,,,,,,,,,,,,,,,,,,,,,,,,,,,,,,,,,,,,,,,,,,,,,,,,,,,,,,,,,,,,,,,,,,,,,,,,,,,,,,,,,,,,,,,,,,,,,,,,,,,,,,,,,,,,,,,,,,,,,,,,,,,,,,,,,,,,,,,,,,,,,,,,,,,,,,,
0,69,69,1,1,,61632bd53a9234c3d53d4d3e,62bbfb2190e1cf83174d9127,2022-06-29_09h21.26.866,Colour_Asymmetry_Pilot,2022.1.3,Win32,60.13952369,62bbe60bf3d75ef465d3e404,,,,,,,,,,,,,,,,,,,,,,,,,,,,,,,,,,,,,,,,,,,,,,,,,,,,,,,,,,,,,,,,,,,,,,,,,,,,,,,,,,,,,,,,,,,,,,,,,,,,,,,,,,,,,,,,,,,,,,,,,,,,,,,,,,,,,,,,,,,,,,,,,,,,,,,,,,,,,,
0,70,70,25,1,,61632bd53a9234c3d53d4d3e,62bbfb2190e1cf83174d9127,2022-06-29_09h21.26.866,Colour_Asymmetry_Pilot,2022.1.3,Win32,60.13952369,62bbe60bf3d75ef465d3e404,,,,,,,,,,,,,,,,,,,,,,,,,,,,,,,,,,,,,,,,,,,,,,,,,,,,,,,,,,,,,,,,,,,,,,,,,,,,,,,,,,,,,,,,,,,,,,,,,,,,,,,,,,,,,,,,,,,,,,,,,,,,,,,,,,,,,,,,,,,,,,,,,,,,,,,,,,,,,,
0,71,71,89,1,,61632bd53a9234c3d53d4d3e,62bbfb2190e1cf83174d9127,2022-06-29_09h21.26.866,Colour_Asymmetry_Pilot,2022.1.3,Win32,60.13952369,62bbe60bf3d75ef465d3e404,,,,,,,,,,,,,,,,,,,,,,,,,,,,,,,,,,,,,,,,,,,,,,,,,,,,,,,,,,,,,,,,,,,,,,,,,,,,,,,,,,,,,,,,,,,,,,,,,,,,,,,,,,,,,,,,,,,,,,,,,,,,,,,,,,,,,,,,,,,,,,,,,,,,,,,,,,,,,,
0,72,72,26,1,,61632bd53a9234c3d53d4d3e,62bbfb2190e1cf83174d9127,2022-06-29_09h21.26.866,Colour_Asymmetry_Pilot,2022.1.3,Win32,60.13952369,62bbe60bf3d75ef465d3e404,,,,,,,,,,,,,,,,,,,,,,,,,,,,,,,,,,,,,,,,,,,,,,,,,,,,,,,,,,,,,,,,,,,,,,,,,,,,,,,,,,,,,,,,,,,,,,,,,,,,,,,,,,,,,,,,,,,,,,,,,,,,,,,,,,,,,,,,,,,,,,,,,,,,,,,,,,,,,,
0,73,73,55,1,,61632bd53a9234c3d53d4d3e,62bbfb2190e1cf83174d9127,2022-06-29_09h21.26.866,Colour_Asymmetry_Pilot,2022.1.3,Win32,60.13952369,62bbe60bf3d75ef465d3e404,,,,,,,,,,,,,,,,,,,,,,,,,,,,,,,,,,,,,,,,,,,,,,,,,,,,,,,,,,,,,,,,,,,,,,,,,,,,,,,,,,,,,,,,,,,,,,,,,,,,,,,,,,,,,,,,,,,,,,,,,,,,,,,,,,,,,,,,,,,,,,,,,,,,,,,,,,,,,,
0,74,74,58,1,,61632bd53a9234c3d53d4d3e,62bbfb2190e1cf83174d9127,2022-06-29_09h21.26.866,Colour_Asymmetry_Pilot,2022.1.3,Win32,60.13952369,62bbe60bf3d75ef465d3e404,,,,,,,,,,,,,,,,,,,,,,,,,,,,,,,,,,,,,,,,,,,,,,,,,,,,,,,,,,,,,,,,,,,,,,,,,,,,,,,,,,,,,,,,,,,,,,,,,,,,,,,,,,,,,,,,,,,,,,,,,,,,,,,,,,,,,,,,,,,,,,,,,,,,,,,,,,,,,,
0,75,75,17,1,,61632bd53a9234c3d53d4d3e,62bbfb2190e1cf83174d9127,2022-06-29_09h21.26.866,Colour_Asymmetry_Pilot,2022.1.3,Win32,60.13952369,62bbe60bf3d75ef465d3e404,,,,,,,,,,,,,,,,,,,,,,,,,,,,,,,,,,,,,,,,,,,,,,,,,,,,,,,,,,,,,,,,,,,,,,,,,,,,,,,,,,,,,,,,,,,,,,,,,,,,,,,,,,,,,,,,,,,,,,,,,,,,,,,,,,,,,,,,,,,,,,,,,,,,,,,,,,,,,,
0,76,76,29,1,,61632bd53a9234c3d53d4d3e,62bbfb2190e1cf83174d9127,2022-06-29_09h21.26.866,Colour_Asymmetry_Pilot,2022.1.3,Win32,60.13952369,62bbe60bf3d75ef465d3e404,,,,,,,,,,,,,,,,,,,,,,,,,,,,,,,,,,,,,,,,,,,,,,,,,,,,,,,,,,,,,,,,,,,,,,,,,,,,,,,,,,,,,,,,,,,,,,,,,,,,,,,,,,,,,,,,,,,,,,,,,,,,,,,,,,,,,,,,,,,,,,,,,,,,,,,,,,,,,,
0,77,77,28,1,,61632bd53a9234c3d53d4d3e,62bbfb2190e1cf83174d9127,2022-06-29_09h21.26.866,Colour_Asymmetry_Pilot,2022.1.3,Win32,60.13952369,62bbe60bf3d75ef465d3e404,,,,,,,,,,,,,,,,,,,,,,,,,,,,,,,,,,,,,,,,,,,,,,,,,,,,,,,,,,,,,,,,,,,,,,,,,,,,,,,,,,,,,,,,,,,,,,,,,,,,,,,,,,,,,,,,,,,,,,,,,,,,,,,,,,,,,,,,,,,,,,,,,,,,,,,,,,,,,,
0,78,78,43,1,,61632bd53a9234c3d53d4d3e,62bbfb2190e1cf83174d9127,2022-06-29_09h21.26.866,Colour_Asymmetry_Pilot,2022.1.3,Win32,60.13952369,62bbe60bf3d75ef465d3e404,,,,,,,,,,,,,,,,,,,,,,,,,,,,,,,,,,,,,,,,,,,,,,,,,,,,,,,,,,,,,,,,,,,,,,,,,,,,,,,,,,,,,,,,,,,,,,,,,,,,,,,,,,,,,,,,,,,,,,,,,,,,,,,,,,,,,,,,,,,,,,,,,,,,,,,,,,,,,,
0,79,79,66,1,,61632bd53a9234c3d53d4d3e,62bbfb2190e1cf83174d9127,2022-06-29_09h21.26.866,Colour_Asymmetry_Pilot,2022.1.3,Win32,60.13952369,62bbe60bf3d75ef465d3e404,,,,,,,,,,,,,,,,,,,,,,,,,,,,,,,,,,,,,,,,,,,,,,,,,,,,,,,,,,,,,,,,,,,,,,,,,,,,,,,,,,,,,,,,,,,,,,,,,,,,,,,,,,,,,,,,,,,,,,,,,,,,,,,,,,,,,,,,,,,,,,,,,,,,,,,,,,,,,,
0,80,80,79,1,,61632bd53a9234c3d53d4d3e,62bbfb2190e1cf83174d9127,2022-06-29_09h21.26.866,Colour_Asymmetry_Pilot,2022.1.3,Win32,60.13952369,62bbe60bf3d75ef465d3e404,,,,,,,,,,,,,,,,,,,,,,,,,,,,,,,,,,,,,,,,,,,,,,,,,,,,,,,,,,,,,,,,,,,,,,,,,,,,,,,,,,,,,,,,,,,,,,,,,,,,,,,,,,,,,,,,,,,,,,,,,,,,,,,,,,,,,,,,,,,,,,,,,,,,,,,,,,,,,,
0,81,81,27,1,,61632bd53a9234c3d53d4d3e,62bbfb2190e1cf83174d9127,2022-06-29_09h21.26.866,Colour_Asymmetry_Pilot,2022.1.3,Win32,60.13952369,62bbe60bf3d75ef465d3e404,,,,,,,,,,,,,,,,,,,,,,,,,,,,,,,,,,,,,,,,,,,,,,,,,,,,,,,,,,,,,,,,,,,,,,,,,,,,,,,,,,,,,,,,,,,,,,,,,,,,,,,,,,,,,,,,,,,,,,,,,,,,,,,,,,,,,,,,,,,,,,,,,,,,,,,,,,,,,,
0,82,82,23,1,,61632bd53a9234c3d53d4d3e,62bbfb2190e1cf83174d9127,2022-06-29_09h21.26.866,Colour_Asymmetry_Pilot,2022.1.3,Win32,60.13952369,62bbe60bf3d75ef465d3e404,,,,,,,,,,,,,,,,,,,,,,,,,,,,,,,,,,,,,,,,,,,,,,,,,,,,,,,,,,,,,,,,,,,,,,,,,,,,,,,,,,,,,,,,,,,,,,,,,,,,,,,,,,,,,,,,,,,,,,,,,,,,,,,,,,,,,,,,,,,,,,,,,,,,,,,,,,,,,,
0,83,83,8,1,,61632bd53a9234c3d53d4d3e,62bbfb2190e1cf83174d9127,2022-06-29_09h21.26.866,Colour_Asymmetry_Pilot,2022.1.3,Win32,60.13952369,62bbe60bf3d75ef465d3e404,,,,,,,,,,,,,,,,,,,,,,,,,,,,,,,,,,,,,,,,,,,,,,,,,,,,,,,,,,,,,,,,,,,,,,,,,,,,,,,,,,,,,,,,,,,,,,,,,,,,,,,,,,,,,,,,,,,,,,,,,,,,,,,,,,,,,,,,,,,,,,,,,,,,,,,,,,,,,,
0,84,84,34,1,,61632bd53a9234c3d53d4d3e,62bbfb2190e1cf83174d9127,2022-06-29_09h21.26.866,Colour_Asymmetry_Pilot,2022.1.3,Win32,60.13952369,62bbe60bf3d75ef465d3e404,,,,,,,,,,,,,,,,,,,,,,,,,,,,,,,,,,,,,,,,,,,,,,,,,,,,,,,,,,,,,,,,,,,,,,,,,,,,,,,,,,,,,,,,,,,,,,,,,,,,,,,,,,,,,,,,,,,,,,,,,,,,,,,,,,,,,,,,,,,,,,,,,,,,,,,,,,,,,,
0,85,85,70,1,,61632bd53a9234c3d53d4d3e,62bbfb2190e1cf83174d9127,2022-06-29_09h21.26.866,Colour_Asymmetry_Pilot,2022.1.3,Win32,60.13952369,62bbe60bf3d75ef465d3e404,,,,,,,,,,,,,,,,,,,,,,,,,,,,,,,,,,,,,,,,,,,,,,,,,,,,,,,,,,,,,,,,,,,,,,,,,,,,,,,,,,,,,,,,,,,,,,,,,,,,,,,,,,,,,,,,,,,,,,,,,,,,,,,,,,,,,,,,,,,,,,,,,,,,,,,,,,,,,,
0,86,86,14,1,,61632bd53a9234c3d53d4d3e,62bbfb2190e1cf83174d9127,2022-06-29_09h21.26.866,Colour_Asymmetry_Pilot,2022.1.3,Win32,60.13952369,62bbe60bf3d75ef465d3e404,,,,,,,,,,,,,,,,,,,,,,,,,,,,,,,,,,,,,,,,,,,,,,,,,,,,,,,,,,,,,,,,,,,,,,,,,,,,,,,,,,,,,,,,,,,,,,,,,,,,,,,,,,,,,,,,,,,,,,,,,,,,,,,,,,,,,,,,,,,,,,,,,,,,,,,,,,,,,,
0,87,87,44,1,,61632bd53a9234c3d53d4d3e,62bbfb2190e1cf83174d9127,2022-06-29_09h21.26.866,Colour_Asymmetry_Pilot,2022.1.3,Win32,60.13952369,62bbe60bf3d75ef465d3e404,,,,,,,,,,,,,,,,,,,,,,,,,,,,,,,,,,,,,,,,,,,,,,,,,,,,,,,,,,,,,,,,,,,,,,,,,,,,,,,,,,,,,,,,,,,,,,,,,,,,,,,,,,,,,,,,,,,,,,,,,,,,,,,,,,,,,,,,,,,,,,,,,,,,,,,,,,,,,,
0,88,88,13,1,,61632bd53a9234c3d53d4d3e,62bbfb2190e1cf83174d9127,2022-06-29_09h21.26.866,Colour_Asymmetry_Pilot,2022.1.3,Win32,60.13952369,62bbe60bf3d75ef465d3e404,,,,,,,,,,,,,,,,,,,,,,,,,,,,,,,,,,,,,,,,,,,,,,,,,,,,,,,,,,,,,,,,,,,,,,,,,,,,,,,,,,,,,,,,,,,,,,,,,,,,,,,,,,,,,,,,,,,,,,,,,,,,,,,,,,,,,,,,,,,,,,,,,,,,,,,,,,,,,,
0,89,89,56,1,,61632bd53a9234c3d53d4d3e,62bbfb2190e1cf83174d9127,2022-06-29_09h21.26.866,Colour_Asymmetry_Pilot,2022.1.3,Win32,60.13952369,62bbe60bf3d75ef465d3e404,,,,,,,,,,,,,,,,,,,,,,,,,,,,,,,,,,,,,,,,,,,,,,,,,,,,,,,,,,,,,,,,,,,,,,,,,,,,,,,,,,,,,,,,,,,,,,,,,,,,,,,,,,,,,,,,,,,,,,,,,,,,,,,,,,,,,,,,,,,,,,,,,,,,,,,,,,,,,,
0,90,90,83,1,,61632bd53a9234c3d53d4d3e,62bbfb2190e1cf83174d9127,2022-06-29_09h21.26.866,Colour_Asymmetry_Pilot,2022.1.3,Win32,60.13952369,62bbe60bf3d75ef465d3e404,,,,,,,,,,,,,,,,,,,,,,,,,,,,,,,,,,,,,,,,,,,,,,,,,,,,,,,,,,,,,,,,,,,,,,,,,,,,,,,,,,,,,,,,,,,,,,,,,,,,,,,,,,,,,,,,,,,,,,,,,,,,,,,,,,,,,,,,,,,,,,,,,,,,,,,,,,,,,,
0,91,91,82,1,,61632bd53a9234c3d53d4d3e,62bbfb2190e1cf83174d9127,2022-06-29_09h21.26.866,Colour_Asymmetry_Pilot,2022.1.3,Win32,60.13952369,62bbe60bf3d75ef465d3e404,,,,,,,,,,,,,,,,,,,,,,,,,,,,,,,,,,,,,,,,,,,,,,,,,,,,,,,,,,,,,,,,,,,,,,,,,,,,,,,,,,,,,,,,,,,,,,,,,,,,,,,,,,,,,,,,,,,,,,,,,,,,,,,,,,,,,,,,,,,,,,,,,,,,,,,,,,,,,,
0,92,92,75,1,,61632bd53a9234c3d53d4d3e,62bbfb2190e1cf83174d9127,2022-06-29_09h21.26.866,Colour_Asymmetry_Pilot,2022.1.3,Win32,60.13952369,62bbe60bf3d75ef465d3e404,,,,,,,,,,,,,,,,,,,,,,,,,,,,,,,,,,,,,,,,,,,,,,,,,,,,,,,,,,,,,,,,,,,,,,,,,,,,,,,,,,,,,,,,,,,,,,,,,,,,,,,,,,,,,,,,,,,,,,,,,,,,,,,,,,,,,,,,,,,,,,,,,,,,,,,,,,,,,,
,,,,,,61632bd53a9234c3d53d4d3e,62bbfb2190e1cf83174d9127,2022-06-29_09h21.26.866,Colour_Asymmetry_Pilot,2022.1.3,Win32,60.13952369,62bbe60bf3d75ef465d3e404,0,0,0,158,1,fourtwo,,,,,,,,,,,,,,,,,,,,,,,,,,,,,,,,,,,,,,,,,,,,,,,,,,,,,,,,,,,,,,,,,,,,,,,,,,,,,,,,,,,,,,,,,,,,,,,,,,,,,,,,,,,,,,,,,,,,,,,,,,,,,,,,,,,,,,,,,,,,,,,,,,,,,,,,
,,,,,,61632bd53a9234c3d53d4d3e,62bbfb2190e1cf83174d9127,2022-06-29_09h21.26.866,Colour_Asymmetry_Pilot,2022.1.3,Win32,60.13952369,62bbe60bf3d75ef465d3e404,0,1,1,0,1,onetwo,,,,,,,,,,,,,,,,,,,,,,,,,,,,,,,,,,,,,,,,,,,,,,,,,,,,,,,,,,,,,,,,,,,,,,,,,,,,,,,,,,,,,,,,,,,,,,,,,,,,,,,,,,,,,,,,,,,,,,,,,,,,,,,,,,,,,,,,,,,,,,,,,,,,,,,,
,,,,,,61632bd53a9234c3d53d4d3e,62bbfb2190e1cf83174d9127,2022-06-29_09h21.26.866,Colour_Asymmetry_Pilot,2022.1.3,Win32,60.13952369,62bbe60bf3d75ef465d3e404,0,2,2,82,1,twoone,,,,,,,,,,,,,,,,,,,,,,,,,,,,,,,,,,,,,,,,,,,,,,,,,,,,,,,,,,,,,,,,,,,,,,,,,,,,,,,,,,,,,,,,,,,,,,,,,,,,,,,,,,,,,,,,,,,,,,,,,,,,,,,,,,,,,,,,,,,,,,,,,,,,,,,,
,,,,,,61632bd53a9234c3d53d4d3e,62bbfb2190e1cf83174d9127,2022-06-29_09h21.26.866,Colour_Asymmetry_Pilot,2022.1.3,Win32,60.13952369,62bbe60bf3d75ef465d3e404,0,3,3,114,1,twoone,,,,,,,,,,,,,,,,,,,,,,,,,,,,,,,,,,,,,,,,,,,,,,,,,,,,,,,,,,,,,,,,,,,,,,,,,,,,,,,,,,,,,,,,,,,,,,,,,,,,,,,,,,,,,,,,,,,,,,,,,,,,,,,,,,,,,,,,,,,,,,,,,,,,,,,,
,,,,,,61632bd53a9234c3d53d4d3e,62bbfb2190e1cf83174d9127,2022-06-29_09h21.26.866,Colour_Asymmetry_Pilot,2022.1.3,Win32,60.13952369,62bbe60bf3d75ef465d3e404,0,4,4,122,1,twoone,,,,,,,,,,,,,,,,,,,,,,,,,,,,,,,,,,,,,,,,,,,,,,,,,,,,,,,,,,,,,,,,,,,,,,,,,,,,,,,,,,,,,,,,,,,,,,,,,,,,,,,,,,,,,,,,,,,,,,,,,,,,,,,,,,,,,,,,,,,,,,,,,,,,,,,,
,,,,,,61632bd53a9234c3d53d4d3e,62bbfb2190e1cf83174d9127,2022-06-29_09h21.26.866,Colour_Asymmetry_Pilot,2022.1.3,Win32,60.13952369,62bbe60bf3d75ef465d3e404,0,5,5,24,1,onetwo,,,,,,,,,,,,,,,,,,,,,,,,,,,,,,,,,,,,,,,,,,,,,,,,,,,,,,,,,,,,,,,,,,,,,,,,,,,,,,,,,,,,,,,,,,,,,,,,,,,,,,,,,,,,,,,,,,,,,,,,,,,,,,,,,,,,,,,,,,,,,,,,,,,,,,,,
,,,,,,61632bd53a9234c3d53d4d3e,62bbfb2190e1cf83174d9127,2022-06-29_09h21.26.866,Colour_Asymmetry_Pilot,2022.1.3,Win32,60.13952369,62bbe60bf3d75ef465d3e404,0,6,6,54,1,fourtwo,,,,,,,,,,,,,,,,,,,,,,,,,,,,,,,,,,,,,,,,,,,,,,,,,,,,,,,,,,,,,,,,,,,,,,,,,,,,,,,,,,,,,,,,,,,,,,,,,,,,,,,,,,,,,,,,,,,,,,,,,,,,,,,,,,,,,,,,,,,,,,,,,,,,,,,,
,,,,,,61632bd53a9234c3d53d4d3e,62bbfb2190e1cf83174d9127,2022-06-29_09h21.26.866,Colour_Asymmetry_Pilot,2022.1.3,Win32,60.13952369,62bbe60bf3d75ef465d3e404,0,7,7,30,1,fourtwo,,,,,,,,,,,,,,,,,,,,,,,,,,,,,,,,,,,,,,,,,,,,,,,,,,,,,,,,,,,,,,,,,,,,,,,,,,,,,,,,,,,,,,,,,,,,,,,,,,,,,,,,,,,,,,,,,,,,,,,,,,,,,,,,,,,,,,,,,,,,,,,,,,,,,,,,
,,,,,,61632bd53a9234c3d53d4d3e,62bbfb2190e1cf83174d9127,2022-06-29_09h21.26.866,Colour_Asymmetry_Pilot,2022.1.3,Win32,60.13952369,62bbe60bf3d75ef465d3e404,0,8,8,97,1,onethree,,,,,,,,,,,,,,,,,,,,,,,,,,,,,,,,,,,,,,,,,,,,,,,,,,,,,,,,,,,,,,,,,,,,,,,,,,,,,,,,,,,,,,,,,,,,,,,,,,,,,,,,,,,,,,,,,,,,,,,,,,,,,,,,,,,,,,,,,,,,,,,,,,,,,,,,
,,,,,,61632bd53a9234c3d53d4d3e,62bbfb2190e1cf83174d9127,2022-06-29_09h21.26.866,Colour_Asymmetry_Pilot,2022.1.3,Win32,60.13952369,62bbe60bf3d75ef465d3e404,0,9,9,91,1,twofour,,,,,,,,,,,,,,,,,,,,,,,,,,,,,,,,,,,,,,,,,,,,,,,,,,,,,,,,,,,,,,,,,,,,,,,,,,,,,,,,,,,,,,,,,,,,,,,,,,,,,,,,,,,,,,,,,,,,,,,,,,,,,,,,,,,,,,,,,,,,,,,,,,,,,,,,
,,,,,,61632bd53a9234c3d53d4d3e,62bbfb2190e1cf83174d9127,2022-06-29_09h21.26.866,Colour_Asymmetry_Pilot,2022.1.3,Win32,60.13952369,62bbe60bf3d75ef465d3e404,0,10,10,22,1,fourtwo,,,,,,,,,,,,,,,,,,,,,,,,,,,,,,,,,,,,,,,,,,,,,,,,,,,,,,,,,,,,,,,,,,,,,,,,,,,,,,,,,,,,,,,,,,,,,,,,,,,,,,,,,,,,,,,,,,,,,,,,,,,,,,,,,,,,,,,,,,,,,,,,,,,,,,,,
,,,,,,61632bd53a9234c3d53d4d3e,62bbfb2190e1cf83174d9127,2022-06-29_09h21.26.866,Colour_Asymmetry_Pilot,2022.1.3,Win32,60.13952369,62bbe60bf3d75ef465d3e404,0,11,11,124,1,threeone,,,,,,,,,,,,,,,,,,,,,,,,,,,,,,,,,,,,,,,,,,,,,,,,,,,,,,,,,,,,,,,,,,,,,,,,,,,,,,,,,,,,,,,,,,,,,,,,,,,,,,,,,,,,,,,,,,,,,,,,,,,,,,,,,,,,,,,,,,,,,,,,,,,,,,,,
,,,,,,61632bd53a9234c3d53d4d3e,62bbfb2190e1cf83174d9127,2022-06-29_09h21.26.866,Colour_Asymmetry_Pilot,2022.1.3,Win32,60.13952369,62bbe60bf3d75ef465d3e404,0,12,12,31,1,fourthree,,,,,,,,,,,,,,,,,,,,,,,,,,,,,,,,,,,,,,,,,,,,,,,,,,,,,,,,,,,,,,,,,,,,,,,,,,,,,,,,,,,,,,,,,,,,,,,,,,,,,,,,,,,,,,,,,,,,,,,,,,,,,,,,,,,,,,,,,,,,,,,,,,,,,,,,
,,,,,,61632bd53a9234c3d53d4d3e,62bbfb2190e1cf83174d9127,2022-06-29_09h21.26.866,Colour_Asymmetry_Pilot,2022.1.3,Win32,60.13952369,62bbe60bf3d75ef465d3e404,0,13,13,109,1,threefour,,,,,,,,,,,,,,,,,,,,,,,,,,,,,,,,,,,,,,,,,,,,,,,,,,,,,,,,,,,,,,,,,,,,,,,,,,,,,,,,,,,,,,,,,,,,,,,,,,,,,,,,,,,,,,,,,,,,,,,,,,,,,,,,,,,,,,,,,,,,,,,,,,,,,,,,
,,,,,,61632bd53a9234c3d53d4d3e,62bbfb2190e1cf83174d9127,2022-06-29_09h21.26.866,Colour_Asymmetry_Pilot,2022.1.3,Win32,60.13952369,62bbe60bf3d75ef465d3e404,0,14,14,150,1,fourtwo,,,,,,,,,,,,,,,,,,,,,,,,,,,,,,,,,,,,,,,,,,,,,,,,,,,,,,,,,,,,,,,,,,,,,,,,,,,,,,,,,,,,,,,,,,,,,,,,,,,,,,,,,,,,,,,,,,,,,,,,,,,,,,,,,,,,,,,,,,,,,,,,,,,,,,,,
,,,,,,61632bd53a9234c3d53d4d3e,62bbfb2190e1cf83174d9127,2022-06-29_09h21.26.866,Colour_Asymmetry_Pilot,2022.1.3,Win32,60.13952369,62bbe60bf3d75ef465d3e404,0,15,15,49,1,onethree,,,,,,,,,,,,,,,,,,,,,,,,,,,,,,,,,,,,,,,,,,,,,,,,,,,,,,,,,,,,,,,,,,,,,,,,,,,,,,,,,,,,,,,,,,,,,,,,,,,,,,,,,,,,,,,,,,,,,,,,,,,,,,,,,,,,,,,,,,,,,,,,,,,,,,,,
,,,,,,61632bd53a9234c3d53d4d3e,62bbfb2190e1cf83174d9127,2022-06-29_09h21.26.866,Colour_Asymmetry_Pilot,2022.1.3,Win32,60.13952369,62bbe60bf3d75ef465d3e404,0,16,16,46,1,fourtwo,,,,,,,,,,,,,,,,,,,,,,,,,,,,,,,,,,,,,,,,,,,,,,,,,,,,,,,,,,,,,,,,,,,,,,,,,,,,,,,,,,,,,,,,,,,,,,,,,,,,,,,,,,,,,,,,,,,,,,,,,,,,,,,,,,,,,,,,,,,,,,,,,,,,,,,,
,,,,,,61632bd53a9234c3d53d4d3e,62bbfb2190e1cf83174d9127,2022-06-29_09h21.26.866,Colour_Asymmetry_Pilot,2022.1.3,Win32,60.13952369,62bbe60bf3d75ef465d3e404,0,17,17,77,1,threefour,,,,,,,,,,,,,,,,,,,,,,,,,,,,,,,,,,,,,,,,,,,,,,,,,,,,,,,,,,,,,,,,,,,,,,,,,,,,,,,,,,,,,,,,,,,,,,,,,,,,,,,,,,,,,,,,,,,,,,,,,,,,,,,,,,,,,,,,,,,,,,,,,,,,,,,,
,,,,,,61632bd53a9234c3d53d4d3e,62bbfb2190e1cf83174d9127,2022-06-29_09h21.26.866,Colour_Asymmetry_Pilot,2022.1.3,Win32,60.13952369,62bbe60bf3d75ef465d3e404,0,18,18,60,1,threeone,,,,,,,,,,,,,,,,,,,,,,,,,,,,,,,,,,,,,,,,,,,,,,,,,,,,,,,,,,,,,,,,,,,,,,,,,,,,,,,,,,,,,,,,,,,,,,,,,,,,,,,,,,,,,,,,,,,,,,,,,,,,,,,,,,,,,,,,,,,,,,,,,,,,,,,,
,,,,,,61632bd53a9234c3d53d4d3e,62bbfb2190e1cf83174d9127,2022-06-29_09h21.26.866,Colour_Asymmetry_Pilot,2022.1.3,Win32,60.13952369,62bbe60bf3d75ef465d3e404,0,19,19,131,1,twofour,,,,,,,,,,,,,,,,,,,,,,,,,,,,,,,,,,,,,,,,,,,,,,,,,,,,,,,,,,,,,,,,,,,,,,,,,,,,,,,,,,,,,,,,,,,,,,,,,,,,,,,,,,,,,,,,,,,,,,,,,,,,,,,,,,,,,,,,,,,,,,,,,,,,,,,,
,,,,,,61632bd53a9234c3d53d4d3e,62bbfb2190e1cf83174d9127,2022-06-29_09h21.26.866,Colour_Asymmetry_Pilot,2022.1.3,Win32,60.13952369,62bbe60bf3d75ef465d3e404,0,20,20,8,1,onetwo,,,,,,,,,,,,,,,,,,,,,,,,,,,,,,,,,,,,,,,,,,,,,,,,,,,,,,,,,,,,,,,,,,,,,,,,,,,,,,,,,,,,,,,,,,,,,,,,,,,,,,,,,,,,,,,,,,,,,,,,,,,,,,,,,,,,,,,,,,,,,,,,,,,,,,,,
,,,,,,61632bd53a9234c3d53d4d3e,62bbfb2190e1cf83174d9127,2022-06-29_09h21.26.866,Colour_Asymmetry_Pilot,2022.1.3,Win32,60.13952369,62bbe60bf3d75ef465d3e404,0,21,21,154,1,twoone,,,,,,,,,,,,,,,,,,,,,,,,,,,,,,,,,,,,,,,,,,,,,,,,,,,,,,,,,,,,,,,,,,,,,,,,,,,,,,,,,,,,,,,,,,,,,,,,,,,,,,,,,,,,,,,,,,,,,,,,,,,,,,,,,,,,,,,,,,,,,,,,,,,,,,,,
,,,,,,61632bd53a9234c3d53d4d3e,62bbfb2190e1cf83174d9127,2022-06-29_09h21.26.866,Colour_Asymmetry_Pilot,2022.1.3,Win32,60.13952369,62bbe60bf3d75ef465d3e404,0,22,22,18,1,twoone,,,,,,,,,,,,,,,,,,,,,,,,,,,,,,,,,,,,,,,,,,,,,,,,,,,,,,,,,,,,,,,,,,,,,,,,,,,,,,,,,,,,,,,,,,,,,,,,,,,,,,,,,,,,,,,,,,,,,,,,,,,,,,,,,,,,,,,,,,,,,,,,,,,,,,,,
,,,,,,61632bd53a9234c3d53d4d3e,62bbfb2190e1cf83174d9127,2022-06-29_09h21.26.866,Colour_Asymmetry_Pilot,2022.1.3,Win32,60.13952369,62bbe60bf3d75ef465d3e404,0,23,23,125,1,threefour,,,,,,,,,,,,,,,,,,,,,,,,,,,,,,,,,,,,,,,,,,,,,,,,,,,,,,,,,,,,,,,,,,,,,,,,,,,,,,,,,,,,,,,,,,,,,,,,,,,,,,,,,,,,,,,,,,,,,,,,,,,,,,,,,,,,,,,,,,,,,,,,,,,,,,,,
,,,,,,61632bd53a9234c3d53d4d3e,62bbfb2190e1cf83174d9127,2022-06-29_09h21.26.866,Colour_Asymmetry_Pilot,2022.1.3,Win32,60.13952369,62bbe60bf3d75ef465d3e404,0,24,24,100,1,threeone,,,,,,,,,,,,,,,,,,,,,,,,,,,,,,,,,,,,,,,,,,,,,,,,,,,,,,,,,,,,,,,,,,,,,,,,,,,,,,,,,,,,,,,,,,,,,,,,,,,,,,,,,,,,,,,,,,,,,,,,,,,,,,,,,,,,,,,,,,,,,,,,,,,,,,,,
,,,,,,61632bd53a9234c3d53d4d3e,62bbfb2190e1cf83174d9127,2022-06-29_09h21.26.866,Colour_Asymmetry_Pilot,2022.1.3,Win32,60.13952369,62bbe60bf3d75ef465d3e404,0,25,25,134,1,fourtwo,,,,,,,,,,,,,,,,,,,,,,,,,,,,,,,,,,,,,,,,,,,,,,,,,,,,,,,,,,,,,,,,,,,,,,,,,,,,,,,,,,,,,,,,,,,,,,,,,,,,,,,,,,,,,,,,,,,,,,,,,,,,,,,,,,,,,,,,,,,,,,,,,,,,,,,,
,,,,,,61632bd53a9234c3d53d4d3e,62bbfb2190e1cf83174d9127,2022-06-29_09h21.26.866,Colour_Asymmetry_Pilot,2022.1.3,Win32,60.13952369,62bbe60bf3d75ef465d3e404,0,26,26,120,1,onetwo,,,,,,,,,,,,,,,,,,,,,,,,,,,,,,,,,,,,,,,,,,,,,,,,,,,,,,,,,,,,,,,,,,,,,,,,,,,,,,,,,,,,,,,,,,,,,,,,,,,,,,,,,,,,,,,,,,,,,,,,,,,,,,,,,,,,,,,,,,,,,,,,,,,,,,,,
,,,,,,61632bd53a9234c3d53d4d3e,62bbfb2190e1cf83174d9127,2022-06-29_09h21.26.866,Colour_Asymmetry_Pilot,2022.1.3,Win32,60.13952369,62bbe60bf3d75ef465d3e404,0,27,27,66,1,twoone,,,,,,,,,,,,,,,,,,,,,,,,,,,,,,,,,,,,,,,,,,,,,,,,,,,,,,,,,,,,,,,,,,,,,,,,,,,,,,,,,,,,,,,,,,,,,,,,,,,,,,,,,,,,,,,,,,,,,,,,,,,,,,,,,,,,,,,,,,,,,,,,,,,,,,,,
,,,,,,61632bd53a9234c3d53d4d3e,62bbfb2190e1cf83174d9127,2022-06-29_09h21.26.866,Colour_Asymmetry_Pilot,2022.1.3,Win32,60.13952369,62bbe60bf3d75ef465d3e404,0,28,28,79,1,fourthree,,,,,,,,,,,,,,,,,,,,,,,,,,,,,,,,,,,,,,,,,,,,,,,,,,,,,,,,,,,,,,,,,,,,,,,,,,,,,,,,,,,,,,,,,,,,,,,,,,,,,,,,,,,,,,,,,,,,,,,,,,,,,,,,,,,,,,,,,,,,,,,,,,,,,,,,
,,,,,,61632bd53a9234c3d53d4d3e,62bbfb2190e1cf83174d9127,2022-06-29_09h21.26.866,Colour_Asymmetry_Pilot,2022.1.3,Win32,60.13952369,62bbe60bf3d75ef465d3e404,0,29,29,153,1,onethree,,,,,,,,,,,,,,,,,,,,,,,,,,,,,,,,,,,,,,,,,,,,,,,,,,,,,,,,,,,,,,,,,,,,,,,,,,,,,,,,,,,,,,,,,,,,,,,,,,,,,,,,,,,,,,,,,,,,,,,,,,,,,,,,,,,,,,,,,,,,,,,,,,,,,,,,
,,,,,,61632bd53a9234c3d53d4d3e,62bbfb2190e1cf83174d9127,2022-06-29_09h21.26.866,Colour_Asymmetry_Pilot,2022.1.3,Win32,60.13952369,62bbe60bf3d75ef465d3e404,0,30,30,25,1,onethree,,,,,,,,,,,,,,,,,,,,,,,,,,,,,,,,,,,,,,,,,,,,,,,,,,,,,,,,,,,,,,,,,,,,,,,,,,,,,,,,,,,,,,,,,,,,,,,,,,,,,,,,,,,,,,,,,,,,,,,,,,,,,,,,,,,,,,,,,,,,,,,,,,,,,,,,
,,,,,,61632bd53a9234c3d53d4d3e,62bbfb2190e1cf83174d9127,2022-06-29_09h21.26.866,Colour_Asymmetry_Pilot,2022.1.3,Win32,60.13952369,62bbe60bf3d75ef465d3e404,0,31,31,93,1,threefour,,,,,,,,,,,,,,,,,,,,,,,,,,,,,,,,,,,,,,,,,,,,,,,,,,,,,,,,,,,,,,,,,,,,,,,,,,,,,,,,,,,,,,,,,,,,,,,,,,,,,,,,,,,,,,,,,,,,,,,,,,,,,,,,,,,,,,,,,,,,,,,,,,,,,,,,
,,,,,,61632bd53a9234c3d53d4d3e,62bbfb2190e1cf83174d9127,2022-06-29_09h21.26.866,Colour_Asymmetry_Pilot,2022.1.3,Win32,60.13952369,62bbe60bf3d75ef465d3e404,0,32,32,110,1,fourtwo,,,,,,,,,,,,,,,,,,,,,,,,,,,,,,,,,,,,,,,,,,,,,,,,,,,,,,,,,,,,,,,,,,,,,,,,,,,,,,,,,,,,,,,,,,,,,,,,,,,,,,,,,,,,,,,,,,,,,,,,,,,,,,,,,,,,,,,,,,,,,,,,,,,,,,,,
,,,,,,61632bd53a9234c3d53d4d3e,62bbfb2190e1cf83174d9127,2022-06-29_09h21.26.866,Colour_Asymmetry_Pilot,2022.1.3,Win32,60.13952369,62bbe60bf3d75ef465d3e404,0,33,33,159,1,fourthree,,,,,,,,,,,,,,,,,,,,,,,,,,,,,,,,,,,,,,,,,,,,,,,,,,,,,,,,,,,,,,,,,,,,,,,,,,,,,,,,,,,,,,,,,,,,,,,,,,,,,,,,,,,,,,,,,,,,,,,,,,,,,,,,,,,,,,,,,,,,,,,,,,,,,,,,
,,,,,,61632bd53a9234c3d53d4d3e,62bbfb2190e1cf83174d9127,2022-06-29_09h21.26.866,Colour_Asymmetry_Pilot,2022.1.3,Win32,60.13952369,62bbe60bf3d75ef465d3e404,0,34,34,139,1,twofour,,,,,,,,,,,,,,,,,,,,,,,,,,,,,,,,,,,,,,,,,,,,,,,,,,,,,,,,,,,,,,,,,,,,,,,,,,,,,,,,,,,,,,,,,,,,,,,,,,,,,,,,,,,,,,,,,,,,,,,,,,,,,,,,,,,,,,,,,,,,,,,,,,,,,,,,
,,,,,,61632bd53a9234c3d53d4d3e,62bbfb2190e1cf83174d9127,2022-06-29_09h21.26.866,Colour_Asymmetry_Pilot,2022.1.3,Win32,60.13952369,62bbe60bf3d75ef465d3e404,0,35,35,26,1,twoone,,,,,,,,,,,,,,,,,,,,,,,,,,,,,,,,,,,,,,,,,,,,,,,,,,,,,,,,,,,,,,,,,,,,,,,,,,,,,,,,,,,,,,,,,,,,,,,,,,,,,,,,,,,,,,,,,,,,,,,,,,,,,,,,,,,,,,,,,,,,,,,,,,,,,,,,
,,,,,,61632bd53a9234c3d53d4d3e,62bbfb2190e1cf83174d9127,2022-06-29_09h21.26.866,Colour_Asymmetry_Pilot,2022.1.3,Win32,60.13952369,62bbe60bf3d75ef465d3e404,0,36,36,53,1,threefour,,,,,,,,,,,,,,,,,,,,,,,,,,,,,,,,,,,,,,,,,,,,,,,,,,,,,,,,,,,,,,,,,,,,,,,,,,,,,,,,,,,,,,,,,,,,,,,,,,,,,,,,,,,,,,,,,,,,,,,,,,,,,,,,,,,,,,,,,,,,,,,,,,,,,,,,
,,,,,,61632bd53a9234c3d53d4d3e,62bbfb2190e1cf83174d9127,2022-06-29_09h21.26.866,Colour_Asymmetry_Pilot,2022.1.3,Win32,60.13952369,62bbe60bf3d75ef465d3e404,0,37,37,63,1,fourthree,,,,,,,,,,,,,,,,,,,,,,,,,,,,,,,,,,,,,,,,,,,,,,,,,,,,,,,,,,,,,,,,,,,,,,,,,,,,,,,,,,,,,,,,,,,,,,,,,,,,,,,,,,,,,,,,,,,,,,,,,,,,,,,,,,,,,,,,,,,,,,,,,,,,,,,,
,,,,,,61632bd53a9234c3d53d4d3e,62bbfb2190e1cf83174d9127,2022-06-29_09h21.26.866,Colour_Asymmetry_Pilot,2022.1.3,Win32,60.13952369,62bbe60bf3d75ef465d3e404,0,38,38,96,1,onetwo,,,,,,,,,,,,,,,,,,,,,,,,,,,,,,,,,,,,,,,,,,,,,,,,,,,,,,,,,,,,,,,,,,,,,,,,,,,,,,,,,,,,,,,,,,,,,,,,,,,,,,,,,,,,,,,,,,,,,,,,,,,,,,,,,,,,,,,,,,,,,,,,,,,,,,,,
,,,,,,61632bd53a9234c3d53d4d3e,62bbfb2190e1cf83174d9127,2022-06-29_09h21.26.866,Colour_Asymmetry_Pilot,2022.1.3,Win32,60.13952369,62bbe60bf3d75ef465d3e404,0,39,39,74,1,twoone,,,,,,,,,,,,,,,,,,,,,,,,,,,,,,,,,,,,,,,,,,,,,,,,,,,,,,,,,,,,,,,,,,,,,,,,,,,,,,,,,,,,,,,,,,,,,,,,,,,,,,,,,,,,,,,,,,,,,,,,,,,,,,,,,,,,,,,,,,,,,,,,,,,,,,,,
,,,,,,61632bd53a9234c3d53d4d3e,62bbfb2190e1cf83174d9127,2022-06-29_09h21.26.866,Colour_Asymmetry_Pilot,2022.1.3,Win32,60.13952369,62bbe60bf3d75ef465d3e404,0,40,40,38,1,fourtwo,,,,,,,,,,,,,,,,,,,,,,,,,,,,,,,,,,,,,,,,,,,,,,,,,,,,,,,,,,,,,,,,,,,,,,,,,,,,,,,,,,,,,,,,,,,,,,,,,,,,,,,,,,,,,,,,,,,,,,,,,,,,,,,,,,,,,,,,,,,,,,,,,,,,,,,,
,,,,,,61632bd53a9234c3d53d4d3e,62bbfb2190e1cf83174d9127,2022-06-29_09h21.26.866,Colour_Asymmetry_Pilot,2022.1.3,Win32,60.13952369,62bbe60bf3d75ef465d3e404,0,41,41,75,1,twofour,,,,,,,,,,,,,,,,,,,,,,,,,,,,,,,,,,,,,,,,,,,,,,,,,,,,,,,,,,,,,,,,,,,,,,,,,,,,,,,,,,,,,,,,,,,,,,,,,,,,,,,,,,,,,,,,,,,,,,,,,,,,,,,,,,,,,,,,,,,,,,,,,,,,,,,,
,,,,,,61632bd53a9234c3d53d4d3e,62bbfb2190e1cf83174d9127,2022-06-29_09h21.26.866,Colour_Asymmetry_Pilot,2022.1.3,Win32,60.13952369,62bbe60bf3d75ef465d3e404,0,42,42,130,1,twoone,,,,,,,,,,,,,,,,,,,,,,,,,,,,,,,,,,,,,,,,,,,,,,,,,,,,,,,,,,,,,,,,,,,,,,,,,,,,,,,,,,,,,,,,,,,,,,,,,,,,,,,,,,,,,,,,,,,,,,,,,,,,,,,,,,,,,,,,,,,,,,,,,,,,,,,,
,,,,,,61632bd53a9234c3d53d4d3e,62bbfb2190e1cf83174d9127,2022-06-29_09h21.26.866,Colour_Asymmetry_Pilot,2022.1.3,Win32,60.13952369,62bbe60bf3d75ef465d3e404,0,43,43,99,1,twofour,,,,,,,,,,,,,,,,,,,,,,,,,,,,,,,,,,,,,,,,,,,,,,,,,,,,,,,,,,,,,,,,,,,,,,,,,,,,,,,,,,,,,,,,,,,,,,,,,,,,,,,,,,,,,,,,,,,,,,,,,,,,,,,,,,,,,,,,,,,,,,,,,,,,,,,,
,,,,,,61632bd53a9234c3d53d4d3e,62bbfb2190e1cf83174d9127,2022-06-29_09h21.26.866,Colour_Asymmetry_Pilot,2022.1.3,Win32,60.13952369,62bbe60bf3d75ef465d3e404,0,44,44,90,1,twoone,,,,,,,,,,,,,,,,,,,,,,,,,,,,,,,,,,,,,,,,,,,,,,,,,,,,,,,,,,,,,,,,,,,,,,,,,,,,,,,,,,,,,,,,,,,,,,,,,,,,,,,,,,,,,,,,,,,,,,,,,,,,,,,,,,,,,,,,,,,,,,,,,,,,,,,,
,,,,,,61632bd53a9234c3d53d4d3e,62bbfb2190e1cf83174d9127,2022-06-29_09h21.26.866,Colour_Asymmetry_Pilot,2022.1.3,Win32,60.13952369,62bbe60bf3d75ef465d3e404,0,45,45,81,1,onethree,,,,,,,,,,,,,,,,,,,,,,,,,,,,,,,,,,,,,,,,,,,,,,,,,,,,,,,,,,,,,,,,,,,,,,,,,,,,,,,,,,,,,,,,,,,,,,,,,,,,,,,,,,,,,,,,,,,,,,,,,,,,,,,,,,,,,,,,,,,,,,,,,,,,,,,,
,,,,,,61632bd53a9234c3d53d4d3e,62bbfb2190e1cf83174d9127,2022-06-29_09h21.26.866,Colour_Asymmetry_Pilot,2022.1.3,Win32,60.13952369,62bbe60bf3d75ef465d3e404,0,46,46,113,1,onethree,,,,,,,,,,,,,,,,,,,,,,,,,,,,,,,,,,,,,,,,,,,,,,,,,,,,,,,,,,,,,,,,,,,,,,,,,,,,,,,,,,,,,,,,,,,,,,,,,,,,,,,,,,,,,,,,,,,,,,,,,,,,,,,,,,,,,,,,,,,,,,,,,,,,,,,,
,,,,,,61632bd53a9234c3d53d4d3e,62bbfb2190e1cf83174d9127,2022-06-29_09h21.26.866,Colour_Asymmetry_Pilot,2022.1.3,Win32,60.13952369,62bbe60bf3d75ef465d3e404,0,47,47,151,1,fourthree,,,,,,,,,,,,,,,,,,,,,,,,,,,,,,,,,,,,,,,,,,,,,,,,,,,,,,,,,,,,,,,,,,,,,,,,,,,,,,,,,,,,,,,,,,,,,,,,,,,,,,,,,,,,,,,,,,,,,,,,,,,,,,,,,,,,,,,,,,,,,,,,,,,,,,,,
,,,,,,61632bd53a9234c3d53d4d3e,62bbfb2190e1cf83174d9127,2022-06-29_09h21.26.866,Colour_Asymmetry_Pilot,2022.1.3,Win32,60.13952369,62bbe60bf3d75ef465d3e404,0,48,48,138,1,twoone,,,,,,,,,,,,,,,,,,,,,,,,,,,,,,,,,,,,,,,,,,,,,,,,,,,,,,,,,,,,,,,,,,,,,,,,,,,,,,,,,,,,,,,,,,,,,,,,,,,,,,,,,,,,,,,,,,,,,,,,,,,,,,,,,,,,,,,,,,,,,,,,,,,,,,,,
,,,,,,61632bd53a9234c3d53d4d3e,62bbfb2190e1cf83174d9127,2022-06-29_09h21.26.866,Colour_Asymmetry_Pilot,2022.1.3,Win32,60.13952369,62bbe60bf3d75ef465d3e404,0,49,49,48,1,onetwo,,,,,,,,,,,,,,,,,,,,,,,,,,,,,,,,,,,,,,,,,,,,,,,,,,,,,,,,,,,,,,,,,,,,,,,,,,,,,,,,,,,,,,,,,,,,,,,,,,,,,,,,,,,,,,,,,,,,,,,,,,,,,,,,,,,,,,,,,,,,,,,,,,,,,,,,
,,,,,,61632bd53a9234c3d53d4d3e,62bbfb2190e1cf83174d9127,2022-06-29_09h21.26.866,Colour_Asymmetry_Pilot,2022.1.3,Win32,60.13952369,62bbe60bf3d75ef465d3e404,0,50,50,13,1,threefour,,,,,,,,,,,,,,,,,,,,,,,,,,,,,,,,,,,,,,,,,,,,,,,,,,,,,,,,,,,,,,,,,,,,,,,,,,,,,,,,,,,,,,,,,,,,,,,,,,,,,,,,,,,,,,,,,,,,,,,,,,,,,,,,,,,,,,,,,,,,,,,,,,,,,,,,
,,,,,,61632bd53a9234c3d53d4d3e,62bbfb2190e1cf83174d9127,2022-06-29_09h21.26.866,Colour_Asymmetry_Pilot,2022.1.3,Win32,60.13952369,62bbe60bf3d75ef465d3e404,0,51,51,128,1,onetwo,,,,,,,,,,,,,,,,,,,,,,,,,,,,,,,,,,,,,,,,,,,,,,,,,,,,,,,,,,,,,,,,,,,,,,,,,,,,,,,,,,,,,,,,,,,,,,,,,,,,,,,,,,,,,,,,,,,,,,,,,,,,,,,,,,,,,,,,,,,,,,,,,,,,,,,,
,,,,,,61632bd53a9234c3d53d4d3e,62bbfb2190e1cf83174d9127,2022-06-29_09h21.26.866,Colour_Asymmetry_Pilot,2022.1.3,Win32,60.13952369,62bbe60bf3d75ef465d3e404,0,52,52,129,1,onethree,,,,,,,,,,,,,,,,,,,,,,,,,,,,,,,,,,,,,,,,,,,,,,,,,,,,,,,,,,,,,,,,,,,,,,,,,,,,,,,,,,,,,,,,,,,,,,,,,,,,,,,,,,,,,,,,,,,,,,,,,,,,,,,,,,,,,,,,,,,,,,,,,,,,,,,,
,,,,,,61632bd53a9234c3d53d4d3e,62bbfb2190e1cf83174d9127,2022-06-29_09h21.26.866,Colour_Asymmetry_Pilot,2022.1.3,Win32,60.13952369,62bbe60bf3d75ef465d3e404,0,53,53,95,1,fourthree,,,,,,,,,,,,,,,,,,,,,,,,,,,,,,,,,,,,,,,,,,,,,,,,,,,,,,,,,,,,,,,,,,,,,,,,,,,,,,,,,,,,,,,,,,,,,,,,,,,,,,,,,,,,,,,,,,,,,,,,,,,,,,,,,,,,,,,,,,,,,,,,,,,,,,,,
,,,,,,61632bd53a9234c3d53d4d3e,62bbfb2190e1cf83174d9127,2022-06-29_09h21.26.866,Colour_Asymmetry_Pilot,2022.1.3,Win32,60.13952369,62bbe60bf3d75ef465d3e404,0,54,54,17,1,onethree,,,,,,,,,,,,,,,,,,,,,,,,,,,,,,,,,,,,,,,,,,,,,,,,,,,,,,,,,,,,,,,,,,,,,,,,,,,,,,,,,,,,,,,,,,,,,,,,,,,,,,,,,,,,,,,,,,,,,,,,,,,,,,,,,,,,,,,,,,,,,,,,,,,,,,,,
,,,,,,61632bd53a9234c3d53d4d3e,62bbfb2190e1cf83174d9127,2022-06-29_09h21.26.866,Colour_Asymmetry_Pilot,2022.1.3,Win32,60.13952369,62bbe60bf3d75ef465d3e404,0,55,55,10,1,twoone,,,,,,,,,,,,,,,,,,,,,,,,,,,,,,,,,,,,,,,,,,,,,,,,,,,,,,,,,,,,,,,,,,,,,,,,,,,,,,,,,,,,,,,,,,,,,,,,,,,,,,,,,,,,,,,,,,,,,,,,,,,,,,,,,,,,,,,,,,,,,,,,,,,,,,,,
,,,,,,61632bd53a9234c3d53d4d3e,62bbfb2190e1cf83174d9127,2022-06-29_09h21.26.866,Colour_Asymmetry_Pilot,2022.1.3,Win32,60.13952369,62bbe60bf3d75ef465d3e404,0,56,56,32,1,onetwo,,,,,,,,,,,,,,,,,,,,,,,,,,,,,,,,,,,,,,,,,,,,,,,,,,,,,,,,,,,,,,,,,,,,,,,,,,,,,,,,,,,,,,,,,,,,,,,,,,,,,,,,,,,,,,,,,,,,,,,,,,,,,,,,,,,,,,,,,,,,,,,,,,,,,,,,
,,,,,,61632bd53a9234c3d53d4d3e,62bbfb2190e1cf83174d9127,2022-06-29_09h21.26.866,Colour_Asymmetry_Pilot,2022.1.3,Win32,60.13952369,62bbe60bf3d75ef465d3e404,0,57,57,136,1,onetwo,,,,,,,,,,,,,,,,,,,,,,,,,,,,,,,,,,,,,,,,,,,,,,,,,,,,,,,,,,,,,,,,,,,,,,,,,,,,,,,,,,,,,,,,,,,,,,,,,,,,,,,,,,,,,,,,,,,,,,,,,,,,,,,,,,,,,,,,,,,,,,,,,,,,,,,,
,,,,,,61632bd53a9234c3d53d4d3e,62bbfb2190e1cf83174d9127,2022-06-29_09h21.26.866,Colour_Asymmetry_Pilot,2022.1.3,Win32,60.13952369,62bbe60bf3d75ef465d3e404,0,58,58,161,1,onethree,,,,,,,,,,,,,,,,,,,,,,,,,,,,,,,,,,,,,,,,,,,,,,,,,,,,,,,,,,,,,,,,,,,,,,,,,,,,,,,,,,,,,,,,,,,,,,,,,,,,,,,,,,,,,,,,,,,,,,,,,,,,,,,,,,,,,,,,,,,,,,,,,,,,,,,,
,,,,,,61632bd53a9234c3d53d4d3e,62bbfb2190e1cf83174d9127,2022-06-29_09h21.26.866,Colour_Asymmetry_Pilot,2022.1.3,Win32,60.13952369,62bbe60bf3d75ef465d3e404,0,59,59,65,1,onethree,,,,,,,,,,,,,,,,,,,,,,,,,,,,,,,,,,,,,,,,,,,,,,,,,,,,,,,,,,,,,,,,,,,,,,,,,,,,,,,,,,,,,,,,,,,,,,,,,,,,,,,,,,,,,,,,,,,,,,,,,,,,,,,,,,,,,,,,,,,,,,,,,,,,,,,,
,,,,,,61632bd53a9234c3d53d4d3e,62bbfb2190e1cf83174d9127,2022-06-29_09h21.26.866,Colour_Asymmetry_Pilot,2022.1.3,Win32,60.13952369,62bbe60bf3d75ef465d3e404,0,60,60,119,1,fourthree,,,,,,,,,,,,,,,,,,,,,,,,,,,,,,,,,,,,,,,,,,,,,,,,,,,,,,,,,,,,,,,,,,,,,,,,,,,,,,,,,,,,,,,,,,,,,,,,,,,,,,,,,,,,,,,,,,,,,,,,,,,,,,,,,,,,,,,,,,,,,,,,,,,,,,,,
,,,,,,61632bd53a9234c3d53d4d3e,62bbfb2190e1cf83174d9127,2022-06-29_09h21.26.866,Colour_Asymmetry_Pilot,2022.1.3,Win32,60.13952369,62bbe60bf3d75ef465d3e404,0,61,61,35,1,twofour,,,,,,,,,,,,,,,,,,,,,,,,,,,,,,,,,,,,,,,,,,,,,,,,,,,,,,,,,,,,,,,,,,,,,,,,,,,,,,,,,,,,,,,,,,,,,,,,,,,,,,,,,,,,,,,,,,,,,,,,,,,,,,,,,,,,,,,,,,,,,,,,,,,,,,,,
,,,,,,61632bd53a9234c3d53d4d3e,62bbfb2190e1cf83174d9127,2022-06-29_09h21.26.866,Colour_Asymmetry_Pilot,2022.1.3,Win32,60.13952369,62bbe60bf3d75ef465d3e404,0,62,62,106,1,twoone,,,,,,,,,,,,,,,,,,,,,,,,,,,,,,,,,,,,,,,,,,,,,,,,,,,,,,,,,,,,,,,,,,,,,,,,,,,,,,,,,,,,,,,,,,,,,,,,,,,,,,,,,,,,,,,,,,,,,,,,,,,,,,,,,,,,,,,,,,,,,,,,,,,,,,,,
,,,,,,61632bd53a9234c3d53d4d3e,62bbfb2190e1cf83174d9127,2022-06-29_09h21.26.866,Colour_Asymmetry_Pilot,2022.1.3,Win32,60.13952369,62bbe60bf3d75ef465d3e404,0,63,63,72,1,onetwo,,,,,,,,,,,,,,,,,,,,,,,,,,,,,,,,,,,,,,,,,,,,,,,,,,,,,,,,,,,,,,,,,,,,,,,,,,,,,,,,,,,,,,,,,,,,,,,,,,,,,,,,,,,,,,,,,,,,,,,,,,,,,,,,,,,,,,,,,,,,,,,,,,,,,,,,
,,,,,,61632bd53a9234c3d53d4d3e,62bbfb2190e1cf83174d9127,2022-06-29_09h21.26.866,Colour_Asymmetry_Pilot,2022.1.3,Win32,60.13952369,62bbe60bf3d75ef465d3e404,0,64,64,155,1,twofour,,,,,,,,,,,,,,,,,,,,,,,,,,,,,,,,,,,,,,,,,,,,,,,,,,,,,,,,,,,,,,,,,,,,,,,,,,,,,,,,,,,,,,,,,,,,,,,,,,,,,,,,,,,,,,,,,,,,,,,,,,,,,,,,,,,,,,,,,,,,,,,,,,,,,,,,
,,,,,,61632bd53a9234c3d53d4d3e,62bbfb2190e1cf83174d9127,2022-06-29_09h21.26.866,Colour_Asymmetry_Pilot,2022.1.3,Win32,60.13952369,62bbe60bf3d75ef465d3e404,0,65,65,137,1,onethree,,,,,,,,,,,,,,,,,,,,,,,,,,,,,,,,,,,,,,,,,,,,,,,,,,,,,,,,,,,,,,,,,,,,,,,,,,,,,,,,,,,,,,,,,,,,,,,,,,,,,,,,,,,,,,,,,,,,,,,,,,,,,,,,,,,,,,,,,,,,,,,,,,,,,,,,
,,,,,,61632bd53a9234c3d53d4d3e,62bbfb2190e1cf83174d9127,2022-06-29_09h21.26.866,Colour_Asymmetry_Pilot,2022.1.3,Win32,60.13952369,62bbe60bf3d75ef465d3e404,0,66,66,92,1,threeone,,,,,,,,,,,,,,,,,,,,,,,,,,,,,,,,,,,,,,,,,,,,,,,,,,,,,,,,,,,,,,,,,,,,,,,,,,,,,,,,,,,,,,,,,,,,,,,,,,,,,,,,,,,,,,,,,,,,,,,,,,,,,,,,,,,,,,,,,,,,,,,,,,,,,,,,
,,,,,,61632bd53a9234c3d53d4d3e,62bbfb2190e1cf83174d9127,2022-06-29_09h21.26.866,Colour_Asymmetry_Pilot,2022.1.3,Win32,60.13952369,62bbe60bf3d75ef465d3e404,0,67,67,144,1,onetwo,,,,,,,,,,,,,,,,,,,,,,,,,,,,,,,,,,,,,,,,,,,,,,,,,,,,,,,,,,,,,,,,,,,,,,,,,,,,,,,,,,,,,,,,,,,,,,,,,,,,,,,,,,,,,,,,,,,,,,,,,,,,,,,,,,,,,,,,,,,,,,,,,,,,,,,,
,,,,,,61632bd53a9234c3d53d4d3e,62bbfb2190e1cf83174d9127,2022-06-29_09h21.26.866,Colour_Asymmetry_Pilot,2022.1.3,Win32,60.13952369,62bbe60bf3d75ef465d3e404,0,68,68,64,1,onetwo,,,,,,,,,,,,,,,,,,,,,,,,,,,,,,,,,,,,,,,,,,,,,,,,,,,,,,,,,,,,,,,,,,,,,,,,,,,,,,,,,,,,,,,,,,,,,,,,,,,,,,,,,,,,,,,,,,,,,,,,,,,,,,,,,,,,,,,,,,,,,,,,,,,,,,,,
,,,,,,61632bd53a9234c3d53d4d3e,62bbfb2190e1cf83174d9127,2022-06-29_09h21.26.866,Colour_Asymmetry_Pilot,2022.1.3,Win32,60.13952369,62bbe60bf3d75ef465d3e404,0,69,69,33,1,onethree,,,,,,,,,,,,,,,,,,,,,,,,,,,,,,,,,,,,,,,,,,,,,,,,,,,,,,,,,,,,,,,,,,,,,,,,,,,,,,,,,,,,,,,,,,,,,,,,,,,,,,,,,,,,,,,,,,,,,,,,,,,,,,,,,,,,,,,,,,,,,,,,,,,,,,,,
,,,,,,61632bd53a9234c3d53d4d3e,62bbfb2190e1cf83174d9127,2022-06-29_09h21.26.866,Colour_Asymmetry_Pilot,2022.1.3,Win32,60.13952369,62bbe60bf3d75ef465d3e404,0,70,70,5,1,threefour,,,,,,,,,,,,,,,,,,,,,,,,,,,,,,,,,,,,,,,,,,,,,,,,,,,,,,,,,,,,,,,,,,,,,,,,,,,,,,,,,,,,,,,,,,,,,,,,,,,,,,,,,,,,,,,,,,,,,,,,,,,,,,,,,,,,,,,,,,,,,,,,,,,,,,,,
,,,,,,61632bd53a9234c3d53d4d3e,62bbfb2190e1cf83174d9127,2022-06-29_09h21.26.866,Colour_Asymmetry_Pilot,2022.1.3,Win32,60.13952369,62bbe60bf3d75ef465d3e404,0,71,71,148,1,threeone,,,,,,,,,,,,,,,,,,,,,,,,,,,,,,,,,,,,,,,,,,,,,,,,,,,,,,,,,,,,,,,,,,,,,,,,,,,,,,,,,,,,,,,,,,,,,,,,,,,,,,,,,,,,,,,,,,,,,,,,,,,,,,,,,,,,,,,,,,,,,,,,,,,,,,,,
,,,,,,61632bd53a9234c3d53d4d3e,62bbfb2190e1cf83174d9127,2022-06-29_09h21.26.866,Colour_Asymmetry_Pilot,2022.1.3,Win32,60.13952369,62bbe60bf3d75ef465d3e404,0,72,72,147,1,twofour,,,,,,,,,,,,,,,,,,,,,,,,,,,,,,,,,,,,,,,,,,,,,,,,,,,,,,,,,,,,,,,,,,,,,,,,,,,,,,,,,,,,,,,,,,,,,,,,,,,,,,,,,,,,,,,,,,,,,,,,,,,,,,,,,,,,,,,,,,,,,,,,,,,,,,,,
,,,,,,61632bd53a9234c3d53d4d3e,62bbfb2190e1cf83174d9127,2022-06-29_09h21.26.866,Colour_Asymmetry_Pilot,2022.1.3,Win32,60.13952369,62bbe60bf3d75ef465d3e404,0,73,73,34,1,twoone,,,,,,,,,,,,,,,,,,,,,,,,,,,,,,,,,,,,,,,,,,,,,,,,,,,,,,,,,,,,,,,,,,,,,,,,,,,,,,,,,,,,,,,,,,,,,,,,,,,,,,,,,,,,,,,,,,,,,,,,,,,,,,,,,,,,,,,,,,,,,,,,,,,,,,,,
,,,,,,61632bd53a9234c3d53d4d3e,62bbfb2190e1cf83174d9127,2022-06-29_09h21.26.866,Colour_Asymmetry_Pilot,2022.1.3,Win32,60.13952369,62bbe60bf3d75ef465d3e404,0,74,74,44,1,threeone,,,,,,,,,,,,,,,,,,,,,,,,,,,,,,,,,,,,,,,,,,,,,,,,,,,,,,,,,,,,,,,,,,,,,,,,,,,,,,,,,,,,,,,,,,,,,,,,,,,,,,,,,,,,,,,,,,,,,,,,,,,,,,,,,,,,,,,,,,,,,,,,,,,,,,,,
,,,,,,61632bd53a9234c3d53d4d3e,62bbfb2190e1cf83174d9127,2022-06-29_09h21.26.866,Colour_Asymmetry_Pilot,2022.1.3,Win32,60.13952369,62bbe60bf3d75ef465d3e404,0,75,75,23,1,fourthree,,,,,,,,,,,,,,,,,,,,,,,,,,,,,,,,,,,,,,,,,,,,,,,,,,,,,,,,,,,,,,,,,,,,,,,,,,,,,,,,,,,,,,,,,,,,,,,,,,,,,,,,,,,,,,,,,,,,,,,,,,,,,,,,,,,,,,,,,,,,,,,,,,,,,,,,
,,,,,,61632bd53a9234c3d53d4d3e,62bbfb2190e1cf83174d9127,2022-06-29_09h21.26.866,Colour_Asymmetry_Pilot,2022.1.3,Win32,60.13952369,62bbe60bf3d75ef465d3e404,0,76,76,27,1,twofour,,,,,,,,,,,,,,,,,,,,,,,,,,,,,,,,,,,,,,,,,,,,,,,,,,,,,,,,,,,,,,,,,,,,,,,,,,,,,,,,,,,,,,,,,,,,,,,,,,,,,,,,,,,,,,,,,,,,,,,,,,,,,,,,,,,,,,,,,,,,,,,,,,,,,,,,
,,,,,,61632bd53a9234c3d53d4d3e,62bbfb2190e1cf83174d9127,2022-06-29_09h21.26.866,Colour_Asymmetry_Pilot,2022.1.3,Win32,60.13952369,62bbe60bf3d75ef465d3e404,0,77,77,104,1,onetwo,,,,,,,,,,,,,,,,,,,,,,,,,,,,,,,,,,,,,,,,,,,,,,,,,,,,,,,,,,,,,,,,,,,,,,,,,,,,,,,,,,,,,,,,,,,,,,,,,,,,,,,,,,,,,,,,,,,,,,,,,,,,,,,,,,,,,,,,,,,,,,,,,,,,,,,,
,,,,,,61632bd53a9234c3d53d4d3e,62bbfb2190e1cf83174d9127,2022-06-29_09h21.26.866,Colour_Asymmetry_Pilot,2022.1.3,Win32,60.13952369,62bbe60bf3d75ef465d3e404,0,78,78,7,1,fourthree,,,,,,,,,,,,,,,,,,,,,,,,,,,,,,,,,,,,,,,,,,,,,,,,,,,,,,,,,,,,,,,,,,,,,,,,,,,,,,,,,,,,,,,,,,,,,,,,,,,,,,,,,,,,,,,,,,,,,,,,,,,,,,,,,,,,,,,,,,,,,,,,,,,,,,,,
,,,,,,61632bd53a9234c3d53d4d3e,62bbfb2190e1cf83174d9127,2022-06-29_09h21.26.866,Colour_Asymmetry_Pilot,2022.1.3,Win32,60.13952369,62bbe60bf3d75ef465d3e404,0,79,79,15,1,fourthree,,,,,,,,,,,,,,,,,,,,,,,,,,,,,,,,,,,,,,,,,,,,,,,,,,,,,,,,,,,,,,,,,,,,,,,,,,,,,,,,,,,,,,,,,,,,,,,,,,,,,,,,,,,,,,,,,,,,,,,,,,,,,,,,,,,,,,,,,,,,,,,,,,,,,,,,
,,,,,,61632bd53a9234c3d53d4d3e,62bbfb2190e1cf83174d9127,2022-06-29_09h21.26.866,Colour_Asymmetry_Pilot,2022.1.3,Win32,60.13952369,62bbe60bf3d75ef465d3e404,0,80,80,123,1,twofour,,,,,,,,,,,,,,,,,,,,,,,,,,,,,,,,,,,,,,,,,,,,,,,,,,,,,,,,,,,,,,,,,,,,,,,,,,,,,,,,,,,,,,,,,,,,,,,,,,,,,,,,,,,,,,,,,,,,,,,,,,,,,,,,,,,,,,,,,,,,,,,,,,,,,,,,
,,,,,,61632bd53a9234c3d53d4d3e,62bbfb2190e1cf83174d9127,2022-06-29_09h21.26.866,Colour_Asymmetry_Pilot,2022.1.3,Win32,60.13952369,62bbe60bf3d75ef465d3e404,0,81,81,156,1,threeone,,,,,,,,,,,,,,,,,,,,,,,,,,,,,,,,,,,,,,,,,,,,,,,,,,,,,,,,,,,,,,,,,,,,,,,,,,,,,,,,,,,,,,,,,,,,,,,,,,,,,,,,,,,,,,,,,,,,,,,,,,,,,,,,,,,,,,,,,,,,,,,,,,,,,,,,
,,,,,,61632bd53a9234c3d53d4d3e,62bbfb2190e1cf83174d9127,2022-06-29_09h21.26.866,Colour_Asymmetry_Pilot,2022.1.3,Win32,60.13952369,62bbe60bf3d75ef465d3e404,0,82,82,58,1,twoone,,,,,,,,,,,,,,,,,,,,,,,,,,,,,,,,,,,,,,,,,,,,,,,,,,,,,,,,,,,,,,,,,,,,,,,,,,,,,,,,,,,,,,,,,,,,,,,,,,,,,,,,,,,,,,,,,,,,,,,,,,,,,,,,,,,,,,,,,,,,,,,,,,,,,,,,
,,,,,,61632bd53a9234c3d53d4d3e,62bbfb2190e1cf83174d9127,2022-06-29_09h21.26.866,Colour_Asymmetry_Pilot,2022.1.3,Win32,60.13952369,62bbe60bf3d75ef465d3e404,0,83,83,126,1,fourtwo,,,,,,,,,,,,,,,,,,,,,,,,,,,,,,,,,,,,,,,,,,,,,,,,,,,,,,,,,,,,,,,,,,,,,,,,,,,,,,,,,,,,,,,,,,,,,,,,,,,,,,,,,,,,,,,,,,,,,,,,,,,,,,,,,,,,,,,,,,,,,,,,,,,,,,,,
,,,,,,61632bd53a9234c3d53d4d3e,62bbfb2190e1cf83174d9127,2022-06-29_09h21.26.866,Colour_Asymmetry_Pilot,2022.1.3,Win32,60.13952369,62bbe60bf3d75ef465d3e404,0,84,84,118,1,fourtwo,,,,,,,,,,,,,,,,,,,,,,,,,,,,,,,,,,,,,,,,,,,,,,,,,,,,,,,,,,,,,,,,,,,,,,,,,,,,,,,,,,,,,,,,,,,,,,,,,,,,,,,,,,,,,,,,,,,,,,,,,,,,,,,,,,,,,,,,,,,,,,,,,,,,,,,,
,,,,,,61632bd53a9234c3d53d4d3e,62bbfb2190e1cf83174d9127,2022-06-29_09h21.26.866,Colour_Asymmetry_Pilot,2022.1.3,Win32,60.13952369,62bbe60bf3d75ef465d3e404,0,85,85,107,1,twofour,,,,,,,,,,,,,,,,,,,,,,,,,,,,,,,,,,,,,,,,,,,,,,,,,,,,,,,,,,,,,,,,,,,,,,,,,,,,,,,,,,,,,,,,,,,,,,,,,,,,,,,,,,,,,,,,,,,,,,,,,,,,,,,,,,,,,,,,,,,,,,,,,,,,,,,,
,,,,,,61632bd53a9234c3d53d4d3e,62bbfb2190e1cf83174d9127,2022-06-29_09h21.26.866,Colour_Asymmetry_Pilot,2022.1.3,Win32,60.13952369,62bbe60bf3d75ef465d3e404,0,86,86,59,1,twofour,,,,,,,,,,,,,,,,,,,,,,,,,,,,,,,,,,,,,,,,,,,,,,,,,,,,,,,,,,,,,,,,,,,,,,,,,,,,,,,,,,,,,,,,,,,,,,,,,,,,,,,,,,,,,,,,,,,,,,,,,,,,,,,,,,,,,,,,,,,,,,,,,,,,,,,,
,,,,,,61632bd53a9234c3d53d4d3e,62bbfb2190e1cf83174d9127,2022-06-29_09h21.26.866,Colour_Asymmetry_Pilot,2022.1.3,Win32,60.13952369,62bbe60bf3d75ef465d3e404,0,87,87,40,1,onetwo,,,,,,,,,,,,,,,,,,,,,,,,,,,,,,,,,,,,,,,,,,,,,,,,,,,,,,,,,,,,,,,,,,,,,,,,,,,,,,,,,,,,,,,,,,,,,,,,,,,,,,,,,,,,,,,,,,,,,,,,,,,,,,,,,,,,,,,,,,,,,,,,,,,,,,,,
,,,,,,61632bd53a9234c3d53d4d3e,62bbfb2190e1cf83174d9127,2022-06-29_09h21.26.866,Colour_Asymmetry_Pilot,2022.1.3,Win32,60.13952369,62bbe60bf3d75ef465d3e404,0,88,88,19,1,twofour,,,,,,,,,,,,,,,,,,,,,,,,,,,,,,,,,,,,,,,,,,,,,,,,,,,,,,,,,,,,,,,,,,,,,,,,,,,,,,,,,,,,,,,,,,,,,,,,,,,,,,,,,,,,,,,,,,,,,,,,,,,,,,,,,,,,,,,,,,,,,,,,,,,,,,,,
,,,,,,61632bd53a9234c3d53d4d3e,62bbfb2190e1cf83174d9127,2022-06-29_09h21.26.866,Colour_Asymmetry_Pilot,2022.1.3,Win32,60.13952369,62bbe60bf3d75ef465d3e404,0,89,89,102,1,fourtwo,,,,,,,,,,,,,,,,,,,,,,,,,,,,,,,,,,,,,,,,,,,,,,,,,,,,,,,,,,,,,,,,,,,,,,,,,,,,,,,,,,,,,,,,,,,,,,,,,,,,,,,,,,,,,,,,,,,,,,,,,,,,,,,,,,,,,,,,,,,,,,,,,,,,,,,,
,,,,,,61632bd53a9234c3d53d4d3e,62bbfb2190e1cf83174d9127,2022-06-29_09h21.26.866,Colour_Asymmetry_Pilot,2022.1.3,Win32,60.13952369,62bbe60bf3d75ef465d3e404,0,90,90,61,1,threefour,,,,,,,,,,,,,,,,,,,,,,,,,,,,,,,,,,,,,,,,,,,,,,,,,,,,,,,,,,,,,,,,,,,,,,,,,,,,,,,,,,,,,,,,,,,,,,,,,,,,,,,,,,,,,,,,,,,,,,,,,,,,,,,,,,,,,,,,,,,,,,,,,,,,,,,,
,,,,,,61632bd53a9234c3d53d4d3e,62bbfb2190e1cf83174d9127,2022-06-29_09h21.26.866,Colour_Asymmetry_Pilot,2022.1.3,Win32,60.13952369,62bbe60bf3d75ef465d3e404,0,91,91,67,1,twofour,,,,,,,,,,,,,,,,,,,,,,,,,,,,,,,,,,,,,,,,,,,,,,,,,,,,,,,,,,,,,,,,,,,,,,,,,,,,,,,,,,,,,,,,,,,,,,,,,,,,,,,,,,,,,,,,,,,,,,,,,,,,,,,,,,,,,,,,,,,,,,,,,,,,,,,,
,,,,,,61632bd53a9234c3d53d4d3e,62bbfb2190e1cf83174d9127,2022-06-29_09h21.26.866,Colour_Asymmetry_Pilot,2022.1.3,Win32,60.13952369,62bbe60bf3d75ef465d3e404,0,92,92,12,1,threeone,,,,,,,,,,,,,,,,,,,,,,,,,,,,,,,,,,,,,,,,,,,,,,,,,,,,,,,,,,,,,,,,,,,,,,,,,,,,,,,,,,,,,,,,,,,,,,,,,,,,,,,,,,,,,,,,,,,,,,,,,,,,,,,,,,,,,,,,,,,,,,,,,,,,,,,,
,,,,,,61632bd53a9234c3d53d4d3e,62bbfb2190e1cf83174d9127,2022-06-29_09h21.26.866,Colour_Asymmetry_Pilot,2022.1.3,Win32,60.13952369,62bbe60bf3d75ef465d3e404,0,93,93,69,1,threefour,,,,,,,,,,,,,,,,,,,,,,,,,,,,,,,,,,,,,,,,,,,,,,,,,,,,,,,,,,,,,,,,,,,,,,,,,,,,,,,,,,,,,,,,,,,,,,,,,,,,,,,,,,,,,,,,,,,,,,,,,,,,,,,,,,,,,,,,,,,,,,,,,,,,,,,,
,,,,,,61632bd53a9234c3d53d4d3e,62bbfb2190e1cf83174d9127,2022-06-29_09h21.26.866,Colour_Asymmetry_Pilot,2022.1.3,Win32,60.13952369,62bbe60bf3d75ef465d3e404,0,94,94,45,1,threefour,,,,,,,,,,,,,,,,,,,,,,,,,,,,,,,,,,,,,,,,,,,,,,,,,,,,,,,,,,,,,,,,,,,,,,,,,,,,,,,,,,,,,,,,,,,,,,,,,,,,,,,,,,,,,,,,,,,,,,,,,,,,,,,,,,,,,,,,,,,,,,,,,,,,,,,,
,,,,,,61632bd53a9234c3d53d4d3e,62bbfb2190e1cf83174d9127,2022-06-29_09h21.26.866,Colour_Asymmetry_Pilot,2022.1.3,Win32,60.13952369,62bbe60bf3d75ef465d3e404,0,95,95,112,1,onetwo,,,,,,,,,,,,,,,,,,,,,,,,,,,,,,,,,,,,,,,,,,,,,,,,,,,,,,,,,,,,,,,,,,,,,,,,,,,,,,,,,,,,,,,,,,,,,,,,,,,,,,,,,,,,,,,,,,,,,,,,,,,,,,,,,,,,,,,,,,,,,,,,,,,,,,,,
,,,,,,61632bd53a9234c3d53d4d3e,62bbfb2190e1cf83174d9127,2022-06-29_09h21.26.866,Colour_Asymmetry_Pilot,2022.1.3,Win32,60.13952369,62bbe60bf3d75ef465d3e404,0,96,96,3,1,twofour,,,,,,,,,,,,,,,,,,,,,,,,,,,,,,,,,,,,,,,,,,,,,,,,,,,,,,,,,,,,,,,,,,,,,,,,,,,,,,,,,,,,,,,,,,,,,,,,,,,,,,,,,,,,,,,,,,,,,,,,,,,,,,,,,,,,,,,,,,,,,,,,,,,,,,,,
,,,,,,61632bd53a9234c3d53d4d3e,62bbfb2190e1cf83174d9127,2022-06-29_09h21.26.866,Colour_Asymmetry_Pilot,2022.1.3,Win32,60.13952369,62bbe60bf3d75ef465d3e404,0,97,97,94,1,fourtwo,,,,,,,,,,,,,,,,,,,,,,,,,,,,,,,,,,,,,,,,,,,,,,,,,,,,,,,,,,,,,,,,,,,,,,,,,,,,,,,,,,,,,,,,,,,,,,,,,,,,,,,,,,,,,,,,,,,,,,,,,,,,,,,,,,,,,,,,,,,,,,,,,,,,,,,,
,,,,,,61632bd53a9234c3d53d4d3e,62bbfb2190e1cf83174d9127,2022-06-29_09h21.26.866,Colour_Asymmetry_Pilot,2022.1.3,Win32,60.13952369,62bbe60bf3d75ef465d3e404,0,98,98,14,1,fourtwo,,,,,,,,,,,,,,,,,,,,,,,,,,,,,,,,,,,,,,,,,,,,,,,,,,,,,,,,,,,,,,,,,,,,,,,,,,,,,,,,,,,,,,,,,,,,,,,,,,,,,,,,,,,,,,,,,,,,,,,,,,,,,,,,,,,,,,,,,,,,,,,,,,,,,,,,
,,,,,,61632bd53a9234c3d53d4d3e,62bbfb2190e1cf83174d9127,2022-06-29_09h21.26.866,Colour_Asymmetry_Pilot,2022.1.3,Win32,60.13952369,62bbe60bf3d75ef465d3e404,0,99,99,103,1,fourthree,,,,,,,,,,,,,,,,,,,,,,,,,,,,,,,,,,,,,,,,,,,,,,,,,,,,,,,,,,,,,,,,,,,,,,,,,,,,,,,,,,,,,,,,,,,,,,,,,,,,,,,,,,,,,,,,,,,,,,,,,,,,,,,,,,,,,,,,,,,,,,,,,,,,,,,,
,,,,,,61632bd53a9234c3d53d4d3e,62bbfb2190e1cf83174d9127,2022-06-29_09h21.26.866,Colour_Asymmetry_Pilot,2022.1.3,Win32,60.13952369,62bbe60bf3d75ef465d3e404,0,100,100,2,1,twoone,,,,,,,,,,,,,,,,,,,,,,,,,,,,,,,,,,,,,,,,,,,,,,,,,,,,,,,,,,,,,,,,,,,,,,,,,,,,,,,,,,,,,,,,,,,,,,,,,,,,,,,,,,,,,,,,,,,,,,,,,,,,,,,,,,,,,,,,,,,,,,,,,,,,,,,,
,,,,,,61632bd53a9234c3d53d4d3e,62bbfb2190e1cf83174d9127,2022-06-29_09h21.26.866,Colour_Asymmetry_Pilot,2022.1.3,Win32,60.13952369,62bbe60bf3d75ef465d3e404,0,101,101,9,1,onethree,,,,,,,,,,,,,,,,,,,,,,,,,,,,,,,,,,,,,,,,,,,,,,,,,,,,,,,,,,,,,,,,,,,,,,,,,,,,,,,,,,,,,,,,,,,,,,,,,,,,,,,,,,,,,,,,,,,,,,,,,,,,,,,,,,,,,,,,,,,,,,,,,,,,,,,,
,,,,,,61632bd53a9234c3d53d4d3e,62bbfb2190e1cf83174d9127,2022-06-29_09h21.26.866,Colour_Asymmetry_Pilot,2022.1.3,Win32,60.13952369,62bbe60bf3d75ef465d3e404,0,102,102,101,1,threefour,,,,,,,,,,,,,,,,,,,,,,,,,,,,,,,,,,,,,,,,,,,,,,,,,,,,,,,,,,,,,,,,,,,,,,,,,,,,,,,,,,,,,,,,,,,,,,,,,,,,,,,,,,,,,,,,,,,,,,,,,,,,,,,,,,,,,,,,,,,,,,,,,,,,,,,,
,,,,,,61632bd53a9234c3d53d4d3e,62bbfb2190e1cf83174d9127,2022-06-29_09h21.26.866,Colour_Asymmetry_Pilot,2022.1.3,Win32,60.13952369,62bbe60bf3d75ef465d3e404,0,103,103,115,1,twofour,,,,,,,,,,,,,,,,,,,,,,,,,,,,,,,,,,,,,,,,,,,,,,,,,,,,,,,,,,,,,,,,,,,,,,,,,,,,,,,,,,,,,,,,,,,,,,,,,,,,,,,,,,,,,,,,,,,,,,,,,,,,,,,,,,,,,,,,,,,,,,,,,,,,,,,,
,,,,,,61632bd53a9234c3d53d4d3e,62bbfb2190e1cf83174d9127,2022-06-29_09h21.26.866,Colour_Asymmetry_Pilot,2022.1.3,Win32,60.13952369,62bbe60bf3d75ef465d3e404,0,104,104,55,1,fourthree,,,,,,,,,,,,,,,,,,,,,,,,,,,,,,,,,,,,,,,,,,,,,,,,,,,,,,,,,,,,,,,,,,,,,,,,,,,,,,,,,,,,,,,,,,,,,,,,,,,,,,,,,,,,,,,,,,,,,,,,,,,,,,,,,,,,,,,,,,,,,,,,,,,,,,,,
,,,,,,61632bd53a9234c3d53d4d3e,62bbfb2190e1cf83174d9127,2022-06-29_09h21.26.866,Colour_Asymmetry_Pilot,2022.1.3,Win32,60.13952369,62bbe60bf3d75ef465d3e404,0,105,105,111,1,fourthree,,,,,,,,,,,,,,,,,,,,,,,,,,,,,,,,,,,,,,,,,,,,,,,,,,,,,,,,,,,,,,,,,,,,,,,,,,,,,,,,,,,,,,,,,,,,,,,,,,,,,,,,,,,,,,,,,,,,,,,,,,,,,,,,,,,,,,,,,,,,,,,,,,,,,,,,
,,,,,,61632bd53a9234c3d53d4d3e,62bbfb2190e1cf83174d9127,2022-06-29_09h21.26.866,Colour_Asymmetry_Pilot,2022.1.3,Win32,60.13952369,62bbe60bf3d75ef465d3e404,0,106,106,56,1,onetwo,,,,,,,,,,,,,,,,,,,,,,,,,,,,,,,,,,,,,,,,,,,,,,,,,,,,,,,,,,,,,,,,,,,,,,,,,,,,,,,,,,,,,,,,,,,,,,,,,,,,,,,,,,,,,,,,,,,,,,,,,,,,,,,,,,,,,,,,,,,,,,,,,,,,,,,,
,,,,,,61632bd53a9234c3d53d4d3e,62bbfb2190e1cf83174d9127,2022-06-29_09h21.26.866,Colour_Asymmetry_Pilot,2022.1.3,Win32,60.13952369,62bbe60bf3d75ef465d3e404,0,107,107,47,1,fourthree,,,,,,,,,,,,,,,,,,,,,,,,,,,,,,,,,,,,,,,,,,,,,,,,,,,,,,,,,,,,,,,,,,,,,,,,,,,,,,,,,,,,,,,,,,,,,,,,,,,,,,,,,,,,,,,,,,,,,,,,,,,,,,,,,,,,,,,,,,,,,,,,,,,,,,,,
,,,,,,61632bd53a9234c3d53d4d3e,62bbfb2190e1cf83174d9127,2022-06-29_09h21.26.866,Colour_Asymmetry_Pilot,2022.1.3,Win32,60.13952369,62bbe60bf3d75ef465d3e404,0,108,108,146,1,twoone,,,,,,,,,,,,,,,,,,,,,,,,,,,,,,,,,,,,,,,,,,,,,,,,,,,,,,,,,,,,,,,,,,,,,,,,,,,,,,,,,,,,,,,,,,,,,,,,,,,,,,,,,,,,,,,,,,,,,,,,,,,,,,,,,,,,,,,,,,,,,,,,,,,,,,,,
,,,,,,61632bd53a9234c3d53d4d3e,62bbfb2190e1cf83174d9127,2022-06-29_09h21.26.866,Colour_Asymmetry_Pilot,2022.1.3,Win32,60.13952369,62bbe60bf3d75ef465d3e404,0,109,109,73,1,onethree,,,,,,,,,,,,,,,,,,,,,,,,,,,,,,,,,,,,,,,,,,,,,,,,,,,,,,,,,,,,,,,,,,,,,,,,,,,,,,,,,,,,,,,,,,,,,,,,,,,,,,,,,,,,,,,,,,,,,,,,,,,,,,,,,,,,,,,,,,,,,,,,,,,,,,,,
,,,,,,61632bd53a9234c3d53d4d3e,62bbfb2190e1cf83174d9127,2022-06-29_09h21.26.866,Colour_Asymmetry_Pilot,2022.1.3,Win32,60.13952369,62bbe60bf3d75ef465d3e404,0,110,110,149,1,threefour,,,,,,,,,,,,,,,,,,,,,,,,,,,,,,,,,,,,,,,,,,,,,,,,,,,,,,,,,,,,,,,,,,,,,,,,,,,,,,,,,,,,,,,,,,,,,,,,,,,,,,,,,,,,,,,,,,,,,,,,,,,,,,,,,,,,,,,,,,,,,,,,,,,,,,,,
,,,,,,61632bd53a9234c3d53d4d3e,62bbfb2190e1cf83174d9127,2022-06-29_09h21.26.866,Colour_Asymmetry_Pilot,2022.1.3,Win32,60.13952369,62bbe60bf3d75ef465d3e404,0,111,111,105,1,onethree,,,,,,,,,,,,,,,,,,,,,,,,,,,,,,,,,,,,,,,,,,,,,,,,,,,,,,,,,,,,,,,,,,,,,,,,,,,,,,,,,,,,,,,,,,,,,,,,,,,,,,,,,,,,,,,,,,,,,,,,,,,,,,,,,,,,,,,,,,,,,,,,,,,,,,,,
,,,,,,61632bd53a9234c3d53d4d3e,62bbfb2190e1cf83174d9127,2022-06-29_09h21.26.866,Colour_Asymmetry_Pilot,2022.1.3,Win32,60.13952369,62bbe60bf3d75ef465d3e404,0,112,112,6,1,fourtwo,,,,,,,,,,,,,,,,,,,,,,,,,,,,,,,,,,,,,,,,,,,,,,,,,,,,,,,,,,,,,,,,,,,,,,,,,,,,,,,,,,,,,,,,,,,,,,,,,,,,,,,,,,,,,,,,,,,,,,,,,,,,,,,,,,,,,,,,,,,,,,,,,,,,,,,,
,,,,,,61632bd53a9234c3d53d4d3e,62bbfb2190e1cf83174d9127,2022-06-29_09h21.26.866,Colour_Asymmetry_Pilot,2022.1.3,Win32,60.13952369,62bbe60bf3d75ef465d3e404,0,113,113,36,1,threeone,,,,,,,,,,,,,,,,,,,,,,,,,,,,,,,,,,,,,,,,,,,,,,,,,,,,,,,,,,,,,,,,,,,,,,,,,,,,,,,,,,,,,,,,,,,,,,,,,,,,,,,,,,,,,,,,,,,,,,,,,,,,,,,,,,,,,,,,,,,,,,,,,,,,,,,,
,,,,,,61632bd53a9234c3d53d4d3e,62bbfb2190e1cf83174d9127,2022-06-29_09h21.26.866,Colour_Asymmetry_Pilot,2022.1.3,Win32,60.13952369,62bbe60bf3d75ef465d3e404,0,114,114,11,1,twofour,,,,,,,,,,,,,,,,,,,,,,,,,,,,,,,,,,,,,,,,,,,,,,,,,,,,,,,,,,,,,,,,,,,,,,,,,,,,,,,,,,,,,,,,,,,,,,,,,,,,,,,,,,,,,,,,,,,,,,,,,,,,,,,,,,,,,,,,,,,,,,,,,,,,,,,,
,,,,,,61632bd53a9234c3d53d4d3e,62bbfb2190e1cf83174d9127,2022-06-29_09h21.26.866,Colour_Asymmetry_Pilot,2022.1.3,Win32,60.13952369,62bbe60bf3d75ef465d3e404,0,115,115,98,1,twoone,,,,,,,,,,,,,,,,,,,,,,,,,,,,,,,,,,,,,,,,,,,,,,,,,,,,,,,,,,,,,,,,,,,,,,,,,,,,,,,,,,,,,,,,,,,,,,,,,,,,,,,,,,,,,,,,,,,,,,,,,,,,,,,,,,,,,,,,,,,,,,,,,,,,,,,,
,,,,,,61632bd53a9234c3d53d4d3e,62bbfb2190e1cf83174d9127,2022-06-29_09h21.26.866,Colour_Asymmetry_Pilot,2022.1.3,Win32,60.13952369,62bbe60bf3d75ef465d3e404,0,116,116,57,1,onethree,,,,,,,,,,,,,,,,,,,,,,,,,,,,,,,,,,,,,,,,,,,,,,,,,,,,,,,,,,,,,,,,,,,,,,,,,,,,,,,,,,,,,,,,,,,,,,,,,,,,,,,,,,,,,,,,,,,,,,,,,,,,,,,,,,,,,,,,,,,,,,,,,,,,,,,,
,,,,,,61632bd53a9234c3d53d4d3e,62bbfb2190e1cf83174d9127,2022-06-29_09h21.26.866,Colour_Asymmetry_Pilot,2022.1.3,Win32,60.13952369,62bbe60bf3d75ef465d3e404,0,117,117,51,1,twofour,,,,,,,,,,,,,,,,,,,,,,,,,,,,,,,,,,,,,,,,,,,,,,,,,,,,,,,,,,,,,,,,,,,,,,,,,,,,,,,,,,,,,,,,,,,,,,,,,,,,,,,,,,,,,,,,,,,,,,,,,,,,,,,,,,,,,,,,,,,,,,,,,,,,,,,,
,,,,,,61632bd53a9234c3d53d4d3e,62bbfb2190e1cf83174d9127,2022-06-29_09h21.26.866,Colour_Asymmetry_Pilot,2022.1.3,Win32,60.13952369,62bbe60bf3d75ef465d3e404,0,118,118,4,1,threeone,,,,,,,,,,,,,,,,,,,,,,,,,,,,,,,,,,,,,,,,,,,,,,,,,,,,,,,,,,,,,,,,,,,,,,,,,,,,,,,,,,,,,,,,,,,,,,,,,,,,,,,,,,,,,,,,,,,,,,,,,,,,,,,,,,,,,,,,,,,,,,,,,,,,,,,,
,,,,,,61632bd53a9234c3d53d4d3e,62bbfb2190e1cf83174d9127,2022-06-29_09h21.26.866,Colour_Asymmetry_Pilot,2022.1.3,Win32,60.13952369,62bbe60bf3d75ef465d3e404,0,119,119,116,1,threeone,,,,,,,,,,,,,,,,,,,,,,,,,,,,,,,,,,,,,,,,,,,,,,,,,,,,,,,,,,,,,,,,,,,,,,,,,,,,,,,,,,,,,,,,,,,,,,,,,,,,,,,,,,,,,,,,,,,,,,,,,,,,,,,,,,,,,,,,,,,,,,,,,,,,,,,,
,,,,,,61632bd53a9234c3d53d4d3e,62bbfb2190e1cf83174d9127,2022-06-29_09h21.26.866,Colour_Asymmetry_Pilot,2022.1.3,Win32,60.13952369,62bbe60bf3d75ef465d3e404,0,120,120,20,1,threeone,,,,,,,,,,,,,,,,,,,,,,,,,,,,,,,,,,,,,,,,,,,,,,,,,,,,,,,,,,,,,,,,,,,,,,,,,,,,,,,,,,,,,,,,,,,,,,,,,,,,,,,,,,,,,,,,,,,,,,,,,,,,,,,,,,,,,,,,,,,,,,,,,,,,,,,,
,,,,,,61632bd53a9234c3d53d4d3e,62bbfb2190e1cf83174d9127,2022-06-29_09h21.26.866,Colour_Asymmetry_Pilot,2022.1.3,Win32,60.13952369,62bbe60bf3d75ef465d3e404,0,121,121,29,1,threefour,,,,,,,,,,,,,,,,,,,,,,,,,,,,,,,,,,,,,,,,,,,,,,,,,,,,,,,,,,,,,,,,,,,,,,,,,,,,,,,,,,,,,,,,,,,,,,,,,,,,,,,,,,,,,,,,,,,,,,,,,,,,,,,,,,,,,,,,,,,,,,,,,,,,,,,,
,,,,,,61632bd53a9234c3d53d4d3e,62bbfb2190e1cf83174d9127,2022-06-29_09h21.26.866,Colour_Asymmetry_Pilot,2022.1.3,Win32,60.13952369,62bbe60bf3d75ef465d3e404,0,122,122,43,1,twofour,,,,,,,,,,,,,,,,,,,,,,,,,,,,,,,,,,,,,,,,,,,,,,,,,,,,,,,,,,,,,,,,,,,,,,,,,,,,,,,,,,,,,,,,,,,,,,,,,,,,,,,,,,,,,,,,,,,,,,,,,,,,,,,,,,,,,,,,,,,,,,,,,,,,,,,,
,,,,,,61632bd53a9234c3d53d4d3e,62bbfb2190e1cf83174d9127,2022-06-29_09h21.26.866,Colour_Asymmetry_Pilot,2022.1.3,Win32,60.13952369,62bbe60bf3d75ef465d3e404,0,123,123,133,1,threefour,,,,,,,,,,,,,,,,,,,,,,,,,,,,,,,,,,,,,,,,,,,,,,,,,,,,,,,,,,,,,,,,,,,,,,,,,,,,,,,,,,,,,,,,,,,,,,,,,,,,,,,,,,,,,,,,,,,,,,,,,,,,,,,,,,,,,,,,,,,,,,,,,,,,,,,,
,,,,,,61632bd53a9234c3d53d4d3e,62bbfb2190e1cf83174d9127,2022-06-29_09h21.26.866,Colour_Asymmetry_Pilot,2022.1.3,Win32,60.13952369,62bbe60bf3d75ef465d3e404,0,124,124,86,1,fourtwo,,,,,,,,,,,,,,,,,,,,,,,,,,,,,,,,,,,,,,,,,,,,,,,,,,,,,,,,,,,,,,,,,,,,,,,,,,,,,,,,,,,,,,,,,,,,,,,,,,,,,,,,,,,,,,,,,,,,,,,,,,,,,,,,,,,,,,,,,,,,,,,,,,,,,,,,
,,,,,,61632bd53a9234c3d53d4d3e,62bbfb2190e1cf83174d9127,2022-06-29_09h21.26.866,Colour_Asymmetry_Pilot,2022.1.3,Win32,60.13952369,62bbe60bf3d75ef465d3e404,0,125,125,157,1,threefour,,,,,,,,,,,,,,,,,,,,,,,,,,,,,,,,,,,,,,,,,,,,,,,,,,,,,,,,,,,,,,,,,,,,,,,,,,,,,,,,,,,,,,,,,,,,,,,,,,,,,,,,,,,,,,,,,,,,,,,,,,,,,,,,,,,,,,,,,,,,,,,,,,,,,,,,
,,,,,,61632bd53a9234c3d53d4d3e,62bbfb2190e1cf83174d9127,2022-06-29_09h21.26.866,Colour_Asymmetry_Pilot,2022.1.3,Win32,60.13952369,62bbe60bf3d75ef465d3e404,0,126,126,84,1,threeone,,,,,,,,,,,,,,,,,,,,,,,,,,,,,,,,,,,,,,,,,,,,,,,,,,,,,,,,,,,,,,,,,,,,,,,,,,,,,,,,,,,,,,,,,,,,,,,,,,,,,,,,,,,,,,,,,,,,,,,,,,,,,,,,,,,,,,,,,,,,,,,,,,,,,,,,
,,,,,,61632bd53a9234c3d53d4d3e,62bbfb2190e1cf83174d9127,2022-06-29_09h21.26.866,Colour_Asymmetry_Pilot,2022.1.3,Win32,60.13952369,62bbe60bf3d75ef465d3e404,0,127,127,152,1,onetwo,,,,,,,,,,,,,,,,,,,,,,,,,,,,,,,,,,,,,,,,,,,,,,,,,,,,,,,,,,,,,,,,,,,,,,,,,,,,,,,,,,,,,,,,,,,,,,,,,,,,,,,,,,,,,,,,,,,,,,,,,,,,,,,,,,,,,,,,,,,,,,,,,,,,,,,,
,,,,,,61632bd53a9234c3d53d4d3e,62bbfb2190e1cf83174d9127,2022-06-29_09h21.26.866,Colour_Asymmetry_Pilot,2022.1.3,Win32,60.13952369,62bbe60bf3d75ef465d3e404,0,128,128,1,1,onethree,,,,,,,,,,,,,,,,,,,,,,,,,,,,,,,,,,,,,,,,,,,,,,,,,,,,,,,,,,,,,,,,,,,,,,,,,,,,,,,,,,,,,,,,,,,,,,,,,,,,,,,,,,,,,,,,,,,,,,,,,,,,,,,,,,,,,,,,,,,,,,,,,,,,,,,,
,,,,,,61632bd53a9234c3d53d4d3e,62bbfb2190e1cf83174d9127,2022-06-29_09h21.26.866,Colour_Asymmetry_Pilot,2022.1.3,Win32,60.13952369,62bbe60bf3d75ef465d3e404,0,129,129,52,1,threeone,,,,,,,,,,,,,,,,,,,,,,,,,,,,,,,,,,,,,,,,,,,,,,,,,,,,,,,,,,,,,,,,,,,,,,,,,,,,,,,,,,,,,,,,,,,,,,,,,,,,,,,,,,,,,,,,,,,,,,,,,,,,,,,,,,,,,,,,,,,,,,,,,,,,,,,,
,,,,,,61632bd53a9234c3d53d4d3e,62bbfb2190e1cf83174d9127,2022-06-29_09h21.26.866,Colour_Asymmetry_Pilot,2022.1.3,Win32,60.13952369,62bbe60bf3d75ef465d3e404,0,130,130,108,1,threeone,,,,,,,,,,,,,,,,,,,,,,,,,,,,,,,,,,,,,,,,,,,,,,,,,,,,,,,,,,,,,,,,,,,,,,,,,,,,,,,,,,,,,,,,,,,,,,,,,,,,,,,,,,,,,,,,,,,,,,,,,,,,,,,,,,,,,,,,,,,,,,,,,,,,,,,,
,,,,,,61632bd53a9234c3d53d4d3e,62bbfb2190e1cf83174d9127,2022-06-29_09h21.26.866,Colour_Asymmetry_Pilot,2022.1.3,Win32,60.13952369,62bbe60bf3d75ef465d3e404,0,131,131,42,1,twoone,,,,,,,,,,,,,,,,,,,,,,,,,,,,,,,,,,,,,,,,,,,,,,,,,,,,,,,,,,,,,,,,,,,,,,,,,,,,,,,,,,,,,,,,,,,,,,,,,,,,,,,,,,,,,,,,,,,,,,,,,,,,,,,,,,,,,,,,,,,,,,,,,,,,,,,,
,,,,,,61632bd53a9234c3d53d4d3e,62bbfb2190e1cf83174d9127,2022-06-29_09h21.26.866,Colour_Asymmetry_Pilot,2022.1.3,Win32,60.13952369,62bbe60bf3d75ef465d3e404,0,132,132,135,1,fourthree,,,,,,,,,,,,,,,,,,,,,,,,,,,,,,,,,,,,,,,,,,,,,,,,,,,,,,,,,,,,,,,,,,,,,,,,,,,,,,,,,,,,,,,,,,,,,,,,,,,,,,,,,,,,,,,,,,,,,,,,,,,,,,,,,,,,,,,,,,,,,,,,,,,,,,,,
,,,,,,61632bd53a9234c3d53d4d3e,62bbfb2190e1cf83174d9127,2022-06-29_09h21.26.866,Colour_Asymmetry_Pilot,2022.1.3,Win32,60.13952369,62bbe60bf3d75ef465d3e404,0,133,133,39,1,fourthree,,,,,,,,,,,,,,,,,,,,,,,,,,,,,,,,,,,,,,,,,,,,,,,,,,,,,,,,,,,,,,,,,,,,,,,,,,,,,,,,,,,,,,,,,,,,,,,,,,,,,,,,,,,,,,,,,,,,,,,,,,,,,,,,,,,,,,,,,,,,,,,,,,,,,,,,
,,,,,,61632bd53a9234c3d53d4d3e,62bbfb2190e1cf83174d9127,2022-06-29_09h21.26.866,Colour_Asymmetry_Pilot,2022.1.3,Win32,60.13952369,62bbe60bf3d75ef465d3e404,0,134,134,132,1,threeone,,,,,,,,,,,,,,,,,,,,,,,,,,,,,,,,,,,,,,,,,,,,,,,,,,,,,,,,,,,,,,,,,,,,,,,,,,,,,,,,,,,,,,,,,,,,,,,,,,,,,,,,,,,,,,,,,,,,,,,,,,,,,,,,,,,,,,,,,,,,,,,,,,,,,,,,
,,,,,,61632bd53a9234c3d53d4d3e,62bbfb2190e1cf83174d9127,2022-06-29_09h21.26.866,Colour_Asymmetry_Pilot,2022.1.3,Win32,60.13952369,62bbe60bf3d75ef465d3e404,0,135,135,62,1,fourtwo,,,,,,,,,,,,,,,,,,,,,,,,,,,,,,,,,,,,,,,,,,,,,,,,,,,,,,,,,,,,,,,,,,,,,,,,,,,,,,,,,,,,,,,,,,,,,,,,,,,,,,,,,,,,,,,,,,,,,,,,,,,,,,,,,,,,,,,,,,,,,,,,,,,,,,,,
,,,,,,61632bd53a9234c3d53d4d3e,62bbfb2190e1cf83174d9127,2022-06-29_09h21.26.866,Colour_Asymmetry_Pilot,2022.1.3,Win32,60.13952369,62bbe60bf3d75ef465d3e404,0,136,136,37,1,threefour,,,,,,,,,,,,,,,,,,,,,,,,,,,,,,,,,,,,,,,,,,,,,,,,,,,,,,,,,,,,,,,,,,,,,,,,,,,,,,,,,,,,,,,,,,,,,,,,,,,,,,,,,,,,,,,,,,,,,,,,,,,,,,,,,,,,,,,,,,,,,,,,,,,,,,,,
,,,,,,61632bd53a9234c3d53d4d3e,62bbfb2190e1cf83174d9127,2022-06-29_09h21.26.866,Colour_Asymmetry_Pilot,2022.1.3,Win32,60.13952369,62bbe60bf3d75ef465d3e404,0,137,137,121,1,onethree,,,,,,,,,,,,,,,,,,,,,,,,,,,,,,,,,,,,,,,,,,,,,,,,,,,,,,,,,,,,,,,,,,,,,,,,,,,,,,,,,,,,,,,,,,,,,,,,,,,,,,,,,,,,,,,,,,,,,,,,,,,,,,,,,,,,,,,,,,,,,,,,,,,,,,,,
,,,,,,61632bd53a9234c3d53d4d3e,62bbfb2190e1cf83174d9127,2022-06-29_09h21.26.866,Colour_Asymmetry_Pilot,2022.1.3,Win32,60.13952369,62bbe60bf3d75ef465d3e404,0,138,138,145,1,onethree,,,,,,,,,,,,,,,,,,,,,,,,,,,,,,,,,,,,,,,,,,,,,,,,,,,,,,,,,,,,,,,,,,,,,,,,,,,,,,,,,,,,,,,,,,,,,,,,,,,,,,,,,,,,,,,,,,,,,,,,,,,,,,,,,,,,,,,,,,,,,,,,,,,,,,,,
,,,,,,61632bd53a9234c3d53d4d3e,62bbfb2190e1cf83174d9127,2022-06-29_09h21.26.866,Colour_Asymmetry_Pilot,2022.1.3,Win32,60.13952369,62bbe60bf3d75ef465d3e404,0,139,139,160,1,onetwo,,,,,,,,,,,,,,,,,,,,,,,,,,,,,,,,,,,,,,,,,,,,,,,,,,,,,,,,,,,,,,,,,,,,,,,,,,,,,,,,,,,,,,,,,,,,,,,,,,,,,,,,,,,,,,,,,,,,,,,,,,,,,,,,,,,,,,,,,,,,,,,,,,,,,,,,
,,,,,,61632bd53a9234c3d53d4d3e,62bbfb2190e1cf83174d9127,2022-06-29_09h21.26.866,Colour_Asymmetry_Pilot,2022.1.3,Win32,60.13952369,62bbe60bf3d75ef465d3e404,0,140,140,89,1,onethree,,,,,,,,,,,,,,,,,,,,,,,,,,,,,,,,,,,,,,,,,,,,,,,,,,,,,,,,,,,,,,,,,,,,,,,,,,,,,,,,,,,,,,,,,,,,,,,,,,,,,,,,,,,,,,,,,,,,,,,,,,,,,,,,,,,,,,,,,,,,,,,,,,,,,,,,
,,,,,,61632bd53a9234c3d53d4d3e,62bbfb2190e1cf83174d9127,2022-06-29_09h21.26.866,Colour_Asymmetry_Pilot,2022.1.3,Win32,60.13952369,62bbe60bf3d75ef465d3e404,0,141,141,143,1,fourthree,,,,,,,,,,,,,,,,,,,,,,,,,,,,,,,,,,,,,,,,,,,,,,,,,,,,,,,,,,,,,,,,,,,,,,,,,,,,,,,,,,,,,,,,,,,,,,,,,,,,,,,,,,,,,,,,,,,,,,,,,,,,,,,,,,,,,,,,,,,,,,,,,,,,,,,,
,,,,,,61632bd53a9234c3d53d4d3e,62bbfb2190e1cf83174d9127,2022-06-29_09h21.26.866,Colour_Asymmetry_Pilot,2022.1.3,Win32,60.13952369,62bbe60bf3d75ef465d3e404,0,142,142,117,1,threefour,,,,,,,,,,,,,,,,,,,,,,,,,,,,,,,,,,,,,,,,,,,,,,,,,,,,,,,,,,,,,,,,,,,,,,,,,,,,,,,,,,,,,,,,,,,,,,,,,,,,,,,,,,,,,,,,,,,,,,,,,,,,,,,,,,,,,,,,,,,,,,,,,,,,,,,,
,,,,,,61632bd53a9234c3d53d4d3e,62bbfb2190e1cf83174d9127,2022-06-29_09h21.26.866,Colour_Asymmetry_Pilot,2022.1.3,Win32,60.13952369,62bbe60bf3d75ef465d3e404,0,143,143,140,1,threeone,,,,,,,,,,,,,,,,,,,,,,,,,,,,,,,,,,,,,,,,,,,,,,,,,,,,,,,,,,,,,,,,,,,,,,,,,,,,,,,,,,,,,,,,,,,,,,,,,,,,,,,,,,,,,,,,,,,,,,,,,,,,,,,,,,,,,,,,,,,,,,,,,,,,,,,,
,,,,,,61632bd53a9234c3d53d4d3e,62bbfb2190e1cf83174d9127,2022-06-29_09h21.26.866,Colour_Asymmetry_Pilot,2022.1.3,Win32,60.13952369,62bbe60bf3d75ef465d3e404,0,144,144,68,1,threeone,,,,,,,,,,,,,,,,,,,,,,,,,,,,,,,,,,,,,,,,,,,,,,,,,,,,,,,,,,,,,,,,,,,,,,,,,,,,,,,,,,,,,,,,,,,,,,,,,,,,,,,,,,,,,,,,,,,,,,,,,,,,,,,,,,,,,,,,,,,,,,,,,,,,,,,,
,,,,,,61632bd53a9234c3d53d4d3e,62bbfb2190e1cf83174d9127,2022-06-29_09h21.26.866,Colour_Asymmetry_Pilot,2022.1.3,Win32,60.13952369,62bbe60bf3d75ef465d3e404,0,145,145,41,1,onethree,,,,,,,,,,,,,,,,,,,,,,,,,,,,,,,,,,,,,,,,,,,,,,,,,,,,,,,,,,,,,,,,,,,,,,,,,,,,,,,,,,,,,,,,,,,,,,,,,,,,,,,,,,,,,,,,,,,,,,,,,,,,,,,,,,,,,,,,,,,,,,,,,,,,,,,,
,,,,,,61632bd53a9234c3d53d4d3e,62bbfb2190e1cf83174d9127,2022-06-29_09h21.26.866,Colour_Asymmetry_Pilot,2022.1.3,Win32,60.13952369,62bbe60bf3d75ef465d3e404,0,146,146,142,1,fourtwo,,,,,,,,,,,,,,,,,,,,,,,,,,,,,,,,,,,,,,,,,,,,,,,,,,,,,,,,,,,,,,,,,,,,,,,,,,,,,,,,,,,,,,,,,,,,,,,,,,,,,,,,,,,,,,,,,,,,,,,,,,,,,,,,,,,,,,,,,,,,,,,,,,,,,,,,
,,,,,,61632bd53a9234c3d53d4d3e,62bbfb2190e1cf83174d9127,2022-06-29_09h21.26.866,Colour_Asymmetry_Pilot,2022.1.3,Win32,60.13952369,62bbe60bf3d75ef465d3e404,0,147,147,71,1,fourthree,,,,,,,,,,,,,,,,,,,,,,,,,,,,,,,,,,,,,,,,,,,,,,,,,,,,,,,,,,,,,,,,,,,,,,,,,,,,,,,,,,,,,,,,,,,,,,,,,,,,,,,,,,,,,,,,,,,,,,,,,,,,,,,,,,,,,,,,,,,,,,,,,,,,,,,,
,,,,,,61632bd53a9234c3d53d4d3e,62bbfb2190e1cf83174d9127,2022-06-29_09h21.26.866,Colour_Asymmetry_Pilot,2022.1.3,Win32,60.13952369,62bbe60bf3d75ef465d3e404,0,148,148,16,1,onetwo,,,,,,,,,,,,,,,,,,,,,,,,,,,,,,,,,,,,,,,,,,,,,,,,,,,,,,,,,,,,,,,,,,,,,,,,,,,,,,,,,,,,,,,,,,,,,,,,,,,,,,,,,,,,,,,,,,,,,,,,,,,,,,,,,,,,,,,,,,,,,,,,,,,,,,,,
,,,,,,61632bd53a9234c3d53d4d3e,62bbfb2190e1cf83174d9127,2022-06-29_09h21.26.866,Colour_Asymmetry_Pilot,2022.1.3,Win32,60.13952369,62bbe60bf3d75ef465d3e404,0,149,149,87,1,fourthree,,,,,,,,,,,,,,,,,,,,,,,,,,,,,,,,,,,,,,,,,,,,,,,,,,,,,,,,,,,,,,,,,,,,,,,,,,,,,,,,,,,,,,,,,,,,,,,,,,,,,,,,,,,,,,,,,,,,,,,,,,,,,,,,,,,,,,,,,,,,,,,,,,,,,,,,
,,,,,,61632bd53a9234c3d53d4d3e,62bbfb2190e1cf83174d9127,2022-06-29_09h21.26.866,Colour_Asymmetry_Pilot,2022.1.3,Win32,60.13952369,62bbe60bf3d75ef465d3e404,0,150,150,141,1,threefour,,,,,,,,,,,,,,,,,,,,,,,,,,,,,,,,,,,,,,,,,,,,,,,,,,,,,,,,,,,,,,,,,,,,,,,,,,,,,,,,,,,,,,,,,,,,,,,,,,,,,,,,,,,,,,,,,,,,,,,,,,,,,,,,,,,,,,,,,,,,,,,,,,,,,,,,
,,,,,,61632bd53a9234c3d53d4d3e,62bbfb2190e1cf83174d9127,2022-06-29_09h21.26.866,Colour_Asymmetry_Pilot,2022.1.3,Win32,60.13952369,62bbe60bf3d75ef465d3e404,0,151,151,78,1,fourtwo,,,,,,,,,,,,,,,,,,,,,,,,,,,,,,,,,,,,,,,,,,,,,,,,,,,,,,,,,,,,,,,,,,,,,,,,,,,,,,,,,,,,,,,,,,,,,,,,,,,,,,,,,,,,,,,,,,,,,,,,,,,,,,,,,,,,,,,,,,,,,,,,,,,,,,,,
,,,,,,61632bd53a9234c3d53d4d3e,62bbfb2190e1cf83174d9127,2022-06-29_09h21.26.866,Colour_Asymmetry_Pilot,2022.1.3,Win32,60.13952369,62bbe60bf3d75ef465d3e404,0,152,152,80,1,onetwo,,,,,,,,,,,,,,,,,,,,,,,,,,,,,,,,,,,,,,,,,,,,,,,,,,,,,,,,,,,,,,,,,,,,,,,,,,,,,,,,,,,,,,,,,,,,,,,,,,,,,,,,,,,,,,,,,,,,,,,,,,,,,,,,,,,,,,,,,,,,,,,,,,,,,,,,
,,,,,,61632bd53a9234c3d53d4d3e,62bbfb2190e1cf83174d9127,2022-06-29_09h21.26.866,Colour_Asymmetry_Pilot,2022.1.3,Win32,60.13952369,62bbe60bf3d75ef465d3e404,0,153,153,85,1,threefour,,,,,,,,,,,,,,,,,,,,,,,,,,,,,,,,,,,,,,,,,,,,,,,,,,,,,,,,,,,,,,,,,,,,,,,,,,,,,,,,,,,,,,,,,,,,,,,,,,,,,,,,,,,,,,,,,,,,,,,,,,,,,,,,,,,,,,,,,,,,,,,,,,,,,,,,
,,,,,,61632bd53a9234c3d53d4d3e,62bbfb2190e1cf83174d9127,2022-06-29_09h21.26.866,Colour_Asymmetry_Pilot,2022.1.3,Win32,60.13952369,62bbe60bf3d75ef465d3e404,0,154,154,83,1,twofour,,,,,,,,,,,,,,,,,,,,,,,,,,,,,,,,,,,,,,,,,,,,,,,,,,,,,,,,,,,,,,,,,,,,,,,,,,,,,,,,,,,,,,,,,,,,,,,,,,,,,,,,,,,,,,,,,,,,,,,,,,,,,,,,,,,,,,,,,,,,,,,,,,,,,,,,
,,,,,,61632bd53a9234c3d53d4d3e,62bbfb2190e1cf83174d9127,2022-06-29_09h21.26.866,Colour_Asymmetry_Pilot,2022.1.3,Win32,60.13952369,62bbe60bf3d75ef465d3e404,0,155,155,70,1,fourtwo,,,,,,,,,,,,,,,,,,,,,,,,,,,,,,,,,,,,,,,,,,,,,,,,,,,,,,,,,,,,,,,,,,,,,,,,,,,,,,,,,,,,,,,,,,,,,,,,,,,,,,,,,,,,,,,,,,,,,,,,,,,,,,,,,,,,,,,,,,,,,,,,,,,,,,,,
,,,,,,61632bd53a9234c3d53d4d3e,62bbfb2190e1cf83174d9127,2022-06-29_09h21.26.866,Colour_Asymmetry_Pilot,2022.1.3,Win32,60.13952369,62bbe60bf3d75ef465d3e404,0,156,156,127,1,fourthree,,,,,,,,,,,,,,,,,,,,,,,,,,,,,,,,,,,,,,,,,,,,,,,,,,,,,,,,,,,,,,,,,,,,,,,,,,,,,,,,,,,,,,,,,,,,,,,,,,,,,,,,,,,,,,,,,,,,,,,,,,,,,,,,,,,,,,,,,,,,,,,,,,,,,,,,
,,,,,,61632bd53a9234c3d53d4d3e,62bbfb2190e1cf83174d9127,2022-06-29_09h21.26.866,Colour_Asymmetry_Pilot,2022.1.3,Win32,60.13952369,62bbe60bf3d75ef465d3e404,0,157,157,76,1,threeone,,,,,,,,,,,,,,,,,,,,,,,,,,,,,,,,,,,,,,,,,,,,,,,,,,,,,,,,,,,,,,,,,,,,,,,,,,,,,,,,,,,,,,,,,,,,,,,,,,,,,,,,,,,,,,,,,,,,,,,,,,,,,,,,,,,,,,,,,,,,,,,,,,,,,,,,
,,,,,,61632bd53a9234c3d53d4d3e,62bbfb2190e1cf83174d9127,2022-06-29_09h21.26.866,Colour_Asymmetry_Pilot,2022.1.3,Win32,60.13952369,62bbe60bf3d75ef465d3e404,0,158,158,21,1,threefour,,,,,,,,,,,,,,,,,,,,,,,,,,,,,,,,,,,,,,,,,,,,,,,,,,,,,,,,,,,,,,,,,,,,,,,,,,,,,,,,,,,,,,,,,,,,,,,,,,,,,,,,,,,,,,,,,,,,,,,,,,,,,,,,,,,,,,,,,,,,,,,,,,,,,,,,
,,,,,,61632bd53a9234c3d53d4d3e,62bbfb2190e1cf83174d9127,2022-06-29_09h21.26.866,Colour_Asymmetry_Pilot,2022.1.3,Win32,60.13952369,62bbe60bf3d75ef465d3e404,0,159,159,50,1,twoone,,,,,,,,,,,,,,,,,,,,,,,,,,,,,,,,,,,,,,,,,,,,,,,,,,,,,,,,,,,,,,,,,,,,,,,,,,,,,,,,,,,,,,,,,,,,,,,,,,,,,,,,,,,,,,,,,,,,,,,,,,,,,,,,,,,,,,,,,,,,,,,,,,,,,,,,
,,,,,,61632bd53a9234c3d53d4d3e,62bbfb2190e1cf83174d9127,2022-06-29_09h21.26.866,Colour_Asymmetry_Pilot,2022.1.3,Win32,60.13952369,62bbe60bf3d75ef465d3e404,0,160,160,28,1,threeone,,,,,,,,,,,,,,,,,,,,,,,,,,,,,,,,,,,,,,,,,,,,,,,,,,,,,,,,,,,,,,,,,,,,,,,,,,,,,,,,,,,,,,,,,,,,,,,,,,,,,,,,,,,,,,,,,,,,,,,,,,,,,,,,,,,,,,,,,,,,,,,,,,,,,,,,
,,,,,,61632bd53a9234c3d53d4d3e,62bbfb2190e1cf83174d9127,2022-06-29_09h21.26.866,Colour_Asymmetry_Pilot,2022.1.3,Win32,60.13952369,62bbe60bf3d75ef465d3e404,0,161,161,88,1,onetwo,,,,,,,,,,,,,,,,,,,,,,,,,,,,,,,,,,,,,,,,,,,,,,,,,,,,,,,,,,,,,,,,,,,,,,,,,,,,,,,,,,,,,,,,,,,,,,,,,,,,,,,,,,,,,,,,,,,,,,,,,,,,,,,,,,,,,,,,,,,,,,,,,,,,,,,,
,,,,,,61632bd53a9234c3d53d4d3e,62bbfb2190e1cf83174d9127,2022-06-29_09h21.26.866,Colour_Asymmetry_Pilot,2022.1.3,Win32,60.13952369,62bbe60bf3d75ef465d3e404,,,,,,,space,5.4289,space,27.7177,space,46.1634,space,18.1848,space,3.5936,space,5.5738,"[-0.8118,-0.8198,-0.5452]",onetwo,"[0.12939999999999996,-0.2864,0.3253999999999999]",1,83.5275,45,-49,1,0,0,response3disk_5,4,2,1,0,0,rectangle_8,4,2,1,0,0,2,4,2,1,0,0,0,0,0,0,1,,,,,,,,,,,,,,,,,,,,,,,,,,,,,,,,,,,,,,,,,,,,,,,,,,,,,,,,,,,,,,,,,,,,,,,,,,,,,,,,,,,,,,,,,,,,,,,,,,,,,,,,,,,
,,,,,,61632bd53a9234c3d53d4d3e,62bbfb2190e1cf83174d9127,2022-06-29_09h21.26.866,Colour_Asymmetry_Pilot,2022.1.3,Win32,60.13952369,62bbe60bf3d75ef465d3e404,,,,,,,,,,,,,,,,,,,"[-0.10599999999999998,-0.15300000000000002,0.15280000000000005]",threeone,"[-0.6235999999999999,-0.6786,-0.08239999999999992]",-1,5.7854,-46,-88,1,0,0,response5disk_5,3,0,1,0,0,rectangle_8,3,0,1,0,0,2,3,0,1,0,0,1,0,1,0,1,,,,,,,,,,,,,,,,,,,,,,,,,,,,,,,,,,,,,,,,,,,,,,,,,,,,,,,,,,,,,,,,,,,,,,,,,,,,,,,,,,,,,,,,,,,,,,,,,,,,,,,,,,,
,,,,,,61632bd53a9234c3d53d4d3e,62bbfb2190e1cf83174d9127,2022-06-29_09h21.26.866,Colour_Asymmetry_Pilot,2022.1.3,Win32,60.13952369,62bbe60bf3d75ef465d3e404,,,,,,,,,,,,,,,,,,,"[0.9763999999999999,0.30979999999999985,-0.6786]",twofour,"[-0.01980000000000004,-0.5138,-0.38039999999999996]",-4,3.6493,-44,86,1,0,0,response7disk_5,6,0,1,0,0,rectangle_8,87,-38,1,0,0,2,-6,5,1,0,0,2,0,2,0,1,response3disk_7,5,rectangle_4,,,,,,,,,,,,,,,,,,,,,,,,,,,,,,,,,,,,,,,,,,,,,,,,,,,,,,,,,,,,,,,,,,,,,,,,,,,,,,,,,,,,,,,,,,,,,,,,,,,,,,,,
,,,,,,61632bd53a9234c3d53d4d3e,62bbfb2190e1cf83174d9127,2022-06-29_09h21.26.866,Colour_Asymmetry_Pilot,2022.1.3,Win32,60.13952369,62bbe60bf3d75ef465d3e404,,,,,,,,,,,,,,,,,,,"[-0.9688,-0.38039999999999996,-0.41979999999999995]",onetwo,"[-0.20799999999999996,-0.655,-0.01980000000000004]",-2,3.8009,-74,-26,1,0,0,response5disk_5,-8,6,1,0,0,rectangle_8,-8,6,1,0,0,2,-8,6,1,0,0,3,0,3,0,1,,,,,,,,,,,,,,,,,,,,,,,,,,,,,,,,,,,,,,,,,,,,,,,,,,,,,,,,,,,,,,,,,,,,,,,,,,,,,,,,,,,,,,,,,,,,,,,,,,,,,,,,,,,
,,,,,,61632bd53a9234c3d53d4d3e,62bbfb2190e1cf83174d9127,2022-06-29_09h21.26.866,Colour_Asymmetry_Pilot,2022.1.3,Win32,60.13952369,62bbe60bf3d75ef465d3e404,,,,,,,,,,,,,,,,,,,"[0.3568,-0.20799999999999996,-0.9844]",twoone,"[-0.6706000000000001,-0.6157999999999999,-0.6786]",-4,1.8179,-40,72,1,0,0,response7disk_5,2,5,1,0,0,rectangle_8,2,5,1,0,0,2,2,5,1,0,0,4,0,4,0,1,,,,,,,,,,,,,,,,,,,,,,,,,,,,,,,,,,,,,,,,,,,,,,,,,,,,,,,,,,,,,,,,,,,,,,,,,,,,,,,,,,,,,,,,,,,,,,,,,,,,,,,,,,,
,,,,,,61632bd53a9234c3d53d4d3e,62bbfb2190e1cf83174d9127,2022-06-29_09h21.26.866,Colour_Asymmetry_Pilot,2022.1.3,Win32,60.13952369,62bbe60bf3d75ef465d3e404,,,,,,,,,,,,,,,,,,,"[0.7018,0.7176,0.6155999999999999]",fourtwo,"[0.09799999999999986,-0.24719999999999998,0.15280000000000005]",-2,2.8892,-96,-64,1,0,0,response5disk_5,3,6,1,0,0,rectangle_8,3,6,1,0,0,2,3,6,1,0,0,5,0,5,0,1,,,,,,,,,,,,,,,,,,,,,,,,,,,,,,,,,,,,,,,,,,,,,,,,,,,,,,,,,,,,,,,,,,,,,,,,,,,,,,,,,,,,,,,,,,,,,,,,,,,,,,,,,,,
,,,,,,61632bd53a9234c3d53d4d3e,62bbfb2190e1cf83174d9127,2022-06-29_09h21.26.866,Colour_Asymmetry_Pilot,2022.1.3,Win32,60.13952369,62bbe60bf3d75ef465d3e404,,,,,,,,,,,,,,,,,,,"[0.9842,0.7409999999999999,-0.6628000000000001]",fourthree,"[0.12939999999999996,-0.2864,0.3253999999999999]",-2,2.9007,-95,-38,1,0,0,response5disk_5,5,5,1,0,0,rectangle_8,5,5,1,0,0,2,5,5,1,0,0,6,0,6,0,1,,,,,,,,,,,,,,,,,,,,,,,,,,,,,,,,,,,,,,,,,,,,,,,,,,,,,,,,,,,,,,,,,,,,,,,,,,,,,,,,,,,,,,,,,,,,,,,,,,,,,,,,,,,
,,,,,,61632bd53a9234c3d53d4d3e,62bbfb2190e1cf83174d9127,2022-06-29_09h21.26.866,Colour_Asymmetry_Pilot,2022.1.3,Win32,60.13952369,62bbe60bf3d75ef465d3e404,,,,,,,,,,,,,,,,,,,,fourtwo,,-1,2.6018,,,,,,,,,,,,,,,,,,,,,,,,,,,,,,,,space,6.8818,"[-0.30200000000000005,0.14500000000000002,0.2784]","[-0.5688,-0.08239999999999992,-0.1844]",-31,-97,1,0,0,response5disk,4,3,1,0,0,rectangle,4,3,1,0,0,,3,0.0075,0,4,3,1,0,0,0,0,0,45,1,45,first,,,,,,,,,,,,,,,,,,,,,,,,,,,,,,,,,,,,,,,,,,,,,,,,,,,,,,,,,,,,,,,,,,,
,,,,,,61632bd53a9234c3d53d4d3e,62bbfb2190e1cf83174d9127,2022-06-29_09h21.26.866,Colour_Asymmetry_Pilot,2022.1.3,Win32,60.13952369,62bbe60bf3d75ef465d3e404,,,,,,,,,,,,,,,,,,,,onetwo,,-1,2.8748,,,,,,,,,,,,,,,,,,,,,,,,,,,,,,,,,,"[-0.8982,-0.37259999999999993,0.2784]","[-0.26280000000000003,-0.4746,-0.2158]",-34,-91,1,0,0,response5disk,2,-3,1,0,0,rectangle,2,-3,1,0,0,,2,0.0036,0,2,-3,1,0,0,0,1,1,54,1,54,first,,,,,,,,,,,,,,,,,,,,,,,,,,,,,,,,,,,,,,,,,,,,,,,,,,,,,,,,,,,,,,,,,,,
,,,,,,61632bd53a9234c3d53d4d3e,62bbfb2190e1cf83174d9127,2022-06-29_09h21.26.866,Colour_Asymmetry_Pilot,2022.1.3,Win32,60.13952369,62bbe60bf3d75ef465d3e404,,,,,,,,,,,,,,,,,,,,twoone,,-4,2.1671,,,,,,,,,,,,,,,,,,,,,,,,,,,,,,,,,,"[-0.011800000000000033,-0.906,-0.45100000000000007]","[-0.2942,-0.24719999999999998,-0.357]",-30,93,1,0,0,response7disk,5,9,1,0,0,rectangle,5,9,1,0,0,,3,0.0017,0,5,9,1,0,0,0,2,2,21,1,21,first,,,,,,,,,,,,,,,,,,,,,,,,,,,,,,,,,,,,,,,,,,,,,,,,,,,,,,,,,,,,,,,,,,,
,,,,,,61632bd53a9234c3d53d4d3e,62bbfb2190e1cf83174d9127,2022-06-29_09h21.26.866,Colour_Asymmetry_Pilot,2022.1.3,Win32,60.13952369,62bbe60bf3d75ef465d3e404,,,,,,,,,,,,,,,,,,,,twoone,,3,5.2854,,,,,,,,,,,,,,,,,,,,,,,,,,,,,,,,,,"[0.22340000000000004,-0.9296,-0.7884]","[0.8274000000000001,-0.5844,-0.9452]",95,45,1,0,0,response1disk,2,-3,1,0,0,rectangle,2,-3,1,0,0,,2,0.0028,0,2,-3,1,0,0,0,3,3,152,1,71,second,,,,,,,,,,,,,,,,,,,,,,,,,,,,,,,,,,,,,,,,,,,,,,,,,,,,,,,,,,,,,,,,,,,
,,,,,,61632bd53a9234c3d53d4d3e,62bbfb2190e1cf83174d9127,2022-06-29_09h21.26.866,Colour_Asymmetry_Pilot,2022.1.3,Win32,60.13952369,62bbe60bf3d75ef465d3e404,,,,,,,,,,,,,,,,,,,,twoone,,1,2.2674,,,,,,,,,,,,,,,,,,,,,,,,,,,,,,,,,,"[-0.26280000000000003,-0.4746,-0.2158]","[-0.8982,-0.37259999999999993,0.2784]",44,-78,1,0,0,response3disk,3,4,1,0,0,rectangle,3,4,1,0,0,,1,0.0032,0,3,4,1,0,0,0,4,4,135,1,54,second,,,,,,,,,,,,,,,,,,,,,,,,,,,,,,,,,,,,,,,,,,,,,,,,,,,,,,,,,,,,,,,,,,,
,,,,,,61632bd53a9234c3d53d4d3e,62bbfb2190e1cf83174d9127,2022-06-29_09h21.26.866,Colour_Asymmetry_Pilot,2022.1.3,Win32,60.13952369,62bbe60bf3d75ef465d3e404,,,,,,,,,,,,,,,,,,,,onetwo,,1,5.4507,,,,,,,,,,,,,,,,,,,,,,,,,,,,,,,,,,"[-0.050999999999999934,-0.6706000000000001,-0.804]","[-0.34920000000000007,-0.702,-0.5216]",56,-91,1,0,0,response3disk,-10,-1,1,0,0,rectangle,-10,-1,1,0,0,,3,0.0031,0,-10,-1,1,0,0,0,5,5,156,1,75,second,,,,,,,,,,,,,,,,,,,,,,,,,,,,,,,,,,,,,,,,,,,,,,,,,,,,,,,,,,,,,,,,,,,
,,,,,,61632bd53a9234c3d53d4d3e,62bbfb2190e1cf83174d9127,2022-06-29_09h21.26.866,Colour_Asymmetry_Pilot,2022.1.3,Win32,60.13952369,62bbe60bf3d75ef465d3e404,,,,,,,,,,,,,,,,,,,,fourtwo,,-1,2.0326,,,,,,,,,,,,,,,,,,,,,,,,,,,,,,,,,,"[-0.10599999999999998,-0.15300000000000002,0.15280000000000005]","[0.23920000000000008,0.2704,0.16060000000000008]",-36,-88,1,0,0,response5disk,3,-7,1,0,0,rectangle,3,-7,1,0,0,,2,0.0114,0,3,-7,1,0,0,0,6,6,48,1,48,first,,,,,,,,,,,,,,,,,,,,,,,,,,,,,,,,,,,,,,,,,,,,,,,,,,,,,,,,,,,,,,,,,,,
,,,,,,61632bd53a9234c3d53d4d3e,62bbfb2190e1cf83174d9127,2022-06-29_09h21.26.866,Colour_Asymmetry_Pilot,2022.1.3,Win32,60.13952369,62bbe60bf3d75ef465d3e404,,,,,,,,,,,,,,,,,,,,fourtwo,,-3,1.9695,,,,,,,,,,,,,,,,,,,,,,,,,,,,,,,,,,"[-0.06680000000000008,-0.45100000000000007,-0.906]","[0.3881999999999999,-0.23939999999999995,-0.05040000000000011]",-85,36,1,0,0,response7disk,-9,-1,1,0,0,rectangle,-9,-1,1,0,0,,1,0.0029,0,-9,-1,1,0,0,0,7,7,109,1,28,second,,,,,,,,,,,,,,,,,,,,,,,,,,,,,,,,,,,,,,,,,,,,,,,,,,,,,,,,,,,,,,,,,,,
,,,,,,61632bd53a9234c3d53d4d3e,62bbfb2190e1cf83174d9127,2022-06-29_09h21.26.866,Colour_Asymmetry_Pilot,2022.1.3,Win32,60.13952369,62bbe60bf3d75ef465d3e404,,,,,,,,,,,,,,,,,,,,onethree,,-2,2.5007,,,,,,,,,,,,,,,,,,,,,,,,,,,,,,,,,,"[-0.5922000000000001,-0.7492000000000001,-0.5296000000000001]","[-0.01980000000000004,-0.5138,-0.38039999999999996]",-76,-20,1,0,0,response5disk,13,10,1,0,0,rectangle,13,10,1,0,0,,3,0.0031,0,13,10,1,0,0,0,8,8,142,1,61,second,,,,,,,,,,,,,,,,,,,,,,,,,,,,,,,,,,,,,,,,,,,,,,,,,,,,,,,,,,,,,,,,,,,
,,,,,,61632bd53a9234c3d53d4d3e,62bbfb2190e1cf83174d9127,2022-06-29_09h21.26.866,Colour_Asymmetry_Pilot,2022.1.3,Win32,60.13952369,62bbe60bf3d75ef465d3e404,,,,,,,,,,,,,,,,,,,,twofour,,-1,1.3838,,,,,,,,,,,,,,,,,,,,,,,,,,,,,,,,,,"[-0.01980000000000004,-0.5138,-0.38039999999999996]","[0.9372,0.20779999999999998,0.2704]",-61,-74,1,0,0,response5disk,-1,-4,1,0,0,rectangle,-1,-4,1,0,0,,2,0.0034,0,-1,-4,1,0,0,0,9,9,140,1,59,second,,,,,,,,,,,,,,,,,,,,,,,,,,,,,,,,,,,,,,,,,,,,,,,,,,,,,,,,,,,,,,,,,,,
,,,,,,61632bd53a9234c3d53d4d3e,62bbfb2190e1cf83174d9127,2022-06-29_09h21.26.866,Colour_Asymmetry_Pilot,2022.1.3,Win32,60.13952369,62bbe60bf3d75ef465d3e404,,,,,,,,,,,,,,,,,,,,fourtwo,,-2,0.7491,,,,,,,,,,,,,,,,,,,,,,,,,,,,,,,,,,"[0.9213999999999998,0.6391999999999998,-0.9922]","[-0.4746,-0.0354000000000001,0.5449999999999999]",-60,-37,1,0,0,response5disk,17,4,1,0,0,rectangle,17,4,1,0,0,,1,0.0031,0,17,4,1,0,0,0,10,10,111,1,30,second,,,,,,,,,,,,,,,,,,,,,,,,,,,,,,,,,,,,,,,,,,,,,,,,,,,,,,,,,,,,,,,,,,,
,,,,,,61632bd53a9234c3d53d4d3e,62bbfb2190e1cf83174d9127,2022-06-29_09h21.26.866,Colour_Asymmetry_Pilot,2022.1.3,Win32,60.13952369,62bbe60bf3d75ef465d3e404,,,,,,,,,,,,,,,,,,,,threeone,,-3,1.7004,,,,,,,,,,,,,,,,,,,,,,,,,,,,,,,,,,"[0.3568,-0.20799999999999996,-0.9844]","[0.11359999999999992,0.6312,0.5213999999999999]",-103,30,1,0,0,response7disk,-5,4,1,0,0,rectangle,-5,4,1,0,0,,3,0.0023,0,-5,4,1,0,0,0,11,11,110,1,29,second,,,,,,,,,,,,,,,,,,,,,,,,,,,,,,,,,,,,,,,,,,,,,,,,,,,,,,,,,,,,,,,,,,,
,,,,,,61632bd53a9234c3d53d4d3e,62bbfb2190e1cf83174d9127,2022-06-29_09h21.26.866,Colour_Asymmetry_Pilot,2022.1.3,Win32,60.13952369,62bbe60bf3d75ef465d3e404,,,,,,,,,,,,,,,,,,,,fourthree,,-4,0.7332,,,,,,,,,,,,,,,,,,,,,,,,,,,,,,,,,,"[-0.4982,-0.2942,-0.0354000000000001]","[-0.9844,-0.9688,-0.9922]",-40,72,1,0,0,response7disk,4,8,1,0,0,rectangle,4,8,1,0,0,,1,0.0024,0,4,8,1,0,0,0,12,12,5,1,5,first,,,,,,,,,,,,,,,,,,,,,,,,,,,,,,,,,,,,,,,,,,,,,,,,,,,,,,,,,,,,,,,,,,,
,,,,,,61632bd53a9234c3d53d4d3e,62bbfb2190e1cf83174d9127,2022-06-29_09h21.26.866,Colour_Asymmetry_Pilot,2022.1.3,Win32,60.13952369,62bbe60bf3d75ef465d3e404,,,,,,,,,,,,,,,,,,,,threefour,,-2,1.0673,,,,,,,,,,,,,,,,,,,,,,,,,,,,,,,,,,"[0.9372,0.9450000000000001,0.8980000000000001]","[-0.09019999999999995,0.44300000000000006,0.5371999999999999]",-78,-23,1,0,0,response5disk,11,13,1,0,0,rectangle,11,13,1,0,0,,2,0.003,0,11,13,1,0,0,0,13,13,53,1,53,first,,,,,,,,,,,,,,,,,,,,,,,,,,,,,,,,,,,,,,,,,,,,,,,,,,,,,,,,,,,,,,,,,,,
,,,,,,61632bd53a9234c3d53d4d3e,62bbfb2190e1cf83174d9127,2022-06-29_09h21.26.866,Colour_Asymmetry_Pilot,2022.1.3,Win32,60.13952369,62bbe60bf3d75ef465d3e404,,,,,,,,,,,,,,,,,,,,fourtwo,,-1,1.3501,,,,,,,,,,,,,,,,,,,,,,,,,,,,,,,,,,"[-0.4746,-0.0354000000000001,0.5449999999999999]","[-0.9138,-0.5296000000000001,-0.5529999999999999]",-49,-102,1,0,0,response5disk,-12,6,1,0,0,rectangle,-12,6,1,0,0,,1,0.0034,0,-12,6,1,0,0,0,14,14,106,1,25,second,,,,,,,,,,,,,,,,,,,,,,,,,,,,,,,,,,,,,,,,,,,,,,,,,,,,,,,,,,,,,,,,,,,
,,,,,,61632bd53a9234c3d53d4d3e,62bbfb2190e1cf83174d9127,2022-06-29_09h21.26.866,Colour_Asymmetry_Pilot,2022.1.3,Win32,60.13952369,62bbe60bf3d75ef465d3e404,,,,,,,,,,,,,,,,,,,,onethree,,1,0.8148,,,,,,,,,,,,,,,,,,,,,,,,,,,,,,,,,,"[0.34099999999999997,0.5841999999999998,-0.9844]","[-0.4902000000000001,0.2704,-0.45899999999999996]",30,-86,1,0,0,response3disk,-16,4,1,0,0,rectangle,-16,4,1,0,0,,3,0.0033,0,-16,4,1,0,0,0,15,15,158,1,77,second,,,,,,,,,,,,,,,,,,,,,,,,,,,,,,,,,,,,,,,,,,,,,,,,,,,,,,,,,,,,,,,,,,,
,,,,,,61632bd53a9234c3d53d4d3e,62bbfb2190e1cf83174d9127,2022-06-29_09h21.26.866,Colour_Asymmetry_Pilot,2022.1.3,Win32,60.13952369,62bbe60bf3d75ef465d3e404,,,,,,,,,,,,,,,,,,,,fourtwo,,-3,0.8673,,,,,,,,,,,,,,,,,,,,,,,,,,,,,,,,,,"[0.09799999999999986,-0.24719999999999998,0.15280000000000005]","[0.9842,0.7409999999999999,-0.6628000000000001]",-81,43,1,0,0,response7disk,-6,5,1,0,0,rectangle,-6,5,1,0,0,,2,0.0026,0,-6,5,1,0,0,0,16,16,145,1,64,second,,,,,,,,,,,,,,,,,,,,,,,,,,,,,,,,,,,,,,,,,,,,,,,,,,,,,,,,,,,,,,,,,,,
,,,,,,61632bd53a9234c3d53d4d3e,62bbfb2190e1cf83174d9127,2022-06-29_09h21.26.866,Colour_Asymmetry_Pilot,2022.1.3,Win32,60.13952369,62bbe60bf3d75ef465d3e404,,,,,,,,,,,,,,,,,,,,threefour,,-2,0.7004,,,,,,,,,,,,,,,,,,,,,,,,,,,,,,,,,,"[-0.01980000000000004,-0.5138,-0.38039999999999996]","[0.9763999999999999,-0.1137999999999999,-0.6314]",-100,-46,1,0,0,response5disk,23,8,1,0,0,rectangle,23,8,1,0,0,,3,0.0057,0,23,8,1,0,0,0,17,17,56,1,56,first,,,,,,,,,,,,,,,,,,,,,,,,,,,,,,,,,,,,,,,,,,,,,,,,,,,,,,,,,,,,,,,,,,,
,,,,,,61632bd53a9234c3d53d4d3e,62bbfb2190e1cf83174d9127,2022-06-29_09h21.26.866,Colour_Asymmetry_Pilot,2022.1.3,Win32,60.13952369,62bbe60bf3d75ef465d3e404,,,,,,,,,,,,,,,,,,,,threeone,,-1,1.6157,,,,,,,,,,,,,,,,,,,,,,,,,,,,,,,,,,"[0.7646000000000002,0.07440000000000002,0.2704]","[0.23920000000000008,0.2704,0.16060000000000008]",-48,-91,1,0,0,response5disk,-12,10,1,0,0,rectangle,-12,10,1,0,0,,2,0.0038,0,-12,10,1,0,0,0,18,18,125,1,44,second,,,,,,,,,,,,,,,,,,,,,,,,,,,,,,,,,,,,,,,,,,,,,,,,,,,,,,,,,,,,,,,,,,,
,,,,,,61632bd53a9234c3d53d4d3e,62bbfb2190e1cf83174d9127,2022-06-29_09h21.26.866,Colour_Asymmetry_Pilot,2022.1.3,Win32,60.13952369,62bbe60bf3d75ef465d3e404,,,,,,,,,,,,,,,,,,,,twofour,,-3,0.6837,,,,,,,,,,,,,,,,,,,,,,,,,,,,,,,,,,"[-0.8118,-0.8198,-0.5452]","[0.9372,0.9450000000000001,0.8980000000000001]",-100,52,1,0,0,response7disk,-1,-6,1,0,0,rectangle,-1,-6,1,0,0,,1,0.0025,0,-1,-6,1,0,0,0,19,19,82,1,1,second,,,,,,,,,,,,,,,,,,,,,,,,,,,,,,,,,,,,,,,,,,,,,,,,,,,,,,,,,,,,,,,,,,,
,,,,,,61632bd53a9234c3d53d4d3e,62bbfb2190e1cf83174d9127,2022-06-29_09h21.26.866,Colour_Asymmetry_Pilot,2022.1.3,Win32,60.13952369,62bbe60bf3d75ef465d3e404,,,,,,,,,,,,,,,,,,,,onetwo,,-4,0.6168,,,,,,,,,,,,,,,,,,,,,,,,,,,,,,,,,,"[-0.38039999999999996,-0.4276,-0.1452]","[-0.011800000000000033,-0.906,-0.45100000000000007]",-41,70,1,0,0,response7disk,9,1,1,0,0,rectangle,9,1,1,0,0,,3,0.0028,0,9,1,1,0,0,0,20,20,70,1,70,first,,,,,,,,,,,,,,,,,,,,,,,,,,,,,,,,,,,,,,,,,,,,,,,,,,,,,,,,,,,,,,,,,,,
