trials.thisRepN,trials.thisTrialN,trials.thisN,trials.thisIndex,trials.ran,Colourcodes,participant,session,date,expName,psychopyVersion,OS,frameRate,study_id,trials_4.thisRepN,trials_4.thisTrialN,trials_4.thisN,trials_4.thisIndex,trials_4.ran,StimulusPos,key_resp.keys,key_resp.rt,key_resp_2.keys,key_resp_2.rt,key_resp_15.keys,key_resp_15.rt,key_resp_17.keys,key_resp_17.rt,key_resp_9.keys,key_resp_9.rt,key_resp_10.keys,key_resp_10.rt,Circle1_col,Ecc,Circle2_col,similarity,response_time,mouse_5.x,mouse_5.y,mouse_5.leftButton,mouse_5.midButton,mouse_5.rightButton,mouse_5.clicked_name,mouse_10.x,mouse_10.y,mouse_10.leftButton,mouse_10.midButton,mouse_10.rightButton,mouse_10.clicked_name,mouse_7.x,mouse_7.y,mouse_7.leftButton,mouse_7.midButton,mouse_7.rightButton,mouse_7.clicked_name,catchprac,catchnumberprac,mouse_6.x,mouse_6.y,mouse_6.leftButton,mouse_6.midButton,mouse_6.rightButton,mouse_6.clicked_name,duringprac.thisRepN,duringprac.thisTrialN,duringprac.thisN,duringprac.thisIndex,duringprac.ran,key_resp_22.keys,key_resp_22.rt,Circle1_colour,Circle2_colour,mouse.x,mouse.y,mouse.leftButton,mouse.midButton,mouse.rightButton,mouse.clicked_name,mouse_2.x,mouse_2.y,mouse_2.leftButton,mouse_2.midButton,mouse_2.rightButton,mouse_2.clicked_name,mouse_3.x,mouse_3.y,mouse_3.leftButton,mouse_3.midButton,mouse_3.rightButton,catchresponse,catchnumber,response_time_catch,Catch,mouse_11.x,mouse_11.y,mouse_11.leftButton,mouse_11.midButton,mouse_11.rightButton,trials_2.thisRepN,trials_2.thisTrialN,trials_2.thisN,trials_2.thisIndex,trials_2.ran,Colourpair,Temporder,mouse_3.clicked_name,mouse_11.clicked_name,trials_3.thisRepN,trials_3.thisTrialN,trials_3.thisN,trials_3.thisIndex,trials_3.ran,key_resp_instr_Ishi.keys,key_resp_instr_Ishi.rt,Ishi_trial_keyresp.keys,Ishi_trial_keyresp.rt,Ishi_textbox.text,Ishi_loop.thisRepN,Ishi_loop.thisTrialN,Ishi_loop.thisN,Ishi_loop.thisIndex,Ishi_loop.ran,imageaddress,textbox.text,mouse_4.x,mouse_4.y,mouse_4.leftButton,mouse_4.midButton,mouse_4.rightButton,mouse_4.clicked_name,textbox_2.text,mouse_8.x,mouse_8.y,mouse_8.leftButton,mouse_8.midButton,mouse_8.rightButton,mouse_8.clicked_name,textbox_3.text,mouse_9.x,mouse_9.y,mouse_9.leftButton,mouse_9.midButton,mouse_9.rightButton,mouse_9.clicked_name,textbox_4.text,mouse_12.x,mouse_12.y,mouse_12.leftButton,mouse_12.midButton,mouse_12.rightButton,mouse_12.clicked_name,textbox_5.text,mouse_13.x,mouse_13.y,mouse_13.leftButton,mouse_13.midButton,mouse_13.rightButton,mouse_13.clicked_name,textbox_6.text,mouse_14.x,mouse_14.y,mouse_14.leftButton,mouse_14.midButton,mouse_14.rightButton,mouse_14.clicked_name,textbox_7.text,mouse_15.x,mouse_15.y,mouse_15.leftButton,mouse_15.midButton,mouse_15.rightButton,mouse_15.clicked_name
0,0,0,68,1,,5f7694edc99f3112b494e122,62bbfb34425d1ebfb8460d75,2022-06-29_16h12.27.006,Colour_Asymmetry_Pilot,2022.1.3,Win32,57.67012687,62bbe60bf3d75ef465d3e404,,,,,,,,,,,,,,,,,,,,,,,,,,,,,,,,,,,,,,,,,,,,,,,,,,,,,,,,,,,,,,,,,,,,,,,,,,,,,,,,,,,,,,,,,,,,,,,,,,,,,,,,,,,,,,,,,,,,,,,,,,,,,,,,,,,,,,,,,,,,,,,,,,,,,,,,,,,,,,
0,1,1,22,1,,5f7694edc99f3112b494e122,62bbfb34425d1ebfb8460d75,2022-06-29_16h12.27.006,Colour_Asymmetry_Pilot,2022.1.3,Win32,57.67012687,62bbe60bf3d75ef465d3e404,,,,,,,,,,,,,,,,,,,,,,,,,,,,,,,,,,,,,,,,,,,,,,,,,,,,,,,,,,,,,,,,,,,,,,,,,,,,,,,,,,,,,,,,,,,,,,,,,,,,,,,,,,,,,,,,,,,,,,,,,,,,,,,,,,,,,,,,,,,,,,,,,,,,,,,,,,,,,,
0,2,2,50,1,,5f7694edc99f3112b494e122,62bbfb34425d1ebfb8460d75,2022-06-29_16h12.27.006,Colour_Asymmetry_Pilot,2022.1.3,Win32,57.67012687,62bbe60bf3d75ef465d3e404,,,,,,,,,,,,,,,,,,,,,,,,,,,,,,,,,,,,,,,,,,,,,,,,,,,,,,,,,,,,,,,,,,,,,,,,,,,,,,,,,,,,,,,,,,,,,,,,,,,,,,,,,,,,,,,,,,,,,,,,,,,,,,,,,,,,,,,,,,,,,,,,,,,,,,,,,,,,,,
0,3,3,4,1,,5f7694edc99f3112b494e122,62bbfb34425d1ebfb8460d75,2022-06-29_16h12.27.006,Colour_Asymmetry_Pilot,2022.1.3,Win32,57.67012687,62bbe60bf3d75ef465d3e404,,,,,,,,,,,,,,,,,,,,,,,,,,,,,,,,,,,,,,,,,,,,,,,,,,,,,,,,,,,,,,,,,,,,,,,,,,,,,,,,,,,,,,,,,,,,,,,,,,,,,,,,,,,,,,,,,,,,,,,,,,,,,,,,,,,,,,,,,,,,,,,,,,,,,,,,,,,,,,
0,4,4,88,1,,5f7694edc99f3112b494e122,62bbfb34425d1ebfb8460d75,2022-06-29_16h12.27.006,Colour_Asymmetry_Pilot,2022.1.3,Win32,57.67012687,62bbe60bf3d75ef465d3e404,,,,,,,,,,,,,,,,,,,,,,,,,,,,,,,,,,,,,,,,,,,,,,,,,,,,,,,,,,,,,,,,,,,,,,,,,,,,,,,,,,,,,,,,,,,,,,,,,,,,,,,,,,,,,,,,,,,,,,,,,,,,,,,,,,,,,,,,,,,,,,,,,,,,,,,,,,,,,,
0,5,5,60,1,,5f7694edc99f3112b494e122,62bbfb34425d1ebfb8460d75,2022-06-29_16h12.27.006,Colour_Asymmetry_Pilot,2022.1.3,Win32,57.67012687,62bbe60bf3d75ef465d3e404,,,,,,,,,,,,,,,,,,,,,,,,,,,,,,,,,,,,,,,,,,,,,,,,,,,,,,,,,,,,,,,,,,,,,,,,,,,,,,,,,,,,,,,,,,,,,,,,,,,,,,,,,,,,,,,,,,,,,,,,,,,,,,,,,,,,,,,,,,,,,,,,,,,,,,,,,,,,,,
0,6,6,28,1,,5f7694edc99f3112b494e122,62bbfb34425d1ebfb8460d75,2022-06-29_16h12.27.006,Colour_Asymmetry_Pilot,2022.1.3,Win32,57.67012687,62bbe60bf3d75ef465d3e404,,,,,,,,,,,,,,,,,,,,,,,,,,,,,,,,,,,,,,,,,,,,,,,,,,,,,,,,,,,,,,,,,,,,,,,,,,,,,,,,,,,,,,,,,,,,,,,,,,,,,,,,,,,,,,,,,,,,,,,,,,,,,,,,,,,,,,,,,,,,,,,,,,,,,,,,,,,,,,
0,7,7,20,1,,5f7694edc99f3112b494e122,62bbfb34425d1ebfb8460d75,2022-06-29_16h12.27.006,Colour_Asymmetry_Pilot,2022.1.3,Win32,57.67012687,62bbe60bf3d75ef465d3e404,,,,,,,,,,,,,,,,,,,,,,,,,,,,,,,,,,,,,,,,,,,,,,,,,,,,,,,,,,,,,,,,,,,,,,,,,,,,,,,,,,,,,,,,,,,,,,,,,,,,,,,,,,,,,,,,,,,,,,,,,,,,,,,,,,,,,,,,,,,,,,,,,,,,,,,,,,,,,,
0,8,8,47,1,,5f7694edc99f3112b494e122,62bbfb34425d1ebfb8460d75,2022-06-29_16h12.27.006,Colour_Asymmetry_Pilot,2022.1.3,Win32,57.67012687,62bbe60bf3d75ef465d3e404,,,,,,,,,,,,,,,,,,,,,,,,,,,,,,,,,,,,,,,,,,,,,,,,,,,,,,,,,,,,,,,,,,,,,,,,,,,,,,,,,,,,,,,,,,,,,,,,,,,,,,,,,,,,,,,,,,,,,,,,,,,,,,,,,,,,,,,,,,,,,,,,,,,,,,,,,,,,,,
0,9,9,84,1,,5f7694edc99f3112b494e122,62bbfb34425d1ebfb8460d75,2022-06-29_16h12.27.006,Colour_Asymmetry_Pilot,2022.1.3,Win32,57.67012687,62bbe60bf3d75ef465d3e404,,,,,,,,,,,,,,,,,,,,,,,,,,,,,,,,,,,,,,,,,,,,,,,,,,,,,,,,,,,,,,,,,,,,,,,,,,,,,,,,,,,,,,,,,,,,,,,,,,,,,,,,,,,,,,,,,,,,,,,,,,,,,,,,,,,,,,,,,,,,,,,,,,,,,,,,,,,,,,
0,10,10,35,1,,5f7694edc99f3112b494e122,62bbfb34425d1ebfb8460d75,2022-06-29_16h12.27.006,Colour_Asymmetry_Pilot,2022.1.3,Win32,57.67012687,62bbe60bf3d75ef465d3e404,,,,,,,,,,,,,,,,,,,,,,,,,,,,,,,,,,,,,,,,,,,,,,,,,,,,,,,,,,,,,,,,,,,,,,,,,,,,,,,,,,,,,,,,,,,,,,,,,,,,,,,,,,,,,,,,,,,,,,,,,,,,,,,,,,,,,,,,,,,,,,,,,,,,,,,,,,,,,,
0,11,11,85,1,,5f7694edc99f3112b494e122,62bbfb34425d1ebfb8460d75,2022-06-29_16h12.27.006,Colour_Asymmetry_Pilot,2022.1.3,Win32,57.67012687,62bbe60bf3d75ef465d3e404,,,,,,,,,,,,,,,,,,,,,,,,,,,,,,,,,,,,,,,,,,,,,,,,,,,,,,,,,,,,,,,,,,,,,,,,,,,,,,,,,,,,,,,,,,,,,,,,,,,,,,,,,,,,,,,,,,,,,,,,,,,,,,,,,,,,,,,,,,,,,,,,,,,,,,,,,,,,,,
0,12,12,14,1,,5f7694edc99f3112b494e122,62bbfb34425d1ebfb8460d75,2022-06-29_16h12.27.006,Colour_Asymmetry_Pilot,2022.1.3,Win32,57.67012687,62bbe60bf3d75ef465d3e404,,,,,,,,,,,,,,,,,,,,,,,,,,,,,,,,,,,,,,,,,,,,,,,,,,,,,,,,,,,,,,,,,,,,,,,,,,,,,,,,,,,,,,,,,,,,,,,,,,,,,,,,,,,,,,,,,,,,,,,,,,,,,,,,,,,,,,,,,,,,,,,,,,,,,,,,,,,,,,
0,13,13,63,1,,5f7694edc99f3112b494e122,62bbfb34425d1ebfb8460d75,2022-06-29_16h12.27.006,Colour_Asymmetry_Pilot,2022.1.3,Win32,57.67012687,62bbe60bf3d75ef465d3e404,,,,,,,,,,,,,,,,,,,,,,,,,,,,,,,,,,,,,,,,,,,,,,,,,,,,,,,,,,,,,,,,,,,,,,,,,,,,,,,,,,,,,,,,,,,,,,,,,,,,,,,,,,,,,,,,,,,,,,,,,,,,,,,,,,,,,,,,,,,,,,,,,,,,,,,,,,,,,,
0,14,14,83,1,,5f7694edc99f3112b494e122,62bbfb34425d1ebfb8460d75,2022-06-29_16h12.27.006,Colour_Asymmetry_Pilot,2022.1.3,Win32,57.67012687,62bbe60bf3d75ef465d3e404,,,,,,,,,,,,,,,,,,,,,,,,,,,,,,,,,,,,,,,,,,,,,,,,,,,,,,,,,,,,,,,,,,,,,,,,,,,,,,,,,,,,,,,,,,,,,,,,,,,,,,,,,,,,,,,,,,,,,,,,,,,,,,,,,,,,,,,,,,,,,,,,,,,,,,,,,,,,,,
0,15,15,5,1,,5f7694edc99f3112b494e122,62bbfb34425d1ebfb8460d75,2022-06-29_16h12.27.006,Colour_Asymmetry_Pilot,2022.1.3,Win32,57.67012687,62bbe60bf3d75ef465d3e404,,,,,,,,,,,,,,,,,,,,,,,,,,,,,,,,,,,,,,,,,,,,,,,,,,,,,,,,,,,,,,,,,,,,,,,,,,,,,,,,,,,,,,,,,,,,,,,,,,,,,,,,,,,,,,,,,,,,,,,,,,,,,,,,,,,,,,,,,,,,,,,,,,,,,,,,,,,,,,
0,16,16,12,1,,5f7694edc99f3112b494e122,62bbfb34425d1ebfb8460d75,2022-06-29_16h12.27.006,Colour_Asymmetry_Pilot,2022.1.3,Win32,57.67012687,62bbe60bf3d75ef465d3e404,,,,,,,,,,,,,,,,,,,,,,,,,,,,,,,,,,,,,,,,,,,,,,,,,,,,,,,,,,,,,,,,,,,,,,,,,,,,,,,,,,,,,,,,,,,,,,,,,,,,,,,,,,,,,,,,,,,,,,,,,,,,,,,,,,,,,,,,,,,,,,,,,,,,,,,,,,,,,,
0,17,17,45,1,,5f7694edc99f3112b494e122,62bbfb34425d1ebfb8460d75,2022-06-29_16h12.27.006,Colour_Asymmetry_Pilot,2022.1.3,Win32,57.67012687,62bbe60bf3d75ef465d3e404,,,,,,,,,,,,,,,,,,,,,,,,,,,,,,,,,,,,,,,,,,,,,,,,,,,,,,,,,,,,,,,,,,,,,,,,,,,,,,,,,,,,,,,,,,,,,,,,,,,,,,,,,,,,,,,,,,,,,,,,,,,,,,,,,,,,,,,,,,,,,,,,,,,,,,,,,,,,,,
0,18,18,32,1,,5f7694edc99f3112b494e122,62bbfb34425d1ebfb8460d75,2022-06-29_16h12.27.006,Colour_Asymmetry_Pilot,2022.1.3,Win32,57.67012687,62bbe60bf3d75ef465d3e404,,,,,,,,,,,,,,,,,,,,,,,,,,,,,,,,,,,,,,,,,,,,,,,,,,,,,,,,,,,,,,,,,,,,,,,,,,,,,,,,,,,,,,,,,,,,,,,,,,,,,,,,,,,,,,,,,,,,,,,,,,,,,,,,,,,,,,,,,,,,,,,,,,,,,,,,,,,,,,
0,19,19,49,1,,5f7694edc99f3112b494e122,62bbfb34425d1ebfb8460d75,2022-06-29_16h12.27.006,Colour_Asymmetry_Pilot,2022.1.3,Win32,57.67012687,62bbe60bf3d75ef465d3e404,,,,,,,,,,,,,,,,,,,,,,,,,,,,,,,,,,,,,,,,,,,,,,,,,,,,,,,,,,,,,,,,,,,,,,,,,,,,,,,,,,,,,,,,,,,,,,,,,,,,,,,,,,,,,,,,,,,,,,,,,,,,,,,,,,,,,,,,,,,,,,,,,,,,,,,,,,,,,,
0,20,20,18,1,,5f7694edc99f3112b494e122,62bbfb34425d1ebfb8460d75,2022-06-29_16h12.27.006,Colour_Asymmetry_Pilot,2022.1.3,Win32,57.67012687,62bbe60bf3d75ef465d3e404,,,,,,,,,,,,,,,,,,,,,,,,,,,,,,,,,,,,,,,,,,,,,,,,,,,,,,,,,,,,,,,,,,,,,,,,,,,,,,,,,,,,,,,,,,,,,,,,,,,,,,,,,,,,,,,,,,,,,,,,,,,,,,,,,,,,,,,,,,,,,,,,,,,,,,,,,,,,,,
0,21,21,16,1,,5f7694edc99f3112b494e122,62bbfb34425d1ebfb8460d75,2022-06-29_16h12.27.006,Colour_Asymmetry_Pilot,2022.1.3,Win32,57.67012687,62bbe60bf3d75ef465d3e404,,,,,,,,,,,,,,,,,,,,,,,,,,,,,,,,,,,,,,,,,,,,,,,,,,,,,,,,,,,,,,,,,,,,,,,,,,,,,,,,,,,,,,,,,,,,,,,,,,,,,,,,,,,,,,,,,,,,,,,,,,,,,,,,,,,,,,,,,,,,,,,,,,,,,,,,,,,,,,
0,22,22,87,1,,5f7694edc99f3112b494e122,62bbfb34425d1ebfb8460d75,2022-06-29_16h12.27.006,Colour_Asymmetry_Pilot,2022.1.3,Win32,57.67012687,62bbe60bf3d75ef465d3e404,,,,,,,,,,,,,,,,,,,,,,,,,,,,,,,,,,,,,,,,,,,,,,,,,,,,,,,,,,,,,,,,,,,,,,,,,,,,,,,,,,,,,,,,,,,,,,,,,,,,,,,,,,,,,,,,,,,,,,,,,,,,,,,,,,,,,,,,,,,,,,,,,,,,,,,,,,,,,,
0,23,23,9,1,,5f7694edc99f3112b494e122,62bbfb34425d1ebfb8460d75,2022-06-29_16h12.27.006,Colour_Asymmetry_Pilot,2022.1.3,Win32,57.67012687,62bbe60bf3d75ef465d3e404,,,,,,,,,,,,,,,,,,,,,,,,,,,,,,,,,,,,,,,,,,,,,,,,,,,,,,,,,,,,,,,,,,,,,,,,,,,,,,,,,,,,,,,,,,,,,,,,,,,,,,,,,,,,,,,,,,,,,,,,,,,,,,,,,,,,,,,,,,,,,,,,,,,,,,,,,,,,,,
0,24,24,11,1,,5f7694edc99f3112b494e122,62bbfb34425d1ebfb8460d75,2022-06-29_16h12.27.006,Colour_Asymmetry_Pilot,2022.1.3,Win32,57.67012687,62bbe60bf3d75ef465d3e404,,,,,,,,,,,,,,,,,,,,,,,,,,,,,,,,,,,,,,,,,,,,,,,,,,,,,,,,,,,,,,,,,,,,,,,,,,,,,,,,,,,,,,,,,,,,,,,,,,,,,,,,,,,,,,,,,,,,,,,,,,,,,,,,,,,,,,,,,,,,,,,,,,,,,,,,,,,,,,
0,25,25,53,1,,5f7694edc99f3112b494e122,62bbfb34425d1ebfb8460d75,2022-06-29_16h12.27.006,Colour_Asymmetry_Pilot,2022.1.3,Win32,57.67012687,62bbe60bf3d75ef465d3e404,,,,,,,,,,,,,,,,,,,,,,,,,,,,,,,,,,,,,,,,,,,,,,,,,,,,,,,,,,,,,,,,,,,,,,,,,,,,,,,,,,,,,,,,,,,,,,,,,,,,,,,,,,,,,,,,,,,,,,,,,,,,,,,,,,,,,,,,,,,,,,,,,,,,,,,,,,,,,,
0,26,26,26,1,,5f7694edc99f3112b494e122,62bbfb34425d1ebfb8460d75,2022-06-29_16h12.27.006,Colour_Asymmetry_Pilot,2022.1.3,Win32,57.67012687,62bbe60bf3d75ef465d3e404,,,,,,,,,,,,,,,,,,,,,,,,,,,,,,,,,,,,,,,,,,,,,,,,,,,,,,,,,,,,,,,,,,,,,,,,,,,,,,,,,,,,,,,,,,,,,,,,,,,,,,,,,,,,,,,,,,,,,,,,,,,,,,,,,,,,,,,,,,,,,,,,,,,,,,,,,,,,,,
0,27,27,55,1,,5f7694edc99f3112b494e122,62bbfb34425d1ebfb8460d75,2022-06-29_16h12.27.006,Colour_Asymmetry_Pilot,2022.1.3,Win32,57.67012687,62bbe60bf3d75ef465d3e404,,,,,,,,,,,,,,,,,,,,,,,,,,,,,,,,,,,,,,,,,,,,,,,,,,,,,,,,,,,,,,,,,,,,,,,,,,,,,,,,,,,,,,,,,,,,,,,,,,,,,,,,,,,,,,,,,,,,,,,,,,,,,,,,,,,,,,,,,,,,,,,,,,,,,,,,,,,,,,
0,28,28,27,1,,5f7694edc99f3112b494e122,62bbfb34425d1ebfb8460d75,2022-06-29_16h12.27.006,Colour_Asymmetry_Pilot,2022.1.3,Win32,57.67012687,62bbe60bf3d75ef465d3e404,,,,,,,,,,,,,,,,,,,,,,,,,,,,,,,,,,,,,,,,,,,,,,,,,,,,,,,,,,,,,,,,,,,,,,,,,,,,,,,,,,,,,,,,,,,,,,,,,,,,,,,,,,,,,,,,,,,,,,,,,,,,,,,,,,,,,,,,,,,,,,,,,,,,,,,,,,,,,,
0,29,29,90,1,,5f7694edc99f3112b494e122,62bbfb34425d1ebfb8460d75,2022-06-29_16h12.27.006,Colour_Asymmetry_Pilot,2022.1.3,Win32,57.67012687,62bbe60bf3d75ef465d3e404,,,,,,,,,,,,,,,,,,,,,,,,,,,,,,,,,,,,,,,,,,,,,,,,,,,,,,,,,,,,,,,,,,,,,,,,,,,,,,,,,,,,,,,,,,,,,,,,,,,,,,,,,,,,,,,,,,,,,,,,,,,,,,,,,,,,,,,,,,,,,,,,,,,,,,,,,,,,,,
0,30,30,70,1,,5f7694edc99f3112b494e122,62bbfb34425d1ebfb8460d75,2022-06-29_16h12.27.006,Colour_Asymmetry_Pilot,2022.1.3,Win32,57.67012687,62bbe60bf3d75ef465d3e404,,,,,,,,,,,,,,,,,,,,,,,,,,,,,,,,,,,,,,,,,,,,,,,,,,,,,,,,,,,,,,,,,,,,,,,,,,,,,,,,,,,,,,,,,,,,,,,,,,,,,,,,,,,,,,,,,,,,,,,,,,,,,,,,,,,,,,,,,,,,,,,,,,,,,,,,,,,,,,
0,31,31,37,1,,5f7694edc99f3112b494e122,62bbfb34425d1ebfb8460d75,2022-06-29_16h12.27.006,Colour_Asymmetry_Pilot,2022.1.3,Win32,57.67012687,62bbe60bf3d75ef465d3e404,,,,,,,,,,,,,,,,,,,,,,,,,,,,,,,,,,,,,,,,,,,,,,,,,,,,,,,,,,,,,,,,,,,,,,,,,,,,,,,,,,,,,,,,,,,,,,,,,,,,,,,,,,,,,,,,,,,,,,,,,,,,,,,,,,,,,,,,,,,,,,,,,,,,,,,,,,,,,,
0,32,32,76,1,,5f7694edc99f3112b494e122,62bbfb34425d1ebfb8460d75,2022-06-29_16h12.27.006,Colour_Asymmetry_Pilot,2022.1.3,Win32,57.67012687,62bbe60bf3d75ef465d3e404,,,,,,,,,,,,,,,,,,,,,,,,,,,,,,,,,,,,,,,,,,,,,,,,,,,,,,,,,,,,,,,,,,,,,,,,,,,,,,,,,,,,,,,,,,,,,,,,,,,,,,,,,,,,,,,,,,,,,,,,,,,,,,,,,,,,,,,,,,,,,,,,,,,,,,,,,,,,,,
0,33,33,29,1,,5f7694edc99f3112b494e122,62bbfb34425d1ebfb8460d75,2022-06-29_16h12.27.006,Colour_Asymmetry_Pilot,2022.1.3,Win32,57.67012687,62bbe60bf3d75ef465d3e404,,,,,,,,,,,,,,,,,,,,,,,,,,,,,,,,,,,,,,,,,,,,,,,,,,,,,,,,,,,,,,,,,,,,,,,,,,,,,,,,,,,,,,,,,,,,,,,,,,,,,,,,,,,,,,,,,,,,,,,,,,,,,,,,,,,,,,,,,,,,,,,,,,,,,,,,,,,,,,
0,34,34,71,1,,5f7694edc99f3112b494e122,62bbfb34425d1ebfb8460d75,2022-06-29_16h12.27.006,Colour_Asymmetry_Pilot,2022.1.3,Win32,57.67012687,62bbe60bf3d75ef465d3e404,,,,,,,,,,,,,,,,,,,,,,,,,,,,,,,,,,,,,,,,,,,,,,,,,,,,,,,,,,,,,,,,,,,,,,,,,,,,,,,,,,,,,,,,,,,,,,,,,,,,,,,,,,,,,,,,,,,,,,,,,,,,,,,,,,,,,,,,,,,,,,,,,,,,,,,,,,,,,,
0,35,35,79,1,,5f7694edc99f3112b494e122,62bbfb34425d1ebfb8460d75,2022-06-29_16h12.27.006,Colour_Asymmetry_Pilot,2022.1.3,Win32,57.67012687,62bbe60bf3d75ef465d3e404,,,,,,,,,,,,,,,,,,,,,,,,,,,,,,,,,,,,,,,,,,,,,,,,,,,,,,,,,,,,,,,,,,,,,,,,,,,,,,,,,,,,,,,,,,,,,,,,,,,,,,,,,,,,,,,,,,,,,,,,,,,,,,,,,,,,,,,,,,,,,,,,,,,,,,,,,,,,,,
0,36,36,57,1,,5f7694edc99f3112b494e122,62bbfb34425d1ebfb8460d75,2022-06-29_16h12.27.006,Colour_Asymmetry_Pilot,2022.1.3,Win32,57.67012687,62bbe60bf3d75ef465d3e404,,,,,,,,,,,,,,,,,,,,,,,,,,,,,,,,,,,,,,,,,,,,,,,,,,,,,,,,,,,,,,,,,,,,,,,,,,,,,,,,,,,,,,,,,,,,,,,,,,,,,,,,,,,,,,,,,,,,,,,,,,,,,,,,,,,,,,,,,,,,,,,,,,,,,,,,,,,,,,
0,37,37,31,1,,5f7694edc99f3112b494e122,62bbfb34425d1ebfb8460d75,2022-06-29_16h12.27.006,Colour_Asymmetry_Pilot,2022.1.3,Win32,57.67012687,62bbe60bf3d75ef465d3e404,,,,,,,,,,,,,,,,,,,,,,,,,,,,,,,,,,,,,,,,,,,,,,,,,,,,,,,,,,,,,,,,,,,,,,,,,,,,,,,,,,,,,,,,,,,,,,,,,,,,,,,,,,,,,,,,,,,,,,,,,,,,,,,,,,,,,,,,,,,,,,,,,,,,,,,,,,,,,,
0,38,38,0,1,,5f7694edc99f3112b494e122,62bbfb34425d1ebfb8460d75,2022-06-29_16h12.27.006,Colour_Asymmetry_Pilot,2022.1.3,Win32,57.67012687,62bbe60bf3d75ef465d3e404,,,,,,,,,,,,,,,,,,,,,,,,,,,,,,,,,,,,,,,,,,,,,,,,,,,,,,,,,,,,,,,,,,,,,,,,,,,,,,,,,,,,,,,,,,,,,,,,,,,,,,,,,,,,,,,,,,,,,,,,,,,,,,,,,,,,,,,,,,,,,,,,,,,,,,,,,,,,,,
0,39,39,81,1,,5f7694edc99f3112b494e122,62bbfb34425d1ebfb8460d75,2022-06-29_16h12.27.006,Colour_Asymmetry_Pilot,2022.1.3,Win32,57.67012687,62bbe60bf3d75ef465d3e404,,,,,,,,,,,,,,,,,,,,,,,,,,,,,,,,,,,,,,,,,,,,,,,,,,,,,,,,,,,,,,,,,,,,,,,,,,,,,,,,,,,,,,,,,,,,,,,,,,,,,,,,,,,,,,,,,,,,,,,,,,,,,,,,,,,,,,,,,,,,,,,,,,,,,,,,,,,,,,
0,40,40,66,1,,5f7694edc99f3112b494e122,62bbfb34425d1ebfb8460d75,2022-06-29_16h12.27.006,Colour_Asymmetry_Pilot,2022.1.3,Win32,57.67012687,62bbe60bf3d75ef465d3e404,,,,,,,,,,,,,,,,,,,,,,,,,,,,,,,,,,,,,,,,,,,,,,,,,,,,,,,,,,,,,,,,,,,,,,,,,,,,,,,,,,,,,,,,,,,,,,,,,,,,,,,,,,,,,,,,,,,,,,,,,,,,,,,,,,,,,,,,,,,,,,,,,,,,,,,,,,,,,,
0,41,41,42,1,,5f7694edc99f3112b494e122,62bbfb34425d1ebfb8460d75,2022-06-29_16h12.27.006,Colour_Asymmetry_Pilot,2022.1.3,Win32,57.67012687,62bbe60bf3d75ef465d3e404,,,,,,,,,,,,,,,,,,,,,,,,,,,,,,,,,,,,,,,,,,,,,,,,,,,,,,,,,,,,,,,,,,,,,,,,,,,,,,,,,,,,,,,,,,,,,,,,,,,,,,,,,,,,,,,,,,,,,,,,,,,,,,,,,,,,,,,,,,,,,,,,,,,,,,,,,,,,,,
0,42,42,91,1,,5f7694edc99f3112b494e122,62bbfb34425d1ebfb8460d75,2022-06-29_16h12.27.006,Colour_Asymmetry_Pilot,2022.1.3,Win32,57.67012687,62bbe60bf3d75ef465d3e404,,,,,,,,,,,,,,,,,,,,,,,,,,,,,,,,,,,,,,,,,,,,,,,,,,,,,,,,,,,,,,,,,,,,,,,,,,,,,,,,,,,,,,,,,,,,,,,,,,,,,,,,,,,,,,,,,,,,,,,,,,,,,,,,,,,,,,,,,,,,,,,,,,,,,,,,,,,,,,
0,43,43,24,1,,5f7694edc99f3112b494e122,62bbfb34425d1ebfb8460d75,2022-06-29_16h12.27.006,Colour_Asymmetry_Pilot,2022.1.3,Win32,57.67012687,62bbe60bf3d75ef465d3e404,,,,,,,,,,,,,,,,,,,,,,,,,,,,,,,,,,,,,,,,,,,,,,,,,,,,,,,,,,,,,,,,,,,,,,,,,,,,,,,,,,,,,,,,,,,,,,,,,,,,,,,,,,,,,,,,,,,,,,,,,,,,,,,,,,,,,,,,,,,,,,,,,,,,,,,,,,,,,,
0,44,44,21,1,,5f7694edc99f3112b494e122,62bbfb34425d1ebfb8460d75,2022-06-29_16h12.27.006,Colour_Asymmetry_Pilot,2022.1.3,Win32,57.67012687,62bbe60bf3d75ef465d3e404,,,,,,,,,,,,,,,,,,,,,,,,,,,,,,,,,,,,,,,,,,,,,,,,,,,,,,,,,,,,,,,,,,,,,,,,,,,,,,,,,,,,,,,,,,,,,,,,,,,,,,,,,,,,,,,,,,,,,,,,,,,,,,,,,,,,,,,,,,,,,,,,,,,,,,,,,,,,,,
0,45,45,44,1,,5f7694edc99f3112b494e122,62bbfb34425d1ebfb8460d75,2022-06-29_16h12.27.006,Colour_Asymmetry_Pilot,2022.1.3,Win32,57.67012687,62bbe60bf3d75ef465d3e404,,,,,,,,,,,,,,,,,,,,,,,,,,,,,,,,,,,,,,,,,,,,,,,,,,,,,,,,,,,,,,,,,,,,,,,,,,,,,,,,,,,,,,,,,,,,,,,,,,,,,,,,,,,,,,,,,,,,,,,,,,,,,,,,,,,,,,,,,,,,,,,,,,,,,,,,,,,,,,
0,46,46,92,1,,5f7694edc99f3112b494e122,62bbfb34425d1ebfb8460d75,2022-06-29_16h12.27.006,Colour_Asymmetry_Pilot,2022.1.3,Win32,57.67012687,62bbe60bf3d75ef465d3e404,,,,,,,,,,,,,,,,,,,,,,,,,,,,,,,,,,,,,,,,,,,,,,,,,,,,,,,,,,,,,,,,,,,,,,,,,,,,,,,,,,,,,,,,,,,,,,,,,,,,,,,,,,,,,,,,,,,,,,,,,,,,,,,,,,,,,,,,,,,,,,,,,,,,,,,,,,,,,,
0,47,47,69,1,,5f7694edc99f3112b494e122,62bbfb34425d1ebfb8460d75,2022-06-29_16h12.27.006,Colour_Asymmetry_Pilot,2022.1.3,Win32,57.67012687,62bbe60bf3d75ef465d3e404,,,,,,,,,,,,,,,,,,,,,,,,,,,,,,,,,,,,,,,,,,,,,,,,,,,,,,,,,,,,,,,,,,,,,,,,,,,,,,,,,,,,,,,,,,,,,,,,,,,,,,,,,,,,,,,,,,,,,,,,,,,,,,,,,,,,,,,,,,,,,,,,,,,,,,,,,,,,,,
0,48,48,43,1,,5f7694edc99f3112b494e122,62bbfb34425d1ebfb8460d75,2022-06-29_16h12.27.006,Colour_Asymmetry_Pilot,2022.1.3,Win32,57.67012687,62bbe60bf3d75ef465d3e404,,,,,,,,,,,,,,,,,,,,,,,,,,,,,,,,,,,,,,,,,,,,,,,,,,,,,,,,,,,,,,,,,,,,,,,,,,,,,,,,,,,,,,,,,,,,,,,,,,,,,,,,,,,,,,,,,,,,,,,,,,,,,,,,,,,,,,,,,,,,,,,,,,,,,,,,,,,,,,
0,49,49,51,1,,5f7694edc99f3112b494e122,62bbfb34425d1ebfb8460d75,2022-06-29_16h12.27.006,Colour_Asymmetry_Pilot,2022.1.3,Win32,57.67012687,62bbe60bf3d75ef465d3e404,,,,,,,,,,,,,,,,,,,,,,,,,,,,,,,,,,,,,,,,,,,,,,,,,,,,,,,,,,,,,,,,,,,,,,,,,,,,,,,,,,,,,,,,,,,,,,,,,,,,,,,,,,,,,,,,,,,,,,,,,,,,,,,,,,,,,,,,,,,,,,,,,,,,,,,,,,,,,,
0,50,50,54,1,,5f7694edc99f3112b494e122,62bbfb34425d1ebfb8460d75,2022-06-29_16h12.27.006,Colour_Asymmetry_Pilot,2022.1.3,Win32,57.67012687,62bbe60bf3d75ef465d3e404,,,,,,,,,,,,,,,,,,,,,,,,,,,,,,,,,,,,,,,,,,,,,,,,,,,,,,,,,,,,,,,,,,,,,,,,,,,,,,,,,,,,,,,,,,,,,,,,,,,,,,,,,,,,,,,,,,,,,,,,,,,,,,,,,,,,,,,,,,,,,,,,,,,,,,,,,,,,,,
0,51,51,89,1,,5f7694edc99f3112b494e122,62bbfb34425d1ebfb8460d75,2022-06-29_16h12.27.006,Colour_Asymmetry_Pilot,2022.1.3,Win32,57.67012687,62bbe60bf3d75ef465d3e404,,,,,,,,,,,,,,,,,,,,,,,,,,,,,,,,,,,,,,,,,,,,,,,,,,,,,,,,,,,,,,,,,,,,,,,,,,,,,,,,,,,,,,,,,,,,,,,,,,,,,,,,,,,,,,,,,,,,,,,,,,,,,,,,,,,,,,,,,,,,,,,,,,,,,,,,,,,,,,
0,52,52,72,1,,5f7694edc99f3112b494e122,62bbfb34425d1ebfb8460d75,2022-06-29_16h12.27.006,Colour_Asymmetry_Pilot,2022.1.3,Win32,57.67012687,62bbe60bf3d75ef465d3e404,,,,,,,,,,,,,,,,,,,,,,,,,,,,,,,,,,,,,,,,,,,,,,,,,,,,,,,,,,,,,,,,,,,,,,,,,,,,,,,,,,,,,,,,,,,,,,,,,,,,,,,,,,,,,,,,,,,,,,,,,,,,,,,,,,,,,,,,,,,,,,,,,,,,,,,,,,,,,,
0,53,53,67,1,,5f7694edc99f3112b494e122,62bbfb34425d1ebfb8460d75,2022-06-29_16h12.27.006,Colour_Asymmetry_Pilot,2022.1.3,Win32,57.67012687,62bbe60bf3d75ef465d3e404,,,,,,,,,,,,,,,,,,,,,,,,,,,,,,,,,,,,,,,,,,,,,,,,,,,,,,,,,,,,,,,,,,,,,,,,,,,,,,,,,,,,,,,,,,,,,,,,,,,,,,,,,,,,,,,,,,,,,,,,,,,,,,,,,,,,,,,,,,,,,,,,,,,,,,,,,,,,,,
0,54,54,74,1,,5f7694edc99f3112b494e122,62bbfb34425d1ebfb8460d75,2022-06-29_16h12.27.006,Colour_Asymmetry_Pilot,2022.1.3,Win32,57.67012687,62bbe60bf3d75ef465d3e404,,,,,,,,,,,,,,,,,,,,,,,,,,,,,,,,,,,,,,,,,,,,,,,,,,,,,,,,,,,,,,,,,,,,,,,,,,,,,,,,,,,,,,,,,,,,,,,,,,,,,,,,,,,,,,,,,,,,,,,,,,,,,,,,,,,,,,,,,,,,,,,,,,,,,,,,,,,,,,
0,55,55,7,1,,5f7694edc99f3112b494e122,62bbfb34425d1ebfb8460d75,2022-06-29_16h12.27.006,Colour_Asymmetry_Pilot,2022.1.3,Win32,57.67012687,62bbe60bf3d75ef465d3e404,,,,,,,,,,,,,,,,,,,,,,,,,,,,,,,,,,,,,,,,,,,,,,,,,,,,,,,,,,,,,,,,,,,,,,,,,,,,,,,,,,,,,,,,,,,,,,,,,,,,,,,,,,,,,,,,,,,,,,,,,,,,,,,,,,,,,,,,,,,,,,,,,,,,,,,,,,,,,,
0,56,56,8,1,,5f7694edc99f3112b494e122,62bbfb34425d1ebfb8460d75,2022-06-29_16h12.27.006,Colour_Asymmetry_Pilot,2022.1.3,Win32,57.67012687,62bbe60bf3d75ef465d3e404,,,,,,,,,,,,,,,,,,,,,,,,,,,,,,,,,,,,,,,,,,,,,,,,,,,,,,,,,,,,,,,,,,,,,,,,,,,,,,,,,,,,,,,,,,,,,,,,,,,,,,,,,,,,,,,,,,,,,,,,,,,,,,,,,,,,,,,,,,,,,,,,,,,,,,,,,,,,,,
0,57,57,80,1,,5f7694edc99f3112b494e122,62bbfb34425d1ebfb8460d75,2022-06-29_16h12.27.006,Colour_Asymmetry_Pilot,2022.1.3,Win32,57.67012687,62bbe60bf3d75ef465d3e404,,,,,,,,,,,,,,,,,,,,,,,,,,,,,,,,,,,,,,,,,,,,,,,,,,,,,,,,,,,,,,,,,,,,,,,,,,,,,,,,,,,,,,,,,,,,,,,,,,,,,,,,,,,,,,,,,,,,,,,,,,,,,,,,,,,,,,,,,,,,,,,,,,,,,,,,,,,,,,
0,58,58,38,1,,5f7694edc99f3112b494e122,62bbfb34425d1ebfb8460d75,2022-06-29_16h12.27.006,Colour_Asymmetry_Pilot,2022.1.3,Win32,57.67012687,62bbe60bf3d75ef465d3e404,,,,,,,,,,,,,,,,,,,,,,,,,,,,,,,,,,,,,,,,,,,,,,,,,,,,,,,,,,,,,,,,,,,,,,,,,,,,,,,,,,,,,,,,,,,,,,,,,,,,,,,,,,,,,,,,,,,,,,,,,,,,,,,,,,,,,,,,,,,,,,,,,,,,,,,,,,,,,,
0,59,59,58,1,,5f7694edc99f3112b494e122,62bbfb34425d1ebfb8460d75,2022-06-29_16h12.27.006,Colour_Asymmetry_Pilot,2022.1.3,Win32,57.67012687,62bbe60bf3d75ef465d3e404,,,,,,,,,,,,,,,,,,,,,,,,,,,,,,,,,,,,,,,,,,,,,,,,,,,,,,,,,,,,,,,,,,,,,,,,,,,,,,,,,,,,,,,,,,,,,,,,,,,,,,,,,,,,,,,,,,,,,,,,,,,,,,,,,,,,,,,,,,,,,,,,,,,,,,,,,,,,,,
0,60,60,33,1,,5f7694edc99f3112b494e122,62bbfb34425d1ebfb8460d75,2022-06-29_16h12.27.006,Colour_Asymmetry_Pilot,2022.1.3,Win32,57.67012687,62bbe60bf3d75ef465d3e404,,,,,,,,,,,,,,,,,,,,,,,,,,,,,,,,,,,,,,,,,,,,,,,,,,,,,,,,,,,,,,,,,,,,,,,,,,,,,,,,,,,,,,,,,,,,,,,,,,,,,,,,,,,,,,,,,,,,,,,,,,,,,,,,,,,,,,,,,,,,,,,,,,,,,,,,,,,,,,
0,61,61,59,1,,5f7694edc99f3112b494e122,62bbfb34425d1ebfb8460d75,2022-06-29_16h12.27.006,Colour_Asymmetry_Pilot,2022.1.3,Win32,57.67012687,62bbe60bf3d75ef465d3e404,,,,,,,,,,,,,,,,,,,,,,,,,,,,,,,,,,,,,,,,,,,,,,,,,,,,,,,,,,,,,,,,,,,,,,,,,,,,,,,,,,,,,,,,,,,,,,,,,,,,,,,,,,,,,,,,,,,,,,,,,,,,,,,,,,,,,,,,,,,,,,,,,,,,,,,,,,,,,,
0,62,62,52,1,,5f7694edc99f3112b494e122,62bbfb34425d1ebfb8460d75,2022-06-29_16h12.27.006,Colour_Asymmetry_Pilot,2022.1.3,Win32,57.67012687,62bbe60bf3d75ef465d3e404,,,,,,,,,,,,,,,,,,,,,,,,,,,,,,,,,,,,,,,,,,,,,,,,,,,,,,,,,,,,,,,,,,,,,,,,,,,,,,,,,,,,,,,,,,,,,,,,,,,,,,,,,,,,,,,,,,,,,,,,,,,,,,,,,,,,,,,,,,,,,,,,,,,,,,,,,,,,,,
0,63,63,86,1,,5f7694edc99f3112b494e122,62bbfb34425d1ebfb8460d75,2022-06-29_16h12.27.006,Colour_Asymmetry_Pilot,2022.1.3,Win32,57.67012687,62bbe60bf3d75ef465d3e404,,,,,,,,,,,,,,,,,,,,,,,,,,,,,,,,,,,,,,,,,,,,,,,,,,,,,,,,,,,,,,,,,,,,,,,,,,,,,,,,,,,,,,,,,,,,,,,,,,,,,,,,,,,,,,,,,,,,,,,,,,,,,,,,,,,,,,,,,,,,,,,,,,,,,,,,,,,,,,
0,64,64,73,1,,5f7694edc99f3112b494e122,62bbfb34425d1ebfb8460d75,2022-06-29_16h12.27.006,Colour_Asymmetry_Pilot,2022.1.3,Win32,57.67012687,62bbe60bf3d75ef465d3e404,,,,,,,,,,,,,,,,,,,,,,,,,,,,,,,,,,,,,,,,,,,,,,,,,,,,,,,,,,,,,,,,,,,,,,,,,,,,,,,,,,,,,,,,,,,,,,,,,,,,,,,,,,,,,,,,,,,,,,,,,,,,,,,,,,,,,,,,,,,,,,,,,,,,,,,,,,,,,,
0,65,65,23,1,,5f7694edc99f3112b494e122,62bbfb34425d1ebfb8460d75,2022-06-29_16h12.27.006,Colour_Asymmetry_Pilot,2022.1.3,Win32,57.67012687,62bbe60bf3d75ef465d3e404,,,,,,,,,,,,,,,,,,,,,,,,,,,,,,,,,,,,,,,,,,,,,,,,,,,,,,,,,,,,,,,,,,,,,,,,,,,,,,,,,,,,,,,,,,,,,,,,,,,,,,,,,,,,,,,,,,,,,,,,,,,,,,,,,,,,,,,,,,,,,,,,,,,,,,,,,,,,,,
0,66,66,10,1,,5f7694edc99f3112b494e122,62bbfb34425d1ebfb8460d75,2022-06-29_16h12.27.006,Colour_Asymmetry_Pilot,2022.1.3,Win32,57.67012687,62bbe60bf3d75ef465d3e404,,,,,,,,,,,,,,,,,,,,,,,,,,,,,,,,,,,,,,,,,,,,,,,,,,,,,,,,,,,,,,,,,,,,,,,,,,,,,,,,,,,,,,,,,,,,,,,,,,,,,,,,,,,,,,,,,,,,,,,,,,,,,,,,,,,,,,,,,,,,,,,,,,,,,,,,,,,,,,
0,67,67,19,1,,5f7694edc99f3112b494e122,62bbfb34425d1ebfb8460d75,2022-06-29_16h12.27.006,Colour_Asymmetry_Pilot,2022.1.3,Win32,57.67012687,62bbe60bf3d75ef465d3e404,,,,,,,,,,,,,,,,,,,,,,,,,,,,,,,,,,,,,,,,,,,,,,,,,,,,,,,,,,,,,,,,,,,,,,,,,,,,,,,,,,,,,,,,,,,,,,,,,,,,,,,,,,,,,,,,,,,,,,,,,,,,,,,,,,,,,,,,,,,,,,,,,,,,,,,,,,,,,,
0,68,68,48,1,,5f7694edc99f3112b494e122,62bbfb34425d1ebfb8460d75,2022-06-29_16h12.27.006,Colour_Asymmetry_Pilot,2022.1.3,Win32,57.67012687,62bbe60bf3d75ef465d3e404,,,,,,,,,,,,,,,,,,,,,,,,,,,,,,,,,,,,,,,,,,,,,,,,,,,,,,,,,,,,,,,,,,,,,,,,,,,,,,,,,,,,,,,,,,,,,,,,,,,,,,,,,,,,,,,,,,,,,,,,,,,,,,,,,,,,,,,,,,,,,,,,,,,,,,,,,,,,,,
0,69,69,34,1,,5f7694edc99f3112b494e122,62bbfb34425d1ebfb8460d75,2022-06-29_16h12.27.006,Colour_Asymmetry_Pilot,2022.1.3,Win32,57.67012687,62bbe60bf3d75ef465d3e404,,,,,,,,,,,,,,,,,,,,,,,,,,,,,,,,,,,,,,,,,,,,,,,,,,,,,,,,,,,,,,,,,,,,,,,,,,,,,,,,,,,,,,,,,,,,,,,,,,,,,,,,,,,,,,,,,,,,,,,,,,,,,,,,,,,,,,,,,,,,,,,,,,,,,,,,,,,,,,
0,70,70,75,1,,5f7694edc99f3112b494e122,62bbfb34425d1ebfb8460d75,2022-06-29_16h12.27.006,Colour_Asymmetry_Pilot,2022.1.3,Win32,57.67012687,62bbe60bf3d75ef465d3e404,,,,,,,,,,,,,,,,,,,,,,,,,,,,,,,,,,,,,,,,,,,,,,,,,,,,,,,,,,,,,,,,,,,,,,,,,,,,,,,,,,,,,,,,,,,,,,,,,,,,,,,,,,,,,,,,,,,,,,,,,,,,,,,,,,,,,,,,,,,,,,,,,,,,,,,,,,,,,,
0,71,71,1,1,,5f7694edc99f3112b494e122,62bbfb34425d1ebfb8460d75,2022-06-29_16h12.27.006,Colour_Asymmetry_Pilot,2022.1.3,Win32,57.67012687,62bbe60bf3d75ef465d3e404,,,,,,,,,,,,,,,,,,,,,,,,,,,,,,,,,,,,,,,,,,,,,,,,,,,,,,,,,,,,,,,,,,,,,,,,,,,,,,,,,,,,,,,,,,,,,,,,,,,,,,,,,,,,,,,,,,,,,,,,,,,,,,,,,,,,,,,,,,,,,,,,,,,,,,,,,,,,,,
0,72,72,6,1,,5f7694edc99f3112b494e122,62bbfb34425d1ebfb8460d75,2022-06-29_16h12.27.006,Colour_Asymmetry_Pilot,2022.1.3,Win32,57.67012687,62bbe60bf3d75ef465d3e404,,,,,,,,,,,,,,,,,,,,,,,,,,,,,,,,,,,,,,,,,,,,,,,,,,,,,,,,,,,,,,,,,,,,,,,,,,,,,,,,,,,,,,,,,,,,,,,,,,,,,,,,,,,,,,,,,,,,,,,,,,,,,,,,,,,,,,,,,,,,,,,,,,,,,,,,,,,,,,
0,73,73,77,1,,5f7694edc99f3112b494e122,62bbfb34425d1ebfb8460d75,2022-06-29_16h12.27.006,Colour_Asymmetry_Pilot,2022.1.3,Win32,57.67012687,62bbe60bf3d75ef465d3e404,,,,,,,,,,,,,,,,,,,,,,,,,,,,,,,,,,,,,,,,,,,,,,,,,,,,,,,,,,,,,,,,,,,,,,,,,,,,,,,,,,,,,,,,,,,,,,,,,,,,,,,,,,,,,,,,,,,,,,,,,,,,,,,,,,,,,,,,,,,,,,,,,,,,,,,,,,,,,,
0,74,74,40,1,,5f7694edc99f3112b494e122,62bbfb34425d1ebfb8460d75,2022-06-29_16h12.27.006,Colour_Asymmetry_Pilot,2022.1.3,Win32,57.67012687,62bbe60bf3d75ef465d3e404,,,,,,,,,,,,,,,,,,,,,,,,,,,,,,,,,,,,,,,,,,,,,,,,,,,,,,,,,,,,,,,,,,,,,,,,,,,,,,,,,,,,,,,,,,,,,,,,,,,,,,,,,,,,,,,,,,,,,,,,,,,,,,,,,,,,,,,,,,,,,,,,,,,,,,,,,,,,,,
0,75,75,17,1,,5f7694edc99f3112b494e122,62bbfb34425d1ebfb8460d75,2022-06-29_16h12.27.006,Colour_Asymmetry_Pilot,2022.1.3,Win32,57.67012687,62bbe60bf3d75ef465d3e404,,,,,,,,,,,,,,,,,,,,,,,,,,,,,,,,,,,,,,,,,,,,,,,,,,,,,,,,,,,,,,,,,,,,,,,,,,,,,,,,,,,,,,,,,,,,,,,,,,,,,,,,,,,,,,,,,,,,,,,,,,,,,,,,,,,,,,,,,,,,,,,,,,,,,,,,,,,,,,
0,76,76,65,1,,5f7694edc99f3112b494e122,62bbfb34425d1ebfb8460d75,2022-06-29_16h12.27.006,Colour_Asymmetry_Pilot,2022.1.3,Win32,57.67012687,62bbe60bf3d75ef465d3e404,,,,,,,,,,,,,,,,,,,,,,,,,,,,,,,,,,,,,,,,,,,,,,,,,,,,,,,,,,,,,,,,,,,,,,,,,,,,,,,,,,,,,,,,,,,,,,,,,,,,,,,,,,,,,,,,,,,,,,,,,,,,,,,,,,,,,,,,,,,,,,,,,,,,,,,,,,,,,,
0,77,77,62,1,,5f7694edc99f3112b494e122,62bbfb34425d1ebfb8460d75,2022-06-29_16h12.27.006,Colour_Asymmetry_Pilot,2022.1.3,Win32,57.67012687,62bbe60bf3d75ef465d3e404,,,,,,,,,,,,,,,,,,,,,,,,,,,,,,,,,,,,,,,,,,,,,,,,,,,,,,,,,,,,,,,,,,,,,,,,,,,,,,,,,,,,,,,,,,,,,,,,,,,,,,,,,,,,,,,,,,,,,,,,,,,,,,,,,,,,,,,,,,,,,,,,,,,,,,,,,,,,,,
0,78,78,39,1,,5f7694edc99f3112b494e122,62bbfb34425d1ebfb8460d75,2022-06-29_16h12.27.006,Colour_Asymmetry_Pilot,2022.1.3,Win32,57.67012687,62bbe60bf3d75ef465d3e404,,,,,,,,,,,,,,,,,,,,,,,,,,,,,,,,,,,,,,,,,,,,,,,,,,,,,,,,,,,,,,,,,,,,,,,,,,,,,,,,,,,,,,,,,,,,,,,,,,,,,,,,,,,,,,,,,,,,,,,,,,,,,,,,,,,,,,,,,,,,,,,,,,,,,,,,,,,,,,
0,79,79,30,1,,5f7694edc99f3112b494e122,62bbfb34425d1ebfb8460d75,2022-06-29_16h12.27.006,Colour_Asymmetry_Pilot,2022.1.3,Win32,57.67012687,62bbe60bf3d75ef465d3e404,,,,,,,,,,,,,,,,,,,,,,,,,,,,,,,,,,,,,,,,,,,,,,,,,,,,,,,,,,,,,,,,,,,,,,,,,,,,,,,,,,,,,,,,,,,,,,,,,,,,,,,,,,,,,,,,,,,,,,,,,,,,,,,,,,,,,,,,,,,,,,,,,,,,,,,,,,,,,,
0,80,80,2,1,,5f7694edc99f3112b494e122,62bbfb34425d1ebfb8460d75,2022-06-29_16h12.27.006,Colour_Asymmetry_Pilot,2022.1.3,Win32,57.67012687,62bbe60bf3d75ef465d3e404,,,,,,,,,,,,,,,,,,,,,,,,,,,,,,,,,,,,,,,,,,,,,,,,,,,,,,,,,,,,,,,,,,,,,,,,,,,,,,,,,,,,,,,,,,,,,,,,,,,,,,,,,,,,,,,,,,,,,,,,,,,,,,,,,,,,,,,,,,,,,,,,,,,,,,,,,,,,,,
0,81,81,78,1,,5f7694edc99f3112b494e122,62bbfb34425d1ebfb8460d75,2022-06-29_16h12.27.006,Colour_Asymmetry_Pilot,2022.1.3,Win32,57.67012687,62bbe60bf3d75ef465d3e404,,,,,,,,,,,,,,,,,,,,,,,,,,,,,,,,,,,,,,,,,,,,,,,,,,,,,,,,,,,,,,,,,,,,,,,,,,,,,,,,,,,,,,,,,,,,,,,,,,,,,,,,,,,,,,,,,,,,,,,,,,,,,,,,,,,,,,,,,,,,,,,,,,,,,,,,,,,,,,
0,82,82,56,1,,5f7694edc99f3112b494e122,62bbfb34425d1ebfb8460d75,2022-06-29_16h12.27.006,Colour_Asymmetry_Pilot,2022.1.3,Win32,57.67012687,62bbe60bf3d75ef465d3e404,,,,,,,,,,,,,,,,,,,,,,,,,,,,,,,,,,,,,,,,,,,,,,,,,,,,,,,,,,,,,,,,,,,,,,,,,,,,,,,,,,,,,,,,,,,,,,,,,,,,,,,,,,,,,,,,,,,,,,,,,,,,,,,,,,,,,,,,,,,,,,,,,,,,,,,,,,,,,,
0,83,83,36,1,,5f7694edc99f3112b494e122,62bbfb34425d1ebfb8460d75,2022-06-29_16h12.27.006,Colour_Asymmetry_Pilot,2022.1.3,Win32,57.67012687,62bbe60bf3d75ef465d3e404,,,,,,,,,,,,,,,,,,,,,,,,,,,,,,,,,,,,,,,,,,,,,,,,,,,,,,,,,,,,,,,,,,,,,,,,,,,,,,,,,,,,,,,,,,,,,,,,,,,,,,,,,,,,,,,,,,,,,,,,,,,,,,,,,,,,,,,,,,,,,,,,,,,,,,,,,,,,,,
0,84,84,25,1,,5f7694edc99f3112b494e122,62bbfb34425d1ebfb8460d75,2022-06-29_16h12.27.006,Colour_Asymmetry_Pilot,2022.1.3,Win32,57.67012687,62bbe60bf3d75ef465d3e404,,,,,,,,,,,,,,,,,,,,,,,,,,,,,,,,,,,,,,,,,,,,,,,,,,,,,,,,,,,,,,,,,,,,,,,,,,,,,,,,,,,,,,,,,,,,,,,,,,,,,,,,,,,,,,,,,,,,,,,,,,,,,,,,,,,,,,,,,,,,,,,,,,,,,,,,,,,,,,
0,85,85,13,1,,5f7694edc99f3112b494e122,62bbfb34425d1ebfb8460d75,2022-06-29_16h12.27.006,Colour_Asymmetry_Pilot,2022.1.3,Win32,57.67012687,62bbe60bf3d75ef465d3e404,,,,,,,,,,,,,,,,,,,,,,,,,,,,,,,,,,,,,,,,,,,,,,,,,,,,,,,,,,,,,,,,,,,,,,,,,,,,,,,,,,,,,,,,,,,,,,,,,,,,,,,,,,,,,,,,,,,,,,,,,,,,,,,,,,,,,,,,,,,,,,,,,,,,,,,,,,,,,,
0,86,86,3,1,,5f7694edc99f3112b494e122,62bbfb34425d1ebfb8460d75,2022-06-29_16h12.27.006,Colour_Asymmetry_Pilot,2022.1.3,Win32,57.67012687,62bbe60bf3d75ef465d3e404,,,,,,,,,,,,,,,,,,,,,,,,,,,,,,,,,,,,,,,,,,,,,,,,,,,,,,,,,,,,,,,,,,,,,,,,,,,,,,,,,,,,,,,,,,,,,,,,,,,,,,,,,,,,,,,,,,,,,,,,,,,,,,,,,,,,,,,,,,,,,,,,,,,,,,,,,,,,,,
0,87,87,15,1,,5f7694edc99f3112b494e122,62bbfb34425d1ebfb8460d75,2022-06-29_16h12.27.006,Colour_Asymmetry_Pilot,2022.1.3,Win32,57.67012687,62bbe60bf3d75ef465d3e404,,,,,,,,,,,,,,,,,,,,,,,,,,,,,,,,,,,,,,,,,,,,,,,,,,,,,,,,,,,,,,,,,,,,,,,,,,,,,,,,,,,,,,,,,,,,,,,,,,,,,,,,,,,,,,,,,,,,,,,,,,,,,,,,,,,,,,,,,,,,,,,,,,,,,,,,,,,,,,
0,88,88,64,1,,5f7694edc99f3112b494e122,62bbfb34425d1ebfb8460d75,2022-06-29_16h12.27.006,Colour_Asymmetry_Pilot,2022.1.3,Win32,57.67012687,62bbe60bf3d75ef465d3e404,,,,,,,,,,,,,,,,,,,,,,,,,,,,,,,,,,,,,,,,,,,,,,,,,,,,,,,,,,,,,,,,,,,,,,,,,,,,,,,,,,,,,,,,,,,,,,,,,,,,,,,,,,,,,,,,,,,,,,,,,,,,,,,,,,,,,,,,,,,,,,,,,,,,,,,,,,,,,,
0,89,89,82,1,,5f7694edc99f3112b494e122,62bbfb34425d1ebfb8460d75,2022-06-29_16h12.27.006,Colour_Asymmetry_Pilot,2022.1.3,Win32,57.67012687,62bbe60bf3d75ef465d3e404,,,,,,,,,,,,,,,,,,,,,,,,,,,,,,,,,,,,,,,,,,,,,,,,,,,,,,,,,,,,,,,,,,,,,,,,,,,,,,,,,,,,,,,,,,,,,,,,,,,,,,,,,,,,,,,,,,,,,,,,,,,,,,,,,,,,,,,,,,,,,,,,,,,,,,,,,,,,,,
0,90,90,41,1,,5f7694edc99f3112b494e122,62bbfb34425d1ebfb8460d75,2022-06-29_16h12.27.006,Colour_Asymmetry_Pilot,2022.1.3,Win32,57.67012687,62bbe60bf3d75ef465d3e404,,,,,,,,,,,,,,,,,,,,,,,,,,,,,,,,,,,,,,,,,,,,,,,,,,,,,,,,,,,,,,,,,,,,,,,,,,,,,,,,,,,,,,,,,,,,,,,,,,,,,,,,,,,,,,,,,,,,,,,,,,,,,,,,,,,,,,,,,,,,,,,,,,,,,,,,,,,,,,
0,91,91,61,1,,5f7694edc99f3112b494e122,62bbfb34425d1ebfb8460d75,2022-06-29_16h12.27.006,Colour_Asymmetry_Pilot,2022.1.3,Win32,57.67012687,62bbe60bf3d75ef465d3e404,,,,,,,,,,,,,,,,,,,,,,,,,,,,,,,,,,,,,,,,,,,,,,,,,,,,,,,,,,,,,,,,,,,,,,,,,,,,,,,,,,,,,,,,,,,,,,,,,,,,,,,,,,,,,,,,,,,,,,,,,,,,,,,,,,,,,,,,,,,,,,,,,,,,,,,,,,,,,,
0,92,92,46,1,,5f7694edc99f3112b494e122,62bbfb34425d1ebfb8460d75,2022-06-29_16h12.27.006,Colour_Asymmetry_Pilot,2022.1.3,Win32,57.67012687,62bbe60bf3d75ef465d3e404,,,,,,,,,,,,,,,,,,,,,,,,,,,,,,,,,,,,,,,,,,,,,,,,,,,,,,,,,,,,,,,,,,,,,,,,,,,,,,,,,,,,,,,,,,,,,,,,,,,,,,,,,,,,,,,,,,,,,,,,,,,,,,,,,,,,,,,,,,,,,,,,,,,,,,,,,,,,,,
,,,,,,5f7694edc99f3112b494e122,62bbfb34425d1ebfb8460d75,2022-06-29_16h12.27.006,Colour_Asymmetry_Pilot,2022.1.3,Win32,57.67012687,62bbe60bf3d75ef465d3e404,0,0,0,35,1,twofour,,,,,,,,,,,,,,,,,,,,,,,,,,,,,,,,,,,,,,,,,,,,,,,,,,,,,,,,,,,,,,,,,,,,,,,,,,,,,,,,,,,,,,,,,,,,,,,,,,,,,,,,,,,,,,,,,,,,,,,,,,,,,,,,,,,,,,,,,,,,,,,,,,,,,,,,
,,,,,,5f7694edc99f3112b494e122,62bbfb34425d1ebfb8460d75,2022-06-29_16h12.27.006,Colour_Asymmetry_Pilot,2022.1.3,Win32,57.67012687,62bbe60bf3d75ef465d3e404,0,1,1,155,1,twofour,,,,,,,,,,,,,,,,,,,,,,,,,,,,,,,,,,,,,,,,,,,,,,,,,,,,,,,,,,,,,,,,,,,,,,,,,,,,,,,,,,,,,,,,,,,,,,,,,,,,,,,,,,,,,,,,,,,,,,,,,,,,,,,,,,,,,,,,,,,,,,,,,,,,,,,,
,,,,,,5f7694edc99f3112b494e122,62bbfb34425d1ebfb8460d75,2022-06-29_16h12.27.006,Colour_Asymmetry_Pilot,2022.1.3,Win32,57.67012687,62bbe60bf3d75ef465d3e404,0,2,2,49,1,onethree,,,,,,,,,,,,,,,,,,,,,,,,,,,,,,,,,,,,,,,,,,,,,,,,,,,,,,,,,,,,,,,,,,,,,,,,,,,,,,,,,,,,,,,,,,,,,,,,,,,,,,,,,,,,,,,,,,,,,,,,,,,,,,,,,,,,,,,,,,,,,,,,,,,,,,,,
,,,,,,5f7694edc99f3112b494e122,62bbfb34425d1ebfb8460d75,2022-06-29_16h12.27.006,Colour_Asymmetry_Pilot,2022.1.3,Win32,57.67012687,62bbe60bf3d75ef465d3e404,0,3,3,3,1,twofour,,,,,,,,,,,,,,,,,,,,,,,,,,,,,,,,,,,,,,,,,,,,,,,,,,,,,,,,,,,,,,,,,,,,,,,,,,,,,,,,,,,,,,,,,,,,,,,,,,,,,,,,,,,,,,,,,,,,,,,,,,,,,,,,,,,,,,,,,,,,,,,,,,,,,,,,
,,,,,,5f7694edc99f3112b494e122,62bbfb34425d1ebfb8460d75,2022-06-29_16h12.27.006,Colour_Asymmetry_Pilot,2022.1.3,Win32,57.67012687,62bbe60bf3d75ef465d3e404,0,4,4,107,1,twofour,,,,,,,,,,,,,,,,,,,,,,,,,,,,,,,,,,,,,,,,,,,,,,,,,,,,,,,,,,,,,,,,,,,,,,,,,,,,,,,,,,,,,,,,,,,,,,,,,,,,,,,,,,,,,,,,,,,,,,,,,,,,,,,,,,,,,,,,,,,,,,,,,,,,,,,,
,,,,,,5f7694edc99f3112b494e122,62bbfb34425d1ebfb8460d75,2022-06-29_16h12.27.006,Colour_Asymmetry_Pilot,2022.1.3,Win32,57.67012687,62bbe60bf3d75ef465d3e404,0,5,5,30,1,fourtwo,,,,,,,,,,,,,,,,,,,,,,,,,,,,,,,,,,,,,,,,,,,,,,,,,,,,,,,,,,,,,,,,,,,,,,,,,,,,,,,,,,,,,,,,,,,,,,,,,,,,,,,,,,,,,,,,,,,,,,,,,,,,,,,,,,,,,,,,,,,,,,,,,,,,,,,,
,,,,,,5f7694edc99f3112b494e122,62bbfb34425d1ebfb8460d75,2022-06-29_16h12.27.006,Colour_Asymmetry_Pilot,2022.1.3,Win32,57.67012687,62bbe60bf3d75ef465d3e404,0,6,6,101,1,threefour,,,,,,,,,,,,,,,,,,,,,,,,,,,,,,,,,,,,,,,,,,,,,,,,,,,,,,,,,,,,,,,,,,,,,,,,,,,,,,,,,,,,,,,,,,,,,,,,,,,,,,,,,,,,,,,,,,,,,,,,,,,,,,,,,,,,,,,,,,,,,,,,,,,,,,,,
,,,,,,5f7694edc99f3112b494e122,62bbfb34425d1ebfb8460d75,2022-06-29_16h12.27.006,Colour_Asymmetry_Pilot,2022.1.3,Win32,57.67012687,62bbe60bf3d75ef465d3e404,0,7,7,138,1,twoone,,,,,,,,,,,,,,,,,,,,,,,,,,,,,,,,,,,,,,,,,,,,,,,,,,,,,,,,,,,,,,,,,,,,,,,,,,,,,,,,,,,,,,,,,,,,,,,,,,,,,,,,,,,,,,,,,,,,,,,,,,,,,,,,,,,,,,,,,,,,,,,,,,,,,,,,
,,,,,,5f7694edc99f3112b494e122,62bbfb34425d1ebfb8460d75,2022-06-29_16h12.27.006,Colour_Asymmetry_Pilot,2022.1.3,Win32,57.67012687,62bbe60bf3d75ef465d3e404,0,8,8,7,1,fourthree,,,,,,,,,,,,,,,,,,,,,,,,,,,,,,,,,,,,,,,,,,,,,,,,,,,,,,,,,,,,,,,,,,,,,,,,,,,,,,,,,,,,,,,,,,,,,,,,,,,,,,,,,,,,,,,,,,,,,,,,,,,,,,,,,,,,,,,,,,,,,,,,,,,,,,,,
,,,,,,5f7694edc99f3112b494e122,62bbfb34425d1ebfb8460d75,2022-06-29_16h12.27.006,Colour_Asymmetry_Pilot,2022.1.3,Win32,57.67012687,62bbe60bf3d75ef465d3e404,0,9,9,130,1,twoone,,,,,,,,,,,,,,,,,,,,,,,,,,,,,,,,,,,,,,,,,,,,,,,,,,,,,,,,,,,,,,,,,,,,,,,,,,,,,,,,,,,,,,,,,,,,,,,,,,,,,,,,,,,,,,,,,,,,,,,,,,,,,,,,,,,,,,,,,,,,,,,,,,,,,,,,
,,,,,,5f7694edc99f3112b494e122,62bbfb34425d1ebfb8460d75,2022-06-29_16h12.27.006,Colour_Asymmetry_Pilot,2022.1.3,Win32,57.67012687,62bbe60bf3d75ef465d3e404,0,10,10,59,1,twofour,,,,,,,,,,,,,,,,,,,,,,,,,,,,,,,,,,,,,,,,,,,,,,,,,,,,,,,,,,,,,,,,,,,,,,,,,,,,,,,,,,,,,,,,,,,,,,,,,,,,,,,,,,,,,,,,,,,,,,,,,,,,,,,,,,,,,,,,,,,,,,,,,,,,,,,,
,,,,,,5f7694edc99f3112b494e122,62bbfb34425d1ebfb8460d75,2022-06-29_16h12.27.006,Colour_Asymmetry_Pilot,2022.1.3,Win32,57.67012687,62bbe60bf3d75ef465d3e404,0,11,11,125,1,threefour,,,,,,,,,,,,,,,,,,,,,,,,,,,,,,,,,,,,,,,,,,,,,,,,,,,,,,,,,,,,,,,,,,,,,,,,,,,,,,,,,,,,,,,,,,,,,,,,,,,,,,,,,,,,,,,,,,,,,,,,,,,,,,,,,,,,,,,,,,,,,,,,,,,,,,,,
,,,,,,5f7694edc99f3112b494e122,62bbfb34425d1ebfb8460d75,2022-06-29_16h12.27.006,Colour_Asymmetry_Pilot,2022.1.3,Win32,57.67012687,62bbe60bf3d75ef465d3e404,0,12,12,151,1,fourthree,,,,,,,,,,,,,,,,,,,,,,,,,,,,,,,,,,,,,,,,,,,,,,,,,,,,,,,,,,,,,,,,,,,,,,,,,,,,,,,,,,,,,,,,,,,,,,,,,,,,,,,,,,,,,,,,,,,,,,,,,,,,,,,,,,,,,,,,,,,,,,,,,,,,,,,,
,,,,,,5f7694edc99f3112b494e122,62bbfb34425d1ebfb8460d75,2022-06-29_16h12.27.006,Colour_Asymmetry_Pilot,2022.1.3,Win32,57.67012687,62bbe60bf3d75ef465d3e404,0,13,13,81,1,onethree,,,,,,,,,,,,,,,,,,,,,,,,,,,,,,,,,,,,,,,,,,,,,,,,,,,,,,,,,,,,,,,,,,,,,,,,,,,,,,,,,,,,,,,,,,,,,,,,,,,,,,,,,,,,,,,,,,,,,,,,,,,,,,,,,,,,,,,,,,,,,,,,,,,,,,,,
,,,,,,5f7694edc99f3112b494e122,62bbfb34425d1ebfb8460d75,2022-06-29_16h12.27.006,Colour_Asymmetry_Pilot,2022.1.3,Win32,57.67012687,62bbe60bf3d75ef465d3e404,0,14,14,100,1,threeone,,,,,,,,,,,,,,,,,,,,,,,,,,,,,,,,,,,,,,,,,,,,,,,,,,,,,,,,,,,,,,,,,,,,,,,,,,,,,,,,,,,,,,,,,,,,,,,,,,,,,,,,,,,,,,,,,,,,,,,,,,,,,,,,,,,,,,,,,,,,,,,,,,,,,,,,
,,,,,,5f7694edc99f3112b494e122,62bbfb34425d1ebfb8460d75,2022-06-29_16h12.27.006,Colour_Asymmetry_Pilot,2022.1.3,Win32,57.67012687,62bbe60bf3d75ef465d3e404,0,15,15,58,1,twoone,,,,,,,,,,,,,,,,,,,,,,,,,,,,,,,,,,,,,,,,,,,,,,,,,,,,,,,,,,,,,,,,,,,,,,,,,,,,,,,,,,,,,,,,,,,,,,,,,,,,,,,,,,,,,,,,,,,,,,,,,,,,,,,,,,,,,,,,,,,,,,,,,,,,,,,,
,,,,,,5f7694edc99f3112b494e122,62bbfb34425d1ebfb8460d75,2022-06-29_16h12.27.006,Colour_Asymmetry_Pilot,2022.1.3,Win32,57.67012687,62bbe60bf3d75ef465d3e404,0,16,16,27,1,twofour,,,,,,,,,,,,,,,,,,,,,,,,,,,,,,,,,,,,,,,,,,,,,,,,,,,,,,,,,,,,,,,,,,,,,,,,,,,,,,,,,,,,,,,,,,,,,,,,,,,,,,,,,,,,,,,,,,,,,,,,,,,,,,,,,,,,,,,,,,,,,,,,,,,,,,,,
,,,,,,5f7694edc99f3112b494e122,62bbfb34425d1ebfb8460d75,2022-06-29_16h12.27.006,Colour_Asymmetry_Pilot,2022.1.3,Win32,57.67012687,62bbe60bf3d75ef465d3e404,0,17,17,13,1,threefour,,,,,,,,,,,,,,,,,,,,,,,,,,,,,,,,,,,,,,,,,,,,,,,,,,,,,,,,,,,,,,,,,,,,,,,,,,,,,,,,,,,,,,,,,,,,,,,,,,,,,,,,,,,,,,,,,,,,,,,,,,,,,,,,,,,,,,,,,,,,,,,,,,,,,,,,
,,,,,,5f7694edc99f3112b494e122,62bbfb34425d1ebfb8460d75,2022-06-29_16h12.27.006,Colour_Asymmetry_Pilot,2022.1.3,Win32,57.67012687,62bbe60bf3d75ef465d3e404,0,18,18,16,1,onetwo,,,,,,,,,,,,,,,,,,,,,,,,,,,,,,,,,,,,,,,,,,,,,,,,,,,,,,,,,,,,,,,,,,,,,,,,,,,,,,,,,,,,,,,,,,,,,,,,,,,,,,,,,,,,,,,,,,,,,,,,,,,,,,,,,,,,,,,,,,,,,,,,,,,,,,,,
,,,,,,5f7694edc99f3112b494e122,62bbfb34425d1ebfb8460d75,2022-06-29_16h12.27.006,Colour_Asymmetry_Pilot,2022.1.3,Win32,57.67012687,62bbe60bf3d75ef465d3e404,0,19,19,6,1,fourtwo,,,,,,,,,,,,,,,,,,,,,,,,,,,,,,,,,,,,,,,,,,,,,,,,,,,,,,,,,,,,,,,,,,,,,,,,,,,,,,,,,,,,,,,,,,,,,,,,,,,,,,,,,,,,,,,,,,,,,,,,,,,,,,,,,,,,,,,,,,,,,,,,,,,,,,,,
,,,,,,5f7694edc99f3112b494e122,62bbfb34425d1ebfb8460d75,2022-06-29_16h12.27.006,Colour_Asymmetry_Pilot,2022.1.3,Win32,57.67012687,62bbe60bf3d75ef465d3e404,0,20,20,112,1,onetwo,,,,,,,,,,,,,,,,,,,,,,,,,,,,,,,,,,,,,,,,,,,,,,,,,,,,,,,,,,,,,,,,,,,,,,,,,,,,,,,,,,,,,,,,,,,,,,,,,,,,,,,,,,,,,,,,,,,,,,,,,,,,,,,,,,,,,,,,,,,,,,,,,,,,,,,,
,,,,,,5f7694edc99f3112b494e122,62bbfb34425d1ebfb8460d75,2022-06-29_16h12.27.006,Colour_Asymmetry_Pilot,2022.1.3,Win32,57.67012687,62bbe60bf3d75ef465d3e404,0,21,21,70,1,fourtwo,,,,,,,,,,,,,,,,,,,,,,,,,,,,,,,,,,,,,,,,,,,,,,,,,,,,,,,,,,,,,,,,,,,,,,,,,,,,,,,,,,,,,,,,,,,,,,,,,,,,,,,,,,,,,,,,,,,,,,,,,,,,,,,,,,,,,,,,,,,,,,,,,,,,,,,,
,,,,,,5f7694edc99f3112b494e122,62bbfb34425d1ebfb8460d75,2022-06-29_16h12.27.006,Colour_Asymmetry_Pilot,2022.1.3,Win32,57.67012687,62bbe60bf3d75ef465d3e404,0,22,22,42,1,twoone,,,,,,,,,,,,,,,,,,,,,,,,,,,,,,,,,,,,,,,,,,,,,,,,,,,,,,,,,,,,,,,,,,,,,,,,,,,,,,,,,,,,,,,,,,,,,,,,,,,,,,,,,,,,,,,,,,,,,,,,,,,,,,,,,,,,,,,,,,,,,,,,,,,,,,,,
,,,,,,5f7694edc99f3112b494e122,62bbfb34425d1ebfb8460d75,2022-06-29_16h12.27.006,Colour_Asymmetry_Pilot,2022.1.3,Win32,57.67012687,62bbe60bf3d75ef465d3e404,0,23,23,43,1,twofour,,,,,,,,,,,,,,,,,,,,,,,,,,,,,,,,,,,,,,,,,,,,,,,,,,,,,,,,,,,,,,,,,,,,,,,,,,,,,,,,,,,,,,,,,,,,,,,,,,,,,,,,,,,,,,,,,,,,,,,,,,,,,,,,,,,,,,,,,,,,,,,,,,,,,,,,
,,,,,,5f7694edc99f3112b494e122,62bbfb34425d1ebfb8460d75,2022-06-29_16h12.27.006,Colour_Asymmetry_Pilot,2022.1.3,Win32,57.67012687,62bbe60bf3d75ef465d3e404,0,24,24,94,1,fourtwo,,,,,,,,,,,,,,,,,,,,,,,,,,,,,,,,,,,,,,,,,,,,,,,,,,,,,,,,,,,,,,,,,,,,,,,,,,,,,,,,,,,,,,,,,,,,,,,,,,,,,,,,,,,,,,,,,,,,,,,,,,,,,,,,,,,,,,,,,,,,,,,,,,,,,,,,
,,,,,,5f7694edc99f3112b494e122,62bbfb34425d1ebfb8460d75,2022-06-29_16h12.27.006,Colour_Asymmetry_Pilot,2022.1.3,Win32,57.67012687,62bbe60bf3d75ef465d3e404,0,25,25,92,1,threeone,,,,,,,,,,,,,,,,,,,,,,,,,,,,,,,,,,,,,,,,,,,,,,,,,,,,,,,,,,,,,,,,,,,,,,,,,,,,,,,,,,,,,,,,,,,,,,,,,,,,,,,,,,,,,,,,,,,,,,,,,,,,,,,,,,,,,,,,,,,,,,,,,,,,,,,,
,,,,,,5f7694edc99f3112b494e122,62bbfb34425d1ebfb8460d75,2022-06-29_16h12.27.006,Colour_Asymmetry_Pilot,2022.1.3,Win32,57.67012687,62bbe60bf3d75ef465d3e404,0,26,26,77,1,threefour,,,,,,,,,,,,,,,,,,,,,,,,,,,,,,,,,,,,,,,,,,,,,,,,,,,,,,,,,,,,,,,,,,,,,,,,,,,,,,,,,,,,,,,,,,,,,,,,,,,,,,,,,,,,,,,,,,,,,,,,,,,,,,,,,,,,,,,,,,,,,,,,,,,,,,,,
,,,,,,5f7694edc99f3112b494e122,62bbfb34425d1ebfb8460d75,2022-06-29_16h12.27.006,Colour_Asymmetry_Pilot,2022.1.3,Win32,57.67012687,62bbe60bf3d75ef465d3e404,0,27,27,73,1,onethree,,,,,,,,,,,,,,,,,,,,,,,,,,,,,,,,,,,,,,,,,,,,,,,,,,,,,,,,,,,,,,,,,,,,,,,,,,,,,,,,,,,,,,,,,,,,,,,,,,,,,,,,,,,,,,,,,,,,,,,,,,,,,,,,,,,,,,,,,,,,,,,,,,,,,,,,
,,,,,,5f7694edc99f3112b494e122,62bbfb34425d1ebfb8460d75,2022-06-29_16h12.27.006,Colour_Asymmetry_Pilot,2022.1.3,Win32,57.67012687,62bbe60bf3d75ef465d3e404,0,28,28,146,1,twoone,,,,,,,,,,,,,,,,,,,,,,,,,,,,,,,,,,,,,,,,,,,,,,,,,,,,,,,,,,,,,,,,,,,,,,,,,,,,,,,,,,,,,,,,,,,,,,,,,,,,,,,,,,,,,,,,,,,,,,,,,,,,,,,,,,,,,,,,,,,,,,,,,,,,,,,,
,,,,,,5f7694edc99f3112b494e122,62bbfb34425d1ebfb8460d75,2022-06-29_16h12.27.006,Colour_Asymmetry_Pilot,2022.1.3,Win32,57.67012687,62bbe60bf3d75ef465d3e404,0,29,29,9,1,onethree,,,,,,,,,,,,,,,,,,,,,,,,,,,,,,,,,,,,,,,,,,,,,,,,,,,,,,,,,,,,,,,,,,,,,,,,,,,,,,,,,,,,,,,,,,,,,,,,,,,,,,,,,,,,,,,,,,,,,,,,,,,,,,,,,,,,,,,,,,,,,,,,,,,,,,,,
,,,,,,5f7694edc99f3112b494e122,62bbfb34425d1ebfb8460d75,2022-06-29_16h12.27.006,Colour_Asymmetry_Pilot,2022.1.3,Win32,57.67012687,62bbe60bf3d75ef465d3e404,0,30,30,11,1,twofour,,,,,,,,,,,,,,,,,,,,,,,,,,,,,,,,,,,,,,,,,,,,,,,,,,,,,,,,,,,,,,,,,,,,,,,,,,,,,,,,,,,,,,,,,,,,,,,,,,,,,,,,,,,,,,,,,,,,,,,,,,,,,,,,,,,,,,,,,,,,,,,,,,,,,,,,
,,,,,,5f7694edc99f3112b494e122,62bbfb34425d1ebfb8460d75,2022-06-29_16h12.27.006,Colour_Asymmetry_Pilot,2022.1.3,Win32,57.67012687,62bbe60bf3d75ef465d3e404,0,31,31,104,1,onetwo,,,,,,,,,,,,,,,,,,,,,,,,,,,,,,,,,,,,,,,,,,,,,,,,,,,,,,,,,,,,,,,,,,,,,,,,,,,,,,,,,,,,,,,,,,,,,,,,,,,,,,,,,,,,,,,,,,,,,,,,,,,,,,,,,,,,,,,,,,,,,,,,,,,,,,,,
,,,,,,5f7694edc99f3112b494e122,62bbfb34425d1ebfb8460d75,2022-06-29_16h12.27.006,Colour_Asymmetry_Pilot,2022.1.3,Win32,57.67012687,62bbe60bf3d75ef465d3e404,0,32,32,21,1,threefour,,,,,,,,,,,,,,,,,,,,,,,,,,,,,,,,,,,,,,,,,,,,,,,,,,,,,,,,,,,,,,,,,,,,,,,,,,,,,,,,,,,,,,,,,,,,,,,,,,,,,,,,,,,,,,,,,,,,,,,,,,,,,,,,,,,,,,,,,,,,,,,,,,,,,,,,
,,,,,,5f7694edc99f3112b494e122,62bbfb34425d1ebfb8460d75,2022-06-29_16h12.27.006,Colour_Asymmetry_Pilot,2022.1.3,Win32,57.67012687,62bbe60bf3d75ef465d3e404,0,33,33,53,1,threefour,,,,,,,,,,,,,,,,,,,,,,,,,,,,,,,,,,,,,,,,,,,,,,,,,,,,,,,,,,,,,,,,,,,,,,,,,,,,,,,,,,,,,,,,,,,,,,,,,,,,,,,,,,,,,,,,,,,,,,,,,,,,,,,,,,,,,,,,,,,,,,,,,,,,,,,,
,,,,,,5f7694edc99f3112b494e122,62bbfb34425d1ebfb8460d75,2022-06-29_16h12.27.006,Colour_Asymmetry_Pilot,2022.1.3,Win32,57.67012687,62bbe60bf3d75ef465d3e404,0,34,34,147,1,twofour,,,,,,,,,,,,,,,,,,,,,,,,,,,,,,,,,,,,,,,,,,,,,,,,,,,,,,,,,,,,,,,,,,,,,,,,,,,,,,,,,,,,,,,,,,,,,,,,,,,,,,,,,,,,,,,,,,,,,,,,,,,,,,,,,,,,,,,,,,,,,,,,,,,,,,,,
,,,,,,5f7694edc99f3112b494e122,62bbfb34425d1ebfb8460d75,2022-06-29_16h12.27.006,Colour_Asymmetry_Pilot,2022.1.3,Win32,57.67012687,62bbe60bf3d75ef465d3e404,0,35,35,76,1,threeone,,,,,,,,,,,,,,,,,,,,,,,,,,,,,,,,,,,,,,,,,,,,,,,,,,,,,,,,,,,,,,,,,,,,,,,,,,,,,,,,,,,,,,,,,,,,,,,,,,,,,,,,,,,,,,,,,,,,,,,,,,,,,,,,,,,,,,,,,,,,,,,,,,,,,,,,
,,,,,,5f7694edc99f3112b494e122,62bbfb34425d1ebfb8460d75,2022-06-29_16h12.27.006,Colour_Asymmetry_Pilot,2022.1.3,Win32,57.67012687,62bbe60bf3d75ef465d3e404,0,36,36,28,1,threeone,,,,,,,,,,,,,,,,,,,,,,,,,,,,,,,,,,,,,,,,,,,,,,,,,,,,,,,,,,,,,,,,,,,,,,,,,,,,,,,,,,,,,,,,,,,,,,,,,,,,,,,,,,,,,,,,,,,,,,,,,,,,,,,,,,,,,,,,,,,,,,,,,,,,,,,,
,,,,,,5f7694edc99f3112b494e122,62bbfb34425d1ebfb8460d75,2022-06-29_16h12.27.006,Colour_Asymmetry_Pilot,2022.1.3,Win32,57.67012687,62bbe60bf3d75ef465d3e404,0,37,37,158,1,fourtwo,,,,,,,,,,,,,,,,,,,,,,,,,,,,,,,,,,,,,,,,,,,,,,,,,,,,,,,,,,,,,,,,,,,,,,,,,,,,,,,,,,,,,,,,,,,,,,,,,,,,,,,,,,,,,,,,,,,,,,,,,,,,,,,,,,,,,,,,,,,,,,,,,,,,,,,,
,,,,,,5f7694edc99f3112b494e122,62bbfb34425d1ebfb8460d75,2022-06-29_16h12.27.006,Colour_Asymmetry_Pilot,2022.1.3,Win32,57.67012687,62bbe60bf3d75ef465d3e404,0,38,38,26,1,twoone,,,,,,,,,,,,,,,,,,,,,,,,,,,,,,,,,,,,,,,,,,,,,,,,,,,,,,,,,,,,,,,,,,,,,,,,,,,,,,,,,,,,,,,,,,,,,,,,,,,,,,,,,,,,,,,,,,,,,,,,,,,,,,,,,,,,,,,,,,,,,,,,,,,,,,,,
,,,,,,5f7694edc99f3112b494e122,62bbfb34425d1ebfb8460d75,2022-06-29_16h12.27.006,Colour_Asymmetry_Pilot,2022.1.3,Win32,57.67012687,62bbe60bf3d75ef465d3e404,0,39,39,48,1,onetwo,,,,,,,,,,,,,,,,,,,,,,,,,,,,,,,,,,,,,,,,,,,,,,,,,,,,,,,,,,,,,,,,,,,,,,,,,,,,,,,,,,,,,,,,,,,,,,,,,,,,,,,,,,,,,,,,,,,,,,,,,,,,,,,,,,,,,,,,,,,,,,,,,,,,,,,,
,,,,,,5f7694edc99f3112b494e122,62bbfb34425d1ebfb8460d75,2022-06-29_16h12.27.006,Colour_Asymmetry_Pilot,2022.1.3,Win32,57.67012687,62bbe60bf3d75ef465d3e404,0,40,40,44,1,threeone,,,,,,,,,,,,,,,,,,,,,,,,,,,,,,,,,,,,,,,,,,,,,,,,,,,,,,,,,,,,,,,,,,,,,,,,,,,,,,,,,,,,,,,,,,,,,,,,,,,,,,,,,,,,,,,,,,,,,,,,,,,,,,,,,,,,,,,,,,,,,,,,,,,,,,,,
,,,,,,5f7694edc99f3112b494e122,62bbfb34425d1ebfb8460d75,2022-06-29_16h12.27.006,Colour_Asymmetry_Pilot,2022.1.3,Win32,57.67012687,62bbe60bf3d75ef465d3e404,0,41,41,79,1,fourthree,,,,,,,,,,,,,,,,,,,,,,,,,,,,,,,,,,,,,,,,,,,,,,,,,,,,,,,,,,,,,,,,,,,,,,,,,,,,,,,,,,,,,,,,,,,,,,,,,,,,,,,,,,,,,,,,,,,,,,,,,,,,,,,,,,,,,,,,,,,,,,,,,,,,,,,,
,,,,,,5f7694edc99f3112b494e122,62bbfb34425d1ebfb8460d75,2022-06-29_16h12.27.006,Colour_Asymmetry_Pilot,2022.1.3,Win32,57.67012687,62bbe60bf3d75ef465d3e404,0,42,42,131,1,twofour,,,,,,,,,,,,,,,,,,,,,,,,,,,,,,,,,,,,,,,,,,,,,,,,,,,,,,,,,,,,,,,,,,,,,,,,,,,,,,,,,,,,,,,,,,,,,,,,,,,,,,,,,,,,,,,,,,,,,,,,,,,,,,,,,,,,,,,,,,,,,,,,,,,,,,,,
,,,,,,5f7694edc99f3112b494e122,62bbfb34425d1ebfb8460d75,2022-06-29_16h12.27.006,Colour_Asymmetry_Pilot,2022.1.3,Win32,57.67012687,62bbe60bf3d75ef465d3e404,0,43,43,4,1,threeone,,,,,,,,,,,,,,,,,,,,,,,,,,,,,,,,,,,,,,,,,,,,,,,,,,,,,,,,,,,,,,,,,,,,,,,,,,,,,,,,,,,,,,,,,,,,,,,,,,,,,,,,,,,,,,,,,,,,,,,,,,,,,,,,,,,,,,,,,,,,,,,,,,,,,,,,
,,,,,,5f7694edc99f3112b494e122,62bbfb34425d1ebfb8460d75,2022-06-29_16h12.27.006,Colour_Asymmetry_Pilot,2022.1.3,Win32,57.67012687,62bbe60bf3d75ef465d3e404,0,44,44,123,1,twofour,,,,,,,,,,,,,,,,,,,,,,,,,,,,,,,,,,,,,,,,,,,,,,,,,,,,,,,,,,,,,,,,,,,,,,,,,,,,,,,,,,,,,,,,,,,,,,,,,,,,,,,,,,,,,,,,,,,,,,,,,,,,,,,,,,,,,,,,,,,,,,,,,,,,,,,,
,,,,,,5f7694edc99f3112b494e122,62bbfb34425d1ebfb8460d75,2022-06-29_16h12.27.006,Colour_Asymmetry_Pilot,2022.1.3,Win32,57.67012687,62bbe60bf3d75ef465d3e404,0,45,45,51,1,twofour,,,,,,,,,,,,,,,,,,,,,,,,,,,,,,,,,,,,,,,,,,,,,,,,,,,,,,,,,,,,,,,,,,,,,,,,,,,,,,,,,,,,,,,,,,,,,,,,,,,,,,,,,,,,,,,,,,,,,,,,,,,,,,,,,,,,,,,,,,,,,,,,,,,,,,,,
,,,,,,5f7694edc99f3112b494e122,62bbfb34425d1ebfb8460d75,2022-06-29_16h12.27.006,Colour_Asymmetry_Pilot,2022.1.3,Win32,57.67012687,62bbe60bf3d75ef465d3e404,0,46,46,120,1,onetwo,,,,,,,,,,,,,,,,,,,,,,,,,,,,,,,,,,,,,,,,,,,,,,,,,,,,,,,,,,,,,,,,,,,,,,,,,,,,,,,,,,,,,,,,,,,,,,,,,,,,,,,,,,,,,,,,,,,,,,,,,,,,,,,,,,,,,,,,,,,,,,,,,,,,,,,,
,,,,,,5f7694edc99f3112b494e122,62bbfb34425d1ebfb8460d75,2022-06-29_16h12.27.006,Colour_Asymmetry_Pilot,2022.1.3,Win32,57.67012687,62bbe60bf3d75ef465d3e404,0,47,47,36,1,threeone,,,,,,,,,,,,,,,,,,,,,,,,,,,,,,,,,,,,,,,,,,,,,,,,,,,,,,,,,,,,,,,,,,,,,,,,,,,,,,,,,,,,,,,,,,,,,,,,,,,,,,,,,,,,,,,,,,,,,,,,,,,,,,,,,,,,,,,,,,,,,,,,,,,,,,,,
,,,,,,5f7694edc99f3112b494e122,62bbfb34425d1ebfb8460d75,2022-06-29_16h12.27.006,Colour_Asymmetry_Pilot,2022.1.3,Win32,57.67012687,62bbe60bf3d75ef465d3e404,0,48,48,128,1,onetwo,,,,,,,,,,,,,,,,,,,,,,,,,,,,,,,,,,,,,,,,,,,,,,,,,,,,,,,,,,,,,,,,,,,,,,,,,,,,,,,,,,,,,,,,,,,,,,,,,,,,,,,,,,,,,,,,,,,,,,,,,,,,,,,,,,,,,,,,,,,,,,,,,,,,,,,,
,,,,,,5f7694edc99f3112b494e122,62bbfb34425d1ebfb8460d75,2022-06-29_16h12.27.006,Colour_Asymmetry_Pilot,2022.1.3,Win32,57.67012687,62bbe60bf3d75ef465d3e404,0,49,49,80,1,onetwo,,,,,,,,,,,,,,,,,,,,,,,,,,,,,,,,,,,,,,,,,,,,,,,,,,,,,,,,,,,,,,,,,,,,,,,,,,,,,,,,,,,,,,,,,,,,,,,,,,,,,,,,,,,,,,,,,,,,,,,,,,,,,,,,,,,,,,,,,,,,,,,,,,,,,,,,
,,,,,,5f7694edc99f3112b494e122,62bbfb34425d1ebfb8460d75,2022-06-29_16h12.27.006,Colour_Asymmetry_Pilot,2022.1.3,Win32,57.67012687,62bbe60bf3d75ef465d3e404,0,50,50,140,1,threeone,,,,,,,,,,,,,,,,,,,,,,,,,,,,,,,,,,,,,,,,,,,,,,,,,,,,,,,,,,,,,,,,,,,,,,,,,,,,,,,,,,,,,,,,,,,,,,,,,,,,,,,,,,,,,,,,,,,,,,,,,,,,,,,,,,,,,,,,,,,,,,,,,,,,,,,,
,,,,,,5f7694edc99f3112b494e122,62bbfb34425d1ebfb8460d75,2022-06-29_16h12.27.006,Colour_Asymmetry_Pilot,2022.1.3,Win32,57.67012687,62bbe60bf3d75ef465d3e404,0,51,51,55,1,fourthree,,,,,,,,,,,,,,,,,,,,,,,,,,,,,,,,,,,,,,,,,,,,,,,,,,,,,,,,,,,,,,,,,,,,,,,,,,,,,,,,,,,,,,,,,,,,,,,,,,,,,,,,,,,,,,,,,,,,,,,,,,,,,,,,,,,,,,,,,,,,,,,,,,,,,,,,
,,,,,,5f7694edc99f3112b494e122,62bbfb34425d1ebfb8460d75,2022-06-29_16h12.27.006,Colour_Asymmetry_Pilot,2022.1.3,Win32,57.67012687,62bbe60bf3d75ef465d3e404,0,52,52,15,1,fourthree,,,,,,,,,,,,,,,,,,,,,,,,,,,,,,,,,,,,,,,,,,,,,,,,,,,,,,,,,,,,,,,,,,,,,,,,,,,,,,,,,,,,,,,,,,,,,,,,,,,,,,,,,,,,,,,,,,,,,,,,,,,,,,,,,,,,,,,,,,,,,,,,,,,,,,,,
,,,,,,5f7694edc99f3112b494e122,62bbfb34425d1ebfb8460d75,2022-06-29_16h12.27.006,Colour_Asymmetry_Pilot,2022.1.3,Win32,57.67012687,62bbe60bf3d75ef465d3e404,0,53,53,127,1,fourthree,,,,,,,,,,,,,,,,,,,,,,,,,,,,,,,,,,,,,,,,,,,,,,,,,,,,,,,,,,,,,,,,,,,,,,,,,,,,,,,,,,,,,,,,,,,,,,,,,,,,,,,,,,,,,,,,,,,,,,,,,,,,,,,,,,,,,,,,,,,,,,,,,,,,,,,,
,,,,,,5f7694edc99f3112b494e122,62bbfb34425d1ebfb8460d75,2022-06-29_16h12.27.006,Colour_Asymmetry_Pilot,2022.1.3,Win32,57.67012687,62bbe60bf3d75ef465d3e404,0,54,54,69,1,threefour,,,,,,,,,,,,,,,,,,,,,,,,,,,,,,,,,,,,,,,,,,,,,,,,,,,,,,,,,,,,,,,,,,,,,,,,,,,,,,,,,,,,,,,,,,,,,,,,,,,,,,,,,,,,,,,,,,,,,,,,,,,,,,,,,,,,,,,,,,,,,,,,,,,,,,,,
,,,,,,5f7694edc99f3112b494e122,62bbfb34425d1ebfb8460d75,2022-06-29_16h12.27.006,Colour_Asymmetry_Pilot,2022.1.3,Win32,57.67012687,62bbe60bf3d75ef465d3e404,0,55,55,2,1,twoone,,,,,,,,,,,,,,,,,,,,,,,,,,,,,,,,,,,,,,,,,,,,,,,,,,,,,,,,,,,,,,,,,,,,,,,,,,,,,,,,,,,,,,,,,,,,,,,,,,,,,,,,,,,,,,,,,,,,,,,,,,,,,,,,,,,,,,,,,,,,,,,,,,,,,,,,
,,,,,,5f7694edc99f3112b494e122,62bbfb34425d1ebfb8460d75,2022-06-29_16h12.27.006,Colour_Asymmetry_Pilot,2022.1.3,Win32,57.67012687,62bbe60bf3d75ef465d3e404,0,56,56,116,1,threeone,,,,,,,,,,,,,,,,,,,,,,,,,,,,,,,,,,,,,,,,,,,,,,,,,,,,,,,,,,,,,,,,,,,,,,,,,,,,,,,,,,,,,,,,,,,,,,,,,,,,,,,,,,,,,,,,,,,,,,,,,,,,,,,,,,,,,,,,,,,,,,,,,,,,,,,,
,,,,,,5f7694edc99f3112b494e122,62bbfb34425d1ebfb8460d75,2022-06-29_16h12.27.006,Colour_Asymmetry_Pilot,2022.1.3,Win32,57.67012687,62bbe60bf3d75ef465d3e404,0,57,57,50,1,twoone,,,,,,,,,,,,,,,,,,,,,,,,,,,,,,,,,,,,,,,,,,,,,,,,,,,,,,,,,,,,,,,,,,,,,,,,,,,,,,,,,,,,,,,,,,,,,,,,,,,,,,,,,,,,,,,,,,,,,,,,,,,,,,,,,,,,,,,,,,,,,,,,,,,,,,,,
,,,,,,5f7694edc99f3112b494e122,62bbfb34425d1ebfb8460d75,2022-06-29_16h12.27.006,Colour_Asymmetry_Pilot,2022.1.3,Win32,57.67012687,62bbe60bf3d75ef465d3e404,0,58,58,143,1,fourthree,,,,,,,,,,,,,,,,,,,,,,,,,,,,,,,,,,,,,,,,,,,,,,,,,,,,,,,,,,,,,,,,,,,,,,,,,,,,,,,,,,,,,,,,,,,,,,,,,,,,,,,,,,,,,,,,,,,,,,,,,,,,,,,,,,,,,,,,,,,,,,,,,,,,,,,,
,,,,,,5f7694edc99f3112b494e122,62bbfb34425d1ebfb8460d75,2022-06-29_16h12.27.006,Colour_Asymmetry_Pilot,2022.1.3,Win32,57.67012687,62bbe60bf3d75ef465d3e404,0,59,59,148,1,threeone,,,,,,,,,,,,,,,,,,,,,,,,,,,,,,,,,,,,,,,,,,,,,,,,,,,,,,,,,,,,,,,,,,,,,,,,,,,,,,,,,,,,,,,,,,,,,,,,,,,,,,,,,,,,,,,,,,,,,,,,,,,,,,,,,,,,,,,,,,,,,,,,,,,,,,,,
,,,,,,5f7694edc99f3112b494e122,62bbfb34425d1ebfb8460d75,2022-06-29_16h12.27.006,Colour_Asymmetry_Pilot,2022.1.3,Win32,57.67012687,62bbe60bf3d75ef465d3e404,0,60,60,52,1,threeone,,,,,,,,,,,,,,,,,,,,,,,,,,,,,,,,,,,,,,,,,,,,,,,,,,,,,,,,,,,,,,,,,,,,,,,,,,,,,,,,,,,,,,,,,,,,,,,,,,,,,,,,,,,,,,,,,,,,,,,,,,,,,,,,,,,,,,,,,,,,,,,,,,,,,,,,
,,,,,,5f7694edc99f3112b494e122,62bbfb34425d1ebfb8460d75,2022-06-29_16h12.27.006,Colour_Asymmetry_Pilot,2022.1.3,Win32,57.67012687,62bbe60bf3d75ef465d3e404,0,61,61,109,1,threefour,,,,,,,,,,,,,,,,,,,,,,,,,,,,,,,,,,,,,,,,,,,,,,,,,,,,,,,,,,,,,,,,,,,,,,,,,,,,,,,,,,,,,,,,,,,,,,,,,,,,,,,,,,,,,,,,,,,,,,,,,,,,,,,,,,,,,,,,,,,,,,,,,,,,,,,,
,,,,,,5f7694edc99f3112b494e122,62bbfb34425d1ebfb8460d75,2022-06-29_16h12.27.006,Colour_Asymmetry_Pilot,2022.1.3,Win32,57.67012687,62bbe60bf3d75ef465d3e404,0,62,62,157,1,threefour,,,,,,,,,,,,,,,,,,,,,,,,,,,,,,,,,,,,,,,,,,,,,,,,,,,,,,,,,,,,,,,,,,,,,,,,,,,,,,,,,,,,,,,,,,,,,,,,,,,,,,,,,,,,,,,,,,,,,,,,,,,,,,,,,,,,,,,,,,,,,,,,,,,,,,,,
,,,,,,5f7694edc99f3112b494e122,62bbfb34425d1ebfb8460d75,2022-06-29_16h12.27.006,Colour_Asymmetry_Pilot,2022.1.3,Win32,57.67012687,62bbe60bf3d75ef465d3e404,0,63,63,57,1,onethree,,,,,,,,,,,,,,,,,,,,,,,,,,,,,,,,,,,,,,,,,,,,,,,,,,,,,,,,,,,,,,,,,,,,,,,,,,,,,,,,,,,,,,,,,,,,,,,,,,,,,,,,,,,,,,,,,,,,,,,,,,,,,,,,,,,,,,,,,,,,,,,,,,,,,,,,
,,,,,,5f7694edc99f3112b494e122,62bbfb34425d1ebfb8460d75,2022-06-29_16h12.27.006,Colour_Asymmetry_Pilot,2022.1.3,Win32,57.67012687,62bbe60bf3d75ef465d3e404,0,64,64,156,1,threeone,,,,,,,,,,,,,,,,,,,,,,,,,,,,,,,,,,,,,,,,,,,,,,,,,,,,,,,,,,,,,,,,,,,,,,,,,,,,,,,,,,,,,,,,,,,,,,,,,,,,,,,,,,,,,,,,,,,,,,,,,,,,,,,,,,,,,,,,,,,,,,,,,,,,,,,,
,,,,,,5f7694edc99f3112b494e122,62bbfb34425d1ebfb8460d75,2022-06-29_16h12.27.006,Colour_Asymmetry_Pilot,2022.1.3,Win32,57.67012687,62bbe60bf3d75ef465d3e404,0,65,65,87,1,fourthree,,,,,,,,,,,,,,,,,,,,,,,,,,,,,,,,,,,,,,,,,,,,,,,,,,,,,,,,,,,,,,,,,,,,,,,,,,,,,,,,,,,,,,,,,,,,,,,,,,,,,,,,,,,,,,,,,,,,,,,,,,,,,,,,,,,,,,,,,,,,,,,,,,,,,,,,
,,,,,,5f7694edc99f3112b494e122,62bbfb34425d1ebfb8460d75,2022-06-29_16h12.27.006,Colour_Asymmetry_Pilot,2022.1.3,Win32,57.67012687,62bbe60bf3d75ef465d3e404,0,66,66,17,1,onethree,,,,,,,,,,,,,,,,,,,,,,,,,,,,,,,,,,,,,,,,,,,,,,,,,,,,,,,,,,,,,,,,,,,,,,,,,,,,,,,,,,,,,,,,,,,,,,,,,,,,,,,,,,,,,,,,,,,,,,,,,,,,,,,,,,,,,,,,,,,,,,,,,,,,,,,,
,,,,,,5f7694edc99f3112b494e122,62bbfb34425d1ebfb8460d75,2022-06-29_16h12.27.006,Colour_Asymmetry_Pilot,2022.1.3,Win32,57.67012687,62bbe60bf3d75ef465d3e404,0,67,67,46,1,fourtwo,,,,,,,,,,,,,,,,,,,,,,,,,,,,,,,,,,,,,,,,,,,,,,,,,,,,,,,,,,,,,,,,,,,,,,,,,,,,,,,,,,,,,,,,,,,,,,,,,,,,,,,,,,,,,,,,,,,,,,,,,,,,,,,,,,,,,,,,,,,,,,,,,,,,,,,,
,,,,,,5f7694edc99f3112b494e122,62bbfb34425d1ebfb8460d75,2022-06-29_16h12.27.006,Colour_Asymmetry_Pilot,2022.1.3,Win32,57.67012687,62bbe60bf3d75ef465d3e404,0,68,68,84,1,threeone,,,,,,,,,,,,,,,,,,,,,,,,,,,,,,,,,,,,,,,,,,,,,,,,,,,,,,,,,,,,,,,,,,,,,,,,,,,,,,,,,,,,,,,,,,,,,,,,,,,,,,,,,,,,,,,,,,,,,,,,,,,,,,,,,,,,,,,,,,,,,,,,,,,,,,,,
,,,,,,5f7694edc99f3112b494e122,62bbfb34425d1ebfb8460d75,2022-06-29_16h12.27.006,Colour_Asymmetry_Pilot,2022.1.3,Win32,57.67012687,62bbe60bf3d75ef465d3e404,0,69,69,98,1,twoone,,,,,,,,,,,,,,,,,,,,,,,,,,,,,,,,,,,,,,,,,,,,,,,,,,,,,,,,,,,,,,,,,,,,,,,,,,,,,,,,,,,,,,,,,,,,,,,,,,,,,,,,,,,,,,,,,,,,,,,,,,,,,,,,,,,,,,,,,,,,,,,,,,,,,,,,
,,,,,,5f7694edc99f3112b494e122,62bbfb34425d1ebfb8460d75,2022-06-29_16h12.27.006,Colour_Asymmetry_Pilot,2022.1.3,Win32,57.67012687,62bbe60bf3d75ef465d3e404,0,70,70,24,1,onetwo,,,,,,,,,,,,,,,,,,,,,,,,,,,,,,,,,,,,,,,,,,,,,,,,,,,,,,,,,,,,,,,,,,,,,,,,,,,,,,,,,,,,,,,,,,,,,,,,,,,,,,,,,,,,,,,,,,,,,,,,,,,,,,,,,,,,,,,,,,,,,,,,,,,,,,,,
,,,,,,5f7694edc99f3112b494e122,62bbfb34425d1ebfb8460d75,2022-06-29_16h12.27.006,Colour_Asymmetry_Pilot,2022.1.3,Win32,57.67012687,62bbe60bf3d75ef465d3e404,0,71,71,119,1,fourthree,,,,,,,,,,,,,,,,,,,,,,,,,,,,,,,,,,,,,,,,,,,,,,,,,,,,,,,,,,,,,,,,,,,,,,,,,,,,,,,,,,,,,,,,,,,,,,,,,,,,,,,,,,,,,,,,,,,,,,,,,,,,,,,,,,,,,,,,,,,,,,,,,,,,,,,,
,,,,,,5f7694edc99f3112b494e122,62bbfb34425d1ebfb8460d75,2022-06-29_16h12.27.006,Colour_Asymmetry_Pilot,2022.1.3,Win32,57.67012687,62bbe60bf3d75ef465d3e404,0,72,72,103,1,fourthree,,,,,,,,,,,,,,,,,,,,,,,,,,,,,,,,,,,,,,,,,,,,,,,,,,,,,,,,,,,,,,,,,,,,,,,,,,,,,,,,,,,,,,,,,,,,,,,,,,,,,,,,,,,,,,,,,,,,,,,,,,,,,,,,,,,,,,,,,,,,,,,,,,,,,,,,
,,,,,,5f7694edc99f3112b494e122,62bbfb34425d1ebfb8460d75,2022-06-29_16h12.27.006,Colour_Asymmetry_Pilot,2022.1.3,Win32,57.67012687,62bbe60bf3d75ef465d3e404,0,73,73,113,1,onethree,,,,,,,,,,,,,,,,,,,,,,,,,,,,,,,,,,,,,,,,,,,,,,,,,,,,,,,,,,,,,,,,,,,,,,,,,,,,,,,,,,,,,,,,,,,,,,,,,,,,,,,,,,,,,,,,,,,,,,,,,,,,,,,,,,,,,,,,,,,,,,,,,,,,,,,,
,,,,,,5f7694edc99f3112b494e122,62bbfb34425d1ebfb8460d75,2022-06-29_16h12.27.006,Colour_Asymmetry_Pilot,2022.1.3,Win32,57.67012687,62bbe60bf3d75ef465d3e404,0,74,74,66,1,twoone,,,,,,,,,,,,,,,,,,,,,,,,,,,,,,,,,,,,,,,,,,,,,,,,,,,,,,,,,,,,,,,,,,,,,,,,,,,,,,,,,,,,,,,,,,,,,,,,,,,,,,,,,,,,,,,,,,,,,,,,,,,,,,,,,,,,,,,,,,,,,,,,,,,,,,,,
,,,,,,5f7694edc99f3112b494e122,62bbfb34425d1ebfb8460d75,2022-06-29_16h12.27.006,Colour_Asymmetry_Pilot,2022.1.3,Win32,57.67012687,62bbe60bf3d75ef465d3e404,0,75,75,142,1,fourtwo,,,,,,,,,,,,,,,,,,,,,,,,,,,,,,,,,,,,,,,,,,,,,,,,,,,,,,,,,,,,,,,,,,,,,,,,,,,,,,,,,,,,,,,,,,,,,,,,,,,,,,,,,,,,,,,,,,,,,,,,,,,,,,,,,,,,,,,,,,,,,,,,,,,,,,,,
,,,,,,5f7694edc99f3112b494e122,62bbfb34425d1ebfb8460d75,2022-06-29_16h12.27.006,Colour_Asymmetry_Pilot,2022.1.3,Win32,57.67012687,62bbe60bf3d75ef465d3e404,0,76,76,111,1,fourthree,,,,,,,,,,,,,,,,,,,,,,,,,,,,,,,,,,,,,,,,,,,,,,,,,,,,,,,,,,,,,,,,,,,,,,,,,,,,,,,,,,,,,,,,,,,,,,,,,,,,,,,,,,,,,,,,,,,,,,,,,,,,,,,,,,,,,,,,,,,,,,,,,,,,,,,,
,,,,,,5f7694edc99f3112b494e122,62bbfb34425d1ebfb8460d75,2022-06-29_16h12.27.006,Colour_Asymmetry_Pilot,2022.1.3,Win32,57.67012687,62bbe60bf3d75ef465d3e404,0,77,77,99,1,twofour,,,,,,,,,,,,,,,,,,,,,,,,,,,,,,,,,,,,,,,,,,,,,,,,,,,,,,,,,,,,,,,,,,,,,,,,,,,,,,,,,,,,,,,,,,,,,,,,,,,,,,,,,,,,,,,,,,,,,,,,,,,,,,,,,,,,,,,,,,,,,,,,,,,,,,,,
,,,,,,5f7694edc99f3112b494e122,62bbfb34425d1ebfb8460d75,2022-06-29_16h12.27.006,Colour_Asymmetry_Pilot,2022.1.3,Win32,57.67012687,62bbe60bf3d75ef465d3e404,0,78,78,62,1,fourtwo,,,,,,,,,,,,,,,,,,,,,,,,,,,,,,,,,,,,,,,,,,,,,,,,,,,,,,,,,,,,,,,,,,,,,,,,,,,,,,,,,,,,,,,,,,,,,,,,,,,,,,,,,,,,,,,,,,,,,,,,,,,,,,,,,,,,,,,,,,,,,,,,,,,,,,,,
,,,,,,5f7694edc99f3112b494e122,62bbfb34425d1ebfb8460d75,2022-06-29_16h12.27.006,Colour_Asymmetry_Pilot,2022.1.3,Win32,57.67012687,62bbe60bf3d75ef465d3e404,0,79,79,149,1,threefour,,,,,,,,,,,,,,,,,,,,,,,,,,,,,,,,,,,,,,,,,,,,,,,,,,,,,,,,,,,,,,,,,,,,,,,,,,,,,,,,,,,,,,,,,,,,,,,,,,,,,,,,,,,,,,,,,,,,,,,,,,,,,,,,,,,,,,,,,,,,,,,,,,,,,,,,
,,,,,,5f7694edc99f3112b494e122,62bbfb34425d1ebfb8460d75,2022-06-29_16h12.27.006,Colour_Asymmetry_Pilot,2022.1.3,Win32,57.67012687,62bbe60bf3d75ef465d3e404,0,80,80,60,1,threeone,,,,,,,,,,,,,,,,,,,,,,,,,,,,,,,,,,,,,,,,,,,,,,,,,,,,,,,,,,,,,,,,,,,,,,,,,,,,,,,,,,,,,,,,,,,,,,,,,,,,,,,,,,,,,,,,,,,,,,,,,,,,,,,,,,,,,,,,,,,,,,,,,,,,,,,,
,,,,,,5f7694edc99f3112b494e122,62bbfb34425d1ebfb8460d75,2022-06-29_16h12.27.006,Colour_Asymmetry_Pilot,2022.1.3,Win32,57.67012687,62bbe60bf3d75ef465d3e404,0,81,81,95,1,fourthree,,,,,,,,,,,,,,,,,,,,,,,,,,,,,,,,,,,,,,,,,,,,,,,,,,,,,,,,,,,,,,,,,,,,,,,,,,,,,,,,,,,,,,,,,,,,,,,,,,,,,,,,,,,,,,,,,,,,,,,,,,,,,,,,,,,,,,,,,,,,,,,,,,,,,,,,
,,,,,,5f7694edc99f3112b494e122,62bbfb34425d1ebfb8460d75,2022-06-29_16h12.27.006,Colour_Asymmetry_Pilot,2022.1.3,Win32,57.67012687,62bbe60bf3d75ef465d3e404,0,82,82,65,1,onethree,,,,,,,,,,,,,,,,,,,,,,,,,,,,,,,,,,,,,,,,,,,,,,,,,,,,,,,,,,,,,,,,,,,,,,,,,,,,,,,,,,,,,,,,,,,,,,,,,,,,,,,,,,,,,,,,,,,,,,,,,,,,,,,,,,,,,,,,,,,,,,,,,,,,,,,,
,,,,,,5f7694edc99f3112b494e122,62bbfb34425d1ebfb8460d75,2022-06-29_16h12.27.006,Colour_Asymmetry_Pilot,2022.1.3,Win32,57.67012687,62bbe60bf3d75ef465d3e404,0,83,83,22,1,fourtwo,,,,,,,,,,,,,,,,,,,,,,,,,,,,,,,,,,,,,,,,,,,,,,,,,,,,,,,,,,,,,,,,,,,,,,,,,,,,,,,,,,,,,,,,,,,,,,,,,,,,,,,,,,,,,,,,,,,,,,,,,,,,,,,,,,,,,,,,,,,,,,,,,,,,,,,,
,,,,,,5f7694edc99f3112b494e122,62bbfb34425d1ebfb8460d75,2022-06-29_16h12.27.006,Colour_Asymmetry_Pilot,2022.1.3,Win32,57.67012687,62bbe60bf3d75ef465d3e404,0,84,84,75,1,twofour,,,,,,,,,,,,,,,,,,,,,,,,,,,,,,,,,,,,,,,,,,,,,,,,,,,,,,,,,,,,,,,,,,,,,,,,,,,,,,,,,,,,,,,,,,,,,,,,,,,,,,,,,,,,,,,,,,,,,,,,,,,,,,,,,,,,,,,,,,,,,,,,,,,,,,,,
,,,,,,5f7694edc99f3112b494e122,62bbfb34425d1ebfb8460d75,2022-06-29_16h12.27.006,Colour_Asymmetry_Pilot,2022.1.3,Win32,57.67012687,62bbe60bf3d75ef465d3e404,0,85,85,141,1,threefour,,,,,,,,,,,,,,,,,,,,,,,,,,,,,,,,,,,,,,,,,,,,,,,,,,,,,,,,,,,,,,,,,,,,,,,,,,,,,,,,,,,,,,,,,,,,,,,,,,,,,,,,,,,,,,,,,,,,,,,,,,,,,,,,,,,,,,,,,,,,,,,,,,,,,,,,
,,,,,,5f7694edc99f3112b494e122,62bbfb34425d1ebfb8460d75,2022-06-29_16h12.27.006,Colour_Asymmetry_Pilot,2022.1.3,Win32,57.67012687,62bbe60bf3d75ef465d3e404,0,86,86,56,1,onetwo,,,,,,,,,,,,,,,,,,,,,,,,,,,,,,,,,,,,,,,,,,,,,,,,,,,,,,,,,,,,,,,,,,,,,,,,,,,,,,,,,,,,,,,,,,,,,,,,,,,,,,,,,,,,,,,,,,,,,,,,,,,,,,,,,,,,,,,,,,,,,,,,,,,,,,,,
,,,,,,5f7694edc99f3112b494e122,62bbfb34425d1ebfb8460d75,2022-06-29_16h12.27.006,Colour_Asymmetry_Pilot,2022.1.3,Win32,57.67012687,62bbe60bf3d75ef465d3e404,0,87,87,25,1,onethree,,,,,,,,,,,,,,,,,,,,,,,,,,,,,,,,,,,,,,,,,,,,,,,,,,,,,,,,,,,,,,,,,,,,,,,,,,,,,,,,,,,,,,,,,,,,,,,,,,,,,,,,,,,,,,,,,,,,,,,,,,,,,,,,,,,,,,,,,,,,,,,,,,,,,,,,
,,,,,,5f7694edc99f3112b494e122,62bbfb34425d1ebfb8460d75,2022-06-29_16h12.27.006,Colour_Asymmetry_Pilot,2022.1.3,Win32,57.67012687,62bbe60bf3d75ef465d3e404,0,88,88,145,1,onethree,,,,,,,,,,,,,,,,,,,,,,,,,,,,,,,,,,,,,,,,,,,,,,,,,,,,,,,,,,,,,,,,,,,,,,,,,,,,,,,,,,,,,,,,,,,,,,,,,,,,,,,,,,,,,,,,,,,,,,,,,,,,,,,,,,,,,,,,,,,,,,,,,,,,,,,,
,,,,,,5f7694edc99f3112b494e122,62bbfb34425d1ebfb8460d75,2022-06-29_16h12.27.006,Colour_Asymmetry_Pilot,2022.1.3,Win32,57.67012687,62bbe60bf3d75ef465d3e404,0,89,89,72,1,onetwo,,,,,,,,,,,,,,,,,,,,,,,,,,,,,,,,,,,,,,,,,,,,,,,,,,,,,,,,,,,,,,,,,,,,,,,,,,,,,,,,,,,,,,,,,,,,,,,,,,,,,,,,,,,,,,,,,,,,,,,,,,,,,,,,,,,,,,,,,,,,,,,,,,,,,,,,
,,,,,,5f7694edc99f3112b494e122,62bbfb34425d1ebfb8460d75,2022-06-29_16h12.27.006,Colour_Asymmetry_Pilot,2022.1.3,Win32,57.67012687,62bbe60bf3d75ef465d3e404,0,90,90,5,1,threefour,,,,,,,,,,,,,,,,,,,,,,,,,,,,,,,,,,,,,,,,,,,,,,,,,,,,,,,,,,,,,,,,,,,,,,,,,,,,,,,,,,,,,,,,,,,,,,,,,,,,,,,,,,,,,,,,,,,,,,,,,,,,,,,,,,,,,,,,,,,,,,,,,,,,,,,,
,,,,,,5f7694edc99f3112b494e122,62bbfb34425d1ebfb8460d75,2022-06-29_16h12.27.006,Colour_Asymmetry_Pilot,2022.1.3,Win32,57.67012687,62bbe60bf3d75ef465d3e404,0,91,91,47,1,fourthree,,,,,,,,,,,,,,,,,,,,,,,,,,,,,,,,,,,,,,,,,,,,,,,,,,,,,,,,,,,,,,,,,,,,,,,,,,,,,,,,,,,,,,,,,,,,,,,,,,,,,,,,,,,,,,,,,,,,,,,,,,,,,,,,,,,,,,,,,,,,,,,,,,,,,,,,
,,,,,,5f7694edc99f3112b494e122,62bbfb34425d1ebfb8460d75,2022-06-29_16h12.27.006,Colour_Asymmetry_Pilot,2022.1.3,Win32,57.67012687,62bbe60bf3d75ef465d3e404,0,92,92,118,1,fourtwo,,,,,,,,,,,,,,,,,,,,,,,,,,,,,,,,,,,,,,,,,,,,,,,,,,,,,,,,,,,,,,,,,,,,,,,,,,,,,,,,,,,,,,,,,,,,,,,,,,,,,,,,,,,,,,,,,,,,,,,,,,,,,,,,,,,,,,,,,,,,,,,,,,,,,,,,
,,,,,,5f7694edc99f3112b494e122,62bbfb34425d1ebfb8460d75,2022-06-29_16h12.27.006,Colour_Asymmetry_Pilot,2022.1.3,Win32,57.67012687,62bbe60bf3d75ef465d3e404,0,93,93,14,1,fourtwo,,,,,,,,,,,,,,,,,,,,,,,,,,,,,,,,,,,,,,,,,,,,,,,,,,,,,,,,,,,,,,,,,,,,,,,,,,,,,,,,,,,,,,,,,,,,,,,,,,,,,,,,,,,,,,,,,,,,,,,,,,,,,,,,,,,,,,,,,,,,,,,,,,,,,,,,
,,,,,,5f7694edc99f3112b494e122,62bbfb34425d1ebfb8460d75,2022-06-29_16h12.27.006,Colour_Asymmetry_Pilot,2022.1.3,Win32,57.67012687,62bbe60bf3d75ef465d3e404,0,94,94,64,1,onetwo,,,,,,,,,,,,,,,,,,,,,,,,,,,,,,,,,,,,,,,,,,,,,,,,,,,,,,,,,,,,,,,,,,,,,,,,,,,,,,,,,,,,,,,,,,,,,,,,,,,,,,,,,,,,,,,,,,,,,,,,,,,,,,,,,,,,,,,,,,,,,,,,,,,,,,,,
,,,,,,5f7694edc99f3112b494e122,62bbfb34425d1ebfb8460d75,2022-06-29_16h12.27.006,Colour_Asymmetry_Pilot,2022.1.3,Win32,57.67012687,62bbe60bf3d75ef465d3e404,0,95,95,161,1,onethree,,,,,,,,,,,,,,,,,,,,,,,,,,,,,,,,,,,,,,,,,,,,,,,,,,,,,,,,,,,,,,,,,,,,,,,,,,,,,,,,,,,,,,,,,,,,,,,,,,,,,,,,,,,,,,,,,,,,,,,,,,,,,,,,,,,,,,,,,,,,,,,,,,,,,,,,
,,,,,,5f7694edc99f3112b494e122,62bbfb34425d1ebfb8460d75,2022-06-29_16h12.27.006,Colour_Asymmetry_Pilot,2022.1.3,Win32,57.67012687,62bbe60bf3d75ef465d3e404,0,96,96,45,1,threefour,,,,,,,,,,,,,,,,,,,,,,,,,,,,,,,,,,,,,,,,,,,,,,,,,,,,,,,,,,,,,,,,,,,,,,,,,,,,,,,,,,,,,,,,,,,,,,,,,,,,,,,,,,,,,,,,,,,,,,,,,,,,,,,,,,,,,,,,,,,,,,,,,,,,,,,,
,,,,,,5f7694edc99f3112b494e122,62bbfb34425d1ebfb8460d75,2022-06-29_16h12.27.006,Colour_Asymmetry_Pilot,2022.1.3,Win32,57.67012687,62bbe60bf3d75ef465d3e404,0,97,97,159,1,fourthree,,,,,,,,,,,,,,,,,,,,,,,,,,,,,,,,,,,,,,,,,,,,,,,,,,,,,,,,,,,,,,,,,,,,,,,,,,,,,,,,,,,,,,,,,,,,,,,,,,,,,,,,,,,,,,,,,,,,,,,,,,,,,,,,,,,,,,,,,,,,,,,,,,,,,,,,
,,,,,,5f7694edc99f3112b494e122,62bbfb34425d1ebfb8460d75,2022-06-29_16h12.27.006,Colour_Asymmetry_Pilot,2022.1.3,Win32,57.67012687,62bbe60bf3d75ef465d3e404,0,98,98,139,1,twofour,,,,,,,,,,,,,,,,,,,,,,,,,,,,,,,,,,,,,,,,,,,,,,,,,,,,,,,,,,,,,,,,,,,,,,,,,,,,,,,,,,,,,,,,,,,,,,,,,,,,,,,,,,,,,,,,,,,,,,,,,,,,,,,,,,,,,,,,,,,,,,,,,,,,,,,,
,,,,,,5f7694edc99f3112b494e122,62bbfb34425d1ebfb8460d75,2022-06-29_16h12.27.006,Colour_Asymmetry_Pilot,2022.1.3,Win32,57.67012687,62bbe60bf3d75ef465d3e404,0,99,99,71,1,fourthree,,,,,,,,,,,,,,,,,,,,,,,,,,,,,,,,,,,,,,,,,,,,,,,,,,,,,,,,,,,,,,,,,,,,,,,,,,,,,,,,,,,,,,,,,,,,,,,,,,,,,,,,,,,,,,,,,,,,,,,,,,,,,,,,,,,,,,,,,,,,,,,,,,,,,,,,
,,,,,,5f7694edc99f3112b494e122,62bbfb34425d1ebfb8460d75,2022-06-29_16h12.27.006,Colour_Asymmetry_Pilot,2022.1.3,Win32,57.67012687,62bbe60bf3d75ef465d3e404,0,100,100,38,1,fourtwo,,,,,,,,,,,,,,,,,,,,,,,,,,,,,,,,,,,,,,,,,,,,,,,,,,,,,,,,,,,,,,,,,,,,,,,,,,,,,,,,,,,,,,,,,,,,,,,,,,,,,,,,,,,,,,,,,,,,,,,,,,,,,,,,,,,,,,,,,,,,,,,,,,,,,,,,
,,,,,,5f7694edc99f3112b494e122,62bbfb34425d1ebfb8460d75,2022-06-29_16h12.27.006,Colour_Asymmetry_Pilot,2022.1.3,Win32,57.67012687,62bbe60bf3d75ef465d3e404,0,101,101,89,1,onethree,,,,,,,,,,,,,,,,,,,,,,,,,,,,,,,,,,,,,,,,,,,,,,,,,,,,,,,,,,,,,,,,,,,,,,,,,,,,,,,,,,,,,,,,,,,,,,,,,,,,,,,,,,,,,,,,,,,,,,,,,,,,,,,,,,,,,,,,,,,,,,,,,,,,,,,,
,,,,,,5f7694edc99f3112b494e122,62bbfb34425d1ebfb8460d75,2022-06-29_16h12.27.006,Colour_Asymmetry_Pilot,2022.1.3,Win32,57.67012687,62bbe60bf3d75ef465d3e404,0,102,102,134,1,fourtwo,,,,,,,,,,,,,,,,,,,,,,,,,,,,,,,,,,,,,,,,,,,,,,,,,,,,,,,,,,,,,,,,,,,,,,,,,,,,,,,,,,,,,,,,,,,,,,,,,,,,,,,,,,,,,,,,,,,,,,,,,,,,,,,,,,,,,,,,,,,,,,,,,,,,,,,,
,,,,,,5f7694edc99f3112b494e122,62bbfb34425d1ebfb8460d75,2022-06-29_16h12.27.006,Colour_Asymmetry_Pilot,2022.1.3,Win32,57.67012687,62bbe60bf3d75ef465d3e404,0,103,103,83,1,twofour,,,,,,,,,,,,,,,,,,,,,,,,,,,,,,,,,,,,,,,,,,,,,,,,,,,,,,,,,,,,,,,,,,,,,,,,,,,,,,,,,,,,,,,,,,,,,,,,,,,,,,,,,,,,,,,,,,,,,,,,,,,,,,,,,,,,,,,,,,,,,,,,,,,,,,,,
,,,,,,5f7694edc99f3112b494e122,62bbfb34425d1ebfb8460d75,2022-06-29_16h12.27.006,Colour_Asymmetry_Pilot,2022.1.3,Win32,57.67012687,62bbe60bf3d75ef465d3e404,0,104,104,12,1,threeone,,,,,,,,,,,,,,,,,,,,,,,,,,,,,,,,,,,,,,,,,,,,,,,,,,,,,,,,,,,,,,,,,,,,,,,,,,,,,,,,,,,,,,,,,,,,,,,,,,,,,,,,,,,,,,,,,,,,,,,,,,,,,,,,,,,,,,,,,,,,,,,,,,,,,,,,
,,,,,,5f7694edc99f3112b494e122,62bbfb34425d1ebfb8460d75,2022-06-29_16h12.27.006,Colour_Asymmetry_Pilot,2022.1.3,Win32,57.67012687,62bbe60bf3d75ef465d3e404,0,105,105,40,1,onetwo,,,,,,,,,,,,,,,,,,,,,,,,,,,,,,,,,,,,,,,,,,,,,,,,,,,,,,,,,,,,,,,,,,,,,,,,,,,,,,,,,,,,,,,,,,,,,,,,,,,,,,,,,,,,,,,,,,,,,,,,,,,,,,,,,,,,,,,,,,,,,,,,,,,,,,,,
,,,,,,5f7694edc99f3112b494e122,62bbfb34425d1ebfb8460d75,2022-06-29_16h12.27.006,Colour_Asymmetry_Pilot,2022.1.3,Win32,57.67012687,62bbe60bf3d75ef465d3e404,0,106,106,105,1,onethree,,,,,,,,,,,,,,,,,,,,,,,,,,,,,,,,,,,,,,,,,,,,,,,,,,,,,,,,,,,,,,,,,,,,,,,,,,,,,,,,,,,,,,,,,,,,,,,,,,,,,,,,,,,,,,,,,,,,,,,,,,,,,,,,,,,,,,,,,,,,,,,,,,,,,,,,
,,,,,,5f7694edc99f3112b494e122,62bbfb34425d1ebfb8460d75,2022-06-29_16h12.27.006,Colour_Asymmetry_Pilot,2022.1.3,Win32,57.67012687,62bbe60bf3d75ef465d3e404,0,107,107,32,1,onetwo,,,,,,,,,,,,,,,,,,,,,,,,,,,,,,,,,,,,,,,,,,,,,,,,,,,,,,,,,,,,,,,,,,,,,,,,,,,,,,,,,,,,,,,,,,,,,,,,,,,,,,,,,,,,,,,,,,,,,,,,,,,,,,,,,,,,,,,,,,,,,,,,,,,,,,,,
,,,,,,5f7694edc99f3112b494e122,62bbfb34425d1ebfb8460d75,2022-06-29_16h12.27.006,Colour_Asymmetry_Pilot,2022.1.3,Win32,57.67012687,62bbe60bf3d75ef465d3e404,0,108,108,115,1,twofour,,,,,,,,,,,,,,,,,,,,,,,,,,,,,,,,,,,,,,,,,,,,,,,,,,,,,,,,,,,,,,,,,,,,,,,,,,,,,,,,,,,,,,,,,,,,,,,,,,,,,,,,,,,,,,,,,,,,,,,,,,,,,,,,,,,,,,,,,,,,,,,,,,,,,,,,
,,,,,,5f7694edc99f3112b494e122,62bbfb34425d1ebfb8460d75,2022-06-29_16h12.27.006,Colour_Asymmetry_Pilot,2022.1.3,Win32,57.67012687,62bbe60bf3d75ef465d3e404,0,109,109,34,1,twoone,,,,,,,,,,,,,,,,,,,,,,,,,,,,,,,,,,,,,,,,,,,,,,,,,,,,,,,,,,,,,,,,,,,,,,,,,,,,,,,,,,,,,,,,,,,,,,,,,,,,,,,,,,,,,,,,,,,,,,,,,,,,,,,,,,,,,,,,,,,,,,,,,,,,,,,,
,,,,,,5f7694edc99f3112b494e122,62bbfb34425d1ebfb8460d75,2022-06-29_16h12.27.006,Colour_Asymmetry_Pilot,2022.1.3,Win32,57.67012687,62bbe60bf3d75ef465d3e404,0,110,110,33,1,onethree,,,,,,,,,,,,,,,,,,,,,,,,,,,,,,,,,,,,,,,,,,,,,,,,,,,,,,,,,,,,,,,,,,,,,,,,,,,,,,,,,,,,,,,,,,,,,,,,,,,,,,,,,,,,,,,,,,,,,,,,,,,,,,,,,,,,,,,,,,,,,,,,,,,,,,,,
,,,,,,5f7694edc99f3112b494e122,62bbfb34425d1ebfb8460d75,2022-06-29_16h12.27.006,Colour_Asymmetry_Pilot,2022.1.3,Win32,57.67012687,62bbe60bf3d75ef465d3e404,0,111,111,153,1,onethree,,,,,,,,,,,,,,,,,,,,,,,,,,,,,,,,,,,,,,,,,,,,,,,,,,,,,,,,,,,,,,,,,,,,,,,,,,,,,,,,,,,,,,,,,,,,,,,,,,,,,,,,,,,,,,,,,,,,,,,,,,,,,,,,,,,,,,,,,,,,,,,,,,,,,,,,
,,,,,,5f7694edc99f3112b494e122,62bbfb34425d1ebfb8460d75,2022-06-29_16h12.27.006,Colour_Asymmetry_Pilot,2022.1.3,Win32,57.67012687,62bbe60bf3d75ef465d3e404,0,112,112,108,1,threeone,,,,,,,,,,,,,,,,,,,,,,,,,,,,,,,,,,,,,,,,,,,,,,,,,,,,,,,,,,,,,,,,,,,,,,,,,,,,,,,,,,,,,,,,,,,,,,,,,,,,,,,,,,,,,,,,,,,,,,,,,,,,,,,,,,,,,,,,,,,,,,,,,,,,,,,,
,,,,,,5f7694edc99f3112b494e122,62bbfb34425d1ebfb8460d75,2022-06-29_16h12.27.006,Colour_Asymmetry_Pilot,2022.1.3,Win32,57.67012687,62bbe60bf3d75ef465d3e404,0,113,113,132,1,threeone,,,,,,,,,,,,,,,,,,,,,,,,,,,,,,,,,,,,,,,,,,,,,,,,,,,,,,,,,,,,,,,,,,,,,,,,,,,,,,,,,,,,,,,,,,,,,,,,,,,,,,,,,,,,,,,,,,,,,,,,,,,,,,,,,,,,,,,,,,,,,,,,,,,,,,,,
,,,,,,5f7694edc99f3112b494e122,62bbfb34425d1ebfb8460d75,2022-06-29_16h12.27.006,Colour_Asymmetry_Pilot,2022.1.3,Win32,57.67012687,62bbe60bf3d75ef465d3e404,0,114,114,91,1,twofour,,,,,,,,,,,,,,,,,,,,,,,,,,,,,,,,,,,,,,,,,,,,,,,,,,,,,,,,,,,,,,,,,,,,,,,,,,,,,,,,,,,,,,,,,,,,,,,,,,,,,,,,,,,,,,,,,,,,,,,,,,,,,,,,,,,,,,,,,,,,,,,,,,,,,,,,
,,,,,,5f7694edc99f3112b494e122,62bbfb34425d1ebfb8460d75,2022-06-29_16h12.27.006,Colour_Asymmetry_Pilot,2022.1.3,Win32,57.67012687,62bbe60bf3d75ef465d3e404,0,115,115,133,1,threefour,,,,,,,,,,,,,,,,,,,,,,,,,,,,,,,,,,,,,,,,,,,,,,,,,,,,,,,,,,,,,,,,,,,,,,,,,,,,,,,,,,,,,,,,,,,,,,,,,,,,,,,,,,,,,,,,,,,,,,,,,,,,,,,,,,,,,,,,,,,,,,,,,,,,,,,,
,,,,,,5f7694edc99f3112b494e122,62bbfb34425d1ebfb8460d75,2022-06-29_16h12.27.006,Colour_Asymmetry_Pilot,2022.1.3,Win32,57.67012687,62bbe60bf3d75ef465d3e404,0,116,116,97,1,onethree,,,,,,,,,,,,,,,,,,,,,,,,,,,,,,,,,,,,,,,,,,,,,,,,,,,,,,,,,,,,,,,,,,,,,,,,,,,,,,,,,,,,,,,,,,,,,,,,,,,,,,,,,,,,,,,,,,,,,,,,,,,,,,,,,,,,,,,,,,,,,,,,,,,,,,,,
,,,,,,5f7694edc99f3112b494e122,62bbfb34425d1ebfb8460d75,2022-06-29_16h12.27.006,Colour_Asymmetry_Pilot,2022.1.3,Win32,57.67012687,62bbe60bf3d75ef465d3e404,0,117,117,10,1,twoone,,,,,,,,,,,,,,,,,,,,,,,,,,,,,,,,,,,,,,,,,,,,,,,,,,,,,,,,,,,,,,,,,,,,,,,,,,,,,,,,,,,,,,,,,,,,,,,,,,,,,,,,,,,,,,,,,,,,,,,,,,,,,,,,,,,,,,,,,,,,,,,,,,,,,,,,
,,,,,,5f7694edc99f3112b494e122,62bbfb34425d1ebfb8460d75,2022-06-29_16h12.27.006,Colour_Asymmetry_Pilot,2022.1.3,Win32,57.67012687,62bbe60bf3d75ef465d3e404,0,118,118,96,1,onetwo,,,,,,,,,,,,,,,,,,,,,,,,,,,,,,,,,,,,,,,,,,,,,,,,,,,,,,,,,,,,,,,,,,,,,,,,,,,,,,,,,,,,,,,,,,,,,,,,,,,,,,,,,,,,,,,,,,,,,,,,,,,,,,,,,,,,,,,,,,,,,,,,,,,,,,,,
,,,,,,5f7694edc99f3112b494e122,62bbfb34425d1ebfb8460d75,2022-06-29_16h12.27.006,Colour_Asymmetry_Pilot,2022.1.3,Win32,57.67012687,62bbe60bf3d75ef465d3e404,0,119,119,126,1,fourtwo,,,,,,,,,,,,,,,,,,,,,,,,,,,,,,,,,,,,,,,,,,,,,,,,,,,,,,,,,,,,,,,,,,,,,,,,,,,,,,,,,,,,,,,,,,,,,,,,,,,,,,,,,,,,,,,,,,,,,,,,,,,,,,,,,,,,,,,,,,,,,,,,,,,,,,,,
,,,,,,5f7694edc99f3112b494e122,62bbfb34425d1ebfb8460d75,2022-06-29_16h12.27.006,Colour_Asymmetry_Pilot,2022.1.3,Win32,57.67012687,62bbe60bf3d75ef465d3e404,0,120,120,152,1,onetwo,,,,,,,,,,,,,,,,,,,,,,,,,,,,,,,,,,,,,,,,,,,,,,,,,,,,,,,,,,,,,,,,,,,,,,,,,,,,,,,,,,,,,,,,,,,,,,,,,,,,,,,,,,,,,,,,,,,,,,,,,,,,,,,,,,,,,,,,,,,,,,,,,,,,,,,,
,,,,,,5f7694edc99f3112b494e122,62bbfb34425d1ebfb8460d75,2022-06-29_16h12.27.006,Colour_Asymmetry_Pilot,2022.1.3,Win32,57.67012687,62bbe60bf3d75ef465d3e404,0,121,121,102,1,fourtwo,,,,,,,,,,,,,,,,,,,,,,,,,,,,,,,,,,,,,,,,,,,,,,,,,,,,,,,,,,,,,,,,,,,,,,,,,,,,,,,,,,,,,,,,,,,,,,,,,,,,,,,,,,,,,,,,,,,,,,,,,,,,,,,,,,,,,,,,,,,,,,,,,,,,,,,,
,,,,,,5f7694edc99f3112b494e122,62bbfb34425d1ebfb8460d75,2022-06-29_16h12.27.006,Colour_Asymmetry_Pilot,2022.1.3,Win32,57.67012687,62bbe60bf3d75ef465d3e404,0,122,122,61,1,threefour,,,,,,,,,,,,,,,,,,,,,,,,,,,,,,,,,,,,,,,,,,,,,,,,,,,,,,,,,,,,,,,,,,,,,,,,,,,,,,,,,,,,,,,,,,,,,,,,,,,,,,,,,,,,,,,,,,,,,,,,,,,,,,,,,,,,,,,,,,,,,,,,,,,,,,,,
,,,,,,5f7694edc99f3112b494e122,62bbfb34425d1ebfb8460d75,2022-06-29_16h12.27.006,Colour_Asymmetry_Pilot,2022.1.3,Win32,57.67012687,62bbe60bf3d75ef465d3e404,0,123,123,20,1,threeone,,,,,,,,,,,,,,,,,,,,,,,,,,,,,,,,,,,,,,,,,,,,,,,,,,,,,,,,,,,,,,,,,,,,,,,,,,,,,,,,,,,,,,,,,,,,,,,,,,,,,,,,,,,,,,,,,,,,,,,,,,,,,,,,,,,,,,,,,,,,,,,,,,,,,,,,
,,,,,,5f7694edc99f3112b494e122,62bbfb34425d1ebfb8460d75,2022-06-29_16h12.27.006,Colour_Asymmetry_Pilot,2022.1.3,Win32,57.67012687,62bbe60bf3d75ef465d3e404,0,124,124,39,1,fourthree,,,,,,,,,,,,,,,,,,,,,,,,,,,,,,,,,,,,,,,,,,,,,,,,,,,,,,,,,,,,,,,,,,,,,,,,,,,,,,,,,,,,,,,,,,,,,,,,,,,,,,,,,,,,,,,,,,,,,,,,,,,,,,,,,,,,,,,,,,,,,,,,,,,,,,,,
,,,,,,5f7694edc99f3112b494e122,62bbfb34425d1ebfb8460d75,2022-06-29_16h12.27.006,Colour_Asymmetry_Pilot,2022.1.3,Win32,57.67012687,62bbe60bf3d75ef465d3e404,0,125,125,114,1,twoone,,,,,,,,,,,,,,,,,,,,,,,,,,,,,,,,,,,,,,,,,,,,,,,,,,,,,,,,,,,,,,,,,,,,,,,,,,,,,,,,,,,,,,,,,,,,,,,,,,,,,,,,,,,,,,,,,,,,,,,,,,,,,,,,,,,,,,,,,,,,,,,,,,,,,,,,
,,,,,,5f7694edc99f3112b494e122,62bbfb34425d1ebfb8460d75,2022-06-29_16h12.27.006,Colour_Asymmetry_Pilot,2022.1.3,Win32,57.67012687,62bbe60bf3d75ef465d3e404,0,126,126,144,1,onetwo,,,,,,,,,,,,,,,,,,,,,,,,,,,,,,,,,,,,,,,,,,,,,,,,,,,,,,,,,,,,,,,,,,,,,,,,,,,,,,,,,,,,,,,,,,,,,,,,,,,,,,,,,,,,,,,,,,,,,,,,,,,,,,,,,,,,,,,,,,,,,,,,,,,,,,,,
,,,,,,5f7694edc99f3112b494e122,62bbfb34425d1ebfb8460d75,2022-06-29_16h12.27.006,Colour_Asymmetry_Pilot,2022.1.3,Win32,57.67012687,62bbe60bf3d75ef465d3e404,0,127,127,122,1,twoone,,,,,,,,,,,,,,,,,,,,,,,,,,,,,,,,,,,,,,,,,,,,,,,,,,,,,,,,,,,,,,,,,,,,,,,,,,,,,,,,,,,,,,,,,,,,,,,,,,,,,,,,,,,,,,,,,,,,,,,,,,,,,,,,,,,,,,,,,,,,,,,,,,,,,,,,
,,,,,,5f7694edc99f3112b494e122,62bbfb34425d1ebfb8460d75,2022-06-29_16h12.27.006,Colour_Asymmetry_Pilot,2022.1.3,Win32,57.67012687,62bbe60bf3d75ef465d3e404,0,128,128,82,1,twoone,,,,,,,,,,,,,,,,,,,,,,,,,,,,,,,,,,,,,,,,,,,,,,,,,,,,,,,,,,,,,,,,,,,,,,,,,,,,,,,,,,,,,,,,,,,,,,,,,,,,,,,,,,,,,,,,,,,,,,,,,,,,,,,,,,,,,,,,,,,,,,,,,,,,,,,,
,,,,,,5f7694edc99f3112b494e122,62bbfb34425d1ebfb8460d75,2022-06-29_16h12.27.006,Colour_Asymmetry_Pilot,2022.1.3,Win32,57.67012687,62bbe60bf3d75ef465d3e404,0,129,129,110,1,fourtwo,,,,,,,,,,,,,,,,,,,,,,,,,,,,,,,,,,,,,,,,,,,,,,,,,,,,,,,,,,,,,,,,,,,,,,,,,,,,,,,,,,,,,,,,,,,,,,,,,,,,,,,,,,,,,,,,,,,,,,,,,,,,,,,,,,,,,,,,,,,,,,,,,,,,,,,,
,,,,,,5f7694edc99f3112b494e122,62bbfb34425d1ebfb8460d75,2022-06-29_16h12.27.006,Colour_Asymmetry_Pilot,2022.1.3,Win32,57.67012687,62bbe60bf3d75ef465d3e404,0,130,130,8,1,onetwo,,,,,,,,,,,,,,,,,,,,,,,,,,,,,,,,,,,,,,,,,,,,,,,,,,,,,,,,,,,,,,,,,,,,,,,,,,,,,,,,,,,,,,,,,,,,,,,,,,,,,,,,,,,,,,,,,,,,,,,,,,,,,,,,,,,,,,,,,,,,,,,,,,,,,,,,
,,,,,,5f7694edc99f3112b494e122,62bbfb34425d1ebfb8460d75,2022-06-29_16h12.27.006,Colour_Asymmetry_Pilot,2022.1.3,Win32,57.67012687,62bbe60bf3d75ef465d3e404,0,131,131,124,1,threeone,,,,,,,,,,,,,,,,,,,,,,,,,,,,,,,,,,,,,,,,,,,,,,,,,,,,,,,,,,,,,,,,,,,,,,,,,,,,,,,,,,,,,,,,,,,,,,,,,,,,,,,,,,,,,,,,,,,,,,,,,,,,,,,,,,,,,,,,,,,,,,,,,,,,,,,,
,,,,,,5f7694edc99f3112b494e122,62bbfb34425d1ebfb8460d75,2022-06-29_16h12.27.006,Colour_Asymmetry_Pilot,2022.1.3,Win32,57.67012687,62bbe60bf3d75ef465d3e404,0,132,132,85,1,threefour,,,,,,,,,,,,,,,,,,,,,,,,,,,,,,,,,,,,,,,,,,,,,,,,,,,,,,,,,,,,,,,,,,,,,,,,,,,,,,,,,,,,,,,,,,,,,,,,,,,,,,,,,,,,,,,,,,,,,,,,,,,,,,,,,,,,,,,,,,,,,,,,,,,,,,,,
,,,,,,5f7694edc99f3112b494e122,62bbfb34425d1ebfb8460d75,2022-06-29_16h12.27.006,Colour_Asymmetry_Pilot,2022.1.3,Win32,57.67012687,62bbe60bf3d75ef465d3e404,0,133,133,135,1,fourthree,,,,,,,,,,,,,,,,,,,,,,,,,,,,,,,,,,,,,,,,,,,,,,,,,,,,,,,,,,,,,,,,,,,,,,,,,,,,,,,,,,,,,,,,,,,,,,,,,,,,,,,,,,,,,,,,,,,,,,,,,,,,,,,,,,,,,,,,,,,,,,,,,,,,,,,,
,,,,,,5f7694edc99f3112b494e122,62bbfb34425d1ebfb8460d75,2022-06-29_16h12.27.006,Colour_Asymmetry_Pilot,2022.1.3,Win32,57.67012687,62bbe60bf3d75ef465d3e404,0,134,134,78,1,fourtwo,,,,,,,,,,,,,,,,,,,,,,,,,,,,,,,,,,,,,,,,,,,,,,,,,,,,,,,,,,,,,,,,,,,,,,,,,,,,,,,,,,,,,,,,,,,,,,,,,,,,,,,,,,,,,,,,,,,,,,,,,,,,,,,,,,,,,,,,,,,,,,,,,,,,,,,,
,,,,,,5f7694edc99f3112b494e122,62bbfb34425d1ebfb8460d75,2022-06-29_16h12.27.006,Colour_Asymmetry_Pilot,2022.1.3,Win32,57.67012687,62bbe60bf3d75ef465d3e404,0,135,135,29,1,threefour,,,,,,,,,,,,,,,,,,,,,,,,,,,,,,,,,,,,,,,,,,,,,,,,,,,,,,,,,,,,,,,,,,,,,,,,,,,,,,,,,,,,,,,,,,,,,,,,,,,,,,,,,,,,,,,,,,,,,,,,,,,,,,,,,,,,,,,,,,,,,,,,,,,,,,,,
,,,,,,5f7694edc99f3112b494e122,62bbfb34425d1ebfb8460d75,2022-06-29_16h12.27.006,Colour_Asymmetry_Pilot,2022.1.3,Win32,57.67012687,62bbe60bf3d75ef465d3e404,0,136,136,63,1,fourthree,,,,,,,,,,,,,,,,,,,,,,,,,,,,,,,,,,,,,,,,,,,,,,,,,,,,,,,,,,,,,,,,,,,,,,,,,,,,,,,,,,,,,,,,,,,,,,,,,,,,,,,,,,,,,,,,,,,,,,,,,,,,,,,,,,,,,,,,,,,,,,,,,,,,,,,,
,,,,,,5f7694edc99f3112b494e122,62bbfb34425d1ebfb8460d75,2022-06-29_16h12.27.006,Colour_Asymmetry_Pilot,2022.1.3,Win32,57.67012687,62bbe60bf3d75ef465d3e404,0,137,137,136,1,onetwo,,,,,,,,,,,,,,,,,,,,,,,,,,,,,,,,,,,,,,,,,,,,,,,,,,,,,,,,,,,,,,,,,,,,,,,,,,,,,,,,,,,,,,,,,,,,,,,,,,,,,,,,,,,,,,,,,,,,,,,,,,,,,,,,,,,,,,,,,,,,,,,,,,,,,,,,
,,,,,,5f7694edc99f3112b494e122,62bbfb34425d1ebfb8460d75,2022-06-29_16h12.27.006,Colour_Asymmetry_Pilot,2022.1.3,Win32,57.67012687,62bbe60bf3d75ef465d3e404,0,138,138,117,1,threefour,,,,,,,,,,,,,,,,,,,,,,,,,,,,,,,,,,,,,,,,,,,,,,,,,,,,,,,,,,,,,,,,,,,,,,,,,,,,,,,,,,,,,,,,,,,,,,,,,,,,,,,,,,,,,,,,,,,,,,,,,,,,,,,,,,,,,,,,,,,,,,,,,,,,,,,,
,,,,,,5f7694edc99f3112b494e122,62bbfb34425d1ebfb8460d75,2022-06-29_16h12.27.006,Colour_Asymmetry_Pilot,2022.1.3,Win32,57.67012687,62bbe60bf3d75ef465d3e404,0,139,139,137,1,onethree,,,,,,,,,,,,,,,,,,,,,,,,,,,,,,,,,,,,,,,,,,,,,,,,,,,,,,,,,,,,,,,,,,,,,,,,,,,,,,,,,,,,,,,,,,,,,,,,,,,,,,,,,,,,,,,,,,,,,,,,,,,,,,,,,,,,,,,,,,,,,,,,,,,,,,,,
,,,,,,5f7694edc99f3112b494e122,62bbfb34425d1ebfb8460d75,2022-06-29_16h12.27.006,Colour_Asymmetry_Pilot,2022.1.3,Win32,57.67012687,62bbe60bf3d75ef465d3e404,0,140,140,90,1,twoone,,,,,,,,,,,,,,,,,,,,,,,,,,,,,,,,,,,,,,,,,,,,,,,,,,,,,,,,,,,,,,,,,,,,,,,,,,,,,,,,,,,,,,,,,,,,,,,,,,,,,,,,,,,,,,,,,,,,,,,,,,,,,,,,,,,,,,,,,,,,,,,,,,,,,,,,
,,,,,,5f7694edc99f3112b494e122,62bbfb34425d1ebfb8460d75,2022-06-29_16h12.27.006,Colour_Asymmetry_Pilot,2022.1.3,Win32,57.67012687,62bbe60bf3d75ef465d3e404,0,141,141,160,1,onetwo,,,,,,,,,,,,,,,,,,,,,,,,,,,,,,,,,,,,,,,,,,,,,,,,,,,,,,,,,,,,,,,,,,,,,,,,,,,,,,,,,,,,,,,,,,,,,,,,,,,,,,,,,,,,,,,,,,,,,,,,,,,,,,,,,,,,,,,,,,,,,,,,,,,,,,,,
,,,,,,5f7694edc99f3112b494e122,62bbfb34425d1ebfb8460d75,2022-06-29_16h12.27.006,Colour_Asymmetry_Pilot,2022.1.3,Win32,57.67012687,62bbe60bf3d75ef465d3e404,0,142,142,74,1,twoone,,,,,,,,,,,,,,,,,,,,,,,,,,,,,,,,,,,,,,,,,,,,,,,,,,,,,,,,,,,,,,,,,,,,,,,,,,,,,,,,,,,,,,,,,,,,,,,,,,,,,,,,,,,,,,,,,,,,,,,,,,,,,,,,,,,,,,,,,,,,,,,,,,,,,,,,
,,,,,,5f7694edc99f3112b494e122,62bbfb34425d1ebfb8460d75,2022-06-29_16h12.27.006,Colour_Asymmetry_Pilot,2022.1.3,Win32,57.67012687,62bbe60bf3d75ef465d3e404,0,143,143,67,1,twofour,,,,,,,,,,,,,,,,,,,,,,,,,,,,,,,,,,,,,,,,,,,,,,,,,,,,,,,,,,,,,,,,,,,,,,,,,,,,,,,,,,,,,,,,,,,,,,,,,,,,,,,,,,,,,,,,,,,,,,,,,,,,,,,,,,,,,,,,,,,,,,,,,,,,,,,,
,,,,,,5f7694edc99f3112b494e122,62bbfb34425d1ebfb8460d75,2022-06-29_16h12.27.006,Colour_Asymmetry_Pilot,2022.1.3,Win32,57.67012687,62bbe60bf3d75ef465d3e404,0,144,144,154,1,twoone,,,,,,,,,,,,,,,,,,,,,,,,,,,,,,,,,,,,,,,,,,,,,,,,,,,,,,,,,,,,,,,,,,,,,,,,,,,,,,,,,,,,,,,,,,,,,,,,,,,,,,,,,,,,,,,,,,,,,,,,,,,,,,,,,,,,,,,,,,,,,,,,,,,,,,,,
,,,,,,5f7694edc99f3112b494e122,62bbfb34425d1ebfb8460d75,2022-06-29_16h12.27.006,Colour_Asymmetry_Pilot,2022.1.3,Win32,57.67012687,62bbe60bf3d75ef465d3e404,0,145,145,86,1,fourtwo,,,,,,,,,,,,,,,,,,,,,,,,,,,,,,,,,,,,,,,,,,,,,,,,,,,,,,,,,,,,,,,,,,,,,,,,,,,,,,,,,,,,,,,,,,,,,,,,,,,,,,,,,,,,,,,,,,,,,,,,,,,,,,,,,,,,,,,,,,,,,,,,,,,,,,,,
,,,,,,5f7694edc99f3112b494e122,62bbfb34425d1ebfb8460d75,2022-06-29_16h12.27.006,Colour_Asymmetry_Pilot,2022.1.3,Win32,57.67012687,62bbe60bf3d75ef465d3e404,0,146,146,106,1,twoone,,,,,,,,,,,,,,,,,,,,,,,,,,,,,,,,,,,,,,,,,,,,,,,,,,,,,,,,,,,,,,,,,,,,,,,,,,,,,,,,,,,,,,,,,,,,,,,,,,,,,,,,,,,,,,,,,,,,,,,,,,,,,,,,,,,,,,,,,,,,,,,,,,,,,,,,
,,,,,,5f7694edc99f3112b494e122,62bbfb34425d1ebfb8460d75,2022-06-29_16h12.27.006,Colour_Asymmetry_Pilot,2022.1.3,Win32,57.67012687,62bbe60bf3d75ef465d3e404,0,147,147,0,1,onetwo,,,,,,,,,,,,,,,,,,,,,,,,,,,,,,,,,,,,,,,,,,,,,,,,,,,,,,,,,,,,,,,,,,,,,,,,,,,,,,,,,,,,,,,,,,,,,,,,,,,,,,,,,,,,,,,,,,,,,,,,,,,,,,,,,,,,,,,,,,,,,,,,,,,,,,,,
,,,,,,5f7694edc99f3112b494e122,62bbfb34425d1ebfb8460d75,2022-06-29_16h12.27.006,Colour_Asymmetry_Pilot,2022.1.3,Win32,57.67012687,62bbe60bf3d75ef465d3e404,0,148,148,31,1,fourthree,,,,,,,,,,,,,,,,,,,,,,,,,,,,,,,,,,,,,,,,,,,,,,,,,,,,,,,,,,,,,,,,,,,,,,,,,,,,,,,,,,,,,,,,,,,,,,,,,,,,,,,,,,,,,,,,,,,,,,,,,,,,,,,,,,,,,,,,,,,,,,,,,,,,,,,,
,,,,,,5f7694edc99f3112b494e122,62bbfb34425d1ebfb8460d75,2022-06-29_16h12.27.006,Colour_Asymmetry_Pilot,2022.1.3,Win32,57.67012687,62bbe60bf3d75ef465d3e404,0,149,149,68,1,threeone,,,,,,,,,,,,,,,,,,,,,,,,,,,,,,,,,,,,,,,,,,,,,,,,,,,,,,,,,,,,,,,,,,,,,,,,,,,,,,,,,,,,,,,,,,,,,,,,,,,,,,,,,,,,,,,,,,,,,,,,,,,,,,,,,,,,,,,,,,,,,,,,,,,,,,,,
,,,,,,5f7694edc99f3112b494e122,62bbfb34425d1ebfb8460d75,2022-06-29_16h12.27.006,Colour_Asymmetry_Pilot,2022.1.3,Win32,57.67012687,62bbe60bf3d75ef465d3e404,0,150,150,41,1,onethree,,,,,,,,,,,,,,,,,,,,,,,,,,,,,,,,,,,,,,,,,,,,,,,,,,,,,,,,,,,,,,,,,,,,,,,,,,,,,,,,,,,,,,,,,,,,,,,,,,,,,,,,,,,,,,,,,,,,,,,,,,,,,,,,,,,,,,,,,,,,,,,,,,,,,,,,
,,,,,,5f7694edc99f3112b494e122,62bbfb34425d1ebfb8460d75,2022-06-29_16h12.27.006,Colour_Asymmetry_Pilot,2022.1.3,Win32,57.67012687,62bbe60bf3d75ef465d3e404,0,151,151,18,1,twoone,,,,,,,,,,,,,,,,,,,,,,,,,,,,,,,,,,,,,,,,,,,,,,,,,,,,,,,,,,,,,,,,,,,,,,,,,,,,,,,,,,,,,,,,,,,,,,,,,,,,,,,,,,,,,,,,,,,,,,,,,,,,,,,,,,,,,,,,,,,,,,,,,,,,,,,,
,,,,,,5f7694edc99f3112b494e122,62bbfb34425d1ebfb8460d75,2022-06-29_16h12.27.006,Colour_Asymmetry_Pilot,2022.1.3,Win32,57.67012687,62bbe60bf3d75ef465d3e404,0,152,152,93,1,threefour,,,,,,,,,,,,,,,,,,,,,,,,,,,,,,,,,,,,,,,,,,,,,,,,,,,,,,,,,,,,,,,,,,,,,,,,,,,,,,,,,,,,,,,,,,,,,,,,,,,,,,,,,,,,,,,,,,,,,,,,,,,,,,,,,,,,,,,,,,,,,,,,,,,,,,,,
,,,,,,5f7694edc99f3112b494e122,62bbfb34425d1ebfb8460d75,2022-06-29_16h12.27.006,Colour_Asymmetry_Pilot,2022.1.3,Win32,57.67012687,62bbe60bf3d75ef465d3e404,0,153,153,23,1,fourthree,,,,,,,,,,,,,,,,,,,,,,,,,,,,,,,,,,,,,,,,,,,,,,,,,,,,,,,,,,,,,,,,,,,,,,,,,,,,,,,,,,,,,,,,,,,,,,,,,,,,,,,,,,,,,,,,,,,,,,,,,,,,,,,,,,,,,,,,,,,,,,,,,,,,,,,,
,,,,,,5f7694edc99f3112b494e122,62bbfb34425d1ebfb8460d75,2022-06-29_16h12.27.006,Colour_Asymmetry_Pilot,2022.1.3,Win32,57.67012687,62bbe60bf3d75ef465d3e404,0,154,154,37,1,threefour,,,,,,,,,,,,,,,,,,,,,,,,,,,,,,,,,,,,,,,,,,,,,,,,,,,,,,,,,,,,,,,,,,,,,,,,,,,,,,,,,,,,,,,,,,,,,,,,,,,,,,,,,,,,,,,,,,,,,,,,,,,,,,,,,,,,,,,,,,,,,,,,,,,,,,,,
,,,,,,5f7694edc99f3112b494e122,62bbfb34425d1ebfb8460d75,2022-06-29_16h12.27.006,Colour_Asymmetry_Pilot,2022.1.3,Win32,57.67012687,62bbe60bf3d75ef465d3e404,0,155,155,1,1,onethree,,,,,,,,,,,,,,,,,,,,,,,,,,,,,,,,,,,,,,,,,,,,,,,,,,,,,,,,,,,,,,,,,,,,,,,,,,,,,,,,,,,,,,,,,,,,,,,,,,,,,,,,,,,,,,,,,,,,,,,,,,,,,,,,,,,,,,,,,,,,,,,,,,,,,,,,
,,,,,,5f7694edc99f3112b494e122,62bbfb34425d1ebfb8460d75,2022-06-29_16h12.27.006,Colour_Asymmetry_Pilot,2022.1.3,Win32,57.67012687,62bbe60bf3d75ef465d3e404,0,156,156,54,1,fourtwo,,,,,,,,,,,,,,,,,,,,,,,,,,,,,,,,,,,,,,,,,,,,,,,,,,,,,,,,,,,,,,,,,,,,,,,,,,,,,,,,,,,,,,,,,,,,,,,,,,,,,,,,,,,,,,,,,,,,,,,,,,,,,,,,,,,,,,,,,,,,,,,,,,,,,,,,
,,,,,,5f7694edc99f3112b494e122,62bbfb34425d1ebfb8460d75,2022-06-29_16h12.27.006,Colour_Asymmetry_Pilot,2022.1.3,Win32,57.67012687,62bbe60bf3d75ef465d3e404,0,157,157,150,1,fourtwo,,,,,,,,,,,,,,,,,,,,,,,,,,,,,,,,,,,,,,,,,,,,,,,,,,,,,,,,,,,,,,,,,,,,,,,,,,,,,,,,,,,,,,,,,,,,,,,,,,,,,,,,,,,,,,,,,,,,,,,,,,,,,,,,,,,,,,,,,,,,,,,,,,,,,,,,
,,,,,,5f7694edc99f3112b494e122,62bbfb34425d1ebfb8460d75,2022-06-29_16h12.27.006,Colour_Asymmetry_Pilot,2022.1.3,Win32,57.67012687,62bbe60bf3d75ef465d3e404,0,158,158,88,1,onetwo,,,,,,,,,,,,,,,,,,,,,,,,,,,,,,,,,,,,,,,,,,,,,,,,,,,,,,,,,,,,,,,,,,,,,,,,,,,,,,,,,,,,,,,,,,,,,,,,,,,,,,,,,,,,,,,,,,,,,,,,,,,,,,,,,,,,,,,,,,,,,,,,,,,,,,,,
,,,,,,5f7694edc99f3112b494e122,62bbfb34425d1ebfb8460d75,2022-06-29_16h12.27.006,Colour_Asymmetry_Pilot,2022.1.3,Win32,57.67012687,62bbe60bf3d75ef465d3e404,0,159,159,19,1,twofour,,,,,,,,,,,,,,,,,,,,,,,,,,,,,,,,,,,,,,,,,,,,,,,,,,,,,,,,,,,,,,,,,,,,,,,,,,,,,,,,,,,,,,,,,,,,,,,,,,,,,,,,,,,,,,,,,,,,,,,,,,,,,,,,,,,,,,,,,,,,,,,,,,,,,,,,
,,,,,,5f7694edc99f3112b494e122,62bbfb34425d1ebfb8460d75,2022-06-29_16h12.27.006,Colour_Asymmetry_Pilot,2022.1.3,Win32,57.67012687,62bbe60bf3d75ef465d3e404,0,160,160,129,1,onethree,,,,,,,,,,,,,,,,,,,,,,,,,,,,,,,,,,,,,,,,,,,,,,,,,,,,,,,,,,,,,,,,,,,,,,,,,,,,,,,,,,,,,,,,,,,,,,,,,,,,,,,,,,,,,,,,,,,,,,,,,,,,,,,,,,,,,,,,,,,,,,,,,,,,,,,,
,,,,,,5f7694edc99f3112b494e122,62bbfb34425d1ebfb8460d75,2022-06-29_16h12.27.006,Colour_Asymmetry_Pilot,2022.1.3,Win32,57.67012687,62bbe60bf3d75ef465d3e404,0,161,161,121,1,onethree,,,,,,,,,,,,,,,,,,,,,,,,,,,,,,,,,,,,,,,,,,,,,,,,,,,,,,,,,,,,,,,,,,,,,,,,,,,,,,,,,,,,,,,,,,,,,,,,,,,,,,,,,,,,,,,,,,,,,,,,,,,,,,,,,,,,,,,,,,,,,,,,,,,,,,,,
,,,,,,5f7694edc99f3112b494e122,62bbfb34425d1ebfb8460d75,2022-06-29_16h12.27.006,Colour_Asymmetry_Pilot,2022.1.3,Win32,57.67012687,62bbe60bf3d75ef465d3e404,,,,,,,space,1.681,space,7.844,space,28.078,space,11.639,space,1.819,space,4.213,"[-0.24719999999999998,-0.0354000000000001,0.3175999999999999]",fourthree,"[0.9763999999999999,0.30979999999999985,-0.6786]",-1,9.903,-58,-100,1,0,0,response5disk_5,4,8,1,0,0,rectangle_8,98,39,1,0,0,response1disk_7,6,3,1,1,1,0,0,rectangle_4,0,0,0,0,1,,,,,,,,,,,,,,,,,,,,,,,,,,,,,,,,,,,,,,,,,,,,,,,,,,,,,,,,,,,,,,,,,,,,,,,,,,,,,,,,,,,,,,,,,,,,,,,,,,,,,,,,
,,,,,,5f7694edc99f3112b494e122,62bbfb34425d1ebfb8460d75,2022-06-29_16h12.27.006,Colour_Asymmetry_Pilot,2022.1.3,Win32,57.67012687,62bbe60bf3d75ef465d3e404,,,,,,,,,,,,,,,,,,,"[-0.4902000000000001,0.2704,-0.45899999999999996]",fourthree,"[-0.45899999999999996,-0.3256,-0.9374]",-4,12.251,-48,95,1,0,0,response7disk_5,-8,-2,1,0,0,rectangle_8,93,39,1,0,0,response1disk_7,6,3,-1,-1,1,0,0,rectangle_4,1,0,1,0,1,,,,,,,,,,,,,,,,,,,,,,,,,,,,,,,,,,,,,,,,,,,,,,,,,,,,,,,,,,,,,,,,,,,,,,,,,,,,,,,,,,,,,,,,,,,,,,,,,,,,,,,,
,,,,,,5f7694edc99f3112b494e122,62bbfb34425d1ebfb8460d75,2022-06-29_16h12.27.006,Colour_Asymmetry_Pilot,2022.1.3,Win32,57.67012687,62bbe60bf3d75ef465d3e404,,,,,,,,,,,,,,,,,,,"[-0.45899999999999996,-0.3256,-0.9374]",fourthree,"[-0.26280000000000003,-0.4746,-0.2158]",-4,4.132,-36,97,1,0,0,response7disk_5,1,-1,1,0,0,rectangle_8,1,-1,1,0,0,,,3,1,-1,1,0,0,,2,0,2,0,1,,,,,,,,,,,,,,,,,,,,,,,,,,,,,,,,,,,,,,,,,,,,,,,,,,,,,,,,,,,,,,,,,,,,,,,,,,,,,,,,,,,,,,,,,,,,,,,,,,,,,,,,
,,,,,,5f7694edc99f3112b494e122,62bbfb34425d1ebfb8460d75,2022-06-29_16h12.27.006,Colour_Asymmetry_Pilot,2022.1.3,Win32,57.67012687,62bbe60bf3d75ef465d3e404,,,,,,,,,,,,,,,,,,,"[-0.26280000000000003,-0.4746,-0.2158]",threefour,"[0.6547999999999998,-0.043199999999999905,-0.011800000000000033]",-2,3.4,-83,-31,1,0,0,response5disk_5,7,3,1,0,0,rectangle_8,7,3,1,0,0,,,3,7,3,1,0,0,,3,0,3,0,1,,,,,,,,,,,,,,,,,,,,,,,,,,,,,,,,,,,,,,,,,,,,,,,,,,,,,,,,,,,,,,,,,,,,,,,,,,,,,,,,,,,,,,,,,,,,,,,,,,,,,,,,
,,,,,,5f7694edc99f3112b494e122,62bbfb34425d1ebfb8460d75,2022-06-29_16h12.27.006,Colour_Asymmetry_Pilot,2022.1.3,Win32,57.67012687,62bbe60bf3d75ef465d3e404,,,,,,,,,,,,,,,,,,,"[-0.09019999999999995,0.44300000000000006,0.5371999999999999]",fourthree,"[0.22340000000000004,-0.9296,-0.7884]",-4,1.417,-34,97,1,0,0,response7disk_5,12,3,1,0,0,rectangle_8,12,3,1,0,0,,,3,12,3,1,0,0,,4,0,4,0,1,,,,,,,,,,,,,,,,,,,,,,,,,,,,,,,,,,,,,,,,,,,,,,,,,,,,,,,,,,,,,,,,,,,,,,,,,,,,,,,,,,,,,,,,,,,,,,,,,,,,,,,,
,,,,,,5f7694edc99f3112b494e122,62bbfb34425d1ebfb8460d75,2022-06-29_16h12.27.006,Colour_Asymmetry_Pilot,2022.1.3,Win32,57.67012687,62bbe60bf3d75ef465d3e404,,,,,,,,,,,,,,,,,,,"[-0.48240000000000005,0.3175999999999999,0.2156]",twofour,"[0.09799999999999986,-0.24719999999999998,0.15280000000000005]",-3,3.402,-75,36,1,0,0,response7disk_5,-6,-7,1,0,0,rectangle_8,-6,-7,1,0,0,,,3,-6,-7,1,0,0,,5,0,5,0,1,,,,,,,,,,,,,,,,,,,,,,,,,,,,,,,,,,,,,,,,,,,,,,,,,,,,,,,,,,,,,,,,,,,,,,,,,,,,,,,,,,,,,,,,,,,,,,,,,,,,,,,,
,,,,,,5f7694edc99f3112b494e122,62bbfb34425d1ebfb8460d75,2022-06-29_16h12.27.006,Colour_Asymmetry_Pilot,2022.1.3,Win32,57.67012687,62bbe60bf3d75ef465d3e404,,,,,,,,,,,,,,,,,,,"[-0.26280000000000003,-0.4746,-0.2158]",fourthree,"[0.12939999999999996,-0.2864,0.3253999999999999]",-1,3.435,-32,-107,1,0,0,response5disk_5,-2,-5,1,0,0,rectangle_8,-2,-5,1,0,0,,,3,-2,-5,1,0,0,,6,0,6,0,1,,,,,,,,,,,,,,,,,,,,,,,,,,,,,,,,,,,,,,,,,,,,,,,,,,,,,,,,,,,,,,,,,,,,,,,,,,,,,,,,,,,,,,,,,,,,,,,,,,,,,,,,
,,,,,,5f7694edc99f3112b494e122,62bbfb34425d1ebfb8460d75,2022-06-29_16h12.27.006,Colour_Asymmetry_Pilot,2022.1.3,Win32,57.67012687,62bbe60bf3d75ef465d3e404,,,,,,,,,,,,,,,,,,,,twofour,,-1,0.967,,,,,,,,,,,,,,,,,,,,,,,,,,,,,,,,space,3.206,"[-0.9688,-0.7412000000000001,-0.4902000000000001]","[0.23920000000000008,0.2704,0.16060000000000008]",-38,-106,1,0,0,response5disk,4,-1,1,0,0,rectangle,4,-1,1,0,0,,1,0.005,0,4,-1,1,0,0,0,0,0,94,1,13,second,,,,,,,,,,,,,,,,,,,,,,,,,,,,,,,,,,,,,,,,,,,,,,,,,,,,,,,,,,,,,,,,,,,
,,,,,,5f7694edc99f3112b494e122,62bbfb34425d1ebfb8460d75,2022-06-29_16h12.27.006,Colour_Asymmetry_Pilot,2022.1.3,Win32,57.67012687,62bbe60bf3d75ef465d3e404,,,,,,,,,,,,,,,,,,,,twofour,,-3,1.968,,,,,,,,,,,,,,,,,,,,,,,,,,,,,,,,,,"[-0.45899999999999996,-0.3256,-0.9374]","[-0.9766,-0.6472,0.07440000000000002]",-86,39,1,0,0,response7disk,-4,0,1,0,0,rectangle,-4,0,1,0,0,,2,0.003,0,-4,0,1,0,0,0,1,1,95,1,14,second,,,,,,,,,,,,,,,,,,,,,,,,,,,,,,,,,,,,,,,,,,,,,,,,,,,,,,,,,,,,,,,,,,,
,,,,,,5f7694edc99f3112b494e122,62bbfb34425d1ebfb8460d75,2022-06-29_16h12.27.006,Colour_Asymmetry_Pilot,2022.1.3,Win32,57.67012687,62bbe60bf3d75ef465d3e404,,,,,,,,,,,,,,,,,,,,onethree,,-2,2.335,,,,,,,,,,,,,,,,,,,,,,,,,,,,,,,,,,"[-0.050999999999999934,-0.6706000000000001,-0.804]","[0.9686000000000001,0.5763999999999998,0.11359999999999992]",-86,-43,1,0,0,response5disk,-2,1,1,0,0,rectangle,-2,1,1,0,0,,1,0.002,0,-2,1,1,0,0,0,2,2,146,1,65,second,,,,,,,,,,,,,,,,,,,,,,,,,,,,,,,,,,,,,,,,,,,,,,,,,,,,,,,,,,,,,,,,,,,
,,,,,,5f7694edc99f3112b494e122,62bbfb34425d1ebfb8460d75,2022-06-29_16h12.27.006,Colour_Asymmetry_Pilot,2022.1.3,Win32,57.67012687,62bbe60bf3d75ef465d3e404,,,,,,,,,,,,,,,,,,,,twofour,,1,1.3,,,,,,,,,,,,,,,,,,,,,,,,,,,,,,,,,,"[0.11359999999999992,0.6312,0.5213999999999999]","[-0.6942,-0.7648,-0.12959999999999994]",46,-103,1,0,0,response3disk,14,0,1,0,0,rectangle,-42,-97,1,0,0,-1,1,3.3,1,2,-3,1,0,0,0,3,3,159,1,78,second,response5disk_3,rectangle,,,,,,,,,,,,,,,,,,,,,,,,,,,,,,,,,,,,,,,,,,,,,,,,,,,,,,,,,,,,,,,,,
,,,,,,5f7694edc99f3112b494e122,62bbfb34425d1ebfb8460d75,2022-06-29_16h12.27.006,Colour_Asymmetry_Pilot,2022.1.3,Win32,57.67012687,62bbe60bf3d75ef465d3e404,,,,,,,,,,,,,,,,,,,,twofour,,-3,1.951,,,,,,,,,,,,,,,,,,,,,,,,,,,,,,,,,,"[-0.6942,-0.7648,-0.12959999999999994]","[0.0351999999999999,0.41159999999999997,0.0038000000000000256]",-86,37,1,0,0,response7disk,-8,0,1,0,0,rectangle,-8,0,1,0,0,-1,3,0.004,0,-8,0,1,0,0,0,4,4,90,1,9,second,,,,,,,,,,,,,,,,,,,,,,,,,,,,,,,,,,,,,,,,,,,,,,,,,,,,,,,,,,,,,,,,,,,
,,,,,,5f7694edc99f3112b494e122,62bbfb34425d1ebfb8460d75,2022-06-29_16h12.27.006,Colour_Asymmetry_Pilot,2022.1.3,Win32,57.67012687,62bbe60bf3d75ef465d3e404,,,,,,,,,,,,,,,,,,,,fourtwo,,-4,0.751,,,,,,,,,,,,,,,,,,,,,,,,,,,,,,,,,,"[0.12939999999999996,-0.2864,0.3253999999999999]","[-0.9844,-0.9688,-0.9922]",-38,92,1,0,0,response7disk,-11,-5,1,0,0,rectangle,-11,-5,1,0,0,-1,3,0.002,0,-11,-5,1,0,0,0,5,5,123,1,42,second,,,,,,,,,,,,,,,,,,,,,,,,,,,,,,,,,,,,,,,,,,,,,,,,,,,,,,,,,,,,,,,,,,,
,,,,,,5f7694edc99f3112b494e122,62bbfb34425d1ebfb8460d75,2022-06-29_16h12.27.006,Colour_Asymmetry_Pilot,2022.1.3,Win32,57.67012687,62bbe60bf3d75ef465d3e404,,,,,,,,,,,,,,,,,,,,threefour,,-4,0.916,,,,,,,,,,,,,,,,,,,,,,,,,,,,,,,,,,"[-0.6942,-0.7648,-0.12959999999999994]","[0.6625999999999999,0.4980000000000002,-0.357]",-39,99,1,0,0,response7disk,-12,1,1,0,0,rectangle,-12,1,1,0,0,-1,3,0.001,0,-12,1,1,0,0,0,6,6,122,1,41,second,,,,,,,,,,,,,,,,,,,,,,,,,,,,,,,,,,,,,,,,,,,,,,,,,,,,,,,,,,,,,,,,,,,
,,,,,,5f7694edc99f3112b494e122,62bbfb34425d1ebfb8460d75,2022-06-29_16h12.27.006,Colour_Asymmetry_Pilot,2022.1.3,Win32,57.67012687,62bbe60bf3d75ef465d3e404,,,,,,,,,,,,,,,,,,,,twoone,,-4,1.433,,,,,,,,,,,,,,,,,,,,,,,,,,,,,,,,,,"[-0.0040000000000000036,0.02739999999999987,-0.08239999999999992]","[-0.26280000000000003,-0.2158,-0.3256]",-34,98,1,0,0,response7disk,13,3,1,0,0,rectangle,13,3,1,0,0,-1,1,0.002,0,13,3,1,0,0,0,7,7,79,1,79,first,,,,,,,,,,,,,,,,,,,,,,,,,,,,,,,,,,,,,,,,,,,,,,,,,,,,,,,,,,,,,,,,,,,
,,,,,,5f7694edc99f3112b494e122,62bbfb34425d1ebfb8460d75,2022-06-29_16h12.27.006,Colour_Asymmetry_Pilot,2022.1.3,Win32,57.67012687,62bbe60bf3d75ef465d3e404,,,,,,,,,,,,,,,,,,,,fourthree,,-4,0.716,,,,,,,,,,,,,,,,,,,,,,,,,,,,,,,,,,"[-0.30200000000000005,0.14500000000000002,0.2784]","[-0.7412000000000001,-0.08239999999999992,-0.6864]",-39,101,1,0,0,response7disk,4,2,1,0,0,rectangle,4,2,1,0,0,-1,3,0.002,0,4,2,1,0,0,0,8,8,107,1,26,second,,,,,,,,,,,,,,,,,,,,,,,,,,,,,,,,,,,,,,,,,,,,,,,,,,,,,,,,,,,,,,,,,,,
,,,,,,5f7694edc99f3112b494e122,62bbfb34425d1ebfb8460d75,2022-06-29_16h12.27.006,Colour_Asymmetry_Pilot,2022.1.3,Win32,57.67012687,62bbe60bf3d75ef465d3e404,,,,,,,,,,,,,,,,,,,,twoone,,-4,0.547,,,,,,,,,,,,,,,,,,,,,,,,,,,,,,,,,,"[-0.5688,-0.08239999999999992,-0.1844]","[0.796,0.2156,-0.27859999999999996]",-38,92,1,0,0,response7disk,-10,2,1,0,0,rectangle,-10,2,1,0,0,-1,2,0.002,0,-10,2,1,0,0,0,9,9,81,1,0,second,,,,,,,,,,,,,,,,,,,,,,,,,,,,,,,,,,,,,,,,,,,,,,,,,,,,,,,,,,,,,,,,,,,
,,,,,,5f7694edc99f3112b494e122,62bbfb34425d1ebfb8460d75,2022-06-29_16h12.27.006,Colour_Asymmetry_Pilot,2022.1.3,Win32,57.67012687,62bbe60bf3d75ef465d3e404,,,,,,,,,,,,,,,,,,,,twofour,,2,2.085,,,,,,,,,,,,,,,,,,,,,,,,,,,,,,,,,,"[-0.050999999999999934,-0.6706000000000001,-0.804]","[0.18419999999999992,-0.4276,-0.404]",89,-34,1,0,0,response3disk,8,-5,1,0,0,rectangle,8,-5,1,0,0,-1,1,0.002,0,8,-5,1,0,0,0,10,10,30,1,30,first,,,,,,,,,,,,,,,,,,,,,,,,,,,,,,,,,,,,,,,,,,,,,,,,,,,,,,,,,,,,,,,,,,,
,,,,,,5f7694edc99f3112b494e122,62bbfb34425d1ebfb8460d75,2022-06-29_16h12.27.006,Colour_Asymmetry_Pilot,2022.1.3,Win32,57.67012687,62bbe60bf3d75ef465d3e404,,,,,,,,,,,,,,,,,,,,threefour,,-2,2.35,,,,,,,,,,,,,,,,,,,,,,,,,,,,,,,,,,"[0.0351999999999999,0.41159999999999997,0.0038000000000000256]","[-0.9296,-0.12959999999999994,-0.043199999999999905]",-81,-32,1,0,0,response5disk,-1,-4,1,0,0,rectangle,-1,-4,1,0,0,-1,2,0,0,-1,-4,1,0,0,0,11,11,110,1,29,second,,,,,,,,,,,,,,,,,,,,,,,,,,,,,,,,,,,,,,,,,,,,,,,,,,,,,,,,,,,,,,,,,,,
,,,,,,5f7694edc99f3112b494e122,62bbfb34425d1ebfb8460d75,2022-06-29_16h12.27.006,Colour_Asymmetry_Pilot,2022.1.3,Win32,57.67012687,62bbe60bf3d75ef465d3e404,,,,,,,,,,,,,,,,,,,,fourthree,,-4,0.6,,,,,,,,,,,,,,,,,,,,,,,,,,,,,,,,,,"[0.3802000000000001,0.19199999999999995,-0.6394]","[0.3881999999999999,-0.23939999999999995,-0.05040000000000011]",-37,96,1,0,0,response7disk,-4,-5,1,0,0,rectangle,-4,-5,1,0,0,-1,2,0.001,0,-4,-5,1,0,0,0,12,12,92,1,11,second,,,,,,,,,,,,,,,,,,,,,,,,,,,,,,,,,,,,,,,,,,,,,,,,,,,,,,,,,,,,,,,,,,,
,,,,,,5f7694edc99f3112b494e122,62bbfb34425d1ebfb8460d75,2022-06-29_16h12.27.006,Colour_Asymmetry_Pilot,2022.1.3,Win32,57.67012687,62bbe60bf3d75ef465d3e404,,,,,,,,,,,,,,,,,,,,onethree,,-1,1.035,,,,,,,,,,,,,,,,,,,,,,,,,,,,,,,,,,"[0.8115999999999999,-0.0040000000000000036,-0.09819999999999995]","[0.40379999999999994,0.09000000000000008,0.44300000000000006]",-44,-99,1,0,0,response5disk,7,10,1,0,0,rectangle,7,10,1,0,0,-1,1,0.003,0,7,10,1,0,0,0,13,13,8,1,8,first,,,,,,,,,,,,,,,,,,,,,,,,,,,,,,,,,,,,,,,,,,,,,,,,,,,,,,,,,,,,,,,,,,,
,,,,,,5f7694edc99f3112b494e122,62bbfb34425d1ebfb8460d75,2022-06-29_16h12.27.006,Colour_Asymmetry_Pilot,2022.1.3,Win32,57.67012687,62bbe60bf3d75ef465d3e404,,,,,,,,,,,,,,,,,,,,threeone,,-4,0.851,,,,,,,,,,,,,,,,,,,,,,,,,,,,,,,,,,"[-0.07459999999999989,0.12139999999999995,-0.9922]","[-0.9296,-0.12959999999999994,-0.043199999999999905]",-43,101,1,0,0,response7disk,11,-3,1,0,0,rectangle,11,-3,1,0,0,-1,1,0,0,11,-3,1,0,0,0,14,14,66,1,66,first,,,,,,,,,,,,,,,,,,,,,,,,,,,,,,,,,,,,,,,,,,,,,,,,,,,,,,,,,,,,,,,,,,,
,,,,,,5f7694edc99f3112b494e122,62bbfb34425d1ebfb8460d75,2022-06-29_16h12.27.006,Colour_Asymmetry_Pilot,2022.1.3,Win32,57.67012687,62bbe60bf3d75ef465d3e404,,,,,,,,,,,,,,,,,,,,twoone,,-3,1.601,,,,,,,,,,,,,,,,,,,,,,,,,,,,,,,,,,"[-0.26280000000000003,-0.2158,-0.3256]","[-0.0040000000000000036,0.02739999999999987,-0.08239999999999992]",-92,29,1,0,0,response7disk,-5,2,1,0,0,rectangle,39,-98,1,0,0,1,1,2.349,1,4,6,1,0,0,0,15,15,160,1,79,second,response3disk_3,rectangle,,,,,,,,,,,,,,,,,,,,,,,,,,,,,,,,,,,,,,,,,,,,,,,,,,,,,,,,,,,,,,,,,
,,,,,,5f7694edc99f3112b494e122,62bbfb34425d1ebfb8460d75,2022-06-29_16h12.27.006,Colour_Asymmetry_Pilot,2022.1.3,Win32,57.67012687,62bbe60bf3d75ef465d3e404,,,,,,,,,,,,,,,,,,,,twofour,,-4,1.465,,,,,,,,,,,,,,,,,,,,,,,,,,,,,,,,,,"[-0.0040000000000000036,0.02739999999999987,-0.08239999999999992]","[1,0.12939999999999996,-1]",-41,100,1,0,0,response7disk,-2,2,1,0,0,rectangle,-2,2,1,0,0,1,1,0,0,-2,2,1,0,0,0,16,16,45,1,45,first,,,,,,,,,,,,,,,,,,,,,,,,,,,,,,,,,,,,,,,,,,,,,,,,,,,,,,,,,,,,,,,,,,,
,,,,,,5f7694edc99f3112b494e122,62bbfb34425d1ebfb8460d75,2022-06-29_16h12.27.006,Colour_Asymmetry_Pilot,2022.1.3,Win32,57.67012687,62bbe60bf3d75ef465d3e404,,,,,,,,,,,,,,,,,,,,threefour,,-4,0.899,,,,,,,,,,,,,,,,,,,,,,,,,,,,,,,,,,"[0.37240000000000006,0.4980000000000002,-0.2864]","[-0.6235999999999999,-0.6786,-0.08239999999999992]",-30,97,1,0,0,response7disk,-4,1,1,0,0,rectangle,-4,1,1,0,0,1,3,0.003,0,-4,1,1,0,0,0,17,17,133,1,52,second,,,,,,,,,,,,,,,,,,,,,,,,,,,,,,,,,,,,,,,,,,,,,,,,,,,,,,,,,,,,,,,,,,,
,,,,,,5f7694edc99f3112b494e122,62bbfb34425d1ebfb8460d75,2022-06-29_16h12.27.006,Colour_Asymmetry_Pilot,2022.1.3,Win32,57.67012687,62bbe60bf3d75ef465d3e404,,,,,,,,,,,,,,,,,,,,onetwo,,-4,0.716,,,,,,,,,,,,,,,,,,,,,,,,,,,,,,,,,,"[0.9763999999999999,-0.1137999999999999,-0.6314]","[-0.9688,-0.4902000000000001,-0.12159999999999993]",-44,98,1,0,0,response7disk,4,0,1,0,0,rectangle,4,0,1,0,0,1,2,0.002,0,4,0,1,0,0,0,18,18,150,1,69,second,,,,,,,,,,,,,,,,,,,,,,,,,,,,,,,,,,,,,,,,,,,,,,,,,,,,,,,,,,,,,,,,,,,
,,,,,,5f7694edc99f3112b494e122,62bbfb34425d1ebfb8460d75,2022-06-29_16h12.27.006,Colour_Asymmetry_Pilot,2022.1.3,Win32,57.67012687,62bbe60bf3d75ef465d3e404,,,,,,,,,,,,,,,,,,,,fourtwo,,3,1.319,,,,,,,,,,,,,,,,,,,,,,,,,,,,,,,,,,"[-0.4746,-0.0354000000000001,0.5449999999999999]","[-0.9296,-0.12959999999999994,-0.043199999999999905]",99,36,1,0,0,response1disk,4,4,1,0,0,rectangle,4,4,1,0,0,1,2,0,0,4,4,1,0,0,0,19,19,34,1,34,first,,,,,,,,,,,,,,,,,,,,,,,,,,,,,,,,,,,,,,,,,,,,,,,,,,,,,,,,,,,,,,,,,,,
,,,,,,5f7694edc99f3112b494e122,62bbfb34425d1ebfb8460d75,2022-06-29_16h12.27.006,Colour_Asymmetry_Pilot,2022.1.3,Win32,57.67012687,62bbe60bf3d75ef465d3e404,,,,,,,,,,,,,,,,,,,,onetwo,,-4,0.536,,,,,,,,,,,,,,,,,,,,,,,,,,,,,,,,,,"[0.23120000000000007,-0.7726,-0.34120000000000006]","[-0.7412000000000001,-0.08239999999999992,-0.6864]",-40,98,1,0,0,response7disk,-14,1,1,0,0,rectangle,-14,1,1,0,0,1,3,0.002,0,-14,1,1,0,0,0,20,20,87,1,6,second,,,,,,,,,,,,,,,,,,,,,,,,,,,,,,,,,,,,,,,,,,,,,,,,,,,,,,,,,,,,,,,,,,,
