trials.thisRepN,trials.thisTrialN,trials.thisN,trials.thisIndex,trials.ran,Colourcodes,participant,session,date,expName,psychopyVersion,OS,frameRate,study_id,trials_4.thisRepN,trials_4.thisTrialN,trials_4.thisN,trials_4.thisIndex,trials_4.ran,StimulusPos,key_resp.keys,key_resp.rt,key_resp_2.keys,key_resp_2.rt,key_resp_15.keys,key_resp_15.rt,key_resp_17.keys,key_resp_17.rt,key_resp_9.keys,key_resp_9.rt,key_resp_10.keys,key_resp_10.rt,Circle1_col,Ecc,Circle2_col,similarity,response_time,mouse_5.x,mouse_5.y,mouse_5.leftButton,mouse_5.midButton,mouse_5.rightButton,mouse_5.clicked_name,mouse_10.x,mouse_10.y,mouse_10.leftButton,mouse_10.midButton,mouse_10.rightButton,mouse_10.clicked_name,mouse_7.x,mouse_7.y,mouse_7.leftButton,mouse_7.midButton,mouse_7.rightButton,mouse_7.clicked_name,catchprac,catchnumberprac,mouse_6.x,mouse_6.y,mouse_6.leftButton,mouse_6.midButton,mouse_6.rightButton,mouse_6.clicked_name,duringprac.thisRepN,duringprac.thisTrialN,duringprac.thisN,duringprac.thisIndex,duringprac.ran,key_resp_22.keys,key_resp_22.rt,Circle1_colour,Circle2_colour,mouse.x,mouse.y,mouse.leftButton,mouse.midButton,mouse.rightButton,mouse.clicked_name,mouse_2.x,mouse_2.y,mouse_2.leftButton,mouse_2.midButton,mouse_2.rightButton,mouse_2.clicked_name,mouse_3.x,mouse_3.y,mouse_3.leftButton,mouse_3.midButton,mouse_3.rightButton,catchresponse,catchnumber,response_time_catch,Catch,mouse_11.x,mouse_11.y,mouse_11.leftButton,mouse_11.midButton,mouse_11.rightButton,trials_2.thisRepN,trials_2.thisTrialN,trials_2.thisN,trials_2.thisIndex,trials_2.ran,Colourpair,Temporder,mouse_3.clicked_name,mouse_11.clicked_name,trials_3.thisRepN,trials_3.thisTrialN,trials_3.thisN,trials_3.thisIndex,trials_3.ran,key_resp_instr_Ishi.keys,key_resp_instr_Ishi.rt,Ishi_trial_keyresp.keys,Ishi_trial_keyresp.rt,Ishi_textbox.text,Ishi_loop.thisRepN,Ishi_loop.thisTrialN,Ishi_loop.thisN,Ishi_loop.thisIndex,Ishi_loop.ran,imageaddress,textbox.text,mouse_4.x,mouse_4.y,mouse_4.leftButton,mouse_4.midButton,mouse_4.rightButton,mouse_4.clicked_name,textbox_2.text,mouse_8.x,mouse_8.y,mouse_8.leftButton,mouse_8.midButton,mouse_8.rightButton,mouse_8.clicked_name,textbox_3.text,mouse_9.x,mouse_9.y,mouse_9.leftButton,mouse_9.midButton,mouse_9.rightButton,mouse_9.clicked_name,textbox_4.text,mouse_12.x,mouse_12.y,mouse_12.leftButton,mouse_12.midButton,mouse_12.rightButton,mouse_12.clicked_name,textbox_5.text,mouse_13.x,mouse_13.y,mouse_13.leftButton,mouse_13.midButton,mouse_13.rightButton,mouse_13.clicked_name,textbox_6.text,mouse_14.x,mouse_14.y,mouse_14.leftButton,mouse_14.midButton,mouse_14.rightButton,mouse_14.clicked_name,textbox_7.text,mouse_15.x,mouse_15.y,mouse_15.leftButton,mouse_15.midButton,mouse_15.rightButton,mouse_15.clicked_name
0,0,0,19,1,,6090b0a0a3289699f1b4917e,62b2ac347935510ec371576c,2022-06-22_01h45.05.004,Colour_Asymmetry_Pilot,2022.1.3,Win32,60.04924038,62b2a6a25f2ba72662469a01,,,,,,,,,,,,,,,,,,,,,,,,,,,,,,,,,,,,,,,,,,,,,,,,,,,,,,,,,,,,,,,,,,,,,,,,,,,,,,,,,,,,,,,,,,,,,,,,,,,,,,,,,,,,,,,,,,,,,,,,,,,,,,,,,,,,,,,,,,,,,,,,,,,,,,,,,,,,,,
0,1,1,84,1,,6090b0a0a3289699f1b4917e,62b2ac347935510ec371576c,2022-06-22_01h45.05.004,Colour_Asymmetry_Pilot,2022.1.3,Win32,60.04924038,62b2a6a25f2ba72662469a01,,,,,,,,,,,,,,,,,,,,,,,,,,,,,,,,,,,,,,,,,,,,,,,,,,,,,,,,,,,,,,,,,,,,,,,,,,,,,,,,,,,,,,,,,,,,,,,,,,,,,,,,,,,,,,,,,,,,,,,,,,,,,,,,,,,,,,,,,,,,,,,,,,,,,,,,,,,,,,
0,2,2,13,1,,6090b0a0a3289699f1b4917e,62b2ac347935510ec371576c,2022-06-22_01h45.05.004,Colour_Asymmetry_Pilot,2022.1.3,Win32,60.04924038,62b2a6a25f2ba72662469a01,,,,,,,,,,,,,,,,,,,,,,,,,,,,,,,,,,,,,,,,,,,,,,,,,,,,,,,,,,,,,,,,,,,,,,,,,,,,,,,,,,,,,,,,,,,,,,,,,,,,,,,,,,,,,,,,,,,,,,,,,,,,,,,,,,,,,,,,,,,,,,,,,,,,,,,,,,,,,,
0,3,3,48,1,,6090b0a0a3289699f1b4917e,62b2ac347935510ec371576c,2022-06-22_01h45.05.004,Colour_Asymmetry_Pilot,2022.1.3,Win32,60.04924038,62b2a6a25f2ba72662469a01,,,,,,,,,,,,,,,,,,,,,,,,,,,,,,,,,,,,,,,,,,,,,,,,,,,,,,,,,,,,,,,,,,,,,,,,,,,,,,,,,,,,,,,,,,,,,,,,,,,,,,,,,,,,,,,,,,,,,,,,,,,,,,,,,,,,,,,,,,,,,,,,,,,,,,,,,,,,,,
0,4,4,7,1,,6090b0a0a3289699f1b4917e,62b2ac347935510ec371576c,2022-06-22_01h45.05.004,Colour_Asymmetry_Pilot,2022.1.3,Win32,60.04924038,62b2a6a25f2ba72662469a01,,,,,,,,,,,,,,,,,,,,,,,,,,,,,,,,,,,,,,,,,,,,,,,,,,,,,,,,,,,,,,,,,,,,,,,,,,,,,,,,,,,,,,,,,,,,,,,,,,,,,,,,,,,,,,,,,,,,,,,,,,,,,,,,,,,,,,,,,,,,,,,,,,,,,,,,,,,,,,
0,5,5,20,1,,6090b0a0a3289699f1b4917e,62b2ac347935510ec371576c,2022-06-22_01h45.05.004,Colour_Asymmetry_Pilot,2022.1.3,Win32,60.04924038,62b2a6a25f2ba72662469a01,,,,,,,,,,,,,,,,,,,,,,,,,,,,,,,,,,,,,,,,,,,,,,,,,,,,,,,,,,,,,,,,,,,,,,,,,,,,,,,,,,,,,,,,,,,,,,,,,,,,,,,,,,,,,,,,,,,,,,,,,,,,,,,,,,,,,,,,,,,,,,,,,,,,,,,,,,,,,,
0,6,6,55,1,,6090b0a0a3289699f1b4917e,62b2ac347935510ec371576c,2022-06-22_01h45.05.004,Colour_Asymmetry_Pilot,2022.1.3,Win32,60.04924038,62b2a6a25f2ba72662469a01,,,,,,,,,,,,,,,,,,,,,,,,,,,,,,,,,,,,,,,,,,,,,,,,,,,,,,,,,,,,,,,,,,,,,,,,,,,,,,,,,,,,,,,,,,,,,,,,,,,,,,,,,,,,,,,,,,,,,,,,,,,,,,,,,,,,,,,,,,,,,,,,,,,,,,,,,,,,,,
0,7,7,30,1,,6090b0a0a3289699f1b4917e,62b2ac347935510ec371576c,2022-06-22_01h45.05.004,Colour_Asymmetry_Pilot,2022.1.3,Win32,60.04924038,62b2a6a25f2ba72662469a01,,,,,,,,,,,,,,,,,,,,,,,,,,,,,,,,,,,,,,,,,,,,,,,,,,,,,,,,,,,,,,,,,,,,,,,,,,,,,,,,,,,,,,,,,,,,,,,,,,,,,,,,,,,,,,,,,,,,,,,,,,,,,,,,,,,,,,,,,,,,,,,,,,,,,,,,,,,,,,
0,8,8,18,1,,6090b0a0a3289699f1b4917e,62b2ac347935510ec371576c,2022-06-22_01h45.05.004,Colour_Asymmetry_Pilot,2022.1.3,Win32,60.04924038,62b2a6a25f2ba72662469a01,,,,,,,,,,,,,,,,,,,,,,,,,,,,,,,,,,,,,,,,,,,,,,,,,,,,,,,,,,,,,,,,,,,,,,,,,,,,,,,,,,,,,,,,,,,,,,,,,,,,,,,,,,,,,,,,,,,,,,,,,,,,,,,,,,,,,,,,,,,,,,,,,,,,,,,,,,,,,,
0,9,9,39,1,,6090b0a0a3289699f1b4917e,62b2ac347935510ec371576c,2022-06-22_01h45.05.004,Colour_Asymmetry_Pilot,2022.1.3,Win32,60.04924038,62b2a6a25f2ba72662469a01,,,,,,,,,,,,,,,,,,,,,,,,,,,,,,,,,,,,,,,,,,,,,,,,,,,,,,,,,,,,,,,,,,,,,,,,,,,,,,,,,,,,,,,,,,,,,,,,,,,,,,,,,,,,,,,,,,,,,,,,,,,,,,,,,,,,,,,,,,,,,,,,,,,,,,,,,,,,,,
0,10,10,12,1,,6090b0a0a3289699f1b4917e,62b2ac347935510ec371576c,2022-06-22_01h45.05.004,Colour_Asymmetry_Pilot,2022.1.3,Win32,60.04924038,62b2a6a25f2ba72662469a01,,,,,,,,,,,,,,,,,,,,,,,,,,,,,,,,,,,,,,,,,,,,,,,,,,,,,,,,,,,,,,,,,,,,,,,,,,,,,,,,,,,,,,,,,,,,,,,,,,,,,,,,,,,,,,,,,,,,,,,,,,,,,,,,,,,,,,,,,,,,,,,,,,,,,,,,,,,,,,
0,11,11,91,1,,6090b0a0a3289699f1b4917e,62b2ac347935510ec371576c,2022-06-22_01h45.05.004,Colour_Asymmetry_Pilot,2022.1.3,Win32,60.04924038,62b2a6a25f2ba72662469a01,,,,,,,,,,,,,,,,,,,,,,,,,,,,,,,,,,,,,,,,,,,,,,,,,,,,,,,,,,,,,,,,,,,,,,,,,,,,,,,,,,,,,,,,,,,,,,,,,,,,,,,,,,,,,,,,,,,,,,,,,,,,,,,,,,,,,,,,,,,,,,,,,,,,,,,,,,,,,,
0,12,12,67,1,,6090b0a0a3289699f1b4917e,62b2ac347935510ec371576c,2022-06-22_01h45.05.004,Colour_Asymmetry_Pilot,2022.1.3,Win32,60.04924038,62b2a6a25f2ba72662469a01,,,,,,,,,,,,,,,,,,,,,,,,,,,,,,,,,,,,,,,,,,,,,,,,,,,,,,,,,,,,,,,,,,,,,,,,,,,,,,,,,,,,,,,,,,,,,,,,,,,,,,,,,,,,,,,,,,,,,,,,,,,,,,,,,,,,,,,,,,,,,,,,,,,,,,,,,,,,,,
0,13,13,63,1,,6090b0a0a3289699f1b4917e,62b2ac347935510ec371576c,2022-06-22_01h45.05.004,Colour_Asymmetry_Pilot,2022.1.3,Win32,60.04924038,62b2a6a25f2ba72662469a01,,,,,,,,,,,,,,,,,,,,,,,,,,,,,,,,,,,,,,,,,,,,,,,,,,,,,,,,,,,,,,,,,,,,,,,,,,,,,,,,,,,,,,,,,,,,,,,,,,,,,,,,,,,,,,,,,,,,,,,,,,,,,,,,,,,,,,,,,,,,,,,,,,,,,,,,,,,,,,
0,14,14,69,1,,6090b0a0a3289699f1b4917e,62b2ac347935510ec371576c,2022-06-22_01h45.05.004,Colour_Asymmetry_Pilot,2022.1.3,Win32,60.04924038,62b2a6a25f2ba72662469a01,,,,,,,,,,,,,,,,,,,,,,,,,,,,,,,,,,,,,,,,,,,,,,,,,,,,,,,,,,,,,,,,,,,,,,,,,,,,,,,,,,,,,,,,,,,,,,,,,,,,,,,,,,,,,,,,,,,,,,,,,,,,,,,,,,,,,,,,,,,,,,,,,,,,,,,,,,,,,,
0,15,15,14,1,,6090b0a0a3289699f1b4917e,62b2ac347935510ec371576c,2022-06-22_01h45.05.004,Colour_Asymmetry_Pilot,2022.1.3,Win32,60.04924038,62b2a6a25f2ba72662469a01,,,,,,,,,,,,,,,,,,,,,,,,,,,,,,,,,,,,,,,,,,,,,,,,,,,,,,,,,,,,,,,,,,,,,,,,,,,,,,,,,,,,,,,,,,,,,,,,,,,,,,,,,,,,,,,,,,,,,,,,,,,,,,,,,,,,,,,,,,,,,,,,,,,,,,,,,,,,,,
0,16,16,81,1,,6090b0a0a3289699f1b4917e,62b2ac347935510ec371576c,2022-06-22_01h45.05.004,Colour_Asymmetry_Pilot,2022.1.3,Win32,60.04924038,62b2a6a25f2ba72662469a01,,,,,,,,,,,,,,,,,,,,,,,,,,,,,,,,,,,,,,,,,,,,,,,,,,,,,,,,,,,,,,,,,,,,,,,,,,,,,,,,,,,,,,,,,,,,,,,,,,,,,,,,,,,,,,,,,,,,,,,,,,,,,,,,,,,,,,,,,,,,,,,,,,,,,,,,,,,,,,
0,17,17,80,1,,6090b0a0a3289699f1b4917e,62b2ac347935510ec371576c,2022-06-22_01h45.05.004,Colour_Asymmetry_Pilot,2022.1.3,Win32,60.04924038,62b2a6a25f2ba72662469a01,,,,,,,,,,,,,,,,,,,,,,,,,,,,,,,,,,,,,,,,,,,,,,,,,,,,,,,,,,,,,,,,,,,,,,,,,,,,,,,,,,,,,,,,,,,,,,,,,,,,,,,,,,,,,,,,,,,,,,,,,,,,,,,,,,,,,,,,,,,,,,,,,,,,,,,,,,,,,,
0,18,18,54,1,,6090b0a0a3289699f1b4917e,62b2ac347935510ec371576c,2022-06-22_01h45.05.004,Colour_Asymmetry_Pilot,2022.1.3,Win32,60.04924038,62b2a6a25f2ba72662469a01,,,,,,,,,,,,,,,,,,,,,,,,,,,,,,,,,,,,,,,,,,,,,,,,,,,,,,,,,,,,,,,,,,,,,,,,,,,,,,,,,,,,,,,,,,,,,,,,,,,,,,,,,,,,,,,,,,,,,,,,,,,,,,,,,,,,,,,,,,,,,,,,,,,,,,,,,,,,,,
0,19,19,34,1,,6090b0a0a3289699f1b4917e,62b2ac347935510ec371576c,2022-06-22_01h45.05.004,Colour_Asymmetry_Pilot,2022.1.3,Win32,60.04924038,62b2a6a25f2ba72662469a01,,,,,,,,,,,,,,,,,,,,,,,,,,,,,,,,,,,,,,,,,,,,,,,,,,,,,,,,,,,,,,,,,,,,,,,,,,,,,,,,,,,,,,,,,,,,,,,,,,,,,,,,,,,,,,,,,,,,,,,,,,,,,,,,,,,,,,,,,,,,,,,,,,,,,,,,,,,,,,
0,20,20,77,1,,6090b0a0a3289699f1b4917e,62b2ac347935510ec371576c,2022-06-22_01h45.05.004,Colour_Asymmetry_Pilot,2022.1.3,Win32,60.04924038,62b2a6a25f2ba72662469a01,,,,,,,,,,,,,,,,,,,,,,,,,,,,,,,,,,,,,,,,,,,,,,,,,,,,,,,,,,,,,,,,,,,,,,,,,,,,,,,,,,,,,,,,,,,,,,,,,,,,,,,,,,,,,,,,,,,,,,,,,,,,,,,,,,,,,,,,,,,,,,,,,,,,,,,,,,,,,,
0,21,21,31,1,,6090b0a0a3289699f1b4917e,62b2ac347935510ec371576c,2022-06-22_01h45.05.004,Colour_Asymmetry_Pilot,2022.1.3,Win32,60.04924038,62b2a6a25f2ba72662469a01,,,,,,,,,,,,,,,,,,,,,,,,,,,,,,,,,,,,,,,,,,,,,,,,,,,,,,,,,,,,,,,,,,,,,,,,,,,,,,,,,,,,,,,,,,,,,,,,,,,,,,,,,,,,,,,,,,,,,,,,,,,,,,,,,,,,,,,,,,,,,,,,,,,,,,,,,,,,,,
0,22,22,24,1,,6090b0a0a3289699f1b4917e,62b2ac347935510ec371576c,2022-06-22_01h45.05.004,Colour_Asymmetry_Pilot,2022.1.3,Win32,60.04924038,62b2a6a25f2ba72662469a01,,,,,,,,,,,,,,,,,,,,,,,,,,,,,,,,,,,,,,,,,,,,,,,,,,,,,,,,,,,,,,,,,,,,,,,,,,,,,,,,,,,,,,,,,,,,,,,,,,,,,,,,,,,,,,,,,,,,,,,,,,,,,,,,,,,,,,,,,,,,,,,,,,,,,,,,,,,,,,
0,23,23,38,1,,6090b0a0a3289699f1b4917e,62b2ac347935510ec371576c,2022-06-22_01h45.05.004,Colour_Asymmetry_Pilot,2022.1.3,Win32,60.04924038,62b2a6a25f2ba72662469a01,,,,,,,,,,,,,,,,,,,,,,,,,,,,,,,,,,,,,,,,,,,,,,,,,,,,,,,,,,,,,,,,,,,,,,,,,,,,,,,,,,,,,,,,,,,,,,,,,,,,,,,,,,,,,,,,,,,,,,,,,,,,,,,,,,,,,,,,,,,,,,,,,,,,,,,,,,,,,,
0,24,24,36,1,,6090b0a0a3289699f1b4917e,62b2ac347935510ec371576c,2022-06-22_01h45.05.004,Colour_Asymmetry_Pilot,2022.1.3,Win32,60.04924038,62b2a6a25f2ba72662469a01,,,,,,,,,,,,,,,,,,,,,,,,,,,,,,,,,,,,,,,,,,,,,,,,,,,,,,,,,,,,,,,,,,,,,,,,,,,,,,,,,,,,,,,,,,,,,,,,,,,,,,,,,,,,,,,,,,,,,,,,,,,,,,,,,,,,,,,,,,,,,,,,,,,,,,,,,,,,,,
0,25,25,41,1,,6090b0a0a3289699f1b4917e,62b2ac347935510ec371576c,2022-06-22_01h45.05.004,Colour_Asymmetry_Pilot,2022.1.3,Win32,60.04924038,62b2a6a25f2ba72662469a01,,,,,,,,,,,,,,,,,,,,,,,,,,,,,,,,,,,,,,,,,,,,,,,,,,,,,,,,,,,,,,,,,,,,,,,,,,,,,,,,,,,,,,,,,,,,,,,,,,,,,,,,,,,,,,,,,,,,,,,,,,,,,,,,,,,,,,,,,,,,,,,,,,,,,,,,,,,,,,
0,26,26,26,1,,6090b0a0a3289699f1b4917e,62b2ac347935510ec371576c,2022-06-22_01h45.05.004,Colour_Asymmetry_Pilot,2022.1.3,Win32,60.04924038,62b2a6a25f2ba72662469a01,,,,,,,,,,,,,,,,,,,,,,,,,,,,,,,,,,,,,,,,,,,,,,,,,,,,,,,,,,,,,,,,,,,,,,,,,,,,,,,,,,,,,,,,,,,,,,,,,,,,,,,,,,,,,,,,,,,,,,,,,,,,,,,,,,,,,,,,,,,,,,,,,,,,,,,,,,,,,,
0,27,27,44,1,,6090b0a0a3289699f1b4917e,62b2ac347935510ec371576c,2022-06-22_01h45.05.004,Colour_Asymmetry_Pilot,2022.1.3,Win32,60.04924038,62b2a6a25f2ba72662469a01,,,,,,,,,,,,,,,,,,,,,,,,,,,,,,,,,,,,,,,,,,,,,,,,,,,,,,,,,,,,,,,,,,,,,,,,,,,,,,,,,,,,,,,,,,,,,,,,,,,,,,,,,,,,,,,,,,,,,,,,,,,,,,,,,,,,,,,,,,,,,,,,,,,,,,,,,,,,,,
0,28,28,21,1,,6090b0a0a3289699f1b4917e,62b2ac347935510ec371576c,2022-06-22_01h45.05.004,Colour_Asymmetry_Pilot,2022.1.3,Win32,60.04924038,62b2a6a25f2ba72662469a01,,,,,,,,,,,,,,,,,,,,,,,,,,,,,,,,,,,,,,,,,,,,,,,,,,,,,,,,,,,,,,,,,,,,,,,,,,,,,,,,,,,,,,,,,,,,,,,,,,,,,,,,,,,,,,,,,,,,,,,,,,,,,,,,,,,,,,,,,,,,,,,,,,,,,,,,,,,,,,
0,29,29,27,1,,6090b0a0a3289699f1b4917e,62b2ac347935510ec371576c,2022-06-22_01h45.05.004,Colour_Asymmetry_Pilot,2022.1.3,Win32,60.04924038,62b2a6a25f2ba72662469a01,,,,,,,,,,,,,,,,,,,,,,,,,,,,,,,,,,,,,,,,,,,,,,,,,,,,,,,,,,,,,,,,,,,,,,,,,,,,,,,,,,,,,,,,,,,,,,,,,,,,,,,,,,,,,,,,,,,,,,,,,,,,,,,,,,,,,,,,,,,,,,,,,,,,,,,,,,,,,,
0,30,30,85,1,,6090b0a0a3289699f1b4917e,62b2ac347935510ec371576c,2022-06-22_01h45.05.004,Colour_Asymmetry_Pilot,2022.1.3,Win32,60.04924038,62b2a6a25f2ba72662469a01,,,,,,,,,,,,,,,,,,,,,,,,,,,,,,,,,,,,,,,,,,,,,,,,,,,,,,,,,,,,,,,,,,,,,,,,,,,,,,,,,,,,,,,,,,,,,,,,,,,,,,,,,,,,,,,,,,,,,,,,,,,,,,,,,,,,,,,,,,,,,,,,,,,,,,,,,,,,,,
0,31,31,0,1,,6090b0a0a3289699f1b4917e,62b2ac347935510ec371576c,2022-06-22_01h45.05.004,Colour_Asymmetry_Pilot,2022.1.3,Win32,60.04924038,62b2a6a25f2ba72662469a01,,,,,,,,,,,,,,,,,,,,,,,,,,,,,,,,,,,,,,,,,,,,,,,,,,,,,,,,,,,,,,,,,,,,,,,,,,,,,,,,,,,,,,,,,,,,,,,,,,,,,,,,,,,,,,,,,,,,,,,,,,,,,,,,,,,,,,,,,,,,,,,,,,,,,,,,,,,,,,
0,32,32,40,1,,6090b0a0a3289699f1b4917e,62b2ac347935510ec371576c,2022-06-22_01h45.05.004,Colour_Asymmetry_Pilot,2022.1.3,Win32,60.04924038,62b2a6a25f2ba72662469a01,,,,,,,,,,,,,,,,,,,,,,,,,,,,,,,,,,,,,,,,,,,,,,,,,,,,,,,,,,,,,,,,,,,,,,,,,,,,,,,,,,,,,,,,,,,,,,,,,,,,,,,,,,,,,,,,,,,,,,,,,,,,,,,,,,,,,,,,,,,,,,,,,,,,,,,,,,,,,,
0,33,33,32,1,,6090b0a0a3289699f1b4917e,62b2ac347935510ec371576c,2022-06-22_01h45.05.004,Colour_Asymmetry_Pilot,2022.1.3,Win32,60.04924038,62b2a6a25f2ba72662469a01,,,,,,,,,,,,,,,,,,,,,,,,,,,,,,,,,,,,,,,,,,,,,,,,,,,,,,,,,,,,,,,,,,,,,,,,,,,,,,,,,,,,,,,,,,,,,,,,,,,,,,,,,,,,,,,,,,,,,,,,,,,,,,,,,,,,,,,,,,,,,,,,,,,,,,,,,,,,,,
0,34,34,60,1,,6090b0a0a3289699f1b4917e,62b2ac347935510ec371576c,2022-06-22_01h45.05.004,Colour_Asymmetry_Pilot,2022.1.3,Win32,60.04924038,62b2a6a25f2ba72662469a01,,,,,,,,,,,,,,,,,,,,,,,,,,,,,,,,,,,,,,,,,,,,,,,,,,,,,,,,,,,,,,,,,,,,,,,,,,,,,,,,,,,,,,,,,,,,,,,,,,,,,,,,,,,,,,,,,,,,,,,,,,,,,,,,,,,,,,,,,,,,,,,,,,,,,,,,,,,,,,
0,35,35,10,1,,6090b0a0a3289699f1b4917e,62b2ac347935510ec371576c,2022-06-22_01h45.05.004,Colour_Asymmetry_Pilot,2022.1.3,Win32,60.04924038,62b2a6a25f2ba72662469a01,,,,,,,,,,,,,,,,,,,,,,,,,,,,,,,,,,,,,,,,,,,,,,,,,,,,,,,,,,,,,,,,,,,,,,,,,,,,,,,,,,,,,,,,,,,,,,,,,,,,,,,,,,,,,,,,,,,,,,,,,,,,,,,,,,,,,,,,,,,,,,,,,,,,,,,,,,,,,,
0,36,36,64,1,,6090b0a0a3289699f1b4917e,62b2ac347935510ec371576c,2022-06-22_01h45.05.004,Colour_Asymmetry_Pilot,2022.1.3,Win32,60.04924038,62b2a6a25f2ba72662469a01,,,,,,,,,,,,,,,,,,,,,,,,,,,,,,,,,,,,,,,,,,,,,,,,,,,,,,,,,,,,,,,,,,,,,,,,,,,,,,,,,,,,,,,,,,,,,,,,,,,,,,,,,,,,,,,,,,,,,,,,,,,,,,,,,,,,,,,,,,,,,,,,,,,,,,,,,,,,,,
0,37,37,45,1,,6090b0a0a3289699f1b4917e,62b2ac347935510ec371576c,2022-06-22_01h45.05.004,Colour_Asymmetry_Pilot,2022.1.3,Win32,60.04924038,62b2a6a25f2ba72662469a01,,,,,,,,,,,,,,,,,,,,,,,,,,,,,,,,,,,,,,,,,,,,,,,,,,,,,,,,,,,,,,,,,,,,,,,,,,,,,,,,,,,,,,,,,,,,,,,,,,,,,,,,,,,,,,,,,,,,,,,,,,,,,,,,,,,,,,,,,,,,,,,,,,,,,,,,,,,,,,
0,38,38,42,1,,6090b0a0a3289699f1b4917e,62b2ac347935510ec371576c,2022-06-22_01h45.05.004,Colour_Asymmetry_Pilot,2022.1.3,Win32,60.04924038,62b2a6a25f2ba72662469a01,,,,,,,,,,,,,,,,,,,,,,,,,,,,,,,,,,,,,,,,,,,,,,,,,,,,,,,,,,,,,,,,,,,,,,,,,,,,,,,,,,,,,,,,,,,,,,,,,,,,,,,,,,,,,,,,,,,,,,,,,,,,,,,,,,,,,,,,,,,,,,,,,,,,,,,,,,,,,,
0,39,39,51,1,,6090b0a0a3289699f1b4917e,62b2ac347935510ec371576c,2022-06-22_01h45.05.004,Colour_Asymmetry_Pilot,2022.1.3,Win32,60.04924038,62b2a6a25f2ba72662469a01,,,,,,,,,,,,,,,,,,,,,,,,,,,,,,,,,,,,,,,,,,,,,,,,,,,,,,,,,,,,,,,,,,,,,,,,,,,,,,,,,,,,,,,,,,,,,,,,,,,,,,,,,,,,,,,,,,,,,,,,,,,,,,,,,,,,,,,,,,,,,,,,,,,,,,,,,,,,,,
0,40,40,88,1,,6090b0a0a3289699f1b4917e,62b2ac347935510ec371576c,2022-06-22_01h45.05.004,Colour_Asymmetry_Pilot,2022.1.3,Win32,60.04924038,62b2a6a25f2ba72662469a01,,,,,,,,,,,,,,,,,,,,,,,,,,,,,,,,,,,,,,,,,,,,,,,,,,,,,,,,,,,,,,,,,,,,,,,,,,,,,,,,,,,,,,,,,,,,,,,,,,,,,,,,,,,,,,,,,,,,,,,,,,,,,,,,,,,,,,,,,,,,,,,,,,,,,,,,,,,,,,
0,41,41,66,1,,6090b0a0a3289699f1b4917e,62b2ac347935510ec371576c,2022-06-22_01h45.05.004,Colour_Asymmetry_Pilot,2022.1.3,Win32,60.04924038,62b2a6a25f2ba72662469a01,,,,,,,,,,,,,,,,,,,,,,,,,,,,,,,,,,,,,,,,,,,,,,,,,,,,,,,,,,,,,,,,,,,,,,,,,,,,,,,,,,,,,,,,,,,,,,,,,,,,,,,,,,,,,,,,,,,,,,,,,,,,,,,,,,,,,,,,,,,,,,,,,,,,,,,,,,,,,,
0,42,42,79,1,,6090b0a0a3289699f1b4917e,62b2ac347935510ec371576c,2022-06-22_01h45.05.004,Colour_Asymmetry_Pilot,2022.1.3,Win32,60.04924038,62b2a6a25f2ba72662469a01,,,,,,,,,,,,,,,,,,,,,,,,,,,,,,,,,,,,,,,,,,,,,,,,,,,,,,,,,,,,,,,,,,,,,,,,,,,,,,,,,,,,,,,,,,,,,,,,,,,,,,,,,,,,,,,,,,,,,,,,,,,,,,,,,,,,,,,,,,,,,,,,,,,,,,,,,,,,,,
0,43,43,49,1,,6090b0a0a3289699f1b4917e,62b2ac347935510ec371576c,2022-06-22_01h45.05.004,Colour_Asymmetry_Pilot,2022.1.3,Win32,60.04924038,62b2a6a25f2ba72662469a01,,,,,,,,,,,,,,,,,,,,,,,,,,,,,,,,,,,,,,,,,,,,,,,,,,,,,,,,,,,,,,,,,,,,,,,,,,,,,,,,,,,,,,,,,,,,,,,,,,,,,,,,,,,,,,,,,,,,,,,,,,,,,,,,,,,,,,,,,,,,,,,,,,,,,,,,,,,,,,
0,44,44,56,1,,6090b0a0a3289699f1b4917e,62b2ac347935510ec371576c,2022-06-22_01h45.05.004,Colour_Asymmetry_Pilot,2022.1.3,Win32,60.04924038,62b2a6a25f2ba72662469a01,,,,,,,,,,,,,,,,,,,,,,,,,,,,,,,,,,,,,,,,,,,,,,,,,,,,,,,,,,,,,,,,,,,,,,,,,,,,,,,,,,,,,,,,,,,,,,,,,,,,,,,,,,,,,,,,,,,,,,,,,,,,,,,,,,,,,,,,,,,,,,,,,,,,,,,,,,,,,,
0,45,45,50,1,,6090b0a0a3289699f1b4917e,62b2ac347935510ec371576c,2022-06-22_01h45.05.004,Colour_Asymmetry_Pilot,2022.1.3,Win32,60.04924038,62b2a6a25f2ba72662469a01,,,,,,,,,,,,,,,,,,,,,,,,,,,,,,,,,,,,,,,,,,,,,,,,,,,,,,,,,,,,,,,,,,,,,,,,,,,,,,,,,,,,,,,,,,,,,,,,,,,,,,,,,,,,,,,,,,,,,,,,,,,,,,,,,,,,,,,,,,,,,,,,,,,,,,,,,,,,,,
0,46,46,73,1,,6090b0a0a3289699f1b4917e,62b2ac347935510ec371576c,2022-06-22_01h45.05.004,Colour_Asymmetry_Pilot,2022.1.3,Win32,60.04924038,62b2a6a25f2ba72662469a01,,,,,,,,,,,,,,,,,,,,,,,,,,,,,,,,,,,,,,,,,,,,,,,,,,,,,,,,,,,,,,,,,,,,,,,,,,,,,,,,,,,,,,,,,,,,,,,,,,,,,,,,,,,,,,,,,,,,,,,,,,,,,,,,,,,,,,,,,,,,,,,,,,,,,,,,,,,,,,
0,47,47,37,1,,6090b0a0a3289699f1b4917e,62b2ac347935510ec371576c,2022-06-22_01h45.05.004,Colour_Asymmetry_Pilot,2022.1.3,Win32,60.04924038,62b2a6a25f2ba72662469a01,,,,,,,,,,,,,,,,,,,,,,,,,,,,,,,,,,,,,,,,,,,,,,,,,,,,,,,,,,,,,,,,,,,,,,,,,,,,,,,,,,,,,,,,,,,,,,,,,,,,,,,,,,,,,,,,,,,,,,,,,,,,,,,,,,,,,,,,,,,,,,,,,,,,,,,,,,,,,,
0,48,48,46,1,,6090b0a0a3289699f1b4917e,62b2ac347935510ec371576c,2022-06-22_01h45.05.004,Colour_Asymmetry_Pilot,2022.1.3,Win32,60.04924038,62b2a6a25f2ba72662469a01,,,,,,,,,,,,,,,,,,,,,,,,,,,,,,,,,,,,,,,,,,,,,,,,,,,,,,,,,,,,,,,,,,,,,,,,,,,,,,,,,,,,,,,,,,,,,,,,,,,,,,,,,,,,,,,,,,,,,,,,,,,,,,,,,,,,,,,,,,,,,,,,,,,,,,,,,,,,,,
0,49,49,35,1,,6090b0a0a3289699f1b4917e,62b2ac347935510ec371576c,2022-06-22_01h45.05.004,Colour_Asymmetry_Pilot,2022.1.3,Win32,60.04924038,62b2a6a25f2ba72662469a01,,,,,,,,,,,,,,,,,,,,,,,,,,,,,,,,,,,,,,,,,,,,,,,,,,,,,,,,,,,,,,,,,,,,,,,,,,,,,,,,,,,,,,,,,,,,,,,,,,,,,,,,,,,,,,,,,,,,,,,,,,,,,,,,,,,,,,,,,,,,,,,,,,,,,,,,,,,,,,
0,50,50,22,1,,6090b0a0a3289699f1b4917e,62b2ac347935510ec371576c,2022-06-22_01h45.05.004,Colour_Asymmetry_Pilot,2022.1.3,Win32,60.04924038,62b2a6a25f2ba72662469a01,,,,,,,,,,,,,,,,,,,,,,,,,,,,,,,,,,,,,,,,,,,,,,,,,,,,,,,,,,,,,,,,,,,,,,,,,,,,,,,,,,,,,,,,,,,,,,,,,,,,,,,,,,,,,,,,,,,,,,,,,,,,,,,,,,,,,,,,,,,,,,,,,,,,,,,,,,,,,,
0,51,51,5,1,,6090b0a0a3289699f1b4917e,62b2ac347935510ec371576c,2022-06-22_01h45.05.004,Colour_Asymmetry_Pilot,2022.1.3,Win32,60.04924038,62b2a6a25f2ba72662469a01,,,,,,,,,,,,,,,,,,,,,,,,,,,,,,,,,,,,,,,,,,,,,,,,,,,,,,,,,,,,,,,,,,,,,,,,,,,,,,,,,,,,,,,,,,,,,,,,,,,,,,,,,,,,,,,,,,,,,,,,,,,,,,,,,,,,,,,,,,,,,,,,,,,,,,,,,,,,,,
0,52,52,25,1,,6090b0a0a3289699f1b4917e,62b2ac347935510ec371576c,2022-06-22_01h45.05.004,Colour_Asymmetry_Pilot,2022.1.3,Win32,60.04924038,62b2a6a25f2ba72662469a01,,,,,,,,,,,,,,,,,,,,,,,,,,,,,,,,,,,,,,,,,,,,,,,,,,,,,,,,,,,,,,,,,,,,,,,,,,,,,,,,,,,,,,,,,,,,,,,,,,,,,,,,,,,,,,,,,,,,,,,,,,,,,,,,,,,,,,,,,,,,,,,,,,,,,,,,,,,,,,
0,53,53,8,1,,6090b0a0a3289699f1b4917e,62b2ac347935510ec371576c,2022-06-22_01h45.05.004,Colour_Asymmetry_Pilot,2022.1.3,Win32,60.04924038,62b2a6a25f2ba72662469a01,,,,,,,,,,,,,,,,,,,,,,,,,,,,,,,,,,,,,,,,,,,,,,,,,,,,,,,,,,,,,,,,,,,,,,,,,,,,,,,,,,,,,,,,,,,,,,,,,,,,,,,,,,,,,,,,,,,,,,,,,,,,,,,,,,,,,,,,,,,,,,,,,,,,,,,,,,,,,,
0,54,54,82,1,,6090b0a0a3289699f1b4917e,62b2ac347935510ec371576c,2022-06-22_01h45.05.004,Colour_Asymmetry_Pilot,2022.1.3,Win32,60.04924038,62b2a6a25f2ba72662469a01,,,,,,,,,,,,,,,,,,,,,,,,,,,,,,,,,,,,,,,,,,,,,,,,,,,,,,,,,,,,,,,,,,,,,,,,,,,,,,,,,,,,,,,,,,,,,,,,,,,,,,,,,,,,,,,,,,,,,,,,,,,,,,,,,,,,,,,,,,,,,,,,,,,,,,,,,,,,,,
0,55,55,61,1,,6090b0a0a3289699f1b4917e,62b2ac347935510ec371576c,2022-06-22_01h45.05.004,Colour_Asymmetry_Pilot,2022.1.3,Win32,60.04924038,62b2a6a25f2ba72662469a01,,,,,,,,,,,,,,,,,,,,,,,,,,,,,,,,,,,,,,,,,,,,,,,,,,,,,,,,,,,,,,,,,,,,,,,,,,,,,,,,,,,,,,,,,,,,,,,,,,,,,,,,,,,,,,,,,,,,,,,,,,,,,,,,,,,,,,,,,,,,,,,,,,,,,,,,,,,,,,
0,56,56,70,1,,6090b0a0a3289699f1b4917e,62b2ac347935510ec371576c,2022-06-22_01h45.05.004,Colour_Asymmetry_Pilot,2022.1.3,Win32,60.04924038,62b2a6a25f2ba72662469a01,,,,,,,,,,,,,,,,,,,,,,,,,,,,,,,,,,,,,,,,,,,,,,,,,,,,,,,,,,,,,,,,,,,,,,,,,,,,,,,,,,,,,,,,,,,,,,,,,,,,,,,,,,,,,,,,,,,,,,,,,,,,,,,,,,,,,,,,,,,,,,,,,,,,,,,,,,,,,,
0,57,57,33,1,,6090b0a0a3289699f1b4917e,62b2ac347935510ec371576c,2022-06-22_01h45.05.004,Colour_Asymmetry_Pilot,2022.1.3,Win32,60.04924038,62b2a6a25f2ba72662469a01,,,,,,,,,,,,,,,,,,,,,,,,,,,,,,,,,,,,,,,,,,,,,,,,,,,,,,,,,,,,,,,,,,,,,,,,,,,,,,,,,,,,,,,,,,,,,,,,,,,,,,,,,,,,,,,,,,,,,,,,,,,,,,,,,,,,,,,,,,,,,,,,,,,,,,,,,,,,,,
0,58,58,11,1,,6090b0a0a3289699f1b4917e,62b2ac347935510ec371576c,2022-06-22_01h45.05.004,Colour_Asymmetry_Pilot,2022.1.3,Win32,60.04924038,62b2a6a25f2ba72662469a01,,,,,,,,,,,,,,,,,,,,,,,,,,,,,,,,,,,,,,,,,,,,,,,,,,,,,,,,,,,,,,,,,,,,,,,,,,,,,,,,,,,,,,,,,,,,,,,,,,,,,,,,,,,,,,,,,,,,,,,,,,,,,,,,,,,,,,,,,,,,,,,,,,,,,,,,,,,,,,
0,59,59,74,1,,6090b0a0a3289699f1b4917e,62b2ac347935510ec371576c,2022-06-22_01h45.05.004,Colour_Asymmetry_Pilot,2022.1.3,Win32,60.04924038,62b2a6a25f2ba72662469a01,,,,,,,,,,,,,,,,,,,,,,,,,,,,,,,,,,,,,,,,,,,,,,,,,,,,,,,,,,,,,,,,,,,,,,,,,,,,,,,,,,,,,,,,,,,,,,,,,,,,,,,,,,,,,,,,,,,,,,,,,,,,,,,,,,,,,,,,,,,,,,,,,,,,,,,,,,,,,,
0,60,60,78,1,,6090b0a0a3289699f1b4917e,62b2ac347935510ec371576c,2022-06-22_01h45.05.004,Colour_Asymmetry_Pilot,2022.1.3,Win32,60.04924038,62b2a6a25f2ba72662469a01,,,,,,,,,,,,,,,,,,,,,,,,,,,,,,,,,,,,,,,,,,,,,,,,,,,,,,,,,,,,,,,,,,,,,,,,,,,,,,,,,,,,,,,,,,,,,,,,,,,,,,,,,,,,,,,,,,,,,,,,,,,,,,,,,,,,,,,,,,,,,,,,,,,,,,,,,,,,,,
0,61,61,9,1,,6090b0a0a3289699f1b4917e,62b2ac347935510ec371576c,2022-06-22_01h45.05.004,Colour_Asymmetry_Pilot,2022.1.3,Win32,60.04924038,62b2a6a25f2ba72662469a01,,,,,,,,,,,,,,,,,,,,,,,,,,,,,,,,,,,,,,,,,,,,,,,,,,,,,,,,,,,,,,,,,,,,,,,,,,,,,,,,,,,,,,,,,,,,,,,,,,,,,,,,,,,,,,,,,,,,,,,,,,,,,,,,,,,,,,,,,,,,,,,,,,,,,,,,,,,,,,
0,62,62,62,1,,6090b0a0a3289699f1b4917e,62b2ac347935510ec371576c,2022-06-22_01h45.05.004,Colour_Asymmetry_Pilot,2022.1.3,Win32,60.04924038,62b2a6a25f2ba72662469a01,,,,,,,,,,,,,,,,,,,,,,,,,,,,,,,,,,,,,,,,,,,,,,,,,,,,,,,,,,,,,,,,,,,,,,,,,,,,,,,,,,,,,,,,,,,,,,,,,,,,,,,,,,,,,,,,,,,,,,,,,,,,,,,,,,,,,,,,,,,,,,,,,,,,,,,,,,,,,,
0,63,63,86,1,,6090b0a0a3289699f1b4917e,62b2ac347935510ec371576c,2022-06-22_01h45.05.004,Colour_Asymmetry_Pilot,2022.1.3,Win32,60.04924038,62b2a6a25f2ba72662469a01,,,,,,,,,,,,,,,,,,,,,,,,,,,,,,,,,,,,,,,,,,,,,,,,,,,,,,,,,,,,,,,,,,,,,,,,,,,,,,,,,,,,,,,,,,,,,,,,,,,,,,,,,,,,,,,,,,,,,,,,,,,,,,,,,,,,,,,,,,,,,,,,,,,,,,,,,,,,,,
0,64,64,68,1,,6090b0a0a3289699f1b4917e,62b2ac347935510ec371576c,2022-06-22_01h45.05.004,Colour_Asymmetry_Pilot,2022.1.3,Win32,60.04924038,62b2a6a25f2ba72662469a01,,,,,,,,,,,,,,,,,,,,,,,,,,,,,,,,,,,,,,,,,,,,,,,,,,,,,,,,,,,,,,,,,,,,,,,,,,,,,,,,,,,,,,,,,,,,,,,,,,,,,,,,,,,,,,,,,,,,,,,,,,,,,,,,,,,,,,,,,,,,,,,,,,,,,,,,,,,,,,
0,65,65,15,1,,6090b0a0a3289699f1b4917e,62b2ac347935510ec371576c,2022-06-22_01h45.05.004,Colour_Asymmetry_Pilot,2022.1.3,Win32,60.04924038,62b2a6a25f2ba72662469a01,,,,,,,,,,,,,,,,,,,,,,,,,,,,,,,,,,,,,,,,,,,,,,,,,,,,,,,,,,,,,,,,,,,,,,,,,,,,,,,,,,,,,,,,,,,,,,,,,,,,,,,,,,,,,,,,,,,,,,,,,,,,,,,,,,,,,,,,,,,,,,,,,,,,,,,,,,,,,,
0,66,66,17,1,,6090b0a0a3289699f1b4917e,62b2ac347935510ec371576c,2022-06-22_01h45.05.004,Colour_Asymmetry_Pilot,2022.1.3,Win32,60.04924038,62b2a6a25f2ba72662469a01,,,,,,,,,,,,,,,,,,,,,,,,,,,,,,,,,,,,,,,,,,,,,,,,,,,,,,,,,,,,,,,,,,,,,,,,,,,,,,,,,,,,,,,,,,,,,,,,,,,,,,,,,,,,,,,,,,,,,,,,,,,,,,,,,,,,,,,,,,,,,,,,,,,,,,,,,,,,,,
0,67,67,75,1,,6090b0a0a3289699f1b4917e,62b2ac347935510ec371576c,2022-06-22_01h45.05.004,Colour_Asymmetry_Pilot,2022.1.3,Win32,60.04924038,62b2a6a25f2ba72662469a01,,,,,,,,,,,,,,,,,,,,,,,,,,,,,,,,,,,,,,,,,,,,,,,,,,,,,,,,,,,,,,,,,,,,,,,,,,,,,,,,,,,,,,,,,,,,,,,,,,,,,,,,,,,,,,,,,,,,,,,,,,,,,,,,,,,,,,,,,,,,,,,,,,,,,,,,,,,,,,
0,68,68,57,1,,6090b0a0a3289699f1b4917e,62b2ac347935510ec371576c,2022-06-22_01h45.05.004,Colour_Asymmetry_Pilot,2022.1.3,Win32,60.04924038,62b2a6a25f2ba72662469a01,,,,,,,,,,,,,,,,,,,,,,,,,,,,,,,,,,,,,,,,,,,,,,,,,,,,,,,,,,,,,,,,,,,,,,,,,,,,,,,,,,,,,,,,,,,,,,,,,,,,,,,,,,,,,,,,,,,,,,,,,,,,,,,,,,,,,,,,,,,,,,,,,,,,,,,,,,,,,,
0,69,69,52,1,,6090b0a0a3289699f1b4917e,62b2ac347935510ec371576c,2022-06-22_01h45.05.004,Colour_Asymmetry_Pilot,2022.1.3,Win32,60.04924038,62b2a6a25f2ba72662469a01,,,,,,,,,,,,,,,,,,,,,,,,,,,,,,,,,,,,,,,,,,,,,,,,,,,,,,,,,,,,,,,,,,,,,,,,,,,,,,,,,,,,,,,,,,,,,,,,,,,,,,,,,,,,,,,,,,,,,,,,,,,,,,,,,,,,,,,,,,,,,,,,,,,,,,,,,,,,,,
0,70,70,53,1,,6090b0a0a3289699f1b4917e,62b2ac347935510ec371576c,2022-06-22_01h45.05.004,Colour_Asymmetry_Pilot,2022.1.3,Win32,60.04924038,62b2a6a25f2ba72662469a01,,,,,,,,,,,,,,,,,,,,,,,,,,,,,,,,,,,,,,,,,,,,,,,,,,,,,,,,,,,,,,,,,,,,,,,,,,,,,,,,,,,,,,,,,,,,,,,,,,,,,,,,,,,,,,,,,,,,,,,,,,,,,,,,,,,,,,,,,,,,,,,,,,,,,,,,,,,,,,
0,71,71,28,1,,6090b0a0a3289699f1b4917e,62b2ac347935510ec371576c,2022-06-22_01h45.05.004,Colour_Asymmetry_Pilot,2022.1.3,Win32,60.04924038,62b2a6a25f2ba72662469a01,,,,,,,,,,,,,,,,,,,,,,,,,,,,,,,,,,,,,,,,,,,,,,,,,,,,,,,,,,,,,,,,,,,,,,,,,,,,,,,,,,,,,,,,,,,,,,,,,,,,,,,,,,,,,,,,,,,,,,,,,,,,,,,,,,,,,,,,,,,,,,,,,,,,,,,,,,,,,,
0,72,72,71,1,,6090b0a0a3289699f1b4917e,62b2ac347935510ec371576c,2022-06-22_01h45.05.004,Colour_Asymmetry_Pilot,2022.1.3,Win32,60.04924038,62b2a6a25f2ba72662469a01,,,,,,,,,,,,,,,,,,,,,,,,,,,,,,,,,,,,,,,,,,,,,,,,,,,,,,,,,,,,,,,,,,,,,,,,,,,,,,,,,,,,,,,,,,,,,,,,,,,,,,,,,,,,,,,,,,,,,,,,,,,,,,,,,,,,,,,,,,,,,,,,,,,,,,,,,,,,,,
0,73,73,83,1,,6090b0a0a3289699f1b4917e,62b2ac347935510ec371576c,2022-06-22_01h45.05.004,Colour_Asymmetry_Pilot,2022.1.3,Win32,60.04924038,62b2a6a25f2ba72662469a01,,,,,,,,,,,,,,,,,,,,,,,,,,,,,,,,,,,,,,,,,,,,,,,,,,,,,,,,,,,,,,,,,,,,,,,,,,,,,,,,,,,,,,,,,,,,,,,,,,,,,,,,,,,,,,,,,,,,,,,,,,,,,,,,,,,,,,,,,,,,,,,,,,,,,,,,,,,,,,
0,74,74,23,1,,6090b0a0a3289699f1b4917e,62b2ac347935510ec371576c,2022-06-22_01h45.05.004,Colour_Asymmetry_Pilot,2022.1.3,Win32,60.04924038,62b2a6a25f2ba72662469a01,,,,,,,,,,,,,,,,,,,,,,,,,,,,,,,,,,,,,,,,,,,,,,,,,,,,,,,,,,,,,,,,,,,,,,,,,,,,,,,,,,,,,,,,,,,,,,,,,,,,,,,,,,,,,,,,,,,,,,,,,,,,,,,,,,,,,,,,,,,,,,,,,,,,,,,,,,,,,,
0,75,75,76,1,,6090b0a0a3289699f1b4917e,62b2ac347935510ec371576c,2022-06-22_01h45.05.004,Colour_Asymmetry_Pilot,2022.1.3,Win32,60.04924038,62b2a6a25f2ba72662469a01,,,,,,,,,,,,,,,,,,,,,,,,,,,,,,,,,,,,,,,,,,,,,,,,,,,,,,,,,,,,,,,,,,,,,,,,,,,,,,,,,,,,,,,,,,,,,,,,,,,,,,,,,,,,,,,,,,,,,,,,,,,,,,,,,,,,,,,,,,,,,,,,,,,,,,,,,,,,,,
0,76,76,90,1,,6090b0a0a3289699f1b4917e,62b2ac347935510ec371576c,2022-06-22_01h45.05.004,Colour_Asymmetry_Pilot,2022.1.3,Win32,60.04924038,62b2a6a25f2ba72662469a01,,,,,,,,,,,,,,,,,,,,,,,,,,,,,,,,,,,,,,,,,,,,,,,,,,,,,,,,,,,,,,,,,,,,,,,,,,,,,,,,,,,,,,,,,,,,,,,,,,,,,,,,,,,,,,,,,,,,,,,,,,,,,,,,,,,,,,,,,,,,,,,,,,,,,,,,,,,,,,
0,77,77,72,1,,6090b0a0a3289699f1b4917e,62b2ac347935510ec371576c,2022-06-22_01h45.05.004,Colour_Asymmetry_Pilot,2022.1.3,Win32,60.04924038,62b2a6a25f2ba72662469a01,,,,,,,,,,,,,,,,,,,,,,,,,,,,,,,,,,,,,,,,,,,,,,,,,,,,,,,,,,,,,,,,,,,,,,,,,,,,,,,,,,,,,,,,,,,,,,,,,,,,,,,,,,,,,,,,,,,,,,,,,,,,,,,,,,,,,,,,,,,,,,,,,,,,,,,,,,,,,,
0,78,78,3,1,,6090b0a0a3289699f1b4917e,62b2ac347935510ec371576c,2022-06-22_01h45.05.004,Colour_Asymmetry_Pilot,2022.1.3,Win32,60.04924038,62b2a6a25f2ba72662469a01,,,,,,,,,,,,,,,,,,,,,,,,,,,,,,,,,,,,,,,,,,,,,,,,,,,,,,,,,,,,,,,,,,,,,,,,,,,,,,,,,,,,,,,,,,,,,,,,,,,,,,,,,,,,,,,,,,,,,,,,,,,,,,,,,,,,,,,,,,,,,,,,,,,,,,,,,,,,,,
0,79,79,2,1,,6090b0a0a3289699f1b4917e,62b2ac347935510ec371576c,2022-06-22_01h45.05.004,Colour_Asymmetry_Pilot,2022.1.3,Win32,60.04924038,62b2a6a25f2ba72662469a01,,,,,,,,,,,,,,,,,,,,,,,,,,,,,,,,,,,,,,,,,,,,,,,,,,,,,,,,,,,,,,,,,,,,,,,,,,,,,,,,,,,,,,,,,,,,,,,,,,,,,,,,,,,,,,,,,,,,,,,,,,,,,,,,,,,,,,,,,,,,,,,,,,,,,,,,,,,,,,
0,80,80,16,1,,6090b0a0a3289699f1b4917e,62b2ac347935510ec371576c,2022-06-22_01h45.05.004,Colour_Asymmetry_Pilot,2022.1.3,Win32,60.04924038,62b2a6a25f2ba72662469a01,,,,,,,,,,,,,,,,,,,,,,,,,,,,,,,,,,,,,,,,,,,,,,,,,,,,,,,,,,,,,,,,,,,,,,,,,,,,,,,,,,,,,,,,,,,,,,,,,,,,,,,,,,,,,,,,,,,,,,,,,,,,,,,,,,,,,,,,,,,,,,,,,,,,,,,,,,,,,,
0,81,81,6,1,,6090b0a0a3289699f1b4917e,62b2ac347935510ec371576c,2022-06-22_01h45.05.004,Colour_Asymmetry_Pilot,2022.1.3,Win32,60.04924038,62b2a6a25f2ba72662469a01,,,,,,,,,,,,,,,,,,,,,,,,,,,,,,,,,,,,,,,,,,,,,,,,,,,,,,,,,,,,,,,,,,,,,,,,,,,,,,,,,,,,,,,,,,,,,,,,,,,,,,,,,,,,,,,,,,,,,,,,,,,,,,,,,,,,,,,,,,,,,,,,,,,,,,,,,,,,,,
0,82,82,43,1,,6090b0a0a3289699f1b4917e,62b2ac347935510ec371576c,2022-06-22_01h45.05.004,Colour_Asymmetry_Pilot,2022.1.3,Win32,60.04924038,62b2a6a25f2ba72662469a01,,,,,,,,,,,,,,,,,,,,,,,,,,,,,,,,,,,,,,,,,,,,,,,,,,,,,,,,,,,,,,,,,,,,,,,,,,,,,,,,,,,,,,,,,,,,,,,,,,,,,,,,,,,,,,,,,,,,,,,,,,,,,,,,,,,,,,,,,,,,,,,,,,,,,,,,,,,,,,
0,83,83,1,1,,6090b0a0a3289699f1b4917e,62b2ac347935510ec371576c,2022-06-22_01h45.05.004,Colour_Asymmetry_Pilot,2022.1.3,Win32,60.04924038,62b2a6a25f2ba72662469a01,,,,,,,,,,,,,,,,,,,,,,,,,,,,,,,,,,,,,,,,,,,,,,,,,,,,,,,,,,,,,,,,,,,,,,,,,,,,,,,,,,,,,,,,,,,,,,,,,,,,,,,,,,,,,,,,,,,,,,,,,,,,,,,,,,,,,,,,,,,,,,,,,,,,,,,,,,,,,,
0,84,84,89,1,,6090b0a0a3289699f1b4917e,62b2ac347935510ec371576c,2022-06-22_01h45.05.004,Colour_Asymmetry_Pilot,2022.1.3,Win32,60.04924038,62b2a6a25f2ba72662469a01,,,,,,,,,,,,,,,,,,,,,,,,,,,,,,,,,,,,,,,,,,,,,,,,,,,,,,,,,,,,,,,,,,,,,,,,,,,,,,,,,,,,,,,,,,,,,,,,,,,,,,,,,,,,,,,,,,,,,,,,,,,,,,,,,,,,,,,,,,,,,,,,,,,,,,,,,,,,,,
0,85,85,87,1,,6090b0a0a3289699f1b4917e,62b2ac347935510ec371576c,2022-06-22_01h45.05.004,Colour_Asymmetry_Pilot,2022.1.3,Win32,60.04924038,62b2a6a25f2ba72662469a01,,,,,,,,,,,,,,,,,,,,,,,,,,,,,,,,,,,,,,,,,,,,,,,,,,,,,,,,,,,,,,,,,,,,,,,,,,,,,,,,,,,,,,,,,,,,,,,,,,,,,,,,,,,,,,,,,,,,,,,,,,,,,,,,,,,,,,,,,,,,,,,,,,,,,,,,,,,,,,
0,86,86,47,1,,6090b0a0a3289699f1b4917e,62b2ac347935510ec371576c,2022-06-22_01h45.05.004,Colour_Asymmetry_Pilot,2022.1.3,Win32,60.04924038,62b2a6a25f2ba72662469a01,,,,,,,,,,,,,,,,,,,,,,,,,,,,,,,,,,,,,,,,,,,,,,,,,,,,,,,,,,,,,,,,,,,,,,,,,,,,,,,,,,,,,,,,,,,,,,,,,,,,,,,,,,,,,,,,,,,,,,,,,,,,,,,,,,,,,,,,,,,,,,,,,,,,,,,,,,,,,,
0,87,87,92,1,,6090b0a0a3289699f1b4917e,62b2ac347935510ec371576c,2022-06-22_01h45.05.004,Colour_Asymmetry_Pilot,2022.1.3,Win32,60.04924038,62b2a6a25f2ba72662469a01,,,,,,,,,,,,,,,,,,,,,,,,,,,,,,,,,,,,,,,,,,,,,,,,,,,,,,,,,,,,,,,,,,,,,,,,,,,,,,,,,,,,,,,,,,,,,,,,,,,,,,,,,,,,,,,,,,,,,,,,,,,,,,,,,,,,,,,,,,,,,,,,,,,,,,,,,,,,,,
0,88,88,59,1,,6090b0a0a3289699f1b4917e,62b2ac347935510ec371576c,2022-06-22_01h45.05.004,Colour_Asymmetry_Pilot,2022.1.3,Win32,60.04924038,62b2a6a25f2ba72662469a01,,,,,,,,,,,,,,,,,,,,,,,,,,,,,,,,,,,,,,,,,,,,,,,,,,,,,,,,,,,,,,,,,,,,,,,,,,,,,,,,,,,,,,,,,,,,,,,,,,,,,,,,,,,,,,,,,,,,,,,,,,,,,,,,,,,,,,,,,,,,,,,,,,,,,,,,,,,,,,
0,89,89,58,1,,6090b0a0a3289699f1b4917e,62b2ac347935510ec371576c,2022-06-22_01h45.05.004,Colour_Asymmetry_Pilot,2022.1.3,Win32,60.04924038,62b2a6a25f2ba72662469a01,,,,,,,,,,,,,,,,,,,,,,,,,,,,,,,,,,,,,,,,,,,,,,,,,,,,,,,,,,,,,,,,,,,,,,,,,,,,,,,,,,,,,,,,,,,,,,,,,,,,,,,,,,,,,,,,,,,,,,,,,,,,,,,,,,,,,,,,,,,,,,,,,,,,,,,,,,,,,,
0,90,90,4,1,,6090b0a0a3289699f1b4917e,62b2ac347935510ec371576c,2022-06-22_01h45.05.004,Colour_Asymmetry_Pilot,2022.1.3,Win32,60.04924038,62b2a6a25f2ba72662469a01,,,,,,,,,,,,,,,,,,,,,,,,,,,,,,,,,,,,,,,,,,,,,,,,,,,,,,,,,,,,,,,,,,,,,,,,,,,,,,,,,,,,,,,,,,,,,,,,,,,,,,,,,,,,,,,,,,,,,,,,,,,,,,,,,,,,,,,,,,,,,,,,,,,,,,,,,,,,,,
0,91,91,29,1,,6090b0a0a3289699f1b4917e,62b2ac347935510ec371576c,2022-06-22_01h45.05.004,Colour_Asymmetry_Pilot,2022.1.3,Win32,60.04924038,62b2a6a25f2ba72662469a01,,,,,,,,,,,,,,,,,,,,,,,,,,,,,,,,,,,,,,,,,,,,,,,,,,,,,,,,,,,,,,,,,,,,,,,,,,,,,,,,,,,,,,,,,,,,,,,,,,,,,,,,,,,,,,,,,,,,,,,,,,,,,,,,,,,,,,,,,,,,,,,,,,,,,,,,,,,,,,
0,92,92,65,1,,6090b0a0a3289699f1b4917e,62b2ac347935510ec371576c,2022-06-22_01h45.05.004,Colour_Asymmetry_Pilot,2022.1.3,Win32,60.04924038,62b2a6a25f2ba72662469a01,,,,,,,,,,,,,,,,,,,,,,,,,,,,,,,,,,,,,,,,,,,,,,,,,,,,,,,,,,,,,,,,,,,,,,,,,,,,,,,,,,,,,,,,,,,,,,,,,,,,,,,,,,,,,,,,,,,,,,,,,,,,,,,,,,,,,,,,,,,,,,,,,,,,,,,,,,,,,,
,,,,,,6090b0a0a3289699f1b4917e,62b2ac347935510ec371576c,2022-06-22_01h45.05.004,Colour_Asymmetry_Pilot,2022.1.3,Win32,60.04924038,62b2a6a25f2ba72662469a01,0,0,0,143,1,fourthree,,,,,,,,,,,,,,,,,,,,,,,,,,,,,,,,,,,,,,,,,,,,,,,,,,,,,,,,,,,,,,,,,,,,,,,,,,,,,,,,,,,,,,,,,,,,,,,,,,,,,,,,,,,,,,,,,,,,,,,,,,,,,,,,,,,,,,,,,,,,,,,,,,,,,,,,
,,,,,,6090b0a0a3289699f1b4917e,62b2ac347935510ec371576c,2022-06-22_01h45.05.004,Colour_Asymmetry_Pilot,2022.1.3,Win32,60.04924038,62b2a6a25f2ba72662469a01,0,1,1,146,1,twoone,,,,,,,,,,,,,,,,,,,,,,,,,,,,,,,,,,,,,,,,,,,,,,,,,,,,,,,,,,,,,,,,,,,,,,,,,,,,,,,,,,,,,,,,,,,,,,,,,,,,,,,,,,,,,,,,,,,,,,,,,,,,,,,,,,,,,,,,,,,,,,,,,,,,,,,,
,,,,,,6090b0a0a3289699f1b4917e,62b2ac347935510ec371576c,2022-06-22_01h45.05.004,Colour_Asymmetry_Pilot,2022.1.3,Win32,60.04924038,62b2a6a25f2ba72662469a01,0,2,2,122,1,twoone,,,,,,,,,,,,,,,,,,,,,,,,,,,,,,,,,,,,,,,,,,,,,,,,,,,,,,,,,,,,,,,,,,,,,,,,,,,,,,,,,,,,,,,,,,,,,,,,,,,,,,,,,,,,,,,,,,,,,,,,,,,,,,,,,,,,,,,,,,,,,,,,,,,,,,,,
,,,,,,6090b0a0a3289699f1b4917e,62b2ac347935510ec371576c,2022-06-22_01h45.05.004,Colour_Asymmetry_Pilot,2022.1.3,Win32,60.04924038,62b2a6a25f2ba72662469a01,0,3,3,96,1,onetwo,,,,,,,,,,,,,,,,,,,,,,,,,,,,,,,,,,,,,,,,,,,,,,,,,,,,,,,,,,,,,,,,,,,,,,,,,,,,,,,,,,,,,,,,,,,,,,,,,,,,,,,,,,,,,,,,,,,,,,,,,,,,,,,,,,,,,,,,,,,,,,,,,,,,,,,,
,,,,,,6090b0a0a3289699f1b4917e,62b2ac347935510ec371576c,2022-06-22_01h45.05.004,Colour_Asymmetry_Pilot,2022.1.3,Win32,60.04924038,62b2a6a25f2ba72662469a01,0,4,4,95,1,fourthree,,,,,,,,,,,,,,,,,,,,,,,,,,,,,,,,,,,,,,,,,,,,,,,,,,,,,,,,,,,,,,,,,,,,,,,,,,,,,,,,,,,,,,,,,,,,,,,,,,,,,,,,,,,,,,,,,,,,,,,,,,,,,,,,,,,,,,,,,,,,,,,,,,,,,,,,
,,,,,,6090b0a0a3289699f1b4917e,62b2ac347935510ec371576c,2022-06-22_01h45.05.004,Colour_Asymmetry_Pilot,2022.1.3,Win32,60.04924038,62b2a6a25f2ba72662469a01,0,5,5,102,1,fourtwo,,,,,,,,,,,,,,,,,,,,,,,,,,,,,,,,,,,,,,,,,,,,,,,,,,,,,,,,,,,,,,,,,,,,,,,,,,,,,,,,,,,,,,,,,,,,,,,,,,,,,,,,,,,,,,,,,,,,,,,,,,,,,,,,,,,,,,,,,,,,,,,,,,,,,,,,
,,,,,,6090b0a0a3289699f1b4917e,62b2ac347935510ec371576c,2022-06-22_01h45.05.004,Colour_Asymmetry_Pilot,2022.1.3,Win32,60.04924038,62b2a6a25f2ba72662469a01,0,6,6,35,1,twofour,,,,,,,,,,,,,,,,,,,,,,,,,,,,,,,,,,,,,,,,,,,,,,,,,,,,,,,,,,,,,,,,,,,,,,,,,,,,,,,,,,,,,,,,,,,,,,,,,,,,,,,,,,,,,,,,,,,,,,,,,,,,,,,,,,,,,,,,,,,,,,,,,,,,,,,,
,,,,,,6090b0a0a3289699f1b4917e,62b2ac347935510ec371576c,2022-06-22_01h45.05.004,Colour_Asymmetry_Pilot,2022.1.3,Win32,60.04924038,62b2a6a25f2ba72662469a01,0,7,7,78,1,fourtwo,,,,,,,,,,,,,,,,,,,,,,,,,,,,,,,,,,,,,,,,,,,,,,,,,,,,,,,,,,,,,,,,,,,,,,,,,,,,,,,,,,,,,,,,,,,,,,,,,,,,,,,,,,,,,,,,,,,,,,,,,,,,,,,,,,,,,,,,,,,,,,,,,,,,,,,,
,,,,,,6090b0a0a3289699f1b4917e,62b2ac347935510ec371576c,2022-06-22_01h45.05.004,Colour_Asymmetry_Pilot,2022.1.3,Win32,60.04924038,62b2a6a25f2ba72662469a01,0,8,8,110,1,fourtwo,,,,,,,,,,,,,,,,,,,,,,,,,,,,,,,,,,,,,,,,,,,,,,,,,,,,,,,,,,,,,,,,,,,,,,,,,,,,,,,,,,,,,,,,,,,,,,,,,,,,,,,,,,,,,,,,,,,,,,,,,,,,,,,,,,,,,,,,,,,,,,,,,,,,,,,,
,,,,,,6090b0a0a3289699f1b4917e,62b2ac347935510ec371576c,2022-06-22_01h45.05.004,Colour_Asymmetry_Pilot,2022.1.3,Win32,60.04924038,62b2a6a25f2ba72662469a01,0,9,9,158,1,fourtwo,,,,,,,,,,,,,,,,,,,,,,,,,,,,,,,,,,,,,,,,,,,,,,,,,,,,,,,,,,,,,,,,,,,,,,,,,,,,,,,,,,,,,,,,,,,,,,,,,,,,,,,,,,,,,,,,,,,,,,,,,,,,,,,,,,,,,,,,,,,,,,,,,,,,,,,,
,,,,,,6090b0a0a3289699f1b4917e,62b2ac347935510ec371576c,2022-06-22_01h45.05.004,Colour_Asymmetry_Pilot,2022.1.3,Win32,60.04924038,62b2a6a25f2ba72662469a01,0,10,10,118,1,fourtwo,,,,,,,,,,,,,,,,,,,,,,,,,,,,,,,,,,,,,,,,,,,,,,,,,,,,,,,,,,,,,,,,,,,,,,,,,,,,,,,,,,,,,,,,,,,,,,,,,,,,,,,,,,,,,,,,,,,,,,,,,,,,,,,,,,,,,,,,,,,,,,,,,,,,,,,,
,,,,,,6090b0a0a3289699f1b4917e,62b2ac347935510ec371576c,2022-06-22_01h45.05.004,Colour_Asymmetry_Pilot,2022.1.3,Win32,60.04924038,62b2a6a25f2ba72662469a01,0,11,11,149,1,threefour,,,,,,,,,,,,,,,,,,,,,,,,,,,,,,,,,,,,,,,,,,,,,,,,,,,,,,,,,,,,,,,,,,,,,,,,,,,,,,,,,,,,,,,,,,,,,,,,,,,,,,,,,,,,,,,,,,,,,,,,,,,,,,,,,,,,,,,,,,,,,,,,,,,,,,,,
,,,,,,6090b0a0a3289699f1b4917e,62b2ac347935510ec371576c,2022-06-22_01h45.05.004,Colour_Asymmetry_Pilot,2022.1.3,Win32,60.04924038,62b2a6a25f2ba72662469a01,0,12,12,65,1,onethree,,,,,,,,,,,,,,,,,,,,,,,,,,,,,,,,,,,,,,,,,,,,,,,,,,,,,,,,,,,,,,,,,,,,,,,,,,,,,,,,,,,,,,,,,,,,,,,,,,,,,,,,,,,,,,,,,,,,,,,,,,,,,,,,,,,,,,,,,,,,,,,,,,,,,,,,
,,,,,,6090b0a0a3289699f1b4917e,62b2ac347935510ec371576c,2022-06-22_01h45.05.004,Colour_Asymmetry_Pilot,2022.1.3,Win32,60.04924038,62b2a6a25f2ba72662469a01,0,13,13,2,1,twoone,,,,,,,,,,,,,,,,,,,,,,,,,,,,,,,,,,,,,,,,,,,,,,,,,,,,,,,,,,,,,,,,,,,,,,,,,,,,,,,,,,,,,,,,,,,,,,,,,,,,,,,,,,,,,,,,,,,,,,,,,,,,,,,,,,,,,,,,,,,,,,,,,,,,,,,,
,,,,,,6090b0a0a3289699f1b4917e,62b2ac347935510ec371576c,2022-06-22_01h45.05.004,Colour_Asymmetry_Pilot,2022.1.3,Win32,60.04924038,62b2a6a25f2ba72662469a01,0,14,14,68,1,threeone,,,,,,,,,,,,,,,,,,,,,,,,,,,,,,,,,,,,,,,,,,,,,,,,,,,,,,,,,,,,,,,,,,,,,,,,,,,,,,,,,,,,,,,,,,,,,,,,,,,,,,,,,,,,,,,,,,,,,,,,,,,,,,,,,,,,,,,,,,,,,,,,,,,,,,,,
,,,,,,6090b0a0a3289699f1b4917e,62b2ac347935510ec371576c,2022-06-22_01h45.05.004,Colour_Asymmetry_Pilot,2022.1.3,Win32,60.04924038,62b2a6a25f2ba72662469a01,0,15,15,74,1,twoone,,,,,,,,,,,,,,,,,,,,,,,,,,,,,,,,,,,,,,,,,,,,,,,,,,,,,,,,,,,,,,,,,,,,,,,,,,,,,,,,,,,,,,,,,,,,,,,,,,,,,,,,,,,,,,,,,,,,,,,,,,,,,,,,,,,,,,,,,,,,,,,,,,,,,,,,
,,,,,,6090b0a0a3289699f1b4917e,62b2ac347935510ec371576c,2022-06-22_01h45.05.004,Colour_Asymmetry_Pilot,2022.1.3,Win32,60.04924038,62b2a6a25f2ba72662469a01,0,16,16,16,1,onetwo,,,,,,,,,,,,,,,,,,,,,,,,,,,,,,,,,,,,,,,,,,,,,,,,,,,,,,,,,,,,,,,,,,,,,,,,,,,,,,,,,,,,,,,,,,,,,,,,,,,,,,,,,,,,,,,,,,,,,,,,,,,,,,,,,,,,,,,,,,,,,,,,,,,,,,,,
,,,,,,6090b0a0a3289699f1b4917e,62b2ac347935510ec371576c,2022-06-22_01h45.05.004,Colour_Asymmetry_Pilot,2022.1.3,Win32,60.04924038,62b2a6a25f2ba72662469a01,0,17,17,3,1,twofour,,,,,,,,,,,,,,,,,,,,,,,,,,,,,,,,,,,,,,,,,,,,,,,,,,,,,,,,,,,,,,,,,,,,,,,,,,,,,,,,,,,,,,,,,,,,,,,,,,,,,,,,,,,,,,,,,,,,,,,,,,,,,,,,,,,,,,,,,,,,,,,,,,,,,,,,
,,,,,,6090b0a0a3289699f1b4917e,62b2ac347935510ec371576c,2022-06-22_01h45.05.004,Colour_Asymmetry_Pilot,2022.1.3,Win32,60.04924038,62b2a6a25f2ba72662469a01,0,18,18,46,1,fourtwo,,,,,,,,,,,,,,,,,,,,,,,,,,,,,,,,,,,,,,,,,,,,,,,,,,,,,,,,,,,,,,,,,,,,,,,,,,,,,,,,,,,,,,,,,,,,,,,,,,,,,,,,,,,,,,,,,,,,,,,,,,,,,,,,,,,,,,,,,,,,,,,,,,,,,,,,
,,,,,,6090b0a0a3289699f1b4917e,62b2ac347935510ec371576c,2022-06-22_01h45.05.004,Colour_Asymmetry_Pilot,2022.1.3,Win32,60.04924038,62b2a6a25f2ba72662469a01,0,19,19,76,1,threeone,,,,,,,,,,,,,,,,,,,,,,,,,,,,,,,,,,,,,,,,,,,,,,,,,,,,,,,,,,,,,,,,,,,,,,,,,,,,,,,,,,,,,,,,,,,,,,,,,,,,,,,,,,,,,,,,,,,,,,,,,,,,,,,,,,,,,,,,,,,,,,,,,,,,,,,,
,,,,,,6090b0a0a3289699f1b4917e,62b2ac347935510ec371576c,2022-06-22_01h45.05.004,Colour_Asymmetry_Pilot,2022.1.3,Win32,60.04924038,62b2a6a25f2ba72662469a01,0,20,20,109,1,threefour,,,,,,,,,,,,,,,,,,,,,,,,,,,,,,,,,,,,,,,,,,,,,,,,,,,,,,,,,,,,,,,,,,,,,,,,,,,,,,,,,,,,,,,,,,,,,,,,,,,,,,,,,,,,,,,,,,,,,,,,,,,,,,,,,,,,,,,,,,,,,,,,,,,,,,,,
,,,,,,6090b0a0a3289699f1b4917e,62b2ac347935510ec371576c,2022-06-22_01h45.05.004,Colour_Asymmetry_Pilot,2022.1.3,Win32,60.04924038,62b2a6a25f2ba72662469a01,0,21,21,123,1,twofour,,,,,,,,,,,,,,,,,,,,,,,,,,,,,,,,,,,,,,,,,,,,,,,,,,,,,,,,,,,,,,,,,,,,,,,,,,,,,,,,,,,,,,,,,,,,,,,,,,,,,,,,,,,,,,,,,,,,,,,,,,,,,,,,,,,,,,,,,,,,,,,,,,,,,,,,
,,,,,,6090b0a0a3289699f1b4917e,62b2ac347935510ec371576c,2022-06-22_01h45.05.004,Colour_Asymmetry_Pilot,2022.1.3,Win32,60.04924038,62b2a6a25f2ba72662469a01,0,22,22,101,1,threefour,,,,,,,,,,,,,,,,,,,,,,,,,,,,,,,,,,,,,,,,,,,,,,,,,,,,,,,,,,,,,,,,,,,,,,,,,,,,,,,,,,,,,,,,,,,,,,,,,,,,,,,,,,,,,,,,,,,,,,,,,,,,,,,,,,,,,,,,,,,,,,,,,,,,,,,,
,,,,,,6090b0a0a3289699f1b4917e,62b2ac347935510ec371576c,2022-06-22_01h45.05.004,Colour_Asymmetry_Pilot,2022.1.3,Win32,60.04924038,62b2a6a25f2ba72662469a01,0,23,23,10,1,twoone,,,,,,,,,,,,,,,,,,,,,,,,,,,,,,,,,,,,,,,,,,,,,,,,,,,,,,,,,,,,,,,,,,,,,,,,,,,,,,,,,,,,,,,,,,,,,,,,,,,,,,,,,,,,,,,,,,,,,,,,,,,,,,,,,,,,,,,,,,,,,,,,,,,,,,,,
,,,,,,6090b0a0a3289699f1b4917e,62b2ac347935510ec371576c,2022-06-22_01h45.05.004,Colour_Asymmetry_Pilot,2022.1.3,Win32,60.04924038,62b2a6a25f2ba72662469a01,0,24,24,11,1,twofour,,,,,,,,,,,,,,,,,,,,,,,,,,,,,,,,,,,,,,,,,,,,,,,,,,,,,,,,,,,,,,,,,,,,,,,,,,,,,,,,,,,,,,,,,,,,,,,,,,,,,,,,,,,,,,,,,,,,,,,,,,,,,,,,,,,,,,,,,,,,,,,,,,,,,,,,
,,,,,,6090b0a0a3289699f1b4917e,62b2ac347935510ec371576c,2022-06-22_01h45.05.004,Colour_Asymmetry_Pilot,2022.1.3,Win32,60.04924038,62b2a6a25f2ba72662469a01,0,25,25,112,1,onetwo,,,,,,,,,,,,,,,,,,,,,,,,,,,,,,,,,,,,,,,,,,,,,,,,,,,,,,,,,,,,,,,,,,,,,,,,,,,,,,,,,,,,,,,,,,,,,,,,,,,,,,,,,,,,,,,,,,,,,,,,,,,,,,,,,,,,,,,,,,,,,,,,,,,,,,,,
,,,,,,6090b0a0a3289699f1b4917e,62b2ac347935510ec371576c,2022-06-22_01h45.05.004,Colour_Asymmetry_Pilot,2022.1.3,Win32,60.04924038,62b2a6a25f2ba72662469a01,0,26,26,36,1,threeone,,,,,,,,,,,,,,,,,,,,,,,,,,,,,,,,,,,,,,,,,,,,,,,,,,,,,,,,,,,,,,,,,,,,,,,,,,,,,,,,,,,,,,,,,,,,,,,,,,,,,,,,,,,,,,,,,,,,,,,,,,,,,,,,,,,,,,,,,,,,,,,,,,,,,,,,
,,,,,,6090b0a0a3289699f1b4917e,62b2ac347935510ec371576c,2022-06-22_01h45.05.004,Colour_Asymmetry_Pilot,2022.1.3,Win32,60.04924038,62b2a6a25f2ba72662469a01,0,27,27,54,1,fourtwo,,,,,,,,,,,,,,,,,,,,,,,,,,,,,,,,,,,,,,,,,,,,,,,,,,,,,,,,,,,,,,,,,,,,,,,,,,,,,,,,,,,,,,,,,,,,,,,,,,,,,,,,,,,,,,,,,,,,,,,,,,,,,,,,,,,,,,,,,,,,,,,,,,,,,,,,
,,,,,,6090b0a0a3289699f1b4917e,62b2ac347935510ec371576c,2022-06-22_01h45.05.004,Colour_Asymmetry_Pilot,2022.1.3,Win32,60.04924038,62b2a6a25f2ba72662469a01,0,28,28,120,1,onetwo,,,,,,,,,,,,,,,,,,,,,,,,,,,,,,,,,,,,,,,,,,,,,,,,,,,,,,,,,,,,,,,,,,,,,,,,,,,,,,,,,,,,,,,,,,,,,,,,,,,,,,,,,,,,,,,,,,,,,,,,,,,,,,,,,,,,,,,,,,,,,,,,,,,,,,,,
,,,,,,6090b0a0a3289699f1b4917e,62b2ac347935510ec371576c,2022-06-22_01h45.05.004,Colour_Asymmetry_Pilot,2022.1.3,Win32,60.04924038,62b2a6a25f2ba72662469a01,0,29,29,82,1,twoone,,,,,,,,,,,,,,,,,,,,,,,,,,,,,,,,,,,,,,,,,,,,,,,,,,,,,,,,,,,,,,,,,,,,,,,,,,,,,,,,,,,,,,,,,,,,,,,,,,,,,,,,,,,,,,,,,,,,,,,,,,,,,,,,,,,,,,,,,,,,,,,,,,,,,,,,
,,,,,,6090b0a0a3289699f1b4917e,62b2ac347935510ec371576c,2022-06-22_01h45.05.004,Colour_Asymmetry_Pilot,2022.1.3,Win32,60.04924038,62b2a6a25f2ba72662469a01,0,30,30,17,1,onethree,,,,,,,,,,,,,,,,,,,,,,,,,,,,,,,,,,,,,,,,,,,,,,,,,,,,,,,,,,,,,,,,,,,,,,,,,,,,,,,,,,,,,,,,,,,,,,,,,,,,,,,,,,,,,,,,,,,,,,,,,,,,,,,,,,,,,,,,,,,,,,,,,,,,,,,,
,,,,,,6090b0a0a3289699f1b4917e,62b2ac347935510ec371576c,2022-06-22_01h45.05.004,Colour_Asymmetry_Pilot,2022.1.3,Win32,60.04924038,62b2a6a25f2ba72662469a01,0,31,31,115,1,twofour,,,,,,,,,,,,,,,,,,,,,,,,,,,,,,,,,,,,,,,,,,,,,,,,,,,,,,,,,,,,,,,,,,,,,,,,,,,,,,,,,,,,,,,,,,,,,,,,,,,,,,,,,,,,,,,,,,,,,,,,,,,,,,,,,,,,,,,,,,,,,,,,,,,,,,,,
,,,,,,6090b0a0a3289699f1b4917e,62b2ac347935510ec371576c,2022-06-22_01h45.05.004,Colour_Asymmetry_Pilot,2022.1.3,Win32,60.04924038,62b2a6a25f2ba72662469a01,0,32,32,133,1,threefour,,,,,,,,,,,,,,,,,,,,,,,,,,,,,,,,,,,,,,,,,,,,,,,,,,,,,,,,,,,,,,,,,,,,,,,,,,,,,,,,,,,,,,,,,,,,,,,,,,,,,,,,,,,,,,,,,,,,,,,,,,,,,,,,,,,,,,,,,,,,,,,,,,,,,,,,
,,,,,,6090b0a0a3289699f1b4917e,62b2ac347935510ec371576c,2022-06-22_01h45.05.004,Colour_Asymmetry_Pilot,2022.1.3,Win32,60.04924038,62b2a6a25f2ba72662469a01,0,33,33,4,1,threeone,,,,,,,,,,,,,,,,,,,,,,,,,,,,,,,,,,,,,,,,,,,,,,,,,,,,,,,,,,,,,,,,,,,,,,,,,,,,,,,,,,,,,,,,,,,,,,,,,,,,,,,,,,,,,,,,,,,,,,,,,,,,,,,,,,,,,,,,,,,,,,,,,,,,,,,,
,,,,,,6090b0a0a3289699f1b4917e,62b2ac347935510ec371576c,2022-06-22_01h45.05.004,Colour_Asymmetry_Pilot,2022.1.3,Win32,60.04924038,62b2a6a25f2ba72662469a01,0,34,34,126,1,fourtwo,,,,,,,,,,,,,,,,,,,,,,,,,,,,,,,,,,,,,,,,,,,,,,,,,,,,,,,,,,,,,,,,,,,,,,,,,,,,,,,,,,,,,,,,,,,,,,,,,,,,,,,,,,,,,,,,,,,,,,,,,,,,,,,,,,,,,,,,,,,,,,,,,,,,,,,,
,,,,,,6090b0a0a3289699f1b4917e,62b2ac347935510ec371576c,2022-06-22_01h45.05.004,Colour_Asymmetry_Pilot,2022.1.3,Win32,60.04924038,62b2a6a25f2ba72662469a01,0,35,35,132,1,threeone,,,,,,,,,,,,,,,,,,,,,,,,,,,,,,,,,,,,,,,,,,,,,,,,,,,,,,,,,,,,,,,,,,,,,,,,,,,,,,,,,,,,,,,,,,,,,,,,,,,,,,,,,,,,,,,,,,,,,,,,,,,,,,,,,,,,,,,,,,,,,,,,,,,,,,,,
,,,,,,6090b0a0a3289699f1b4917e,62b2ac347935510ec371576c,2022-06-22_01h45.05.004,Colour_Asymmetry_Pilot,2022.1.3,Win32,60.04924038,62b2a6a25f2ba72662469a01,0,36,36,1,1,onethree,,,,,,,,,,,,,,,,,,,,,,,,,,,,,,,,,,,,,,,,,,,,,,,,,,,,,,,,,,,,,,,,,,,,,,,,,,,,,,,,,,,,,,,,,,,,,,,,,,,,,,,,,,,,,,,,,,,,,,,,,,,,,,,,,,,,,,,,,,,,,,,,,,,,,,,,
,,,,,,6090b0a0a3289699f1b4917e,62b2ac347935510ec371576c,2022-06-22_01h45.05.004,Colour_Asymmetry_Pilot,2022.1.3,Win32,60.04924038,62b2a6a25f2ba72662469a01,0,37,37,29,1,threefour,,,,,,,,,,,,,,,,,,,,,,,,,,,,,,,,,,,,,,,,,,,,,,,,,,,,,,,,,,,,,,,,,,,,,,,,,,,,,,,,,,,,,,,,,,,,,,,,,,,,,,,,,,,,,,,,,,,,,,,,,,,,,,,,,,,,,,,,,,,,,,,,,,,,,,,,
,,,,,,6090b0a0a3289699f1b4917e,62b2ac347935510ec371576c,2022-06-22_01h45.05.004,Colour_Asymmetry_Pilot,2022.1.3,Win32,60.04924038,62b2a6a25f2ba72662469a01,0,38,38,106,1,twoone,,,,,,,,,,,,,,,,,,,,,,,,,,,,,,,,,,,,,,,,,,,,,,,,,,,,,,,,,,,,,,,,,,,,,,,,,,,,,,,,,,,,,,,,,,,,,,,,,,,,,,,,,,,,,,,,,,,,,,,,,,,,,,,,,,,,,,,,,,,,,,,,,,,,,,,,
,,,,,,6090b0a0a3289699f1b4917e,62b2ac347935510ec371576c,2022-06-22_01h45.05.004,Colour_Asymmetry_Pilot,2022.1.3,Win32,60.04924038,62b2a6a25f2ba72662469a01,0,39,39,91,1,twofour,,,,,,,,,,,,,,,,,,,,,,,,,,,,,,,,,,,,,,,,,,,,,,,,,,,,,,,,,,,,,,,,,,,,,,,,,,,,,,,,,,,,,,,,,,,,,,,,,,,,,,,,,,,,,,,,,,,,,,,,,,,,,,,,,,,,,,,,,,,,,,,,,,,,,,,,
,,,,,,6090b0a0a3289699f1b4917e,62b2ac347935510ec371576c,2022-06-22_01h45.05.004,Colour_Asymmetry_Pilot,2022.1.3,Win32,60.04924038,62b2a6a25f2ba72662469a01,0,40,40,50,1,twoone,,,,,,,,,,,,,,,,,,,,,,,,,,,,,,,,,,,,,,,,,,,,,,,,,,,,,,,,,,,,,,,,,,,,,,,,,,,,,,,,,,,,,,,,,,,,,,,,,,,,,,,,,,,,,,,,,,,,,,,,,,,,,,,,,,,,,,,,,,,,,,,,,,,,,,,,
,,,,,,6090b0a0a3289699f1b4917e,62b2ac347935510ec371576c,2022-06-22_01h45.05.004,Colour_Asymmetry_Pilot,2022.1.3,Win32,60.04924038,62b2a6a25f2ba72662469a01,0,41,41,94,1,fourtwo,,,,,,,,,,,,,,,,,,,,,,,,,,,,,,,,,,,,,,,,,,,,,,,,,,,,,,,,,,,,,,,,,,,,,,,,,,,,,,,,,,,,,,,,,,,,,,,,,,,,,,,,,,,,,,,,,,,,,,,,,,,,,,,,,,,,,,,,,,,,,,,,,,,,,,,,
,,,,,,6090b0a0a3289699f1b4917e,62b2ac347935510ec371576c,2022-06-22_01h45.05.004,Colour_Asymmetry_Pilot,2022.1.3,Win32,60.04924038,62b2a6a25f2ba72662469a01,0,42,42,142,1,fourtwo,,,,,,,,,,,,,,,,,,,,,,,,,,,,,,,,,,,,,,,,,,,,,,,,,,,,,,,,,,,,,,,,,,,,,,,,,,,,,,,,,,,,,,,,,,,,,,,,,,,,,,,,,,,,,,,,,,,,,,,,,,,,,,,,,,,,,,,,,,,,,,,,,,,,,,,,
,,,,,,6090b0a0a3289699f1b4917e,62b2ac347935510ec371576c,2022-06-22_01h45.05.004,Colour_Asymmetry_Pilot,2022.1.3,Win32,60.04924038,62b2a6a25f2ba72662469a01,0,43,43,93,1,threefour,,,,,,,,,,,,,,,,,,,,,,,,,,,,,,,,,,,,,,,,,,,,,,,,,,,,,,,,,,,,,,,,,,,,,,,,,,,,,,,,,,,,,,,,,,,,,,,,,,,,,,,,,,,,,,,,,,,,,,,,,,,,,,,,,,,,,,,,,,,,,,,,,,,,,,,,
,,,,,,6090b0a0a3289699f1b4917e,62b2ac347935510ec371576c,2022-06-22_01h45.05.004,Colour_Asymmetry_Pilot,2022.1.3,Win32,60.04924038,62b2a6a25f2ba72662469a01,0,44,44,19,1,twofour,,,,,,,,,,,,,,,,,,,,,,,,,,,,,,,,,,,,,,,,,,,,,,,,,,,,,,,,,,,,,,,,,,,,,,,,,,,,,,,,,,,,,,,,,,,,,,,,,,,,,,,,,,,,,,,,,,,,,,,,,,,,,,,,,,,,,,,,,,,,,,,,,,,,,,,,
,,,,,,6090b0a0a3289699f1b4917e,62b2ac347935510ec371576c,2022-06-22_01h45.05.004,Colour_Asymmetry_Pilot,2022.1.3,Win32,60.04924038,62b2a6a25f2ba72662469a01,0,45,45,8,1,onetwo,,,,,,,,,,,,,,,,,,,,,,,,,,,,,,,,,,,,,,,,,,,,,,,,,,,,,,,,,,,,,,,,,,,,,,,,,,,,,,,,,,,,,,,,,,,,,,,,,,,,,,,,,,,,,,,,,,,,,,,,,,,,,,,,,,,,,,,,,,,,,,,,,,,,,,,,
,,,,,,6090b0a0a3289699f1b4917e,62b2ac347935510ec371576c,2022-06-22_01h45.05.004,Colour_Asymmetry_Pilot,2022.1.3,Win32,60.04924038,62b2a6a25f2ba72662469a01,0,46,46,47,1,fourthree,,,,,,,,,,,,,,,,,,,,,,,,,,,,,,,,,,,,,,,,,,,,,,,,,,,,,,,,,,,,,,,,,,,,,,,,,,,,,,,,,,,,,,,,,,,,,,,,,,,,,,,,,,,,,,,,,,,,,,,,,,,,,,,,,,,,,,,,,,,,,,,,,,,,,,,,
,,,,,,6090b0a0a3289699f1b4917e,62b2ac347935510ec371576c,2022-06-22_01h45.05.004,Colour_Asymmetry_Pilot,2022.1.3,Win32,60.04924038,62b2a6a25f2ba72662469a01,0,47,47,160,1,onetwo,,,,,,,,,,,,,,,,,,,,,,,,,,,,,,,,,,,,,,,,,,,,,,,,,,,,,,,,,,,,,,,,,,,,,,,,,,,,,,,,,,,,,,,,,,,,,,,,,,,,,,,,,,,,,,,,,,,,,,,,,,,,,,,,,,,,,,,,,,,,,,,,,,,,,,,,
,,,,,,6090b0a0a3289699f1b4917e,62b2ac347935510ec371576c,2022-06-22_01h45.05.004,Colour_Asymmetry_Pilot,2022.1.3,Win32,60.04924038,62b2a6a25f2ba72662469a01,0,48,48,5,1,threefour,,,,,,,,,,,,,,,,,,,,,,,,,,,,,,,,,,,,,,,,,,,,,,,,,,,,,,,,,,,,,,,,,,,,,,,,,,,,,,,,,,,,,,,,,,,,,,,,,,,,,,,,,,,,,,,,,,,,,,,,,,,,,,,,,,,,,,,,,,,,,,,,,,,,,,,,
,,,,,,6090b0a0a3289699f1b4917e,62b2ac347935510ec371576c,2022-06-22_01h45.05.004,Colour_Asymmetry_Pilot,2022.1.3,Win32,60.04924038,62b2a6a25f2ba72662469a01,0,49,49,18,1,twoone,,,,,,,,,,,,,,,,,,,,,,,,,,,,,,,,,,,,,,,,,,,,,,,,,,,,,,,,,,,,,,,,,,,,,,,,,,,,,,,,,,,,,,,,,,,,,,,,,,,,,,,,,,,,,,,,,,,,,,,,,,,,,,,,,,,,,,,,,,,,,,,,,,,,,,,,
,,,,,,6090b0a0a3289699f1b4917e,62b2ac347935510ec371576c,2022-06-22_01h45.05.004,Colour_Asymmetry_Pilot,2022.1.3,Win32,60.04924038,62b2a6a25f2ba72662469a01,0,50,50,42,1,twoone,,,,,,,,,,,,,,,,,,,,,,,,,,,,,,,,,,,,,,,,,,,,,,,,,,,,,,,,,,,,,,,,,,,,,,,,,,,,,,,,,,,,,,,,,,,,,,,,,,,,,,,,,,,,,,,,,,,,,,,,,,,,,,,,,,,,,,,,,,,,,,,,,,,,,,,,
,,,,,,6090b0a0a3289699f1b4917e,62b2ac347935510ec371576c,2022-06-22_01h45.05.004,Colour_Asymmetry_Pilot,2022.1.3,Win32,60.04924038,62b2a6a25f2ba72662469a01,0,51,51,32,1,onetwo,,,,,,,,,,,,,,,,,,,,,,,,,,,,,,,,,,,,,,,,,,,,,,,,,,,,,,,,,,,,,,,,,,,,,,,,,,,,,,,,,,,,,,,,,,,,,,,,,,,,,,,,,,,,,,,,,,,,,,,,,,,,,,,,,,,,,,,,,,,,,,,,,,,,,,,,
,,,,,,6090b0a0a3289699f1b4917e,62b2ac347935510ec371576c,2022-06-22_01h45.05.004,Colour_Asymmetry_Pilot,2022.1.3,Win32,60.04924038,62b2a6a25f2ba72662469a01,0,52,52,144,1,onetwo,,,,,,,,,,,,,,,,,,,,,,,,,,,,,,,,,,,,,,,,,,,,,,,,,,,,,,,,,,,,,,,,,,,,,,,,,,,,,,,,,,,,,,,,,,,,,,,,,,,,,,,,,,,,,,,,,,,,,,,,,,,,,,,,,,,,,,,,,,,,,,,,,,,,,,,,
,,,,,,6090b0a0a3289699f1b4917e,62b2ac347935510ec371576c,2022-06-22_01h45.05.004,Colour_Asymmetry_Pilot,2022.1.3,Win32,60.04924038,62b2a6a25f2ba72662469a01,0,53,53,157,1,threefour,,,,,,,,,,,,,,,,,,,,,,,,,,,,,,,,,,,,,,,,,,,,,,,,,,,,,,,,,,,,,,,,,,,,,,,,,,,,,,,,,,,,,,,,,,,,,,,,,,,,,,,,,,,,,,,,,,,,,,,,,,,,,,,,,,,,,,,,,,,,,,,,,,,,,,,,
,,,,,,6090b0a0a3289699f1b4917e,62b2ac347935510ec371576c,2022-06-22_01h45.05.004,Colour_Asymmetry_Pilot,2022.1.3,Win32,60.04924038,62b2a6a25f2ba72662469a01,0,54,54,39,1,fourthree,,,,,,,,,,,,,,,,,,,,,,,,,,,,,,,,,,,,,,,,,,,,,,,,,,,,,,,,,,,,,,,,,,,,,,,,,,,,,,,,,,,,,,,,,,,,,,,,,,,,,,,,,,,,,,,,,,,,,,,,,,,,,,,,,,,,,,,,,,,,,,,,,,,,,,,,
,,,,,,6090b0a0a3289699f1b4917e,62b2ac347935510ec371576c,2022-06-22_01h45.05.004,Colour_Asymmetry_Pilot,2022.1.3,Win32,60.04924038,62b2a6a25f2ba72662469a01,0,55,55,38,1,fourtwo,,,,,,,,,,,,,,,,,,,,,,,,,,,,,,,,,,,,,,,,,,,,,,,,,,,,,,,,,,,,,,,,,,,,,,,,,,,,,,,,,,,,,,,,,,,,,,,,,,,,,,,,,,,,,,,,,,,,,,,,,,,,,,,,,,,,,,,,,,,,,,,,,,,,,,,,
,,,,,,6090b0a0a3289699f1b4917e,62b2ac347935510ec371576c,2022-06-22_01h45.05.004,Colour_Asymmetry_Pilot,2022.1.3,Win32,60.04924038,62b2a6a25f2ba72662469a01,0,56,56,105,1,onethree,,,,,,,,,,,,,,,,,,,,,,,,,,,,,,,,,,,,,,,,,,,,,,,,,,,,,,,,,,,,,,,,,,,,,,,,,,,,,,,,,,,,,,,,,,,,,,,,,,,,,,,,,,,,,,,,,,,,,,,,,,,,,,,,,,,,,,,,,,,,,,,,,,,,,,,,
,,,,,,6090b0a0a3289699f1b4917e,62b2ac347935510ec371576c,2022-06-22_01h45.05.004,Colour_Asymmetry_Pilot,2022.1.3,Win32,60.04924038,62b2a6a25f2ba72662469a01,0,57,57,103,1,fourthree,,,,,,,,,,,,,,,,,,,,,,,,,,,,,,,,,,,,,,,,,,,,,,,,,,,,,,,,,,,,,,,,,,,,,,,,,,,,,,,,,,,,,,,,,,,,,,,,,,,,,,,,,,,,,,,,,,,,,,,,,,,,,,,,,,,,,,,,,,,,,,,,,,,,,,,,
,,,,,,6090b0a0a3289699f1b4917e,62b2ac347935510ec371576c,2022-06-22_01h45.05.004,Colour_Asymmetry_Pilot,2022.1.3,Win32,60.04924038,62b2a6a25f2ba72662469a01,0,58,58,53,1,threefour,,,,,,,,,,,,,,,,,,,,,,,,,,,,,,,,,,,,,,,,,,,,,,,,,,,,,,,,,,,,,,,,,,,,,,,,,,,,,,,,,,,,,,,,,,,,,,,,,,,,,,,,,,,,,,,,,,,,,,,,,,,,,,,,,,,,,,,,,,,,,,,,,,,,,,,,
,,,,,,6090b0a0a3289699f1b4917e,62b2ac347935510ec371576c,2022-06-22_01h45.05.004,Colour_Asymmetry_Pilot,2022.1.3,Win32,60.04924038,62b2a6a25f2ba72662469a01,0,59,59,85,1,threefour,,,,,,,,,,,,,,,,,,,,,,,,,,,,,,,,,,,,,,,,,,,,,,,,,,,,,,,,,,,,,,,,,,,,,,,,,,,,,,,,,,,,,,,,,,,,,,,,,,,,,,,,,,,,,,,,,,,,,,,,,,,,,,,,,,,,,,,,,,,,,,,,,,,,,,,,
,,,,,,6090b0a0a3289699f1b4917e,62b2ac347935510ec371576c,2022-06-22_01h45.05.004,Colour_Asymmetry_Pilot,2022.1.3,Win32,60.04924038,62b2a6a25f2ba72662469a01,0,60,60,117,1,threefour,,,,,,,,,,,,,,,,,,,,,,,,,,,,,,,,,,,,,,,,,,,,,,,,,,,,,,,,,,,,,,,,,,,,,,,,,,,,,,,,,,,,,,,,,,,,,,,,,,,,,,,,,,,,,,,,,,,,,,,,,,,,,,,,,,,,,,,,,,,,,,,,,,,,,,,,
,,,,,,6090b0a0a3289699f1b4917e,62b2ac347935510ec371576c,2022-06-22_01h45.05.004,Colour_Asymmetry_Pilot,2022.1.3,Win32,60.04924038,62b2a6a25f2ba72662469a01,0,61,61,6,1,fourtwo,,,,,,,,,,,,,,,,,,,,,,,,,,,,,,,,,,,,,,,,,,,,,,,,,,,,,,,,,,,,,,,,,,,,,,,,,,,,,,,,,,,,,,,,,,,,,,,,,,,,,,,,,,,,,,,,,,,,,,,,,,,,,,,,,,,,,,,,,,,,,,,,,,,,,,,,
,,,,,,6090b0a0a3289699f1b4917e,62b2ac347935510ec371576c,2022-06-22_01h45.05.004,Colour_Asymmetry_Pilot,2022.1.3,Win32,60.04924038,62b2a6a25f2ba72662469a01,0,62,62,153,1,onethree,,,,,,,,,,,,,,,,,,,,,,,,,,,,,,,,,,,,,,,,,,,,,,,,,,,,,,,,,,,,,,,,,,,,,,,,,,,,,,,,,,,,,,,,,,,,,,,,,,,,,,,,,,,,,,,,,,,,,,,,,,,,,,,,,,,,,,,,,,,,,,,,,,,,,,,,
,,,,,,6090b0a0a3289699f1b4917e,62b2ac347935510ec371576c,2022-06-22_01h45.05.004,Colour_Asymmetry_Pilot,2022.1.3,Win32,60.04924038,62b2a6a25f2ba72662469a01,0,63,63,98,1,twoone,,,,,,,,,,,,,,,,,,,,,,,,,,,,,,,,,,,,,,,,,,,,,,,,,,,,,,,,,,,,,,,,,,,,,,,,,,,,,,,,,,,,,,,,,,,,,,,,,,,,,,,,,,,,,,,,,,,,,,,,,,,,,,,,,,,,,,,,,,,,,,,,,,,,,,,,
,,,,,,6090b0a0a3289699f1b4917e,62b2ac347935510ec371576c,2022-06-22_01h45.05.004,Colour_Asymmetry_Pilot,2022.1.3,Win32,60.04924038,62b2a6a25f2ba72662469a01,0,64,64,156,1,threeone,,,,,,,,,,,,,,,,,,,,,,,,,,,,,,,,,,,,,,,,,,,,,,,,,,,,,,,,,,,,,,,,,,,,,,,,,,,,,,,,,,,,,,,,,,,,,,,,,,,,,,,,,,,,,,,,,,,,,,,,,,,,,,,,,,,,,,,,,,,,,,,,,,,,,,,,
,,,,,,6090b0a0a3289699f1b4917e,62b2ac347935510ec371576c,2022-06-22_01h45.05.004,Colour_Asymmetry_Pilot,2022.1.3,Win32,60.04924038,62b2a6a25f2ba72662469a01,0,65,65,56,1,onetwo,,,,,,,,,,,,,,,,,,,,,,,,,,,,,,,,,,,,,,,,,,,,,,,,,,,,,,,,,,,,,,,,,,,,,,,,,,,,,,,,,,,,,,,,,,,,,,,,,,,,,,,,,,,,,,,,,,,,,,,,,,,,,,,,,,,,,,,,,,,,,,,,,,,,,,,,
,,,,,,6090b0a0a3289699f1b4917e,62b2ac347935510ec371576c,2022-06-22_01h45.05.004,Colour_Asymmetry_Pilot,2022.1.3,Win32,60.04924038,62b2a6a25f2ba72662469a01,0,66,66,71,1,fourthree,,,,,,,,,,,,,,,,,,,,,,,,,,,,,,,,,,,,,,,,,,,,,,,,,,,,,,,,,,,,,,,,,,,,,,,,,,,,,,,,,,,,,,,,,,,,,,,,,,,,,,,,,,,,,,,,,,,,,,,,,,,,,,,,,,,,,,,,,,,,,,,,,,,,,,,,
,,,,,,6090b0a0a3289699f1b4917e,62b2ac347935510ec371576c,2022-06-22_01h45.05.004,Colour_Asymmetry_Pilot,2022.1.3,Win32,60.04924038,62b2a6a25f2ba72662469a01,0,67,67,28,1,threeone,,,,,,,,,,,,,,,,,,,,,,,,,,,,,,,,,,,,,,,,,,,,,,,,,,,,,,,,,,,,,,,,,,,,,,,,,,,,,,,,,,,,,,,,,,,,,,,,,,,,,,,,,,,,,,,,,,,,,,,,,,,,,,,,,,,,,,,,,,,,,,,,,,,,,,,,
,,,,,,6090b0a0a3289699f1b4917e,62b2ac347935510ec371576c,2022-06-22_01h45.05.004,Colour_Asymmetry_Pilot,2022.1.3,Win32,60.04924038,62b2a6a25f2ba72662469a01,0,68,68,62,1,fourtwo,,,,,,,,,,,,,,,,,,,,,,,,,,,,,,,,,,,,,,,,,,,,,,,,,,,,,,,,,,,,,,,,,,,,,,,,,,,,,,,,,,,,,,,,,,,,,,,,,,,,,,,,,,,,,,,,,,,,,,,,,,,,,,,,,,,,,,,,,,,,,,,,,,,,,,,,
,,,,,,6090b0a0a3289699f1b4917e,62b2ac347935510ec371576c,2022-06-22_01h45.05.004,Colour_Asymmetry_Pilot,2022.1.3,Win32,60.04924038,62b2a6a25f2ba72662469a01,0,69,69,48,1,onetwo,,,,,,,,,,,,,,,,,,,,,,,,,,,,,,,,,,,,,,,,,,,,,,,,,,,,,,,,,,,,,,,,,,,,,,,,,,,,,,,,,,,,,,,,,,,,,,,,,,,,,,,,,,,,,,,,,,,,,,,,,,,,,,,,,,,,,,,,,,,,,,,,,,,,,,,,
,,,,,,6090b0a0a3289699f1b4917e,62b2ac347935510ec371576c,2022-06-22_01h45.05.004,Colour_Asymmetry_Pilot,2022.1.3,Win32,60.04924038,62b2a6a25f2ba72662469a01,0,70,70,12,1,threeone,,,,,,,,,,,,,,,,,,,,,,,,,,,,,,,,,,,,,,,,,,,,,,,,,,,,,,,,,,,,,,,,,,,,,,,,,,,,,,,,,,,,,,,,,,,,,,,,,,,,,,,,,,,,,,,,,,,,,,,,,,,,,,,,,,,,,,,,,,,,,,,,,,,,,,,,
,,,,,,6090b0a0a3289699f1b4917e,62b2ac347935510ec371576c,2022-06-22_01h45.05.004,Colour_Asymmetry_Pilot,2022.1.3,Win32,60.04924038,62b2a6a25f2ba72662469a01,0,71,71,100,1,threeone,,,,,,,,,,,,,,,,,,,,,,,,,,,,,,,,,,,,,,,,,,,,,,,,,,,,,,,,,,,,,,,,,,,,,,,,,,,,,,,,,,,,,,,,,,,,,,,,,,,,,,,,,,,,,,,,,,,,,,,,,,,,,,,,,,,,,,,,,,,,,,,,,,,,,,,,
,,,,,,6090b0a0a3289699f1b4917e,62b2ac347935510ec371576c,2022-06-22_01h45.05.004,Colour_Asymmetry_Pilot,2022.1.3,Win32,60.04924038,62b2a6a25f2ba72662469a01,0,72,72,45,1,threefour,,,,,,,,,,,,,,,,,,,,,,,,,,,,,,,,,,,,,,,,,,,,,,,,,,,,,,,,,,,,,,,,,,,,,,,,,,,,,,,,,,,,,,,,,,,,,,,,,,,,,,,,,,,,,,,,,,,,,,,,,,,,,,,,,,,,,,,,,,,,,,,,,,,,,,,,
,,,,,,6090b0a0a3289699f1b4917e,62b2ac347935510ec371576c,2022-06-22_01h45.05.004,Colour_Asymmetry_Pilot,2022.1.3,Win32,60.04924038,62b2a6a25f2ba72662469a01,0,73,73,30,1,fourtwo,,,,,,,,,,,,,,,,,,,,,,,,,,,,,,,,,,,,,,,,,,,,,,,,,,,,,,,,,,,,,,,,,,,,,,,,,,,,,,,,,,,,,,,,,,,,,,,,,,,,,,,,,,,,,,,,,,,,,,,,,,,,,,,,,,,,,,,,,,,,,,,,,,,,,,,,
,,,,,,6090b0a0a3289699f1b4917e,62b2ac347935510ec371576c,2022-06-22_01h45.05.004,Colour_Asymmetry_Pilot,2022.1.3,Win32,60.04924038,62b2a6a25f2ba72662469a01,0,74,74,34,1,twoone,,,,,,,,,,,,,,,,,,,,,,,,,,,,,,,,,,,,,,,,,,,,,,,,,,,,,,,,,,,,,,,,,,,,,,,,,,,,,,,,,,,,,,,,,,,,,,,,,,,,,,,,,,,,,,,,,,,,,,,,,,,,,,,,,,,,,,,,,,,,,,,,,,,,,,,,
,,,,,,6090b0a0a3289699f1b4917e,62b2ac347935510ec371576c,2022-06-22_01h45.05.004,Colour_Asymmetry_Pilot,2022.1.3,Win32,60.04924038,62b2a6a25f2ba72662469a01,0,75,75,14,1,fourtwo,,,,,,,,,,,,,,,,,,,,,,,,,,,,,,,,,,,,,,,,,,,,,,,,,,,,,,,,,,,,,,,,,,,,,,,,,,,,,,,,,,,,,,,,,,,,,,,,,,,,,,,,,,,,,,,,,,,,,,,,,,,,,,,,,,,,,,,,,,,,,,,,,,,,,,,,
,,,,,,6090b0a0a3289699f1b4917e,62b2ac347935510ec371576c,2022-06-22_01h45.05.004,Colour_Asymmetry_Pilot,2022.1.3,Win32,60.04924038,62b2a6a25f2ba72662469a01,0,76,76,77,1,threefour,,,,,,,,,,,,,,,,,,,,,,,,,,,,,,,,,,,,,,,,,,,,,,,,,,,,,,,,,,,,,,,,,,,,,,,,,,,,,,,,,,,,,,,,,,,,,,,,,,,,,,,,,,,,,,,,,,,,,,,,,,,,,,,,,,,,,,,,,,,,,,,,,,,,,,,,
,,,,,,6090b0a0a3289699f1b4917e,62b2ac347935510ec371576c,2022-06-22_01h45.05.004,Colour_Asymmetry_Pilot,2022.1.3,Win32,60.04924038,62b2a6a25f2ba72662469a01,0,77,77,23,1,fourthree,,,,,,,,,,,,,,,,,,,,,,,,,,,,,,,,,,,,,,,,,,,,,,,,,,,,,,,,,,,,,,,,,,,,,,,,,,,,,,,,,,,,,,,,,,,,,,,,,,,,,,,,,,,,,,,,,,,,,,,,,,,,,,,,,,,,,,,,,,,,,,,,,,,,,,,,
,,,,,,6090b0a0a3289699f1b4917e,62b2ac347935510ec371576c,2022-06-22_01h45.05.004,Colour_Asymmetry_Pilot,2022.1.3,Win32,60.04924038,62b2a6a25f2ba72662469a01,0,78,78,15,1,fourthree,,,,,,,,,,,,,,,,,,,,,,,,,,,,,,,,,,,,,,,,,,,,,,,,,,,,,,,,,,,,,,,,,,,,,,,,,,,,,,,,,,,,,,,,,,,,,,,,,,,,,,,,,,,,,,,,,,,,,,,,,,,,,,,,,,,,,,,,,,,,,,,,,,,,,,,,
,,,,,,6090b0a0a3289699f1b4917e,62b2ac347935510ec371576c,2022-06-22_01h45.05.004,Colour_Asymmetry_Pilot,2022.1.3,Win32,60.04924038,62b2a6a25f2ba72662469a01,0,79,79,129,1,onethree,,,,,,,,,,,,,,,,,,,,,,,,,,,,,,,,,,,,,,,,,,,,,,,,,,,,,,,,,,,,,,,,,,,,,,,,,,,,,,,,,,,,,,,,,,,,,,,,,,,,,,,,,,,,,,,,,,,,,,,,,,,,,,,,,,,,,,,,,,,,,,,,,,,,,,,,
,,,,,,6090b0a0a3289699f1b4917e,62b2ac347935510ec371576c,2022-06-22_01h45.05.004,Colour_Asymmetry_Pilot,2022.1.3,Win32,60.04924038,62b2a6a25f2ba72662469a01,0,80,80,114,1,twoone,,,,,,,,,,,,,,,,,,,,,,,,,,,,,,,,,,,,,,,,,,,,,,,,,,,,,,,,,,,,,,,,,,,,,,,,,,,,,,,,,,,,,,,,,,,,,,,,,,,,,,,,,,,,,,,,,,,,,,,,,,,,,,,,,,,,,,,,,,,,,,,,,,,,,,,,
,,,,,,6090b0a0a3289699f1b4917e,62b2ac347935510ec371576c,2022-06-22_01h45.05.004,Colour_Asymmetry_Pilot,2022.1.3,Win32,60.04924038,62b2a6a25f2ba72662469a01,0,81,81,104,1,onetwo,,,,,,,,,,,,,,,,,,,,,,,,,,,,,,,,,,,,,,,,,,,,,,,,,,,,,,,,,,,,,,,,,,,,,,,,,,,,,,,,,,,,,,,,,,,,,,,,,,,,,,,,,,,,,,,,,,,,,,,,,,,,,,,,,,,,,,,,,,,,,,,,,,,,,,,,
,,,,,,6090b0a0a3289699f1b4917e,62b2ac347935510ec371576c,2022-06-22_01h45.05.004,Colour_Asymmetry_Pilot,2022.1.3,Win32,60.04924038,62b2a6a25f2ba72662469a01,0,82,82,40,1,onetwo,,,,,,,,,,,,,,,,,,,,,,,,,,,,,,,,,,,,,,,,,,,,,,,,,,,,,,,,,,,,,,,,,,,,,,,,,,,,,,,,,,,,,,,,,,,,,,,,,,,,,,,,,,,,,,,,,,,,,,,,,,,,,,,,,,,,,,,,,,,,,,,,,,,,,,,,
,,,,,,6090b0a0a3289699f1b4917e,62b2ac347935510ec371576c,2022-06-22_01h45.05.004,Colour_Asymmetry_Pilot,2022.1.3,Win32,60.04924038,62b2a6a25f2ba72662469a01,0,83,83,22,1,fourtwo,,,,,,,,,,,,,,,,,,,,,,,,,,,,,,,,,,,,,,,,,,,,,,,,,,,,,,,,,,,,,,,,,,,,,,,,,,,,,,,,,,,,,,,,,,,,,,,,,,,,,,,,,,,,,,,,,,,,,,,,,,,,,,,,,,,,,,,,,,,,,,,,,,,,,,,,
,,,,,,6090b0a0a3289699f1b4917e,62b2ac347935510ec371576c,2022-06-22_01h45.05.004,Colour_Asymmetry_Pilot,2022.1.3,Win32,60.04924038,62b2a6a25f2ba72662469a01,0,84,84,92,1,threeone,,,,,,,,,,,,,,,,,,,,,,,,,,,,,,,,,,,,,,,,,,,,,,,,,,,,,,,,,,,,,,,,,,,,,,,,,,,,,,,,,,,,,,,,,,,,,,,,,,,,,,,,,,,,,,,,,,,,,,,,,,,,,,,,,,,,,,,,,,,,,,,,,,,,,,,,
,,,,,,6090b0a0a3289699f1b4917e,62b2ac347935510ec371576c,2022-06-22_01h45.05.004,Colour_Asymmetry_Pilot,2022.1.3,Win32,60.04924038,62b2a6a25f2ba72662469a01,0,85,85,128,1,onetwo,,,,,,,,,,,,,,,,,,,,,,,,,,,,,,,,,,,,,,,,,,,,,,,,,,,,,,,,,,,,,,,,,,,,,,,,,,,,,,,,,,,,,,,,,,,,,,,,,,,,,,,,,,,,,,,,,,,,,,,,,,,,,,,,,,,,,,,,,,,,,,,,,,,,,,,,
,,,,,,6090b0a0a3289699f1b4917e,62b2ac347935510ec371576c,2022-06-22_01h45.05.004,Colour_Asymmetry_Pilot,2022.1.3,Win32,60.04924038,62b2a6a25f2ba72662469a01,0,86,86,159,1,fourthree,,,,,,,,,,,,,,,,,,,,,,,,,,,,,,,,,,,,,,,,,,,,,,,,,,,,,,,,,,,,,,,,,,,,,,,,,,,,,,,,,,,,,,,,,,,,,,,,,,,,,,,,,,,,,,,,,,,,,,,,,,,,,,,,,,,,,,,,,,,,,,,,,,,,,,,,
,,,,,,6090b0a0a3289699f1b4917e,62b2ac347935510ec371576c,2022-06-22_01h45.05.004,Colour_Asymmetry_Pilot,2022.1.3,Win32,60.04924038,62b2a6a25f2ba72662469a01,0,87,87,137,1,onethree,,,,,,,,,,,,,,,,,,,,,,,,,,,,,,,,,,,,,,,,,,,,,,,,,,,,,,,,,,,,,,,,,,,,,,,,,,,,,,,,,,,,,,,,,,,,,,,,,,,,,,,,,,,,,,,,,,,,,,,,,,,,,,,,,,,,,,,,,,,,,,,,,,,,,,,,
,,,,,,6090b0a0a3289699f1b4917e,62b2ac347935510ec371576c,2022-06-22_01h45.05.004,Colour_Asymmetry_Pilot,2022.1.3,Win32,60.04924038,62b2a6a25f2ba72662469a01,0,88,88,81,1,onethree,,,,,,,,,,,,,,,,,,,,,,,,,,,,,,,,,,,,,,,,,,,,,,,,,,,,,,,,,,,,,,,,,,,,,,,,,,,,,,,,,,,,,,,,,,,,,,,,,,,,,,,,,,,,,,,,,,,,,,,,,,,,,,,,,,,,,,,,,,,,,,,,,,,,,,,,
,,,,,,6090b0a0a3289699f1b4917e,62b2ac347935510ec371576c,2022-06-22_01h45.05.004,Colour_Asymmetry_Pilot,2022.1.3,Win32,60.04924038,62b2a6a25f2ba72662469a01,0,89,89,69,1,threefour,,,,,,,,,,,,,,,,,,,,,,,,,,,,,,,,,,,,,,,,,,,,,,,,,,,,,,,,,,,,,,,,,,,,,,,,,,,,,,,,,,,,,,,,,,,,,,,,,,,,,,,,,,,,,,,,,,,,,,,,,,,,,,,,,,,,,,,,,,,,,,,,,,,,,,,,
,,,,,,6090b0a0a3289699f1b4917e,62b2ac347935510ec371576c,2022-06-22_01h45.05.004,Colour_Asymmetry_Pilot,2022.1.3,Win32,60.04924038,62b2a6a25f2ba72662469a01,0,90,90,130,1,twoone,,,,,,,,,,,,,,,,,,,,,,,,,,,,,,,,,,,,,,,,,,,,,,,,,,,,,,,,,,,,,,,,,,,,,,,,,,,,,,,,,,,,,,,,,,,,,,,,,,,,,,,,,,,,,,,,,,,,,,,,,,,,,,,,,,,,,,,,,,,,,,,,,,,,,,,,
,,,,,,6090b0a0a3289699f1b4917e,62b2ac347935510ec371576c,2022-06-22_01h45.05.004,Colour_Asymmetry_Pilot,2022.1.3,Win32,60.04924038,62b2a6a25f2ba72662469a01,0,91,91,64,1,onetwo,,,,,,,,,,,,,,,,,,,,,,,,,,,,,,,,,,,,,,,,,,,,,,,,,,,,,,,,,,,,,,,,,,,,,,,,,,,,,,,,,,,,,,,,,,,,,,,,,,,,,,,,,,,,,,,,,,,,,,,,,,,,,,,,,,,,,,,,,,,,,,,,,,,,,,,,
,,,,,,6090b0a0a3289699f1b4917e,62b2ac347935510ec371576c,2022-06-22_01h45.05.004,Colour_Asymmetry_Pilot,2022.1.3,Win32,60.04924038,62b2a6a25f2ba72662469a01,0,92,92,119,1,fourthree,,,,,,,,,,,,,,,,,,,,,,,,,,,,,,,,,,,,,,,,,,,,,,,,,,,,,,,,,,,,,,,,,,,,,,,,,,,,,,,,,,,,,,,,,,,,,,,,,,,,,,,,,,,,,,,,,,,,,,,,,,,,,,,,,,,,,,,,,,,,,,,,,,,,,,,,
,,,,,,6090b0a0a3289699f1b4917e,62b2ac347935510ec371576c,2022-06-22_01h45.05.004,Colour_Asymmetry_Pilot,2022.1.3,Win32,60.04924038,62b2a6a25f2ba72662469a01,0,93,93,26,1,twoone,,,,,,,,,,,,,,,,,,,,,,,,,,,,,,,,,,,,,,,,,,,,,,,,,,,,,,,,,,,,,,,,,,,,,,,,,,,,,,,,,,,,,,,,,,,,,,,,,,,,,,,,,,,,,,,,,,,,,,,,,,,,,,,,,,,,,,,,,,,,,,,,,,,,,,,,
,,,,,,6090b0a0a3289699f1b4917e,62b2ac347935510ec371576c,2022-06-22_01h45.05.004,Colour_Asymmetry_Pilot,2022.1.3,Win32,60.04924038,62b2a6a25f2ba72662469a01,0,94,94,88,1,onetwo,,,,,,,,,,,,,,,,,,,,,,,,,,,,,,,,,,,,,,,,,,,,,,,,,,,,,,,,,,,,,,,,,,,,,,,,,,,,,,,,,,,,,,,,,,,,,,,,,,,,,,,,,,,,,,,,,,,,,,,,,,,,,,,,,,,,,,,,,,,,,,,,,,,,,,,,
,,,,,,6090b0a0a3289699f1b4917e,62b2ac347935510ec371576c,2022-06-22_01h45.05.004,Colour_Asymmetry_Pilot,2022.1.3,Win32,60.04924038,62b2a6a25f2ba72662469a01,0,95,95,60,1,threeone,,,,,,,,,,,,,,,,,,,,,,,,,,,,,,,,,,,,,,,,,,,,,,,,,,,,,,,,,,,,,,,,,,,,,,,,,,,,,,,,,,,,,,,,,,,,,,,,,,,,,,,,,,,,,,,,,,,,,,,,,,,,,,,,,,,,,,,,,,,,,,,,,,,,,,,,
,,,,,,6090b0a0a3289699f1b4917e,62b2ac347935510ec371576c,2022-06-22_01h45.05.004,Colour_Asymmetry_Pilot,2022.1.3,Win32,60.04924038,62b2a6a25f2ba72662469a01,0,96,96,135,1,fourthree,,,,,,,,,,,,,,,,,,,,,,,,,,,,,,,,,,,,,,,,,,,,,,,,,,,,,,,,,,,,,,,,,,,,,,,,,,,,,,,,,,,,,,,,,,,,,,,,,,,,,,,,,,,,,,,,,,,,,,,,,,,,,,,,,,,,,,,,,,,,,,,,,,,,,,,,
,,,,,,6090b0a0a3289699f1b4917e,62b2ac347935510ec371576c,2022-06-22_01h45.05.004,Colour_Asymmetry_Pilot,2022.1.3,Win32,60.04924038,62b2a6a25f2ba72662469a01,0,97,97,31,1,fourthree,,,,,,,,,,,,,,,,,,,,,,,,,,,,,,,,,,,,,,,,,,,,,,,,,,,,,,,,,,,,,,,,,,,,,,,,,,,,,,,,,,,,,,,,,,,,,,,,,,,,,,,,,,,,,,,,,,,,,,,,,,,,,,,,,,,,,,,,,,,,,,,,,,,,,,,,
,,,,,,6090b0a0a3289699f1b4917e,62b2ac347935510ec371576c,2022-06-22_01h45.05.004,Colour_Asymmetry_Pilot,2022.1.3,Win32,60.04924038,62b2a6a25f2ba72662469a01,0,98,98,0,1,onetwo,,,,,,,,,,,,,,,,,,,,,,,,,,,,,,,,,,,,,,,,,,,,,,,,,,,,,,,,,,,,,,,,,,,,,,,,,,,,,,,,,,,,,,,,,,,,,,,,,,,,,,,,,,,,,,,,,,,,,,,,,,,,,,,,,,,,,,,,,,,,,,,,,,,,,,,,
,,,,,,6090b0a0a3289699f1b4917e,62b2ac347935510ec371576c,2022-06-22_01h45.05.004,Colour_Asymmetry_Pilot,2022.1.3,Win32,60.04924038,62b2a6a25f2ba72662469a01,0,99,99,99,1,twofour,,,,,,,,,,,,,,,,,,,,,,,,,,,,,,,,,,,,,,,,,,,,,,,,,,,,,,,,,,,,,,,,,,,,,,,,,,,,,,,,,,,,,,,,,,,,,,,,,,,,,,,,,,,,,,,,,,,,,,,,,,,,,,,,,,,,,,,,,,,,,,,,,,,,,,,,
,,,,,,6090b0a0a3289699f1b4917e,62b2ac347935510ec371576c,2022-06-22_01h45.05.004,Colour_Asymmetry_Pilot,2022.1.3,Win32,60.04924038,62b2a6a25f2ba72662469a01,0,100,100,97,1,onethree,,,,,,,,,,,,,,,,,,,,,,,,,,,,,,,,,,,,,,,,,,,,,,,,,,,,,,,,,,,,,,,,,,,,,,,,,,,,,,,,,,,,,,,,,,,,,,,,,,,,,,,,,,,,,,,,,,,,,,,,,,,,,,,,,,,,,,,,,,,,,,,,,,,,,,,,
,,,,,,6090b0a0a3289699f1b4917e,62b2ac347935510ec371576c,2022-06-22_01h45.05.004,Colour_Asymmetry_Pilot,2022.1.3,Win32,60.04924038,62b2a6a25f2ba72662469a01,0,101,101,161,1,onethree,,,,,,,,,,,,,,,,,,,,,,,,,,,,,,,,,,,,,,,,,,,,,,,,,,,,,,,,,,,,,,,,,,,,,,,,,,,,,,,,,,,,,,,,,,,,,,,,,,,,,,,,,,,,,,,,,,,,,,,,,,,,,,,,,,,,,,,,,,,,,,,,,,,,,,,,
,,,,,,6090b0a0a3289699f1b4917e,62b2ac347935510ec371576c,2022-06-22_01h45.05.004,Colour_Asymmetry_Pilot,2022.1.3,Win32,60.04924038,62b2a6a25f2ba72662469a01,0,102,102,51,1,twofour,,,,,,,,,,,,,,,,,,,,,,,,,,,,,,,,,,,,,,,,,,,,,,,,,,,,,,,,,,,,,,,,,,,,,,,,,,,,,,,,,,,,,,,,,,,,,,,,,,,,,,,,,,,,,,,,,,,,,,,,,,,,,,,,,,,,,,,,,,,,,,,,,,,,,,,,
,,,,,,6090b0a0a3289699f1b4917e,62b2ac347935510ec371576c,2022-06-22_01h45.05.004,Colour_Asymmetry_Pilot,2022.1.3,Win32,60.04924038,62b2a6a25f2ba72662469a01,0,103,103,55,1,fourthree,,,,,,,,,,,,,,,,,,,,,,,,,,,,,,,,,,,,,,,,,,,,,,,,,,,,,,,,,,,,,,,,,,,,,,,,,,,,,,,,,,,,,,,,,,,,,,,,,,,,,,,,,,,,,,,,,,,,,,,,,,,,,,,,,,,,,,,,,,,,,,,,,,,,,,,,
,,,,,,6090b0a0a3289699f1b4917e,62b2ac347935510ec371576c,2022-06-22_01h45.05.004,Colour_Asymmetry_Pilot,2022.1.3,Win32,60.04924038,62b2a6a25f2ba72662469a01,0,104,104,43,1,twofour,,,,,,,,,,,,,,,,,,,,,,,,,,,,,,,,,,,,,,,,,,,,,,,,,,,,,,,,,,,,,,,,,,,,,,,,,,,,,,,,,,,,,,,,,,,,,,,,,,,,,,,,,,,,,,,,,,,,,,,,,,,,,,,,,,,,,,,,,,,,,,,,,,,,,,,,
,,,,,,6090b0a0a3289699f1b4917e,62b2ac347935510ec371576c,2022-06-22_01h45.05.004,Colour_Asymmetry_Pilot,2022.1.3,Win32,60.04924038,62b2a6a25f2ba72662469a01,0,105,105,131,1,twofour,,,,,,,,,,,,,,,,,,,,,,,,,,,,,,,,,,,,,,,,,,,,,,,,,,,,,,,,,,,,,,,,,,,,,,,,,,,,,,,,,,,,,,,,,,,,,,,,,,,,,,,,,,,,,,,,,,,,,,,,,,,,,,,,,,,,,,,,,,,,,,,,,,,,,,,,
,,,,,,6090b0a0a3289699f1b4917e,62b2ac347935510ec371576c,2022-06-22_01h45.05.004,Colour_Asymmetry_Pilot,2022.1.3,Win32,60.04924038,62b2a6a25f2ba72662469a01,0,106,106,86,1,fourtwo,,,,,,,,,,,,,,,,,,,,,,,,,,,,,,,,,,,,,,,,,,,,,,,,,,,,,,,,,,,,,,,,,,,,,,,,,,,,,,,,,,,,,,,,,,,,,,,,,,,,,,,,,,,,,,,,,,,,,,,,,,,,,,,,,,,,,,,,,,,,,,,,,,,,,,,,
,,,,,,6090b0a0a3289699f1b4917e,62b2ac347935510ec371576c,2022-06-22_01h45.05.004,Colour_Asymmetry_Pilot,2022.1.3,Win32,60.04924038,62b2a6a25f2ba72662469a01,0,107,107,145,1,onethree,,,,,,,,,,,,,,,,,,,,,,,,,,,,,,,,,,,,,,,,,,,,,,,,,,,,,,,,,,,,,,,,,,,,,,,,,,,,,,,,,,,,,,,,,,,,,,,,,,,,,,,,,,,,,,,,,,,,,,,,,,,,,,,,,,,,,,,,,,,,,,,,,,,,,,,,
,,,,,,6090b0a0a3289699f1b4917e,62b2ac347935510ec371576c,2022-06-22_01h45.05.004,Colour_Asymmetry_Pilot,2022.1.3,Win32,60.04924038,62b2a6a25f2ba72662469a01,0,108,108,151,1,fourthree,,,,,,,,,,,,,,,,,,,,,,,,,,,,,,,,,,,,,,,,,,,,,,,,,,,,,,,,,,,,,,,,,,,,,,,,,,,,,,,,,,,,,,,,,,,,,,,,,,,,,,,,,,,,,,,,,,,,,,,,,,,,,,,,,,,,,,,,,,,,,,,,,,,,,,,,
,,,,,,6090b0a0a3289699f1b4917e,62b2ac347935510ec371576c,2022-06-22_01h45.05.004,Colour_Asymmetry_Pilot,2022.1.3,Win32,60.04924038,62b2a6a25f2ba72662469a01,0,109,109,148,1,threeone,,,,,,,,,,,,,,,,,,,,,,,,,,,,,,,,,,,,,,,,,,,,,,,,,,,,,,,,,,,,,,,,,,,,,,,,,,,,,,,,,,,,,,,,,,,,,,,,,,,,,,,,,,,,,,,,,,,,,,,,,,,,,,,,,,,,,,,,,,,,,,,,,,,,,,,,
,,,,,,6090b0a0a3289699f1b4917e,62b2ac347935510ec371576c,2022-06-22_01h45.05.004,Colour_Asymmetry_Pilot,2022.1.3,Win32,60.04924038,62b2a6a25f2ba72662469a01,0,110,110,134,1,fourtwo,,,,,,,,,,,,,,,,,,,,,,,,,,,,,,,,,,,,,,,,,,,,,,,,,,,,,,,,,,,,,,,,,,,,,,,,,,,,,,,,,,,,,,,,,,,,,,,,,,,,,,,,,,,,,,,,,,,,,,,,,,,,,,,,,,,,,,,,,,,,,,,,,,,,,,,,
,,,,,,6090b0a0a3289699f1b4917e,62b2ac347935510ec371576c,2022-06-22_01h45.05.004,Colour_Asymmetry_Pilot,2022.1.3,Win32,60.04924038,62b2a6a25f2ba72662469a01,0,111,111,59,1,twofour,,,,,,,,,,,,,,,,,,,,,,,,,,,,,,,,,,,,,,,,,,,,,,,,,,,,,,,,,,,,,,,,,,,,,,,,,,,,,,,,,,,,,,,,,,,,,,,,,,,,,,,,,,,,,,,,,,,,,,,,,,,,,,,,,,,,,,,,,,,,,,,,,,,,,,,,
,,,,,,6090b0a0a3289699f1b4917e,62b2ac347935510ec371576c,2022-06-22_01h45.05.004,Colour_Asymmetry_Pilot,2022.1.3,Win32,60.04924038,62b2a6a25f2ba72662469a01,0,112,112,61,1,threefour,,,,,,,,,,,,,,,,,,,,,,,,,,,,,,,,,,,,,,,,,,,,,,,,,,,,,,,,,,,,,,,,,,,,,,,,,,,,,,,,,,,,,,,,,,,,,,,,,,,,,,,,,,,,,,,,,,,,,,,,,,,,,,,,,,,,,,,,,,,,,,,,,,,,,,,,
,,,,,,6090b0a0a3289699f1b4917e,62b2ac347935510ec371576c,2022-06-22_01h45.05.004,Colour_Asymmetry_Pilot,2022.1.3,Win32,60.04924038,62b2a6a25f2ba72662469a01,0,113,113,52,1,threeone,,,,,,,,,,,,,,,,,,,,,,,,,,,,,,,,,,,,,,,,,,,,,,,,,,,,,,,,,,,,,,,,,,,,,,,,,,,,,,,,,,,,,,,,,,,,,,,,,,,,,,,,,,,,,,,,,,,,,,,,,,,,,,,,,,,,,,,,,,,,,,,,,,,,,,,,
,,,,,,6090b0a0a3289699f1b4917e,62b2ac347935510ec371576c,2022-06-22_01h45.05.004,Colour_Asymmetry_Pilot,2022.1.3,Win32,60.04924038,62b2a6a25f2ba72662469a01,0,114,114,111,1,fourthree,,,,,,,,,,,,,,,,,,,,,,,,,,,,,,,,,,,,,,,,,,,,,,,,,,,,,,,,,,,,,,,,,,,,,,,,,,,,,,,,,,,,,,,,,,,,,,,,,,,,,,,,,,,,,,,,,,,,,,,,,,,,,,,,,,,,,,,,,,,,,,,,,,,,,,,,
,,,,,,6090b0a0a3289699f1b4917e,62b2ac347935510ec371576c,2022-06-22_01h45.05.004,Colour_Asymmetry_Pilot,2022.1.3,Win32,60.04924038,62b2a6a25f2ba72662469a01,0,115,115,154,1,twoone,,,,,,,,,,,,,,,,,,,,,,,,,,,,,,,,,,,,,,,,,,,,,,,,,,,,,,,,,,,,,,,,,,,,,,,,,,,,,,,,,,,,,,,,,,,,,,,,,,,,,,,,,,,,,,,,,,,,,,,,,,,,,,,,,,,,,,,,,,,,,,,,,,,,,,,,
,,,,,,6090b0a0a3289699f1b4917e,62b2ac347935510ec371576c,2022-06-22_01h45.05.004,Colour_Asymmetry_Pilot,2022.1.3,Win32,60.04924038,62b2a6a25f2ba72662469a01,0,116,116,121,1,onethree,,,,,,,,,,,,,,,,,,,,,,,,,,,,,,,,,,,,,,,,,,,,,,,,,,,,,,,,,,,,,,,,,,,,,,,,,,,,,,,,,,,,,,,,,,,,,,,,,,,,,,,,,,,,,,,,,,,,,,,,,,,,,,,,,,,,,,,,,,,,,,,,,,,,,,,,
,,,,,,6090b0a0a3289699f1b4917e,62b2ac347935510ec371576c,2022-06-22_01h45.05.004,Colour_Asymmetry_Pilot,2022.1.3,Win32,60.04924038,62b2a6a25f2ba72662469a01,0,117,117,150,1,fourtwo,,,,,,,,,,,,,,,,,,,,,,,,,,,,,,,,,,,,,,,,,,,,,,,,,,,,,,,,,,,,,,,,,,,,,,,,,,,,,,,,,,,,,,,,,,,,,,,,,,,,,,,,,,,,,,,,,,,,,,,,,,,,,,,,,,,,,,,,,,,,,,,,,,,,,,,,
,,,,,,6090b0a0a3289699f1b4917e,62b2ac347935510ec371576c,2022-06-22_01h45.05.004,Colour_Asymmetry_Pilot,2022.1.3,Win32,60.04924038,62b2a6a25f2ba72662469a01,0,118,118,49,1,onethree,,,,,,,,,,,,,,,,,,,,,,,,,,,,,,,,,,,,,,,,,,,,,,,,,,,,,,,,,,,,,,,,,,,,,,,,,,,,,,,,,,,,,,,,,,,,,,,,,,,,,,,,,,,,,,,,,,,,,,,,,,,,,,,,,,,,,,,,,,,,,,,,,,,,,,,,
,,,,,,6090b0a0a3289699f1b4917e,62b2ac347935510ec371576c,2022-06-22_01h45.05.004,Colour_Asymmetry_Pilot,2022.1.3,Win32,60.04924038,62b2a6a25f2ba72662469a01,0,119,119,24,1,onetwo,,,,,,,,,,,,,,,,,,,,,,,,,,,,,,,,,,,,,,,,,,,,,,,,,,,,,,,,,,,,,,,,,,,,,,,,,,,,,,,,,,,,,,,,,,,,,,,,,,,,,,,,,,,,,,,,,,,,,,,,,,,,,,,,,,,,,,,,,,,,,,,,,,,,,,,,
,,,,,,6090b0a0a3289699f1b4917e,62b2ac347935510ec371576c,2022-06-22_01h45.05.004,Colour_Asymmetry_Pilot,2022.1.3,Win32,60.04924038,62b2a6a25f2ba72662469a01,0,120,120,87,1,fourthree,,,,,,,,,,,,,,,,,,,,,,,,,,,,,,,,,,,,,,,,,,,,,,,,,,,,,,,,,,,,,,,,,,,,,,,,,,,,,,,,,,,,,,,,,,,,,,,,,,,,,,,,,,,,,,,,,,,,,,,,,,,,,,,,,,,,,,,,,,,,,,,,,,,,,,,,
,,,,,,6090b0a0a3289699f1b4917e,62b2ac347935510ec371576c,2022-06-22_01h45.05.004,Colour_Asymmetry_Pilot,2022.1.3,Win32,60.04924038,62b2a6a25f2ba72662469a01,0,121,121,41,1,onethree,,,,,,,,,,,,,,,,,,,,,,,,,,,,,,,,,,,,,,,,,,,,,,,,,,,,,,,,,,,,,,,,,,,,,,,,,,,,,,,,,,,,,,,,,,,,,,,,,,,,,,,,,,,,,,,,,,,,,,,,,,,,,,,,,,,,,,,,,,,,,,,,,,,,,,,,
,,,,,,6090b0a0a3289699f1b4917e,62b2ac347935510ec371576c,2022-06-22_01h45.05.004,Colour_Asymmetry_Pilot,2022.1.3,Win32,60.04924038,62b2a6a25f2ba72662469a01,0,122,122,136,1,onetwo,,,,,,,,,,,,,,,,,,,,,,,,,,,,,,,,,,,,,,,,,,,,,,,,,,,,,,,,,,,,,,,,,,,,,,,,,,,,,,,,,,,,,,,,,,,,,,,,,,,,,,,,,,,,,,,,,,,,,,,,,,,,,,,,,,,,,,,,,,,,,,,,,,,,,,,,
,,,,,,6090b0a0a3289699f1b4917e,62b2ac347935510ec371576c,2022-06-22_01h45.05.004,Colour_Asymmetry_Pilot,2022.1.3,Win32,60.04924038,62b2a6a25f2ba72662469a01,0,123,123,20,1,threeone,,,,,,,,,,,,,,,,,,,,,,,,,,,,,,,,,,,,,,,,,,,,,,,,,,,,,,,,,,,,,,,,,,,,,,,,,,,,,,,,,,,,,,,,,,,,,,,,,,,,,,,,,,,,,,,,,,,,,,,,,,,,,,,,,,,,,,,,,,,,,,,,,,,,,,,,
,,,,,,6090b0a0a3289699f1b4917e,62b2ac347935510ec371576c,2022-06-22_01h45.05.004,Colour_Asymmetry_Pilot,2022.1.3,Win32,60.04924038,62b2a6a25f2ba72662469a01,0,124,124,73,1,onethree,,,,,,,,,,,,,,,,,,,,,,,,,,,,,,,,,,,,,,,,,,,,,,,,,,,,,,,,,,,,,,,,,,,,,,,,,,,,,,,,,,,,,,,,,,,,,,,,,,,,,,,,,,,,,,,,,,,,,,,,,,,,,,,,,,,,,,,,,,,,,,,,,,,,,,,,
,,,,,,6090b0a0a3289699f1b4917e,62b2ac347935510ec371576c,2022-06-22_01h45.05.004,Colour_Asymmetry_Pilot,2022.1.3,Win32,60.04924038,62b2a6a25f2ba72662469a01,0,125,125,75,1,twofour,,,,,,,,,,,,,,,,,,,,,,,,,,,,,,,,,,,,,,,,,,,,,,,,,,,,,,,,,,,,,,,,,,,,,,,,,,,,,,,,,,,,,,,,,,,,,,,,,,,,,,,,,,,,,,,,,,,,,,,,,,,,,,,,,,,,,,,,,,,,,,,,,,,,,,,,
,,,,,,6090b0a0a3289699f1b4917e,62b2ac347935510ec371576c,2022-06-22_01h45.05.004,Colour_Asymmetry_Pilot,2022.1.3,Win32,60.04924038,62b2a6a25f2ba72662469a01,0,126,126,108,1,threeone,,,,,,,,,,,,,,,,,,,,,,,,,,,,,,,,,,,,,,,,,,,,,,,,,,,,,,,,,,,,,,,,,,,,,,,,,,,,,,,,,,,,,,,,,,,,,,,,,,,,,,,,,,,,,,,,,,,,,,,,,,,,,,,,,,,,,,,,,,,,,,,,,,,,,,,,
,,,,,,6090b0a0a3289699f1b4917e,62b2ac347935510ec371576c,2022-06-22_01h45.05.004,Colour_Asymmetry_Pilot,2022.1.3,Win32,60.04924038,62b2a6a25f2ba72662469a01,0,127,127,79,1,fourthree,,,,,,,,,,,,,,,,,,,,,,,,,,,,,,,,,,,,,,,,,,,,,,,,,,,,,,,,,,,,,,,,,,,,,,,,,,,,,,,,,,,,,,,,,,,,,,,,,,,,,,,,,,,,,,,,,,,,,,,,,,,,,,,,,,,,,,,,,,,,,,,,,,,,,,,,
,,,,,,6090b0a0a3289699f1b4917e,62b2ac347935510ec371576c,2022-06-22_01h45.05.004,Colour_Asymmetry_Pilot,2022.1.3,Win32,60.04924038,62b2a6a25f2ba72662469a01,0,128,128,127,1,fourthree,,,,,,,,,,,,,,,,,,,,,,,,,,,,,,,,,,,,,,,,,,,,,,,,,,,,,,,,,,,,,,,,,,,,,,,,,,,,,,,,,,,,,,,,,,,,,,,,,,,,,,,,,,,,,,,,,,,,,,,,,,,,,,,,,,,,,,,,,,,,,,,,,,,,,,,,
,,,,,,6090b0a0a3289699f1b4917e,62b2ac347935510ec371576c,2022-06-22_01h45.05.004,Colour_Asymmetry_Pilot,2022.1.3,Win32,60.04924038,62b2a6a25f2ba72662469a01,0,129,129,147,1,twofour,,,,,,,,,,,,,,,,,,,,,,,,,,,,,,,,,,,,,,,,,,,,,,,,,,,,,,,,,,,,,,,,,,,,,,,,,,,,,,,,,,,,,,,,,,,,,,,,,,,,,,,,,,,,,,,,,,,,,,,,,,,,,,,,,,,,,,,,,,,,,,,,,,,,,,,,
,,,,,,6090b0a0a3289699f1b4917e,62b2ac347935510ec371576c,2022-06-22_01h45.05.004,Colour_Asymmetry_Pilot,2022.1.3,Win32,60.04924038,62b2a6a25f2ba72662469a01,0,130,130,25,1,onethree,,,,,,,,,,,,,,,,,,,,,,,,,,,,,,,,,,,,,,,,,,,,,,,,,,,,,,,,,,,,,,,,,,,,,,,,,,,,,,,,,,,,,,,,,,,,,,,,,,,,,,,,,,,,,,,,,,,,,,,,,,,,,,,,,,,,,,,,,,,,,,,,,,,,,,,,
,,,,,,6090b0a0a3289699f1b4917e,62b2ac347935510ec371576c,2022-06-22_01h45.05.004,Colour_Asymmetry_Pilot,2022.1.3,Win32,60.04924038,62b2a6a25f2ba72662469a01,0,131,131,139,1,twofour,,,,,,,,,,,,,,,,,,,,,,,,,,,,,,,,,,,,,,,,,,,,,,,,,,,,,,,,,,,,,,,,,,,,,,,,,,,,,,,,,,,,,,,,,,,,,,,,,,,,,,,,,,,,,,,,,,,,,,,,,,,,,,,,,,,,,,,,,,,,,,,,,,,,,,,,
,,,,,,6090b0a0a3289699f1b4917e,62b2ac347935510ec371576c,2022-06-22_01h45.05.004,Colour_Asymmetry_Pilot,2022.1.3,Win32,60.04924038,62b2a6a25f2ba72662469a01,0,132,132,124,1,threeone,,,,,,,,,,,,,,,,,,,,,,,,,,,,,,,,,,,,,,,,,,,,,,,,,,,,,,,,,,,,,,,,,,,,,,,,,,,,,,,,,,,,,,,,,,,,,,,,,,,,,,,,,,,,,,,,,,,,,,,,,,,,,,,,,,,,,,,,,,,,,,,,,,,,,,,,
,,,,,,6090b0a0a3289699f1b4917e,62b2ac347935510ec371576c,2022-06-22_01h45.05.004,Colour_Asymmetry_Pilot,2022.1.3,Win32,60.04924038,62b2a6a25f2ba72662469a01,0,133,133,63,1,fourthree,,,,,,,,,,,,,,,,,,,,,,,,,,,,,,,,,,,,,,,,,,,,,,,,,,,,,,,,,,,,,,,,,,,,,,,,,,,,,,,,,,,,,,,,,,,,,,,,,,,,,,,,,,,,,,,,,,,,,,,,,,,,,,,,,,,,,,,,,,,,,,,,,,,,,,,,
,,,,,,6090b0a0a3289699f1b4917e,62b2ac347935510ec371576c,2022-06-22_01h45.05.004,Colour_Asymmetry_Pilot,2022.1.3,Win32,60.04924038,62b2a6a25f2ba72662469a01,0,134,134,70,1,fourtwo,,,,,,,,,,,,,,,,,,,,,,,,,,,,,,,,,,,,,,,,,,,,,,,,,,,,,,,,,,,,,,,,,,,,,,,,,,,,,,,,,,,,,,,,,,,,,,,,,,,,,,,,,,,,,,,,,,,,,,,,,,,,,,,,,,,,,,,,,,,,,,,,,,,,,,,,
,,,,,,6090b0a0a3289699f1b4917e,62b2ac347935510ec371576c,2022-06-22_01h45.05.004,Colour_Asymmetry_Pilot,2022.1.3,Win32,60.04924038,62b2a6a25f2ba72662469a01,0,135,135,21,1,threefour,,,,,,,,,,,,,,,,,,,,,,,,,,,,,,,,,,,,,,,,,,,,,,,,,,,,,,,,,,,,,,,,,,,,,,,,,,,,,,,,,,,,,,,,,,,,,,,,,,,,,,,,,,,,,,,,,,,,,,,,,,,,,,,,,,,,,,,,,,,,,,,,,,,,,,,,
,,,,,,6090b0a0a3289699f1b4917e,62b2ac347935510ec371576c,2022-06-22_01h45.05.004,Colour_Asymmetry_Pilot,2022.1.3,Win32,60.04924038,62b2a6a25f2ba72662469a01,0,136,136,13,1,threefour,,,,,,,,,,,,,,,,,,,,,,,,,,,,,,,,,,,,,,,,,,,,,,,,,,,,,,,,,,,,,,,,,,,,,,,,,,,,,,,,,,,,,,,,,,,,,,,,,,,,,,,,,,,,,,,,,,,,,,,,,,,,,,,,,,,,,,,,,,,,,,,,,,,,,,,,
,,,,,,6090b0a0a3289699f1b4917e,62b2ac347935510ec371576c,2022-06-22_01h45.05.004,Colour_Asymmetry_Pilot,2022.1.3,Win32,60.04924038,62b2a6a25f2ba72662469a01,0,137,137,89,1,onethree,,,,,,,,,,,,,,,,,,,,,,,,,,,,,,,,,,,,,,,,,,,,,,,,,,,,,,,,,,,,,,,,,,,,,,,,,,,,,,,,,,,,,,,,,,,,,,,,,,,,,,,,,,,,,,,,,,,,,,,,,,,,,,,,,,,,,,,,,,,,,,,,,,,,,,,,
,,,,,,6090b0a0a3289699f1b4917e,62b2ac347935510ec371576c,2022-06-22_01h45.05.004,Colour_Asymmetry_Pilot,2022.1.3,Win32,60.04924038,62b2a6a25f2ba72662469a01,0,138,138,155,1,twofour,,,,,,,,,,,,,,,,,,,,,,,,,,,,,,,,,,,,,,,,,,,,,,,,,,,,,,,,,,,,,,,,,,,,,,,,,,,,,,,,,,,,,,,,,,,,,,,,,,,,,,,,,,,,,,,,,,,,,,,,,,,,,,,,,,,,,,,,,,,,,,,,,,,,,,,,
,,,,,,6090b0a0a3289699f1b4917e,62b2ac347935510ec371576c,2022-06-22_01h45.05.004,Colour_Asymmetry_Pilot,2022.1.3,Win32,60.04924038,62b2a6a25f2ba72662469a01,0,139,139,80,1,onetwo,,,,,,,,,,,,,,,,,,,,,,,,,,,,,,,,,,,,,,,,,,,,,,,,,,,,,,,,,,,,,,,,,,,,,,,,,,,,,,,,,,,,,,,,,,,,,,,,,,,,,,,,,,,,,,,,,,,,,,,,,,,,,,,,,,,,,,,,,,,,,,,,,,,,,,,,
,,,,,,6090b0a0a3289699f1b4917e,62b2ac347935510ec371576c,2022-06-22_01h45.05.004,Colour_Asymmetry_Pilot,2022.1.3,Win32,60.04924038,62b2a6a25f2ba72662469a01,0,140,140,7,1,fourthree,,,,,,,,,,,,,,,,,,,,,,,,,,,,,,,,,,,,,,,,,,,,,,,,,,,,,,,,,,,,,,,,,,,,,,,,,,,,,,,,,,,,,,,,,,,,,,,,,,,,,,,,,,,,,,,,,,,,,,,,,,,,,,,,,,,,,,,,,,,,,,,,,,,,,,,,
,,,,,,6090b0a0a3289699f1b4917e,62b2ac347935510ec371576c,2022-06-22_01h45.05.004,Colour_Asymmetry_Pilot,2022.1.3,Win32,60.04924038,62b2a6a25f2ba72662469a01,0,141,141,44,1,threeone,,,,,,,,,,,,,,,,,,,,,,,,,,,,,,,,,,,,,,,,,,,,,,,,,,,,,,,,,,,,,,,,,,,,,,,,,,,,,,,,,,,,,,,,,,,,,,,,,,,,,,,,,,,,,,,,,,,,,,,,,,,,,,,,,,,,,,,,,,,,,,,,,,,,,,,,
,,,,,,6090b0a0a3289699f1b4917e,62b2ac347935510ec371576c,2022-06-22_01h45.05.004,Colour_Asymmetry_Pilot,2022.1.3,Win32,60.04924038,62b2a6a25f2ba72662469a01,0,142,142,107,1,twofour,,,,,,,,,,,,,,,,,,,,,,,,,,,,,,,,,,,,,,,,,,,,,,,,,,,,,,,,,,,,,,,,,,,,,,,,,,,,,,,,,,,,,,,,,,,,,,,,,,,,,,,,,,,,,,,,,,,,,,,,,,,,,,,,,,,,,,,,,,,,,,,,,,,,,,,,
,,,,,,6090b0a0a3289699f1b4917e,62b2ac347935510ec371576c,2022-06-22_01h45.05.004,Colour_Asymmetry_Pilot,2022.1.3,Win32,60.04924038,62b2a6a25f2ba72662469a01,0,143,143,83,1,twofour,,,,,,,,,,,,,,,,,,,,,,,,,,,,,,,,,,,,,,,,,,,,,,,,,,,,,,,,,,,,,,,,,,,,,,,,,,,,,,,,,,,,,,,,,,,,,,,,,,,,,,,,,,,,,,,,,,,,,,,,,,,,,,,,,,,,,,,,,,,,,,,,,,,,,,,,
,,,,,,6090b0a0a3289699f1b4917e,62b2ac347935510ec371576c,2022-06-22_01h45.05.004,Colour_Asymmetry_Pilot,2022.1.3,Win32,60.04924038,62b2a6a25f2ba72662469a01,0,144,144,140,1,threeone,,,,,,,,,,,,,,,,,,,,,,,,,,,,,,,,,,,,,,,,,,,,,,,,,,,,,,,,,,,,,,,,,,,,,,,,,,,,,,,,,,,,,,,,,,,,,,,,,,,,,,,,,,,,,,,,,,,,,,,,,,,,,,,,,,,,,,,,,,,,,,,,,,,,,,,,
,,,,,,6090b0a0a3289699f1b4917e,62b2ac347935510ec371576c,2022-06-22_01h45.05.004,Colour_Asymmetry_Pilot,2022.1.3,Win32,60.04924038,62b2a6a25f2ba72662469a01,0,145,145,113,1,onethree,,,,,,,,,,,,,,,,,,,,,,,,,,,,,,,,,,,,,,,,,,,,,,,,,,,,,,,,,,,,,,,,,,,,,,,,,,,,,,,,,,,,,,,,,,,,,,,,,,,,,,,,,,,,,,,,,,,,,,,,,,,,,,,,,,,,,,,,,,,,,,,,,,,,,,,,
,,,,,,6090b0a0a3289699f1b4917e,62b2ac347935510ec371576c,2022-06-22_01h45.05.004,Colour_Asymmetry_Pilot,2022.1.3,Win32,60.04924038,62b2a6a25f2ba72662469a01,0,146,146,72,1,onetwo,,,,,,,,,,,,,,,,,,,,,,,,,,,,,,,,,,,,,,,,,,,,,,,,,,,,,,,,,,,,,,,,,,,,,,,,,,,,,,,,,,,,,,,,,,,,,,,,,,,,,,,,,,,,,,,,,,,,,,,,,,,,,,,,,,,,,,,,,,,,,,,,,,,,,,,,
,,,,,,6090b0a0a3289699f1b4917e,62b2ac347935510ec371576c,2022-06-22_01h45.05.004,Colour_Asymmetry_Pilot,2022.1.3,Win32,60.04924038,62b2a6a25f2ba72662469a01,0,147,147,125,1,threefour,,,,,,,,,,,,,,,,,,,,,,,,,,,,,,,,,,,,,,,,,,,,,,,,,,,,,,,,,,,,,,,,,,,,,,,,,,,,,,,,,,,,,,,,,,,,,,,,,,,,,,,,,,,,,,,,,,,,,,,,,,,,,,,,,,,,,,,,,,,,,,,,,,,,,,,,
,,,,,,6090b0a0a3289699f1b4917e,62b2ac347935510ec371576c,2022-06-22_01h45.05.004,Colour_Asymmetry_Pilot,2022.1.3,Win32,60.04924038,62b2a6a25f2ba72662469a01,0,148,148,90,1,twoone,,,,,,,,,,,,,,,,,,,,,,,,,,,,,,,,,,,,,,,,,,,,,,,,,,,,,,,,,,,,,,,,,,,,,,,,,,,,,,,,,,,,,,,,,,,,,,,,,,,,,,,,,,,,,,,,,,,,,,,,,,,,,,,,,,,,,,,,,,,,,,,,,,,,,,,,
,,,,,,6090b0a0a3289699f1b4917e,62b2ac347935510ec371576c,2022-06-22_01h45.05.004,Colour_Asymmetry_Pilot,2022.1.3,Win32,60.04924038,62b2a6a25f2ba72662469a01,0,149,149,141,1,threefour,,,,,,,,,,,,,,,,,,,,,,,,,,,,,,,,,,,,,,,,,,,,,,,,,,,,,,,,,,,,,,,,,,,,,,,,,,,,,,,,,,,,,,,,,,,,,,,,,,,,,,,,,,,,,,,,,,,,,,,,,,,,,,,,,,,,,,,,,,,,,,,,,,,,,,,,
,,,,,,6090b0a0a3289699f1b4917e,62b2ac347935510ec371576c,2022-06-22_01h45.05.004,Colour_Asymmetry_Pilot,2022.1.3,Win32,60.04924038,62b2a6a25f2ba72662469a01,0,150,150,138,1,twoone,,,,,,,,,,,,,,,,,,,,,,,,,,,,,,,,,,,,,,,,,,,,,,,,,,,,,,,,,,,,,,,,,,,,,,,,,,,,,,,,,,,,,,,,,,,,,,,,,,,,,,,,,,,,,,,,,,,,,,,,,,,,,,,,,,,,,,,,,,,,,,,,,,,,,,,,
,,,,,,6090b0a0a3289699f1b4917e,62b2ac347935510ec371576c,2022-06-22_01h45.05.004,Colour_Asymmetry_Pilot,2022.1.3,Win32,60.04924038,62b2a6a25f2ba72662469a01,0,151,151,116,1,threeone,,,,,,,,,,,,,,,,,,,,,,,,,,,,,,,,,,,,,,,,,,,,,,,,,,,,,,,,,,,,,,,,,,,,,,,,,,,,,,,,,,,,,,,,,,,,,,,,,,,,,,,,,,,,,,,,,,,,,,,,,,,,,,,,,,,,,,,,,,,,,,,,,,,,,,,,
,,,,,,6090b0a0a3289699f1b4917e,62b2ac347935510ec371576c,2022-06-22_01h45.05.004,Colour_Asymmetry_Pilot,2022.1.3,Win32,60.04924038,62b2a6a25f2ba72662469a01,0,152,152,84,1,threeone,,,,,,,,,,,,,,,,,,,,,,,,,,,,,,,,,,,,,,,,,,,,,,,,,,,,,,,,,,,,,,,,,,,,,,,,,,,,,,,,,,,,,,,,,,,,,,,,,,,,,,,,,,,,,,,,,,,,,,,,,,,,,,,,,,,,,,,,,,,,,,,,,,,,,,,,
,,,,,,6090b0a0a3289699f1b4917e,62b2ac347935510ec371576c,2022-06-22_01h45.05.004,Colour_Asymmetry_Pilot,2022.1.3,Win32,60.04924038,62b2a6a25f2ba72662469a01,0,153,153,67,1,twofour,,,,,,,,,,,,,,,,,,,,,,,,,,,,,,,,,,,,,,,,,,,,,,,,,,,,,,,,,,,,,,,,,,,,,,,,,,,,,,,,,,,,,,,,,,,,,,,,,,,,,,,,,,,,,,,,,,,,,,,,,,,,,,,,,,,,,,,,,,,,,,,,,,,,,,,,
,,,,,,6090b0a0a3289699f1b4917e,62b2ac347935510ec371576c,2022-06-22_01h45.05.004,Colour_Asymmetry_Pilot,2022.1.3,Win32,60.04924038,62b2a6a25f2ba72662469a01,0,154,154,37,1,threefour,,,,,,,,,,,,,,,,,,,,,,,,,,,,,,,,,,,,,,,,,,,,,,,,,,,,,,,,,,,,,,,,,,,,,,,,,,,,,,,,,,,,,,,,,,,,,,,,,,,,,,,,,,,,,,,,,,,,,,,,,,,,,,,,,,,,,,,,,,,,,,,,,,,,,,,,
,,,,,,6090b0a0a3289699f1b4917e,62b2ac347935510ec371576c,2022-06-22_01h45.05.004,Colour_Asymmetry_Pilot,2022.1.3,Win32,60.04924038,62b2a6a25f2ba72662469a01,0,155,155,66,1,twoone,,,,,,,,,,,,,,,,,,,,,,,,,,,,,,,,,,,,,,,,,,,,,,,,,,,,,,,,,,,,,,,,,,,,,,,,,,,,,,,,,,,,,,,,,,,,,,,,,,,,,,,,,,,,,,,,,,,,,,,,,,,,,,,,,,,,,,,,,,,,,,,,,,,,,,,,
,,,,,,6090b0a0a3289699f1b4917e,62b2ac347935510ec371576c,2022-06-22_01h45.05.004,Colour_Asymmetry_Pilot,2022.1.3,Win32,60.04924038,62b2a6a25f2ba72662469a01,0,156,156,58,1,twoone,,,,,,,,,,,,,,,,,,,,,,,,,,,,,,,,,,,,,,,,,,,,,,,,,,,,,,,,,,,,,,,,,,,,,,,,,,,,,,,,,,,,,,,,,,,,,,,,,,,,,,,,,,,,,,,,,,,,,,,,,,,,,,,,,,,,,,,,,,,,,,,,,,,,,,,,
,,,,,,6090b0a0a3289699f1b4917e,62b2ac347935510ec371576c,2022-06-22_01h45.05.004,Colour_Asymmetry_Pilot,2022.1.3,Win32,60.04924038,62b2a6a25f2ba72662469a01,0,157,157,27,1,twofour,,,,,,,,,,,,,,,,,,,,,,,,,,,,,,,,,,,,,,,,,,,,,,,,,,,,,,,,,,,,,,,,,,,,,,,,,,,,,,,,,,,,,,,,,,,,,,,,,,,,,,,,,,,,,,,,,,,,,,,,,,,,,,,,,,,,,,,,,,,,,,,,,,,,,,,,
,,,,,,6090b0a0a3289699f1b4917e,62b2ac347935510ec371576c,2022-06-22_01h45.05.004,Colour_Asymmetry_Pilot,2022.1.3,Win32,60.04924038,62b2a6a25f2ba72662469a01,0,158,158,9,1,onethree,,,,,,,,,,,,,,,,,,,,,,,,,,,,,,,,,,,,,,,,,,,,,,,,,,,,,,,,,,,,,,,,,,,,,,,,,,,,,,,,,,,,,,,,,,,,,,,,,,,,,,,,,,,,,,,,,,,,,,,,,,,,,,,,,,,,,,,,,,,,,,,,,,,,,,,,
,,,,,,6090b0a0a3289699f1b4917e,62b2ac347935510ec371576c,2022-06-22_01h45.05.004,Colour_Asymmetry_Pilot,2022.1.3,Win32,60.04924038,62b2a6a25f2ba72662469a01,0,159,159,57,1,onethree,,,,,,,,,,,,,,,,,,,,,,,,,,,,,,,,,,,,,,,,,,,,,,,,,,,,,,,,,,,,,,,,,,,,,,,,,,,,,,,,,,,,,,,,,,,,,,,,,,,,,,,,,,,,,,,,,,,,,,,,,,,,,,,,,,,,,,,,,,,,,,,,,,,,,,,,
,,,,,,6090b0a0a3289699f1b4917e,62b2ac347935510ec371576c,2022-06-22_01h45.05.004,Colour_Asymmetry_Pilot,2022.1.3,Win32,60.04924038,62b2a6a25f2ba72662469a01,0,160,160,33,1,onethree,,,,,,,,,,,,,,,,,,,,,,,,,,,,,,,,,,,,,,,,,,,,,,,,,,,,,,,,,,,,,,,,,,,,,,,,,,,,,,,,,,,,,,,,,,,,,,,,,,,,,,,,,,,,,,,,,,,,,,,,,,,,,,,,,,,,,,,,,,,,,,,,,,,,,,,,
,,,,,,6090b0a0a3289699f1b4917e,62b2ac347935510ec371576c,2022-06-22_01h45.05.004,Colour_Asymmetry_Pilot,2022.1.3,Win32,60.04924038,62b2a6a25f2ba72662469a01,0,161,161,152,1,onetwo,,,,,,,,,,,,,,,,,,,,,,,,,,,,,,,,,,,,,,,,,,,,,,,,,,,,,,,,,,,,,,,,,,,,,,,,,,,,,,,,,,,,,,,,,,,,,,,,,,,,,,,,,,,,,,,,,,,,,,,,,,,,,,,,,,,,,,,,,,,,,,,,,,,,,,,,
,,,,,,6090b0a0a3289699f1b4917e,62b2ac347935510ec371576c,2022-06-22_01h45.05.004,Colour_Asymmetry_Pilot,2022.1.3,Win32,60.04924038,62b2a6a25f2ba72662469a01,,,,,,,space,3.9948,space,14.5211,space,44.5228,space,23.6101,space,3.7704,space,3.643,"[0.3881999999999999,-0.23939999999999995,-0.05040000000000011]",twoone,"[0.3568,-0.20799999999999996,-0.9844]",-4,4.6811,-27,88,1,0,0,response7disk_5,1,-2,1,0,0,rectangle_8,92,-36,1,0,0,response3disk_7,5,2,0,-3,1,0,0,rectangle_4,0,0,0,0,1,,,,,,,,,,,,,,,,,,,,,,,,,,,,,,,,,,,,,,,,,,,,,,,,,,,,,,,,,,,,,,,,,,,,,,,,,,,,,,,,,,,,,,,,,,,,,,,,,,,,,,,,
,,,,,,6090b0a0a3289699f1b4917e,62b2ac347935510ec371576c,2022-06-22_01h45.05.004,Colour_Asymmetry_Pilot,2022.1.3,Win32,60.04924038,62b2a6a25f2ba72662469a01,,,,,,,,,,,,,,,,,,,"[0.7018,0.7802,-0.16079999999999994]",fourtwo,"[-0.4982,-0.2942,-0.0354000000000001]",-4,1.5495,-46,81,1,0,0,response7disk_5,-5,5,1,0,0,rectangle_8,-5,5,1,0,0,,,2,-5,5,1,0,0,,1,0,1,0,1,,,,,,,,,,,,,,,,,,,,,,,,,,,,,,,,,,,,,,,,,,,,,,,,,,,,,,,,,,,,,,,,,,,,,,,,,,,,,,,,,,,,,,,,,,,,,,,,,,,,,,,,
,,,,,,6090b0a0a3289699f1b4917e,62b2ac347935510ec371576c,2022-06-22_01h45.05.004,Colour_Asymmetry_Pilot,2022.1.3,Win32,60.04924038,62b2a6a25f2ba72662469a01,,,,,,,,,,,,,,,,,,,"[0.18419999999999992,-0.4276,-0.404]",threeone,"[-0.9688,-0.38039999999999996,-0.41979999999999995]",-4,2.1332,-23,57,1,0,0,response7disk_5,-2,2,1,0,0,rectangle_8,-2,2,1,0,0,,,2,-2,2,1,0,0,,2,0,2,0,1,,,,,,,,,,,,,,,,,,,,,,,,,,,,,,,,,,,,,,,,,,,,,,,,,,,,,,,,,,,,,,,,,,,,,,,,,,,,,,,,,,,,,,,,,,,,,,,,,,,,,,,,
,,,,,,6090b0a0a3289699f1b4917e,62b2ac347935510ec371576c,2022-06-22_01h45.05.004,Colour_Asymmetry_Pilot,2022.1.3,Win32,60.04924038,62b2a6a25f2ba72662469a01,,,,,,,,,,,,,,,,,,,"[-0.5688,-0.08239999999999992,-0.1844]",fourtwo,"[-0.9296,-0.12959999999999994,-0.043199999999999905]",4,2.1663,66,100,1,0,0,response1disk_5,-4,-3,1,0,0,rectangle_8,-4,-3,1,0,0,,,2,-4,-3,1,0,0,,3,0,3,0,1,,,,,,,,,,,,,,,,,,,,,,,,,,,,,,,,,,,,,,,,,,,,,,,,,,,,,,,,,,,,,,,,,,,,,,,,,,,,,,,,,,,,,,,,,,,,,,,,,,,,,,,,
,,,,,,6090b0a0a3289699f1b4917e,62b2ac347935510ec371576c,2022-06-22_01h45.05.004,Colour_Asymmetry_Pilot,2022.1.3,Win32,60.04924038,62b2a6a25f2ba72662469a01,,,,,,,,,,,,,,,,,,,"[0.5449999999999999,-0.31000000000000005,-0.0354000000000001]",threeone,"[0.34099999999999997,0.12939999999999996,-0.9766]",-4,4.3176,-27,74,1,0,0,response7disk_5,-4,5,1,0,0,rectangle_8,-4,5,1,0,0,,,2,-4,5,1,0,0,,4,0,4,0,1,,,,,,,,,,,,,,,,,,,,,,,,,,,,,,,,,,,,,,,,,,,,,,,,,,,,,,,,,,,,,,,,,,,,,,,,,,,,,,,,,,,,,,,,,,,,,,,,,,,,,,,,
,,,,,,6090b0a0a3289699f1b4917e,62b2ac347935510ec371576c,2022-06-22_01h45.05.004,Colour_Asymmetry_Pilot,2022.1.3,Win32,60.04924038,62b2a6a25f2ba72662469a01,,,,,,,,,,,,,,,,,,,"[-0.4276,0.0038000000000000256,-0.3256]",fourthree,"[0.9686000000000001,0.5763999999999998,0.11359999999999992]",-4,1.5162,-48,91,1,0,0,response7disk_5,-3,-1,1,0,0,rectangle_8,-3,-1,1,0,0,,,2,-3,-1,1,0,0,,5,0,5,0,1,,,,,,,,,,,,,,,,,,,,,,,,,,,,,,,,,,,,,,,,,,,,,,,,,,,,,,,,,,,,,,,,,,,,,,,,,,,,,,,,,,,,,,,,,,,,,,,,,,,,,,,,
,,,,,,6090b0a0a3289699f1b4917e,62b2ac347935510ec371576c,2022-06-22_01h45.05.004,Colour_Asymmetry_Pilot,2022.1.3,Win32,60.04924038,62b2a6a25f2ba72662469a01,,,,,,,,,,,,,,,,,,,"[0.9213999999999998,0.6391999999999998,-0.9922]",onethree,"[-0.17659999999999998,0.3253999999999999,0.19999999999999996]",-4,2.1017,-37,93,1,0,0,response7disk_5,2,1,1,0,0,rectangle_8,2,1,1,0,0,,,2,2,1,1,0,0,,6,0,6,0,1,,,,,,,,,,,,,,,,,,,,,,,,,,,,,,,,,,,,,,,,,,,,,,,,,,,,,,,,,,,,,,,,,,,,,,,,,,,,,,,,,,,,,,,,,,,,,,,,,,,,,,,,
,,,,,,6090b0a0a3289699f1b4917e,62b2ac347935510ec371576c,2022-06-22_01h45.05.004,Colour_Asymmetry_Pilot,2022.1.3,Win32,60.04924038,62b2a6a25f2ba72662469a01,,,,,,,,,,,,,,,,,,,,fourthree,,1,3.9176,,,,,,,,,,,,,,,,,,,,,,,,,,,,,,,,space,4.2677,"[0.5528,0.7409999999999999,-0.71]","[-0.0040000000000000036,0.02739999999999987,-0.08239999999999992]",54,-99,1,0,0,response3disk,-5,0,1,0,0,rectangle,-5,0,1,0,0,,1,0.0017,0,-5,0,1,0,0,0,0,0,41,1,41,first,,,,,,,,,,,,,,,,,,,,,,,,,,,,,,,,,,,,,,,,,,,,,,,,,,,,,,,,,,,,,,,,,,,
,,,,,,6090b0a0a3289699f1b4917e,62b2ac347935510ec371576c,2022-06-22_01h45.05.004,Colour_Asymmetry_Pilot,2022.1.3,Win32,60.04924038,62b2a6a25f2ba72662469a01,,,,,,,,,,,,,,,,,,,,twoone,,4,9.632,,,,,,,,,,,,,,,,,,,,,,,,,,,,,,,,,,"[-0.4982,-0.2942,-0.0354000000000001]","[0.34099999999999997,0.5841999999999998,-0.9844]",46,87,1,0,0,response1disk,-2,-4,1,0,0,rectangle,-2,-4,1,0,0,,3,0.0013,0,-2,-4,1,0,0,0,1,1,73,1,73,first,,,,,,,,,,,,,,,,,,,,,,,,,,,,,,,,,,,,,,,,,,,,,,,,,,,,,,,,,,,,,,,,,,,
,,,,,,6090b0a0a3289699f1b4917e,62b2ac347935510ec371576c,2022-06-22_01h45.05.004,Colour_Asymmetry_Pilot,2022.1.3,Win32,60.04924038,62b2a6a25f2ba72662469a01,,,,,,,,,,,,,,,,,,,,twoone,,4,1.5162,,,,,,,,,,,,,,,,,,,,,,,,,,,,,,,,,,"[0.3802000000000001,0.19199999999999995,-0.6394]","[-0.9766,-0.6472,0.07440000000000002]",37,79,1,0,0,response1disk,-3,-3,1,0,0,rectangle,-3,-3,1,0,0,,3,0.0012,0,-3,-3,1,0,0,0,2,2,9,1,9,first,,,,,,,,,,,,,,,,,,,,,,,,,,,,,,,,,,,,,,,,,,,,,,,,,,,,,,,,,,,,,,,,,,,
,,,,,,6090b0a0a3289699f1b4917e,62b2ac347935510ec371576c,2022-06-22_01h45.05.004,Colour_Asymmetry_Pilot,2022.1.3,Win32,60.04924038,62b2a6a25f2ba72662469a01,,,,,,,,,,,,,,,,,,,,onetwo,,4,1.0491,,,,,,,,,,,,,,,,,,,,,,,,,,,,,,,,,,"[-0.9138,-0.5296000000000001,-0.5529999999999999]","[0.30180000000000007,-0.7884,-0.9844]",45,94,1,0,0,response1disk,-4,-2,1,0,0,rectangle,-4,-2,1,0,0,,2,0.0008,0,-4,-2,1,0,0,0,3,3,82,1,1,second,,,,,,,,,,,,,,,,,,,,,,,,,,,,,,,,,,,,,,,,,,,,,,,,,,,,,,,,,,,,,,,,,,,
,,,,,,6090b0a0a3289699f1b4917e,62b2ac347935510ec371576c,2022-06-22_01h45.05.004,Colour_Asymmetry_Pilot,2022.1.3,Win32,60.04924038,62b2a6a25f2ba72662469a01,,,,,,,,,,,,,,,,,,,,fourthree,,2,2.4015,,,,,,,,,,,,,,,,,,,,,,,,,,,,,,,,,,"[0.37240000000000006,-0.050999999999999934,-0.5216]","[0.9686000000000001,0.3802000000000001,0.19999999999999996]",91,-37,1,0,0,response3disk,-11,5,1,0,0,rectangle,-11,5,1,0,0,,3,0.0009,0,-11,5,1,0,0,0,4,4,91,1,10,second,,,,,,,,,,,,,,,,,,,,,,,,,,,,,,,,,,,,,,,,,,,,,,,,,,,,,,,,,,,,,,,,,,,
,,,,,,6090b0a0a3289699f1b4917e,62b2ac347935510ec371576c,2022-06-22_01h45.05.004,Colour_Asymmetry_Pilot,2022.1.3,Win32,60.04924038,62b2a6a25f2ba72662469a01,,,,,,,,,,,,,,,,,,,,fourtwo,,1,1.9995,,,,,,,,,,,,,,,,,,,,,,,,,,,,,,,,,,"[-0.011800000000000033,-0.906,-0.45100000000000007]","[0.19199999999999995,0.18419999999999992,0.5136000000000001]",39,-72,1,0,0,response3disk,1,-5,1,0,0,rectangle,1,-5,1,0,0,,3,0.0005,0,1,-5,1,0,0,0,5,5,45,1,45,first,,,,,,,,,,,,,,,,,,,,,,,,,,,,,,,,,,,,,,,,,,,,,,,,,,,,,,,,,,,,,,,,,,,
,,,,,,6090b0a0a3289699f1b4917e,62b2ac347935510ec371576c,2022-06-22_01h45.05.004,Colour_Asymmetry_Pilot,2022.1.3,Win32,60.04924038,62b2a6a25f2ba72662469a01,,,,,,,,,,,,,,,,,,,,twofour,,1,1.6167,,,,,,,,,,,,,,,,,,,,,,,,,,,,,,,,,,"[0.9686000000000001,0.3802000000000001,0.19999999999999996]","[0.3881999999999999,-0.23939999999999995,-0.05040000000000011]",38,-79,1,0,0,response3disk,-4,-6,1,0,0,rectangle,87,-42,1,0,0,2,2,5.2944,1,-4,-3,1,0,0,0,6,6,76,1,76,first,response3disk_3,rectangle,,,,,,,,,,,,,,,,,,,,,,,,,,,,,,,,,,,,,,,,,,,,,,,,,,,,,,,,,,,,,,,,,
,,,,,,6090b0a0a3289699f1b4917e,62b2ac347935510ec371576c,2022-06-22_01h45.05.004,Colour_Asymmetry_Pilot,2022.1.3,Win32,60.04924038,62b2a6a25f2ba72662469a01,,,,,,,,,,,,,,,,,,,,fourtwo,,4,1.8167,,,,,,,,,,,,,,,,,,,,,,,,,,,,,,,,,,"[-0.8982,-0.37259999999999993,0.2784]","[0.5528,0.7409999999999999,-0.71]",40,93,1,0,0,response1disk,0,-1,1,0,0,rectangle,88,-25,1,0,0,2,2,2.0295,1,-3,-1,1,0,0,0,7,7,36,1,36,first,response3disk_3,rectangle,,,,,,,,,,,,,,,,,,,,,,,,,,,,,,,,,,,,,,,,,,,,,,,,,,,,,,,,,,,,,,,,,
,,,,,,6090b0a0a3289699f1b4917e,62b2ac347935510ec371576c,2022-06-22_01h45.05.004,Colour_Asymmetry_Pilot,2022.1.3,Win32,60.04924038,62b2a6a25f2ba72662469a01,,,,,,,,,,,,,,,,,,,,fourtwo,,4,3.0501,,,,,,,,,,,,,,,,,,,,,,,,,,,,,,,,,,"[0.3881999999999999,-0.23939999999999995,-0.05040000000000011]","[0.7646000000000002,0.07440000000000002,0.2704]",52,69,1,0,0,response1disk,-2,0,1,0,0,rectangle,-2,0,1,0,0,2,3,0.0019,0,-2,0,1,0,0,0,8,8,43,1,43,first,,,,,,,,,,,,,,,,,,,,,,,,,,,,,,,,,,,,,,,,,,,,,,,,,,,,,,,,,,,,,,,,,,,
,,,,,,6090b0a0a3289699f1b4917e,62b2ac347935510ec371576c,2022-06-22_01h45.05.004,Colour_Asymmetry_Pilot,2022.1.3,Win32,60.04924038,62b2a6a25f2ba72662469a01,,,,,,,,,,,,,,,,,,,,fourtwo,,-4,7.7654,,,,,,,,,,,,,,,,,,,,,,,,,,,,,,,,,,"[0.9686000000000001,0.3802000000000001,0.19999999999999996]","[-0.4668,-0.8746,-0.2942]",-45,79,1,0,0,response7disk,-9,4,1,0,0,rectangle,-9,4,1,0,0,2,3,0.0004,0,-9,4,1,0,0,0,9,9,79,1,79,first,,,,,,,,,,,,,,,,,,,,,,,,,,,,,,,,,,,,,,,,,,,,,,,,,,,,,,,,,,,,,,,,,,,
,,,,,,6090b0a0a3289699f1b4917e,62b2ac347935510ec371576c,2022-06-22_01h45.05.004,Colour_Asymmetry_Pilot,2022.1.3,Win32,60.04924038,62b2a6a25f2ba72662469a01,,,,,,,,,,,,,,,,,,,,fourtwo,,-3,3.3328,,,,,,,,,,,,,,,,,,,,,,,,,,,,,,,,,,"[0.9842,0.7409999999999999,-0.6628000000000001]","[0.8115999999999999,-0.0040000000000000036,-0.09819999999999995]",-72,22,1,0,0,response7disk,-4,5,1,0,0,rectangle,-4,5,1,0,0,2,3,0.0005,0,-4,5,1,0,0,0,10,10,89,1,8,second,,,,,,,,,,,,,,,,,,,,,,,,,,,,,,,,,,,,,,,,,,,,,,,,,,,,,,,,,,,,,,,,,,,
,,,,,,6090b0a0a3289699f1b4917e,62b2ac347935510ec371576c,2022-06-22_01h45.05.004,Colour_Asymmetry_Pilot,2022.1.3,Win32,60.04924038,62b2a6a25f2ba72662469a01,,,,,,,,,,,,,,,,,,,,threefour,,-3,3.5494,,,,,,,,,,,,,,,,,,,,,,,,,,,,,,,,,,"[-0.8982,-0.37259999999999993,0.2784]","[-0.6706000000000001,-0.6157999999999999,-0.6786]",-93,39,1,0,0,response7disk,-5,-1,1,0,0,rectangle,-5,-1,1,0,0,2,2,0.0014,0,-5,-1,1,0,0,0,11,11,152,1,71,second,,,,,,,,,,,,,,,,,,,,,,,,,,,,,,,,,,,,,,,,,,,,,,,,,,,,,,,,,,,,,,,,,,,
,,,,,,6090b0a0a3289699f1b4917e,62b2ac347935510ec371576c,2022-06-22_01h45.05.004,Colour_Asymmetry_Pilot,2022.1.3,Win32,60.04924038,62b2a6a25f2ba72662469a01,,,,,,,,,,,,,,,,,,,,onethree,,-4,2.4665,,,,,,,,,,,,,,,,,,,,,,,,,,,,,,,,,,"[0.34099999999999997,0.12939999999999996,-0.9766]","[-0.09019999999999995,0.44300000000000006,0.5371999999999999]",-48,86,1,0,0,response7disk,-3,-8,1,0,0,rectangle,-3,-8,1,0,0,2,1,0.0009,0,-3,-8,1,0,0,0,12,12,148,1,67,second,,,,,,,,,,,,,,,,,,,,,,,,,,,,,,,,,,,,,,,,,,,,,,,,,,,,,,,,,,,,,,,,,,,
,,,,,,6090b0a0a3289699f1b4917e,62b2ac347935510ec371576c,2022-06-22_01h45.05.004,Colour_Asymmetry_Pilot,2022.1.3,Win32,60.04924038,62b2a6a25f2ba72662469a01,,,,,,,,,,,,,,,,,,,,twoone,,-2,2.3008,,,,,,,,,,,,,,,,,,,,,,,,,,,,,,,,,,"[0.796,0.2156,-0.27859999999999996]","[0.2862,0.7802,0.3568]",-74,-66,1,0,0,response5disk,14,-10,1,0,0,rectangle,14,-10,1,0,0,2,1,0.0008,0,14,-10,1,0,0,0,13,13,19,1,19,first,,,,,,,,,,,,,,,,,,,,,,,,,,,,,,,,,,,,,,,,,,,,,,,,,,,,,,,,,,,,,,,,,,,
,,,,,,6090b0a0a3289699f1b4917e,62b2ac347935510ec371576c,2022-06-22_01h45.05.004,Colour_Asymmetry_Pilot,2022.1.3,Win32,60.04924038,62b2a6a25f2ba72662469a01,,,,,,,,,,,,,,,,,,,,threeone,,2,1.6835,,,,,,,,,,,,,,,,,,,,,,,,,,,,,,,,,,"[-0.9138,-0.5296000000000001,-0.5529999999999999]","[-0.45899999999999996,-0.3256,-0.9374]",75,-37,1,0,0,response3disk,-5,1,1,0,0,rectangle,-5,1,1,0,0,2,2,0.0014,0,-5,1,1,0,0,0,14,14,29,1,29,first,,,,,,,,,,,,,,,,,,,,,,,,,,,,,,,,,,,,,,,,,,,,,,,,,,,,,,,,,,,,,,,,,,,
,,,,,,6090b0a0a3289699f1b4917e,62b2ac347935510ec371576c,2022-06-22_01h45.05.004,Colour_Asymmetry_Pilot,2022.1.3,Win32,60.04924038,62b2a6a25f2ba72662469a01,,,,,,,,,,,,,,,,,,,,twoone,,-4,1.5999,,,,,,,,,,,,,,,,,,,,,,,,,,,,,,,,,,"[0.34099999999999997,0.5841999999999998,-0.9844]","[-0.4982,-0.2942,-0.0354000000000001]",-51,85,1,0,0,response7disk,-5,4,1,0,0,rectangle,-5,4,1,0,0,2,2,0.0005,0,-5,4,1,0,0,0,15,15,154,1,73,second,,,,,,,,,,,,,,,,,,,,,,,,,,,,,,,,,,,,,,,,,,,,,,,,,,,,,,,,,,,,,,,,,,,
,,,,,,6090b0a0a3289699f1b4917e,62b2ac347935510ec371576c,2022-06-22_01h45.05.004,Colour_Asymmetry_Pilot,2022.1.3,Win32,60.04924038,62b2a6a25f2ba72662469a01,,,,,,,,,,,,,,,,,,,,onetwo,,1,1.135,,,,,,,,,,,,,,,,,,,,,,,,,,,,,,,,,,"[0.19199999999999995,0.18419999999999992,0.5136000000000001]","[-0.6942,-0.7648,-0.12959999999999994]",36,-80,1,0,0,response3disk,-4,-4,1,0,0,rectangle,-4,-4,1,0,0,2,1,0.0012,0,-4,-4,1,0,0,0,16,16,80,1,80,first,,,,,,,,,,,,,,,,,,,,,,,,,,,,,,,,,,,,,,,,,,,,,,,,,,,,,,,,,,,,,,,,,,,
,,,,,,6090b0a0a3289699f1b4917e,62b2ac347935510ec371576c,2022-06-22_01h45.05.004,Colour_Asymmetry_Pilot,2022.1.3,Win32,60.04924038,62b2a6a25f2ba72662469a01,,,,,,,,,,,,,,,,,,,,twofour,,-4,1.8498,,,,,,,,,,,,,,,,,,,,,,,,,,,,,,,,,,"[-0.4982,-0.2942,-0.0354000000000001]","[0.7646000000000002,0.07440000000000002,0.2704]",-45,79,1,0,0,response7disk,-8,4,1,0,0,rectangle,-8,4,1,0,0,2,2,0.0021,0,-8,4,1,0,0,0,17,17,13,1,13,first,,,,,,,,,,,,,,,,,,,,,,,,,,,,,,,,,,,,,,,,,,,,,,,,,,,,,,,,,,,,,,,,,,,
,,,,,,6090b0a0a3289699f1b4917e,62b2ac347935510ec371576c,2022-06-22_01h45.05.004,Colour_Asymmetry_Pilot,2022.1.3,Win32,60.04924038,62b2a6a25f2ba72662469a01,,,,,,,,,,,,,,,,,,,,fourtwo,,-4,2.4162,,,,,,,,,,,,,,,,,,,,,,,,,,,,,,,,,,"[0.9372,0.20779999999999998,0.2704]","[-0.8982,-0.37259999999999993,0.2784]",-44,96,1,0,0,response7disk,-3,2,1,0,0,rectangle,-3,2,1,0,0,2,3,0.002,0,-3,2,1,0,0,0,18,18,96,1,15,second,,,,,,,,,,,,,,,,,,,,,,,,,,,,,,,,,,,,,,,,,,,,,,,,,,,,,,,,,,,,,,,,,,,
,,,,,,6090b0a0a3289699f1b4917e,62b2ac347935510ec371576c,2022-06-22_01h45.05.004,Colour_Asymmetry_Pilot,2022.1.3,Win32,60.04924038,62b2a6a25f2ba72662469a01,,,,,,,,,,,,,,,,,,,,threeone,,1,4.1991,,,,,,,,,,,,,,,,,,,,,,,,,,,,,,,,,,"[0.30180000000000007,-0.7884,-0.9844]","[-0.9138,-0.5296000000000001,-0.5529999999999999]",49,-89,1,0,0,response3disk,-6,5,1,0,0,rectangle,-6,5,1,0,0,2,2,0.0017,0,-6,5,1,0,0,0,19,19,1,1,1,first,,,,,,,,,,,,,,,,,,,,,,,,,,,,,,,,,,,,,,,,,,,,,,,,,,,,,,,,,,,,,,,,,,,
,,,,,,6090b0a0a3289699f1b4917e,62b2ac347935510ec371576c,2022-06-22_01h45.05.004,Colour_Asymmetry_Pilot,2022.1.3,Win32,60.04924038,62b2a6a25f2ba72662469a01,,,,,,,,,,,,,,,,,,,,threefour,,1,1.1167,,,,,,,,,,,,,,,,,,,,,,,,,,,,,,,,,,"[-0.0040000000000000036,0.02739999999999987,-0.08239999999999992]","[0.5528,0.7409999999999999,-0.71]",44,-116,1,0,0,response3disk,-5,-1,1,0,0,rectangle,-5,-1,1,0,0,2,3,0.0019,0,-5,-1,1,0,0,0,20,20,122,1,41,second,,,,,,,,,,,,,,,,,,,,,,,,,,,,,,,,,,,,,,,,,,,,,,,,,,,,,,,,,,,,,,,,,,,
