trials.thisRepN,trials.thisTrialN,trials.thisN,trials.thisIndex,trials.ran,Colourcodes,participant,session,date,expName,psychopyVersion,OS,frameRate,study_id,trials_4.thisRepN,trials_4.thisTrialN,trials_4.thisN,trials_4.thisIndex,trials_4.ran,StimulusPos,key_resp.keys,key_resp.rt,key_resp_2.keys,key_resp_2.rt,key_resp_15.keys,key_resp_15.rt,key_resp_17.keys,key_resp_17.rt,key_resp_9.keys,key_resp_9.rt,key_resp_10.keys,key_resp_10.rt,Circle1_col,Ecc,Circle2_col,similarity,response_time,mouse_5.x,mouse_5.y,mouse_5.leftButton,mouse_5.midButton,mouse_5.rightButton,mouse_5.clicked_name,mouse_10.x,mouse_10.y,mouse_10.leftButton,mouse_10.midButton,mouse_10.rightButton,mouse_10.clicked_name,mouse_7.x,mouse_7.y,mouse_7.leftButton,mouse_7.midButton,mouse_7.rightButton,catchnumberprac,mouse_6.x,mouse_6.y,mouse_6.leftButton,mouse_6.midButton,mouse_6.rightButton,duringprac.thisRepN,duringprac.thisTrialN,duringprac.thisN,duringprac.thisIndex,duringprac.ran,mouse_7.clicked_name,catchprac,mouse_6.clicked_name,key_resp_22.keys,key_resp_22.rt,Circle1_colour,Circle2_colour,mouse.x,mouse.y,mouse.leftButton,mouse.midButton,mouse.rightButton,mouse.clicked_name,mouse_2.x,mouse_2.y,mouse_2.leftButton,mouse_2.midButton,mouse_2.rightButton,mouse_2.clicked_name,mouse_3.x,mouse_3.y,mouse_3.leftButton,mouse_3.midButton,mouse_3.rightButton,mouse_3.clicked_name,catchresponse,catchnumber,response_time_catch,Catch,mouse_11.x,mouse_11.y,mouse_11.leftButton,mouse_11.midButton,mouse_11.rightButton,mouse_11.clicked_name,trials_2.thisRepN,trials_2.thisTrialN,trials_2.thisN,trials_2.thisIndex,trials_2.ran,Colourpair,Temporder,trials_3.thisRepN,trials_3.thisTrialN,trials_3.thisN,trials_3.thisIndex,trials_3.ran,key_resp_instr_Ishi.keys,key_resp_instr_Ishi.rt,Ishi_trial_keyresp.keys,Ishi_trial_keyresp.rt,Ishi_textbox.text,Ishi_loop.thisRepN,Ishi_loop.thisTrialN,Ishi_loop.thisN,Ishi_loop.thisIndex,Ishi_loop.ran,imageaddress,textbox.text,mouse_4.x,mouse_4.y,mouse_4.leftButton,mouse_4.midButton,mouse_4.rightButton,mouse_4.clicked_name,textbox_2.text,mouse_8.x,mouse_8.y,mouse_8.leftButton,mouse_8.midButton,mouse_8.rightButton,mouse_8.clicked_name,textbox_3.text,mouse_9.x,mouse_9.y,mouse_9.leftButton,mouse_9.midButton,mouse_9.rightButton,mouse_9.clicked_name,textbox_4.text,mouse_12.x,mouse_12.y,mouse_12.leftButton,mouse_12.midButton,mouse_12.rightButton,mouse_12.clicked_name,textbox_5.text,mouse_13.x,mouse_13.y,mouse_13.leftButton,mouse_13.midButton,mouse_13.rightButton,mouse_13.clicked_name,textbox_6.text,mouse_14.x,mouse_14.y,mouse_14.leftButton,mouse_14.midButton,mouse_14.rightButton,mouse_14.clicked_name,textbox_7.text,mouse_15.x,mouse_15.y,mouse_15.leftButton,mouse_15.midButton,mouse_15.rightButton,mouse_15.clicked_name
0,0,0,77,1,,5faa7e3ea84afb3b18acb0a7,62bbfafcf532685b4bb55d9c,2022-06-29_09h11.13.344,Colour_Asymmetry_Pilot,2022.1.3,Win32,90.33423668,62bbe60bf3d75ef465d3e404,,,,,,,,,,,,,,,,,,,,,,,,,,,,,,,,,,,,,,,,,,,,,,,,,,,,,,,,,,,,,,,,,,,,,,,,,,,,,,,,,,,,,,,,,,,,,,,,,,,,,,,,,,,,,,,,,,,,,,,,,,,,,,,,,,,,,,,,,,,,,,,,,,,,,,,,,,,,,,
0,1,1,11,1,,5faa7e3ea84afb3b18acb0a7,62bbfafcf532685b4bb55d9c,2022-06-29_09h11.13.344,Colour_Asymmetry_Pilot,2022.1.3,Win32,90.33423668,62bbe60bf3d75ef465d3e404,,,,,,,,,,,,,,,,,,,,,,,,,,,,,,,,,,,,,,,,,,,,,,,,,,,,,,,,,,,,,,,,,,,,,,,,,,,,,,,,,,,,,,,,,,,,,,,,,,,,,,,,,,,,,,,,,,,,,,,,,,,,,,,,,,,,,,,,,,,,,,,,,,,,,,,,,,,,,,
0,2,2,86,1,,5faa7e3ea84afb3b18acb0a7,62bbfafcf532685b4bb55d9c,2022-06-29_09h11.13.344,Colour_Asymmetry_Pilot,2022.1.3,Win32,90.33423668,62bbe60bf3d75ef465d3e404,,,,,,,,,,,,,,,,,,,,,,,,,,,,,,,,,,,,,,,,,,,,,,,,,,,,,,,,,,,,,,,,,,,,,,,,,,,,,,,,,,,,,,,,,,,,,,,,,,,,,,,,,,,,,,,,,,,,,,,,,,,,,,,,,,,,,,,,,,,,,,,,,,,,,,,,,,,,,,
0,3,3,50,1,,5faa7e3ea84afb3b18acb0a7,62bbfafcf532685b4bb55d9c,2022-06-29_09h11.13.344,Colour_Asymmetry_Pilot,2022.1.3,Win32,90.33423668,62bbe60bf3d75ef465d3e404,,,,,,,,,,,,,,,,,,,,,,,,,,,,,,,,,,,,,,,,,,,,,,,,,,,,,,,,,,,,,,,,,,,,,,,,,,,,,,,,,,,,,,,,,,,,,,,,,,,,,,,,,,,,,,,,,,,,,,,,,,,,,,,,,,,,,,,,,,,,,,,,,,,,,,,,,,,,,,
0,4,4,67,1,,5faa7e3ea84afb3b18acb0a7,62bbfafcf532685b4bb55d9c,2022-06-29_09h11.13.344,Colour_Asymmetry_Pilot,2022.1.3,Win32,90.33423668,62bbe60bf3d75ef465d3e404,,,,,,,,,,,,,,,,,,,,,,,,,,,,,,,,,,,,,,,,,,,,,,,,,,,,,,,,,,,,,,,,,,,,,,,,,,,,,,,,,,,,,,,,,,,,,,,,,,,,,,,,,,,,,,,,,,,,,,,,,,,,,,,,,,,,,,,,,,,,,,,,,,,,,,,,,,,,,,
0,5,5,8,1,,5faa7e3ea84afb3b18acb0a7,62bbfafcf532685b4bb55d9c,2022-06-29_09h11.13.344,Colour_Asymmetry_Pilot,2022.1.3,Win32,90.33423668,62bbe60bf3d75ef465d3e404,,,,,,,,,,,,,,,,,,,,,,,,,,,,,,,,,,,,,,,,,,,,,,,,,,,,,,,,,,,,,,,,,,,,,,,,,,,,,,,,,,,,,,,,,,,,,,,,,,,,,,,,,,,,,,,,,,,,,,,,,,,,,,,,,,,,,,,,,,,,,,,,,,,,,,,,,,,,,,
0,6,6,13,1,,5faa7e3ea84afb3b18acb0a7,62bbfafcf532685b4bb55d9c,2022-06-29_09h11.13.344,Colour_Asymmetry_Pilot,2022.1.3,Win32,90.33423668,62bbe60bf3d75ef465d3e404,,,,,,,,,,,,,,,,,,,,,,,,,,,,,,,,,,,,,,,,,,,,,,,,,,,,,,,,,,,,,,,,,,,,,,,,,,,,,,,,,,,,,,,,,,,,,,,,,,,,,,,,,,,,,,,,,,,,,,,,,,,,,,,,,,,,,,,,,,,,,,,,,,,,,,,,,,,,,,
0,7,7,58,1,,5faa7e3ea84afb3b18acb0a7,62bbfafcf532685b4bb55d9c,2022-06-29_09h11.13.344,Colour_Asymmetry_Pilot,2022.1.3,Win32,90.33423668,62bbe60bf3d75ef465d3e404,,,,,,,,,,,,,,,,,,,,,,,,,,,,,,,,,,,,,,,,,,,,,,,,,,,,,,,,,,,,,,,,,,,,,,,,,,,,,,,,,,,,,,,,,,,,,,,,,,,,,,,,,,,,,,,,,,,,,,,,,,,,,,,,,,,,,,,,,,,,,,,,,,,,,,,,,,,,,,
0,8,8,81,1,,5faa7e3ea84afb3b18acb0a7,62bbfafcf532685b4bb55d9c,2022-06-29_09h11.13.344,Colour_Asymmetry_Pilot,2022.1.3,Win32,90.33423668,62bbe60bf3d75ef465d3e404,,,,,,,,,,,,,,,,,,,,,,,,,,,,,,,,,,,,,,,,,,,,,,,,,,,,,,,,,,,,,,,,,,,,,,,,,,,,,,,,,,,,,,,,,,,,,,,,,,,,,,,,,,,,,,,,,,,,,,,,,,,,,,,,,,,,,,,,,,,,,,,,,,,,,,,,,,,,,,
0,9,9,34,1,,5faa7e3ea84afb3b18acb0a7,62bbfafcf532685b4bb55d9c,2022-06-29_09h11.13.344,Colour_Asymmetry_Pilot,2022.1.3,Win32,90.33423668,62bbe60bf3d75ef465d3e404,,,,,,,,,,,,,,,,,,,,,,,,,,,,,,,,,,,,,,,,,,,,,,,,,,,,,,,,,,,,,,,,,,,,,,,,,,,,,,,,,,,,,,,,,,,,,,,,,,,,,,,,,,,,,,,,,,,,,,,,,,,,,,,,,,,,,,,,,,,,,,,,,,,,,,,,,,,,,,
0,10,10,1,1,,5faa7e3ea84afb3b18acb0a7,62bbfafcf532685b4bb55d9c,2022-06-29_09h11.13.344,Colour_Asymmetry_Pilot,2022.1.3,Win32,90.33423668,62bbe60bf3d75ef465d3e404,,,,,,,,,,,,,,,,,,,,,,,,,,,,,,,,,,,,,,,,,,,,,,,,,,,,,,,,,,,,,,,,,,,,,,,,,,,,,,,,,,,,,,,,,,,,,,,,,,,,,,,,,,,,,,,,,,,,,,,,,,,,,,,,,,,,,,,,,,,,,,,,,,,,,,,,,,,,,,
0,11,11,4,1,,5faa7e3ea84afb3b18acb0a7,62bbfafcf532685b4bb55d9c,2022-06-29_09h11.13.344,Colour_Asymmetry_Pilot,2022.1.3,Win32,90.33423668,62bbe60bf3d75ef465d3e404,,,,,,,,,,,,,,,,,,,,,,,,,,,,,,,,,,,,,,,,,,,,,,,,,,,,,,,,,,,,,,,,,,,,,,,,,,,,,,,,,,,,,,,,,,,,,,,,,,,,,,,,,,,,,,,,,,,,,,,,,,,,,,,,,,,,,,,,,,,,,,,,,,,,,,,,,,,,,,
0,12,12,70,1,,5faa7e3ea84afb3b18acb0a7,62bbfafcf532685b4bb55d9c,2022-06-29_09h11.13.344,Colour_Asymmetry_Pilot,2022.1.3,Win32,90.33423668,62bbe60bf3d75ef465d3e404,,,,,,,,,,,,,,,,,,,,,,,,,,,,,,,,,,,,,,,,,,,,,,,,,,,,,,,,,,,,,,,,,,,,,,,,,,,,,,,,,,,,,,,,,,,,,,,,,,,,,,,,,,,,,,,,,,,,,,,,,,,,,,,,,,,,,,,,,,,,,,,,,,,,,,,,,,,,,,
0,13,13,31,1,,5faa7e3ea84afb3b18acb0a7,62bbfafcf532685b4bb55d9c,2022-06-29_09h11.13.344,Colour_Asymmetry_Pilot,2022.1.3,Win32,90.33423668,62bbe60bf3d75ef465d3e404,,,,,,,,,,,,,,,,,,,,,,,,,,,,,,,,,,,,,,,,,,,,,,,,,,,,,,,,,,,,,,,,,,,,,,,,,,,,,,,,,,,,,,,,,,,,,,,,,,,,,,,,,,,,,,,,,,,,,,,,,,,,,,,,,,,,,,,,,,,,,,,,,,,,,,,,,,,,,,
0,14,14,92,1,,5faa7e3ea84afb3b18acb0a7,62bbfafcf532685b4bb55d9c,2022-06-29_09h11.13.344,Colour_Asymmetry_Pilot,2022.1.3,Win32,90.33423668,62bbe60bf3d75ef465d3e404,,,,,,,,,,,,,,,,,,,,,,,,,,,,,,,,,,,,,,,,,,,,,,,,,,,,,,,,,,,,,,,,,,,,,,,,,,,,,,,,,,,,,,,,,,,,,,,,,,,,,,,,,,,,,,,,,,,,,,,,,,,,,,,,,,,,,,,,,,,,,,,,,,,,,,,,,,,,,,
0,15,15,71,1,,5faa7e3ea84afb3b18acb0a7,62bbfafcf532685b4bb55d9c,2022-06-29_09h11.13.344,Colour_Asymmetry_Pilot,2022.1.3,Win32,90.33423668,62bbe60bf3d75ef465d3e404,,,,,,,,,,,,,,,,,,,,,,,,,,,,,,,,,,,,,,,,,,,,,,,,,,,,,,,,,,,,,,,,,,,,,,,,,,,,,,,,,,,,,,,,,,,,,,,,,,,,,,,,,,,,,,,,,,,,,,,,,,,,,,,,,,,,,,,,,,,,,,,,,,,,,,,,,,,,,,
0,16,16,0,1,,5faa7e3ea84afb3b18acb0a7,62bbfafcf532685b4bb55d9c,2022-06-29_09h11.13.344,Colour_Asymmetry_Pilot,2022.1.3,Win32,90.33423668,62bbe60bf3d75ef465d3e404,,,,,,,,,,,,,,,,,,,,,,,,,,,,,,,,,,,,,,,,,,,,,,,,,,,,,,,,,,,,,,,,,,,,,,,,,,,,,,,,,,,,,,,,,,,,,,,,,,,,,,,,,,,,,,,,,,,,,,,,,,,,,,,,,,,,,,,,,,,,,,,,,,,,,,,,,,,,,,
0,17,17,6,1,,5faa7e3ea84afb3b18acb0a7,62bbfafcf532685b4bb55d9c,2022-06-29_09h11.13.344,Colour_Asymmetry_Pilot,2022.1.3,Win32,90.33423668,62bbe60bf3d75ef465d3e404,,,,,,,,,,,,,,,,,,,,,,,,,,,,,,,,,,,,,,,,,,,,,,,,,,,,,,,,,,,,,,,,,,,,,,,,,,,,,,,,,,,,,,,,,,,,,,,,,,,,,,,,,,,,,,,,,,,,,,,,,,,,,,,,,,,,,,,,,,,,,,,,,,,,,,,,,,,,,,
0,18,18,46,1,,5faa7e3ea84afb3b18acb0a7,62bbfafcf532685b4bb55d9c,2022-06-29_09h11.13.344,Colour_Asymmetry_Pilot,2022.1.3,Win32,90.33423668,62bbe60bf3d75ef465d3e404,,,,,,,,,,,,,,,,,,,,,,,,,,,,,,,,,,,,,,,,,,,,,,,,,,,,,,,,,,,,,,,,,,,,,,,,,,,,,,,,,,,,,,,,,,,,,,,,,,,,,,,,,,,,,,,,,,,,,,,,,,,,,,,,,,,,,,,,,,,,,,,,,,,,,,,,,,,,,,
0,19,19,40,1,,5faa7e3ea84afb3b18acb0a7,62bbfafcf532685b4bb55d9c,2022-06-29_09h11.13.344,Colour_Asymmetry_Pilot,2022.1.3,Win32,90.33423668,62bbe60bf3d75ef465d3e404,,,,,,,,,,,,,,,,,,,,,,,,,,,,,,,,,,,,,,,,,,,,,,,,,,,,,,,,,,,,,,,,,,,,,,,,,,,,,,,,,,,,,,,,,,,,,,,,,,,,,,,,,,,,,,,,,,,,,,,,,,,,,,,,,,,,,,,,,,,,,,,,,,,,,,,,,,,,,,
0,20,20,62,1,,5faa7e3ea84afb3b18acb0a7,62bbfafcf532685b4bb55d9c,2022-06-29_09h11.13.344,Colour_Asymmetry_Pilot,2022.1.3,Win32,90.33423668,62bbe60bf3d75ef465d3e404,,,,,,,,,,,,,,,,,,,,,,,,,,,,,,,,,,,,,,,,,,,,,,,,,,,,,,,,,,,,,,,,,,,,,,,,,,,,,,,,,,,,,,,,,,,,,,,,,,,,,,,,,,,,,,,,,,,,,,,,,,,,,,,,,,,,,,,,,,,,,,,,,,,,,,,,,,,,,,
0,21,21,89,1,,5faa7e3ea84afb3b18acb0a7,62bbfafcf532685b4bb55d9c,2022-06-29_09h11.13.344,Colour_Asymmetry_Pilot,2022.1.3,Win32,90.33423668,62bbe60bf3d75ef465d3e404,,,,,,,,,,,,,,,,,,,,,,,,,,,,,,,,,,,,,,,,,,,,,,,,,,,,,,,,,,,,,,,,,,,,,,,,,,,,,,,,,,,,,,,,,,,,,,,,,,,,,,,,,,,,,,,,,,,,,,,,,,,,,,,,,,,,,,,,,,,,,,,,,,,,,,,,,,,,,,
0,22,22,64,1,,5faa7e3ea84afb3b18acb0a7,62bbfafcf532685b4bb55d9c,2022-06-29_09h11.13.344,Colour_Asymmetry_Pilot,2022.1.3,Win32,90.33423668,62bbe60bf3d75ef465d3e404,,,,,,,,,,,,,,,,,,,,,,,,,,,,,,,,,,,,,,,,,,,,,,,,,,,,,,,,,,,,,,,,,,,,,,,,,,,,,,,,,,,,,,,,,,,,,,,,,,,,,,,,,,,,,,,,,,,,,,,,,,,,,,,,,,,,,,,,,,,,,,,,,,,,,,,,,,,,,,
0,23,23,47,1,,5faa7e3ea84afb3b18acb0a7,62bbfafcf532685b4bb55d9c,2022-06-29_09h11.13.344,Colour_Asymmetry_Pilot,2022.1.3,Win32,90.33423668,62bbe60bf3d75ef465d3e404,,,,,,,,,,,,,,,,,,,,,,,,,,,,,,,,,,,,,,,,,,,,,,,,,,,,,,,,,,,,,,,,,,,,,,,,,,,,,,,,,,,,,,,,,,,,,,,,,,,,,,,,,,,,,,,,,,,,,,,,,,,,,,,,,,,,,,,,,,,,,,,,,,,,,,,,,,,,,,
0,24,24,9,1,,5faa7e3ea84afb3b18acb0a7,62bbfafcf532685b4bb55d9c,2022-06-29_09h11.13.344,Colour_Asymmetry_Pilot,2022.1.3,Win32,90.33423668,62bbe60bf3d75ef465d3e404,,,,,,,,,,,,,,,,,,,,,,,,,,,,,,,,,,,,,,,,,,,,,,,,,,,,,,,,,,,,,,,,,,,,,,,,,,,,,,,,,,,,,,,,,,,,,,,,,,,,,,,,,,,,,,,,,,,,,,,,,,,,,,,,,,,,,,,,,,,,,,,,,,,,,,,,,,,,,,
0,25,25,37,1,,5faa7e3ea84afb3b18acb0a7,62bbfafcf532685b4bb55d9c,2022-06-29_09h11.13.344,Colour_Asymmetry_Pilot,2022.1.3,Win32,90.33423668,62bbe60bf3d75ef465d3e404,,,,,,,,,,,,,,,,,,,,,,,,,,,,,,,,,,,,,,,,,,,,,,,,,,,,,,,,,,,,,,,,,,,,,,,,,,,,,,,,,,,,,,,,,,,,,,,,,,,,,,,,,,,,,,,,,,,,,,,,,,,,,,,,,,,,,,,,,,,,,,,,,,,,,,,,,,,,,,
0,26,26,90,1,,5faa7e3ea84afb3b18acb0a7,62bbfafcf532685b4bb55d9c,2022-06-29_09h11.13.344,Colour_Asymmetry_Pilot,2022.1.3,Win32,90.33423668,62bbe60bf3d75ef465d3e404,,,,,,,,,,,,,,,,,,,,,,,,,,,,,,,,,,,,,,,,,,,,,,,,,,,,,,,,,,,,,,,,,,,,,,,,,,,,,,,,,,,,,,,,,,,,,,,,,,,,,,,,,,,,,,,,,,,,,,,,,,,,,,,,,,,,,,,,,,,,,,,,,,,,,,,,,,,,,,
0,27,27,45,1,,5faa7e3ea84afb3b18acb0a7,62bbfafcf532685b4bb55d9c,2022-06-29_09h11.13.344,Colour_Asymmetry_Pilot,2022.1.3,Win32,90.33423668,62bbe60bf3d75ef465d3e404,,,,,,,,,,,,,,,,,,,,,,,,,,,,,,,,,,,,,,,,,,,,,,,,,,,,,,,,,,,,,,,,,,,,,,,,,,,,,,,,,,,,,,,,,,,,,,,,,,,,,,,,,,,,,,,,,,,,,,,,,,,,,,,,,,,,,,,,,,,,,,,,,,,,,,,,,,,,,,
0,28,28,44,1,,5faa7e3ea84afb3b18acb0a7,62bbfafcf532685b4bb55d9c,2022-06-29_09h11.13.344,Colour_Asymmetry_Pilot,2022.1.3,Win32,90.33423668,62bbe60bf3d75ef465d3e404,,,,,,,,,,,,,,,,,,,,,,,,,,,,,,,,,,,,,,,,,,,,,,,,,,,,,,,,,,,,,,,,,,,,,,,,,,,,,,,,,,,,,,,,,,,,,,,,,,,,,,,,,,,,,,,,,,,,,,,,,,,,,,,,,,,,,,,,,,,,,,,,,,,,,,,,,,,,,,
0,29,29,83,1,,5faa7e3ea84afb3b18acb0a7,62bbfafcf532685b4bb55d9c,2022-06-29_09h11.13.344,Colour_Asymmetry_Pilot,2022.1.3,Win32,90.33423668,62bbe60bf3d75ef465d3e404,,,,,,,,,,,,,,,,,,,,,,,,,,,,,,,,,,,,,,,,,,,,,,,,,,,,,,,,,,,,,,,,,,,,,,,,,,,,,,,,,,,,,,,,,,,,,,,,,,,,,,,,,,,,,,,,,,,,,,,,,,,,,,,,,,,,,,,,,,,,,,,,,,,,,,,,,,,,,,
0,30,30,25,1,,5faa7e3ea84afb3b18acb0a7,62bbfafcf532685b4bb55d9c,2022-06-29_09h11.13.344,Colour_Asymmetry_Pilot,2022.1.3,Win32,90.33423668,62bbe60bf3d75ef465d3e404,,,,,,,,,,,,,,,,,,,,,,,,,,,,,,,,,,,,,,,,,,,,,,,,,,,,,,,,,,,,,,,,,,,,,,,,,,,,,,,,,,,,,,,,,,,,,,,,,,,,,,,,,,,,,,,,,,,,,,,,,,,,,,,,,,,,,,,,,,,,,,,,,,,,,,,,,,,,,,
0,31,31,17,1,,5faa7e3ea84afb3b18acb0a7,62bbfafcf532685b4bb55d9c,2022-06-29_09h11.13.344,Colour_Asymmetry_Pilot,2022.1.3,Win32,90.33423668,62bbe60bf3d75ef465d3e404,,,,,,,,,,,,,,,,,,,,,,,,,,,,,,,,,,,,,,,,,,,,,,,,,,,,,,,,,,,,,,,,,,,,,,,,,,,,,,,,,,,,,,,,,,,,,,,,,,,,,,,,,,,,,,,,,,,,,,,,,,,,,,,,,,,,,,,,,,,,,,,,,,,,,,,,,,,,,,
0,32,32,60,1,,5faa7e3ea84afb3b18acb0a7,62bbfafcf532685b4bb55d9c,2022-06-29_09h11.13.344,Colour_Asymmetry_Pilot,2022.1.3,Win32,90.33423668,62bbe60bf3d75ef465d3e404,,,,,,,,,,,,,,,,,,,,,,,,,,,,,,,,,,,,,,,,,,,,,,,,,,,,,,,,,,,,,,,,,,,,,,,,,,,,,,,,,,,,,,,,,,,,,,,,,,,,,,,,,,,,,,,,,,,,,,,,,,,,,,,,,,,,,,,,,,,,,,,,,,,,,,,,,,,,,,
0,33,33,59,1,,5faa7e3ea84afb3b18acb0a7,62bbfafcf532685b4bb55d9c,2022-06-29_09h11.13.344,Colour_Asymmetry_Pilot,2022.1.3,Win32,90.33423668,62bbe60bf3d75ef465d3e404,,,,,,,,,,,,,,,,,,,,,,,,,,,,,,,,,,,,,,,,,,,,,,,,,,,,,,,,,,,,,,,,,,,,,,,,,,,,,,,,,,,,,,,,,,,,,,,,,,,,,,,,,,,,,,,,,,,,,,,,,,,,,,,,,,,,,,,,,,,,,,,,,,,,,,,,,,,,,,
0,34,34,24,1,,5faa7e3ea84afb3b18acb0a7,62bbfafcf532685b4bb55d9c,2022-06-29_09h11.13.344,Colour_Asymmetry_Pilot,2022.1.3,Win32,90.33423668,62bbe60bf3d75ef465d3e404,,,,,,,,,,,,,,,,,,,,,,,,,,,,,,,,,,,,,,,,,,,,,,,,,,,,,,,,,,,,,,,,,,,,,,,,,,,,,,,,,,,,,,,,,,,,,,,,,,,,,,,,,,,,,,,,,,,,,,,,,,,,,,,,,,,,,,,,,,,,,,,,,,,,,,,,,,,,,,
0,35,35,2,1,,5faa7e3ea84afb3b18acb0a7,62bbfafcf532685b4bb55d9c,2022-06-29_09h11.13.344,Colour_Asymmetry_Pilot,2022.1.3,Win32,90.33423668,62bbe60bf3d75ef465d3e404,,,,,,,,,,,,,,,,,,,,,,,,,,,,,,,,,,,,,,,,,,,,,,,,,,,,,,,,,,,,,,,,,,,,,,,,,,,,,,,,,,,,,,,,,,,,,,,,,,,,,,,,,,,,,,,,,,,,,,,,,,,,,,,,,,,,,,,,,,,,,,,,,,,,,,,,,,,,,,
0,36,36,61,1,,5faa7e3ea84afb3b18acb0a7,62bbfafcf532685b4bb55d9c,2022-06-29_09h11.13.344,Colour_Asymmetry_Pilot,2022.1.3,Win32,90.33423668,62bbe60bf3d75ef465d3e404,,,,,,,,,,,,,,,,,,,,,,,,,,,,,,,,,,,,,,,,,,,,,,,,,,,,,,,,,,,,,,,,,,,,,,,,,,,,,,,,,,,,,,,,,,,,,,,,,,,,,,,,,,,,,,,,,,,,,,,,,,,,,,,,,,,,,,,,,,,,,,,,,,,,,,,,,,,,,,
0,37,37,32,1,,5faa7e3ea84afb3b18acb0a7,62bbfafcf532685b4bb55d9c,2022-06-29_09h11.13.344,Colour_Asymmetry_Pilot,2022.1.3,Win32,90.33423668,62bbe60bf3d75ef465d3e404,,,,,,,,,,,,,,,,,,,,,,,,,,,,,,,,,,,,,,,,,,,,,,,,,,,,,,,,,,,,,,,,,,,,,,,,,,,,,,,,,,,,,,,,,,,,,,,,,,,,,,,,,,,,,,,,,,,,,,,,,,,,,,,,,,,,,,,,,,,,,,,,,,,,,,,,,,,,,,
0,38,38,3,1,,5faa7e3ea84afb3b18acb0a7,62bbfafcf532685b4bb55d9c,2022-06-29_09h11.13.344,Colour_Asymmetry_Pilot,2022.1.3,Win32,90.33423668,62bbe60bf3d75ef465d3e404,,,,,,,,,,,,,,,,,,,,,,,,,,,,,,,,,,,,,,,,,,,,,,,,,,,,,,,,,,,,,,,,,,,,,,,,,,,,,,,,,,,,,,,,,,,,,,,,,,,,,,,,,,,,,,,,,,,,,,,,,,,,,,,,,,,,,,,,,,,,,,,,,,,,,,,,,,,,,,
0,39,39,7,1,,5faa7e3ea84afb3b18acb0a7,62bbfafcf532685b4bb55d9c,2022-06-29_09h11.13.344,Colour_Asymmetry_Pilot,2022.1.3,Win32,90.33423668,62bbe60bf3d75ef465d3e404,,,,,,,,,,,,,,,,,,,,,,,,,,,,,,,,,,,,,,,,,,,,,,,,,,,,,,,,,,,,,,,,,,,,,,,,,,,,,,,,,,,,,,,,,,,,,,,,,,,,,,,,,,,,,,,,,,,,,,,,,,,,,,,,,,,,,,,,,,,,,,,,,,,,,,,,,,,,,,
0,40,40,19,1,,5faa7e3ea84afb3b18acb0a7,62bbfafcf532685b4bb55d9c,2022-06-29_09h11.13.344,Colour_Asymmetry_Pilot,2022.1.3,Win32,90.33423668,62bbe60bf3d75ef465d3e404,,,,,,,,,,,,,,,,,,,,,,,,,,,,,,,,,,,,,,,,,,,,,,,,,,,,,,,,,,,,,,,,,,,,,,,,,,,,,,,,,,,,,,,,,,,,,,,,,,,,,,,,,,,,,,,,,,,,,,,,,,,,,,,,,,,,,,,,,,,,,,,,,,,,,,,,,,,,,,
0,41,41,18,1,,5faa7e3ea84afb3b18acb0a7,62bbfafcf532685b4bb55d9c,2022-06-29_09h11.13.344,Colour_Asymmetry_Pilot,2022.1.3,Win32,90.33423668,62bbe60bf3d75ef465d3e404,,,,,,,,,,,,,,,,,,,,,,,,,,,,,,,,,,,,,,,,,,,,,,,,,,,,,,,,,,,,,,,,,,,,,,,,,,,,,,,,,,,,,,,,,,,,,,,,,,,,,,,,,,,,,,,,,,,,,,,,,,,,,,,,,,,,,,,,,,,,,,,,,,,,,,,,,,,,,,
0,42,42,63,1,,5faa7e3ea84afb3b18acb0a7,62bbfafcf532685b4bb55d9c,2022-06-29_09h11.13.344,Colour_Asymmetry_Pilot,2022.1.3,Win32,90.33423668,62bbe60bf3d75ef465d3e404,,,,,,,,,,,,,,,,,,,,,,,,,,,,,,,,,,,,,,,,,,,,,,,,,,,,,,,,,,,,,,,,,,,,,,,,,,,,,,,,,,,,,,,,,,,,,,,,,,,,,,,,,,,,,,,,,,,,,,,,,,,,,,,,,,,,,,,,,,,,,,,,,,,,,,,,,,,,,,
0,43,43,57,1,,5faa7e3ea84afb3b18acb0a7,62bbfafcf532685b4bb55d9c,2022-06-29_09h11.13.344,Colour_Asymmetry_Pilot,2022.1.3,Win32,90.33423668,62bbe60bf3d75ef465d3e404,,,,,,,,,,,,,,,,,,,,,,,,,,,,,,,,,,,,,,,,,,,,,,,,,,,,,,,,,,,,,,,,,,,,,,,,,,,,,,,,,,,,,,,,,,,,,,,,,,,,,,,,,,,,,,,,,,,,,,,,,,,,,,,,,,,,,,,,,,,,,,,,,,,,,,,,,,,,,,
0,44,44,12,1,,5faa7e3ea84afb3b18acb0a7,62bbfafcf532685b4bb55d9c,2022-06-29_09h11.13.344,Colour_Asymmetry_Pilot,2022.1.3,Win32,90.33423668,62bbe60bf3d75ef465d3e404,,,,,,,,,,,,,,,,,,,,,,,,,,,,,,,,,,,,,,,,,,,,,,,,,,,,,,,,,,,,,,,,,,,,,,,,,,,,,,,,,,,,,,,,,,,,,,,,,,,,,,,,,,,,,,,,,,,,,,,,,,,,,,,,,,,,,,,,,,,,,,,,,,,,,,,,,,,,,,
0,45,45,38,1,,5faa7e3ea84afb3b18acb0a7,62bbfafcf532685b4bb55d9c,2022-06-29_09h11.13.344,Colour_Asymmetry_Pilot,2022.1.3,Win32,90.33423668,62bbe60bf3d75ef465d3e404,,,,,,,,,,,,,,,,,,,,,,,,,,,,,,,,,,,,,,,,,,,,,,,,,,,,,,,,,,,,,,,,,,,,,,,,,,,,,,,,,,,,,,,,,,,,,,,,,,,,,,,,,,,,,,,,,,,,,,,,,,,,,,,,,,,,,,,,,,,,,,,,,,,,,,,,,,,,,,
0,46,46,72,1,,5faa7e3ea84afb3b18acb0a7,62bbfafcf532685b4bb55d9c,2022-06-29_09h11.13.344,Colour_Asymmetry_Pilot,2022.1.3,Win32,90.33423668,62bbe60bf3d75ef465d3e404,,,,,,,,,,,,,,,,,,,,,,,,,,,,,,,,,,,,,,,,,,,,,,,,,,,,,,,,,,,,,,,,,,,,,,,,,,,,,,,,,,,,,,,,,,,,,,,,,,,,,,,,,,,,,,,,,,,,,,,,,,,,,,,,,,,,,,,,,,,,,,,,,,,,,,,,,,,,,,
0,47,47,16,1,,5faa7e3ea84afb3b18acb0a7,62bbfafcf532685b4bb55d9c,2022-06-29_09h11.13.344,Colour_Asymmetry_Pilot,2022.1.3,Win32,90.33423668,62bbe60bf3d75ef465d3e404,,,,,,,,,,,,,,,,,,,,,,,,,,,,,,,,,,,,,,,,,,,,,,,,,,,,,,,,,,,,,,,,,,,,,,,,,,,,,,,,,,,,,,,,,,,,,,,,,,,,,,,,,,,,,,,,,,,,,,,,,,,,,,,,,,,,,,,,,,,,,,,,,,,,,,,,,,,,,,
0,48,48,33,1,,5faa7e3ea84afb3b18acb0a7,62bbfafcf532685b4bb55d9c,2022-06-29_09h11.13.344,Colour_Asymmetry_Pilot,2022.1.3,Win32,90.33423668,62bbe60bf3d75ef465d3e404,,,,,,,,,,,,,,,,,,,,,,,,,,,,,,,,,,,,,,,,,,,,,,,,,,,,,,,,,,,,,,,,,,,,,,,,,,,,,,,,,,,,,,,,,,,,,,,,,,,,,,,,,,,,,,,,,,,,,,,,,,,,,,,,,,,,,,,,,,,,,,,,,,,,,,,,,,,,,,
0,49,49,68,1,,5faa7e3ea84afb3b18acb0a7,62bbfafcf532685b4bb55d9c,2022-06-29_09h11.13.344,Colour_Asymmetry_Pilot,2022.1.3,Win32,90.33423668,62bbe60bf3d75ef465d3e404,,,,,,,,,,,,,,,,,,,,,,,,,,,,,,,,,,,,,,,,,,,,,,,,,,,,,,,,,,,,,,,,,,,,,,,,,,,,,,,,,,,,,,,,,,,,,,,,,,,,,,,,,,,,,,,,,,,,,,,,,,,,,,,,,,,,,,,,,,,,,,,,,,,,,,,,,,,,,,
0,50,50,55,1,,5faa7e3ea84afb3b18acb0a7,62bbfafcf532685b4bb55d9c,2022-06-29_09h11.13.344,Colour_Asymmetry_Pilot,2022.1.3,Win32,90.33423668,62bbe60bf3d75ef465d3e404,,,,,,,,,,,,,,,,,,,,,,,,,,,,,,,,,,,,,,,,,,,,,,,,,,,,,,,,,,,,,,,,,,,,,,,,,,,,,,,,,,,,,,,,,,,,,,,,,,,,,,,,,,,,,,,,,,,,,,,,,,,,,,,,,,,,,,,,,,,,,,,,,,,,,,,,,,,,,,
0,51,51,76,1,,5faa7e3ea84afb3b18acb0a7,62bbfafcf532685b4bb55d9c,2022-06-29_09h11.13.344,Colour_Asymmetry_Pilot,2022.1.3,Win32,90.33423668,62bbe60bf3d75ef465d3e404,,,,,,,,,,,,,,,,,,,,,,,,,,,,,,,,,,,,,,,,,,,,,,,,,,,,,,,,,,,,,,,,,,,,,,,,,,,,,,,,,,,,,,,,,,,,,,,,,,,,,,,,,,,,,,,,,,,,,,,,,,,,,,,,,,,,,,,,,,,,,,,,,,,,,,,,,,,,,,
0,52,52,51,1,,5faa7e3ea84afb3b18acb0a7,62bbfafcf532685b4bb55d9c,2022-06-29_09h11.13.344,Colour_Asymmetry_Pilot,2022.1.3,Win32,90.33423668,62bbe60bf3d75ef465d3e404,,,,,,,,,,,,,,,,,,,,,,,,,,,,,,,,,,,,,,,,,,,,,,,,,,,,,,,,,,,,,,,,,,,,,,,,,,,,,,,,,,,,,,,,,,,,,,,,,,,,,,,,,,,,,,,,,,,,,,,,,,,,,,,,,,,,,,,,,,,,,,,,,,,,,,,,,,,,,,
0,53,53,79,1,,5faa7e3ea84afb3b18acb0a7,62bbfafcf532685b4bb55d9c,2022-06-29_09h11.13.344,Colour_Asymmetry_Pilot,2022.1.3,Win32,90.33423668,62bbe60bf3d75ef465d3e404,,,,,,,,,,,,,,,,,,,,,,,,,,,,,,,,,,,,,,,,,,,,,,,,,,,,,,,,,,,,,,,,,,,,,,,,,,,,,,,,,,,,,,,,,,,,,,,,,,,,,,,,,,,,,,,,,,,,,,,,,,,,,,,,,,,,,,,,,,,,,,,,,,,,,,,,,,,,,,
0,54,54,41,1,,5faa7e3ea84afb3b18acb0a7,62bbfafcf532685b4bb55d9c,2022-06-29_09h11.13.344,Colour_Asymmetry_Pilot,2022.1.3,Win32,90.33423668,62bbe60bf3d75ef465d3e404,,,,,,,,,,,,,,,,,,,,,,,,,,,,,,,,,,,,,,,,,,,,,,,,,,,,,,,,,,,,,,,,,,,,,,,,,,,,,,,,,,,,,,,,,,,,,,,,,,,,,,,,,,,,,,,,,,,,,,,,,,,,,,,,,,,,,,,,,,,,,,,,,,,,,,,,,,,,,,
0,55,55,80,1,,5faa7e3ea84afb3b18acb0a7,62bbfafcf532685b4bb55d9c,2022-06-29_09h11.13.344,Colour_Asymmetry_Pilot,2022.1.3,Win32,90.33423668,62bbe60bf3d75ef465d3e404,,,,,,,,,,,,,,,,,,,,,,,,,,,,,,,,,,,,,,,,,,,,,,,,,,,,,,,,,,,,,,,,,,,,,,,,,,,,,,,,,,,,,,,,,,,,,,,,,,,,,,,,,,,,,,,,,,,,,,,,,,,,,,,,,,,,,,,,,,,,,,,,,,,,,,,,,,,,,,
0,56,56,42,1,,5faa7e3ea84afb3b18acb0a7,62bbfafcf532685b4bb55d9c,2022-06-29_09h11.13.344,Colour_Asymmetry_Pilot,2022.1.3,Win32,90.33423668,62bbe60bf3d75ef465d3e404,,,,,,,,,,,,,,,,,,,,,,,,,,,,,,,,,,,,,,,,,,,,,,,,,,,,,,,,,,,,,,,,,,,,,,,,,,,,,,,,,,,,,,,,,,,,,,,,,,,,,,,,,,,,,,,,,,,,,,,,,,,,,,,,,,,,,,,,,,,,,,,,,,,,,,,,,,,,,,
0,57,57,15,1,,5faa7e3ea84afb3b18acb0a7,62bbfafcf532685b4bb55d9c,2022-06-29_09h11.13.344,Colour_Asymmetry_Pilot,2022.1.3,Win32,90.33423668,62bbe60bf3d75ef465d3e404,,,,,,,,,,,,,,,,,,,,,,,,,,,,,,,,,,,,,,,,,,,,,,,,,,,,,,,,,,,,,,,,,,,,,,,,,,,,,,,,,,,,,,,,,,,,,,,,,,,,,,,,,,,,,,,,,,,,,,,,,,,,,,,,,,,,,,,,,,,,,,,,,,,,,,,,,,,,,,
0,58,58,84,1,,5faa7e3ea84afb3b18acb0a7,62bbfafcf532685b4bb55d9c,2022-06-29_09h11.13.344,Colour_Asymmetry_Pilot,2022.1.3,Win32,90.33423668,62bbe60bf3d75ef465d3e404,,,,,,,,,,,,,,,,,,,,,,,,,,,,,,,,,,,,,,,,,,,,,,,,,,,,,,,,,,,,,,,,,,,,,,,,,,,,,,,,,,,,,,,,,,,,,,,,,,,,,,,,,,,,,,,,,,,,,,,,,,,,,,,,,,,,,,,,,,,,,,,,,,,,,,,,,,,,,,
0,59,59,75,1,,5faa7e3ea84afb3b18acb0a7,62bbfafcf532685b4bb55d9c,2022-06-29_09h11.13.344,Colour_Asymmetry_Pilot,2022.1.3,Win32,90.33423668,62bbe60bf3d75ef465d3e404,,,,,,,,,,,,,,,,,,,,,,,,,,,,,,,,,,,,,,,,,,,,,,,,,,,,,,,,,,,,,,,,,,,,,,,,,,,,,,,,,,,,,,,,,,,,,,,,,,,,,,,,,,,,,,,,,,,,,,,,,,,,,,,,,,,,,,,,,,,,,,,,,,,,,,,,,,,,,,
0,60,60,23,1,,5faa7e3ea84afb3b18acb0a7,62bbfafcf532685b4bb55d9c,2022-06-29_09h11.13.344,Colour_Asymmetry_Pilot,2022.1.3,Win32,90.33423668,62bbe60bf3d75ef465d3e404,,,,,,,,,,,,,,,,,,,,,,,,,,,,,,,,,,,,,,,,,,,,,,,,,,,,,,,,,,,,,,,,,,,,,,,,,,,,,,,,,,,,,,,,,,,,,,,,,,,,,,,,,,,,,,,,,,,,,,,,,,,,,,,,,,,,,,,,,,,,,,,,,,,,,,,,,,,,,,
0,61,61,56,1,,5faa7e3ea84afb3b18acb0a7,62bbfafcf532685b4bb55d9c,2022-06-29_09h11.13.344,Colour_Asymmetry_Pilot,2022.1.3,Win32,90.33423668,62bbe60bf3d75ef465d3e404,,,,,,,,,,,,,,,,,,,,,,,,,,,,,,,,,,,,,,,,,,,,,,,,,,,,,,,,,,,,,,,,,,,,,,,,,,,,,,,,,,,,,,,,,,,,,,,,,,,,,,,,,,,,,,,,,,,,,,,,,,,,,,,,,,,,,,,,,,,,,,,,,,,,,,,,,,,,,,
0,62,62,29,1,,5faa7e3ea84afb3b18acb0a7,62bbfafcf532685b4bb55d9c,2022-06-29_09h11.13.344,Colour_Asymmetry_Pilot,2022.1.3,Win32,90.33423668,62bbe60bf3d75ef465d3e404,,,,,,,,,,,,,,,,,,,,,,,,,,,,,,,,,,,,,,,,,,,,,,,,,,,,,,,,,,,,,,,,,,,,,,,,,,,,,,,,,,,,,,,,,,,,,,,,,,,,,,,,,,,,,,,,,,,,,,,,,,,,,,,,,,,,,,,,,,,,,,,,,,,,,,,,,,,,,,
0,63,63,27,1,,5faa7e3ea84afb3b18acb0a7,62bbfafcf532685b4bb55d9c,2022-06-29_09h11.13.344,Colour_Asymmetry_Pilot,2022.1.3,Win32,90.33423668,62bbe60bf3d75ef465d3e404,,,,,,,,,,,,,,,,,,,,,,,,,,,,,,,,,,,,,,,,,,,,,,,,,,,,,,,,,,,,,,,,,,,,,,,,,,,,,,,,,,,,,,,,,,,,,,,,,,,,,,,,,,,,,,,,,,,,,,,,,,,,,,,,,,,,,,,,,,,,,,,,,,,,,,,,,,,,,,
0,64,64,35,1,,5faa7e3ea84afb3b18acb0a7,62bbfafcf532685b4bb55d9c,2022-06-29_09h11.13.344,Colour_Asymmetry_Pilot,2022.1.3,Win32,90.33423668,62bbe60bf3d75ef465d3e404,,,,,,,,,,,,,,,,,,,,,,,,,,,,,,,,,,,,,,,,,,,,,,,,,,,,,,,,,,,,,,,,,,,,,,,,,,,,,,,,,,,,,,,,,,,,,,,,,,,,,,,,,,,,,,,,,,,,,,,,,,,,,,,,,,,,,,,,,,,,,,,,,,,,,,,,,,,,,,
0,65,65,88,1,,5faa7e3ea84afb3b18acb0a7,62bbfafcf532685b4bb55d9c,2022-06-29_09h11.13.344,Colour_Asymmetry_Pilot,2022.1.3,Win32,90.33423668,62bbe60bf3d75ef465d3e404,,,,,,,,,,,,,,,,,,,,,,,,,,,,,,,,,,,,,,,,,,,,,,,,,,,,,,,,,,,,,,,,,,,,,,,,,,,,,,,,,,,,,,,,,,,,,,,,,,,,,,,,,,,,,,,,,,,,,,,,,,,,,,,,,,,,,,,,,,,,,,,,,,,,,,,,,,,,,,
0,66,66,49,1,,5faa7e3ea84afb3b18acb0a7,62bbfafcf532685b4bb55d9c,2022-06-29_09h11.13.344,Colour_Asymmetry_Pilot,2022.1.3,Win32,90.33423668,62bbe60bf3d75ef465d3e404,,,,,,,,,,,,,,,,,,,,,,,,,,,,,,,,,,,,,,,,,,,,,,,,,,,,,,,,,,,,,,,,,,,,,,,,,,,,,,,,,,,,,,,,,,,,,,,,,,,,,,,,,,,,,,,,,,,,,,,,,,,,,,,,,,,,,,,,,,,,,,,,,,,,,,,,,,,,,,
0,67,67,66,1,,5faa7e3ea84afb3b18acb0a7,62bbfafcf532685b4bb55d9c,2022-06-29_09h11.13.344,Colour_Asymmetry_Pilot,2022.1.3,Win32,90.33423668,62bbe60bf3d75ef465d3e404,,,,,,,,,,,,,,,,,,,,,,,,,,,,,,,,,,,,,,,,,,,,,,,,,,,,,,,,,,,,,,,,,,,,,,,,,,,,,,,,,,,,,,,,,,,,,,,,,,,,,,,,,,,,,,,,,,,,,,,,,,,,,,,,,,,,,,,,,,,,,,,,,,,,,,,,,,,,,,
0,68,68,54,1,,5faa7e3ea84afb3b18acb0a7,62bbfafcf532685b4bb55d9c,2022-06-29_09h11.13.344,Colour_Asymmetry_Pilot,2022.1.3,Win32,90.33423668,62bbe60bf3d75ef465d3e404,,,,,,,,,,,,,,,,,,,,,,,,,,,,,,,,,,,,,,,,,,,,,,,,,,,,,,,,,,,,,,,,,,,,,,,,,,,,,,,,,,,,,,,,,,,,,,,,,,,,,,,,,,,,,,,,,,,,,,,,,,,,,,,,,,,,,,,,,,,,,,,,,,,,,,,,,,,,,,
0,69,69,78,1,,5faa7e3ea84afb3b18acb0a7,62bbfafcf532685b4bb55d9c,2022-06-29_09h11.13.344,Colour_Asymmetry_Pilot,2022.1.3,Win32,90.33423668,62bbe60bf3d75ef465d3e404,,,,,,,,,,,,,,,,,,,,,,,,,,,,,,,,,,,,,,,,,,,,,,,,,,,,,,,,,,,,,,,,,,,,,,,,,,,,,,,,,,,,,,,,,,,,,,,,,,,,,,,,,,,,,,,,,,,,,,,,,,,,,,,,,,,,,,,,,,,,,,,,,,,,,,,,,,,,,,
0,70,70,22,1,,5faa7e3ea84afb3b18acb0a7,62bbfafcf532685b4bb55d9c,2022-06-29_09h11.13.344,Colour_Asymmetry_Pilot,2022.1.3,Win32,90.33423668,62bbe60bf3d75ef465d3e404,,,,,,,,,,,,,,,,,,,,,,,,,,,,,,,,,,,,,,,,,,,,,,,,,,,,,,,,,,,,,,,,,,,,,,,,,,,,,,,,,,,,,,,,,,,,,,,,,,,,,,,,,,,,,,,,,,,,,,,,,,,,,,,,,,,,,,,,,,,,,,,,,,,,,,,,,,,,,,
0,71,71,91,1,,5faa7e3ea84afb3b18acb0a7,62bbfafcf532685b4bb55d9c,2022-06-29_09h11.13.344,Colour_Asymmetry_Pilot,2022.1.3,Win32,90.33423668,62bbe60bf3d75ef465d3e404,,,,,,,,,,,,,,,,,,,,,,,,,,,,,,,,,,,,,,,,,,,,,,,,,,,,,,,,,,,,,,,,,,,,,,,,,,,,,,,,,,,,,,,,,,,,,,,,,,,,,,,,,,,,,,,,,,,,,,,,,,,,,,,,,,,,,,,,,,,,,,,,,,,,,,,,,,,,,,
0,72,72,20,1,,5faa7e3ea84afb3b18acb0a7,62bbfafcf532685b4bb55d9c,2022-06-29_09h11.13.344,Colour_Asymmetry_Pilot,2022.1.3,Win32,90.33423668,62bbe60bf3d75ef465d3e404,,,,,,,,,,,,,,,,,,,,,,,,,,,,,,,,,,,,,,,,,,,,,,,,,,,,,,,,,,,,,,,,,,,,,,,,,,,,,,,,,,,,,,,,,,,,,,,,,,,,,,,,,,,,,,,,,,,,,,,,,,,,,,,,,,,,,,,,,,,,,,,,,,,,,,,,,,,,,,
0,73,73,43,1,,5faa7e3ea84afb3b18acb0a7,62bbfafcf532685b4bb55d9c,2022-06-29_09h11.13.344,Colour_Asymmetry_Pilot,2022.1.3,Win32,90.33423668,62bbe60bf3d75ef465d3e404,,,,,,,,,,,,,,,,,,,,,,,,,,,,,,,,,,,,,,,,,,,,,,,,,,,,,,,,,,,,,,,,,,,,,,,,,,,,,,,,,,,,,,,,,,,,,,,,,,,,,,,,,,,,,,,,,,,,,,,,,,,,,,,,,,,,,,,,,,,,,,,,,,,,,,,,,,,,,,
0,74,74,26,1,,5faa7e3ea84afb3b18acb0a7,62bbfafcf532685b4bb55d9c,2022-06-29_09h11.13.344,Colour_Asymmetry_Pilot,2022.1.3,Win32,90.33423668,62bbe60bf3d75ef465d3e404,,,,,,,,,,,,,,,,,,,,,,,,,,,,,,,,,,,,,,,,,,,,,,,,,,,,,,,,,,,,,,,,,,,,,,,,,,,,,,,,,,,,,,,,,,,,,,,,,,,,,,,,,,,,,,,,,,,,,,,,,,,,,,,,,,,,,,,,,,,,,,,,,,,,,,,,,,,,,,
0,75,75,10,1,,5faa7e3ea84afb3b18acb0a7,62bbfafcf532685b4bb55d9c,2022-06-29_09h11.13.344,Colour_Asymmetry_Pilot,2022.1.3,Win32,90.33423668,62bbe60bf3d75ef465d3e404,,,,,,,,,,,,,,,,,,,,,,,,,,,,,,,,,,,,,,,,,,,,,,,,,,,,,,,,,,,,,,,,,,,,,,,,,,,,,,,,,,,,,,,,,,,,,,,,,,,,,,,,,,,,,,,,,,,,,,,,,,,,,,,,,,,,,,,,,,,,,,,,,,,,,,,,,,,,,,
0,76,76,65,1,,5faa7e3ea84afb3b18acb0a7,62bbfafcf532685b4bb55d9c,2022-06-29_09h11.13.344,Colour_Asymmetry_Pilot,2022.1.3,Win32,90.33423668,62bbe60bf3d75ef465d3e404,,,,,,,,,,,,,,,,,,,,,,,,,,,,,,,,,,,,,,,,,,,,,,,,,,,,,,,,,,,,,,,,,,,,,,,,,,,,,,,,,,,,,,,,,,,,,,,,,,,,,,,,,,,,,,,,,,,,,,,,,,,,,,,,,,,,,,,,,,,,,,,,,,,,,,,,,,,,,,
0,77,77,21,1,,5faa7e3ea84afb3b18acb0a7,62bbfafcf532685b4bb55d9c,2022-06-29_09h11.13.344,Colour_Asymmetry_Pilot,2022.1.3,Win32,90.33423668,62bbe60bf3d75ef465d3e404,,,,,,,,,,,,,,,,,,,,,,,,,,,,,,,,,,,,,,,,,,,,,,,,,,,,,,,,,,,,,,,,,,,,,,,,,,,,,,,,,,,,,,,,,,,,,,,,,,,,,,,,,,,,,,,,,,,,,,,,,,,,,,,,,,,,,,,,,,,,,,,,,,,,,,,,,,,,,,
0,78,78,30,1,,5faa7e3ea84afb3b18acb0a7,62bbfafcf532685b4bb55d9c,2022-06-29_09h11.13.344,Colour_Asymmetry_Pilot,2022.1.3,Win32,90.33423668,62bbe60bf3d75ef465d3e404,,,,,,,,,,,,,,,,,,,,,,,,,,,,,,,,,,,,,,,,,,,,,,,,,,,,,,,,,,,,,,,,,,,,,,,,,,,,,,,,,,,,,,,,,,,,,,,,,,,,,,,,,,,,,,,,,,,,,,,,,,,,,,,,,,,,,,,,,,,,,,,,,,,,,,,,,,,,,,
0,79,79,73,1,,5faa7e3ea84afb3b18acb0a7,62bbfafcf532685b4bb55d9c,2022-06-29_09h11.13.344,Colour_Asymmetry_Pilot,2022.1.3,Win32,90.33423668,62bbe60bf3d75ef465d3e404,,,,,,,,,,,,,,,,,,,,,,,,,,,,,,,,,,,,,,,,,,,,,,,,,,,,,,,,,,,,,,,,,,,,,,,,,,,,,,,,,,,,,,,,,,,,,,,,,,,,,,,,,,,,,,,,,,,,,,,,,,,,,,,,,,,,,,,,,,,,,,,,,,,,,,,,,,,,,,
0,80,80,69,1,,5faa7e3ea84afb3b18acb0a7,62bbfafcf532685b4bb55d9c,2022-06-29_09h11.13.344,Colour_Asymmetry_Pilot,2022.1.3,Win32,90.33423668,62bbe60bf3d75ef465d3e404,,,,,,,,,,,,,,,,,,,,,,,,,,,,,,,,,,,,,,,,,,,,,,,,,,,,,,,,,,,,,,,,,,,,,,,,,,,,,,,,,,,,,,,,,,,,,,,,,,,,,,,,,,,,,,,,,,,,,,,,,,,,,,,,,,,,,,,,,,,,,,,,,,,,,,,,,,,,,,
0,81,81,53,1,,5faa7e3ea84afb3b18acb0a7,62bbfafcf532685b4bb55d9c,2022-06-29_09h11.13.344,Colour_Asymmetry_Pilot,2022.1.3,Win32,90.33423668,62bbe60bf3d75ef465d3e404,,,,,,,,,,,,,,,,,,,,,,,,,,,,,,,,,,,,,,,,,,,,,,,,,,,,,,,,,,,,,,,,,,,,,,,,,,,,,,,,,,,,,,,,,,,,,,,,,,,,,,,,,,,,,,,,,,,,,,,,,,,,,,,,,,,,,,,,,,,,,,,,,,,,,,,,,,,,,,
0,82,82,82,1,,5faa7e3ea84afb3b18acb0a7,62bbfafcf532685b4bb55d9c,2022-06-29_09h11.13.344,Colour_Asymmetry_Pilot,2022.1.3,Win32,90.33423668,62bbe60bf3d75ef465d3e404,,,,,,,,,,,,,,,,,,,,,,,,,,,,,,,,,,,,,,,,,,,,,,,,,,,,,,,,,,,,,,,,,,,,,,,,,,,,,,,,,,,,,,,,,,,,,,,,,,,,,,,,,,,,,,,,,,,,,,,,,,,,,,,,,,,,,,,,,,,,,,,,,,,,,,,,,,,,,,
0,83,83,14,1,,5faa7e3ea84afb3b18acb0a7,62bbfafcf532685b4bb55d9c,2022-06-29_09h11.13.344,Colour_Asymmetry_Pilot,2022.1.3,Win32,90.33423668,62bbe60bf3d75ef465d3e404,,,,,,,,,,,,,,,,,,,,,,,,,,,,,,,,,,,,,,,,,,,,,,,,,,,,,,,,,,,,,,,,,,,,,,,,,,,,,,,,,,,,,,,,,,,,,,,,,,,,,,,,,,,,,,,,,,,,,,,,,,,,,,,,,,,,,,,,,,,,,,,,,,,,,,,,,,,,,,
0,84,84,28,1,,5faa7e3ea84afb3b18acb0a7,62bbfafcf532685b4bb55d9c,2022-06-29_09h11.13.344,Colour_Asymmetry_Pilot,2022.1.3,Win32,90.33423668,62bbe60bf3d75ef465d3e404,,,,,,,,,,,,,,,,,,,,,,,,,,,,,,,,,,,,,,,,,,,,,,,,,,,,,,,,,,,,,,,,,,,,,,,,,,,,,,,,,,,,,,,,,,,,,,,,,,,,,,,,,,,,,,,,,,,,,,,,,,,,,,,,,,,,,,,,,,,,,,,,,,,,,,,,,,,,,,
0,85,85,87,1,,5faa7e3ea84afb3b18acb0a7,62bbfafcf532685b4bb55d9c,2022-06-29_09h11.13.344,Colour_Asymmetry_Pilot,2022.1.3,Win32,90.33423668,62bbe60bf3d75ef465d3e404,,,,,,,,,,,,,,,,,,,,,,,,,,,,,,,,,,,,,,,,,,,,,,,,,,,,,,,,,,,,,,,,,,,,,,,,,,,,,,,,,,,,,,,,,,,,,,,,,,,,,,,,,,,,,,,,,,,,,,,,,,,,,,,,,,,,,,,,,,,,,,,,,,,,,,,,,,,,,,
0,86,86,36,1,,5faa7e3ea84afb3b18acb0a7,62bbfafcf532685b4bb55d9c,2022-06-29_09h11.13.344,Colour_Asymmetry_Pilot,2022.1.3,Win32,90.33423668,62bbe60bf3d75ef465d3e404,,,,,,,,,,,,,,,,,,,,,,,,,,,,,,,,,,,,,,,,,,,,,,,,,,,,,,,,,,,,,,,,,,,,,,,,,,,,,,,,,,,,,,,,,,,,,,,,,,,,,,,,,,,,,,,,,,,,,,,,,,,,,,,,,,,,,,,,,,,,,,,,,,,,,,,,,,,,,,
0,87,87,48,1,,5faa7e3ea84afb3b18acb0a7,62bbfafcf532685b4bb55d9c,2022-06-29_09h11.13.344,Colour_Asymmetry_Pilot,2022.1.3,Win32,90.33423668,62bbe60bf3d75ef465d3e404,,,,,,,,,,,,,,,,,,,,,,,,,,,,,,,,,,,,,,,,,,,,,,,,,,,,,,,,,,,,,,,,,,,,,,,,,,,,,,,,,,,,,,,,,,,,,,,,,,,,,,,,,,,,,,,,,,,,,,,,,,,,,,,,,,,,,,,,,,,,,,,,,,,,,,,,,,,,,,
0,88,88,5,1,,5faa7e3ea84afb3b18acb0a7,62bbfafcf532685b4bb55d9c,2022-06-29_09h11.13.344,Colour_Asymmetry_Pilot,2022.1.3,Win32,90.33423668,62bbe60bf3d75ef465d3e404,,,,,,,,,,,,,,,,,,,,,,,,,,,,,,,,,,,,,,,,,,,,,,,,,,,,,,,,,,,,,,,,,,,,,,,,,,,,,,,,,,,,,,,,,,,,,,,,,,,,,,,,,,,,,,,,,,,,,,,,,,,,,,,,,,,,,,,,,,,,,,,,,,,,,,,,,,,,,,
0,89,89,39,1,,5faa7e3ea84afb3b18acb0a7,62bbfafcf532685b4bb55d9c,2022-06-29_09h11.13.344,Colour_Asymmetry_Pilot,2022.1.3,Win32,90.33423668,62bbe60bf3d75ef465d3e404,,,,,,,,,,,,,,,,,,,,,,,,,,,,,,,,,,,,,,,,,,,,,,,,,,,,,,,,,,,,,,,,,,,,,,,,,,,,,,,,,,,,,,,,,,,,,,,,,,,,,,,,,,,,,,,,,,,,,,,,,,,,,,,,,,,,,,,,,,,,,,,,,,,,,,,,,,,,,,
0,90,90,85,1,,5faa7e3ea84afb3b18acb0a7,62bbfafcf532685b4bb55d9c,2022-06-29_09h11.13.344,Colour_Asymmetry_Pilot,2022.1.3,Win32,90.33423668,62bbe60bf3d75ef465d3e404,,,,,,,,,,,,,,,,,,,,,,,,,,,,,,,,,,,,,,,,,,,,,,,,,,,,,,,,,,,,,,,,,,,,,,,,,,,,,,,,,,,,,,,,,,,,,,,,,,,,,,,,,,,,,,,,,,,,,,,,,,,,,,,,,,,,,,,,,,,,,,,,,,,,,,,,,,,,,,
0,91,91,74,1,,5faa7e3ea84afb3b18acb0a7,62bbfafcf532685b4bb55d9c,2022-06-29_09h11.13.344,Colour_Asymmetry_Pilot,2022.1.3,Win32,90.33423668,62bbe60bf3d75ef465d3e404,,,,,,,,,,,,,,,,,,,,,,,,,,,,,,,,,,,,,,,,,,,,,,,,,,,,,,,,,,,,,,,,,,,,,,,,,,,,,,,,,,,,,,,,,,,,,,,,,,,,,,,,,,,,,,,,,,,,,,,,,,,,,,,,,,,,,,,,,,,,,,,,,,,,,,,,,,,,,,
0,92,92,52,1,,5faa7e3ea84afb3b18acb0a7,62bbfafcf532685b4bb55d9c,2022-06-29_09h11.13.344,Colour_Asymmetry_Pilot,2022.1.3,Win32,90.33423668,62bbe60bf3d75ef465d3e404,,,,,,,,,,,,,,,,,,,,,,,,,,,,,,,,,,,,,,,,,,,,,,,,,,,,,,,,,,,,,,,,,,,,,,,,,,,,,,,,,,,,,,,,,,,,,,,,,,,,,,,,,,,,,,,,,,,,,,,,,,,,,,,,,,,,,,,,,,,,,,,,,,,,,,,,,,,,,,
,,,,,,5faa7e3ea84afb3b18acb0a7,62bbfafcf532685b4bb55d9c,2022-06-29_09h11.13.344,Colour_Asymmetry_Pilot,2022.1.3,Win32,90.33423668,62bbe60bf3d75ef465d3e404,0,0,0,33,1,onethree,,,,,,,,,,,,,,,,,,,,,,,,,,,,,,,,,,,,,,,,,,,,,,,,,,,,,,,,,,,,,,,,,,,,,,,,,,,,,,,,,,,,,,,,,,,,,,,,,,,,,,,,,,,,,,,,,,,,,,,,,,,,,,,,,,,,,,,,,,,,,,,,,,,,,,,,
,,,,,,5faa7e3ea84afb3b18acb0a7,62bbfafcf532685b4bb55d9c,2022-06-29_09h11.13.344,Colour_Asymmetry_Pilot,2022.1.3,Win32,90.33423668,62bbe60bf3d75ef465d3e404,0,1,1,122,1,twoone,,,,,,,,,,,,,,,,,,,,,,,,,,,,,,,,,,,,,,,,,,,,,,,,,,,,,,,,,,,,,,,,,,,,,,,,,,,,,,,,,,,,,,,,,,,,,,,,,,,,,,,,,,,,,,,,,,,,,,,,,,,,,,,,,,,,,,,,,,,,,,,,,,,,,,,,
,,,,,,5faa7e3ea84afb3b18acb0a7,62bbfafcf532685b4bb55d9c,2022-06-29_09h11.13.344,Colour_Asymmetry_Pilot,2022.1.3,Win32,90.33423668,62bbe60bf3d75ef465d3e404,0,2,2,19,1,twofour,,,,,,,,,,,,,,,,,,,,,,,,,,,,,,,,,,,,,,,,,,,,,,,,,,,,,,,,,,,,,,,,,,,,,,,,,,,,,,,,,,,,,,,,,,,,,,,,,,,,,,,,,,,,,,,,,,,,,,,,,,,,,,,,,,,,,,,,,,,,,,,,,,,,,,,,
,,,,,,5faa7e3ea84afb3b18acb0a7,62bbfafcf532685b4bb55d9c,2022-06-29_09h11.13.344,Colour_Asymmetry_Pilot,2022.1.3,Win32,90.33423668,62bbe60bf3d75ef465d3e404,0,3,3,54,1,fourtwo,,,,,,,,,,,,,,,,,,,,,,,,,,,,,,,,,,,,,,,,,,,,,,,,,,,,,,,,,,,,,,,,,,,,,,,,,,,,,,,,,,,,,,,,,,,,,,,,,,,,,,,,,,,,,,,,,,,,,,,,,,,,,,,,,,,,,,,,,,,,,,,,,,,,,,,,
,,,,,,5faa7e3ea84afb3b18acb0a7,62bbfafcf532685b4bb55d9c,2022-06-29_09h11.13.344,Colour_Asymmetry_Pilot,2022.1.3,Win32,90.33423668,62bbe60bf3d75ef465d3e404,0,4,4,103,1,fourthree,,,,,,,,,,,,,,,,,,,,,,,,,,,,,,,,,,,,,,,,,,,,,,,,,,,,,,,,,,,,,,,,,,,,,,,,,,,,,,,,,,,,,,,,,,,,,,,,,,,,,,,,,,,,,,,,,,,,,,,,,,,,,,,,,,,,,,,,,,,,,,,,,,,,,,,,
,,,,,,5faa7e3ea84afb3b18acb0a7,62bbfafcf532685b4bb55d9c,2022-06-29_09h11.13.344,Colour_Asymmetry_Pilot,2022.1.3,Win32,90.33423668,62bbe60bf3d75ef465d3e404,0,5,5,154,1,twoone,,,,,,,,,,,,,,,,,,,,,,,,,,,,,,,,,,,,,,,,,,,,,,,,,,,,,,,,,,,,,,,,,,,,,,,,,,,,,,,,,,,,,,,,,,,,,,,,,,,,,,,,,,,,,,,,,,,,,,,,,,,,,,,,,,,,,,,,,,,,,,,,,,,,,,,,
,,,,,,5faa7e3ea84afb3b18acb0a7,62bbfafcf532685b4bb55d9c,2022-06-29_09h11.13.344,Colour_Asymmetry_Pilot,2022.1.3,Win32,90.33423668,62bbe60bf3d75ef465d3e404,0,6,6,44,1,threeone,,,,,,,,,,,,,,,,,,,,,,,,,,,,,,,,,,,,,,,,,,,,,,,,,,,,,,,,,,,,,,,,,,,,,,,,,,,,,,,,,,,,,,,,,,,,,,,,,,,,,,,,,,,,,,,,,,,,,,,,,,,,,,,,,,,,,,,,,,,,,,,,,,,,,,,,
,,,,,,5faa7e3ea84afb3b18acb0a7,62bbfafcf532685b4bb55d9c,2022-06-29_09h11.13.344,Colour_Asymmetry_Pilot,2022.1.3,Win32,90.33423668,62bbe60bf3d75ef465d3e404,0,7,7,153,1,onethree,,,,,,,,,,,,,,,,,,,,,,,,,,,,,,,,,,,,,,,,,,,,,,,,,,,,,,,,,,,,,,,,,,,,,,,,,,,,,,,,,,,,,,,,,,,,,,,,,,,,,,,,,,,,,,,,,,,,,,,,,,,,,,,,,,,,,,,,,,,,,,,,,,,,,,,,
,,,,,,5faa7e3ea84afb3b18acb0a7,62bbfafcf532685b4bb55d9c,2022-06-29_09h11.13.344,Colour_Asymmetry_Pilot,2022.1.3,Win32,90.33423668,62bbe60bf3d75ef465d3e404,0,8,8,72,1,onetwo,,,,,,,,,,,,,,,,,,,,,,,,,,,,,,,,,,,,,,,,,,,,,,,,,,,,,,,,,,,,,,,,,,,,,,,,,,,,,,,,,,,,,,,,,,,,,,,,,,,,,,,,,,,,,,,,,,,,,,,,,,,,,,,,,,,,,,,,,,,,,,,,,,,,,,,,
,,,,,,5faa7e3ea84afb3b18acb0a7,62bbfafcf532685b4bb55d9c,2022-06-29_09h11.13.344,Colour_Asymmetry_Pilot,2022.1.3,Win32,90.33423668,62bbe60bf3d75ef465d3e404,0,9,9,99,1,twofour,,,,,,,,,,,,,,,,,,,,,,,,,,,,,,,,,,,,,,,,,,,,,,,,,,,,,,,,,,,,,,,,,,,,,,,,,,,,,,,,,,,,,,,,,,,,,,,,,,,,,,,,,,,,,,,,,,,,,,,,,,,,,,,,,,,,,,,,,,,,,,,,,,,,,,,,
,,,,,,5faa7e3ea84afb3b18acb0a7,62bbfafcf532685b4bb55d9c,2022-06-29_09h11.13.344,Colour_Asymmetry_Pilot,2022.1.3,Win32,90.33423668,62bbe60bf3d75ef465d3e404,0,10,10,100,1,threeone,,,,,,,,,,,,,,,,,,,,,,,,,,,,,,,,,,,,,,,,,,,,,,,,,,,,,,,,,,,,,,,,,,,,,,,,,,,,,,,,,,,,,,,,,,,,,,,,,,,,,,,,,,,,,,,,,,,,,,,,,,,,,,,,,,,,,,,,,,,,,,,,,,,,,,,,
,,,,,,5faa7e3ea84afb3b18acb0a7,62bbfafcf532685b4bb55d9c,2022-06-29_09h11.13.344,Colour_Asymmetry_Pilot,2022.1.3,Win32,90.33423668,62bbe60bf3d75ef465d3e404,0,11,11,136,1,onetwo,,,,,,,,,,,,,,,,,,,,,,,,,,,,,,,,,,,,,,,,,,,,,,,,,,,,,,,,,,,,,,,,,,,,,,,,,,,,,,,,,,,,,,,,,,,,,,,,,,,,,,,,,,,,,,,,,,,,,,,,,,,,,,,,,,,,,,,,,,,,,,,,,,,,,,,,
,,,,,,5faa7e3ea84afb3b18acb0a7,62bbfafcf532685b4bb55d9c,2022-06-29_09h11.13.344,Colour_Asymmetry_Pilot,2022.1.3,Win32,90.33423668,62bbe60bf3d75ef465d3e404,0,12,12,108,1,threeone,,,,,,,,,,,,,,,,,,,,,,,,,,,,,,,,,,,,,,,,,,,,,,,,,,,,,,,,,,,,,,,,,,,,,,,,,,,,,,,,,,,,,,,,,,,,,,,,,,,,,,,,,,,,,,,,,,,,,,,,,,,,,,,,,,,,,,,,,,,,,,,,,,,,,,,,
,,,,,,5faa7e3ea84afb3b18acb0a7,62bbfafcf532685b4bb55d9c,2022-06-29_09h11.13.344,Colour_Asymmetry_Pilot,2022.1.3,Win32,90.33423668,62bbe60bf3d75ef465d3e404,0,13,13,63,1,fourthree,,,,,,,,,,,,,,,,,,,,,,,,,,,,,,,,,,,,,,,,,,,,,,,,,,,,,,,,,,,,,,,,,,,,,,,,,,,,,,,,,,,,,,,,,,,,,,,,,,,,,,,,,,,,,,,,,,,,,,,,,,,,,,,,,,,,,,,,,,,,,,,,,,,,,,,,
,,,,,,5faa7e3ea84afb3b18acb0a7,62bbfafcf532685b4bb55d9c,2022-06-29_09h11.13.344,Colour_Asymmetry_Pilot,2022.1.3,Win32,90.33423668,62bbe60bf3d75ef465d3e404,0,14,14,133,1,threefour,,,,,,,,,,,,,,,,,,,,,,,,,,,,,,,,,,,,,,,,,,,,,,,,,,,,,,,,,,,,,,,,,,,,,,,,,,,,,,,,,,,,,,,,,,,,,,,,,,,,,,,,,,,,,,,,,,,,,,,,,,,,,,,,,,,,,,,,,,,,,,,,,,,,,,,,
,,,,,,5faa7e3ea84afb3b18acb0a7,62bbfafcf532685b4bb55d9c,2022-06-29_09h11.13.344,Colour_Asymmetry_Pilot,2022.1.3,Win32,90.33423668,62bbe60bf3d75ef465d3e404,0,15,15,119,1,fourthree,,,,,,,,,,,,,,,,,,,,,,,,,,,,,,,,,,,,,,,,,,,,,,,,,,,,,,,,,,,,,,,,,,,,,,,,,,,,,,,,,,,,,,,,,,,,,,,,,,,,,,,,,,,,,,,,,,,,,,,,,,,,,,,,,,,,,,,,,,,,,,,,,,,,,,,,
,,,,,,5faa7e3ea84afb3b18acb0a7,62bbfafcf532685b4bb55d9c,2022-06-29_09h11.13.344,Colour_Asymmetry_Pilot,2022.1.3,Win32,90.33423668,62bbe60bf3d75ef465d3e404,0,16,16,66,1,twoone,,,,,,,,,,,,,,,,,,,,,,,,,,,,,,,,,,,,,,,,,,,,,,,,,,,,,,,,,,,,,,,,,,,,,,,,,,,,,,,,,,,,,,,,,,,,,,,,,,,,,,,,,,,,,,,,,,,,,,,,,,,,,,,,,,,,,,,,,,,,,,,,,,,,,,,,
,,,,,,5faa7e3ea84afb3b18acb0a7,62bbfafcf532685b4bb55d9c,2022-06-29_09h11.13.344,Colour_Asymmetry_Pilot,2022.1.3,Win32,90.33423668,62bbe60bf3d75ef465d3e404,0,17,17,118,1,fourtwo,,,,,,,,,,,,,,,,,,,,,,,,,,,,,,,,,,,,,,,,,,,,,,,,,,,,,,,,,,,,,,,,,,,,,,,,,,,,,,,,,,,,,,,,,,,,,,,,,,,,,,,,,,,,,,,,,,,,,,,,,,,,,,,,,,,,,,,,,,,,,,,,,,,,,,,,
,,,,,,5faa7e3ea84afb3b18acb0a7,62bbfafcf532685b4bb55d9c,2022-06-29_09h11.13.344,Colour_Asymmetry_Pilot,2022.1.3,Win32,90.33423668,62bbe60bf3d75ef465d3e404,0,18,18,149,1,threefour,,,,,,,,,,,,,,,,,,,,,,,,,,,,,,,,,,,,,,,,,,,,,,,,,,,,,,,,,,,,,,,,,,,,,,,,,,,,,,,,,,,,,,,,,,,,,,,,,,,,,,,,,,,,,,,,,,,,,,,,,,,,,,,,,,,,,,,,,,,,,,,,,,,,,,,,
,,,,,,5faa7e3ea84afb3b18acb0a7,62bbfafcf532685b4bb55d9c,2022-06-29_09h11.13.344,Colour_Asymmetry_Pilot,2022.1.3,Win32,90.33423668,62bbe60bf3d75ef465d3e404,0,19,19,22,1,fourtwo,,,,,,,,,,,,,,,,,,,,,,,,,,,,,,,,,,,,,,,,,,,,,,,,,,,,,,,,,,,,,,,,,,,,,,,,,,,,,,,,,,,,,,,,,,,,,,,,,,,,,,,,,,,,,,,,,,,,,,,,,,,,,,,,,,,,,,,,,,,,,,,,,,,,,,,,
,,,,,,5faa7e3ea84afb3b18acb0a7,62bbfafcf532685b4bb55d9c,2022-06-29_09h11.13.344,Colour_Asymmetry_Pilot,2022.1.3,Win32,90.33423668,62bbe60bf3d75ef465d3e404,0,20,20,139,1,twofour,,,,,,,,,,,,,,,,,,,,,,,,,,,,,,,,,,,,,,,,,,,,,,,,,,,,,,,,,,,,,,,,,,,,,,,,,,,,,,,,,,,,,,,,,,,,,,,,,,,,,,,,,,,,,,,,,,,,,,,,,,,,,,,,,,,,,,,,,,,,,,,,,,,,,,,,
,,,,,,5faa7e3ea84afb3b18acb0a7,62bbfafcf532685b4bb55d9c,2022-06-29_09h11.13.344,Colour_Asymmetry_Pilot,2022.1.3,Win32,90.33423668,62bbe60bf3d75ef465d3e404,0,21,21,68,1,threeone,,,,,,,,,,,,,,,,,,,,,,,,,,,,,,,,,,,,,,,,,,,,,,,,,,,,,,,,,,,,,,,,,,,,,,,,,,,,,,,,,,,,,,,,,,,,,,,,,,,,,,,,,,,,,,,,,,,,,,,,,,,,,,,,,,,,,,,,,,,,,,,,,,,,,,,,
,,,,,,5faa7e3ea84afb3b18acb0a7,62bbfafcf532685b4bb55d9c,2022-06-29_09h11.13.344,Colour_Asymmetry_Pilot,2022.1.3,Win32,90.33423668,62bbe60bf3d75ef465d3e404,0,22,22,146,1,twoone,,,,,,,,,,,,,,,,,,,,,,,,,,,,,,,,,,,,,,,,,,,,,,,,,,,,,,,,,,,,,,,,,,,,,,,,,,,,,,,,,,,,,,,,,,,,,,,,,,,,,,,,,,,,,,,,,,,,,,,,,,,,,,,,,,,,,,,,,,,,,,,,,,,,,,,,
,,,,,,5faa7e3ea84afb3b18acb0a7,62bbfafcf532685b4bb55d9c,2022-06-29_09h11.13.344,Colour_Asymmetry_Pilot,2022.1.3,Win32,90.33423668,62bbe60bf3d75ef465d3e404,0,23,23,71,1,fourthree,,,,,,,,,,,,,,,,,,,,,,,,,,,,,,,,,,,,,,,,,,,,,,,,,,,,,,,,,,,,,,,,,,,,,,,,,,,,,,,,,,,,,,,,,,,,,,,,,,,,,,,,,,,,,,,,,,,,,,,,,,,,,,,,,,,,,,,,,,,,,,,,,,,,,,,,
,,,,,,5faa7e3ea84afb3b18acb0a7,62bbfafcf532685b4bb55d9c,2022-06-29_09h11.13.344,Colour_Asymmetry_Pilot,2022.1.3,Win32,90.33423668,62bbe60bf3d75ef465d3e404,0,24,24,117,1,threefour,,,,,,,,,,,,,,,,,,,,,,,,,,,,,,,,,,,,,,,,,,,,,,,,,,,,,,,,,,,,,,,,,,,,,,,,,,,,,,,,,,,,,,,,,,,,,,,,,,,,,,,,,,,,,,,,,,,,,,,,,,,,,,,,,,,,,,,,,,,,,,,,,,,,,,,,
,,,,,,5faa7e3ea84afb3b18acb0a7,62bbfafcf532685b4bb55d9c,2022-06-29_09h11.13.344,Colour_Asymmetry_Pilot,2022.1.3,Win32,90.33423668,62bbe60bf3d75ef465d3e404,0,25,25,55,1,fourthree,,,,,,,,,,,,,,,,,,,,,,,,,,,,,,,,,,,,,,,,,,,,,,,,,,,,,,,,,,,,,,,,,,,,,,,,,,,,,,,,,,,,,,,,,,,,,,,,,,,,,,,,,,,,,,,,,,,,,,,,,,,,,,,,,,,,,,,,,,,,,,,,,,,,,,,,
,,,,,,5faa7e3ea84afb3b18acb0a7,62bbfafcf532685b4bb55d9c,2022-06-29_09h11.13.344,Colour_Asymmetry_Pilot,2022.1.3,Win32,90.33423668,62bbe60bf3d75ef465d3e404,0,26,26,28,1,threeone,,,,,,,,,,,,,,,,,,,,,,,,,,,,,,,,,,,,,,,,,,,,,,,,,,,,,,,,,,,,,,,,,,,,,,,,,,,,,,,,,,,,,,,,,,,,,,,,,,,,,,,,,,,,,,,,,,,,,,,,,,,,,,,,,,,,,,,,,,,,,,,,,,,,,,,,
,,,,,,5faa7e3ea84afb3b18acb0a7,62bbfafcf532685b4bb55d9c,2022-06-29_09h11.13.344,Colour_Asymmetry_Pilot,2022.1.3,Win32,90.33423668,62bbe60bf3d75ef465d3e404,0,27,27,12,1,threeone,,,,,,,,,,,,,,,,,,,,,,,,,,,,,,,,,,,,,,,,,,,,,,,,,,,,,,,,,,,,,,,,,,,,,,,,,,,,,,,,,,,,,,,,,,,,,,,,,,,,,,,,,,,,,,,,,,,,,,,,,,,,,,,,,,,,,,,,,,,,,,,,,,,,,,,,
,,,,,,5faa7e3ea84afb3b18acb0a7,62bbfafcf532685b4bb55d9c,2022-06-29_09h11.13.344,Colour_Asymmetry_Pilot,2022.1.3,Win32,90.33423668,62bbe60bf3d75ef465d3e404,0,28,28,116,1,threeone,,,,,,,,,,,,,,,,,,,,,,,,,,,,,,,,,,,,,,,,,,,,,,,,,,,,,,,,,,,,,,,,,,,,,,,,,,,,,,,,,,,,,,,,,,,,,,,,,,,,,,,,,,,,,,,,,,,,,,,,,,,,,,,,,,,,,,,,,,,,,,,,,,,,,,,,
,,,,,,5faa7e3ea84afb3b18acb0a7,62bbfafcf532685b4bb55d9c,2022-06-29_09h11.13.344,Colour_Asymmetry_Pilot,2022.1.3,Win32,90.33423668,62bbe60bf3d75ef465d3e404,0,29,29,43,1,twofour,,,,,,,,,,,,,,,,,,,,,,,,,,,,,,,,,,,,,,,,,,,,,,,,,,,,,,,,,,,,,,,,,,,,,,,,,,,,,,,,,,,,,,,,,,,,,,,,,,,,,,,,,,,,,,,,,,,,,,,,,,,,,,,,,,,,,,,,,,,,,,,,,,,,,,,,
,,,,,,5faa7e3ea84afb3b18acb0a7,62bbfafcf532685b4bb55d9c,2022-06-29_09h11.13.344,Colour_Asymmetry_Pilot,2022.1.3,Win32,90.33423668,62bbe60bf3d75ef465d3e404,0,30,30,150,1,fourtwo,,,,,,,,,,,,,,,,,,,,,,,,,,,,,,,,,,,,,,,,,,,,,,,,,,,,,,,,,,,,,,,,,,,,,,,,,,,,,,,,,,,,,,,,,,,,,,,,,,,,,,,,,,,,,,,,,,,,,,,,,,,,,,,,,,,,,,,,,,,,,,,,,,,,,,,,
,,,,,,5faa7e3ea84afb3b18acb0a7,62bbfafcf532685b4bb55d9c,2022-06-29_09h11.13.344,Colour_Asymmetry_Pilot,2022.1.3,Win32,90.33423668,62bbe60bf3d75ef465d3e404,0,31,31,13,1,threefour,,,,,,,,,,,,,,,,,,,,,,,,,,,,,,,,,,,,,,,,,,,,,,,,,,,,,,,,,,,,,,,,,,,,,,,,,,,,,,,,,,,,,,,,,,,,,,,,,,,,,,,,,,,,,,,,,,,,,,,,,,,,,,,,,,,,,,,,,,,,,,,,,,,,,,,,
,,,,,,5faa7e3ea84afb3b18acb0a7,62bbfafcf532685b4bb55d9c,2022-06-29_09h11.13.344,Colour_Asymmetry_Pilot,2022.1.3,Win32,90.33423668,62bbe60bf3d75ef465d3e404,0,32,32,156,1,threeone,,,,,,,,,,,,,,,,,,,,,,,,,,,,,,,,,,,,,,,,,,,,,,,,,,,,,,,,,,,,,,,,,,,,,,,,,,,,,,,,,,,,,,,,,,,,,,,,,,,,,,,,,,,,,,,,,,,,,,,,,,,,,,,,,,,,,,,,,,,,,,,,,,,,,,,,
,,,,,,5faa7e3ea84afb3b18acb0a7,62bbfafcf532685b4bb55d9c,2022-06-29_09h11.13.344,Colour_Asymmetry_Pilot,2022.1.3,Win32,90.33423668,62bbe60bf3d75ef465d3e404,0,33,33,39,1,fourthree,,,,,,,,,,,,,,,,,,,,,,,,,,,,,,,,,,,,,,,,,,,,,,,,,,,,,,,,,,,,,,,,,,,,,,,,,,,,,,,,,,,,,,,,,,,,,,,,,,,,,,,,,,,,,,,,,,,,,,,,,,,,,,,,,,,,,,,,,,,,,,,,,,,,,,,,
,,,,,,5faa7e3ea84afb3b18acb0a7,62bbfafcf532685b4bb55d9c,2022-06-29_09h11.13.344,Colour_Asymmetry_Pilot,2022.1.3,Win32,90.33423668,62bbe60bf3d75ef465d3e404,0,34,34,132,1,threeone,,,,,,,,,,,,,,,,,,,,,,,,,,,,,,,,,,,,,,,,,,,,,,,,,,,,,,,,,,,,,,,,,,,,,,,,,,,,,,,,,,,,,,,,,,,,,,,,,,,,,,,,,,,,,,,,,,,,,,,,,,,,,,,,,,,,,,,,,,,,,,,,,,,,,,,,
,,,,,,5faa7e3ea84afb3b18acb0a7,62bbfafcf532685b4bb55d9c,2022-06-29_09h11.13.344,Colour_Asymmetry_Pilot,2022.1.3,Win32,90.33423668,62bbe60bf3d75ef465d3e404,0,35,35,0,1,onetwo,,,,,,,,,,,,,,,,,,,,,,,,,,,,,,,,,,,,,,,,,,,,,,,,,,,,,,,,,,,,,,,,,,,,,,,,,,,,,,,,,,,,,,,,,,,,,,,,,,,,,,,,,,,,,,,,,,,,,,,,,,,,,,,,,,,,,,,,,,,,,,,,,,,,,,,,
,,,,,,5faa7e3ea84afb3b18acb0a7,62bbfafcf532685b4bb55d9c,2022-06-29_09h11.13.344,Colour_Asymmetry_Pilot,2022.1.3,Win32,90.33423668,62bbe60bf3d75ef465d3e404,0,36,36,52,1,threeone,,,,,,,,,,,,,,,,,,,,,,,,,,,,,,,,,,,,,,,,,,,,,,,,,,,,,,,,,,,,,,,,,,,,,,,,,,,,,,,,,,,,,,,,,,,,,,,,,,,,,,,,,,,,,,,,,,,,,,,,,,,,,,,,,,,,,,,,,,,,,,,,,,,,,,,,
,,,,,,5faa7e3ea84afb3b18acb0a7,62bbfafcf532685b4bb55d9c,2022-06-29_09h11.13.344,Colour_Asymmetry_Pilot,2022.1.3,Win32,90.33423668,62bbe60bf3d75ef465d3e404,0,37,37,17,1,onethree,,,,,,,,,,,,,,,,,,,,,,,,,,,,,,,,,,,,,,,,,,,,,,,,,,,,,,,,,,,,,,,,,,,,,,,,,,,,,,,,,,,,,,,,,,,,,,,,,,,,,,,,,,,,,,,,,,,,,,,,,,,,,,,,,,,,,,,,,,,,,,,,,,,,,,,,
,,,,,,5faa7e3ea84afb3b18acb0a7,62bbfafcf532685b4bb55d9c,2022-06-29_09h11.13.344,Colour_Asymmetry_Pilot,2022.1.3,Win32,90.33423668,62bbe60bf3d75ef465d3e404,0,38,38,143,1,fourthree,,,,,,,,,,,,,,,,,,,,,,,,,,,,,,,,,,,,,,,,,,,,,,,,,,,,,,,,,,,,,,,,,,,,,,,,,,,,,,,,,,,,,,,,,,,,,,,,,,,,,,,,,,,,,,,,,,,,,,,,,,,,,,,,,,,,,,,,,,,,,,,,,,,,,,,,
,,,,,,5faa7e3ea84afb3b18acb0a7,62bbfafcf532685b4bb55d9c,2022-06-29_09h11.13.344,Colour_Asymmetry_Pilot,2022.1.3,Win32,90.33423668,62bbe60bf3d75ef465d3e404,0,39,39,32,1,onetwo,,,,,,,,,,,,,,,,,,,,,,,,,,,,,,,,,,,,,,,,,,,,,,,,,,,,,,,,,,,,,,,,,,,,,,,,,,,,,,,,,,,,,,,,,,,,,,,,,,,,,,,,,,,,,,,,,,,,,,,,,,,,,,,,,,,,,,,,,,,,,,,,,,,,,,,,
,,,,,,5faa7e3ea84afb3b18acb0a7,62bbfafcf532685b4bb55d9c,2022-06-29_09h11.13.344,Colour_Asymmetry_Pilot,2022.1.3,Win32,90.33423668,62bbe60bf3d75ef465d3e404,0,40,40,107,1,twofour,,,,,,,,,,,,,,,,,,,,,,,,,,,,,,,,,,,,,,,,,,,,,,,,,,,,,,,,,,,,,,,,,,,,,,,,,,,,,,,,,,,,,,,,,,,,,,,,,,,,,,,,,,,,,,,,,,,,,,,,,,,,,,,,,,,,,,,,,,,,,,,,,,,,,,,,
,,,,,,5faa7e3ea84afb3b18acb0a7,62bbfafcf532685b4bb55d9c,2022-06-29_09h11.13.344,Colour_Asymmetry_Pilot,2022.1.3,Win32,90.33423668,62bbe60bf3d75ef465d3e404,0,41,41,56,1,onetwo,,,,,,,,,,,,,,,,,,,,,,,,,,,,,,,,,,,,,,,,,,,,,,,,,,,,,,,,,,,,,,,,,,,,,,,,,,,,,,,,,,,,,,,,,,,,,,,,,,,,,,,,,,,,,,,,,,,,,,,,,,,,,,,,,,,,,,,,,,,,,,,,,,,,,,,,
,,,,,,5faa7e3ea84afb3b18acb0a7,62bbfafcf532685b4bb55d9c,2022-06-29_09h11.13.344,Colour_Asymmetry_Pilot,2022.1.3,Win32,90.33423668,62bbe60bf3d75ef465d3e404,0,42,42,87,1,fourthree,,,,,,,,,,,,,,,,,,,,,,,,,,,,,,,,,,,,,,,,,,,,,,,,,,,,,,,,,,,,,,,,,,,,,,,,,,,,,,,,,,,,,,,,,,,,,,,,,,,,,,,,,,,,,,,,,,,,,,,,,,,,,,,,,,,,,,,,,,,,,,,,,,,,,,,,
,,,,,,5faa7e3ea84afb3b18acb0a7,62bbfafcf532685b4bb55d9c,2022-06-29_09h11.13.344,Colour_Asymmetry_Pilot,2022.1.3,Win32,90.33423668,62bbe60bf3d75ef465d3e404,0,43,43,70,1,fourtwo,,,,,,,,,,,,,,,,,,,,,,,,,,,,,,,,,,,,,,,,,,,,,,,,,,,,,,,,,,,,,,,,,,,,,,,,,,,,,,,,,,,,,,,,,,,,,,,,,,,,,,,,,,,,,,,,,,,,,,,,,,,,,,,,,,,,,,,,,,,,,,,,,,,,,,,,
,,,,,,5faa7e3ea84afb3b18acb0a7,62bbfafcf532685b4bb55d9c,2022-06-29_09h11.13.344,Colour_Asymmetry_Pilot,2022.1.3,Win32,90.33423668,62bbe60bf3d75ef465d3e404,0,44,44,14,1,fourtwo,,,,,,,,,,,,,,,,,,,,,,,,,,,,,,,,,,,,,,,,,,,,,,,,,,,,,,,,,,,,,,,,,,,,,,,,,,,,,,,,,,,,,,,,,,,,,,,,,,,,,,,,,,,,,,,,,,,,,,,,,,,,,,,,,,,,,,,,,,,,,,,,,,,,,,,,
,,,,,,5faa7e3ea84afb3b18acb0a7,62bbfafcf532685b4bb55d9c,2022-06-29_09h11.13.344,Colour_Asymmetry_Pilot,2022.1.3,Win32,90.33423668,62bbe60bf3d75ef465d3e404,0,45,45,38,1,fourtwo,,,,,,,,,,,,,,,,,,,,,,,,,,,,,,,,,,,,,,,,,,,,,,,,,,,,,,,,,,,,,,,,,,,,,,,,,,,,,,,,,,,,,,,,,,,,,,,,,,,,,,,,,,,,,,,,,,,,,,,,,,,,,,,,,,,,,,,,,,,,,,,,,,,,,,,,
,,,,,,5faa7e3ea84afb3b18acb0a7,62bbfafcf532685b4bb55d9c,2022-06-29_09h11.13.344,Colour_Asymmetry_Pilot,2022.1.3,Win32,90.33423668,62bbe60bf3d75ef465d3e404,0,46,46,84,1,threeone,,,,,,,,,,,,,,,,,,,,,,,,,,,,,,,,,,,,,,,,,,,,,,,,,,,,,,,,,,,,,,,,,,,,,,,,,,,,,,,,,,,,,,,,,,,,,,,,,,,,,,,,,,,,,,,,,,,,,,,,,,,,,,,,,,,,,,,,,,,,,,,,,,,,,,,,
,,,,,,5faa7e3ea84afb3b18acb0a7,62bbfafcf532685b4bb55d9c,2022-06-29_09h11.13.344,Colour_Asymmetry_Pilot,2022.1.3,Win32,90.33423668,62bbe60bf3d75ef465d3e404,0,47,47,64,1,onetwo,,,,,,,,,,,,,,,,,,,,,,,,,,,,,,,,,,,,,,,,,,,,,,,,,,,,,,,,,,,,,,,,,,,,,,,,,,,,,,,,,,,,,,,,,,,,,,,,,,,,,,,,,,,,,,,,,,,,,,,,,,,,,,,,,,,,,,,,,,,,,,,,,,,,,,,,
,,,,,,5faa7e3ea84afb3b18acb0a7,62bbfafcf532685b4bb55d9c,2022-06-29_09h11.13.344,Colour_Asymmetry_Pilot,2022.1.3,Win32,90.33423668,62bbe60bf3d75ef465d3e404,0,48,48,95,1,fourthree,,,,,,,,,,,,,,,,,,,,,,,,,,,,,,,,,,,,,,,,,,,,,,,,,,,,,,,,,,,,,,,,,,,,,,,,,,,,,,,,,,,,,,,,,,,,,,,,,,,,,,,,,,,,,,,,,,,,,,,,,,,,,,,,,,,,,,,,,,,,,,,,,,,,,,,,
,,,,,,5faa7e3ea84afb3b18acb0a7,62bbfafcf532685b4bb55d9c,2022-06-29_09h11.13.344,Colour_Asymmetry_Pilot,2022.1.3,Win32,90.33423668,62bbe60bf3d75ef465d3e404,0,49,49,125,1,threefour,,,,,,,,,,,,,,,,,,,,,,,,,,,,,,,,,,,,,,,,,,,,,,,,,,,,,,,,,,,,,,,,,,,,,,,,,,,,,,,,,,,,,,,,,,,,,,,,,,,,,,,,,,,,,,,,,,,,,,,,,,,,,,,,,,,,,,,,,,,,,,,,,,,,,,,,
,,,,,,5faa7e3ea84afb3b18acb0a7,62bbfafcf532685b4bb55d9c,2022-06-29_09h11.13.344,Colour_Asymmetry_Pilot,2022.1.3,Win32,90.33423668,62bbe60bf3d75ef465d3e404,0,50,50,82,1,twoone,,,,,,,,,,,,,,,,,,,,,,,,,,,,,,,,,,,,,,,,,,,,,,,,,,,,,,,,,,,,,,,,,,,,,,,,,,,,,,,,,,,,,,,,,,,,,,,,,,,,,,,,,,,,,,,,,,,,,,,,,,,,,,,,,,,,,,,,,,,,,,,,,,,,,,,,
,,,,,,5faa7e3ea84afb3b18acb0a7,62bbfafcf532685b4bb55d9c,2022-06-29_09h11.13.344,Colour_Asymmetry_Pilot,2022.1.3,Win32,90.33423668,62bbe60bf3d75ef465d3e404,0,51,51,81,1,onethree,,,,,,,,,,,,,,,,,,,,,,,,,,,,,,,,,,,,,,,,,,,,,,,,,,,,,,,,,,,,,,,,,,,,,,,,,,,,,,,,,,,,,,,,,,,,,,,,,,,,,,,,,,,,,,,,,,,,,,,,,,,,,,,,,,,,,,,,,,,,,,,,,,,,,,,,
,,,,,,5faa7e3ea84afb3b18acb0a7,62bbfafcf532685b4bb55d9c,2022-06-29_09h11.13.344,Colour_Asymmetry_Pilot,2022.1.3,Win32,90.33423668,62bbe60bf3d75ef465d3e404,0,52,52,45,1,threefour,,,,,,,,,,,,,,,,,,,,,,,,,,,,,,,,,,,,,,,,,,,,,,,,,,,,,,,,,,,,,,,,,,,,,,,,,,,,,,,,,,,,,,,,,,,,,,,,,,,,,,,,,,,,,,,,,,,,,,,,,,,,,,,,,,,,,,,,,,,,,,,,,,,,,,,,
,,,,,,5faa7e3ea84afb3b18acb0a7,62bbfafcf532685b4bb55d9c,2022-06-29_09h11.13.344,Colour_Asymmetry_Pilot,2022.1.3,Win32,90.33423668,62bbe60bf3d75ef465d3e404,0,53,53,6,1,fourtwo,,,,,,,,,,,,,,,,,,,,,,,,,,,,,,,,,,,,,,,,,,,,,,,,,,,,,,,,,,,,,,,,,,,,,,,,,,,,,,,,,,,,,,,,,,,,,,,,,,,,,,,,,,,,,,,,,,,,,,,,,,,,,,,,,,,,,,,,,,,,,,,,,,,,,,,,
,,,,,,5faa7e3ea84afb3b18acb0a7,62bbfafcf532685b4bb55d9c,2022-06-29_09h11.13.344,Colour_Asymmetry_Pilot,2022.1.3,Win32,90.33423668,62bbe60bf3d75ef465d3e404,0,54,54,62,1,fourtwo,,,,,,,,,,,,,,,,,,,,,,,,,,,,,,,,,,,,,,,,,,,,,,,,,,,,,,,,,,,,,,,,,,,,,,,,,,,,,,,,,,,,,,,,,,,,,,,,,,,,,,,,,,,,,,,,,,,,,,,,,,,,,,,,,,,,,,,,,,,,,,,,,,,,,,,,
,,,,,,5faa7e3ea84afb3b18acb0a7,62bbfafcf532685b4bb55d9c,2022-06-29_09h11.13.344,Colour_Asymmetry_Pilot,2022.1.3,Win32,90.33423668,62bbe60bf3d75ef465d3e404,0,55,55,35,1,twofour,,,,,,,,,,,,,,,,,,,,,,,,,,,,,,,,,,,,,,,,,,,,,,,,,,,,,,,,,,,,,,,,,,,,,,,,,,,,,,,,,,,,,,,,,,,,,,,,,,,,,,,,,,,,,,,,,,,,,,,,,,,,,,,,,,,,,,,,,,,,,,,,,,,,,,,,
,,,,,,5faa7e3ea84afb3b18acb0a7,62bbfafcf532685b4bb55d9c,2022-06-29_09h11.13.344,Colour_Asymmetry_Pilot,2022.1.3,Win32,90.33423668,62bbe60bf3d75ef465d3e404,0,56,56,147,1,twofour,,,,,,,,,,,,,,,,,,,,,,,,,,,,,,,,,,,,,,,,,,,,,,,,,,,,,,,,,,,,,,,,,,,,,,,,,,,,,,,,,,,,,,,,,,,,,,,,,,,,,,,,,,,,,,,,,,,,,,,,,,,,,,,,,,,,,,,,,,,,,,,,,,,,,,,,
,,,,,,5faa7e3ea84afb3b18acb0a7,62bbfafcf532685b4bb55d9c,2022-06-29_09h11.13.344,Colour_Asymmetry_Pilot,2022.1.3,Win32,90.33423668,62bbe60bf3d75ef465d3e404,0,57,57,75,1,twofour,,,,,,,,,,,,,,,,,,,,,,,,,,,,,,,,,,,,,,,,,,,,,,,,,,,,,,,,,,,,,,,,,,,,,,,,,,,,,,,,,,,,,,,,,,,,,,,,,,,,,,,,,,,,,,,,,,,,,,,,,,,,,,,,,,,,,,,,,,,,,,,,,,,,,,,,
,,,,,,5faa7e3ea84afb3b18acb0a7,62bbfafcf532685b4bb55d9c,2022-06-29_09h11.13.344,Colour_Asymmetry_Pilot,2022.1.3,Win32,90.33423668,62bbe60bf3d75ef465d3e404,0,58,58,30,1,fourtwo,,,,,,,,,,,,,,,,,,,,,,,,,,,,,,,,,,,,,,,,,,,,,,,,,,,,,,,,,,,,,,,,,,,,,,,,,,,,,,,,,,,,,,,,,,,,,,,,,,,,,,,,,,,,,,,,,,,,,,,,,,,,,,,,,,,,,,,,,,,,,,,,,,,,,,,,
,,,,,,5faa7e3ea84afb3b18acb0a7,62bbfafcf532685b4bb55d9c,2022-06-29_09h11.13.344,Colour_Asymmetry_Pilot,2022.1.3,Win32,90.33423668,62bbe60bf3d75ef465d3e404,0,59,59,113,1,onethree,,,,,,,,,,,,,,,,,,,,,,,,,,,,,,,,,,,,,,,,,,,,,,,,,,,,,,,,,,,,,,,,,,,,,,,,,,,,,,,,,,,,,,,,,,,,,,,,,,,,,,,,,,,,,,,,,,,,,,,,,,,,,,,,,,,,,,,,,,,,,,,,,,,,,,,,
,,,,,,5faa7e3ea84afb3b18acb0a7,62bbfafcf532685b4bb55d9c,2022-06-29_09h11.13.344,Colour_Asymmetry_Pilot,2022.1.3,Win32,90.33423668,62bbe60bf3d75ef465d3e404,0,60,60,123,1,twofour,,,,,,,,,,,,,,,,,,,,,,,,,,,,,,,,,,,,,,,,,,,,,,,,,,,,,,,,,,,,,,,,,,,,,,,,,,,,,,,,,,,,,,,,,,,,,,,,,,,,,,,,,,,,,,,,,,,,,,,,,,,,,,,,,,,,,,,,,,,,,,,,,,,,,,,,
,,,,,,5faa7e3ea84afb3b18acb0a7,62bbfafcf532685b4bb55d9c,2022-06-29_09h11.13.344,Colour_Asymmetry_Pilot,2022.1.3,Win32,90.33423668,62bbe60bf3d75ef465d3e404,0,61,61,77,1,threefour,,,,,,,,,,,,,,,,,,,,,,,,,,,,,,,,,,,,,,,,,,,,,,,,,,,,,,,,,,,,,,,,,,,,,,,,,,,,,,,,,,,,,,,,,,,,,,,,,,,,,,,,,,,,,,,,,,,,,,,,,,,,,,,,,,,,,,,,,,,,,,,,,,,,,,,,
,,,,,,5faa7e3ea84afb3b18acb0a7,62bbfafcf532685b4bb55d9c,2022-06-29_09h11.13.344,Colour_Asymmetry_Pilot,2022.1.3,Win32,90.33423668,62bbe60bf3d75ef465d3e404,0,62,62,112,1,onetwo,,,,,,,,,,,,,,,,,,,,,,,,,,,,,,,,,,,,,,,,,,,,,,,,,,,,,,,,,,,,,,,,,,,,,,,,,,,,,,,,,,,,,,,,,,,,,,,,,,,,,,,,,,,,,,,,,,,,,,,,,,,,,,,,,,,,,,,,,,,,,,,,,,,,,,,,
,,,,,,5faa7e3ea84afb3b18acb0a7,62bbfafcf532685b4bb55d9c,2022-06-29_09h11.13.344,Colour_Asymmetry_Pilot,2022.1.3,Win32,90.33423668,62bbe60bf3d75ef465d3e404,0,63,63,4,1,threeone,,,,,,,,,,,,,,,,,,,,,,,,,,,,,,,,,,,,,,,,,,,,,,,,,,,,,,,,,,,,,,,,,,,,,,,,,,,,,,,,,,,,,,,,,,,,,,,,,,,,,,,,,,,,,,,,,,,,,,,,,,,,,,,,,,,,,,,,,,,,,,,,,,,,,,,,
,,,,,,5faa7e3ea84afb3b18acb0a7,62bbfafcf532685b4bb55d9c,2022-06-29_09h11.13.344,Colour_Asymmetry_Pilot,2022.1.3,Win32,90.33423668,62bbe60bf3d75ef465d3e404,0,64,64,31,1,fourthree,,,,,,,,,,,,,,,,,,,,,,,,,,,,,,,,,,,,,,,,,,,,,,,,,,,,,,,,,,,,,,,,,,,,,,,,,,,,,,,,,,,,,,,,,,,,,,,,,,,,,,,,,,,,,,,,,,,,,,,,,,,,,,,,,,,,,,,,,,,,,,,,,,,,,,,,
,,,,,,5faa7e3ea84afb3b18acb0a7,62bbfafcf532685b4bb55d9c,2022-06-29_09h11.13.344,Colour_Asymmetry_Pilot,2022.1.3,Win32,90.33423668,62bbe60bf3d75ef465d3e404,0,65,65,102,1,fourtwo,,,,,,,,,,,,,,,,,,,,,,,,,,,,,,,,,,,,,,,,,,,,,,,,,,,,,,,,,,,,,,,,,,,,,,,,,,,,,,,,,,,,,,,,,,,,,,,,,,,,,,,,,,,,,,,,,,,,,,,,,,,,,,,,,,,,,,,,,,,,,,,,,,,,,,,,
,,,,,,5faa7e3ea84afb3b18acb0a7,62bbfafcf532685b4bb55d9c,2022-06-29_09h11.13.344,Colour_Asymmetry_Pilot,2022.1.3,Win32,90.33423668,62bbe60bf3d75ef465d3e404,0,66,66,144,1,onetwo,,,,,,,,,,,,,,,,,,,,,,,,,,,,,,,,,,,,,,,,,,,,,,,,,,,,,,,,,,,,,,,,,,,,,,,,,,,,,,,,,,,,,,,,,,,,,,,,,,,,,,,,,,,,,,,,,,,,,,,,,,,,,,,,,,,,,,,,,,,,,,,,,,,,,,,,
,,,,,,5faa7e3ea84afb3b18acb0a7,62bbfafcf532685b4bb55d9c,2022-06-29_09h11.13.344,Colour_Asymmetry_Pilot,2022.1.3,Win32,90.33423668,62bbe60bf3d75ef465d3e404,0,67,67,158,1,fourtwo,,,,,,,,,,,,,,,,,,,,,,,,,,,,,,,,,,,,,,,,,,,,,,,,,,,,,,,,,,,,,,,,,,,,,,,,,,,,,,,,,,,,,,,,,,,,,,,,,,,,,,,,,,,,,,,,,,,,,,,,,,,,,,,,,,,,,,,,,,,,,,,,,,,,,,,,
,,,,,,5faa7e3ea84afb3b18acb0a7,62bbfafcf532685b4bb55d9c,2022-06-29_09h11.13.344,Colour_Asymmetry_Pilot,2022.1.3,Win32,90.33423668,62bbe60bf3d75ef465d3e404,0,68,68,78,1,fourtwo,,,,,,,,,,,,,,,,,,,,,,,,,,,,,,,,,,,,,,,,,,,,,,,,,,,,,,,,,,,,,,,,,,,,,,,,,,,,,,,,,,,,,,,,,,,,,,,,,,,,,,,,,,,,,,,,,,,,,,,,,,,,,,,,,,,,,,,,,,,,,,,,,,,,,,,,
,,,,,,5faa7e3ea84afb3b18acb0a7,62bbfafcf532685b4bb55d9c,2022-06-29_09h11.13.344,Colour_Asymmetry_Pilot,2022.1.3,Win32,90.33423668,62bbe60bf3d75ef465d3e404,0,69,69,46,1,fourtwo,,,,,,,,,,,,,,,,,,,,,,,,,,,,,,,,,,,,,,,,,,,,,,,,,,,,,,,,,,,,,,,,,,,,,,,,,,,,,,,,,,,,,,,,,,,,,,,,,,,,,,,,,,,,,,,,,,,,,,,,,,,,,,,,,,,,,,,,,,,,,,,,,,,,,,,,
,,,,,,5faa7e3ea84afb3b18acb0a7,62bbfafcf532685b4bb55d9c,2022-06-29_09h11.13.344,Colour_Asymmetry_Pilot,2022.1.3,Win32,90.33423668,62bbe60bf3d75ef465d3e404,0,70,70,155,1,twofour,,,,,,,,,,,,,,,,,,,,,,,,,,,,,,,,,,,,,,,,,,,,,,,,,,,,,,,,,,,,,,,,,,,,,,,,,,,,,,,,,,,,,,,,,,,,,,,,,,,,,,,,,,,,,,,,,,,,,,,,,,,,,,,,,,,,,,,,,,,,,,,,,,,,,,,,
,,,,,,5faa7e3ea84afb3b18acb0a7,62bbfafcf532685b4bb55d9c,2022-06-29_09h11.13.344,Colour_Asymmetry_Pilot,2022.1.3,Win32,90.33423668,62bbe60bf3d75ef465d3e404,0,71,71,104,1,onetwo,,,,,,,,,,,,,,,,,,,,,,,,,,,,,,,,,,,,,,,,,,,,,,,,,,,,,,,,,,,,,,,,,,,,,,,,,,,,,,,,,,,,,,,,,,,,,,,,,,,,,,,,,,,,,,,,,,,,,,,,,,,,,,,,,,,,,,,,,,,,,,,,,,,,,,,,
,,,,,,5faa7e3ea84afb3b18acb0a7,62bbfafcf532685b4bb55d9c,2022-06-29_09h11.13.344,Colour_Asymmetry_Pilot,2022.1.3,Win32,90.33423668,62bbe60bf3d75ef465d3e404,0,72,72,140,1,threeone,,,,,,,,,,,,,,,,,,,,,,,,,,,,,,,,,,,,,,,,,,,,,,,,,,,,,,,,,,,,,,,,,,,,,,,,,,,,,,,,,,,,,,,,,,,,,,,,,,,,,,,,,,,,,,,,,,,,,,,,,,,,,,,,,,,,,,,,,,,,,,,,,,,,,,,,
,,,,,,5faa7e3ea84afb3b18acb0a7,62bbfafcf532685b4bb55d9c,2022-06-29_09h11.13.344,Colour_Asymmetry_Pilot,2022.1.3,Win32,90.33423668,62bbe60bf3d75ef465d3e404,0,73,73,50,1,twoone,,,,,,,,,,,,,,,,,,,,,,,,,,,,,,,,,,,,,,,,,,,,,,,,,,,,,,,,,,,,,,,,,,,,,,,,,,,,,,,,,,,,,,,,,,,,,,,,,,,,,,,,,,,,,,,,,,,,,,,,,,,,,,,,,,,,,,,,,,,,,,,,,,,,,,,,
,,,,,,5faa7e3ea84afb3b18acb0a7,62bbfafcf532685b4bb55d9c,2022-06-29_09h11.13.344,Colour_Asymmetry_Pilot,2022.1.3,Win32,90.33423668,62bbe60bf3d75ef465d3e404,0,74,74,61,1,threefour,,,,,,,,,,,,,,,,,,,,,,,,,,,,,,,,,,,,,,,,,,,,,,,,,,,,,,,,,,,,,,,,,,,,,,,,,,,,,,,,,,,,,,,,,,,,,,,,,,,,,,,,,,,,,,,,,,,,,,,,,,,,,,,,,,,,,,,,,,,,,,,,,,,,,,,,
,,,,,,5faa7e3ea84afb3b18acb0a7,62bbfafcf532685b4bb55d9c,2022-06-29_09h11.13.344,Colour_Asymmetry_Pilot,2022.1.3,Win32,90.33423668,62bbe60bf3d75ef465d3e404,0,75,75,131,1,twofour,,,,,,,,,,,,,,,,,,,,,,,,,,,,,,,,,,,,,,,,,,,,,,,,,,,,,,,,,,,,,,,,,,,,,,,,,,,,,,,,,,,,,,,,,,,,,,,,,,,,,,,,,,,,,,,,,,,,,,,,,,,,,,,,,,,,,,,,,,,,,,,,,,,,,,,,
,,,,,,5faa7e3ea84afb3b18acb0a7,62bbfafcf532685b4bb55d9c,2022-06-29_09h11.13.344,Colour_Asymmetry_Pilot,2022.1.3,Win32,90.33423668,62bbe60bf3d75ef465d3e404,0,76,76,15,1,fourthree,,,,,,,,,,,,,,,,,,,,,,,,,,,,,,,,,,,,,,,,,,,,,,,,,,,,,,,,,,,,,,,,,,,,,,,,,,,,,,,,,,,,,,,,,,,,,,,,,,,,,,,,,,,,,,,,,,,,,,,,,,,,,,,,,,,,,,,,,,,,,,,,,,,,,,,,
,,,,,,5faa7e3ea84afb3b18acb0a7,62bbfafcf532685b4bb55d9c,2022-06-29_09h11.13.344,Colour_Asymmetry_Pilot,2022.1.3,Win32,90.33423668,62bbe60bf3d75ef465d3e404,0,77,77,5,1,threefour,,,,,,,,,,,,,,,,,,,,,,,,,,,,,,,,,,,,,,,,,,,,,,,,,,,,,,,,,,,,,,,,,,,,,,,,,,,,,,,,,,,,,,,,,,,,,,,,,,,,,,,,,,,,,,,,,,,,,,,,,,,,,,,,,,,,,,,,,,,,,,,,,,,,,,,,
,,,,,,5faa7e3ea84afb3b18acb0a7,62bbfafcf532685b4bb55d9c,2022-06-29_09h11.13.344,Colour_Asymmetry_Pilot,2022.1.3,Win32,90.33423668,62bbe60bf3d75ef465d3e404,0,78,78,159,1,fourthree,,,,,,,,,,,,,,,,,,,,,,,,,,,,,,,,,,,,,,,,,,,,,,,,,,,,,,,,,,,,,,,,,,,,,,,,,,,,,,,,,,,,,,,,,,,,,,,,,,,,,,,,,,,,,,,,,,,,,,,,,,,,,,,,,,,,,,,,,,,,,,,,,,,,,,,,
,,,,,,5faa7e3ea84afb3b18acb0a7,62bbfafcf532685b4bb55d9c,2022-06-29_09h11.13.344,Colour_Asymmetry_Pilot,2022.1.3,Win32,90.33423668,62bbe60bf3d75ef465d3e404,0,79,79,73,1,onethree,,,,,,,,,,,,,,,,,,,,,,,,,,,,,,,,,,,,,,,,,,,,,,,,,,,,,,,,,,,,,,,,,,,,,,,,,,,,,,,,,,,,,,,,,,,,,,,,,,,,,,,,,,,,,,,,,,,,,,,,,,,,,,,,,,,,,,,,,,,,,,,,,,,,,,,,
,,,,,,5faa7e3ea84afb3b18acb0a7,62bbfafcf532685b4bb55d9c,2022-06-29_09h11.13.344,Colour_Asymmetry_Pilot,2022.1.3,Win32,90.33423668,62bbe60bf3d75ef465d3e404,0,80,80,157,1,threefour,,,,,,,,,,,,,,,,,,,,,,,,,,,,,,,,,,,,,,,,,,,,,,,,,,,,,,,,,,,,,,,,,,,,,,,,,,,,,,,,,,,,,,,,,,,,,,,,,,,,,,,,,,,,,,,,,,,,,,,,,,,,,,,,,,,,,,,,,,,,,,,,,,,,,,,,
,,,,,,5faa7e3ea84afb3b18acb0a7,62bbfafcf532685b4bb55d9c,2022-06-29_09h11.13.344,Colour_Asymmetry_Pilot,2022.1.3,Win32,90.33423668,62bbe60bf3d75ef465d3e404,0,81,81,160,1,onetwo,,,,,,,,,,,,,,,,,,,,,,,,,,,,,,,,,,,,,,,,,,,,,,,,,,,,,,,,,,,,,,,,,,,,,,,,,,,,,,,,,,,,,,,,,,,,,,,,,,,,,,,,,,,,,,,,,,,,,,,,,,,,,,,,,,,,,,,,,,,,,,,,,,,,,,,,
,,,,,,5faa7e3ea84afb3b18acb0a7,62bbfafcf532685b4bb55d9c,2022-06-29_09h11.13.344,Colour_Asymmetry_Pilot,2022.1.3,Win32,90.33423668,62bbe60bf3d75ef465d3e404,0,82,82,94,1,fourtwo,,,,,,,,,,,,,,,,,,,,,,,,,,,,,,,,,,,,,,,,,,,,,,,,,,,,,,,,,,,,,,,,,,,,,,,,,,,,,,,,,,,,,,,,,,,,,,,,,,,,,,,,,,,,,,,,,,,,,,,,,,,,,,,,,,,,,,,,,,,,,,,,,,,,,,,,
,,,,,,5faa7e3ea84afb3b18acb0a7,62bbfafcf532685b4bb55d9c,2022-06-29_09h11.13.344,Colour_Asymmetry_Pilot,2022.1.3,Win32,90.33423668,62bbe60bf3d75ef465d3e404,0,83,83,8,1,onetwo,,,,,,,,,,,,,,,,,,,,,,,,,,,,,,,,,,,,,,,,,,,,,,,,,,,,,,,,,,,,,,,,,,,,,,,,,,,,,,,,,,,,,,,,,,,,,,,,,,,,,,,,,,,,,,,,,,,,,,,,,,,,,,,,,,,,,,,,,,,,,,,,,,,,,,,,
,,,,,,5faa7e3ea84afb3b18acb0a7,62bbfafcf532685b4bb55d9c,2022-06-29_09h11.13.344,Colour_Asymmetry_Pilot,2022.1.3,Win32,90.33423668,62bbe60bf3d75ef465d3e404,0,84,84,29,1,threefour,,,,,,,,,,,,,,,,,,,,,,,,,,,,,,,,,,,,,,,,,,,,,,,,,,,,,,,,,,,,,,,,,,,,,,,,,,,,,,,,,,,,,,,,,,,,,,,,,,,,,,,,,,,,,,,,,,,,,,,,,,,,,,,,,,,,,,,,,,,,,,,,,,,,,,,,
,,,,,,5faa7e3ea84afb3b18acb0a7,62bbfafcf532685b4bb55d9c,2022-06-29_09h11.13.344,Colour_Asymmetry_Pilot,2022.1.3,Win32,90.33423668,62bbe60bf3d75ef465d3e404,0,85,85,9,1,onethree,,,,,,,,,,,,,,,,,,,,,,,,,,,,,,,,,,,,,,,,,,,,,,,,,,,,,,,,,,,,,,,,,,,,,,,,,,,,,,,,,,,,,,,,,,,,,,,,,,,,,,,,,,,,,,,,,,,,,,,,,,,,,,,,,,,,,,,,,,,,,,,,,,,,,,,,
,,,,,,5faa7e3ea84afb3b18acb0a7,62bbfafcf532685b4bb55d9c,2022-06-29_09h11.13.344,Colour_Asymmetry_Pilot,2022.1.3,Win32,90.33423668,62bbe60bf3d75ef465d3e404,0,86,86,127,1,fourthree,,,,,,,,,,,,,,,,,,,,,,,,,,,,,,,,,,,,,,,,,,,,,,,,,,,,,,,,,,,,,,,,,,,,,,,,,,,,,,,,,,,,,,,,,,,,,,,,,,,,,,,,,,,,,,,,,,,,,,,,,,,,,,,,,,,,,,,,,,,,,,,,,,,,,,,,
,,,,,,5faa7e3ea84afb3b18acb0a7,62bbfafcf532685b4bb55d9c,2022-06-29_09h11.13.344,Colour_Asymmetry_Pilot,2022.1.3,Win32,90.33423668,62bbe60bf3d75ef465d3e404,0,87,87,89,1,onethree,,,,,,,,,,,,,,,,,,,,,,,,,,,,,,,,,,,,,,,,,,,,,,,,,,,,,,,,,,,,,,,,,,,,,,,,,,,,,,,,,,,,,,,,,,,,,,,,,,,,,,,,,,,,,,,,,,,,,,,,,,,,,,,,,,,,,,,,,,,,,,,,,,,,,,,,
,,,,,,5faa7e3ea84afb3b18acb0a7,62bbfafcf532685b4bb55d9c,2022-06-29_09h11.13.344,Colour_Asymmetry_Pilot,2022.1.3,Win32,90.33423668,62bbe60bf3d75ef465d3e404,0,88,88,151,1,fourthree,,,,,,,,,,,,,,,,,,,,,,,,,,,,,,,,,,,,,,,,,,,,,,,,,,,,,,,,,,,,,,,,,,,,,,,,,,,,,,,,,,,,,,,,,,,,,,,,,,,,,,,,,,,,,,,,,,,,,,,,,,,,,,,,,,,,,,,,,,,,,,,,,,,,,,,,
,,,,,,5faa7e3ea84afb3b18acb0a7,62bbfafcf532685b4bb55d9c,2022-06-29_09h11.13.344,Colour_Asymmetry_Pilot,2022.1.3,Win32,90.33423668,62bbe60bf3d75ef465d3e404,0,89,89,130,1,twoone,,,,,,,,,,,,,,,,,,,,,,,,,,,,,,,,,,,,,,,,,,,,,,,,,,,,,,,,,,,,,,,,,,,,,,,,,,,,,,,,,,,,,,,,,,,,,,,,,,,,,,,,,,,,,,,,,,,,,,,,,,,,,,,,,,,,,,,,,,,,,,,,,,,,,,,,
,,,,,,5faa7e3ea84afb3b18acb0a7,62bbfafcf532685b4bb55d9c,2022-06-29_09h11.13.344,Colour_Asymmetry_Pilot,2022.1.3,Win32,90.33423668,62bbe60bf3d75ef465d3e404,0,90,90,48,1,onetwo,,,,,,,,,,,,,,,,,,,,,,,,,,,,,,,,,,,,,,,,,,,,,,,,,,,,,,,,,,,,,,,,,,,,,,,,,,,,,,,,,,,,,,,,,,,,,,,,,,,,,,,,,,,,,,,,,,,,,,,,,,,,,,,,,,,,,,,,,,,,,,,,,,,,,,,,
,,,,,,5faa7e3ea84afb3b18acb0a7,62bbfafcf532685b4bb55d9c,2022-06-29_09h11.13.344,Colour_Asymmetry_Pilot,2022.1.3,Win32,90.33423668,62bbe60bf3d75ef465d3e404,0,91,91,161,1,onethree,,,,,,,,,,,,,,,,,,,,,,,,,,,,,,,,,,,,,,,,,,,,,,,,,,,,,,,,,,,,,,,,,,,,,,,,,,,,,,,,,,,,,,,,,,,,,,,,,,,,,,,,,,,,,,,,,,,,,,,,,,,,,,,,,,,,,,,,,,,,,,,,,,,,,,,,
,,,,,,5faa7e3ea84afb3b18acb0a7,62bbfafcf532685b4bb55d9c,2022-06-29_09h11.13.344,Colour_Asymmetry_Pilot,2022.1.3,Win32,90.33423668,62bbe60bf3d75ef465d3e404,0,92,92,65,1,onethree,,,,,,,,,,,,,,,,,,,,,,,,,,,,,,,,,,,,,,,,,,,,,,,,,,,,,,,,,,,,,,,,,,,,,,,,,,,,,,,,,,,,,,,,,,,,,,,,,,,,,,,,,,,,,,,,,,,,,,,,,,,,,,,,,,,,,,,,,,,,,,,,,,,,,,,,
,,,,,,5faa7e3ea84afb3b18acb0a7,62bbfafcf532685b4bb55d9c,2022-06-29_09h11.13.344,Colour_Asymmetry_Pilot,2022.1.3,Win32,90.33423668,62bbe60bf3d75ef465d3e404,0,93,93,138,1,twoone,,,,,,,,,,,,,,,,,,,,,,,,,,,,,,,,,,,,,,,,,,,,,,,,,,,,,,,,,,,,,,,,,,,,,,,,,,,,,,,,,,,,,,,,,,,,,,,,,,,,,,,,,,,,,,,,,,,,,,,,,,,,,,,,,,,,,,,,,,,,,,,,,,,,,,,,
,,,,,,5faa7e3ea84afb3b18acb0a7,62bbfafcf532685b4bb55d9c,2022-06-29_09h11.13.344,Colour_Asymmetry_Pilot,2022.1.3,Win32,90.33423668,62bbe60bf3d75ef465d3e404,0,94,94,114,1,twoone,,,,,,,,,,,,,,,,,,,,,,,,,,,,,,,,,,,,,,,,,,,,,,,,,,,,,,,,,,,,,,,,,,,,,,,,,,,,,,,,,,,,,,,,,,,,,,,,,,,,,,,,,,,,,,,,,,,,,,,,,,,,,,,,,,,,,,,,,,,,,,,,,,,,,,,,
,,,,,,5faa7e3ea84afb3b18acb0a7,62bbfafcf532685b4bb55d9c,2022-06-29_09h11.13.344,Colour_Asymmetry_Pilot,2022.1.3,Win32,90.33423668,62bbe60bf3d75ef465d3e404,0,95,95,124,1,threeone,,,,,,,,,,,,,,,,,,,,,,,,,,,,,,,,,,,,,,,,,,,,,,,,,,,,,,,,,,,,,,,,,,,,,,,,,,,,,,,,,,,,,,,,,,,,,,,,,,,,,,,,,,,,,,,,,,,,,,,,,,,,,,,,,,,,,,,,,,,,,,,,,,,,,,,,
,,,,,,5faa7e3ea84afb3b18acb0a7,62bbfafcf532685b4bb55d9c,2022-06-29_09h11.13.344,Colour_Asymmetry_Pilot,2022.1.3,Win32,90.33423668,62bbe60bf3d75ef465d3e404,0,96,96,36,1,threeone,,,,,,,,,,,,,,,,,,,,,,,,,,,,,,,,,,,,,,,,,,,,,,,,,,,,,,,,,,,,,,,,,,,,,,,,,,,,,,,,,,,,,,,,,,,,,,,,,,,,,,,,,,,,,,,,,,,,,,,,,,,,,,,,,,,,,,,,,,,,,,,,,,,,,,,,
,,,,,,5faa7e3ea84afb3b18acb0a7,62bbfafcf532685b4bb55d9c,2022-06-29_09h11.13.344,Colour_Asymmetry_Pilot,2022.1.3,Win32,90.33423668,62bbe60bf3d75ef465d3e404,0,97,97,142,1,fourtwo,,,,,,,,,,,,,,,,,,,,,,,,,,,,,,,,,,,,,,,,,,,,,,,,,,,,,,,,,,,,,,,,,,,,,,,,,,,,,,,,,,,,,,,,,,,,,,,,,,,,,,,,,,,,,,,,,,,,,,,,,,,,,,,,,,,,,,,,,,,,,,,,,,,,,,,,
,,,,,,5faa7e3ea84afb3b18acb0a7,62bbfafcf532685b4bb55d9c,2022-06-29_09h11.13.344,Colour_Asymmetry_Pilot,2022.1.3,Win32,90.33423668,62bbe60bf3d75ef465d3e404,0,98,98,135,1,fourthree,,,,,,,,,,,,,,,,,,,,,,,,,,,,,,,,,,,,,,,,,,,,,,,,,,,,,,,,,,,,,,,,,,,,,,,,,,,,,,,,,,,,,,,,,,,,,,,,,,,,,,,,,,,,,,,,,,,,,,,,,,,,,,,,,,,,,,,,,,,,,,,,,,,,,,,,
,,,,,,5faa7e3ea84afb3b18acb0a7,62bbfafcf532685b4bb55d9c,2022-06-29_09h11.13.344,Colour_Asymmetry_Pilot,2022.1.3,Win32,90.33423668,62bbe60bf3d75ef465d3e404,0,99,99,47,1,fourthree,,,,,,,,,,,,,,,,,,,,,,,,,,,,,,,,,,,,,,,,,,,,,,,,,,,,,,,,,,,,,,,,,,,,,,,,,,,,,,,,,,,,,,,,,,,,,,,,,,,,,,,,,,,,,,,,,,,,,,,,,,,,,,,,,,,,,,,,,,,,,,,,,,,,,,,,
,,,,,,5faa7e3ea84afb3b18acb0a7,62bbfafcf532685b4bb55d9c,2022-06-29_09h11.13.344,Colour_Asymmetry_Pilot,2022.1.3,Win32,90.33423668,62bbe60bf3d75ef465d3e404,0,100,100,49,1,onethree,,,,,,,,,,,,,,,,,,,,,,,,,,,,,,,,,,,,,,,,,,,,,,,,,,,,,,,,,,,,,,,,,,,,,,,,,,,,,,,,,,,,,,,,,,,,,,,,,,,,,,,,,,,,,,,,,,,,,,,,,,,,,,,,,,,,,,,,,,,,,,,,,,,,,,,,
,,,,,,5faa7e3ea84afb3b18acb0a7,62bbfafcf532685b4bb55d9c,2022-06-29_09h11.13.344,Colour_Asymmetry_Pilot,2022.1.3,Win32,90.33423668,62bbe60bf3d75ef465d3e404,0,101,101,128,1,onetwo,,,,,,,,,,,,,,,,,,,,,,,,,,,,,,,,,,,,,,,,,,,,,,,,,,,,,,,,,,,,,,,,,,,,,,,,,,,,,,,,,,,,,,,,,,,,,,,,,,,,,,,,,,,,,,,,,,,,,,,,,,,,,,,,,,,,,,,,,,,,,,,,,,,,,,,,
,,,,,,5faa7e3ea84afb3b18acb0a7,62bbfafcf532685b4bb55d9c,2022-06-29_09h11.13.344,Colour_Asymmetry_Pilot,2022.1.3,Win32,90.33423668,62bbe60bf3d75ef465d3e404,0,102,102,134,1,fourtwo,,,,,,,,,,,,,,,,,,,,,,,,,,,,,,,,,,,,,,,,,,,,,,,,,,,,,,,,,,,,,,,,,,,,,,,,,,,,,,,,,,,,,,,,,,,,,,,,,,,,,,,,,,,,,,,,,,,,,,,,,,,,,,,,,,,,,,,,,,,,,,,,,,,,,,,,
,,,,,,5faa7e3ea84afb3b18acb0a7,62bbfafcf532685b4bb55d9c,2022-06-29_09h11.13.344,Colour_Asymmetry_Pilot,2022.1.3,Win32,90.33423668,62bbe60bf3d75ef465d3e404,0,103,103,53,1,threefour,,,,,,,,,,,,,,,,,,,,,,,,,,,,,,,,,,,,,,,,,,,,,,,,,,,,,,,,,,,,,,,,,,,,,,,,,,,,,,,,,,,,,,,,,,,,,,,,,,,,,,,,,,,,,,,,,,,,,,,,,,,,,,,,,,,,,,,,,,,,,,,,,,,,,,,,
,,,,,,5faa7e3ea84afb3b18acb0a7,62bbfafcf532685b4bb55d9c,2022-06-29_09h11.13.344,Colour_Asymmetry_Pilot,2022.1.3,Win32,90.33423668,62bbe60bf3d75ef465d3e404,0,104,104,27,1,twofour,,,,,,,,,,,,,,,,,,,,,,,,,,,,,,,,,,,,,,,,,,,,,,,,,,,,,,,,,,,,,,,,,,,,,,,,,,,,,,,,,,,,,,,,,,,,,,,,,,,,,,,,,,,,,,,,,,,,,,,,,,,,,,,,,,,,,,,,,,,,,,,,,,,,,,,,
,,,,,,5faa7e3ea84afb3b18acb0a7,62bbfafcf532685b4bb55d9c,2022-06-29_09h11.13.344,Colour_Asymmetry_Pilot,2022.1.3,Win32,90.33423668,62bbe60bf3d75ef465d3e404,0,105,105,20,1,threeone,,,,,,,,,,,,,,,,,,,,,,,,,,,,,,,,,,,,,,,,,,,,,,,,,,,,,,,,,,,,,,,,,,,,,,,,,,,,,,,,,,,,,,,,,,,,,,,,,,,,,,,,,,,,,,,,,,,,,,,,,,,,,,,,,,,,,,,,,,,,,,,,,,,,,,,,
,,,,,,5faa7e3ea84afb3b18acb0a7,62bbfafcf532685b4bb55d9c,2022-06-29_09h11.13.344,Colour_Asymmetry_Pilot,2022.1.3,Win32,90.33423668,62bbe60bf3d75ef465d3e404,0,106,106,101,1,threefour,,,,,,,,,,,,,,,,,,,,,,,,,,,,,,,,,,,,,,,,,,,,,,,,,,,,,,,,,,,,,,,,,,,,,,,,,,,,,,,,,,,,,,,,,,,,,,,,,,,,,,,,,,,,,,,,,,,,,,,,,,,,,,,,,,,,,,,,,,,,,,,,,,,,,,,,
,,,,,,5faa7e3ea84afb3b18acb0a7,62bbfafcf532685b4bb55d9c,2022-06-29_09h11.13.344,Colour_Asymmetry_Pilot,2022.1.3,Win32,90.33423668,62bbe60bf3d75ef465d3e404,0,107,107,51,1,twofour,,,,,,,,,,,,,,,,,,,,,,,,,,,,,,,,,,,,,,,,,,,,,,,,,,,,,,,,,,,,,,,,,,,,,,,,,,,,,,,,,,,,,,,,,,,,,,,,,,,,,,,,,,,,,,,,,,,,,,,,,,,,,,,,,,,,,,,,,,,,,,,,,,,,,,,,
,,,,,,5faa7e3ea84afb3b18acb0a7,62bbfafcf532685b4bb55d9c,2022-06-29_09h11.13.344,Colour_Asymmetry_Pilot,2022.1.3,Win32,90.33423668,62bbe60bf3d75ef465d3e404,0,108,108,120,1,onetwo,,,,,,,,,,,,,,,,,,,,,,,,,,,,,,,,,,,,,,,,,,,,,,,,,,,,,,,,,,,,,,,,,,,,,,,,,,,,,,,,,,,,,,,,,,,,,,,,,,,,,,,,,,,,,,,,,,,,,,,,,,,,,,,,,,,,,,,,,,,,,,,,,,,,,,,,
,,,,,,5faa7e3ea84afb3b18acb0a7,62bbfafcf532685b4bb55d9c,2022-06-29_09h11.13.344,Colour_Asymmetry_Pilot,2022.1.3,Win32,90.33423668,62bbe60bf3d75ef465d3e404,0,109,109,106,1,twoone,,,,,,,,,,,,,,,,,,,,,,,,,,,,,,,,,,,,,,,,,,,,,,,,,,,,,,,,,,,,,,,,,,,,,,,,,,,,,,,,,,,,,,,,,,,,,,,,,,,,,,,,,,,,,,,,,,,,,,,,,,,,,,,,,,,,,,,,,,,,,,,,,,,,,,,,
,,,,,,5faa7e3ea84afb3b18acb0a7,62bbfafcf532685b4bb55d9c,2022-06-29_09h11.13.344,Colour_Asymmetry_Pilot,2022.1.3,Win32,90.33423668,62bbe60bf3d75ef465d3e404,0,110,110,42,1,twoone,,,,,,,,,,,,,,,,,,,,,,,,,,,,,,,,,,,,,,,,,,,,,,,,,,,,,,,,,,,,,,,,,,,,,,,,,,,,,,,,,,,,,,,,,,,,,,,,,,,,,,,,,,,,,,,,,,,,,,,,,,,,,,,,,,,,,,,,,,,,,,,,,,,,,,,,
,,,,,,5faa7e3ea84afb3b18acb0a7,62bbfafcf532685b4bb55d9c,2022-06-29_09h11.13.344,Colour_Asymmetry_Pilot,2022.1.3,Win32,90.33423668,62bbe60bf3d75ef465d3e404,0,111,111,76,1,threeone,,,,,,,,,,,,,,,,,,,,,,,,,,,,,,,,,,,,,,,,,,,,,,,,,,,,,,,,,,,,,,,,,,,,,,,,,,,,,,,,,,,,,,,,,,,,,,,,,,,,,,,,,,,,,,,,,,,,,,,,,,,,,,,,,,,,,,,,,,,,,,,,,,,,,,,,
,,,,,,5faa7e3ea84afb3b18acb0a7,62bbfafcf532685b4bb55d9c,2022-06-29_09h11.13.344,Colour_Asymmetry_Pilot,2022.1.3,Win32,90.33423668,62bbe60bf3d75ef465d3e404,0,112,112,11,1,twofour,,,,,,,,,,,,,,,,,,,,,,,,,,,,,,,,,,,,,,,,,,,,,,,,,,,,,,,,,,,,,,,,,,,,,,,,,,,,,,,,,,,,,,,,,,,,,,,,,,,,,,,,,,,,,,,,,,,,,,,,,,,,,,,,,,,,,,,,,,,,,,,,,,,,,,,,
,,,,,,5faa7e3ea84afb3b18acb0a7,62bbfafcf532685b4bb55d9c,2022-06-29_09h11.13.344,Colour_Asymmetry_Pilot,2022.1.3,Win32,90.33423668,62bbe60bf3d75ef465d3e404,0,113,113,152,1,onetwo,,,,,,,,,,,,,,,,,,,,,,,,,,,,,,,,,,,,,,,,,,,,,,,,,,,,,,,,,,,,,,,,,,,,,,,,,,,,,,,,,,,,,,,,,,,,,,,,,,,,,,,,,,,,,,,,,,,,,,,,,,,,,,,,,,,,,,,,,,,,,,,,,,,,,,,,
,,,,,,5faa7e3ea84afb3b18acb0a7,62bbfafcf532685b4bb55d9c,2022-06-29_09h11.13.344,Colour_Asymmetry_Pilot,2022.1.3,Win32,90.33423668,62bbe60bf3d75ef465d3e404,0,114,114,105,1,onethree,,,,,,,,,,,,,,,,,,,,,,,,,,,,,,,,,,,,,,,,,,,,,,,,,,,,,,,,,,,,,,,,,,,,,,,,,,,,,,,,,,,,,,,,,,,,,,,,,,,,,,,,,,,,,,,,,,,,,,,,,,,,,,,,,,,,,,,,,,,,,,,,,,,,,,,,
,,,,,,5faa7e3ea84afb3b18acb0a7,62bbfafcf532685b4bb55d9c,2022-06-29_09h11.13.344,Colour_Asymmetry_Pilot,2022.1.3,Win32,90.33423668,62bbe60bf3d75ef465d3e404,0,115,115,23,1,fourthree,,,,,,,,,,,,,,,,,,,,,,,,,,,,,,,,,,,,,,,,,,,,,,,,,,,,,,,,,,,,,,,,,,,,,,,,,,,,,,,,,,,,,,,,,,,,,,,,,,,,,,,,,,,,,,,,,,,,,,,,,,,,,,,,,,,,,,,,,,,,,,,,,,,,,,,,
,,,,,,5faa7e3ea84afb3b18acb0a7,62bbfafcf532685b4bb55d9c,2022-06-29_09h11.13.344,Colour_Asymmetry_Pilot,2022.1.3,Win32,90.33423668,62bbe60bf3d75ef465d3e404,0,116,116,90,1,twoone,,,,,,,,,,,,,,,,,,,,,,,,,,,,,,,,,,,,,,,,,,,,,,,,,,,,,,,,,,,,,,,,,,,,,,,,,,,,,,,,,,,,,,,,,,,,,,,,,,,,,,,,,,,,,,,,,,,,,,,,,,,,,,,,,,,,,,,,,,,,,,,,,,,,,,,,
,,,,,,5faa7e3ea84afb3b18acb0a7,62bbfafcf532685b4bb55d9c,2022-06-29_09h11.13.344,Colour_Asymmetry_Pilot,2022.1.3,Win32,90.33423668,62bbe60bf3d75ef465d3e404,0,117,117,126,1,fourtwo,,,,,,,,,,,,,,,,,,,,,,,,,,,,,,,,,,,,,,,,,,,,,,,,,,,,,,,,,,,,,,,,,,,,,,,,,,,,,,,,,,,,,,,,,,,,,,,,,,,,,,,,,,,,,,,,,,,,,,,,,,,,,,,,,,,,,,,,,,,,,,,,,,,,,,,,
,,,,,,5faa7e3ea84afb3b18acb0a7,62bbfafcf532685b4bb55d9c,2022-06-29_09h11.13.344,Colour_Asymmetry_Pilot,2022.1.3,Win32,90.33423668,62bbe60bf3d75ef465d3e404,0,118,118,16,1,onetwo,,,,,,,,,,,,,,,,,,,,,,,,,,,,,,,,,,,,,,,,,,,,,,,,,,,,,,,,,,,,,,,,,,,,,,,,,,,,,,,,,,,,,,,,,,,,,,,,,,,,,,,,,,,,,,,,,,,,,,,,,,,,,,,,,,,,,,,,,,,,,,,,,,,,,,,,
,,,,,,5faa7e3ea84afb3b18acb0a7,62bbfafcf532685b4bb55d9c,2022-06-29_09h11.13.344,Colour_Asymmetry_Pilot,2022.1.3,Win32,90.33423668,62bbe60bf3d75ef465d3e404,0,119,119,148,1,threeone,,,,,,,,,,,,,,,,,,,,,,,,,,,,,,,,,,,,,,,,,,,,,,,,,,,,,,,,,,,,,,,,,,,,,,,,,,,,,,,,,,,,,,,,,,,,,,,,,,,,,,,,,,,,,,,,,,,,,,,,,,,,,,,,,,,,,,,,,,,,,,,,,,,,,,,,
,,,,,,5faa7e3ea84afb3b18acb0a7,62bbfafcf532685b4bb55d9c,2022-06-29_09h11.13.344,Colour_Asymmetry_Pilot,2022.1.3,Win32,90.33423668,62bbe60bf3d75ef465d3e404,0,120,120,26,1,twoone,,,,,,,,,,,,,,,,,,,,,,,,,,,,,,,,,,,,,,,,,,,,,,,,,,,,,,,,,,,,,,,,,,,,,,,,,,,,,,,,,,,,,,,,,,,,,,,,,,,,,,,,,,,,,,,,,,,,,,,,,,,,,,,,,,,,,,,,,,,,,,,,,,,,,,,,
,,,,,,5faa7e3ea84afb3b18acb0a7,62bbfafcf532685b4bb55d9c,2022-06-29_09h11.13.344,Colour_Asymmetry_Pilot,2022.1.3,Win32,90.33423668,62bbe60bf3d75ef465d3e404,0,121,121,40,1,onetwo,,,,,,,,,,,,,,,,,,,,,,,,,,,,,,,,,,,,,,,,,,,,,,,,,,,,,,,,,,,,,,,,,,,,,,,,,,,,,,,,,,,,,,,,,,,,,,,,,,,,,,,,,,,,,,,,,,,,,,,,,,,,,,,,,,,,,,,,,,,,,,,,,,,,,,,,
,,,,,,5faa7e3ea84afb3b18acb0a7,62bbfafcf532685b4bb55d9c,2022-06-29_09h11.13.344,Colour_Asymmetry_Pilot,2022.1.3,Win32,90.33423668,62bbe60bf3d75ef465d3e404,0,122,122,18,1,twoone,,,,,,,,,,,,,,,,,,,,,,,,,,,,,,,,,,,,,,,,,,,,,,,,,,,,,,,,,,,,,,,,,,,,,,,,,,,,,,,,,,,,,,,,,,,,,,,,,,,,,,,,,,,,,,,,,,,,,,,,,,,,,,,,,,,,,,,,,,,,,,,,,,,,,,,,
,,,,,,5faa7e3ea84afb3b18acb0a7,62bbfafcf532685b4bb55d9c,2022-06-29_09h11.13.344,Colour_Asymmetry_Pilot,2022.1.3,Win32,90.33423668,62bbe60bf3d75ef465d3e404,0,123,123,60,1,threeone,,,,,,,,,,,,,,,,,,,,,,,,,,,,,,,,,,,,,,,,,,,,,,,,,,,,,,,,,,,,,,,,,,,,,,,,,,,,,,,,,,,,,,,,,,,,,,,,,,,,,,,,,,,,,,,,,,,,,,,,,,,,,,,,,,,,,,,,,,,,,,,,,,,,,,,,
,,,,,,5faa7e3ea84afb3b18acb0a7,62bbfafcf532685b4bb55d9c,2022-06-29_09h11.13.344,Colour_Asymmetry_Pilot,2022.1.3,Win32,90.33423668,62bbe60bf3d75ef465d3e404,0,124,124,115,1,twofour,,,,,,,,,,,,,,,,,,,,,,,,,,,,,,,,,,,,,,,,,,,,,,,,,,,,,,,,,,,,,,,,,,,,,,,,,,,,,,,,,,,,,,,,,,,,,,,,,,,,,,,,,,,,,,,,,,,,,,,,,,,,,,,,,,,,,,,,,,,,,,,,,,,,,,,,
,,,,,,5faa7e3ea84afb3b18acb0a7,62bbfafcf532685b4bb55d9c,2022-06-29_09h11.13.344,Colour_Asymmetry_Pilot,2022.1.3,Win32,90.33423668,62bbe60bf3d75ef465d3e404,0,125,125,79,1,fourthree,,,,,,,,,,,,,,,,,,,,,,,,,,,,,,,,,,,,,,,,,,,,,,,,,,,,,,,,,,,,,,,,,,,,,,,,,,,,,,,,,,,,,,,,,,,,,,,,,,,,,,,,,,,,,,,,,,,,,,,,,,,,,,,,,,,,,,,,,,,,,,,,,,,,,,,,
,,,,,,5faa7e3ea84afb3b18acb0a7,62bbfafcf532685b4bb55d9c,2022-06-29_09h11.13.344,Colour_Asymmetry_Pilot,2022.1.3,Win32,90.33423668,62bbe60bf3d75ef465d3e404,0,126,126,96,1,onetwo,,,,,,,,,,,,,,,,,,,,,,,,,,,,,,,,,,,,,,,,,,,,,,,,,,,,,,,,,,,,,,,,,,,,,,,,,,,,,,,,,,,,,,,,,,,,,,,,,,,,,,,,,,,,,,,,,,,,,,,,,,,,,,,,,,,,,,,,,,,,,,,,,,,,,,,,
,,,,,,5faa7e3ea84afb3b18acb0a7,62bbfafcf532685b4bb55d9c,2022-06-29_09h11.13.344,Colour_Asymmetry_Pilot,2022.1.3,Win32,90.33423668,62bbe60bf3d75ef465d3e404,0,127,127,91,1,twofour,,,,,,,,,,,,,,,,,,,,,,,,,,,,,,,,,,,,,,,,,,,,,,,,,,,,,,,,,,,,,,,,,,,,,,,,,,,,,,,,,,,,,,,,,,,,,,,,,,,,,,,,,,,,,,,,,,,,,,,,,,,,,,,,,,,,,,,,,,,,,,,,,,,,,,,,
,,,,,,5faa7e3ea84afb3b18acb0a7,62bbfafcf532685b4bb55d9c,2022-06-29_09h11.13.344,Colour_Asymmetry_Pilot,2022.1.3,Win32,90.33423668,62bbe60bf3d75ef465d3e404,0,128,128,2,1,twoone,,,,,,,,,,,,,,,,,,,,,,,,,,,,,,,,,,,,,,,,,,,,,,,,,,,,,,,,,,,,,,,,,,,,,,,,,,,,,,,,,,,,,,,,,,,,,,,,,,,,,,,,,,,,,,,,,,,,,,,,,,,,,,,,,,,,,,,,,,,,,,,,,,,,,,,,
,,,,,,5faa7e3ea84afb3b18acb0a7,62bbfafcf532685b4bb55d9c,2022-06-29_09h11.13.344,Colour_Asymmetry_Pilot,2022.1.3,Win32,90.33423668,62bbe60bf3d75ef465d3e404,0,129,129,109,1,threefour,,,,,,,,,,,,,,,,,,,,,,,,,,,,,,,,,,,,,,,,,,,,,,,,,,,,,,,,,,,,,,,,,,,,,,,,,,,,,,,,,,,,,,,,,,,,,,,,,,,,,,,,,,,,,,,,,,,,,,,,,,,,,,,,,,,,,,,,,,,,,,,,,,,,,,,,
,,,,,,5faa7e3ea84afb3b18acb0a7,62bbfafcf532685b4bb55d9c,2022-06-29_09h11.13.344,Colour_Asymmetry_Pilot,2022.1.3,Win32,90.33423668,62bbe60bf3d75ef465d3e404,0,130,130,1,1,onethree,,,,,,,,,,,,,,,,,,,,,,,,,,,,,,,,,,,,,,,,,,,,,,,,,,,,,,,,,,,,,,,,,,,,,,,,,,,,,,,,,,,,,,,,,,,,,,,,,,,,,,,,,,,,,,,,,,,,,,,,,,,,,,,,,,,,,,,,,,,,,,,,,,,,,,,,
,,,,,,5faa7e3ea84afb3b18acb0a7,62bbfafcf532685b4bb55d9c,2022-06-29_09h11.13.344,Colour_Asymmetry_Pilot,2022.1.3,Win32,90.33423668,62bbe60bf3d75ef465d3e404,0,131,131,121,1,onethree,,,,,,,,,,,,,,,,,,,,,,,,,,,,,,,,,,,,,,,,,,,,,,,,,,,,,,,,,,,,,,,,,,,,,,,,,,,,,,,,,,,,,,,,,,,,,,,,,,,,,,,,,,,,,,,,,,,,,,,,,,,,,,,,,,,,,,,,,,,,,,,,,,,,,,,,
,,,,,,5faa7e3ea84afb3b18acb0a7,62bbfafcf532685b4bb55d9c,2022-06-29_09h11.13.344,Colour_Asymmetry_Pilot,2022.1.3,Win32,90.33423668,62bbe60bf3d75ef465d3e404,0,132,132,111,1,fourthree,,,,,,,,,,,,,,,,,,,,,,,,,,,,,,,,,,,,,,,,,,,,,,,,,,,,,,,,,,,,,,,,,,,,,,,,,,,,,,,,,,,,,,,,,,,,,,,,,,,,,,,,,,,,,,,,,,,,,,,,,,,,,,,,,,,,,,,,,,,,,,,,,,,,,,,,
,,,,,,5faa7e3ea84afb3b18acb0a7,62bbfafcf532685b4bb55d9c,2022-06-29_09h11.13.344,Colour_Asymmetry_Pilot,2022.1.3,Win32,90.33423668,62bbe60bf3d75ef465d3e404,0,133,133,83,1,twofour,,,,,,,,,,,,,,,,,,,,,,,,,,,,,,,,,,,,,,,,,,,,,,,,,,,,,,,,,,,,,,,,,,,,,,,,,,,,,,,,,,,,,,,,,,,,,,,,,,,,,,,,,,,,,,,,,,,,,,,,,,,,,,,,,,,,,,,,,,,,,,,,,,,,,,,,
,,,,,,5faa7e3ea84afb3b18acb0a7,62bbfafcf532685b4bb55d9c,2022-06-29_09h11.13.344,Colour_Asymmetry_Pilot,2022.1.3,Win32,90.33423668,62bbe60bf3d75ef465d3e404,0,134,134,74,1,twoone,,,,,,,,,,,,,,,,,,,,,,,,,,,,,,,,,,,,,,,,,,,,,,,,,,,,,,,,,,,,,,,,,,,,,,,,,,,,,,,,,,,,,,,,,,,,,,,,,,,,,,,,,,,,,,,,,,,,,,,,,,,,,,,,,,,,,,,,,,,,,,,,,,,,,,,,
,,,,,,5faa7e3ea84afb3b18acb0a7,62bbfafcf532685b4bb55d9c,2022-06-29_09h11.13.344,Colour_Asymmetry_Pilot,2022.1.3,Win32,90.33423668,62bbe60bf3d75ef465d3e404,0,135,135,41,1,onethree,,,,,,,,,,,,,,,,,,,,,,,,,,,,,,,,,,,,,,,,,,,,,,,,,,,,,,,,,,,,,,,,,,,,,,,,,,,,,,,,,,,,,,,,,,,,,,,,,,,,,,,,,,,,,,,,,,,,,,,,,,,,,,,,,,,,,,,,,,,,,,,,,,,,,,,,
,,,,,,5faa7e3ea84afb3b18acb0a7,62bbfafcf532685b4bb55d9c,2022-06-29_09h11.13.344,Colour_Asymmetry_Pilot,2022.1.3,Win32,90.33423668,62bbe60bf3d75ef465d3e404,0,136,136,86,1,fourtwo,,,,,,,,,,,,,,,,,,,,,,,,,,,,,,,,,,,,,,,,,,,,,,,,,,,,,,,,,,,,,,,,,,,,,,,,,,,,,,,,,,,,,,,,,,,,,,,,,,,,,,,,,,,,,,,,,,,,,,,,,,,,,,,,,,,,,,,,,,,,,,,,,,,,,,,,
,,,,,,5faa7e3ea84afb3b18acb0a7,62bbfafcf532685b4bb55d9c,2022-06-29_09h11.13.344,Colour_Asymmetry_Pilot,2022.1.3,Win32,90.33423668,62bbe60bf3d75ef465d3e404,0,137,137,110,1,fourtwo,,,,,,,,,,,,,,,,,,,,,,,,,,,,,,,,,,,,,,,,,,,,,,,,,,,,,,,,,,,,,,,,,,,,,,,,,,,,,,,,,,,,,,,,,,,,,,,,,,,,,,,,,,,,,,,,,,,,,,,,,,,,,,,,,,,,,,,,,,,,,,,,,,,,,,,,
,,,,,,5faa7e3ea84afb3b18acb0a7,62bbfafcf532685b4bb55d9c,2022-06-29_09h11.13.344,Colour_Asymmetry_Pilot,2022.1.3,Win32,90.33423668,62bbe60bf3d75ef465d3e404,0,138,138,7,1,fourthree,,,,,,,,,,,,,,,,,,,,,,,,,,,,,,,,,,,,,,,,,,,,,,,,,,,,,,,,,,,,,,,,,,,,,,,,,,,,,,,,,,,,,,,,,,,,,,,,,,,,,,,,,,,,,,,,,,,,,,,,,,,,,,,,,,,,,,,,,,,,,,,,,,,,,,,,
,,,,,,5faa7e3ea84afb3b18acb0a7,62bbfafcf532685b4bb55d9c,2022-06-29_09h11.13.344,Colour_Asymmetry_Pilot,2022.1.3,Win32,90.33423668,62bbe60bf3d75ef465d3e404,0,139,139,98,1,twoone,,,,,,,,,,,,,,,,,,,,,,,,,,,,,,,,,,,,,,,,,,,,,,,,,,,,,,,,,,,,,,,,,,,,,,,,,,,,,,,,,,,,,,,,,,,,,,,,,,,,,,,,,,,,,,,,,,,,,,,,,,,,,,,,,,,,,,,,,,,,,,,,,,,,,,,,
,,,,,,5faa7e3ea84afb3b18acb0a7,62bbfafcf532685b4bb55d9c,2022-06-29_09h11.13.344,Colour_Asymmetry_Pilot,2022.1.3,Win32,90.33423668,62bbe60bf3d75ef465d3e404,0,140,140,85,1,threefour,,,,,,,,,,,,,,,,,,,,,,,,,,,,,,,,,,,,,,,,,,,,,,,,,,,,,,,,,,,,,,,,,,,,,,,,,,,,,,,,,,,,,,,,,,,,,,,,,,,,,,,,,,,,,,,,,,,,,,,,,,,,,,,,,,,,,,,,,,,,,,,,,,,,,,,,
,,,,,,5faa7e3ea84afb3b18acb0a7,62bbfafcf532685b4bb55d9c,2022-06-29_09h11.13.344,Colour_Asymmetry_Pilot,2022.1.3,Win32,90.33423668,62bbe60bf3d75ef465d3e404,0,141,141,141,1,threefour,,,,,,,,,,,,,,,,,,,,,,,,,,,,,,,,,,,,,,,,,,,,,,,,,,,,,,,,,,,,,,,,,,,,,,,,,,,,,,,,,,,,,,,,,,,,,,,,,,,,,,,,,,,,,,,,,,,,,,,,,,,,,,,,,,,,,,,,,,,,,,,,,,,,,,,,
,,,,,,5faa7e3ea84afb3b18acb0a7,62bbfafcf532685b4bb55d9c,2022-06-29_09h11.13.344,Colour_Asymmetry_Pilot,2022.1.3,Win32,90.33423668,62bbe60bf3d75ef465d3e404,0,142,142,129,1,onethree,,,,,,,,,,,,,,,,,,,,,,,,,,,,,,,,,,,,,,,,,,,,,,,,,,,,,,,,,,,,,,,,,,,,,,,,,,,,,,,,,,,,,,,,,,,,,,,,,,,,,,,,,,,,,,,,,,,,,,,,,,,,,,,,,,,,,,,,,,,,,,,,,,,,,,,,
,,,,,,5faa7e3ea84afb3b18acb0a7,62bbfafcf532685b4bb55d9c,2022-06-29_09h11.13.344,Colour_Asymmetry_Pilot,2022.1.3,Win32,90.33423668,62bbe60bf3d75ef465d3e404,0,143,143,34,1,twoone,,,,,,,,,,,,,,,,,,,,,,,,,,,,,,,,,,,,,,,,,,,,,,,,,,,,,,,,,,,,,,,,,,,,,,,,,,,,,,,,,,,,,,,,,,,,,,,,,,,,,,,,,,,,,,,,,,,,,,,,,,,,,,,,,,,,,,,,,,,,,,,,,,,,,,,,
,,,,,,5faa7e3ea84afb3b18acb0a7,62bbfafcf532685b4bb55d9c,2022-06-29_09h11.13.344,Colour_Asymmetry_Pilot,2022.1.3,Win32,90.33423668,62bbe60bf3d75ef465d3e404,0,144,144,3,1,twofour,,,,,,,,,,,,,,,,,,,,,,,,,,,,,,,,,,,,,,,,,,,,,,,,,,,,,,,,,,,,,,,,,,,,,,,,,,,,,,,,,,,,,,,,,,,,,,,,,,,,,,,,,,,,,,,,,,,,,,,,,,,,,,,,,,,,,,,,,,,,,,,,,,,,,,,,
,,,,,,5faa7e3ea84afb3b18acb0a7,62bbfafcf532685b4bb55d9c,2022-06-29_09h11.13.344,Colour_Asymmetry_Pilot,2022.1.3,Win32,90.33423668,62bbe60bf3d75ef465d3e404,0,145,145,24,1,onetwo,,,,,,,,,,,,,,,,,,,,,,,,,,,,,,,,,,,,,,,,,,,,,,,,,,,,,,,,,,,,,,,,,,,,,,,,,,,,,,,,,,,,,,,,,,,,,,,,,,,,,,,,,,,,,,,,,,,,,,,,,,,,,,,,,,,,,,,,,,,,,,,,,,,,,,,,
,,,,,,5faa7e3ea84afb3b18acb0a7,62bbfafcf532685b4bb55d9c,2022-06-29_09h11.13.344,Colour_Asymmetry_Pilot,2022.1.3,Win32,90.33423668,62bbe60bf3d75ef465d3e404,0,146,146,58,1,twoone,,,,,,,,,,,,,,,,,,,,,,,,,,,,,,,,,,,,,,,,,,,,,,,,,,,,,,,,,,,,,,,,,,,,,,,,,,,,,,,,,,,,,,,,,,,,,,,,,,,,,,,,,,,,,,,,,,,,,,,,,,,,,,,,,,,,,,,,,,,,,,,,,,,,,,,,
,,,,,,5faa7e3ea84afb3b18acb0a7,62bbfafcf532685b4bb55d9c,2022-06-29_09h11.13.344,Colour_Asymmetry_Pilot,2022.1.3,Win32,90.33423668,62bbe60bf3d75ef465d3e404,0,147,147,57,1,onethree,,,,,,,,,,,,,,,,,,,,,,,,,,,,,,,,,,,,,,,,,,,,,,,,,,,,,,,,,,,,,,,,,,,,,,,,,,,,,,,,,,,,,,,,,,,,,,,,,,,,,,,,,,,,,,,,,,,,,,,,,,,,,,,,,,,,,,,,,,,,,,,,,,,,,,,,
,,,,,,5faa7e3ea84afb3b18acb0a7,62bbfafcf532685b4bb55d9c,2022-06-29_09h11.13.344,Colour_Asymmetry_Pilot,2022.1.3,Win32,90.33423668,62bbe60bf3d75ef465d3e404,0,148,148,92,1,threeone,,,,,,,,,,,,,,,,,,,,,,,,,,,,,,,,,,,,,,,,,,,,,,,,,,,,,,,,,,,,,,,,,,,,,,,,,,,,,,,,,,,,,,,,,,,,,,,,,,,,,,,,,,,,,,,,,,,,,,,,,,,,,,,,,,,,,,,,,,,,,,,,,,,,,,,,
,,,,,,5faa7e3ea84afb3b18acb0a7,62bbfafcf532685b4bb55d9c,2022-06-29_09h11.13.344,Colour_Asymmetry_Pilot,2022.1.3,Win32,90.33423668,62bbe60bf3d75ef465d3e404,0,149,149,137,1,onethree,,,,,,,,,,,,,,,,,,,,,,,,,,,,,,,,,,,,,,,,,,,,,,,,,,,,,,,,,,,,,,,,,,,,,,,,,,,,,,,,,,,,,,,,,,,,,,,,,,,,,,,,,,,,,,,,,,,,,,,,,,,,,,,,,,,,,,,,,,,,,,,,,,,,,,,,
,,,,,,5faa7e3ea84afb3b18acb0a7,62bbfafcf532685b4bb55d9c,2022-06-29_09h11.13.344,Colour_Asymmetry_Pilot,2022.1.3,Win32,90.33423668,62bbe60bf3d75ef465d3e404,0,150,150,69,1,threefour,,,,,,,,,,,,,,,,,,,,,,,,,,,,,,,,,,,,,,,,,,,,,,,,,,,,,,,,,,,,,,,,,,,,,,,,,,,,,,,,,,,,,,,,,,,,,,,,,,,,,,,,,,,,,,,,,,,,,,,,,,,,,,,,,,,,,,,,,,,,,,,,,,,,,,,,
,,,,,,5faa7e3ea84afb3b18acb0a7,62bbfafcf532685b4bb55d9c,2022-06-29_09h11.13.344,Colour_Asymmetry_Pilot,2022.1.3,Win32,90.33423668,62bbe60bf3d75ef465d3e404,0,151,151,37,1,threefour,,,,,,,,,,,,,,,,,,,,,,,,,,,,,,,,,,,,,,,,,,,,,,,,,,,,,,,,,,,,,,,,,,,,,,,,,,,,,,,,,,,,,,,,,,,,,,,,,,,,,,,,,,,,,,,,,,,,,,,,,,,,,,,,,,,,,,,,,,,,,,,,,,,,,,,,
,,,,,,5faa7e3ea84afb3b18acb0a7,62bbfafcf532685b4bb55d9c,2022-06-29_09h11.13.344,Colour_Asymmetry_Pilot,2022.1.3,Win32,90.33423668,62bbe60bf3d75ef465d3e404,0,152,152,10,1,twoone,,,,,,,,,,,,,,,,,,,,,,,,,,,,,,,,,,,,,,,,,,,,,,,,,,,,,,,,,,,,,,,,,,,,,,,,,,,,,,,,,,,,,,,,,,,,,,,,,,,,,,,,,,,,,,,,,,,,,,,,,,,,,,,,,,,,,,,,,,,,,,,,,,,,,,,,
,,,,,,5faa7e3ea84afb3b18acb0a7,62bbfafcf532685b4bb55d9c,2022-06-29_09h11.13.344,Colour_Asymmetry_Pilot,2022.1.3,Win32,90.33423668,62bbe60bf3d75ef465d3e404,0,153,153,21,1,threefour,,,,,,,,,,,,,,,,,,,,,,,,,,,,,,,,,,,,,,,,,,,,,,,,,,,,,,,,,,,,,,,,,,,,,,,,,,,,,,,,,,,,,,,,,,,,,,,,,,,,,,,,,,,,,,,,,,,,,,,,,,,,,,,,,,,,,,,,,,,,,,,,,,,,,,,,
,,,,,,5faa7e3ea84afb3b18acb0a7,62bbfafcf532685b4bb55d9c,2022-06-29_09h11.13.344,Colour_Asymmetry_Pilot,2022.1.3,Win32,90.33423668,62bbe60bf3d75ef465d3e404,0,154,154,93,1,threefour,,,,,,,,,,,,,,,,,,,,,,,,,,,,,,,,,,,,,,,,,,,,,,,,,,,,,,,,,,,,,,,,,,,,,,,,,,,,,,,,,,,,,,,,,,,,,,,,,,,,,,,,,,,,,,,,,,,,,,,,,,,,,,,,,,,,,,,,,,,,,,,,,,,,,,,,
,,,,,,5faa7e3ea84afb3b18acb0a7,62bbfafcf532685b4bb55d9c,2022-06-29_09h11.13.344,Colour_Asymmetry_Pilot,2022.1.3,Win32,90.33423668,62bbe60bf3d75ef465d3e404,0,155,155,67,1,twofour,,,,,,,,,,,,,,,,,,,,,,,,,,,,,,,,,,,,,,,,,,,,,,,,,,,,,,,,,,,,,,,,,,,,,,,,,,,,,,,,,,,,,,,,,,,,,,,,,,,,,,,,,,,,,,,,,,,,,,,,,,,,,,,,,,,,,,,,,,,,,,,,,,,,,,,,
,,,,,,5faa7e3ea84afb3b18acb0a7,62bbfafcf532685b4bb55d9c,2022-06-29_09h11.13.344,Colour_Asymmetry_Pilot,2022.1.3,Win32,90.33423668,62bbe60bf3d75ef465d3e404,0,156,156,145,1,onethree,,,,,,,,,,,,,,,,,,,,,,,,,,,,,,,,,,,,,,,,,,,,,,,,,,,,,,,,,,,,,,,,,,,,,,,,,,,,,,,,,,,,,,,,,,,,,,,,,,,,,,,,,,,,,,,,,,,,,,,,,,,,,,,,,,,,,,,,,,,,,,,,,,,,,,,,
,,,,,,5faa7e3ea84afb3b18acb0a7,62bbfafcf532685b4bb55d9c,2022-06-29_09h11.13.344,Colour_Asymmetry_Pilot,2022.1.3,Win32,90.33423668,62bbe60bf3d75ef465d3e404,0,157,157,25,1,onethree,,,,,,,,,,,,,,,,,,,,,,,,,,,,,,,,,,,,,,,,,,,,,,,,,,,,,,,,,,,,,,,,,,,,,,,,,,,,,,,,,,,,,,,,,,,,,,,,,,,,,,,,,,,,,,,,,,,,,,,,,,,,,,,,,,,,,,,,,,,,,,,,,,,,,,,,
,,,,,,5faa7e3ea84afb3b18acb0a7,62bbfafcf532685b4bb55d9c,2022-06-29_09h11.13.344,Colour_Asymmetry_Pilot,2022.1.3,Win32,90.33423668,62bbe60bf3d75ef465d3e404,0,158,158,59,1,twofour,,,,,,,,,,,,,,,,,,,,,,,,,,,,,,,,,,,,,,,,,,,,,,,,,,,,,,,,,,,,,,,,,,,,,,,,,,,,,,,,,,,,,,,,,,,,,,,,,,,,,,,,,,,,,,,,,,,,,,,,,,,,,,,,,,,,,,,,,,,,,,,,,,,,,,,,
,,,,,,5faa7e3ea84afb3b18acb0a7,62bbfafcf532685b4bb55d9c,2022-06-29_09h11.13.344,Colour_Asymmetry_Pilot,2022.1.3,Win32,90.33423668,62bbe60bf3d75ef465d3e404,0,159,159,97,1,onethree,,,,,,,,,,,,,,,,,,,,,,,,,,,,,,,,,,,,,,,,,,,,,,,,,,,,,,,,,,,,,,,,,,,,,,,,,,,,,,,,,,,,,,,,,,,,,,,,,,,,,,,,,,,,,,,,,,,,,,,,,,,,,,,,,,,,,,,,,,,,,,,,,,,,,,,,
,,,,,,5faa7e3ea84afb3b18acb0a7,62bbfafcf532685b4bb55d9c,2022-06-29_09h11.13.344,Colour_Asymmetry_Pilot,2022.1.3,Win32,90.33423668,62bbe60bf3d75ef465d3e404,0,160,160,88,1,onetwo,,,,,,,,,,,,,,,,,,,,,,,,,,,,,,,,,,,,,,,,,,,,,,,,,,,,,,,,,,,,,,,,,,,,,,,,,,,,,,,,,,,,,,,,,,,,,,,,,,,,,,,,,,,,,,,,,,,,,,,,,,,,,,,,,,,,,,,,,,,,,,,,,,,,,,,,
,,,,,,5faa7e3ea84afb3b18acb0a7,62bbfafcf532685b4bb55d9c,2022-06-29_09h11.13.344,Colour_Asymmetry_Pilot,2022.1.3,Win32,90.33423668,62bbe60bf3d75ef465d3e404,0,161,161,80,1,onetwo,,,,,,,,,,,,,,,,,,,,,,,,,,,,,,,,,,,,,,,,,,,,,,,,,,,,,,,,,,,,,,,,,,,,,,,,,,,,,,,,,,,,,,,,,,,,,,,,,,,,,,,,,,,,,,,,,,,,,,,,,,,,,,,,,,,,,,,,,,,,,,,,,,,,,,,,
,,,,,,5faa7e3ea84afb3b18acb0a7,62bbfafcf532685b4bb55d9c,2022-06-29_09h11.13.344,Colour_Asymmetry_Pilot,2022.1.3,Win32,90.33423668,62bbe60bf3d75ef465d3e404,,,,,,,space,8.3382,space,6.1074,space,39.9274,space,3.9286,space,5.9952,space,5.8253,"[-0.4982,-0.2942,-0.0354000000000001]",twoone,"[-0.24719999999999998,0.5213999999999999,-0.12959999999999994]",-3,10.3857,-60.96398926,22.79995728,1,0,0,response7disk_5,-8.798034668,-2.558532715,1,0,0,rectangle_8,-8.798034668,-2.558532715,1,0,0,1,-8.798034668,-2.558532715,1,0,0,0,0,0,0,1,,,,,,,,,,,,,,,,,,,,,,,,,,,,,,,,,,,,,,,,,,,,,,,,,,,,,,,,,,,,,,,,,,,,,,,,,,,,,,,,,,,,,,,,,,,,,,,,,,,,,,,,,,,
,,,,,,5faa7e3ea84afb3b18acb0a7,62bbfafcf532685b4bb55d9c,2022-06-29_09h11.13.344,Colour_Asymmetry_Pilot,2022.1.3,Win32,90.33423668,62bbe60bf3d75ef465d3e404,,,,,,,,,,,,,,,,,,,"[-0.8118,-0.8198,-0.5452]",onetwo,"[-0.17659999999999998,0.3253999999999999,0.19999999999999996]",-4,1.7154,-21.83953857,58.30184937,1,0,0,response7disk_5,0.620849609,-13.42645264,1,0,0,rectangle_8,31.05102539,-57.62268066,1,0,0,1,-18.21691895,1.788635254,1,0,0,1,0,1,0,1,response3disk_7,4,rectangle_4,,,,,,,,,,,,,,,,,,,,,,,,,,,,,,,,,,,,,,,,,,,,,,,,,,,,,,,,,,,,,,,,,,,,,,,,,,,,,,,,,,,,,,,,,,,,,,,,,,,,,,,,
,,,,,,5faa7e3ea84afb3b18acb0a7,62bbfafcf532685b4bb55d9c,2022-06-29_09h11.13.344,Colour_Asymmetry_Pilot,2022.1.3,Win32,90.33423668,62bbe60bf3d75ef465d3e404,,,,,,,,,,,,,,,,,,,"[0.2862,0.7802,0.3568]",threefour,"[-0.9688,-0.38039999999999996,-0.41979999999999995]",-1,6.8446,-41.40179443,-53.2755127,1,0,0,response5disk_5,6.417053223,4.686767578,1,0,0,rectangle_8,6.417053223,4.686767578,1,0,0,1,6.417053223,4.686767578,1,0,0,2,0,2,0,1,,,,,,,,,,,,,,,,,,,,,,,,,,,,,,,,,,,,,,,,,,,,,,,,,,,,,,,,,,,,,,,,,,,,,,,,,,,,,,,,,,,,,,,,,,,,,,,,,,,,,,,,,,,
,,,,,,5faa7e3ea84afb3b18acb0a7,62bbfafcf532685b4bb55d9c,2022-06-29_09h11.13.344,Colour_Asymmetry_Pilot,2022.1.3,Win32,90.33423668,62bbe60bf3d75ef465d3e404,,,,,,,,,,,,,,,,,,,"[-0.4276,0.0038000000000000256,-0.3256]",threefour,"[-0.050999999999999934,-0.6706000000000001,-0.804]",-4,1.8352,-37.05462646,64.82260132,1,0,0,response7disk_5,-3.001708984,-2.558532715,1,0,0,rectangle_8,22.35668945,-65.5925293,1,0,0,1,4.243469238,6.860351563,1,0,0,3,0,3,0,1,response3disk_7,4,rectangle_4,,,,,,,,,,,,,,,,,,,,,,,,,,,,,,,,,,,,,,,,,,,,,,,,,,,,,,,,,,,,,,,,,,,,,,,,,,,,,,,,,,,,,,,,,,,,,,,,,,,,,,,,
,,,,,,5faa7e3ea84afb3b18acb0a7,62bbfafcf532685b4bb55d9c,2022-06-29_09h11.13.344,Colour_Asymmetry_Pilot,2022.1.3,Win32,90.33423668,62bbe60bf3d75ef465d3e404,,,,,,,,,,,,,,,,,,,"[0.9686000000000001,0.3802000000000001,0.19999999999999996]",threefour,"[0.12939999999999996,-0.2864,0.3253999999999999]",-4,3.4379,-38.50378418,50.33203125,1,0,0,response7disk_5,-3.726318359,4.686767578,1,0,0,rectangle_8,-3.726318359,4.686767578,1,0,0,1,-3.726318359,4.686767578,1,0,0,4,0,4,0,1,,,,,,,,,,,,,,,,,,,,,,,,,,,,,,,,,,,,,,,,,,,,,,,,,,,,,,,,,,,,,,,,,,,,,,,,,,,,,,,,,,,,,,,,,,,,,,,,,,,,,,,,,,,
,,,,,,5faa7e3ea84afb3b18acb0a7,62bbfafcf532685b4bb55d9c,2022-06-29_09h11.13.344,Colour_Asymmetry_Pilot,2022.1.3,Win32,90.33423668,62bbe60bf3d75ef465d3e404,,,,,,,,,,,,,,,,,,,"[-0.30200000000000005,0.14500000000000002,0.2784]",onethree,"[0.37240000000000006,-0.050999999999999934,-0.5216]",-4,3.0034,-41.40179443,71.34335327,1,0,0,response7disk_5,-0.828308105,-2.558532715,1,0,0,rectangle_8,-0.828308105,-2.558532715,1,0,0,1,-0.828308105,-2.558532715,1,0,0,5,0,5,0,1,,,,,,,,,,,,,,,,,,,,,,,,,,,,,,,,,,,,,,,,,,,,,,,,,,,,,,,,,,,,,,,,,,,,,,,,,,,,,,,,,,,,,,,,,,,,,,,,,,,,,,,,,,,
,,,,,,5faa7e3ea84afb3b18acb0a7,62bbfafcf532685b4bb55d9c,2022-06-29_09h11.13.344,Colour_Asymmetry_Pilot,2022.1.3,Win32,90.33423668,62bbe60bf3d75ef465d3e404,,,,,,,,,,,,,,,,,,,"[-0.4982,-0.2942,-0.0354000000000001]",twoone,"[-0.4668,-0.8746,-0.2942]",-1,3.5815,-18.21691895,-73.56225586,1,0,0,response5disk_5,0.620849609,7.584899902,1,0,0,rectangle_8,0.620849609,7.584899902,1,0,0,1,0.620849609,7.584899902,1,0,0,6,0,6,0,1,,,,,,,,,,,,,,,,,,,,,,,,,,,,,,,,,,,,,,,,,,,,,,,,,,,,,,,,,,,,,,,,,,,,,,,,,,,,,,,,,,,,,,,,,,,,,,,,,,,,,,,,,,,
,,,,,,5faa7e3ea84afb3b18acb0a7,62bbfafcf532685b4bb55d9c,2022-06-29_09h11.13.344,Colour_Asymmetry_Pilot,2022.1.3,Win32,90.33423668,62bbe60bf3d75ef465d3e404,,,,,,,,,,,,,,,,,,,,onethree,,-4,1.0486,,,,,,,,,,,,,,,,,,,,,,,,,,,,,,,,space,4.3476,"[0.5528,0.7409999999999999,-0.71]","[-0.6942,-0.7648,-0.12959999999999994]",-60.96398926,73.51693726,1,0,0,response7disk,-3.726318359,3.962219238,1,0,0,rectangle,74.52282715,-17.77362061,1,0,0,response3disk_3,2,2,2.5366,1,3.518859863,3.237731934,1,0,0,rectangle,0,0,0,36,1,36,first,,,,,,,,,,,,,,,,,,,,,,,,,,,,,,,,,,,,,,,,,,,,,,,,,,,,,,,,,,,,,,,,,
,,,,,,5faa7e3ea84afb3b18acb0a7,62bbfafcf532685b4bb55d9c,2022-06-29_09h11.13.344,Colour_Asymmetry_Pilot,2022.1.3,Win32,90.33423668,62bbe60bf3d75ef465d3e404,,,,,,,,,,,,,,,,,,,,twoone,,-4,2.5255,,,,,,,,,,,,,,,,,,,,,,,,,,,,,,,,,,"[0.3881999999999999,-0.23939999999999995,-0.05040000000000011]","[0.9213999999999998,0.6391999999999998,-0.9922]",-39.95275879,65.54708862,1,0,0,response7disk,4.968017578,10.48297119,1,0,0,rectangle,4.968017578,10.48297119,1,0,0,,2,2,0.0005,0,4.968017578,10.48297119,1,0,0,,0,1,1,149,1,68,second,,,,,,,,,,,,,,,,,,,,,,,,,,,,,,,,,,,,,,,,,,,,,,,,,,,,,,,,,,,,,,,,,
,,,,,,5faa7e3ea84afb3b18acb0a7,62bbfafcf532685b4bb55d9c,2022-06-29_09h11.13.344,Colour_Asymmetry_Pilot,2022.1.3,Win32,90.33423668,62bbe60bf3d75ef465d3e404,,,,,,,,,,,,,,,,,,,,twofour,,1,1.858,,,,,,,,,,,,,,,,,,,,,,,,,,,,,,,,,,"[0.19199999999999995,0.18419999999999992,0.5136000000000001]","[0.12939999999999996,-0.2864,0.3253999999999999]",12.93780518,-48.20385742,1,0,0,response3disk,-22.56408691,-1.833984375,1,0,0,rectangle,-22.56408691,-1.833984375,1,0,0,,2,2,0.0005,0,-22.56408691,-1.833984375,1,0,0,,0,2,2,78,1,78,first,,,,,,,,,,,,,,,,,,,,,,,,,,,,,,,,,,,,,,,,,,,,,,,,,,,,,,,,,,,,,,,,,
,,,,,,5faa7e3ea84afb3b18acb0a7,62bbfafcf532685b4bb55d9c,2022-06-29_09h11.13.344,Colour_Asymmetry_Pilot,2022.1.3,Win32,90.33423668,62bbe60bf3d75ef465d3e404,,,,,,,,,,,,,,,,,,,,fourtwo,,-4,0.7566,,,,,,,,,,,,,,,,,,,,,,,,,,,,,,,,,,"[-0.45899999999999996,-0.3256,-0.9374]","[-0.20799999999999996,-0.655,-0.01980000000000004]",-21.83953857,72.06784058,1,0,0,response7disk,1.345458984,-6.905700684,1,0,0,rectangle,1.345458984,-6.905700684,1,0,0,,2,1,0.0014,0,1.345458984,-6.905700684,1,0,0,,0,3,3,37,1,37,first,,,,,,,,,,,,,,,,,,,,,,,,,,,,,,,,,,,,,,,,,,,,,,,,,,,,,,,,,,,,,,,,,
,,,,,,5faa7e3ea84afb3b18acb0a7,62bbfafcf532685b4bb55d9c,2022-06-29_09h11.13.344,Colour_Asymmetry_Pilot,2022.1.3,Win32,90.33423668,62bbe60bf3d75ef465d3e404,,,,,,,,,,,,,,,,,,,,fourthree,,1,1.8174,,,,,,,,,,,,,,,,,,,,,,,,,,,,,,,,,,"[-0.9138,-0.5296000000000001,-0.5529999999999999]","[-0.4276,0.0038000000000000256,-0.3256]",29.60186768,-39.50946045,1,0,0,response3disk,-6.624450684,11.93203735,1,0,0,rectangle,-6.624450684,11.93203735,1,0,0,,2,3,0.0018,0,-6.624450684,11.93203735,1,0,0,,0,4,4,38,1,38,first,,,,,,,,,,,,,,,,,,,,,,,,,,,,,,,,,,,,,,,,,,,,,,,,,,,,,,,,,,,,,,,,,
,,,,,,5faa7e3ea84afb3b18acb0a7,62bbfafcf532685b4bb55d9c,2022-06-29_09h11.13.344,Colour_Asymmetry_Pilot,2022.1.3,Win32,90.33423668,62bbe60bf3d75ef465d3e404,,,,,,,,,,,,,,,,,,,,twoone,,-4,4.1153,,,,,,,,,,,,,,,,,,,,,,,,,,,,,,,,,,"[0.9686000000000001,0.5763999999999998,0.11359999999999992]","[-0.4902000000000001,0.2704,-0.45899999999999996]",-28.36029053,48.15844727,1,0,0,response7disk,5.692626953,13.38104248,1,0,0,rectangle,5.692626953,13.38104248,1,0,0,,2,2,0.0009,0,5.692626953,13.38104248,1,0,0,,0,5,5,111,1,30,second,,,,,,,,,,,,,,,,,,,,,,,,,,,,,,,,,,,,,,,,,,,,,,,,,,,,,,,,,,,,,,,,,
,,,,,,5faa7e3ea84afb3b18acb0a7,62bbfafcf532685b4bb55d9c,2022-06-29_09h11.13.344,Colour_Asymmetry_Pilot,2022.1.3,Win32,90.33423668,62bbe60bf3d75ef465d3e404,,,,,,,,,,,,,,,,,,,,threeone,,-4,1.7699,,,,,,,,,,,,,,,,,,,,,,,,,,,,,,,,,,"[-0.5452,-0.608,0.2470000000000001]","[0.22340000000000004,-0.9296,-0.7884]",-37.7791748,64.82260132,1,0,0,response7disk,-7.348876953,-7.630187988,1,0,0,rectangle,-7.348876953,-7.630187988,1,0,0,,2,3,0.0018,0,-7.348876953,-7.630187988,1,0,0,,0,6,6,89,1,8,second,,,,,,,,,,,,,,,,,,,,,,,,,,,,,,,,,,,,,,,,,,,,,,,,,,,,,,,,,,,,,,,,,
,,,,,,5faa7e3ea84afb3b18acb0a7,62bbfafcf532685b4bb55d9c,2022-06-29_09h11.13.344,Colour_Asymmetry_Pilot,2022.1.3,Win32,90.33423668,62bbe60bf3d75ef465d3e404,,,,,,,,,,,,,,,,,,,,onethree,,-4,1.1893,,,,,,,,,,,,,,,,,,,,,,,,,,,,,,,,,,"[0.8115999999999999,-0.0040000000000000036,-0.09819999999999995]","[0.11359999999999992,0.6312,0.5213999999999999]",-24.01312256,64.0980835,1,0,0,response7disk,4.243469238,-1.833984375,1,0,0,rectangle,4.243469238,-1.833984375,1,0,0,,2,1,0.0019,0,4.243469238,-1.833984375,1,0,0,,0,7,7,16,1,16,first,,,,,,,,,,,,,,,,,,,,,,,,,,,,,,,,,,,,,,,,,,,,,,,,,,,,,,,,,,,,,,,,,
,,,,,,5faa7e3ea84afb3b18acb0a7,62bbfafcf532685b4bb55d9c,2022-06-29_09h11.13.344,Colour_Asymmetry_Pilot,2022.1.3,Win32,90.33423668,62bbe60bf3d75ef465d3e404,,,,,,,,,,,,,,,,,,,,onetwo,,-4,1.3145,,,,,,,,,,,,,,,,,,,,,,,,,,,,,,,,,,"[-0.6942,-0.7648,-0.12959999999999994]","[-0.26280000000000003,-0.2158,-0.3256]",-17.49237061,45.26034546,1,0,0,response7disk,12.93780518,20.62637329,1,0,0,rectangle,12.93780518,20.62637329,1,0,0,,4,1,0.0003,0,12.93780518,20.62637329,1,0,0,,0,8,8,148,1,67,second,,,,,,,,,,,,,,,,,,,,,,,,,,,,,,,,,,,,,,,,,,,,,,,,,,,,,,,,,,,,,,,,,
,,,,,,5faa7e3ea84afb3b18acb0a7,62bbfafcf532685b4bb55d9c,2022-06-29_09h11.13.344,Colour_Asymmetry_Pilot,2022.1.3,Win32,90.33423668,62bbe60bf3d75ef465d3e404,,,,,,,,,,,,,,,,,,,,twofour,,-1,1.2905,,,,,,,,,,,,,,,,,,,,,,,,,,,,,,,,,,"[0.7802,-0.23140000000000005,-0.20799999999999996]","[0.2784,-0.31000000000000005,-0.5452]",-31.25842285,-56.89819336,1,0,0,response5disk,-0.828308105,-9.079284668,1,0,0,rectangle,-0.828308105,-9.079284668,1,0,0,,4,1,0.0004,0,-0.828308105,-9.079284668,1,0,0,,0,9,9,123,1,42,second,,,,,,,,,,,,,,,,,,,,,,,,,,,,,,,,,,,,,,,,,,,,,,,,,,,,,,,,,,,,,,,,,
,,,,,,5faa7e3ea84afb3b18acb0a7,62bbfafcf532685b4bb55d9c,2022-06-29_09h11.13.344,Colour_Asymmetry_Pilot,2022.1.3,Win32,90.33423668,62bbe60bf3d75ef465d3e404,,,,,,,,,,,,,,,,,,,,threeone,,4,0.9251,,,,,,,,,,,,,,,,,,,,,,,,,,,,,,,,,,"[-0.6235999999999999,-0.6786,-0.08239999999999992]","[-0.6942,-0.7648,-0.12959999999999994]",16.56036377,64.0980835,1,0,0,response1disk,10.76422119,0.339599609,1,0,0,rectangle,10.76422119,0.339599609,1,0,0,,4,3,0.002,0,10.76422119,0.339599609,1,0,0,,0,10,10,7,1,7,first,,,,,,,,,,,,,,,,,,,,,,,,,,,,,,,,,,,,,,,,,,,,,,,,,,,,,,,,,,,,,,,,,
,,,,,,5faa7e3ea84afb3b18acb0a7,62bbfafcf532685b4bb55d9c,2022-06-29_09h11.13.344,Colour_Asymmetry_Pilot,2022.1.3,Win32,90.33423668,62bbe60bf3d75ef465d3e404,,,,,,,,,,,,,,,,,,,,onetwo,,-4,1.4469,,,,,,,,,,,,,,,,,,,,,,,,,,,,,,,,,,"[0.05879999999999996,0.2784,0.5841999999999998]","[-0.17659999999999998,-0.2864,-0.8354]",-32.7074585,68.44525146,1,0,0,response7disk,-2.277282715,-2.558532715,1,0,0,rectangle,-2.277282715,-2.558532715,1,0,0,,4,2,0.0018,0,-2.277282715,-2.558532715,1,0,0,,0,11,11,107,1,26,second,,,,,,,,,,,,,,,,,,,,,,,,,,,,,,,,,,,,,,,,,,,,,,,,,,,,,,,,,,,,,,,,,
,,,,,,5faa7e3ea84afb3b18acb0a7,62bbfafcf532685b4bb55d9c,2022-06-29_09h11.13.344,Colour_Asymmetry_Pilot,2022.1.3,Win32,90.33423668,62bbe60bf3d75ef465d3e404,,,,,,,,,,,,,,,,,,,,threeone,,-4,0.9899,,,,,,,,,,,,,,,,,,,,,,,,,,,,,,,,,,"[-0.9138,-0.5296000000000001,-0.5529999999999999]","[0.2784,-0.31000000000000005,-0.5452]",-39.22833252,47.43392944,1,0,0,response7disk,-6.624450684,-11.25286865,1,0,0,rectangle,-6.624450684,-11.25286865,1,0,0,,4,3,0.0018,0,-6.624450684,-11.25286865,1,0,0,,0,12,12,145,1,64,second,,,,,,,,,,,,,,,,,,,,,,,,,,,,,,,,,,,,,,,,,,,,,,,,,,,,,,,,,,,,,,,,,
,,,,,,5faa7e3ea84afb3b18acb0a7,62bbfafcf532685b4bb55d9c,2022-06-29_09h11.13.344,Colour_Asymmetry_Pilot,2022.1.3,Win32,90.33423668,62bbe60bf3d75ef465d3e404,,,,,,,,,,,,,,,,,,,,fourthree,,-4,0.9582,,,,,,,,,,,,,,,,,,,,,,,,,,,,,,,,,,"[-0.9766,-0.6472,0.07440000000000002]","[0.7646000000000002,0.07440000000000002,0.2704]",-36.33001709,50.33203125,1,0,0,response7disk,-13.86981201,-9.803771973,1,0,0,rectangle,-13.86981201,-9.803771973,1,0,0,,-2,1,0.0006,0,-13.86981201,-9.803771973,1,0,0,,0,13,13,141,1,60,second,,,,,,,,,,,,,,,,,,,,,,,,,,,,,,,,,,,,,,,,,,,,,,,,,,,,,,,,,,,,,,,,,
,,,,,,5faa7e3ea84afb3b18acb0a7,62bbfafcf532685b4bb55d9c,2022-06-29_09h11.13.344,Colour_Asymmetry_Pilot,2022.1.3,Win32,90.33423668,62bbe60bf3d75ef465d3e404,,,,,,,,,,,,,,,,,,,,threefour,,-4,1.3343,,,,,,,,,,,,,,,,,,,,,,,,,,,,,,,,,,"[-0.050999999999999934,-0.6706000000000001,-0.804]","[0.37240000000000006,0.4980000000000002,-0.2864]",-25.46209717,55.40368652,1,0,0,response7disk,4.968017578,9.033935547,1,0,0,rectangle,4.968017578,9.033935547,1,0,0,,-2,1,0.0002,0,4.968017578,9.033935547,1,0,0,,0,14,14,13,1,13,first,,,,,,,,,,,,,,,,,,,,,,,,,,,,,,,,,,,,,,,,,,,,,,,,,,,,,,,,,,,,,,,,,
,,,,,,5faa7e3ea84afb3b18acb0a7,62bbfafcf532685b4bb55d9c,2022-06-29_09h11.13.344,Colour_Asymmetry_Pilot,2022.1.3,Win32,90.33423668,62bbe60bf3d75ef465d3e404,,,,,,,,,,,,,,,,,,,,fourthree,,-1,1.7465,,,,,,,,,,,,,,,,,,,,,,,,,,,,,,,,,,"[0.37240000000000006,-0.050999999999999934,-0.5216]","[0.8274000000000001,-0.5844,-0.9452]",-52.26983643,-78.63409424,1,0,0,response5disk,5.692626953,6.860351563,1,0,0,rectangle,5.692626953,6.860351563,1,0,0,,-2,3,0.0013,0,5.692626953,6.860351563,1,0,0,,0,15,15,121,1,40,second,,,,,,,,,,,,,,,,,,,,,,,,,,,,,,,,,,,,,,,,,,,,,,,,,,,,,,,,,,,,,,,,,
,,,,,,5faa7e3ea84afb3b18acb0a7,62bbfafcf532685b4bb55d9c,2022-06-29_09h11.13.344,Colour_Asymmetry_Pilot,2022.1.3,Win32,90.33423668,62bbe60bf3d75ef465d3e404,,,,,,,,,,,,,,,,,,,,twoone,,-2,2.3696,,,,,,,,,,,,,,,,,,,,,,,,,,,,,,,,,,"[-0.011800000000000033,-0.906,-0.45100000000000007]","[0.7646000000000002,0.07440000000000002,0.2704]",-48.64709473,-38.0604248,1,0,0,response5disk,-3.726318359,10.48297119,1,0,0,rectangle,-3.726318359,10.48297119,1,0,0,,-2,1,0.0019,0,-3.726318359,10.48297119,1,0,0,,0,16,16,151,1,70,second,,,,,,,,,,,,,,,,,,,,,,,,,,,,,,,,,,,,,,,,,,,,,,,,,,,,,,,,,,,,,,,,,
