trials.thisRepN,trials.thisTrialN,trials.thisN,trials.thisIndex,trials.ran,Colourcodes,participant,session,date,expName,psychopyVersion,OS,frameRate,study_id,trials_4.thisRepN,trials_4.thisTrialN,trials_4.thisN,trials_4.thisIndex,trials_4.ran,StimulusPos,key_resp.keys,key_resp.rt,key_resp_2.keys,key_resp_2.rt,key_resp_15.keys,key_resp_15.rt,key_resp_17.keys,key_resp_17.rt,key_resp_9.keys,key_resp_9.rt,key_resp_10.keys,key_resp_10.rt,Circle1_col,Ecc,Circle2_col,similarity,response_time,mouse_5.x,mouse_5.y,mouse_5.leftButton,mouse_5.midButton,mouse_5.rightButton,mouse_5.clicked_name,mouse_10.x,mouse_10.y,mouse_10.leftButton,mouse_10.midButton,mouse_10.rightButton,mouse_10.clicked_name,mouse_7.x,mouse_7.y,mouse_7.leftButton,mouse_7.midButton,mouse_7.rightButton,catchnumberprac,mouse_6.x,mouse_6.y,mouse_6.leftButton,mouse_6.midButton,mouse_6.rightButton,duringprac.thisRepN,duringprac.thisTrialN,duringprac.thisN,duringprac.thisIndex,duringprac.ran,mouse_7.clicked_name,catchprac,mouse_6.clicked_name,key_resp_22.keys,key_resp_22.rt,Circle1_colour,Circle2_colour,mouse.x,mouse.y,mouse.leftButton,mouse.midButton,mouse.rightButton,mouse.clicked_name,mouse_2.x,mouse_2.y,mouse_2.leftButton,mouse_2.midButton,mouse_2.rightButton,mouse_2.clicked_name,mouse_3.x,mouse_3.y,mouse_3.leftButton,mouse_3.midButton,mouse_3.rightButton,catchresponse,catchnumber,response_time_catch,Catch,mouse_11.x,mouse_11.y,mouse_11.leftButton,mouse_11.midButton,mouse_11.rightButton,trials_2.thisRepN,trials_2.thisTrialN,trials_2.thisN,trials_2.thisIndex,trials_2.ran,Colourpair,Temporder,mouse_3.clicked_name,mouse_11.clicked_name,trials_3.thisRepN,trials_3.thisTrialN,trials_3.thisN,trials_3.thisIndex,trials_3.ran,key_resp_instr_Ishi.keys,key_resp_instr_Ishi.rt,Ishi_trial_keyresp.keys,Ishi_trial_keyresp.rt,Ishi_textbox.text,Ishi_loop.thisRepN,Ishi_loop.thisTrialN,Ishi_loop.thisN,Ishi_loop.thisIndex,Ishi_loop.ran,imageaddress,textbox.text,mouse_4.x,mouse_4.y,mouse_4.leftButton,mouse_4.midButton,mouse_4.rightButton,mouse_4.clicked_name,textbox_2.text,mouse_8.x,mouse_8.y,mouse_8.leftButton,mouse_8.midButton,mouse_8.rightButton,mouse_8.clicked_name,textbox_3.text,mouse_9.x,mouse_9.y,mouse_9.leftButton,mouse_9.midButton,mouse_9.rightButton,mouse_9.clicked_name,textbox_4.text,mouse_12.x,mouse_12.y,mouse_12.leftButton,mouse_12.midButton,mouse_12.rightButton,mouse_12.clicked_name,textbox_5.text,mouse_13.x,mouse_13.y,mouse_13.leftButton,mouse_13.midButton,mouse_13.rightButton,mouse_13.clicked_name,textbox_6.text,mouse_14.x,mouse_14.y,mouse_14.leftButton,mouse_14.midButton,mouse_14.rightButton,textbox_7.text,mouse_15.x,mouse_15.y,mouse_15.leftButton,mouse_15.midButton,mouse_15.rightButton,mouse_15.clicked_name
0,0,0,78,1,,6013162277aab7174f7dad94,62bbfab2b853f4201ecc5850,2022-06-29_09h09.46.005,Colour_Asymmetry_Pilot,2022.1.3,Win32,144.0092166,62bbe60bf3d75ef465d3e404,,,,,,,,,,,,,,,,,,,,,,,,,,,,,,,,,,,,,,,,,,,,,,,,,,,,,,,,,,,,,,,,,,,,,,,,,,,,,,,,,,,,,,,,,,,,,,,,,,,,,,,,,,,,,,,,,,,,,,,,,,,,,,,,,,,,,,,,,,,,,,,,,,,,,,,,,,,,,
0,1,1,38,1,,6013162277aab7174f7dad94,62bbfab2b853f4201ecc5850,2022-06-29_09h09.46.005,Colour_Asymmetry_Pilot,2022.1.3,Win32,144.0092166,62bbe60bf3d75ef465d3e404,,,,,,,,,,,,,,,,,,,,,,,,,,,,,,,,,,,,,,,,,,,,,,,,,,,,,,,,,,,,,,,,,,,,,,,,,,,,,,,,,,,,,,,,,,,,,,,,,,,,,,,,,,,,,,,,,,,,,,,,,,,,,,,,,,,,,,,,,,,,,,,,,,,,,,,,,,,,,
0,2,2,42,1,,6013162277aab7174f7dad94,62bbfab2b853f4201ecc5850,2022-06-29_09h09.46.005,Colour_Asymmetry_Pilot,2022.1.3,Win32,144.0092166,62bbe60bf3d75ef465d3e404,,,,,,,,,,,,,,,,,,,,,,,,,,,,,,,,,,,,,,,,,,,,,,,,,,,,,,,,,,,,,,,,,,,,,,,,,,,,,,,,,,,,,,,,,,,,,,,,,,,,,,,,,,,,,,,,,,,,,,,,,,,,,,,,,,,,,,,,,,,,,,,,,,,,,,,,,,,,,
0,3,3,70,1,,6013162277aab7174f7dad94,62bbfab2b853f4201ecc5850,2022-06-29_09h09.46.005,Colour_Asymmetry_Pilot,2022.1.3,Win32,144.0092166,62bbe60bf3d75ef465d3e404,,,,,,,,,,,,,,,,,,,,,,,,,,,,,,,,,,,,,,,,,,,,,,,,,,,,,,,,,,,,,,,,,,,,,,,,,,,,,,,,,,,,,,,,,,,,,,,,,,,,,,,,,,,,,,,,,,,,,,,,,,,,,,,,,,,,,,,,,,,,,,,,,,,,,,,,,,,,,
0,4,4,46,1,,6013162277aab7174f7dad94,62bbfab2b853f4201ecc5850,2022-06-29_09h09.46.005,Colour_Asymmetry_Pilot,2022.1.3,Win32,144.0092166,62bbe60bf3d75ef465d3e404,,,,,,,,,,,,,,,,,,,,,,,,,,,,,,,,,,,,,,,,,,,,,,,,,,,,,,,,,,,,,,,,,,,,,,,,,,,,,,,,,,,,,,,,,,,,,,,,,,,,,,,,,,,,,,,,,,,,,,,,,,,,,,,,,,,,,,,,,,,,,,,,,,,,,,,,,,,,,
0,5,5,39,1,,6013162277aab7174f7dad94,62bbfab2b853f4201ecc5850,2022-06-29_09h09.46.005,Colour_Asymmetry_Pilot,2022.1.3,Win32,144.0092166,62bbe60bf3d75ef465d3e404,,,,,,,,,,,,,,,,,,,,,,,,,,,,,,,,,,,,,,,,,,,,,,,,,,,,,,,,,,,,,,,,,,,,,,,,,,,,,,,,,,,,,,,,,,,,,,,,,,,,,,,,,,,,,,,,,,,,,,,,,,,,,,,,,,,,,,,,,,,,,,,,,,,,,,,,,,,,,
0,6,6,61,1,,6013162277aab7174f7dad94,62bbfab2b853f4201ecc5850,2022-06-29_09h09.46.005,Colour_Asymmetry_Pilot,2022.1.3,Win32,144.0092166,62bbe60bf3d75ef465d3e404,,,,,,,,,,,,,,,,,,,,,,,,,,,,,,,,,,,,,,,,,,,,,,,,,,,,,,,,,,,,,,,,,,,,,,,,,,,,,,,,,,,,,,,,,,,,,,,,,,,,,,,,,,,,,,,,,,,,,,,,,,,,,,,,,,,,,,,,,,,,,,,,,,,,,,,,,,,,,
0,7,7,69,1,,6013162277aab7174f7dad94,62bbfab2b853f4201ecc5850,2022-06-29_09h09.46.005,Colour_Asymmetry_Pilot,2022.1.3,Win32,144.0092166,62bbe60bf3d75ef465d3e404,,,,,,,,,,,,,,,,,,,,,,,,,,,,,,,,,,,,,,,,,,,,,,,,,,,,,,,,,,,,,,,,,,,,,,,,,,,,,,,,,,,,,,,,,,,,,,,,,,,,,,,,,,,,,,,,,,,,,,,,,,,,,,,,,,,,,,,,,,,,,,,,,,,,,,,,,,,,,
0,8,8,64,1,,6013162277aab7174f7dad94,62bbfab2b853f4201ecc5850,2022-06-29_09h09.46.005,Colour_Asymmetry_Pilot,2022.1.3,Win32,144.0092166,62bbe60bf3d75ef465d3e404,,,,,,,,,,,,,,,,,,,,,,,,,,,,,,,,,,,,,,,,,,,,,,,,,,,,,,,,,,,,,,,,,,,,,,,,,,,,,,,,,,,,,,,,,,,,,,,,,,,,,,,,,,,,,,,,,,,,,,,,,,,,,,,,,,,,,,,,,,,,,,,,,,,,,,,,,,,,,
0,9,9,21,1,,6013162277aab7174f7dad94,62bbfab2b853f4201ecc5850,2022-06-29_09h09.46.005,Colour_Asymmetry_Pilot,2022.1.3,Win32,144.0092166,62bbe60bf3d75ef465d3e404,,,,,,,,,,,,,,,,,,,,,,,,,,,,,,,,,,,,,,,,,,,,,,,,,,,,,,,,,,,,,,,,,,,,,,,,,,,,,,,,,,,,,,,,,,,,,,,,,,,,,,,,,,,,,,,,,,,,,,,,,,,,,,,,,,,,,,,,,,,,,,,,,,,,,,,,,,,,,
0,10,10,36,1,,6013162277aab7174f7dad94,62bbfab2b853f4201ecc5850,2022-06-29_09h09.46.005,Colour_Asymmetry_Pilot,2022.1.3,Win32,144.0092166,62bbe60bf3d75ef465d3e404,,,,,,,,,,,,,,,,,,,,,,,,,,,,,,,,,,,,,,,,,,,,,,,,,,,,,,,,,,,,,,,,,,,,,,,,,,,,,,,,,,,,,,,,,,,,,,,,,,,,,,,,,,,,,,,,,,,,,,,,,,,,,,,,,,,,,,,,,,,,,,,,,,,,,,,,,,,,,
0,11,11,18,1,,6013162277aab7174f7dad94,62bbfab2b853f4201ecc5850,2022-06-29_09h09.46.005,Colour_Asymmetry_Pilot,2022.1.3,Win32,144.0092166,62bbe60bf3d75ef465d3e404,,,,,,,,,,,,,,,,,,,,,,,,,,,,,,,,,,,,,,,,,,,,,,,,,,,,,,,,,,,,,,,,,,,,,,,,,,,,,,,,,,,,,,,,,,,,,,,,,,,,,,,,,,,,,,,,,,,,,,,,,,,,,,,,,,,,,,,,,,,,,,,,,,,,,,,,,,,,,
0,12,12,56,1,,6013162277aab7174f7dad94,62bbfab2b853f4201ecc5850,2022-06-29_09h09.46.005,Colour_Asymmetry_Pilot,2022.1.3,Win32,144.0092166,62bbe60bf3d75ef465d3e404,,,,,,,,,,,,,,,,,,,,,,,,,,,,,,,,,,,,,,,,,,,,,,,,,,,,,,,,,,,,,,,,,,,,,,,,,,,,,,,,,,,,,,,,,,,,,,,,,,,,,,,,,,,,,,,,,,,,,,,,,,,,,,,,,,,,,,,,,,,,,,,,,,,,,,,,,,,,,
0,13,13,66,1,,6013162277aab7174f7dad94,62bbfab2b853f4201ecc5850,2022-06-29_09h09.46.005,Colour_Asymmetry_Pilot,2022.1.3,Win32,144.0092166,62bbe60bf3d75ef465d3e404,,,,,,,,,,,,,,,,,,,,,,,,,,,,,,,,,,,,,,,,,,,,,,,,,,,,,,,,,,,,,,,,,,,,,,,,,,,,,,,,,,,,,,,,,,,,,,,,,,,,,,,,,,,,,,,,,,,,,,,,,,,,,,,,,,,,,,,,,,,,,,,,,,,,,,,,,,,,,
0,14,14,51,1,,6013162277aab7174f7dad94,62bbfab2b853f4201ecc5850,2022-06-29_09h09.46.005,Colour_Asymmetry_Pilot,2022.1.3,Win32,144.0092166,62bbe60bf3d75ef465d3e404,,,,,,,,,,,,,,,,,,,,,,,,,,,,,,,,,,,,,,,,,,,,,,,,,,,,,,,,,,,,,,,,,,,,,,,,,,,,,,,,,,,,,,,,,,,,,,,,,,,,,,,,,,,,,,,,,,,,,,,,,,,,,,,,,,,,,,,,,,,,,,,,,,,,,,,,,,,,,
0,15,15,45,1,,6013162277aab7174f7dad94,62bbfab2b853f4201ecc5850,2022-06-29_09h09.46.005,Colour_Asymmetry_Pilot,2022.1.3,Win32,144.0092166,62bbe60bf3d75ef465d3e404,,,,,,,,,,,,,,,,,,,,,,,,,,,,,,,,,,,,,,,,,,,,,,,,,,,,,,,,,,,,,,,,,,,,,,,,,,,,,,,,,,,,,,,,,,,,,,,,,,,,,,,,,,,,,,,,,,,,,,,,,,,,,,,,,,,,,,,,,,,,,,,,,,,,,,,,,,,,,
0,16,16,57,1,,6013162277aab7174f7dad94,62bbfab2b853f4201ecc5850,2022-06-29_09h09.46.005,Colour_Asymmetry_Pilot,2022.1.3,Win32,144.0092166,62bbe60bf3d75ef465d3e404,,,,,,,,,,,,,,,,,,,,,,,,,,,,,,,,,,,,,,,,,,,,,,,,,,,,,,,,,,,,,,,,,,,,,,,,,,,,,,,,,,,,,,,,,,,,,,,,,,,,,,,,,,,,,,,,,,,,,,,,,,,,,,,,,,,,,,,,,,,,,,,,,,,,,,,,,,,,,
0,17,17,71,1,,6013162277aab7174f7dad94,62bbfab2b853f4201ecc5850,2022-06-29_09h09.46.005,Colour_Asymmetry_Pilot,2022.1.3,Win32,144.0092166,62bbe60bf3d75ef465d3e404,,,,,,,,,,,,,,,,,,,,,,,,,,,,,,,,,,,,,,,,,,,,,,,,,,,,,,,,,,,,,,,,,,,,,,,,,,,,,,,,,,,,,,,,,,,,,,,,,,,,,,,,,,,,,,,,,,,,,,,,,,,,,,,,,,,,,,,,,,,,,,,,,,,,,,,,,,,,,
0,18,18,27,1,,6013162277aab7174f7dad94,62bbfab2b853f4201ecc5850,2022-06-29_09h09.46.005,Colour_Asymmetry_Pilot,2022.1.3,Win32,144.0092166,62bbe60bf3d75ef465d3e404,,,,,,,,,,,,,,,,,,,,,,,,,,,,,,,,,,,,,,,,,,,,,,,,,,,,,,,,,,,,,,,,,,,,,,,,,,,,,,,,,,,,,,,,,,,,,,,,,,,,,,,,,,,,,,,,,,,,,,,,,,,,,,,,,,,,,,,,,,,,,,,,,,,,,,,,,,,,,
0,19,19,32,1,,6013162277aab7174f7dad94,62bbfab2b853f4201ecc5850,2022-06-29_09h09.46.005,Colour_Asymmetry_Pilot,2022.1.3,Win32,144.0092166,62bbe60bf3d75ef465d3e404,,,,,,,,,,,,,,,,,,,,,,,,,,,,,,,,,,,,,,,,,,,,,,,,,,,,,,,,,,,,,,,,,,,,,,,,,,,,,,,,,,,,,,,,,,,,,,,,,,,,,,,,,,,,,,,,,,,,,,,,,,,,,,,,,,,,,,,,,,,,,,,,,,,,,,,,,,,,,
0,20,20,60,1,,6013162277aab7174f7dad94,62bbfab2b853f4201ecc5850,2022-06-29_09h09.46.005,Colour_Asymmetry_Pilot,2022.1.3,Win32,144.0092166,62bbe60bf3d75ef465d3e404,,,,,,,,,,,,,,,,,,,,,,,,,,,,,,,,,,,,,,,,,,,,,,,,,,,,,,,,,,,,,,,,,,,,,,,,,,,,,,,,,,,,,,,,,,,,,,,,,,,,,,,,,,,,,,,,,,,,,,,,,,,,,,,,,,,,,,,,,,,,,,,,,,,,,,,,,,,,,
0,21,21,63,1,,6013162277aab7174f7dad94,62bbfab2b853f4201ecc5850,2022-06-29_09h09.46.005,Colour_Asymmetry_Pilot,2022.1.3,Win32,144.0092166,62bbe60bf3d75ef465d3e404,,,,,,,,,,,,,,,,,,,,,,,,,,,,,,,,,,,,,,,,,,,,,,,,,,,,,,,,,,,,,,,,,,,,,,,,,,,,,,,,,,,,,,,,,,,,,,,,,,,,,,,,,,,,,,,,,,,,,,,,,,,,,,,,,,,,,,,,,,,,,,,,,,,,,,,,,,,,,
0,22,22,19,1,,6013162277aab7174f7dad94,62bbfab2b853f4201ecc5850,2022-06-29_09h09.46.005,Colour_Asymmetry_Pilot,2022.1.3,Win32,144.0092166,62bbe60bf3d75ef465d3e404,,,,,,,,,,,,,,,,,,,,,,,,,,,,,,,,,,,,,,,,,,,,,,,,,,,,,,,,,,,,,,,,,,,,,,,,,,,,,,,,,,,,,,,,,,,,,,,,,,,,,,,,,,,,,,,,,,,,,,,,,,,,,,,,,,,,,,,,,,,,,,,,,,,,,,,,,,,,,
0,23,23,83,1,,6013162277aab7174f7dad94,62bbfab2b853f4201ecc5850,2022-06-29_09h09.46.005,Colour_Asymmetry_Pilot,2022.1.3,Win32,144.0092166,62bbe60bf3d75ef465d3e404,,,,,,,,,,,,,,,,,,,,,,,,,,,,,,,,,,,,,,,,,,,,,,,,,,,,,,,,,,,,,,,,,,,,,,,,,,,,,,,,,,,,,,,,,,,,,,,,,,,,,,,,,,,,,,,,,,,,,,,,,,,,,,,,,,,,,,,,,,,,,,,,,,,,,,,,,,,,,
0,24,24,20,1,,6013162277aab7174f7dad94,62bbfab2b853f4201ecc5850,2022-06-29_09h09.46.005,Colour_Asymmetry_Pilot,2022.1.3,Win32,144.0092166,62bbe60bf3d75ef465d3e404,,,,,,,,,,,,,,,,,,,,,,,,,,,,,,,,,,,,,,,,,,,,,,,,,,,,,,,,,,,,,,,,,,,,,,,,,,,,,,,,,,,,,,,,,,,,,,,,,,,,,,,,,,,,,,,,,,,,,,,,,,,,,,,,,,,,,,,,,,,,,,,,,,,,,,,,,,,,,
0,25,25,53,1,,6013162277aab7174f7dad94,62bbfab2b853f4201ecc5850,2022-06-29_09h09.46.005,Colour_Asymmetry_Pilot,2022.1.3,Win32,144.0092166,62bbe60bf3d75ef465d3e404,,,,,,,,,,,,,,,,,,,,,,,,,,,,,,,,,,,,,,,,,,,,,,,,,,,,,,,,,,,,,,,,,,,,,,,,,,,,,,,,,,,,,,,,,,,,,,,,,,,,,,,,,,,,,,,,,,,,,,,,,,,,,,,,,,,,,,,,,,,,,,,,,,,,,,,,,,,,,
0,26,26,79,1,,6013162277aab7174f7dad94,62bbfab2b853f4201ecc5850,2022-06-29_09h09.46.005,Colour_Asymmetry_Pilot,2022.1.3,Win32,144.0092166,62bbe60bf3d75ef465d3e404,,,,,,,,,,,,,,,,,,,,,,,,,,,,,,,,,,,,,,,,,,,,,,,,,,,,,,,,,,,,,,,,,,,,,,,,,,,,,,,,,,,,,,,,,,,,,,,,,,,,,,,,,,,,,,,,,,,,,,,,,,,,,,,,,,,,,,,,,,,,,,,,,,,,,,,,,,,,,
0,27,27,77,1,,6013162277aab7174f7dad94,62bbfab2b853f4201ecc5850,2022-06-29_09h09.46.005,Colour_Asymmetry_Pilot,2022.1.3,Win32,144.0092166,62bbe60bf3d75ef465d3e404,,,,,,,,,,,,,,,,,,,,,,,,,,,,,,,,,,,,,,,,,,,,,,,,,,,,,,,,,,,,,,,,,,,,,,,,,,,,,,,,,,,,,,,,,,,,,,,,,,,,,,,,,,,,,,,,,,,,,,,,,,,,,,,,,,,,,,,,,,,,,,,,,,,,,,,,,,,,,
0,28,28,40,1,,6013162277aab7174f7dad94,62bbfab2b853f4201ecc5850,2022-06-29_09h09.46.005,Colour_Asymmetry_Pilot,2022.1.3,Win32,144.0092166,62bbe60bf3d75ef465d3e404,,,,,,,,,,,,,,,,,,,,,,,,,,,,,,,,,,,,,,,,,,,,,,,,,,,,,,,,,,,,,,,,,,,,,,,,,,,,,,,,,,,,,,,,,,,,,,,,,,,,,,,,,,,,,,,,,,,,,,,,,,,,,,,,,,,,,,,,,,,,,,,,,,,,,,,,,,,,,
0,29,29,11,1,,6013162277aab7174f7dad94,62bbfab2b853f4201ecc5850,2022-06-29_09h09.46.005,Colour_Asymmetry_Pilot,2022.1.3,Win32,144.0092166,62bbe60bf3d75ef465d3e404,,,,,,,,,,,,,,,,,,,,,,,,,,,,,,,,,,,,,,,,,,,,,,,,,,,,,,,,,,,,,,,,,,,,,,,,,,,,,,,,,,,,,,,,,,,,,,,,,,,,,,,,,,,,,,,,,,,,,,,,,,,,,,,,,,,,,,,,,,,,,,,,,,,,,,,,,,,,,
0,30,30,59,1,,6013162277aab7174f7dad94,62bbfab2b853f4201ecc5850,2022-06-29_09h09.46.005,Colour_Asymmetry_Pilot,2022.1.3,Win32,144.0092166,62bbe60bf3d75ef465d3e404,,,,,,,,,,,,,,,,,,,,,,,,,,,,,,,,,,,,,,,,,,,,,,,,,,,,,,,,,,,,,,,,,,,,,,,,,,,,,,,,,,,,,,,,,,,,,,,,,,,,,,,,,,,,,,,,,,,,,,,,,,,,,,,,,,,,,,,,,,,,,,,,,,,,,,,,,,,,,
0,31,31,12,1,,6013162277aab7174f7dad94,62bbfab2b853f4201ecc5850,2022-06-29_09h09.46.005,Colour_Asymmetry_Pilot,2022.1.3,Win32,144.0092166,62bbe60bf3d75ef465d3e404,,,,,,,,,,,,,,,,,,,,,,,,,,,,,,,,,,,,,,,,,,,,,,,,,,,,,,,,,,,,,,,,,,,,,,,,,,,,,,,,,,,,,,,,,,,,,,,,,,,,,,,,,,,,,,,,,,,,,,,,,,,,,,,,,,,,,,,,,,,,,,,,,,,,,,,,,,,,,
0,32,32,23,1,,6013162277aab7174f7dad94,62bbfab2b853f4201ecc5850,2022-06-29_09h09.46.005,Colour_Asymmetry_Pilot,2022.1.3,Win32,144.0092166,62bbe60bf3d75ef465d3e404,,,,,,,,,,,,,,,,,,,,,,,,,,,,,,,,,,,,,,,,,,,,,,,,,,,,,,,,,,,,,,,,,,,,,,,,,,,,,,,,,,,,,,,,,,,,,,,,,,,,,,,,,,,,,,,,,,,,,,,,,,,,,,,,,,,,,,,,,,,,,,,,,,,,,,,,,,,,,
0,33,33,24,1,,6013162277aab7174f7dad94,62bbfab2b853f4201ecc5850,2022-06-29_09h09.46.005,Colour_Asymmetry_Pilot,2022.1.3,Win32,144.0092166,62bbe60bf3d75ef465d3e404,,,,,,,,,,,,,,,,,,,,,,,,,,,,,,,,,,,,,,,,,,,,,,,,,,,,,,,,,,,,,,,,,,,,,,,,,,,,,,,,,,,,,,,,,,,,,,,,,,,,,,,,,,,,,,,,,,,,,,,,,,,,,,,,,,,,,,,,,,,,,,,,,,,,,,,,,,,,,
0,34,34,58,1,,6013162277aab7174f7dad94,62bbfab2b853f4201ecc5850,2022-06-29_09h09.46.005,Colour_Asymmetry_Pilot,2022.1.3,Win32,144.0092166,62bbe60bf3d75ef465d3e404,,,,,,,,,,,,,,,,,,,,,,,,,,,,,,,,,,,,,,,,,,,,,,,,,,,,,,,,,,,,,,,,,,,,,,,,,,,,,,,,,,,,,,,,,,,,,,,,,,,,,,,,,,,,,,,,,,,,,,,,,,,,,,,,,,,,,,,,,,,,,,,,,,,,,,,,,,,,,
0,35,35,8,1,,6013162277aab7174f7dad94,62bbfab2b853f4201ecc5850,2022-06-29_09h09.46.005,Colour_Asymmetry_Pilot,2022.1.3,Win32,144.0092166,62bbe60bf3d75ef465d3e404,,,,,,,,,,,,,,,,,,,,,,,,,,,,,,,,,,,,,,,,,,,,,,,,,,,,,,,,,,,,,,,,,,,,,,,,,,,,,,,,,,,,,,,,,,,,,,,,,,,,,,,,,,,,,,,,,,,,,,,,,,,,,,,,,,,,,,,,,,,,,,,,,,,,,,,,,,,,,
0,36,36,47,1,,6013162277aab7174f7dad94,62bbfab2b853f4201ecc5850,2022-06-29_09h09.46.005,Colour_Asymmetry_Pilot,2022.1.3,Win32,144.0092166,62bbe60bf3d75ef465d3e404,,,,,,,,,,,,,,,,,,,,,,,,,,,,,,,,,,,,,,,,,,,,,,,,,,,,,,,,,,,,,,,,,,,,,,,,,,,,,,,,,,,,,,,,,,,,,,,,,,,,,,,,,,,,,,,,,,,,,,,,,,,,,,,,,,,,,,,,,,,,,,,,,,,,,,,,,,,,,
0,37,37,2,1,,6013162277aab7174f7dad94,62bbfab2b853f4201ecc5850,2022-06-29_09h09.46.005,Colour_Asymmetry_Pilot,2022.1.3,Win32,144.0092166,62bbe60bf3d75ef465d3e404,,,,,,,,,,,,,,,,,,,,,,,,,,,,,,,,,,,,,,,,,,,,,,,,,,,,,,,,,,,,,,,,,,,,,,,,,,,,,,,,,,,,,,,,,,,,,,,,,,,,,,,,,,,,,,,,,,,,,,,,,,,,,,,,,,,,,,,,,,,,,,,,,,,,,,,,,,,,,
0,38,38,33,1,,6013162277aab7174f7dad94,62bbfab2b853f4201ecc5850,2022-06-29_09h09.46.005,Colour_Asymmetry_Pilot,2022.1.3,Win32,144.0092166,62bbe60bf3d75ef465d3e404,,,,,,,,,,,,,,,,,,,,,,,,,,,,,,,,,,,,,,,,,,,,,,,,,,,,,,,,,,,,,,,,,,,,,,,,,,,,,,,,,,,,,,,,,,,,,,,,,,,,,,,,,,,,,,,,,,,,,,,,,,,,,,,,,,,,,,,,,,,,,,,,,,,,,,,,,,,,,
0,39,39,26,1,,6013162277aab7174f7dad94,62bbfab2b853f4201ecc5850,2022-06-29_09h09.46.005,Colour_Asymmetry_Pilot,2022.1.3,Win32,144.0092166,62bbe60bf3d75ef465d3e404,,,,,,,,,,,,,,,,,,,,,,,,,,,,,,,,,,,,,,,,,,,,,,,,,,,,,,,,,,,,,,,,,,,,,,,,,,,,,,,,,,,,,,,,,,,,,,,,,,,,,,,,,,,,,,,,,,,,,,,,,,,,,,,,,,,,,,,,,,,,,,,,,,,,,,,,,,,,,
0,40,40,22,1,,6013162277aab7174f7dad94,62bbfab2b853f4201ecc5850,2022-06-29_09h09.46.005,Colour_Asymmetry_Pilot,2022.1.3,Win32,144.0092166,62bbe60bf3d75ef465d3e404,,,,,,,,,,,,,,,,,,,,,,,,,,,,,,,,,,,,,,,,,,,,,,,,,,,,,,,,,,,,,,,,,,,,,,,,,,,,,,,,,,,,,,,,,,,,,,,,,,,,,,,,,,,,,,,,,,,,,,,,,,,,,,,,,,,,,,,,,,,,,,,,,,,,,,,,,,,,,
0,41,41,75,1,,6013162277aab7174f7dad94,62bbfab2b853f4201ecc5850,2022-06-29_09h09.46.005,Colour_Asymmetry_Pilot,2022.1.3,Win32,144.0092166,62bbe60bf3d75ef465d3e404,,,,,,,,,,,,,,,,,,,,,,,,,,,,,,,,,,,,,,,,,,,,,,,,,,,,,,,,,,,,,,,,,,,,,,,,,,,,,,,,,,,,,,,,,,,,,,,,,,,,,,,,,,,,,,,,,,,,,,,,,,,,,,,,,,,,,,,,,,,,,,,,,,,,,,,,,,,,,
0,42,42,44,1,,6013162277aab7174f7dad94,62bbfab2b853f4201ecc5850,2022-06-29_09h09.46.005,Colour_Asymmetry_Pilot,2022.1.3,Win32,144.0092166,62bbe60bf3d75ef465d3e404,,,,,,,,,,,,,,,,,,,,,,,,,,,,,,,,,,,,,,,,,,,,,,,,,,,,,,,,,,,,,,,,,,,,,,,,,,,,,,,,,,,,,,,,,,,,,,,,,,,,,,,,,,,,,,,,,,,,,,,,,,,,,,,,,,,,,,,,,,,,,,,,,,,,,,,,,,,,,
0,43,43,86,1,,6013162277aab7174f7dad94,62bbfab2b853f4201ecc5850,2022-06-29_09h09.46.005,Colour_Asymmetry_Pilot,2022.1.3,Win32,144.0092166,62bbe60bf3d75ef465d3e404,,,,,,,,,,,,,,,,,,,,,,,,,,,,,,,,,,,,,,,,,,,,,,,,,,,,,,,,,,,,,,,,,,,,,,,,,,,,,,,,,,,,,,,,,,,,,,,,,,,,,,,,,,,,,,,,,,,,,,,,,,,,,,,,,,,,,,,,,,,,,,,,,,,,,,,,,,,,,
0,44,44,43,1,,6013162277aab7174f7dad94,62bbfab2b853f4201ecc5850,2022-06-29_09h09.46.005,Colour_Asymmetry_Pilot,2022.1.3,Win32,144.0092166,62bbe60bf3d75ef465d3e404,,,,,,,,,,,,,,,,,,,,,,,,,,,,,,,,,,,,,,,,,,,,,,,,,,,,,,,,,,,,,,,,,,,,,,,,,,,,,,,,,,,,,,,,,,,,,,,,,,,,,,,,,,,,,,,,,,,,,,,,,,,,,,,,,,,,,,,,,,,,,,,,,,,,,,,,,,,,,
0,45,45,9,1,,6013162277aab7174f7dad94,62bbfab2b853f4201ecc5850,2022-06-29_09h09.46.005,Colour_Asymmetry_Pilot,2022.1.3,Win32,144.0092166,62bbe60bf3d75ef465d3e404,,,,,,,,,,,,,,,,,,,,,,,,,,,,,,,,,,,,,,,,,,,,,,,,,,,,,,,,,,,,,,,,,,,,,,,,,,,,,,,,,,,,,,,,,,,,,,,,,,,,,,,,,,,,,,,,,,,,,,,,,,,,,,,,,,,,,,,,,,,,,,,,,,,,,,,,,,,,,
0,46,46,6,1,,6013162277aab7174f7dad94,62bbfab2b853f4201ecc5850,2022-06-29_09h09.46.005,Colour_Asymmetry_Pilot,2022.1.3,Win32,144.0092166,62bbe60bf3d75ef465d3e404,,,,,,,,,,,,,,,,,,,,,,,,,,,,,,,,,,,,,,,,,,,,,,,,,,,,,,,,,,,,,,,,,,,,,,,,,,,,,,,,,,,,,,,,,,,,,,,,,,,,,,,,,,,,,,,,,,,,,,,,,,,,,,,,,,,,,,,,,,,,,,,,,,,,,,,,,,,,,
0,47,47,76,1,,6013162277aab7174f7dad94,62bbfab2b853f4201ecc5850,2022-06-29_09h09.46.005,Colour_Asymmetry_Pilot,2022.1.3,Win32,144.0092166,62bbe60bf3d75ef465d3e404,,,,,,,,,,,,,,,,,,,,,,,,,,,,,,,,,,,,,,,,,,,,,,,,,,,,,,,,,,,,,,,,,,,,,,,,,,,,,,,,,,,,,,,,,,,,,,,,,,,,,,,,,,,,,,,,,,,,,,,,,,,,,,,,,,,,,,,,,,,,,,,,,,,,,,,,,,,,,
0,48,48,49,1,,6013162277aab7174f7dad94,62bbfab2b853f4201ecc5850,2022-06-29_09h09.46.005,Colour_Asymmetry_Pilot,2022.1.3,Win32,144.0092166,62bbe60bf3d75ef465d3e404,,,,,,,,,,,,,,,,,,,,,,,,,,,,,,,,,,,,,,,,,,,,,,,,,,,,,,,,,,,,,,,,,,,,,,,,,,,,,,,,,,,,,,,,,,,,,,,,,,,,,,,,,,,,,,,,,,,,,,,,,,,,,,,,,,,,,,,,,,,,,,,,,,,,,,,,,,,,,
0,49,49,92,1,,6013162277aab7174f7dad94,62bbfab2b853f4201ecc5850,2022-06-29_09h09.46.005,Colour_Asymmetry_Pilot,2022.1.3,Win32,144.0092166,62bbe60bf3d75ef465d3e404,,,,,,,,,,,,,,,,,,,,,,,,,,,,,,,,,,,,,,,,,,,,,,,,,,,,,,,,,,,,,,,,,,,,,,,,,,,,,,,,,,,,,,,,,,,,,,,,,,,,,,,,,,,,,,,,,,,,,,,,,,,,,,,,,,,,,,,,,,,,,,,,,,,,,,,,,,,,,
0,50,50,34,1,,6013162277aab7174f7dad94,62bbfab2b853f4201ecc5850,2022-06-29_09h09.46.005,Colour_Asymmetry_Pilot,2022.1.3,Win32,144.0092166,62bbe60bf3d75ef465d3e404,,,,,,,,,,,,,,,,,,,,,,,,,,,,,,,,,,,,,,,,,,,,,,,,,,,,,,,,,,,,,,,,,,,,,,,,,,,,,,,,,,,,,,,,,,,,,,,,,,,,,,,,,,,,,,,,,,,,,,,,,,,,,,,,,,,,,,,,,,,,,,,,,,,,,,,,,,,,,
0,51,51,67,1,,6013162277aab7174f7dad94,62bbfab2b853f4201ecc5850,2022-06-29_09h09.46.005,Colour_Asymmetry_Pilot,2022.1.3,Win32,144.0092166,62bbe60bf3d75ef465d3e404,,,,,,,,,,,,,,,,,,,,,,,,,,,,,,,,,,,,,,,,,,,,,,,,,,,,,,,,,,,,,,,,,,,,,,,,,,,,,,,,,,,,,,,,,,,,,,,,,,,,,,,,,,,,,,,,,,,,,,,,,,,,,,,,,,,,,,,,,,,,,,,,,,,,,,,,,,,,,
0,52,52,91,1,,6013162277aab7174f7dad94,62bbfab2b853f4201ecc5850,2022-06-29_09h09.46.005,Colour_Asymmetry_Pilot,2022.1.3,Win32,144.0092166,62bbe60bf3d75ef465d3e404,,,,,,,,,,,,,,,,,,,,,,,,,,,,,,,,,,,,,,,,,,,,,,,,,,,,,,,,,,,,,,,,,,,,,,,,,,,,,,,,,,,,,,,,,,,,,,,,,,,,,,,,,,,,,,,,,,,,,,,,,,,,,,,,,,,,,,,,,,,,,,,,,,,,,,,,,,,,,
0,53,53,29,1,,6013162277aab7174f7dad94,62bbfab2b853f4201ecc5850,2022-06-29_09h09.46.005,Colour_Asymmetry_Pilot,2022.1.3,Win32,144.0092166,62bbe60bf3d75ef465d3e404,,,,,,,,,,,,,,,,,,,,,,,,,,,,,,,,,,,,,,,,,,,,,,,,,,,,,,,,,,,,,,,,,,,,,,,,,,,,,,,,,,,,,,,,,,,,,,,,,,,,,,,,,,,,,,,,,,,,,,,,,,,,,,,,,,,,,,,,,,,,,,,,,,,,,,,,,,,,,
0,54,54,55,1,,6013162277aab7174f7dad94,62bbfab2b853f4201ecc5850,2022-06-29_09h09.46.005,Colour_Asymmetry_Pilot,2022.1.3,Win32,144.0092166,62bbe60bf3d75ef465d3e404,,,,,,,,,,,,,,,,,,,,,,,,,,,,,,,,,,,,,,,,,,,,,,,,,,,,,,,,,,,,,,,,,,,,,,,,,,,,,,,,,,,,,,,,,,,,,,,,,,,,,,,,,,,,,,,,,,,,,,,,,,,,,,,,,,,,,,,,,,,,,,,,,,,,,,,,,,,,,
0,55,55,87,1,,6013162277aab7174f7dad94,62bbfab2b853f4201ecc5850,2022-06-29_09h09.46.005,Colour_Asymmetry_Pilot,2022.1.3,Win32,144.0092166,62bbe60bf3d75ef465d3e404,,,,,,,,,,,,,,,,,,,,,,,,,,,,,,,,,,,,,,,,,,,,,,,,,,,,,,,,,,,,,,,,,,,,,,,,,,,,,,,,,,,,,,,,,,,,,,,,,,,,,,,,,,,,,,,,,,,,,,,,,,,,,,,,,,,,,,,,,,,,,,,,,,,,,,,,,,,,,
0,56,56,54,1,,6013162277aab7174f7dad94,62bbfab2b853f4201ecc5850,2022-06-29_09h09.46.005,Colour_Asymmetry_Pilot,2022.1.3,Win32,144.0092166,62bbe60bf3d75ef465d3e404,,,,,,,,,,,,,,,,,,,,,,,,,,,,,,,,,,,,,,,,,,,,,,,,,,,,,,,,,,,,,,,,,,,,,,,,,,,,,,,,,,,,,,,,,,,,,,,,,,,,,,,,,,,,,,,,,,,,,,,,,,,,,,,,,,,,,,,,,,,,,,,,,,,,,,,,,,,,,
0,57,57,52,1,,6013162277aab7174f7dad94,62bbfab2b853f4201ecc5850,2022-06-29_09h09.46.005,Colour_Asymmetry_Pilot,2022.1.3,Win32,144.0092166,62bbe60bf3d75ef465d3e404,,,,,,,,,,,,,,,,,,,,,,,,,,,,,,,,,,,,,,,,,,,,,,,,,,,,,,,,,,,,,,,,,,,,,,,,,,,,,,,,,,,,,,,,,,,,,,,,,,,,,,,,,,,,,,,,,,,,,,,,,,,,,,,,,,,,,,,,,,,,,,,,,,,,,,,,,,,,,
0,58,58,73,1,,6013162277aab7174f7dad94,62bbfab2b853f4201ecc5850,2022-06-29_09h09.46.005,Colour_Asymmetry_Pilot,2022.1.3,Win32,144.0092166,62bbe60bf3d75ef465d3e404,,,,,,,,,,,,,,,,,,,,,,,,,,,,,,,,,,,,,,,,,,,,,,,,,,,,,,,,,,,,,,,,,,,,,,,,,,,,,,,,,,,,,,,,,,,,,,,,,,,,,,,,,,,,,,,,,,,,,,,,,,,,,,,,,,,,,,,,,,,,,,,,,,,,,,,,,,,,,
0,59,59,41,1,,6013162277aab7174f7dad94,62bbfab2b853f4201ecc5850,2022-06-29_09h09.46.005,Colour_Asymmetry_Pilot,2022.1.3,Win32,144.0092166,62bbe60bf3d75ef465d3e404,,,,,,,,,,,,,,,,,,,,,,,,,,,,,,,,,,,,,,,,,,,,,,,,,,,,,,,,,,,,,,,,,,,,,,,,,,,,,,,,,,,,,,,,,,,,,,,,,,,,,,,,,,,,,,,,,,,,,,,,,,,,,,,,,,,,,,,,,,,,,,,,,,,,,,,,,,,,,
0,60,60,28,1,,6013162277aab7174f7dad94,62bbfab2b853f4201ecc5850,2022-06-29_09h09.46.005,Colour_Asymmetry_Pilot,2022.1.3,Win32,144.0092166,62bbe60bf3d75ef465d3e404,,,,,,,,,,,,,,,,,,,,,,,,,,,,,,,,,,,,,,,,,,,,,,,,,,,,,,,,,,,,,,,,,,,,,,,,,,,,,,,,,,,,,,,,,,,,,,,,,,,,,,,,,,,,,,,,,,,,,,,,,,,,,,,,,,,,,,,,,,,,,,,,,,,,,,,,,,,,,
0,61,61,5,1,,6013162277aab7174f7dad94,62bbfab2b853f4201ecc5850,2022-06-29_09h09.46.005,Colour_Asymmetry_Pilot,2022.1.3,Win32,144.0092166,62bbe60bf3d75ef465d3e404,,,,,,,,,,,,,,,,,,,,,,,,,,,,,,,,,,,,,,,,,,,,,,,,,,,,,,,,,,,,,,,,,,,,,,,,,,,,,,,,,,,,,,,,,,,,,,,,,,,,,,,,,,,,,,,,,,,,,,,,,,,,,,,,,,,,,,,,,,,,,,,,,,,,,,,,,,,,,
0,62,62,82,1,,6013162277aab7174f7dad94,62bbfab2b853f4201ecc5850,2022-06-29_09h09.46.005,Colour_Asymmetry_Pilot,2022.1.3,Win32,144.0092166,62bbe60bf3d75ef465d3e404,,,,,,,,,,,,,,,,,,,,,,,,,,,,,,,,,,,,,,,,,,,,,,,,,,,,,,,,,,,,,,,,,,,,,,,,,,,,,,,,,,,,,,,,,,,,,,,,,,,,,,,,,,,,,,,,,,,,,,,,,,,,,,,,,,,,,,,,,,,,,,,,,,,,,,,,,,,,,
0,63,63,90,1,,6013162277aab7174f7dad94,62bbfab2b853f4201ecc5850,2022-06-29_09h09.46.005,Colour_Asymmetry_Pilot,2022.1.3,Win32,144.0092166,62bbe60bf3d75ef465d3e404,,,,,,,,,,,,,,,,,,,,,,,,,,,,,,,,,,,,,,,,,,,,,,,,,,,,,,,,,,,,,,,,,,,,,,,,,,,,,,,,,,,,,,,,,,,,,,,,,,,,,,,,,,,,,,,,,,,,,,,,,,,,,,,,,,,,,,,,,,,,,,,,,,,,,,,,,,,,,
0,64,64,88,1,,6013162277aab7174f7dad94,62bbfab2b853f4201ecc5850,2022-06-29_09h09.46.005,Colour_Asymmetry_Pilot,2022.1.3,Win32,144.0092166,62bbe60bf3d75ef465d3e404,,,,,,,,,,,,,,,,,,,,,,,,,,,,,,,,,,,,,,,,,,,,,,,,,,,,,,,,,,,,,,,,,,,,,,,,,,,,,,,,,,,,,,,,,,,,,,,,,,,,,,,,,,,,,,,,,,,,,,,,,,,,,,,,,,,,,,,,,,,,,,,,,,,,,,,,,,,,,
0,65,65,17,1,,6013162277aab7174f7dad94,62bbfab2b853f4201ecc5850,2022-06-29_09h09.46.005,Colour_Asymmetry_Pilot,2022.1.3,Win32,144.0092166,62bbe60bf3d75ef465d3e404,,,,,,,,,,,,,,,,,,,,,,,,,,,,,,,,,,,,,,,,,,,,,,,,,,,,,,,,,,,,,,,,,,,,,,,,,,,,,,,,,,,,,,,,,,,,,,,,,,,,,,,,,,,,,,,,,,,,,,,,,,,,,,,,,,,,,,,,,,,,,,,,,,,,,,,,,,,,,
0,66,66,72,1,,6013162277aab7174f7dad94,62bbfab2b853f4201ecc5850,2022-06-29_09h09.46.005,Colour_Asymmetry_Pilot,2022.1.3,Win32,144.0092166,62bbe60bf3d75ef465d3e404,,,,,,,,,,,,,,,,,,,,,,,,,,,,,,,,,,,,,,,,,,,,,,,,,,,,,,,,,,,,,,,,,,,,,,,,,,,,,,,,,,,,,,,,,,,,,,,,,,,,,,,,,,,,,,,,,,,,,,,,,,,,,,,,,,,,,,,,,,,,,,,,,,,,,,,,,,,,,
0,67,67,1,1,,6013162277aab7174f7dad94,62bbfab2b853f4201ecc5850,2022-06-29_09h09.46.005,Colour_Asymmetry_Pilot,2022.1.3,Win32,144.0092166,62bbe60bf3d75ef465d3e404,,,,,,,,,,,,,,,,,,,,,,,,,,,,,,,,,,,,,,,,,,,,,,,,,,,,,,,,,,,,,,,,,,,,,,,,,,,,,,,,,,,,,,,,,,,,,,,,,,,,,,,,,,,,,,,,,,,,,,,,,,,,,,,,,,,,,,,,,,,,,,,,,,,,,,,,,,,,,
0,68,68,13,1,,6013162277aab7174f7dad94,62bbfab2b853f4201ecc5850,2022-06-29_09h09.46.005,Colour_Asymmetry_Pilot,2022.1.3,Win32,144.0092166,62bbe60bf3d75ef465d3e404,,,,,,,,,,,,,,,,,,,,,,,,,,,,,,,,,,,,,,,,,,,,,,,,,,,,,,,,,,,,,,,,,,,,,,,,,,,,,,,,,,,,,,,,,,,,,,,,,,,,,,,,,,,,,,,,,,,,,,,,,,,,,,,,,,,,,,,,,,,,,,,,,,,,,,,,,,,,,
0,69,69,0,1,,6013162277aab7174f7dad94,62bbfab2b853f4201ecc5850,2022-06-29_09h09.46.005,Colour_Asymmetry_Pilot,2022.1.3,Win32,144.0092166,62bbe60bf3d75ef465d3e404,,,,,,,,,,,,,,,,,,,,,,,,,,,,,,,,,,,,,,,,,,,,,,,,,,,,,,,,,,,,,,,,,,,,,,,,,,,,,,,,,,,,,,,,,,,,,,,,,,,,,,,,,,,,,,,,,,,,,,,,,,,,,,,,,,,,,,,,,,,,,,,,,,,,,,,,,,,,,
0,70,70,84,1,,6013162277aab7174f7dad94,62bbfab2b853f4201ecc5850,2022-06-29_09h09.46.005,Colour_Asymmetry_Pilot,2022.1.3,Win32,144.0092166,62bbe60bf3d75ef465d3e404,,,,,,,,,,,,,,,,,,,,,,,,,,,,,,,,,,,,,,,,,,,,,,,,,,,,,,,,,,,,,,,,,,,,,,,,,,,,,,,,,,,,,,,,,,,,,,,,,,,,,,,,,,,,,,,,,,,,,,,,,,,,,,,,,,,,,,,,,,,,,,,,,,,,,,,,,,,,,
0,71,71,80,1,,6013162277aab7174f7dad94,62bbfab2b853f4201ecc5850,2022-06-29_09h09.46.005,Colour_Asymmetry_Pilot,2022.1.3,Win32,144.0092166,62bbe60bf3d75ef465d3e404,,,,,,,,,,,,,,,,,,,,,,,,,,,,,,,,,,,,,,,,,,,,,,,,,,,,,,,,,,,,,,,,,,,,,,,,,,,,,,,,,,,,,,,,,,,,,,,,,,,,,,,,,,,,,,,,,,,,,,,,,,,,,,,,,,,,,,,,,,,,,,,,,,,,,,,,,,,,,
0,72,72,68,1,,6013162277aab7174f7dad94,62bbfab2b853f4201ecc5850,2022-06-29_09h09.46.005,Colour_Asymmetry_Pilot,2022.1.3,Win32,144.0092166,62bbe60bf3d75ef465d3e404,,,,,,,,,,,,,,,,,,,,,,,,,,,,,,,,,,,,,,,,,,,,,,,,,,,,,,,,,,,,,,,,,,,,,,,,,,,,,,,,,,,,,,,,,,,,,,,,,,,,,,,,,,,,,,,,,,,,,,,,,,,,,,,,,,,,,,,,,,,,,,,,,,,,,,,,,,,,,
0,73,73,25,1,,6013162277aab7174f7dad94,62bbfab2b853f4201ecc5850,2022-06-29_09h09.46.005,Colour_Asymmetry_Pilot,2022.1.3,Win32,144.0092166,62bbe60bf3d75ef465d3e404,,,,,,,,,,,,,,,,,,,,,,,,,,,,,,,,,,,,,,,,,,,,,,,,,,,,,,,,,,,,,,,,,,,,,,,,,,,,,,,,,,,,,,,,,,,,,,,,,,,,,,,,,,,,,,,,,,,,,,,,,,,,,,,,,,,,,,,,,,,,,,,,,,,,,,,,,,,,,
0,74,74,4,1,,6013162277aab7174f7dad94,62bbfab2b853f4201ecc5850,2022-06-29_09h09.46.005,Colour_Asymmetry_Pilot,2022.1.3,Win32,144.0092166,62bbe60bf3d75ef465d3e404,,,,,,,,,,,,,,,,,,,,,,,,,,,,,,,,,,,,,,,,,,,,,,,,,,,,,,,,,,,,,,,,,,,,,,,,,,,,,,,,,,,,,,,,,,,,,,,,,,,,,,,,,,,,,,,,,,,,,,,,,,,,,,,,,,,,,,,,,,,,,,,,,,,,,,,,,,,,,
0,75,75,65,1,,6013162277aab7174f7dad94,62bbfab2b853f4201ecc5850,2022-06-29_09h09.46.005,Colour_Asymmetry_Pilot,2022.1.3,Win32,144.0092166,62bbe60bf3d75ef465d3e404,,,,,,,,,,,,,,,,,,,,,,,,,,,,,,,,,,,,,,,,,,,,,,,,,,,,,,,,,,,,,,,,,,,,,,,,,,,,,,,,,,,,,,,,,,,,,,,,,,,,,,,,,,,,,,,,,,,,,,,,,,,,,,,,,,,,,,,,,,,,,,,,,,,,,,,,,,,,,
0,76,76,10,1,,6013162277aab7174f7dad94,62bbfab2b853f4201ecc5850,2022-06-29_09h09.46.005,Colour_Asymmetry_Pilot,2022.1.3,Win32,144.0092166,62bbe60bf3d75ef465d3e404,,,,,,,,,,,,,,,,,,,,,,,,,,,,,,,,,,,,,,,,,,,,,,,,,,,,,,,,,,,,,,,,,,,,,,,,,,,,,,,,,,,,,,,,,,,,,,,,,,,,,,,,,,,,,,,,,,,,,,,,,,,,,,,,,,,,,,,,,,,,,,,,,,,,,,,,,,,,,
0,77,77,7,1,,6013162277aab7174f7dad94,62bbfab2b853f4201ecc5850,2022-06-29_09h09.46.005,Colour_Asymmetry_Pilot,2022.1.3,Win32,144.0092166,62bbe60bf3d75ef465d3e404,,,,,,,,,,,,,,,,,,,,,,,,,,,,,,,,,,,,,,,,,,,,,,,,,,,,,,,,,,,,,,,,,,,,,,,,,,,,,,,,,,,,,,,,,,,,,,,,,,,,,,,,,,,,,,,,,,,,,,,,,,,,,,,,,,,,,,,,,,,,,,,,,,,,,,,,,,,,,
0,78,78,30,1,,6013162277aab7174f7dad94,62bbfab2b853f4201ecc5850,2022-06-29_09h09.46.005,Colour_Asymmetry_Pilot,2022.1.3,Win32,144.0092166,62bbe60bf3d75ef465d3e404,,,,,,,,,,,,,,,,,,,,,,,,,,,,,,,,,,,,,,,,,,,,,,,,,,,,,,,,,,,,,,,,,,,,,,,,,,,,,,,,,,,,,,,,,,,,,,,,,,,,,,,,,,,,,,,,,,,,,,,,,,,,,,,,,,,,,,,,,,,,,,,,,,,,,,,,,,,,,
0,79,79,89,1,,6013162277aab7174f7dad94,62bbfab2b853f4201ecc5850,2022-06-29_09h09.46.005,Colour_Asymmetry_Pilot,2022.1.3,Win32,144.0092166,62bbe60bf3d75ef465d3e404,,,,,,,,,,,,,,,,,,,,,,,,,,,,,,,,,,,,,,,,,,,,,,,,,,,,,,,,,,,,,,,,,,,,,,,,,,,,,,,,,,,,,,,,,,,,,,,,,,,,,,,,,,,,,,,,,,,,,,,,,,,,,,,,,,,,,,,,,,,,,,,,,,,,,,,,,,,,,
0,80,80,74,1,,6013162277aab7174f7dad94,62bbfab2b853f4201ecc5850,2022-06-29_09h09.46.005,Colour_Asymmetry_Pilot,2022.1.3,Win32,144.0092166,62bbe60bf3d75ef465d3e404,,,,,,,,,,,,,,,,,,,,,,,,,,,,,,,,,,,,,,,,,,,,,,,,,,,,,,,,,,,,,,,,,,,,,,,,,,,,,,,,,,,,,,,,,,,,,,,,,,,,,,,,,,,,,,,,,,,,,,,,,,,,,,,,,,,,,,,,,,,,,,,,,,,,,,,,,,,,,
0,81,81,16,1,,6013162277aab7174f7dad94,62bbfab2b853f4201ecc5850,2022-06-29_09h09.46.005,Colour_Asymmetry_Pilot,2022.1.3,Win32,144.0092166,62bbe60bf3d75ef465d3e404,,,,,,,,,,,,,,,,,,,,,,,,,,,,,,,,,,,,,,,,,,,,,,,,,,,,,,,,,,,,,,,,,,,,,,,,,,,,,,,,,,,,,,,,,,,,,,,,,,,,,,,,,,,,,,,,,,,,,,,,,,,,,,,,,,,,,,,,,,,,,,,,,,,,,,,,,,,,,
0,82,82,3,1,,6013162277aab7174f7dad94,62bbfab2b853f4201ecc5850,2022-06-29_09h09.46.005,Colour_Asymmetry_Pilot,2022.1.3,Win32,144.0092166,62bbe60bf3d75ef465d3e404,,,,,,,,,,,,,,,,,,,,,,,,,,,,,,,,,,,,,,,,,,,,,,,,,,,,,,,,,,,,,,,,,,,,,,,,,,,,,,,,,,,,,,,,,,,,,,,,,,,,,,,,,,,,,,,,,,,,,,,,,,,,,,,,,,,,,,,,,,,,,,,,,,,,,,,,,,,,,
0,83,83,48,1,,6013162277aab7174f7dad94,62bbfab2b853f4201ecc5850,2022-06-29_09h09.46.005,Colour_Asymmetry_Pilot,2022.1.3,Win32,144.0092166,62bbe60bf3d75ef465d3e404,,,,,,,,,,,,,,,,,,,,,,,,,,,,,,,,,,,,,,,,,,,,,,,,,,,,,,,,,,,,,,,,,,,,,,,,,,,,,,,,,,,,,,,,,,,,,,,,,,,,,,,,,,,,,,,,,,,,,,,,,,,,,,,,,,,,,,,,,,,,,,,,,,,,,,,,,,,,,
0,84,84,50,1,,6013162277aab7174f7dad94,62bbfab2b853f4201ecc5850,2022-06-29_09h09.46.005,Colour_Asymmetry_Pilot,2022.1.3,Win32,144.0092166,62bbe60bf3d75ef465d3e404,,,,,,,,,,,,,,,,,,,,,,,,,,,,,,,,,,,,,,,,,,,,,,,,,,,,,,,,,,,,,,,,,,,,,,,,,,,,,,,,,,,,,,,,,,,,,,,,,,,,,,,,,,,,,,,,,,,,,,,,,,,,,,,,,,,,,,,,,,,,,,,,,,,,,,,,,,,,,
0,85,85,35,1,,6013162277aab7174f7dad94,62bbfab2b853f4201ecc5850,2022-06-29_09h09.46.005,Colour_Asymmetry_Pilot,2022.1.3,Win32,144.0092166,62bbe60bf3d75ef465d3e404,,,,,,,,,,,,,,,,,,,,,,,,,,,,,,,,,,,,,,,,,,,,,,,,,,,,,,,,,,,,,,,,,,,,,,,,,,,,,,,,,,,,,,,,,,,,,,,,,,,,,,,,,,,,,,,,,,,,,,,,,,,,,,,,,,,,,,,,,,,,,,,,,,,,,,,,,,,,,
0,86,86,37,1,,6013162277aab7174f7dad94,62bbfab2b853f4201ecc5850,2022-06-29_09h09.46.005,Colour_Asymmetry_Pilot,2022.1.3,Win32,144.0092166,62bbe60bf3d75ef465d3e404,,,,,,,,,,,,,,,,,,,,,,,,,,,,,,,,,,,,,,,,,,,,,,,,,,,,,,,,,,,,,,,,,,,,,,,,,,,,,,,,,,,,,,,,,,,,,,,,,,,,,,,,,,,,,,,,,,,,,,,,,,,,,,,,,,,,,,,,,,,,,,,,,,,,,,,,,,,,,
0,87,87,15,1,,6013162277aab7174f7dad94,62bbfab2b853f4201ecc5850,2022-06-29_09h09.46.005,Colour_Asymmetry_Pilot,2022.1.3,Win32,144.0092166,62bbe60bf3d75ef465d3e404,,,,,,,,,,,,,,,,,,,,,,,,,,,,,,,,,,,,,,,,,,,,,,,,,,,,,,,,,,,,,,,,,,,,,,,,,,,,,,,,,,,,,,,,,,,,,,,,,,,,,,,,,,,,,,,,,,,,,,,,,,,,,,,,,,,,,,,,,,,,,,,,,,,,,,,,,,,,,
0,88,88,31,1,,6013162277aab7174f7dad94,62bbfab2b853f4201ecc5850,2022-06-29_09h09.46.005,Colour_Asymmetry_Pilot,2022.1.3,Win32,144.0092166,62bbe60bf3d75ef465d3e404,,,,,,,,,,,,,,,,,,,,,,,,,,,,,,,,,,,,,,,,,,,,,,,,,,,,,,,,,,,,,,,,,,,,,,,,,,,,,,,,,,,,,,,,,,,,,,,,,,,,,,,,,,,,,,,,,,,,,,,,,,,,,,,,,,,,,,,,,,,,,,,,,,,,,,,,,,,,,
0,89,89,62,1,,6013162277aab7174f7dad94,62bbfab2b853f4201ecc5850,2022-06-29_09h09.46.005,Colour_Asymmetry_Pilot,2022.1.3,Win32,144.0092166,62bbe60bf3d75ef465d3e404,,,,,,,,,,,,,,,,,,,,,,,,,,,,,,,,,,,,,,,,,,,,,,,,,,,,,,,,,,,,,,,,,,,,,,,,,,,,,,,,,,,,,,,,,,,,,,,,,,,,,,,,,,,,,,,,,,,,,,,,,,,,,,,,,,,,,,,,,,,,,,,,,,,,,,,,,,,,,
0,90,90,81,1,,6013162277aab7174f7dad94,62bbfab2b853f4201ecc5850,2022-06-29_09h09.46.005,Colour_Asymmetry_Pilot,2022.1.3,Win32,144.0092166,62bbe60bf3d75ef465d3e404,,,,,,,,,,,,,,,,,,,,,,,,,,,,,,,,,,,,,,,,,,,,,,,,,,,,,,,,,,,,,,,,,,,,,,,,,,,,,,,,,,,,,,,,,,,,,,,,,,,,,,,,,,,,,,,,,,,,,,,,,,,,,,,,,,,,,,,,,,,,,,,,,,,,,,,,,,,,,
0,91,91,14,1,,6013162277aab7174f7dad94,62bbfab2b853f4201ecc5850,2022-06-29_09h09.46.005,Colour_Asymmetry_Pilot,2022.1.3,Win32,144.0092166,62bbe60bf3d75ef465d3e404,,,,,,,,,,,,,,,,,,,,,,,,,,,,,,,,,,,,,,,,,,,,,,,,,,,,,,,,,,,,,,,,,,,,,,,,,,,,,,,,,,,,,,,,,,,,,,,,,,,,,,,,,,,,,,,,,,,,,,,,,,,,,,,,,,,,,,,,,,,,,,,,,,,,,,,,,,,,,
0,92,92,85,1,,6013162277aab7174f7dad94,62bbfab2b853f4201ecc5850,2022-06-29_09h09.46.005,Colour_Asymmetry_Pilot,2022.1.3,Win32,144.0092166,62bbe60bf3d75ef465d3e404,,,,,,,,,,,,,,,,,,,,,,,,,,,,,,,,,,,,,,,,,,,,,,,,,,,,,,,,,,,,,,,,,,,,,,,,,,,,,,,,,,,,,,,,,,,,,,,,,,,,,,,,,,,,,,,,,,,,,,,,,,,,,,,,,,,,,,,,,,,,,,,,,,,,,,,,,,,,,
,,,,,,6013162277aab7174f7dad94,62bbfab2b853f4201ecc5850,2022-06-29_09h09.46.005,Colour_Asymmetry_Pilot,2022.1.3,Win32,144.0092166,62bbe60bf3d75ef465d3e404,0,0,0,31,1,fourthree,,,,,,,,,,,,,,,,,,,,,,,,,,,,,,,,,,,,,,,,,,,,,,,,,,,,,,,,,,,,,,,,,,,,,,,,,,,,,,,,,,,,,,,,,,,,,,,,,,,,,,,,,,,,,,,,,,,,,,,,,,,,,,,,,,,,,,,,,,,,,,,,,,,,,,,
,,,,,,6013162277aab7174f7dad94,62bbfab2b853f4201ecc5850,2022-06-29_09h09.46.005,Colour_Asymmetry_Pilot,2022.1.3,Win32,144.0092166,62bbe60bf3d75ef465d3e404,0,1,1,133,1,threefour,,,,,,,,,,,,,,,,,,,,,,,,,,,,,,,,,,,,,,,,,,,,,,,,,,,,,,,,,,,,,,,,,,,,,,,,,,,,,,,,,,,,,,,,,,,,,,,,,,,,,,,,,,,,,,,,,,,,,,,,,,,,,,,,,,,,,,,,,,,,,,,,,,,,,,,
,,,,,,6013162277aab7174f7dad94,62bbfab2b853f4201ecc5850,2022-06-29_09h09.46.005,Colour_Asymmetry_Pilot,2022.1.3,Win32,144.0092166,62bbe60bf3d75ef465d3e404,0,2,2,156,1,threeone,,,,,,,,,,,,,,,,,,,,,,,,,,,,,,,,,,,,,,,,,,,,,,,,,,,,,,,,,,,,,,,,,,,,,,,,,,,,,,,,,,,,,,,,,,,,,,,,,,,,,,,,,,,,,,,,,,,,,,,,,,,,,,,,,,,,,,,,,,,,,,,,,,,,,,,
,,,,,,6013162277aab7174f7dad94,62bbfab2b853f4201ecc5850,2022-06-29_09h09.46.005,Colour_Asymmetry_Pilot,2022.1.3,Win32,144.0092166,62bbe60bf3d75ef465d3e404,0,3,3,132,1,threeone,,,,,,,,,,,,,,,,,,,,,,,,,,,,,,,,,,,,,,,,,,,,,,,,,,,,,,,,,,,,,,,,,,,,,,,,,,,,,,,,,,,,,,,,,,,,,,,,,,,,,,,,,,,,,,,,,,,,,,,,,,,,,,,,,,,,,,,,,,,,,,,,,,,,,,,
,,,,,,6013162277aab7174f7dad94,62bbfab2b853f4201ecc5850,2022-06-29_09h09.46.005,Colour_Asymmetry_Pilot,2022.1.3,Win32,144.0092166,62bbe60bf3d75ef465d3e404,0,4,4,71,1,fourthree,,,,,,,,,,,,,,,,,,,,,,,,,,,,,,,,,,,,,,,,,,,,,,,,,,,,,,,,,,,,,,,,,,,,,,,,,,,,,,,,,,,,,,,,,,,,,,,,,,,,,,,,,,,,,,,,,,,,,,,,,,,,,,,,,,,,,,,,,,,,,,,,,,,,,,,
,,,,,,6013162277aab7174f7dad94,62bbfab2b853f4201ecc5850,2022-06-29_09h09.46.005,Colour_Asymmetry_Pilot,2022.1.3,Win32,144.0092166,62bbe60bf3d75ef465d3e404,0,5,5,11,1,twofour,,,,,,,,,,,,,,,,,,,,,,,,,,,,,,,,,,,,,,,,,,,,,,,,,,,,,,,,,,,,,,,,,,,,,,,,,,,,,,,,,,,,,,,,,,,,,,,,,,,,,,,,,,,,,,,,,,,,,,,,,,,,,,,,,,,,,,,,,,,,,,,,,,,,,,,
,,,,,,6013162277aab7174f7dad94,62bbfab2b853f4201ecc5850,2022-06-29_09h09.46.005,Colour_Asymmetry_Pilot,2022.1.3,Win32,144.0092166,62bbe60bf3d75ef465d3e404,0,6,6,148,1,threeone,,,,,,,,,,,,,,,,,,,,,,,,,,,,,,,,,,,,,,,,,,,,,,,,,,,,,,,,,,,,,,,,,,,,,,,,,,,,,,,,,,,,,,,,,,,,,,,,,,,,,,,,,,,,,,,,,,,,,,,,,,,,,,,,,,,,,,,,,,,,,,,,,,,,,,,
,,,,,,6013162277aab7174f7dad94,62bbfab2b853f4201ecc5850,2022-06-29_09h09.46.005,Colour_Asymmetry_Pilot,2022.1.3,Win32,144.0092166,62bbe60bf3d75ef465d3e404,0,7,7,82,1,twoone,,,,,,,,,,,,,,,,,,,,,,,,,,,,,,,,,,,,,,,,,,,,,,,,,,,,,,,,,,,,,,,,,,,,,,,,,,,,,,,,,,,,,,,,,,,,,,,,,,,,,,,,,,,,,,,,,,,,,,,,,,,,,,,,,,,,,,,,,,,,,,,,,,,,,,,
,,,,,,6013162277aab7174f7dad94,62bbfab2b853f4201ecc5850,2022-06-29_09h09.46.005,Colour_Asymmetry_Pilot,2022.1.3,Win32,144.0092166,62bbe60bf3d75ef465d3e404,0,8,8,91,1,twofour,,,,,,,,,,,,,,,,,,,,,,,,,,,,,,,,,,,,,,,,,,,,,,,,,,,,,,,,,,,,,,,,,,,,,,,,,,,,,,,,,,,,,,,,,,,,,,,,,,,,,,,,,,,,,,,,,,,,,,,,,,,,,,,,,,,,,,,,,,,,,,,,,,,,,,,
,,,,,,6013162277aab7174f7dad94,62bbfab2b853f4201ecc5850,2022-06-29_09h09.46.005,Colour_Asymmetry_Pilot,2022.1.3,Win32,144.0092166,62bbe60bf3d75ef465d3e404,0,9,9,88,1,onetwo,,,,,,,,,,,,,,,,,,,,,,,,,,,,,,,,,,,,,,,,,,,,,,,,,,,,,,,,,,,,,,,,,,,,,,,,,,,,,,,,,,,,,,,,,,,,,,,,,,,,,,,,,,,,,,,,,,,,,,,,,,,,,,,,,,,,,,,,,,,,,,,,,,,,,,,
,,,,,,6013162277aab7174f7dad94,62bbfab2b853f4201ecc5850,2022-06-29_09h09.46.005,Colour_Asymmetry_Pilot,2022.1.3,Win32,144.0092166,62bbe60bf3d75ef465d3e404,0,10,10,9,1,onethree,,,,,,,,,,,,,,,,,,,,,,,,,,,,,,,,,,,,,,,,,,,,,,,,,,,,,,,,,,,,,,,,,,,,,,,,,,,,,,,,,,,,,,,,,,,,,,,,,,,,,,,,,,,,,,,,,,,,,,,,,,,,,,,,,,,,,,,,,,,,,,,,,,,,,,,
,,,,,,6013162277aab7174f7dad94,62bbfab2b853f4201ecc5850,2022-06-29_09h09.46.005,Colour_Asymmetry_Pilot,2022.1.3,Win32,144.0092166,62bbe60bf3d75ef465d3e404,0,11,11,135,1,fourthree,,,,,,,,,,,,,,,,,,,,,,,,,,,,,,,,,,,,,,,,,,,,,,,,,,,,,,,,,,,,,,,,,,,,,,,,,,,,,,,,,,,,,,,,,,,,,,,,,,,,,,,,,,,,,,,,,,,,,,,,,,,,,,,,,,,,,,,,,,,,,,,,,,,,,,,
,,,,,,6013162277aab7174f7dad94,62bbfab2b853f4201ecc5850,2022-06-29_09h09.46.005,Colour_Asymmetry_Pilot,2022.1.3,Win32,144.0092166,62bbe60bf3d75ef465d3e404,0,12,12,111,1,fourthree,,,,,,,,,,,,,,,,,,,,,,,,,,,,,,,,,,,,,,,,,,,,,,,,,,,,,,,,,,,,,,,,,,,,,,,,,,,,,,,,,,,,,,,,,,,,,,,,,,,,,,,,,,,,,,,,,,,,,,,,,,,,,,,,,,,,,,,,,,,,,,,,,,,,,,,
,,,,,,6013162277aab7174f7dad94,62bbfab2b853f4201ecc5850,2022-06-29_09h09.46.005,Colour_Asymmetry_Pilot,2022.1.3,Win32,144.0092166,62bbe60bf3d75ef465d3e404,0,13,13,21,1,threefour,,,,,,,,,,,,,,,,,,,,,,,,,,,,,,,,,,,,,,,,,,,,,,,,,,,,,,,,,,,,,,,,,,,,,,,,,,,,,,,,,,,,,,,,,,,,,,,,,,,,,,,,,,,,,,,,,,,,,,,,,,,,,,,,,,,,,,,,,,,,,,,,,,,,,,,
,,,,,,6013162277aab7174f7dad94,62bbfab2b853f4201ecc5850,2022-06-29_09h09.46.005,Colour_Asymmetry_Pilot,2022.1.3,Win32,144.0092166,62bbe60bf3d75ef465d3e404,0,14,14,7,1,fourthree,,,,,,,,,,,,,,,,,,,,,,,,,,,,,,,,,,,,,,,,,,,,,,,,,,,,,,,,,,,,,,,,,,,,,,,,,,,,,,,,,,,,,,,,,,,,,,,,,,,,,,,,,,,,,,,,,,,,,,,,,,,,,,,,,,,,,,,,,,,,,,,,,,,,,,,
,,,,,,6013162277aab7174f7dad94,62bbfab2b853f4201ecc5850,2022-06-29_09h09.46.005,Colour_Asymmetry_Pilot,2022.1.3,Win32,144.0092166,62bbe60bf3d75ef465d3e404,0,15,15,96,1,onetwo,,,,,,,,,,,,,,,,,,,,,,,,,,,,,,,,,,,,,,,,,,,,,,,,,,,,,,,,,,,,,,,,,,,,,,,,,,,,,,,,,,,,,,,,,,,,,,,,,,,,,,,,,,,,,,,,,,,,,,,,,,,,,,,,,,,,,,,,,,,,,,,,,,,,,,,
,,,,,,6013162277aab7174f7dad94,62bbfab2b853f4201ecc5850,2022-06-29_09h09.46.005,Colour_Asymmetry_Pilot,2022.1.3,Win32,144.0092166,62bbe60bf3d75ef465d3e404,0,16,16,94,1,fourtwo,,,,,,,,,,,,,,,,,,,,,,,,,,,,,,,,,,,,,,,,,,,,,,,,,,,,,,,,,,,,,,,,,,,,,,,,,,,,,,,,,,,,,,,,,,,,,,,,,,,,,,,,,,,,,,,,,,,,,,,,,,,,,,,,,,,,,,,,,,,,,,,,,,,,,,,
,,,,,,6013162277aab7174f7dad94,62bbfab2b853f4201ecc5850,2022-06-29_09h09.46.005,Colour_Asymmetry_Pilot,2022.1.3,Win32,144.0092166,62bbe60bf3d75ef465d3e404,0,17,17,116,1,threeone,,,,,,,,,,,,,,,,,,,,,,,,,,,,,,,,,,,,,,,,,,,,,,,,,,,,,,,,,,,,,,,,,,,,,,,,,,,,,,,,,,,,,,,,,,,,,,,,,,,,,,,,,,,,,,,,,,,,,,,,,,,,,,,,,,,,,,,,,,,,,,,,,,,,,,,
,,,,,,6013162277aab7174f7dad94,62bbfab2b853f4201ecc5850,2022-06-29_09h09.46.005,Colour_Asymmetry_Pilot,2022.1.3,Win32,144.0092166,62bbe60bf3d75ef465d3e404,0,18,18,110,1,fourtwo,,,,,,,,,,,,,,,,,,,,,,,,,,,,,,,,,,,,,,,,,,,,,,,,,,,,,,,,,,,,,,,,,,,,,,,,,,,,,,,,,,,,,,,,,,,,,,,,,,,,,,,,,,,,,,,,,,,,,,,,,,,,,,,,,,,,,,,,,,,,,,,,,,,,,,,
,,,,,,6013162277aab7174f7dad94,62bbfab2b853f4201ecc5850,2022-06-29_09h09.46.005,Colour_Asymmetry_Pilot,2022.1.3,Win32,144.0092166,62bbe60bf3d75ef465d3e404,0,19,19,53,1,threefour,,,,,,,,,,,,,,,,,,,,,,,,,,,,,,,,,,,,,,,,,,,,,,,,,,,,,,,,,,,,,,,,,,,,,,,,,,,,,,,,,,,,,,,,,,,,,,,,,,,,,,,,,,,,,,,,,,,,,,,,,,,,,,,,,,,,,,,,,,,,,,,,,,,,,,,
,,,,,,6013162277aab7174f7dad94,62bbfab2b853f4201ecc5850,2022-06-29_09h09.46.005,Colour_Asymmetry_Pilot,2022.1.3,Win32,144.0092166,62bbe60bf3d75ef465d3e404,0,20,20,17,1,onethree,,,,,,,,,,,,,,,,,,,,,,,,,,,,,,,,,,,,,,,,,,,,,,,,,,,,,,,,,,,,,,,,,,,,,,,,,,,,,,,,,,,,,,,,,,,,,,,,,,,,,,,,,,,,,,,,,,,,,,,,,,,,,,,,,,,,,,,,,,,,,,,,,,,,,,,
,,,,,,6013162277aab7174f7dad94,62bbfab2b853f4201ecc5850,2022-06-29_09h09.46.005,Colour_Asymmetry_Pilot,2022.1.3,Win32,144.0092166,62bbe60bf3d75ef465d3e404,0,21,21,86,1,fourtwo,,,,,,,,,,,,,,,,,,,,,,,,,,,,,,,,,,,,,,,,,,,,,,,,,,,,,,,,,,,,,,,,,,,,,,,,,,,,,,,,,,,,,,,,,,,,,,,,,,,,,,,,,,,,,,,,,,,,,,,,,,,,,,,,,,,,,,,,,,,,,,,,,,,,,,,
,,,,,,6013162277aab7174f7dad94,62bbfab2b853f4201ecc5850,2022-06-29_09h09.46.005,Colour_Asymmetry_Pilot,2022.1.3,Win32,144.0092166,62bbe60bf3d75ef465d3e404,0,22,22,113,1,onethree,,,,,,,,,,,,,,,,,,,,,,,,,,,,,,,,,,,,,,,,,,,,,,,,,,,,,,,,,,,,,,,,,,,,,,,,,,,,,,,,,,,,,,,,,,,,,,,,,,,,,,,,,,,,,,,,,,,,,,,,,,,,,,,,,,,,,,,,,,,,,,,,,,,,,,,
,,,,,,6013162277aab7174f7dad94,62bbfab2b853f4201ecc5850,2022-06-29_09h09.46.005,Colour_Asymmetry_Pilot,2022.1.3,Win32,144.0092166,62bbe60bf3d75ef465d3e404,0,23,23,126,1,fourtwo,,,,,,,,,,,,,,,,,,,,,,,,,,,,,,,,,,,,,,,,,,,,,,,,,,,,,,,,,,,,,,,,,,,,,,,,,,,,,,,,,,,,,,,,,,,,,,,,,,,,,,,,,,,,,,,,,,,,,,,,,,,,,,,,,,,,,,,,,,,,,,,,,,,,,,,
,,,,,,6013162277aab7174f7dad94,62bbfab2b853f4201ecc5850,2022-06-29_09h09.46.005,Colour_Asymmetry_Pilot,2022.1.3,Win32,144.0092166,62bbe60bf3d75ef465d3e404,0,24,24,59,1,twofour,,,,,,,,,,,,,,,,,,,,,,,,,,,,,,,,,,,,,,,,,,,,,,,,,,,,,,,,,,,,,,,,,,,,,,,,,,,,,,,,,,,,,,,,,,,,,,,,,,,,,,,,,,,,,,,,,,,,,,,,,,,,,,,,,,,,,,,,,,,,,,,,,,,,,,,
,,,,,,6013162277aab7174f7dad94,62bbfab2b853f4201ecc5850,2022-06-29_09h09.46.005,Colour_Asymmetry_Pilot,2022.1.3,Win32,144.0092166,62bbe60bf3d75ef465d3e404,0,25,25,157,1,threefour,,,,,,,,,,,,,,,,,,,,,,,,,,,,,,,,,,,,,,,,,,,,,,,,,,,,,,,,,,,,,,,,,,,,,,,,,,,,,,,,,,,,,,,,,,,,,,,,,,,,,,,,,,,,,,,,,,,,,,,,,,,,,,,,,,,,,,,,,,,,,,,,,,,,,,,
,,,,,,6013162277aab7174f7dad94,62bbfab2b853f4201ecc5850,2022-06-29_09h09.46.005,Colour_Asymmetry_Pilot,2022.1.3,Win32,144.0092166,62bbe60bf3d75ef465d3e404,0,26,26,56,1,onetwo,,,,,,,,,,,,,,,,,,,,,,,,,,,,,,,,,,,,,,,,,,,,,,,,,,,,,,,,,,,,,,,,,,,,,,,,,,,,,,,,,,,,,,,,,,,,,,,,,,,,,,,,,,,,,,,,,,,,,,,,,,,,,,,,,,,,,,,,,,,,,,,,,,,,,,,
,,,,,,6013162277aab7174f7dad94,62bbfab2b853f4201ecc5850,2022-06-29_09h09.46.005,Colour_Asymmetry_Pilot,2022.1.3,Win32,144.0092166,62bbe60bf3d75ef465d3e404,0,27,27,76,1,threeone,,,,,,,,,,,,,,,,,,,,,,,,,,,,,,,,,,,,,,,,,,,,,,,,,,,,,,,,,,,,,,,,,,,,,,,,,,,,,,,,,,,,,,,,,,,,,,,,,,,,,,,,,,,,,,,,,,,,,,,,,,,,,,,,,,,,,,,,,,,,,,,,,,,,,,,
,,,,,,6013162277aab7174f7dad94,62bbfab2b853f4201ecc5850,2022-06-29_09h09.46.005,Colour_Asymmetry_Pilot,2022.1.3,Win32,144.0092166,62bbe60bf3d75ef465d3e404,0,28,28,122,1,twoone,,,,,,,,,,,,,,,,,,,,,,,,,,,,,,,,,,,,,,,,,,,,,,,,,,,,,,,,,,,,,,,,,,,,,,,,,,,,,,,,,,,,,,,,,,,,,,,,,,,,,,,,,,,,,,,,,,,,,,,,,,,,,,,,,,,,,,,,,,,,,,,,,,,,,,,
,,,,,,6013162277aab7174f7dad94,62bbfab2b853f4201ecc5850,2022-06-29_09h09.46.005,Colour_Asymmetry_Pilot,2022.1.3,Win32,144.0092166,62bbe60bf3d75ef465d3e404,0,29,29,80,1,onetwo,,,,,,,,,,,,,,,,,,,,,,,,,,,,,,,,,,,,,,,,,,,,,,,,,,,,,,,,,,,,,,,,,,,,,,,,,,,,,,,,,,,,,,,,,,,,,,,,,,,,,,,,,,,,,,,,,,,,,,,,,,,,,,,,,,,,,,,,,,,,,,,,,,,,,,,
,,,,,,6013162277aab7174f7dad94,62bbfab2b853f4201ecc5850,2022-06-29_09h09.46.005,Colour_Asymmetry_Pilot,2022.1.3,Win32,144.0092166,62bbe60bf3d75ef465d3e404,0,30,30,120,1,onetwo,,,,,,,,,,,,,,,,,,,,,,,,,,,,,,,,,,,,,,,,,,,,,,,,,,,,,,,,,,,,,,,,,,,,,,,,,,,,,,,,,,,,,,,,,,,,,,,,,,,,,,,,,,,,,,,,,,,,,,,,,,,,,,,,,,,,,,,,,,,,,,,,,,,,,,,
,,,,,,6013162277aab7174f7dad94,62bbfab2b853f4201ecc5850,2022-06-29_09h09.46.005,Colour_Asymmetry_Pilot,2022.1.3,Win32,144.0092166,62bbe60bf3d75ef465d3e404,0,31,31,102,1,fourtwo,,,,,,,,,,,,,,,,,,,,,,,,,,,,,,,,,,,,,,,,,,,,,,,,,,,,,,,,,,,,,,,,,,,,,,,,,,,,,,,,,,,,,,,,,,,,,,,,,,,,,,,,,,,,,,,,,,,,,,,,,,,,,,,,,,,,,,,,,,,,,,,,,,,,,,,
,,,,,,6013162277aab7174f7dad94,62bbfab2b853f4201ecc5850,2022-06-29_09h09.46.005,Colour_Asymmetry_Pilot,2022.1.3,Win32,144.0092166,62bbe60bf3d75ef465d3e404,0,32,32,151,1,fourthree,,,,,,,,,,,,,,,,,,,,,,,,,,,,,,,,,,,,,,,,,,,,,,,,,,,,,,,,,,,,,,,,,,,,,,,,,,,,,,,,,,,,,,,,,,,,,,,,,,,,,,,,,,,,,,,,,,,,,,,,,,,,,,,,,,,,,,,,,,,,,,,,,,,,,,,
,,,,,,6013162277aab7174f7dad94,62bbfab2b853f4201ecc5850,2022-06-29_09h09.46.005,Colour_Asymmetry_Pilot,2022.1.3,Win32,144.0092166,62bbe60bf3d75ef465d3e404,0,33,33,63,1,fourthree,,,,,,,,,,,,,,,,,,,,,,,,,,,,,,,,,,,,,,,,,,,,,,,,,,,,,,,,,,,,,,,,,,,,,,,,,,,,,,,,,,,,,,,,,,,,,,,,,,,,,,,,,,,,,,,,,,,,,,,,,,,,,,,,,,,,,,,,,,,,,,,,,,,,,,,
,,,,,,6013162277aab7174f7dad94,62bbfab2b853f4201ecc5850,2022-06-29_09h09.46.005,Colour_Asymmetry_Pilot,2022.1.3,Win32,144.0092166,62bbe60bf3d75ef465d3e404,0,34,34,8,1,onetwo,,,,,,,,,,,,,,,,,,,,,,,,,,,,,,,,,,,,,,,,,,,,,,,,,,,,,,,,,,,,,,,,,,,,,,,,,,,,,,,,,,,,,,,,,,,,,,,,,,,,,,,,,,,,,,,,,,,,,,,,,,,,,,,,,,,,,,,,,,,,,,,,,,,,,,,
,,,,,,6013162277aab7174f7dad94,62bbfab2b853f4201ecc5850,2022-06-29_09h09.46.005,Colour_Asymmetry_Pilot,2022.1.3,Win32,144.0092166,62bbe60bf3d75ef465d3e404,0,35,35,39,1,fourthree,,,,,,,,,,,,,,,,,,,,,,,,,,,,,,,,,,,,,,,,,,,,,,,,,,,,,,,,,,,,,,,,,,,,,,,,,,,,,,,,,,,,,,,,,,,,,,,,,,,,,,,,,,,,,,,,,,,,,,,,,,,,,,,,,,,,,,,,,,,,,,,,,,,,,,,
,,,,,,6013162277aab7174f7dad94,62bbfab2b853f4201ecc5850,2022-06-29_09h09.46.005,Colour_Asymmetry_Pilot,2022.1.3,Win32,144.0092166,62bbe60bf3d75ef465d3e404,0,36,36,150,1,fourtwo,,,,,,,,,,,,,,,,,,,,,,,,,,,,,,,,,,,,,,,,,,,,,,,,,,,,,,,,,,,,,,,,,,,,,,,,,,,,,,,,,,,,,,,,,,,,,,,,,,,,,,,,,,,,,,,,,,,,,,,,,,,,,,,,,,,,,,,,,,,,,,,,,,,,,,,
,,,,,,6013162277aab7174f7dad94,62bbfab2b853f4201ecc5850,2022-06-29_09h09.46.005,Colour_Asymmetry_Pilot,2022.1.3,Win32,144.0092166,62bbe60bf3d75ef465d3e404,0,37,37,112,1,onetwo,,,,,,,,,,,,,,,,,,,,,,,,,,,,,,,,,,,,,,,,,,,,,,,,,,,,,,,,,,,,,,,,,,,,,,,,,,,,,,,,,,,,,,,,,,,,,,,,,,,,,,,,,,,,,,,,,,,,,,,,,,,,,,,,,,,,,,,,,,,,,,,,,,,,,,,
,,,,,,6013162277aab7174f7dad94,62bbfab2b853f4201ecc5850,2022-06-29_09h09.46.005,Colour_Asymmetry_Pilot,2022.1.3,Win32,144.0092166,62bbe60bf3d75ef465d3e404,0,38,38,97,1,onethree,,,,,,,,,,,,,,,,,,,,,,,,,,,,,,,,,,,,,,,,,,,,,,,,,,,,,,,,,,,,,,,,,,,,,,,,,,,,,,,,,,,,,,,,,,,,,,,,,,,,,,,,,,,,,,,,,,,,,,,,,,,,,,,,,,,,,,,,,,,,,,,,,,,,,,,
,,,,,,6013162277aab7174f7dad94,62bbfab2b853f4201ecc5850,2022-06-29_09h09.46.005,Colour_Asymmetry_Pilot,2022.1.3,Win32,144.0092166,62bbe60bf3d75ef465d3e404,0,39,39,87,1,fourthree,,,,,,,,,,,,,,,,,,,,,,,,,,,,,,,,,,,,,,,,,,,,,,,,,,,,,,,,,,,,,,,,,,,,,,,,,,,,,,,,,,,,,,,,,,,,,,,,,,,,,,,,,,,,,,,,,,,,,,,,,,,,,,,,,,,,,,,,,,,,,,,,,,,,,,,
,,,,,,6013162277aab7174f7dad94,62bbfab2b853f4201ecc5850,2022-06-29_09h09.46.005,Colour_Asymmetry_Pilot,2022.1.3,Win32,144.0092166,62bbe60bf3d75ef465d3e404,0,40,40,46,1,fourtwo,,,,,,,,,,,,,,,,,,,,,,,,,,,,,,,,,,,,,,,,,,,,,,,,,,,,,,,,,,,,,,,,,,,,,,,,,,,,,,,,,,,,,,,,,,,,,,,,,,,,,,,,,,,,,,,,,,,,,,,,,,,,,,,,,,,,,,,,,,,,,,,,,,,,,,,
,,,,,,6013162277aab7174f7dad94,62bbfab2b853f4201ecc5850,2022-06-29_09h09.46.005,Colour_Asymmetry_Pilot,2022.1.3,Win32,144.0092166,62bbe60bf3d75ef465d3e404,0,41,41,142,1,fourtwo,,,,,,,,,,,,,,,,,,,,,,,,,,,,,,,,,,,,,,,,,,,,,,,,,,,,,,,,,,,,,,,,,,,,,,,,,,,,,,,,,,,,,,,,,,,,,,,,,,,,,,,,,,,,,,,,,,,,,,,,,,,,,,,,,,,,,,,,,,,,,,,,,,,,,,,
,,,,,,6013162277aab7174f7dad94,62bbfab2b853f4201ecc5850,2022-06-29_09h09.46.005,Colour_Asymmetry_Pilot,2022.1.3,Win32,144.0092166,62bbe60bf3d75ef465d3e404,0,42,42,4,1,threeone,,,,,,,,,,,,,,,,,,,,,,,,,,,,,,,,,,,,,,,,,,,,,,,,,,,,,,,,,,,,,,,,,,,,,,,,,,,,,,,,,,,,,,,,,,,,,,,,,,,,,,,,,,,,,,,,,,,,,,,,,,,,,,,,,,,,,,,,,,,,,,,,,,,,,,,
,,,,,,6013162277aab7174f7dad94,62bbfab2b853f4201ecc5850,2022-06-29_09h09.46.005,Colour_Asymmetry_Pilot,2022.1.3,Win32,144.0092166,62bbe60bf3d75ef465d3e404,0,43,43,103,1,fourthree,,,,,,,,,,,,,,,,,,,,,,,,,,,,,,,,,,,,,,,,,,,,,,,,,,,,,,,,,,,,,,,,,,,,,,,,,,,,,,,,,,,,,,,,,,,,,,,,,,,,,,,,,,,,,,,,,,,,,,,,,,,,,,,,,,,,,,,,,,,,,,,,,,,,,,,
,,,,,,6013162277aab7174f7dad94,62bbfab2b853f4201ecc5850,2022-06-29_09h09.46.005,Colour_Asymmetry_Pilot,2022.1.3,Win32,144.0092166,62bbe60bf3d75ef465d3e404,0,44,44,16,1,onetwo,,,,,,,,,,,,,,,,,,,,,,,,,,,,,,,,,,,,,,,,,,,,,,,,,,,,,,,,,,,,,,,,,,,,,,,,,,,,,,,,,,,,,,,,,,,,,,,,,,,,,,,,,,,,,,,,,,,,,,,,,,,,,,,,,,,,,,,,,,,,,,,,,,,,,,,
,,,,,,6013162277aab7174f7dad94,62bbfab2b853f4201ecc5850,2022-06-29_09h09.46.005,Colour_Asymmetry_Pilot,2022.1.3,Win32,144.0092166,62bbe60bf3d75ef465d3e404,0,45,45,27,1,twofour,,,,,,,,,,,,,,,,,,,,,,,,,,,,,,,,,,,,,,,,,,,,,,,,,,,,,,,,,,,,,,,,,,,,,,,,,,,,,,,,,,,,,,,,,,,,,,,,,,,,,,,,,,,,,,,,,,,,,,,,,,,,,,,,,,,,,,,,,,,,,,,,,,,,,,,
,,,,,,6013162277aab7174f7dad94,62bbfab2b853f4201ecc5850,2022-06-29_09h09.46.005,Colour_Asymmetry_Pilot,2022.1.3,Win32,144.0092166,62bbe60bf3d75ef465d3e404,0,46,46,107,1,twofour,,,,,,,,,,,,,,,,,,,,,,,,,,,,,,,,,,,,,,,,,,,,,,,,,,,,,,,,,,,,,,,,,,,,,,,,,,,,,,,,,,,,,,,,,,,,,,,,,,,,,,,,,,,,,,,,,,,,,,,,,,,,,,,,,,,,,,,,,,,,,,,,,,,,,,,
,,,,,,6013162277aab7174f7dad94,62bbfab2b853f4201ecc5850,2022-06-29_09h09.46.005,Colour_Asymmetry_Pilot,2022.1.3,Win32,144.0092166,62bbe60bf3d75ef465d3e404,0,47,47,52,1,threeone,,,,,,,,,,,,,,,,,,,,,,,,,,,,,,,,,,,,,,,,,,,,,,,,,,,,,,,,,,,,,,,,,,,,,,,,,,,,,,,,,,,,,,,,,,,,,,,,,,,,,,,,,,,,,,,,,,,,,,,,,,,,,,,,,,,,,,,,,,,,,,,,,,,,,,,
,,,,,,6013162277aab7174f7dad94,62bbfab2b853f4201ecc5850,2022-06-29_09h09.46.005,Colour_Asymmetry_Pilot,2022.1.3,Win32,144.0092166,62bbe60bf3d75ef465d3e404,0,48,48,25,1,onethree,,,,,,,,,,,,,,,,,,,,,,,,,,,,,,,,,,,,,,,,,,,,,,,,,,,,,,,,,,,,,,,,,,,,,,,,,,,,,,,,,,,,,,,,,,,,,,,,,,,,,,,,,,,,,,,,,,,,,,,,,,,,,,,,,,,,,,,,,,,,,,,,,,,,,,,
,,,,,,6013162277aab7174f7dad94,62bbfab2b853f4201ecc5850,2022-06-29_09h09.46.005,Colour_Asymmetry_Pilot,2022.1.3,Win32,144.0092166,62bbe60bf3d75ef465d3e404,0,49,49,154,1,twoone,,,,,,,,,,,,,,,,,,,,,,,,,,,,,,,,,,,,,,,,,,,,,,,,,,,,,,,,,,,,,,,,,,,,,,,,,,,,,,,,,,,,,,,,,,,,,,,,,,,,,,,,,,,,,,,,,,,,,,,,,,,,,,,,,,,,,,,,,,,,,,,,,,,,,,,
,,,,,,6013162277aab7174f7dad94,62bbfab2b853f4201ecc5850,2022-06-29_09h09.46.005,Colour_Asymmetry_Pilot,2022.1.3,Win32,144.0092166,62bbe60bf3d75ef465d3e404,0,50,50,141,1,threefour,,,,,,,,,,,,,,,,,,,,,,,,,,,,,,,,,,,,,,,,,,,,,,,,,,,,,,,,,,,,,,,,,,,,,,,,,,,,,,,,,,,,,,,,,,,,,,,,,,,,,,,,,,,,,,,,,,,,,,,,,,,,,,,,,,,,,,,,,,,,,,,,,,,,,,,
,,,,,,6013162277aab7174f7dad94,62bbfab2b853f4201ecc5850,2022-06-29_09h09.46.005,Colour_Asymmetry_Pilot,2022.1.3,Win32,144.0092166,62bbe60bf3d75ef465d3e404,0,51,51,10,1,twoone,,,,,,,,,,,,,,,,,,,,,,,,,,,,,,,,,,,,,,,,,,,,,,,,,,,,,,,,,,,,,,,,,,,,,,,,,,,,,,,,,,,,,,,,,,,,,,,,,,,,,,,,,,,,,,,,,,,,,,,,,,,,,,,,,,,,,,,,,,,,,,,,,,,,,,,
,,,,,,6013162277aab7174f7dad94,62bbfab2b853f4201ecc5850,2022-06-29_09h09.46.005,Colour_Asymmetry_Pilot,2022.1.3,Win32,144.0092166,62bbe60bf3d75ef465d3e404,0,52,52,140,1,threeone,,,,,,,,,,,,,,,,,,,,,,,,,,,,,,,,,,,,,,,,,,,,,,,,,,,,,,,,,,,,,,,,,,,,,,,,,,,,,,,,,,,,,,,,,,,,,,,,,,,,,,,,,,,,,,,,,,,,,,,,,,,,,,,,,,,,,,,,,,,,,,,,,,,,,,,
,,,,,,6013162277aab7174f7dad94,62bbfab2b853f4201ecc5850,2022-06-29_09h09.46.005,Colour_Asymmetry_Pilot,2022.1.3,Win32,144.0092166,62bbe60bf3d75ef465d3e404,0,53,53,44,1,threeone,,,,,,,,,,,,,,,,,,,,,,,,,,,,,,,,,,,,,,,,,,,,,,,,,,,,,,,,,,,,,,,,,,,,,,,,,,,,,,,,,,,,,,,,,,,,,,,,,,,,,,,,,,,,,,,,,,,,,,,,,,,,,,,,,,,,,,,,,,,,,,,,,,,,,,,
,,,,,,6013162277aab7174f7dad94,62bbfab2b853f4201ecc5850,2022-06-29_09h09.46.005,Colour_Asymmetry_Pilot,2022.1.3,Win32,144.0092166,62bbe60bf3d75ef465d3e404,0,54,54,145,1,onethree,,,,,,,,,,,,,,,,,,,,,,,,,,,,,,,,,,,,,,,,,,,,,,,,,,,,,,,,,,,,,,,,,,,,,,,,,,,,,,,,,,,,,,,,,,,,,,,,,,,,,,,,,,,,,,,,,,,,,,,,,,,,,,,,,,,,,,,,,,,,,,,,,,,,,,,
,,,,,,6013162277aab7174f7dad94,62bbfab2b853f4201ecc5850,2022-06-29_09h09.46.005,Colour_Asymmetry_Pilot,2022.1.3,Win32,144.0092166,62bbe60bf3d75ef465d3e404,0,55,55,68,1,threeone,,,,,,,,,,,,,,,,,,,,,,,,,,,,,,,,,,,,,,,,,,,,,,,,,,,,,,,,,,,,,,,,,,,,,,,,,,,,,,,,,,,,,,,,,,,,,,,,,,,,,,,,,,,,,,,,,,,,,,,,,,,,,,,,,,,,,,,,,,,,,,,,,,,,,,,
,,,,,,6013162277aab7174f7dad94,62bbfab2b853f4201ecc5850,2022-06-29_09h09.46.005,Colour_Asymmetry_Pilot,2022.1.3,Win32,144.0092166,62bbe60bf3d75ef465d3e404,0,56,56,37,1,threefour,,,,,,,,,,,,,,,,,,,,,,,,,,,,,,,,,,,,,,,,,,,,,,,,,,,,,,,,,,,,,,,,,,,,,,,,,,,,,,,,,,,,,,,,,,,,,,,,,,,,,,,,,,,,,,,,,,,,,,,,,,,,,,,,,,,,,,,,,,,,,,,,,,,,,,,
,,,,,,6013162277aab7174f7dad94,62bbfab2b853f4201ecc5850,2022-06-29_09h09.46.005,Colour_Asymmetry_Pilot,2022.1.3,Win32,144.0092166,62bbe60bf3d75ef465d3e404,0,57,57,13,1,threefour,,,,,,,,,,,,,,,,,,,,,,,,,,,,,,,,,,,,,,,,,,,,,,,,,,,,,,,,,,,,,,,,,,,,,,,,,,,,,,,,,,,,,,,,,,,,,,,,,,,,,,,,,,,,,,,,,,,,,,,,,,,,,,,,,,,,,,,,,,,,,,,,,,,,,,,
,,,,,,6013162277aab7174f7dad94,62bbfab2b853f4201ecc5850,2022-06-29_09h09.46.005,Colour_Asymmetry_Pilot,2022.1.3,Win32,144.0092166,62bbe60bf3d75ef465d3e404,0,58,58,138,1,twoone,,,,,,,,,,,,,,,,,,,,,,,,,,,,,,,,,,,,,,,,,,,,,,,,,,,,,,,,,,,,,,,,,,,,,,,,,,,,,,,,,,,,,,,,,,,,,,,,,,,,,,,,,,,,,,,,,,,,,,,,,,,,,,,,,,,,,,,,,,,,,,,,,,,,,,,
,,,,,,6013162277aab7174f7dad94,62bbfab2b853f4201ecc5850,2022-06-29_09h09.46.005,Colour_Asymmetry_Pilot,2022.1.3,Win32,144.0092166,62bbe60bf3d75ef465d3e404,0,59,59,26,1,twoone,,,,,,,,,,,,,,,,,,,,,,,,,,,,,,,,,,,,,,,,,,,,,,,,,,,,,,,,,,,,,,,,,,,,,,,,,,,,,,,,,,,,,,,,,,,,,,,,,,,,,,,,,,,,,,,,,,,,,,,,,,,,,,,,,,,,,,,,,,,,,,,,,,,,,,,
,,,,,,6013162277aab7174f7dad94,62bbfab2b853f4201ecc5850,2022-06-29_09h09.46.005,Colour_Asymmetry_Pilot,2022.1.3,Win32,144.0092166,62bbe60bf3d75ef465d3e404,0,60,60,153,1,onethree,,,,,,,,,,,,,,,,,,,,,,,,,,,,,,,,,,,,,,,,,,,,,,,,,,,,,,,,,,,,,,,,,,,,,,,,,,,,,,,,,,,,,,,,,,,,,,,,,,,,,,,,,,,,,,,,,,,,,,,,,,,,,,,,,,,,,,,,,,,,,,,,,,,,,,,
,,,,,,6013162277aab7174f7dad94,62bbfab2b853f4201ecc5850,2022-06-29_09h09.46.005,Colour_Asymmetry_Pilot,2022.1.3,Win32,144.0092166,62bbe60bf3d75ef465d3e404,0,61,61,42,1,twoone,,,,,,,,,,,,,,,,,,,,,,,,,,,,,,,,,,,,,,,,,,,,,,,,,,,,,,,,,,,,,,,,,,,,,,,,,,,,,,,,,,,,,,,,,,,,,,,,,,,,,,,,,,,,,,,,,,,,,,,,,,,,,,,,,,,,,,,,,,,,,,,,,,,,,,,
,,,,,,6013162277aab7174f7dad94,62bbfab2b853f4201ecc5850,2022-06-29_09h09.46.005,Colour_Asymmetry_Pilot,2022.1.3,Win32,144.0092166,62bbe60bf3d75ef465d3e404,0,62,62,6,1,fourtwo,,,,,,,,,,,,,,,,,,,,,,,,,,,,,,,,,,,,,,,,,,,,,,,,,,,,,,,,,,,,,,,,,,,,,,,,,,,,,,,,,,,,,,,,,,,,,,,,,,,,,,,,,,,,,,,,,,,,,,,,,,,,,,,,,,,,,,,,,,,,,,,,,,,,,,,
,,,,,,6013162277aab7174f7dad94,62bbfab2b853f4201ecc5850,2022-06-29_09h09.46.005,Colour_Asymmetry_Pilot,2022.1.3,Win32,144.0092166,62bbe60bf3d75ef465d3e404,0,63,63,129,1,onethree,,,,,,,,,,,,,,,,,,,,,,,,,,,,,,,,,,,,,,,,,,,,,,,,,,,,,,,,,,,,,,,,,,,,,,,,,,,,,,,,,,,,,,,,,,,,,,,,,,,,,,,,,,,,,,,,,,,,,,,,,,,,,,,,,,,,,,,,,,,,,,,,,,,,,,,
,,,,,,6013162277aab7174f7dad94,62bbfab2b853f4201ecc5850,2022-06-29_09h09.46.005,Colour_Asymmetry_Pilot,2022.1.3,Win32,144.0092166,62bbe60bf3d75ef465d3e404,0,64,64,45,1,threefour,,,,,,,,,,,,,,,,,,,,,,,,,,,,,,,,,,,,,,,,,,,,,,,,,,,,,,,,,,,,,,,,,,,,,,,,,,,,,,,,,,,,,,,,,,,,,,,,,,,,,,,,,,,,,,,,,,,,,,,,,,,,,,,,,,,,,,,,,,,,,,,,,,,,,,,
,,,,,,6013162277aab7174f7dad94,62bbfab2b853f4201ecc5850,2022-06-29_09h09.46.005,Colour_Asymmetry_Pilot,2022.1.3,Win32,144.0092166,62bbe60bf3d75ef465d3e404,0,65,65,130,1,twoone,,,,,,,,,,,,,,,,,,,,,,,,,,,,,,,,,,,,,,,,,,,,,,,,,,,,,,,,,,,,,,,,,,,,,,,,,,,,,,,,,,,,,,,,,,,,,,,,,,,,,,,,,,,,,,,,,,,,,,,,,,,,,,,,,,,,,,,,,,,,,,,,,,,,,,,
,,,,,,6013162277aab7174f7dad94,62bbfab2b853f4201ecc5850,2022-06-29_09h09.46.005,Colour_Asymmetry_Pilot,2022.1.3,Win32,144.0092166,62bbe60bf3d75ef465d3e404,0,66,66,3,1,twofour,,,,,,,,,,,,,,,,,,,,,,,,,,,,,,,,,,,,,,,,,,,,,,,,,,,,,,,,,,,,,,,,,,,,,,,,,,,,,,,,,,,,,,,,,,,,,,,,,,,,,,,,,,,,,,,,,,,,,,,,,,,,,,,,,,,,,,,,,,,,,,,,,,,,,,,
,,,,,,6013162277aab7174f7dad94,62bbfab2b853f4201ecc5850,2022-06-29_09h09.46.005,Colour_Asymmetry_Pilot,2022.1.3,Win32,144.0092166,62bbe60bf3d75ef465d3e404,0,67,67,57,1,onethree,,,,,,,,,,,,,,,,,,,,,,,,,,,,,,,,,,,,,,,,,,,,,,,,,,,,,,,,,,,,,,,,,,,,,,,,,,,,,,,,,,,,,,,,,,,,,,,,,,,,,,,,,,,,,,,,,,,,,,,,,,,,,,,,,,,,,,,,,,,,,,,,,,,,,,,
,,,,,,6013162277aab7174f7dad94,62bbfab2b853f4201ecc5850,2022-06-29_09h09.46.005,Colour_Asymmetry_Pilot,2022.1.3,Win32,144.0092166,62bbe60bf3d75ef465d3e404,0,68,68,23,1,fourthree,,,,,,,,,,,,,,,,,,,,,,,,,,,,,,,,,,,,,,,,,,,,,,,,,,,,,,,,,,,,,,,,,,,,,,,,,,,,,,,,,,,,,,,,,,,,,,,,,,,,,,,,,,,,,,,,,,,,,,,,,,,,,,,,,,,,,,,,,,,,,,,,,,,,,,,
,,,,,,6013162277aab7174f7dad94,62bbfab2b853f4201ecc5850,2022-06-29_09h09.46.005,Colour_Asymmetry_Pilot,2022.1.3,Win32,144.0092166,62bbe60bf3d75ef465d3e404,0,69,69,28,1,threeone,,,,,,,,,,,,,,,,,,,,,,,,,,,,,,,,,,,,,,,,,,,,,,,,,,,,,,,,,,,,,,,,,,,,,,,,,,,,,,,,,,,,,,,,,,,,,,,,,,,,,,,,,,,,,,,,,,,,,,,,,,,,,,,,,,,,,,,,,,,,,,,,,,,,,,,
,,,,,,6013162277aab7174f7dad94,62bbfab2b853f4201ecc5850,2022-06-29_09h09.46.005,Colour_Asymmetry_Pilot,2022.1.3,Win32,144.0092166,62bbe60bf3d75ef465d3e404,0,70,70,125,1,threefour,,,,,,,,,,,,,,,,,,,,,,,,,,,,,,,,,,,,,,,,,,,,,,,,,,,,,,,,,,,,,,,,,,,,,,,,,,,,,,,,,,,,,,,,,,,,,,,,,,,,,,,,,,,,,,,,,,,,,,,,,,,,,,,,,,,,,,,,,,,,,,,,,,,,,,,
,,,,,,6013162277aab7174f7dad94,62bbfab2b853f4201ecc5850,2022-06-29_09h09.46.005,Colour_Asymmetry_Pilot,2022.1.3,Win32,144.0092166,62bbe60bf3d75ef465d3e404,0,71,71,54,1,fourtwo,,,,,,,,,,,,,,,,,,,,,,,,,,,,,,,,,,,,,,,,,,,,,,,,,,,,,,,,,,,,,,,,,,,,,,,,,,,,,,,,,,,,,,,,,,,,,,,,,,,,,,,,,,,,,,,,,,,,,,,,,,,,,,,,,,,,,,,,,,,,,,,,,,,,,,,
,,,,,,6013162277aab7174f7dad94,62bbfab2b853f4201ecc5850,2022-06-29_09h09.46.005,Colour_Asymmetry_Pilot,2022.1.3,Win32,144.0092166,62bbe60bf3d75ef465d3e404,0,72,72,0,1,onetwo,,,,,,,,,,,,,,,,,,,,,,,,,,,,,,,,,,,,,,,,,,,,,,,,,,,,,,,,,,,,,,,,,,,,,,,,,,,,,,,,,,,,,,,,,,,,,,,,,,,,,,,,,,,,,,,,,,,,,,,,,,,,,,,,,,,,,,,,,,,,,,,,,,,,,,,
,,,,,,6013162277aab7174f7dad94,62bbfab2b853f4201ecc5850,2022-06-29_09h09.46.005,Colour_Asymmetry_Pilot,2022.1.3,Win32,144.0092166,62bbe60bf3d75ef465d3e404,0,73,73,36,1,threeone,,,,,,,,,,,,,,,,,,,,,,,,,,,,,,,,,,,,,,,,,,,,,,,,,,,,,,,,,,,,,,,,,,,,,,,,,,,,,,,,,,,,,,,,,,,,,,,,,,,,,,,,,,,,,,,,,,,,,,,,,,,,,,,,,,,,,,,,,,,,,,,,,,,,,,,
,,,,,,6013162277aab7174f7dad94,62bbfab2b853f4201ecc5850,2022-06-29_09h09.46.005,Colour_Asymmetry_Pilot,2022.1.3,Win32,144.0092166,62bbe60bf3d75ef465d3e404,0,74,74,160,1,onetwo,,,,,,,,,,,,,,,,,,,,,,,,,,,,,,,,,,,,,,,,,,,,,,,,,,,,,,,,,,,,,,,,,,,,,,,,,,,,,,,,,,,,,,,,,,,,,,,,,,,,,,,,,,,,,,,,,,,,,,,,,,,,,,,,,,,,,,,,,,,,,,,,,,,,,,,
,,,,,,6013162277aab7174f7dad94,62bbfab2b853f4201ecc5850,2022-06-29_09h09.46.005,Colour_Asymmetry_Pilot,2022.1.3,Win32,144.0092166,62bbe60bf3d75ef465d3e404,0,75,75,123,1,twofour,,,,,,,,,,,,,,,,,,,,,,,,,,,,,,,,,,,,,,,,,,,,,,,,,,,,,,,,,,,,,,,,,,,,,,,,,,,,,,,,,,,,,,,,,,,,,,,,,,,,,,,,,,,,,,,,,,,,,,,,,,,,,,,,,,,,,,,,,,,,,,,,,,,,,,,
,,,,,,6013162277aab7174f7dad94,62bbfab2b853f4201ecc5850,2022-06-29_09h09.46.005,Colour_Asymmetry_Pilot,2022.1.3,Win32,144.0092166,62bbe60bf3d75ef465d3e404,0,76,76,124,1,threeone,,,,,,,,,,,,,,,,,,,,,,,,,,,,,,,,,,,,,,,,,,,,,,,,,,,,,,,,,,,,,,,,,,,,,,,,,,,,,,,,,,,,,,,,,,,,,,,,,,,,,,,,,,,,,,,,,,,,,,,,,,,,,,,,,,,,,,,,,,,,,,,,,,,,,,,
,,,,,,6013162277aab7174f7dad94,62bbfab2b853f4201ecc5850,2022-06-29_09h09.46.005,Colour_Asymmetry_Pilot,2022.1.3,Win32,144.0092166,62bbe60bf3d75ef465d3e404,0,77,77,78,1,fourtwo,,,,,,,,,,,,,,,,,,,,,,,,,,,,,,,,,,,,,,,,,,,,,,,,,,,,,,,,,,,,,,,,,,,,,,,,,,,,,,,,,,,,,,,,,,,,,,,,,,,,,,,,,,,,,,,,,,,,,,,,,,,,,,,,,,,,,,,,,,,,,,,,,,,,,,,
,,,,,,6013162277aab7174f7dad94,62bbfab2b853f4201ecc5850,2022-06-29_09h09.46.005,Colour_Asymmetry_Pilot,2022.1.3,Win32,144.0092166,62bbe60bf3d75ef465d3e404,0,78,78,77,1,threefour,,,,,,,,,,,,,,,,,,,,,,,,,,,,,,,,,,,,,,,,,,,,,,,,,,,,,,,,,,,,,,,,,,,,,,,,,,,,,,,,,,,,,,,,,,,,,,,,,,,,,,,,,,,,,,,,,,,,,,,,,,,,,,,,,,,,,,,,,,,,,,,,,,,,,,,
,,,,,,6013162277aab7174f7dad94,62bbfab2b853f4201ecc5850,2022-06-29_09h09.46.005,Colour_Asymmetry_Pilot,2022.1.3,Win32,144.0092166,62bbe60bf3d75ef465d3e404,0,79,79,114,1,twoone,,,,,,,,,,,,,,,,,,,,,,,,,,,,,,,,,,,,,,,,,,,,,,,,,,,,,,,,,,,,,,,,,,,,,,,,,,,,,,,,,,,,,,,,,,,,,,,,,,,,,,,,,,,,,,,,,,,,,,,,,,,,,,,,,,,,,,,,,,,,,,,,,,,,,,,
,,,,,,6013162277aab7174f7dad94,62bbfab2b853f4201ecc5850,2022-06-29_09h09.46.005,Colour_Asymmetry_Pilot,2022.1.3,Win32,144.0092166,62bbe60bf3d75ef465d3e404,0,80,80,149,1,threefour,,,,,,,,,,,,,,,,,,,,,,,,,,,,,,,,,,,,,,,,,,,,,,,,,,,,,,,,,,,,,,,,,,,,,,,,,,,,,,,,,,,,,,,,,,,,,,,,,,,,,,,,,,,,,,,,,,,,,,,,,,,,,,,,,,,,,,,,,,,,,,,,,,,,,,,
,,,,,,6013162277aab7174f7dad94,62bbfab2b853f4201ecc5850,2022-06-29_09h09.46.005,Colour_Asymmetry_Pilot,2022.1.3,Win32,144.0092166,62bbe60bf3d75ef465d3e404,0,81,81,143,1,fourthree,,,,,,,,,,,,,,,,,,,,,,,,,,,,,,,,,,,,,,,,,,,,,,,,,,,,,,,,,,,,,,,,,,,,,,,,,,,,,,,,,,,,,,,,,,,,,,,,,,,,,,,,,,,,,,,,,,,,,,,,,,,,,,,,,,,,,,,,,,,,,,,,,,,,,,,
,,,,,,6013162277aab7174f7dad94,62bbfab2b853f4201ecc5850,2022-06-29_09h09.46.005,Colour_Asymmetry_Pilot,2022.1.3,Win32,144.0092166,62bbe60bf3d75ef465d3e404,0,82,82,65,1,onethree,,,,,,,,,,,,,,,,,,,,,,,,,,,,,,,,,,,,,,,,,,,,,,,,,,,,,,,,,,,,,,,,,,,,,,,,,,,,,,,,,,,,,,,,,,,,,,,,,,,,,,,,,,,,,,,,,,,,,,,,,,,,,,,,,,,,,,,,,,,,,,,,,,,,,,,
,,,,,,6013162277aab7174f7dad94,62bbfab2b853f4201ecc5850,2022-06-29_09h09.46.005,Colour_Asymmetry_Pilot,2022.1.3,Win32,144.0092166,62bbe60bf3d75ef465d3e404,0,83,83,48,1,onetwo,,,,,,,,,,,,,,,,,,,,,,,,,,,,,,,,,,,,,,,,,,,,,,,,,,,,,,,,,,,,,,,,,,,,,,,,,,,,,,,,,,,,,,,,,,,,,,,,,,,,,,,,,,,,,,,,,,,,,,,,,,,,,,,,,,,,,,,,,,,,,,,,,,,,,,,
,,,,,,6013162277aab7174f7dad94,62bbfab2b853f4201ecc5850,2022-06-29_09h09.46.005,Colour_Asymmetry_Pilot,2022.1.3,Win32,144.0092166,62bbe60bf3d75ef465d3e404,0,84,84,69,1,threefour,,,,,,,,,,,,,,,,,,,,,,,,,,,,,,,,,,,,,,,,,,,,,,,,,,,,,,,,,,,,,,,,,,,,,,,,,,,,,,,,,,,,,,,,,,,,,,,,,,,,,,,,,,,,,,,,,,,,,,,,,,,,,,,,,,,,,,,,,,,,,,,,,,,,,,,
,,,,,,6013162277aab7174f7dad94,62bbfab2b853f4201ecc5850,2022-06-29_09h09.46.005,Colour_Asymmetry_Pilot,2022.1.3,Win32,144.0092166,62bbe60bf3d75ef465d3e404,0,85,85,105,1,onethree,,,,,,,,,,,,,,,,,,,,,,,,,,,,,,,,,,,,,,,,,,,,,,,,,,,,,,,,,,,,,,,,,,,,,,,,,,,,,,,,,,,,,,,,,,,,,,,,,,,,,,,,,,,,,,,,,,,,,,,,,,,,,,,,,,,,,,,,,,,,,,,,,,,,,,,
,,,,,,6013162277aab7174f7dad94,62bbfab2b853f4201ecc5850,2022-06-29_09h09.46.005,Colour_Asymmetry_Pilot,2022.1.3,Win32,144.0092166,62bbe60bf3d75ef465d3e404,0,86,86,38,1,fourtwo,,,,,,,,,,,,,,,,,,,,,,,,,,,,,,,,,,,,,,,,,,,,,,,,,,,,,,,,,,,,,,,,,,,,,,,,,,,,,,,,,,,,,,,,,,,,,,,,,,,,,,,,,,,,,,,,,,,,,,,,,,,,,,,,,,,,,,,,,,,,,,,,,,,,,,,
,,,,,,6013162277aab7174f7dad94,62bbfab2b853f4201ecc5850,2022-06-29_09h09.46.005,Colour_Asymmetry_Pilot,2022.1.3,Win32,144.0092166,62bbe60bf3d75ef465d3e404,0,87,87,51,1,twofour,,,,,,,,,,,,,,,,,,,,,,,,,,,,,,,,,,,,,,,,,,,,,,,,,,,,,,,,,,,,,,,,,,,,,,,,,,,,,,,,,,,,,,,,,,,,,,,,,,,,,,,,,,,,,,,,,,,,,,,,,,,,,,,,,,,,,,,,,,,,,,,,,,,,,,,
,,,,,,6013162277aab7174f7dad94,62bbfab2b853f4201ecc5850,2022-06-29_09h09.46.005,Colour_Asymmetry_Pilot,2022.1.3,Win32,144.0092166,62bbe60bf3d75ef465d3e404,0,88,88,15,1,fourthree,,,,,,,,,,,,,,,,,,,,,,,,,,,,,,,,,,,,,,,,,,,,,,,,,,,,,,,,,,,,,,,,,,,,,,,,,,,,,,,,,,,,,,,,,,,,,,,,,,,,,,,,,,,,,,,,,,,,,,,,,,,,,,,,,,,,,,,,,,,,,,,,,,,,,,,
,,,,,,6013162277aab7174f7dad94,62bbfab2b853f4201ecc5850,2022-06-29_09h09.46.005,Colour_Asymmetry_Pilot,2022.1.3,Win32,144.0092166,62bbe60bf3d75ef465d3e404,0,89,89,159,1,fourthree,,,,,,,,,,,,,,,,,,,,,,,,,,,,,,,,,,,,,,,,,,,,,,,,,,,,,,,,,,,,,,,,,,,,,,,,,,,,,,,,,,,,,,,,,,,,,,,,,,,,,,,,,,,,,,,,,,,,,,,,,,,,,,,,,,,,,,,,,,,,,,,,,,,,,,,
,,,,,,6013162277aab7174f7dad94,62bbfab2b853f4201ecc5850,2022-06-29_09h09.46.005,Colour_Asymmetry_Pilot,2022.1.3,Win32,144.0092166,62bbe60bf3d75ef465d3e404,0,90,90,40,1,onetwo,,,,,,,,,,,,,,,,,,,,,,,,,,,,,,,,,,,,,,,,,,,,,,,,,,,,,,,,,,,,,,,,,,,,,,,,,,,,,,,,,,,,,,,,,,,,,,,,,,,,,,,,,,,,,,,,,,,,,,,,,,,,,,,,,,,,,,,,,,,,,,,,,,,,,,,
,,,,,,6013162277aab7174f7dad94,62bbfab2b853f4201ecc5850,2022-06-29_09h09.46.005,Colour_Asymmetry_Pilot,2022.1.3,Win32,144.0092166,62bbe60bf3d75ef465d3e404,0,91,91,18,1,twoone,,,,,,,,,,,,,,,,,,,,,,,,,,,,,,,,,,,,,,,,,,,,,,,,,,,,,,,,,,,,,,,,,,,,,,,,,,,,,,,,,,,,,,,,,,,,,,,,,,,,,,,,,,,,,,,,,,,,,,,,,,,,,,,,,,,,,,,,,,,,,,,,,,,,,,,
,,,,,,6013162277aab7174f7dad94,62bbfab2b853f4201ecc5850,2022-06-29_09h09.46.005,Colour_Asymmetry_Pilot,2022.1.3,Win32,144.0092166,62bbe60bf3d75ef465d3e404,0,92,92,30,1,fourtwo,,,,,,,,,,,,,,,,,,,,,,,,,,,,,,,,,,,,,,,,,,,,,,,,,,,,,,,,,,,,,,,,,,,,,,,,,,,,,,,,,,,,,,,,,,,,,,,,,,,,,,,,,,,,,,,,,,,,,,,,,,,,,,,,,,,,,,,,,,,,,,,,,,,,,,,
,,,,,,6013162277aab7174f7dad94,62bbfab2b853f4201ecc5850,2022-06-29_09h09.46.005,Colour_Asymmetry_Pilot,2022.1.3,Win32,144.0092166,62bbe60bf3d75ef465d3e404,0,93,93,118,1,fourtwo,,,,,,,,,,,,,,,,,,,,,,,,,,,,,,,,,,,,,,,,,,,,,,,,,,,,,,,,,,,,,,,,,,,,,,,,,,,,,,,,,,,,,,,,,,,,,,,,,,,,,,,,,,,,,,,,,,,,,,,,,,,,,,,,,,,,,,,,,,,,,,,,,,,,,,,
,,,,,,6013162277aab7174f7dad94,62bbfab2b853f4201ecc5850,2022-06-29_09h09.46.005,Colour_Asymmetry_Pilot,2022.1.3,Win32,144.0092166,62bbe60bf3d75ef465d3e404,0,94,94,139,1,twofour,,,,,,,,,,,,,,,,,,,,,,,,,,,,,,,,,,,,,,,,,,,,,,,,,,,,,,,,,,,,,,,,,,,,,,,,,,,,,,,,,,,,,,,,,,,,,,,,,,,,,,,,,,,,,,,,,,,,,,,,,,,,,,,,,,,,,,,,,,,,,,,,,,,,,,,
,,,,,,6013162277aab7174f7dad94,62bbfab2b853f4201ecc5850,2022-06-29_09h09.46.005,Colour_Asymmetry_Pilot,2022.1.3,Win32,144.0092166,62bbe60bf3d75ef465d3e404,0,95,95,147,1,twofour,,,,,,,,,,,,,,,,,,,,,,,,,,,,,,,,,,,,,,,,,,,,,,,,,,,,,,,,,,,,,,,,,,,,,,,,,,,,,,,,,,,,,,,,,,,,,,,,,,,,,,,,,,,,,,,,,,,,,,,,,,,,,,,,,,,,,,,,,,,,,,,,,,,,,,,
,,,,,,6013162277aab7174f7dad94,62bbfab2b853f4201ecc5850,2022-06-29_09h09.46.005,Colour_Asymmetry_Pilot,2022.1.3,Win32,144.0092166,62bbe60bf3d75ef465d3e404,0,96,96,22,1,fourtwo,,,,,,,,,,,,,,,,,,,,,,,,,,,,,,,,,,,,,,,,,,,,,,,,,,,,,,,,,,,,,,,,,,,,,,,,,,,,,,,,,,,,,,,,,,,,,,,,,,,,,,,,,,,,,,,,,,,,,,,,,,,,,,,,,,,,,,,,,,,,,,,,,,,,,,,
,,,,,,6013162277aab7174f7dad94,62bbfab2b853f4201ecc5850,2022-06-29_09h09.46.005,Colour_Asymmetry_Pilot,2022.1.3,Win32,144.0092166,62bbe60bf3d75ef465d3e404,0,97,97,43,1,twofour,,,,,,,,,,,,,,,,,,,,,,,,,,,,,,,,,,,,,,,,,,,,,,,,,,,,,,,,,,,,,,,,,,,,,,,,,,,,,,,,,,,,,,,,,,,,,,,,,,,,,,,,,,,,,,,,,,,,,,,,,,,,,,,,,,,,,,,,,,,,,,,,,,,,,,,
,,,,,,6013162277aab7174f7dad94,62bbfab2b853f4201ecc5850,2022-06-29_09h09.46.005,Colour_Asymmetry_Pilot,2022.1.3,Win32,144.0092166,62bbe60bf3d75ef465d3e404,0,98,98,131,1,twofour,,,,,,,,,,,,,,,,,,,,,,,,,,,,,,,,,,,,,,,,,,,,,,,,,,,,,,,,,,,,,,,,,,,,,,,,,,,,,,,,,,,,,,,,,,,,,,,,,,,,,,,,,,,,,,,,,,,,,,,,,,,,,,,,,,,,,,,,,,,,,,,,,,,,,,,
,,,,,,6013162277aab7174f7dad94,62bbfab2b853f4201ecc5850,2022-06-29_09h09.46.005,Colour_Asymmetry_Pilot,2022.1.3,Win32,144.0092166,62bbe60bf3d75ef465d3e404,0,99,99,85,1,threefour,,,,,,,,,,,,,,,,,,,,,,,,,,,,,,,,,,,,,,,,,,,,,,,,,,,,,,,,,,,,,,,,,,,,,,,,,,,,,,,,,,,,,,,,,,,,,,,,,,,,,,,,,,,,,,,,,,,,,,,,,,,,,,,,,,,,,,,,,,,,,,,,,,,,,,,
,,,,,,6013162277aab7174f7dad94,62bbfab2b853f4201ecc5850,2022-06-29_09h09.46.005,Colour_Asymmetry_Pilot,2022.1.3,Win32,144.0092166,62bbe60bf3d75ef465d3e404,0,100,100,98,1,twoone,,,,,,,,,,,,,,,,,,,,,,,,,,,,,,,,,,,,,,,,,,,,,,,,,,,,,,,,,,,,,,,,,,,,,,,,,,,,,,,,,,,,,,,,,,,,,,,,,,,,,,,,,,,,,,,,,,,,,,,,,,,,,,,,,,,,,,,,,,,,,,,,,,,,,,,
,,,,,,6013162277aab7174f7dad94,62bbfab2b853f4201ecc5850,2022-06-29_09h09.46.005,Colour_Asymmetry_Pilot,2022.1.3,Win32,144.0092166,62bbe60bf3d75ef465d3e404,0,101,101,158,1,fourtwo,,,,,,,,,,,,,,,,,,,,,,,,,,,,,,,,,,,,,,,,,,,,,,,,,,,,,,,,,,,,,,,,,,,,,,,,,,,,,,,,,,,,,,,,,,,,,,,,,,,,,,,,,,,,,,,,,,,,,,,,,,,,,,,,,,,,,,,,,,,,,,,,,,,,,,,
,,,,,,6013162277aab7174f7dad94,62bbfab2b853f4201ecc5850,2022-06-29_09h09.46.005,Colour_Asymmetry_Pilot,2022.1.3,Win32,144.0092166,62bbe60bf3d75ef465d3e404,0,102,102,146,1,twoone,,,,,,,,,,,,,,,,,,,,,,,,,,,,,,,,,,,,,,,,,,,,,,,,,,,,,,,,,,,,,,,,,,,,,,,,,,,,,,,,,,,,,,,,,,,,,,,,,,,,,,,,,,,,,,,,,,,,,,,,,,,,,,,,,,,,,,,,,,,,,,,,,,,,,,,
,,,,,,6013162277aab7174f7dad94,62bbfab2b853f4201ecc5850,2022-06-29_09h09.46.005,Colour_Asymmetry_Pilot,2022.1.3,Win32,144.0092166,62bbe60bf3d75ef465d3e404,0,103,103,84,1,threeone,,,,,,,,,,,,,,,,,,,,,,,,,,,,,,,,,,,,,,,,,,,,,,,,,,,,,,,,,,,,,,,,,,,,,,,,,,,,,,,,,,,,,,,,,,,,,,,,,,,,,,,,,,,,,,,,,,,,,,,,,,,,,,,,,,,,,,,,,,,,,,,,,,,,,,,
,,,,,,6013162277aab7174f7dad94,62bbfab2b853f4201ecc5850,2022-06-29_09h09.46.005,Colour_Asymmetry_Pilot,2022.1.3,Win32,144.0092166,62bbe60bf3d75ef465d3e404,0,104,104,35,1,twofour,,,,,,,,,,,,,,,,,,,,,,,,,,,,,,,,,,,,,,,,,,,,,,,,,,,,,,,,,,,,,,,,,,,,,,,,,,,,,,,,,,,,,,,,,,,,,,,,,,,,,,,,,,,,,,,,,,,,,,,,,,,,,,,,,,,,,,,,,,,,,,,,,,,,,,,
,,,,,,6013162277aab7174f7dad94,62bbfab2b853f4201ecc5850,2022-06-29_09h09.46.005,Colour_Asymmetry_Pilot,2022.1.3,Win32,144.0092166,62bbe60bf3d75ef465d3e404,0,105,105,75,1,twofour,,,,,,,,,,,,,,,,,,,,,,,,,,,,,,,,,,,,,,,,,,,,,,,,,,,,,,,,,,,,,,,,,,,,,,,,,,,,,,,,,,,,,,,,,,,,,,,,,,,,,,,,,,,,,,,,,,,,,,,,,,,,,,,,,,,,,,,,,,,,,,,,,,,,,,,
,,,,,,6013162277aab7174f7dad94,62bbfab2b853f4201ecc5850,2022-06-29_09h09.46.005,Colour_Asymmetry_Pilot,2022.1.3,Win32,144.0092166,62bbe60bf3d75ef465d3e404,0,106,106,67,1,twofour,,,,,,,,,,,,,,,,,,,,,,,,,,,,,,,,,,,,,,,,,,,,,,,,,,,,,,,,,,,,,,,,,,,,,,,,,,,,,,,,,,,,,,,,,,,,,,,,,,,,,,,,,,,,,,,,,,,,,,,,,,,,,,,,,,,,,,,,,,,,,,,,,,,,,,,
,,,,,,6013162277aab7174f7dad94,62bbfab2b853f4201ecc5850,2022-06-29_09h09.46.005,Colour_Asymmetry_Pilot,2022.1.3,Win32,144.0092166,62bbe60bf3d75ef465d3e404,0,107,107,73,1,onethree,,,,,,,,,,,,,,,,,,,,,,,,,,,,,,,,,,,,,,,,,,,,,,,,,,,,,,,,,,,,,,,,,,,,,,,,,,,,,,,,,,,,,,,,,,,,,,,,,,,,,,,,,,,,,,,,,,,,,,,,,,,,,,,,,,,,,,,,,,,,,,,,,,,,,,,
,,,,,,6013162277aab7174f7dad94,62bbfab2b853f4201ecc5850,2022-06-29_09h09.46.005,Colour_Asymmetry_Pilot,2022.1.3,Win32,144.0092166,62bbe60bf3d75ef465d3e404,0,108,108,144,1,onetwo,,,,,,,,,,,,,,,,,,,,,,,,,,,,,,,,,,,,,,,,,,,,,,,,,,,,,,,,,,,,,,,,,,,,,,,,,,,,,,,,,,,,,,,,,,,,,,,,,,,,,,,,,,,,,,,,,,,,,,,,,,,,,,,,,,,,,,,,,,,,,,,,,,,,,,,
,,,,,,6013162277aab7174f7dad94,62bbfab2b853f4201ecc5850,2022-06-29_09h09.46.005,Colour_Asymmetry_Pilot,2022.1.3,Win32,144.0092166,62bbe60bf3d75ef465d3e404,0,109,109,66,1,twoone,,,,,,,,,,,,,,,,,,,,,,,,,,,,,,,,,,,,,,,,,,,,,,,,,,,,,,,,,,,,,,,,,,,,,,,,,,,,,,,,,,,,,,,,,,,,,,,,,,,,,,,,,,,,,,,,,,,,,,,,,,,,,,,,,,,,,,,,,,,,,,,,,,,,,,,
,,,,,,6013162277aab7174f7dad94,62bbfab2b853f4201ecc5850,2022-06-29_09h09.46.005,Colour_Asymmetry_Pilot,2022.1.3,Win32,144.0092166,62bbe60bf3d75ef465d3e404,0,110,110,136,1,onetwo,,,,,,,,,,,,,,,,,,,,,,,,,,,,,,,,,,,,,,,,,,,,,,,,,,,,,,,,,,,,,,,,,,,,,,,,,,,,,,,,,,,,,,,,,,,,,,,,,,,,,,,,,,,,,,,,,,,,,,,,,,,,,,,,,,,,,,,,,,,,,,,,,,,,,,,
,,,,,,6013162277aab7174f7dad94,62bbfab2b853f4201ecc5850,2022-06-29_09h09.46.005,Colour_Asymmetry_Pilot,2022.1.3,Win32,144.0092166,62bbe60bf3d75ef465d3e404,0,111,111,109,1,threefour,,,,,,,,,,,,,,,,,,,,,,,,,,,,,,,,,,,,,,,,,,,,,,,,,,,,,,,,,,,,,,,,,,,,,,,,,,,,,,,,,,,,,,,,,,,,,,,,,,,,,,,,,,,,,,,,,,,,,,,,,,,,,,,,,,,,,,,,,,,,,,,,,,,,,,,
,,,,,,6013162277aab7174f7dad94,62bbfab2b853f4201ecc5850,2022-06-29_09h09.46.005,Colour_Asymmetry_Pilot,2022.1.3,Win32,144.0092166,62bbe60bf3d75ef465d3e404,0,112,112,32,1,onetwo,,,,,,,,,,,,,,,,,,,,,,,,,,,,,,,,,,,,,,,,,,,,,,,,,,,,,,,,,,,,,,,,,,,,,,,,,,,,,,,,,,,,,,,,,,,,,,,,,,,,,,,,,,,,,,,,,,,,,,,,,,,,,,,,,,,,,,,,,,,,,,,,,,,,,,,
,,,,,,6013162277aab7174f7dad94,62bbfab2b853f4201ecc5850,2022-06-29_09h09.46.005,Colour_Asymmetry_Pilot,2022.1.3,Win32,144.0092166,62bbe60bf3d75ef465d3e404,0,113,113,106,1,twoone,,,,,,,,,,,,,,,,,,,,,,,,,,,,,,,,,,,,,,,,,,,,,,,,,,,,,,,,,,,,,,,,,,,,,,,,,,,,,,,,,,,,,,,,,,,,,,,,,,,,,,,,,,,,,,,,,,,,,,,,,,,,,,,,,,,,,,,,,,,,,,,,,,,,,,,
,,,,,,6013162277aab7174f7dad94,62bbfab2b853f4201ecc5850,2022-06-29_09h09.46.005,Colour_Asymmetry_Pilot,2022.1.3,Win32,144.0092166,62bbe60bf3d75ef465d3e404,0,114,114,60,1,threeone,,,,,,,,,,,,,,,,,,,,,,,,,,,,,,,,,,,,,,,,,,,,,,,,,,,,,,,,,,,,,,,,,,,,,,,,,,,,,,,,,,,,,,,,,,,,,,,,,,,,,,,,,,,,,,,,,,,,,,,,,,,,,,,,,,,,,,,,,,,,,,,,,,,,,,,
,,,,,,6013162277aab7174f7dad94,62bbfab2b853f4201ecc5850,2022-06-29_09h09.46.005,Colour_Asymmetry_Pilot,2022.1.3,Win32,144.0092166,62bbe60bf3d75ef465d3e404,0,115,115,33,1,onethree,,,,,,,,,,,,,,,,,,,,,,,,,,,,,,,,,,,,,,,,,,,,,,,,,,,,,,,,,,,,,,,,,,,,,,,,,,,,,,,,,,,,,,,,,,,,,,,,,,,,,,,,,,,,,,,,,,,,,,,,,,,,,,,,,,,,,,,,,,,,,,,,,,,,,,,
,,,,,,6013162277aab7174f7dad94,62bbfab2b853f4201ecc5850,2022-06-29_09h09.46.005,Colour_Asymmetry_Pilot,2022.1.3,Win32,144.0092166,62bbe60bf3d75ef465d3e404,0,116,116,155,1,twofour,,,,,,,,,,,,,,,,,,,,,,,,,,,,,,,,,,,,,,,,,,,,,,,,,,,,,,,,,,,,,,,,,,,,,,,,,,,,,,,,,,,,,,,,,,,,,,,,,,,,,,,,,,,,,,,,,,,,,,,,,,,,,,,,,,,,,,,,,,,,,,,,,,,,,,,
,,,,,,6013162277aab7174f7dad94,62bbfab2b853f4201ecc5850,2022-06-29_09h09.46.005,Colour_Asymmetry_Pilot,2022.1.3,Win32,144.0092166,62bbe60bf3d75ef465d3e404,0,117,117,89,1,onethree,,,,,,,,,,,,,,,,,,,,,,,,,,,,,,,,,,,,,,,,,,,,,,,,,,,,,,,,,,,,,,,,,,,,,,,,,,,,,,,,,,,,,,,,,,,,,,,,,,,,,,,,,,,,,,,,,,,,,,,,,,,,,,,,,,,,,,,,,,,,,,,,,,,,,,,
,,,,,,6013162277aab7174f7dad94,62bbfab2b853f4201ecc5850,2022-06-29_09h09.46.005,Colour_Asymmetry_Pilot,2022.1.3,Win32,144.0092166,62bbe60bf3d75ef465d3e404,0,118,118,29,1,threefour,,,,,,,,,,,,,,,,,,,,,,,,,,,,,,,,,,,,,,,,,,,,,,,,,,,,,,,,,,,,,,,,,,,,,,,,,,,,,,,,,,,,,,,,,,,,,,,,,,,,,,,,,,,,,,,,,,,,,,,,,,,,,,,,,,,,,,,,,,,,,,,,,,,,,,,
,,,,,,6013162277aab7174f7dad94,62bbfab2b853f4201ecc5850,2022-06-29_09h09.46.005,Colour_Asymmetry_Pilot,2022.1.3,Win32,144.0092166,62bbe60bf3d75ef465d3e404,0,119,119,127,1,fourthree,,,,,,,,,,,,,,,,,,,,,,,,,,,,,,,,,,,,,,,,,,,,,,,,,,,,,,,,,,,,,,,,,,,,,,,,,,,,,,,,,,,,,,,,,,,,,,,,,,,,,,,,,,,,,,,,,,,,,,,,,,,,,,,,,,,,,,,,,,,,,,,,,,,,,,,
,,,,,,6013162277aab7174f7dad94,62bbfab2b853f4201ecc5850,2022-06-29_09h09.46.005,Colour_Asymmetry_Pilot,2022.1.3,Win32,144.0092166,62bbe60bf3d75ef465d3e404,0,120,120,101,1,threefour,,,,,,,,,,,,,,,,,,,,,,,,,,,,,,,,,,,,,,,,,,,,,,,,,,,,,,,,,,,,,,,,,,,,,,,,,,,,,,,,,,,,,,,,,,,,,,,,,,,,,,,,,,,,,,,,,,,,,,,,,,,,,,,,,,,,,,,,,,,,,,,,,,,,,,,
,,,,,,6013162277aab7174f7dad94,62bbfab2b853f4201ecc5850,2022-06-29_09h09.46.005,Colour_Asymmetry_Pilot,2022.1.3,Win32,144.0092166,62bbe60bf3d75ef465d3e404,0,121,121,119,1,fourthree,,,,,,,,,,,,,,,,,,,,,,,,,,,,,,,,,,,,,,,,,,,,,,,,,,,,,,,,,,,,,,,,,,,,,,,,,,,,,,,,,,,,,,,,,,,,,,,,,,,,,,,,,,,,,,,,,,,,,,,,,,,,,,,,,,,,,,,,,,,,,,,,,,,,,,,
,,,,,,6013162277aab7174f7dad94,62bbfab2b853f4201ecc5850,2022-06-29_09h09.46.005,Colour_Asymmetry_Pilot,2022.1.3,Win32,144.0092166,62bbe60bf3d75ef465d3e404,0,122,122,117,1,threefour,,,,,,,,,,,,,,,,,,,,,,,,,,,,,,,,,,,,,,,,,,,,,,,,,,,,,,,,,,,,,,,,,,,,,,,,,,,,,,,,,,,,,,,,,,,,,,,,,,,,,,,,,,,,,,,,,,,,,,,,,,,,,,,,,,,,,,,,,,,,,,,,,,,,,,,
,,,,,,6013162277aab7174f7dad94,62bbfab2b853f4201ecc5850,2022-06-29_09h09.46.005,Colour_Asymmetry_Pilot,2022.1.3,Win32,144.0092166,62bbe60bf3d75ef465d3e404,0,123,123,5,1,threefour,,,,,,,,,,,,,,,,,,,,,,,,,,,,,,,,,,,,,,,,,,,,,,,,,,,,,,,,,,,,,,,,,,,,,,,,,,,,,,,,,,,,,,,,,,,,,,,,,,,,,,,,,,,,,,,,,,,,,,,,,,,,,,,,,,,,,,,,,,,,,,,,,,,,,,,
,,,,,,6013162277aab7174f7dad94,62bbfab2b853f4201ecc5850,2022-06-29_09h09.46.005,Colour_Asymmetry_Pilot,2022.1.3,Win32,144.0092166,62bbe60bf3d75ef465d3e404,0,124,124,161,1,onethree,,,,,,,,,,,,,,,,,,,,,,,,,,,,,,,,,,,,,,,,,,,,,,,,,,,,,,,,,,,,,,,,,,,,,,,,,,,,,,,,,,,,,,,,,,,,,,,,,,,,,,,,,,,,,,,,,,,,,,,,,,,,,,,,,,,,,,,,,,,,,,,,,,,,,,,
,,,,,,6013162277aab7174f7dad94,62bbfab2b853f4201ecc5850,2022-06-29_09h09.46.005,Colour_Asymmetry_Pilot,2022.1.3,Win32,144.0092166,62bbe60bf3d75ef465d3e404,0,125,125,100,1,threeone,,,,,,,,,,,,,,,,,,,,,,,,,,,,,,,,,,,,,,,,,,,,,,,,,,,,,,,,,,,,,,,,,,,,,,,,,,,,,,,,,,,,,,,,,,,,,,,,,,,,,,,,,,,,,,,,,,,,,,,,,,,,,,,,,,,,,,,,,,,,,,,,,,,,,,,
,,,,,,6013162277aab7174f7dad94,62bbfab2b853f4201ecc5850,2022-06-29_09h09.46.005,Colour_Asymmetry_Pilot,2022.1.3,Win32,144.0092166,62bbe60bf3d75ef465d3e404,0,126,126,58,1,twoone,,,,,,,,,,,,,,,,,,,,,,,,,,,,,,,,,,,,,,,,,,,,,,,,,,,,,,,,,,,,,,,,,,,,,,,,,,,,,,,,,,,,,,,,,,,,,,,,,,,,,,,,,,,,,,,,,,,,,,,,,,,,,,,,,,,,,,,,,,,,,,,,,,,,,,,
,,,,,,6013162277aab7174f7dad94,62bbfab2b853f4201ecc5850,2022-06-29_09h09.46.005,Colour_Asymmetry_Pilot,2022.1.3,Win32,144.0092166,62bbe60bf3d75ef465d3e404,0,127,127,134,1,fourtwo,,,,,,,,,,,,,,,,,,,,,,,,,,,,,,,,,,,,,,,,,,,,,,,,,,,,,,,,,,,,,,,,,,,,,,,,,,,,,,,,,,,,,,,,,,,,,,,,,,,,,,,,,,,,,,,,,,,,,,,,,,,,,,,,,,,,,,,,,,,,,,,,,,,,,,,
,,,,,,6013162277aab7174f7dad94,62bbfab2b853f4201ecc5850,2022-06-29_09h09.46.005,Colour_Asymmetry_Pilot,2022.1.3,Win32,144.0092166,62bbe60bf3d75ef465d3e404,0,128,128,61,1,threefour,,,,,,,,,,,,,,,,,,,,,,,,,,,,,,,,,,,,,,,,,,,,,,,,,,,,,,,,,,,,,,,,,,,,,,,,,,,,,,,,,,,,,,,,,,,,,,,,,,,,,,,,,,,,,,,,,,,,,,,,,,,,,,,,,,,,,,,,,,,,,,,,,,,,,,,
,,,,,,6013162277aab7174f7dad94,62bbfab2b853f4201ecc5850,2022-06-29_09h09.46.005,Colour_Asymmetry_Pilot,2022.1.3,Win32,144.0092166,62bbe60bf3d75ef465d3e404,0,129,129,93,1,threefour,,,,,,,,,,,,,,,,,,,,,,,,,,,,,,,,,,,,,,,,,,,,,,,,,,,,,,,,,,,,,,,,,,,,,,,,,,,,,,,,,,,,,,,,,,,,,,,,,,,,,,,,,,,,,,,,,,,,,,,,,,,,,,,,,,,,,,,,,,,,,,,,,,,,,,,
,,,,,,6013162277aab7174f7dad94,62bbfab2b853f4201ecc5850,2022-06-29_09h09.46.005,Colour_Asymmetry_Pilot,2022.1.3,Win32,144.0092166,62bbe60bf3d75ef465d3e404,0,130,130,90,1,twoone,,,,,,,,,,,,,,,,,,,,,,,,,,,,,,,,,,,,,,,,,,,,,,,,,,,,,,,,,,,,,,,,,,,,,,,,,,,,,,,,,,,,,,,,,,,,,,,,,,,,,,,,,,,,,,,,,,,,,,,,,,,,,,,,,,,,,,,,,,,,,,,,,,,,,,,
,,,,,,6013162277aab7174f7dad94,62bbfab2b853f4201ecc5850,2022-06-29_09h09.46.005,Colour_Asymmetry_Pilot,2022.1.3,Win32,144.0092166,62bbe60bf3d75ef465d3e404,0,131,131,74,1,twoone,,,,,,,,,,,,,,,,,,,,,,,,,,,,,,,,,,,,,,,,,,,,,,,,,,,,,,,,,,,,,,,,,,,,,,,,,,,,,,,,,,,,,,,,,,,,,,,,,,,,,,,,,,,,,,,,,,,,,,,,,,,,,,,,,,,,,,,,,,,,,,,,,,,,,,,
,,,,,,6013162277aab7174f7dad94,62bbfab2b853f4201ecc5850,2022-06-29_09h09.46.005,Colour_Asymmetry_Pilot,2022.1.3,Win32,144.0092166,62bbe60bf3d75ef465d3e404,0,132,132,62,1,fourtwo,,,,,,,,,,,,,,,,,,,,,,,,,,,,,,,,,,,,,,,,,,,,,,,,,,,,,,,,,,,,,,,,,,,,,,,,,,,,,,,,,,,,,,,,,,,,,,,,,,,,,,,,,,,,,,,,,,,,,,,,,,,,,,,,,,,,,,,,,,,,,,,,,,,,,,,
,,,,,,6013162277aab7174f7dad94,62bbfab2b853f4201ecc5850,2022-06-29_09h09.46.005,Colour_Asymmetry_Pilot,2022.1.3,Win32,144.0092166,62bbe60bf3d75ef465d3e404,0,133,133,137,1,onethree,,,,,,,,,,,,,,,,,,,,,,,,,,,,,,,,,,,,,,,,,,,,,,,,,,,,,,,,,,,,,,,,,,,,,,,,,,,,,,,,,,,,,,,,,,,,,,,,,,,,,,,,,,,,,,,,,,,,,,,,,,,,,,,,,,,,,,,,,,,,,,,,,,,,,,,
,,,,,,6013162277aab7174f7dad94,62bbfab2b853f4201ecc5850,2022-06-29_09h09.46.005,Colour_Asymmetry_Pilot,2022.1.3,Win32,144.0092166,62bbe60bf3d75ef465d3e404,0,134,134,104,1,onetwo,,,,,,,,,,,,,,,,,,,,,,,,,,,,,,,,,,,,,,,,,,,,,,,,,,,,,,,,,,,,,,,,,,,,,,,,,,,,,,,,,,,,,,,,,,,,,,,,,,,,,,,,,,,,,,,,,,,,,,,,,,,,,,,,,,,,,,,,,,,,,,,,,,,,,,,
,,,,,,6013162277aab7174f7dad94,62bbfab2b853f4201ecc5850,2022-06-29_09h09.46.005,Colour_Asymmetry_Pilot,2022.1.3,Win32,144.0092166,62bbe60bf3d75ef465d3e404,0,135,135,14,1,fourtwo,,,,,,,,,,,,,,,,,,,,,,,,,,,,,,,,,,,,,,,,,,,,,,,,,,,,,,,,,,,,,,,,,,,,,,,,,,,,,,,,,,,,,,,,,,,,,,,,,,,,,,,,,,,,,,,,,,,,,,,,,,,,,,,,,,,,,,,,,,,,,,,,,,,,,,,
,,,,,,6013162277aab7174f7dad94,62bbfab2b853f4201ecc5850,2022-06-29_09h09.46.005,Colour_Asymmetry_Pilot,2022.1.3,Win32,144.0092166,62bbe60bf3d75ef465d3e404,0,136,136,152,1,onetwo,,,,,,,,,,,,,,,,,,,,,,,,,,,,,,,,,,,,,,,,,,,,,,,,,,,,,,,,,,,,,,,,,,,,,,,,,,,,,,,,,,,,,,,,,,,,,,,,,,,,,,,,,,,,,,,,,,,,,,,,,,,,,,,,,,,,,,,,,,,,,,,,,,,,,,,
,,,,,,6013162277aab7174f7dad94,62bbfab2b853f4201ecc5850,2022-06-29_09h09.46.005,Colour_Asymmetry_Pilot,2022.1.3,Win32,144.0092166,62bbe60bf3d75ef465d3e404,0,137,137,24,1,onetwo,,,,,,,,,,,,,,,,,,,,,,,,,,,,,,,,,,,,,,,,,,,,,,,,,,,,,,,,,,,,,,,,,,,,,,,,,,,,,,,,,,,,,,,,,,,,,,,,,,,,,,,,,,,,,,,,,,,,,,,,,,,,,,,,,,,,,,,,,,,,,,,,,,,,,,,
,,,,,,6013162277aab7174f7dad94,62bbfab2b853f4201ecc5850,2022-06-29_09h09.46.005,Colour_Asymmetry_Pilot,2022.1.3,Win32,144.0092166,62bbe60bf3d75ef465d3e404,0,138,138,108,1,threeone,,,,,,,,,,,,,,,,,,,,,,,,,,,,,,,,,,,,,,,,,,,,,,,,,,,,,,,,,,,,,,,,,,,,,,,,,,,,,,,,,,,,,,,,,,,,,,,,,,,,,,,,,,,,,,,,,,,,,,,,,,,,,,,,,,,,,,,,,,,,,,,,,,,,,,,
,,,,,,6013162277aab7174f7dad94,62bbfab2b853f4201ecc5850,2022-06-29_09h09.46.005,Colour_Asymmetry_Pilot,2022.1.3,Win32,144.0092166,62bbe60bf3d75ef465d3e404,0,139,139,92,1,threeone,,,,,,,,,,,,,,,,,,,,,,,,,,,,,,,,,,,,,,,,,,,,,,,,,,,,,,,,,,,,,,,,,,,,,,,,,,,,,,,,,,,,,,,,,,,,,,,,,,,,,,,,,,,,,,,,,,,,,,,,,,,,,,,,,,,,,,,,,,,,,,,,,,,,,,,
,,,,,,6013162277aab7174f7dad94,62bbfab2b853f4201ecc5850,2022-06-29_09h09.46.005,Colour_Asymmetry_Pilot,2022.1.3,Win32,144.0092166,62bbe60bf3d75ef465d3e404,0,140,140,20,1,threeone,,,,,,,,,,,,,,,,,,,,,,,,,,,,,,,,,,,,,,,,,,,,,,,,,,,,,,,,,,,,,,,,,,,,,,,,,,,,,,,,,,,,,,,,,,,,,,,,,,,,,,,,,,,,,,,,,,,,,,,,,,,,,,,,,,,,,,,,,,,,,,,,,,,,,,,
,,,,,,6013162277aab7174f7dad94,62bbfab2b853f4201ecc5850,2022-06-29_09h09.46.005,Colour_Asymmetry_Pilot,2022.1.3,Win32,144.0092166,62bbe60bf3d75ef465d3e404,0,141,141,34,1,twoone,,,,,,,,,,,,,,,,,,,,,,,,,,,,,,,,,,,,,,,,,,,,,,,,,,,,,,,,,,,,,,,,,,,,,,,,,,,,,,,,,,,,,,,,,,,,,,,,,,,,,,,,,,,,,,,,,,,,,,,,,,,,,,,,,,,,,,,,,,,,,,,,,,,,,,,
,,,,,,6013162277aab7174f7dad94,62bbfab2b853f4201ecc5850,2022-06-29_09h09.46.005,Colour_Asymmetry_Pilot,2022.1.3,Win32,144.0092166,62bbe60bf3d75ef465d3e404,0,142,142,121,1,onethree,,,,,,,,,,,,,,,,,,,,,,,,,,,,,,,,,,,,,,,,,,,,,,,,,,,,,,,,,,,,,,,,,,,,,,,,,,,,,,,,,,,,,,,,,,,,,,,,,,,,,,,,,,,,,,,,,,,,,,,,,,,,,,,,,,,,,,,,,,,,,,,,,,,,,,,
,,,,,,6013162277aab7174f7dad94,62bbfab2b853f4201ecc5850,2022-06-29_09h09.46.005,Colour_Asymmetry_Pilot,2022.1.3,Win32,144.0092166,62bbe60bf3d75ef465d3e404,0,143,143,72,1,onetwo,,,,,,,,,,,,,,,,,,,,,,,,,,,,,,,,,,,,,,,,,,,,,,,,,,,,,,,,,,,,,,,,,,,,,,,,,,,,,,,,,,,,,,,,,,,,,,,,,,,,,,,,,,,,,,,,,,,,,,,,,,,,,,,,,,,,,,,,,,,,,,,,,,,,,,,
,,,,,,6013162277aab7174f7dad94,62bbfab2b853f4201ecc5850,2022-06-29_09h09.46.005,Colour_Asymmetry_Pilot,2022.1.3,Win32,144.0092166,62bbe60bf3d75ef465d3e404,0,144,144,79,1,fourthree,,,,,,,,,,,,,,,,,,,,,,,,,,,,,,,,,,,,,,,,,,,,,,,,,,,,,,,,,,,,,,,,,,,,,,,,,,,,,,,,,,,,,,,,,,,,,,,,,,,,,,,,,,,,,,,,,,,,,,,,,,,,,,,,,,,,,,,,,,,,,,,,,,,,,,,
,,,,,,6013162277aab7174f7dad94,62bbfab2b853f4201ecc5850,2022-06-29_09h09.46.005,Colour_Asymmetry_Pilot,2022.1.3,Win32,144.0092166,62bbe60bf3d75ef465d3e404,0,145,145,115,1,twofour,,,,,,,,,,,,,,,,,,,,,,,,,,,,,,,,,,,,,,,,,,,,,,,,,,,,,,,,,,,,,,,,,,,,,,,,,,,,,,,,,,,,,,,,,,,,,,,,,,,,,,,,,,,,,,,,,,,,,,,,,,,,,,,,,,,,,,,,,,,,,,,,,,,,,,,
,,,,,,6013162277aab7174f7dad94,62bbfab2b853f4201ecc5850,2022-06-29_09h09.46.005,Colour_Asymmetry_Pilot,2022.1.3,Win32,144.0092166,62bbe60bf3d75ef465d3e404,0,146,146,83,1,twofour,,,,,,,,,,,,,,,,,,,,,,,,,,,,,,,,,,,,,,,,,,,,,,,,,,,,,,,,,,,,,,,,,,,,,,,,,,,,,,,,,,,,,,,,,,,,,,,,,,,,,,,,,,,,,,,,,,,,,,,,,,,,,,,,,,,,,,,,,,,,,,,,,,,,,,,
,,,,,,6013162277aab7174f7dad94,62bbfab2b853f4201ecc5850,2022-06-29_09h09.46.005,Colour_Asymmetry_Pilot,2022.1.3,Win32,144.0092166,62bbe60bf3d75ef465d3e404,0,147,147,55,1,fourthree,,,,,,,,,,,,,,,,,,,,,,,,,,,,,,,,,,,,,,,,,,,,,,,,,,,,,,,,,,,,,,,,,,,,,,,,,,,,,,,,,,,,,,,,,,,,,,,,,,,,,,,,,,,,,,,,,,,,,,,,,,,,,,,,,,,,,,,,,,,,,,,,,,,,,,,
,,,,,,6013162277aab7174f7dad94,62bbfab2b853f4201ecc5850,2022-06-29_09h09.46.005,Colour_Asymmetry_Pilot,2022.1.3,Win32,144.0092166,62bbe60bf3d75ef465d3e404,0,148,148,81,1,onethree,,,,,,,,,,,,,,,,,,,,,,,,,,,,,,,,,,,,,,,,,,,,,,,,,,,,,,,,,,,,,,,,,,,,,,,,,,,,,,,,,,,,,,,,,,,,,,,,,,,,,,,,,,,,,,,,,,,,,,,,,,,,,,,,,,,,,,,,,,,,,,,,,,,,,,,
,,,,,,6013162277aab7174f7dad94,62bbfab2b853f4201ecc5850,2022-06-29_09h09.46.005,Colour_Asymmetry_Pilot,2022.1.3,Win32,144.0092166,62bbe60bf3d75ef465d3e404,0,149,149,49,1,onethree,,,,,,,,,,,,,,,,,,,,,,,,,,,,,,,,,,,,,,,,,,,,,,,,,,,,,,,,,,,,,,,,,,,,,,,,,,,,,,,,,,,,,,,,,,,,,,,,,,,,,,,,,,,,,,,,,,,,,,,,,,,,,,,,,,,,,,,,,,,,,,,,,,,,,,,
,,,,,,6013162277aab7174f7dad94,62bbfab2b853f4201ecc5850,2022-06-29_09h09.46.005,Colour_Asymmetry_Pilot,2022.1.3,Win32,144.0092166,62bbe60bf3d75ef465d3e404,0,150,150,2,1,twoone,,,,,,,,,,,,,,,,,,,,,,,,,,,,,,,,,,,,,,,,,,,,,,,,,,,,,,,,,,,,,,,,,,,,,,,,,,,,,,,,,,,,,,,,,,,,,,,,,,,,,,,,,,,,,,,,,,,,,,,,,,,,,,,,,,,,,,,,,,,,,,,,,,,,,,,
,,,,,,6013162277aab7174f7dad94,62bbfab2b853f4201ecc5850,2022-06-29_09h09.46.005,Colour_Asymmetry_Pilot,2022.1.3,Win32,144.0092166,62bbe60bf3d75ef465d3e404,0,151,151,70,1,fourtwo,,,,,,,,,,,,,,,,,,,,,,,,,,,,,,,,,,,,,,,,,,,,,,,,,,,,,,,,,,,,,,,,,,,,,,,,,,,,,,,,,,,,,,,,,,,,,,,,,,,,,,,,,,,,,,,,,,,,,,,,,,,,,,,,,,,,,,,,,,,,,,,,,,,,,,,
,,,,,,6013162277aab7174f7dad94,62bbfab2b853f4201ecc5850,2022-06-29_09h09.46.005,Colour_Asymmetry_Pilot,2022.1.3,Win32,144.0092166,62bbe60bf3d75ef465d3e404,0,152,152,50,1,twoone,,,,,,,,,,,,,,,,,,,,,,,,,,,,,,,,,,,,,,,,,,,,,,,,,,,,,,,,,,,,,,,,,,,,,,,,,,,,,,,,,,,,,,,,,,,,,,,,,,,,,,,,,,,,,,,,,,,,,,,,,,,,,,,,,,,,,,,,,,,,,,,,,,,,,,,
,,,,,,6013162277aab7174f7dad94,62bbfab2b853f4201ecc5850,2022-06-29_09h09.46.005,Colour_Asymmetry_Pilot,2022.1.3,Win32,144.0092166,62bbe60bf3d75ef465d3e404,0,153,153,99,1,twofour,,,,,,,,,,,,,,,,,,,,,,,,,,,,,,,,,,,,,,,,,,,,,,,,,,,,,,,,,,,,,,,,,,,,,,,,,,,,,,,,,,,,,,,,,,,,,,,,,,,,,,,,,,,,,,,,,,,,,,,,,,,,,,,,,,,,,,,,,,,,,,,,,,,,,,,
,,,,,,6013162277aab7174f7dad94,62bbfab2b853f4201ecc5850,2022-06-29_09h09.46.005,Colour_Asymmetry_Pilot,2022.1.3,Win32,144.0092166,62bbe60bf3d75ef465d3e404,0,154,154,47,1,fourthree,,,,,,,,,,,,,,,,,,,,,,,,,,,,,,,,,,,,,,,,,,,,,,,,,,,,,,,,,,,,,,,,,,,,,,,,,,,,,,,,,,,,,,,,,,,,,,,,,,,,,,,,,,,,,,,,,,,,,,,,,,,,,,,,,,,,,,,,,,,,,,,,,,,,,,,
,,,,,,6013162277aab7174f7dad94,62bbfab2b853f4201ecc5850,2022-06-29_09h09.46.005,Colour_Asymmetry_Pilot,2022.1.3,Win32,144.0092166,62bbe60bf3d75ef465d3e404,0,155,155,1,1,onethree,,,,,,,,,,,,,,,,,,,,,,,,,,,,,,,,,,,,,,,,,,,,,,,,,,,,,,,,,,,,,,,,,,,,,,,,,,,,,,,,,,,,,,,,,,,,,,,,,,,,,,,,,,,,,,,,,,,,,,,,,,,,,,,,,,,,,,,,,,,,,,,,,,,,,,,
,,,,,,6013162277aab7174f7dad94,62bbfab2b853f4201ecc5850,2022-06-29_09h09.46.005,Colour_Asymmetry_Pilot,2022.1.3,Win32,144.0092166,62bbe60bf3d75ef465d3e404,0,156,156,64,1,onetwo,,,,,,,,,,,,,,,,,,,,,,,,,,,,,,,,,,,,,,,,,,,,,,,,,,,,,,,,,,,,,,,,,,,,,,,,,,,,,,,,,,,,,,,,,,,,,,,,,,,,,,,,,,,,,,,,,,,,,,,,,,,,,,,,,,,,,,,,,,,,,,,,,,,,,,,
,,,,,,6013162277aab7174f7dad94,62bbfab2b853f4201ecc5850,2022-06-29_09h09.46.005,Colour_Asymmetry_Pilot,2022.1.3,Win32,144.0092166,62bbe60bf3d75ef465d3e404,0,157,157,95,1,fourthree,,,,,,,,,,,,,,,,,,,,,,,,,,,,,,,,,,,,,,,,,,,,,,,,,,,,,,,,,,,,,,,,,,,,,,,,,,,,,,,,,,,,,,,,,,,,,,,,,,,,,,,,,,,,,,,,,,,,,,,,,,,,,,,,,,,,,,,,,,,,,,,,,,,,,,,
,,,,,,6013162277aab7174f7dad94,62bbfab2b853f4201ecc5850,2022-06-29_09h09.46.005,Colour_Asymmetry_Pilot,2022.1.3,Win32,144.0092166,62bbe60bf3d75ef465d3e404,0,158,158,41,1,onethree,,,,,,,,,,,,,,,,,,,,,,,,,,,,,,,,,,,,,,,,,,,,,,,,,,,,,,,,,,,,,,,,,,,,,,,,,,,,,,,,,,,,,,,,,,,,,,,,,,,,,,,,,,,,,,,,,,,,,,,,,,,,,,,,,,,,,,,,,,,,,,,,,,,,,,,
,,,,,,6013162277aab7174f7dad94,62bbfab2b853f4201ecc5850,2022-06-29_09h09.46.005,Colour_Asymmetry_Pilot,2022.1.3,Win32,144.0092166,62bbe60bf3d75ef465d3e404,0,159,159,128,1,onetwo,,,,,,,,,,,,,,,,,,,,,,,,,,,,,,,,,,,,,,,,,,,,,,,,,,,,,,,,,,,,,,,,,,,,,,,,,,,,,,,,,,,,,,,,,,,,,,,,,,,,,,,,,,,,,,,,,,,,,,,,,,,,,,,,,,,,,,,,,,,,,,,,,,,,,,,
,,,,,,6013162277aab7174f7dad94,62bbfab2b853f4201ecc5850,2022-06-29_09h09.46.005,Colour_Asymmetry_Pilot,2022.1.3,Win32,144.0092166,62bbe60bf3d75ef465d3e404,0,160,160,12,1,threeone,,,,,,,,,,,,,,,,,,,,,,,,,,,,,,,,,,,,,,,,,,,,,,,,,,,,,,,,,,,,,,,,,,,,,,,,,,,,,,,,,,,,,,,,,,,,,,,,,,,,,,,,,,,,,,,,,,,,,,,,,,,,,,,,,,,,,,,,,,,,,,,,,,,,,,,
,,,,,,6013162277aab7174f7dad94,62bbfab2b853f4201ecc5850,2022-06-29_09h09.46.005,Colour_Asymmetry_Pilot,2022.1.3,Win32,144.0092166,62bbe60bf3d75ef465d3e404,0,161,161,19,1,twofour,,,,,,,,,,,,,,,,,,,,,,,,,,,,,,,,,,,,,,,,,,,,,,,,,,,,,,,,,,,,,,,,,,,,,,,,,,,,,,,,,,,,,,,,,,,,,,,,,,,,,,,,,,,,,,,,,,,,,,,,,,,,,,,,,,,,,,,,,,,,,,,,,,,,,,,
,,,,,,6013162277aab7174f7dad94,62bbfab2b853f4201ecc5850,2022-06-29_09h09.46.005,Colour_Asymmetry_Pilot,2022.1.3,Win32,144.0092166,62bbe60bf3d75ef465d3e404,,,,,,,space,9.3342,space,1.9814,space,21.7114,space,10.7472,space,0.8489,space,3.5496,"[-0.5452,-0.608,0.2470000000000001]",threefour,"[-0.30200000000000005,0.14500000000000002,0.2784]",-2,12.3353,-79,-32,1,0,0,response5disk_5,-2,0,1,0,0,rectangle_8,-2,0,1,0,0,3,-2,0,1,0,0,0,0,0,0,1,,,,,,,,,,,,,,,,,,,,,,,,,,,,,,,,,,,,,,,,,,,,,,,,,,,,,,,,,,,,,,,,,,,,,,,,,,,,,,,,,,,,,,,,,,,,,,,,,,,,,,,,,,
,,,,,,6013162277aab7174f7dad94,62bbfab2b853f4201ecc5850,2022-06-29_09h09.46.005,Colour_Asymmetry_Pilot,2022.1.3,Win32,144.0092166,62bbe60bf3d75ef465d3e404,,,,,,,,,,,,,,,,,,,"[0.22340000000000004,-0.9296,-0.7884]",threeone,"[-0.17659999999999998,-0.2864,-0.8354]",-4,1.8125,-37,82,1,0,0,response7disk_5,6,0,1,0,0,rectangle_8,6,0,1,0,0,3,6,0,1,0,0,1,0,1,0,1,,,,,,,,,,,,,,,,,,,,,,,,,,,,,,,,,,,,,,,,,,,,,,,,,,,,,,,,,,,,,,,,,,,,,,,,,,,,,,,,,,,,,,,,,,,,,,,,,,,,,,,,,,
,,,,,,6013162277aab7174f7dad94,62bbfab2b853f4201ecc5850,2022-06-29_09h09.46.005,Colour_Asymmetry_Pilot,2022.1.3,Win32,144.0092166,62bbe60bf3d75ef465d3e404,,,,,,,,,,,,,,,,,,,"[-0.07459999999999989,0.12139999999999995,-0.9922]",onethree,"[-0.06680000000000008,-0.45100000000000007,-0.906]",-4,2.4658,-30,57,1,0,0,response7disk_5,-10,-4,1,0,0,rectangle_8,63,41,1,0,0,3,16,-1,1,0,0,2,0,2,0,1,response1disk_7,6,rectangle_4,,,,,,,,,,,,,,,,,,,,,,,,,,,,,,,,,,,,,,,,,,,,,,,,,,,,,,,,,,,,,,,,,,,,,,,,,,,,,,,,,,,,,,,,,,,,,,,,,,,,,,,
,,,,,,6013162277aab7174f7dad94,62bbfab2b853f4201ecc5850,2022-06-29_09h09.46.005,Colour_Asymmetry_Pilot,2022.1.3,Win32,144.0092166,62bbe60bf3d75ef465d3e404,,,,,,,,,,,,,,,,,,,"[-0.8982,-0.37259999999999993,0.2784]",threefour,"[-0.26280000000000003,-0.2158,-0.3256]",-4,1.0206,-28,61,1,0,0,response7disk_5,-1,-11,1,0,0,rectangle_8,74,37,1,0,0,3,30,0,1,0,0,3,0,3,0,1,response1disk_7,6,rectangle_4,,,,,,,,,,,,,,,,,,,,,,,,,,,,,,,,,,,,,,,,,,,,,,,,,,,,,,,,,,,,,,,,,,,,,,,,,,,,,,,,,,,,,,,,,,,,,,,,,,,,,,,
,,,,,,6013162277aab7174f7dad94,62bbfab2b853f4201ecc5850,2022-06-29_09h09.46.005,Colour_Asymmetry_Pilot,2022.1.3,Win32,144.0092166,62bbe60bf3d75ef465d3e404,,,,,,,,,,,,,,,,,,,"[-0.17659999999999998,-0.2864,-0.8354]",threefour,"[-0.26280000000000003,-0.4746,-0.2158]",-4,0.8262,-19,63,1,0,0,response7disk_5,4,-5,1,0,0,rectangle_8,4,-5,1,0,0,3,4,-5,1,0,0,4,0,4,0,1,,,,,,,,,,,,,,,,,,,,,,,,,,,,,,,,,,,,,,,,,,,,,,,,,,,,,,,,,,,,,,,,,,,,,,,,,,,,,,,,,,,,,,,,,,,,,,,,,,,,,,,,,,
,,,,,,6013162277aab7174f7dad94,62bbfab2b853f4201ecc5850,2022-06-29_09h09.46.005,Colour_Asymmetry_Pilot,2022.1.3,Win32,144.0092166,62bbe60bf3d75ef465d3e404,,,,,,,,,,,,,,,,,,,"[0.22340000000000004,-0.9296,-0.7884]",twoone,"[0.3568,-0.20799999999999996,-0.9844]",-3,1.9786,-74,38,1,0,0,response7disk_5,-7,-1,1,0,0,rectangle_8,-7,-1,1,0,0,3,-7,-1,1,0,0,5,0,5,0,1,,,,,,,,,,,,,,,,,,,,,,,,,,,,,,,,,,,,,,,,,,,,,,,,,,,,,,,,,,,,,,,,,,,,,,,,,,,,,,,,,,,,,,,,,,,,,,,,,,,,,,,,,,
,,,,,,6013162277aab7174f7dad94,62bbfab2b853f4201ecc5850,2022-06-29_09h09.46.005,Colour_Asymmetry_Pilot,2022.1.3,Win32,144.0092166,62bbe60bf3d75ef465d3e404,,,,,,,,,,,,,,,,,,,"[0.09799999999999986,-0.24719999999999998,0.15280000000000005]",fourtwo,"[-0.4746,-0.0354000000000001,0.5449999999999999]",-4,0.7283,-33,62,1,0,0,response7disk_5,8,2,1,0,0,rectangle_8,8,2,1,0,0,3,8,2,1,0,0,6,0,6,0,1,,,,,,,,,,,,,,,,,,,,,,,,,,,,,,,,,,,,,,,,,,,,,,,,,,,,,,,,,,,,,,,,,,,,,,,,,,,,,,,,,,,,,,,,,,,,,,,,,,,,,,,,,,
,,,,,,6013162277aab7174f7dad94,62bbfab2b853f4201ecc5850,2022-06-29_09h09.46.005,Colour_Asymmetry_Pilot,2022.1.3,Win32,144.0092166,62bbe60bf3d75ef465d3e404,,,,,,,,,,,,,,,,,,,,fourthree,,-4,0.8681,,,,,,,,,,,,,,,,,,,,,,,,,,,,,,,,space,3.9748,"[0.18419999999999992,-0.4276,-0.404]","[-0.9138,-0.5296000000000001,-0.5529999999999999]",-47,84,1,0,0,response7disk,-10,-2,1,0,0,rectangle,-10,-2,1,0,0,,3,0.0009,0,-10,-2,1,0,0,0,0,0,14,1,14,first,,,,,,,,,,,,,,,,,,,,,,,,,,,,,,,,,,,,,,,,,,,,,,,,,,,,,,,,,,,,,,,,,,
,,,,,,6013162277aab7174f7dad94,62bbfab2b853f4201ecc5850,2022-06-29_09h09.46.005,Colour_Asymmetry_Pilot,2022.1.3,Win32,144.0092166,62bbe60bf3d75ef465d3e404,,,,,,,,,,,,,,,,,,,,threefour,,-4,0.3953,,,,,,,,,,,,,,,,,,,,,,,,,,,,,,,,,,"[0.18419999999999992,-0.4276,-0.404]","[-0.5452,-0.608,0.2470000000000001]",-26,85,1,0,0,response7disk,-2,15,1,0,0,rectangle,24,-70,1,0,0,1,1,2.1457,1,0,15,1,0,0,0,1,1,76,1,76,first,response3disk_3,rectangle,,,,,,,,,,,,,,,,,,,,,,,,,,,,,,,,,,,,,,,,,,,,,,,,,,,,,,,,,,,,,,,,
,,,,,,6013162277aab7174f7dad94,62bbfab2b853f4201ecc5850,2022-06-29_09h09.46.005,Colour_Asymmetry_Pilot,2022.1.3,Win32,144.0092166,62bbe60bf3d75ef465d3e404,,,,,,,,,,,,,,,,,,,,threeone,,1,1.9104,,,,,,,,,,,,,,,,,,,,,,,,,,,,,,,,,,"[-0.5688,-0.08239999999999992,-0.1844]","[0.0351999999999999,0.41159999999999997,0.0038000000000000256]",23,-54,1,0,0,response3disk,-1,12,1,0,0,rectangle,-1,12,1,0,0,1,2,0.0004,0,-1,12,1,0,0,0,2,2,38,1,38,first,,,,,,,,,,,,,,,,,,,,,,,,,,,,,,,,,,,,,,,,,,,,,,,,,,,,,,,,,,,,,,,,,,
,,,,,,6013162277aab7174f7dad94,62bbfab2b853f4201ecc5850,2022-06-29_09h09.46.005,Colour_Asymmetry_Pilot,2022.1.3,Win32,144.0092166,62bbe60bf3d75ef465d3e404,,,,,,,,,,,,,,,,,,,,threeone,,-4,0.4171,,,,,,,,,,,,,,,,,,,,,,,,,,,,,,,,,,"[0.12939999999999996,-0.2864,0.3253999999999999]","[0.04299999999999993,0.16060000000000008,-0.6628000000000001]",-33,61,1,0,0,response7disk,0,-14,1,0,0,rectangle,0,-14,1,0,0,1,3,0.0004,0,0,-14,1,0,0,0,3,3,133,1,52,second,,,,,,,,,,,,,,,,,,,,,,,,,,,,,,,,,,,,,,,,,,,,,,,,,,,,,,,,,,,,,,,,,,
,,,,,,6013162277aab7174f7dad94,62bbfab2b853f4201ecc5850,2022-06-29_09h09.46.005,Colour_Asymmetry_Pilot,2022.1.3,Win32,144.0092166,62bbe60bf3d75ef465d3e404,,,,,,,,,,,,,,,,,,,,fourthree,,-4,1.0842,,,,,,,,,,,,,,,,,,,,,,,,,,,,,,,,,,"[-0.06680000000000008,-0.45100000000000007,-0.906]","[-0.2942,-0.24719999999999998,-0.357]",-31,62,1,0,0,response7disk,-8,-1,1,0,0,rectangle,-8,-1,1,0,0,1,1,0.0003,0,-8,-1,1,0,0,0,4,4,27,1,27,first,,,,,,,,,,,,,,,,,,,,,,,,,,,,,,,,,,,,,,,,,,,,,,,,,,,,,,,,,,,,,,,,,,
,,,,,,6013162277aab7174f7dad94,62bbfab2b853f4201ecc5850,2022-06-29_09h09.46.005,Colour_Asymmetry_Pilot,2022.1.3,Win32,144.0092166,62bbe60bf3d75ef465d3e404,,,,,,,,,,,,,,,,,,,,twofour,,-4,0.3755,,,,,,,,,,,,,,,,,,,,,,,,,,,,,,,,,,"[0.8115999999999999,-0.0040000000000000036,-0.09819999999999995]","[-0.30200000000000005,0.14500000000000002,0.2784]",-36,66,1,0,0,response7disk,-9,5,1,0,0,rectangle,-9,5,1,0,0,1,1,0.0001,0,-9,5,1,0,0,0,5,5,2,1,2,first,,,,,,,,,,,,,,,,,,,,,,,,,,,,,,,,,,,,,,,,,,,,,,,,,,,,,,,,,,,,,,,,,,
,,,,,,6013162277aab7174f7dad94,62bbfab2b853f4201ecc5850,2022-06-29_09h09.46.005,Colour_Asymmetry_Pilot,2022.1.3,Win32,144.0092166,62bbe60bf3d75ef465d3e404,,,,,,,,,,,,,,,,,,,,threeone,,-4,0.3205,,,,,,,,,,,,,,,,,,,,,,,,,,,,,,,,,,"[-0.8198,-0.5138,-0.7492000000000001]","[-0.6235999999999999,-0.6786,-0.08239999999999992]",-28,71,1,0,0,response7disk,-2,8,1,0,0,rectangle,-2,8,1,0,0,1,2,0.0004,0,-2,8,1,0,0,0,6,6,142,1,61,second,,,,,,,,,,,,,,,,,,,,,,,,,,,,,,,,,,,,,,,,,,,,,,,,,,,,,,,,,,,,,,,,,,
,,,,,,6013162277aab7174f7dad94,62bbfab2b853f4201ecc5850,2022-06-29_09h09.46.005,Colour_Asymmetry_Pilot,2022.1.3,Win32,144.0092166,62bbe60bf3d75ef465d3e404,,,,,,,,,,,,,,,,,,,,twoone,,-4,0.278,,,,,,,,,,,,,,,,,,,,,,,,,,,,,,,,,,"[-0.6942,-0.7648,-0.12959999999999994]","[0.7018,0.7176,0.6155999999999999]",-32,72,1,0,0,response7disk,-8,4,1,0,0,rectangle,-8,4,1,0,0,1,3,0.0003,0,-8,4,1,0,0,0,7,7,37,1,37,first,,,,,,,,,,,,,,,,,,,,,,,,,,,,,,,,,,,,,,,,,,,,,,,,,,,,,,,,,,,,,,,,,,
,,,,,,6013162277aab7174f7dad94,62bbfab2b853f4201ecc5850,2022-06-29_09h09.46.005,Colour_Asymmetry_Pilot,2022.1.3,Win32,144.0092166,62bbe60bf3d75ef465d3e404,,,,,,,,,,,,,,,,,,,,twofour,,-4,0.3962,,,,,,,,,,,,,,,,,,,,,,,,,,,,,,,,,,"[0.12939999999999996,-0.2864,0.3253999999999999]","[0.34099999999999997,0.5841999999999998,-0.9844]",-35,61,1,0,0,response7disk,-8,-1,1,0,0,rectangle,-8,-1,1,0,0,1,2,0.0004,0,-8,-1,1,0,0,0,8,8,51,1,51,first,,,,,,,,,,,,,,,,,,,,,,,,,,,,,,,,,,,,,,,,,,,,,,,,,,,,,,,,,,,,,,,,,,
,,,,,,6013162277aab7174f7dad94,62bbfab2b853f4201ecc5850,2022-06-29_09h09.46.005,Colour_Asymmetry_Pilot,2022.1.3,Win32,144.0092166,62bbe60bf3d75ef465d3e404,,,,,,,,,,,,,,,,,,,,onetwo,,-4,0.271,,,,,,,,,,,,,,,,,,,,,,,,,,,,,,,,,,"[0.7018,0.7802,-0.16079999999999994]","[0.9763999999999999,-0.1137999999999999,-0.6314]",-28,61,1,0,0,response7disk,-8,-2,1,0,0,rectangle,-8,-2,1,0,0,1,2,0.0001,0,-8,-2,1,0,0,0,9,9,144,1,63,second,,,,,,,,,,,,,,,,,,,,,,,,,,,,,,,,,,,,,,,,,,,,,,,,,,,,,,,,,,,,,,,,,,
,,,,,,6013162277aab7174f7dad94,62bbfab2b853f4201ecc5850,2022-06-29_09h09.46.005,Colour_Asymmetry_Pilot,2022.1.3,Win32,144.0092166,62bbe60bf3d75ef465d3e404,,,,,,,,,,,,,,,,,,,,onethree,,-2,1.5555,,,,,,,,,,,,,,,,,,,,,,,,,,,,,,,,,,"[-0.9766,-0.6472,0.07440000000000002]","[-0.9296,-0.12959999999999994,-0.043199999999999905]",-56,-44,1,0,0,response5disk,-21,-6,1,0,0,rectangle,-21,-6,1,0,0,1,2,0.0001,0,-21,-6,1,0,0,0,10,10,100,1,19,second,,,,,,,,,,,,,,,,,,,,,,,,,,,,,,,,,,,,,,,,,,,,,,,,,,,,,,,,,,,,,,,,,,
,,,,,,6013162277aab7174f7dad94,62bbfab2b853f4201ecc5850,2022-06-29_09h09.46.005,Colour_Asymmetry_Pilot,2022.1.3,Win32,144.0092166,62bbe60bf3d75ef465d3e404,,,,,,,,,,,,,,,,,,,,fourthree,,-4,0.3259,,,,,,,,,,,,,,,,,,,,,,,,,,,,,,,,,,"[-0.17659999999999998,-0.2864,-0.8354]","[0.5449999999999999,-0.31000000000000005,-0.0354000000000001]",-27,79,1,0,0,response7disk,12,12,1,0,0,rectangle,12,12,1,0,0,1,3,0.0004,0,12,12,1,0,0,0,11,11,92,1,11,second,,,,,,,,,,,,,,,,,,,,,,,,,,,,,,,,,,,,,,,,,,,,,,,,,,,,,,,,,,,,,,,,,,
,,,,,,6013162277aab7174f7dad94,62bbfab2b853f4201ecc5850,2022-06-29_09h09.46.005,Colour_Asymmetry_Pilot,2022.1.3,Win32,144.0092166,62bbe60bf3d75ef465d3e404,,,,,,,,,,,,,,,,,,,,fourthree,,-4,0.3683,,,,,,,,,,,,,,,,,,,,,,,,,,,,,,,,,,"[-0.4668,-0.8746,-0.2942]","[-0.07459999999999989,0.12139999999999995,-0.9922]",-31,74,1,0,0,response7disk,0,3,1,0,0,rectangle,0,3,1,0,0,1,1,0.0004,0,0,3,1,0,0,0,12,12,91,1,10,second,,,,,,,,,,,,,,,,,,,,,,,,,,,,,,,,,,,,,,,,,,,,,,,,,,,,,,,,,,,,,,,,,,
,,,,,,6013162277aab7174f7dad94,62bbfab2b853f4201ecc5850,2022-06-29_09h09.46.005,Colour_Asymmetry_Pilot,2022.1.3,Win32,144.0092166,62bbe60bf3d75ef465d3e404,,,,,,,,,,,,,,,,,,,,threefour,,-4,0.3681,,,,,,,,,,,,,,,,,,,,,,,,,,,,,,,,,,"[-0.10599999999999998,-0.15300000000000002,0.15280000000000005]","[-0.5688,-0.08239999999999992,-0.1844]",-40,81,1,0,0,response7disk,-4,-3,1,0,0,rectangle,-4,-3,1,0,0,1,2,0.0003,0,-4,-3,1,0,0,0,13,13,64,1,64,first,,,,,,,,,,,,,,,,,,,,,,,,,,,,,,,,,,,,,,,,,,,,,,,,,,,,,,,,,,,,,,,,,,
,,,,,,6013162277aab7174f7dad94,62bbfab2b853f4201ecc5850,2022-06-29_09h09.46.005,Colour_Asymmetry_Pilot,2022.1.3,Win32,144.0092166,62bbe60bf3d75ef465d3e404,,,,,,,,,,,,,,,,,,,,fourthree,,1,1.4163,,,,,,,,,,,,,,,,,,,,,,,,,,,,,,,,,,"[0.2784,-0.31000000000000005,-0.5452]","[0.9763999999999999,0.30979999999999985,-0.6786]",37,-67,1,0,0,response3disk,-14,5,1,0,0,rectangle,-14,5,1,0,0,1,1,0.0002,0,-14,5,1,0,0,0,14,14,65,1,65,first,,,,,,,,,,,,,,,,,,,,,,,,,,,,,,,,,,,,,,,,,,,,,,,,,,,,,,,,,,,,,,,,,,
,,,,,,6013162277aab7174f7dad94,62bbfab2b853f4201ecc5850,2022-06-29_09h09.46.005,Colour_Asymmetry_Pilot,2022.1.3,Win32,144.0092166,62bbe60bf3d75ef465d3e404,,,,,,,,,,,,,,,,,,,,onetwo,,-4,0.2149,,,,,,,,,,,,,,,,,,,,,,,,,,,,,,,,,,"[0.9763999999999999,-0.1137999999999999,-0.6314]","[-0.5922000000000001,-0.7492000000000001,-0.5296000000000001]",-35,88,1,0,0,response7disk,6,1,1,0,0,rectangle,6,1,1,0,0,1,3,0.0003,0,6,1,1,0,0,0,15,15,21,1,21,first,,,,,,,,,,,,,,,,,,,,,,,,,,,,,,,,,,,,,,,,,,,,,,,,,,,,,,,,,,,,,,,,,,
,,,,,,6013162277aab7174f7dad94,62bbfab2b853f4201ecc5850,2022-06-29_09h09.46.005,Colour_Asymmetry_Pilot,2022.1.3,Win32,144.0092166,62bbe60bf3d75ef465d3e404,,,,,,,,,,,,,,,,,,,,fourtwo,,-4,0.229,,,,,,,,,,,,,,,,,,,,,,,,,,,,,,,,,,"[0.9372,0.9450000000000001,0.8980000000000001]","[-0.9688,-0.38039999999999996,-0.41979999999999995]",-37,81,1,0,0,response7disk,-4,1,1,0,0,rectangle,-4,1,1,0,0,1,2,0.0004,0,-4,1,1,0,0,0,16,16,158,1,77,second,,,,,,,,,,,,,,,,,,,,,,,,,,,,,,,,,,,,,,,,,,,,,,,,,,,,,,,,,,,,,,,,,,
,,,,,,6013162277aab7174f7dad94,62bbfab2b853f4201ecc5850,2022-06-29_09h09.46.005,Colour_Asymmetry_Pilot,2022.1.3,Win32,144.0092166,62bbe60bf3d75ef465d3e404,,,,,,,,,,,,,,,,,,,,threeone,,1,1.0974,,,,,,,,,,,,,,,,,,,,,,,,,,,,,,,,,,"[-0.9296,-0.12959999999999994,-0.043199999999999905]","[-0.9766,-0.6472,0.07440000000000002]",40,-62,1,0,0,response3disk,-9,-11,1,0,0,rectangle,-9,-11,1,0,0,1,2,0,0,-9,-11,1,0,0,0,17,17,19,1,19,first,,,,,,,,,,,,,,,,,,,,,,,,,,,,,,,,,,,,,,,,,,,,,,,,,,,,,,,,,,,,,,,,,,
,,,,,,6013162277aab7174f7dad94,62bbfab2b853f4201ecc5850,2022-06-29_09h09.46.005,Colour_Asymmetry_Pilot,2022.1.3,Win32,144.0092166,62bbe60bf3d75ef465d3e404,,,,,,,,,,,,,,,,,,,,fourtwo,,-2,2.2284,,,,,,,,,,,,,,,,,,,,,,,,,,,,,,,,,,"[-0.2942,-0.24719999999999998,-0.357]","[-0.30200000000000005,0.14500000000000002,0.2784]",-87,-25,1,0,0,response5disk,3,3,1,0,0,rectangle,3,3,1,0,0,1,1,0.0005,0,3,3,1,0,0,0,18,18,154,1,73,second,,,,,,,,,,,,,,,,,,,,,,,,,,,,,,,,,,,,,,,,,,,,,,,,,,,,,,,,,,,,,,,,,,
,,,,,,6013162277aab7174f7dad94,62bbfab2b853f4201ecc5850,2022-06-29_09h09.46.005,Colour_Asymmetry_Pilot,2022.1.3,Win32,144.0092166,62bbe60bf3d75ef465d3e404,,,,,,,,,,,,,,,,,,,,threefour,,-4,0.298,,,,,,,,,,,,,,,,,,,,,,,,,,,,,,,,,,"[-0.4902000000000001,0.2704,-0.45899999999999996]","[-0.10599999999999998,-0.15300000000000002,0.15280000000000005]",-49,75,1,0,0,response7disk,0,-9,1,0,0,rectangle,0,-9,1,0,0,1,1,9.99999E-05,0,0,-9,1,0,0,0,19,19,13,1,13,first,,,,,,,,,,,,,,,,,,,,,,,,,,,,,,,,,,,,,,,,,,,,,,,,,,,,,,,,,,,,,,,,,,
,,,,,,6013162277aab7174f7dad94,62bbfab2b853f4201ecc5850,2022-06-29_09h09.46.005,Colour_Asymmetry_Pilot,2022.1.3,Win32,144.0092166,62bbe60bf3d75ef465d3e404,,,,,,,,,,,,,,,,,,,,onethree,,-4,1.3882,,,,,,,,,,,,,,,,,,,,,,,,,,,,,,,,,,"[0.9372,0.9450000000000001,0.8980000000000001]","[-0.20799999999999996,-0.655,-0.01980000000000004]",-32,70,1,0,0,response7disk,-8,10,1,0,0,rectangle,-8,10,1,0,0,1,2,0.0008,0,-8,10,1,0,0,0,20,20,67,1,67,first,,,,,,,,,,,,,,,,,,,,,,,,,,,,,,,,,,,,,,,,,,,,,,,,,,,,,,,,,,,,,,,,,,
