trials.thisRepN,trials.thisTrialN,trials.thisN,trials.thisIndex,trials.ran,Colourcodes,participant,session,date,expName,psychopyVersion,OS,frameRate,study_id,trials_4.thisRepN,trials_4.thisTrialN,trials_4.thisN,trials_4.thisIndex,trials_4.ran,StimulusPos,key_resp.keys,key_resp.rt,key_resp_2.keys,key_resp_2.rt,key_resp_15.keys,key_resp_15.rt,key_resp_17.keys,key_resp_17.rt,key_resp_9.keys,key_resp_9.rt,key_resp_10.keys,key_resp_10.rt,Circle1_col,Ecc,Circle2_col,similarity,response_time,mouse_5.x,mouse_5.y,mouse_5.leftButton,mouse_5.midButton,mouse_5.rightButton,mouse_5.clicked_name,mouse_10.x,mouse_10.y,mouse_10.leftButton,mouse_10.midButton,mouse_10.rightButton,mouse_10.clicked_name,mouse_7.x,mouse_7.y,mouse_7.leftButton,mouse_7.midButton,mouse_7.rightButton,catchnumberprac,mouse_6.x,mouse_6.y,mouse_6.leftButton,mouse_6.midButton,mouse_6.rightButton,duringprac.thisRepN,duringprac.thisTrialN,duringprac.thisN,duringprac.thisIndex,duringprac.ran,mouse_7.clicked_name,catchprac,mouse_6.clicked_name,key_resp_22.keys,key_resp_22.rt,Circle1_colour,Circle2_colour,mouse.x,mouse.y,mouse.leftButton,mouse.midButton,mouse.rightButton,mouse.clicked_name,mouse_2.x,mouse_2.y,mouse_2.leftButton,mouse_2.midButton,mouse_2.rightButton,mouse_2.clicked_name,mouse_3.x,mouse_3.y,mouse_3.leftButton,mouse_3.midButton,mouse_3.rightButton,catchresponse,catchnumber,response_time_catch,Catch,mouse_11.x,mouse_11.y,mouse_11.leftButton,mouse_11.midButton,mouse_11.rightButton,trials_2.thisRepN,trials_2.thisTrialN,trials_2.thisN,trials_2.thisIndex,trials_2.ran,Colourpair,Temporder,mouse_3.clicked_name,mouse_11.clicked_name,trials_3.thisRepN,trials_3.thisTrialN,trials_3.thisN,trials_3.thisIndex,trials_3.ran,key_resp_instr_Ishi.keys,key_resp_instr_Ishi.rt,Ishi_trial_keyresp.keys,Ishi_trial_keyresp.rt,Ishi_textbox.text,Ishi_loop.thisRepN,Ishi_loop.thisTrialN,Ishi_loop.thisN,Ishi_loop.thisIndex,Ishi_loop.ran,imageaddress,textbox.text,mouse_4.x,mouse_4.y,mouse_4.leftButton,mouse_4.midButton,mouse_4.rightButton,mouse_4.clicked_name,textbox_2.text,mouse_8.x,mouse_8.y,mouse_8.leftButton,mouse_8.midButton,mouse_8.rightButton,mouse_8.clicked_name,textbox_3.text,mouse_9.x,mouse_9.y,mouse_9.leftButton,mouse_9.midButton,mouse_9.rightButton,mouse_9.clicked_name,textbox_4.text,mouse_12.x,mouse_12.y,mouse_12.leftButton,mouse_12.midButton,mouse_12.rightButton,mouse_12.clicked_name,textbox_5.text,mouse_13.x,mouse_13.y,mouse_13.leftButton,mouse_13.midButton,mouse_13.rightButton,mouse_13.clicked_name,textbox_6.text,mouse_14.x,mouse_14.y,mouse_14.leftButton,mouse_14.midButton,mouse_14.rightButton,mouse_14.clicked_name,textbox_7.text,mouse_15.x,mouse_15.y,mouse_15.leftButton,mouse_15.midButton,mouse_15.rightButton,mouse_15.clicked_name
0,0,0,92,1,,5e7607c3dec4561735fbc3f2,62bbfab5577dd0fadc318cd7,2022-06-29_10h09.53.683,Colour_Asymmetry_Pilot,2022.1.3,Win32,75.0131273,62bbe60bf3d75ef465d3e404,,,,,,,,,,,,,,,,,,,,,,,,,,,,,,,,,,,,,,,,,,,,,,,,,,,,,,,,,,,,,,,,,,,,,,,,,,,,,,,,,,,,,,,,,,,,,,,,,,,,,,,,,,,,,,,,,,,,,,,,,,,,,,,,,,,,,,,,,,,,,,,,,,,,,,,,,,,,,,
0,1,1,62,1,,5e7607c3dec4561735fbc3f2,62bbfab5577dd0fadc318cd7,2022-06-29_10h09.53.683,Colour_Asymmetry_Pilot,2022.1.3,Win32,75.0131273,62bbe60bf3d75ef465d3e404,,,,,,,,,,,,,,,,,,,,,,,,,,,,,,,,,,,,,,,,,,,,,,,,,,,,,,,,,,,,,,,,,,,,,,,,,,,,,,,,,,,,,,,,,,,,,,,,,,,,,,,,,,,,,,,,,,,,,,,,,,,,,,,,,,,,,,,,,,,,,,,,,,,,,,,,,,,,,,
0,2,2,71,1,,5e7607c3dec4561735fbc3f2,62bbfab5577dd0fadc318cd7,2022-06-29_10h09.53.683,Colour_Asymmetry_Pilot,2022.1.3,Win32,75.0131273,62bbe60bf3d75ef465d3e404,,,,,,,,,,,,,,,,,,,,,,,,,,,,,,,,,,,,,,,,,,,,,,,,,,,,,,,,,,,,,,,,,,,,,,,,,,,,,,,,,,,,,,,,,,,,,,,,,,,,,,,,,,,,,,,,,,,,,,,,,,,,,,,,,,,,,,,,,,,,,,,,,,,,,,,,,,,,,,
0,3,3,55,1,,5e7607c3dec4561735fbc3f2,62bbfab5577dd0fadc318cd7,2022-06-29_10h09.53.683,Colour_Asymmetry_Pilot,2022.1.3,Win32,75.0131273,62bbe60bf3d75ef465d3e404,,,,,,,,,,,,,,,,,,,,,,,,,,,,,,,,,,,,,,,,,,,,,,,,,,,,,,,,,,,,,,,,,,,,,,,,,,,,,,,,,,,,,,,,,,,,,,,,,,,,,,,,,,,,,,,,,,,,,,,,,,,,,,,,,,,,,,,,,,,,,,,,,,,,,,,,,,,,,,
0,4,4,20,1,,5e7607c3dec4561735fbc3f2,62bbfab5577dd0fadc318cd7,2022-06-29_10h09.53.683,Colour_Asymmetry_Pilot,2022.1.3,Win32,75.0131273,62bbe60bf3d75ef465d3e404,,,,,,,,,,,,,,,,,,,,,,,,,,,,,,,,,,,,,,,,,,,,,,,,,,,,,,,,,,,,,,,,,,,,,,,,,,,,,,,,,,,,,,,,,,,,,,,,,,,,,,,,,,,,,,,,,,,,,,,,,,,,,,,,,,,,,,,,,,,,,,,,,,,,,,,,,,,,,,
0,5,5,26,1,,5e7607c3dec4561735fbc3f2,62bbfab5577dd0fadc318cd7,2022-06-29_10h09.53.683,Colour_Asymmetry_Pilot,2022.1.3,Win32,75.0131273,62bbe60bf3d75ef465d3e404,,,,,,,,,,,,,,,,,,,,,,,,,,,,,,,,,,,,,,,,,,,,,,,,,,,,,,,,,,,,,,,,,,,,,,,,,,,,,,,,,,,,,,,,,,,,,,,,,,,,,,,,,,,,,,,,,,,,,,,,,,,,,,,,,,,,,,,,,,,,,,,,,,,,,,,,,,,,,,
0,6,6,18,1,,5e7607c3dec4561735fbc3f2,62bbfab5577dd0fadc318cd7,2022-06-29_10h09.53.683,Colour_Asymmetry_Pilot,2022.1.3,Win32,75.0131273,62bbe60bf3d75ef465d3e404,,,,,,,,,,,,,,,,,,,,,,,,,,,,,,,,,,,,,,,,,,,,,,,,,,,,,,,,,,,,,,,,,,,,,,,,,,,,,,,,,,,,,,,,,,,,,,,,,,,,,,,,,,,,,,,,,,,,,,,,,,,,,,,,,,,,,,,,,,,,,,,,,,,,,,,,,,,,,,
0,7,7,41,1,,5e7607c3dec4561735fbc3f2,62bbfab5577dd0fadc318cd7,2022-06-29_10h09.53.683,Colour_Asymmetry_Pilot,2022.1.3,Win32,75.0131273,62bbe60bf3d75ef465d3e404,,,,,,,,,,,,,,,,,,,,,,,,,,,,,,,,,,,,,,,,,,,,,,,,,,,,,,,,,,,,,,,,,,,,,,,,,,,,,,,,,,,,,,,,,,,,,,,,,,,,,,,,,,,,,,,,,,,,,,,,,,,,,,,,,,,,,,,,,,,,,,,,,,,,,,,,,,,,,,
0,8,8,65,1,,5e7607c3dec4561735fbc3f2,62bbfab5577dd0fadc318cd7,2022-06-29_10h09.53.683,Colour_Asymmetry_Pilot,2022.1.3,Win32,75.0131273,62bbe60bf3d75ef465d3e404,,,,,,,,,,,,,,,,,,,,,,,,,,,,,,,,,,,,,,,,,,,,,,,,,,,,,,,,,,,,,,,,,,,,,,,,,,,,,,,,,,,,,,,,,,,,,,,,,,,,,,,,,,,,,,,,,,,,,,,,,,,,,,,,,,,,,,,,,,,,,,,,,,,,,,,,,,,,,,
0,9,9,75,1,,5e7607c3dec4561735fbc3f2,62bbfab5577dd0fadc318cd7,2022-06-29_10h09.53.683,Colour_Asymmetry_Pilot,2022.1.3,Win32,75.0131273,62bbe60bf3d75ef465d3e404,,,,,,,,,,,,,,,,,,,,,,,,,,,,,,,,,,,,,,,,,,,,,,,,,,,,,,,,,,,,,,,,,,,,,,,,,,,,,,,,,,,,,,,,,,,,,,,,,,,,,,,,,,,,,,,,,,,,,,,,,,,,,,,,,,,,,,,,,,,,,,,,,,,,,,,,,,,,,,
0,10,10,68,1,,5e7607c3dec4561735fbc3f2,62bbfab5577dd0fadc318cd7,2022-06-29_10h09.53.683,Colour_Asymmetry_Pilot,2022.1.3,Win32,75.0131273,62bbe60bf3d75ef465d3e404,,,,,,,,,,,,,,,,,,,,,,,,,,,,,,,,,,,,,,,,,,,,,,,,,,,,,,,,,,,,,,,,,,,,,,,,,,,,,,,,,,,,,,,,,,,,,,,,,,,,,,,,,,,,,,,,,,,,,,,,,,,,,,,,,,,,,,,,,,,,,,,,,,,,,,,,,,,,,,
0,11,11,54,1,,5e7607c3dec4561735fbc3f2,62bbfab5577dd0fadc318cd7,2022-06-29_10h09.53.683,Colour_Asymmetry_Pilot,2022.1.3,Win32,75.0131273,62bbe60bf3d75ef465d3e404,,,,,,,,,,,,,,,,,,,,,,,,,,,,,,,,,,,,,,,,,,,,,,,,,,,,,,,,,,,,,,,,,,,,,,,,,,,,,,,,,,,,,,,,,,,,,,,,,,,,,,,,,,,,,,,,,,,,,,,,,,,,,,,,,,,,,,,,,,,,,,,,,,,,,,,,,,,,,,
0,12,12,89,1,,5e7607c3dec4561735fbc3f2,62bbfab5577dd0fadc318cd7,2022-06-29_10h09.53.683,Colour_Asymmetry_Pilot,2022.1.3,Win32,75.0131273,62bbe60bf3d75ef465d3e404,,,,,,,,,,,,,,,,,,,,,,,,,,,,,,,,,,,,,,,,,,,,,,,,,,,,,,,,,,,,,,,,,,,,,,,,,,,,,,,,,,,,,,,,,,,,,,,,,,,,,,,,,,,,,,,,,,,,,,,,,,,,,,,,,,,,,,,,,,,,,,,,,,,,,,,,,,,,,,
0,13,13,1,1,,5e7607c3dec4561735fbc3f2,62bbfab5577dd0fadc318cd7,2022-06-29_10h09.53.683,Colour_Asymmetry_Pilot,2022.1.3,Win32,75.0131273,62bbe60bf3d75ef465d3e404,,,,,,,,,,,,,,,,,,,,,,,,,,,,,,,,,,,,,,,,,,,,,,,,,,,,,,,,,,,,,,,,,,,,,,,,,,,,,,,,,,,,,,,,,,,,,,,,,,,,,,,,,,,,,,,,,,,,,,,,,,,,,,,,,,,,,,,,,,,,,,,,,,,,,,,,,,,,,,
0,14,14,17,1,,5e7607c3dec4561735fbc3f2,62bbfab5577dd0fadc318cd7,2022-06-29_10h09.53.683,Colour_Asymmetry_Pilot,2022.1.3,Win32,75.0131273,62bbe60bf3d75ef465d3e404,,,,,,,,,,,,,,,,,,,,,,,,,,,,,,,,,,,,,,,,,,,,,,,,,,,,,,,,,,,,,,,,,,,,,,,,,,,,,,,,,,,,,,,,,,,,,,,,,,,,,,,,,,,,,,,,,,,,,,,,,,,,,,,,,,,,,,,,,,,,,,,,,,,,,,,,,,,,,,
0,15,15,43,1,,5e7607c3dec4561735fbc3f2,62bbfab5577dd0fadc318cd7,2022-06-29_10h09.53.683,Colour_Asymmetry_Pilot,2022.1.3,Win32,75.0131273,62bbe60bf3d75ef465d3e404,,,,,,,,,,,,,,,,,,,,,,,,,,,,,,,,,,,,,,,,,,,,,,,,,,,,,,,,,,,,,,,,,,,,,,,,,,,,,,,,,,,,,,,,,,,,,,,,,,,,,,,,,,,,,,,,,,,,,,,,,,,,,,,,,,,,,,,,,,,,,,,,,,,,,,,,,,,,,,
0,16,16,0,1,,5e7607c3dec4561735fbc3f2,62bbfab5577dd0fadc318cd7,2022-06-29_10h09.53.683,Colour_Asymmetry_Pilot,2022.1.3,Win32,75.0131273,62bbe60bf3d75ef465d3e404,,,,,,,,,,,,,,,,,,,,,,,,,,,,,,,,,,,,,,,,,,,,,,,,,,,,,,,,,,,,,,,,,,,,,,,,,,,,,,,,,,,,,,,,,,,,,,,,,,,,,,,,,,,,,,,,,,,,,,,,,,,,,,,,,,,,,,,,,,,,,,,,,,,,,,,,,,,,,,
0,17,17,60,1,,5e7607c3dec4561735fbc3f2,62bbfab5577dd0fadc318cd7,2022-06-29_10h09.53.683,Colour_Asymmetry_Pilot,2022.1.3,Win32,75.0131273,62bbe60bf3d75ef465d3e404,,,,,,,,,,,,,,,,,,,,,,,,,,,,,,,,,,,,,,,,,,,,,,,,,,,,,,,,,,,,,,,,,,,,,,,,,,,,,,,,,,,,,,,,,,,,,,,,,,,,,,,,,,,,,,,,,,,,,,,,,,,,,,,,,,,,,,,,,,,,,,,,,,,,,,,,,,,,,,
0,18,18,40,1,,5e7607c3dec4561735fbc3f2,62bbfab5577dd0fadc318cd7,2022-06-29_10h09.53.683,Colour_Asymmetry_Pilot,2022.1.3,Win32,75.0131273,62bbe60bf3d75ef465d3e404,,,,,,,,,,,,,,,,,,,,,,,,,,,,,,,,,,,,,,,,,,,,,,,,,,,,,,,,,,,,,,,,,,,,,,,,,,,,,,,,,,,,,,,,,,,,,,,,,,,,,,,,,,,,,,,,,,,,,,,,,,,,,,,,,,,,,,,,,,,,,,,,,,,,,,,,,,,,,,
0,19,19,64,1,,5e7607c3dec4561735fbc3f2,62bbfab5577dd0fadc318cd7,2022-06-29_10h09.53.683,Colour_Asymmetry_Pilot,2022.1.3,Win32,75.0131273,62bbe60bf3d75ef465d3e404,,,,,,,,,,,,,,,,,,,,,,,,,,,,,,,,,,,,,,,,,,,,,,,,,,,,,,,,,,,,,,,,,,,,,,,,,,,,,,,,,,,,,,,,,,,,,,,,,,,,,,,,,,,,,,,,,,,,,,,,,,,,,,,,,,,,,,,,,,,,,,,,,,,,,,,,,,,,,,
0,20,20,46,1,,5e7607c3dec4561735fbc3f2,62bbfab5577dd0fadc318cd7,2022-06-29_10h09.53.683,Colour_Asymmetry_Pilot,2022.1.3,Win32,75.0131273,62bbe60bf3d75ef465d3e404,,,,,,,,,,,,,,,,,,,,,,,,,,,,,,,,,,,,,,,,,,,,,,,,,,,,,,,,,,,,,,,,,,,,,,,,,,,,,,,,,,,,,,,,,,,,,,,,,,,,,,,,,,,,,,,,,,,,,,,,,,,,,,,,,,,,,,,,,,,,,,,,,,,,,,,,,,,,,,
0,21,21,72,1,,5e7607c3dec4561735fbc3f2,62bbfab5577dd0fadc318cd7,2022-06-29_10h09.53.683,Colour_Asymmetry_Pilot,2022.1.3,Win32,75.0131273,62bbe60bf3d75ef465d3e404,,,,,,,,,,,,,,,,,,,,,,,,,,,,,,,,,,,,,,,,,,,,,,,,,,,,,,,,,,,,,,,,,,,,,,,,,,,,,,,,,,,,,,,,,,,,,,,,,,,,,,,,,,,,,,,,,,,,,,,,,,,,,,,,,,,,,,,,,,,,,,,,,,,,,,,,,,,,,,
0,22,22,12,1,,5e7607c3dec4561735fbc3f2,62bbfab5577dd0fadc318cd7,2022-06-29_10h09.53.683,Colour_Asymmetry_Pilot,2022.1.3,Win32,75.0131273,62bbe60bf3d75ef465d3e404,,,,,,,,,,,,,,,,,,,,,,,,,,,,,,,,,,,,,,,,,,,,,,,,,,,,,,,,,,,,,,,,,,,,,,,,,,,,,,,,,,,,,,,,,,,,,,,,,,,,,,,,,,,,,,,,,,,,,,,,,,,,,,,,,,,,,,,,,,,,,,,,,,,,,,,,,,,,,,
0,23,23,56,1,,5e7607c3dec4561735fbc3f2,62bbfab5577dd0fadc318cd7,2022-06-29_10h09.53.683,Colour_Asymmetry_Pilot,2022.1.3,Win32,75.0131273,62bbe60bf3d75ef465d3e404,,,,,,,,,,,,,,,,,,,,,,,,,,,,,,,,,,,,,,,,,,,,,,,,,,,,,,,,,,,,,,,,,,,,,,,,,,,,,,,,,,,,,,,,,,,,,,,,,,,,,,,,,,,,,,,,,,,,,,,,,,,,,,,,,,,,,,,,,,,,,,,,,,,,,,,,,,,,,,
0,24,24,36,1,,5e7607c3dec4561735fbc3f2,62bbfab5577dd0fadc318cd7,2022-06-29_10h09.53.683,Colour_Asymmetry_Pilot,2022.1.3,Win32,75.0131273,62bbe60bf3d75ef465d3e404,,,,,,,,,,,,,,,,,,,,,,,,,,,,,,,,,,,,,,,,,,,,,,,,,,,,,,,,,,,,,,,,,,,,,,,,,,,,,,,,,,,,,,,,,,,,,,,,,,,,,,,,,,,,,,,,,,,,,,,,,,,,,,,,,,,,,,,,,,,,,,,,,,,,,,,,,,,,,,
0,25,25,44,1,,5e7607c3dec4561735fbc3f2,62bbfab5577dd0fadc318cd7,2022-06-29_10h09.53.683,Colour_Asymmetry_Pilot,2022.1.3,Win32,75.0131273,62bbe60bf3d75ef465d3e404,,,,,,,,,,,,,,,,,,,,,,,,,,,,,,,,,,,,,,,,,,,,,,,,,,,,,,,,,,,,,,,,,,,,,,,,,,,,,,,,,,,,,,,,,,,,,,,,,,,,,,,,,,,,,,,,,,,,,,,,,,,,,,,,,,,,,,,,,,,,,,,,,,,,,,,,,,,,,,
0,26,26,33,1,,5e7607c3dec4561735fbc3f2,62bbfab5577dd0fadc318cd7,2022-06-29_10h09.53.683,Colour_Asymmetry_Pilot,2022.1.3,Win32,75.0131273,62bbe60bf3d75ef465d3e404,,,,,,,,,,,,,,,,,,,,,,,,,,,,,,,,,,,,,,,,,,,,,,,,,,,,,,,,,,,,,,,,,,,,,,,,,,,,,,,,,,,,,,,,,,,,,,,,,,,,,,,,,,,,,,,,,,,,,,,,,,,,,,,,,,,,,,,,,,,,,,,,,,,,,,,,,,,,,,
0,27,27,27,1,,5e7607c3dec4561735fbc3f2,62bbfab5577dd0fadc318cd7,2022-06-29_10h09.53.683,Colour_Asymmetry_Pilot,2022.1.3,Win32,75.0131273,62bbe60bf3d75ef465d3e404,,,,,,,,,,,,,,,,,,,,,,,,,,,,,,,,,,,,,,,,,,,,,,,,,,,,,,,,,,,,,,,,,,,,,,,,,,,,,,,,,,,,,,,,,,,,,,,,,,,,,,,,,,,,,,,,,,,,,,,,,,,,,,,,,,,,,,,,,,,,,,,,,,,,,,,,,,,,,,
0,28,28,14,1,,5e7607c3dec4561735fbc3f2,62bbfab5577dd0fadc318cd7,2022-06-29_10h09.53.683,Colour_Asymmetry_Pilot,2022.1.3,Win32,75.0131273,62bbe60bf3d75ef465d3e404,,,,,,,,,,,,,,,,,,,,,,,,,,,,,,,,,,,,,,,,,,,,,,,,,,,,,,,,,,,,,,,,,,,,,,,,,,,,,,,,,,,,,,,,,,,,,,,,,,,,,,,,,,,,,,,,,,,,,,,,,,,,,,,,,,,,,,,,,,,,,,,,,,,,,,,,,,,,,,
0,29,29,24,1,,5e7607c3dec4561735fbc3f2,62bbfab5577dd0fadc318cd7,2022-06-29_10h09.53.683,Colour_Asymmetry_Pilot,2022.1.3,Win32,75.0131273,62bbe60bf3d75ef465d3e404,,,,,,,,,,,,,,,,,,,,,,,,,,,,,,,,,,,,,,,,,,,,,,,,,,,,,,,,,,,,,,,,,,,,,,,,,,,,,,,,,,,,,,,,,,,,,,,,,,,,,,,,,,,,,,,,,,,,,,,,,,,,,,,,,,,,,,,,,,,,,,,,,,,,,,,,,,,,,,
0,30,30,39,1,,5e7607c3dec4561735fbc3f2,62bbfab5577dd0fadc318cd7,2022-06-29_10h09.53.683,Colour_Asymmetry_Pilot,2022.1.3,Win32,75.0131273,62bbe60bf3d75ef465d3e404,,,,,,,,,,,,,,,,,,,,,,,,,,,,,,,,,,,,,,,,,,,,,,,,,,,,,,,,,,,,,,,,,,,,,,,,,,,,,,,,,,,,,,,,,,,,,,,,,,,,,,,,,,,,,,,,,,,,,,,,,,,,,,,,,,,,,,,,,,,,,,,,,,,,,,,,,,,,,,
0,31,31,59,1,,5e7607c3dec4561735fbc3f2,62bbfab5577dd0fadc318cd7,2022-06-29_10h09.53.683,Colour_Asymmetry_Pilot,2022.1.3,Win32,75.0131273,62bbe60bf3d75ef465d3e404,,,,,,,,,,,,,,,,,,,,,,,,,,,,,,,,,,,,,,,,,,,,,,,,,,,,,,,,,,,,,,,,,,,,,,,,,,,,,,,,,,,,,,,,,,,,,,,,,,,,,,,,,,,,,,,,,,,,,,,,,,,,,,,,,,,,,,,,,,,,,,,,,,,,,,,,,,,,,,
0,32,32,85,1,,5e7607c3dec4561735fbc3f2,62bbfab5577dd0fadc318cd7,2022-06-29_10h09.53.683,Colour_Asymmetry_Pilot,2022.1.3,Win32,75.0131273,62bbe60bf3d75ef465d3e404,,,,,,,,,,,,,,,,,,,,,,,,,,,,,,,,,,,,,,,,,,,,,,,,,,,,,,,,,,,,,,,,,,,,,,,,,,,,,,,,,,,,,,,,,,,,,,,,,,,,,,,,,,,,,,,,,,,,,,,,,,,,,,,,,,,,,,,,,,,,,,,,,,,,,,,,,,,,,,
0,33,33,61,1,,5e7607c3dec4561735fbc3f2,62bbfab5577dd0fadc318cd7,2022-06-29_10h09.53.683,Colour_Asymmetry_Pilot,2022.1.3,Win32,75.0131273,62bbe60bf3d75ef465d3e404,,,,,,,,,,,,,,,,,,,,,,,,,,,,,,,,,,,,,,,,,,,,,,,,,,,,,,,,,,,,,,,,,,,,,,,,,,,,,,,,,,,,,,,,,,,,,,,,,,,,,,,,,,,,,,,,,,,,,,,,,,,,,,,,,,,,,,,,,,,,,,,,,,,,,,,,,,,,,,
0,34,34,82,1,,5e7607c3dec4561735fbc3f2,62bbfab5577dd0fadc318cd7,2022-06-29_10h09.53.683,Colour_Asymmetry_Pilot,2022.1.3,Win32,75.0131273,62bbe60bf3d75ef465d3e404,,,,,,,,,,,,,,,,,,,,,,,,,,,,,,,,,,,,,,,,,,,,,,,,,,,,,,,,,,,,,,,,,,,,,,,,,,,,,,,,,,,,,,,,,,,,,,,,,,,,,,,,,,,,,,,,,,,,,,,,,,,,,,,,,,,,,,,,,,,,,,,,,,,,,,,,,,,,,,
0,35,35,57,1,,5e7607c3dec4561735fbc3f2,62bbfab5577dd0fadc318cd7,2022-06-29_10h09.53.683,Colour_Asymmetry_Pilot,2022.1.3,Win32,75.0131273,62bbe60bf3d75ef465d3e404,,,,,,,,,,,,,,,,,,,,,,,,,,,,,,,,,,,,,,,,,,,,,,,,,,,,,,,,,,,,,,,,,,,,,,,,,,,,,,,,,,,,,,,,,,,,,,,,,,,,,,,,,,,,,,,,,,,,,,,,,,,,,,,,,,,,,,,,,,,,,,,,,,,,,,,,,,,,,,
0,36,36,7,1,,5e7607c3dec4561735fbc3f2,62bbfab5577dd0fadc318cd7,2022-06-29_10h09.53.683,Colour_Asymmetry_Pilot,2022.1.3,Win32,75.0131273,62bbe60bf3d75ef465d3e404,,,,,,,,,,,,,,,,,,,,,,,,,,,,,,,,,,,,,,,,,,,,,,,,,,,,,,,,,,,,,,,,,,,,,,,,,,,,,,,,,,,,,,,,,,,,,,,,,,,,,,,,,,,,,,,,,,,,,,,,,,,,,,,,,,,,,,,,,,,,,,,,,,,,,,,,,,,,,,
0,37,37,87,1,,5e7607c3dec4561735fbc3f2,62bbfab5577dd0fadc318cd7,2022-06-29_10h09.53.683,Colour_Asymmetry_Pilot,2022.1.3,Win32,75.0131273,62bbe60bf3d75ef465d3e404,,,,,,,,,,,,,,,,,,,,,,,,,,,,,,,,,,,,,,,,,,,,,,,,,,,,,,,,,,,,,,,,,,,,,,,,,,,,,,,,,,,,,,,,,,,,,,,,,,,,,,,,,,,,,,,,,,,,,,,,,,,,,,,,,,,,,,,,,,,,,,,,,,,,,,,,,,,,,,
0,38,38,15,1,,5e7607c3dec4561735fbc3f2,62bbfab5577dd0fadc318cd7,2022-06-29_10h09.53.683,Colour_Asymmetry_Pilot,2022.1.3,Win32,75.0131273,62bbe60bf3d75ef465d3e404,,,,,,,,,,,,,,,,,,,,,,,,,,,,,,,,,,,,,,,,,,,,,,,,,,,,,,,,,,,,,,,,,,,,,,,,,,,,,,,,,,,,,,,,,,,,,,,,,,,,,,,,,,,,,,,,,,,,,,,,,,,,,,,,,,,,,,,,,,,,,,,,,,,,,,,,,,,,,,
0,39,39,13,1,,5e7607c3dec4561735fbc3f2,62bbfab5577dd0fadc318cd7,2022-06-29_10h09.53.683,Colour_Asymmetry_Pilot,2022.1.3,Win32,75.0131273,62bbe60bf3d75ef465d3e404,,,,,,,,,,,,,,,,,,,,,,,,,,,,,,,,,,,,,,,,,,,,,,,,,,,,,,,,,,,,,,,,,,,,,,,,,,,,,,,,,,,,,,,,,,,,,,,,,,,,,,,,,,,,,,,,,,,,,,,,,,,,,,,,,,,,,,,,,,,,,,,,,,,,,,,,,,,,,,
0,40,40,80,1,,5e7607c3dec4561735fbc3f2,62bbfab5577dd0fadc318cd7,2022-06-29_10h09.53.683,Colour_Asymmetry_Pilot,2022.1.3,Win32,75.0131273,62bbe60bf3d75ef465d3e404,,,,,,,,,,,,,,,,,,,,,,,,,,,,,,,,,,,,,,,,,,,,,,,,,,,,,,,,,,,,,,,,,,,,,,,,,,,,,,,,,,,,,,,,,,,,,,,,,,,,,,,,,,,,,,,,,,,,,,,,,,,,,,,,,,,,,,,,,,,,,,,,,,,,,,,,,,,,,,
0,41,41,21,1,,5e7607c3dec4561735fbc3f2,62bbfab5577dd0fadc318cd7,2022-06-29_10h09.53.683,Colour_Asymmetry_Pilot,2022.1.3,Win32,75.0131273,62bbe60bf3d75ef465d3e404,,,,,,,,,,,,,,,,,,,,,,,,,,,,,,,,,,,,,,,,,,,,,,,,,,,,,,,,,,,,,,,,,,,,,,,,,,,,,,,,,,,,,,,,,,,,,,,,,,,,,,,,,,,,,,,,,,,,,,,,,,,,,,,,,,,,,,,,,,,,,,,,,,,,,,,,,,,,,,
0,42,42,28,1,,5e7607c3dec4561735fbc3f2,62bbfab5577dd0fadc318cd7,2022-06-29_10h09.53.683,Colour_Asymmetry_Pilot,2022.1.3,Win32,75.0131273,62bbe60bf3d75ef465d3e404,,,,,,,,,,,,,,,,,,,,,,,,,,,,,,,,,,,,,,,,,,,,,,,,,,,,,,,,,,,,,,,,,,,,,,,,,,,,,,,,,,,,,,,,,,,,,,,,,,,,,,,,,,,,,,,,,,,,,,,,,,,,,,,,,,,,,,,,,,,,,,,,,,,,,,,,,,,,,,
0,43,43,45,1,,5e7607c3dec4561735fbc3f2,62bbfab5577dd0fadc318cd7,2022-06-29_10h09.53.683,Colour_Asymmetry_Pilot,2022.1.3,Win32,75.0131273,62bbe60bf3d75ef465d3e404,,,,,,,,,,,,,,,,,,,,,,,,,,,,,,,,,,,,,,,,,,,,,,,,,,,,,,,,,,,,,,,,,,,,,,,,,,,,,,,,,,,,,,,,,,,,,,,,,,,,,,,,,,,,,,,,,,,,,,,,,,,,,,,,,,,,,,,,,,,,,,,,,,,,,,,,,,,,,,
0,44,44,76,1,,5e7607c3dec4561735fbc3f2,62bbfab5577dd0fadc318cd7,2022-06-29_10h09.53.683,Colour_Asymmetry_Pilot,2022.1.3,Win32,75.0131273,62bbe60bf3d75ef465d3e404,,,,,,,,,,,,,,,,,,,,,,,,,,,,,,,,,,,,,,,,,,,,,,,,,,,,,,,,,,,,,,,,,,,,,,,,,,,,,,,,,,,,,,,,,,,,,,,,,,,,,,,,,,,,,,,,,,,,,,,,,,,,,,,,,,,,,,,,,,,,,,,,,,,,,,,,,,,,,,
0,45,45,67,1,,5e7607c3dec4561735fbc3f2,62bbfab5577dd0fadc318cd7,2022-06-29_10h09.53.683,Colour_Asymmetry_Pilot,2022.1.3,Win32,75.0131273,62bbe60bf3d75ef465d3e404,,,,,,,,,,,,,,,,,,,,,,,,,,,,,,,,,,,,,,,,,,,,,,,,,,,,,,,,,,,,,,,,,,,,,,,,,,,,,,,,,,,,,,,,,,,,,,,,,,,,,,,,,,,,,,,,,,,,,,,,,,,,,,,,,,,,,,,,,,,,,,,,,,,,,,,,,,,,,,
0,46,46,19,1,,5e7607c3dec4561735fbc3f2,62bbfab5577dd0fadc318cd7,2022-06-29_10h09.53.683,Colour_Asymmetry_Pilot,2022.1.3,Win32,75.0131273,62bbe60bf3d75ef465d3e404,,,,,,,,,,,,,,,,,,,,,,,,,,,,,,,,,,,,,,,,,,,,,,,,,,,,,,,,,,,,,,,,,,,,,,,,,,,,,,,,,,,,,,,,,,,,,,,,,,,,,,,,,,,,,,,,,,,,,,,,,,,,,,,,,,,,,,,,,,,,,,,,,,,,,,,,,,,,,,
0,47,47,48,1,,5e7607c3dec4561735fbc3f2,62bbfab5577dd0fadc318cd7,2022-06-29_10h09.53.683,Colour_Asymmetry_Pilot,2022.1.3,Win32,75.0131273,62bbe60bf3d75ef465d3e404,,,,,,,,,,,,,,,,,,,,,,,,,,,,,,,,,,,,,,,,,,,,,,,,,,,,,,,,,,,,,,,,,,,,,,,,,,,,,,,,,,,,,,,,,,,,,,,,,,,,,,,,,,,,,,,,,,,,,,,,,,,,,,,,,,,,,,,,,,,,,,,,,,,,,,,,,,,,,,
0,48,48,78,1,,5e7607c3dec4561735fbc3f2,62bbfab5577dd0fadc318cd7,2022-06-29_10h09.53.683,Colour_Asymmetry_Pilot,2022.1.3,Win32,75.0131273,62bbe60bf3d75ef465d3e404,,,,,,,,,,,,,,,,,,,,,,,,,,,,,,,,,,,,,,,,,,,,,,,,,,,,,,,,,,,,,,,,,,,,,,,,,,,,,,,,,,,,,,,,,,,,,,,,,,,,,,,,,,,,,,,,,,,,,,,,,,,,,,,,,,,,,,,,,,,,,,,,,,,,,,,,,,,,,,
0,49,49,32,1,,5e7607c3dec4561735fbc3f2,62bbfab5577dd0fadc318cd7,2022-06-29_10h09.53.683,Colour_Asymmetry_Pilot,2022.1.3,Win32,75.0131273,62bbe60bf3d75ef465d3e404,,,,,,,,,,,,,,,,,,,,,,,,,,,,,,,,,,,,,,,,,,,,,,,,,,,,,,,,,,,,,,,,,,,,,,,,,,,,,,,,,,,,,,,,,,,,,,,,,,,,,,,,,,,,,,,,,,,,,,,,,,,,,,,,,,,,,,,,,,,,,,,,,,,,,,,,,,,,,,
0,50,50,69,1,,5e7607c3dec4561735fbc3f2,62bbfab5577dd0fadc318cd7,2022-06-29_10h09.53.683,Colour_Asymmetry_Pilot,2022.1.3,Win32,75.0131273,62bbe60bf3d75ef465d3e404,,,,,,,,,,,,,,,,,,,,,,,,,,,,,,,,,,,,,,,,,,,,,,,,,,,,,,,,,,,,,,,,,,,,,,,,,,,,,,,,,,,,,,,,,,,,,,,,,,,,,,,,,,,,,,,,,,,,,,,,,,,,,,,,,,,,,,,,,,,,,,,,,,,,,,,,,,,,,,
0,51,51,23,1,,5e7607c3dec4561735fbc3f2,62bbfab5577dd0fadc318cd7,2022-06-29_10h09.53.683,Colour_Asymmetry_Pilot,2022.1.3,Win32,75.0131273,62bbe60bf3d75ef465d3e404,,,,,,,,,,,,,,,,,,,,,,,,,,,,,,,,,,,,,,,,,,,,,,,,,,,,,,,,,,,,,,,,,,,,,,,,,,,,,,,,,,,,,,,,,,,,,,,,,,,,,,,,,,,,,,,,,,,,,,,,,,,,,,,,,,,,,,,,,,,,,,,,,,,,,,,,,,,,,,
0,52,52,81,1,,5e7607c3dec4561735fbc3f2,62bbfab5577dd0fadc318cd7,2022-06-29_10h09.53.683,Colour_Asymmetry_Pilot,2022.1.3,Win32,75.0131273,62bbe60bf3d75ef465d3e404,,,,,,,,,,,,,,,,,,,,,,,,,,,,,,,,,,,,,,,,,,,,,,,,,,,,,,,,,,,,,,,,,,,,,,,,,,,,,,,,,,,,,,,,,,,,,,,,,,,,,,,,,,,,,,,,,,,,,,,,,,,,,,,,,,,,,,,,,,,,,,,,,,,,,,,,,,,,,,
0,53,53,42,1,,5e7607c3dec4561735fbc3f2,62bbfab5577dd0fadc318cd7,2022-06-29_10h09.53.683,Colour_Asymmetry_Pilot,2022.1.3,Win32,75.0131273,62bbe60bf3d75ef465d3e404,,,,,,,,,,,,,,,,,,,,,,,,,,,,,,,,,,,,,,,,,,,,,,,,,,,,,,,,,,,,,,,,,,,,,,,,,,,,,,,,,,,,,,,,,,,,,,,,,,,,,,,,,,,,,,,,,,,,,,,,,,,,,,,,,,,,,,,,,,,,,,,,,,,,,,,,,,,,,,
0,54,54,53,1,,5e7607c3dec4561735fbc3f2,62bbfab5577dd0fadc318cd7,2022-06-29_10h09.53.683,Colour_Asymmetry_Pilot,2022.1.3,Win32,75.0131273,62bbe60bf3d75ef465d3e404,,,,,,,,,,,,,,,,,,,,,,,,,,,,,,,,,,,,,,,,,,,,,,,,,,,,,,,,,,,,,,,,,,,,,,,,,,,,,,,,,,,,,,,,,,,,,,,,,,,,,,,,,,,,,,,,,,,,,,,,,,,,,,,,,,,,,,,,,,,,,,,,,,,,,,,,,,,,,,
0,55,55,88,1,,5e7607c3dec4561735fbc3f2,62bbfab5577dd0fadc318cd7,2022-06-29_10h09.53.683,Colour_Asymmetry_Pilot,2022.1.3,Win32,75.0131273,62bbe60bf3d75ef465d3e404,,,,,,,,,,,,,,,,,,,,,,,,,,,,,,,,,,,,,,,,,,,,,,,,,,,,,,,,,,,,,,,,,,,,,,,,,,,,,,,,,,,,,,,,,,,,,,,,,,,,,,,,,,,,,,,,,,,,,,,,,,,,,,,,,,,,,,,,,,,,,,,,,,,,,,,,,,,,,,
0,56,56,52,1,,5e7607c3dec4561735fbc3f2,62bbfab5577dd0fadc318cd7,2022-06-29_10h09.53.683,Colour_Asymmetry_Pilot,2022.1.3,Win32,75.0131273,62bbe60bf3d75ef465d3e404,,,,,,,,,,,,,,,,,,,,,,,,,,,,,,,,,,,,,,,,,,,,,,,,,,,,,,,,,,,,,,,,,,,,,,,,,,,,,,,,,,,,,,,,,,,,,,,,,,,,,,,,,,,,,,,,,,,,,,,,,,,,,,,,,,,,,,,,,,,,,,,,,,,,,,,,,,,,,,
0,57,57,35,1,,5e7607c3dec4561735fbc3f2,62bbfab5577dd0fadc318cd7,2022-06-29_10h09.53.683,Colour_Asymmetry_Pilot,2022.1.3,Win32,75.0131273,62bbe60bf3d75ef465d3e404,,,,,,,,,,,,,,,,,,,,,,,,,,,,,,,,,,,,,,,,,,,,,,,,,,,,,,,,,,,,,,,,,,,,,,,,,,,,,,,,,,,,,,,,,,,,,,,,,,,,,,,,,,,,,,,,,,,,,,,,,,,,,,,,,,,,,,,,,,,,,,,,,,,,,,,,,,,,,,
0,58,58,3,1,,5e7607c3dec4561735fbc3f2,62bbfab5577dd0fadc318cd7,2022-06-29_10h09.53.683,Colour_Asymmetry_Pilot,2022.1.3,Win32,75.0131273,62bbe60bf3d75ef465d3e404,,,,,,,,,,,,,,,,,,,,,,,,,,,,,,,,,,,,,,,,,,,,,,,,,,,,,,,,,,,,,,,,,,,,,,,,,,,,,,,,,,,,,,,,,,,,,,,,,,,,,,,,,,,,,,,,,,,,,,,,,,,,,,,,,,,,,,,,,,,,,,,,,,,,,,,,,,,,,,
0,59,59,47,1,,5e7607c3dec4561735fbc3f2,62bbfab5577dd0fadc318cd7,2022-06-29_10h09.53.683,Colour_Asymmetry_Pilot,2022.1.3,Win32,75.0131273,62bbe60bf3d75ef465d3e404,,,,,,,,,,,,,,,,,,,,,,,,,,,,,,,,,,,,,,,,,,,,,,,,,,,,,,,,,,,,,,,,,,,,,,,,,,,,,,,,,,,,,,,,,,,,,,,,,,,,,,,,,,,,,,,,,,,,,,,,,,,,,,,,,,,,,,,,,,,,,,,,,,,,,,,,,,,,,,
0,60,60,51,1,,5e7607c3dec4561735fbc3f2,62bbfab5577dd0fadc318cd7,2022-06-29_10h09.53.683,Colour_Asymmetry_Pilot,2022.1.3,Win32,75.0131273,62bbe60bf3d75ef465d3e404,,,,,,,,,,,,,,,,,,,,,,,,,,,,,,,,,,,,,,,,,,,,,,,,,,,,,,,,,,,,,,,,,,,,,,,,,,,,,,,,,,,,,,,,,,,,,,,,,,,,,,,,,,,,,,,,,,,,,,,,,,,,,,,,,,,,,,,,,,,,,,,,,,,,,,,,,,,,,,
0,61,61,9,1,,5e7607c3dec4561735fbc3f2,62bbfab5577dd0fadc318cd7,2022-06-29_10h09.53.683,Colour_Asymmetry_Pilot,2022.1.3,Win32,75.0131273,62bbe60bf3d75ef465d3e404,,,,,,,,,,,,,,,,,,,,,,,,,,,,,,,,,,,,,,,,,,,,,,,,,,,,,,,,,,,,,,,,,,,,,,,,,,,,,,,,,,,,,,,,,,,,,,,,,,,,,,,,,,,,,,,,,,,,,,,,,,,,,,,,,,,,,,,,,,,,,,,,,,,,,,,,,,,,,,
0,62,62,8,1,,5e7607c3dec4561735fbc3f2,62bbfab5577dd0fadc318cd7,2022-06-29_10h09.53.683,Colour_Asymmetry_Pilot,2022.1.3,Win32,75.0131273,62bbe60bf3d75ef465d3e404,,,,,,,,,,,,,,,,,,,,,,,,,,,,,,,,,,,,,,,,,,,,,,,,,,,,,,,,,,,,,,,,,,,,,,,,,,,,,,,,,,,,,,,,,,,,,,,,,,,,,,,,,,,,,,,,,,,,,,,,,,,,,,,,,,,,,,,,,,,,,,,,,,,,,,,,,,,,,,
0,63,63,74,1,,5e7607c3dec4561735fbc3f2,62bbfab5577dd0fadc318cd7,2022-06-29_10h09.53.683,Colour_Asymmetry_Pilot,2022.1.3,Win32,75.0131273,62bbe60bf3d75ef465d3e404,,,,,,,,,,,,,,,,,,,,,,,,,,,,,,,,,,,,,,,,,,,,,,,,,,,,,,,,,,,,,,,,,,,,,,,,,,,,,,,,,,,,,,,,,,,,,,,,,,,,,,,,,,,,,,,,,,,,,,,,,,,,,,,,,,,,,,,,,,,,,,,,,,,,,,,,,,,,,,
0,64,64,22,1,,5e7607c3dec4561735fbc3f2,62bbfab5577dd0fadc318cd7,2022-06-29_10h09.53.683,Colour_Asymmetry_Pilot,2022.1.3,Win32,75.0131273,62bbe60bf3d75ef465d3e404,,,,,,,,,,,,,,,,,,,,,,,,,,,,,,,,,,,,,,,,,,,,,,,,,,,,,,,,,,,,,,,,,,,,,,,,,,,,,,,,,,,,,,,,,,,,,,,,,,,,,,,,,,,,,,,,,,,,,,,,,,,,,,,,,,,,,,,,,,,,,,,,,,,,,,,,,,,,,,
0,65,65,25,1,,5e7607c3dec4561735fbc3f2,62bbfab5577dd0fadc318cd7,2022-06-29_10h09.53.683,Colour_Asymmetry_Pilot,2022.1.3,Win32,75.0131273,62bbe60bf3d75ef465d3e404,,,,,,,,,,,,,,,,,,,,,,,,,,,,,,,,,,,,,,,,,,,,,,,,,,,,,,,,,,,,,,,,,,,,,,,,,,,,,,,,,,,,,,,,,,,,,,,,,,,,,,,,,,,,,,,,,,,,,,,,,,,,,,,,,,,,,,,,,,,,,,,,,,,,,,,,,,,,,,
0,66,66,79,1,,5e7607c3dec4561735fbc3f2,62bbfab5577dd0fadc318cd7,2022-06-29_10h09.53.683,Colour_Asymmetry_Pilot,2022.1.3,Win32,75.0131273,62bbe60bf3d75ef465d3e404,,,,,,,,,,,,,,,,,,,,,,,,,,,,,,,,,,,,,,,,,,,,,,,,,,,,,,,,,,,,,,,,,,,,,,,,,,,,,,,,,,,,,,,,,,,,,,,,,,,,,,,,,,,,,,,,,,,,,,,,,,,,,,,,,,,,,,,,,,,,,,,,,,,,,,,,,,,,,,
0,67,67,77,1,,5e7607c3dec4561735fbc3f2,62bbfab5577dd0fadc318cd7,2022-06-29_10h09.53.683,Colour_Asymmetry_Pilot,2022.1.3,Win32,75.0131273,62bbe60bf3d75ef465d3e404,,,,,,,,,,,,,,,,,,,,,,,,,,,,,,,,,,,,,,,,,,,,,,,,,,,,,,,,,,,,,,,,,,,,,,,,,,,,,,,,,,,,,,,,,,,,,,,,,,,,,,,,,,,,,,,,,,,,,,,,,,,,,,,,,,,,,,,,,,,,,,,,,,,,,,,,,,,,,,
0,68,68,73,1,,5e7607c3dec4561735fbc3f2,62bbfab5577dd0fadc318cd7,2022-06-29_10h09.53.683,Colour_Asymmetry_Pilot,2022.1.3,Win32,75.0131273,62bbe60bf3d75ef465d3e404,,,,,,,,,,,,,,,,,,,,,,,,,,,,,,,,,,,,,,,,,,,,,,,,,,,,,,,,,,,,,,,,,,,,,,,,,,,,,,,,,,,,,,,,,,,,,,,,,,,,,,,,,,,,,,,,,,,,,,,,,,,,,,,,,,,,,,,,,,,,,,,,,,,,,,,,,,,,,,
0,69,69,16,1,,5e7607c3dec4561735fbc3f2,62bbfab5577dd0fadc318cd7,2022-06-29_10h09.53.683,Colour_Asymmetry_Pilot,2022.1.3,Win32,75.0131273,62bbe60bf3d75ef465d3e404,,,,,,,,,,,,,,,,,,,,,,,,,,,,,,,,,,,,,,,,,,,,,,,,,,,,,,,,,,,,,,,,,,,,,,,,,,,,,,,,,,,,,,,,,,,,,,,,,,,,,,,,,,,,,,,,,,,,,,,,,,,,,,,,,,,,,,,,,,,,,,,,,,,,,,,,,,,,,,
0,70,70,38,1,,5e7607c3dec4561735fbc3f2,62bbfab5577dd0fadc318cd7,2022-06-29_10h09.53.683,Colour_Asymmetry_Pilot,2022.1.3,Win32,75.0131273,62bbe60bf3d75ef465d3e404,,,,,,,,,,,,,,,,,,,,,,,,,,,,,,,,,,,,,,,,,,,,,,,,,,,,,,,,,,,,,,,,,,,,,,,,,,,,,,,,,,,,,,,,,,,,,,,,,,,,,,,,,,,,,,,,,,,,,,,,,,,,,,,,,,,,,,,,,,,,,,,,,,,,,,,,,,,,,,
0,71,71,4,1,,5e7607c3dec4561735fbc3f2,62bbfab5577dd0fadc318cd7,2022-06-29_10h09.53.683,Colour_Asymmetry_Pilot,2022.1.3,Win32,75.0131273,62bbe60bf3d75ef465d3e404,,,,,,,,,,,,,,,,,,,,,,,,,,,,,,,,,,,,,,,,,,,,,,,,,,,,,,,,,,,,,,,,,,,,,,,,,,,,,,,,,,,,,,,,,,,,,,,,,,,,,,,,,,,,,,,,,,,,,,,,,,,,,,,,,,,,,,,,,,,,,,,,,,,,,,,,,,,,,,
0,72,72,37,1,,5e7607c3dec4561735fbc3f2,62bbfab5577dd0fadc318cd7,2022-06-29_10h09.53.683,Colour_Asymmetry_Pilot,2022.1.3,Win32,75.0131273,62bbe60bf3d75ef465d3e404,,,,,,,,,,,,,,,,,,,,,,,,,,,,,,,,,,,,,,,,,,,,,,,,,,,,,,,,,,,,,,,,,,,,,,,,,,,,,,,,,,,,,,,,,,,,,,,,,,,,,,,,,,,,,,,,,,,,,,,,,,,,,,,,,,,,,,,,,,,,,,,,,,,,,,,,,,,,,,
0,73,73,58,1,,5e7607c3dec4561735fbc3f2,62bbfab5577dd0fadc318cd7,2022-06-29_10h09.53.683,Colour_Asymmetry_Pilot,2022.1.3,Win32,75.0131273,62bbe60bf3d75ef465d3e404,,,,,,,,,,,,,,,,,,,,,,,,,,,,,,,,,,,,,,,,,,,,,,,,,,,,,,,,,,,,,,,,,,,,,,,,,,,,,,,,,,,,,,,,,,,,,,,,,,,,,,,,,,,,,,,,,,,,,,,,,,,,,,,,,,,,,,,,,,,,,,,,,,,,,,,,,,,,,,
0,74,74,86,1,,5e7607c3dec4561735fbc3f2,62bbfab5577dd0fadc318cd7,2022-06-29_10h09.53.683,Colour_Asymmetry_Pilot,2022.1.3,Win32,75.0131273,62bbe60bf3d75ef465d3e404,,,,,,,,,,,,,,,,,,,,,,,,,,,,,,,,,,,,,,,,,,,,,,,,,,,,,,,,,,,,,,,,,,,,,,,,,,,,,,,,,,,,,,,,,,,,,,,,,,,,,,,,,,,,,,,,,,,,,,,,,,,,,,,,,,,,,,,,,,,,,,,,,,,,,,,,,,,,,,
0,75,75,30,1,,5e7607c3dec4561735fbc3f2,62bbfab5577dd0fadc318cd7,2022-06-29_10h09.53.683,Colour_Asymmetry_Pilot,2022.1.3,Win32,75.0131273,62bbe60bf3d75ef465d3e404,,,,,,,,,,,,,,,,,,,,,,,,,,,,,,,,,,,,,,,,,,,,,,,,,,,,,,,,,,,,,,,,,,,,,,,,,,,,,,,,,,,,,,,,,,,,,,,,,,,,,,,,,,,,,,,,,,,,,,,,,,,,,,,,,,,,,,,,,,,,,,,,,,,,,,,,,,,,,,
0,76,76,10,1,,5e7607c3dec4561735fbc3f2,62bbfab5577dd0fadc318cd7,2022-06-29_10h09.53.683,Colour_Asymmetry_Pilot,2022.1.3,Win32,75.0131273,62bbe60bf3d75ef465d3e404,,,,,,,,,,,,,,,,,,,,,,,,,,,,,,,,,,,,,,,,,,,,,,,,,,,,,,,,,,,,,,,,,,,,,,,,,,,,,,,,,,,,,,,,,,,,,,,,,,,,,,,,,,,,,,,,,,,,,,,,,,,,,,,,,,,,,,,,,,,,,,,,,,,,,,,,,,,,,,
0,77,77,2,1,,5e7607c3dec4561735fbc3f2,62bbfab5577dd0fadc318cd7,2022-06-29_10h09.53.683,Colour_Asymmetry_Pilot,2022.1.3,Win32,75.0131273,62bbe60bf3d75ef465d3e404,,,,,,,,,,,,,,,,,,,,,,,,,,,,,,,,,,,,,,,,,,,,,,,,,,,,,,,,,,,,,,,,,,,,,,,,,,,,,,,,,,,,,,,,,,,,,,,,,,,,,,,,,,,,,,,,,,,,,,,,,,,,,,,,,,,,,,,,,,,,,,,,,,,,,,,,,,,,,,
0,78,78,31,1,,5e7607c3dec4561735fbc3f2,62bbfab5577dd0fadc318cd7,2022-06-29_10h09.53.683,Colour_Asymmetry_Pilot,2022.1.3,Win32,75.0131273,62bbe60bf3d75ef465d3e404,,,,,,,,,,,,,,,,,,,,,,,,,,,,,,,,,,,,,,,,,,,,,,,,,,,,,,,,,,,,,,,,,,,,,,,,,,,,,,,,,,,,,,,,,,,,,,,,,,,,,,,,,,,,,,,,,,,,,,,,,,,,,,,,,,,,,,,,,,,,,,,,,,,,,,,,,,,,,,
0,79,79,70,1,,5e7607c3dec4561735fbc3f2,62bbfab5577dd0fadc318cd7,2022-06-29_10h09.53.683,Colour_Asymmetry_Pilot,2022.1.3,Win32,75.0131273,62bbe60bf3d75ef465d3e404,,,,,,,,,,,,,,,,,,,,,,,,,,,,,,,,,,,,,,,,,,,,,,,,,,,,,,,,,,,,,,,,,,,,,,,,,,,,,,,,,,,,,,,,,,,,,,,,,,,,,,,,,,,,,,,,,,,,,,,,,,,,,,,,,,,,,,,,,,,,,,,,,,,,,,,,,,,,,,
0,80,80,49,1,,5e7607c3dec4561735fbc3f2,62bbfab5577dd0fadc318cd7,2022-06-29_10h09.53.683,Colour_Asymmetry_Pilot,2022.1.3,Win32,75.0131273,62bbe60bf3d75ef465d3e404,,,,,,,,,,,,,,,,,,,,,,,,,,,,,,,,,,,,,,,,,,,,,,,,,,,,,,,,,,,,,,,,,,,,,,,,,,,,,,,,,,,,,,,,,,,,,,,,,,,,,,,,,,,,,,,,,,,,,,,,,,,,,,,,,,,,,,,,,,,,,,,,,,,,,,,,,,,,,,
0,81,81,66,1,,5e7607c3dec4561735fbc3f2,62bbfab5577dd0fadc318cd7,2022-06-29_10h09.53.683,Colour_Asymmetry_Pilot,2022.1.3,Win32,75.0131273,62bbe60bf3d75ef465d3e404,,,,,,,,,,,,,,,,,,,,,,,,,,,,,,,,,,,,,,,,,,,,,,,,,,,,,,,,,,,,,,,,,,,,,,,,,,,,,,,,,,,,,,,,,,,,,,,,,,,,,,,,,,,,,,,,,,,,,,,,,,,,,,,,,,,,,,,,,,,,,,,,,,,,,,,,,,,,,,
0,82,82,34,1,,5e7607c3dec4561735fbc3f2,62bbfab5577dd0fadc318cd7,2022-06-29_10h09.53.683,Colour_Asymmetry_Pilot,2022.1.3,Win32,75.0131273,62bbe60bf3d75ef465d3e404,,,,,,,,,,,,,,,,,,,,,,,,,,,,,,,,,,,,,,,,,,,,,,,,,,,,,,,,,,,,,,,,,,,,,,,,,,,,,,,,,,,,,,,,,,,,,,,,,,,,,,,,,,,,,,,,,,,,,,,,,,,,,,,,,,,,,,,,,,,,,,,,,,,,,,,,,,,,,,
0,83,83,6,1,,5e7607c3dec4561735fbc3f2,62bbfab5577dd0fadc318cd7,2022-06-29_10h09.53.683,Colour_Asymmetry_Pilot,2022.1.3,Win32,75.0131273,62bbe60bf3d75ef465d3e404,,,,,,,,,,,,,,,,,,,,,,,,,,,,,,,,,,,,,,,,,,,,,,,,,,,,,,,,,,,,,,,,,,,,,,,,,,,,,,,,,,,,,,,,,,,,,,,,,,,,,,,,,,,,,,,,,,,,,,,,,,,,,,,,,,,,,,,,,,,,,,,,,,,,,,,,,,,,,,
0,84,84,91,1,,5e7607c3dec4561735fbc3f2,62bbfab5577dd0fadc318cd7,2022-06-29_10h09.53.683,Colour_Asymmetry_Pilot,2022.1.3,Win32,75.0131273,62bbe60bf3d75ef465d3e404,,,,,,,,,,,,,,,,,,,,,,,,,,,,,,,,,,,,,,,,,,,,,,,,,,,,,,,,,,,,,,,,,,,,,,,,,,,,,,,,,,,,,,,,,,,,,,,,,,,,,,,,,,,,,,,,,,,,,,,,,,,,,,,,,,,,,,,,,,,,,,,,,,,,,,,,,,,,,,
0,85,85,63,1,,5e7607c3dec4561735fbc3f2,62bbfab5577dd0fadc318cd7,2022-06-29_10h09.53.683,Colour_Asymmetry_Pilot,2022.1.3,Win32,75.0131273,62bbe60bf3d75ef465d3e404,,,,,,,,,,,,,,,,,,,,,,,,,,,,,,,,,,,,,,,,,,,,,,,,,,,,,,,,,,,,,,,,,,,,,,,,,,,,,,,,,,,,,,,,,,,,,,,,,,,,,,,,,,,,,,,,,,,,,,,,,,,,,,,,,,,,,,,,,,,,,,,,,,,,,,,,,,,,,,
0,86,86,83,1,,5e7607c3dec4561735fbc3f2,62bbfab5577dd0fadc318cd7,2022-06-29_10h09.53.683,Colour_Asymmetry_Pilot,2022.1.3,Win32,75.0131273,62bbe60bf3d75ef465d3e404,,,,,,,,,,,,,,,,,,,,,,,,,,,,,,,,,,,,,,,,,,,,,,,,,,,,,,,,,,,,,,,,,,,,,,,,,,,,,,,,,,,,,,,,,,,,,,,,,,,,,,,,,,,,,,,,,,,,,,,,,,,,,,,,,,,,,,,,,,,,,,,,,,,,,,,,,,,,,,
0,87,87,5,1,,5e7607c3dec4561735fbc3f2,62bbfab5577dd0fadc318cd7,2022-06-29_10h09.53.683,Colour_Asymmetry_Pilot,2022.1.3,Win32,75.0131273,62bbe60bf3d75ef465d3e404,,,,,,,,,,,,,,,,,,,,,,,,,,,,,,,,,,,,,,,,,,,,,,,,,,,,,,,,,,,,,,,,,,,,,,,,,,,,,,,,,,,,,,,,,,,,,,,,,,,,,,,,,,,,,,,,,,,,,,,,,,,,,,,,,,,,,,,,,,,,,,,,,,,,,,,,,,,,,,
0,88,88,11,1,,5e7607c3dec4561735fbc3f2,62bbfab5577dd0fadc318cd7,2022-06-29_10h09.53.683,Colour_Asymmetry_Pilot,2022.1.3,Win32,75.0131273,62bbe60bf3d75ef465d3e404,,,,,,,,,,,,,,,,,,,,,,,,,,,,,,,,,,,,,,,,,,,,,,,,,,,,,,,,,,,,,,,,,,,,,,,,,,,,,,,,,,,,,,,,,,,,,,,,,,,,,,,,,,,,,,,,,,,,,,,,,,,,,,,,,,,,,,,,,,,,,,,,,,,,,,,,,,,,,,
0,89,89,29,1,,5e7607c3dec4561735fbc3f2,62bbfab5577dd0fadc318cd7,2022-06-29_10h09.53.683,Colour_Asymmetry_Pilot,2022.1.3,Win32,75.0131273,62bbe60bf3d75ef465d3e404,,,,,,,,,,,,,,,,,,,,,,,,,,,,,,,,,,,,,,,,,,,,,,,,,,,,,,,,,,,,,,,,,,,,,,,,,,,,,,,,,,,,,,,,,,,,,,,,,,,,,,,,,,,,,,,,,,,,,,,,,,,,,,,,,,,,,,,,,,,,,,,,,,,,,,,,,,,,,,
0,90,90,84,1,,5e7607c3dec4561735fbc3f2,62bbfab5577dd0fadc318cd7,2022-06-29_10h09.53.683,Colour_Asymmetry_Pilot,2022.1.3,Win32,75.0131273,62bbe60bf3d75ef465d3e404,,,,,,,,,,,,,,,,,,,,,,,,,,,,,,,,,,,,,,,,,,,,,,,,,,,,,,,,,,,,,,,,,,,,,,,,,,,,,,,,,,,,,,,,,,,,,,,,,,,,,,,,,,,,,,,,,,,,,,,,,,,,,,,,,,,,,,,,,,,,,,,,,,,,,,,,,,,,,,
0,91,91,90,1,,5e7607c3dec4561735fbc3f2,62bbfab5577dd0fadc318cd7,2022-06-29_10h09.53.683,Colour_Asymmetry_Pilot,2022.1.3,Win32,75.0131273,62bbe60bf3d75ef465d3e404,,,,,,,,,,,,,,,,,,,,,,,,,,,,,,,,,,,,,,,,,,,,,,,,,,,,,,,,,,,,,,,,,,,,,,,,,,,,,,,,,,,,,,,,,,,,,,,,,,,,,,,,,,,,,,,,,,,,,,,,,,,,,,,,,,,,,,,,,,,,,,,,,,,,,,,,,,,,,,
0,92,92,50,1,,5e7607c3dec4561735fbc3f2,62bbfab5577dd0fadc318cd7,2022-06-29_10h09.53.683,Colour_Asymmetry_Pilot,2022.1.3,Win32,75.0131273,62bbe60bf3d75ef465d3e404,,,,,,,,,,,,,,,,,,,,,,,,,,,,,,,,,,,,,,,,,,,,,,,,,,,,,,,,,,,,,,,,,,,,,,,,,,,,,,,,,,,,,,,,,,,,,,,,,,,,,,,,,,,,,,,,,,,,,,,,,,,,,,,,,,,,,,,,,,,,,,,,,,,,,,,,,,,,,,
,,,,,,5e7607c3dec4561735fbc3f2,62bbfab5577dd0fadc318cd7,2022-06-29_10h09.53.683,Colour_Asymmetry_Pilot,2022.1.3,Win32,75.0131273,62bbe60bf3d75ef465d3e404,0,0,0,111,1,fourthree,,,,,,,,,,,,,,,,,,,,,,,,,,,,,,,,,,,,,,,,,,,,,,,,,,,,,,,,,,,,,,,,,,,,,,,,,,,,,,,,,,,,,,,,,,,,,,,,,,,,,,,,,,,,,,,,,,,,,,,,,,,,,,,,,,,,,,,,,,,,,,,,,,,,,,,,
,,,,,,5e7607c3dec4561735fbc3f2,62bbfab5577dd0fadc318cd7,2022-06-29_10h09.53.683,Colour_Asymmetry_Pilot,2022.1.3,Win32,75.0131273,62bbe60bf3d75ef465d3e404,0,1,1,17,1,onethree,,,,,,,,,,,,,,,,,,,,,,,,,,,,,,,,,,,,,,,,,,,,,,,,,,,,,,,,,,,,,,,,,,,,,,,,,,,,,,,,,,,,,,,,,,,,,,,,,,,,,,,,,,,,,,,,,,,,,,,,,,,,,,,,,,,,,,,,,,,,,,,,,,,,,,,,
,,,,,,5e7607c3dec4561735fbc3f2,62bbfab5577dd0fadc318cd7,2022-06-29_10h09.53.683,Colour_Asymmetry_Pilot,2022.1.3,Win32,75.0131273,62bbe60bf3d75ef465d3e404,0,2,2,143,1,fourthree,,,,,,,,,,,,,,,,,,,,,,,,,,,,,,,,,,,,,,,,,,,,,,,,,,,,,,,,,,,,,,,,,,,,,,,,,,,,,,,,,,,,,,,,,,,,,,,,,,,,,,,,,,,,,,,,,,,,,,,,,,,,,,,,,,,,,,,,,,,,,,,,,,,,,,,,
,,,,,,5e7607c3dec4561735fbc3f2,62bbfab5577dd0fadc318cd7,2022-06-29_10h09.53.683,Colour_Asymmetry_Pilot,2022.1.3,Win32,75.0131273,62bbe60bf3d75ef465d3e404,0,3,3,28,1,threeone,,,,,,,,,,,,,,,,,,,,,,,,,,,,,,,,,,,,,,,,,,,,,,,,,,,,,,,,,,,,,,,,,,,,,,,,,,,,,,,,,,,,,,,,,,,,,,,,,,,,,,,,,,,,,,,,,,,,,,,,,,,,,,,,,,,,,,,,,,,,,,,,,,,,,,,,
,,,,,,5e7607c3dec4561735fbc3f2,62bbfab5577dd0fadc318cd7,2022-06-29_10h09.53.683,Colour_Asymmetry_Pilot,2022.1.3,Win32,75.0131273,62bbe60bf3d75ef465d3e404,0,4,4,69,1,threefour,,,,,,,,,,,,,,,,,,,,,,,,,,,,,,,,,,,,,,,,,,,,,,,,,,,,,,,,,,,,,,,,,,,,,,,,,,,,,,,,,,,,,,,,,,,,,,,,,,,,,,,,,,,,,,,,,,,,,,,,,,,,,,,,,,,,,,,,,,,,,,,,,,,,,,,,
,,,,,,5e7607c3dec4561735fbc3f2,62bbfab5577dd0fadc318cd7,2022-06-29_10h09.53.683,Colour_Asymmetry_Pilot,2022.1.3,Win32,75.0131273,62bbe60bf3d75ef465d3e404,0,5,5,151,1,fourthree,,,,,,,,,,,,,,,,,,,,,,,,,,,,,,,,,,,,,,,,,,,,,,,,,,,,,,,,,,,,,,,,,,,,,,,,,,,,,,,,,,,,,,,,,,,,,,,,,,,,,,,,,,,,,,,,,,,,,,,,,,,,,,,,,,,,,,,,,,,,,,,,,,,,,,,,
,,,,,,5e7607c3dec4561735fbc3f2,62bbfab5577dd0fadc318cd7,2022-06-29_10h09.53.683,Colour_Asymmetry_Pilot,2022.1.3,Win32,75.0131273,62bbe60bf3d75ef465d3e404,0,6,6,153,1,onethree,,,,,,,,,,,,,,,,,,,,,,,,,,,,,,,,,,,,,,,,,,,,,,,,,,,,,,,,,,,,,,,,,,,,,,,,,,,,,,,,,,,,,,,,,,,,,,,,,,,,,,,,,,,,,,,,,,,,,,,,,,,,,,,,,,,,,,,,,,,,,,,,,,,,,,,,
,,,,,,5e7607c3dec4561735fbc3f2,62bbfab5577dd0fadc318cd7,2022-06-29_10h09.53.683,Colour_Asymmetry_Pilot,2022.1.3,Win32,75.0131273,62bbe60bf3d75ef465d3e404,0,7,7,126,1,fourtwo,,,,,,,,,,,,,,,,,,,,,,,,,,,,,,,,,,,,,,,,,,,,,,,,,,,,,,,,,,,,,,,,,,,,,,,,,,,,,,,,,,,,,,,,,,,,,,,,,,,,,,,,,,,,,,,,,,,,,,,,,,,,,,,,,,,,,,,,,,,,,,,,,,,,,,,,
,,,,,,5e7607c3dec4561735fbc3f2,62bbfab5577dd0fadc318cd7,2022-06-29_10h09.53.683,Colour_Asymmetry_Pilot,2022.1.3,Win32,75.0131273,62bbe60bf3d75ef465d3e404,0,8,8,75,1,twofour,,,,,,,,,,,,,,,,,,,,,,,,,,,,,,,,,,,,,,,,,,,,,,,,,,,,,,,,,,,,,,,,,,,,,,,,,,,,,,,,,,,,,,,,,,,,,,,,,,,,,,,,,,,,,,,,,,,,,,,,,,,,,,,,,,,,,,,,,,,,,,,,,,,,,,,,
,,,,,,5e7607c3dec4561735fbc3f2,62bbfab5577dd0fadc318cd7,2022-06-29_10h09.53.683,Colour_Asymmetry_Pilot,2022.1.3,Win32,75.0131273,62bbe60bf3d75ef465d3e404,0,9,9,85,1,threefour,,,,,,,,,,,,,,,,,,,,,,,,,,,,,,,,,,,,,,,,,,,,,,,,,,,,,,,,,,,,,,,,,,,,,,,,,,,,,,,,,,,,,,,,,,,,,,,,,,,,,,,,,,,,,,,,,,,,,,,,,,,,,,,,,,,,,,,,,,,,,,,,,,,,,,,,
,,,,,,5e7607c3dec4561735fbc3f2,62bbfab5577dd0fadc318cd7,2022-06-29_10h09.53.683,Colour_Asymmetry_Pilot,2022.1.3,Win32,75.0131273,62bbe60bf3d75ef465d3e404,0,10,10,4,1,threeone,,,,,,,,,,,,,,,,,,,,,,,,,,,,,,,,,,,,,,,,,,,,,,,,,,,,,,,,,,,,,,,,,,,,,,,,,,,,,,,,,,,,,,,,,,,,,,,,,,,,,,,,,,,,,,,,,,,,,,,,,,,,,,,,,,,,,,,,,,,,,,,,,,,,,,,,
,,,,,,5e7607c3dec4561735fbc3f2,62bbfab5577dd0fadc318cd7,2022-06-29_10h09.53.683,Colour_Asymmetry_Pilot,2022.1.3,Win32,75.0131273,62bbe60bf3d75ef465d3e404,0,11,11,3,1,twofour,,,,,,,,,,,,,,,,,,,,,,,,,,,,,,,,,,,,,,,,,,,,,,,,,,,,,,,,,,,,,,,,,,,,,,,,,,,,,,,,,,,,,,,,,,,,,,,,,,,,,,,,,,,,,,,,,,,,,,,,,,,,,,,,,,,,,,,,,,,,,,,,,,,,,,,,
,,,,,,5e7607c3dec4561735fbc3f2,62bbfab5577dd0fadc318cd7,2022-06-29_10h09.53.683,Colour_Asymmetry_Pilot,2022.1.3,Win32,75.0131273,62bbe60bf3d75ef465d3e404,0,12,12,74,1,twoone,,,,,,,,,,,,,,,,,,,,,,,,,,,,,,,,,,,,,,,,,,,,,,,,,,,,,,,,,,,,,,,,,,,,,,,,,,,,,,,,,,,,,,,,,,,,,,,,,,,,,,,,,,,,,,,,,,,,,,,,,,,,,,,,,,,,,,,,,,,,,,,,,,,,,,,,
,,,,,,5e7607c3dec4561735fbc3f2,62bbfab5577dd0fadc318cd7,2022-06-29_10h09.53.683,Colour_Asymmetry_Pilot,2022.1.3,Win32,75.0131273,62bbe60bf3d75ef465d3e404,0,13,13,144,1,onetwo,,,,,,,,,,,,,,,,,,,,,,,,,,,,,,,,,,,,,,,,,,,,,,,,,,,,,,,,,,,,,,,,,,,,,,,,,,,,,,,,,,,,,,,,,,,,,,,,,,,,,,,,,,,,,,,,,,,,,,,,,,,,,,,,,,,,,,,,,,,,,,,,,,,,,,,,
,,,,,,5e7607c3dec4561735fbc3f2,62bbfab5577dd0fadc318cd7,2022-06-29_10h09.53.683,Colour_Asymmetry_Pilot,2022.1.3,Win32,75.0131273,62bbe60bf3d75ef465d3e404,0,14,14,83,1,twofour,,,,,,,,,,,,,,,,,,,,,,,,,,,,,,,,,,,,,,,,,,,,,,,,,,,,,,,,,,,,,,,,,,,,,,,,,,,,,,,,,,,,,,,,,,,,,,,,,,,,,,,,,,,,,,,,,,,,,,,,,,,,,,,,,,,,,,,,,,,,,,,,,,,,,,,,
,,,,,,5e7607c3dec4561735fbc3f2,62bbfab5577dd0fadc318cd7,2022-06-29_10h09.53.683,Colour_Asymmetry_Pilot,2022.1.3,Win32,75.0131273,62bbe60bf3d75ef465d3e404,0,15,15,150,1,fourtwo,,,,,,,,,,,,,,,,,,,,,,,,,,,,,,,,,,,,,,,,,,,,,,,,,,,,,,,,,,,,,,,,,,,,,,,,,,,,,,,,,,,,,,,,,,,,,,,,,,,,,,,,,,,,,,,,,,,,,,,,,,,,,,,,,,,,,,,,,,,,,,,,,,,,,,,,
,,,,,,5e7607c3dec4561735fbc3f2,62bbfab5577dd0fadc318cd7,2022-06-29_10h09.53.683,Colour_Asymmetry_Pilot,2022.1.3,Win32,75.0131273,62bbe60bf3d75ef465d3e404,0,16,16,72,1,onetwo,,,,,,,,,,,,,,,,,,,,,,,,,,,,,,,,,,,,,,,,,,,,,,,,,,,,,,,,,,,,,,,,,,,,,,,,,,,,,,,,,,,,,,,,,,,,,,,,,,,,,,,,,,,,,,,,,,,,,,,,,,,,,,,,,,,,,,,,,,,,,,,,,,,,,,,,
,,,,,,5e7607c3dec4561735fbc3f2,62bbfab5577dd0fadc318cd7,2022-06-29_10h09.53.683,Colour_Asymmetry_Pilot,2022.1.3,Win32,75.0131273,62bbe60bf3d75ef465d3e404,0,17,17,99,1,twofour,,,,,,,,,,,,,,,,,,,,,,,,,,,,,,,,,,,,,,,,,,,,,,,,,,,,,,,,,,,,,,,,,,,,,,,,,,,,,,,,,,,,,,,,,,,,,,,,,,,,,,,,,,,,,,,,,,,,,,,,,,,,,,,,,,,,,,,,,,,,,,,,,,,,,,,,
,,,,,,5e7607c3dec4561735fbc3f2,62bbfab5577dd0fadc318cd7,2022-06-29_10h09.53.683,Colour_Asymmetry_Pilot,2022.1.3,Win32,75.0131273,62bbe60bf3d75ef465d3e404,0,18,18,115,1,twofour,,,,,,,,,,,,,,,,,,,,,,,,,,,,,,,,,,,,,,,,,,,,,,,,,,,,,,,,,,,,,,,,,,,,,,,,,,,,,,,,,,,,,,,,,,,,,,,,,,,,,,,,,,,,,,,,,,,,,,,,,,,,,,,,,,,,,,,,,,,,,,,,,,,,,,,,
,,,,,,5e7607c3dec4561735fbc3f2,62bbfab5577dd0fadc318cd7,2022-06-29_10h09.53.683,Colour_Asymmetry_Pilot,2022.1.3,Win32,75.0131273,62bbe60bf3d75ef465d3e404,0,19,19,47,1,fourthree,,,,,,,,,,,,,,,,,,,,,,,,,,,,,,,,,,,,,,,,,,,,,,,,,,,,,,,,,,,,,,,,,,,,,,,,,,,,,,,,,,,,,,,,,,,,,,,,,,,,,,,,,,,,,,,,,,,,,,,,,,,,,,,,,,,,,,,,,,,,,,,,,,,,,,,,
,,,,,,5e7607c3dec4561735fbc3f2,62bbfab5577dd0fadc318cd7,2022-06-29_10h09.53.683,Colour_Asymmetry_Pilot,2022.1.3,Win32,75.0131273,62bbe60bf3d75ef465d3e404,0,20,20,103,1,fourthree,,,,,,,,,,,,,,,,,,,,,,,,,,,,,,,,,,,,,,,,,,,,,,,,,,,,,,,,,,,,,,,,,,,,,,,,,,,,,,,,,,,,,,,,,,,,,,,,,,,,,,,,,,,,,,,,,,,,,,,,,,,,,,,,,,,,,,,,,,,,,,,,,,,,,,,,
,,,,,,5e7607c3dec4561735fbc3f2,62bbfab5577dd0fadc318cd7,2022-06-29_10h09.53.683,Colour_Asymmetry_Pilot,2022.1.3,Win32,75.0131273,62bbe60bf3d75ef465d3e404,0,21,21,141,1,threefour,,,,,,,,,,,,,,,,,,,,,,,,,,,,,,,,,,,,,,,,,,,,,,,,,,,,,,,,,,,,,,,,,,,,,,,,,,,,,,,,,,,,,,,,,,,,,,,,,,,,,,,,,,,,,,,,,,,,,,,,,,,,,,,,,,,,,,,,,,,,,,,,,,,,,,,,
,,,,,,5e7607c3dec4561735fbc3f2,62bbfab5577dd0fadc318cd7,2022-06-29_10h09.53.683,Colour_Asymmetry_Pilot,2022.1.3,Win32,75.0131273,62bbe60bf3d75ef465d3e404,0,22,22,29,1,threefour,,,,,,,,,,,,,,,,,,,,,,,,,,,,,,,,,,,,,,,,,,,,,,,,,,,,,,,,,,,,,,,,,,,,,,,,,,,,,,,,,,,,,,,,,,,,,,,,,,,,,,,,,,,,,,,,,,,,,,,,,,,,,,,,,,,,,,,,,,,,,,,,,,,,,,,,
,,,,,,5e7607c3dec4561735fbc3f2,62bbfab5577dd0fadc318cd7,2022-06-29_10h09.53.683,Colour_Asymmetry_Pilot,2022.1.3,Win32,75.0131273,62bbe60bf3d75ef465d3e404,0,23,23,122,1,twoone,,,,,,,,,,,,,,,,,,,,,,,,,,,,,,,,,,,,,,,,,,,,,,,,,,,,,,,,,,,,,,,,,,,,,,,,,,,,,,,,,,,,,,,,,,,,,,,,,,,,,,,,,,,,,,,,,,,,,,,,,,,,,,,,,,,,,,,,,,,,,,,,,,,,,,,,
,,,,,,5e7607c3dec4561735fbc3f2,62bbfab5577dd0fadc318cd7,2022-06-29_10h09.53.683,Colour_Asymmetry_Pilot,2022.1.3,Win32,75.0131273,62bbe60bf3d75ef465d3e404,0,24,24,133,1,threefour,,,,,,,,,,,,,,,,,,,,,,,,,,,,,,,,,,,,,,,,,,,,,,,,,,,,,,,,,,,,,,,,,,,,,,,,,,,,,,,,,,,,,,,,,,,,,,,,,,,,,,,,,,,,,,,,,,,,,,,,,,,,,,,,,,,,,,,,,,,,,,,,,,,,,,,,
,,,,,,5e7607c3dec4561735fbc3f2,62bbfab5577dd0fadc318cd7,2022-06-29_10h09.53.683,Colour_Asymmetry_Pilot,2022.1.3,Win32,75.0131273,62bbe60bf3d75ef465d3e404,0,25,25,132,1,threeone,,,,,,,,,,,,,,,,,,,,,,,,,,,,,,,,,,,,,,,,,,,,,,,,,,,,,,,,,,,,,,,,,,,,,,,,,,,,,,,,,,,,,,,,,,,,,,,,,,,,,,,,,,,,,,,,,,,,,,,,,,,,,,,,,,,,,,,,,,,,,,,,,,,,,,,,
,,,,,,5e7607c3dec4561735fbc3f2,62bbfab5577dd0fadc318cd7,2022-06-29_10h09.53.683,Colour_Asymmetry_Pilot,2022.1.3,Win32,75.0131273,62bbe60bf3d75ef465d3e404,0,26,26,95,1,fourthree,,,,,,,,,,,,,,,,,,,,,,,,,,,,,,,,,,,,,,,,,,,,,,,,,,,,,,,,,,,,,,,,,,,,,,,,,,,,,,,,,,,,,,,,,,,,,,,,,,,,,,,,,,,,,,,,,,,,,,,,,,,,,,,,,,,,,,,,,,,,,,,,,,,,,,,,
,,,,,,5e7607c3dec4561735fbc3f2,62bbfab5577dd0fadc318cd7,2022-06-29_10h09.53.683,Colour_Asymmetry_Pilot,2022.1.3,Win32,75.0131273,62bbe60bf3d75ef465d3e404,0,27,27,134,1,fourtwo,,,,,,,,,,,,,,,,,,,,,,,,,,,,,,,,,,,,,,,,,,,,,,,,,,,,,,,,,,,,,,,,,,,,,,,,,,,,,,,,,,,,,,,,,,,,,,,,,,,,,,,,,,,,,,,,,,,,,,,,,,,,,,,,,,,,,,,,,,,,,,,,,,,,,,,,
,,,,,,5e7607c3dec4561735fbc3f2,62bbfab5577dd0fadc318cd7,2022-06-29_10h09.53.683,Colour_Asymmetry_Pilot,2022.1.3,Win32,75.0131273,62bbe60bf3d75ef465d3e404,0,28,28,63,1,fourthree,,,,,,,,,,,,,,,,,,,,,,,,,,,,,,,,,,,,,,,,,,,,,,,,,,,,,,,,,,,,,,,,,,,,,,,,,,,,,,,,,,,,,,,,,,,,,,,,,,,,,,,,,,,,,,,,,,,,,,,,,,,,,,,,,,,,,,,,,,,,,,,,,,,,,,,,
,,,,,,5e7607c3dec4561735fbc3f2,62bbfab5577dd0fadc318cd7,2022-06-29_10h09.53.683,Colour_Asymmetry_Pilot,2022.1.3,Win32,75.0131273,62bbe60bf3d75ef465d3e404,0,29,29,124,1,threeone,,,,,,,,,,,,,,,,,,,,,,,,,,,,,,,,,,,,,,,,,,,,,,,,,,,,,,,,,,,,,,,,,,,,,,,,,,,,,,,,,,,,,,,,,,,,,,,,,,,,,,,,,,,,,,,,,,,,,,,,,,,,,,,,,,,,,,,,,,,,,,,,,,,,,,,,
,,,,,,5e7607c3dec4561735fbc3f2,62bbfab5577dd0fadc318cd7,2022-06-29_10h09.53.683,Colour_Asymmetry_Pilot,2022.1.3,Win32,75.0131273,62bbe60bf3d75ef465d3e404,0,30,30,13,1,threefour,,,,,,,,,,,,,,,,,,,,,,,,,,,,,,,,,,,,,,,,,,,,,,,,,,,,,,,,,,,,,,,,,,,,,,,,,,,,,,,,,,,,,,,,,,,,,,,,,,,,,,,,,,,,,,,,,,,,,,,,,,,,,,,,,,,,,,,,,,,,,,,,,,,,,,,,
,,,,,,5e7607c3dec4561735fbc3f2,62bbfab5577dd0fadc318cd7,2022-06-29_10h09.53.683,Colour_Asymmetry_Pilot,2022.1.3,Win32,75.0131273,62bbe60bf3d75ef465d3e404,0,31,31,81,1,onethree,,,,,,,,,,,,,,,,,,,,,,,,,,,,,,,,,,,,,,,,,,,,,,,,,,,,,,,,,,,,,,,,,,,,,,,,,,,,,,,,,,,,,,,,,,,,,,,,,,,,,,,,,,,,,,,,,,,,,,,,,,,,,,,,,,,,,,,,,,,,,,,,,,,,,,,,
,,,,,,5e7607c3dec4561735fbc3f2,62bbfab5577dd0fadc318cd7,2022-06-29_10h09.53.683,Colour_Asymmetry_Pilot,2022.1.3,Win32,75.0131273,62bbe60bf3d75ef465d3e404,0,32,32,159,1,fourthree,,,,,,,,,,,,,,,,,,,,,,,,,,,,,,,,,,,,,,,,,,,,,,,,,,,,,,,,,,,,,,,,,,,,,,,,,,,,,,,,,,,,,,,,,,,,,,,,,,,,,,,,,,,,,,,,,,,,,,,,,,,,,,,,,,,,,,,,,,,,,,,,,,,,,,,,
,,,,,,5e7607c3dec4561735fbc3f2,62bbfab5577dd0fadc318cd7,2022-06-29_10h09.53.683,Colour_Asymmetry_Pilot,2022.1.3,Win32,75.0131273,62bbe60bf3d75ef465d3e404,0,33,33,8,1,onetwo,,,,,,,,,,,,,,,,,,,,,,,,,,,,,,,,,,,,,,,,,,,,,,,,,,,,,,,,,,,,,,,,,,,,,,,,,,,,,,,,,,,,,,,,,,,,,,,,,,,,,,,,,,,,,,,,,,,,,,,,,,,,,,,,,,,,,,,,,,,,,,,,,,,,,,,,
,,,,,,5e7607c3dec4561735fbc3f2,62bbfab5577dd0fadc318cd7,2022-06-29_10h09.53.683,Colour_Asymmetry_Pilot,2022.1.3,Win32,75.0131273,62bbe60bf3d75ef465d3e404,0,34,34,54,1,fourtwo,,,,,,,,,,,,,,,,,,,,,,,,,,,,,,,,,,,,,,,,,,,,,,,,,,,,,,,,,,,,,,,,,,,,,,,,,,,,,,,,,,,,,,,,,,,,,,,,,,,,,,,,,,,,,,,,,,,,,,,,,,,,,,,,,,,,,,,,,,,,,,,,,,,,,,,,
,,,,,,5e7607c3dec4561735fbc3f2,62bbfab5577dd0fadc318cd7,2022-06-29_10h09.53.683,Colour_Asymmetry_Pilot,2022.1.3,Win32,75.0131273,62bbe60bf3d75ef465d3e404,0,35,35,18,1,twoone,,,,,,,,,,,,,,,,,,,,,,,,,,,,,,,,,,,,,,,,,,,,,,,,,,,,,,,,,,,,,,,,,,,,,,,,,,,,,,,,,,,,,,,,,,,,,,,,,,,,,,,,,,,,,,,,,,,,,,,,,,,,,,,,,,,,,,,,,,,,,,,,,,,,,,,,
,,,,,,5e7607c3dec4561735fbc3f2,62bbfab5577dd0fadc318cd7,2022-06-29_10h09.53.683,Colour_Asymmetry_Pilot,2022.1.3,Win32,75.0131273,62bbe60bf3d75ef465d3e404,0,36,36,73,1,onethree,,,,,,,,,,,,,,,,,,,,,,,,,,,,,,,,,,,,,,,,,,,,,,,,,,,,,,,,,,,,,,,,,,,,,,,,,,,,,,,,,,,,,,,,,,,,,,,,,,,,,,,,,,,,,,,,,,,,,,,,,,,,,,,,,,,,,,,,,,,,,,,,,,,,,,,,
,,,,,,5e7607c3dec4561735fbc3f2,62bbfab5577dd0fadc318cd7,2022-06-29_10h09.53.683,Colour_Asymmetry_Pilot,2022.1.3,Win32,75.0131273,62bbe60bf3d75ef465d3e404,0,37,37,25,1,onethree,,,,,,,,,,,,,,,,,,,,,,,,,,,,,,,,,,,,,,,,,,,,,,,,,,,,,,,,,,,,,,,,,,,,,,,,,,,,,,,,,,,,,,,,,,,,,,,,,,,,,,,,,,,,,,,,,,,,,,,,,,,,,,,,,,,,,,,,,,,,,,,,,,,,,,,,
,,,,,,5e7607c3dec4561735fbc3f2,62bbfab5577dd0fadc318cd7,2022-06-29_10h09.53.683,Colour_Asymmetry_Pilot,2022.1.3,Win32,75.0131273,62bbe60bf3d75ef465d3e404,0,38,38,154,1,twoone,,,,,,,,,,,,,,,,,,,,,,,,,,,,,,,,,,,,,,,,,,,,,,,,,,,,,,,,,,,,,,,,,,,,,,,,,,,,,,,,,,,,,,,,,,,,,,,,,,,,,,,,,,,,,,,,,,,,,,,,,,,,,,,,,,,,,,,,,,,,,,,,,,,,,,,,
,,,,,,5e7607c3dec4561735fbc3f2,62bbfab5577dd0fadc318cd7,2022-06-29_10h09.53.683,Colour_Asymmetry_Pilot,2022.1.3,Win32,75.0131273,62bbe60bf3d75ef465d3e404,0,39,39,61,1,threefour,,,,,,,,,,,,,,,,,,,,,,,,,,,,,,,,,,,,,,,,,,,,,,,,,,,,,,,,,,,,,,,,,,,,,,,,,,,,,,,,,,,,,,,,,,,,,,,,,,,,,,,,,,,,,,,,,,,,,,,,,,,,,,,,,,,,,,,,,,,,,,,,,,,,,,,,
,,,,,,5e7607c3dec4561735fbc3f2,62bbfab5577dd0fadc318cd7,2022-06-29_10h09.53.683,Colour_Asymmetry_Pilot,2022.1.3,Win32,75.0131273,62bbe60bf3d75ef465d3e404,0,40,40,37,1,threefour,,,,,,,,,,,,,,,,,,,,,,,,,,,,,,,,,,,,,,,,,,,,,,,,,,,,,,,,,,,,,,,,,,,,,,,,,,,,,,,,,,,,,,,,,,,,,,,,,,,,,,,,,,,,,,,,,,,,,,,,,,,,,,,,,,,,,,,,,,,,,,,,,,,,,,,,
,,,,,,5e7607c3dec4561735fbc3f2,62bbfab5577dd0fadc318cd7,2022-06-29_10h09.53.683,Colour_Asymmetry_Pilot,2022.1.3,Win32,75.0131273,62bbe60bf3d75ef465d3e404,0,41,41,105,1,onethree,,,,,,,,,,,,,,,,,,,,,,,,,,,,,,,,,,,,,,,,,,,,,,,,,,,,,,,,,,,,,,,,,,,,,,,,,,,,,,,,,,,,,,,,,,,,,,,,,,,,,,,,,,,,,,,,,,,,,,,,,,,,,,,,,,,,,,,,,,,,,,,,,,,,,,,,
,,,,,,5e7607c3dec4561735fbc3f2,62bbfab5577dd0fadc318cd7,2022-06-29_10h09.53.683,Colour_Asymmetry_Pilot,2022.1.3,Win32,75.0131273,62bbe60bf3d75ef465d3e404,0,42,42,157,1,threefour,,,,,,,,,,,,,,,,,,,,,,,,,,,,,,,,,,,,,,,,,,,,,,,,,,,,,,,,,,,,,,,,,,,,,,,,,,,,,,,,,,,,,,,,,,,,,,,,,,,,,,,,,,,,,,,,,,,,,,,,,,,,,,,,,,,,,,,,,,,,,,,,,,,,,,,,
,,,,,,5e7607c3dec4561735fbc3f2,62bbfab5577dd0fadc318cd7,2022-06-29_10h09.53.683,Colour_Asymmetry_Pilot,2022.1.3,Win32,75.0131273,62bbe60bf3d75ef465d3e404,0,43,43,40,1,onetwo,,,,,,,,,,,,,,,,,,,,,,,,,,,,,,,,,,,,,,,,,,,,,,,,,,,,,,,,,,,,,,,,,,,,,,,,,,,,,,,,,,,,,,,,,,,,,,,,,,,,,,,,,,,,,,,,,,,,,,,,,,,,,,,,,,,,,,,,,,,,,,,,,,,,,,,,
,,,,,,5e7607c3dec4561735fbc3f2,62bbfab5577dd0fadc318cd7,2022-06-29_10h09.53.683,Colour_Asymmetry_Pilot,2022.1.3,Win32,75.0131273,62bbe60bf3d75ef465d3e404,0,44,44,31,1,fourthree,,,,,,,,,,,,,,,,,,,,,,,,,,,,,,,,,,,,,,,,,,,,,,,,,,,,,,,,,,,,,,,,,,,,,,,,,,,,,,,,,,,,,,,,,,,,,,,,,,,,,,,,,,,,,,,,,,,,,,,,,,,,,,,,,,,,,,,,,,,,,,,,,,,,,,,,
,,,,,,5e7607c3dec4561735fbc3f2,62bbfab5577dd0fadc318cd7,2022-06-29_10h09.53.683,Colour_Asymmetry_Pilot,2022.1.3,Win32,75.0131273,62bbe60bf3d75ef465d3e404,0,45,45,68,1,threeone,,,,,,,,,,,,,,,,,,,,,,,,,,,,,,,,,,,,,,,,,,,,,,,,,,,,,,,,,,,,,,,,,,,,,,,,,,,,,,,,,,,,,,,,,,,,,,,,,,,,,,,,,,,,,,,,,,,,,,,,,,,,,,,,,,,,,,,,,,,,,,,,,,,,,,,,
,,,,,,5e7607c3dec4561735fbc3f2,62bbfab5577dd0fadc318cd7,2022-06-29_10h09.53.683,Colour_Asymmetry_Pilot,2022.1.3,Win32,75.0131273,62bbe60bf3d75ef465d3e404,0,46,46,52,1,threeone,,,,,,,,,,,,,,,,,,,,,,,,,,,,,,,,,,,,,,,,,,,,,,,,,,,,,,,,,,,,,,,,,,,,,,,,,,,,,,,,,,,,,,,,,,,,,,,,,,,,,,,,,,,,,,,,,,,,,,,,,,,,,,,,,,,,,,,,,,,,,,,,,,,,,,,,
,,,,,,5e7607c3dec4561735fbc3f2,62bbfab5577dd0fadc318cd7,2022-06-29_10h09.53.683,Colour_Asymmetry_Pilot,2022.1.3,Win32,75.0131273,62bbe60bf3d75ef465d3e404,0,47,47,42,1,twoone,,,,,,,,,,,,,,,,,,,,,,,,,,,,,,,,,,,,,,,,,,,,,,,,,,,,,,,,,,,,,,,,,,,,,,,,,,,,,,,,,,,,,,,,,,,,,,,,,,,,,,,,,,,,,,,,,,,,,,,,,,,,,,,,,,,,,,,,,,,,,,,,,,,,,,,,
,,,,,,5e7607c3dec4561735fbc3f2,62bbfab5577dd0fadc318cd7,2022-06-29_10h09.53.683,Colour_Asymmetry_Pilot,2022.1.3,Win32,75.0131273,62bbe60bf3d75ef465d3e404,0,48,48,96,1,onetwo,,,,,,,,,,,,,,,,,,,,,,,,,,,,,,,,,,,,,,,,,,,,,,,,,,,,,,,,,,,,,,,,,,,,,,,,,,,,,,,,,,,,,,,,,,,,,,,,,,,,,,,,,,,,,,,,,,,,,,,,,,,,,,,,,,,,,,,,,,,,,,,,,,,,,,,,
,,,,,,5e7607c3dec4561735fbc3f2,62bbfab5577dd0fadc318cd7,2022-06-29_10h09.53.683,Colour_Asymmetry_Pilot,2022.1.3,Win32,75.0131273,62bbe60bf3d75ef465d3e404,0,49,49,7,1,fourthree,,,,,,,,,,,,,,,,,,,,,,,,,,,,,,,,,,,,,,,,,,,,,,,,,,,,,,,,,,,,,,,,,,,,,,,,,,,,,,,,,,,,,,,,,,,,,,,,,,,,,,,,,,,,,,,,,,,,,,,,,,,,,,,,,,,,,,,,,,,,,,,,,,,,,,,,
,,,,,,5e7607c3dec4561735fbc3f2,62bbfab5577dd0fadc318cd7,2022-06-29_10h09.53.683,Colour_Asymmetry_Pilot,2022.1.3,Win32,75.0131273,62bbe60bf3d75ef465d3e404,0,50,50,149,1,threefour,,,,,,,,,,,,,,,,,,,,,,,,,,,,,,,,,,,,,,,,,,,,,,,,,,,,,,,,,,,,,,,,,,,,,,,,,,,,,,,,,,,,,,,,,,,,,,,,,,,,,,,,,,,,,,,,,,,,,,,,,,,,,,,,,,,,,,,,,,,,,,,,,,,,,,,,
,,,,,,5e7607c3dec4561735fbc3f2,62bbfab5577dd0fadc318cd7,2022-06-29_10h09.53.683,Colour_Asymmetry_Pilot,2022.1.3,Win32,75.0131273,62bbe60bf3d75ef465d3e404,0,51,51,48,1,onetwo,,,,,,,,,,,,,,,,,,,,,,,,,,,,,,,,,,,,,,,,,,,,,,,,,,,,,,,,,,,,,,,,,,,,,,,,,,,,,,,,,,,,,,,,,,,,,,,,,,,,,,,,,,,,,,,,,,,,,,,,,,,,,,,,,,,,,,,,,,,,,,,,,,,,,,,,
,,,,,,5e7607c3dec4561735fbc3f2,62bbfab5577dd0fadc318cd7,2022-06-29_10h09.53.683,Colour_Asymmetry_Pilot,2022.1.3,Win32,75.0131273,62bbe60bf3d75ef465d3e404,0,52,52,108,1,threeone,,,,,,,,,,,,,,,,,,,,,,,,,,,,,,,,,,,,,,,,,,,,,,,,,,,,,,,,,,,,,,,,,,,,,,,,,,,,,,,,,,,,,,,,,,,,,,,,,,,,,,,,,,,,,,,,,,,,,,,,,,,,,,,,,,,,,,,,,,,,,,,,,,,,,,,,
,,,,,,5e7607c3dec4561735fbc3f2,62bbfab5577dd0fadc318cd7,2022-06-29_10h09.53.683,Colour_Asymmetry_Pilot,2022.1.3,Win32,75.0131273,62bbe60bf3d75ef465d3e404,0,53,53,39,1,fourthree,,,,,,,,,,,,,,,,,,,,,,,,,,,,,,,,,,,,,,,,,,,,,,,,,,,,,,,,,,,,,,,,,,,,,,,,,,,,,,,,,,,,,,,,,,,,,,,,,,,,,,,,,,,,,,,,,,,,,,,,,,,,,,,,,,,,,,,,,,,,,,,,,,,,,,,,
,,,,,,5e7607c3dec4561735fbc3f2,62bbfab5577dd0fadc318cd7,2022-06-29_10h09.53.683,Colour_Asymmetry_Pilot,2022.1.3,Win32,75.0131273,62bbe60bf3d75ef465d3e404,0,54,54,140,1,threeone,,,,,,,,,,,,,,,,,,,,,,,,,,,,,,,,,,,,,,,,,,,,,,,,,,,,,,,,,,,,,,,,,,,,,,,,,,,,,,,,,,,,,,,,,,,,,,,,,,,,,,,,,,,,,,,,,,,,,,,,,,,,,,,,,,,,,,,,,,,,,,,,,,,,,,,,
,,,,,,5e7607c3dec4561735fbc3f2,62bbfab5577dd0fadc318cd7,2022-06-29_10h09.53.683,Colour_Asymmetry_Pilot,2022.1.3,Win32,75.0131273,62bbe60bf3d75ef465d3e404,0,55,55,58,1,twoone,,,,,,,,,,,,,,,,,,,,,,,,,,,,,,,,,,,,,,,,,,,,,,,,,,,,,,,,,,,,,,,,,,,,,,,,,,,,,,,,,,,,,,,,,,,,,,,,,,,,,,,,,,,,,,,,,,,,,,,,,,,,,,,,,,,,,,,,,,,,,,,,,,,,,,,,
,,,,,,5e7607c3dec4561735fbc3f2,62bbfab5577dd0fadc318cd7,2022-06-29_10h09.53.683,Colour_Asymmetry_Pilot,2022.1.3,Win32,75.0131273,62bbe60bf3d75ef465d3e404,0,56,56,36,1,threeone,,,,,,,,,,,,,,,,,,,,,,,,,,,,,,,,,,,,,,,,,,,,,,,,,,,,,,,,,,,,,,,,,,,,,,,,,,,,,,,,,,,,,,,,,,,,,,,,,,,,,,,,,,,,,,,,,,,,,,,,,,,,,,,,,,,,,,,,,,,,,,,,,,,,,,,,
,,,,,,5e7607c3dec4561735fbc3f2,62bbfab5577dd0fadc318cd7,2022-06-29_10h09.53.683,Colour_Asymmetry_Pilot,2022.1.3,Win32,75.0131273,62bbe60bf3d75ef465d3e404,0,57,57,2,1,twoone,,,,,,,,,,,,,,,,,,,,,,,,,,,,,,,,,,,,,,,,,,,,,,,,,,,,,,,,,,,,,,,,,,,,,,,,,,,,,,,,,,,,,,,,,,,,,,,,,,,,,,,,,,,,,,,,,,,,,,,,,,,,,,,,,,,,,,,,,,,,,,,,,,,,,,,,
,,,,,,5e7607c3dec4561735fbc3f2,62bbfab5577dd0fadc318cd7,2022-06-29_10h09.53.683,Colour_Asymmetry_Pilot,2022.1.3,Win32,75.0131273,62bbe60bf3d75ef465d3e404,0,58,58,152,1,onetwo,,,,,,,,,,,,,,,,,,,,,,,,,,,,,,,,,,,,,,,,,,,,,,,,,,,,,,,,,,,,,,,,,,,,,,,,,,,,,,,,,,,,,,,,,,,,,,,,,,,,,,,,,,,,,,,,,,,,,,,,,,,,,,,,,,,,,,,,,,,,,,,,,,,,,,,,
,,,,,,5e7607c3dec4561735fbc3f2,62bbfab5577dd0fadc318cd7,2022-06-29_10h09.53.683,Colour_Asymmetry_Pilot,2022.1.3,Win32,75.0131273,62bbe60bf3d75ef465d3e404,0,59,59,93,1,threefour,,,,,,,,,,,,,,,,,,,,,,,,,,,,,,,,,,,,,,,,,,,,,,,,,,,,,,,,,,,,,,,,,,,,,,,,,,,,,,,,,,,,,,,,,,,,,,,,,,,,,,,,,,,,,,,,,,,,,,,,,,,,,,,,,,,,,,,,,,,,,,,,,,,,,,,,
,,,,,,5e7607c3dec4561735fbc3f2,62bbfab5577dd0fadc318cd7,2022-06-29_10h09.53.683,Colour_Asymmetry_Pilot,2022.1.3,Win32,75.0131273,62bbe60bf3d75ef465d3e404,0,60,60,38,1,fourtwo,,,,,,,,,,,,,,,,,,,,,,,,,,,,,,,,,,,,,,,,,,,,,,,,,,,,,,,,,,,,,,,,,,,,,,,,,,,,,,,,,,,,,,,,,,,,,,,,,,,,,,,,,,,,,,,,,,,,,,,,,,,,,,,,,,,,,,,,,,,,,,,,,,,,,,,,
,,,,,,5e7607c3dec4561735fbc3f2,62bbfab5577dd0fadc318cd7,2022-06-29_10h09.53.683,Colour_Asymmetry_Pilot,2022.1.3,Win32,75.0131273,62bbe60bf3d75ef465d3e404,0,61,61,34,1,twoone,,,,,,,,,,,,,,,,,,,,,,,,,,,,,,,,,,,,,,,,,,,,,,,,,,,,,,,,,,,,,,,,,,,,,,,,,,,,,,,,,,,,,,,,,,,,,,,,,,,,,,,,,,,,,,,,,,,,,,,,,,,,,,,,,,,,,,,,,,,,,,,,,,,,,,,,
,,,,,,5e7607c3dec4561735fbc3f2,62bbfab5577dd0fadc318cd7,2022-06-29_10h09.53.683,Colour_Asymmetry_Pilot,2022.1.3,Win32,75.0131273,62bbe60bf3d75ef465d3e404,0,62,62,101,1,threefour,,,,,,,,,,,,,,,,,,,,,,,,,,,,,,,,,,,,,,,,,,,,,,,,,,,,,,,,,,,,,,,,,,,,,,,,,,,,,,,,,,,,,,,,,,,,,,,,,,,,,,,,,,,,,,,,,,,,,,,,,,,,,,,,,,,,,,,,,,,,,,,,,,,,,,,,
,,,,,,5e7607c3dec4561735fbc3f2,62bbfab5577dd0fadc318cd7,2022-06-29_10h09.53.683,Colour_Asymmetry_Pilot,2022.1.3,Win32,75.0131273,62bbe60bf3d75ef465d3e404,0,63,63,30,1,fourtwo,,,,,,,,,,,,,,,,,,,,,,,,,,,,,,,,,,,,,,,,,,,,,,,,,,,,,,,,,,,,,,,,,,,,,,,,,,,,,,,,,,,,,,,,,,,,,,,,,,,,,,,,,,,,,,,,,,,,,,,,,,,,,,,,,,,,,,,,,,,,,,,,,,,,,,,,
,,,,,,5e7607c3dec4561735fbc3f2,62bbfab5577dd0fadc318cd7,2022-06-29_10h09.53.683,Colour_Asymmetry_Pilot,2022.1.3,Win32,75.0131273,62bbe60bf3d75ef465d3e404,0,64,64,129,1,onethree,,,,,,,,,,,,,,,,,,,,,,,,,,,,,,,,,,,,,,,,,,,,,,,,,,,,,,,,,,,,,,,,,,,,,,,,,,,,,,,,,,,,,,,,,,,,,,,,,,,,,,,,,,,,,,,,,,,,,,,,,,,,,,,,,,,,,,,,,,,,,,,,,,,,,,,,
,,,,,,5e7607c3dec4561735fbc3f2,62bbfab5577dd0fadc318cd7,2022-06-29_10h09.53.683,Colour_Asymmetry_Pilot,2022.1.3,Win32,75.0131273,62bbe60bf3d75ef465d3e404,0,65,65,104,1,onetwo,,,,,,,,,,,,,,,,,,,,,,,,,,,,,,,,,,,,,,,,,,,,,,,,,,,,,,,,,,,,,,,,,,,,,,,,,,,,,,,,,,,,,,,,,,,,,,,,,,,,,,,,,,,,,,,,,,,,,,,,,,,,,,,,,,,,,,,,,,,,,,,,,,,,,,,,
,,,,,,5e7607c3dec4561735fbc3f2,62bbfab5577dd0fadc318cd7,2022-06-29_10h09.53.683,Colour_Asymmetry_Pilot,2022.1.3,Win32,75.0131273,62bbe60bf3d75ef465d3e404,0,66,66,139,1,twofour,,,,,,,,,,,,,,,,,,,,,,,,,,,,,,,,,,,,,,,,,,,,,,,,,,,,,,,,,,,,,,,,,,,,,,,,,,,,,,,,,,,,,,,,,,,,,,,,,,,,,,,,,,,,,,,,,,,,,,,,,,,,,,,,,,,,,,,,,,,,,,,,,,,,,,,,
,,,,,,5e7607c3dec4561735fbc3f2,62bbfab5577dd0fadc318cd7,2022-06-29_10h09.53.683,Colour_Asymmetry_Pilot,2022.1.3,Win32,75.0131273,62bbe60bf3d75ef465d3e404,0,67,67,53,1,threefour,,,,,,,,,,,,,,,,,,,,,,,,,,,,,,,,,,,,,,,,,,,,,,,,,,,,,,,,,,,,,,,,,,,,,,,,,,,,,,,,,,,,,,,,,,,,,,,,,,,,,,,,,,,,,,,,,,,,,,,,,,,,,,,,,,,,,,,,,,,,,,,,,,,,,,,,
,,,,,,5e7607c3dec4561735fbc3f2,62bbfab5577dd0fadc318cd7,2022-06-29_10h09.53.683,Colour_Asymmetry_Pilot,2022.1.3,Win32,75.0131273,62bbe60bf3d75ef465d3e404,0,68,68,116,1,threeone,,,,,,,,,,,,,,,,,,,,,,,,,,,,,,,,,,,,,,,,,,,,,,,,,,,,,,,,,,,,,,,,,,,,,,,,,,,,,,,,,,,,,,,,,,,,,,,,,,,,,,,,,,,,,,,,,,,,,,,,,,,,,,,,,,,,,,,,,,,,,,,,,,,,,,,,
,,,,,,5e7607c3dec4561735fbc3f2,62bbfab5577dd0fadc318cd7,2022-06-29_10h09.53.683,Colour_Asymmetry_Pilot,2022.1.3,Win32,75.0131273,62bbe60bf3d75ef465d3e404,0,69,69,97,1,onethree,,,,,,,,,,,,,,,,,,,,,,,,,,,,,,,,,,,,,,,,,,,,,,,,,,,,,,,,,,,,,,,,,,,,,,,,,,,,,,,,,,,,,,,,,,,,,,,,,,,,,,,,,,,,,,,,,,,,,,,,,,,,,,,,,,,,,,,,,,,,,,,,,,,,,,,,
,,,,,,5e7607c3dec4561735fbc3f2,62bbfab5577dd0fadc318cd7,2022-06-29_10h09.53.683,Colour_Asymmetry_Pilot,2022.1.3,Win32,75.0131273,62bbe60bf3d75ef465d3e404,0,70,70,20,1,threeone,,,,,,,,,,,,,,,,,,,,,,,,,,,,,,,,,,,,,,,,,,,,,,,,,,,,,,,,,,,,,,,,,,,,,,,,,,,,,,,,,,,,,,,,,,,,,,,,,,,,,,,,,,,,,,,,,,,,,,,,,,,,,,,,,,,,,,,,,,,,,,,,,,,,,,,,
,,,,,,5e7607c3dec4561735fbc3f2,62bbfab5577dd0fadc318cd7,2022-06-29_10h09.53.683,Colour_Asymmetry_Pilot,2022.1.3,Win32,75.0131273,62bbe60bf3d75ef465d3e404,0,71,71,89,1,onethree,,,,,,,,,,,,,,,,,,,,,,,,,,,,,,,,,,,,,,,,,,,,,,,,,,,,,,,,,,,,,,,,,,,,,,,,,,,,,,,,,,,,,,,,,,,,,,,,,,,,,,,,,,,,,,,,,,,,,,,,,,,,,,,,,,,,,,,,,,,,,,,,,,,,,,,,
,,,,,,5e7607c3dec4561735fbc3f2,62bbfab5577dd0fadc318cd7,2022-06-29_10h09.53.683,Colour_Asymmetry_Pilot,2022.1.3,Win32,75.0131273,62bbe60bf3d75ef465d3e404,0,72,72,23,1,fourthree,,,,,,,,,,,,,,,,,,,,,,,,,,,,,,,,,,,,,,,,,,,,,,,,,,,,,,,,,,,,,,,,,,,,,,,,,,,,,,,,,,,,,,,,,,,,,,,,,,,,,,,,,,,,,,,,,,,,,,,,,,,,,,,,,,,,,,,,,,,,,,,,,,,,,,,,
,,,,,,5e7607c3dec4561735fbc3f2,62bbfab5577dd0fadc318cd7,2022-06-29_10h09.53.683,Colour_Asymmetry_Pilot,2022.1.3,Win32,75.0131273,62bbe60bf3d75ef465d3e404,0,73,73,107,1,twofour,,,,,,,,,,,,,,,,,,,,,,,,,,,,,,,,,,,,,,,,,,,,,,,,,,,,,,,,,,,,,,,,,,,,,,,,,,,,,,,,,,,,,,,,,,,,,,,,,,,,,,,,,,,,,,,,,,,,,,,,,,,,,,,,,,,,,,,,,,,,,,,,,,,,,,,,
,,,,,,5e7607c3dec4561735fbc3f2,62bbfab5577dd0fadc318cd7,2022-06-29_10h09.53.683,Colour_Asymmetry_Pilot,2022.1.3,Win32,75.0131273,62bbe60bf3d75ef465d3e404,0,74,74,138,1,twoone,,,,,,,,,,,,,,,,,,,,,,,,,,,,,,,,,,,,,,,,,,,,,,,,,,,,,,,,,,,,,,,,,,,,,,,,,,,,,,,,,,,,,,,,,,,,,,,,,,,,,,,,,,,,,,,,,,,,,,,,,,,,,,,,,,,,,,,,,,,,,,,,,,,,,,,,
,,,,,,5e7607c3dec4561735fbc3f2,62bbfab5577dd0fadc318cd7,2022-06-29_10h09.53.683,Colour_Asymmetry_Pilot,2022.1.3,Win32,75.0131273,62bbe60bf3d75ef465d3e404,0,75,75,136,1,onetwo,,,,,,,,,,,,,,,,,,,,,,,,,,,,,,,,,,,,,,,,,,,,,,,,,,,,,,,,,,,,,,,,,,,,,,,,,,,,,,,,,,,,,,,,,,,,,,,,,,,,,,,,,,,,,,,,,,,,,,,,,,,,,,,,,,,,,,,,,,,,,,,,,,,,,,,,
,,,,,,5e7607c3dec4561735fbc3f2,62bbfab5577dd0fadc318cd7,2022-06-29_10h09.53.683,Colour_Asymmetry_Pilot,2022.1.3,Win32,75.0131273,62bbe60bf3d75ef465d3e404,0,76,76,27,1,twofour,,,,,,,,,,,,,,,,,,,,,,,,,,,,,,,,,,,,,,,,,,,,,,,,,,,,,,,,,,,,,,,,,,,,,,,,,,,,,,,,,,,,,,,,,,,,,,,,,,,,,,,,,,,,,,,,,,,,,,,,,,,,,,,,,,,,,,,,,,,,,,,,,,,,,,,,
,,,,,,5e7607c3dec4561735fbc3f2,62bbfab5577dd0fadc318cd7,2022-06-29_10h09.53.683,Colour_Asymmetry_Pilot,2022.1.3,Win32,75.0131273,62bbe60bf3d75ef465d3e404,0,77,77,94,1,fourtwo,,,,,,,,,,,,,,,,,,,,,,,,,,,,,,,,,,,,,,,,,,,,,,,,,,,,,,,,,,,,,,,,,,,,,,,,,,,,,,,,,,,,,,,,,,,,,,,,,,,,,,,,,,,,,,,,,,,,,,,,,,,,,,,,,,,,,,,,,,,,,,,,,,,,,,,,
,,,,,,5e7607c3dec4561735fbc3f2,62bbfab5577dd0fadc318cd7,2022-06-29_10h09.53.683,Colour_Asymmetry_Pilot,2022.1.3,Win32,75.0131273,62bbe60bf3d75ef465d3e404,0,78,78,59,1,twofour,,,,,,,,,,,,,,,,,,,,,,,,,,,,,,,,,,,,,,,,,,,,,,,,,,,,,,,,,,,,,,,,,,,,,,,,,,,,,,,,,,,,,,,,,,,,,,,,,,,,,,,,,,,,,,,,,,,,,,,,,,,,,,,,,,,,,,,,,,,,,,,,,,,,,,,,
,,,,,,5e7607c3dec4561735fbc3f2,62bbfab5577dd0fadc318cd7,2022-06-29_10h09.53.683,Colour_Asymmetry_Pilot,2022.1.3,Win32,75.0131273,62bbe60bf3d75ef465d3e404,0,79,79,14,1,fourtwo,,,,,,,,,,,,,,,,,,,,,,,,,,,,,,,,,,,,,,,,,,,,,,,,,,,,,,,,,,,,,,,,,,,,,,,,,,,,,,,,,,,,,,,,,,,,,,,,,,,,,,,,,,,,,,,,,,,,,,,,,,,,,,,,,,,,,,,,,,,,,,,,,,,,,,,,
,,,,,,5e7607c3dec4561735fbc3f2,62bbfab5577dd0fadc318cd7,2022-06-29_10h09.53.683,Colour_Asymmetry_Pilot,2022.1.3,Win32,75.0131273,62bbe60bf3d75ef465d3e404,0,80,80,148,1,threeone,,,,,,,,,,,,,,,,,,,,,,,,,,,,,,,,,,,,,,,,,,,,,,,,,,,,,,,,,,,,,,,,,,,,,,,,,,,,,,,,,,,,,,,,,,,,,,,,,,,,,,,,,,,,,,,,,,,,,,,,,,,,,,,,,,,,,,,,,,,,,,,,,,,,,,,,
,,,,,,5e7607c3dec4561735fbc3f2,62bbfab5577dd0fadc318cd7,2022-06-29_10h09.53.683,Colour_Asymmetry_Pilot,2022.1.3,Win32,75.0131273,62bbe60bf3d75ef465d3e404,0,81,81,46,1,fourtwo,,,,,,,,,,,,,,,,,,,,,,,,,,,,,,,,,,,,,,,,,,,,,,,,,,,,,,,,,,,,,,,,,,,,,,,,,,,,,,,,,,,,,,,,,,,,,,,,,,,,,,,,,,,,,,,,,,,,,,,,,,,,,,,,,,,,,,,,,,,,,,,,,,,,,,,,
,,,,,,5e7607c3dec4561735fbc3f2,62bbfab5577dd0fadc318cd7,2022-06-29_10h09.53.683,Colour_Asymmetry_Pilot,2022.1.3,Win32,75.0131273,62bbe60bf3d75ef465d3e404,0,82,82,80,1,onetwo,,,,,,,,,,,,,,,,,,,,,,,,,,,,,,,,,,,,,,,,,,,,,,,,,,,,,,,,,,,,,,,,,,,,,,,,,,,,,,,,,,,,,,,,,,,,,,,,,,,,,,,,,,,,,,,,,,,,,,,,,,,,,,,,,,,,,,,,,,,,,,,,,,,,,,,,
,,,,,,5e7607c3dec4561735fbc3f2,62bbfab5577dd0fadc318cd7,2022-06-29_10h09.53.683,Colour_Asymmetry_Pilot,2022.1.3,Win32,75.0131273,62bbe60bf3d75ef465d3e404,0,83,83,161,1,onethree,,,,,,,,,,,,,,,,,,,,,,,,,,,,,,,,,,,,,,,,,,,,,,,,,,,,,,,,,,,,,,,,,,,,,,,,,,,,,,,,,,,,,,,,,,,,,,,,,,,,,,,,,,,,,,,,,,,,,,,,,,,,,,,,,,,,,,,,,,,,,,,,,,,,,,,,
,,,,,,5e7607c3dec4561735fbc3f2,62bbfab5577dd0fadc318cd7,2022-06-29_10h09.53.683,Colour_Asymmetry_Pilot,2022.1.3,Win32,75.0131273,62bbe60bf3d75ef465d3e404,0,84,84,160,1,onetwo,,,,,,,,,,,,,,,,,,,,,,,,,,,,,,,,,,,,,,,,,,,,,,,,,,,,,,,,,,,,,,,,,,,,,,,,,,,,,,,,,,,,,,,,,,,,,,,,,,,,,,,,,,,,,,,,,,,,,,,,,,,,,,,,,,,,,,,,,,,,,,,,,,,,,,,,
,,,,,,5e7607c3dec4561735fbc3f2,62bbfab5577dd0fadc318cd7,2022-06-29_10h09.53.683,Colour_Asymmetry_Pilot,2022.1.3,Win32,75.0131273,62bbe60bf3d75ef465d3e404,0,85,85,0,1,onetwo,,,,,,,,,,,,,,,,,,,,,,,,,,,,,,,,,,,,,,,,,,,,,,,,,,,,,,,,,,,,,,,,,,,,,,,,,,,,,,,,,,,,,,,,,,,,,,,,,,,,,,,,,,,,,,,,,,,,,,,,,,,,,,,,,,,,,,,,,,,,,,,,,,,,,,,,
,,,,,,5e7607c3dec4561735fbc3f2,62bbfab5577dd0fadc318cd7,2022-06-29_10h09.53.683,Colour_Asymmetry_Pilot,2022.1.3,Win32,75.0131273,62bbe60bf3d75ef465d3e404,0,86,86,67,1,twofour,,,,,,,,,,,,,,,,,,,,,,,,,,,,,,,,,,,,,,,,,,,,,,,,,,,,,,,,,,,,,,,,,,,,,,,,,,,,,,,,,,,,,,,,,,,,,,,,,,,,,,,,,,,,,,,,,,,,,,,,,,,,,,,,,,,,,,,,,,,,,,,,,,,,,,,,
,,,,,,5e7607c3dec4561735fbc3f2,62bbfab5577dd0fadc318cd7,2022-06-29_10h09.53.683,Colour_Asymmetry_Pilot,2022.1.3,Win32,75.0131273,62bbe60bf3d75ef465d3e404,0,87,87,146,1,twoone,,,,,,,,,,,,,,,,,,,,,,,,,,,,,,,,,,,,,,,,,,,,,,,,,,,,,,,,,,,,,,,,,,,,,,,,,,,,,,,,,,,,,,,,,,,,,,,,,,,,,,,,,,,,,,,,,,,,,,,,,,,,,,,,,,,,,,,,,,,,,,,,,,,,,,,,
,,,,,,5e7607c3dec4561735fbc3f2,62bbfab5577dd0fadc318cd7,2022-06-29_10h09.53.683,Colour_Asymmetry_Pilot,2022.1.3,Win32,75.0131273,62bbe60bf3d75ef465d3e404,0,88,88,114,1,twoone,,,,,,,,,,,,,,,,,,,,,,,,,,,,,,,,,,,,,,,,,,,,,,,,,,,,,,,,,,,,,,,,,,,,,,,,,,,,,,,,,,,,,,,,,,,,,,,,,,,,,,,,,,,,,,,,,,,,,,,,,,,,,,,,,,,,,,,,,,,,,,,,,,,,,,,,
,,,,,,5e7607c3dec4561735fbc3f2,62bbfab5577dd0fadc318cd7,2022-06-29_10h09.53.683,Colour_Asymmetry_Pilot,2022.1.3,Win32,75.0131273,62bbe60bf3d75ef465d3e404,0,89,89,24,1,onetwo,,,,,,,,,,,,,,,,,,,,,,,,,,,,,,,,,,,,,,,,,,,,,,,,,,,,,,,,,,,,,,,,,,,,,,,,,,,,,,,,,,,,,,,,,,,,,,,,,,,,,,,,,,,,,,,,,,,,,,,,,,,,,,,,,,,,,,,,,,,,,,,,,,,,,,,,
,,,,,,5e7607c3dec4561735fbc3f2,62bbfab5577dd0fadc318cd7,2022-06-29_10h09.53.683,Colour_Asymmetry_Pilot,2022.1.3,Win32,75.0131273,62bbe60bf3d75ef465d3e404,0,90,90,78,1,fourtwo,,,,,,,,,,,,,,,,,,,,,,,,,,,,,,,,,,,,,,,,,,,,,,,,,,,,,,,,,,,,,,,,,,,,,,,,,,,,,,,,,,,,,,,,,,,,,,,,,,,,,,,,,,,,,,,,,,,,,,,,,,,,,,,,,,,,,,,,,,,,,,,,,,,,,,,,
,,,,,,5e7607c3dec4561735fbc3f2,62bbfab5577dd0fadc318cd7,2022-06-29_10h09.53.683,Colour_Asymmetry_Pilot,2022.1.3,Win32,75.0131273,62bbe60bf3d75ef465d3e404,0,91,91,117,1,threefour,,,,,,,,,,,,,,,,,,,,,,,,,,,,,,,,,,,,,,,,,,,,,,,,,,,,,,,,,,,,,,,,,,,,,,,,,,,,,,,,,,,,,,,,,,,,,,,,,,,,,,,,,,,,,,,,,,,,,,,,,,,,,,,,,,,,,,,,,,,,,,,,,,,,,,,,
,,,,,,5e7607c3dec4561735fbc3f2,62bbfab5577dd0fadc318cd7,2022-06-29_10h09.53.683,Colour_Asymmetry_Pilot,2022.1.3,Win32,75.0131273,62bbe60bf3d75ef465d3e404,0,92,92,10,1,twoone,,,,,,,,,,,,,,,,,,,,,,,,,,,,,,,,,,,,,,,,,,,,,,,,,,,,,,,,,,,,,,,,,,,,,,,,,,,,,,,,,,,,,,,,,,,,,,,,,,,,,,,,,,,,,,,,,,,,,,,,,,,,,,,,,,,,,,,,,,,,,,,,,,,,,,,,
,,,,,,5e7607c3dec4561735fbc3f2,62bbfab5577dd0fadc318cd7,2022-06-29_10h09.53.683,Colour_Asymmetry_Pilot,2022.1.3,Win32,75.0131273,62bbe60bf3d75ef465d3e404,0,93,93,21,1,threefour,,,,,,,,,,,,,,,,,,,,,,,,,,,,,,,,,,,,,,,,,,,,,,,,,,,,,,,,,,,,,,,,,,,,,,,,,,,,,,,,,,,,,,,,,,,,,,,,,,,,,,,,,,,,,,,,,,,,,,,,,,,,,,,,,,,,,,,,,,,,,,,,,,,,,,,,
,,,,,,5e7607c3dec4561735fbc3f2,62bbfab5577dd0fadc318cd7,2022-06-29_10h09.53.683,Colour_Asymmetry_Pilot,2022.1.3,Win32,75.0131273,62bbe60bf3d75ef465d3e404,0,94,94,55,1,fourthree,,,,,,,,,,,,,,,,,,,,,,,,,,,,,,,,,,,,,,,,,,,,,,,,,,,,,,,,,,,,,,,,,,,,,,,,,,,,,,,,,,,,,,,,,,,,,,,,,,,,,,,,,,,,,,,,,,,,,,,,,,,,,,,,,,,,,,,,,,,,,,,,,,,,,,,,
,,,,,,5e7607c3dec4561735fbc3f2,62bbfab5577dd0fadc318cd7,2022-06-29_10h09.53.683,Colour_Asymmetry_Pilot,2022.1.3,Win32,75.0131273,62bbe60bf3d75ef465d3e404,0,95,95,33,1,onethree,,,,,,,,,,,,,,,,,,,,,,,,,,,,,,,,,,,,,,,,,,,,,,,,,,,,,,,,,,,,,,,,,,,,,,,,,,,,,,,,,,,,,,,,,,,,,,,,,,,,,,,,,,,,,,,,,,,,,,,,,,,,,,,,,,,,,,,,,,,,,,,,,,,,,,,,
,,,,,,5e7607c3dec4561735fbc3f2,62bbfab5577dd0fadc318cd7,2022-06-29_10h09.53.683,Colour_Asymmetry_Pilot,2022.1.3,Win32,75.0131273,62bbe60bf3d75ef465d3e404,0,96,96,125,1,threefour,,,,,,,,,,,,,,,,,,,,,,,,,,,,,,,,,,,,,,,,,,,,,,,,,,,,,,,,,,,,,,,,,,,,,,,,,,,,,,,,,,,,,,,,,,,,,,,,,,,,,,,,,,,,,,,,,,,,,,,,,,,,,,,,,,,,,,,,,,,,,,,,,,,,,,,,
,,,,,,5e7607c3dec4561735fbc3f2,62bbfab5577dd0fadc318cd7,2022-06-29_10h09.53.683,Colour_Asymmetry_Pilot,2022.1.3,Win32,75.0131273,62bbe60bf3d75ef465d3e404,0,97,97,119,1,fourthree,,,,,,,,,,,,,,,,,,,,,,,,,,,,,,,,,,,,,,,,,,,,,,,,,,,,,,,,,,,,,,,,,,,,,,,,,,,,,,,,,,,,,,,,,,,,,,,,,,,,,,,,,,,,,,,,,,,,,,,,,,,,,,,,,,,,,,,,,,,,,,,,,,,,,,,,
,,,,,,5e7607c3dec4561735fbc3f2,62bbfab5577dd0fadc318cd7,2022-06-29_10h09.53.683,Colour_Asymmetry_Pilot,2022.1.3,Win32,75.0131273,62bbe60bf3d75ef465d3e404,0,98,98,60,1,threeone,,,,,,,,,,,,,,,,,,,,,,,,,,,,,,,,,,,,,,,,,,,,,,,,,,,,,,,,,,,,,,,,,,,,,,,,,,,,,,,,,,,,,,,,,,,,,,,,,,,,,,,,,,,,,,,,,,,,,,,,,,,,,,,,,,,,,,,,,,,,,,,,,,,,,,,,
,,,,,,5e7607c3dec4561735fbc3f2,62bbfab5577dd0fadc318cd7,2022-06-29_10h09.53.683,Colour_Asymmetry_Pilot,2022.1.3,Win32,75.0131273,62bbe60bf3d75ef465d3e404,0,99,99,43,1,twofour,,,,,,,,,,,,,,,,,,,,,,,,,,,,,,,,,,,,,,,,,,,,,,,,,,,,,,,,,,,,,,,,,,,,,,,,,,,,,,,,,,,,,,,,,,,,,,,,,,,,,,,,,,,,,,,,,,,,,,,,,,,,,,,,,,,,,,,,,,,,,,,,,,,,,,,,
,,,,,,5e7607c3dec4561735fbc3f2,62bbfab5577dd0fadc318cd7,2022-06-29_10h09.53.683,Colour_Asymmetry_Pilot,2022.1.3,Win32,75.0131273,62bbe60bf3d75ef465d3e404,0,100,100,90,1,twoone,,,,,,,,,,,,,,,,,,,,,,,,,,,,,,,,,,,,,,,,,,,,,,,,,,,,,,,,,,,,,,,,,,,,,,,,,,,,,,,,,,,,,,,,,,,,,,,,,,,,,,,,,,,,,,,,,,,,,,,,,,,,,,,,,,,,,,,,,,,,,,,,,,,,,,,,
,,,,,,5e7607c3dec4561735fbc3f2,62bbfab5577dd0fadc318cd7,2022-06-29_10h09.53.683,Colour_Asymmetry_Pilot,2022.1.3,Win32,75.0131273,62bbe60bf3d75ef465d3e404,0,101,101,9,1,onethree,,,,,,,,,,,,,,,,,,,,,,,,,,,,,,,,,,,,,,,,,,,,,,,,,,,,,,,,,,,,,,,,,,,,,,,,,,,,,,,,,,,,,,,,,,,,,,,,,,,,,,,,,,,,,,,,,,,,,,,,,,,,,,,,,,,,,,,,,,,,,,,,,,,,,,,,
,,,,,,5e7607c3dec4561735fbc3f2,62bbfab5577dd0fadc318cd7,2022-06-29_10h09.53.683,Colour_Asymmetry_Pilot,2022.1.3,Win32,75.0131273,62bbe60bf3d75ef465d3e404,0,102,102,35,1,twofour,,,,,,,,,,,,,,,,,,,,,,,,,,,,,,,,,,,,,,,,,,,,,,,,,,,,,,,,,,,,,,,,,,,,,,,,,,,,,,,,,,,,,,,,,,,,,,,,,,,,,,,,,,,,,,,,,,,,,,,,,,,,,,,,,,,,,,,,,,,,,,,,,,,,,,,,
,,,,,,5e7607c3dec4561735fbc3f2,62bbfab5577dd0fadc318cd7,2022-06-29_10h09.53.683,Colour_Asymmetry_Pilot,2022.1.3,Win32,75.0131273,62bbe60bf3d75ef465d3e404,0,103,103,113,1,onethree,,,,,,,,,,,,,,,,,,,,,,,,,,,,,,,,,,,,,,,,,,,,,,,,,,,,,,,,,,,,,,,,,,,,,,,,,,,,,,,,,,,,,,,,,,,,,,,,,,,,,,,,,,,,,,,,,,,,,,,,,,,,,,,,,,,,,,,,,,,,,,,,,,,,,,,,
,,,,,,5e7607c3dec4561735fbc3f2,62bbfab5577dd0fadc318cd7,2022-06-29_10h09.53.683,Colour_Asymmetry_Pilot,2022.1.3,Win32,75.0131273,62bbe60bf3d75ef465d3e404,0,104,104,86,1,fourtwo,,,,,,,,,,,,,,,,,,,,,,,,,,,,,,,,,,,,,,,,,,,,,,,,,,,,,,,,,,,,,,,,,,,,,,,,,,,,,,,,,,,,,,,,,,,,,,,,,,,,,,,,,,,,,,,,,,,,,,,,,,,,,,,,,,,,,,,,,,,,,,,,,,,,,,,,
,,,,,,5e7607c3dec4561735fbc3f2,62bbfab5577dd0fadc318cd7,2022-06-29_10h09.53.683,Colour_Asymmetry_Pilot,2022.1.3,Win32,75.0131273,62bbe60bf3d75ef465d3e404,0,105,105,121,1,onethree,,,,,,,,,,,,,,,,,,,,,,,,,,,,,,,,,,,,,,,,,,,,,,,,,,,,,,,,,,,,,,,,,,,,,,,,,,,,,,,,,,,,,,,,,,,,,,,,,,,,,,,,,,,,,,,,,,,,,,,,,,,,,,,,,,,,,,,,,,,,,,,,,,,,,,,,
,,,,,,5e7607c3dec4561735fbc3f2,62bbfab5577dd0fadc318cd7,2022-06-29_10h09.53.683,Colour_Asymmetry_Pilot,2022.1.3,Win32,75.0131273,62bbe60bf3d75ef465d3e404,0,106,106,137,1,onethree,,,,,,,,,,,,,,,,,,,,,,,,,,,,,,,,,,,,,,,,,,,,,,,,,,,,,,,,,,,,,,,,,,,,,,,,,,,,,,,,,,,,,,,,,,,,,,,,,,,,,,,,,,,,,,,,,,,,,,,,,,,,,,,,,,,,,,,,,,,,,,,,,,,,,,,,
,,,,,,5e7607c3dec4561735fbc3f2,62bbfab5577dd0fadc318cd7,2022-06-29_10h09.53.683,Colour_Asymmetry_Pilot,2022.1.3,Win32,75.0131273,62bbe60bf3d75ef465d3e404,0,107,107,147,1,twofour,,,,,,,,,,,,,,,,,,,,,,,,,,,,,,,,,,,,,,,,,,,,,,,,,,,,,,,,,,,,,,,,,,,,,,,,,,,,,,,,,,,,,,,,,,,,,,,,,,,,,,,,,,,,,,,,,,,,,,,,,,,,,,,,,,,,,,,,,,,,,,,,,,,,,,,,
,,,,,,5e7607c3dec4561735fbc3f2,62bbfab5577dd0fadc318cd7,2022-06-29_10h09.53.683,Colour_Asymmetry_Pilot,2022.1.3,Win32,75.0131273,62bbe60bf3d75ef465d3e404,0,108,108,110,1,fourtwo,,,,,,,,,,,,,,,,,,,,,,,,,,,,,,,,,,,,,,,,,,,,,,,,,,,,,,,,,,,,,,,,,,,,,,,,,,,,,,,,,,,,,,,,,,,,,,,,,,,,,,,,,,,,,,,,,,,,,,,,,,,,,,,,,,,,,,,,,,,,,,,,,,,,,,,,
,,,,,,5e7607c3dec4561735fbc3f2,62bbfab5577dd0fadc318cd7,2022-06-29_10h09.53.683,Colour_Asymmetry_Pilot,2022.1.3,Win32,75.0131273,62bbe60bf3d75ef465d3e404,0,109,109,32,1,onetwo,,,,,,,,,,,,,,,,,,,,,,,,,,,,,,,,,,,,,,,,,,,,,,,,,,,,,,,,,,,,,,,,,,,,,,,,,,,,,,,,,,,,,,,,,,,,,,,,,,,,,,,,,,,,,,,,,,,,,,,,,,,,,,,,,,,,,,,,,,,,,,,,,,,,,,,,
,,,,,,5e7607c3dec4561735fbc3f2,62bbfab5577dd0fadc318cd7,2022-06-29_10h09.53.683,Colour_Asymmetry_Pilot,2022.1.3,Win32,75.0131273,62bbe60bf3d75ef465d3e404,0,110,110,142,1,fourtwo,,,,,,,,,,,,,,,,,,,,,,,,,,,,,,,,,,,,,,,,,,,,,,,,,,,,,,,,,,,,,,,,,,,,,,,,,,,,,,,,,,,,,,,,,,,,,,,,,,,,,,,,,,,,,,,,,,,,,,,,,,,,,,,,,,,,,,,,,,,,,,,,,,,,,,,,
,,,,,,5e7607c3dec4561735fbc3f2,62bbfab5577dd0fadc318cd7,2022-06-29_10h09.53.683,Colour_Asymmetry_Pilot,2022.1.3,Win32,75.0131273,62bbe60bf3d75ef465d3e404,0,111,111,82,1,twoone,,,,,,,,,,,,,,,,,,,,,,,,,,,,,,,,,,,,,,,,,,,,,,,,,,,,,,,,,,,,,,,,,,,,,,,,,,,,,,,,,,,,,,,,,,,,,,,,,,,,,,,,,,,,,,,,,,,,,,,,,,,,,,,,,,,,,,,,,,,,,,,,,,,,,,,,
,,,,,,5e7607c3dec4561735fbc3f2,62bbfab5577dd0fadc318cd7,2022-06-29_10h09.53.683,Colour_Asymmetry_Pilot,2022.1.3,Win32,75.0131273,62bbe60bf3d75ef465d3e404,0,112,112,70,1,fourtwo,,,,,,,,,,,,,,,,,,,,,,,,,,,,,,,,,,,,,,,,,,,,,,,,,,,,,,,,,,,,,,,,,,,,,,,,,,,,,,,,,,,,,,,,,,,,,,,,,,,,,,,,,,,,,,,,,,,,,,,,,,,,,,,,,,,,,,,,,,,,,,,,,,,,,,,,
,,,,,,5e7607c3dec4561735fbc3f2,62bbfab5577dd0fadc318cd7,2022-06-29_10h09.53.683,Colour_Asymmetry_Pilot,2022.1.3,Win32,75.0131273,62bbe60bf3d75ef465d3e404,0,113,113,155,1,twofour,,,,,,,,,,,,,,,,,,,,,,,,,,,,,,,,,,,,,,,,,,,,,,,,,,,,,,,,,,,,,,,,,,,,,,,,,,,,,,,,,,,,,,,,,,,,,,,,,,,,,,,,,,,,,,,,,,,,,,,,,,,,,,,,,,,,,,,,,,,,,,,,,,,,,,,,
,,,,,,5e7607c3dec4561735fbc3f2,62bbfab5577dd0fadc318cd7,2022-06-29_10h09.53.683,Colour_Asymmetry_Pilot,2022.1.3,Win32,75.0131273,62bbe60bf3d75ef465d3e404,0,114,114,87,1,fourthree,,,,,,,,,,,,,,,,,,,,,,,,,,,,,,,,,,,,,,,,,,,,,,,,,,,,,,,,,,,,,,,,,,,,,,,,,,,,,,,,,,,,,,,,,,,,,,,,,,,,,,,,,,,,,,,,,,,,,,,,,,,,,,,,,,,,,,,,,,,,,,,,,,,,,,,,
,,,,,,5e7607c3dec4561735fbc3f2,62bbfab5577dd0fadc318cd7,2022-06-29_10h09.53.683,Colour_Asymmetry_Pilot,2022.1.3,Win32,75.0131273,62bbe60bf3d75ef465d3e404,0,115,115,135,1,fourthree,,,,,,,,,,,,,,,,,,,,,,,,,,,,,,,,,,,,,,,,,,,,,,,,,,,,,,,,,,,,,,,,,,,,,,,,,,,,,,,,,,,,,,,,,,,,,,,,,,,,,,,,,,,,,,,,,,,,,,,,,,,,,,,,,,,,,,,,,,,,,,,,,,,,,,,,
,,,,,,5e7607c3dec4561735fbc3f2,62bbfab5577dd0fadc318cd7,2022-06-29_10h09.53.683,Colour_Asymmetry_Pilot,2022.1.3,Win32,75.0131273,62bbe60bf3d75ef465d3e404,0,116,116,91,1,twofour,,,,,,,,,,,,,,,,,,,,,,,,,,,,,,,,,,,,,,,,,,,,,,,,,,,,,,,,,,,,,,,,,,,,,,,,,,,,,,,,,,,,,,,,,,,,,,,,,,,,,,,,,,,,,,,,,,,,,,,,,,,,,,,,,,,,,,,,,,,,,,,,,,,,,,,,
,,,,,,5e7607c3dec4561735fbc3f2,62bbfab5577dd0fadc318cd7,2022-06-29_10h09.53.683,Colour_Asymmetry_Pilot,2022.1.3,Win32,75.0131273,62bbe60bf3d75ef465d3e404,0,117,117,66,1,twoone,,,,,,,,,,,,,,,,,,,,,,,,,,,,,,,,,,,,,,,,,,,,,,,,,,,,,,,,,,,,,,,,,,,,,,,,,,,,,,,,,,,,,,,,,,,,,,,,,,,,,,,,,,,,,,,,,,,,,,,,,,,,,,,,,,,,,,,,,,,,,,,,,,,,,,,,
,,,,,,5e7607c3dec4561735fbc3f2,62bbfab5577dd0fadc318cd7,2022-06-29_10h09.53.683,Colour_Asymmetry_Pilot,2022.1.3,Win32,75.0131273,62bbe60bf3d75ef465d3e404,0,118,118,64,1,onetwo,,,,,,,,,,,,,,,,,,,,,,,,,,,,,,,,,,,,,,,,,,,,,,,,,,,,,,,,,,,,,,,,,,,,,,,,,,,,,,,,,,,,,,,,,,,,,,,,,,,,,,,,,,,,,,,,,,,,,,,,,,,,,,,,,,,,,,,,,,,,,,,,,,,,,,,,
,,,,,,5e7607c3dec4561735fbc3f2,62bbfab5577dd0fadc318cd7,2022-06-29_10h09.53.683,Colour_Asymmetry_Pilot,2022.1.3,Win32,75.0131273,62bbe60bf3d75ef465d3e404,0,119,119,120,1,onetwo,,,,,,,,,,,,,,,,,,,,,,,,,,,,,,,,,,,,,,,,,,,,,,,,,,,,,,,,,,,,,,,,,,,,,,,,,,,,,,,,,,,,,,,,,,,,,,,,,,,,,,,,,,,,,,,,,,,,,,,,,,,,,,,,,,,,,,,,,,,,,,,,,,,,,,,,
,,,,,,5e7607c3dec4561735fbc3f2,62bbfab5577dd0fadc318cd7,2022-06-29_10h09.53.683,Colour_Asymmetry_Pilot,2022.1.3,Win32,75.0131273,62bbe60bf3d75ef465d3e404,0,120,120,50,1,twoone,,,,,,,,,,,,,,,,,,,,,,,,,,,,,,,,,,,,,,,,,,,,,,,,,,,,,,,,,,,,,,,,,,,,,,,,,,,,,,,,,,,,,,,,,,,,,,,,,,,,,,,,,,,,,,,,,,,,,,,,,,,,,,,,,,,,,,,,,,,,,,,,,,,,,,,,
,,,,,,5e7607c3dec4561735fbc3f2,62bbfab5577dd0fadc318cd7,2022-06-29_10h09.53.683,Colour_Asymmetry_Pilot,2022.1.3,Win32,75.0131273,62bbe60bf3d75ef465d3e404,0,121,121,123,1,twofour,,,,,,,,,,,,,,,,,,,,,,,,,,,,,,,,,,,,,,,,,,,,,,,,,,,,,,,,,,,,,,,,,,,,,,,,,,,,,,,,,,,,,,,,,,,,,,,,,,,,,,,,,,,,,,,,,,,,,,,,,,,,,,,,,,,,,,,,,,,,,,,,,,,,,,,,
,,,,,,5e7607c3dec4561735fbc3f2,62bbfab5577dd0fadc318cd7,2022-06-29_10h09.53.683,Colour_Asymmetry_Pilot,2022.1.3,Win32,75.0131273,62bbe60bf3d75ef465d3e404,0,122,122,88,1,onetwo,,,,,,,,,,,,,,,,,,,,,,,,,,,,,,,,,,,,,,,,,,,,,,,,,,,,,,,,,,,,,,,,,,,,,,,,,,,,,,,,,,,,,,,,,,,,,,,,,,,,,,,,,,,,,,,,,,,,,,,,,,,,,,,,,,,,,,,,,,,,,,,,,,,,,,,,
,,,,,,5e7607c3dec4561735fbc3f2,62bbfab5577dd0fadc318cd7,2022-06-29_10h09.53.683,Colour_Asymmetry_Pilot,2022.1.3,Win32,75.0131273,62bbe60bf3d75ef465d3e404,0,123,123,26,1,twoone,,,,,,,,,,,,,,,,,,,,,,,,,,,,,,,,,,,,,,,,,,,,,,,,,,,,,,,,,,,,,,,,,,,,,,,,,,,,,,,,,,,,,,,,,,,,,,,,,,,,,,,,,,,,,,,,,,,,,,,,,,,,,,,,,,,,,,,,,,,,,,,,,,,,,,,,
,,,,,,5e7607c3dec4561735fbc3f2,62bbfab5577dd0fadc318cd7,2022-06-29_10h09.53.683,Colour_Asymmetry_Pilot,2022.1.3,Win32,75.0131273,62bbe60bf3d75ef465d3e404,0,124,124,79,1,fourthree,,,,,,,,,,,,,,,,,,,,,,,,,,,,,,,,,,,,,,,,,,,,,,,,,,,,,,,,,,,,,,,,,,,,,,,,,,,,,,,,,,,,,,,,,,,,,,,,,,,,,,,,,,,,,,,,,,,,,,,,,,,,,,,,,,,,,,,,,,,,,,,,,,,,,,,,
,,,,,,5e7607c3dec4561735fbc3f2,62bbfab5577dd0fadc318cd7,2022-06-29_10h09.53.683,Colour_Asymmetry_Pilot,2022.1.3,Win32,75.0131273,62bbe60bf3d75ef465d3e404,0,125,125,57,1,onethree,,,,,,,,,,,,,,,,,,,,,,,,,,,,,,,,,,,,,,,,,,,,,,,,,,,,,,,,,,,,,,,,,,,,,,,,,,,,,,,,,,,,,,,,,,,,,,,,,,,,,,,,,,,,,,,,,,,,,,,,,,,,,,,,,,,,,,,,,,,,,,,,,,,,,,,,
,,,,,,5e7607c3dec4561735fbc3f2,62bbfab5577dd0fadc318cd7,2022-06-29_10h09.53.683,Colour_Asymmetry_Pilot,2022.1.3,Win32,75.0131273,62bbe60bf3d75ef465d3e404,0,126,126,65,1,onethree,,,,,,,,,,,,,,,,,,,,,,,,,,,,,,,,,,,,,,,,,,,,,,,,,,,,,,,,,,,,,,,,,,,,,,,,,,,,,,,,,,,,,,,,,,,,,,,,,,,,,,,,,,,,,,,,,,,,,,,,,,,,,,,,,,,,,,,,,,,,,,,,,,,,,,,,
,,,,,,5e7607c3dec4561735fbc3f2,62bbfab5577dd0fadc318cd7,2022-06-29_10h09.53.683,Colour_Asymmetry_Pilot,2022.1.3,Win32,75.0131273,62bbe60bf3d75ef465d3e404,0,127,127,51,1,twofour,,,,,,,,,,,,,,,,,,,,,,,,,,,,,,,,,,,,,,,,,,,,,,,,,,,,,,,,,,,,,,,,,,,,,,,,,,,,,,,,,,,,,,,,,,,,,,,,,,,,,,,,,,,,,,,,,,,,,,,,,,,,,,,,,,,,,,,,,,,,,,,,,,,,,,,,
,,,,,,5e7607c3dec4561735fbc3f2,62bbfab5577dd0fadc318cd7,2022-06-29_10h09.53.683,Colour_Asymmetry_Pilot,2022.1.3,Win32,75.0131273,62bbe60bf3d75ef465d3e404,0,128,128,22,1,fourtwo,,,,,,,,,,,,,,,,,,,,,,,,,,,,,,,,,,,,,,,,,,,,,,,,,,,,,,,,,,,,,,,,,,,,,,,,,,,,,,,,,,,,,,,,,,,,,,,,,,,,,,,,,,,,,,,,,,,,,,,,,,,,,,,,,,,,,,,,,,,,,,,,,,,,,,,,
,,,,,,5e7607c3dec4561735fbc3f2,62bbfab5577dd0fadc318cd7,2022-06-29_10h09.53.683,Colour_Asymmetry_Pilot,2022.1.3,Win32,75.0131273,62bbe60bf3d75ef465d3e404,0,129,129,100,1,threeone,,,,,,,,,,,,,,,,,,,,,,,,,,,,,,,,,,,,,,,,,,,,,,,,,,,,,,,,,,,,,,,,,,,,,,,,,,,,,,,,,,,,,,,,,,,,,,,,,,,,,,,,,,,,,,,,,,,,,,,,,,,,,,,,,,,,,,,,,,,,,,,,,,,,,,,,
,,,,,,5e7607c3dec4561735fbc3f2,62bbfab5577dd0fadc318cd7,2022-06-29_10h09.53.683,Colour_Asymmetry_Pilot,2022.1.3,Win32,75.0131273,62bbe60bf3d75ef465d3e404,0,130,130,118,1,fourtwo,,,,,,,,,,,,,,,,,,,,,,,,,,,,,,,,,,,,,,,,,,,,,,,,,,,,,,,,,,,,,,,,,,,,,,,,,,,,,,,,,,,,,,,,,,,,,,,,,,,,,,,,,,,,,,,,,,,,,,,,,,,,,,,,,,,,,,,,,,,,,,,,,,,,,,,,
,,,,,,5e7607c3dec4561735fbc3f2,62bbfab5577dd0fadc318cd7,2022-06-29_10h09.53.683,Colour_Asymmetry_Pilot,2022.1.3,Win32,75.0131273,62bbe60bf3d75ef465d3e404,0,131,131,102,1,fourtwo,,,,,,,,,,,,,,,,,,,,,,,,,,,,,,,,,,,,,,,,,,,,,,,,,,,,,,,,,,,,,,,,,,,,,,,,,,,,,,,,,,,,,,,,,,,,,,,,,,,,,,,,,,,,,,,,,,,,,,,,,,,,,,,,,,,,,,,,,,,,,,,,,,,,,,,,
,,,,,,5e7607c3dec4561735fbc3f2,62bbfab5577dd0fadc318cd7,2022-06-29_10h09.53.683,Colour_Asymmetry_Pilot,2022.1.3,Win32,75.0131273,62bbe60bf3d75ef465d3e404,0,132,132,45,1,threefour,,,,,,,,,,,,,,,,,,,,,,,,,,,,,,,,,,,,,,,,,,,,,,,,,,,,,,,,,,,,,,,,,,,,,,,,,,,,,,,,,,,,,,,,,,,,,,,,,,,,,,,,,,,,,,,,,,,,,,,,,,,,,,,,,,,,,,,,,,,,,,,,,,,,,,,,
,,,,,,5e7607c3dec4561735fbc3f2,62bbfab5577dd0fadc318cd7,2022-06-29_10h09.53.683,Colour_Asymmetry_Pilot,2022.1.3,Win32,75.0131273,62bbe60bf3d75ef465d3e404,0,133,133,128,1,onetwo,,,,,,,,,,,,,,,,,,,,,,,,,,,,,,,,,,,,,,,,,,,,,,,,,,,,,,,,,,,,,,,,,,,,,,,,,,,,,,,,,,,,,,,,,,,,,,,,,,,,,,,,,,,,,,,,,,,,,,,,,,,,,,,,,,,,,,,,,,,,,,,,,,,,,,,,
,,,,,,5e7607c3dec4561735fbc3f2,62bbfab5577dd0fadc318cd7,2022-06-29_10h09.53.683,Colour_Asymmetry_Pilot,2022.1.3,Win32,75.0131273,62bbe60bf3d75ef465d3e404,0,134,134,76,1,threeone,,,,,,,,,,,,,,,,,,,,,,,,,,,,,,,,,,,,,,,,,,,,,,,,,,,,,,,,,,,,,,,,,,,,,,,,,,,,,,,,,,,,,,,,,,,,,,,,,,,,,,,,,,,,,,,,,,,,,,,,,,,,,,,,,,,,,,,,,,,,,,,,,,,,,,,,
,,,,,,5e7607c3dec4561735fbc3f2,62bbfab5577dd0fadc318cd7,2022-06-29_10h09.53.683,Colour_Asymmetry_Pilot,2022.1.3,Win32,75.0131273,62bbe60bf3d75ef465d3e404,0,135,135,156,1,threeone,,,,,,,,,,,,,,,,,,,,,,,,,,,,,,,,,,,,,,,,,,,,,,,,,,,,,,,,,,,,,,,,,,,,,,,,,,,,,,,,,,,,,,,,,,,,,,,,,,,,,,,,,,,,,,,,,,,,,,,,,,,,,,,,,,,,,,,,,,,,,,,,,,,,,,,,
,,,,,,5e7607c3dec4561735fbc3f2,62bbfab5577dd0fadc318cd7,2022-06-29_10h09.53.683,Colour_Asymmetry_Pilot,2022.1.3,Win32,75.0131273,62bbe60bf3d75ef465d3e404,0,136,136,6,1,fourtwo,,,,,,,,,,,,,,,,,,,,,,,,,,,,,,,,,,,,,,,,,,,,,,,,,,,,,,,,,,,,,,,,,,,,,,,,,,,,,,,,,,,,,,,,,,,,,,,,,,,,,,,,,,,,,,,,,,,,,,,,,,,,,,,,,,,,,,,,,,,,,,,,,,,,,,,,
,,,,,,5e7607c3dec4561735fbc3f2,62bbfab5577dd0fadc318cd7,2022-06-29_10h09.53.683,Colour_Asymmetry_Pilot,2022.1.3,Win32,75.0131273,62bbe60bf3d75ef465d3e404,0,137,137,106,1,twoone,,,,,,,,,,,,,,,,,,,,,,,,,,,,,,,,,,,,,,,,,,,,,,,,,,,,,,,,,,,,,,,,,,,,,,,,,,,,,,,,,,,,,,,,,,,,,,,,,,,,,,,,,,,,,,,,,,,,,,,,,,,,,,,,,,,,,,,,,,,,,,,,,,,,,,,,
,,,,,,5e7607c3dec4561735fbc3f2,62bbfab5577dd0fadc318cd7,2022-06-29_10h09.53.683,Colour_Asymmetry_Pilot,2022.1.3,Win32,75.0131273,62bbe60bf3d75ef465d3e404,0,138,138,15,1,fourthree,,,,,,,,,,,,,,,,,,,,,,,,,,,,,,,,,,,,,,,,,,,,,,,,,,,,,,,,,,,,,,,,,,,,,,,,,,,,,,,,,,,,,,,,,,,,,,,,,,,,,,,,,,,,,,,,,,,,,,,,,,,,,,,,,,,,,,,,,,,,,,,,,,,,,,,,
,,,,,,5e7607c3dec4561735fbc3f2,62bbfab5577dd0fadc318cd7,2022-06-29_10h09.53.683,Colour_Asymmetry_Pilot,2022.1.3,Win32,75.0131273,62bbe60bf3d75ef465d3e404,0,139,139,77,1,threefour,,,,,,,,,,,,,,,,,,,,,,,,,,,,,,,,,,,,,,,,,,,,,,,,,,,,,,,,,,,,,,,,,,,,,,,,,,,,,,,,,,,,,,,,,,,,,,,,,,,,,,,,,,,,,,,,,,,,,,,,,,,,,,,,,,,,,,,,,,,,,,,,,,,,,,,,
,,,,,,5e7607c3dec4561735fbc3f2,62bbfab5577dd0fadc318cd7,2022-06-29_10h09.53.683,Colour_Asymmetry_Pilot,2022.1.3,Win32,75.0131273,62bbe60bf3d75ef465d3e404,0,140,140,12,1,threeone,,,,,,,,,,,,,,,,,,,,,,,,,,,,,,,,,,,,,,,,,,,,,,,,,,,,,,,,,,,,,,,,,,,,,,,,,,,,,,,,,,,,,,,,,,,,,,,,,,,,,,,,,,,,,,,,,,,,,,,,,,,,,,,,,,,,,,,,,,,,,,,,,,,,,,,,
,,,,,,5e7607c3dec4561735fbc3f2,62bbfab5577dd0fadc318cd7,2022-06-29_10h09.53.683,Colour_Asymmetry_Pilot,2022.1.3,Win32,75.0131273,62bbe60bf3d75ef465d3e404,0,141,141,49,1,onethree,,,,,,,,,,,,,,,,,,,,,,,,,,,,,,,,,,,,,,,,,,,,,,,,,,,,,,,,,,,,,,,,,,,,,,,,,,,,,,,,,,,,,,,,,,,,,,,,,,,,,,,,,,,,,,,,,,,,,,,,,,,,,,,,,,,,,,,,,,,,,,,,,,,,,,,,
,,,,,,5e7607c3dec4561735fbc3f2,62bbfab5577dd0fadc318cd7,2022-06-29_10h09.53.683,Colour_Asymmetry_Pilot,2022.1.3,Win32,75.0131273,62bbe60bf3d75ef465d3e404,0,142,142,130,1,twoone,,,,,,,,,,,,,,,,,,,,,,,,,,,,,,,,,,,,,,,,,,,,,,,,,,,,,,,,,,,,,,,,,,,,,,,,,,,,,,,,,,,,,,,,,,,,,,,,,,,,,,,,,,,,,,,,,,,,,,,,,,,,,,,,,,,,,,,,,,,,,,,,,,,,,,,,
,,,,,,5e7607c3dec4561735fbc3f2,62bbfab5577dd0fadc318cd7,2022-06-29_10h09.53.683,Colour_Asymmetry_Pilot,2022.1.3,Win32,75.0131273,62bbe60bf3d75ef465d3e404,0,143,143,5,1,threefour,,,,,,,,,,,,,,,,,,,,,,,,,,,,,,,,,,,,,,,,,,,,,,,,,,,,,,,,,,,,,,,,,,,,,,,,,,,,,,,,,,,,,,,,,,,,,,,,,,,,,,,,,,,,,,,,,,,,,,,,,,,,,,,,,,,,,,,,,,,,,,,,,,,,,,,,
,,,,,,5e7607c3dec4561735fbc3f2,62bbfab5577dd0fadc318cd7,2022-06-29_10h09.53.683,Colour_Asymmetry_Pilot,2022.1.3,Win32,75.0131273,62bbe60bf3d75ef465d3e404,0,144,144,131,1,twofour,,,,,,,,,,,,,,,,,,,,,,,,,,,,,,,,,,,,,,,,,,,,,,,,,,,,,,,,,,,,,,,,,,,,,,,,,,,,,,,,,,,,,,,,,,,,,,,,,,,,,,,,,,,,,,,,,,,,,,,,,,,,,,,,,,,,,,,,,,,,,,,,,,,,,,,,
,,,,,,5e7607c3dec4561735fbc3f2,62bbfab5577dd0fadc318cd7,2022-06-29_10h09.53.683,Colour_Asymmetry_Pilot,2022.1.3,Win32,75.0131273,62bbe60bf3d75ef465d3e404,0,145,145,62,1,fourtwo,,,,,,,,,,,,,,,,,,,,,,,,,,,,,,,,,,,,,,,,,,,,,,,,,,,,,,,,,,,,,,,,,,,,,,,,,,,,,,,,,,,,,,,,,,,,,,,,,,,,,,,,,,,,,,,,,,,,,,,,,,,,,,,,,,,,,,,,,,,,,,,,,,,,,,,,
,,,,,,5e7607c3dec4561735fbc3f2,62bbfab5577dd0fadc318cd7,2022-06-29_10h09.53.683,Colour_Asymmetry_Pilot,2022.1.3,Win32,75.0131273,62bbe60bf3d75ef465d3e404,0,146,146,127,1,fourthree,,,,,,,,,,,,,,,,,,,,,,,,,,,,,,,,,,,,,,,,,,,,,,,,,,,,,,,,,,,,,,,,,,,,,,,,,,,,,,,,,,,,,,,,,,,,,,,,,,,,,,,,,,,,,,,,,,,,,,,,,,,,,,,,,,,,,,,,,,,,,,,,,,,,,,,,
,,,,,,5e7607c3dec4561735fbc3f2,62bbfab5577dd0fadc318cd7,2022-06-29_10h09.53.683,Colour_Asymmetry_Pilot,2022.1.3,Win32,75.0131273,62bbe60bf3d75ef465d3e404,0,147,147,92,1,threeone,,,,,,,,,,,,,,,,,,,,,,,,,,,,,,,,,,,,,,,,,,,,,,,,,,,,,,,,,,,,,,,,,,,,,,,,,,,,,,,,,,,,,,,,,,,,,,,,,,,,,,,,,,,,,,,,,,,,,,,,,,,,,,,,,,,,,,,,,,,,,,,,,,,,,,,,
,,,,,,5e7607c3dec4561735fbc3f2,62bbfab5577dd0fadc318cd7,2022-06-29_10h09.53.683,Colour_Asymmetry_Pilot,2022.1.3,Win32,75.0131273,62bbe60bf3d75ef465d3e404,0,148,148,109,1,threefour,,,,,,,,,,,,,,,,,,,,,,,,,,,,,,,,,,,,,,,,,,,,,,,,,,,,,,,,,,,,,,,,,,,,,,,,,,,,,,,,,,,,,,,,,,,,,,,,,,,,,,,,,,,,,,,,,,,,,,,,,,,,,,,,,,,,,,,,,,,,,,,,,,,,,,,,
,,,,,,5e7607c3dec4561735fbc3f2,62bbfab5577dd0fadc318cd7,2022-06-29_10h09.53.683,Colour_Asymmetry_Pilot,2022.1.3,Win32,75.0131273,62bbe60bf3d75ef465d3e404,0,149,149,84,1,threeone,,,,,,,,,,,,,,,,,,,,,,,,,,,,,,,,,,,,,,,,,,,,,,,,,,,,,,,,,,,,,,,,,,,,,,,,,,,,,,,,,,,,,,,,,,,,,,,,,,,,,,,,,,,,,,,,,,,,,,,,,,,,,,,,,,,,,,,,,,,,,,,,,,,,,,,,
,,,,,,5e7607c3dec4561735fbc3f2,62bbfab5577dd0fadc318cd7,2022-06-29_10h09.53.683,Colour_Asymmetry_Pilot,2022.1.3,Win32,75.0131273,62bbe60bf3d75ef465d3e404,0,150,150,16,1,onetwo,,,,,,,,,,,,,,,,,,,,,,,,,,,,,,,,,,,,,,,,,,,,,,,,,,,,,,,,,,,,,,,,,,,,,,,,,,,,,,,,,,,,,,,,,,,,,,,,,,,,,,,,,,,,,,,,,,,,,,,,,,,,,,,,,,,,,,,,,,,,,,,,,,,,,,,,
,,,,,,5e7607c3dec4561735fbc3f2,62bbfab5577dd0fadc318cd7,2022-06-29_10h09.53.683,Colour_Asymmetry_Pilot,2022.1.3,Win32,75.0131273,62bbe60bf3d75ef465d3e404,0,151,151,71,1,fourthree,,,,,,,,,,,,,,,,,,,,,,,,,,,,,,,,,,,,,,,,,,,,,,,,,,,,,,,,,,,,,,,,,,,,,,,,,,,,,,,,,,,,,,,,,,,,,,,,,,,,,,,,,,,,,,,,,,,,,,,,,,,,,,,,,,,,,,,,,,,,,,,,,,,,,,,,
,,,,,,5e7607c3dec4561735fbc3f2,62bbfab5577dd0fadc318cd7,2022-06-29_10h09.53.683,Colour_Asymmetry_Pilot,2022.1.3,Win32,75.0131273,62bbe60bf3d75ef465d3e404,0,152,152,41,1,onethree,,,,,,,,,,,,,,,,,,,,,,,,,,,,,,,,,,,,,,,,,,,,,,,,,,,,,,,,,,,,,,,,,,,,,,,,,,,,,,,,,,,,,,,,,,,,,,,,,,,,,,,,,,,,,,,,,,,,,,,,,,,,,,,,,,,,,,,,,,,,,,,,,,,,,,,,
,,,,,,5e7607c3dec4561735fbc3f2,62bbfab5577dd0fadc318cd7,2022-06-29_10h09.53.683,Colour_Asymmetry_Pilot,2022.1.3,Win32,75.0131273,62bbe60bf3d75ef465d3e404,0,153,153,56,1,onetwo,,,,,,,,,,,,,,,,,,,,,,,,,,,,,,,,,,,,,,,,,,,,,,,,,,,,,,,,,,,,,,,,,,,,,,,,,,,,,,,,,,,,,,,,,,,,,,,,,,,,,,,,,,,,,,,,,,,,,,,,,,,,,,,,,,,,,,,,,,,,,,,,,,,,,,,,
,,,,,,5e7607c3dec4561735fbc3f2,62bbfab5577dd0fadc318cd7,2022-06-29_10h09.53.683,Colour_Asymmetry_Pilot,2022.1.3,Win32,75.0131273,62bbe60bf3d75ef465d3e404,0,154,154,44,1,threeone,,,,,,,,,,,,,,,,,,,,,,,,,,,,,,,,,,,,,,,,,,,,,,,,,,,,,,,,,,,,,,,,,,,,,,,,,,,,,,,,,,,,,,,,,,,,,,,,,,,,,,,,,,,,,,,,,,,,,,,,,,,,,,,,,,,,,,,,,,,,,,,,,,,,,,,,
,,,,,,5e7607c3dec4561735fbc3f2,62bbfab5577dd0fadc318cd7,2022-06-29_10h09.53.683,Colour_Asymmetry_Pilot,2022.1.3,Win32,75.0131273,62bbe60bf3d75ef465d3e404,0,155,155,112,1,onetwo,,,,,,,,,,,,,,,,,,,,,,,,,,,,,,,,,,,,,,,,,,,,,,,,,,,,,,,,,,,,,,,,,,,,,,,,,,,,,,,,,,,,,,,,,,,,,,,,,,,,,,,,,,,,,,,,,,,,,,,,,,,,,,,,,,,,,,,,,,,,,,,,,,,,,,,,
,,,,,,5e7607c3dec4561735fbc3f2,62bbfab5577dd0fadc318cd7,2022-06-29_10h09.53.683,Colour_Asymmetry_Pilot,2022.1.3,Win32,75.0131273,62bbe60bf3d75ef465d3e404,0,156,156,1,1,onethree,,,,,,,,,,,,,,,,,,,,,,,,,,,,,,,,,,,,,,,,,,,,,,,,,,,,,,,,,,,,,,,,,,,,,,,,,,,,,,,,,,,,,,,,,,,,,,,,,,,,,,,,,,,,,,,,,,,,,,,,,,,,,,,,,,,,,,,,,,,,,,,,,,,,,,,,
,,,,,,5e7607c3dec4561735fbc3f2,62bbfab5577dd0fadc318cd7,2022-06-29_10h09.53.683,Colour_Asymmetry_Pilot,2022.1.3,Win32,75.0131273,62bbe60bf3d75ef465d3e404,0,157,157,158,1,fourtwo,,,,,,,,,,,,,,,,,,,,,,,,,,,,,,,,,,,,,,,,,,,,,,,,,,,,,,,,,,,,,,,,,,,,,,,,,,,,,,,,,,,,,,,,,,,,,,,,,,,,,,,,,,,,,,,,,,,,,,,,,,,,,,,,,,,,,,,,,,,,,,,,,,,,,,,,
,,,,,,5e7607c3dec4561735fbc3f2,62bbfab5577dd0fadc318cd7,2022-06-29_10h09.53.683,Colour_Asymmetry_Pilot,2022.1.3,Win32,75.0131273,62bbe60bf3d75ef465d3e404,0,158,158,11,1,twofour,,,,,,,,,,,,,,,,,,,,,,,,,,,,,,,,,,,,,,,,,,,,,,,,,,,,,,,,,,,,,,,,,,,,,,,,,,,,,,,,,,,,,,,,,,,,,,,,,,,,,,,,,,,,,,,,,,,,,,,,,,,,,,,,,,,,,,,,,,,,,,,,,,,,,,,,
,,,,,,5e7607c3dec4561735fbc3f2,62bbfab5577dd0fadc318cd7,2022-06-29_10h09.53.683,Colour_Asymmetry_Pilot,2022.1.3,Win32,75.0131273,62bbe60bf3d75ef465d3e404,0,159,159,145,1,onethree,,,,,,,,,,,,,,,,,,,,,,,,,,,,,,,,,,,,,,,,,,,,,,,,,,,,,,,,,,,,,,,,,,,,,,,,,,,,,,,,,,,,,,,,,,,,,,,,,,,,,,,,,,,,,,,,,,,,,,,,,,,,,,,,,,,,,,,,,,,,,,,,,,,,,,,,
,,,,,,5e7607c3dec4561735fbc3f2,62bbfab5577dd0fadc318cd7,2022-06-29_10h09.53.683,Colour_Asymmetry_Pilot,2022.1.3,Win32,75.0131273,62bbe60bf3d75ef465d3e404,0,160,160,19,1,twofour,,,,,,,,,,,,,,,,,,,,,,,,,,,,,,,,,,,,,,,,,,,,,,,,,,,,,,,,,,,,,,,,,,,,,,,,,,,,,,,,,,,,,,,,,,,,,,,,,,,,,,,,,,,,,,,,,,,,,,,,,,,,,,,,,,,,,,,,,,,,,,,,,,,,,,,,
,,,,,,5e7607c3dec4561735fbc3f2,62bbfab5577dd0fadc318cd7,2022-06-29_10h09.53.683,Colour_Asymmetry_Pilot,2022.1.3,Win32,75.0131273,62bbe60bf3d75ef465d3e404,0,161,161,98,1,twoone,,,,,,,,,,,,,,,,,,,,,,,,,,,,,,,,,,,,,,,,,,,,,,,,,,,,,,,,,,,,,,,,,,,,,,,,,,,,,,,,,,,,,,,,,,,,,,,,,,,,,,,,,,,,,,,,,,,,,,,,,,,,,,,,,,,,,,,,,,,,,,,,,,,,,,,,
,,,,,,5e7607c3dec4561735fbc3f2,62bbfab5577dd0fadc318cd7,2022-06-29_10h09.53.683,Colour_Asymmetry_Pilot,2022.1.3,Win32,75.0131273,62bbe60bf3d75ef465d3e404,,,,,,,space,4.9803,space,27.206,space,370.0162,space,18.1669,space,19.0934,space,5.1445,"[-0.26280000000000003,-0.4746,-0.2158]",twofour,"[1,0.12939999999999996,-1]",-4,9.5105,-44,78,1,0,0,response7disk_5,-2,-7,1,0,0,rectangle_8,-2,-7,1,0,0,3,-2,-7,1,0,0,0,0,0,0,1,,,,,,,,,,,,,,,,,,,,,,,,,,,,,,,,,,,,,,,,,,,,,,,,,,,,,,,,,,,,,,,,,,,,,,,,,,,,,,,,,,,,,,,,,,,,,,,,,,,,,,,,,,,
,,,,,,5e7607c3dec4561735fbc3f2,62bbfab5577dd0fadc318cd7,2022-06-29_10h09.53.683,Colour_Asymmetry_Pilot,2022.1.3,Win32,75.0131273,62bbe60bf3d75ef465d3e404,,,,,,,,,,,,,,,,,,,"[0.19199999999999995,0.18419999999999992,0.5136000000000001]",threefour,"[-0.07459999999999989,0.12139999999999995,-0.9922]",-3,12.4045,-62,28,1,0,0,response7disk_5,5,9,1,0,0,rectangle_8,5,9,1,0,0,3,5,9,1,0,0,1,0,1,0,1,,,,,,,,,,,,,,,,,,,,,,,,,,,,,,,,,,,,,,,,,,,,,,,,,,,,,,,,,,,,,,,,,,,,,,,,,,,,,,,,,,,,,,,,,,,,,,,,,,,,,,,,,,,
,,,,,,5e7607c3dec4561735fbc3f2,62bbfab5577dd0fadc318cd7,2022-06-29_10h09.53.683,Colour_Asymmetry_Pilot,2022.1.3,Win32,75.0131273,62bbe60bf3d75ef465d3e404,,,,,,,,,,,,,,,,,,,"[-0.8982,-0.37259999999999993,0.2784]",threefour,"[-0.45899999999999996,-0.3256,-0.9374]",-4,3.9348,-40,65,1,0,0,response7disk_5,-19,-4,1,0,0,rectangle_8,-19,-4,1,0,0,3,-19,-4,1,0,0,2,0,2,0,1,,,,,,,,,,,,,,,,,,,,,,,,,,,,,,,,,,,,,,,,,,,,,,,,,,,,,,,,,,,,,,,,,,,,,,,,,,,,,,,,,,,,,,,,,,,,,,,,,,,,,,,,,,,
,,,,,,5e7607c3dec4561735fbc3f2,62bbfab5577dd0fadc318cd7,2022-06-29_10h09.53.683,Colour_Asymmetry_Pilot,2022.1.3,Win32,75.0131273,62bbe60bf3d75ef465d3e404,,,,,,,,,,,,,,,,,,,"[0.37240000000000006,-0.050999999999999934,-0.5216]",threefour,"[-0.26280000000000003,-0.2158,-0.3256]",-3,1.1605,-65,28,1,0,0,response7disk_5,5,1,1,0,0,rectangle_8,5,1,1,0,0,3,5,1,1,0,0,3,0,3,0,1,,,,,,,,,,,,,,,,,,,,,,,,,,,,,,,,,,,,,,,,,,,,,,,,,,,,,,,,,,,,,,,,,,,,,,,,,,,,,,,,,,,,,,,,,,,,,,,,,,,,,,,,,,,
,,,,,,5e7607c3dec4561735fbc3f2,62bbfab5577dd0fadc318cd7,2022-06-29_10h09.53.683,Colour_Asymmetry_Pilot,2022.1.3,Win32,75.0131273,62bbe60bf3d75ef465d3e404,,,,,,,,,,,,,,,,,,,"[-0.9296,-0.12959999999999994,-0.043199999999999905]",onetwo,"[-0.45899999999999996,-0.3256,-0.9374]",-3,3.4813,-44,23,1,0,0,response7disk_5,-17,2,1,0,0,rectangle_8,-17,2,1,0,0,3,-17,2,1,0,0,4,0,4,0,1,,,,,,,,,,,,,,,,,,,,,,,,,,,,,,,,,,,,,,,,,,,,,,,,,,,,,,,,,,,,,,,,,,,,,,,,,,,,,,,,,,,,,,,,,,,,,,,,,,,,,,,,,,,
,,,,,,5e7607c3dec4561735fbc3f2,62bbfab5577dd0fadc318cd7,2022-06-29_10h09.53.683,Colour_Asymmetry_Pilot,2022.1.3,Win32,75.0131273,62bbe60bf3d75ef465d3e404,,,,,,,,,,,,,,,,,,,"[0.796,0.2156,-0.27859999999999996]",fourtwo,"[0.18419999999999992,-0.4276,-0.404]",-3,4.3083,-44,25,1,0,0,response7disk_5,-5,8,1,0,0,rectangle_8,97,33,1,0,0,3,-26,-12,1,0,0,5,0,5,0,1,response1disk_7,6,rectangle_4,,,,,,,,,,,,,,,,,,,,,,,,,,,,,,,,,,,,,,,,,,,,,,,,,,,,,,,,,,,,,,,,,,,,,,,,,,,,,,,,,,,,,,,,,,,,,,,,,,,,,,,,
,,,,,,5e7607c3dec4561735fbc3f2,62bbfab5577dd0fadc318cd7,2022-06-29_10h09.53.683,Colour_Asymmetry_Pilot,2022.1.3,Win32,75.0131273,62bbe60bf3d75ef465d3e404,,,,,,,,,,,,,,,,,,,"[-0.4668,-0.8746,-0.2942]",fourthree,"[0.23920000000000008,0.2704,0.16060000000000008]",-4,1.654,-34,46,1,0,0,response7disk_5,4,-4,1,0,0,rectangle_8,4,-4,1,0,0,3,4,-4,1,0,0,6,0,6,0,1,,,,,,,,,,,,,,,,,,,,,,,,,,,,,,,,,,,,,,,,,,,,,,,,,,,,,,,,,,,,,,,,,,,,,,,,,,,,,,,,,,,,,,,,,,,,,,,,,,,,,,,,,,,
,,,,,,5e7607c3dec4561735fbc3f2,62bbfab5577dd0fadc318cd7,2022-06-29_10h09.53.683,Colour_Asymmetry_Pilot,2022.1.3,Win32,75.0131273,62bbe60bf3d75ef465d3e404,,,,,,,,,,,,,,,,,,,,fourthree,,-4,8.4169,,,,,,,,,,,,,,,,,,,,,,,,,,,,,,,,space,21.3034,"[-0.20799999999999996,-0.655,-0.01980000000000004]","[0.37240000000000006,-0.050999999999999934,-0.5216]",-44,63,1,0,0,response7disk,16,3,1,0,0,rectangle,16,3,1,0,0,,3,0.0006,0,16,3,1,0,0,0,0,0,118,1,37,second,,,,,,,,,,,,,,,,,,,,,,,,,,,,,,,,,,,,,,,,,,,,,,,,,,,,,,,,,,,,,,,,,,,
,,,,,,5e7607c3dec4561735fbc3f2,62bbfab5577dd0fadc318cd7,2022-06-29_10h09.53.683,Colour_Asymmetry_Pilot,2022.1.3,Win32,75.0131273,62bbe60bf3d75ef465d3e404,,,,,,,,,,,,,,,,,,,,onethree,,-4,2.1609,,,,,,,,,,,,,,,,,,,,,,,,,,,,,,,,,,"[0.4196,0.4665999999999999,0.3568]","[-0.38039999999999996,-0.4276,-0.1452]",-34,50,1,0,0,response7disk,6,-1,1,0,0,rectangle,6,-1,1,0,0,,1,0.0004,0,6,-1,1,0,0,0,1,1,46,1,46,first,,,,,,,,,,,,,,,,,,,,,,,,,,,,,,,,,,,,,,,,,,,,,,,,,,,,,,,,,,,,,,,,,,,
,,,,,,5e7607c3dec4561735fbc3f2,62bbfab5577dd0fadc318cd7,2022-06-29_10h09.53.683,Colour_Asymmetry_Pilot,2022.1.3,Win32,75.0131273,62bbe60bf3d75ef465d3e404,,,,,,,,,,,,,,,,,,,,fourthree,,-4,2.4009,,,,,,,,,,,,,,,,,,,,,,,,,,,,,,,,,,"[-0.5922000000000001,-0.7492000000000001,-0.5296000000000001]","[0.5528,0.7409999999999999,-0.71]",-39,57,1,0,0,response7disk,-7,1,1,0,0,rectangle,-7,1,1,0,0,,3,0.0004,0,-7,1,1,0,0,0,2,2,68,1,68,first,,,,,,,,,,,,,,,,,,,,,,,,,,,,,,,,,,,,,,,,,,,,,,,,,,,,,,,,,,,,,,,,,,,
,,,,,,5e7607c3dec4561735fbc3f2,62bbfab5577dd0fadc318cd7,2022-06-29_10h09.53.683,Colour_Asymmetry_Pilot,2022.1.3,Win32,75.0131273,62bbe60bf3d75ef465d3e404,,,,,,,,,,,,,,,,,,,,threeone,,-4,1.614,,,,,,,,,,,,,,,,,,,,,,,,,,,,,,,,,,"[0.05879999999999996,0.2784,0.5841999999999998]","[-0.4276,0.0038000000000000256,-0.3256]",-29,48,1,0,0,response7disk,-2,4,1,0,0,rectangle,-2,4,1,0,0,,2,0.0004,0,-2,4,1,0,0,0,3,3,119,1,38,second,,,,,,,,,,,,,,,,,,,,,,,,,,,,,,,,,,,,,,,,,,,,,,,,,,,,,,,,,,,,,,,,,,,
,,,,,,5e7607c3dec4561735fbc3f2,62bbfab5577dd0fadc318cd7,2022-06-29_10h09.53.683,Colour_Asymmetry_Pilot,2022.1.3,Win32,75.0131273,62bbe60bf3d75ef465d3e404,,,,,,,,,,,,,,,,,,,,threefour,,-3,0.8671,,,,,,,,,,,,,,,,,,,,,,,,,,,,,,,,,,"[0.11359999999999992,0.6312,0.5213999999999999]","[-0.8198,-0.5138,-0.7492000000000001]",-54,33,1,0,0,response7disk,22,7,1,0,0,rectangle,22,7,1,0,0,,1,0.0003,0,22,7,1,0,0,0,4,4,30,1,30,first,,,,,,,,,,,,,,,,,,,,,,,,,,,,,,,,,,,,,,,,,,,,,,,,,,,,,,,,,,,,,,,,,,,
,,,,,,5e7607c3dec4561735fbc3f2,62bbfab5577dd0fadc318cd7,2022-06-29_10h09.53.683,Colour_Asymmetry_Pilot,2022.1.3,Win32,75.0131273,62bbe60bf3d75ef465d3e404,,,,,,,,,,,,,,,,,,,,fourthree,,3,5.1885,,,,,,,,,,,,,,,,,,,,,,,,,,,,,,,,,,"[-0.9688,-0.7412000000000001,-0.4902000000000001]","[-0.5452,-0.608,0.2470000000000001]",69,23,1,0,0,response1disk,1,-1,1,0,0,rectangle,1,-1,1,0,0,,2,0.0004,0,1,-1,1,0,0,0,5,5,79,1,79,first,,,,,,,,,,,,,,,,,,,,,,,,,,,,,,,,,,,,,,,,,,,,,,,,,,,,,,,,,,,,,,,,,,,
,,,,,,5e7607c3dec4561735fbc3f2,62bbfab5577dd0fadc318cd7,2022-06-29_10h09.53.683,Colour_Asymmetry_Pilot,2022.1.3,Win32,75.0131273,62bbe60bf3d75ef465d3e404,,,,,,,,,,,,,,,,,,,,onethree,,-4,2.0809,,,,,,,,,,,,,,,,,,,,,,,,,,,,,,,,,,"[0.9763999999999999,0.30979999999999985,-0.6786]","[-0.9688,-0.7412000000000001,-0.4902000000000001]",-24,51,1,0,0,response7disk,3,5,1,0,0,rectangle,3,5,1,0,0,,3,0.0004,0,3,5,1,0,0,0,6,6,110,1,29,second,,,,,,,,,,,,,,,,,,,,,,,,,,,,,,,,,,,,,,,,,,,,,,,,,,,,,,,,,,,,,,,,,,,
,,,,,,5e7607c3dec4561735fbc3f2,62bbfab5577dd0fadc318cd7,2022-06-29_10h09.53.683,Colour_Asymmetry_Pilot,2022.1.3,Win32,75.0131273,62bbe60bf3d75ef465d3e404,,,,,,,,,,,,,,,,,,,,fourtwo,,-2,2.1209,,,,,,,,,,,,,,,,,,,,,,,,,,,,,,,,,,"[0.11359999999999992,0.6312,0.5213999999999999]","[-0.38039999999999996,-0.4276,-0.1452]",-31,-17,1,0,0,response5disk,0,1,1,0,0,rectangle,0,1,1,0,0,,3,1E-04,0,0,1,1,0,0,0,7,7,52,1,52,first,,,,,,,,,,,,,,,,,,,,,,,,,,,,,,,,,,,,,,,,,,,,,,,,,,,,,,,,,,,,,,,,,,,
,,,,,,5e7607c3dec4561735fbc3f2,62bbfab5577dd0fadc318cd7,2022-06-29_10h09.53.683,Colour_Asymmetry_Pilot,2022.1.3,Win32,75.0131273,62bbe60bf3d75ef465d3e404,,,,,,,,,,,,,,,,,,,,twofour,,-3,1.1071,,,,,,,,,,,,,,,,,,,,,,,,,,,,,,,,,,"[-0.9688,-0.38039999999999996,-0.41979999999999995]","[0.40379999999999994,0.09000000000000008,0.44300000000000006]",-63,44,1,0,0,response7disk,3,7,1,0,0,rectangle,3,7,1,0,0,,3,0.0001,0,3,7,1,0,0,0,8,8,154,1,73,second,,,,,,,,,,,,,,,,,,,,,,,,,,,,,,,,,,,,,,,,,,,,,,,,,,,,,,,,,,,,,,,,,,,
,,,,,,5e7607c3dec4561735fbc3f2,62bbfab5577dd0fadc318cd7,2022-06-29_10h09.53.683,Colour_Asymmetry_Pilot,2022.1.3,Win32,75.0131273,62bbe60bf3d75ef465d3e404,,,,,,,,,,,,,,,,,,,,threefour,,-4,0.7071,,,,,,,,,,,,,,,,,,,,,,,,,,,,,,,,,,"[-0.9766,-0.34920000000000007,0.2156]","[0.3568,-0.20799999999999996,-0.9844]",-23,47,1,0,0,response7disk,-3,8,1,0,0,rectangle,-3,8,1,0,0,,2,0.0005,0,-3,8,1,0,0,0,9,9,20,1,20,first,,,,,,,,,,,,,,,,,,,,,,,,,,,,,,,,,,,,,,,,,,,,,,,,,,,,,,,,,,,,,,,,,,,
,,,,,,5e7607c3dec4561735fbc3f2,62bbfab5577dd0fadc318cd7,2022-06-29_10h09.53.683,Colour_Asymmetry_Pilot,2022.1.3,Win32,75.0131273,62bbe60bf3d75ef465d3e404,,,,,,,,,,,,,,,,,,,,threeone,,-3,0.5869,,,,,,,,,,,,,,,,,,,,,,,,,,,,,,,,,,"[-0.6,0.16860000000000008,0.44300000000000006]","[0.9372,0.20779999999999998,0.2704]",-44,24,1,0,0,response7disk,-21,11,1,0,0,rectangle,-21,11,1,0,0,,3,0.0005,0,-21,11,1,0,0,0,10,10,91,1,10,second,,,,,,,,,,,,,,,,,,,,,,,,,,,,,,,,,,,,,,,,,,,,,,,,,,,,,,,,,,,,,,,,,,,
,,,,,,5e7607c3dec4561735fbc3f2,62bbfab5577dd0fadc318cd7,2022-06-29_10h09.53.683,Colour_Asymmetry_Pilot,2022.1.3,Win32,75.0131273,62bbe60bf3d75ef465d3e404,,,,,,,,,,,,,,,,,,,,twofour,,-4,0.6136,,,,,,,,,,,,,,,,,,,,,,,,,,,,,,,,,,"[-0.8118,-0.8198,-0.5452]","[0.7176,-0.906,-0.6864]",-41,67,1,0,0,response7disk,-10,11,1,0,0,rectangle,-10,11,1,0,0,,3,0,0,-10,11,1,0,0,0,11,11,105,1,24,second,,,,,,,,,,,,,,,,,,,,,,,,,,,,,,,,,,,,,,,,,,,,,,,,,,,,,,,,,,,,,,,,,,,
,,,,,,5e7607c3dec4561735fbc3f2,62bbfab5577dd0fadc318cd7,2022-06-29_10h09.53.683,Colour_Asymmetry_Pilot,2022.1.3,Win32,75.0131273,62bbe60bf3d75ef465d3e404,,,,,,,,,,,,,,,,,,,,twoone,,-4,1.8541,,,,,,,,,,,,,,,,,,,,,,,,,,,,,,,,,,"[-0.9844,-0.9688,-0.9922]","[0.05879999999999996,0.2784,0.5841999999999998]",-30,50,1,0,0,response7disk,-6,13,1,0,0,rectangle,-6,13,1,0,0,,3,0,0,-6,13,1,0,0,0,12,12,62,1,62,first,,,,,,,,,,,,,,,,,,,,,,,,,,,,,,,,,,,,,,,,,,,,,,,,,,,,,,,,,,,,,,,,,,,
,,,,,,5e7607c3dec4561735fbc3f2,62bbfab5577dd0fadc318cd7,2022-06-29_10h09.53.683,Colour_Asymmetry_Pilot,2022.1.3,Win32,75.0131273,62bbe60bf3d75ef465d3e404,,,,,,,,,,,,,,,,,,,,onetwo,,-4,0.8937,,,,,,,,,,,,,,,,,,,,,,,,,,,,,,,,,,"[0.9372,0.9450000000000001,0.8980000000000001]","[-0.9138,-0.5296000000000001,-0.5529999999999999]",-38,62,1,0,0,response7disk,-15,10,1,0,0,rectangle,-15,10,1,0,0,,2,0.0004,0,-15,10,1,0,0,0,13,13,9,1,9,first,,,,,,,,,,,,,,,,,,,,,,,,,,,,,,,,,,,,,,,,,,,,,,,,,,,,,,,,,,,,,,,,,,,
,,,,,,5e7607c3dec4561735fbc3f2,62bbfab5577dd0fadc318cd7,2022-06-29_10h09.53.683,Colour_Asymmetry_Pilot,2022.1.3,Win32,75.0131273,62bbe60bf3d75ef465d3e404,,,,,,,,,,,,,,,,,,,,twofour,,-3,0.7469,,,,,,,,,,,,,,,,,,,,,,,,,,,,,,,,,,"[-0.09019999999999995,0.44300000000000006,0.5371999999999999]","[0.23120000000000007,-0.7726,-0.34120000000000006]",-44,31,1,0,0,response7disk,-6,0,1,0,0,rectangle,-6,0,1,0,0,,3,0.0004,0,-6,0,1,0,0,0,14,14,114,1,33,second,,,,,,,,,,,,,,,,,,,,,,,,,,,,,,,,,,,,,,,,,,,,,,,,,,,,,,,,,,,,,,,,,,,
,,,,,,5e7607c3dec4561735fbc3f2,62bbfab5577dd0fadc318cd7,2022-06-29_10h09.53.683,Colour_Asymmetry_Pilot,2022.1.3,Win32,75.0131273,62bbe60bf3d75ef465d3e404,,,,,,,,,,,,,,,,,,,,fourtwo,,3,2.1741,,,,,,,,,,,,,,,,,,,,,,,,,,,,,,,,,,"[0.12939999999999996,-0.2864,0.3253999999999999]","[0.19199999999999995,0.18419999999999992,0.5136000000000001]",64,26,1,0,0,response1disk,-3,2,1,0,0,rectangle,-3,2,1,0,0,,2,0.0004,0,-3,2,1,0,0,0,15,15,3,1,3,first,,,,,,,,,,,,,,,,,,,,,,,,,,,,,,,,,,,,,,,,,,,,,,,,,,,,,,,,,,,,,,,,,,,
,,,,,,5e7607c3dec4561735fbc3f2,62bbfab5577dd0fadc318cd7,2022-06-29_10h09.53.683,Colour_Asymmetry_Pilot,2022.1.3,Win32,75.0131273,62bbe60bf3d75ef465d3e404,,,,,,,,,,,,,,,,,,,,onetwo,,3,2.4008,,,,,,,,,,,,,,,,,,,,,,,,,,,,,,,,,,"[-0.8982,-0.37259999999999993,0.2784]","[-0.10599999999999998,-0.10599999999999998,0.5841999999999998]",87,40,1,0,0,response1disk,-3,1,1,0,0,rectangle,-3,1,1,0,0,,3,0.0004,0,-3,1,1,0,0,0,16,16,51,1,51,first,,,,,,,,,,,,,,,,,,,,,,,,,,,,,,,,,,,,,,,,,,,,,,,,,,,,,,,,,,,,,,,,,,,
,,,,,,5e7607c3dec4561735fbc3f2,62bbfab5577dd0fadc318cd7,2022-06-29_10h09.53.683,Colour_Asymmetry_Pilot,2022.1.3,Win32,75.0131273,62bbe60bf3d75ef465d3e404,,,,,,,,,,,,,,,,,,,,twofour,,2,0.747,,,,,,,,,,,,,,,,,,,,,,,,,,,,,,,,,,"[0.6625999999999999,0.4980000000000002,-0.357]","[-0.17659999999999998,-0.2864,-0.8354]",71,-31,1,0,0,response3disk,10,-10,1,0,0,rectangle,10,-10,1,0,0,,1,0.0004,0,10,-10,1,0,0,0,17,17,47,1,47,first,,,,,,,,,,,,,,,,,,,,,,,,,,,,,,,,,,,,,,,,,,,,,,,,,,,,,,,,,,,,,,,,,,,
,,,,,,5e7607c3dec4561735fbc3f2,62bbfab5577dd0fadc318cd7,2022-06-29_10h09.53.683,Colour_Asymmetry_Pilot,2022.1.3,Win32,75.0131273,62bbe60bf3d75ef465d3e404,,,,,,,,,,,,,,,,,,,,twofour,,-3,4.1615,,,,,,,,,,,,,,,,,,,,,,,,,,,,,,,,,,"[-0.0040000000000000036,0.02739999999999987,-0.08239999999999992]","[-0.34920000000000007,-0.702,-0.5216]",-60,23,1,0,0,response7disk,9,8,1,0,0,rectangle,9,8,1,0,0,,3,0.0004,0,9,8,1,0,0,0,18,18,112,1,31,second,,,,,,,,,,,,,,,,,,,,,,,,,,,,,,,,,,,,,,,,,,,,,,,,,,,,,,,,,,,,,,,,,,,
,,,,,,5e7607c3dec4561735fbc3f2,62bbfab5577dd0fadc318cd7,2022-06-29_10h09.53.683,Colour_Asymmetry_Pilot,2022.1.3,Win32,75.0131273,62bbe60bf3d75ef465d3e404,,,,,,,,,,,,,,,,,,,,fourthree,,4,1.3072,,,,,,,,,,,,,,,,,,,,,,,,,,,,,,,,,,"[0.3881999999999999,-0.23939999999999995,-0.05040000000000011]","[0.5449999999999999,-0.31000000000000005,-0.0354000000000001]",28,55,1,0,0,response1disk,1,-9,1,0,0,rectangle,1,-9,1,0,0,,2,0.0004,0,1,-9,1,0,0,0,19,19,146,1,65,second,,,,,,,,,,,,,,,,,,,,,,,,,,,,,,,,,,,,,,,,,,,,,,,,,,,,,,,,,,,,,,,,,,,
,,,,,,5e7607c3dec4561735fbc3f2,62bbfab5577dd0fadc318cd7,2022-06-29_10h09.53.683,Colour_Asymmetry_Pilot,2022.1.3,Win32,75.0131273,62bbe60bf3d75ef465d3e404,,,,,,,,,,,,,,,,,,,,fourthree,,-3,0.6268,,,,,,,,,,,,,,,,,,,,,,,,,,,,,,,,,,"[0.0351999999999999,0.41159999999999997,0.0038000000000000256]","[0.30180000000000007,-0.7884,-0.9844]",-67,35,1,0,0,response7disk,11,6,1,0,0,rectangle,11,6,1,0,0,,3,0.0004,0,11,6,1,0,0,0,20,20,43,1,43,first,,,,,,,,,,,,,,,,,,,,,,,,,,,,,,,,,,,,,,,,,,,,,,,,,,,,,,,,,,,,,,,,,,,
,,,,,,5e7607c3dec4561735fbc3f2,62bbfab5577dd0fadc318cd7,2022-06-29_10h09.53.683,Colour_Asymmetry_Pilot,2022.1.3,Win32,75.0131273,62bbe60bf3d75ef465d3e404,,,,,,,,,,,,,,,,,,,,threefour,,-4,0.6136,,,,,,,,,,,,,,,,,,,,,,,,,,,,,,,,,,"[-0.6235999999999999,-0.6786,-0.08239999999999992]","[0.23120000000000007,-0.7726,-0.34120000000000006]",-43,61,1,0,0,response7disk,-7,7,1,0,0,rectangle,-7,7,1,0,0,,2,0.0004,0,-7,7,1,0,0,0,21,21,129,1,48,second,,,,,,,,,,,,,,,,,,,,,,,,,,,,,,,,,,,,,,,,,,,,,,,,,,,,,,,,,,,,,,,,,,,
