trials.thisRepN,trials.thisTrialN,trials.thisN,trials.thisIndex,trials.ran,Colourcodes,participant,session,date,expName,psychopyVersion,OS,frameRate,study_id,trials_4.thisRepN,trials_4.thisTrialN,trials_4.thisN,trials_4.thisIndex,trials_4.ran,StimulusPos,key_resp.keys,key_resp.rt,key_resp_2.keys,key_resp_2.rt,key_resp_15.keys,key_resp_15.rt,key_resp_17.keys,key_resp_17.rt,key_resp_9.keys,key_resp_9.rt,key_resp_10.keys,key_resp_10.rt,Circle1_col,Ecc,Circle2_col,similarity,response_time,mouse_5.x,mouse_5.y,mouse_5.leftButton,mouse_5.midButton,mouse_5.rightButton,mouse_5.clicked_name,mouse_10.x,mouse_10.y,mouse_10.leftButton,mouse_10.midButton,mouse_10.rightButton,mouse_10.clicked_name,mouse_7.x,mouse_7.y,mouse_7.leftButton,mouse_7.midButton,mouse_7.rightButton,catchnumberprac,mouse_6.x,mouse_6.y,mouse_6.leftButton,mouse_6.midButton,mouse_6.rightButton,duringprac.thisRepN,duringprac.thisTrialN,duringprac.thisN,duringprac.thisIndex,duringprac.ran,mouse_7.clicked_name,catchprac,mouse_6.clicked_name,key_resp_22.keys,key_resp_22.rt,Circle1_colour,Circle2_colour,mouse.x,mouse.y,mouse.leftButton,mouse.midButton,mouse.rightButton,mouse.clicked_name,mouse_2.x,mouse_2.y,mouse_2.leftButton,mouse_2.midButton,mouse_2.rightButton,mouse_2.clicked_name,mouse_3.x,mouse_3.y,mouse_3.leftButton,mouse_3.midButton,mouse_3.rightButton,catchresponse,catchnumber,response_time_catch,Catch,mouse_11.x,mouse_11.y,mouse_11.leftButton,mouse_11.midButton,mouse_11.rightButton,trials_2.thisRepN,trials_2.thisTrialN,trials_2.thisN,trials_2.thisIndex,trials_2.ran,Colourpair,Temporder,mouse_3.clicked_name,mouse_11.clicked_name,trials_3.thisRepN,trials_3.thisTrialN,trials_3.thisN,trials_3.thisIndex,trials_3.ran,key_resp_instr_Ishi.keys,key_resp_instr_Ishi.rt,Ishi_trial_keyresp.keys,Ishi_trial_keyresp.rt,Ishi_textbox.text,Ishi_loop.thisRepN,Ishi_loop.thisTrialN,Ishi_loop.thisN,Ishi_loop.thisIndex,Ishi_loop.ran,imageaddress,textbox.text,mouse_4.x,mouse_4.y,mouse_4.leftButton,mouse_4.midButton,mouse_4.rightButton,mouse_4.clicked_name,textbox_2.text,mouse_8.x,mouse_8.y,mouse_8.leftButton,mouse_8.midButton,mouse_8.rightButton,mouse_8.clicked_name,textbox_3.text,mouse_9.x,mouse_9.y,mouse_9.leftButton,mouse_9.midButton,mouse_9.rightButton,mouse_9.clicked_name,textbox_4.text,mouse_12.x,mouse_12.y,mouse_12.leftButton,mouse_12.midButton,mouse_12.rightButton,mouse_12.clicked_name,textbox_5.text,mouse_13.x,mouse_13.y,mouse_13.leftButton,mouse_13.midButton,mouse_13.rightButton,mouse_13.clicked_name,textbox_6.text,mouse_14.x,mouse_14.y,mouse_14.leftButton,mouse_14.midButton,mouse_14.rightButton,mouse_14.clicked_name,textbox_7.text,mouse_15.x,mouse_15.y,mouse_15.leftButton,mouse_15.midButton,mouse_15.rightButton
0,0,0,79,1,,61386094902c2d666abf75f6,62bbfa5f658a9bdb2a101e36,2022-06-29_09h09.06.545,Colour_Asymmetry_Pilot,2022.1.3,Win32,59.07023451,62bbe60bf3d75ef465d3e404,,,,,,,,,,,,,,,,,,,,,,,,,,,,,,,,,,,,,,,,,,,,,,,,,,,,,,,,,,,,,,,,,,,,,,,,,,,,,,,,,,,,,,,,,,,,,,,,,,,,,,,,,,,,,,,,,,,,,,,,,,,,,,,,,,,,,,,,,,,,,,,,,,,,,,,,,,,,,
0,1,1,15,1,,61386094902c2d666abf75f6,62bbfa5f658a9bdb2a101e36,2022-06-29_09h09.06.545,Colour_Asymmetry_Pilot,2022.1.3,Win32,59.07023451,62bbe60bf3d75ef465d3e404,,,,,,,,,,,,,,,,,,,,,,,,,,,,,,,,,,,,,,,,,,,,,,,,,,,,,,,,,,,,,,,,,,,,,,,,,,,,,,,,,,,,,,,,,,,,,,,,,,,,,,,,,,,,,,,,,,,,,,,,,,,,,,,,,,,,,,,,,,,,,,,,,,,,,,,,,,,,,
0,2,2,20,1,,61386094902c2d666abf75f6,62bbfa5f658a9bdb2a101e36,2022-06-29_09h09.06.545,Colour_Asymmetry_Pilot,2022.1.3,Win32,59.07023451,62bbe60bf3d75ef465d3e404,,,,,,,,,,,,,,,,,,,,,,,,,,,,,,,,,,,,,,,,,,,,,,,,,,,,,,,,,,,,,,,,,,,,,,,,,,,,,,,,,,,,,,,,,,,,,,,,,,,,,,,,,,,,,,,,,,,,,,,,,,,,,,,,,,,,,,,,,,,,,,,,,,,,,,,,,,,,,
0,3,3,14,1,,61386094902c2d666abf75f6,62bbfa5f658a9bdb2a101e36,2022-06-29_09h09.06.545,Colour_Asymmetry_Pilot,2022.1.3,Win32,59.07023451,62bbe60bf3d75ef465d3e404,,,,,,,,,,,,,,,,,,,,,,,,,,,,,,,,,,,,,,,,,,,,,,,,,,,,,,,,,,,,,,,,,,,,,,,,,,,,,,,,,,,,,,,,,,,,,,,,,,,,,,,,,,,,,,,,,,,,,,,,,,,,,,,,,,,,,,,,,,,,,,,,,,,,,,,,,,,,,
0,4,4,26,1,,61386094902c2d666abf75f6,62bbfa5f658a9bdb2a101e36,2022-06-29_09h09.06.545,Colour_Asymmetry_Pilot,2022.1.3,Win32,59.07023451,62bbe60bf3d75ef465d3e404,,,,,,,,,,,,,,,,,,,,,,,,,,,,,,,,,,,,,,,,,,,,,,,,,,,,,,,,,,,,,,,,,,,,,,,,,,,,,,,,,,,,,,,,,,,,,,,,,,,,,,,,,,,,,,,,,,,,,,,,,,,,,,,,,,,,,,,,,,,,,,,,,,,,,,,,,,,,,
0,5,5,71,1,,61386094902c2d666abf75f6,62bbfa5f658a9bdb2a101e36,2022-06-29_09h09.06.545,Colour_Asymmetry_Pilot,2022.1.3,Win32,59.07023451,62bbe60bf3d75ef465d3e404,,,,,,,,,,,,,,,,,,,,,,,,,,,,,,,,,,,,,,,,,,,,,,,,,,,,,,,,,,,,,,,,,,,,,,,,,,,,,,,,,,,,,,,,,,,,,,,,,,,,,,,,,,,,,,,,,,,,,,,,,,,,,,,,,,,,,,,,,,,,,,,,,,,,,,,,,,,,,
0,6,6,39,1,,61386094902c2d666abf75f6,62bbfa5f658a9bdb2a101e36,2022-06-29_09h09.06.545,Colour_Asymmetry_Pilot,2022.1.3,Win32,59.07023451,62bbe60bf3d75ef465d3e404,,,,,,,,,,,,,,,,,,,,,,,,,,,,,,,,,,,,,,,,,,,,,,,,,,,,,,,,,,,,,,,,,,,,,,,,,,,,,,,,,,,,,,,,,,,,,,,,,,,,,,,,,,,,,,,,,,,,,,,,,,,,,,,,,,,,,,,,,,,,,,,,,,,,,,,,,,,,,
0,7,7,50,1,,61386094902c2d666abf75f6,62bbfa5f658a9bdb2a101e36,2022-06-29_09h09.06.545,Colour_Asymmetry_Pilot,2022.1.3,Win32,59.07023451,62bbe60bf3d75ef465d3e404,,,,,,,,,,,,,,,,,,,,,,,,,,,,,,,,,,,,,,,,,,,,,,,,,,,,,,,,,,,,,,,,,,,,,,,,,,,,,,,,,,,,,,,,,,,,,,,,,,,,,,,,,,,,,,,,,,,,,,,,,,,,,,,,,,,,,,,,,,,,,,,,,,,,,,,,,,,,,
0,8,8,33,1,,61386094902c2d666abf75f6,62bbfa5f658a9bdb2a101e36,2022-06-29_09h09.06.545,Colour_Asymmetry_Pilot,2022.1.3,Win32,59.07023451,62bbe60bf3d75ef465d3e404,,,,,,,,,,,,,,,,,,,,,,,,,,,,,,,,,,,,,,,,,,,,,,,,,,,,,,,,,,,,,,,,,,,,,,,,,,,,,,,,,,,,,,,,,,,,,,,,,,,,,,,,,,,,,,,,,,,,,,,,,,,,,,,,,,,,,,,,,,,,,,,,,,,,,,,,,,,,,
0,9,9,52,1,,61386094902c2d666abf75f6,62bbfa5f658a9bdb2a101e36,2022-06-29_09h09.06.545,Colour_Asymmetry_Pilot,2022.1.3,Win32,59.07023451,62bbe60bf3d75ef465d3e404,,,,,,,,,,,,,,,,,,,,,,,,,,,,,,,,,,,,,,,,,,,,,,,,,,,,,,,,,,,,,,,,,,,,,,,,,,,,,,,,,,,,,,,,,,,,,,,,,,,,,,,,,,,,,,,,,,,,,,,,,,,,,,,,,,,,,,,,,,,,,,,,,,,,,,,,,,,,,
0,10,10,7,1,,61386094902c2d666abf75f6,62bbfa5f658a9bdb2a101e36,2022-06-29_09h09.06.545,Colour_Asymmetry_Pilot,2022.1.3,Win32,59.07023451,62bbe60bf3d75ef465d3e404,,,,,,,,,,,,,,,,,,,,,,,,,,,,,,,,,,,,,,,,,,,,,,,,,,,,,,,,,,,,,,,,,,,,,,,,,,,,,,,,,,,,,,,,,,,,,,,,,,,,,,,,,,,,,,,,,,,,,,,,,,,,,,,,,,,,,,,,,,,,,,,,,,,,,,,,,,,,,
0,11,11,29,1,,61386094902c2d666abf75f6,62bbfa5f658a9bdb2a101e36,2022-06-29_09h09.06.545,Colour_Asymmetry_Pilot,2022.1.3,Win32,59.07023451,62bbe60bf3d75ef465d3e404,,,,,,,,,,,,,,,,,,,,,,,,,,,,,,,,,,,,,,,,,,,,,,,,,,,,,,,,,,,,,,,,,,,,,,,,,,,,,,,,,,,,,,,,,,,,,,,,,,,,,,,,,,,,,,,,,,,,,,,,,,,,,,,,,,,,,,,,,,,,,,,,,,,,,,,,,,,,,
0,12,12,54,1,,61386094902c2d666abf75f6,62bbfa5f658a9bdb2a101e36,2022-06-29_09h09.06.545,Colour_Asymmetry_Pilot,2022.1.3,Win32,59.07023451,62bbe60bf3d75ef465d3e404,,,,,,,,,,,,,,,,,,,,,,,,,,,,,,,,,,,,,,,,,,,,,,,,,,,,,,,,,,,,,,,,,,,,,,,,,,,,,,,,,,,,,,,,,,,,,,,,,,,,,,,,,,,,,,,,,,,,,,,,,,,,,,,,,,,,,,,,,,,,,,,,,,,,,,,,,,,,,
0,13,13,8,1,,61386094902c2d666abf75f6,62bbfa5f658a9bdb2a101e36,2022-06-29_09h09.06.545,Colour_Asymmetry_Pilot,2022.1.3,Win32,59.07023451,62bbe60bf3d75ef465d3e404,,,,,,,,,,,,,,,,,,,,,,,,,,,,,,,,,,,,,,,,,,,,,,,,,,,,,,,,,,,,,,,,,,,,,,,,,,,,,,,,,,,,,,,,,,,,,,,,,,,,,,,,,,,,,,,,,,,,,,,,,,,,,,,,,,,,,,,,,,,,,,,,,,,,,,,,,,,,,
0,14,14,23,1,,61386094902c2d666abf75f6,62bbfa5f658a9bdb2a101e36,2022-06-29_09h09.06.545,Colour_Asymmetry_Pilot,2022.1.3,Win32,59.07023451,62bbe60bf3d75ef465d3e404,,,,,,,,,,,,,,,,,,,,,,,,,,,,,,,,,,,,,,,,,,,,,,,,,,,,,,,,,,,,,,,,,,,,,,,,,,,,,,,,,,,,,,,,,,,,,,,,,,,,,,,,,,,,,,,,,,,,,,,,,,,,,,,,,,,,,,,,,,,,,,,,,,,,,,,,,,,,,
0,15,15,60,1,,61386094902c2d666abf75f6,62bbfa5f658a9bdb2a101e36,2022-06-29_09h09.06.545,Colour_Asymmetry_Pilot,2022.1.3,Win32,59.07023451,62bbe60bf3d75ef465d3e404,,,,,,,,,,,,,,,,,,,,,,,,,,,,,,,,,,,,,,,,,,,,,,,,,,,,,,,,,,,,,,,,,,,,,,,,,,,,,,,,,,,,,,,,,,,,,,,,,,,,,,,,,,,,,,,,,,,,,,,,,,,,,,,,,,,,,,,,,,,,,,,,,,,,,,,,,,,,,
0,16,16,28,1,,61386094902c2d666abf75f6,62bbfa5f658a9bdb2a101e36,2022-06-29_09h09.06.545,Colour_Asymmetry_Pilot,2022.1.3,Win32,59.07023451,62bbe60bf3d75ef465d3e404,,,,,,,,,,,,,,,,,,,,,,,,,,,,,,,,,,,,,,,,,,,,,,,,,,,,,,,,,,,,,,,,,,,,,,,,,,,,,,,,,,,,,,,,,,,,,,,,,,,,,,,,,,,,,,,,,,,,,,,,,,,,,,,,,,,,,,,,,,,,,,,,,,,,,,,,,,,,,
0,17,17,5,1,,61386094902c2d666abf75f6,62bbfa5f658a9bdb2a101e36,2022-06-29_09h09.06.545,Colour_Asymmetry_Pilot,2022.1.3,Win32,59.07023451,62bbe60bf3d75ef465d3e404,,,,,,,,,,,,,,,,,,,,,,,,,,,,,,,,,,,,,,,,,,,,,,,,,,,,,,,,,,,,,,,,,,,,,,,,,,,,,,,,,,,,,,,,,,,,,,,,,,,,,,,,,,,,,,,,,,,,,,,,,,,,,,,,,,,,,,,,,,,,,,,,,,,,,,,,,,,,,
0,18,18,83,1,,61386094902c2d666abf75f6,62bbfa5f658a9bdb2a101e36,2022-06-29_09h09.06.545,Colour_Asymmetry_Pilot,2022.1.3,Win32,59.07023451,62bbe60bf3d75ef465d3e404,,,,,,,,,,,,,,,,,,,,,,,,,,,,,,,,,,,,,,,,,,,,,,,,,,,,,,,,,,,,,,,,,,,,,,,,,,,,,,,,,,,,,,,,,,,,,,,,,,,,,,,,,,,,,,,,,,,,,,,,,,,,,,,,,,,,,,,,,,,,,,,,,,,,,,,,,,,,,
0,19,19,53,1,,61386094902c2d666abf75f6,62bbfa5f658a9bdb2a101e36,2022-06-29_09h09.06.545,Colour_Asymmetry_Pilot,2022.1.3,Win32,59.07023451,62bbe60bf3d75ef465d3e404,,,,,,,,,,,,,,,,,,,,,,,,,,,,,,,,,,,,,,,,,,,,,,,,,,,,,,,,,,,,,,,,,,,,,,,,,,,,,,,,,,,,,,,,,,,,,,,,,,,,,,,,,,,,,,,,,,,,,,,,,,,,,,,,,,,,,,,,,,,,,,,,,,,,,,,,,,,,,
0,20,20,69,1,,61386094902c2d666abf75f6,62bbfa5f658a9bdb2a101e36,2022-06-29_09h09.06.545,Colour_Asymmetry_Pilot,2022.1.3,Win32,59.07023451,62bbe60bf3d75ef465d3e404,,,,,,,,,,,,,,,,,,,,,,,,,,,,,,,,,,,,,,,,,,,,,,,,,,,,,,,,,,,,,,,,,,,,,,,,,,,,,,,,,,,,,,,,,,,,,,,,,,,,,,,,,,,,,,,,,,,,,,,,,,,,,,,,,,,,,,,,,,,,,,,,,,,,,,,,,,,,,
0,21,21,91,1,,61386094902c2d666abf75f6,62bbfa5f658a9bdb2a101e36,2022-06-29_09h09.06.545,Colour_Asymmetry_Pilot,2022.1.3,Win32,59.07023451,62bbe60bf3d75ef465d3e404,,,,,,,,,,,,,,,,,,,,,,,,,,,,,,,,,,,,,,,,,,,,,,,,,,,,,,,,,,,,,,,,,,,,,,,,,,,,,,,,,,,,,,,,,,,,,,,,,,,,,,,,,,,,,,,,,,,,,,,,,,,,,,,,,,,,,,,,,,,,,,,,,,,,,,,,,,,,,
0,22,22,35,1,,61386094902c2d666abf75f6,62bbfa5f658a9bdb2a101e36,2022-06-29_09h09.06.545,Colour_Asymmetry_Pilot,2022.1.3,Win32,59.07023451,62bbe60bf3d75ef465d3e404,,,,,,,,,,,,,,,,,,,,,,,,,,,,,,,,,,,,,,,,,,,,,,,,,,,,,,,,,,,,,,,,,,,,,,,,,,,,,,,,,,,,,,,,,,,,,,,,,,,,,,,,,,,,,,,,,,,,,,,,,,,,,,,,,,,,,,,,,,,,,,,,,,,,,,,,,,,,,
0,23,23,30,1,,61386094902c2d666abf75f6,62bbfa5f658a9bdb2a101e36,2022-06-29_09h09.06.545,Colour_Asymmetry_Pilot,2022.1.3,Win32,59.07023451,62bbe60bf3d75ef465d3e404,,,,,,,,,,,,,,,,,,,,,,,,,,,,,,,,,,,,,,,,,,,,,,,,,,,,,,,,,,,,,,,,,,,,,,,,,,,,,,,,,,,,,,,,,,,,,,,,,,,,,,,,,,,,,,,,,,,,,,,,,,,,,,,,,,,,,,,,,,,,,,,,,,,,,,,,,,,,,
0,24,24,87,1,,61386094902c2d666abf75f6,62bbfa5f658a9bdb2a101e36,2022-06-29_09h09.06.545,Colour_Asymmetry_Pilot,2022.1.3,Win32,59.07023451,62bbe60bf3d75ef465d3e404,,,,,,,,,,,,,,,,,,,,,,,,,,,,,,,,,,,,,,,,,,,,,,,,,,,,,,,,,,,,,,,,,,,,,,,,,,,,,,,,,,,,,,,,,,,,,,,,,,,,,,,,,,,,,,,,,,,,,,,,,,,,,,,,,,,,,,,,,,,,,,,,,,,,,,,,,,,,,
0,25,25,51,1,,61386094902c2d666abf75f6,62bbfa5f658a9bdb2a101e36,2022-06-29_09h09.06.545,Colour_Asymmetry_Pilot,2022.1.3,Win32,59.07023451,62bbe60bf3d75ef465d3e404,,,,,,,,,,,,,,,,,,,,,,,,,,,,,,,,,,,,,,,,,,,,,,,,,,,,,,,,,,,,,,,,,,,,,,,,,,,,,,,,,,,,,,,,,,,,,,,,,,,,,,,,,,,,,,,,,,,,,,,,,,,,,,,,,,,,,,,,,,,,,,,,,,,,,,,,,,,,,
0,26,26,42,1,,61386094902c2d666abf75f6,62bbfa5f658a9bdb2a101e36,2022-06-29_09h09.06.545,Colour_Asymmetry_Pilot,2022.1.3,Win32,59.07023451,62bbe60bf3d75ef465d3e404,,,,,,,,,,,,,,,,,,,,,,,,,,,,,,,,,,,,,,,,,,,,,,,,,,,,,,,,,,,,,,,,,,,,,,,,,,,,,,,,,,,,,,,,,,,,,,,,,,,,,,,,,,,,,,,,,,,,,,,,,,,,,,,,,,,,,,,,,,,,,,,,,,,,,,,,,,,,,
0,27,27,90,1,,61386094902c2d666abf75f6,62bbfa5f658a9bdb2a101e36,2022-06-29_09h09.06.545,Colour_Asymmetry_Pilot,2022.1.3,Win32,59.07023451,62bbe60bf3d75ef465d3e404,,,,,,,,,,,,,,,,,,,,,,,,,,,,,,,,,,,,,,,,,,,,,,,,,,,,,,,,,,,,,,,,,,,,,,,,,,,,,,,,,,,,,,,,,,,,,,,,,,,,,,,,,,,,,,,,,,,,,,,,,,,,,,,,,,,,,,,,,,,,,,,,,,,,,,,,,,,,,
0,28,28,47,1,,61386094902c2d666abf75f6,62bbfa5f658a9bdb2a101e36,2022-06-29_09h09.06.545,Colour_Asymmetry_Pilot,2022.1.3,Win32,59.07023451,62bbe60bf3d75ef465d3e404,,,,,,,,,,,,,,,,,,,,,,,,,,,,,,,,,,,,,,,,,,,,,,,,,,,,,,,,,,,,,,,,,,,,,,,,,,,,,,,,,,,,,,,,,,,,,,,,,,,,,,,,,,,,,,,,,,,,,,,,,,,,,,,,,,,,,,,,,,,,,,,,,,,,,,,,,,,,,
0,29,29,78,1,,61386094902c2d666abf75f6,62bbfa5f658a9bdb2a101e36,2022-06-29_09h09.06.545,Colour_Asymmetry_Pilot,2022.1.3,Win32,59.07023451,62bbe60bf3d75ef465d3e404,,,,,,,,,,,,,,,,,,,,,,,,,,,,,,,,,,,,,,,,,,,,,,,,,,,,,,,,,,,,,,,,,,,,,,,,,,,,,,,,,,,,,,,,,,,,,,,,,,,,,,,,,,,,,,,,,,,,,,,,,,,,,,,,,,,,,,,,,,,,,,,,,,,,,,,,,,,,,
0,30,30,38,1,,61386094902c2d666abf75f6,62bbfa5f658a9bdb2a101e36,2022-06-29_09h09.06.545,Colour_Asymmetry_Pilot,2022.1.3,Win32,59.07023451,62bbe60bf3d75ef465d3e404,,,,,,,,,,,,,,,,,,,,,,,,,,,,,,,,,,,,,,,,,,,,,,,,,,,,,,,,,,,,,,,,,,,,,,,,,,,,,,,,,,,,,,,,,,,,,,,,,,,,,,,,,,,,,,,,,,,,,,,,,,,,,,,,,,,,,,,,,,,,,,,,,,,,,,,,,,,,,
0,31,31,67,1,,61386094902c2d666abf75f6,62bbfa5f658a9bdb2a101e36,2022-06-29_09h09.06.545,Colour_Asymmetry_Pilot,2022.1.3,Win32,59.07023451,62bbe60bf3d75ef465d3e404,,,,,,,,,,,,,,,,,,,,,,,,,,,,,,,,,,,,,,,,,,,,,,,,,,,,,,,,,,,,,,,,,,,,,,,,,,,,,,,,,,,,,,,,,,,,,,,,,,,,,,,,,,,,,,,,,,,,,,,,,,,,,,,,,,,,,,,,,,,,,,,,,,,,,,,,,,,,,
0,32,32,34,1,,61386094902c2d666abf75f6,62bbfa5f658a9bdb2a101e36,2022-06-29_09h09.06.545,Colour_Asymmetry_Pilot,2022.1.3,Win32,59.07023451,62bbe60bf3d75ef465d3e404,,,,,,,,,,,,,,,,,,,,,,,,,,,,,,,,,,,,,,,,,,,,,,,,,,,,,,,,,,,,,,,,,,,,,,,,,,,,,,,,,,,,,,,,,,,,,,,,,,,,,,,,,,,,,,,,,,,,,,,,,,,,,,,,,,,,,,,,,,,,,,,,,,,,,,,,,,,,,
0,33,33,72,1,,61386094902c2d666abf75f6,62bbfa5f658a9bdb2a101e36,2022-06-29_09h09.06.545,Colour_Asymmetry_Pilot,2022.1.3,Win32,59.07023451,62bbe60bf3d75ef465d3e404,,,,,,,,,,,,,,,,,,,,,,,,,,,,,,,,,,,,,,,,,,,,,,,,,,,,,,,,,,,,,,,,,,,,,,,,,,,,,,,,,,,,,,,,,,,,,,,,,,,,,,,,,,,,,,,,,,,,,,,,,,,,,,,,,,,,,,,,,,,,,,,,,,,,,,,,,,,,,
0,34,34,68,1,,61386094902c2d666abf75f6,62bbfa5f658a9bdb2a101e36,2022-06-29_09h09.06.545,Colour_Asymmetry_Pilot,2022.1.3,Win32,59.07023451,62bbe60bf3d75ef465d3e404,,,,,,,,,,,,,,,,,,,,,,,,,,,,,,,,,,,,,,,,,,,,,,,,,,,,,,,,,,,,,,,,,,,,,,,,,,,,,,,,,,,,,,,,,,,,,,,,,,,,,,,,,,,,,,,,,,,,,,,,,,,,,,,,,,,,,,,,,,,,,,,,,,,,,,,,,,,,,
0,35,35,77,1,,61386094902c2d666abf75f6,62bbfa5f658a9bdb2a101e36,2022-06-29_09h09.06.545,Colour_Asymmetry_Pilot,2022.1.3,Win32,59.07023451,62bbe60bf3d75ef465d3e404,,,,,,,,,,,,,,,,,,,,,,,,,,,,,,,,,,,,,,,,,,,,,,,,,,,,,,,,,,,,,,,,,,,,,,,,,,,,,,,,,,,,,,,,,,,,,,,,,,,,,,,,,,,,,,,,,,,,,,,,,,,,,,,,,,,,,,,,,,,,,,,,,,,,,,,,,,,,,
0,36,36,70,1,,61386094902c2d666abf75f6,62bbfa5f658a9bdb2a101e36,2022-06-29_09h09.06.545,Colour_Asymmetry_Pilot,2022.1.3,Win32,59.07023451,62bbe60bf3d75ef465d3e404,,,,,,,,,,,,,,,,,,,,,,,,,,,,,,,,,,,,,,,,,,,,,,,,,,,,,,,,,,,,,,,,,,,,,,,,,,,,,,,,,,,,,,,,,,,,,,,,,,,,,,,,,,,,,,,,,,,,,,,,,,,,,,,,,,,,,,,,,,,,,,,,,,,,,,,,,,,,,
0,37,37,31,1,,61386094902c2d666abf75f6,62bbfa5f658a9bdb2a101e36,2022-06-29_09h09.06.545,Colour_Asymmetry_Pilot,2022.1.3,Win32,59.07023451,62bbe60bf3d75ef465d3e404,,,,,,,,,,,,,,,,,,,,,,,,,,,,,,,,,,,,,,,,,,,,,,,,,,,,,,,,,,,,,,,,,,,,,,,,,,,,,,,,,,,,,,,,,,,,,,,,,,,,,,,,,,,,,,,,,,,,,,,,,,,,,,,,,,,,,,,,,,,,,,,,,,,,,,,,,,,,,
0,38,38,36,1,,61386094902c2d666abf75f6,62bbfa5f658a9bdb2a101e36,2022-06-29_09h09.06.545,Colour_Asymmetry_Pilot,2022.1.3,Win32,59.07023451,62bbe60bf3d75ef465d3e404,,,,,,,,,,,,,,,,,,,,,,,,,,,,,,,,,,,,,,,,,,,,,,,,,,,,,,,,,,,,,,,,,,,,,,,,,,,,,,,,,,,,,,,,,,,,,,,,,,,,,,,,,,,,,,,,,,,,,,,,,,,,,,,,,,,,,,,,,,,,,,,,,,,,,,,,,,,,,
0,39,39,89,1,,61386094902c2d666abf75f6,62bbfa5f658a9bdb2a101e36,2022-06-29_09h09.06.545,Colour_Asymmetry_Pilot,2022.1.3,Win32,59.07023451,62bbe60bf3d75ef465d3e404,,,,,,,,,,,,,,,,,,,,,,,,,,,,,,,,,,,,,,,,,,,,,,,,,,,,,,,,,,,,,,,,,,,,,,,,,,,,,,,,,,,,,,,,,,,,,,,,,,,,,,,,,,,,,,,,,,,,,,,,,,,,,,,,,,,,,,,,,,,,,,,,,,,,,,,,,,,,,
0,40,40,61,1,,61386094902c2d666abf75f6,62bbfa5f658a9bdb2a101e36,2022-06-29_09h09.06.545,Colour_Asymmetry_Pilot,2022.1.3,Win32,59.07023451,62bbe60bf3d75ef465d3e404,,,,,,,,,,,,,,,,,,,,,,,,,,,,,,,,,,,,,,,,,,,,,,,,,,,,,,,,,,,,,,,,,,,,,,,,,,,,,,,,,,,,,,,,,,,,,,,,,,,,,,,,,,,,,,,,,,,,,,,,,,,,,,,,,,,,,,,,,,,,,,,,,,,,,,,,,,,,,
0,41,41,18,1,,61386094902c2d666abf75f6,62bbfa5f658a9bdb2a101e36,2022-06-29_09h09.06.545,Colour_Asymmetry_Pilot,2022.1.3,Win32,59.07023451,62bbe60bf3d75ef465d3e404,,,,,,,,,,,,,,,,,,,,,,,,,,,,,,,,,,,,,,,,,,,,,,,,,,,,,,,,,,,,,,,,,,,,,,,,,,,,,,,,,,,,,,,,,,,,,,,,,,,,,,,,,,,,,,,,,,,,,,,,,,,,,,,,,,,,,,,,,,,,,,,,,,,,,,,,,,,,,
0,42,42,49,1,,61386094902c2d666abf75f6,62bbfa5f658a9bdb2a101e36,2022-06-29_09h09.06.545,Colour_Asymmetry_Pilot,2022.1.3,Win32,59.07023451,62bbe60bf3d75ef465d3e404,,,,,,,,,,,,,,,,,,,,,,,,,,,,,,,,,,,,,,,,,,,,,,,,,,,,,,,,,,,,,,,,,,,,,,,,,,,,,,,,,,,,,,,,,,,,,,,,,,,,,,,,,,,,,,,,,,,,,,,,,,,,,,,,,,,,,,,,,,,,,,,,,,,,,,,,,,,,,
0,43,43,85,1,,61386094902c2d666abf75f6,62bbfa5f658a9bdb2a101e36,2022-06-29_09h09.06.545,Colour_Asymmetry_Pilot,2022.1.3,Win32,59.07023451,62bbe60bf3d75ef465d3e404,,,,,,,,,,,,,,,,,,,,,,,,,,,,,,,,,,,,,,,,,,,,,,,,,,,,,,,,,,,,,,,,,,,,,,,,,,,,,,,,,,,,,,,,,,,,,,,,,,,,,,,,,,,,,,,,,,,,,,,,,,,,,,,,,,,,,,,,,,,,,,,,,,,,,,,,,,,,,
0,44,44,81,1,,61386094902c2d666abf75f6,62bbfa5f658a9bdb2a101e36,2022-06-29_09h09.06.545,Colour_Asymmetry_Pilot,2022.1.3,Win32,59.07023451,62bbe60bf3d75ef465d3e404,,,,,,,,,,,,,,,,,,,,,,,,,,,,,,,,,,,,,,,,,,,,,,,,,,,,,,,,,,,,,,,,,,,,,,,,,,,,,,,,,,,,,,,,,,,,,,,,,,,,,,,,,,,,,,,,,,,,,,,,,,,,,,,,,,,,,,,,,,,,,,,,,,,,,,,,,,,,,
0,45,45,66,1,,61386094902c2d666abf75f6,62bbfa5f658a9bdb2a101e36,2022-06-29_09h09.06.545,Colour_Asymmetry_Pilot,2022.1.3,Win32,59.07023451,62bbe60bf3d75ef465d3e404,,,,,,,,,,,,,,,,,,,,,,,,,,,,,,,,,,,,,,,,,,,,,,,,,,,,,,,,,,,,,,,,,,,,,,,,,,,,,,,,,,,,,,,,,,,,,,,,,,,,,,,,,,,,,,,,,,,,,,,,,,,,,,,,,,,,,,,,,,,,,,,,,,,,,,,,,,,,,
0,46,46,22,1,,61386094902c2d666abf75f6,62bbfa5f658a9bdb2a101e36,2022-06-29_09h09.06.545,Colour_Asymmetry_Pilot,2022.1.3,Win32,59.07023451,62bbe60bf3d75ef465d3e404,,,,,,,,,,,,,,,,,,,,,,,,,,,,,,,,,,,,,,,,,,,,,,,,,,,,,,,,,,,,,,,,,,,,,,,,,,,,,,,,,,,,,,,,,,,,,,,,,,,,,,,,,,,,,,,,,,,,,,,,,,,,,,,,,,,,,,,,,,,,,,,,,,,,,,,,,,,,,
0,47,47,10,1,,61386094902c2d666abf75f6,62bbfa5f658a9bdb2a101e36,2022-06-29_09h09.06.545,Colour_Asymmetry_Pilot,2022.1.3,Win32,59.07023451,62bbe60bf3d75ef465d3e404,,,,,,,,,,,,,,,,,,,,,,,,,,,,,,,,,,,,,,,,,,,,,,,,,,,,,,,,,,,,,,,,,,,,,,,,,,,,,,,,,,,,,,,,,,,,,,,,,,,,,,,,,,,,,,,,,,,,,,,,,,,,,,,,,,,,,,,,,,,,,,,,,,,,,,,,,,,,,
0,48,48,21,1,,61386094902c2d666abf75f6,62bbfa5f658a9bdb2a101e36,2022-06-29_09h09.06.545,Colour_Asymmetry_Pilot,2022.1.3,Win32,59.07023451,62bbe60bf3d75ef465d3e404,,,,,,,,,,,,,,,,,,,,,,,,,,,,,,,,,,,,,,,,,,,,,,,,,,,,,,,,,,,,,,,,,,,,,,,,,,,,,,,,,,,,,,,,,,,,,,,,,,,,,,,,,,,,,,,,,,,,,,,,,,,,,,,,,,,,,,,,,,,,,,,,,,,,,,,,,,,,,
0,49,49,0,1,,61386094902c2d666abf75f6,62bbfa5f658a9bdb2a101e36,2022-06-29_09h09.06.545,Colour_Asymmetry_Pilot,2022.1.3,Win32,59.07023451,62bbe60bf3d75ef465d3e404,,,,,,,,,,,,,,,,,,,,,,,,,,,,,,,,,,,,,,,,,,,,,,,,,,,,,,,,,,,,,,,,,,,,,,,,,,,,,,,,,,,,,,,,,,,,,,,,,,,,,,,,,,,,,,,,,,,,,,,,,,,,,,,,,,,,,,,,,,,,,,,,,,,,,,,,,,,,,
0,50,50,17,1,,61386094902c2d666abf75f6,62bbfa5f658a9bdb2a101e36,2022-06-29_09h09.06.545,Colour_Asymmetry_Pilot,2022.1.3,Win32,59.07023451,62bbe60bf3d75ef465d3e404,,,,,,,,,,,,,,,,,,,,,,,,,,,,,,,,,,,,,,,,,,,,,,,,,,,,,,,,,,,,,,,,,,,,,,,,,,,,,,,,,,,,,,,,,,,,,,,,,,,,,,,,,,,,,,,,,,,,,,,,,,,,,,,,,,,,,,,,,,,,,,,,,,,,,,,,,,,,,
0,51,51,73,1,,61386094902c2d666abf75f6,62bbfa5f658a9bdb2a101e36,2022-06-29_09h09.06.545,Colour_Asymmetry_Pilot,2022.1.3,Win32,59.07023451,62bbe60bf3d75ef465d3e404,,,,,,,,,,,,,,,,,,,,,,,,,,,,,,,,,,,,,,,,,,,,,,,,,,,,,,,,,,,,,,,,,,,,,,,,,,,,,,,,,,,,,,,,,,,,,,,,,,,,,,,,,,,,,,,,,,,,,,,,,,,,,,,,,,,,,,,,,,,,,,,,,,,,,,,,,,,,,
0,52,52,19,1,,61386094902c2d666abf75f6,62bbfa5f658a9bdb2a101e36,2022-06-29_09h09.06.545,Colour_Asymmetry_Pilot,2022.1.3,Win32,59.07023451,62bbe60bf3d75ef465d3e404,,,,,,,,,,,,,,,,,,,,,,,,,,,,,,,,,,,,,,,,,,,,,,,,,,,,,,,,,,,,,,,,,,,,,,,,,,,,,,,,,,,,,,,,,,,,,,,,,,,,,,,,,,,,,,,,,,,,,,,,,,,,,,,,,,,,,,,,,,,,,,,,,,,,,,,,,,,,,
0,53,53,11,1,,61386094902c2d666abf75f6,62bbfa5f658a9bdb2a101e36,2022-06-29_09h09.06.545,Colour_Asymmetry_Pilot,2022.1.3,Win32,59.07023451,62bbe60bf3d75ef465d3e404,,,,,,,,,,,,,,,,,,,,,,,,,,,,,,,,,,,,,,,,,,,,,,,,,,,,,,,,,,,,,,,,,,,,,,,,,,,,,,,,,,,,,,,,,,,,,,,,,,,,,,,,,,,,,,,,,,,,,,,,,,,,,,,,,,,,,,,,,,,,,,,,,,,,,,,,,,,,,
0,54,54,6,1,,61386094902c2d666abf75f6,62bbfa5f658a9bdb2a101e36,2022-06-29_09h09.06.545,Colour_Asymmetry_Pilot,2022.1.3,Win32,59.07023451,62bbe60bf3d75ef465d3e404,,,,,,,,,,,,,,,,,,,,,,,,,,,,,,,,,,,,,,,,,,,,,,,,,,,,,,,,,,,,,,,,,,,,,,,,,,,,,,,,,,,,,,,,,,,,,,,,,,,,,,,,,,,,,,,,,,,,,,,,,,,,,,,,,,,,,,,,,,,,,,,,,,,,,,,,,,,,,
0,55,55,82,1,,61386094902c2d666abf75f6,62bbfa5f658a9bdb2a101e36,2022-06-29_09h09.06.545,Colour_Asymmetry_Pilot,2022.1.3,Win32,59.07023451,62bbe60bf3d75ef465d3e404,,,,,,,,,,,,,,,,,,,,,,,,,,,,,,,,,,,,,,,,,,,,,,,,,,,,,,,,,,,,,,,,,,,,,,,,,,,,,,,,,,,,,,,,,,,,,,,,,,,,,,,,,,,,,,,,,,,,,,,,,,,,,,,,,,,,,,,,,,,,,,,,,,,,,,,,,,,,,
0,56,56,12,1,,61386094902c2d666abf75f6,62bbfa5f658a9bdb2a101e36,2022-06-29_09h09.06.545,Colour_Asymmetry_Pilot,2022.1.3,Win32,59.07023451,62bbe60bf3d75ef465d3e404,,,,,,,,,,,,,,,,,,,,,,,,,,,,,,,,,,,,,,,,,,,,,,,,,,,,,,,,,,,,,,,,,,,,,,,,,,,,,,,,,,,,,,,,,,,,,,,,,,,,,,,,,,,,,,,,,,,,,,,,,,,,,,,,,,,,,,,,,,,,,,,,,,,,,,,,,,,,,
0,57,57,62,1,,61386094902c2d666abf75f6,62bbfa5f658a9bdb2a101e36,2022-06-29_09h09.06.545,Colour_Asymmetry_Pilot,2022.1.3,Win32,59.07023451,62bbe60bf3d75ef465d3e404,,,,,,,,,,,,,,,,,,,,,,,,,,,,,,,,,,,,,,,,,,,,,,,,,,,,,,,,,,,,,,,,,,,,,,,,,,,,,,,,,,,,,,,,,,,,,,,,,,,,,,,,,,,,,,,,,,,,,,,,,,,,,,,,,,,,,,,,,,,,,,,,,,,,,,,,,,,,,
0,58,58,92,1,,61386094902c2d666abf75f6,62bbfa5f658a9bdb2a101e36,2022-06-29_09h09.06.545,Colour_Asymmetry_Pilot,2022.1.3,Win32,59.07023451,62bbe60bf3d75ef465d3e404,,,,,,,,,,,,,,,,,,,,,,,,,,,,,,,,,,,,,,,,,,,,,,,,,,,,,,,,,,,,,,,,,,,,,,,,,,,,,,,,,,,,,,,,,,,,,,,,,,,,,,,,,,,,,,,,,,,,,,,,,,,,,,,,,,,,,,,,,,,,,,,,,,,,,,,,,,,,,
0,59,59,25,1,,61386094902c2d666abf75f6,62bbfa5f658a9bdb2a101e36,2022-06-29_09h09.06.545,Colour_Asymmetry_Pilot,2022.1.3,Win32,59.07023451,62bbe60bf3d75ef465d3e404,,,,,,,,,,,,,,,,,,,,,,,,,,,,,,,,,,,,,,,,,,,,,,,,,,,,,,,,,,,,,,,,,,,,,,,,,,,,,,,,,,,,,,,,,,,,,,,,,,,,,,,,,,,,,,,,,,,,,,,,,,,,,,,,,,,,,,,,,,,,,,,,,,,,,,,,,,,,,
0,60,60,88,1,,61386094902c2d666abf75f6,62bbfa5f658a9bdb2a101e36,2022-06-29_09h09.06.545,Colour_Asymmetry_Pilot,2022.1.3,Win32,59.07023451,62bbe60bf3d75ef465d3e404,,,,,,,,,,,,,,,,,,,,,,,,,,,,,,,,,,,,,,,,,,,,,,,,,,,,,,,,,,,,,,,,,,,,,,,,,,,,,,,,,,,,,,,,,,,,,,,,,,,,,,,,,,,,,,,,,,,,,,,,,,,,,,,,,,,,,,,,,,,,,,,,,,,,,,,,,,,,,
0,61,61,27,1,,61386094902c2d666abf75f6,62bbfa5f658a9bdb2a101e36,2022-06-29_09h09.06.545,Colour_Asymmetry_Pilot,2022.1.3,Win32,59.07023451,62bbe60bf3d75ef465d3e404,,,,,,,,,,,,,,,,,,,,,,,,,,,,,,,,,,,,,,,,,,,,,,,,,,,,,,,,,,,,,,,,,,,,,,,,,,,,,,,,,,,,,,,,,,,,,,,,,,,,,,,,,,,,,,,,,,,,,,,,,,,,,,,,,,,,,,,,,,,,,,,,,,,,,,,,,,,,,
0,62,62,44,1,,61386094902c2d666abf75f6,62bbfa5f658a9bdb2a101e36,2022-06-29_09h09.06.545,Colour_Asymmetry_Pilot,2022.1.3,Win32,59.07023451,62bbe60bf3d75ef465d3e404,,,,,,,,,,,,,,,,,,,,,,,,,,,,,,,,,,,,,,,,,,,,,,,,,,,,,,,,,,,,,,,,,,,,,,,,,,,,,,,,,,,,,,,,,,,,,,,,,,,,,,,,,,,,,,,,,,,,,,,,,,,,,,,,,,,,,,,,,,,,,,,,,,,,,,,,,,,,,
0,63,63,55,1,,61386094902c2d666abf75f6,62bbfa5f658a9bdb2a101e36,2022-06-29_09h09.06.545,Colour_Asymmetry_Pilot,2022.1.3,Win32,59.07023451,62bbe60bf3d75ef465d3e404,,,,,,,,,,,,,,,,,,,,,,,,,,,,,,,,,,,,,,,,,,,,,,,,,,,,,,,,,,,,,,,,,,,,,,,,,,,,,,,,,,,,,,,,,,,,,,,,,,,,,,,,,,,,,,,,,,,,,,,,,,,,,,,,,,,,,,,,,,,,,,,,,,,,,,,,,,,,,
0,64,64,76,1,,61386094902c2d666abf75f6,62bbfa5f658a9bdb2a101e36,2022-06-29_09h09.06.545,Colour_Asymmetry_Pilot,2022.1.3,Win32,59.07023451,62bbe60bf3d75ef465d3e404,,,,,,,,,,,,,,,,,,,,,,,,,,,,,,,,,,,,,,,,,,,,,,,,,,,,,,,,,,,,,,,,,,,,,,,,,,,,,,,,,,,,,,,,,,,,,,,,,,,,,,,,,,,,,,,,,,,,,,,,,,,,,,,,,,,,,,,,,,,,,,,,,,,,,,,,,,,,,
0,65,65,4,1,,61386094902c2d666abf75f6,62bbfa5f658a9bdb2a101e36,2022-06-29_09h09.06.545,Colour_Asymmetry_Pilot,2022.1.3,Win32,59.07023451,62bbe60bf3d75ef465d3e404,,,,,,,,,,,,,,,,,,,,,,,,,,,,,,,,,,,,,,,,,,,,,,,,,,,,,,,,,,,,,,,,,,,,,,,,,,,,,,,,,,,,,,,,,,,,,,,,,,,,,,,,,,,,,,,,,,,,,,,,,,,,,,,,,,,,,,,,,,,,,,,,,,,,,,,,,,,,,
0,66,66,24,1,,61386094902c2d666abf75f6,62bbfa5f658a9bdb2a101e36,2022-06-29_09h09.06.545,Colour_Asymmetry_Pilot,2022.1.3,Win32,59.07023451,62bbe60bf3d75ef465d3e404,,,,,,,,,,,,,,,,,,,,,,,,,,,,,,,,,,,,,,,,,,,,,,,,,,,,,,,,,,,,,,,,,,,,,,,,,,,,,,,,,,,,,,,,,,,,,,,,,,,,,,,,,,,,,,,,,,,,,,,,,,,,,,,,,,,,,,,,,,,,,,,,,,,,,,,,,,,,,
0,67,67,40,1,,61386094902c2d666abf75f6,62bbfa5f658a9bdb2a101e36,2022-06-29_09h09.06.545,Colour_Asymmetry_Pilot,2022.1.3,Win32,59.07023451,62bbe60bf3d75ef465d3e404,,,,,,,,,,,,,,,,,,,,,,,,,,,,,,,,,,,,,,,,,,,,,,,,,,,,,,,,,,,,,,,,,,,,,,,,,,,,,,,,,,,,,,,,,,,,,,,,,,,,,,,,,,,,,,,,,,,,,,,,,,,,,,,,,,,,,,,,,,,,,,,,,,,,,,,,,,,,,
0,68,68,37,1,,61386094902c2d666abf75f6,62bbfa5f658a9bdb2a101e36,2022-06-29_09h09.06.545,Colour_Asymmetry_Pilot,2022.1.3,Win32,59.07023451,62bbe60bf3d75ef465d3e404,,,,,,,,,,,,,,,,,,,,,,,,,,,,,,,,,,,,,,,,,,,,,,,,,,,,,,,,,,,,,,,,,,,,,,,,,,,,,,,,,,,,,,,,,,,,,,,,,,,,,,,,,,,,,,,,,,,,,,,,,,,,,,,,,,,,,,,,,,,,,,,,,,,,,,,,,,,,,
0,69,69,45,1,,61386094902c2d666abf75f6,62bbfa5f658a9bdb2a101e36,2022-06-29_09h09.06.545,Colour_Asymmetry_Pilot,2022.1.3,Win32,59.07023451,62bbe60bf3d75ef465d3e404,,,,,,,,,,,,,,,,,,,,,,,,,,,,,,,,,,,,,,,,,,,,,,,,,,,,,,,,,,,,,,,,,,,,,,,,,,,,,,,,,,,,,,,,,,,,,,,,,,,,,,,,,,,,,,,,,,,,,,,,,,,,,,,,,,,,,,,,,,,,,,,,,,,,,,,,,,,,,
0,70,70,56,1,,61386094902c2d666abf75f6,62bbfa5f658a9bdb2a101e36,2022-06-29_09h09.06.545,Colour_Asymmetry_Pilot,2022.1.3,Win32,59.07023451,62bbe60bf3d75ef465d3e404,,,,,,,,,,,,,,,,,,,,,,,,,,,,,,,,,,,,,,,,,,,,,,,,,,,,,,,,,,,,,,,,,,,,,,,,,,,,,,,,,,,,,,,,,,,,,,,,,,,,,,,,,,,,,,,,,,,,,,,,,,,,,,,,,,,,,,,,,,,,,,,,,,,,,,,,,,,,,
0,71,71,32,1,,61386094902c2d666abf75f6,62bbfa5f658a9bdb2a101e36,2022-06-29_09h09.06.545,Colour_Asymmetry_Pilot,2022.1.3,Win32,59.07023451,62bbe60bf3d75ef465d3e404,,,,,,,,,,,,,,,,,,,,,,,,,,,,,,,,,,,,,,,,,,,,,,,,,,,,,,,,,,,,,,,,,,,,,,,,,,,,,,,,,,,,,,,,,,,,,,,,,,,,,,,,,,,,,,,,,,,,,,,,,,,,,,,,,,,,,,,,,,,,,,,,,,,,,,,,,,,,,
0,72,72,75,1,,61386094902c2d666abf75f6,62bbfa5f658a9bdb2a101e36,2022-06-29_09h09.06.545,Colour_Asymmetry_Pilot,2022.1.3,Win32,59.07023451,62bbe60bf3d75ef465d3e404,,,,,,,,,,,,,,,,,,,,,,,,,,,,,,,,,,,,,,,,,,,,,,,,,,,,,,,,,,,,,,,,,,,,,,,,,,,,,,,,,,,,,,,,,,,,,,,,,,,,,,,,,,,,,,,,,,,,,,,,,,,,,,,,,,,,,,,,,,,,,,,,,,,,,,,,,,,,,
0,73,73,13,1,,61386094902c2d666abf75f6,62bbfa5f658a9bdb2a101e36,2022-06-29_09h09.06.545,Colour_Asymmetry_Pilot,2022.1.3,Win32,59.07023451,62bbe60bf3d75ef465d3e404,,,,,,,,,,,,,,,,,,,,,,,,,,,,,,,,,,,,,,,,,,,,,,,,,,,,,,,,,,,,,,,,,,,,,,,,,,,,,,,,,,,,,,,,,,,,,,,,,,,,,,,,,,,,,,,,,,,,,,,,,,,,,,,,,,,,,,,,,,,,,,,,,,,,,,,,,,,,,
0,74,74,9,1,,61386094902c2d666abf75f6,62bbfa5f658a9bdb2a101e36,2022-06-29_09h09.06.545,Colour_Asymmetry_Pilot,2022.1.3,Win32,59.07023451,62bbe60bf3d75ef465d3e404,,,,,,,,,,,,,,,,,,,,,,,,,,,,,,,,,,,,,,,,,,,,,,,,,,,,,,,,,,,,,,,,,,,,,,,,,,,,,,,,,,,,,,,,,,,,,,,,,,,,,,,,,,,,,,,,,,,,,,,,,,,,,,,,,,,,,,,,,,,,,,,,,,,,,,,,,,,,,
0,75,75,43,1,,61386094902c2d666abf75f6,62bbfa5f658a9bdb2a101e36,2022-06-29_09h09.06.545,Colour_Asymmetry_Pilot,2022.1.3,Win32,59.07023451,62bbe60bf3d75ef465d3e404,,,,,,,,,,,,,,,,,,,,,,,,,,,,,,,,,,,,,,,,,,,,,,,,,,,,,,,,,,,,,,,,,,,,,,,,,,,,,,,,,,,,,,,,,,,,,,,,,,,,,,,,,,,,,,,,,,,,,,,,,,,,,,,,,,,,,,,,,,,,,,,,,,,,,,,,,,,,,
0,76,76,1,1,,61386094902c2d666abf75f6,62bbfa5f658a9bdb2a101e36,2022-06-29_09h09.06.545,Colour_Asymmetry_Pilot,2022.1.3,Win32,59.07023451,62bbe60bf3d75ef465d3e404,,,,,,,,,,,,,,,,,,,,,,,,,,,,,,,,,,,,,,,,,,,,,,,,,,,,,,,,,,,,,,,,,,,,,,,,,,,,,,,,,,,,,,,,,,,,,,,,,,,,,,,,,,,,,,,,,,,,,,,,,,,,,,,,,,,,,,,,,,,,,,,,,,,,,,,,,,,,,
0,77,77,59,1,,61386094902c2d666abf75f6,62bbfa5f658a9bdb2a101e36,2022-06-29_09h09.06.545,Colour_Asymmetry_Pilot,2022.1.3,Win32,59.07023451,62bbe60bf3d75ef465d3e404,,,,,,,,,,,,,,,,,,,,,,,,,,,,,,,,,,,,,,,,,,,,,,,,,,,,,,,,,,,,,,,,,,,,,,,,,,,,,,,,,,,,,,,,,,,,,,,,,,,,,,,,,,,,,,,,,,,,,,,,,,,,,,,,,,,,,,,,,,,,,,,,,,,,,,,,,,,,,
0,78,78,58,1,,61386094902c2d666abf75f6,62bbfa5f658a9bdb2a101e36,2022-06-29_09h09.06.545,Colour_Asymmetry_Pilot,2022.1.3,Win32,59.07023451,62bbe60bf3d75ef465d3e404,,,,,,,,,,,,,,,,,,,,,,,,,,,,,,,,,,,,,,,,,,,,,,,,,,,,,,,,,,,,,,,,,,,,,,,,,,,,,,,,,,,,,,,,,,,,,,,,,,,,,,,,,,,,,,,,,,,,,,,,,,,,,,,,,,,,,,,,,,,,,,,,,,,,,,,,,,,,,
0,79,79,2,1,,61386094902c2d666abf75f6,62bbfa5f658a9bdb2a101e36,2022-06-29_09h09.06.545,Colour_Asymmetry_Pilot,2022.1.3,Win32,59.07023451,62bbe60bf3d75ef465d3e404,,,,,,,,,,,,,,,,,,,,,,,,,,,,,,,,,,,,,,,,,,,,,,,,,,,,,,,,,,,,,,,,,,,,,,,,,,,,,,,,,,,,,,,,,,,,,,,,,,,,,,,,,,,,,,,,,,,,,,,,,,,,,,,,,,,,,,,,,,,,,,,,,,,,,,,,,,,,,
0,80,80,48,1,,61386094902c2d666abf75f6,62bbfa5f658a9bdb2a101e36,2022-06-29_09h09.06.545,Colour_Asymmetry_Pilot,2022.1.3,Win32,59.07023451,62bbe60bf3d75ef465d3e404,,,,,,,,,,,,,,,,,,,,,,,,,,,,,,,,,,,,,,,,,,,,,,,,,,,,,,,,,,,,,,,,,,,,,,,,,,,,,,,,,,,,,,,,,,,,,,,,,,,,,,,,,,,,,,,,,,,,,,,,,,,,,,,,,,,,,,,,,,,,,,,,,,,,,,,,,,,,,
0,81,81,57,1,,61386094902c2d666abf75f6,62bbfa5f658a9bdb2a101e36,2022-06-29_09h09.06.545,Colour_Asymmetry_Pilot,2022.1.3,Win32,59.07023451,62bbe60bf3d75ef465d3e404,,,,,,,,,,,,,,,,,,,,,,,,,,,,,,,,,,,,,,,,,,,,,,,,,,,,,,,,,,,,,,,,,,,,,,,,,,,,,,,,,,,,,,,,,,,,,,,,,,,,,,,,,,,,,,,,,,,,,,,,,,,,,,,,,,,,,,,,,,,,,,,,,,,,,,,,,,,,,
0,82,82,65,1,,61386094902c2d666abf75f6,62bbfa5f658a9bdb2a101e36,2022-06-29_09h09.06.545,Colour_Asymmetry_Pilot,2022.1.3,Win32,59.07023451,62bbe60bf3d75ef465d3e404,,,,,,,,,,,,,,,,,,,,,,,,,,,,,,,,,,,,,,,,,,,,,,,,,,,,,,,,,,,,,,,,,,,,,,,,,,,,,,,,,,,,,,,,,,,,,,,,,,,,,,,,,,,,,,,,,,,,,,,,,,,,,,,,,,,,,,,,,,,,,,,,,,,,,,,,,,,,,
0,83,83,84,1,,61386094902c2d666abf75f6,62bbfa5f658a9bdb2a101e36,2022-06-29_09h09.06.545,Colour_Asymmetry_Pilot,2022.1.3,Win32,59.07023451,62bbe60bf3d75ef465d3e404,,,,,,,,,,,,,,,,,,,,,,,,,,,,,,,,,,,,,,,,,,,,,,,,,,,,,,,,,,,,,,,,,,,,,,,,,,,,,,,,,,,,,,,,,,,,,,,,,,,,,,,,,,,,,,,,,,,,,,,,,,,,,,,,,,,,,,,,,,,,,,,,,,,,,,,,,,,,,
0,84,84,16,1,,61386094902c2d666abf75f6,62bbfa5f658a9bdb2a101e36,2022-06-29_09h09.06.545,Colour_Asymmetry_Pilot,2022.1.3,Win32,59.07023451,62bbe60bf3d75ef465d3e404,,,,,,,,,,,,,,,,,,,,,,,,,,,,,,,,,,,,,,,,,,,,,,,,,,,,,,,,,,,,,,,,,,,,,,,,,,,,,,,,,,,,,,,,,,,,,,,,,,,,,,,,,,,,,,,,,,,,,,,,,,,,,,,,,,,,,,,,,,,,,,,,,,,,,,,,,,,,,
0,85,85,86,1,,61386094902c2d666abf75f6,62bbfa5f658a9bdb2a101e36,2022-06-29_09h09.06.545,Colour_Asymmetry_Pilot,2022.1.3,Win32,59.07023451,62bbe60bf3d75ef465d3e404,,,,,,,,,,,,,,,,,,,,,,,,,,,,,,,,,,,,,,,,,,,,,,,,,,,,,,,,,,,,,,,,,,,,,,,,,,,,,,,,,,,,,,,,,,,,,,,,,,,,,,,,,,,,,,,,,,,,,,,,,,,,,,,,,,,,,,,,,,,,,,,,,,,,,,,,,,,,,
0,86,86,63,1,,61386094902c2d666abf75f6,62bbfa5f658a9bdb2a101e36,2022-06-29_09h09.06.545,Colour_Asymmetry_Pilot,2022.1.3,Win32,59.07023451,62bbe60bf3d75ef465d3e404,,,,,,,,,,,,,,,,,,,,,,,,,,,,,,,,,,,,,,,,,,,,,,,,,,,,,,,,,,,,,,,,,,,,,,,,,,,,,,,,,,,,,,,,,,,,,,,,,,,,,,,,,,,,,,,,,,,,,,,,,,,,,,,,,,,,,,,,,,,,,,,,,,,,,,,,,,,,,
0,87,87,3,1,,61386094902c2d666abf75f6,62bbfa5f658a9bdb2a101e36,2022-06-29_09h09.06.545,Colour_Asymmetry_Pilot,2022.1.3,Win32,59.07023451,62bbe60bf3d75ef465d3e404,,,,,,,,,,,,,,,,,,,,,,,,,,,,,,,,,,,,,,,,,,,,,,,,,,,,,,,,,,,,,,,,,,,,,,,,,,,,,,,,,,,,,,,,,,,,,,,,,,,,,,,,,,,,,,,,,,,,,,,,,,,,,,,,,,,,,,,,,,,,,,,,,,,,,,,,,,,,,
0,88,88,74,1,,61386094902c2d666abf75f6,62bbfa5f658a9bdb2a101e36,2022-06-29_09h09.06.545,Colour_Asymmetry_Pilot,2022.1.3,Win32,59.07023451,62bbe60bf3d75ef465d3e404,,,,,,,,,,,,,,,,,,,,,,,,,,,,,,,,,,,,,,,,,,,,,,,,,,,,,,,,,,,,,,,,,,,,,,,,,,,,,,,,,,,,,,,,,,,,,,,,,,,,,,,,,,,,,,,,,,,,,,,,,,,,,,,,,,,,,,,,,,,,,,,,,,,,,,,,,,,,,
0,89,89,41,1,,61386094902c2d666abf75f6,62bbfa5f658a9bdb2a101e36,2022-06-29_09h09.06.545,Colour_Asymmetry_Pilot,2022.1.3,Win32,59.07023451,62bbe60bf3d75ef465d3e404,,,,,,,,,,,,,,,,,,,,,,,,,,,,,,,,,,,,,,,,,,,,,,,,,,,,,,,,,,,,,,,,,,,,,,,,,,,,,,,,,,,,,,,,,,,,,,,,,,,,,,,,,,,,,,,,,,,,,,,,,,,,,,,,,,,,,,,,,,,,,,,,,,,,,,,,,,,,,
0,90,90,64,1,,61386094902c2d666abf75f6,62bbfa5f658a9bdb2a101e36,2022-06-29_09h09.06.545,Colour_Asymmetry_Pilot,2022.1.3,Win32,59.07023451,62bbe60bf3d75ef465d3e404,,,,,,,,,,,,,,,,,,,,,,,,,,,,,,,,,,,,,,,,,,,,,,,,,,,,,,,,,,,,,,,,,,,,,,,,,,,,,,,,,,,,,,,,,,,,,,,,,,,,,,,,,,,,,,,,,,,,,,,,,,,,,,,,,,,,,,,,,,,,,,,,,,,,,,,,,,,,,
0,91,91,80,1,,61386094902c2d666abf75f6,62bbfa5f658a9bdb2a101e36,2022-06-29_09h09.06.545,Colour_Asymmetry_Pilot,2022.1.3,Win32,59.07023451,62bbe60bf3d75ef465d3e404,,,,,,,,,,,,,,,,,,,,,,,,,,,,,,,,,,,,,,,,,,,,,,,,,,,,,,,,,,,,,,,,,,,,,,,,,,,,,,,,,,,,,,,,,,,,,,,,,,,,,,,,,,,,,,,,,,,,,,,,,,,,,,,,,,,,,,,,,,,,,,,,,,,,,,,,,,,,,
0,92,92,46,1,,61386094902c2d666abf75f6,62bbfa5f658a9bdb2a101e36,2022-06-29_09h09.06.545,Colour_Asymmetry_Pilot,2022.1.3,Win32,59.07023451,62bbe60bf3d75ef465d3e404,,,,,,,,,,,,,,,,,,,,,,,,,,,,,,,,,,,,,,,,,,,,,,,,,,,,,,,,,,,,,,,,,,,,,,,,,,,,,,,,,,,,,,,,,,,,,,,,,,,,,,,,,,,,,,,,,,,,,,,,,,,,,,,,,,,,,,,,,,,,,,,,,,,,,,,,,,,,,
,,,,,,61386094902c2d666abf75f6,62bbfa5f658a9bdb2a101e36,2022-06-29_09h09.06.545,Colour_Asymmetry_Pilot,2022.1.3,Win32,59.07023451,62bbe60bf3d75ef465d3e404,0,0,0,24,1,onetwo,,,,,,,,,,,,,,,,,,,,,,,,,,,,,,,,,,,,,,,,,,,,,,,,,,,,,,,,,,,,,,,,,,,,,,,,,,,,,,,,,,,,,,,,,,,,,,,,,,,,,,,,,,,,,,,,,,,,,,,,,,,,,,,,,,,,,,,,,,,,,,,,,,,,,,,
,,,,,,61386094902c2d666abf75f6,62bbfa5f658a9bdb2a101e36,2022-06-29_09h09.06.545,Colour_Asymmetry_Pilot,2022.1.3,Win32,59.07023451,62bbe60bf3d75ef465d3e404,0,1,1,159,1,fourthree,,,,,,,,,,,,,,,,,,,,,,,,,,,,,,,,,,,,,,,,,,,,,,,,,,,,,,,,,,,,,,,,,,,,,,,,,,,,,,,,,,,,,,,,,,,,,,,,,,,,,,,,,,,,,,,,,,,,,,,,,,,,,,,,,,,,,,,,,,,,,,,,,,,,,,,
,,,,,,61386094902c2d666abf75f6,62bbfa5f658a9bdb2a101e36,2022-06-29_09h09.06.545,Colour_Asymmetry_Pilot,2022.1.3,Win32,59.07023451,62bbe60bf3d75ef465d3e404,0,2,2,40,1,onetwo,,,,,,,,,,,,,,,,,,,,,,,,,,,,,,,,,,,,,,,,,,,,,,,,,,,,,,,,,,,,,,,,,,,,,,,,,,,,,,,,,,,,,,,,,,,,,,,,,,,,,,,,,,,,,,,,,,,,,,,,,,,,,,,,,,,,,,,,,,,,,,,,,,,,,,,
,,,,,,61386094902c2d666abf75f6,62bbfa5f658a9bdb2a101e36,2022-06-29_09h09.06.545,Colour_Asymmetry_Pilot,2022.1.3,Win32,59.07023451,62bbe60bf3d75ef465d3e404,0,3,3,129,1,onethree,,,,,,,,,,,,,,,,,,,,,,,,,,,,,,,,,,,,,,,,,,,,,,,,,,,,,,,,,,,,,,,,,,,,,,,,,,,,,,,,,,,,,,,,,,,,,,,,,,,,,,,,,,,,,,,,,,,,,,,,,,,,,,,,,,,,,,,,,,,,,,,,,,,,,,,
,,,,,,61386094902c2d666abf75f6,62bbfa5f658a9bdb2a101e36,2022-06-29_09h09.06.545,Colour_Asymmetry_Pilot,2022.1.3,Win32,59.07023451,62bbe60bf3d75ef465d3e404,0,4,4,149,1,threefour,,,,,,,,,,,,,,,,,,,,,,,,,,,,,,,,,,,,,,,,,,,,,,,,,,,,,,,,,,,,,,,,,,,,,,,,,,,,,,,,,,,,,,,,,,,,,,,,,,,,,,,,,,,,,,,,,,,,,,,,,,,,,,,,,,,,,,,,,,,,,,,,,,,,,,,
,,,,,,61386094902c2d666abf75f6,62bbfa5f658a9bdb2a101e36,2022-06-29_09h09.06.545,Colour_Asymmetry_Pilot,2022.1.3,Win32,59.07023451,62bbe60bf3d75ef465d3e404,0,5,5,39,1,fourthree,,,,,,,,,,,,,,,,,,,,,,,,,,,,,,,,,,,,,,,,,,,,,,,,,,,,,,,,,,,,,,,,,,,,,,,,,,,,,,,,,,,,,,,,,,,,,,,,,,,,,,,,,,,,,,,,,,,,,,,,,,,,,,,,,,,,,,,,,,,,,,,,,,,,,,,
,,,,,,61386094902c2d666abf75f6,62bbfa5f658a9bdb2a101e36,2022-06-29_09h09.06.545,Colour_Asymmetry_Pilot,2022.1.3,Win32,59.07023451,62bbe60bf3d75ef465d3e404,0,6,6,135,1,fourthree,,,,,,,,,,,,,,,,,,,,,,,,,,,,,,,,,,,,,,,,,,,,,,,,,,,,,,,,,,,,,,,,,,,,,,,,,,,,,,,,,,,,,,,,,,,,,,,,,,,,,,,,,,,,,,,,,,,,,,,,,,,,,,,,,,,,,,,,,,,,,,,,,,,,,,,
,,,,,,61386094902c2d666abf75f6,62bbfa5f658a9bdb2a101e36,2022-06-29_09h09.06.545,Colour_Asymmetry_Pilot,2022.1.3,Win32,59.07023451,62bbe60bf3d75ef465d3e404,0,7,7,138,1,twoone,,,,,,,,,,,,,,,,,,,,,,,,,,,,,,,,,,,,,,,,,,,,,,,,,,,,,,,,,,,,,,,,,,,,,,,,,,,,,,,,,,,,,,,,,,,,,,,,,,,,,,,,,,,,,,,,,,,,,,,,,,,,,,,,,,,,,,,,,,,,,,,,,,,,,,,
,,,,,,61386094902c2d666abf75f6,62bbfa5f658a9bdb2a101e36,2022-06-29_09h09.06.545,Colour_Asymmetry_Pilot,2022.1.3,Win32,59.07023451,62bbe60bf3d75ef465d3e404,0,8,8,91,1,twofour,,,,,,,,,,,,,,,,,,,,,,,,,,,,,,,,,,,,,,,,,,,,,,,,,,,,,,,,,,,,,,,,,,,,,,,,,,,,,,,,,,,,,,,,,,,,,,,,,,,,,,,,,,,,,,,,,,,,,,,,,,,,,,,,,,,,,,,,,,,,,,,,,,,,,,,
,,,,,,61386094902c2d666abf75f6,62bbfa5f658a9bdb2a101e36,2022-06-29_09h09.06.545,Colour_Asymmetry_Pilot,2022.1.3,Win32,59.07023451,62bbe60bf3d75ef465d3e404,0,9,9,28,1,threeone,,,,,,,,,,,,,,,,,,,,,,,,,,,,,,,,,,,,,,,,,,,,,,,,,,,,,,,,,,,,,,,,,,,,,,,,,,,,,,,,,,,,,,,,,,,,,,,,,,,,,,,,,,,,,,,,,,,,,,,,,,,,,,,,,,,,,,,,,,,,,,,,,,,,,,,
,,,,,,61386094902c2d666abf75f6,62bbfa5f658a9bdb2a101e36,2022-06-29_09h09.06.545,Colour_Asymmetry_Pilot,2022.1.3,Win32,59.07023451,62bbe60bf3d75ef465d3e404,0,10,10,137,1,onethree,,,,,,,,,,,,,,,,,,,,,,,,,,,,,,,,,,,,,,,,,,,,,,,,,,,,,,,,,,,,,,,,,,,,,,,,,,,,,,,,,,,,,,,,,,,,,,,,,,,,,,,,,,,,,,,,,,,,,,,,,,,,,,,,,,,,,,,,,,,,,,,,,,,,,,,
,,,,,,61386094902c2d666abf75f6,62bbfa5f658a9bdb2a101e36,2022-06-29_09h09.06.545,Colour_Asymmetry_Pilot,2022.1.3,Win32,59.07023451,62bbe60bf3d75ef465d3e404,0,11,11,56,1,onetwo,,,,,,,,,,,,,,,,,,,,,,,,,,,,,,,,,,,,,,,,,,,,,,,,,,,,,,,,,,,,,,,,,,,,,,,,,,,,,,,,,,,,,,,,,,,,,,,,,,,,,,,,,,,,,,,,,,,,,,,,,,,,,,,,,,,,,,,,,,,,,,,,,,,,,,,
,,,,,,61386094902c2d666abf75f6,62bbfa5f658a9bdb2a101e36,2022-06-29_09h09.06.545,Colour_Asymmetry_Pilot,2022.1.3,Win32,59.07023451,62bbe60bf3d75ef465d3e404,0,12,12,62,1,fourtwo,,,,,,,,,,,,,,,,,,,,,,,,,,,,,,,,,,,,,,,,,,,,,,,,,,,,,,,,,,,,,,,,,,,,,,,,,,,,,,,,,,,,,,,,,,,,,,,,,,,,,,,,,,,,,,,,,,,,,,,,,,,,,,,,,,,,,,,,,,,,,,,,,,,,,,,
,,,,,,61386094902c2d666abf75f6,62bbfa5f658a9bdb2a101e36,2022-06-29_09h09.06.545,Colour_Asymmetry_Pilot,2022.1.3,Win32,59.07023451,62bbe60bf3d75ef465d3e404,0,13,13,29,1,threefour,,,,,,,,,,,,,,,,,,,,,,,,,,,,,,,,,,,,,,,,,,,,,,,,,,,,,,,,,,,,,,,,,,,,,,,,,,,,,,,,,,,,,,,,,,,,,,,,,,,,,,,,,,,,,,,,,,,,,,,,,,,,,,,,,,,,,,,,,,,,,,,,,,,,,,,
,,,,,,61386094902c2d666abf75f6,62bbfa5f658a9bdb2a101e36,2022-06-29_09h09.06.545,Colour_Asymmetry_Pilot,2022.1.3,Win32,59.07023451,62bbe60bf3d75ef465d3e404,0,14,14,140,1,threeone,,,,,,,,,,,,,,,,,,,,,,,,,,,,,,,,,,,,,,,,,,,,,,,,,,,,,,,,,,,,,,,,,,,,,,,,,,,,,,,,,,,,,,,,,,,,,,,,,,,,,,,,,,,,,,,,,,,,,,,,,,,,,,,,,,,,,,,,,,,,,,,,,,,,,,,
,,,,,,61386094902c2d666abf75f6,62bbfa5f658a9bdb2a101e36,2022-06-29_09h09.06.545,Colour_Asymmetry_Pilot,2022.1.3,Win32,59.07023451,62bbe60bf3d75ef465d3e404,0,15,15,101,1,threefour,,,,,,,,,,,,,,,,,,,,,,,,,,,,,,,,,,,,,,,,,,,,,,,,,,,,,,,,,,,,,,,,,,,,,,,,,,,,,,,,,,,,,,,,,,,,,,,,,,,,,,,,,,,,,,,,,,,,,,,,,,,,,,,,,,,,,,,,,,,,,,,,,,,,,,,
,,,,,,61386094902c2d666abf75f6,62bbfa5f658a9bdb2a101e36,2022-06-29_09h09.06.545,Colour_Asymmetry_Pilot,2022.1.3,Win32,59.07023451,62bbe60bf3d75ef465d3e404,0,16,16,70,1,fourtwo,,,,,,,,,,,,,,,,,,,,,,,,,,,,,,,,,,,,,,,,,,,,,,,,,,,,,,,,,,,,,,,,,,,,,,,,,,,,,,,,,,,,,,,,,,,,,,,,,,,,,,,,,,,,,,,,,,,,,,,,,,,,,,,,,,,,,,,,,,,,,,,,,,,,,,,
,,,,,,61386094902c2d666abf75f6,62bbfa5f658a9bdb2a101e36,2022-06-29_09h09.06.545,Colour_Asymmetry_Pilot,2022.1.3,Win32,59.07023451,62bbe60bf3d75ef465d3e404,0,17,17,23,1,fourthree,,,,,,,,,,,,,,,,,,,,,,,,,,,,,,,,,,,,,,,,,,,,,,,,,,,,,,,,,,,,,,,,,,,,,,,,,,,,,,,,,,,,,,,,,,,,,,,,,,,,,,,,,,,,,,,,,,,,,,,,,,,,,,,,,,,,,,,,,,,,,,,,,,,,,,,
,,,,,,61386094902c2d666abf75f6,62bbfa5f658a9bdb2a101e36,2022-06-29_09h09.06.545,Colour_Asymmetry_Pilot,2022.1.3,Win32,59.07023451,62bbe60bf3d75ef465d3e404,0,18,18,98,1,twoone,,,,,,,,,,,,,,,,,,,,,,,,,,,,,,,,,,,,,,,,,,,,,,,,,,,,,,,,,,,,,,,,,,,,,,,,,,,,,,,,,,,,,,,,,,,,,,,,,,,,,,,,,,,,,,,,,,,,,,,,,,,,,,,,,,,,,,,,,,,,,,,,,,,,,,,
,,,,,,61386094902c2d666abf75f6,62bbfa5f658a9bdb2a101e36,2022-06-29_09h09.06.545,Colour_Asymmetry_Pilot,2022.1.3,Win32,59.07023451,62bbe60bf3d75ef465d3e404,0,19,19,60,1,threeone,,,,,,,,,,,,,,,,,,,,,,,,,,,,,,,,,,,,,,,,,,,,,,,,,,,,,,,,,,,,,,,,,,,,,,,,,,,,,,,,,,,,,,,,,,,,,,,,,,,,,,,,,,,,,,,,,,,,,,,,,,,,,,,,,,,,,,,,,,,,,,,,,,,,,,,
,,,,,,61386094902c2d666abf75f6,62bbfa5f658a9bdb2a101e36,2022-06-29_09h09.06.545,Colour_Asymmetry_Pilot,2022.1.3,Win32,59.07023451,62bbe60bf3d75ef465d3e404,0,20,20,16,1,onetwo,,,,,,,,,,,,,,,,,,,,,,,,,,,,,,,,,,,,,,,,,,,,,,,,,,,,,,,,,,,,,,,,,,,,,,,,,,,,,,,,,,,,,,,,,,,,,,,,,,,,,,,,,,,,,,,,,,,,,,,,,,,,,,,,,,,,,,,,,,,,,,,,,,,,,,,
,,,,,,61386094902c2d666abf75f6,62bbfa5f658a9bdb2a101e36,2022-06-29_09h09.06.545,Colour_Asymmetry_Pilot,2022.1.3,Win32,59.07023451,62bbe60bf3d75ef465d3e404,0,21,21,59,1,twofour,,,,,,,,,,,,,,,,,,,,,,,,,,,,,,,,,,,,,,,,,,,,,,,,,,,,,,,,,,,,,,,,,,,,,,,,,,,,,,,,,,,,,,,,,,,,,,,,,,,,,,,,,,,,,,,,,,,,,,,,,,,,,,,,,,,,,,,,,,,,,,,,,,,,,,,
,,,,,,61386094902c2d666abf75f6,62bbfa5f658a9bdb2a101e36,2022-06-29_09h09.06.545,Colour_Asymmetry_Pilot,2022.1.3,Win32,59.07023451,62bbe60bf3d75ef465d3e404,0,22,22,150,1,fourtwo,,,,,,,,,,,,,,,,,,,,,,,,,,,,,,,,,,,,,,,,,,,,,,,,,,,,,,,,,,,,,,,,,,,,,,,,,,,,,,,,,,,,,,,,,,,,,,,,,,,,,,,,,,,,,,,,,,,,,,,,,,,,,,,,,,,,,,,,,,,,,,,,,,,,,,,
,,,,,,61386094902c2d666abf75f6,62bbfa5f658a9bdb2a101e36,2022-06-29_09h09.06.545,Colour_Asymmetry_Pilot,2022.1.3,Win32,59.07023451,62bbe60bf3d75ef465d3e404,0,23,23,22,1,fourtwo,,,,,,,,,,,,,,,,,,,,,,,,,,,,,,,,,,,,,,,,,,,,,,,,,,,,,,,,,,,,,,,,,,,,,,,,,,,,,,,,,,,,,,,,,,,,,,,,,,,,,,,,,,,,,,,,,,,,,,,,,,,,,,,,,,,,,,,,,,,,,,,,,,,,,,,
,,,,,,61386094902c2d666abf75f6,62bbfa5f658a9bdb2a101e36,2022-06-29_09h09.06.545,Colour_Asymmetry_Pilot,2022.1.3,Win32,59.07023451,62bbe60bf3d75ef465d3e404,0,24,24,118,1,fourtwo,,,,,,,,,,,,,,,,,,,,,,,,,,,,,,,,,,,,,,,,,,,,,,,,,,,,,,,,,,,,,,,,,,,,,,,,,,,,,,,,,,,,,,,,,,,,,,,,,,,,,,,,,,,,,,,,,,,,,,,,,,,,,,,,,,,,,,,,,,,,,,,,,,,,,,,
,,,,,,61386094902c2d666abf75f6,62bbfa5f658a9bdb2a101e36,2022-06-29_09h09.06.545,Colour_Asymmetry_Pilot,2022.1.3,Win32,59.07023451,62bbe60bf3d75ef465d3e404,0,25,25,71,1,fourthree,,,,,,,,,,,,,,,,,,,,,,,,,,,,,,,,,,,,,,,,,,,,,,,,,,,,,,,,,,,,,,,,,,,,,,,,,,,,,,,,,,,,,,,,,,,,,,,,,,,,,,,,,,,,,,,,,,,,,,,,,,,,,,,,,,,,,,,,,,,,,,,,,,,,,,,
,,,,,,61386094902c2d666abf75f6,62bbfa5f658a9bdb2a101e36,2022-06-29_09h09.06.545,Colour_Asymmetry_Pilot,2022.1.3,Win32,59.07023451,62bbe60bf3d75ef465d3e404,0,26,26,75,1,twofour,,,,,,,,,,,,,,,,,,,,,,,,,,,,,,,,,,,,,,,,,,,,,,,,,,,,,,,,,,,,,,,,,,,,,,,,,,,,,,,,,,,,,,,,,,,,,,,,,,,,,,,,,,,,,,,,,,,,,,,,,,,,,,,,,,,,,,,,,,,,,,,,,,,,,,,
,,,,,,61386094902c2d666abf75f6,62bbfa5f658a9bdb2a101e36,2022-06-29_09h09.06.545,Colour_Asymmetry_Pilot,2022.1.3,Win32,59.07023451,62bbe60bf3d75ef465d3e404,0,27,27,37,1,threefour,,,,,,,,,,,,,,,,,,,,,,,,,,,,,,,,,,,,,,,,,,,,,,,,,,,,,,,,,,,,,,,,,,,,,,,,,,,,,,,,,,,,,,,,,,,,,,,,,,,,,,,,,,,,,,,,,,,,,,,,,,,,,,,,,,,,,,,,,,,,,,,,,,,,,,,
,,,,,,61386094902c2d666abf75f6,62bbfa5f658a9bdb2a101e36,2022-06-29_09h09.06.545,Colour_Asymmetry_Pilot,2022.1.3,Win32,59.07023451,62bbe60bf3d75ef465d3e404,0,28,28,78,1,fourtwo,,,,,,,,,,,,,,,,,,,,,,,,,,,,,,,,,,,,,,,,,,,,,,,,,,,,,,,,,,,,,,,,,,,,,,,,,,,,,,,,,,,,,,,,,,,,,,,,,,,,,,,,,,,,,,,,,,,,,,,,,,,,,,,,,,,,,,,,,,,,,,,,,,,,,,,
,,,,,,61386094902c2d666abf75f6,62bbfa5f658a9bdb2a101e36,2022-06-29_09h09.06.545,Colour_Asymmetry_Pilot,2022.1.3,Win32,59.07023451,62bbe60bf3d75ef465d3e404,0,29,29,65,1,onethree,,,,,,,,,,,,,,,,,,,,,,,,,,,,,,,,,,,,,,,,,,,,,,,,,,,,,,,,,,,,,,,,,,,,,,,,,,,,,,,,,,,,,,,,,,,,,,,,,,,,,,,,,,,,,,,,,,,,,,,,,,,,,,,,,,,,,,,,,,,,,,,,,,,,,,,
,,,,,,61386094902c2d666abf75f6,62bbfa5f658a9bdb2a101e36,2022-06-29_09h09.06.545,Colour_Asymmetry_Pilot,2022.1.3,Win32,59.07023451,62bbe60bf3d75ef465d3e404,0,30,30,30,1,fourtwo,,,,,,,,,,,,,,,,,,,,,,,,,,,,,,,,,,,,,,,,,,,,,,,,,,,,,,,,,,,,,,,,,,,,,,,,,,,,,,,,,,,,,,,,,,,,,,,,,,,,,,,,,,,,,,,,,,,,,,,,,,,,,,,,,,,,,,,,,,,,,,,,,,,,,,,
,,,,,,61386094902c2d666abf75f6,62bbfa5f658a9bdb2a101e36,2022-06-29_09h09.06.545,Colour_Asymmetry_Pilot,2022.1.3,Win32,59.07023451,62bbe60bf3d75ef465d3e404,0,31,31,32,1,onetwo,,,,,,,,,,,,,,,,,,,,,,,,,,,,,,,,,,,,,,,,,,,,,,,,,,,,,,,,,,,,,,,,,,,,,,,,,,,,,,,,,,,,,,,,,,,,,,,,,,,,,,,,,,,,,,,,,,,,,,,,,,,,,,,,,,,,,,,,,,,,,,,,,,,,,,,
,,,,,,61386094902c2d666abf75f6,62bbfa5f658a9bdb2a101e36,2022-06-29_09h09.06.545,Colour_Asymmetry_Pilot,2022.1.3,Win32,59.07023451,62bbe60bf3d75ef465d3e404,0,32,32,5,1,threefour,,,,,,,,,,,,,,,,,,,,,,,,,,,,,,,,,,,,,,,,,,,,,,,,,,,,,,,,,,,,,,,,,,,,,,,,,,,,,,,,,,,,,,,,,,,,,,,,,,,,,,,,,,,,,,,,,,,,,,,,,,,,,,,,,,,,,,,,,,,,,,,,,,,,,,,
,,,,,,61386094902c2d666abf75f6,62bbfa5f658a9bdb2a101e36,2022-06-29_09h09.06.545,Colour_Asymmetry_Pilot,2022.1.3,Win32,59.07023451,62bbe60bf3d75ef465d3e404,0,33,33,26,1,twoone,,,,,,,,,,,,,,,,,,,,,,,,,,,,,,,,,,,,,,,,,,,,,,,,,,,,,,,,,,,,,,,,,,,,,,,,,,,,,,,,,,,,,,,,,,,,,,,,,,,,,,,,,,,,,,,,,,,,,,,,,,,,,,,,,,,,,,,,,,,,,,,,,,,,,,,
,,,,,,61386094902c2d666abf75f6,62bbfa5f658a9bdb2a101e36,2022-06-29_09h09.06.545,Colour_Asymmetry_Pilot,2022.1.3,Win32,59.07023451,62bbe60bf3d75ef465d3e404,0,34,34,41,1,onethree,,,,,,,,,,,,,,,,,,,,,,,,,,,,,,,,,,,,,,,,,,,,,,,,,,,,,,,,,,,,,,,,,,,,,,,,,,,,,,,,,,,,,,,,,,,,,,,,,,,,,,,,,,,,,,,,,,,,,,,,,,,,,,,,,,,,,,,,,,,,,,,,,,,,,,,
,,,,,,61386094902c2d666abf75f6,62bbfa5f658a9bdb2a101e36,2022-06-29_09h09.06.545,Colour_Asymmetry_Pilot,2022.1.3,Win32,59.07023451,62bbe60bf3d75ef465d3e404,0,35,35,48,1,onetwo,,,,,,,,,,,,,,,,,,,,,,,,,,,,,,,,,,,,,,,,,,,,,,,,,,,,,,,,,,,,,,,,,,,,,,,,,,,,,,,,,,,,,,,,,,,,,,,,,,,,,,,,,,,,,,,,,,,,,,,,,,,,,,,,,,,,,,,,,,,,,,,,,,,,,,,
,,,,,,61386094902c2d666abf75f6,62bbfa5f658a9bdb2a101e36,2022-06-29_09h09.06.545,Colour_Asymmetry_Pilot,2022.1.3,Win32,59.07023451,62bbe60bf3d75ef465d3e404,0,36,36,156,1,threeone,,,,,,,,,,,,,,,,,,,,,,,,,,,,,,,,,,,,,,,,,,,,,,,,,,,,,,,,,,,,,,,,,,,,,,,,,,,,,,,,,,,,,,,,,,,,,,,,,,,,,,,,,,,,,,,,,,,,,,,,,,,,,,,,,,,,,,,,,,,,,,,,,,,,,,,
,,,,,,61386094902c2d666abf75f6,62bbfa5f658a9bdb2a101e36,2022-06-29_09h09.06.545,Colour_Asymmetry_Pilot,2022.1.3,Win32,59.07023451,62bbe60bf3d75ef465d3e404,0,37,37,158,1,fourtwo,,,,,,,,,,,,,,,,,,,,,,,,,,,,,,,,,,,,,,,,,,,,,,,,,,,,,,,,,,,,,,,,,,,,,,,,,,,,,,,,,,,,,,,,,,,,,,,,,,,,,,,,,,,,,,,,,,,,,,,,,,,,,,,,,,,,,,,,,,,,,,,,,,,,,,,
,,,,,,61386094902c2d666abf75f6,62bbfa5f658a9bdb2a101e36,2022-06-29_09h09.06.545,Colour_Asymmetry_Pilot,2022.1.3,Win32,59.07023451,62bbe60bf3d75ef465d3e404,0,38,38,109,1,threefour,,,,,,,,,,,,,,,,,,,,,,,,,,,,,,,,,,,,,,,,,,,,,,,,,,,,,,,,,,,,,,,,,,,,,,,,,,,,,,,,,,,,,,,,,,,,,,,,,,,,,,,,,,,,,,,,,,,,,,,,,,,,,,,,,,,,,,,,,,,,,,,,,,,,,,,
,,,,,,61386094902c2d666abf75f6,62bbfa5f658a9bdb2a101e36,2022-06-29_09h09.06.545,Colour_Asymmetry_Pilot,2022.1.3,Win32,59.07023451,62bbe60bf3d75ef465d3e404,0,39,39,144,1,onetwo,,,,,,,,,,,,,,,,,,,,,,,,,,,,,,,,,,,,,,,,,,,,,,,,,,,,,,,,,,,,,,,,,,,,,,,,,,,,,,,,,,,,,,,,,,,,,,,,,,,,,,,,,,,,,,,,,,,,,,,,,,,,,,,,,,,,,,,,,,,,,,,,,,,,,,,
,,,,,,61386094902c2d666abf75f6,62bbfa5f658a9bdb2a101e36,2022-06-29_09h09.06.545,Colour_Asymmetry_Pilot,2022.1.3,Win32,59.07023451,62bbe60bf3d75ef465d3e404,0,40,40,55,1,fourthree,,,,,,,,,,,,,,,,,,,,,,,,,,,,,,,,,,,,,,,,,,,,,,,,,,,,,,,,,,,,,,,,,,,,,,,,,,,,,,,,,,,,,,,,,,,,,,,,,,,,,,,,,,,,,,,,,,,,,,,,,,,,,,,,,,,,,,,,,,,,,,,,,,,,,,,
,,,,,,61386094902c2d666abf75f6,62bbfa5f658a9bdb2a101e36,2022-06-29_09h09.06.545,Colour_Asymmetry_Pilot,2022.1.3,Win32,59.07023451,62bbe60bf3d75ef465d3e404,0,41,41,63,1,fourthree,,,,,,,,,,,,,,,,,,,,,,,,,,,,,,,,,,,,,,,,,,,,,,,,,,,,,,,,,,,,,,,,,,,,,,,,,,,,,,,,,,,,,,,,,,,,,,,,,,,,,,,,,,,,,,,,,,,,,,,,,,,,,,,,,,,,,,,,,,,,,,,,,,,,,,,
,,,,,,61386094902c2d666abf75f6,62bbfa5f658a9bdb2a101e36,2022-06-29_09h09.06.545,Colour_Asymmetry_Pilot,2022.1.3,Win32,59.07023451,62bbe60bf3d75ef465d3e404,0,42,42,134,1,fourtwo,,,,,,,,,,,,,,,,,,,,,,,,,,,,,,,,,,,,,,,,,,,,,,,,,,,,,,,,,,,,,,,,,,,,,,,,,,,,,,,,,,,,,,,,,,,,,,,,,,,,,,,,,,,,,,,,,,,,,,,,,,,,,,,,,,,,,,,,,,,,,,,,,,,,,,,
,,,,,,61386094902c2d666abf75f6,62bbfa5f658a9bdb2a101e36,2022-06-29_09h09.06.545,Colour_Asymmetry_Pilot,2022.1.3,Win32,59.07023451,62bbe60bf3d75ef465d3e404,0,43,43,57,1,onethree,,,,,,,,,,,,,,,,,,,,,,,,,,,,,,,,,,,,,,,,,,,,,,,,,,,,,,,,,,,,,,,,,,,,,,,,,,,,,,,,,,,,,,,,,,,,,,,,,,,,,,,,,,,,,,,,,,,,,,,,,,,,,,,,,,,,,,,,,,,,,,,,,,,,,,,
,,,,,,61386094902c2d666abf75f6,62bbfa5f658a9bdb2a101e36,2022-06-29_09h09.06.545,Colour_Asymmetry_Pilot,2022.1.3,Win32,59.07023451,62bbe60bf3d75ef465d3e404,0,44,44,112,1,onetwo,,,,,,,,,,,,,,,,,,,,,,,,,,,,,,,,,,,,,,,,,,,,,,,,,,,,,,,,,,,,,,,,,,,,,,,,,,,,,,,,,,,,,,,,,,,,,,,,,,,,,,,,,,,,,,,,,,,,,,,,,,,,,,,,,,,,,,,,,,,,,,,,,,,,,,,
,,,,,,61386094902c2d666abf75f6,62bbfa5f658a9bdb2a101e36,2022-06-29_09h09.06.545,Colour_Asymmetry_Pilot,2022.1.3,Win32,59.07023451,62bbe60bf3d75ef465d3e404,0,45,45,111,1,fourthree,,,,,,,,,,,,,,,,,,,,,,,,,,,,,,,,,,,,,,,,,,,,,,,,,,,,,,,,,,,,,,,,,,,,,,,,,,,,,,,,,,,,,,,,,,,,,,,,,,,,,,,,,,,,,,,,,,,,,,,,,,,,,,,,,,,,,,,,,,,,,,,,,,,,,,,
,,,,,,61386094902c2d666abf75f6,62bbfa5f658a9bdb2a101e36,2022-06-29_09h09.06.545,Colour_Asymmetry_Pilot,2022.1.3,Win32,59.07023451,62bbe60bf3d75ef465d3e404,0,46,46,99,1,twofour,,,,,,,,,,,,,,,,,,,,,,,,,,,,,,,,,,,,,,,,,,,,,,,,,,,,,,,,,,,,,,,,,,,,,,,,,,,,,,,,,,,,,,,,,,,,,,,,,,,,,,,,,,,,,,,,,,,,,,,,,,,,,,,,,,,,,,,,,,,,,,,,,,,,,,,
,,,,,,61386094902c2d666abf75f6,62bbfa5f658a9bdb2a101e36,2022-06-29_09h09.06.545,Colour_Asymmetry_Pilot,2022.1.3,Win32,59.07023451,62bbe60bf3d75ef465d3e404,0,47,47,106,1,twoone,,,,,,,,,,,,,,,,,,,,,,,,,,,,,,,,,,,,,,,,,,,,,,,,,,,,,,,,,,,,,,,,,,,,,,,,,,,,,,,,,,,,,,,,,,,,,,,,,,,,,,,,,,,,,,,,,,,,,,,,,,,,,,,,,,,,,,,,,,,,,,,,,,,,,,,
,,,,,,61386094902c2d666abf75f6,62bbfa5f658a9bdb2a101e36,2022-06-29_09h09.06.545,Colour_Asymmetry_Pilot,2022.1.3,Win32,59.07023451,62bbe60bf3d75ef465d3e404,0,48,48,143,1,fourthree,,,,,,,,,,,,,,,,,,,,,,,,,,,,,,,,,,,,,,,,,,,,,,,,,,,,,,,,,,,,,,,,,,,,,,,,,,,,,,,,,,,,,,,,,,,,,,,,,,,,,,,,,,,,,,,,,,,,,,,,,,,,,,,,,,,,,,,,,,,,,,,,,,,,,,,
,,,,,,61386094902c2d666abf75f6,62bbfa5f658a9bdb2a101e36,2022-06-29_09h09.06.545,Colour_Asymmetry_Pilot,2022.1.3,Win32,59.07023451,62bbe60bf3d75ef465d3e404,0,49,49,45,1,threefour,,,,,,,,,,,,,,,,,,,,,,,,,,,,,,,,,,,,,,,,,,,,,,,,,,,,,,,,,,,,,,,,,,,,,,,,,,,,,,,,,,,,,,,,,,,,,,,,,,,,,,,,,,,,,,,,,,,,,,,,,,,,,,,,,,,,,,,,,,,,,,,,,,,,,,,
,,,,,,61386094902c2d666abf75f6,62bbfa5f658a9bdb2a101e36,2022-06-29_09h09.06.545,Colour_Asymmetry_Pilot,2022.1.3,Win32,59.07023451,62bbe60bf3d75ef465d3e404,0,50,50,142,1,fourtwo,,,,,,,,,,,,,,,,,,,,,,,,,,,,,,,,,,,,,,,,,,,,,,,,,,,,,,,,,,,,,,,,,,,,,,,,,,,,,,,,,,,,,,,,,,,,,,,,,,,,,,,,,,,,,,,,,,,,,,,,,,,,,,,,,,,,,,,,,,,,,,,,,,,,,,,
,,,,,,61386094902c2d666abf75f6,62bbfa5f658a9bdb2a101e36,2022-06-29_09h09.06.545,Colour_Asymmetry_Pilot,2022.1.3,Win32,59.07023451,62bbe60bf3d75ef465d3e404,0,51,51,88,1,onetwo,,,,,,,,,,,,,,,,,,,,,,,,,,,,,,,,,,,,,,,,,,,,,,,,,,,,,,,,,,,,,,,,,,,,,,,,,,,,,,,,,,,,,,,,,,,,,,,,,,,,,,,,,,,,,,,,,,,,,,,,,,,,,,,,,,,,,,,,,,,,,,,,,,,,,,,
,,,,,,61386094902c2d666abf75f6,62bbfa5f658a9bdb2a101e36,2022-06-29_09h09.06.545,Colour_Asymmetry_Pilot,2022.1.3,Win32,59.07023451,62bbe60bf3d75ef465d3e404,0,52,52,66,1,twoone,,,,,,,,,,,,,,,,,,,,,,,,,,,,,,,,,,,,,,,,,,,,,,,,,,,,,,,,,,,,,,,,,,,,,,,,,,,,,,,,,,,,,,,,,,,,,,,,,,,,,,,,,,,,,,,,,,,,,,,,,,,,,,,,,,,,,,,,,,,,,,,,,,,,,,,
,,,,,,61386094902c2d666abf75f6,62bbfa5f658a9bdb2a101e36,2022-06-29_09h09.06.545,Colour_Asymmetry_Pilot,2022.1.3,Win32,59.07023451,62bbe60bf3d75ef465d3e404,0,53,53,74,1,twoone,,,,,,,,,,,,,,,,,,,,,,,,,,,,,,,,,,,,,,,,,,,,,,,,,,,,,,,,,,,,,,,,,,,,,,,,,,,,,,,,,,,,,,,,,,,,,,,,,,,,,,,,,,,,,,,,,,,,,,,,,,,,,,,,,,,,,,,,,,,,,,,,,,,,,,,
,,,,,,61386094902c2d666abf75f6,62bbfa5f658a9bdb2a101e36,2022-06-29_09h09.06.545,Colour_Asymmetry_Pilot,2022.1.3,Win32,59.07023451,62bbe60bf3d75ef465d3e404,0,54,54,141,1,threefour,,,,,,,,,,,,,,,,,,,,,,,,,,,,,,,,,,,,,,,,,,,,,,,,,,,,,,,,,,,,,,,,,,,,,,,,,,,,,,,,,,,,,,,,,,,,,,,,,,,,,,,,,,,,,,,,,,,,,,,,,,,,,,,,,,,,,,,,,,,,,,,,,,,,,,,
,,,,,,61386094902c2d666abf75f6,62bbfa5f658a9bdb2a101e36,2022-06-29_09h09.06.545,Colour_Asymmetry_Pilot,2022.1.3,Win32,59.07023451,62bbe60bf3d75ef465d3e404,0,55,55,93,1,threefour,,,,,,,,,,,,,,,,,,,,,,,,,,,,,,,,,,,,,,,,,,,,,,,,,,,,,,,,,,,,,,,,,,,,,,,,,,,,,,,,,,,,,,,,,,,,,,,,,,,,,,,,,,,,,,,,,,,,,,,,,,,,,,,,,,,,,,,,,,,,,,,,,,,,,,,
,,,,,,61386094902c2d666abf75f6,62bbfa5f658a9bdb2a101e36,2022-06-29_09h09.06.545,Colour_Asymmetry_Pilot,2022.1.3,Win32,59.07023451,62bbe60bf3d75ef465d3e404,0,56,56,17,1,onethree,,,,,,,,,,,,,,,,,,,,,,,,,,,,,,,,,,,,,,,,,,,,,,,,,,,,,,,,,,,,,,,,,,,,,,,,,,,,,,,,,,,,,,,,,,,,,,,,,,,,,,,,,,,,,,,,,,,,,,,,,,,,,,,,,,,,,,,,,,,,,,,,,,,,,,,
,,,,,,61386094902c2d666abf75f6,62bbfa5f658a9bdb2a101e36,2022-06-29_09h09.06.545,Colour_Asymmetry_Pilot,2022.1.3,Win32,59.07023451,62bbe60bf3d75ef465d3e404,0,57,57,52,1,threeone,,,,,,,,,,,,,,,,,,,,,,,,,,,,,,,,,,,,,,,,,,,,,,,,,,,,,,,,,,,,,,,,,,,,,,,,,,,,,,,,,,,,,,,,,,,,,,,,,,,,,,,,,,,,,,,,,,,,,,,,,,,,,,,,,,,,,,,,,,,,,,,,,,,,,,,
,,,,,,61386094902c2d666abf75f6,62bbfa5f658a9bdb2a101e36,2022-06-29_09h09.06.545,Colour_Asymmetry_Pilot,2022.1.3,Win32,59.07023451,62bbe60bf3d75ef465d3e404,0,58,58,90,1,twoone,,,,,,,,,,,,,,,,,,,,,,,,,,,,,,,,,,,,,,,,,,,,,,,,,,,,,,,,,,,,,,,,,,,,,,,,,,,,,,,,,,,,,,,,,,,,,,,,,,,,,,,,,,,,,,,,,,,,,,,,,,,,,,,,,,,,,,,,,,,,,,,,,,,,,,,
,,,,,,61386094902c2d666abf75f6,62bbfa5f658a9bdb2a101e36,2022-06-29_09h09.06.545,Colour_Asymmetry_Pilot,2022.1.3,Win32,59.07023451,62bbe60bf3d75ef465d3e404,0,59,59,4,1,threeone,,,,,,,,,,,,,,,,,,,,,,,,,,,,,,,,,,,,,,,,,,,,,,,,,,,,,,,,,,,,,,,,,,,,,,,,,,,,,,,,,,,,,,,,,,,,,,,,,,,,,,,,,,,,,,,,,,,,,,,,,,,,,,,,,,,,,,,,,,,,,,,,,,,,,,,
,,,,,,61386094902c2d666abf75f6,62bbfa5f658a9bdb2a101e36,2022-06-29_09h09.06.545,Colour_Asymmetry_Pilot,2022.1.3,Win32,59.07023451,62bbe60bf3d75ef465d3e404,0,60,60,81,1,onethree,,,,,,,,,,,,,,,,,,,,,,,,,,,,,,,,,,,,,,,,,,,,,,,,,,,,,,,,,,,,,,,,,,,,,,,,,,,,,,,,,,,,,,,,,,,,,,,,,,,,,,,,,,,,,,,,,,,,,,,,,,,,,,,,,,,,,,,,,,,,,,,,,,,,,,,
,,,,,,61386094902c2d666abf75f6,62bbfa5f658a9bdb2a101e36,2022-06-29_09h09.06.545,Colour_Asymmetry_Pilot,2022.1.3,Win32,59.07023451,62bbe60bf3d75ef465d3e404,0,61,61,7,1,fourthree,,,,,,,,,,,,,,,,,,,,,,,,,,,,,,,,,,,,,,,,,,,,,,,,,,,,,,,,,,,,,,,,,,,,,,,,,,,,,,,,,,,,,,,,,,,,,,,,,,,,,,,,,,,,,,,,,,,,,,,,,,,,,,,,,,,,,,,,,,,,,,,,,,,,,,,
,,,,,,61386094902c2d666abf75f6,62bbfa5f658a9bdb2a101e36,2022-06-29_09h09.06.545,Colour_Asymmetry_Pilot,2022.1.3,Win32,59.07023451,62bbe60bf3d75ef465d3e404,0,62,62,107,1,twofour,,,,,,,,,,,,,,,,,,,,,,,,,,,,,,,,,,,,,,,,,,,,,,,,,,,,,,,,,,,,,,,,,,,,,,,,,,,,,,,,,,,,,,,,,,,,,,,,,,,,,,,,,,,,,,,,,,,,,,,,,,,,,,,,,,,,,,,,,,,,,,,,,,,,,,,
,,,,,,61386094902c2d666abf75f6,62bbfa5f658a9bdb2a101e36,2022-06-29_09h09.06.545,Colour_Asymmetry_Pilot,2022.1.3,Win32,59.07023451,62bbe60bf3d75ef465d3e404,0,63,63,43,1,twofour,,,,,,,,,,,,,,,,,,,,,,,,,,,,,,,,,,,,,,,,,,,,,,,,,,,,,,,,,,,,,,,,,,,,,,,,,,,,,,,,,,,,,,,,,,,,,,,,,,,,,,,,,,,,,,,,,,,,,,,,,,,,,,,,,,,,,,,,,,,,,,,,,,,,,,,
,,,,,,61386094902c2d666abf75f6,62bbfa5f658a9bdb2a101e36,2022-06-29_09h09.06.545,Colour_Asymmetry_Pilot,2022.1.3,Win32,59.07023451,62bbe60bf3d75ef465d3e404,0,64,64,100,1,threeone,,,,,,,,,,,,,,,,,,,,,,,,,,,,,,,,,,,,,,,,,,,,,,,,,,,,,,,,,,,,,,,,,,,,,,,,,,,,,,,,,,,,,,,,,,,,,,,,,,,,,,,,,,,,,,,,,,,,,,,,,,,,,,,,,,,,,,,,,,,,,,,,,,,,,,,
,,,,,,61386094902c2d666abf75f6,62bbfa5f658a9bdb2a101e36,2022-06-29_09h09.06.545,Colour_Asymmetry_Pilot,2022.1.3,Win32,59.07023451,62bbe60bf3d75ef465d3e404,0,65,65,146,1,twoone,,,,,,,,,,,,,,,,,,,,,,,,,,,,,,,,,,,,,,,,,,,,,,,,,,,,,,,,,,,,,,,,,,,,,,,,,,,,,,,,,,,,,,,,,,,,,,,,,,,,,,,,,,,,,,,,,,,,,,,,,,,,,,,,,,,,,,,,,,,,,,,,,,,,,,,
,,,,,,61386094902c2d666abf75f6,62bbfa5f658a9bdb2a101e36,2022-06-29_09h09.06.545,Colour_Asymmetry_Pilot,2022.1.3,Win32,59.07023451,62bbe60bf3d75ef465d3e404,0,66,66,105,1,onethree,,,,,,,,,,,,,,,,,,,,,,,,,,,,,,,,,,,,,,,,,,,,,,,,,,,,,,,,,,,,,,,,,,,,,,,,,,,,,,,,,,,,,,,,,,,,,,,,,,,,,,,,,,,,,,,,,,,,,,,,,,,,,,,,,,,,,,,,,,,,,,,,,,,,,,,
,,,,,,61386094902c2d666abf75f6,62bbfa5f658a9bdb2a101e36,2022-06-29_09h09.06.545,Colour_Asymmetry_Pilot,2022.1.3,Win32,59.07023451,62bbe60bf3d75ef465d3e404,0,67,67,38,1,fourtwo,,,,,,,,,,,,,,,,,,,,,,,,,,,,,,,,,,,,,,,,,,,,,,,,,,,,,,,,,,,,,,,,,,,,,,,,,,,,,,,,,,,,,,,,,,,,,,,,,,,,,,,,,,,,,,,,,,,,,,,,,,,,,,,,,,,,,,,,,,,,,,,,,,,,,,,
,,,,,,61386094902c2d666abf75f6,62bbfa5f658a9bdb2a101e36,2022-06-29_09h09.06.545,Colour_Asymmetry_Pilot,2022.1.3,Win32,59.07023451,62bbe60bf3d75ef465d3e404,0,68,68,131,1,twofour,,,,,,,,,,,,,,,,,,,,,,,,,,,,,,,,,,,,,,,,,,,,,,,,,,,,,,,,,,,,,,,,,,,,,,,,,,,,,,,,,,,,,,,,,,,,,,,,,,,,,,,,,,,,,,,,,,,,,,,,,,,,,,,,,,,,,,,,,,,,,,,,,,,,,,,
,,,,,,61386094902c2d666abf75f6,62bbfa5f658a9bdb2a101e36,2022-06-29_09h09.06.545,Colour_Asymmetry_Pilot,2022.1.3,Win32,59.07023451,62bbe60bf3d75ef465d3e404,0,69,69,11,1,twofour,,,,,,,,,,,,,,,,,,,,,,,,,,,,,,,,,,,,,,,,,,,,,,,,,,,,,,,,,,,,,,,,,,,,,,,,,,,,,,,,,,,,,,,,,,,,,,,,,,,,,,,,,,,,,,,,,,,,,,,,,,,,,,,,,,,,,,,,,,,,,,,,,,,,,,,
,,,,,,61386094902c2d666abf75f6,62bbfa5f658a9bdb2a101e36,2022-06-29_09h09.06.545,Colour_Asymmetry_Pilot,2022.1.3,Win32,59.07023451,62bbe60bf3d75ef465d3e404,0,70,70,27,1,twofour,,,,,,,,,,,,,,,,,,,,,,,,,,,,,,,,,,,,,,,,,,,,,,,,,,,,,,,,,,,,,,,,,,,,,,,,,,,,,,,,,,,,,,,,,,,,,,,,,,,,,,,,,,,,,,,,,,,,,,,,,,,,,,,,,,,,,,,,,,,,,,,,,,,,,,,
,,,,,,61386094902c2d666abf75f6,62bbfa5f658a9bdb2a101e36,2022-06-29_09h09.06.545,Colour_Asymmetry_Pilot,2022.1.3,Win32,59.07023451,62bbe60bf3d75ef465d3e404,0,71,71,128,1,onetwo,,,,,,,,,,,,,,,,,,,,,,,,,,,,,,,,,,,,,,,,,,,,,,,,,,,,,,,,,,,,,,,,,,,,,,,,,,,,,,,,,,,,,,,,,,,,,,,,,,,,,,,,,,,,,,,,,,,,,,,,,,,,,,,,,,,,,,,,,,,,,,,,,,,,,,,
,,,,,,61386094902c2d666abf75f6,62bbfa5f658a9bdb2a101e36,2022-06-29_09h09.06.545,Colour_Asymmetry_Pilot,2022.1.3,Win32,59.07023451,62bbe60bf3d75ef465d3e404,0,72,72,44,1,threeone,,,,,,,,,,,,,,,,,,,,,,,,,,,,,,,,,,,,,,,,,,,,,,,,,,,,,,,,,,,,,,,,,,,,,,,,,,,,,,,,,,,,,,,,,,,,,,,,,,,,,,,,,,,,,,,,,,,,,,,,,,,,,,,,,,,,,,,,,,,,,,,,,,,,,,,
,,,,,,61386094902c2d666abf75f6,62bbfa5f658a9bdb2a101e36,2022-06-29_09h09.06.545,Colour_Asymmetry_Pilot,2022.1.3,Win32,59.07023451,62bbe60bf3d75ef465d3e404,0,73,73,139,1,twofour,,,,,,,,,,,,,,,,,,,,,,,,,,,,,,,,,,,,,,,,,,,,,,,,,,,,,,,,,,,,,,,,,,,,,,,,,,,,,,,,,,,,,,,,,,,,,,,,,,,,,,,,,,,,,,,,,,,,,,,,,,,,,,,,,,,,,,,,,,,,,,,,,,,,,,,
,,,,,,61386094902c2d666abf75f6,62bbfa5f658a9bdb2a101e36,2022-06-29_09h09.06.545,Colour_Asymmetry_Pilot,2022.1.3,Win32,59.07023451,62bbe60bf3d75ef465d3e404,0,74,74,2,1,twoone,,,,,,,,,,,,,,,,,,,,,,,,,,,,,,,,,,,,,,,,,,,,,,,,,,,,,,,,,,,,,,,,,,,,,,,,,,,,,,,,,,,,,,,,,,,,,,,,,,,,,,,,,,,,,,,,,,,,,,,,,,,,,,,,,,,,,,,,,,,,,,,,,,,,,,,
,,,,,,61386094902c2d666abf75f6,62bbfa5f658a9bdb2a101e36,2022-06-29_09h09.06.545,Colour_Asymmetry_Pilot,2022.1.3,Win32,59.07023451,62bbe60bf3d75ef465d3e404,0,75,75,67,1,twofour,,,,,,,,,,,,,,,,,,,,,,,,,,,,,,,,,,,,,,,,,,,,,,,,,,,,,,,,,,,,,,,,,,,,,,,,,,,,,,,,,,,,,,,,,,,,,,,,,,,,,,,,,,,,,,,,,,,,,,,,,,,,,,,,,,,,,,,,,,,,,,,,,,,,,,,
,,,,,,61386094902c2d666abf75f6,62bbfa5f658a9bdb2a101e36,2022-06-29_09h09.06.545,Colour_Asymmetry_Pilot,2022.1.3,Win32,59.07023451,62bbe60bf3d75ef465d3e404,0,76,76,126,1,fourtwo,,,,,,,,,,,,,,,,,,,,,,,,,,,,,,,,,,,,,,,,,,,,,,,,,,,,,,,,,,,,,,,,,,,,,,,,,,,,,,,,,,,,,,,,,,,,,,,,,,,,,,,,,,,,,,,,,,,,,,,,,,,,,,,,,,,,,,,,,,,,,,,,,,,,,,,
,,,,,,61386094902c2d666abf75f6,62bbfa5f658a9bdb2a101e36,2022-06-29_09h09.06.545,Colour_Asymmetry_Pilot,2022.1.3,Win32,59.07023451,62bbe60bf3d75ef465d3e404,0,77,77,68,1,threeone,,,,,,,,,,,,,,,,,,,,,,,,,,,,,,,,,,,,,,,,,,,,,,,,,,,,,,,,,,,,,,,,,,,,,,,,,,,,,,,,,,,,,,,,,,,,,,,,,,,,,,,,,,,,,,,,,,,,,,,,,,,,,,,,,,,,,,,,,,,,,,,,,,,,,,,
,,,,,,61386094902c2d666abf75f6,62bbfa5f658a9bdb2a101e36,2022-06-29_09h09.06.545,Colour_Asymmetry_Pilot,2022.1.3,Win32,59.07023451,62bbe60bf3d75ef465d3e404,0,78,78,10,1,twoone,,,,,,,,,,,,,,,,,,,,,,,,,,,,,,,,,,,,,,,,,,,,,,,,,,,,,,,,,,,,,,,,,,,,,,,,,,,,,,,,,,,,,,,,,,,,,,,,,,,,,,,,,,,,,,,,,,,,,,,,,,,,,,,,,,,,,,,,,,,,,,,,,,,,,,,
,,,,,,61386094902c2d666abf75f6,62bbfa5f658a9bdb2a101e36,2022-06-29_09h09.06.545,Colour_Asymmetry_Pilot,2022.1.3,Win32,59.07023451,62bbe60bf3d75ef465d3e404,0,79,79,12,1,threeone,,,,,,,,,,,,,,,,,,,,,,,,,,,,,,,,,,,,,,,,,,,,,,,,,,,,,,,,,,,,,,,,,,,,,,,,,,,,,,,,,,,,,,,,,,,,,,,,,,,,,,,,,,,,,,,,,,,,,,,,,,,,,,,,,,,,,,,,,,,,,,,,,,,,,,,
,,,,,,61386094902c2d666abf75f6,62bbfa5f658a9bdb2a101e36,2022-06-29_09h09.06.545,Colour_Asymmetry_Pilot,2022.1.3,Win32,59.07023451,62bbe60bf3d75ef465d3e404,0,80,80,125,1,threefour,,,,,,,,,,,,,,,,,,,,,,,,,,,,,,,,,,,,,,,,,,,,,,,,,,,,,,,,,,,,,,,,,,,,,,,,,,,,,,,,,,,,,,,,,,,,,,,,,,,,,,,,,,,,,,,,,,,,,,,,,,,,,,,,,,,,,,,,,,,,,,,,,,,,,,,
,,,,,,61386094902c2d666abf75f6,62bbfa5f658a9bdb2a101e36,2022-06-29_09h09.06.545,Colour_Asymmetry_Pilot,2022.1.3,Win32,59.07023451,62bbe60bf3d75ef465d3e404,0,81,81,72,1,onetwo,,,,,,,,,,,,,,,,,,,,,,,,,,,,,,,,,,,,,,,,,,,,,,,,,,,,,,,,,,,,,,,,,,,,,,,,,,,,,,,,,,,,,,,,,,,,,,,,,,,,,,,,,,,,,,,,,,,,,,,,,,,,,,,,,,,,,,,,,,,,,,,,,,,,,,,
,,,,,,61386094902c2d666abf75f6,62bbfa5f658a9bdb2a101e36,2022-06-29_09h09.06.545,Colour_Asymmetry_Pilot,2022.1.3,Win32,59.07023451,62bbe60bf3d75ef465d3e404,0,82,82,160,1,onetwo,,,,,,,,,,,,,,,,,,,,,,,,,,,,,,,,,,,,,,,,,,,,,,,,,,,,,,,,,,,,,,,,,,,,,,,,,,,,,,,,,,,,,,,,,,,,,,,,,,,,,,,,,,,,,,,,,,,,,,,,,,,,,,,,,,,,,,,,,,,,,,,,,,,,,,,
,,,,,,61386094902c2d666abf75f6,62bbfa5f658a9bdb2a101e36,2022-06-29_09h09.06.545,Colour_Asymmetry_Pilot,2022.1.3,Win32,59.07023451,62bbe60bf3d75ef465d3e404,0,83,83,76,1,threeone,,,,,,,,,,,,,,,,,,,,,,,,,,,,,,,,,,,,,,,,,,,,,,,,,,,,,,,,,,,,,,,,,,,,,,,,,,,,,,,,,,,,,,,,,,,,,,,,,,,,,,,,,,,,,,,,,,,,,,,,,,,,,,,,,,,,,,,,,,,,,,,,,,,,,,,
,,,,,,61386094902c2d666abf75f6,62bbfa5f658a9bdb2a101e36,2022-06-29_09h09.06.545,Colour_Asymmetry_Pilot,2022.1.3,Win32,59.07023451,62bbe60bf3d75ef465d3e404,0,84,84,85,1,threefour,,,,,,,,,,,,,,,,,,,,,,,,,,,,,,,,,,,,,,,,,,,,,,,,,,,,,,,,,,,,,,,,,,,,,,,,,,,,,,,,,,,,,,,,,,,,,,,,,,,,,,,,,,,,,,,,,,,,,,,,,,,,,,,,,,,,,,,,,,,,,,,,,,,,,,,
,,,,,,61386094902c2d666abf75f6,62bbfa5f658a9bdb2a101e36,2022-06-29_09h09.06.545,Colour_Asymmetry_Pilot,2022.1.3,Win32,59.07023451,62bbe60bf3d75ef465d3e404,0,85,85,31,1,fourthree,,,,,,,,,,,,,,,,,,,,,,,,,,,,,,,,,,,,,,,,,,,,,,,,,,,,,,,,,,,,,,,,,,,,,,,,,,,,,,,,,,,,,,,,,,,,,,,,,,,,,,,,,,,,,,,,,,,,,,,,,,,,,,,,,,,,,,,,,,,,,,,,,,,,,,,
,,,,,,61386094902c2d666abf75f6,62bbfa5f658a9bdb2a101e36,2022-06-29_09h09.06.545,Colour_Asymmetry_Pilot,2022.1.3,Win32,59.07023451,62bbe60bf3d75ef465d3e404,0,86,86,133,1,threefour,,,,,,,,,,,,,,,,,,,,,,,,,,,,,,,,,,,,,,,,,,,,,,,,,,,,,,,,,,,,,,,,,,,,,,,,,,,,,,,,,,,,,,,,,,,,,,,,,,,,,,,,,,,,,,,,,,,,,,,,,,,,,,,,,,,,,,,,,,,,,,,,,,,,,,,
,,,,,,61386094902c2d666abf75f6,62bbfa5f658a9bdb2a101e36,2022-06-29_09h09.06.545,Colour_Asymmetry_Pilot,2022.1.3,Win32,59.07023451,62bbe60bf3d75ef465d3e404,0,87,87,108,1,threeone,,,,,,,,,,,,,,,,,,,,,,,,,,,,,,,,,,,,,,,,,,,,,,,,,,,,,,,,,,,,,,,,,,,,,,,,,,,,,,,,,,,,,,,,,,,,,,,,,,,,,,,,,,,,,,,,,,,,,,,,,,,,,,,,,,,,,,,,,,,,,,,,,,,,,,,
,,,,,,61386094902c2d666abf75f6,62bbfa5f658a9bdb2a101e36,2022-06-29_09h09.06.545,Colour_Asymmetry_Pilot,2022.1.3,Win32,59.07023451,62bbe60bf3d75ef465d3e404,0,88,88,46,1,fourtwo,,,,,,,,,,,,,,,,,,,,,,,,,,,,,,,,,,,,,,,,,,,,,,,,,,,,,,,,,,,,,,,,,,,,,,,,,,,,,,,,,,,,,,,,,,,,,,,,,,,,,,,,,,,,,,,,,,,,,,,,,,,,,,,,,,,,,,,,,,,,,,,,,,,,,,,
,,,,,,61386094902c2d666abf75f6,62bbfa5f658a9bdb2a101e36,2022-06-29_09h09.06.545,Colour_Asymmetry_Pilot,2022.1.3,Win32,59.07023451,62bbe60bf3d75ef465d3e404,0,89,89,145,1,onethree,,,,,,,,,,,,,,,,,,,,,,,,,,,,,,,,,,,,,,,,,,,,,,,,,,,,,,,,,,,,,,,,,,,,,,,,,,,,,,,,,,,,,,,,,,,,,,,,,,,,,,,,,,,,,,,,,,,,,,,,,,,,,,,,,,,,,,,,,,,,,,,,,,,,,,,
,,,,,,61386094902c2d666abf75f6,62bbfa5f658a9bdb2a101e36,2022-06-29_09h09.06.545,Colour_Asymmetry_Pilot,2022.1.3,Win32,59.07023451,62bbe60bf3d75ef465d3e404,0,90,90,83,1,twofour,,,,,,,,,,,,,,,,,,,,,,,,,,,,,,,,,,,,,,,,,,,,,,,,,,,,,,,,,,,,,,,,,,,,,,,,,,,,,,,,,,,,,,,,,,,,,,,,,,,,,,,,,,,,,,,,,,,,,,,,,,,,,,,,,,,,,,,,,,,,,,,,,,,,,,,
,,,,,,61386094902c2d666abf75f6,62bbfa5f658a9bdb2a101e36,2022-06-29_09h09.06.545,Colour_Asymmetry_Pilot,2022.1.3,Win32,59.07023451,62bbe60bf3d75ef465d3e404,0,91,91,103,1,fourthree,,,,,,,,,,,,,,,,,,,,,,,,,,,,,,,,,,,,,,,,,,,,,,,,,,,,,,,,,,,,,,,,,,,,,,,,,,,,,,,,,,,,,,,,,,,,,,,,,,,,,,,,,,,,,,,,,,,,,,,,,,,,,,,,,,,,,,,,,,,,,,,,,,,,,,,
,,,,,,61386094902c2d666abf75f6,62bbfa5f658a9bdb2a101e36,2022-06-29_09h09.06.545,Colour_Asymmetry_Pilot,2022.1.3,Win32,59.07023451,62bbe60bf3d75ef465d3e404,0,92,92,58,1,twoone,,,,,,,,,,,,,,,,,,,,,,,,,,,,,,,,,,,,,,,,,,,,,,,,,,,,,,,,,,,,,,,,,,,,,,,,,,,,,,,,,,,,,,,,,,,,,,,,,,,,,,,,,,,,,,,,,,,,,,,,,,,,,,,,,,,,,,,,,,,,,,,,,,,,,,,
,,,,,,61386094902c2d666abf75f6,62bbfa5f658a9bdb2a101e36,2022-06-29_09h09.06.545,Colour_Asymmetry_Pilot,2022.1.3,Win32,59.07023451,62bbe60bf3d75ef465d3e404,0,93,93,123,1,twofour,,,,,,,,,,,,,,,,,,,,,,,,,,,,,,,,,,,,,,,,,,,,,,,,,,,,,,,,,,,,,,,,,,,,,,,,,,,,,,,,,,,,,,,,,,,,,,,,,,,,,,,,,,,,,,,,,,,,,,,,,,,,,,,,,,,,,,,,,,,,,,,,,,,,,,,
,,,,,,61386094902c2d666abf75f6,62bbfa5f658a9bdb2a101e36,2022-06-29_09h09.06.545,Colour_Asymmetry_Pilot,2022.1.3,Win32,59.07023451,62bbe60bf3d75ef465d3e404,0,94,94,50,1,twoone,,,,,,,,,,,,,,,,,,,,,,,,,,,,,,,,,,,,,,,,,,,,,,,,,,,,,,,,,,,,,,,,,,,,,,,,,,,,,,,,,,,,,,,,,,,,,,,,,,,,,,,,,,,,,,,,,,,,,,,,,,,,,,,,,,,,,,,,,,,,,,,,,,,,,,,
,,,,,,61386094902c2d666abf75f6,62bbfa5f658a9bdb2a101e36,2022-06-29_09h09.06.545,Colour_Asymmetry_Pilot,2022.1.3,Win32,59.07023451,62bbe60bf3d75ef465d3e404,0,95,95,21,1,threefour,,,,,,,,,,,,,,,,,,,,,,,,,,,,,,,,,,,,,,,,,,,,,,,,,,,,,,,,,,,,,,,,,,,,,,,,,,,,,,,,,,,,,,,,,,,,,,,,,,,,,,,,,,,,,,,,,,,,,,,,,,,,,,,,,,,,,,,,,,,,,,,,,,,,,,,
,,,,,,61386094902c2d666abf75f6,62bbfa5f658a9bdb2a101e36,2022-06-29_09h09.06.545,Colour_Asymmetry_Pilot,2022.1.3,Win32,59.07023451,62bbe60bf3d75ef465d3e404,0,96,96,124,1,threeone,,,,,,,,,,,,,,,,,,,,,,,,,,,,,,,,,,,,,,,,,,,,,,,,,,,,,,,,,,,,,,,,,,,,,,,,,,,,,,,,,,,,,,,,,,,,,,,,,,,,,,,,,,,,,,,,,,,,,,,,,,,,,,,,,,,,,,,,,,,,,,,,,,,,,,,
,,,,,,61386094902c2d666abf75f6,62bbfa5f658a9bdb2a101e36,2022-06-29_09h09.06.545,Colour_Asymmetry_Pilot,2022.1.3,Win32,59.07023451,62bbe60bf3d75ef465d3e404,0,97,97,79,1,fourthree,,,,,,,,,,,,,,,,,,,,,,,,,,,,,,,,,,,,,,,,,,,,,,,,,,,,,,,,,,,,,,,,,,,,,,,,,,,,,,,,,,,,,,,,,,,,,,,,,,,,,,,,,,,,,,,,,,,,,,,,,,,,,,,,,,,,,,,,,,,,,,,,,,,,,,,
,,,,,,61386094902c2d666abf75f6,62bbfa5f658a9bdb2a101e36,2022-06-29_09h09.06.545,Colour_Asymmetry_Pilot,2022.1.3,Win32,59.07023451,62bbe60bf3d75ef465d3e404,0,98,98,120,1,onetwo,,,,,,,,,,,,,,,,,,,,,,,,,,,,,,,,,,,,,,,,,,,,,,,,,,,,,,,,,,,,,,,,,,,,,,,,,,,,,,,,,,,,,,,,,,,,,,,,,,,,,,,,,,,,,,,,,,,,,,,,,,,,,,,,,,,,,,,,,,,,,,,,,,,,,,,
,,,,,,61386094902c2d666abf75f6,62bbfa5f658a9bdb2a101e36,2022-06-29_09h09.06.545,Colour_Asymmetry_Pilot,2022.1.3,Win32,59.07023451,62bbe60bf3d75ef465d3e404,0,99,99,35,1,twofour,,,,,,,,,,,,,,,,,,,,,,,,,,,,,,,,,,,,,,,,,,,,,,,,,,,,,,,,,,,,,,,,,,,,,,,,,,,,,,,,,,,,,,,,,,,,,,,,,,,,,,,,,,,,,,,,,,,,,,,,,,,,,,,,,,,,,,,,,,,,,,,,,,,,,,,
,,,,,,61386094902c2d666abf75f6,62bbfa5f658a9bdb2a101e36,2022-06-29_09h09.06.545,Colour_Asymmetry_Pilot,2022.1.3,Win32,59.07023451,62bbe60bf3d75ef465d3e404,0,100,100,89,1,onethree,,,,,,,,,,,,,,,,,,,,,,,,,,,,,,,,,,,,,,,,,,,,,,,,,,,,,,,,,,,,,,,,,,,,,,,,,,,,,,,,,,,,,,,,,,,,,,,,,,,,,,,,,,,,,,,,,,,,,,,,,,,,,,,,,,,,,,,,,,,,,,,,,,,,,,,
,,,,,,61386094902c2d666abf75f6,62bbfa5f658a9bdb2a101e36,2022-06-29_09h09.06.545,Colour_Asymmetry_Pilot,2022.1.3,Win32,59.07023451,62bbe60bf3d75ef465d3e404,0,101,101,119,1,fourthree,,,,,,,,,,,,,,,,,,,,,,,,,,,,,,,,,,,,,,,,,,,,,,,,,,,,,,,,,,,,,,,,,,,,,,,,,,,,,,,,,,,,,,,,,,,,,,,,,,,,,,,,,,,,,,,,,,,,,,,,,,,,,,,,,,,,,,,,,,,,,,,,,,,,,,,
,,,,,,61386094902c2d666abf75f6,62bbfa5f658a9bdb2a101e36,2022-06-29_09h09.06.545,Colour_Asymmetry_Pilot,2022.1.3,Win32,59.07023451,62bbe60bf3d75ef465d3e404,0,102,102,110,1,fourtwo,,,,,,,,,,,,,,,,,,,,,,,,,,,,,,,,,,,,,,,,,,,,,,,,,,,,,,,,,,,,,,,,,,,,,,,,,,,,,,,,,,,,,,,,,,,,,,,,,,,,,,,,,,,,,,,,,,,,,,,,,,,,,,,,,,,,,,,,,,,,,,,,,,,,,,,
,,,,,,61386094902c2d666abf75f6,62bbfa5f658a9bdb2a101e36,2022-06-29_09h09.06.545,Colour_Asymmetry_Pilot,2022.1.3,Win32,59.07023451,62bbe60bf3d75ef465d3e404,0,103,103,102,1,fourtwo,,,,,,,,,,,,,,,,,,,,,,,,,,,,,,,,,,,,,,,,,,,,,,,,,,,,,,,,,,,,,,,,,,,,,,,,,,,,,,,,,,,,,,,,,,,,,,,,,,,,,,,,,,,,,,,,,,,,,,,,,,,,,,,,,,,,,,,,,,,,,,,,,,,,,,,
,,,,,,61386094902c2d666abf75f6,62bbfa5f658a9bdb2a101e36,2022-06-29_09h09.06.545,Colour_Asymmetry_Pilot,2022.1.3,Win32,59.07023451,62bbe60bf3d75ef465d3e404,0,104,104,113,1,onethree,,,,,,,,,,,,,,,,,,,,,,,,,,,,,,,,,,,,,,,,,,,,,,,,,,,,,,,,,,,,,,,,,,,,,,,,,,,,,,,,,,,,,,,,,,,,,,,,,,,,,,,,,,,,,,,,,,,,,,,,,,,,,,,,,,,,,,,,,,,,,,,,,,,,,,,
,,,,,,61386094902c2d666abf75f6,62bbfa5f658a9bdb2a101e36,2022-06-29_09h09.06.545,Colour_Asymmetry_Pilot,2022.1.3,Win32,59.07023451,62bbe60bf3d75ef465d3e404,0,105,105,148,1,threeone,,,,,,,,,,,,,,,,,,,,,,,,,,,,,,,,,,,,,,,,,,,,,,,,,,,,,,,,,,,,,,,,,,,,,,,,,,,,,,,,,,,,,,,,,,,,,,,,,,,,,,,,,,,,,,,,,,,,,,,,,,,,,,,,,,,,,,,,,,,,,,,,,,,,,,,
,,,,,,61386094902c2d666abf75f6,62bbfa5f658a9bdb2a101e36,2022-06-29_09h09.06.545,Colour_Asymmetry_Pilot,2022.1.3,Win32,59.07023451,62bbe60bf3d75ef465d3e404,0,106,106,25,1,onethree,,,,,,,,,,,,,,,,,,,,,,,,,,,,,,,,,,,,,,,,,,,,,,,,,,,,,,,,,,,,,,,,,,,,,,,,,,,,,,,,,,,,,,,,,,,,,,,,,,,,,,,,,,,,,,,,,,,,,,,,,,,,,,,,,,,,,,,,,,,,,,,,,,,,,,,
,,,,,,61386094902c2d666abf75f6,62bbfa5f658a9bdb2a101e36,2022-06-29_09h09.06.545,Colour_Asymmetry_Pilot,2022.1.3,Win32,59.07023451,62bbe60bf3d75ef465d3e404,0,107,107,117,1,threefour,,,,,,,,,,,,,,,,,,,,,,,,,,,,,,,,,,,,,,,,,,,,,,,,,,,,,,,,,,,,,,,,,,,,,,,,,,,,,,,,,,,,,,,,,,,,,,,,,,,,,,,,,,,,,,,,,,,,,,,,,,,,,,,,,,,,,,,,,,,,,,,,,,,,,,,
,,,,,,61386094902c2d666abf75f6,62bbfa5f658a9bdb2a101e36,2022-06-29_09h09.06.545,Colour_Asymmetry_Pilot,2022.1.3,Win32,59.07023451,62bbe60bf3d75ef465d3e404,0,108,108,94,1,fourtwo,,,,,,,,,,,,,,,,,,,,,,,,,,,,,,,,,,,,,,,,,,,,,,,,,,,,,,,,,,,,,,,,,,,,,,,,,,,,,,,,,,,,,,,,,,,,,,,,,,,,,,,,,,,,,,,,,,,,,,,,,,,,,,,,,,,,,,,,,,,,,,,,,,,,,,,
,,,,,,61386094902c2d666abf75f6,62bbfa5f658a9bdb2a101e36,2022-06-29_09h09.06.545,Colour_Asymmetry_Pilot,2022.1.3,Win32,59.07023451,62bbe60bf3d75ef465d3e404,0,109,109,20,1,threeone,,,,,,,,,,,,,,,,,,,,,,,,,,,,,,,,,,,,,,,,,,,,,,,,,,,,,,,,,,,,,,,,,,,,,,,,,,,,,,,,,,,,,,,,,,,,,,,,,,,,,,,,,,,,,,,,,,,,,,,,,,,,,,,,,,,,,,,,,,,,,,,,,,,,,,,
,,,,,,61386094902c2d666abf75f6,62bbfa5f658a9bdb2a101e36,2022-06-29_09h09.06.545,Colour_Asymmetry_Pilot,2022.1.3,Win32,59.07023451,62bbe60bf3d75ef465d3e404,0,110,110,136,1,onetwo,,,,,,,,,,,,,,,,,,,,,,,,,,,,,,,,,,,,,,,,,,,,,,,,,,,,,,,,,,,,,,,,,,,,,,,,,,,,,,,,,,,,,,,,,,,,,,,,,,,,,,,,,,,,,,,,,,,,,,,,,,,,,,,,,,,,,,,,,,,,,,,,,,,,,,,
,,,,,,61386094902c2d666abf75f6,62bbfa5f658a9bdb2a101e36,2022-06-29_09h09.06.545,Colour_Asymmetry_Pilot,2022.1.3,Win32,59.07023451,62bbe60bf3d75ef465d3e404,0,111,111,122,1,twoone,,,,,,,,,,,,,,,,,,,,,,,,,,,,,,,,,,,,,,,,,,,,,,,,,,,,,,,,,,,,,,,,,,,,,,,,,,,,,,,,,,,,,,,,,,,,,,,,,,,,,,,,,,,,,,,,,,,,,,,,,,,,,,,,,,,,,,,,,,,,,,,,,,,,,,,
,,,,,,61386094902c2d666abf75f6,62bbfa5f658a9bdb2a101e36,2022-06-29_09h09.06.545,Colour_Asymmetry_Pilot,2022.1.3,Win32,59.07023451,62bbe60bf3d75ef465d3e404,0,112,112,47,1,fourthree,,,,,,,,,,,,,,,,,,,,,,,,,,,,,,,,,,,,,,,,,,,,,,,,,,,,,,,,,,,,,,,,,,,,,,,,,,,,,,,,,,,,,,,,,,,,,,,,,,,,,,,,,,,,,,,,,,,,,,,,,,,,,,,,,,,,,,,,,,,,,,,,,,,,,,,
,,,,,,61386094902c2d666abf75f6,62bbfa5f658a9bdb2a101e36,2022-06-29_09h09.06.545,Colour_Asymmetry_Pilot,2022.1.3,Win32,59.07023451,62bbe60bf3d75ef465d3e404,0,113,113,152,1,onetwo,,,,,,,,,,,,,,,,,,,,,,,,,,,,,,,,,,,,,,,,,,,,,,,,,,,,,,,,,,,,,,,,,,,,,,,,,,,,,,,,,,,,,,,,,,,,,,,,,,,,,,,,,,,,,,,,,,,,,,,,,,,,,,,,,,,,,,,,,,,,,,,,,,,,,,,
,,,,,,61386094902c2d666abf75f6,62bbfa5f658a9bdb2a101e36,2022-06-29_09h09.06.545,Colour_Asymmetry_Pilot,2022.1.3,Win32,59.07023451,62bbe60bf3d75ef465d3e404,0,114,114,97,1,onethree,,,,,,,,,,,,,,,,,,,,,,,,,,,,,,,,,,,,,,,,,,,,,,,,,,,,,,,,,,,,,,,,,,,,,,,,,,,,,,,,,,,,,,,,,,,,,,,,,,,,,,,,,,,,,,,,,,,,,,,,,,,,,,,,,,,,,,,,,,,,,,,,,,,,,,,
,,,,,,61386094902c2d666abf75f6,62bbfa5f658a9bdb2a101e36,2022-06-29_09h09.06.545,Colour_Asymmetry_Pilot,2022.1.3,Win32,59.07023451,62bbe60bf3d75ef465d3e404,0,115,115,80,1,onetwo,,,,,,,,,,,,,,,,,,,,,,,,,,,,,,,,,,,,,,,,,,,,,,,,,,,,,,,,,,,,,,,,,,,,,,,,,,,,,,,,,,,,,,,,,,,,,,,,,,,,,,,,,,,,,,,,,,,,,,,,,,,,,,,,,,,,,,,,,,,,,,,,,,,,,,,
,,,,,,61386094902c2d666abf75f6,62bbfa5f658a9bdb2a101e36,2022-06-29_09h09.06.545,Colour_Asymmetry_Pilot,2022.1.3,Win32,59.07023451,62bbe60bf3d75ef465d3e404,0,116,116,9,1,onethree,,,,,,,,,,,,,,,,,,,,,,,,,,,,,,,,,,,,,,,,,,,,,,,,,,,,,,,,,,,,,,,,,,,,,,,,,,,,,,,,,,,,,,,,,,,,,,,,,,,,,,,,,,,,,,,,,,,,,,,,,,,,,,,,,,,,,,,,,,,,,,,,,,,,,,,
,,,,,,61386094902c2d666abf75f6,62bbfa5f658a9bdb2a101e36,2022-06-29_09h09.06.545,Colour_Asymmetry_Pilot,2022.1.3,Win32,59.07023451,62bbe60bf3d75ef465d3e404,0,117,117,49,1,onethree,,,,,,,,,,,,,,,,,,,,,,,,,,,,,,,,,,,,,,,,,,,,,,,,,,,,,,,,,,,,,,,,,,,,,,,,,,,,,,,,,,,,,,,,,,,,,,,,,,,,,,,,,,,,,,,,,,,,,,,,,,,,,,,,,,,,,,,,,,,,,,,,,,,,,,,
,,,,,,61386094902c2d666abf75f6,62bbfa5f658a9bdb2a101e36,2022-06-29_09h09.06.545,Colour_Asymmetry_Pilot,2022.1.3,Win32,59.07023451,62bbe60bf3d75ef465d3e404,0,118,118,104,1,onetwo,,,,,,,,,,,,,,,,,,,,,,,,,,,,,,,,,,,,,,,,,,,,,,,,,,,,,,,,,,,,,,,,,,,,,,,,,,,,,,,,,,,,,,,,,,,,,,,,,,,,,,,,,,,,,,,,,,,,,,,,,,,,,,,,,,,,,,,,,,,,,,,,,,,,,,,
,,,,,,61386094902c2d666abf75f6,62bbfa5f658a9bdb2a101e36,2022-06-29_09h09.06.545,Colour_Asymmetry_Pilot,2022.1.3,Win32,59.07023451,62bbe60bf3d75ef465d3e404,0,119,119,18,1,twoone,,,,,,,,,,,,,,,,,,,,,,,,,,,,,,,,,,,,,,,,,,,,,,,,,,,,,,,,,,,,,,,,,,,,,,,,,,,,,,,,,,,,,,,,,,,,,,,,,,,,,,,,,,,,,,,,,,,,,,,,,,,,,,,,,,,,,,,,,,,,,,,,,,,,,,,
,,,,,,61386094902c2d666abf75f6,62bbfa5f658a9bdb2a101e36,2022-06-29_09h09.06.545,Colour_Asymmetry_Pilot,2022.1.3,Win32,59.07023451,62bbe60bf3d75ef465d3e404,0,120,120,96,1,onetwo,,,,,,,,,,,,,,,,,,,,,,,,,,,,,,,,,,,,,,,,,,,,,,,,,,,,,,,,,,,,,,,,,,,,,,,,,,,,,,,,,,,,,,,,,,,,,,,,,,,,,,,,,,,,,,,,,,,,,,,,,,,,,,,,,,,,,,,,,,,,,,,,,,,,,,,
,,,,,,61386094902c2d666abf75f6,62bbfa5f658a9bdb2a101e36,2022-06-29_09h09.06.545,Colour_Asymmetry_Pilot,2022.1.3,Win32,59.07023451,62bbe60bf3d75ef465d3e404,0,121,121,127,1,fourthree,,,,,,,,,,,,,,,,,,,,,,,,,,,,,,,,,,,,,,,,,,,,,,,,,,,,,,,,,,,,,,,,,,,,,,,,,,,,,,,,,,,,,,,,,,,,,,,,,,,,,,,,,,,,,,,,,,,,,,,,,,,,,,,,,,,,,,,,,,,,,,,,,,,,,,,
,,,,,,61386094902c2d666abf75f6,62bbfa5f658a9bdb2a101e36,2022-06-29_09h09.06.545,Colour_Asymmetry_Pilot,2022.1.3,Win32,59.07023451,62bbe60bf3d75ef465d3e404,0,122,122,121,1,onethree,,,,,,,,,,,,,,,,,,,,,,,,,,,,,,,,,,,,,,,,,,,,,,,,,,,,,,,,,,,,,,,,,,,,,,,,,,,,,,,,,,,,,,,,,,,,,,,,,,,,,,,,,,,,,,,,,,,,,,,,,,,,,,,,,,,,,,,,,,,,,,,,,,,,,,,
,,,,,,61386094902c2d666abf75f6,62bbfa5f658a9bdb2a101e36,2022-06-29_09h09.06.545,Colour_Asymmetry_Pilot,2022.1.3,Win32,59.07023451,62bbe60bf3d75ef465d3e404,0,123,123,8,1,onetwo,,,,,,,,,,,,,,,,,,,,,,,,,,,,,,,,,,,,,,,,,,,,,,,,,,,,,,,,,,,,,,,,,,,,,,,,,,,,,,,,,,,,,,,,,,,,,,,,,,,,,,,,,,,,,,,,,,,,,,,,,,,,,,,,,,,,,,,,,,,,,,,,,,,,,,,
,,,,,,61386094902c2d666abf75f6,62bbfa5f658a9bdb2a101e36,2022-06-29_09h09.06.545,Colour_Asymmetry_Pilot,2022.1.3,Win32,59.07023451,62bbe60bf3d75ef465d3e404,0,124,124,95,1,fourthree,,,,,,,,,,,,,,,,,,,,,,,,,,,,,,,,,,,,,,,,,,,,,,,,,,,,,,,,,,,,,,,,,,,,,,,,,,,,,,,,,,,,,,,,,,,,,,,,,,,,,,,,,,,,,,,,,,,,,,,,,,,,,,,,,,,,,,,,,,,,,,,,,,,,,,,
,,,,,,61386094902c2d666abf75f6,62bbfa5f658a9bdb2a101e36,2022-06-29_09h09.06.545,Colour_Asymmetry_Pilot,2022.1.3,Win32,59.07023451,62bbe60bf3d75ef465d3e404,0,125,125,64,1,onetwo,,,,,,,,,,,,,,,,,,,,,,,,,,,,,,,,,,,,,,,,,,,,,,,,,,,,,,,,,,,,,,,,,,,,,,,,,,,,,,,,,,,,,,,,,,,,,,,,,,,,,,,,,,,,,,,,,,,,,,,,,,,,,,,,,,,,,,,,,,,,,,,,,,,,,,,
,,,,,,61386094902c2d666abf75f6,62bbfa5f658a9bdb2a101e36,2022-06-29_09h09.06.545,Colour_Asymmetry_Pilot,2022.1.3,Win32,59.07023451,62bbe60bf3d75ef465d3e404,0,126,126,116,1,threeone,,,,,,,,,,,,,,,,,,,,,,,,,,,,,,,,,,,,,,,,,,,,,,,,,,,,,,,,,,,,,,,,,,,,,,,,,,,,,,,,,,,,,,,,,,,,,,,,,,,,,,,,,,,,,,,,,,,,,,,,,,,,,,,,,,,,,,,,,,,,,,,,,,,,,,,
,,,,,,61386094902c2d666abf75f6,62bbfa5f658a9bdb2a101e36,2022-06-29_09h09.06.545,Colour_Asymmetry_Pilot,2022.1.3,Win32,59.07023451,62bbe60bf3d75ef465d3e404,0,127,127,77,1,threefour,,,,,,,,,,,,,,,,,,,,,,,,,,,,,,,,,,,,,,,,,,,,,,,,,,,,,,,,,,,,,,,,,,,,,,,,,,,,,,,,,,,,,,,,,,,,,,,,,,,,,,,,,,,,,,,,,,,,,,,,,,,,,,,,,,,,,,,,,,,,,,,,,,,,,,,
,,,,,,61386094902c2d666abf75f6,62bbfa5f658a9bdb2a101e36,2022-06-29_09h09.06.545,Colour_Asymmetry_Pilot,2022.1.3,Win32,59.07023451,62bbe60bf3d75ef465d3e404,0,128,128,73,1,onethree,,,,,,,,,,,,,,,,,,,,,,,,,,,,,,,,,,,,,,,,,,,,,,,,,,,,,,,,,,,,,,,,,,,,,,,,,,,,,,,,,,,,,,,,,,,,,,,,,,,,,,,,,,,,,,,,,,,,,,,,,,,,,,,,,,,,,,,,,,,,,,,,,,,,,,,
,,,,,,61386094902c2d666abf75f6,62bbfa5f658a9bdb2a101e36,2022-06-29_09h09.06.545,Colour_Asymmetry_Pilot,2022.1.3,Win32,59.07023451,62bbe60bf3d75ef465d3e404,0,129,129,92,1,threeone,,,,,,,,,,,,,,,,,,,,,,,,,,,,,,,,,,,,,,,,,,,,,,,,,,,,,,,,,,,,,,,,,,,,,,,,,,,,,,,,,,,,,,,,,,,,,,,,,,,,,,,,,,,,,,,,,,,,,,,,,,,,,,,,,,,,,,,,,,,,,,,,,,,,,,,
,,,,,,61386094902c2d666abf75f6,62bbfa5f658a9bdb2a101e36,2022-06-29_09h09.06.545,Colour_Asymmetry_Pilot,2022.1.3,Win32,59.07023451,62bbe60bf3d75ef465d3e404,0,130,130,42,1,twoone,,,,,,,,,,,,,,,,,,,,,,,,,,,,,,,,,,,,,,,,,,,,,,,,,,,,,,,,,,,,,,,,,,,,,,,,,,,,,,,,,,,,,,,,,,,,,,,,,,,,,,,,,,,,,,,,,,,,,,,,,,,,,,,,,,,,,,,,,,,,,,,,,,,,,,,
,,,,,,61386094902c2d666abf75f6,62bbfa5f658a9bdb2a101e36,2022-06-29_09h09.06.545,Colour_Asymmetry_Pilot,2022.1.3,Win32,59.07023451,62bbe60bf3d75ef465d3e404,0,131,131,84,1,threeone,,,,,,,,,,,,,,,,,,,,,,,,,,,,,,,,,,,,,,,,,,,,,,,,,,,,,,,,,,,,,,,,,,,,,,,,,,,,,,,,,,,,,,,,,,,,,,,,,,,,,,,,,,,,,,,,,,,,,,,,,,,,,,,,,,,,,,,,,,,,,,,,,,,,,,,
,,,,,,61386094902c2d666abf75f6,62bbfa5f658a9bdb2a101e36,2022-06-29_09h09.06.545,Colour_Asymmetry_Pilot,2022.1.3,Win32,59.07023451,62bbe60bf3d75ef465d3e404,0,132,132,151,1,fourthree,,,,,,,,,,,,,,,,,,,,,,,,,,,,,,,,,,,,,,,,,,,,,,,,,,,,,,,,,,,,,,,,,,,,,,,,,,,,,,,,,,,,,,,,,,,,,,,,,,,,,,,,,,,,,,,,,,,,,,,,,,,,,,,,,,,,,,,,,,,,,,,,,,,,,,,
,,,,,,61386094902c2d666abf75f6,62bbfa5f658a9bdb2a101e36,2022-06-29_09h09.06.545,Colour_Asymmetry_Pilot,2022.1.3,Win32,59.07023451,62bbe60bf3d75ef465d3e404,0,133,133,1,1,onethree,,,,,,,,,,,,,,,,,,,,,,,,,,,,,,,,,,,,,,,,,,,,,,,,,,,,,,,,,,,,,,,,,,,,,,,,,,,,,,,,,,,,,,,,,,,,,,,,,,,,,,,,,,,,,,,,,,,,,,,,,,,,,,,,,,,,,,,,,,,,,,,,,,,,,,,
,,,,,,61386094902c2d666abf75f6,62bbfa5f658a9bdb2a101e36,2022-06-29_09h09.06.545,Colour_Asymmetry_Pilot,2022.1.3,Win32,59.07023451,62bbe60bf3d75ef465d3e404,0,134,134,19,1,twofour,,,,,,,,,,,,,,,,,,,,,,,,,,,,,,,,,,,,,,,,,,,,,,,,,,,,,,,,,,,,,,,,,,,,,,,,,,,,,,,,,,,,,,,,,,,,,,,,,,,,,,,,,,,,,,,,,,,,,,,,,,,,,,,,,,,,,,,,,,,,,,,,,,,,,,,
,,,,,,61386094902c2d666abf75f6,62bbfa5f658a9bdb2a101e36,2022-06-29_09h09.06.545,Colour_Asymmetry_Pilot,2022.1.3,Win32,59.07023451,62bbe60bf3d75ef465d3e404,0,135,135,15,1,fourthree,,,,,,,,,,,,,,,,,,,,,,,,,,,,,,,,,,,,,,,,,,,,,,,,,,,,,,,,,,,,,,,,,,,,,,,,,,,,,,,,,,,,,,,,,,,,,,,,,,,,,,,,,,,,,,,,,,,,,,,,,,,,,,,,,,,,,,,,,,,,,,,,,,,,,,,
,,,,,,61386094902c2d666abf75f6,62bbfa5f658a9bdb2a101e36,2022-06-29_09h09.06.545,Colour_Asymmetry_Pilot,2022.1.3,Win32,59.07023451,62bbe60bf3d75ef465d3e404,0,136,136,130,1,twoone,,,,,,,,,,,,,,,,,,,,,,,,,,,,,,,,,,,,,,,,,,,,,,,,,,,,,,,,,,,,,,,,,,,,,,,,,,,,,,,,,,,,,,,,,,,,,,,,,,,,,,,,,,,,,,,,,,,,,,,,,,,,,,,,,,,,,,,,,,,,,,,,,,,,,,,
,,,,,,61386094902c2d666abf75f6,62bbfa5f658a9bdb2a101e36,2022-06-29_09h09.06.545,Colour_Asymmetry_Pilot,2022.1.3,Win32,59.07023451,62bbe60bf3d75ef465d3e404,0,137,137,51,1,twofour,,,,,,,,,,,,,,,,,,,,,,,,,,,,,,,,,,,,,,,,,,,,,,,,,,,,,,,,,,,,,,,,,,,,,,,,,,,,,,,,,,,,,,,,,,,,,,,,,,,,,,,,,,,,,,,,,,,,,,,,,,,,,,,,,,,,,,,,,,,,,,,,,,,,,,,
,,,,,,61386094902c2d666abf75f6,62bbfa5f658a9bdb2a101e36,2022-06-29_09h09.06.545,Colour_Asymmetry_Pilot,2022.1.3,Win32,59.07023451,62bbe60bf3d75ef465d3e404,0,138,138,153,1,onethree,,,,,,,,,,,,,,,,,,,,,,,,,,,,,,,,,,,,,,,,,,,,,,,,,,,,,,,,,,,,,,,,,,,,,,,,,,,,,,,,,,,,,,,,,,,,,,,,,,,,,,,,,,,,,,,,,,,,,,,,,,,,,,,,,,,,,,,,,,,,,,,,,,,,,,,
,,,,,,61386094902c2d666abf75f6,62bbfa5f658a9bdb2a101e36,2022-06-29_09h09.06.545,Colour_Asymmetry_Pilot,2022.1.3,Win32,59.07023451,62bbe60bf3d75ef465d3e404,0,139,139,132,1,threeone,,,,,,,,,,,,,,,,,,,,,,,,,,,,,,,,,,,,,,,,,,,,,,,,,,,,,,,,,,,,,,,,,,,,,,,,,,,,,,,,,,,,,,,,,,,,,,,,,,,,,,,,,,,,,,,,,,,,,,,,,,,,,,,,,,,,,,,,,,,,,,,,,,,,,,,
,,,,,,61386094902c2d666abf75f6,62bbfa5f658a9bdb2a101e36,2022-06-29_09h09.06.545,Colour_Asymmetry_Pilot,2022.1.3,Win32,59.07023451,62bbe60bf3d75ef465d3e404,0,140,140,54,1,fourtwo,,,,,,,,,,,,,,,,,,,,,,,,,,,,,,,,,,,,,,,,,,,,,,,,,,,,,,,,,,,,,,,,,,,,,,,,,,,,,,,,,,,,,,,,,,,,,,,,,,,,,,,,,,,,,,,,,,,,,,,,,,,,,,,,,,,,,,,,,,,,,,,,,,,,,,,
,,,,,,61386094902c2d666abf75f6,62bbfa5f658a9bdb2a101e36,2022-06-29_09h09.06.545,Colour_Asymmetry_Pilot,2022.1.3,Win32,59.07023451,62bbe60bf3d75ef465d3e404,0,141,141,53,1,threefour,,,,,,,,,,,,,,,,,,,,,,,,,,,,,,,,,,,,,,,,,,,,,,,,,,,,,,,,,,,,,,,,,,,,,,,,,,,,,,,,,,,,,,,,,,,,,,,,,,,,,,,,,,,,,,,,,,,,,,,,,,,,,,,,,,,,,,,,,,,,,,,,,,,,,,,
,,,,,,61386094902c2d666abf75f6,62bbfa5f658a9bdb2a101e36,2022-06-29_09h09.06.545,Colour_Asymmetry_Pilot,2022.1.3,Win32,59.07023451,62bbe60bf3d75ef465d3e404,0,142,142,69,1,threefour,,,,,,,,,,,,,,,,,,,,,,,,,,,,,,,,,,,,,,,,,,,,,,,,,,,,,,,,,,,,,,,,,,,,,,,,,,,,,,,,,,,,,,,,,,,,,,,,,,,,,,,,,,,,,,,,,,,,,,,,,,,,,,,,,,,,,,,,,,,,,,,,,,,,,,,
,,,,,,61386094902c2d666abf75f6,62bbfa5f658a9bdb2a101e36,2022-06-29_09h09.06.545,Colour_Asymmetry_Pilot,2022.1.3,Win32,59.07023451,62bbe60bf3d75ef465d3e404,0,143,143,155,1,twofour,,,,,,,,,,,,,,,,,,,,,,,,,,,,,,,,,,,,,,,,,,,,,,,,,,,,,,,,,,,,,,,,,,,,,,,,,,,,,,,,,,,,,,,,,,,,,,,,,,,,,,,,,,,,,,,,,,,,,,,,,,,,,,,,,,,,,,,,,,,,,,,,,,,,,,,
,,,,,,61386094902c2d666abf75f6,62bbfa5f658a9bdb2a101e36,2022-06-29_09h09.06.545,Colour_Asymmetry_Pilot,2022.1.3,Win32,59.07023451,62bbe60bf3d75ef465d3e404,0,144,144,61,1,threefour,,,,,,,,,,,,,,,,,,,,,,,,,,,,,,,,,,,,,,,,,,,,,,,,,,,,,,,,,,,,,,,,,,,,,,,,,,,,,,,,,,,,,,,,,,,,,,,,,,,,,,,,,,,,,,,,,,,,,,,,,,,,,,,,,,,,,,,,,,,,,,,,,,,,,,,
,,,,,,61386094902c2d666abf75f6,62bbfa5f658a9bdb2a101e36,2022-06-29_09h09.06.545,Colour_Asymmetry_Pilot,2022.1.3,Win32,59.07023451,62bbe60bf3d75ef465d3e404,0,145,145,82,1,twoone,,,,,,,,,,,,,,,,,,,,,,,,,,,,,,,,,,,,,,,,,,,,,,,,,,,,,,,,,,,,,,,,,,,,,,,,,,,,,,,,,,,,,,,,,,,,,,,,,,,,,,,,,,,,,,,,,,,,,,,,,,,,,,,,,,,,,,,,,,,,,,,,,,,,,,,
,,,,,,61386094902c2d666abf75f6,62bbfa5f658a9bdb2a101e36,2022-06-29_09h09.06.545,Colour_Asymmetry_Pilot,2022.1.3,Win32,59.07023451,62bbe60bf3d75ef465d3e404,0,146,146,13,1,threefour,,,,,,,,,,,,,,,,,,,,,,,,,,,,,,,,,,,,,,,,,,,,,,,,,,,,,,,,,,,,,,,,,,,,,,,,,,,,,,,,,,,,,,,,,,,,,,,,,,,,,,,,,,,,,,,,,,,,,,,,,,,,,,,,,,,,,,,,,,,,,,,,,,,,,,,
,,,,,,61386094902c2d666abf75f6,62bbfa5f658a9bdb2a101e36,2022-06-29_09h09.06.545,Colour_Asymmetry_Pilot,2022.1.3,Win32,59.07023451,62bbe60bf3d75ef465d3e404,0,147,147,87,1,fourthree,,,,,,,,,,,,,,,,,,,,,,,,,,,,,,,,,,,,,,,,,,,,,,,,,,,,,,,,,,,,,,,,,,,,,,,,,,,,,,,,,,,,,,,,,,,,,,,,,,,,,,,,,,,,,,,,,,,,,,,,,,,,,,,,,,,,,,,,,,,,,,,,,,,,,,,
,,,,,,61386094902c2d666abf75f6,62bbfa5f658a9bdb2a101e36,2022-06-29_09h09.06.545,Colour_Asymmetry_Pilot,2022.1.3,Win32,59.07023451,62bbe60bf3d75ef465d3e404,0,148,148,34,1,twoone,,,,,,,,,,,,,,,,,,,,,,,,,,,,,,,,,,,,,,,,,,,,,,,,,,,,,,,,,,,,,,,,,,,,,,,,,,,,,,,,,,,,,,,,,,,,,,,,,,,,,,,,,,,,,,,,,,,,,,,,,,,,,,,,,,,,,,,,,,,,,,,,,,,,,,,
,,,,,,61386094902c2d666abf75f6,62bbfa5f658a9bdb2a101e36,2022-06-29_09h09.06.545,Colour_Asymmetry_Pilot,2022.1.3,Win32,59.07023451,62bbe60bf3d75ef465d3e404,0,149,149,86,1,fourtwo,,,,,,,,,,,,,,,,,,,,,,,,,,,,,,,,,,,,,,,,,,,,,,,,,,,,,,,,,,,,,,,,,,,,,,,,,,,,,,,,,,,,,,,,,,,,,,,,,,,,,,,,,,,,,,,,,,,,,,,,,,,,,,,,,,,,,,,,,,,,,,,,,,,,,,,
,,,,,,61386094902c2d666abf75f6,62bbfa5f658a9bdb2a101e36,2022-06-29_09h09.06.545,Colour_Asymmetry_Pilot,2022.1.3,Win32,59.07023451,62bbe60bf3d75ef465d3e404,0,150,150,36,1,threeone,,,,,,,,,,,,,,,,,,,,,,,,,,,,,,,,,,,,,,,,,,,,,,,,,,,,,,,,,,,,,,,,,,,,,,,,,,,,,,,,,,,,,,,,,,,,,,,,,,,,,,,,,,,,,,,,,,,,,,,,,,,,,,,,,,,,,,,,,,,,,,,,,,,,,,,
,,,,,,61386094902c2d666abf75f6,62bbfa5f658a9bdb2a101e36,2022-06-29_09h09.06.545,Colour_Asymmetry_Pilot,2022.1.3,Win32,59.07023451,62bbe60bf3d75ef465d3e404,0,151,151,3,1,twofour,,,,,,,,,,,,,,,,,,,,,,,,,,,,,,,,,,,,,,,,,,,,,,,,,,,,,,,,,,,,,,,,,,,,,,,,,,,,,,,,,,,,,,,,,,,,,,,,,,,,,,,,,,,,,,,,,,,,,,,,,,,,,,,,,,,,,,,,,,,,,,,,,,,,,,,
,,,,,,61386094902c2d666abf75f6,62bbfa5f658a9bdb2a101e36,2022-06-29_09h09.06.545,Colour_Asymmetry_Pilot,2022.1.3,Win32,59.07023451,62bbe60bf3d75ef465d3e404,0,152,152,115,1,twofour,,,,,,,,,,,,,,,,,,,,,,,,,,,,,,,,,,,,,,,,,,,,,,,,,,,,,,,,,,,,,,,,,,,,,,,,,,,,,,,,,,,,,,,,,,,,,,,,,,,,,,,,,,,,,,,,,,,,,,,,,,,,,,,,,,,,,,,,,,,,,,,,,,,,,,,
,,,,,,61386094902c2d666abf75f6,62bbfa5f658a9bdb2a101e36,2022-06-29_09h09.06.545,Colour_Asymmetry_Pilot,2022.1.3,Win32,59.07023451,62bbe60bf3d75ef465d3e404,0,153,153,0,1,onetwo,,,,,,,,,,,,,,,,,,,,,,,,,,,,,,,,,,,,,,,,,,,,,,,,,,,,,,,,,,,,,,,,,,,,,,,,,,,,,,,,,,,,,,,,,,,,,,,,,,,,,,,,,,,,,,,,,,,,,,,,,,,,,,,,,,,,,,,,,,,,,,,,,,,,,,,
,,,,,,61386094902c2d666abf75f6,62bbfa5f658a9bdb2a101e36,2022-06-29_09h09.06.545,Colour_Asymmetry_Pilot,2022.1.3,Win32,59.07023451,62bbe60bf3d75ef465d3e404,0,154,154,14,1,fourtwo,,,,,,,,,,,,,,,,,,,,,,,,,,,,,,,,,,,,,,,,,,,,,,,,,,,,,,,,,,,,,,,,,,,,,,,,,,,,,,,,,,,,,,,,,,,,,,,,,,,,,,,,,,,,,,,,,,,,,,,,,,,,,,,,,,,,,,,,,,,,,,,,,,,,,,,
,,,,,,61386094902c2d666abf75f6,62bbfa5f658a9bdb2a101e36,2022-06-29_09h09.06.545,Colour_Asymmetry_Pilot,2022.1.3,Win32,59.07023451,62bbe60bf3d75ef465d3e404,0,155,155,161,1,onethree,,,,,,,,,,,,,,,,,,,,,,,,,,,,,,,,,,,,,,,,,,,,,,,,,,,,,,,,,,,,,,,,,,,,,,,,,,,,,,,,,,,,,,,,,,,,,,,,,,,,,,,,,,,,,,,,,,,,,,,,,,,,,,,,,,,,,,,,,,,,,,,,,,,,,,,
,,,,,,61386094902c2d666abf75f6,62bbfa5f658a9bdb2a101e36,2022-06-29_09h09.06.545,Colour_Asymmetry_Pilot,2022.1.3,Win32,59.07023451,62bbe60bf3d75ef465d3e404,0,156,156,147,1,twofour,,,,,,,,,,,,,,,,,,,,,,,,,,,,,,,,,,,,,,,,,,,,,,,,,,,,,,,,,,,,,,,,,,,,,,,,,,,,,,,,,,,,,,,,,,,,,,,,,,,,,,,,,,,,,,,,,,,,,,,,,,,,,,,,,,,,,,,,,,,,,,,,,,,,,,,
,,,,,,61386094902c2d666abf75f6,62bbfa5f658a9bdb2a101e36,2022-06-29_09h09.06.545,Colour_Asymmetry_Pilot,2022.1.3,Win32,59.07023451,62bbe60bf3d75ef465d3e404,0,157,157,114,1,twoone,,,,,,,,,,,,,,,,,,,,,,,,,,,,,,,,,,,,,,,,,,,,,,,,,,,,,,,,,,,,,,,,,,,,,,,,,,,,,,,,,,,,,,,,,,,,,,,,,,,,,,,,,,,,,,,,,,,,,,,,,,,,,,,,,,,,,,,,,,,,,,,,,,,,,,,
,,,,,,61386094902c2d666abf75f6,62bbfa5f658a9bdb2a101e36,2022-06-29_09h09.06.545,Colour_Asymmetry_Pilot,2022.1.3,Win32,59.07023451,62bbe60bf3d75ef465d3e404,0,158,158,154,1,twoone,,,,,,,,,,,,,,,,,,,,,,,,,,,,,,,,,,,,,,,,,,,,,,,,,,,,,,,,,,,,,,,,,,,,,,,,,,,,,,,,,,,,,,,,,,,,,,,,,,,,,,,,,,,,,,,,,,,,,,,,,,,,,,,,,,,,,,,,,,,,,,,,,,,,,,,
,,,,,,61386094902c2d666abf75f6,62bbfa5f658a9bdb2a101e36,2022-06-29_09h09.06.545,Colour_Asymmetry_Pilot,2022.1.3,Win32,59.07023451,62bbe60bf3d75ef465d3e404,0,159,159,33,1,onethree,,,,,,,,,,,,,,,,,,,,,,,,,,,,,,,,,,,,,,,,,,,,,,,,,,,,,,,,,,,,,,,,,,,,,,,,,,,,,,,,,,,,,,,,,,,,,,,,,,,,,,,,,,,,,,,,,,,,,,,,,,,,,,,,,,,,,,,,,,,,,,,,,,,,,,,
,,,,,,61386094902c2d666abf75f6,62bbfa5f658a9bdb2a101e36,2022-06-29_09h09.06.545,Colour_Asymmetry_Pilot,2022.1.3,Win32,59.07023451,62bbe60bf3d75ef465d3e404,0,160,160,6,1,fourtwo,,,,,,,,,,,,,,,,,,,,,,,,,,,,,,,,,,,,,,,,,,,,,,,,,,,,,,,,,,,,,,,,,,,,,,,,,,,,,,,,,,,,,,,,,,,,,,,,,,,,,,,,,,,,,,,,,,,,,,,,,,,,,,,,,,,,,,,,,,,,,,,,,,,,,,,
,,,,,,61386094902c2d666abf75f6,62bbfa5f658a9bdb2a101e36,2022-06-29_09h09.06.545,Colour_Asymmetry_Pilot,2022.1.3,Win32,59.07023451,62bbe60bf3d75ef465d3e404,0,161,161,157,1,threefour,,,,,,,,,,,,,,,,,,,,,,,,,,,,,,,,,,,,,,,,,,,,,,,,,,,,,,,,,,,,,,,,,,,,,,,,,,,,,,,,,,,,,,,,,,,,,,,,,,,,,,,,,,,,,,,,,,,,,,,,,,,,,,,,,,,,,,,,,,,,,,,,,,,,,,,
,,,,,,61386094902c2d666abf75f6,62bbfa5f658a9bdb2a101e36,2022-06-29_09h09.06.545,Colour_Asymmetry_Pilot,2022.1.3,Win32,59.07023451,62bbe60bf3d75ef465d3e404,,,,,,,space,5.0766,space,7.8331,space,16.6269,space,9.9359,space,3.2862,space,5.2129,"[0.6625999999999999,0.4980000000000002,-0.357]",onethree,"[0.9686000000000001,0.3802000000000001,0.19999999999999996]",1,8.384,44,-91.20001221,1,0,0,response3disk_5,-16,4,1,0,0,rectangle_8,-16,4,1,0,0,2,-16,4,1,0,0,0,0,0,0,1,,,,,,,,,,,,,,,,,,,,,,,,,,,,,,,,,,,,,,,,,,,,,,,,,,,,,,,,,,,,,,,,,,,,,,,,,,,,,,,,,,,,,,,,,,,,,,,,,,,,,,,,,,
,,,,,,61386094902c2d666abf75f6,62bbfa5f658a9bdb2a101e36,2022-06-29_09h09.06.545,Colour_Asymmetry_Pilot,2022.1.3,Win32,59.07023451,62bbe60bf3d75ef465d3e404,,,,,,,,,,,,,,,,,,,"[-0.5688,-0.08239999999999992,-0.1844]",threefour,"[-0.34920000000000007,-0.702,-0.5216]",-3,3.3828,-94.39996338,51.19998169,1,0,0,response7disk_5,-8,2.399993896,1,0,0,rectangle_8,93.60003662,-26.3999939,1,0,0,2,-3.200012207,-5.600006104,1,0,0,1,0,1,0,1,response3disk_7,5,rectangle_4,,,,,,,,,,,,,,,,,,,,,,,,,,,,,,,,,,,,,,,,,,,,,,,,,,,,,,,,,,,,,,,,,,,,,,,,,,,,,,,,,,,,,,,,,,,,,,,,,,,,,,,
,,,,,,61386094902c2d666abf75f6,62bbfa5f658a9bdb2a101e36,2022-06-29_09h09.06.545,Colour_Asymmetry_Pilot,2022.1.3,Win32,59.07023451,62bbe60bf3d75ef465d3e404,,,,,,,,,,,,,,,,,,,"[-0.48240000000000005,0.3175999999999999,0.2156]",fourthree,"[-0.9688,-0.4902000000000001,-0.12159999999999993]",1,3.4821,26.40002441,-70.3999939,1,0,0,response3disk_5,10.40002441,-6.399993896,1,0,0,rectangle_8,69.60003662,-32.80001831,1,0,0,2,6.400024414,-9.600006104,1,0,0,2,0,2,0,1,response3disk_7,5,rectangle_4,,,,,,,,,,,,,,,,,,,,,,,,,,,,,,,,,,,,,,,,,,,,,,,,,,,,,,,,,,,,,,,,,,,,,,,,,,,,,,,,,,,,,,,,,,,,,,,,,,,,,,,
,,,,,,61386094902c2d666abf75f6,62bbfa5f658a9bdb2a101e36,2022-06-29_09h09.06.545,Colour_Asymmetry_Pilot,2022.1.3,Win32,59.07023451,62bbe60bf3d75ef465d3e404,,,,,,,,,,,,,,,,,,,"[-0.30200000000000005,0.14500000000000002,0.2784]",twofour,"[0.37240000000000006,-0.050999999999999934,-0.5216]",-4,2.2657,-60.79998779,112,1,0,0,response7disk_5,-8,-8.800018311,1,0,0,rectangle_8,-8,-8.800018311,1,0,0,2,-8,-8.800018311,1,0,0,3,0,3,0,1,,,,,,,,,,,,,,,,,,,,,,,,,,,,,,,,,,,,,,,,,,,,,,,,,,,,,,,,,,,,,,,,,,,,,,,,,,,,,,,,,,,,,,,,,,,,,,,,,,,,,,,,,,
,,,,,,61386094902c2d666abf75f6,62bbfa5f658a9bdb2a101e36,2022-06-29_09h09.06.545,Colour_Asymmetry_Pilot,2022.1.3,Win32,59.07023451,62bbe60bf3d75ef465d3e404,,,,,,,,,,,,,,,,,,,"[-0.09019999999999995,0.44300000000000006,0.5371999999999999]",onetwo,"[-0.6942,-0.7648,-0.12959999999999994]",2,3.3155,100,-80,1,0,0,response3disk_5,19.20001221,-6.399993896,1,0,0,rectangle_8,19.20001221,-6.399993896,1,0,0,2,19.20001221,-6.399993896,1,0,0,4,0,4,0,1,,,,,,,,,,,,,,,,,,,,,,,,,,,,,,,,,,,,,,,,,,,,,,,,,,,,,,,,,,,,,,,,,,,,,,,,,,,,,,,,,,,,,,,,,,,,,,,,,,,,,,,,,,
,,,,,,61386094902c2d666abf75f6,62bbfa5f658a9bdb2a101e36,2022-06-29_09h09.06.545,Colour_Asymmetry_Pilot,2022.1.3,Win32,59.07023451,62bbe60bf3d75ef465d3e404,,,,,,,,,,,,,,,,,,,"[0.4196,0.4665999999999999,0.3568]",fourthree,"[0.8274000000000001,-0.5844,-0.9452]",-1,2.4992,-69.59997559,-96,1,0,0,response5disk_5,-4.799987793,-8,1,0,0,rectangle_8,-4.799987793,-8,1,0,0,2,-4.799987793,-8,1,0,0,5,0,5,0,1,,,,,,,,,,,,,,,,,,,,,,,,,,,,,,,,,,,,,,,,,,,,,,,,,,,,,,,,,,,,,,,,,,,,,,,,,,,,,,,,,,,,,,,,,,,,,,,,,,,,,,,,,,
,,,,,,61386094902c2d666abf75f6,62bbfa5f658a9bdb2a101e36,2022-06-29_09h09.06.545,Colour_Asymmetry_Pilot,2022.1.3,Win32,59.07023451,62bbe60bf3d75ef465d3e404,,,,,,,,,,,,,,,,,,,"[0.34099999999999997,0.12939999999999996,-0.9766]",twoone,"[-0.6942,-0.7648,-0.12959999999999994]",-3,1.4155,-64,40.79998779,1,0,0,response7disk_5,-24,14.3999939,1,0,0,rectangle_8,-24,14.3999939,1,0,0,2,-24,14.3999939,1,0,0,6,0,6,0,1,,,,,,,,,,,,,,,,,,,,,,,,,,,,,,,,,,,,,,,,,,,,,,,,,,,,,,,,,,,,,,,,,,,,,,,,,,,,,,,,,,,,,,,,,,,,,,,,,,,,,,,,,,
,,,,,,61386094902c2d666abf75f6,62bbfa5f658a9bdb2a101e36,2022-06-29_09h09.06.545,Colour_Asymmetry_Pilot,2022.1.3,Win32,59.07023451,62bbe60bf3d75ef465d3e404,,,,,,,,,,,,,,,,,,,,onetwo,,-2,1.8828,,,,,,,,,,,,,,,,,,,,,,,,,,,,,,,,space,4.3757,"[0.40379999999999994,0.09000000000000008,0.44300000000000006]","[0.2784,-0.31000000000000005,-0.5452]",-83.20001221,-52,1,0,0,response5disk,-24.79998779,-1.600006104,1,0,0,rectangle,-24.79998779,-1.600006104,1,0,0,,3,0.0016,0,-24.79998779,-1.600006104,1,0,0,0,0,0,89,1,8,second,,,,,,,,,,,,,,,,,,,,,,,,,,,,,,,,,,,,,,,,,,,,,,,,,,,,,,,,,,,,,,,,,,
,,,,,,61386094902c2d666abf75f6,62bbfa5f658a9bdb2a101e36,2022-06-29_09h09.06.545,Colour_Asymmetry_Pilot,2022.1.3,Win32,59.07023451,62bbe60bf3d75ef465d3e404,,,,,,,,,,,,,,,,,,,,fourthree,,3,1.3163,,,,,,,,,,,,,,,,,,,,,,,,,,,,,,,,,,"[-0.7412000000000001,-0.08239999999999992,-0.6864]","[0.34099999999999997,0.5841999999999998,-0.9844]",106.4000244,53.6000061,1,0,0,response1disk,11.20001221,10.3999939,1,0,0,rectangle,11.20001221,10.3999939,1,0,0,,1,0.0014,0,11.20001221,10.3999939,1,0,0,0,1,1,108,1,27,second,,,,,,,,,,,,,,,,,,,,,,,,,,,,,,,,,,,,,,,,,,,,,,,,,,,,,,,,,,,,,,,,,,
,,,,,,61386094902c2d666abf75f6,62bbfa5f658a9bdb2a101e36,2022-06-29_09h09.06.545,Colour_Asymmetry_Pilot,2022.1.3,Win32,59.07023451,62bbe60bf3d75ef465d3e404,,,,,,,,,,,,,,,,,,,,onetwo,,-2,1.5158,,,,,,,,,,,,,,,,,,,,,,,,,,,,,,,,,,"[-0.26280000000000003,-0.2158,-0.3256]","[-0.5452,-0.608,0.2470000000000001]",-79.20001221,-34.3999939,1,0,0,response5disk,1.600036621,14.3999939,1,0,0,rectangle,1.600036621,14.3999939,1,0,0,,3,0.0016,0,1.600036621,14.3999939,1,0,0,0,2,2,116,1,35,second,,,,,,,,,,,,,,,,,,,,,,,,,,,,,,,,,,,,,,,,,,,,,,,,,,,,,,,,,,,,,,,,,,
,,,,,,61386094902c2d666abf75f6,62bbfa5f658a9bdb2a101e36,2022-06-29_09h09.06.545,Colour_Asymmetry_Pilot,2022.1.3,Win32,59.07023451,62bbe60bf3d75ef465d3e404,,,,,,,,,,,,,,,,,,,,onethree,,-2,1.9657,,,,,,,,,,,,,,,,,,,,,,,,,,,,,,,,,,"[-0.26280000000000003,-0.2158,-0.3256]","[0.40379999999999994,0.09000000000000008,0.44300000000000006]",-80,-32,1,0,0,response5disk,-17.59997559,0.799987793,1,0,0,rectangle,-17.59997559,0.799987793,1,0,0,,1,0.0008,0,-17.59997559,0.799987793,1,0,0,0,3,3,38,1,38,first,,,,,,,,,,,,,,,,,,,,,,,,,,,,,,,,,,,,,,,,,,,,,,,,,,,,,,,,,,,,,,,,,,
,,,,,,61386094902c2d666abf75f6,62bbfa5f658a9bdb2a101e36,2022-06-29_09h09.06.545,Colour_Asymmetry_Pilot,2022.1.3,Win32,59.07023451,62bbe60bf3d75ef465d3e404,,,,,,,,,,,,,,,,,,,,threefour,,2,1.4663,,,,,,,,,,,,,,,,,,,,,,,,,,,,,,,,,,"[-0.9138,-0.5296000000000001,-0.5529999999999999]","[0.34099999999999997,0.5841999999999998,-0.9844]",90.40002441,-54.3999939,1,0,0,response3disk,13.60003662,8,1,0,0,rectangle,13.60003662,8,1,0,0,,2,0.0012,0,13.60003662,8,1,0,0,0,4,4,148,1,67,second,,,,,,,,,,,,,,,,,,,,,,,,,,,,,,,,,,,,,,,,,,,,,,,,,,,,,,,,,,,,,,,,,,
,,,,,,61386094902c2d666abf75f6,62bbfa5f658a9bdb2a101e36,2022-06-29_09h09.06.545,Colour_Asymmetry_Pilot,2022.1.3,Win32,59.07023451,62bbe60bf3d75ef465d3e404,,,,,,,,,,,,,,,,,,,,fourthree,,-3,4.0152,,,,,,,,,,,,,,,,,,,,,,,,,,,,,,,,,,"[-0.9688,-0.4902000000000001,-0.12159999999999993]","[-0.2942,-0.24719999999999998,-0.357]",-78.39996338,32.79998779,1,0,0,response7disk,-16.79998779,-8.800018311,1,0,0,rectangle,-16.79998779,-8.800018311,1,0,0,,3,0.0012,0,-16.79998779,-8.800018311,1,0,0,0,5,5,10,1,10,first,,,,,,,,,,,,,,,,,,,,,,,,,,,,,,,,,,,,,,,,,,,,,,,,,,,,,,,,,,,,,,,,,,
,,,,,,61386094902c2d666abf75f6,62bbfa5f658a9bdb2a101e36,2022-06-29_09h09.06.545,Colour_Asymmetry_Pilot,2022.1.3,Win32,59.07023451,62bbe60bf3d75ef465d3e404,,,,,,,,,,,,,,,,,,,,fourthree,,3,1.4662,,,,,,,,,,,,,,,,,,,,,,,,,,,,,,,,,,"[0.05879999999999996,0.2784,0.5841999999999998]","[-0.9766,-0.34920000000000007,0.2156]",117.6000366,39.19998169,1,0,0,response1disk,8,3.199981689,1,0,0,rectangle,8,3.199981689,1,0,0,,3,0.0001,0,8,3.199981689,1,0,0,0,6,6,58,1,58,first,,,,,,,,,,,,,,,,,,,,,,,,,,,,,,,,,,,,,,,,,,,,,,,,,,,,,,,,,,,,,,,,,,
,,,,,,61386094902c2d666abf75f6,62bbfa5f658a9bdb2a101e36,2022-06-29_09h09.06.545,Colour_Asymmetry_Pilot,2022.1.3,Win32,59.07023451,62bbe60bf3d75ef465d3e404,,,,,,,,,,,,,,,,,,,,twoone,,-3,1.3333,,,,,,,,,,,,,,,,,,,,,,,,,,,,,,,,,,"[-0.4668,-0.8746,-0.2942]","[-0.8198,-0.5138,-0.7492000000000001]",-81.59997559,35.19998169,1,0,0,response7disk,-33.59997559,-1.600006104,1,0,0,rectangle,-33.59997559,-1.600006104,1,0,0,,3,0.0002,0,-33.59997559,-1.600006104,1,0,0,0,7,7,41,1,41,first,,,,,,,,,,,,,,,,,,,,,,,,,,,,,,,,,,,,,,,,,,,,,,,,,,,,,,,,,,,,,,,,,,
,,,,,,61386094902c2d666abf75f6,62bbfa5f658a9bdb2a101e36,2022-06-29_09h09.06.545,Colour_Asymmetry_Pilot,2022.1.3,Win32,59.07023451,62bbe60bf3d75ef465d3e404,,,,,,,,,,,,,,,,,,,,twofour,,2,1.5494,,,,,,,,,,,,,,,,,,,,,,,,,,,,,,,,,,"[-0.9216,-0.5529999999999999,-0.3962]","[-0.9138,-0.5296000000000001,-0.5529999999999999]",89.60003662,-37.6000061,1,0,0,response3disk,-3.200012207,9.600006104,1,0,0,rectangle,-3.200012207,9.600006104,1,0,0,,2,0.0011,0,-3.200012207,9.600006104,1,0,0,0,8,8,77,1,77,first,,,,,,,,,,,,,,,,,,,,,,,,,,,,,,,,,,,,,,,,,,,,,,,,,,,,,,,,,,,,,,,,,,
,,,,,,61386094902c2d666abf75f6,62bbfa5f658a9bdb2a101e36,2022-06-29_09h09.06.545,Colour_Asymmetry_Pilot,2022.1.3,Win32,59.07023451,62bbe60bf3d75ef465d3e404,,,,,,,,,,,,,,,,,,,,threeone,,-2,3.8653,,,,,,,,,,,,,,,,,,,,,,,,,,,,,,,,,,"[-0.4668,-0.8746,-0.2942]","[-0.45899999999999996,-0.3256,-0.9374]",-102.3999634,-48.80001831,1,0,0,response5disk,16,0,1,0,0,rectangle,16,0,1,0,0,,2,0.0003,0,16,0,1,0,0,0,9,9,69,1,69,first,,,,,,,,,,,,,,,,,,,,,,,,,,,,,,,,,,,,,,,,,,,,,,,,,,,,,,,,,,,,,,,,,,
,,,,,,61386094902c2d666abf75f6,62bbfa5f658a9bdb2a101e36,2022-06-29_09h09.06.545,Colour_Asymmetry_Pilot,2022.1.3,Win32,59.07023451,62bbe60bf3d75ef465d3e404,,,,,,,,,,,,,,,,,,,,onethree,,3,1.1827,,,,,,,,,,,,,,,,,,,,,,,,,,,,,,,,,,"[0.6547999999999998,-0.043199999999999905,-0.011800000000000033]","[0.23120000000000007,-0.7726,-0.34120000000000006]",106.4000244,47.19998169,1,0,0,response1disk,10.40002441,0,1,0,0,rectangle,10.40002441,0,1,0,0,,3,0.0012,0,10.40002441,0,1,0,0,0,10,10,154,1,73,second,,,,,,,,,,,,,,,,,,,,,,,,,,,,,,,,,,,,,,,,,,,,,,,,,,,,,,,,,,,,,,,,,,
,,,,,,61386094902c2d666abf75f6,62bbfa5f658a9bdb2a101e36,2022-06-29_09h09.06.545,Colour_Asymmetry_Pilot,2022.1.3,Win32,59.07023451,62bbe60bf3d75ef465d3e404,,,,,,,,,,,,,,,,,,,,onetwo,,-3,1.283,,,,,,,,,,,,,,,,,,,,,,,,,,,,,,,,,,"[-0.9844,-0.9688,-0.9922]","[-0.17659999999999998,-0.2864,-0.8354]",-74.39996338,35.19998169,1,0,0,response7disk,-19.20001221,2.399993896,1,0,0,rectangle,-19.20001221,2.399993896,1,0,0,,2,0.001,0,-19.20001221,2.399993896,1,0,0,0,11,11,22,1,22,first,,,,,,,,,,,,,,,,,,,,,,,,,,,,,,,,,,,,,,,,,,,,,,,,,,,,,,,,,,,,,,,,,,
,,,,,,61386094902c2d666abf75f6,62bbfa5f658a9bdb2a101e36,2022-06-29_09h09.06.545,Colour_Asymmetry_Pilot,2022.1.3,Win32,59.07023451,62bbe60bf3d75ef465d3e404,,,,,,,,,,,,,,,,,,,,fourtwo,,-3,1.2661,,,,,,,,,,,,,,,,,,,,,,,,,,,,,,,,,,"[-0.8198,-0.5138,-0.7492000000000001]","[-0.4668,-0.8746,-0.2942]",-79.20001221,40.79998779,1,0,0,response7disk,-28,0,1,0,0,rectangle,-28,0,1,0,0,,3,0.0014,0,-28,0,1,0,0,0,12,12,122,1,41,second,,,,,,,,,,,,,,,,,,,,,,,,,,,,,,,,,,,,,,,,,,,,,,,,,,,,,,,,,,,,,,,,,,
,,,,,,61386094902c2d666abf75f6,62bbfa5f658a9bdb2a101e36,2022-06-29_09h09.06.545,Colour_Asymmetry_Pilot,2022.1.3,Win32,59.07023451,62bbe60bf3d75ef465d3e404,,,,,,,,,,,,,,,,,,,,threefour,,-2,1.4494,,,,,,,,,,,,,,,,,,,,,,,,,,,,,,,,,,"[0.3568,-0.20799999999999996,-0.9844]","[0.5449999999999999,-0.31000000000000005,-0.0354000000000001]",-80,-53.6000061,1,0,0,response5disk,-4,6.399993896,1,0,0,rectangle,-4,6.399993896,1,0,0,,1,0.0013,0,-4,6.399993896,1,0,0,0,13,13,127,1,46,second,,,,,,,,,,,,,,,,,,,,,,,,,,,,,,,,,,,,,,,,,,,,,,,,,,,,,,,,,,,,,,,,,,
,,,,,,61386094902c2d666abf75f6,62bbfa5f658a9bdb2a101e36,2022-06-29_09h09.06.545,Colour_Asymmetry_Pilot,2022.1.3,Win32,59.07023451,62bbe60bf3d75ef465d3e404,,,,,,,,,,,,,,,,,,,,threeone,,2,1.4663,,,,,,,,,,,,,,,,,,,,,,,,,,,,,,,,,,"[0.3802000000000001,0.19199999999999995,-0.6394]","[-0.17659999999999998,-0.2864,-0.8354]",80,-42.3999939,1,0,0,response3disk,1.600036621,4,1,0,0,rectangle,1.600036621,4,1,0,0,,2,0.002,0,1.600036621,4,1,0,0,0,14,14,83,1,2,second,,,,,,,,,,,,,,,,,,,,,,,,,,,,,,,,,,,,,,,,,,,,,,,,,,,,,,,,,,,,,,,,,,
,,,,,,61386094902c2d666abf75f6,62bbfa5f658a9bdb2a101e36,2022-06-29_09h09.06.545,Colour_Asymmetry_Pilot,2022.1.3,Win32,59.07023451,62bbe60bf3d75ef465d3e404,,,,,,,,,,,,,,,,,,,,threefour,,2,1.8497,,,,,,,,,,,,,,,,,,,,,,,,,,,,,,,,,,"[0.8115999999999999,-0.0040000000000000036,-0.09819999999999995]","[0.9763999999999999,0.30979999999999985,-0.6786]",90.40002441,-44,1,0,0,response3disk,2.400024414,16,1,0,0,rectangle,2.400024414,16,1,0,0,,2,0.001,0,2.400024414,16,1,0,0,0,15,15,133,1,52,second,,,,,,,,,,,,,,,,,,,,,,,,,,,,,,,,,,,,,,,,,,,,,,,,,,,,,,,,,,,,,,,,,,
,,,,,,61386094902c2d666abf75f6,62bbfa5f658a9bdb2a101e36,2022-06-29_09h09.06.545,Colour_Asymmetry_Pilot,2022.1.3,Win32,59.07023451,62bbe60bf3d75ef465d3e404,,,,,,,,,,,,,,,,,,,,fourtwo,,-4,1.016,,,,,,,,,,,,,,,,,,,,,,,,,,,,,,,,,,"[0.11359999999999992,0.6312,0.5213999999999999]","[-0.4668,-0.8746,-0.2942]",-24.79998779,83.19998169,1,0,0,response7disk,2.400024414,-9.600006104,1,0,0,rectangle,2.400024414,-9.600006104,1,0,0,,3,0.0011,0,2.400024414,-9.600006104,1,0,0,0,16,16,124,1,43,second,,,,,,,,,,,,,,,,,,,,,,,,,,,,,,,,,,,,,,,,,,,,,,,,,,,,,,,,,,,,,,,,,,
,,,,,,61386094902c2d666abf75f6,62bbfa5f658a9bdb2a101e36,2022-06-29_09h09.06.545,Colour_Asymmetry_Pilot,2022.1.3,Win32,59.07023451,62bbe60bf3d75ef465d3e404,,,,,,,,,,,,,,,,,,,,fourthree,,-3,1.083,,,,,,,,,,,,,,,,,,,,,,,,,,,,,,,,,,"[0.3802000000000001,0.19199999999999995,-0.6394]","[-0.9688,-0.38039999999999996,-0.41979999999999995]",-61.59997559,38.3999939,1,0,0,response7disk,-14.39996338,0,1,0,0,rectangle,-14.39996338,0,1,0,0,,2,0.0009,0,-14.39996338,0,1,0,0,0,17,17,110,1,29,second,,,,,,,,,,,,,,,,,,,,,,,,,,,,,,,,,,,,,,,,,,,,,,,,,,,,,,,,,,,,,,,,,,
,,,,,,61386094902c2d666abf75f6,62bbfa5f658a9bdb2a101e36,2022-06-29_09h09.06.545,Colour_Asymmetry_Pilot,2022.1.3,Win32,59.07023451,62bbe60bf3d75ef465d3e404,,,,,,,,,,,,,,,,,,,,twoone,,-4,0.9831,,,,,,,,,,,,,,,,,,,,,,,,,,,,,,,,,,"[0.7018,0.7176,0.6155999999999999]","[-0.9688,-0.4902000000000001,-0.12159999999999993]",-50.39996338,120,1,0,0,response7disk,11.20001221,-9.600006104,1,0,0,rectangle,11.20001221,-9.600006104,1,0,0,,3,0.0009,0,11.20001221,-9.600006104,1,0,0,0,18,18,82,1,1,second,,,,,,,,,,,,,,,,,,,,,,,,,,,,,,,,,,,,,,,,,,,,,,,,,,,,,,,,,,,,,,,,,,
