trials.thisRepN,trials.thisTrialN,trials.thisN,trials.thisIndex,trials.ran,Colourcodes,participant,session,date,expName,psychopyVersion,OS,frameRate,study_id,trials_4.thisRepN,trials_4.thisTrialN,trials_4.thisN,trials_4.thisIndex,trials_4.ran,StimulusPos,key_resp.keys,key_resp.rt,key_resp_2.keys,key_resp_2.rt,key_resp_15.keys,key_resp_15.rt,key_resp_17.keys,key_resp_17.rt,key_resp_9.keys,key_resp_9.rt,key_resp_10.keys,key_resp_10.rt,Circle1_col,Ecc,Circle2_col,similarity,response_time,mouse_5.x,mouse_5.y,mouse_5.leftButton,mouse_5.midButton,mouse_5.rightButton,mouse_5.clicked_name,mouse_10.x,mouse_10.y,mouse_10.leftButton,mouse_10.midButton,mouse_10.rightButton,mouse_10.clicked_name,mouse_7.x,mouse_7.y,mouse_7.leftButton,mouse_7.midButton,mouse_7.rightButton,catchnumberprac,mouse_6.x,mouse_6.y,mouse_6.leftButton,mouse_6.midButton,mouse_6.rightButton,duringprac.thisRepN,duringprac.thisTrialN,duringprac.thisN,duringprac.thisIndex,duringprac.ran,mouse_7.clicked_name,catchprac,mouse_6.clicked_name,key_resp_22.keys,key_resp_22.rt,Circle1_colour,Circle2_colour,mouse.x,mouse.y,mouse.leftButton,mouse.midButton,mouse.rightButton,mouse.clicked_name,mouse_2.x,mouse_2.y,mouse_2.leftButton,mouse_2.midButton,mouse_2.rightButton,mouse_2.clicked_name,mouse_3.x,mouse_3.y,mouse_3.leftButton,mouse_3.midButton,mouse_3.rightButton,catchresponse,catchnumber,response_time_catch,Catch,mouse_11.x,mouse_11.y,mouse_11.leftButton,mouse_11.midButton,mouse_11.rightButton,trials_2.thisRepN,trials_2.thisTrialN,trials_2.thisN,trials_2.thisIndex,trials_2.ran,Colourpair,Temporder,mouse_3.clicked_name,mouse_11.clicked_name,trials_3.thisRepN,trials_3.thisTrialN,trials_3.thisN,trials_3.thisIndex,trials_3.ran,key_resp_instr_Ishi.keys,key_resp_instr_Ishi.rt,Ishi_trial_keyresp.keys,Ishi_trial_keyresp.rt,Ishi_textbox.text,Ishi_loop.thisRepN,Ishi_loop.thisTrialN,Ishi_loop.thisN,Ishi_loop.thisIndex,Ishi_loop.ran,imageaddress,textbox.text,mouse_4.x,mouse_4.y,mouse_4.leftButton,mouse_4.midButton,mouse_4.rightButton,mouse_4.clicked_name,textbox_2.text,mouse_8.x,mouse_8.y,mouse_8.leftButton,mouse_8.midButton,mouse_8.rightButton,mouse_8.clicked_name,textbox_3.text,mouse_9.x,mouse_9.y,mouse_9.leftButton,mouse_9.midButton,mouse_9.rightButton,mouse_9.clicked_name,textbox_4.text,mouse_12.x,mouse_12.y,mouse_12.leftButton,mouse_12.midButton,mouse_12.rightButton,mouse_12.clicked_name,textbox_5.text,mouse_13.x,mouse_13.y,mouse_13.leftButton,mouse_13.midButton,mouse_13.rightButton,mouse_13.clicked_name,textbox_6.text,mouse_14.x,mouse_14.y,mouse_14.leftButton,mouse_14.midButton,mouse_14.rightButton,mouse_14.clicked_name,textbox_7.text,mouse_15.x,mouse_15.y,mouse_15.leftButton,mouse_15.midButton,mouse_15.rightButton,mouse_15.clicked_name
0,0,0,92,1,,61140ecd6c72bb8ce54d0ac8,62bbf9b9f2bc492c14ad186f,2022-06-29_09h05.55.612,Colour_Asymmetry_Pilot,2022.1.3,Win32,60.03842459,62bbe60bf3d75ef465d3e404,,,,,,,,,,,,,,,,,,,,,,,,,,,,,,,,,,,,,,,,,,,,,,,,,,,,,,,,,,,,,,,,,,,,,,,,,,,,,,,,,,,,,,,,,,,,,,,,,,,,,,,,,,,,,,,,,,,,,,,,,,,,,,,,,,,,,,,,,,,,,,,,,,,,,,,,,,,,,,
0,1,1,33,1,,61140ecd6c72bb8ce54d0ac8,62bbf9b9f2bc492c14ad186f,2022-06-29_09h05.55.612,Colour_Asymmetry_Pilot,2022.1.3,Win32,60.03842459,62bbe60bf3d75ef465d3e404,,,,,,,,,,,,,,,,,,,,,,,,,,,,,,,,,,,,,,,,,,,,,,,,,,,,,,,,,,,,,,,,,,,,,,,,,,,,,,,,,,,,,,,,,,,,,,,,,,,,,,,,,,,,,,,,,,,,,,,,,,,,,,,,,,,,,,,,,,,,,,,,,,,,,,,,,,,,,,
0,2,2,67,1,,61140ecd6c72bb8ce54d0ac8,62bbf9b9f2bc492c14ad186f,2022-06-29_09h05.55.612,Colour_Asymmetry_Pilot,2022.1.3,Win32,60.03842459,62bbe60bf3d75ef465d3e404,,,,,,,,,,,,,,,,,,,,,,,,,,,,,,,,,,,,,,,,,,,,,,,,,,,,,,,,,,,,,,,,,,,,,,,,,,,,,,,,,,,,,,,,,,,,,,,,,,,,,,,,,,,,,,,,,,,,,,,,,,,,,,,,,,,,,,,,,,,,,,,,,,,,,,,,,,,,,,
0,3,3,71,1,,61140ecd6c72bb8ce54d0ac8,62bbf9b9f2bc492c14ad186f,2022-06-29_09h05.55.612,Colour_Asymmetry_Pilot,2022.1.3,Win32,60.03842459,62bbe60bf3d75ef465d3e404,,,,,,,,,,,,,,,,,,,,,,,,,,,,,,,,,,,,,,,,,,,,,,,,,,,,,,,,,,,,,,,,,,,,,,,,,,,,,,,,,,,,,,,,,,,,,,,,,,,,,,,,,,,,,,,,,,,,,,,,,,,,,,,,,,,,,,,,,,,,,,,,,,,,,,,,,,,,,,
0,4,4,20,1,,61140ecd6c72bb8ce54d0ac8,62bbf9b9f2bc492c14ad186f,2022-06-29_09h05.55.612,Colour_Asymmetry_Pilot,2022.1.3,Win32,60.03842459,62bbe60bf3d75ef465d3e404,,,,,,,,,,,,,,,,,,,,,,,,,,,,,,,,,,,,,,,,,,,,,,,,,,,,,,,,,,,,,,,,,,,,,,,,,,,,,,,,,,,,,,,,,,,,,,,,,,,,,,,,,,,,,,,,,,,,,,,,,,,,,,,,,,,,,,,,,,,,,,,,,,,,,,,,,,,,,,
0,5,5,8,1,,61140ecd6c72bb8ce54d0ac8,62bbf9b9f2bc492c14ad186f,2022-06-29_09h05.55.612,Colour_Asymmetry_Pilot,2022.1.3,Win32,60.03842459,62bbe60bf3d75ef465d3e404,,,,,,,,,,,,,,,,,,,,,,,,,,,,,,,,,,,,,,,,,,,,,,,,,,,,,,,,,,,,,,,,,,,,,,,,,,,,,,,,,,,,,,,,,,,,,,,,,,,,,,,,,,,,,,,,,,,,,,,,,,,,,,,,,,,,,,,,,,,,,,,,,,,,,,,,,,,,,,
0,6,6,89,1,,61140ecd6c72bb8ce54d0ac8,62bbf9b9f2bc492c14ad186f,2022-06-29_09h05.55.612,Colour_Asymmetry_Pilot,2022.1.3,Win32,60.03842459,62bbe60bf3d75ef465d3e404,,,,,,,,,,,,,,,,,,,,,,,,,,,,,,,,,,,,,,,,,,,,,,,,,,,,,,,,,,,,,,,,,,,,,,,,,,,,,,,,,,,,,,,,,,,,,,,,,,,,,,,,,,,,,,,,,,,,,,,,,,,,,,,,,,,,,,,,,,,,,,,,,,,,,,,,,,,,,,
0,7,7,34,1,,61140ecd6c72bb8ce54d0ac8,62bbf9b9f2bc492c14ad186f,2022-06-29_09h05.55.612,Colour_Asymmetry_Pilot,2022.1.3,Win32,60.03842459,62bbe60bf3d75ef465d3e404,,,,,,,,,,,,,,,,,,,,,,,,,,,,,,,,,,,,,,,,,,,,,,,,,,,,,,,,,,,,,,,,,,,,,,,,,,,,,,,,,,,,,,,,,,,,,,,,,,,,,,,,,,,,,,,,,,,,,,,,,,,,,,,,,,,,,,,,,,,,,,,,,,,,,,,,,,,,,,
0,8,8,25,1,,61140ecd6c72bb8ce54d0ac8,62bbf9b9f2bc492c14ad186f,2022-06-29_09h05.55.612,Colour_Asymmetry_Pilot,2022.1.3,Win32,60.03842459,62bbe60bf3d75ef465d3e404,,,,,,,,,,,,,,,,,,,,,,,,,,,,,,,,,,,,,,,,,,,,,,,,,,,,,,,,,,,,,,,,,,,,,,,,,,,,,,,,,,,,,,,,,,,,,,,,,,,,,,,,,,,,,,,,,,,,,,,,,,,,,,,,,,,,,,,,,,,,,,,,,,,,,,,,,,,,,,
0,9,9,17,1,,61140ecd6c72bb8ce54d0ac8,62bbf9b9f2bc492c14ad186f,2022-06-29_09h05.55.612,Colour_Asymmetry_Pilot,2022.1.3,Win32,60.03842459,62bbe60bf3d75ef465d3e404,,,,,,,,,,,,,,,,,,,,,,,,,,,,,,,,,,,,,,,,,,,,,,,,,,,,,,,,,,,,,,,,,,,,,,,,,,,,,,,,,,,,,,,,,,,,,,,,,,,,,,,,,,,,,,,,,,,,,,,,,,,,,,,,,,,,,,,,,,,,,,,,,,,,,,,,,,,,,,
0,10,10,87,1,,61140ecd6c72bb8ce54d0ac8,62bbf9b9f2bc492c14ad186f,2022-06-29_09h05.55.612,Colour_Asymmetry_Pilot,2022.1.3,Win32,60.03842459,62bbe60bf3d75ef465d3e404,,,,,,,,,,,,,,,,,,,,,,,,,,,,,,,,,,,,,,,,,,,,,,,,,,,,,,,,,,,,,,,,,,,,,,,,,,,,,,,,,,,,,,,,,,,,,,,,,,,,,,,,,,,,,,,,,,,,,,,,,,,,,,,,,,,,,,,,,,,,,,,,,,,,,,,,,,,,,,
0,11,11,83,1,,61140ecd6c72bb8ce54d0ac8,62bbf9b9f2bc492c14ad186f,2022-06-29_09h05.55.612,Colour_Asymmetry_Pilot,2022.1.3,Win32,60.03842459,62bbe60bf3d75ef465d3e404,,,,,,,,,,,,,,,,,,,,,,,,,,,,,,,,,,,,,,,,,,,,,,,,,,,,,,,,,,,,,,,,,,,,,,,,,,,,,,,,,,,,,,,,,,,,,,,,,,,,,,,,,,,,,,,,,,,,,,,,,,,,,,,,,,,,,,,,,,,,,,,,,,,,,,,,,,,,,,
0,12,12,72,1,,61140ecd6c72bb8ce54d0ac8,62bbf9b9f2bc492c14ad186f,2022-06-29_09h05.55.612,Colour_Asymmetry_Pilot,2022.1.3,Win32,60.03842459,62bbe60bf3d75ef465d3e404,,,,,,,,,,,,,,,,,,,,,,,,,,,,,,,,,,,,,,,,,,,,,,,,,,,,,,,,,,,,,,,,,,,,,,,,,,,,,,,,,,,,,,,,,,,,,,,,,,,,,,,,,,,,,,,,,,,,,,,,,,,,,,,,,,,,,,,,,,,,,,,,,,,,,,,,,,,,,,
0,13,13,29,1,,61140ecd6c72bb8ce54d0ac8,62bbf9b9f2bc492c14ad186f,2022-06-29_09h05.55.612,Colour_Asymmetry_Pilot,2022.1.3,Win32,60.03842459,62bbe60bf3d75ef465d3e404,,,,,,,,,,,,,,,,,,,,,,,,,,,,,,,,,,,,,,,,,,,,,,,,,,,,,,,,,,,,,,,,,,,,,,,,,,,,,,,,,,,,,,,,,,,,,,,,,,,,,,,,,,,,,,,,,,,,,,,,,,,,,,,,,,,,,,,,,,,,,,,,,,,,,,,,,,,,,,
0,14,14,30,1,,61140ecd6c72bb8ce54d0ac8,62bbf9b9f2bc492c14ad186f,2022-06-29_09h05.55.612,Colour_Asymmetry_Pilot,2022.1.3,Win32,60.03842459,62bbe60bf3d75ef465d3e404,,,,,,,,,,,,,,,,,,,,,,,,,,,,,,,,,,,,,,,,,,,,,,,,,,,,,,,,,,,,,,,,,,,,,,,,,,,,,,,,,,,,,,,,,,,,,,,,,,,,,,,,,,,,,,,,,,,,,,,,,,,,,,,,,,,,,,,,,,,,,,,,,,,,,,,,,,,,,,
0,15,15,44,1,,61140ecd6c72bb8ce54d0ac8,62bbf9b9f2bc492c14ad186f,2022-06-29_09h05.55.612,Colour_Asymmetry_Pilot,2022.1.3,Win32,60.03842459,62bbe60bf3d75ef465d3e404,,,,,,,,,,,,,,,,,,,,,,,,,,,,,,,,,,,,,,,,,,,,,,,,,,,,,,,,,,,,,,,,,,,,,,,,,,,,,,,,,,,,,,,,,,,,,,,,,,,,,,,,,,,,,,,,,,,,,,,,,,,,,,,,,,,,,,,,,,,,,,,,,,,,,,,,,,,,,,
0,16,16,27,1,,61140ecd6c72bb8ce54d0ac8,62bbf9b9f2bc492c14ad186f,2022-06-29_09h05.55.612,Colour_Asymmetry_Pilot,2022.1.3,Win32,60.03842459,62bbe60bf3d75ef465d3e404,,,,,,,,,,,,,,,,,,,,,,,,,,,,,,,,,,,,,,,,,,,,,,,,,,,,,,,,,,,,,,,,,,,,,,,,,,,,,,,,,,,,,,,,,,,,,,,,,,,,,,,,,,,,,,,,,,,,,,,,,,,,,,,,,,,,,,,,,,,,,,,,,,,,,,,,,,,,,,
0,17,17,18,1,,61140ecd6c72bb8ce54d0ac8,62bbf9b9f2bc492c14ad186f,2022-06-29_09h05.55.612,Colour_Asymmetry_Pilot,2022.1.3,Win32,60.03842459,62bbe60bf3d75ef465d3e404,,,,,,,,,,,,,,,,,,,,,,,,,,,,,,,,,,,,,,,,,,,,,,,,,,,,,,,,,,,,,,,,,,,,,,,,,,,,,,,,,,,,,,,,,,,,,,,,,,,,,,,,,,,,,,,,,,,,,,,,,,,,,,,,,,,,,,,,,,,,,,,,,,,,,,,,,,,,,,
0,18,18,86,1,,61140ecd6c72bb8ce54d0ac8,62bbf9b9f2bc492c14ad186f,2022-06-29_09h05.55.612,Colour_Asymmetry_Pilot,2022.1.3,Win32,60.03842459,62bbe60bf3d75ef465d3e404,,,,,,,,,,,,,,,,,,,,,,,,,,,,,,,,,,,,,,,,,,,,,,,,,,,,,,,,,,,,,,,,,,,,,,,,,,,,,,,,,,,,,,,,,,,,,,,,,,,,,,,,,,,,,,,,,,,,,,,,,,,,,,,,,,,,,,,,,,,,,,,,,,,,,,,,,,,,,,
0,19,19,65,1,,61140ecd6c72bb8ce54d0ac8,62bbf9b9f2bc492c14ad186f,2022-06-29_09h05.55.612,Colour_Asymmetry_Pilot,2022.1.3,Win32,60.03842459,62bbe60bf3d75ef465d3e404,,,,,,,,,,,,,,,,,,,,,,,,,,,,,,,,,,,,,,,,,,,,,,,,,,,,,,,,,,,,,,,,,,,,,,,,,,,,,,,,,,,,,,,,,,,,,,,,,,,,,,,,,,,,,,,,,,,,,,,,,,,,,,,,,,,,,,,,,,,,,,,,,,,,,,,,,,,,,,
0,20,20,76,1,,61140ecd6c72bb8ce54d0ac8,62bbf9b9f2bc492c14ad186f,2022-06-29_09h05.55.612,Colour_Asymmetry_Pilot,2022.1.3,Win32,60.03842459,62bbe60bf3d75ef465d3e404,,,,,,,,,,,,,,,,,,,,,,,,,,,,,,,,,,,,,,,,,,,,,,,,,,,,,,,,,,,,,,,,,,,,,,,,,,,,,,,,,,,,,,,,,,,,,,,,,,,,,,,,,,,,,,,,,,,,,,,,,,,,,,,,,,,,,,,,,,,,,,,,,,,,,,,,,,,,,,
0,21,21,14,1,,61140ecd6c72bb8ce54d0ac8,62bbf9b9f2bc492c14ad186f,2022-06-29_09h05.55.612,Colour_Asymmetry_Pilot,2022.1.3,Win32,60.03842459,62bbe60bf3d75ef465d3e404,,,,,,,,,,,,,,,,,,,,,,,,,,,,,,,,,,,,,,,,,,,,,,,,,,,,,,,,,,,,,,,,,,,,,,,,,,,,,,,,,,,,,,,,,,,,,,,,,,,,,,,,,,,,,,,,,,,,,,,,,,,,,,,,,,,,,,,,,,,,,,,,,,,,,,,,,,,,,,
0,22,22,43,1,,61140ecd6c72bb8ce54d0ac8,62bbf9b9f2bc492c14ad186f,2022-06-29_09h05.55.612,Colour_Asymmetry_Pilot,2022.1.3,Win32,60.03842459,62bbe60bf3d75ef465d3e404,,,,,,,,,,,,,,,,,,,,,,,,,,,,,,,,,,,,,,,,,,,,,,,,,,,,,,,,,,,,,,,,,,,,,,,,,,,,,,,,,,,,,,,,,,,,,,,,,,,,,,,,,,,,,,,,,,,,,,,,,,,,,,,,,,,,,,,,,,,,,,,,,,,,,,,,,,,,,,
0,23,23,45,1,,61140ecd6c72bb8ce54d0ac8,62bbf9b9f2bc492c14ad186f,2022-06-29_09h05.55.612,Colour_Asymmetry_Pilot,2022.1.3,Win32,60.03842459,62bbe60bf3d75ef465d3e404,,,,,,,,,,,,,,,,,,,,,,,,,,,,,,,,,,,,,,,,,,,,,,,,,,,,,,,,,,,,,,,,,,,,,,,,,,,,,,,,,,,,,,,,,,,,,,,,,,,,,,,,,,,,,,,,,,,,,,,,,,,,,,,,,,,,,,,,,,,,,,,,,,,,,,,,,,,,,,
0,24,24,26,1,,61140ecd6c72bb8ce54d0ac8,62bbf9b9f2bc492c14ad186f,2022-06-29_09h05.55.612,Colour_Asymmetry_Pilot,2022.1.3,Win32,60.03842459,62bbe60bf3d75ef465d3e404,,,,,,,,,,,,,,,,,,,,,,,,,,,,,,,,,,,,,,,,,,,,,,,,,,,,,,,,,,,,,,,,,,,,,,,,,,,,,,,,,,,,,,,,,,,,,,,,,,,,,,,,,,,,,,,,,,,,,,,,,,,,,,,,,,,,,,,,,,,,,,,,,,,,,,,,,,,,,,
0,25,25,12,1,,61140ecd6c72bb8ce54d0ac8,62bbf9b9f2bc492c14ad186f,2022-06-29_09h05.55.612,Colour_Asymmetry_Pilot,2022.1.3,Win32,60.03842459,62bbe60bf3d75ef465d3e404,,,,,,,,,,,,,,,,,,,,,,,,,,,,,,,,,,,,,,,,,,,,,,,,,,,,,,,,,,,,,,,,,,,,,,,,,,,,,,,,,,,,,,,,,,,,,,,,,,,,,,,,,,,,,,,,,,,,,,,,,,,,,,,,,,,,,,,,,,,,,,,,,,,,,,,,,,,,,,
0,26,26,80,1,,61140ecd6c72bb8ce54d0ac8,62bbf9b9f2bc492c14ad186f,2022-06-29_09h05.55.612,Colour_Asymmetry_Pilot,2022.1.3,Win32,60.03842459,62bbe60bf3d75ef465d3e404,,,,,,,,,,,,,,,,,,,,,,,,,,,,,,,,,,,,,,,,,,,,,,,,,,,,,,,,,,,,,,,,,,,,,,,,,,,,,,,,,,,,,,,,,,,,,,,,,,,,,,,,,,,,,,,,,,,,,,,,,,,,,,,,,,,,,,,,,,,,,,,,,,,,,,,,,,,,,,
0,27,27,74,1,,61140ecd6c72bb8ce54d0ac8,62bbf9b9f2bc492c14ad186f,2022-06-29_09h05.55.612,Colour_Asymmetry_Pilot,2022.1.3,Win32,60.03842459,62bbe60bf3d75ef465d3e404,,,,,,,,,,,,,,,,,,,,,,,,,,,,,,,,,,,,,,,,,,,,,,,,,,,,,,,,,,,,,,,,,,,,,,,,,,,,,,,,,,,,,,,,,,,,,,,,,,,,,,,,,,,,,,,,,,,,,,,,,,,,,,,,,,,,,,,,,,,,,,,,,,,,,,,,,,,,,,
0,28,28,56,1,,61140ecd6c72bb8ce54d0ac8,62bbf9b9f2bc492c14ad186f,2022-06-29_09h05.55.612,Colour_Asymmetry_Pilot,2022.1.3,Win32,60.03842459,62bbe60bf3d75ef465d3e404,,,,,,,,,,,,,,,,,,,,,,,,,,,,,,,,,,,,,,,,,,,,,,,,,,,,,,,,,,,,,,,,,,,,,,,,,,,,,,,,,,,,,,,,,,,,,,,,,,,,,,,,,,,,,,,,,,,,,,,,,,,,,,,,,,,,,,,,,,,,,,,,,,,,,,,,,,,,,,
0,29,29,7,1,,61140ecd6c72bb8ce54d0ac8,62bbf9b9f2bc492c14ad186f,2022-06-29_09h05.55.612,Colour_Asymmetry_Pilot,2022.1.3,Win32,60.03842459,62bbe60bf3d75ef465d3e404,,,,,,,,,,,,,,,,,,,,,,,,,,,,,,,,,,,,,,,,,,,,,,,,,,,,,,,,,,,,,,,,,,,,,,,,,,,,,,,,,,,,,,,,,,,,,,,,,,,,,,,,,,,,,,,,,,,,,,,,,,,,,,,,,,,,,,,,,,,,,,,,,,,,,,,,,,,,,,
0,30,30,66,1,,61140ecd6c72bb8ce54d0ac8,62bbf9b9f2bc492c14ad186f,2022-06-29_09h05.55.612,Colour_Asymmetry_Pilot,2022.1.3,Win32,60.03842459,62bbe60bf3d75ef465d3e404,,,,,,,,,,,,,,,,,,,,,,,,,,,,,,,,,,,,,,,,,,,,,,,,,,,,,,,,,,,,,,,,,,,,,,,,,,,,,,,,,,,,,,,,,,,,,,,,,,,,,,,,,,,,,,,,,,,,,,,,,,,,,,,,,,,,,,,,,,,,,,,,,,,,,,,,,,,,,,
0,31,31,4,1,,61140ecd6c72bb8ce54d0ac8,62bbf9b9f2bc492c14ad186f,2022-06-29_09h05.55.612,Colour_Asymmetry_Pilot,2022.1.3,Win32,60.03842459,62bbe60bf3d75ef465d3e404,,,,,,,,,,,,,,,,,,,,,,,,,,,,,,,,,,,,,,,,,,,,,,,,,,,,,,,,,,,,,,,,,,,,,,,,,,,,,,,,,,,,,,,,,,,,,,,,,,,,,,,,,,,,,,,,,,,,,,,,,,,,,,,,,,,,,,,,,,,,,,,,,,,,,,,,,,,,,,
0,32,32,81,1,,61140ecd6c72bb8ce54d0ac8,62bbf9b9f2bc492c14ad186f,2022-06-29_09h05.55.612,Colour_Asymmetry_Pilot,2022.1.3,Win32,60.03842459,62bbe60bf3d75ef465d3e404,,,,,,,,,,,,,,,,,,,,,,,,,,,,,,,,,,,,,,,,,,,,,,,,,,,,,,,,,,,,,,,,,,,,,,,,,,,,,,,,,,,,,,,,,,,,,,,,,,,,,,,,,,,,,,,,,,,,,,,,,,,,,,,,,,,,,,,,,,,,,,,,,,,,,,,,,,,,,,
0,33,33,85,1,,61140ecd6c72bb8ce54d0ac8,62bbf9b9f2bc492c14ad186f,2022-06-29_09h05.55.612,Colour_Asymmetry_Pilot,2022.1.3,Win32,60.03842459,62bbe60bf3d75ef465d3e404,,,,,,,,,,,,,,,,,,,,,,,,,,,,,,,,,,,,,,,,,,,,,,,,,,,,,,,,,,,,,,,,,,,,,,,,,,,,,,,,,,,,,,,,,,,,,,,,,,,,,,,,,,,,,,,,,,,,,,,,,,,,,,,,,,,,,,,,,,,,,,,,,,,,,,,,,,,,,,
0,34,34,24,1,,61140ecd6c72bb8ce54d0ac8,62bbf9b9f2bc492c14ad186f,2022-06-29_09h05.55.612,Colour_Asymmetry_Pilot,2022.1.3,Win32,60.03842459,62bbe60bf3d75ef465d3e404,,,,,,,,,,,,,,,,,,,,,,,,,,,,,,,,,,,,,,,,,,,,,,,,,,,,,,,,,,,,,,,,,,,,,,,,,,,,,,,,,,,,,,,,,,,,,,,,,,,,,,,,,,,,,,,,,,,,,,,,,,,,,,,,,,,,,,,,,,,,,,,,,,,,,,,,,,,,,,
0,35,35,78,1,,61140ecd6c72bb8ce54d0ac8,62bbf9b9f2bc492c14ad186f,2022-06-29_09h05.55.612,Colour_Asymmetry_Pilot,2022.1.3,Win32,60.03842459,62bbe60bf3d75ef465d3e404,,,,,,,,,,,,,,,,,,,,,,,,,,,,,,,,,,,,,,,,,,,,,,,,,,,,,,,,,,,,,,,,,,,,,,,,,,,,,,,,,,,,,,,,,,,,,,,,,,,,,,,,,,,,,,,,,,,,,,,,,,,,,,,,,,,,,,,,,,,,,,,,,,,,,,,,,,,,,,
0,36,36,61,1,,61140ecd6c72bb8ce54d0ac8,62bbf9b9f2bc492c14ad186f,2022-06-29_09h05.55.612,Colour_Asymmetry_Pilot,2022.1.3,Win32,60.03842459,62bbe60bf3d75ef465d3e404,,,,,,,,,,,,,,,,,,,,,,,,,,,,,,,,,,,,,,,,,,,,,,,,,,,,,,,,,,,,,,,,,,,,,,,,,,,,,,,,,,,,,,,,,,,,,,,,,,,,,,,,,,,,,,,,,,,,,,,,,,,,,,,,,,,,,,,,,,,,,,,,,,,,,,,,,,,,,,
0,37,37,31,1,,61140ecd6c72bb8ce54d0ac8,62bbf9b9f2bc492c14ad186f,2022-06-29_09h05.55.612,Colour_Asymmetry_Pilot,2022.1.3,Win32,60.03842459,62bbe60bf3d75ef465d3e404,,,,,,,,,,,,,,,,,,,,,,,,,,,,,,,,,,,,,,,,,,,,,,,,,,,,,,,,,,,,,,,,,,,,,,,,,,,,,,,,,,,,,,,,,,,,,,,,,,,,,,,,,,,,,,,,,,,,,,,,,,,,,,,,,,,,,,,,,,,,,,,,,,,,,,,,,,,,,,
0,38,38,53,1,,61140ecd6c72bb8ce54d0ac8,62bbf9b9f2bc492c14ad186f,2022-06-29_09h05.55.612,Colour_Asymmetry_Pilot,2022.1.3,Win32,60.03842459,62bbe60bf3d75ef465d3e404,,,,,,,,,,,,,,,,,,,,,,,,,,,,,,,,,,,,,,,,,,,,,,,,,,,,,,,,,,,,,,,,,,,,,,,,,,,,,,,,,,,,,,,,,,,,,,,,,,,,,,,,,,,,,,,,,,,,,,,,,,,,,,,,,,,,,,,,,,,,,,,,,,,,,,,,,,,,,,
0,39,39,41,1,,61140ecd6c72bb8ce54d0ac8,62bbf9b9f2bc492c14ad186f,2022-06-29_09h05.55.612,Colour_Asymmetry_Pilot,2022.1.3,Win32,60.03842459,62bbe60bf3d75ef465d3e404,,,,,,,,,,,,,,,,,,,,,,,,,,,,,,,,,,,,,,,,,,,,,,,,,,,,,,,,,,,,,,,,,,,,,,,,,,,,,,,,,,,,,,,,,,,,,,,,,,,,,,,,,,,,,,,,,,,,,,,,,,,,,,,,,,,,,,,,,,,,,,,,,,,,,,,,,,,,,,
0,40,40,51,1,,61140ecd6c72bb8ce54d0ac8,62bbf9b9f2bc492c14ad186f,2022-06-29_09h05.55.612,Colour_Asymmetry_Pilot,2022.1.3,Win32,60.03842459,62bbe60bf3d75ef465d3e404,,,,,,,,,,,,,,,,,,,,,,,,,,,,,,,,,,,,,,,,,,,,,,,,,,,,,,,,,,,,,,,,,,,,,,,,,,,,,,,,,,,,,,,,,,,,,,,,,,,,,,,,,,,,,,,,,,,,,,,,,,,,,,,,,,,,,,,,,,,,,,,,,,,,,,,,,,,,,,
0,41,41,3,1,,61140ecd6c72bb8ce54d0ac8,62bbf9b9f2bc492c14ad186f,2022-06-29_09h05.55.612,Colour_Asymmetry_Pilot,2022.1.3,Win32,60.03842459,62bbe60bf3d75ef465d3e404,,,,,,,,,,,,,,,,,,,,,,,,,,,,,,,,,,,,,,,,,,,,,,,,,,,,,,,,,,,,,,,,,,,,,,,,,,,,,,,,,,,,,,,,,,,,,,,,,,,,,,,,,,,,,,,,,,,,,,,,,,,,,,,,,,,,,,,,,,,,,,,,,,,,,,,,,,,,,,
0,42,42,28,1,,61140ecd6c72bb8ce54d0ac8,62bbf9b9f2bc492c14ad186f,2022-06-29_09h05.55.612,Colour_Asymmetry_Pilot,2022.1.3,Win32,60.03842459,62bbe60bf3d75ef465d3e404,,,,,,,,,,,,,,,,,,,,,,,,,,,,,,,,,,,,,,,,,,,,,,,,,,,,,,,,,,,,,,,,,,,,,,,,,,,,,,,,,,,,,,,,,,,,,,,,,,,,,,,,,,,,,,,,,,,,,,,,,,,,,,,,,,,,,,,,,,,,,,,,,,,,,,,,,,,,,,
0,43,43,57,1,,61140ecd6c72bb8ce54d0ac8,62bbf9b9f2bc492c14ad186f,2022-06-29_09h05.55.612,Colour_Asymmetry_Pilot,2022.1.3,Win32,60.03842459,62bbe60bf3d75ef465d3e404,,,,,,,,,,,,,,,,,,,,,,,,,,,,,,,,,,,,,,,,,,,,,,,,,,,,,,,,,,,,,,,,,,,,,,,,,,,,,,,,,,,,,,,,,,,,,,,,,,,,,,,,,,,,,,,,,,,,,,,,,,,,,,,,,,,,,,,,,,,,,,,,,,,,,,,,,,,,,,
0,44,44,77,1,,61140ecd6c72bb8ce54d0ac8,62bbf9b9f2bc492c14ad186f,2022-06-29_09h05.55.612,Colour_Asymmetry_Pilot,2022.1.3,Win32,60.03842459,62bbe60bf3d75ef465d3e404,,,,,,,,,,,,,,,,,,,,,,,,,,,,,,,,,,,,,,,,,,,,,,,,,,,,,,,,,,,,,,,,,,,,,,,,,,,,,,,,,,,,,,,,,,,,,,,,,,,,,,,,,,,,,,,,,,,,,,,,,,,,,,,,,,,,,,,,,,,,,,,,,,,,,,,,,,,,,,
0,45,45,55,1,,61140ecd6c72bb8ce54d0ac8,62bbf9b9f2bc492c14ad186f,2022-06-29_09h05.55.612,Colour_Asymmetry_Pilot,2022.1.3,Win32,60.03842459,62bbe60bf3d75ef465d3e404,,,,,,,,,,,,,,,,,,,,,,,,,,,,,,,,,,,,,,,,,,,,,,,,,,,,,,,,,,,,,,,,,,,,,,,,,,,,,,,,,,,,,,,,,,,,,,,,,,,,,,,,,,,,,,,,,,,,,,,,,,,,,,,,,,,,,,,,,,,,,,,,,,,,,,,,,,,,,,
0,46,46,91,1,,61140ecd6c72bb8ce54d0ac8,62bbf9b9f2bc492c14ad186f,2022-06-29_09h05.55.612,Colour_Asymmetry_Pilot,2022.1.3,Win32,60.03842459,62bbe60bf3d75ef465d3e404,,,,,,,,,,,,,,,,,,,,,,,,,,,,,,,,,,,,,,,,,,,,,,,,,,,,,,,,,,,,,,,,,,,,,,,,,,,,,,,,,,,,,,,,,,,,,,,,,,,,,,,,,,,,,,,,,,,,,,,,,,,,,,,,,,,,,,,,,,,,,,,,,,,,,,,,,,,,,,
0,47,47,32,1,,61140ecd6c72bb8ce54d0ac8,62bbf9b9f2bc492c14ad186f,2022-06-29_09h05.55.612,Colour_Asymmetry_Pilot,2022.1.3,Win32,60.03842459,62bbe60bf3d75ef465d3e404,,,,,,,,,,,,,,,,,,,,,,,,,,,,,,,,,,,,,,,,,,,,,,,,,,,,,,,,,,,,,,,,,,,,,,,,,,,,,,,,,,,,,,,,,,,,,,,,,,,,,,,,,,,,,,,,,,,,,,,,,,,,,,,,,,,,,,,,,,,,,,,,,,,,,,,,,,,,,,
0,48,48,49,1,,61140ecd6c72bb8ce54d0ac8,62bbf9b9f2bc492c14ad186f,2022-06-29_09h05.55.612,Colour_Asymmetry_Pilot,2022.1.3,Win32,60.03842459,62bbe60bf3d75ef465d3e404,,,,,,,,,,,,,,,,,,,,,,,,,,,,,,,,,,,,,,,,,,,,,,,,,,,,,,,,,,,,,,,,,,,,,,,,,,,,,,,,,,,,,,,,,,,,,,,,,,,,,,,,,,,,,,,,,,,,,,,,,,,,,,,,,,,,,,,,,,,,,,,,,,,,,,,,,,,,,,
0,49,49,46,1,,61140ecd6c72bb8ce54d0ac8,62bbf9b9f2bc492c14ad186f,2022-06-29_09h05.55.612,Colour_Asymmetry_Pilot,2022.1.3,Win32,60.03842459,62bbe60bf3d75ef465d3e404,,,,,,,,,,,,,,,,,,,,,,,,,,,,,,,,,,,,,,,,,,,,,,,,,,,,,,,,,,,,,,,,,,,,,,,,,,,,,,,,,,,,,,,,,,,,,,,,,,,,,,,,,,,,,,,,,,,,,,,,,,,,,,,,,,,,,,,,,,,,,,,,,,,,,,,,,,,,,,
0,50,50,36,1,,61140ecd6c72bb8ce54d0ac8,62bbf9b9f2bc492c14ad186f,2022-06-29_09h05.55.612,Colour_Asymmetry_Pilot,2022.1.3,Win32,60.03842459,62bbe60bf3d75ef465d3e404,,,,,,,,,,,,,,,,,,,,,,,,,,,,,,,,,,,,,,,,,,,,,,,,,,,,,,,,,,,,,,,,,,,,,,,,,,,,,,,,,,,,,,,,,,,,,,,,,,,,,,,,,,,,,,,,,,,,,,,,,,,,,,,,,,,,,,,,,,,,,,,,,,,,,,,,,,,,,,
0,51,51,11,1,,61140ecd6c72bb8ce54d0ac8,62bbf9b9f2bc492c14ad186f,2022-06-29_09h05.55.612,Colour_Asymmetry_Pilot,2022.1.3,Win32,60.03842459,62bbe60bf3d75ef465d3e404,,,,,,,,,,,,,,,,,,,,,,,,,,,,,,,,,,,,,,,,,,,,,,,,,,,,,,,,,,,,,,,,,,,,,,,,,,,,,,,,,,,,,,,,,,,,,,,,,,,,,,,,,,,,,,,,,,,,,,,,,,,,,,,,,,,,,,,,,,,,,,,,,,,,,,,,,,,,,,
0,52,52,70,1,,61140ecd6c72bb8ce54d0ac8,62bbf9b9f2bc492c14ad186f,2022-06-29_09h05.55.612,Colour_Asymmetry_Pilot,2022.1.3,Win32,60.03842459,62bbe60bf3d75ef465d3e404,,,,,,,,,,,,,,,,,,,,,,,,,,,,,,,,,,,,,,,,,,,,,,,,,,,,,,,,,,,,,,,,,,,,,,,,,,,,,,,,,,,,,,,,,,,,,,,,,,,,,,,,,,,,,,,,,,,,,,,,,,,,,,,,,,,,,,,,,,,,,,,,,,,,,,,,,,,,,,
0,53,53,42,1,,61140ecd6c72bb8ce54d0ac8,62bbf9b9f2bc492c14ad186f,2022-06-29_09h05.55.612,Colour_Asymmetry_Pilot,2022.1.3,Win32,60.03842459,62bbe60bf3d75ef465d3e404,,,,,,,,,,,,,,,,,,,,,,,,,,,,,,,,,,,,,,,,,,,,,,,,,,,,,,,,,,,,,,,,,,,,,,,,,,,,,,,,,,,,,,,,,,,,,,,,,,,,,,,,,,,,,,,,,,,,,,,,,,,,,,,,,,,,,,,,,,,,,,,,,,,,,,,,,,,,,,
0,54,54,68,1,,61140ecd6c72bb8ce54d0ac8,62bbf9b9f2bc492c14ad186f,2022-06-29_09h05.55.612,Colour_Asymmetry_Pilot,2022.1.3,Win32,60.03842459,62bbe60bf3d75ef465d3e404,,,,,,,,,,,,,,,,,,,,,,,,,,,,,,,,,,,,,,,,,,,,,,,,,,,,,,,,,,,,,,,,,,,,,,,,,,,,,,,,,,,,,,,,,,,,,,,,,,,,,,,,,,,,,,,,,,,,,,,,,,,,,,,,,,,,,,,,,,,,,,,,,,,,,,,,,,,,,,
0,55,55,88,1,,61140ecd6c72bb8ce54d0ac8,62bbf9b9f2bc492c14ad186f,2022-06-29_09h05.55.612,Colour_Asymmetry_Pilot,2022.1.3,Win32,60.03842459,62bbe60bf3d75ef465d3e404,,,,,,,,,,,,,,,,,,,,,,,,,,,,,,,,,,,,,,,,,,,,,,,,,,,,,,,,,,,,,,,,,,,,,,,,,,,,,,,,,,,,,,,,,,,,,,,,,,,,,,,,,,,,,,,,,,,,,,,,,,,,,,,,,,,,,,,,,,,,,,,,,,,,,,,,,,,,,,
0,56,56,13,1,,61140ecd6c72bb8ce54d0ac8,62bbf9b9f2bc492c14ad186f,2022-06-29_09h05.55.612,Colour_Asymmetry_Pilot,2022.1.3,Win32,60.03842459,62bbe60bf3d75ef465d3e404,,,,,,,,,,,,,,,,,,,,,,,,,,,,,,,,,,,,,,,,,,,,,,,,,,,,,,,,,,,,,,,,,,,,,,,,,,,,,,,,,,,,,,,,,,,,,,,,,,,,,,,,,,,,,,,,,,,,,,,,,,,,,,,,,,,,,,,,,,,,,,,,,,,,,,,,,,,,,,
0,57,57,82,1,,61140ecd6c72bb8ce54d0ac8,62bbf9b9f2bc492c14ad186f,2022-06-29_09h05.55.612,Colour_Asymmetry_Pilot,2022.1.3,Win32,60.03842459,62bbe60bf3d75ef465d3e404,,,,,,,,,,,,,,,,,,,,,,,,,,,,,,,,,,,,,,,,,,,,,,,,,,,,,,,,,,,,,,,,,,,,,,,,,,,,,,,,,,,,,,,,,,,,,,,,,,,,,,,,,,,,,,,,,,,,,,,,,,,,,,,,,,,,,,,,,,,,,,,,,,,,,,,,,,,,,,
0,58,58,39,1,,61140ecd6c72bb8ce54d0ac8,62bbf9b9f2bc492c14ad186f,2022-06-29_09h05.55.612,Colour_Asymmetry_Pilot,2022.1.3,Win32,60.03842459,62bbe60bf3d75ef465d3e404,,,,,,,,,,,,,,,,,,,,,,,,,,,,,,,,,,,,,,,,,,,,,,,,,,,,,,,,,,,,,,,,,,,,,,,,,,,,,,,,,,,,,,,,,,,,,,,,,,,,,,,,,,,,,,,,,,,,,,,,,,,,,,,,,,,,,,,,,,,,,,,,,,,,,,,,,,,,,,
0,59,59,6,1,,61140ecd6c72bb8ce54d0ac8,62bbf9b9f2bc492c14ad186f,2022-06-29_09h05.55.612,Colour_Asymmetry_Pilot,2022.1.3,Win32,60.03842459,62bbe60bf3d75ef465d3e404,,,,,,,,,,,,,,,,,,,,,,,,,,,,,,,,,,,,,,,,,,,,,,,,,,,,,,,,,,,,,,,,,,,,,,,,,,,,,,,,,,,,,,,,,,,,,,,,,,,,,,,,,,,,,,,,,,,,,,,,,,,,,,,,,,,,,,,,,,,,,,,,,,,,,,,,,,,,,,
0,60,60,1,1,,61140ecd6c72bb8ce54d0ac8,62bbf9b9f2bc492c14ad186f,2022-06-29_09h05.55.612,Colour_Asymmetry_Pilot,2022.1.3,Win32,60.03842459,62bbe60bf3d75ef465d3e404,,,,,,,,,,,,,,,,,,,,,,,,,,,,,,,,,,,,,,,,,,,,,,,,,,,,,,,,,,,,,,,,,,,,,,,,,,,,,,,,,,,,,,,,,,,,,,,,,,,,,,,,,,,,,,,,,,,,,,,,,,,,,,,,,,,,,,,,,,,,,,,,,,,,,,,,,,,,,,
0,61,61,35,1,,61140ecd6c72bb8ce54d0ac8,62bbf9b9f2bc492c14ad186f,2022-06-29_09h05.55.612,Colour_Asymmetry_Pilot,2022.1.3,Win32,60.03842459,62bbe60bf3d75ef465d3e404,,,,,,,,,,,,,,,,,,,,,,,,,,,,,,,,,,,,,,,,,,,,,,,,,,,,,,,,,,,,,,,,,,,,,,,,,,,,,,,,,,,,,,,,,,,,,,,,,,,,,,,,,,,,,,,,,,,,,,,,,,,,,,,,,,,,,,,,,,,,,,,,,,,,,,,,,,,,,,
0,62,62,23,1,,61140ecd6c72bb8ce54d0ac8,62bbf9b9f2bc492c14ad186f,2022-06-29_09h05.55.612,Colour_Asymmetry_Pilot,2022.1.3,Win32,60.03842459,62bbe60bf3d75ef465d3e404,,,,,,,,,,,,,,,,,,,,,,,,,,,,,,,,,,,,,,,,,,,,,,,,,,,,,,,,,,,,,,,,,,,,,,,,,,,,,,,,,,,,,,,,,,,,,,,,,,,,,,,,,,,,,,,,,,,,,,,,,,,,,,,,,,,,,,,,,,,,,,,,,,,,,,,,,,,,,,
0,63,63,0,1,,61140ecd6c72bb8ce54d0ac8,62bbf9b9f2bc492c14ad186f,2022-06-29_09h05.55.612,Colour_Asymmetry_Pilot,2022.1.3,Win32,60.03842459,62bbe60bf3d75ef465d3e404,,,,,,,,,,,,,,,,,,,,,,,,,,,,,,,,,,,,,,,,,,,,,,,,,,,,,,,,,,,,,,,,,,,,,,,,,,,,,,,,,,,,,,,,,,,,,,,,,,,,,,,,,,,,,,,,,,,,,,,,,,,,,,,,,,,,,,,,,,,,,,,,,,,,,,,,,,,,,,
0,64,64,37,1,,61140ecd6c72bb8ce54d0ac8,62bbf9b9f2bc492c14ad186f,2022-06-29_09h05.55.612,Colour_Asymmetry_Pilot,2022.1.3,Win32,60.03842459,62bbe60bf3d75ef465d3e404,,,,,,,,,,,,,,,,,,,,,,,,,,,,,,,,,,,,,,,,,,,,,,,,,,,,,,,,,,,,,,,,,,,,,,,,,,,,,,,,,,,,,,,,,,,,,,,,,,,,,,,,,,,,,,,,,,,,,,,,,,,,,,,,,,,,,,,,,,,,,,,,,,,,,,,,,,,,,,
0,65,65,64,1,,61140ecd6c72bb8ce54d0ac8,62bbf9b9f2bc492c14ad186f,2022-06-29_09h05.55.612,Colour_Asymmetry_Pilot,2022.1.3,Win32,60.03842459,62bbe60bf3d75ef465d3e404,,,,,,,,,,,,,,,,,,,,,,,,,,,,,,,,,,,,,,,,,,,,,,,,,,,,,,,,,,,,,,,,,,,,,,,,,,,,,,,,,,,,,,,,,,,,,,,,,,,,,,,,,,,,,,,,,,,,,,,,,,,,,,,,,,,,,,,,,,,,,,,,,,,,,,,,,,,,,,
0,66,66,10,1,,61140ecd6c72bb8ce54d0ac8,62bbf9b9f2bc492c14ad186f,2022-06-29_09h05.55.612,Colour_Asymmetry_Pilot,2022.1.3,Win32,60.03842459,62bbe60bf3d75ef465d3e404,,,,,,,,,,,,,,,,,,,,,,,,,,,,,,,,,,,,,,,,,,,,,,,,,,,,,,,,,,,,,,,,,,,,,,,,,,,,,,,,,,,,,,,,,,,,,,,,,,,,,,,,,,,,,,,,,,,,,,,,,,,,,,,,,,,,,,,,,,,,,,,,,,,,,,,,,,,,,,
0,67,67,84,1,,61140ecd6c72bb8ce54d0ac8,62bbf9b9f2bc492c14ad186f,2022-06-29_09h05.55.612,Colour_Asymmetry_Pilot,2022.1.3,Win32,60.03842459,62bbe60bf3d75ef465d3e404,,,,,,,,,,,,,,,,,,,,,,,,,,,,,,,,,,,,,,,,,,,,,,,,,,,,,,,,,,,,,,,,,,,,,,,,,,,,,,,,,,,,,,,,,,,,,,,,,,,,,,,,,,,,,,,,,,,,,,,,,,,,,,,,,,,,,,,,,,,,,,,,,,,,,,,,,,,,,,
0,68,68,47,1,,61140ecd6c72bb8ce54d0ac8,62bbf9b9f2bc492c14ad186f,2022-06-29_09h05.55.612,Colour_Asymmetry_Pilot,2022.1.3,Win32,60.03842459,62bbe60bf3d75ef465d3e404,,,,,,,,,,,,,,,,,,,,,,,,,,,,,,,,,,,,,,,,,,,,,,,,,,,,,,,,,,,,,,,,,,,,,,,,,,,,,,,,,,,,,,,,,,,,,,,,,,,,,,,,,,,,,,,,,,,,,,,,,,,,,,,,,,,,,,,,,,,,,,,,,,,,,,,,,,,,,,
0,69,69,40,1,,61140ecd6c72bb8ce54d0ac8,62bbf9b9f2bc492c14ad186f,2022-06-29_09h05.55.612,Colour_Asymmetry_Pilot,2022.1.3,Win32,60.03842459,62bbe60bf3d75ef465d3e404,,,,,,,,,,,,,,,,,,,,,,,,,,,,,,,,,,,,,,,,,,,,,,,,,,,,,,,,,,,,,,,,,,,,,,,,,,,,,,,,,,,,,,,,,,,,,,,,,,,,,,,,,,,,,,,,,,,,,,,,,,,,,,,,,,,,,,,,,,,,,,,,,,,,,,,,,,,,,,
0,70,70,60,1,,61140ecd6c72bb8ce54d0ac8,62bbf9b9f2bc492c14ad186f,2022-06-29_09h05.55.612,Colour_Asymmetry_Pilot,2022.1.3,Win32,60.03842459,62bbe60bf3d75ef465d3e404,,,,,,,,,,,,,,,,,,,,,,,,,,,,,,,,,,,,,,,,,,,,,,,,,,,,,,,,,,,,,,,,,,,,,,,,,,,,,,,,,,,,,,,,,,,,,,,,,,,,,,,,,,,,,,,,,,,,,,,,,,,,,,,,,,,,,,,,,,,,,,,,,,,,,,,,,,,,,,
0,71,71,22,1,,61140ecd6c72bb8ce54d0ac8,62bbf9b9f2bc492c14ad186f,2022-06-29_09h05.55.612,Colour_Asymmetry_Pilot,2022.1.3,Win32,60.03842459,62bbe60bf3d75ef465d3e404,,,,,,,,,,,,,,,,,,,,,,,,,,,,,,,,,,,,,,,,,,,,,,,,,,,,,,,,,,,,,,,,,,,,,,,,,,,,,,,,,,,,,,,,,,,,,,,,,,,,,,,,,,,,,,,,,,,,,,,,,,,,,,,,,,,,,,,,,,,,,,,,,,,,,,,,,,,,,,
0,72,72,19,1,,61140ecd6c72bb8ce54d0ac8,62bbf9b9f2bc492c14ad186f,2022-06-29_09h05.55.612,Colour_Asymmetry_Pilot,2022.1.3,Win32,60.03842459,62bbe60bf3d75ef465d3e404,,,,,,,,,,,,,,,,,,,,,,,,,,,,,,,,,,,,,,,,,,,,,,,,,,,,,,,,,,,,,,,,,,,,,,,,,,,,,,,,,,,,,,,,,,,,,,,,,,,,,,,,,,,,,,,,,,,,,,,,,,,,,,,,,,,,,,,,,,,,,,,,,,,,,,,,,,,,,,
0,73,73,90,1,,61140ecd6c72bb8ce54d0ac8,62bbf9b9f2bc492c14ad186f,2022-06-29_09h05.55.612,Colour_Asymmetry_Pilot,2022.1.3,Win32,60.03842459,62bbe60bf3d75ef465d3e404,,,,,,,,,,,,,,,,,,,,,,,,,,,,,,,,,,,,,,,,,,,,,,,,,,,,,,,,,,,,,,,,,,,,,,,,,,,,,,,,,,,,,,,,,,,,,,,,,,,,,,,,,,,,,,,,,,,,,,,,,,,,,,,,,,,,,,,,,,,,,,,,,,,,,,,,,,,,,,
0,74,74,16,1,,61140ecd6c72bb8ce54d0ac8,62bbf9b9f2bc492c14ad186f,2022-06-29_09h05.55.612,Colour_Asymmetry_Pilot,2022.1.3,Win32,60.03842459,62bbe60bf3d75ef465d3e404,,,,,,,,,,,,,,,,,,,,,,,,,,,,,,,,,,,,,,,,,,,,,,,,,,,,,,,,,,,,,,,,,,,,,,,,,,,,,,,,,,,,,,,,,,,,,,,,,,,,,,,,,,,,,,,,,,,,,,,,,,,,,,,,,,,,,,,,,,,,,,,,,,,,,,,,,,,,,,
0,75,75,50,1,,61140ecd6c72bb8ce54d0ac8,62bbf9b9f2bc492c14ad186f,2022-06-29_09h05.55.612,Colour_Asymmetry_Pilot,2022.1.3,Win32,60.03842459,62bbe60bf3d75ef465d3e404,,,,,,,,,,,,,,,,,,,,,,,,,,,,,,,,,,,,,,,,,,,,,,,,,,,,,,,,,,,,,,,,,,,,,,,,,,,,,,,,,,,,,,,,,,,,,,,,,,,,,,,,,,,,,,,,,,,,,,,,,,,,,,,,,,,,,,,,,,,,,,,,,,,,,,,,,,,,,,
0,76,76,54,1,,61140ecd6c72bb8ce54d0ac8,62bbf9b9f2bc492c14ad186f,2022-06-29_09h05.55.612,Colour_Asymmetry_Pilot,2022.1.3,Win32,60.03842459,62bbe60bf3d75ef465d3e404,,,,,,,,,,,,,,,,,,,,,,,,,,,,,,,,,,,,,,,,,,,,,,,,,,,,,,,,,,,,,,,,,,,,,,,,,,,,,,,,,,,,,,,,,,,,,,,,,,,,,,,,,,,,,,,,,,,,,,,,,,,,,,,,,,,,,,,,,,,,,,,,,,,,,,,,,,,,,,
0,77,77,52,1,,61140ecd6c72bb8ce54d0ac8,62bbf9b9f2bc492c14ad186f,2022-06-29_09h05.55.612,Colour_Asymmetry_Pilot,2022.1.3,Win32,60.03842459,62bbe60bf3d75ef465d3e404,,,,,,,,,,,,,,,,,,,,,,,,,,,,,,,,,,,,,,,,,,,,,,,,,,,,,,,,,,,,,,,,,,,,,,,,,,,,,,,,,,,,,,,,,,,,,,,,,,,,,,,,,,,,,,,,,,,,,,,,,,,,,,,,,,,,,,,,,,,,,,,,,,,,,,,,,,,,,,
0,78,78,59,1,,61140ecd6c72bb8ce54d0ac8,62bbf9b9f2bc492c14ad186f,2022-06-29_09h05.55.612,Colour_Asymmetry_Pilot,2022.1.3,Win32,60.03842459,62bbe60bf3d75ef465d3e404,,,,,,,,,,,,,,,,,,,,,,,,,,,,,,,,,,,,,,,,,,,,,,,,,,,,,,,,,,,,,,,,,,,,,,,,,,,,,,,,,,,,,,,,,,,,,,,,,,,,,,,,,,,,,,,,,,,,,,,,,,,,,,,,,,,,,,,,,,,,,,,,,,,,,,,,,,,,,,
0,79,79,62,1,,61140ecd6c72bb8ce54d0ac8,62bbf9b9f2bc492c14ad186f,2022-06-29_09h05.55.612,Colour_Asymmetry_Pilot,2022.1.3,Win32,60.03842459,62bbe60bf3d75ef465d3e404,,,,,,,,,,,,,,,,,,,,,,,,,,,,,,,,,,,,,,,,,,,,,,,,,,,,,,,,,,,,,,,,,,,,,,,,,,,,,,,,,,,,,,,,,,,,,,,,,,,,,,,,,,,,,,,,,,,,,,,,,,,,,,,,,,,,,,,,,,,,,,,,,,,,,,,,,,,,,,
0,80,80,69,1,,61140ecd6c72bb8ce54d0ac8,62bbf9b9f2bc492c14ad186f,2022-06-29_09h05.55.612,Colour_Asymmetry_Pilot,2022.1.3,Win32,60.03842459,62bbe60bf3d75ef465d3e404,,,,,,,,,,,,,,,,,,,,,,,,,,,,,,,,,,,,,,,,,,,,,,,,,,,,,,,,,,,,,,,,,,,,,,,,,,,,,,,,,,,,,,,,,,,,,,,,,,,,,,,,,,,,,,,,,,,,,,,,,,,,,,,,,,,,,,,,,,,,,,,,,,,,,,,,,,,,,,
0,81,81,58,1,,61140ecd6c72bb8ce54d0ac8,62bbf9b9f2bc492c14ad186f,2022-06-29_09h05.55.612,Colour_Asymmetry_Pilot,2022.1.3,Win32,60.03842459,62bbe60bf3d75ef465d3e404,,,,,,,,,,,,,,,,,,,,,,,,,,,,,,,,,,,,,,,,,,,,,,,,,,,,,,,,,,,,,,,,,,,,,,,,,,,,,,,,,,,,,,,,,,,,,,,,,,,,,,,,,,,,,,,,,,,,,,,,,,,,,,,,,,,,,,,,,,,,,,,,,,,,,,,,,,,,,,
0,82,82,48,1,,61140ecd6c72bb8ce54d0ac8,62bbf9b9f2bc492c14ad186f,2022-06-29_09h05.55.612,Colour_Asymmetry_Pilot,2022.1.3,Win32,60.03842459,62bbe60bf3d75ef465d3e404,,,,,,,,,,,,,,,,,,,,,,,,,,,,,,,,,,,,,,,,,,,,,,,,,,,,,,,,,,,,,,,,,,,,,,,,,,,,,,,,,,,,,,,,,,,,,,,,,,,,,,,,,,,,,,,,,,,,,,,,,,,,,,,,,,,,,,,,,,,,,,,,,,,,,,,,,,,,,,
0,83,83,9,1,,61140ecd6c72bb8ce54d0ac8,62bbf9b9f2bc492c14ad186f,2022-06-29_09h05.55.612,Colour_Asymmetry_Pilot,2022.1.3,Win32,60.03842459,62bbe60bf3d75ef465d3e404,,,,,,,,,,,,,,,,,,,,,,,,,,,,,,,,,,,,,,,,,,,,,,,,,,,,,,,,,,,,,,,,,,,,,,,,,,,,,,,,,,,,,,,,,,,,,,,,,,,,,,,,,,,,,,,,,,,,,,,,,,,,,,,,,,,,,,,,,,,,,,,,,,,,,,,,,,,,,,
0,84,84,79,1,,61140ecd6c72bb8ce54d0ac8,62bbf9b9f2bc492c14ad186f,2022-06-29_09h05.55.612,Colour_Asymmetry_Pilot,2022.1.3,Win32,60.03842459,62bbe60bf3d75ef465d3e404,,,,,,,,,,,,,,,,,,,,,,,,,,,,,,,,,,,,,,,,,,,,,,,,,,,,,,,,,,,,,,,,,,,,,,,,,,,,,,,,,,,,,,,,,,,,,,,,,,,,,,,,,,,,,,,,,,,,,,,,,,,,,,,,,,,,,,,,,,,,,,,,,,,,,,,,,,,,,,
0,85,85,38,1,,61140ecd6c72bb8ce54d0ac8,62bbf9b9f2bc492c14ad186f,2022-06-29_09h05.55.612,Colour_Asymmetry_Pilot,2022.1.3,Win32,60.03842459,62bbe60bf3d75ef465d3e404,,,,,,,,,,,,,,,,,,,,,,,,,,,,,,,,,,,,,,,,,,,,,,,,,,,,,,,,,,,,,,,,,,,,,,,,,,,,,,,,,,,,,,,,,,,,,,,,,,,,,,,,,,,,,,,,,,,,,,,,,,,,,,,,,,,,,,,,,,,,,,,,,,,,,,,,,,,,,,
0,86,86,15,1,,61140ecd6c72bb8ce54d0ac8,62bbf9b9f2bc492c14ad186f,2022-06-29_09h05.55.612,Colour_Asymmetry_Pilot,2022.1.3,Win32,60.03842459,62bbe60bf3d75ef465d3e404,,,,,,,,,,,,,,,,,,,,,,,,,,,,,,,,,,,,,,,,,,,,,,,,,,,,,,,,,,,,,,,,,,,,,,,,,,,,,,,,,,,,,,,,,,,,,,,,,,,,,,,,,,,,,,,,,,,,,,,,,,,,,,,,,,,,,,,,,,,,,,,,,,,,,,,,,,,,,,
0,87,87,63,1,,61140ecd6c72bb8ce54d0ac8,62bbf9b9f2bc492c14ad186f,2022-06-29_09h05.55.612,Colour_Asymmetry_Pilot,2022.1.3,Win32,60.03842459,62bbe60bf3d75ef465d3e404,,,,,,,,,,,,,,,,,,,,,,,,,,,,,,,,,,,,,,,,,,,,,,,,,,,,,,,,,,,,,,,,,,,,,,,,,,,,,,,,,,,,,,,,,,,,,,,,,,,,,,,,,,,,,,,,,,,,,,,,,,,,,,,,,,,,,,,,,,,,,,,,,,,,,,,,,,,,,,
0,88,88,73,1,,61140ecd6c72bb8ce54d0ac8,62bbf9b9f2bc492c14ad186f,2022-06-29_09h05.55.612,Colour_Asymmetry_Pilot,2022.1.3,Win32,60.03842459,62bbe60bf3d75ef465d3e404,,,,,,,,,,,,,,,,,,,,,,,,,,,,,,,,,,,,,,,,,,,,,,,,,,,,,,,,,,,,,,,,,,,,,,,,,,,,,,,,,,,,,,,,,,,,,,,,,,,,,,,,,,,,,,,,,,,,,,,,,,,,,,,,,,,,,,,,,,,,,,,,,,,,,,,,,,,,,,
0,89,89,5,1,,61140ecd6c72bb8ce54d0ac8,62bbf9b9f2bc492c14ad186f,2022-06-29_09h05.55.612,Colour_Asymmetry_Pilot,2022.1.3,Win32,60.03842459,62bbe60bf3d75ef465d3e404,,,,,,,,,,,,,,,,,,,,,,,,,,,,,,,,,,,,,,,,,,,,,,,,,,,,,,,,,,,,,,,,,,,,,,,,,,,,,,,,,,,,,,,,,,,,,,,,,,,,,,,,,,,,,,,,,,,,,,,,,,,,,,,,,,,,,,,,,,,,,,,,,,,,,,,,,,,,,,
0,90,90,75,1,,61140ecd6c72bb8ce54d0ac8,62bbf9b9f2bc492c14ad186f,2022-06-29_09h05.55.612,Colour_Asymmetry_Pilot,2022.1.3,Win32,60.03842459,62bbe60bf3d75ef465d3e404,,,,,,,,,,,,,,,,,,,,,,,,,,,,,,,,,,,,,,,,,,,,,,,,,,,,,,,,,,,,,,,,,,,,,,,,,,,,,,,,,,,,,,,,,,,,,,,,,,,,,,,,,,,,,,,,,,,,,,,,,,,,,,,,,,,,,,,,,,,,,,,,,,,,,,,,,,,,,,
0,91,91,2,1,,61140ecd6c72bb8ce54d0ac8,62bbf9b9f2bc492c14ad186f,2022-06-29_09h05.55.612,Colour_Asymmetry_Pilot,2022.1.3,Win32,60.03842459,62bbe60bf3d75ef465d3e404,,,,,,,,,,,,,,,,,,,,,,,,,,,,,,,,,,,,,,,,,,,,,,,,,,,,,,,,,,,,,,,,,,,,,,,,,,,,,,,,,,,,,,,,,,,,,,,,,,,,,,,,,,,,,,,,,,,,,,,,,,,,,,,,,,,,,,,,,,,,,,,,,,,,,,,,,,,,,,
0,92,92,21,1,,61140ecd6c72bb8ce54d0ac8,62bbf9b9f2bc492c14ad186f,2022-06-29_09h05.55.612,Colour_Asymmetry_Pilot,2022.1.3,Win32,60.03842459,62bbe60bf3d75ef465d3e404,,,,,,,,,,,,,,,,,,,,,,,,,,,,,,,,,,,,,,,,,,,,,,,,,,,,,,,,,,,,,,,,,,,,,,,,,,,,,,,,,,,,,,,,,,,,,,,,,,,,,,,,,,,,,,,,,,,,,,,,,,,,,,,,,,,,,,,,,,,,,,,,,,,,,,,,,,,,,,
,,,,,,61140ecd6c72bb8ce54d0ac8,62bbf9b9f2bc492c14ad186f,2022-06-29_09h05.55.612,Colour_Asymmetry_Pilot,2022.1.3,Win32,60.03842459,62bbe60bf3d75ef465d3e404,0,0,0,150,1,fourtwo,,,,,,,,,,,,,,,,,,,,,,,,,,,,,,,,,,,,,,,,,,,,,,,,,,,,,,,,,,,,,,,,,,,,,,,,,,,,,,,,,,,,,,,,,,,,,,,,,,,,,,,,,,,,,,,,,,,,,,,,,,,,,,,,,,,,,,,,,,,,,,,,,,,,,,,,
,,,,,,61140ecd6c72bb8ce54d0ac8,62bbf9b9f2bc492c14ad186f,2022-06-29_09h05.55.612,Colour_Asymmetry_Pilot,2022.1.3,Win32,60.03842459,62bbe60bf3d75ef465d3e404,0,1,1,109,1,threefour,,,,,,,,,,,,,,,,,,,,,,,,,,,,,,,,,,,,,,,,,,,,,,,,,,,,,,,,,,,,,,,,,,,,,,,,,,,,,,,,,,,,,,,,,,,,,,,,,,,,,,,,,,,,,,,,,,,,,,,,,,,,,,,,,,,,,,,,,,,,,,,,,,,,,,,,
,,,,,,61140ecd6c72bb8ce54d0ac8,62bbf9b9f2bc492c14ad186f,2022-06-29_09h05.55.612,Colour_Asymmetry_Pilot,2022.1.3,Win32,60.03842459,62bbe60bf3d75ef465d3e404,0,2,2,24,1,onetwo,,,,,,,,,,,,,,,,,,,,,,,,,,,,,,,,,,,,,,,,,,,,,,,,,,,,,,,,,,,,,,,,,,,,,,,,,,,,,,,,,,,,,,,,,,,,,,,,,,,,,,,,,,,,,,,,,,,,,,,,,,,,,,,,,,,,,,,,,,,,,,,,,,,,,,,,
,,,,,,61140ecd6c72bb8ce54d0ac8,62bbf9b9f2bc492c14ad186f,2022-06-29_09h05.55.612,Colour_Asymmetry_Pilot,2022.1.3,Win32,60.03842459,62bbe60bf3d75ef465d3e404,0,3,3,159,1,fourthree,,,,,,,,,,,,,,,,,,,,,,,,,,,,,,,,,,,,,,,,,,,,,,,,,,,,,,,,,,,,,,,,,,,,,,,,,,,,,,,,,,,,,,,,,,,,,,,,,,,,,,,,,,,,,,,,,,,,,,,,,,,,,,,,,,,,,,,,,,,,,,,,,,,,,,,,
,,,,,,61140ecd6c72bb8ce54d0ac8,62bbf9b9f2bc492c14ad186f,2022-06-29_09h05.55.612,Colour_Asymmetry_Pilot,2022.1.3,Win32,60.03842459,62bbe60bf3d75ef465d3e404,0,4,4,86,1,fourtwo,,,,,,,,,,,,,,,,,,,,,,,,,,,,,,,,,,,,,,,,,,,,,,,,,,,,,,,,,,,,,,,,,,,,,,,,,,,,,,,,,,,,,,,,,,,,,,,,,,,,,,,,,,,,,,,,,,,,,,,,,,,,,,,,,,,,,,,,,,,,,,,,,,,,,,,,
,,,,,,61140ecd6c72bb8ce54d0ac8,62bbf9b9f2bc492c14ad186f,2022-06-29_09h05.55.612,Colour_Asymmetry_Pilot,2022.1.3,Win32,60.03842459,62bbe60bf3d75ef465d3e404,0,5,5,157,1,threefour,,,,,,,,,,,,,,,,,,,,,,,,,,,,,,,,,,,,,,,,,,,,,,,,,,,,,,,,,,,,,,,,,,,,,,,,,,,,,,,,,,,,,,,,,,,,,,,,,,,,,,,,,,,,,,,,,,,,,,,,,,,,,,,,,,,,,,,,,,,,,,,,,,,,,,,,
,,,,,,61140ecd6c72bb8ce54d0ac8,62bbf9b9f2bc492c14ad186f,2022-06-29_09h05.55.612,Colour_Asymmetry_Pilot,2022.1.3,Win32,60.03842459,62bbe60bf3d75ef465d3e404,0,6,6,5,1,threefour,,,,,,,,,,,,,,,,,,,,,,,,,,,,,,,,,,,,,,,,,,,,,,,,,,,,,,,,,,,,,,,,,,,,,,,,,,,,,,,,,,,,,,,,,,,,,,,,,,,,,,,,,,,,,,,,,,,,,,,,,,,,,,,,,,,,,,,,,,,,,,,,,,,,,,,,
,,,,,,61140ecd6c72bb8ce54d0ac8,62bbf9b9f2bc492c14ad186f,2022-06-29_09h05.55.612,Colour_Asymmetry_Pilot,2022.1.3,Win32,60.03842459,62bbe60bf3d75ef465d3e404,0,7,7,46,1,fourtwo,,,,,,,,,,,,,,,,,,,,,,,,,,,,,,,,,,,,,,,,,,,,,,,,,,,,,,,,,,,,,,,,,,,,,,,,,,,,,,,,,,,,,,,,,,,,,,,,,,,,,,,,,,,,,,,,,,,,,,,,,,,,,,,,,,,,,,,,,,,,,,,,,,,,,,,,
,,,,,,61140ecd6c72bb8ce54d0ac8,62bbf9b9f2bc492c14ad186f,2022-06-29_09h05.55.612,Colour_Asymmetry_Pilot,2022.1.3,Win32,60.03842459,62bbe60bf3d75ef465d3e404,0,8,8,127,1,fourthree,,,,,,,,,,,,,,,,,,,,,,,,,,,,,,,,,,,,,,,,,,,,,,,,,,,,,,,,,,,,,,,,,,,,,,,,,,,,,,,,,,,,,,,,,,,,,,,,,,,,,,,,,,,,,,,,,,,,,,,,,,,,,,,,,,,,,,,,,,,,,,,,,,,,,,,,
,,,,,,61140ecd6c72bb8ce54d0ac8,62bbf9b9f2bc492c14ad186f,2022-06-29_09h05.55.612,Colour_Asymmetry_Pilot,2022.1.3,Win32,60.03842459,62bbe60bf3d75ef465d3e404,0,9,9,79,1,fourthree,,,,,,,,,,,,,,,,,,,,,,,,,,,,,,,,,,,,,,,,,,,,,,,,,,,,,,,,,,,,,,,,,,,,,,,,,,,,,,,,,,,,,,,,,,,,,,,,,,,,,,,,,,,,,,,,,,,,,,,,,,,,,,,,,,,,,,,,,,,,,,,,,,,,,,,,
,,,,,,61140ecd6c72bb8ce54d0ac8,62bbf9b9f2bc492c14ad186f,2022-06-29_09h05.55.612,Colour_Asymmetry_Pilot,2022.1.3,Win32,60.03842459,62bbe60bf3d75ef465d3e404,0,10,10,55,1,fourthree,,,,,,,,,,,,,,,,,,,,,,,,,,,,,,,,,,,,,,,,,,,,,,,,,,,,,,,,,,,,,,,,,,,,,,,,,,,,,,,,,,,,,,,,,,,,,,,,,,,,,,,,,,,,,,,,,,,,,,,,,,,,,,,,,,,,,,,,,,,,,,,,,,,,,,,,
,,,,,,61140ecd6c72bb8ce54d0ac8,62bbf9b9f2bc492c14ad186f,2022-06-29_09h05.55.612,Colour_Asymmetry_Pilot,2022.1.3,Win32,60.03842459,62bbe60bf3d75ef465d3e404,0,11,11,91,1,twofour,,,,,,,,,,,,,,,,,,,,,,,,,,,,,,,,,,,,,,,,,,,,,,,,,,,,,,,,,,,,,,,,,,,,,,,,,,,,,,,,,,,,,,,,,,,,,,,,,,,,,,,,,,,,,,,,,,,,,,,,,,,,,,,,,,,,,,,,,,,,,,,,,,,,,,,,
,,,,,,61140ecd6c72bb8ce54d0ac8,62bbf9b9f2bc492c14ad186f,2022-06-29_09h05.55.612,Colour_Asymmetry_Pilot,2022.1.3,Win32,60.03842459,62bbe60bf3d75ef465d3e404,0,12,12,70,1,fourtwo,,,,,,,,,,,,,,,,,,,,,,,,,,,,,,,,,,,,,,,,,,,,,,,,,,,,,,,,,,,,,,,,,,,,,,,,,,,,,,,,,,,,,,,,,,,,,,,,,,,,,,,,,,,,,,,,,,,,,,,,,,,,,,,,,,,,,,,,,,,,,,,,,,,,,,,,
,,,,,,61140ecd6c72bb8ce54d0ac8,62bbf9b9f2bc492c14ad186f,2022-06-29_09h05.55.612,Colour_Asymmetry_Pilot,2022.1.3,Win32,60.03842459,62bbe60bf3d75ef465d3e404,0,13,13,37,1,threefour,,,,,,,,,,,,,,,,,,,,,,,,,,,,,,,,,,,,,,,,,,,,,,,,,,,,,,,,,,,,,,,,,,,,,,,,,,,,,,,,,,,,,,,,,,,,,,,,,,,,,,,,,,,,,,,,,,,,,,,,,,,,,,,,,,,,,,,,,,,,,,,,,,,,,,,,
,,,,,,61140ecd6c72bb8ce54d0ac8,62bbf9b9f2bc492c14ad186f,2022-06-29_09h05.55.612,Colour_Asymmetry_Pilot,2022.1.3,Win32,60.03842459,62bbe60bf3d75ef465d3e404,0,14,14,121,1,onethree,,,,,,,,,,,,,,,,,,,,,,,,,,,,,,,,,,,,,,,,,,,,,,,,,,,,,,,,,,,,,,,,,,,,,,,,,,,,,,,,,,,,,,,,,,,,,,,,,,,,,,,,,,,,,,,,,,,,,,,,,,,,,,,,,,,,,,,,,,,,,,,,,,,,,,,,
,,,,,,61140ecd6c72bb8ce54d0ac8,62bbf9b9f2bc492c14ad186f,2022-06-29_09h05.55.612,Colour_Asymmetry_Pilot,2022.1.3,Win32,60.03842459,62bbe60bf3d75ef465d3e404,0,15,15,113,1,onethree,,,,,,,,,,,,,,,,,,,,,,,,,,,,,,,,,,,,,,,,,,,,,,,,,,,,,,,,,,,,,,,,,,,,,,,,,,,,,,,,,,,,,,,,,,,,,,,,,,,,,,,,,,,,,,,,,,,,,,,,,,,,,,,,,,,,,,,,,,,,,,,,,,,,,,,,
,,,,,,61140ecd6c72bb8ce54d0ac8,62bbf9b9f2bc492c14ad186f,2022-06-29_09h05.55.612,Colour_Asymmetry_Pilot,2022.1.3,Win32,60.03842459,62bbe60bf3d75ef465d3e404,0,16,16,153,1,onethree,,,,,,,,,,,,,,,,,,,,,,,,,,,,,,,,,,,,,,,,,,,,,,,,,,,,,,,,,,,,,,,,,,,,,,,,,,,,,,,,,,,,,,,,,,,,,,,,,,,,,,,,,,,,,,,,,,,,,,,,,,,,,,,,,,,,,,,,,,,,,,,,,,,,,,,,
,,,,,,61140ecd6c72bb8ce54d0ac8,62bbf9b9f2bc492c14ad186f,2022-06-29_09h05.55.612,Colour_Asymmetry_Pilot,2022.1.3,Win32,60.03842459,62bbe60bf3d75ef465d3e404,0,17,17,133,1,threefour,,,,,,,,,,,,,,,,,,,,,,,,,,,,,,,,,,,,,,,,,,,,,,,,,,,,,,,,,,,,,,,,,,,,,,,,,,,,,,,,,,,,,,,,,,,,,,,,,,,,,,,,,,,,,,,,,,,,,,,,,,,,,,,,,,,,,,,,,,,,,,,,,,,,,,,,
,,,,,,61140ecd6c72bb8ce54d0ac8,62bbf9b9f2bc492c14ad186f,2022-06-29_09h05.55.612,Colour_Asymmetry_Pilot,2022.1.3,Win32,60.03842459,62bbe60bf3d75ef465d3e404,0,18,18,32,1,onetwo,,,,,,,,,,,,,,,,,,,,,,,,,,,,,,,,,,,,,,,,,,,,,,,,,,,,,,,,,,,,,,,,,,,,,,,,,,,,,,,,,,,,,,,,,,,,,,,,,,,,,,,,,,,,,,,,,,,,,,,,,,,,,,,,,,,,,,,,,,,,,,,,,,,,,,,,
,,,,,,61140ecd6c72bb8ce54d0ac8,62bbf9b9f2bc492c14ad186f,2022-06-29_09h05.55.612,Colour_Asymmetry_Pilot,2022.1.3,Win32,60.03842459,62bbe60bf3d75ef465d3e404,0,19,19,141,1,threefour,,,,,,,,,,,,,,,,,,,,,,,,,,,,,,,,,,,,,,,,,,,,,,,,,,,,,,,,,,,,,,,,,,,,,,,,,,,,,,,,,,,,,,,,,,,,,,,,,,,,,,,,,,,,,,,,,,,,,,,,,,,,,,,,,,,,,,,,,,,,,,,,,,,,,,,,
,,,,,,61140ecd6c72bb8ce54d0ac8,62bbf9b9f2bc492c14ad186f,2022-06-29_09h05.55.612,Colour_Asymmetry_Pilot,2022.1.3,Win32,60.03842459,62bbe60bf3d75ef465d3e404,0,20,20,48,1,onetwo,,,,,,,,,,,,,,,,,,,,,,,,,,,,,,,,,,,,,,,,,,,,,,,,,,,,,,,,,,,,,,,,,,,,,,,,,,,,,,,,,,,,,,,,,,,,,,,,,,,,,,,,,,,,,,,,,,,,,,,,,,,,,,,,,,,,,,,,,,,,,,,,,,,,,,,,
,,,,,,61140ecd6c72bb8ce54d0ac8,62bbf9b9f2bc492c14ad186f,2022-06-29_09h05.55.612,Colour_Asymmetry_Pilot,2022.1.3,Win32,60.03842459,62bbe60bf3d75ef465d3e404,0,21,21,95,1,fourthree,,,,,,,,,,,,,,,,,,,,,,,,,,,,,,,,,,,,,,,,,,,,,,,,,,,,,,,,,,,,,,,,,,,,,,,,,,,,,,,,,,,,,,,,,,,,,,,,,,,,,,,,,,,,,,,,,,,,,,,,,,,,,,,,,,,,,,,,,,,,,,,,,,,,,,,,
,,,,,,61140ecd6c72bb8ce54d0ac8,62bbf9b9f2bc492c14ad186f,2022-06-29_09h05.55.612,Colour_Asymmetry_Pilot,2022.1.3,Win32,60.03842459,62bbe60bf3d75ef465d3e404,0,22,22,8,1,onetwo,,,,,,,,,,,,,,,,,,,,,,,,,,,,,,,,,,,,,,,,,,,,,,,,,,,,,,,,,,,,,,,,,,,,,,,,,,,,,,,,,,,,,,,,,,,,,,,,,,,,,,,,,,,,,,,,,,,,,,,,,,,,,,,,,,,,,,,,,,,,,,,,,,,,,,,,
,,,,,,61140ecd6c72bb8ce54d0ac8,62bbf9b9f2bc492c14ad186f,2022-06-29_09h05.55.612,Colour_Asymmetry_Pilot,2022.1.3,Win32,60.03842459,62bbe60bf3d75ef465d3e404,0,23,23,118,1,fourtwo,,,,,,,,,,,,,,,,,,,,,,,,,,,,,,,,,,,,,,,,,,,,,,,,,,,,,,,,,,,,,,,,,,,,,,,,,,,,,,,,,,,,,,,,,,,,,,,,,,,,,,,,,,,,,,,,,,,,,,,,,,,,,,,,,,,,,,,,,,,,,,,,,,,,,,,,
,,,,,,61140ecd6c72bb8ce54d0ac8,62bbf9b9f2bc492c14ad186f,2022-06-29_09h05.55.612,Colour_Asymmetry_Pilot,2022.1.3,Win32,60.03842459,62bbe60bf3d75ef465d3e404,0,24,24,89,1,onethree,,,,,,,,,,,,,,,,,,,,,,,,,,,,,,,,,,,,,,,,,,,,,,,,,,,,,,,,,,,,,,,,,,,,,,,,,,,,,,,,,,,,,,,,,,,,,,,,,,,,,,,,,,,,,,,,,,,,,,,,,,,,,,,,,,,,,,,,,,,,,,,,,,,,,,,,
,,,,,,61140ecd6c72bb8ce54d0ac8,62bbf9b9f2bc492c14ad186f,2022-06-29_09h05.55.612,Colour_Asymmetry_Pilot,2022.1.3,Win32,60.03842459,62bbe60bf3d75ef465d3e404,0,25,25,96,1,onetwo,,,,,,,,,,,,,,,,,,,,,,,,,,,,,,,,,,,,,,,,,,,,,,,,,,,,,,,,,,,,,,,,,,,,,,,,,,,,,,,,,,,,,,,,,,,,,,,,,,,,,,,,,,,,,,,,,,,,,,,,,,,,,,,,,,,,,,,,,,,,,,,,,,,,,,,,
,,,,,,61140ecd6c72bb8ce54d0ac8,62bbf9b9f2bc492c14ad186f,2022-06-29_09h05.55.612,Colour_Asymmetry_Pilot,2022.1.3,Win32,60.03842459,62bbe60bf3d75ef465d3e404,0,26,26,47,1,fourthree,,,,,,,,,,,,,,,,,,,,,,,,,,,,,,,,,,,,,,,,,,,,,,,,,,,,,,,,,,,,,,,,,,,,,,,,,,,,,,,,,,,,,,,,,,,,,,,,,,,,,,,,,,,,,,,,,,,,,,,,,,,,,,,,,,,,,,,,,,,,,,,,,,,,,,,,
,,,,,,61140ecd6c72bb8ce54d0ac8,62bbf9b9f2bc492c14ad186f,2022-06-29_09h05.55.612,Colour_Asymmetry_Pilot,2022.1.3,Win32,60.03842459,62bbe60bf3d75ef465d3e404,0,27,27,135,1,fourthree,,,,,,,,,,,,,,,,,,,,,,,,,,,,,,,,,,,,,,,,,,,,,,,,,,,,,,,,,,,,,,,,,,,,,,,,,,,,,,,,,,,,,,,,,,,,,,,,,,,,,,,,,,,,,,,,,,,,,,,,,,,,,,,,,,,,,,,,,,,,,,,,,,,,,,,,
,,,,,,61140ecd6c72bb8ce54d0ac8,62bbf9b9f2bc492c14ad186f,2022-06-29_09h05.55.612,Colour_Asymmetry_Pilot,2022.1.3,Win32,60.03842459,62bbe60bf3d75ef465d3e404,0,28,28,94,1,fourtwo,,,,,,,,,,,,,,,,,,,,,,,,,,,,,,,,,,,,,,,,,,,,,,,,,,,,,,,,,,,,,,,,,,,,,,,,,,,,,,,,,,,,,,,,,,,,,,,,,,,,,,,,,,,,,,,,,,,,,,,,,,,,,,,,,,,,,,,,,,,,,,,,,,,,,,,,
,,,,,,61140ecd6c72bb8ce54d0ac8,62bbf9b9f2bc492c14ad186f,2022-06-29_09h05.55.612,Colour_Asymmetry_Pilot,2022.1.3,Win32,60.03842459,62bbe60bf3d75ef465d3e404,0,29,29,146,1,twoone,,,,,,,,,,,,,,,,,,,,,,,,,,,,,,,,,,,,,,,,,,,,,,,,,,,,,,,,,,,,,,,,,,,,,,,,,,,,,,,,,,,,,,,,,,,,,,,,,,,,,,,,,,,,,,,,,,,,,,,,,,,,,,,,,,,,,,,,,,,,,,,,,,,,,,,,
,,,,,,61140ecd6c72bb8ce54d0ac8,62bbf9b9f2bc492c14ad186f,2022-06-29_09h05.55.612,Colour_Asymmetry_Pilot,2022.1.3,Win32,60.03842459,62bbe60bf3d75ef465d3e404,0,30,30,77,1,threefour,,,,,,,,,,,,,,,,,,,,,,,,,,,,,,,,,,,,,,,,,,,,,,,,,,,,,,,,,,,,,,,,,,,,,,,,,,,,,,,,,,,,,,,,,,,,,,,,,,,,,,,,,,,,,,,,,,,,,,,,,,,,,,,,,,,,,,,,,,,,,,,,,,,,,,,,
,,,,,,61140ecd6c72bb8ce54d0ac8,62bbf9b9f2bc492c14ad186f,2022-06-29_09h05.55.612,Colour_Asymmetry_Pilot,2022.1.3,Win32,60.03842459,62bbe60bf3d75ef465d3e404,0,31,31,103,1,fourthree,,,,,,,,,,,,,,,,,,,,,,,,,,,,,,,,,,,,,,,,,,,,,,,,,,,,,,,,,,,,,,,,,,,,,,,,,,,,,,,,,,,,,,,,,,,,,,,,,,,,,,,,,,,,,,,,,,,,,,,,,,,,,,,,,,,,,,,,,,,,,,,,,,,,,,,,
,,,,,,61140ecd6c72bb8ce54d0ac8,62bbf9b9f2bc492c14ad186f,2022-06-29_09h05.55.612,Colour_Asymmetry_Pilot,2022.1.3,Win32,60.03842459,62bbe60bf3d75ef465d3e404,0,32,32,90,1,twoone,,,,,,,,,,,,,,,,,,,,,,,,,,,,,,,,,,,,,,,,,,,,,,,,,,,,,,,,,,,,,,,,,,,,,,,,,,,,,,,,,,,,,,,,,,,,,,,,,,,,,,,,,,,,,,,,,,,,,,,,,,,,,,,,,,,,,,,,,,,,,,,,,,,,,,,,
,,,,,,61140ecd6c72bb8ce54d0ac8,62bbf9b9f2bc492c14ad186f,2022-06-29_09h05.55.612,Colour_Asymmetry_Pilot,2022.1.3,Win32,60.03842459,62bbe60bf3d75ef465d3e404,0,33,33,140,1,threeone,,,,,,,,,,,,,,,,,,,,,,,,,,,,,,,,,,,,,,,,,,,,,,,,,,,,,,,,,,,,,,,,,,,,,,,,,,,,,,,,,,,,,,,,,,,,,,,,,,,,,,,,,,,,,,,,,,,,,,,,,,,,,,,,,,,,,,,,,,,,,,,,,,,,,,,,
,,,,,,61140ecd6c72bb8ce54d0ac8,62bbf9b9f2bc492c14ad186f,2022-06-29_09h05.55.612,Colour_Asymmetry_Pilot,2022.1.3,Win32,60.03842459,62bbe60bf3d75ef465d3e404,0,34,34,56,1,onetwo,,,,,,,,,,,,,,,,,,,,,,,,,,,,,,,,,,,,,,,,,,,,,,,,,,,,,,,,,,,,,,,,,,,,,,,,,,,,,,,,,,,,,,,,,,,,,,,,,,,,,,,,,,,,,,,,,,,,,,,,,,,,,,,,,,,,,,,,,,,,,,,,,,,,,,,,
,,,,,,61140ecd6c72bb8ce54d0ac8,62bbf9b9f2bc492c14ad186f,2022-06-29_09h05.55.612,Colour_Asymmetry_Pilot,2022.1.3,Win32,60.03842459,62bbe60bf3d75ef465d3e404,0,35,35,53,1,threefour,,,,,,,,,,,,,,,,,,,,,,,,,,,,,,,,,,,,,,,,,,,,,,,,,,,,,,,,,,,,,,,,,,,,,,,,,,,,,,,,,,,,,,,,,,,,,,,,,,,,,,,,,,,,,,,,,,,,,,,,,,,,,,,,,,,,,,,,,,,,,,,,,,,,,,,,
,,,,,,61140ecd6c72bb8ce54d0ac8,62bbf9b9f2bc492c14ad186f,2022-06-29_09h05.55.612,Colour_Asymmetry_Pilot,2022.1.3,Win32,60.03842459,62bbe60bf3d75ef465d3e404,0,36,36,57,1,onethree,,,,,,,,,,,,,,,,,,,,,,,,,,,,,,,,,,,,,,,,,,,,,,,,,,,,,,,,,,,,,,,,,,,,,,,,,,,,,,,,,,,,,,,,,,,,,,,,,,,,,,,,,,,,,,,,,,,,,,,,,,,,,,,,,,,,,,,,,,,,,,,,,,,,,,,,
,,,,,,61140ecd6c72bb8ce54d0ac8,62bbf9b9f2bc492c14ad186f,2022-06-29_09h05.55.612,Colour_Asymmetry_Pilot,2022.1.3,Win32,60.03842459,62bbe60bf3d75ef465d3e404,0,37,37,138,1,twoone,,,,,,,,,,,,,,,,,,,,,,,,,,,,,,,,,,,,,,,,,,,,,,,,,,,,,,,,,,,,,,,,,,,,,,,,,,,,,,,,,,,,,,,,,,,,,,,,,,,,,,,,,,,,,,,,,,,,,,,,,,,,,,,,,,,,,,,,,,,,,,,,,,,,,,,,
,,,,,,61140ecd6c72bb8ce54d0ac8,62bbf9b9f2bc492c14ad186f,2022-06-29_09h05.55.612,Colour_Asymmetry_Pilot,2022.1.3,Win32,60.03842459,62bbe60bf3d75ef465d3e404,0,38,38,64,1,onetwo,,,,,,,,,,,,,,,,,,,,,,,,,,,,,,,,,,,,,,,,,,,,,,,,,,,,,,,,,,,,,,,,,,,,,,,,,,,,,,,,,,,,,,,,,,,,,,,,,,,,,,,,,,,,,,,,,,,,,,,,,,,,,,,,,,,,,,,,,,,,,,,,,,,,,,,,
,,,,,,61140ecd6c72bb8ce54d0ac8,62bbf9b9f2bc492c14ad186f,2022-06-29_09h05.55.612,Colour_Asymmetry_Pilot,2022.1.3,Win32,60.03842459,62bbe60bf3d75ef465d3e404,0,39,39,50,1,twoone,,,,,,,,,,,,,,,,,,,,,,,,,,,,,,,,,,,,,,,,,,,,,,,,,,,,,,,,,,,,,,,,,,,,,,,,,,,,,,,,,,,,,,,,,,,,,,,,,,,,,,,,,,,,,,,,,,,,,,,,,,,,,,,,,,,,,,,,,,,,,,,,,,,,,,,,
,,,,,,61140ecd6c72bb8ce54d0ac8,62bbf9b9f2bc492c14ad186f,2022-06-29_09h05.55.612,Colour_Asymmetry_Pilot,2022.1.3,Win32,60.03842459,62bbe60bf3d75ef465d3e404,0,40,40,137,1,onethree,,,,,,,,,,,,,,,,,,,,,,,,,,,,,,,,,,,,,,,,,,,,,,,,,,,,,,,,,,,,,,,,,,,,,,,,,,,,,,,,,,,,,,,,,,,,,,,,,,,,,,,,,,,,,,,,,,,,,,,,,,,,,,,,,,,,,,,,,,,,,,,,,,,,,,,,
,,,,,,61140ecd6c72bb8ce54d0ac8,62bbf9b9f2bc492c14ad186f,2022-06-29_09h05.55.612,Colour_Asymmetry_Pilot,2022.1.3,Win32,60.03842459,62bbe60bf3d75ef465d3e404,0,41,41,43,1,twofour,,,,,,,,,,,,,,,,,,,,,,,,,,,,,,,,,,,,,,,,,,,,,,,,,,,,,,,,,,,,,,,,,,,,,,,,,,,,,,,,,,,,,,,,,,,,,,,,,,,,,,,,,,,,,,,,,,,,,,,,,,,,,,,,,,,,,,,,,,,,,,,,,,,,,,,,
,,,,,,61140ecd6c72bb8ce54d0ac8,62bbf9b9f2bc492c14ad186f,2022-06-29_09h05.55.612,Colour_Asymmetry_Pilot,2022.1.3,Win32,60.03842459,62bbe60bf3d75ef465d3e404,0,42,42,1,1,onethree,,,,,,,,,,,,,,,,,,,,,,,,,,,,,,,,,,,,,,,,,,,,,,,,,,,,,,,,,,,,,,,,,,,,,,,,,,,,,,,,,,,,,,,,,,,,,,,,,,,,,,,,,,,,,,,,,,,,,,,,,,,,,,,,,,,,,,,,,,,,,,,,,,,,,,,,
,,,,,,61140ecd6c72bb8ce54d0ac8,62bbf9b9f2bc492c14ad186f,2022-06-29_09h05.55.612,Colour_Asymmetry_Pilot,2022.1.3,Win32,60.03842459,62bbe60bf3d75ef465d3e404,0,43,43,35,1,twofour,,,,,,,,,,,,,,,,,,,,,,,,,,,,,,,,,,,,,,,,,,,,,,,,,,,,,,,,,,,,,,,,,,,,,,,,,,,,,,,,,,,,,,,,,,,,,,,,,,,,,,,,,,,,,,,,,,,,,,,,,,,,,,,,,,,,,,,,,,,,,,,,,,,,,,,,
,,,,,,61140ecd6c72bb8ce54d0ac8,62bbf9b9f2bc492c14ad186f,2022-06-29_09h05.55.612,Colour_Asymmetry_Pilot,2022.1.3,Win32,60.03842459,62bbe60bf3d75ef465d3e404,0,44,44,93,1,threefour,,,,,,,,,,,,,,,,,,,,,,,,,,,,,,,,,,,,,,,,,,,,,,,,,,,,,,,,,,,,,,,,,,,,,,,,,,,,,,,,,,,,,,,,,,,,,,,,,,,,,,,,,,,,,,,,,,,,,,,,,,,,,,,,,,,,,,,,,,,,,,,,,,,,,,,,
,,,,,,61140ecd6c72bb8ce54d0ac8,62bbf9b9f2bc492c14ad186f,2022-06-29_09h05.55.612,Colour_Asymmetry_Pilot,2022.1.3,Win32,60.03842459,62bbe60bf3d75ef465d3e404,0,45,45,99,1,twofour,,,,,,,,,,,,,,,,,,,,,,,,,,,,,,,,,,,,,,,,,,,,,,,,,,,,,,,,,,,,,,,,,,,,,,,,,,,,,,,,,,,,,,,,,,,,,,,,,,,,,,,,,,,,,,,,,,,,,,,,,,,,,,,,,,,,,,,,,,,,,,,,,,,,,,,,
,,,,,,61140ecd6c72bb8ce54d0ac8,62bbf9b9f2bc492c14ad186f,2022-06-29_09h05.55.612,Colour_Asymmetry_Pilot,2022.1.3,Win32,60.03842459,62bbe60bf3d75ef465d3e404,0,46,46,13,1,threefour,,,,,,,,,,,,,,,,,,,,,,,,,,,,,,,,,,,,,,,,,,,,,,,,,,,,,,,,,,,,,,,,,,,,,,,,,,,,,,,,,,,,,,,,,,,,,,,,,,,,,,,,,,,,,,,,,,,,,,,,,,,,,,,,,,,,,,,,,,,,,,,,,,,,,,,,
,,,,,,61140ecd6c72bb8ce54d0ac8,62bbf9b9f2bc492c14ad186f,2022-06-29_09h05.55.612,Colour_Asymmetry_Pilot,2022.1.3,Win32,60.03842459,62bbe60bf3d75ef465d3e404,0,47,47,130,1,twoone,,,,,,,,,,,,,,,,,,,,,,,,,,,,,,,,,,,,,,,,,,,,,,,,,,,,,,,,,,,,,,,,,,,,,,,,,,,,,,,,,,,,,,,,,,,,,,,,,,,,,,,,,,,,,,,,,,,,,,,,,,,,,,,,,,,,,,,,,,,,,,,,,,,,,,,,
,,,,,,61140ecd6c72bb8ce54d0ac8,62bbf9b9f2bc492c14ad186f,2022-06-29_09h05.55.612,Colour_Asymmetry_Pilot,2022.1.3,Win32,60.03842459,62bbe60bf3d75ef465d3e404,0,48,48,120,1,onetwo,,,,,,,,,,,,,,,,,,,,,,,,,,,,,,,,,,,,,,,,,,,,,,,,,,,,,,,,,,,,,,,,,,,,,,,,,,,,,,,,,,,,,,,,,,,,,,,,,,,,,,,,,,,,,,,,,,,,,,,,,,,,,,,,,,,,,,,,,,,,,,,,,,,,,,,,
,,,,,,61140ecd6c72bb8ce54d0ac8,62bbf9b9f2bc492c14ad186f,2022-06-29_09h05.55.612,Colour_Asymmetry_Pilot,2022.1.3,Win32,60.03842459,62bbe60bf3d75ef465d3e404,0,49,49,45,1,threefour,,,,,,,,,,,,,,,,,,,,,,,,,,,,,,,,,,,,,,,,,,,,,,,,,,,,,,,,,,,,,,,,,,,,,,,,,,,,,,,,,,,,,,,,,,,,,,,,,,,,,,,,,,,,,,,,,,,,,,,,,,,,,,,,,,,,,,,,,,,,,,,,,,,,,,,,
,,,,,,61140ecd6c72bb8ce54d0ac8,62bbf9b9f2bc492c14ad186f,2022-06-29_09h05.55.612,Colour_Asymmetry_Pilot,2022.1.3,Win32,60.03842459,62bbe60bf3d75ef465d3e404,0,50,50,74,1,twoone,,,,,,,,,,,,,,,,,,,,,,,,,,,,,,,,,,,,,,,,,,,,,,,,,,,,,,,,,,,,,,,,,,,,,,,,,,,,,,,,,,,,,,,,,,,,,,,,,,,,,,,,,,,,,,,,,,,,,,,,,,,,,,,,,,,,,,,,,,,,,,,,,,,,,,,,
,,,,,,61140ecd6c72bb8ce54d0ac8,62bbf9b9f2bc492c14ad186f,2022-06-29_09h05.55.612,Colour_Asymmetry_Pilot,2022.1.3,Win32,60.03842459,62bbe60bf3d75ef465d3e404,0,51,51,0,1,onetwo,,,,,,,,,,,,,,,,,,,,,,,,,,,,,,,,,,,,,,,,,,,,,,,,,,,,,,,,,,,,,,,,,,,,,,,,,,,,,,,,,,,,,,,,,,,,,,,,,,,,,,,,,,,,,,,,,,,,,,,,,,,,,,,,,,,,,,,,,,,,,,,,,,,,,,,,
,,,,,,61140ecd6c72bb8ce54d0ac8,62bbf9b9f2bc492c14ad186f,2022-06-29_09h05.55.612,Colour_Asymmetry_Pilot,2022.1.3,Win32,60.03842459,62bbe60bf3d75ef465d3e404,0,52,52,31,1,fourthree,,,,,,,,,,,,,,,,,,,,,,,,,,,,,,,,,,,,,,,,,,,,,,,,,,,,,,,,,,,,,,,,,,,,,,,,,,,,,,,,,,,,,,,,,,,,,,,,,,,,,,,,,,,,,,,,,,,,,,,,,,,,,,,,,,,,,,,,,,,,,,,,,,,,,,,,
,,,,,,61140ecd6c72bb8ce54d0ac8,62bbf9b9f2bc492c14ad186f,2022-06-29_09h05.55.612,Colour_Asymmetry_Pilot,2022.1.3,Win32,60.03842459,62bbe60bf3d75ef465d3e404,0,53,53,67,1,twofour,,,,,,,,,,,,,,,,,,,,,,,,,,,,,,,,,,,,,,,,,,,,,,,,,,,,,,,,,,,,,,,,,,,,,,,,,,,,,,,,,,,,,,,,,,,,,,,,,,,,,,,,,,,,,,,,,,,,,,,,,,,,,,,,,,,,,,,,,,,,,,,,,,,,,,,,
,,,,,,61140ecd6c72bb8ce54d0ac8,62bbf9b9f2bc492c14ad186f,2022-06-29_09h05.55.612,Colour_Asymmetry_Pilot,2022.1.3,Win32,60.03842459,62bbe60bf3d75ef465d3e404,0,54,54,71,1,fourthree,,,,,,,,,,,,,,,,,,,,,,,,,,,,,,,,,,,,,,,,,,,,,,,,,,,,,,,,,,,,,,,,,,,,,,,,,,,,,,,,,,,,,,,,,,,,,,,,,,,,,,,,,,,,,,,,,,,,,,,,,,,,,,,,,,,,,,,,,,,,,,,,,,,,,,,,
,,,,,,61140ecd6c72bb8ce54d0ac8,62bbf9b9f2bc492c14ad186f,2022-06-29_09h05.55.612,Colour_Asymmetry_Pilot,2022.1.3,Win32,60.03842459,62bbe60bf3d75ef465d3e404,0,55,55,156,1,threeone,,,,,,,,,,,,,,,,,,,,,,,,,,,,,,,,,,,,,,,,,,,,,,,,,,,,,,,,,,,,,,,,,,,,,,,,,,,,,,,,,,,,,,,,,,,,,,,,,,,,,,,,,,,,,,,,,,,,,,,,,,,,,,,,,,,,,,,,,,,,,,,,,,,,,,,,
,,,,,,61140ecd6c72bb8ce54d0ac8,62bbf9b9f2bc492c14ad186f,2022-06-29_09h05.55.612,Colour_Asymmetry_Pilot,2022.1.3,Win32,60.03842459,62bbe60bf3d75ef465d3e404,0,56,56,29,1,threefour,,,,,,,,,,,,,,,,,,,,,,,,,,,,,,,,,,,,,,,,,,,,,,,,,,,,,,,,,,,,,,,,,,,,,,,,,,,,,,,,,,,,,,,,,,,,,,,,,,,,,,,,,,,,,,,,,,,,,,,,,,,,,,,,,,,,,,,,,,,,,,,,,,,,,,,,
,,,,,,61140ecd6c72bb8ce54d0ac8,62bbf9b9f2bc492c14ad186f,2022-06-29_09h05.55.612,Colour_Asymmetry_Pilot,2022.1.3,Win32,60.03842459,62bbe60bf3d75ef465d3e404,0,57,57,92,1,threeone,,,,,,,,,,,,,,,,,,,,,,,,,,,,,,,,,,,,,,,,,,,,,,,,,,,,,,,,,,,,,,,,,,,,,,,,,,,,,,,,,,,,,,,,,,,,,,,,,,,,,,,,,,,,,,,,,,,,,,,,,,,,,,,,,,,,,,,,,,,,,,,,,,,,,,,,
,,,,,,61140ecd6c72bb8ce54d0ac8,62bbf9b9f2bc492c14ad186f,2022-06-29_09h05.55.612,Colour_Asymmetry_Pilot,2022.1.3,Win32,60.03842459,62bbe60bf3d75ef465d3e404,0,58,58,128,1,onetwo,,,,,,,,,,,,,,,,,,,,,,,,,,,,,,,,,,,,,,,,,,,,,,,,,,,,,,,,,,,,,,,,,,,,,,,,,,,,,,,,,,,,,,,,,,,,,,,,,,,,,,,,,,,,,,,,,,,,,,,,,,,,,,,,,,,,,,,,,,,,,,,,,,,,,,,,
,,,,,,61140ecd6c72bb8ce54d0ac8,62bbf9b9f2bc492c14ad186f,2022-06-29_09h05.55.612,Colour_Asymmetry_Pilot,2022.1.3,Win32,60.03842459,62bbe60bf3d75ef465d3e404,0,59,59,20,1,threeone,,,,,,,,,,,,,,,,,,,,,,,,,,,,,,,,,,,,,,,,,,,,,,,,,,,,,,,,,,,,,,,,,,,,,,,,,,,,,,,,,,,,,,,,,,,,,,,,,,,,,,,,,,,,,,,,,,,,,,,,,,,,,,,,,,,,,,,,,,,,,,,,,,,,,,,,
,,,,,,61140ecd6c72bb8ce54d0ac8,62bbf9b9f2bc492c14ad186f,2022-06-29_09h05.55.612,Colour_Asymmetry_Pilot,2022.1.3,Win32,60.03842459,62bbe60bf3d75ef465d3e404,0,60,60,115,1,twofour,,,,,,,,,,,,,,,,,,,,,,,,,,,,,,,,,,,,,,,,,,,,,,,,,,,,,,,,,,,,,,,,,,,,,,,,,,,,,,,,,,,,,,,,,,,,,,,,,,,,,,,,,,,,,,,,,,,,,,,,,,,,,,,,,,,,,,,,,,,,,,,,,,,,,,,,
,,,,,,61140ecd6c72bb8ce54d0ac8,62bbf9b9f2bc492c14ad186f,2022-06-29_09h05.55.612,Colour_Asymmetry_Pilot,2022.1.3,Win32,60.03842459,62bbe60bf3d75ef465d3e404,0,61,61,76,1,threeone,,,,,,,,,,,,,,,,,,,,,,,,,,,,,,,,,,,,,,,,,,,,,,,,,,,,,,,,,,,,,,,,,,,,,,,,,,,,,,,,,,,,,,,,,,,,,,,,,,,,,,,,,,,,,,,,,,,,,,,,,,,,,,,,,,,,,,,,,,,,,,,,,,,,,,,,
,,,,,,61140ecd6c72bb8ce54d0ac8,62bbf9b9f2bc492c14ad186f,2022-06-29_09h05.55.612,Colour_Asymmetry_Pilot,2022.1.3,Win32,60.03842459,62bbe60bf3d75ef465d3e404,0,62,62,15,1,fourthree,,,,,,,,,,,,,,,,,,,,,,,,,,,,,,,,,,,,,,,,,,,,,,,,,,,,,,,,,,,,,,,,,,,,,,,,,,,,,,,,,,,,,,,,,,,,,,,,,,,,,,,,,,,,,,,,,,,,,,,,,,,,,,,,,,,,,,,,,,,,,,,,,,,,,,,,
,,,,,,61140ecd6c72bb8ce54d0ac8,62bbf9b9f2bc492c14ad186f,2022-06-29_09h05.55.612,Colour_Asymmetry_Pilot,2022.1.3,Win32,60.03842459,62bbe60bf3d75ef465d3e404,0,63,63,122,1,twoone,,,,,,,,,,,,,,,,,,,,,,,,,,,,,,,,,,,,,,,,,,,,,,,,,,,,,,,,,,,,,,,,,,,,,,,,,,,,,,,,,,,,,,,,,,,,,,,,,,,,,,,,,,,,,,,,,,,,,,,,,,,,,,,,,,,,,,,,,,,,,,,,,,,,,,,,
,,,,,,61140ecd6c72bb8ce54d0ac8,62bbf9b9f2bc492c14ad186f,2022-06-29_09h05.55.612,Colour_Asymmetry_Pilot,2022.1.3,Win32,60.03842459,62bbe60bf3d75ef465d3e404,0,64,64,132,1,threeone,,,,,,,,,,,,,,,,,,,,,,,,,,,,,,,,,,,,,,,,,,,,,,,,,,,,,,,,,,,,,,,,,,,,,,,,,,,,,,,,,,,,,,,,,,,,,,,,,,,,,,,,,,,,,,,,,,,,,,,,,,,,,,,,,,,,,,,,,,,,,,,,,,,,,,,,
,,,,,,61140ecd6c72bb8ce54d0ac8,62bbf9b9f2bc492c14ad186f,2022-06-29_09h05.55.612,Colour_Asymmetry_Pilot,2022.1.3,Win32,60.03842459,62bbe60bf3d75ef465d3e404,0,65,65,39,1,fourthree,,,,,,,,,,,,,,,,,,,,,,,,,,,,,,,,,,,,,,,,,,,,,,,,,,,,,,,,,,,,,,,,,,,,,,,,,,,,,,,,,,,,,,,,,,,,,,,,,,,,,,,,,,,,,,,,,,,,,,,,,,,,,,,,,,,,,,,,,,,,,,,,,,,,,,,,
,,,,,,61140ecd6c72bb8ce54d0ac8,62bbf9b9f2bc492c14ad186f,2022-06-29_09h05.55.612,Colour_Asymmetry_Pilot,2022.1.3,Win32,60.03842459,62bbe60bf3d75ef465d3e404,0,66,66,72,1,onetwo,,,,,,,,,,,,,,,,,,,,,,,,,,,,,,,,,,,,,,,,,,,,,,,,,,,,,,,,,,,,,,,,,,,,,,,,,,,,,,,,,,,,,,,,,,,,,,,,,,,,,,,,,,,,,,,,,,,,,,,,,,,,,,,,,,,,,,,,,,,,,,,,,,,,,,,,
,,,,,,61140ecd6c72bb8ce54d0ac8,62bbf9b9f2bc492c14ad186f,2022-06-29_09h05.55.612,Colour_Asymmetry_Pilot,2022.1.3,Win32,60.03842459,62bbe60bf3d75ef465d3e404,0,67,67,33,1,onethree,,,,,,,,,,,,,,,,,,,,,,,,,,,,,,,,,,,,,,,,,,,,,,,,,,,,,,,,,,,,,,,,,,,,,,,,,,,,,,,,,,,,,,,,,,,,,,,,,,,,,,,,,,,,,,,,,,,,,,,,,,,,,,,,,,,,,,,,,,,,,,,,,,,,,,,,
,,,,,,61140ecd6c72bb8ce54d0ac8,62bbf9b9f2bc492c14ad186f,2022-06-29_09h05.55.612,Colour_Asymmetry_Pilot,2022.1.3,Win32,60.03842459,62bbe60bf3d75ef465d3e404,0,68,68,28,1,threeone,,,,,,,,,,,,,,,,,,,,,,,,,,,,,,,,,,,,,,,,,,,,,,,,,,,,,,,,,,,,,,,,,,,,,,,,,,,,,,,,,,,,,,,,,,,,,,,,,,,,,,,,,,,,,,,,,,,,,,,,,,,,,,,,,,,,,,,,,,,,,,,,,,,,,,,,
,,,,,,61140ecd6c72bb8ce54d0ac8,62bbf9b9f2bc492c14ad186f,2022-06-29_09h05.55.612,Colour_Asymmetry_Pilot,2022.1.3,Win32,60.03842459,62bbe60bf3d75ef465d3e404,0,69,69,68,1,threeone,,,,,,,,,,,,,,,,,,,,,,,,,,,,,,,,,,,,,,,,,,,,,,,,,,,,,,,,,,,,,,,,,,,,,,,,,,,,,,,,,,,,,,,,,,,,,,,,,,,,,,,,,,,,,,,,,,,,,,,,,,,,,,,,,,,,,,,,,,,,,,,,,,,,,,,,
,,,,,,61140ecd6c72bb8ce54d0ac8,62bbf9b9f2bc492c14ad186f,2022-06-29_09h05.55.612,Colour_Asymmetry_Pilot,2022.1.3,Win32,60.03842459,62bbe60bf3d75ef465d3e404,0,70,70,62,1,fourtwo,,,,,,,,,,,,,,,,,,,,,,,,,,,,,,,,,,,,,,,,,,,,,,,,,,,,,,,,,,,,,,,,,,,,,,,,,,,,,,,,,,,,,,,,,,,,,,,,,,,,,,,,,,,,,,,,,,,,,,,,,,,,,,,,,,,,,,,,,,,,,,,,,,,,,,,,
,,,,,,61140ecd6c72bb8ce54d0ac8,62bbf9b9f2bc492c14ad186f,2022-06-29_09h05.55.612,Colour_Asymmetry_Pilot,2022.1.3,Win32,60.03842459,62bbe60bf3d75ef465d3e404,0,71,71,41,1,onethree,,,,,,,,,,,,,,,,,,,,,,,,,,,,,,,,,,,,,,,,,,,,,,,,,,,,,,,,,,,,,,,,,,,,,,,,,,,,,,,,,,,,,,,,,,,,,,,,,,,,,,,,,,,,,,,,,,,,,,,,,,,,,,,,,,,,,,,,,,,,,,,,,,,,,,,,
,,,,,,61140ecd6c72bb8ce54d0ac8,62bbf9b9f2bc492c14ad186f,2022-06-29_09h05.55.612,Colour_Asymmetry_Pilot,2022.1.3,Win32,60.03842459,62bbe60bf3d75ef465d3e404,0,72,72,88,1,onetwo,,,,,,,,,,,,,,,,,,,,,,,,,,,,,,,,,,,,,,,,,,,,,,,,,,,,,,,,,,,,,,,,,,,,,,,,,,,,,,,,,,,,,,,,,,,,,,,,,,,,,,,,,,,,,,,,,,,,,,,,,,,,,,,,,,,,,,,,,,,,,,,,,,,,,,,,
,,,,,,61140ecd6c72bb8ce54d0ac8,62bbf9b9f2bc492c14ad186f,2022-06-29_09h05.55.612,Colour_Asymmetry_Pilot,2022.1.3,Win32,60.03842459,62bbe60bf3d75ef465d3e404,0,73,73,21,1,threefour,,,,,,,,,,,,,,,,,,,,,,,,,,,,,,,,,,,,,,,,,,,,,,,,,,,,,,,,,,,,,,,,,,,,,,,,,,,,,,,,,,,,,,,,,,,,,,,,,,,,,,,,,,,,,,,,,,,,,,,,,,,,,,,,,,,,,,,,,,,,,,,,,,,,,,,,
,,,,,,61140ecd6c72bb8ce54d0ac8,62bbf9b9f2bc492c14ad186f,2022-06-29_09h05.55.612,Colour_Asymmetry_Pilot,2022.1.3,Win32,60.03842459,62bbe60bf3d75ef465d3e404,0,74,74,17,1,onethree,,,,,,,,,,,,,,,,,,,,,,,,,,,,,,,,,,,,,,,,,,,,,,,,,,,,,,,,,,,,,,,,,,,,,,,,,,,,,,,,,,,,,,,,,,,,,,,,,,,,,,,,,,,,,,,,,,,,,,,,,,,,,,,,,,,,,,,,,,,,,,,,,,,,,,,,
,,,,,,61140ecd6c72bb8ce54d0ac8,62bbf9b9f2bc492c14ad186f,2022-06-29_09h05.55.612,Colour_Asymmetry_Pilot,2022.1.3,Win32,60.03842459,62bbe60bf3d75ef465d3e404,0,75,75,117,1,threefour,,,,,,,,,,,,,,,,,,,,,,,,,,,,,,,,,,,,,,,,,,,,,,,,,,,,,,,,,,,,,,,,,,,,,,,,,,,,,,,,,,,,,,,,,,,,,,,,,,,,,,,,,,,,,,,,,,,,,,,,,,,,,,,,,,,,,,,,,,,,,,,,,,,,,,,,
,,,,,,61140ecd6c72bb8ce54d0ac8,62bbf9b9f2bc492c14ad186f,2022-06-29_09h05.55.612,Colour_Asymmetry_Pilot,2022.1.3,Win32,60.03842459,62bbe60bf3d75ef465d3e404,0,76,76,158,1,fourtwo,,,,,,,,,,,,,,,,,,,,,,,,,,,,,,,,,,,,,,,,,,,,,,,,,,,,,,,,,,,,,,,,,,,,,,,,,,,,,,,,,,,,,,,,,,,,,,,,,,,,,,,,,,,,,,,,,,,,,,,,,,,,,,,,,,,,,,,,,,,,,,,,,,,,,,,,
,,,,,,61140ecd6c72bb8ce54d0ac8,62bbf9b9f2bc492c14ad186f,2022-06-29_09h05.55.612,Colour_Asymmetry_Pilot,2022.1.3,Win32,60.03842459,62bbe60bf3d75ef465d3e404,0,77,77,42,1,twoone,,,,,,,,,,,,,,,,,,,,,,,,,,,,,,,,,,,,,,,,,,,,,,,,,,,,,,,,,,,,,,,,,,,,,,,,,,,,,,,,,,,,,,,,,,,,,,,,,,,,,,,,,,,,,,,,,,,,,,,,,,,,,,,,,,,,,,,,,,,,,,,,,,,,,,,,
,,,,,,61140ecd6c72bb8ce54d0ac8,62bbf9b9f2bc492c14ad186f,2022-06-29_09h05.55.612,Colour_Asymmetry_Pilot,2022.1.3,Win32,60.03842459,62bbe60bf3d75ef465d3e404,0,78,78,25,1,onethree,,,,,,,,,,,,,,,,,,,,,,,,,,,,,,,,,,,,,,,,,,,,,,,,,,,,,,,,,,,,,,,,,,,,,,,,,,,,,,,,,,,,,,,,,,,,,,,,,,,,,,,,,,,,,,,,,,,,,,,,,,,,,,,,,,,,,,,,,,,,,,,,,,,,,,,,
,,,,,,61140ecd6c72bb8ce54d0ac8,62bbf9b9f2bc492c14ad186f,2022-06-29_09h05.55.612,Colour_Asymmetry_Pilot,2022.1.3,Win32,60.03842459,62bbe60bf3d75ef465d3e404,0,79,79,78,1,fourtwo,,,,,,,,,,,,,,,,,,,,,,,,,,,,,,,,,,,,,,,,,,,,,,,,,,,,,,,,,,,,,,,,,,,,,,,,,,,,,,,,,,,,,,,,,,,,,,,,,,,,,,,,,,,,,,,,,,,,,,,,,,,,,,,,,,,,,,,,,,,,,,,,,,,,,,,,
,,,,,,61140ecd6c72bb8ce54d0ac8,62bbf9b9f2bc492c14ad186f,2022-06-29_09h05.55.612,Colour_Asymmetry_Pilot,2022.1.3,Win32,60.03842459,62bbe60bf3d75ef465d3e404,0,80,80,10,1,twoone,,,,,,,,,,,,,,,,,,,,,,,,,,,,,,,,,,,,,,,,,,,,,,,,,,,,,,,,,,,,,,,,,,,,,,,,,,,,,,,,,,,,,,,,,,,,,,,,,,,,,,,,,,,,,,,,,,,,,,,,,,,,,,,,,,,,,,,,,,,,,,,,,,,,,,,,
,,,,,,61140ecd6c72bb8ce54d0ac8,62bbf9b9f2bc492c14ad186f,2022-06-29_09h05.55.612,Colour_Asymmetry_Pilot,2022.1.3,Win32,60.03842459,62bbe60bf3d75ef465d3e404,0,81,81,59,1,twofour,,,,,,,,,,,,,,,,,,,,,,,,,,,,,,,,,,,,,,,,,,,,,,,,,,,,,,,,,,,,,,,,,,,,,,,,,,,,,,,,,,,,,,,,,,,,,,,,,,,,,,,,,,,,,,,,,,,,,,,,,,,,,,,,,,,,,,,,,,,,,,,,,,,,,,,,
,,,,,,61140ecd6c72bb8ce54d0ac8,62bbf9b9f2bc492c14ad186f,2022-06-29_09h05.55.612,Colour_Asymmetry_Pilot,2022.1.3,Win32,60.03842459,62bbe60bf3d75ef465d3e404,0,82,82,131,1,twofour,,,,,,,,,,,,,,,,,,,,,,,,,,,,,,,,,,,,,,,,,,,,,,,,,,,,,,,,,,,,,,,,,,,,,,,,,,,,,,,,,,,,,,,,,,,,,,,,,,,,,,,,,,,,,,,,,,,,,,,,,,,,,,,,,,,,,,,,,,,,,,,,,,,,,,,,
,,,,,,61140ecd6c72bb8ce54d0ac8,62bbf9b9f2bc492c14ad186f,2022-06-29_09h05.55.612,Colour_Asymmetry_Pilot,2022.1.3,Win32,60.03842459,62bbe60bf3d75ef465d3e404,0,83,83,19,1,twofour,,,,,,,,,,,,,,,,,,,,,,,,,,,,,,,,,,,,,,,,,,,,,,,,,,,,,,,,,,,,,,,,,,,,,,,,,,,,,,,,,,,,,,,,,,,,,,,,,,,,,,,,,,,,,,,,,,,,,,,,,,,,,,,,,,,,,,,,,,,,,,,,,,,,,,,,
,,,,,,61140ecd6c72bb8ce54d0ac8,62bbf9b9f2bc492c14ad186f,2022-06-29_09h05.55.612,Colour_Asymmetry_Pilot,2022.1.3,Win32,60.03842459,62bbe60bf3d75ef465d3e404,0,84,84,134,1,fourtwo,,,,,,,,,,,,,,,,,,,,,,,,,,,,,,,,,,,,,,,,,,,,,,,,,,,,,,,,,,,,,,,,,,,,,,,,,,,,,,,,,,,,,,,,,,,,,,,,,,,,,,,,,,,,,,,,,,,,,,,,,,,,,,,,,,,,,,,,,,,,,,,,,,,,,,,,
,,,,,,61140ecd6c72bb8ce54d0ac8,62bbf9b9f2bc492c14ad186f,2022-06-29_09h05.55.612,Colour_Asymmetry_Pilot,2022.1.3,Win32,60.03842459,62bbe60bf3d75ef465d3e404,0,85,85,9,1,onethree,,,,,,,,,,,,,,,,,,,,,,,,,,,,,,,,,,,,,,,,,,,,,,,,,,,,,,,,,,,,,,,,,,,,,,,,,,,,,,,,,,,,,,,,,,,,,,,,,,,,,,,,,,,,,,,,,,,,,,,,,,,,,,,,,,,,,,,,,,,,,,,,,,,,,,,,
,,,,,,61140ecd6c72bb8ce54d0ac8,62bbf9b9f2bc492c14ad186f,2022-06-29_09h05.55.612,Colour_Asymmetry_Pilot,2022.1.3,Win32,60.03842459,62bbe60bf3d75ef465d3e404,0,86,86,160,1,onetwo,,,,,,,,,,,,,,,,,,,,,,,,,,,,,,,,,,,,,,,,,,,,,,,,,,,,,,,,,,,,,,,,,,,,,,,,,,,,,,,,,,,,,,,,,,,,,,,,,,,,,,,,,,,,,,,,,,,,,,,,,,,,,,,,,,,,,,,,,,,,,,,,,,,,,,,,
,,,,,,61140ecd6c72bb8ce54d0ac8,62bbf9b9f2bc492c14ad186f,2022-06-29_09h05.55.612,Colour_Asymmetry_Pilot,2022.1.3,Win32,60.03842459,62bbe60bf3d75ef465d3e404,0,87,87,81,1,onethree,,,,,,,,,,,,,,,,,,,,,,,,,,,,,,,,,,,,,,,,,,,,,,,,,,,,,,,,,,,,,,,,,,,,,,,,,,,,,,,,,,,,,,,,,,,,,,,,,,,,,,,,,,,,,,,,,,,,,,,,,,,,,,,,,,,,,,,,,,,,,,,,,,,,,,,,
,,,,,,61140ecd6c72bb8ce54d0ac8,62bbf9b9f2bc492c14ad186f,2022-06-29_09h05.55.612,Colour_Asymmetry_Pilot,2022.1.3,Win32,60.03842459,62bbe60bf3d75ef465d3e404,0,88,88,152,1,onetwo,,,,,,,,,,,,,,,,,,,,,,,,,,,,,,,,,,,,,,,,,,,,,,,,,,,,,,,,,,,,,,,,,,,,,,,,,,,,,,,,,,,,,,,,,,,,,,,,,,,,,,,,,,,,,,,,,,,,,,,,,,,,,,,,,,,,,,,,,,,,,,,,,,,,,,,,
,,,,,,61140ecd6c72bb8ce54d0ac8,62bbf9b9f2bc492c14ad186f,2022-06-29_09h05.55.612,Colour_Asymmetry_Pilot,2022.1.3,Win32,60.03842459,62bbe60bf3d75ef465d3e404,0,89,89,40,1,onetwo,,,,,,,,,,,,,,,,,,,,,,,,,,,,,,,,,,,,,,,,,,,,,,,,,,,,,,,,,,,,,,,,,,,,,,,,,,,,,,,,,,,,,,,,,,,,,,,,,,,,,,,,,,,,,,,,,,,,,,,,,,,,,,,,,,,,,,,,,,,,,,,,,,,,,,,,
,,,,,,61140ecd6c72bb8ce54d0ac8,62bbf9b9f2bc492c14ad186f,2022-06-29_09h05.55.612,Colour_Asymmetry_Pilot,2022.1.3,Win32,60.03842459,62bbe60bf3d75ef465d3e404,0,90,90,52,1,threeone,,,,,,,,,,,,,,,,,,,,,,,,,,,,,,,,,,,,,,,,,,,,,,,,,,,,,,,,,,,,,,,,,,,,,,,,,,,,,,,,,,,,,,,,,,,,,,,,,,,,,,,,,,,,,,,,,,,,,,,,,,,,,,,,,,,,,,,,,,,,,,,,,,,,,,,,
,,,,,,61140ecd6c72bb8ce54d0ac8,62bbf9b9f2bc492c14ad186f,2022-06-29_09h05.55.612,Colour_Asymmetry_Pilot,2022.1.3,Win32,60.03842459,62bbe60bf3d75ef465d3e404,0,91,91,34,1,twoone,,,,,,,,,,,,,,,,,,,,,,,,,,,,,,,,,,,,,,,,,,,,,,,,,,,,,,,,,,,,,,,,,,,,,,,,,,,,,,,,,,,,,,,,,,,,,,,,,,,,,,,,,,,,,,,,,,,,,,,,,,,,,,,,,,,,,,,,,,,,,,,,,,,,,,,,
,,,,,,61140ecd6c72bb8ce54d0ac8,62bbf9b9f2bc492c14ad186f,2022-06-29_09h05.55.612,Colour_Asymmetry_Pilot,2022.1.3,Win32,60.03842459,62bbe60bf3d75ef465d3e404,0,92,92,51,1,twofour,,,,,,,,,,,,,,,,,,,,,,,,,,,,,,,,,,,,,,,,,,,,,,,,,,,,,,,,,,,,,,,,,,,,,,,,,,,,,,,,,,,,,,,,,,,,,,,,,,,,,,,,,,,,,,,,,,,,,,,,,,,,,,,,,,,,,,,,,,,,,,,,,,,,,,,,
,,,,,,61140ecd6c72bb8ce54d0ac8,62bbf9b9f2bc492c14ad186f,2022-06-29_09h05.55.612,Colour_Asymmetry_Pilot,2022.1.3,Win32,60.03842459,62bbe60bf3d75ef465d3e404,0,93,93,87,1,fourthree,,,,,,,,,,,,,,,,,,,,,,,,,,,,,,,,,,,,,,,,,,,,,,,,,,,,,,,,,,,,,,,,,,,,,,,,,,,,,,,,,,,,,,,,,,,,,,,,,,,,,,,,,,,,,,,,,,,,,,,,,,,,,,,,,,,,,,,,,,,,,,,,,,,,,,,,
,,,,,,61140ecd6c72bb8ce54d0ac8,62bbf9b9f2bc492c14ad186f,2022-06-29_09h05.55.612,Colour_Asymmetry_Pilot,2022.1.3,Win32,60.03842459,62bbe60bf3d75ef465d3e404,0,94,94,54,1,fourtwo,,,,,,,,,,,,,,,,,,,,,,,,,,,,,,,,,,,,,,,,,,,,,,,,,,,,,,,,,,,,,,,,,,,,,,,,,,,,,,,,,,,,,,,,,,,,,,,,,,,,,,,,,,,,,,,,,,,,,,,,,,,,,,,,,,,,,,,,,,,,,,,,,,,,,,,,
,,,,,,61140ecd6c72bb8ce54d0ac8,62bbf9b9f2bc492c14ad186f,2022-06-29_09h05.55.612,Colour_Asymmetry_Pilot,2022.1.3,Win32,60.03842459,62bbe60bf3d75ef465d3e404,0,95,95,106,1,twoone,,,,,,,,,,,,,,,,,,,,,,,,,,,,,,,,,,,,,,,,,,,,,,,,,,,,,,,,,,,,,,,,,,,,,,,,,,,,,,,,,,,,,,,,,,,,,,,,,,,,,,,,,,,,,,,,,,,,,,,,,,,,,,,,,,,,,,,,,,,,,,,,,,,,,,,,
,,,,,,61140ecd6c72bb8ce54d0ac8,62bbf9b9f2bc492c14ad186f,2022-06-29_09h05.55.612,Colour_Asymmetry_Pilot,2022.1.3,Win32,60.03842459,62bbe60bf3d75ef465d3e404,0,96,96,65,1,onethree,,,,,,,,,,,,,,,,,,,,,,,,,,,,,,,,,,,,,,,,,,,,,,,,,,,,,,,,,,,,,,,,,,,,,,,,,,,,,,,,,,,,,,,,,,,,,,,,,,,,,,,,,,,,,,,,,,,,,,,,,,,,,,,,,,,,,,,,,,,,,,,,,,,,,,,,
,,,,,,61140ecd6c72bb8ce54d0ac8,62bbf9b9f2bc492c14ad186f,2022-06-29_09h05.55.612,Colour_Asymmetry_Pilot,2022.1.3,Win32,60.03842459,62bbe60bf3d75ef465d3e404,0,97,97,98,1,twoone,,,,,,,,,,,,,,,,,,,,,,,,,,,,,,,,,,,,,,,,,,,,,,,,,,,,,,,,,,,,,,,,,,,,,,,,,,,,,,,,,,,,,,,,,,,,,,,,,,,,,,,,,,,,,,,,,,,,,,,,,,,,,,,,,,,,,,,,,,,,,,,,,,,,,,,,
,,,,,,61140ecd6c72bb8ce54d0ac8,62bbf9b9f2bc492c14ad186f,2022-06-29_09h05.55.612,Colour_Asymmetry_Pilot,2022.1.3,Win32,60.03842459,62bbe60bf3d75ef465d3e404,0,98,98,22,1,fourtwo,,,,,,,,,,,,,,,,,,,,,,,,,,,,,,,,,,,,,,,,,,,,,,,,,,,,,,,,,,,,,,,,,,,,,,,,,,,,,,,,,,,,,,,,,,,,,,,,,,,,,,,,,,,,,,,,,,,,,,,,,,,,,,,,,,,,,,,,,,,,,,,,,,,,,,,,
,,,,,,61140ecd6c72bb8ce54d0ac8,62bbf9b9f2bc492c14ad186f,2022-06-29_09h05.55.612,Colour_Asymmetry_Pilot,2022.1.3,Win32,60.03842459,62bbe60bf3d75ef465d3e404,0,99,99,11,1,twofour,,,,,,,,,,,,,,,,,,,,,,,,,,,,,,,,,,,,,,,,,,,,,,,,,,,,,,,,,,,,,,,,,,,,,,,,,,,,,,,,,,,,,,,,,,,,,,,,,,,,,,,,,,,,,,,,,,,,,,,,,,,,,,,,,,,,,,,,,,,,,,,,,,,,,,,,
,,,,,,61140ecd6c72bb8ce54d0ac8,62bbf9b9f2bc492c14ad186f,2022-06-29_09h05.55.612,Colour_Asymmetry_Pilot,2022.1.3,Win32,60.03842459,62bbe60bf3d75ef465d3e404,0,100,100,105,1,onethree,,,,,,,,,,,,,,,,,,,,,,,,,,,,,,,,,,,,,,,,,,,,,,,,,,,,,,,,,,,,,,,,,,,,,,,,,,,,,,,,,,,,,,,,,,,,,,,,,,,,,,,,,,,,,,,,,,,,,,,,,,,,,,,,,,,,,,,,,,,,,,,,,,,,,,,,
,,,,,,61140ecd6c72bb8ce54d0ac8,62bbf9b9f2bc492c14ad186f,2022-06-29_09h05.55.612,Colour_Asymmetry_Pilot,2022.1.3,Win32,60.03842459,62bbe60bf3d75ef465d3e404,0,101,101,69,1,threefour,,,,,,,,,,,,,,,,,,,,,,,,,,,,,,,,,,,,,,,,,,,,,,,,,,,,,,,,,,,,,,,,,,,,,,,,,,,,,,,,,,,,,,,,,,,,,,,,,,,,,,,,,,,,,,,,,,,,,,,,,,,,,,,,,,,,,,,,,,,,,,,,,,,,,,,,
,,,,,,61140ecd6c72bb8ce54d0ac8,62bbf9b9f2bc492c14ad186f,2022-06-29_09h05.55.612,Colour_Asymmetry_Pilot,2022.1.3,Win32,60.03842459,62bbe60bf3d75ef465d3e404,0,102,102,36,1,threeone,,,,,,,,,,,,,,,,,,,,,,,,,,,,,,,,,,,,,,,,,,,,,,,,,,,,,,,,,,,,,,,,,,,,,,,,,,,,,,,,,,,,,,,,,,,,,,,,,,,,,,,,,,,,,,,,,,,,,,,,,,,,,,,,,,,,,,,,,,,,,,,,,,,,,,,,
,,,,,,61140ecd6c72bb8ce54d0ac8,62bbf9b9f2bc492c14ad186f,2022-06-29_09h05.55.612,Colour_Asymmetry_Pilot,2022.1.3,Win32,60.03842459,62bbe60bf3d75ef465d3e404,0,103,103,129,1,onethree,,,,,,,,,,,,,,,,,,,,,,,,,,,,,,,,,,,,,,,,,,,,,,,,,,,,,,,,,,,,,,,,,,,,,,,,,,,,,,,,,,,,,,,,,,,,,,,,,,,,,,,,,,,,,,,,,,,,,,,,,,,,,,,,,,,,,,,,,,,,,,,,,,,,,,,,
,,,,,,61140ecd6c72bb8ce54d0ac8,62bbf9b9f2bc492c14ad186f,2022-06-29_09h05.55.612,Colour_Asymmetry_Pilot,2022.1.3,Win32,60.03842459,62bbe60bf3d75ef465d3e404,0,104,104,155,1,twofour,,,,,,,,,,,,,,,,,,,,,,,,,,,,,,,,,,,,,,,,,,,,,,,,,,,,,,,,,,,,,,,,,,,,,,,,,,,,,,,,,,,,,,,,,,,,,,,,,,,,,,,,,,,,,,,,,,,,,,,,,,,,,,,,,,,,,,,,,,,,,,,,,,,,,,,,
,,,,,,61140ecd6c72bb8ce54d0ac8,62bbf9b9f2bc492c14ad186f,2022-06-29_09h05.55.612,Colour_Asymmetry_Pilot,2022.1.3,Win32,60.03842459,62bbe60bf3d75ef465d3e404,0,105,105,136,1,onetwo,,,,,,,,,,,,,,,,,,,,,,,,,,,,,,,,,,,,,,,,,,,,,,,,,,,,,,,,,,,,,,,,,,,,,,,,,,,,,,,,,,,,,,,,,,,,,,,,,,,,,,,,,,,,,,,,,,,,,,,,,,,,,,,,,,,,,,,,,,,,,,,,,,,,,,,,
,,,,,,61140ecd6c72bb8ce54d0ac8,62bbf9b9f2bc492c14ad186f,2022-06-29_09h05.55.612,Colour_Asymmetry_Pilot,2022.1.3,Win32,60.03842459,62bbe60bf3d75ef465d3e404,0,106,106,143,1,fourthree,,,,,,,,,,,,,,,,,,,,,,,,,,,,,,,,,,,,,,,,,,,,,,,,,,,,,,,,,,,,,,,,,,,,,,,,,,,,,,,,,,,,,,,,,,,,,,,,,,,,,,,,,,,,,,,,,,,,,,,,,,,,,,,,,,,,,,,,,,,,,,,,,,,,,,,,
,,,,,,61140ecd6c72bb8ce54d0ac8,62bbf9b9f2bc492c14ad186f,2022-06-29_09h05.55.612,Colour_Asymmetry_Pilot,2022.1.3,Win32,60.03842459,62bbe60bf3d75ef465d3e404,0,107,107,58,1,twoone,,,,,,,,,,,,,,,,,,,,,,,,,,,,,,,,,,,,,,,,,,,,,,,,,,,,,,,,,,,,,,,,,,,,,,,,,,,,,,,,,,,,,,,,,,,,,,,,,,,,,,,,,,,,,,,,,,,,,,,,,,,,,,,,,,,,,,,,,,,,,,,,,,,,,,,,
,,,,,,61140ecd6c72bb8ce54d0ac8,62bbf9b9f2bc492c14ad186f,2022-06-29_09h05.55.612,Colour_Asymmetry_Pilot,2022.1.3,Win32,60.03842459,62bbe60bf3d75ef465d3e404,0,108,108,126,1,fourtwo,,,,,,,,,,,,,,,,,,,,,,,,,,,,,,,,,,,,,,,,,,,,,,,,,,,,,,,,,,,,,,,,,,,,,,,,,,,,,,,,,,,,,,,,,,,,,,,,,,,,,,,,,,,,,,,,,,,,,,,,,,,,,,,,,,,,,,,,,,,,,,,,,,,,,,,,
,,,,,,61140ecd6c72bb8ce54d0ac8,62bbf9b9f2bc492c14ad186f,2022-06-29_09h05.55.612,Colour_Asymmetry_Pilot,2022.1.3,Win32,60.03842459,62bbe60bf3d75ef465d3e404,0,109,109,80,1,onetwo,,,,,,,,,,,,,,,,,,,,,,,,,,,,,,,,,,,,,,,,,,,,,,,,,,,,,,,,,,,,,,,,,,,,,,,,,,,,,,,,,,,,,,,,,,,,,,,,,,,,,,,,,,,,,,,,,,,,,,,,,,,,,,,,,,,,,,,,,,,,,,,,,,,,,,,,
,,,,,,61140ecd6c72bb8ce54d0ac8,62bbf9b9f2bc492c14ad186f,2022-06-29_09h05.55.612,Colour_Asymmetry_Pilot,2022.1.3,Win32,60.03842459,62bbe60bf3d75ef465d3e404,0,110,110,107,1,twofour,,,,,,,,,,,,,,,,,,,,,,,,,,,,,,,,,,,,,,,,,,,,,,,,,,,,,,,,,,,,,,,,,,,,,,,,,,,,,,,,,,,,,,,,,,,,,,,,,,,,,,,,,,,,,,,,,,,,,,,,,,,,,,,,,,,,,,,,,,,,,,,,,,,,,,,,
,,,,,,61140ecd6c72bb8ce54d0ac8,62bbf9b9f2bc492c14ad186f,2022-06-29_09h05.55.612,Colour_Asymmetry_Pilot,2022.1.3,Win32,60.03842459,62bbe60bf3d75ef465d3e404,0,111,111,27,1,twofour,,,,,,,,,,,,,,,,,,,,,,,,,,,,,,,,,,,,,,,,,,,,,,,,,,,,,,,,,,,,,,,,,,,,,,,,,,,,,,,,,,,,,,,,,,,,,,,,,,,,,,,,,,,,,,,,,,,,,,,,,,,,,,,,,,,,,,,,,,,,,,,,,,,,,,,,
,,,,,,61140ecd6c72bb8ce54d0ac8,62bbf9b9f2bc492c14ad186f,2022-06-29_09h05.55.612,Colour_Asymmetry_Pilot,2022.1.3,Win32,60.03842459,62bbe60bf3d75ef465d3e404,0,112,112,114,1,twoone,,,,,,,,,,,,,,,,,,,,,,,,,,,,,,,,,,,,,,,,,,,,,,,,,,,,,,,,,,,,,,,,,,,,,,,,,,,,,,,,,,,,,,,,,,,,,,,,,,,,,,,,,,,,,,,,,,,,,,,,,,,,,,,,,,,,,,,,,,,,,,,,,,,,,,,,
,,,,,,61140ecd6c72bb8ce54d0ac8,62bbf9b9f2bc492c14ad186f,2022-06-29_09h05.55.612,Colour_Asymmetry_Pilot,2022.1.3,Win32,60.03842459,62bbe60bf3d75ef465d3e404,0,113,113,2,1,twoone,,,,,,,,,,,,,,,,,,,,,,,,,,,,,,,,,,,,,,,,,,,,,,,,,,,,,,,,,,,,,,,,,,,,,,,,,,,,,,,,,,,,,,,,,,,,,,,,,,,,,,,,,,,,,,,,,,,,,,,,,,,,,,,,,,,,,,,,,,,,,,,,,,,,,,,,
,,,,,,61140ecd6c72bb8ce54d0ac8,62bbf9b9f2bc492c14ad186f,2022-06-29_09h05.55.612,Colour_Asymmetry_Pilot,2022.1.3,Win32,60.03842459,62bbe60bf3d75ef465d3e404,0,114,114,66,1,twoone,,,,,,,,,,,,,,,,,,,,,,,,,,,,,,,,,,,,,,,,,,,,,,,,,,,,,,,,,,,,,,,,,,,,,,,,,,,,,,,,,,,,,,,,,,,,,,,,,,,,,,,,,,,,,,,,,,,,,,,,,,,,,,,,,,,,,,,,,,,,,,,,,,,,,,,,
,,,,,,61140ecd6c72bb8ce54d0ac8,62bbf9b9f2bc492c14ad186f,2022-06-29_09h05.55.612,Colour_Asymmetry_Pilot,2022.1.3,Win32,60.03842459,62bbe60bf3d75ef465d3e404,0,115,115,84,1,threeone,,,,,,,,,,,,,,,,,,,,,,,,,,,,,,,,,,,,,,,,,,,,,,,,,,,,,,,,,,,,,,,,,,,,,,,,,,,,,,,,,,,,,,,,,,,,,,,,,,,,,,,,,,,,,,,,,,,,,,,,,,,,,,,,,,,,,,,,,,,,,,,,,,,,,,,,
,,,,,,61140ecd6c72bb8ce54d0ac8,62bbf9b9f2bc492c14ad186f,2022-06-29_09h05.55.612,Colour_Asymmetry_Pilot,2022.1.3,Win32,60.03842459,62bbe60bf3d75ef465d3e404,0,116,116,63,1,fourthree,,,,,,,,,,,,,,,,,,,,,,,,,,,,,,,,,,,,,,,,,,,,,,,,,,,,,,,,,,,,,,,,,,,,,,,,,,,,,,,,,,,,,,,,,,,,,,,,,,,,,,,,,,,,,,,,,,,,,,,,,,,,,,,,,,,,,,,,,,,,,,,,,,,,,,,,
,,,,,,61140ecd6c72bb8ce54d0ac8,62bbf9b9f2bc492c14ad186f,2022-06-29_09h05.55.612,Colour_Asymmetry_Pilot,2022.1.3,Win32,60.03842459,62bbe60bf3d75ef465d3e404,0,117,117,161,1,onethree,,,,,,,,,,,,,,,,,,,,,,,,,,,,,,,,,,,,,,,,,,,,,,,,,,,,,,,,,,,,,,,,,,,,,,,,,,,,,,,,,,,,,,,,,,,,,,,,,,,,,,,,,,,,,,,,,,,,,,,,,,,,,,,,,,,,,,,,,,,,,,,,,,,,,,,,
,,,,,,61140ecd6c72bb8ce54d0ac8,62bbf9b9f2bc492c14ad186f,2022-06-29_09h05.55.612,Colour_Asymmetry_Pilot,2022.1.3,Win32,60.03842459,62bbe60bf3d75ef465d3e404,0,118,118,61,1,threefour,,,,,,,,,,,,,,,,,,,,,,,,,,,,,,,,,,,,,,,,,,,,,,,,,,,,,,,,,,,,,,,,,,,,,,,,,,,,,,,,,,,,,,,,,,,,,,,,,,,,,,,,,,,,,,,,,,,,,,,,,,,,,,,,,,,,,,,,,,,,,,,,,,,,,,,,
,,,,,,61140ecd6c72bb8ce54d0ac8,62bbf9b9f2bc492c14ad186f,2022-06-29_09h05.55.612,Colour_Asymmetry_Pilot,2022.1.3,Win32,60.03842459,62bbe60bf3d75ef465d3e404,0,119,119,75,1,twofour,,,,,,,,,,,,,,,,,,,,,,,,,,,,,,,,,,,,,,,,,,,,,,,,,,,,,,,,,,,,,,,,,,,,,,,,,,,,,,,,,,,,,,,,,,,,,,,,,,,,,,,,,,,,,,,,,,,,,,,,,,,,,,,,,,,,,,,,,,,,,,,,,,,,,,,,
,,,,,,61140ecd6c72bb8ce54d0ac8,62bbf9b9f2bc492c14ad186f,2022-06-29_09h05.55.612,Colour_Asymmetry_Pilot,2022.1.3,Win32,60.03842459,62bbe60bf3d75ef465d3e404,0,120,120,119,1,fourthree,,,,,,,,,,,,,,,,,,,,,,,,,,,,,,,,,,,,,,,,,,,,,,,,,,,,,,,,,,,,,,,,,,,,,,,,,,,,,,,,,,,,,,,,,,,,,,,,,,,,,,,,,,,,,,,,,,,,,,,,,,,,,,,,,,,,,,,,,,,,,,,,,,,,,,,,
,,,,,,61140ecd6c72bb8ce54d0ac8,62bbf9b9f2bc492c14ad186f,2022-06-29_09h05.55.612,Colour_Asymmetry_Pilot,2022.1.3,Win32,60.03842459,62bbe60bf3d75ef465d3e404,0,121,121,26,1,twoone,,,,,,,,,,,,,,,,,,,,,,,,,,,,,,,,,,,,,,,,,,,,,,,,,,,,,,,,,,,,,,,,,,,,,,,,,,,,,,,,,,,,,,,,,,,,,,,,,,,,,,,,,,,,,,,,,,,,,,,,,,,,,,,,,,,,,,,,,,,,,,,,,,,,,,,,
,,,,,,61140ecd6c72bb8ce54d0ac8,62bbf9b9f2bc492c14ad186f,2022-06-29_09h05.55.612,Colour_Asymmetry_Pilot,2022.1.3,Win32,60.03842459,62bbe60bf3d75ef465d3e404,0,122,122,145,1,onethree,,,,,,,,,,,,,,,,,,,,,,,,,,,,,,,,,,,,,,,,,,,,,,,,,,,,,,,,,,,,,,,,,,,,,,,,,,,,,,,,,,,,,,,,,,,,,,,,,,,,,,,,,,,,,,,,,,,,,,,,,,,,,,,,,,,,,,,,,,,,,,,,,,,,,,,,
,,,,,,61140ecd6c72bb8ce54d0ac8,62bbf9b9f2bc492c14ad186f,2022-06-29_09h05.55.612,Colour_Asymmetry_Pilot,2022.1.3,Win32,60.03842459,62bbe60bf3d75ef465d3e404,0,123,123,125,1,threefour,,,,,,,,,,,,,,,,,,,,,,,,,,,,,,,,,,,,,,,,,,,,,,,,,,,,,,,,,,,,,,,,,,,,,,,,,,,,,,,,,,,,,,,,,,,,,,,,,,,,,,,,,,,,,,,,,,,,,,,,,,,,,,,,,,,,,,,,,,,,,,,,,,,,,,,,
,,,,,,61140ecd6c72bb8ce54d0ac8,62bbf9b9f2bc492c14ad186f,2022-06-29_09h05.55.612,Colour_Asymmetry_Pilot,2022.1.3,Win32,60.03842459,62bbe60bf3d75ef465d3e404,0,124,124,83,1,twofour,,,,,,,,,,,,,,,,,,,,,,,,,,,,,,,,,,,,,,,,,,,,,,,,,,,,,,,,,,,,,,,,,,,,,,,,,,,,,,,,,,,,,,,,,,,,,,,,,,,,,,,,,,,,,,,,,,,,,,,,,,,,,,,,,,,,,,,,,,,,,,,,,,,,,,,,
,,,,,,61140ecd6c72bb8ce54d0ac8,62bbf9b9f2bc492c14ad186f,2022-06-29_09h05.55.612,Colour_Asymmetry_Pilot,2022.1.3,Win32,60.03842459,62bbe60bf3d75ef465d3e404,0,125,125,102,1,fourtwo,,,,,,,,,,,,,,,,,,,,,,,,,,,,,,,,,,,,,,,,,,,,,,,,,,,,,,,,,,,,,,,,,,,,,,,,,,,,,,,,,,,,,,,,,,,,,,,,,,,,,,,,,,,,,,,,,,,,,,,,,,,,,,,,,,,,,,,,,,,,,,,,,,,,,,,,
,,,,,,61140ecd6c72bb8ce54d0ac8,62bbf9b9f2bc492c14ad186f,2022-06-29_09h05.55.612,Colour_Asymmetry_Pilot,2022.1.3,Win32,60.03842459,62bbe60bf3d75ef465d3e404,0,126,126,108,1,threeone,,,,,,,,,,,,,,,,,,,,,,,,,,,,,,,,,,,,,,,,,,,,,,,,,,,,,,,,,,,,,,,,,,,,,,,,,,,,,,,,,,,,,,,,,,,,,,,,,,,,,,,,,,,,,,,,,,,,,,,,,,,,,,,,,,,,,,,,,,,,,,,,,,,,,,,,
,,,,,,61140ecd6c72bb8ce54d0ac8,62bbf9b9f2bc492c14ad186f,2022-06-29_09h05.55.612,Colour_Asymmetry_Pilot,2022.1.3,Win32,60.03842459,62bbe60bf3d75ef465d3e404,0,127,127,147,1,twofour,,,,,,,,,,,,,,,,,,,,,,,,,,,,,,,,,,,,,,,,,,,,,,,,,,,,,,,,,,,,,,,,,,,,,,,,,,,,,,,,,,,,,,,,,,,,,,,,,,,,,,,,,,,,,,,,,,,,,,,,,,,,,,,,,,,,,,,,,,,,,,,,,,,,,,,,
,,,,,,61140ecd6c72bb8ce54d0ac8,62bbf9b9f2bc492c14ad186f,2022-06-29_09h05.55.612,Colour_Asymmetry_Pilot,2022.1.3,Win32,60.03842459,62bbe60bf3d75ef465d3e404,0,128,128,123,1,twofour,,,,,,,,,,,,,,,,,,,,,,,,,,,,,,,,,,,,,,,,,,,,,,,,,,,,,,,,,,,,,,,,,,,,,,,,,,,,,,,,,,,,,,,,,,,,,,,,,,,,,,,,,,,,,,,,,,,,,,,,,,,,,,,,,,,,,,,,,,,,,,,,,,,,,,,,
,,,,,,61140ecd6c72bb8ce54d0ac8,62bbf9b9f2bc492c14ad186f,2022-06-29_09h05.55.612,Colour_Asymmetry_Pilot,2022.1.3,Win32,60.03842459,62bbe60bf3d75ef465d3e404,0,129,129,85,1,threefour,,,,,,,,,,,,,,,,,,,,,,,,,,,,,,,,,,,,,,,,,,,,,,,,,,,,,,,,,,,,,,,,,,,,,,,,,,,,,,,,,,,,,,,,,,,,,,,,,,,,,,,,,,,,,,,,,,,,,,,,,,,,,,,,,,,,,,,,,,,,,,,,,,,,,,,,
,,,,,,61140ecd6c72bb8ce54d0ac8,62bbf9b9f2bc492c14ad186f,2022-06-29_09h05.55.612,Colour_Asymmetry_Pilot,2022.1.3,Win32,60.03842459,62bbe60bf3d75ef465d3e404,0,130,130,100,1,threeone,,,,,,,,,,,,,,,,,,,,,,,,,,,,,,,,,,,,,,,,,,,,,,,,,,,,,,,,,,,,,,,,,,,,,,,,,,,,,,,,,,,,,,,,,,,,,,,,,,,,,,,,,,,,,,,,,,,,,,,,,,,,,,,,,,,,,,,,,,,,,,,,,,,,,,,,
,,,,,,61140ecd6c72bb8ce54d0ac8,62bbf9b9f2bc492c14ad186f,2022-06-29_09h05.55.612,Colour_Asymmetry_Pilot,2022.1.3,Win32,60.03842459,62bbe60bf3d75ef465d3e404,0,131,131,18,1,twoone,,,,,,,,,,,,,,,,,,,,,,,,,,,,,,,,,,,,,,,,,,,,,,,,,,,,,,,,,,,,,,,,,,,,,,,,,,,,,,,,,,,,,,,,,,,,,,,,,,,,,,,,,,,,,,,,,,,,,,,,,,,,,,,,,,,,,,,,,,,,,,,,,,,,,,,,
,,,,,,61140ecd6c72bb8ce54d0ac8,62bbf9b9f2bc492c14ad186f,2022-06-29_09h05.55.612,Colour_Asymmetry_Pilot,2022.1.3,Win32,60.03842459,62bbe60bf3d75ef465d3e404,0,132,132,144,1,onetwo,,,,,,,,,,,,,,,,,,,,,,,,,,,,,,,,,,,,,,,,,,,,,,,,,,,,,,,,,,,,,,,,,,,,,,,,,,,,,,,,,,,,,,,,,,,,,,,,,,,,,,,,,,,,,,,,,,,,,,,,,,,,,,,,,,,,,,,,,,,,,,,,,,,,,,,,
,,,,,,61140ecd6c72bb8ce54d0ac8,62bbf9b9f2bc492c14ad186f,2022-06-29_09h05.55.612,Colour_Asymmetry_Pilot,2022.1.3,Win32,60.03842459,62bbe60bf3d75ef465d3e404,0,133,133,49,1,onethree,,,,,,,,,,,,,,,,,,,,,,,,,,,,,,,,,,,,,,,,,,,,,,,,,,,,,,,,,,,,,,,,,,,,,,,,,,,,,,,,,,,,,,,,,,,,,,,,,,,,,,,,,,,,,,,,,,,,,,,,,,,,,,,,,,,,,,,,,,,,,,,,,,,,,,,,
,,,,,,61140ecd6c72bb8ce54d0ac8,62bbf9b9f2bc492c14ad186f,2022-06-29_09h05.55.612,Colour_Asymmetry_Pilot,2022.1.3,Win32,60.03842459,62bbe60bf3d75ef465d3e404,0,134,134,60,1,threeone,,,,,,,,,,,,,,,,,,,,,,,,,,,,,,,,,,,,,,,,,,,,,,,,,,,,,,,,,,,,,,,,,,,,,,,,,,,,,,,,,,,,,,,,,,,,,,,,,,,,,,,,,,,,,,,,,,,,,,,,,,,,,,,,,,,,,,,,,,,,,,,,,,,,,,,,
,,,,,,61140ecd6c72bb8ce54d0ac8,62bbf9b9f2bc492c14ad186f,2022-06-29_09h05.55.612,Colour_Asymmetry_Pilot,2022.1.3,Win32,60.03842459,62bbe60bf3d75ef465d3e404,0,135,135,7,1,fourthree,,,,,,,,,,,,,,,,,,,,,,,,,,,,,,,,,,,,,,,,,,,,,,,,,,,,,,,,,,,,,,,,,,,,,,,,,,,,,,,,,,,,,,,,,,,,,,,,,,,,,,,,,,,,,,,,,,,,,,,,,,,,,,,,,,,,,,,,,,,,,,,,,,,,,,,,
,,,,,,61140ecd6c72bb8ce54d0ac8,62bbf9b9f2bc492c14ad186f,2022-06-29_09h05.55.612,Colour_Asymmetry_Pilot,2022.1.3,Win32,60.03842459,62bbe60bf3d75ef465d3e404,0,136,136,16,1,onetwo,,,,,,,,,,,,,,,,,,,,,,,,,,,,,,,,,,,,,,,,,,,,,,,,,,,,,,,,,,,,,,,,,,,,,,,,,,,,,,,,,,,,,,,,,,,,,,,,,,,,,,,,,,,,,,,,,,,,,,,,,,,,,,,,,,,,,,,,,,,,,,,,,,,,,,,,
,,,,,,61140ecd6c72bb8ce54d0ac8,62bbf9b9f2bc492c14ad186f,2022-06-29_09h05.55.612,Colour_Asymmetry_Pilot,2022.1.3,Win32,60.03842459,62bbe60bf3d75ef465d3e404,0,137,137,97,1,onethree,,,,,,,,,,,,,,,,,,,,,,,,,,,,,,,,,,,,,,,,,,,,,,,,,,,,,,,,,,,,,,,,,,,,,,,,,,,,,,,,,,,,,,,,,,,,,,,,,,,,,,,,,,,,,,,,,,,,,,,,,,,,,,,,,,,,,,,,,,,,,,,,,,,,,,,,
,,,,,,61140ecd6c72bb8ce54d0ac8,62bbf9b9f2bc492c14ad186f,2022-06-29_09h05.55.612,Colour_Asymmetry_Pilot,2022.1.3,Win32,60.03842459,62bbe60bf3d75ef465d3e404,0,138,138,82,1,twoone,,,,,,,,,,,,,,,,,,,,,,,,,,,,,,,,,,,,,,,,,,,,,,,,,,,,,,,,,,,,,,,,,,,,,,,,,,,,,,,,,,,,,,,,,,,,,,,,,,,,,,,,,,,,,,,,,,,,,,,,,,,,,,,,,,,,,,,,,,,,,,,,,,,,,,,,
,,,,,,61140ecd6c72bb8ce54d0ac8,62bbf9b9f2bc492c14ad186f,2022-06-29_09h05.55.612,Colour_Asymmetry_Pilot,2022.1.3,Win32,60.03842459,62bbe60bf3d75ef465d3e404,0,139,139,148,1,threeone,,,,,,,,,,,,,,,,,,,,,,,,,,,,,,,,,,,,,,,,,,,,,,,,,,,,,,,,,,,,,,,,,,,,,,,,,,,,,,,,,,,,,,,,,,,,,,,,,,,,,,,,,,,,,,,,,,,,,,,,,,,,,,,,,,,,,,,,,,,,,,,,,,,,,,,,
,,,,,,61140ecd6c72bb8ce54d0ac8,62bbf9b9f2bc492c14ad186f,2022-06-29_09h05.55.612,Colour_Asymmetry_Pilot,2022.1.3,Win32,60.03842459,62bbe60bf3d75ef465d3e404,0,140,140,3,1,twofour,,,,,,,,,,,,,,,,,,,,,,,,,,,,,,,,,,,,,,,,,,,,,,,,,,,,,,,,,,,,,,,,,,,,,,,,,,,,,,,,,,,,,,,,,,,,,,,,,,,,,,,,,,,,,,,,,,,,,,,,,,,,,,,,,,,,,,,,,,,,,,,,,,,,,,,,
,,,,,,61140ecd6c72bb8ce54d0ac8,62bbf9b9f2bc492c14ad186f,2022-06-29_09h05.55.612,Colour_Asymmetry_Pilot,2022.1.3,Win32,60.03842459,62bbe60bf3d75ef465d3e404,0,141,141,4,1,threeone,,,,,,,,,,,,,,,,,,,,,,,,,,,,,,,,,,,,,,,,,,,,,,,,,,,,,,,,,,,,,,,,,,,,,,,,,,,,,,,,,,,,,,,,,,,,,,,,,,,,,,,,,,,,,,,,,,,,,,,,,,,,,,,,,,,,,,,,,,,,,,,,,,,,,,,,
,,,,,,61140ecd6c72bb8ce54d0ac8,62bbf9b9f2bc492c14ad186f,2022-06-29_09h05.55.612,Colour_Asymmetry_Pilot,2022.1.3,Win32,60.03842459,62bbe60bf3d75ef465d3e404,0,142,142,12,1,threeone,,,,,,,,,,,,,,,,,,,,,,,,,,,,,,,,,,,,,,,,,,,,,,,,,,,,,,,,,,,,,,,,,,,,,,,,,,,,,,,,,,,,,,,,,,,,,,,,,,,,,,,,,,,,,,,,,,,,,,,,,,,,,,,,,,,,,,,,,,,,,,,,,,,,,,,,
,,,,,,61140ecd6c72bb8ce54d0ac8,62bbf9b9f2bc492c14ad186f,2022-06-29_09h05.55.612,Colour_Asymmetry_Pilot,2022.1.3,Win32,60.03842459,62bbe60bf3d75ef465d3e404,0,143,143,101,1,threefour,,,,,,,,,,,,,,,,,,,,,,,,,,,,,,,,,,,,,,,,,,,,,,,,,,,,,,,,,,,,,,,,,,,,,,,,,,,,,,,,,,,,,,,,,,,,,,,,,,,,,,,,,,,,,,,,,,,,,,,,,,,,,,,,,,,,,,,,,,,,,,,,,,,,,,,,
,,,,,,61140ecd6c72bb8ce54d0ac8,62bbf9b9f2bc492c14ad186f,2022-06-29_09h05.55.612,Colour_Asymmetry_Pilot,2022.1.3,Win32,60.03842459,62bbe60bf3d75ef465d3e404,0,144,144,73,1,onethree,,,,,,,,,,,,,,,,,,,,,,,,,,,,,,,,,,,,,,,,,,,,,,,,,,,,,,,,,,,,,,,,,,,,,,,,,,,,,,,,,,,,,,,,,,,,,,,,,,,,,,,,,,,,,,,,,,,,,,,,,,,,,,,,,,,,,,,,,,,,,,,,,,,,,,,,
,,,,,,61140ecd6c72bb8ce54d0ac8,62bbf9b9f2bc492c14ad186f,2022-06-29_09h05.55.612,Colour_Asymmetry_Pilot,2022.1.3,Win32,60.03842459,62bbe60bf3d75ef465d3e404,0,145,145,110,1,fourtwo,,,,,,,,,,,,,,,,,,,,,,,,,,,,,,,,,,,,,,,,,,,,,,,,,,,,,,,,,,,,,,,,,,,,,,,,,,,,,,,,,,,,,,,,,,,,,,,,,,,,,,,,,,,,,,,,,,,,,,,,,,,,,,,,,,,,,,,,,,,,,,,,,,,,,,,,
,,,,,,61140ecd6c72bb8ce54d0ac8,62bbf9b9f2bc492c14ad186f,2022-06-29_09h05.55.612,Colour_Asymmetry_Pilot,2022.1.3,Win32,60.03842459,62bbe60bf3d75ef465d3e404,0,146,146,154,1,twoone,,,,,,,,,,,,,,,,,,,,,,,,,,,,,,,,,,,,,,,,,,,,,,,,,,,,,,,,,,,,,,,,,,,,,,,,,,,,,,,,,,,,,,,,,,,,,,,,,,,,,,,,,,,,,,,,,,,,,,,,,,,,,,,,,,,,,,,,,,,,,,,,,,,,,,,,
,,,,,,61140ecd6c72bb8ce54d0ac8,62bbf9b9f2bc492c14ad186f,2022-06-29_09h05.55.612,Colour_Asymmetry_Pilot,2022.1.3,Win32,60.03842459,62bbe60bf3d75ef465d3e404,0,147,147,38,1,fourtwo,,,,,,,,,,,,,,,,,,,,,,,,,,,,,,,,,,,,,,,,,,,,,,,,,,,,,,,,,,,,,,,,,,,,,,,,,,,,,,,,,,,,,,,,,,,,,,,,,,,,,,,,,,,,,,,,,,,,,,,,,,,,,,,,,,,,,,,,,,,,,,,,,,,,,,,,
,,,,,,61140ecd6c72bb8ce54d0ac8,62bbf9b9f2bc492c14ad186f,2022-06-29_09h05.55.612,Colour_Asymmetry_Pilot,2022.1.3,Win32,60.03842459,62bbe60bf3d75ef465d3e404,0,148,148,104,1,onetwo,,,,,,,,,,,,,,,,,,,,,,,,,,,,,,,,,,,,,,,,,,,,,,,,,,,,,,,,,,,,,,,,,,,,,,,,,,,,,,,,,,,,,,,,,,,,,,,,,,,,,,,,,,,,,,,,,,,,,,,,,,,,,,,,,,,,,,,,,,,,,,,,,,,,,,,,
,,,,,,61140ecd6c72bb8ce54d0ac8,62bbf9b9f2bc492c14ad186f,2022-06-29_09h05.55.612,Colour_Asymmetry_Pilot,2022.1.3,Win32,60.03842459,62bbe60bf3d75ef465d3e404,0,149,149,139,1,twofour,,,,,,,,,,,,,,,,,,,,,,,,,,,,,,,,,,,,,,,,,,,,,,,,,,,,,,,,,,,,,,,,,,,,,,,,,,,,,,,,,,,,,,,,,,,,,,,,,,,,,,,,,,,,,,,,,,,,,,,,,,,,,,,,,,,,,,,,,,,,,,,,,,,,,,,,
,,,,,,61140ecd6c72bb8ce54d0ac8,62bbf9b9f2bc492c14ad186f,2022-06-29_09h05.55.612,Colour_Asymmetry_Pilot,2022.1.3,Win32,60.03842459,62bbe60bf3d75ef465d3e404,0,150,150,44,1,threeone,,,,,,,,,,,,,,,,,,,,,,,,,,,,,,,,,,,,,,,,,,,,,,,,,,,,,,,,,,,,,,,,,,,,,,,,,,,,,,,,,,,,,,,,,,,,,,,,,,,,,,,,,,,,,,,,,,,,,,,,,,,,,,,,,,,,,,,,,,,,,,,,,,,,,,,,
,,,,,,61140ecd6c72bb8ce54d0ac8,62bbf9b9f2bc492c14ad186f,2022-06-29_09h05.55.612,Colour_Asymmetry_Pilot,2022.1.3,Win32,60.03842459,62bbe60bf3d75ef465d3e404,0,151,151,6,1,fourtwo,,,,,,,,,,,,,,,,,,,,,,,,,,,,,,,,,,,,,,,,,,,,,,,,,,,,,,,,,,,,,,,,,,,,,,,,,,,,,,,,,,,,,,,,,,,,,,,,,,,,,,,,,,,,,,,,,,,,,,,,,,,,,,,,,,,,,,,,,,,,,,,,,,,,,,,,
,,,,,,61140ecd6c72bb8ce54d0ac8,62bbf9b9f2bc492c14ad186f,2022-06-29_09h05.55.612,Colour_Asymmetry_Pilot,2022.1.3,Win32,60.03842459,62bbe60bf3d75ef465d3e404,0,152,152,142,1,fourtwo,,,,,,,,,,,,,,,,,,,,,,,,,,,,,,,,,,,,,,,,,,,,,,,,,,,,,,,,,,,,,,,,,,,,,,,,,,,,,,,,,,,,,,,,,,,,,,,,,,,,,,,,,,,,,,,,,,,,,,,,,,,,,,,,,,,,,,,,,,,,,,,,,,,,,,,,
,,,,,,61140ecd6c72bb8ce54d0ac8,62bbf9b9f2bc492c14ad186f,2022-06-29_09h05.55.612,Colour_Asymmetry_Pilot,2022.1.3,Win32,60.03842459,62bbe60bf3d75ef465d3e404,0,153,153,151,1,fourthree,,,,,,,,,,,,,,,,,,,,,,,,,,,,,,,,,,,,,,,,,,,,,,,,,,,,,,,,,,,,,,,,,,,,,,,,,,,,,,,,,,,,,,,,,,,,,,,,,,,,,,,,,,,,,,,,,,,,,,,,,,,,,,,,,,,,,,,,,,,,,,,,,,,,,,,,
,,,,,,61140ecd6c72bb8ce54d0ac8,62bbf9b9f2bc492c14ad186f,2022-06-29_09h05.55.612,Colour_Asymmetry_Pilot,2022.1.3,Win32,60.03842459,62bbe60bf3d75ef465d3e404,0,154,154,111,1,fourthree,,,,,,,,,,,,,,,,,,,,,,,,,,,,,,,,,,,,,,,,,,,,,,,,,,,,,,,,,,,,,,,,,,,,,,,,,,,,,,,,,,,,,,,,,,,,,,,,,,,,,,,,,,,,,,,,,,,,,,,,,,,,,,,,,,,,,,,,,,,,,,,,,,,,,,,,
,,,,,,61140ecd6c72bb8ce54d0ac8,62bbf9b9f2bc492c14ad186f,2022-06-29_09h05.55.612,Colour_Asymmetry_Pilot,2022.1.3,Win32,60.03842459,62bbe60bf3d75ef465d3e404,0,155,155,149,1,threefour,,,,,,,,,,,,,,,,,,,,,,,,,,,,,,,,,,,,,,,,,,,,,,,,,,,,,,,,,,,,,,,,,,,,,,,,,,,,,,,,,,,,,,,,,,,,,,,,,,,,,,,,,,,,,,,,,,,,,,,,,,,,,,,,,,,,,,,,,,,,,,,,,,,,,,,,
,,,,,,61140ecd6c72bb8ce54d0ac8,62bbf9b9f2bc492c14ad186f,2022-06-29_09h05.55.612,Colour_Asymmetry_Pilot,2022.1.3,Win32,60.03842459,62bbe60bf3d75ef465d3e404,0,156,156,30,1,fourtwo,,,,,,,,,,,,,,,,,,,,,,,,,,,,,,,,,,,,,,,,,,,,,,,,,,,,,,,,,,,,,,,,,,,,,,,,,,,,,,,,,,,,,,,,,,,,,,,,,,,,,,,,,,,,,,,,,,,,,,,,,,,,,,,,,,,,,,,,,,,,,,,,,,,,,,,,
,,,,,,61140ecd6c72bb8ce54d0ac8,62bbf9b9f2bc492c14ad186f,2022-06-29_09h05.55.612,Colour_Asymmetry_Pilot,2022.1.3,Win32,60.03842459,62bbe60bf3d75ef465d3e404,0,157,157,14,1,fourtwo,,,,,,,,,,,,,,,,,,,,,,,,,,,,,,,,,,,,,,,,,,,,,,,,,,,,,,,,,,,,,,,,,,,,,,,,,,,,,,,,,,,,,,,,,,,,,,,,,,,,,,,,,,,,,,,,,,,,,,,,,,,,,,,,,,,,,,,,,,,,,,,,,,,,,,,,
,,,,,,61140ecd6c72bb8ce54d0ac8,62bbf9b9f2bc492c14ad186f,2022-06-29_09h05.55.612,Colour_Asymmetry_Pilot,2022.1.3,Win32,60.03842459,62bbe60bf3d75ef465d3e404,0,158,158,23,1,fourthree,,,,,,,,,,,,,,,,,,,,,,,,,,,,,,,,,,,,,,,,,,,,,,,,,,,,,,,,,,,,,,,,,,,,,,,,,,,,,,,,,,,,,,,,,,,,,,,,,,,,,,,,,,,,,,,,,,,,,,,,,,,,,,,,,,,,,,,,,,,,,,,,,,,,,,,,
,,,,,,61140ecd6c72bb8ce54d0ac8,62bbf9b9f2bc492c14ad186f,2022-06-29_09h05.55.612,Colour_Asymmetry_Pilot,2022.1.3,Win32,60.03842459,62bbe60bf3d75ef465d3e404,0,159,159,124,1,threeone,,,,,,,,,,,,,,,,,,,,,,,,,,,,,,,,,,,,,,,,,,,,,,,,,,,,,,,,,,,,,,,,,,,,,,,,,,,,,,,,,,,,,,,,,,,,,,,,,,,,,,,,,,,,,,,,,,,,,,,,,,,,,,,,,,,,,,,,,,,,,,,,,,,,,,,,
,,,,,,61140ecd6c72bb8ce54d0ac8,62bbf9b9f2bc492c14ad186f,2022-06-29_09h05.55.612,Colour_Asymmetry_Pilot,2022.1.3,Win32,60.03842459,62bbe60bf3d75ef465d3e404,0,160,160,116,1,threeone,,,,,,,,,,,,,,,,,,,,,,,,,,,,,,,,,,,,,,,,,,,,,,,,,,,,,,,,,,,,,,,,,,,,,,,,,,,,,,,,,,,,,,,,,,,,,,,,,,,,,,,,,,,,,,,,,,,,,,,,,,,,,,,,,,,,,,,,,,,,,,,,,,,,,,,,
,,,,,,61140ecd6c72bb8ce54d0ac8,62bbf9b9f2bc492c14ad186f,2022-06-29_09h05.55.612,Colour_Asymmetry_Pilot,2022.1.3,Win32,60.03842459,62bbe60bf3d75ef465d3e404,0,161,161,112,1,onetwo,,,,,,,,,,,,,,,,,,,,,,,,,,,,,,,,,,,,,,,,,,,,,,,,,,,,,,,,,,,,,,,,,,,,,,,,,,,,,,,,,,,,,,,,,,,,,,,,,,,,,,,,,,,,,,,,,,,,,,,,,,,,,,,,,,,,,,,,,,,,,,,,,,,,,,,,
,,,,,,61140ecd6c72bb8ce54d0ac8,62bbf9b9f2bc492c14ad186f,2022-06-29_09h05.55.612,Colour_Asymmetry_Pilot,2022.1.3,Win32,60.03842459,62bbe60bf3d75ef465d3e404,,,,,,,space,5.6001,space,86.5238,space,76.4159,space,56.5197,space,8.9941,space,9.19,"[-0.06680000000000008,-0.45100000000000007,-0.906]",fourtwo,"[-0.20799999999999996,-0.655,-0.01980000000000004]",-4,27.159,-54,131,1,0,0,response7disk_5,1,-5,1,0,0,rectangle_8,1,-5,1,0,0,2,1,-5,1,0,0,0,0,0,0,1,,,,,,,,,,,,,,,,,,,,,,,,,,,,,,,,,,,,,,,,,,,,,,,,,,,,,,,,,,,,,,,,,,,,,,,,,,,,,,,,,,,,,,,,,,,,,,,,,,,,,,,,,,,
,,,,,,61140ecd6c72bb8ce54d0ac8,62bbf9b9f2bc492c14ad186f,2022-06-29_09h05.55.612,Colour_Asymmetry_Pilot,2022.1.3,Win32,60.03842459,62bbe60bf3d75ef465d3e404,,,,,,,,,,,,,,,,,,,"[-0.8982,-0.37259999999999993,0.2784]",onetwo,"[-0.9296,-0.12959999999999994,-0.043199999999999905]",4,3.6492,45,132,1,0,0,response1disk_5,-6,-1,1,0,0,rectangle_8,119,-51,1,0,0,2,-3,3,1,0,0,1,0,1,0,1,response3disk_7,5,rectangle_4,,,,,,,,,,,,,,,,,,,,,,,,,,,,,,,,,,,,,,,,,,,,,,,,,,,,,,,,,,,,,,,,,,,,,,,,,,,,,,,,,,,,,,,,,,,,,,,,,,,,,,,,
,,,,,,61140ecd6c72bb8ce54d0ac8,62bbf9b9f2bc492c14ad186f,2022-06-29_09h05.55.612,Colour_Asymmetry_Pilot,2022.1.3,Win32,60.03842459,62bbe60bf3d75ef465d3e404,,,,,,,,,,,,,,,,,,,"[-0.07459999999999989,0.12139999999999995,-0.9922]",fourthree,"[-0.8198,-0.5138,-0.7492000000000001]",-4,4.5324,-50,125,1,0,0,response7disk_5,-1,1,1,0,0,rectangle_8,-1,1,1,0,0,2,-1,1,1,0,0,2,0,2,0,1,,,,,,,,,,,,,,,,,,,,,,,,,,,,,,,,,,,,,,,,,,,,,,,,,,,,,,,,,,,,,,,,,,,,,,,,,,,,,,,,,,,,,,,,,,,,,,,,,,,,,,,,,,,
,,,,,,61140ecd6c72bb8ce54d0ac8,62bbf9b9f2bc492c14ad186f,2022-06-29_09h05.55.612,Colour_Asymmetry_Pilot,2022.1.3,Win32,60.03842459,62bbe60bf3d75ef465d3e404,,,,,,,,,,,,,,,,,,,"[-0.06680000000000008,-0.45100000000000007,-0.906]",fourthree,"[-0.9766,-0.34920000000000007,0.2156]",-4,1.7831,-56,133,1,0,0,response7disk_5,-8,1,1,0,0,rectangle_8,-8,1,1,0,0,2,-8,1,1,0,0,3,0,3,0,1,,,,,,,,,,,,,,,,,,,,,,,,,,,,,,,,,,,,,,,,,,,,,,,,,,,,,,,,,,,,,,,,,,,,,,,,,,,,,,,,,,,,,,,,,,,,,,,,,,,,,,,,,,,
,,,,,,61140ecd6c72bb8ce54d0ac8,62bbf9b9f2bc492c14ad186f,2022-06-29_09h05.55.612,Colour_Asymmetry_Pilot,2022.1.3,Win32,60.03842459,62bbe60bf3d75ef465d3e404,,,,,,,,,,,,,,,,,,,"[0.7176,-0.906,-0.6864]",threefour,"[-0.9688,-0.38039999999999996,-0.41979999999999995]",-4,2.0832,-58,134,1,0,0,response7disk_5,-5,-1,1,0,0,rectangle_8,111,-50,1,0,0,2,-2,0,1,0,0,4,0,4,0,1,response3disk_7,5,rectangle_4,,,,,,,,,,,,,,,,,,,,,,,,,,,,,,,,,,,,,,,,,,,,,,,,,,,,,,,,,,,,,,,,,,,,,,,,,,,,,,,,,,,,,,,,,,,,,,,,,,,,,,,,
,,,,,,61140ecd6c72bb8ce54d0ac8,62bbf9b9f2bc492c14ad186f,2022-06-29_09h05.55.612,Colour_Asymmetry_Pilot,2022.1.3,Win32,60.03842459,62bbe60bf3d75ef465d3e404,,,,,,,,,,,,,,,,,,,"[-0.5688,-0.08239999999999992,-0.1844]",onethree,"[-0.9688,-0.38039999999999996,-0.41979999999999995]",4,2.6824,54,135,1,0,0,response1disk_5,10,3,1,0,0,rectangle_8,10,3,1,0,0,2,10,3,1,0,0,5,0,5,0,1,,,,,,,,,,,,,,,,,,,,,,,,,,,,,,,,,,,,,,,,,,,,,,,,,,,,,,,,,,,,,,,,,,,,,,,,,,,,,,,,,,,,,,,,,,,,,,,,,,,,,,,,,,,
,,,,,,61140ecd6c72bb8ce54d0ac8,62bbf9b9f2bc492c14ad186f,2022-06-29_09h05.55.612,Colour_Asymmetry_Pilot,2022.1.3,Win32,60.03842459,62bbe60bf3d75ef465d3e404,,,,,,,,,,,,,,,,,,,"[-0.45899999999999996,-0.3256,-0.9374]",threefour,"[-0.4668,-0.8746,-0.2942]",-4,1.3494,-50,132,1,0,0,response7disk_5,-5,2,1,0,0,rectangle_8,-5,2,1,0,0,2,-5,2,1,0,0,6,0,6,0,1,,,,,,,,,,,,,,,,,,,,,,,,,,,,,,,,,,,,,,,,,,,,,,,,,,,,,,,,,,,,,,,,,,,,,,,,,,,,,,,,,,,,,,,,,,,,,,,,,,,,,,,,,,,
,,,,,,61140ecd6c72bb8ce54d0ac8,62bbf9b9f2bc492c14ad186f,2022-06-29_09h05.55.612,Colour_Asymmetry_Pilot,2022.1.3,Win32,60.03842459,62bbe60bf3d75ef465d3e404,,,,,,,,,,,,,,,,,,,,fourtwo,,4,1.933,,,,,,,,,,,,,,,,,,,,,,,,,,,,,,,,space,8.8346,"[-0.34920000000000007,-0.702,-0.5216]","[-0.07459999999999989,0.12139999999999995,-0.9922]",53,132,1,0,0,response1disk,-14,0,1,0,0,rectangle,-14,0,1,0,0,,3,0.0039,0,-14,0,1,0,0,0,0,0,95,1,14,second,,,,,,,,,,,,,,,,,,,,,,,,,,,,,,,,,,,,,,,,,,,,,,,,,,,,,,,,,,,,,,,,,,,
,,,,,,61140ecd6c72bb8ce54d0ac8,62bbf9b9f2bc492c14ad186f,2022-06-29_09h05.55.612,Colour_Asymmetry_Pilot,2022.1.3,Win32,60.03842459,62bbe60bf3d75ef465d3e404,,,,,,,,,,,,,,,,,,,,threefour,,4,1.516,,,,,,,,,,,,,,,,,,,,,,,,,,,,,,,,,,"[0.3881999999999999,-0.23939999999999995,-0.05040000000000011]","[-0.4746,-0.0354000000000001,0.5449999999999999]",48,136,1,0,0,response1disk,-1,8,1,0,0,rectangle,-1,8,1,0,0,,3,0.0004,0,-1,8,1,0,0,0,1,1,77,1,77,first,,,,,,,,,,,,,,,,,,,,,,,,,,,,,,,,,,,,,,,,,,,,,,,,,,,,,,,,,,,,,,,,,,,
,,,,,,61140ecd6c72bb8ce54d0ac8,62bbf9b9f2bc492c14ad186f,2022-06-29_09h05.55.612,Colour_Asymmetry_Pilot,2022.1.3,Win32,60.03842459,62bbe60bf3d75ef465d3e404,,,,,,,,,,,,,,,,,,,,onetwo,,4,0.9497,,,,,,,,,,,,,,,,,,,,,,,,,,,,,,,,,,"[-0.10599999999999998,-0.10599999999999998,0.5841999999999998]","[-0.26280000000000003,-0.4746,-0.2158]",40,135,1,0,0,response1disk,12,3,1,0,0,rectangle,12,3,1,0,0,,2,0.0018,0,12,3,1,0,0,0,2,2,106,1,25,second,,,,,,,,,,,,,,,,,,,,,,,,,,,,,,,,,,,,,,,,,,,,,,,,,,,,,,,,,,,,,,,,,,,
,,,,,,61140ecd6c72bb8ce54d0ac8,62bbf9b9f2bc492c14ad186f,2022-06-29_09h05.55.612,Colour_Asymmetry_Pilot,2022.1.3,Win32,60.03842459,62bbe60bf3d75ef465d3e404,,,,,,,,,,,,,,,,,,,,fourthree,,-4,0.7662,,,,,,,,,,,,,,,,,,,,,,,,,,,,,,,,,,"[-0.20799999999999996,-0.655,-0.01980000000000004]","[0.8274000000000001,-0.5844,-0.9452]",-47,137,1,0,0,response7disk,9,-8,1,0,0,rectangle,9,-8,1,0,0,,1,0.0009,0,9,-8,1,0,0,0,3,3,15,1,15,first,,,,,,,,,,,,,,,,,,,,,,,,,,,,,,,,,,,,,,,,,,,,,,,,,,,,,,,,,,,,,,,,,,,
,,,,,,61140ecd6c72bb8ce54d0ac8,62bbf9b9f2bc492c14ad186f,2022-06-29_09h05.55.612,Colour_Asymmetry_Pilot,2022.1.3,Win32,60.03842459,62bbe60bf3d75ef465d3e404,,,,,,,,,,,,,,,,,,,,fourtwo,,-4,0.8325,,,,,,,,,,,,,,,,,,,,,,,,,,,,,,,,,,"[0.7176,-0.906,-0.6864]","[-0.8982,-0.37259999999999993,0.2784]",-57,135,1,0,0,response7disk,14,1,1,0,0,rectangle,14,1,1,0,0,,3,0.0019,0,14,1,1,0,0,0,4,4,73,1,73,first,,,,,,,,,,,,,,,,,,,,,,,,,,,,,,,,,,,,,,,,,,,,,,,,,,,,,,,,,,,,,,,,,,,
,,,,,,61140ecd6c72bb8ce54d0ac8,62bbf9b9f2bc492c14ad186f,2022-06-29_09h05.55.612,Colour_Asymmetry_Pilot,2022.1.3,Win32,60.03842459,62bbe60bf3d75ef465d3e404,,,,,,,,,,,,,,,,,,,,threefour,,4,0.8831,,,,,,,,,,,,,,,,,,,,,,,,,,,,,,,,,,"[-0.011800000000000033,-0.906,-0.45100000000000007]","[0.37240000000000006,0.4980000000000002,-0.2864]",51,134,1,0,0,response1disk,4,2,1,0,0,rectangle,4,2,1,0,0,,1,0.0008,0,4,2,1,0,0,0,5,5,140,1,59,second,,,,,,,,,,,,,,,,,,,,,,,,,,,,,,,,,,,,,,,,,,,,,,,,,,,,,,,,,,,,,,,,,,,
,,,,,,61140ecd6c72bb8ce54d0ac8,62bbf9b9f2bc492c14ad186f,2022-06-29_09h05.55.612,Colour_Asymmetry_Pilot,2022.1.3,Win32,60.03842459,62bbe60bf3d75ef465d3e404,,,,,,,,,,,,,,,,,,,,threefour,,-4,0.9659,,,,,,,,,,,,,,,,,,,,,,,,,,,,,,,,,,"[-0.6,0.16860000000000008,0.44300000000000006]","[-0.24719999999999998,0.5213999999999999,-0.12959999999999994]",-47,135,1,0,0,response7disk,5,-3,1,0,0,rectangle,5,-3,1,0,0,,1,0.0002,0,5,-3,1,0,0,0,6,6,79,1,79,first,,,,,,,,,,,,,,,,,,,,,,,,,,,,,,,,,,,,,,,,,,,,,,,,,,,,,,,,,,,,,,,,,,,
,,,,,,61140ecd6c72bb8ce54d0ac8,62bbf9b9f2bc492c14ad186f,2022-06-29_09h05.55.612,Colour_Asymmetry_Pilot,2022.1.3,Win32,60.03842459,62bbe60bf3d75ef465d3e404,,,,,,,,,,,,,,,,,,,,fourtwo,,4,0.9492,,,,,,,,,,,,,,,,,,,,,,,,,,,,,,,,,,"[0.04299999999999993,0.16060000000000008,-0.6628000000000001]","[0.8274000000000001,-0.5844,-0.9452]",50,133,1,0,0,response1disk,-1,2,1,0,0,rectangle,-1,2,1,0,0,,1,0.0002,0,-1,2,1,0,0,0,7,7,9,1,9,first,,,,,,,,,,,,,,,,,,,,,,,,,,,,,,,,,,,,,,,,,,,,,,,,,,,,,,,,,,,,,,,,,,,
,,,,,,61140ecd6c72bb8ce54d0ac8,62bbf9b9f2bc492c14ad186f,2022-06-29_09h05.55.612,Colour_Asymmetry_Pilot,2022.1.3,Win32,60.03842459,62bbe60bf3d75ef465d3e404,,,,,,,,,,,,,,,,,,,,fourthree,,-4,0.8328,,,,,,,,,,,,,,,,,,,,,,,,,,,,,,,,,,"[-0.10599999999999998,-0.15300000000000002,0.15280000000000005]","[-0.45899999999999996,-0.3256,-0.9374]",-51,132,1,0,0,response7disk,-1,1,1,0,0,rectangle,-1,1,1,0,0,,3,0.0015,0,-1,1,1,0,0,0,8,8,142,1,61,second,,,,,,,,,,,,,,,,,,,,,,,,,,,,,,,,,,,,,,,,,,,,,,,,,,,,,,,,,,,,,,,,,,,
,,,,,,61140ecd6c72bb8ce54d0ac8,62bbf9b9f2bc492c14ad186f,2022-06-29_09h05.55.612,Colour_Asymmetry_Pilot,2022.1.3,Win32,60.03842459,62bbe60bf3d75ef465d3e404,,,,,,,,,,,,,,,,,,,,fourthree,,4,0.7658,,,,,,,,,,,,,,,,,,,,,,,,,,,,,,,,,,"[-0.011800000000000033,-0.906,-0.45100000000000007]","[-0.17659999999999998,0.3253999999999999,0.19999999999999996]",46,136,1,0,0,response1disk,12,3,1,0,0,rectangle,12,3,1,0,0,,1,0.0009,0,12,3,1,0,0,0,9,9,91,1,10,second,,,,,,,,,,,,,,,,,,,,,,,,,,,,,,,,,,,,,,,,,,,,,,,,,,,,,,,,,,,,,,,,,,,
,,,,,,61140ecd6c72bb8ce54d0ac8,62bbf9b9f2bc492c14ad186f,2022-06-29_09h05.55.612,Colour_Asymmetry_Pilot,2022.1.3,Win32,60.03842459,62bbe60bf3d75ef465d3e404,,,,,,,,,,,,,,,,,,,,fourthree,,4,0.5335,,,,,,,,,,,,,,,,,,,,,,,,,,,,,,,,,,"[-0.6235999999999999,-0.6786,-0.08239999999999992]","[-0.34920000000000007,-0.702,-0.5216]",49,136,1,0,0,response1disk,-3,3,1,0,0,rectangle,-3,3,1,0,0,,2,0.0018,0,-3,3,1,0,0,0,10,10,6,1,6,first,,,,,,,,,,,,,,,,,,,,,,,,,,,,,,,,,,,,,,,,,,,,,,,,,,,,,,,,,,,,,,,,,,,
,,,,,,61140ecd6c72bb8ce54d0ac8,62bbf9b9f2bc492c14ad186f,2022-06-29_09h05.55.612,Colour_Asymmetry_Pilot,2022.1.3,Win32,60.03842459,62bbe60bf3d75ef465d3e404,,,,,,,,,,,,,,,,,,,,twofour,,4,1.0169,,,,,,,,,,,,,,,,,,,,,,,,,,,,,,,,,,"[0.5528,0.7409999999999999,-0.71]","[-0.8198,-0.5138,-0.7492000000000001]",51,133,1,0,0,response1disk,-3,1,1,0,0,rectangle,-3,1,1,0,0,,1,0.0042,0,-3,1,1,0,0,0,11,11,156,1,75,second,,,,,,,,,,,,,,,,,,,,,,,,,,,,,,,,,,,,,,,,,,,,,,,,,,,,,,,,,,,,,,,,,,,
,,,,,,61140ecd6c72bb8ce54d0ac8,62bbf9b9f2bc492c14ad186f,2022-06-29_09h05.55.612,Colour_Asymmetry_Pilot,2022.1.3,Win32,60.03842459,62bbe60bf3d75ef465d3e404,,,,,,,,,,,,,,,,,,,,fourtwo,,4,0.9004,,,,,,,,,,,,,,,,,,,,,,,,,,,,,,,,,,"[-0.07459999999999989,0.12139999999999995,-0.9922]","[0.3568,-0.20799999999999996,-0.9844]",53,135,1,0,0,response1disk,3,2,1,0,0,rectangle,3,2,1,0,0,,3,0.0022,0,3,2,1,0,0,0,12,12,94,1,13,second,,,,,,,,,,,,,,,,,,,,,,,,,,,,,,,,,,,,,,,,,,,,,,,,,,,,,,,,,,,,,,,,,,,
,,,,,,61140ecd6c72bb8ce54d0ac8,62bbf9b9f2bc492c14ad186f,2022-06-29_09h05.55.612,Colour_Asymmetry_Pilot,2022.1.3,Win32,60.03842459,62bbe60bf3d75ef465d3e404,,,,,,,,,,,,,,,,,,,,threefour,,4,0.8,,,,,,,,,,,,,,,,,,,,,,,,,,,,,,,,,,"[-0.6235999999999999,-0.6786,-0.08239999999999992]","[-0.9216,-0.5529999999999999,-0.3962]",46,137,1,0,0,response1disk,13,-4,1,0,0,rectangle,13,-4,1,0,0,,2,0.0027,0,13,-4,1,0,0,0,13,13,118,1,37,second,,,,,,,,,,,,,,,,,,,,,,,,,,,,,,,,,,,,,,,,,,,,,,,,,,,,,,,,,,,,,,,,,,,
,,,,,,61140ecd6c72bb8ce54d0ac8,62bbf9b9f2bc492c14ad186f,2022-06-29_09h05.55.612,Colour_Asymmetry_Pilot,2022.1.3,Win32,60.03842459,62bbe60bf3d75ef465d3e404,,,,,,,,,,,,,,,,,,,,onethree,,4,0.7999,,,,,,,,,,,,,,,,,,,,,,,,,,,,,,,,,,"[0.23120000000000007,-0.7726,-0.34120000000000006]","[-0.4668,-0.8746,-0.2942]",46,132,1,0,0,response1disk,-3,4,1,0,0,rectangle,-3,4,1,0,0,,1,0.0019,0,-3,4,1,0,0,0,14,14,93,1,12,second,,,,,,,,,,,,,,,,,,,,,,,,,,,,,,,,,,,,,,,,,,,,,,,,,,,,,,,,,,,,,,,,,,,
,,,,,,61140ecd6c72bb8ce54d0ac8,62bbf9b9f2bc492c14ad186f,2022-06-29_09h05.55.612,Colour_Asymmetry_Pilot,2022.1.3,Win32,60.03842459,62bbe60bf3d75ef465d3e404,,,,,,,,,,,,,,,,,,,,onethree,,4,1.6997,,,,,,,,,,,,,,,,,,,,,,,,,,,,,,,,,,"[0.2784,-0.31000000000000005,-0.5452]","[-0.26280000000000003,-0.2158,-0.3256]",45,131,1,0,0,response1disk,4,-3,1,0,0,rectangle,4,-3,1,0,0,,1,0.0005,0,4,-3,1,0,0,0,15,15,113,1,32,second,,,,,,,,,,,,,,,,,,,,,,,,,,,,,,,,,,,,,,,,,,,,,,,,,,,,,,,,,,,,,,,,,,,
,,,,,,61140ecd6c72bb8ce54d0ac8,62bbf9b9f2bc492c14ad186f,2022-06-29_09h05.55.612,Colour_Asymmetry_Pilot,2022.1.3,Win32,60.03842459,62bbe60bf3d75ef465d3e404,,,,,,,,,,,,,,,,,,,,onethree,,4,0.7671,,,,,,,,,,,,,,,,,,,,,,,,,,,,,,,,,,"[-0.9216,-0.5529999999999999,-0.3962]","[-0.9296,-0.12959999999999994,-0.043199999999999905]",49,134,1,0,0,response1disk,1,3,1,0,0,rectangle,1,3,1,0,0,,3,0.0019,0,1,3,1,0,0,0,16,16,122,1,41,second,,,,,,,,,,,,,,,,,,,,,,,,,,,,,,,,,,,,,,,,,,,,,,,,,,,,,,,,,,,,,,,,,,,
,,,,,,61140ecd6c72bb8ce54d0ac8,62bbf9b9f2bc492c14ad186f,2022-06-29_09h05.55.612,Colour_Asymmetry_Pilot,2022.1.3,Win32,60.03842459,62bbe60bf3d75ef465d3e404,,,,,,,,,,,,,,,,,,,,threefour,,4,0.9011,,,,,,,,,,,,,,,,,,,,,,,,,,,,,,,,,,"[0.19199999999999995,0.18419999999999992,0.5136000000000001]","[-0.30200000000000005,0.14500000000000002,0.2784]",48,133,1,0,0,response1disk,3,11,1,0,0,rectangle,3,11,1,0,0,,1,0.0006,0,3,11,1,0,0,0,17,17,5,1,5,first,,,,,,,,,,,,,,,,,,,,,,,,,,,,,,,,,,,,,,,,,,,,,,,,,,,,,,,,,,,,,,,,,,,
,,,,,,61140ecd6c72bb8ce54d0ac8,62bbf9b9f2bc492c14ad186f,2022-06-29_09h05.55.612,Colour_Asymmetry_Pilot,2022.1.3,Win32,60.03842459,62bbe60bf3d75ef465d3e404,,,,,,,,,,,,,,,,,,,,onetwo,,-4,1.0162,,,,,,,,,,,,,,,,,,,,,,,,,,,,,,,,,,"[-0.09019999999999995,0.44300000000000006,0.5371999999999999]","[0.34099999999999997,0.12939999999999996,-0.9766]",-53,133,1,0,0,response7disk,-6,8,1,0,0,rectangle,-6,8,1,0,0,,2,0.0014,0,-6,8,1,0,0,0,18,18,23,1,23,first,,,,,,,,,,,,,,,,,,,,,,,,,,,,,,,,,,,,,,,,,,,,,,,,,,,,,,,,,,,,,,,,,,,
,,,,,,61140ecd6c72bb8ce54d0ac8,62bbf9b9f2bc492c14ad186f,2022-06-29_09h05.55.612,Colour_Asymmetry_Pilot,2022.1.3,Win32,60.03842459,62bbe60bf3d75ef465d3e404,,,,,,,,,,,,,,,,,,,,threefour,,4,0.7563,,,,,,,,,,,,,,,,,,,,,,,,,,,,,,,,,,"[0.7646000000000002,0.07440000000000002,0.2704]","[-0.26280000000000003,-0.2158,-0.3256]",44,135,1,0,0,response1disk,-11,6,1,0,0,rectangle,-11,6,1,0,0,,3,0.0011,0,-11,6,1,0,0,0,19,19,7,1,7,first,,,,,,,,,,,,,,,,,,,,,,,,,,,,,,,,,,,,,,,,,,,,,,,,,,,,,,,,,,,,,,,,,,,
,,,,,,61140ecd6c72bb8ce54d0ac8,62bbf9b9f2bc492c14ad186f,2022-06-29_09h05.55.612,Colour_Asymmetry_Pilot,2022.1.3,Win32,60.03842459,62bbe60bf3d75ef465d3e404,,,,,,,,,,,,,,,,,,,,onetwo,,4,0.7667,,,,,,,,,,,,,,,,,,,,,,,,,,,,,,,,,,"[-0.9296,-0.12959999999999994,-0.043199999999999905]","[-0.9216,-0.5529999999999999,-0.3962]",57,134,1,0,0,response1disk,-13,10,1,0,0,rectangle,-13,10,1,0,0,,2,0.0021,0,-13,10,1,0,0,0,20,20,41,1,41,first,,,,,,,,,,,,,,,,,,,,,,,,,,,,,,,,,,,,,,,,,,,,,,,,,,,,,,,,,,,,,,,,,,,
