trials.thisRepN,trials.thisTrialN,trials.thisN,trials.thisIndex,trials.ran,Colourcodes,participant,session,date,expName,psychopyVersion,OS,frameRate,study_id,trials_4.thisRepN,trials_4.thisTrialN,trials_4.thisN,trials_4.thisIndex,trials_4.ran,StimulusPos,key_resp.keys,key_resp.rt,key_resp_2.keys,key_resp_2.rt,key_resp_15.keys,key_resp_15.rt,key_resp_17.keys,key_resp_17.rt,key_resp_9.keys,key_resp_9.rt,key_resp_10.keys,key_resp_10.rt,Circle1_col,Ecc,Circle2_col,similarity,response_time,mouse_5.x,mouse_5.y,mouse_5.leftButton,mouse_5.midButton,mouse_5.rightButton,mouse_5.clicked_name,mouse_10.x,mouse_10.y,mouse_10.leftButton,mouse_10.midButton,mouse_10.rightButton,mouse_10.clicked_name,mouse_7.x,mouse_7.y,mouse_7.leftButton,mouse_7.midButton,mouse_7.rightButton,mouse_7.clicked_name,catchprac,catchnumberprac,mouse_6.x,mouse_6.y,mouse_6.leftButton,mouse_6.midButton,mouse_6.rightButton,mouse_6.clicked_name,duringprac.thisRepN,duringprac.thisTrialN,duringprac.thisN,duringprac.thisIndex,duringprac.ran,key_resp_22.keys,key_resp_22.rt,Circle1_colour,Circle2_colour,mouse.x,mouse.y,mouse.leftButton,mouse.midButton,mouse.rightButton,mouse.clicked_name,mouse_2.x,mouse_2.y,mouse_2.leftButton,mouse_2.midButton,mouse_2.rightButton,mouse_2.clicked_name,mouse_3.x,mouse_3.y,mouse_3.leftButton,mouse_3.midButton,mouse_3.rightButton,catchresponse,catchnumber,response_time_catch,Catch,mouse_11.x,mouse_11.y,mouse_11.leftButton,mouse_11.midButton,mouse_11.rightButton,trials_2.thisRepN,trials_2.thisTrialN,trials_2.thisN,trials_2.thisIndex,trials_2.ran,Colourpair,Temporder,mouse_3.clicked_name,mouse_11.clicked_name,trials_3.thisRepN,trials_3.thisTrialN,trials_3.thisN,trials_3.thisIndex,trials_3.ran,key_resp_instr_Ishi.keys,key_resp_instr_Ishi.rt,Ishi_trial_keyresp.keys,Ishi_trial_keyresp.rt,Ishi_textbox.text,Ishi_loop.thisRepN,Ishi_loop.thisTrialN,Ishi_loop.thisN,Ishi_loop.thisIndex,Ishi_loop.ran,imageaddress,textbox.text,mouse_4.x,mouse_4.y,mouse_4.leftButton,mouse_4.midButton,mouse_4.rightButton,mouse_4.clicked_name,textbox_2.text,mouse_8.x,mouse_8.y,mouse_8.leftButton,mouse_8.midButton,mouse_8.rightButton,mouse_8.clicked_name,textbox_3.text,mouse_9.x,mouse_9.y,mouse_9.leftButton,mouse_9.midButton,mouse_9.rightButton,mouse_9.clicked_name,textbox_4.text,mouse_12.x,mouse_12.y,mouse_12.leftButton,mouse_12.midButton,mouse_12.rightButton,mouse_12.clicked_name,textbox_5.text,mouse_13.x,mouse_13.y,mouse_13.leftButton,mouse_13.midButton,mouse_13.rightButton,mouse_13.clicked_name,textbox_6.text,mouse_14.x,mouse_14.y,mouse_14.leftButton,mouse_14.midButton,mouse_14.rightButton,mouse_14.clicked_name,textbox_7.text,mouse_15.x,mouse_15.y,mouse_15.leftButton,mouse_15.midButton,mouse_15.rightButton,mouse_15.clicked_name
0,0,0,89,1,,60ba101202b7fd117c0f3b94,62bbfb4a07d3805082066968,2022-06-29_09h12.20.086,Colour_Asymmetry_Pilot,2022.1.3,Win32,60.18295619,62bbe60bf3d75ef465d3e404,,,,,,,,,,,,,,,,,,,,,,,,,,,,,,,,,,,,,,,,,,,,,,,,,,,,,,,,,,,,,,,,,,,,,,,,,,,,,,,,,,,,,,,,,,,,,,,,,,,,,,,,,,,,,,,,,,,,,,,,,,,,,,,,,,,,,,,,,,,,,,,,,,,,,,,,,,,,,,
0,1,1,64,1,,60ba101202b7fd117c0f3b94,62bbfb4a07d3805082066968,2022-06-29_09h12.20.086,Colour_Asymmetry_Pilot,2022.1.3,Win32,60.18295619,62bbe60bf3d75ef465d3e404,,,,,,,,,,,,,,,,,,,,,,,,,,,,,,,,,,,,,,,,,,,,,,,,,,,,,,,,,,,,,,,,,,,,,,,,,,,,,,,,,,,,,,,,,,,,,,,,,,,,,,,,,,,,,,,,,,,,,,,,,,,,,,,,,,,,,,,,,,,,,,,,,,,,,,,,,,,,,,
0,2,2,40,1,,60ba101202b7fd117c0f3b94,62bbfb4a07d3805082066968,2022-06-29_09h12.20.086,Colour_Asymmetry_Pilot,2022.1.3,Win32,60.18295619,62bbe60bf3d75ef465d3e404,,,,,,,,,,,,,,,,,,,,,,,,,,,,,,,,,,,,,,,,,,,,,,,,,,,,,,,,,,,,,,,,,,,,,,,,,,,,,,,,,,,,,,,,,,,,,,,,,,,,,,,,,,,,,,,,,,,,,,,,,,,,,,,,,,,,,,,,,,,,,,,,,,,,,,,,,,,,,,
0,3,3,17,1,,60ba101202b7fd117c0f3b94,62bbfb4a07d3805082066968,2022-06-29_09h12.20.086,Colour_Asymmetry_Pilot,2022.1.3,Win32,60.18295619,62bbe60bf3d75ef465d3e404,,,,,,,,,,,,,,,,,,,,,,,,,,,,,,,,,,,,,,,,,,,,,,,,,,,,,,,,,,,,,,,,,,,,,,,,,,,,,,,,,,,,,,,,,,,,,,,,,,,,,,,,,,,,,,,,,,,,,,,,,,,,,,,,,,,,,,,,,,,,,,,,,,,,,,,,,,,,,,
0,4,4,12,1,,60ba101202b7fd117c0f3b94,62bbfb4a07d3805082066968,2022-06-29_09h12.20.086,Colour_Asymmetry_Pilot,2022.1.3,Win32,60.18295619,62bbe60bf3d75ef465d3e404,,,,,,,,,,,,,,,,,,,,,,,,,,,,,,,,,,,,,,,,,,,,,,,,,,,,,,,,,,,,,,,,,,,,,,,,,,,,,,,,,,,,,,,,,,,,,,,,,,,,,,,,,,,,,,,,,,,,,,,,,,,,,,,,,,,,,,,,,,,,,,,,,,,,,,,,,,,,,,
0,5,5,27,1,,60ba101202b7fd117c0f3b94,62bbfb4a07d3805082066968,2022-06-29_09h12.20.086,Colour_Asymmetry_Pilot,2022.1.3,Win32,60.18295619,62bbe60bf3d75ef465d3e404,,,,,,,,,,,,,,,,,,,,,,,,,,,,,,,,,,,,,,,,,,,,,,,,,,,,,,,,,,,,,,,,,,,,,,,,,,,,,,,,,,,,,,,,,,,,,,,,,,,,,,,,,,,,,,,,,,,,,,,,,,,,,,,,,,,,,,,,,,,,,,,,,,,,,,,,,,,,,,
0,6,6,85,1,,60ba101202b7fd117c0f3b94,62bbfb4a07d3805082066968,2022-06-29_09h12.20.086,Colour_Asymmetry_Pilot,2022.1.3,Win32,60.18295619,62bbe60bf3d75ef465d3e404,,,,,,,,,,,,,,,,,,,,,,,,,,,,,,,,,,,,,,,,,,,,,,,,,,,,,,,,,,,,,,,,,,,,,,,,,,,,,,,,,,,,,,,,,,,,,,,,,,,,,,,,,,,,,,,,,,,,,,,,,,,,,,,,,,,,,,,,,,,,,,,,,,,,,,,,,,,,,,
0,7,7,57,1,,60ba101202b7fd117c0f3b94,62bbfb4a07d3805082066968,2022-06-29_09h12.20.086,Colour_Asymmetry_Pilot,2022.1.3,Win32,60.18295619,62bbe60bf3d75ef465d3e404,,,,,,,,,,,,,,,,,,,,,,,,,,,,,,,,,,,,,,,,,,,,,,,,,,,,,,,,,,,,,,,,,,,,,,,,,,,,,,,,,,,,,,,,,,,,,,,,,,,,,,,,,,,,,,,,,,,,,,,,,,,,,,,,,,,,,,,,,,,,,,,,,,,,,,,,,,,,,,
0,8,8,66,1,,60ba101202b7fd117c0f3b94,62bbfb4a07d3805082066968,2022-06-29_09h12.20.086,Colour_Asymmetry_Pilot,2022.1.3,Win32,60.18295619,62bbe60bf3d75ef465d3e404,,,,,,,,,,,,,,,,,,,,,,,,,,,,,,,,,,,,,,,,,,,,,,,,,,,,,,,,,,,,,,,,,,,,,,,,,,,,,,,,,,,,,,,,,,,,,,,,,,,,,,,,,,,,,,,,,,,,,,,,,,,,,,,,,,,,,,,,,,,,,,,,,,,,,,,,,,,,,,
0,9,9,5,1,,60ba101202b7fd117c0f3b94,62bbfb4a07d3805082066968,2022-06-29_09h12.20.086,Colour_Asymmetry_Pilot,2022.1.3,Win32,60.18295619,62bbe60bf3d75ef465d3e404,,,,,,,,,,,,,,,,,,,,,,,,,,,,,,,,,,,,,,,,,,,,,,,,,,,,,,,,,,,,,,,,,,,,,,,,,,,,,,,,,,,,,,,,,,,,,,,,,,,,,,,,,,,,,,,,,,,,,,,,,,,,,,,,,,,,,,,,,,,,,,,,,,,,,,,,,,,,,,
0,10,10,52,1,,60ba101202b7fd117c0f3b94,62bbfb4a07d3805082066968,2022-06-29_09h12.20.086,Colour_Asymmetry_Pilot,2022.1.3,Win32,60.18295619,62bbe60bf3d75ef465d3e404,,,,,,,,,,,,,,,,,,,,,,,,,,,,,,,,,,,,,,,,,,,,,,,,,,,,,,,,,,,,,,,,,,,,,,,,,,,,,,,,,,,,,,,,,,,,,,,,,,,,,,,,,,,,,,,,,,,,,,,,,,,,,,,,,,,,,,,,,,,,,,,,,,,,,,,,,,,,,,
0,11,11,91,1,,60ba101202b7fd117c0f3b94,62bbfb4a07d3805082066968,2022-06-29_09h12.20.086,Colour_Asymmetry_Pilot,2022.1.3,Win32,60.18295619,62bbe60bf3d75ef465d3e404,,,,,,,,,,,,,,,,,,,,,,,,,,,,,,,,,,,,,,,,,,,,,,,,,,,,,,,,,,,,,,,,,,,,,,,,,,,,,,,,,,,,,,,,,,,,,,,,,,,,,,,,,,,,,,,,,,,,,,,,,,,,,,,,,,,,,,,,,,,,,,,,,,,,,,,,,,,,,,
0,12,12,87,1,,60ba101202b7fd117c0f3b94,62bbfb4a07d3805082066968,2022-06-29_09h12.20.086,Colour_Asymmetry_Pilot,2022.1.3,Win32,60.18295619,62bbe60bf3d75ef465d3e404,,,,,,,,,,,,,,,,,,,,,,,,,,,,,,,,,,,,,,,,,,,,,,,,,,,,,,,,,,,,,,,,,,,,,,,,,,,,,,,,,,,,,,,,,,,,,,,,,,,,,,,,,,,,,,,,,,,,,,,,,,,,,,,,,,,,,,,,,,,,,,,,,,,,,,,,,,,,,,
0,13,13,75,1,,60ba101202b7fd117c0f3b94,62bbfb4a07d3805082066968,2022-06-29_09h12.20.086,Colour_Asymmetry_Pilot,2022.1.3,Win32,60.18295619,62bbe60bf3d75ef465d3e404,,,,,,,,,,,,,,,,,,,,,,,,,,,,,,,,,,,,,,,,,,,,,,,,,,,,,,,,,,,,,,,,,,,,,,,,,,,,,,,,,,,,,,,,,,,,,,,,,,,,,,,,,,,,,,,,,,,,,,,,,,,,,,,,,,,,,,,,,,,,,,,,,,,,,,,,,,,,,,
0,14,14,67,1,,60ba101202b7fd117c0f3b94,62bbfb4a07d3805082066968,2022-06-29_09h12.20.086,Colour_Asymmetry_Pilot,2022.1.3,Win32,60.18295619,62bbe60bf3d75ef465d3e404,,,,,,,,,,,,,,,,,,,,,,,,,,,,,,,,,,,,,,,,,,,,,,,,,,,,,,,,,,,,,,,,,,,,,,,,,,,,,,,,,,,,,,,,,,,,,,,,,,,,,,,,,,,,,,,,,,,,,,,,,,,,,,,,,,,,,,,,,,,,,,,,,,,,,,,,,,,,,,
0,15,15,4,1,,60ba101202b7fd117c0f3b94,62bbfb4a07d3805082066968,2022-06-29_09h12.20.086,Colour_Asymmetry_Pilot,2022.1.3,Win32,60.18295619,62bbe60bf3d75ef465d3e404,,,,,,,,,,,,,,,,,,,,,,,,,,,,,,,,,,,,,,,,,,,,,,,,,,,,,,,,,,,,,,,,,,,,,,,,,,,,,,,,,,,,,,,,,,,,,,,,,,,,,,,,,,,,,,,,,,,,,,,,,,,,,,,,,,,,,,,,,,,,,,,,,,,,,,,,,,,,,,
0,16,16,33,1,,60ba101202b7fd117c0f3b94,62bbfb4a07d3805082066968,2022-06-29_09h12.20.086,Colour_Asymmetry_Pilot,2022.1.3,Win32,60.18295619,62bbe60bf3d75ef465d3e404,,,,,,,,,,,,,,,,,,,,,,,,,,,,,,,,,,,,,,,,,,,,,,,,,,,,,,,,,,,,,,,,,,,,,,,,,,,,,,,,,,,,,,,,,,,,,,,,,,,,,,,,,,,,,,,,,,,,,,,,,,,,,,,,,,,,,,,,,,,,,,,,,,,,,,,,,,,,,,
0,17,17,74,1,,60ba101202b7fd117c0f3b94,62bbfb4a07d3805082066968,2022-06-29_09h12.20.086,Colour_Asymmetry_Pilot,2022.1.3,Win32,60.18295619,62bbe60bf3d75ef465d3e404,,,,,,,,,,,,,,,,,,,,,,,,,,,,,,,,,,,,,,,,,,,,,,,,,,,,,,,,,,,,,,,,,,,,,,,,,,,,,,,,,,,,,,,,,,,,,,,,,,,,,,,,,,,,,,,,,,,,,,,,,,,,,,,,,,,,,,,,,,,,,,,,,,,,,,,,,,,,,,
0,18,18,81,1,,60ba101202b7fd117c0f3b94,62bbfb4a07d3805082066968,2022-06-29_09h12.20.086,Colour_Asymmetry_Pilot,2022.1.3,Win32,60.18295619,62bbe60bf3d75ef465d3e404,,,,,,,,,,,,,,,,,,,,,,,,,,,,,,,,,,,,,,,,,,,,,,,,,,,,,,,,,,,,,,,,,,,,,,,,,,,,,,,,,,,,,,,,,,,,,,,,,,,,,,,,,,,,,,,,,,,,,,,,,,,,,,,,,,,,,,,,,,,,,,,,,,,,,,,,,,,,,,
0,19,19,58,1,,60ba101202b7fd117c0f3b94,62bbfb4a07d3805082066968,2022-06-29_09h12.20.086,Colour_Asymmetry_Pilot,2022.1.3,Win32,60.18295619,62bbe60bf3d75ef465d3e404,,,,,,,,,,,,,,,,,,,,,,,,,,,,,,,,,,,,,,,,,,,,,,,,,,,,,,,,,,,,,,,,,,,,,,,,,,,,,,,,,,,,,,,,,,,,,,,,,,,,,,,,,,,,,,,,,,,,,,,,,,,,,,,,,,,,,,,,,,,,,,,,,,,,,,,,,,,,,,
0,20,20,19,1,,60ba101202b7fd117c0f3b94,62bbfb4a07d3805082066968,2022-06-29_09h12.20.086,Colour_Asymmetry_Pilot,2022.1.3,Win32,60.18295619,62bbe60bf3d75ef465d3e404,,,,,,,,,,,,,,,,,,,,,,,,,,,,,,,,,,,,,,,,,,,,,,,,,,,,,,,,,,,,,,,,,,,,,,,,,,,,,,,,,,,,,,,,,,,,,,,,,,,,,,,,,,,,,,,,,,,,,,,,,,,,,,,,,,,,,,,,,,,,,,,,,,,,,,,,,,,,,,
0,21,21,7,1,,60ba101202b7fd117c0f3b94,62bbfb4a07d3805082066968,2022-06-29_09h12.20.086,Colour_Asymmetry_Pilot,2022.1.3,Win32,60.18295619,62bbe60bf3d75ef465d3e404,,,,,,,,,,,,,,,,,,,,,,,,,,,,,,,,,,,,,,,,,,,,,,,,,,,,,,,,,,,,,,,,,,,,,,,,,,,,,,,,,,,,,,,,,,,,,,,,,,,,,,,,,,,,,,,,,,,,,,,,,,,,,,,,,,,,,,,,,,,,,,,,,,,,,,,,,,,,,,
0,22,22,68,1,,60ba101202b7fd117c0f3b94,62bbfb4a07d3805082066968,2022-06-29_09h12.20.086,Colour_Asymmetry_Pilot,2022.1.3,Win32,60.18295619,62bbe60bf3d75ef465d3e404,,,,,,,,,,,,,,,,,,,,,,,,,,,,,,,,,,,,,,,,,,,,,,,,,,,,,,,,,,,,,,,,,,,,,,,,,,,,,,,,,,,,,,,,,,,,,,,,,,,,,,,,,,,,,,,,,,,,,,,,,,,,,,,,,,,,,,,,,,,,,,,,,,,,,,,,,,,,,,
0,23,23,10,1,,60ba101202b7fd117c0f3b94,62bbfb4a07d3805082066968,2022-06-29_09h12.20.086,Colour_Asymmetry_Pilot,2022.1.3,Win32,60.18295619,62bbe60bf3d75ef465d3e404,,,,,,,,,,,,,,,,,,,,,,,,,,,,,,,,,,,,,,,,,,,,,,,,,,,,,,,,,,,,,,,,,,,,,,,,,,,,,,,,,,,,,,,,,,,,,,,,,,,,,,,,,,,,,,,,,,,,,,,,,,,,,,,,,,,,,,,,,,,,,,,,,,,,,,,,,,,,,,
0,24,24,36,1,,60ba101202b7fd117c0f3b94,62bbfb4a07d3805082066968,2022-06-29_09h12.20.086,Colour_Asymmetry_Pilot,2022.1.3,Win32,60.18295619,62bbe60bf3d75ef465d3e404,,,,,,,,,,,,,,,,,,,,,,,,,,,,,,,,,,,,,,,,,,,,,,,,,,,,,,,,,,,,,,,,,,,,,,,,,,,,,,,,,,,,,,,,,,,,,,,,,,,,,,,,,,,,,,,,,,,,,,,,,,,,,,,,,,,,,,,,,,,,,,,,,,,,,,,,,,,,,,
0,25,25,78,1,,60ba101202b7fd117c0f3b94,62bbfb4a07d3805082066968,2022-06-29_09h12.20.086,Colour_Asymmetry_Pilot,2022.1.3,Win32,60.18295619,62bbe60bf3d75ef465d3e404,,,,,,,,,,,,,,,,,,,,,,,,,,,,,,,,,,,,,,,,,,,,,,,,,,,,,,,,,,,,,,,,,,,,,,,,,,,,,,,,,,,,,,,,,,,,,,,,,,,,,,,,,,,,,,,,,,,,,,,,,,,,,,,,,,,,,,,,,,,,,,,,,,,,,,,,,,,,,,
0,26,26,55,1,,60ba101202b7fd117c0f3b94,62bbfb4a07d3805082066968,2022-06-29_09h12.20.086,Colour_Asymmetry_Pilot,2022.1.3,Win32,60.18295619,62bbe60bf3d75ef465d3e404,,,,,,,,,,,,,,,,,,,,,,,,,,,,,,,,,,,,,,,,,,,,,,,,,,,,,,,,,,,,,,,,,,,,,,,,,,,,,,,,,,,,,,,,,,,,,,,,,,,,,,,,,,,,,,,,,,,,,,,,,,,,,,,,,,,,,,,,,,,,,,,,,,,,,,,,,,,,,,
0,27,27,20,1,,60ba101202b7fd117c0f3b94,62bbfb4a07d3805082066968,2022-06-29_09h12.20.086,Colour_Asymmetry_Pilot,2022.1.3,Win32,60.18295619,62bbe60bf3d75ef465d3e404,,,,,,,,,,,,,,,,,,,,,,,,,,,,,,,,,,,,,,,,,,,,,,,,,,,,,,,,,,,,,,,,,,,,,,,,,,,,,,,,,,,,,,,,,,,,,,,,,,,,,,,,,,,,,,,,,,,,,,,,,,,,,,,,,,,,,,,,,,,,,,,,,,,,,,,,,,,,,,
0,28,28,13,1,,60ba101202b7fd117c0f3b94,62bbfb4a07d3805082066968,2022-06-29_09h12.20.086,Colour_Asymmetry_Pilot,2022.1.3,Win32,60.18295619,62bbe60bf3d75ef465d3e404,,,,,,,,,,,,,,,,,,,,,,,,,,,,,,,,,,,,,,,,,,,,,,,,,,,,,,,,,,,,,,,,,,,,,,,,,,,,,,,,,,,,,,,,,,,,,,,,,,,,,,,,,,,,,,,,,,,,,,,,,,,,,,,,,,,,,,,,,,,,,,,,,,,,,,,,,,,,,,
0,29,29,28,1,,60ba101202b7fd117c0f3b94,62bbfb4a07d3805082066968,2022-06-29_09h12.20.086,Colour_Asymmetry_Pilot,2022.1.3,Win32,60.18295619,62bbe60bf3d75ef465d3e404,,,,,,,,,,,,,,,,,,,,,,,,,,,,,,,,,,,,,,,,,,,,,,,,,,,,,,,,,,,,,,,,,,,,,,,,,,,,,,,,,,,,,,,,,,,,,,,,,,,,,,,,,,,,,,,,,,,,,,,,,,,,,,,,,,,,,,,,,,,,,,,,,,,,,,,,,,,,,,
0,30,30,54,1,,60ba101202b7fd117c0f3b94,62bbfb4a07d3805082066968,2022-06-29_09h12.20.086,Colour_Asymmetry_Pilot,2022.1.3,Win32,60.18295619,62bbe60bf3d75ef465d3e404,,,,,,,,,,,,,,,,,,,,,,,,,,,,,,,,,,,,,,,,,,,,,,,,,,,,,,,,,,,,,,,,,,,,,,,,,,,,,,,,,,,,,,,,,,,,,,,,,,,,,,,,,,,,,,,,,,,,,,,,,,,,,,,,,,,,,,,,,,,,,,,,,,,,,,,,,,,,,,
0,31,31,3,1,,60ba101202b7fd117c0f3b94,62bbfb4a07d3805082066968,2022-06-29_09h12.20.086,Colour_Asymmetry_Pilot,2022.1.3,Win32,60.18295619,62bbe60bf3d75ef465d3e404,,,,,,,,,,,,,,,,,,,,,,,,,,,,,,,,,,,,,,,,,,,,,,,,,,,,,,,,,,,,,,,,,,,,,,,,,,,,,,,,,,,,,,,,,,,,,,,,,,,,,,,,,,,,,,,,,,,,,,,,,,,,,,,,,,,,,,,,,,,,,,,,,,,,,,,,,,,,,,
0,32,32,62,1,,60ba101202b7fd117c0f3b94,62bbfb4a07d3805082066968,2022-06-29_09h12.20.086,Colour_Asymmetry_Pilot,2022.1.3,Win32,60.18295619,62bbe60bf3d75ef465d3e404,,,,,,,,,,,,,,,,,,,,,,,,,,,,,,,,,,,,,,,,,,,,,,,,,,,,,,,,,,,,,,,,,,,,,,,,,,,,,,,,,,,,,,,,,,,,,,,,,,,,,,,,,,,,,,,,,,,,,,,,,,,,,,,,,,,,,,,,,,,,,,,,,,,,,,,,,,,,,,
0,33,33,29,1,,60ba101202b7fd117c0f3b94,62bbfb4a07d3805082066968,2022-06-29_09h12.20.086,Colour_Asymmetry_Pilot,2022.1.3,Win32,60.18295619,62bbe60bf3d75ef465d3e404,,,,,,,,,,,,,,,,,,,,,,,,,,,,,,,,,,,,,,,,,,,,,,,,,,,,,,,,,,,,,,,,,,,,,,,,,,,,,,,,,,,,,,,,,,,,,,,,,,,,,,,,,,,,,,,,,,,,,,,,,,,,,,,,,,,,,,,,,,,,,,,,,,,,,,,,,,,,,,
0,34,34,42,1,,60ba101202b7fd117c0f3b94,62bbfb4a07d3805082066968,2022-06-29_09h12.20.086,Colour_Asymmetry_Pilot,2022.1.3,Win32,60.18295619,62bbe60bf3d75ef465d3e404,,,,,,,,,,,,,,,,,,,,,,,,,,,,,,,,,,,,,,,,,,,,,,,,,,,,,,,,,,,,,,,,,,,,,,,,,,,,,,,,,,,,,,,,,,,,,,,,,,,,,,,,,,,,,,,,,,,,,,,,,,,,,,,,,,,,,,,,,,,,,,,,,,,,,,,,,,,,,,
0,35,35,47,1,,60ba101202b7fd117c0f3b94,62bbfb4a07d3805082066968,2022-06-29_09h12.20.086,Colour_Asymmetry_Pilot,2022.1.3,Win32,60.18295619,62bbe60bf3d75ef465d3e404,,,,,,,,,,,,,,,,,,,,,,,,,,,,,,,,,,,,,,,,,,,,,,,,,,,,,,,,,,,,,,,,,,,,,,,,,,,,,,,,,,,,,,,,,,,,,,,,,,,,,,,,,,,,,,,,,,,,,,,,,,,,,,,,,,,,,,,,,,,,,,,,,,,,,,,,,,,,,,
0,36,36,60,1,,60ba101202b7fd117c0f3b94,62bbfb4a07d3805082066968,2022-06-29_09h12.20.086,Colour_Asymmetry_Pilot,2022.1.3,Win32,60.18295619,62bbe60bf3d75ef465d3e404,,,,,,,,,,,,,,,,,,,,,,,,,,,,,,,,,,,,,,,,,,,,,,,,,,,,,,,,,,,,,,,,,,,,,,,,,,,,,,,,,,,,,,,,,,,,,,,,,,,,,,,,,,,,,,,,,,,,,,,,,,,,,,,,,,,,,,,,,,,,,,,,,,,,,,,,,,,,,,
0,37,37,46,1,,60ba101202b7fd117c0f3b94,62bbfb4a07d3805082066968,2022-06-29_09h12.20.086,Colour_Asymmetry_Pilot,2022.1.3,Win32,60.18295619,62bbe60bf3d75ef465d3e404,,,,,,,,,,,,,,,,,,,,,,,,,,,,,,,,,,,,,,,,,,,,,,,,,,,,,,,,,,,,,,,,,,,,,,,,,,,,,,,,,,,,,,,,,,,,,,,,,,,,,,,,,,,,,,,,,,,,,,,,,,,,,,,,,,,,,,,,,,,,,,,,,,,,,,,,,,,,,,
0,38,38,2,1,,60ba101202b7fd117c0f3b94,62bbfb4a07d3805082066968,2022-06-29_09h12.20.086,Colour_Asymmetry_Pilot,2022.1.3,Win32,60.18295619,62bbe60bf3d75ef465d3e404,,,,,,,,,,,,,,,,,,,,,,,,,,,,,,,,,,,,,,,,,,,,,,,,,,,,,,,,,,,,,,,,,,,,,,,,,,,,,,,,,,,,,,,,,,,,,,,,,,,,,,,,,,,,,,,,,,,,,,,,,,,,,,,,,,,,,,,,,,,,,,,,,,,,,,,,,,,,,,
0,39,39,83,1,,60ba101202b7fd117c0f3b94,62bbfb4a07d3805082066968,2022-06-29_09h12.20.086,Colour_Asymmetry_Pilot,2022.1.3,Win32,60.18295619,62bbe60bf3d75ef465d3e404,,,,,,,,,,,,,,,,,,,,,,,,,,,,,,,,,,,,,,,,,,,,,,,,,,,,,,,,,,,,,,,,,,,,,,,,,,,,,,,,,,,,,,,,,,,,,,,,,,,,,,,,,,,,,,,,,,,,,,,,,,,,,,,,,,,,,,,,,,,,,,,,,,,,,,,,,,,,,,
0,40,40,86,1,,60ba101202b7fd117c0f3b94,62bbfb4a07d3805082066968,2022-06-29_09h12.20.086,Colour_Asymmetry_Pilot,2022.1.3,Win32,60.18295619,62bbe60bf3d75ef465d3e404,,,,,,,,,,,,,,,,,,,,,,,,,,,,,,,,,,,,,,,,,,,,,,,,,,,,,,,,,,,,,,,,,,,,,,,,,,,,,,,,,,,,,,,,,,,,,,,,,,,,,,,,,,,,,,,,,,,,,,,,,,,,,,,,,,,,,,,,,,,,,,,,,,,,,,,,,,,,,,
0,41,41,37,1,,60ba101202b7fd117c0f3b94,62bbfb4a07d3805082066968,2022-06-29_09h12.20.086,Colour_Asymmetry_Pilot,2022.1.3,Win32,60.18295619,62bbe60bf3d75ef465d3e404,,,,,,,,,,,,,,,,,,,,,,,,,,,,,,,,,,,,,,,,,,,,,,,,,,,,,,,,,,,,,,,,,,,,,,,,,,,,,,,,,,,,,,,,,,,,,,,,,,,,,,,,,,,,,,,,,,,,,,,,,,,,,,,,,,,,,,,,,,,,,,,,,,,,,,,,,,,,,,
0,42,42,92,1,,60ba101202b7fd117c0f3b94,62bbfb4a07d3805082066968,2022-06-29_09h12.20.086,Colour_Asymmetry_Pilot,2022.1.3,Win32,60.18295619,62bbe60bf3d75ef465d3e404,,,,,,,,,,,,,,,,,,,,,,,,,,,,,,,,,,,,,,,,,,,,,,,,,,,,,,,,,,,,,,,,,,,,,,,,,,,,,,,,,,,,,,,,,,,,,,,,,,,,,,,,,,,,,,,,,,,,,,,,,,,,,,,,,,,,,,,,,,,,,,,,,,,,,,,,,,,,,,
0,43,43,69,1,,60ba101202b7fd117c0f3b94,62bbfb4a07d3805082066968,2022-06-29_09h12.20.086,Colour_Asymmetry_Pilot,2022.1.3,Win32,60.18295619,62bbe60bf3d75ef465d3e404,,,,,,,,,,,,,,,,,,,,,,,,,,,,,,,,,,,,,,,,,,,,,,,,,,,,,,,,,,,,,,,,,,,,,,,,,,,,,,,,,,,,,,,,,,,,,,,,,,,,,,,,,,,,,,,,,,,,,,,,,,,,,,,,,,,,,,,,,,,,,,,,,,,,,,,,,,,,,,
0,44,44,8,1,,60ba101202b7fd117c0f3b94,62bbfb4a07d3805082066968,2022-06-29_09h12.20.086,Colour_Asymmetry_Pilot,2022.1.3,Win32,60.18295619,62bbe60bf3d75ef465d3e404,,,,,,,,,,,,,,,,,,,,,,,,,,,,,,,,,,,,,,,,,,,,,,,,,,,,,,,,,,,,,,,,,,,,,,,,,,,,,,,,,,,,,,,,,,,,,,,,,,,,,,,,,,,,,,,,,,,,,,,,,,,,,,,,,,,,,,,,,,,,,,,,,,,,,,,,,,,,,,
0,45,45,31,1,,60ba101202b7fd117c0f3b94,62bbfb4a07d3805082066968,2022-06-29_09h12.20.086,Colour_Asymmetry_Pilot,2022.1.3,Win32,60.18295619,62bbe60bf3d75ef465d3e404,,,,,,,,,,,,,,,,,,,,,,,,,,,,,,,,,,,,,,,,,,,,,,,,,,,,,,,,,,,,,,,,,,,,,,,,,,,,,,,,,,,,,,,,,,,,,,,,,,,,,,,,,,,,,,,,,,,,,,,,,,,,,,,,,,,,,,,,,,,,,,,,,,,,,,,,,,,,,,
0,46,46,30,1,,60ba101202b7fd117c0f3b94,62bbfb4a07d3805082066968,2022-06-29_09h12.20.086,Colour_Asymmetry_Pilot,2022.1.3,Win32,60.18295619,62bbe60bf3d75ef465d3e404,,,,,,,,,,,,,,,,,,,,,,,,,,,,,,,,,,,,,,,,,,,,,,,,,,,,,,,,,,,,,,,,,,,,,,,,,,,,,,,,,,,,,,,,,,,,,,,,,,,,,,,,,,,,,,,,,,,,,,,,,,,,,,,,,,,,,,,,,,,,,,,,,,,,,,,,,,,,,,
0,47,47,11,1,,60ba101202b7fd117c0f3b94,62bbfb4a07d3805082066968,2022-06-29_09h12.20.086,Colour_Asymmetry_Pilot,2022.1.3,Win32,60.18295619,62bbe60bf3d75ef465d3e404,,,,,,,,,,,,,,,,,,,,,,,,,,,,,,,,,,,,,,,,,,,,,,,,,,,,,,,,,,,,,,,,,,,,,,,,,,,,,,,,,,,,,,,,,,,,,,,,,,,,,,,,,,,,,,,,,,,,,,,,,,,,,,,,,,,,,,,,,,,,,,,,,,,,,,,,,,,,,,
0,48,48,41,1,,60ba101202b7fd117c0f3b94,62bbfb4a07d3805082066968,2022-06-29_09h12.20.086,Colour_Asymmetry_Pilot,2022.1.3,Win32,60.18295619,62bbe60bf3d75ef465d3e404,,,,,,,,,,,,,,,,,,,,,,,,,,,,,,,,,,,,,,,,,,,,,,,,,,,,,,,,,,,,,,,,,,,,,,,,,,,,,,,,,,,,,,,,,,,,,,,,,,,,,,,,,,,,,,,,,,,,,,,,,,,,,,,,,,,,,,,,,,,,,,,,,,,,,,,,,,,,,,
0,49,49,21,1,,60ba101202b7fd117c0f3b94,62bbfb4a07d3805082066968,2022-06-29_09h12.20.086,Colour_Asymmetry_Pilot,2022.1.3,Win32,60.18295619,62bbe60bf3d75ef465d3e404,,,,,,,,,,,,,,,,,,,,,,,,,,,,,,,,,,,,,,,,,,,,,,,,,,,,,,,,,,,,,,,,,,,,,,,,,,,,,,,,,,,,,,,,,,,,,,,,,,,,,,,,,,,,,,,,,,,,,,,,,,,,,,,,,,,,,,,,,,,,,,,,,,,,,,,,,,,,,,
0,50,50,32,1,,60ba101202b7fd117c0f3b94,62bbfb4a07d3805082066968,2022-06-29_09h12.20.086,Colour_Asymmetry_Pilot,2022.1.3,Win32,60.18295619,62bbe60bf3d75ef465d3e404,,,,,,,,,,,,,,,,,,,,,,,,,,,,,,,,,,,,,,,,,,,,,,,,,,,,,,,,,,,,,,,,,,,,,,,,,,,,,,,,,,,,,,,,,,,,,,,,,,,,,,,,,,,,,,,,,,,,,,,,,,,,,,,,,,,,,,,,,,,,,,,,,,,,,,,,,,,,,,
0,51,51,1,1,,60ba101202b7fd117c0f3b94,62bbfb4a07d3805082066968,2022-06-29_09h12.20.086,Colour_Asymmetry_Pilot,2022.1.3,Win32,60.18295619,62bbe60bf3d75ef465d3e404,,,,,,,,,,,,,,,,,,,,,,,,,,,,,,,,,,,,,,,,,,,,,,,,,,,,,,,,,,,,,,,,,,,,,,,,,,,,,,,,,,,,,,,,,,,,,,,,,,,,,,,,,,,,,,,,,,,,,,,,,,,,,,,,,,,,,,,,,,,,,,,,,,,,,,,,,,,,,,
0,52,52,59,1,,60ba101202b7fd117c0f3b94,62bbfb4a07d3805082066968,2022-06-29_09h12.20.086,Colour_Asymmetry_Pilot,2022.1.3,Win32,60.18295619,62bbe60bf3d75ef465d3e404,,,,,,,,,,,,,,,,,,,,,,,,,,,,,,,,,,,,,,,,,,,,,,,,,,,,,,,,,,,,,,,,,,,,,,,,,,,,,,,,,,,,,,,,,,,,,,,,,,,,,,,,,,,,,,,,,,,,,,,,,,,,,,,,,,,,,,,,,,,,,,,,,,,,,,,,,,,,,,
0,53,53,77,1,,60ba101202b7fd117c0f3b94,62bbfb4a07d3805082066968,2022-06-29_09h12.20.086,Colour_Asymmetry_Pilot,2022.1.3,Win32,60.18295619,62bbe60bf3d75ef465d3e404,,,,,,,,,,,,,,,,,,,,,,,,,,,,,,,,,,,,,,,,,,,,,,,,,,,,,,,,,,,,,,,,,,,,,,,,,,,,,,,,,,,,,,,,,,,,,,,,,,,,,,,,,,,,,,,,,,,,,,,,,,,,,,,,,,,,,,,,,,,,,,,,,,,,,,,,,,,,,,
0,54,54,0,1,,60ba101202b7fd117c0f3b94,62bbfb4a07d3805082066968,2022-06-29_09h12.20.086,Colour_Asymmetry_Pilot,2022.1.3,Win32,60.18295619,62bbe60bf3d75ef465d3e404,,,,,,,,,,,,,,,,,,,,,,,,,,,,,,,,,,,,,,,,,,,,,,,,,,,,,,,,,,,,,,,,,,,,,,,,,,,,,,,,,,,,,,,,,,,,,,,,,,,,,,,,,,,,,,,,,,,,,,,,,,,,,,,,,,,,,,,,,,,,,,,,,,,,,,,,,,,,,,
0,55,55,18,1,,60ba101202b7fd117c0f3b94,62bbfb4a07d3805082066968,2022-06-29_09h12.20.086,Colour_Asymmetry_Pilot,2022.1.3,Win32,60.18295619,62bbe60bf3d75ef465d3e404,,,,,,,,,,,,,,,,,,,,,,,,,,,,,,,,,,,,,,,,,,,,,,,,,,,,,,,,,,,,,,,,,,,,,,,,,,,,,,,,,,,,,,,,,,,,,,,,,,,,,,,,,,,,,,,,,,,,,,,,,,,,,,,,,,,,,,,,,,,,,,,,,,,,,,,,,,,,,,
0,56,56,72,1,,60ba101202b7fd117c0f3b94,62bbfb4a07d3805082066968,2022-06-29_09h12.20.086,Colour_Asymmetry_Pilot,2022.1.3,Win32,60.18295619,62bbe60bf3d75ef465d3e404,,,,,,,,,,,,,,,,,,,,,,,,,,,,,,,,,,,,,,,,,,,,,,,,,,,,,,,,,,,,,,,,,,,,,,,,,,,,,,,,,,,,,,,,,,,,,,,,,,,,,,,,,,,,,,,,,,,,,,,,,,,,,,,,,,,,,,,,,,,,,,,,,,,,,,,,,,,,,,
0,57,57,70,1,,60ba101202b7fd117c0f3b94,62bbfb4a07d3805082066968,2022-06-29_09h12.20.086,Colour_Asymmetry_Pilot,2022.1.3,Win32,60.18295619,62bbe60bf3d75ef465d3e404,,,,,,,,,,,,,,,,,,,,,,,,,,,,,,,,,,,,,,,,,,,,,,,,,,,,,,,,,,,,,,,,,,,,,,,,,,,,,,,,,,,,,,,,,,,,,,,,,,,,,,,,,,,,,,,,,,,,,,,,,,,,,,,,,,,,,,,,,,,,,,,,,,,,,,,,,,,,,,
0,58,58,61,1,,60ba101202b7fd117c0f3b94,62bbfb4a07d3805082066968,2022-06-29_09h12.20.086,Colour_Asymmetry_Pilot,2022.1.3,Win32,60.18295619,62bbe60bf3d75ef465d3e404,,,,,,,,,,,,,,,,,,,,,,,,,,,,,,,,,,,,,,,,,,,,,,,,,,,,,,,,,,,,,,,,,,,,,,,,,,,,,,,,,,,,,,,,,,,,,,,,,,,,,,,,,,,,,,,,,,,,,,,,,,,,,,,,,,,,,,,,,,,,,,,,,,,,,,,,,,,,,,
0,59,59,35,1,,60ba101202b7fd117c0f3b94,62bbfb4a07d3805082066968,2022-06-29_09h12.20.086,Colour_Asymmetry_Pilot,2022.1.3,Win32,60.18295619,62bbe60bf3d75ef465d3e404,,,,,,,,,,,,,,,,,,,,,,,,,,,,,,,,,,,,,,,,,,,,,,,,,,,,,,,,,,,,,,,,,,,,,,,,,,,,,,,,,,,,,,,,,,,,,,,,,,,,,,,,,,,,,,,,,,,,,,,,,,,,,,,,,,,,,,,,,,,,,,,,,,,,,,,,,,,,,,
0,60,60,39,1,,60ba101202b7fd117c0f3b94,62bbfb4a07d3805082066968,2022-06-29_09h12.20.086,Colour_Asymmetry_Pilot,2022.1.3,Win32,60.18295619,62bbe60bf3d75ef465d3e404,,,,,,,,,,,,,,,,,,,,,,,,,,,,,,,,,,,,,,,,,,,,,,,,,,,,,,,,,,,,,,,,,,,,,,,,,,,,,,,,,,,,,,,,,,,,,,,,,,,,,,,,,,,,,,,,,,,,,,,,,,,,,,,,,,,,,,,,,,,,,,,,,,,,,,,,,,,,,,
0,61,61,51,1,,60ba101202b7fd117c0f3b94,62bbfb4a07d3805082066968,2022-06-29_09h12.20.086,Colour_Asymmetry_Pilot,2022.1.3,Win32,60.18295619,62bbe60bf3d75ef465d3e404,,,,,,,,,,,,,,,,,,,,,,,,,,,,,,,,,,,,,,,,,,,,,,,,,,,,,,,,,,,,,,,,,,,,,,,,,,,,,,,,,,,,,,,,,,,,,,,,,,,,,,,,,,,,,,,,,,,,,,,,,,,,,,,,,,,,,,,,,,,,,,,,,,,,,,,,,,,,,,
0,62,62,14,1,,60ba101202b7fd117c0f3b94,62bbfb4a07d3805082066968,2022-06-29_09h12.20.086,Colour_Asymmetry_Pilot,2022.1.3,Win32,60.18295619,62bbe60bf3d75ef465d3e404,,,,,,,,,,,,,,,,,,,,,,,,,,,,,,,,,,,,,,,,,,,,,,,,,,,,,,,,,,,,,,,,,,,,,,,,,,,,,,,,,,,,,,,,,,,,,,,,,,,,,,,,,,,,,,,,,,,,,,,,,,,,,,,,,,,,,,,,,,,,,,,,,,,,,,,,,,,,,,
0,63,63,23,1,,60ba101202b7fd117c0f3b94,62bbfb4a07d3805082066968,2022-06-29_09h12.20.086,Colour_Asymmetry_Pilot,2022.1.3,Win32,60.18295619,62bbe60bf3d75ef465d3e404,,,,,,,,,,,,,,,,,,,,,,,,,,,,,,,,,,,,,,,,,,,,,,,,,,,,,,,,,,,,,,,,,,,,,,,,,,,,,,,,,,,,,,,,,,,,,,,,,,,,,,,,,,,,,,,,,,,,,,,,,,,,,,,,,,,,,,,,,,,,,,,,,,,,,,,,,,,,,,
0,64,64,26,1,,60ba101202b7fd117c0f3b94,62bbfb4a07d3805082066968,2022-06-29_09h12.20.086,Colour_Asymmetry_Pilot,2022.1.3,Win32,60.18295619,62bbe60bf3d75ef465d3e404,,,,,,,,,,,,,,,,,,,,,,,,,,,,,,,,,,,,,,,,,,,,,,,,,,,,,,,,,,,,,,,,,,,,,,,,,,,,,,,,,,,,,,,,,,,,,,,,,,,,,,,,,,,,,,,,,,,,,,,,,,,,,,,,,,,,,,,,,,,,,,,,,,,,,,,,,,,,,,
0,65,65,71,1,,60ba101202b7fd117c0f3b94,62bbfb4a07d3805082066968,2022-06-29_09h12.20.086,Colour_Asymmetry_Pilot,2022.1.3,Win32,60.18295619,62bbe60bf3d75ef465d3e404,,,,,,,,,,,,,,,,,,,,,,,,,,,,,,,,,,,,,,,,,,,,,,,,,,,,,,,,,,,,,,,,,,,,,,,,,,,,,,,,,,,,,,,,,,,,,,,,,,,,,,,,,,,,,,,,,,,,,,,,,,,,,,,,,,,,,,,,,,,,,,,,,,,,,,,,,,,,,,
0,66,66,84,1,,60ba101202b7fd117c0f3b94,62bbfb4a07d3805082066968,2022-06-29_09h12.20.086,Colour_Asymmetry_Pilot,2022.1.3,Win32,60.18295619,62bbe60bf3d75ef465d3e404,,,,,,,,,,,,,,,,,,,,,,,,,,,,,,,,,,,,,,,,,,,,,,,,,,,,,,,,,,,,,,,,,,,,,,,,,,,,,,,,,,,,,,,,,,,,,,,,,,,,,,,,,,,,,,,,,,,,,,,,,,,,,,,,,,,,,,,,,,,,,,,,,,,,,,,,,,,,,,
0,67,67,63,1,,60ba101202b7fd117c0f3b94,62bbfb4a07d3805082066968,2022-06-29_09h12.20.086,Colour_Asymmetry_Pilot,2022.1.3,Win32,60.18295619,62bbe60bf3d75ef465d3e404,,,,,,,,,,,,,,,,,,,,,,,,,,,,,,,,,,,,,,,,,,,,,,,,,,,,,,,,,,,,,,,,,,,,,,,,,,,,,,,,,,,,,,,,,,,,,,,,,,,,,,,,,,,,,,,,,,,,,,,,,,,,,,,,,,,,,,,,,,,,,,,,,,,,,,,,,,,,,,
0,68,68,79,1,,60ba101202b7fd117c0f3b94,62bbfb4a07d3805082066968,2022-06-29_09h12.20.086,Colour_Asymmetry_Pilot,2022.1.3,Win32,60.18295619,62bbe60bf3d75ef465d3e404,,,,,,,,,,,,,,,,,,,,,,,,,,,,,,,,,,,,,,,,,,,,,,,,,,,,,,,,,,,,,,,,,,,,,,,,,,,,,,,,,,,,,,,,,,,,,,,,,,,,,,,,,,,,,,,,,,,,,,,,,,,,,,,,,,,,,,,,,,,,,,,,,,,,,,,,,,,,,,
0,69,69,22,1,,60ba101202b7fd117c0f3b94,62bbfb4a07d3805082066968,2022-06-29_09h12.20.086,Colour_Asymmetry_Pilot,2022.1.3,Win32,60.18295619,62bbe60bf3d75ef465d3e404,,,,,,,,,,,,,,,,,,,,,,,,,,,,,,,,,,,,,,,,,,,,,,,,,,,,,,,,,,,,,,,,,,,,,,,,,,,,,,,,,,,,,,,,,,,,,,,,,,,,,,,,,,,,,,,,,,,,,,,,,,,,,,,,,,,,,,,,,,,,,,,,,,,,,,,,,,,,,,
0,70,70,76,1,,60ba101202b7fd117c0f3b94,62bbfb4a07d3805082066968,2022-06-29_09h12.20.086,Colour_Asymmetry_Pilot,2022.1.3,Win32,60.18295619,62bbe60bf3d75ef465d3e404,,,,,,,,,,,,,,,,,,,,,,,,,,,,,,,,,,,,,,,,,,,,,,,,,,,,,,,,,,,,,,,,,,,,,,,,,,,,,,,,,,,,,,,,,,,,,,,,,,,,,,,,,,,,,,,,,,,,,,,,,,,,,,,,,,,,,,,,,,,,,,,,,,,,,,,,,,,,,,
0,71,71,15,1,,60ba101202b7fd117c0f3b94,62bbfb4a07d3805082066968,2022-06-29_09h12.20.086,Colour_Asymmetry_Pilot,2022.1.3,Win32,60.18295619,62bbe60bf3d75ef465d3e404,,,,,,,,,,,,,,,,,,,,,,,,,,,,,,,,,,,,,,,,,,,,,,,,,,,,,,,,,,,,,,,,,,,,,,,,,,,,,,,,,,,,,,,,,,,,,,,,,,,,,,,,,,,,,,,,,,,,,,,,,,,,,,,,,,,,,,,,,,,,,,,,,,,,,,,,,,,,,,
0,72,72,6,1,,60ba101202b7fd117c0f3b94,62bbfb4a07d3805082066968,2022-06-29_09h12.20.086,Colour_Asymmetry_Pilot,2022.1.3,Win32,60.18295619,62bbe60bf3d75ef465d3e404,,,,,,,,,,,,,,,,,,,,,,,,,,,,,,,,,,,,,,,,,,,,,,,,,,,,,,,,,,,,,,,,,,,,,,,,,,,,,,,,,,,,,,,,,,,,,,,,,,,,,,,,,,,,,,,,,,,,,,,,,,,,,,,,,,,,,,,,,,,,,,,,,,,,,,,,,,,,,,
0,73,73,53,1,,60ba101202b7fd117c0f3b94,62bbfb4a07d3805082066968,2022-06-29_09h12.20.086,Colour_Asymmetry_Pilot,2022.1.3,Win32,60.18295619,62bbe60bf3d75ef465d3e404,,,,,,,,,,,,,,,,,,,,,,,,,,,,,,,,,,,,,,,,,,,,,,,,,,,,,,,,,,,,,,,,,,,,,,,,,,,,,,,,,,,,,,,,,,,,,,,,,,,,,,,,,,,,,,,,,,,,,,,,,,,,,,,,,,,,,,,,,,,,,,,,,,,,,,,,,,,,,,
0,74,74,65,1,,60ba101202b7fd117c0f3b94,62bbfb4a07d3805082066968,2022-06-29_09h12.20.086,Colour_Asymmetry_Pilot,2022.1.3,Win32,60.18295619,62bbe60bf3d75ef465d3e404,,,,,,,,,,,,,,,,,,,,,,,,,,,,,,,,,,,,,,,,,,,,,,,,,,,,,,,,,,,,,,,,,,,,,,,,,,,,,,,,,,,,,,,,,,,,,,,,,,,,,,,,,,,,,,,,,,,,,,,,,,,,,,,,,,,,,,,,,,,,,,,,,,,,,,,,,,,,,,
0,75,75,73,1,,60ba101202b7fd117c0f3b94,62bbfb4a07d3805082066968,2022-06-29_09h12.20.086,Colour_Asymmetry_Pilot,2022.1.3,Win32,60.18295619,62bbe60bf3d75ef465d3e404,,,,,,,,,,,,,,,,,,,,,,,,,,,,,,,,,,,,,,,,,,,,,,,,,,,,,,,,,,,,,,,,,,,,,,,,,,,,,,,,,,,,,,,,,,,,,,,,,,,,,,,,,,,,,,,,,,,,,,,,,,,,,,,,,,,,,,,,,,,,,,,,,,,,,,,,,,,,,,
0,76,76,88,1,,60ba101202b7fd117c0f3b94,62bbfb4a07d3805082066968,2022-06-29_09h12.20.086,Colour_Asymmetry_Pilot,2022.1.3,Win32,60.18295619,62bbe60bf3d75ef465d3e404,,,,,,,,,,,,,,,,,,,,,,,,,,,,,,,,,,,,,,,,,,,,,,,,,,,,,,,,,,,,,,,,,,,,,,,,,,,,,,,,,,,,,,,,,,,,,,,,,,,,,,,,,,,,,,,,,,,,,,,,,,,,,,,,,,,,,,,,,,,,,,,,,,,,,,,,,,,,,,
0,77,77,56,1,,60ba101202b7fd117c0f3b94,62bbfb4a07d3805082066968,2022-06-29_09h12.20.086,Colour_Asymmetry_Pilot,2022.1.3,Win32,60.18295619,62bbe60bf3d75ef465d3e404,,,,,,,,,,,,,,,,,,,,,,,,,,,,,,,,,,,,,,,,,,,,,,,,,,,,,,,,,,,,,,,,,,,,,,,,,,,,,,,,,,,,,,,,,,,,,,,,,,,,,,,,,,,,,,,,,,,,,,,,,,,,,,,,,,,,,,,,,,,,,,,,,,,,,,,,,,,,,,
0,78,78,38,1,,60ba101202b7fd117c0f3b94,62bbfb4a07d3805082066968,2022-06-29_09h12.20.086,Colour_Asymmetry_Pilot,2022.1.3,Win32,60.18295619,62bbe60bf3d75ef465d3e404,,,,,,,,,,,,,,,,,,,,,,,,,,,,,,,,,,,,,,,,,,,,,,,,,,,,,,,,,,,,,,,,,,,,,,,,,,,,,,,,,,,,,,,,,,,,,,,,,,,,,,,,,,,,,,,,,,,,,,,,,,,,,,,,,,,,,,,,,,,,,,,,,,,,,,,,,,,,,,
0,79,79,34,1,,60ba101202b7fd117c0f3b94,62bbfb4a07d3805082066968,2022-06-29_09h12.20.086,Colour_Asymmetry_Pilot,2022.1.3,Win32,60.18295619,62bbe60bf3d75ef465d3e404,,,,,,,,,,,,,,,,,,,,,,,,,,,,,,,,,,,,,,,,,,,,,,,,,,,,,,,,,,,,,,,,,,,,,,,,,,,,,,,,,,,,,,,,,,,,,,,,,,,,,,,,,,,,,,,,,,,,,,,,,,,,,,,,,,,,,,,,,,,,,,,,,,,,,,,,,,,,,,
0,80,80,48,1,,60ba101202b7fd117c0f3b94,62bbfb4a07d3805082066968,2022-06-29_09h12.20.086,Colour_Asymmetry_Pilot,2022.1.3,Win32,60.18295619,62bbe60bf3d75ef465d3e404,,,,,,,,,,,,,,,,,,,,,,,,,,,,,,,,,,,,,,,,,,,,,,,,,,,,,,,,,,,,,,,,,,,,,,,,,,,,,,,,,,,,,,,,,,,,,,,,,,,,,,,,,,,,,,,,,,,,,,,,,,,,,,,,,,,,,,,,,,,,,,,,,,,,,,,,,,,,,,
0,81,81,24,1,,60ba101202b7fd117c0f3b94,62bbfb4a07d3805082066968,2022-06-29_09h12.20.086,Colour_Asymmetry_Pilot,2022.1.3,Win32,60.18295619,62bbe60bf3d75ef465d3e404,,,,,,,,,,,,,,,,,,,,,,,,,,,,,,,,,,,,,,,,,,,,,,,,,,,,,,,,,,,,,,,,,,,,,,,,,,,,,,,,,,,,,,,,,,,,,,,,,,,,,,,,,,,,,,,,,,,,,,,,,,,,,,,,,,,,,,,,,,,,,,,,,,,,,,,,,,,,,,
0,82,82,50,1,,60ba101202b7fd117c0f3b94,62bbfb4a07d3805082066968,2022-06-29_09h12.20.086,Colour_Asymmetry_Pilot,2022.1.3,Win32,60.18295619,62bbe60bf3d75ef465d3e404,,,,,,,,,,,,,,,,,,,,,,,,,,,,,,,,,,,,,,,,,,,,,,,,,,,,,,,,,,,,,,,,,,,,,,,,,,,,,,,,,,,,,,,,,,,,,,,,,,,,,,,,,,,,,,,,,,,,,,,,,,,,,,,,,,,,,,,,,,,,,,,,,,,,,,,,,,,,,,
0,83,83,90,1,,60ba101202b7fd117c0f3b94,62bbfb4a07d3805082066968,2022-06-29_09h12.20.086,Colour_Asymmetry_Pilot,2022.1.3,Win32,60.18295619,62bbe60bf3d75ef465d3e404,,,,,,,,,,,,,,,,,,,,,,,,,,,,,,,,,,,,,,,,,,,,,,,,,,,,,,,,,,,,,,,,,,,,,,,,,,,,,,,,,,,,,,,,,,,,,,,,,,,,,,,,,,,,,,,,,,,,,,,,,,,,,,,,,,,,,,,,,,,,,,,,,,,,,,,,,,,,,,
0,84,84,9,1,,60ba101202b7fd117c0f3b94,62bbfb4a07d3805082066968,2022-06-29_09h12.20.086,Colour_Asymmetry_Pilot,2022.1.3,Win32,60.18295619,62bbe60bf3d75ef465d3e404,,,,,,,,,,,,,,,,,,,,,,,,,,,,,,,,,,,,,,,,,,,,,,,,,,,,,,,,,,,,,,,,,,,,,,,,,,,,,,,,,,,,,,,,,,,,,,,,,,,,,,,,,,,,,,,,,,,,,,,,,,,,,,,,,,,,,,,,,,,,,,,,,,,,,,,,,,,,,,
0,85,85,82,1,,60ba101202b7fd117c0f3b94,62bbfb4a07d3805082066968,2022-06-29_09h12.20.086,Colour_Asymmetry_Pilot,2022.1.3,Win32,60.18295619,62bbe60bf3d75ef465d3e404,,,,,,,,,,,,,,,,,,,,,,,,,,,,,,,,,,,,,,,,,,,,,,,,,,,,,,,,,,,,,,,,,,,,,,,,,,,,,,,,,,,,,,,,,,,,,,,,,,,,,,,,,,,,,,,,,,,,,,,,,,,,,,,,,,,,,,,,,,,,,,,,,,,,,,,,,,,,,,
0,86,86,43,1,,60ba101202b7fd117c0f3b94,62bbfb4a07d3805082066968,2022-06-29_09h12.20.086,Colour_Asymmetry_Pilot,2022.1.3,Win32,60.18295619,62bbe60bf3d75ef465d3e404,,,,,,,,,,,,,,,,,,,,,,,,,,,,,,,,,,,,,,,,,,,,,,,,,,,,,,,,,,,,,,,,,,,,,,,,,,,,,,,,,,,,,,,,,,,,,,,,,,,,,,,,,,,,,,,,,,,,,,,,,,,,,,,,,,,,,,,,,,,,,,,,,,,,,,,,,,,,,,
0,87,87,25,1,,60ba101202b7fd117c0f3b94,62bbfb4a07d3805082066968,2022-06-29_09h12.20.086,Colour_Asymmetry_Pilot,2022.1.3,Win32,60.18295619,62bbe60bf3d75ef465d3e404,,,,,,,,,,,,,,,,,,,,,,,,,,,,,,,,,,,,,,,,,,,,,,,,,,,,,,,,,,,,,,,,,,,,,,,,,,,,,,,,,,,,,,,,,,,,,,,,,,,,,,,,,,,,,,,,,,,,,,,,,,,,,,,,,,,,,,,,,,,,,,,,,,,,,,,,,,,,,,
0,88,88,45,1,,60ba101202b7fd117c0f3b94,62bbfb4a07d3805082066968,2022-06-29_09h12.20.086,Colour_Asymmetry_Pilot,2022.1.3,Win32,60.18295619,62bbe60bf3d75ef465d3e404,,,,,,,,,,,,,,,,,,,,,,,,,,,,,,,,,,,,,,,,,,,,,,,,,,,,,,,,,,,,,,,,,,,,,,,,,,,,,,,,,,,,,,,,,,,,,,,,,,,,,,,,,,,,,,,,,,,,,,,,,,,,,,,,,,,,,,,,,,,,,,,,,,,,,,,,,,,,,,
0,89,89,80,1,,60ba101202b7fd117c0f3b94,62bbfb4a07d3805082066968,2022-06-29_09h12.20.086,Colour_Asymmetry_Pilot,2022.1.3,Win32,60.18295619,62bbe60bf3d75ef465d3e404,,,,,,,,,,,,,,,,,,,,,,,,,,,,,,,,,,,,,,,,,,,,,,,,,,,,,,,,,,,,,,,,,,,,,,,,,,,,,,,,,,,,,,,,,,,,,,,,,,,,,,,,,,,,,,,,,,,,,,,,,,,,,,,,,,,,,,,,,,,,,,,,,,,,,,,,,,,,,,
0,90,90,16,1,,60ba101202b7fd117c0f3b94,62bbfb4a07d3805082066968,2022-06-29_09h12.20.086,Colour_Asymmetry_Pilot,2022.1.3,Win32,60.18295619,62bbe60bf3d75ef465d3e404,,,,,,,,,,,,,,,,,,,,,,,,,,,,,,,,,,,,,,,,,,,,,,,,,,,,,,,,,,,,,,,,,,,,,,,,,,,,,,,,,,,,,,,,,,,,,,,,,,,,,,,,,,,,,,,,,,,,,,,,,,,,,,,,,,,,,,,,,,,,,,,,,,,,,,,,,,,,,,
0,91,91,49,1,,60ba101202b7fd117c0f3b94,62bbfb4a07d3805082066968,2022-06-29_09h12.20.086,Colour_Asymmetry_Pilot,2022.1.3,Win32,60.18295619,62bbe60bf3d75ef465d3e404,,,,,,,,,,,,,,,,,,,,,,,,,,,,,,,,,,,,,,,,,,,,,,,,,,,,,,,,,,,,,,,,,,,,,,,,,,,,,,,,,,,,,,,,,,,,,,,,,,,,,,,,,,,,,,,,,,,,,,,,,,,,,,,,,,,,,,,,,,,,,,,,,,,,,,,,,,,,,,
0,92,92,44,1,,60ba101202b7fd117c0f3b94,62bbfb4a07d3805082066968,2022-06-29_09h12.20.086,Colour_Asymmetry_Pilot,2022.1.3,Win32,60.18295619,62bbe60bf3d75ef465d3e404,,,,,,,,,,,,,,,,,,,,,,,,,,,,,,,,,,,,,,,,,,,,,,,,,,,,,,,,,,,,,,,,,,,,,,,,,,,,,,,,,,,,,,,,,,,,,,,,,,,,,,,,,,,,,,,,,,,,,,,,,,,,,,,,,,,,,,,,,,,,,,,,,,,,,,,,,,,,,,
,,,,,,60ba101202b7fd117c0f3b94,62bbfb4a07d3805082066968,2022-06-29_09h12.20.086,Colour_Asymmetry_Pilot,2022.1.3,Win32,60.18295619,62bbe60bf3d75ef465d3e404,0,0,0,135,1,fourthree,,,,,,,,,,,,,,,,,,,,,,,,,,,,,,,,,,,,,,,,,,,,,,,,,,,,,,,,,,,,,,,,,,,,,,,,,,,,,,,,,,,,,,,,,,,,,,,,,,,,,,,,,,,,,,,,,,,,,,,,,,,,,,,,,,,,,,,,,,,,,,,,,,,,,,,,
,,,,,,60ba101202b7fd117c0f3b94,62bbfb4a07d3805082066968,2022-06-29_09h12.20.086,Colour_Asymmetry_Pilot,2022.1.3,Win32,60.18295619,62bbe60bf3d75ef465d3e404,0,1,1,49,1,onethree,,,,,,,,,,,,,,,,,,,,,,,,,,,,,,,,,,,,,,,,,,,,,,,,,,,,,,,,,,,,,,,,,,,,,,,,,,,,,,,,,,,,,,,,,,,,,,,,,,,,,,,,,,,,,,,,,,,,,,,,,,,,,,,,,,,,,,,,,,,,,,,,,,,,,,,,
,,,,,,60ba101202b7fd117c0f3b94,62bbfb4a07d3805082066968,2022-06-29_09h12.20.086,Colour_Asymmetry_Pilot,2022.1.3,Win32,60.18295619,62bbe60bf3d75ef465d3e404,0,2,2,36,1,threeone,,,,,,,,,,,,,,,,,,,,,,,,,,,,,,,,,,,,,,,,,,,,,,,,,,,,,,,,,,,,,,,,,,,,,,,,,,,,,,,,,,,,,,,,,,,,,,,,,,,,,,,,,,,,,,,,,,,,,,,,,,,,,,,,,,,,,,,,,,,,,,,,,,,,,,,,
,,,,,,60ba101202b7fd117c0f3b94,62bbfb4a07d3805082066968,2022-06-29_09h12.20.086,Colour_Asymmetry_Pilot,2022.1.3,Win32,60.18295619,62bbe60bf3d75ef465d3e404,0,3,3,50,1,twoone,,,,,,,,,,,,,,,,,,,,,,,,,,,,,,,,,,,,,,,,,,,,,,,,,,,,,,,,,,,,,,,,,,,,,,,,,,,,,,,,,,,,,,,,,,,,,,,,,,,,,,,,,,,,,,,,,,,,,,,,,,,,,,,,,,,,,,,,,,,,,,,,,,,,,,,,
,,,,,,60ba101202b7fd117c0f3b94,62bbfb4a07d3805082066968,2022-06-29_09h12.20.086,Colour_Asymmetry_Pilot,2022.1.3,Win32,60.18295619,62bbe60bf3d75ef465d3e404,0,4,4,66,1,twoone,,,,,,,,,,,,,,,,,,,,,,,,,,,,,,,,,,,,,,,,,,,,,,,,,,,,,,,,,,,,,,,,,,,,,,,,,,,,,,,,,,,,,,,,,,,,,,,,,,,,,,,,,,,,,,,,,,,,,,,,,,,,,,,,,,,,,,,,,,,,,,,,,,,,,,,,
,,,,,,60ba101202b7fd117c0f3b94,62bbfb4a07d3805082066968,2022-06-29_09h12.20.086,Colour_Asymmetry_Pilot,2022.1.3,Win32,60.18295619,62bbe60bf3d75ef465d3e404,0,5,5,87,1,fourthree,,,,,,,,,,,,,,,,,,,,,,,,,,,,,,,,,,,,,,,,,,,,,,,,,,,,,,,,,,,,,,,,,,,,,,,,,,,,,,,,,,,,,,,,,,,,,,,,,,,,,,,,,,,,,,,,,,,,,,,,,,,,,,,,,,,,,,,,,,,,,,,,,,,,,,,,
,,,,,,60ba101202b7fd117c0f3b94,62bbfb4a07d3805082066968,2022-06-29_09h12.20.086,Colour_Asymmetry_Pilot,2022.1.3,Win32,60.18295619,62bbe60bf3d75ef465d3e404,0,6,6,78,1,fourtwo,,,,,,,,,,,,,,,,,,,,,,,,,,,,,,,,,,,,,,,,,,,,,,,,,,,,,,,,,,,,,,,,,,,,,,,,,,,,,,,,,,,,,,,,,,,,,,,,,,,,,,,,,,,,,,,,,,,,,,,,,,,,,,,,,,,,,,,,,,,,,,,,,,,,,,,,
,,,,,,60ba101202b7fd117c0f3b94,62bbfb4a07d3805082066968,2022-06-29_09h12.20.086,Colour_Asymmetry_Pilot,2022.1.3,Win32,60.18295619,62bbe60bf3d75ef465d3e404,0,7,7,116,1,threeone,,,,,,,,,,,,,,,,,,,,,,,,,,,,,,,,,,,,,,,,,,,,,,,,,,,,,,,,,,,,,,,,,,,,,,,,,,,,,,,,,,,,,,,,,,,,,,,,,,,,,,,,,,,,,,,,,,,,,,,,,,,,,,,,,,,,,,,,,,,,,,,,,,,,,,,,
,,,,,,60ba101202b7fd117c0f3b94,62bbfb4a07d3805082066968,2022-06-29_09h12.20.086,Colour_Asymmetry_Pilot,2022.1.3,Win32,60.18295619,62bbe60bf3d75ef465d3e404,0,8,8,40,1,onetwo,,,,,,,,,,,,,,,,,,,,,,,,,,,,,,,,,,,,,,,,,,,,,,,,,,,,,,,,,,,,,,,,,,,,,,,,,,,,,,,,,,,,,,,,,,,,,,,,,,,,,,,,,,,,,,,,,,,,,,,,,,,,,,,,,,,,,,,,,,,,,,,,,,,,,,,,
,,,,,,60ba101202b7fd117c0f3b94,62bbfb4a07d3805082066968,2022-06-29_09h12.20.086,Colour_Asymmetry_Pilot,2022.1.3,Win32,60.18295619,62bbe60bf3d75ef465d3e404,0,9,9,43,1,twofour,,,,,,,,,,,,,,,,,,,,,,,,,,,,,,,,,,,,,,,,,,,,,,,,,,,,,,,,,,,,,,,,,,,,,,,,,,,,,,,,,,,,,,,,,,,,,,,,,,,,,,,,,,,,,,,,,,,,,,,,,,,,,,,,,,,,,,,,,,,,,,,,,,,,,,,,
,,,,,,60ba101202b7fd117c0f3b94,62bbfb4a07d3805082066968,2022-06-29_09h12.20.086,Colour_Asymmetry_Pilot,2022.1.3,Win32,60.18295619,62bbe60bf3d75ef465d3e404,0,10,10,138,1,twoone,,,,,,,,,,,,,,,,,,,,,,,,,,,,,,,,,,,,,,,,,,,,,,,,,,,,,,,,,,,,,,,,,,,,,,,,,,,,,,,,,,,,,,,,,,,,,,,,,,,,,,,,,,,,,,,,,,,,,,,,,,,,,,,,,,,,,,,,,,,,,,,,,,,,,,,,
,,,,,,60ba101202b7fd117c0f3b94,62bbfb4a07d3805082066968,2022-06-29_09h12.20.086,Colour_Asymmetry_Pilot,2022.1.3,Win32,60.18295619,62bbe60bf3d75ef465d3e404,0,11,11,139,1,twofour,,,,,,,,,,,,,,,,,,,,,,,,,,,,,,,,,,,,,,,,,,,,,,,,,,,,,,,,,,,,,,,,,,,,,,,,,,,,,,,,,,,,,,,,,,,,,,,,,,,,,,,,,,,,,,,,,,,,,,,,,,,,,,,,,,,,,,,,,,,,,,,,,,,,,,,,
,,,,,,60ba101202b7fd117c0f3b94,62bbfb4a07d3805082066968,2022-06-29_09h12.20.086,Colour_Asymmetry_Pilot,2022.1.3,Win32,60.18295619,62bbe60bf3d75ef465d3e404,0,12,12,90,1,twoone,,,,,,,,,,,,,,,,,,,,,,,,,,,,,,,,,,,,,,,,,,,,,,,,,,,,,,,,,,,,,,,,,,,,,,,,,,,,,,,,,,,,,,,,,,,,,,,,,,,,,,,,,,,,,,,,,,,,,,,,,,,,,,,,,,,,,,,,,,,,,,,,,,,,,,,,
,,,,,,60ba101202b7fd117c0f3b94,62bbfb4a07d3805082066968,2022-06-29_09h12.20.086,Colour_Asymmetry_Pilot,2022.1.3,Win32,60.18295619,62bbe60bf3d75ef465d3e404,0,13,13,61,1,threefour,,,,,,,,,,,,,,,,,,,,,,,,,,,,,,,,,,,,,,,,,,,,,,,,,,,,,,,,,,,,,,,,,,,,,,,,,,,,,,,,,,,,,,,,,,,,,,,,,,,,,,,,,,,,,,,,,,,,,,,,,,,,,,,,,,,,,,,,,,,,,,,,,,,,,,,,
,,,,,,60ba101202b7fd117c0f3b94,62bbfb4a07d3805082066968,2022-06-29_09h12.20.086,Colour_Asymmetry_Pilot,2022.1.3,Win32,60.18295619,62bbe60bf3d75ef465d3e404,0,14,14,120,1,onetwo,,,,,,,,,,,,,,,,,,,,,,,,,,,,,,,,,,,,,,,,,,,,,,,,,,,,,,,,,,,,,,,,,,,,,,,,,,,,,,,,,,,,,,,,,,,,,,,,,,,,,,,,,,,,,,,,,,,,,,,,,,,,,,,,,,,,,,,,,,,,,,,,,,,,,,,,
,,,,,,60ba101202b7fd117c0f3b94,62bbfb4a07d3805082066968,2022-06-29_09h12.20.086,Colour_Asymmetry_Pilot,2022.1.3,Win32,60.18295619,62bbe60bf3d75ef465d3e404,0,15,15,38,1,fourtwo,,,,,,,,,,,,,,,,,,,,,,,,,,,,,,,,,,,,,,,,,,,,,,,,,,,,,,,,,,,,,,,,,,,,,,,,,,,,,,,,,,,,,,,,,,,,,,,,,,,,,,,,,,,,,,,,,,,,,,,,,,,,,,,,,,,,,,,,,,,,,,,,,,,,,,,,
,,,,,,60ba101202b7fd117c0f3b94,62bbfb4a07d3805082066968,2022-06-29_09h12.20.086,Colour_Asymmetry_Pilot,2022.1.3,Win32,60.18295619,62bbe60bf3d75ef465d3e404,0,16,16,26,1,twoone,,,,,,,,,,,,,,,,,,,,,,,,,,,,,,,,,,,,,,,,,,,,,,,,,,,,,,,,,,,,,,,,,,,,,,,,,,,,,,,,,,,,,,,,,,,,,,,,,,,,,,,,,,,,,,,,,,,,,,,,,,,,,,,,,,,,,,,,,,,,,,,,,,,,,,,,
,,,,,,60ba101202b7fd117c0f3b94,62bbfb4a07d3805082066968,2022-06-29_09h12.20.086,Colour_Asymmetry_Pilot,2022.1.3,Win32,60.18295619,62bbe60bf3d75ef465d3e404,0,17,17,65,1,onethree,,,,,,,,,,,,,,,,,,,,,,,,,,,,,,,,,,,,,,,,,,,,,,,,,,,,,,,,,,,,,,,,,,,,,,,,,,,,,,,,,,,,,,,,,,,,,,,,,,,,,,,,,,,,,,,,,,,,,,,,,,,,,,,,,,,,,,,,,,,,,,,,,,,,,,,,
,,,,,,60ba101202b7fd117c0f3b94,62bbfb4a07d3805082066968,2022-06-29_09h12.20.086,Colour_Asymmetry_Pilot,2022.1.3,Win32,60.18295619,62bbe60bf3d75ef465d3e404,0,18,18,69,1,threefour,,,,,,,,,,,,,,,,,,,,,,,,,,,,,,,,,,,,,,,,,,,,,,,,,,,,,,,,,,,,,,,,,,,,,,,,,,,,,,,,,,,,,,,,,,,,,,,,,,,,,,,,,,,,,,,,,,,,,,,,,,,,,,,,,,,,,,,,,,,,,,,,,,,,,,,,
,,,,,,60ba101202b7fd117c0f3b94,62bbfb4a07d3805082066968,2022-06-29_09h12.20.086,Colour_Asymmetry_Pilot,2022.1.3,Win32,60.18295619,62bbe60bf3d75ef465d3e404,0,19,19,99,1,twofour,,,,,,,,,,,,,,,,,,,,,,,,,,,,,,,,,,,,,,,,,,,,,,,,,,,,,,,,,,,,,,,,,,,,,,,,,,,,,,,,,,,,,,,,,,,,,,,,,,,,,,,,,,,,,,,,,,,,,,,,,,,,,,,,,,,,,,,,,,,,,,,,,,,,,,,,
,,,,,,60ba101202b7fd117c0f3b94,62bbfb4a07d3805082066968,2022-06-29_09h12.20.086,Colour_Asymmetry_Pilot,2022.1.3,Win32,60.18295619,62bbe60bf3d75ef465d3e404,0,20,20,14,1,fourtwo,,,,,,,,,,,,,,,,,,,,,,,,,,,,,,,,,,,,,,,,,,,,,,,,,,,,,,,,,,,,,,,,,,,,,,,,,,,,,,,,,,,,,,,,,,,,,,,,,,,,,,,,,,,,,,,,,,,,,,,,,,,,,,,,,,,,,,,,,,,,,,,,,,,,,,,,
,,,,,,60ba101202b7fd117c0f3b94,62bbfb4a07d3805082066968,2022-06-29_09h12.20.086,Colour_Asymmetry_Pilot,2022.1.3,Win32,60.18295619,62bbe60bf3d75ef465d3e404,0,21,21,141,1,threefour,,,,,,,,,,,,,,,,,,,,,,,,,,,,,,,,,,,,,,,,,,,,,,,,,,,,,,,,,,,,,,,,,,,,,,,,,,,,,,,,,,,,,,,,,,,,,,,,,,,,,,,,,,,,,,,,,,,,,,,,,,,,,,,,,,,,,,,,,,,,,,,,,,,,,,,,
,,,,,,60ba101202b7fd117c0f3b94,62bbfb4a07d3805082066968,2022-06-29_09h12.20.086,Colour_Asymmetry_Pilot,2022.1.3,Win32,60.18295619,62bbe60bf3d75ef465d3e404,0,22,22,96,1,onetwo,,,,,,,,,,,,,,,,,,,,,,,,,,,,,,,,,,,,,,,,,,,,,,,,,,,,,,,,,,,,,,,,,,,,,,,,,,,,,,,,,,,,,,,,,,,,,,,,,,,,,,,,,,,,,,,,,,,,,,,,,,,,,,,,,,,,,,,,,,,,,,,,,,,,,,,,
,,,,,,60ba101202b7fd117c0f3b94,62bbfb4a07d3805082066968,2022-06-29_09h12.20.086,Colour_Asymmetry_Pilot,2022.1.3,Win32,60.18295619,62bbe60bf3d75ef465d3e404,0,23,23,57,1,onethree,,,,,,,,,,,,,,,,,,,,,,,,,,,,,,,,,,,,,,,,,,,,,,,,,,,,,,,,,,,,,,,,,,,,,,,,,,,,,,,,,,,,,,,,,,,,,,,,,,,,,,,,,,,,,,,,,,,,,,,,,,,,,,,,,,,,,,,,,,,,,,,,,,,,,,,,
,,,,,,60ba101202b7fd117c0f3b94,62bbfb4a07d3805082066968,2022-06-29_09h12.20.086,Colour_Asymmetry_Pilot,2022.1.3,Win32,60.18295619,62bbe60bf3d75ef465d3e404,0,24,24,17,1,onethree,,,,,,,,,,,,,,,,,,,,,,,,,,,,,,,,,,,,,,,,,,,,,,,,,,,,,,,,,,,,,,,,,,,,,,,,,,,,,,,,,,,,,,,,,,,,,,,,,,,,,,,,,,,,,,,,,,,,,,,,,,,,,,,,,,,,,,,,,,,,,,,,,,,,,,,,
,,,,,,60ba101202b7fd117c0f3b94,62bbfb4a07d3805082066968,2022-06-29_09h12.20.086,Colour_Asymmetry_Pilot,2022.1.3,Win32,60.18295619,62bbe60bf3d75ef465d3e404,0,25,25,28,1,threeone,,,,,,,,,,,,,,,,,,,,,,,,,,,,,,,,,,,,,,,,,,,,,,,,,,,,,,,,,,,,,,,,,,,,,,,,,,,,,,,,,,,,,,,,,,,,,,,,,,,,,,,,,,,,,,,,,,,,,,,,,,,,,,,,,,,,,,,,,,,,,,,,,,,,,,,,
,,,,,,60ba101202b7fd117c0f3b94,62bbfb4a07d3805082066968,2022-06-29_09h12.20.086,Colour_Asymmetry_Pilot,2022.1.3,Win32,60.18295619,62bbe60bf3d75ef465d3e404,0,26,26,13,1,threefour,,,,,,,,,,,,,,,,,,,,,,,,,,,,,,,,,,,,,,,,,,,,,,,,,,,,,,,,,,,,,,,,,,,,,,,,,,,,,,,,,,,,,,,,,,,,,,,,,,,,,,,,,,,,,,,,,,,,,,,,,,,,,,,,,,,,,,,,,,,,,,,,,,,,,,,,
,,,,,,60ba101202b7fd117c0f3b94,62bbfb4a07d3805082066968,2022-06-29_09h12.20.086,Colour_Asymmetry_Pilot,2022.1.3,Win32,60.18295619,62bbe60bf3d75ef465d3e404,0,27,27,37,1,threefour,,,,,,,,,,,,,,,,,,,,,,,,,,,,,,,,,,,,,,,,,,,,,,,,,,,,,,,,,,,,,,,,,,,,,,,,,,,,,,,,,,,,,,,,,,,,,,,,,,,,,,,,,,,,,,,,,,,,,,,,,,,,,,,,,,,,,,,,,,,,,,,,,,,,,,,,
,,,,,,60ba101202b7fd117c0f3b94,62bbfb4a07d3805082066968,2022-06-29_09h12.20.086,Colour_Asymmetry_Pilot,2022.1.3,Win32,60.18295619,62bbe60bf3d75ef465d3e404,0,28,28,86,1,fourtwo,,,,,,,,,,,,,,,,,,,,,,,,,,,,,,,,,,,,,,,,,,,,,,,,,,,,,,,,,,,,,,,,,,,,,,,,,,,,,,,,,,,,,,,,,,,,,,,,,,,,,,,,,,,,,,,,,,,,,,,,,,,,,,,,,,,,,,,,,,,,,,,,,,,,,,,,
,,,,,,60ba101202b7fd117c0f3b94,62bbfb4a07d3805082066968,2022-06-29_09h12.20.086,Colour_Asymmetry_Pilot,2022.1.3,Win32,60.18295619,62bbe60bf3d75ef465d3e404,0,29,29,60,1,threeone,,,,,,,,,,,,,,,,,,,,,,,,,,,,,,,,,,,,,,,,,,,,,,,,,,,,,,,,,,,,,,,,,,,,,,,,,,,,,,,,,,,,,,,,,,,,,,,,,,,,,,,,,,,,,,,,,,,,,,,,,,,,,,,,,,,,,,,,,,,,,,,,,,,,,,,,
,,,,,,60ba101202b7fd117c0f3b94,62bbfb4a07d3805082066968,2022-06-29_09h12.20.086,Colour_Asymmetry_Pilot,2022.1.3,Win32,60.18295619,62bbe60bf3d75ef465d3e404,0,30,30,15,1,fourthree,,,,,,,,,,,,,,,,,,,,,,,,,,,,,,,,,,,,,,,,,,,,,,,,,,,,,,,,,,,,,,,,,,,,,,,,,,,,,,,,,,,,,,,,,,,,,,,,,,,,,,,,,,,,,,,,,,,,,,,,,,,,,,,,,,,,,,,,,,,,,,,,,,,,,,,,
,,,,,,60ba101202b7fd117c0f3b94,62bbfb4a07d3805082066968,2022-06-29_09h12.20.086,Colour_Asymmetry_Pilot,2022.1.3,Win32,60.18295619,62bbe60bf3d75ef465d3e404,0,31,31,159,1,fourthree,,,,,,,,,,,,,,,,,,,,,,,,,,,,,,,,,,,,,,,,,,,,,,,,,,,,,,,,,,,,,,,,,,,,,,,,,,,,,,,,,,,,,,,,,,,,,,,,,,,,,,,,,,,,,,,,,,,,,,,,,,,,,,,,,,,,,,,,,,,,,,,,,,,,,,,,
,,,,,,60ba101202b7fd117c0f3b94,62bbfb4a07d3805082066968,2022-06-29_09h12.20.086,Colour_Asymmetry_Pilot,2022.1.3,Win32,60.18295619,62bbe60bf3d75ef465d3e404,0,32,32,122,1,twoone,,,,,,,,,,,,,,,,,,,,,,,,,,,,,,,,,,,,,,,,,,,,,,,,,,,,,,,,,,,,,,,,,,,,,,,,,,,,,,,,,,,,,,,,,,,,,,,,,,,,,,,,,,,,,,,,,,,,,,,,,,,,,,,,,,,,,,,,,,,,,,,,,,,,,,,,
,,,,,,60ba101202b7fd117c0f3b94,62bbfb4a07d3805082066968,2022-06-29_09h12.20.086,Colour_Asymmetry_Pilot,2022.1.3,Win32,60.18295619,62bbe60bf3d75ef465d3e404,0,33,33,80,1,onetwo,,,,,,,,,,,,,,,,,,,,,,,,,,,,,,,,,,,,,,,,,,,,,,,,,,,,,,,,,,,,,,,,,,,,,,,,,,,,,,,,,,,,,,,,,,,,,,,,,,,,,,,,,,,,,,,,,,,,,,,,,,,,,,,,,,,,,,,,,,,,,,,,,,,,,,,,
,,,,,,60ba101202b7fd117c0f3b94,62bbfb4a07d3805082066968,2022-06-29_09h12.20.086,Colour_Asymmetry_Pilot,2022.1.3,Win32,60.18295619,62bbe60bf3d75ef465d3e404,0,34,34,47,1,fourthree,,,,,,,,,,,,,,,,,,,,,,,,,,,,,,,,,,,,,,,,,,,,,,,,,,,,,,,,,,,,,,,,,,,,,,,,,,,,,,,,,,,,,,,,,,,,,,,,,,,,,,,,,,,,,,,,,,,,,,,,,,,,,,,,,,,,,,,,,,,,,,,,,,,,,,,,
,,,,,,60ba101202b7fd117c0f3b94,62bbfb4a07d3805082066968,2022-06-29_09h12.20.086,Colour_Asymmetry_Pilot,2022.1.3,Win32,60.18295619,62bbe60bf3d75ef465d3e404,0,35,35,1,1,onethree,,,,,,,,,,,,,,,,,,,,,,,,,,,,,,,,,,,,,,,,,,,,,,,,,,,,,,,,,,,,,,,,,,,,,,,,,,,,,,,,,,,,,,,,,,,,,,,,,,,,,,,,,,,,,,,,,,,,,,,,,,,,,,,,,,,,,,,,,,,,,,,,,,,,,,,,
,,,,,,60ba101202b7fd117c0f3b94,62bbfb4a07d3805082066968,2022-06-29_09h12.20.086,Colour_Asymmetry_Pilot,2022.1.3,Win32,60.18295619,62bbe60bf3d75ef465d3e404,0,36,36,19,1,twofour,,,,,,,,,,,,,,,,,,,,,,,,,,,,,,,,,,,,,,,,,,,,,,,,,,,,,,,,,,,,,,,,,,,,,,,,,,,,,,,,,,,,,,,,,,,,,,,,,,,,,,,,,,,,,,,,,,,,,,,,,,,,,,,,,,,,,,,,,,,,,,,,,,,,,,,,
,,,,,,60ba101202b7fd117c0f3b94,62bbfb4a07d3805082066968,2022-06-29_09h12.20.086,Colour_Asymmetry_Pilot,2022.1.3,Win32,60.18295619,62bbe60bf3d75ef465d3e404,0,37,37,150,1,fourtwo,,,,,,,,,,,,,,,,,,,,,,,,,,,,,,,,,,,,,,,,,,,,,,,,,,,,,,,,,,,,,,,,,,,,,,,,,,,,,,,,,,,,,,,,,,,,,,,,,,,,,,,,,,,,,,,,,,,,,,,,,,,,,,,,,,,,,,,,,,,,,,,,,,,,,,,,
,,,,,,60ba101202b7fd117c0f3b94,62bbfb4a07d3805082066968,2022-06-29_09h12.20.086,Colour_Asymmetry_Pilot,2022.1.3,Win32,60.18295619,62bbe60bf3d75ef465d3e404,0,38,38,92,1,threeone,,,,,,,,,,,,,,,,,,,,,,,,,,,,,,,,,,,,,,,,,,,,,,,,,,,,,,,,,,,,,,,,,,,,,,,,,,,,,,,,,,,,,,,,,,,,,,,,,,,,,,,,,,,,,,,,,,,,,,,,,,,,,,,,,,,,,,,,,,,,,,,,,,,,,,,,
,,,,,,60ba101202b7fd117c0f3b94,62bbfb4a07d3805082066968,2022-06-29_09h12.20.086,Colour_Asymmetry_Pilot,2022.1.3,Win32,60.18295619,62bbe60bf3d75ef465d3e404,0,39,39,24,1,onetwo,,,,,,,,,,,,,,,,,,,,,,,,,,,,,,,,,,,,,,,,,,,,,,,,,,,,,,,,,,,,,,,,,,,,,,,,,,,,,,,,,,,,,,,,,,,,,,,,,,,,,,,,,,,,,,,,,,,,,,,,,,,,,,,,,,,,,,,,,,,,,,,,,,,,,,,,
,,,,,,60ba101202b7fd117c0f3b94,62bbfb4a07d3805082066968,2022-06-29_09h12.20.086,Colour_Asymmetry_Pilot,2022.1.3,Win32,60.18295619,62bbe60bf3d75ef465d3e404,0,40,40,132,1,threeone,,,,,,,,,,,,,,,,,,,,,,,,,,,,,,,,,,,,,,,,,,,,,,,,,,,,,,,,,,,,,,,,,,,,,,,,,,,,,,,,,,,,,,,,,,,,,,,,,,,,,,,,,,,,,,,,,,,,,,,,,,,,,,,,,,,,,,,,,,,,,,,,,,,,,,,,
,,,,,,60ba101202b7fd117c0f3b94,62bbfb4a07d3805082066968,2022-06-29_09h12.20.086,Colour_Asymmetry_Pilot,2022.1.3,Win32,60.18295619,62bbe60bf3d75ef465d3e404,0,41,41,88,1,onetwo,,,,,,,,,,,,,,,,,,,,,,,,,,,,,,,,,,,,,,,,,,,,,,,,,,,,,,,,,,,,,,,,,,,,,,,,,,,,,,,,,,,,,,,,,,,,,,,,,,,,,,,,,,,,,,,,,,,,,,,,,,,,,,,,,,,,,,,,,,,,,,,,,,,,,,,,
,,,,,,60ba101202b7fd117c0f3b94,62bbfb4a07d3805082066968,2022-06-29_09h12.20.086,Colour_Asymmetry_Pilot,2022.1.3,Win32,60.18295619,62bbe60bf3d75ef465d3e404,0,42,42,134,1,fourtwo,,,,,,,,,,,,,,,,,,,,,,,,,,,,,,,,,,,,,,,,,,,,,,,,,,,,,,,,,,,,,,,,,,,,,,,,,,,,,,,,,,,,,,,,,,,,,,,,,,,,,,,,,,,,,,,,,,,,,,,,,,,,,,,,,,,,,,,,,,,,,,,,,,,,,,,,
,,,,,,60ba101202b7fd117c0f3b94,62bbfb4a07d3805082066968,2022-06-29_09h12.20.086,Colour_Asymmetry_Pilot,2022.1.3,Win32,60.18295619,62bbe60bf3d75ef465d3e404,0,43,43,59,1,twofour,,,,,,,,,,,,,,,,,,,,,,,,,,,,,,,,,,,,,,,,,,,,,,,,,,,,,,,,,,,,,,,,,,,,,,,,,,,,,,,,,,,,,,,,,,,,,,,,,,,,,,,,,,,,,,,,,,,,,,,,,,,,,,,,,,,,,,,,,,,,,,,,,,,,,,,,
,,,,,,60ba101202b7fd117c0f3b94,62bbfb4a07d3805082066968,2022-06-29_09h12.20.086,Colour_Asymmetry_Pilot,2022.1.3,Win32,60.18295619,62bbe60bf3d75ef465d3e404,0,44,44,56,1,onetwo,,,,,,,,,,,,,,,,,,,,,,,,,,,,,,,,,,,,,,,,,,,,,,,,,,,,,,,,,,,,,,,,,,,,,,,,,,,,,,,,,,,,,,,,,,,,,,,,,,,,,,,,,,,,,,,,,,,,,,,,,,,,,,,,,,,,,,,,,,,,,,,,,,,,,,,,
,,,,,,60ba101202b7fd117c0f3b94,62bbfb4a07d3805082066968,2022-06-29_09h12.20.086,Colour_Asymmetry_Pilot,2022.1.3,Win32,60.18295619,62bbe60bf3d75ef465d3e404,0,45,45,128,1,onetwo,,,,,,,,,,,,,,,,,,,,,,,,,,,,,,,,,,,,,,,,,,,,,,,,,,,,,,,,,,,,,,,,,,,,,,,,,,,,,,,,,,,,,,,,,,,,,,,,,,,,,,,,,,,,,,,,,,,,,,,,,,,,,,,,,,,,,,,,,,,,,,,,,,,,,,,,
,,,,,,60ba101202b7fd117c0f3b94,62bbfb4a07d3805082066968,2022-06-29_09h12.20.086,Colour_Asymmetry_Pilot,2022.1.3,Win32,60.18295619,62bbe60bf3d75ef465d3e404,0,46,46,91,1,twofour,,,,,,,,,,,,,,,,,,,,,,,,,,,,,,,,,,,,,,,,,,,,,,,,,,,,,,,,,,,,,,,,,,,,,,,,,,,,,,,,,,,,,,,,,,,,,,,,,,,,,,,,,,,,,,,,,,,,,,,,,,,,,,,,,,,,,,,,,,,,,,,,,,,,,,,,
,,,,,,60ba101202b7fd117c0f3b94,62bbfb4a07d3805082066968,2022-06-29_09h12.20.086,Colour_Asymmetry_Pilot,2022.1.3,Win32,60.18295619,62bbe60bf3d75ef465d3e404,0,47,47,157,1,threefour,,,,,,,,,,,,,,,,,,,,,,,,,,,,,,,,,,,,,,,,,,,,,,,,,,,,,,,,,,,,,,,,,,,,,,,,,,,,,,,,,,,,,,,,,,,,,,,,,,,,,,,,,,,,,,,,,,,,,,,,,,,,,,,,,,,,,,,,,,,,,,,,,,,,,,,,
,,,,,,60ba101202b7fd117c0f3b94,62bbfb4a07d3805082066968,2022-06-29_09h12.20.086,Colour_Asymmetry_Pilot,2022.1.3,Win32,60.18295619,62bbe60bf3d75ef465d3e404,0,48,48,42,1,twoone,,,,,,,,,,,,,,,,,,,,,,,,,,,,,,,,,,,,,,,,,,,,,,,,,,,,,,,,,,,,,,,,,,,,,,,,,,,,,,,,,,,,,,,,,,,,,,,,,,,,,,,,,,,,,,,,,,,,,,,,,,,,,,,,,,,,,,,,,,,,,,,,,,,,,,,,
,,,,,,60ba101202b7fd117c0f3b94,62bbfb4a07d3805082066968,2022-06-29_09h12.20.086,Colour_Asymmetry_Pilot,2022.1.3,Win32,60.18295619,62bbe60bf3d75ef465d3e404,0,49,49,102,1,fourtwo,,,,,,,,,,,,,,,,,,,,,,,,,,,,,,,,,,,,,,,,,,,,,,,,,,,,,,,,,,,,,,,,,,,,,,,,,,,,,,,,,,,,,,,,,,,,,,,,,,,,,,,,,,,,,,,,,,,,,,,,,,,,,,,,,,,,,,,,,,,,,,,,,,,,,,,,
,,,,,,60ba101202b7fd117c0f3b94,62bbfb4a07d3805082066968,2022-06-29_09h12.20.086,Colour_Asymmetry_Pilot,2022.1.3,Win32,60.18295619,62bbe60bf3d75ef465d3e404,0,50,50,119,1,fourthree,,,,,,,,,,,,,,,,,,,,,,,,,,,,,,,,,,,,,,,,,,,,,,,,,,,,,,,,,,,,,,,,,,,,,,,,,,,,,,,,,,,,,,,,,,,,,,,,,,,,,,,,,,,,,,,,,,,,,,,,,,,,,,,,,,,,,,,,,,,,,,,,,,,,,,,,
,,,,,,60ba101202b7fd117c0f3b94,62bbfb4a07d3805082066968,2022-06-29_09h12.20.086,Colour_Asymmetry_Pilot,2022.1.3,Win32,60.18295619,62bbe60bf3d75ef465d3e404,0,51,51,118,1,fourtwo,,,,,,,,,,,,,,,,,,,,,,,,,,,,,,,,,,,,,,,,,,,,,,,,,,,,,,,,,,,,,,,,,,,,,,,,,,,,,,,,,,,,,,,,,,,,,,,,,,,,,,,,,,,,,,,,,,,,,,,,,,,,,,,,,,,,,,,,,,,,,,,,,,,,,,,,
,,,,,,60ba101202b7fd117c0f3b94,62bbfb4a07d3805082066968,2022-06-29_09h12.20.086,Colour_Asymmetry_Pilot,2022.1.3,Win32,60.18295619,62bbe60bf3d75ef465d3e404,0,52,52,126,1,fourtwo,,,,,,,,,,,,,,,,,,,,,,,,,,,,,,,,,,,,,,,,,,,,,,,,,,,,,,,,,,,,,,,,,,,,,,,,,,,,,,,,,,,,,,,,,,,,,,,,,,,,,,,,,,,,,,,,,,,,,,,,,,,,,,,,,,,,,,,,,,,,,,,,,,,,,,,,
,,,,,,60ba101202b7fd117c0f3b94,62bbfb4a07d3805082066968,2022-06-29_09h12.20.086,Colour_Asymmetry_Pilot,2022.1.3,Win32,60.18295619,62bbe60bf3d75ef465d3e404,0,53,53,33,1,onethree,,,,,,,,,,,,,,,,,,,,,,,,,,,,,,,,,,,,,,,,,,,,,,,,,,,,,,,,,,,,,,,,,,,,,,,,,,,,,,,,,,,,,,,,,,,,,,,,,,,,,,,,,,,,,,,,,,,,,,,,,,,,,,,,,,,,,,,,,,,,,,,,,,,,,,,,
,,,,,,60ba101202b7fd117c0f3b94,62bbfb4a07d3805082066968,2022-06-29_09h12.20.086,Colour_Asymmetry_Pilot,2022.1.3,Win32,60.18295619,62bbe60bf3d75ef465d3e404,0,54,54,31,1,fourthree,,,,,,,,,,,,,,,,,,,,,,,,,,,,,,,,,,,,,,,,,,,,,,,,,,,,,,,,,,,,,,,,,,,,,,,,,,,,,,,,,,,,,,,,,,,,,,,,,,,,,,,,,,,,,,,,,,,,,,,,,,,,,,,,,,,,,,,,,,,,,,,,,,,,,,,,
,,,,,,60ba101202b7fd117c0f3b94,62bbfb4a07d3805082066968,2022-06-29_09h12.20.086,Colour_Asymmetry_Pilot,2022.1.3,Win32,60.18295619,62bbe60bf3d75ef465d3e404,0,55,55,11,1,twofour,,,,,,,,,,,,,,,,,,,,,,,,,,,,,,,,,,,,,,,,,,,,,,,,,,,,,,,,,,,,,,,,,,,,,,,,,,,,,,,,,,,,,,,,,,,,,,,,,,,,,,,,,,,,,,,,,,,,,,,,,,,,,,,,,,,,,,,,,,,,,,,,,,,,,,,,
,,,,,,60ba101202b7fd117c0f3b94,62bbfb4a07d3805082066968,2022-06-29_09h12.20.086,Colour_Asymmetry_Pilot,2022.1.3,Win32,60.18295619,62bbe60bf3d75ef465d3e404,0,56,56,74,1,twoone,,,,,,,,,,,,,,,,,,,,,,,,,,,,,,,,,,,,,,,,,,,,,,,,,,,,,,,,,,,,,,,,,,,,,,,,,,,,,,,,,,,,,,,,,,,,,,,,,,,,,,,,,,,,,,,,,,,,,,,,,,,,,,,,,,,,,,,,,,,,,,,,,,,,,,,,
,,,,,,60ba101202b7fd117c0f3b94,62bbfb4a07d3805082066968,2022-06-29_09h12.20.086,Colour_Asymmetry_Pilot,2022.1.3,Win32,60.18295619,62bbe60bf3d75ef465d3e404,0,57,57,93,1,threefour,,,,,,,,,,,,,,,,,,,,,,,,,,,,,,,,,,,,,,,,,,,,,,,,,,,,,,,,,,,,,,,,,,,,,,,,,,,,,,,,,,,,,,,,,,,,,,,,,,,,,,,,,,,,,,,,,,,,,,,,,,,,,,,,,,,,,,,,,,,,,,,,,,,,,,,,
,,,,,,60ba101202b7fd117c0f3b94,62bbfb4a07d3805082066968,2022-06-29_09h12.20.086,Colour_Asymmetry_Pilot,2022.1.3,Win32,60.18295619,62bbe60bf3d75ef465d3e404,0,58,58,20,1,threeone,,,,,,,,,,,,,,,,,,,,,,,,,,,,,,,,,,,,,,,,,,,,,,,,,,,,,,,,,,,,,,,,,,,,,,,,,,,,,,,,,,,,,,,,,,,,,,,,,,,,,,,,,,,,,,,,,,,,,,,,,,,,,,,,,,,,,,,,,,,,,,,,,,,,,,,,
,,,,,,60ba101202b7fd117c0f3b94,62bbfb4a07d3805082066968,2022-06-29_09h12.20.086,Colour_Asymmetry_Pilot,2022.1.3,Win32,60.18295619,62bbe60bf3d75ef465d3e404,0,59,59,145,1,onethree,,,,,,,,,,,,,,,,,,,,,,,,,,,,,,,,,,,,,,,,,,,,,,,,,,,,,,,,,,,,,,,,,,,,,,,,,,,,,,,,,,,,,,,,,,,,,,,,,,,,,,,,,,,,,,,,,,,,,,,,,,,,,,,,,,,,,,,,,,,,,,,,,,,,,,,,
,,,,,,60ba101202b7fd117c0f3b94,62bbfb4a07d3805082066968,2022-06-29_09h12.20.086,Colour_Asymmetry_Pilot,2022.1.3,Win32,60.18295619,62bbe60bf3d75ef465d3e404,0,60,60,71,1,fourthree,,,,,,,,,,,,,,,,,,,,,,,,,,,,,,,,,,,,,,,,,,,,,,,,,,,,,,,,,,,,,,,,,,,,,,,,,,,,,,,,,,,,,,,,,,,,,,,,,,,,,,,,,,,,,,,,,,,,,,,,,,,,,,,,,,,,,,,,,,,,,,,,,,,,,,,,
,,,,,,60ba101202b7fd117c0f3b94,62bbfb4a07d3805082066968,2022-06-29_09h12.20.086,Colour_Asymmetry_Pilot,2022.1.3,Win32,60.18295619,62bbe60bf3d75ef465d3e404,0,61,61,137,1,onethree,,,,,,,,,,,,,,,,,,,,,,,,,,,,,,,,,,,,,,,,,,,,,,,,,,,,,,,,,,,,,,,,,,,,,,,,,,,,,,,,,,,,,,,,,,,,,,,,,,,,,,,,,,,,,,,,,,,,,,,,,,,,,,,,,,,,,,,,,,,,,,,,,,,,,,,,
,,,,,,60ba101202b7fd117c0f3b94,62bbfb4a07d3805082066968,2022-06-29_09h12.20.086,Colour_Asymmetry_Pilot,2022.1.3,Win32,60.18295619,62bbe60bf3d75ef465d3e404,0,62,62,72,1,onetwo,,,,,,,,,,,,,,,,,,,,,,,,,,,,,,,,,,,,,,,,,,,,,,,,,,,,,,,,,,,,,,,,,,,,,,,,,,,,,,,,,,,,,,,,,,,,,,,,,,,,,,,,,,,,,,,,,,,,,,,,,,,,,,,,,,,,,,,,,,,,,,,,,,,,,,,,
,,,,,,60ba101202b7fd117c0f3b94,62bbfb4a07d3805082066968,2022-06-29_09h12.20.086,Colour_Asymmetry_Pilot,2022.1.3,Win32,60.18295619,62bbe60bf3d75ef465d3e404,0,63,63,81,1,onethree,,,,,,,,,,,,,,,,,,,,,,,,,,,,,,,,,,,,,,,,,,,,,,,,,,,,,,,,,,,,,,,,,,,,,,,,,,,,,,,,,,,,,,,,,,,,,,,,,,,,,,,,,,,,,,,,,,,,,,,,,,,,,,,,,,,,,,,,,,,,,,,,,,,,,,,,
,,,,,,60ba101202b7fd117c0f3b94,62bbfb4a07d3805082066968,2022-06-29_09h12.20.086,Colour_Asymmetry_Pilot,2022.1.3,Win32,60.18295619,62bbe60bf3d75ef465d3e404,0,64,64,158,1,fourtwo,,,,,,,,,,,,,,,,,,,,,,,,,,,,,,,,,,,,,,,,,,,,,,,,,,,,,,,,,,,,,,,,,,,,,,,,,,,,,,,,,,,,,,,,,,,,,,,,,,,,,,,,,,,,,,,,,,,,,,,,,,,,,,,,,,,,,,,,,,,,,,,,,,,,,,,,
,,,,,,60ba101202b7fd117c0f3b94,62bbfb4a07d3805082066968,2022-06-29_09h12.20.086,Colour_Asymmetry_Pilot,2022.1.3,Win32,60.18295619,62bbe60bf3d75ef465d3e404,0,65,65,160,1,onetwo,,,,,,,,,,,,,,,,,,,,,,,,,,,,,,,,,,,,,,,,,,,,,,,,,,,,,,,,,,,,,,,,,,,,,,,,,,,,,,,,,,,,,,,,,,,,,,,,,,,,,,,,,,,,,,,,,,,,,,,,,,,,,,,,,,,,,,,,,,,,,,,,,,,,,,,,
,,,,,,60ba101202b7fd117c0f3b94,62bbfb4a07d3805082066968,2022-06-29_09h12.20.086,Colour_Asymmetry_Pilot,2022.1.3,Win32,60.18295619,62bbe60bf3d75ef465d3e404,0,66,66,48,1,onetwo,,,,,,,,,,,,,,,,,,,,,,,,,,,,,,,,,,,,,,,,,,,,,,,,,,,,,,,,,,,,,,,,,,,,,,,,,,,,,,,,,,,,,,,,,,,,,,,,,,,,,,,,,,,,,,,,,,,,,,,,,,,,,,,,,,,,,,,,,,,,,,,,,,,,,,,,
,,,,,,60ba101202b7fd117c0f3b94,62bbfb4a07d3805082066968,2022-06-29_09h12.20.086,Colour_Asymmetry_Pilot,2022.1.3,Win32,60.18295619,62bbe60bf3d75ef465d3e404,0,67,67,34,1,twoone,,,,,,,,,,,,,,,,,,,,,,,,,,,,,,,,,,,,,,,,,,,,,,,,,,,,,,,,,,,,,,,,,,,,,,,,,,,,,,,,,,,,,,,,,,,,,,,,,,,,,,,,,,,,,,,,,,,,,,,,,,,,,,,,,,,,,,,,,,,,,,,,,,,,,,,,
,,,,,,60ba101202b7fd117c0f3b94,62bbfb4a07d3805082066968,2022-06-29_09h12.20.086,Colour_Asymmetry_Pilot,2022.1.3,Win32,60.18295619,62bbe60bf3d75ef465d3e404,0,68,68,25,1,onethree,,,,,,,,,,,,,,,,,,,,,,,,,,,,,,,,,,,,,,,,,,,,,,,,,,,,,,,,,,,,,,,,,,,,,,,,,,,,,,,,,,,,,,,,,,,,,,,,,,,,,,,,,,,,,,,,,,,,,,,,,,,,,,,,,,,,,,,,,,,,,,,,,,,,,,,,
,,,,,,60ba101202b7fd117c0f3b94,62bbfb4a07d3805082066968,2022-06-29_09h12.20.086,Colour_Asymmetry_Pilot,2022.1.3,Win32,60.18295619,62bbe60bf3d75ef465d3e404,0,69,69,7,1,fourthree,,,,,,,,,,,,,,,,,,,,,,,,,,,,,,,,,,,,,,,,,,,,,,,,,,,,,,,,,,,,,,,,,,,,,,,,,,,,,,,,,,,,,,,,,,,,,,,,,,,,,,,,,,,,,,,,,,,,,,,,,,,,,,,,,,,,,,,,,,,,,,,,,,,,,,,,
,,,,,,60ba101202b7fd117c0f3b94,62bbfb4a07d3805082066968,2022-06-29_09h12.20.086,Colour_Asymmetry_Pilot,2022.1.3,Win32,60.18295619,62bbe60bf3d75ef465d3e404,0,70,70,108,1,threeone,,,,,,,,,,,,,,,,,,,,,,,,,,,,,,,,,,,,,,,,,,,,,,,,,,,,,,,,,,,,,,,,,,,,,,,,,,,,,,,,,,,,,,,,,,,,,,,,,,,,,,,,,,,,,,,,,,,,,,,,,,,,,,,,,,,,,,,,,,,,,,,,,,,,,,,,
,,,,,,60ba101202b7fd117c0f3b94,62bbfb4a07d3805082066968,2022-06-29_09h12.20.086,Colour_Asymmetry_Pilot,2022.1.3,Win32,60.18295619,62bbe60bf3d75ef465d3e404,0,71,71,0,1,onetwo,,,,,,,,,,,,,,,,,,,,,,,,,,,,,,,,,,,,,,,,,,,,,,,,,,,,,,,,,,,,,,,,,,,,,,,,,,,,,,,,,,,,,,,,,,,,,,,,,,,,,,,,,,,,,,,,,,,,,,,,,,,,,,,,,,,,,,,,,,,,,,,,,,,,,,,,
,,,,,,60ba101202b7fd117c0f3b94,62bbfb4a07d3805082066968,2022-06-29_09h12.20.086,Colour_Asymmetry_Pilot,2022.1.3,Win32,60.18295619,62bbe60bf3d75ef465d3e404,0,72,72,129,1,onethree,,,,,,,,,,,,,,,,,,,,,,,,,,,,,,,,,,,,,,,,,,,,,,,,,,,,,,,,,,,,,,,,,,,,,,,,,,,,,,,,,,,,,,,,,,,,,,,,,,,,,,,,,,,,,,,,,,,,,,,,,,,,,,,,,,,,,,,,,,,,,,,,,,,,,,,,
,,,,,,60ba101202b7fd117c0f3b94,62bbfb4a07d3805082066968,2022-06-29_09h12.20.086,Colour_Asymmetry_Pilot,2022.1.3,Win32,60.18295619,62bbe60bf3d75ef465d3e404,0,73,73,30,1,fourtwo,,,,,,,,,,,,,,,,,,,,,,,,,,,,,,,,,,,,,,,,,,,,,,,,,,,,,,,,,,,,,,,,,,,,,,,,,,,,,,,,,,,,,,,,,,,,,,,,,,,,,,,,,,,,,,,,,,,,,,,,,,,,,,,,,,,,,,,,,,,,,,,,,,,,,,,,
,,,,,,60ba101202b7fd117c0f3b94,62bbfb4a07d3805082066968,2022-06-29_09h12.20.086,Colour_Asymmetry_Pilot,2022.1.3,Win32,60.18295619,62bbe60bf3d75ef465d3e404,0,74,74,136,1,onetwo,,,,,,,,,,,,,,,,,,,,,,,,,,,,,,,,,,,,,,,,,,,,,,,,,,,,,,,,,,,,,,,,,,,,,,,,,,,,,,,,,,,,,,,,,,,,,,,,,,,,,,,,,,,,,,,,,,,,,,,,,,,,,,,,,,,,,,,,,,,,,,,,,,,,,,,,
,,,,,,60ba101202b7fd117c0f3b94,62bbfb4a07d3805082066968,2022-06-29_09h12.20.086,Colour_Asymmetry_Pilot,2022.1.3,Win32,60.18295619,62bbe60bf3d75ef465d3e404,0,75,75,130,1,twoone,,,,,,,,,,,,,,,,,,,,,,,,,,,,,,,,,,,,,,,,,,,,,,,,,,,,,,,,,,,,,,,,,,,,,,,,,,,,,,,,,,,,,,,,,,,,,,,,,,,,,,,,,,,,,,,,,,,,,,,,,,,,,,,,,,,,,,,,,,,,,,,,,,,,,,,,
,,,,,,60ba101202b7fd117c0f3b94,62bbfb4a07d3805082066968,2022-06-29_09h12.20.086,Colour_Asymmetry_Pilot,2022.1.3,Win32,60.18295619,62bbe60bf3d75ef465d3e404,0,76,76,64,1,onetwo,,,,,,,,,,,,,,,,,,,,,,,,,,,,,,,,,,,,,,,,,,,,,,,,,,,,,,,,,,,,,,,,,,,,,,,,,,,,,,,,,,,,,,,,,,,,,,,,,,,,,,,,,,,,,,,,,,,,,,,,,,,,,,,,,,,,,,,,,,,,,,,,,,,,,,,,
,,,,,,60ba101202b7fd117c0f3b94,62bbfb4a07d3805082066968,2022-06-29_09h12.20.086,Colour_Asymmetry_Pilot,2022.1.3,Win32,60.18295619,62bbe60bf3d75ef465d3e404,0,77,77,70,1,fourtwo,,,,,,,,,,,,,,,,,,,,,,,,,,,,,,,,,,,,,,,,,,,,,,,,,,,,,,,,,,,,,,,,,,,,,,,,,,,,,,,,,,,,,,,,,,,,,,,,,,,,,,,,,,,,,,,,,,,,,,,,,,,,,,,,,,,,,,,,,,,,,,,,,,,,,,,,
,,,,,,60ba101202b7fd117c0f3b94,62bbfb4a07d3805082066968,2022-06-29_09h12.20.086,Colour_Asymmetry_Pilot,2022.1.3,Win32,60.18295619,62bbe60bf3d75ef465d3e404,0,78,78,121,1,onethree,,,,,,,,,,,,,,,,,,,,,,,,,,,,,,,,,,,,,,,,,,,,,,,,,,,,,,,,,,,,,,,,,,,,,,,,,,,,,,,,,,,,,,,,,,,,,,,,,,,,,,,,,,,,,,,,,,,,,,,,,,,,,,,,,,,,,,,,,,,,,,,,,,,,,,,,
,,,,,,60ba101202b7fd117c0f3b94,62bbfb4a07d3805082066968,2022-06-29_09h12.20.086,Colour_Asymmetry_Pilot,2022.1.3,Win32,60.18295619,62bbe60bf3d75ef465d3e404,0,79,79,73,1,onethree,,,,,,,,,,,,,,,,,,,,,,,,,,,,,,,,,,,,,,,,,,,,,,,,,,,,,,,,,,,,,,,,,,,,,,,,,,,,,,,,,,,,,,,,,,,,,,,,,,,,,,,,,,,,,,,,,,,,,,,,,,,,,,,,,,,,,,,,,,,,,,,,,,,,,,,,
,,,,,,60ba101202b7fd117c0f3b94,62bbfb4a07d3805082066968,2022-06-29_09h12.20.086,Colour_Asymmetry_Pilot,2022.1.3,Win32,60.18295619,62bbe60bf3d75ef465d3e404,0,80,80,82,1,twoone,,,,,,,,,,,,,,,,,,,,,,,,,,,,,,,,,,,,,,,,,,,,,,,,,,,,,,,,,,,,,,,,,,,,,,,,,,,,,,,,,,,,,,,,,,,,,,,,,,,,,,,,,,,,,,,,,,,,,,,,,,,,,,,,,,,,,,,,,,,,,,,,,,,,,,,,
,,,,,,60ba101202b7fd117c0f3b94,62bbfb4a07d3805082066968,2022-06-29_09h12.20.086,Colour_Asymmetry_Pilot,2022.1.3,Win32,60.18295619,62bbe60bf3d75ef465d3e404,0,81,81,54,1,fourtwo,,,,,,,,,,,,,,,,,,,,,,,,,,,,,,,,,,,,,,,,,,,,,,,,,,,,,,,,,,,,,,,,,,,,,,,,,,,,,,,,,,,,,,,,,,,,,,,,,,,,,,,,,,,,,,,,,,,,,,,,,,,,,,,,,,,,,,,,,,,,,,,,,,,,,,,,
,,,,,,60ba101202b7fd117c0f3b94,62bbfb4a07d3805082066968,2022-06-29_09h12.20.086,Colour_Asymmetry_Pilot,2022.1.3,Win32,60.18295619,62bbe60bf3d75ef465d3e404,0,82,82,44,1,threeone,,,,,,,,,,,,,,,,,,,,,,,,,,,,,,,,,,,,,,,,,,,,,,,,,,,,,,,,,,,,,,,,,,,,,,,,,,,,,,,,,,,,,,,,,,,,,,,,,,,,,,,,,,,,,,,,,,,,,,,,,,,,,,,,,,,,,,,,,,,,,,,,,,,,,,,,
,,,,,,60ba101202b7fd117c0f3b94,62bbfb4a07d3805082066968,2022-06-29_09h12.20.086,Colour_Asymmetry_Pilot,2022.1.3,Win32,60.18295619,62bbe60bf3d75ef465d3e404,0,83,83,154,1,twoone,,,,,,,,,,,,,,,,,,,,,,,,,,,,,,,,,,,,,,,,,,,,,,,,,,,,,,,,,,,,,,,,,,,,,,,,,,,,,,,,,,,,,,,,,,,,,,,,,,,,,,,,,,,,,,,,,,,,,,,,,,,,,,,,,,,,,,,,,,,,,,,,,,,,,,,,
,,,,,,60ba101202b7fd117c0f3b94,62bbfb4a07d3805082066968,2022-06-29_09h12.20.086,Colour_Asymmetry_Pilot,2022.1.3,Win32,60.18295619,62bbe60bf3d75ef465d3e404,0,84,84,104,1,onetwo,,,,,,,,,,,,,,,,,,,,,,,,,,,,,,,,,,,,,,,,,,,,,,,,,,,,,,,,,,,,,,,,,,,,,,,,,,,,,,,,,,,,,,,,,,,,,,,,,,,,,,,,,,,,,,,,,,,,,,,,,,,,,,,,,,,,,,,,,,,,,,,,,,,,,,,,
,,,,,,60ba101202b7fd117c0f3b94,62bbfb4a07d3805082066968,2022-06-29_09h12.20.086,Colour_Asymmetry_Pilot,2022.1.3,Win32,60.18295619,62bbe60bf3d75ef465d3e404,0,85,85,79,1,fourthree,,,,,,,,,,,,,,,,,,,,,,,,,,,,,,,,,,,,,,,,,,,,,,,,,,,,,,,,,,,,,,,,,,,,,,,,,,,,,,,,,,,,,,,,,,,,,,,,,,,,,,,,,,,,,,,,,,,,,,,,,,,,,,,,,,,,,,,,,,,,,,,,,,,,,,,,
,,,,,,60ba101202b7fd117c0f3b94,62bbfb4a07d3805082066968,2022-06-29_09h12.20.086,Colour_Asymmetry_Pilot,2022.1.3,Win32,60.18295619,62bbe60bf3d75ef465d3e404,0,86,86,10,1,twoone,,,,,,,,,,,,,,,,,,,,,,,,,,,,,,,,,,,,,,,,,,,,,,,,,,,,,,,,,,,,,,,,,,,,,,,,,,,,,,,,,,,,,,,,,,,,,,,,,,,,,,,,,,,,,,,,,,,,,,,,,,,,,,,,,,,,,,,,,,,,,,,,,,,,,,,,
,,,,,,60ba101202b7fd117c0f3b94,62bbfb4a07d3805082066968,2022-06-29_09h12.20.086,Colour_Asymmetry_Pilot,2022.1.3,Win32,60.18295619,62bbe60bf3d75ef465d3e404,0,87,87,22,1,fourtwo,,,,,,,,,,,,,,,,,,,,,,,,,,,,,,,,,,,,,,,,,,,,,,,,,,,,,,,,,,,,,,,,,,,,,,,,,,,,,,,,,,,,,,,,,,,,,,,,,,,,,,,,,,,,,,,,,,,,,,,,,,,,,,,,,,,,,,,,,,,,,,,,,,,,,,,,
,,,,,,60ba101202b7fd117c0f3b94,62bbfb4a07d3805082066968,2022-06-29_09h12.20.086,Colour_Asymmetry_Pilot,2022.1.3,Win32,60.18295619,62bbe60bf3d75ef465d3e404,0,88,88,112,1,onetwo,,,,,,,,,,,,,,,,,,,,,,,,,,,,,,,,,,,,,,,,,,,,,,,,,,,,,,,,,,,,,,,,,,,,,,,,,,,,,,,,,,,,,,,,,,,,,,,,,,,,,,,,,,,,,,,,,,,,,,,,,,,,,,,,,,,,,,,,,,,,,,,,,,,,,,,,
,,,,,,60ba101202b7fd117c0f3b94,62bbfb4a07d3805082066968,2022-06-29_09h12.20.086,Colour_Asymmetry_Pilot,2022.1.3,Win32,60.18295619,62bbe60bf3d75ef465d3e404,0,89,89,113,1,onethree,,,,,,,,,,,,,,,,,,,,,,,,,,,,,,,,,,,,,,,,,,,,,,,,,,,,,,,,,,,,,,,,,,,,,,,,,,,,,,,,,,,,,,,,,,,,,,,,,,,,,,,,,,,,,,,,,,,,,,,,,,,,,,,,,,,,,,,,,,,,,,,,,,,,,,,,
,,,,,,60ba101202b7fd117c0f3b94,62bbfb4a07d3805082066968,2022-06-29_09h12.20.086,Colour_Asymmetry_Pilot,2022.1.3,Win32,60.18295619,62bbe60bf3d75ef465d3e404,0,90,90,12,1,threeone,,,,,,,,,,,,,,,,,,,,,,,,,,,,,,,,,,,,,,,,,,,,,,,,,,,,,,,,,,,,,,,,,,,,,,,,,,,,,,,,,,,,,,,,,,,,,,,,,,,,,,,,,,,,,,,,,,,,,,,,,,,,,,,,,,,,,,,,,,,,,,,,,,,,,,,,
,,,,,,60ba101202b7fd117c0f3b94,62bbfb4a07d3805082066968,2022-06-29_09h12.20.086,Colour_Asymmetry_Pilot,2022.1.3,Win32,60.18295619,62bbe60bf3d75ef465d3e404,0,91,91,127,1,fourthree,,,,,,,,,,,,,,,,,,,,,,,,,,,,,,,,,,,,,,,,,,,,,,,,,,,,,,,,,,,,,,,,,,,,,,,,,,,,,,,,,,,,,,,,,,,,,,,,,,,,,,,,,,,,,,,,,,,,,,,,,,,,,,,,,,,,,,,,,,,,,,,,,,,,,,,,
,,,,,,60ba101202b7fd117c0f3b94,62bbfb4a07d3805082066968,2022-06-29_09h12.20.086,Colour_Asymmetry_Pilot,2022.1.3,Win32,60.18295619,62bbe60bf3d75ef465d3e404,0,92,92,111,1,fourthree,,,,,,,,,,,,,,,,,,,,,,,,,,,,,,,,,,,,,,,,,,,,,,,,,,,,,,,,,,,,,,,,,,,,,,,,,,,,,,,,,,,,,,,,,,,,,,,,,,,,,,,,,,,,,,,,,,,,,,,,,,,,,,,,,,,,,,,,,,,,,,,,,,,,,,,,
,,,,,,60ba101202b7fd117c0f3b94,62bbfb4a07d3805082066968,2022-06-29_09h12.20.086,Colour_Asymmetry_Pilot,2022.1.3,Win32,60.18295619,62bbe60bf3d75ef465d3e404,0,93,93,133,1,threefour,,,,,,,,,,,,,,,,,,,,,,,,,,,,,,,,,,,,,,,,,,,,,,,,,,,,,,,,,,,,,,,,,,,,,,,,,,,,,,,,,,,,,,,,,,,,,,,,,,,,,,,,,,,,,,,,,,,,,,,,,,,,,,,,,,,,,,,,,,,,,,,,,,,,,,,,
,,,,,,60ba101202b7fd117c0f3b94,62bbfb4a07d3805082066968,2022-06-29_09h12.20.086,Colour_Asymmetry_Pilot,2022.1.3,Win32,60.18295619,62bbe60bf3d75ef465d3e404,0,94,94,27,1,twofour,,,,,,,,,,,,,,,,,,,,,,,,,,,,,,,,,,,,,,,,,,,,,,,,,,,,,,,,,,,,,,,,,,,,,,,,,,,,,,,,,,,,,,,,,,,,,,,,,,,,,,,,,,,,,,,,,,,,,,,,,,,,,,,,,,,,,,,,,,,,,,,,,,,,,,,,
,,,,,,60ba101202b7fd117c0f3b94,62bbfb4a07d3805082066968,2022-06-29_09h12.20.086,Colour_Asymmetry_Pilot,2022.1.3,Win32,60.18295619,62bbe60bf3d75ef465d3e404,0,95,95,115,1,twofour,,,,,,,,,,,,,,,,,,,,,,,,,,,,,,,,,,,,,,,,,,,,,,,,,,,,,,,,,,,,,,,,,,,,,,,,,,,,,,,,,,,,,,,,,,,,,,,,,,,,,,,,,,,,,,,,,,,,,,,,,,,,,,,,,,,,,,,,,,,,,,,,,,,,,,,,
,,,,,,60ba101202b7fd117c0f3b94,62bbfb4a07d3805082066968,2022-06-29_09h12.20.086,Colour_Asymmetry_Pilot,2022.1.3,Win32,60.18295619,62bbe60bf3d75ef465d3e404,0,96,96,109,1,threefour,,,,,,,,,,,,,,,,,,,,,,,,,,,,,,,,,,,,,,,,,,,,,,,,,,,,,,,,,,,,,,,,,,,,,,,,,,,,,,,,,,,,,,,,,,,,,,,,,,,,,,,,,,,,,,,,,,,,,,,,,,,,,,,,,,,,,,,,,,,,,,,,,,,,,,,,
,,,,,,60ba101202b7fd117c0f3b94,62bbfb4a07d3805082066968,2022-06-29_09h12.20.086,Colour_Asymmetry_Pilot,2022.1.3,Win32,60.18295619,62bbe60bf3d75ef465d3e404,0,97,97,94,1,fourtwo,,,,,,,,,,,,,,,,,,,,,,,,,,,,,,,,,,,,,,,,,,,,,,,,,,,,,,,,,,,,,,,,,,,,,,,,,,,,,,,,,,,,,,,,,,,,,,,,,,,,,,,,,,,,,,,,,,,,,,,,,,,,,,,,,,,,,,,,,,,,,,,,,,,,,,,,
,,,,,,60ba101202b7fd117c0f3b94,62bbfb4a07d3805082066968,2022-06-29_09h12.20.086,Colour_Asymmetry_Pilot,2022.1.3,Win32,60.18295619,62bbe60bf3d75ef465d3e404,0,98,98,4,1,threeone,,,,,,,,,,,,,,,,,,,,,,,,,,,,,,,,,,,,,,,,,,,,,,,,,,,,,,,,,,,,,,,,,,,,,,,,,,,,,,,,,,,,,,,,,,,,,,,,,,,,,,,,,,,,,,,,,,,,,,,,,,,,,,,,,,,,,,,,,,,,,,,,,,,,,,,,
,,,,,,60ba101202b7fd117c0f3b94,62bbfb4a07d3805082066968,2022-06-29_09h12.20.086,Colour_Asymmetry_Pilot,2022.1.3,Win32,60.18295619,62bbe60bf3d75ef465d3e404,0,99,99,97,1,onethree,,,,,,,,,,,,,,,,,,,,,,,,,,,,,,,,,,,,,,,,,,,,,,,,,,,,,,,,,,,,,,,,,,,,,,,,,,,,,,,,,,,,,,,,,,,,,,,,,,,,,,,,,,,,,,,,,,,,,,,,,,,,,,,,,,,,,,,,,,,,,,,,,,,,,,,,
,,,,,,60ba101202b7fd117c0f3b94,62bbfb4a07d3805082066968,2022-06-29_09h12.20.086,Colour_Asymmetry_Pilot,2022.1.3,Win32,60.18295619,62bbe60bf3d75ef465d3e404,0,100,100,3,1,twofour,,,,,,,,,,,,,,,,,,,,,,,,,,,,,,,,,,,,,,,,,,,,,,,,,,,,,,,,,,,,,,,,,,,,,,,,,,,,,,,,,,,,,,,,,,,,,,,,,,,,,,,,,,,,,,,,,,,,,,,,,,,,,,,,,,,,,,,,,,,,,,,,,,,,,,,,
,,,,,,60ba101202b7fd117c0f3b94,62bbfb4a07d3805082066968,2022-06-29_09h12.20.086,Colour_Asymmetry_Pilot,2022.1.3,Win32,60.18295619,62bbe60bf3d75ef465d3e404,0,101,101,123,1,twofour,,,,,,,,,,,,,,,,,,,,,,,,,,,,,,,,,,,,,,,,,,,,,,,,,,,,,,,,,,,,,,,,,,,,,,,,,,,,,,,,,,,,,,,,,,,,,,,,,,,,,,,,,,,,,,,,,,,,,,,,,,,,,,,,,,,,,,,,,,,,,,,,,,,,,,,,
,,,,,,60ba101202b7fd117c0f3b94,62bbfb4a07d3805082066968,2022-06-29_09h12.20.086,Colour_Asymmetry_Pilot,2022.1.3,Win32,60.18295619,62bbe60bf3d75ef465d3e404,0,102,102,32,1,onetwo,,,,,,,,,,,,,,,,,,,,,,,,,,,,,,,,,,,,,,,,,,,,,,,,,,,,,,,,,,,,,,,,,,,,,,,,,,,,,,,,,,,,,,,,,,,,,,,,,,,,,,,,,,,,,,,,,,,,,,,,,,,,,,,,,,,,,,,,,,,,,,,,,,,,,,,,
,,,,,,60ba101202b7fd117c0f3b94,62bbfb4a07d3805082066968,2022-06-29_09h12.20.086,Colour_Asymmetry_Pilot,2022.1.3,Win32,60.18295619,62bbe60bf3d75ef465d3e404,0,103,103,153,1,onethree,,,,,,,,,,,,,,,,,,,,,,,,,,,,,,,,,,,,,,,,,,,,,,,,,,,,,,,,,,,,,,,,,,,,,,,,,,,,,,,,,,,,,,,,,,,,,,,,,,,,,,,,,,,,,,,,,,,,,,,,,,,,,,,,,,,,,,,,,,,,,,,,,,,,,,,,
,,,,,,60ba101202b7fd117c0f3b94,62bbfb4a07d3805082066968,2022-06-29_09h12.20.086,Colour_Asymmetry_Pilot,2022.1.3,Win32,60.18295619,62bbe60bf3d75ef465d3e404,0,104,104,68,1,threeone,,,,,,,,,,,,,,,,,,,,,,,,,,,,,,,,,,,,,,,,,,,,,,,,,,,,,,,,,,,,,,,,,,,,,,,,,,,,,,,,,,,,,,,,,,,,,,,,,,,,,,,,,,,,,,,,,,,,,,,,,,,,,,,,,,,,,,,,,,,,,,,,,,,,,,,,
,,,,,,60ba101202b7fd117c0f3b94,62bbfb4a07d3805082066968,2022-06-29_09h12.20.086,Colour_Asymmetry_Pilot,2022.1.3,Win32,60.18295619,62bbe60bf3d75ef465d3e404,0,105,105,110,1,fourtwo,,,,,,,,,,,,,,,,,,,,,,,,,,,,,,,,,,,,,,,,,,,,,,,,,,,,,,,,,,,,,,,,,,,,,,,,,,,,,,,,,,,,,,,,,,,,,,,,,,,,,,,,,,,,,,,,,,,,,,,,,,,,,,,,,,,,,,,,,,,,,,,,,,,,,,,,
,,,,,,60ba101202b7fd117c0f3b94,62bbfb4a07d3805082066968,2022-06-29_09h12.20.086,Colour_Asymmetry_Pilot,2022.1.3,Win32,60.18295619,62bbe60bf3d75ef465d3e404,0,106,106,16,1,onetwo,,,,,,,,,,,,,,,,,,,,,,,,,,,,,,,,,,,,,,,,,,,,,,,,,,,,,,,,,,,,,,,,,,,,,,,,,,,,,,,,,,,,,,,,,,,,,,,,,,,,,,,,,,,,,,,,,,,,,,,,,,,,,,,,,,,,,,,,,,,,,,,,,,,,,,,,
,,,,,,60ba101202b7fd117c0f3b94,62bbfb4a07d3805082066968,2022-06-29_09h12.20.086,Colour_Asymmetry_Pilot,2022.1.3,Win32,60.18295619,62bbe60bf3d75ef465d3e404,0,107,107,9,1,onethree,,,,,,,,,,,,,,,,,,,,,,,,,,,,,,,,,,,,,,,,,,,,,,,,,,,,,,,,,,,,,,,,,,,,,,,,,,,,,,,,,,,,,,,,,,,,,,,,,,,,,,,,,,,,,,,,,,,,,,,,,,,,,,,,,,,,,,,,,,,,,,,,,,,,,,,,
,,,,,,60ba101202b7fd117c0f3b94,62bbfb4a07d3805082066968,2022-06-29_09h12.20.086,Colour_Asymmetry_Pilot,2022.1.3,Win32,60.18295619,62bbe60bf3d75ef465d3e404,0,108,108,148,1,threeone,,,,,,,,,,,,,,,,,,,,,,,,,,,,,,,,,,,,,,,,,,,,,,,,,,,,,,,,,,,,,,,,,,,,,,,,,,,,,,,,,,,,,,,,,,,,,,,,,,,,,,,,,,,,,,,,,,,,,,,,,,,,,,,,,,,,,,,,,,,,,,,,,,,,,,,,
,,,,,,60ba101202b7fd117c0f3b94,62bbfb4a07d3805082066968,2022-06-29_09h12.20.086,Colour_Asymmetry_Pilot,2022.1.3,Win32,60.18295619,62bbe60bf3d75ef465d3e404,0,109,109,75,1,twofour,,,,,,,,,,,,,,,,,,,,,,,,,,,,,,,,,,,,,,,,,,,,,,,,,,,,,,,,,,,,,,,,,,,,,,,,,,,,,,,,,,,,,,,,,,,,,,,,,,,,,,,,,,,,,,,,,,,,,,,,,,,,,,,,,,,,,,,,,,,,,,,,,,,,,,,,
,,,,,,60ba101202b7fd117c0f3b94,62bbfb4a07d3805082066968,2022-06-29_09h12.20.086,Colour_Asymmetry_Pilot,2022.1.3,Win32,60.18295619,62bbe60bf3d75ef465d3e404,0,110,110,151,1,fourthree,,,,,,,,,,,,,,,,,,,,,,,,,,,,,,,,,,,,,,,,,,,,,,,,,,,,,,,,,,,,,,,,,,,,,,,,,,,,,,,,,,,,,,,,,,,,,,,,,,,,,,,,,,,,,,,,,,,,,,,,,,,,,,,,,,,,,,,,,,,,,,,,,,,,,,,,
,,,,,,60ba101202b7fd117c0f3b94,62bbfb4a07d3805082066968,2022-06-29_09h12.20.086,Colour_Asymmetry_Pilot,2022.1.3,Win32,60.18295619,62bbe60bf3d75ef465d3e404,0,111,111,62,1,fourtwo,,,,,,,,,,,,,,,,,,,,,,,,,,,,,,,,,,,,,,,,,,,,,,,,,,,,,,,,,,,,,,,,,,,,,,,,,,,,,,,,,,,,,,,,,,,,,,,,,,,,,,,,,,,,,,,,,,,,,,,,,,,,,,,,,,,,,,,,,,,,,,,,,,,,,,,,
,,,,,,60ba101202b7fd117c0f3b94,62bbfb4a07d3805082066968,2022-06-29_09h12.20.086,Colour_Asymmetry_Pilot,2022.1.3,Win32,60.18295619,62bbe60bf3d75ef465d3e404,0,112,112,142,1,fourtwo,,,,,,,,,,,,,,,,,,,,,,,,,,,,,,,,,,,,,,,,,,,,,,,,,,,,,,,,,,,,,,,,,,,,,,,,,,,,,,,,,,,,,,,,,,,,,,,,,,,,,,,,,,,,,,,,,,,,,,,,,,,,,,,,,,,,,,,,,,,,,,,,,,,,,,,,
,,,,,,60ba101202b7fd117c0f3b94,62bbfb4a07d3805082066968,2022-06-29_09h12.20.086,Colour_Asymmetry_Pilot,2022.1.3,Win32,60.18295619,62bbe60bf3d75ef465d3e404,0,113,113,53,1,threefour,,,,,,,,,,,,,,,,,,,,,,,,,,,,,,,,,,,,,,,,,,,,,,,,,,,,,,,,,,,,,,,,,,,,,,,,,,,,,,,,,,,,,,,,,,,,,,,,,,,,,,,,,,,,,,,,,,,,,,,,,,,,,,,,,,,,,,,,,,,,,,,,,,,,,,,,
,,,,,,60ba101202b7fd117c0f3b94,62bbfb4a07d3805082066968,2022-06-29_09h12.20.086,Colour_Asymmetry_Pilot,2022.1.3,Win32,60.18295619,62bbe60bf3d75ef465d3e404,0,114,114,103,1,fourthree,,,,,,,,,,,,,,,,,,,,,,,,,,,,,,,,,,,,,,,,,,,,,,,,,,,,,,,,,,,,,,,,,,,,,,,,,,,,,,,,,,,,,,,,,,,,,,,,,,,,,,,,,,,,,,,,,,,,,,,,,,,,,,,,,,,,,,,,,,,,,,,,,,,,,,,,
,,,,,,60ba101202b7fd117c0f3b94,62bbfb4a07d3805082066968,2022-06-29_09h12.20.086,Colour_Asymmetry_Pilot,2022.1.3,Win32,60.18295619,62bbe60bf3d75ef465d3e404,0,115,115,98,1,twoone,,,,,,,,,,,,,,,,,,,,,,,,,,,,,,,,,,,,,,,,,,,,,,,,,,,,,,,,,,,,,,,,,,,,,,,,,,,,,,,,,,,,,,,,,,,,,,,,,,,,,,,,,,,,,,,,,,,,,,,,,,,,,,,,,,,,,,,,,,,,,,,,,,,,,,,,
,,,,,,60ba101202b7fd117c0f3b94,62bbfb4a07d3805082066968,2022-06-29_09h12.20.086,Colour_Asymmetry_Pilot,2022.1.3,Win32,60.18295619,62bbe60bf3d75ef465d3e404,0,116,116,6,1,fourtwo,,,,,,,,,,,,,,,,,,,,,,,,,,,,,,,,,,,,,,,,,,,,,,,,,,,,,,,,,,,,,,,,,,,,,,,,,,,,,,,,,,,,,,,,,,,,,,,,,,,,,,,,,,,,,,,,,,,,,,,,,,,,,,,,,,,,,,,,,,,,,,,,,,,,,,,,
,,,,,,60ba101202b7fd117c0f3b94,62bbfb4a07d3805082066968,2022-06-29_09h12.20.086,Colour_Asymmetry_Pilot,2022.1.3,Win32,60.18295619,62bbe60bf3d75ef465d3e404,0,117,117,52,1,threeone,,,,,,,,,,,,,,,,,,,,,,,,,,,,,,,,,,,,,,,,,,,,,,,,,,,,,,,,,,,,,,,,,,,,,,,,,,,,,,,,,,,,,,,,,,,,,,,,,,,,,,,,,,,,,,,,,,,,,,,,,,,,,,,,,,,,,,,,,,,,,,,,,,,,,,,,
,,,,,,60ba101202b7fd117c0f3b94,62bbfb4a07d3805082066968,2022-06-29_09h12.20.086,Colour_Asymmetry_Pilot,2022.1.3,Win32,60.18295619,62bbe60bf3d75ef465d3e404,0,118,118,51,1,twofour,,,,,,,,,,,,,,,,,,,,,,,,,,,,,,,,,,,,,,,,,,,,,,,,,,,,,,,,,,,,,,,,,,,,,,,,,,,,,,,,,,,,,,,,,,,,,,,,,,,,,,,,,,,,,,,,,,,,,,,,,,,,,,,,,,,,,,,,,,,,,,,,,,,,,,,,
,,,,,,60ba101202b7fd117c0f3b94,62bbfb4a07d3805082066968,2022-06-29_09h12.20.086,Colour_Asymmetry_Pilot,2022.1.3,Win32,60.18295619,62bbe60bf3d75ef465d3e404,0,119,119,124,1,threeone,,,,,,,,,,,,,,,,,,,,,,,,,,,,,,,,,,,,,,,,,,,,,,,,,,,,,,,,,,,,,,,,,,,,,,,,,,,,,,,,,,,,,,,,,,,,,,,,,,,,,,,,,,,,,,,,,,,,,,,,,,,,,,,,,,,,,,,,,,,,,,,,,,,,,,,,
,,,,,,60ba101202b7fd117c0f3b94,62bbfb4a07d3805082066968,2022-06-29_09h12.20.086,Colour_Asymmetry_Pilot,2022.1.3,Win32,60.18295619,62bbe60bf3d75ef465d3e404,0,120,120,55,1,fourthree,,,,,,,,,,,,,,,,,,,,,,,,,,,,,,,,,,,,,,,,,,,,,,,,,,,,,,,,,,,,,,,,,,,,,,,,,,,,,,,,,,,,,,,,,,,,,,,,,,,,,,,,,,,,,,,,,,,,,,,,,,,,,,,,,,,,,,,,,,,,,,,,,,,,,,,,
,,,,,,60ba101202b7fd117c0f3b94,62bbfb4a07d3805082066968,2022-06-29_09h12.20.086,Colour_Asymmetry_Pilot,2022.1.3,Win32,60.18295619,62bbe60bf3d75ef465d3e404,0,121,121,35,1,twofour,,,,,,,,,,,,,,,,,,,,,,,,,,,,,,,,,,,,,,,,,,,,,,,,,,,,,,,,,,,,,,,,,,,,,,,,,,,,,,,,,,,,,,,,,,,,,,,,,,,,,,,,,,,,,,,,,,,,,,,,,,,,,,,,,,,,,,,,,,,,,,,,,,,,,,,,
,,,,,,60ba101202b7fd117c0f3b94,62bbfb4a07d3805082066968,2022-06-29_09h12.20.086,Colour_Asymmetry_Pilot,2022.1.3,Win32,60.18295619,62bbe60bf3d75ef465d3e404,0,122,122,106,1,twoone,,,,,,,,,,,,,,,,,,,,,,,,,,,,,,,,,,,,,,,,,,,,,,,,,,,,,,,,,,,,,,,,,,,,,,,,,,,,,,,,,,,,,,,,,,,,,,,,,,,,,,,,,,,,,,,,,,,,,,,,,,,,,,,,,,,,,,,,,,,,,,,,,,,,,,,,
,,,,,,60ba101202b7fd117c0f3b94,62bbfb4a07d3805082066968,2022-06-29_09h12.20.086,Colour_Asymmetry_Pilot,2022.1.3,Win32,60.18295619,62bbe60bf3d75ef465d3e404,0,123,123,83,1,twofour,,,,,,,,,,,,,,,,,,,,,,,,,,,,,,,,,,,,,,,,,,,,,,,,,,,,,,,,,,,,,,,,,,,,,,,,,,,,,,,,,,,,,,,,,,,,,,,,,,,,,,,,,,,,,,,,,,,,,,,,,,,,,,,,,,,,,,,,,,,,,,,,,,,,,,,,
,,,,,,60ba101202b7fd117c0f3b94,62bbfb4a07d3805082066968,2022-06-29_09h12.20.086,Colour_Asymmetry_Pilot,2022.1.3,Win32,60.18295619,62bbe60bf3d75ef465d3e404,0,124,124,23,1,fourthree,,,,,,,,,,,,,,,,,,,,,,,,,,,,,,,,,,,,,,,,,,,,,,,,,,,,,,,,,,,,,,,,,,,,,,,,,,,,,,,,,,,,,,,,,,,,,,,,,,,,,,,,,,,,,,,,,,,,,,,,,,,,,,,,,,,,,,,,,,,,,,,,,,,,,,,,
,,,,,,60ba101202b7fd117c0f3b94,62bbfb4a07d3805082066968,2022-06-29_09h12.20.086,Colour_Asymmetry_Pilot,2022.1.3,Win32,60.18295619,62bbe60bf3d75ef465d3e404,0,125,125,63,1,fourthree,,,,,,,,,,,,,,,,,,,,,,,,,,,,,,,,,,,,,,,,,,,,,,,,,,,,,,,,,,,,,,,,,,,,,,,,,,,,,,,,,,,,,,,,,,,,,,,,,,,,,,,,,,,,,,,,,,,,,,,,,,,,,,,,,,,,,,,,,,,,,,,,,,,,,,,,
,,,,,,60ba101202b7fd117c0f3b94,62bbfb4a07d3805082066968,2022-06-29_09h12.20.086,Colour_Asymmetry_Pilot,2022.1.3,Win32,60.18295619,62bbe60bf3d75ef465d3e404,0,126,126,89,1,onethree,,,,,,,,,,,,,,,,,,,,,,,,,,,,,,,,,,,,,,,,,,,,,,,,,,,,,,,,,,,,,,,,,,,,,,,,,,,,,,,,,,,,,,,,,,,,,,,,,,,,,,,,,,,,,,,,,,,,,,,,,,,,,,,,,,,,,,,,,,,,,,,,,,,,,,,,
,,,,,,60ba101202b7fd117c0f3b94,62bbfb4a07d3805082066968,2022-06-29_09h12.20.086,Colour_Asymmetry_Pilot,2022.1.3,Win32,60.18295619,62bbe60bf3d75ef465d3e404,0,127,127,95,1,fourthree,,,,,,,,,,,,,,,,,,,,,,,,,,,,,,,,,,,,,,,,,,,,,,,,,,,,,,,,,,,,,,,,,,,,,,,,,,,,,,,,,,,,,,,,,,,,,,,,,,,,,,,,,,,,,,,,,,,,,,,,,,,,,,,,,,,,,,,,,,,,,,,,,,,,,,,,
,,,,,,60ba101202b7fd117c0f3b94,62bbfb4a07d3805082066968,2022-06-29_09h12.20.086,Colour_Asymmetry_Pilot,2022.1.3,Win32,60.18295619,62bbe60bf3d75ef465d3e404,0,128,128,117,1,threefour,,,,,,,,,,,,,,,,,,,,,,,,,,,,,,,,,,,,,,,,,,,,,,,,,,,,,,,,,,,,,,,,,,,,,,,,,,,,,,,,,,,,,,,,,,,,,,,,,,,,,,,,,,,,,,,,,,,,,,,,,,,,,,,,,,,,,,,,,,,,,,,,,,,,,,,,
,,,,,,60ba101202b7fd117c0f3b94,62bbfb4a07d3805082066968,2022-06-29_09h12.20.086,Colour_Asymmetry_Pilot,2022.1.3,Win32,60.18295619,62bbe60bf3d75ef465d3e404,0,129,129,21,1,threefour,,,,,,,,,,,,,,,,,,,,,,,,,,,,,,,,,,,,,,,,,,,,,,,,,,,,,,,,,,,,,,,,,,,,,,,,,,,,,,,,,,,,,,,,,,,,,,,,,,,,,,,,,,,,,,,,,,,,,,,,,,,,,,,,,,,,,,,,,,,,,,,,,,,,,,,,
,,,,,,60ba101202b7fd117c0f3b94,62bbfb4a07d3805082066968,2022-06-29_09h12.20.086,Colour_Asymmetry_Pilot,2022.1.3,Win32,60.18295619,62bbe60bf3d75ef465d3e404,0,130,130,29,1,threefour,,,,,,,,,,,,,,,,,,,,,,,,,,,,,,,,,,,,,,,,,,,,,,,,,,,,,,,,,,,,,,,,,,,,,,,,,,,,,,,,,,,,,,,,,,,,,,,,,,,,,,,,,,,,,,,,,,,,,,,,,,,,,,,,,,,,,,,,,,,,,,,,,,,,,,,,
,,,,,,60ba101202b7fd117c0f3b94,62bbfb4a07d3805082066968,2022-06-29_09h12.20.086,Colour_Asymmetry_Pilot,2022.1.3,Win32,60.18295619,62bbe60bf3d75ef465d3e404,0,131,131,85,1,threefour,,,,,,,,,,,,,,,,,,,,,,,,,,,,,,,,,,,,,,,,,,,,,,,,,,,,,,,,,,,,,,,,,,,,,,,,,,,,,,,,,,,,,,,,,,,,,,,,,,,,,,,,,,,,,,,,,,,,,,,,,,,,,,,,,,,,,,,,,,,,,,,,,,,,,,,,
,,,,,,60ba101202b7fd117c0f3b94,62bbfb4a07d3805082066968,2022-06-29_09h12.20.086,Colour_Asymmetry_Pilot,2022.1.3,Win32,60.18295619,62bbe60bf3d75ef465d3e404,0,132,132,147,1,twofour,,,,,,,,,,,,,,,,,,,,,,,,,,,,,,,,,,,,,,,,,,,,,,,,,,,,,,,,,,,,,,,,,,,,,,,,,,,,,,,,,,,,,,,,,,,,,,,,,,,,,,,,,,,,,,,,,,,,,,,,,,,,,,,,,,,,,,,,,,,,,,,,,,,,,,,,
,,,,,,60ba101202b7fd117c0f3b94,62bbfb4a07d3805082066968,2022-06-29_09h12.20.086,Colour_Asymmetry_Pilot,2022.1.3,Win32,60.18295619,62bbe60bf3d75ef465d3e404,0,133,133,58,1,twoone,,,,,,,,,,,,,,,,,,,,,,,,,,,,,,,,,,,,,,,,,,,,,,,,,,,,,,,,,,,,,,,,,,,,,,,,,,,,,,,,,,,,,,,,,,,,,,,,,,,,,,,,,,,,,,,,,,,,,,,,,,,,,,,,,,,,,,,,,,,,,,,,,,,,,,,,
,,,,,,60ba101202b7fd117c0f3b94,62bbfb4a07d3805082066968,2022-06-29_09h12.20.086,Colour_Asymmetry_Pilot,2022.1.3,Win32,60.18295619,62bbe60bf3d75ef465d3e404,0,134,134,114,1,twoone,,,,,,,,,,,,,,,,,,,,,,,,,,,,,,,,,,,,,,,,,,,,,,,,,,,,,,,,,,,,,,,,,,,,,,,,,,,,,,,,,,,,,,,,,,,,,,,,,,,,,,,,,,,,,,,,,,,,,,,,,,,,,,,,,,,,,,,,,,,,,,,,,,,,,,,,
,,,,,,60ba101202b7fd117c0f3b94,62bbfb4a07d3805082066968,2022-06-29_09h12.20.086,Colour_Asymmetry_Pilot,2022.1.3,Win32,60.18295619,62bbe60bf3d75ef465d3e404,0,135,135,107,1,twofour,,,,,,,,,,,,,,,,,,,,,,,,,,,,,,,,,,,,,,,,,,,,,,,,,,,,,,,,,,,,,,,,,,,,,,,,,,,,,,,,,,,,,,,,,,,,,,,,,,,,,,,,,,,,,,,,,,,,,,,,,,,,,,,,,,,,,,,,,,,,,,,,,,,,,,,,
,,,,,,60ba101202b7fd117c0f3b94,62bbfb4a07d3805082066968,2022-06-29_09h12.20.086,Colour_Asymmetry_Pilot,2022.1.3,Win32,60.18295619,62bbe60bf3d75ef465d3e404,0,136,136,161,1,onethree,,,,,,,,,,,,,,,,,,,,,,,,,,,,,,,,,,,,,,,,,,,,,,,,,,,,,,,,,,,,,,,,,,,,,,,,,,,,,,,,,,,,,,,,,,,,,,,,,,,,,,,,,,,,,,,,,,,,,,,,,,,,,,,,,,,,,,,,,,,,,,,,,,,,,,,,
,,,,,,60ba101202b7fd117c0f3b94,62bbfb4a07d3805082066968,2022-06-29_09h12.20.086,Colour_Asymmetry_Pilot,2022.1.3,Win32,60.18295619,62bbe60bf3d75ef465d3e404,0,137,137,84,1,threeone,,,,,,,,,,,,,,,,,,,,,,,,,,,,,,,,,,,,,,,,,,,,,,,,,,,,,,,,,,,,,,,,,,,,,,,,,,,,,,,,,,,,,,,,,,,,,,,,,,,,,,,,,,,,,,,,,,,,,,,,,,,,,,,,,,,,,,,,,,,,,,,,,,,,,,,,
,,,,,,60ba101202b7fd117c0f3b94,62bbfb4a07d3805082066968,2022-06-29_09h12.20.086,Colour_Asymmetry_Pilot,2022.1.3,Win32,60.18295619,62bbe60bf3d75ef465d3e404,0,138,138,77,1,threefour,,,,,,,,,,,,,,,,,,,,,,,,,,,,,,,,,,,,,,,,,,,,,,,,,,,,,,,,,,,,,,,,,,,,,,,,,,,,,,,,,,,,,,,,,,,,,,,,,,,,,,,,,,,,,,,,,,,,,,,,,,,,,,,,,,,,,,,,,,,,,,,,,,,,,,,,
,,,,,,60ba101202b7fd117c0f3b94,62bbfb4a07d3805082066968,2022-06-29_09h12.20.086,Colour_Asymmetry_Pilot,2022.1.3,Win32,60.18295619,62bbe60bf3d75ef465d3e404,0,139,139,45,1,threefour,,,,,,,,,,,,,,,,,,,,,,,,,,,,,,,,,,,,,,,,,,,,,,,,,,,,,,,,,,,,,,,,,,,,,,,,,,,,,,,,,,,,,,,,,,,,,,,,,,,,,,,,,,,,,,,,,,,,,,,,,,,,,,,,,,,,,,,,,,,,,,,,,,,,,,,,
,,,,,,60ba101202b7fd117c0f3b94,62bbfb4a07d3805082066968,2022-06-29_09h12.20.086,Colour_Asymmetry_Pilot,2022.1.3,Win32,60.18295619,62bbe60bf3d75ef465d3e404,0,140,140,18,1,twoone,,,,,,,,,,,,,,,,,,,,,,,,,,,,,,,,,,,,,,,,,,,,,,,,,,,,,,,,,,,,,,,,,,,,,,,,,,,,,,,,,,,,,,,,,,,,,,,,,,,,,,,,,,,,,,,,,,,,,,,,,,,,,,,,,,,,,,,,,,,,,,,,,,,,,,,,
,,,,,,60ba101202b7fd117c0f3b94,62bbfb4a07d3805082066968,2022-06-29_09h12.20.086,Colour_Asymmetry_Pilot,2022.1.3,Win32,60.18295619,62bbe60bf3d75ef465d3e404,0,141,141,140,1,threeone,,,,,,,,,,,,,,,,,,,,,,,,,,,,,,,,,,,,,,,,,,,,,,,,,,,,,,,,,,,,,,,,,,,,,,,,,,,,,,,,,,,,,,,,,,,,,,,,,,,,,,,,,,,,,,,,,,,,,,,,,,,,,,,,,,,,,,,,,,,,,,,,,,,,,,,,
,,,,,,60ba101202b7fd117c0f3b94,62bbfb4a07d3805082066968,2022-06-29_09h12.20.086,Colour_Asymmetry_Pilot,2022.1.3,Win32,60.18295619,62bbe60bf3d75ef465d3e404,0,142,142,156,1,threeone,,,,,,,,,,,,,,,,,,,,,,,,,,,,,,,,,,,,,,,,,,,,,,,,,,,,,,,,,,,,,,,,,,,,,,,,,,,,,,,,,,,,,,,,,,,,,,,,,,,,,,,,,,,,,,,,,,,,,,,,,,,,,,,,,,,,,,,,,,,,,,,,,,,,,,,,
,,,,,,60ba101202b7fd117c0f3b94,62bbfb4a07d3805082066968,2022-06-29_09h12.20.086,Colour_Asymmetry_Pilot,2022.1.3,Win32,60.18295619,62bbe60bf3d75ef465d3e404,0,143,143,152,1,onetwo,,,,,,,,,,,,,,,,,,,,,,,,,,,,,,,,,,,,,,,,,,,,,,,,,,,,,,,,,,,,,,,,,,,,,,,,,,,,,,,,,,,,,,,,,,,,,,,,,,,,,,,,,,,,,,,,,,,,,,,,,,,,,,,,,,,,,,,,,,,,,,,,,,,,,,,,
,,,,,,60ba101202b7fd117c0f3b94,62bbfb4a07d3805082066968,2022-06-29_09h12.20.086,Colour_Asymmetry_Pilot,2022.1.3,Win32,60.18295619,62bbe60bf3d75ef465d3e404,0,144,144,125,1,threefour,,,,,,,,,,,,,,,,,,,,,,,,,,,,,,,,,,,,,,,,,,,,,,,,,,,,,,,,,,,,,,,,,,,,,,,,,,,,,,,,,,,,,,,,,,,,,,,,,,,,,,,,,,,,,,,,,,,,,,,,,,,,,,,,,,,,,,,,,,,,,,,,,,,,,,,,
,,,,,,60ba101202b7fd117c0f3b94,62bbfb4a07d3805082066968,2022-06-29_09h12.20.086,Colour_Asymmetry_Pilot,2022.1.3,Win32,60.18295619,62bbe60bf3d75ef465d3e404,0,145,145,149,1,threefour,,,,,,,,,,,,,,,,,,,,,,,,,,,,,,,,,,,,,,,,,,,,,,,,,,,,,,,,,,,,,,,,,,,,,,,,,,,,,,,,,,,,,,,,,,,,,,,,,,,,,,,,,,,,,,,,,,,,,,,,,,,,,,,,,,,,,,,,,,,,,,,,,,,,,,,,
,,,,,,60ba101202b7fd117c0f3b94,62bbfb4a07d3805082066968,2022-06-29_09h12.20.086,Colour_Asymmetry_Pilot,2022.1.3,Win32,60.18295619,62bbe60bf3d75ef465d3e404,0,146,146,143,1,fourthree,,,,,,,,,,,,,,,,,,,,,,,,,,,,,,,,,,,,,,,,,,,,,,,,,,,,,,,,,,,,,,,,,,,,,,,,,,,,,,,,,,,,,,,,,,,,,,,,,,,,,,,,,,,,,,,,,,,,,,,,,,,,,,,,,,,,,,,,,,,,,,,,,,,,,,,,
,,,,,,60ba101202b7fd117c0f3b94,62bbfb4a07d3805082066968,2022-06-29_09h12.20.086,Colour_Asymmetry_Pilot,2022.1.3,Win32,60.18295619,62bbe60bf3d75ef465d3e404,0,147,147,101,1,threefour,,,,,,,,,,,,,,,,,,,,,,,,,,,,,,,,,,,,,,,,,,,,,,,,,,,,,,,,,,,,,,,,,,,,,,,,,,,,,,,,,,,,,,,,,,,,,,,,,,,,,,,,,,,,,,,,,,,,,,,,,,,,,,,,,,,,,,,,,,,,,,,,,,,,,,,,
,,,,,,60ba101202b7fd117c0f3b94,62bbfb4a07d3805082066968,2022-06-29_09h12.20.086,Colour_Asymmetry_Pilot,2022.1.3,Win32,60.18295619,62bbe60bf3d75ef465d3e404,0,148,148,100,1,threeone,,,,,,,,,,,,,,,,,,,,,,,,,,,,,,,,,,,,,,,,,,,,,,,,,,,,,,,,,,,,,,,,,,,,,,,,,,,,,,,,,,,,,,,,,,,,,,,,,,,,,,,,,,,,,,,,,,,,,,,,,,,,,,,,,,,,,,,,,,,,,,,,,,,,,,,,
,,,,,,60ba101202b7fd117c0f3b94,62bbfb4a07d3805082066968,2022-06-29_09h12.20.086,Colour_Asymmetry_Pilot,2022.1.3,Win32,60.18295619,62bbe60bf3d75ef465d3e404,0,149,149,144,1,onetwo,,,,,,,,,,,,,,,,,,,,,,,,,,,,,,,,,,,,,,,,,,,,,,,,,,,,,,,,,,,,,,,,,,,,,,,,,,,,,,,,,,,,,,,,,,,,,,,,,,,,,,,,,,,,,,,,,,,,,,,,,,,,,,,,,,,,,,,,,,,,,,,,,,,,,,,,
,,,,,,60ba101202b7fd117c0f3b94,62bbfb4a07d3805082066968,2022-06-29_09h12.20.086,Colour_Asymmetry_Pilot,2022.1.3,Win32,60.18295619,62bbe60bf3d75ef465d3e404,0,150,150,2,1,twoone,,,,,,,,,,,,,,,,,,,,,,,,,,,,,,,,,,,,,,,,,,,,,,,,,,,,,,,,,,,,,,,,,,,,,,,,,,,,,,,,,,,,,,,,,,,,,,,,,,,,,,,,,,,,,,,,,,,,,,,,,,,,,,,,,,,,,,,,,,,,,,,,,,,,,,,,
,,,,,,60ba101202b7fd117c0f3b94,62bbfb4a07d3805082066968,2022-06-29_09h12.20.086,Colour_Asymmetry_Pilot,2022.1.3,Win32,60.18295619,62bbe60bf3d75ef465d3e404,0,151,151,76,1,threeone,,,,,,,,,,,,,,,,,,,,,,,,,,,,,,,,,,,,,,,,,,,,,,,,,,,,,,,,,,,,,,,,,,,,,,,,,,,,,,,,,,,,,,,,,,,,,,,,,,,,,,,,,,,,,,,,,,,,,,,,,,,,,,,,,,,,,,,,,,,,,,,,,,,,,,,,
,,,,,,60ba101202b7fd117c0f3b94,62bbfb4a07d3805082066968,2022-06-29_09h12.20.086,Colour_Asymmetry_Pilot,2022.1.3,Win32,60.18295619,62bbe60bf3d75ef465d3e404,0,152,152,5,1,threefour,,,,,,,,,,,,,,,,,,,,,,,,,,,,,,,,,,,,,,,,,,,,,,,,,,,,,,,,,,,,,,,,,,,,,,,,,,,,,,,,,,,,,,,,,,,,,,,,,,,,,,,,,,,,,,,,,,,,,,,,,,,,,,,,,,,,,,,,,,,,,,,,,,,,,,,,
,,,,,,60ba101202b7fd117c0f3b94,62bbfb4a07d3805082066968,2022-06-29_09h12.20.086,Colour_Asymmetry_Pilot,2022.1.3,Win32,60.18295619,62bbe60bf3d75ef465d3e404,0,153,153,8,1,onetwo,,,,,,,,,,,,,,,,,,,,,,,,,,,,,,,,,,,,,,,,,,,,,,,,,,,,,,,,,,,,,,,,,,,,,,,,,,,,,,,,,,,,,,,,,,,,,,,,,,,,,,,,,,,,,,,,,,,,,,,,,,,,,,,,,,,,,,,,,,,,,,,,,,,,,,,,
,,,,,,60ba101202b7fd117c0f3b94,62bbfb4a07d3805082066968,2022-06-29_09h12.20.086,Colour_Asymmetry_Pilot,2022.1.3,Win32,60.18295619,62bbe60bf3d75ef465d3e404,0,154,154,46,1,fourtwo,,,,,,,,,,,,,,,,,,,,,,,,,,,,,,,,,,,,,,,,,,,,,,,,,,,,,,,,,,,,,,,,,,,,,,,,,,,,,,,,,,,,,,,,,,,,,,,,,,,,,,,,,,,,,,,,,,,,,,,,,,,,,,,,,,,,,,,,,,,,,,,,,,,,,,,,
,,,,,,60ba101202b7fd117c0f3b94,62bbfb4a07d3805082066968,2022-06-29_09h12.20.086,Colour_Asymmetry_Pilot,2022.1.3,Win32,60.18295619,62bbe60bf3d75ef465d3e404,0,155,155,155,1,twofour,,,,,,,,,,,,,,,,,,,,,,,,,,,,,,,,,,,,,,,,,,,,,,,,,,,,,,,,,,,,,,,,,,,,,,,,,,,,,,,,,,,,,,,,,,,,,,,,,,,,,,,,,,,,,,,,,,,,,,,,,,,,,,,,,,,,,,,,,,,,,,,,,,,,,,,,
,,,,,,60ba101202b7fd117c0f3b94,62bbfb4a07d3805082066968,2022-06-29_09h12.20.086,Colour_Asymmetry_Pilot,2022.1.3,Win32,60.18295619,62bbe60bf3d75ef465d3e404,0,156,156,39,1,fourthree,,,,,,,,,,,,,,,,,,,,,,,,,,,,,,,,,,,,,,,,,,,,,,,,,,,,,,,,,,,,,,,,,,,,,,,,,,,,,,,,,,,,,,,,,,,,,,,,,,,,,,,,,,,,,,,,,,,,,,,,,,,,,,,,,,,,,,,,,,,,,,,,,,,,,,,,
,,,,,,60ba101202b7fd117c0f3b94,62bbfb4a07d3805082066968,2022-06-29_09h12.20.086,Colour_Asymmetry_Pilot,2022.1.3,Win32,60.18295619,62bbe60bf3d75ef465d3e404,0,157,157,131,1,twofour,,,,,,,,,,,,,,,,,,,,,,,,,,,,,,,,,,,,,,,,,,,,,,,,,,,,,,,,,,,,,,,,,,,,,,,,,,,,,,,,,,,,,,,,,,,,,,,,,,,,,,,,,,,,,,,,,,,,,,,,,,,,,,,,,,,,,,,,,,,,,,,,,,,,,,,,
,,,,,,60ba101202b7fd117c0f3b94,62bbfb4a07d3805082066968,2022-06-29_09h12.20.086,Colour_Asymmetry_Pilot,2022.1.3,Win32,60.18295619,62bbe60bf3d75ef465d3e404,0,158,158,67,1,twofour,,,,,,,,,,,,,,,,,,,,,,,,,,,,,,,,,,,,,,,,,,,,,,,,,,,,,,,,,,,,,,,,,,,,,,,,,,,,,,,,,,,,,,,,,,,,,,,,,,,,,,,,,,,,,,,,,,,,,,,,,,,,,,,,,,,,,,,,,,,,,,,,,,,,,,,,
,,,,,,60ba101202b7fd117c0f3b94,62bbfb4a07d3805082066968,2022-06-29_09h12.20.086,Colour_Asymmetry_Pilot,2022.1.3,Win32,60.18295619,62bbe60bf3d75ef465d3e404,0,159,159,41,1,onethree,,,,,,,,,,,,,,,,,,,,,,,,,,,,,,,,,,,,,,,,,,,,,,,,,,,,,,,,,,,,,,,,,,,,,,,,,,,,,,,,,,,,,,,,,,,,,,,,,,,,,,,,,,,,,,,,,,,,,,,,,,,,,,,,,,,,,,,,,,,,,,,,,,,,,,,,
,,,,,,60ba101202b7fd117c0f3b94,62bbfb4a07d3805082066968,2022-06-29_09h12.20.086,Colour_Asymmetry_Pilot,2022.1.3,Win32,60.18295619,62bbe60bf3d75ef465d3e404,0,160,160,105,1,onethree,,,,,,,,,,,,,,,,,,,,,,,,,,,,,,,,,,,,,,,,,,,,,,,,,,,,,,,,,,,,,,,,,,,,,,,,,,,,,,,,,,,,,,,,,,,,,,,,,,,,,,,,,,,,,,,,,,,,,,,,,,,,,,,,,,,,,,,,,,,,,,,,,,,,,,,,
,,,,,,60ba101202b7fd117c0f3b94,62bbfb4a07d3805082066968,2022-06-29_09h12.20.086,Colour_Asymmetry_Pilot,2022.1.3,Win32,60.18295619,62bbe60bf3d75ef465d3e404,0,161,161,146,1,twoone,,,,,,,,,,,,,,,,,,,,,,,,,,,,,,,,,,,,,,,,,,,,,,,,,,,,,,,,,,,,,,,,,,,,,,,,,,,,,,,,,,,,,,,,,,,,,,,,,,,,,,,,,,,,,,,,,,,,,,,,,,,,,,,,,,,,,,,,,,,,,,,,,,,,,,,,
,,,,,,60ba101202b7fd117c0f3b94,62bbfb4a07d3805082066968,2022-06-29_09h12.20.086,Colour_Asymmetry_Pilot,2022.1.3,Win32,60.18295619,62bbe60bf3d75ef465d3e404,,,,,,,space,1.4045,space,22.7834,space,31.2322,space,84.5506,space,1.4506,space,2.1206,"[-0.9688,-0.4902000000000001,-0.12159999999999993]",onethree,"[-0.20799999999999996,-0.655,-0.01980000000000004]",-2,12.8769,-76,-42,1,0,0,response5disk_5,13,-1,1,0,0,rectangle_8,32,102,1,0,0,response1disk_7,7,4,-2,0,1,0,0,rectangle_4,0,0,0,0,1,,,,,,,,,,,,,,,,,,,,,,,,,,,,,,,,,,,,,,,,,,,,,,,,,,,,,,,,,,,,,,,,,,,,,,,,,,,,,,,,,,,,,,,,,,,,,,,,,,,,,,,,
,,,,,,60ba101202b7fd117c0f3b94,62bbfb4a07d3805082066968,2022-06-29_09h12.20.086,Colour_Asymmetry_Pilot,2022.1.3,Win32,60.18295619,62bbe60bf3d75ef465d3e404,,,,,,,,,,,,,,,,,,,"[0.19199999999999995,0.18419999999999992,0.5136000000000001]",twoone,"[-0.48240000000000005,0.3175999999999999,0.2156]",1,8.4573,38,-90,1,0,0,response3disk_5,-8,1,1,0,0,rectangle_8,-8,1,1,0,0,,,4,-8,1,1,0,0,,1,0,1,0,1,,,,,,,,,,,,,,,,,,,,,,,,,,,,,,,,,,,,,,,,,,,,,,,,,,,,,,,,,,,,,,,,,,,,,,,,,,,,,,,,,,,,,,,,,,,,,,,,,,,,,,,,
,,,,,,60ba101202b7fd117c0f3b94,62bbfb4a07d3805082066968,2022-06-29_09h12.20.086,Colour_Asymmetry_Pilot,2022.1.3,Win32,60.18295619,62bbe60bf3d75ef465d3e404,,,,,,,,,,,,,,,,,,,"[-0.17659999999999998,-0.2864,-0.8354]",onetwo,"[-0.17659999999999998,0.3253999999999999,0.19999999999999996]",-1,2.8367,-55,-81,1,0,0,response5disk_5,2,-1,1,0,0,rectangle_8,2,-1,1,0,0,,,4,2,-1,1,0,0,,2,0,2,0,1,,,,,,,,,,,,,,,,,,,,,,,,,,,,,,,,,,,,,,,,,,,,,,,,,,,,,,,,,,,,,,,,,,,,,,,,,,,,,,,,,,,,,,,,,,,,,,,,,,,,,,,,
,,,,,,60ba101202b7fd117c0f3b94,62bbfb4a07d3805082066968,2022-06-29_09h12.20.086,Colour_Asymmetry_Pilot,2022.1.3,Win32,60.18295619,62bbe60bf3d75ef465d3e404,,,,,,,,,,,,,,,,,,,"[-0.9766,-0.6472,0.07440000000000002]",onetwo,"[0.4196,0.4665999999999999,0.3568]",-3,2.6187,-98,51,1,0,0,response7disk_5,1,-2,1,0,0,rectangle_8,1,-2,1,0,0,,,4,1,-2,1,0,0,,3,0,3,0,1,,,,,,,,,,,,,,,,,,,,,,,,,,,,,,,,,,,,,,,,,,,,,,,,,,,,,,,,,,,,,,,,,,,,,,,,,,,,,,,,,,,,,,,,,,,,,,,,,,,,,,,,
,,,,,,60ba101202b7fd117c0f3b94,62bbfb4a07d3805082066968,2022-06-29_09h12.20.086,Colour_Asymmetry_Pilot,2022.1.3,Win32,60.18295619,62bbe60bf3d75ef465d3e404,,,,,,,,,,,,,,,,,,,"[0.6547999999999998,-0.043199999999999905,-0.011800000000000033]",twofour,"[0.18419999999999992,-0.4276,-0.404]",3,2.3696,108,32,1,0,0,response1disk_5,1,0,1,0,0,rectangle_8,45,93,1,0,0,response1disk_7,7,4,6,-3,1,0,0,rectangle_4,4,0,4,0,1,,,,,,,,,,,,,,,,,,,,,,,,,,,,,,,,,,,,,,,,,,,,,,,,,,,,,,,,,,,,,,,,,,,,,,,,,,,,,,,,,,,,,,,,,,,,,,,,,,,,,,,,
,,,,,,60ba101202b7fd117c0f3b94,62bbfb4a07d3805082066968,2022-06-29_09h12.20.086,Colour_Asymmetry_Pilot,2022.1.3,Win32,60.18295619,62bbe60bf3d75ef465d3e404,,,,,,,,,,,,,,,,,,,"[-0.9296,-0.12959999999999994,-0.043199999999999905]",fourthree,"[-0.2942,-0.24719999999999998,-0.357]",2,1.7176,85,-45,1,0,0,response3disk_5,1,0,1,0,0,rectangle_8,1,0,1,0,0,,,4,1,0,1,0,0,,5,0,5,0,1,,,,,,,,,,,,,,,,,,,,,,,,,,,,,,,,,,,,,,,,,,,,,,,,,,,,,,,,,,,,,,,,,,,,,,,,,,,,,,,,,,,,,,,,,,,,,,,,,,,,,,,,
,,,,,,60ba101202b7fd117c0f3b94,62bbfb4a07d3805082066968,2022-06-29_09h12.20.086,Colour_Asymmetry_Pilot,2022.1.3,Win32,60.18295619,62bbe60bf3d75ef465d3e404,,,,,,,,,,,,,,,,,,,"[0.9372,0.9450000000000001,0.8980000000000001]",fourtwo,"[0.9686000000000001,0.5763999999999998,0.11359999999999992]",1,1.8514,38,-93,1,0,0,response3disk_5,-3,-4,1,0,0,rectangle_8,-3,-4,1,0,0,,,4,-3,-4,1,0,0,,6,0,6,0,1,,,,,,,,,,,,,,,,,,,,,,,,,,,,,,,,,,,,,,,,,,,,,,,,,,,,,,,,,,,,,,,,,,,,,,,,,,,,,,,,,,,,,,,,,,,,,,,,,,,,,,,,
,,,,,,60ba101202b7fd117c0f3b94,62bbfb4a07d3805082066968,2022-06-29_09h12.20.086,Colour_Asymmetry_Pilot,2022.1.3,Win32,60.18295619,62bbe60bf3d75ef465d3e404,,,,,,,,,,,,,,,,,,,,fourthree,,3,1.1534,,,,,,,,,,,,,,,,,,,,,,,,,,,,,,,,space,214.2359,"[-0.4668,-0.8746,-0.2942]","[-0.8118,-0.8198,-0.5452]",99,57,1,0,0,response1disk,2,-9,1,0,0,rectangle,2,-9,1,0,0,,2,0.0036,0,2,-9,1,0,0,0,0,0,122,1,41,second,,,,,,,,,,,,,,,,,,,,,,,,,,,,,,,,,,,,,,,,,,,,,,,,,,,,,,,,,,,,,,,,,,,
,,,,,,60ba101202b7fd117c0f3b94,62bbfb4a07d3805082066968,2022-06-29_09h12.20.086,Colour_Asymmetry_Pilot,2022.1.3,Win32,60.18295619,62bbe60bf3d75ef465d3e404,,,,,,,,,,,,,,,,,,,,onethree,,1,4.6546,,,,,,,,,,,,,,,,,,,,,,,,,,,,,,,,,,"[0.5449999999999999,-0.31000000000000005,-0.0354000000000001]","[-0.9688,-0.38039999999999996,-0.41979999999999995]",24,-77,1,0,0,response3disk,-10,-5,1,0,0,rectangle,-10,-5,1,0,0,,3,0.002,0,-10,-5,1,0,0,0,1,1,20,1,20,first,,,,,,,,,,,,,,,,,,,,,,,,,,,,,,,,,,,,,,,,,,,,,,,,,,,,,,,,,,,,,,,,,,,
,,,,,,60ba101202b7fd117c0f3b94,62bbfb4a07d3805082066968,2022-06-29_09h12.20.086,Colour_Asymmetry_Pilot,2022.1.3,Win32,60.18295619,62bbe60bf3d75ef465d3e404,,,,,,,,,,,,,,,,,,,,threeone,,-3,1.8691,,,,,,,,,,,,,,,,,,,,,,,,,,,,,,,,,,"[0.8115999999999999,-0.0040000000000000036,-0.09819999999999995]","[-0.8118,-0.8198,-0.5452]",-77,36,1,0,0,response7disk,-2,2,1,0,0,rectangle,94,34,1,0,0,3,3,9.1444,1,5,-7,1,0,0,0,2,2,97,1,16,second,response1disk_3,rectangle,,,,,,,,,,,,,,,,,,,,,,,,,,,,,,,,,,,,,,,,,,,,,,,,,,,,,,,,,,,,,,,,,
,,,,,,60ba101202b7fd117c0f3b94,62bbfb4a07d3805082066968,2022-06-29_09h12.20.086,Colour_Asymmetry_Pilot,2022.1.3,Win32,60.18295619,62bbe60bf3d75ef465d3e404,,,,,,,,,,,,,,,,,,,,twoone,,1,2.6534,,,,,,,,,,,,,,,,,,,,,,,,,,,,,,,,,,"[-0.4982,-0.2942,-0.0354000000000001]","[-0.4668,-0.8746,-0.2942]",42,-80,1,0,0,response3disk,-4,-12,1,0,0,rectangle,-4,-12,1,0,0,3,3,0.0006,0,-4,-12,1,0,0,0,3,3,132,1,51,second,,,,,,,,,,,,,,,,,,,,,,,,,,,,,,,,,,,,,,,,,,,,,,,,,,,,,,,,,,,,,,,,,,,
,,,,,,60ba101202b7fd117c0f3b94,62bbfb4a07d3805082066968,2022-06-29_09h12.20.086,Colour_Asymmetry_Pilot,2022.1.3,Win32,60.18295619,62bbe60bf3d75ef465d3e404,,,,,,,,,,,,,,,,,,,,twoone,,4,0.8855,,,,,,,,,,,,,,,,,,,,,,,,,,,,,,,,,,"[0.3802000000000001,0.19199999999999995,-0.6394]","[0.37240000000000006,-0.050999999999999934,-0.5216]",61,91,1,0,0,response1disk,3,-4,1,0,0,rectangle,3,-4,1,0,0,3,3,0.0007,0,3,-4,1,0,0,0,4,4,8,1,8,first,,,,,,,,,,,,,,,,,,,,,,,,,,,,,,,,,,,,,,,,,,,,,,,,,,,,,,,,,,,,,,,,,,,
,,,,,,60ba101202b7fd117c0f3b94,62bbfb4a07d3805082066968,2022-06-29_09h12.20.086,Colour_Asymmetry_Pilot,2022.1.3,Win32,60.18295619,62bbe60bf3d75ef465d3e404,,,,,,,,,,,,,,,,,,,,fourthree,,-3,1.1008,,,,,,,,,,,,,,,,,,,,,,,,,,,,,,,,,,"[-0.0040000000000000036,0.02739999999999987,-0.08239999999999992]","[-0.10599999999999998,-0.15300000000000002,0.15280000000000005]",-87,40,1,0,0,response7disk,-12,-6,1,0,0,rectangle,-12,-6,1,0,0,3,2,0.0022,0,-12,-6,1,0,0,0,5,5,126,1,45,second,,,,,,,,,,,,,,,,,,,,,,,,,,,,,,,,,,,,,,,,,,,,,,,,,,,,,,,,,,,,,,,,,,,
,,,,,,60ba101202b7fd117c0f3b94,62bbfb4a07d3805082066968,2022-06-29_09h12.20.086,Colour_Asymmetry_Pilot,2022.1.3,Win32,60.18295619,62bbe60bf3d75ef465d3e404,,,,,,,,,,,,,,,,,,,,fourtwo,,-2,1.9354,,,,,,,,,,,,,,,,,,,,,,,,,,,,,,,,,,"[-0.10599999999999998,-0.15300000000000002,0.15280000000000005]","[-0.8982,-0.37259999999999993,0.2784]",-54,-37,1,0,0,response5disk,13,-1,1,0,0,rectangle,13,-1,1,0,0,3,2,0.0006,0,13,-1,1,0,0,0,6,6,32,1,32,first,,,,,,,,,,,,,,,,,,,,,,,,,,,,,,,,,,,,,,,,,,,,,,,,,,,,,,,,,,,,,,,,,,,
,,,,,,60ba101202b7fd117c0f3b94,62bbfb4a07d3805082066968,2022-06-29_09h12.20.086,Colour_Asymmetry_Pilot,2022.1.3,Win32,60.18295619,62bbe60bf3d75ef465d3e404,,,,,,,,,,,,,,,,,,,,threeone,,3,0.7013,,,,,,,,,,,,,,,,,,,,,,,,,,,,,,,,,,"[0.2784,-0.31000000000000005,-0.5452]","[0.18419999999999992,-0.4276,-0.404]",76,63,1,0,0,response1disk,-17,4,1,0,0,rectangle,-17,4,1,0,0,3,1,0.0038,0,-17,4,1,0,0,0,7,7,143,1,62,second,,,,,,,,,,,,,,,,,,,,,,,,,,,,,,,,,,,,,,,,,,,,,,,,,,,,,,,,,,,,,,,,,,,
,,,,,,60ba101202b7fd117c0f3b94,62bbfb4a07d3805082066968,2022-06-29_09h12.20.086,Colour_Asymmetry_Pilot,2022.1.3,Win32,60.18295619,62bbe60bf3d75ef465d3e404,,,,,,,,,,,,,,,,,,,,onetwo,,-4,0.418,,,,,,,,,,,,,,,,,,,,,,,,,,,,,,,,,,"[0.9763999999999999,0.30979999999999985,-0.6786]","[-0.9766,-0.34920000000000007,0.2156]",-51,97,1,0,0,response7disk,-2,-3,1,0,0,rectangle,-2,-3,1,0,0,3,3,0.0017,0,-2,-3,1,0,0,0,8,8,82,1,1,second,,,,,,,,,,,,,,,,,,,,,,,,,,,,,,,,,,,,,,,,,,,,,,,,,,,,,,,,,,,,,,,,,,,
,,,,,,60ba101202b7fd117c0f3b94,62bbfb4a07d3805082066968,2022-06-29_09h12.20.086,Colour_Asymmetry_Pilot,2022.1.3,Win32,60.18295619,62bbe60bf3d75ef465d3e404,,,,,,,,,,,,,,,,,,,,twofour,,-3,0.5673,,,,,,,,,,,,,,,,,,,,,,,,,,,,,,,,,,"[-0.5688,-0.08239999999999992,-0.1844]","[0.796,0.2156,-0.27859999999999996]",-71,42,1,0,0,response7disk,-6,0,1,0,0,rectangle,-6,0,1,0,0,3,2,0.0006,0,-6,0,1,0,0,0,9,9,27,1,27,first,,,,,,,,,,,,,,,,,,,,,,,,,,,,,,,,,,,,,,,,,,,,,,,,,,,,,,,,,,,,,,,,,,,
,,,,,,60ba101202b7fd117c0f3b94,62bbfb4a07d3805082066968,2022-06-29_09h12.20.086,Colour_Asymmetry_Pilot,2022.1.3,Win32,60.18295619,62bbe60bf3d75ef465d3e404,,,,,,,,,,,,,,,,,,,,twoone,,-3,0.5003,,,,,,,,,,,,,,,,,,,,,,,,,,,,,,,,,,"[0.796,0.2156,-0.27859999999999996]","[-0.5688,-0.08239999999999992,-0.1844]",-69,41,1,0,0,response7disk,8,-6,1,0,0,rectangle,8,-6,1,0,0,3,2,0.0005,0,8,-6,1,0,0,0,10,10,108,1,27,second,,,,,,,,,,,,,,,,,,,,,,,,,,,,,,,,,,,,,,,,,,,,,,,,,,,,,,,,,,,,,,,,,,,
,,,,,,60ba101202b7fd117c0f3b94,62bbfb4a07d3805082066968,2022-06-29_09h12.20.086,Colour_Asymmetry_Pilot,2022.1.3,Win32,60.18295619,62bbe60bf3d75ef465d3e404,,,,,,,,,,,,,,,,,,,,twofour,,-2,0.6344,,,,,,,,,,,,,,,,,,,,,,,,,,,,,,,,,,"[0.05879999999999996,0.2784,0.5841999999999998]","[0.3802000000000001,0.19199999999999995,-0.6394]",-72,-37,1,0,0,response5disk,1,3,1,0,0,rectangle,1,3,1,0,0,3,2,0.0007,0,1,3,1,0,0,0,11,11,40,1,40,first,,,,,,,,,,,,,,,,,,,,,,,,,,,,,,,,,,,,,,,,,,,,,,,,,,,,,,,,,,,,,,,,,,,
,,,,,,60ba101202b7fd117c0f3b94,62bbfb4a07d3805082066968,2022-06-29_09h12.20.086,Colour_Asymmetry_Pilot,2022.1.3,Win32,60.18295619,62bbe60bf3d75ef465d3e404,,,,,,,,,,,,,,,,,,,,twoone,,-2,0.8841,,,,,,,,,,,,,,,,,,,,,,,,,,,,,,,,,,"[-0.26280000000000003,-0.2158,-0.3256]","[0.4196,0.4665999999999999,0.3568]",-57,-32,1,0,0,response5disk,0,13,1,0,0,rectangle,0,13,1,0,0,3,2,0.0007,0,0,13,1,0,0,0,12,12,107,1,26,second,,,,,,,,,,,,,,,,,,,,,,,,,,,,,,,,,,,,,,,,,,,,,,,,,,,,,,,,,,,,,,,,,,,
,,,,,,60ba101202b7fd117c0f3b94,62bbfb4a07d3805082066968,2022-06-29_09h12.20.086,Colour_Asymmetry_Pilot,2022.1.3,Win32,60.18295619,62bbe60bf3d75ef465d3e404,,,,,,,,,,,,,,,,,,,,threefour,,-3,0.434,,,,,,,,,,,,,,,,,,,,,,,,,,,,,,,,,,"[0.18419999999999992,-0.4276,-0.404]","[0.2862,0.7802,0.3568]",-70,38,1,0,0,response7disk,8,-6,1,0,0,rectangle,8,-6,1,0,0,3,3,0.0009,0,8,-6,1,0,0,0,13,13,22,1,22,first,,,,,,,,,,,,,,,,,,,,,,,,,,,,,,,,,,,,,,,,,,,,,,,,,,,,,,,,,,,,,,,,,,,
,,,,,,60ba101202b7fd117c0f3b94,62bbfb4a07d3805082066968,2022-06-29_09h12.20.086,Colour_Asymmetry_Pilot,2022.1.3,Win32,60.18295619,62bbe60bf3d75ef465d3e404,,,,,,,,,,,,,,,,,,,,onetwo,,-4,0.5503,,,,,,,,,,,,,,,,,,,,,,,,,,,,,,,,,,"[0.18419999999999992,-0.4276,-0.404]","[-0.10599999999999998,-0.10599999999999998,0.5841999999999998]",-57,75,1,0,0,response7disk,-9,-5,1,0,0,rectangle,-9,-5,1,0,0,3,3,0.0002,0,-9,-5,1,0,0,0,14,14,157,1,76,second,,,,,,,,,,,,,,,,,,,,,,,,,,,,,,,,,,,,,,,,,,,,,,,,,,,,,,,,,,,,,,,,,,,
,,,,,,60ba101202b7fd117c0f3b94,62bbfb4a07d3805082066968,2022-06-29_09h12.20.086,Colour_Asymmetry_Pilot,2022.1.3,Win32,60.18295619,62bbe60bf3d75ef465d3e404,,,,,,,,,,,,,,,,,,,,fourtwo,,-2,0.6682,,,,,,,,,,,,,,,,,,,,,,,,,,,,,,,,,,"[-0.48240000000000005,0.3175999999999999,0.2156]","[0.30180000000000007,-0.7884,-0.9844]",-69,-28,1,0,0,response5disk,-5,2,1,0,0,rectangle,-5,2,1,0,0,3,2,0.0008,0,-5,2,1,0,0,0,15,15,0,1,0,first,,,,,,,,,,,,,,,,,,,,,,,,,,,,,,,,,,,,,,,,,,,,,,,,,,,,,,,,,,,,,,,,,,,
,,,,,,60ba101202b7fd117c0f3b94,62bbfb4a07d3805082066968,2022-06-29_09h12.20.086,Colour_Asymmetry_Pilot,2022.1.3,Win32,60.18295619,62bbe60bf3d75ef465d3e404,,,,,,,,,,,,,,,,,,,,twoone,,-3,1.5193,,,,,,,,,,,,,,,,,,,,,,,,,,,,,,,,,,"[-0.9138,-0.5296000000000001,-0.5529999999999999]","[0.37240000000000006,-0.050999999999999934,-0.5216]",-79,55,1,0,0,response7disk,-18,11,1,0,0,rectangle,-18,11,1,0,0,3,3,0.0015,0,-18,11,1,0,0,0,16,16,156,1,75,second,,,,,,,,,,,,,,,,,,,,,,,,,,,,,,,,,,,,,,,,,,,,,,,,,,,,,,,,,,,,,,,,,,,
,,,,,,60ba101202b7fd117c0f3b94,62bbfb4a07d3805082066968,2022-06-29_09h12.20.086,Colour_Asymmetry_Pilot,2022.1.3,Win32,60.18295619,62bbe60bf3d75ef465d3e404,,,,,,,,,,,,,,,,,,,,onethree,,-1,0.8177,,,,,,,,,,,,,,,,,,,,,,,,,,,,,,,,,,"[0.2862,0.7802,0.3568]","[0.9213999999999998,0.6391999999999998,-0.9922]",-48,-79,1,0,0,response5disk,-4,3,1,0,0,rectangle,-4,3,1,0,0,3,3,0.0002,0,-4,3,1,0,0,0,17,17,33,1,33,first,,,,,,,,,,,,,,,,,,,,,,,,,,,,,,,,,,,,,,,,,,,,,,,,,,,,,,,,,,,,,,,,,,,
,,,,,,60ba101202b7fd117c0f3b94,62bbfb4a07d3805082066968,2022-06-29_09h12.20.086,Colour_Asymmetry_Pilot,2022.1.3,Win32,60.18295619,62bbe60bf3d75ef465d3e404,,,,,,,,,,,,,,,,,,,,threefour,,4,0.4516,,,,,,,,,,,,,,,,,,,,,,,,,,,,,,,,,,"[-0.48240000000000005,0.3175999999999999,0.2156]","[-0.17659999999999998,0.3253999999999999,0.19999999999999996]",60,109,1,0,0,response1disk,-2,-12,1,0,0,rectangle,-2,-12,1,0,0,3,3,0.0005,0,-2,-12,1,0,0,0,18,18,133,1,52,second,,,,,,,,,,,,,,,,,,,,,,,,,,,,,,,,,,,,,,,,,,,,,,,,,,,,,,,,,,,,,,,,,,,
,,,,,,60ba101202b7fd117c0f3b94,62bbfb4a07d3805082066968,2022-06-29_09h12.20.086,Colour_Asymmetry_Pilot,2022.1.3,Win32,60.18295619,62bbe60bf3d75ef465d3e404,,,,,,,,,,,,,,,,,,,,twofour,,2,0.6009,,,,,,,,,,,,,,,,,,,,,,,,,,,,,,,,,,"[-0.4982,-0.2942,-0.0354000000000001]","[-0.9138,-0.5296000000000001,-0.5529999999999999]",63,-34,1,0,0,response3disk,-12,-12,1,0,0,rectangle,-12,-12,1,0,0,3,1,0.0021,0,-12,-12,1,0,0,0,19,19,145,1,64,second,,,,,,,,,,,,,,,,,,,,,,,,,,,,,,,,,,,,,,,,,,,,,,,,,,,,,,,,,,,,,,,,,,,
,,,,,,60ba101202b7fd117c0f3b94,62bbfb4a07d3805082066968,2022-06-29_09h12.20.086,Colour_Asymmetry_Pilot,2022.1.3,Win32,60.18295619,62bbe60bf3d75ef465d3e404,,,,,,,,,,,,,,,,,,,,fourtwo,,-4,0.3172,,,,,,,,,,,,,,,,,,,,,,,,,,,,,,,,,,"[0.8115999999999999,-0.0040000000000000036,-0.09819999999999995]","[-0.6942,-0.7648,-0.12959999999999994]",-62,85,1,0,0,response7disk,-23,-9,1,0,0,rectangle,-23,-9,1,0,0,3,1,0.0009,0,-23,-9,1,0,0,0,20,20,42,1,42,first,,,,,,,,,,,,,,,,,,,,,,,,,,,,,,,,,,,,,,,,,,,,,,,,,,,,,,,,,,,,,,,,,,,
