trials.thisRepN,trials.thisTrialN,trials.thisN,trials.thisIndex,trials.ran,Colourcodes,participant,session,date,expName,psychopyVersion,OS,frameRate,study_id,trials_4.thisRepN,trials_4.thisTrialN,trials_4.thisN,trials_4.thisIndex,trials_4.ran,StimulusPos,key_resp.keys,key_resp.rt,key_resp_2.keys,key_resp_2.rt,key_resp_15.keys,key_resp_15.rt,key_resp_17.keys,key_resp_17.rt,key_resp_9.keys,key_resp_9.rt,key_resp_10.keys,key_resp_10.rt,Circle1_col,Ecc,Circle2_col,similarity,response_time,mouse_5.x,mouse_5.y,mouse_5.leftButton,mouse_5.midButton,mouse_5.rightButton,mouse_5.clicked_name,mouse_10.x,mouse_10.y,mouse_10.leftButton,mouse_10.midButton,mouse_10.rightButton,mouse_10.clicked_name,mouse_7.x,mouse_7.y,mouse_7.leftButton,mouse_7.midButton,mouse_7.rightButton,catchnumberprac,mouse_6.x,mouse_6.y,mouse_6.leftButton,mouse_6.midButton,mouse_6.rightButton,duringprac.thisRepN,duringprac.thisTrialN,duringprac.thisN,duringprac.thisIndex,duringprac.ran,mouse_7.clicked_name,catchprac,mouse_6.clicked_name,key_resp_22.keys,key_resp_22.rt,Circle1_colour,Circle2_colour,mouse.x,mouse.y,mouse.leftButton,mouse.midButton,mouse.rightButton,mouse.clicked_name,mouse_2.x,mouse_2.y,mouse_2.leftButton,mouse_2.midButton,mouse_2.rightButton,mouse_2.clicked_name,mouse_3.x,mouse_3.y,mouse_3.leftButton,mouse_3.midButton,mouse_3.rightButton,catchresponse,catchnumber,response_time_catch,Catch,mouse_11.x,mouse_11.y,mouse_11.leftButton,mouse_11.midButton,mouse_11.rightButton,trials_2.thisRepN,trials_2.thisTrialN,trials_2.thisN,trials_2.thisIndex,trials_2.ran,Colourpair,Temporder,mouse_3.clicked_name,mouse_11.clicked_name,trials_3.thisRepN,trials_3.thisTrialN,trials_3.thisN,trials_3.thisIndex,trials_3.ran,key_resp_instr_Ishi.keys,key_resp_instr_Ishi.rt,Ishi_trial_keyresp.keys,Ishi_trial_keyresp.rt,Ishi_textbox.text,Ishi_loop.thisRepN,Ishi_loop.thisTrialN,Ishi_loop.thisN,Ishi_loop.thisIndex,Ishi_loop.ran,imageaddress,textbox.text,mouse_4.x,mouse_4.y,mouse_4.leftButton,mouse_4.midButton,mouse_4.rightButton,mouse_4.clicked_name,textbox_2.text,mouse_8.x,mouse_8.y,mouse_8.leftButton,mouse_8.midButton,mouse_8.rightButton,mouse_8.clicked_name,textbox_3.text,mouse_9.x,mouse_9.y,mouse_9.leftButton,mouse_9.midButton,mouse_9.rightButton,mouse_9.clicked_name,textbox_4.text,mouse_12.x,mouse_12.y,mouse_12.leftButton,mouse_12.midButton,mouse_12.rightButton,mouse_12.clicked_name,textbox_5.text,mouse_13.x,mouse_13.y,mouse_13.leftButton,mouse_13.midButton,mouse_13.rightButton,mouse_13.clicked_name,textbox_6.text,mouse_14.x,mouse_14.y,mouse_14.leftButton,mouse_14.midButton,mouse_14.rightButton,mouse_14.clicked_name,textbox_7.text,mouse_15.x,mouse_15.y,mouse_15.leftButton,mouse_15.midButton,mouse_15.rightButton,mouse_15.clicked_name
0,0,0,79,1,,61154503002b93af22a9353d,62bbfb75e7de68c3549c517e,2022-06-29_09h14.06.676,Colour_Asymmetry_Pilot,2022.1.3,Win32,59.93407252,62bbe60bf3d75ef465d3e404,,,,,,,,,,,,,,,,,,,,,,,,,,,,,,,,,,,,,,,,,,,,,,,,,,,,,,,,,,,,,,,,,,,,,,,,,,,,,,,,,,,,,,,,,,,,,,,,,,,,,,,,,,,,,,,,,,,,,,,,,,,,,,,,,,,,,,,,,,,,,,,,,,,,,,,,,,,,,,
0,1,1,23,1,,61154503002b93af22a9353d,62bbfb75e7de68c3549c517e,2022-06-29_09h14.06.676,Colour_Asymmetry_Pilot,2022.1.3,Win32,59.93407252,62bbe60bf3d75ef465d3e404,,,,,,,,,,,,,,,,,,,,,,,,,,,,,,,,,,,,,,,,,,,,,,,,,,,,,,,,,,,,,,,,,,,,,,,,,,,,,,,,,,,,,,,,,,,,,,,,,,,,,,,,,,,,,,,,,,,,,,,,,,,,,,,,,,,,,,,,,,,,,,,,,,,,,,,,,,,,,,
0,2,2,48,1,,61154503002b93af22a9353d,62bbfb75e7de68c3549c517e,2022-06-29_09h14.06.676,Colour_Asymmetry_Pilot,2022.1.3,Win32,59.93407252,62bbe60bf3d75ef465d3e404,,,,,,,,,,,,,,,,,,,,,,,,,,,,,,,,,,,,,,,,,,,,,,,,,,,,,,,,,,,,,,,,,,,,,,,,,,,,,,,,,,,,,,,,,,,,,,,,,,,,,,,,,,,,,,,,,,,,,,,,,,,,,,,,,,,,,,,,,,,,,,,,,,,,,,,,,,,,,,
0,3,3,49,1,,61154503002b93af22a9353d,62bbfb75e7de68c3549c517e,2022-06-29_09h14.06.676,Colour_Asymmetry_Pilot,2022.1.3,Win32,59.93407252,62bbe60bf3d75ef465d3e404,,,,,,,,,,,,,,,,,,,,,,,,,,,,,,,,,,,,,,,,,,,,,,,,,,,,,,,,,,,,,,,,,,,,,,,,,,,,,,,,,,,,,,,,,,,,,,,,,,,,,,,,,,,,,,,,,,,,,,,,,,,,,,,,,,,,,,,,,,,,,,,,,,,,,,,,,,,,,,
0,4,4,89,1,,61154503002b93af22a9353d,62bbfb75e7de68c3549c517e,2022-06-29_09h14.06.676,Colour_Asymmetry_Pilot,2022.1.3,Win32,59.93407252,62bbe60bf3d75ef465d3e404,,,,,,,,,,,,,,,,,,,,,,,,,,,,,,,,,,,,,,,,,,,,,,,,,,,,,,,,,,,,,,,,,,,,,,,,,,,,,,,,,,,,,,,,,,,,,,,,,,,,,,,,,,,,,,,,,,,,,,,,,,,,,,,,,,,,,,,,,,,,,,,,,,,,,,,,,,,,,,
0,5,5,35,1,,61154503002b93af22a9353d,62bbfb75e7de68c3549c517e,2022-06-29_09h14.06.676,Colour_Asymmetry_Pilot,2022.1.3,Win32,59.93407252,62bbe60bf3d75ef465d3e404,,,,,,,,,,,,,,,,,,,,,,,,,,,,,,,,,,,,,,,,,,,,,,,,,,,,,,,,,,,,,,,,,,,,,,,,,,,,,,,,,,,,,,,,,,,,,,,,,,,,,,,,,,,,,,,,,,,,,,,,,,,,,,,,,,,,,,,,,,,,,,,,,,,,,,,,,,,,,,
0,6,6,42,1,,61154503002b93af22a9353d,62bbfb75e7de68c3549c517e,2022-06-29_09h14.06.676,Colour_Asymmetry_Pilot,2022.1.3,Win32,59.93407252,62bbe60bf3d75ef465d3e404,,,,,,,,,,,,,,,,,,,,,,,,,,,,,,,,,,,,,,,,,,,,,,,,,,,,,,,,,,,,,,,,,,,,,,,,,,,,,,,,,,,,,,,,,,,,,,,,,,,,,,,,,,,,,,,,,,,,,,,,,,,,,,,,,,,,,,,,,,,,,,,,,,,,,,,,,,,,,,
0,7,7,60,1,,61154503002b93af22a9353d,62bbfb75e7de68c3549c517e,2022-06-29_09h14.06.676,Colour_Asymmetry_Pilot,2022.1.3,Win32,59.93407252,62bbe60bf3d75ef465d3e404,,,,,,,,,,,,,,,,,,,,,,,,,,,,,,,,,,,,,,,,,,,,,,,,,,,,,,,,,,,,,,,,,,,,,,,,,,,,,,,,,,,,,,,,,,,,,,,,,,,,,,,,,,,,,,,,,,,,,,,,,,,,,,,,,,,,,,,,,,,,,,,,,,,,,,,,,,,,,,
0,8,8,13,1,,61154503002b93af22a9353d,62bbfb75e7de68c3549c517e,2022-06-29_09h14.06.676,Colour_Asymmetry_Pilot,2022.1.3,Win32,59.93407252,62bbe60bf3d75ef465d3e404,,,,,,,,,,,,,,,,,,,,,,,,,,,,,,,,,,,,,,,,,,,,,,,,,,,,,,,,,,,,,,,,,,,,,,,,,,,,,,,,,,,,,,,,,,,,,,,,,,,,,,,,,,,,,,,,,,,,,,,,,,,,,,,,,,,,,,,,,,,,,,,,,,,,,,,,,,,,,,
0,9,9,39,1,,61154503002b93af22a9353d,62bbfb75e7de68c3549c517e,2022-06-29_09h14.06.676,Colour_Asymmetry_Pilot,2022.1.3,Win32,59.93407252,62bbe60bf3d75ef465d3e404,,,,,,,,,,,,,,,,,,,,,,,,,,,,,,,,,,,,,,,,,,,,,,,,,,,,,,,,,,,,,,,,,,,,,,,,,,,,,,,,,,,,,,,,,,,,,,,,,,,,,,,,,,,,,,,,,,,,,,,,,,,,,,,,,,,,,,,,,,,,,,,,,,,,,,,,,,,,,,
0,10,10,65,1,,61154503002b93af22a9353d,62bbfb75e7de68c3549c517e,2022-06-29_09h14.06.676,Colour_Asymmetry_Pilot,2022.1.3,Win32,59.93407252,62bbe60bf3d75ef465d3e404,,,,,,,,,,,,,,,,,,,,,,,,,,,,,,,,,,,,,,,,,,,,,,,,,,,,,,,,,,,,,,,,,,,,,,,,,,,,,,,,,,,,,,,,,,,,,,,,,,,,,,,,,,,,,,,,,,,,,,,,,,,,,,,,,,,,,,,,,,,,,,,,,,,,,,,,,,,,,,
0,11,11,83,1,,61154503002b93af22a9353d,62bbfb75e7de68c3549c517e,2022-06-29_09h14.06.676,Colour_Asymmetry_Pilot,2022.1.3,Win32,59.93407252,62bbe60bf3d75ef465d3e404,,,,,,,,,,,,,,,,,,,,,,,,,,,,,,,,,,,,,,,,,,,,,,,,,,,,,,,,,,,,,,,,,,,,,,,,,,,,,,,,,,,,,,,,,,,,,,,,,,,,,,,,,,,,,,,,,,,,,,,,,,,,,,,,,,,,,,,,,,,,,,,,,,,,,,,,,,,,,,
0,12,12,53,1,,61154503002b93af22a9353d,62bbfb75e7de68c3549c517e,2022-06-29_09h14.06.676,Colour_Asymmetry_Pilot,2022.1.3,Win32,59.93407252,62bbe60bf3d75ef465d3e404,,,,,,,,,,,,,,,,,,,,,,,,,,,,,,,,,,,,,,,,,,,,,,,,,,,,,,,,,,,,,,,,,,,,,,,,,,,,,,,,,,,,,,,,,,,,,,,,,,,,,,,,,,,,,,,,,,,,,,,,,,,,,,,,,,,,,,,,,,,,,,,,,,,,,,,,,,,,,,
0,13,13,51,1,,61154503002b93af22a9353d,62bbfb75e7de68c3549c517e,2022-06-29_09h14.06.676,Colour_Asymmetry_Pilot,2022.1.3,Win32,59.93407252,62bbe60bf3d75ef465d3e404,,,,,,,,,,,,,,,,,,,,,,,,,,,,,,,,,,,,,,,,,,,,,,,,,,,,,,,,,,,,,,,,,,,,,,,,,,,,,,,,,,,,,,,,,,,,,,,,,,,,,,,,,,,,,,,,,,,,,,,,,,,,,,,,,,,,,,,,,,,,,,,,,,,,,,,,,,,,,,
0,14,14,16,1,,61154503002b93af22a9353d,62bbfb75e7de68c3549c517e,2022-06-29_09h14.06.676,Colour_Asymmetry_Pilot,2022.1.3,Win32,59.93407252,62bbe60bf3d75ef465d3e404,,,,,,,,,,,,,,,,,,,,,,,,,,,,,,,,,,,,,,,,,,,,,,,,,,,,,,,,,,,,,,,,,,,,,,,,,,,,,,,,,,,,,,,,,,,,,,,,,,,,,,,,,,,,,,,,,,,,,,,,,,,,,,,,,,,,,,,,,,,,,,,,,,,,,,,,,,,,,,
0,15,15,15,1,,61154503002b93af22a9353d,62bbfb75e7de68c3549c517e,2022-06-29_09h14.06.676,Colour_Asymmetry_Pilot,2022.1.3,Win32,59.93407252,62bbe60bf3d75ef465d3e404,,,,,,,,,,,,,,,,,,,,,,,,,,,,,,,,,,,,,,,,,,,,,,,,,,,,,,,,,,,,,,,,,,,,,,,,,,,,,,,,,,,,,,,,,,,,,,,,,,,,,,,,,,,,,,,,,,,,,,,,,,,,,,,,,,,,,,,,,,,,,,,,,,,,,,,,,,,,,,
0,16,16,76,1,,61154503002b93af22a9353d,62bbfb75e7de68c3549c517e,2022-06-29_09h14.06.676,Colour_Asymmetry_Pilot,2022.1.3,Win32,59.93407252,62bbe60bf3d75ef465d3e404,,,,,,,,,,,,,,,,,,,,,,,,,,,,,,,,,,,,,,,,,,,,,,,,,,,,,,,,,,,,,,,,,,,,,,,,,,,,,,,,,,,,,,,,,,,,,,,,,,,,,,,,,,,,,,,,,,,,,,,,,,,,,,,,,,,,,,,,,,,,,,,,,,,,,,,,,,,,,,
0,17,17,78,1,,61154503002b93af22a9353d,62bbfb75e7de68c3549c517e,2022-06-29_09h14.06.676,Colour_Asymmetry_Pilot,2022.1.3,Win32,59.93407252,62bbe60bf3d75ef465d3e404,,,,,,,,,,,,,,,,,,,,,,,,,,,,,,,,,,,,,,,,,,,,,,,,,,,,,,,,,,,,,,,,,,,,,,,,,,,,,,,,,,,,,,,,,,,,,,,,,,,,,,,,,,,,,,,,,,,,,,,,,,,,,,,,,,,,,,,,,,,,,,,,,,,,,,,,,,,,,,
0,18,18,36,1,,61154503002b93af22a9353d,62bbfb75e7de68c3549c517e,2022-06-29_09h14.06.676,Colour_Asymmetry_Pilot,2022.1.3,Win32,59.93407252,62bbe60bf3d75ef465d3e404,,,,,,,,,,,,,,,,,,,,,,,,,,,,,,,,,,,,,,,,,,,,,,,,,,,,,,,,,,,,,,,,,,,,,,,,,,,,,,,,,,,,,,,,,,,,,,,,,,,,,,,,,,,,,,,,,,,,,,,,,,,,,,,,,,,,,,,,,,,,,,,,,,,,,,,,,,,,,,
0,19,19,33,1,,61154503002b93af22a9353d,62bbfb75e7de68c3549c517e,2022-06-29_09h14.06.676,Colour_Asymmetry_Pilot,2022.1.3,Win32,59.93407252,62bbe60bf3d75ef465d3e404,,,,,,,,,,,,,,,,,,,,,,,,,,,,,,,,,,,,,,,,,,,,,,,,,,,,,,,,,,,,,,,,,,,,,,,,,,,,,,,,,,,,,,,,,,,,,,,,,,,,,,,,,,,,,,,,,,,,,,,,,,,,,,,,,,,,,,,,,,,,,,,,,,,,,,,,,,,,,,
0,20,20,70,1,,61154503002b93af22a9353d,62bbfb75e7de68c3549c517e,2022-06-29_09h14.06.676,Colour_Asymmetry_Pilot,2022.1.3,Win32,59.93407252,62bbe60bf3d75ef465d3e404,,,,,,,,,,,,,,,,,,,,,,,,,,,,,,,,,,,,,,,,,,,,,,,,,,,,,,,,,,,,,,,,,,,,,,,,,,,,,,,,,,,,,,,,,,,,,,,,,,,,,,,,,,,,,,,,,,,,,,,,,,,,,,,,,,,,,,,,,,,,,,,,,,,,,,,,,,,,,,
0,21,21,11,1,,61154503002b93af22a9353d,62bbfb75e7de68c3549c517e,2022-06-29_09h14.06.676,Colour_Asymmetry_Pilot,2022.1.3,Win32,59.93407252,62bbe60bf3d75ef465d3e404,,,,,,,,,,,,,,,,,,,,,,,,,,,,,,,,,,,,,,,,,,,,,,,,,,,,,,,,,,,,,,,,,,,,,,,,,,,,,,,,,,,,,,,,,,,,,,,,,,,,,,,,,,,,,,,,,,,,,,,,,,,,,,,,,,,,,,,,,,,,,,,,,,,,,,,,,,,,,,
0,22,22,52,1,,61154503002b93af22a9353d,62bbfb75e7de68c3549c517e,2022-06-29_09h14.06.676,Colour_Asymmetry_Pilot,2022.1.3,Win32,59.93407252,62bbe60bf3d75ef465d3e404,,,,,,,,,,,,,,,,,,,,,,,,,,,,,,,,,,,,,,,,,,,,,,,,,,,,,,,,,,,,,,,,,,,,,,,,,,,,,,,,,,,,,,,,,,,,,,,,,,,,,,,,,,,,,,,,,,,,,,,,,,,,,,,,,,,,,,,,,,,,,,,,,,,,,,,,,,,,,,
0,23,23,24,1,,61154503002b93af22a9353d,62bbfb75e7de68c3549c517e,2022-06-29_09h14.06.676,Colour_Asymmetry_Pilot,2022.1.3,Win32,59.93407252,62bbe60bf3d75ef465d3e404,,,,,,,,,,,,,,,,,,,,,,,,,,,,,,,,,,,,,,,,,,,,,,,,,,,,,,,,,,,,,,,,,,,,,,,,,,,,,,,,,,,,,,,,,,,,,,,,,,,,,,,,,,,,,,,,,,,,,,,,,,,,,,,,,,,,,,,,,,,,,,,,,,,,,,,,,,,,,,
0,24,24,43,1,,61154503002b93af22a9353d,62bbfb75e7de68c3549c517e,2022-06-29_09h14.06.676,Colour_Asymmetry_Pilot,2022.1.3,Win32,59.93407252,62bbe60bf3d75ef465d3e404,,,,,,,,,,,,,,,,,,,,,,,,,,,,,,,,,,,,,,,,,,,,,,,,,,,,,,,,,,,,,,,,,,,,,,,,,,,,,,,,,,,,,,,,,,,,,,,,,,,,,,,,,,,,,,,,,,,,,,,,,,,,,,,,,,,,,,,,,,,,,,,,,,,,,,,,,,,,,,
0,25,25,8,1,,61154503002b93af22a9353d,62bbfb75e7de68c3549c517e,2022-06-29_09h14.06.676,Colour_Asymmetry_Pilot,2022.1.3,Win32,59.93407252,62bbe60bf3d75ef465d3e404,,,,,,,,,,,,,,,,,,,,,,,,,,,,,,,,,,,,,,,,,,,,,,,,,,,,,,,,,,,,,,,,,,,,,,,,,,,,,,,,,,,,,,,,,,,,,,,,,,,,,,,,,,,,,,,,,,,,,,,,,,,,,,,,,,,,,,,,,,,,,,,,,,,,,,,,,,,,,,
0,26,26,10,1,,61154503002b93af22a9353d,62bbfb75e7de68c3549c517e,2022-06-29_09h14.06.676,Colour_Asymmetry_Pilot,2022.1.3,Win32,59.93407252,62bbe60bf3d75ef465d3e404,,,,,,,,,,,,,,,,,,,,,,,,,,,,,,,,,,,,,,,,,,,,,,,,,,,,,,,,,,,,,,,,,,,,,,,,,,,,,,,,,,,,,,,,,,,,,,,,,,,,,,,,,,,,,,,,,,,,,,,,,,,,,,,,,,,,,,,,,,,,,,,,,,,,,,,,,,,,,,
0,27,27,14,1,,61154503002b93af22a9353d,62bbfb75e7de68c3549c517e,2022-06-29_09h14.06.676,Colour_Asymmetry_Pilot,2022.1.3,Win32,59.93407252,62bbe60bf3d75ef465d3e404,,,,,,,,,,,,,,,,,,,,,,,,,,,,,,,,,,,,,,,,,,,,,,,,,,,,,,,,,,,,,,,,,,,,,,,,,,,,,,,,,,,,,,,,,,,,,,,,,,,,,,,,,,,,,,,,,,,,,,,,,,,,,,,,,,,,,,,,,,,,,,,,,,,,,,,,,,,,,,
0,28,28,66,1,,61154503002b93af22a9353d,62bbfb75e7de68c3549c517e,2022-06-29_09h14.06.676,Colour_Asymmetry_Pilot,2022.1.3,Win32,59.93407252,62bbe60bf3d75ef465d3e404,,,,,,,,,,,,,,,,,,,,,,,,,,,,,,,,,,,,,,,,,,,,,,,,,,,,,,,,,,,,,,,,,,,,,,,,,,,,,,,,,,,,,,,,,,,,,,,,,,,,,,,,,,,,,,,,,,,,,,,,,,,,,,,,,,,,,,,,,,,,,,,,,,,,,,,,,,,,,,
0,29,29,56,1,,61154503002b93af22a9353d,62bbfb75e7de68c3549c517e,2022-06-29_09h14.06.676,Colour_Asymmetry_Pilot,2022.1.3,Win32,59.93407252,62bbe60bf3d75ef465d3e404,,,,,,,,,,,,,,,,,,,,,,,,,,,,,,,,,,,,,,,,,,,,,,,,,,,,,,,,,,,,,,,,,,,,,,,,,,,,,,,,,,,,,,,,,,,,,,,,,,,,,,,,,,,,,,,,,,,,,,,,,,,,,,,,,,,,,,,,,,,,,,,,,,,,,,,,,,,,,,
0,30,30,75,1,,61154503002b93af22a9353d,62bbfb75e7de68c3549c517e,2022-06-29_09h14.06.676,Colour_Asymmetry_Pilot,2022.1.3,Win32,59.93407252,62bbe60bf3d75ef465d3e404,,,,,,,,,,,,,,,,,,,,,,,,,,,,,,,,,,,,,,,,,,,,,,,,,,,,,,,,,,,,,,,,,,,,,,,,,,,,,,,,,,,,,,,,,,,,,,,,,,,,,,,,,,,,,,,,,,,,,,,,,,,,,,,,,,,,,,,,,,,,,,,,,,,,,,,,,,,,,,
0,31,31,85,1,,61154503002b93af22a9353d,62bbfb75e7de68c3549c517e,2022-06-29_09h14.06.676,Colour_Asymmetry_Pilot,2022.1.3,Win32,59.93407252,62bbe60bf3d75ef465d3e404,,,,,,,,,,,,,,,,,,,,,,,,,,,,,,,,,,,,,,,,,,,,,,,,,,,,,,,,,,,,,,,,,,,,,,,,,,,,,,,,,,,,,,,,,,,,,,,,,,,,,,,,,,,,,,,,,,,,,,,,,,,,,,,,,,,,,,,,,,,,,,,,,,,,,,,,,,,,,,
0,32,32,25,1,,61154503002b93af22a9353d,62bbfb75e7de68c3549c517e,2022-06-29_09h14.06.676,Colour_Asymmetry_Pilot,2022.1.3,Win32,59.93407252,62bbe60bf3d75ef465d3e404,,,,,,,,,,,,,,,,,,,,,,,,,,,,,,,,,,,,,,,,,,,,,,,,,,,,,,,,,,,,,,,,,,,,,,,,,,,,,,,,,,,,,,,,,,,,,,,,,,,,,,,,,,,,,,,,,,,,,,,,,,,,,,,,,,,,,,,,,,,,,,,,,,,,,,,,,,,,,,
0,33,33,88,1,,61154503002b93af22a9353d,62bbfb75e7de68c3549c517e,2022-06-29_09h14.06.676,Colour_Asymmetry_Pilot,2022.1.3,Win32,59.93407252,62bbe60bf3d75ef465d3e404,,,,,,,,,,,,,,,,,,,,,,,,,,,,,,,,,,,,,,,,,,,,,,,,,,,,,,,,,,,,,,,,,,,,,,,,,,,,,,,,,,,,,,,,,,,,,,,,,,,,,,,,,,,,,,,,,,,,,,,,,,,,,,,,,,,,,,,,,,,,,,,,,,,,,,,,,,,,,,
0,34,34,41,1,,61154503002b93af22a9353d,62bbfb75e7de68c3549c517e,2022-06-29_09h14.06.676,Colour_Asymmetry_Pilot,2022.1.3,Win32,59.93407252,62bbe60bf3d75ef465d3e404,,,,,,,,,,,,,,,,,,,,,,,,,,,,,,,,,,,,,,,,,,,,,,,,,,,,,,,,,,,,,,,,,,,,,,,,,,,,,,,,,,,,,,,,,,,,,,,,,,,,,,,,,,,,,,,,,,,,,,,,,,,,,,,,,,,,,,,,,,,,,,,,,,,,,,,,,,,,,,
0,35,35,38,1,,61154503002b93af22a9353d,62bbfb75e7de68c3549c517e,2022-06-29_09h14.06.676,Colour_Asymmetry_Pilot,2022.1.3,Win32,59.93407252,62bbe60bf3d75ef465d3e404,,,,,,,,,,,,,,,,,,,,,,,,,,,,,,,,,,,,,,,,,,,,,,,,,,,,,,,,,,,,,,,,,,,,,,,,,,,,,,,,,,,,,,,,,,,,,,,,,,,,,,,,,,,,,,,,,,,,,,,,,,,,,,,,,,,,,,,,,,,,,,,,,,,,,,,,,,,,,,
0,36,36,84,1,,61154503002b93af22a9353d,62bbfb75e7de68c3549c517e,2022-06-29_09h14.06.676,Colour_Asymmetry_Pilot,2022.1.3,Win32,59.93407252,62bbe60bf3d75ef465d3e404,,,,,,,,,,,,,,,,,,,,,,,,,,,,,,,,,,,,,,,,,,,,,,,,,,,,,,,,,,,,,,,,,,,,,,,,,,,,,,,,,,,,,,,,,,,,,,,,,,,,,,,,,,,,,,,,,,,,,,,,,,,,,,,,,,,,,,,,,,,,,,,,,,,,,,,,,,,,,,
0,37,37,74,1,,61154503002b93af22a9353d,62bbfb75e7de68c3549c517e,2022-06-29_09h14.06.676,Colour_Asymmetry_Pilot,2022.1.3,Win32,59.93407252,62bbe60bf3d75ef465d3e404,,,,,,,,,,,,,,,,,,,,,,,,,,,,,,,,,,,,,,,,,,,,,,,,,,,,,,,,,,,,,,,,,,,,,,,,,,,,,,,,,,,,,,,,,,,,,,,,,,,,,,,,,,,,,,,,,,,,,,,,,,,,,,,,,,,,,,,,,,,,,,,,,,,,,,,,,,,,,,
0,38,38,69,1,,61154503002b93af22a9353d,62bbfb75e7de68c3549c517e,2022-06-29_09h14.06.676,Colour_Asymmetry_Pilot,2022.1.3,Win32,59.93407252,62bbe60bf3d75ef465d3e404,,,,,,,,,,,,,,,,,,,,,,,,,,,,,,,,,,,,,,,,,,,,,,,,,,,,,,,,,,,,,,,,,,,,,,,,,,,,,,,,,,,,,,,,,,,,,,,,,,,,,,,,,,,,,,,,,,,,,,,,,,,,,,,,,,,,,,,,,,,,,,,,,,,,,,,,,,,,,,
0,39,39,26,1,,61154503002b93af22a9353d,62bbfb75e7de68c3549c517e,2022-06-29_09h14.06.676,Colour_Asymmetry_Pilot,2022.1.3,Win32,59.93407252,62bbe60bf3d75ef465d3e404,,,,,,,,,,,,,,,,,,,,,,,,,,,,,,,,,,,,,,,,,,,,,,,,,,,,,,,,,,,,,,,,,,,,,,,,,,,,,,,,,,,,,,,,,,,,,,,,,,,,,,,,,,,,,,,,,,,,,,,,,,,,,,,,,,,,,,,,,,,,,,,,,,,,,,,,,,,,,,
0,40,40,81,1,,61154503002b93af22a9353d,62bbfb75e7de68c3549c517e,2022-06-29_09h14.06.676,Colour_Asymmetry_Pilot,2022.1.3,Win32,59.93407252,62bbe60bf3d75ef465d3e404,,,,,,,,,,,,,,,,,,,,,,,,,,,,,,,,,,,,,,,,,,,,,,,,,,,,,,,,,,,,,,,,,,,,,,,,,,,,,,,,,,,,,,,,,,,,,,,,,,,,,,,,,,,,,,,,,,,,,,,,,,,,,,,,,,,,,,,,,,,,,,,,,,,,,,,,,,,,,,
0,41,41,86,1,,61154503002b93af22a9353d,62bbfb75e7de68c3549c517e,2022-06-29_09h14.06.676,Colour_Asymmetry_Pilot,2022.1.3,Win32,59.93407252,62bbe60bf3d75ef465d3e404,,,,,,,,,,,,,,,,,,,,,,,,,,,,,,,,,,,,,,,,,,,,,,,,,,,,,,,,,,,,,,,,,,,,,,,,,,,,,,,,,,,,,,,,,,,,,,,,,,,,,,,,,,,,,,,,,,,,,,,,,,,,,,,,,,,,,,,,,,,,,,,,,,,,,,,,,,,,,,
0,42,42,6,1,,61154503002b93af22a9353d,62bbfb75e7de68c3549c517e,2022-06-29_09h14.06.676,Colour_Asymmetry_Pilot,2022.1.3,Win32,59.93407252,62bbe60bf3d75ef465d3e404,,,,,,,,,,,,,,,,,,,,,,,,,,,,,,,,,,,,,,,,,,,,,,,,,,,,,,,,,,,,,,,,,,,,,,,,,,,,,,,,,,,,,,,,,,,,,,,,,,,,,,,,,,,,,,,,,,,,,,,,,,,,,,,,,,,,,,,,,,,,,,,,,,,,,,,,,,,,,,
0,43,43,20,1,,61154503002b93af22a9353d,62bbfb75e7de68c3549c517e,2022-06-29_09h14.06.676,Colour_Asymmetry_Pilot,2022.1.3,Win32,59.93407252,62bbe60bf3d75ef465d3e404,,,,,,,,,,,,,,,,,,,,,,,,,,,,,,,,,,,,,,,,,,,,,,,,,,,,,,,,,,,,,,,,,,,,,,,,,,,,,,,,,,,,,,,,,,,,,,,,,,,,,,,,,,,,,,,,,,,,,,,,,,,,,,,,,,,,,,,,,,,,,,,,,,,,,,,,,,,,,,
0,44,44,71,1,,61154503002b93af22a9353d,62bbfb75e7de68c3549c517e,2022-06-29_09h14.06.676,Colour_Asymmetry_Pilot,2022.1.3,Win32,59.93407252,62bbe60bf3d75ef465d3e404,,,,,,,,,,,,,,,,,,,,,,,,,,,,,,,,,,,,,,,,,,,,,,,,,,,,,,,,,,,,,,,,,,,,,,,,,,,,,,,,,,,,,,,,,,,,,,,,,,,,,,,,,,,,,,,,,,,,,,,,,,,,,,,,,,,,,,,,,,,,,,,,,,,,,,,,,,,,,,
0,45,45,80,1,,61154503002b93af22a9353d,62bbfb75e7de68c3549c517e,2022-06-29_09h14.06.676,Colour_Asymmetry_Pilot,2022.1.3,Win32,59.93407252,62bbe60bf3d75ef465d3e404,,,,,,,,,,,,,,,,,,,,,,,,,,,,,,,,,,,,,,,,,,,,,,,,,,,,,,,,,,,,,,,,,,,,,,,,,,,,,,,,,,,,,,,,,,,,,,,,,,,,,,,,,,,,,,,,,,,,,,,,,,,,,,,,,,,,,,,,,,,,,,,,,,,,,,,,,,,,,,
0,46,46,28,1,,61154503002b93af22a9353d,62bbfb75e7de68c3549c517e,2022-06-29_09h14.06.676,Colour_Asymmetry_Pilot,2022.1.3,Win32,59.93407252,62bbe60bf3d75ef465d3e404,,,,,,,,,,,,,,,,,,,,,,,,,,,,,,,,,,,,,,,,,,,,,,,,,,,,,,,,,,,,,,,,,,,,,,,,,,,,,,,,,,,,,,,,,,,,,,,,,,,,,,,,,,,,,,,,,,,,,,,,,,,,,,,,,,,,,,,,,,,,,,,,,,,,,,,,,,,,,,
0,47,47,47,1,,61154503002b93af22a9353d,62bbfb75e7de68c3549c517e,2022-06-29_09h14.06.676,Colour_Asymmetry_Pilot,2022.1.3,Win32,59.93407252,62bbe60bf3d75ef465d3e404,,,,,,,,,,,,,,,,,,,,,,,,,,,,,,,,,,,,,,,,,,,,,,,,,,,,,,,,,,,,,,,,,,,,,,,,,,,,,,,,,,,,,,,,,,,,,,,,,,,,,,,,,,,,,,,,,,,,,,,,,,,,,,,,,,,,,,,,,,,,,,,,,,,,,,,,,,,,,,
0,48,48,7,1,,61154503002b93af22a9353d,62bbfb75e7de68c3549c517e,2022-06-29_09h14.06.676,Colour_Asymmetry_Pilot,2022.1.3,Win32,59.93407252,62bbe60bf3d75ef465d3e404,,,,,,,,,,,,,,,,,,,,,,,,,,,,,,,,,,,,,,,,,,,,,,,,,,,,,,,,,,,,,,,,,,,,,,,,,,,,,,,,,,,,,,,,,,,,,,,,,,,,,,,,,,,,,,,,,,,,,,,,,,,,,,,,,,,,,,,,,,,,,,,,,,,,,,,,,,,,,,
0,49,49,57,1,,61154503002b93af22a9353d,62bbfb75e7de68c3549c517e,2022-06-29_09h14.06.676,Colour_Asymmetry_Pilot,2022.1.3,Win32,59.93407252,62bbe60bf3d75ef465d3e404,,,,,,,,,,,,,,,,,,,,,,,,,,,,,,,,,,,,,,,,,,,,,,,,,,,,,,,,,,,,,,,,,,,,,,,,,,,,,,,,,,,,,,,,,,,,,,,,,,,,,,,,,,,,,,,,,,,,,,,,,,,,,,,,,,,,,,,,,,,,,,,,,,,,,,,,,,,,,,
0,50,50,92,1,,61154503002b93af22a9353d,62bbfb75e7de68c3549c517e,2022-06-29_09h14.06.676,Colour_Asymmetry_Pilot,2022.1.3,Win32,59.93407252,62bbe60bf3d75ef465d3e404,,,,,,,,,,,,,,,,,,,,,,,,,,,,,,,,,,,,,,,,,,,,,,,,,,,,,,,,,,,,,,,,,,,,,,,,,,,,,,,,,,,,,,,,,,,,,,,,,,,,,,,,,,,,,,,,,,,,,,,,,,,,,,,,,,,,,,,,,,,,,,,,,,,,,,,,,,,,,,
0,51,51,37,1,,61154503002b93af22a9353d,62bbfb75e7de68c3549c517e,2022-06-29_09h14.06.676,Colour_Asymmetry_Pilot,2022.1.3,Win32,59.93407252,62bbe60bf3d75ef465d3e404,,,,,,,,,,,,,,,,,,,,,,,,,,,,,,,,,,,,,,,,,,,,,,,,,,,,,,,,,,,,,,,,,,,,,,,,,,,,,,,,,,,,,,,,,,,,,,,,,,,,,,,,,,,,,,,,,,,,,,,,,,,,,,,,,,,,,,,,,,,,,,,,,,,,,,,,,,,,,,
0,52,52,54,1,,61154503002b93af22a9353d,62bbfb75e7de68c3549c517e,2022-06-29_09h14.06.676,Colour_Asymmetry_Pilot,2022.1.3,Win32,59.93407252,62bbe60bf3d75ef465d3e404,,,,,,,,,,,,,,,,,,,,,,,,,,,,,,,,,,,,,,,,,,,,,,,,,,,,,,,,,,,,,,,,,,,,,,,,,,,,,,,,,,,,,,,,,,,,,,,,,,,,,,,,,,,,,,,,,,,,,,,,,,,,,,,,,,,,,,,,,,,,,,,,,,,,,,,,,,,,,,
0,53,53,72,1,,61154503002b93af22a9353d,62bbfb75e7de68c3549c517e,2022-06-29_09h14.06.676,Colour_Asymmetry_Pilot,2022.1.3,Win32,59.93407252,62bbe60bf3d75ef465d3e404,,,,,,,,,,,,,,,,,,,,,,,,,,,,,,,,,,,,,,,,,,,,,,,,,,,,,,,,,,,,,,,,,,,,,,,,,,,,,,,,,,,,,,,,,,,,,,,,,,,,,,,,,,,,,,,,,,,,,,,,,,,,,,,,,,,,,,,,,,,,,,,,,,,,,,,,,,,,,,
0,54,54,32,1,,61154503002b93af22a9353d,62bbfb75e7de68c3549c517e,2022-06-29_09h14.06.676,Colour_Asymmetry_Pilot,2022.1.3,Win32,59.93407252,62bbe60bf3d75ef465d3e404,,,,,,,,,,,,,,,,,,,,,,,,,,,,,,,,,,,,,,,,,,,,,,,,,,,,,,,,,,,,,,,,,,,,,,,,,,,,,,,,,,,,,,,,,,,,,,,,,,,,,,,,,,,,,,,,,,,,,,,,,,,,,,,,,,,,,,,,,,,,,,,,,,,,,,,,,,,,,,
0,55,55,63,1,,61154503002b93af22a9353d,62bbfb75e7de68c3549c517e,2022-06-29_09h14.06.676,Colour_Asymmetry_Pilot,2022.1.3,Win32,59.93407252,62bbe60bf3d75ef465d3e404,,,,,,,,,,,,,,,,,,,,,,,,,,,,,,,,,,,,,,,,,,,,,,,,,,,,,,,,,,,,,,,,,,,,,,,,,,,,,,,,,,,,,,,,,,,,,,,,,,,,,,,,,,,,,,,,,,,,,,,,,,,,,,,,,,,,,,,,,,,,,,,,,,,,,,,,,,,,,,
0,56,56,50,1,,61154503002b93af22a9353d,62bbfb75e7de68c3549c517e,2022-06-29_09h14.06.676,Colour_Asymmetry_Pilot,2022.1.3,Win32,59.93407252,62bbe60bf3d75ef465d3e404,,,,,,,,,,,,,,,,,,,,,,,,,,,,,,,,,,,,,,,,,,,,,,,,,,,,,,,,,,,,,,,,,,,,,,,,,,,,,,,,,,,,,,,,,,,,,,,,,,,,,,,,,,,,,,,,,,,,,,,,,,,,,,,,,,,,,,,,,,,,,,,,,,,,,,,,,,,,,,
0,57,57,9,1,,61154503002b93af22a9353d,62bbfb75e7de68c3549c517e,2022-06-29_09h14.06.676,Colour_Asymmetry_Pilot,2022.1.3,Win32,59.93407252,62bbe60bf3d75ef465d3e404,,,,,,,,,,,,,,,,,,,,,,,,,,,,,,,,,,,,,,,,,,,,,,,,,,,,,,,,,,,,,,,,,,,,,,,,,,,,,,,,,,,,,,,,,,,,,,,,,,,,,,,,,,,,,,,,,,,,,,,,,,,,,,,,,,,,,,,,,,,,,,,,,,,,,,,,,,,,,,
0,58,58,22,1,,61154503002b93af22a9353d,62bbfb75e7de68c3549c517e,2022-06-29_09h14.06.676,Colour_Asymmetry_Pilot,2022.1.3,Win32,59.93407252,62bbe60bf3d75ef465d3e404,,,,,,,,,,,,,,,,,,,,,,,,,,,,,,,,,,,,,,,,,,,,,,,,,,,,,,,,,,,,,,,,,,,,,,,,,,,,,,,,,,,,,,,,,,,,,,,,,,,,,,,,,,,,,,,,,,,,,,,,,,,,,,,,,,,,,,,,,,,,,,,,,,,,,,,,,,,,,,
0,59,59,64,1,,61154503002b93af22a9353d,62bbfb75e7de68c3549c517e,2022-06-29_09h14.06.676,Colour_Asymmetry_Pilot,2022.1.3,Win32,59.93407252,62bbe60bf3d75ef465d3e404,,,,,,,,,,,,,,,,,,,,,,,,,,,,,,,,,,,,,,,,,,,,,,,,,,,,,,,,,,,,,,,,,,,,,,,,,,,,,,,,,,,,,,,,,,,,,,,,,,,,,,,,,,,,,,,,,,,,,,,,,,,,,,,,,,,,,,,,,,,,,,,,,,,,,,,,,,,,,,
0,60,60,34,1,,61154503002b93af22a9353d,62bbfb75e7de68c3549c517e,2022-06-29_09h14.06.676,Colour_Asymmetry_Pilot,2022.1.3,Win32,59.93407252,62bbe60bf3d75ef465d3e404,,,,,,,,,,,,,,,,,,,,,,,,,,,,,,,,,,,,,,,,,,,,,,,,,,,,,,,,,,,,,,,,,,,,,,,,,,,,,,,,,,,,,,,,,,,,,,,,,,,,,,,,,,,,,,,,,,,,,,,,,,,,,,,,,,,,,,,,,,,,,,,,,,,,,,,,,,,,,,
0,61,61,19,1,,61154503002b93af22a9353d,62bbfb75e7de68c3549c517e,2022-06-29_09h14.06.676,Colour_Asymmetry_Pilot,2022.1.3,Win32,59.93407252,62bbe60bf3d75ef465d3e404,,,,,,,,,,,,,,,,,,,,,,,,,,,,,,,,,,,,,,,,,,,,,,,,,,,,,,,,,,,,,,,,,,,,,,,,,,,,,,,,,,,,,,,,,,,,,,,,,,,,,,,,,,,,,,,,,,,,,,,,,,,,,,,,,,,,,,,,,,,,,,,,,,,,,,,,,,,,,,
0,62,62,77,1,,61154503002b93af22a9353d,62bbfb75e7de68c3549c517e,2022-06-29_09h14.06.676,Colour_Asymmetry_Pilot,2022.1.3,Win32,59.93407252,62bbe60bf3d75ef465d3e404,,,,,,,,,,,,,,,,,,,,,,,,,,,,,,,,,,,,,,,,,,,,,,,,,,,,,,,,,,,,,,,,,,,,,,,,,,,,,,,,,,,,,,,,,,,,,,,,,,,,,,,,,,,,,,,,,,,,,,,,,,,,,,,,,,,,,,,,,,,,,,,,,,,,,,,,,,,,,,
0,63,63,1,1,,61154503002b93af22a9353d,62bbfb75e7de68c3549c517e,2022-06-29_09h14.06.676,Colour_Asymmetry_Pilot,2022.1.3,Win32,59.93407252,62bbe60bf3d75ef465d3e404,,,,,,,,,,,,,,,,,,,,,,,,,,,,,,,,,,,,,,,,,,,,,,,,,,,,,,,,,,,,,,,,,,,,,,,,,,,,,,,,,,,,,,,,,,,,,,,,,,,,,,,,,,,,,,,,,,,,,,,,,,,,,,,,,,,,,,,,,,,,,,,,,,,,,,,,,,,,,,
0,64,64,58,1,,61154503002b93af22a9353d,62bbfb75e7de68c3549c517e,2022-06-29_09h14.06.676,Colour_Asymmetry_Pilot,2022.1.3,Win32,59.93407252,62bbe60bf3d75ef465d3e404,,,,,,,,,,,,,,,,,,,,,,,,,,,,,,,,,,,,,,,,,,,,,,,,,,,,,,,,,,,,,,,,,,,,,,,,,,,,,,,,,,,,,,,,,,,,,,,,,,,,,,,,,,,,,,,,,,,,,,,,,,,,,,,,,,,,,,,,,,,,,,,,,,,,,,,,,,,,,,
0,65,65,90,1,,61154503002b93af22a9353d,62bbfb75e7de68c3549c517e,2022-06-29_09h14.06.676,Colour_Asymmetry_Pilot,2022.1.3,Win32,59.93407252,62bbe60bf3d75ef465d3e404,,,,,,,,,,,,,,,,,,,,,,,,,,,,,,,,,,,,,,,,,,,,,,,,,,,,,,,,,,,,,,,,,,,,,,,,,,,,,,,,,,,,,,,,,,,,,,,,,,,,,,,,,,,,,,,,,,,,,,,,,,,,,,,,,,,,,,,,,,,,,,,,,,,,,,,,,,,,,,
0,66,66,5,1,,61154503002b93af22a9353d,62bbfb75e7de68c3549c517e,2022-06-29_09h14.06.676,Colour_Asymmetry_Pilot,2022.1.3,Win32,59.93407252,62bbe60bf3d75ef465d3e404,,,,,,,,,,,,,,,,,,,,,,,,,,,,,,,,,,,,,,,,,,,,,,,,,,,,,,,,,,,,,,,,,,,,,,,,,,,,,,,,,,,,,,,,,,,,,,,,,,,,,,,,,,,,,,,,,,,,,,,,,,,,,,,,,,,,,,,,,,,,,,,,,,,,,,,,,,,,,,
0,67,67,29,1,,61154503002b93af22a9353d,62bbfb75e7de68c3549c517e,2022-06-29_09h14.06.676,Colour_Asymmetry_Pilot,2022.1.3,Win32,59.93407252,62bbe60bf3d75ef465d3e404,,,,,,,,,,,,,,,,,,,,,,,,,,,,,,,,,,,,,,,,,,,,,,,,,,,,,,,,,,,,,,,,,,,,,,,,,,,,,,,,,,,,,,,,,,,,,,,,,,,,,,,,,,,,,,,,,,,,,,,,,,,,,,,,,,,,,,,,,,,,,,,,,,,,,,,,,,,,,,
0,68,68,27,1,,61154503002b93af22a9353d,62bbfb75e7de68c3549c517e,2022-06-29_09h14.06.676,Colour_Asymmetry_Pilot,2022.1.3,Win32,59.93407252,62bbe60bf3d75ef465d3e404,,,,,,,,,,,,,,,,,,,,,,,,,,,,,,,,,,,,,,,,,,,,,,,,,,,,,,,,,,,,,,,,,,,,,,,,,,,,,,,,,,,,,,,,,,,,,,,,,,,,,,,,,,,,,,,,,,,,,,,,,,,,,,,,,,,,,,,,,,,,,,,,,,,,,,,,,,,,,,
0,69,69,18,1,,61154503002b93af22a9353d,62bbfb75e7de68c3549c517e,2022-06-29_09h14.06.676,Colour_Asymmetry_Pilot,2022.1.3,Win32,59.93407252,62bbe60bf3d75ef465d3e404,,,,,,,,,,,,,,,,,,,,,,,,,,,,,,,,,,,,,,,,,,,,,,,,,,,,,,,,,,,,,,,,,,,,,,,,,,,,,,,,,,,,,,,,,,,,,,,,,,,,,,,,,,,,,,,,,,,,,,,,,,,,,,,,,,,,,,,,,,,,,,,,,,,,,,,,,,,,,,
0,70,70,61,1,,61154503002b93af22a9353d,62bbfb75e7de68c3549c517e,2022-06-29_09h14.06.676,Colour_Asymmetry_Pilot,2022.1.3,Win32,59.93407252,62bbe60bf3d75ef465d3e404,,,,,,,,,,,,,,,,,,,,,,,,,,,,,,,,,,,,,,,,,,,,,,,,,,,,,,,,,,,,,,,,,,,,,,,,,,,,,,,,,,,,,,,,,,,,,,,,,,,,,,,,,,,,,,,,,,,,,,,,,,,,,,,,,,,,,,,,,,,,,,,,,,,,,,,,,,,,,,
0,71,71,55,1,,61154503002b93af22a9353d,62bbfb75e7de68c3549c517e,2022-06-29_09h14.06.676,Colour_Asymmetry_Pilot,2022.1.3,Win32,59.93407252,62bbe60bf3d75ef465d3e404,,,,,,,,,,,,,,,,,,,,,,,,,,,,,,,,,,,,,,,,,,,,,,,,,,,,,,,,,,,,,,,,,,,,,,,,,,,,,,,,,,,,,,,,,,,,,,,,,,,,,,,,,,,,,,,,,,,,,,,,,,,,,,,,,,,,,,,,,,,,,,,,,,,,,,,,,,,,,,
0,72,72,40,1,,61154503002b93af22a9353d,62bbfb75e7de68c3549c517e,2022-06-29_09h14.06.676,Colour_Asymmetry_Pilot,2022.1.3,Win32,59.93407252,62bbe60bf3d75ef465d3e404,,,,,,,,,,,,,,,,,,,,,,,,,,,,,,,,,,,,,,,,,,,,,,,,,,,,,,,,,,,,,,,,,,,,,,,,,,,,,,,,,,,,,,,,,,,,,,,,,,,,,,,,,,,,,,,,,,,,,,,,,,,,,,,,,,,,,,,,,,,,,,,,,,,,,,,,,,,,,,
0,73,73,73,1,,61154503002b93af22a9353d,62bbfb75e7de68c3549c517e,2022-06-29_09h14.06.676,Colour_Asymmetry_Pilot,2022.1.3,Win32,59.93407252,62bbe60bf3d75ef465d3e404,,,,,,,,,,,,,,,,,,,,,,,,,,,,,,,,,,,,,,,,,,,,,,,,,,,,,,,,,,,,,,,,,,,,,,,,,,,,,,,,,,,,,,,,,,,,,,,,,,,,,,,,,,,,,,,,,,,,,,,,,,,,,,,,,,,,,,,,,,,,,,,,,,,,,,,,,,,,,,
0,74,74,3,1,,61154503002b93af22a9353d,62bbfb75e7de68c3549c517e,2022-06-29_09h14.06.676,Colour_Asymmetry_Pilot,2022.1.3,Win32,59.93407252,62bbe60bf3d75ef465d3e404,,,,,,,,,,,,,,,,,,,,,,,,,,,,,,,,,,,,,,,,,,,,,,,,,,,,,,,,,,,,,,,,,,,,,,,,,,,,,,,,,,,,,,,,,,,,,,,,,,,,,,,,,,,,,,,,,,,,,,,,,,,,,,,,,,,,,,,,,,,,,,,,,,,,,,,,,,,,,,
0,75,75,67,1,,61154503002b93af22a9353d,62bbfb75e7de68c3549c517e,2022-06-29_09h14.06.676,Colour_Asymmetry_Pilot,2022.1.3,Win32,59.93407252,62bbe60bf3d75ef465d3e404,,,,,,,,,,,,,,,,,,,,,,,,,,,,,,,,,,,,,,,,,,,,,,,,,,,,,,,,,,,,,,,,,,,,,,,,,,,,,,,,,,,,,,,,,,,,,,,,,,,,,,,,,,,,,,,,,,,,,,,,,,,,,,,,,,,,,,,,,,,,,,,,,,,,,,,,,,,,,,
0,76,76,68,1,,61154503002b93af22a9353d,62bbfb75e7de68c3549c517e,2022-06-29_09h14.06.676,Colour_Asymmetry_Pilot,2022.1.3,Win32,59.93407252,62bbe60bf3d75ef465d3e404,,,,,,,,,,,,,,,,,,,,,,,,,,,,,,,,,,,,,,,,,,,,,,,,,,,,,,,,,,,,,,,,,,,,,,,,,,,,,,,,,,,,,,,,,,,,,,,,,,,,,,,,,,,,,,,,,,,,,,,,,,,,,,,,,,,,,,,,,,,,,,,,,,,,,,,,,,,,,,
0,77,77,45,1,,61154503002b93af22a9353d,62bbfb75e7de68c3549c517e,2022-06-29_09h14.06.676,Colour_Asymmetry_Pilot,2022.1.3,Win32,59.93407252,62bbe60bf3d75ef465d3e404,,,,,,,,,,,,,,,,,,,,,,,,,,,,,,,,,,,,,,,,,,,,,,,,,,,,,,,,,,,,,,,,,,,,,,,,,,,,,,,,,,,,,,,,,,,,,,,,,,,,,,,,,,,,,,,,,,,,,,,,,,,,,,,,,,,,,,,,,,,,,,,,,,,,,,,,,,,,,,
0,78,78,2,1,,61154503002b93af22a9353d,62bbfb75e7de68c3549c517e,2022-06-29_09h14.06.676,Colour_Asymmetry_Pilot,2022.1.3,Win32,59.93407252,62bbe60bf3d75ef465d3e404,,,,,,,,,,,,,,,,,,,,,,,,,,,,,,,,,,,,,,,,,,,,,,,,,,,,,,,,,,,,,,,,,,,,,,,,,,,,,,,,,,,,,,,,,,,,,,,,,,,,,,,,,,,,,,,,,,,,,,,,,,,,,,,,,,,,,,,,,,,,,,,,,,,,,,,,,,,,,,
0,79,79,17,1,,61154503002b93af22a9353d,62bbfb75e7de68c3549c517e,2022-06-29_09h14.06.676,Colour_Asymmetry_Pilot,2022.1.3,Win32,59.93407252,62bbe60bf3d75ef465d3e404,,,,,,,,,,,,,,,,,,,,,,,,,,,,,,,,,,,,,,,,,,,,,,,,,,,,,,,,,,,,,,,,,,,,,,,,,,,,,,,,,,,,,,,,,,,,,,,,,,,,,,,,,,,,,,,,,,,,,,,,,,,,,,,,,,,,,,,,,,,,,,,,,,,,,,,,,,,,,,
0,80,80,31,1,,61154503002b93af22a9353d,62bbfb75e7de68c3549c517e,2022-06-29_09h14.06.676,Colour_Asymmetry_Pilot,2022.1.3,Win32,59.93407252,62bbe60bf3d75ef465d3e404,,,,,,,,,,,,,,,,,,,,,,,,,,,,,,,,,,,,,,,,,,,,,,,,,,,,,,,,,,,,,,,,,,,,,,,,,,,,,,,,,,,,,,,,,,,,,,,,,,,,,,,,,,,,,,,,,,,,,,,,,,,,,,,,,,,,,,,,,,,,,,,,,,,,,,,,,,,,,,
0,81,81,44,1,,61154503002b93af22a9353d,62bbfb75e7de68c3549c517e,2022-06-29_09h14.06.676,Colour_Asymmetry_Pilot,2022.1.3,Win32,59.93407252,62bbe60bf3d75ef465d3e404,,,,,,,,,,,,,,,,,,,,,,,,,,,,,,,,,,,,,,,,,,,,,,,,,,,,,,,,,,,,,,,,,,,,,,,,,,,,,,,,,,,,,,,,,,,,,,,,,,,,,,,,,,,,,,,,,,,,,,,,,,,,,,,,,,,,,,,,,,,,,,,,,,,,,,,,,,,,,,
0,82,82,21,1,,61154503002b93af22a9353d,62bbfb75e7de68c3549c517e,2022-06-29_09h14.06.676,Colour_Asymmetry_Pilot,2022.1.3,Win32,59.93407252,62bbe60bf3d75ef465d3e404,,,,,,,,,,,,,,,,,,,,,,,,,,,,,,,,,,,,,,,,,,,,,,,,,,,,,,,,,,,,,,,,,,,,,,,,,,,,,,,,,,,,,,,,,,,,,,,,,,,,,,,,,,,,,,,,,,,,,,,,,,,,,,,,,,,,,,,,,,,,,,,,,,,,,,,,,,,,,,
0,83,83,4,1,,61154503002b93af22a9353d,62bbfb75e7de68c3549c517e,2022-06-29_09h14.06.676,Colour_Asymmetry_Pilot,2022.1.3,Win32,59.93407252,62bbe60bf3d75ef465d3e404,,,,,,,,,,,,,,,,,,,,,,,,,,,,,,,,,,,,,,,,,,,,,,,,,,,,,,,,,,,,,,,,,,,,,,,,,,,,,,,,,,,,,,,,,,,,,,,,,,,,,,,,,,,,,,,,,,,,,,,,,,,,,,,,,,,,,,,,,,,,,,,,,,,,,,,,,,,,,,
0,84,84,87,1,,61154503002b93af22a9353d,62bbfb75e7de68c3549c517e,2022-06-29_09h14.06.676,Colour_Asymmetry_Pilot,2022.1.3,Win32,59.93407252,62bbe60bf3d75ef465d3e404,,,,,,,,,,,,,,,,,,,,,,,,,,,,,,,,,,,,,,,,,,,,,,,,,,,,,,,,,,,,,,,,,,,,,,,,,,,,,,,,,,,,,,,,,,,,,,,,,,,,,,,,,,,,,,,,,,,,,,,,,,,,,,,,,,,,,,,,,,,,,,,,,,,,,,,,,,,,,,
0,85,85,62,1,,61154503002b93af22a9353d,62bbfb75e7de68c3549c517e,2022-06-29_09h14.06.676,Colour_Asymmetry_Pilot,2022.1.3,Win32,59.93407252,62bbe60bf3d75ef465d3e404,,,,,,,,,,,,,,,,,,,,,,,,,,,,,,,,,,,,,,,,,,,,,,,,,,,,,,,,,,,,,,,,,,,,,,,,,,,,,,,,,,,,,,,,,,,,,,,,,,,,,,,,,,,,,,,,,,,,,,,,,,,,,,,,,,,,,,,,,,,,,,,,,,,,,,,,,,,,,,
0,86,86,82,1,,61154503002b93af22a9353d,62bbfb75e7de68c3549c517e,2022-06-29_09h14.06.676,Colour_Asymmetry_Pilot,2022.1.3,Win32,59.93407252,62bbe60bf3d75ef465d3e404,,,,,,,,,,,,,,,,,,,,,,,,,,,,,,,,,,,,,,,,,,,,,,,,,,,,,,,,,,,,,,,,,,,,,,,,,,,,,,,,,,,,,,,,,,,,,,,,,,,,,,,,,,,,,,,,,,,,,,,,,,,,,,,,,,,,,,,,,,,,,,,,,,,,,,,,,,,,,,
0,87,87,12,1,,61154503002b93af22a9353d,62bbfb75e7de68c3549c517e,2022-06-29_09h14.06.676,Colour_Asymmetry_Pilot,2022.1.3,Win32,59.93407252,62bbe60bf3d75ef465d3e404,,,,,,,,,,,,,,,,,,,,,,,,,,,,,,,,,,,,,,,,,,,,,,,,,,,,,,,,,,,,,,,,,,,,,,,,,,,,,,,,,,,,,,,,,,,,,,,,,,,,,,,,,,,,,,,,,,,,,,,,,,,,,,,,,,,,,,,,,,,,,,,,,,,,,,,,,,,,,,
0,88,88,30,1,,61154503002b93af22a9353d,62bbfb75e7de68c3549c517e,2022-06-29_09h14.06.676,Colour_Asymmetry_Pilot,2022.1.3,Win32,59.93407252,62bbe60bf3d75ef465d3e404,,,,,,,,,,,,,,,,,,,,,,,,,,,,,,,,,,,,,,,,,,,,,,,,,,,,,,,,,,,,,,,,,,,,,,,,,,,,,,,,,,,,,,,,,,,,,,,,,,,,,,,,,,,,,,,,,,,,,,,,,,,,,,,,,,,,,,,,,,,,,,,,,,,,,,,,,,,,,,
0,89,89,91,1,,61154503002b93af22a9353d,62bbfb75e7de68c3549c517e,2022-06-29_09h14.06.676,Colour_Asymmetry_Pilot,2022.1.3,Win32,59.93407252,62bbe60bf3d75ef465d3e404,,,,,,,,,,,,,,,,,,,,,,,,,,,,,,,,,,,,,,,,,,,,,,,,,,,,,,,,,,,,,,,,,,,,,,,,,,,,,,,,,,,,,,,,,,,,,,,,,,,,,,,,,,,,,,,,,,,,,,,,,,,,,,,,,,,,,,,,,,,,,,,,,,,,,,,,,,,,,,
0,90,90,46,1,,61154503002b93af22a9353d,62bbfb75e7de68c3549c517e,2022-06-29_09h14.06.676,Colour_Asymmetry_Pilot,2022.1.3,Win32,59.93407252,62bbe60bf3d75ef465d3e404,,,,,,,,,,,,,,,,,,,,,,,,,,,,,,,,,,,,,,,,,,,,,,,,,,,,,,,,,,,,,,,,,,,,,,,,,,,,,,,,,,,,,,,,,,,,,,,,,,,,,,,,,,,,,,,,,,,,,,,,,,,,,,,,,,,,,,,,,,,,,,,,,,,,,,,,,,,,,,
0,91,91,59,1,,61154503002b93af22a9353d,62bbfb75e7de68c3549c517e,2022-06-29_09h14.06.676,Colour_Asymmetry_Pilot,2022.1.3,Win32,59.93407252,62bbe60bf3d75ef465d3e404,,,,,,,,,,,,,,,,,,,,,,,,,,,,,,,,,,,,,,,,,,,,,,,,,,,,,,,,,,,,,,,,,,,,,,,,,,,,,,,,,,,,,,,,,,,,,,,,,,,,,,,,,,,,,,,,,,,,,,,,,,,,,,,,,,,,,,,,,,,,,,,,,,,,,,,,,,,,,,
0,92,92,0,1,,61154503002b93af22a9353d,62bbfb75e7de68c3549c517e,2022-06-29_09h14.06.676,Colour_Asymmetry_Pilot,2022.1.3,Win32,59.93407252,62bbe60bf3d75ef465d3e404,,,,,,,,,,,,,,,,,,,,,,,,,,,,,,,,,,,,,,,,,,,,,,,,,,,,,,,,,,,,,,,,,,,,,,,,,,,,,,,,,,,,,,,,,,,,,,,,,,,,,,,,,,,,,,,,,,,,,,,,,,,,,,,,,,,,,,,,,,,,,,,,,,,,,,,,,,,,,,
,,,,,,61154503002b93af22a9353d,62bbfb75e7de68c3549c517e,2022-06-29_09h14.06.676,Colour_Asymmetry_Pilot,2022.1.3,Win32,59.93407252,62bbe60bf3d75ef465d3e404,0,0,0,148,1,threeone,,,,,,,,,,,,,,,,,,,,,,,,,,,,,,,,,,,,,,,,,,,,,,,,,,,,,,,,,,,,,,,,,,,,,,,,,,,,,,,,,,,,,,,,,,,,,,,,,,,,,,,,,,,,,,,,,,,,,,,,,,,,,,,,,,,,,,,,,,,,,,,,,,,,,,,,
,,,,,,61154503002b93af22a9353d,62bbfb75e7de68c3549c517e,2022-06-29_09h14.06.676,Colour_Asymmetry_Pilot,2022.1.3,Win32,59.93407252,62bbe60bf3d75ef465d3e404,0,1,1,123,1,twofour,,,,,,,,,,,,,,,,,,,,,,,,,,,,,,,,,,,,,,,,,,,,,,,,,,,,,,,,,,,,,,,,,,,,,,,,,,,,,,,,,,,,,,,,,,,,,,,,,,,,,,,,,,,,,,,,,,,,,,,,,,,,,,,,,,,,,,,,,,,,,,,,,,,,,,,,
,,,,,,61154503002b93af22a9353d,62bbfb75e7de68c3549c517e,2022-06-29_09h14.06.676,Colour_Asymmetry_Pilot,2022.1.3,Win32,59.93407252,62bbe60bf3d75ef465d3e404,0,2,2,22,1,fourtwo,,,,,,,,,,,,,,,,,,,,,,,,,,,,,,,,,,,,,,,,,,,,,,,,,,,,,,,,,,,,,,,,,,,,,,,,,,,,,,,,,,,,,,,,,,,,,,,,,,,,,,,,,,,,,,,,,,,,,,,,,,,,,,,,,,,,,,,,,,,,,,,,,,,,,,,,
,,,,,,61154503002b93af22a9353d,62bbfb75e7de68c3549c517e,2022-06-29_09h14.06.676,Colour_Asymmetry_Pilot,2022.1.3,Win32,59.93407252,62bbe60bf3d75ef465d3e404,0,3,3,84,1,threeone,,,,,,,,,,,,,,,,,,,,,,,,,,,,,,,,,,,,,,,,,,,,,,,,,,,,,,,,,,,,,,,,,,,,,,,,,,,,,,,,,,,,,,,,,,,,,,,,,,,,,,,,,,,,,,,,,,,,,,,,,,,,,,,,,,,,,,,,,,,,,,,,,,,,,,,,
,,,,,,61154503002b93af22a9353d,62bbfb75e7de68c3549c517e,2022-06-29_09h14.06.676,Colour_Asymmetry_Pilot,2022.1.3,Win32,59.93407252,62bbe60bf3d75ef465d3e404,0,4,4,122,1,twoone,,,,,,,,,,,,,,,,,,,,,,,,,,,,,,,,,,,,,,,,,,,,,,,,,,,,,,,,,,,,,,,,,,,,,,,,,,,,,,,,,,,,,,,,,,,,,,,,,,,,,,,,,,,,,,,,,,,,,,,,,,,,,,,,,,,,,,,,,,,,,,,,,,,,,,,,
,,,,,,61154503002b93af22a9353d,62bbfb75e7de68c3549c517e,2022-06-29_09h14.06.676,Colour_Asymmetry_Pilot,2022.1.3,Win32,59.93407252,62bbe60bf3d75ef465d3e404,0,5,5,118,1,fourtwo,,,,,,,,,,,,,,,,,,,,,,,,,,,,,,,,,,,,,,,,,,,,,,,,,,,,,,,,,,,,,,,,,,,,,,,,,,,,,,,,,,,,,,,,,,,,,,,,,,,,,,,,,,,,,,,,,,,,,,,,,,,,,,,,,,,,,,,,,,,,,,,,,,,,,,,,
,,,,,,61154503002b93af22a9353d,62bbfb75e7de68c3549c517e,2022-06-29_09h14.06.676,Colour_Asymmetry_Pilot,2022.1.3,Win32,59.93407252,62bbe60bf3d75ef465d3e404,0,6,6,83,1,twofour,,,,,,,,,,,,,,,,,,,,,,,,,,,,,,,,,,,,,,,,,,,,,,,,,,,,,,,,,,,,,,,,,,,,,,,,,,,,,,,,,,,,,,,,,,,,,,,,,,,,,,,,,,,,,,,,,,,,,,,,,,,,,,,,,,,,,,,,,,,,,,,,,,,,,,,,
,,,,,,61154503002b93af22a9353d,62bbfb75e7de68c3549c517e,2022-06-29_09h14.06.676,Colour_Asymmetry_Pilot,2022.1.3,Win32,59.93407252,62bbe60bf3d75ef465d3e404,0,7,7,69,1,threefour,,,,,,,,,,,,,,,,,,,,,,,,,,,,,,,,,,,,,,,,,,,,,,,,,,,,,,,,,,,,,,,,,,,,,,,,,,,,,,,,,,,,,,,,,,,,,,,,,,,,,,,,,,,,,,,,,,,,,,,,,,,,,,,,,,,,,,,,,,,,,,,,,,,,,,,,
,,,,,,61154503002b93af22a9353d,62bbfb75e7de68c3549c517e,2022-06-29_09h14.06.676,Colour_Asymmetry_Pilot,2022.1.3,Win32,59.93407252,62bbe60bf3d75ef465d3e404,0,8,8,135,1,fourthree,,,,,,,,,,,,,,,,,,,,,,,,,,,,,,,,,,,,,,,,,,,,,,,,,,,,,,,,,,,,,,,,,,,,,,,,,,,,,,,,,,,,,,,,,,,,,,,,,,,,,,,,,,,,,,,,,,,,,,,,,,,,,,,,,,,,,,,,,,,,,,,,,,,,,,,,
,,,,,,61154503002b93af22a9353d,62bbfb75e7de68c3549c517e,2022-06-29_09h14.06.676,Colour_Asymmetry_Pilot,2022.1.3,Win32,59.93407252,62bbe60bf3d75ef465d3e404,0,9,9,52,1,threeone,,,,,,,,,,,,,,,,,,,,,,,,,,,,,,,,,,,,,,,,,,,,,,,,,,,,,,,,,,,,,,,,,,,,,,,,,,,,,,,,,,,,,,,,,,,,,,,,,,,,,,,,,,,,,,,,,,,,,,,,,,,,,,,,,,,,,,,,,,,,,,,,,,,,,,,,
,,,,,,61154503002b93af22a9353d,62bbfb75e7de68c3549c517e,2022-06-29_09h14.06.676,Colour_Asymmetry_Pilot,2022.1.3,Win32,59.93407252,62bbe60bf3d75ef465d3e404,0,10,10,43,1,twofour,,,,,,,,,,,,,,,,,,,,,,,,,,,,,,,,,,,,,,,,,,,,,,,,,,,,,,,,,,,,,,,,,,,,,,,,,,,,,,,,,,,,,,,,,,,,,,,,,,,,,,,,,,,,,,,,,,,,,,,,,,,,,,,,,,,,,,,,,,,,,,,,,,,,,,,,
,,,,,,61154503002b93af22a9353d,62bbfb75e7de68c3549c517e,2022-06-29_09h14.06.676,Colour_Asymmetry_Pilot,2022.1.3,Win32,59.93407252,62bbe60bf3d75ef465d3e404,0,11,11,27,1,twofour,,,,,,,,,,,,,,,,,,,,,,,,,,,,,,,,,,,,,,,,,,,,,,,,,,,,,,,,,,,,,,,,,,,,,,,,,,,,,,,,,,,,,,,,,,,,,,,,,,,,,,,,,,,,,,,,,,,,,,,,,,,,,,,,,,,,,,,,,,,,,,,,,,,,,,,,
,,,,,,61154503002b93af22a9353d,62bbfb75e7de68c3549c517e,2022-06-29_09h14.06.676,Colour_Asymmetry_Pilot,2022.1.3,Win32,59.93407252,62bbe60bf3d75ef465d3e404,0,12,12,129,1,onethree,,,,,,,,,,,,,,,,,,,,,,,,,,,,,,,,,,,,,,,,,,,,,,,,,,,,,,,,,,,,,,,,,,,,,,,,,,,,,,,,,,,,,,,,,,,,,,,,,,,,,,,,,,,,,,,,,,,,,,,,,,,,,,,,,,,,,,,,,,,,,,,,,,,,,,,,
,,,,,,61154503002b93af22a9353d,62bbfb75e7de68c3549c517e,2022-06-29_09h14.06.676,Colour_Asymmetry_Pilot,2022.1.3,Win32,59.93407252,62bbe60bf3d75ef465d3e404,0,13,13,64,1,onetwo,,,,,,,,,,,,,,,,,,,,,,,,,,,,,,,,,,,,,,,,,,,,,,,,,,,,,,,,,,,,,,,,,,,,,,,,,,,,,,,,,,,,,,,,,,,,,,,,,,,,,,,,,,,,,,,,,,,,,,,,,,,,,,,,,,,,,,,,,,,,,,,,,,,,,,,,
,,,,,,61154503002b93af22a9353d,62bbfb75e7de68c3549c517e,2022-06-29_09h14.06.676,Colour_Asymmetry_Pilot,2022.1.3,Win32,59.93407252,62bbe60bf3d75ef465d3e404,0,14,14,159,1,fourthree,,,,,,,,,,,,,,,,,,,,,,,,,,,,,,,,,,,,,,,,,,,,,,,,,,,,,,,,,,,,,,,,,,,,,,,,,,,,,,,,,,,,,,,,,,,,,,,,,,,,,,,,,,,,,,,,,,,,,,,,,,,,,,,,,,,,,,,,,,,,,,,,,,,,,,,,
,,,,,,61154503002b93af22a9353d,62bbfb75e7de68c3549c517e,2022-06-29_09h14.06.676,Colour_Asymmetry_Pilot,2022.1.3,Win32,59.93407252,62bbe60bf3d75ef465d3e404,0,15,15,79,1,fourthree,,,,,,,,,,,,,,,,,,,,,,,,,,,,,,,,,,,,,,,,,,,,,,,,,,,,,,,,,,,,,,,,,,,,,,,,,,,,,,,,,,,,,,,,,,,,,,,,,,,,,,,,,,,,,,,,,,,,,,,,,,,,,,,,,,,,,,,,,,,,,,,,,,,,,,,,
,,,,,,61154503002b93af22a9353d,62bbfb75e7de68c3549c517e,2022-06-29_09h14.06.676,Colour_Asymmetry_Pilot,2022.1.3,Win32,59.93407252,62bbe60bf3d75ef465d3e404,0,16,16,90,1,twoone,,,,,,,,,,,,,,,,,,,,,,,,,,,,,,,,,,,,,,,,,,,,,,,,,,,,,,,,,,,,,,,,,,,,,,,,,,,,,,,,,,,,,,,,,,,,,,,,,,,,,,,,,,,,,,,,,,,,,,,,,,,,,,,,,,,,,,,,,,,,,,,,,,,,,,,,
,,,,,,61154503002b93af22a9353d,62bbfb75e7de68c3549c517e,2022-06-29_09h14.06.676,Colour_Asymmetry_Pilot,2022.1.3,Win32,59.93407252,62bbe60bf3d75ef465d3e404,0,17,17,78,1,fourtwo,,,,,,,,,,,,,,,,,,,,,,,,,,,,,,,,,,,,,,,,,,,,,,,,,,,,,,,,,,,,,,,,,,,,,,,,,,,,,,,,,,,,,,,,,,,,,,,,,,,,,,,,,,,,,,,,,,,,,,,,,,,,,,,,,,,,,,,,,,,,,,,,,,,,,,,,
,,,,,,61154503002b93af22a9353d,62bbfb75e7de68c3549c517e,2022-06-29_09h14.06.676,Colour_Asymmetry_Pilot,2022.1.3,Win32,59.93407252,62bbe60bf3d75ef465d3e404,0,18,18,110,1,fourtwo,,,,,,,,,,,,,,,,,,,,,,,,,,,,,,,,,,,,,,,,,,,,,,,,,,,,,,,,,,,,,,,,,,,,,,,,,,,,,,,,,,,,,,,,,,,,,,,,,,,,,,,,,,,,,,,,,,,,,,,,,,,,,,,,,,,,,,,,,,,,,,,,,,,,,,,,
,,,,,,61154503002b93af22a9353d,62bbfb75e7de68c3549c517e,2022-06-29_09h14.06.676,Colour_Asymmetry_Pilot,2022.1.3,Win32,59.93407252,62bbe60bf3d75ef465d3e404,0,19,19,138,1,twoone,,,,,,,,,,,,,,,,,,,,,,,,,,,,,,,,,,,,,,,,,,,,,,,,,,,,,,,,,,,,,,,,,,,,,,,,,,,,,,,,,,,,,,,,,,,,,,,,,,,,,,,,,,,,,,,,,,,,,,,,,,,,,,,,,,,,,,,,,,,,,,,,,,,,,,,,
,,,,,,61154503002b93af22a9353d,62bbfb75e7de68c3549c517e,2022-06-29_09h14.06.676,Colour_Asymmetry_Pilot,2022.1.3,Win32,59.93407252,62bbe60bf3d75ef465d3e404,0,20,20,146,1,twoone,,,,,,,,,,,,,,,,,,,,,,,,,,,,,,,,,,,,,,,,,,,,,,,,,,,,,,,,,,,,,,,,,,,,,,,,,,,,,,,,,,,,,,,,,,,,,,,,,,,,,,,,,,,,,,,,,,,,,,,,,,,,,,,,,,,,,,,,,,,,,,,,,,,,,,,,
,,,,,,61154503002b93af22a9353d,62bbfb75e7de68c3549c517e,2022-06-29_09h14.06.676,Colour_Asymmetry_Pilot,2022.1.3,Win32,59.93407252,62bbe60bf3d75ef465d3e404,0,21,21,125,1,threefour,,,,,,,,,,,,,,,,,,,,,,,,,,,,,,,,,,,,,,,,,,,,,,,,,,,,,,,,,,,,,,,,,,,,,,,,,,,,,,,,,,,,,,,,,,,,,,,,,,,,,,,,,,,,,,,,,,,,,,,,,,,,,,,,,,,,,,,,,,,,,,,,,,,,,,,,
,,,,,,61154503002b93af22a9353d,62bbfb75e7de68c3549c517e,2022-06-29_09h14.06.676,Colour_Asymmetry_Pilot,2022.1.3,Win32,59.93407252,62bbe60bf3d75ef465d3e404,0,22,22,120,1,onetwo,,,,,,,,,,,,,,,,,,,,,,,,,,,,,,,,,,,,,,,,,,,,,,,,,,,,,,,,,,,,,,,,,,,,,,,,,,,,,,,,,,,,,,,,,,,,,,,,,,,,,,,,,,,,,,,,,,,,,,,,,,,,,,,,,,,,,,,,,,,,,,,,,,,,,,,,
,,,,,,61154503002b93af22a9353d,62bbfb75e7de68c3549c517e,2022-06-29_09h14.06.676,Colour_Asymmetry_Pilot,2022.1.3,Win32,59.93407252,62bbe60bf3d75ef465d3e404,0,23,23,105,1,onethree,,,,,,,,,,,,,,,,,,,,,,,,,,,,,,,,,,,,,,,,,,,,,,,,,,,,,,,,,,,,,,,,,,,,,,,,,,,,,,,,,,,,,,,,,,,,,,,,,,,,,,,,,,,,,,,,,,,,,,,,,,,,,,,,,,,,,,,,,,,,,,,,,,,,,,,,
,,,,,,61154503002b93af22a9353d,62bbfb75e7de68c3549c517e,2022-06-29_09h14.06.676,Colour_Asymmetry_Pilot,2022.1.3,Win32,59.93407252,62bbe60bf3d75ef465d3e404,0,24,24,147,1,twofour,,,,,,,,,,,,,,,,,,,,,,,,,,,,,,,,,,,,,,,,,,,,,,,,,,,,,,,,,,,,,,,,,,,,,,,,,,,,,,,,,,,,,,,,,,,,,,,,,,,,,,,,,,,,,,,,,,,,,,,,,,,,,,,,,,,,,,,,,,,,,,,,,,,,,,,,
,,,,,,61154503002b93af22a9353d,62bbfb75e7de68c3549c517e,2022-06-29_09h14.06.676,Colour_Asymmetry_Pilot,2022.1.3,Win32,59.93407252,62bbe60bf3d75ef465d3e404,0,25,25,126,1,fourtwo,,,,,,,,,,,,,,,,,,,,,,,,,,,,,,,,,,,,,,,,,,,,,,,,,,,,,,,,,,,,,,,,,,,,,,,,,,,,,,,,,,,,,,,,,,,,,,,,,,,,,,,,,,,,,,,,,,,,,,,,,,,,,,,,,,,,,,,,,,,,,,,,,,,,,,,,
,,,,,,61154503002b93af22a9353d,62bbfb75e7de68c3549c517e,2022-06-29_09h14.06.676,Colour_Asymmetry_Pilot,2022.1.3,Win32,59.93407252,62bbe60bf3d75ef465d3e404,0,26,26,99,1,twofour,,,,,,,,,,,,,,,,,,,,,,,,,,,,,,,,,,,,,,,,,,,,,,,,,,,,,,,,,,,,,,,,,,,,,,,,,,,,,,,,,,,,,,,,,,,,,,,,,,,,,,,,,,,,,,,,,,,,,,,,,,,,,,,,,,,,,,,,,,,,,,,,,,,,,,,,
,,,,,,61154503002b93af22a9353d,62bbfb75e7de68c3549c517e,2022-06-29_09h14.06.676,Colour_Asymmetry_Pilot,2022.1.3,Win32,59.93407252,62bbe60bf3d75ef465d3e404,0,27,27,15,1,fourthree,,,,,,,,,,,,,,,,,,,,,,,,,,,,,,,,,,,,,,,,,,,,,,,,,,,,,,,,,,,,,,,,,,,,,,,,,,,,,,,,,,,,,,,,,,,,,,,,,,,,,,,,,,,,,,,,,,,,,,,,,,,,,,,,,,,,,,,,,,,,,,,,,,,,,,,,
,,,,,,61154503002b93af22a9353d,62bbfb75e7de68c3549c517e,2022-06-29_09h14.06.676,Colour_Asymmetry_Pilot,2022.1.3,Win32,59.93407252,62bbe60bf3d75ef465d3e404,0,28,28,96,1,onetwo,,,,,,,,,,,,,,,,,,,,,,,,,,,,,,,,,,,,,,,,,,,,,,,,,,,,,,,,,,,,,,,,,,,,,,,,,,,,,,,,,,,,,,,,,,,,,,,,,,,,,,,,,,,,,,,,,,,,,,,,,,,,,,,,,,,,,,,,,,,,,,,,,,,,,,,,
,,,,,,61154503002b93af22a9353d,62bbfb75e7de68c3549c517e,2022-06-29_09h14.06.676,Colour_Asymmetry_Pilot,2022.1.3,Win32,59.93407252,62bbe60bf3d75ef465d3e404,0,29,29,100,1,threeone,,,,,,,,,,,,,,,,,,,,,,,,,,,,,,,,,,,,,,,,,,,,,,,,,,,,,,,,,,,,,,,,,,,,,,,,,,,,,,,,,,,,,,,,,,,,,,,,,,,,,,,,,,,,,,,,,,,,,,,,,,,,,,,,,,,,,,,,,,,,,,,,,,,,,,,,
,,,,,,61154503002b93af22a9353d,62bbfb75e7de68c3549c517e,2022-06-29_09h14.06.676,Colour_Asymmetry_Pilot,2022.1.3,Win32,59.93407252,62bbe60bf3d75ef465d3e404,0,30,30,98,1,twoone,,,,,,,,,,,,,,,,,,,,,,,,,,,,,,,,,,,,,,,,,,,,,,,,,,,,,,,,,,,,,,,,,,,,,,,,,,,,,,,,,,,,,,,,,,,,,,,,,,,,,,,,,,,,,,,,,,,,,,,,,,,,,,,,,,,,,,,,,,,,,,,,,,,,,,,,
,,,,,,61154503002b93af22a9353d,62bbfb75e7de68c3549c517e,2022-06-29_09h14.06.676,Colour_Asymmetry_Pilot,2022.1.3,Win32,59.93407252,62bbe60bf3d75ef465d3e404,0,31,31,134,1,fourtwo,,,,,,,,,,,,,,,,,,,,,,,,,,,,,,,,,,,,,,,,,,,,,,,,,,,,,,,,,,,,,,,,,,,,,,,,,,,,,,,,,,,,,,,,,,,,,,,,,,,,,,,,,,,,,,,,,,,,,,,,,,,,,,,,,,,,,,,,,,,,,,,,,,,,,,,,
,,,,,,61154503002b93af22a9353d,62bbfb75e7de68c3549c517e,2022-06-29_09h14.06.676,Colour_Asymmetry_Pilot,2022.1.3,Win32,59.93407252,62bbe60bf3d75ef465d3e404,0,32,32,131,1,twofour,,,,,,,,,,,,,,,,,,,,,,,,,,,,,,,,,,,,,,,,,,,,,,,,,,,,,,,,,,,,,,,,,,,,,,,,,,,,,,,,,,,,,,,,,,,,,,,,,,,,,,,,,,,,,,,,,,,,,,,,,,,,,,,,,,,,,,,,,,,,,,,,,,,,,,,,
,,,,,,61154503002b93af22a9353d,62bbfb75e7de68c3549c517e,2022-06-29_09h14.06.676,Colour_Asymmetry_Pilot,2022.1.3,Win32,59.93407252,62bbe60bf3d75ef465d3e404,0,33,33,48,1,onetwo,,,,,,,,,,,,,,,,,,,,,,,,,,,,,,,,,,,,,,,,,,,,,,,,,,,,,,,,,,,,,,,,,,,,,,,,,,,,,,,,,,,,,,,,,,,,,,,,,,,,,,,,,,,,,,,,,,,,,,,,,,,,,,,,,,,,,,,,,,,,,,,,,,,,,,,,
,,,,,,61154503002b93af22a9353d,62bbfb75e7de68c3549c517e,2022-06-29_09h14.06.676,Colour_Asymmetry_Pilot,2022.1.3,Win32,59.93407252,62bbe60bf3d75ef465d3e404,0,34,34,91,1,twofour,,,,,,,,,,,,,,,,,,,,,,,,,,,,,,,,,,,,,,,,,,,,,,,,,,,,,,,,,,,,,,,,,,,,,,,,,,,,,,,,,,,,,,,,,,,,,,,,,,,,,,,,,,,,,,,,,,,,,,,,,,,,,,,,,,,,,,,,,,,,,,,,,,,,,,,,
,,,,,,61154503002b93af22a9353d,62bbfb75e7de68c3549c517e,2022-06-29_09h14.06.676,Colour_Asymmetry_Pilot,2022.1.3,Win32,59.93407252,62bbe60bf3d75ef465d3e404,0,35,35,61,1,threefour,,,,,,,,,,,,,,,,,,,,,,,,,,,,,,,,,,,,,,,,,,,,,,,,,,,,,,,,,,,,,,,,,,,,,,,,,,,,,,,,,,,,,,,,,,,,,,,,,,,,,,,,,,,,,,,,,,,,,,,,,,,,,,,,,,,,,,,,,,,,,,,,,,,,,,,,
,,,,,,61154503002b93af22a9353d,62bbfb75e7de68c3549c517e,2022-06-29_09h14.06.676,Colour_Asymmetry_Pilot,2022.1.3,Win32,59.93407252,62bbe60bf3d75ef465d3e404,0,36,36,53,1,threefour,,,,,,,,,,,,,,,,,,,,,,,,,,,,,,,,,,,,,,,,,,,,,,,,,,,,,,,,,,,,,,,,,,,,,,,,,,,,,,,,,,,,,,,,,,,,,,,,,,,,,,,,,,,,,,,,,,,,,,,,,,,,,,,,,,,,,,,,,,,,,,,,,,,,,,,,
,,,,,,61154503002b93af22a9353d,62bbfb75e7de68c3549c517e,2022-06-29_09h14.06.676,Colour_Asymmetry_Pilot,2022.1.3,Win32,59.93407252,62bbe60bf3d75ef465d3e404,0,37,37,74,1,twoone,,,,,,,,,,,,,,,,,,,,,,,,,,,,,,,,,,,,,,,,,,,,,,,,,,,,,,,,,,,,,,,,,,,,,,,,,,,,,,,,,,,,,,,,,,,,,,,,,,,,,,,,,,,,,,,,,,,,,,,,,,,,,,,,,,,,,,,,,,,,,,,,,,,,,,,,
,,,,,,61154503002b93af22a9353d,62bbfb75e7de68c3549c517e,2022-06-29_09h14.06.676,Colour_Asymmetry_Pilot,2022.1.3,Win32,59.93407252,62bbe60bf3d75ef465d3e404,0,38,38,124,1,threeone,,,,,,,,,,,,,,,,,,,,,,,,,,,,,,,,,,,,,,,,,,,,,,,,,,,,,,,,,,,,,,,,,,,,,,,,,,,,,,,,,,,,,,,,,,,,,,,,,,,,,,,,,,,,,,,,,,,,,,,,,,,,,,,,,,,,,,,,,,,,,,,,,,,,,,,,
,,,,,,61154503002b93af22a9353d,62bbfb75e7de68c3549c517e,2022-06-29_09h14.06.676,Colour_Asymmetry_Pilot,2022.1.3,Win32,59.93407252,62bbe60bf3d75ef465d3e404,0,39,39,67,1,twofour,,,,,,,,,,,,,,,,,,,,,,,,,,,,,,,,,,,,,,,,,,,,,,,,,,,,,,,,,,,,,,,,,,,,,,,,,,,,,,,,,,,,,,,,,,,,,,,,,,,,,,,,,,,,,,,,,,,,,,,,,,,,,,,,,,,,,,,,,,,,,,,,,,,,,,,,
,,,,,,61154503002b93af22a9353d,62bbfb75e7de68c3549c517e,2022-06-29_09h14.06.676,Colour_Asymmetry_Pilot,2022.1.3,Win32,59.93407252,62bbe60bf3d75ef465d3e404,0,40,40,45,1,threefour,,,,,,,,,,,,,,,,,,,,,,,,,,,,,,,,,,,,,,,,,,,,,,,,,,,,,,,,,,,,,,,,,,,,,,,,,,,,,,,,,,,,,,,,,,,,,,,,,,,,,,,,,,,,,,,,,,,,,,,,,,,,,,,,,,,,,,,,,,,,,,,,,,,,,,,,
,,,,,,61154503002b93af22a9353d,62bbfb75e7de68c3549c517e,2022-06-29_09h14.06.676,Colour_Asymmetry_Pilot,2022.1.3,Win32,59.93407252,62bbe60bf3d75ef465d3e404,0,41,41,17,1,onethree,,,,,,,,,,,,,,,,,,,,,,,,,,,,,,,,,,,,,,,,,,,,,,,,,,,,,,,,,,,,,,,,,,,,,,,,,,,,,,,,,,,,,,,,,,,,,,,,,,,,,,,,,,,,,,,,,,,,,,,,,,,,,,,,,,,,,,,,,,,,,,,,,,,,,,,,
,,,,,,61154503002b93af22a9353d,62bbfb75e7de68c3549c517e,2022-06-29_09h14.06.676,Colour_Asymmetry_Pilot,2022.1.3,Win32,59.93407252,62bbe60bf3d75ef465d3e404,0,42,42,58,1,twoone,,,,,,,,,,,,,,,,,,,,,,,,,,,,,,,,,,,,,,,,,,,,,,,,,,,,,,,,,,,,,,,,,,,,,,,,,,,,,,,,,,,,,,,,,,,,,,,,,,,,,,,,,,,,,,,,,,,,,,,,,,,,,,,,,,,,,,,,,,,,,,,,,,,,,,,,
,,,,,,61154503002b93af22a9353d,62bbfb75e7de68c3549c517e,2022-06-29_09h14.06.676,Colour_Asymmetry_Pilot,2022.1.3,Win32,59.93407252,62bbe60bf3d75ef465d3e404,0,43,43,49,1,onethree,,,,,,,,,,,,,,,,,,,,,,,,,,,,,,,,,,,,,,,,,,,,,,,,,,,,,,,,,,,,,,,,,,,,,,,,,,,,,,,,,,,,,,,,,,,,,,,,,,,,,,,,,,,,,,,,,,,,,,,,,,,,,,,,,,,,,,,,,,,,,,,,,,,,,,,,
,,,,,,61154503002b93af22a9353d,62bbfb75e7de68c3549c517e,2022-06-29_09h14.06.676,Colour_Asymmetry_Pilot,2022.1.3,Win32,59.93407252,62bbe60bf3d75ef465d3e404,0,44,44,57,1,onethree,,,,,,,,,,,,,,,,,,,,,,,,,,,,,,,,,,,,,,,,,,,,,,,,,,,,,,,,,,,,,,,,,,,,,,,,,,,,,,,,,,,,,,,,,,,,,,,,,,,,,,,,,,,,,,,,,,,,,,,,,,,,,,,,,,,,,,,,,,,,,,,,,,,,,,,,
,,,,,,61154503002b93af22a9353d,62bbfb75e7de68c3549c517e,2022-06-29_09h14.06.676,Colour_Asymmetry_Pilot,2022.1.3,Win32,59.93407252,62bbe60bf3d75ef465d3e404,0,45,45,88,1,onetwo,,,,,,,,,,,,,,,,,,,,,,,,,,,,,,,,,,,,,,,,,,,,,,,,,,,,,,,,,,,,,,,,,,,,,,,,,,,,,,,,,,,,,,,,,,,,,,,,,,,,,,,,,,,,,,,,,,,,,,,,,,,,,,,,,,,,,,,,,,,,,,,,,,,,,,,,
,,,,,,61154503002b93af22a9353d,62bbfb75e7de68c3549c517e,2022-06-29_09h14.06.676,Colour_Asymmetry_Pilot,2022.1.3,Win32,59.93407252,62bbe60bf3d75ef465d3e404,0,46,46,113,1,onethree,,,,,,,,,,,,,,,,,,,,,,,,,,,,,,,,,,,,,,,,,,,,,,,,,,,,,,,,,,,,,,,,,,,,,,,,,,,,,,,,,,,,,,,,,,,,,,,,,,,,,,,,,,,,,,,,,,,,,,,,,,,,,,,,,,,,,,,,,,,,,,,,,,,,,,,,
,,,,,,61154503002b93af22a9353d,62bbfb75e7de68c3549c517e,2022-06-29_09h14.06.676,Colour_Asymmetry_Pilot,2022.1.3,Win32,59.93407252,62bbe60bf3d75ef465d3e404,0,47,47,44,1,threeone,,,,,,,,,,,,,,,,,,,,,,,,,,,,,,,,,,,,,,,,,,,,,,,,,,,,,,,,,,,,,,,,,,,,,,,,,,,,,,,,,,,,,,,,,,,,,,,,,,,,,,,,,,,,,,,,,,,,,,,,,,,,,,,,,,,,,,,,,,,,,,,,,,,,,,,,
,,,,,,61154503002b93af22a9353d,62bbfb75e7de68c3549c517e,2022-06-29_09h14.06.676,Colour_Asymmetry_Pilot,2022.1.3,Win32,59.93407252,62bbe60bf3d75ef465d3e404,0,48,48,101,1,threefour,,,,,,,,,,,,,,,,,,,,,,,,,,,,,,,,,,,,,,,,,,,,,,,,,,,,,,,,,,,,,,,,,,,,,,,,,,,,,,,,,,,,,,,,,,,,,,,,,,,,,,,,,,,,,,,,,,,,,,,,,,,,,,,,,,,,,,,,,,,,,,,,,,,,,,,,
,,,,,,61154503002b93af22a9353d,62bbfb75e7de68c3549c517e,2022-06-29_09h14.06.676,Colour_Asymmetry_Pilot,2022.1.3,Win32,59.93407252,62bbe60bf3d75ef465d3e404,0,49,49,143,1,fourthree,,,,,,,,,,,,,,,,,,,,,,,,,,,,,,,,,,,,,,,,,,,,,,,,,,,,,,,,,,,,,,,,,,,,,,,,,,,,,,,,,,,,,,,,,,,,,,,,,,,,,,,,,,,,,,,,,,,,,,,,,,,,,,,,,,,,,,,,,,,,,,,,,,,,,,,,
,,,,,,61154503002b93af22a9353d,62bbfb75e7de68c3549c517e,2022-06-29_09h14.06.676,Colour_Asymmetry_Pilot,2022.1.3,Win32,59.93407252,62bbe60bf3d75ef465d3e404,0,50,50,102,1,fourtwo,,,,,,,,,,,,,,,,,,,,,,,,,,,,,,,,,,,,,,,,,,,,,,,,,,,,,,,,,,,,,,,,,,,,,,,,,,,,,,,,,,,,,,,,,,,,,,,,,,,,,,,,,,,,,,,,,,,,,,,,,,,,,,,,,,,,,,,,,,,,,,,,,,,,,,,,
,,,,,,61154503002b93af22a9353d,62bbfb75e7de68c3549c517e,2022-06-29_09h14.06.676,Colour_Asymmetry_Pilot,2022.1.3,Win32,59.93407252,62bbe60bf3d75ef465d3e404,0,51,51,31,1,fourthree,,,,,,,,,,,,,,,,,,,,,,,,,,,,,,,,,,,,,,,,,,,,,,,,,,,,,,,,,,,,,,,,,,,,,,,,,,,,,,,,,,,,,,,,,,,,,,,,,,,,,,,,,,,,,,,,,,,,,,,,,,,,,,,,,,,,,,,,,,,,,,,,,,,,,,,,
,,,,,,61154503002b93af22a9353d,62bbfb75e7de68c3549c517e,2022-06-29_09h14.06.676,Colour_Asymmetry_Pilot,2022.1.3,Win32,59.93407252,62bbe60bf3d75ef465d3e404,0,52,52,119,1,fourthree,,,,,,,,,,,,,,,,,,,,,,,,,,,,,,,,,,,,,,,,,,,,,,,,,,,,,,,,,,,,,,,,,,,,,,,,,,,,,,,,,,,,,,,,,,,,,,,,,,,,,,,,,,,,,,,,,,,,,,,,,,,,,,,,,,,,,,,,,,,,,,,,,,,,,,,,
,,,,,,61154503002b93af22a9353d,62bbfb75e7de68c3549c517e,2022-06-29_09h14.06.676,Colour_Asymmetry_Pilot,2022.1.3,Win32,59.93407252,62bbe60bf3d75ef465d3e404,0,53,53,161,1,onethree,,,,,,,,,,,,,,,,,,,,,,,,,,,,,,,,,,,,,,,,,,,,,,,,,,,,,,,,,,,,,,,,,,,,,,,,,,,,,,,,,,,,,,,,,,,,,,,,,,,,,,,,,,,,,,,,,,,,,,,,,,,,,,,,,,,,,,,,,,,,,,,,,,,,,,,,
,,,,,,61154503002b93af22a9353d,62bbfb75e7de68c3549c517e,2022-06-29_09h14.06.676,Colour_Asymmetry_Pilot,2022.1.3,Win32,59.93407252,62bbe60bf3d75ef465d3e404,0,54,54,130,1,twoone,,,,,,,,,,,,,,,,,,,,,,,,,,,,,,,,,,,,,,,,,,,,,,,,,,,,,,,,,,,,,,,,,,,,,,,,,,,,,,,,,,,,,,,,,,,,,,,,,,,,,,,,,,,,,,,,,,,,,,,,,,,,,,,,,,,,,,,,,,,,,,,,,,,,,,,,
,,,,,,61154503002b93af22a9353d,62bbfb75e7de68c3549c517e,2022-06-29_09h14.06.676,Colour_Asymmetry_Pilot,2022.1.3,Win32,59.93407252,62bbe60bf3d75ef465d3e404,0,55,55,59,1,twofour,,,,,,,,,,,,,,,,,,,,,,,,,,,,,,,,,,,,,,,,,,,,,,,,,,,,,,,,,,,,,,,,,,,,,,,,,,,,,,,,,,,,,,,,,,,,,,,,,,,,,,,,,,,,,,,,,,,,,,,,,,,,,,,,,,,,,,,,,,,,,,,,,,,,,,,,
,,,,,,61154503002b93af22a9353d,62bbfb75e7de68c3549c517e,2022-06-29_09h14.06.676,Colour_Asymmetry_Pilot,2022.1.3,Win32,59.93407252,62bbe60bf3d75ef465d3e404,0,56,56,35,1,twofour,,,,,,,,,,,,,,,,,,,,,,,,,,,,,,,,,,,,,,,,,,,,,,,,,,,,,,,,,,,,,,,,,,,,,,,,,,,,,,,,,,,,,,,,,,,,,,,,,,,,,,,,,,,,,,,,,,,,,,,,,,,,,,,,,,,,,,,,,,,,,,,,,,,,,,,,
,,,,,,61154503002b93af22a9353d,62bbfb75e7de68c3549c517e,2022-06-29_09h14.06.676,Colour_Asymmetry_Pilot,2022.1.3,Win32,59.93407252,62bbe60bf3d75ef465d3e404,0,57,57,16,1,onetwo,,,,,,,,,,,,,,,,,,,,,,,,,,,,,,,,,,,,,,,,,,,,,,,,,,,,,,,,,,,,,,,,,,,,,,,,,,,,,,,,,,,,,,,,,,,,,,,,,,,,,,,,,,,,,,,,,,,,,,,,,,,,,,,,,,,,,,,,,,,,,,,,,,,,,,,,
,,,,,,61154503002b93af22a9353d,62bbfb75e7de68c3549c517e,2022-06-29_09h14.06.676,Colour_Asymmetry_Pilot,2022.1.3,Win32,59.93407252,62bbe60bf3d75ef465d3e404,0,58,58,28,1,threeone,,,,,,,,,,,,,,,,,,,,,,,,,,,,,,,,,,,,,,,,,,,,,,,,,,,,,,,,,,,,,,,,,,,,,,,,,,,,,,,,,,,,,,,,,,,,,,,,,,,,,,,,,,,,,,,,,,,,,,,,,,,,,,,,,,,,,,,,,,,,,,,,,,,,,,,,
,,,,,,61154503002b93af22a9353d,62bbfb75e7de68c3549c517e,2022-06-29_09h14.06.676,Colour_Asymmetry_Pilot,2022.1.3,Win32,59.93407252,62bbe60bf3d75ef465d3e404,0,59,59,82,1,twoone,,,,,,,,,,,,,,,,,,,,,,,,,,,,,,,,,,,,,,,,,,,,,,,,,,,,,,,,,,,,,,,,,,,,,,,,,,,,,,,,,,,,,,,,,,,,,,,,,,,,,,,,,,,,,,,,,,,,,,,,,,,,,,,,,,,,,,,,,,,,,,,,,,,,,,,,
,,,,,,61154503002b93af22a9353d,62bbfb75e7de68c3549c517e,2022-06-29_09h14.06.676,Colour_Asymmetry_Pilot,2022.1.3,Win32,59.93407252,62bbe60bf3d75ef465d3e404,0,60,60,34,1,twoone,,,,,,,,,,,,,,,,,,,,,,,,,,,,,,,,,,,,,,,,,,,,,,,,,,,,,,,,,,,,,,,,,,,,,,,,,,,,,,,,,,,,,,,,,,,,,,,,,,,,,,,,,,,,,,,,,,,,,,,,,,,,,,,,,,,,,,,,,,,,,,,,,,,,,,,,
,,,,,,61154503002b93af22a9353d,62bbfb75e7de68c3549c517e,2022-06-29_09h14.06.676,Colour_Asymmetry_Pilot,2022.1.3,Win32,59.93407252,62bbe60bf3d75ef465d3e404,0,61,61,21,1,threefour,,,,,,,,,,,,,,,,,,,,,,,,,,,,,,,,,,,,,,,,,,,,,,,,,,,,,,,,,,,,,,,,,,,,,,,,,,,,,,,,,,,,,,,,,,,,,,,,,,,,,,,,,,,,,,,,,,,,,,,,,,,,,,,,,,,,,,,,,,,,,,,,,,,,,,,,
,,,,,,61154503002b93af22a9353d,62bbfb75e7de68c3549c517e,2022-06-29_09h14.06.676,Colour_Asymmetry_Pilot,2022.1.3,Win32,59.93407252,62bbe60bf3d75ef465d3e404,0,62,62,63,1,fourthree,,,,,,,,,,,,,,,,,,,,,,,,,,,,,,,,,,,,,,,,,,,,,,,,,,,,,,,,,,,,,,,,,,,,,,,,,,,,,,,,,,,,,,,,,,,,,,,,,,,,,,,,,,,,,,,,,,,,,,,,,,,,,,,,,,,,,,,,,,,,,,,,,,,,,,,,
,,,,,,61154503002b93af22a9353d,62bbfb75e7de68c3549c517e,2022-06-29_09h14.06.676,Colour_Asymmetry_Pilot,2022.1.3,Win32,59.93407252,62bbe60bf3d75ef465d3e404,0,63,63,121,1,onethree,,,,,,,,,,,,,,,,,,,,,,,,,,,,,,,,,,,,,,,,,,,,,,,,,,,,,,,,,,,,,,,,,,,,,,,,,,,,,,,,,,,,,,,,,,,,,,,,,,,,,,,,,,,,,,,,,,,,,,,,,,,,,,,,,,,,,,,,,,,,,,,,,,,,,,,,
,,,,,,61154503002b93af22a9353d,62bbfb75e7de68c3549c517e,2022-06-29_09h14.06.676,Colour_Asymmetry_Pilot,2022.1.3,Win32,59.93407252,62bbe60bf3d75ef465d3e404,0,64,64,56,1,onetwo,,,,,,,,,,,,,,,,,,,,,,,,,,,,,,,,,,,,,,,,,,,,,,,,,,,,,,,,,,,,,,,,,,,,,,,,,,,,,,,,,,,,,,,,,,,,,,,,,,,,,,,,,,,,,,,,,,,,,,,,,,,,,,,,,,,,,,,,,,,,,,,,,,,,,,,,
,,,,,,61154503002b93af22a9353d,62bbfb75e7de68c3549c517e,2022-06-29_09h14.06.676,Colour_Asymmetry_Pilot,2022.1.3,Win32,59.93407252,62bbe60bf3d75ef465d3e404,0,65,65,152,1,onetwo,,,,,,,,,,,,,,,,,,,,,,,,,,,,,,,,,,,,,,,,,,,,,,,,,,,,,,,,,,,,,,,,,,,,,,,,,,,,,,,,,,,,,,,,,,,,,,,,,,,,,,,,,,,,,,,,,,,,,,,,,,,,,,,,,,,,,,,,,,,,,,,,,,,,,,,,
,,,,,,61154503002b93af22a9353d,62bbfb75e7de68c3549c517e,2022-06-29_09h14.06.676,Colour_Asymmetry_Pilot,2022.1.3,Win32,59.93407252,62bbe60bf3d75ef465d3e404,0,66,66,160,1,onetwo,,,,,,,,,,,,,,,,,,,,,,,,,,,,,,,,,,,,,,,,,,,,,,,,,,,,,,,,,,,,,,,,,,,,,,,,,,,,,,,,,,,,,,,,,,,,,,,,,,,,,,,,,,,,,,,,,,,,,,,,,,,,,,,,,,,,,,,,,,,,,,,,,,,,,,,,
,,,,,,61154503002b93af22a9353d,62bbfb75e7de68c3549c517e,2022-06-29_09h14.06.676,Colour_Asymmetry_Pilot,2022.1.3,Win32,59.93407252,62bbe60bf3d75ef465d3e404,0,67,67,137,1,onethree,,,,,,,,,,,,,,,,,,,,,,,,,,,,,,,,,,,,,,,,,,,,,,,,,,,,,,,,,,,,,,,,,,,,,,,,,,,,,,,,,,,,,,,,,,,,,,,,,,,,,,,,,,,,,,,,,,,,,,,,,,,,,,,,,,,,,,,,,,,,,,,,,,,,,,,,
,,,,,,61154503002b93af22a9353d,62bbfb75e7de68c3549c517e,2022-06-29_09h14.06.676,Colour_Asymmetry_Pilot,2022.1.3,Win32,59.93407252,62bbe60bf3d75ef465d3e404,0,68,68,140,1,threeone,,,,,,,,,,,,,,,,,,,,,,,,,,,,,,,,,,,,,,,,,,,,,,,,,,,,,,,,,,,,,,,,,,,,,,,,,,,,,,,,,,,,,,,,,,,,,,,,,,,,,,,,,,,,,,,,,,,,,,,,,,,,,,,,,,,,,,,,,,,,,,,,,,,,,,,,
,,,,,,61154503002b93af22a9353d,62bbfb75e7de68c3549c517e,2022-06-29_09h14.06.676,Colour_Asymmetry_Pilot,2022.1.3,Win32,59.93407252,62bbe60bf3d75ef465d3e404,0,69,69,70,1,fourtwo,,,,,,,,,,,,,,,,,,,,,,,,,,,,,,,,,,,,,,,,,,,,,,,,,,,,,,,,,,,,,,,,,,,,,,,,,,,,,,,,,,,,,,,,,,,,,,,,,,,,,,,,,,,,,,,,,,,,,,,,,,,,,,,,,,,,,,,,,,,,,,,,,,,,,,,,
,,,,,,61154503002b93af22a9353d,62bbfb75e7de68c3549c517e,2022-06-29_09h14.06.676,Colour_Asymmetry_Pilot,2022.1.3,Win32,59.93407252,62bbe60bf3d75ef465d3e404,0,70,70,23,1,fourthree,,,,,,,,,,,,,,,,,,,,,,,,,,,,,,,,,,,,,,,,,,,,,,,,,,,,,,,,,,,,,,,,,,,,,,,,,,,,,,,,,,,,,,,,,,,,,,,,,,,,,,,,,,,,,,,,,,,,,,,,,,,,,,,,,,,,,,,,,,,,,,,,,,,,,,,,
,,,,,,61154503002b93af22a9353d,62bbfb75e7de68c3549c517e,2022-06-29_09h14.06.676,Colour_Asymmetry_Pilot,2022.1.3,Win32,59.93407252,62bbe60bf3d75ef465d3e404,0,71,71,158,1,fourtwo,,,,,,,,,,,,,,,,,,,,,,,,,,,,,,,,,,,,,,,,,,,,,,,,,,,,,,,,,,,,,,,,,,,,,,,,,,,,,,,,,,,,,,,,,,,,,,,,,,,,,,,,,,,,,,,,,,,,,,,,,,,,,,,,,,,,,,,,,,,,,,,,,,,,,,,,
,,,,,,61154503002b93af22a9353d,62bbfb75e7de68c3549c517e,2022-06-29_09h14.06.676,Colour_Asymmetry_Pilot,2022.1.3,Win32,59.93407252,62bbe60bf3d75ef465d3e404,0,72,72,4,1,threeone,,,,,,,,,,,,,,,,,,,,,,,,,,,,,,,,,,,,,,,,,,,,,,,,,,,,,,,,,,,,,,,,,,,,,,,,,,,,,,,,,,,,,,,,,,,,,,,,,,,,,,,,,,,,,,,,,,,,,,,,,,,,,,,,,,,,,,,,,,,,,,,,,,,,,,,,
,,,,,,61154503002b93af22a9353d,62bbfb75e7de68c3549c517e,2022-06-29_09h14.06.676,Colour_Asymmetry_Pilot,2022.1.3,Win32,59.93407252,62bbe60bf3d75ef465d3e404,0,73,73,71,1,fourthree,,,,,,,,,,,,,,,,,,,,,,,,,,,,,,,,,,,,,,,,,,,,,,,,,,,,,,,,,,,,,,,,,,,,,,,,,,,,,,,,,,,,,,,,,,,,,,,,,,,,,,,,,,,,,,,,,,,,,,,,,,,,,,,,,,,,,,,,,,,,,,,,,,,,,,,,
,,,,,,61154503002b93af22a9353d,62bbfb75e7de68c3549c517e,2022-06-29_09h14.06.676,Colour_Asymmetry_Pilot,2022.1.3,Win32,59.93407252,62bbe60bf3d75ef465d3e404,0,74,74,133,1,threefour,,,,,,,,,,,,,,,,,,,,,,,,,,,,,,,,,,,,,,,,,,,,,,,,,,,,,,,,,,,,,,,,,,,,,,,,,,,,,,,,,,,,,,,,,,,,,,,,,,,,,,,,,,,,,,,,,,,,,,,,,,,,,,,,,,,,,,,,,,,,,,,,,,,,,,,,
,,,,,,61154503002b93af22a9353d,62bbfb75e7de68c3549c517e,2022-06-29_09h14.06.676,Colour_Asymmetry_Pilot,2022.1.3,Win32,59.93407252,62bbe60bf3d75ef465d3e404,0,75,75,50,1,twoone,,,,,,,,,,,,,,,,,,,,,,,,,,,,,,,,,,,,,,,,,,,,,,,,,,,,,,,,,,,,,,,,,,,,,,,,,,,,,,,,,,,,,,,,,,,,,,,,,,,,,,,,,,,,,,,,,,,,,,,,,,,,,,,,,,,,,,,,,,,,,,,,,,,,,,,,
,,,,,,61154503002b93af22a9353d,62bbfb75e7de68c3549c517e,2022-06-29_09h14.06.676,Colour_Asymmetry_Pilot,2022.1.3,Win32,59.93407252,62bbe60bf3d75ef465d3e404,0,76,76,33,1,onethree,,,,,,,,,,,,,,,,,,,,,,,,,,,,,,,,,,,,,,,,,,,,,,,,,,,,,,,,,,,,,,,,,,,,,,,,,,,,,,,,,,,,,,,,,,,,,,,,,,,,,,,,,,,,,,,,,,,,,,,,,,,,,,,,,,,,,,,,,,,,,,,,,,,,,,,,
,,,,,,61154503002b93af22a9353d,62bbfb75e7de68c3549c517e,2022-06-29_09h14.06.676,Colour_Asymmetry_Pilot,2022.1.3,Win32,59.93407252,62bbe60bf3d75ef465d3e404,0,77,77,60,1,threeone,,,,,,,,,,,,,,,,,,,,,,,,,,,,,,,,,,,,,,,,,,,,,,,,,,,,,,,,,,,,,,,,,,,,,,,,,,,,,,,,,,,,,,,,,,,,,,,,,,,,,,,,,,,,,,,,,,,,,,,,,,,,,,,,,,,,,,,,,,,,,,,,,,,,,,,,
,,,,,,61154503002b93af22a9353d,62bbfb75e7de68c3549c517e,2022-06-29_09h14.06.676,Colour_Asymmetry_Pilot,2022.1.3,Win32,59.93407252,62bbe60bf3d75ef465d3e404,0,78,78,11,1,twofour,,,,,,,,,,,,,,,,,,,,,,,,,,,,,,,,,,,,,,,,,,,,,,,,,,,,,,,,,,,,,,,,,,,,,,,,,,,,,,,,,,,,,,,,,,,,,,,,,,,,,,,,,,,,,,,,,,,,,,,,,,,,,,,,,,,,,,,,,,,,,,,,,,,,,,,,
,,,,,,61154503002b93af22a9353d,62bbfb75e7de68c3549c517e,2022-06-29_09h14.06.676,Colour_Asymmetry_Pilot,2022.1.3,Win32,59.93407252,62bbe60bf3d75ef465d3e404,0,79,79,20,1,threeone,,,,,,,,,,,,,,,,,,,,,,,,,,,,,,,,,,,,,,,,,,,,,,,,,,,,,,,,,,,,,,,,,,,,,,,,,,,,,,,,,,,,,,,,,,,,,,,,,,,,,,,,,,,,,,,,,,,,,,,,,,,,,,,,,,,,,,,,,,,,,,,,,,,,,,,,
,,,,,,61154503002b93af22a9353d,62bbfb75e7de68c3549c517e,2022-06-29_09h14.06.676,Colour_Asymmetry_Pilot,2022.1.3,Win32,59.93407252,62bbe60bf3d75ef465d3e404,0,80,80,106,1,twoone,,,,,,,,,,,,,,,,,,,,,,,,,,,,,,,,,,,,,,,,,,,,,,,,,,,,,,,,,,,,,,,,,,,,,,,,,,,,,,,,,,,,,,,,,,,,,,,,,,,,,,,,,,,,,,,,,,,,,,,,,,,,,,,,,,,,,,,,,,,,,,,,,,,,,,,,
,,,,,,61154503002b93af22a9353d,62bbfb75e7de68c3549c517e,2022-06-29_09h14.06.676,Colour_Asymmetry_Pilot,2022.1.3,Win32,59.93407252,62bbe60bf3d75ef465d3e404,0,81,81,117,1,threefour,,,,,,,,,,,,,,,,,,,,,,,,,,,,,,,,,,,,,,,,,,,,,,,,,,,,,,,,,,,,,,,,,,,,,,,,,,,,,,,,,,,,,,,,,,,,,,,,,,,,,,,,,,,,,,,,,,,,,,,,,,,,,,,,,,,,,,,,,,,,,,,,,,,,,,,,
,,,,,,61154503002b93af22a9353d,62bbfb75e7de68c3549c517e,2022-06-29_09h14.06.676,Colour_Asymmetry_Pilot,2022.1.3,Win32,59.93407252,62bbe60bf3d75ef465d3e404,0,82,82,30,1,fourtwo,,,,,,,,,,,,,,,,,,,,,,,,,,,,,,,,,,,,,,,,,,,,,,,,,,,,,,,,,,,,,,,,,,,,,,,,,,,,,,,,,,,,,,,,,,,,,,,,,,,,,,,,,,,,,,,,,,,,,,,,,,,,,,,,,,,,,,,,,,,,,,,,,,,,,,,,
,,,,,,61154503002b93af22a9353d,62bbfb75e7de68c3549c517e,2022-06-29_09h14.06.676,Colour_Asymmetry_Pilot,2022.1.3,Win32,59.93407252,62bbe60bf3d75ef465d3e404,0,83,83,0,1,onetwo,,,,,,,,,,,,,,,,,,,,,,,,,,,,,,,,,,,,,,,,,,,,,,,,,,,,,,,,,,,,,,,,,,,,,,,,,,,,,,,,,,,,,,,,,,,,,,,,,,,,,,,,,,,,,,,,,,,,,,,,,,,,,,,,,,,,,,,,,,,,,,,,,,,,,,,,
,,,,,,61154503002b93af22a9353d,62bbfb75e7de68c3549c517e,2022-06-29_09h14.06.676,Colour_Asymmetry_Pilot,2022.1.3,Win32,59.93407252,62bbe60bf3d75ef465d3e404,0,84,84,9,1,onethree,,,,,,,,,,,,,,,,,,,,,,,,,,,,,,,,,,,,,,,,,,,,,,,,,,,,,,,,,,,,,,,,,,,,,,,,,,,,,,,,,,,,,,,,,,,,,,,,,,,,,,,,,,,,,,,,,,,,,,,,,,,,,,,,,,,,,,,,,,,,,,,,,,,,,,,,
,,,,,,61154503002b93af22a9353d,62bbfb75e7de68c3549c517e,2022-06-29_09h14.06.676,Colour_Asymmetry_Pilot,2022.1.3,Win32,59.93407252,62bbe60bf3d75ef465d3e404,0,85,85,104,1,onetwo,,,,,,,,,,,,,,,,,,,,,,,,,,,,,,,,,,,,,,,,,,,,,,,,,,,,,,,,,,,,,,,,,,,,,,,,,,,,,,,,,,,,,,,,,,,,,,,,,,,,,,,,,,,,,,,,,,,,,,,,,,,,,,,,,,,,,,,,,,,,,,,,,,,,,,,,
,,,,,,61154503002b93af22a9353d,62bbfb75e7de68c3549c517e,2022-06-29_09h14.06.676,Colour_Asymmetry_Pilot,2022.1.3,Win32,59.93407252,62bbe60bf3d75ef465d3e404,0,86,86,36,1,threeone,,,,,,,,,,,,,,,,,,,,,,,,,,,,,,,,,,,,,,,,,,,,,,,,,,,,,,,,,,,,,,,,,,,,,,,,,,,,,,,,,,,,,,,,,,,,,,,,,,,,,,,,,,,,,,,,,,,,,,,,,,,,,,,,,,,,,,,,,,,,,,,,,,,,,,,,
,,,,,,61154503002b93af22a9353d,62bbfb75e7de68c3549c517e,2022-06-29_09h14.06.676,Colour_Asymmetry_Pilot,2022.1.3,Win32,59.93407252,62bbe60bf3d75ef465d3e404,0,87,87,127,1,fourthree,,,,,,,,,,,,,,,,,,,,,,,,,,,,,,,,,,,,,,,,,,,,,,,,,,,,,,,,,,,,,,,,,,,,,,,,,,,,,,,,,,,,,,,,,,,,,,,,,,,,,,,,,,,,,,,,,,,,,,,,,,,,,,,,,,,,,,,,,,,,,,,,,,,,,,,,
,,,,,,61154503002b93af22a9353d,62bbfb75e7de68c3549c517e,2022-06-29_09h14.06.676,Colour_Asymmetry_Pilot,2022.1.3,Win32,59.93407252,62bbe60bf3d75ef465d3e404,0,88,88,24,1,onetwo,,,,,,,,,,,,,,,,,,,,,,,,,,,,,,,,,,,,,,,,,,,,,,,,,,,,,,,,,,,,,,,,,,,,,,,,,,,,,,,,,,,,,,,,,,,,,,,,,,,,,,,,,,,,,,,,,,,,,,,,,,,,,,,,,,,,,,,,,,,,,,,,,,,,,,,,
,,,,,,61154503002b93af22a9353d,62bbfb75e7de68c3549c517e,2022-06-29_09h14.06.676,Colour_Asymmetry_Pilot,2022.1.3,Win32,59.93407252,62bbe60bf3d75ef465d3e404,0,89,89,116,1,threeone,,,,,,,,,,,,,,,,,,,,,,,,,,,,,,,,,,,,,,,,,,,,,,,,,,,,,,,,,,,,,,,,,,,,,,,,,,,,,,,,,,,,,,,,,,,,,,,,,,,,,,,,,,,,,,,,,,,,,,,,,,,,,,,,,,,,,,,,,,,,,,,,,,,,,,,,
,,,,,,61154503002b93af22a9353d,62bbfb75e7de68c3549c517e,2022-06-29_09h14.06.676,Colour_Asymmetry_Pilot,2022.1.3,Win32,59.93407252,62bbe60bf3d75ef465d3e404,0,90,90,46,1,fourtwo,,,,,,,,,,,,,,,,,,,,,,,,,,,,,,,,,,,,,,,,,,,,,,,,,,,,,,,,,,,,,,,,,,,,,,,,,,,,,,,,,,,,,,,,,,,,,,,,,,,,,,,,,,,,,,,,,,,,,,,,,,,,,,,,,,,,,,,,,,,,,,,,,,,,,,,,
,,,,,,61154503002b93af22a9353d,62bbfb75e7de68c3549c517e,2022-06-29_09h14.06.676,Colour_Asymmetry_Pilot,2022.1.3,Win32,59.93407252,62bbe60bf3d75ef465d3e404,0,91,91,37,1,threefour,,,,,,,,,,,,,,,,,,,,,,,,,,,,,,,,,,,,,,,,,,,,,,,,,,,,,,,,,,,,,,,,,,,,,,,,,,,,,,,,,,,,,,,,,,,,,,,,,,,,,,,,,,,,,,,,,,,,,,,,,,,,,,,,,,,,,,,,,,,,,,,,,,,,,,,,
,,,,,,61154503002b93af22a9353d,62bbfb75e7de68c3549c517e,2022-06-29_09h14.06.676,Colour_Asymmetry_Pilot,2022.1.3,Win32,59.93407252,62bbe60bf3d75ef465d3e404,0,92,92,156,1,threeone,,,,,,,,,,,,,,,,,,,,,,,,,,,,,,,,,,,,,,,,,,,,,,,,,,,,,,,,,,,,,,,,,,,,,,,,,,,,,,,,,,,,,,,,,,,,,,,,,,,,,,,,,,,,,,,,,,,,,,,,,,,,,,,,,,,,,,,,,,,,,,,,,,,,,,,,
,,,,,,61154503002b93af22a9353d,62bbfb75e7de68c3549c517e,2022-06-29_09h14.06.676,Colour_Asymmetry_Pilot,2022.1.3,Win32,59.93407252,62bbe60bf3d75ef465d3e404,0,93,93,66,1,twoone,,,,,,,,,,,,,,,,,,,,,,,,,,,,,,,,,,,,,,,,,,,,,,,,,,,,,,,,,,,,,,,,,,,,,,,,,,,,,,,,,,,,,,,,,,,,,,,,,,,,,,,,,,,,,,,,,,,,,,,,,,,,,,,,,,,,,,,,,,,,,,,,,,,,,,,,
,,,,,,61154503002b93af22a9353d,62bbfb75e7de68c3549c517e,2022-06-29_09h14.06.676,Colour_Asymmetry_Pilot,2022.1.3,Win32,59.93407252,62bbe60bf3d75ef465d3e404,0,94,94,154,1,twoone,,,,,,,,,,,,,,,,,,,,,,,,,,,,,,,,,,,,,,,,,,,,,,,,,,,,,,,,,,,,,,,,,,,,,,,,,,,,,,,,,,,,,,,,,,,,,,,,,,,,,,,,,,,,,,,,,,,,,,,,,,,,,,,,,,,,,,,,,,,,,,,,,,,,,,,,
,,,,,,61154503002b93af22a9353d,62bbfb75e7de68c3549c517e,2022-06-29_09h14.06.676,Colour_Asymmetry_Pilot,2022.1.3,Win32,59.93407252,62bbe60bf3d75ef465d3e404,0,95,95,41,1,onethree,,,,,,,,,,,,,,,,,,,,,,,,,,,,,,,,,,,,,,,,,,,,,,,,,,,,,,,,,,,,,,,,,,,,,,,,,,,,,,,,,,,,,,,,,,,,,,,,,,,,,,,,,,,,,,,,,,,,,,,,,,,,,,,,,,,,,,,,,,,,,,,,,,,,,,,,
,,,,,,61154503002b93af22a9353d,62bbfb75e7de68c3549c517e,2022-06-29_09h14.06.676,Colour_Asymmetry_Pilot,2022.1.3,Win32,59.93407252,62bbe60bf3d75ef465d3e404,0,96,96,89,1,onethree,,,,,,,,,,,,,,,,,,,,,,,,,,,,,,,,,,,,,,,,,,,,,,,,,,,,,,,,,,,,,,,,,,,,,,,,,,,,,,,,,,,,,,,,,,,,,,,,,,,,,,,,,,,,,,,,,,,,,,,,,,,,,,,,,,,,,,,,,,,,,,,,,,,,,,,,
,,,,,,61154503002b93af22a9353d,62bbfb75e7de68c3549c517e,2022-06-29_09h14.06.676,Colour_Asymmetry_Pilot,2022.1.3,Win32,59.93407252,62bbe60bf3d75ef465d3e404,0,97,97,86,1,fourtwo,,,,,,,,,,,,,,,,,,,,,,,,,,,,,,,,,,,,,,,,,,,,,,,,,,,,,,,,,,,,,,,,,,,,,,,,,,,,,,,,,,,,,,,,,,,,,,,,,,,,,,,,,,,,,,,,,,,,,,,,,,,,,,,,,,,,,,,,,,,,,,,,,,,,,,,,
,,,,,,61154503002b93af22a9353d,62bbfb75e7de68c3549c517e,2022-06-29_09h14.06.676,Colour_Asymmetry_Pilot,2022.1.3,Win32,59.93407252,62bbe60bf3d75ef465d3e404,0,98,98,81,1,onethree,,,,,,,,,,,,,,,,,,,,,,,,,,,,,,,,,,,,,,,,,,,,,,,,,,,,,,,,,,,,,,,,,,,,,,,,,,,,,,,,,,,,,,,,,,,,,,,,,,,,,,,,,,,,,,,,,,,,,,,,,,,,,,,,,,,,,,,,,,,,,,,,,,,,,,,,
,,,,,,61154503002b93af22a9353d,62bbfb75e7de68c3549c517e,2022-06-29_09h14.06.676,Colour_Asymmetry_Pilot,2022.1.3,Win32,59.93407252,62bbe60bf3d75ef465d3e404,0,99,99,42,1,twoone,,,,,,,,,,,,,,,,,,,,,,,,,,,,,,,,,,,,,,,,,,,,,,,,,,,,,,,,,,,,,,,,,,,,,,,,,,,,,,,,,,,,,,,,,,,,,,,,,,,,,,,,,,,,,,,,,,,,,,,,,,,,,,,,,,,,,,,,,,,,,,,,,,,,,,,,
,,,,,,61154503002b93af22a9353d,62bbfb75e7de68c3549c517e,2022-06-29_09h14.06.676,Colour_Asymmetry_Pilot,2022.1.3,Win32,59.93407252,62bbe60bf3d75ef465d3e404,0,100,100,55,1,fourthree,,,,,,,,,,,,,,,,,,,,,,,,,,,,,,,,,,,,,,,,,,,,,,,,,,,,,,,,,,,,,,,,,,,,,,,,,,,,,,,,,,,,,,,,,,,,,,,,,,,,,,,,,,,,,,,,,,,,,,,,,,,,,,,,,,,,,,,,,,,,,,,,,,,,,,,,
,,,,,,61154503002b93af22a9353d,62bbfb75e7de68c3549c517e,2022-06-29_09h14.06.676,Colour_Asymmetry_Pilot,2022.1.3,Win32,59.93407252,62bbe60bf3d75ef465d3e404,0,101,101,47,1,fourthree,,,,,,,,,,,,,,,,,,,,,,,,,,,,,,,,,,,,,,,,,,,,,,,,,,,,,,,,,,,,,,,,,,,,,,,,,,,,,,,,,,,,,,,,,,,,,,,,,,,,,,,,,,,,,,,,,,,,,,,,,,,,,,,,,,,,,,,,,,,,,,,,,,,,,,,,
,,,,,,61154503002b93af22a9353d,62bbfb75e7de68c3549c517e,2022-06-29_09h14.06.676,Colour_Asymmetry_Pilot,2022.1.3,Win32,59.93407252,62bbe60bf3d75ef465d3e404,0,102,102,25,1,onethree,,,,,,,,,,,,,,,,,,,,,,,,,,,,,,,,,,,,,,,,,,,,,,,,,,,,,,,,,,,,,,,,,,,,,,,,,,,,,,,,,,,,,,,,,,,,,,,,,,,,,,,,,,,,,,,,,,,,,,,,,,,,,,,,,,,,,,,,,,,,,,,,,,,,,,,,
,,,,,,61154503002b93af22a9353d,62bbfb75e7de68c3549c517e,2022-06-29_09h14.06.676,Colour_Asymmetry_Pilot,2022.1.3,Win32,59.93407252,62bbe60bf3d75ef465d3e404,0,103,103,80,1,onetwo,,,,,,,,,,,,,,,,,,,,,,,,,,,,,,,,,,,,,,,,,,,,,,,,,,,,,,,,,,,,,,,,,,,,,,,,,,,,,,,,,,,,,,,,,,,,,,,,,,,,,,,,,,,,,,,,,,,,,,,,,,,,,,,,,,,,,,,,,,,,,,,,,,,,,,,,
,,,,,,61154503002b93af22a9353d,62bbfb75e7de68c3549c517e,2022-06-29_09h14.06.676,Colour_Asymmetry_Pilot,2022.1.3,Win32,59.93407252,62bbe60bf3d75ef465d3e404,0,104,104,8,1,onetwo,,,,,,,,,,,,,,,,,,,,,,,,,,,,,,,,,,,,,,,,,,,,,,,,,,,,,,,,,,,,,,,,,,,,,,,,,,,,,,,,,,,,,,,,,,,,,,,,,,,,,,,,,,,,,,,,,,,,,,,,,,,,,,,,,,,,,,,,,,,,,,,,,,,,,,,,
,,,,,,61154503002b93af22a9353d,62bbfb75e7de68c3549c517e,2022-06-29_09h14.06.676,Colour_Asymmetry_Pilot,2022.1.3,Win32,59.93407252,62bbe60bf3d75ef465d3e404,0,105,105,12,1,threeone,,,,,,,,,,,,,,,,,,,,,,,,,,,,,,,,,,,,,,,,,,,,,,,,,,,,,,,,,,,,,,,,,,,,,,,,,,,,,,,,,,,,,,,,,,,,,,,,,,,,,,,,,,,,,,,,,,,,,,,,,,,,,,,,,,,,,,,,,,,,,,,,,,,,,,,,
,,,,,,61154503002b93af22a9353d,62bbfb75e7de68c3549c517e,2022-06-29_09h14.06.676,Colour_Asymmetry_Pilot,2022.1.3,Win32,59.93407252,62bbe60bf3d75ef465d3e404,0,106,106,157,1,threefour,,,,,,,,,,,,,,,,,,,,,,,,,,,,,,,,,,,,,,,,,,,,,,,,,,,,,,,,,,,,,,,,,,,,,,,,,,,,,,,,,,,,,,,,,,,,,,,,,,,,,,,,,,,,,,,,,,,,,,,,,,,,,,,,,,,,,,,,,,,,,,,,,,,,,,,,
,,,,,,61154503002b93af22a9353d,62bbfb75e7de68c3549c517e,2022-06-29_09h14.06.676,Colour_Asymmetry_Pilot,2022.1.3,Win32,59.93407252,62bbe60bf3d75ef465d3e404,0,107,107,72,1,onetwo,,,,,,,,,,,,,,,,,,,,,,,,,,,,,,,,,,,,,,,,,,,,,,,,,,,,,,,,,,,,,,,,,,,,,,,,,,,,,,,,,,,,,,,,,,,,,,,,,,,,,,,,,,,,,,,,,,,,,,,,,,,,,,,,,,,,,,,,,,,,,,,,,,,,,,,,
,,,,,,61154503002b93af22a9353d,62bbfb75e7de68c3549c517e,2022-06-29_09h14.06.676,Colour_Asymmetry_Pilot,2022.1.3,Win32,59.93407252,62bbe60bf3d75ef465d3e404,0,108,108,13,1,threefour,,,,,,,,,,,,,,,,,,,,,,,,,,,,,,,,,,,,,,,,,,,,,,,,,,,,,,,,,,,,,,,,,,,,,,,,,,,,,,,,,,,,,,,,,,,,,,,,,,,,,,,,,,,,,,,,,,,,,,,,,,,,,,,,,,,,,,,,,,,,,,,,,,,,,,,,
,,,,,,61154503002b93af22a9353d,62bbfb75e7de68c3549c517e,2022-06-29_09h14.06.676,Colour_Asymmetry_Pilot,2022.1.3,Win32,59.93407252,62bbe60bf3d75ef465d3e404,0,109,109,111,1,fourthree,,,,,,,,,,,,,,,,,,,,,,,,,,,,,,,,,,,,,,,,,,,,,,,,,,,,,,,,,,,,,,,,,,,,,,,,,,,,,,,,,,,,,,,,,,,,,,,,,,,,,,,,,,,,,,,,,,,,,,,,,,,,,,,,,,,,,,,,,,,,,,,,,,,,,,,,
,,,,,,61154503002b93af22a9353d,62bbfb75e7de68c3549c517e,2022-06-29_09h14.06.676,Colour_Asymmetry_Pilot,2022.1.3,Win32,59.93407252,62bbe60bf3d75ef465d3e404,0,110,110,65,1,onethree,,,,,,,,,,,,,,,,,,,,,,,,,,,,,,,,,,,,,,,,,,,,,,,,,,,,,,,,,,,,,,,,,,,,,,,,,,,,,,,,,,,,,,,,,,,,,,,,,,,,,,,,,,,,,,,,,,,,,,,,,,,,,,,,,,,,,,,,,,,,,,,,,,,,,,,,
,,,,,,61154503002b93af22a9353d,62bbfb75e7de68c3549c517e,2022-06-29_09h14.06.676,Colour_Asymmetry_Pilot,2022.1.3,Win32,59.93407252,62bbe60bf3d75ef465d3e404,0,111,111,115,1,twofour,,,,,,,,,,,,,,,,,,,,,,,,,,,,,,,,,,,,,,,,,,,,,,,,,,,,,,,,,,,,,,,,,,,,,,,,,,,,,,,,,,,,,,,,,,,,,,,,,,,,,,,,,,,,,,,,,,,,,,,,,,,,,,,,,,,,,,,,,,,,,,,,,,,,,,,,
,,,,,,61154503002b93af22a9353d,62bbfb75e7de68c3549c517e,2022-06-29_09h14.06.676,Colour_Asymmetry_Pilot,2022.1.3,Win32,59.93407252,62bbe60bf3d75ef465d3e404,0,112,112,153,1,onethree,,,,,,,,,,,,,,,,,,,,,,,,,,,,,,,,,,,,,,,,,,,,,,,,,,,,,,,,,,,,,,,,,,,,,,,,,,,,,,,,,,,,,,,,,,,,,,,,,,,,,,,,,,,,,,,,,,,,,,,,,,,,,,,,,,,,,,,,,,,,,,,,,,,,,,,,
,,,,,,61154503002b93af22a9353d,62bbfb75e7de68c3549c517e,2022-06-29_09h14.06.676,Colour_Asymmetry_Pilot,2022.1.3,Win32,59.93407252,62bbe60bf3d75ef465d3e404,0,113,113,128,1,onetwo,,,,,,,,,,,,,,,,,,,,,,,,,,,,,,,,,,,,,,,,,,,,,,,,,,,,,,,,,,,,,,,,,,,,,,,,,,,,,,,,,,,,,,,,,,,,,,,,,,,,,,,,,,,,,,,,,,,,,,,,,,,,,,,,,,,,,,,,,,,,,,,,,,,,,,,,
,,,,,,61154503002b93af22a9353d,62bbfb75e7de68c3549c517e,2022-06-29_09h14.06.676,Colour_Asymmetry_Pilot,2022.1.3,Win32,59.93407252,62bbe60bf3d75ef465d3e404,0,114,114,2,1,twoone,,,,,,,,,,,,,,,,,,,,,,,,,,,,,,,,,,,,,,,,,,,,,,,,,,,,,,,,,,,,,,,,,,,,,,,,,,,,,,,,,,,,,,,,,,,,,,,,,,,,,,,,,,,,,,,,,,,,,,,,,,,,,,,,,,,,,,,,,,,,,,,,,,,,,,,,
,,,,,,61154503002b93af22a9353d,62bbfb75e7de68c3549c517e,2022-06-29_09h14.06.676,Colour_Asymmetry_Pilot,2022.1.3,Win32,59.93407252,62bbe60bf3d75ef465d3e404,0,115,115,94,1,fourtwo,,,,,,,,,,,,,,,,,,,,,,,,,,,,,,,,,,,,,,,,,,,,,,,,,,,,,,,,,,,,,,,,,,,,,,,,,,,,,,,,,,,,,,,,,,,,,,,,,,,,,,,,,,,,,,,,,,,,,,,,,,,,,,,,,,,,,,,,,,,,,,,,,,,,,,,,
,,,,,,61154503002b93af22a9353d,62bbfb75e7de68c3549c517e,2022-06-29_09h14.06.676,Colour_Asymmetry_Pilot,2022.1.3,Win32,59.93407252,62bbe60bf3d75ef465d3e404,0,116,116,103,1,fourthree,,,,,,,,,,,,,,,,,,,,,,,,,,,,,,,,,,,,,,,,,,,,,,,,,,,,,,,,,,,,,,,,,,,,,,,,,,,,,,,,,,,,,,,,,,,,,,,,,,,,,,,,,,,,,,,,,,,,,,,,,,,,,,,,,,,,,,,,,,,,,,,,,,,,,,,,
,,,,,,61154503002b93af22a9353d,62bbfb75e7de68c3549c517e,2022-06-29_09h14.06.676,Colour_Asymmetry_Pilot,2022.1.3,Win32,59.93407252,62bbe60bf3d75ef465d3e404,0,117,117,62,1,fourtwo,,,,,,,,,,,,,,,,,,,,,,,,,,,,,,,,,,,,,,,,,,,,,,,,,,,,,,,,,,,,,,,,,,,,,,,,,,,,,,,,,,,,,,,,,,,,,,,,,,,,,,,,,,,,,,,,,,,,,,,,,,,,,,,,,,,,,,,,,,,,,,,,,,,,,,,,
,,,,,,61154503002b93af22a9353d,62bbfb75e7de68c3549c517e,2022-06-29_09h14.06.676,Colour_Asymmetry_Pilot,2022.1.3,Win32,59.93407252,62bbe60bf3d75ef465d3e404,0,118,118,93,1,threefour,,,,,,,,,,,,,,,,,,,,,,,,,,,,,,,,,,,,,,,,,,,,,,,,,,,,,,,,,,,,,,,,,,,,,,,,,,,,,,,,,,,,,,,,,,,,,,,,,,,,,,,,,,,,,,,,,,,,,,,,,,,,,,,,,,,,,,,,,,,,,,,,,,,,,,,,
,,,,,,61154503002b93af22a9353d,62bbfb75e7de68c3549c517e,2022-06-29_09h14.06.676,Colour_Asymmetry_Pilot,2022.1.3,Win32,59.93407252,62bbe60bf3d75ef465d3e404,0,119,119,149,1,threefour,,,,,,,,,,,,,,,,,,,,,,,,,,,,,,,,,,,,,,,,,,,,,,,,,,,,,,,,,,,,,,,,,,,,,,,,,,,,,,,,,,,,,,,,,,,,,,,,,,,,,,,,,,,,,,,,,,,,,,,,,,,,,,,,,,,,,,,,,,,,,,,,,,,,,,,,
,,,,,,61154503002b93af22a9353d,62bbfb75e7de68c3549c517e,2022-06-29_09h14.06.676,Colour_Asymmetry_Pilot,2022.1.3,Win32,59.93407252,62bbe60bf3d75ef465d3e404,0,120,120,92,1,threeone,,,,,,,,,,,,,,,,,,,,,,,,,,,,,,,,,,,,,,,,,,,,,,,,,,,,,,,,,,,,,,,,,,,,,,,,,,,,,,,,,,,,,,,,,,,,,,,,,,,,,,,,,,,,,,,,,,,,,,,,,,,,,,,,,,,,,,,,,,,,,,,,,,,,,,,,
,,,,,,61154503002b93af22a9353d,62bbfb75e7de68c3549c517e,2022-06-29_09h14.06.676,Colour_Asymmetry_Pilot,2022.1.3,Win32,59.93407252,62bbe60bf3d75ef465d3e404,0,121,121,142,1,fourtwo,,,,,,,,,,,,,,,,,,,,,,,,,,,,,,,,,,,,,,,,,,,,,,,,,,,,,,,,,,,,,,,,,,,,,,,,,,,,,,,,,,,,,,,,,,,,,,,,,,,,,,,,,,,,,,,,,,,,,,,,,,,,,,,,,,,,,,,,,,,,,,,,,,,,,,,,
,,,,,,61154503002b93af22a9353d,62bbfb75e7de68c3549c517e,2022-06-29_09h14.06.676,Colour_Asymmetry_Pilot,2022.1.3,Win32,59.93407252,62bbe60bf3d75ef465d3e404,0,122,122,40,1,onetwo,,,,,,,,,,,,,,,,,,,,,,,,,,,,,,,,,,,,,,,,,,,,,,,,,,,,,,,,,,,,,,,,,,,,,,,,,,,,,,,,,,,,,,,,,,,,,,,,,,,,,,,,,,,,,,,,,,,,,,,,,,,,,,,,,,,,,,,,,,,,,,,,,,,,,,,,
,,,,,,61154503002b93af22a9353d,62bbfb75e7de68c3549c517e,2022-06-29_09h14.06.676,Colour_Asymmetry_Pilot,2022.1.3,Win32,59.93407252,62bbe60bf3d75ef465d3e404,0,123,123,107,1,twofour,,,,,,,,,,,,,,,,,,,,,,,,,,,,,,,,,,,,,,,,,,,,,,,,,,,,,,,,,,,,,,,,,,,,,,,,,,,,,,,,,,,,,,,,,,,,,,,,,,,,,,,,,,,,,,,,,,,,,,,,,,,,,,,,,,,,,,,,,,,,,,,,,,,,,,,,
,,,,,,61154503002b93af22a9353d,62bbfb75e7de68c3549c517e,2022-06-29_09h14.06.676,Colour_Asymmetry_Pilot,2022.1.3,Win32,59.93407252,62bbe60bf3d75ef465d3e404,0,124,124,3,1,twofour,,,,,,,,,,,,,,,,,,,,,,,,,,,,,,,,,,,,,,,,,,,,,,,,,,,,,,,,,,,,,,,,,,,,,,,,,,,,,,,,,,,,,,,,,,,,,,,,,,,,,,,,,,,,,,,,,,,,,,,,,,,,,,,,,,,,,,,,,,,,,,,,,,,,,,,,
,,,,,,61154503002b93af22a9353d,62bbfb75e7de68c3549c517e,2022-06-29_09h14.06.676,Colour_Asymmetry_Pilot,2022.1.3,Win32,59.93407252,62bbe60bf3d75ef465d3e404,0,125,125,97,1,onethree,,,,,,,,,,,,,,,,,,,,,,,,,,,,,,,,,,,,,,,,,,,,,,,,,,,,,,,,,,,,,,,,,,,,,,,,,,,,,,,,,,,,,,,,,,,,,,,,,,,,,,,,,,,,,,,,,,,,,,,,,,,,,,,,,,,,,,,,,,,,,,,,,,,,,,,,
,,,,,,61154503002b93af22a9353d,62bbfb75e7de68c3549c517e,2022-06-29_09h14.06.676,Colour_Asymmetry_Pilot,2022.1.3,Win32,59.93407252,62bbe60bf3d75ef465d3e404,0,126,126,87,1,fourthree,,,,,,,,,,,,,,,,,,,,,,,,,,,,,,,,,,,,,,,,,,,,,,,,,,,,,,,,,,,,,,,,,,,,,,,,,,,,,,,,,,,,,,,,,,,,,,,,,,,,,,,,,,,,,,,,,,,,,,,,,,,,,,,,,,,,,,,,,,,,,,,,,,,,,,,,
,,,,,,61154503002b93af22a9353d,62bbfb75e7de68c3549c517e,2022-06-29_09h14.06.676,Colour_Asymmetry_Pilot,2022.1.3,Win32,59.93407252,62bbe60bf3d75ef465d3e404,0,127,127,1,1,onethree,,,,,,,,,,,,,,,,,,,,,,,,,,,,,,,,,,,,,,,,,,,,,,,,,,,,,,,,,,,,,,,,,,,,,,,,,,,,,,,,,,,,,,,,,,,,,,,,,,,,,,,,,,,,,,,,,,,,,,,,,,,,,,,,,,,,,,,,,,,,,,,,,,,,,,,,
,,,,,,61154503002b93af22a9353d,62bbfb75e7de68c3549c517e,2022-06-29_09h14.06.676,Colour_Asymmetry_Pilot,2022.1.3,Win32,59.93407252,62bbe60bf3d75ef465d3e404,0,128,128,54,1,fourtwo,,,,,,,,,,,,,,,,,,,,,,,,,,,,,,,,,,,,,,,,,,,,,,,,,,,,,,,,,,,,,,,,,,,,,,,,,,,,,,,,,,,,,,,,,,,,,,,,,,,,,,,,,,,,,,,,,,,,,,,,,,,,,,,,,,,,,,,,,,,,,,,,,,,,,,,,
,,,,,,61154503002b93af22a9353d,62bbfb75e7de68c3549c517e,2022-06-29_09h14.06.676,Colour_Asymmetry_Pilot,2022.1.3,Win32,59.93407252,62bbe60bf3d75ef465d3e404,0,129,129,151,1,fourthree,,,,,,,,,,,,,,,,,,,,,,,,,,,,,,,,,,,,,,,,,,,,,,,,,,,,,,,,,,,,,,,,,,,,,,,,,,,,,,,,,,,,,,,,,,,,,,,,,,,,,,,,,,,,,,,,,,,,,,,,,,,,,,,,,,,,,,,,,,,,,,,,,,,,,,,,
,,,,,,61154503002b93af22a9353d,62bbfb75e7de68c3549c517e,2022-06-29_09h14.06.676,Colour_Asymmetry_Pilot,2022.1.3,Win32,59.93407252,62bbe60bf3d75ef465d3e404,0,130,130,76,1,threeone,,,,,,,,,,,,,,,,,,,,,,,,,,,,,,,,,,,,,,,,,,,,,,,,,,,,,,,,,,,,,,,,,,,,,,,,,,,,,,,,,,,,,,,,,,,,,,,,,,,,,,,,,,,,,,,,,,,,,,,,,,,,,,,,,,,,,,,,,,,,,,,,,,,,,,,,
,,,,,,61154503002b93af22a9353d,62bbfb75e7de68c3549c517e,2022-06-29_09h14.06.676,Colour_Asymmetry_Pilot,2022.1.3,Win32,59.93407252,62bbe60bf3d75ef465d3e404,0,131,131,85,1,threefour,,,,,,,,,,,,,,,,,,,,,,,,,,,,,,,,,,,,,,,,,,,,,,,,,,,,,,,,,,,,,,,,,,,,,,,,,,,,,,,,,,,,,,,,,,,,,,,,,,,,,,,,,,,,,,,,,,,,,,,,,,,,,,,,,,,,,,,,,,,,,,,,,,,,,,,,
,,,,,,61154503002b93af22a9353d,62bbfb75e7de68c3549c517e,2022-06-29_09h14.06.676,Colour_Asymmetry_Pilot,2022.1.3,Win32,59.93407252,62bbe60bf3d75ef465d3e404,0,132,132,10,1,twoone,,,,,,,,,,,,,,,,,,,,,,,,,,,,,,,,,,,,,,,,,,,,,,,,,,,,,,,,,,,,,,,,,,,,,,,,,,,,,,,,,,,,,,,,,,,,,,,,,,,,,,,,,,,,,,,,,,,,,,,,,,,,,,,,,,,,,,,,,,,,,,,,,,,,,,,,
,,,,,,61154503002b93af22a9353d,62bbfb75e7de68c3549c517e,2022-06-29_09h14.06.676,Colour_Asymmetry_Pilot,2022.1.3,Win32,59.93407252,62bbe60bf3d75ef465d3e404,0,133,133,136,1,onetwo,,,,,,,,,,,,,,,,,,,,,,,,,,,,,,,,,,,,,,,,,,,,,,,,,,,,,,,,,,,,,,,,,,,,,,,,,,,,,,,,,,,,,,,,,,,,,,,,,,,,,,,,,,,,,,,,,,,,,,,,,,,,,,,,,,,,,,,,,,,,,,,,,,,,,,,,
,,,,,,61154503002b93af22a9353d,62bbfb75e7de68c3549c517e,2022-06-29_09h14.06.676,Colour_Asymmetry_Pilot,2022.1.3,Win32,59.93407252,62bbe60bf3d75ef465d3e404,0,134,134,14,1,fourtwo,,,,,,,,,,,,,,,,,,,,,,,,,,,,,,,,,,,,,,,,,,,,,,,,,,,,,,,,,,,,,,,,,,,,,,,,,,,,,,,,,,,,,,,,,,,,,,,,,,,,,,,,,,,,,,,,,,,,,,,,,,,,,,,,,,,,,,,,,,,,,,,,,,,,,,,,
,,,,,,61154503002b93af22a9353d,62bbfb75e7de68c3549c517e,2022-06-29_09h14.06.676,Colour_Asymmetry_Pilot,2022.1.3,Win32,59.93407252,62bbe60bf3d75ef465d3e404,0,135,135,132,1,threeone,,,,,,,,,,,,,,,,,,,,,,,,,,,,,,,,,,,,,,,,,,,,,,,,,,,,,,,,,,,,,,,,,,,,,,,,,,,,,,,,,,,,,,,,,,,,,,,,,,,,,,,,,,,,,,,,,,,,,,,,,,,,,,,,,,,,,,,,,,,,,,,,,,,,,,,,
,,,,,,61154503002b93af22a9353d,62bbfb75e7de68c3549c517e,2022-06-29_09h14.06.676,Colour_Asymmetry_Pilot,2022.1.3,Win32,59.93407252,62bbe60bf3d75ef465d3e404,0,136,136,145,1,onethree,,,,,,,,,,,,,,,,,,,,,,,,,,,,,,,,,,,,,,,,,,,,,,,,,,,,,,,,,,,,,,,,,,,,,,,,,,,,,,,,,,,,,,,,,,,,,,,,,,,,,,,,,,,,,,,,,,,,,,,,,,,,,,,,,,,,,,,,,,,,,,,,,,,,,,,,
,,,,,,61154503002b93af22a9353d,62bbfb75e7de68c3549c517e,2022-06-29_09h14.06.676,Colour_Asymmetry_Pilot,2022.1.3,Win32,59.93407252,62bbe60bf3d75ef465d3e404,0,137,137,26,1,twoone,,,,,,,,,,,,,,,,,,,,,,,,,,,,,,,,,,,,,,,,,,,,,,,,,,,,,,,,,,,,,,,,,,,,,,,,,,,,,,,,,,,,,,,,,,,,,,,,,,,,,,,,,,,,,,,,,,,,,,,,,,,,,,,,,,,,,,,,,,,,,,,,,,,,,,,,
,,,,,,61154503002b93af22a9353d,62bbfb75e7de68c3549c517e,2022-06-29_09h14.06.676,Colour_Asymmetry_Pilot,2022.1.3,Win32,59.93407252,62bbe60bf3d75ef465d3e404,0,138,138,39,1,fourthree,,,,,,,,,,,,,,,,,,,,,,,,,,,,,,,,,,,,,,,,,,,,,,,,,,,,,,,,,,,,,,,,,,,,,,,,,,,,,,,,,,,,,,,,,,,,,,,,,,,,,,,,,,,,,,,,,,,,,,,,,,,,,,,,,,,,,,,,,,,,,,,,,,,,,,,,
,,,,,,61154503002b93af22a9353d,62bbfb75e7de68c3549c517e,2022-06-29_09h14.06.676,Colour_Asymmetry_Pilot,2022.1.3,Win32,59.93407252,62bbe60bf3d75ef465d3e404,0,139,139,155,1,twofour,,,,,,,,,,,,,,,,,,,,,,,,,,,,,,,,,,,,,,,,,,,,,,,,,,,,,,,,,,,,,,,,,,,,,,,,,,,,,,,,,,,,,,,,,,,,,,,,,,,,,,,,,,,,,,,,,,,,,,,,,,,,,,,,,,,,,,,,,,,,,,,,,,,,,,,,
,,,,,,61154503002b93af22a9353d,62bbfb75e7de68c3549c517e,2022-06-29_09h14.06.676,Colour_Asymmetry_Pilot,2022.1.3,Win32,59.93407252,62bbe60bf3d75ef465d3e404,0,140,140,114,1,twoone,,,,,,,,,,,,,,,,,,,,,,,,,,,,,,,,,,,,,,,,,,,,,,,,,,,,,,,,,,,,,,,,,,,,,,,,,,,,,,,,,,,,,,,,,,,,,,,,,,,,,,,,,,,,,,,,,,,,,,,,,,,,,,,,,,,,,,,,,,,,,,,,,,,,,,,,
,,,,,,61154503002b93af22a9353d,62bbfb75e7de68c3549c517e,2022-06-29_09h14.06.676,Colour_Asymmetry_Pilot,2022.1.3,Win32,59.93407252,62bbe60bf3d75ef465d3e404,0,141,141,150,1,fourtwo,,,,,,,,,,,,,,,,,,,,,,,,,,,,,,,,,,,,,,,,,,,,,,,,,,,,,,,,,,,,,,,,,,,,,,,,,,,,,,,,,,,,,,,,,,,,,,,,,,,,,,,,,,,,,,,,,,,,,,,,,,,,,,,,,,,,,,,,,,,,,,,,,,,,,,,,
,,,,,,61154503002b93af22a9353d,62bbfb75e7de68c3549c517e,2022-06-29_09h14.06.676,Colour_Asymmetry_Pilot,2022.1.3,Win32,59.93407252,62bbe60bf3d75ef465d3e404,0,142,142,18,1,twoone,,,,,,,,,,,,,,,,,,,,,,,,,,,,,,,,,,,,,,,,,,,,,,,,,,,,,,,,,,,,,,,,,,,,,,,,,,,,,,,,,,,,,,,,,,,,,,,,,,,,,,,,,,,,,,,,,,,,,,,,,,,,,,,,,,,,,,,,,,,,,,,,,,,,,,,,
,,,,,,61154503002b93af22a9353d,62bbfb75e7de68c3549c517e,2022-06-29_09h14.06.676,Colour_Asymmetry_Pilot,2022.1.3,Win32,59.93407252,62bbe60bf3d75ef465d3e404,0,143,143,32,1,onetwo,,,,,,,,,,,,,,,,,,,,,,,,,,,,,,,,,,,,,,,,,,,,,,,,,,,,,,,,,,,,,,,,,,,,,,,,,,,,,,,,,,,,,,,,,,,,,,,,,,,,,,,,,,,,,,,,,,,,,,,,,,,,,,,,,,,,,,,,,,,,,,,,,,,,,,,,
,,,,,,61154503002b93af22a9353d,62bbfb75e7de68c3549c517e,2022-06-29_09h14.06.676,Colour_Asymmetry_Pilot,2022.1.3,Win32,59.93407252,62bbe60bf3d75ef465d3e404,0,144,144,141,1,threefour,,,,,,,,,,,,,,,,,,,,,,,,,,,,,,,,,,,,,,,,,,,,,,,,,,,,,,,,,,,,,,,,,,,,,,,,,,,,,,,,,,,,,,,,,,,,,,,,,,,,,,,,,,,,,,,,,,,,,,,,,,,,,,,,,,,,,,,,,,,,,,,,,,,,,,,,
,,,,,,61154503002b93af22a9353d,62bbfb75e7de68c3549c517e,2022-06-29_09h14.06.676,Colour_Asymmetry_Pilot,2022.1.3,Win32,59.93407252,62bbe60bf3d75ef465d3e404,0,145,145,6,1,fourtwo,,,,,,,,,,,,,,,,,,,,,,,,,,,,,,,,,,,,,,,,,,,,,,,,,,,,,,,,,,,,,,,,,,,,,,,,,,,,,,,,,,,,,,,,,,,,,,,,,,,,,,,,,,,,,,,,,,,,,,,,,,,,,,,,,,,,,,,,,,,,,,,,,,,,,,,,
,,,,,,61154503002b93af22a9353d,62bbfb75e7de68c3549c517e,2022-06-29_09h14.06.676,Colour_Asymmetry_Pilot,2022.1.3,Win32,59.93407252,62bbe60bf3d75ef465d3e404,0,146,146,75,1,twofour,,,,,,,,,,,,,,,,,,,,,,,,,,,,,,,,,,,,,,,,,,,,,,,,,,,,,,,,,,,,,,,,,,,,,,,,,,,,,,,,,,,,,,,,,,,,,,,,,,,,,,,,,,,,,,,,,,,,,,,,,,,,,,,,,,,,,,,,,,,,,,,,,,,,,,,,
,,,,,,61154503002b93af22a9353d,62bbfb75e7de68c3549c517e,2022-06-29_09h14.06.676,Colour_Asymmetry_Pilot,2022.1.3,Win32,59.93407252,62bbe60bf3d75ef465d3e404,0,147,147,68,1,threeone,,,,,,,,,,,,,,,,,,,,,,,,,,,,,,,,,,,,,,,,,,,,,,,,,,,,,,,,,,,,,,,,,,,,,,,,,,,,,,,,,,,,,,,,,,,,,,,,,,,,,,,,,,,,,,,,,,,,,,,,,,,,,,,,,,,,,,,,,,,,,,,,,,,,,,,,
,,,,,,61154503002b93af22a9353d,62bbfb75e7de68c3549c517e,2022-06-29_09h14.06.676,Colour_Asymmetry_Pilot,2022.1.3,Win32,59.93407252,62bbe60bf3d75ef465d3e404,0,148,148,144,1,onetwo,,,,,,,,,,,,,,,,,,,,,,,,,,,,,,,,,,,,,,,,,,,,,,,,,,,,,,,,,,,,,,,,,,,,,,,,,,,,,,,,,,,,,,,,,,,,,,,,,,,,,,,,,,,,,,,,,,,,,,,,,,,,,,,,,,,,,,,,,,,,,,,,,,,,,,,,
,,,,,,61154503002b93af22a9353d,62bbfb75e7de68c3549c517e,2022-06-29_09h14.06.676,Colour_Asymmetry_Pilot,2022.1.3,Win32,59.93407252,62bbe60bf3d75ef465d3e404,0,149,149,77,1,threefour,,,,,,,,,,,,,,,,,,,,,,,,,,,,,,,,,,,,,,,,,,,,,,,,,,,,,,,,,,,,,,,,,,,,,,,,,,,,,,,,,,,,,,,,,,,,,,,,,,,,,,,,,,,,,,,,,,,,,,,,,,,,,,,,,,,,,,,,,,,,,,,,,,,,,,,,
,,,,,,61154503002b93af22a9353d,62bbfb75e7de68c3549c517e,2022-06-29_09h14.06.676,Colour_Asymmetry_Pilot,2022.1.3,Win32,59.93407252,62bbe60bf3d75ef465d3e404,0,150,150,19,1,twofour,,,,,,,,,,,,,,,,,,,,,,,,,,,,,,,,,,,,,,,,,,,,,,,,,,,,,,,,,,,,,,,,,,,,,,,,,,,,,,,,,,,,,,,,,,,,,,,,,,,,,,,,,,,,,,,,,,,,,,,,,,,,,,,,,,,,,,,,,,,,,,,,,,,,,,,,
,,,,,,61154503002b93af22a9353d,62bbfb75e7de68c3549c517e,2022-06-29_09h14.06.676,Colour_Asymmetry_Pilot,2022.1.3,Win32,59.93407252,62bbe60bf3d75ef465d3e404,0,151,151,112,1,onetwo,,,,,,,,,,,,,,,,,,,,,,,,,,,,,,,,,,,,,,,,,,,,,,,,,,,,,,,,,,,,,,,,,,,,,,,,,,,,,,,,,,,,,,,,,,,,,,,,,,,,,,,,,,,,,,,,,,,,,,,,,,,,,,,,,,,,,,,,,,,,,,,,,,,,,,,,
,,,,,,61154503002b93af22a9353d,62bbfb75e7de68c3549c517e,2022-06-29_09h14.06.676,Colour_Asymmetry_Pilot,2022.1.3,Win32,59.93407252,62bbe60bf3d75ef465d3e404,0,152,152,108,1,threeone,,,,,,,,,,,,,,,,,,,,,,,,,,,,,,,,,,,,,,,,,,,,,,,,,,,,,,,,,,,,,,,,,,,,,,,,,,,,,,,,,,,,,,,,,,,,,,,,,,,,,,,,,,,,,,,,,,,,,,,,,,,,,,,,,,,,,,,,,,,,,,,,,,,,,,,,
,,,,,,61154503002b93af22a9353d,62bbfb75e7de68c3549c517e,2022-06-29_09h14.06.676,Colour_Asymmetry_Pilot,2022.1.3,Win32,59.93407252,62bbe60bf3d75ef465d3e404,0,153,153,139,1,twofour,,,,,,,,,,,,,,,,,,,,,,,,,,,,,,,,,,,,,,,,,,,,,,,,,,,,,,,,,,,,,,,,,,,,,,,,,,,,,,,,,,,,,,,,,,,,,,,,,,,,,,,,,,,,,,,,,,,,,,,,,,,,,,,,,,,,,,,,,,,,,,,,,,,,,,,,
,,,,,,61154503002b93af22a9353d,62bbfb75e7de68c3549c517e,2022-06-29_09h14.06.676,Colour_Asymmetry_Pilot,2022.1.3,Win32,59.93407252,62bbe60bf3d75ef465d3e404,0,154,154,29,1,threefour,,,,,,,,,,,,,,,,,,,,,,,,,,,,,,,,,,,,,,,,,,,,,,,,,,,,,,,,,,,,,,,,,,,,,,,,,,,,,,,,,,,,,,,,,,,,,,,,,,,,,,,,,,,,,,,,,,,,,,,,,,,,,,,,,,,,,,,,,,,,,,,,,,,,,,,,
,,,,,,61154503002b93af22a9353d,62bbfb75e7de68c3549c517e,2022-06-29_09h14.06.676,Colour_Asymmetry_Pilot,2022.1.3,Win32,59.93407252,62bbe60bf3d75ef465d3e404,0,155,155,51,1,twofour,,,,,,,,,,,,,,,,,,,,,,,,,,,,,,,,,,,,,,,,,,,,,,,,,,,,,,,,,,,,,,,,,,,,,,,,,,,,,,,,,,,,,,,,,,,,,,,,,,,,,,,,,,,,,,,,,,,,,,,,,,,,,,,,,,,,,,,,,,,,,,,,,,,,,,,,
,,,,,,61154503002b93af22a9353d,62bbfb75e7de68c3549c517e,2022-06-29_09h14.06.676,Colour_Asymmetry_Pilot,2022.1.3,Win32,59.93407252,62bbe60bf3d75ef465d3e404,0,156,156,5,1,threefour,,,,,,,,,,,,,,,,,,,,,,,,,,,,,,,,,,,,,,,,,,,,,,,,,,,,,,,,,,,,,,,,,,,,,,,,,,,,,,,,,,,,,,,,,,,,,,,,,,,,,,,,,,,,,,,,,,,,,,,,,,,,,,,,,,,,,,,,,,,,,,,,,,,,,,,,
,,,,,,61154503002b93af22a9353d,62bbfb75e7de68c3549c517e,2022-06-29_09h14.06.676,Colour_Asymmetry_Pilot,2022.1.3,Win32,59.93407252,62bbe60bf3d75ef465d3e404,0,157,157,7,1,fourthree,,,,,,,,,,,,,,,,,,,,,,,,,,,,,,,,,,,,,,,,,,,,,,,,,,,,,,,,,,,,,,,,,,,,,,,,,,,,,,,,,,,,,,,,,,,,,,,,,,,,,,,,,,,,,,,,,,,,,,,,,,,,,,,,,,,,,,,,,,,,,,,,,,,,,,,,
,,,,,,61154503002b93af22a9353d,62bbfb75e7de68c3549c517e,2022-06-29_09h14.06.676,Colour_Asymmetry_Pilot,2022.1.3,Win32,59.93407252,62bbe60bf3d75ef465d3e404,0,158,158,73,1,onethree,,,,,,,,,,,,,,,,,,,,,,,,,,,,,,,,,,,,,,,,,,,,,,,,,,,,,,,,,,,,,,,,,,,,,,,,,,,,,,,,,,,,,,,,,,,,,,,,,,,,,,,,,,,,,,,,,,,,,,,,,,,,,,,,,,,,,,,,,,,,,,,,,,,,,,,,
,,,,,,61154503002b93af22a9353d,62bbfb75e7de68c3549c517e,2022-06-29_09h14.06.676,Colour_Asymmetry_Pilot,2022.1.3,Win32,59.93407252,62bbe60bf3d75ef465d3e404,0,159,159,109,1,threefour,,,,,,,,,,,,,,,,,,,,,,,,,,,,,,,,,,,,,,,,,,,,,,,,,,,,,,,,,,,,,,,,,,,,,,,,,,,,,,,,,,,,,,,,,,,,,,,,,,,,,,,,,,,,,,,,,,,,,,,,,,,,,,,,,,,,,,,,,,,,,,,,,,,,,,,,
,,,,,,61154503002b93af22a9353d,62bbfb75e7de68c3549c517e,2022-06-29_09h14.06.676,Colour_Asymmetry_Pilot,2022.1.3,Win32,59.93407252,62bbe60bf3d75ef465d3e404,0,160,160,95,1,fourthree,,,,,,,,,,,,,,,,,,,,,,,,,,,,,,,,,,,,,,,,,,,,,,,,,,,,,,,,,,,,,,,,,,,,,,,,,,,,,,,,,,,,,,,,,,,,,,,,,,,,,,,,,,,,,,,,,,,,,,,,,,,,,,,,,,,,,,,,,,,,,,,,,,,,,,,,
,,,,,,61154503002b93af22a9353d,62bbfb75e7de68c3549c517e,2022-06-29_09h14.06.676,Colour_Asymmetry_Pilot,2022.1.3,Win32,59.93407252,62bbe60bf3d75ef465d3e404,0,161,161,38,1,fourtwo,,,,,,,,,,,,,,,,,,,,,,,,,,,,,,,,,,,,,,,,,,,,,,,,,,,,,,,,,,,,,,,,,,,,,,,,,,,,,,,,,,,,,,,,,,,,,,,,,,,,,,,,,,,,,,,,,,,,,,,,,,,,,,,,,,,,,,,,,,,,,,,,,,,,,,,,
,,,,,,61154503002b93af22a9353d,62bbfb75e7de68c3549c517e,2022-06-29_09h14.06.676,Colour_Asymmetry_Pilot,2022.1.3,Win32,59.93407252,62bbe60bf3d75ef465d3e404,,,,,,,space,2.5305,space,31.9079,space,31.0128,space,29.5879,space,3.4314,space,5.9792,"[0.4196,0.4665999999999999,0.3568]",twofour,"[0.5449999999999999,-0.31000000000000005,-0.0354000000000001]",2,3.5034,68.80001247,-55.20000726,1,0,0,response3disk_5,-15.19998878,-0.800006449,1,0,0,rectangle_8,-15.19998878,-0.800006449,1,0,0,3,-15.19998878,-0.800006449,1,0,0,0,0,0,0,1,,,,,,,,,,,,,,,,,,,,,,,,,,,,,,,,,,,,,,,,,,,,,,,,,,,,,,,,,,,,,,,,,,,,,,,,,,,,,,,,,,,,,,,,,,,,,,,,,,,,,,,,,,,
,,,,,,61154503002b93af22a9353d,62bbfb75e7de68c3549c517e,2022-06-29_09h14.06.676,Colour_Asymmetry_Pilot,2022.1.3,Win32,59.93407252,62bbe60bf3d75ef465d3e404,,,,,,,,,,,,,,,,,,,"[-0.4902000000000001,0.2704,-0.45899999999999996]",threeone,"[-0.9688,-0.38039999999999996,-0.41979999999999995]",3,1.5159,77.6000126,33.59999406,1,0,0,response1disk_5,-7.999988675,-2.400006473,1,0,0,rectangle_8,-7.999988675,-2.400006473,1,0,0,3,-7.999988675,-2.400006473,1,0,0,1,0,1,0,1,,,,,,,,,,,,,,,,,,,,,,,,,,,,,,,,,,,,,,,,,,,,,,,,,,,,,,,,,,,,,,,,,,,,,,,,,,,,,,,,,,,,,,,,,,,,,,,,,,,,,,,,,,,
,,,,,,61154503002b93af22a9353d,62bbfb75e7de68c3549c517e,2022-06-29_09h14.06.676,Colour_Asymmetry_Pilot,2022.1.3,Win32,59.93407252,62bbe60bf3d75ef465d3e404,,,,,,,,,,,,,,,,,,,"[0.34099999999999997,0.12939999999999996,-0.9766]",twofour,"[-0.9688,-0.7412000000000001,-0.4902000000000001]",-1,1.4174,-58.3999406,-68.80000746,1,0,0,response5disk_5,-3.199988604,-13.60000664,1,0,0,rectangle_8,84.80001271,38.39999413,1,0,0,3,-21.59998888,-7.200006545,1,0,0,2,0,2,0,1,response1disk_7,6,rectangle_4,,,,,,,,,,,,,,,,,,,,,,,,,,,,,,,,,,,,,,,,,,,,,,,,,,,,,,,,,,,,,,,,,,,,,,,,,,,,,,,,,,,,,,,,,,,,,,,,,,,,,,,,
,,,,,,61154503002b93af22a9353d,62bbfb75e7de68c3549c517e,2022-06-29_09h14.06.676,Colour_Asymmetry_Pilot,2022.1.3,Win32,59.93407252,62bbe60bf3d75ef465d3e404,,,,,,,,,,,,,,,,,,,"[-0.17659999999999998,-0.2864,-0.8354]",threeone,"[0.5449999999999999,-0.31000000000000005,-0.0354000000000001]",-2,2.1073,-60.79998946,-42.40000707,1,0,0,response5disk_5,4.800011516,1.599993587,1,0,0,rectangle_8,4.800011516,1.599993587,1,0,0,3,4.800011516,1.599993587,1,0,0,3,0,3,0,1,,,,,,,,,,,,,,,,,,,,,,,,,,,,,,,,,,,,,,,,,,,,,,,,,,,,,,,,,,,,,,,,,,,,,,,,,,,,,,,,,,,,,,,,,,,,,,,,,,,,,,,,,,,
,,,,,,61154503002b93af22a9353d,62bbfb75e7de68c3549c517e,2022-06-29_09h14.06.676,Colour_Asymmetry_Pilot,2022.1.3,Win32,59.93407252,62bbe60bf3d75ef465d3e404,,,,,,,,,,,,,,,,,,,"[0.34099999999999997,0.12939999999999996,-0.9766]",twofour,"[-0.9766,-0.34920000000000007,0.2156]",-3,2.1668,-83.99998981,38.39999413,1,0,0,response7disk_5,-4.799988627,3.999993622,1,0,0,rectangle_8,78.40001261,39.99999416,1,0,0,3,19.20001173,2.399993598,1,0,0,4,0,4,0,1,response1disk_7,6,rectangle_4,,,,,,,,,,,,,,,,,,,,,,,,,,,,,,,,,,,,,,,,,,,,,,,,,,,,,,,,,,,,,,,,,,,,,,,,,,,,,,,,,,,,,,,,,,,,,,,,,,,,,,,,
,,,,,,61154503002b93af22a9353d,62bbfb75e7de68c3549c517e,2022-06-29_09h14.06.676,Colour_Asymmetry_Pilot,2022.1.3,Win32,59.93407252,62bbe60bf3d75ef465d3e404,,,,,,,,,,,,,,,,,,,"[-0.34920000000000007,-0.702,-0.5216]",twoone,"[-0.011800000000000033,-0.906,-0.45100000000000007]",4,1.3675,46.40001214,83.99999481,1,0,0,response1disk_5,1.14441E-05,4.799993634,1,0,0,rectangle_8,1.14441E-05,4.799993634,1,0,0,3,1.14441E-05,4.799993634,1,0,0,5,0,5,0,1,,,,,,,,,,,,,,,,,,,,,,,,,,,,,,,,,,,,,,,,,,,,,,,,,,,,,,,,,,,,,,,,,,,,,,,,,,,,,,,,,,,,,,,,,,,,,,,,,,,,,,,,,,,
,,,,,,61154503002b93af22a9353d,62bbfb75e7de68c3549c517e,2022-06-29_09h14.06.676,Colour_Asymmetry_Pilot,2022.1.3,Win32,59.93407252,62bbe60bf3d75ef465d3e404,,,,,,,,,,,,,,,,,,,"[-0.5452,-0.608,0.2470000000000001]",fourtwo,"[0.19199999999999995,0.18419999999999992,0.5136000000000001]",1,2.4942,40.00001204,-82.40000767,1,0,0,response3disk_5,-5.599988639,-8.000006557,1,0,0,rectangle_8,-5.599988639,-8.000006557,1,0,0,3,-5.599988639,-8.000006557,1,0,0,6,0,6,0,1,,,,,,,,,,,,,,,,,,,,,,,,,,,,,,,,,,,,,,,,,,,,,,,,,,,,,,,,,,,,,,,,,,,,,,,,,,,,,,,,,,,,,,,,,,,,,,,,,,,,,,,,,,,
,,,,,,61154503002b93af22a9353d,62bbfb75e7de68c3549c517e,2022-06-29_09h14.06.676,Colour_Asymmetry_Pilot,2022.1.3,Win32,59.93407252,62bbe60bf3d75ef465d3e404,,,,,,,,,,,,,,,,,,,,threeone,,3,1.2845,,,,,,,,,,,,,,,,,,,,,,,,,,,,,,,,space,6.6886,"[-0.8198,-0.5138,-0.7492000000000001]","[-0.2942,-0.24719999999999998,-0.357]",64.0000124,36.79999411,1,0,0,response1disk,-9.599988699,-5.600006521,1,0,0,rectangle,-9.599988699,-5.600006521,1,0,0,,1,0.0012,0,-9.599988699,-5.600006521,1,0,0,0,0,0,158,1,77,second,,,,,,,,,,,,,,,,,,,,,,,,,,,,,,,,,,,,,,,,,,,,,,,,,,,,,,,,,,,,,,,,,,,
,,,,,,61154503002b93af22a9353d,62bbfb75e7de68c3549c517e,2022-06-29_09h14.06.676,Colour_Asymmetry_Pilot,2022.1.3,Win32,59.93407252,62bbe60bf3d75ef465d3e404,,,,,,,,,,,,,,,,,,,,twofour,,-1,4.0319,,,,,,,,,,,,,,,,,,,,,,,,,,,,,,,,,,"[0.18419999999999992,-0.4276,-0.404]","[-0.38039999999999996,-0.4276,-0.1452]",-26.39994012,-83.20000768,1,0,0,response5disk,8.800011575,-6.400006533,1,0,0,rectangle,8.800011575,-6.400006533,1,0,0,,1,0.0006,0,8.800011575,-6.400006533,1,0,0,0,1,1,68,1,68,first,,,,,,,,,,,,,,,,,,,,,,,,,,,,,,,,,,,,,,,,,,,,,,,,,,,,,,,,,,,,,,,,,,,
,,,,,,61154503002b93af22a9353d,62bbfb75e7de68c3549c517e,2022-06-29_09h14.06.676,Colour_Asymmetry_Pilot,2022.1.3,Win32,59.93407252,62bbe60bf3d75ef465d3e404,,,,,,,,,,,,,,,,,,,,fourtwo,,-1,1.1665,,,,,,,,,,,,,,,,,,,,,,,,,,,,,,,,,,"[-0.4982,-0.2942,-0.0354000000000001]","[0.09799999999999986,-0.24719999999999998,0.15280000000000005]",-34.39994024,-68.00000745,1,0,0,response5disk,-2.399939764,-1.600006461,1,0,0,rectangle,-2.399939764,-1.600006461,1,0,0,,1,0.0012,0,-2.399939764,-1.600006461,1,0,0,0,2,2,59,1,59,first,,,,,,,,,,,,,,,,,,,,,,,,,,,,,,,,,,,,,,,,,,,,,,,,,,,,,,,,,,,,,,,,,,,
,,,,,,61154503002b93af22a9353d,62bbfb75e7de68c3549c517e,2022-06-29_09h14.06.676,Colour_Asymmetry_Pilot,2022.1.3,Win32,59.93407252,62bbe60bf3d75ef465d3e404,,,,,,,,,,,,,,,,,,,,threeone,,-1,1.8327,,,,,,,,,,,,,,,,,,,,,,,,,,,,,,,,,,"[-0.4668,-0.8746,-0.2942]","[-0.9216,-0.5529999999999999,-0.3962]",-47.99998927,-73.60000753,1,0,0,response5disk,-12.79998875,6.399993658,1,0,0,rectangle,-12.79998875,6.399993658,1,0,0,,1,0.0005,0,-12.79998875,6.399993658,1,0,0,0,3,3,107,1,26,second,,,,,,,,,,,,,,,,,,,,,,,,,,,,,,,,,,,,,,,,,,,,,,,,,,,,,,,,,,,,,,,,,,,
,,,,,,61154503002b93af22a9353d,62bbfb75e7de68c3549c517e,2022-06-29_09h14.06.676,Colour_Asymmetry_Pilot,2022.1.3,Win32,59.93407252,62bbe60bf3d75ef465d3e404,,,,,,,,,,,,,,,,,,,,twoone,,-2,0.8167,,,,,,,,,,,,,,,,,,,,,,,,,,,,,,,,,,"[-0.06680000000000008,-0.45100000000000007,-0.906]","[0.7018,0.7176,0.6155999999999999]",-66.39994072,-34.40000695,1,0,0,response5disk,-3.999988616,1.599993587,1,0,0,rectangle,96.00001287,-44.00000709,1,0,0,2,2,2.0488,1,4.800011516,-7.200006545,1,0,0,0,4,4,97,1,16,second,response3disk_3,rectangle,,,,,,,,,,,,,,,,,,,,,,,,,,,,,,,,,,,,,,,,,,,,,,,,,,,,,,,,,,,,,,,,,
,,,,,,61154503002b93af22a9353d,62bbfb75e7de68c3549c517e,2022-06-29_09h14.06.676,Colour_Asymmetry_Pilot,2022.1.3,Win32,59.93407252,62bbe60bf3d75ef465d3e404,,,,,,,,,,,,,,,,,,,,fourtwo,,1,1.8259,,,,,,,,,,,,,,,,,,,,,,,,,,,,,,,,,,"[-0.9296,-0.12959999999999994,-0.043199999999999905]","[0.11359999999999992,0.6312,0.5213999999999999]",54.40001225,-66.40000743,1,0,0,response3disk,6.400011539,-0.800006449,1,0,0,rectangle,101.600013,31.99999404,1,0,0,3,3,1.9776,1,11.20001161,-5.600006521,1,0,0,0,5,5,55,1,55,first,response1disk_3,rectangle,,,,,,,,,,,,,,,,,,,,,,,,,,,,,,,,,,,,,,,,,,,,,,,,,,,,,,,,,,,,,,,,,
,,,,,,61154503002b93af22a9353d,62bbfb75e7de68c3549c517e,2022-06-29_09h14.06.676,Colour_Asymmetry_Pilot,2022.1.3,Win32,59.93407252,62bbe60bf3d75ef465d3e404,,,,,,,,,,,,,,,,,,,,twofour,,-4,0.8577,,,,,,,,,,,,,,,,,,,,,,,,,,,,,,,,,,"[-0.7412000000000001,-0.08239999999999992,-0.6864]","[1,0.12939999999999996,-1]",-47.99998927,79.99999475,1,0,0,response7disk,-11.19998872,-10.40000659,1,0,0,rectangle,-11.19998872,-10.40000659,1,0,0,3,1,0.0021,0,-11.19998872,-10.40000659,1,0,0,0,6,6,146,1,65,second,,,,,,,,,,,,,,,,,,,,,,,,,,,,,,,,,,,,,,,,,,,,,,,,,,,,,,,,,,,,,,,,,,,
,,,,,,61154503002b93af22a9353d,62bbfb75e7de68c3549c517e,2022-06-29_09h14.06.676,Colour_Asymmetry_Pilot,2022.1.3,Win32,59.93407252,62bbe60bf3d75ef465d3e404,,,,,,,,,,,,,,,,,,,,threefour,,-4,1.153,,,,,,,,,,,,,,,,,,,,,,,,,,,,,,,,,,"[-0.9766,-0.6472,0.07440000000000002]","[0.8274000000000001,-0.5844,-0.9452]",-41.59998918,92.79999495,1,0,0,response7disk,11.20001161,-4.000006497,1,0,0,rectangle,11.20001161,-4.000006497,1,0,0,3,2,0.0006,0,11.20001161,-4.000006497,1,0,0,0,7,7,8,1,8,first,,,,,,,,,,,,,,,,,,,,,,,,,,,,,,,,,,,,,,,,,,,,,,,,,,,,,,,,,,,,,,,,,,,
,,,,,,61154503002b93af22a9353d,62bbfb75e7de68c3549c517e,2022-06-29_09h14.06.676,Colour_Asymmetry_Pilot,2022.1.3,Win32,59.93407252,62bbe60bf3d75ef465d3e404,,,,,,,,,,,,,,,,,,,,fourthree,,-3,0.7172,,,,,,,,,,,,,,,,,,,,,,,,,,,,,,,,,,"[-0.9296,-0.12959999999999994,-0.043199999999999905]","[0.3568,-0.20799999999999996,-0.9844]",-65.59998953,45.59999424,1,0,0,response7disk,-0.799988568,11.19999373,1,0,0,rectangle,-0.799988568,11.19999373,1,0,0,3,3,0.0006,0,-0.799988568,11.19999373,1,0,0,0,8,8,64,1,64,first,,,,,,,,,,,,,,,,,,,,,,,,,,,,,,,,,,,,,,,,,,,,,,,,,,,,,,,,,,,,,,,,,,,
,,,,,,61154503002b93af22a9353d,62bbfb75e7de68c3549c517e,2022-06-29_09h14.06.676,Colour_Asymmetry_Pilot,2022.1.3,Win32,59.93407252,62bbe60bf3d75ef465d3e404,,,,,,,,,,,,,,,,,,,,threeone,,-4,0.8914,,,,,,,,,,,,,,,,,,,,,,,,,,,,,,,,,,"[0.5449999999999999,-0.31000000000000005,-0.0354000000000001]","[-0.9844,-0.9688,-0.9922]",-49.5999893,89.5999949,1,0,0,response7disk,-2.399939764,3.19999361,1,0,0,rectangle,-2.399939764,3.19999361,1,0,0,3,1,0.0008,0,-2.399939764,3.19999361,1,0,0,0,9,9,106,1,25,second,,,,,,,,,,,,,,,,,,,,,,,,,,,,,,,,,,,,,,,,,,,,,,,,,,,,,,,,,,,,,,,,,,,
,,,,,,61154503002b93af22a9353d,62bbfb75e7de68c3549c517e,2022-06-29_09h14.06.676,Colour_Asymmetry_Pilot,2022.1.3,Win32,59.93407252,62bbe60bf3d75ef465d3e404,,,,,,,,,,,,,,,,,,,,twofour,,3,0.7504,,,,,,,,,,,,,,,,,,,,,,,,,,,,,,,,,,"[0.40379999999999994,0.09000000000000008,0.44300000000000006]","[0.09799999999999986,-0.24719999999999998,0.15280000000000005]",74.40001255,35.19996967,1,0,0,response1disk,-6.399939823,2.399993598,1,0,0,rectangle,-6.399939823,2.399993598,1,0,0,3,2,0.001,0,-6.399939823,2.399993598,1,0,0,0,10,10,29,1,29,first,,,,,,,,,,,,,,,,,,,,,,,,,,,,,,,,,,,,,,,,,,,,,,,,,,,,,,,,,,,,,,,,,,,
,,,,,,61154503002b93af22a9353d,62bbfb75e7de68c3549c517e,2022-06-29_09h14.06.676,Colour_Asymmetry_Pilot,2022.1.3,Win32,59.93407252,62bbe60bf3d75ef465d3e404,,,,,,,,,,,,,,,,,,,,twofour,,-3,0.5435,,,,,,,,,,,,,,,,,,,,,,,,,,,,,,,,,,"[-0.6235999999999999,-0.6786,-0.08239999999999992]","[0.7802,-0.23140000000000005,-0.20799999999999996]",-81.59998977,36.79999411,1,0,0,response7disk,-3.999988616,-4.000006497,1,0,0,rectangle,-3.999988616,-4.000006497,1,0,0,3,1,0.0005,0,-3.999988616,-4.000006497,1,0,0,0,11,11,90,1,9,second,,,,,,,,,,,,,,,,,,,,,,,,,,,,,,,,,,,,,,,,,,,,,,,,,,,,,,,,,,,,,,,,,,,
,,,,,,61154503002b93af22a9353d,62bbfb75e7de68c3549c517e,2022-06-29_09h14.06.676,Colour_Asymmetry_Pilot,2022.1.3,Win32,59.93407252,62bbe60bf3d75ef465d3e404,,,,,,,,,,,,,,,,,,,,onethree,,-4,0.8332,,,,,,,,,,,,,,,,,,,,,,,,,,,,,,,,,,"[0.7176,-0.906,-0.6864]","[-0.10599999999999998,-0.10599999999999998,0.5841999999999998]",-38.3999403,74.39999467,1,0,0,response7disk,1.14441E-05,-7.200006545,1,0,0,rectangle,1.14441E-05,-7.200006545,1,0,0,3,2,0.0013,0,1.14441E-05,-7.200006545,1,0,0,0,12,12,45,1,45,first,,,,,,,,,,,,,,,,,,,,,,,,,,,,,,,,,,,,,,,,,,,,,,,,,,,,,,,,,,,,,,,,,,,
,,,,,,61154503002b93af22a9353d,62bbfb75e7de68c3549c517e,2022-06-29_09h14.06.676,Colour_Asymmetry_Pilot,2022.1.3,Win32,59.93407252,62bbe60bf3d75ef465d3e404,,,,,,,,,,,,,,,,,,,,onetwo,,3,0.8344,,,,,,,,,,,,,,,,,,,,,,,,,,,,,,,,,,"[0.09799999999999986,-0.24719999999999998,0.15280000000000005]","[-0.4982,-0.2942,-0.0354000000000001]",88.00001276,31.19996961,1,0,0,response1disk,0.800011456,3.999993622,1,0,0,rectangle,0.800011456,3.999993622,1,0,0,3,1,0.0007,0,0.800011456,3.999993622,1,0,0,0,13,13,140,1,59,second,,,,,,,,,,,,,,,,,,,,,,,,,,,,,,,,,,,,,,,,,,,,,,,,,,,,,,,,,,,,,,,,,,,
,,,,,,61154503002b93af22a9353d,62bbfb75e7de68c3549c517e,2022-06-29_09h14.06.676,Colour_Asymmetry_Pilot,2022.1.3,Win32,59.93407252,62bbe60bf3d75ef465d3e404,,,,,,,,,,,,,,,,,,,,fourthree,,1,1.2087,,,,,,,,,,,,,,,,,,,,,,,,,,,,,,,,,,"[-0.34920000000000007,-0.702,-0.5216]","[-0.9138,-0.5296000000000001,-0.5529999999999999]",36.80001199,-96.80000788,1,0,0,response3disk,-0.799988568,-0.800006449,1,0,0,rectangle,-0.799988568,-0.800006449,1,0,0,3,2,0.0015,0,-0.799988568,-0.800006449,1,0,0,0,14,14,135,1,54,second,,,,,,,,,,,,,,,,,,,,,,,,,,,,,,,,,,,,,,,,,,,,,,,,,,,,,,,,,,,,,,,,,,,
,,,,,,61154503002b93af22a9353d,62bbfb75e7de68c3549c517e,2022-06-29_09h14.06.676,Colour_Asymmetry_Pilot,2022.1.3,Win32,59.93407252,62bbe60bf3d75ef465d3e404,,,,,,,,,,,,,,,,,,,,fourthree,,1,1.5595,,,,,,,,,,,,,,,,,,,,,,,,,,,,,,,,,,"[-0.9688,-0.4902000000000001,-0.12159999999999993]","[-0.9766,-0.34920000000000007,0.2156]",46.40001214,-70.40000749,1,0,0,response3disk,1.14441E-05,7.999993682,1,0,0,rectangle,1.14441E-05,7.999993682,1,0,0,3,2,0.0004,0,1.14441E-05,7.999993682,1,0,0,0,15,15,81,1,0,second,,,,,,,,,,,,,,,,,,,,,,,,,,,,,,,,,,,,,,,,,,,,,,,,,,,,,,,,,,,,,,,,,,,
,,,,,,61154503002b93af22a9353d,62bbfb75e7de68c3549c517e,2022-06-29_09h14.06.676,Colour_Asymmetry_Pilot,2022.1.3,Win32,59.93407252,62bbe60bf3d75ef465d3e404,,,,,,,,,,,,,,,,,,,,twoone,,2,0.6779,,,,,,,,,,,,,,,,,,,,,,,,,,,,,,,,,,"[-0.45899999999999996,-0.3256,-0.9374]","[-0.06680000000000008,-0.45100000000000007,-0.906]",75.20001256,-59.20000732,1,0,0,response3disk,12.80001163,-5.600006521,1,0,0,rectangle,12.80001163,-5.600006521,1,0,0,3,2,0.0007,0,12.80001163,-5.600006521,1,0,0,0,16,16,155,1,74,second,,,,,,,,,,,,,,,,,,,,,,,,,,,,,,,,,,,,,,,,,,,,,,,,,,,,,,,,,,,,,,,,,,,
