trials.thisRepN,trials.thisTrialN,trials.thisN,trials.thisIndex,trials.ran,Colourcodes,participant,session,date,expName,psychopyVersion,OS,frameRate,study_id,trials_4.thisRepN,trials_4.thisTrialN,trials_4.thisN,trials_4.thisIndex,trials_4.ran,StimulusPos,key_resp.keys,key_resp.rt,key_resp_2.keys,key_resp_2.rt,key_resp_15.keys,key_resp_15.rt,key_resp_17.keys,key_resp_17.rt,key_resp_9.keys,key_resp_9.rt,key_resp_10.keys,key_resp_10.rt,Circle1_col,Ecc,Circle2_col,similarity,response_time,mouse_5.x,mouse_5.y,mouse_5.leftButton,mouse_5.midButton,mouse_5.rightButton,mouse_5.clicked_name,mouse_10.x,mouse_10.y,mouse_10.leftButton,mouse_10.midButton,mouse_10.rightButton,mouse_10.clicked_name,mouse_7.x,mouse_7.y,mouse_7.leftButton,mouse_7.midButton,mouse_7.rightButton,catchnumberprac,mouse_6.x,mouse_6.y,mouse_6.leftButton,mouse_6.midButton,mouse_6.rightButton,duringprac.thisRepN,duringprac.thisTrialN,duringprac.thisN,duringprac.thisIndex,duringprac.ran,mouse_7.clicked_name,catchprac,mouse_6.clicked_name,key_resp_22.keys,key_resp_22.rt,Circle1_colour,Circle2_colour,mouse.x,mouse.y,mouse.leftButton,mouse.midButton,mouse.rightButton,mouse.clicked_name,mouse_2.x,mouse_2.y,mouse_2.leftButton,mouse_2.midButton,mouse_2.rightButton,mouse_2.clicked_name,mouse_3.x,mouse_3.y,mouse_3.leftButton,mouse_3.midButton,mouse_3.rightButton,catchresponse,catchnumber,response_time_catch,Catch,mouse_11.x,mouse_11.y,mouse_11.leftButton,mouse_11.midButton,mouse_11.rightButton,trials_2.thisRepN,trials_2.thisTrialN,trials_2.thisN,trials_2.thisIndex,trials_2.ran,Colourpair,Temporder,mouse_3.clicked_name,mouse_11.clicked_name,trials_3.thisRepN,trials_3.thisTrialN,trials_3.thisN,trials_3.thisIndex,trials_3.ran,key_resp_instr_Ishi.keys,key_resp_instr_Ishi.rt,Ishi_trial_keyresp.keys,Ishi_trial_keyresp.rt,Ishi_textbox.text,Ishi_loop.thisRepN,Ishi_loop.thisTrialN,Ishi_loop.thisN,Ishi_loop.thisIndex,Ishi_loop.ran,imageaddress,textbox.text,mouse_4.x,mouse_4.y,mouse_4.leftButton,mouse_4.midButton,mouse_4.rightButton,mouse_4.clicked_name,textbox_2.text,mouse_8.x,mouse_8.y,mouse_8.leftButton,mouse_8.midButton,mouse_8.rightButton,mouse_8.clicked_name,textbox_3.text,mouse_9.x,mouse_9.y,mouse_9.leftButton,mouse_9.midButton,mouse_9.rightButton,mouse_9.clicked_name,textbox_4.text,mouse_12.x,mouse_12.y,mouse_12.leftButton,mouse_12.midButton,mouse_12.rightButton,mouse_12.clicked_name,textbox_5.text,mouse_13.x,mouse_13.y,mouse_13.leftButton,mouse_13.midButton,mouse_13.rightButton,mouse_13.clicked_name,textbox_6.text,mouse_14.x,mouse_14.y,mouse_14.leftButton,mouse_14.midButton,mouse_14.rightButton,mouse_14.clicked_name,textbox_7.text,mouse_15.x,mouse_15.y,mouse_15.leftButton,mouse_15.midButton,mouse_15.rightButton,mouse_15.clicked_name
0,0,0,62,1,,5e58f7ebe74f460f89b26ca9,62bbfab7847cd819c244688b,2022-06-29_09h11.10.673,Colour_Asymmetry_Pilot,2022.1.3,Win32,59.37184587,62bbe60bf3d75ef465d3e404,,,,,,,,,,,,,,,,,,,,,,,,,,,,,,,,,,,,,,,,,,,,,,,,,,,,,,,,,,,,,,,,,,,,,,,,,,,,,,,,,,,,,,,,,,,,,,,,,,,,,,,,,,,,,,,,,,,,,,,,,,,,,,,,,,,,,,,,,,,,,,,,,,,,,,,,,,,,,,
0,1,1,77,1,,5e58f7ebe74f460f89b26ca9,62bbfab7847cd819c244688b,2022-06-29_09h11.10.673,Colour_Asymmetry_Pilot,2022.1.3,Win32,59.37184587,62bbe60bf3d75ef465d3e404,,,,,,,,,,,,,,,,,,,,,,,,,,,,,,,,,,,,,,,,,,,,,,,,,,,,,,,,,,,,,,,,,,,,,,,,,,,,,,,,,,,,,,,,,,,,,,,,,,,,,,,,,,,,,,,,,,,,,,,,,,,,,,,,,,,,,,,,,,,,,,,,,,,,,,,,,,,,,,
0,2,2,51,1,,5e58f7ebe74f460f89b26ca9,62bbfab7847cd819c244688b,2022-06-29_09h11.10.673,Colour_Asymmetry_Pilot,2022.1.3,Win32,59.37184587,62bbe60bf3d75ef465d3e404,,,,,,,,,,,,,,,,,,,,,,,,,,,,,,,,,,,,,,,,,,,,,,,,,,,,,,,,,,,,,,,,,,,,,,,,,,,,,,,,,,,,,,,,,,,,,,,,,,,,,,,,,,,,,,,,,,,,,,,,,,,,,,,,,,,,,,,,,,,,,,,,,,,,,,,,,,,,,,
0,3,3,92,1,,5e58f7ebe74f460f89b26ca9,62bbfab7847cd819c244688b,2022-06-29_09h11.10.673,Colour_Asymmetry_Pilot,2022.1.3,Win32,59.37184587,62bbe60bf3d75ef465d3e404,,,,,,,,,,,,,,,,,,,,,,,,,,,,,,,,,,,,,,,,,,,,,,,,,,,,,,,,,,,,,,,,,,,,,,,,,,,,,,,,,,,,,,,,,,,,,,,,,,,,,,,,,,,,,,,,,,,,,,,,,,,,,,,,,,,,,,,,,,,,,,,,,,,,,,,,,,,,,,
0,4,4,58,1,,5e58f7ebe74f460f89b26ca9,62bbfab7847cd819c244688b,2022-06-29_09h11.10.673,Colour_Asymmetry_Pilot,2022.1.3,Win32,59.37184587,62bbe60bf3d75ef465d3e404,,,,,,,,,,,,,,,,,,,,,,,,,,,,,,,,,,,,,,,,,,,,,,,,,,,,,,,,,,,,,,,,,,,,,,,,,,,,,,,,,,,,,,,,,,,,,,,,,,,,,,,,,,,,,,,,,,,,,,,,,,,,,,,,,,,,,,,,,,,,,,,,,,,,,,,,,,,,,,
0,5,5,38,1,,5e58f7ebe74f460f89b26ca9,62bbfab7847cd819c244688b,2022-06-29_09h11.10.673,Colour_Asymmetry_Pilot,2022.1.3,Win32,59.37184587,62bbe60bf3d75ef465d3e404,,,,,,,,,,,,,,,,,,,,,,,,,,,,,,,,,,,,,,,,,,,,,,,,,,,,,,,,,,,,,,,,,,,,,,,,,,,,,,,,,,,,,,,,,,,,,,,,,,,,,,,,,,,,,,,,,,,,,,,,,,,,,,,,,,,,,,,,,,,,,,,,,,,,,,,,,,,,,,
0,6,6,21,1,,5e58f7ebe74f460f89b26ca9,62bbfab7847cd819c244688b,2022-06-29_09h11.10.673,Colour_Asymmetry_Pilot,2022.1.3,Win32,59.37184587,62bbe60bf3d75ef465d3e404,,,,,,,,,,,,,,,,,,,,,,,,,,,,,,,,,,,,,,,,,,,,,,,,,,,,,,,,,,,,,,,,,,,,,,,,,,,,,,,,,,,,,,,,,,,,,,,,,,,,,,,,,,,,,,,,,,,,,,,,,,,,,,,,,,,,,,,,,,,,,,,,,,,,,,,,,,,,,,
0,7,7,3,1,,5e58f7ebe74f460f89b26ca9,62bbfab7847cd819c244688b,2022-06-29_09h11.10.673,Colour_Asymmetry_Pilot,2022.1.3,Win32,59.37184587,62bbe60bf3d75ef465d3e404,,,,,,,,,,,,,,,,,,,,,,,,,,,,,,,,,,,,,,,,,,,,,,,,,,,,,,,,,,,,,,,,,,,,,,,,,,,,,,,,,,,,,,,,,,,,,,,,,,,,,,,,,,,,,,,,,,,,,,,,,,,,,,,,,,,,,,,,,,,,,,,,,,,,,,,,,,,,,,
0,8,8,52,1,,5e58f7ebe74f460f89b26ca9,62bbfab7847cd819c244688b,2022-06-29_09h11.10.673,Colour_Asymmetry_Pilot,2022.1.3,Win32,59.37184587,62bbe60bf3d75ef465d3e404,,,,,,,,,,,,,,,,,,,,,,,,,,,,,,,,,,,,,,,,,,,,,,,,,,,,,,,,,,,,,,,,,,,,,,,,,,,,,,,,,,,,,,,,,,,,,,,,,,,,,,,,,,,,,,,,,,,,,,,,,,,,,,,,,,,,,,,,,,,,,,,,,,,,,,,,,,,,,,
0,9,9,15,1,,5e58f7ebe74f460f89b26ca9,62bbfab7847cd819c244688b,2022-06-29_09h11.10.673,Colour_Asymmetry_Pilot,2022.1.3,Win32,59.37184587,62bbe60bf3d75ef465d3e404,,,,,,,,,,,,,,,,,,,,,,,,,,,,,,,,,,,,,,,,,,,,,,,,,,,,,,,,,,,,,,,,,,,,,,,,,,,,,,,,,,,,,,,,,,,,,,,,,,,,,,,,,,,,,,,,,,,,,,,,,,,,,,,,,,,,,,,,,,,,,,,,,,,,,,,,,,,,,,
0,10,10,48,1,,5e58f7ebe74f460f89b26ca9,62bbfab7847cd819c244688b,2022-06-29_09h11.10.673,Colour_Asymmetry_Pilot,2022.1.3,Win32,59.37184587,62bbe60bf3d75ef465d3e404,,,,,,,,,,,,,,,,,,,,,,,,,,,,,,,,,,,,,,,,,,,,,,,,,,,,,,,,,,,,,,,,,,,,,,,,,,,,,,,,,,,,,,,,,,,,,,,,,,,,,,,,,,,,,,,,,,,,,,,,,,,,,,,,,,,,,,,,,,,,,,,,,,,,,,,,,,,,,,
0,11,11,47,1,,5e58f7ebe74f460f89b26ca9,62bbfab7847cd819c244688b,2022-06-29_09h11.10.673,Colour_Asymmetry_Pilot,2022.1.3,Win32,59.37184587,62bbe60bf3d75ef465d3e404,,,,,,,,,,,,,,,,,,,,,,,,,,,,,,,,,,,,,,,,,,,,,,,,,,,,,,,,,,,,,,,,,,,,,,,,,,,,,,,,,,,,,,,,,,,,,,,,,,,,,,,,,,,,,,,,,,,,,,,,,,,,,,,,,,,,,,,,,,,,,,,,,,,,,,,,,,,,,,
0,12,12,22,1,,5e58f7ebe74f460f89b26ca9,62bbfab7847cd819c244688b,2022-06-29_09h11.10.673,Colour_Asymmetry_Pilot,2022.1.3,Win32,59.37184587,62bbe60bf3d75ef465d3e404,,,,,,,,,,,,,,,,,,,,,,,,,,,,,,,,,,,,,,,,,,,,,,,,,,,,,,,,,,,,,,,,,,,,,,,,,,,,,,,,,,,,,,,,,,,,,,,,,,,,,,,,,,,,,,,,,,,,,,,,,,,,,,,,,,,,,,,,,,,,,,,,,,,,,,,,,,,,,,
0,13,13,63,1,,5e58f7ebe74f460f89b26ca9,62bbfab7847cd819c244688b,2022-06-29_09h11.10.673,Colour_Asymmetry_Pilot,2022.1.3,Win32,59.37184587,62bbe60bf3d75ef465d3e404,,,,,,,,,,,,,,,,,,,,,,,,,,,,,,,,,,,,,,,,,,,,,,,,,,,,,,,,,,,,,,,,,,,,,,,,,,,,,,,,,,,,,,,,,,,,,,,,,,,,,,,,,,,,,,,,,,,,,,,,,,,,,,,,,,,,,,,,,,,,,,,,,,,,,,,,,,,,,,
0,14,14,35,1,,5e58f7ebe74f460f89b26ca9,62bbfab7847cd819c244688b,2022-06-29_09h11.10.673,Colour_Asymmetry_Pilot,2022.1.3,Win32,59.37184587,62bbe60bf3d75ef465d3e404,,,,,,,,,,,,,,,,,,,,,,,,,,,,,,,,,,,,,,,,,,,,,,,,,,,,,,,,,,,,,,,,,,,,,,,,,,,,,,,,,,,,,,,,,,,,,,,,,,,,,,,,,,,,,,,,,,,,,,,,,,,,,,,,,,,,,,,,,,,,,,,,,,,,,,,,,,,,,,
0,15,15,82,1,,5e58f7ebe74f460f89b26ca9,62bbfab7847cd819c244688b,2022-06-29_09h11.10.673,Colour_Asymmetry_Pilot,2022.1.3,Win32,59.37184587,62bbe60bf3d75ef465d3e404,,,,,,,,,,,,,,,,,,,,,,,,,,,,,,,,,,,,,,,,,,,,,,,,,,,,,,,,,,,,,,,,,,,,,,,,,,,,,,,,,,,,,,,,,,,,,,,,,,,,,,,,,,,,,,,,,,,,,,,,,,,,,,,,,,,,,,,,,,,,,,,,,,,,,,,,,,,,,,
0,16,16,40,1,,5e58f7ebe74f460f89b26ca9,62bbfab7847cd819c244688b,2022-06-29_09h11.10.673,Colour_Asymmetry_Pilot,2022.1.3,Win32,59.37184587,62bbe60bf3d75ef465d3e404,,,,,,,,,,,,,,,,,,,,,,,,,,,,,,,,,,,,,,,,,,,,,,,,,,,,,,,,,,,,,,,,,,,,,,,,,,,,,,,,,,,,,,,,,,,,,,,,,,,,,,,,,,,,,,,,,,,,,,,,,,,,,,,,,,,,,,,,,,,,,,,,,,,,,,,,,,,,,,
0,17,17,67,1,,5e58f7ebe74f460f89b26ca9,62bbfab7847cd819c244688b,2022-06-29_09h11.10.673,Colour_Asymmetry_Pilot,2022.1.3,Win32,59.37184587,62bbe60bf3d75ef465d3e404,,,,,,,,,,,,,,,,,,,,,,,,,,,,,,,,,,,,,,,,,,,,,,,,,,,,,,,,,,,,,,,,,,,,,,,,,,,,,,,,,,,,,,,,,,,,,,,,,,,,,,,,,,,,,,,,,,,,,,,,,,,,,,,,,,,,,,,,,,,,,,,,,,,,,,,,,,,,,,
0,18,18,50,1,,5e58f7ebe74f460f89b26ca9,62bbfab7847cd819c244688b,2022-06-29_09h11.10.673,Colour_Asymmetry_Pilot,2022.1.3,Win32,59.37184587,62bbe60bf3d75ef465d3e404,,,,,,,,,,,,,,,,,,,,,,,,,,,,,,,,,,,,,,,,,,,,,,,,,,,,,,,,,,,,,,,,,,,,,,,,,,,,,,,,,,,,,,,,,,,,,,,,,,,,,,,,,,,,,,,,,,,,,,,,,,,,,,,,,,,,,,,,,,,,,,,,,,,,,,,,,,,,,,
0,19,19,87,1,,5e58f7ebe74f460f89b26ca9,62bbfab7847cd819c244688b,2022-06-29_09h11.10.673,Colour_Asymmetry_Pilot,2022.1.3,Win32,59.37184587,62bbe60bf3d75ef465d3e404,,,,,,,,,,,,,,,,,,,,,,,,,,,,,,,,,,,,,,,,,,,,,,,,,,,,,,,,,,,,,,,,,,,,,,,,,,,,,,,,,,,,,,,,,,,,,,,,,,,,,,,,,,,,,,,,,,,,,,,,,,,,,,,,,,,,,,,,,,,,,,,,,,,,,,,,,,,,,,
0,20,20,68,1,,5e58f7ebe74f460f89b26ca9,62bbfab7847cd819c244688b,2022-06-29_09h11.10.673,Colour_Asymmetry_Pilot,2022.1.3,Win32,59.37184587,62bbe60bf3d75ef465d3e404,,,,,,,,,,,,,,,,,,,,,,,,,,,,,,,,,,,,,,,,,,,,,,,,,,,,,,,,,,,,,,,,,,,,,,,,,,,,,,,,,,,,,,,,,,,,,,,,,,,,,,,,,,,,,,,,,,,,,,,,,,,,,,,,,,,,,,,,,,,,,,,,,,,,,,,,,,,,,,
0,21,21,75,1,,5e58f7ebe74f460f89b26ca9,62bbfab7847cd819c244688b,2022-06-29_09h11.10.673,Colour_Asymmetry_Pilot,2022.1.3,Win32,59.37184587,62bbe60bf3d75ef465d3e404,,,,,,,,,,,,,,,,,,,,,,,,,,,,,,,,,,,,,,,,,,,,,,,,,,,,,,,,,,,,,,,,,,,,,,,,,,,,,,,,,,,,,,,,,,,,,,,,,,,,,,,,,,,,,,,,,,,,,,,,,,,,,,,,,,,,,,,,,,,,,,,,,,,,,,,,,,,,,,
0,22,22,6,1,,5e58f7ebe74f460f89b26ca9,62bbfab7847cd819c244688b,2022-06-29_09h11.10.673,Colour_Asymmetry_Pilot,2022.1.3,Win32,59.37184587,62bbe60bf3d75ef465d3e404,,,,,,,,,,,,,,,,,,,,,,,,,,,,,,,,,,,,,,,,,,,,,,,,,,,,,,,,,,,,,,,,,,,,,,,,,,,,,,,,,,,,,,,,,,,,,,,,,,,,,,,,,,,,,,,,,,,,,,,,,,,,,,,,,,,,,,,,,,,,,,,,,,,,,,,,,,,,,,
0,23,23,45,1,,5e58f7ebe74f460f89b26ca9,62bbfab7847cd819c244688b,2022-06-29_09h11.10.673,Colour_Asymmetry_Pilot,2022.1.3,Win32,59.37184587,62bbe60bf3d75ef465d3e404,,,,,,,,,,,,,,,,,,,,,,,,,,,,,,,,,,,,,,,,,,,,,,,,,,,,,,,,,,,,,,,,,,,,,,,,,,,,,,,,,,,,,,,,,,,,,,,,,,,,,,,,,,,,,,,,,,,,,,,,,,,,,,,,,,,,,,,,,,,,,,,,,,,,,,,,,,,,,,
0,24,24,72,1,,5e58f7ebe74f460f89b26ca9,62bbfab7847cd819c244688b,2022-06-29_09h11.10.673,Colour_Asymmetry_Pilot,2022.1.3,Win32,59.37184587,62bbe60bf3d75ef465d3e404,,,,,,,,,,,,,,,,,,,,,,,,,,,,,,,,,,,,,,,,,,,,,,,,,,,,,,,,,,,,,,,,,,,,,,,,,,,,,,,,,,,,,,,,,,,,,,,,,,,,,,,,,,,,,,,,,,,,,,,,,,,,,,,,,,,,,,,,,,,,,,,,,,,,,,,,,,,,,,
0,25,25,26,1,,5e58f7ebe74f460f89b26ca9,62bbfab7847cd819c244688b,2022-06-29_09h11.10.673,Colour_Asymmetry_Pilot,2022.1.3,Win32,59.37184587,62bbe60bf3d75ef465d3e404,,,,,,,,,,,,,,,,,,,,,,,,,,,,,,,,,,,,,,,,,,,,,,,,,,,,,,,,,,,,,,,,,,,,,,,,,,,,,,,,,,,,,,,,,,,,,,,,,,,,,,,,,,,,,,,,,,,,,,,,,,,,,,,,,,,,,,,,,,,,,,,,,,,,,,,,,,,,,,
0,26,26,20,1,,5e58f7ebe74f460f89b26ca9,62bbfab7847cd819c244688b,2022-06-29_09h11.10.673,Colour_Asymmetry_Pilot,2022.1.3,Win32,59.37184587,62bbe60bf3d75ef465d3e404,,,,,,,,,,,,,,,,,,,,,,,,,,,,,,,,,,,,,,,,,,,,,,,,,,,,,,,,,,,,,,,,,,,,,,,,,,,,,,,,,,,,,,,,,,,,,,,,,,,,,,,,,,,,,,,,,,,,,,,,,,,,,,,,,,,,,,,,,,,,,,,,,,,,,,,,,,,,,,
0,27,27,10,1,,5e58f7ebe74f460f89b26ca9,62bbfab7847cd819c244688b,2022-06-29_09h11.10.673,Colour_Asymmetry_Pilot,2022.1.3,Win32,59.37184587,62bbe60bf3d75ef465d3e404,,,,,,,,,,,,,,,,,,,,,,,,,,,,,,,,,,,,,,,,,,,,,,,,,,,,,,,,,,,,,,,,,,,,,,,,,,,,,,,,,,,,,,,,,,,,,,,,,,,,,,,,,,,,,,,,,,,,,,,,,,,,,,,,,,,,,,,,,,,,,,,,,,,,,,,,,,,,,,
0,28,28,37,1,,5e58f7ebe74f460f89b26ca9,62bbfab7847cd819c244688b,2022-06-29_09h11.10.673,Colour_Asymmetry_Pilot,2022.1.3,Win32,59.37184587,62bbe60bf3d75ef465d3e404,,,,,,,,,,,,,,,,,,,,,,,,,,,,,,,,,,,,,,,,,,,,,,,,,,,,,,,,,,,,,,,,,,,,,,,,,,,,,,,,,,,,,,,,,,,,,,,,,,,,,,,,,,,,,,,,,,,,,,,,,,,,,,,,,,,,,,,,,,,,,,,,,,,,,,,,,,,,,,
0,29,29,88,1,,5e58f7ebe74f460f89b26ca9,62bbfab7847cd819c244688b,2022-06-29_09h11.10.673,Colour_Asymmetry_Pilot,2022.1.3,Win32,59.37184587,62bbe60bf3d75ef465d3e404,,,,,,,,,,,,,,,,,,,,,,,,,,,,,,,,,,,,,,,,,,,,,,,,,,,,,,,,,,,,,,,,,,,,,,,,,,,,,,,,,,,,,,,,,,,,,,,,,,,,,,,,,,,,,,,,,,,,,,,,,,,,,,,,,,,,,,,,,,,,,,,,,,,,,,,,,,,,,,
0,30,30,55,1,,5e58f7ebe74f460f89b26ca9,62bbfab7847cd819c244688b,2022-06-29_09h11.10.673,Colour_Asymmetry_Pilot,2022.1.3,Win32,59.37184587,62bbe60bf3d75ef465d3e404,,,,,,,,,,,,,,,,,,,,,,,,,,,,,,,,,,,,,,,,,,,,,,,,,,,,,,,,,,,,,,,,,,,,,,,,,,,,,,,,,,,,,,,,,,,,,,,,,,,,,,,,,,,,,,,,,,,,,,,,,,,,,,,,,,,,,,,,,,,,,,,,,,,,,,,,,,,,,,
0,31,31,91,1,,5e58f7ebe74f460f89b26ca9,62bbfab7847cd819c244688b,2022-06-29_09h11.10.673,Colour_Asymmetry_Pilot,2022.1.3,Win32,59.37184587,62bbe60bf3d75ef465d3e404,,,,,,,,,,,,,,,,,,,,,,,,,,,,,,,,,,,,,,,,,,,,,,,,,,,,,,,,,,,,,,,,,,,,,,,,,,,,,,,,,,,,,,,,,,,,,,,,,,,,,,,,,,,,,,,,,,,,,,,,,,,,,,,,,,,,,,,,,,,,,,,,,,,,,,,,,,,,,,
0,32,32,32,1,,5e58f7ebe74f460f89b26ca9,62bbfab7847cd819c244688b,2022-06-29_09h11.10.673,Colour_Asymmetry_Pilot,2022.1.3,Win32,59.37184587,62bbe60bf3d75ef465d3e404,,,,,,,,,,,,,,,,,,,,,,,,,,,,,,,,,,,,,,,,,,,,,,,,,,,,,,,,,,,,,,,,,,,,,,,,,,,,,,,,,,,,,,,,,,,,,,,,,,,,,,,,,,,,,,,,,,,,,,,,,,,,,,,,,,,,,,,,,,,,,,,,,,,,,,,,,,,,,,
0,33,33,8,1,,5e58f7ebe74f460f89b26ca9,62bbfab7847cd819c244688b,2022-06-29_09h11.10.673,Colour_Asymmetry_Pilot,2022.1.3,Win32,59.37184587,62bbe60bf3d75ef465d3e404,,,,,,,,,,,,,,,,,,,,,,,,,,,,,,,,,,,,,,,,,,,,,,,,,,,,,,,,,,,,,,,,,,,,,,,,,,,,,,,,,,,,,,,,,,,,,,,,,,,,,,,,,,,,,,,,,,,,,,,,,,,,,,,,,,,,,,,,,,,,,,,,,,,,,,,,,,,,,,
0,34,34,36,1,,5e58f7ebe74f460f89b26ca9,62bbfab7847cd819c244688b,2022-06-29_09h11.10.673,Colour_Asymmetry_Pilot,2022.1.3,Win32,59.37184587,62bbe60bf3d75ef465d3e404,,,,,,,,,,,,,,,,,,,,,,,,,,,,,,,,,,,,,,,,,,,,,,,,,,,,,,,,,,,,,,,,,,,,,,,,,,,,,,,,,,,,,,,,,,,,,,,,,,,,,,,,,,,,,,,,,,,,,,,,,,,,,,,,,,,,,,,,,,,,,,,,,,,,,,,,,,,,,,
0,35,35,25,1,,5e58f7ebe74f460f89b26ca9,62bbfab7847cd819c244688b,2022-06-29_09h11.10.673,Colour_Asymmetry_Pilot,2022.1.3,Win32,59.37184587,62bbe60bf3d75ef465d3e404,,,,,,,,,,,,,,,,,,,,,,,,,,,,,,,,,,,,,,,,,,,,,,,,,,,,,,,,,,,,,,,,,,,,,,,,,,,,,,,,,,,,,,,,,,,,,,,,,,,,,,,,,,,,,,,,,,,,,,,,,,,,,,,,,,,,,,,,,,,,,,,,,,,,,,,,,,,,,,
0,36,36,81,1,,5e58f7ebe74f460f89b26ca9,62bbfab7847cd819c244688b,2022-06-29_09h11.10.673,Colour_Asymmetry_Pilot,2022.1.3,Win32,59.37184587,62bbe60bf3d75ef465d3e404,,,,,,,,,,,,,,,,,,,,,,,,,,,,,,,,,,,,,,,,,,,,,,,,,,,,,,,,,,,,,,,,,,,,,,,,,,,,,,,,,,,,,,,,,,,,,,,,,,,,,,,,,,,,,,,,,,,,,,,,,,,,,,,,,,,,,,,,,,,,,,,,,,,,,,,,,,,,,,
0,37,37,34,1,,5e58f7ebe74f460f89b26ca9,62bbfab7847cd819c244688b,2022-06-29_09h11.10.673,Colour_Asymmetry_Pilot,2022.1.3,Win32,59.37184587,62bbe60bf3d75ef465d3e404,,,,,,,,,,,,,,,,,,,,,,,,,,,,,,,,,,,,,,,,,,,,,,,,,,,,,,,,,,,,,,,,,,,,,,,,,,,,,,,,,,,,,,,,,,,,,,,,,,,,,,,,,,,,,,,,,,,,,,,,,,,,,,,,,,,,,,,,,,,,,,,,,,,,,,,,,,,,,,
0,38,38,29,1,,5e58f7ebe74f460f89b26ca9,62bbfab7847cd819c244688b,2022-06-29_09h11.10.673,Colour_Asymmetry_Pilot,2022.1.3,Win32,59.37184587,62bbe60bf3d75ef465d3e404,,,,,,,,,,,,,,,,,,,,,,,,,,,,,,,,,,,,,,,,,,,,,,,,,,,,,,,,,,,,,,,,,,,,,,,,,,,,,,,,,,,,,,,,,,,,,,,,,,,,,,,,,,,,,,,,,,,,,,,,,,,,,,,,,,,,,,,,,,,,,,,,,,,,,,,,,,,,,,
0,39,39,46,1,,5e58f7ebe74f460f89b26ca9,62bbfab7847cd819c244688b,2022-06-29_09h11.10.673,Colour_Asymmetry_Pilot,2022.1.3,Win32,59.37184587,62bbe60bf3d75ef465d3e404,,,,,,,,,,,,,,,,,,,,,,,,,,,,,,,,,,,,,,,,,,,,,,,,,,,,,,,,,,,,,,,,,,,,,,,,,,,,,,,,,,,,,,,,,,,,,,,,,,,,,,,,,,,,,,,,,,,,,,,,,,,,,,,,,,,,,,,,,,,,,,,,,,,,,,,,,,,,,,
0,40,40,90,1,,5e58f7ebe74f460f89b26ca9,62bbfab7847cd819c244688b,2022-06-29_09h11.10.673,Colour_Asymmetry_Pilot,2022.1.3,Win32,59.37184587,62bbe60bf3d75ef465d3e404,,,,,,,,,,,,,,,,,,,,,,,,,,,,,,,,,,,,,,,,,,,,,,,,,,,,,,,,,,,,,,,,,,,,,,,,,,,,,,,,,,,,,,,,,,,,,,,,,,,,,,,,,,,,,,,,,,,,,,,,,,,,,,,,,,,,,,,,,,,,,,,,,,,,,,,,,,,,,,
0,41,41,70,1,,5e58f7ebe74f460f89b26ca9,62bbfab7847cd819c244688b,2022-06-29_09h11.10.673,Colour_Asymmetry_Pilot,2022.1.3,Win32,59.37184587,62bbe60bf3d75ef465d3e404,,,,,,,,,,,,,,,,,,,,,,,,,,,,,,,,,,,,,,,,,,,,,,,,,,,,,,,,,,,,,,,,,,,,,,,,,,,,,,,,,,,,,,,,,,,,,,,,,,,,,,,,,,,,,,,,,,,,,,,,,,,,,,,,,,,,,,,,,,,,,,,,,,,,,,,,,,,,,,
0,42,42,30,1,,5e58f7ebe74f460f89b26ca9,62bbfab7847cd819c244688b,2022-06-29_09h11.10.673,Colour_Asymmetry_Pilot,2022.1.3,Win32,59.37184587,62bbe60bf3d75ef465d3e404,,,,,,,,,,,,,,,,,,,,,,,,,,,,,,,,,,,,,,,,,,,,,,,,,,,,,,,,,,,,,,,,,,,,,,,,,,,,,,,,,,,,,,,,,,,,,,,,,,,,,,,,,,,,,,,,,,,,,,,,,,,,,,,,,,,,,,,,,,,,,,,,,,,,,,,,,,,,,,
0,43,43,71,1,,5e58f7ebe74f460f89b26ca9,62bbfab7847cd819c244688b,2022-06-29_09h11.10.673,Colour_Asymmetry_Pilot,2022.1.3,Win32,59.37184587,62bbe60bf3d75ef465d3e404,,,,,,,,,,,,,,,,,,,,,,,,,,,,,,,,,,,,,,,,,,,,,,,,,,,,,,,,,,,,,,,,,,,,,,,,,,,,,,,,,,,,,,,,,,,,,,,,,,,,,,,,,,,,,,,,,,,,,,,,,,,,,,,,,,,,,,,,,,,,,,,,,,,,,,,,,,,,,,
0,44,44,17,1,,5e58f7ebe74f460f89b26ca9,62bbfab7847cd819c244688b,2022-06-29_09h11.10.673,Colour_Asymmetry_Pilot,2022.1.3,Win32,59.37184587,62bbe60bf3d75ef465d3e404,,,,,,,,,,,,,,,,,,,,,,,,,,,,,,,,,,,,,,,,,,,,,,,,,,,,,,,,,,,,,,,,,,,,,,,,,,,,,,,,,,,,,,,,,,,,,,,,,,,,,,,,,,,,,,,,,,,,,,,,,,,,,,,,,,,,,,,,,,,,,,,,,,,,,,,,,,,,,,
0,45,45,60,1,,5e58f7ebe74f460f89b26ca9,62bbfab7847cd819c244688b,2022-06-29_09h11.10.673,Colour_Asymmetry_Pilot,2022.1.3,Win32,59.37184587,62bbe60bf3d75ef465d3e404,,,,,,,,,,,,,,,,,,,,,,,,,,,,,,,,,,,,,,,,,,,,,,,,,,,,,,,,,,,,,,,,,,,,,,,,,,,,,,,,,,,,,,,,,,,,,,,,,,,,,,,,,,,,,,,,,,,,,,,,,,,,,,,,,,,,,,,,,,,,,,,,,,,,,,,,,,,,,,
0,46,46,57,1,,5e58f7ebe74f460f89b26ca9,62bbfab7847cd819c244688b,2022-06-29_09h11.10.673,Colour_Asymmetry_Pilot,2022.1.3,Win32,59.37184587,62bbe60bf3d75ef465d3e404,,,,,,,,,,,,,,,,,,,,,,,,,,,,,,,,,,,,,,,,,,,,,,,,,,,,,,,,,,,,,,,,,,,,,,,,,,,,,,,,,,,,,,,,,,,,,,,,,,,,,,,,,,,,,,,,,,,,,,,,,,,,,,,,,,,,,,,,,,,,,,,,,,,,,,,,,,,,,,
0,47,47,41,1,,5e58f7ebe74f460f89b26ca9,62bbfab7847cd819c244688b,2022-06-29_09h11.10.673,Colour_Asymmetry_Pilot,2022.1.3,Win32,59.37184587,62bbe60bf3d75ef465d3e404,,,,,,,,,,,,,,,,,,,,,,,,,,,,,,,,,,,,,,,,,,,,,,,,,,,,,,,,,,,,,,,,,,,,,,,,,,,,,,,,,,,,,,,,,,,,,,,,,,,,,,,,,,,,,,,,,,,,,,,,,,,,,,,,,,,,,,,,,,,,,,,,,,,,,,,,,,,,,,
0,48,48,5,1,,5e58f7ebe74f460f89b26ca9,62bbfab7847cd819c244688b,2022-06-29_09h11.10.673,Colour_Asymmetry_Pilot,2022.1.3,Win32,59.37184587,62bbe60bf3d75ef465d3e404,,,,,,,,,,,,,,,,,,,,,,,,,,,,,,,,,,,,,,,,,,,,,,,,,,,,,,,,,,,,,,,,,,,,,,,,,,,,,,,,,,,,,,,,,,,,,,,,,,,,,,,,,,,,,,,,,,,,,,,,,,,,,,,,,,,,,,,,,,,,,,,,,,,,,,,,,,,,,,
0,49,49,9,1,,5e58f7ebe74f460f89b26ca9,62bbfab7847cd819c244688b,2022-06-29_09h11.10.673,Colour_Asymmetry_Pilot,2022.1.3,Win32,59.37184587,62bbe60bf3d75ef465d3e404,,,,,,,,,,,,,,,,,,,,,,,,,,,,,,,,,,,,,,,,,,,,,,,,,,,,,,,,,,,,,,,,,,,,,,,,,,,,,,,,,,,,,,,,,,,,,,,,,,,,,,,,,,,,,,,,,,,,,,,,,,,,,,,,,,,,,,,,,,,,,,,,,,,,,,,,,,,,,,
0,50,50,59,1,,5e58f7ebe74f460f89b26ca9,62bbfab7847cd819c244688b,2022-06-29_09h11.10.673,Colour_Asymmetry_Pilot,2022.1.3,Win32,59.37184587,62bbe60bf3d75ef465d3e404,,,,,,,,,,,,,,,,,,,,,,,,,,,,,,,,,,,,,,,,,,,,,,,,,,,,,,,,,,,,,,,,,,,,,,,,,,,,,,,,,,,,,,,,,,,,,,,,,,,,,,,,,,,,,,,,,,,,,,,,,,,,,,,,,,,,,,,,,,,,,,,,,,,,,,,,,,,,,,
0,51,51,84,1,,5e58f7ebe74f460f89b26ca9,62bbfab7847cd819c244688b,2022-06-29_09h11.10.673,Colour_Asymmetry_Pilot,2022.1.3,Win32,59.37184587,62bbe60bf3d75ef465d3e404,,,,,,,,,,,,,,,,,,,,,,,,,,,,,,,,,,,,,,,,,,,,,,,,,,,,,,,,,,,,,,,,,,,,,,,,,,,,,,,,,,,,,,,,,,,,,,,,,,,,,,,,,,,,,,,,,,,,,,,,,,,,,,,,,,,,,,,,,,,,,,,,,,,,,,,,,,,,,,
0,52,52,42,1,,5e58f7ebe74f460f89b26ca9,62bbfab7847cd819c244688b,2022-06-29_09h11.10.673,Colour_Asymmetry_Pilot,2022.1.3,Win32,59.37184587,62bbe60bf3d75ef465d3e404,,,,,,,,,,,,,,,,,,,,,,,,,,,,,,,,,,,,,,,,,,,,,,,,,,,,,,,,,,,,,,,,,,,,,,,,,,,,,,,,,,,,,,,,,,,,,,,,,,,,,,,,,,,,,,,,,,,,,,,,,,,,,,,,,,,,,,,,,,,,,,,,,,,,,,,,,,,,,,
0,53,53,76,1,,5e58f7ebe74f460f89b26ca9,62bbfab7847cd819c244688b,2022-06-29_09h11.10.673,Colour_Asymmetry_Pilot,2022.1.3,Win32,59.37184587,62bbe60bf3d75ef465d3e404,,,,,,,,,,,,,,,,,,,,,,,,,,,,,,,,,,,,,,,,,,,,,,,,,,,,,,,,,,,,,,,,,,,,,,,,,,,,,,,,,,,,,,,,,,,,,,,,,,,,,,,,,,,,,,,,,,,,,,,,,,,,,,,,,,,,,,,,,,,,,,,,,,,,,,,,,,,,,,
0,54,54,39,1,,5e58f7ebe74f460f89b26ca9,62bbfab7847cd819c244688b,2022-06-29_09h11.10.673,Colour_Asymmetry_Pilot,2022.1.3,Win32,59.37184587,62bbe60bf3d75ef465d3e404,,,,,,,,,,,,,,,,,,,,,,,,,,,,,,,,,,,,,,,,,,,,,,,,,,,,,,,,,,,,,,,,,,,,,,,,,,,,,,,,,,,,,,,,,,,,,,,,,,,,,,,,,,,,,,,,,,,,,,,,,,,,,,,,,,,,,,,,,,,,,,,,,,,,,,,,,,,,,,
0,55,55,31,1,,5e58f7ebe74f460f89b26ca9,62bbfab7847cd819c244688b,2022-06-29_09h11.10.673,Colour_Asymmetry_Pilot,2022.1.3,Win32,59.37184587,62bbe60bf3d75ef465d3e404,,,,,,,,,,,,,,,,,,,,,,,,,,,,,,,,,,,,,,,,,,,,,,,,,,,,,,,,,,,,,,,,,,,,,,,,,,,,,,,,,,,,,,,,,,,,,,,,,,,,,,,,,,,,,,,,,,,,,,,,,,,,,,,,,,,,,,,,,,,,,,,,,,,,,,,,,,,,,,
0,56,56,11,1,,5e58f7ebe74f460f89b26ca9,62bbfab7847cd819c244688b,2022-06-29_09h11.10.673,Colour_Asymmetry_Pilot,2022.1.3,Win32,59.37184587,62bbe60bf3d75ef465d3e404,,,,,,,,,,,,,,,,,,,,,,,,,,,,,,,,,,,,,,,,,,,,,,,,,,,,,,,,,,,,,,,,,,,,,,,,,,,,,,,,,,,,,,,,,,,,,,,,,,,,,,,,,,,,,,,,,,,,,,,,,,,,,,,,,,,,,,,,,,,,,,,,,,,,,,,,,,,,,,
0,57,57,78,1,,5e58f7ebe74f460f89b26ca9,62bbfab7847cd819c244688b,2022-06-29_09h11.10.673,Colour_Asymmetry_Pilot,2022.1.3,Win32,59.37184587,62bbe60bf3d75ef465d3e404,,,,,,,,,,,,,,,,,,,,,,,,,,,,,,,,,,,,,,,,,,,,,,,,,,,,,,,,,,,,,,,,,,,,,,,,,,,,,,,,,,,,,,,,,,,,,,,,,,,,,,,,,,,,,,,,,,,,,,,,,,,,,,,,,,,,,,,,,,,,,,,,,,,,,,,,,,,,,,
0,58,58,24,1,,5e58f7ebe74f460f89b26ca9,62bbfab7847cd819c244688b,2022-06-29_09h11.10.673,Colour_Asymmetry_Pilot,2022.1.3,Win32,59.37184587,62bbe60bf3d75ef465d3e404,,,,,,,,,,,,,,,,,,,,,,,,,,,,,,,,,,,,,,,,,,,,,,,,,,,,,,,,,,,,,,,,,,,,,,,,,,,,,,,,,,,,,,,,,,,,,,,,,,,,,,,,,,,,,,,,,,,,,,,,,,,,,,,,,,,,,,,,,,,,,,,,,,,,,,,,,,,,,,
0,59,59,80,1,,5e58f7ebe74f460f89b26ca9,62bbfab7847cd819c244688b,2022-06-29_09h11.10.673,Colour_Asymmetry_Pilot,2022.1.3,Win32,59.37184587,62bbe60bf3d75ef465d3e404,,,,,,,,,,,,,,,,,,,,,,,,,,,,,,,,,,,,,,,,,,,,,,,,,,,,,,,,,,,,,,,,,,,,,,,,,,,,,,,,,,,,,,,,,,,,,,,,,,,,,,,,,,,,,,,,,,,,,,,,,,,,,,,,,,,,,,,,,,,,,,,,,,,,,,,,,,,,,,
0,60,60,85,1,,5e58f7ebe74f460f89b26ca9,62bbfab7847cd819c244688b,2022-06-29_09h11.10.673,Colour_Asymmetry_Pilot,2022.1.3,Win32,59.37184587,62bbe60bf3d75ef465d3e404,,,,,,,,,,,,,,,,,,,,,,,,,,,,,,,,,,,,,,,,,,,,,,,,,,,,,,,,,,,,,,,,,,,,,,,,,,,,,,,,,,,,,,,,,,,,,,,,,,,,,,,,,,,,,,,,,,,,,,,,,,,,,,,,,,,,,,,,,,,,,,,,,,,,,,,,,,,,,,
0,61,61,16,1,,5e58f7ebe74f460f89b26ca9,62bbfab7847cd819c244688b,2022-06-29_09h11.10.673,Colour_Asymmetry_Pilot,2022.1.3,Win32,59.37184587,62bbe60bf3d75ef465d3e404,,,,,,,,,,,,,,,,,,,,,,,,,,,,,,,,,,,,,,,,,,,,,,,,,,,,,,,,,,,,,,,,,,,,,,,,,,,,,,,,,,,,,,,,,,,,,,,,,,,,,,,,,,,,,,,,,,,,,,,,,,,,,,,,,,,,,,,,,,,,,,,,,,,,,,,,,,,,,,
0,62,62,19,1,,5e58f7ebe74f460f89b26ca9,62bbfab7847cd819c244688b,2022-06-29_09h11.10.673,Colour_Asymmetry_Pilot,2022.1.3,Win32,59.37184587,62bbe60bf3d75ef465d3e404,,,,,,,,,,,,,,,,,,,,,,,,,,,,,,,,,,,,,,,,,,,,,,,,,,,,,,,,,,,,,,,,,,,,,,,,,,,,,,,,,,,,,,,,,,,,,,,,,,,,,,,,,,,,,,,,,,,,,,,,,,,,,,,,,,,,,,,,,,,,,,,,,,,,,,,,,,,,,,
0,63,63,13,1,,5e58f7ebe74f460f89b26ca9,62bbfab7847cd819c244688b,2022-06-29_09h11.10.673,Colour_Asymmetry_Pilot,2022.1.3,Win32,59.37184587,62bbe60bf3d75ef465d3e404,,,,,,,,,,,,,,,,,,,,,,,,,,,,,,,,,,,,,,,,,,,,,,,,,,,,,,,,,,,,,,,,,,,,,,,,,,,,,,,,,,,,,,,,,,,,,,,,,,,,,,,,,,,,,,,,,,,,,,,,,,,,,,,,,,,,,,,,,,,,,,,,,,,,,,,,,,,,,,
0,64,64,43,1,,5e58f7ebe74f460f89b26ca9,62bbfab7847cd819c244688b,2022-06-29_09h11.10.673,Colour_Asymmetry_Pilot,2022.1.3,Win32,59.37184587,62bbe60bf3d75ef465d3e404,,,,,,,,,,,,,,,,,,,,,,,,,,,,,,,,,,,,,,,,,,,,,,,,,,,,,,,,,,,,,,,,,,,,,,,,,,,,,,,,,,,,,,,,,,,,,,,,,,,,,,,,,,,,,,,,,,,,,,,,,,,,,,,,,,,,,,,,,,,,,,,,,,,,,,,,,,,,,,
0,65,65,14,1,,5e58f7ebe74f460f89b26ca9,62bbfab7847cd819c244688b,2022-06-29_09h11.10.673,Colour_Asymmetry_Pilot,2022.1.3,Win32,59.37184587,62bbe60bf3d75ef465d3e404,,,,,,,,,,,,,,,,,,,,,,,,,,,,,,,,,,,,,,,,,,,,,,,,,,,,,,,,,,,,,,,,,,,,,,,,,,,,,,,,,,,,,,,,,,,,,,,,,,,,,,,,,,,,,,,,,,,,,,,,,,,,,,,,,,,,,,,,,,,,,,,,,,,,,,,,,,,,,,
0,66,66,56,1,,5e58f7ebe74f460f89b26ca9,62bbfab7847cd819c244688b,2022-06-29_09h11.10.673,Colour_Asymmetry_Pilot,2022.1.3,Win32,59.37184587,62bbe60bf3d75ef465d3e404,,,,,,,,,,,,,,,,,,,,,,,,,,,,,,,,,,,,,,,,,,,,,,,,,,,,,,,,,,,,,,,,,,,,,,,,,,,,,,,,,,,,,,,,,,,,,,,,,,,,,,,,,,,,,,,,,,,,,,,,,,,,,,,,,,,,,,,,,,,,,,,,,,,,,,,,,,,,,,
0,67,67,89,1,,5e58f7ebe74f460f89b26ca9,62bbfab7847cd819c244688b,2022-06-29_09h11.10.673,Colour_Asymmetry_Pilot,2022.1.3,Win32,59.37184587,62bbe60bf3d75ef465d3e404,,,,,,,,,,,,,,,,,,,,,,,,,,,,,,,,,,,,,,,,,,,,,,,,,,,,,,,,,,,,,,,,,,,,,,,,,,,,,,,,,,,,,,,,,,,,,,,,,,,,,,,,,,,,,,,,,,,,,,,,,,,,,,,,,,,,,,,,,,,,,,,,,,,,,,,,,,,,,,
0,68,68,18,1,,5e58f7ebe74f460f89b26ca9,62bbfab7847cd819c244688b,2022-06-29_09h11.10.673,Colour_Asymmetry_Pilot,2022.1.3,Win32,59.37184587,62bbe60bf3d75ef465d3e404,,,,,,,,,,,,,,,,,,,,,,,,,,,,,,,,,,,,,,,,,,,,,,,,,,,,,,,,,,,,,,,,,,,,,,,,,,,,,,,,,,,,,,,,,,,,,,,,,,,,,,,,,,,,,,,,,,,,,,,,,,,,,,,,,,,,,,,,,,,,,,,,,,,,,,,,,,,,,,
0,69,69,27,1,,5e58f7ebe74f460f89b26ca9,62bbfab7847cd819c244688b,2022-06-29_09h11.10.673,Colour_Asymmetry_Pilot,2022.1.3,Win32,59.37184587,62bbe60bf3d75ef465d3e404,,,,,,,,,,,,,,,,,,,,,,,,,,,,,,,,,,,,,,,,,,,,,,,,,,,,,,,,,,,,,,,,,,,,,,,,,,,,,,,,,,,,,,,,,,,,,,,,,,,,,,,,,,,,,,,,,,,,,,,,,,,,,,,,,,,,,,,,,,,,,,,,,,,,,,,,,,,,,,
0,70,70,2,1,,5e58f7ebe74f460f89b26ca9,62bbfab7847cd819c244688b,2022-06-29_09h11.10.673,Colour_Asymmetry_Pilot,2022.1.3,Win32,59.37184587,62bbe60bf3d75ef465d3e404,,,,,,,,,,,,,,,,,,,,,,,,,,,,,,,,,,,,,,,,,,,,,,,,,,,,,,,,,,,,,,,,,,,,,,,,,,,,,,,,,,,,,,,,,,,,,,,,,,,,,,,,,,,,,,,,,,,,,,,,,,,,,,,,,,,,,,,,,,,,,,,,,,,,,,,,,,,,,,
0,71,71,54,1,,5e58f7ebe74f460f89b26ca9,62bbfab7847cd819c244688b,2022-06-29_09h11.10.673,Colour_Asymmetry_Pilot,2022.1.3,Win32,59.37184587,62bbe60bf3d75ef465d3e404,,,,,,,,,,,,,,,,,,,,,,,,,,,,,,,,,,,,,,,,,,,,,,,,,,,,,,,,,,,,,,,,,,,,,,,,,,,,,,,,,,,,,,,,,,,,,,,,,,,,,,,,,,,,,,,,,,,,,,,,,,,,,,,,,,,,,,,,,,,,,,,,,,,,,,,,,,,,,,
0,72,72,28,1,,5e58f7ebe74f460f89b26ca9,62bbfab7847cd819c244688b,2022-06-29_09h11.10.673,Colour_Asymmetry_Pilot,2022.1.3,Win32,59.37184587,62bbe60bf3d75ef465d3e404,,,,,,,,,,,,,,,,,,,,,,,,,,,,,,,,,,,,,,,,,,,,,,,,,,,,,,,,,,,,,,,,,,,,,,,,,,,,,,,,,,,,,,,,,,,,,,,,,,,,,,,,,,,,,,,,,,,,,,,,,,,,,,,,,,,,,,,,,,,,,,,,,,,,,,,,,,,,,,
0,73,73,64,1,,5e58f7ebe74f460f89b26ca9,62bbfab7847cd819c244688b,2022-06-29_09h11.10.673,Colour_Asymmetry_Pilot,2022.1.3,Win32,59.37184587,62bbe60bf3d75ef465d3e404,,,,,,,,,,,,,,,,,,,,,,,,,,,,,,,,,,,,,,,,,,,,,,,,,,,,,,,,,,,,,,,,,,,,,,,,,,,,,,,,,,,,,,,,,,,,,,,,,,,,,,,,,,,,,,,,,,,,,,,,,,,,,,,,,,,,,,,,,,,,,,,,,,,,,,,,,,,,,,
0,74,74,86,1,,5e58f7ebe74f460f89b26ca9,62bbfab7847cd819c244688b,2022-06-29_09h11.10.673,Colour_Asymmetry_Pilot,2022.1.3,Win32,59.37184587,62bbe60bf3d75ef465d3e404,,,,,,,,,,,,,,,,,,,,,,,,,,,,,,,,,,,,,,,,,,,,,,,,,,,,,,,,,,,,,,,,,,,,,,,,,,,,,,,,,,,,,,,,,,,,,,,,,,,,,,,,,,,,,,,,,,,,,,,,,,,,,,,,,,,,,,,,,,,,,,,,,,,,,,,,,,,,,,
0,75,75,23,1,,5e58f7ebe74f460f89b26ca9,62bbfab7847cd819c244688b,2022-06-29_09h11.10.673,Colour_Asymmetry_Pilot,2022.1.3,Win32,59.37184587,62bbe60bf3d75ef465d3e404,,,,,,,,,,,,,,,,,,,,,,,,,,,,,,,,,,,,,,,,,,,,,,,,,,,,,,,,,,,,,,,,,,,,,,,,,,,,,,,,,,,,,,,,,,,,,,,,,,,,,,,,,,,,,,,,,,,,,,,,,,,,,,,,,,,,,,,,,,,,,,,,,,,,,,,,,,,,,,
0,76,76,73,1,,5e58f7ebe74f460f89b26ca9,62bbfab7847cd819c244688b,2022-06-29_09h11.10.673,Colour_Asymmetry_Pilot,2022.1.3,Win32,59.37184587,62bbe60bf3d75ef465d3e404,,,,,,,,,,,,,,,,,,,,,,,,,,,,,,,,,,,,,,,,,,,,,,,,,,,,,,,,,,,,,,,,,,,,,,,,,,,,,,,,,,,,,,,,,,,,,,,,,,,,,,,,,,,,,,,,,,,,,,,,,,,,,,,,,,,,,,,,,,,,,,,,,,,,,,,,,,,,,,
0,77,77,66,1,,5e58f7ebe74f460f89b26ca9,62bbfab7847cd819c244688b,2022-06-29_09h11.10.673,Colour_Asymmetry_Pilot,2022.1.3,Win32,59.37184587,62bbe60bf3d75ef465d3e404,,,,,,,,,,,,,,,,,,,,,,,,,,,,,,,,,,,,,,,,,,,,,,,,,,,,,,,,,,,,,,,,,,,,,,,,,,,,,,,,,,,,,,,,,,,,,,,,,,,,,,,,,,,,,,,,,,,,,,,,,,,,,,,,,,,,,,,,,,,,,,,,,,,,,,,,,,,,,,
0,78,78,33,1,,5e58f7ebe74f460f89b26ca9,62bbfab7847cd819c244688b,2022-06-29_09h11.10.673,Colour_Asymmetry_Pilot,2022.1.3,Win32,59.37184587,62bbe60bf3d75ef465d3e404,,,,,,,,,,,,,,,,,,,,,,,,,,,,,,,,,,,,,,,,,,,,,,,,,,,,,,,,,,,,,,,,,,,,,,,,,,,,,,,,,,,,,,,,,,,,,,,,,,,,,,,,,,,,,,,,,,,,,,,,,,,,,,,,,,,,,,,,,,,,,,,,,,,,,,,,,,,,,,
0,79,79,65,1,,5e58f7ebe74f460f89b26ca9,62bbfab7847cd819c244688b,2022-06-29_09h11.10.673,Colour_Asymmetry_Pilot,2022.1.3,Win32,59.37184587,62bbe60bf3d75ef465d3e404,,,,,,,,,,,,,,,,,,,,,,,,,,,,,,,,,,,,,,,,,,,,,,,,,,,,,,,,,,,,,,,,,,,,,,,,,,,,,,,,,,,,,,,,,,,,,,,,,,,,,,,,,,,,,,,,,,,,,,,,,,,,,,,,,,,,,,,,,,,,,,,,,,,,,,,,,,,,,,
0,80,80,49,1,,5e58f7ebe74f460f89b26ca9,62bbfab7847cd819c244688b,2022-06-29_09h11.10.673,Colour_Asymmetry_Pilot,2022.1.3,Win32,59.37184587,62bbe60bf3d75ef465d3e404,,,,,,,,,,,,,,,,,,,,,,,,,,,,,,,,,,,,,,,,,,,,,,,,,,,,,,,,,,,,,,,,,,,,,,,,,,,,,,,,,,,,,,,,,,,,,,,,,,,,,,,,,,,,,,,,,,,,,,,,,,,,,,,,,,,,,,,,,,,,,,,,,,,,,,,,,,,,,,
0,81,81,4,1,,5e58f7ebe74f460f89b26ca9,62bbfab7847cd819c244688b,2022-06-29_09h11.10.673,Colour_Asymmetry_Pilot,2022.1.3,Win32,59.37184587,62bbe60bf3d75ef465d3e404,,,,,,,,,,,,,,,,,,,,,,,,,,,,,,,,,,,,,,,,,,,,,,,,,,,,,,,,,,,,,,,,,,,,,,,,,,,,,,,,,,,,,,,,,,,,,,,,,,,,,,,,,,,,,,,,,,,,,,,,,,,,,,,,,,,,,,,,,,,,,,,,,,,,,,,,,,,,,,
0,82,82,1,1,,5e58f7ebe74f460f89b26ca9,62bbfab7847cd819c244688b,2022-06-29_09h11.10.673,Colour_Asymmetry_Pilot,2022.1.3,Win32,59.37184587,62bbe60bf3d75ef465d3e404,,,,,,,,,,,,,,,,,,,,,,,,,,,,,,,,,,,,,,,,,,,,,,,,,,,,,,,,,,,,,,,,,,,,,,,,,,,,,,,,,,,,,,,,,,,,,,,,,,,,,,,,,,,,,,,,,,,,,,,,,,,,,,,,,,,,,,,,,,,,,,,,,,,,,,,,,,,,,,
0,83,83,74,1,,5e58f7ebe74f460f89b26ca9,62bbfab7847cd819c244688b,2022-06-29_09h11.10.673,Colour_Asymmetry_Pilot,2022.1.3,Win32,59.37184587,62bbe60bf3d75ef465d3e404,,,,,,,,,,,,,,,,,,,,,,,,,,,,,,,,,,,,,,,,,,,,,,,,,,,,,,,,,,,,,,,,,,,,,,,,,,,,,,,,,,,,,,,,,,,,,,,,,,,,,,,,,,,,,,,,,,,,,,,,,,,,,,,,,,,,,,,,,,,,,,,,,,,,,,,,,,,,,,
0,84,84,53,1,,5e58f7ebe74f460f89b26ca9,62bbfab7847cd819c244688b,2022-06-29_09h11.10.673,Colour_Asymmetry_Pilot,2022.1.3,Win32,59.37184587,62bbe60bf3d75ef465d3e404,,,,,,,,,,,,,,,,,,,,,,,,,,,,,,,,,,,,,,,,,,,,,,,,,,,,,,,,,,,,,,,,,,,,,,,,,,,,,,,,,,,,,,,,,,,,,,,,,,,,,,,,,,,,,,,,,,,,,,,,,,,,,,,,,,,,,,,,,,,,,,,,,,,,,,,,,,,,,,
0,85,85,0,1,,5e58f7ebe74f460f89b26ca9,62bbfab7847cd819c244688b,2022-06-29_09h11.10.673,Colour_Asymmetry_Pilot,2022.1.3,Win32,59.37184587,62bbe60bf3d75ef465d3e404,,,,,,,,,,,,,,,,,,,,,,,,,,,,,,,,,,,,,,,,,,,,,,,,,,,,,,,,,,,,,,,,,,,,,,,,,,,,,,,,,,,,,,,,,,,,,,,,,,,,,,,,,,,,,,,,,,,,,,,,,,,,,,,,,,,,,,,,,,,,,,,,,,,,,,,,,,,,,,
0,86,86,69,1,,5e58f7ebe74f460f89b26ca9,62bbfab7847cd819c244688b,2022-06-29_09h11.10.673,Colour_Asymmetry_Pilot,2022.1.3,Win32,59.37184587,62bbe60bf3d75ef465d3e404,,,,,,,,,,,,,,,,,,,,,,,,,,,,,,,,,,,,,,,,,,,,,,,,,,,,,,,,,,,,,,,,,,,,,,,,,,,,,,,,,,,,,,,,,,,,,,,,,,,,,,,,,,,,,,,,,,,,,,,,,,,,,,,,,,,,,,,,,,,,,,,,,,,,,,,,,,,,,,
0,87,87,83,1,,5e58f7ebe74f460f89b26ca9,62bbfab7847cd819c244688b,2022-06-29_09h11.10.673,Colour_Asymmetry_Pilot,2022.1.3,Win32,59.37184587,62bbe60bf3d75ef465d3e404,,,,,,,,,,,,,,,,,,,,,,,,,,,,,,,,,,,,,,,,,,,,,,,,,,,,,,,,,,,,,,,,,,,,,,,,,,,,,,,,,,,,,,,,,,,,,,,,,,,,,,,,,,,,,,,,,,,,,,,,,,,,,,,,,,,,,,,,,,,,,,,,,,,,,,,,,,,,,,
0,88,88,44,1,,5e58f7ebe74f460f89b26ca9,62bbfab7847cd819c244688b,2022-06-29_09h11.10.673,Colour_Asymmetry_Pilot,2022.1.3,Win32,59.37184587,62bbe60bf3d75ef465d3e404,,,,,,,,,,,,,,,,,,,,,,,,,,,,,,,,,,,,,,,,,,,,,,,,,,,,,,,,,,,,,,,,,,,,,,,,,,,,,,,,,,,,,,,,,,,,,,,,,,,,,,,,,,,,,,,,,,,,,,,,,,,,,,,,,,,,,,,,,,,,,,,,,,,,,,,,,,,,,,
0,89,89,7,1,,5e58f7ebe74f460f89b26ca9,62bbfab7847cd819c244688b,2022-06-29_09h11.10.673,Colour_Asymmetry_Pilot,2022.1.3,Win32,59.37184587,62bbe60bf3d75ef465d3e404,,,,,,,,,,,,,,,,,,,,,,,,,,,,,,,,,,,,,,,,,,,,,,,,,,,,,,,,,,,,,,,,,,,,,,,,,,,,,,,,,,,,,,,,,,,,,,,,,,,,,,,,,,,,,,,,,,,,,,,,,,,,,,,,,,,,,,,,,,,,,,,,,,,,,,,,,,,,,,
0,90,90,12,1,,5e58f7ebe74f460f89b26ca9,62bbfab7847cd819c244688b,2022-06-29_09h11.10.673,Colour_Asymmetry_Pilot,2022.1.3,Win32,59.37184587,62bbe60bf3d75ef465d3e404,,,,,,,,,,,,,,,,,,,,,,,,,,,,,,,,,,,,,,,,,,,,,,,,,,,,,,,,,,,,,,,,,,,,,,,,,,,,,,,,,,,,,,,,,,,,,,,,,,,,,,,,,,,,,,,,,,,,,,,,,,,,,,,,,,,,,,,,,,,,,,,,,,,,,,,,,,,,,,
0,91,91,79,1,,5e58f7ebe74f460f89b26ca9,62bbfab7847cd819c244688b,2022-06-29_09h11.10.673,Colour_Asymmetry_Pilot,2022.1.3,Win32,59.37184587,62bbe60bf3d75ef465d3e404,,,,,,,,,,,,,,,,,,,,,,,,,,,,,,,,,,,,,,,,,,,,,,,,,,,,,,,,,,,,,,,,,,,,,,,,,,,,,,,,,,,,,,,,,,,,,,,,,,,,,,,,,,,,,,,,,,,,,,,,,,,,,,,,,,,,,,,,,,,,,,,,,,,,,,,,,,,,,,
0,92,92,61,1,,5e58f7ebe74f460f89b26ca9,62bbfab7847cd819c244688b,2022-06-29_09h11.10.673,Colour_Asymmetry_Pilot,2022.1.3,Win32,59.37184587,62bbe60bf3d75ef465d3e404,,,,,,,,,,,,,,,,,,,,,,,,,,,,,,,,,,,,,,,,,,,,,,,,,,,,,,,,,,,,,,,,,,,,,,,,,,,,,,,,,,,,,,,,,,,,,,,,,,,,,,,,,,,,,,,,,,,,,,,,,,,,,,,,,,,,,,,,,,,,,,,,,,,,,,,,,,,,,,
,,,,,,5e58f7ebe74f460f89b26ca9,62bbfab7847cd819c244688b,2022-06-29_09h11.10.673,Colour_Asymmetry_Pilot,2022.1.3,Win32,59.37184587,62bbe60bf3d75ef465d3e404,0,0,0,73,1,onethree,,,,,,,,,,,,,,,,,,,,,,,,,,,,,,,,,,,,,,,,,,,,,,,,,,,,,,,,,,,,,,,,,,,,,,,,,,,,,,,,,,,,,,,,,,,,,,,,,,,,,,,,,,,,,,,,,,,,,,,,,,,,,,,,,,,,,,,,,,,,,,,,,,,,,,,,
,,,,,,5e58f7ebe74f460f89b26ca9,62bbfab7847cd819c244688b,2022-06-29_09h11.10.673,Colour_Asymmetry_Pilot,2022.1.3,Win32,59.37184587,62bbe60bf3d75ef465d3e404,0,1,1,21,1,threefour,,,,,,,,,,,,,,,,,,,,,,,,,,,,,,,,,,,,,,,,,,,,,,,,,,,,,,,,,,,,,,,,,,,,,,,,,,,,,,,,,,,,,,,,,,,,,,,,,,,,,,,,,,,,,,,,,,,,,,,,,,,,,,,,,,,,,,,,,,,,,,,,,,,,,,,,
,,,,,,5e58f7ebe74f460f89b26ca9,62bbfab7847cd819c244688b,2022-06-29_09h11.10.673,Colour_Asymmetry_Pilot,2022.1.3,Win32,59.37184587,62bbe60bf3d75ef465d3e404,0,2,2,160,1,onetwo,,,,,,,,,,,,,,,,,,,,,,,,,,,,,,,,,,,,,,,,,,,,,,,,,,,,,,,,,,,,,,,,,,,,,,,,,,,,,,,,,,,,,,,,,,,,,,,,,,,,,,,,,,,,,,,,,,,,,,,,,,,,,,,,,,,,,,,,,,,,,,,,,,,,,,,,
,,,,,,5e58f7ebe74f460f89b26ca9,62bbfab7847cd819c244688b,2022-06-29_09h11.10.673,Colour_Asymmetry_Pilot,2022.1.3,Win32,59.37184587,62bbe60bf3d75ef465d3e404,0,3,3,69,1,threefour,,,,,,,,,,,,,,,,,,,,,,,,,,,,,,,,,,,,,,,,,,,,,,,,,,,,,,,,,,,,,,,,,,,,,,,,,,,,,,,,,,,,,,,,,,,,,,,,,,,,,,,,,,,,,,,,,,,,,,,,,,,,,,,,,,,,,,,,,,,,,,,,,,,,,,,,
,,,,,,5e58f7ebe74f460f89b26ca9,62bbfab7847cd819c244688b,2022-06-29_09h11.10.673,Colour_Asymmetry_Pilot,2022.1.3,Win32,59.37184587,62bbe60bf3d75ef465d3e404,0,4,4,97,1,onethree,,,,,,,,,,,,,,,,,,,,,,,,,,,,,,,,,,,,,,,,,,,,,,,,,,,,,,,,,,,,,,,,,,,,,,,,,,,,,,,,,,,,,,,,,,,,,,,,,,,,,,,,,,,,,,,,,,,,,,,,,,,,,,,,,,,,,,,,,,,,,,,,,,,,,,,,
,,,,,,5e58f7ebe74f460f89b26ca9,62bbfab7847cd819c244688b,2022-06-29_09h11.10.673,Colour_Asymmetry_Pilot,2022.1.3,Win32,59.37184587,62bbe60bf3d75ef465d3e404,0,5,5,113,1,onethree,,,,,,,,,,,,,,,,,,,,,,,,,,,,,,,,,,,,,,,,,,,,,,,,,,,,,,,,,,,,,,,,,,,,,,,,,,,,,,,,,,,,,,,,,,,,,,,,,,,,,,,,,,,,,,,,,,,,,,,,,,,,,,,,,,,,,,,,,,,,,,,,,,,,,,,,
,,,,,,5e58f7ebe74f460f89b26ca9,62bbfab7847cd819c244688b,2022-06-29_09h11.10.673,Colour_Asymmetry_Pilot,2022.1.3,Win32,59.37184587,62bbe60bf3d75ef465d3e404,0,6,6,19,1,twofour,,,,,,,,,,,,,,,,,,,,,,,,,,,,,,,,,,,,,,,,,,,,,,,,,,,,,,,,,,,,,,,,,,,,,,,,,,,,,,,,,,,,,,,,,,,,,,,,,,,,,,,,,,,,,,,,,,,,,,,,,,,,,,,,,,,,,,,,,,,,,,,,,,,,,,,,
,,,,,,5e58f7ebe74f460f89b26ca9,62bbfab7847cd819c244688b,2022-06-29_09h11.10.673,Colour_Asymmetry_Pilot,2022.1.3,Win32,59.37184587,62bbe60bf3d75ef465d3e404,0,7,7,67,1,twofour,,,,,,,,,,,,,,,,,,,,,,,,,,,,,,,,,,,,,,,,,,,,,,,,,,,,,,,,,,,,,,,,,,,,,,,,,,,,,,,,,,,,,,,,,,,,,,,,,,,,,,,,,,,,,,,,,,,,,,,,,,,,,,,,,,,,,,,,,,,,,,,,,,,,,,,,
,,,,,,5e58f7ebe74f460f89b26ca9,62bbfab7847cd819c244688b,2022-06-29_09h11.10.673,Colour_Asymmetry_Pilot,2022.1.3,Win32,59.37184587,62bbe60bf3d75ef465d3e404,0,8,8,102,1,fourtwo,,,,,,,,,,,,,,,,,,,,,,,,,,,,,,,,,,,,,,,,,,,,,,,,,,,,,,,,,,,,,,,,,,,,,,,,,,,,,,,,,,,,,,,,,,,,,,,,,,,,,,,,,,,,,,,,,,,,,,,,,,,,,,,,,,,,,,,,,,,,,,,,,,,,,,,,
,,,,,,5e58f7ebe74f460f89b26ca9,62bbfab7847cd819c244688b,2022-06-29_09h11.10.673,Colour_Asymmetry_Pilot,2022.1.3,Win32,59.37184587,62bbe60bf3d75ef465d3e404,0,9,9,79,1,fourthree,,,,,,,,,,,,,,,,,,,,,,,,,,,,,,,,,,,,,,,,,,,,,,,,,,,,,,,,,,,,,,,,,,,,,,,,,,,,,,,,,,,,,,,,,,,,,,,,,,,,,,,,,,,,,,,,,,,,,,,,,,,,,,,,,,,,,,,,,,,,,,,,,,,,,,,,
,,,,,,5e58f7ebe74f460f89b26ca9,62bbfab7847cd819c244688b,2022-06-29_09h11.10.673,Colour_Asymmetry_Pilot,2022.1.3,Win32,59.37184587,62bbe60bf3d75ef465d3e404,0,10,10,83,1,twofour,,,,,,,,,,,,,,,,,,,,,,,,,,,,,,,,,,,,,,,,,,,,,,,,,,,,,,,,,,,,,,,,,,,,,,,,,,,,,,,,,,,,,,,,,,,,,,,,,,,,,,,,,,,,,,,,,,,,,,,,,,,,,,,,,,,,,,,,,,,,,,,,,,,,,,,,
,,,,,,5e58f7ebe74f460f89b26ca9,62bbfab7847cd819c244688b,2022-06-29_09h11.10.673,Colour_Asymmetry_Pilot,2022.1.3,Win32,59.37184587,62bbe60bf3d75ef465d3e404,0,11,11,101,1,threefour,,,,,,,,,,,,,,,,,,,,,,,,,,,,,,,,,,,,,,,,,,,,,,,,,,,,,,,,,,,,,,,,,,,,,,,,,,,,,,,,,,,,,,,,,,,,,,,,,,,,,,,,,,,,,,,,,,,,,,,,,,,,,,,,,,,,,,,,,,,,,,,,,,,,,,,,
,,,,,,5e58f7ebe74f460f89b26ca9,62bbfab7847cd819c244688b,2022-06-29_09h11.10.673,Colour_Asymmetry_Pilot,2022.1.3,Win32,59.37184587,62bbe60bf3d75ef465d3e404,0,12,12,51,1,twofour,,,,,,,,,,,,,,,,,,,,,,,,,,,,,,,,,,,,,,,,,,,,,,,,,,,,,,,,,,,,,,,,,,,,,,,,,,,,,,,,,,,,,,,,,,,,,,,,,,,,,,,,,,,,,,,,,,,,,,,,,,,,,,,,,,,,,,,,,,,,,,,,,,,,,,,,
,,,,,,5e58f7ebe74f460f89b26ca9,62bbfab7847cd819c244688b,2022-06-29_09h11.10.673,Colour_Asymmetry_Pilot,2022.1.3,Win32,59.37184587,62bbe60bf3d75ef465d3e404,0,13,13,143,1,fourthree,,,,,,,,,,,,,,,,,,,,,,,,,,,,,,,,,,,,,,,,,,,,,,,,,,,,,,,,,,,,,,,,,,,,,,,,,,,,,,,,,,,,,,,,,,,,,,,,,,,,,,,,,,,,,,,,,,,,,,,,,,,,,,,,,,,,,,,,,,,,,,,,,,,,,,,,
,,,,,,5e58f7ebe74f460f89b26ca9,62bbfab7847cd819c244688b,2022-06-29_09h11.10.673,Colour_Asymmetry_Pilot,2022.1.3,Win32,59.37184587,62bbe60bf3d75ef465d3e404,0,14,14,150,1,fourtwo,,,,,,,,,,,,,,,,,,,,,,,,,,,,,,,,,,,,,,,,,,,,,,,,,,,,,,,,,,,,,,,,,,,,,,,,,,,,,,,,,,,,,,,,,,,,,,,,,,,,,,,,,,,,,,,,,,,,,,,,,,,,,,,,,,,,,,,,,,,,,,,,,,,,,,,,
,,,,,,5e58f7ebe74f460f89b26ca9,62bbfab7847cd819c244688b,2022-06-29_09h11.10.673,Colour_Asymmetry_Pilot,2022.1.3,Win32,59.37184587,62bbe60bf3d75ef465d3e404,0,15,15,5,1,threefour,,,,,,,,,,,,,,,,,,,,,,,,,,,,,,,,,,,,,,,,,,,,,,,,,,,,,,,,,,,,,,,,,,,,,,,,,,,,,,,,,,,,,,,,,,,,,,,,,,,,,,,,,,,,,,,,,,,,,,,,,,,,,,,,,,,,,,,,,,,,,,,,,,,,,,,,
,,,,,,5e58f7ebe74f460f89b26ca9,62bbfab7847cd819c244688b,2022-06-29_09h11.10.673,Colour_Asymmetry_Pilot,2022.1.3,Win32,59.37184587,62bbe60bf3d75ef465d3e404,0,16,16,145,1,onethree,,,,,,,,,,,,,,,,,,,,,,,,,,,,,,,,,,,,,,,,,,,,,,,,,,,,,,,,,,,,,,,,,,,,,,,,,,,,,,,,,,,,,,,,,,,,,,,,,,,,,,,,,,,,,,,,,,,,,,,,,,,,,,,,,,,,,,,,,,,,,,,,,,,,,,,,
,,,,,,5e58f7ebe74f460f89b26ca9,62bbfab7847cd819c244688b,2022-06-29_09h11.10.673,Colour_Asymmetry_Pilot,2022.1.3,Win32,59.37184587,62bbe60bf3d75ef465d3e404,0,17,17,139,1,twofour,,,,,,,,,,,,,,,,,,,,,,,,,,,,,,,,,,,,,,,,,,,,,,,,,,,,,,,,,,,,,,,,,,,,,,,,,,,,,,,,,,,,,,,,,,,,,,,,,,,,,,,,,,,,,,,,,,,,,,,,,,,,,,,,,,,,,,,,,,,,,,,,,,,,,,,,
,,,,,,5e58f7ebe74f460f89b26ca9,62bbfab7847cd819c244688b,2022-06-29_09h11.10.673,Colour_Asymmetry_Pilot,2022.1.3,Win32,59.37184587,62bbe60bf3d75ef465d3e404,0,18,18,32,1,onetwo,,,,,,,,,,,,,,,,,,,,,,,,,,,,,,,,,,,,,,,,,,,,,,,,,,,,,,,,,,,,,,,,,,,,,,,,,,,,,,,,,,,,,,,,,,,,,,,,,,,,,,,,,,,,,,,,,,,,,,,,,,,,,,,,,,,,,,,,,,,,,,,,,,,,,,,,
,,,,,,5e58f7ebe74f460f89b26ca9,62bbfab7847cd819c244688b,2022-06-29_09h11.10.673,Colour_Asymmetry_Pilot,2022.1.3,Win32,59.37184587,62bbe60bf3d75ef465d3e404,0,19,19,75,1,twofour,,,,,,,,,,,,,,,,,,,,,,,,,,,,,,,,,,,,,,,,,,,,,,,,,,,,,,,,,,,,,,,,,,,,,,,,,,,,,,,,,,,,,,,,,,,,,,,,,,,,,,,,,,,,,,,,,,,,,,,,,,,,,,,,,,,,,,,,,,,,,,,,,,,,,,,,
,,,,,,5e58f7ebe74f460f89b26ca9,62bbfab7847cd819c244688b,2022-06-29_09h11.10.673,Colour_Asymmetry_Pilot,2022.1.3,Win32,59.37184587,62bbe60bf3d75ef465d3e404,0,20,20,137,1,onethree,,,,,,,,,,,,,,,,,,,,,,,,,,,,,,,,,,,,,,,,,,,,,,,,,,,,,,,,,,,,,,,,,,,,,,,,,,,,,,,,,,,,,,,,,,,,,,,,,,,,,,,,,,,,,,,,,,,,,,,,,,,,,,,,,,,,,,,,,,,,,,,,,,,,,,,,
,,,,,,5e58f7ebe74f460f89b26ca9,62bbfab7847cd819c244688b,2022-06-29_09h11.10.673,Colour_Asymmetry_Pilot,2022.1.3,Win32,59.37184587,62bbe60bf3d75ef465d3e404,0,21,21,152,1,onetwo,,,,,,,,,,,,,,,,,,,,,,,,,,,,,,,,,,,,,,,,,,,,,,,,,,,,,,,,,,,,,,,,,,,,,,,,,,,,,,,,,,,,,,,,,,,,,,,,,,,,,,,,,,,,,,,,,,,,,,,,,,,,,,,,,,,,,,,,,,,,,,,,,,,,,,,,
,,,,,,5e58f7ebe74f460f89b26ca9,62bbfab7847cd819c244688b,2022-06-29_09h11.10.673,Colour_Asymmetry_Pilot,2022.1.3,Win32,59.37184587,62bbe60bf3d75ef465d3e404,0,22,22,122,1,twoone,,,,,,,,,,,,,,,,,,,,,,,,,,,,,,,,,,,,,,,,,,,,,,,,,,,,,,,,,,,,,,,,,,,,,,,,,,,,,,,,,,,,,,,,,,,,,,,,,,,,,,,,,,,,,,,,,,,,,,,,,,,,,,,,,,,,,,,,,,,,,,,,,,,,,,,,
,,,,,,5e58f7ebe74f460f89b26ca9,62bbfab7847cd819c244688b,2022-06-29_09h11.10.673,Colour_Asymmetry_Pilot,2022.1.3,Win32,59.37184587,62bbe60bf3d75ef465d3e404,0,23,23,86,1,fourtwo,,,,,,,,,,,,,,,,,,,,,,,,,,,,,,,,,,,,,,,,,,,,,,,,,,,,,,,,,,,,,,,,,,,,,,,,,,,,,,,,,,,,,,,,,,,,,,,,,,,,,,,,,,,,,,,,,,,,,,,,,,,,,,,,,,,,,,,,,,,,,,,,,,,,,,,,
,,,,,,5e58f7ebe74f460f89b26ca9,62bbfab7847cd819c244688b,2022-06-29_09h11.10.673,Colour_Asymmetry_Pilot,2022.1.3,Win32,59.37184587,62bbe60bf3d75ef465d3e404,0,24,24,40,1,onetwo,,,,,,,,,,,,,,,,,,,,,,,,,,,,,,,,,,,,,,,,,,,,,,,,,,,,,,,,,,,,,,,,,,,,,,,,,,,,,,,,,,,,,,,,,,,,,,,,,,,,,,,,,,,,,,,,,,,,,,,,,,,,,,,,,,,,,,,,,,,,,,,,,,,,,,,,
,,,,,,5e58f7ebe74f460f89b26ca9,62bbfab7847cd819c244688b,2022-06-29_09h11.10.673,Colour_Asymmetry_Pilot,2022.1.3,Win32,59.37184587,62bbe60bf3d75ef465d3e404,0,25,25,112,1,onetwo,,,,,,,,,,,,,,,,,,,,,,,,,,,,,,,,,,,,,,,,,,,,,,,,,,,,,,,,,,,,,,,,,,,,,,,,,,,,,,,,,,,,,,,,,,,,,,,,,,,,,,,,,,,,,,,,,,,,,,,,,,,,,,,,,,,,,,,,,,,,,,,,,,,,,,,,
,,,,,,5e58f7ebe74f460f89b26ca9,62bbfab7847cd819c244688b,2022-06-29_09h11.10.673,Colour_Asymmetry_Pilot,2022.1.3,Win32,59.37184587,62bbe60bf3d75ef465d3e404,0,26,26,99,1,twofour,,,,,,,,,,,,,,,,,,,,,,,,,,,,,,,,,,,,,,,,,,,,,,,,,,,,,,,,,,,,,,,,,,,,,,,,,,,,,,,,,,,,,,,,,,,,,,,,,,,,,,,,,,,,,,,,,,,,,,,,,,,,,,,,,,,,,,,,,,,,,,,,,,,,,,,,
,,,,,,5e58f7ebe74f460f89b26ca9,62bbfab7847cd819c244688b,2022-06-29_09h11.10.673,Colour_Asymmetry_Pilot,2022.1.3,Win32,59.37184587,62bbe60bf3d75ef465d3e404,0,27,27,3,1,twofour,,,,,,,,,,,,,,,,,,,,,,,,,,,,,,,,,,,,,,,,,,,,,,,,,,,,,,,,,,,,,,,,,,,,,,,,,,,,,,,,,,,,,,,,,,,,,,,,,,,,,,,,,,,,,,,,,,,,,,,,,,,,,,,,,,,,,,,,,,,,,,,,,,,,,,,,
,,,,,,5e58f7ebe74f460f89b26ca9,62bbfab7847cd819c244688b,2022-06-29_09h11.10.673,Colour_Asymmetry_Pilot,2022.1.3,Win32,59.37184587,62bbe60bf3d75ef465d3e404,0,28,28,26,1,twoone,,,,,,,,,,,,,,,,,,,,,,,,,,,,,,,,,,,,,,,,,,,,,,,,,,,,,,,,,,,,,,,,,,,,,,,,,,,,,,,,,,,,,,,,,,,,,,,,,,,,,,,,,,,,,,,,,,,,,,,,,,,,,,,,,,,,,,,,,,,,,,,,,,,,,,,,
,,,,,,5e58f7ebe74f460f89b26ca9,62bbfab7847cd819c244688b,2022-06-29_09h11.10.673,Colour_Asymmetry_Pilot,2022.1.3,Win32,59.37184587,62bbe60bf3d75ef465d3e404,0,29,29,61,1,threefour,,,,,,,,,,,,,,,,,,,,,,,,,,,,,,,,,,,,,,,,,,,,,,,,,,,,,,,,,,,,,,,,,,,,,,,,,,,,,,,,,,,,,,,,,,,,,,,,,,,,,,,,,,,,,,,,,,,,,,,,,,,,,,,,,,,,,,,,,,,,,,,,,,,,,,,,
,,,,,,5e58f7ebe74f460f89b26ca9,62bbfab7847cd819c244688b,2022-06-29_09h11.10.673,Colour_Asymmetry_Pilot,2022.1.3,Win32,59.37184587,62bbe60bf3d75ef465d3e404,0,30,30,27,1,twofour,,,,,,,,,,,,,,,,,,,,,,,,,,,,,,,,,,,,,,,,,,,,,,,,,,,,,,,,,,,,,,,,,,,,,,,,,,,,,,,,,,,,,,,,,,,,,,,,,,,,,,,,,,,,,,,,,,,,,,,,,,,,,,,,,,,,,,,,,,,,,,,,,,,,,,,,
,,,,,,5e58f7ebe74f460f89b26ca9,62bbfab7847cd819c244688b,2022-06-29_09h11.10.673,Colour_Asymmetry_Pilot,2022.1.3,Win32,59.37184587,62bbe60bf3d75ef465d3e404,0,31,31,6,1,fourtwo,,,,,,,,,,,,,,,,,,,,,,,,,,,,,,,,,,,,,,,,,,,,,,,,,,,,,,,,,,,,,,,,,,,,,,,,,,,,,,,,,,,,,,,,,,,,,,,,,,,,,,,,,,,,,,,,,,,,,,,,,,,,,,,,,,,,,,,,,,,,,,,,,,,,,,,,
,,,,,,5e58f7ebe74f460f89b26ca9,62bbfab7847cd819c244688b,2022-06-29_09h11.10.673,Colour_Asymmetry_Pilot,2022.1.3,Win32,59.37184587,62bbe60bf3d75ef465d3e404,0,32,32,11,1,twofour,,,,,,,,,,,,,,,,,,,,,,,,,,,,,,,,,,,,,,,,,,,,,,,,,,,,,,,,,,,,,,,,,,,,,,,,,,,,,,,,,,,,,,,,,,,,,,,,,,,,,,,,,,,,,,,,,,,,,,,,,,,,,,,,,,,,,,,,,,,,,,,,,,,,,,,,
,,,,,,5e58f7ebe74f460f89b26ca9,62bbfab7847cd819c244688b,2022-06-29_09h11.10.673,Colour_Asymmetry_Pilot,2022.1.3,Win32,59.37184587,62bbe60bf3d75ef465d3e404,0,33,33,60,1,threeone,,,,,,,,,,,,,,,,,,,,,,,,,,,,,,,,,,,,,,,,,,,,,,,,,,,,,,,,,,,,,,,,,,,,,,,,,,,,,,,,,,,,,,,,,,,,,,,,,,,,,,,,,,,,,,,,,,,,,,,,,,,,,,,,,,,,,,,,,,,,,,,,,,,,,,,,
,,,,,,5e58f7ebe74f460f89b26ca9,62bbfab7847cd819c244688b,2022-06-29_09h11.10.673,Colour_Asymmetry_Pilot,2022.1.3,Win32,59.37184587,62bbe60bf3d75ef465d3e404,0,34,34,144,1,onetwo,,,,,,,,,,,,,,,,,,,,,,,,,,,,,,,,,,,,,,,,,,,,,,,,,,,,,,,,,,,,,,,,,,,,,,,,,,,,,,,,,,,,,,,,,,,,,,,,,,,,,,,,,,,,,,,,,,,,,,,,,,,,,,,,,,,,,,,,,,,,,,,,,,,,,,,,
,,,,,,5e58f7ebe74f460f89b26ca9,62bbfab7847cd819c244688b,2022-06-29_09h11.10.673,Colour_Asymmetry_Pilot,2022.1.3,Win32,59.37184587,62bbe60bf3d75ef465d3e404,0,35,35,36,1,threeone,,,,,,,,,,,,,,,,,,,,,,,,,,,,,,,,,,,,,,,,,,,,,,,,,,,,,,,,,,,,,,,,,,,,,,,,,,,,,,,,,,,,,,,,,,,,,,,,,,,,,,,,,,,,,,,,,,,,,,,,,,,,,,,,,,,,,,,,,,,,,,,,,,,,,,,,
,,,,,,5e58f7ebe74f460f89b26ca9,62bbfab7847cd819c244688b,2022-06-29_09h11.10.673,Colour_Asymmetry_Pilot,2022.1.3,Win32,59.37184587,62bbe60bf3d75ef465d3e404,0,36,36,88,1,onetwo,,,,,,,,,,,,,,,,,,,,,,,,,,,,,,,,,,,,,,,,,,,,,,,,,,,,,,,,,,,,,,,,,,,,,,,,,,,,,,,,,,,,,,,,,,,,,,,,,,,,,,,,,,,,,,,,,,,,,,,,,,,,,,,,,,,,,,,,,,,,,,,,,,,,,,,,
,,,,,,5e58f7ebe74f460f89b26ca9,62bbfab7847cd819c244688b,2022-06-29_09h11.10.673,Colour_Asymmetry_Pilot,2022.1.3,Win32,59.37184587,62bbe60bf3d75ef465d3e404,0,37,37,57,1,onethree,,,,,,,,,,,,,,,,,,,,,,,,,,,,,,,,,,,,,,,,,,,,,,,,,,,,,,,,,,,,,,,,,,,,,,,,,,,,,,,,,,,,,,,,,,,,,,,,,,,,,,,,,,,,,,,,,,,,,,,,,,,,,,,,,,,,,,,,,,,,,,,,,,,,,,,,
,,,,,,5e58f7ebe74f460f89b26ca9,62bbfab7847cd819c244688b,2022-06-29_09h11.10.673,Colour_Asymmetry_Pilot,2022.1.3,Win32,59.37184587,62bbe60bf3d75ef465d3e404,0,38,38,52,1,threeone,,,,,,,,,,,,,,,,,,,,,,,,,,,,,,,,,,,,,,,,,,,,,,,,,,,,,,,,,,,,,,,,,,,,,,,,,,,,,,,,,,,,,,,,,,,,,,,,,,,,,,,,,,,,,,,,,,,,,,,,,,,,,,,,,,,,,,,,,,,,,,,,,,,,,,,,
,,,,,,5e58f7ebe74f460f89b26ca9,62bbfab7847cd819c244688b,2022-06-29_09h11.10.673,Colour_Asymmetry_Pilot,2022.1.3,Win32,59.37184587,62bbe60bf3d75ef465d3e404,0,39,39,133,1,threefour,,,,,,,,,,,,,,,,,,,,,,,,,,,,,,,,,,,,,,,,,,,,,,,,,,,,,,,,,,,,,,,,,,,,,,,,,,,,,,,,,,,,,,,,,,,,,,,,,,,,,,,,,,,,,,,,,,,,,,,,,,,,,,,,,,,,,,,,,,,,,,,,,,,,,,,,
,,,,,,5e58f7ebe74f460f89b26ca9,62bbfab7847cd819c244688b,2022-06-29_09h11.10.673,Colour_Asymmetry_Pilot,2022.1.3,Win32,59.37184587,62bbe60bf3d75ef465d3e404,0,40,40,148,1,threeone,,,,,,,,,,,,,,,,,,,,,,,,,,,,,,,,,,,,,,,,,,,,,,,,,,,,,,,,,,,,,,,,,,,,,,,,,,,,,,,,,,,,,,,,,,,,,,,,,,,,,,,,,,,,,,,,,,,,,,,,,,,,,,,,,,,,,,,,,,,,,,,,,,,,,,,,
,,,,,,5e58f7ebe74f460f89b26ca9,62bbfab7847cd819c244688b,2022-06-29_09h11.10.673,Colour_Asymmetry_Pilot,2022.1.3,Win32,59.37184587,62bbe60bf3d75ef465d3e404,0,41,41,29,1,threefour,,,,,,,,,,,,,,,,,,,,,,,,,,,,,,,,,,,,,,,,,,,,,,,,,,,,,,,,,,,,,,,,,,,,,,,,,,,,,,,,,,,,,,,,,,,,,,,,,,,,,,,,,,,,,,,,,,,,,,,,,,,,,,,,,,,,,,,,,,,,,,,,,,,,,,,,
,,,,,,5e58f7ebe74f460f89b26ca9,62bbfab7847cd819c244688b,2022-06-29_09h11.10.673,Colour_Asymmetry_Pilot,2022.1.3,Win32,59.37184587,62bbe60bf3d75ef465d3e404,0,42,42,111,1,fourthree,,,,,,,,,,,,,,,,,,,,,,,,,,,,,,,,,,,,,,,,,,,,,,,,,,,,,,,,,,,,,,,,,,,,,,,,,,,,,,,,,,,,,,,,,,,,,,,,,,,,,,,,,,,,,,,,,,,,,,,,,,,,,,,,,,,,,,,,,,,,,,,,,,,,,,,,
,,,,,,5e58f7ebe74f460f89b26ca9,62bbfab7847cd819c244688b,2022-06-29_09h11.10.673,Colour_Asymmetry_Pilot,2022.1.3,Win32,59.37184587,62bbe60bf3d75ef465d3e404,0,43,43,31,1,fourthree,,,,,,,,,,,,,,,,,,,,,,,,,,,,,,,,,,,,,,,,,,,,,,,,,,,,,,,,,,,,,,,,,,,,,,,,,,,,,,,,,,,,,,,,,,,,,,,,,,,,,,,,,,,,,,,,,,,,,,,,,,,,,,,,,,,,,,,,,,,,,,,,,,,,,,,,
,,,,,,5e58f7ebe74f460f89b26ca9,62bbfab7847cd819c244688b,2022-06-29_09h11.10.673,Colour_Asymmetry_Pilot,2022.1.3,Win32,59.37184587,62bbe60bf3d75ef465d3e404,0,44,44,54,1,fourtwo,,,,,,,,,,,,,,,,,,,,,,,,,,,,,,,,,,,,,,,,,,,,,,,,,,,,,,,,,,,,,,,,,,,,,,,,,,,,,,,,,,,,,,,,,,,,,,,,,,,,,,,,,,,,,,,,,,,,,,,,,,,,,,,,,,,,,,,,,,,,,,,,,,,,,,,,
,,,,,,5e58f7ebe74f460f89b26ca9,62bbfab7847cd819c244688b,2022-06-29_09h11.10.673,Colour_Asymmetry_Pilot,2022.1.3,Win32,59.37184587,62bbe60bf3d75ef465d3e404,0,45,45,33,1,onethree,,,,,,,,,,,,,,,,,,,,,,,,,,,,,,,,,,,,,,,,,,,,,,,,,,,,,,,,,,,,,,,,,,,,,,,,,,,,,,,,,,,,,,,,,,,,,,,,,,,,,,,,,,,,,,,,,,,,,,,,,,,,,,,,,,,,,,,,,,,,,,,,,,,,,,,,
,,,,,,5e58f7ebe74f460f89b26ca9,62bbfab7847cd819c244688b,2022-06-29_09h11.10.673,Colour_Asymmetry_Pilot,2022.1.3,Win32,59.37184587,62bbe60bf3d75ef465d3e404,0,46,46,38,1,fourtwo,,,,,,,,,,,,,,,,,,,,,,,,,,,,,,,,,,,,,,,,,,,,,,,,,,,,,,,,,,,,,,,,,,,,,,,,,,,,,,,,,,,,,,,,,,,,,,,,,,,,,,,,,,,,,,,,,,,,,,,,,,,,,,,,,,,,,,,,,,,,,,,,,,,,,,,,
,,,,,,5e58f7ebe74f460f89b26ca9,62bbfab7847cd819c244688b,2022-06-29_09h11.10.673,Colour_Asymmetry_Pilot,2022.1.3,Win32,59.37184587,62bbe60bf3d75ef465d3e404,0,47,47,130,1,twoone,,,,,,,,,,,,,,,,,,,,,,,,,,,,,,,,,,,,,,,,,,,,,,,,,,,,,,,,,,,,,,,,,,,,,,,,,,,,,,,,,,,,,,,,,,,,,,,,,,,,,,,,,,,,,,,,,,,,,,,,,,,,,,,,,,,,,,,,,,,,,,,,,,,,,,,,
,,,,,,5e58f7ebe74f460f89b26ca9,62bbfab7847cd819c244688b,2022-06-29_09h11.10.673,Colour_Asymmetry_Pilot,2022.1.3,Win32,59.37184587,62bbe60bf3d75ef465d3e404,0,48,48,98,1,twoone,,,,,,,,,,,,,,,,,,,,,,,,,,,,,,,,,,,,,,,,,,,,,,,,,,,,,,,,,,,,,,,,,,,,,,,,,,,,,,,,,,,,,,,,,,,,,,,,,,,,,,,,,,,,,,,,,,,,,,,,,,,,,,,,,,,,,,,,,,,,,,,,,,,,,,,,
,,,,,,5e58f7ebe74f460f89b26ca9,62bbfab7847cd819c244688b,2022-06-29_09h11.10.673,Colour_Asymmetry_Pilot,2022.1.3,Win32,59.37184587,62bbe60bf3d75ef465d3e404,0,49,49,9,1,onethree,,,,,,,,,,,,,,,,,,,,,,,,,,,,,,,,,,,,,,,,,,,,,,,,,,,,,,,,,,,,,,,,,,,,,,,,,,,,,,,,,,,,,,,,,,,,,,,,,,,,,,,,,,,,,,,,,,,,,,,,,,,,,,,,,,,,,,,,,,,,,,,,,,,,,,,,
,,,,,,5e58f7ebe74f460f89b26ca9,62bbfab7847cd819c244688b,2022-06-29_09h11.10.673,Colour_Asymmetry_Pilot,2022.1.3,Win32,59.37184587,62bbe60bf3d75ef465d3e404,0,50,50,153,1,onethree,,,,,,,,,,,,,,,,,,,,,,,,,,,,,,,,,,,,,,,,,,,,,,,,,,,,,,,,,,,,,,,,,,,,,,,,,,,,,,,,,,,,,,,,,,,,,,,,,,,,,,,,,,,,,,,,,,,,,,,,,,,,,,,,,,,,,,,,,,,,,,,,,,,,,,,,
,,,,,,5e58f7ebe74f460f89b26ca9,62bbfab7847cd819c244688b,2022-06-29_09h11.10.673,Colour_Asymmetry_Pilot,2022.1.3,Win32,59.37184587,62bbe60bf3d75ef465d3e404,0,51,51,125,1,threefour,,,,,,,,,,,,,,,,,,,,,,,,,,,,,,,,,,,,,,,,,,,,,,,,,,,,,,,,,,,,,,,,,,,,,,,,,,,,,,,,,,,,,,,,,,,,,,,,,,,,,,,,,,,,,,,,,,,,,,,,,,,,,,,,,,,,,,,,,,,,,,,,,,,,,,,,
,,,,,,5e58f7ebe74f460f89b26ca9,62bbfab7847cd819c244688b,2022-06-29_09h11.10.673,Colour_Asymmetry_Pilot,2022.1.3,Win32,59.37184587,62bbe60bf3d75ef465d3e404,0,52,52,92,1,threeone,,,,,,,,,,,,,,,,,,,,,,,,,,,,,,,,,,,,,,,,,,,,,,,,,,,,,,,,,,,,,,,,,,,,,,,,,,,,,,,,,,,,,,,,,,,,,,,,,,,,,,,,,,,,,,,,,,,,,,,,,,,,,,,,,,,,,,,,,,,,,,,,,,,,,,,,
,,,,,,5e58f7ebe74f460f89b26ca9,62bbfab7847cd819c244688b,2022-06-29_09h11.10.673,Colour_Asymmetry_Pilot,2022.1.3,Win32,59.37184587,62bbe60bf3d75ef465d3e404,0,53,53,20,1,threeone,,,,,,,,,,,,,,,,,,,,,,,,,,,,,,,,,,,,,,,,,,,,,,,,,,,,,,,,,,,,,,,,,,,,,,,,,,,,,,,,,,,,,,,,,,,,,,,,,,,,,,,,,,,,,,,,,,,,,,,,,,,,,,,,,,,,,,,,,,,,,,,,,,,,,,,,
,,,,,,5e58f7ebe74f460f89b26ca9,62bbfab7847cd819c244688b,2022-06-29_09h11.10.673,Colour_Asymmetry_Pilot,2022.1.3,Win32,59.37184587,62bbe60bf3d75ef465d3e404,0,54,54,95,1,fourthree,,,,,,,,,,,,,,,,,,,,,,,,,,,,,,,,,,,,,,,,,,,,,,,,,,,,,,,,,,,,,,,,,,,,,,,,,,,,,,,,,,,,,,,,,,,,,,,,,,,,,,,,,,,,,,,,,,,,,,,,,,,,,,,,,,,,,,,,,,,,,,,,,,,,,,,,
,,,,,,5e58f7ebe74f460f89b26ca9,62bbfab7847cd819c244688b,2022-06-29_09h11.10.673,Colour_Asymmetry_Pilot,2022.1.3,Win32,59.37184587,62bbe60bf3d75ef465d3e404,0,55,55,70,1,fourtwo,,,,,,,,,,,,,,,,,,,,,,,,,,,,,,,,,,,,,,,,,,,,,,,,,,,,,,,,,,,,,,,,,,,,,,,,,,,,,,,,,,,,,,,,,,,,,,,,,,,,,,,,,,,,,,,,,,,,,,,,,,,,,,,,,,,,,,,,,,,,,,,,,,,,,,,,
,,,,,,5e58f7ebe74f460f89b26ca9,62bbfab7847cd819c244688b,2022-06-29_09h11.10.673,Colour_Asymmetry_Pilot,2022.1.3,Win32,59.37184587,62bbe60bf3d75ef465d3e404,0,56,56,72,1,onetwo,,,,,,,,,,,,,,,,,,,,,,,,,,,,,,,,,,,,,,,,,,,,,,,,,,,,,,,,,,,,,,,,,,,,,,,,,,,,,,,,,,,,,,,,,,,,,,,,,,,,,,,,,,,,,,,,,,,,,,,,,,,,,,,,,,,,,,,,,,,,,,,,,,,,,,,,
,,,,,,5e58f7ebe74f460f89b26ca9,62bbfab7847cd819c244688b,2022-06-29_09h11.10.673,Colour_Asymmetry_Pilot,2022.1.3,Win32,59.37184587,62bbe60bf3d75ef465d3e404,0,57,57,13,1,threefour,,,,,,,,,,,,,,,,,,,,,,,,,,,,,,,,,,,,,,,,,,,,,,,,,,,,,,,,,,,,,,,,,,,,,,,,,,,,,,,,,,,,,,,,,,,,,,,,,,,,,,,,,,,,,,,,,,,,,,,,,,,,,,,,,,,,,,,,,,,,,,,,,,,,,,,,
,,,,,,5e58f7ebe74f460f89b26ca9,62bbfab7847cd819c244688b,2022-06-29_09h11.10.673,Colour_Asymmetry_Pilot,2022.1.3,Win32,59.37184587,62bbe60bf3d75ef465d3e404,0,58,58,22,1,fourtwo,,,,,,,,,,,,,,,,,,,,,,,,,,,,,,,,,,,,,,,,,,,,,,,,,,,,,,,,,,,,,,,,,,,,,,,,,,,,,,,,,,,,,,,,,,,,,,,,,,,,,,,,,,,,,,,,,,,,,,,,,,,,,,,,,,,,,,,,,,,,,,,,,,,,,,,,
,,,,,,5e58f7ebe74f460f89b26ca9,62bbfab7847cd819c244688b,2022-06-29_09h11.10.673,Colour_Asymmetry_Pilot,2022.1.3,Win32,59.37184587,62bbe60bf3d75ef465d3e404,0,59,59,65,1,onethree,,,,,,,,,,,,,,,,,,,,,,,,,,,,,,,,,,,,,,,,,,,,,,,,,,,,,,,,,,,,,,,,,,,,,,,,,,,,,,,,,,,,,,,,,,,,,,,,,,,,,,,,,,,,,,,,,,,,,,,,,,,,,,,,,,,,,,,,,,,,,,,,,,,,,,,,
,,,,,,5e58f7ebe74f460f89b26ca9,62bbfab7847cd819c244688b,2022-06-29_09h11.10.673,Colour_Asymmetry_Pilot,2022.1.3,Win32,59.37184587,62bbe60bf3d75ef465d3e404,0,60,60,154,1,twoone,,,,,,,,,,,,,,,,,,,,,,,,,,,,,,,,,,,,,,,,,,,,,,,,,,,,,,,,,,,,,,,,,,,,,,,,,,,,,,,,,,,,,,,,,,,,,,,,,,,,,,,,,,,,,,,,,,,,,,,,,,,,,,,,,,,,,,,,,,,,,,,,,,,,,,,,
,,,,,,5e58f7ebe74f460f89b26ca9,62bbfab7847cd819c244688b,2022-06-29_09h11.10.673,Colour_Asymmetry_Pilot,2022.1.3,Win32,59.37184587,62bbe60bf3d75ef465d3e404,0,61,61,136,1,onetwo,,,,,,,,,,,,,,,,,,,,,,,,,,,,,,,,,,,,,,,,,,,,,,,,,,,,,,,,,,,,,,,,,,,,,,,,,,,,,,,,,,,,,,,,,,,,,,,,,,,,,,,,,,,,,,,,,,,,,,,,,,,,,,,,,,,,,,,,,,,,,,,,,,,,,,,,
,,,,,,5e58f7ebe74f460f89b26ca9,62bbfab7847cd819c244688b,2022-06-29_09h11.10.673,Colour_Asymmetry_Pilot,2022.1.3,Win32,59.37184587,62bbe60bf3d75ef465d3e404,0,62,62,131,1,twofour,,,,,,,,,,,,,,,,,,,,,,,,,,,,,,,,,,,,,,,,,,,,,,,,,,,,,,,,,,,,,,,,,,,,,,,,,,,,,,,,,,,,,,,,,,,,,,,,,,,,,,,,,,,,,,,,,,,,,,,,,,,,,,,,,,,,,,,,,,,,,,,,,,,,,,,,
,,,,,,5e58f7ebe74f460f89b26ca9,62bbfab7847cd819c244688b,2022-06-29_09h11.10.673,Colour_Asymmetry_Pilot,2022.1.3,Win32,59.37184587,62bbe60bf3d75ef465d3e404,0,63,63,117,1,threefour,,,,,,,,,,,,,,,,,,,,,,,,,,,,,,,,,,,,,,,,,,,,,,,,,,,,,,,,,,,,,,,,,,,,,,,,,,,,,,,,,,,,,,,,,,,,,,,,,,,,,,,,,,,,,,,,,,,,,,,,,,,,,,,,,,,,,,,,,,,,,,,,,,,,,,,,
,,,,,,5e58f7ebe74f460f89b26ca9,62bbfab7847cd819c244688b,2022-06-29_09h11.10.673,Colour_Asymmetry_Pilot,2022.1.3,Win32,59.37184587,62bbe60bf3d75ef465d3e404,0,64,64,45,1,threefour,,,,,,,,,,,,,,,,,,,,,,,,,,,,,,,,,,,,,,,,,,,,,,,,,,,,,,,,,,,,,,,,,,,,,,,,,,,,,,,,,,,,,,,,,,,,,,,,,,,,,,,,,,,,,,,,,,,,,,,,,,,,,,,,,,,,,,,,,,,,,,,,,,,,,,,,
,,,,,,5e58f7ebe74f460f89b26ca9,62bbfab7847cd819c244688b,2022-06-29_09h11.10.673,Colour_Asymmetry_Pilot,2022.1.3,Win32,59.37184587,62bbe60bf3d75ef465d3e404,0,65,65,157,1,threefour,,,,,,,,,,,,,,,,,,,,,,,,,,,,,,,,,,,,,,,,,,,,,,,,,,,,,,,,,,,,,,,,,,,,,,,,,,,,,,,,,,,,,,,,,,,,,,,,,,,,,,,,,,,,,,,,,,,,,,,,,,,,,,,,,,,,,,,,,,,,,,,,,,,,,,,,
,,,,,,5e58f7ebe74f460f89b26ca9,62bbfab7847cd819c244688b,2022-06-29_09h11.10.673,Colour_Asymmetry_Pilot,2022.1.3,Win32,59.37184587,62bbe60bf3d75ef465d3e404,0,66,66,134,1,fourtwo,,,,,,,,,,,,,,,,,,,,,,,,,,,,,,,,,,,,,,,,,,,,,,,,,,,,,,,,,,,,,,,,,,,,,,,,,,,,,,,,,,,,,,,,,,,,,,,,,,,,,,,,,,,,,,,,,,,,,,,,,,,,,,,,,,,,,,,,,,,,,,,,,,,,,,,,
,,,,,,5e58f7ebe74f460f89b26ca9,62bbfab7847cd819c244688b,2022-06-29_09h11.10.673,Colour_Asymmetry_Pilot,2022.1.3,Win32,59.37184587,62bbe60bf3d75ef465d3e404,0,67,67,74,1,twoone,,,,,,,,,,,,,,,,,,,,,,,,,,,,,,,,,,,,,,,,,,,,,,,,,,,,,,,,,,,,,,,,,,,,,,,,,,,,,,,,,,,,,,,,,,,,,,,,,,,,,,,,,,,,,,,,,,,,,,,,,,,,,,,,,,,,,,,,,,,,,,,,,,,,,,,,
,,,,,,5e58f7ebe74f460f89b26ca9,62bbfab7847cd819c244688b,2022-06-29_09h11.10.673,Colour_Asymmetry_Pilot,2022.1.3,Win32,59.37184587,62bbe60bf3d75ef465d3e404,0,68,68,77,1,threefour,,,,,,,,,,,,,,,,,,,,,,,,,,,,,,,,,,,,,,,,,,,,,,,,,,,,,,,,,,,,,,,,,,,,,,,,,,,,,,,,,,,,,,,,,,,,,,,,,,,,,,,,,,,,,,,,,,,,,,,,,,,,,,,,,,,,,,,,,,,,,,,,,,,,,,,,
,,,,,,5e58f7ebe74f460f89b26ca9,62bbfab7847cd819c244688b,2022-06-29_09h11.10.673,Colour_Asymmetry_Pilot,2022.1.3,Win32,59.37184587,62bbe60bf3d75ef465d3e404,0,69,69,58,1,twoone,,,,,,,,,,,,,,,,,,,,,,,,,,,,,,,,,,,,,,,,,,,,,,,,,,,,,,,,,,,,,,,,,,,,,,,,,,,,,,,,,,,,,,,,,,,,,,,,,,,,,,,,,,,,,,,,,,,,,,,,,,,,,,,,,,,,,,,,,,,,,,,,,,,,,,,,
,,,,,,5e58f7ebe74f460f89b26ca9,62bbfab7847cd819c244688b,2022-06-29_09h11.10.673,Colour_Asymmetry_Pilot,2022.1.3,Win32,59.37184587,62bbe60bf3d75ef465d3e404,0,70,70,147,1,twofour,,,,,,,,,,,,,,,,,,,,,,,,,,,,,,,,,,,,,,,,,,,,,,,,,,,,,,,,,,,,,,,,,,,,,,,,,,,,,,,,,,,,,,,,,,,,,,,,,,,,,,,,,,,,,,,,,,,,,,,,,,,,,,,,,,,,,,,,,,,,,,,,,,,,,,,,
,,,,,,5e58f7ebe74f460f89b26ca9,62bbfab7847cd819c244688b,2022-06-29_09h11.10.673,Colour_Asymmetry_Pilot,2022.1.3,Win32,59.37184587,62bbe60bf3d75ef465d3e404,0,71,71,46,1,fourtwo,,,,,,,,,,,,,,,,,,,,,,,,,,,,,,,,,,,,,,,,,,,,,,,,,,,,,,,,,,,,,,,,,,,,,,,,,,,,,,,,,,,,,,,,,,,,,,,,,,,,,,,,,,,,,,,,,,,,,,,,,,,,,,,,,,,,,,,,,,,,,,,,,,,,,,,,
,,,,,,5e58f7ebe74f460f89b26ca9,62bbfab7847cd819c244688b,2022-06-29_09h11.10.673,Colour_Asymmetry_Pilot,2022.1.3,Win32,59.37184587,62bbe60bf3d75ef465d3e404,0,72,72,17,1,onethree,,,,,,,,,,,,,,,,,,,,,,,,,,,,,,,,,,,,,,,,,,,,,,,,,,,,,,,,,,,,,,,,,,,,,,,,,,,,,,,,,,,,,,,,,,,,,,,,,,,,,,,,,,,,,,,,,,,,,,,,,,,,,,,,,,,,,,,,,,,,,,,,,,,,,,,,
,,,,,,5e58f7ebe74f460f89b26ca9,62bbfab7847cd819c244688b,2022-06-29_09h11.10.673,Colour_Asymmetry_Pilot,2022.1.3,Win32,59.37184587,62bbe60bf3d75ef465d3e404,0,73,73,89,1,onethree,,,,,,,,,,,,,,,,,,,,,,,,,,,,,,,,,,,,,,,,,,,,,,,,,,,,,,,,,,,,,,,,,,,,,,,,,,,,,,,,,,,,,,,,,,,,,,,,,,,,,,,,,,,,,,,,,,,,,,,,,,,,,,,,,,,,,,,,,,,,,,,,,,,,,,,,
,,,,,,5e58f7ebe74f460f89b26ca9,62bbfab7847cd819c244688b,2022-06-29_09h11.10.673,Colour_Asymmetry_Pilot,2022.1.3,Win32,59.37184587,62bbe60bf3d75ef465d3e404,0,74,74,90,1,twoone,,,,,,,,,,,,,,,,,,,,,,,,,,,,,,,,,,,,,,,,,,,,,,,,,,,,,,,,,,,,,,,,,,,,,,,,,,,,,,,,,,,,,,,,,,,,,,,,,,,,,,,,,,,,,,,,,,,,,,,,,,,,,,,,,,,,,,,,,,,,,,,,,,,,,,,,
,,,,,,5e58f7ebe74f460f89b26ca9,62bbfab7847cd819c244688b,2022-06-29_09h11.10.673,Colour_Asymmetry_Pilot,2022.1.3,Win32,59.37184587,62bbe60bf3d75ef465d3e404,0,75,75,49,1,onethree,,,,,,,,,,,,,,,,,,,,,,,,,,,,,,,,,,,,,,,,,,,,,,,,,,,,,,,,,,,,,,,,,,,,,,,,,,,,,,,,,,,,,,,,,,,,,,,,,,,,,,,,,,,,,,,,,,,,,,,,,,,,,,,,,,,,,,,,,,,,,,,,,,,,,,,,
,,,,,,5e58f7ebe74f460f89b26ca9,62bbfab7847cd819c244688b,2022-06-29_09h11.10.673,Colour_Asymmetry_Pilot,2022.1.3,Win32,59.37184587,62bbe60bf3d75ef465d3e404,0,76,76,118,1,fourtwo,,,,,,,,,,,,,,,,,,,,,,,,,,,,,,,,,,,,,,,,,,,,,,,,,,,,,,,,,,,,,,,,,,,,,,,,,,,,,,,,,,,,,,,,,,,,,,,,,,,,,,,,,,,,,,,,,,,,,,,,,,,,,,,,,,,,,,,,,,,,,,,,,,,,,,,,
,,,,,,5e58f7ebe74f460f89b26ca9,62bbfab7847cd819c244688b,2022-06-29_09h11.10.673,Colour_Asymmetry_Pilot,2022.1.3,Win32,59.37184587,62bbe60bf3d75ef465d3e404,0,77,77,28,1,threeone,,,,,,,,,,,,,,,,,,,,,,,,,,,,,,,,,,,,,,,,,,,,,,,,,,,,,,,,,,,,,,,,,,,,,,,,,,,,,,,,,,,,,,,,,,,,,,,,,,,,,,,,,,,,,,,,,,,,,,,,,,,,,,,,,,,,,,,,,,,,,,,,,,,,,,,,
,,,,,,5e58f7ebe74f460f89b26ca9,62bbfab7847cd819c244688b,2022-06-29_09h11.10.673,Colour_Asymmetry_Pilot,2022.1.3,Win32,59.37184587,62bbe60bf3d75ef465d3e404,0,78,78,2,1,twoone,,,,,,,,,,,,,,,,,,,,,,,,,,,,,,,,,,,,,,,,,,,,,,,,,,,,,,,,,,,,,,,,,,,,,,,,,,,,,,,,,,,,,,,,,,,,,,,,,,,,,,,,,,,,,,,,,,,,,,,,,,,,,,,,,,,,,,,,,,,,,,,,,,,,,,,,
,,,,,,5e58f7ebe74f460f89b26ca9,62bbfab7847cd819c244688b,2022-06-29_09h11.10.673,Colour_Asymmetry_Pilot,2022.1.3,Win32,59.37184587,62bbe60bf3d75ef465d3e404,0,79,79,14,1,fourtwo,,,,,,,,,,,,,,,,,,,,,,,,,,,,,,,,,,,,,,,,,,,,,,,,,,,,,,,,,,,,,,,,,,,,,,,,,,,,,,,,,,,,,,,,,,,,,,,,,,,,,,,,,,,,,,,,,,,,,,,,,,,,,,,,,,,,,,,,,,,,,,,,,,,,,,,,
,,,,,,5e58f7ebe74f460f89b26ca9,62bbfab7847cd819c244688b,2022-06-29_09h11.10.673,Colour_Asymmetry_Pilot,2022.1.3,Win32,59.37184587,62bbe60bf3d75ef465d3e404,0,80,80,39,1,fourthree,,,,,,,,,,,,,,,,,,,,,,,,,,,,,,,,,,,,,,,,,,,,,,,,,,,,,,,,,,,,,,,,,,,,,,,,,,,,,,,,,,,,,,,,,,,,,,,,,,,,,,,,,,,,,,,,,,,,,,,,,,,,,,,,,,,,,,,,,,,,,,,,,,,,,,,,
,,,,,,5e58f7ebe74f460f89b26ca9,62bbfab7847cd819c244688b,2022-06-29_09h11.10.673,Colour_Asymmetry_Pilot,2022.1.3,Win32,59.37184587,62bbe60bf3d75ef465d3e404,0,81,81,120,1,onetwo,,,,,,,,,,,,,,,,,,,,,,,,,,,,,,,,,,,,,,,,,,,,,,,,,,,,,,,,,,,,,,,,,,,,,,,,,,,,,,,,,,,,,,,,,,,,,,,,,,,,,,,,,,,,,,,,,,,,,,,,,,,,,,,,,,,,,,,,,,,,,,,,,,,,,,,,
,,,,,,5e58f7ebe74f460f89b26ca9,62bbfab7847cd819c244688b,2022-06-29_09h11.10.673,Colour_Asymmetry_Pilot,2022.1.3,Win32,59.37184587,62bbe60bf3d75ef465d3e404,0,82,82,63,1,fourthree,,,,,,,,,,,,,,,,,,,,,,,,,,,,,,,,,,,,,,,,,,,,,,,,,,,,,,,,,,,,,,,,,,,,,,,,,,,,,,,,,,,,,,,,,,,,,,,,,,,,,,,,,,,,,,,,,,,,,,,,,,,,,,,,,,,,,,,,,,,,,,,,,,,,,,,,
,,,,,,5e58f7ebe74f460f89b26ca9,62bbfab7847cd819c244688b,2022-06-29_09h11.10.673,Colour_Asymmetry_Pilot,2022.1.3,Win32,59.37184587,62bbe60bf3d75ef465d3e404,0,83,83,140,1,threeone,,,,,,,,,,,,,,,,,,,,,,,,,,,,,,,,,,,,,,,,,,,,,,,,,,,,,,,,,,,,,,,,,,,,,,,,,,,,,,,,,,,,,,,,,,,,,,,,,,,,,,,,,,,,,,,,,,,,,,,,,,,,,,,,,,,,,,,,,,,,,,,,,,,,,,,,
,,,,,,5e58f7ebe74f460f89b26ca9,62bbfab7847cd819c244688b,2022-06-29_09h11.10.673,Colour_Asymmetry_Pilot,2022.1.3,Win32,59.37184587,62bbe60bf3d75ef465d3e404,0,84,84,55,1,fourthree,,,,,,,,,,,,,,,,,,,,,,,,,,,,,,,,,,,,,,,,,,,,,,,,,,,,,,,,,,,,,,,,,,,,,,,,,,,,,,,,,,,,,,,,,,,,,,,,,,,,,,,,,,,,,,,,,,,,,,,,,,,,,,,,,,,,,,,,,,,,,,,,,,,,,,,,
,,,,,,5e58f7ebe74f460f89b26ca9,62bbfab7847cd819c244688b,2022-06-29_09h11.10.673,Colour_Asymmetry_Pilot,2022.1.3,Win32,59.37184587,62bbe60bf3d75ef465d3e404,0,85,85,80,1,onetwo,,,,,,,,,,,,,,,,,,,,,,,,,,,,,,,,,,,,,,,,,,,,,,,,,,,,,,,,,,,,,,,,,,,,,,,,,,,,,,,,,,,,,,,,,,,,,,,,,,,,,,,,,,,,,,,,,,,,,,,,,,,,,,,,,,,,,,,,,,,,,,,,,,,,,,,,
,,,,,,5e58f7ebe74f460f89b26ca9,62bbfab7847cd819c244688b,2022-06-29_09h11.10.673,Colour_Asymmetry_Pilot,2022.1.3,Win32,59.37184587,62bbe60bf3d75ef465d3e404,0,86,86,124,1,threeone,,,,,,,,,,,,,,,,,,,,,,,,,,,,,,,,,,,,,,,,,,,,,,,,,,,,,,,,,,,,,,,,,,,,,,,,,,,,,,,,,,,,,,,,,,,,,,,,,,,,,,,,,,,,,,,,,,,,,,,,,,,,,,,,,,,,,,,,,,,,,,,,,,,,,,,,
,,,,,,5e58f7ebe74f460f89b26ca9,62bbfab7847cd819c244688b,2022-06-29_09h11.10.673,Colour_Asymmetry_Pilot,2022.1.3,Win32,59.37184587,62bbe60bf3d75ef465d3e404,0,87,87,100,1,threeone,,,,,,,,,,,,,,,,,,,,,,,,,,,,,,,,,,,,,,,,,,,,,,,,,,,,,,,,,,,,,,,,,,,,,,,,,,,,,,,,,,,,,,,,,,,,,,,,,,,,,,,,,,,,,,,,,,,,,,,,,,,,,,,,,,,,,,,,,,,,,,,,,,,,,,,,
,,,,,,5e58f7ebe74f460f89b26ca9,62bbfab7847cd819c244688b,2022-06-29_09h11.10.673,Colour_Asymmetry_Pilot,2022.1.3,Win32,59.37184587,62bbe60bf3d75ef465d3e404,0,88,88,56,1,onetwo,,,,,,,,,,,,,,,,,,,,,,,,,,,,,,,,,,,,,,,,,,,,,,,,,,,,,,,,,,,,,,,,,,,,,,,,,,,,,,,,,,,,,,,,,,,,,,,,,,,,,,,,,,,,,,,,,,,,,,,,,,,,,,,,,,,,,,,,,,,,,,,,,,,,,,,,
,,,,,,5e58f7ebe74f460f89b26ca9,62bbfab7847cd819c244688b,2022-06-29_09h11.10.673,Colour_Asymmetry_Pilot,2022.1.3,Win32,59.37184587,62bbe60bf3d75ef465d3e404,0,89,89,35,1,twofour,,,,,,,,,,,,,,,,,,,,,,,,,,,,,,,,,,,,,,,,,,,,,,,,,,,,,,,,,,,,,,,,,,,,,,,,,,,,,,,,,,,,,,,,,,,,,,,,,,,,,,,,,,,,,,,,,,,,,,,,,,,,,,,,,,,,,,,,,,,,,,,,,,,,,,,,
,,,,,,5e58f7ebe74f460f89b26ca9,62bbfab7847cd819c244688b,2022-06-29_09h11.10.673,Colour_Asymmetry_Pilot,2022.1.3,Win32,59.37184587,62bbe60bf3d75ef465d3e404,0,90,90,161,1,onethree,,,,,,,,,,,,,,,,,,,,,,,,,,,,,,,,,,,,,,,,,,,,,,,,,,,,,,,,,,,,,,,,,,,,,,,,,,,,,,,,,,,,,,,,,,,,,,,,,,,,,,,,,,,,,,,,,,,,,,,,,,,,,,,,,,,,,,,,,,,,,,,,,,,,,,,,
,,,,,,5e58f7ebe74f460f89b26ca9,62bbfab7847cd819c244688b,2022-06-29_09h11.10.673,Colour_Asymmetry_Pilot,2022.1.3,Win32,59.37184587,62bbe60bf3d75ef465d3e404,0,91,91,47,1,fourthree,,,,,,,,,,,,,,,,,,,,,,,,,,,,,,,,,,,,,,,,,,,,,,,,,,,,,,,,,,,,,,,,,,,,,,,,,,,,,,,,,,,,,,,,,,,,,,,,,,,,,,,,,,,,,,,,,,,,,,,,,,,,,,,,,,,,,,,,,,,,,,,,,,,,,,,,
,,,,,,5e58f7ebe74f460f89b26ca9,62bbfab7847cd819c244688b,2022-06-29_09h11.10.673,Colour_Asymmetry_Pilot,2022.1.3,Win32,59.37184587,62bbe60bf3d75ef465d3e404,0,92,92,7,1,fourthree,,,,,,,,,,,,,,,,,,,,,,,,,,,,,,,,,,,,,,,,,,,,,,,,,,,,,,,,,,,,,,,,,,,,,,,,,,,,,,,,,,,,,,,,,,,,,,,,,,,,,,,,,,,,,,,,,,,,,,,,,,,,,,,,,,,,,,,,,,,,,,,,,,,,,,,,
,,,,,,5e58f7ebe74f460f89b26ca9,62bbfab7847cd819c244688b,2022-06-29_09h11.10.673,Colour_Asymmetry_Pilot,2022.1.3,Win32,59.37184587,62bbe60bf3d75ef465d3e404,0,93,93,25,1,onethree,,,,,,,,,,,,,,,,,,,,,,,,,,,,,,,,,,,,,,,,,,,,,,,,,,,,,,,,,,,,,,,,,,,,,,,,,,,,,,,,,,,,,,,,,,,,,,,,,,,,,,,,,,,,,,,,,,,,,,,,,,,,,,,,,,,,,,,,,,,,,,,,,,,,,,,,
,,,,,,5e58f7ebe74f460f89b26ca9,62bbfab7847cd819c244688b,2022-06-29_09h11.10.673,Colour_Asymmetry_Pilot,2022.1.3,Win32,59.37184587,62bbe60bf3d75ef465d3e404,0,94,94,53,1,threefour,,,,,,,,,,,,,,,,,,,,,,,,,,,,,,,,,,,,,,,,,,,,,,,,,,,,,,,,,,,,,,,,,,,,,,,,,,,,,,,,,,,,,,,,,,,,,,,,,,,,,,,,,,,,,,,,,,,,,,,,,,,,,,,,,,,,,,,,,,,,,,,,,,,,,,,,
,,,,,,5e58f7ebe74f460f89b26ca9,62bbfab7847cd819c244688b,2022-06-29_09h11.10.673,Colour_Asymmetry_Pilot,2022.1.3,Win32,59.37184587,62bbe60bf3d75ef465d3e404,0,95,95,81,1,onethree,,,,,,,,,,,,,,,,,,,,,,,,,,,,,,,,,,,,,,,,,,,,,,,,,,,,,,,,,,,,,,,,,,,,,,,,,,,,,,,,,,,,,,,,,,,,,,,,,,,,,,,,,,,,,,,,,,,,,,,,,,,,,,,,,,,,,,,,,,,,,,,,,,,,,,,,
,,,,,,5e58f7ebe74f460f89b26ca9,62bbfab7847cd819c244688b,2022-06-29_09h11.10.673,Colour_Asymmetry_Pilot,2022.1.3,Win32,59.37184587,62bbe60bf3d75ef465d3e404,0,96,96,34,1,twoone,,,,,,,,,,,,,,,,,,,,,,,,,,,,,,,,,,,,,,,,,,,,,,,,,,,,,,,,,,,,,,,,,,,,,,,,,,,,,,,,,,,,,,,,,,,,,,,,,,,,,,,,,,,,,,,,,,,,,,,,,,,,,,,,,,,,,,,,,,,,,,,,,,,,,,,,
,,,,,,5e58f7ebe74f460f89b26ca9,62bbfab7847cd819c244688b,2022-06-29_09h11.10.673,Colour_Asymmetry_Pilot,2022.1.3,Win32,59.37184587,62bbe60bf3d75ef465d3e404,0,97,97,127,1,fourthree,,,,,,,,,,,,,,,,,,,,,,,,,,,,,,,,,,,,,,,,,,,,,,,,,,,,,,,,,,,,,,,,,,,,,,,,,,,,,,,,,,,,,,,,,,,,,,,,,,,,,,,,,,,,,,,,,,,,,,,,,,,,,,,,,,,,,,,,,,,,,,,,,,,,,,,,
,,,,,,5e58f7ebe74f460f89b26ca9,62bbfab7847cd819c244688b,2022-06-29_09h11.10.673,Colour_Asymmetry_Pilot,2022.1.3,Win32,59.37184587,62bbe60bf3d75ef465d3e404,0,98,98,138,1,twoone,,,,,,,,,,,,,,,,,,,,,,,,,,,,,,,,,,,,,,,,,,,,,,,,,,,,,,,,,,,,,,,,,,,,,,,,,,,,,,,,,,,,,,,,,,,,,,,,,,,,,,,,,,,,,,,,,,,,,,,,,,,,,,,,,,,,,,,,,,,,,,,,,,,,,,,,
,,,,,,5e58f7ebe74f460f89b26ca9,62bbfab7847cd819c244688b,2022-06-29_09h11.10.673,Colour_Asymmetry_Pilot,2022.1.3,Win32,59.37184587,62bbe60bf3d75ef465d3e404,0,99,99,132,1,threeone,,,,,,,,,,,,,,,,,,,,,,,,,,,,,,,,,,,,,,,,,,,,,,,,,,,,,,,,,,,,,,,,,,,,,,,,,,,,,,,,,,,,,,,,,,,,,,,,,,,,,,,,,,,,,,,,,,,,,,,,,,,,,,,,,,,,,,,,,,,,,,,,,,,,,,,,
,,,,,,5e58f7ebe74f460f89b26ca9,62bbfab7847cd819c244688b,2022-06-29_09h11.10.673,Colour_Asymmetry_Pilot,2022.1.3,Win32,59.37184587,62bbe60bf3d75ef465d3e404,0,100,100,96,1,onetwo,,,,,,,,,,,,,,,,,,,,,,,,,,,,,,,,,,,,,,,,,,,,,,,,,,,,,,,,,,,,,,,,,,,,,,,,,,,,,,,,,,,,,,,,,,,,,,,,,,,,,,,,,,,,,,,,,,,,,,,,,,,,,,,,,,,,,,,,,,,,,,,,,,,,,,,,
,,,,,,5e58f7ebe74f460f89b26ca9,62bbfab7847cd819c244688b,2022-06-29_09h11.10.673,Colour_Asymmetry_Pilot,2022.1.3,Win32,59.37184587,62bbe60bf3d75ef465d3e404,0,101,101,123,1,twofour,,,,,,,,,,,,,,,,,,,,,,,,,,,,,,,,,,,,,,,,,,,,,,,,,,,,,,,,,,,,,,,,,,,,,,,,,,,,,,,,,,,,,,,,,,,,,,,,,,,,,,,,,,,,,,,,,,,,,,,,,,,,,,,,,,,,,,,,,,,,,,,,,,,,,,,,
,,,,,,5e58f7ebe74f460f89b26ca9,62bbfab7847cd819c244688b,2022-06-29_09h11.10.673,Colour_Asymmetry_Pilot,2022.1.3,Win32,59.37184587,62bbe60bf3d75ef465d3e404,0,102,102,1,1,onethree,,,,,,,,,,,,,,,,,,,,,,,,,,,,,,,,,,,,,,,,,,,,,,,,,,,,,,,,,,,,,,,,,,,,,,,,,,,,,,,,,,,,,,,,,,,,,,,,,,,,,,,,,,,,,,,,,,,,,,,,,,,,,,,,,,,,,,,,,,,,,,,,,,,,,,,,
,,,,,,5e58f7ebe74f460f89b26ca9,62bbfab7847cd819c244688b,2022-06-29_09h11.10.673,Colour_Asymmetry_Pilot,2022.1.3,Win32,59.37184587,62bbe60bf3d75ef465d3e404,0,103,103,24,1,onetwo,,,,,,,,,,,,,,,,,,,,,,,,,,,,,,,,,,,,,,,,,,,,,,,,,,,,,,,,,,,,,,,,,,,,,,,,,,,,,,,,,,,,,,,,,,,,,,,,,,,,,,,,,,,,,,,,,,,,,,,,,,,,,,,,,,,,,,,,,,,,,,,,,,,,,,,,
,,,,,,5e58f7ebe74f460f89b26ca9,62bbfab7847cd819c244688b,2022-06-29_09h11.10.673,Colour_Asymmetry_Pilot,2022.1.3,Win32,59.37184587,62bbe60bf3d75ef465d3e404,0,104,104,82,1,twoone,,,,,,,,,,,,,,,,,,,,,,,,,,,,,,,,,,,,,,,,,,,,,,,,,,,,,,,,,,,,,,,,,,,,,,,,,,,,,,,,,,,,,,,,,,,,,,,,,,,,,,,,,,,,,,,,,,,,,,,,,,,,,,,,,,,,,,,,,,,,,,,,,,,,,,,,
,,,,,,5e58f7ebe74f460f89b26ca9,62bbfab7847cd819c244688b,2022-06-29_09h11.10.673,Colour_Asymmetry_Pilot,2022.1.3,Win32,59.37184587,62bbe60bf3d75ef465d3e404,0,105,105,141,1,threefour,,,,,,,,,,,,,,,,,,,,,,,,,,,,,,,,,,,,,,,,,,,,,,,,,,,,,,,,,,,,,,,,,,,,,,,,,,,,,,,,,,,,,,,,,,,,,,,,,,,,,,,,,,,,,,,,,,,,,,,,,,,,,,,,,,,,,,,,,,,,,,,,,,,,,,,,
,,,,,,5e58f7ebe74f460f89b26ca9,62bbfab7847cd819c244688b,2022-06-29_09h11.10.673,Colour_Asymmetry_Pilot,2022.1.3,Win32,59.37184587,62bbe60bf3d75ef465d3e404,0,106,106,142,1,fourtwo,,,,,,,,,,,,,,,,,,,,,,,,,,,,,,,,,,,,,,,,,,,,,,,,,,,,,,,,,,,,,,,,,,,,,,,,,,,,,,,,,,,,,,,,,,,,,,,,,,,,,,,,,,,,,,,,,,,,,,,,,,,,,,,,,,,,,,,,,,,,,,,,,,,,,,,,
,,,,,,5e58f7ebe74f460f89b26ca9,62bbfab7847cd819c244688b,2022-06-29_09h11.10.673,Colour_Asymmetry_Pilot,2022.1.3,Win32,59.37184587,62bbe60bf3d75ef465d3e404,0,107,107,114,1,twoone,,,,,,,,,,,,,,,,,,,,,,,,,,,,,,,,,,,,,,,,,,,,,,,,,,,,,,,,,,,,,,,,,,,,,,,,,,,,,,,,,,,,,,,,,,,,,,,,,,,,,,,,,,,,,,,,,,,,,,,,,,,,,,,,,,,,,,,,,,,,,,,,,,,,,,,,
,,,,,,5e58f7ebe74f460f89b26ca9,62bbfab7847cd819c244688b,2022-06-29_09h11.10.673,Colour_Asymmetry_Pilot,2022.1.3,Win32,59.37184587,62bbe60bf3d75ef465d3e404,0,108,108,84,1,threeone,,,,,,,,,,,,,,,,,,,,,,,,,,,,,,,,,,,,,,,,,,,,,,,,,,,,,,,,,,,,,,,,,,,,,,,,,,,,,,,,,,,,,,,,,,,,,,,,,,,,,,,,,,,,,,,,,,,,,,,,,,,,,,,,,,,,,,,,,,,,,,,,,,,,,,,,
,,,,,,5e58f7ebe74f460f89b26ca9,62bbfab7847cd819c244688b,2022-06-29_09h11.10.673,Colour_Asymmetry_Pilot,2022.1.3,Win32,59.37184587,62bbe60bf3d75ef465d3e404,0,109,109,30,1,fourtwo,,,,,,,,,,,,,,,,,,,,,,,,,,,,,,,,,,,,,,,,,,,,,,,,,,,,,,,,,,,,,,,,,,,,,,,,,,,,,,,,,,,,,,,,,,,,,,,,,,,,,,,,,,,,,,,,,,,,,,,,,,,,,,,,,,,,,,,,,,,,,,,,,,,,,,,,
,,,,,,5e58f7ebe74f460f89b26ca9,62bbfab7847cd819c244688b,2022-06-29_09h11.10.673,Colour_Asymmetry_Pilot,2022.1.3,Win32,59.37184587,62bbe60bf3d75ef465d3e404,0,110,110,43,1,twofour,,,,,,,,,,,,,,,,,,,,,,,,,,,,,,,,,,,,,,,,,,,,,,,,,,,,,,,,,,,,,,,,,,,,,,,,,,,,,,,,,,,,,,,,,,,,,,,,,,,,,,,,,,,,,,,,,,,,,,,,,,,,,,,,,,,,,,,,,,,,,,,,,,,,,,,,
,,,,,,5e58f7ebe74f460f89b26ca9,62bbfab7847cd819c244688b,2022-06-29_09h11.10.673,Colour_Asymmetry_Pilot,2022.1.3,Win32,59.37184587,62bbe60bf3d75ef465d3e404,0,111,111,16,1,onetwo,,,,,,,,,,,,,,,,,,,,,,,,,,,,,,,,,,,,,,,,,,,,,,,,,,,,,,,,,,,,,,,,,,,,,,,,,,,,,,,,,,,,,,,,,,,,,,,,,,,,,,,,,,,,,,,,,,,,,,,,,,,,,,,,,,,,,,,,,,,,,,,,,,,,,,,,
,,,,,,5e58f7ebe74f460f89b26ca9,62bbfab7847cd819c244688b,2022-06-29_09h11.10.673,Colour_Asymmetry_Pilot,2022.1.3,Win32,59.37184587,62bbe60bf3d75ef465d3e404,0,112,112,78,1,fourtwo,,,,,,,,,,,,,,,,,,,,,,,,,,,,,,,,,,,,,,,,,,,,,,,,,,,,,,,,,,,,,,,,,,,,,,,,,,,,,,,,,,,,,,,,,,,,,,,,,,,,,,,,,,,,,,,,,,,,,,,,,,,,,,,,,,,,,,,,,,,,,,,,,,,,,,,,
,,,,,,5e58f7ebe74f460f89b26ca9,62bbfab7847cd819c244688b,2022-06-29_09h11.10.673,Colour_Asymmetry_Pilot,2022.1.3,Win32,59.37184587,62bbe60bf3d75ef465d3e404,0,113,113,158,1,fourtwo,,,,,,,,,,,,,,,,,,,,,,,,,,,,,,,,,,,,,,,,,,,,,,,,,,,,,,,,,,,,,,,,,,,,,,,,,,,,,,,,,,,,,,,,,,,,,,,,,,,,,,,,,,,,,,,,,,,,,,,,,,,,,,,,,,,,,,,,,,,,,,,,,,,,,,,,
,,,,,,5e58f7ebe74f460f89b26ca9,62bbfab7847cd819c244688b,2022-06-29_09h11.10.673,Colour_Asymmetry_Pilot,2022.1.3,Win32,59.37184587,62bbe60bf3d75ef465d3e404,0,114,114,146,1,twoone,,,,,,,,,,,,,,,,,,,,,,,,,,,,,,,,,,,,,,,,,,,,,,,,,,,,,,,,,,,,,,,,,,,,,,,,,,,,,,,,,,,,,,,,,,,,,,,,,,,,,,,,,,,,,,,,,,,,,,,,,,,,,,,,,,,,,,,,,,,,,,,,,,,,,,,,
,,,,,,5e58f7ebe74f460f89b26ca9,62bbfab7847cd819c244688b,2022-06-29_09h11.10.673,Colour_Asymmetry_Pilot,2022.1.3,Win32,59.37184587,62bbe60bf3d75ef465d3e404,0,115,115,91,1,twofour,,,,,,,,,,,,,,,,,,,,,,,,,,,,,,,,,,,,,,,,,,,,,,,,,,,,,,,,,,,,,,,,,,,,,,,,,,,,,,,,,,,,,,,,,,,,,,,,,,,,,,,,,,,,,,,,,,,,,,,,,,,,,,,,,,,,,,,,,,,,,,,,,,,,,,,,
,,,,,,5e58f7ebe74f460f89b26ca9,62bbfab7847cd819c244688b,2022-06-29_09h11.10.673,Colour_Asymmetry_Pilot,2022.1.3,Win32,59.37184587,62bbe60bf3d75ef465d3e404,0,116,116,50,1,twoone,,,,,,,,,,,,,,,,,,,,,,,,,,,,,,,,,,,,,,,,,,,,,,,,,,,,,,,,,,,,,,,,,,,,,,,,,,,,,,,,,,,,,,,,,,,,,,,,,,,,,,,,,,,,,,,,,,,,,,,,,,,,,,,,,,,,,,,,,,,,,,,,,,,,,,,,
,,,,,,5e58f7ebe74f460f89b26ca9,62bbfab7847cd819c244688b,2022-06-29_09h11.10.673,Colour_Asymmetry_Pilot,2022.1.3,Win32,59.37184587,62bbe60bf3d75ef465d3e404,0,117,117,109,1,threefour,,,,,,,,,,,,,,,,,,,,,,,,,,,,,,,,,,,,,,,,,,,,,,,,,,,,,,,,,,,,,,,,,,,,,,,,,,,,,,,,,,,,,,,,,,,,,,,,,,,,,,,,,,,,,,,,,,,,,,,,,,,,,,,,,,,,,,,,,,,,,,,,,,,,,,,,
,,,,,,5e58f7ebe74f460f89b26ca9,62bbfab7847cd819c244688b,2022-06-29_09h11.10.673,Colour_Asymmetry_Pilot,2022.1.3,Win32,59.37184587,62bbe60bf3d75ef465d3e404,0,118,118,128,1,onetwo,,,,,,,,,,,,,,,,,,,,,,,,,,,,,,,,,,,,,,,,,,,,,,,,,,,,,,,,,,,,,,,,,,,,,,,,,,,,,,,,,,,,,,,,,,,,,,,,,,,,,,,,,,,,,,,,,,,,,,,,,,,,,,,,,,,,,,,,,,,,,,,,,,,,,,,,
,,,,,,5e58f7ebe74f460f89b26ca9,62bbfab7847cd819c244688b,2022-06-29_09h11.10.673,Colour_Asymmetry_Pilot,2022.1.3,Win32,59.37184587,62bbe60bf3d75ef465d3e404,0,119,119,44,1,threeone,,,,,,,,,,,,,,,,,,,,,,,,,,,,,,,,,,,,,,,,,,,,,,,,,,,,,,,,,,,,,,,,,,,,,,,,,,,,,,,,,,,,,,,,,,,,,,,,,,,,,,,,,,,,,,,,,,,,,,,,,,,,,,,,,,,,,,,,,,,,,,,,,,,,,,,,
,,,,,,5e58f7ebe74f460f89b26ca9,62bbfab7847cd819c244688b,2022-06-29_09h11.10.673,Colour_Asymmetry_Pilot,2022.1.3,Win32,59.37184587,62bbe60bf3d75ef465d3e404,0,120,120,8,1,onetwo,,,,,,,,,,,,,,,,,,,,,,,,,,,,,,,,,,,,,,,,,,,,,,,,,,,,,,,,,,,,,,,,,,,,,,,,,,,,,,,,,,,,,,,,,,,,,,,,,,,,,,,,,,,,,,,,,,,,,,,,,,,,,,,,,,,,,,,,,,,,,,,,,,,,,,,,
,,,,,,5e58f7ebe74f460f89b26ca9,62bbfab7847cd819c244688b,2022-06-29_09h11.10.673,Colour_Asymmetry_Pilot,2022.1.3,Win32,59.37184587,62bbe60bf3d75ef465d3e404,0,121,121,116,1,threeone,,,,,,,,,,,,,,,,,,,,,,,,,,,,,,,,,,,,,,,,,,,,,,,,,,,,,,,,,,,,,,,,,,,,,,,,,,,,,,,,,,,,,,,,,,,,,,,,,,,,,,,,,,,,,,,,,,,,,,,,,,,,,,,,,,,,,,,,,,,,,,,,,,,,,,,,
,,,,,,5e58f7ebe74f460f89b26ca9,62bbfab7847cd819c244688b,2022-06-29_09h11.10.673,Colour_Asymmetry_Pilot,2022.1.3,Win32,59.37184587,62bbe60bf3d75ef465d3e404,0,122,122,93,1,threefour,,,,,,,,,,,,,,,,,,,,,,,,,,,,,,,,,,,,,,,,,,,,,,,,,,,,,,,,,,,,,,,,,,,,,,,,,,,,,,,,,,,,,,,,,,,,,,,,,,,,,,,,,,,,,,,,,,,,,,,,,,,,,,,,,,,,,,,,,,,,,,,,,,,,,,,,
,,,,,,5e58f7ebe74f460f89b26ca9,62bbfab7847cd819c244688b,2022-06-29_09h11.10.673,Colour_Asymmetry_Pilot,2022.1.3,Win32,59.37184587,62bbe60bf3d75ef465d3e404,0,123,123,103,1,fourthree,,,,,,,,,,,,,,,,,,,,,,,,,,,,,,,,,,,,,,,,,,,,,,,,,,,,,,,,,,,,,,,,,,,,,,,,,,,,,,,,,,,,,,,,,,,,,,,,,,,,,,,,,,,,,,,,,,,,,,,,,,,,,,,,,,,,,,,,,,,,,,,,,,,,,,,,
,,,,,,5e58f7ebe74f460f89b26ca9,62bbfab7847cd819c244688b,2022-06-29_09h11.10.673,Colour_Asymmetry_Pilot,2022.1.3,Win32,59.37184587,62bbe60bf3d75ef465d3e404,0,124,124,155,1,twofour,,,,,,,,,,,,,,,,,,,,,,,,,,,,,,,,,,,,,,,,,,,,,,,,,,,,,,,,,,,,,,,,,,,,,,,,,,,,,,,,,,,,,,,,,,,,,,,,,,,,,,,,,,,,,,,,,,,,,,,,,,,,,,,,,,,,,,,,,,,,,,,,,,,,,,,,
,,,,,,5e58f7ebe74f460f89b26ca9,62bbfab7847cd819c244688b,2022-06-29_09h11.10.673,Colour_Asymmetry_Pilot,2022.1.3,Win32,59.37184587,62bbe60bf3d75ef465d3e404,0,125,125,62,1,fourtwo,,,,,,,,,,,,,,,,,,,,,,,,,,,,,,,,,,,,,,,,,,,,,,,,,,,,,,,,,,,,,,,,,,,,,,,,,,,,,,,,,,,,,,,,,,,,,,,,,,,,,,,,,,,,,,,,,,,,,,,,,,,,,,,,,,,,,,,,,,,,,,,,,,,,,,,,
,,,,,,5e58f7ebe74f460f89b26ca9,62bbfab7847cd819c244688b,2022-06-29_09h11.10.673,Colour_Asymmetry_Pilot,2022.1.3,Win32,59.37184587,62bbe60bf3d75ef465d3e404,0,126,126,135,1,fourthree,,,,,,,,,,,,,,,,,,,,,,,,,,,,,,,,,,,,,,,,,,,,,,,,,,,,,,,,,,,,,,,,,,,,,,,,,,,,,,,,,,,,,,,,,,,,,,,,,,,,,,,,,,,,,,,,,,,,,,,,,,,,,,,,,,,,,,,,,,,,,,,,,,,,,,,,
,,,,,,5e58f7ebe74f460f89b26ca9,62bbfab7847cd819c244688b,2022-06-29_09h11.10.673,Colour_Asymmetry_Pilot,2022.1.3,Win32,59.37184587,62bbe60bf3d75ef465d3e404,0,127,127,42,1,twoone,,,,,,,,,,,,,,,,,,,,,,,,,,,,,,,,,,,,,,,,,,,,,,,,,,,,,,,,,,,,,,,,,,,,,,,,,,,,,,,,,,,,,,,,,,,,,,,,,,,,,,,,,,,,,,,,,,,,,,,,,,,,,,,,,,,,,,,,,,,,,,,,,,,,,,,,
,,,,,,5e58f7ebe74f460f89b26ca9,62bbfab7847cd819c244688b,2022-06-29_09h11.10.673,Colour_Asymmetry_Pilot,2022.1.3,Win32,59.37184587,62bbe60bf3d75ef465d3e404,0,128,128,12,1,threeone,,,,,,,,,,,,,,,,,,,,,,,,,,,,,,,,,,,,,,,,,,,,,,,,,,,,,,,,,,,,,,,,,,,,,,,,,,,,,,,,,,,,,,,,,,,,,,,,,,,,,,,,,,,,,,,,,,,,,,,,,,,,,,,,,,,,,,,,,,,,,,,,,,,,,,,,
,,,,,,5e58f7ebe74f460f89b26ca9,62bbfab7847cd819c244688b,2022-06-29_09h11.10.673,Colour_Asymmetry_Pilot,2022.1.3,Win32,59.37184587,62bbe60bf3d75ef465d3e404,0,129,129,59,1,twofour,,,,,,,,,,,,,,,,,,,,,,,,,,,,,,,,,,,,,,,,,,,,,,,,,,,,,,,,,,,,,,,,,,,,,,,,,,,,,,,,,,,,,,,,,,,,,,,,,,,,,,,,,,,,,,,,,,,,,,,,,,,,,,,,,,,,,,,,,,,,,,,,,,,,,,,,
,,,,,,5e58f7ebe74f460f89b26ca9,62bbfab7847cd819c244688b,2022-06-29_09h11.10.673,Colour_Asymmetry_Pilot,2022.1.3,Win32,59.37184587,62bbe60bf3d75ef465d3e404,0,130,130,71,1,fourthree,,,,,,,,,,,,,,,,,,,,,,,,,,,,,,,,,,,,,,,,,,,,,,,,,,,,,,,,,,,,,,,,,,,,,,,,,,,,,,,,,,,,,,,,,,,,,,,,,,,,,,,,,,,,,,,,,,,,,,,,,,,,,,,,,,,,,,,,,,,,,,,,,,,,,,,,
,,,,,,5e58f7ebe74f460f89b26ca9,62bbfab7847cd819c244688b,2022-06-29_09h11.10.673,Colour_Asymmetry_Pilot,2022.1.3,Win32,59.37184587,62bbe60bf3d75ef465d3e404,0,131,131,4,1,threeone,,,,,,,,,,,,,,,,,,,,,,,,,,,,,,,,,,,,,,,,,,,,,,,,,,,,,,,,,,,,,,,,,,,,,,,,,,,,,,,,,,,,,,,,,,,,,,,,,,,,,,,,,,,,,,,,,,,,,,,,,,,,,,,,,,,,,,,,,,,,,,,,,,,,,,,,
,,,,,,5e58f7ebe74f460f89b26ca9,62bbfab7847cd819c244688b,2022-06-29_09h11.10.673,Colour_Asymmetry_Pilot,2022.1.3,Win32,59.37184587,62bbe60bf3d75ef465d3e404,0,132,132,66,1,twoone,,,,,,,,,,,,,,,,,,,,,,,,,,,,,,,,,,,,,,,,,,,,,,,,,,,,,,,,,,,,,,,,,,,,,,,,,,,,,,,,,,,,,,,,,,,,,,,,,,,,,,,,,,,,,,,,,,,,,,,,,,,,,,,,,,,,,,,,,,,,,,,,,,,,,,,,
,,,,,,5e58f7ebe74f460f89b26ca9,62bbfab7847cd819c244688b,2022-06-29_09h11.10.673,Colour_Asymmetry_Pilot,2022.1.3,Win32,59.37184587,62bbe60bf3d75ef465d3e404,0,133,133,87,1,fourthree,,,,,,,,,,,,,,,,,,,,,,,,,,,,,,,,,,,,,,,,,,,,,,,,,,,,,,,,,,,,,,,,,,,,,,,,,,,,,,,,,,,,,,,,,,,,,,,,,,,,,,,,,,,,,,,,,,,,,,,,,,,,,,,,,,,,,,,,,,,,,,,,,,,,,,,,
,,,,,,5e58f7ebe74f460f89b26ca9,62bbfab7847cd819c244688b,2022-06-29_09h11.10.673,Colour_Asymmetry_Pilot,2022.1.3,Win32,59.37184587,62bbe60bf3d75ef465d3e404,0,134,134,18,1,twoone,,,,,,,,,,,,,,,,,,,,,,,,,,,,,,,,,,,,,,,,,,,,,,,,,,,,,,,,,,,,,,,,,,,,,,,,,,,,,,,,,,,,,,,,,,,,,,,,,,,,,,,,,,,,,,,,,,,,,,,,,,,,,,,,,,,,,,,,,,,,,,,,,,,,,,,,
,,,,,,5e58f7ebe74f460f89b26ca9,62bbfab7847cd819c244688b,2022-06-29_09h11.10.673,Colour_Asymmetry_Pilot,2022.1.3,Win32,59.37184587,62bbe60bf3d75ef465d3e404,0,135,135,106,1,twoone,,,,,,,,,,,,,,,,,,,,,,,,,,,,,,,,,,,,,,,,,,,,,,,,,,,,,,,,,,,,,,,,,,,,,,,,,,,,,,,,,,,,,,,,,,,,,,,,,,,,,,,,,,,,,,,,,,,,,,,,,,,,,,,,,,,,,,,,,,,,,,,,,,,,,,,,
,,,,,,5e58f7ebe74f460f89b26ca9,62bbfab7847cd819c244688b,2022-06-29_09h11.10.673,Colour_Asymmetry_Pilot,2022.1.3,Win32,59.37184587,62bbe60bf3d75ef465d3e404,0,136,136,23,1,fourthree,,,,,,,,,,,,,,,,,,,,,,,,,,,,,,,,,,,,,,,,,,,,,,,,,,,,,,,,,,,,,,,,,,,,,,,,,,,,,,,,,,,,,,,,,,,,,,,,,,,,,,,,,,,,,,,,,,,,,,,,,,,,,,,,,,,,,,,,,,,,,,,,,,,,,,,,
,,,,,,5e58f7ebe74f460f89b26ca9,62bbfab7847cd819c244688b,2022-06-29_09h11.10.673,Colour_Asymmetry_Pilot,2022.1.3,Win32,59.37184587,62bbe60bf3d75ef465d3e404,0,137,137,129,1,onethree,,,,,,,,,,,,,,,,,,,,,,,,,,,,,,,,,,,,,,,,,,,,,,,,,,,,,,,,,,,,,,,,,,,,,,,,,,,,,,,,,,,,,,,,,,,,,,,,,,,,,,,,,,,,,,,,,,,,,,,,,,,,,,,,,,,,,,,,,,,,,,,,,,,,,,,,
,,,,,,5e58f7ebe74f460f89b26ca9,62bbfab7847cd819c244688b,2022-06-29_09h11.10.673,Colour_Asymmetry_Pilot,2022.1.3,Win32,59.37184587,62bbe60bf3d75ef465d3e404,0,138,138,64,1,onetwo,,,,,,,,,,,,,,,,,,,,,,,,,,,,,,,,,,,,,,,,,,,,,,,,,,,,,,,,,,,,,,,,,,,,,,,,,,,,,,,,,,,,,,,,,,,,,,,,,,,,,,,,,,,,,,,,,,,,,,,,,,,,,,,,,,,,,,,,,,,,,,,,,,,,,,,,
,,,,,,5e58f7ebe74f460f89b26ca9,62bbfab7847cd819c244688b,2022-06-29_09h11.10.673,Colour_Asymmetry_Pilot,2022.1.3,Win32,59.37184587,62bbe60bf3d75ef465d3e404,0,139,139,94,1,fourtwo,,,,,,,,,,,,,,,,,,,,,,,,,,,,,,,,,,,,,,,,,,,,,,,,,,,,,,,,,,,,,,,,,,,,,,,,,,,,,,,,,,,,,,,,,,,,,,,,,,,,,,,,,,,,,,,,,,,,,,,,,,,,,,,,,,,,,,,,,,,,,,,,,,,,,,,,
,,,,,,5e58f7ebe74f460f89b26ca9,62bbfab7847cd819c244688b,2022-06-29_09h11.10.673,Colour_Asymmetry_Pilot,2022.1.3,Win32,59.37184587,62bbe60bf3d75ef465d3e404,0,140,140,151,1,fourthree,,,,,,,,,,,,,,,,,,,,,,,,,,,,,,,,,,,,,,,,,,,,,,,,,,,,,,,,,,,,,,,,,,,,,,,,,,,,,,,,,,,,,,,,,,,,,,,,,,,,,,,,,,,,,,,,,,,,,,,,,,,,,,,,,,,,,,,,,,,,,,,,,,,,,,,,
,,,,,,5e58f7ebe74f460f89b26ca9,62bbfab7847cd819c244688b,2022-06-29_09h11.10.673,Colour_Asymmetry_Pilot,2022.1.3,Win32,59.37184587,62bbe60bf3d75ef465d3e404,0,141,141,156,1,threeone,,,,,,,,,,,,,,,,,,,,,,,,,,,,,,,,,,,,,,,,,,,,,,,,,,,,,,,,,,,,,,,,,,,,,,,,,,,,,,,,,,,,,,,,,,,,,,,,,,,,,,,,,,,,,,,,,,,,,,,,,,,,,,,,,,,,,,,,,,,,,,,,,,,,,,,,
,,,,,,5e58f7ebe74f460f89b26ca9,62bbfab7847cd819c244688b,2022-06-29_09h11.10.673,Colour_Asymmetry_Pilot,2022.1.3,Win32,59.37184587,62bbe60bf3d75ef465d3e404,0,142,142,104,1,onetwo,,,,,,,,,,,,,,,,,,,,,,,,,,,,,,,,,,,,,,,,,,,,,,,,,,,,,,,,,,,,,,,,,,,,,,,,,,,,,,,,,,,,,,,,,,,,,,,,,,,,,,,,,,,,,,,,,,,,,,,,,,,,,,,,,,,,,,,,,,,,,,,,,,,,,,,,
,,,,,,5e58f7ebe74f460f89b26ca9,62bbfab7847cd819c244688b,2022-06-29_09h11.10.673,Colour_Asymmetry_Pilot,2022.1.3,Win32,59.37184587,62bbe60bf3d75ef465d3e404,0,143,143,119,1,fourthree,,,,,,,,,,,,,,,,,,,,,,,,,,,,,,,,,,,,,,,,,,,,,,,,,,,,,,,,,,,,,,,,,,,,,,,,,,,,,,,,,,,,,,,,,,,,,,,,,,,,,,,,,,,,,,,,,,,,,,,,,,,,,,,,,,,,,,,,,,,,,,,,,,,,,,,,
,,,,,,5e58f7ebe74f460f89b26ca9,62bbfab7847cd819c244688b,2022-06-29_09h11.10.673,Colour_Asymmetry_Pilot,2022.1.3,Win32,59.37184587,62bbe60bf3d75ef465d3e404,0,144,144,0,1,onetwo,,,,,,,,,,,,,,,,,,,,,,,,,,,,,,,,,,,,,,,,,,,,,,,,,,,,,,,,,,,,,,,,,,,,,,,,,,,,,,,,,,,,,,,,,,,,,,,,,,,,,,,,,,,,,,,,,,,,,,,,,,,,,,,,,,,,,,,,,,,,,,,,,,,,,,,,
,,,,,,5e58f7ebe74f460f89b26ca9,62bbfab7847cd819c244688b,2022-06-29_09h11.10.673,Colour_Asymmetry_Pilot,2022.1.3,Win32,59.37184587,62bbe60bf3d75ef465d3e404,0,145,145,48,1,onetwo,,,,,,,,,,,,,,,,,,,,,,,,,,,,,,,,,,,,,,,,,,,,,,,,,,,,,,,,,,,,,,,,,,,,,,,,,,,,,,,,,,,,,,,,,,,,,,,,,,,,,,,,,,,,,,,,,,,,,,,,,,,,,,,,,,,,,,,,,,,,,,,,,,,,,,,,
,,,,,,5e58f7ebe74f460f89b26ca9,62bbfab7847cd819c244688b,2022-06-29_09h11.10.673,Colour_Asymmetry_Pilot,2022.1.3,Win32,59.37184587,62bbe60bf3d75ef465d3e404,0,146,146,107,1,twofour,,,,,,,,,,,,,,,,,,,,,,,,,,,,,,,,,,,,,,,,,,,,,,,,,,,,,,,,,,,,,,,,,,,,,,,,,,,,,,,,,,,,,,,,,,,,,,,,,,,,,,,,,,,,,,,,,,,,,,,,,,,,,,,,,,,,,,,,,,,,,,,,,,,,,,,,
,,,,,,5e58f7ebe74f460f89b26ca9,62bbfab7847cd819c244688b,2022-06-29_09h11.10.673,Colour_Asymmetry_Pilot,2022.1.3,Win32,59.37184587,62bbe60bf3d75ef465d3e404,0,147,147,15,1,fourthree,,,,,,,,,,,,,,,,,,,,,,,,,,,,,,,,,,,,,,,,,,,,,,,,,,,,,,,,,,,,,,,,,,,,,,,,,,,,,,,,,,,,,,,,,,,,,,,,,,,,,,,,,,,,,,,,,,,,,,,,,,,,,,,,,,,,,,,,,,,,,,,,,,,,,,,,
,,,,,,5e58f7ebe74f460f89b26ca9,62bbfab7847cd819c244688b,2022-06-29_09h11.10.673,Colour_Asymmetry_Pilot,2022.1.3,Win32,59.37184587,62bbe60bf3d75ef465d3e404,0,148,148,10,1,twoone,,,,,,,,,,,,,,,,,,,,,,,,,,,,,,,,,,,,,,,,,,,,,,,,,,,,,,,,,,,,,,,,,,,,,,,,,,,,,,,,,,,,,,,,,,,,,,,,,,,,,,,,,,,,,,,,,,,,,,,,,,,,,,,,,,,,,,,,,,,,,,,,,,,,,,,,
,,,,,,5e58f7ebe74f460f89b26ca9,62bbfab7847cd819c244688b,2022-06-29_09h11.10.673,Colour_Asymmetry_Pilot,2022.1.3,Win32,59.37184587,62bbe60bf3d75ef465d3e404,0,149,149,149,1,threefour,,,,,,,,,,,,,,,,,,,,,,,,,,,,,,,,,,,,,,,,,,,,,,,,,,,,,,,,,,,,,,,,,,,,,,,,,,,,,,,,,,,,,,,,,,,,,,,,,,,,,,,,,,,,,,,,,,,,,,,,,,,,,,,,,,,,,,,,,,,,,,,,,,,,,,,,
,,,,,,5e58f7ebe74f460f89b26ca9,62bbfab7847cd819c244688b,2022-06-29_09h11.10.673,Colour_Asymmetry_Pilot,2022.1.3,Win32,59.37184587,62bbe60bf3d75ef465d3e404,0,150,150,115,1,twofour,,,,,,,,,,,,,,,,,,,,,,,,,,,,,,,,,,,,,,,,,,,,,,,,,,,,,,,,,,,,,,,,,,,,,,,,,,,,,,,,,,,,,,,,,,,,,,,,,,,,,,,,,,,,,,,,,,,,,,,,,,,,,,,,,,,,,,,,,,,,,,,,,,,,,,,,
,,,,,,5e58f7ebe74f460f89b26ca9,62bbfab7847cd819c244688b,2022-06-29_09h11.10.673,Colour_Asymmetry_Pilot,2022.1.3,Win32,59.37184587,62bbe60bf3d75ef465d3e404,0,151,151,76,1,threeone,,,,,,,,,,,,,,,,,,,,,,,,,,,,,,,,,,,,,,,,,,,,,,,,,,,,,,,,,,,,,,,,,,,,,,,,,,,,,,,,,,,,,,,,,,,,,,,,,,,,,,,,,,,,,,,,,,,,,,,,,,,,,,,,,,,,,,,,,,,,,,,,,,,,,,,,
,,,,,,5e58f7ebe74f460f89b26ca9,62bbfab7847cd819c244688b,2022-06-29_09h11.10.673,Colour_Asymmetry_Pilot,2022.1.3,Win32,59.37184587,62bbe60bf3d75ef465d3e404,0,152,152,126,1,fourtwo,,,,,,,,,,,,,,,,,,,,,,,,,,,,,,,,,,,,,,,,,,,,,,,,,,,,,,,,,,,,,,,,,,,,,,,,,,,,,,,,,,,,,,,,,,,,,,,,,,,,,,,,,,,,,,,,,,,,,,,,,,,,,,,,,,,,,,,,,,,,,,,,,,,,,,,,
,,,,,,5e58f7ebe74f460f89b26ca9,62bbfab7847cd819c244688b,2022-06-29_09h11.10.673,Colour_Asymmetry_Pilot,2022.1.3,Win32,59.37184587,62bbe60bf3d75ef465d3e404,0,153,153,105,1,onethree,,,,,,,,,,,,,,,,,,,,,,,,,,,,,,,,,,,,,,,,,,,,,,,,,,,,,,,,,,,,,,,,,,,,,,,,,,,,,,,,,,,,,,,,,,,,,,,,,,,,,,,,,,,,,,,,,,,,,,,,,,,,,,,,,,,,,,,,,,,,,,,,,,,,,,,,
,,,,,,5e58f7ebe74f460f89b26ca9,62bbfab7847cd819c244688b,2022-06-29_09h11.10.673,Colour_Asymmetry_Pilot,2022.1.3,Win32,59.37184587,62bbe60bf3d75ef465d3e404,0,154,154,41,1,onethree,,,,,,,,,,,,,,,,,,,,,,,,,,,,,,,,,,,,,,,,,,,,,,,,,,,,,,,,,,,,,,,,,,,,,,,,,,,,,,,,,,,,,,,,,,,,,,,,,,,,,,,,,,,,,,,,,,,,,,,,,,,,,,,,,,,,,,,,,,,,,,,,,,,,,,,,
,,,,,,5e58f7ebe74f460f89b26ca9,62bbfab7847cd819c244688b,2022-06-29_09h11.10.673,Colour_Asymmetry_Pilot,2022.1.3,Win32,59.37184587,62bbe60bf3d75ef465d3e404,0,155,155,68,1,threeone,,,,,,,,,,,,,,,,,,,,,,,,,,,,,,,,,,,,,,,,,,,,,,,,,,,,,,,,,,,,,,,,,,,,,,,,,,,,,,,,,,,,,,,,,,,,,,,,,,,,,,,,,,,,,,,,,,,,,,,,,,,,,,,,,,,,,,,,,,,,,,,,,,,,,,,,
,,,,,,5e58f7ebe74f460f89b26ca9,62bbfab7847cd819c244688b,2022-06-29_09h11.10.673,Colour_Asymmetry_Pilot,2022.1.3,Win32,59.37184587,62bbe60bf3d75ef465d3e404,0,156,156,110,1,fourtwo,,,,,,,,,,,,,,,,,,,,,,,,,,,,,,,,,,,,,,,,,,,,,,,,,,,,,,,,,,,,,,,,,,,,,,,,,,,,,,,,,,,,,,,,,,,,,,,,,,,,,,,,,,,,,,,,,,,,,,,,,,,,,,,,,,,,,,,,,,,,,,,,,,,,,,,,
,,,,,,5e58f7ebe74f460f89b26ca9,62bbfab7847cd819c244688b,2022-06-29_09h11.10.673,Colour_Asymmetry_Pilot,2022.1.3,Win32,59.37184587,62bbe60bf3d75ef465d3e404,0,157,157,121,1,onethree,,,,,,,,,,,,,,,,,,,,,,,,,,,,,,,,,,,,,,,,,,,,,,,,,,,,,,,,,,,,,,,,,,,,,,,,,,,,,,,,,,,,,,,,,,,,,,,,,,,,,,,,,,,,,,,,,,,,,,,,,,,,,,,,,,,,,,,,,,,,,,,,,,,,,,,,
,,,,,,5e58f7ebe74f460f89b26ca9,62bbfab7847cd819c244688b,2022-06-29_09h11.10.673,Colour_Asymmetry_Pilot,2022.1.3,Win32,59.37184587,62bbe60bf3d75ef465d3e404,0,158,158,37,1,threefour,,,,,,,,,,,,,,,,,,,,,,,,,,,,,,,,,,,,,,,,,,,,,,,,,,,,,,,,,,,,,,,,,,,,,,,,,,,,,,,,,,,,,,,,,,,,,,,,,,,,,,,,,,,,,,,,,,,,,,,,,,,,,,,,,,,,,,,,,,,,,,,,,,,,,,,,
,,,,,,5e58f7ebe74f460f89b26ca9,62bbfab7847cd819c244688b,2022-06-29_09h11.10.673,Colour_Asymmetry_Pilot,2022.1.3,Win32,59.37184587,62bbe60bf3d75ef465d3e404,0,159,159,108,1,threeone,,,,,,,,,,,,,,,,,,,,,,,,,,,,,,,,,,,,,,,,,,,,,,,,,,,,,,,,,,,,,,,,,,,,,,,,,,,,,,,,,,,,,,,,,,,,,,,,,,,,,,,,,,,,,,,,,,,,,,,,,,,,,,,,,,,,,,,,,,,,,,,,,,,,,,,,
,,,,,,5e58f7ebe74f460f89b26ca9,62bbfab7847cd819c244688b,2022-06-29_09h11.10.673,Colour_Asymmetry_Pilot,2022.1.3,Win32,59.37184587,62bbe60bf3d75ef465d3e404,0,160,160,85,1,threefour,,,,,,,,,,,,,,,,,,,,,,,,,,,,,,,,,,,,,,,,,,,,,,,,,,,,,,,,,,,,,,,,,,,,,,,,,,,,,,,,,,,,,,,,,,,,,,,,,,,,,,,,,,,,,,,,,,,,,,,,,,,,,,,,,,,,,,,,,,,,,,,,,,,,,,,,
,,,,,,5e58f7ebe74f460f89b26ca9,62bbfab7847cd819c244688b,2022-06-29_09h11.10.673,Colour_Asymmetry_Pilot,2022.1.3,Win32,59.37184587,62bbe60bf3d75ef465d3e404,0,161,161,159,1,fourthree,,,,,,,,,,,,,,,,,,,,,,,,,,,,,,,,,,,,,,,,,,,,,,,,,,,,,,,,,,,,,,,,,,,,,,,,,,,,,,,,,,,,,,,,,,,,,,,,,,,,,,,,,,,,,,,,,,,,,,,,,,,,,,,,,,,,,,,,,,,,,,,,,,,,,,,,
,,,,,,5e58f7ebe74f460f89b26ca9,62bbfab7847cd819c244688b,2022-06-29_09h11.10.673,Colour_Asymmetry_Pilot,2022.1.3,Win32,59.37184587,62bbe60bf3d75ef465d3e404,,,,,,,space,3.9512,space,33.889,space,31.9361,space,9.7198,space,28.756,space,5.9142,"[0.9372,0.20779999999999998,0.2704]",onetwo,"[0.19199999999999995,0.18419999999999992,0.5136000000000001]",-4,10.4737,-52,93,1,0,0,response7disk_5,-1,1,1,0,0,rectangle_8,-1,1,1,0,0,3,-1,1,1,0,0,0,0,0,0,1,,,,,,,,,,,,,,,,,,,,,,,,,,,,,,,,,,,,,,,,,,,,,,,,,,,,,,,,,,,,,,,,,,,,,,,,,,,,,,,,,,,,,,,,,,,,,,,,,,,,,,,,,,,
,,,,,,5e58f7ebe74f460f89b26ca9,62bbfab7847cd819c244688b,2022-06-29_09h11.10.673,Colour_Asymmetry_Pilot,2022.1.3,Win32,59.37184587,62bbe60bf3d75ef465d3e404,,,,,,,,,,,,,,,,,,,"[0.3568,-0.20799999999999996,-0.9844]",onethree,"[0.2784,-0.31000000000000005,-0.5452]",4,5.1646,44,92,1,0,0,response1disk_5,-5,2,1,0,0,rectangle_8,-5,2,1,0,0,3,-5,2,1,0,0,1,0,1,0,1,,,,,,,,,,,,,,,,,,,,,,,,,,,,,,,,,,,,,,,,,,,,,,,,,,,,,,,,,,,,,,,,,,,,,,,,,,,,,,,,,,,,,,,,,,,,,,,,,,,,,,,,,,,
,,,,,,5e58f7ebe74f460f89b26ca9,62bbfab7847cd819c244688b,2022-06-29_09h11.10.673,Colour_Asymmetry_Pilot,2022.1.3,Win32,59.37184587,62bbe60bf3d75ef465d3e404,,,,,,,,,,,,,,,,,,,"[-0.8982,-0.37259999999999993,0.2784]",fourtwo,"[-0.06680000000000008,-0.45100000000000007,-0.906]",-4,1.7332,-41,85,1,0,0,response7disk_5,1,1,1,0,0,rectangle_8,72,38,1,0,0,3,-1,2,1,0,0,2,0,2,0,1,response1disk_7,6,rectangle_4,,,,,,,,,,,,,,,,,,,,,,,,,,,,,,,,,,,,,,,,,,,,,,,,,,,,,,,,,,,,,,,,,,,,,,,,,,,,,,,,,,,,,,,,,,,,,,,,,,,,,,,,
,,,,,,5e58f7ebe74f460f89b26ca9,62bbfab7847cd819c244688b,2022-06-29_09h11.10.673,Colour_Asymmetry_Pilot,2022.1.3,Win32,59.37184587,62bbe60bf3d75ef465d3e404,,,,,,,,,,,,,,,,,,,"[-0.9688,-0.38039999999999996,-0.41979999999999995]",onethree,"[0.9372,0.9450000000000001,0.8980000000000001]",-4,1.5634,-41,85,1,0,0,response7disk_5,-4,-1,1,0,0,rectangle_8,-4,-1,1,0,0,3,-4,-1,1,0,0,3,0,3,0,1,,,,,,,,,,,,,,,,,,,,,,,,,,,,,,,,,,,,,,,,,,,,,,,,,,,,,,,,,,,,,,,,,,,,,,,,,,,,,,,,,,,,,,,,,,,,,,,,,,,,,,,,,,,
,,,,,,5e58f7ebe74f460f89b26ca9,62bbfab7847cd819c244688b,2022-06-29_09h11.10.673,Colour_Asymmetry_Pilot,2022.1.3,Win32,59.37184587,62bbe60bf3d75ef465d3e404,,,,,,,,,,,,,,,,,,,"[-0.050999999999999934,-0.6706000000000001,-0.804]",threefour,"[0.6547999999999998,-0.043199999999999905,-0.011800000000000033]",2,3.847,89,-37,1,0,0,response3disk_5,-3,0,1,0,0,rectangle_8,-3,0,1,0,0,3,-3,0,1,0,0,4,0,4,0,1,,,,,,,,,,,,,,,,,,,,,,,,,,,,,,,,,,,,,,,,,,,,,,,,,,,,,,,,,,,,,,,,,,,,,,,,,,,,,,,,,,,,,,,,,,,,,,,,,,,,,,,,,,,
,,,,,,5e58f7ebe74f460f89b26ca9,62bbfab7847cd819c244688b,2022-06-29_09h11.10.673,Colour_Asymmetry_Pilot,2022.1.3,Win32,59.37184587,62bbe60bf3d75ef465d3e404,,,,,,,,,,,,,,,,,,,"[-0.17659999999999998,-0.2864,-0.8354]",onethree,"[-0.4902000000000001,0.2704,-0.45899999999999996]",-3,4.4324,-78,50,1,0,0,response7disk_5,2,3,1,0,0,rectangle_8,2,3,1,0,0,3,2,3,1,0,0,5,0,5,0,1,,,,,,,,,,,,,,,,,,,,,,,,,,,,,,,,,,,,,,,,,,,,,,,,,,,,,,,,,,,,,,,,,,,,,,,,,,,,,,,,,,,,,,,,,,,,,,,,,,,,,,,,,,,
,,,,,,5e58f7ebe74f460f89b26ca9,62bbfab7847cd819c244688b,2022-06-29_09h11.10.673,Colour_Asymmetry_Pilot,2022.1.3,Win32,59.37184587,62bbe60bf3d75ef465d3e404,,,,,,,,,,,,,,,,,,,"[-0.4982,-0.2942,-0.0354000000000001]",onethree,"[0.40379999999999994,0.09000000000000008,0.44300000000000006]",-4,2.1226,-32,85,1,0,0,response7disk_5,5,-1,1,0,0,rectangle_8,5,-1,1,0,0,3,5,-1,1,0,0,6,0,6,0,1,,,,,,,,,,,,,,,,,,,,,,,,,,,,,,,,,,,,,,,,,,,,,,,,,,,,,,,,,,,,,,,,,,,,,,,,,,,,,,,,,,,,,,,,,,,,,,,,,,,,,,,,,,,
,,,,,,5e58f7ebe74f460f89b26ca9,62bbfab7847cd819c244688b,2022-06-29_09h11.10.673,Colour_Asymmetry_Pilot,2022.1.3,Win32,59.37184587,62bbe60bf3d75ef465d3e404,,,,,,,,,,,,,,,,,,,,onethree,,-4,1.4825,,,,,,,,,,,,,,,,,,,,,,,,,,,,,,,,space,4.6993,"[0.8274000000000001,-0.5844,-0.9452]","[-0.5452,-0.608,0.2470000000000001]",-45,64,1,0,0,response7disk,-2,-3,1,0,0,rectangle,-2,-3,1,0,0,,1,0.0047,0,-2,-3,1,0,0,0,0,0,35,1,35,first,,,,,,,,,,,,,,,,,,,,,,,,,,,,,,,,,,,,,,,,,,,,,,,,,,,,,,,,,,,,,,,,,,,
,,,,,,5e58f7ebe74f460f89b26ca9,62bbfab7847cd819c244688b,2022-06-29_09h11.10.673,Colour_Asymmetry_Pilot,2022.1.3,Win32,59.37184587,62bbe60bf3d75ef465d3e404,,,,,,,,,,,,,,,,,,,,threefour,,-4,0.7846,,,,,,,,,,,,,,,,,,,,,,,,,,,,,,,,,,"[0.8115999999999999,-0.0040000000000000036,-0.09819999999999995]","[-0.4668,-0.8746,-0.2942]",-41,87,1,0,0,response7disk,1,4,1,0,0,rectangle,1,4,1,0,0,,3,0.0042,0,1,4,1,0,0,0,1,1,2,1,2,first,,,,,,,,,,,,,,,,,,,,,,,,,,,,,,,,,,,,,,,,,,,,,,,,,,,,,,,,,,,,,,,,,,,
,,,,,,5e58f7ebe74f460f89b26ca9,62bbfab7847cd819c244688b,2022-06-29_09h11.10.673,Colour_Asymmetry_Pilot,2022.1.3,Win32,59.37184587,62bbe60bf3d75ef465d3e404,,,,,,,,,,,,,,,,,,,,onetwo,,-4,0.7003,,,,,,,,,,,,,,,,,,,,,,,,,,,,,,,,,,"[0.37240000000000006,0.4980000000000002,-0.2864]","[-0.9216,-0.5529999999999999,-0.3962]",-43,78,1,0,0,response7disk,-3,-3,1,0,0,rectangle,-3,-3,1,0,0,,1,0.0023,0,-3,-3,1,0,0,0,2,2,103,1,22,second,,,,,,,,,,,,,,,,,,,,,,,,,,,,,,,,,,,,,,,,,,,,,,,,,,,,,,,,,,,,,,,,,,,
,,,,,,5e58f7ebe74f460f89b26ca9,62bbfab7847cd819c244688b,2022-06-29_09h11.10.673,Colour_Asymmetry_Pilot,2022.1.3,Win32,59.37184587,62bbe60bf3d75ef465d3e404,,,,,,,,,,,,,,,,,,,,threefour,,-4,0.6684,,,,,,,,,,,,,,,,,,,,,,,,,,,,,,,,,,"[-0.38039999999999996,-0.4276,-0.1452]","[0.3568,-0.20799999999999996,-0.9844]",-32,87,1,0,0,response7disk,-2,3,1,0,0,rectangle,-2,3,1,0,0,,3,0.0022,0,-2,3,1,0,0,0,3,3,91,1,10,second,,,,,,,,,,,,,,,,,,,,,,,,,,,,,,,,,,,,,,,,,,,,,,,,,,,,,,,,,,,,,,,,,,,
,,,,,,5e58f7ebe74f460f89b26ca9,62bbfab7847cd819c244688b,2022-06-29_09h11.10.673,Colour_Asymmetry_Pilot,2022.1.3,Win32,59.37184587,62bbe60bf3d75ef465d3e404,,,,,,,,,,,,,,,,,,,,onethree,,-4,0.6726,,,,,,,,,,,,,,,,,,,,,,,,,,,,,,,,,,"[0.22340000000000004,-0.9296,-0.7884]","[-0.9216,-0.5529999999999999,-0.3962]",-43,86,1,0,0,response7disk,0,-5,1,0,0,rectangle,81,39,1,0,0,3,3,3.3302,1,-3,0,1,0,0,0,4,4,36,1,36,first,response1disk_3,rectangle,,,,,,,,,,,,,,,,,,,,,,,,,,,,,,,,,,,,,,,,,,,,,,,,,,,,,,,,,,,,,,,,,
,,,,,,5e58f7ebe74f460f89b26ca9,62bbfab7847cd819c244688b,2022-06-29_09h11.10.673,Colour_Asymmetry_Pilot,2022.1.3,Win32,59.37184587,62bbe60bf3d75ef465d3e404,,,,,,,,,,,,,,,,,,,,onethree,,-3,1.0537,,,,,,,,,,,,,,,,,,,,,,,,,,,,,,,,,,"[0.19199999999999995,0.18419999999999992,0.5136000000000001]","[0.09799999999999986,-0.24719999999999998,0.15280000000000005]",-83,40,1,0,0,response7disk,1,-2,1,0,0,rectangle,1,-2,1,0,0,3,3,0.0005,0,1,-2,1,0,0,0,5,5,0,1,0,first,,,,,,,,,,,,,,,,,,,,,,,,,,,,,,,,,,,,,,,,,,,,,,,,,,,,,,,,,,,,,,,,,,,
,,,,,,5e58f7ebe74f460f89b26ca9,62bbfab7847cd819c244688b,2022-06-29_09h11.10.673,Colour_Asymmetry_Pilot,2022.1.3,Win32,59.37184587,62bbe60bf3d75ef465d3e404,,,,,,,,,,,,,,,,,,,,twofour,,-4,0.7708,,,,,,,,,,,,,,,,,,,,,,,,,,,,,,,,,,"[0.22340000000000004,-0.9296,-0.7884]","[0.9213999999999998,0.6391999999999998,-0.9922]",-39,93,1,0,0,response7disk,-2,0,1,0,0,rectangle,-2,0,1,0,0,3,1,0.0021,0,-2,0,1,0,0,0,6,6,148,1,67,second,,,,,,,,,,,,,,,,,,,,,,,,,,,,,,,,,,,,,,,,,,,,,,,,,,,,,,,,,,,,,,,,,,,
,,,,,,5e58f7ebe74f460f89b26ca9,62bbfab7847cd819c244688b,2022-06-29_09h11.10.673,Colour_Asymmetry_Pilot,2022.1.3,Win32,59.37184587,62bbe60bf3d75ef465d3e404,,,,,,,,,,,,,,,,,,,,twofour,,2,2.6487,,,,,,,,,,,,,,,,,,,,,,,,,,,,,,,,,,"[-0.26280000000000003,-0.4746,-0.2158]","[-0.9688,-0.4902000000000001,-0.12159999999999993]",84,-32,1,0,0,response3disk,4,2,1,0,0,rectangle,4,2,1,0,0,3,3,0.0017,0,4,2,1,0,0,0,7,7,32,1,32,first,,,,,,,,,,,,,,,,,,,,,,,,,,,,,,,,,,,,,,,,,,,,,,,,,,,,,,,,,,,,,,,,,,,
,,,,,,5e58f7ebe74f460f89b26ca9,62bbfab7847cd819c244688b,2022-06-29_09h11.10.673,Colour_Asymmetry_Pilot,2022.1.3,Win32,59.37184587,62bbe60bf3d75ef465d3e404,,,,,,,,,,,,,,,,,,,,fourtwo,,-4,0.9025,,,,,,,,,,,,,,,,,,,,,,,,,,,,,,,,,,"[0.04299999999999993,0.16060000000000008,-0.6628000000000001]","[-0.9138,-0.5296000000000001,-0.5529999999999999]",-31,77,1,0,0,response7disk,-2,3,1,0,0,rectangle,-2,3,1,0,0,3,1,0.0026,0,-2,3,1,0,0,0,8,8,95,1,14,second,,,,,,,,,,,,,,,,,,,,,,,,,,,,,,,,,,,,,,,,,,,,,,,,,,,,,,,,,,,,,,,,,,,
,,,,,,5e58f7ebe74f460f89b26ca9,62bbfab7847cd819c244688b,2022-06-29_09h11.10.673,Colour_Asymmetry_Pilot,2022.1.3,Win32,59.37184587,62bbe60bf3d75ef465d3e404,,,,,,,,,,,,,,,,,,,,fourthree,,-4,0.5186,,,,,,,,,,,,,,,,,,,,,,,,,,,,,,,,,,"[-0.9138,-0.5296000000000001,-0.5529999999999999]","[0.796,0.2156,-0.27859999999999996]",-53,75,1,0,0,response7disk,-4,-4,1,0,0,rectangle,-4,-4,1,0,0,3,1,0.0003,0,-4,-4,1,0,0,0,9,9,63,1,63,first,,,,,,,,,,,,,,,,,,,,,,,,,,,,,,,,,,,,,,,,,,,,,,,,,,,,,,,,,,,,,,,,,,,
,,,,,,5e58f7ebe74f460f89b26ca9,62bbfab7847cd819c244688b,2022-06-29_09h11.10.673,Colour_Asymmetry_Pilot,2022.1.3,Win32,59.37184587,62bbe60bf3d75ef465d3e404,,,,,,,,,,,,,,,,,,,,twofour,,-4,0.7529,,,,,,,,,,,,,,,,,,,,,,,,,,,,,,,,,,"[-0.4746,-0.0354000000000001,0.5449999999999999]","[0.9842,0.7409999999999999,-0.6628000000000001]",-40,73,1,0,0,response7disk,-3,-3,1,0,0,rectangle,-3,-3,1,0,0,3,2,0.0023,0,-3,-3,1,0,0,0,10,10,115,1,34,second,,,,,,,,,,,,,,,,,,,,,,,,,,,,,,,,,,,,,,,,,,,,,,,,,,,,,,,,,,,,,,,,,,,
,,,,,,5e58f7ebe74f460f89b26ca9,62bbfab7847cd819c244688b,2022-06-29_09h11.10.673,Colour_Asymmetry_Pilot,2022.1.3,Win32,59.37184587,62bbe60bf3d75ef465d3e404,,,,,,,,,,,,,,,,,,,,threefour,,-4,0.5522,,,,,,,,,,,,,,,,,,,,,,,,,,,,,,,,,,"[0.8115999999999999,-0.0040000000000000036,-0.09819999999999995]","[-0.6235999999999999,-0.6786,-0.08239999999999992]",-33,69,1,0,0,response7disk,-5,-8,1,0,0,rectangle,-5,-8,1,0,0,3,2,0.0006,0,-5,-8,1,0,0,0,11,11,17,1,17,first,,,,,,,,,,,,,,,,,,,,,,,,,,,,,,,,,,,,,,,,,,,,,,,,,,,,,,,,,,,,,,,,,,,
,,,,,,5e58f7ebe74f460f89b26ca9,62bbfab7847cd819c244688b,2022-06-29_09h11.10.673,Colour_Asymmetry_Pilot,2022.1.3,Win32,59.37184587,62bbe60bf3d75ef465d3e404,,,,,,,,,,,,,,,,,,,,twofour,,-4,0.5005,,,,,,,,,,,,,,,,,,,,,,,,,,,,,,,,,,"[-0.2942,-0.7648,-0.7492000000000001]","[-0.48240000000000005,0.3175999999999999,0.2156]",-36,70,1,0,0,response7disk,-1,0,1,0,0,rectangle,-1,0,1,0,0,3,2,0.0004,0,-1,0,1,0,0,0,12,12,46,1,46,first,,,,,,,,,,,,,,,,,,,,,,,,,,,,,,,,,,,,,,,,,,,,,,,,,,,,,,,,,,,,,,,,,,,
,,,,,,5e58f7ebe74f460f89b26ca9,62bbfab7847cd819c244688b,2022-06-29_09h11.10.673,Colour_Asymmetry_Pilot,2022.1.3,Win32,59.37184587,62bbe60bf3d75ef465d3e404,,,,,,,,,,,,,,,,,,,,fourthree,,-4,1.0322,,,,,,,,,,,,,,,,,,,,,,,,,,,,,,,,,,"[0.9763999999999999,0.8588,-0.05900000000000005]","[0.09799999999999986,-0.24719999999999998,0.15280000000000005]",-41,83,1,0,0,response7disk,5,-5,1,0,0,rectangle,5,-5,1,0,0,3,3,0.0017,0,5,-5,1,0,0,0,13,13,137,1,56,second,,,,,,,,,,,,,,,,,,,,,,,,,,,,,,,,,,,,,,,,,,,,,,,,,,,,,,,,,,,,,,,,,,,
,,,,,,5e58f7ebe74f460f89b26ca9,62bbfab7847cd819c244688b,2022-06-29_09h11.10.673,Colour_Asymmetry_Pilot,2022.1.3,Win32,59.37184587,62bbe60bf3d75ef465d3e404,,,,,,,,,,,,,,,,,,,,fourtwo,,4,1.1659,,,,,,,,,,,,,,,,,,,,,,,,,,,,,,,,,,"[-0.17659999999999998,-0.2864,-0.8354]","[-0.06680000000000008,-0.45100000000000007,-0.906]",50,93,1,0,0,response1disk,-1,-2,1,0,0,rectangle,-1,-2,1,0,0,3,1,0.0021,0,-1,-2,1,0,0,0,14,14,40,1,40,first,,,,,,,,,,,,,,,,,,,,,,,,,,,,,,,,,,,,,,,,,,,,,,,,,,,,,,,,,,,,,,,,,,,
,,,,,,5e58f7ebe74f460f89b26ca9,62bbfab7847cd819c244688b,2022-06-29_09h11.10.673,Colour_Asymmetry_Pilot,2022.1.3,Win32,59.37184587,62bbe60bf3d75ef465d3e404,,,,,,,,,,,,,,,,,,,,threefour,,-4,0.661,,,,,,,,,,,,,,,,,,,,,,,,,,,,,,,,,,"[0.4196,0.4665999999999999,0.3568]","[-0.8982,-0.37259999999999993,0.2784]",-45,95,1,0,0,response7disk,6,5,1,0,0,rectangle,6,5,1,0,0,3,1,0.0004,0,6,5,1,0,0,0,15,15,21,1,21,first,,,,,,,,,,,,,,,,,,,,,,,,,,,,,,,,,,,,,,,,,,,,,,,,,,,,,,,,,,,,,,,,,,,
,,,,,,5e58f7ebe74f460f89b26ca9,62bbfab7847cd819c244688b,2022-06-29_09h11.10.673,Colour_Asymmetry_Pilot,2022.1.3,Win32,59.37184587,62bbe60bf3d75ef465d3e404,,,,,,,,,,,,,,,,,,,,onethree,,-4,0.4967,,,,,,,,,,,,,,,,,,,,,,,,,,,,,,,,,,"[-0.9296,-0.12959999999999994,-0.043199999999999905]","[0.34099999999999997,0.5841999999999998,-0.9844]",-49,85,1,0,0,response7disk,0,-3,1,0,0,rectangle,45,-89,1,0,0,1,1,2.9309,1,0,4,1,0,0,0,16,16,159,1,78,second,response3disk_3,rectangle,,,,,,,,,,,,,,,,,,,,,,,,,,,,,,,,,,,,,,,,,,,,,,,,,,,,,,,,,,,,,,,,,
,,,,,,5e58f7ebe74f460f89b26ca9,62bbfab7847cd819c244688b,2022-06-29_09h11.10.673,Colour_Asymmetry_Pilot,2022.1.3,Win32,59.37184587,62bbe60bf3d75ef465d3e404,,,,,,,,,,,,,,,,,,,,twofour,,-2,1.1016,,,,,,,,,,,,,,,,,,,,,,,,,,,,,,,,,,"[-0.011800000000000033,-0.906,-0.45100000000000007]","[0.796,0.2156,-0.27859999999999996]",-67,-28,1,0,0,response5disk,-6,3,1,0,0,rectangle,-6,3,1,0,0,1,2,0.0021,0,-6,3,1,0,0,0,17,17,96,1,15,second,,,,,,,,,,,,,,,,,,,,,,,,,,,,,,,,,,,,,,,,,,,,,,,,,,,,,,,,,,,,,,,,,,,
,,,,,,5e58f7ebe74f460f89b26ca9,62bbfab7847cd819c244688b,2022-06-29_09h11.10.673,Colour_Asymmetry_Pilot,2022.1.3,Win32,59.37184587,62bbe60bf3d75ef465d3e404,,,,,,,,,,,,,,,,,,,,onetwo,,-4,0.5147,,,,,,,,,,,,,,,,,,,,,,,,,,,,,,,,,,"[0.9372,0.20779999999999998,0.2704]","[-0.20799999999999996,-0.655,-0.01980000000000004]",-35,73,1,0,0,response7disk,4,-1,1,0,0,rectangle,4,-1,1,0,0,1,2,0.0005,0,4,-1,1,0,0,0,18,18,134,1,53,second,,,,,,,,,,,,,,,,,,,,,,,,,,,,,,,,,,,,,,,,,,,,,,,,,,,,,,,,,,,,,,,,,,,
,,,,,,5e58f7ebe74f460f89b26ca9,62bbfab7847cd819c244688b,2022-06-29_09h11.10.673,Colour_Asymmetry_Pilot,2022.1.3,Win32,59.37184587,62bbe60bf3d75ef465d3e404,,,,,,,,,,,,,,,,,,,,twofour,,-4,0.5276,,,,,,,,,,,,,,,,,,,,,,,,,,,,,,,,,,"[-0.9138,-0.5296000000000001,-0.5529999999999999]","[0.9842,0.7409999999999999,-0.6628000000000001]",-32,79,1,0,0,response7disk,-1,-1,1,0,0,rectangle,-1,-1,1,0,0,1,1,0.0022,0,-1,-1,1,0,0,0,19,19,61,1,61,first,,,,,,,,,,,,,,,,,,,,,,,,,,,,,,,,,,,,,,,,,,,,,,,,,,,,,,,,,,,,,,,,,,,
,,,,,,5e58f7ebe74f460f89b26ca9,62bbfab7847cd819c244688b,2022-06-29_09h11.10.673,Colour_Asymmetry_Pilot,2022.1.3,Win32,59.37184587,62bbe60bf3d75ef465d3e404,,,,,,,,,,,,,,,,,,,,onethree,,-2,1.1329,,,,,,,,,,,,,,,,,,,,,,,,,,,,,,,,,,"[0.05879999999999996,0.2784,0.5841999999999998]","[-0.9138,-0.5296000000000001,-0.5529999999999999]",-77,-46,1,0,0,response5disk,4,2,1,0,0,rectangle,4,2,1,0,0,1,3,0.0026,0,4,2,1,0,0,0,20,20,82,1,1,second,,,,,,,,,,,,,,,,,,,,,,,,,,,,,,,,,,,,,,,,,,,,,,,,,,,,,,,,,,,,,,,,,,,
