trials.thisRepN,trials.thisTrialN,trials.thisN,trials.thisIndex,trials.ran,Colourcodes,participant,session,date,expName,psychopyVersion,OS,frameRate,study_id,trials_4.thisRepN,trials_4.thisTrialN,trials_4.thisN,trials_4.thisIndex,trials_4.ran,StimulusPos,key_resp.keys,key_resp.rt,key_resp_2.keys,key_resp_2.rt,key_resp_15.keys,key_resp_15.rt,key_resp_17.keys,key_resp_17.rt,key_resp_9.keys,key_resp_9.rt,key_resp_10.keys,key_resp_10.rt,Circle1_col,Ecc,Circle2_col,similarity,response_time,mouse_5.x,mouse_5.y,mouse_5.leftButton,mouse_5.midButton,mouse_5.rightButton,mouse_5.clicked_name,mouse_10.x,mouse_10.y,mouse_10.leftButton,mouse_10.midButton,mouse_10.rightButton,mouse_10.clicked_name,mouse_7.x,mouse_7.y,mouse_7.leftButton,mouse_7.midButton,mouse_7.rightButton,catchnumberprac,mouse_6.x,mouse_6.y,mouse_6.leftButton,mouse_6.midButton,mouse_6.rightButton,duringprac.thisRepN,duringprac.thisTrialN,duringprac.thisN,duringprac.thisIndex,duringprac.ran,mouse_7.clicked_name,catchprac,mouse_6.clicked_name,key_resp_22.keys,key_resp_22.rt,Circle1_colour,Circle2_colour,mouse.x,mouse.y,mouse.leftButton,mouse.midButton,mouse.rightButton,mouse.clicked_name,mouse_2.x,mouse_2.y,mouse_2.leftButton,mouse_2.midButton,mouse_2.rightButton,mouse_2.clicked_name,mouse_3.x,mouse_3.y,mouse_3.leftButton,mouse_3.midButton,mouse_3.rightButton,catchresponse,catchnumber,response_time_catch,Catch,mouse_11.x,mouse_11.y,mouse_11.leftButton,mouse_11.midButton,mouse_11.rightButton,trials_2.thisRepN,trials_2.thisTrialN,trials_2.thisN,trials_2.thisIndex,trials_2.ran,Colourpair,Temporder,mouse_3.clicked_name,mouse_11.clicked_name,trials_3.thisRepN,trials_3.thisTrialN,trials_3.thisN,trials_3.thisIndex,trials_3.ran,key_resp_instr_Ishi.keys,key_resp_instr_Ishi.rt,Ishi_trial_keyresp.keys,Ishi_trial_keyresp.rt,Ishi_textbox.text,Ishi_loop.thisRepN,Ishi_loop.thisTrialN,Ishi_loop.thisN,Ishi_loop.thisIndex,Ishi_loop.ran,imageaddress,textbox.text,mouse_4.x,mouse_4.y,mouse_4.leftButton,mouse_4.midButton,mouse_4.rightButton,mouse_4.clicked_name,textbox_2.text,mouse_8.x,mouse_8.y,mouse_8.leftButton,mouse_8.midButton,mouse_8.rightButton,mouse_8.clicked_name,textbox_3.text,mouse_9.x,mouse_9.y,mouse_9.leftButton,mouse_9.midButton,mouse_9.rightButton,mouse_9.clicked_name,textbox_4.text,mouse_12.x,mouse_12.y,mouse_12.leftButton,mouse_12.midButton,mouse_12.rightButton,mouse_12.clicked_name,textbox_5.text,mouse_13.x,mouse_13.y,mouse_13.leftButton,mouse_13.midButton,mouse_13.rightButton,mouse_13.clicked_name,textbox_6.text,mouse_14.x,mouse_14.y,mouse_14.leftButton,mouse_14.midButton,mouse_14.rightButton,mouse_14.clicked_name,textbox_7.text,mouse_15.x,mouse_15.y,mouse_15.leftButton,mouse_15.midButton,mouse_15.rightButton,mouse_15.clicked_name
0,0,0,9,1,,60b9c8b91a02b297822a37d6,62bbfad0bd910250215f200d,2022-06-29_09h11.47.117,Colour_Asymmetry_Pilot,2022.1.3,Win32,60.17571308,62bbe60bf3d75ef465d3e404,,,,,,,,,,,,,,,,,,,,,,,,,,,,,,,,,,,,,,,,,,,,,,,,,,,,,,,,,,,,,,,,,,,,,,,,,,,,,,,,,,,,,,,,,,,,,,,,,,,,,,,,,,,,,,,,,,,,,,,,,,,,,,,,,,,,,,,,,,,,,,,,,,,,,,,,,,,,,,
0,1,1,22,1,,60b9c8b91a02b297822a37d6,62bbfad0bd910250215f200d,2022-06-29_09h11.47.117,Colour_Asymmetry_Pilot,2022.1.3,Win32,60.17571308,62bbe60bf3d75ef465d3e404,,,,,,,,,,,,,,,,,,,,,,,,,,,,,,,,,,,,,,,,,,,,,,,,,,,,,,,,,,,,,,,,,,,,,,,,,,,,,,,,,,,,,,,,,,,,,,,,,,,,,,,,,,,,,,,,,,,,,,,,,,,,,,,,,,,,,,,,,,,,,,,,,,,,,,,,,,,,,,
0,2,2,24,1,,60b9c8b91a02b297822a37d6,62bbfad0bd910250215f200d,2022-06-29_09h11.47.117,Colour_Asymmetry_Pilot,2022.1.3,Win32,60.17571308,62bbe60bf3d75ef465d3e404,,,,,,,,,,,,,,,,,,,,,,,,,,,,,,,,,,,,,,,,,,,,,,,,,,,,,,,,,,,,,,,,,,,,,,,,,,,,,,,,,,,,,,,,,,,,,,,,,,,,,,,,,,,,,,,,,,,,,,,,,,,,,,,,,,,,,,,,,,,,,,,,,,,,,,,,,,,,,,
0,3,3,32,1,,60b9c8b91a02b297822a37d6,62bbfad0bd910250215f200d,2022-06-29_09h11.47.117,Colour_Asymmetry_Pilot,2022.1.3,Win32,60.17571308,62bbe60bf3d75ef465d3e404,,,,,,,,,,,,,,,,,,,,,,,,,,,,,,,,,,,,,,,,,,,,,,,,,,,,,,,,,,,,,,,,,,,,,,,,,,,,,,,,,,,,,,,,,,,,,,,,,,,,,,,,,,,,,,,,,,,,,,,,,,,,,,,,,,,,,,,,,,,,,,,,,,,,,,,,,,,,,,
0,4,4,0,1,,60b9c8b91a02b297822a37d6,62bbfad0bd910250215f200d,2022-06-29_09h11.47.117,Colour_Asymmetry_Pilot,2022.1.3,Win32,60.17571308,62bbe60bf3d75ef465d3e404,,,,,,,,,,,,,,,,,,,,,,,,,,,,,,,,,,,,,,,,,,,,,,,,,,,,,,,,,,,,,,,,,,,,,,,,,,,,,,,,,,,,,,,,,,,,,,,,,,,,,,,,,,,,,,,,,,,,,,,,,,,,,,,,,,,,,,,,,,,,,,,,,,,,,,,,,,,,,,
0,5,5,79,1,,60b9c8b91a02b297822a37d6,62bbfad0bd910250215f200d,2022-06-29_09h11.47.117,Colour_Asymmetry_Pilot,2022.1.3,Win32,60.17571308,62bbe60bf3d75ef465d3e404,,,,,,,,,,,,,,,,,,,,,,,,,,,,,,,,,,,,,,,,,,,,,,,,,,,,,,,,,,,,,,,,,,,,,,,,,,,,,,,,,,,,,,,,,,,,,,,,,,,,,,,,,,,,,,,,,,,,,,,,,,,,,,,,,,,,,,,,,,,,,,,,,,,,,,,,,,,,,,
0,6,6,43,1,,60b9c8b91a02b297822a37d6,62bbfad0bd910250215f200d,2022-06-29_09h11.47.117,Colour_Asymmetry_Pilot,2022.1.3,Win32,60.17571308,62bbe60bf3d75ef465d3e404,,,,,,,,,,,,,,,,,,,,,,,,,,,,,,,,,,,,,,,,,,,,,,,,,,,,,,,,,,,,,,,,,,,,,,,,,,,,,,,,,,,,,,,,,,,,,,,,,,,,,,,,,,,,,,,,,,,,,,,,,,,,,,,,,,,,,,,,,,,,,,,,,,,,,,,,,,,,,,
0,7,7,60,1,,60b9c8b91a02b297822a37d6,62bbfad0bd910250215f200d,2022-06-29_09h11.47.117,Colour_Asymmetry_Pilot,2022.1.3,Win32,60.17571308,62bbe60bf3d75ef465d3e404,,,,,,,,,,,,,,,,,,,,,,,,,,,,,,,,,,,,,,,,,,,,,,,,,,,,,,,,,,,,,,,,,,,,,,,,,,,,,,,,,,,,,,,,,,,,,,,,,,,,,,,,,,,,,,,,,,,,,,,,,,,,,,,,,,,,,,,,,,,,,,,,,,,,,,,,,,,,,,
0,8,8,8,1,,60b9c8b91a02b297822a37d6,62bbfad0bd910250215f200d,2022-06-29_09h11.47.117,Colour_Asymmetry_Pilot,2022.1.3,Win32,60.17571308,62bbe60bf3d75ef465d3e404,,,,,,,,,,,,,,,,,,,,,,,,,,,,,,,,,,,,,,,,,,,,,,,,,,,,,,,,,,,,,,,,,,,,,,,,,,,,,,,,,,,,,,,,,,,,,,,,,,,,,,,,,,,,,,,,,,,,,,,,,,,,,,,,,,,,,,,,,,,,,,,,,,,,,,,,,,,,,,
0,9,9,90,1,,60b9c8b91a02b297822a37d6,62bbfad0bd910250215f200d,2022-06-29_09h11.47.117,Colour_Asymmetry_Pilot,2022.1.3,Win32,60.17571308,62bbe60bf3d75ef465d3e404,,,,,,,,,,,,,,,,,,,,,,,,,,,,,,,,,,,,,,,,,,,,,,,,,,,,,,,,,,,,,,,,,,,,,,,,,,,,,,,,,,,,,,,,,,,,,,,,,,,,,,,,,,,,,,,,,,,,,,,,,,,,,,,,,,,,,,,,,,,,,,,,,,,,,,,,,,,,,,
0,10,10,89,1,,60b9c8b91a02b297822a37d6,62bbfad0bd910250215f200d,2022-06-29_09h11.47.117,Colour_Asymmetry_Pilot,2022.1.3,Win32,60.17571308,62bbe60bf3d75ef465d3e404,,,,,,,,,,,,,,,,,,,,,,,,,,,,,,,,,,,,,,,,,,,,,,,,,,,,,,,,,,,,,,,,,,,,,,,,,,,,,,,,,,,,,,,,,,,,,,,,,,,,,,,,,,,,,,,,,,,,,,,,,,,,,,,,,,,,,,,,,,,,,,,,,,,,,,,,,,,,,,
0,11,11,15,1,,60b9c8b91a02b297822a37d6,62bbfad0bd910250215f200d,2022-06-29_09h11.47.117,Colour_Asymmetry_Pilot,2022.1.3,Win32,60.17571308,62bbe60bf3d75ef465d3e404,,,,,,,,,,,,,,,,,,,,,,,,,,,,,,,,,,,,,,,,,,,,,,,,,,,,,,,,,,,,,,,,,,,,,,,,,,,,,,,,,,,,,,,,,,,,,,,,,,,,,,,,,,,,,,,,,,,,,,,,,,,,,,,,,,,,,,,,,,,,,,,,,,,,,,,,,,,,,,
0,12,12,31,1,,60b9c8b91a02b297822a37d6,62bbfad0bd910250215f200d,2022-06-29_09h11.47.117,Colour_Asymmetry_Pilot,2022.1.3,Win32,60.17571308,62bbe60bf3d75ef465d3e404,,,,,,,,,,,,,,,,,,,,,,,,,,,,,,,,,,,,,,,,,,,,,,,,,,,,,,,,,,,,,,,,,,,,,,,,,,,,,,,,,,,,,,,,,,,,,,,,,,,,,,,,,,,,,,,,,,,,,,,,,,,,,,,,,,,,,,,,,,,,,,,,,,,,,,,,,,,,,,
0,13,13,26,1,,60b9c8b91a02b297822a37d6,62bbfad0bd910250215f200d,2022-06-29_09h11.47.117,Colour_Asymmetry_Pilot,2022.1.3,Win32,60.17571308,62bbe60bf3d75ef465d3e404,,,,,,,,,,,,,,,,,,,,,,,,,,,,,,,,,,,,,,,,,,,,,,,,,,,,,,,,,,,,,,,,,,,,,,,,,,,,,,,,,,,,,,,,,,,,,,,,,,,,,,,,,,,,,,,,,,,,,,,,,,,,,,,,,,,,,,,,,,,,,,,,,,,,,,,,,,,,,,
0,14,14,74,1,,60b9c8b91a02b297822a37d6,62bbfad0bd910250215f200d,2022-06-29_09h11.47.117,Colour_Asymmetry_Pilot,2022.1.3,Win32,60.17571308,62bbe60bf3d75ef465d3e404,,,,,,,,,,,,,,,,,,,,,,,,,,,,,,,,,,,,,,,,,,,,,,,,,,,,,,,,,,,,,,,,,,,,,,,,,,,,,,,,,,,,,,,,,,,,,,,,,,,,,,,,,,,,,,,,,,,,,,,,,,,,,,,,,,,,,,,,,,,,,,,,,,,,,,,,,,,,,,
0,15,15,56,1,,60b9c8b91a02b297822a37d6,62bbfad0bd910250215f200d,2022-06-29_09h11.47.117,Colour_Asymmetry_Pilot,2022.1.3,Win32,60.17571308,62bbe60bf3d75ef465d3e404,,,,,,,,,,,,,,,,,,,,,,,,,,,,,,,,,,,,,,,,,,,,,,,,,,,,,,,,,,,,,,,,,,,,,,,,,,,,,,,,,,,,,,,,,,,,,,,,,,,,,,,,,,,,,,,,,,,,,,,,,,,,,,,,,,,,,,,,,,,,,,,,,,,,,,,,,,,,,,
0,16,16,38,1,,60b9c8b91a02b297822a37d6,62bbfad0bd910250215f200d,2022-06-29_09h11.47.117,Colour_Asymmetry_Pilot,2022.1.3,Win32,60.17571308,62bbe60bf3d75ef465d3e404,,,,,,,,,,,,,,,,,,,,,,,,,,,,,,,,,,,,,,,,,,,,,,,,,,,,,,,,,,,,,,,,,,,,,,,,,,,,,,,,,,,,,,,,,,,,,,,,,,,,,,,,,,,,,,,,,,,,,,,,,,,,,,,,,,,,,,,,,,,,,,,,,,,,,,,,,,,,,,
0,17,17,36,1,,60b9c8b91a02b297822a37d6,62bbfad0bd910250215f200d,2022-06-29_09h11.47.117,Colour_Asymmetry_Pilot,2022.1.3,Win32,60.17571308,62bbe60bf3d75ef465d3e404,,,,,,,,,,,,,,,,,,,,,,,,,,,,,,,,,,,,,,,,,,,,,,,,,,,,,,,,,,,,,,,,,,,,,,,,,,,,,,,,,,,,,,,,,,,,,,,,,,,,,,,,,,,,,,,,,,,,,,,,,,,,,,,,,,,,,,,,,,,,,,,,,,,,,,,,,,,,,,
0,18,18,44,1,,60b9c8b91a02b297822a37d6,62bbfad0bd910250215f200d,2022-06-29_09h11.47.117,Colour_Asymmetry_Pilot,2022.1.3,Win32,60.17571308,62bbe60bf3d75ef465d3e404,,,,,,,,,,,,,,,,,,,,,,,,,,,,,,,,,,,,,,,,,,,,,,,,,,,,,,,,,,,,,,,,,,,,,,,,,,,,,,,,,,,,,,,,,,,,,,,,,,,,,,,,,,,,,,,,,,,,,,,,,,,,,,,,,,,,,,,,,,,,,,,,,,,,,,,,,,,,,,
0,19,19,49,1,,60b9c8b91a02b297822a37d6,62bbfad0bd910250215f200d,2022-06-29_09h11.47.117,Colour_Asymmetry_Pilot,2022.1.3,Win32,60.17571308,62bbe60bf3d75ef465d3e404,,,,,,,,,,,,,,,,,,,,,,,,,,,,,,,,,,,,,,,,,,,,,,,,,,,,,,,,,,,,,,,,,,,,,,,,,,,,,,,,,,,,,,,,,,,,,,,,,,,,,,,,,,,,,,,,,,,,,,,,,,,,,,,,,,,,,,,,,,,,,,,,,,,,,,,,,,,,,,
0,20,20,78,1,,60b9c8b91a02b297822a37d6,62bbfad0bd910250215f200d,2022-06-29_09h11.47.117,Colour_Asymmetry_Pilot,2022.1.3,Win32,60.17571308,62bbe60bf3d75ef465d3e404,,,,,,,,,,,,,,,,,,,,,,,,,,,,,,,,,,,,,,,,,,,,,,,,,,,,,,,,,,,,,,,,,,,,,,,,,,,,,,,,,,,,,,,,,,,,,,,,,,,,,,,,,,,,,,,,,,,,,,,,,,,,,,,,,,,,,,,,,,,,,,,,,,,,,,,,,,,,,,
0,21,21,92,1,,60b9c8b91a02b297822a37d6,62bbfad0bd910250215f200d,2022-06-29_09h11.47.117,Colour_Asymmetry_Pilot,2022.1.3,Win32,60.17571308,62bbe60bf3d75ef465d3e404,,,,,,,,,,,,,,,,,,,,,,,,,,,,,,,,,,,,,,,,,,,,,,,,,,,,,,,,,,,,,,,,,,,,,,,,,,,,,,,,,,,,,,,,,,,,,,,,,,,,,,,,,,,,,,,,,,,,,,,,,,,,,,,,,,,,,,,,,,,,,,,,,,,,,,,,,,,,,,
0,22,22,19,1,,60b9c8b91a02b297822a37d6,62bbfad0bd910250215f200d,2022-06-29_09h11.47.117,Colour_Asymmetry_Pilot,2022.1.3,Win32,60.17571308,62bbe60bf3d75ef465d3e404,,,,,,,,,,,,,,,,,,,,,,,,,,,,,,,,,,,,,,,,,,,,,,,,,,,,,,,,,,,,,,,,,,,,,,,,,,,,,,,,,,,,,,,,,,,,,,,,,,,,,,,,,,,,,,,,,,,,,,,,,,,,,,,,,,,,,,,,,,,,,,,,,,,,,,,,,,,,,,
0,23,23,91,1,,60b9c8b91a02b297822a37d6,62bbfad0bd910250215f200d,2022-06-29_09h11.47.117,Colour_Asymmetry_Pilot,2022.1.3,Win32,60.17571308,62bbe60bf3d75ef465d3e404,,,,,,,,,,,,,,,,,,,,,,,,,,,,,,,,,,,,,,,,,,,,,,,,,,,,,,,,,,,,,,,,,,,,,,,,,,,,,,,,,,,,,,,,,,,,,,,,,,,,,,,,,,,,,,,,,,,,,,,,,,,,,,,,,,,,,,,,,,,,,,,,,,,,,,,,,,,,,,
0,24,24,3,1,,60b9c8b91a02b297822a37d6,62bbfad0bd910250215f200d,2022-06-29_09h11.47.117,Colour_Asymmetry_Pilot,2022.1.3,Win32,60.17571308,62bbe60bf3d75ef465d3e404,,,,,,,,,,,,,,,,,,,,,,,,,,,,,,,,,,,,,,,,,,,,,,,,,,,,,,,,,,,,,,,,,,,,,,,,,,,,,,,,,,,,,,,,,,,,,,,,,,,,,,,,,,,,,,,,,,,,,,,,,,,,,,,,,,,,,,,,,,,,,,,,,,,,,,,,,,,,,,
0,25,25,34,1,,60b9c8b91a02b297822a37d6,62bbfad0bd910250215f200d,2022-06-29_09h11.47.117,Colour_Asymmetry_Pilot,2022.1.3,Win32,60.17571308,62bbe60bf3d75ef465d3e404,,,,,,,,,,,,,,,,,,,,,,,,,,,,,,,,,,,,,,,,,,,,,,,,,,,,,,,,,,,,,,,,,,,,,,,,,,,,,,,,,,,,,,,,,,,,,,,,,,,,,,,,,,,,,,,,,,,,,,,,,,,,,,,,,,,,,,,,,,,,,,,,,,,,,,,,,,,,,,
0,26,26,45,1,,60b9c8b91a02b297822a37d6,62bbfad0bd910250215f200d,2022-06-29_09h11.47.117,Colour_Asymmetry_Pilot,2022.1.3,Win32,60.17571308,62bbe60bf3d75ef465d3e404,,,,,,,,,,,,,,,,,,,,,,,,,,,,,,,,,,,,,,,,,,,,,,,,,,,,,,,,,,,,,,,,,,,,,,,,,,,,,,,,,,,,,,,,,,,,,,,,,,,,,,,,,,,,,,,,,,,,,,,,,,,,,,,,,,,,,,,,,,,,,,,,,,,,,,,,,,,,,,
0,27,27,14,1,,60b9c8b91a02b297822a37d6,62bbfad0bd910250215f200d,2022-06-29_09h11.47.117,Colour_Asymmetry_Pilot,2022.1.3,Win32,60.17571308,62bbe60bf3d75ef465d3e404,,,,,,,,,,,,,,,,,,,,,,,,,,,,,,,,,,,,,,,,,,,,,,,,,,,,,,,,,,,,,,,,,,,,,,,,,,,,,,,,,,,,,,,,,,,,,,,,,,,,,,,,,,,,,,,,,,,,,,,,,,,,,,,,,,,,,,,,,,,,,,,,,,,,,,,,,,,,,,
0,28,28,33,1,,60b9c8b91a02b297822a37d6,62bbfad0bd910250215f200d,2022-06-29_09h11.47.117,Colour_Asymmetry_Pilot,2022.1.3,Win32,60.17571308,62bbe60bf3d75ef465d3e404,,,,,,,,,,,,,,,,,,,,,,,,,,,,,,,,,,,,,,,,,,,,,,,,,,,,,,,,,,,,,,,,,,,,,,,,,,,,,,,,,,,,,,,,,,,,,,,,,,,,,,,,,,,,,,,,,,,,,,,,,,,,,,,,,,,,,,,,,,,,,,,,,,,,,,,,,,,,,,
0,29,29,61,1,,60b9c8b91a02b297822a37d6,62bbfad0bd910250215f200d,2022-06-29_09h11.47.117,Colour_Asymmetry_Pilot,2022.1.3,Win32,60.17571308,62bbe60bf3d75ef465d3e404,,,,,,,,,,,,,,,,,,,,,,,,,,,,,,,,,,,,,,,,,,,,,,,,,,,,,,,,,,,,,,,,,,,,,,,,,,,,,,,,,,,,,,,,,,,,,,,,,,,,,,,,,,,,,,,,,,,,,,,,,,,,,,,,,,,,,,,,,,,,,,,,,,,,,,,,,,,,,,
0,30,30,65,1,,60b9c8b91a02b297822a37d6,62bbfad0bd910250215f200d,2022-06-29_09h11.47.117,Colour_Asymmetry_Pilot,2022.1.3,Win32,60.17571308,62bbe60bf3d75ef465d3e404,,,,,,,,,,,,,,,,,,,,,,,,,,,,,,,,,,,,,,,,,,,,,,,,,,,,,,,,,,,,,,,,,,,,,,,,,,,,,,,,,,,,,,,,,,,,,,,,,,,,,,,,,,,,,,,,,,,,,,,,,,,,,,,,,,,,,,,,,,,,,,,,,,,,,,,,,,,,,,
0,31,31,59,1,,60b9c8b91a02b297822a37d6,62bbfad0bd910250215f200d,2022-06-29_09h11.47.117,Colour_Asymmetry_Pilot,2022.1.3,Win32,60.17571308,62bbe60bf3d75ef465d3e404,,,,,,,,,,,,,,,,,,,,,,,,,,,,,,,,,,,,,,,,,,,,,,,,,,,,,,,,,,,,,,,,,,,,,,,,,,,,,,,,,,,,,,,,,,,,,,,,,,,,,,,,,,,,,,,,,,,,,,,,,,,,,,,,,,,,,,,,,,,,,,,,,,,,,,,,,,,,,,
0,32,32,77,1,,60b9c8b91a02b297822a37d6,62bbfad0bd910250215f200d,2022-06-29_09h11.47.117,Colour_Asymmetry_Pilot,2022.1.3,Win32,60.17571308,62bbe60bf3d75ef465d3e404,,,,,,,,,,,,,,,,,,,,,,,,,,,,,,,,,,,,,,,,,,,,,,,,,,,,,,,,,,,,,,,,,,,,,,,,,,,,,,,,,,,,,,,,,,,,,,,,,,,,,,,,,,,,,,,,,,,,,,,,,,,,,,,,,,,,,,,,,,,,,,,,,,,,,,,,,,,,,,
0,33,33,48,1,,60b9c8b91a02b297822a37d6,62bbfad0bd910250215f200d,2022-06-29_09h11.47.117,Colour_Asymmetry_Pilot,2022.1.3,Win32,60.17571308,62bbe60bf3d75ef465d3e404,,,,,,,,,,,,,,,,,,,,,,,,,,,,,,,,,,,,,,,,,,,,,,,,,,,,,,,,,,,,,,,,,,,,,,,,,,,,,,,,,,,,,,,,,,,,,,,,,,,,,,,,,,,,,,,,,,,,,,,,,,,,,,,,,,,,,,,,,,,,,,,,,,,,,,,,,,,,,,
0,34,34,51,1,,60b9c8b91a02b297822a37d6,62bbfad0bd910250215f200d,2022-06-29_09h11.47.117,Colour_Asymmetry_Pilot,2022.1.3,Win32,60.17571308,62bbe60bf3d75ef465d3e404,,,,,,,,,,,,,,,,,,,,,,,,,,,,,,,,,,,,,,,,,,,,,,,,,,,,,,,,,,,,,,,,,,,,,,,,,,,,,,,,,,,,,,,,,,,,,,,,,,,,,,,,,,,,,,,,,,,,,,,,,,,,,,,,,,,,,,,,,,,,,,,,,,,,,,,,,,,,,,
0,35,35,76,1,,60b9c8b91a02b297822a37d6,62bbfad0bd910250215f200d,2022-06-29_09h11.47.117,Colour_Asymmetry_Pilot,2022.1.3,Win32,60.17571308,62bbe60bf3d75ef465d3e404,,,,,,,,,,,,,,,,,,,,,,,,,,,,,,,,,,,,,,,,,,,,,,,,,,,,,,,,,,,,,,,,,,,,,,,,,,,,,,,,,,,,,,,,,,,,,,,,,,,,,,,,,,,,,,,,,,,,,,,,,,,,,,,,,,,,,,,,,,,,,,,,,,,,,,,,,,,,,,
0,36,36,40,1,,60b9c8b91a02b297822a37d6,62bbfad0bd910250215f200d,2022-06-29_09h11.47.117,Colour_Asymmetry_Pilot,2022.1.3,Win32,60.17571308,62bbe60bf3d75ef465d3e404,,,,,,,,,,,,,,,,,,,,,,,,,,,,,,,,,,,,,,,,,,,,,,,,,,,,,,,,,,,,,,,,,,,,,,,,,,,,,,,,,,,,,,,,,,,,,,,,,,,,,,,,,,,,,,,,,,,,,,,,,,,,,,,,,,,,,,,,,,,,,,,,,,,,,,,,,,,,,,
0,37,37,83,1,,60b9c8b91a02b297822a37d6,62bbfad0bd910250215f200d,2022-06-29_09h11.47.117,Colour_Asymmetry_Pilot,2022.1.3,Win32,60.17571308,62bbe60bf3d75ef465d3e404,,,,,,,,,,,,,,,,,,,,,,,,,,,,,,,,,,,,,,,,,,,,,,,,,,,,,,,,,,,,,,,,,,,,,,,,,,,,,,,,,,,,,,,,,,,,,,,,,,,,,,,,,,,,,,,,,,,,,,,,,,,,,,,,,,,,,,,,,,,,,,,,,,,,,,,,,,,,,,
0,38,38,50,1,,60b9c8b91a02b297822a37d6,62bbfad0bd910250215f200d,2022-06-29_09h11.47.117,Colour_Asymmetry_Pilot,2022.1.3,Win32,60.17571308,62bbe60bf3d75ef465d3e404,,,,,,,,,,,,,,,,,,,,,,,,,,,,,,,,,,,,,,,,,,,,,,,,,,,,,,,,,,,,,,,,,,,,,,,,,,,,,,,,,,,,,,,,,,,,,,,,,,,,,,,,,,,,,,,,,,,,,,,,,,,,,,,,,,,,,,,,,,,,,,,,,,,,,,,,,,,,,,
0,39,39,68,1,,60b9c8b91a02b297822a37d6,62bbfad0bd910250215f200d,2022-06-29_09h11.47.117,Colour_Asymmetry_Pilot,2022.1.3,Win32,60.17571308,62bbe60bf3d75ef465d3e404,,,,,,,,,,,,,,,,,,,,,,,,,,,,,,,,,,,,,,,,,,,,,,,,,,,,,,,,,,,,,,,,,,,,,,,,,,,,,,,,,,,,,,,,,,,,,,,,,,,,,,,,,,,,,,,,,,,,,,,,,,,,,,,,,,,,,,,,,,,,,,,,,,,,,,,,,,,,,,
0,40,40,12,1,,60b9c8b91a02b297822a37d6,62bbfad0bd910250215f200d,2022-06-29_09h11.47.117,Colour_Asymmetry_Pilot,2022.1.3,Win32,60.17571308,62bbe60bf3d75ef465d3e404,,,,,,,,,,,,,,,,,,,,,,,,,,,,,,,,,,,,,,,,,,,,,,,,,,,,,,,,,,,,,,,,,,,,,,,,,,,,,,,,,,,,,,,,,,,,,,,,,,,,,,,,,,,,,,,,,,,,,,,,,,,,,,,,,,,,,,,,,,,,,,,,,,,,,,,,,,,,,,
0,41,41,5,1,,60b9c8b91a02b297822a37d6,62bbfad0bd910250215f200d,2022-06-29_09h11.47.117,Colour_Asymmetry_Pilot,2022.1.3,Win32,60.17571308,62bbe60bf3d75ef465d3e404,,,,,,,,,,,,,,,,,,,,,,,,,,,,,,,,,,,,,,,,,,,,,,,,,,,,,,,,,,,,,,,,,,,,,,,,,,,,,,,,,,,,,,,,,,,,,,,,,,,,,,,,,,,,,,,,,,,,,,,,,,,,,,,,,,,,,,,,,,,,,,,,,,,,,,,,,,,,,,
0,42,42,85,1,,60b9c8b91a02b297822a37d6,62bbfad0bd910250215f200d,2022-06-29_09h11.47.117,Colour_Asymmetry_Pilot,2022.1.3,Win32,60.17571308,62bbe60bf3d75ef465d3e404,,,,,,,,,,,,,,,,,,,,,,,,,,,,,,,,,,,,,,,,,,,,,,,,,,,,,,,,,,,,,,,,,,,,,,,,,,,,,,,,,,,,,,,,,,,,,,,,,,,,,,,,,,,,,,,,,,,,,,,,,,,,,,,,,,,,,,,,,,,,,,,,,,,,,,,,,,,,,,
0,43,43,71,1,,60b9c8b91a02b297822a37d6,62bbfad0bd910250215f200d,2022-06-29_09h11.47.117,Colour_Asymmetry_Pilot,2022.1.3,Win32,60.17571308,62bbe60bf3d75ef465d3e404,,,,,,,,,,,,,,,,,,,,,,,,,,,,,,,,,,,,,,,,,,,,,,,,,,,,,,,,,,,,,,,,,,,,,,,,,,,,,,,,,,,,,,,,,,,,,,,,,,,,,,,,,,,,,,,,,,,,,,,,,,,,,,,,,,,,,,,,,,,,,,,,,,,,,,,,,,,,,,
0,44,44,18,1,,60b9c8b91a02b297822a37d6,62bbfad0bd910250215f200d,2022-06-29_09h11.47.117,Colour_Asymmetry_Pilot,2022.1.3,Win32,60.17571308,62bbe60bf3d75ef465d3e404,,,,,,,,,,,,,,,,,,,,,,,,,,,,,,,,,,,,,,,,,,,,,,,,,,,,,,,,,,,,,,,,,,,,,,,,,,,,,,,,,,,,,,,,,,,,,,,,,,,,,,,,,,,,,,,,,,,,,,,,,,,,,,,,,,,,,,,,,,,,,,,,,,,,,,,,,,,,,,
0,45,45,29,1,,60b9c8b91a02b297822a37d6,62bbfad0bd910250215f200d,2022-06-29_09h11.47.117,Colour_Asymmetry_Pilot,2022.1.3,Win32,60.17571308,62bbe60bf3d75ef465d3e404,,,,,,,,,,,,,,,,,,,,,,,,,,,,,,,,,,,,,,,,,,,,,,,,,,,,,,,,,,,,,,,,,,,,,,,,,,,,,,,,,,,,,,,,,,,,,,,,,,,,,,,,,,,,,,,,,,,,,,,,,,,,,,,,,,,,,,,,,,,,,,,,,,,,,,,,,,,,,,
0,46,46,55,1,,60b9c8b91a02b297822a37d6,62bbfad0bd910250215f200d,2022-06-29_09h11.47.117,Colour_Asymmetry_Pilot,2022.1.3,Win32,60.17571308,62bbe60bf3d75ef465d3e404,,,,,,,,,,,,,,,,,,,,,,,,,,,,,,,,,,,,,,,,,,,,,,,,,,,,,,,,,,,,,,,,,,,,,,,,,,,,,,,,,,,,,,,,,,,,,,,,,,,,,,,,,,,,,,,,,,,,,,,,,,,,,,,,,,,,,,,,,,,,,,,,,,,,,,,,,,,,,,
0,47,47,87,1,,60b9c8b91a02b297822a37d6,62bbfad0bd910250215f200d,2022-06-29_09h11.47.117,Colour_Asymmetry_Pilot,2022.1.3,Win32,60.17571308,62bbe60bf3d75ef465d3e404,,,,,,,,,,,,,,,,,,,,,,,,,,,,,,,,,,,,,,,,,,,,,,,,,,,,,,,,,,,,,,,,,,,,,,,,,,,,,,,,,,,,,,,,,,,,,,,,,,,,,,,,,,,,,,,,,,,,,,,,,,,,,,,,,,,,,,,,,,,,,,,,,,,,,,,,,,,,,,
0,48,48,2,1,,60b9c8b91a02b297822a37d6,62bbfad0bd910250215f200d,2022-06-29_09h11.47.117,Colour_Asymmetry_Pilot,2022.1.3,Win32,60.17571308,62bbe60bf3d75ef465d3e404,,,,,,,,,,,,,,,,,,,,,,,,,,,,,,,,,,,,,,,,,,,,,,,,,,,,,,,,,,,,,,,,,,,,,,,,,,,,,,,,,,,,,,,,,,,,,,,,,,,,,,,,,,,,,,,,,,,,,,,,,,,,,,,,,,,,,,,,,,,,,,,,,,,,,,,,,,,,,,
0,49,49,16,1,,60b9c8b91a02b297822a37d6,62bbfad0bd910250215f200d,2022-06-29_09h11.47.117,Colour_Asymmetry_Pilot,2022.1.3,Win32,60.17571308,62bbe60bf3d75ef465d3e404,,,,,,,,,,,,,,,,,,,,,,,,,,,,,,,,,,,,,,,,,,,,,,,,,,,,,,,,,,,,,,,,,,,,,,,,,,,,,,,,,,,,,,,,,,,,,,,,,,,,,,,,,,,,,,,,,,,,,,,,,,,,,,,,,,,,,,,,,,,,,,,,,,,,,,,,,,,,,,
0,50,50,62,1,,60b9c8b91a02b297822a37d6,62bbfad0bd910250215f200d,2022-06-29_09h11.47.117,Colour_Asymmetry_Pilot,2022.1.3,Win32,60.17571308,62bbe60bf3d75ef465d3e404,,,,,,,,,,,,,,,,,,,,,,,,,,,,,,,,,,,,,,,,,,,,,,,,,,,,,,,,,,,,,,,,,,,,,,,,,,,,,,,,,,,,,,,,,,,,,,,,,,,,,,,,,,,,,,,,,,,,,,,,,,,,,,,,,,,,,,,,,,,,,,,,,,,,,,,,,,,,,,
0,51,51,66,1,,60b9c8b91a02b297822a37d6,62bbfad0bd910250215f200d,2022-06-29_09h11.47.117,Colour_Asymmetry_Pilot,2022.1.3,Win32,60.17571308,62bbe60bf3d75ef465d3e404,,,,,,,,,,,,,,,,,,,,,,,,,,,,,,,,,,,,,,,,,,,,,,,,,,,,,,,,,,,,,,,,,,,,,,,,,,,,,,,,,,,,,,,,,,,,,,,,,,,,,,,,,,,,,,,,,,,,,,,,,,,,,,,,,,,,,,,,,,,,,,,,,,,,,,,,,,,,,,
0,52,52,4,1,,60b9c8b91a02b297822a37d6,62bbfad0bd910250215f200d,2022-06-29_09h11.47.117,Colour_Asymmetry_Pilot,2022.1.3,Win32,60.17571308,62bbe60bf3d75ef465d3e404,,,,,,,,,,,,,,,,,,,,,,,,,,,,,,,,,,,,,,,,,,,,,,,,,,,,,,,,,,,,,,,,,,,,,,,,,,,,,,,,,,,,,,,,,,,,,,,,,,,,,,,,,,,,,,,,,,,,,,,,,,,,,,,,,,,,,,,,,,,,,,,,,,,,,,,,,,,,,,
0,53,53,6,1,,60b9c8b91a02b297822a37d6,62bbfad0bd910250215f200d,2022-06-29_09h11.47.117,Colour_Asymmetry_Pilot,2022.1.3,Win32,60.17571308,62bbe60bf3d75ef465d3e404,,,,,,,,,,,,,,,,,,,,,,,,,,,,,,,,,,,,,,,,,,,,,,,,,,,,,,,,,,,,,,,,,,,,,,,,,,,,,,,,,,,,,,,,,,,,,,,,,,,,,,,,,,,,,,,,,,,,,,,,,,,,,,,,,,,,,,,,,,,,,,,,,,,,,,,,,,,,,,
0,54,54,7,1,,60b9c8b91a02b297822a37d6,62bbfad0bd910250215f200d,2022-06-29_09h11.47.117,Colour_Asymmetry_Pilot,2022.1.3,Win32,60.17571308,62bbe60bf3d75ef465d3e404,,,,,,,,,,,,,,,,,,,,,,,,,,,,,,,,,,,,,,,,,,,,,,,,,,,,,,,,,,,,,,,,,,,,,,,,,,,,,,,,,,,,,,,,,,,,,,,,,,,,,,,,,,,,,,,,,,,,,,,,,,,,,,,,,,,,,,,,,,,,,,,,,,,,,,,,,,,,,,
0,55,55,21,1,,60b9c8b91a02b297822a37d6,62bbfad0bd910250215f200d,2022-06-29_09h11.47.117,Colour_Asymmetry_Pilot,2022.1.3,Win32,60.17571308,62bbe60bf3d75ef465d3e404,,,,,,,,,,,,,,,,,,,,,,,,,,,,,,,,,,,,,,,,,,,,,,,,,,,,,,,,,,,,,,,,,,,,,,,,,,,,,,,,,,,,,,,,,,,,,,,,,,,,,,,,,,,,,,,,,,,,,,,,,,,,,,,,,,,,,,,,,,,,,,,,,,,,,,,,,,,,,,
0,56,56,63,1,,60b9c8b91a02b297822a37d6,62bbfad0bd910250215f200d,2022-06-29_09h11.47.117,Colour_Asymmetry_Pilot,2022.1.3,Win32,60.17571308,62bbe60bf3d75ef465d3e404,,,,,,,,,,,,,,,,,,,,,,,,,,,,,,,,,,,,,,,,,,,,,,,,,,,,,,,,,,,,,,,,,,,,,,,,,,,,,,,,,,,,,,,,,,,,,,,,,,,,,,,,,,,,,,,,,,,,,,,,,,,,,,,,,,,,,,,,,,,,,,,,,,,,,,,,,,,,,,
0,57,57,75,1,,60b9c8b91a02b297822a37d6,62bbfad0bd910250215f200d,2022-06-29_09h11.47.117,Colour_Asymmetry_Pilot,2022.1.3,Win32,60.17571308,62bbe60bf3d75ef465d3e404,,,,,,,,,,,,,,,,,,,,,,,,,,,,,,,,,,,,,,,,,,,,,,,,,,,,,,,,,,,,,,,,,,,,,,,,,,,,,,,,,,,,,,,,,,,,,,,,,,,,,,,,,,,,,,,,,,,,,,,,,,,,,,,,,,,,,,,,,,,,,,,,,,,,,,,,,,,,,,
0,58,58,58,1,,60b9c8b91a02b297822a37d6,62bbfad0bd910250215f200d,2022-06-29_09h11.47.117,Colour_Asymmetry_Pilot,2022.1.3,Win32,60.17571308,62bbe60bf3d75ef465d3e404,,,,,,,,,,,,,,,,,,,,,,,,,,,,,,,,,,,,,,,,,,,,,,,,,,,,,,,,,,,,,,,,,,,,,,,,,,,,,,,,,,,,,,,,,,,,,,,,,,,,,,,,,,,,,,,,,,,,,,,,,,,,,,,,,,,,,,,,,,,,,,,,,,,,,,,,,,,,,,
0,59,59,25,1,,60b9c8b91a02b297822a37d6,62bbfad0bd910250215f200d,2022-06-29_09h11.47.117,Colour_Asymmetry_Pilot,2022.1.3,Win32,60.17571308,62bbe60bf3d75ef465d3e404,,,,,,,,,,,,,,,,,,,,,,,,,,,,,,,,,,,,,,,,,,,,,,,,,,,,,,,,,,,,,,,,,,,,,,,,,,,,,,,,,,,,,,,,,,,,,,,,,,,,,,,,,,,,,,,,,,,,,,,,,,,,,,,,,,,,,,,,,,,,,,,,,,,,,,,,,,,,,,
0,60,60,54,1,,60b9c8b91a02b297822a37d6,62bbfad0bd910250215f200d,2022-06-29_09h11.47.117,Colour_Asymmetry_Pilot,2022.1.3,Win32,60.17571308,62bbe60bf3d75ef465d3e404,,,,,,,,,,,,,,,,,,,,,,,,,,,,,,,,,,,,,,,,,,,,,,,,,,,,,,,,,,,,,,,,,,,,,,,,,,,,,,,,,,,,,,,,,,,,,,,,,,,,,,,,,,,,,,,,,,,,,,,,,,,,,,,,,,,,,,,,,,,,,,,,,,,,,,,,,,,,,,
0,61,61,72,1,,60b9c8b91a02b297822a37d6,62bbfad0bd910250215f200d,2022-06-29_09h11.47.117,Colour_Asymmetry_Pilot,2022.1.3,Win32,60.17571308,62bbe60bf3d75ef465d3e404,,,,,,,,,,,,,,,,,,,,,,,,,,,,,,,,,,,,,,,,,,,,,,,,,,,,,,,,,,,,,,,,,,,,,,,,,,,,,,,,,,,,,,,,,,,,,,,,,,,,,,,,,,,,,,,,,,,,,,,,,,,,,,,,,,,,,,,,,,,,,,,,,,,,,,,,,,,,,,
0,62,62,86,1,,60b9c8b91a02b297822a37d6,62bbfad0bd910250215f200d,2022-06-29_09h11.47.117,Colour_Asymmetry_Pilot,2022.1.3,Win32,60.17571308,62bbe60bf3d75ef465d3e404,,,,,,,,,,,,,,,,,,,,,,,,,,,,,,,,,,,,,,,,,,,,,,,,,,,,,,,,,,,,,,,,,,,,,,,,,,,,,,,,,,,,,,,,,,,,,,,,,,,,,,,,,,,,,,,,,,,,,,,,,,,,,,,,,,,,,,,,,,,,,,,,,,,,,,,,,,,,,,
0,63,63,52,1,,60b9c8b91a02b297822a37d6,62bbfad0bd910250215f200d,2022-06-29_09h11.47.117,Colour_Asymmetry_Pilot,2022.1.3,Win32,60.17571308,62bbe60bf3d75ef465d3e404,,,,,,,,,,,,,,,,,,,,,,,,,,,,,,,,,,,,,,,,,,,,,,,,,,,,,,,,,,,,,,,,,,,,,,,,,,,,,,,,,,,,,,,,,,,,,,,,,,,,,,,,,,,,,,,,,,,,,,,,,,,,,,,,,,,,,,,,,,,,,,,,,,,,,,,,,,,,,,
0,64,64,10,1,,60b9c8b91a02b297822a37d6,62bbfad0bd910250215f200d,2022-06-29_09h11.47.117,Colour_Asymmetry_Pilot,2022.1.3,Win32,60.17571308,62bbe60bf3d75ef465d3e404,,,,,,,,,,,,,,,,,,,,,,,,,,,,,,,,,,,,,,,,,,,,,,,,,,,,,,,,,,,,,,,,,,,,,,,,,,,,,,,,,,,,,,,,,,,,,,,,,,,,,,,,,,,,,,,,,,,,,,,,,,,,,,,,,,,,,,,,,,,,,,,,,,,,,,,,,,,,,,
0,65,65,23,1,,60b9c8b91a02b297822a37d6,62bbfad0bd910250215f200d,2022-06-29_09h11.47.117,Colour_Asymmetry_Pilot,2022.1.3,Win32,60.17571308,62bbe60bf3d75ef465d3e404,,,,,,,,,,,,,,,,,,,,,,,,,,,,,,,,,,,,,,,,,,,,,,,,,,,,,,,,,,,,,,,,,,,,,,,,,,,,,,,,,,,,,,,,,,,,,,,,,,,,,,,,,,,,,,,,,,,,,,,,,,,,,,,,,,,,,,,,,,,,,,,,,,,,,,,,,,,,,,
0,66,66,42,1,,60b9c8b91a02b297822a37d6,62bbfad0bd910250215f200d,2022-06-29_09h11.47.117,Colour_Asymmetry_Pilot,2022.1.3,Win32,60.17571308,62bbe60bf3d75ef465d3e404,,,,,,,,,,,,,,,,,,,,,,,,,,,,,,,,,,,,,,,,,,,,,,,,,,,,,,,,,,,,,,,,,,,,,,,,,,,,,,,,,,,,,,,,,,,,,,,,,,,,,,,,,,,,,,,,,,,,,,,,,,,,,,,,,,,,,,,,,,,,,,,,,,,,,,,,,,,,,,
0,67,67,84,1,,60b9c8b91a02b297822a37d6,62bbfad0bd910250215f200d,2022-06-29_09h11.47.117,Colour_Asymmetry_Pilot,2022.1.3,Win32,60.17571308,62bbe60bf3d75ef465d3e404,,,,,,,,,,,,,,,,,,,,,,,,,,,,,,,,,,,,,,,,,,,,,,,,,,,,,,,,,,,,,,,,,,,,,,,,,,,,,,,,,,,,,,,,,,,,,,,,,,,,,,,,,,,,,,,,,,,,,,,,,,,,,,,,,,,,,,,,,,,,,,,,,,,,,,,,,,,,,,
0,68,68,47,1,,60b9c8b91a02b297822a37d6,62bbfad0bd910250215f200d,2022-06-29_09h11.47.117,Colour_Asymmetry_Pilot,2022.1.3,Win32,60.17571308,62bbe60bf3d75ef465d3e404,,,,,,,,,,,,,,,,,,,,,,,,,,,,,,,,,,,,,,,,,,,,,,,,,,,,,,,,,,,,,,,,,,,,,,,,,,,,,,,,,,,,,,,,,,,,,,,,,,,,,,,,,,,,,,,,,,,,,,,,,,,,,,,,,,,,,,,,,,,,,,,,,,,,,,,,,,,,,,
0,69,69,1,1,,60b9c8b91a02b297822a37d6,62bbfad0bd910250215f200d,2022-06-29_09h11.47.117,Colour_Asymmetry_Pilot,2022.1.3,Win32,60.17571308,62bbe60bf3d75ef465d3e404,,,,,,,,,,,,,,,,,,,,,,,,,,,,,,,,,,,,,,,,,,,,,,,,,,,,,,,,,,,,,,,,,,,,,,,,,,,,,,,,,,,,,,,,,,,,,,,,,,,,,,,,,,,,,,,,,,,,,,,,,,,,,,,,,,,,,,,,,,,,,,,,,,,,,,,,,,,,,,
0,70,70,41,1,,60b9c8b91a02b297822a37d6,62bbfad0bd910250215f200d,2022-06-29_09h11.47.117,Colour_Asymmetry_Pilot,2022.1.3,Win32,60.17571308,62bbe60bf3d75ef465d3e404,,,,,,,,,,,,,,,,,,,,,,,,,,,,,,,,,,,,,,,,,,,,,,,,,,,,,,,,,,,,,,,,,,,,,,,,,,,,,,,,,,,,,,,,,,,,,,,,,,,,,,,,,,,,,,,,,,,,,,,,,,,,,,,,,,,,,,,,,,,,,,,,,,,,,,,,,,,,,,
0,71,71,35,1,,60b9c8b91a02b297822a37d6,62bbfad0bd910250215f200d,2022-06-29_09h11.47.117,Colour_Asymmetry_Pilot,2022.1.3,Win32,60.17571308,62bbe60bf3d75ef465d3e404,,,,,,,,,,,,,,,,,,,,,,,,,,,,,,,,,,,,,,,,,,,,,,,,,,,,,,,,,,,,,,,,,,,,,,,,,,,,,,,,,,,,,,,,,,,,,,,,,,,,,,,,,,,,,,,,,,,,,,,,,,,,,,,,,,,,,,,,,,,,,,,,,,,,,,,,,,,,,,
0,72,72,73,1,,60b9c8b91a02b297822a37d6,62bbfad0bd910250215f200d,2022-06-29_09h11.47.117,Colour_Asymmetry_Pilot,2022.1.3,Win32,60.17571308,62bbe60bf3d75ef465d3e404,,,,,,,,,,,,,,,,,,,,,,,,,,,,,,,,,,,,,,,,,,,,,,,,,,,,,,,,,,,,,,,,,,,,,,,,,,,,,,,,,,,,,,,,,,,,,,,,,,,,,,,,,,,,,,,,,,,,,,,,,,,,,,,,,,,,,,,,,,,,,,,,,,,,,,,,,,,,,,
0,73,73,80,1,,60b9c8b91a02b297822a37d6,62bbfad0bd910250215f200d,2022-06-29_09h11.47.117,Colour_Asymmetry_Pilot,2022.1.3,Win32,60.17571308,62bbe60bf3d75ef465d3e404,,,,,,,,,,,,,,,,,,,,,,,,,,,,,,,,,,,,,,,,,,,,,,,,,,,,,,,,,,,,,,,,,,,,,,,,,,,,,,,,,,,,,,,,,,,,,,,,,,,,,,,,,,,,,,,,,,,,,,,,,,,,,,,,,,,,,,,,,,,,,,,,,,,,,,,,,,,,,,
0,74,74,67,1,,60b9c8b91a02b297822a37d6,62bbfad0bd910250215f200d,2022-06-29_09h11.47.117,Colour_Asymmetry_Pilot,2022.1.3,Win32,60.17571308,62bbe60bf3d75ef465d3e404,,,,,,,,,,,,,,,,,,,,,,,,,,,,,,,,,,,,,,,,,,,,,,,,,,,,,,,,,,,,,,,,,,,,,,,,,,,,,,,,,,,,,,,,,,,,,,,,,,,,,,,,,,,,,,,,,,,,,,,,,,,,,,,,,,,,,,,,,,,,,,,,,,,,,,,,,,,,,,
0,75,75,69,1,,60b9c8b91a02b297822a37d6,62bbfad0bd910250215f200d,2022-06-29_09h11.47.117,Colour_Asymmetry_Pilot,2022.1.3,Win32,60.17571308,62bbe60bf3d75ef465d3e404,,,,,,,,,,,,,,,,,,,,,,,,,,,,,,,,,,,,,,,,,,,,,,,,,,,,,,,,,,,,,,,,,,,,,,,,,,,,,,,,,,,,,,,,,,,,,,,,,,,,,,,,,,,,,,,,,,,,,,,,,,,,,,,,,,,,,,,,,,,,,,,,,,,,,,,,,,,,,,
0,76,76,57,1,,60b9c8b91a02b297822a37d6,62bbfad0bd910250215f200d,2022-06-29_09h11.47.117,Colour_Asymmetry_Pilot,2022.1.3,Win32,60.17571308,62bbe60bf3d75ef465d3e404,,,,,,,,,,,,,,,,,,,,,,,,,,,,,,,,,,,,,,,,,,,,,,,,,,,,,,,,,,,,,,,,,,,,,,,,,,,,,,,,,,,,,,,,,,,,,,,,,,,,,,,,,,,,,,,,,,,,,,,,,,,,,,,,,,,,,,,,,,,,,,,,,,,,,,,,,,,,,,
0,77,77,64,1,,60b9c8b91a02b297822a37d6,62bbfad0bd910250215f200d,2022-06-29_09h11.47.117,Colour_Asymmetry_Pilot,2022.1.3,Win32,60.17571308,62bbe60bf3d75ef465d3e404,,,,,,,,,,,,,,,,,,,,,,,,,,,,,,,,,,,,,,,,,,,,,,,,,,,,,,,,,,,,,,,,,,,,,,,,,,,,,,,,,,,,,,,,,,,,,,,,,,,,,,,,,,,,,,,,,,,,,,,,,,,,,,,,,,,,,,,,,,,,,,,,,,,,,,,,,,,,,,
0,78,78,11,1,,60b9c8b91a02b297822a37d6,62bbfad0bd910250215f200d,2022-06-29_09h11.47.117,Colour_Asymmetry_Pilot,2022.1.3,Win32,60.17571308,62bbe60bf3d75ef465d3e404,,,,,,,,,,,,,,,,,,,,,,,,,,,,,,,,,,,,,,,,,,,,,,,,,,,,,,,,,,,,,,,,,,,,,,,,,,,,,,,,,,,,,,,,,,,,,,,,,,,,,,,,,,,,,,,,,,,,,,,,,,,,,,,,,,,,,,,,,,,,,,,,,,,,,,,,,,,,,,
0,79,79,20,1,,60b9c8b91a02b297822a37d6,62bbfad0bd910250215f200d,2022-06-29_09h11.47.117,Colour_Asymmetry_Pilot,2022.1.3,Win32,60.17571308,62bbe60bf3d75ef465d3e404,,,,,,,,,,,,,,,,,,,,,,,,,,,,,,,,,,,,,,,,,,,,,,,,,,,,,,,,,,,,,,,,,,,,,,,,,,,,,,,,,,,,,,,,,,,,,,,,,,,,,,,,,,,,,,,,,,,,,,,,,,,,,,,,,,,,,,,,,,,,,,,,,,,,,,,,,,,,,,
0,80,80,28,1,,60b9c8b91a02b297822a37d6,62bbfad0bd910250215f200d,2022-06-29_09h11.47.117,Colour_Asymmetry_Pilot,2022.1.3,Win32,60.17571308,62bbe60bf3d75ef465d3e404,,,,,,,,,,,,,,,,,,,,,,,,,,,,,,,,,,,,,,,,,,,,,,,,,,,,,,,,,,,,,,,,,,,,,,,,,,,,,,,,,,,,,,,,,,,,,,,,,,,,,,,,,,,,,,,,,,,,,,,,,,,,,,,,,,,,,,,,,,,,,,,,,,,,,,,,,,,,,,
0,81,81,37,1,,60b9c8b91a02b297822a37d6,62bbfad0bd910250215f200d,2022-06-29_09h11.47.117,Colour_Asymmetry_Pilot,2022.1.3,Win32,60.17571308,62bbe60bf3d75ef465d3e404,,,,,,,,,,,,,,,,,,,,,,,,,,,,,,,,,,,,,,,,,,,,,,,,,,,,,,,,,,,,,,,,,,,,,,,,,,,,,,,,,,,,,,,,,,,,,,,,,,,,,,,,,,,,,,,,,,,,,,,,,,,,,,,,,,,,,,,,,,,,,,,,,,,,,,,,,,,,,,
0,82,82,27,1,,60b9c8b91a02b297822a37d6,62bbfad0bd910250215f200d,2022-06-29_09h11.47.117,Colour_Asymmetry_Pilot,2022.1.3,Win32,60.17571308,62bbe60bf3d75ef465d3e404,,,,,,,,,,,,,,,,,,,,,,,,,,,,,,,,,,,,,,,,,,,,,,,,,,,,,,,,,,,,,,,,,,,,,,,,,,,,,,,,,,,,,,,,,,,,,,,,,,,,,,,,,,,,,,,,,,,,,,,,,,,,,,,,,,,,,,,,,,,,,,,,,,,,,,,,,,,,,,
0,83,83,53,1,,60b9c8b91a02b297822a37d6,62bbfad0bd910250215f200d,2022-06-29_09h11.47.117,Colour_Asymmetry_Pilot,2022.1.3,Win32,60.17571308,62bbe60bf3d75ef465d3e404,,,,,,,,,,,,,,,,,,,,,,,,,,,,,,,,,,,,,,,,,,,,,,,,,,,,,,,,,,,,,,,,,,,,,,,,,,,,,,,,,,,,,,,,,,,,,,,,,,,,,,,,,,,,,,,,,,,,,,,,,,,,,,,,,,,,,,,,,,,,,,,,,,,,,,,,,,,,,,
0,84,84,70,1,,60b9c8b91a02b297822a37d6,62bbfad0bd910250215f200d,2022-06-29_09h11.47.117,Colour_Asymmetry_Pilot,2022.1.3,Win32,60.17571308,62bbe60bf3d75ef465d3e404,,,,,,,,,,,,,,,,,,,,,,,,,,,,,,,,,,,,,,,,,,,,,,,,,,,,,,,,,,,,,,,,,,,,,,,,,,,,,,,,,,,,,,,,,,,,,,,,,,,,,,,,,,,,,,,,,,,,,,,,,,,,,,,,,,,,,,,,,,,,,,,,,,,,,,,,,,,,,,
0,85,85,30,1,,60b9c8b91a02b297822a37d6,62bbfad0bd910250215f200d,2022-06-29_09h11.47.117,Colour_Asymmetry_Pilot,2022.1.3,Win32,60.17571308,62bbe60bf3d75ef465d3e404,,,,,,,,,,,,,,,,,,,,,,,,,,,,,,,,,,,,,,,,,,,,,,,,,,,,,,,,,,,,,,,,,,,,,,,,,,,,,,,,,,,,,,,,,,,,,,,,,,,,,,,,,,,,,,,,,,,,,,,,,,,,,,,,,,,,,,,,,,,,,,,,,,,,,,,,,,,,,,
0,86,86,88,1,,60b9c8b91a02b297822a37d6,62bbfad0bd910250215f200d,2022-06-29_09h11.47.117,Colour_Asymmetry_Pilot,2022.1.3,Win32,60.17571308,62bbe60bf3d75ef465d3e404,,,,,,,,,,,,,,,,,,,,,,,,,,,,,,,,,,,,,,,,,,,,,,,,,,,,,,,,,,,,,,,,,,,,,,,,,,,,,,,,,,,,,,,,,,,,,,,,,,,,,,,,,,,,,,,,,,,,,,,,,,,,,,,,,,,,,,,,,,,,,,,,,,,,,,,,,,,,,,
0,87,87,13,1,,60b9c8b91a02b297822a37d6,62bbfad0bd910250215f200d,2022-06-29_09h11.47.117,Colour_Asymmetry_Pilot,2022.1.3,Win32,60.17571308,62bbe60bf3d75ef465d3e404,,,,,,,,,,,,,,,,,,,,,,,,,,,,,,,,,,,,,,,,,,,,,,,,,,,,,,,,,,,,,,,,,,,,,,,,,,,,,,,,,,,,,,,,,,,,,,,,,,,,,,,,,,,,,,,,,,,,,,,,,,,,,,,,,,,,,,,,,,,,,,,,,,,,,,,,,,,,,,
0,88,88,46,1,,60b9c8b91a02b297822a37d6,62bbfad0bd910250215f200d,2022-06-29_09h11.47.117,Colour_Asymmetry_Pilot,2022.1.3,Win32,60.17571308,62bbe60bf3d75ef465d3e404,,,,,,,,,,,,,,,,,,,,,,,,,,,,,,,,,,,,,,,,,,,,,,,,,,,,,,,,,,,,,,,,,,,,,,,,,,,,,,,,,,,,,,,,,,,,,,,,,,,,,,,,,,,,,,,,,,,,,,,,,,,,,,,,,,,,,,,,,,,,,,,,,,,,,,,,,,,,,,
0,89,89,82,1,,60b9c8b91a02b297822a37d6,62bbfad0bd910250215f200d,2022-06-29_09h11.47.117,Colour_Asymmetry_Pilot,2022.1.3,Win32,60.17571308,62bbe60bf3d75ef465d3e404,,,,,,,,,,,,,,,,,,,,,,,,,,,,,,,,,,,,,,,,,,,,,,,,,,,,,,,,,,,,,,,,,,,,,,,,,,,,,,,,,,,,,,,,,,,,,,,,,,,,,,,,,,,,,,,,,,,,,,,,,,,,,,,,,,,,,,,,,,,,,,,,,,,,,,,,,,,,,,
0,90,90,39,1,,60b9c8b91a02b297822a37d6,62bbfad0bd910250215f200d,2022-06-29_09h11.47.117,Colour_Asymmetry_Pilot,2022.1.3,Win32,60.17571308,62bbe60bf3d75ef465d3e404,,,,,,,,,,,,,,,,,,,,,,,,,,,,,,,,,,,,,,,,,,,,,,,,,,,,,,,,,,,,,,,,,,,,,,,,,,,,,,,,,,,,,,,,,,,,,,,,,,,,,,,,,,,,,,,,,,,,,,,,,,,,,,,,,,,,,,,,,,,,,,,,,,,,,,,,,,,,,,
0,91,91,17,1,,60b9c8b91a02b297822a37d6,62bbfad0bd910250215f200d,2022-06-29_09h11.47.117,Colour_Asymmetry_Pilot,2022.1.3,Win32,60.17571308,62bbe60bf3d75ef465d3e404,,,,,,,,,,,,,,,,,,,,,,,,,,,,,,,,,,,,,,,,,,,,,,,,,,,,,,,,,,,,,,,,,,,,,,,,,,,,,,,,,,,,,,,,,,,,,,,,,,,,,,,,,,,,,,,,,,,,,,,,,,,,,,,,,,,,,,,,,,,,,,,,,,,,,,,,,,,,,,
0,92,92,81,1,,60b9c8b91a02b297822a37d6,62bbfad0bd910250215f200d,2022-06-29_09h11.47.117,Colour_Asymmetry_Pilot,2022.1.3,Win32,60.17571308,62bbe60bf3d75ef465d3e404,,,,,,,,,,,,,,,,,,,,,,,,,,,,,,,,,,,,,,,,,,,,,,,,,,,,,,,,,,,,,,,,,,,,,,,,,,,,,,,,,,,,,,,,,,,,,,,,,,,,,,,,,,,,,,,,,,,,,,,,,,,,,,,,,,,,,,,,,,,,,,,,,,,,,,,,,,,,,,
,,,,,,60b9c8b91a02b297822a37d6,62bbfad0bd910250215f200d,2022-06-29_09h11.47.117,Colour_Asymmetry_Pilot,2022.1.3,Win32,60.17571308,62bbe60bf3d75ef465d3e404,0,0,0,73,1,onethree,,,,,,,,,,,,,,,,,,,,,,,,,,,,,,,,,,,,,,,,,,,,,,,,,,,,,,,,,,,,,,,,,,,,,,,,,,,,,,,,,,,,,,,,,,,,,,,,,,,,,,,,,,,,,,,,,,,,,,,,,,,,,,,,,,,,,,,,,,,,,,,,,,,,,,,,
,,,,,,60b9c8b91a02b297822a37d6,62bbfad0bd910250215f200d,2022-06-29_09h11.47.117,Colour_Asymmetry_Pilot,2022.1.3,Win32,60.17571308,62bbe60bf3d75ef465d3e404,0,1,1,161,1,onethree,,,,,,,,,,,,,,,,,,,,,,,,,,,,,,,,,,,,,,,,,,,,,,,,,,,,,,,,,,,,,,,,,,,,,,,,,,,,,,,,,,,,,,,,,,,,,,,,,,,,,,,,,,,,,,,,,,,,,,,,,,,,,,,,,,,,,,,,,,,,,,,,,,,,,,,,
,,,,,,60b9c8b91a02b297822a37d6,62bbfad0bd910250215f200d,2022-06-29_09h11.47.117,Colour_Asymmetry_Pilot,2022.1.3,Win32,60.17571308,62bbe60bf3d75ef465d3e404,0,2,2,87,1,fourthree,,,,,,,,,,,,,,,,,,,,,,,,,,,,,,,,,,,,,,,,,,,,,,,,,,,,,,,,,,,,,,,,,,,,,,,,,,,,,,,,,,,,,,,,,,,,,,,,,,,,,,,,,,,,,,,,,,,,,,,,,,,,,,,,,,,,,,,,,,,,,,,,,,,,,,,,
,,,,,,60b9c8b91a02b297822a37d6,62bbfad0bd910250215f200d,2022-06-29_09h11.47.117,Colour_Asymmetry_Pilot,2022.1.3,Win32,60.17571308,62bbe60bf3d75ef465d3e404,0,3,3,23,1,fourthree,,,,,,,,,,,,,,,,,,,,,,,,,,,,,,,,,,,,,,,,,,,,,,,,,,,,,,,,,,,,,,,,,,,,,,,,,,,,,,,,,,,,,,,,,,,,,,,,,,,,,,,,,,,,,,,,,,,,,,,,,,,,,,,,,,,,,,,,,,,,,,,,,,,,,,,,
,,,,,,60b9c8b91a02b297822a37d6,62bbfad0bd910250215f200d,2022-06-29_09h11.47.117,Colour_Asymmetry_Pilot,2022.1.3,Win32,60.17571308,62bbe60bf3d75ef465d3e404,0,4,4,27,1,twofour,,,,,,,,,,,,,,,,,,,,,,,,,,,,,,,,,,,,,,,,,,,,,,,,,,,,,,,,,,,,,,,,,,,,,,,,,,,,,,,,,,,,,,,,,,,,,,,,,,,,,,,,,,,,,,,,,,,,,,,,,,,,,,,,,,,,,,,,,,,,,,,,,,,,,,,,
,,,,,,60b9c8b91a02b297822a37d6,62bbfad0bd910250215f200d,2022-06-29_09h11.47.117,Colour_Asymmetry_Pilot,2022.1.3,Win32,60.17571308,62bbe60bf3d75ef465d3e404,0,5,5,80,1,onetwo,,,,,,,,,,,,,,,,,,,,,,,,,,,,,,,,,,,,,,,,,,,,,,,,,,,,,,,,,,,,,,,,,,,,,,,,,,,,,,,,,,,,,,,,,,,,,,,,,,,,,,,,,,,,,,,,,,,,,,,,,,,,,,,,,,,,,,,,,,,,,,,,,,,,,,,,
,,,,,,60b9c8b91a02b297822a37d6,62bbfad0bd910250215f200d,2022-06-29_09h11.47.117,Colour_Asymmetry_Pilot,2022.1.3,Win32,60.17571308,62bbe60bf3d75ef465d3e404,0,6,6,32,1,onetwo,,,,,,,,,,,,,,,,,,,,,,,,,,,,,,,,,,,,,,,,,,,,,,,,,,,,,,,,,,,,,,,,,,,,,,,,,,,,,,,,,,,,,,,,,,,,,,,,,,,,,,,,,,,,,,,,,,,,,,,,,,,,,,,,,,,,,,,,,,,,,,,,,,,,,,,,
,,,,,,60b9c8b91a02b297822a37d6,62bbfad0bd910250215f200d,2022-06-29_09h11.47.117,Colour_Asymmetry_Pilot,2022.1.3,Win32,60.17571308,62bbe60bf3d75ef465d3e404,0,7,7,22,1,fourtwo,,,,,,,,,,,,,,,,,,,,,,,,,,,,,,,,,,,,,,,,,,,,,,,,,,,,,,,,,,,,,,,,,,,,,,,,,,,,,,,,,,,,,,,,,,,,,,,,,,,,,,,,,,,,,,,,,,,,,,,,,,,,,,,,,,,,,,,,,,,,,,,,,,,,,,,,
,,,,,,60b9c8b91a02b297822a37d6,62bbfad0bd910250215f200d,2022-06-29_09h11.47.117,Colour_Asymmetry_Pilot,2022.1.3,Win32,60.17571308,62bbe60bf3d75ef465d3e404,0,8,8,150,1,fourtwo,,,,,,,,,,,,,,,,,,,,,,,,,,,,,,,,,,,,,,,,,,,,,,,,,,,,,,,,,,,,,,,,,,,,,,,,,,,,,,,,,,,,,,,,,,,,,,,,,,,,,,,,,,,,,,,,,,,,,,,,,,,,,,,,,,,,,,,,,,,,,,,,,,,,,,,,
,,,,,,60b9c8b91a02b297822a37d6,62bbfad0bd910250215f200d,2022-06-29_09h11.47.117,Colour_Asymmetry_Pilot,2022.1.3,Win32,60.17571308,62bbe60bf3d75ef465d3e404,0,9,9,100,1,threeone,,,,,,,,,,,,,,,,,,,,,,,,,,,,,,,,,,,,,,,,,,,,,,,,,,,,,,,,,,,,,,,,,,,,,,,,,,,,,,,,,,,,,,,,,,,,,,,,,,,,,,,,,,,,,,,,,,,,,,,,,,,,,,,,,,,,,,,,,,,,,,,,,,,,,,,,
,,,,,,60b9c8b91a02b297822a37d6,62bbfad0bd910250215f200d,2022-06-29_09h11.47.117,Colour_Asymmetry_Pilot,2022.1.3,Win32,60.17571308,62bbe60bf3d75ef465d3e404,0,10,10,71,1,fourthree,,,,,,,,,,,,,,,,,,,,,,,,,,,,,,,,,,,,,,,,,,,,,,,,,,,,,,,,,,,,,,,,,,,,,,,,,,,,,,,,,,,,,,,,,,,,,,,,,,,,,,,,,,,,,,,,,,,,,,,,,,,,,,,,,,,,,,,,,,,,,,,,,,,,,,,,
,,,,,,60b9c8b91a02b297822a37d6,62bbfad0bd910250215f200d,2022-06-29_09h11.47.117,Colour_Asymmetry_Pilot,2022.1.3,Win32,60.17571308,62bbe60bf3d75ef465d3e404,0,11,11,29,1,threefour,,,,,,,,,,,,,,,,,,,,,,,,,,,,,,,,,,,,,,,,,,,,,,,,,,,,,,,,,,,,,,,,,,,,,,,,,,,,,,,,,,,,,,,,,,,,,,,,,,,,,,,,,,,,,,,,,,,,,,,,,,,,,,,,,,,,,,,,,,,,,,,,,,,,,,,,
,,,,,,60b9c8b91a02b297822a37d6,62bbfad0bd910250215f200d,2022-06-29_09h11.47.117,Colour_Asymmetry_Pilot,2022.1.3,Win32,60.17571308,62bbe60bf3d75ef465d3e404,0,12,12,109,1,threefour,,,,,,,,,,,,,,,,,,,,,,,,,,,,,,,,,,,,,,,,,,,,,,,,,,,,,,,,,,,,,,,,,,,,,,,,,,,,,,,,,,,,,,,,,,,,,,,,,,,,,,,,,,,,,,,,,,,,,,,,,,,,,,,,,,,,,,,,,,,,,,,,,,,,,,,,
,,,,,,60b9c8b91a02b297822a37d6,62bbfad0bd910250215f200d,2022-06-29_09h11.47.117,Colour_Asymmetry_Pilot,2022.1.3,Win32,60.17571308,62bbe60bf3d75ef465d3e404,0,13,13,60,1,threeone,,,,,,,,,,,,,,,,,,,,,,,,,,,,,,,,,,,,,,,,,,,,,,,,,,,,,,,,,,,,,,,,,,,,,,,,,,,,,,,,,,,,,,,,,,,,,,,,,,,,,,,,,,,,,,,,,,,,,,,,,,,,,,,,,,,,,,,,,,,,,,,,,,,,,,,,
,,,,,,60b9c8b91a02b297822a37d6,62bbfad0bd910250215f200d,2022-06-29_09h11.47.117,Colour_Asymmetry_Pilot,2022.1.3,Win32,60.17571308,62bbe60bf3d75ef465d3e404,0,14,14,15,1,fourthree,,,,,,,,,,,,,,,,,,,,,,,,,,,,,,,,,,,,,,,,,,,,,,,,,,,,,,,,,,,,,,,,,,,,,,,,,,,,,,,,,,,,,,,,,,,,,,,,,,,,,,,,,,,,,,,,,,,,,,,,,,,,,,,,,,,,,,,,,,,,,,,,,,,,,,,,
,,,,,,60b9c8b91a02b297822a37d6,62bbfad0bd910250215f200d,2022-06-29_09h11.47.117,Colour_Asymmetry_Pilot,2022.1.3,Win32,60.17571308,62bbe60bf3d75ef465d3e404,0,15,15,6,1,fourtwo,,,,,,,,,,,,,,,,,,,,,,,,,,,,,,,,,,,,,,,,,,,,,,,,,,,,,,,,,,,,,,,,,,,,,,,,,,,,,,,,,,,,,,,,,,,,,,,,,,,,,,,,,,,,,,,,,,,,,,,,,,,,,,,,,,,,,,,,,,,,,,,,,,,,,,,,
,,,,,,60b9c8b91a02b297822a37d6,62bbfad0bd910250215f200d,2022-06-29_09h11.47.117,Colour_Asymmetry_Pilot,2022.1.3,Win32,60.17571308,62bbe60bf3d75ef465d3e404,0,16,16,43,1,twofour,,,,,,,,,,,,,,,,,,,,,,,,,,,,,,,,,,,,,,,,,,,,,,,,,,,,,,,,,,,,,,,,,,,,,,,,,,,,,,,,,,,,,,,,,,,,,,,,,,,,,,,,,,,,,,,,,,,,,,,,,,,,,,,,,,,,,,,,,,,,,,,,,,,,,,,,
,,,,,,60b9c8b91a02b297822a37d6,62bbfad0bd910250215f200d,2022-06-29_09h11.47.117,Colour_Asymmetry_Pilot,2022.1.3,Win32,60.17571308,62bbe60bf3d75ef465d3e404,0,17,17,64,1,onetwo,,,,,,,,,,,,,,,,,,,,,,,,,,,,,,,,,,,,,,,,,,,,,,,,,,,,,,,,,,,,,,,,,,,,,,,,,,,,,,,,,,,,,,,,,,,,,,,,,,,,,,,,,,,,,,,,,,,,,,,,,,,,,,,,,,,,,,,,,,,,,,,,,,,,,,,,
,,,,,,60b9c8b91a02b297822a37d6,62bbfad0bd910250215f200d,2022-06-29_09h11.47.117,Colour_Asymmetry_Pilot,2022.1.3,Win32,60.17571308,62bbe60bf3d75ef465d3e404,0,18,18,45,1,threefour,,,,,,,,,,,,,,,,,,,,,,,,,,,,,,,,,,,,,,,,,,,,,,,,,,,,,,,,,,,,,,,,,,,,,,,,,,,,,,,,,,,,,,,,,,,,,,,,,,,,,,,,,,,,,,,,,,,,,,,,,,,,,,,,,,,,,,,,,,,,,,,,,,,,,,,,
,,,,,,60b9c8b91a02b297822a37d6,62bbfad0bd910250215f200d,2022-06-29_09h11.47.117,Colour_Asymmetry_Pilot,2022.1.3,Win32,60.17571308,62bbe60bf3d75ef465d3e404,0,19,19,129,1,onethree,,,,,,,,,,,,,,,,,,,,,,,,,,,,,,,,,,,,,,,,,,,,,,,,,,,,,,,,,,,,,,,,,,,,,,,,,,,,,,,,,,,,,,,,,,,,,,,,,,,,,,,,,,,,,,,,,,,,,,,,,,,,,,,,,,,,,,,,,,,,,,,,,,,,,,,,
,,,,,,60b9c8b91a02b297822a37d6,62bbfad0bd910250215f200d,2022-06-29_09h11.47.117,Colour_Asymmetry_Pilot,2022.1.3,Win32,60.17571308,62bbe60bf3d75ef465d3e404,0,20,20,44,1,threeone,,,,,,,,,,,,,,,,,,,,,,,,,,,,,,,,,,,,,,,,,,,,,,,,,,,,,,,,,,,,,,,,,,,,,,,,,,,,,,,,,,,,,,,,,,,,,,,,,,,,,,,,,,,,,,,,,,,,,,,,,,,,,,,,,,,,,,,,,,,,,,,,,,,,,,,,
,,,,,,60b9c8b91a02b297822a37d6,62bbfad0bd910250215f200d,2022-06-29_09h11.47.117,Colour_Asymmetry_Pilot,2022.1.3,Win32,60.17571308,62bbe60bf3d75ef465d3e404,0,21,21,76,1,threeone,,,,,,,,,,,,,,,,,,,,,,,,,,,,,,,,,,,,,,,,,,,,,,,,,,,,,,,,,,,,,,,,,,,,,,,,,,,,,,,,,,,,,,,,,,,,,,,,,,,,,,,,,,,,,,,,,,,,,,,,,,,,,,,,,,,,,,,,,,,,,,,,,,,,,,,,
,,,,,,60b9c8b91a02b297822a37d6,62bbfad0bd910250215f200d,2022-06-29_09h11.47.117,Colour_Asymmetry_Pilot,2022.1.3,Win32,60.17571308,62bbe60bf3d75ef465d3e404,0,22,22,68,1,threeone,,,,,,,,,,,,,,,,,,,,,,,,,,,,,,,,,,,,,,,,,,,,,,,,,,,,,,,,,,,,,,,,,,,,,,,,,,,,,,,,,,,,,,,,,,,,,,,,,,,,,,,,,,,,,,,,,,,,,,,,,,,,,,,,,,,,,,,,,,,,,,,,,,,,,,,,
,,,,,,60b9c8b91a02b297822a37d6,62bbfad0bd910250215f200d,2022-06-29_09h11.47.117,Colour_Asymmetry_Pilot,2022.1.3,Win32,60.17571308,62bbe60bf3d75ef465d3e404,0,23,23,103,1,fourthree,,,,,,,,,,,,,,,,,,,,,,,,,,,,,,,,,,,,,,,,,,,,,,,,,,,,,,,,,,,,,,,,,,,,,,,,,,,,,,,,,,,,,,,,,,,,,,,,,,,,,,,,,,,,,,,,,,,,,,,,,,,,,,,,,,,,,,,,,,,,,,,,,,,,,,,,
,,,,,,60b9c8b91a02b297822a37d6,62bbfad0bd910250215f200d,2022-06-29_09h11.47.117,Colour_Asymmetry_Pilot,2022.1.3,Win32,60.17571308,62bbe60bf3d75ef465d3e404,0,24,24,132,1,threeone,,,,,,,,,,,,,,,,,,,,,,,,,,,,,,,,,,,,,,,,,,,,,,,,,,,,,,,,,,,,,,,,,,,,,,,,,,,,,,,,,,,,,,,,,,,,,,,,,,,,,,,,,,,,,,,,,,,,,,,,,,,,,,,,,,,,,,,,,,,,,,,,,,,,,,,,
,,,,,,60b9c8b91a02b297822a37d6,62bbfad0bd910250215f200d,2022-06-29_09h11.47.117,Colour_Asymmetry_Pilot,2022.1.3,Win32,60.17571308,62bbe60bf3d75ef465d3e404,0,25,25,53,1,threefour,,,,,,,,,,,,,,,,,,,,,,,,,,,,,,,,,,,,,,,,,,,,,,,,,,,,,,,,,,,,,,,,,,,,,,,,,,,,,,,,,,,,,,,,,,,,,,,,,,,,,,,,,,,,,,,,,,,,,,,,,,,,,,,,,,,,,,,,,,,,,,,,,,,,,,,,
,,,,,,60b9c8b91a02b297822a37d6,62bbfad0bd910250215f200d,2022-06-29_09h11.47.117,Colour_Asymmetry_Pilot,2022.1.3,Win32,60.17571308,62bbe60bf3d75ef465d3e404,0,26,26,101,1,threefour,,,,,,,,,,,,,,,,,,,,,,,,,,,,,,,,,,,,,,,,,,,,,,,,,,,,,,,,,,,,,,,,,,,,,,,,,,,,,,,,,,,,,,,,,,,,,,,,,,,,,,,,,,,,,,,,,,,,,,,,,,,,,,,,,,,,,,,,,,,,,,,,,,,,,,,,
,,,,,,60b9c8b91a02b297822a37d6,62bbfad0bd910250215f200d,2022-06-29_09h11.47.117,Colour_Asymmetry_Pilot,2022.1.3,Win32,60.17571308,62bbe60bf3d75ef465d3e404,0,27,27,127,1,fourthree,,,,,,,,,,,,,,,,,,,,,,,,,,,,,,,,,,,,,,,,,,,,,,,,,,,,,,,,,,,,,,,,,,,,,,,,,,,,,,,,,,,,,,,,,,,,,,,,,,,,,,,,,,,,,,,,,,,,,,,,,,,,,,,,,,,,,,,,,,,,,,,,,,,,,,,,
,,,,,,60b9c8b91a02b297822a37d6,62bbfad0bd910250215f200d,2022-06-29_09h11.47.117,Colour_Asymmetry_Pilot,2022.1.3,Win32,60.17571308,62bbe60bf3d75ef465d3e404,0,28,28,118,1,fourtwo,,,,,,,,,,,,,,,,,,,,,,,,,,,,,,,,,,,,,,,,,,,,,,,,,,,,,,,,,,,,,,,,,,,,,,,,,,,,,,,,,,,,,,,,,,,,,,,,,,,,,,,,,,,,,,,,,,,,,,,,,,,,,,,,,,,,,,,,,,,,,,,,,,,,,,,,
,,,,,,60b9c8b91a02b297822a37d6,62bbfad0bd910250215f200d,2022-06-29_09h11.47.117,Colour_Asymmetry_Pilot,2022.1.3,Win32,60.17571308,62bbe60bf3d75ef465d3e404,0,29,29,144,1,onetwo,,,,,,,,,,,,,,,,,,,,,,,,,,,,,,,,,,,,,,,,,,,,,,,,,,,,,,,,,,,,,,,,,,,,,,,,,,,,,,,,,,,,,,,,,,,,,,,,,,,,,,,,,,,,,,,,,,,,,,,,,,,,,,,,,,,,,,,,,,,,,,,,,,,,,,,,
,,,,,,60b9c8b91a02b297822a37d6,62bbfad0bd910250215f200d,2022-06-29_09h11.47.117,Colour_Asymmetry_Pilot,2022.1.3,Win32,60.17571308,62bbe60bf3d75ef465d3e404,0,30,30,9,1,onethree,,,,,,,,,,,,,,,,,,,,,,,,,,,,,,,,,,,,,,,,,,,,,,,,,,,,,,,,,,,,,,,,,,,,,,,,,,,,,,,,,,,,,,,,,,,,,,,,,,,,,,,,,,,,,,,,,,,,,,,,,,,,,,,,,,,,,,,,,,,,,,,,,,,,,,,,
,,,,,,60b9c8b91a02b297822a37d6,62bbfad0bd910250215f200d,2022-06-29_09h11.47.117,Colour_Asymmetry_Pilot,2022.1.3,Win32,60.17571308,62bbe60bf3d75ef465d3e404,0,31,31,95,1,fourthree,,,,,,,,,,,,,,,,,,,,,,,,,,,,,,,,,,,,,,,,,,,,,,,,,,,,,,,,,,,,,,,,,,,,,,,,,,,,,,,,,,,,,,,,,,,,,,,,,,,,,,,,,,,,,,,,,,,,,,,,,,,,,,,,,,,,,,,,,,,,,,,,,,,,,,,,
,,,,,,60b9c8b91a02b297822a37d6,62bbfad0bd910250215f200d,2022-06-29_09h11.47.117,Colour_Asymmetry_Pilot,2022.1.3,Win32,60.17571308,62bbe60bf3d75ef465d3e404,0,32,32,61,1,threefour,,,,,,,,,,,,,,,,,,,,,,,,,,,,,,,,,,,,,,,,,,,,,,,,,,,,,,,,,,,,,,,,,,,,,,,,,,,,,,,,,,,,,,,,,,,,,,,,,,,,,,,,,,,,,,,,,,,,,,,,,,,,,,,,,,,,,,,,,,,,,,,,,,,,,,,,
,,,,,,60b9c8b91a02b297822a37d6,62bbfad0bd910250215f200d,2022-06-29_09h11.47.117,Colour_Asymmetry_Pilot,2022.1.3,Win32,60.17571308,62bbe60bf3d75ef465d3e404,0,33,33,67,1,twofour,,,,,,,,,,,,,,,,,,,,,,,,,,,,,,,,,,,,,,,,,,,,,,,,,,,,,,,,,,,,,,,,,,,,,,,,,,,,,,,,,,,,,,,,,,,,,,,,,,,,,,,,,,,,,,,,,,,,,,,,,,,,,,,,,,,,,,,,,,,,,,,,,,,,,,,,
,,,,,,60b9c8b91a02b297822a37d6,62bbfad0bd910250215f200d,2022-06-29_09h11.47.117,Colour_Asymmetry_Pilot,2022.1.3,Win32,60.17571308,62bbe60bf3d75ef465d3e404,0,34,34,77,1,threefour,,,,,,,,,,,,,,,,,,,,,,,,,,,,,,,,,,,,,,,,,,,,,,,,,,,,,,,,,,,,,,,,,,,,,,,,,,,,,,,,,,,,,,,,,,,,,,,,,,,,,,,,,,,,,,,,,,,,,,,,,,,,,,,,,,,,,,,,,,,,,,,,,,,,,,,,
,,,,,,60b9c8b91a02b297822a37d6,62bbfad0bd910250215f200d,2022-06-29_09h11.47.117,Colour_Asymmetry_Pilot,2022.1.3,Win32,60.17571308,62bbe60bf3d75ef465d3e404,0,35,35,3,1,twofour,,,,,,,,,,,,,,,,,,,,,,,,,,,,,,,,,,,,,,,,,,,,,,,,,,,,,,,,,,,,,,,,,,,,,,,,,,,,,,,,,,,,,,,,,,,,,,,,,,,,,,,,,,,,,,,,,,,,,,,,,,,,,,,,,,,,,,,,,,,,,,,,,,,,,,,,
,,,,,,60b9c8b91a02b297822a37d6,62bbfad0bd910250215f200d,2022-06-29_09h11.47.117,Colour_Asymmetry_Pilot,2022.1.3,Win32,60.17571308,62bbe60bf3d75ef465d3e404,0,36,36,138,1,twoone,,,,,,,,,,,,,,,,,,,,,,,,,,,,,,,,,,,,,,,,,,,,,,,,,,,,,,,,,,,,,,,,,,,,,,,,,,,,,,,,,,,,,,,,,,,,,,,,,,,,,,,,,,,,,,,,,,,,,,,,,,,,,,,,,,,,,,,,,,,,,,,,,,,,,,,,
,,,,,,60b9c8b91a02b297822a37d6,62bbfad0bd910250215f200d,2022-06-29_09h11.47.117,Colour_Asymmetry_Pilot,2022.1.3,Win32,60.17571308,62bbe60bf3d75ef465d3e404,0,37,37,66,1,twoone,,,,,,,,,,,,,,,,,,,,,,,,,,,,,,,,,,,,,,,,,,,,,,,,,,,,,,,,,,,,,,,,,,,,,,,,,,,,,,,,,,,,,,,,,,,,,,,,,,,,,,,,,,,,,,,,,,,,,,,,,,,,,,,,,,,,,,,,,,,,,,,,,,,,,,,,
,,,,,,60b9c8b91a02b297822a37d6,62bbfad0bd910250215f200d,2022-06-29_09h11.47.117,Colour_Asymmetry_Pilot,2022.1.3,Win32,60.17571308,62bbe60bf3d75ef465d3e404,0,38,38,145,1,onethree,,,,,,,,,,,,,,,,,,,,,,,,,,,,,,,,,,,,,,,,,,,,,,,,,,,,,,,,,,,,,,,,,,,,,,,,,,,,,,,,,,,,,,,,,,,,,,,,,,,,,,,,,,,,,,,,,,,,,,,,,,,,,,,,,,,,,,,,,,,,,,,,,,,,,,,,
,,,,,,60b9c8b91a02b297822a37d6,62bbfad0bd910250215f200d,2022-06-29_09h11.47.117,Colour_Asymmetry_Pilot,2022.1.3,Win32,60.17571308,62bbe60bf3d75ef465d3e404,0,39,39,40,1,onetwo,,,,,,,,,,,,,,,,,,,,,,,,,,,,,,,,,,,,,,,,,,,,,,,,,,,,,,,,,,,,,,,,,,,,,,,,,,,,,,,,,,,,,,,,,,,,,,,,,,,,,,,,,,,,,,,,,,,,,,,,,,,,,,,,,,,,,,,,,,,,,,,,,,,,,,,,
,,,,,,60b9c8b91a02b297822a37d6,62bbfad0bd910250215f200d,2022-06-29_09h11.47.117,Colour_Asymmetry_Pilot,2022.1.3,Win32,60.17571308,62bbe60bf3d75ef465d3e404,0,40,40,105,1,onethree,,,,,,,,,,,,,,,,,,,,,,,,,,,,,,,,,,,,,,,,,,,,,,,,,,,,,,,,,,,,,,,,,,,,,,,,,,,,,,,,,,,,,,,,,,,,,,,,,,,,,,,,,,,,,,,,,,,,,,,,,,,,,,,,,,,,,,,,,,,,,,,,,,,,,,,,
,,,,,,60b9c8b91a02b297822a37d6,62bbfad0bd910250215f200d,2022-06-29_09h11.47.117,Colour_Asymmetry_Pilot,2022.1.3,Win32,60.17571308,62bbe60bf3d75ef465d3e404,0,41,41,39,1,fourthree,,,,,,,,,,,,,,,,,,,,,,,,,,,,,,,,,,,,,,,,,,,,,,,,,,,,,,,,,,,,,,,,,,,,,,,,,,,,,,,,,,,,,,,,,,,,,,,,,,,,,,,,,,,,,,,,,,,,,,,,,,,,,,,,,,,,,,,,,,,,,,,,,,,,,,,,
,,,,,,60b9c8b91a02b297822a37d6,62bbfad0bd910250215f200d,2022-06-29_09h11.47.117,Colour_Asymmetry_Pilot,2022.1.3,Win32,60.17571308,62bbe60bf3d75ef465d3e404,0,42,42,21,1,threefour,,,,,,,,,,,,,,,,,,,,,,,,,,,,,,,,,,,,,,,,,,,,,,,,,,,,,,,,,,,,,,,,,,,,,,,,,,,,,,,,,,,,,,,,,,,,,,,,,,,,,,,,,,,,,,,,,,,,,,,,,,,,,,,,,,,,,,,,,,,,,,,,,,,,,,,,
,,,,,,60b9c8b91a02b297822a37d6,62bbfad0bd910250215f200d,2022-06-29_09h11.47.117,Colour_Asymmetry_Pilot,2022.1.3,Win32,60.17571308,62bbe60bf3d75ef465d3e404,0,43,43,19,1,twofour,,,,,,,,,,,,,,,,,,,,,,,,,,,,,,,,,,,,,,,,,,,,,,,,,,,,,,,,,,,,,,,,,,,,,,,,,,,,,,,,,,,,,,,,,,,,,,,,,,,,,,,,,,,,,,,,,,,,,,,,,,,,,,,,,,,,,,,,,,,,,,,,,,,,,,,,
,,,,,,60b9c8b91a02b297822a37d6,62bbfad0bd910250215f200d,2022-06-29_09h11.47.117,Colour_Asymmetry_Pilot,2022.1.3,Win32,60.17571308,62bbe60bf3d75ef465d3e404,0,44,44,38,1,fourtwo,,,,,,,,,,,,,,,,,,,,,,,,,,,,,,,,,,,,,,,,,,,,,,,,,,,,,,,,,,,,,,,,,,,,,,,,,,,,,,,,,,,,,,,,,,,,,,,,,,,,,,,,,,,,,,,,,,,,,,,,,,,,,,,,,,,,,,,,,,,,,,,,,,,,,,,,
,,,,,,60b9c8b91a02b297822a37d6,62bbfad0bd910250215f200d,2022-06-29_09h11.47.117,Colour_Asymmetry_Pilot,2022.1.3,Win32,60.17571308,62bbe60bf3d75ef465d3e404,0,45,45,142,1,fourtwo,,,,,,,,,,,,,,,,,,,,,,,,,,,,,,,,,,,,,,,,,,,,,,,,,,,,,,,,,,,,,,,,,,,,,,,,,,,,,,,,,,,,,,,,,,,,,,,,,,,,,,,,,,,,,,,,,,,,,,,,,,,,,,,,,,,,,,,,,,,,,,,,,,,,,,,,
,,,,,,60b9c8b91a02b297822a37d6,62bbfad0bd910250215f200d,2022-06-29_09h11.47.117,Colour_Asymmetry_Pilot,2022.1.3,Win32,60.17571308,62bbe60bf3d75ef465d3e404,0,46,46,51,1,twofour,,,,,,,,,,,,,,,,,,,,,,,,,,,,,,,,,,,,,,,,,,,,,,,,,,,,,,,,,,,,,,,,,,,,,,,,,,,,,,,,,,,,,,,,,,,,,,,,,,,,,,,,,,,,,,,,,,,,,,,,,,,,,,,,,,,,,,,,,,,,,,,,,,,,,,,,
,,,,,,60b9c8b91a02b297822a37d6,62bbfad0bd910250215f200d,2022-06-29_09h11.47.117,Colour_Asymmetry_Pilot,2022.1.3,Win32,60.17571308,62bbe60bf3d75ef465d3e404,0,47,47,55,1,fourthree,,,,,,,,,,,,,,,,,,,,,,,,,,,,,,,,,,,,,,,,,,,,,,,,,,,,,,,,,,,,,,,,,,,,,,,,,,,,,,,,,,,,,,,,,,,,,,,,,,,,,,,,,,,,,,,,,,,,,,,,,,,,,,,,,,,,,,,,,,,,,,,,,,,,,,,,
,,,,,,60b9c8b91a02b297822a37d6,62bbfad0bd910250215f200d,2022-06-29_09h11.47.117,Colour_Asymmetry_Pilot,2022.1.3,Win32,60.17571308,62bbe60bf3d75ef465d3e404,0,48,48,96,1,onetwo,,,,,,,,,,,,,,,,,,,,,,,,,,,,,,,,,,,,,,,,,,,,,,,,,,,,,,,,,,,,,,,,,,,,,,,,,,,,,,,,,,,,,,,,,,,,,,,,,,,,,,,,,,,,,,,,,,,,,,,,,,,,,,,,,,,,,,,,,,,,,,,,,,,,,,,,
,,,,,,60b9c8b91a02b297822a37d6,62bbfad0bd910250215f200d,2022-06-29_09h11.47.117,Colour_Asymmetry_Pilot,2022.1.3,Win32,60.17571308,62bbe60bf3d75ef465d3e404,0,49,49,63,1,fourthree,,,,,,,,,,,,,,,,,,,,,,,,,,,,,,,,,,,,,,,,,,,,,,,,,,,,,,,,,,,,,,,,,,,,,,,,,,,,,,,,,,,,,,,,,,,,,,,,,,,,,,,,,,,,,,,,,,,,,,,,,,,,,,,,,,,,,,,,,,,,,,,,,,,,,,,,
,,,,,,60b9c8b91a02b297822a37d6,62bbfad0bd910250215f200d,2022-06-29_09h11.47.117,Colour_Asymmetry_Pilot,2022.1.3,Win32,60.17571308,62bbe60bf3d75ef465d3e404,0,50,50,133,1,threefour,,,,,,,,,,,,,,,,,,,,,,,,,,,,,,,,,,,,,,,,,,,,,,,,,,,,,,,,,,,,,,,,,,,,,,,,,,,,,,,,,,,,,,,,,,,,,,,,,,,,,,,,,,,,,,,,,,,,,,,,,,,,,,,,,,,,,,,,,,,,,,,,,,,,,,,,
,,,,,,60b9c8b91a02b297822a37d6,62bbfad0bd910250215f200d,2022-06-29_09h11.47.117,Colour_Asymmetry_Pilot,2022.1.3,Win32,60.17571308,62bbe60bf3d75ef465d3e404,0,51,51,121,1,onethree,,,,,,,,,,,,,,,,,,,,,,,,,,,,,,,,,,,,,,,,,,,,,,,,,,,,,,,,,,,,,,,,,,,,,,,,,,,,,,,,,,,,,,,,,,,,,,,,,,,,,,,,,,,,,,,,,,,,,,,,,,,,,,,,,,,,,,,,,,,,,,,,,,,,,,,,
,,,,,,60b9c8b91a02b297822a37d6,62bbfad0bd910250215f200d,2022-06-29_09h11.47.117,Colour_Asymmetry_Pilot,2022.1.3,Win32,60.17571308,62bbe60bf3d75ef465d3e404,0,52,52,98,1,twoone,,,,,,,,,,,,,,,,,,,,,,,,,,,,,,,,,,,,,,,,,,,,,,,,,,,,,,,,,,,,,,,,,,,,,,,,,,,,,,,,,,,,,,,,,,,,,,,,,,,,,,,,,,,,,,,,,,,,,,,,,,,,,,,,,,,,,,,,,,,,,,,,,,,,,,,,
,,,,,,60b9c8b91a02b297822a37d6,62bbfad0bd910250215f200d,2022-06-29_09h11.47.117,Colour_Asymmetry_Pilot,2022.1.3,Win32,60.17571308,62bbe60bf3d75ef465d3e404,0,53,53,143,1,fourthree,,,,,,,,,,,,,,,,,,,,,,,,,,,,,,,,,,,,,,,,,,,,,,,,,,,,,,,,,,,,,,,,,,,,,,,,,,,,,,,,,,,,,,,,,,,,,,,,,,,,,,,,,,,,,,,,,,,,,,,,,,,,,,,,,,,,,,,,,,,,,,,,,,,,,,,,
,,,,,,60b9c8b91a02b297822a37d6,62bbfad0bd910250215f200d,2022-06-29_09h11.47.117,Colour_Asymmetry_Pilot,2022.1.3,Win32,60.17571308,62bbe60bf3d75ef465d3e404,0,54,54,58,1,twoone,,,,,,,,,,,,,,,,,,,,,,,,,,,,,,,,,,,,,,,,,,,,,,,,,,,,,,,,,,,,,,,,,,,,,,,,,,,,,,,,,,,,,,,,,,,,,,,,,,,,,,,,,,,,,,,,,,,,,,,,,,,,,,,,,,,,,,,,,,,,,,,,,,,,,,,,
,,,,,,60b9c8b91a02b297822a37d6,62bbfad0bd910250215f200d,2022-06-29_09h11.47.117,Colour_Asymmetry_Pilot,2022.1.3,Win32,60.17571308,62bbe60bf3d75ef465d3e404,0,55,55,128,1,onetwo,,,,,,,,,,,,,,,,,,,,,,,,,,,,,,,,,,,,,,,,,,,,,,,,,,,,,,,,,,,,,,,,,,,,,,,,,,,,,,,,,,,,,,,,,,,,,,,,,,,,,,,,,,,,,,,,,,,,,,,,,,,,,,,,,,,,,,,,,,,,,,,,,,,,,,,,
,,,,,,60b9c8b91a02b297822a37d6,62bbfad0bd910250215f200d,2022-06-29_09h11.47.117,Colour_Asymmetry_Pilot,2022.1.3,Win32,60.17571308,62bbe60bf3d75ef465d3e404,0,56,56,108,1,threeone,,,,,,,,,,,,,,,,,,,,,,,,,,,,,,,,,,,,,,,,,,,,,,,,,,,,,,,,,,,,,,,,,,,,,,,,,,,,,,,,,,,,,,,,,,,,,,,,,,,,,,,,,,,,,,,,,,,,,,,,,,,,,,,,,,,,,,,,,,,,,,,,,,,,,,,,
,,,,,,60b9c8b91a02b297822a37d6,62bbfad0bd910250215f200d,2022-06-29_09h11.47.117,Colour_Asymmetry_Pilot,2022.1.3,Win32,60.17571308,62bbe60bf3d75ef465d3e404,0,57,57,41,1,onethree,,,,,,,,,,,,,,,,,,,,,,,,,,,,,,,,,,,,,,,,,,,,,,,,,,,,,,,,,,,,,,,,,,,,,,,,,,,,,,,,,,,,,,,,,,,,,,,,,,,,,,,,,,,,,,,,,,,,,,,,,,,,,,,,,,,,,,,,,,,,,,,,,,,,,,,,
,,,,,,60b9c8b91a02b297822a37d6,62bbfad0bd910250215f200d,2022-06-29_09h11.47.117,Colour_Asymmetry_Pilot,2022.1.3,Win32,60.17571308,62bbe60bf3d75ef465d3e404,0,58,58,124,1,threeone,,,,,,,,,,,,,,,,,,,,,,,,,,,,,,,,,,,,,,,,,,,,,,,,,,,,,,,,,,,,,,,,,,,,,,,,,,,,,,,,,,,,,,,,,,,,,,,,,,,,,,,,,,,,,,,,,,,,,,,,,,,,,,,,,,,,,,,,,,,,,,,,,,,,,,,,
,,,,,,60b9c8b91a02b297822a37d6,62bbfad0bd910250215f200d,2022-06-29_09h11.47.117,Colour_Asymmetry_Pilot,2022.1.3,Win32,60.17571308,62bbe60bf3d75ef465d3e404,0,59,59,126,1,fourtwo,,,,,,,,,,,,,,,,,,,,,,,,,,,,,,,,,,,,,,,,,,,,,,,,,,,,,,,,,,,,,,,,,,,,,,,,,,,,,,,,,,,,,,,,,,,,,,,,,,,,,,,,,,,,,,,,,,,,,,,,,,,,,,,,,,,,,,,,,,,,,,,,,,,,,,,,
,,,,,,60b9c8b91a02b297822a37d6,62bbfad0bd910250215f200d,2022-06-29_09h11.47.117,Colour_Asymmetry_Pilot,2022.1.3,Win32,60.17571308,62bbe60bf3d75ef465d3e404,0,60,60,78,1,fourtwo,,,,,,,,,,,,,,,,,,,,,,,,,,,,,,,,,,,,,,,,,,,,,,,,,,,,,,,,,,,,,,,,,,,,,,,,,,,,,,,,,,,,,,,,,,,,,,,,,,,,,,,,,,,,,,,,,,,,,,,,,,,,,,,,,,,,,,,,,,,,,,,,,,,,,,,,
,,,,,,60b9c8b91a02b297822a37d6,62bbfad0bd910250215f200d,2022-06-29_09h11.47.117,Colour_Asymmetry_Pilot,2022.1.3,Win32,60.17571308,62bbe60bf3d75ef465d3e404,0,61,61,122,1,twoone,,,,,,,,,,,,,,,,,,,,,,,,,,,,,,,,,,,,,,,,,,,,,,,,,,,,,,,,,,,,,,,,,,,,,,,,,,,,,,,,,,,,,,,,,,,,,,,,,,,,,,,,,,,,,,,,,,,,,,,,,,,,,,,,,,,,,,,,,,,,,,,,,,,,,,,,
,,,,,,60b9c8b91a02b297822a37d6,62bbfad0bd910250215f200d,2022-06-29_09h11.47.117,Colour_Asymmetry_Pilot,2022.1.3,Win32,60.17571308,62bbe60bf3d75ef465d3e404,0,62,62,131,1,twofour,,,,,,,,,,,,,,,,,,,,,,,,,,,,,,,,,,,,,,,,,,,,,,,,,,,,,,,,,,,,,,,,,,,,,,,,,,,,,,,,,,,,,,,,,,,,,,,,,,,,,,,,,,,,,,,,,,,,,,,,,,,,,,,,,,,,,,,,,,,,,,,,,,,,,,,,
,,,,,,60b9c8b91a02b297822a37d6,62bbfad0bd910250215f200d,2022-06-29_09h11.47.117,Colour_Asymmetry_Pilot,2022.1.3,Win32,60.17571308,62bbe60bf3d75ef465d3e404,0,63,63,112,1,onetwo,,,,,,,,,,,,,,,,,,,,,,,,,,,,,,,,,,,,,,,,,,,,,,,,,,,,,,,,,,,,,,,,,,,,,,,,,,,,,,,,,,,,,,,,,,,,,,,,,,,,,,,,,,,,,,,,,,,,,,,,,,,,,,,,,,,,,,,,,,,,,,,,,,,,,,,,
,,,,,,60b9c8b91a02b297822a37d6,62bbfad0bd910250215f200d,2022-06-29_09h11.47.117,Colour_Asymmetry_Pilot,2022.1.3,Win32,60.17571308,62bbe60bf3d75ef465d3e404,0,64,64,117,1,threefour,,,,,,,,,,,,,,,,,,,,,,,,,,,,,,,,,,,,,,,,,,,,,,,,,,,,,,,,,,,,,,,,,,,,,,,,,,,,,,,,,,,,,,,,,,,,,,,,,,,,,,,,,,,,,,,,,,,,,,,,,,,,,,,,,,,,,,,,,,,,,,,,,,,,,,,,
,,,,,,60b9c8b91a02b297822a37d6,62bbfad0bd910250215f200d,2022-06-29_09h11.47.117,Colour_Asymmetry_Pilot,2022.1.3,Win32,60.17571308,62bbe60bf3d75ef465d3e404,0,65,65,26,1,twoone,,,,,,,,,,,,,,,,,,,,,,,,,,,,,,,,,,,,,,,,,,,,,,,,,,,,,,,,,,,,,,,,,,,,,,,,,,,,,,,,,,,,,,,,,,,,,,,,,,,,,,,,,,,,,,,,,,,,,,,,,,,,,,,,,,,,,,,,,,,,,,,,,,,,,,,,
,,,,,,60b9c8b91a02b297822a37d6,62bbfad0bd910250215f200d,2022-06-29_09h11.47.117,Colour_Asymmetry_Pilot,2022.1.3,Win32,60.17571308,62bbe60bf3d75ef465d3e404,0,66,66,159,1,fourthree,,,,,,,,,,,,,,,,,,,,,,,,,,,,,,,,,,,,,,,,,,,,,,,,,,,,,,,,,,,,,,,,,,,,,,,,,,,,,,,,,,,,,,,,,,,,,,,,,,,,,,,,,,,,,,,,,,,,,,,,,,,,,,,,,,,,,,,,,,,,,,,,,,,,,,,,
,,,,,,60b9c8b91a02b297822a37d6,62bbfad0bd910250215f200d,2022-06-29_09h11.47.117,Colour_Asymmetry_Pilot,2022.1.3,Win32,60.17571308,62bbe60bf3d75ef465d3e404,0,67,67,111,1,fourthree,,,,,,,,,,,,,,,,,,,,,,,,,,,,,,,,,,,,,,,,,,,,,,,,,,,,,,,,,,,,,,,,,,,,,,,,,,,,,,,,,,,,,,,,,,,,,,,,,,,,,,,,,,,,,,,,,,,,,,,,,,,,,,,,,,,,,,,,,,,,,,,,,,,,,,,,
,,,,,,60b9c8b91a02b297822a37d6,62bbfad0bd910250215f200d,2022-06-29_09h11.47.117,Colour_Asymmetry_Pilot,2022.1.3,Win32,60.17571308,62bbe60bf3d75ef465d3e404,0,68,68,160,1,onetwo,,,,,,,,,,,,,,,,,,,,,,,,,,,,,,,,,,,,,,,,,,,,,,,,,,,,,,,,,,,,,,,,,,,,,,,,,,,,,,,,,,,,,,,,,,,,,,,,,,,,,,,,,,,,,,,,,,,,,,,,,,,,,,,,,,,,,,,,,,,,,,,,,,,,,,,,
,,,,,,60b9c8b91a02b297822a37d6,62bbfad0bd910250215f200d,2022-06-29_09h11.47.117,Colour_Asymmetry_Pilot,2022.1.3,Win32,60.17571308,62bbe60bf3d75ef465d3e404,0,69,69,0,1,onetwo,,,,,,,,,,,,,,,,,,,,,,,,,,,,,,,,,,,,,,,,,,,,,,,,,,,,,,,,,,,,,,,,,,,,,,,,,,,,,,,,,,,,,,,,,,,,,,,,,,,,,,,,,,,,,,,,,,,,,,,,,,,,,,,,,,,,,,,,,,,,,,,,,,,,,,,,
,,,,,,60b9c8b91a02b297822a37d6,62bbfad0bd910250215f200d,2022-06-29_09h11.47.117,Colour_Asymmetry_Pilot,2022.1.3,Win32,60.17571308,62bbe60bf3d75ef465d3e404,0,70,70,113,1,onethree,,,,,,,,,,,,,,,,,,,,,,,,,,,,,,,,,,,,,,,,,,,,,,,,,,,,,,,,,,,,,,,,,,,,,,,,,,,,,,,,,,,,,,,,,,,,,,,,,,,,,,,,,,,,,,,,,,,,,,,,,,,,,,,,,,,,,,,,,,,,,,,,,,,,,,,,
,,,,,,60b9c8b91a02b297822a37d6,62bbfad0bd910250215f200d,2022-06-29_09h11.47.117,Colour_Asymmetry_Pilot,2022.1.3,Win32,60.17571308,62bbe60bf3d75ef465d3e404,0,71,71,157,1,threefour,,,,,,,,,,,,,,,,,,,,,,,,,,,,,,,,,,,,,,,,,,,,,,,,,,,,,,,,,,,,,,,,,,,,,,,,,,,,,,,,,,,,,,,,,,,,,,,,,,,,,,,,,,,,,,,,,,,,,,,,,,,,,,,,,,,,,,,,,,,,,,,,,,,,,,,,
,,,,,,60b9c8b91a02b297822a37d6,62bbfad0bd910250215f200d,2022-06-29_09h11.47.117,Colour_Asymmetry_Pilot,2022.1.3,Win32,60.17571308,62bbe60bf3d75ef465d3e404,0,72,72,74,1,twoone,,,,,,,,,,,,,,,,,,,,,,,,,,,,,,,,,,,,,,,,,,,,,,,,,,,,,,,,,,,,,,,,,,,,,,,,,,,,,,,,,,,,,,,,,,,,,,,,,,,,,,,,,,,,,,,,,,,,,,,,,,,,,,,,,,,,,,,,,,,,,,,,,,,,,,,,
,,,,,,60b9c8b91a02b297822a37d6,62bbfad0bd910250215f200d,2022-06-29_09h11.47.117,Colour_Asymmetry_Pilot,2022.1.3,Win32,60.17571308,62bbe60bf3d75ef465d3e404,0,73,73,31,1,fourthree,,,,,,,,,,,,,,,,,,,,,,,,,,,,,,,,,,,,,,,,,,,,,,,,,,,,,,,,,,,,,,,,,,,,,,,,,,,,,,,,,,,,,,,,,,,,,,,,,,,,,,,,,,,,,,,,,,,,,,,,,,,,,,,,,,,,,,,,,,,,,,,,,,,,,,,,
,,,,,,60b9c8b91a02b297822a37d6,62bbfad0bd910250215f200d,2022-06-29_09h11.47.117,Colour_Asymmetry_Pilot,2022.1.3,Win32,60.17571308,62bbe60bf3d75ef465d3e404,0,74,74,83,1,twofour,,,,,,,,,,,,,,,,,,,,,,,,,,,,,,,,,,,,,,,,,,,,,,,,,,,,,,,,,,,,,,,,,,,,,,,,,,,,,,,,,,,,,,,,,,,,,,,,,,,,,,,,,,,,,,,,,,,,,,,,,,,,,,,,,,,,,,,,,,,,,,,,,,,,,,,,
,,,,,,60b9c8b91a02b297822a37d6,62bbfad0bd910250215f200d,2022-06-29_09h11.47.117,Colour_Asymmetry_Pilot,2022.1.3,Win32,60.17571308,62bbe60bf3d75ef465d3e404,0,75,75,123,1,twofour,,,,,,,,,,,,,,,,,,,,,,,,,,,,,,,,,,,,,,,,,,,,,,,,,,,,,,,,,,,,,,,,,,,,,,,,,,,,,,,,,,,,,,,,,,,,,,,,,,,,,,,,,,,,,,,,,,,,,,,,,,,,,,,,,,,,,,,,,,,,,,,,,,,,,,,,
,,,,,,60b9c8b91a02b297822a37d6,62bbfad0bd910250215f200d,2022-06-29_09h11.47.117,Colour_Asymmetry_Pilot,2022.1.3,Win32,60.17571308,62bbe60bf3d75ef465d3e404,0,76,76,36,1,threeone,,,,,,,,,,,,,,,,,,,,,,,,,,,,,,,,,,,,,,,,,,,,,,,,,,,,,,,,,,,,,,,,,,,,,,,,,,,,,,,,,,,,,,,,,,,,,,,,,,,,,,,,,,,,,,,,,,,,,,,,,,,,,,,,,,,,,,,,,,,,,,,,,,,,,,,,
,,,,,,60b9c8b91a02b297822a37d6,62bbfad0bd910250215f200d,2022-06-29_09h11.47.117,Colour_Asymmetry_Pilot,2022.1.3,Win32,60.17571308,62bbe60bf3d75ef465d3e404,0,77,77,4,1,threeone,,,,,,,,,,,,,,,,,,,,,,,,,,,,,,,,,,,,,,,,,,,,,,,,,,,,,,,,,,,,,,,,,,,,,,,,,,,,,,,,,,,,,,,,,,,,,,,,,,,,,,,,,,,,,,,,,,,,,,,,,,,,,,,,,,,,,,,,,,,,,,,,,,,,,,,,
,,,,,,60b9c8b91a02b297822a37d6,62bbfad0bd910250215f200d,2022-06-29_09h11.47.117,Colour_Asymmetry_Pilot,2022.1.3,Win32,60.17571308,62bbe60bf3d75ef465d3e404,0,78,78,86,1,fourtwo,,,,,,,,,,,,,,,,,,,,,,,,,,,,,,,,,,,,,,,,,,,,,,,,,,,,,,,,,,,,,,,,,,,,,,,,,,,,,,,,,,,,,,,,,,,,,,,,,,,,,,,,,,,,,,,,,,,,,,,,,,,,,,,,,,,,,,,,,,,,,,,,,,,,,,,,
,,,,,,60b9c8b91a02b297822a37d6,62bbfad0bd910250215f200d,2022-06-29_09h11.47.117,Colour_Asymmetry_Pilot,2022.1.3,Win32,60.17571308,62bbe60bf3d75ef465d3e404,0,79,79,114,1,twoone,,,,,,,,,,,,,,,,,,,,,,,,,,,,,,,,,,,,,,,,,,,,,,,,,,,,,,,,,,,,,,,,,,,,,,,,,,,,,,,,,,,,,,,,,,,,,,,,,,,,,,,,,,,,,,,,,,,,,,,,,,,,,,,,,,,,,,,,,,,,,,,,,,,,,,,,
,,,,,,60b9c8b91a02b297822a37d6,62bbfad0bd910250215f200d,2022-06-29_09h11.47.117,Colour_Asymmetry_Pilot,2022.1.3,Win32,60.17571308,62bbe60bf3d75ef465d3e404,0,80,80,47,1,fourthree,,,,,,,,,,,,,,,,,,,,,,,,,,,,,,,,,,,,,,,,,,,,,,,,,,,,,,,,,,,,,,,,,,,,,,,,,,,,,,,,,,,,,,,,,,,,,,,,,,,,,,,,,,,,,,,,,,,,,,,,,,,,,,,,,,,,,,,,,,,,,,,,,,,,,,,,
,,,,,,60b9c8b91a02b297822a37d6,62bbfad0bd910250215f200d,2022-06-29_09h11.47.117,Colour_Asymmetry_Pilot,2022.1.3,Win32,60.17571308,62bbe60bf3d75ef465d3e404,0,81,81,125,1,threefour,,,,,,,,,,,,,,,,,,,,,,,,,,,,,,,,,,,,,,,,,,,,,,,,,,,,,,,,,,,,,,,,,,,,,,,,,,,,,,,,,,,,,,,,,,,,,,,,,,,,,,,,,,,,,,,,,,,,,,,,,,,,,,,,,,,,,,,,,,,,,,,,,,,,,,,,
,,,,,,60b9c8b91a02b297822a37d6,62bbfad0bd910250215f200d,2022-06-29_09h11.47.117,Colour_Asymmetry_Pilot,2022.1.3,Win32,60.17571308,62bbe60bf3d75ef465d3e404,0,82,82,16,1,onetwo,,,,,,,,,,,,,,,,,,,,,,,,,,,,,,,,,,,,,,,,,,,,,,,,,,,,,,,,,,,,,,,,,,,,,,,,,,,,,,,,,,,,,,,,,,,,,,,,,,,,,,,,,,,,,,,,,,,,,,,,,,,,,,,,,,,,,,,,,,,,,,,,,,,,,,,,
,,,,,,60b9c8b91a02b297822a37d6,62bbfad0bd910250215f200d,2022-06-29_09h11.47.117,Colour_Asymmetry_Pilot,2022.1.3,Win32,60.17571308,62bbe60bf3d75ef465d3e404,0,83,83,50,1,twoone,,,,,,,,,,,,,,,,,,,,,,,,,,,,,,,,,,,,,,,,,,,,,,,,,,,,,,,,,,,,,,,,,,,,,,,,,,,,,,,,,,,,,,,,,,,,,,,,,,,,,,,,,,,,,,,,,,,,,,,,,,,,,,,,,,,,,,,,,,,,,,,,,,,,,,,,
,,,,,,60b9c8b91a02b297822a37d6,62bbfad0bd910250215f200d,2022-06-29_09h11.47.117,Colour_Asymmetry_Pilot,2022.1.3,Win32,60.17571308,62bbe60bf3d75ef465d3e404,0,84,84,104,1,onetwo,,,,,,,,,,,,,,,,,,,,,,,,,,,,,,,,,,,,,,,,,,,,,,,,,,,,,,,,,,,,,,,,,,,,,,,,,,,,,,,,,,,,,,,,,,,,,,,,,,,,,,,,,,,,,,,,,,,,,,,,,,,,,,,,,,,,,,,,,,,,,,,,,,,,,,,,
,,,,,,60b9c8b91a02b297822a37d6,62bbfad0bd910250215f200d,2022-06-29_09h11.47.117,Colour_Asymmetry_Pilot,2022.1.3,Win32,60.17571308,62bbe60bf3d75ef465d3e404,0,85,85,85,1,threefour,,,,,,,,,,,,,,,,,,,,,,,,,,,,,,,,,,,,,,,,,,,,,,,,,,,,,,,,,,,,,,,,,,,,,,,,,,,,,,,,,,,,,,,,,,,,,,,,,,,,,,,,,,,,,,,,,,,,,,,,,,,,,,,,,,,,,,,,,,,,,,,,,,,,,,,,
,,,,,,60b9c8b91a02b297822a37d6,62bbfad0bd910250215f200d,2022-06-29_09h11.47.117,Colour_Asymmetry_Pilot,2022.1.3,Win32,60.17571308,62bbe60bf3d75ef465d3e404,0,86,86,158,1,fourtwo,,,,,,,,,,,,,,,,,,,,,,,,,,,,,,,,,,,,,,,,,,,,,,,,,,,,,,,,,,,,,,,,,,,,,,,,,,,,,,,,,,,,,,,,,,,,,,,,,,,,,,,,,,,,,,,,,,,,,,,,,,,,,,,,,,,,,,,,,,,,,,,,,,,,,,,,
,,,,,,60b9c8b91a02b297822a37d6,62bbfad0bd910250215f200d,2022-06-29_09h11.47.117,Colour_Asymmetry_Pilot,2022.1.3,Win32,60.17571308,62bbe60bf3d75ef465d3e404,0,87,87,72,1,onetwo,,,,,,,,,,,,,,,,,,,,,,,,,,,,,,,,,,,,,,,,,,,,,,,,,,,,,,,,,,,,,,,,,,,,,,,,,,,,,,,,,,,,,,,,,,,,,,,,,,,,,,,,,,,,,,,,,,,,,,,,,,,,,,,,,,,,,,,,,,,,,,,,,,,,,,,,
,,,,,,60b9c8b91a02b297822a37d6,62bbfad0bd910250215f200d,2022-06-29_09h11.47.117,Colour_Asymmetry_Pilot,2022.1.3,Win32,60.17571308,62bbe60bf3d75ef465d3e404,0,88,88,151,1,fourthree,,,,,,,,,,,,,,,,,,,,,,,,,,,,,,,,,,,,,,,,,,,,,,,,,,,,,,,,,,,,,,,,,,,,,,,,,,,,,,,,,,,,,,,,,,,,,,,,,,,,,,,,,,,,,,,,,,,,,,,,,,,,,,,,,,,,,,,,,,,,,,,,,,,,,,,,
,,,,,,60b9c8b91a02b297822a37d6,62bbfad0bd910250215f200d,2022-06-29_09h11.47.117,Colour_Asymmetry_Pilot,2022.1.3,Win32,60.17571308,62bbe60bf3d75ef465d3e404,0,89,89,7,1,fourthree,,,,,,,,,,,,,,,,,,,,,,,,,,,,,,,,,,,,,,,,,,,,,,,,,,,,,,,,,,,,,,,,,,,,,,,,,,,,,,,,,,,,,,,,,,,,,,,,,,,,,,,,,,,,,,,,,,,,,,,,,,,,,,,,,,,,,,,,,,,,,,,,,,,,,,,,
,,,,,,60b9c8b91a02b297822a37d6,62bbfad0bd910250215f200d,2022-06-29_09h11.47.117,Colour_Asymmetry_Pilot,2022.1.3,Win32,60.17571308,62bbe60bf3d75ef465d3e404,0,90,90,94,1,fourtwo,,,,,,,,,,,,,,,,,,,,,,,,,,,,,,,,,,,,,,,,,,,,,,,,,,,,,,,,,,,,,,,,,,,,,,,,,,,,,,,,,,,,,,,,,,,,,,,,,,,,,,,,,,,,,,,,,,,,,,,,,,,,,,,,,,,,,,,,,,,,,,,,,,,,,,,,
,,,,,,60b9c8b91a02b297822a37d6,62bbfad0bd910250215f200d,2022-06-29_09h11.47.117,Colour_Asymmetry_Pilot,2022.1.3,Win32,60.17571308,62bbe60bf3d75ef465d3e404,0,91,91,90,1,twoone,,,,,,,,,,,,,,,,,,,,,,,,,,,,,,,,,,,,,,,,,,,,,,,,,,,,,,,,,,,,,,,,,,,,,,,,,,,,,,,,,,,,,,,,,,,,,,,,,,,,,,,,,,,,,,,,,,,,,,,,,,,,,,,,,,,,,,,,,,,,,,,,,,,,,,,,
,,,,,,60b9c8b91a02b297822a37d6,62bbfad0bd910250215f200d,2022-06-29_09h11.47.117,Colour_Asymmetry_Pilot,2022.1.3,Win32,60.17571308,62bbe60bf3d75ef465d3e404,0,92,92,137,1,onethree,,,,,,,,,,,,,,,,,,,,,,,,,,,,,,,,,,,,,,,,,,,,,,,,,,,,,,,,,,,,,,,,,,,,,,,,,,,,,,,,,,,,,,,,,,,,,,,,,,,,,,,,,,,,,,,,,,,,,,,,,,,,,,,,,,,,,,,,,,,,,,,,,,,,,,,,
,,,,,,60b9c8b91a02b297822a37d6,62bbfad0bd910250215f200d,2022-06-29_09h11.47.117,Colour_Asymmetry_Pilot,2022.1.3,Win32,60.17571308,62bbe60bf3d75ef465d3e404,0,93,93,91,1,twofour,,,,,,,,,,,,,,,,,,,,,,,,,,,,,,,,,,,,,,,,,,,,,,,,,,,,,,,,,,,,,,,,,,,,,,,,,,,,,,,,,,,,,,,,,,,,,,,,,,,,,,,,,,,,,,,,,,,,,,,,,,,,,,,,,,,,,,,,,,,,,,,,,,,,,,,,
,,,,,,60b9c8b91a02b297822a37d6,62bbfad0bd910250215f200d,2022-06-29_09h11.47.117,Colour_Asymmetry_Pilot,2022.1.3,Win32,60.17571308,62bbe60bf3d75ef465d3e404,0,94,94,99,1,twofour,,,,,,,,,,,,,,,,,,,,,,,,,,,,,,,,,,,,,,,,,,,,,,,,,,,,,,,,,,,,,,,,,,,,,,,,,,,,,,,,,,,,,,,,,,,,,,,,,,,,,,,,,,,,,,,,,,,,,,,,,,,,,,,,,,,,,,,,,,,,,,,,,,,,,,,,
,,,,,,60b9c8b91a02b297822a37d6,62bbfad0bd910250215f200d,2022-06-29_09h11.47.117,Colour_Asymmetry_Pilot,2022.1.3,Win32,60.17571308,62bbe60bf3d75ef465d3e404,0,95,95,139,1,twofour,,,,,,,,,,,,,,,,,,,,,,,,,,,,,,,,,,,,,,,,,,,,,,,,,,,,,,,,,,,,,,,,,,,,,,,,,,,,,,,,,,,,,,,,,,,,,,,,,,,,,,,,,,,,,,,,,,,,,,,,,,,,,,,,,,,,,,,,,,,,,,,,,,,,,,,,
,,,,,,60b9c8b91a02b297822a37d6,62bbfad0bd910250215f200d,2022-06-29_09h11.47.117,Colour_Asymmetry_Pilot,2022.1.3,Win32,60.17571308,62bbe60bf3d75ef465d3e404,0,96,96,34,1,twoone,,,,,,,,,,,,,,,,,,,,,,,,,,,,,,,,,,,,,,,,,,,,,,,,,,,,,,,,,,,,,,,,,,,,,,,,,,,,,,,,,,,,,,,,,,,,,,,,,,,,,,,,,,,,,,,,,,,,,,,,,,,,,,,,,,,,,,,,,,,,,,,,,,,,,,,,
,,,,,,60b9c8b91a02b297822a37d6,62bbfad0bd910250215f200d,2022-06-29_09h11.47.117,Colour_Asymmetry_Pilot,2022.1.3,Win32,60.17571308,62bbe60bf3d75ef465d3e404,0,97,97,17,1,onethree,,,,,,,,,,,,,,,,,,,,,,,,,,,,,,,,,,,,,,,,,,,,,,,,,,,,,,,,,,,,,,,,,,,,,,,,,,,,,,,,,,,,,,,,,,,,,,,,,,,,,,,,,,,,,,,,,,,,,,,,,,,,,,,,,,,,,,,,,,,,,,,,,,,,,,,,
,,,,,,60b9c8b91a02b297822a37d6,62bbfad0bd910250215f200d,2022-06-29_09h11.47.117,Colour_Asymmetry_Pilot,2022.1.3,Win32,60.17571308,62bbe60bf3d75ef465d3e404,0,98,98,79,1,fourthree,,,,,,,,,,,,,,,,,,,,,,,,,,,,,,,,,,,,,,,,,,,,,,,,,,,,,,,,,,,,,,,,,,,,,,,,,,,,,,,,,,,,,,,,,,,,,,,,,,,,,,,,,,,,,,,,,,,,,,,,,,,,,,,,,,,,,,,,,,,,,,,,,,,,,,,,
,,,,,,60b9c8b91a02b297822a37d6,62bbfad0bd910250215f200d,2022-06-29_09h11.47.117,Colour_Asymmetry_Pilot,2022.1.3,Win32,60.17571308,62bbe60bf3d75ef465d3e404,0,99,99,140,1,threeone,,,,,,,,,,,,,,,,,,,,,,,,,,,,,,,,,,,,,,,,,,,,,,,,,,,,,,,,,,,,,,,,,,,,,,,,,,,,,,,,,,,,,,,,,,,,,,,,,,,,,,,,,,,,,,,,,,,,,,,,,,,,,,,,,,,,,,,,,,,,,,,,,,,,,,,,
,,,,,,60b9c8b91a02b297822a37d6,62bbfad0bd910250215f200d,2022-06-29_09h11.47.117,Colour_Asymmetry_Pilot,2022.1.3,Win32,60.17571308,62bbe60bf3d75ef465d3e404,0,100,100,42,1,twoone,,,,,,,,,,,,,,,,,,,,,,,,,,,,,,,,,,,,,,,,,,,,,,,,,,,,,,,,,,,,,,,,,,,,,,,,,,,,,,,,,,,,,,,,,,,,,,,,,,,,,,,,,,,,,,,,,,,,,,,,,,,,,,,,,,,,,,,,,,,,,,,,,,,,,,,,
,,,,,,60b9c8b91a02b297822a37d6,62bbfad0bd910250215f200d,2022-06-29_09h11.47.117,Colour_Asymmetry_Pilot,2022.1.3,Win32,60.17571308,62bbe60bf3d75ef465d3e404,0,101,101,13,1,threefour,,,,,,,,,,,,,,,,,,,,,,,,,,,,,,,,,,,,,,,,,,,,,,,,,,,,,,,,,,,,,,,,,,,,,,,,,,,,,,,,,,,,,,,,,,,,,,,,,,,,,,,,,,,,,,,,,,,,,,,,,,,,,,,,,,,,,,,,,,,,,,,,,,,,,,,,
,,,,,,60b9c8b91a02b297822a37d6,62bbfad0bd910250215f200d,2022-06-29_09h11.47.117,Colour_Asymmetry_Pilot,2022.1.3,Win32,60.17571308,62bbe60bf3d75ef465d3e404,0,102,102,88,1,onetwo,,,,,,,,,,,,,,,,,,,,,,,,,,,,,,,,,,,,,,,,,,,,,,,,,,,,,,,,,,,,,,,,,,,,,,,,,,,,,,,,,,,,,,,,,,,,,,,,,,,,,,,,,,,,,,,,,,,,,,,,,,,,,,,,,,,,,,,,,,,,,,,,,,,,,,,,
,,,,,,60b9c8b91a02b297822a37d6,62bbfad0bd910250215f200d,2022-06-29_09h11.47.117,Colour_Asymmetry_Pilot,2022.1.3,Win32,60.17571308,62bbe60bf3d75ef465d3e404,0,103,103,82,1,twoone,,,,,,,,,,,,,,,,,,,,,,,,,,,,,,,,,,,,,,,,,,,,,,,,,,,,,,,,,,,,,,,,,,,,,,,,,,,,,,,,,,,,,,,,,,,,,,,,,,,,,,,,,,,,,,,,,,,,,,,,,,,,,,,,,,,,,,,,,,,,,,,,,,,,,,,,
,,,,,,60b9c8b91a02b297822a37d6,62bbfad0bd910250215f200d,2022-06-29_09h11.47.117,Colour_Asymmetry_Pilot,2022.1.3,Win32,60.17571308,62bbe60bf3d75ef465d3e404,0,104,104,59,1,twofour,,,,,,,,,,,,,,,,,,,,,,,,,,,,,,,,,,,,,,,,,,,,,,,,,,,,,,,,,,,,,,,,,,,,,,,,,,,,,,,,,,,,,,,,,,,,,,,,,,,,,,,,,,,,,,,,,,,,,,,,,,,,,,,,,,,,,,,,,,,,,,,,,,,,,,,,
,,,,,,60b9c8b91a02b297822a37d6,62bbfad0bd910250215f200d,2022-06-29_09h11.47.117,Colour_Asymmetry_Pilot,2022.1.3,Win32,60.17571308,62bbe60bf3d75ef465d3e404,0,105,105,115,1,twofour,,,,,,,,,,,,,,,,,,,,,,,,,,,,,,,,,,,,,,,,,,,,,,,,,,,,,,,,,,,,,,,,,,,,,,,,,,,,,,,,,,,,,,,,,,,,,,,,,,,,,,,,,,,,,,,,,,,,,,,,,,,,,,,,,,,,,,,,,,,,,,,,,,,,,,,,
,,,,,,60b9c8b91a02b297822a37d6,62bbfad0bd910250215f200d,2022-06-29_09h11.47.117,Colour_Asymmetry_Pilot,2022.1.3,Win32,60.17571308,62bbe60bf3d75ef465d3e404,0,106,106,49,1,onethree,,,,,,,,,,,,,,,,,,,,,,,,,,,,,,,,,,,,,,,,,,,,,,,,,,,,,,,,,,,,,,,,,,,,,,,,,,,,,,,,,,,,,,,,,,,,,,,,,,,,,,,,,,,,,,,,,,,,,,,,,,,,,,,,,,,,,,,,,,,,,,,,,,,,,,,,
,,,,,,60b9c8b91a02b297822a37d6,62bbfad0bd910250215f200d,2022-06-29_09h11.47.117,Colour_Asymmetry_Pilot,2022.1.3,Win32,60.17571308,62bbe60bf3d75ef465d3e404,0,107,107,11,1,twofour,,,,,,,,,,,,,,,,,,,,,,,,,,,,,,,,,,,,,,,,,,,,,,,,,,,,,,,,,,,,,,,,,,,,,,,,,,,,,,,,,,,,,,,,,,,,,,,,,,,,,,,,,,,,,,,,,,,,,,,,,,,,,,,,,,,,,,,,,,,,,,,,,,,,,,,,
,,,,,,60b9c8b91a02b297822a37d6,62bbfad0bd910250215f200d,2022-06-29_09h11.47.117,Colour_Asymmetry_Pilot,2022.1.3,Win32,60.17571308,62bbe60bf3d75ef465d3e404,0,108,108,93,1,threefour,,,,,,,,,,,,,,,,,,,,,,,,,,,,,,,,,,,,,,,,,,,,,,,,,,,,,,,,,,,,,,,,,,,,,,,,,,,,,,,,,,,,,,,,,,,,,,,,,,,,,,,,,,,,,,,,,,,,,,,,,,,,,,,,,,,,,,,,,,,,,,,,,,,,,,,,
,,,,,,60b9c8b91a02b297822a37d6,62bbfad0bd910250215f200d,2022-06-29_09h11.47.117,Colour_Asymmetry_Pilot,2022.1.3,Win32,60.17571308,62bbe60bf3d75ef465d3e404,0,109,109,152,1,onetwo,,,,,,,,,,,,,,,,,,,,,,,,,,,,,,,,,,,,,,,,,,,,,,,,,,,,,,,,,,,,,,,,,,,,,,,,,,,,,,,,,,,,,,,,,,,,,,,,,,,,,,,,,,,,,,,,,,,,,,,,,,,,,,,,,,,,,,,,,,,,,,,,,,,,,,,,
,,,,,,60b9c8b91a02b297822a37d6,62bbfad0bd910250215f200d,2022-06-29_09h11.47.117,Colour_Asymmetry_Pilot,2022.1.3,Win32,60.17571308,62bbe60bf3d75ef465d3e404,0,110,110,33,1,onethree,,,,,,,,,,,,,,,,,,,,,,,,,,,,,,,,,,,,,,,,,,,,,,,,,,,,,,,,,,,,,,,,,,,,,,,,,,,,,,,,,,,,,,,,,,,,,,,,,,,,,,,,,,,,,,,,,,,,,,,,,,,,,,,,,,,,,,,,,,,,,,,,,,,,,,,,
,,,,,,60b9c8b91a02b297822a37d6,62bbfad0bd910250215f200d,2022-06-29_09h11.47.117,Colour_Asymmetry_Pilot,2022.1.3,Win32,60.17571308,62bbe60bf3d75ef465d3e404,0,111,111,97,1,onethree,,,,,,,,,,,,,,,,,,,,,,,,,,,,,,,,,,,,,,,,,,,,,,,,,,,,,,,,,,,,,,,,,,,,,,,,,,,,,,,,,,,,,,,,,,,,,,,,,,,,,,,,,,,,,,,,,,,,,,,,,,,,,,,,,,,,,,,,,,,,,,,,,,,,,,,,
,,,,,,60b9c8b91a02b297822a37d6,62bbfad0bd910250215f200d,2022-06-29_09h11.47.117,Colour_Asymmetry_Pilot,2022.1.3,Win32,60.17571308,62bbe60bf3d75ef465d3e404,0,112,112,28,1,threeone,,,,,,,,,,,,,,,,,,,,,,,,,,,,,,,,,,,,,,,,,,,,,,,,,,,,,,,,,,,,,,,,,,,,,,,,,,,,,,,,,,,,,,,,,,,,,,,,,,,,,,,,,,,,,,,,,,,,,,,,,,,,,,,,,,,,,,,,,,,,,,,,,,,,,,,,
,,,,,,60b9c8b91a02b297822a37d6,62bbfad0bd910250215f200d,2022-06-29_09h11.47.117,Colour_Asymmetry_Pilot,2022.1.3,Win32,60.17571308,62bbe60bf3d75ef465d3e404,0,113,113,154,1,twoone,,,,,,,,,,,,,,,,,,,,,,,,,,,,,,,,,,,,,,,,,,,,,,,,,,,,,,,,,,,,,,,,,,,,,,,,,,,,,,,,,,,,,,,,,,,,,,,,,,,,,,,,,,,,,,,,,,,,,,,,,,,,,,,,,,,,,,,,,,,,,,,,,,,,,,,,
,,,,,,60b9c8b91a02b297822a37d6,62bbfad0bd910250215f200d,2022-06-29_09h11.47.117,Colour_Asymmetry_Pilot,2022.1.3,Win32,60.17571308,62bbe60bf3d75ef465d3e404,0,114,114,30,1,fourtwo,,,,,,,,,,,,,,,,,,,,,,,,,,,,,,,,,,,,,,,,,,,,,,,,,,,,,,,,,,,,,,,,,,,,,,,,,,,,,,,,,,,,,,,,,,,,,,,,,,,,,,,,,,,,,,,,,,,,,,,,,,,,,,,,,,,,,,,,,,,,,,,,,,,,,,,,
,,,,,,60b9c8b91a02b297822a37d6,62bbfad0bd910250215f200d,2022-06-29_09h11.47.117,Colour_Asymmetry_Pilot,2022.1.3,Win32,60.17571308,62bbe60bf3d75ef465d3e404,0,115,115,5,1,threefour,,,,,,,,,,,,,,,,,,,,,,,,,,,,,,,,,,,,,,,,,,,,,,,,,,,,,,,,,,,,,,,,,,,,,,,,,,,,,,,,,,,,,,,,,,,,,,,,,,,,,,,,,,,,,,,,,,,,,,,,,,,,,,,,,,,,,,,,,,,,,,,,,,,,,,,,
,,,,,,60b9c8b91a02b297822a37d6,62bbfad0bd910250215f200d,2022-06-29_09h11.47.117,Colour_Asymmetry_Pilot,2022.1.3,Win32,60.17571308,62bbe60bf3d75ef465d3e404,0,116,116,135,1,fourthree,,,,,,,,,,,,,,,,,,,,,,,,,,,,,,,,,,,,,,,,,,,,,,,,,,,,,,,,,,,,,,,,,,,,,,,,,,,,,,,,,,,,,,,,,,,,,,,,,,,,,,,,,,,,,,,,,,,,,,,,,,,,,,,,,,,,,,,,,,,,,,,,,,,,,,,,
,,,,,,60b9c8b91a02b297822a37d6,62bbfad0bd910250215f200d,2022-06-29_09h11.47.117,Colour_Asymmetry_Pilot,2022.1.3,Win32,60.17571308,62bbe60bf3d75ef465d3e404,0,117,117,120,1,onetwo,,,,,,,,,,,,,,,,,,,,,,,,,,,,,,,,,,,,,,,,,,,,,,,,,,,,,,,,,,,,,,,,,,,,,,,,,,,,,,,,,,,,,,,,,,,,,,,,,,,,,,,,,,,,,,,,,,,,,,,,,,,,,,,,,,,,,,,,,,,,,,,,,,,,,,,,
,,,,,,60b9c8b91a02b297822a37d6,62bbfad0bd910250215f200d,2022-06-29_09h11.47.117,Colour_Asymmetry_Pilot,2022.1.3,Win32,60.17571308,62bbe60bf3d75ef465d3e404,0,118,118,155,1,twofour,,,,,,,,,,,,,,,,,,,,,,,,,,,,,,,,,,,,,,,,,,,,,,,,,,,,,,,,,,,,,,,,,,,,,,,,,,,,,,,,,,,,,,,,,,,,,,,,,,,,,,,,,,,,,,,,,,,,,,,,,,,,,,,,,,,,,,,,,,,,,,,,,,,,,,,,
,,,,,,60b9c8b91a02b297822a37d6,62bbfad0bd910250215f200d,2022-06-29_09h11.47.117,Colour_Asymmetry_Pilot,2022.1.3,Win32,60.17571308,62bbe60bf3d75ef465d3e404,0,119,119,102,1,fourtwo,,,,,,,,,,,,,,,,,,,,,,,,,,,,,,,,,,,,,,,,,,,,,,,,,,,,,,,,,,,,,,,,,,,,,,,,,,,,,,,,,,,,,,,,,,,,,,,,,,,,,,,,,,,,,,,,,,,,,,,,,,,,,,,,,,,,,,,,,,,,,,,,,,,,,,,,
,,,,,,60b9c8b91a02b297822a37d6,62bbfad0bd910250215f200d,2022-06-29_09h11.47.117,Colour_Asymmetry_Pilot,2022.1.3,Win32,60.17571308,62bbe60bf3d75ef465d3e404,0,120,120,149,1,threefour,,,,,,,,,,,,,,,,,,,,,,,,,,,,,,,,,,,,,,,,,,,,,,,,,,,,,,,,,,,,,,,,,,,,,,,,,,,,,,,,,,,,,,,,,,,,,,,,,,,,,,,,,,,,,,,,,,,,,,,,,,,,,,,,,,,,,,,,,,,,,,,,,,,,,,,,
,,,,,,60b9c8b91a02b297822a37d6,62bbfad0bd910250215f200d,2022-06-29_09h11.47.117,Colour_Asymmetry_Pilot,2022.1.3,Win32,60.17571308,62bbe60bf3d75ef465d3e404,0,121,121,141,1,threefour,,,,,,,,,,,,,,,,,,,,,,,,,,,,,,,,,,,,,,,,,,,,,,,,,,,,,,,,,,,,,,,,,,,,,,,,,,,,,,,,,,,,,,,,,,,,,,,,,,,,,,,,,,,,,,,,,,,,,,,,,,,,,,,,,,,,,,,,,,,,,,,,,,,,,,,,
,,,,,,60b9c8b91a02b297822a37d6,62bbfad0bd910250215f200d,2022-06-29_09h11.47.117,Colour_Asymmetry_Pilot,2022.1.3,Win32,60.17571308,62bbe60bf3d75ef465d3e404,0,122,122,81,1,onethree,,,,,,,,,,,,,,,,,,,,,,,,,,,,,,,,,,,,,,,,,,,,,,,,,,,,,,,,,,,,,,,,,,,,,,,,,,,,,,,,,,,,,,,,,,,,,,,,,,,,,,,,,,,,,,,,,,,,,,,,,,,,,,,,,,,,,,,,,,,,,,,,,,,,,,,,
,,,,,,60b9c8b91a02b297822a37d6,62bbfad0bd910250215f200d,2022-06-29_09h11.47.117,Colour_Asymmetry_Pilot,2022.1.3,Win32,60.17571308,62bbe60bf3d75ef465d3e404,0,123,123,8,1,onetwo,,,,,,,,,,,,,,,,,,,,,,,,,,,,,,,,,,,,,,,,,,,,,,,,,,,,,,,,,,,,,,,,,,,,,,,,,,,,,,,,,,,,,,,,,,,,,,,,,,,,,,,,,,,,,,,,,,,,,,,,,,,,,,,,,,,,,,,,,,,,,,,,,,,,,,,,
,,,,,,60b9c8b91a02b297822a37d6,62bbfad0bd910250215f200d,2022-06-29_09h11.47.117,Colour_Asymmetry_Pilot,2022.1.3,Win32,60.17571308,62bbe60bf3d75ef465d3e404,0,124,124,89,1,onethree,,,,,,,,,,,,,,,,,,,,,,,,,,,,,,,,,,,,,,,,,,,,,,,,,,,,,,,,,,,,,,,,,,,,,,,,,,,,,,,,,,,,,,,,,,,,,,,,,,,,,,,,,,,,,,,,,,,,,,,,,,,,,,,,,,,,,,,,,,,,,,,,,,,,,,,,
,,,,,,60b9c8b91a02b297822a37d6,62bbfad0bd910250215f200d,2022-06-29_09h11.47.117,Colour_Asymmetry_Pilot,2022.1.3,Win32,60.17571308,62bbe60bf3d75ef465d3e404,0,125,125,153,1,onethree,,,,,,,,,,,,,,,,,,,,,,,,,,,,,,,,,,,,,,,,,,,,,,,,,,,,,,,,,,,,,,,,,,,,,,,,,,,,,,,,,,,,,,,,,,,,,,,,,,,,,,,,,,,,,,,,,,,,,,,,,,,,,,,,,,,,,,,,,,,,,,,,,,,,,,,,
,,,,,,60b9c8b91a02b297822a37d6,62bbfad0bd910250215f200d,2022-06-29_09h11.47.117,Colour_Asymmetry_Pilot,2022.1.3,Win32,60.17571308,62bbe60bf3d75ef465d3e404,0,126,126,147,1,twofour,,,,,,,,,,,,,,,,,,,,,,,,,,,,,,,,,,,,,,,,,,,,,,,,,,,,,,,,,,,,,,,,,,,,,,,,,,,,,,,,,,,,,,,,,,,,,,,,,,,,,,,,,,,,,,,,,,,,,,,,,,,,,,,,,,,,,,,,,,,,,,,,,,,,,,,,
,,,,,,60b9c8b91a02b297822a37d6,62bbfad0bd910250215f200d,2022-06-29_09h11.47.117,Colour_Asymmetry_Pilot,2022.1.3,Win32,60.17571308,62bbe60bf3d75ef465d3e404,0,127,127,25,1,onethree,,,,,,,,,,,,,,,,,,,,,,,,,,,,,,,,,,,,,,,,,,,,,,,,,,,,,,,,,,,,,,,,,,,,,,,,,,,,,,,,,,,,,,,,,,,,,,,,,,,,,,,,,,,,,,,,,,,,,,,,,,,,,,,,,,,,,,,,,,,,,,,,,,,,,,,,
,,,,,,60b9c8b91a02b297822a37d6,62bbfad0bd910250215f200d,2022-06-29_09h11.47.117,Colour_Asymmetry_Pilot,2022.1.3,Win32,60.17571308,62bbe60bf3d75ef465d3e404,0,128,128,70,1,fourtwo,,,,,,,,,,,,,,,,,,,,,,,,,,,,,,,,,,,,,,,,,,,,,,,,,,,,,,,,,,,,,,,,,,,,,,,,,,,,,,,,,,,,,,,,,,,,,,,,,,,,,,,,,,,,,,,,,,,,,,,,,,,,,,,,,,,,,,,,,,,,,,,,,,,,,,,,
,,,,,,60b9c8b91a02b297822a37d6,62bbfad0bd910250215f200d,2022-06-29_09h11.47.117,Colour_Asymmetry_Pilot,2022.1.3,Win32,60.17571308,62bbe60bf3d75ef465d3e404,0,129,129,54,1,fourtwo,,,,,,,,,,,,,,,,,,,,,,,,,,,,,,,,,,,,,,,,,,,,,,,,,,,,,,,,,,,,,,,,,,,,,,,,,,,,,,,,,,,,,,,,,,,,,,,,,,,,,,,,,,,,,,,,,,,,,,,,,,,,,,,,,,,,,,,,,,,,,,,,,,,,,,,,
,,,,,,60b9c8b91a02b297822a37d6,62bbfad0bd910250215f200d,2022-06-29_09h11.47.117,Colour_Asymmetry_Pilot,2022.1.3,Win32,60.17571308,62bbe60bf3d75ef465d3e404,0,130,130,14,1,fourtwo,,,,,,,,,,,,,,,,,,,,,,,,,,,,,,,,,,,,,,,,,,,,,,,,,,,,,,,,,,,,,,,,,,,,,,,,,,,,,,,,,,,,,,,,,,,,,,,,,,,,,,,,,,,,,,,,,,,,,,,,,,,,,,,,,,,,,,,,,,,,,,,,,,,,,,,,
,,,,,,60b9c8b91a02b297822a37d6,62bbfad0bd910250215f200d,2022-06-29_09h11.47.117,Colour_Asymmetry_Pilot,2022.1.3,Win32,60.17571308,62bbe60bf3d75ef465d3e404,0,131,131,12,1,threeone,,,,,,,,,,,,,,,,,,,,,,,,,,,,,,,,,,,,,,,,,,,,,,,,,,,,,,,,,,,,,,,,,,,,,,,,,,,,,,,,,,,,,,,,,,,,,,,,,,,,,,,,,,,,,,,,,,,,,,,,,,,,,,,,,,,,,,,,,,,,,,,,,,,,,,,,
,,,,,,60b9c8b91a02b297822a37d6,62bbfad0bd910250215f200d,2022-06-29_09h11.47.117,Colour_Asymmetry_Pilot,2022.1.3,Win32,60.17571308,62bbe60bf3d75ef465d3e404,0,132,132,134,1,fourtwo,,,,,,,,,,,,,,,,,,,,,,,,,,,,,,,,,,,,,,,,,,,,,,,,,,,,,,,,,,,,,,,,,,,,,,,,,,,,,,,,,,,,,,,,,,,,,,,,,,,,,,,,,,,,,,,,,,,,,,,,,,,,,,,,,,,,,,,,,,,,,,,,,,,,,,,,
,,,,,,60b9c8b91a02b297822a37d6,62bbfad0bd910250215f200d,2022-06-29_09h11.47.117,Colour_Asymmetry_Pilot,2022.1.3,Win32,60.17571308,62bbe60bf3d75ef465d3e404,0,133,133,69,1,threefour,,,,,,,,,,,,,,,,,,,,,,,,,,,,,,,,,,,,,,,,,,,,,,,,,,,,,,,,,,,,,,,,,,,,,,,,,,,,,,,,,,,,,,,,,,,,,,,,,,,,,,,,,,,,,,,,,,,,,,,,,,,,,,,,,,,,,,,,,,,,,,,,,,,,,,,,
,,,,,,60b9c8b91a02b297822a37d6,62bbfad0bd910250215f200d,2022-06-29_09h11.47.117,Colour_Asymmetry_Pilot,2022.1.3,Win32,60.17571308,62bbe60bf3d75ef465d3e404,0,134,134,37,1,threefour,,,,,,,,,,,,,,,,,,,,,,,,,,,,,,,,,,,,,,,,,,,,,,,,,,,,,,,,,,,,,,,,,,,,,,,,,,,,,,,,,,,,,,,,,,,,,,,,,,,,,,,,,,,,,,,,,,,,,,,,,,,,,,,,,,,,,,,,,,,,,,,,,,,,,,,,
,,,,,,60b9c8b91a02b297822a37d6,62bbfad0bd910250215f200d,2022-06-29_09h11.47.117,Colour_Asymmetry_Pilot,2022.1.3,Win32,60.17571308,62bbe60bf3d75ef465d3e404,0,135,135,110,1,fourtwo,,,,,,,,,,,,,,,,,,,,,,,,,,,,,,,,,,,,,,,,,,,,,,,,,,,,,,,,,,,,,,,,,,,,,,,,,,,,,,,,,,,,,,,,,,,,,,,,,,,,,,,,,,,,,,,,,,,,,,,,,,,,,,,,,,,,,,,,,,,,,,,,,,,,,,,,
,,,,,,60b9c8b91a02b297822a37d6,62bbfad0bd910250215f200d,2022-06-29_09h11.47.117,Colour_Asymmetry_Pilot,2022.1.3,Win32,60.17571308,62bbe60bf3d75ef465d3e404,0,136,136,52,1,threeone,,,,,,,,,,,,,,,,,,,,,,,,,,,,,,,,,,,,,,,,,,,,,,,,,,,,,,,,,,,,,,,,,,,,,,,,,,,,,,,,,,,,,,,,,,,,,,,,,,,,,,,,,,,,,,,,,,,,,,,,,,,,,,,,,,,,,,,,,,,,,,,,,,,,,,,,
,,,,,,60b9c8b91a02b297822a37d6,62bbfad0bd910250215f200d,2022-06-29_09h11.47.117,Colour_Asymmetry_Pilot,2022.1.3,Win32,60.17571308,62bbe60bf3d75ef465d3e404,0,137,137,56,1,onetwo,,,,,,,,,,,,,,,,,,,,,,,,,,,,,,,,,,,,,,,,,,,,,,,,,,,,,,,,,,,,,,,,,,,,,,,,,,,,,,,,,,,,,,,,,,,,,,,,,,,,,,,,,,,,,,,,,,,,,,,,,,,,,,,,,,,,,,,,,,,,,,,,,,,,,,,,
,,,,,,60b9c8b91a02b297822a37d6,62bbfad0bd910250215f200d,2022-06-29_09h11.47.117,Colour_Asymmetry_Pilot,2022.1.3,Win32,60.17571308,62bbe60bf3d75ef465d3e404,0,138,138,107,1,twofour,,,,,,,,,,,,,,,,,,,,,,,,,,,,,,,,,,,,,,,,,,,,,,,,,,,,,,,,,,,,,,,,,,,,,,,,,,,,,,,,,,,,,,,,,,,,,,,,,,,,,,,,,,,,,,,,,,,,,,,,,,,,,,,,,,,,,,,,,,,,,,,,,,,,,,,,
,,,,,,60b9c8b91a02b297822a37d6,62bbfad0bd910250215f200d,2022-06-29_09h11.47.117,Colour_Asymmetry_Pilot,2022.1.3,Win32,60.17571308,62bbe60bf3d75ef465d3e404,0,139,139,65,1,onethree,,,,,,,,,,,,,,,,,,,,,,,,,,,,,,,,,,,,,,,,,,,,,,,,,,,,,,,,,,,,,,,,,,,,,,,,,,,,,,,,,,,,,,,,,,,,,,,,,,,,,,,,,,,,,,,,,,,,,,,,,,,,,,,,,,,,,,,,,,,,,,,,,,,,,,,,
,,,,,,60b9c8b91a02b297822a37d6,62bbfad0bd910250215f200d,2022-06-29_09h11.47.117,Colour_Asymmetry_Pilot,2022.1.3,Win32,60.17571308,62bbe60bf3d75ef465d3e404,0,140,140,18,1,twoone,,,,,,,,,,,,,,,,,,,,,,,,,,,,,,,,,,,,,,,,,,,,,,,,,,,,,,,,,,,,,,,,,,,,,,,,,,,,,,,,,,,,,,,,,,,,,,,,,,,,,,,,,,,,,,,,,,,,,,,,,,,,,,,,,,,,,,,,,,,,,,,,,,,,,,,,
,,,,,,60b9c8b91a02b297822a37d6,62bbfad0bd910250215f200d,2022-06-29_09h11.47.117,Colour_Asymmetry_Pilot,2022.1.3,Win32,60.17571308,62bbe60bf3d75ef465d3e404,0,141,141,24,1,onetwo,,,,,,,,,,,,,,,,,,,,,,,,,,,,,,,,,,,,,,,,,,,,,,,,,,,,,,,,,,,,,,,,,,,,,,,,,,,,,,,,,,,,,,,,,,,,,,,,,,,,,,,,,,,,,,,,,,,,,,,,,,,,,,,,,,,,,,,,,,,,,,,,,,,,,,,,
,,,,,,60b9c8b91a02b297822a37d6,62bbfad0bd910250215f200d,2022-06-29_09h11.47.117,Colour_Asymmetry_Pilot,2022.1.3,Win32,60.17571308,62bbe60bf3d75ef465d3e404,0,142,142,84,1,threeone,,,,,,,,,,,,,,,,,,,,,,,,,,,,,,,,,,,,,,,,,,,,,,,,,,,,,,,,,,,,,,,,,,,,,,,,,,,,,,,,,,,,,,,,,,,,,,,,,,,,,,,,,,,,,,,,,,,,,,,,,,,,,,,,,,,,,,,,,,,,,,,,,,,,,,,,
,,,,,,60b9c8b91a02b297822a37d6,62bbfad0bd910250215f200d,2022-06-29_09h11.47.117,Colour_Asymmetry_Pilot,2022.1.3,Win32,60.17571308,62bbe60bf3d75ef465d3e404,0,143,143,116,1,threeone,,,,,,,,,,,,,,,,,,,,,,,,,,,,,,,,,,,,,,,,,,,,,,,,,,,,,,,,,,,,,,,,,,,,,,,,,,,,,,,,,,,,,,,,,,,,,,,,,,,,,,,,,,,,,,,,,,,,,,,,,,,,,,,,,,,,,,,,,,,,,,,,,,,,,,,,
,,,,,,60b9c8b91a02b297822a37d6,62bbfad0bd910250215f200d,2022-06-29_09h11.47.117,Colour_Asymmetry_Pilot,2022.1.3,Win32,60.17571308,62bbe60bf3d75ef465d3e404,0,144,144,119,1,fourthree,,,,,,,,,,,,,,,,,,,,,,,,,,,,,,,,,,,,,,,,,,,,,,,,,,,,,,,,,,,,,,,,,,,,,,,,,,,,,,,,,,,,,,,,,,,,,,,,,,,,,,,,,,,,,,,,,,,,,,,,,,,,,,,,,,,,,,,,,,,,,,,,,,,,,,,,
,,,,,,60b9c8b91a02b297822a37d6,62bbfad0bd910250215f200d,2022-06-29_09h11.47.117,Colour_Asymmetry_Pilot,2022.1.3,Win32,60.17571308,62bbe60bf3d75ef465d3e404,0,145,145,1,1,onethree,,,,,,,,,,,,,,,,,,,,,,,,,,,,,,,,,,,,,,,,,,,,,,,,,,,,,,,,,,,,,,,,,,,,,,,,,,,,,,,,,,,,,,,,,,,,,,,,,,,,,,,,,,,,,,,,,,,,,,,,,,,,,,,,,,,,,,,,,,,,,,,,,,,,,,,,
,,,,,,60b9c8b91a02b297822a37d6,62bbfad0bd910250215f200d,2022-06-29_09h11.47.117,Colour_Asymmetry_Pilot,2022.1.3,Win32,60.17571308,62bbe60bf3d75ef465d3e404,0,146,146,106,1,twoone,,,,,,,,,,,,,,,,,,,,,,,,,,,,,,,,,,,,,,,,,,,,,,,,,,,,,,,,,,,,,,,,,,,,,,,,,,,,,,,,,,,,,,,,,,,,,,,,,,,,,,,,,,,,,,,,,,,,,,,,,,,,,,,,,,,,,,,,,,,,,,,,,,,,,,,,
,,,,,,60b9c8b91a02b297822a37d6,62bbfad0bd910250215f200d,2022-06-29_09h11.47.117,Colour_Asymmetry_Pilot,2022.1.3,Win32,60.17571308,62bbe60bf3d75ef465d3e404,0,147,147,62,1,fourtwo,,,,,,,,,,,,,,,,,,,,,,,,,,,,,,,,,,,,,,,,,,,,,,,,,,,,,,,,,,,,,,,,,,,,,,,,,,,,,,,,,,,,,,,,,,,,,,,,,,,,,,,,,,,,,,,,,,,,,,,,,,,,,,,,,,,,,,,,,,,,,,,,,,,,,,,,
,,,,,,60b9c8b91a02b297822a37d6,62bbfad0bd910250215f200d,2022-06-29_09h11.47.117,Colour_Asymmetry_Pilot,2022.1.3,Win32,60.17571308,62bbe60bf3d75ef465d3e404,0,148,148,148,1,threeone,,,,,,,,,,,,,,,,,,,,,,,,,,,,,,,,,,,,,,,,,,,,,,,,,,,,,,,,,,,,,,,,,,,,,,,,,,,,,,,,,,,,,,,,,,,,,,,,,,,,,,,,,,,,,,,,,,,,,,,,,,,,,,,,,,,,,,,,,,,,,,,,,,,,,,,,
,,,,,,60b9c8b91a02b297822a37d6,62bbfad0bd910250215f200d,2022-06-29_09h11.47.117,Colour_Asymmetry_Pilot,2022.1.3,Win32,60.17571308,62bbe60bf3d75ef465d3e404,0,149,149,48,1,onetwo,,,,,,,,,,,,,,,,,,,,,,,,,,,,,,,,,,,,,,,,,,,,,,,,,,,,,,,,,,,,,,,,,,,,,,,,,,,,,,,,,,,,,,,,,,,,,,,,,,,,,,,,,,,,,,,,,,,,,,,,,,,,,,,,,,,,,,,,,,,,,,,,,,,,,,,,
,,,,,,60b9c8b91a02b297822a37d6,62bbfad0bd910250215f200d,2022-06-29_09h11.47.117,Colour_Asymmetry_Pilot,2022.1.3,Win32,60.17571308,62bbe60bf3d75ef465d3e404,0,150,150,75,1,twofour,,,,,,,,,,,,,,,,,,,,,,,,,,,,,,,,,,,,,,,,,,,,,,,,,,,,,,,,,,,,,,,,,,,,,,,,,,,,,,,,,,,,,,,,,,,,,,,,,,,,,,,,,,,,,,,,,,,,,,,,,,,,,,,,,,,,,,,,,,,,,,,,,,,,,,,,
,,,,,,60b9c8b91a02b297822a37d6,62bbfad0bd910250215f200d,2022-06-29_09h11.47.117,Colour_Asymmetry_Pilot,2022.1.3,Win32,60.17571308,62bbe60bf3d75ef465d3e404,0,151,151,57,1,onethree,,,,,,,,,,,,,,,,,,,,,,,,,,,,,,,,,,,,,,,,,,,,,,,,,,,,,,,,,,,,,,,,,,,,,,,,,,,,,,,,,,,,,,,,,,,,,,,,,,,,,,,,,,,,,,,,,,,,,,,,,,,,,,,,,,,,,,,,,,,,,,,,,,,,,,,,
,,,,,,60b9c8b91a02b297822a37d6,62bbfad0bd910250215f200d,2022-06-29_09h11.47.117,Colour_Asymmetry_Pilot,2022.1.3,Win32,60.17571308,62bbe60bf3d75ef465d3e404,0,152,152,136,1,onetwo,,,,,,,,,,,,,,,,,,,,,,,,,,,,,,,,,,,,,,,,,,,,,,,,,,,,,,,,,,,,,,,,,,,,,,,,,,,,,,,,,,,,,,,,,,,,,,,,,,,,,,,,,,,,,,,,,,,,,,,,,,,,,,,,,,,,,,,,,,,,,,,,,,,,,,,,
,,,,,,60b9c8b91a02b297822a37d6,62bbfad0bd910250215f200d,2022-06-29_09h11.47.117,Colour_Asymmetry_Pilot,2022.1.3,Win32,60.17571308,62bbe60bf3d75ef465d3e404,0,153,153,2,1,twoone,,,,,,,,,,,,,,,,,,,,,,,,,,,,,,,,,,,,,,,,,,,,,,,,,,,,,,,,,,,,,,,,,,,,,,,,,,,,,,,,,,,,,,,,,,,,,,,,,,,,,,,,,,,,,,,,,,,,,,,,,,,,,,,,,,,,,,,,,,,,,,,,,,,,,,,,
,,,,,,60b9c8b91a02b297822a37d6,62bbfad0bd910250215f200d,2022-06-29_09h11.47.117,Colour_Asymmetry_Pilot,2022.1.3,Win32,60.17571308,62bbe60bf3d75ef465d3e404,0,154,154,92,1,threeone,,,,,,,,,,,,,,,,,,,,,,,,,,,,,,,,,,,,,,,,,,,,,,,,,,,,,,,,,,,,,,,,,,,,,,,,,,,,,,,,,,,,,,,,,,,,,,,,,,,,,,,,,,,,,,,,,,,,,,,,,,,,,,,,,,,,,,,,,,,,,,,,,,,,,,,,
,,,,,,60b9c8b91a02b297822a37d6,62bbfad0bd910250215f200d,2022-06-29_09h11.47.117,Colour_Asymmetry_Pilot,2022.1.3,Win32,60.17571308,62bbe60bf3d75ef465d3e404,0,155,155,46,1,fourtwo,,,,,,,,,,,,,,,,,,,,,,,,,,,,,,,,,,,,,,,,,,,,,,,,,,,,,,,,,,,,,,,,,,,,,,,,,,,,,,,,,,,,,,,,,,,,,,,,,,,,,,,,,,,,,,,,,,,,,,,,,,,,,,,,,,,,,,,,,,,,,,,,,,,,,,,,
,,,,,,60b9c8b91a02b297822a37d6,62bbfad0bd910250215f200d,2022-06-29_09h11.47.117,Colour_Asymmetry_Pilot,2022.1.3,Win32,60.17571308,62bbe60bf3d75ef465d3e404,0,156,156,146,1,twoone,,,,,,,,,,,,,,,,,,,,,,,,,,,,,,,,,,,,,,,,,,,,,,,,,,,,,,,,,,,,,,,,,,,,,,,,,,,,,,,,,,,,,,,,,,,,,,,,,,,,,,,,,,,,,,,,,,,,,,,,,,,,,,,,,,,,,,,,,,,,,,,,,,,,,,,,
,,,,,,60b9c8b91a02b297822a37d6,62bbfad0bd910250215f200d,2022-06-29_09h11.47.117,Colour_Asymmetry_Pilot,2022.1.3,Win32,60.17571308,62bbe60bf3d75ef465d3e404,0,157,157,10,1,twoone,,,,,,,,,,,,,,,,,,,,,,,,,,,,,,,,,,,,,,,,,,,,,,,,,,,,,,,,,,,,,,,,,,,,,,,,,,,,,,,,,,,,,,,,,,,,,,,,,,,,,,,,,,,,,,,,,,,,,,,,,,,,,,,,,,,,,,,,,,,,,,,,,,,,,,,,
,,,,,,60b9c8b91a02b297822a37d6,62bbfad0bd910250215f200d,2022-06-29_09h11.47.117,Colour_Asymmetry_Pilot,2022.1.3,Win32,60.17571308,62bbe60bf3d75ef465d3e404,0,158,158,130,1,twoone,,,,,,,,,,,,,,,,,,,,,,,,,,,,,,,,,,,,,,,,,,,,,,,,,,,,,,,,,,,,,,,,,,,,,,,,,,,,,,,,,,,,,,,,,,,,,,,,,,,,,,,,,,,,,,,,,,,,,,,,,,,,,,,,,,,,,,,,,,,,,,,,,,,,,,,,
,,,,,,60b9c8b91a02b297822a37d6,62bbfad0bd910250215f200d,2022-06-29_09h11.47.117,Colour_Asymmetry_Pilot,2022.1.3,Win32,60.17571308,62bbe60bf3d75ef465d3e404,0,159,159,156,1,threeone,,,,,,,,,,,,,,,,,,,,,,,,,,,,,,,,,,,,,,,,,,,,,,,,,,,,,,,,,,,,,,,,,,,,,,,,,,,,,,,,,,,,,,,,,,,,,,,,,,,,,,,,,,,,,,,,,,,,,,,,,,,,,,,,,,,,,,,,,,,,,,,,,,,,,,,,
,,,,,,60b9c8b91a02b297822a37d6,62bbfad0bd910250215f200d,2022-06-29_09h11.47.117,Colour_Asymmetry_Pilot,2022.1.3,Win32,60.17571308,62bbe60bf3d75ef465d3e404,0,160,160,35,1,twofour,,,,,,,,,,,,,,,,,,,,,,,,,,,,,,,,,,,,,,,,,,,,,,,,,,,,,,,,,,,,,,,,,,,,,,,,,,,,,,,,,,,,,,,,,,,,,,,,,,,,,,,,,,,,,,,,,,,,,,,,,,,,,,,,,,,,,,,,,,,,,,,,,,,,,,,,
,,,,,,60b9c8b91a02b297822a37d6,62bbfad0bd910250215f200d,2022-06-29_09h11.47.117,Colour_Asymmetry_Pilot,2022.1.3,Win32,60.17571308,62bbe60bf3d75ef465d3e404,0,161,161,20,1,threeone,,,,,,,,,,,,,,,,,,,,,,,,,,,,,,,,,,,,,,,,,,,,,,,,,,,,,,,,,,,,,,,,,,,,,,,,,,,,,,,,,,,,,,,,,,,,,,,,,,,,,,,,,,,,,,,,,,,,,,,,,,,,,,,,,,,,,,,,,,,,,,,,,,,,,,,,
,,,,,,60b9c8b91a02b297822a37d6,62bbfad0bd910250215f200d,2022-06-29_09h11.47.117,Colour_Asymmetry_Pilot,2022.1.3,Win32,60.17571308,62bbe60bf3d75ef465d3e404,,,,,,,space,3.3632,space,20.4889,space,105.613,space,28.2521,space,11.7558,space,16.7776,"[0.9686000000000001,0.5763999999999998,0.11359999999999992]",fourthree,"[-0.9766,-0.6472,0.07440000000000002]",-4,7.4474,-57.59997559,106.3999939,1,0,0,response7disk_5,1.600036621,1.599975586,1,0,0,rectangle_8,1.600036621,1.599975586,1,0,0,3,1.600036621,1.599975586,1,0,0,0,0,0,0,1,,,,,,,,,,,,,,,,,,,,,,,,,,,,,,,,,,,,,,,,,,,,,,,,,,,,,,,,,,,,,,,,,,,,,,,,,,,,,,,,,,,,,,,,,,,,,,,,,,,,,,,,,,,
,,,,,,60b9c8b91a02b297822a37d6,62bbfad0bd910250215f200d,2022-06-29_09h11.47.117,Colour_Asymmetry_Pilot,2022.1.3,Win32,60.17571308,62bbe60bf3d75ef465d3e404,,,,,,,,,,,,,,,,,,,"[0.5449999999999999,-0.31000000000000005,-0.0354000000000001]",fourthree,"[-0.6942,-0.7648,-0.12959999999999994]",-4,11.9225,-48,92,1,0,0,response7disk_5,-8,0.799987793,1,0,0,rectangle_8,101.6000366,48.79998779,1,0,0,3,-11.20001221,4,1,0,0,1,0,1,0,1,response1disk_7,6,rectangle_4,,,,,,,,,,,,,,,,,,,,,,,,,,,,,,,,,,,,,,,,,,,,,,,,,,,,,,,,,,,,,,,,,,,,,,,,,,,,,,,,,,,,,,,,,,,,,,,,,,,,,,,,
,,,,,,60b9c8b91a02b297822a37d6,62bbfad0bd910250215f200d,2022-06-29_09h11.47.117,Colour_Asymmetry_Pilot,2022.1.3,Win32,60.17571308,62bbe60bf3d75ef465d3e404,,,,,,,,,,,,,,,,,,,"[-0.07459999999999989,0.12139999999999995,-0.9922]",twoone,"[0.22340000000000004,-0.9296,-0.7884]",-4,5.512,-37.59997559,88,1,0,0,response7disk_5,-20,2.399993896,1,0,0,rectangle_8,-20,2.399993896,1,0,0,3,-20,2.399993896,1,0,0,2,0,2,0,1,,,,,,,,,,,,,,,,,,,,,,,,,,,,,,,,,,,,,,,,,,,,,,,,,,,,,,,,,,,,,,,,,,,,,,,,,,,,,,,,,,,,,,,,,,,,,,,,,,,,,,,,,,,
,,,,,,60b9c8b91a02b297822a37d6,62bbfad0bd910250215f200d,2022-06-29_09h11.47.117,Colour_Asymmetry_Pilot,2022.1.3,Win32,60.17571308,62bbe60bf3d75ef465d3e404,,,,,,,,,,,,,,,,,,,"[-0.34920000000000007,-0.702,-0.5216]",fourtwo,"[-0.4902000000000001,0.2704,-0.45899999999999996]",-4,9.1749,-53.59997559,84,1,0,0,response7disk_5,3.200012207,-3.200012207,1,0,0,rectangle_8,93.60003662,46.3999939,1,0,0,3,-2.399963379,-8.800018311,1,0,0,3,0,3,0,1,response1disk_7,6,rectangle_4,,,,,,,,,,,,,,,,,,,,,,,,,,,,,,,,,,,,,,,,,,,,,,,,,,,,,,,,,,,,,,,,,,,,,,,,,,,,,,,,,,,,,,,,,,,,,,,,,,,,,,,,
,,,,,,60b9c8b91a02b297822a37d6,62bbfad0bd910250215f200d,2022-06-29_09h11.47.117,Colour_Asymmetry_Pilot,2022.1.3,Win32,60.17571308,62bbe60bf3d75ef465d3e404,,,,,,,,,,,,,,,,,,,"[-0.4668,-0.8746,-0.2942]",fourthree,"[-0.8118,-0.8198,-0.5452]",-3,4.517,-79.20001221,26.3999939,1,0,0,response7disk_5,-6.399963379,5.599975586,1,0,0,rectangle_8,-6.399963379,5.599975586,1,0,0,3,-6.399963379,5.599975586,1,0,0,4,0,4,0,1,,,,,,,,,,,,,,,,,,,,,,,,,,,,,,,,,,,,,,,,,,,,,,,,,,,,,,,,,,,,,,,,,,,,,,,,,,,,,,,,,,,,,,,,,,,,,,,,,,,,,,,,,,,
,,,,,,60b9c8b91a02b297822a37d6,62bbfad0bd910250215f200d,2022-06-29_09h11.47.117,Colour_Asymmetry_Pilot,2022.1.3,Win32,60.17571308,62bbe60bf3d75ef465d3e404,,,,,,,,,,,,,,,,,,,"[-0.45899999999999996,-0.3256,-0.9374]",twofour,"[0.9686000000000001,0.3802000000000001,0.19999999999999996]",-4,2.3813,-32,82.3999939,1,0,0,response7disk_5,0.799987793,0.799987793,1,0,0,rectangle_8,0.799987793,0.799987793,1,0,0,3,0.799987793,0.799987793,1,0,0,5,0,5,0,1,,,,,,,,,,,,,,,,,,,,,,,,,,,,,,,,,,,,,,,,,,,,,,,,,,,,,,,,,,,,,,,,,,,,,,,,,,,,,,,,,,,,,,,,,,,,,,,,,,,,,,,,,,,
,,,,,,60b9c8b91a02b297822a37d6,62bbfad0bd910250215f200d,2022-06-29_09h11.47.117,Colour_Asymmetry_Pilot,2022.1.3,Win32,60.17571308,62bbe60bf3d75ef465d3e404,,,,,,,,,,,,,,,,,,,"[-0.06680000000000008,-0.45100000000000007,-0.906]",twoone,"[0.34099999999999997,0.5841999999999998,-0.9844]",-4,1.715,-48.79998779,93.59997559,1,0,0,response7disk_5,5.600036621,4,1,0,0,rectangle_8,5.600036621,4,1,0,0,3,5.600036621,4,1,0,0,6,0,6,0,1,,,,,,,,,,,,,,,,,,,,,,,,,,,,,,,,,,,,,,,,,,,,,,,,,,,,,,,,,,,,,,,,,,,,,,,,,,,,,,,,,,,,,,,,,,,,,,,,,,,,,,,,,,,
,,,,,,60b9c8b91a02b297822a37d6,62bbfad0bd910250215f200d,2022-06-29_09h11.47.117,Colour_Asymmetry_Pilot,2022.1.3,Win32,60.17571308,62bbe60bf3d75ef465d3e404,,,,,,,,,,,,,,,,,,,,onethree,,-4,1.1664,,,,,,,,,,,,,,,,,,,,,,,,,,,,,,,,space,5.6784,"[0.22340000000000004,-0.9296,-0.7884]","[-0.07459999999999989,0.12139999999999995,-0.9922]",-41.59997559,92.79998779,1,0,0,response7disk,2.400024414,0.799987793,1,0,0,rectangle,2.400024414,0.799987793,1,0,0,,3,0.0022,0,2.400024414,0.799987793,1,0,0,0,0,0,41,1,41,first,,,,,,,,,,,,,,,,,,,,,,,,,,,,,,,,,,,,,,,,,,,,,,,,,,,,,,,,,,,,,,,,,,,
,,,,,,60b9c8b91a02b297822a37d6,62bbfad0bd910250215f200d,2022-06-29_09h11.47.117,Colour_Asymmetry_Pilot,2022.1.3,Win32,60.17571308,62bbe60bf3d75ef465d3e404,,,,,,,,,,,,,,,,,,,,onethree,,-4,1.4987,,,,,,,,,,,,,,,,,,,,,,,,,,,,,,,,,,"[0.7802,-0.23140000000000005,-0.20799999999999996]","[-0.8118,-0.8198,-0.5452]",-44,76,1,0,0,response7disk,-16,4,1,0,0,rectangle,-16,4,1,0,0,,2,0.0014,0,-16,4,1,0,0,0,1,1,73,1,73,first,,,,,,,,,,,,,,,,,,,,,,,,,,,,,,,,,,,,,,,,,,,,,,,,,,,,,,,,,,,,,,,,,,,
,,,,,,60b9c8b91a02b297822a37d6,62bbfad0bd910250215f200d,2022-06-29_09h11.47.117,Colour_Asymmetry_Pilot,2022.1.3,Win32,60.17571308,62bbe60bf3d75ef465d3e404,,,,,,,,,,,,,,,,,,,,fourthree,,-3,1.0323,,,,,,,,,,,,,,,,,,,,,,,,,,,,,,,,,,"[-0.5922000000000001,-0.7492000000000001,-0.5296000000000001]","[0.11359999999999992,0.6312,0.5213999999999999]",-77.59997559,47.19998169,1,0,0,response7disk,-3.200012207,-0.800018311,1,0,0,rectangle,-3.200012207,-0.800018311,1,0,0,,2,0.0003,0,-3.200012207,-0.800018311,1,0,0,0,2,2,9,1,9,first,,,,,,,,,,,,,,,,,,,,,,,,,,,,,,,,,,,,,,,,,,,,,,,,,,,,,,,,,,,,,,,,,,,
,,,,,,60b9c8b91a02b297822a37d6,62bbfad0bd910250215f200d,2022-06-29_09h11.47.117,Colour_Asymmetry_Pilot,2022.1.3,Win32,60.17571308,62bbe60bf3d75ef465d3e404,,,,,,,,,,,,,,,,,,,,fourthree,,-3,1.0323,,,,,,,,,,,,,,,,,,,,,,,,,,,,,,,,,,"[0.04299999999999993,0.16060000000000008,-0.6628000000000001]","[-0.011800000000000033,-0.906,-0.45100000000000007]",-75.20001221,38.3999939,1,0,0,response7disk,-16,4,1,0,0,rectangle,-16,4,1,0,0,,1,0.0014,0,-16,4,1,0,0,0,3,3,82,1,1,second,,,,,,,,,,,,,,,,,,,,,,,,,,,,,,,,,,,,,,,,,,,,,,,,,,,,,,,,,,,,,,,,,,,
,,,,,,60b9c8b91a02b297822a37d6,62bbfad0bd910250215f200d,2022-06-29_09h11.47.117,Colour_Asymmetry_Pilot,2022.1.3,Win32,60.17571308,62bbe60bf3d75ef465d3e404,,,,,,,,,,,,,,,,,,,,twofour,,-4,1.2491,,,,,,,,,,,,,,,,,,,,,,,,,,,,,,,,,,"[-0.8118,-0.8198,-0.5452]","[0.7646000000000002,0.07440000000000002,0.2704]",-44.79998779,88,1,0,0,response7disk,-16.79998779,4,1,0,0,rectangle,-16.79998779,4,1,0,0,,2,0.0012,0,-16.79998779,4,1,0,0,0,4,4,91,1,10,second,,,,,,,,,,,,,,,,,,,,,,,,,,,,,,,,,,,,,,,,,,,,,,,,,,,,,,,,,,,,,,,,,,,
,,,,,,60b9c8b91a02b297822a37d6,62bbfad0bd910250215f200d,2022-06-29_09h11.47.117,Colour_Asymmetry_Pilot,2022.1.3,Win32,60.17571308,62bbe60bf3d75ef465d3e404,,,,,,,,,,,,,,,,,,,,onetwo,,-4,1.0992,,,,,,,,,,,,,,,,,,,,,,,,,,,,,,,,,,"[-0.4276,0.0038000000000000256,-0.3256]","[0.9213999999999998,0.6391999999999998,-0.9922]",-40.79998779,82.3999939,1,0,0,response7disk,-16.79998779,2.399993896,1,0,0,rectangle,-16.79998779,2.399993896,1,0,0,,2,0.0002,0,-16.79998779,2.399993896,1,0,0,0,5,5,45,1,45,first,,,,,,,,,,,,,,,,,,,,,,,,,,,,,,,,,,,,,,,,,,,,,,,,,,,,,,,,,,,,,,,,,,,
,,,,,,60b9c8b91a02b297822a37d6,62bbfad0bd910250215f200d,2022-06-29_09h11.47.117,Colour_Asymmetry_Pilot,2022.1.3,Win32,60.17571308,62bbe60bf3d75ef465d3e404,,,,,,,,,,,,,,,,,,,,onetwo,,-3,1.7489,,,,,,,,,,,,,,,,,,,,,,,,,,,,,,,,,,"[-0.7412000000000001,-0.08239999999999992,-0.6864]","[0.7018,0.7176,0.6155999999999999]",-75.20001221,38.3999939,1,0,0,response7disk,0.799987793,1.599975586,1,0,0,rectangle,47.20001221,-104.8000183,1,0,0,1,1,3.4142,1,-8.799987793,0.799987793,1,0,0,0,6,6,76,1,76,first,response3disk_3,rectangle,,,,,,,,,,,,,,,,,,,,,,,,,,,,,,,,,,,,,,,,,,,,,,,,,,,,,,,,,,,,,,,,,
,,,,,,60b9c8b91a02b297822a37d6,62bbfad0bd910250215f200d,2022-06-29_09h11.47.117,Colour_Asymmetry_Pilot,2022.1.3,Win32,60.17571308,62bbe60bf3d75ef465d3e404,,,,,,,,,,,,,,,,,,,,fourtwo,,-2,1.4321,,,,,,,,,,,,,,,,,,,,,,,,,,,,,,,,,,"[-0.24719999999999998,-0.0354000000000001,0.3175999999999999]","[-0.24719999999999998,-0.0354000000000001,0.3175999999999999]",-56.79998779,-33.6000061,1,0,0,response5disk,9.600036621,-5.600006104,1,0,0,rectangle,53.60003662,-103.2000427,1,0,0,1,1,2.3636,1,-5.599975586,2.399993896,1,0,0,0,7,7,36,1,36,first,response3disk_3,rectangle,,,,,,,,,,,,,,,,,,,,,,,,,,,,,,,,,,,,,,,,,,,,,,,,,,,,,,,,,,,,,,,,,
,,,,,,60b9c8b91a02b297822a37d6,62bbfad0bd910250215f200d,2022-06-29_09h11.47.117,Colour_Asymmetry_Pilot,2022.1.3,Win32,60.17571308,62bbe60bf3d75ef465d3e404,,,,,,,,,,,,,,,,,,,,fourtwo,,-1,2.8143,,,,,,,,,,,,,,,,,,,,,,,,,,,,,,,,,,"[-0.011800000000000033,-0.906,-0.45100000000000007]","[-0.20799999999999996,-0.655,-0.01980000000000004]",-42.39996338,-85.6000061,1,0,0,response5disk,-4,-0.800018311,1,0,0,rectangle,-4,-0.800018311,1,0,0,1,1,0.0002,0,-4,-0.800018311,1,0,0,0,8,8,43,1,43,first,,,,,,,,,,,,,,,,,,,,,,,,,,,,,,,,,,,,,,,,,,,,,,,,,,,,,,,,,,,,,,,,,,,
,,,,,,60b9c8b91a02b297822a37d6,62bbfad0bd910250215f200d,2022-06-29_09h11.47.117,Colour_Asymmetry_Pilot,2022.1.3,Win32,60.17571308,62bbe60bf3d75ef465d3e404,,,,,,,,,,,,,,,,,,,,threeone,,-4,0.7489,,,,,,,,,,,,,,,,,,,,,,,,,,,,,,,,,,"[-0.9688,-0.38039999999999996,-0.41979999999999995]","[0.9686000000000001,0.5763999999999998,0.11359999999999992]",-32,82.3999939,1,0,0,response7disk,0,-2.400024414,1,0,0,rectangle,0,-2.400024414,1,0,0,1,2,0.001,0,0,-2.400024414,1,0,0,0,9,9,79,1,79,first,,,,,,,,,,,,,,,,,,,,,,,,,,,,,,,,,,,,,,,,,,,,,,,,,,,,,,,,,,,,,,,,,,,
,,,,,,60b9c8b91a02b297822a37d6,62bbfad0bd910250215f200d,2022-06-29_09h11.47.117,Colour_Asymmetry_Pilot,2022.1.3,Win32,60.17571308,62bbe60bf3d75ef465d3e404,,,,,,,,,,,,,,,,,,,,fourthree,,-3,0.7828,,,,,,,,,,,,,,,,,,,,,,,,,,,,,,,,,,"[0.11359999999999992,0.6312,0.5213999999999999]","[-0.34920000000000007,-0.702,-0.5216]",-61.59997559,42.3999939,1,0,0,response7disk,0.799987793,3.199981689,1,0,0,rectangle,0.799987793,3.199981689,1,0,0,1,2,0.0002,0,0.799987793,3.199981689,1,0,0,0,10,10,89,1,8,second,,,,,,,,,,,,,,,,,,,,,,,,,,,,,,,,,,,,,,,,,,,,,,,,,,,,,,,,,,,,,,,,,,,
,,,,,,60b9c8b91a02b297822a37d6,62bbfad0bd910250215f200d,2022-06-29_09h11.47.117,Colour_Asymmetry_Pilot,2022.1.3,Win32,60.17571308,62bbe60bf3d75ef465d3e404,,,,,,,,,,,,,,,,,,,,threefour,,-3,1.3318,,,,,,,,,,,,,,,,,,,,,,,,,,,,,,,,,,"[0.37240000000000006,-0.050999999999999934,-0.5216]","[-0.9296,-0.12959999999999994,-0.043199999999999905]",-76.79998779,41.59997559,1,0,0,response7disk,-14.39996338,4.799987793,1,0,0,rectangle,-14.39996338,4.799987793,1,0,0,1,1,0.0008,0,-14.39996338,4.799987793,1,0,0,0,11,11,152,1,71,second,,,,,,,,,,,,,,,,,,,,,,,,,,,,,,,,,,,,,,,,,,,,,,,,,,,,,,,,,,,,,,,,,,,
,,,,,,60b9c8b91a02b297822a37d6,62bbfad0bd910250215f200d,2022-06-29_09h11.47.117,Colour_Asymmetry_Pilot,2022.1.3,Win32,60.17571308,62bbe60bf3d75ef465d3e404,,,,,,,,,,,,,,,,,,,,threefour,,-3,0.9215,,,,,,,,,,,,,,,,,,,,,,,,,,,,,,,,,,"[0.3568,-0.20799999999999996,-0.9844]","[-0.9766,-0.34920000000000007,0.2156]",-76,43.19998169,1,0,0,response7disk,-7.200012207,-4,1,0,0,rectangle,-7.200012207,-4,1,0,0,1,3,0.0008,0,-7.200012207,-4,1,0,0,0,12,12,148,1,67,second,,,,,,,,,,,,,,,,,,,,,,,,,,,,,,,,,,,,,,,,,,,,,,,,,,,,,,,,,,,,,,,,,,,
,,,,,,60b9c8b91a02b297822a37d6,62bbfad0bd910250215f200d,2022-06-29_09h11.47.117,Colour_Asymmetry_Pilot,2022.1.3,Win32,60.17571308,62bbe60bf3d75ef465d3e404,,,,,,,,,,,,,,,,,,,,threeone,,-2,0.939,,,,,,,,,,,,,,,,,,,,,,,,,,,,,,,,,,"[0.40379999999999994,0.09000000000000008,0.44300000000000006]","[0.2862,0.7802,0.3568]",-70.39996338,-39.20001221,1,0,0,response5disk,-7.200012207,-4.800018311,1,0,0,rectangle,-7.200012207,-4.800018311,1,0,0,1,1,0.0011,0,-7.200012207,-4.800018311,1,0,0,0,13,13,19,1,19,first,,,,,,,,,,,,,,,,,,,,,,,,,,,,,,,,,,,,,,,,,,,,,,,,,,,,,,,,,,,,,,,,,,,
,,,,,,60b9c8b91a02b297822a37d6,62bbfad0bd910250215f200d,2022-06-29_09h11.47.117,Colour_Asymmetry_Pilot,2022.1.3,Win32,60.17571308,62bbe60bf3d75ef465d3e404,,,,,,,,,,,,,,,,,,,,fourthree,,-1,1.4322,,,,,,,,,,,,,,,,,,,,,,,,,,,,,,,,,,"[0.19199999999999995,0.18419999999999992,0.5136000000000001]","[-0.9216,-0.5529999999999999,-0.3962]",-45.59997559,-92.80001831,1,0,0,response5disk,-8.799987793,1.599975586,1,0,0,rectangle,-8.799987793,1.599975586,1,0,0,1,3,0.001,0,-8.799987793,1.599975586,1,0,0,0,14,14,29,1,29,first,,,,,,,,,,,,,,,,,,,,,,,,,,,,,,,,,,,,,,,,,,,,,,,,,,,,,,,,,,,,,,,,,,,
,,,,,,60b9c8b91a02b297822a37d6,62bbfad0bd910250215f200d,2022-06-29_09h11.47.117,Colour_Asymmetry_Pilot,2022.1.3,Win32,60.17571308,62bbe60bf3d75ef465d3e404,,,,,,,,,,,,,,,,,,,,fourtwo,,-3,0.7899,,,,,,,,,,,,,,,,,,,,,,,,,,,,,,,,,,"[-0.8118,-0.8198,-0.5452]","[0.7802,-0.23140000000000005,-0.20799999999999996]",-71.20001221,37.59997559,1,0,0,response7disk,4.799987793,0,1,0,0,rectangle,4.799987793,0,1,0,0,1,3,0.0009,0,4.799987793,0,1,0,0,0,15,15,154,1,73,second,,,,,,,,,,,,,,,,,,,,,,,,,,,,,,,,,,,,,,,,,,,,,,,,,,,,,,,,,,,,,,,,,,,
,,,,,,60b9c8b91a02b297822a37d6,62bbfad0bd910250215f200d,2022-06-29_09h11.47.117,Colour_Asymmetry_Pilot,2022.1.3,Win32,60.17571308,62bbe60bf3d75ef465d3e404,,,,,,,,,,,,,,,,,,,,twofour,,-3,0.8325,,,,,,,,,,,,,,,,,,,,,,,,,,,,,,,,,,"[0.34099999999999997,0.5841999999999998,-0.9844]","[-0.5922000000000001,-0.7492000000000001,-0.5296000000000001]",-84,40.79998779,1,0,0,response7disk,-12.79998779,-1.600006104,1,0,0,rectangle,-12.79998779,-1.600006104,1,0,0,1,2,0.0013,0,-12.79998779,-1.600006104,1,0,0,0,16,16,80,1,80,first,,,,,,,,,,,,,,,,,,,,,,,,,,,,,,,,,,,,,,,,,,,,,,,,,,,,,,,,,,,,,,,,,,,
,,,,,,60b9c8b91a02b297822a37d6,62bbfad0bd910250215f200d,2022-06-29_09h11.47.117,Colour_Asymmetry_Pilot,2022.1.3,Win32,60.17571308,62bbe60bf3d75ef465d3e404,,,,,,,,,,,,,,,,,,,,onetwo,,-2,1.1659,,,,,,,,,,,,,,,,,,,,,,,,,,,,,,,,,,"[-0.7412000000000001,-0.08239999999999992,-0.6864]","[-0.6,0.16860000000000008,0.44300000000000006]",-70.39996338,-36,1,0,0,response5disk,-22.39996338,0.799987793,1,0,0,rectangle,-22.39996338,0.799987793,1,0,0,1,2,0.0007,0,-22.39996338,0.799987793,1,0,0,0,17,17,13,1,13,first,,,,,,,,,,,,,,,,,,,,,,,,,,,,,,,,,,,,,,,,,,,,,,,,,,,,,,,,,,,,,,,,,,,
