trials.thisRepN,trials.thisTrialN,trials.thisN,trials.thisIndex,trials.ran,Colourcodes,participant,session,date,expName,psychopyVersion,OS,frameRate,study_id,trials_4.thisRepN,trials_4.thisTrialN,trials_4.thisN,trials_4.thisIndex,trials_4.ran,StimulusPos,key_resp.keys,key_resp.rt,key_resp_2.keys,key_resp_2.rt,key_resp_15.keys,key_resp_15.rt,key_resp_17.keys,key_resp_17.rt,key_resp_9.keys,key_resp_9.rt,key_resp_10.keys,key_resp_10.rt,Circle1_col,Ecc,Circle2_col,similarity,response_time,mouse_5.x,mouse_5.y,mouse_5.leftButton,mouse_5.midButton,mouse_5.rightButton,mouse_5.clicked_name,mouse_10.x,mouse_10.y,mouse_10.leftButton,mouse_10.midButton,mouse_10.rightButton,mouse_10.clicked_name,mouse_7.x,mouse_7.y,mouse_7.leftButton,mouse_7.midButton,mouse_7.rightButton,catchnumberprac,mouse_6.x,mouse_6.y,mouse_6.leftButton,mouse_6.midButton,mouse_6.rightButton,duringprac.thisRepN,duringprac.thisTrialN,duringprac.thisN,duringprac.thisIndex,duringprac.ran,mouse_7.clicked_name,catchprac,mouse_6.clicked_name,key_resp_22.keys,key_resp_22.rt,Circle1_colour,Circle2_colour,mouse.x,mouse.y,mouse.leftButton,mouse.midButton,mouse.rightButton,mouse.clicked_name,mouse_2.x,mouse_2.y,mouse_2.leftButton,mouse_2.midButton,mouse_2.rightButton,mouse_2.clicked_name,mouse_3.x,mouse_3.y,mouse_3.leftButton,mouse_3.midButton,mouse_3.rightButton,catchresponse,catchnumber,response_time_catch,Catch,mouse_11.x,mouse_11.y,mouse_11.leftButton,mouse_11.midButton,mouse_11.rightButton,trials_2.thisRepN,trials_2.thisTrialN,trials_2.thisN,trials_2.thisIndex,trials_2.ran,Colourpair,Temporder,mouse_3.clicked_name,mouse_11.clicked_name,trials_3.thisRepN,trials_3.thisTrialN,trials_3.thisN,trials_3.thisIndex,trials_3.ran,key_resp_instr_Ishi.keys,key_resp_instr_Ishi.rt,Ishi_trial_keyresp.keys,Ishi_trial_keyresp.rt,Ishi_textbox.text,Ishi_loop.thisRepN,Ishi_loop.thisTrialN,Ishi_loop.thisN,Ishi_loop.thisIndex,Ishi_loop.ran,imageaddress,textbox.text,mouse_4.x,mouse_4.y,mouse_4.leftButton,mouse_4.midButton,mouse_4.rightButton,mouse_4.clicked_name,textbox_2.text,mouse_8.x,mouse_8.y,mouse_8.leftButton,mouse_8.midButton,mouse_8.rightButton,mouse_8.clicked_name,textbox_3.text,mouse_9.x,mouse_9.y,mouse_9.leftButton,mouse_9.midButton,mouse_9.rightButton,mouse_9.clicked_name,textbox_4.text,mouse_12.x,mouse_12.y,mouse_12.leftButton,mouse_12.midButton,mouse_12.rightButton,mouse_12.clicked_name,textbox_5.text,mouse_13.x,mouse_13.y,mouse_13.leftButton,mouse_13.midButton,mouse_13.rightButton,mouse_13.clicked_name,textbox_6.text,mouse_14.x,mouse_14.y,mouse_14.leftButton,mouse_14.midButton,mouse_14.rightButton,mouse_14.clicked_name,textbox_7.text,mouse_15.x,mouse_15.y,mouse_15.leftButton,mouse_15.midButton,mouse_15.rightButton,mouse_15.clicked_name
0,0,0,32,1,,61098363298108ee13a5a0df,62bbfb54e7de68c3549c517b,2022-06-29_10h14.33.360,Colour_Asymmetry_Pilot,2022.1.3,Win32,47.99155349,62bbe60bf3d75ef465d3e404,,,,,,,,,,,,,,,,,,,,,,,,,,,,,,,,,,,,,,,,,,,,,,,,,,,,,,,,,,,,,,,,,,,,,,,,,,,,,,,,,,,,,,,,,,,,,,,,,,,,,,,,,,,,,,,,,,,,,,,,,,,,,,,,,,,,,,,,,,,,,,,,,,,,,,,,,,,,,,
0,1,1,10,1,,61098363298108ee13a5a0df,62bbfb54e7de68c3549c517b,2022-06-29_10h14.33.360,Colour_Asymmetry_Pilot,2022.1.3,Win32,47.99155349,62bbe60bf3d75ef465d3e404,,,,,,,,,,,,,,,,,,,,,,,,,,,,,,,,,,,,,,,,,,,,,,,,,,,,,,,,,,,,,,,,,,,,,,,,,,,,,,,,,,,,,,,,,,,,,,,,,,,,,,,,,,,,,,,,,,,,,,,,,,,,,,,,,,,,,,,,,,,,,,,,,,,,,,,,,,,,,,
0,2,2,33,1,,61098363298108ee13a5a0df,62bbfb54e7de68c3549c517b,2022-06-29_10h14.33.360,Colour_Asymmetry_Pilot,2022.1.3,Win32,47.99155349,62bbe60bf3d75ef465d3e404,,,,,,,,,,,,,,,,,,,,,,,,,,,,,,,,,,,,,,,,,,,,,,,,,,,,,,,,,,,,,,,,,,,,,,,,,,,,,,,,,,,,,,,,,,,,,,,,,,,,,,,,,,,,,,,,,,,,,,,,,,,,,,,,,,,,,,,,,,,,,,,,,,,,,,,,,,,,,,
0,3,3,53,1,,61098363298108ee13a5a0df,62bbfb54e7de68c3549c517b,2022-06-29_10h14.33.360,Colour_Asymmetry_Pilot,2022.1.3,Win32,47.99155349,62bbe60bf3d75ef465d3e404,,,,,,,,,,,,,,,,,,,,,,,,,,,,,,,,,,,,,,,,,,,,,,,,,,,,,,,,,,,,,,,,,,,,,,,,,,,,,,,,,,,,,,,,,,,,,,,,,,,,,,,,,,,,,,,,,,,,,,,,,,,,,,,,,,,,,,,,,,,,,,,,,,,,,,,,,,,,,,
0,4,4,2,1,,61098363298108ee13a5a0df,62bbfb54e7de68c3549c517b,2022-06-29_10h14.33.360,Colour_Asymmetry_Pilot,2022.1.3,Win32,47.99155349,62bbe60bf3d75ef465d3e404,,,,,,,,,,,,,,,,,,,,,,,,,,,,,,,,,,,,,,,,,,,,,,,,,,,,,,,,,,,,,,,,,,,,,,,,,,,,,,,,,,,,,,,,,,,,,,,,,,,,,,,,,,,,,,,,,,,,,,,,,,,,,,,,,,,,,,,,,,,,,,,,,,,,,,,,,,,,,,
0,5,5,17,1,,61098363298108ee13a5a0df,62bbfb54e7de68c3549c517b,2022-06-29_10h14.33.360,Colour_Asymmetry_Pilot,2022.1.3,Win32,47.99155349,62bbe60bf3d75ef465d3e404,,,,,,,,,,,,,,,,,,,,,,,,,,,,,,,,,,,,,,,,,,,,,,,,,,,,,,,,,,,,,,,,,,,,,,,,,,,,,,,,,,,,,,,,,,,,,,,,,,,,,,,,,,,,,,,,,,,,,,,,,,,,,,,,,,,,,,,,,,,,,,,,,,,,,,,,,,,,,,
0,6,6,41,1,,61098363298108ee13a5a0df,62bbfb54e7de68c3549c517b,2022-06-29_10h14.33.360,Colour_Asymmetry_Pilot,2022.1.3,Win32,47.99155349,62bbe60bf3d75ef465d3e404,,,,,,,,,,,,,,,,,,,,,,,,,,,,,,,,,,,,,,,,,,,,,,,,,,,,,,,,,,,,,,,,,,,,,,,,,,,,,,,,,,,,,,,,,,,,,,,,,,,,,,,,,,,,,,,,,,,,,,,,,,,,,,,,,,,,,,,,,,,,,,,,,,,,,,,,,,,,,,
0,7,7,62,1,,61098363298108ee13a5a0df,62bbfb54e7de68c3549c517b,2022-06-29_10h14.33.360,Colour_Asymmetry_Pilot,2022.1.3,Win32,47.99155349,62bbe60bf3d75ef465d3e404,,,,,,,,,,,,,,,,,,,,,,,,,,,,,,,,,,,,,,,,,,,,,,,,,,,,,,,,,,,,,,,,,,,,,,,,,,,,,,,,,,,,,,,,,,,,,,,,,,,,,,,,,,,,,,,,,,,,,,,,,,,,,,,,,,,,,,,,,,,,,,,,,,,,,,,,,,,,,,
0,8,8,28,1,,61098363298108ee13a5a0df,62bbfb54e7de68c3549c517b,2022-06-29_10h14.33.360,Colour_Asymmetry_Pilot,2022.1.3,Win32,47.99155349,62bbe60bf3d75ef465d3e404,,,,,,,,,,,,,,,,,,,,,,,,,,,,,,,,,,,,,,,,,,,,,,,,,,,,,,,,,,,,,,,,,,,,,,,,,,,,,,,,,,,,,,,,,,,,,,,,,,,,,,,,,,,,,,,,,,,,,,,,,,,,,,,,,,,,,,,,,,,,,,,,,,,,,,,,,,,,,,
0,9,9,14,1,,61098363298108ee13a5a0df,62bbfb54e7de68c3549c517b,2022-06-29_10h14.33.360,Colour_Asymmetry_Pilot,2022.1.3,Win32,47.99155349,62bbe60bf3d75ef465d3e404,,,,,,,,,,,,,,,,,,,,,,,,,,,,,,,,,,,,,,,,,,,,,,,,,,,,,,,,,,,,,,,,,,,,,,,,,,,,,,,,,,,,,,,,,,,,,,,,,,,,,,,,,,,,,,,,,,,,,,,,,,,,,,,,,,,,,,,,,,,,,,,,,,,,,,,,,,,,,,
0,10,10,92,1,,61098363298108ee13a5a0df,62bbfb54e7de68c3549c517b,2022-06-29_10h14.33.360,Colour_Asymmetry_Pilot,2022.1.3,Win32,47.99155349,62bbe60bf3d75ef465d3e404,,,,,,,,,,,,,,,,,,,,,,,,,,,,,,,,,,,,,,,,,,,,,,,,,,,,,,,,,,,,,,,,,,,,,,,,,,,,,,,,,,,,,,,,,,,,,,,,,,,,,,,,,,,,,,,,,,,,,,,,,,,,,,,,,,,,,,,,,,,,,,,,,,,,,,,,,,,,,,
0,11,11,55,1,,61098363298108ee13a5a0df,62bbfb54e7de68c3549c517b,2022-06-29_10h14.33.360,Colour_Asymmetry_Pilot,2022.1.3,Win32,47.99155349,62bbe60bf3d75ef465d3e404,,,,,,,,,,,,,,,,,,,,,,,,,,,,,,,,,,,,,,,,,,,,,,,,,,,,,,,,,,,,,,,,,,,,,,,,,,,,,,,,,,,,,,,,,,,,,,,,,,,,,,,,,,,,,,,,,,,,,,,,,,,,,,,,,,,,,,,,,,,,,,,,,,,,,,,,,,,,,,
0,12,12,78,1,,61098363298108ee13a5a0df,62bbfb54e7de68c3549c517b,2022-06-29_10h14.33.360,Colour_Asymmetry_Pilot,2022.1.3,Win32,47.99155349,62bbe60bf3d75ef465d3e404,,,,,,,,,,,,,,,,,,,,,,,,,,,,,,,,,,,,,,,,,,,,,,,,,,,,,,,,,,,,,,,,,,,,,,,,,,,,,,,,,,,,,,,,,,,,,,,,,,,,,,,,,,,,,,,,,,,,,,,,,,,,,,,,,,,,,,,,,,,,,,,,,,,,,,,,,,,,,,
0,13,13,8,1,,61098363298108ee13a5a0df,62bbfb54e7de68c3549c517b,2022-06-29_10h14.33.360,Colour_Asymmetry_Pilot,2022.1.3,Win32,47.99155349,62bbe60bf3d75ef465d3e404,,,,,,,,,,,,,,,,,,,,,,,,,,,,,,,,,,,,,,,,,,,,,,,,,,,,,,,,,,,,,,,,,,,,,,,,,,,,,,,,,,,,,,,,,,,,,,,,,,,,,,,,,,,,,,,,,,,,,,,,,,,,,,,,,,,,,,,,,,,,,,,,,,,,,,,,,,,,,,
0,14,14,67,1,,61098363298108ee13a5a0df,62bbfb54e7de68c3549c517b,2022-06-29_10h14.33.360,Colour_Asymmetry_Pilot,2022.1.3,Win32,47.99155349,62bbe60bf3d75ef465d3e404,,,,,,,,,,,,,,,,,,,,,,,,,,,,,,,,,,,,,,,,,,,,,,,,,,,,,,,,,,,,,,,,,,,,,,,,,,,,,,,,,,,,,,,,,,,,,,,,,,,,,,,,,,,,,,,,,,,,,,,,,,,,,,,,,,,,,,,,,,,,,,,,,,,,,,,,,,,,,,
0,15,15,75,1,,61098363298108ee13a5a0df,62bbfb54e7de68c3549c517b,2022-06-29_10h14.33.360,Colour_Asymmetry_Pilot,2022.1.3,Win32,47.99155349,62bbe60bf3d75ef465d3e404,,,,,,,,,,,,,,,,,,,,,,,,,,,,,,,,,,,,,,,,,,,,,,,,,,,,,,,,,,,,,,,,,,,,,,,,,,,,,,,,,,,,,,,,,,,,,,,,,,,,,,,,,,,,,,,,,,,,,,,,,,,,,,,,,,,,,,,,,,,,,,,,,,,,,,,,,,,,,,
0,16,16,5,1,,61098363298108ee13a5a0df,62bbfb54e7de68c3549c517b,2022-06-29_10h14.33.360,Colour_Asymmetry_Pilot,2022.1.3,Win32,47.99155349,62bbe60bf3d75ef465d3e404,,,,,,,,,,,,,,,,,,,,,,,,,,,,,,,,,,,,,,,,,,,,,,,,,,,,,,,,,,,,,,,,,,,,,,,,,,,,,,,,,,,,,,,,,,,,,,,,,,,,,,,,,,,,,,,,,,,,,,,,,,,,,,,,,,,,,,,,,,,,,,,,,,,,,,,,,,,,,,
0,17,17,74,1,,61098363298108ee13a5a0df,62bbfb54e7de68c3549c517b,2022-06-29_10h14.33.360,Colour_Asymmetry_Pilot,2022.1.3,Win32,47.99155349,62bbe60bf3d75ef465d3e404,,,,,,,,,,,,,,,,,,,,,,,,,,,,,,,,,,,,,,,,,,,,,,,,,,,,,,,,,,,,,,,,,,,,,,,,,,,,,,,,,,,,,,,,,,,,,,,,,,,,,,,,,,,,,,,,,,,,,,,,,,,,,,,,,,,,,,,,,,,,,,,,,,,,,,,,,,,,,,
0,18,18,72,1,,61098363298108ee13a5a0df,62bbfb54e7de68c3549c517b,2022-06-29_10h14.33.360,Colour_Asymmetry_Pilot,2022.1.3,Win32,47.99155349,62bbe60bf3d75ef465d3e404,,,,,,,,,,,,,,,,,,,,,,,,,,,,,,,,,,,,,,,,,,,,,,,,,,,,,,,,,,,,,,,,,,,,,,,,,,,,,,,,,,,,,,,,,,,,,,,,,,,,,,,,,,,,,,,,,,,,,,,,,,,,,,,,,,,,,,,,,,,,,,,,,,,,,,,,,,,,,,
0,19,19,69,1,,61098363298108ee13a5a0df,62bbfb54e7de68c3549c517b,2022-06-29_10h14.33.360,Colour_Asymmetry_Pilot,2022.1.3,Win32,47.99155349,62bbe60bf3d75ef465d3e404,,,,,,,,,,,,,,,,,,,,,,,,,,,,,,,,,,,,,,,,,,,,,,,,,,,,,,,,,,,,,,,,,,,,,,,,,,,,,,,,,,,,,,,,,,,,,,,,,,,,,,,,,,,,,,,,,,,,,,,,,,,,,,,,,,,,,,,,,,,,,,,,,,,,,,,,,,,,,,
0,20,20,26,1,,61098363298108ee13a5a0df,62bbfb54e7de68c3549c517b,2022-06-29_10h14.33.360,Colour_Asymmetry_Pilot,2022.1.3,Win32,47.99155349,62bbe60bf3d75ef465d3e404,,,,,,,,,,,,,,,,,,,,,,,,,,,,,,,,,,,,,,,,,,,,,,,,,,,,,,,,,,,,,,,,,,,,,,,,,,,,,,,,,,,,,,,,,,,,,,,,,,,,,,,,,,,,,,,,,,,,,,,,,,,,,,,,,,,,,,,,,,,,,,,,,,,,,,,,,,,,,,
0,21,21,66,1,,61098363298108ee13a5a0df,62bbfb54e7de68c3549c517b,2022-06-29_10h14.33.360,Colour_Asymmetry_Pilot,2022.1.3,Win32,47.99155349,62bbe60bf3d75ef465d3e404,,,,,,,,,,,,,,,,,,,,,,,,,,,,,,,,,,,,,,,,,,,,,,,,,,,,,,,,,,,,,,,,,,,,,,,,,,,,,,,,,,,,,,,,,,,,,,,,,,,,,,,,,,,,,,,,,,,,,,,,,,,,,,,,,,,,,,,,,,,,,,,,,,,,,,,,,,,,,,
0,22,22,54,1,,61098363298108ee13a5a0df,62bbfb54e7de68c3549c517b,2022-06-29_10h14.33.360,Colour_Asymmetry_Pilot,2022.1.3,Win32,47.99155349,62bbe60bf3d75ef465d3e404,,,,,,,,,,,,,,,,,,,,,,,,,,,,,,,,,,,,,,,,,,,,,,,,,,,,,,,,,,,,,,,,,,,,,,,,,,,,,,,,,,,,,,,,,,,,,,,,,,,,,,,,,,,,,,,,,,,,,,,,,,,,,,,,,,,,,,,,,,,,,,,,,,,,,,,,,,,,,,
0,23,23,44,1,,61098363298108ee13a5a0df,62bbfb54e7de68c3549c517b,2022-06-29_10h14.33.360,Colour_Asymmetry_Pilot,2022.1.3,Win32,47.99155349,62bbe60bf3d75ef465d3e404,,,,,,,,,,,,,,,,,,,,,,,,,,,,,,,,,,,,,,,,,,,,,,,,,,,,,,,,,,,,,,,,,,,,,,,,,,,,,,,,,,,,,,,,,,,,,,,,,,,,,,,,,,,,,,,,,,,,,,,,,,,,,,,,,,,,,,,,,,,,,,,,,,,,,,,,,,,,,,
0,24,24,24,1,,61098363298108ee13a5a0df,62bbfb54e7de68c3549c517b,2022-06-29_10h14.33.360,Colour_Asymmetry_Pilot,2022.1.3,Win32,47.99155349,62bbe60bf3d75ef465d3e404,,,,,,,,,,,,,,,,,,,,,,,,,,,,,,,,,,,,,,,,,,,,,,,,,,,,,,,,,,,,,,,,,,,,,,,,,,,,,,,,,,,,,,,,,,,,,,,,,,,,,,,,,,,,,,,,,,,,,,,,,,,,,,,,,,,,,,,,,,,,,,,,,,,,,,,,,,,,,,
0,25,25,63,1,,61098363298108ee13a5a0df,62bbfb54e7de68c3549c517b,2022-06-29_10h14.33.360,Colour_Asymmetry_Pilot,2022.1.3,Win32,47.99155349,62bbe60bf3d75ef465d3e404,,,,,,,,,,,,,,,,,,,,,,,,,,,,,,,,,,,,,,,,,,,,,,,,,,,,,,,,,,,,,,,,,,,,,,,,,,,,,,,,,,,,,,,,,,,,,,,,,,,,,,,,,,,,,,,,,,,,,,,,,,,,,,,,,,,,,,,,,,,,,,,,,,,,,,,,,,,,,,
0,26,26,1,1,,61098363298108ee13a5a0df,62bbfb54e7de68c3549c517b,2022-06-29_10h14.33.360,Colour_Asymmetry_Pilot,2022.1.3,Win32,47.99155349,62bbe60bf3d75ef465d3e404,,,,,,,,,,,,,,,,,,,,,,,,,,,,,,,,,,,,,,,,,,,,,,,,,,,,,,,,,,,,,,,,,,,,,,,,,,,,,,,,,,,,,,,,,,,,,,,,,,,,,,,,,,,,,,,,,,,,,,,,,,,,,,,,,,,,,,,,,,,,,,,,,,,,,,,,,,,,,,
0,27,27,3,1,,61098363298108ee13a5a0df,62bbfb54e7de68c3549c517b,2022-06-29_10h14.33.360,Colour_Asymmetry_Pilot,2022.1.3,Win32,47.99155349,62bbe60bf3d75ef465d3e404,,,,,,,,,,,,,,,,,,,,,,,,,,,,,,,,,,,,,,,,,,,,,,,,,,,,,,,,,,,,,,,,,,,,,,,,,,,,,,,,,,,,,,,,,,,,,,,,,,,,,,,,,,,,,,,,,,,,,,,,,,,,,,,,,,,,,,,,,,,,,,,,,,,,,,,,,,,,,,
0,28,28,79,1,,61098363298108ee13a5a0df,62bbfb54e7de68c3549c517b,2022-06-29_10h14.33.360,Colour_Asymmetry_Pilot,2022.1.3,Win32,47.99155349,62bbe60bf3d75ef465d3e404,,,,,,,,,,,,,,,,,,,,,,,,,,,,,,,,,,,,,,,,,,,,,,,,,,,,,,,,,,,,,,,,,,,,,,,,,,,,,,,,,,,,,,,,,,,,,,,,,,,,,,,,,,,,,,,,,,,,,,,,,,,,,,,,,,,,,,,,,,,,,,,,,,,,,,,,,,,,,,
0,29,29,51,1,,61098363298108ee13a5a0df,62bbfb54e7de68c3549c517b,2022-06-29_10h14.33.360,Colour_Asymmetry_Pilot,2022.1.3,Win32,47.99155349,62bbe60bf3d75ef465d3e404,,,,,,,,,,,,,,,,,,,,,,,,,,,,,,,,,,,,,,,,,,,,,,,,,,,,,,,,,,,,,,,,,,,,,,,,,,,,,,,,,,,,,,,,,,,,,,,,,,,,,,,,,,,,,,,,,,,,,,,,,,,,,,,,,,,,,,,,,,,,,,,,,,,,,,,,,,,,,,
0,30,30,35,1,,61098363298108ee13a5a0df,62bbfb54e7de68c3549c517b,2022-06-29_10h14.33.360,Colour_Asymmetry_Pilot,2022.1.3,Win32,47.99155349,62bbe60bf3d75ef465d3e404,,,,,,,,,,,,,,,,,,,,,,,,,,,,,,,,,,,,,,,,,,,,,,,,,,,,,,,,,,,,,,,,,,,,,,,,,,,,,,,,,,,,,,,,,,,,,,,,,,,,,,,,,,,,,,,,,,,,,,,,,,,,,,,,,,,,,,,,,,,,,,,,,,,,,,,,,,,,,,
0,31,31,30,1,,61098363298108ee13a5a0df,62bbfb54e7de68c3549c517b,2022-06-29_10h14.33.360,Colour_Asymmetry_Pilot,2022.1.3,Win32,47.99155349,62bbe60bf3d75ef465d3e404,,,,,,,,,,,,,,,,,,,,,,,,,,,,,,,,,,,,,,,,,,,,,,,,,,,,,,,,,,,,,,,,,,,,,,,,,,,,,,,,,,,,,,,,,,,,,,,,,,,,,,,,,,,,,,,,,,,,,,,,,,,,,,,,,,,,,,,,,,,,,,,,,,,,,,,,,,,,,,
0,32,32,58,1,,61098363298108ee13a5a0df,62bbfb54e7de68c3549c517b,2022-06-29_10h14.33.360,Colour_Asymmetry_Pilot,2022.1.3,Win32,47.99155349,62bbe60bf3d75ef465d3e404,,,,,,,,,,,,,,,,,,,,,,,,,,,,,,,,,,,,,,,,,,,,,,,,,,,,,,,,,,,,,,,,,,,,,,,,,,,,,,,,,,,,,,,,,,,,,,,,,,,,,,,,,,,,,,,,,,,,,,,,,,,,,,,,,,,,,,,,,,,,,,,,,,,,,,,,,,,,,,
0,33,33,81,1,,61098363298108ee13a5a0df,62bbfb54e7de68c3549c517b,2022-06-29_10h14.33.360,Colour_Asymmetry_Pilot,2022.1.3,Win32,47.99155349,62bbe60bf3d75ef465d3e404,,,,,,,,,,,,,,,,,,,,,,,,,,,,,,,,,,,,,,,,,,,,,,,,,,,,,,,,,,,,,,,,,,,,,,,,,,,,,,,,,,,,,,,,,,,,,,,,,,,,,,,,,,,,,,,,,,,,,,,,,,,,,,,,,,,,,,,,,,,,,,,,,,,,,,,,,,,,,,
0,34,34,80,1,,61098363298108ee13a5a0df,62bbfb54e7de68c3549c517b,2022-06-29_10h14.33.360,Colour_Asymmetry_Pilot,2022.1.3,Win32,47.99155349,62bbe60bf3d75ef465d3e404,,,,,,,,,,,,,,,,,,,,,,,,,,,,,,,,,,,,,,,,,,,,,,,,,,,,,,,,,,,,,,,,,,,,,,,,,,,,,,,,,,,,,,,,,,,,,,,,,,,,,,,,,,,,,,,,,,,,,,,,,,,,,,,,,,,,,,,,,,,,,,,,,,,,,,,,,,,,,,
0,35,35,89,1,,61098363298108ee13a5a0df,62bbfb54e7de68c3549c517b,2022-06-29_10h14.33.360,Colour_Asymmetry_Pilot,2022.1.3,Win32,47.99155349,62bbe60bf3d75ef465d3e404,,,,,,,,,,,,,,,,,,,,,,,,,,,,,,,,,,,,,,,,,,,,,,,,,,,,,,,,,,,,,,,,,,,,,,,,,,,,,,,,,,,,,,,,,,,,,,,,,,,,,,,,,,,,,,,,,,,,,,,,,,,,,,,,,,,,,,,,,,,,,,,,,,,,,,,,,,,,,,
0,36,36,43,1,,61098363298108ee13a5a0df,62bbfb54e7de68c3549c517b,2022-06-29_10h14.33.360,Colour_Asymmetry_Pilot,2022.1.3,Win32,47.99155349,62bbe60bf3d75ef465d3e404,,,,,,,,,,,,,,,,,,,,,,,,,,,,,,,,,,,,,,,,,,,,,,,,,,,,,,,,,,,,,,,,,,,,,,,,,,,,,,,,,,,,,,,,,,,,,,,,,,,,,,,,,,,,,,,,,,,,,,,,,,,,,,,,,,,,,,,,,,,,,,,,,,,,,,,,,,,,,,
0,37,37,64,1,,61098363298108ee13a5a0df,62bbfb54e7de68c3549c517b,2022-06-29_10h14.33.360,Colour_Asymmetry_Pilot,2022.1.3,Win32,47.99155349,62bbe60bf3d75ef465d3e404,,,,,,,,,,,,,,,,,,,,,,,,,,,,,,,,,,,,,,,,,,,,,,,,,,,,,,,,,,,,,,,,,,,,,,,,,,,,,,,,,,,,,,,,,,,,,,,,,,,,,,,,,,,,,,,,,,,,,,,,,,,,,,,,,,,,,,,,,,,,,,,,,,,,,,,,,,,,,,
0,38,38,73,1,,61098363298108ee13a5a0df,62bbfb54e7de68c3549c517b,2022-06-29_10h14.33.360,Colour_Asymmetry_Pilot,2022.1.3,Win32,47.99155349,62bbe60bf3d75ef465d3e404,,,,,,,,,,,,,,,,,,,,,,,,,,,,,,,,,,,,,,,,,,,,,,,,,,,,,,,,,,,,,,,,,,,,,,,,,,,,,,,,,,,,,,,,,,,,,,,,,,,,,,,,,,,,,,,,,,,,,,,,,,,,,,,,,,,,,,,,,,,,,,,,,,,,,,,,,,,,,,
0,39,39,9,1,,61098363298108ee13a5a0df,62bbfb54e7de68c3549c517b,2022-06-29_10h14.33.360,Colour_Asymmetry_Pilot,2022.1.3,Win32,47.99155349,62bbe60bf3d75ef465d3e404,,,,,,,,,,,,,,,,,,,,,,,,,,,,,,,,,,,,,,,,,,,,,,,,,,,,,,,,,,,,,,,,,,,,,,,,,,,,,,,,,,,,,,,,,,,,,,,,,,,,,,,,,,,,,,,,,,,,,,,,,,,,,,,,,,,,,,,,,,,,,,,,,,,,,,,,,,,,,,
0,40,40,86,1,,61098363298108ee13a5a0df,62bbfb54e7de68c3549c517b,2022-06-29_10h14.33.360,Colour_Asymmetry_Pilot,2022.1.3,Win32,47.99155349,62bbe60bf3d75ef465d3e404,,,,,,,,,,,,,,,,,,,,,,,,,,,,,,,,,,,,,,,,,,,,,,,,,,,,,,,,,,,,,,,,,,,,,,,,,,,,,,,,,,,,,,,,,,,,,,,,,,,,,,,,,,,,,,,,,,,,,,,,,,,,,,,,,,,,,,,,,,,,,,,,,,,,,,,,,,,,,,
0,41,41,47,1,,61098363298108ee13a5a0df,62bbfb54e7de68c3549c517b,2022-06-29_10h14.33.360,Colour_Asymmetry_Pilot,2022.1.3,Win32,47.99155349,62bbe60bf3d75ef465d3e404,,,,,,,,,,,,,,,,,,,,,,,,,,,,,,,,,,,,,,,,,,,,,,,,,,,,,,,,,,,,,,,,,,,,,,,,,,,,,,,,,,,,,,,,,,,,,,,,,,,,,,,,,,,,,,,,,,,,,,,,,,,,,,,,,,,,,,,,,,,,,,,,,,,,,,,,,,,,,,
0,42,42,84,1,,61098363298108ee13a5a0df,62bbfb54e7de68c3549c517b,2022-06-29_10h14.33.360,Colour_Asymmetry_Pilot,2022.1.3,Win32,47.99155349,62bbe60bf3d75ef465d3e404,,,,,,,,,,,,,,,,,,,,,,,,,,,,,,,,,,,,,,,,,,,,,,,,,,,,,,,,,,,,,,,,,,,,,,,,,,,,,,,,,,,,,,,,,,,,,,,,,,,,,,,,,,,,,,,,,,,,,,,,,,,,,,,,,,,,,,,,,,,,,,,,,,,,,,,,,,,,,,
0,43,43,83,1,,61098363298108ee13a5a0df,62bbfb54e7de68c3549c517b,2022-06-29_10h14.33.360,Colour_Asymmetry_Pilot,2022.1.3,Win32,47.99155349,62bbe60bf3d75ef465d3e404,,,,,,,,,,,,,,,,,,,,,,,,,,,,,,,,,,,,,,,,,,,,,,,,,,,,,,,,,,,,,,,,,,,,,,,,,,,,,,,,,,,,,,,,,,,,,,,,,,,,,,,,,,,,,,,,,,,,,,,,,,,,,,,,,,,,,,,,,,,,,,,,,,,,,,,,,,,,,,
0,44,44,20,1,,61098363298108ee13a5a0df,62bbfb54e7de68c3549c517b,2022-06-29_10h14.33.360,Colour_Asymmetry_Pilot,2022.1.3,Win32,47.99155349,62bbe60bf3d75ef465d3e404,,,,,,,,,,,,,,,,,,,,,,,,,,,,,,,,,,,,,,,,,,,,,,,,,,,,,,,,,,,,,,,,,,,,,,,,,,,,,,,,,,,,,,,,,,,,,,,,,,,,,,,,,,,,,,,,,,,,,,,,,,,,,,,,,,,,,,,,,,,,,,,,,,,,,,,,,,,,,,
0,45,45,34,1,,61098363298108ee13a5a0df,62bbfb54e7de68c3549c517b,2022-06-29_10h14.33.360,Colour_Asymmetry_Pilot,2022.1.3,Win32,47.99155349,62bbe60bf3d75ef465d3e404,,,,,,,,,,,,,,,,,,,,,,,,,,,,,,,,,,,,,,,,,,,,,,,,,,,,,,,,,,,,,,,,,,,,,,,,,,,,,,,,,,,,,,,,,,,,,,,,,,,,,,,,,,,,,,,,,,,,,,,,,,,,,,,,,,,,,,,,,,,,,,,,,,,,,,,,,,,,,,
0,46,46,21,1,,61098363298108ee13a5a0df,62bbfb54e7de68c3549c517b,2022-06-29_10h14.33.360,Colour_Asymmetry_Pilot,2022.1.3,Win32,47.99155349,62bbe60bf3d75ef465d3e404,,,,,,,,,,,,,,,,,,,,,,,,,,,,,,,,,,,,,,,,,,,,,,,,,,,,,,,,,,,,,,,,,,,,,,,,,,,,,,,,,,,,,,,,,,,,,,,,,,,,,,,,,,,,,,,,,,,,,,,,,,,,,,,,,,,,,,,,,,,,,,,,,,,,,,,,,,,,,,
0,47,47,4,1,,61098363298108ee13a5a0df,62bbfb54e7de68c3549c517b,2022-06-29_10h14.33.360,Colour_Asymmetry_Pilot,2022.1.3,Win32,47.99155349,62bbe60bf3d75ef465d3e404,,,,,,,,,,,,,,,,,,,,,,,,,,,,,,,,,,,,,,,,,,,,,,,,,,,,,,,,,,,,,,,,,,,,,,,,,,,,,,,,,,,,,,,,,,,,,,,,,,,,,,,,,,,,,,,,,,,,,,,,,,,,,,,,,,,,,,,,,,,,,,,,,,,,,,,,,,,,,,
0,48,48,70,1,,61098363298108ee13a5a0df,62bbfb54e7de68c3549c517b,2022-06-29_10h14.33.360,Colour_Asymmetry_Pilot,2022.1.3,Win32,47.99155349,62bbe60bf3d75ef465d3e404,,,,,,,,,,,,,,,,,,,,,,,,,,,,,,,,,,,,,,,,,,,,,,,,,,,,,,,,,,,,,,,,,,,,,,,,,,,,,,,,,,,,,,,,,,,,,,,,,,,,,,,,,,,,,,,,,,,,,,,,,,,,,,,,,,,,,,,,,,,,,,,,,,,,,,,,,,,,,,
0,49,49,88,1,,61098363298108ee13a5a0df,62bbfb54e7de68c3549c517b,2022-06-29_10h14.33.360,Colour_Asymmetry_Pilot,2022.1.3,Win32,47.99155349,62bbe60bf3d75ef465d3e404,,,,,,,,,,,,,,,,,,,,,,,,,,,,,,,,,,,,,,,,,,,,,,,,,,,,,,,,,,,,,,,,,,,,,,,,,,,,,,,,,,,,,,,,,,,,,,,,,,,,,,,,,,,,,,,,,,,,,,,,,,,,,,,,,,,,,,,,,,,,,,,,,,,,,,,,,,,,,,
0,50,50,25,1,,61098363298108ee13a5a0df,62bbfb54e7de68c3549c517b,2022-06-29_10h14.33.360,Colour_Asymmetry_Pilot,2022.1.3,Win32,47.99155349,62bbe60bf3d75ef465d3e404,,,,,,,,,,,,,,,,,,,,,,,,,,,,,,,,,,,,,,,,,,,,,,,,,,,,,,,,,,,,,,,,,,,,,,,,,,,,,,,,,,,,,,,,,,,,,,,,,,,,,,,,,,,,,,,,,,,,,,,,,,,,,,,,,,,,,,,,,,,,,,,,,,,,,,,,,,,,,,
0,51,51,61,1,,61098363298108ee13a5a0df,62bbfb54e7de68c3549c517b,2022-06-29_10h14.33.360,Colour_Asymmetry_Pilot,2022.1.3,Win32,47.99155349,62bbe60bf3d75ef465d3e404,,,,,,,,,,,,,,,,,,,,,,,,,,,,,,,,,,,,,,,,,,,,,,,,,,,,,,,,,,,,,,,,,,,,,,,,,,,,,,,,,,,,,,,,,,,,,,,,,,,,,,,,,,,,,,,,,,,,,,,,,,,,,,,,,,,,,,,,,,,,,,,,,,,,,,,,,,,,,,
0,52,52,76,1,,61098363298108ee13a5a0df,62bbfb54e7de68c3549c517b,2022-06-29_10h14.33.360,Colour_Asymmetry_Pilot,2022.1.3,Win32,47.99155349,62bbe60bf3d75ef465d3e404,,,,,,,,,,,,,,,,,,,,,,,,,,,,,,,,,,,,,,,,,,,,,,,,,,,,,,,,,,,,,,,,,,,,,,,,,,,,,,,,,,,,,,,,,,,,,,,,,,,,,,,,,,,,,,,,,,,,,,,,,,,,,,,,,,,,,,,,,,,,,,,,,,,,,,,,,,,,,,
0,53,53,15,1,,61098363298108ee13a5a0df,62bbfb54e7de68c3549c517b,2022-06-29_10h14.33.360,Colour_Asymmetry_Pilot,2022.1.3,Win32,47.99155349,62bbe60bf3d75ef465d3e404,,,,,,,,,,,,,,,,,,,,,,,,,,,,,,,,,,,,,,,,,,,,,,,,,,,,,,,,,,,,,,,,,,,,,,,,,,,,,,,,,,,,,,,,,,,,,,,,,,,,,,,,,,,,,,,,,,,,,,,,,,,,,,,,,,,,,,,,,,,,,,,,,,,,,,,,,,,,,,
0,54,54,90,1,,61098363298108ee13a5a0df,62bbfb54e7de68c3549c517b,2022-06-29_10h14.33.360,Colour_Asymmetry_Pilot,2022.1.3,Win32,47.99155349,62bbe60bf3d75ef465d3e404,,,,,,,,,,,,,,,,,,,,,,,,,,,,,,,,,,,,,,,,,,,,,,,,,,,,,,,,,,,,,,,,,,,,,,,,,,,,,,,,,,,,,,,,,,,,,,,,,,,,,,,,,,,,,,,,,,,,,,,,,,,,,,,,,,,,,,,,,,,,,,,,,,,,,,,,,,,,,,
0,55,55,31,1,,61098363298108ee13a5a0df,62bbfb54e7de68c3549c517b,2022-06-29_10h14.33.360,Colour_Asymmetry_Pilot,2022.1.3,Win32,47.99155349,62bbe60bf3d75ef465d3e404,,,,,,,,,,,,,,,,,,,,,,,,,,,,,,,,,,,,,,,,,,,,,,,,,,,,,,,,,,,,,,,,,,,,,,,,,,,,,,,,,,,,,,,,,,,,,,,,,,,,,,,,,,,,,,,,,,,,,,,,,,,,,,,,,,,,,,,,,,,,,,,,,,,,,,,,,,,,,,
0,56,56,6,1,,61098363298108ee13a5a0df,62bbfb54e7de68c3549c517b,2022-06-29_10h14.33.360,Colour_Asymmetry_Pilot,2022.1.3,Win32,47.99155349,62bbe60bf3d75ef465d3e404,,,,,,,,,,,,,,,,,,,,,,,,,,,,,,,,,,,,,,,,,,,,,,,,,,,,,,,,,,,,,,,,,,,,,,,,,,,,,,,,,,,,,,,,,,,,,,,,,,,,,,,,,,,,,,,,,,,,,,,,,,,,,,,,,,,,,,,,,,,,,,,,,,,,,,,,,,,,,,
0,57,57,50,1,,61098363298108ee13a5a0df,62bbfb54e7de68c3549c517b,2022-06-29_10h14.33.360,Colour_Asymmetry_Pilot,2022.1.3,Win32,47.99155349,62bbe60bf3d75ef465d3e404,,,,,,,,,,,,,,,,,,,,,,,,,,,,,,,,,,,,,,,,,,,,,,,,,,,,,,,,,,,,,,,,,,,,,,,,,,,,,,,,,,,,,,,,,,,,,,,,,,,,,,,,,,,,,,,,,,,,,,,,,,,,,,,,,,,,,,,,,,,,,,,,,,,,,,,,,,,,,,
0,58,58,77,1,,61098363298108ee13a5a0df,62bbfb54e7de68c3549c517b,2022-06-29_10h14.33.360,Colour_Asymmetry_Pilot,2022.1.3,Win32,47.99155349,62bbe60bf3d75ef465d3e404,,,,,,,,,,,,,,,,,,,,,,,,,,,,,,,,,,,,,,,,,,,,,,,,,,,,,,,,,,,,,,,,,,,,,,,,,,,,,,,,,,,,,,,,,,,,,,,,,,,,,,,,,,,,,,,,,,,,,,,,,,,,,,,,,,,,,,,,,,,,,,,,,,,,,,,,,,,,,,
0,59,59,48,1,,61098363298108ee13a5a0df,62bbfb54e7de68c3549c517b,2022-06-29_10h14.33.360,Colour_Asymmetry_Pilot,2022.1.3,Win32,47.99155349,62bbe60bf3d75ef465d3e404,,,,,,,,,,,,,,,,,,,,,,,,,,,,,,,,,,,,,,,,,,,,,,,,,,,,,,,,,,,,,,,,,,,,,,,,,,,,,,,,,,,,,,,,,,,,,,,,,,,,,,,,,,,,,,,,,,,,,,,,,,,,,,,,,,,,,,,,,,,,,,,,,,,,,,,,,,,,,,
0,60,60,23,1,,61098363298108ee13a5a0df,62bbfb54e7de68c3549c517b,2022-06-29_10h14.33.360,Colour_Asymmetry_Pilot,2022.1.3,Win32,47.99155349,62bbe60bf3d75ef465d3e404,,,,,,,,,,,,,,,,,,,,,,,,,,,,,,,,,,,,,,,,,,,,,,,,,,,,,,,,,,,,,,,,,,,,,,,,,,,,,,,,,,,,,,,,,,,,,,,,,,,,,,,,,,,,,,,,,,,,,,,,,,,,,,,,,,,,,,,,,,,,,,,,,,,,,,,,,,,,,,
0,61,61,40,1,,61098363298108ee13a5a0df,62bbfb54e7de68c3549c517b,2022-06-29_10h14.33.360,Colour_Asymmetry_Pilot,2022.1.3,Win32,47.99155349,62bbe60bf3d75ef465d3e404,,,,,,,,,,,,,,,,,,,,,,,,,,,,,,,,,,,,,,,,,,,,,,,,,,,,,,,,,,,,,,,,,,,,,,,,,,,,,,,,,,,,,,,,,,,,,,,,,,,,,,,,,,,,,,,,,,,,,,,,,,,,,,,,,,,,,,,,,,,,,,,,,,,,,,,,,,,,,,
0,62,62,65,1,,61098363298108ee13a5a0df,62bbfb54e7de68c3549c517b,2022-06-29_10h14.33.360,Colour_Asymmetry_Pilot,2022.1.3,Win32,47.99155349,62bbe60bf3d75ef465d3e404,,,,,,,,,,,,,,,,,,,,,,,,,,,,,,,,,,,,,,,,,,,,,,,,,,,,,,,,,,,,,,,,,,,,,,,,,,,,,,,,,,,,,,,,,,,,,,,,,,,,,,,,,,,,,,,,,,,,,,,,,,,,,,,,,,,,,,,,,,,,,,,,,,,,,,,,,,,,,,
0,63,63,0,1,,61098363298108ee13a5a0df,62bbfb54e7de68c3549c517b,2022-06-29_10h14.33.360,Colour_Asymmetry_Pilot,2022.1.3,Win32,47.99155349,62bbe60bf3d75ef465d3e404,,,,,,,,,,,,,,,,,,,,,,,,,,,,,,,,,,,,,,,,,,,,,,,,,,,,,,,,,,,,,,,,,,,,,,,,,,,,,,,,,,,,,,,,,,,,,,,,,,,,,,,,,,,,,,,,,,,,,,,,,,,,,,,,,,,,,,,,,,,,,,,,,,,,,,,,,,,,,,
0,64,64,29,1,,61098363298108ee13a5a0df,62bbfb54e7de68c3549c517b,2022-06-29_10h14.33.360,Colour_Asymmetry_Pilot,2022.1.3,Win32,47.99155349,62bbe60bf3d75ef465d3e404,,,,,,,,,,,,,,,,,,,,,,,,,,,,,,,,,,,,,,,,,,,,,,,,,,,,,,,,,,,,,,,,,,,,,,,,,,,,,,,,,,,,,,,,,,,,,,,,,,,,,,,,,,,,,,,,,,,,,,,,,,,,,,,,,,,,,,,,,,,,,,,,,,,,,,,,,,,,,,
0,65,65,36,1,,61098363298108ee13a5a0df,62bbfb54e7de68c3549c517b,2022-06-29_10h14.33.360,Colour_Asymmetry_Pilot,2022.1.3,Win32,47.99155349,62bbe60bf3d75ef465d3e404,,,,,,,,,,,,,,,,,,,,,,,,,,,,,,,,,,,,,,,,,,,,,,,,,,,,,,,,,,,,,,,,,,,,,,,,,,,,,,,,,,,,,,,,,,,,,,,,,,,,,,,,,,,,,,,,,,,,,,,,,,,,,,,,,,,,,,,,,,,,,,,,,,,,,,,,,,,,,,
0,66,66,45,1,,61098363298108ee13a5a0df,62bbfb54e7de68c3549c517b,2022-06-29_10h14.33.360,Colour_Asymmetry_Pilot,2022.1.3,Win32,47.99155349,62bbe60bf3d75ef465d3e404,,,,,,,,,,,,,,,,,,,,,,,,,,,,,,,,,,,,,,,,,,,,,,,,,,,,,,,,,,,,,,,,,,,,,,,,,,,,,,,,,,,,,,,,,,,,,,,,,,,,,,,,,,,,,,,,,,,,,,,,,,,,,,,,,,,,,,,,,,,,,,,,,,,,,,,,,,,,,,
0,67,67,11,1,,61098363298108ee13a5a0df,62bbfb54e7de68c3549c517b,2022-06-29_10h14.33.360,Colour_Asymmetry_Pilot,2022.1.3,Win32,47.99155349,62bbe60bf3d75ef465d3e404,,,,,,,,,,,,,,,,,,,,,,,,,,,,,,,,,,,,,,,,,,,,,,,,,,,,,,,,,,,,,,,,,,,,,,,,,,,,,,,,,,,,,,,,,,,,,,,,,,,,,,,,,,,,,,,,,,,,,,,,,,,,,,,,,,,,,,,,,,,,,,,,,,,,,,,,,,,,,,
0,68,68,71,1,,61098363298108ee13a5a0df,62bbfb54e7de68c3549c517b,2022-06-29_10h14.33.360,Colour_Asymmetry_Pilot,2022.1.3,Win32,47.99155349,62bbe60bf3d75ef465d3e404,,,,,,,,,,,,,,,,,,,,,,,,,,,,,,,,,,,,,,,,,,,,,,,,,,,,,,,,,,,,,,,,,,,,,,,,,,,,,,,,,,,,,,,,,,,,,,,,,,,,,,,,,,,,,,,,,,,,,,,,,,,,,,,,,,,,,,,,,,,,,,,,,,,,,,,,,,,,,,
0,69,69,19,1,,61098363298108ee13a5a0df,62bbfb54e7de68c3549c517b,2022-06-29_10h14.33.360,Colour_Asymmetry_Pilot,2022.1.3,Win32,47.99155349,62bbe60bf3d75ef465d3e404,,,,,,,,,,,,,,,,,,,,,,,,,,,,,,,,,,,,,,,,,,,,,,,,,,,,,,,,,,,,,,,,,,,,,,,,,,,,,,,,,,,,,,,,,,,,,,,,,,,,,,,,,,,,,,,,,,,,,,,,,,,,,,,,,,,,,,,,,,,,,,,,,,,,,,,,,,,,,,
0,70,70,39,1,,61098363298108ee13a5a0df,62bbfb54e7de68c3549c517b,2022-06-29_10h14.33.360,Colour_Asymmetry_Pilot,2022.1.3,Win32,47.99155349,62bbe60bf3d75ef465d3e404,,,,,,,,,,,,,,,,,,,,,,,,,,,,,,,,,,,,,,,,,,,,,,,,,,,,,,,,,,,,,,,,,,,,,,,,,,,,,,,,,,,,,,,,,,,,,,,,,,,,,,,,,,,,,,,,,,,,,,,,,,,,,,,,,,,,,,,,,,,,,,,,,,,,,,,,,,,,,,
0,71,71,56,1,,61098363298108ee13a5a0df,62bbfb54e7de68c3549c517b,2022-06-29_10h14.33.360,Colour_Asymmetry_Pilot,2022.1.3,Win32,47.99155349,62bbe60bf3d75ef465d3e404,,,,,,,,,,,,,,,,,,,,,,,,,,,,,,,,,,,,,,,,,,,,,,,,,,,,,,,,,,,,,,,,,,,,,,,,,,,,,,,,,,,,,,,,,,,,,,,,,,,,,,,,,,,,,,,,,,,,,,,,,,,,,,,,,,,,,,,,,,,,,,,,,,,,,,,,,,,,,,
0,72,72,12,1,,61098363298108ee13a5a0df,62bbfb54e7de68c3549c517b,2022-06-29_10h14.33.360,Colour_Asymmetry_Pilot,2022.1.3,Win32,47.99155349,62bbe60bf3d75ef465d3e404,,,,,,,,,,,,,,,,,,,,,,,,,,,,,,,,,,,,,,,,,,,,,,,,,,,,,,,,,,,,,,,,,,,,,,,,,,,,,,,,,,,,,,,,,,,,,,,,,,,,,,,,,,,,,,,,,,,,,,,,,,,,,,,,,,,,,,,,,,,,,,,,,,,,,,,,,,,,,,
0,73,73,42,1,,61098363298108ee13a5a0df,62bbfb54e7de68c3549c517b,2022-06-29_10h14.33.360,Colour_Asymmetry_Pilot,2022.1.3,Win32,47.99155349,62bbe60bf3d75ef465d3e404,,,,,,,,,,,,,,,,,,,,,,,,,,,,,,,,,,,,,,,,,,,,,,,,,,,,,,,,,,,,,,,,,,,,,,,,,,,,,,,,,,,,,,,,,,,,,,,,,,,,,,,,,,,,,,,,,,,,,,,,,,,,,,,,,,,,,,,,,,,,,,,,,,,,,,,,,,,,,,
0,74,74,68,1,,61098363298108ee13a5a0df,62bbfb54e7de68c3549c517b,2022-06-29_10h14.33.360,Colour_Asymmetry_Pilot,2022.1.3,Win32,47.99155349,62bbe60bf3d75ef465d3e404,,,,,,,,,,,,,,,,,,,,,,,,,,,,,,,,,,,,,,,,,,,,,,,,,,,,,,,,,,,,,,,,,,,,,,,,,,,,,,,,,,,,,,,,,,,,,,,,,,,,,,,,,,,,,,,,,,,,,,,,,,,,,,,,,,,,,,,,,,,,,,,,,,,,,,,,,,,,,,
0,75,75,22,1,,61098363298108ee13a5a0df,62bbfb54e7de68c3549c517b,2022-06-29_10h14.33.360,Colour_Asymmetry_Pilot,2022.1.3,Win32,47.99155349,62bbe60bf3d75ef465d3e404,,,,,,,,,,,,,,,,,,,,,,,,,,,,,,,,,,,,,,,,,,,,,,,,,,,,,,,,,,,,,,,,,,,,,,,,,,,,,,,,,,,,,,,,,,,,,,,,,,,,,,,,,,,,,,,,,,,,,,,,,,,,,,,,,,,,,,,,,,,,,,,,,,,,,,,,,,,,,,
0,76,76,37,1,,61098363298108ee13a5a0df,62bbfb54e7de68c3549c517b,2022-06-29_10h14.33.360,Colour_Asymmetry_Pilot,2022.1.3,Win32,47.99155349,62bbe60bf3d75ef465d3e404,,,,,,,,,,,,,,,,,,,,,,,,,,,,,,,,,,,,,,,,,,,,,,,,,,,,,,,,,,,,,,,,,,,,,,,,,,,,,,,,,,,,,,,,,,,,,,,,,,,,,,,,,,,,,,,,,,,,,,,,,,,,,,,,,,,,,,,,,,,,,,,,,,,,,,,,,,,,,,
0,77,77,18,1,,61098363298108ee13a5a0df,62bbfb54e7de68c3549c517b,2022-06-29_10h14.33.360,Colour_Asymmetry_Pilot,2022.1.3,Win32,47.99155349,62bbe60bf3d75ef465d3e404,,,,,,,,,,,,,,,,,,,,,,,,,,,,,,,,,,,,,,,,,,,,,,,,,,,,,,,,,,,,,,,,,,,,,,,,,,,,,,,,,,,,,,,,,,,,,,,,,,,,,,,,,,,,,,,,,,,,,,,,,,,,,,,,,,,,,,,,,,,,,,,,,,,,,,,,,,,,,,
0,78,78,87,1,,61098363298108ee13a5a0df,62bbfb54e7de68c3549c517b,2022-06-29_10h14.33.360,Colour_Asymmetry_Pilot,2022.1.3,Win32,47.99155349,62bbe60bf3d75ef465d3e404,,,,,,,,,,,,,,,,,,,,,,,,,,,,,,,,,,,,,,,,,,,,,,,,,,,,,,,,,,,,,,,,,,,,,,,,,,,,,,,,,,,,,,,,,,,,,,,,,,,,,,,,,,,,,,,,,,,,,,,,,,,,,,,,,,,,,,,,,,,,,,,,,,,,,,,,,,,,,,
0,79,79,85,1,,61098363298108ee13a5a0df,62bbfb54e7de68c3549c517b,2022-06-29_10h14.33.360,Colour_Asymmetry_Pilot,2022.1.3,Win32,47.99155349,62bbe60bf3d75ef465d3e404,,,,,,,,,,,,,,,,,,,,,,,,,,,,,,,,,,,,,,,,,,,,,,,,,,,,,,,,,,,,,,,,,,,,,,,,,,,,,,,,,,,,,,,,,,,,,,,,,,,,,,,,,,,,,,,,,,,,,,,,,,,,,,,,,,,,,,,,,,,,,,,,,,,,,,,,,,,,,,
0,80,80,13,1,,61098363298108ee13a5a0df,62bbfb54e7de68c3549c517b,2022-06-29_10h14.33.360,Colour_Asymmetry_Pilot,2022.1.3,Win32,47.99155349,62bbe60bf3d75ef465d3e404,,,,,,,,,,,,,,,,,,,,,,,,,,,,,,,,,,,,,,,,,,,,,,,,,,,,,,,,,,,,,,,,,,,,,,,,,,,,,,,,,,,,,,,,,,,,,,,,,,,,,,,,,,,,,,,,,,,,,,,,,,,,,,,,,,,,,,,,,,,,,,,,,,,,,,,,,,,,,,
0,81,81,38,1,,61098363298108ee13a5a0df,62bbfb54e7de68c3549c517b,2022-06-29_10h14.33.360,Colour_Asymmetry_Pilot,2022.1.3,Win32,47.99155349,62bbe60bf3d75ef465d3e404,,,,,,,,,,,,,,,,,,,,,,,,,,,,,,,,,,,,,,,,,,,,,,,,,,,,,,,,,,,,,,,,,,,,,,,,,,,,,,,,,,,,,,,,,,,,,,,,,,,,,,,,,,,,,,,,,,,,,,,,,,,,,,,,,,,,,,,,,,,,,,,,,,,,,,,,,,,,,,
0,82,82,49,1,,61098363298108ee13a5a0df,62bbfb54e7de68c3549c517b,2022-06-29_10h14.33.360,Colour_Asymmetry_Pilot,2022.1.3,Win32,47.99155349,62bbe60bf3d75ef465d3e404,,,,,,,,,,,,,,,,,,,,,,,,,,,,,,,,,,,,,,,,,,,,,,,,,,,,,,,,,,,,,,,,,,,,,,,,,,,,,,,,,,,,,,,,,,,,,,,,,,,,,,,,,,,,,,,,,,,,,,,,,,,,,,,,,,,,,,,,,,,,,,,,,,,,,,,,,,,,,,
0,83,83,27,1,,61098363298108ee13a5a0df,62bbfb54e7de68c3549c517b,2022-06-29_10h14.33.360,Colour_Asymmetry_Pilot,2022.1.3,Win32,47.99155349,62bbe60bf3d75ef465d3e404,,,,,,,,,,,,,,,,,,,,,,,,,,,,,,,,,,,,,,,,,,,,,,,,,,,,,,,,,,,,,,,,,,,,,,,,,,,,,,,,,,,,,,,,,,,,,,,,,,,,,,,,,,,,,,,,,,,,,,,,,,,,,,,,,,,,,,,,,,,,,,,,,,,,,,,,,,,,,,
0,84,84,82,1,,61098363298108ee13a5a0df,62bbfb54e7de68c3549c517b,2022-06-29_10h14.33.360,Colour_Asymmetry_Pilot,2022.1.3,Win32,47.99155349,62bbe60bf3d75ef465d3e404,,,,,,,,,,,,,,,,,,,,,,,,,,,,,,,,,,,,,,,,,,,,,,,,,,,,,,,,,,,,,,,,,,,,,,,,,,,,,,,,,,,,,,,,,,,,,,,,,,,,,,,,,,,,,,,,,,,,,,,,,,,,,,,,,,,,,,,,,,,,,,,,,,,,,,,,,,,,,,
0,85,85,7,1,,61098363298108ee13a5a0df,62bbfb54e7de68c3549c517b,2022-06-29_10h14.33.360,Colour_Asymmetry_Pilot,2022.1.3,Win32,47.99155349,62bbe60bf3d75ef465d3e404,,,,,,,,,,,,,,,,,,,,,,,,,,,,,,,,,,,,,,,,,,,,,,,,,,,,,,,,,,,,,,,,,,,,,,,,,,,,,,,,,,,,,,,,,,,,,,,,,,,,,,,,,,,,,,,,,,,,,,,,,,,,,,,,,,,,,,,,,,,,,,,,,,,,,,,,,,,,,,
0,86,86,46,1,,61098363298108ee13a5a0df,62bbfb54e7de68c3549c517b,2022-06-29_10h14.33.360,Colour_Asymmetry_Pilot,2022.1.3,Win32,47.99155349,62bbe60bf3d75ef465d3e404,,,,,,,,,,,,,,,,,,,,,,,,,,,,,,,,,,,,,,,,,,,,,,,,,,,,,,,,,,,,,,,,,,,,,,,,,,,,,,,,,,,,,,,,,,,,,,,,,,,,,,,,,,,,,,,,,,,,,,,,,,,,,,,,,,,,,,,,,,,,,,,,,,,,,,,,,,,,,,
0,87,87,16,1,,61098363298108ee13a5a0df,62bbfb54e7de68c3549c517b,2022-06-29_10h14.33.360,Colour_Asymmetry_Pilot,2022.1.3,Win32,47.99155349,62bbe60bf3d75ef465d3e404,,,,,,,,,,,,,,,,,,,,,,,,,,,,,,,,,,,,,,,,,,,,,,,,,,,,,,,,,,,,,,,,,,,,,,,,,,,,,,,,,,,,,,,,,,,,,,,,,,,,,,,,,,,,,,,,,,,,,,,,,,,,,,,,,,,,,,,,,,,,,,,,,,,,,,,,,,,,,,
0,88,88,57,1,,61098363298108ee13a5a0df,62bbfb54e7de68c3549c517b,2022-06-29_10h14.33.360,Colour_Asymmetry_Pilot,2022.1.3,Win32,47.99155349,62bbe60bf3d75ef465d3e404,,,,,,,,,,,,,,,,,,,,,,,,,,,,,,,,,,,,,,,,,,,,,,,,,,,,,,,,,,,,,,,,,,,,,,,,,,,,,,,,,,,,,,,,,,,,,,,,,,,,,,,,,,,,,,,,,,,,,,,,,,,,,,,,,,,,,,,,,,,,,,,,,,,,,,,,,,,,,,
0,89,89,59,1,,61098363298108ee13a5a0df,62bbfb54e7de68c3549c517b,2022-06-29_10h14.33.360,Colour_Asymmetry_Pilot,2022.1.3,Win32,47.99155349,62bbe60bf3d75ef465d3e404,,,,,,,,,,,,,,,,,,,,,,,,,,,,,,,,,,,,,,,,,,,,,,,,,,,,,,,,,,,,,,,,,,,,,,,,,,,,,,,,,,,,,,,,,,,,,,,,,,,,,,,,,,,,,,,,,,,,,,,,,,,,,,,,,,,,,,,,,,,,,,,,,,,,,,,,,,,,,,
0,90,90,52,1,,61098363298108ee13a5a0df,62bbfb54e7de68c3549c517b,2022-06-29_10h14.33.360,Colour_Asymmetry_Pilot,2022.1.3,Win32,47.99155349,62bbe60bf3d75ef465d3e404,,,,,,,,,,,,,,,,,,,,,,,,,,,,,,,,,,,,,,,,,,,,,,,,,,,,,,,,,,,,,,,,,,,,,,,,,,,,,,,,,,,,,,,,,,,,,,,,,,,,,,,,,,,,,,,,,,,,,,,,,,,,,,,,,,,,,,,,,,,,,,,,,,,,,,,,,,,,,,
0,91,91,91,1,,61098363298108ee13a5a0df,62bbfb54e7de68c3549c517b,2022-06-29_10h14.33.360,Colour_Asymmetry_Pilot,2022.1.3,Win32,47.99155349,62bbe60bf3d75ef465d3e404,,,,,,,,,,,,,,,,,,,,,,,,,,,,,,,,,,,,,,,,,,,,,,,,,,,,,,,,,,,,,,,,,,,,,,,,,,,,,,,,,,,,,,,,,,,,,,,,,,,,,,,,,,,,,,,,,,,,,,,,,,,,,,,,,,,,,,,,,,,,,,,,,,,,,,,,,,,,,,
0,92,92,60,1,,61098363298108ee13a5a0df,62bbfb54e7de68c3549c517b,2022-06-29_10h14.33.360,Colour_Asymmetry_Pilot,2022.1.3,Win32,47.99155349,62bbe60bf3d75ef465d3e404,,,,,,,,,,,,,,,,,,,,,,,,,,,,,,,,,,,,,,,,,,,,,,,,,,,,,,,,,,,,,,,,,,,,,,,,,,,,,,,,,,,,,,,,,,,,,,,,,,,,,,,,,,,,,,,,,,,,,,,,,,,,,,,,,,,,,,,,,,,,,,,,,,,,,,,,,,,,,,
,,,,,,61098363298108ee13a5a0df,62bbfb54e7de68c3549c517b,2022-06-29_10h14.33.360,Colour_Asymmetry_Pilot,2022.1.3,Win32,47.99155349,62bbe60bf3d75ef465d3e404,0,0,0,107,1,twofour,,,,,,,,,,,,,,,,,,,,,,,,,,,,,,,,,,,,,,,,,,,,,,,,,,,,,,,,,,,,,,,,,,,,,,,,,,,,,,,,,,,,,,,,,,,,,,,,,,,,,,,,,,,,,,,,,,,,,,,,,,,,,,,,,,,,,,,,,,,,,,,,,,,,,,,,
,,,,,,61098363298108ee13a5a0df,62bbfb54e7de68c3549c517b,2022-06-29_10h14.33.360,Colour_Asymmetry_Pilot,2022.1.3,Win32,47.99155349,62bbe60bf3d75ef465d3e404,0,1,1,12,1,threeone,,,,,,,,,,,,,,,,,,,,,,,,,,,,,,,,,,,,,,,,,,,,,,,,,,,,,,,,,,,,,,,,,,,,,,,,,,,,,,,,,,,,,,,,,,,,,,,,,,,,,,,,,,,,,,,,,,,,,,,,,,,,,,,,,,,,,,,,,,,,,,,,,,,,,,,,
,,,,,,61098363298108ee13a5a0df,62bbfb54e7de68c3549c517b,2022-06-29_10h14.33.360,Colour_Asymmetry_Pilot,2022.1.3,Win32,47.99155349,62bbe60bf3d75ef465d3e404,0,2,2,18,1,twoone,,,,,,,,,,,,,,,,,,,,,,,,,,,,,,,,,,,,,,,,,,,,,,,,,,,,,,,,,,,,,,,,,,,,,,,,,,,,,,,,,,,,,,,,,,,,,,,,,,,,,,,,,,,,,,,,,,,,,,,,,,,,,,,,,,,,,,,,,,,,,,,,,,,,,,,,
,,,,,,61098363298108ee13a5a0df,62bbfb54e7de68c3549c517b,2022-06-29_10h14.33.360,Colour_Asymmetry_Pilot,2022.1.3,Win32,47.99155349,62bbe60bf3d75ef465d3e404,0,3,3,23,1,fourthree,,,,,,,,,,,,,,,,,,,,,,,,,,,,,,,,,,,,,,,,,,,,,,,,,,,,,,,,,,,,,,,,,,,,,,,,,,,,,,,,,,,,,,,,,,,,,,,,,,,,,,,,,,,,,,,,,,,,,,,,,,,,,,,,,,,,,,,,,,,,,,,,,,,,,,,,
,,,,,,61098363298108ee13a5a0df,62bbfb54e7de68c3549c517b,2022-06-29_10h14.33.360,Colour_Asymmetry_Pilot,2022.1.3,Win32,47.99155349,62bbe60bf3d75ef465d3e404,0,4,4,117,1,threefour,,,,,,,,,,,,,,,,,,,,,,,,,,,,,,,,,,,,,,,,,,,,,,,,,,,,,,,,,,,,,,,,,,,,,,,,,,,,,,,,,,,,,,,,,,,,,,,,,,,,,,,,,,,,,,,,,,,,,,,,,,,,,,,,,,,,,,,,,,,,,,,,,,,,,,,,
,,,,,,61098363298108ee13a5a0df,62bbfb54e7de68c3549c517b,2022-06-29_10h14.33.360,Colour_Asymmetry_Pilot,2022.1.3,Win32,47.99155349,62bbe60bf3d75ef465d3e404,0,5,5,19,1,twofour,,,,,,,,,,,,,,,,,,,,,,,,,,,,,,,,,,,,,,,,,,,,,,,,,,,,,,,,,,,,,,,,,,,,,,,,,,,,,,,,,,,,,,,,,,,,,,,,,,,,,,,,,,,,,,,,,,,,,,,,,,,,,,,,,,,,,,,,,,,,,,,,,,,,,,,,
,,,,,,61098363298108ee13a5a0df,62bbfb54e7de68c3549c517b,2022-06-29_10h14.33.360,Colour_Asymmetry_Pilot,2022.1.3,Win32,47.99155349,62bbe60bf3d75ef465d3e404,0,6,6,153,1,onethree,,,,,,,,,,,,,,,,,,,,,,,,,,,,,,,,,,,,,,,,,,,,,,,,,,,,,,,,,,,,,,,,,,,,,,,,,,,,,,,,,,,,,,,,,,,,,,,,,,,,,,,,,,,,,,,,,,,,,,,,,,,,,,,,,,,,,,,,,,,,,,,,,,,,,,,,
,,,,,,61098363298108ee13a5a0df,62bbfb54e7de68c3549c517b,2022-06-29_10h14.33.360,Colour_Asymmetry_Pilot,2022.1.3,Win32,47.99155349,62bbe60bf3d75ef465d3e404,0,7,7,67,1,twofour,,,,,,,,,,,,,,,,,,,,,,,,,,,,,,,,,,,,,,,,,,,,,,,,,,,,,,,,,,,,,,,,,,,,,,,,,,,,,,,,,,,,,,,,,,,,,,,,,,,,,,,,,,,,,,,,,,,,,,,,,,,,,,,,,,,,,,,,,,,,,,,,,,,,,,,,
,,,,,,61098363298108ee13a5a0df,62bbfb54e7de68c3549c517b,2022-06-29_10h14.33.360,Colour_Asymmetry_Pilot,2022.1.3,Win32,47.99155349,62bbe60bf3d75ef465d3e404,0,8,8,128,1,onetwo,,,,,,,,,,,,,,,,,,,,,,,,,,,,,,,,,,,,,,,,,,,,,,,,,,,,,,,,,,,,,,,,,,,,,,,,,,,,,,,,,,,,,,,,,,,,,,,,,,,,,,,,,,,,,,,,,,,,,,,,,,,,,,,,,,,,,,,,,,,,,,,,,,,,,,,,
,,,,,,61098363298108ee13a5a0df,62bbfb54e7de68c3549c517b,2022-06-29_10h14.33.360,Colour_Asymmetry_Pilot,2022.1.3,Win32,47.99155349,62bbe60bf3d75ef465d3e404,0,9,9,35,1,twofour,,,,,,,,,,,,,,,,,,,,,,,,,,,,,,,,,,,,,,,,,,,,,,,,,,,,,,,,,,,,,,,,,,,,,,,,,,,,,,,,,,,,,,,,,,,,,,,,,,,,,,,,,,,,,,,,,,,,,,,,,,,,,,,,,,,,,,,,,,,,,,,,,,,,,,,,
,,,,,,61098363298108ee13a5a0df,62bbfb54e7de68c3549c517b,2022-06-29_10h14.33.360,Colour_Asymmetry_Pilot,2022.1.3,Win32,47.99155349,62bbe60bf3d75ef465d3e404,0,10,10,98,1,twoone,,,,,,,,,,,,,,,,,,,,,,,,,,,,,,,,,,,,,,,,,,,,,,,,,,,,,,,,,,,,,,,,,,,,,,,,,,,,,,,,,,,,,,,,,,,,,,,,,,,,,,,,,,,,,,,,,,,,,,,,,,,,,,,,,,,,,,,,,,,,,,,,,,,,,,,,
,,,,,,61098363298108ee13a5a0df,62bbfb54e7de68c3549c517b,2022-06-29_10h14.33.360,Colour_Asymmetry_Pilot,2022.1.3,Win32,47.99155349,62bbe60bf3d75ef465d3e404,0,11,11,11,1,twofour,,,,,,,,,,,,,,,,,,,,,,,,,,,,,,,,,,,,,,,,,,,,,,,,,,,,,,,,,,,,,,,,,,,,,,,,,,,,,,,,,,,,,,,,,,,,,,,,,,,,,,,,,,,,,,,,,,,,,,,,,,,,,,,,,,,,,,,,,,,,,,,,,,,,,,,,
,,,,,,61098363298108ee13a5a0df,62bbfb54e7de68c3549c517b,2022-06-29_10h14.33.360,Colour_Asymmetry_Pilot,2022.1.3,Win32,47.99155349,62bbe60bf3d75ef465d3e404,0,12,12,122,1,twoone,,,,,,,,,,,,,,,,,,,,,,,,,,,,,,,,,,,,,,,,,,,,,,,,,,,,,,,,,,,,,,,,,,,,,,,,,,,,,,,,,,,,,,,,,,,,,,,,,,,,,,,,,,,,,,,,,,,,,,,,,,,,,,,,,,,,,,,,,,,,,,,,,,,,,,,,
,,,,,,61098363298108ee13a5a0df,62bbfb54e7de68c3549c517b,2022-06-29_10h14.33.360,Colour_Asymmetry_Pilot,2022.1.3,Win32,47.99155349,62bbe60bf3d75ef465d3e404,0,13,13,89,1,onethree,,,,,,,,,,,,,,,,,,,,,,,,,,,,,,,,,,,,,,,,,,,,,,,,,,,,,,,,,,,,,,,,,,,,,,,,,,,,,,,,,,,,,,,,,,,,,,,,,,,,,,,,,,,,,,,,,,,,,,,,,,,,,,,,,,,,,,,,,,,,,,,,,,,,,,,,
,,,,,,61098363298108ee13a5a0df,62bbfb54e7de68c3549c517b,2022-06-29_10h14.33.360,Colour_Asymmetry_Pilot,2022.1.3,Win32,47.99155349,62bbe60bf3d75ef465d3e404,0,14,14,22,1,fourtwo,,,,,,,,,,,,,,,,,,,,,,,,,,,,,,,,,,,,,,,,,,,,,,,,,,,,,,,,,,,,,,,,,,,,,,,,,,,,,,,,,,,,,,,,,,,,,,,,,,,,,,,,,,,,,,,,,,,,,,,,,,,,,,,,,,,,,,,,,,,,,,,,,,,,,,,,
,,,,,,61098363298108ee13a5a0df,62bbfb54e7de68c3549c517b,2022-06-29_10h14.33.360,Colour_Asymmetry_Pilot,2022.1.3,Win32,47.99155349,62bbe60bf3d75ef465d3e404,0,15,15,49,1,onethree,,,,,,,,,,,,,,,,,,,,,,,,,,,,,,,,,,,,,,,,,,,,,,,,,,,,,,,,,,,,,,,,,,,,,,,,,,,,,,,,,,,,,,,,,,,,,,,,,,,,,,,,,,,,,,,,,,,,,,,,,,,,,,,,,,,,,,,,,,,,,,,,,,,,,,,,
,,,,,,61098363298108ee13a5a0df,62bbfb54e7de68c3549c517b,2022-06-29_10h14.33.360,Colour_Asymmetry_Pilot,2022.1.3,Win32,47.99155349,62bbe60bf3d75ef465d3e404,0,16,16,84,1,threeone,,,,,,,,,,,,,,,,,,,,,,,,,,,,,,,,,,,,,,,,,,,,,,,,,,,,,,,,,,,,,,,,,,,,,,,,,,,,,,,,,,,,,,,,,,,,,,,,,,,,,,,,,,,,,,,,,,,,,,,,,,,,,,,,,,,,,,,,,,,,,,,,,,,,,,,,
,,,,,,61098363298108ee13a5a0df,62bbfb54e7de68c3549c517b,2022-06-29_10h14.33.360,Colour_Asymmetry_Pilot,2022.1.3,Win32,47.99155349,62bbe60bf3d75ef465d3e404,0,17,17,145,1,onethree,,,,,,,,,,,,,,,,,,,,,,,,,,,,,,,,,,,,,,,,,,,,,,,,,,,,,,,,,,,,,,,,,,,,,,,,,,,,,,,,,,,,,,,,,,,,,,,,,,,,,,,,,,,,,,,,,,,,,,,,,,,,,,,,,,,,,,,,,,,,,,,,,,,,,,,,
,,,,,,61098363298108ee13a5a0df,62bbfb54e7de68c3549c517b,2022-06-29_10h14.33.360,Colour_Asymmetry_Pilot,2022.1.3,Win32,47.99155349,62bbe60bf3d75ef465d3e404,0,18,18,111,1,fourthree,,,,,,,,,,,,,,,,,,,,,,,,,,,,,,,,,,,,,,,,,,,,,,,,,,,,,,,,,,,,,,,,,,,,,,,,,,,,,,,,,,,,,,,,,,,,,,,,,,,,,,,,,,,,,,,,,,,,,,,,,,,,,,,,,,,,,,,,,,,,,,,,,,,,,,,,
,,,,,,61098363298108ee13a5a0df,62bbfb54e7de68c3549c517b,2022-06-29_10h14.33.360,Colour_Asymmetry_Pilot,2022.1.3,Win32,47.99155349,62bbe60bf3d75ef465d3e404,0,19,19,36,1,threeone,,,,,,,,,,,,,,,,,,,,,,,,,,,,,,,,,,,,,,,,,,,,,,,,,,,,,,,,,,,,,,,,,,,,,,,,,,,,,,,,,,,,,,,,,,,,,,,,,,,,,,,,,,,,,,,,,,,,,,,,,,,,,,,,,,,,,,,,,,,,,,,,,,,,,,,,
,,,,,,61098363298108ee13a5a0df,62bbfb54e7de68c3549c517b,2022-06-29_10h14.33.360,Colour_Asymmetry_Pilot,2022.1.3,Win32,47.99155349,62bbe60bf3d75ef465d3e404,0,20,20,99,1,twofour,,,,,,,,,,,,,,,,,,,,,,,,,,,,,,,,,,,,,,,,,,,,,,,,,,,,,,,,,,,,,,,,,,,,,,,,,,,,,,,,,,,,,,,,,,,,,,,,,,,,,,,,,,,,,,,,,,,,,,,,,,,,,,,,,,,,,,,,,,,,,,,,,,,,,,,,
,,,,,,61098363298108ee13a5a0df,62bbfb54e7de68c3549c517b,2022-06-29_10h14.33.360,Colour_Asymmetry_Pilot,2022.1.3,Win32,47.99155349,62bbe60bf3d75ef465d3e404,0,21,21,31,1,fourthree,,,,,,,,,,,,,,,,,,,,,,,,,,,,,,,,,,,,,,,,,,,,,,,,,,,,,,,,,,,,,,,,,,,,,,,,,,,,,,,,,,,,,,,,,,,,,,,,,,,,,,,,,,,,,,,,,,,,,,,,,,,,,,,,,,,,,,,,,,,,,,,,,,,,,,,,
,,,,,,61098363298108ee13a5a0df,62bbfb54e7de68c3549c517b,2022-06-29_10h14.33.360,Colour_Asymmetry_Pilot,2022.1.3,Win32,47.99155349,62bbe60bf3d75ef465d3e404,0,22,22,78,1,fourtwo,,,,,,,,,,,,,,,,,,,,,,,,,,,,,,,,,,,,,,,,,,,,,,,,,,,,,,,,,,,,,,,,,,,,,,,,,,,,,,,,,,,,,,,,,,,,,,,,,,,,,,,,,,,,,,,,,,,,,,,,,,,,,,,,,,,,,,,,,,,,,,,,,,,,,,,,
,,,,,,61098363298108ee13a5a0df,62bbfb54e7de68c3549c517b,2022-06-29_10h14.33.360,Colour_Asymmetry_Pilot,2022.1.3,Win32,47.99155349,62bbe60bf3d75ef465d3e404,0,23,23,48,1,onetwo,,,,,,,,,,,,,,,,,,,,,,,,,,,,,,,,,,,,,,,,,,,,,,,,,,,,,,,,,,,,,,,,,,,,,,,,,,,,,,,,,,,,,,,,,,,,,,,,,,,,,,,,,,,,,,,,,,,,,,,,,,,,,,,,,,,,,,,,,,,,,,,,,,,,,,,,
,,,,,,61098363298108ee13a5a0df,62bbfb54e7de68c3549c517b,2022-06-29_10h14.33.360,Colour_Asymmetry_Pilot,2022.1.3,Win32,47.99155349,62bbe60bf3d75ef465d3e404,0,24,24,17,1,onethree,,,,,,,,,,,,,,,,,,,,,,,,,,,,,,,,,,,,,,,,,,,,,,,,,,,,,,,,,,,,,,,,,,,,,,,,,,,,,,,,,,,,,,,,,,,,,,,,,,,,,,,,,,,,,,,,,,,,,,,,,,,,,,,,,,,,,,,,,,,,,,,,,,,,,,,,
,,,,,,61098363298108ee13a5a0df,62bbfb54e7de68c3549c517b,2022-06-29_10h14.33.360,Colour_Asymmetry_Pilot,2022.1.3,Win32,47.99155349,62bbe60bf3d75ef465d3e404,0,25,25,119,1,fourthree,,,,,,,,,,,,,,,,,,,,,,,,,,,,,,,,,,,,,,,,,,,,,,,,,,,,,,,,,,,,,,,,,,,,,,,,,,,,,,,,,,,,,,,,,,,,,,,,,,,,,,,,,,,,,,,,,,,,,,,,,,,,,,,,,,,,,,,,,,,,,,,,,,,,,,,,
,,,,,,61098363298108ee13a5a0df,62bbfb54e7de68c3549c517b,2022-06-29_10h14.33.360,Colour_Asymmetry_Pilot,2022.1.3,Win32,47.99155349,62bbe60bf3d75ef465d3e404,0,26,26,21,1,threefour,,,,,,,,,,,,,,,,,,,,,,,,,,,,,,,,,,,,,,,,,,,,,,,,,,,,,,,,,,,,,,,,,,,,,,,,,,,,,,,,,,,,,,,,,,,,,,,,,,,,,,,,,,,,,,,,,,,,,,,,,,,,,,,,,,,,,,,,,,,,,,,,,,,,,,,,
,,,,,,61098363298108ee13a5a0df,62bbfb54e7de68c3549c517b,2022-06-29_10h14.33.360,Colour_Asymmetry_Pilot,2022.1.3,Win32,47.99155349,62bbe60bf3d75ef465d3e404,0,27,27,150,1,fourtwo,,,,,,,,,,,,,,,,,,,,,,,,,,,,,,,,,,,,,,,,,,,,,,,,,,,,,,,,,,,,,,,,,,,,,,,,,,,,,,,,,,,,,,,,,,,,,,,,,,,,,,,,,,,,,,,,,,,,,,,,,,,,,,,,,,,,,,,,,,,,,,,,,,,,,,,,
,,,,,,61098363298108ee13a5a0df,62bbfb54e7de68c3549c517b,2022-06-29_10h14.33.360,Colour_Asymmetry_Pilot,2022.1.3,Win32,47.99155349,62bbe60bf3d75ef465d3e404,0,28,28,20,1,threeone,,,,,,,,,,,,,,,,,,,,,,,,,,,,,,,,,,,,,,,,,,,,,,,,,,,,,,,,,,,,,,,,,,,,,,,,,,,,,,,,,,,,,,,,,,,,,,,,,,,,,,,,,,,,,,,,,,,,,,,,,,,,,,,,,,,,,,,,,,,,,,,,,,,,,,,,
,,,,,,61098363298108ee13a5a0df,62bbfb54e7de68c3549c517b,2022-06-29_10h14.33.360,Colour_Asymmetry_Pilot,2022.1.3,Win32,47.99155349,62bbe60bf3d75ef465d3e404,0,29,29,151,1,fourthree,,,,,,,,,,,,,,,,,,,,,,,,,,,,,,,,,,,,,,,,,,,,,,,,,,,,,,,,,,,,,,,,,,,,,,,,,,,,,,,,,,,,,,,,,,,,,,,,,,,,,,,,,,,,,,,,,,,,,,,,,,,,,,,,,,,,,,,,,,,,,,,,,,,,,,,,
,,,,,,61098363298108ee13a5a0df,62bbfb54e7de68c3549c517b,2022-06-29_10h14.33.360,Colour_Asymmetry_Pilot,2022.1.3,Win32,47.99155349,62bbe60bf3d75ef465d3e404,0,30,30,109,1,threefour,,,,,,,,,,,,,,,,,,,,,,,,,,,,,,,,,,,,,,,,,,,,,,,,,,,,,,,,,,,,,,,,,,,,,,,,,,,,,,,,,,,,,,,,,,,,,,,,,,,,,,,,,,,,,,,,,,,,,,,,,,,,,,,,,,,,,,,,,,,,,,,,,,,,,,,,
,,,,,,61098363298108ee13a5a0df,62bbfb54e7de68c3549c517b,2022-06-29_10h14.33.360,Colour_Asymmetry_Pilot,2022.1.3,Win32,47.99155349,62bbe60bf3d75ef465d3e404,0,31,31,25,1,onethree,,,,,,,,,,,,,,,,,,,,,,,,,,,,,,,,,,,,,,,,,,,,,,,,,,,,,,,,,,,,,,,,,,,,,,,,,,,,,,,,,,,,,,,,,,,,,,,,,,,,,,,,,,,,,,,,,,,,,,,,,,,,,,,,,,,,,,,,,,,,,,,,,,,,,,,,
,,,,,,61098363298108ee13a5a0df,62bbfb54e7de68c3549c517b,2022-06-29_10h14.33.360,Colour_Asymmetry_Pilot,2022.1.3,Win32,47.99155349,62bbe60bf3d75ef465d3e404,0,32,32,97,1,onethree,,,,,,,,,,,,,,,,,,,,,,,,,,,,,,,,,,,,,,,,,,,,,,,,,,,,,,,,,,,,,,,,,,,,,,,,,,,,,,,,,,,,,,,,,,,,,,,,,,,,,,,,,,,,,,,,,,,,,,,,,,,,,,,,,,,,,,,,,,,,,,,,,,,,,,,,
,,,,,,61098363298108ee13a5a0df,62bbfb54e7de68c3549c517b,2022-06-29_10h14.33.360,Colour_Asymmetry_Pilot,2022.1.3,Win32,47.99155349,62bbe60bf3d75ef465d3e404,0,33,33,124,1,threeone,,,,,,,,,,,,,,,,,,,,,,,,,,,,,,,,,,,,,,,,,,,,,,,,,,,,,,,,,,,,,,,,,,,,,,,,,,,,,,,,,,,,,,,,,,,,,,,,,,,,,,,,,,,,,,,,,,,,,,,,,,,,,,,,,,,,,,,,,,,,,,,,,,,,,,,,
,,,,,,61098363298108ee13a5a0df,62bbfb54e7de68c3549c517b,2022-06-29_10h14.33.360,Colour_Asymmetry_Pilot,2022.1.3,Win32,47.99155349,62bbe60bf3d75ef465d3e404,0,34,34,143,1,fourthree,,,,,,,,,,,,,,,,,,,,,,,,,,,,,,,,,,,,,,,,,,,,,,,,,,,,,,,,,,,,,,,,,,,,,,,,,,,,,,,,,,,,,,,,,,,,,,,,,,,,,,,,,,,,,,,,,,,,,,,,,,,,,,,,,,,,,,,,,,,,,,,,,,,,,,,,
,,,,,,61098363298108ee13a5a0df,62bbfb54e7de68c3549c517b,2022-06-29_10h14.33.360,Colour_Asymmetry_Pilot,2022.1.3,Win32,47.99155349,62bbe60bf3d75ef465d3e404,0,35,35,102,1,fourtwo,,,,,,,,,,,,,,,,,,,,,,,,,,,,,,,,,,,,,,,,,,,,,,,,,,,,,,,,,,,,,,,,,,,,,,,,,,,,,,,,,,,,,,,,,,,,,,,,,,,,,,,,,,,,,,,,,,,,,,,,,,,,,,,,,,,,,,,,,,,,,,,,,,,,,,,,
,,,,,,61098363298108ee13a5a0df,62bbfb54e7de68c3549c517b,2022-06-29_10h14.33.360,Colour_Asymmetry_Pilot,2022.1.3,Win32,47.99155349,62bbe60bf3d75ef465d3e404,0,36,36,116,1,threeone,,,,,,,,,,,,,,,,,,,,,,,,,,,,,,,,,,,,,,,,,,,,,,,,,,,,,,,,,,,,,,,,,,,,,,,,,,,,,,,,,,,,,,,,,,,,,,,,,,,,,,,,,,,,,,,,,,,,,,,,,,,,,,,,,,,,,,,,,,,,,,,,,,,,,,,,
,,,,,,61098363298108ee13a5a0df,62bbfb54e7de68c3549c517b,2022-06-29_10h14.33.360,Colour_Asymmetry_Pilot,2022.1.3,Win32,47.99155349,62bbe60bf3d75ef465d3e404,0,37,37,94,1,fourtwo,,,,,,,,,,,,,,,,,,,,,,,,,,,,,,,,,,,,,,,,,,,,,,,,,,,,,,,,,,,,,,,,,,,,,,,,,,,,,,,,,,,,,,,,,,,,,,,,,,,,,,,,,,,,,,,,,,,,,,,,,,,,,,,,,,,,,,,,,,,,,,,,,,,,,,,,
,,,,,,61098363298108ee13a5a0df,62bbfb54e7de68c3549c517b,2022-06-29_10h14.33.360,Colour_Asymmetry_Pilot,2022.1.3,Win32,47.99155349,62bbe60bf3d75ef465d3e404,0,38,38,70,1,fourtwo,,,,,,,,,,,,,,,,,,,,,,,,,,,,,,,,,,,,,,,,,,,,,,,,,,,,,,,,,,,,,,,,,,,,,,,,,,,,,,,,,,,,,,,,,,,,,,,,,,,,,,,,,,,,,,,,,,,,,,,,,,,,,,,,,,,,,,,,,,,,,,,,,,,,,,,,
,,,,,,61098363298108ee13a5a0df,62bbfb54e7de68c3549c517b,2022-06-29_10h14.33.360,Colour_Asymmetry_Pilot,2022.1.3,Win32,47.99155349,62bbe60bf3d75ef465d3e404,0,39,39,103,1,fourthree,,,,,,,,,,,,,,,,,,,,,,,,,,,,,,,,,,,,,,,,,,,,,,,,,,,,,,,,,,,,,,,,,,,,,,,,,,,,,,,,,,,,,,,,,,,,,,,,,,,,,,,,,,,,,,,,,,,,,,,,,,,,,,,,,,,,,,,,,,,,,,,,,,,,,,,,
,,,,,,61098363298108ee13a5a0df,62bbfb54e7de68c3549c517b,2022-06-29_10h14.33.360,Colour_Asymmetry_Pilot,2022.1.3,Win32,47.99155349,62bbe60bf3d75ef465d3e404,0,40,40,86,1,fourtwo,,,,,,,,,,,,,,,,,,,,,,,,,,,,,,,,,,,,,,,,,,,,,,,,,,,,,,,,,,,,,,,,,,,,,,,,,,,,,,,,,,,,,,,,,,,,,,,,,,,,,,,,,,,,,,,,,,,,,,,,,,,,,,,,,,,,,,,,,,,,,,,,,,,,,,,,
,,,,,,61098363298108ee13a5a0df,62bbfb54e7de68c3549c517b,2022-06-29_10h14.33.360,Colour_Asymmetry_Pilot,2022.1.3,Win32,47.99155349,62bbe60bf3d75ef465d3e404,0,41,41,63,1,fourthree,,,,,,,,,,,,,,,,,,,,,,,,,,,,,,,,,,,,,,,,,,,,,,,,,,,,,,,,,,,,,,,,,,,,,,,,,,,,,,,,,,,,,,,,,,,,,,,,,,,,,,,,,,,,,,,,,,,,,,,,,,,,,,,,,,,,,,,,,,,,,,,,,,,,,,,,
,,,,,,61098363298108ee13a5a0df,62bbfb54e7de68c3549c517b,2022-06-29_10h14.33.360,Colour_Asymmetry_Pilot,2022.1.3,Win32,47.99155349,62bbe60bf3d75ef465d3e404,0,42,42,42,1,twoone,,,,,,,,,,,,,,,,,,,,,,,,,,,,,,,,,,,,,,,,,,,,,,,,,,,,,,,,,,,,,,,,,,,,,,,,,,,,,,,,,,,,,,,,,,,,,,,,,,,,,,,,,,,,,,,,,,,,,,,,,,,,,,,,,,,,,,,,,,,,,,,,,,,,,,,,
,,,,,,61098363298108ee13a5a0df,62bbfb54e7de68c3549c517b,2022-06-29_10h14.33.360,Colour_Asymmetry_Pilot,2022.1.3,Win32,47.99155349,62bbe60bf3d75ef465d3e404,0,43,43,47,1,fourthree,,,,,,,,,,,,,,,,,,,,,,,,,,,,,,,,,,,,,,,,,,,,,,,,,,,,,,,,,,,,,,,,,,,,,,,,,,,,,,,,,,,,,,,,,,,,,,,,,,,,,,,,,,,,,,,,,,,,,,,,,,,,,,,,,,,,,,,,,,,,,,,,,,,,,,,,
,,,,,,61098363298108ee13a5a0df,62bbfb54e7de68c3549c517b,2022-06-29_10h14.33.360,Colour_Asymmetry_Pilot,2022.1.3,Win32,47.99155349,62bbe60bf3d75ef465d3e404,0,44,44,73,1,onethree,,,,,,,,,,,,,,,,,,,,,,,,,,,,,,,,,,,,,,,,,,,,,,,,,,,,,,,,,,,,,,,,,,,,,,,,,,,,,,,,,,,,,,,,,,,,,,,,,,,,,,,,,,,,,,,,,,,,,,,,,,,,,,,,,,,,,,,,,,,,,,,,,,,,,,,,
,,,,,,61098363298108ee13a5a0df,62bbfb54e7de68c3549c517b,2022-06-29_10h14.33.360,Colour_Asymmetry_Pilot,2022.1.3,Win32,47.99155349,62bbe60bf3d75ef465d3e404,0,45,45,76,1,threeone,,,,,,,,,,,,,,,,,,,,,,,,,,,,,,,,,,,,,,,,,,,,,,,,,,,,,,,,,,,,,,,,,,,,,,,,,,,,,,,,,,,,,,,,,,,,,,,,,,,,,,,,,,,,,,,,,,,,,,,,,,,,,,,,,,,,,,,,,,,,,,,,,,,,,,,,
,,,,,,61098363298108ee13a5a0df,62bbfb54e7de68c3549c517b,2022-06-29_10h14.33.360,Colour_Asymmetry_Pilot,2022.1.3,Win32,47.99155349,62bbe60bf3d75ef465d3e404,0,46,46,139,1,twofour,,,,,,,,,,,,,,,,,,,,,,,,,,,,,,,,,,,,,,,,,,,,,,,,,,,,,,,,,,,,,,,,,,,,,,,,,,,,,,,,,,,,,,,,,,,,,,,,,,,,,,,,,,,,,,,,,,,,,,,,,,,,,,,,,,,,,,,,,,,,,,,,,,,,,,,,
,,,,,,61098363298108ee13a5a0df,62bbfb54e7de68c3549c517b,2022-06-29_10h14.33.360,Colour_Asymmetry_Pilot,2022.1.3,Win32,47.99155349,62bbe60bf3d75ef465d3e404,0,47,47,8,1,onetwo,,,,,,,,,,,,,,,,,,,,,,,,,,,,,,,,,,,,,,,,,,,,,,,,,,,,,,,,,,,,,,,,,,,,,,,,,,,,,,,,,,,,,,,,,,,,,,,,,,,,,,,,,,,,,,,,,,,,,,,,,,,,,,,,,,,,,,,,,,,,,,,,,,,,,,,,
,,,,,,61098363298108ee13a5a0df,62bbfb54e7de68c3549c517b,2022-06-29_10h14.33.360,Colour_Asymmetry_Pilot,2022.1.3,Win32,47.99155349,62bbe60bf3d75ef465d3e404,0,48,48,77,1,threefour,,,,,,,,,,,,,,,,,,,,,,,,,,,,,,,,,,,,,,,,,,,,,,,,,,,,,,,,,,,,,,,,,,,,,,,,,,,,,,,,,,,,,,,,,,,,,,,,,,,,,,,,,,,,,,,,,,,,,,,,,,,,,,,,,,,,,,,,,,,,,,,,,,,,,,,,
,,,,,,61098363298108ee13a5a0df,62bbfb54e7de68c3549c517b,2022-06-29_10h14.33.360,Colour_Asymmetry_Pilot,2022.1.3,Win32,47.99155349,62bbe60bf3d75ef465d3e404,0,49,49,100,1,threeone,,,,,,,,,,,,,,,,,,,,,,,,,,,,,,,,,,,,,,,,,,,,,,,,,,,,,,,,,,,,,,,,,,,,,,,,,,,,,,,,,,,,,,,,,,,,,,,,,,,,,,,,,,,,,,,,,,,,,,,,,,,,,,,,,,,,,,,,,,,,,,,,,,,,,,,,
,,,,,,61098363298108ee13a5a0df,62bbfb54e7de68c3549c517b,2022-06-29_10h14.33.360,Colour_Asymmetry_Pilot,2022.1.3,Win32,47.99155349,62bbe60bf3d75ef465d3e404,0,50,50,142,1,fourtwo,,,,,,,,,,,,,,,,,,,,,,,,,,,,,,,,,,,,,,,,,,,,,,,,,,,,,,,,,,,,,,,,,,,,,,,,,,,,,,,,,,,,,,,,,,,,,,,,,,,,,,,,,,,,,,,,,,,,,,,,,,,,,,,,,,,,,,,,,,,,,,,,,,,,,,,,
,,,,,,61098363298108ee13a5a0df,62bbfb54e7de68c3549c517b,2022-06-29_10h14.33.360,Colour_Asymmetry_Pilot,2022.1.3,Win32,47.99155349,62bbe60bf3d75ef465d3e404,0,51,51,34,1,twoone,,,,,,,,,,,,,,,,,,,,,,,,,,,,,,,,,,,,,,,,,,,,,,,,,,,,,,,,,,,,,,,,,,,,,,,,,,,,,,,,,,,,,,,,,,,,,,,,,,,,,,,,,,,,,,,,,,,,,,,,,,,,,,,,,,,,,,,,,,,,,,,,,,,,,,,,
,,,,,,61098363298108ee13a5a0df,62bbfb54e7de68c3549c517b,2022-06-29_10h14.33.360,Colour_Asymmetry_Pilot,2022.1.3,Win32,47.99155349,62bbe60bf3d75ef465d3e404,0,52,52,54,1,fourtwo,,,,,,,,,,,,,,,,,,,,,,,,,,,,,,,,,,,,,,,,,,,,,,,,,,,,,,,,,,,,,,,,,,,,,,,,,,,,,,,,,,,,,,,,,,,,,,,,,,,,,,,,,,,,,,,,,,,,,,,,,,,,,,,,,,,,,,,,,,,,,,,,,,,,,,,,
,,,,,,61098363298108ee13a5a0df,62bbfb54e7de68c3549c517b,2022-06-29_10h14.33.360,Colour_Asymmetry_Pilot,2022.1.3,Win32,47.99155349,62bbe60bf3d75ef465d3e404,0,53,53,39,1,fourthree,,,,,,,,,,,,,,,,,,,,,,,,,,,,,,,,,,,,,,,,,,,,,,,,,,,,,,,,,,,,,,,,,,,,,,,,,,,,,,,,,,,,,,,,,,,,,,,,,,,,,,,,,,,,,,,,,,,,,,,,,,,,,,,,,,,,,,,,,,,,,,,,,,,,,,,,
,,,,,,61098363298108ee13a5a0df,62bbfb54e7de68c3549c517b,2022-06-29_10h14.33.360,Colour_Asymmetry_Pilot,2022.1.3,Win32,47.99155349,62bbe60bf3d75ef465d3e404,0,54,54,113,1,onethree,,,,,,,,,,,,,,,,,,,,,,,,,,,,,,,,,,,,,,,,,,,,,,,,,,,,,,,,,,,,,,,,,,,,,,,,,,,,,,,,,,,,,,,,,,,,,,,,,,,,,,,,,,,,,,,,,,,,,,,,,,,,,,,,,,,,,,,,,,,,,,,,,,,,,,,,
,,,,,,61098363298108ee13a5a0df,62bbfb54e7de68c3549c517b,2022-06-29_10h14.33.360,Colour_Asymmetry_Pilot,2022.1.3,Win32,47.99155349,62bbe60bf3d75ef465d3e404,0,55,55,37,1,threefour,,,,,,,,,,,,,,,,,,,,,,,,,,,,,,,,,,,,,,,,,,,,,,,,,,,,,,,,,,,,,,,,,,,,,,,,,,,,,,,,,,,,,,,,,,,,,,,,,,,,,,,,,,,,,,,,,,,,,,,,,,,,,,,,,,,,,,,,,,,,,,,,,,,,,,,,
,,,,,,61098363298108ee13a5a0df,62bbfb54e7de68c3549c517b,2022-06-29_10h14.33.360,Colour_Asymmetry_Pilot,2022.1.3,Win32,47.99155349,62bbe60bf3d75ef465d3e404,0,56,56,58,1,twoone,,,,,,,,,,,,,,,,,,,,,,,,,,,,,,,,,,,,,,,,,,,,,,,,,,,,,,,,,,,,,,,,,,,,,,,,,,,,,,,,,,,,,,,,,,,,,,,,,,,,,,,,,,,,,,,,,,,,,,,,,,,,,,,,,,,,,,,,,,,,,,,,,,,,,,,,
,,,,,,61098363298108ee13a5a0df,62bbfb54e7de68c3549c517b,2022-06-29_10h14.33.360,Colour_Asymmetry_Pilot,2022.1.3,Win32,47.99155349,62bbe60bf3d75ef465d3e404,0,57,57,10,1,twoone,,,,,,,,,,,,,,,,,,,,,,,,,,,,,,,,,,,,,,,,,,,,,,,,,,,,,,,,,,,,,,,,,,,,,,,,,,,,,,,,,,,,,,,,,,,,,,,,,,,,,,,,,,,,,,,,,,,,,,,,,,,,,,,,,,,,,,,,,,,,,,,,,,,,,,,,
,,,,,,61098363298108ee13a5a0df,62bbfb54e7de68c3549c517b,2022-06-29_10h14.33.360,Colour_Asymmetry_Pilot,2022.1.3,Win32,47.99155349,62bbe60bf3d75ef465d3e404,0,58,58,91,1,twofour,,,,,,,,,,,,,,,,,,,,,,,,,,,,,,,,,,,,,,,,,,,,,,,,,,,,,,,,,,,,,,,,,,,,,,,,,,,,,,,,,,,,,,,,,,,,,,,,,,,,,,,,,,,,,,,,,,,,,,,,,,,,,,,,,,,,,,,,,,,,,,,,,,,,,,,,
,,,,,,61098363298108ee13a5a0df,62bbfb54e7de68c3549c517b,2022-06-29_10h14.33.360,Colour_Asymmetry_Pilot,2022.1.3,Win32,47.99155349,62bbe60bf3d75ef465d3e404,0,59,59,44,1,threeone,,,,,,,,,,,,,,,,,,,,,,,,,,,,,,,,,,,,,,,,,,,,,,,,,,,,,,,,,,,,,,,,,,,,,,,,,,,,,,,,,,,,,,,,,,,,,,,,,,,,,,,,,,,,,,,,,,,,,,,,,,,,,,,,,,,,,,,,,,,,,,,,,,,,,,,,
,,,,,,61098363298108ee13a5a0df,62bbfb54e7de68c3549c517b,2022-06-29_10h14.33.360,Colour_Asymmetry_Pilot,2022.1.3,Win32,47.99155349,62bbe60bf3d75ef465d3e404,0,60,60,2,1,twoone,,,,,,,,,,,,,,,,,,,,,,,,,,,,,,,,,,,,,,,,,,,,,,,,,,,,,,,,,,,,,,,,,,,,,,,,,,,,,,,,,,,,,,,,,,,,,,,,,,,,,,,,,,,,,,,,,,,,,,,,,,,,,,,,,,,,,,,,,,,,,,,,,,,,,,,,
,,,,,,61098363298108ee13a5a0df,62bbfb54e7de68c3549c517b,2022-06-29_10h14.33.360,Colour_Asymmetry_Pilot,2022.1.3,Win32,47.99155349,62bbe60bf3d75ef465d3e404,0,61,61,146,1,twoone,,,,,,,,,,,,,,,,,,,,,,,,,,,,,,,,,,,,,,,,,,,,,,,,,,,,,,,,,,,,,,,,,,,,,,,,,,,,,,,,,,,,,,,,,,,,,,,,,,,,,,,,,,,,,,,,,,,,,,,,,,,,,,,,,,,,,,,,,,,,,,,,,,,,,,,,
,,,,,,61098363298108ee13a5a0df,62bbfb54e7de68c3549c517b,2022-06-29_10h14.33.360,Colour_Asymmetry_Pilot,2022.1.3,Win32,47.99155349,62bbe60bf3d75ef465d3e404,0,62,62,14,1,fourtwo,,,,,,,,,,,,,,,,,,,,,,,,,,,,,,,,,,,,,,,,,,,,,,,,,,,,,,,,,,,,,,,,,,,,,,,,,,,,,,,,,,,,,,,,,,,,,,,,,,,,,,,,,,,,,,,,,,,,,,,,,,,,,,,,,,,,,,,,,,,,,,,,,,,,,,,,
,,,,,,61098363298108ee13a5a0df,62bbfb54e7de68c3549c517b,2022-06-29_10h14.33.360,Colour_Asymmetry_Pilot,2022.1.3,Win32,47.99155349,62bbe60bf3d75ef465d3e404,0,63,63,159,1,fourthree,,,,,,,,,,,,,,,,,,,,,,,,,,,,,,,,,,,,,,,,,,,,,,,,,,,,,,,,,,,,,,,,,,,,,,,,,,,,,,,,,,,,,,,,,,,,,,,,,,,,,,,,,,,,,,,,,,,,,,,,,,,,,,,,,,,,,,,,,,,,,,,,,,,,,,,,
,,,,,,61098363298108ee13a5a0df,62bbfb54e7de68c3549c517b,2022-06-29_10h14.33.360,Colour_Asymmetry_Pilot,2022.1.3,Win32,47.99155349,62bbe60bf3d75ef465d3e404,0,64,64,6,1,fourtwo,,,,,,,,,,,,,,,,,,,,,,,,,,,,,,,,,,,,,,,,,,,,,,,,,,,,,,,,,,,,,,,,,,,,,,,,,,,,,,,,,,,,,,,,,,,,,,,,,,,,,,,,,,,,,,,,,,,,,,,,,,,,,,,,,,,,,,,,,,,,,,,,,,,,,,,,
,,,,,,61098363298108ee13a5a0df,62bbfb54e7de68c3549c517b,2022-06-29_10h14.33.360,Colour_Asymmetry_Pilot,2022.1.3,Win32,47.99155349,62bbe60bf3d75ef465d3e404,0,65,65,3,1,twofour,,,,,,,,,,,,,,,,,,,,,,,,,,,,,,,,,,,,,,,,,,,,,,,,,,,,,,,,,,,,,,,,,,,,,,,,,,,,,,,,,,,,,,,,,,,,,,,,,,,,,,,,,,,,,,,,,,,,,,,,,,,,,,,,,,,,,,,,,,,,,,,,,,,,,,,,
,,,,,,61098363298108ee13a5a0df,62bbfb54e7de68c3549c517b,2022-06-29_10h14.33.360,Colour_Asymmetry_Pilot,2022.1.3,Win32,47.99155349,62bbe60bf3d75ef465d3e404,0,66,66,112,1,onetwo,,,,,,,,,,,,,,,,,,,,,,,,,,,,,,,,,,,,,,,,,,,,,,,,,,,,,,,,,,,,,,,,,,,,,,,,,,,,,,,,,,,,,,,,,,,,,,,,,,,,,,,,,,,,,,,,,,,,,,,,,,,,,,,,,,,,,,,,,,,,,,,,,,,,,,,,
,,,,,,61098363298108ee13a5a0df,62bbfb54e7de68c3549c517b,2022-06-29_10h14.33.360,Colour_Asymmetry_Pilot,2022.1.3,Win32,47.99155349,62bbe60bf3d75ef465d3e404,0,67,67,101,1,threefour,,,,,,,,,,,,,,,,,,,,,,,,,,,,,,,,,,,,,,,,,,,,,,,,,,,,,,,,,,,,,,,,,,,,,,,,,,,,,,,,,,,,,,,,,,,,,,,,,,,,,,,,,,,,,,,,,,,,,,,,,,,,,,,,,,,,,,,,,,,,,,,,,,,,,,,,
,,,,,,61098363298108ee13a5a0df,62bbfb54e7de68c3549c517b,2022-06-29_10h14.33.360,Colour_Asymmetry_Pilot,2022.1.3,Win32,47.99155349,62bbe60bf3d75ef465d3e404,0,68,68,16,1,onetwo,,,,,,,,,,,,,,,,,,,,,,,,,,,,,,,,,,,,,,,,,,,,,,,,,,,,,,,,,,,,,,,,,,,,,,,,,,,,,,,,,,,,,,,,,,,,,,,,,,,,,,,,,,,,,,,,,,,,,,,,,,,,,,,,,,,,,,,,,,,,,,,,,,,,,,,,
,,,,,,61098363298108ee13a5a0df,62bbfb54e7de68c3549c517b,2022-06-29_10h14.33.360,Colour_Asymmetry_Pilot,2022.1.3,Win32,47.99155349,62bbe60bf3d75ef465d3e404,0,69,69,123,1,twofour,,,,,,,,,,,,,,,,,,,,,,,,,,,,,,,,,,,,,,,,,,,,,,,,,,,,,,,,,,,,,,,,,,,,,,,,,,,,,,,,,,,,,,,,,,,,,,,,,,,,,,,,,,,,,,,,,,,,,,,,,,,,,,,,,,,,,,,,,,,,,,,,,,,,,,,,
,,,,,,61098363298108ee13a5a0df,62bbfb54e7de68c3549c517b,2022-06-29_10h14.33.360,Colour_Asymmetry_Pilot,2022.1.3,Win32,47.99155349,62bbe60bf3d75ef465d3e404,0,70,70,147,1,twofour,,,,,,,,,,,,,,,,,,,,,,,,,,,,,,,,,,,,,,,,,,,,,,,,,,,,,,,,,,,,,,,,,,,,,,,,,,,,,,,,,,,,,,,,,,,,,,,,,,,,,,,,,,,,,,,,,,,,,,,,,,,,,,,,,,,,,,,,,,,,,,,,,,,,,,,,
,,,,,,61098363298108ee13a5a0df,62bbfb54e7de68c3549c517b,2022-06-29_10h14.33.360,Colour_Asymmetry_Pilot,2022.1.3,Win32,47.99155349,62bbe60bf3d75ef465d3e404,0,71,71,106,1,twoone,,,,,,,,,,,,,,,,,,,,,,,,,,,,,,,,,,,,,,,,,,,,,,,,,,,,,,,,,,,,,,,,,,,,,,,,,,,,,,,,,,,,,,,,,,,,,,,,,,,,,,,,,,,,,,,,,,,,,,,,,,,,,,,,,,,,,,,,,,,,,,,,,,,,,,,,
,,,,,,61098363298108ee13a5a0df,62bbfb54e7de68c3549c517b,2022-06-29_10h14.33.360,Colour_Asymmetry_Pilot,2022.1.3,Win32,47.99155349,62bbe60bf3d75ef465d3e404,0,72,72,154,1,twoone,,,,,,,,,,,,,,,,,,,,,,,,,,,,,,,,,,,,,,,,,,,,,,,,,,,,,,,,,,,,,,,,,,,,,,,,,,,,,,,,,,,,,,,,,,,,,,,,,,,,,,,,,,,,,,,,,,,,,,,,,,,,,,,,,,,,,,,,,,,,,,,,,,,,,,,,
,,,,,,61098363298108ee13a5a0df,62bbfb54e7de68c3549c517b,2022-06-29_10h14.33.360,Colour_Asymmetry_Pilot,2022.1.3,Win32,47.99155349,62bbe60bf3d75ef465d3e404,0,73,73,30,1,fourtwo,,,,,,,,,,,,,,,,,,,,,,,,,,,,,,,,,,,,,,,,,,,,,,,,,,,,,,,,,,,,,,,,,,,,,,,,,,,,,,,,,,,,,,,,,,,,,,,,,,,,,,,,,,,,,,,,,,,,,,,,,,,,,,,,,,,,,,,,,,,,,,,,,,,,,,,,
,,,,,,61098363298108ee13a5a0df,62bbfb54e7de68c3549c517b,2022-06-29_10h14.33.360,Colour_Asymmetry_Pilot,2022.1.3,Win32,47.99155349,62bbe60bf3d75ef465d3e404,0,74,74,13,1,threefour,,,,,,,,,,,,,,,,,,,,,,,,,,,,,,,,,,,,,,,,,,,,,,,,,,,,,,,,,,,,,,,,,,,,,,,,,,,,,,,,,,,,,,,,,,,,,,,,,,,,,,,,,,,,,,,,,,,,,,,,,,,,,,,,,,,,,,,,,,,,,,,,,,,,,,,,
,,,,,,61098363298108ee13a5a0df,62bbfb54e7de68c3549c517b,2022-06-29_10h14.33.360,Colour_Asymmetry_Pilot,2022.1.3,Win32,47.99155349,62bbe60bf3d75ef465d3e404,0,75,75,29,1,threefour,,,,,,,,,,,,,,,,,,,,,,,,,,,,,,,,,,,,,,,,,,,,,,,,,,,,,,,,,,,,,,,,,,,,,,,,,,,,,,,,,,,,,,,,,,,,,,,,,,,,,,,,,,,,,,,,,,,,,,,,,,,,,,,,,,,,,,,,,,,,,,,,,,,,,,,,
,,,,,,61098363298108ee13a5a0df,62bbfb54e7de68c3549c517b,2022-06-29_10h14.33.360,Colour_Asymmetry_Pilot,2022.1.3,Win32,47.99155349,62bbe60bf3d75ef465d3e404,0,76,76,135,1,fourthree,,,,,,,,,,,,,,,,,,,,,,,,,,,,,,,,,,,,,,,,,,,,,,,,,,,,,,,,,,,,,,,,,,,,,,,,,,,,,,,,,,,,,,,,,,,,,,,,,,,,,,,,,,,,,,,,,,,,,,,,,,,,,,,,,,,,,,,,,,,,,,,,,,,,,,,,
,,,,,,61098363298108ee13a5a0df,62bbfb54e7de68c3549c517b,2022-06-29_10h14.33.360,Colour_Asymmetry_Pilot,2022.1.3,Win32,47.99155349,62bbe60bf3d75ef465d3e404,0,77,77,27,1,twofour,,,,,,,,,,,,,,,,,,,,,,,,,,,,,,,,,,,,,,,,,,,,,,,,,,,,,,,,,,,,,,,,,,,,,,,,,,,,,,,,,,,,,,,,,,,,,,,,,,,,,,,,,,,,,,,,,,,,,,,,,,,,,,,,,,,,,,,,,,,,,,,,,,,,,,,,
,,,,,,61098363298108ee13a5a0df,62bbfb54e7de68c3549c517b,2022-06-29_10h14.33.360,Colour_Asymmetry_Pilot,2022.1.3,Win32,47.99155349,62bbe60bf3d75ef465d3e404,0,78,78,108,1,threeone,,,,,,,,,,,,,,,,,,,,,,,,,,,,,,,,,,,,,,,,,,,,,,,,,,,,,,,,,,,,,,,,,,,,,,,,,,,,,,,,,,,,,,,,,,,,,,,,,,,,,,,,,,,,,,,,,,,,,,,,,,,,,,,,,,,,,,,,,,,,,,,,,,,,,,,,
,,,,,,61098363298108ee13a5a0df,62bbfb54e7de68c3549c517b,2022-06-29_10h14.33.360,Colour_Asymmetry_Pilot,2022.1.3,Win32,47.99155349,62bbe60bf3d75ef465d3e404,0,79,79,75,1,twofour,,,,,,,,,,,,,,,,,,,,,,,,,,,,,,,,,,,,,,,,,,,,,,,,,,,,,,,,,,,,,,,,,,,,,,,,,,,,,,,,,,,,,,,,,,,,,,,,,,,,,,,,,,,,,,,,,,,,,,,,,,,,,,,,,,,,,,,,,,,,,,,,,,,,,,,,
,,,,,,61098363298108ee13a5a0df,62bbfb54e7de68c3549c517b,2022-06-29_10h14.33.360,Colour_Asymmetry_Pilot,2022.1.3,Win32,47.99155349,62bbe60bf3d75ef465d3e404,0,80,80,105,1,onethree,,,,,,,,,,,,,,,,,,,,,,,,,,,,,,,,,,,,,,,,,,,,,,,,,,,,,,,,,,,,,,,,,,,,,,,,,,,,,,,,,,,,,,,,,,,,,,,,,,,,,,,,,,,,,,,,,,,,,,,,,,,,,,,,,,,,,,,,,,,,,,,,,,,,,,,,
,,,,,,61098363298108ee13a5a0df,62bbfb54e7de68c3549c517b,2022-06-29_10h14.33.360,Colour_Asymmetry_Pilot,2022.1.3,Win32,47.99155349,62bbe60bf3d75ef465d3e404,0,81,81,64,1,onetwo,,,,,,,,,,,,,,,,,,,,,,,,,,,,,,,,,,,,,,,,,,,,,,,,,,,,,,,,,,,,,,,,,,,,,,,,,,,,,,,,,,,,,,,,,,,,,,,,,,,,,,,,,,,,,,,,,,,,,,,,,,,,,,,,,,,,,,,,,,,,,,,,,,,,,,,,
,,,,,,61098363298108ee13a5a0df,62bbfb54e7de68c3549c517b,2022-06-29_10h14.33.360,Colour_Asymmetry_Pilot,2022.1.3,Win32,47.99155349,62bbe60bf3d75ef465d3e404,0,82,82,61,1,threefour,,,,,,,,,,,,,,,,,,,,,,,,,,,,,,,,,,,,,,,,,,,,,,,,,,,,,,,,,,,,,,,,,,,,,,,,,,,,,,,,,,,,,,,,,,,,,,,,,,,,,,,,,,,,,,,,,,,,,,,,,,,,,,,,,,,,,,,,,,,,,,,,,,,,,,,,
,,,,,,61098363298108ee13a5a0df,62bbfb54e7de68c3549c517b,2022-06-29_10h14.33.360,Colour_Asymmetry_Pilot,2022.1.3,Win32,47.99155349,62bbe60bf3d75ef465d3e404,0,83,83,129,1,onethree,,,,,,,,,,,,,,,,,,,,,,,,,,,,,,,,,,,,,,,,,,,,,,,,,,,,,,,,,,,,,,,,,,,,,,,,,,,,,,,,,,,,,,,,,,,,,,,,,,,,,,,,,,,,,,,,,,,,,,,,,,,,,,,,,,,,,,,,,,,,,,,,,,,,,,,,
,,,,,,61098363298108ee13a5a0df,62bbfb54e7de68c3549c517b,2022-06-29_10h14.33.360,Colour_Asymmetry_Pilot,2022.1.3,Win32,47.99155349,62bbe60bf3d75ef465d3e404,0,84,84,66,1,twoone,,,,,,,,,,,,,,,,,,,,,,,,,,,,,,,,,,,,,,,,,,,,,,,,,,,,,,,,,,,,,,,,,,,,,,,,,,,,,,,,,,,,,,,,,,,,,,,,,,,,,,,,,,,,,,,,,,,,,,,,,,,,,,,,,,,,,,,,,,,,,,,,,,,,,,,,
,,,,,,61098363298108ee13a5a0df,62bbfb54e7de68c3549c517b,2022-06-29_10h14.33.360,Colour_Asymmetry_Pilot,2022.1.3,Win32,47.99155349,62bbe60bf3d75ef465d3e404,0,85,85,155,1,twofour,,,,,,,,,,,,,,,,,,,,,,,,,,,,,,,,,,,,,,,,,,,,,,,,,,,,,,,,,,,,,,,,,,,,,,,,,,,,,,,,,,,,,,,,,,,,,,,,,,,,,,,,,,,,,,,,,,,,,,,,,,,,,,,,,,,,,,,,,,,,,,,,,,,,,,,,
,,,,,,61098363298108ee13a5a0df,62bbfb54e7de68c3549c517b,2022-06-29_10h14.33.360,Colour_Asymmetry_Pilot,2022.1.3,Win32,47.99155349,62bbe60bf3d75ef465d3e404,0,86,86,90,1,twoone,,,,,,,,,,,,,,,,,,,,,,,,,,,,,,,,,,,,,,,,,,,,,,,,,,,,,,,,,,,,,,,,,,,,,,,,,,,,,,,,,,,,,,,,,,,,,,,,,,,,,,,,,,,,,,,,,,,,,,,,,,,,,,,,,,,,,,,,,,,,,,,,,,,,,,,,
,,,,,,61098363298108ee13a5a0df,62bbfb54e7de68c3549c517b,2022-06-29_10h14.33.360,Colour_Asymmetry_Pilot,2022.1.3,Win32,47.99155349,62bbe60bf3d75ef465d3e404,0,87,87,60,1,threeone,,,,,,,,,,,,,,,,,,,,,,,,,,,,,,,,,,,,,,,,,,,,,,,,,,,,,,,,,,,,,,,,,,,,,,,,,,,,,,,,,,,,,,,,,,,,,,,,,,,,,,,,,,,,,,,,,,,,,,,,,,,,,,,,,,,,,,,,,,,,,,,,,,,,,,,,
,,,,,,61098363298108ee13a5a0df,62bbfb54e7de68c3549c517b,2022-06-29_10h14.33.360,Colour_Asymmetry_Pilot,2022.1.3,Win32,47.99155349,62bbe60bf3d75ef465d3e404,0,88,88,161,1,onethree,,,,,,,,,,,,,,,,,,,,,,,,,,,,,,,,,,,,,,,,,,,,,,,,,,,,,,,,,,,,,,,,,,,,,,,,,,,,,,,,,,,,,,,,,,,,,,,,,,,,,,,,,,,,,,,,,,,,,,,,,,,,,,,,,,,,,,,,,,,,,,,,,,,,,,,,
,,,,,,61098363298108ee13a5a0df,62bbfb54e7de68c3549c517b,2022-06-29_10h14.33.360,Colour_Asymmetry_Pilot,2022.1.3,Win32,47.99155349,62bbe60bf3d75ef465d3e404,0,89,89,141,1,threefour,,,,,,,,,,,,,,,,,,,,,,,,,,,,,,,,,,,,,,,,,,,,,,,,,,,,,,,,,,,,,,,,,,,,,,,,,,,,,,,,,,,,,,,,,,,,,,,,,,,,,,,,,,,,,,,,,,,,,,,,,,,,,,,,,,,,,,,,,,,,,,,,,,,,,,,,
,,,,,,61098363298108ee13a5a0df,62bbfb54e7de68c3549c517b,2022-06-29_10h14.33.360,Colour_Asymmetry_Pilot,2022.1.3,Win32,47.99155349,62bbe60bf3d75ef465d3e404,0,90,90,32,1,onetwo,,,,,,,,,,,,,,,,,,,,,,,,,,,,,,,,,,,,,,,,,,,,,,,,,,,,,,,,,,,,,,,,,,,,,,,,,,,,,,,,,,,,,,,,,,,,,,,,,,,,,,,,,,,,,,,,,,,,,,,,,,,,,,,,,,,,,,,,,,,,,,,,,,,,,,,,
,,,,,,61098363298108ee13a5a0df,62bbfb54e7de68c3549c517b,2022-06-29_10h14.33.360,Colour_Asymmetry_Pilot,2022.1.3,Win32,47.99155349,62bbe60bf3d75ef465d3e404,0,91,91,148,1,threeone,,,,,,,,,,,,,,,,,,,,,,,,,,,,,,,,,,,,,,,,,,,,,,,,,,,,,,,,,,,,,,,,,,,,,,,,,,,,,,,,,,,,,,,,,,,,,,,,,,,,,,,,,,,,,,,,,,,,,,,,,,,,,,,,,,,,,,,,,,,,,,,,,,,,,,,,
,,,,,,61098363298108ee13a5a0df,62bbfb54e7de68c3549c517b,2022-06-29_10h14.33.360,Colour_Asymmetry_Pilot,2022.1.3,Win32,47.99155349,62bbe60bf3d75ef465d3e404,0,92,92,1,1,onethree,,,,,,,,,,,,,,,,,,,,,,,,,,,,,,,,,,,,,,,,,,,,,,,,,,,,,,,,,,,,,,,,,,,,,,,,,,,,,,,,,,,,,,,,,,,,,,,,,,,,,,,,,,,,,,,,,,,,,,,,,,,,,,,,,,,,,,,,,,,,,,,,,,,,,,,,
,,,,,,61098363298108ee13a5a0df,62bbfb54e7de68c3549c517b,2022-06-29_10h14.33.360,Colour_Asymmetry_Pilot,2022.1.3,Win32,47.99155349,62bbe60bf3d75ef465d3e404,0,93,93,45,1,threefour,,,,,,,,,,,,,,,,,,,,,,,,,,,,,,,,,,,,,,,,,,,,,,,,,,,,,,,,,,,,,,,,,,,,,,,,,,,,,,,,,,,,,,,,,,,,,,,,,,,,,,,,,,,,,,,,,,,,,,,,,,,,,,,,,,,,,,,,,,,,,,,,,,,,,,,,
,,,,,,61098363298108ee13a5a0df,62bbfb54e7de68c3549c517b,2022-06-29_10h14.33.360,Colour_Asymmetry_Pilot,2022.1.3,Win32,47.99155349,62bbe60bf3d75ef465d3e404,0,94,94,9,1,onethree,,,,,,,,,,,,,,,,,,,,,,,,,,,,,,,,,,,,,,,,,,,,,,,,,,,,,,,,,,,,,,,,,,,,,,,,,,,,,,,,,,,,,,,,,,,,,,,,,,,,,,,,,,,,,,,,,,,,,,,,,,,,,,,,,,,,,,,,,,,,,,,,,,,,,,,,
,,,,,,61098363298108ee13a5a0df,62bbfb54e7de68c3549c517b,2022-06-29_10h14.33.360,Colour_Asymmetry_Pilot,2022.1.3,Win32,47.99155349,62bbe60bf3d75ef465d3e404,0,95,95,137,1,onethree,,,,,,,,,,,,,,,,,,,,,,,,,,,,,,,,,,,,,,,,,,,,,,,,,,,,,,,,,,,,,,,,,,,,,,,,,,,,,,,,,,,,,,,,,,,,,,,,,,,,,,,,,,,,,,,,,,,,,,,,,,,,,,,,,,,,,,,,,,,,,,,,,,,,,,,,
,,,,,,61098363298108ee13a5a0df,62bbfb54e7de68c3549c517b,2022-06-29_10h14.33.360,Colour_Asymmetry_Pilot,2022.1.3,Win32,47.99155349,62bbe60bf3d75ef465d3e404,0,96,96,40,1,onetwo,,,,,,,,,,,,,,,,,,,,,,,,,,,,,,,,,,,,,,,,,,,,,,,,,,,,,,,,,,,,,,,,,,,,,,,,,,,,,,,,,,,,,,,,,,,,,,,,,,,,,,,,,,,,,,,,,,,,,,,,,,,,,,,,,,,,,,,,,,,,,,,,,,,,,,,,
,,,,,,61098363298108ee13a5a0df,62bbfb54e7de68c3549c517b,2022-06-29_10h14.33.360,Colour_Asymmetry_Pilot,2022.1.3,Win32,47.99155349,62bbe60bf3d75ef465d3e404,0,97,97,104,1,onetwo,,,,,,,,,,,,,,,,,,,,,,,,,,,,,,,,,,,,,,,,,,,,,,,,,,,,,,,,,,,,,,,,,,,,,,,,,,,,,,,,,,,,,,,,,,,,,,,,,,,,,,,,,,,,,,,,,,,,,,,,,,,,,,,,,,,,,,,,,,,,,,,,,,,,,,,,
,,,,,,61098363298108ee13a5a0df,62bbfb54e7de68c3549c517b,2022-06-29_10h14.33.360,Colour_Asymmetry_Pilot,2022.1.3,Win32,47.99155349,62bbe60bf3d75ef465d3e404,0,98,98,115,1,twofour,,,,,,,,,,,,,,,,,,,,,,,,,,,,,,,,,,,,,,,,,,,,,,,,,,,,,,,,,,,,,,,,,,,,,,,,,,,,,,,,,,,,,,,,,,,,,,,,,,,,,,,,,,,,,,,,,,,,,,,,,,,,,,,,,,,,,,,,,,,,,,,,,,,,,,,,
,,,,,,61098363298108ee13a5a0df,62bbfb54e7de68c3549c517b,2022-06-29_10h14.33.360,Colour_Asymmetry_Pilot,2022.1.3,Win32,47.99155349,62bbe60bf3d75ef465d3e404,0,99,99,26,1,twoone,,,,,,,,,,,,,,,,,,,,,,,,,,,,,,,,,,,,,,,,,,,,,,,,,,,,,,,,,,,,,,,,,,,,,,,,,,,,,,,,,,,,,,,,,,,,,,,,,,,,,,,,,,,,,,,,,,,,,,,,,,,,,,,,,,,,,,,,,,,,,,,,,,,,,,,,
,,,,,,61098363298108ee13a5a0df,62bbfb54e7de68c3549c517b,2022-06-29_10h14.33.360,Colour_Asymmetry_Pilot,2022.1.3,Win32,47.99155349,62bbe60bf3d75ef465d3e404,0,100,100,80,1,onetwo,,,,,,,,,,,,,,,,,,,,,,,,,,,,,,,,,,,,,,,,,,,,,,,,,,,,,,,,,,,,,,,,,,,,,,,,,,,,,,,,,,,,,,,,,,,,,,,,,,,,,,,,,,,,,,,,,,,,,,,,,,,,,,,,,,,,,,,,,,,,,,,,,,,,,,,,
,,,,,,61098363298108ee13a5a0df,62bbfb54e7de68c3549c517b,2022-06-29_10h14.33.360,Colour_Asymmetry_Pilot,2022.1.3,Win32,47.99155349,62bbe60bf3d75ef465d3e404,0,101,101,7,1,fourthree,,,,,,,,,,,,,,,,,,,,,,,,,,,,,,,,,,,,,,,,,,,,,,,,,,,,,,,,,,,,,,,,,,,,,,,,,,,,,,,,,,,,,,,,,,,,,,,,,,,,,,,,,,,,,,,,,,,,,,,,,,,,,,,,,,,,,,,,,,,,,,,,,,,,,,,,
,,,,,,61098363298108ee13a5a0df,62bbfb54e7de68c3549c517b,2022-06-29_10h14.33.360,Colour_Asymmetry_Pilot,2022.1.3,Win32,47.99155349,62bbe60bf3d75ef465d3e404,0,102,102,65,1,onethree,,,,,,,,,,,,,,,,,,,,,,,,,,,,,,,,,,,,,,,,,,,,,,,,,,,,,,,,,,,,,,,,,,,,,,,,,,,,,,,,,,,,,,,,,,,,,,,,,,,,,,,,,,,,,,,,,,,,,,,,,,,,,,,,,,,,,,,,,,,,,,,,,,,,,,,,
,,,,,,61098363298108ee13a5a0df,62bbfb54e7de68c3549c517b,2022-06-29_10h14.33.360,Colour_Asymmetry_Pilot,2022.1.3,Win32,47.99155349,62bbe60bf3d75ef465d3e404,0,103,103,38,1,fourtwo,,,,,,,,,,,,,,,,,,,,,,,,,,,,,,,,,,,,,,,,,,,,,,,,,,,,,,,,,,,,,,,,,,,,,,,,,,,,,,,,,,,,,,,,,,,,,,,,,,,,,,,,,,,,,,,,,,,,,,,,,,,,,,,,,,,,,,,,,,,,,,,,,,,,,,,,
,,,,,,61098363298108ee13a5a0df,62bbfb54e7de68c3549c517b,2022-06-29_10h14.33.360,Colour_Asymmetry_Pilot,2022.1.3,Win32,47.99155349,62bbe60bf3d75ef465d3e404,0,104,104,152,1,onetwo,,,,,,,,,,,,,,,,,,,,,,,,,,,,,,,,,,,,,,,,,,,,,,,,,,,,,,,,,,,,,,,,,,,,,,,,,,,,,,,,,,,,,,,,,,,,,,,,,,,,,,,,,,,,,,,,,,,,,,,,,,,,,,,,,,,,,,,,,,,,,,,,,,,,,,,,
,,,,,,61098363298108ee13a5a0df,62bbfb54e7de68c3549c517b,2022-06-29_10h14.33.360,Colour_Asymmetry_Pilot,2022.1.3,Win32,47.99155349,62bbe60bf3d75ef465d3e404,0,105,105,83,1,twofour,,,,,,,,,,,,,,,,,,,,,,,,,,,,,,,,,,,,,,,,,,,,,,,,,,,,,,,,,,,,,,,,,,,,,,,,,,,,,,,,,,,,,,,,,,,,,,,,,,,,,,,,,,,,,,,,,,,,,,,,,,,,,,,,,,,,,,,,,,,,,,,,,,,,,,,,
,,,,,,61098363298108ee13a5a0df,62bbfb54e7de68c3549c517b,2022-06-29_10h14.33.360,Colour_Asymmetry_Pilot,2022.1.3,Win32,47.99155349,62bbe60bf3d75ef465d3e404,0,106,106,81,1,onethree,,,,,,,,,,,,,,,,,,,,,,,,,,,,,,,,,,,,,,,,,,,,,,,,,,,,,,,,,,,,,,,,,,,,,,,,,,,,,,,,,,,,,,,,,,,,,,,,,,,,,,,,,,,,,,,,,,,,,,,,,,,,,,,,,,,,,,,,,,,,,,,,,,,,,,,,
,,,,,,61098363298108ee13a5a0df,62bbfb54e7de68c3549c517b,2022-06-29_10h14.33.360,Colour_Asymmetry_Pilot,2022.1.3,Win32,47.99155349,62bbe60bf3d75ef465d3e404,0,107,107,43,1,twofour,,,,,,,,,,,,,,,,,,,,,,,,,,,,,,,,,,,,,,,,,,,,,,,,,,,,,,,,,,,,,,,,,,,,,,,,,,,,,,,,,,,,,,,,,,,,,,,,,,,,,,,,,,,,,,,,,,,,,,,,,,,,,,,,,,,,,,,,,,,,,,,,,,,,,,,,
,,,,,,61098363298108ee13a5a0df,62bbfb54e7de68c3549c517b,2022-06-29_10h14.33.360,Colour_Asymmetry_Pilot,2022.1.3,Win32,47.99155349,62bbe60bf3d75ef465d3e404,0,108,108,140,1,threeone,,,,,,,,,,,,,,,,,,,,,,,,,,,,,,,,,,,,,,,,,,,,,,,,,,,,,,,,,,,,,,,,,,,,,,,,,,,,,,,,,,,,,,,,,,,,,,,,,,,,,,,,,,,,,,,,,,,,,,,,,,,,,,,,,,,,,,,,,,,,,,,,,,,,,,,,
,,,,,,61098363298108ee13a5a0df,62bbfb54e7de68c3549c517b,2022-06-29_10h14.33.360,Colour_Asymmetry_Pilot,2022.1.3,Win32,47.99155349,62bbe60bf3d75ef465d3e404,0,109,109,5,1,threefour,,,,,,,,,,,,,,,,,,,,,,,,,,,,,,,,,,,,,,,,,,,,,,,,,,,,,,,,,,,,,,,,,,,,,,,,,,,,,,,,,,,,,,,,,,,,,,,,,,,,,,,,,,,,,,,,,,,,,,,,,,,,,,,,,,,,,,,,,,,,,,,,,,,,,,,,
,,,,,,61098363298108ee13a5a0df,62bbfb54e7de68c3549c517b,2022-06-29_10h14.33.360,Colour_Asymmetry_Pilot,2022.1.3,Win32,47.99155349,62bbe60bf3d75ef465d3e404,0,110,110,28,1,threeone,,,,,,,,,,,,,,,,,,,,,,,,,,,,,,,,,,,,,,,,,,,,,,,,,,,,,,,,,,,,,,,,,,,,,,,,,,,,,,,,,,,,,,,,,,,,,,,,,,,,,,,,,,,,,,,,,,,,,,,,,,,,,,,,,,,,,,,,,,,,,,,,,,,,,,,,
,,,,,,61098363298108ee13a5a0df,62bbfb54e7de68c3549c517b,2022-06-29_10h14.33.360,Colour_Asymmetry_Pilot,2022.1.3,Win32,47.99155349,62bbe60bf3d75ef465d3e404,0,111,111,53,1,threefour,,,,,,,,,,,,,,,,,,,,,,,,,,,,,,,,,,,,,,,,,,,,,,,,,,,,,,,,,,,,,,,,,,,,,,,,,,,,,,,,,,,,,,,,,,,,,,,,,,,,,,,,,,,,,,,,,,,,,,,,,,,,,,,,,,,,,,,,,,,,,,,,,,,,,,,,
,,,,,,61098363298108ee13a5a0df,62bbfb54e7de68c3549c517b,2022-06-29_10h14.33.360,Colour_Asymmetry_Pilot,2022.1.3,Win32,47.99155349,62bbe60bf3d75ef465d3e404,0,112,112,88,1,onetwo,,,,,,,,,,,,,,,,,,,,,,,,,,,,,,,,,,,,,,,,,,,,,,,,,,,,,,,,,,,,,,,,,,,,,,,,,,,,,,,,,,,,,,,,,,,,,,,,,,,,,,,,,,,,,,,,,,,,,,,,,,,,,,,,,,,,,,,,,,,,,,,,,,,,,,,,
,,,,,,61098363298108ee13a5a0df,62bbfb54e7de68c3549c517b,2022-06-29_10h14.33.360,Colour_Asymmetry_Pilot,2022.1.3,Win32,47.99155349,62bbe60bf3d75ef465d3e404,0,113,113,93,1,threefour,,,,,,,,,,,,,,,,,,,,,,,,,,,,,,,,,,,,,,,,,,,,,,,,,,,,,,,,,,,,,,,,,,,,,,,,,,,,,,,,,,,,,,,,,,,,,,,,,,,,,,,,,,,,,,,,,,,,,,,,,,,,,,,,,,,,,,,,,,,,,,,,,,,,,,,,
,,,,,,61098363298108ee13a5a0df,62bbfb54e7de68c3549c517b,2022-06-29_10h14.33.360,Colour_Asymmetry_Pilot,2022.1.3,Win32,47.99155349,62bbe60bf3d75ef465d3e404,0,114,114,57,1,onethree,,,,,,,,,,,,,,,,,,,,,,,,,,,,,,,,,,,,,,,,,,,,,,,,,,,,,,,,,,,,,,,,,,,,,,,,,,,,,,,,,,,,,,,,,,,,,,,,,,,,,,,,,,,,,,,,,,,,,,,,,,,,,,,,,,,,,,,,,,,,,,,,,,,,,,,,
,,,,,,61098363298108ee13a5a0df,62bbfb54e7de68c3549c517b,2022-06-29_10h14.33.360,Colour_Asymmetry_Pilot,2022.1.3,Win32,47.99155349,62bbe60bf3d75ef465d3e404,0,115,115,56,1,onetwo,,,,,,,,,,,,,,,,,,,,,,,,,,,,,,,,,,,,,,,,,,,,,,,,,,,,,,,,,,,,,,,,,,,,,,,,,,,,,,,,,,,,,,,,,,,,,,,,,,,,,,,,,,,,,,,,,,,,,,,,,,,,,,,,,,,,,,,,,,,,,,,,,,,,,,,,
,,,,,,61098363298108ee13a5a0df,62bbfb54e7de68c3549c517b,2022-06-29_10h14.33.360,Colour_Asymmetry_Pilot,2022.1.3,Win32,47.99155349,62bbe60bf3d75ef465d3e404,0,116,116,127,1,fourthree,,,,,,,,,,,,,,,,,,,,,,,,,,,,,,,,,,,,,,,,,,,,,,,,,,,,,,,,,,,,,,,,,,,,,,,,,,,,,,,,,,,,,,,,,,,,,,,,,,,,,,,,,,,,,,,,,,,,,,,,,,,,,,,,,,,,,,,,,,,,,,,,,,,,,,,,
,,,,,,61098363298108ee13a5a0df,62bbfb54e7de68c3549c517b,2022-06-29_10h14.33.360,Colour_Asymmetry_Pilot,2022.1.3,Win32,47.99155349,62bbe60bf3d75ef465d3e404,0,117,117,15,1,fourthree,,,,,,,,,,,,,,,,,,,,,,,,,,,,,,,,,,,,,,,,,,,,,,,,,,,,,,,,,,,,,,,,,,,,,,,,,,,,,,,,,,,,,,,,,,,,,,,,,,,,,,,,,,,,,,,,,,,,,,,,,,,,,,,,,,,,,,,,,,,,,,,,,,,,,,,,
,,,,,,61098363298108ee13a5a0df,62bbfb54e7de68c3549c517b,2022-06-29_10h14.33.360,Colour_Asymmetry_Pilot,2022.1.3,Win32,47.99155349,62bbe60bf3d75ef465d3e404,0,118,118,96,1,onetwo,,,,,,,,,,,,,,,,,,,,,,,,,,,,,,,,,,,,,,,,,,,,,,,,,,,,,,,,,,,,,,,,,,,,,,,,,,,,,,,,,,,,,,,,,,,,,,,,,,,,,,,,,,,,,,,,,,,,,,,,,,,,,,,,,,,,,,,,,,,,,,,,,,,,,,,,
,,,,,,61098363298108ee13a5a0df,62bbfb54e7de68c3549c517b,2022-06-29_10h14.33.360,Colour_Asymmetry_Pilot,2022.1.3,Win32,47.99155349,62bbe60bf3d75ef465d3e404,0,119,119,134,1,fourtwo,,,,,,,,,,,,,,,,,,,,,,,,,,,,,,,,,,,,,,,,,,,,,,,,,,,,,,,,,,,,,,,,,,,,,,,,,,,,,,,,,,,,,,,,,,,,,,,,,,,,,,,,,,,,,,,,,,,,,,,,,,,,,,,,,,,,,,,,,,,,,,,,,,,,,,,,
,,,,,,61098363298108ee13a5a0df,62bbfb54e7de68c3549c517b,2022-06-29_10h14.33.360,Colour_Asymmetry_Pilot,2022.1.3,Win32,47.99155349,62bbe60bf3d75ef465d3e404,0,120,120,52,1,threeone,,,,,,,,,,,,,,,,,,,,,,,,,,,,,,,,,,,,,,,,,,,,,,,,,,,,,,,,,,,,,,,,,,,,,,,,,,,,,,,,,,,,,,,,,,,,,,,,,,,,,,,,,,,,,,,,,,,,,,,,,,,,,,,,,,,,,,,,,,,,,,,,,,,,,,,,
,,,,,,61098363298108ee13a5a0df,62bbfb54e7de68c3549c517b,2022-06-29_10h14.33.360,Colour_Asymmetry_Pilot,2022.1.3,Win32,47.99155349,62bbe60bf3d75ef465d3e404,0,121,121,87,1,fourthree,,,,,,,,,,,,,,,,,,,,,,,,,,,,,,,,,,,,,,,,,,,,,,,,,,,,,,,,,,,,,,,,,,,,,,,,,,,,,,,,,,,,,,,,,,,,,,,,,,,,,,,,,,,,,,,,,,,,,,,,,,,,,,,,,,,,,,,,,,,,,,,,,,,,,,,,
,,,,,,61098363298108ee13a5a0df,62bbfb54e7de68c3549c517b,2022-06-29_10h14.33.360,Colour_Asymmetry_Pilot,2022.1.3,Win32,47.99155349,62bbe60bf3d75ef465d3e404,0,122,122,114,1,twoone,,,,,,,,,,,,,,,,,,,,,,,,,,,,,,,,,,,,,,,,,,,,,,,,,,,,,,,,,,,,,,,,,,,,,,,,,,,,,,,,,,,,,,,,,,,,,,,,,,,,,,,,,,,,,,,,,,,,,,,,,,,,,,,,,,,,,,,,,,,,,,,,,,,,,,,,
,,,,,,61098363298108ee13a5a0df,62bbfb54e7de68c3549c517b,2022-06-29_10h14.33.360,Colour_Asymmetry_Pilot,2022.1.3,Win32,47.99155349,62bbe60bf3d75ef465d3e404,0,123,123,68,1,threeone,,,,,,,,,,,,,,,,,,,,,,,,,,,,,,,,,,,,,,,,,,,,,,,,,,,,,,,,,,,,,,,,,,,,,,,,,,,,,,,,,,,,,,,,,,,,,,,,,,,,,,,,,,,,,,,,,,,,,,,,,,,,,,,,,,,,,,,,,,,,,,,,,,,,,,,,
,,,,,,61098363298108ee13a5a0df,62bbfb54e7de68c3549c517b,2022-06-29_10h14.33.360,Colour_Asymmetry_Pilot,2022.1.3,Win32,47.99155349,62bbe60bf3d75ef465d3e404,0,124,124,132,1,threeone,,,,,,,,,,,,,,,,,,,,,,,,,,,,,,,,,,,,,,,,,,,,,,,,,,,,,,,,,,,,,,,,,,,,,,,,,,,,,,,,,,,,,,,,,,,,,,,,,,,,,,,,,,,,,,,,,,,,,,,,,,,,,,,,,,,,,,,,,,,,,,,,,,,,,,,,
,,,,,,61098363298108ee13a5a0df,62bbfb54e7de68c3549c517b,2022-06-29_10h14.33.360,Colour_Asymmetry_Pilot,2022.1.3,Win32,47.99155349,62bbe60bf3d75ef465d3e404,0,125,125,92,1,threeone,,,,,,,,,,,,,,,,,,,,,,,,,,,,,,,,,,,,,,,,,,,,,,,,,,,,,,,,,,,,,,,,,,,,,,,,,,,,,,,,,,,,,,,,,,,,,,,,,,,,,,,,,,,,,,,,,,,,,,,,,,,,,,,,,,,,,,,,,,,,,,,,,,,,,,,,
,,,,,,61098363298108ee13a5a0df,62bbfb54e7de68c3549c517b,2022-06-29_10h14.33.360,Colour_Asymmetry_Pilot,2022.1.3,Win32,47.99155349,62bbe60bf3d75ef465d3e404,0,126,126,51,1,twofour,,,,,,,,,,,,,,,,,,,,,,,,,,,,,,,,,,,,,,,,,,,,,,,,,,,,,,,,,,,,,,,,,,,,,,,,,,,,,,,,,,,,,,,,,,,,,,,,,,,,,,,,,,,,,,,,,,,,,,,,,,,,,,,,,,,,,,,,,,,,,,,,,,,,,,,,
,,,,,,61098363298108ee13a5a0df,62bbfb54e7de68c3549c517b,2022-06-29_10h14.33.360,Colour_Asymmetry_Pilot,2022.1.3,Win32,47.99155349,62bbe60bf3d75ef465d3e404,0,127,127,72,1,onetwo,,,,,,,,,,,,,,,,,,,,,,,,,,,,,,,,,,,,,,,,,,,,,,,,,,,,,,,,,,,,,,,,,,,,,,,,,,,,,,,,,,,,,,,,,,,,,,,,,,,,,,,,,,,,,,,,,,,,,,,,,,,,,,,,,,,,,,,,,,,,,,,,,,,,,,,,
,,,,,,61098363298108ee13a5a0df,62bbfb54e7de68c3549c517b,2022-06-29_10h14.33.360,Colour_Asymmetry_Pilot,2022.1.3,Win32,47.99155349,62bbe60bf3d75ef465d3e404,0,128,128,110,1,fourtwo,,,,,,,,,,,,,,,,,,,,,,,,,,,,,,,,,,,,,,,,,,,,,,,,,,,,,,,,,,,,,,,,,,,,,,,,,,,,,,,,,,,,,,,,,,,,,,,,,,,,,,,,,,,,,,,,,,,,,,,,,,,,,,,,,,,,,,,,,,,,,,,,,,,,,,,,
,,,,,,61098363298108ee13a5a0df,62bbfb54e7de68c3549c517b,2022-06-29_10h14.33.360,Colour_Asymmetry_Pilot,2022.1.3,Win32,47.99155349,62bbe60bf3d75ef465d3e404,0,129,129,120,1,onetwo,,,,,,,,,,,,,,,,,,,,,,,,,,,,,,,,,,,,,,,,,,,,,,,,,,,,,,,,,,,,,,,,,,,,,,,,,,,,,,,,,,,,,,,,,,,,,,,,,,,,,,,,,,,,,,,,,,,,,,,,,,,,,,,,,,,,,,,,,,,,,,,,,,,,,,,,
,,,,,,61098363298108ee13a5a0df,62bbfb54e7de68c3549c517b,2022-06-29_10h14.33.360,Colour_Asymmetry_Pilot,2022.1.3,Win32,47.99155349,62bbe60bf3d75ef465d3e404,0,130,130,138,1,twoone,,,,,,,,,,,,,,,,,,,,,,,,,,,,,,,,,,,,,,,,,,,,,,,,,,,,,,,,,,,,,,,,,,,,,,,,,,,,,,,,,,,,,,,,,,,,,,,,,,,,,,,,,,,,,,,,,,,,,,,,,,,,,,,,,,,,,,,,,,,,,,,,,,,,,,,,
,,,,,,61098363298108ee13a5a0df,62bbfb54e7de68c3549c517b,2022-06-29_10h14.33.360,Colour_Asymmetry_Pilot,2022.1.3,Win32,47.99155349,62bbe60bf3d75ef465d3e404,0,131,131,55,1,fourthree,,,,,,,,,,,,,,,,,,,,,,,,,,,,,,,,,,,,,,,,,,,,,,,,,,,,,,,,,,,,,,,,,,,,,,,,,,,,,,,,,,,,,,,,,,,,,,,,,,,,,,,,,,,,,,,,,,,,,,,,,,,,,,,,,,,,,,,,,,,,,,,,,,,,,,,,
,,,,,,61098363298108ee13a5a0df,62bbfb54e7de68c3549c517b,2022-06-29_10h14.33.360,Colour_Asymmetry_Pilot,2022.1.3,Win32,47.99155349,62bbe60bf3d75ef465d3e404,0,132,132,79,1,fourthree,,,,,,,,,,,,,,,,,,,,,,,,,,,,,,,,,,,,,,,,,,,,,,,,,,,,,,,,,,,,,,,,,,,,,,,,,,,,,,,,,,,,,,,,,,,,,,,,,,,,,,,,,,,,,,,,,,,,,,,,,,,,,,,,,,,,,,,,,,,,,,,,,,,,,,,,
,,,,,,61098363298108ee13a5a0df,62bbfb54e7de68c3549c517b,2022-06-29_10h14.33.360,Colour_Asymmetry_Pilot,2022.1.3,Win32,47.99155349,62bbe60bf3d75ef465d3e404,0,133,133,33,1,onethree,,,,,,,,,,,,,,,,,,,,,,,,,,,,,,,,,,,,,,,,,,,,,,,,,,,,,,,,,,,,,,,,,,,,,,,,,,,,,,,,,,,,,,,,,,,,,,,,,,,,,,,,,,,,,,,,,,,,,,,,,,,,,,,,,,,,,,,,,,,,,,,,,,,,,,,,
,,,,,,61098363298108ee13a5a0df,62bbfb54e7de68c3549c517b,2022-06-29_10h14.33.360,Colour_Asymmetry_Pilot,2022.1.3,Win32,47.99155349,62bbe60bf3d75ef465d3e404,0,134,134,24,1,onetwo,,,,,,,,,,,,,,,,,,,,,,,,,,,,,,,,,,,,,,,,,,,,,,,,,,,,,,,,,,,,,,,,,,,,,,,,,,,,,,,,,,,,,,,,,,,,,,,,,,,,,,,,,,,,,,,,,,,,,,,,,,,,,,,,,,,,,,,,,,,,,,,,,,,,,,,,
,,,,,,61098363298108ee13a5a0df,62bbfb54e7de68c3549c517b,2022-06-29_10h14.33.360,Colour_Asymmetry_Pilot,2022.1.3,Win32,47.99155349,62bbe60bf3d75ef465d3e404,0,135,135,85,1,threefour,,,,,,,,,,,,,,,,,,,,,,,,,,,,,,,,,,,,,,,,,,,,,,,,,,,,,,,,,,,,,,,,,,,,,,,,,,,,,,,,,,,,,,,,,,,,,,,,,,,,,,,,,,,,,,,,,,,,,,,,,,,,,,,,,,,,,,,,,,,,,,,,,,,,,,,,
,,,,,,61098363298108ee13a5a0df,62bbfb54e7de68c3549c517b,2022-06-29_10h14.33.360,Colour_Asymmetry_Pilot,2022.1.3,Win32,47.99155349,62bbe60bf3d75ef465d3e404,0,136,136,82,1,twoone,,,,,,,,,,,,,,,,,,,,,,,,,,,,,,,,,,,,,,,,,,,,,,,,,,,,,,,,,,,,,,,,,,,,,,,,,,,,,,,,,,,,,,,,,,,,,,,,,,,,,,,,,,,,,,,,,,,,,,,,,,,,,,,,,,,,,,,,,,,,,,,,,,,,,,,,
,,,,,,61098363298108ee13a5a0df,62bbfb54e7de68c3549c517b,2022-06-29_10h14.33.360,Colour_Asymmetry_Pilot,2022.1.3,Win32,47.99155349,62bbe60bf3d75ef465d3e404,0,137,137,136,1,onetwo,,,,,,,,,,,,,,,,,,,,,,,,,,,,,,,,,,,,,,,,,,,,,,,,,,,,,,,,,,,,,,,,,,,,,,,,,,,,,,,,,,,,,,,,,,,,,,,,,,,,,,,,,,,,,,,,,,,,,,,,,,,,,,,,,,,,,,,,,,,,,,,,,,,,,,,,
,,,,,,61098363298108ee13a5a0df,62bbfb54e7de68c3549c517b,2022-06-29_10h14.33.360,Colour_Asymmetry_Pilot,2022.1.3,Win32,47.99155349,62bbe60bf3d75ef465d3e404,0,138,138,46,1,fourtwo,,,,,,,,,,,,,,,,,,,,,,,,,,,,,,,,,,,,,,,,,,,,,,,,,,,,,,,,,,,,,,,,,,,,,,,,,,,,,,,,,,,,,,,,,,,,,,,,,,,,,,,,,,,,,,,,,,,,,,,,,,,,,,,,,,,,,,,,,,,,,,,,,,,,,,,,
,,,,,,61098363298108ee13a5a0df,62bbfb54e7de68c3549c517b,2022-06-29_10h14.33.360,Colour_Asymmetry_Pilot,2022.1.3,Win32,47.99155349,62bbe60bf3d75ef465d3e404,0,139,139,62,1,fourtwo,,,,,,,,,,,,,,,,,,,,,,,,,,,,,,,,,,,,,,,,,,,,,,,,,,,,,,,,,,,,,,,,,,,,,,,,,,,,,,,,,,,,,,,,,,,,,,,,,,,,,,,,,,,,,,,,,,,,,,,,,,,,,,,,,,,,,,,,,,,,,,,,,,,,,,,,
,,,,,,61098363298108ee13a5a0df,62bbfb54e7de68c3549c517b,2022-06-29_10h14.33.360,Colour_Asymmetry_Pilot,2022.1.3,Win32,47.99155349,62bbe60bf3d75ef465d3e404,0,140,140,156,1,threeone,,,,,,,,,,,,,,,,,,,,,,,,,,,,,,,,,,,,,,,,,,,,,,,,,,,,,,,,,,,,,,,,,,,,,,,,,,,,,,,,,,,,,,,,,,,,,,,,,,,,,,,,,,,,,,,,,,,,,,,,,,,,,,,,,,,,,,,,,,,,,,,,,,,,,,,,
,,,,,,61098363298108ee13a5a0df,62bbfb54e7de68c3549c517b,2022-06-29_10h14.33.360,Colour_Asymmetry_Pilot,2022.1.3,Win32,47.99155349,62bbe60bf3d75ef465d3e404,0,141,141,69,1,threefour,,,,,,,,,,,,,,,,,,,,,,,,,,,,,,,,,,,,,,,,,,,,,,,,,,,,,,,,,,,,,,,,,,,,,,,,,,,,,,,,,,,,,,,,,,,,,,,,,,,,,,,,,,,,,,,,,,,,,,,,,,,,,,,,,,,,,,,,,,,,,,,,,,,,,,,,
,,,,,,61098363298108ee13a5a0df,62bbfb54e7de68c3549c517b,2022-06-29_10h14.33.360,Colour_Asymmetry_Pilot,2022.1.3,Win32,47.99155349,62bbe60bf3d75ef465d3e404,0,142,142,121,1,onethree,,,,,,,,,,,,,,,,,,,,,,,,,,,,,,,,,,,,,,,,,,,,,,,,,,,,,,,,,,,,,,,,,,,,,,,,,,,,,,,,,,,,,,,,,,,,,,,,,,,,,,,,,,,,,,,,,,,,,,,,,,,,,,,,,,,,,,,,,,,,,,,,,,,,,,,,
,,,,,,61098363298108ee13a5a0df,62bbfb54e7de68c3549c517b,2022-06-29_10h14.33.360,Colour_Asymmetry_Pilot,2022.1.3,Win32,47.99155349,62bbe60bf3d75ef465d3e404,0,143,143,157,1,threefour,,,,,,,,,,,,,,,,,,,,,,,,,,,,,,,,,,,,,,,,,,,,,,,,,,,,,,,,,,,,,,,,,,,,,,,,,,,,,,,,,,,,,,,,,,,,,,,,,,,,,,,,,,,,,,,,,,,,,,,,,,,,,,,,,,,,,,,,,,,,,,,,,,,,,,,,
,,,,,,61098363298108ee13a5a0df,62bbfb54e7de68c3549c517b,2022-06-29_10h14.33.360,Colour_Asymmetry_Pilot,2022.1.3,Win32,47.99155349,62bbe60bf3d75ef465d3e404,0,144,144,149,1,threefour,,,,,,,,,,,,,,,,,,,,,,,,,,,,,,,,,,,,,,,,,,,,,,,,,,,,,,,,,,,,,,,,,,,,,,,,,,,,,,,,,,,,,,,,,,,,,,,,,,,,,,,,,,,,,,,,,,,,,,,,,,,,,,,,,,,,,,,,,,,,,,,,,,,,,,,,
,,,,,,61098363298108ee13a5a0df,62bbfb54e7de68c3549c517b,2022-06-29_10h14.33.360,Colour_Asymmetry_Pilot,2022.1.3,Win32,47.99155349,62bbe60bf3d75ef465d3e404,0,145,145,59,1,twofour,,,,,,,,,,,,,,,,,,,,,,,,,,,,,,,,,,,,,,,,,,,,,,,,,,,,,,,,,,,,,,,,,,,,,,,,,,,,,,,,,,,,,,,,,,,,,,,,,,,,,,,,,,,,,,,,,,,,,,,,,,,,,,,,,,,,,,,,,,,,,,,,,,,,,,,,
,,,,,,61098363298108ee13a5a0df,62bbfb54e7de68c3549c517b,2022-06-29_10h14.33.360,Colour_Asymmetry_Pilot,2022.1.3,Win32,47.99155349,62bbe60bf3d75ef465d3e404,0,146,146,158,1,fourtwo,,,,,,,,,,,,,,,,,,,,,,,,,,,,,,,,,,,,,,,,,,,,,,,,,,,,,,,,,,,,,,,,,,,,,,,,,,,,,,,,,,,,,,,,,,,,,,,,,,,,,,,,,,,,,,,,,,,,,,,,,,,,,,,,,,,,,,,,,,,,,,,,,,,,,,,,
,,,,,,61098363298108ee13a5a0df,62bbfb54e7de68c3549c517b,2022-06-29_10h14.33.360,Colour_Asymmetry_Pilot,2022.1.3,Win32,47.99155349,62bbe60bf3d75ef465d3e404,0,147,147,71,1,fourthree,,,,,,,,,,,,,,,,,,,,,,,,,,,,,,,,,,,,,,,,,,,,,,,,,,,,,,,,,,,,,,,,,,,,,,,,,,,,,,,,,,,,,,,,,,,,,,,,,,,,,,,,,,,,,,,,,,,,,,,,,,,,,,,,,,,,,,,,,,,,,,,,,,,,,,,,
,,,,,,61098363298108ee13a5a0df,62bbfb54e7de68c3549c517b,2022-06-29_10h14.33.360,Colour_Asymmetry_Pilot,2022.1.3,Win32,47.99155349,62bbe60bf3d75ef465d3e404,0,148,148,50,1,twoone,,,,,,,,,,,,,,,,,,,,,,,,,,,,,,,,,,,,,,,,,,,,,,,,,,,,,,,,,,,,,,,,,,,,,,,,,,,,,,,,,,,,,,,,,,,,,,,,,,,,,,,,,,,,,,,,,,,,,,,,,,,,,,,,,,,,,,,,,,,,,,,,,,,,,,,,
,,,,,,61098363298108ee13a5a0df,62bbfb54e7de68c3549c517b,2022-06-29_10h14.33.360,Colour_Asymmetry_Pilot,2022.1.3,Win32,47.99155349,62bbe60bf3d75ef465d3e404,0,149,149,95,1,fourthree,,,,,,,,,,,,,,,,,,,,,,,,,,,,,,,,,,,,,,,,,,,,,,,,,,,,,,,,,,,,,,,,,,,,,,,,,,,,,,,,,,,,,,,,,,,,,,,,,,,,,,,,,,,,,,,,,,,,,,,,,,,,,,,,,,,,,,,,,,,,,,,,,,,,,,,,
,,,,,,61098363298108ee13a5a0df,62bbfb54e7de68c3549c517b,2022-06-29_10h14.33.360,Colour_Asymmetry_Pilot,2022.1.3,Win32,47.99155349,62bbe60bf3d75ef465d3e404,0,150,150,144,1,onetwo,,,,,,,,,,,,,,,,,,,,,,,,,,,,,,,,,,,,,,,,,,,,,,,,,,,,,,,,,,,,,,,,,,,,,,,,,,,,,,,,,,,,,,,,,,,,,,,,,,,,,,,,,,,,,,,,,,,,,,,,,,,,,,,,,,,,,,,,,,,,,,,,,,,,,,,,
,,,,,,61098363298108ee13a5a0df,62bbfb54e7de68c3549c517b,2022-06-29_10h14.33.360,Colour_Asymmetry_Pilot,2022.1.3,Win32,47.99155349,62bbe60bf3d75ef465d3e404,0,151,151,4,1,threeone,,,,,,,,,,,,,,,,,,,,,,,,,,,,,,,,,,,,,,,,,,,,,,,,,,,,,,,,,,,,,,,,,,,,,,,,,,,,,,,,,,,,,,,,,,,,,,,,,,,,,,,,,,,,,,,,,,,,,,,,,,,,,,,,,,,,,,,,,,,,,,,,,,,,,,,,
,,,,,,61098363298108ee13a5a0df,62bbfb54e7de68c3549c517b,2022-06-29_10h14.33.360,Colour_Asymmetry_Pilot,2022.1.3,Win32,47.99155349,62bbe60bf3d75ef465d3e404,0,152,152,130,1,twoone,,,,,,,,,,,,,,,,,,,,,,,,,,,,,,,,,,,,,,,,,,,,,,,,,,,,,,,,,,,,,,,,,,,,,,,,,,,,,,,,,,,,,,,,,,,,,,,,,,,,,,,,,,,,,,,,,,,,,,,,,,,,,,,,,,,,,,,,,,,,,,,,,,,,,,,,
,,,,,,61098363298108ee13a5a0df,62bbfb54e7de68c3549c517b,2022-06-29_10h14.33.360,Colour_Asymmetry_Pilot,2022.1.3,Win32,47.99155349,62bbe60bf3d75ef465d3e404,0,153,153,0,1,onetwo,,,,,,,,,,,,,,,,,,,,,,,,,,,,,,,,,,,,,,,,,,,,,,,,,,,,,,,,,,,,,,,,,,,,,,,,,,,,,,,,,,,,,,,,,,,,,,,,,,,,,,,,,,,,,,,,,,,,,,,,,,,,,,,,,,,,,,,,,,,,,,,,,,,,,,,,
,,,,,,61098363298108ee13a5a0df,62bbfb54e7de68c3549c517b,2022-06-29_10h14.33.360,Colour_Asymmetry_Pilot,2022.1.3,Win32,47.99155349,62bbe60bf3d75ef465d3e404,0,154,154,74,1,twoone,,,,,,,,,,,,,,,,,,,,,,,,,,,,,,,,,,,,,,,,,,,,,,,,,,,,,,,,,,,,,,,,,,,,,,,,,,,,,,,,,,,,,,,,,,,,,,,,,,,,,,,,,,,,,,,,,,,,,,,,,,,,,,,,,,,,,,,,,,,,,,,,,,,,,,,,
,,,,,,61098363298108ee13a5a0df,62bbfb54e7de68c3549c517b,2022-06-29_10h14.33.360,Colour_Asymmetry_Pilot,2022.1.3,Win32,47.99155349,62bbe60bf3d75ef465d3e404,0,155,155,125,1,threefour,,,,,,,,,,,,,,,,,,,,,,,,,,,,,,,,,,,,,,,,,,,,,,,,,,,,,,,,,,,,,,,,,,,,,,,,,,,,,,,,,,,,,,,,,,,,,,,,,,,,,,,,,,,,,,,,,,,,,,,,,,,,,,,,,,,,,,,,,,,,,,,,,,,,,,,,
,,,,,,61098363298108ee13a5a0df,62bbfb54e7de68c3549c517b,2022-06-29_10h14.33.360,Colour_Asymmetry_Pilot,2022.1.3,Win32,47.99155349,62bbe60bf3d75ef465d3e404,0,156,156,133,1,threefour,,,,,,,,,,,,,,,,,,,,,,,,,,,,,,,,,,,,,,,,,,,,,,,,,,,,,,,,,,,,,,,,,,,,,,,,,,,,,,,,,,,,,,,,,,,,,,,,,,,,,,,,,,,,,,,,,,,,,,,,,,,,,,,,,,,,,,,,,,,,,,,,,,,,,,,,
,,,,,,61098363298108ee13a5a0df,62bbfb54e7de68c3549c517b,2022-06-29_10h14.33.360,Colour_Asymmetry_Pilot,2022.1.3,Win32,47.99155349,62bbe60bf3d75ef465d3e404,0,157,157,160,1,onetwo,,,,,,,,,,,,,,,,,,,,,,,,,,,,,,,,,,,,,,,,,,,,,,,,,,,,,,,,,,,,,,,,,,,,,,,,,,,,,,,,,,,,,,,,,,,,,,,,,,,,,,,,,,,,,,,,,,,,,,,,,,,,,,,,,,,,,,,,,,,,,,,,,,,,,,,,
,,,,,,61098363298108ee13a5a0df,62bbfb54e7de68c3549c517b,2022-06-29_10h14.33.360,Colour_Asymmetry_Pilot,2022.1.3,Win32,47.99155349,62bbe60bf3d75ef465d3e404,0,158,158,118,1,fourtwo,,,,,,,,,,,,,,,,,,,,,,,,,,,,,,,,,,,,,,,,,,,,,,,,,,,,,,,,,,,,,,,,,,,,,,,,,,,,,,,,,,,,,,,,,,,,,,,,,,,,,,,,,,,,,,,,,,,,,,,,,,,,,,,,,,,,,,,,,,,,,,,,,,,,,,,,
,,,,,,61098363298108ee13a5a0df,62bbfb54e7de68c3549c517b,2022-06-29_10h14.33.360,Colour_Asymmetry_Pilot,2022.1.3,Win32,47.99155349,62bbe60bf3d75ef465d3e404,0,159,159,131,1,twofour,,,,,,,,,,,,,,,,,,,,,,,,,,,,,,,,,,,,,,,,,,,,,,,,,,,,,,,,,,,,,,,,,,,,,,,,,,,,,,,,,,,,,,,,,,,,,,,,,,,,,,,,,,,,,,,,,,,,,,,,,,,,,,,,,,,,,,,,,,,,,,,,,,,,,,,,
,,,,,,61098363298108ee13a5a0df,62bbfb54e7de68c3549c517b,2022-06-29_10h14.33.360,Colour_Asymmetry_Pilot,2022.1.3,Win32,47.99155349,62bbe60bf3d75ef465d3e404,0,160,160,126,1,fourtwo,,,,,,,,,,,,,,,,,,,,,,,,,,,,,,,,,,,,,,,,,,,,,,,,,,,,,,,,,,,,,,,,,,,,,,,,,,,,,,,,,,,,,,,,,,,,,,,,,,,,,,,,,,,,,,,,,,,,,,,,,,,,,,,,,,,,,,,,,,,,,,,,,,,,,,,,
,,,,,,61098363298108ee13a5a0df,62bbfb54e7de68c3549c517b,2022-06-29_10h14.33.360,Colour_Asymmetry_Pilot,2022.1.3,Win32,47.99155349,62bbe60bf3d75ef465d3e404,0,161,161,41,1,onethree,,,,,,,,,,,,,,,,,,,,,,,,,,,,,,,,,,,,,,,,,,,,,,,,,,,,,,,,,,,,,,,,,,,,,,,,,,,,,,,,,,,,,,,,,,,,,,,,,,,,,,,,,,,,,,,,,,,,,,,,,,,,,,,,,,,,,,,,,,,,,,,,,,,,,,,,
,,,,,,61098363298108ee13a5a0df,62bbfb54e7de68c3549c517b,2022-06-29_10h14.33.360,Colour_Asymmetry_Pilot,2022.1.3,Win32,47.99155349,62bbe60bf3d75ef465d3e404,,,,,,,space,9.7609,space,1.3956,space,1.5512,space,1.1076,space,1.0422,space,5.1467,"[0.3568,-0.20799999999999996,-0.9844]",fourthree,"[0.22340000000000004,-0.9296,-0.7884]",3,254.0879,59.20001233,27.99999398,1,0,0,response1disk_5,4.800011516,0.799993575,1,0,0,rectangle_8,4.800011516,0.799993575,1,0,0,2,4.800011516,0.799993575,1,0,0,0,0,0,0,1,,,,,,,,,,,,,,,,,,,,,,,,,,,,,,,,,,,,,,,,,,,,,,,,,,,,,,,,,,,,,,,,,,,,,,,,,,,,,,,,,,,,,,,,,,,,,,,,,,,,,,,,,,,
,,,,,,61098363298108ee13a5a0df,62bbfb54e7de68c3549c517b,2022-06-29_10h14.33.360,Colour_Asymmetry_Pilot,2022.1.3,Win32,47.99155349,62bbe60bf3d75ef465d3e404,,,,,,,,,,,,,,,,,,,"[-0.7412000000000001,-0.08239999999999992,-0.6864]",onethree,"[-0.17659999999999998,-0.2864,-0.8354]",1,1.5431,36.80001199,-77.60000759,1,0,0,response3disk_5,-3.199988604,-4.000006497,1,0,0,rectangle_8,-3.199988604,-4.000006497,1,0,0,2,-3.199988604,-4.000006497,1,0,0,1,0,1,0,1,,,,,,,,,,,,,,,,,,,,,,,,,,,,,,,,,,,,,,,,,,,,,,,,,,,,,,,,,,,,,,,,,,,,,,,,,,,,,,,,,,,,,,,,,,,,,,,,,,,,,,,,,,,
,,,,,,61098363298108ee13a5a0df,62bbfb54e7de68c3549c517b,2022-06-29_10h14.33.360,Colour_Asymmetry_Pilot,2022.1.3,Win32,47.99155349,62bbe60bf3d75ef465d3e404,,,,,,,,,,,,,,,,,,,"[-0.5688,-0.08239999999999992,-0.1844]",threeone,"[-0.9688,-0.38039999999999996,-0.41979999999999995]",3,1.606,60.00001234,52.79999435,1,0,0,response1disk_5,5.600060356,11.19999373,1,0,0,rectangle_8,5.600060356,11.19999373,1,0,0,2,5.600060356,11.19999373,1,0,0,2,0,2,0,1,,,,,,,,,,,,,,,,,,,,,,,,,,,,,,,,,,,,,,,,,,,,,,,,,,,,,,,,,,,,,,,,,,,,,,,,,,,,,,,,,,,,,,,,,,,,,,,,,,,,,,,,,,,
,,,,,,61098363298108ee13a5a0df,62bbfb54e7de68c3549c517b,2022-06-29_10h14.33.360,Colour_Asymmetry_Pilot,2022.1.3,Win32,47.99155349,62bbe60bf3d75ef465d3e404,,,,,,,,,,,,,,,,,,,"[-0.9688,-0.38039999999999996,-0.41979999999999995]",onethree,"[0.2862,0.7802,0.3568]",1,2.426,28.80001187,-48.00000715,1,0,0,response3disk_5,-15.99998879,-12.80000663,1,0,0,rectangle_8,-15.99998879,-12.80000663,1,0,0,2,-15.99998879,-12.80000663,1,0,0,3,0,3,0,1,,,,,,,,,,,,,,,,,,,,,,,,,,,,,,,,,,,,,,,,,,,,,,,,,,,,,,,,,,,,,,,,,,,,,,,,,,,,,,,,,,,,,,,,,,,,,,,,,,,,,,,,,,,
,,,,,,61098363298108ee13a5a0df,62bbfb54e7de68c3549c517b,2022-06-29_10h14.33.360,Colour_Asymmetry_Pilot,2022.1.3,Win32,47.99155349,62bbe60bf3d75ef465d3e404,,,,,,,,,,,,,,,,,,,"[0.9372,0.9450000000000001,0.8980000000000001]",onetwo,"[0.0351999999999999,0.41159999999999997,0.0038000000000000256]",-1,1.6458,-70.39994078,-114.4000081,1,0,0,response5disk_5,0.800011456,3.999993622,1,0,0,rectangle_8,93.60001284,-41.60000706,1,0,0,2,-11.19998872,15.9999938,1,0,0,4,0,4,0,1,response3disk_7,5,rectangle_4,,,,,,,,,,,,,,,,,,,,,,,,,,,,,,,,,,,,,,,,,,,,,,,,,,,,,,,,,,,,,,,,,,,,,,,,,,,,,,,,,,,,,,,,,,,,,,,,,,,,,,,,
,,,,,,61098363298108ee13a5a0df,62bbfb54e7de68c3549c517b,2022-06-29_10h14.33.360,Colour_Asymmetry_Pilot,2022.1.3,Win32,47.99155349,62bbe60bf3d75ef465d3e404,,,,,,,,,,,,,,,,,,,"[0.30180000000000007,-0.7884,-0.9844]",threeone,"[-0.17659999999999998,-0.2864,-0.8354]",-1,1.418,-41.59998918,-52.80000722,1,0,0,response5disk_5,-14.39993994,3.999993622,1,0,0,rectangle_8,80.00001264,-42.40000707,1,0,0,2,4.000011504,-9.60000658,1,0,0,5,0,5,0,1,response3disk_7,5,rectangle_4,,,,,,,,,,,,,,,,,,,,,,,,,,,,,,,,,,,,,,,,,,,,,,,,,,,,,,,,,,,,,,,,,,,,,,,,,,,,,,,,,,,,,,,,,,,,,,,,,,,,,,,,
,,,,,,61098363298108ee13a5a0df,62bbfb54e7de68c3549c517b,2022-06-29_10h14.33.360,Colour_Asymmetry_Pilot,2022.1.3,Win32,47.99155349,62bbe60bf3d75ef465d3e404,,,,,,,,,,,,,,,,,,,"[-0.48240000000000005,0.3175999999999999,0.2156]",threefour,"[-0.20799999999999996,-0.655,-0.01980000000000004]",-2,1.6889,-101.5999901,-59.20000732,1,0,0,response5disk_5,-13.59998876,4.799993634,1,0,0,rectangle_8,-13.59998876,4.799993634,1,0,0,2,-13.59998876,4.799993634,1,0,0,6,0,6,0,1,,,,,,,,,,,,,,,,,,,,,,,,,,,,,,,,,,,,,,,,,,,,,,,,,,,,,,,,,,,,,,,,,,,,,,,,,,,,,,,,,,,,,,,,,,,,,,,,,,,,,,,,,,,
,,,,,,61098363298108ee13a5a0df,62bbfb54e7de68c3549c517b,2022-06-29_10h14.33.360,Colour_Asymmetry_Pilot,2022.1.3,Win32,47.99155349,62bbe60bf3d75ef465d3e404,,,,,,,,,,,,,,,,,,,,twofour,,-4,1.1041,,,,,,,,,,,,,,,,,,,,,,,,,,,,,,,,space,13.9476,"[-0.9844,-0.9688,-0.9922]","[-0.5688,-0.08239999999999992,-0.1844]",-62.39994066,91.99999493,1,0,0,response7disk,-4.799988627,-0.800006449,1,0,0,rectangle,-4.799988627,-0.800006449,1,0,0,,1,0.0052,0,-4.799988627,-0.800006449,1,0,0,0,0,0,17,1,17,first,,,,,,,,,,,,,,,,,,,,,,,,,,,,,,,,,,,,,,,,,,,,,,,,,,,,,,,,,,,,,,,,,,,
,,,,,,61098363298108ee13a5a0df,62bbfb54e7de68c3549c517b,2022-06-29_10h14.33.360,Colour_Asymmetry_Pilot,2022.1.3,Win32,47.99155349,62bbe60bf3d75ef465d3e404,,,,,,,,,,,,,,,,,,,,threeone,,-2,0.9541,,,,,,,,,,,,,,,,,,,,,,,,,,,,,,,,,,"[0.0351999999999999,0.41159999999999997,0.0038000000000000256]","[0.7018,0.7802,-0.16079999999999994]",-88.79998988,-43.20000708,1,0,0,response5disk,-13.59998876,-7.200006545,1,0,0,rectangle,-13.59998876,-7.200006545,1,0,0,,2,0.0024,0,-13.59998876,-7.200006545,1,0,0,0,1,1,150,1,69,second,,,,,,,,,,,,,,,,,,,,,,,,,,,,,,,,,,,,,,,,,,,,,,,,,,,,,,,,,,,,,,,,,,,
,,,,,,61098363298108ee13a5a0df,62bbfb54e7de68c3549c517b,2022-06-29_10h14.33.360,Colour_Asymmetry_Pilot,2022.1.3,Win32,47.99155349,62bbe60bf3d75ef465d3e404,,,,,,,,,,,,,,,,,,,,twoone,,1,5.8392,,,,,,,,,,,,,,,,,,,,,,,,,,,,,,,,,,"[0.23120000000000007,-0.7726,-0.34120000000000006]","[0.2784,-0.31000000000000005,-0.5452]",40.80001205,-94.40000784,1,0,0,response3disk,-23.99998891,6.399993658,1,0,0,rectangle,-23.99998891,6.399993658,1,0,0,,3,0.003,0,-23.99998891,6.399993658,1,0,0,0,2,2,4,1,4,first,,,,,,,,,,,,,,,,,,,,,,,,,,,,,,,,,,,,,,,,,,,,,,,,,,,,,,,,,,,,,,,,,,,
,,,,,,61098363298108ee13a5a0df,62bbfb54e7de68c3549c517b,2022-06-29_10h14.33.360,Colour_Asymmetry_Pilot,2022.1.3,Win32,47.99155349,62bbe60bf3d75ef465d3e404,,,,,,,,,,,,,,,,,,,,fourthree,,-4,1.3755,,,,,,,,,,,,,,,,,,,,,,,,,,,,,,,,,,"[-0.06680000000000008,-0.45100000000000007,-0.906]","[-0.4668,-0.8746,-0.2942]",-76.7999897,79.99999475,1,0,0,response7disk,10.4000116,-7.200006545,1,0,0,rectangle,10.4000116,-7.200006545,1,0,0,,3,0.0006,0,10.4000116,-7.200006545,1,0,0,0,3,3,39,1,39,first,,,,,,,,,,,,,,,,,,,,,,,,,,,,,,,,,,,,,,,,,,,,,,,,,,,,,,,,,,,,,,,,,,,
,,,,,,61098363298108ee13a5a0df,62bbfb54e7de68c3549c517b,2022-06-29_10h14.33.360,Colour_Asymmetry_Pilot,2022.1.3,Win32,47.99155349,62bbe60bf3d75ef465d3e404,,,,,,,,,,,,,,,,,,,,threefour,,-2,3.0254,,,,,,,,,,,,,,,,,,,,,,,,,,,,,,,,,,"[-0.6706000000000001,-0.6157999999999999,-0.6786]","[0.11359999999999992,0.6312,0.5213999999999999]",-87.19998986,-48.80000716,1,0,0,response5disk,-1.59998858,-4.800006509,1,0,0,rectangle,-1.59998858,-4.800006509,1,0,0,,2,0.0023,0,-1.59998858,-4.800006509,1,0,0,0,4,4,32,1,32,first,,,,,,,,,,,,,,,,,,,,,,,,,,,,,,,,,,,,,,,,,,,,,,,,,,,,,,,,,,,,,,,,,,,
,,,,,,61098363298108ee13a5a0df,62bbfb54e7de68c3549c517b,2022-06-29_10h14.33.360,Colour_Asymmetry_Pilot,2022.1.3,Win32,47.99155349,62bbe60bf3d75ef465d3e404,,,,,,,,,,,,,,,,,,,,twofour,,3,1.1671,,,,,,,,,,,,,,,,,,,,,,,,,,,,,,,,,,"[0.9763999999999999,0.30979999999999985,-0.6786]","[0.37240000000000006,0.4980000000000002,-0.2864]",102.400013,32.79999405,1,0,0,response1disk,-8.799988687,1.599993587,1,0,0,rectangle,-8.799988687,1.599993587,1,0,0,,3,0.0026,0,-8.799988687,1.599993587,1,0,0,0,5,5,60,1,60,first,,,,,,,,,,,,,,,,,,,,,,,,,,,,,,,,,,,,,,,,,,,,,,,,,,,,,,,,,,,,,,,,,,,
,,,,,,61098363298108ee13a5a0df,62bbfb54e7de68c3549c517b,2022-06-29_10h14.33.360,Colour_Asymmetry_Pilot,2022.1.3,Win32,47.99155349,62bbe60bf3d75ef465d3e404,,,,,,,,,,,,,,,,,,,,onethree,,-3,1.8977,,,,,,,,,,,,,,,,,,,,,,,,,,,,,,,,,,"[-0.24719999999999998,0.5213999999999999,-0.12959999999999994]","[0.9763999999999999,-0.1137999999999999,-0.6314]",-85.59998983,28.79999399,1,0,0,response7disk,3.200011492,-7.200006545,1,0,0,rectangle,3.200011492,-7.200006545,1,0,0,,1,0.0021,0,3.200011492,-7.200006545,1,0,0,0,6,6,123,1,42,second,,,,,,,,,,,,,,,,,,,,,,,,,,,,,,,,,,,,,,,,,,,,,,,,,,,,,,,,,,,,,,,,,,,
,,,,,,61098363298108ee13a5a0df,62bbfb54e7de68c3549c517b,2022-06-29_10h14.33.360,Colour_Asymmetry_Pilot,2022.1.3,Win32,47.99155349,62bbe60bf3d75ef465d3e404,,,,,,,,,,,,,,,,,,,,twofour,,-4,1.0421,,,,,,,,,,,,,,,,,,,,,,,,,,,,,,,,,,"[-0.9688,-0.7412000000000001,-0.4902000000000001]","[0.9686000000000001,0.5763999999999998,0.11359999999999992]",-58.3999406,63.19997009,1,0,0,response7disk,19.20001173,-5.600006521,1,0,0,rectangle,19.20001173,-5.600006521,1,0,0,,1,0.0008,0,19.20001173,-5.600006521,1,0,0,0,7,7,16,1,16,first,,,,,,,,,,,,,,,,,,,,,,,,,,,,,,,,,,,,,,,,,,,,,,,,,,,,,,,,,,,,,,,,,,,
,,,,,,61098363298108ee13a5a0df,62bbfb54e7de68c3549c517b,2022-06-29_10h14.33.360,Colour_Asymmetry_Pilot,2022.1.3,Win32,47.99155349,62bbe60bf3d75ef465d3e404,,,,,,,,,,,,,,,,,,,,onetwo,,3,1.0201,,,,,,,,,,,,,,,,,,,,,,,,,,,,,,,,,,"[-0.10599999999999998,-0.10599999999999998,0.5841999999999998]","[-0.4982,-0.2942,-0.0354000000000001]",99.20001292,55.9999944,1,0,0,response1disk,8.800011575,13.59999377,1,0,0,rectangle,8.800011575,13.59999377,1,0,0,,3,0.0021,0,8.800011575,13.59999377,1,0,0,0,8,8,78,1,78,first,,,,,,,,,,,,,,,,,,,,,,,,,,,,,,,,,,,,,,,,,,,,,,,,,,,,,,,,,,,,,,,,,,,
,,,,,,61098363298108ee13a5a0df,62bbfb54e7de68c3549c517b,2022-06-29_10h14.33.360,Colour_Asymmetry_Pilot,2022.1.3,Win32,47.99155349,62bbe60bf3d75ef465d3e404,,,,,,,,,,,,,,,,,,,,twofour,,4,1.1262,,,,,,,,,,,,,,,,,,,,,,,,,,,,,,,,,,"[0.6547999999999998,-0.043199999999999905,-0.011800000000000033]","[0.6547999999999998,-0.043199999999999905,-0.011800000000000033]",60.80001235,83.19997039,1,0,0,response1disk,-3.199988604,-5.600006521,1,0,0,rectangle,-3.199988604,-5.600006521,1,0,0,,2,0.0022,0,-3.199988604,-5.600006521,1,0,0,0,9,9,19,1,19,first,,,,,,,,,,,,,,,,,,,,,,,,,,,,,,,,,,,,,,,,,,,,,,,,,,,,,,,,,,,,,,,,,,,
,,,,,,61098363298108ee13a5a0df,62bbfb54e7de68c3549c517b,2022-06-29_10h14.33.360,Colour_Asymmetry_Pilot,2022.1.3,Win32,47.99155349,62bbe60bf3d75ef465d3e404,,,,,,,,,,,,,,,,,,,,twoone,,1,1.2931,,,,,,,,,,,,,,,,,,,,,,,,,,,,,,,,,,"[0.6547999999999998,-0.043199999999999905,-0.011800000000000033]","[0.2784,-0.31000000000000005,-0.5452]",44.80001211,-65.60000741,1,0,0,response3disk,12.80001163,3.19999361,1,0,0,rectangle,12.80001163,3.19999361,1,0,0,,2,0.0004,0,12.80001163,3.19999361,1,0,0,0,10,10,88,1,7,second,,,,,,,,,,,,,,,,,,,,,,,,,,,,,,,,,,,,,,,,,,,,,,,,,,,,,,,,,,,,,,,,,,,
,,,,,,61098363298108ee13a5a0df,62bbfb54e7de68c3549c517b,2022-06-29_10h14.33.360,Colour_Asymmetry_Pilot,2022.1.3,Win32,47.99155349,62bbe60bf3d75ef465d3e404,,,,,,,,,,,,,,,,,,,,twofour,,3,1.5488,,,,,,,,,,,,,,,,,,,,,,,,,,,,,,,,,,"[-0.20799999999999996,-0.655,-0.01980000000000004]","[-0.6942,-0.7648,-0.12959999999999994]",90.40001279,33.59999406,1,0,0,response1disk,30.4000119,-2.400006473,1,0,0,rectangle,30.4000119,-2.400006473,1,0,0,,3,0.0025,0,30.4000119,-2.400006473,1,0,0,0,11,11,115,1,34,second,,,,,,,,,,,,,,,,,,,,,,,,,,,,,,,,,,,,,,,,,,,,,,,,,,,,,,,,,,,,,,,,,,,
,,,,,,61098363298108ee13a5a0df,62bbfb54e7de68c3549c517b,2022-06-29_10h14.33.360,Colour_Asymmetry_Pilot,2022.1.3,Win32,47.99155349,62bbe60bf3d75ef465d3e404,,,,,,,,,,,,,,,,,,,,twoone,,-4,0.9384,,,,,,,,,,,,,,,,,,,,,,,,,,,,,,,,,,"[-0.9688,-0.7412000000000001,-0.4902000000000001]","[0.9686000000000001,0.5763999999999998,0.11359999999999992]",-63.1999895,64.79999453,1,0,0,response7disk,-11.19998872,14.39999378,1,0,0,rectangle,-11.19998872,14.39999378,1,0,0,,3,0.0011,0,-11.19998872,14.39999378,1,0,0,0,12,12,108,1,27,second,,,,,,,,,,,,,,,,,,,,,,,,,,,,,,,,,,,,,,,,,,,,,,,,,,,,,,,,,,,,,,,,,,,
,,,,,,61098363298108ee13a5a0df,62bbfb54e7de68c3549c517b,2022-06-29_10h14.33.360,Colour_Asymmetry_Pilot,2022.1.3,Win32,47.99155349,62bbe60bf3d75ef465d3e404,,,,,,,,,,,,,,,,,,,,onethree,,3,0.882,,,,,,,,,,,,,,,,,,,,,,,,,,,,,,,,,,"[-0.9296,-0.12959999999999994,-0.043199999999999905]","[0.11359999999999992,0.6312,0.5213999999999999]",59.20001233,34.39999408,1,0,0,response1disk,7.200011551,14.39999378,1,0,0,rectangle,7.200011551,14.39999378,1,0,0,,1,0.0028,0,7.200011551,14.39999378,1,0,0,0,13,13,8,1,8,first,,,,,,,,,,,,,,,,,,,,,,,,,,,,,,,,,,,,,,,,,,,,,,,,,,,,,,,,,,,,,,,,,,,
,,,,,,61098363298108ee13a5a0df,62bbfb54e7de68c3549c517b,2022-06-29_10h14.33.360,Colour_Asymmetry_Pilot,2022.1.3,Win32,47.99155349,62bbe60bf3d75ef465d3e404,,,,,,,,,,,,,,,,,,,,fourtwo,,-4,1.6658,,,,,,,,,,,,,,,,,,,,,,,,,,,,,,,,,,"[-0.9688,-0.7412000000000001,-0.4902000000000001]","[0.34099999999999997,0.12939999999999996,-0.9766]",-29.599989,71.19997021,1,0,0,response7disk,1.14441E-05,2.399993598,1,0,0,rectangle,1.14441E-05,2.399993598,1,0,0,,3,0.0027,0,1.14441E-05,2.399993598,1,0,0,0,14,14,125,1,44,second,,,,,,,,,,,,,,,,,,,,,,,,,,,,,,,,,,,,,,,,,,,,,,,,,,,,,,,,,,,,,,,,,,,
,,,,,,61098363298108ee13a5a0df,62bbfb54e7de68c3549c517b,2022-06-29_10h14.33.360,Colour_Asymmetry_Pilot,2022.1.3,Win32,47.99155349,62bbe60bf3d75ef465d3e404,,,,,,,,,,,,,,,,,,,,onethree,,-3,3.3542,,,,,,,,,,,,,,,,,,,,,,,,,,,,,,,,,,"[0.23120000000000007,-0.7726,-0.34120000000000006]","[-0.45899999999999996,-0.3256,-0.9374]",-81.59998977,55.19996997,1,0,0,response7disk,-1.59998858,3.999993622,1,0,0,rectangle,-1.59998858,3.999993622,1,0,0,,3,0.0006,0,-1.59998858,3.999993622,1,0,0,0,15,15,140,1,59,second,,,,,,,,,,,,,,,,,,,,,,,,,,,,,,,,,,,,,,,,,,,,,,,,,,,,,,,,,,,,,,,,,,,
,,,,,,61098363298108ee13a5a0df,62bbfb54e7de68c3549c517b,2022-06-29_10h14.33.360,Colour_Asymmetry_Pilot,2022.1.3,Win32,47.99155349,62bbe60bf3d75ef465d3e404,,,,,,,,,,,,,,,,,,,,threeone,,1,1.3543,,,,,,,,,,,,,,,,,,,,,,,,,,,,,,,,,,"[-0.9688,-0.38039999999999996,-0.41979999999999995]","[-0.4982,-0.2942,-0.0354000000000001]",73.60001254,-90.40000778,1,0,0,response3disk,9.600060415,-11.2000066,1,0,0,rectangle,9.600060415,-11.2000066,1,0,0,,3,0.0006,0,9.600060415,-11.2000066,1,0,0,0,16,16,6,1,6,first,,,,,,,,,,,,,,,,,,,,,,,,,,,,,,,,,,,,,,,,,,,,,,,,,,,,,,,,,,,,,,,,,,,
