trials.thisRepN,trials.thisTrialN,trials.thisN,trials.thisIndex,trials.ran,Colourcodes,participant,session,date,expName,psychopyVersion,OS,frameRate,study_id,trials_4.thisRepN,trials_4.thisTrialN,trials_4.thisN,trials_4.thisIndex,trials_4.ran,StimulusPos,key_resp.keys,key_resp.rt,key_resp_2.keys,key_resp_2.rt,key_resp_15.keys,key_resp_15.rt,key_resp_17.keys,key_resp_17.rt,key_resp_9.keys,key_resp_9.rt,key_resp_10.keys,key_resp_10.rt,Circle1_col,Ecc,Circle2_col,similarity,response_time,mouse_5.x,mouse_5.y,mouse_5.leftButton,mouse_5.midButton,mouse_5.rightButton,mouse_5.clicked_name,mouse_10.x,mouse_10.y,mouse_10.leftButton,mouse_10.midButton,mouse_10.rightButton,mouse_10.clicked_name,mouse_7.x,mouse_7.y,mouse_7.leftButton,mouse_7.midButton,mouse_7.rightButton,mouse_7.clicked_name,catchprac,catchnumberprac,mouse_6.x,mouse_6.y,mouse_6.leftButton,mouse_6.midButton,mouse_6.rightButton,mouse_6.clicked_name,duringprac.thisRepN,duringprac.thisTrialN,duringprac.thisN,duringprac.thisIndex,duringprac.ran,key_resp_22.keys,key_resp_22.rt,Circle1_colour,Circle2_colour,mouse.x,mouse.y,mouse.leftButton,mouse.midButton,mouse.rightButton,mouse.clicked_name,mouse_2.x,mouse_2.y,mouse_2.leftButton,mouse_2.midButton,mouse_2.rightButton,mouse_2.clicked_name,mouse_3.x,mouse_3.y,mouse_3.leftButton,mouse_3.midButton,mouse_3.rightButton,catchresponse,catchnumber,response_time_catch,Catch,mouse_11.x,mouse_11.y,mouse_11.leftButton,mouse_11.midButton,mouse_11.rightButton,trials_2.thisRepN,trials_2.thisTrialN,trials_2.thisN,trials_2.thisIndex,trials_2.ran,Colourpair,Temporder,mouse_3.clicked_name,mouse_11.clicked_name,trials_3.thisRepN,trials_3.thisTrialN,trials_3.thisN,trials_3.thisIndex,trials_3.ran,key_resp_instr_Ishi.keys,key_resp_instr_Ishi.rt,Ishi_trial_keyresp.keys,Ishi_trial_keyresp.rt,Ishi_textbox.text,Ishi_loop.thisRepN,Ishi_loop.thisTrialN,Ishi_loop.thisN,Ishi_loop.thisIndex,Ishi_loop.ran,imageaddress,textbox.text,mouse_4.x,mouse_4.y,mouse_4.leftButton,mouse_4.midButton,mouse_4.rightButton,mouse_4.clicked_name,textbox_2.text,mouse_8.x,mouse_8.y,mouse_8.leftButton,mouse_8.midButton,mouse_8.rightButton,mouse_8.clicked_name,textbox_3.text,mouse_9.x,mouse_9.y,mouse_9.leftButton,mouse_9.midButton,mouse_9.rightButton,mouse_9.clicked_name,textbox_4.text,mouse_12.x,mouse_12.y,mouse_12.leftButton,mouse_12.midButton,mouse_12.rightButton,mouse_12.clicked_name,textbox_5.text,mouse_13.x,mouse_13.y,mouse_13.leftButton,mouse_13.midButton,mouse_13.rightButton,mouse_13.clicked_name,textbox_6.text,mouse_14.x,mouse_14.y,mouse_14.leftButton,mouse_14.midButton,mouse_14.rightButton,mouse_14.clicked_name,textbox_7.text,mouse_15.x,mouse_15.y,mouse_15.leftButton,mouse_15.midButton,mouse_15.rightButton,mouse_15.clicked_name
0,0,0,19,1,,60e504dc5f86f5b0e2eb6d17,62b2acae08a09df01d7fa964,2022-06-22_06h46.28.882,Colour_Asymmetry_Pilot,2022.1.3,Win32,143.9884809,62b2a6a25f2ba72662469a01,,,,,,,,,,,,,,,,,,,,,,,,,,,,,,,,,,,,,,,,,,,,,,,,,,,,,,,,,,,,,,,,,,,,,,,,,,,,,,,,,,,,,,,,,,,,,,,,,,,,,,,,,,,,,,,,,,,,,,,,,,,,,,,,,,,,,,,,,,,,,,,,,,,,,,,,,,,,,,
0,1,1,59,1,,60e504dc5f86f5b0e2eb6d17,62b2acae08a09df01d7fa964,2022-06-22_06h46.28.882,Colour_Asymmetry_Pilot,2022.1.3,Win32,143.9884809,62b2a6a25f2ba72662469a01,,,,,,,,,,,,,,,,,,,,,,,,,,,,,,,,,,,,,,,,,,,,,,,,,,,,,,,,,,,,,,,,,,,,,,,,,,,,,,,,,,,,,,,,,,,,,,,,,,,,,,,,,,,,,,,,,,,,,,,,,,,,,,,,,,,,,,,,,,,,,,,,,,,,,,,,,,,,,,
0,2,2,45,1,,60e504dc5f86f5b0e2eb6d17,62b2acae08a09df01d7fa964,2022-06-22_06h46.28.882,Colour_Asymmetry_Pilot,2022.1.3,Win32,143.9884809,62b2a6a25f2ba72662469a01,,,,,,,,,,,,,,,,,,,,,,,,,,,,,,,,,,,,,,,,,,,,,,,,,,,,,,,,,,,,,,,,,,,,,,,,,,,,,,,,,,,,,,,,,,,,,,,,,,,,,,,,,,,,,,,,,,,,,,,,,,,,,,,,,,,,,,,,,,,,,,,,,,,,,,,,,,,,,,
0,3,3,54,1,,60e504dc5f86f5b0e2eb6d17,62b2acae08a09df01d7fa964,2022-06-22_06h46.28.882,Colour_Asymmetry_Pilot,2022.1.3,Win32,143.9884809,62b2a6a25f2ba72662469a01,,,,,,,,,,,,,,,,,,,,,,,,,,,,,,,,,,,,,,,,,,,,,,,,,,,,,,,,,,,,,,,,,,,,,,,,,,,,,,,,,,,,,,,,,,,,,,,,,,,,,,,,,,,,,,,,,,,,,,,,,,,,,,,,,,,,,,,,,,,,,,,,,,,,,,,,,,,,,,
0,4,4,92,1,,60e504dc5f86f5b0e2eb6d17,62b2acae08a09df01d7fa964,2022-06-22_06h46.28.882,Colour_Asymmetry_Pilot,2022.1.3,Win32,143.9884809,62b2a6a25f2ba72662469a01,,,,,,,,,,,,,,,,,,,,,,,,,,,,,,,,,,,,,,,,,,,,,,,,,,,,,,,,,,,,,,,,,,,,,,,,,,,,,,,,,,,,,,,,,,,,,,,,,,,,,,,,,,,,,,,,,,,,,,,,,,,,,,,,,,,,,,,,,,,,,,,,,,,,,,,,,,,,,,
0,5,5,47,1,,60e504dc5f86f5b0e2eb6d17,62b2acae08a09df01d7fa964,2022-06-22_06h46.28.882,Colour_Asymmetry_Pilot,2022.1.3,Win32,143.9884809,62b2a6a25f2ba72662469a01,,,,,,,,,,,,,,,,,,,,,,,,,,,,,,,,,,,,,,,,,,,,,,,,,,,,,,,,,,,,,,,,,,,,,,,,,,,,,,,,,,,,,,,,,,,,,,,,,,,,,,,,,,,,,,,,,,,,,,,,,,,,,,,,,,,,,,,,,,,,,,,,,,,,,,,,,,,,,,
0,6,6,37,1,,60e504dc5f86f5b0e2eb6d17,62b2acae08a09df01d7fa964,2022-06-22_06h46.28.882,Colour_Asymmetry_Pilot,2022.1.3,Win32,143.9884809,62b2a6a25f2ba72662469a01,,,,,,,,,,,,,,,,,,,,,,,,,,,,,,,,,,,,,,,,,,,,,,,,,,,,,,,,,,,,,,,,,,,,,,,,,,,,,,,,,,,,,,,,,,,,,,,,,,,,,,,,,,,,,,,,,,,,,,,,,,,,,,,,,,,,,,,,,,,,,,,,,,,,,,,,,,,,,,
0,7,7,46,1,,60e504dc5f86f5b0e2eb6d17,62b2acae08a09df01d7fa964,2022-06-22_06h46.28.882,Colour_Asymmetry_Pilot,2022.1.3,Win32,143.9884809,62b2a6a25f2ba72662469a01,,,,,,,,,,,,,,,,,,,,,,,,,,,,,,,,,,,,,,,,,,,,,,,,,,,,,,,,,,,,,,,,,,,,,,,,,,,,,,,,,,,,,,,,,,,,,,,,,,,,,,,,,,,,,,,,,,,,,,,,,,,,,,,,,,,,,,,,,,,,,,,,,,,,,,,,,,,,,,
0,8,8,2,1,,60e504dc5f86f5b0e2eb6d17,62b2acae08a09df01d7fa964,2022-06-22_06h46.28.882,Colour_Asymmetry_Pilot,2022.1.3,Win32,143.9884809,62b2a6a25f2ba72662469a01,,,,,,,,,,,,,,,,,,,,,,,,,,,,,,,,,,,,,,,,,,,,,,,,,,,,,,,,,,,,,,,,,,,,,,,,,,,,,,,,,,,,,,,,,,,,,,,,,,,,,,,,,,,,,,,,,,,,,,,,,,,,,,,,,,,,,,,,,,,,,,,,,,,,,,,,,,,,,,
0,9,9,83,1,,60e504dc5f86f5b0e2eb6d17,62b2acae08a09df01d7fa964,2022-06-22_06h46.28.882,Colour_Asymmetry_Pilot,2022.1.3,Win32,143.9884809,62b2a6a25f2ba72662469a01,,,,,,,,,,,,,,,,,,,,,,,,,,,,,,,,,,,,,,,,,,,,,,,,,,,,,,,,,,,,,,,,,,,,,,,,,,,,,,,,,,,,,,,,,,,,,,,,,,,,,,,,,,,,,,,,,,,,,,,,,,,,,,,,,,,,,,,,,,,,,,,,,,,,,,,,,,,,,,
0,10,10,23,1,,60e504dc5f86f5b0e2eb6d17,62b2acae08a09df01d7fa964,2022-06-22_06h46.28.882,Colour_Asymmetry_Pilot,2022.1.3,Win32,143.9884809,62b2a6a25f2ba72662469a01,,,,,,,,,,,,,,,,,,,,,,,,,,,,,,,,,,,,,,,,,,,,,,,,,,,,,,,,,,,,,,,,,,,,,,,,,,,,,,,,,,,,,,,,,,,,,,,,,,,,,,,,,,,,,,,,,,,,,,,,,,,,,,,,,,,,,,,,,,,,,,,,,,,,,,,,,,,,,,
0,11,11,18,1,,60e504dc5f86f5b0e2eb6d17,62b2acae08a09df01d7fa964,2022-06-22_06h46.28.882,Colour_Asymmetry_Pilot,2022.1.3,Win32,143.9884809,62b2a6a25f2ba72662469a01,,,,,,,,,,,,,,,,,,,,,,,,,,,,,,,,,,,,,,,,,,,,,,,,,,,,,,,,,,,,,,,,,,,,,,,,,,,,,,,,,,,,,,,,,,,,,,,,,,,,,,,,,,,,,,,,,,,,,,,,,,,,,,,,,,,,,,,,,,,,,,,,,,,,,,,,,,,,,,
0,12,12,81,1,,60e504dc5f86f5b0e2eb6d17,62b2acae08a09df01d7fa964,2022-06-22_06h46.28.882,Colour_Asymmetry_Pilot,2022.1.3,Win32,143.9884809,62b2a6a25f2ba72662469a01,,,,,,,,,,,,,,,,,,,,,,,,,,,,,,,,,,,,,,,,,,,,,,,,,,,,,,,,,,,,,,,,,,,,,,,,,,,,,,,,,,,,,,,,,,,,,,,,,,,,,,,,,,,,,,,,,,,,,,,,,,,,,,,,,,,,,,,,,,,,,,,,,,,,,,,,,,,,,,
0,13,13,51,1,,60e504dc5f86f5b0e2eb6d17,62b2acae08a09df01d7fa964,2022-06-22_06h46.28.882,Colour_Asymmetry_Pilot,2022.1.3,Win32,143.9884809,62b2a6a25f2ba72662469a01,,,,,,,,,,,,,,,,,,,,,,,,,,,,,,,,,,,,,,,,,,,,,,,,,,,,,,,,,,,,,,,,,,,,,,,,,,,,,,,,,,,,,,,,,,,,,,,,,,,,,,,,,,,,,,,,,,,,,,,,,,,,,,,,,,,,,,,,,,,,,,,,,,,,,,,,,,,,,,
0,14,14,3,1,,60e504dc5f86f5b0e2eb6d17,62b2acae08a09df01d7fa964,2022-06-22_06h46.28.882,Colour_Asymmetry_Pilot,2022.1.3,Win32,143.9884809,62b2a6a25f2ba72662469a01,,,,,,,,,,,,,,,,,,,,,,,,,,,,,,,,,,,,,,,,,,,,,,,,,,,,,,,,,,,,,,,,,,,,,,,,,,,,,,,,,,,,,,,,,,,,,,,,,,,,,,,,,,,,,,,,,,,,,,,,,,,,,,,,,,,,,,,,,,,,,,,,,,,,,,,,,,,,,,
0,15,15,9,1,,60e504dc5f86f5b0e2eb6d17,62b2acae08a09df01d7fa964,2022-06-22_06h46.28.882,Colour_Asymmetry_Pilot,2022.1.3,Win32,143.9884809,62b2a6a25f2ba72662469a01,,,,,,,,,,,,,,,,,,,,,,,,,,,,,,,,,,,,,,,,,,,,,,,,,,,,,,,,,,,,,,,,,,,,,,,,,,,,,,,,,,,,,,,,,,,,,,,,,,,,,,,,,,,,,,,,,,,,,,,,,,,,,,,,,,,,,,,,,,,,,,,,,,,,,,,,,,,,,,
0,16,16,62,1,,60e504dc5f86f5b0e2eb6d17,62b2acae08a09df01d7fa964,2022-06-22_06h46.28.882,Colour_Asymmetry_Pilot,2022.1.3,Win32,143.9884809,62b2a6a25f2ba72662469a01,,,,,,,,,,,,,,,,,,,,,,,,,,,,,,,,,,,,,,,,,,,,,,,,,,,,,,,,,,,,,,,,,,,,,,,,,,,,,,,,,,,,,,,,,,,,,,,,,,,,,,,,,,,,,,,,,,,,,,,,,,,,,,,,,,,,,,,,,,,,,,,,,,,,,,,,,,,,,,
0,17,17,41,1,,60e504dc5f86f5b0e2eb6d17,62b2acae08a09df01d7fa964,2022-06-22_06h46.28.882,Colour_Asymmetry_Pilot,2022.1.3,Win32,143.9884809,62b2a6a25f2ba72662469a01,,,,,,,,,,,,,,,,,,,,,,,,,,,,,,,,,,,,,,,,,,,,,,,,,,,,,,,,,,,,,,,,,,,,,,,,,,,,,,,,,,,,,,,,,,,,,,,,,,,,,,,,,,,,,,,,,,,,,,,,,,,,,,,,,,,,,,,,,,,,,,,,,,,,,,,,,,,,,,
0,18,18,44,1,,60e504dc5f86f5b0e2eb6d17,62b2acae08a09df01d7fa964,2022-06-22_06h46.28.882,Colour_Asymmetry_Pilot,2022.1.3,Win32,143.9884809,62b2a6a25f2ba72662469a01,,,,,,,,,,,,,,,,,,,,,,,,,,,,,,,,,,,,,,,,,,,,,,,,,,,,,,,,,,,,,,,,,,,,,,,,,,,,,,,,,,,,,,,,,,,,,,,,,,,,,,,,,,,,,,,,,,,,,,,,,,,,,,,,,,,,,,,,,,,,,,,,,,,,,,,,,,,,,,
0,19,19,34,1,,60e504dc5f86f5b0e2eb6d17,62b2acae08a09df01d7fa964,2022-06-22_06h46.28.882,Colour_Asymmetry_Pilot,2022.1.3,Win32,143.9884809,62b2a6a25f2ba72662469a01,,,,,,,,,,,,,,,,,,,,,,,,,,,,,,,,,,,,,,,,,,,,,,,,,,,,,,,,,,,,,,,,,,,,,,,,,,,,,,,,,,,,,,,,,,,,,,,,,,,,,,,,,,,,,,,,,,,,,,,,,,,,,,,,,,,,,,,,,,,,,,,,,,,,,,,,,,,,,,
0,20,20,78,1,,60e504dc5f86f5b0e2eb6d17,62b2acae08a09df01d7fa964,2022-06-22_06h46.28.882,Colour_Asymmetry_Pilot,2022.1.3,Win32,143.9884809,62b2a6a25f2ba72662469a01,,,,,,,,,,,,,,,,,,,,,,,,,,,,,,,,,,,,,,,,,,,,,,,,,,,,,,,,,,,,,,,,,,,,,,,,,,,,,,,,,,,,,,,,,,,,,,,,,,,,,,,,,,,,,,,,,,,,,,,,,,,,,,,,,,,,,,,,,,,,,,,,,,,,,,,,,,,,,,
0,21,21,26,1,,60e504dc5f86f5b0e2eb6d17,62b2acae08a09df01d7fa964,2022-06-22_06h46.28.882,Colour_Asymmetry_Pilot,2022.1.3,Win32,143.9884809,62b2a6a25f2ba72662469a01,,,,,,,,,,,,,,,,,,,,,,,,,,,,,,,,,,,,,,,,,,,,,,,,,,,,,,,,,,,,,,,,,,,,,,,,,,,,,,,,,,,,,,,,,,,,,,,,,,,,,,,,,,,,,,,,,,,,,,,,,,,,,,,,,,,,,,,,,,,,,,,,,,,,,,,,,,,,,,
0,22,22,16,1,,60e504dc5f86f5b0e2eb6d17,62b2acae08a09df01d7fa964,2022-06-22_06h46.28.882,Colour_Asymmetry_Pilot,2022.1.3,Win32,143.9884809,62b2a6a25f2ba72662469a01,,,,,,,,,,,,,,,,,,,,,,,,,,,,,,,,,,,,,,,,,,,,,,,,,,,,,,,,,,,,,,,,,,,,,,,,,,,,,,,,,,,,,,,,,,,,,,,,,,,,,,,,,,,,,,,,,,,,,,,,,,,,,,,,,,,,,,,,,,,,,,,,,,,,,,,,,,,,,,
0,23,23,28,1,,60e504dc5f86f5b0e2eb6d17,62b2acae08a09df01d7fa964,2022-06-22_06h46.28.882,Colour_Asymmetry_Pilot,2022.1.3,Win32,143.9884809,62b2a6a25f2ba72662469a01,,,,,,,,,,,,,,,,,,,,,,,,,,,,,,,,,,,,,,,,,,,,,,,,,,,,,,,,,,,,,,,,,,,,,,,,,,,,,,,,,,,,,,,,,,,,,,,,,,,,,,,,,,,,,,,,,,,,,,,,,,,,,,,,,,,,,,,,,,,,,,,,,,,,,,,,,,,,,,
0,24,24,27,1,,60e504dc5f86f5b0e2eb6d17,62b2acae08a09df01d7fa964,2022-06-22_06h46.28.882,Colour_Asymmetry_Pilot,2022.1.3,Win32,143.9884809,62b2a6a25f2ba72662469a01,,,,,,,,,,,,,,,,,,,,,,,,,,,,,,,,,,,,,,,,,,,,,,,,,,,,,,,,,,,,,,,,,,,,,,,,,,,,,,,,,,,,,,,,,,,,,,,,,,,,,,,,,,,,,,,,,,,,,,,,,,,,,,,,,,,,,,,,,,,,,,,,,,,,,,,,,,,,,,
0,25,25,17,1,,60e504dc5f86f5b0e2eb6d17,62b2acae08a09df01d7fa964,2022-06-22_06h46.28.882,Colour_Asymmetry_Pilot,2022.1.3,Win32,143.9884809,62b2a6a25f2ba72662469a01,,,,,,,,,,,,,,,,,,,,,,,,,,,,,,,,,,,,,,,,,,,,,,,,,,,,,,,,,,,,,,,,,,,,,,,,,,,,,,,,,,,,,,,,,,,,,,,,,,,,,,,,,,,,,,,,,,,,,,,,,,,,,,,,,,,,,,,,,,,,,,,,,,,,,,,,,,,,,,
0,26,26,25,1,,60e504dc5f86f5b0e2eb6d17,62b2acae08a09df01d7fa964,2022-06-22_06h46.28.882,Colour_Asymmetry_Pilot,2022.1.3,Win32,143.9884809,62b2a6a25f2ba72662469a01,,,,,,,,,,,,,,,,,,,,,,,,,,,,,,,,,,,,,,,,,,,,,,,,,,,,,,,,,,,,,,,,,,,,,,,,,,,,,,,,,,,,,,,,,,,,,,,,,,,,,,,,,,,,,,,,,,,,,,,,,,,,,,,,,,,,,,,,,,,,,,,,,,,,,,,,,,,,,,
0,27,27,57,1,,60e504dc5f86f5b0e2eb6d17,62b2acae08a09df01d7fa964,2022-06-22_06h46.28.882,Colour_Asymmetry_Pilot,2022.1.3,Win32,143.9884809,62b2a6a25f2ba72662469a01,,,,,,,,,,,,,,,,,,,,,,,,,,,,,,,,,,,,,,,,,,,,,,,,,,,,,,,,,,,,,,,,,,,,,,,,,,,,,,,,,,,,,,,,,,,,,,,,,,,,,,,,,,,,,,,,,,,,,,,,,,,,,,,,,,,,,,,,,,,,,,,,,,,,,,,,,,,,,,
0,28,28,31,1,,60e504dc5f86f5b0e2eb6d17,62b2acae08a09df01d7fa964,2022-06-22_06h46.28.882,Colour_Asymmetry_Pilot,2022.1.3,Win32,143.9884809,62b2a6a25f2ba72662469a01,,,,,,,,,,,,,,,,,,,,,,,,,,,,,,,,,,,,,,,,,,,,,,,,,,,,,,,,,,,,,,,,,,,,,,,,,,,,,,,,,,,,,,,,,,,,,,,,,,,,,,,,,,,,,,,,,,,,,,,,,,,,,,,,,,,,,,,,,,,,,,,,,,,,,,,,,,,,,,
0,29,29,85,1,,60e504dc5f86f5b0e2eb6d17,62b2acae08a09df01d7fa964,2022-06-22_06h46.28.882,Colour_Asymmetry_Pilot,2022.1.3,Win32,143.9884809,62b2a6a25f2ba72662469a01,,,,,,,,,,,,,,,,,,,,,,,,,,,,,,,,,,,,,,,,,,,,,,,,,,,,,,,,,,,,,,,,,,,,,,,,,,,,,,,,,,,,,,,,,,,,,,,,,,,,,,,,,,,,,,,,,,,,,,,,,,,,,,,,,,,,,,,,,,,,,,,,,,,,,,,,,,,,,,
0,30,30,43,1,,60e504dc5f86f5b0e2eb6d17,62b2acae08a09df01d7fa964,2022-06-22_06h46.28.882,Colour_Asymmetry_Pilot,2022.1.3,Win32,143.9884809,62b2a6a25f2ba72662469a01,,,,,,,,,,,,,,,,,,,,,,,,,,,,,,,,,,,,,,,,,,,,,,,,,,,,,,,,,,,,,,,,,,,,,,,,,,,,,,,,,,,,,,,,,,,,,,,,,,,,,,,,,,,,,,,,,,,,,,,,,,,,,,,,,,,,,,,,,,,,,,,,,,,,,,,,,,,,,,
0,31,31,74,1,,60e504dc5f86f5b0e2eb6d17,62b2acae08a09df01d7fa964,2022-06-22_06h46.28.882,Colour_Asymmetry_Pilot,2022.1.3,Win32,143.9884809,62b2a6a25f2ba72662469a01,,,,,,,,,,,,,,,,,,,,,,,,,,,,,,,,,,,,,,,,,,,,,,,,,,,,,,,,,,,,,,,,,,,,,,,,,,,,,,,,,,,,,,,,,,,,,,,,,,,,,,,,,,,,,,,,,,,,,,,,,,,,,,,,,,,,,,,,,,,,,,,,,,,,,,,,,,,,,,
0,32,32,33,1,,60e504dc5f86f5b0e2eb6d17,62b2acae08a09df01d7fa964,2022-06-22_06h46.28.882,Colour_Asymmetry_Pilot,2022.1.3,Win32,143.9884809,62b2a6a25f2ba72662469a01,,,,,,,,,,,,,,,,,,,,,,,,,,,,,,,,,,,,,,,,,,,,,,,,,,,,,,,,,,,,,,,,,,,,,,,,,,,,,,,,,,,,,,,,,,,,,,,,,,,,,,,,,,,,,,,,,,,,,,,,,,,,,,,,,,,,,,,,,,,,,,,,,,,,,,,,,,,,,,
0,33,33,72,1,,60e504dc5f86f5b0e2eb6d17,62b2acae08a09df01d7fa964,2022-06-22_06h46.28.882,Colour_Asymmetry_Pilot,2022.1.3,Win32,143.9884809,62b2a6a25f2ba72662469a01,,,,,,,,,,,,,,,,,,,,,,,,,,,,,,,,,,,,,,,,,,,,,,,,,,,,,,,,,,,,,,,,,,,,,,,,,,,,,,,,,,,,,,,,,,,,,,,,,,,,,,,,,,,,,,,,,,,,,,,,,,,,,,,,,,,,,,,,,,,,,,,,,,,,,,,,,,,,,,
0,34,34,35,1,,60e504dc5f86f5b0e2eb6d17,62b2acae08a09df01d7fa964,2022-06-22_06h46.28.882,Colour_Asymmetry_Pilot,2022.1.3,Win32,143.9884809,62b2a6a25f2ba72662469a01,,,,,,,,,,,,,,,,,,,,,,,,,,,,,,,,,,,,,,,,,,,,,,,,,,,,,,,,,,,,,,,,,,,,,,,,,,,,,,,,,,,,,,,,,,,,,,,,,,,,,,,,,,,,,,,,,,,,,,,,,,,,,,,,,,,,,,,,,,,,,,,,,,,,,,,,,,,,,,
0,35,35,14,1,,60e504dc5f86f5b0e2eb6d17,62b2acae08a09df01d7fa964,2022-06-22_06h46.28.882,Colour_Asymmetry_Pilot,2022.1.3,Win32,143.9884809,62b2a6a25f2ba72662469a01,,,,,,,,,,,,,,,,,,,,,,,,,,,,,,,,,,,,,,,,,,,,,,,,,,,,,,,,,,,,,,,,,,,,,,,,,,,,,,,,,,,,,,,,,,,,,,,,,,,,,,,,,,,,,,,,,,,,,,,,,,,,,,,,,,,,,,,,,,,,,,,,,,,,,,,,,,,,,,
0,36,36,52,1,,60e504dc5f86f5b0e2eb6d17,62b2acae08a09df01d7fa964,2022-06-22_06h46.28.882,Colour_Asymmetry_Pilot,2022.1.3,Win32,143.9884809,62b2a6a25f2ba72662469a01,,,,,,,,,,,,,,,,,,,,,,,,,,,,,,,,,,,,,,,,,,,,,,,,,,,,,,,,,,,,,,,,,,,,,,,,,,,,,,,,,,,,,,,,,,,,,,,,,,,,,,,,,,,,,,,,,,,,,,,,,,,,,,,,,,,,,,,,,,,,,,,,,,,,,,,,,,,,,,
0,37,37,73,1,,60e504dc5f86f5b0e2eb6d17,62b2acae08a09df01d7fa964,2022-06-22_06h46.28.882,Colour_Asymmetry_Pilot,2022.1.3,Win32,143.9884809,62b2a6a25f2ba72662469a01,,,,,,,,,,,,,,,,,,,,,,,,,,,,,,,,,,,,,,,,,,,,,,,,,,,,,,,,,,,,,,,,,,,,,,,,,,,,,,,,,,,,,,,,,,,,,,,,,,,,,,,,,,,,,,,,,,,,,,,,,,,,,,,,,,,,,,,,,,,,,,,,,,,,,,,,,,,,,,
0,38,38,42,1,,60e504dc5f86f5b0e2eb6d17,62b2acae08a09df01d7fa964,2022-06-22_06h46.28.882,Colour_Asymmetry_Pilot,2022.1.3,Win32,143.9884809,62b2a6a25f2ba72662469a01,,,,,,,,,,,,,,,,,,,,,,,,,,,,,,,,,,,,,,,,,,,,,,,,,,,,,,,,,,,,,,,,,,,,,,,,,,,,,,,,,,,,,,,,,,,,,,,,,,,,,,,,,,,,,,,,,,,,,,,,,,,,,,,,,,,,,,,,,,,,,,,,,,,,,,,,,,,,,,
0,39,39,79,1,,60e504dc5f86f5b0e2eb6d17,62b2acae08a09df01d7fa964,2022-06-22_06h46.28.882,Colour_Asymmetry_Pilot,2022.1.3,Win32,143.9884809,62b2a6a25f2ba72662469a01,,,,,,,,,,,,,,,,,,,,,,,,,,,,,,,,,,,,,,,,,,,,,,,,,,,,,,,,,,,,,,,,,,,,,,,,,,,,,,,,,,,,,,,,,,,,,,,,,,,,,,,,,,,,,,,,,,,,,,,,,,,,,,,,,,,,,,,,,,,,,,,,,,,,,,,,,,,,,,
0,40,40,50,1,,60e504dc5f86f5b0e2eb6d17,62b2acae08a09df01d7fa964,2022-06-22_06h46.28.882,Colour_Asymmetry_Pilot,2022.1.3,Win32,143.9884809,62b2a6a25f2ba72662469a01,,,,,,,,,,,,,,,,,,,,,,,,,,,,,,,,,,,,,,,,,,,,,,,,,,,,,,,,,,,,,,,,,,,,,,,,,,,,,,,,,,,,,,,,,,,,,,,,,,,,,,,,,,,,,,,,,,,,,,,,,,,,,,,,,,,,,,,,,,,,,,,,,,,,,,,,,,,,,,
0,41,41,65,1,,60e504dc5f86f5b0e2eb6d17,62b2acae08a09df01d7fa964,2022-06-22_06h46.28.882,Colour_Asymmetry_Pilot,2022.1.3,Win32,143.9884809,62b2a6a25f2ba72662469a01,,,,,,,,,,,,,,,,,,,,,,,,,,,,,,,,,,,,,,,,,,,,,,,,,,,,,,,,,,,,,,,,,,,,,,,,,,,,,,,,,,,,,,,,,,,,,,,,,,,,,,,,,,,,,,,,,,,,,,,,,,,,,,,,,,,,,,,,,,,,,,,,,,,,,,,,,,,,,,
0,42,42,24,1,,60e504dc5f86f5b0e2eb6d17,62b2acae08a09df01d7fa964,2022-06-22_06h46.28.882,Colour_Asymmetry_Pilot,2022.1.3,Win32,143.9884809,62b2a6a25f2ba72662469a01,,,,,,,,,,,,,,,,,,,,,,,,,,,,,,,,,,,,,,,,,,,,,,,,,,,,,,,,,,,,,,,,,,,,,,,,,,,,,,,,,,,,,,,,,,,,,,,,,,,,,,,,,,,,,,,,,,,,,,,,,,,,,,,,,,,,,,,,,,,,,,,,,,,,,,,,,,,,,,
0,43,43,49,1,,60e504dc5f86f5b0e2eb6d17,62b2acae08a09df01d7fa964,2022-06-22_06h46.28.882,Colour_Asymmetry_Pilot,2022.1.3,Win32,143.9884809,62b2a6a25f2ba72662469a01,,,,,,,,,,,,,,,,,,,,,,,,,,,,,,,,,,,,,,,,,,,,,,,,,,,,,,,,,,,,,,,,,,,,,,,,,,,,,,,,,,,,,,,,,,,,,,,,,,,,,,,,,,,,,,,,,,,,,,,,,,,,,,,,,,,,,,,,,,,,,,,,,,,,,,,,,,,,,,
0,44,44,68,1,,60e504dc5f86f5b0e2eb6d17,62b2acae08a09df01d7fa964,2022-06-22_06h46.28.882,Colour_Asymmetry_Pilot,2022.1.3,Win32,143.9884809,62b2a6a25f2ba72662469a01,,,,,,,,,,,,,,,,,,,,,,,,,,,,,,,,,,,,,,,,,,,,,,,,,,,,,,,,,,,,,,,,,,,,,,,,,,,,,,,,,,,,,,,,,,,,,,,,,,,,,,,,,,,,,,,,,,,,,,,,,,,,,,,,,,,,,,,,,,,,,,,,,,,,,,,,,,,,,,
0,45,45,58,1,,60e504dc5f86f5b0e2eb6d17,62b2acae08a09df01d7fa964,2022-06-22_06h46.28.882,Colour_Asymmetry_Pilot,2022.1.3,Win32,143.9884809,62b2a6a25f2ba72662469a01,,,,,,,,,,,,,,,,,,,,,,,,,,,,,,,,,,,,,,,,,,,,,,,,,,,,,,,,,,,,,,,,,,,,,,,,,,,,,,,,,,,,,,,,,,,,,,,,,,,,,,,,,,,,,,,,,,,,,,,,,,,,,,,,,,,,,,,,,,,,,,,,,,,,,,,,,,,,,,
0,46,46,32,1,,60e504dc5f86f5b0e2eb6d17,62b2acae08a09df01d7fa964,2022-06-22_06h46.28.882,Colour_Asymmetry_Pilot,2022.1.3,Win32,143.9884809,62b2a6a25f2ba72662469a01,,,,,,,,,,,,,,,,,,,,,,,,,,,,,,,,,,,,,,,,,,,,,,,,,,,,,,,,,,,,,,,,,,,,,,,,,,,,,,,,,,,,,,,,,,,,,,,,,,,,,,,,,,,,,,,,,,,,,,,,,,,,,,,,,,,,,,,,,,,,,,,,,,,,,,,,,,,,,,
0,47,47,84,1,,60e504dc5f86f5b0e2eb6d17,62b2acae08a09df01d7fa964,2022-06-22_06h46.28.882,Colour_Asymmetry_Pilot,2022.1.3,Win32,143.9884809,62b2a6a25f2ba72662469a01,,,,,,,,,,,,,,,,,,,,,,,,,,,,,,,,,,,,,,,,,,,,,,,,,,,,,,,,,,,,,,,,,,,,,,,,,,,,,,,,,,,,,,,,,,,,,,,,,,,,,,,,,,,,,,,,,,,,,,,,,,,,,,,,,,,,,,,,,,,,,,,,,,,,,,,,,,,,,,
0,48,48,90,1,,60e504dc5f86f5b0e2eb6d17,62b2acae08a09df01d7fa964,2022-06-22_06h46.28.882,Colour_Asymmetry_Pilot,2022.1.3,Win32,143.9884809,62b2a6a25f2ba72662469a01,,,,,,,,,,,,,,,,,,,,,,,,,,,,,,,,,,,,,,,,,,,,,,,,,,,,,,,,,,,,,,,,,,,,,,,,,,,,,,,,,,,,,,,,,,,,,,,,,,,,,,,,,,,,,,,,,,,,,,,,,,,,,,,,,,,,,,,,,,,,,,,,,,,,,,,,,,,,,,
0,49,49,48,1,,60e504dc5f86f5b0e2eb6d17,62b2acae08a09df01d7fa964,2022-06-22_06h46.28.882,Colour_Asymmetry_Pilot,2022.1.3,Win32,143.9884809,62b2a6a25f2ba72662469a01,,,,,,,,,,,,,,,,,,,,,,,,,,,,,,,,,,,,,,,,,,,,,,,,,,,,,,,,,,,,,,,,,,,,,,,,,,,,,,,,,,,,,,,,,,,,,,,,,,,,,,,,,,,,,,,,,,,,,,,,,,,,,,,,,,,,,,,,,,,,,,,,,,,,,,,,,,,,,,
0,50,50,76,1,,60e504dc5f86f5b0e2eb6d17,62b2acae08a09df01d7fa964,2022-06-22_06h46.28.882,Colour_Asymmetry_Pilot,2022.1.3,Win32,143.9884809,62b2a6a25f2ba72662469a01,,,,,,,,,,,,,,,,,,,,,,,,,,,,,,,,,,,,,,,,,,,,,,,,,,,,,,,,,,,,,,,,,,,,,,,,,,,,,,,,,,,,,,,,,,,,,,,,,,,,,,,,,,,,,,,,,,,,,,,,,,,,,,,,,,,,,,,,,,,,,,,,,,,,,,,,,,,,,,
0,51,51,91,1,,60e504dc5f86f5b0e2eb6d17,62b2acae08a09df01d7fa964,2022-06-22_06h46.28.882,Colour_Asymmetry_Pilot,2022.1.3,Win32,143.9884809,62b2a6a25f2ba72662469a01,,,,,,,,,,,,,,,,,,,,,,,,,,,,,,,,,,,,,,,,,,,,,,,,,,,,,,,,,,,,,,,,,,,,,,,,,,,,,,,,,,,,,,,,,,,,,,,,,,,,,,,,,,,,,,,,,,,,,,,,,,,,,,,,,,,,,,,,,,,,,,,,,,,,,,,,,,,,,,
0,52,52,80,1,,60e504dc5f86f5b0e2eb6d17,62b2acae08a09df01d7fa964,2022-06-22_06h46.28.882,Colour_Asymmetry_Pilot,2022.1.3,Win32,143.9884809,62b2a6a25f2ba72662469a01,,,,,,,,,,,,,,,,,,,,,,,,,,,,,,,,,,,,,,,,,,,,,,,,,,,,,,,,,,,,,,,,,,,,,,,,,,,,,,,,,,,,,,,,,,,,,,,,,,,,,,,,,,,,,,,,,,,,,,,,,,,,,,,,,,,,,,,,,,,,,,,,,,,,,,,,,,,,,,
0,53,53,13,1,,60e504dc5f86f5b0e2eb6d17,62b2acae08a09df01d7fa964,2022-06-22_06h46.28.882,Colour_Asymmetry_Pilot,2022.1.3,Win32,143.9884809,62b2a6a25f2ba72662469a01,,,,,,,,,,,,,,,,,,,,,,,,,,,,,,,,,,,,,,,,,,,,,,,,,,,,,,,,,,,,,,,,,,,,,,,,,,,,,,,,,,,,,,,,,,,,,,,,,,,,,,,,,,,,,,,,,,,,,,,,,,,,,,,,,,,,,,,,,,,,,,,,,,,,,,,,,,,,,,
0,54,54,64,1,,60e504dc5f86f5b0e2eb6d17,62b2acae08a09df01d7fa964,2022-06-22_06h46.28.882,Colour_Asymmetry_Pilot,2022.1.3,Win32,143.9884809,62b2a6a25f2ba72662469a01,,,,,,,,,,,,,,,,,,,,,,,,,,,,,,,,,,,,,,,,,,,,,,,,,,,,,,,,,,,,,,,,,,,,,,,,,,,,,,,,,,,,,,,,,,,,,,,,,,,,,,,,,,,,,,,,,,,,,,,,,,,,,,,,,,,,,,,,,,,,,,,,,,,,,,,,,,,,,,
0,55,55,39,1,,60e504dc5f86f5b0e2eb6d17,62b2acae08a09df01d7fa964,2022-06-22_06h46.28.882,Colour_Asymmetry_Pilot,2022.1.3,Win32,143.9884809,62b2a6a25f2ba72662469a01,,,,,,,,,,,,,,,,,,,,,,,,,,,,,,,,,,,,,,,,,,,,,,,,,,,,,,,,,,,,,,,,,,,,,,,,,,,,,,,,,,,,,,,,,,,,,,,,,,,,,,,,,,,,,,,,,,,,,,,,,,,,,,,,,,,,,,,,,,,,,,,,,,,,,,,,,,,,,,
0,56,56,7,1,,60e504dc5f86f5b0e2eb6d17,62b2acae08a09df01d7fa964,2022-06-22_06h46.28.882,Colour_Asymmetry_Pilot,2022.1.3,Win32,143.9884809,62b2a6a25f2ba72662469a01,,,,,,,,,,,,,,,,,,,,,,,,,,,,,,,,,,,,,,,,,,,,,,,,,,,,,,,,,,,,,,,,,,,,,,,,,,,,,,,,,,,,,,,,,,,,,,,,,,,,,,,,,,,,,,,,,,,,,,,,,,,,,,,,,,,,,,,,,,,,,,,,,,,,,,,,,,,,,,
0,57,57,1,1,,60e504dc5f86f5b0e2eb6d17,62b2acae08a09df01d7fa964,2022-06-22_06h46.28.882,Colour_Asymmetry_Pilot,2022.1.3,Win32,143.9884809,62b2a6a25f2ba72662469a01,,,,,,,,,,,,,,,,,,,,,,,,,,,,,,,,,,,,,,,,,,,,,,,,,,,,,,,,,,,,,,,,,,,,,,,,,,,,,,,,,,,,,,,,,,,,,,,,,,,,,,,,,,,,,,,,,,,,,,,,,,,,,,,,,,,,,,,,,,,,,,,,,,,,,,,,,,,,,,
0,58,58,12,1,,60e504dc5f86f5b0e2eb6d17,62b2acae08a09df01d7fa964,2022-06-22_06h46.28.882,Colour_Asymmetry_Pilot,2022.1.3,Win32,143.9884809,62b2a6a25f2ba72662469a01,,,,,,,,,,,,,,,,,,,,,,,,,,,,,,,,,,,,,,,,,,,,,,,,,,,,,,,,,,,,,,,,,,,,,,,,,,,,,,,,,,,,,,,,,,,,,,,,,,,,,,,,,,,,,,,,,,,,,,,,,,,,,,,,,,,,,,,,,,,,,,,,,,,,,,,,,,,,,,
0,59,59,70,1,,60e504dc5f86f5b0e2eb6d17,62b2acae08a09df01d7fa964,2022-06-22_06h46.28.882,Colour_Asymmetry_Pilot,2022.1.3,Win32,143.9884809,62b2a6a25f2ba72662469a01,,,,,,,,,,,,,,,,,,,,,,,,,,,,,,,,,,,,,,,,,,,,,,,,,,,,,,,,,,,,,,,,,,,,,,,,,,,,,,,,,,,,,,,,,,,,,,,,,,,,,,,,,,,,,,,,,,,,,,,,,,,,,,,,,,,,,,,,,,,,,,,,,,,,,,,,,,,,,,
0,60,60,53,1,,60e504dc5f86f5b0e2eb6d17,62b2acae08a09df01d7fa964,2022-06-22_06h46.28.882,Colour_Asymmetry_Pilot,2022.1.3,Win32,143.9884809,62b2a6a25f2ba72662469a01,,,,,,,,,,,,,,,,,,,,,,,,,,,,,,,,,,,,,,,,,,,,,,,,,,,,,,,,,,,,,,,,,,,,,,,,,,,,,,,,,,,,,,,,,,,,,,,,,,,,,,,,,,,,,,,,,,,,,,,,,,,,,,,,,,,,,,,,,,,,,,,,,,,,,,,,,,,,,,
0,61,61,60,1,,60e504dc5f86f5b0e2eb6d17,62b2acae08a09df01d7fa964,2022-06-22_06h46.28.882,Colour_Asymmetry_Pilot,2022.1.3,Win32,143.9884809,62b2a6a25f2ba72662469a01,,,,,,,,,,,,,,,,,,,,,,,,,,,,,,,,,,,,,,,,,,,,,,,,,,,,,,,,,,,,,,,,,,,,,,,,,,,,,,,,,,,,,,,,,,,,,,,,,,,,,,,,,,,,,,,,,,,,,,,,,,,,,,,,,,,,,,,,,,,,,,,,,,,,,,,,,,,,,,
0,62,62,6,1,,60e504dc5f86f5b0e2eb6d17,62b2acae08a09df01d7fa964,2022-06-22_06h46.28.882,Colour_Asymmetry_Pilot,2022.1.3,Win32,143.9884809,62b2a6a25f2ba72662469a01,,,,,,,,,,,,,,,,,,,,,,,,,,,,,,,,,,,,,,,,,,,,,,,,,,,,,,,,,,,,,,,,,,,,,,,,,,,,,,,,,,,,,,,,,,,,,,,,,,,,,,,,,,,,,,,,,,,,,,,,,,,,,,,,,,,,,,,,,,,,,,,,,,,,,,,,,,,,,,
0,63,63,55,1,,60e504dc5f86f5b0e2eb6d17,62b2acae08a09df01d7fa964,2022-06-22_06h46.28.882,Colour_Asymmetry_Pilot,2022.1.3,Win32,143.9884809,62b2a6a25f2ba72662469a01,,,,,,,,,,,,,,,,,,,,,,,,,,,,,,,,,,,,,,,,,,,,,,,,,,,,,,,,,,,,,,,,,,,,,,,,,,,,,,,,,,,,,,,,,,,,,,,,,,,,,,,,,,,,,,,,,,,,,,,,,,,,,,,,,,,,,,,,,,,,,,,,,,,,,,,,,,,,,,
0,64,64,71,1,,60e504dc5f86f5b0e2eb6d17,62b2acae08a09df01d7fa964,2022-06-22_06h46.28.882,Colour_Asymmetry_Pilot,2022.1.3,Win32,143.9884809,62b2a6a25f2ba72662469a01,,,,,,,,,,,,,,,,,,,,,,,,,,,,,,,,,,,,,,,,,,,,,,,,,,,,,,,,,,,,,,,,,,,,,,,,,,,,,,,,,,,,,,,,,,,,,,,,,,,,,,,,,,,,,,,,,,,,,,,,,,,,,,,,,,,,,,,,,,,,,,,,,,,,,,,,,,,,,,
0,65,65,22,1,,60e504dc5f86f5b0e2eb6d17,62b2acae08a09df01d7fa964,2022-06-22_06h46.28.882,Colour_Asymmetry_Pilot,2022.1.3,Win32,143.9884809,62b2a6a25f2ba72662469a01,,,,,,,,,,,,,,,,,,,,,,,,,,,,,,,,,,,,,,,,,,,,,,,,,,,,,,,,,,,,,,,,,,,,,,,,,,,,,,,,,,,,,,,,,,,,,,,,,,,,,,,,,,,,,,,,,,,,,,,,,,,,,,,,,,,,,,,,,,,,,,,,,,,,,,,,,,,,,,
0,66,66,8,1,,60e504dc5f86f5b0e2eb6d17,62b2acae08a09df01d7fa964,2022-06-22_06h46.28.882,Colour_Asymmetry_Pilot,2022.1.3,Win32,143.9884809,62b2a6a25f2ba72662469a01,,,,,,,,,,,,,,,,,,,,,,,,,,,,,,,,,,,,,,,,,,,,,,,,,,,,,,,,,,,,,,,,,,,,,,,,,,,,,,,,,,,,,,,,,,,,,,,,,,,,,,,,,,,,,,,,,,,,,,,,,,,,,,,,,,,,,,,,,,,,,,,,,,,,,,,,,,,,,,
0,67,67,82,1,,60e504dc5f86f5b0e2eb6d17,62b2acae08a09df01d7fa964,2022-06-22_06h46.28.882,Colour_Asymmetry_Pilot,2022.1.3,Win32,143.9884809,62b2a6a25f2ba72662469a01,,,,,,,,,,,,,,,,,,,,,,,,,,,,,,,,,,,,,,,,,,,,,,,,,,,,,,,,,,,,,,,,,,,,,,,,,,,,,,,,,,,,,,,,,,,,,,,,,,,,,,,,,,,,,,,,,,,,,,,,,,,,,,,,,,,,,,,,,,,,,,,,,,,,,,,,,,,,,,
0,68,68,0,1,,60e504dc5f86f5b0e2eb6d17,62b2acae08a09df01d7fa964,2022-06-22_06h46.28.882,Colour_Asymmetry_Pilot,2022.1.3,Win32,143.9884809,62b2a6a25f2ba72662469a01,,,,,,,,,,,,,,,,,,,,,,,,,,,,,,,,,,,,,,,,,,,,,,,,,,,,,,,,,,,,,,,,,,,,,,,,,,,,,,,,,,,,,,,,,,,,,,,,,,,,,,,,,,,,,,,,,,,,,,,,,,,,,,,,,,,,,,,,,,,,,,,,,,,,,,,,,,,,,,
0,69,69,5,1,,60e504dc5f86f5b0e2eb6d17,62b2acae08a09df01d7fa964,2022-06-22_06h46.28.882,Colour_Asymmetry_Pilot,2022.1.3,Win32,143.9884809,62b2a6a25f2ba72662469a01,,,,,,,,,,,,,,,,,,,,,,,,,,,,,,,,,,,,,,,,,,,,,,,,,,,,,,,,,,,,,,,,,,,,,,,,,,,,,,,,,,,,,,,,,,,,,,,,,,,,,,,,,,,,,,,,,,,,,,,,,,,,,,,,,,,,,,,,,,,,,,,,,,,,,,,,,,,,,,
0,70,70,30,1,,60e504dc5f86f5b0e2eb6d17,62b2acae08a09df01d7fa964,2022-06-22_06h46.28.882,Colour_Asymmetry_Pilot,2022.1.3,Win32,143.9884809,62b2a6a25f2ba72662469a01,,,,,,,,,,,,,,,,,,,,,,,,,,,,,,,,,,,,,,,,,,,,,,,,,,,,,,,,,,,,,,,,,,,,,,,,,,,,,,,,,,,,,,,,,,,,,,,,,,,,,,,,,,,,,,,,,,,,,,,,,,,,,,,,,,,,,,,,,,,,,,,,,,,,,,,,,,,,,,
0,71,71,86,1,,60e504dc5f86f5b0e2eb6d17,62b2acae08a09df01d7fa964,2022-06-22_06h46.28.882,Colour_Asymmetry_Pilot,2022.1.3,Win32,143.9884809,62b2a6a25f2ba72662469a01,,,,,,,,,,,,,,,,,,,,,,,,,,,,,,,,,,,,,,,,,,,,,,,,,,,,,,,,,,,,,,,,,,,,,,,,,,,,,,,,,,,,,,,,,,,,,,,,,,,,,,,,,,,,,,,,,,,,,,,,,,,,,,,,,,,,,,,,,,,,,,,,,,,,,,,,,,,,,,
0,72,72,40,1,,60e504dc5f86f5b0e2eb6d17,62b2acae08a09df01d7fa964,2022-06-22_06h46.28.882,Colour_Asymmetry_Pilot,2022.1.3,Win32,143.9884809,62b2a6a25f2ba72662469a01,,,,,,,,,,,,,,,,,,,,,,,,,,,,,,,,,,,,,,,,,,,,,,,,,,,,,,,,,,,,,,,,,,,,,,,,,,,,,,,,,,,,,,,,,,,,,,,,,,,,,,,,,,,,,,,,,,,,,,,,,,,,,,,,,,,,,,,,,,,,,,,,,,,,,,,,,,,,,,
0,73,73,38,1,,60e504dc5f86f5b0e2eb6d17,62b2acae08a09df01d7fa964,2022-06-22_06h46.28.882,Colour_Asymmetry_Pilot,2022.1.3,Win32,143.9884809,62b2a6a25f2ba72662469a01,,,,,,,,,,,,,,,,,,,,,,,,,,,,,,,,,,,,,,,,,,,,,,,,,,,,,,,,,,,,,,,,,,,,,,,,,,,,,,,,,,,,,,,,,,,,,,,,,,,,,,,,,,,,,,,,,,,,,,,,,,,,,,,,,,,,,,,,,,,,,,,,,,,,,,,,,,,,,,
0,74,74,75,1,,60e504dc5f86f5b0e2eb6d17,62b2acae08a09df01d7fa964,2022-06-22_06h46.28.882,Colour_Asymmetry_Pilot,2022.1.3,Win32,143.9884809,62b2a6a25f2ba72662469a01,,,,,,,,,,,,,,,,,,,,,,,,,,,,,,,,,,,,,,,,,,,,,,,,,,,,,,,,,,,,,,,,,,,,,,,,,,,,,,,,,,,,,,,,,,,,,,,,,,,,,,,,,,,,,,,,,,,,,,,,,,,,,,,,,,,,,,,,,,,,,,,,,,,,,,,,,,,,,,
0,75,75,36,1,,60e504dc5f86f5b0e2eb6d17,62b2acae08a09df01d7fa964,2022-06-22_06h46.28.882,Colour_Asymmetry_Pilot,2022.1.3,Win32,143.9884809,62b2a6a25f2ba72662469a01,,,,,,,,,,,,,,,,,,,,,,,,,,,,,,,,,,,,,,,,,,,,,,,,,,,,,,,,,,,,,,,,,,,,,,,,,,,,,,,,,,,,,,,,,,,,,,,,,,,,,,,,,,,,,,,,,,,,,,,,,,,,,,,,,,,,,,,,,,,,,,,,,,,,,,,,,,,,,,
0,76,76,20,1,,60e504dc5f86f5b0e2eb6d17,62b2acae08a09df01d7fa964,2022-06-22_06h46.28.882,Colour_Asymmetry_Pilot,2022.1.3,Win32,143.9884809,62b2a6a25f2ba72662469a01,,,,,,,,,,,,,,,,,,,,,,,,,,,,,,,,,,,,,,,,,,,,,,,,,,,,,,,,,,,,,,,,,,,,,,,,,,,,,,,,,,,,,,,,,,,,,,,,,,,,,,,,,,,,,,,,,,,,,,,,,,,,,,,,,,,,,,,,,,,,,,,,,,,,,,,,,,,,,,
0,77,77,63,1,,60e504dc5f86f5b0e2eb6d17,62b2acae08a09df01d7fa964,2022-06-22_06h46.28.882,Colour_Asymmetry_Pilot,2022.1.3,Win32,143.9884809,62b2a6a25f2ba72662469a01,,,,,,,,,,,,,,,,,,,,,,,,,,,,,,,,,,,,,,,,,,,,,,,,,,,,,,,,,,,,,,,,,,,,,,,,,,,,,,,,,,,,,,,,,,,,,,,,,,,,,,,,,,,,,,,,,,,,,,,,,,,,,,,,,,,,,,,,,,,,,,,,,,,,,,,,,,,,,,
0,78,78,61,1,,60e504dc5f86f5b0e2eb6d17,62b2acae08a09df01d7fa964,2022-06-22_06h46.28.882,Colour_Asymmetry_Pilot,2022.1.3,Win32,143.9884809,62b2a6a25f2ba72662469a01,,,,,,,,,,,,,,,,,,,,,,,,,,,,,,,,,,,,,,,,,,,,,,,,,,,,,,,,,,,,,,,,,,,,,,,,,,,,,,,,,,,,,,,,,,,,,,,,,,,,,,,,,,,,,,,,,,,,,,,,,,,,,,,,,,,,,,,,,,,,,,,,,,,,,,,,,,,,,,
0,79,79,21,1,,60e504dc5f86f5b0e2eb6d17,62b2acae08a09df01d7fa964,2022-06-22_06h46.28.882,Colour_Asymmetry_Pilot,2022.1.3,Win32,143.9884809,62b2a6a25f2ba72662469a01,,,,,,,,,,,,,,,,,,,,,,,,,,,,,,,,,,,,,,,,,,,,,,,,,,,,,,,,,,,,,,,,,,,,,,,,,,,,,,,,,,,,,,,,,,,,,,,,,,,,,,,,,,,,,,,,,,,,,,,,,,,,,,,,,,,,,,,,,,,,,,,,,,,,,,,,,,,,,,
0,80,80,56,1,,60e504dc5f86f5b0e2eb6d17,62b2acae08a09df01d7fa964,2022-06-22_06h46.28.882,Colour_Asymmetry_Pilot,2022.1.3,Win32,143.9884809,62b2a6a25f2ba72662469a01,,,,,,,,,,,,,,,,,,,,,,,,,,,,,,,,,,,,,,,,,,,,,,,,,,,,,,,,,,,,,,,,,,,,,,,,,,,,,,,,,,,,,,,,,,,,,,,,,,,,,,,,,,,,,,,,,,,,,,,,,,,,,,,,,,,,,,,,,,,,,,,,,,,,,,,,,,,,,,
0,81,81,67,1,,60e504dc5f86f5b0e2eb6d17,62b2acae08a09df01d7fa964,2022-06-22_06h46.28.882,Colour_Asymmetry_Pilot,2022.1.3,Win32,143.9884809,62b2a6a25f2ba72662469a01,,,,,,,,,,,,,,,,,,,,,,,,,,,,,,,,,,,,,,,,,,,,,,,,,,,,,,,,,,,,,,,,,,,,,,,,,,,,,,,,,,,,,,,,,,,,,,,,,,,,,,,,,,,,,,,,,,,,,,,,,,,,,,,,,,,,,,,,,,,,,,,,,,,,,,,,,,,,,,
0,82,82,4,1,,60e504dc5f86f5b0e2eb6d17,62b2acae08a09df01d7fa964,2022-06-22_06h46.28.882,Colour_Asymmetry_Pilot,2022.1.3,Win32,143.9884809,62b2a6a25f2ba72662469a01,,,,,,,,,,,,,,,,,,,,,,,,,,,,,,,,,,,,,,,,,,,,,,,,,,,,,,,,,,,,,,,,,,,,,,,,,,,,,,,,,,,,,,,,,,,,,,,,,,,,,,,,,,,,,,,,,,,,,,,,,,,,,,,,,,,,,,,,,,,,,,,,,,,,,,,,,,,,,,
0,83,83,88,1,,60e504dc5f86f5b0e2eb6d17,62b2acae08a09df01d7fa964,2022-06-22_06h46.28.882,Colour_Asymmetry_Pilot,2022.1.3,Win32,143.9884809,62b2a6a25f2ba72662469a01,,,,,,,,,,,,,,,,,,,,,,,,,,,,,,,,,,,,,,,,,,,,,,,,,,,,,,,,,,,,,,,,,,,,,,,,,,,,,,,,,,,,,,,,,,,,,,,,,,,,,,,,,,,,,,,,,,,,,,,,,,,,,,,,,,,,,,,,,,,,,,,,,,,,,,,,,,,,,,
0,84,84,15,1,,60e504dc5f86f5b0e2eb6d17,62b2acae08a09df01d7fa964,2022-06-22_06h46.28.882,Colour_Asymmetry_Pilot,2022.1.3,Win32,143.9884809,62b2a6a25f2ba72662469a01,,,,,,,,,,,,,,,,,,,,,,,,,,,,,,,,,,,,,,,,,,,,,,,,,,,,,,,,,,,,,,,,,,,,,,,,,,,,,,,,,,,,,,,,,,,,,,,,,,,,,,,,,,,,,,,,,,,,,,,,,,,,,,,,,,,,,,,,,,,,,,,,,,,,,,,,,,,,,,
0,85,85,10,1,,60e504dc5f86f5b0e2eb6d17,62b2acae08a09df01d7fa964,2022-06-22_06h46.28.882,Colour_Asymmetry_Pilot,2022.1.3,Win32,143.9884809,62b2a6a25f2ba72662469a01,,,,,,,,,,,,,,,,,,,,,,,,,,,,,,,,,,,,,,,,,,,,,,,,,,,,,,,,,,,,,,,,,,,,,,,,,,,,,,,,,,,,,,,,,,,,,,,,,,,,,,,,,,,,,,,,,,,,,,,,,,,,,,,,,,,,,,,,,,,,,,,,,,,,,,,,,,,,,,
0,86,86,29,1,,60e504dc5f86f5b0e2eb6d17,62b2acae08a09df01d7fa964,2022-06-22_06h46.28.882,Colour_Asymmetry_Pilot,2022.1.3,Win32,143.9884809,62b2a6a25f2ba72662469a01,,,,,,,,,,,,,,,,,,,,,,,,,,,,,,,,,,,,,,,,,,,,,,,,,,,,,,,,,,,,,,,,,,,,,,,,,,,,,,,,,,,,,,,,,,,,,,,,,,,,,,,,,,,,,,,,,,,,,,,,,,,,,,,,,,,,,,,,,,,,,,,,,,,,,,,,,,,,,,
0,87,87,77,1,,60e504dc5f86f5b0e2eb6d17,62b2acae08a09df01d7fa964,2022-06-22_06h46.28.882,Colour_Asymmetry_Pilot,2022.1.3,Win32,143.9884809,62b2a6a25f2ba72662469a01,,,,,,,,,,,,,,,,,,,,,,,,,,,,,,,,,,,,,,,,,,,,,,,,,,,,,,,,,,,,,,,,,,,,,,,,,,,,,,,,,,,,,,,,,,,,,,,,,,,,,,,,,,,,,,,,,,,,,,,,,,,,,,,,,,,,,,,,,,,,,,,,,,,,,,,,,,,,,,
0,88,88,66,1,,60e504dc5f86f5b0e2eb6d17,62b2acae08a09df01d7fa964,2022-06-22_06h46.28.882,Colour_Asymmetry_Pilot,2022.1.3,Win32,143.9884809,62b2a6a25f2ba72662469a01,,,,,,,,,,,,,,,,,,,,,,,,,,,,,,,,,,,,,,,,,,,,,,,,,,,,,,,,,,,,,,,,,,,,,,,,,,,,,,,,,,,,,,,,,,,,,,,,,,,,,,,,,,,,,,,,,,,,,,,,,,,,,,,,,,,,,,,,,,,,,,,,,,,,,,,,,,,,,,
0,89,89,87,1,,60e504dc5f86f5b0e2eb6d17,62b2acae08a09df01d7fa964,2022-06-22_06h46.28.882,Colour_Asymmetry_Pilot,2022.1.3,Win32,143.9884809,62b2a6a25f2ba72662469a01,,,,,,,,,,,,,,,,,,,,,,,,,,,,,,,,,,,,,,,,,,,,,,,,,,,,,,,,,,,,,,,,,,,,,,,,,,,,,,,,,,,,,,,,,,,,,,,,,,,,,,,,,,,,,,,,,,,,,,,,,,,,,,,,,,,,,,,,,,,,,,,,,,,,,,,,,,,,,,
0,90,90,11,1,,60e504dc5f86f5b0e2eb6d17,62b2acae08a09df01d7fa964,2022-06-22_06h46.28.882,Colour_Asymmetry_Pilot,2022.1.3,Win32,143.9884809,62b2a6a25f2ba72662469a01,,,,,,,,,,,,,,,,,,,,,,,,,,,,,,,,,,,,,,,,,,,,,,,,,,,,,,,,,,,,,,,,,,,,,,,,,,,,,,,,,,,,,,,,,,,,,,,,,,,,,,,,,,,,,,,,,,,,,,,,,,,,,,,,,,,,,,,,,,,,,,,,,,,,,,,,,,,,,,
0,91,91,69,1,,60e504dc5f86f5b0e2eb6d17,62b2acae08a09df01d7fa964,2022-06-22_06h46.28.882,Colour_Asymmetry_Pilot,2022.1.3,Win32,143.9884809,62b2a6a25f2ba72662469a01,,,,,,,,,,,,,,,,,,,,,,,,,,,,,,,,,,,,,,,,,,,,,,,,,,,,,,,,,,,,,,,,,,,,,,,,,,,,,,,,,,,,,,,,,,,,,,,,,,,,,,,,,,,,,,,,,,,,,,,,,,,,,,,,,,,,,,,,,,,,,,,,,,,,,,,,,,,,,,
0,92,92,89,1,,60e504dc5f86f5b0e2eb6d17,62b2acae08a09df01d7fa964,2022-06-22_06h46.28.882,Colour_Asymmetry_Pilot,2022.1.3,Win32,143.9884809,62b2a6a25f2ba72662469a01,,,,,,,,,,,,,,,,,,,,,,,,,,,,,,,,,,,,,,,,,,,,,,,,,,,,,,,,,,,,,,,,,,,,,,,,,,,,,,,,,,,,,,,,,,,,,,,,,,,,,,,,,,,,,,,,,,,,,,,,,,,,,,,,,,,,,,,,,,,,,,,,,,,,,,,,,,,,,,
,,,,,,60e504dc5f86f5b0e2eb6d17,62b2acae08a09df01d7fa964,2022-06-22_06h46.28.882,Colour_Asymmetry_Pilot,2022.1.3,Win32,143.9884809,62b2a6a25f2ba72662469a01,0,0,0,0,1,onetwo,,,,,,,,,,,,,,,,,,,,,,,,,,,,,,,,,,,,,,,,,,,,,,,,,,,,,,,,,,,,,,,,,,,,,,,,,,,,,,,,,,,,,,,,,,,,,,,,,,,,,,,,,,,,,,,,,,,,,,,,,,,,,,,,,,,,,,,,,,,,,,,,,,,,,,,,
,,,,,,60e504dc5f86f5b0e2eb6d17,62b2acae08a09df01d7fa964,2022-06-22_06h46.28.882,Colour_Asymmetry_Pilot,2022.1.3,Win32,143.9884809,62b2a6a25f2ba72662469a01,0,1,1,67,1,twofour,,,,,,,,,,,,,,,,,,,,,,,,,,,,,,,,,,,,,,,,,,,,,,,,,,,,,,,,,,,,,,,,,,,,,,,,,,,,,,,,,,,,,,,,,,,,,,,,,,,,,,,,,,,,,,,,,,,,,,,,,,,,,,,,,,,,,,,,,,,,,,,,,,,,,,,,
,,,,,,60e504dc5f86f5b0e2eb6d17,62b2acae08a09df01d7fa964,2022-06-22_06h46.28.882,Colour_Asymmetry_Pilot,2022.1.3,Win32,143.9884809,62b2a6a25f2ba72662469a01,0,2,2,116,1,threeone,,,,,,,,,,,,,,,,,,,,,,,,,,,,,,,,,,,,,,,,,,,,,,,,,,,,,,,,,,,,,,,,,,,,,,,,,,,,,,,,,,,,,,,,,,,,,,,,,,,,,,,,,,,,,,,,,,,,,,,,,,,,,,,,,,,,,,,,,,,,,,,,,,,,,,,,
,,,,,,60e504dc5f86f5b0e2eb6d17,62b2acae08a09df01d7fa964,2022-06-22_06h46.28.882,Colour_Asymmetry_Pilot,2022.1.3,Win32,143.9884809,62b2a6a25f2ba72662469a01,0,3,3,56,1,onetwo,,,,,,,,,,,,,,,,,,,,,,,,,,,,,,,,,,,,,,,,,,,,,,,,,,,,,,,,,,,,,,,,,,,,,,,,,,,,,,,,,,,,,,,,,,,,,,,,,,,,,,,,,,,,,,,,,,,,,,,,,,,,,,,,,,,,,,,,,,,,,,,,,,,,,,,,
,,,,,,60e504dc5f86f5b0e2eb6d17,62b2acae08a09df01d7fa964,2022-06-22_06h46.28.882,Colour_Asymmetry_Pilot,2022.1.3,Win32,143.9884809,62b2a6a25f2ba72662469a01,0,4,4,77,1,threefour,,,,,,,,,,,,,,,,,,,,,,,,,,,,,,,,,,,,,,,,,,,,,,,,,,,,,,,,,,,,,,,,,,,,,,,,,,,,,,,,,,,,,,,,,,,,,,,,,,,,,,,,,,,,,,,,,,,,,,,,,,,,,,,,,,,,,,,,,,,,,,,,,,,,,,,,
,,,,,,60e504dc5f86f5b0e2eb6d17,62b2acae08a09df01d7fa964,2022-06-22_06h46.28.882,Colour_Asymmetry_Pilot,2022.1.3,Win32,143.9884809,62b2a6a25f2ba72662469a01,0,5,5,138,1,twoone,,,,,,,,,,,,,,,,,,,,,,,,,,,,,,,,,,,,,,,,,,,,,,,,,,,,,,,,,,,,,,,,,,,,,,,,,,,,,,,,,,,,,,,,,,,,,,,,,,,,,,,,,,,,,,,,,,,,,,,,,,,,,,,,,,,,,,,,,,,,,,,,,,,,,,,,
,,,,,,60e504dc5f86f5b0e2eb6d17,62b2acae08a09df01d7fa964,2022-06-22_06h46.28.882,Colour_Asymmetry_Pilot,2022.1.3,Win32,143.9884809,62b2a6a25f2ba72662469a01,0,6,6,91,1,twofour,,,,,,,,,,,,,,,,,,,,,,,,,,,,,,,,,,,,,,,,,,,,,,,,,,,,,,,,,,,,,,,,,,,,,,,,,,,,,,,,,,,,,,,,,,,,,,,,,,,,,,,,,,,,,,,,,,,,,,,,,,,,,,,,,,,,,,,,,,,,,,,,,,,,,,,,
,,,,,,60e504dc5f86f5b0e2eb6d17,62b2acae08a09df01d7fa964,2022-06-22_06h46.28.882,Colour_Asymmetry_Pilot,2022.1.3,Win32,143.9884809,62b2a6a25f2ba72662469a01,0,7,7,134,1,fourtwo,,,,,,,,,,,,,,,,,,,,,,,,,,,,,,,,,,,,,,,,,,,,,,,,,,,,,,,,,,,,,,,,,,,,,,,,,,,,,,,,,,,,,,,,,,,,,,,,,,,,,,,,,,,,,,,,,,,,,,,,,,,,,,,,,,,,,,,,,,,,,,,,,,,,,,,,
,,,,,,60e504dc5f86f5b0e2eb6d17,62b2acae08a09df01d7fa964,2022-06-22_06h46.28.882,Colour_Asymmetry_Pilot,2022.1.3,Win32,143.9884809,62b2a6a25f2ba72662469a01,0,8,8,87,1,fourthree,,,,,,,,,,,,,,,,,,,,,,,,,,,,,,,,,,,,,,,,,,,,,,,,,,,,,,,,,,,,,,,,,,,,,,,,,,,,,,,,,,,,,,,,,,,,,,,,,,,,,,,,,,,,,,,,,,,,,,,,,,,,,,,,,,,,,,,,,,,,,,,,,,,,,,,,
,,,,,,60e504dc5f86f5b0e2eb6d17,62b2acae08a09df01d7fa964,2022-06-22_06h46.28.882,Colour_Asymmetry_Pilot,2022.1.3,Win32,143.9884809,62b2a6a25f2ba72662469a01,0,9,9,106,1,twoone,,,,,,,,,,,,,,,,,,,,,,,,,,,,,,,,,,,,,,,,,,,,,,,,,,,,,,,,,,,,,,,,,,,,,,,,,,,,,,,,,,,,,,,,,,,,,,,,,,,,,,,,,,,,,,,,,,,,,,,,,,,,,,,,,,,,,,,,,,,,,,,,,,,,,,,,
,,,,,,60e504dc5f86f5b0e2eb6d17,62b2acae08a09df01d7fa964,2022-06-22_06h46.28.882,Colour_Asymmetry_Pilot,2022.1.3,Win32,143.9884809,62b2a6a25f2ba72662469a01,0,10,10,92,1,threeone,,,,,,,,,,,,,,,,,,,,,,,,,,,,,,,,,,,,,,,,,,,,,,,,,,,,,,,,,,,,,,,,,,,,,,,,,,,,,,,,,,,,,,,,,,,,,,,,,,,,,,,,,,,,,,,,,,,,,,,,,,,,,,,,,,,,,,,,,,,,,,,,,,,,,,,,
,,,,,,60e504dc5f86f5b0e2eb6d17,62b2acae08a09df01d7fa964,2022-06-22_06h46.28.882,Colour_Asymmetry_Pilot,2022.1.3,Win32,143.9884809,62b2a6a25f2ba72662469a01,0,11,11,140,1,threeone,,,,,,,,,,,,,,,,,,,,,,,,,,,,,,,,,,,,,,,,,,,,,,,,,,,,,,,,,,,,,,,,,,,,,,,,,,,,,,,,,,,,,,,,,,,,,,,,,,,,,,,,,,,,,,,,,,,,,,,,,,,,,,,,,,,,,,,,,,,,,,,,,,,,,,,,
,,,,,,60e504dc5f86f5b0e2eb6d17,62b2acae08a09df01d7fa964,2022-06-22_06h46.28.882,Colour_Asymmetry_Pilot,2022.1.3,Win32,143.9884809,62b2a6a25f2ba72662469a01,0,12,12,54,1,fourtwo,,,,,,,,,,,,,,,,,,,,,,,,,,,,,,,,,,,,,,,,,,,,,,,,,,,,,,,,,,,,,,,,,,,,,,,,,,,,,,,,,,,,,,,,,,,,,,,,,,,,,,,,,,,,,,,,,,,,,,,,,,,,,,,,,,,,,,,,,,,,,,,,,,,,,,,,
,,,,,,60e504dc5f86f5b0e2eb6d17,62b2acae08a09df01d7fa964,2022-06-22_06h46.28.882,Colour_Asymmetry_Pilot,2022.1.3,Win32,143.9884809,62b2a6a25f2ba72662469a01,0,13,13,50,1,twoone,,,,,,,,,,,,,,,,,,,,,,,,,,,,,,,,,,,,,,,,,,,,,,,,,,,,,,,,,,,,,,,,,,,,,,,,,,,,,,,,,,,,,,,,,,,,,,,,,,,,,,,,,,,,,,,,,,,,,,,,,,,,,,,,,,,,,,,,,,,,,,,,,,,,,,,,
,,,,,,60e504dc5f86f5b0e2eb6d17,62b2acae08a09df01d7fa964,2022-06-22_06h46.28.882,Colour_Asymmetry_Pilot,2022.1.3,Win32,143.9884809,62b2a6a25f2ba72662469a01,0,14,14,88,1,onetwo,,,,,,,,,,,,,,,,,,,,,,,,,,,,,,,,,,,,,,,,,,,,,,,,,,,,,,,,,,,,,,,,,,,,,,,,,,,,,,,,,,,,,,,,,,,,,,,,,,,,,,,,,,,,,,,,,,,,,,,,,,,,,,,,,,,,,,,,,,,,,,,,,,,,,,,,
,,,,,,60e504dc5f86f5b0e2eb6d17,62b2acae08a09df01d7fa964,2022-06-22_06h46.28.882,Colour_Asymmetry_Pilot,2022.1.3,Win32,143.9884809,62b2a6a25f2ba72662469a01,0,15,15,108,1,threeone,,,,,,,,,,,,,,,,,,,,,,,,,,,,,,,,,,,,,,,,,,,,,,,,,,,,,,,,,,,,,,,,,,,,,,,,,,,,,,,,,,,,,,,,,,,,,,,,,,,,,,,,,,,,,,,,,,,,,,,,,,,,,,,,,,,,,,,,,,,,,,,,,,,,,,,,
,,,,,,60e504dc5f86f5b0e2eb6d17,62b2acae08a09df01d7fa964,2022-06-22_06h46.28.882,Colour_Asymmetry_Pilot,2022.1.3,Win32,143.9884809,62b2a6a25f2ba72662469a01,0,16,16,70,1,fourtwo,,,,,,,,,,,,,,,,,,,,,,,,,,,,,,,,,,,,,,,,,,,,,,,,,,,,,,,,,,,,,,,,,,,,,,,,,,,,,,,,,,,,,,,,,,,,,,,,,,,,,,,,,,,,,,,,,,,,,,,,,,,,,,,,,,,,,,,,,,,,,,,,,,,,,,,,
,,,,,,60e504dc5f86f5b0e2eb6d17,62b2acae08a09df01d7fa964,2022-06-22_06h46.28.882,Colour_Asymmetry_Pilot,2022.1.3,Win32,143.9884809,62b2a6a25f2ba72662469a01,0,17,17,12,1,threeone,,,,,,,,,,,,,,,,,,,,,,,,,,,,,,,,,,,,,,,,,,,,,,,,,,,,,,,,,,,,,,,,,,,,,,,,,,,,,,,,,,,,,,,,,,,,,,,,,,,,,,,,,,,,,,,,,,,,,,,,,,,,,,,,,,,,,,,,,,,,,,,,,,,,,,,,
,,,,,,60e504dc5f86f5b0e2eb6d17,62b2acae08a09df01d7fa964,2022-06-22_06h46.28.882,Colour_Asymmetry_Pilot,2022.1.3,Win32,143.9884809,62b2a6a25f2ba72662469a01,0,18,18,76,1,threeone,,,,,,,,,,,,,,,,,,,,,,,,,,,,,,,,,,,,,,,,,,,,,,,,,,,,,,,,,,,,,,,,,,,,,,,,,,,,,,,,,,,,,,,,,,,,,,,,,,,,,,,,,,,,,,,,,,,,,,,,,,,,,,,,,,,,,,,,,,,,,,,,,,,,,,,,
,,,,,,60e504dc5f86f5b0e2eb6d17,62b2acae08a09df01d7fa964,2022-06-22_06h46.28.882,Colour_Asymmetry_Pilot,2022.1.3,Win32,143.9884809,62b2a6a25f2ba72662469a01,0,19,19,104,1,onetwo,,,,,,,,,,,,,,,,,,,,,,,,,,,,,,,,,,,,,,,,,,,,,,,,,,,,,,,,,,,,,,,,,,,,,,,,,,,,,,,,,,,,,,,,,,,,,,,,,,,,,,,,,,,,,,,,,,,,,,,,,,,,,,,,,,,,,,,,,,,,,,,,,,,,,,,,
,,,,,,60e504dc5f86f5b0e2eb6d17,62b2acae08a09df01d7fa964,2022-06-22_06h46.28.882,Colour_Asymmetry_Pilot,2022.1.3,Win32,143.9884809,62b2a6a25f2ba72662469a01,0,20,20,1,1,onethree,,,,,,,,,,,,,,,,,,,,,,,,,,,,,,,,,,,,,,,,,,,,,,,,,,,,,,,,,,,,,,,,,,,,,,,,,,,,,,,,,,,,,,,,,,,,,,,,,,,,,,,,,,,,,,,,,,,,,,,,,,,,,,,,,,,,,,,,,,,,,,,,,,,,,,,,
,,,,,,60e504dc5f86f5b0e2eb6d17,62b2acae08a09df01d7fa964,2022-06-22_06h46.28.882,Colour_Asymmetry_Pilot,2022.1.3,Win32,143.9884809,62b2a6a25f2ba72662469a01,0,21,21,119,1,fourthree,,,,,,,,,,,,,,,,,,,,,,,,,,,,,,,,,,,,,,,,,,,,,,,,,,,,,,,,,,,,,,,,,,,,,,,,,,,,,,,,,,,,,,,,,,,,,,,,,,,,,,,,,,,,,,,,,,,,,,,,,,,,,,,,,,,,,,,,,,,,,,,,,,,,,,,,
,,,,,,60e504dc5f86f5b0e2eb6d17,62b2acae08a09df01d7fa964,2022-06-22_06h46.28.882,Colour_Asymmetry_Pilot,2022.1.3,Win32,143.9884809,62b2a6a25f2ba72662469a01,0,22,22,109,1,threefour,,,,,,,,,,,,,,,,,,,,,,,,,,,,,,,,,,,,,,,,,,,,,,,,,,,,,,,,,,,,,,,,,,,,,,,,,,,,,,,,,,,,,,,,,,,,,,,,,,,,,,,,,,,,,,,,,,,,,,,,,,,,,,,,,,,,,,,,,,,,,,,,,,,,,,,,
,,,,,,60e504dc5f86f5b0e2eb6d17,62b2acae08a09df01d7fa964,2022-06-22_06h46.28.882,Colour_Asymmetry_Pilot,2022.1.3,Win32,143.9884809,62b2a6a25f2ba72662469a01,0,23,23,150,1,fourtwo,,,,,,,,,,,,,,,,,,,,,,,,,,,,,,,,,,,,,,,,,,,,,,,,,,,,,,,,,,,,,,,,,,,,,,,,,,,,,,,,,,,,,,,,,,,,,,,,,,,,,,,,,,,,,,,,,,,,,,,,,,,,,,,,,,,,,,,,,,,,,,,,,,,,,,,,
,,,,,,60e504dc5f86f5b0e2eb6d17,62b2acae08a09df01d7fa964,2022-06-22_06h46.28.882,Colour_Asymmetry_Pilot,2022.1.3,Win32,143.9884809,62b2a6a25f2ba72662469a01,0,24,24,101,1,threefour,,,,,,,,,,,,,,,,,,,,,,,,,,,,,,,,,,,,,,,,,,,,,,,,,,,,,,,,,,,,,,,,,,,,,,,,,,,,,,,,,,,,,,,,,,,,,,,,,,,,,,,,,,,,,,,,,,,,,,,,,,,,,,,,,,,,,,,,,,,,,,,,,,,,,,,,
,,,,,,60e504dc5f86f5b0e2eb6d17,62b2acae08a09df01d7fa964,2022-06-22_06h46.28.882,Colour_Asymmetry_Pilot,2022.1.3,Win32,143.9884809,62b2a6a25f2ba72662469a01,0,25,25,147,1,twofour,,,,,,,,,,,,,,,,,,,,,,,,,,,,,,,,,,,,,,,,,,,,,,,,,,,,,,,,,,,,,,,,,,,,,,,,,,,,,,,,,,,,,,,,,,,,,,,,,,,,,,,,,,,,,,,,,,,,,,,,,,,,,,,,,,,,,,,,,,,,,,,,,,,,,,,,
,,,,,,60e504dc5f86f5b0e2eb6d17,62b2acae08a09df01d7fa964,2022-06-22_06h46.28.882,Colour_Asymmetry_Pilot,2022.1.3,Win32,143.9884809,62b2a6a25f2ba72662469a01,0,26,26,27,1,twofour,,,,,,,,,,,,,,,,,,,,,,,,,,,,,,,,,,,,,,,,,,,,,,,,,,,,,,,,,,,,,,,,,,,,,,,,,,,,,,,,,,,,,,,,,,,,,,,,,,,,,,,,,,,,,,,,,,,,,,,,,,,,,,,,,,,,,,,,,,,,,,,,,,,,,,,,
,,,,,,60e504dc5f86f5b0e2eb6d17,62b2acae08a09df01d7fa964,2022-06-22_06h46.28.882,Colour_Asymmetry_Pilot,2022.1.3,Win32,143.9884809,62b2a6a25f2ba72662469a01,0,27,27,97,1,onethree,,,,,,,,,,,,,,,,,,,,,,,,,,,,,,,,,,,,,,,,,,,,,,,,,,,,,,,,,,,,,,,,,,,,,,,,,,,,,,,,,,,,,,,,,,,,,,,,,,,,,,,,,,,,,,,,,,,,,,,,,,,,,,,,,,,,,,,,,,,,,,,,,,,,,,,,
,,,,,,60e504dc5f86f5b0e2eb6d17,62b2acae08a09df01d7fa964,2022-06-22_06h46.28.882,Colour_Asymmetry_Pilot,2022.1.3,Win32,143.9884809,62b2a6a25f2ba72662469a01,0,28,28,21,1,threefour,,,,,,,,,,,,,,,,,,,,,,,,,,,,,,,,,,,,,,,,,,,,,,,,,,,,,,,,,,,,,,,,,,,,,,,,,,,,,,,,,,,,,,,,,,,,,,,,,,,,,,,,,,,,,,,,,,,,,,,,,,,,,,,,,,,,,,,,,,,,,,,,,,,,,,,,
,,,,,,60e504dc5f86f5b0e2eb6d17,62b2acae08a09df01d7fa964,2022-06-22_06h46.28.882,Colour_Asymmetry_Pilot,2022.1.3,Win32,143.9884809,62b2a6a25f2ba72662469a01,0,29,29,22,1,fourtwo,,,,,,,,,,,,,,,,,,,,,,,,,,,,,,,,,,,,,,,,,,,,,,,,,,,,,,,,,,,,,,,,,,,,,,,,,,,,,,,,,,,,,,,,,,,,,,,,,,,,,,,,,,,,,,,,,,,,,,,,,,,,,,,,,,,,,,,,,,,,,,,,,,,,,,,,
,,,,,,60e504dc5f86f5b0e2eb6d17,62b2acae08a09df01d7fa964,2022-06-22_06h46.28.882,Colour_Asymmetry_Pilot,2022.1.3,Win32,143.9884809,62b2a6a25f2ba72662469a01,0,30,30,18,1,twoone,,,,,,,,,,,,,,,,,,,,,,,,,,,,,,,,,,,,,,,,,,,,,,,,,,,,,,,,,,,,,,,,,,,,,,,,,,,,,,,,,,,,,,,,,,,,,,,,,,,,,,,,,,,,,,,,,,,,,,,,,,,,,,,,,,,,,,,,,,,,,,,,,,,,,,,,
,,,,,,60e504dc5f86f5b0e2eb6d17,62b2acae08a09df01d7fa964,2022-06-22_06h46.28.882,Colour_Asymmetry_Pilot,2022.1.3,Win32,143.9884809,62b2a6a25f2ba72662469a01,0,31,31,84,1,threeone,,,,,,,,,,,,,,,,,,,,,,,,,,,,,,,,,,,,,,,,,,,,,,,,,,,,,,,,,,,,,,,,,,,,,,,,,,,,,,,,,,,,,,,,,,,,,,,,,,,,,,,,,,,,,,,,,,,,,,,,,,,,,,,,,,,,,,,,,,,,,,,,,,,,,,,,
,,,,,,60e504dc5f86f5b0e2eb6d17,62b2acae08a09df01d7fa964,2022-06-22_06h46.28.882,Colour_Asymmetry_Pilot,2022.1.3,Win32,143.9884809,62b2a6a25f2ba72662469a01,0,32,32,20,1,threeone,,,,,,,,,,,,,,,,,,,,,,,,,,,,,,,,,,,,,,,,,,,,,,,,,,,,,,,,,,,,,,,,,,,,,,,,,,,,,,,,,,,,,,,,,,,,,,,,,,,,,,,,,,,,,,,,,,,,,,,,,,,,,,,,,,,,,,,,,,,,,,,,,,,,,,,,
,,,,,,60e504dc5f86f5b0e2eb6d17,62b2acae08a09df01d7fa964,2022-06-22_06h46.28.882,Colour_Asymmetry_Pilot,2022.1.3,Win32,143.9884809,62b2a6a25f2ba72662469a01,0,33,33,142,1,fourtwo,,,,,,,,,,,,,,,,,,,,,,,,,,,,,,,,,,,,,,,,,,,,,,,,,,,,,,,,,,,,,,,,,,,,,,,,,,,,,,,,,,,,,,,,,,,,,,,,,,,,,,,,,,,,,,,,,,,,,,,,,,,,,,,,,,,,,,,,,,,,,,,,,,,,,,,,
,,,,,,60e504dc5f86f5b0e2eb6d17,62b2acae08a09df01d7fa964,2022-06-22_06h46.28.882,Colour_Asymmetry_Pilot,2022.1.3,Win32,143.9884809,62b2a6a25f2ba72662469a01,0,34,34,139,1,twofour,,,,,,,,,,,,,,,,,,,,,,,,,,,,,,,,,,,,,,,,,,,,,,,,,,,,,,,,,,,,,,,,,,,,,,,,,,,,,,,,,,,,,,,,,,,,,,,,,,,,,,,,,,,,,,,,,,,,,,,,,,,,,,,,,,,,,,,,,,,,,,,,,,,,,,,,
,,,,,,60e504dc5f86f5b0e2eb6d17,62b2acae08a09df01d7fa964,2022-06-22_06h46.28.882,Colour_Asymmetry_Pilot,2022.1.3,Win32,143.9884809,62b2a6a25f2ba72662469a01,0,35,35,146,1,twoone,,,,,,,,,,,,,,,,,,,,,,,,,,,,,,,,,,,,,,,,,,,,,,,,,,,,,,,,,,,,,,,,,,,,,,,,,,,,,,,,,,,,,,,,,,,,,,,,,,,,,,,,,,,,,,,,,,,,,,,,,,,,,,,,,,,,,,,,,,,,,,,,,,,,,,,,
,,,,,,60e504dc5f86f5b0e2eb6d17,62b2acae08a09df01d7fa964,2022-06-22_06h46.28.882,Colour_Asymmetry_Pilot,2022.1.3,Win32,143.9884809,62b2a6a25f2ba72662469a01,0,36,36,43,1,twofour,,,,,,,,,,,,,,,,,,,,,,,,,,,,,,,,,,,,,,,,,,,,,,,,,,,,,,,,,,,,,,,,,,,,,,,,,,,,,,,,,,,,,,,,,,,,,,,,,,,,,,,,,,,,,,,,,,,,,,,,,,,,,,,,,,,,,,,,,,,,,,,,,,,,,,,,
,,,,,,60e504dc5f86f5b0e2eb6d17,62b2acae08a09df01d7fa964,2022-06-22_06h46.28.882,Colour_Asymmetry_Pilot,2022.1.3,Win32,143.9884809,62b2a6a25f2ba72662469a01,0,37,37,11,1,twofour,,,,,,,,,,,,,,,,,,,,,,,,,,,,,,,,,,,,,,,,,,,,,,,,,,,,,,,,,,,,,,,,,,,,,,,,,,,,,,,,,,,,,,,,,,,,,,,,,,,,,,,,,,,,,,,,,,,,,,,,,,,,,,,,,,,,,,,,,,,,,,,,,,,,,,,,
,,,,,,60e504dc5f86f5b0e2eb6d17,62b2acae08a09df01d7fa964,2022-06-22_06h46.28.882,Colour_Asymmetry_Pilot,2022.1.3,Win32,143.9884809,62b2a6a25f2ba72662469a01,0,38,38,57,1,onethree,,,,,,,,,,,,,,,,,,,,,,,,,,,,,,,,,,,,,,,,,,,,,,,,,,,,,,,,,,,,,,,,,,,,,,,,,,,,,,,,,,,,,,,,,,,,,,,,,,,,,,,,,,,,,,,,,,,,,,,,,,,,,,,,,,,,,,,,,,,,,,,,,,,,,,,,
,,,,,,60e504dc5f86f5b0e2eb6d17,62b2acae08a09df01d7fa964,2022-06-22_06h46.28.882,Colour_Asymmetry_Pilot,2022.1.3,Win32,143.9884809,62b2a6a25f2ba72662469a01,0,39,39,30,1,fourtwo,,,,,,,,,,,,,,,,,,,,,,,,,,,,,,,,,,,,,,,,,,,,,,,,,,,,,,,,,,,,,,,,,,,,,,,,,,,,,,,,,,,,,,,,,,,,,,,,,,,,,,,,,,,,,,,,,,,,,,,,,,,,,,,,,,,,,,,,,,,,,,,,,,,,,,,,
,,,,,,60e504dc5f86f5b0e2eb6d17,62b2acae08a09df01d7fa964,2022-06-22_06h46.28.882,Colour_Asymmetry_Pilot,2022.1.3,Win32,143.9884809,62b2a6a25f2ba72662469a01,0,40,40,161,1,onethree,,,,,,,,,,,,,,,,,,,,,,,,,,,,,,,,,,,,,,,,,,,,,,,,,,,,,,,,,,,,,,,,,,,,,,,,,,,,,,,,,,,,,,,,,,,,,,,,,,,,,,,,,,,,,,,,,,,,,,,,,,,,,,,,,,,,,,,,,,,,,,,,,,,,,,,,
,,,,,,60e504dc5f86f5b0e2eb6d17,62b2acae08a09df01d7fa964,2022-06-22_06h46.28.882,Colour_Asymmetry_Pilot,2022.1.3,Win32,143.9884809,62b2a6a25f2ba72662469a01,0,41,41,80,1,onetwo,,,,,,,,,,,,,,,,,,,,,,,,,,,,,,,,,,,,,,,,,,,,,,,,,,,,,,,,,,,,,,,,,,,,,,,,,,,,,,,,,,,,,,,,,,,,,,,,,,,,,,,,,,,,,,,,,,,,,,,,,,,,,,,,,,,,,,,,,,,,,,,,,,,,,,,,
,,,,,,60e504dc5f86f5b0e2eb6d17,62b2acae08a09df01d7fa964,2022-06-22_06h46.28.882,Colour_Asymmetry_Pilot,2022.1.3,Win32,143.9884809,62b2a6a25f2ba72662469a01,0,42,42,35,1,twofour,,,,,,,,,,,,,,,,,,,,,,,,,,,,,,,,,,,,,,,,,,,,,,,,,,,,,,,,,,,,,,,,,,,,,,,,,,,,,,,,,,,,,,,,,,,,,,,,,,,,,,,,,,,,,,,,,,,,,,,,,,,,,,,,,,,,,,,,,,,,,,,,,,,,,,,,
,,,,,,60e504dc5f86f5b0e2eb6d17,62b2acae08a09df01d7fa964,2022-06-22_06h46.28.882,Colour_Asymmetry_Pilot,2022.1.3,Win32,143.9884809,62b2a6a25f2ba72662469a01,0,43,43,45,1,threefour,,,,,,,,,,,,,,,,,,,,,,,,,,,,,,,,,,,,,,,,,,,,,,,,,,,,,,,,,,,,,,,,,,,,,,,,,,,,,,,,,,,,,,,,,,,,,,,,,,,,,,,,,,,,,,,,,,,,,,,,,,,,,,,,,,,,,,,,,,,,,,,,,,,,,,,,
,,,,,,60e504dc5f86f5b0e2eb6d17,62b2acae08a09df01d7fa964,2022-06-22_06h46.28.882,Colour_Asymmetry_Pilot,2022.1.3,Win32,143.9884809,62b2a6a25f2ba72662469a01,0,44,44,155,1,twofour,,,,,,,,,,,,,,,,,,,,,,,,,,,,,,,,,,,,,,,,,,,,,,,,,,,,,,,,,,,,,,,,,,,,,,,,,,,,,,,,,,,,,,,,,,,,,,,,,,,,,,,,,,,,,,,,,,,,,,,,,,,,,,,,,,,,,,,,,,,,,,,,,,,,,,,,
,,,,,,60e504dc5f86f5b0e2eb6d17,62b2acae08a09df01d7fa964,2022-06-22_06h46.28.882,Colour_Asymmetry_Pilot,2022.1.3,Win32,143.9884809,62b2a6a25f2ba72662469a01,0,45,45,36,1,threeone,,,,,,,,,,,,,,,,,,,,,,,,,,,,,,,,,,,,,,,,,,,,,,,,,,,,,,,,,,,,,,,,,,,,,,,,,,,,,,,,,,,,,,,,,,,,,,,,,,,,,,,,,,,,,,,,,,,,,,,,,,,,,,,,,,,,,,,,,,,,,,,,,,,,,,,,
,,,,,,60e504dc5f86f5b0e2eb6d17,62b2acae08a09df01d7fa964,2022-06-22_06h46.28.882,Colour_Asymmetry_Pilot,2022.1.3,Win32,143.9884809,62b2a6a25f2ba72662469a01,0,46,46,89,1,onethree,,,,,,,,,,,,,,,,,,,,,,,,,,,,,,,,,,,,,,,,,,,,,,,,,,,,,,,,,,,,,,,,,,,,,,,,,,,,,,,,,,,,,,,,,,,,,,,,,,,,,,,,,,,,,,,,,,,,,,,,,,,,,,,,,,,,,,,,,,,,,,,,,,,,,,,,
,,,,,,60e504dc5f86f5b0e2eb6d17,62b2acae08a09df01d7fa964,2022-06-22_06h46.28.882,Colour_Asymmetry_Pilot,2022.1.3,Win32,143.9884809,62b2a6a25f2ba72662469a01,0,47,47,153,1,onethree,,,,,,,,,,,,,,,,,,,,,,,,,,,,,,,,,,,,,,,,,,,,,,,,,,,,,,,,,,,,,,,,,,,,,,,,,,,,,,,,,,,,,,,,,,,,,,,,,,,,,,,,,,,,,,,,,,,,,,,,,,,,,,,,,,,,,,,,,,,,,,,,,,,,,,,,
,,,,,,60e504dc5f86f5b0e2eb6d17,62b2acae08a09df01d7fa964,2022-06-22_06h46.28.882,Colour_Asymmetry_Pilot,2022.1.3,Win32,143.9884809,62b2a6a25f2ba72662469a01,0,48,48,7,1,fourthree,,,,,,,,,,,,,,,,,,,,,,,,,,,,,,,,,,,,,,,,,,,,,,,,,,,,,,,,,,,,,,,,,,,,,,,,,,,,,,,,,,,,,,,,,,,,,,,,,,,,,,,,,,,,,,,,,,,,,,,,,,,,,,,,,,,,,,,,,,,,,,,,,,,,,,,,
,,,,,,60e504dc5f86f5b0e2eb6d17,62b2acae08a09df01d7fa964,2022-06-22_06h46.28.882,Colour_Asymmetry_Pilot,2022.1.3,Win32,143.9884809,62b2a6a25f2ba72662469a01,0,49,49,126,1,fourtwo,,,,,,,,,,,,,,,,,,,,,,,,,,,,,,,,,,,,,,,,,,,,,,,,,,,,,,,,,,,,,,,,,,,,,,,,,,,,,,,,,,,,,,,,,,,,,,,,,,,,,,,,,,,,,,,,,,,,,,,,,,,,,,,,,,,,,,,,,,,,,,,,,,,,,,,,
,,,,,,60e504dc5f86f5b0e2eb6d17,62b2acae08a09df01d7fa964,2022-06-22_06h46.28.882,Colour_Asymmetry_Pilot,2022.1.3,Win32,143.9884809,62b2a6a25f2ba72662469a01,0,50,50,16,1,onetwo,,,,,,,,,,,,,,,,,,,,,,,,,,,,,,,,,,,,,,,,,,,,,,,,,,,,,,,,,,,,,,,,,,,,,,,,,,,,,,,,,,,,,,,,,,,,,,,,,,,,,,,,,,,,,,,,,,,,,,,,,,,,,,,,,,,,,,,,,,,,,,,,,,,,,,,,
,,,,,,60e504dc5f86f5b0e2eb6d17,62b2acae08a09df01d7fa964,2022-06-22_06h46.28.882,Colour_Asymmetry_Pilot,2022.1.3,Win32,143.9884809,62b2a6a25f2ba72662469a01,0,51,51,114,1,twoone,,,,,,,,,,,,,,,,,,,,,,,,,,,,,,,,,,,,,,,,,,,,,,,,,,,,,,,,,,,,,,,,,,,,,,,,,,,,,,,,,,,,,,,,,,,,,,,,,,,,,,,,,,,,,,,,,,,,,,,,,,,,,,,,,,,,,,,,,,,,,,,,,,,,,,,,
,,,,,,60e504dc5f86f5b0e2eb6d17,62b2acae08a09df01d7fa964,2022-06-22_06h46.28.882,Colour_Asymmetry_Pilot,2022.1.3,Win32,143.9884809,62b2a6a25f2ba72662469a01,0,52,52,26,1,twoone,,,,,,,,,,,,,,,,,,,,,,,,,,,,,,,,,,,,,,,,,,,,,,,,,,,,,,,,,,,,,,,,,,,,,,,,,,,,,,,,,,,,,,,,,,,,,,,,,,,,,,,,,,,,,,,,,,,,,,,,,,,,,,,,,,,,,,,,,,,,,,,,,,,,,,,,
,,,,,,60e504dc5f86f5b0e2eb6d17,62b2acae08a09df01d7fa964,2022-06-22_06h46.28.882,Colour_Asymmetry_Pilot,2022.1.3,Win32,143.9884809,62b2a6a25f2ba72662469a01,0,53,53,34,1,twoone,,,,,,,,,,,,,,,,,,,,,,,,,,,,,,,,,,,,,,,,,,,,,,,,,,,,,,,,,,,,,,,,,,,,,,,,,,,,,,,,,,,,,,,,,,,,,,,,,,,,,,,,,,,,,,,,,,,,,,,,,,,,,,,,,,,,,,,,,,,,,,,,,,,,,,,,
,,,,,,60e504dc5f86f5b0e2eb6d17,62b2acae08a09df01d7fa964,2022-06-22_06h46.28.882,Colour_Asymmetry_Pilot,2022.1.3,Win32,143.9884809,62b2a6a25f2ba72662469a01,0,54,54,137,1,onethree,,,,,,,,,,,,,,,,,,,,,,,,,,,,,,,,,,,,,,,,,,,,,,,,,,,,,,,,,,,,,,,,,,,,,,,,,,,,,,,,,,,,,,,,,,,,,,,,,,,,,,,,,,,,,,,,,,,,,,,,,,,,,,,,,,,,,,,,,,,,,,,,,,,,,,,,
,,,,,,60e504dc5f86f5b0e2eb6d17,62b2acae08a09df01d7fa964,2022-06-22_06h46.28.882,Colour_Asymmetry_Pilot,2022.1.3,Win32,143.9884809,62b2a6a25f2ba72662469a01,0,55,55,94,1,fourtwo,,,,,,,,,,,,,,,,,,,,,,,,,,,,,,,,,,,,,,,,,,,,,,,,,,,,,,,,,,,,,,,,,,,,,,,,,,,,,,,,,,,,,,,,,,,,,,,,,,,,,,,,,,,,,,,,,,,,,,,,,,,,,,,,,,,,,,,,,,,,,,,,,,,,,,,,
,,,,,,60e504dc5f86f5b0e2eb6d17,62b2acae08a09df01d7fa964,2022-06-22_06h46.28.882,Colour_Asymmetry_Pilot,2022.1.3,Win32,143.9884809,62b2a6a25f2ba72662469a01,0,56,56,118,1,fourtwo,,,,,,,,,,,,,,,,,,,,,,,,,,,,,,,,,,,,,,,,,,,,,,,,,,,,,,,,,,,,,,,,,,,,,,,,,,,,,,,,,,,,,,,,,,,,,,,,,,,,,,,,,,,,,,,,,,,,,,,,,,,,,,,,,,,,,,,,,,,,,,,,,,,,,,,,
,,,,,,60e504dc5f86f5b0e2eb6d17,62b2acae08a09df01d7fa964,2022-06-22_06h46.28.882,Colour_Asymmetry_Pilot,2022.1.3,Win32,143.9884809,62b2a6a25f2ba72662469a01,0,57,57,68,1,threeone,,,,,,,,,,,,,,,,,,,,,,,,,,,,,,,,,,,,,,,,,,,,,,,,,,,,,,,,,,,,,,,,,,,,,,,,,,,,,,,,,,,,,,,,,,,,,,,,,,,,,,,,,,,,,,,,,,,,,,,,,,,,,,,,,,,,,,,,,,,,,,,,,,,,,,,,
,,,,,,60e504dc5f86f5b0e2eb6d17,62b2acae08a09df01d7fa964,2022-06-22_06h46.28.882,Colour_Asymmetry_Pilot,2022.1.3,Win32,143.9884809,62b2a6a25f2ba72662469a01,0,58,58,9,1,onethree,,,,,,,,,,,,,,,,,,,,,,,,,,,,,,,,,,,,,,,,,,,,,,,,,,,,,,,,,,,,,,,,,,,,,,,,,,,,,,,,,,,,,,,,,,,,,,,,,,,,,,,,,,,,,,,,,,,,,,,,,,,,,,,,,,,,,,,,,,,,,,,,,,,,,,,,
,,,,,,60e504dc5f86f5b0e2eb6d17,62b2acae08a09df01d7fa964,2022-06-22_06h46.28.882,Colour_Asymmetry_Pilot,2022.1.3,Win32,143.9884809,62b2a6a25f2ba72662469a01,0,59,59,152,1,onetwo,,,,,,,,,,,,,,,,,,,,,,,,,,,,,,,,,,,,,,,,,,,,,,,,,,,,,,,,,,,,,,,,,,,,,,,,,,,,,,,,,,,,,,,,,,,,,,,,,,,,,,,,,,,,,,,,,,,,,,,,,,,,,,,,,,,,,,,,,,,,,,,,,,,,,,,,
,,,,,,60e504dc5f86f5b0e2eb6d17,62b2acae08a09df01d7fa964,2022-06-22_06h46.28.882,Colour_Asymmetry_Pilot,2022.1.3,Win32,143.9884809,62b2a6a25f2ba72662469a01,0,60,60,93,1,threefour,,,,,,,,,,,,,,,,,,,,,,,,,,,,,,,,,,,,,,,,,,,,,,,,,,,,,,,,,,,,,,,,,,,,,,,,,,,,,,,,,,,,,,,,,,,,,,,,,,,,,,,,,,,,,,,,,,,,,,,,,,,,,,,,,,,,,,,,,,,,,,,,,,,,,,,,
,,,,,,60e504dc5f86f5b0e2eb6d17,62b2acae08a09df01d7fa964,2022-06-22_06h46.28.882,Colour_Asymmetry_Pilot,2022.1.3,Win32,143.9884809,62b2a6a25f2ba72662469a01,0,61,61,157,1,threefour,,,,,,,,,,,,,,,,,,,,,,,,,,,,,,,,,,,,,,,,,,,,,,,,,,,,,,,,,,,,,,,,,,,,,,,,,,,,,,,,,,,,,,,,,,,,,,,,,,,,,,,,,,,,,,,,,,,,,,,,,,,,,,,,,,,,,,,,,,,,,,,,,,,,,,,,
,,,,,,60e504dc5f86f5b0e2eb6d17,62b2acae08a09df01d7fa964,2022-06-22_06h46.28.882,Colour_Asymmetry_Pilot,2022.1.3,Win32,143.9884809,62b2a6a25f2ba72662469a01,0,62,62,75,1,twofour,,,,,,,,,,,,,,,,,,,,,,,,,,,,,,,,,,,,,,,,,,,,,,,,,,,,,,,,,,,,,,,,,,,,,,,,,,,,,,,,,,,,,,,,,,,,,,,,,,,,,,,,,,,,,,,,,,,,,,,,,,,,,,,,,,,,,,,,,,,,,,,,,,,,,,,,
,,,,,,60e504dc5f86f5b0e2eb6d17,62b2acae08a09df01d7fa964,2022-06-22_06h46.28.882,Colour_Asymmetry_Pilot,2022.1.3,Win32,143.9884809,62b2a6a25f2ba72662469a01,0,63,63,69,1,threefour,,,,,,,,,,,,,,,,,,,,,,,,,,,,,,,,,,,,,,,,,,,,,,,,,,,,,,,,,,,,,,,,,,,,,,,,,,,,,,,,,,,,,,,,,,,,,,,,,,,,,,,,,,,,,,,,,,,,,,,,,,,,,,,,,,,,,,,,,,,,,,,,,,,,,,,,
,,,,,,60e504dc5f86f5b0e2eb6d17,62b2acae08a09df01d7fa964,2022-06-22_06h46.28.882,Colour_Asymmetry_Pilot,2022.1.3,Win32,143.9884809,62b2a6a25f2ba72662469a01,0,64,64,105,1,onethree,,,,,,,,,,,,,,,,,,,,,,,,,,,,,,,,,,,,,,,,,,,,,,,,,,,,,,,,,,,,,,,,,,,,,,,,,,,,,,,,,,,,,,,,,,,,,,,,,,,,,,,,,,,,,,,,,,,,,,,,,,,,,,,,,,,,,,,,,,,,,,,,,,,,,,,,
,,,,,,60e504dc5f86f5b0e2eb6d17,62b2acae08a09df01d7fa964,2022-06-22_06h46.28.882,Colour_Asymmetry_Pilot,2022.1.3,Win32,143.9884809,62b2a6a25f2ba72662469a01,0,65,65,37,1,threefour,,,,,,,,,,,,,,,,,,,,,,,,,,,,,,,,,,,,,,,,,,,,,,,,,,,,,,,,,,,,,,,,,,,,,,,,,,,,,,,,,,,,,,,,,,,,,,,,,,,,,,,,,,,,,,,,,,,,,,,,,,,,,,,,,,,,,,,,,,,,,,,,,,,,,,,,
,,,,,,60e504dc5f86f5b0e2eb6d17,62b2acae08a09df01d7fa964,2022-06-22_06h46.28.882,Colour_Asymmetry_Pilot,2022.1.3,Win32,143.9884809,62b2a6a25f2ba72662469a01,0,66,66,65,1,onethree,,,,,,,,,,,,,,,,,,,,,,,,,,,,,,,,,,,,,,,,,,,,,,,,,,,,,,,,,,,,,,,,,,,,,,,,,,,,,,,,,,,,,,,,,,,,,,,,,,,,,,,,,,,,,,,,,,,,,,,,,,,,,,,,,,,,,,,,,,,,,,,,,,,,,,,,
,,,,,,60e504dc5f86f5b0e2eb6d17,62b2acae08a09df01d7fa964,2022-06-22_06h46.28.882,Colour_Asymmetry_Pilot,2022.1.3,Win32,143.9884809,62b2a6a25f2ba72662469a01,0,67,67,124,1,threeone,,,,,,,,,,,,,,,,,,,,,,,,,,,,,,,,,,,,,,,,,,,,,,,,,,,,,,,,,,,,,,,,,,,,,,,,,,,,,,,,,,,,,,,,,,,,,,,,,,,,,,,,,,,,,,,,,,,,,,,,,,,,,,,,,,,,,,,,,,,,,,,,,,,,,,,,
,,,,,,60e504dc5f86f5b0e2eb6d17,62b2acae08a09df01d7fa964,2022-06-22_06h46.28.882,Colour_Asymmetry_Pilot,2022.1.3,Win32,143.9884809,62b2a6a25f2ba72662469a01,0,68,68,55,1,fourthree,,,,,,,,,,,,,,,,,,,,,,,,,,,,,,,,,,,,,,,,,,,,,,,,,,,,,,,,,,,,,,,,,,,,,,,,,,,,,,,,,,,,,,,,,,,,,,,,,,,,,,,,,,,,,,,,,,,,,,,,,,,,,,,,,,,,,,,,,,,,,,,,,,,,,,,,
,,,,,,60e504dc5f86f5b0e2eb6d17,62b2acae08a09df01d7fa964,2022-06-22_06h46.28.882,Colour_Asymmetry_Pilot,2022.1.3,Win32,143.9884809,62b2a6a25f2ba72662469a01,0,69,69,128,1,onetwo,,,,,,,,,,,,,,,,,,,,,,,,,,,,,,,,,,,,,,,,,,,,,,,,,,,,,,,,,,,,,,,,,,,,,,,,,,,,,,,,,,,,,,,,,,,,,,,,,,,,,,,,,,,,,,,,,,,,,,,,,,,,,,,,,,,,,,,,,,,,,,,,,,,,,,,,
,,,,,,60e504dc5f86f5b0e2eb6d17,62b2acae08a09df01d7fa964,2022-06-22_06h46.28.882,Colour_Asymmetry_Pilot,2022.1.3,Win32,143.9884809,62b2a6a25f2ba72662469a01,0,70,70,41,1,onethree,,,,,,,,,,,,,,,,,,,,,,,,,,,,,,,,,,,,,,,,,,,,,,,,,,,,,,,,,,,,,,,,,,,,,,,,,,,,,,,,,,,,,,,,,,,,,,,,,,,,,,,,,,,,,,,,,,,,,,,,,,,,,,,,,,,,,,,,,,,,,,,,,,,,,,,,
,,,,,,60e504dc5f86f5b0e2eb6d17,62b2acae08a09df01d7fa964,2022-06-22_06h46.28.882,Colour_Asymmetry_Pilot,2022.1.3,Win32,143.9884809,62b2a6a25f2ba72662469a01,0,71,71,158,1,fourtwo,,,,,,,,,,,,,,,,,,,,,,,,,,,,,,,,,,,,,,,,,,,,,,,,,,,,,,,,,,,,,,,,,,,,,,,,,,,,,,,,,,,,,,,,,,,,,,,,,,,,,,,,,,,,,,,,,,,,,,,,,,,,,,,,,,,,,,,,,,,,,,,,,,,,,,,,
,,,,,,60e504dc5f86f5b0e2eb6d17,62b2acae08a09df01d7fa964,2022-06-22_06h46.28.882,Colour_Asymmetry_Pilot,2022.1.3,Win32,143.9884809,62b2a6a25f2ba72662469a01,0,72,72,111,1,fourthree,,,,,,,,,,,,,,,,,,,,,,,,,,,,,,,,,,,,,,,,,,,,,,,,,,,,,,,,,,,,,,,,,,,,,,,,,,,,,,,,,,,,,,,,,,,,,,,,,,,,,,,,,,,,,,,,,,,,,,,,,,,,,,,,,,,,,,,,,,,,,,,,,,,,,,,,
,,,,,,60e504dc5f86f5b0e2eb6d17,62b2acae08a09df01d7fa964,2022-06-22_06h46.28.882,Colour_Asymmetry_Pilot,2022.1.3,Win32,143.9884809,62b2a6a25f2ba72662469a01,0,73,73,17,1,onethree,,,,,,,,,,,,,,,,,,,,,,,,,,,,,,,,,,,,,,,,,,,,,,,,,,,,,,,,,,,,,,,,,,,,,,,,,,,,,,,,,,,,,,,,,,,,,,,,,,,,,,,,,,,,,,,,,,,,,,,,,,,,,,,,,,,,,,,,,,,,,,,,,,,,,,,,
,,,,,,60e504dc5f86f5b0e2eb6d17,62b2acae08a09df01d7fa964,2022-06-22_06h46.28.882,Colour_Asymmetry_Pilot,2022.1.3,Win32,143.9884809,62b2a6a25f2ba72662469a01,0,74,74,99,1,twofour,,,,,,,,,,,,,,,,,,,,,,,,,,,,,,,,,,,,,,,,,,,,,,,,,,,,,,,,,,,,,,,,,,,,,,,,,,,,,,,,,,,,,,,,,,,,,,,,,,,,,,,,,,,,,,,,,,,,,,,,,,,,,,,,,,,,,,,,,,,,,,,,,,,,,,,,
,,,,,,60e504dc5f86f5b0e2eb6d17,62b2acae08a09df01d7fa964,2022-06-22_06h46.28.882,Colour_Asymmetry_Pilot,2022.1.3,Win32,143.9884809,62b2a6a25f2ba72662469a01,0,75,75,136,1,onetwo,,,,,,,,,,,,,,,,,,,,,,,,,,,,,,,,,,,,,,,,,,,,,,,,,,,,,,,,,,,,,,,,,,,,,,,,,,,,,,,,,,,,,,,,,,,,,,,,,,,,,,,,,,,,,,,,,,,,,,,,,,,,,,,,,,,,,,,,,,,,,,,,,,,,,,,,
,,,,,,60e504dc5f86f5b0e2eb6d17,62b2acae08a09df01d7fa964,2022-06-22_06h46.28.882,Colour_Asymmetry_Pilot,2022.1.3,Win32,143.9884809,62b2a6a25f2ba72662469a01,0,76,76,122,1,twoone,,,,,,,,,,,,,,,,,,,,,,,,,,,,,,,,,,,,,,,,,,,,,,,,,,,,,,,,,,,,,,,,,,,,,,,,,,,,,,,,,,,,,,,,,,,,,,,,,,,,,,,,,,,,,,,,,,,,,,,,,,,,,,,,,,,,,,,,,,,,,,,,,,,,,,,,
,,,,,,60e504dc5f86f5b0e2eb6d17,62b2acae08a09df01d7fa964,2022-06-22_06h46.28.882,Colour_Asymmetry_Pilot,2022.1.3,Win32,143.9884809,62b2a6a25f2ba72662469a01,0,77,77,44,1,threeone,,,,,,,,,,,,,,,,,,,,,,,,,,,,,,,,,,,,,,,,,,,,,,,,,,,,,,,,,,,,,,,,,,,,,,,,,,,,,,,,,,,,,,,,,,,,,,,,,,,,,,,,,,,,,,,,,,,,,,,,,,,,,,,,,,,,,,,,,,,,,,,,,,,,,,,,
,,,,,,60e504dc5f86f5b0e2eb6d17,62b2acae08a09df01d7fa964,2022-06-22_06h46.28.882,Colour_Asymmetry_Pilot,2022.1.3,Win32,143.9884809,62b2a6a25f2ba72662469a01,0,78,78,135,1,fourthree,,,,,,,,,,,,,,,,,,,,,,,,,,,,,,,,,,,,,,,,,,,,,,,,,,,,,,,,,,,,,,,,,,,,,,,,,,,,,,,,,,,,,,,,,,,,,,,,,,,,,,,,,,,,,,,,,,,,,,,,,,,,,,,,,,,,,,,,,,,,,,,,,,,,,,,,
,,,,,,60e504dc5f86f5b0e2eb6d17,62b2acae08a09df01d7fa964,2022-06-22_06h46.28.882,Colour_Asymmetry_Pilot,2022.1.3,Win32,143.9884809,62b2a6a25f2ba72662469a01,0,79,79,62,1,fourtwo,,,,,,,,,,,,,,,,,,,,,,,,,,,,,,,,,,,,,,,,,,,,,,,,,,,,,,,,,,,,,,,,,,,,,,,,,,,,,,,,,,,,,,,,,,,,,,,,,,,,,,,,,,,,,,,,,,,,,,,,,,,,,,,,,,,,,,,,,,,,,,,,,,,,,,,,
,,,,,,60e504dc5f86f5b0e2eb6d17,62b2acae08a09df01d7fa964,2022-06-22_06h46.28.882,Colour_Asymmetry_Pilot,2022.1.3,Win32,143.9884809,62b2a6a25f2ba72662469a01,0,80,80,156,1,threeone,,,,,,,,,,,,,,,,,,,,,,,,,,,,,,,,,,,,,,,,,,,,,,,,,,,,,,,,,,,,,,,,,,,,,,,,,,,,,,,,,,,,,,,,,,,,,,,,,,,,,,,,,,,,,,,,,,,,,,,,,,,,,,,,,,,,,,,,,,,,,,,,,,,,,,,,
,,,,,,60e504dc5f86f5b0e2eb6d17,62b2acae08a09df01d7fa964,2022-06-22_06h46.28.882,Colour_Asymmetry_Pilot,2022.1.3,Win32,143.9884809,62b2a6a25f2ba72662469a01,0,81,81,71,1,fourthree,,,,,,,,,,,,,,,,,,,,,,,,,,,,,,,,,,,,,,,,,,,,,,,,,,,,,,,,,,,,,,,,,,,,,,,,,,,,,,,,,,,,,,,,,,,,,,,,,,,,,,,,,,,,,,,,,,,,,,,,,,,,,,,,,,,,,,,,,,,,,,,,,,,,,,,,
,,,,,,60e504dc5f86f5b0e2eb6d17,62b2acae08a09df01d7fa964,2022-06-22_06h46.28.882,Colour_Asymmetry_Pilot,2022.1.3,Win32,143.9884809,62b2a6a25f2ba72662469a01,0,82,82,121,1,onethree,,,,,,,,,,,,,,,,,,,,,,,,,,,,,,,,,,,,,,,,,,,,,,,,,,,,,,,,,,,,,,,,,,,,,,,,,,,,,,,,,,,,,,,,,,,,,,,,,,,,,,,,,,,,,,,,,,,,,,,,,,,,,,,,,,,,,,,,,,,,,,,,,,,,,,,,
,,,,,,60e504dc5f86f5b0e2eb6d17,62b2acae08a09df01d7fa964,2022-06-22_06h46.28.882,Colour_Asymmetry_Pilot,2022.1.3,Win32,143.9884809,62b2a6a25f2ba72662469a01,0,83,83,95,1,fourthree,,,,,,,,,,,,,,,,,,,,,,,,,,,,,,,,,,,,,,,,,,,,,,,,,,,,,,,,,,,,,,,,,,,,,,,,,,,,,,,,,,,,,,,,,,,,,,,,,,,,,,,,,,,,,,,,,,,,,,,,,,,,,,,,,,,,,,,,,,,,,,,,,,,,,,,,
,,,,,,60e504dc5f86f5b0e2eb6d17,62b2acae08a09df01d7fa964,2022-06-22_06h46.28.882,Colour_Asymmetry_Pilot,2022.1.3,Win32,143.9884809,62b2a6a25f2ba72662469a01,0,84,84,23,1,fourthree,,,,,,,,,,,,,,,,,,,,,,,,,,,,,,,,,,,,,,,,,,,,,,,,,,,,,,,,,,,,,,,,,,,,,,,,,,,,,,,,,,,,,,,,,,,,,,,,,,,,,,,,,,,,,,,,,,,,,,,,,,,,,,,,,,,,,,,,,,,,,,,,,,,,,,,,
,,,,,,60e504dc5f86f5b0e2eb6d17,62b2acae08a09df01d7fa964,2022-06-22_06h46.28.882,Colour_Asymmetry_Pilot,2022.1.3,Win32,143.9884809,62b2a6a25f2ba72662469a01,0,85,85,63,1,fourthree,,,,,,,,,,,,,,,,,,,,,,,,,,,,,,,,,,,,,,,,,,,,,,,,,,,,,,,,,,,,,,,,,,,,,,,,,,,,,,,,,,,,,,,,,,,,,,,,,,,,,,,,,,,,,,,,,,,,,,,,,,,,,,,,,,,,,,,,,,,,,,,,,,,,,,,,
,,,,,,60e504dc5f86f5b0e2eb6d17,62b2acae08a09df01d7fa964,2022-06-22_06h46.28.882,Colour_Asymmetry_Pilot,2022.1.3,Win32,143.9884809,62b2a6a25f2ba72662469a01,0,86,86,46,1,fourtwo,,,,,,,,,,,,,,,,,,,,,,,,,,,,,,,,,,,,,,,,,,,,,,,,,,,,,,,,,,,,,,,,,,,,,,,,,,,,,,,,,,,,,,,,,,,,,,,,,,,,,,,,,,,,,,,,,,,,,,,,,,,,,,,,,,,,,,,,,,,,,,,,,,,,,,,,
,,,,,,60e504dc5f86f5b0e2eb6d17,62b2acae08a09df01d7fa964,2022-06-22_06h46.28.882,Colour_Asymmetry_Pilot,2022.1.3,Win32,143.9884809,62b2a6a25f2ba72662469a01,0,87,87,6,1,fourtwo,,,,,,,,,,,,,,,,,,,,,,,,,,,,,,,,,,,,,,,,,,,,,,,,,,,,,,,,,,,,,,,,,,,,,,,,,,,,,,,,,,,,,,,,,,,,,,,,,,,,,,,,,,,,,,,,,,,,,,,,,,,,,,,,,,,,,,,,,,,,,,,,,,,,,,,,
,,,,,,60e504dc5f86f5b0e2eb6d17,62b2acae08a09df01d7fa964,2022-06-22_06h46.28.882,Colour_Asymmetry_Pilot,2022.1.3,Win32,143.9884809,62b2a6a25f2ba72662469a01,0,88,88,15,1,fourthree,,,,,,,,,,,,,,,,,,,,,,,,,,,,,,,,,,,,,,,,,,,,,,,,,,,,,,,,,,,,,,,,,,,,,,,,,,,,,,,,,,,,,,,,,,,,,,,,,,,,,,,,,,,,,,,,,,,,,,,,,,,,,,,,,,,,,,,,,,,,,,,,,,,,,,,,
,,,,,,60e504dc5f86f5b0e2eb6d17,62b2acae08a09df01d7fa964,2022-06-22_06h46.28.882,Colour_Asymmetry_Pilot,2022.1.3,Win32,143.9884809,62b2a6a25f2ba72662469a01,0,89,89,160,1,onetwo,,,,,,,,,,,,,,,,,,,,,,,,,,,,,,,,,,,,,,,,,,,,,,,,,,,,,,,,,,,,,,,,,,,,,,,,,,,,,,,,,,,,,,,,,,,,,,,,,,,,,,,,,,,,,,,,,,,,,,,,,,,,,,,,,,,,,,,,,,,,,,,,,,,,,,,,
,,,,,,60e504dc5f86f5b0e2eb6d17,62b2acae08a09df01d7fa964,2022-06-22_06h46.28.882,Colour_Asymmetry_Pilot,2022.1.3,Win32,143.9884809,62b2a6a25f2ba72662469a01,0,90,90,117,1,threefour,,,,,,,,,,,,,,,,,,,,,,,,,,,,,,,,,,,,,,,,,,,,,,,,,,,,,,,,,,,,,,,,,,,,,,,,,,,,,,,,,,,,,,,,,,,,,,,,,,,,,,,,,,,,,,,,,,,,,,,,,,,,,,,,,,,,,,,,,,,,,,,,,,,,,,,,
,,,,,,60e504dc5f86f5b0e2eb6d17,62b2acae08a09df01d7fa964,2022-06-22_06h46.28.882,Colour_Asymmetry_Pilot,2022.1.3,Win32,143.9884809,62b2a6a25f2ba72662469a01,0,91,91,33,1,onethree,,,,,,,,,,,,,,,,,,,,,,,,,,,,,,,,,,,,,,,,,,,,,,,,,,,,,,,,,,,,,,,,,,,,,,,,,,,,,,,,,,,,,,,,,,,,,,,,,,,,,,,,,,,,,,,,,,,,,,,,,,,,,,,,,,,,,,,,,,,,,,,,,,,,,,,,
,,,,,,60e504dc5f86f5b0e2eb6d17,62b2acae08a09df01d7fa964,2022-06-22_06h46.28.882,Colour_Asymmetry_Pilot,2022.1.3,Win32,143.9884809,62b2a6a25f2ba72662469a01,0,92,92,13,1,threefour,,,,,,,,,,,,,,,,,,,,,,,,,,,,,,,,,,,,,,,,,,,,,,,,,,,,,,,,,,,,,,,,,,,,,,,,,,,,,,,,,,,,,,,,,,,,,,,,,,,,,,,,,,,,,,,,,,,,,,,,,,,,,,,,,,,,,,,,,,,,,,,,,,,,,,,,
,,,,,,60e504dc5f86f5b0e2eb6d17,62b2acae08a09df01d7fa964,2022-06-22_06h46.28.882,Colour_Asymmetry_Pilot,2022.1.3,Win32,143.9884809,62b2a6a25f2ba72662469a01,0,93,93,5,1,threefour,,,,,,,,,,,,,,,,,,,,,,,,,,,,,,,,,,,,,,,,,,,,,,,,,,,,,,,,,,,,,,,,,,,,,,,,,,,,,,,,,,,,,,,,,,,,,,,,,,,,,,,,,,,,,,,,,,,,,,,,,,,,,,,,,,,,,,,,,,,,,,,,,,,,,,,,
,,,,,,60e504dc5f86f5b0e2eb6d17,62b2acae08a09df01d7fa964,2022-06-22_06h46.28.882,Colour_Asymmetry_Pilot,2022.1.3,Win32,143.9884809,62b2a6a25f2ba72662469a01,0,94,94,10,1,twoone,,,,,,,,,,,,,,,,,,,,,,,,,,,,,,,,,,,,,,,,,,,,,,,,,,,,,,,,,,,,,,,,,,,,,,,,,,,,,,,,,,,,,,,,,,,,,,,,,,,,,,,,,,,,,,,,,,,,,,,,,,,,,,,,,,,,,,,,,,,,,,,,,,,,,,,,
,,,,,,60e504dc5f86f5b0e2eb6d17,62b2acae08a09df01d7fa964,2022-06-22_06h46.28.882,Colour_Asymmetry_Pilot,2022.1.3,Win32,143.9884809,62b2a6a25f2ba72662469a01,0,95,95,31,1,fourthree,,,,,,,,,,,,,,,,,,,,,,,,,,,,,,,,,,,,,,,,,,,,,,,,,,,,,,,,,,,,,,,,,,,,,,,,,,,,,,,,,,,,,,,,,,,,,,,,,,,,,,,,,,,,,,,,,,,,,,,,,,,,,,,,,,,,,,,,,,,,,,,,,,,,,,,,
,,,,,,60e504dc5f86f5b0e2eb6d17,62b2acae08a09df01d7fa964,2022-06-22_06h46.28.882,Colour_Asymmetry_Pilot,2022.1.3,Win32,143.9884809,62b2a6a25f2ba72662469a01,0,96,96,53,1,threefour,,,,,,,,,,,,,,,,,,,,,,,,,,,,,,,,,,,,,,,,,,,,,,,,,,,,,,,,,,,,,,,,,,,,,,,,,,,,,,,,,,,,,,,,,,,,,,,,,,,,,,,,,,,,,,,,,,,,,,,,,,,,,,,,,,,,,,,,,,,,,,,,,,,,,,,,
,,,,,,60e504dc5f86f5b0e2eb6d17,62b2acae08a09df01d7fa964,2022-06-22_06h46.28.882,Colour_Asymmetry_Pilot,2022.1.3,Win32,143.9884809,62b2a6a25f2ba72662469a01,0,97,97,3,1,twofour,,,,,,,,,,,,,,,,,,,,,,,,,,,,,,,,,,,,,,,,,,,,,,,,,,,,,,,,,,,,,,,,,,,,,,,,,,,,,,,,,,,,,,,,,,,,,,,,,,,,,,,,,,,,,,,,,,,,,,,,,,,,,,,,,,,,,,,,,,,,,,,,,,,,,,,,
,,,,,,60e504dc5f86f5b0e2eb6d17,62b2acae08a09df01d7fa964,2022-06-22_06h46.28.882,Colour_Asymmetry_Pilot,2022.1.3,Win32,143.9884809,62b2a6a25f2ba72662469a01,0,98,98,112,1,onetwo,,,,,,,,,,,,,,,,,,,,,,,,,,,,,,,,,,,,,,,,,,,,,,,,,,,,,,,,,,,,,,,,,,,,,,,,,,,,,,,,,,,,,,,,,,,,,,,,,,,,,,,,,,,,,,,,,,,,,,,,,,,,,,,,,,,,,,,,,,,,,,,,,,,,,,,,
,,,,,,60e504dc5f86f5b0e2eb6d17,62b2acae08a09df01d7fa964,2022-06-22_06h46.28.882,Colour_Asymmetry_Pilot,2022.1.3,Win32,143.9884809,62b2a6a25f2ba72662469a01,0,99,99,120,1,onetwo,,,,,,,,,,,,,,,,,,,,,,,,,,,,,,,,,,,,,,,,,,,,,,,,,,,,,,,,,,,,,,,,,,,,,,,,,,,,,,,,,,,,,,,,,,,,,,,,,,,,,,,,,,,,,,,,,,,,,,,,,,,,,,,,,,,,,,,,,,,,,,,,,,,,,,,,
,,,,,,60e504dc5f86f5b0e2eb6d17,62b2acae08a09df01d7fa964,2022-06-22_06h46.28.882,Colour_Asymmetry_Pilot,2022.1.3,Win32,143.9884809,62b2a6a25f2ba72662469a01,0,100,100,25,1,onethree,,,,,,,,,,,,,,,,,,,,,,,,,,,,,,,,,,,,,,,,,,,,,,,,,,,,,,,,,,,,,,,,,,,,,,,,,,,,,,,,,,,,,,,,,,,,,,,,,,,,,,,,,,,,,,,,,,,,,,,,,,,,,,,,,,,,,,,,,,,,,,,,,,,,,,,,
,,,,,,60e504dc5f86f5b0e2eb6d17,62b2acae08a09df01d7fa964,2022-06-22_06h46.28.882,Colour_Asymmetry_Pilot,2022.1.3,Win32,143.9884809,62b2a6a25f2ba72662469a01,0,101,101,145,1,onethree,,,,,,,,,,,,,,,,,,,,,,,,,,,,,,,,,,,,,,,,,,,,,,,,,,,,,,,,,,,,,,,,,,,,,,,,,,,,,,,,,,,,,,,,,,,,,,,,,,,,,,,,,,,,,,,,,,,,,,,,,,,,,,,,,,,,,,,,,,,,,,,,,,,,,,,,
,,,,,,60e504dc5f86f5b0e2eb6d17,62b2acae08a09df01d7fa964,2022-06-22_06h46.28.882,Colour_Asymmetry_Pilot,2022.1.3,Win32,143.9884809,62b2a6a25f2ba72662469a01,0,102,102,154,1,twoone,,,,,,,,,,,,,,,,,,,,,,,,,,,,,,,,,,,,,,,,,,,,,,,,,,,,,,,,,,,,,,,,,,,,,,,,,,,,,,,,,,,,,,,,,,,,,,,,,,,,,,,,,,,,,,,,,,,,,,,,,,,,,,,,,,,,,,,,,,,,,,,,,,,,,,,,
,,,,,,60e504dc5f86f5b0e2eb6d17,62b2acae08a09df01d7fa964,2022-06-22_06h46.28.882,Colour_Asymmetry_Pilot,2022.1.3,Win32,143.9884809,62b2a6a25f2ba72662469a01,0,103,103,64,1,onetwo,,,,,,,,,,,,,,,,,,,,,,,,,,,,,,,,,,,,,,,,,,,,,,,,,,,,,,,,,,,,,,,,,,,,,,,,,,,,,,,,,,,,,,,,,,,,,,,,,,,,,,,,,,,,,,,,,,,,,,,,,,,,,,,,,,,,,,,,,,,,,,,,,,,,,,,,
,,,,,,60e504dc5f86f5b0e2eb6d17,62b2acae08a09df01d7fa964,2022-06-22_06h46.28.882,Colour_Asymmetry_Pilot,2022.1.3,Win32,143.9884809,62b2a6a25f2ba72662469a01,0,104,104,47,1,fourthree,,,,,,,,,,,,,,,,,,,,,,,,,,,,,,,,,,,,,,,,,,,,,,,,,,,,,,,,,,,,,,,,,,,,,,,,,,,,,,,,,,,,,,,,,,,,,,,,,,,,,,,,,,,,,,,,,,,,,,,,,,,,,,,,,,,,,,,,,,,,,,,,,,,,,,,,
,,,,,,60e504dc5f86f5b0e2eb6d17,62b2acae08a09df01d7fa964,2022-06-22_06h46.28.882,Colour_Asymmetry_Pilot,2022.1.3,Win32,143.9884809,62b2a6a25f2ba72662469a01,0,105,105,78,1,fourtwo,,,,,,,,,,,,,,,,,,,,,,,,,,,,,,,,,,,,,,,,,,,,,,,,,,,,,,,,,,,,,,,,,,,,,,,,,,,,,,,,,,,,,,,,,,,,,,,,,,,,,,,,,,,,,,,,,,,,,,,,,,,,,,,,,,,,,,,,,,,,,,,,,,,,,,,,
,,,,,,60e504dc5f86f5b0e2eb6d17,62b2acae08a09df01d7fa964,2022-06-22_06h46.28.882,Colour_Asymmetry_Pilot,2022.1.3,Win32,143.9884809,62b2a6a25f2ba72662469a01,0,106,106,4,1,threeone,,,,,,,,,,,,,,,,,,,,,,,,,,,,,,,,,,,,,,,,,,,,,,,,,,,,,,,,,,,,,,,,,,,,,,,,,,,,,,,,,,,,,,,,,,,,,,,,,,,,,,,,,,,,,,,,,,,,,,,,,,,,,,,,,,,,,,,,,,,,,,,,,,,,,,,,
,,,,,,60e504dc5f86f5b0e2eb6d17,62b2acae08a09df01d7fa964,2022-06-22_06h46.28.882,Colour_Asymmetry_Pilot,2022.1.3,Win32,143.9884809,62b2a6a25f2ba72662469a01,0,107,107,115,1,twofour,,,,,,,,,,,,,,,,,,,,,,,,,,,,,,,,,,,,,,,,,,,,,,,,,,,,,,,,,,,,,,,,,,,,,,,,,,,,,,,,,,,,,,,,,,,,,,,,,,,,,,,,,,,,,,,,,,,,,,,,,,,,,,,,,,,,,,,,,,,,,,,,,,,,,,,,
,,,,,,60e504dc5f86f5b0e2eb6d17,62b2acae08a09df01d7fa964,2022-06-22_06h46.28.882,Colour_Asymmetry_Pilot,2022.1.3,Win32,143.9884809,62b2a6a25f2ba72662469a01,0,108,108,38,1,fourtwo,,,,,,,,,,,,,,,,,,,,,,,,,,,,,,,,,,,,,,,,,,,,,,,,,,,,,,,,,,,,,,,,,,,,,,,,,,,,,,,,,,,,,,,,,,,,,,,,,,,,,,,,,,,,,,,,,,,,,,,,,,,,,,,,,,,,,,,,,,,,,,,,,,,,,,,,
,,,,,,60e504dc5f86f5b0e2eb6d17,62b2acae08a09df01d7fa964,2022-06-22_06h46.28.882,Colour_Asymmetry_Pilot,2022.1.3,Win32,143.9884809,62b2a6a25f2ba72662469a01,0,109,109,58,1,twoone,,,,,,,,,,,,,,,,,,,,,,,,,,,,,,,,,,,,,,,,,,,,,,,,,,,,,,,,,,,,,,,,,,,,,,,,,,,,,,,,,,,,,,,,,,,,,,,,,,,,,,,,,,,,,,,,,,,,,,,,,,,,,,,,,,,,,,,,,,,,,,,,,,,,,,,,
,,,,,,60e504dc5f86f5b0e2eb6d17,62b2acae08a09df01d7fa964,2022-06-22_06h46.28.882,Colour_Asymmetry_Pilot,2022.1.3,Win32,143.9884809,62b2a6a25f2ba72662469a01,0,110,110,110,1,fourtwo,,,,,,,,,,,,,,,,,,,,,,,,,,,,,,,,,,,,,,,,,,,,,,,,,,,,,,,,,,,,,,,,,,,,,,,,,,,,,,,,,,,,,,,,,,,,,,,,,,,,,,,,,,,,,,,,,,,,,,,,,,,,,,,,,,,,,,,,,,,,,,,,,,,,,,,,
,,,,,,60e504dc5f86f5b0e2eb6d17,62b2acae08a09df01d7fa964,2022-06-22_06h46.28.882,Colour_Asymmetry_Pilot,2022.1.3,Win32,143.9884809,62b2a6a25f2ba72662469a01,0,111,111,141,1,threefour,,,,,,,,,,,,,,,,,,,,,,,,,,,,,,,,,,,,,,,,,,,,,,,,,,,,,,,,,,,,,,,,,,,,,,,,,,,,,,,,,,,,,,,,,,,,,,,,,,,,,,,,,,,,,,,,,,,,,,,,,,,,,,,,,,,,,,,,,,,,,,,,,,,,,,,,
,,,,,,60e504dc5f86f5b0e2eb6d17,62b2acae08a09df01d7fa964,2022-06-22_06h46.28.882,Colour_Asymmetry_Pilot,2022.1.3,Win32,143.9884809,62b2a6a25f2ba72662469a01,0,112,112,51,1,twofour,,,,,,,,,,,,,,,,,,,,,,,,,,,,,,,,,,,,,,,,,,,,,,,,,,,,,,,,,,,,,,,,,,,,,,,,,,,,,,,,,,,,,,,,,,,,,,,,,,,,,,,,,,,,,,,,,,,,,,,,,,,,,,,,,,,,,,,,,,,,,,,,,,,,,,,,
,,,,,,60e504dc5f86f5b0e2eb6d17,62b2acae08a09df01d7fa964,2022-06-22_06h46.28.882,Colour_Asymmetry_Pilot,2022.1.3,Win32,143.9884809,62b2a6a25f2ba72662469a01,0,113,113,60,1,threeone,,,,,,,,,,,,,,,,,,,,,,,,,,,,,,,,,,,,,,,,,,,,,,,,,,,,,,,,,,,,,,,,,,,,,,,,,,,,,,,,,,,,,,,,,,,,,,,,,,,,,,,,,,,,,,,,,,,,,,,,,,,,,,,,,,,,,,,,,,,,,,,,,,,,,,,,
,,,,,,60e504dc5f86f5b0e2eb6d17,62b2acae08a09df01d7fa964,2022-06-22_06h46.28.882,Colour_Asymmetry_Pilot,2022.1.3,Win32,143.9884809,62b2a6a25f2ba72662469a01,0,114,114,107,1,twofour,,,,,,,,,,,,,,,,,,,,,,,,,,,,,,,,,,,,,,,,,,,,,,,,,,,,,,,,,,,,,,,,,,,,,,,,,,,,,,,,,,,,,,,,,,,,,,,,,,,,,,,,,,,,,,,,,,,,,,,,,,,,,,,,,,,,,,,,,,,,,,,,,,,,,,,,
,,,,,,60e504dc5f86f5b0e2eb6d17,62b2acae08a09df01d7fa964,2022-06-22_06h46.28.882,Colour_Asymmetry_Pilot,2022.1.3,Win32,143.9884809,62b2a6a25f2ba72662469a01,0,115,115,61,1,threefour,,,,,,,,,,,,,,,,,,,,,,,,,,,,,,,,,,,,,,,,,,,,,,,,,,,,,,,,,,,,,,,,,,,,,,,,,,,,,,,,,,,,,,,,,,,,,,,,,,,,,,,,,,,,,,,,,,,,,,,,,,,,,,,,,,,,,,,,,,,,,,,,,,,,,,,,
,,,,,,60e504dc5f86f5b0e2eb6d17,62b2acae08a09df01d7fa964,2022-06-22_06h46.28.882,Colour_Asymmetry_Pilot,2022.1.3,Win32,143.9884809,62b2a6a25f2ba72662469a01,0,116,116,85,1,threefour,,,,,,,,,,,,,,,,,,,,,,,,,,,,,,,,,,,,,,,,,,,,,,,,,,,,,,,,,,,,,,,,,,,,,,,,,,,,,,,,,,,,,,,,,,,,,,,,,,,,,,,,,,,,,,,,,,,,,,,,,,,,,,,,,,,,,,,,,,,,,,,,,,,,,,,,
,,,,,,60e504dc5f86f5b0e2eb6d17,62b2acae08a09df01d7fa964,2022-06-22_06h46.28.882,Colour_Asymmetry_Pilot,2022.1.3,Win32,143.9884809,62b2a6a25f2ba72662469a01,0,117,117,90,1,twoone,,,,,,,,,,,,,,,,,,,,,,,,,,,,,,,,,,,,,,,,,,,,,,,,,,,,,,,,,,,,,,,,,,,,,,,,,,,,,,,,,,,,,,,,,,,,,,,,,,,,,,,,,,,,,,,,,,,,,,,,,,,,,,,,,,,,,,,,,,,,,,,,,,,,,,,,
,,,,,,60e504dc5f86f5b0e2eb6d17,62b2acae08a09df01d7fa964,2022-06-22_06h46.28.882,Colour_Asymmetry_Pilot,2022.1.3,Win32,143.9884809,62b2a6a25f2ba72662469a01,0,118,118,79,1,fourthree,,,,,,,,,,,,,,,,,,,,,,,,,,,,,,,,,,,,,,,,,,,,,,,,,,,,,,,,,,,,,,,,,,,,,,,,,,,,,,,,,,,,,,,,,,,,,,,,,,,,,,,,,,,,,,,,,,,,,,,,,,,,,,,,,,,,,,,,,,,,,,,,,,,,,,,,
,,,,,,60e504dc5f86f5b0e2eb6d17,62b2acae08a09df01d7fa964,2022-06-22_06h46.28.882,Colour_Asymmetry_Pilot,2022.1.3,Win32,143.9884809,62b2a6a25f2ba72662469a01,0,119,119,39,1,fourthree,,,,,,,,,,,,,,,,,,,,,,,,,,,,,,,,,,,,,,,,,,,,,,,,,,,,,,,,,,,,,,,,,,,,,,,,,,,,,,,,,,,,,,,,,,,,,,,,,,,,,,,,,,,,,,,,,,,,,,,,,,,,,,,,,,,,,,,,,,,,,,,,,,,,,,,,
,,,,,,60e504dc5f86f5b0e2eb6d17,62b2acae08a09df01d7fa964,2022-06-22_06h46.28.882,Colour_Asymmetry_Pilot,2022.1.3,Win32,143.9884809,62b2a6a25f2ba72662469a01,0,120,120,144,1,onetwo,,,,,,,,,,,,,,,,,,,,,,,,,,,,,,,,,,,,,,,,,,,,,,,,,,,,,,,,,,,,,,,,,,,,,,,,,,,,,,,,,,,,,,,,,,,,,,,,,,,,,,,,,,,,,,,,,,,,,,,,,,,,,,,,,,,,,,,,,,,,,,,,,,,,,,,,
,,,,,,60e504dc5f86f5b0e2eb6d17,62b2acae08a09df01d7fa964,2022-06-22_06h46.28.882,Colour_Asymmetry_Pilot,2022.1.3,Win32,143.9884809,62b2a6a25f2ba72662469a01,0,121,121,133,1,threefour,,,,,,,,,,,,,,,,,,,,,,,,,,,,,,,,,,,,,,,,,,,,,,,,,,,,,,,,,,,,,,,,,,,,,,,,,,,,,,,,,,,,,,,,,,,,,,,,,,,,,,,,,,,,,,,,,,,,,,,,,,,,,,,,,,,,,,,,,,,,,,,,,,,,,,,,
,,,,,,60e504dc5f86f5b0e2eb6d17,62b2acae08a09df01d7fa964,2022-06-22_06h46.28.882,Colour_Asymmetry_Pilot,2022.1.3,Win32,143.9884809,62b2a6a25f2ba72662469a01,0,122,122,14,1,fourtwo,,,,,,,,,,,,,,,,,,,,,,,,,,,,,,,,,,,,,,,,,,,,,,,,,,,,,,,,,,,,,,,,,,,,,,,,,,,,,,,,,,,,,,,,,,,,,,,,,,,,,,,,,,,,,,,,,,,,,,,,,,,,,,,,,,,,,,,,,,,,,,,,,,,,,,,,
,,,,,,60e504dc5f86f5b0e2eb6d17,62b2acae08a09df01d7fa964,2022-06-22_06h46.28.882,Colour_Asymmetry_Pilot,2022.1.3,Win32,143.9884809,62b2a6a25f2ba72662469a01,0,123,123,123,1,twofour,,,,,,,,,,,,,,,,,,,,,,,,,,,,,,,,,,,,,,,,,,,,,,,,,,,,,,,,,,,,,,,,,,,,,,,,,,,,,,,,,,,,,,,,,,,,,,,,,,,,,,,,,,,,,,,,,,,,,,,,,,,,,,,,,,,,,,,,,,,,,,,,,,,,,,,,
,,,,,,60e504dc5f86f5b0e2eb6d17,62b2acae08a09df01d7fa964,2022-06-22_06h46.28.882,Colour_Asymmetry_Pilot,2022.1.3,Win32,143.9884809,62b2a6a25f2ba72662469a01,0,124,124,151,1,fourthree,,,,,,,,,,,,,,,,,,,,,,,,,,,,,,,,,,,,,,,,,,,,,,,,,,,,,,,,,,,,,,,,,,,,,,,,,,,,,,,,,,,,,,,,,,,,,,,,,,,,,,,,,,,,,,,,,,,,,,,,,,,,,,,,,,,,,,,,,,,,,,,,,,,,,,,,
,,,,,,60e504dc5f86f5b0e2eb6d17,62b2acae08a09df01d7fa964,2022-06-22_06h46.28.882,Colour_Asymmetry_Pilot,2022.1.3,Win32,143.9884809,62b2a6a25f2ba72662469a01,0,125,125,81,1,onethree,,,,,,,,,,,,,,,,,,,,,,,,,,,,,,,,,,,,,,,,,,,,,,,,,,,,,,,,,,,,,,,,,,,,,,,,,,,,,,,,,,,,,,,,,,,,,,,,,,,,,,,,,,,,,,,,,,,,,,,,,,,,,,,,,,,,,,,,,,,,,,,,,,,,,,,,
,,,,,,60e504dc5f86f5b0e2eb6d17,62b2acae08a09df01d7fa964,2022-06-22_06h46.28.882,Colour_Asymmetry_Pilot,2022.1.3,Win32,143.9884809,62b2a6a25f2ba72662469a01,0,126,126,131,1,twofour,,,,,,,,,,,,,,,,,,,,,,,,,,,,,,,,,,,,,,,,,,,,,,,,,,,,,,,,,,,,,,,,,,,,,,,,,,,,,,,,,,,,,,,,,,,,,,,,,,,,,,,,,,,,,,,,,,,,,,,,,,,,,,,,,,,,,,,,,,,,,,,,,,,,,,,,
,,,,,,60e504dc5f86f5b0e2eb6d17,62b2acae08a09df01d7fa964,2022-06-22_06h46.28.882,Colour_Asymmetry_Pilot,2022.1.3,Win32,143.9884809,62b2a6a25f2ba72662469a01,0,127,127,103,1,fourthree,,,,,,,,,,,,,,,,,,,,,,,,,,,,,,,,,,,,,,,,,,,,,,,,,,,,,,,,,,,,,,,,,,,,,,,,,,,,,,,,,,,,,,,,,,,,,,,,,,,,,,,,,,,,,,,,,,,,,,,,,,,,,,,,,,,,,,,,,,,,,,,,,,,,,,,,
,,,,,,60e504dc5f86f5b0e2eb6d17,62b2acae08a09df01d7fa964,2022-06-22_06h46.28.882,Colour_Asymmetry_Pilot,2022.1.3,Win32,143.9884809,62b2a6a25f2ba72662469a01,0,128,128,28,1,threeone,,,,,,,,,,,,,,,,,,,,,,,,,,,,,,,,,,,,,,,,,,,,,,,,,,,,,,,,,,,,,,,,,,,,,,,,,,,,,,,,,,,,,,,,,,,,,,,,,,,,,,,,,,,,,,,,,,,,,,,,,,,,,,,,,,,,,,,,,,,,,,,,,,,,,,,,
,,,,,,60e504dc5f86f5b0e2eb6d17,62b2acae08a09df01d7fa964,2022-06-22_06h46.28.882,Colour_Asymmetry_Pilot,2022.1.3,Win32,143.9884809,62b2a6a25f2ba72662469a01,0,129,129,132,1,threeone,,,,,,,,,,,,,,,,,,,,,,,,,,,,,,,,,,,,,,,,,,,,,,,,,,,,,,,,,,,,,,,,,,,,,,,,,,,,,,,,,,,,,,,,,,,,,,,,,,,,,,,,,,,,,,,,,,,,,,,,,,,,,,,,,,,,,,,,,,,,,,,,,,,,,,,,
,,,,,,60e504dc5f86f5b0e2eb6d17,62b2acae08a09df01d7fa964,2022-06-22_06h46.28.882,Colour_Asymmetry_Pilot,2022.1.3,Win32,143.9884809,62b2a6a25f2ba72662469a01,0,130,130,129,1,onethree,,,,,,,,,,,,,,,,,,,,,,,,,,,,,,,,,,,,,,,,,,,,,,,,,,,,,,,,,,,,,,,,,,,,,,,,,,,,,,,,,,,,,,,,,,,,,,,,,,,,,,,,,,,,,,,,,,,,,,,,,,,,,,,,,,,,,,,,,,,,,,,,,,,,,,,,
,,,,,,60e504dc5f86f5b0e2eb6d17,62b2acae08a09df01d7fa964,2022-06-22_06h46.28.882,Colour_Asymmetry_Pilot,2022.1.3,Win32,143.9884809,62b2a6a25f2ba72662469a01,0,131,131,159,1,fourthree,,,,,,,,,,,,,,,,,,,,,,,,,,,,,,,,,,,,,,,,,,,,,,,,,,,,,,,,,,,,,,,,,,,,,,,,,,,,,,,,,,,,,,,,,,,,,,,,,,,,,,,,,,,,,,,,,,,,,,,,,,,,,,,,,,,,,,,,,,,,,,,,,,,,,,,,
,,,,,,60e504dc5f86f5b0e2eb6d17,62b2acae08a09df01d7fa964,2022-06-22_06h46.28.882,Colour_Asymmetry_Pilot,2022.1.3,Win32,143.9884809,62b2a6a25f2ba72662469a01,0,132,132,113,1,onethree,,,,,,,,,,,,,,,,,,,,,,,,,,,,,,,,,,,,,,,,,,,,,,,,,,,,,,,,,,,,,,,,,,,,,,,,,,,,,,,,,,,,,,,,,,,,,,,,,,,,,,,,,,,,,,,,,,,,,,,,,,,,,,,,,,,,,,,,,,,,,,,,,,,,,,,,
,,,,,,60e504dc5f86f5b0e2eb6d17,62b2acae08a09df01d7fa964,2022-06-22_06h46.28.882,Colour_Asymmetry_Pilot,2022.1.3,Win32,143.9884809,62b2a6a25f2ba72662469a01,0,133,133,29,1,threefour,,,,,,,,,,,,,,,,,,,,,,,,,,,,,,,,,,,,,,,,,,,,,,,,,,,,,,,,,,,,,,,,,,,,,,,,,,,,,,,,,,,,,,,,,,,,,,,,,,,,,,,,,,,,,,,,,,,,,,,,,,,,,,,,,,,,,,,,,,,,,,,,,,,,,,,,
,,,,,,60e504dc5f86f5b0e2eb6d17,62b2acae08a09df01d7fa964,2022-06-22_06h46.28.882,Colour_Asymmetry_Pilot,2022.1.3,Win32,143.9884809,62b2a6a25f2ba72662469a01,0,134,134,125,1,threefour,,,,,,,,,,,,,,,,,,,,,,,,,,,,,,,,,,,,,,,,,,,,,,,,,,,,,,,,,,,,,,,,,,,,,,,,,,,,,,,,,,,,,,,,,,,,,,,,,,,,,,,,,,,,,,,,,,,,,,,,,,,,,,,,,,,,,,,,,,,,,,,,,,,,,,,,
,,,,,,60e504dc5f86f5b0e2eb6d17,62b2acae08a09df01d7fa964,2022-06-22_06h46.28.882,Colour_Asymmetry_Pilot,2022.1.3,Win32,143.9884809,62b2a6a25f2ba72662469a01,0,135,135,73,1,onethree,,,,,,,,,,,,,,,,,,,,,,,,,,,,,,,,,,,,,,,,,,,,,,,,,,,,,,,,,,,,,,,,,,,,,,,,,,,,,,,,,,,,,,,,,,,,,,,,,,,,,,,,,,,,,,,,,,,,,,,,,,,,,,,,,,,,,,,,,,,,,,,,,,,,,,,,
,,,,,,60e504dc5f86f5b0e2eb6d17,62b2acae08a09df01d7fa964,2022-06-22_06h46.28.882,Colour_Asymmetry_Pilot,2022.1.3,Win32,143.9884809,62b2a6a25f2ba72662469a01,0,136,136,96,1,onetwo,,,,,,,,,,,,,,,,,,,,,,,,,,,,,,,,,,,,,,,,,,,,,,,,,,,,,,,,,,,,,,,,,,,,,,,,,,,,,,,,,,,,,,,,,,,,,,,,,,,,,,,,,,,,,,,,,,,,,,,,,,,,,,,,,,,,,,,,,,,,,,,,,,,,,,,,
,,,,,,60e504dc5f86f5b0e2eb6d17,62b2acae08a09df01d7fa964,2022-06-22_06h46.28.882,Colour_Asymmetry_Pilot,2022.1.3,Win32,143.9884809,62b2a6a25f2ba72662469a01,0,137,137,19,1,twofour,,,,,,,,,,,,,,,,,,,,,,,,,,,,,,,,,,,,,,,,,,,,,,,,,,,,,,,,,,,,,,,,,,,,,,,,,,,,,,,,,,,,,,,,,,,,,,,,,,,,,,,,,,,,,,,,,,,,,,,,,,,,,,,,,,,,,,,,,,,,,,,,,,,,,,,,
,,,,,,60e504dc5f86f5b0e2eb6d17,62b2acae08a09df01d7fa964,2022-06-22_06h46.28.882,Colour_Asymmetry_Pilot,2022.1.3,Win32,143.9884809,62b2a6a25f2ba72662469a01,0,138,138,24,1,onetwo,,,,,,,,,,,,,,,,,,,,,,,,,,,,,,,,,,,,,,,,,,,,,,,,,,,,,,,,,,,,,,,,,,,,,,,,,,,,,,,,,,,,,,,,,,,,,,,,,,,,,,,,,,,,,,,,,,,,,,,,,,,,,,,,,,,,,,,,,,,,,,,,,,,,,,,,
,,,,,,60e504dc5f86f5b0e2eb6d17,62b2acae08a09df01d7fa964,2022-06-22_06h46.28.882,Colour_Asymmetry_Pilot,2022.1.3,Win32,143.9884809,62b2a6a25f2ba72662469a01,0,139,139,143,1,fourthree,,,,,,,,,,,,,,,,,,,,,,,,,,,,,,,,,,,,,,,,,,,,,,,,,,,,,,,,,,,,,,,,,,,,,,,,,,,,,,,,,,,,,,,,,,,,,,,,,,,,,,,,,,,,,,,,,,,,,,,,,,,,,,,,,,,,,,,,,,,,,,,,,,,,,,,,
,,,,,,60e504dc5f86f5b0e2eb6d17,62b2acae08a09df01d7fa964,2022-06-22_06h46.28.882,Colour_Asymmetry_Pilot,2022.1.3,Win32,143.9884809,62b2a6a25f2ba72662469a01,0,140,140,127,1,fourthree,,,,,,,,,,,,,,,,,,,,,,,,,,,,,,,,,,,,,,,,,,,,,,,,,,,,,,,,,,,,,,,,,,,,,,,,,,,,,,,,,,,,,,,,,,,,,,,,,,,,,,,,,,,,,,,,,,,,,,,,,,,,,,,,,,,,,,,,,,,,,,,,,,,,,,,,
,,,,,,60e504dc5f86f5b0e2eb6d17,62b2acae08a09df01d7fa964,2022-06-22_06h46.28.882,Colour_Asymmetry_Pilot,2022.1.3,Win32,143.9884809,62b2a6a25f2ba72662469a01,0,141,141,32,1,onetwo,,,,,,,,,,,,,,,,,,,,,,,,,,,,,,,,,,,,,,,,,,,,,,,,,,,,,,,,,,,,,,,,,,,,,,,,,,,,,,,,,,,,,,,,,,,,,,,,,,,,,,,,,,,,,,,,,,,,,,,,,,,,,,,,,,,,,,,,,,,,,,,,,,,,,,,,
,,,,,,60e504dc5f86f5b0e2eb6d17,62b2acae08a09df01d7fa964,2022-06-22_06h46.28.882,Colour_Asymmetry_Pilot,2022.1.3,Win32,143.9884809,62b2a6a25f2ba72662469a01,0,142,142,100,1,threeone,,,,,,,,,,,,,,,,,,,,,,,,,,,,,,,,,,,,,,,,,,,,,,,,,,,,,,,,,,,,,,,,,,,,,,,,,,,,,,,,,,,,,,,,,,,,,,,,,,,,,,,,,,,,,,,,,,,,,,,,,,,,,,,,,,,,,,,,,,,,,,,,,,,,,,,,
,,,,,,60e504dc5f86f5b0e2eb6d17,62b2acae08a09df01d7fa964,2022-06-22_06h46.28.882,Colour_Asymmetry_Pilot,2022.1.3,Win32,143.9884809,62b2a6a25f2ba72662469a01,0,143,143,74,1,twoone,,,,,,,,,,,,,,,,,,,,,,,,,,,,,,,,,,,,,,,,,,,,,,,,,,,,,,,,,,,,,,,,,,,,,,,,,,,,,,,,,,,,,,,,,,,,,,,,,,,,,,,,,,,,,,,,,,,,,,,,,,,,,,,,,,,,,,,,,,,,,,,,,,,,,,,,
,,,,,,60e504dc5f86f5b0e2eb6d17,62b2acae08a09df01d7fa964,2022-06-22_06h46.28.882,Colour_Asymmetry_Pilot,2022.1.3,Win32,143.9884809,62b2a6a25f2ba72662469a01,0,144,144,82,1,twoone,,,,,,,,,,,,,,,,,,,,,,,,,,,,,,,,,,,,,,,,,,,,,,,,,,,,,,,,,,,,,,,,,,,,,,,,,,,,,,,,,,,,,,,,,,,,,,,,,,,,,,,,,,,,,,,,,,,,,,,,,,,,,,,,,,,,,,,,,,,,,,,,,,,,,,,,
,,,,,,60e504dc5f86f5b0e2eb6d17,62b2acae08a09df01d7fa964,2022-06-22_06h46.28.882,Colour_Asymmetry_Pilot,2022.1.3,Win32,143.9884809,62b2a6a25f2ba72662469a01,0,145,145,49,1,onethree,,,,,,,,,,,,,,,,,,,,,,,,,,,,,,,,,,,,,,,,,,,,,,,,,,,,,,,,,,,,,,,,,,,,,,,,,,,,,,,,,,,,,,,,,,,,,,,,,,,,,,,,,,,,,,,,,,,,,,,,,,,,,,,,,,,,,,,,,,,,,,,,,,,,,,,,
,,,,,,60e504dc5f86f5b0e2eb6d17,62b2acae08a09df01d7fa964,2022-06-22_06h46.28.882,Colour_Asymmetry_Pilot,2022.1.3,Win32,143.9884809,62b2a6a25f2ba72662469a01,0,146,146,149,1,threefour,,,,,,,,,,,,,,,,,,,,,,,,,,,,,,,,,,,,,,,,,,,,,,,,,,,,,,,,,,,,,,,,,,,,,,,,,,,,,,,,,,,,,,,,,,,,,,,,,,,,,,,,,,,,,,,,,,,,,,,,,,,,,,,,,,,,,,,,,,,,,,,,,,,,,,,,
,,,,,,60e504dc5f86f5b0e2eb6d17,62b2acae08a09df01d7fa964,2022-06-22_06h46.28.882,Colour_Asymmetry_Pilot,2022.1.3,Win32,143.9884809,62b2a6a25f2ba72662469a01,0,147,147,59,1,twofour,,,,,,,,,,,,,,,,,,,,,,,,,,,,,,,,,,,,,,,,,,,,,,,,,,,,,,,,,,,,,,,,,,,,,,,,,,,,,,,,,,,,,,,,,,,,,,,,,,,,,,,,,,,,,,,,,,,,,,,,,,,,,,,,,,,,,,,,,,,,,,,,,,,,,,,,
,,,,,,60e504dc5f86f5b0e2eb6d17,62b2acae08a09df01d7fa964,2022-06-22_06h46.28.882,Colour_Asymmetry_Pilot,2022.1.3,Win32,143.9884809,62b2a6a25f2ba72662469a01,0,148,148,102,1,fourtwo,,,,,,,,,,,,,,,,,,,,,,,,,,,,,,,,,,,,,,,,,,,,,,,,,,,,,,,,,,,,,,,,,,,,,,,,,,,,,,,,,,,,,,,,,,,,,,,,,,,,,,,,,,,,,,,,,,,,,,,,,,,,,,,,,,,,,,,,,,,,,,,,,,,,,,,,
,,,,,,60e504dc5f86f5b0e2eb6d17,62b2acae08a09df01d7fa964,2022-06-22_06h46.28.882,Colour_Asymmetry_Pilot,2022.1.3,Win32,143.9884809,62b2a6a25f2ba72662469a01,0,149,149,83,1,twofour,,,,,,,,,,,,,,,,,,,,,,,,,,,,,,,,,,,,,,,,,,,,,,,,,,,,,,,,,,,,,,,,,,,,,,,,,,,,,,,,,,,,,,,,,,,,,,,,,,,,,,,,,,,,,,,,,,,,,,,,,,,,,,,,,,,,,,,,,,,,,,,,,,,,,,,,
,,,,,,60e504dc5f86f5b0e2eb6d17,62b2acae08a09df01d7fa964,2022-06-22_06h46.28.882,Colour_Asymmetry_Pilot,2022.1.3,Win32,143.9884809,62b2a6a25f2ba72662469a01,0,150,150,130,1,twoone,,,,,,,,,,,,,,,,,,,,,,,,,,,,,,,,,,,,,,,,,,,,,,,,,,,,,,,,,,,,,,,,,,,,,,,,,,,,,,,,,,,,,,,,,,,,,,,,,,,,,,,,,,,,,,,,,,,,,,,,,,,,,,,,,,,,,,,,,,,,,,,,,,,,,,,,
,,,,,,60e504dc5f86f5b0e2eb6d17,62b2acae08a09df01d7fa964,2022-06-22_06h46.28.882,Colour_Asymmetry_Pilot,2022.1.3,Win32,143.9884809,62b2a6a25f2ba72662469a01,0,151,151,148,1,threeone,,,,,,,,,,,,,,,,,,,,,,,,,,,,,,,,,,,,,,,,,,,,,,,,,,,,,,,,,,,,,,,,,,,,,,,,,,,,,,,,,,,,,,,,,,,,,,,,,,,,,,,,,,,,,,,,,,,,,,,,,,,,,,,,,,,,,,,,,,,,,,,,,,,,,,,,
,,,,,,60e504dc5f86f5b0e2eb6d17,62b2acae08a09df01d7fa964,2022-06-22_06h46.28.882,Colour_Asymmetry_Pilot,2022.1.3,Win32,143.9884809,62b2a6a25f2ba72662469a01,0,152,152,52,1,threeone,,,,,,,,,,,,,,,,,,,,,,,,,,,,,,,,,,,,,,,,,,,,,,,,,,,,,,,,,,,,,,,,,,,,,,,,,,,,,,,,,,,,,,,,,,,,,,,,,,,,,,,,,,,,,,,,,,,,,,,,,,,,,,,,,,,,,,,,,,,,,,,,,,,,,,,,
,,,,,,60e504dc5f86f5b0e2eb6d17,62b2acae08a09df01d7fa964,2022-06-22_06h46.28.882,Colour_Asymmetry_Pilot,2022.1.3,Win32,143.9884809,62b2a6a25f2ba72662469a01,0,153,153,86,1,fourtwo,,,,,,,,,,,,,,,,,,,,,,,,,,,,,,,,,,,,,,,,,,,,,,,,,,,,,,,,,,,,,,,,,,,,,,,,,,,,,,,,,,,,,,,,,,,,,,,,,,,,,,,,,,,,,,,,,,,,,,,,,,,,,,,,,,,,,,,,,,,,,,,,,,,,,,,,
,,,,,,60e504dc5f86f5b0e2eb6d17,62b2acae08a09df01d7fa964,2022-06-22_06h46.28.882,Colour_Asymmetry_Pilot,2022.1.3,Win32,143.9884809,62b2a6a25f2ba72662469a01,0,154,154,8,1,onetwo,,,,,,,,,,,,,,,,,,,,,,,,,,,,,,,,,,,,,,,,,,,,,,,,,,,,,,,,,,,,,,,,,,,,,,,,,,,,,,,,,,,,,,,,,,,,,,,,,,,,,,,,,,,,,,,,,,,,,,,,,,,,,,,,,,,,,,,,,,,,,,,,,,,,,,,,
,,,,,,60e504dc5f86f5b0e2eb6d17,62b2acae08a09df01d7fa964,2022-06-22_06h46.28.882,Colour_Asymmetry_Pilot,2022.1.3,Win32,143.9884809,62b2a6a25f2ba72662469a01,0,155,155,66,1,twoone,,,,,,,,,,,,,,,,,,,,,,,,,,,,,,,,,,,,,,,,,,,,,,,,,,,,,,,,,,,,,,,,,,,,,,,,,,,,,,,,,,,,,,,,,,,,,,,,,,,,,,,,,,,,,,,,,,,,,,,,,,,,,,,,,,,,,,,,,,,,,,,,,,,,,,,,
,,,,,,60e504dc5f86f5b0e2eb6d17,62b2acae08a09df01d7fa964,2022-06-22_06h46.28.882,Colour_Asymmetry_Pilot,2022.1.3,Win32,143.9884809,62b2a6a25f2ba72662469a01,0,156,156,98,1,twoone,,,,,,,,,,,,,,,,,,,,,,,,,,,,,,,,,,,,,,,,,,,,,,,,,,,,,,,,,,,,,,,,,,,,,,,,,,,,,,,,,,,,,,,,,,,,,,,,,,,,,,,,,,,,,,,,,,,,,,,,,,,,,,,,,,,,,,,,,,,,,,,,,,,,,,,,
,,,,,,60e504dc5f86f5b0e2eb6d17,62b2acae08a09df01d7fa964,2022-06-22_06h46.28.882,Colour_Asymmetry_Pilot,2022.1.3,Win32,143.9884809,62b2a6a25f2ba72662469a01,0,157,157,42,1,twoone,,,,,,,,,,,,,,,,,,,,,,,,,,,,,,,,,,,,,,,,,,,,,,,,,,,,,,,,,,,,,,,,,,,,,,,,,,,,,,,,,,,,,,,,,,,,,,,,,,,,,,,,,,,,,,,,,,,,,,,,,,,,,,,,,,,,,,,,,,,,,,,,,,,,,,,,
,,,,,,60e504dc5f86f5b0e2eb6d17,62b2acae08a09df01d7fa964,2022-06-22_06h46.28.882,Colour_Asymmetry_Pilot,2022.1.3,Win32,143.9884809,62b2a6a25f2ba72662469a01,0,158,158,72,1,onetwo,,,,,,,,,,,,,,,,,,,,,,,,,,,,,,,,,,,,,,,,,,,,,,,,,,,,,,,,,,,,,,,,,,,,,,,,,,,,,,,,,,,,,,,,,,,,,,,,,,,,,,,,,,,,,,,,,,,,,,,,,,,,,,,,,,,,,,,,,,,,,,,,,,,,,,,,
,,,,,,60e504dc5f86f5b0e2eb6d17,62b2acae08a09df01d7fa964,2022-06-22_06h46.28.882,Colour_Asymmetry_Pilot,2022.1.3,Win32,143.9884809,62b2a6a25f2ba72662469a01,0,159,159,40,1,onetwo,,,,,,,,,,,,,,,,,,,,,,,,,,,,,,,,,,,,,,,,,,,,,,,,,,,,,,,,,,,,,,,,,,,,,,,,,,,,,,,,,,,,,,,,,,,,,,,,,,,,,,,,,,,,,,,,,,,,,,,,,,,,,,,,,,,,,,,,,,,,,,,,,,,,,,,,
,,,,,,60e504dc5f86f5b0e2eb6d17,62b2acae08a09df01d7fa964,2022-06-22_06h46.28.882,Colour_Asymmetry_Pilot,2022.1.3,Win32,143.9884809,62b2a6a25f2ba72662469a01,0,160,160,48,1,onetwo,,,,,,,,,,,,,,,,,,,,,,,,,,,,,,,,,,,,,,,,,,,,,,,,,,,,,,,,,,,,,,,,,,,,,,,,,,,,,,,,,,,,,,,,,,,,,,,,,,,,,,,,,,,,,,,,,,,,,,,,,,,,,,,,,,,,,,,,,,,,,,,,,,,,,,,,
,,,,,,60e504dc5f86f5b0e2eb6d17,62b2acae08a09df01d7fa964,2022-06-22_06h46.28.882,Colour_Asymmetry_Pilot,2022.1.3,Win32,143.9884809,62b2a6a25f2ba72662469a01,0,161,161,2,1,twoone,,,,,,,,,,,,,,,,,,,,,,,,,,,,,,,,,,,,,,,,,,,,,,,,,,,,,,,,,,,,,,,,,,,,,,,,,,,,,,,,,,,,,,,,,,,,,,,,,,,,,,,,,,,,,,,,,,,,,,,,,,,,,,,,,,,,,,,,,,,,,,,,,,,,,,,,
,,,,,,60e504dc5f86f5b0e2eb6d17,62b2acae08a09df01d7fa964,2022-06-22_06h46.28.882,Colour_Asymmetry_Pilot,2022.1.3,Win32,143.9884809,62b2a6a25f2ba72662469a01,,,,,,,space,1.337,space,2.8352,space,9.3436,space,2.9628,space,0.5589,space,2.3864,"[0.0351999999999999,0.41159999999999997,0.0038000000000000256]",twofour,"[-0.4902000000000001,0.2704,-0.45899999999999996]",2,12.2403,111,-47,1,0,0,response3disk_5,6,14,1,0,0,rectangle_8,93,-46,1,0,0,response3disk_7,5,2,12,12,1,0,0,rectangle_4,0,0,0,0,1,,,,,,,,,,,,,,,,,,,,,,,,,,,,,,,,,,,,,,,,,,,,,,,,,,,,,,,,,,,,,,,,,,,,,,,,,,,,,,,,,,,,,,,,,,,,,,,,,,,,,,,,
,,,,,,60e504dc5f86f5b0e2eb6d17,62b2acae08a09df01d7fa964,2022-06-22_06h46.28.882,Colour_Asymmetry_Pilot,2022.1.3,Win32,143.9884809,62b2a6a25f2ba72662469a01,,,,,,,,,,,,,,,,,,,"[-0.48240000000000005,0.3175999999999999,0.2156]",twoone,"[-0.06680000000000008,-0.45100000000000007,-0.906]",-4,1.9674,-21,119,1,0,0,response7disk_5,-4,0,1,0,0,rectangle_8,-4,0,1,0,0,,,2,-4,0,1,0,0,,1,0,1,0,1,,,,,,,,,,,,,,,,,,,,,,,,,,,,,,,,,,,,,,,,,,,,,,,,,,,,,,,,,,,,,,,,,,,,,,,,,,,,,,,,,,,,,,,,,,,,,,,,,,,,,,,,
,,,,,,60e504dc5f86f5b0e2eb6d17,62b2acae08a09df01d7fa964,2022-06-22_06h46.28.882,Colour_Asymmetry_Pilot,2022.1.3,Win32,143.9884809,62b2a6a25f2ba72662469a01,,,,,,,,,,,,,,,,,,,"[-0.4668,-0.8746,-0.2942]",threeone,"[0.3568,-0.20799999999999996,-0.9844]",-4,1.5463,-41,100,1,0,0,response7disk_5,2,-3,1,0,0,rectangle_8,2,-3,1,0,0,,,2,2,-3,1,0,0,,2,0,2,0,1,,,,,,,,,,,,,,,,,,,,,,,,,,,,,,,,,,,,,,,,,,,,,,,,,,,,,,,,,,,,,,,,,,,,,,,,,,,,,,,,,,,,,,,,,,,,,,,,,,,,,,,,
,,,,,,60e504dc5f86f5b0e2eb6d17,62b2acae08a09df01d7fa964,2022-06-22_06h46.28.882,Colour_Asymmetry_Pilot,2022.1.3,Win32,143.9884809,62b2a6a25f2ba72662469a01,,,,,,,,,,,,,,,,,,,"[0.04299999999999993,0.16060000000000008,-0.6628000000000001]",fourthree,"[0.8274000000000001,-0.5844,-0.9452]",-3,2.4744,-114,59,1,0,0,response7disk_5,10,-5,1,0,0,rectangle_8,129,-41,1,0,0,response3disk_7,5,2,38,-15,1,0,0,rectangle_4,3,0,3,0,1,,,,,,,,,,,,,,,,,,,,,,,,,,,,,,,,,,,,,,,,,,,,,,,,,,,,,,,,,,,,,,,,,,,,,,,,,,,,,,,,,,,,,,,,,,,,,,,,,,,,,,,,
,,,,,,60e504dc5f86f5b0e2eb6d17,62b2acae08a09df01d7fa964,2022-06-22_06h46.28.882,Colour_Asymmetry_Pilot,2022.1.3,Win32,143.9884809,62b2a6a25f2ba72662469a01,,,,,,,,,,,,,,,,,,,"[0.40379999999999994,0.09000000000000008,0.44300000000000006]",twoone,"[-0.6,0.16860000000000008,0.44300000000000006]",-2,1.3036,-101,-40,1,0,0,response5disk_5,-3,14,1,0,0,rectangle_8,-3,14,1,0,0,,,2,-3,14,1,0,0,,4,0,4,0,1,,,,,,,,,,,,,,,,,,,,,,,,,,,,,,,,,,,,,,,,,,,,,,,,,,,,,,,,,,,,,,,,,,,,,,,,,,,,,,,,,,,,,,,,,,,,,,,,,,,,,,,,
,,,,,,60e504dc5f86f5b0e2eb6d17,62b2acae08a09df01d7fa964,2022-06-22_06h46.28.882,Colour_Asymmetry_Pilot,2022.1.3,Win32,143.9884809,62b2a6a25f2ba72662469a01,,,,,,,,,,,,,,,,,,,"[-0.24719999999999998,0.5213999999999999,-0.12959999999999994]",twoone,"[-0.4668,-0.8746,-0.2942]",-4,1.519,-60,100,1,0,0,response7disk_5,-22,4,1,0,0,rectangle_8,-22,4,1,0,0,,,2,-22,4,1,0,0,,5,0,5,0,1,,,,,,,,,,,,,,,,,,,,,,,,,,,,,,,,,,,,,,,,,,,,,,,,,,,,,,,,,,,,,,,,,,,,,,,,,,,,,,,,,,,,,,,,,,,,,,,,,,,,,,,,
,,,,,,60e504dc5f86f5b0e2eb6d17,62b2acae08a09df01d7fa964,2022-06-22_06h46.28.882,Colour_Asymmetry_Pilot,2022.1.3,Win32,143.9884809,62b2a6a25f2ba72662469a01,,,,,,,,,,,,,,,,,,,"[0.05879999999999996,0.2784,0.5841999999999998]",threeone,"[-0.6235999999999999,-0.6786,-0.08239999999999992]",1,2.3771,59,-91,1,0,0,response3disk_5,-1,-6,1,0,0,rectangle_8,-1,-6,1,0,0,,,2,-1,-6,1,0,0,,6,0,6,0,1,,,,,,,,,,,,,,,,,,,,,,,,,,,,,,,,,,,,,,,,,,,,,,,,,,,,,,,,,,,,,,,,,,,,,,,,,,,,,,,,,,,,,,,,,,,,,,,,,,,,,,,,
,,,,,,60e504dc5f86f5b0e2eb6d17,62b2acae08a09df01d7fa964,2022-06-22_06h46.28.882,Colour_Asymmetry_Pilot,2022.1.3,Win32,143.9884809,62b2a6a25f2ba72662469a01,,,,,,,,,,,,,,,,,,,,onetwo,,2,2.0983,,,,,,,,,,,,,,,,,,,,,,,,,,,,,,,,space,27.238,"[-0.09019999999999995,0.44300000000000006,0.5371999999999999]","[-0.9766,-0.34920000000000007,0.2156]",95,-61,1,0,0,response3disk,11,0,1,0,0,rectangle,11,0,1,0,0,,1,0.0008,0,11,0,1,0,0,0,0,0,108,1,27,second,,,,,,,,,,,,,,,,,,,,,,,,,,,,,,,,,,,,,,,,,,,,,,,,,,,,,,,,,,,,,,,,,,,
,,,,,,60e504dc5f86f5b0e2eb6d17,62b2acae08a09df01d7fa964,2022-06-22_06h46.28.882,Colour_Asymmetry_Pilot,2022.1.3,Win32,143.9884809,62b2a6a25f2ba72662469a01,,,,,,,,,,,,,,,,,,,,twofour,,-2,1.082,,,,,,,,,,,,,,,,,,,,,,,,,,,,,,,,,,"[0.9686000000000001,0.5763999999999998,0.11359999999999992]","[-0.7412000000000001,-0.08239999999999992,-0.6864]",-103,-51,1,0,0,response5disk,6,8,1,0,0,rectangle,6,8,1,0,0,,3,0.0003,0,6,8,1,0,0,0,1,1,126,1,45,second,,,,,,,,,,,,,,,,,,,,,,,,,,,,,,,,,,,,,,,,,,,,,,,,,,,,,,,,,,,,,,,,,,,
,,,,,,60e504dc5f86f5b0e2eb6d17,62b2acae08a09df01d7fa964,2022-06-22_06h46.28.882,Colour_Asymmetry_Pilot,2022.1.3,Win32,143.9884809,62b2a6a25f2ba72662469a01,,,,,,,,,,,,,,,,,,,,threeone,,-1,1.4019,,,,,,,,,,,,,,,,,,,,,,,,,,,,,,,,,,"[0.7646000000000002,0.07440000000000002,0.2704]","[-0.8982,-0.37259999999999993,0.2784]",-55,-96,1,0,0,response5disk,-8,-3,1,0,0,rectangle,-8,-3,1,0,0,,1,0.0005,0,-8,-3,1,0,0,0,2,2,109,1,28,second,,,,,,,,,,,,,,,,,,,,,,,,,,,,,,,,,,,,,,,,,,,,,,,,,,,,,,,,,,,,,,,,,,,
,,,,,,60e504dc5f86f5b0e2eb6d17,62b2acae08a09df01d7fa964,2022-06-22_06h46.28.882,Colour_Asymmetry_Pilot,2022.1.3,Win32,143.9884809,62b2a6a25f2ba72662469a01,,,,,,,,,,,,,,,,,,,,onetwo,,1,1.2344,,,,,,,,,,,,,,,,,,,,,,,,,,,,,,,,,,"[0.6625999999999999,0.4980000000000002,-0.357]","[0.4196,0.4665999999999999,0.3568]",67,-113,1,0,0,response3disk,-8,-7,1,0,0,rectangle,-8,-7,1,0,0,,2,0.0003,0,-8,-7,1,0,0,0,3,3,99,1,18,second,,,,,,,,,,,,,,,,,,,,,,,,,,,,,,,,,,,,,,,,,,,,,,,,,,,,,,,,,,,,,,,,,,,
,,,,,,60e504dc5f86f5b0e2eb6d17,62b2acae08a09df01d7fa964,2022-06-22_06h46.28.882,Colour_Asymmetry_Pilot,2022.1.3,Win32,143.9884809,62b2a6a25f2ba72662469a01,,,,,,,,,,,,,,,,,,,,threefour,,1,0.7292,,,,,,,,,,,,,,,,,,,,,,,,,,,,,,,,,,"[0.8115999999999999,-0.0040000000000000036,-0.09819999999999995]","[0.6625999999999999,0.4980000000000002,-0.357]",50,-86,1,0,0,response3disk,-21,-8,1,0,0,rectangle,-21,-8,1,0,0,,3,0.0003,0,-21,-8,1,0,0,0,4,4,91,1,10,second,,,,,,,,,,,,,,,,,,,,,,,,,,,,,,,,,,,,,,,,,,,,,,,,,,,,,,,,,,,,,,,,,,,
,,,,,,60e504dc5f86f5b0e2eb6d17,62b2acae08a09df01d7fa964,2022-06-22_06h46.28.882,Colour_Asymmetry_Pilot,2022.1.3,Win32,143.9884809,62b2a6a25f2ba72662469a01,,,,,,,,,,,,,,,,,,,,twoone,,2,1.9453,,,,,,,,,,,,,,,,,,,,,,,,,,,,,,,,,,"[-0.9766,-0.34920000000000007,0.2156]","[-0.9296,-0.12959999999999994,-0.043199999999999905]",96,-65,1,0,0,response3disk,17,13,1,0,0,rectangle,17,13,1,0,0,,3,0,0,17,13,1,0,0,0,5,5,123,1,42,second,,,,,,,,,,,,,,,,,,,,,,,,,,,,,,,,,,,,,,,,,,,,,,,,,,,,,,,,,,,,,,,,,,,
,,,,,,60e504dc5f86f5b0e2eb6d17,62b2acae08a09df01d7fa964,2022-06-22_06h46.28.882,Colour_Asymmetry_Pilot,2022.1.3,Win32,143.9884809,62b2a6a25f2ba72662469a01,,,,,,,,,,,,,,,,,,,,twofour,,3,0.7338,,,,,,,,,,,,,,,,,,,,,,,,,,,,,,,,,,"[0.18419999999999992,-0.4276,-0.404]","[0.30180000000000007,-0.7884,-0.9844]",112,36,1,0,0,response1disk,11,-7,1,0,0,rectangle,11,-7,1,0,0,,1,0.0004,0,11,-7,1,0,0,0,6,6,87,1,6,second,,,,,,,,,,,,,,,,,,,,,,,,,,,,,,,,,,,,,,,,,,,,,,,,,,,,,,,,,,,,,,,,,,,
,,,,,,60e504dc5f86f5b0e2eb6d17,62b2acae08a09df01d7fa964,2022-06-22_06h46.28.882,Colour_Asymmetry_Pilot,2022.1.3,Win32,143.9884809,62b2a6a25f2ba72662469a01,,,,,,,,,,,,,,,,,,,,fourtwo,,-3,0.8211,,,,,,,,,,,,,,,,,,,,,,,,,,,,,,,,,,"[-0.4982,-0.2942,-0.0354000000000001]","[0.796,0.2156,-0.27859999999999996]",-80,47,1,0,0,response7disk,15,-3,1,0,0,rectangle,15,-3,1,0,0,,1,0.0001,0,15,-3,1,0,0,0,7,7,58,1,58,first,,,,,,,,,,,,,,,,,,,,,,,,,,,,,,,,,,,,,,,,,,,,,,,,,,,,,,,,,,,,,,,,,,,
,,,,,,60e504dc5f86f5b0e2eb6d17,62b2acae08a09df01d7fa964,2022-06-22_06h46.28.882,Colour_Asymmetry_Pilot,2022.1.3,Win32,143.9884809,62b2a6a25f2ba72662469a01,,,,,,,,,,,,,,,,,,,,fourthree,,2,1.902,,,,,,,,,,,,,,,,,,,,,,,,,,,,,,,,,,"[-0.9138,-0.5296000000000001,-0.5529999999999999]","[-0.45899999999999996,-0.3256,-0.9374]",126,-69,1,0,0,response3disk,-7,-5,1,0,0,rectangle,-7,-5,1,0,0,,1,1E-04,0,-7,-5,1,0,0,0,8,8,47,1,47,first,,,,,,,,,,,,,,,,,,,,,,,,,,,,,,,,,,,,,,,,,,,,,,,,,,,,,,,,,,,,,,,,,,,
,,,,,,60e504dc5f86f5b0e2eb6d17,62b2acae08a09df01d7fa964,2022-06-22_06h46.28.882,Colour_Asymmetry_Pilot,2022.1.3,Win32,143.9884809,62b2a6a25f2ba72662469a01,,,,,,,,,,,,,,,,,,,,twoone,,1,0.9352,,,,,,,,,,,,,,,,,,,,,,,,,,,,,,,,,,"[-0.48240000000000005,0.3175999999999999,0.2156]","[-0.26280000000000003,-0.2158,-0.3256]",61,-93,1,0,0,response3disk,11,-16,1,0,0,rectangle,11,-16,1,0,0,,1,0.0001,0,11,-16,1,0,0,0,9,9,61,1,61,first,,,,,,,,,,,,,,,,,,,,,,,,,,,,,,,,,,,,,,,,,,,,,,,,,,,,,,,,,,,,,,,,,,,
,,,,,,60e504dc5f86f5b0e2eb6d17,62b2acae08a09df01d7fa964,2022-06-22_06h46.28.882,Colour_Asymmetry_Pilot,2022.1.3,Win32,143.9884809,62b2a6a25f2ba72662469a01,,,,,,,,,,,,,,,,,,,,threeone,,2,0.5991,,,,,,,,,,,,,,,,,,,,,,,,,,,,,,,,,,"[-0.45899999999999996,-0.3256,-0.9374]","[-0.9138,-0.5296000000000001,-0.5529999999999999]",120,-71,1,0,0,response3disk,0,-12,1,0,0,rectangle,0,-12,1,0,0,,1,0.0001,0,0,-12,1,0,0,0,10,10,128,1,47,second,,,,,,,,,,,,,,,,,,,,,,,,,,,,,,,,,,,,,,,,,,,,,,,,,,,,,,,,,,,,,,,,,,,
,,,,,,60e504dc5f86f5b0e2eb6d17,62b2acae08a09df01d7fa964,2022-06-22_06h46.28.882,Colour_Asymmetry_Pilot,2022.1.3,Win32,143.9884809,62b2a6a25f2ba72662469a01,,,,,,,,,,,,,,,,,,,,threeone,,1,1.3931,,,,,,,,,,,,,,,,,,,,,,,,,,,,,,,,,,"[0.8115999999999999,-0.0040000000000000036,-0.09819999999999995]","[-0.06680000000000008,-0.45100000000000007,-0.906]",43,-89,1,0,0,response3disk,-29,11,1,0,0,rectangle,-29,11,1,0,0,,2,0.0004,0,-29,11,1,0,0,0,11,11,2,1,2,first,,,,,,,,,,,,,,,,,,,,,,,,,,,,,,,,,,,,,,,,,,,,,,,,,,,,,,,,,,,,,,,,,,,
,,,,,,60e504dc5f86f5b0e2eb6d17,62b2acae08a09df01d7fa964,2022-06-22_06h46.28.882,Colour_Asymmetry_Pilot,2022.1.3,Win32,143.9884809,62b2a6a25f2ba72662469a01,,,,,,,,,,,,,,,,,,,,fourtwo,,-3,1.0556,,,,,,,,,,,,,,,,,,,,,,,,,,,,,,,,,,"[0.9372,0.9450000000000001,0.8980000000000001]","[-0.8118,-0.8198,-0.5452]",-91,47,1,0,0,response7disk,2,7,1,0,0,rectangle,2,7,1,0,0,,3,0.0004,0,2,7,1,0,0,0,12,12,134,1,53,second,,,,,,,,,,,,,,,,,,,,,,,,,,,,,,,,,,,,,,,,,,,,,,,,,,,,,,,,,,,,,,,,,,,
,,,,,,60e504dc5f86f5b0e2eb6d17,62b2acae08a09df01d7fa964,2022-06-22_06h46.28.882,Colour_Asymmetry_Pilot,2022.1.3,Win32,143.9884809,62b2a6a25f2ba72662469a01,,,,,,,,,,,,,,,,,,,,twoone,,1,0.6698,,,,,,,,,,,,,,,,,,,,,,,,,,,,,,,,,,"[0.9686000000000001,0.3802000000000001,0.19999999999999996]","[0.9372,0.9450000000000001,0.8980000000000001]",58,-92,1,0,0,response3disk,15,0,1,0,0,rectangle,15,0,1,0,0,,3,0.0002,0,15,0,1,0,0,0,13,13,122,1,41,second,,,,,,,,,,,,,,,,,,,,,,,,,,,,,,,,,,,,,,,,,,,,,,,,,,,,,,,,,,,,,,,,,,,
,,,,,,60e504dc5f86f5b0e2eb6d17,62b2acae08a09df01d7fa964,2022-06-22_06h46.28.882,Colour_Asymmetry_Pilot,2022.1.3,Win32,143.9884809,62b2a6a25f2ba72662469a01,,,,,,,,,,,,,,,,,,,,onetwo,,-4,0.4391,,,,,,,,,,,,,,,,,,,,,,,,,,,,,,,,,,"[0.2862,0.7802,0.3568]","[-0.9844,-0.9688,-0.9922]",-63,111,1,0,0,response7disk,-30,17,1,0,0,rectangle,-30,17,1,0,0,,3,1E-04,0,-30,17,1,0,0,0,14,14,64,1,64,first,,,,,,,,,,,,,,,,,,,,,,,,,,,,,,,,,,,,,,,,,,,,,,,,,,,,,,,,,,,,,,,,,,,
,,,,,,60e504dc5f86f5b0e2eb6d17,62b2acae08a09df01d7fa964,2022-06-22_06h46.28.882,Colour_Asymmetry_Pilot,2022.1.3,Win32,143.9884809,62b2a6a25f2ba72662469a01,,,,,,,,,,,,,,,,,,,,threeone,,2,1.4143,,,,,,,,,,,,,,,,,,,,,,,,,,,,,,,,,,"[0.3881999999999999,-0.23939999999999995,-0.05040000000000011]","[0.2862,0.7802,0.3568]",86,-40,1,0,0,response3disk,10,8,1,0,0,rectangle,10,8,1,0,0,,3,0.0002,0,10,8,1,0,0,0,15,15,30,1,30,first,,,,,,,,,,,,,,,,,,,,,,,,,,,,,,,,,,,,,,,,,,,,,,,,,,,,,,,,,,,,,,,,,,,
,,,,,,60e504dc5f86f5b0e2eb6d17,62b2acae08a09df01d7fa964,2022-06-22_06h46.28.882,Colour_Asymmetry_Pilot,2022.1.3,Win32,143.9884809,62b2a6a25f2ba72662469a01,,,,,,,,,,,,,,,,,,,,fourtwo,,-2,1.8128,,,,,,,,,,,,,,,,,,,,,,,,,,,,,,,,,,"[-0.17659999999999998,-0.2864,-0.8354]","[0.40379999999999994,0.09000000000000008,0.44300000000000006]",-80,-47,1,0,0,response5disk,-6,0,1,0,0,rectangle,-6,0,1,0,0,,3,1E-04,0,-6,0,1,0,0,0,16,16,25,1,25,first,,,,,,,,,,,,,,,,,,,,,,,,,,,,,,,,,,,,,,,,,,,,,,,,,,,,,,,,,,,,,,,,,,,
,,,,,,60e504dc5f86f5b0e2eb6d17,62b2acae08a09df01d7fa964,2022-06-22_06h46.28.882,Colour_Asymmetry_Pilot,2022.1.3,Win32,143.9884809,62b2a6a25f2ba72662469a01,,,,,,,,,,,,,,,,,,,,threeone,,-4,0.5706,,,,,,,,,,,,,,,,,,,,,,,,,,,,,,,,,,"[0.34099999999999997,0.12939999999999996,-0.9766]","[-0.4668,-0.8746,-0.2942]",-62,108,1,0,0,response7disk,1,13,1,0,0,rectangle,1,13,1,0,0,,3,0.0001,0,1,13,1,0,0,0,17,17,113,1,32,second,,,,,,,,,,,,,,,,,,,,,,,,,,,,,,,,,,,,,,,,,,,,,,,,,,,,,,,,,,,,,,,,,,,
,,,,,,60e504dc5f86f5b0e2eb6d17,62b2acae08a09df01d7fa964,2022-06-22_06h46.28.882,Colour_Asymmetry_Pilot,2022.1.3,Win32,143.9884809,62b2a6a25f2ba72662469a01,,,,,,,,,,,,,,,,,,,,threeone,,2,7.2103,,,,,,,,,,,,,,,,,,,,,,,,,,,,,,,,,,"[-0.9216,-0.5529999999999999,-0.3962]","[-0.01980000000000004,-0.5138,-0.38039999999999996]",105,-52,1,0,0,response3disk,1,1,1,0,0,rectangle,1,1,1,0,0,,3,0.0001,0,1,1,1,0,0,0,18,18,31,1,31,first,,,,,,,,,,,,,,,,,,,,,,,,,,,,,,,,,,,,,,,,,,,,,,,,,,,,,,,,,,,,,,,,,,,
,,,,,,60e504dc5f86f5b0e2eb6d17,62b2acae08a09df01d7fa964,2022-06-22_06h46.28.882,Colour_Asymmetry_Pilot,2022.1.3,Win32,143.9884809,62b2a6a25f2ba72662469a01,,,,,,,,,,,,,,,,,,,,onetwo,,1,2.905,,,,,,,,,,,,,,,,,,,,,,,,,,,,,,,,,,"[-0.0040000000000000036,0.02739999999999987,-0.08239999999999992]","[-0.9766,-0.34920000000000007,0.2156]",58,-102,1,0,0,response3disk,-1,1,1,0,0,rectangle,-1,1,1,0,0,,3,0,0,-1,1,1,0,0,0,19,19,0,1,0,first,,,,,,,,,,,,,,,,,,,,,,,,,,,,,,,,,,,,,,,,,,,,,,,,,,,,,,,,,,,,,,,,,,,
,,,,,,60e504dc5f86f5b0e2eb6d17,62b2acae08a09df01d7fa964,2022-06-22_06h46.28.882,Colour_Asymmetry_Pilot,2022.1.3,Win32,143.9884809,62b2a6a25f2ba72662469a01,,,,,,,,,,,,,,,,,,,,onethree,,-2,1.028,,,,,,,,,,,,,,,,,,,,,,,,,,,,,,,,,,"[-0.6,0.16860000000000008,0.44300000000000006]","[-0.2942,-0.24719999999999998,-0.357]",-98,-54,1,0,0,response5disk,-8,5,1,0,0,rectangle,-8,5,1,0,0,,3,0.0002,0,-8,5,1,0,0,0,20,20,86,1,5,second,,,,,,,,,,,,,,,,,,,,,,,,,,,,,,,,,,,,,,,,,,,,,,,,,,,,,,,,,,,,,,,,,,,
