trials.thisRepN,trials.thisTrialN,trials.thisN,trials.thisIndex,trials.ran,Colourcodes,participant,session,date,expName,psychopyVersion,OS,frameRate,study_id,trials_4.thisRepN,trials_4.thisTrialN,trials_4.thisN,trials_4.thisIndex,trials_4.ran,StimulusPos,key_resp.keys,key_resp.rt,key_resp_2.keys,key_resp_2.rt,key_resp_15.keys,key_resp_15.rt,key_resp_17.keys,key_resp_17.rt,key_resp_9.keys,key_resp_9.rt,key_resp_10.keys,key_resp_10.rt,Circle1_col,Ecc,Circle2_col,similarity,response_time,mouse_5.x,mouse_5.y,mouse_5.leftButton,mouse_5.midButton,mouse_5.rightButton,mouse_5.clicked_name,mouse_10.x,mouse_10.y,mouse_10.leftButton,mouse_10.midButton,mouse_10.rightButton,mouse_10.clicked_name,mouse_7.x,mouse_7.y,mouse_7.leftButton,mouse_7.midButton,mouse_7.rightButton,catchnumberprac,mouse_6.x,mouse_6.y,mouse_6.leftButton,mouse_6.midButton,mouse_6.rightButton,duringprac.thisRepN,duringprac.thisTrialN,duringprac.thisN,duringprac.thisIndex,duringprac.ran,mouse_7.clicked_name,catchprac,mouse_6.clicked_name,key_resp_22.keys,key_resp_22.rt,Circle1_colour,Circle2_colour,mouse.x,mouse.y,mouse.leftButton,mouse.midButton,mouse.rightButton,mouse.clicked_name,mouse_2.x,mouse_2.y,mouse_2.leftButton,mouse_2.midButton,mouse_2.rightButton,mouse_2.clicked_name,mouse_3.x,mouse_3.y,mouse_3.leftButton,mouse_3.midButton,mouse_3.rightButton,catchresponse,catchnumber,response_time_catch,Catch,mouse_11.x,mouse_11.y,mouse_11.leftButton,mouse_11.midButton,mouse_11.rightButton,trials_2.thisRepN,trials_2.thisTrialN,trials_2.thisN,trials_2.thisIndex,trials_2.ran,Colourpair,Temporder,mouse_3.clicked_name,mouse_11.clicked_name,trials_3.thisRepN,trials_3.thisTrialN,trials_3.thisN,trials_3.thisIndex,trials_3.ran,key_resp_instr_Ishi.keys,key_resp_instr_Ishi.rt,Ishi_trial_keyresp.keys,Ishi_trial_keyresp.rt,Ishi_textbox.text,Ishi_loop.thisRepN,Ishi_loop.thisTrialN,Ishi_loop.thisN,Ishi_loop.thisIndex,Ishi_loop.ran,imageaddress,textbox.text,mouse_4.x,mouse_4.y,mouse_4.leftButton,mouse_4.midButton,mouse_4.rightButton,mouse_4.clicked_name,textbox_2.text,mouse_8.x,mouse_8.y,mouse_8.leftButton,mouse_8.midButton,mouse_8.rightButton,mouse_8.clicked_name,textbox_3.text,mouse_9.x,mouse_9.y,mouse_9.leftButton,mouse_9.midButton,mouse_9.rightButton,mouse_9.clicked_name,textbox_4.text,mouse_12.x,mouse_12.y,mouse_12.leftButton,mouse_12.midButton,mouse_12.rightButton,mouse_12.clicked_name,textbox_5.text,mouse_13.x,mouse_13.y,mouse_13.leftButton,mouse_13.midButton,mouse_13.rightButton,mouse_13.clicked_name,textbox_6.text,mouse_14.x,mouse_14.y,mouse_14.leftButton,mouse_14.midButton,mouse_14.rightButton,mouse_14.clicked_name,textbox_7.text,mouse_15.x,mouse_15.y,mouse_15.leftButton,mouse_15.midButton,mouse_15.rightButton,mouse_15.clicked_name
0,0,0,86,1,,5b4b8f509c7a6000017ae54f,62bbf973c8656b5829d45d38,2022-06-29_09h04.31.109,Colour_Asymmetry_Pilot,2022.1.3,Win32,58.910162,62bbe60bf3d75ef465d3e404,,,,,,,,,,,,,,,,,,,,,,,,,,,,,,,,,,,,,,,,,,,,,,,,,,,,,,,,,,,,,,,,,,,,,,,,,,,,,,,,,,,,,,,,,,,,,,,,,,,,,,,,,,,,,,,,,,,,,,,,,,,,,,,,,,,,,,,,,,,,,,,,,,,,,,,,,,,,,,
0,1,1,71,1,,5b4b8f509c7a6000017ae54f,62bbf973c8656b5829d45d38,2022-06-29_09h04.31.109,Colour_Asymmetry_Pilot,2022.1.3,Win32,58.910162,62bbe60bf3d75ef465d3e404,,,,,,,,,,,,,,,,,,,,,,,,,,,,,,,,,,,,,,,,,,,,,,,,,,,,,,,,,,,,,,,,,,,,,,,,,,,,,,,,,,,,,,,,,,,,,,,,,,,,,,,,,,,,,,,,,,,,,,,,,,,,,,,,,,,,,,,,,,,,,,,,,,,,,,,,,,,,,,
0,2,2,69,1,,5b4b8f509c7a6000017ae54f,62bbf973c8656b5829d45d38,2022-06-29_09h04.31.109,Colour_Asymmetry_Pilot,2022.1.3,Win32,58.910162,62bbe60bf3d75ef465d3e404,,,,,,,,,,,,,,,,,,,,,,,,,,,,,,,,,,,,,,,,,,,,,,,,,,,,,,,,,,,,,,,,,,,,,,,,,,,,,,,,,,,,,,,,,,,,,,,,,,,,,,,,,,,,,,,,,,,,,,,,,,,,,,,,,,,,,,,,,,,,,,,,,,,,,,,,,,,,,,
0,3,3,35,1,,5b4b8f509c7a6000017ae54f,62bbf973c8656b5829d45d38,2022-06-29_09h04.31.109,Colour_Asymmetry_Pilot,2022.1.3,Win32,58.910162,62bbe60bf3d75ef465d3e404,,,,,,,,,,,,,,,,,,,,,,,,,,,,,,,,,,,,,,,,,,,,,,,,,,,,,,,,,,,,,,,,,,,,,,,,,,,,,,,,,,,,,,,,,,,,,,,,,,,,,,,,,,,,,,,,,,,,,,,,,,,,,,,,,,,,,,,,,,,,,,,,,,,,,,,,,,,,,,
0,4,4,30,1,,5b4b8f509c7a6000017ae54f,62bbf973c8656b5829d45d38,2022-06-29_09h04.31.109,Colour_Asymmetry_Pilot,2022.1.3,Win32,58.910162,62bbe60bf3d75ef465d3e404,,,,,,,,,,,,,,,,,,,,,,,,,,,,,,,,,,,,,,,,,,,,,,,,,,,,,,,,,,,,,,,,,,,,,,,,,,,,,,,,,,,,,,,,,,,,,,,,,,,,,,,,,,,,,,,,,,,,,,,,,,,,,,,,,,,,,,,,,,,,,,,,,,,,,,,,,,,,,,
0,5,5,89,1,,5b4b8f509c7a6000017ae54f,62bbf973c8656b5829d45d38,2022-06-29_09h04.31.109,Colour_Asymmetry_Pilot,2022.1.3,Win32,58.910162,62bbe60bf3d75ef465d3e404,,,,,,,,,,,,,,,,,,,,,,,,,,,,,,,,,,,,,,,,,,,,,,,,,,,,,,,,,,,,,,,,,,,,,,,,,,,,,,,,,,,,,,,,,,,,,,,,,,,,,,,,,,,,,,,,,,,,,,,,,,,,,,,,,,,,,,,,,,,,,,,,,,,,,,,,,,,,,,
0,6,6,66,1,,5b4b8f509c7a6000017ae54f,62bbf973c8656b5829d45d38,2022-06-29_09h04.31.109,Colour_Asymmetry_Pilot,2022.1.3,Win32,58.910162,62bbe60bf3d75ef465d3e404,,,,,,,,,,,,,,,,,,,,,,,,,,,,,,,,,,,,,,,,,,,,,,,,,,,,,,,,,,,,,,,,,,,,,,,,,,,,,,,,,,,,,,,,,,,,,,,,,,,,,,,,,,,,,,,,,,,,,,,,,,,,,,,,,,,,,,,,,,,,,,,,,,,,,,,,,,,,,,
0,7,7,36,1,,5b4b8f509c7a6000017ae54f,62bbf973c8656b5829d45d38,2022-06-29_09h04.31.109,Colour_Asymmetry_Pilot,2022.1.3,Win32,58.910162,62bbe60bf3d75ef465d3e404,,,,,,,,,,,,,,,,,,,,,,,,,,,,,,,,,,,,,,,,,,,,,,,,,,,,,,,,,,,,,,,,,,,,,,,,,,,,,,,,,,,,,,,,,,,,,,,,,,,,,,,,,,,,,,,,,,,,,,,,,,,,,,,,,,,,,,,,,,,,,,,,,,,,,,,,,,,,,,
0,8,8,8,1,,5b4b8f509c7a6000017ae54f,62bbf973c8656b5829d45d38,2022-06-29_09h04.31.109,Colour_Asymmetry_Pilot,2022.1.3,Win32,58.910162,62bbe60bf3d75ef465d3e404,,,,,,,,,,,,,,,,,,,,,,,,,,,,,,,,,,,,,,,,,,,,,,,,,,,,,,,,,,,,,,,,,,,,,,,,,,,,,,,,,,,,,,,,,,,,,,,,,,,,,,,,,,,,,,,,,,,,,,,,,,,,,,,,,,,,,,,,,,,,,,,,,,,,,,,,,,,,,,
0,9,9,67,1,,5b4b8f509c7a6000017ae54f,62bbf973c8656b5829d45d38,2022-06-29_09h04.31.109,Colour_Asymmetry_Pilot,2022.1.3,Win32,58.910162,62bbe60bf3d75ef465d3e404,,,,,,,,,,,,,,,,,,,,,,,,,,,,,,,,,,,,,,,,,,,,,,,,,,,,,,,,,,,,,,,,,,,,,,,,,,,,,,,,,,,,,,,,,,,,,,,,,,,,,,,,,,,,,,,,,,,,,,,,,,,,,,,,,,,,,,,,,,,,,,,,,,,,,,,,,,,,,,
0,10,10,23,1,,5b4b8f509c7a6000017ae54f,62bbf973c8656b5829d45d38,2022-06-29_09h04.31.109,Colour_Asymmetry_Pilot,2022.1.3,Win32,58.910162,62bbe60bf3d75ef465d3e404,,,,,,,,,,,,,,,,,,,,,,,,,,,,,,,,,,,,,,,,,,,,,,,,,,,,,,,,,,,,,,,,,,,,,,,,,,,,,,,,,,,,,,,,,,,,,,,,,,,,,,,,,,,,,,,,,,,,,,,,,,,,,,,,,,,,,,,,,,,,,,,,,,,,,,,,,,,,,,
0,11,11,84,1,,5b4b8f509c7a6000017ae54f,62bbf973c8656b5829d45d38,2022-06-29_09h04.31.109,Colour_Asymmetry_Pilot,2022.1.3,Win32,58.910162,62bbe60bf3d75ef465d3e404,,,,,,,,,,,,,,,,,,,,,,,,,,,,,,,,,,,,,,,,,,,,,,,,,,,,,,,,,,,,,,,,,,,,,,,,,,,,,,,,,,,,,,,,,,,,,,,,,,,,,,,,,,,,,,,,,,,,,,,,,,,,,,,,,,,,,,,,,,,,,,,,,,,,,,,,,,,,,,
0,12,12,20,1,,5b4b8f509c7a6000017ae54f,62bbf973c8656b5829d45d38,2022-06-29_09h04.31.109,Colour_Asymmetry_Pilot,2022.1.3,Win32,58.910162,62bbe60bf3d75ef465d3e404,,,,,,,,,,,,,,,,,,,,,,,,,,,,,,,,,,,,,,,,,,,,,,,,,,,,,,,,,,,,,,,,,,,,,,,,,,,,,,,,,,,,,,,,,,,,,,,,,,,,,,,,,,,,,,,,,,,,,,,,,,,,,,,,,,,,,,,,,,,,,,,,,,,,,,,,,,,,,,
0,13,13,63,1,,5b4b8f509c7a6000017ae54f,62bbf973c8656b5829d45d38,2022-06-29_09h04.31.109,Colour_Asymmetry_Pilot,2022.1.3,Win32,58.910162,62bbe60bf3d75ef465d3e404,,,,,,,,,,,,,,,,,,,,,,,,,,,,,,,,,,,,,,,,,,,,,,,,,,,,,,,,,,,,,,,,,,,,,,,,,,,,,,,,,,,,,,,,,,,,,,,,,,,,,,,,,,,,,,,,,,,,,,,,,,,,,,,,,,,,,,,,,,,,,,,,,,,,,,,,,,,,,,
0,14,14,76,1,,5b4b8f509c7a6000017ae54f,62bbf973c8656b5829d45d38,2022-06-29_09h04.31.109,Colour_Asymmetry_Pilot,2022.1.3,Win32,58.910162,62bbe60bf3d75ef465d3e404,,,,,,,,,,,,,,,,,,,,,,,,,,,,,,,,,,,,,,,,,,,,,,,,,,,,,,,,,,,,,,,,,,,,,,,,,,,,,,,,,,,,,,,,,,,,,,,,,,,,,,,,,,,,,,,,,,,,,,,,,,,,,,,,,,,,,,,,,,,,,,,,,,,,,,,,,,,,,,
0,15,15,46,1,,5b4b8f509c7a6000017ae54f,62bbf973c8656b5829d45d38,2022-06-29_09h04.31.109,Colour_Asymmetry_Pilot,2022.1.3,Win32,58.910162,62bbe60bf3d75ef465d3e404,,,,,,,,,,,,,,,,,,,,,,,,,,,,,,,,,,,,,,,,,,,,,,,,,,,,,,,,,,,,,,,,,,,,,,,,,,,,,,,,,,,,,,,,,,,,,,,,,,,,,,,,,,,,,,,,,,,,,,,,,,,,,,,,,,,,,,,,,,,,,,,,,,,,,,,,,,,,,,
0,16,16,64,1,,5b4b8f509c7a6000017ae54f,62bbf973c8656b5829d45d38,2022-06-29_09h04.31.109,Colour_Asymmetry_Pilot,2022.1.3,Win32,58.910162,62bbe60bf3d75ef465d3e404,,,,,,,,,,,,,,,,,,,,,,,,,,,,,,,,,,,,,,,,,,,,,,,,,,,,,,,,,,,,,,,,,,,,,,,,,,,,,,,,,,,,,,,,,,,,,,,,,,,,,,,,,,,,,,,,,,,,,,,,,,,,,,,,,,,,,,,,,,,,,,,,,,,,,,,,,,,,,,
0,17,17,37,1,,5b4b8f509c7a6000017ae54f,62bbf973c8656b5829d45d38,2022-06-29_09h04.31.109,Colour_Asymmetry_Pilot,2022.1.3,Win32,58.910162,62bbe60bf3d75ef465d3e404,,,,,,,,,,,,,,,,,,,,,,,,,,,,,,,,,,,,,,,,,,,,,,,,,,,,,,,,,,,,,,,,,,,,,,,,,,,,,,,,,,,,,,,,,,,,,,,,,,,,,,,,,,,,,,,,,,,,,,,,,,,,,,,,,,,,,,,,,,,,,,,,,,,,,,,,,,,,,,
0,18,18,65,1,,5b4b8f509c7a6000017ae54f,62bbf973c8656b5829d45d38,2022-06-29_09h04.31.109,Colour_Asymmetry_Pilot,2022.1.3,Win32,58.910162,62bbe60bf3d75ef465d3e404,,,,,,,,,,,,,,,,,,,,,,,,,,,,,,,,,,,,,,,,,,,,,,,,,,,,,,,,,,,,,,,,,,,,,,,,,,,,,,,,,,,,,,,,,,,,,,,,,,,,,,,,,,,,,,,,,,,,,,,,,,,,,,,,,,,,,,,,,,,,,,,,,,,,,,,,,,,,,,
0,19,19,78,1,,5b4b8f509c7a6000017ae54f,62bbf973c8656b5829d45d38,2022-06-29_09h04.31.109,Colour_Asymmetry_Pilot,2022.1.3,Win32,58.910162,62bbe60bf3d75ef465d3e404,,,,,,,,,,,,,,,,,,,,,,,,,,,,,,,,,,,,,,,,,,,,,,,,,,,,,,,,,,,,,,,,,,,,,,,,,,,,,,,,,,,,,,,,,,,,,,,,,,,,,,,,,,,,,,,,,,,,,,,,,,,,,,,,,,,,,,,,,,,,,,,,,,,,,,,,,,,,,,
0,20,20,88,1,,5b4b8f509c7a6000017ae54f,62bbf973c8656b5829d45d38,2022-06-29_09h04.31.109,Colour_Asymmetry_Pilot,2022.1.3,Win32,58.910162,62bbe60bf3d75ef465d3e404,,,,,,,,,,,,,,,,,,,,,,,,,,,,,,,,,,,,,,,,,,,,,,,,,,,,,,,,,,,,,,,,,,,,,,,,,,,,,,,,,,,,,,,,,,,,,,,,,,,,,,,,,,,,,,,,,,,,,,,,,,,,,,,,,,,,,,,,,,,,,,,,,,,,,,,,,,,,,,
0,21,21,26,1,,5b4b8f509c7a6000017ae54f,62bbf973c8656b5829d45d38,2022-06-29_09h04.31.109,Colour_Asymmetry_Pilot,2022.1.3,Win32,58.910162,62bbe60bf3d75ef465d3e404,,,,,,,,,,,,,,,,,,,,,,,,,,,,,,,,,,,,,,,,,,,,,,,,,,,,,,,,,,,,,,,,,,,,,,,,,,,,,,,,,,,,,,,,,,,,,,,,,,,,,,,,,,,,,,,,,,,,,,,,,,,,,,,,,,,,,,,,,,,,,,,,,,,,,,,,,,,,,,
0,22,22,12,1,,5b4b8f509c7a6000017ae54f,62bbf973c8656b5829d45d38,2022-06-29_09h04.31.109,Colour_Asymmetry_Pilot,2022.1.3,Win32,58.910162,62bbe60bf3d75ef465d3e404,,,,,,,,,,,,,,,,,,,,,,,,,,,,,,,,,,,,,,,,,,,,,,,,,,,,,,,,,,,,,,,,,,,,,,,,,,,,,,,,,,,,,,,,,,,,,,,,,,,,,,,,,,,,,,,,,,,,,,,,,,,,,,,,,,,,,,,,,,,,,,,,,,,,,,,,,,,,,,
0,23,23,75,1,,5b4b8f509c7a6000017ae54f,62bbf973c8656b5829d45d38,2022-06-29_09h04.31.109,Colour_Asymmetry_Pilot,2022.1.3,Win32,58.910162,62bbe60bf3d75ef465d3e404,,,,,,,,,,,,,,,,,,,,,,,,,,,,,,,,,,,,,,,,,,,,,,,,,,,,,,,,,,,,,,,,,,,,,,,,,,,,,,,,,,,,,,,,,,,,,,,,,,,,,,,,,,,,,,,,,,,,,,,,,,,,,,,,,,,,,,,,,,,,,,,,,,,,,,,,,,,,,,
0,24,24,57,1,,5b4b8f509c7a6000017ae54f,62bbf973c8656b5829d45d38,2022-06-29_09h04.31.109,Colour_Asymmetry_Pilot,2022.1.3,Win32,58.910162,62bbe60bf3d75ef465d3e404,,,,,,,,,,,,,,,,,,,,,,,,,,,,,,,,,,,,,,,,,,,,,,,,,,,,,,,,,,,,,,,,,,,,,,,,,,,,,,,,,,,,,,,,,,,,,,,,,,,,,,,,,,,,,,,,,,,,,,,,,,,,,,,,,,,,,,,,,,,,,,,,,,,,,,,,,,,,,,
0,25,25,91,1,,5b4b8f509c7a6000017ae54f,62bbf973c8656b5829d45d38,2022-06-29_09h04.31.109,Colour_Asymmetry_Pilot,2022.1.3,Win32,58.910162,62bbe60bf3d75ef465d3e404,,,,,,,,,,,,,,,,,,,,,,,,,,,,,,,,,,,,,,,,,,,,,,,,,,,,,,,,,,,,,,,,,,,,,,,,,,,,,,,,,,,,,,,,,,,,,,,,,,,,,,,,,,,,,,,,,,,,,,,,,,,,,,,,,,,,,,,,,,,,,,,,,,,,,,,,,,,,,,
0,26,26,61,1,,5b4b8f509c7a6000017ae54f,62bbf973c8656b5829d45d38,2022-06-29_09h04.31.109,Colour_Asymmetry_Pilot,2022.1.3,Win32,58.910162,62bbe60bf3d75ef465d3e404,,,,,,,,,,,,,,,,,,,,,,,,,,,,,,,,,,,,,,,,,,,,,,,,,,,,,,,,,,,,,,,,,,,,,,,,,,,,,,,,,,,,,,,,,,,,,,,,,,,,,,,,,,,,,,,,,,,,,,,,,,,,,,,,,,,,,,,,,,,,,,,,,,,,,,,,,,,,,,
0,27,27,9,1,,5b4b8f509c7a6000017ae54f,62bbf973c8656b5829d45d38,2022-06-29_09h04.31.109,Colour_Asymmetry_Pilot,2022.1.3,Win32,58.910162,62bbe60bf3d75ef465d3e404,,,,,,,,,,,,,,,,,,,,,,,,,,,,,,,,,,,,,,,,,,,,,,,,,,,,,,,,,,,,,,,,,,,,,,,,,,,,,,,,,,,,,,,,,,,,,,,,,,,,,,,,,,,,,,,,,,,,,,,,,,,,,,,,,,,,,,,,,,,,,,,,,,,,,,,,,,,,,,
0,28,28,92,1,,5b4b8f509c7a6000017ae54f,62bbf973c8656b5829d45d38,2022-06-29_09h04.31.109,Colour_Asymmetry_Pilot,2022.1.3,Win32,58.910162,62bbe60bf3d75ef465d3e404,,,,,,,,,,,,,,,,,,,,,,,,,,,,,,,,,,,,,,,,,,,,,,,,,,,,,,,,,,,,,,,,,,,,,,,,,,,,,,,,,,,,,,,,,,,,,,,,,,,,,,,,,,,,,,,,,,,,,,,,,,,,,,,,,,,,,,,,,,,,,,,,,,,,,,,,,,,,,,
0,29,29,7,1,,5b4b8f509c7a6000017ae54f,62bbf973c8656b5829d45d38,2022-06-29_09h04.31.109,Colour_Asymmetry_Pilot,2022.1.3,Win32,58.910162,62bbe60bf3d75ef465d3e404,,,,,,,,,,,,,,,,,,,,,,,,,,,,,,,,,,,,,,,,,,,,,,,,,,,,,,,,,,,,,,,,,,,,,,,,,,,,,,,,,,,,,,,,,,,,,,,,,,,,,,,,,,,,,,,,,,,,,,,,,,,,,,,,,,,,,,,,,,,,,,,,,,,,,,,,,,,,,,
0,30,30,22,1,,5b4b8f509c7a6000017ae54f,62bbf973c8656b5829d45d38,2022-06-29_09h04.31.109,Colour_Asymmetry_Pilot,2022.1.3,Win32,58.910162,62bbe60bf3d75ef465d3e404,,,,,,,,,,,,,,,,,,,,,,,,,,,,,,,,,,,,,,,,,,,,,,,,,,,,,,,,,,,,,,,,,,,,,,,,,,,,,,,,,,,,,,,,,,,,,,,,,,,,,,,,,,,,,,,,,,,,,,,,,,,,,,,,,,,,,,,,,,,,,,,,,,,,,,,,,,,,,,
0,31,31,80,1,,5b4b8f509c7a6000017ae54f,62bbf973c8656b5829d45d38,2022-06-29_09h04.31.109,Colour_Asymmetry_Pilot,2022.1.3,Win32,58.910162,62bbe60bf3d75ef465d3e404,,,,,,,,,,,,,,,,,,,,,,,,,,,,,,,,,,,,,,,,,,,,,,,,,,,,,,,,,,,,,,,,,,,,,,,,,,,,,,,,,,,,,,,,,,,,,,,,,,,,,,,,,,,,,,,,,,,,,,,,,,,,,,,,,,,,,,,,,,,,,,,,,,,,,,,,,,,,,,
0,32,32,47,1,,5b4b8f509c7a6000017ae54f,62bbf973c8656b5829d45d38,2022-06-29_09h04.31.109,Colour_Asymmetry_Pilot,2022.1.3,Win32,58.910162,62bbe60bf3d75ef465d3e404,,,,,,,,,,,,,,,,,,,,,,,,,,,,,,,,,,,,,,,,,,,,,,,,,,,,,,,,,,,,,,,,,,,,,,,,,,,,,,,,,,,,,,,,,,,,,,,,,,,,,,,,,,,,,,,,,,,,,,,,,,,,,,,,,,,,,,,,,,,,,,,,,,,,,,,,,,,,,,
0,33,33,82,1,,5b4b8f509c7a6000017ae54f,62bbf973c8656b5829d45d38,2022-06-29_09h04.31.109,Colour_Asymmetry_Pilot,2022.1.3,Win32,58.910162,62bbe60bf3d75ef465d3e404,,,,,,,,,,,,,,,,,,,,,,,,,,,,,,,,,,,,,,,,,,,,,,,,,,,,,,,,,,,,,,,,,,,,,,,,,,,,,,,,,,,,,,,,,,,,,,,,,,,,,,,,,,,,,,,,,,,,,,,,,,,,,,,,,,,,,,,,,,,,,,,,,,,,,,,,,,,,,,
0,34,34,21,1,,5b4b8f509c7a6000017ae54f,62bbf973c8656b5829d45d38,2022-06-29_09h04.31.109,Colour_Asymmetry_Pilot,2022.1.3,Win32,58.910162,62bbe60bf3d75ef465d3e404,,,,,,,,,,,,,,,,,,,,,,,,,,,,,,,,,,,,,,,,,,,,,,,,,,,,,,,,,,,,,,,,,,,,,,,,,,,,,,,,,,,,,,,,,,,,,,,,,,,,,,,,,,,,,,,,,,,,,,,,,,,,,,,,,,,,,,,,,,,,,,,,,,,,,,,,,,,,,,
0,35,35,42,1,,5b4b8f509c7a6000017ae54f,62bbf973c8656b5829d45d38,2022-06-29_09h04.31.109,Colour_Asymmetry_Pilot,2022.1.3,Win32,58.910162,62bbe60bf3d75ef465d3e404,,,,,,,,,,,,,,,,,,,,,,,,,,,,,,,,,,,,,,,,,,,,,,,,,,,,,,,,,,,,,,,,,,,,,,,,,,,,,,,,,,,,,,,,,,,,,,,,,,,,,,,,,,,,,,,,,,,,,,,,,,,,,,,,,,,,,,,,,,,,,,,,,,,,,,,,,,,,,,
0,36,36,41,1,,5b4b8f509c7a6000017ae54f,62bbf973c8656b5829d45d38,2022-06-29_09h04.31.109,Colour_Asymmetry_Pilot,2022.1.3,Win32,58.910162,62bbe60bf3d75ef465d3e404,,,,,,,,,,,,,,,,,,,,,,,,,,,,,,,,,,,,,,,,,,,,,,,,,,,,,,,,,,,,,,,,,,,,,,,,,,,,,,,,,,,,,,,,,,,,,,,,,,,,,,,,,,,,,,,,,,,,,,,,,,,,,,,,,,,,,,,,,,,,,,,,,,,,,,,,,,,,,,
0,37,37,28,1,,5b4b8f509c7a6000017ae54f,62bbf973c8656b5829d45d38,2022-06-29_09h04.31.109,Colour_Asymmetry_Pilot,2022.1.3,Win32,58.910162,62bbe60bf3d75ef465d3e404,,,,,,,,,,,,,,,,,,,,,,,,,,,,,,,,,,,,,,,,,,,,,,,,,,,,,,,,,,,,,,,,,,,,,,,,,,,,,,,,,,,,,,,,,,,,,,,,,,,,,,,,,,,,,,,,,,,,,,,,,,,,,,,,,,,,,,,,,,,,,,,,,,,,,,,,,,,,,,
0,38,38,34,1,,5b4b8f509c7a6000017ae54f,62bbf973c8656b5829d45d38,2022-06-29_09h04.31.109,Colour_Asymmetry_Pilot,2022.1.3,Win32,58.910162,62bbe60bf3d75ef465d3e404,,,,,,,,,,,,,,,,,,,,,,,,,,,,,,,,,,,,,,,,,,,,,,,,,,,,,,,,,,,,,,,,,,,,,,,,,,,,,,,,,,,,,,,,,,,,,,,,,,,,,,,,,,,,,,,,,,,,,,,,,,,,,,,,,,,,,,,,,,,,,,,,,,,,,,,,,,,,,,
0,39,39,51,1,,5b4b8f509c7a6000017ae54f,62bbf973c8656b5829d45d38,2022-06-29_09h04.31.109,Colour_Asymmetry_Pilot,2022.1.3,Win32,58.910162,62bbe60bf3d75ef465d3e404,,,,,,,,,,,,,,,,,,,,,,,,,,,,,,,,,,,,,,,,,,,,,,,,,,,,,,,,,,,,,,,,,,,,,,,,,,,,,,,,,,,,,,,,,,,,,,,,,,,,,,,,,,,,,,,,,,,,,,,,,,,,,,,,,,,,,,,,,,,,,,,,,,,,,,,,,,,,,,
0,40,40,2,1,,5b4b8f509c7a6000017ae54f,62bbf973c8656b5829d45d38,2022-06-29_09h04.31.109,Colour_Asymmetry_Pilot,2022.1.3,Win32,58.910162,62bbe60bf3d75ef465d3e404,,,,,,,,,,,,,,,,,,,,,,,,,,,,,,,,,,,,,,,,,,,,,,,,,,,,,,,,,,,,,,,,,,,,,,,,,,,,,,,,,,,,,,,,,,,,,,,,,,,,,,,,,,,,,,,,,,,,,,,,,,,,,,,,,,,,,,,,,,,,,,,,,,,,,,,,,,,,,,
0,41,41,31,1,,5b4b8f509c7a6000017ae54f,62bbf973c8656b5829d45d38,2022-06-29_09h04.31.109,Colour_Asymmetry_Pilot,2022.1.3,Win32,58.910162,62bbe60bf3d75ef465d3e404,,,,,,,,,,,,,,,,,,,,,,,,,,,,,,,,,,,,,,,,,,,,,,,,,,,,,,,,,,,,,,,,,,,,,,,,,,,,,,,,,,,,,,,,,,,,,,,,,,,,,,,,,,,,,,,,,,,,,,,,,,,,,,,,,,,,,,,,,,,,,,,,,,,,,,,,,,,,,,
0,42,42,90,1,,5b4b8f509c7a6000017ae54f,62bbf973c8656b5829d45d38,2022-06-29_09h04.31.109,Colour_Asymmetry_Pilot,2022.1.3,Win32,58.910162,62bbe60bf3d75ef465d3e404,,,,,,,,,,,,,,,,,,,,,,,,,,,,,,,,,,,,,,,,,,,,,,,,,,,,,,,,,,,,,,,,,,,,,,,,,,,,,,,,,,,,,,,,,,,,,,,,,,,,,,,,,,,,,,,,,,,,,,,,,,,,,,,,,,,,,,,,,,,,,,,,,,,,,,,,,,,,,,
0,43,43,48,1,,5b4b8f509c7a6000017ae54f,62bbf973c8656b5829d45d38,2022-06-29_09h04.31.109,Colour_Asymmetry_Pilot,2022.1.3,Win32,58.910162,62bbe60bf3d75ef465d3e404,,,,,,,,,,,,,,,,,,,,,,,,,,,,,,,,,,,,,,,,,,,,,,,,,,,,,,,,,,,,,,,,,,,,,,,,,,,,,,,,,,,,,,,,,,,,,,,,,,,,,,,,,,,,,,,,,,,,,,,,,,,,,,,,,,,,,,,,,,,,,,,,,,,,,,,,,,,,,,
0,44,44,38,1,,5b4b8f509c7a6000017ae54f,62bbf973c8656b5829d45d38,2022-06-29_09h04.31.109,Colour_Asymmetry_Pilot,2022.1.3,Win32,58.910162,62bbe60bf3d75ef465d3e404,,,,,,,,,,,,,,,,,,,,,,,,,,,,,,,,,,,,,,,,,,,,,,,,,,,,,,,,,,,,,,,,,,,,,,,,,,,,,,,,,,,,,,,,,,,,,,,,,,,,,,,,,,,,,,,,,,,,,,,,,,,,,,,,,,,,,,,,,,,,,,,,,,,,,,,,,,,,,,
0,45,45,62,1,,5b4b8f509c7a6000017ae54f,62bbf973c8656b5829d45d38,2022-06-29_09h04.31.109,Colour_Asymmetry_Pilot,2022.1.3,Win32,58.910162,62bbe60bf3d75ef465d3e404,,,,,,,,,,,,,,,,,,,,,,,,,,,,,,,,,,,,,,,,,,,,,,,,,,,,,,,,,,,,,,,,,,,,,,,,,,,,,,,,,,,,,,,,,,,,,,,,,,,,,,,,,,,,,,,,,,,,,,,,,,,,,,,,,,,,,,,,,,,,,,,,,,,,,,,,,,,,,,
0,46,46,58,1,,5b4b8f509c7a6000017ae54f,62bbf973c8656b5829d45d38,2022-06-29_09h04.31.109,Colour_Asymmetry_Pilot,2022.1.3,Win32,58.910162,62bbe60bf3d75ef465d3e404,,,,,,,,,,,,,,,,,,,,,,,,,,,,,,,,,,,,,,,,,,,,,,,,,,,,,,,,,,,,,,,,,,,,,,,,,,,,,,,,,,,,,,,,,,,,,,,,,,,,,,,,,,,,,,,,,,,,,,,,,,,,,,,,,,,,,,,,,,,,,,,,,,,,,,,,,,,,,,
0,47,47,56,1,,5b4b8f509c7a6000017ae54f,62bbf973c8656b5829d45d38,2022-06-29_09h04.31.109,Colour_Asymmetry_Pilot,2022.1.3,Win32,58.910162,62bbe60bf3d75ef465d3e404,,,,,,,,,,,,,,,,,,,,,,,,,,,,,,,,,,,,,,,,,,,,,,,,,,,,,,,,,,,,,,,,,,,,,,,,,,,,,,,,,,,,,,,,,,,,,,,,,,,,,,,,,,,,,,,,,,,,,,,,,,,,,,,,,,,,,,,,,,,,,,,,,,,,,,,,,,,,,,
0,48,48,1,1,,5b4b8f509c7a6000017ae54f,62bbf973c8656b5829d45d38,2022-06-29_09h04.31.109,Colour_Asymmetry_Pilot,2022.1.3,Win32,58.910162,62bbe60bf3d75ef465d3e404,,,,,,,,,,,,,,,,,,,,,,,,,,,,,,,,,,,,,,,,,,,,,,,,,,,,,,,,,,,,,,,,,,,,,,,,,,,,,,,,,,,,,,,,,,,,,,,,,,,,,,,,,,,,,,,,,,,,,,,,,,,,,,,,,,,,,,,,,,,,,,,,,,,,,,,,,,,,,,
0,49,49,4,1,,5b4b8f509c7a6000017ae54f,62bbf973c8656b5829d45d38,2022-06-29_09h04.31.109,Colour_Asymmetry_Pilot,2022.1.3,Win32,58.910162,62bbe60bf3d75ef465d3e404,,,,,,,,,,,,,,,,,,,,,,,,,,,,,,,,,,,,,,,,,,,,,,,,,,,,,,,,,,,,,,,,,,,,,,,,,,,,,,,,,,,,,,,,,,,,,,,,,,,,,,,,,,,,,,,,,,,,,,,,,,,,,,,,,,,,,,,,,,,,,,,,,,,,,,,,,,,,,,
0,50,50,70,1,,5b4b8f509c7a6000017ae54f,62bbf973c8656b5829d45d38,2022-06-29_09h04.31.109,Colour_Asymmetry_Pilot,2022.1.3,Win32,58.910162,62bbe60bf3d75ef465d3e404,,,,,,,,,,,,,,,,,,,,,,,,,,,,,,,,,,,,,,,,,,,,,,,,,,,,,,,,,,,,,,,,,,,,,,,,,,,,,,,,,,,,,,,,,,,,,,,,,,,,,,,,,,,,,,,,,,,,,,,,,,,,,,,,,,,,,,,,,,,,,,,,,,,,,,,,,,,,,,
0,51,51,60,1,,5b4b8f509c7a6000017ae54f,62bbf973c8656b5829d45d38,2022-06-29_09h04.31.109,Colour_Asymmetry_Pilot,2022.1.3,Win32,58.910162,62bbe60bf3d75ef465d3e404,,,,,,,,,,,,,,,,,,,,,,,,,,,,,,,,,,,,,,,,,,,,,,,,,,,,,,,,,,,,,,,,,,,,,,,,,,,,,,,,,,,,,,,,,,,,,,,,,,,,,,,,,,,,,,,,,,,,,,,,,,,,,,,,,,,,,,,,,,,,,,,,,,,,,,,,,,,,,,
0,52,52,16,1,,5b4b8f509c7a6000017ae54f,62bbf973c8656b5829d45d38,2022-06-29_09h04.31.109,Colour_Asymmetry_Pilot,2022.1.3,Win32,58.910162,62bbe60bf3d75ef465d3e404,,,,,,,,,,,,,,,,,,,,,,,,,,,,,,,,,,,,,,,,,,,,,,,,,,,,,,,,,,,,,,,,,,,,,,,,,,,,,,,,,,,,,,,,,,,,,,,,,,,,,,,,,,,,,,,,,,,,,,,,,,,,,,,,,,,,,,,,,,,,,,,,,,,,,,,,,,,,,,
0,53,53,40,1,,5b4b8f509c7a6000017ae54f,62bbf973c8656b5829d45d38,2022-06-29_09h04.31.109,Colour_Asymmetry_Pilot,2022.1.3,Win32,58.910162,62bbe60bf3d75ef465d3e404,,,,,,,,,,,,,,,,,,,,,,,,,,,,,,,,,,,,,,,,,,,,,,,,,,,,,,,,,,,,,,,,,,,,,,,,,,,,,,,,,,,,,,,,,,,,,,,,,,,,,,,,,,,,,,,,,,,,,,,,,,,,,,,,,,,,,,,,,,,,,,,,,,,,,,,,,,,,,,
0,54,54,85,1,,5b4b8f509c7a6000017ae54f,62bbf973c8656b5829d45d38,2022-06-29_09h04.31.109,Colour_Asymmetry_Pilot,2022.1.3,Win32,58.910162,62bbe60bf3d75ef465d3e404,,,,,,,,,,,,,,,,,,,,,,,,,,,,,,,,,,,,,,,,,,,,,,,,,,,,,,,,,,,,,,,,,,,,,,,,,,,,,,,,,,,,,,,,,,,,,,,,,,,,,,,,,,,,,,,,,,,,,,,,,,,,,,,,,,,,,,,,,,,,,,,,,,,,,,,,,,,,,,
0,55,55,33,1,,5b4b8f509c7a6000017ae54f,62bbf973c8656b5829d45d38,2022-06-29_09h04.31.109,Colour_Asymmetry_Pilot,2022.1.3,Win32,58.910162,62bbe60bf3d75ef465d3e404,,,,,,,,,,,,,,,,,,,,,,,,,,,,,,,,,,,,,,,,,,,,,,,,,,,,,,,,,,,,,,,,,,,,,,,,,,,,,,,,,,,,,,,,,,,,,,,,,,,,,,,,,,,,,,,,,,,,,,,,,,,,,,,,,,,,,,,,,,,,,,,,,,,,,,,,,,,,,,
0,56,56,14,1,,5b4b8f509c7a6000017ae54f,62bbf973c8656b5829d45d38,2022-06-29_09h04.31.109,Colour_Asymmetry_Pilot,2022.1.3,Win32,58.910162,62bbe60bf3d75ef465d3e404,,,,,,,,,,,,,,,,,,,,,,,,,,,,,,,,,,,,,,,,,,,,,,,,,,,,,,,,,,,,,,,,,,,,,,,,,,,,,,,,,,,,,,,,,,,,,,,,,,,,,,,,,,,,,,,,,,,,,,,,,,,,,,,,,,,,,,,,,,,,,,,,,,,,,,,,,,,,,,
0,57,57,11,1,,5b4b8f509c7a6000017ae54f,62bbf973c8656b5829d45d38,2022-06-29_09h04.31.109,Colour_Asymmetry_Pilot,2022.1.3,Win32,58.910162,62bbe60bf3d75ef465d3e404,,,,,,,,,,,,,,,,,,,,,,,,,,,,,,,,,,,,,,,,,,,,,,,,,,,,,,,,,,,,,,,,,,,,,,,,,,,,,,,,,,,,,,,,,,,,,,,,,,,,,,,,,,,,,,,,,,,,,,,,,,,,,,,,,,,,,,,,,,,,,,,,,,,,,,,,,,,,,,
0,58,58,18,1,,5b4b8f509c7a6000017ae54f,62bbf973c8656b5829d45d38,2022-06-29_09h04.31.109,Colour_Asymmetry_Pilot,2022.1.3,Win32,58.910162,62bbe60bf3d75ef465d3e404,,,,,,,,,,,,,,,,,,,,,,,,,,,,,,,,,,,,,,,,,,,,,,,,,,,,,,,,,,,,,,,,,,,,,,,,,,,,,,,,,,,,,,,,,,,,,,,,,,,,,,,,,,,,,,,,,,,,,,,,,,,,,,,,,,,,,,,,,,,,,,,,,,,,,,,,,,,,,,
0,59,59,17,1,,5b4b8f509c7a6000017ae54f,62bbf973c8656b5829d45d38,2022-06-29_09h04.31.109,Colour_Asymmetry_Pilot,2022.1.3,Win32,58.910162,62bbe60bf3d75ef465d3e404,,,,,,,,,,,,,,,,,,,,,,,,,,,,,,,,,,,,,,,,,,,,,,,,,,,,,,,,,,,,,,,,,,,,,,,,,,,,,,,,,,,,,,,,,,,,,,,,,,,,,,,,,,,,,,,,,,,,,,,,,,,,,,,,,,,,,,,,,,,,,,,,,,,,,,,,,,,,,,
0,60,60,54,1,,5b4b8f509c7a6000017ae54f,62bbf973c8656b5829d45d38,2022-06-29_09h04.31.109,Colour_Asymmetry_Pilot,2022.1.3,Win32,58.910162,62bbe60bf3d75ef465d3e404,,,,,,,,,,,,,,,,,,,,,,,,,,,,,,,,,,,,,,,,,,,,,,,,,,,,,,,,,,,,,,,,,,,,,,,,,,,,,,,,,,,,,,,,,,,,,,,,,,,,,,,,,,,,,,,,,,,,,,,,,,,,,,,,,,,,,,,,,,,,,,,,,,,,,,,,,,,,,,
0,61,61,5,1,,5b4b8f509c7a6000017ae54f,62bbf973c8656b5829d45d38,2022-06-29_09h04.31.109,Colour_Asymmetry_Pilot,2022.1.3,Win32,58.910162,62bbe60bf3d75ef465d3e404,,,,,,,,,,,,,,,,,,,,,,,,,,,,,,,,,,,,,,,,,,,,,,,,,,,,,,,,,,,,,,,,,,,,,,,,,,,,,,,,,,,,,,,,,,,,,,,,,,,,,,,,,,,,,,,,,,,,,,,,,,,,,,,,,,,,,,,,,,,,,,,,,,,,,,,,,,,,,,
0,62,62,27,1,,5b4b8f509c7a6000017ae54f,62bbf973c8656b5829d45d38,2022-06-29_09h04.31.109,Colour_Asymmetry_Pilot,2022.1.3,Win32,58.910162,62bbe60bf3d75ef465d3e404,,,,,,,,,,,,,,,,,,,,,,,,,,,,,,,,,,,,,,,,,,,,,,,,,,,,,,,,,,,,,,,,,,,,,,,,,,,,,,,,,,,,,,,,,,,,,,,,,,,,,,,,,,,,,,,,,,,,,,,,,,,,,,,,,,,,,,,,,,,,,,,,,,,,,,,,,,,,,,
0,63,63,29,1,,5b4b8f509c7a6000017ae54f,62bbf973c8656b5829d45d38,2022-06-29_09h04.31.109,Colour_Asymmetry_Pilot,2022.1.3,Win32,58.910162,62bbe60bf3d75ef465d3e404,,,,,,,,,,,,,,,,,,,,,,,,,,,,,,,,,,,,,,,,,,,,,,,,,,,,,,,,,,,,,,,,,,,,,,,,,,,,,,,,,,,,,,,,,,,,,,,,,,,,,,,,,,,,,,,,,,,,,,,,,,,,,,,,,,,,,,,,,,,,,,,,,,,,,,,,,,,,,,
0,64,64,15,1,,5b4b8f509c7a6000017ae54f,62bbf973c8656b5829d45d38,2022-06-29_09h04.31.109,Colour_Asymmetry_Pilot,2022.1.3,Win32,58.910162,62bbe60bf3d75ef465d3e404,,,,,,,,,,,,,,,,,,,,,,,,,,,,,,,,,,,,,,,,,,,,,,,,,,,,,,,,,,,,,,,,,,,,,,,,,,,,,,,,,,,,,,,,,,,,,,,,,,,,,,,,,,,,,,,,,,,,,,,,,,,,,,,,,,,,,,,,,,,,,,,,,,,,,,,,,,,,,,
0,65,65,50,1,,5b4b8f509c7a6000017ae54f,62bbf973c8656b5829d45d38,2022-06-29_09h04.31.109,Colour_Asymmetry_Pilot,2022.1.3,Win32,58.910162,62bbe60bf3d75ef465d3e404,,,,,,,,,,,,,,,,,,,,,,,,,,,,,,,,,,,,,,,,,,,,,,,,,,,,,,,,,,,,,,,,,,,,,,,,,,,,,,,,,,,,,,,,,,,,,,,,,,,,,,,,,,,,,,,,,,,,,,,,,,,,,,,,,,,,,,,,,,,,,,,,,,,,,,,,,,,,,,
0,66,66,83,1,,5b4b8f509c7a6000017ae54f,62bbf973c8656b5829d45d38,2022-06-29_09h04.31.109,Colour_Asymmetry_Pilot,2022.1.3,Win32,58.910162,62bbe60bf3d75ef465d3e404,,,,,,,,,,,,,,,,,,,,,,,,,,,,,,,,,,,,,,,,,,,,,,,,,,,,,,,,,,,,,,,,,,,,,,,,,,,,,,,,,,,,,,,,,,,,,,,,,,,,,,,,,,,,,,,,,,,,,,,,,,,,,,,,,,,,,,,,,,,,,,,,,,,,,,,,,,,,,,
0,67,67,79,1,,5b4b8f509c7a6000017ae54f,62bbf973c8656b5829d45d38,2022-06-29_09h04.31.109,Colour_Asymmetry_Pilot,2022.1.3,Win32,58.910162,62bbe60bf3d75ef465d3e404,,,,,,,,,,,,,,,,,,,,,,,,,,,,,,,,,,,,,,,,,,,,,,,,,,,,,,,,,,,,,,,,,,,,,,,,,,,,,,,,,,,,,,,,,,,,,,,,,,,,,,,,,,,,,,,,,,,,,,,,,,,,,,,,,,,,,,,,,,,,,,,,,,,,,,,,,,,,,,
0,68,68,10,1,,5b4b8f509c7a6000017ae54f,62bbf973c8656b5829d45d38,2022-06-29_09h04.31.109,Colour_Asymmetry_Pilot,2022.1.3,Win32,58.910162,62bbe60bf3d75ef465d3e404,,,,,,,,,,,,,,,,,,,,,,,,,,,,,,,,,,,,,,,,,,,,,,,,,,,,,,,,,,,,,,,,,,,,,,,,,,,,,,,,,,,,,,,,,,,,,,,,,,,,,,,,,,,,,,,,,,,,,,,,,,,,,,,,,,,,,,,,,,,,,,,,,,,,,,,,,,,,,,
0,69,69,81,1,,5b4b8f509c7a6000017ae54f,62bbf973c8656b5829d45d38,2022-06-29_09h04.31.109,Colour_Asymmetry_Pilot,2022.1.3,Win32,58.910162,62bbe60bf3d75ef465d3e404,,,,,,,,,,,,,,,,,,,,,,,,,,,,,,,,,,,,,,,,,,,,,,,,,,,,,,,,,,,,,,,,,,,,,,,,,,,,,,,,,,,,,,,,,,,,,,,,,,,,,,,,,,,,,,,,,,,,,,,,,,,,,,,,,,,,,,,,,,,,,,,,,,,,,,,,,,,,,,
0,70,70,45,1,,5b4b8f509c7a6000017ae54f,62bbf973c8656b5829d45d38,2022-06-29_09h04.31.109,Colour_Asymmetry_Pilot,2022.1.3,Win32,58.910162,62bbe60bf3d75ef465d3e404,,,,,,,,,,,,,,,,,,,,,,,,,,,,,,,,,,,,,,,,,,,,,,,,,,,,,,,,,,,,,,,,,,,,,,,,,,,,,,,,,,,,,,,,,,,,,,,,,,,,,,,,,,,,,,,,,,,,,,,,,,,,,,,,,,,,,,,,,,,,,,,,,,,,,,,,,,,,,,
0,71,71,6,1,,5b4b8f509c7a6000017ae54f,62bbf973c8656b5829d45d38,2022-06-29_09h04.31.109,Colour_Asymmetry_Pilot,2022.1.3,Win32,58.910162,62bbe60bf3d75ef465d3e404,,,,,,,,,,,,,,,,,,,,,,,,,,,,,,,,,,,,,,,,,,,,,,,,,,,,,,,,,,,,,,,,,,,,,,,,,,,,,,,,,,,,,,,,,,,,,,,,,,,,,,,,,,,,,,,,,,,,,,,,,,,,,,,,,,,,,,,,,,,,,,,,,,,,,,,,,,,,,,
0,72,72,25,1,,5b4b8f509c7a6000017ae54f,62bbf973c8656b5829d45d38,2022-06-29_09h04.31.109,Colour_Asymmetry_Pilot,2022.1.3,Win32,58.910162,62bbe60bf3d75ef465d3e404,,,,,,,,,,,,,,,,,,,,,,,,,,,,,,,,,,,,,,,,,,,,,,,,,,,,,,,,,,,,,,,,,,,,,,,,,,,,,,,,,,,,,,,,,,,,,,,,,,,,,,,,,,,,,,,,,,,,,,,,,,,,,,,,,,,,,,,,,,,,,,,,,,,,,,,,,,,,,,
0,73,73,77,1,,5b4b8f509c7a6000017ae54f,62bbf973c8656b5829d45d38,2022-06-29_09h04.31.109,Colour_Asymmetry_Pilot,2022.1.3,Win32,58.910162,62bbe60bf3d75ef465d3e404,,,,,,,,,,,,,,,,,,,,,,,,,,,,,,,,,,,,,,,,,,,,,,,,,,,,,,,,,,,,,,,,,,,,,,,,,,,,,,,,,,,,,,,,,,,,,,,,,,,,,,,,,,,,,,,,,,,,,,,,,,,,,,,,,,,,,,,,,,,,,,,,,,,,,,,,,,,,,,
0,74,74,0,1,,5b4b8f509c7a6000017ae54f,62bbf973c8656b5829d45d38,2022-06-29_09h04.31.109,Colour_Asymmetry_Pilot,2022.1.3,Win32,58.910162,62bbe60bf3d75ef465d3e404,,,,,,,,,,,,,,,,,,,,,,,,,,,,,,,,,,,,,,,,,,,,,,,,,,,,,,,,,,,,,,,,,,,,,,,,,,,,,,,,,,,,,,,,,,,,,,,,,,,,,,,,,,,,,,,,,,,,,,,,,,,,,,,,,,,,,,,,,,,,,,,,,,,,,,,,,,,,,,
0,75,75,3,1,,5b4b8f509c7a6000017ae54f,62bbf973c8656b5829d45d38,2022-06-29_09h04.31.109,Colour_Asymmetry_Pilot,2022.1.3,Win32,58.910162,62bbe60bf3d75ef465d3e404,,,,,,,,,,,,,,,,,,,,,,,,,,,,,,,,,,,,,,,,,,,,,,,,,,,,,,,,,,,,,,,,,,,,,,,,,,,,,,,,,,,,,,,,,,,,,,,,,,,,,,,,,,,,,,,,,,,,,,,,,,,,,,,,,,,,,,,,,,,,,,,,,,,,,,,,,,,,,,
0,76,76,87,1,,5b4b8f509c7a6000017ae54f,62bbf973c8656b5829d45d38,2022-06-29_09h04.31.109,Colour_Asymmetry_Pilot,2022.1.3,Win32,58.910162,62bbe60bf3d75ef465d3e404,,,,,,,,,,,,,,,,,,,,,,,,,,,,,,,,,,,,,,,,,,,,,,,,,,,,,,,,,,,,,,,,,,,,,,,,,,,,,,,,,,,,,,,,,,,,,,,,,,,,,,,,,,,,,,,,,,,,,,,,,,,,,,,,,,,,,,,,,,,,,,,,,,,,,,,,,,,,,,
0,77,77,72,1,,5b4b8f509c7a6000017ae54f,62bbf973c8656b5829d45d38,2022-06-29_09h04.31.109,Colour_Asymmetry_Pilot,2022.1.3,Win32,58.910162,62bbe60bf3d75ef465d3e404,,,,,,,,,,,,,,,,,,,,,,,,,,,,,,,,,,,,,,,,,,,,,,,,,,,,,,,,,,,,,,,,,,,,,,,,,,,,,,,,,,,,,,,,,,,,,,,,,,,,,,,,,,,,,,,,,,,,,,,,,,,,,,,,,,,,,,,,,,,,,,,,,,,,,,,,,,,,,,
0,78,78,49,1,,5b4b8f509c7a6000017ae54f,62bbf973c8656b5829d45d38,2022-06-29_09h04.31.109,Colour_Asymmetry_Pilot,2022.1.3,Win32,58.910162,62bbe60bf3d75ef465d3e404,,,,,,,,,,,,,,,,,,,,,,,,,,,,,,,,,,,,,,,,,,,,,,,,,,,,,,,,,,,,,,,,,,,,,,,,,,,,,,,,,,,,,,,,,,,,,,,,,,,,,,,,,,,,,,,,,,,,,,,,,,,,,,,,,,,,,,,,,,,,,,,,,,,,,,,,,,,,,,
0,79,79,24,1,,5b4b8f509c7a6000017ae54f,62bbf973c8656b5829d45d38,2022-06-29_09h04.31.109,Colour_Asymmetry_Pilot,2022.1.3,Win32,58.910162,62bbe60bf3d75ef465d3e404,,,,,,,,,,,,,,,,,,,,,,,,,,,,,,,,,,,,,,,,,,,,,,,,,,,,,,,,,,,,,,,,,,,,,,,,,,,,,,,,,,,,,,,,,,,,,,,,,,,,,,,,,,,,,,,,,,,,,,,,,,,,,,,,,,,,,,,,,,,,,,,,,,,,,,,,,,,,,,
0,80,80,32,1,,5b4b8f509c7a6000017ae54f,62bbf973c8656b5829d45d38,2022-06-29_09h04.31.109,Colour_Asymmetry_Pilot,2022.1.3,Win32,58.910162,62bbe60bf3d75ef465d3e404,,,,,,,,,,,,,,,,,,,,,,,,,,,,,,,,,,,,,,,,,,,,,,,,,,,,,,,,,,,,,,,,,,,,,,,,,,,,,,,,,,,,,,,,,,,,,,,,,,,,,,,,,,,,,,,,,,,,,,,,,,,,,,,,,,,,,,,,,,,,,,,,,,,,,,,,,,,,,,
0,81,81,39,1,,5b4b8f509c7a6000017ae54f,62bbf973c8656b5829d45d38,2022-06-29_09h04.31.109,Colour_Asymmetry_Pilot,2022.1.3,Win32,58.910162,62bbe60bf3d75ef465d3e404,,,,,,,,,,,,,,,,,,,,,,,,,,,,,,,,,,,,,,,,,,,,,,,,,,,,,,,,,,,,,,,,,,,,,,,,,,,,,,,,,,,,,,,,,,,,,,,,,,,,,,,,,,,,,,,,,,,,,,,,,,,,,,,,,,,,,,,,,,,,,,,,,,,,,,,,,,,,,,
0,82,82,74,1,,5b4b8f509c7a6000017ae54f,62bbf973c8656b5829d45d38,2022-06-29_09h04.31.109,Colour_Asymmetry_Pilot,2022.1.3,Win32,58.910162,62bbe60bf3d75ef465d3e404,,,,,,,,,,,,,,,,,,,,,,,,,,,,,,,,,,,,,,,,,,,,,,,,,,,,,,,,,,,,,,,,,,,,,,,,,,,,,,,,,,,,,,,,,,,,,,,,,,,,,,,,,,,,,,,,,,,,,,,,,,,,,,,,,,,,,,,,,,,,,,,,,,,,,,,,,,,,,,
0,83,83,55,1,,5b4b8f509c7a6000017ae54f,62bbf973c8656b5829d45d38,2022-06-29_09h04.31.109,Colour_Asymmetry_Pilot,2022.1.3,Win32,58.910162,62bbe60bf3d75ef465d3e404,,,,,,,,,,,,,,,,,,,,,,,,,,,,,,,,,,,,,,,,,,,,,,,,,,,,,,,,,,,,,,,,,,,,,,,,,,,,,,,,,,,,,,,,,,,,,,,,,,,,,,,,,,,,,,,,,,,,,,,,,,,,,,,,,,,,,,,,,,,,,,,,,,,,,,,,,,,,,,
0,84,84,52,1,,5b4b8f509c7a6000017ae54f,62bbf973c8656b5829d45d38,2022-06-29_09h04.31.109,Colour_Asymmetry_Pilot,2022.1.3,Win32,58.910162,62bbe60bf3d75ef465d3e404,,,,,,,,,,,,,,,,,,,,,,,,,,,,,,,,,,,,,,,,,,,,,,,,,,,,,,,,,,,,,,,,,,,,,,,,,,,,,,,,,,,,,,,,,,,,,,,,,,,,,,,,,,,,,,,,,,,,,,,,,,,,,,,,,,,,,,,,,,,,,,,,,,,,,,,,,,,,,,
0,85,85,43,1,,5b4b8f509c7a6000017ae54f,62bbf973c8656b5829d45d38,2022-06-29_09h04.31.109,Colour_Asymmetry_Pilot,2022.1.3,Win32,58.910162,62bbe60bf3d75ef465d3e404,,,,,,,,,,,,,,,,,,,,,,,,,,,,,,,,,,,,,,,,,,,,,,,,,,,,,,,,,,,,,,,,,,,,,,,,,,,,,,,,,,,,,,,,,,,,,,,,,,,,,,,,,,,,,,,,,,,,,,,,,,,,,,,,,,,,,,,,,,,,,,,,,,,,,,,,,,,,,,
0,86,86,53,1,,5b4b8f509c7a6000017ae54f,62bbf973c8656b5829d45d38,2022-06-29_09h04.31.109,Colour_Asymmetry_Pilot,2022.1.3,Win32,58.910162,62bbe60bf3d75ef465d3e404,,,,,,,,,,,,,,,,,,,,,,,,,,,,,,,,,,,,,,,,,,,,,,,,,,,,,,,,,,,,,,,,,,,,,,,,,,,,,,,,,,,,,,,,,,,,,,,,,,,,,,,,,,,,,,,,,,,,,,,,,,,,,,,,,,,,,,,,,,,,,,,,,,,,,,,,,,,,,,
0,87,87,13,1,,5b4b8f509c7a6000017ae54f,62bbf973c8656b5829d45d38,2022-06-29_09h04.31.109,Colour_Asymmetry_Pilot,2022.1.3,Win32,58.910162,62bbe60bf3d75ef465d3e404,,,,,,,,,,,,,,,,,,,,,,,,,,,,,,,,,,,,,,,,,,,,,,,,,,,,,,,,,,,,,,,,,,,,,,,,,,,,,,,,,,,,,,,,,,,,,,,,,,,,,,,,,,,,,,,,,,,,,,,,,,,,,,,,,,,,,,,,,,,,,,,,,,,,,,,,,,,,,,
0,88,88,68,1,,5b4b8f509c7a6000017ae54f,62bbf973c8656b5829d45d38,2022-06-29_09h04.31.109,Colour_Asymmetry_Pilot,2022.1.3,Win32,58.910162,62bbe60bf3d75ef465d3e404,,,,,,,,,,,,,,,,,,,,,,,,,,,,,,,,,,,,,,,,,,,,,,,,,,,,,,,,,,,,,,,,,,,,,,,,,,,,,,,,,,,,,,,,,,,,,,,,,,,,,,,,,,,,,,,,,,,,,,,,,,,,,,,,,,,,,,,,,,,,,,,,,,,,,,,,,,,,,,
0,89,89,73,1,,5b4b8f509c7a6000017ae54f,62bbf973c8656b5829d45d38,2022-06-29_09h04.31.109,Colour_Asymmetry_Pilot,2022.1.3,Win32,58.910162,62bbe60bf3d75ef465d3e404,,,,,,,,,,,,,,,,,,,,,,,,,,,,,,,,,,,,,,,,,,,,,,,,,,,,,,,,,,,,,,,,,,,,,,,,,,,,,,,,,,,,,,,,,,,,,,,,,,,,,,,,,,,,,,,,,,,,,,,,,,,,,,,,,,,,,,,,,,,,,,,,,,,,,,,,,,,,,,
0,90,90,19,1,,5b4b8f509c7a6000017ae54f,62bbf973c8656b5829d45d38,2022-06-29_09h04.31.109,Colour_Asymmetry_Pilot,2022.1.3,Win32,58.910162,62bbe60bf3d75ef465d3e404,,,,,,,,,,,,,,,,,,,,,,,,,,,,,,,,,,,,,,,,,,,,,,,,,,,,,,,,,,,,,,,,,,,,,,,,,,,,,,,,,,,,,,,,,,,,,,,,,,,,,,,,,,,,,,,,,,,,,,,,,,,,,,,,,,,,,,,,,,,,,,,,,,,,,,,,,,,,,,
0,91,91,59,1,,5b4b8f509c7a6000017ae54f,62bbf973c8656b5829d45d38,2022-06-29_09h04.31.109,Colour_Asymmetry_Pilot,2022.1.3,Win32,58.910162,62bbe60bf3d75ef465d3e404,,,,,,,,,,,,,,,,,,,,,,,,,,,,,,,,,,,,,,,,,,,,,,,,,,,,,,,,,,,,,,,,,,,,,,,,,,,,,,,,,,,,,,,,,,,,,,,,,,,,,,,,,,,,,,,,,,,,,,,,,,,,,,,,,,,,,,,,,,,,,,,,,,,,,,,,,,,,,,
0,92,92,44,1,,5b4b8f509c7a6000017ae54f,62bbf973c8656b5829d45d38,2022-06-29_09h04.31.109,Colour_Asymmetry_Pilot,2022.1.3,Win32,58.910162,62bbe60bf3d75ef465d3e404,,,,,,,,,,,,,,,,,,,,,,,,,,,,,,,,,,,,,,,,,,,,,,,,,,,,,,,,,,,,,,,,,,,,,,,,,,,,,,,,,,,,,,,,,,,,,,,,,,,,,,,,,,,,,,,,,,,,,,,,,,,,,,,,,,,,,,,,,,,,,,,,,,,,,,,,,,,,,,
,,,,,,5b4b8f509c7a6000017ae54f,62bbf973c8656b5829d45d38,2022-06-29_09h04.31.109,Colour_Asymmetry_Pilot,2022.1.3,Win32,58.910162,62bbe60bf3d75ef465d3e404,0,0,0,81,1,onethree,,,,,,,,,,,,,,,,,,,,,,,,,,,,,,,,,,,,,,,,,,,,,,,,,,,,,,,,,,,,,,,,,,,,,,,,,,,,,,,,,,,,,,,,,,,,,,,,,,,,,,,,,,,,,,,,,,,,,,,,,,,,,,,,,,,,,,,,,,,,,,,,,,,,,,,,
,,,,,,5b4b8f509c7a6000017ae54f,62bbf973c8656b5829d45d38,2022-06-29_09h04.31.109,Colour_Asymmetry_Pilot,2022.1.3,Win32,58.910162,62bbe60bf3d75ef465d3e404,0,1,1,59,1,twofour,,,,,,,,,,,,,,,,,,,,,,,,,,,,,,,,,,,,,,,,,,,,,,,,,,,,,,,,,,,,,,,,,,,,,,,,,,,,,,,,,,,,,,,,,,,,,,,,,,,,,,,,,,,,,,,,,,,,,,,,,,,,,,,,,,,,,,,,,,,,,,,,,,,,,,,,
,,,,,,5b4b8f509c7a6000017ae54f,62bbf973c8656b5829d45d38,2022-06-29_09h04.31.109,Colour_Asymmetry_Pilot,2022.1.3,Win32,58.910162,62bbe60bf3d75ef465d3e404,0,2,2,119,1,fourthree,,,,,,,,,,,,,,,,,,,,,,,,,,,,,,,,,,,,,,,,,,,,,,,,,,,,,,,,,,,,,,,,,,,,,,,,,,,,,,,,,,,,,,,,,,,,,,,,,,,,,,,,,,,,,,,,,,,,,,,,,,,,,,,,,,,,,,,,,,,,,,,,,,,,,,,,
,,,,,,5b4b8f509c7a6000017ae54f,62bbf973c8656b5829d45d38,2022-06-29_09h04.31.109,Colour_Asymmetry_Pilot,2022.1.3,Win32,58.910162,62bbe60bf3d75ef465d3e404,0,3,3,146,1,twoone,,,,,,,,,,,,,,,,,,,,,,,,,,,,,,,,,,,,,,,,,,,,,,,,,,,,,,,,,,,,,,,,,,,,,,,,,,,,,,,,,,,,,,,,,,,,,,,,,,,,,,,,,,,,,,,,,,,,,,,,,,,,,,,,,,,,,,,,,,,,,,,,,,,,,,,,
,,,,,,5b4b8f509c7a6000017ae54f,62bbf973c8656b5829d45d38,2022-06-29_09h04.31.109,Colour_Asymmetry_Pilot,2022.1.3,Win32,58.910162,62bbe60bf3d75ef465d3e404,0,4,4,39,1,fourthree,,,,,,,,,,,,,,,,,,,,,,,,,,,,,,,,,,,,,,,,,,,,,,,,,,,,,,,,,,,,,,,,,,,,,,,,,,,,,,,,,,,,,,,,,,,,,,,,,,,,,,,,,,,,,,,,,,,,,,,,,,,,,,,,,,,,,,,,,,,,,,,,,,,,,,,,
,,,,,,5b4b8f509c7a6000017ae54f,62bbf973c8656b5829d45d38,2022-06-29_09h04.31.109,Colour_Asymmetry_Pilot,2022.1.3,Win32,58.910162,62bbe60bf3d75ef465d3e404,0,5,5,126,1,fourtwo,,,,,,,,,,,,,,,,,,,,,,,,,,,,,,,,,,,,,,,,,,,,,,,,,,,,,,,,,,,,,,,,,,,,,,,,,,,,,,,,,,,,,,,,,,,,,,,,,,,,,,,,,,,,,,,,,,,,,,,,,,,,,,,,,,,,,,,,,,,,,,,,,,,,,,,,
,,,,,,5b4b8f509c7a6000017ae54f,62bbf973c8656b5829d45d38,2022-06-29_09h04.31.109,Colour_Asymmetry_Pilot,2022.1.3,Win32,58.910162,62bbe60bf3d75ef465d3e404,0,6,6,108,1,threeone,,,,,,,,,,,,,,,,,,,,,,,,,,,,,,,,,,,,,,,,,,,,,,,,,,,,,,,,,,,,,,,,,,,,,,,,,,,,,,,,,,,,,,,,,,,,,,,,,,,,,,,,,,,,,,,,,,,,,,,,,,,,,,,,,,,,,,,,,,,,,,,,,,,,,,,,
,,,,,,5b4b8f509c7a6000017ae54f,62bbf973c8656b5829d45d38,2022-06-29_09h04.31.109,Colour_Asymmetry_Pilot,2022.1.3,Win32,58.910162,62bbe60bf3d75ef465d3e404,0,7,7,157,1,threefour,,,,,,,,,,,,,,,,,,,,,,,,,,,,,,,,,,,,,,,,,,,,,,,,,,,,,,,,,,,,,,,,,,,,,,,,,,,,,,,,,,,,,,,,,,,,,,,,,,,,,,,,,,,,,,,,,,,,,,,,,,,,,,,,,,,,,,,,,,,,,,,,,,,,,,,,
,,,,,,5b4b8f509c7a6000017ae54f,62bbf973c8656b5829d45d38,2022-06-29_09h04.31.109,Colour_Asymmetry_Pilot,2022.1.3,Win32,58.910162,62bbe60bf3d75ef465d3e404,0,8,8,65,1,onethree,,,,,,,,,,,,,,,,,,,,,,,,,,,,,,,,,,,,,,,,,,,,,,,,,,,,,,,,,,,,,,,,,,,,,,,,,,,,,,,,,,,,,,,,,,,,,,,,,,,,,,,,,,,,,,,,,,,,,,,,,,,,,,,,,,,,,,,,,,,,,,,,,,,,,,,,
,,,,,,5b4b8f509c7a6000017ae54f,62bbf973c8656b5829d45d38,2022-06-29_09h04.31.109,Colour_Asymmetry_Pilot,2022.1.3,Win32,58.910162,62bbe60bf3d75ef465d3e404,0,9,9,141,1,threefour,,,,,,,,,,,,,,,,,,,,,,,,,,,,,,,,,,,,,,,,,,,,,,,,,,,,,,,,,,,,,,,,,,,,,,,,,,,,,,,,,,,,,,,,,,,,,,,,,,,,,,,,,,,,,,,,,,,,,,,,,,,,,,,,,,,,,,,,,,,,,,,,,,,,,,,,
,,,,,,5b4b8f509c7a6000017ae54f,62bbf973c8656b5829d45d38,2022-06-29_09h04.31.109,Colour_Asymmetry_Pilot,2022.1.3,Win32,58.910162,62bbe60bf3d75ef465d3e404,0,10,10,125,1,threefour,,,,,,,,,,,,,,,,,,,,,,,,,,,,,,,,,,,,,,,,,,,,,,,,,,,,,,,,,,,,,,,,,,,,,,,,,,,,,,,,,,,,,,,,,,,,,,,,,,,,,,,,,,,,,,,,,,,,,,,,,,,,,,,,,,,,,,,,,,,,,,,,,,,,,,,,
,,,,,,5b4b8f509c7a6000017ae54f,62bbf973c8656b5829d45d38,2022-06-29_09h04.31.109,Colour_Asymmetry_Pilot,2022.1.3,Win32,58.910162,62bbe60bf3d75ef465d3e404,0,11,11,120,1,onetwo,,,,,,,,,,,,,,,,,,,,,,,,,,,,,,,,,,,,,,,,,,,,,,,,,,,,,,,,,,,,,,,,,,,,,,,,,,,,,,,,,,,,,,,,,,,,,,,,,,,,,,,,,,,,,,,,,,,,,,,,,,,,,,,,,,,,,,,,,,,,,,,,,,,,,,,,
,,,,,,5b4b8f509c7a6000017ae54f,62bbf973c8656b5829d45d38,2022-06-29_09h04.31.109,Colour_Asymmetry_Pilot,2022.1.3,Win32,58.910162,62bbe60bf3d75ef465d3e404,0,12,12,36,1,threeone,,,,,,,,,,,,,,,,,,,,,,,,,,,,,,,,,,,,,,,,,,,,,,,,,,,,,,,,,,,,,,,,,,,,,,,,,,,,,,,,,,,,,,,,,,,,,,,,,,,,,,,,,,,,,,,,,,,,,,,,,,,,,,,,,,,,,,,,,,,,,,,,,,,,,,,,
,,,,,,5b4b8f509c7a6000017ae54f,62bbf973c8656b5829d45d38,2022-06-29_09h04.31.109,Colour_Asymmetry_Pilot,2022.1.3,Win32,58.910162,62bbe60bf3d75ef465d3e404,0,13,13,0,1,onetwo,,,,,,,,,,,,,,,,,,,,,,,,,,,,,,,,,,,,,,,,,,,,,,,,,,,,,,,,,,,,,,,,,,,,,,,,,,,,,,,,,,,,,,,,,,,,,,,,,,,,,,,,,,,,,,,,,,,,,,,,,,,,,,,,,,,,,,,,,,,,,,,,,,,,,,,,
,,,,,,5b4b8f509c7a6000017ae54f,62bbf973c8656b5829d45d38,2022-06-29_09h04.31.109,Colour_Asymmetry_Pilot,2022.1.3,Win32,58.910162,62bbe60bf3d75ef465d3e404,0,14,14,115,1,twofour,,,,,,,,,,,,,,,,,,,,,,,,,,,,,,,,,,,,,,,,,,,,,,,,,,,,,,,,,,,,,,,,,,,,,,,,,,,,,,,,,,,,,,,,,,,,,,,,,,,,,,,,,,,,,,,,,,,,,,,,,,,,,,,,,,,,,,,,,,,,,,,,,,,,,,,,
,,,,,,5b4b8f509c7a6000017ae54f,62bbf973c8656b5829d45d38,2022-06-29_09h04.31.109,Colour_Asymmetry_Pilot,2022.1.3,Win32,58.910162,62bbe60bf3d75ef465d3e404,0,15,15,31,1,fourthree,,,,,,,,,,,,,,,,,,,,,,,,,,,,,,,,,,,,,,,,,,,,,,,,,,,,,,,,,,,,,,,,,,,,,,,,,,,,,,,,,,,,,,,,,,,,,,,,,,,,,,,,,,,,,,,,,,,,,,,,,,,,,,,,,,,,,,,,,,,,,,,,,,,,,,,,
,,,,,,5b4b8f509c7a6000017ae54f,62bbf973c8656b5829d45d38,2022-06-29_09h04.31.109,Colour_Asymmetry_Pilot,2022.1.3,Win32,58.910162,62bbe60bf3d75ef465d3e404,0,16,16,155,1,twofour,,,,,,,,,,,,,,,,,,,,,,,,,,,,,,,,,,,,,,,,,,,,,,,,,,,,,,,,,,,,,,,,,,,,,,,,,,,,,,,,,,,,,,,,,,,,,,,,,,,,,,,,,,,,,,,,,,,,,,,,,,,,,,,,,,,,,,,,,,,,,,,,,,,,,,,,
,,,,,,5b4b8f509c7a6000017ae54f,62bbf973c8656b5829d45d38,2022-06-29_09h04.31.109,Colour_Asymmetry_Pilot,2022.1.3,Win32,58.910162,62bbe60bf3d75ef465d3e404,0,17,17,77,1,threefour,,,,,,,,,,,,,,,,,,,,,,,,,,,,,,,,,,,,,,,,,,,,,,,,,,,,,,,,,,,,,,,,,,,,,,,,,,,,,,,,,,,,,,,,,,,,,,,,,,,,,,,,,,,,,,,,,,,,,,,,,,,,,,,,,,,,,,,,,,,,,,,,,,,,,,,,
,,,,,,5b4b8f509c7a6000017ae54f,62bbf973c8656b5829d45d38,2022-06-29_09h04.31.109,Colour_Asymmetry_Pilot,2022.1.3,Win32,58.910162,62bbe60bf3d75ef465d3e404,0,18,18,85,1,threefour,,,,,,,,,,,,,,,,,,,,,,,,,,,,,,,,,,,,,,,,,,,,,,,,,,,,,,,,,,,,,,,,,,,,,,,,,,,,,,,,,,,,,,,,,,,,,,,,,,,,,,,,,,,,,,,,,,,,,,,,,,,,,,,,,,,,,,,,,,,,,,,,,,,,,,,,
,,,,,,5b4b8f509c7a6000017ae54f,62bbf973c8656b5829d45d38,2022-06-29_09h04.31.109,Colour_Asymmetry_Pilot,2022.1.3,Win32,58.910162,62bbe60bf3d75ef465d3e404,0,19,19,42,1,twoone,,,,,,,,,,,,,,,,,,,,,,,,,,,,,,,,,,,,,,,,,,,,,,,,,,,,,,,,,,,,,,,,,,,,,,,,,,,,,,,,,,,,,,,,,,,,,,,,,,,,,,,,,,,,,,,,,,,,,,,,,,,,,,,,,,,,,,,,,,,,,,,,,,,,,,,,
,,,,,,5b4b8f509c7a6000017ae54f,62bbf973c8656b5829d45d38,2022-06-29_09h04.31.109,Colour_Asymmetry_Pilot,2022.1.3,Win32,58.910162,62bbe60bf3d75ef465d3e404,0,20,20,45,1,threefour,,,,,,,,,,,,,,,,,,,,,,,,,,,,,,,,,,,,,,,,,,,,,,,,,,,,,,,,,,,,,,,,,,,,,,,,,,,,,,,,,,,,,,,,,,,,,,,,,,,,,,,,,,,,,,,,,,,,,,,,,,,,,,,,,,,,,,,,,,,,,,,,,,,,,,,,
,,,,,,5b4b8f509c7a6000017ae54f,62bbf973c8656b5829d45d38,2022-06-29_09h04.31.109,Colour_Asymmetry_Pilot,2022.1.3,Win32,58.910162,62bbe60bf3d75ef465d3e404,0,21,21,154,1,twoone,,,,,,,,,,,,,,,,,,,,,,,,,,,,,,,,,,,,,,,,,,,,,,,,,,,,,,,,,,,,,,,,,,,,,,,,,,,,,,,,,,,,,,,,,,,,,,,,,,,,,,,,,,,,,,,,,,,,,,,,,,,,,,,,,,,,,,,,,,,,,,,,,,,,,,,,
,,,,,,5b4b8f509c7a6000017ae54f,62bbf973c8656b5829d45d38,2022-06-29_09h04.31.109,Colour_Asymmetry_Pilot,2022.1.3,Win32,58.910162,62bbe60bf3d75ef465d3e404,0,22,22,40,1,onetwo,,,,,,,,,,,,,,,,,,,,,,,,,,,,,,,,,,,,,,,,,,,,,,,,,,,,,,,,,,,,,,,,,,,,,,,,,,,,,,,,,,,,,,,,,,,,,,,,,,,,,,,,,,,,,,,,,,,,,,,,,,,,,,,,,,,,,,,,,,,,,,,,,,,,,,,,
,,,,,,5b4b8f509c7a6000017ae54f,62bbf973c8656b5829d45d38,2022-06-29_09h04.31.109,Colour_Asymmetry_Pilot,2022.1.3,Win32,58.910162,62bbe60bf3d75ef465d3e404,0,23,23,122,1,twoone,,,,,,,,,,,,,,,,,,,,,,,,,,,,,,,,,,,,,,,,,,,,,,,,,,,,,,,,,,,,,,,,,,,,,,,,,,,,,,,,,,,,,,,,,,,,,,,,,,,,,,,,,,,,,,,,,,,,,,,,,,,,,,,,,,,,,,,,,,,,,,,,,,,,,,,,
,,,,,,5b4b8f509c7a6000017ae54f,62bbf973c8656b5829d45d38,2022-06-29_09h04.31.109,Colour_Asymmetry_Pilot,2022.1.3,Win32,58.910162,62bbe60bf3d75ef465d3e404,0,24,24,131,1,twofour,,,,,,,,,,,,,,,,,,,,,,,,,,,,,,,,,,,,,,,,,,,,,,,,,,,,,,,,,,,,,,,,,,,,,,,,,,,,,,,,,,,,,,,,,,,,,,,,,,,,,,,,,,,,,,,,,,,,,,,,,,,,,,,,,,,,,,,,,,,,,,,,,,,,,,,,
,,,,,,5b4b8f509c7a6000017ae54f,62bbf973c8656b5829d45d38,2022-06-29_09h04.31.109,Colour_Asymmetry_Pilot,2022.1.3,Win32,58.910162,62bbe60bf3d75ef465d3e404,0,25,25,76,1,threeone,,,,,,,,,,,,,,,,,,,,,,,,,,,,,,,,,,,,,,,,,,,,,,,,,,,,,,,,,,,,,,,,,,,,,,,,,,,,,,,,,,,,,,,,,,,,,,,,,,,,,,,,,,,,,,,,,,,,,,,,,,,,,,,,,,,,,,,,,,,,,,,,,,,,,,,,
,,,,,,5b4b8f509c7a6000017ae54f,62bbf973c8656b5829d45d38,2022-06-29_09h04.31.109,Colour_Asymmetry_Pilot,2022.1.3,Win32,58.910162,62bbe60bf3d75ef465d3e404,0,26,26,12,1,threeone,,,,,,,,,,,,,,,,,,,,,,,,,,,,,,,,,,,,,,,,,,,,,,,,,,,,,,,,,,,,,,,,,,,,,,,,,,,,,,,,,,,,,,,,,,,,,,,,,,,,,,,,,,,,,,,,,,,,,,,,,,,,,,,,,,,,,,,,,,,,,,,,,,,,,,,,
,,,,,,5b4b8f509c7a6000017ae54f,62bbf973c8656b5829d45d38,2022-06-29_09h04.31.109,Colour_Asymmetry_Pilot,2022.1.3,Win32,58.910162,62bbe60bf3d75ef465d3e404,0,27,27,19,1,twofour,,,,,,,,,,,,,,,,,,,,,,,,,,,,,,,,,,,,,,,,,,,,,,,,,,,,,,,,,,,,,,,,,,,,,,,,,,,,,,,,,,,,,,,,,,,,,,,,,,,,,,,,,,,,,,,,,,,,,,,,,,,,,,,,,,,,,,,,,,,,,,,,,,,,,,,,
,,,,,,5b4b8f509c7a6000017ae54f,62bbf973c8656b5829d45d38,2022-06-29_09h04.31.109,Colour_Asymmetry_Pilot,2022.1.3,Win32,58.910162,62bbe60bf3d75ef465d3e404,0,28,28,99,1,twofour,,,,,,,,,,,,,,,,,,,,,,,,,,,,,,,,,,,,,,,,,,,,,,,,,,,,,,,,,,,,,,,,,,,,,,,,,,,,,,,,,,,,,,,,,,,,,,,,,,,,,,,,,,,,,,,,,,,,,,,,,,,,,,,,,,,,,,,,,,,,,,,,,,,,,,,,
,,,,,,5b4b8f509c7a6000017ae54f,62bbf973c8656b5829d45d38,2022-06-29_09h04.31.109,Colour_Asymmetry_Pilot,2022.1.3,Win32,58.910162,62bbe60bf3d75ef465d3e404,0,29,29,70,1,fourtwo,,,,,,,,,,,,,,,,,,,,,,,,,,,,,,,,,,,,,,,,,,,,,,,,,,,,,,,,,,,,,,,,,,,,,,,,,,,,,,,,,,,,,,,,,,,,,,,,,,,,,,,,,,,,,,,,,,,,,,,,,,,,,,,,,,,,,,,,,,,,,,,,,,,,,,,,
,,,,,,5b4b8f509c7a6000017ae54f,62bbf973c8656b5829d45d38,2022-06-29_09h04.31.109,Colour_Asymmetry_Pilot,2022.1.3,Win32,58.910162,62bbe60bf3d75ef465d3e404,0,30,30,22,1,fourtwo,,,,,,,,,,,,,,,,,,,,,,,,,,,,,,,,,,,,,,,,,,,,,,,,,,,,,,,,,,,,,,,,,,,,,,,,,,,,,,,,,,,,,,,,,,,,,,,,,,,,,,,,,,,,,,,,,,,,,,,,,,,,,,,,,,,,,,,,,,,,,,,,,,,,,,,,
,,,,,,5b4b8f509c7a6000017ae54f,62bbf973c8656b5829d45d38,2022-06-29_09h04.31.109,Colour_Asymmetry_Pilot,2022.1.3,Win32,58.910162,62bbe60bf3d75ef465d3e404,0,31,31,44,1,threeone,,,,,,,,,,,,,,,,,,,,,,,,,,,,,,,,,,,,,,,,,,,,,,,,,,,,,,,,,,,,,,,,,,,,,,,,,,,,,,,,,,,,,,,,,,,,,,,,,,,,,,,,,,,,,,,,,,,,,,,,,,,,,,,,,,,,,,,,,,,,,,,,,,,,,,,,
,,,,,,5b4b8f509c7a6000017ae54f,62bbf973c8656b5829d45d38,2022-06-29_09h04.31.109,Colour_Asymmetry_Pilot,2022.1.3,Win32,58.910162,62bbe60bf3d75ef465d3e404,0,32,32,7,1,fourthree,,,,,,,,,,,,,,,,,,,,,,,,,,,,,,,,,,,,,,,,,,,,,,,,,,,,,,,,,,,,,,,,,,,,,,,,,,,,,,,,,,,,,,,,,,,,,,,,,,,,,,,,,,,,,,,,,,,,,,,,,,,,,,,,,,,,,,,,,,,,,,,,,,,,,,,,
,,,,,,5b4b8f509c7a6000017ae54f,62bbf973c8656b5829d45d38,2022-06-29_09h04.31.109,Colour_Asymmetry_Pilot,2022.1.3,Win32,58.910162,62bbe60bf3d75ef465d3e404,0,33,33,25,1,onethree,,,,,,,,,,,,,,,,,,,,,,,,,,,,,,,,,,,,,,,,,,,,,,,,,,,,,,,,,,,,,,,,,,,,,,,,,,,,,,,,,,,,,,,,,,,,,,,,,,,,,,,,,,,,,,,,,,,,,,,,,,,,,,,,,,,,,,,,,,,,,,,,,,,,,,,,
,,,,,,5b4b8f509c7a6000017ae54f,62bbf973c8656b5829d45d38,2022-06-29_09h04.31.109,Colour_Asymmetry_Pilot,2022.1.3,Win32,58.910162,62bbe60bf3d75ef465d3e404,0,34,34,133,1,threefour,,,,,,,,,,,,,,,,,,,,,,,,,,,,,,,,,,,,,,,,,,,,,,,,,,,,,,,,,,,,,,,,,,,,,,,,,,,,,,,,,,,,,,,,,,,,,,,,,,,,,,,,,,,,,,,,,,,,,,,,,,,,,,,,,,,,,,,,,,,,,,,,,,,,,,,,
,,,,,,5b4b8f509c7a6000017ae54f,62bbf973c8656b5829d45d38,2022-06-29_09h04.31.109,Colour_Asymmetry_Pilot,2022.1.3,Win32,58.910162,62bbe60bf3d75ef465d3e404,0,35,35,105,1,onethree,,,,,,,,,,,,,,,,,,,,,,,,,,,,,,,,,,,,,,,,,,,,,,,,,,,,,,,,,,,,,,,,,,,,,,,,,,,,,,,,,,,,,,,,,,,,,,,,,,,,,,,,,,,,,,,,,,,,,,,,,,,,,,,,,,,,,,,,,,,,,,,,,,,,,,,,
,,,,,,5b4b8f509c7a6000017ae54f,62bbf973c8656b5829d45d38,2022-06-29_09h04.31.109,Colour_Asymmetry_Pilot,2022.1.3,Win32,58.910162,62bbe60bf3d75ef465d3e404,0,36,36,6,1,fourtwo,,,,,,,,,,,,,,,,,,,,,,,,,,,,,,,,,,,,,,,,,,,,,,,,,,,,,,,,,,,,,,,,,,,,,,,,,,,,,,,,,,,,,,,,,,,,,,,,,,,,,,,,,,,,,,,,,,,,,,,,,,,,,,,,,,,,,,,,,,,,,,,,,,,,,,,,
,,,,,,5b4b8f509c7a6000017ae54f,62bbf973c8656b5829d45d38,2022-06-29_09h04.31.109,Colour_Asymmetry_Pilot,2022.1.3,Win32,58.910162,62bbe60bf3d75ef465d3e404,0,37,37,14,1,fourtwo,,,,,,,,,,,,,,,,,,,,,,,,,,,,,,,,,,,,,,,,,,,,,,,,,,,,,,,,,,,,,,,,,,,,,,,,,,,,,,,,,,,,,,,,,,,,,,,,,,,,,,,,,,,,,,,,,,,,,,,,,,,,,,,,,,,,,,,,,,,,,,,,,,,,,,,,
,,,,,,5b4b8f509c7a6000017ae54f,62bbf973c8656b5829d45d38,2022-06-29_09h04.31.109,Colour_Asymmetry_Pilot,2022.1.3,Win32,58.910162,62bbe60bf3d75ef465d3e404,0,38,38,13,1,threefour,,,,,,,,,,,,,,,,,,,,,,,,,,,,,,,,,,,,,,,,,,,,,,,,,,,,,,,,,,,,,,,,,,,,,,,,,,,,,,,,,,,,,,,,,,,,,,,,,,,,,,,,,,,,,,,,,,,,,,,,,,,,,,,,,,,,,,,,,,,,,,,,,,,,,,,,
,,,,,,5b4b8f509c7a6000017ae54f,62bbf973c8656b5829d45d38,2022-06-29_09h04.31.109,Colour_Asymmetry_Pilot,2022.1.3,Win32,58.910162,62bbe60bf3d75ef465d3e404,0,39,39,73,1,onethree,,,,,,,,,,,,,,,,,,,,,,,,,,,,,,,,,,,,,,,,,,,,,,,,,,,,,,,,,,,,,,,,,,,,,,,,,,,,,,,,,,,,,,,,,,,,,,,,,,,,,,,,,,,,,,,,,,,,,,,,,,,,,,,,,,,,,,,,,,,,,,,,,,,,,,,,
,,,,,,5b4b8f509c7a6000017ae54f,62bbf973c8656b5829d45d38,2022-06-29_09h04.31.109,Colour_Asymmetry_Pilot,2022.1.3,Win32,58.910162,62bbe60bf3d75ef465d3e404,0,40,40,109,1,threefour,,,,,,,,,,,,,,,,,,,,,,,,,,,,,,,,,,,,,,,,,,,,,,,,,,,,,,,,,,,,,,,,,,,,,,,,,,,,,,,,,,,,,,,,,,,,,,,,,,,,,,,,,,,,,,,,,,,,,,,,,,,,,,,,,,,,,,,,,,,,,,,,,,,,,,,,
,,,,,,5b4b8f509c7a6000017ae54f,62bbf973c8656b5829d45d38,2022-06-29_09h04.31.109,Colour_Asymmetry_Pilot,2022.1.3,Win32,58.910162,62bbe60bf3d75ef465d3e404,0,41,41,86,1,fourtwo,,,,,,,,,,,,,,,,,,,,,,,,,,,,,,,,,,,,,,,,,,,,,,,,,,,,,,,,,,,,,,,,,,,,,,,,,,,,,,,,,,,,,,,,,,,,,,,,,,,,,,,,,,,,,,,,,,,,,,,,,,,,,,,,,,,,,,,,,,,,,,,,,,,,,,,,
,,,,,,5b4b8f509c7a6000017ae54f,62bbf973c8656b5829d45d38,2022-06-29_09h04.31.109,Colour_Asymmetry_Pilot,2022.1.3,Win32,58.910162,62bbe60bf3d75ef465d3e404,0,42,42,15,1,fourthree,,,,,,,,,,,,,,,,,,,,,,,,,,,,,,,,,,,,,,,,,,,,,,,,,,,,,,,,,,,,,,,,,,,,,,,,,,,,,,,,,,,,,,,,,,,,,,,,,,,,,,,,,,,,,,,,,,,,,,,,,,,,,,,,,,,,,,,,,,,,,,,,,,,,,,,,
,,,,,,5b4b8f509c7a6000017ae54f,62bbf973c8656b5829d45d38,2022-06-29_09h04.31.109,Colour_Asymmetry_Pilot,2022.1.3,Win32,58.910162,62bbe60bf3d75ef465d3e404,0,43,43,104,1,onetwo,,,,,,,,,,,,,,,,,,,,,,,,,,,,,,,,,,,,,,,,,,,,,,,,,,,,,,,,,,,,,,,,,,,,,,,,,,,,,,,,,,,,,,,,,,,,,,,,,,,,,,,,,,,,,,,,,,,,,,,,,,,,,,,,,,,,,,,,,,,,,,,,,,,,,,,,
,,,,,,5b4b8f509c7a6000017ae54f,62bbf973c8656b5829d45d38,2022-06-29_09h04.31.109,Colour_Asymmetry_Pilot,2022.1.3,Win32,58.910162,62bbe60bf3d75ef465d3e404,0,44,44,136,1,onetwo,,,,,,,,,,,,,,,,,,,,,,,,,,,,,,,,,,,,,,,,,,,,,,,,,,,,,,,,,,,,,,,,,,,,,,,,,,,,,,,,,,,,,,,,,,,,,,,,,,,,,,,,,,,,,,,,,,,,,,,,,,,,,,,,,,,,,,,,,,,,,,,,,,,,,,,,
,,,,,,5b4b8f509c7a6000017ae54f,62bbf973c8656b5829d45d38,2022-06-29_09h04.31.109,Colour_Asymmetry_Pilot,2022.1.3,Win32,58.910162,62bbe60bf3d75ef465d3e404,0,45,45,52,1,threeone,,,,,,,,,,,,,,,,,,,,,,,,,,,,,,,,,,,,,,,,,,,,,,,,,,,,,,,,,,,,,,,,,,,,,,,,,,,,,,,,,,,,,,,,,,,,,,,,,,,,,,,,,,,,,,,,,,,,,,,,,,,,,,,,,,,,,,,,,,,,,,,,,,,,,,,,
,,,,,,5b4b8f509c7a6000017ae54f,62bbf973c8656b5829d45d38,2022-06-29_09h04.31.109,Colour_Asymmetry_Pilot,2022.1.3,Win32,58.910162,62bbe60bf3d75ef465d3e404,0,46,46,139,1,twofour,,,,,,,,,,,,,,,,,,,,,,,,,,,,,,,,,,,,,,,,,,,,,,,,,,,,,,,,,,,,,,,,,,,,,,,,,,,,,,,,,,,,,,,,,,,,,,,,,,,,,,,,,,,,,,,,,,,,,,,,,,,,,,,,,,,,,,,,,,,,,,,,,,,,,,,,
,,,,,,5b4b8f509c7a6000017ae54f,62bbf973c8656b5829d45d38,2022-06-29_09h04.31.109,Colour_Asymmetry_Pilot,2022.1.3,Win32,58.910162,62bbe60bf3d75ef465d3e404,0,47,47,34,1,twoone,,,,,,,,,,,,,,,,,,,,,,,,,,,,,,,,,,,,,,,,,,,,,,,,,,,,,,,,,,,,,,,,,,,,,,,,,,,,,,,,,,,,,,,,,,,,,,,,,,,,,,,,,,,,,,,,,,,,,,,,,,,,,,,,,,,,,,,,,,,,,,,,,,,,,,,,
,,,,,,5b4b8f509c7a6000017ae54f,62bbf973c8656b5829d45d38,2022-06-29_09h04.31.109,Colour_Asymmetry_Pilot,2022.1.3,Win32,58.910162,62bbe60bf3d75ef465d3e404,0,48,48,91,1,twofour,,,,,,,,,,,,,,,,,,,,,,,,,,,,,,,,,,,,,,,,,,,,,,,,,,,,,,,,,,,,,,,,,,,,,,,,,,,,,,,,,,,,,,,,,,,,,,,,,,,,,,,,,,,,,,,,,,,,,,,,,,,,,,,,,,,,,,,,,,,,,,,,,,,,,,,,
,,,,,,5b4b8f509c7a6000017ae54f,62bbf973c8656b5829d45d38,2022-06-29_09h04.31.109,Colour_Asymmetry_Pilot,2022.1.3,Win32,58.910162,62bbe60bf3d75ef465d3e404,0,49,49,118,1,fourtwo,,,,,,,,,,,,,,,,,,,,,,,,,,,,,,,,,,,,,,,,,,,,,,,,,,,,,,,,,,,,,,,,,,,,,,,,,,,,,,,,,,,,,,,,,,,,,,,,,,,,,,,,,,,,,,,,,,,,,,,,,,,,,,,,,,,,,,,,,,,,,,,,,,,,,,,,
,,,,,,5b4b8f509c7a6000017ae54f,62bbf973c8656b5829d45d38,2022-06-29_09h04.31.109,Colour_Asymmetry_Pilot,2022.1.3,Win32,58.910162,62bbe60bf3d75ef465d3e404,0,50,50,94,1,fourtwo,,,,,,,,,,,,,,,,,,,,,,,,,,,,,,,,,,,,,,,,,,,,,,,,,,,,,,,,,,,,,,,,,,,,,,,,,,,,,,,,,,,,,,,,,,,,,,,,,,,,,,,,,,,,,,,,,,,,,,,,,,,,,,,,,,,,,,,,,,,,,,,,,,,,,,,,
,,,,,,5b4b8f509c7a6000017ae54f,62bbf973c8656b5829d45d38,2022-06-29_09h04.31.109,Colour_Asymmetry_Pilot,2022.1.3,Win32,58.910162,62bbe60bf3d75ef465d3e404,0,51,51,1,1,onethree,,,,,,,,,,,,,,,,,,,,,,,,,,,,,,,,,,,,,,,,,,,,,,,,,,,,,,,,,,,,,,,,,,,,,,,,,,,,,,,,,,,,,,,,,,,,,,,,,,,,,,,,,,,,,,,,,,,,,,,,,,,,,,,,,,,,,,,,,,,,,,,,,,,,,,,,
,,,,,,5b4b8f509c7a6000017ae54f,62bbf973c8656b5829d45d38,2022-06-29_09h04.31.109,Colour_Asymmetry_Pilot,2022.1.3,Win32,58.910162,62bbe60bf3d75ef465d3e404,0,52,52,68,1,threeone,,,,,,,,,,,,,,,,,,,,,,,,,,,,,,,,,,,,,,,,,,,,,,,,,,,,,,,,,,,,,,,,,,,,,,,,,,,,,,,,,,,,,,,,,,,,,,,,,,,,,,,,,,,,,,,,,,,,,,,,,,,,,,,,,,,,,,,,,,,,,,,,,,,,,,,,
,,,,,,5b4b8f509c7a6000017ae54f,62bbf973c8656b5829d45d38,2022-06-29_09h04.31.109,Colour_Asymmetry_Pilot,2022.1.3,Win32,58.910162,62bbe60bf3d75ef465d3e404,0,53,53,121,1,onethree,,,,,,,,,,,,,,,,,,,,,,,,,,,,,,,,,,,,,,,,,,,,,,,,,,,,,,,,,,,,,,,,,,,,,,,,,,,,,,,,,,,,,,,,,,,,,,,,,,,,,,,,,,,,,,,,,,,,,,,,,,,,,,,,,,,,,,,,,,,,,,,,,,,,,,,,
,,,,,,5b4b8f509c7a6000017ae54f,62bbf973c8656b5829d45d38,2022-06-29_09h04.31.109,Colour_Asymmetry_Pilot,2022.1.3,Win32,58.910162,62bbe60bf3d75ef465d3e404,0,54,54,124,1,threeone,,,,,,,,,,,,,,,,,,,,,,,,,,,,,,,,,,,,,,,,,,,,,,,,,,,,,,,,,,,,,,,,,,,,,,,,,,,,,,,,,,,,,,,,,,,,,,,,,,,,,,,,,,,,,,,,,,,,,,,,,,,,,,,,,,,,,,,,,,,,,,,,,,,,,,,,
,,,,,,5b4b8f509c7a6000017ae54f,62bbf973c8656b5829d45d38,2022-06-29_09h04.31.109,Colour_Asymmetry_Pilot,2022.1.3,Win32,58.910162,62bbe60bf3d75ef465d3e404,0,55,55,5,1,threefour,,,,,,,,,,,,,,,,,,,,,,,,,,,,,,,,,,,,,,,,,,,,,,,,,,,,,,,,,,,,,,,,,,,,,,,,,,,,,,,,,,,,,,,,,,,,,,,,,,,,,,,,,,,,,,,,,,,,,,,,,,,,,,,,,,,,,,,,,,,,,,,,,,,,,,,,
,,,,,,5b4b8f509c7a6000017ae54f,62bbf973c8656b5829d45d38,2022-06-29_09h04.31.109,Colour_Asymmetry_Pilot,2022.1.3,Win32,58.910162,62bbe60bf3d75ef465d3e404,0,56,56,53,1,threefour,,,,,,,,,,,,,,,,,,,,,,,,,,,,,,,,,,,,,,,,,,,,,,,,,,,,,,,,,,,,,,,,,,,,,,,,,,,,,,,,,,,,,,,,,,,,,,,,,,,,,,,,,,,,,,,,,,,,,,,,,,,,,,,,,,,,,,,,,,,,,,,,,,,,,,,,
,,,,,,5b4b8f509c7a6000017ae54f,62bbf973c8656b5829d45d38,2022-06-29_09h04.31.109,Colour_Asymmetry_Pilot,2022.1.3,Win32,58.910162,62bbe60bf3d75ef465d3e404,0,57,57,137,1,onethree,,,,,,,,,,,,,,,,,,,,,,,,,,,,,,,,,,,,,,,,,,,,,,,,,,,,,,,,,,,,,,,,,,,,,,,,,,,,,,,,,,,,,,,,,,,,,,,,,,,,,,,,,,,,,,,,,,,,,,,,,,,,,,,,,,,,,,,,,,,,,,,,,,,,,,,,
,,,,,,5b4b8f509c7a6000017ae54f,62bbf973c8656b5829d45d38,2022-06-29_09h04.31.109,Colour_Asymmetry_Pilot,2022.1.3,Win32,58.910162,62bbe60bf3d75ef465d3e404,0,58,58,80,1,onetwo,,,,,,,,,,,,,,,,,,,,,,,,,,,,,,,,,,,,,,,,,,,,,,,,,,,,,,,,,,,,,,,,,,,,,,,,,,,,,,,,,,,,,,,,,,,,,,,,,,,,,,,,,,,,,,,,,,,,,,,,,,,,,,,,,,,,,,,,,,,,,,,,,,,,,,,,
,,,,,,5b4b8f509c7a6000017ae54f,62bbf973c8656b5829d45d38,2022-06-29_09h04.31.109,Colour_Asymmetry_Pilot,2022.1.3,Win32,58.910162,62bbe60bf3d75ef465d3e404,0,59,59,160,1,onetwo,,,,,,,,,,,,,,,,,,,,,,,,,,,,,,,,,,,,,,,,,,,,,,,,,,,,,,,,,,,,,,,,,,,,,,,,,,,,,,,,,,,,,,,,,,,,,,,,,,,,,,,,,,,,,,,,,,,,,,,,,,,,,,,,,,,,,,,,,,,,,,,,,,,,,,,,
,,,,,,5b4b8f509c7a6000017ae54f,62bbf973c8656b5829d45d38,2022-06-29_09h04.31.109,Colour_Asymmetry_Pilot,2022.1.3,Win32,58.910162,62bbe60bf3d75ef465d3e404,0,60,60,78,1,fourtwo,,,,,,,,,,,,,,,,,,,,,,,,,,,,,,,,,,,,,,,,,,,,,,,,,,,,,,,,,,,,,,,,,,,,,,,,,,,,,,,,,,,,,,,,,,,,,,,,,,,,,,,,,,,,,,,,,,,,,,,,,,,,,,,,,,,,,,,,,,,,,,,,,,,,,,,,
,,,,,,5b4b8f509c7a6000017ae54f,62bbf973c8656b5829d45d38,2022-06-29_09h04.31.109,Colour_Asymmetry_Pilot,2022.1.3,Win32,58.910162,62bbe60bf3d75ef465d3e404,0,61,61,82,1,twoone,,,,,,,,,,,,,,,,,,,,,,,,,,,,,,,,,,,,,,,,,,,,,,,,,,,,,,,,,,,,,,,,,,,,,,,,,,,,,,,,,,,,,,,,,,,,,,,,,,,,,,,,,,,,,,,,,,,,,,,,,,,,,,,,,,,,,,,,,,,,,,,,,,,,,,,,
,,,,,,5b4b8f509c7a6000017ae54f,62bbf973c8656b5829d45d38,2022-06-29_09h04.31.109,Colour_Asymmetry_Pilot,2022.1.3,Win32,58.910162,62bbe60bf3d75ef465d3e404,0,62,62,89,1,onethree,,,,,,,,,,,,,,,,,,,,,,,,,,,,,,,,,,,,,,,,,,,,,,,,,,,,,,,,,,,,,,,,,,,,,,,,,,,,,,,,,,,,,,,,,,,,,,,,,,,,,,,,,,,,,,,,,,,,,,,,,,,,,,,,,,,,,,,,,,,,,,,,,,,,,,,,
,,,,,,5b4b8f509c7a6000017ae54f,62bbf973c8656b5829d45d38,2022-06-29_09h04.31.109,Colour_Asymmetry_Pilot,2022.1.3,Win32,58.910162,62bbe60bf3d75ef465d3e404,0,63,63,128,1,onetwo,,,,,,,,,,,,,,,,,,,,,,,,,,,,,,,,,,,,,,,,,,,,,,,,,,,,,,,,,,,,,,,,,,,,,,,,,,,,,,,,,,,,,,,,,,,,,,,,,,,,,,,,,,,,,,,,,,,,,,,,,,,,,,,,,,,,,,,,,,,,,,,,,,,,,,,,
,,,,,,5b4b8f509c7a6000017ae54f,62bbf973c8656b5829d45d38,2022-06-29_09h04.31.109,Colour_Asymmetry_Pilot,2022.1.3,Win32,58.910162,62bbe60bf3d75ef465d3e404,0,64,64,62,1,fourtwo,,,,,,,,,,,,,,,,,,,,,,,,,,,,,,,,,,,,,,,,,,,,,,,,,,,,,,,,,,,,,,,,,,,,,,,,,,,,,,,,,,,,,,,,,,,,,,,,,,,,,,,,,,,,,,,,,,,,,,,,,,,,,,,,,,,,,,,,,,,,,,,,,,,,,,,,
,,,,,,5b4b8f509c7a6000017ae54f,62bbf973c8656b5829d45d38,2022-06-29_09h04.31.109,Colour_Asymmetry_Pilot,2022.1.3,Win32,58.910162,62bbe60bf3d75ef465d3e404,0,65,65,161,1,onethree,,,,,,,,,,,,,,,,,,,,,,,,,,,,,,,,,,,,,,,,,,,,,,,,,,,,,,,,,,,,,,,,,,,,,,,,,,,,,,,,,,,,,,,,,,,,,,,,,,,,,,,,,,,,,,,,,,,,,,,,,,,,,,,,,,,,,,,,,,,,,,,,,,,,,,,,
,,,,,,5b4b8f509c7a6000017ae54f,62bbf973c8656b5829d45d38,2022-06-29_09h04.31.109,Colour_Asymmetry_Pilot,2022.1.3,Win32,58.910162,62bbe60bf3d75ef465d3e404,0,66,66,142,1,fourtwo,,,,,,,,,,,,,,,,,,,,,,,,,,,,,,,,,,,,,,,,,,,,,,,,,,,,,,,,,,,,,,,,,,,,,,,,,,,,,,,,,,,,,,,,,,,,,,,,,,,,,,,,,,,,,,,,,,,,,,,,,,,,,,,,,,,,,,,,,,,,,,,,,,,,,,,,
,,,,,,5b4b8f509c7a6000017ae54f,62bbf973c8656b5829d45d38,2022-06-29_09h04.31.109,Colour_Asymmetry_Pilot,2022.1.3,Win32,58.910162,62bbe60bf3d75ef465d3e404,0,67,67,67,1,twofour,,,,,,,,,,,,,,,,,,,,,,,,,,,,,,,,,,,,,,,,,,,,,,,,,,,,,,,,,,,,,,,,,,,,,,,,,,,,,,,,,,,,,,,,,,,,,,,,,,,,,,,,,,,,,,,,,,,,,,,,,,,,,,,,,,,,,,,,,,,,,,,,,,,,,,,,
,,,,,,5b4b8f509c7a6000017ae54f,62bbf973c8656b5829d45d38,2022-06-29_09h04.31.109,Colour_Asymmetry_Pilot,2022.1.3,Win32,58.910162,62bbe60bf3d75ef465d3e404,0,68,68,74,1,twoone,,,,,,,,,,,,,,,,,,,,,,,,,,,,,,,,,,,,,,,,,,,,,,,,,,,,,,,,,,,,,,,,,,,,,,,,,,,,,,,,,,,,,,,,,,,,,,,,,,,,,,,,,,,,,,,,,,,,,,,,,,,,,,,,,,,,,,,,,,,,,,,,,,,,,,,,
,,,,,,5b4b8f509c7a6000017ae54f,62bbf973c8656b5829d45d38,2022-06-29_09h04.31.109,Colour_Asymmetry_Pilot,2022.1.3,Win32,58.910162,62bbe60bf3d75ef465d3e404,0,69,69,144,1,onetwo,,,,,,,,,,,,,,,,,,,,,,,,,,,,,,,,,,,,,,,,,,,,,,,,,,,,,,,,,,,,,,,,,,,,,,,,,,,,,,,,,,,,,,,,,,,,,,,,,,,,,,,,,,,,,,,,,,,,,,,,,,,,,,,,,,,,,,,,,,,,,,,,,,,,,,,,
,,,,,,5b4b8f509c7a6000017ae54f,62bbf973c8656b5829d45d38,2022-06-29_09h04.31.109,Colour_Asymmetry_Pilot,2022.1.3,Win32,58.910162,62bbe60bf3d75ef465d3e404,0,70,70,71,1,fourthree,,,,,,,,,,,,,,,,,,,,,,,,,,,,,,,,,,,,,,,,,,,,,,,,,,,,,,,,,,,,,,,,,,,,,,,,,,,,,,,,,,,,,,,,,,,,,,,,,,,,,,,,,,,,,,,,,,,,,,,,,,,,,,,,,,,,,,,,,,,,,,,,,,,,,,,,
,,,,,,5b4b8f509c7a6000017ae54f,62bbf973c8656b5829d45d38,2022-06-29_09h04.31.109,Colour_Asymmetry_Pilot,2022.1.3,Win32,58.910162,62bbe60bf3d75ef465d3e404,0,71,71,20,1,threeone,,,,,,,,,,,,,,,,,,,,,,,,,,,,,,,,,,,,,,,,,,,,,,,,,,,,,,,,,,,,,,,,,,,,,,,,,,,,,,,,,,,,,,,,,,,,,,,,,,,,,,,,,,,,,,,,,,,,,,,,,,,,,,,,,,,,,,,,,,,,,,,,,,,,,,,,
,,,,,,5b4b8f509c7a6000017ae54f,62bbf973c8656b5829d45d38,2022-06-29_09h04.31.109,Colour_Asymmetry_Pilot,2022.1.3,Win32,58.910162,62bbe60bf3d75ef465d3e404,0,72,72,21,1,threefour,,,,,,,,,,,,,,,,,,,,,,,,,,,,,,,,,,,,,,,,,,,,,,,,,,,,,,,,,,,,,,,,,,,,,,,,,,,,,,,,,,,,,,,,,,,,,,,,,,,,,,,,,,,,,,,,,,,,,,,,,,,,,,,,,,,,,,,,,,,,,,,,,,,,,,,,
,,,,,,5b4b8f509c7a6000017ae54f,62bbf973c8656b5829d45d38,2022-06-29_09h04.31.109,Colour_Asymmetry_Pilot,2022.1.3,Win32,58.910162,62bbe60bf3d75ef465d3e404,0,73,73,150,1,fourtwo,,,,,,,,,,,,,,,,,,,,,,,,,,,,,,,,,,,,,,,,,,,,,,,,,,,,,,,,,,,,,,,,,,,,,,,,,,,,,,,,,,,,,,,,,,,,,,,,,,,,,,,,,,,,,,,,,,,,,,,,,,,,,,,,,,,,,,,,,,,,,,,,,,,,,,,,
,,,,,,5b4b8f509c7a6000017ae54f,62bbf973c8656b5829d45d38,2022-06-29_09h04.31.109,Colour_Asymmetry_Pilot,2022.1.3,Win32,58.910162,62bbe60bf3d75ef465d3e404,0,74,74,57,1,onethree,,,,,,,,,,,,,,,,,,,,,,,,,,,,,,,,,,,,,,,,,,,,,,,,,,,,,,,,,,,,,,,,,,,,,,,,,,,,,,,,,,,,,,,,,,,,,,,,,,,,,,,,,,,,,,,,,,,,,,,,,,,,,,,,,,,,,,,,,,,,,,,,,,,,,,,,
,,,,,,5b4b8f509c7a6000017ae54f,62bbf973c8656b5829d45d38,2022-06-29_09h04.31.109,Colour_Asymmetry_Pilot,2022.1.3,Win32,58.910162,62bbe60bf3d75ef465d3e404,0,75,75,87,1,fourthree,,,,,,,,,,,,,,,,,,,,,,,,,,,,,,,,,,,,,,,,,,,,,,,,,,,,,,,,,,,,,,,,,,,,,,,,,,,,,,,,,,,,,,,,,,,,,,,,,,,,,,,,,,,,,,,,,,,,,,,,,,,,,,,,,,,,,,,,,,,,,,,,,,,,,,,,
,,,,,,5b4b8f509c7a6000017ae54f,62bbf973c8656b5829d45d38,2022-06-29_09h04.31.109,Colour_Asymmetry_Pilot,2022.1.3,Win32,58.910162,62bbe60bf3d75ef465d3e404,0,76,76,147,1,twofour,,,,,,,,,,,,,,,,,,,,,,,,,,,,,,,,,,,,,,,,,,,,,,,,,,,,,,,,,,,,,,,,,,,,,,,,,,,,,,,,,,,,,,,,,,,,,,,,,,,,,,,,,,,,,,,,,,,,,,,,,,,,,,,,,,,,,,,,,,,,,,,,,,,,,,,,
,,,,,,5b4b8f509c7a6000017ae54f,62bbf973c8656b5829d45d38,2022-06-29_09h04.31.109,Colour_Asymmetry_Pilot,2022.1.3,Win32,58.910162,62bbe60bf3d75ef465d3e404,0,77,77,148,1,threeone,,,,,,,,,,,,,,,,,,,,,,,,,,,,,,,,,,,,,,,,,,,,,,,,,,,,,,,,,,,,,,,,,,,,,,,,,,,,,,,,,,,,,,,,,,,,,,,,,,,,,,,,,,,,,,,,,,,,,,,,,,,,,,,,,,,,,,,,,,,,,,,,,,,,,,,,
,,,,,,5b4b8f509c7a6000017ae54f,62bbf973c8656b5829d45d38,2022-06-29_09h04.31.109,Colour_Asymmetry_Pilot,2022.1.3,Win32,58.910162,62bbe60bf3d75ef465d3e404,0,78,78,69,1,threefour,,,,,,,,,,,,,,,,,,,,,,,,,,,,,,,,,,,,,,,,,,,,,,,,,,,,,,,,,,,,,,,,,,,,,,,,,,,,,,,,,,,,,,,,,,,,,,,,,,,,,,,,,,,,,,,,,,,,,,,,,,,,,,,,,,,,,,,,,,,,,,,,,,,,,,,,
,,,,,,5b4b8f509c7a6000017ae54f,62bbf973c8656b5829d45d38,2022-06-29_09h04.31.109,Colour_Asymmetry_Pilot,2022.1.3,Win32,58.910162,62bbe60bf3d75ef465d3e404,0,79,79,151,1,fourthree,,,,,,,,,,,,,,,,,,,,,,,,,,,,,,,,,,,,,,,,,,,,,,,,,,,,,,,,,,,,,,,,,,,,,,,,,,,,,,,,,,,,,,,,,,,,,,,,,,,,,,,,,,,,,,,,,,,,,,,,,,,,,,,,,,,,,,,,,,,,,,,,,,,,,,,,
,,,,,,5b4b8f509c7a6000017ae54f,62bbf973c8656b5829d45d38,2022-06-29_09h04.31.109,Colour_Asymmetry_Pilot,2022.1.3,Win32,58.910162,62bbe60bf3d75ef465d3e404,0,80,80,101,1,threefour,,,,,,,,,,,,,,,,,,,,,,,,,,,,,,,,,,,,,,,,,,,,,,,,,,,,,,,,,,,,,,,,,,,,,,,,,,,,,,,,,,,,,,,,,,,,,,,,,,,,,,,,,,,,,,,,,,,,,,,,,,,,,,,,,,,,,,,,,,,,,,,,,,,,,,,,
,,,,,,5b4b8f509c7a6000017ae54f,62bbf973c8656b5829d45d38,2022-06-29_09h04.31.109,Colour_Asymmetry_Pilot,2022.1.3,Win32,58.910162,62bbe60bf3d75ef465d3e404,0,81,81,90,1,twoone,,,,,,,,,,,,,,,,,,,,,,,,,,,,,,,,,,,,,,,,,,,,,,,,,,,,,,,,,,,,,,,,,,,,,,,,,,,,,,,,,,,,,,,,,,,,,,,,,,,,,,,,,,,,,,,,,,,,,,,,,,,,,,,,,,,,,,,,,,,,,,,,,,,,,,,,
,,,,,,5b4b8f509c7a6000017ae54f,62bbf973c8656b5829d45d38,2022-06-29_09h04.31.109,Colour_Asymmetry_Pilot,2022.1.3,Win32,58.910162,62bbe60bf3d75ef465d3e404,0,82,82,64,1,onetwo,,,,,,,,,,,,,,,,,,,,,,,,,,,,,,,,,,,,,,,,,,,,,,,,,,,,,,,,,,,,,,,,,,,,,,,,,,,,,,,,,,,,,,,,,,,,,,,,,,,,,,,,,,,,,,,,,,,,,,,,,,,,,,,,,,,,,,,,,,,,,,,,,,,,,,,,
,,,,,,5b4b8f509c7a6000017ae54f,62bbf973c8656b5829d45d38,2022-06-29_09h04.31.109,Colour_Asymmetry_Pilot,2022.1.3,Win32,58.910162,62bbe60bf3d75ef465d3e404,0,83,83,93,1,threefour,,,,,,,,,,,,,,,,,,,,,,,,,,,,,,,,,,,,,,,,,,,,,,,,,,,,,,,,,,,,,,,,,,,,,,,,,,,,,,,,,,,,,,,,,,,,,,,,,,,,,,,,,,,,,,,,,,,,,,,,,,,,,,,,,,,,,,,,,,,,,,,,,,,,,,,,
,,,,,,5b4b8f509c7a6000017ae54f,62bbf973c8656b5829d45d38,2022-06-29_09h04.31.109,Colour_Asymmetry_Pilot,2022.1.3,Win32,58.910162,62bbe60bf3d75ef465d3e404,0,84,84,114,1,twoone,,,,,,,,,,,,,,,,,,,,,,,,,,,,,,,,,,,,,,,,,,,,,,,,,,,,,,,,,,,,,,,,,,,,,,,,,,,,,,,,,,,,,,,,,,,,,,,,,,,,,,,,,,,,,,,,,,,,,,,,,,,,,,,,,,,,,,,,,,,,,,,,,,,,,,,,
,,,,,,5b4b8f509c7a6000017ae54f,62bbf973c8656b5829d45d38,2022-06-29_09h04.31.109,Colour_Asymmetry_Pilot,2022.1.3,Win32,58.910162,62bbe60bf3d75ef465d3e404,0,85,85,145,1,onethree,,,,,,,,,,,,,,,,,,,,,,,,,,,,,,,,,,,,,,,,,,,,,,,,,,,,,,,,,,,,,,,,,,,,,,,,,,,,,,,,,,,,,,,,,,,,,,,,,,,,,,,,,,,,,,,,,,,,,,,,,,,,,,,,,,,,,,,,,,,,,,,,,,,,,,,,
,,,,,,5b4b8f509c7a6000017ae54f,62bbf973c8656b5829d45d38,2022-06-29_09h04.31.109,Colour_Asymmetry_Pilot,2022.1.3,Win32,58.910162,62bbe60bf3d75ef465d3e404,0,86,86,8,1,onetwo,,,,,,,,,,,,,,,,,,,,,,,,,,,,,,,,,,,,,,,,,,,,,,,,,,,,,,,,,,,,,,,,,,,,,,,,,,,,,,,,,,,,,,,,,,,,,,,,,,,,,,,,,,,,,,,,,,,,,,,,,,,,,,,,,,,,,,,,,,,,,,,,,,,,,,,,
,,,,,,5b4b8f509c7a6000017ae54f,62bbf973c8656b5829d45d38,2022-06-29_09h04.31.109,Colour_Asymmetry_Pilot,2022.1.3,Win32,58.910162,62bbe60bf3d75ef465d3e404,0,87,87,132,1,threeone,,,,,,,,,,,,,,,,,,,,,,,,,,,,,,,,,,,,,,,,,,,,,,,,,,,,,,,,,,,,,,,,,,,,,,,,,,,,,,,,,,,,,,,,,,,,,,,,,,,,,,,,,,,,,,,,,,,,,,,,,,,,,,,,,,,,,,,,,,,,,,,,,,,,,,,,
,,,,,,5b4b8f509c7a6000017ae54f,62bbf973c8656b5829d45d38,2022-06-29_09h04.31.109,Colour_Asymmetry_Pilot,2022.1.3,Win32,58.910162,62bbe60bf3d75ef465d3e404,0,88,88,50,1,twoone,,,,,,,,,,,,,,,,,,,,,,,,,,,,,,,,,,,,,,,,,,,,,,,,,,,,,,,,,,,,,,,,,,,,,,,,,,,,,,,,,,,,,,,,,,,,,,,,,,,,,,,,,,,,,,,,,,,,,,,,,,,,,,,,,,,,,,,,,,,,,,,,,,,,,,,,
,,,,,,5b4b8f509c7a6000017ae54f,62bbf973c8656b5829d45d38,2022-06-29_09h04.31.109,Colour_Asymmetry_Pilot,2022.1.3,Win32,58.910162,62bbe60bf3d75ef465d3e404,0,89,89,156,1,threeone,,,,,,,,,,,,,,,,,,,,,,,,,,,,,,,,,,,,,,,,,,,,,,,,,,,,,,,,,,,,,,,,,,,,,,,,,,,,,,,,,,,,,,,,,,,,,,,,,,,,,,,,,,,,,,,,,,,,,,,,,,,,,,,,,,,,,,,,,,,,,,,,,,,,,,,,
,,,,,,5b4b8f509c7a6000017ae54f,62bbf973c8656b5829d45d38,2022-06-29_09h04.31.109,Colour_Asymmetry_Pilot,2022.1.3,Win32,58.910162,62bbe60bf3d75ef465d3e404,0,90,90,60,1,threeone,,,,,,,,,,,,,,,,,,,,,,,,,,,,,,,,,,,,,,,,,,,,,,,,,,,,,,,,,,,,,,,,,,,,,,,,,,,,,,,,,,,,,,,,,,,,,,,,,,,,,,,,,,,,,,,,,,,,,,,,,,,,,,,,,,,,,,,,,,,,,,,,,,,,,,,,
,,,,,,5b4b8f509c7a6000017ae54f,62bbf973c8656b5829d45d38,2022-06-29_09h04.31.109,Colour_Asymmetry_Pilot,2022.1.3,Win32,58.910162,62bbe60bf3d75ef465d3e404,0,91,91,123,1,twofour,,,,,,,,,,,,,,,,,,,,,,,,,,,,,,,,,,,,,,,,,,,,,,,,,,,,,,,,,,,,,,,,,,,,,,,,,,,,,,,,,,,,,,,,,,,,,,,,,,,,,,,,,,,,,,,,,,,,,,,,,,,,,,,,,,,,,,,,,,,,,,,,,,,,,,,,
,,,,,,5b4b8f509c7a6000017ae54f,62bbf973c8656b5829d45d38,2022-06-29_09h04.31.109,Colour_Asymmetry_Pilot,2022.1.3,Win32,58.910162,62bbe60bf3d75ef465d3e404,0,92,92,28,1,threeone,,,,,,,,,,,,,,,,,,,,,,,,,,,,,,,,,,,,,,,,,,,,,,,,,,,,,,,,,,,,,,,,,,,,,,,,,,,,,,,,,,,,,,,,,,,,,,,,,,,,,,,,,,,,,,,,,,,,,,,,,,,,,,,,,,,,,,,,,,,,,,,,,,,,,,,,
,,,,,,5b4b8f509c7a6000017ae54f,62bbf973c8656b5829d45d38,2022-06-29_09h04.31.109,Colour_Asymmetry_Pilot,2022.1.3,Win32,58.910162,62bbe60bf3d75ef465d3e404,0,93,93,106,1,twoone,,,,,,,,,,,,,,,,,,,,,,,,,,,,,,,,,,,,,,,,,,,,,,,,,,,,,,,,,,,,,,,,,,,,,,,,,,,,,,,,,,,,,,,,,,,,,,,,,,,,,,,,,,,,,,,,,,,,,,,,,,,,,,,,,,,,,,,,,,,,,,,,,,,,,,,,
,,,,,,5b4b8f509c7a6000017ae54f,62bbf973c8656b5829d45d38,2022-06-29_09h04.31.109,Colour_Asymmetry_Pilot,2022.1.3,Win32,58.910162,62bbe60bf3d75ef465d3e404,0,94,94,3,1,twofour,,,,,,,,,,,,,,,,,,,,,,,,,,,,,,,,,,,,,,,,,,,,,,,,,,,,,,,,,,,,,,,,,,,,,,,,,,,,,,,,,,,,,,,,,,,,,,,,,,,,,,,,,,,,,,,,,,,,,,,,,,,,,,,,,,,,,,,,,,,,,,,,,,,,,,,,
,,,,,,5b4b8f509c7a6000017ae54f,62bbf973c8656b5829d45d38,2022-06-29_09h04.31.109,Colour_Asymmetry_Pilot,2022.1.3,Win32,58.910162,62bbe60bf3d75ef465d3e404,0,95,95,127,1,fourthree,,,,,,,,,,,,,,,,,,,,,,,,,,,,,,,,,,,,,,,,,,,,,,,,,,,,,,,,,,,,,,,,,,,,,,,,,,,,,,,,,,,,,,,,,,,,,,,,,,,,,,,,,,,,,,,,,,,,,,,,,,,,,,,,,,,,,,,,,,,,,,,,,,,,,,,,
,,,,,,5b4b8f509c7a6000017ae54f,62bbf973c8656b5829d45d38,2022-06-29_09h04.31.109,Colour_Asymmetry_Pilot,2022.1.3,Win32,58.910162,62bbe60bf3d75ef465d3e404,0,96,96,111,1,fourthree,,,,,,,,,,,,,,,,,,,,,,,,,,,,,,,,,,,,,,,,,,,,,,,,,,,,,,,,,,,,,,,,,,,,,,,,,,,,,,,,,,,,,,,,,,,,,,,,,,,,,,,,,,,,,,,,,,,,,,,,,,,,,,,,,,,,,,,,,,,,,,,,,,,,,,,,
,,,,,,5b4b8f509c7a6000017ae54f,62bbf973c8656b5829d45d38,2022-06-29_09h04.31.109,Colour_Asymmetry_Pilot,2022.1.3,Win32,58.910162,62bbe60bf3d75ef465d3e404,0,97,97,9,1,onethree,,,,,,,,,,,,,,,,,,,,,,,,,,,,,,,,,,,,,,,,,,,,,,,,,,,,,,,,,,,,,,,,,,,,,,,,,,,,,,,,,,,,,,,,,,,,,,,,,,,,,,,,,,,,,,,,,,,,,,,,,,,,,,,,,,,,,,,,,,,,,,,,,,,,,,,,
,,,,,,5b4b8f509c7a6000017ae54f,62bbf973c8656b5829d45d38,2022-06-29_09h04.31.109,Colour_Asymmetry_Pilot,2022.1.3,Win32,58.910162,62bbe60bf3d75ef465d3e404,0,98,98,48,1,onetwo,,,,,,,,,,,,,,,,,,,,,,,,,,,,,,,,,,,,,,,,,,,,,,,,,,,,,,,,,,,,,,,,,,,,,,,,,,,,,,,,,,,,,,,,,,,,,,,,,,,,,,,,,,,,,,,,,,,,,,,,,,,,,,,,,,,,,,,,,,,,,,,,,,,,,,,,
,,,,,,5b4b8f509c7a6000017ae54f,62bbf973c8656b5829d45d38,2022-06-29_09h04.31.109,Colour_Asymmetry_Pilot,2022.1.3,Win32,58.910162,62bbe60bf3d75ef465d3e404,0,99,99,29,1,threefour,,,,,,,,,,,,,,,,,,,,,,,,,,,,,,,,,,,,,,,,,,,,,,,,,,,,,,,,,,,,,,,,,,,,,,,,,,,,,,,,,,,,,,,,,,,,,,,,,,,,,,,,,,,,,,,,,,,,,,,,,,,,,,,,,,,,,,,,,,,,,,,,,,,,,,,,
,,,,,,5b4b8f509c7a6000017ae54f,62bbf973c8656b5829d45d38,2022-06-29_09h04.31.109,Colour_Asymmetry_Pilot,2022.1.3,Win32,58.910162,62bbe60bf3d75ef465d3e404,0,100,100,113,1,onethree,,,,,,,,,,,,,,,,,,,,,,,,,,,,,,,,,,,,,,,,,,,,,,,,,,,,,,,,,,,,,,,,,,,,,,,,,,,,,,,,,,,,,,,,,,,,,,,,,,,,,,,,,,,,,,,,,,,,,,,,,,,,,,,,,,,,,,,,,,,,,,,,,,,,,,,,
,,,,,,5b4b8f509c7a6000017ae54f,62bbf973c8656b5829d45d38,2022-06-29_09h04.31.109,Colour_Asymmetry_Pilot,2022.1.3,Win32,58.910162,62bbe60bf3d75ef465d3e404,0,101,101,153,1,onethree,,,,,,,,,,,,,,,,,,,,,,,,,,,,,,,,,,,,,,,,,,,,,,,,,,,,,,,,,,,,,,,,,,,,,,,,,,,,,,,,,,,,,,,,,,,,,,,,,,,,,,,,,,,,,,,,,,,,,,,,,,,,,,,,,,,,,,,,,,,,,,,,,,,,,,,,
,,,,,,5b4b8f509c7a6000017ae54f,62bbf973c8656b5829d45d38,2022-06-29_09h04.31.109,Colour_Asymmetry_Pilot,2022.1.3,Win32,58.910162,62bbe60bf3d75ef465d3e404,0,102,102,159,1,fourthree,,,,,,,,,,,,,,,,,,,,,,,,,,,,,,,,,,,,,,,,,,,,,,,,,,,,,,,,,,,,,,,,,,,,,,,,,,,,,,,,,,,,,,,,,,,,,,,,,,,,,,,,,,,,,,,,,,,,,,,,,,,,,,,,,,,,,,,,,,,,,,,,,,,,,,,,
,,,,,,5b4b8f509c7a6000017ae54f,62bbf973c8656b5829d45d38,2022-06-29_09h04.31.109,Colour_Asymmetry_Pilot,2022.1.3,Win32,58.910162,62bbe60bf3d75ef465d3e404,0,103,103,58,1,twoone,,,,,,,,,,,,,,,,,,,,,,,,,,,,,,,,,,,,,,,,,,,,,,,,,,,,,,,,,,,,,,,,,,,,,,,,,,,,,,,,,,,,,,,,,,,,,,,,,,,,,,,,,,,,,,,,,,,,,,,,,,,,,,,,,,,,,,,,,,,,,,,,,,,,,,,,
,,,,,,5b4b8f509c7a6000017ae54f,62bbf973c8656b5829d45d38,2022-06-29_09h04.31.109,Colour_Asymmetry_Pilot,2022.1.3,Win32,58.910162,62bbe60bf3d75ef465d3e404,0,104,104,110,1,fourtwo,,,,,,,,,,,,,,,,,,,,,,,,,,,,,,,,,,,,,,,,,,,,,,,,,,,,,,,,,,,,,,,,,,,,,,,,,,,,,,,,,,,,,,,,,,,,,,,,,,,,,,,,,,,,,,,,,,,,,,,,,,,,,,,,,,,,,,,,,,,,,,,,,,,,,,,,
,,,,,,5b4b8f509c7a6000017ae54f,62bbf973c8656b5829d45d38,2022-06-29_09h04.31.109,Colour_Asymmetry_Pilot,2022.1.3,Win32,58.910162,62bbe60bf3d75ef465d3e404,0,105,105,56,1,onetwo,,,,,,,,,,,,,,,,,,,,,,,,,,,,,,,,,,,,,,,,,,,,,,,,,,,,,,,,,,,,,,,,,,,,,,,,,,,,,,,,,,,,,,,,,,,,,,,,,,,,,,,,,,,,,,,,,,,,,,,,,,,,,,,,,,,,,,,,,,,,,,,,,,,,,,,,
,,,,,,5b4b8f509c7a6000017ae54f,62bbf973c8656b5829d45d38,2022-06-29_09h04.31.109,Colour_Asymmetry_Pilot,2022.1.3,Win32,58.910162,62bbe60bf3d75ef465d3e404,0,106,106,138,1,twoone,,,,,,,,,,,,,,,,,,,,,,,,,,,,,,,,,,,,,,,,,,,,,,,,,,,,,,,,,,,,,,,,,,,,,,,,,,,,,,,,,,,,,,,,,,,,,,,,,,,,,,,,,,,,,,,,,,,,,,,,,,,,,,,,,,,,,,,,,,,,,,,,,,,,,,,,
,,,,,,5b4b8f509c7a6000017ae54f,62bbf973c8656b5829d45d38,2022-06-29_09h04.31.109,Colour_Asymmetry_Pilot,2022.1.3,Win32,58.910162,62bbe60bf3d75ef465d3e404,0,107,107,143,1,fourthree,,,,,,,,,,,,,,,,,,,,,,,,,,,,,,,,,,,,,,,,,,,,,,,,,,,,,,,,,,,,,,,,,,,,,,,,,,,,,,,,,,,,,,,,,,,,,,,,,,,,,,,,,,,,,,,,,,,,,,,,,,,,,,,,,,,,,,,,,,,,,,,,,,,,,,,,
,,,,,,5b4b8f509c7a6000017ae54f,62bbf973c8656b5829d45d38,2022-06-29_09h04.31.109,Colour_Asymmetry_Pilot,2022.1.3,Win32,58.910162,62bbe60bf3d75ef465d3e404,0,108,108,130,1,twoone,,,,,,,,,,,,,,,,,,,,,,,,,,,,,,,,,,,,,,,,,,,,,,,,,,,,,,,,,,,,,,,,,,,,,,,,,,,,,,,,,,,,,,,,,,,,,,,,,,,,,,,,,,,,,,,,,,,,,,,,,,,,,,,,,,,,,,,,,,,,,,,,,,,,,,,,
,,,,,,5b4b8f509c7a6000017ae54f,62bbf973c8656b5829d45d38,2022-06-29_09h04.31.109,Colour_Asymmetry_Pilot,2022.1.3,Win32,58.910162,62bbe60bf3d75ef465d3e404,0,109,109,49,1,onethree,,,,,,,,,,,,,,,,,,,,,,,,,,,,,,,,,,,,,,,,,,,,,,,,,,,,,,,,,,,,,,,,,,,,,,,,,,,,,,,,,,,,,,,,,,,,,,,,,,,,,,,,,,,,,,,,,,,,,,,,,,,,,,,,,,,,,,,,,,,,,,,,,,,,,,,,
,,,,,,5b4b8f509c7a6000017ae54f,62bbf973c8656b5829d45d38,2022-06-29_09h04.31.109,Colour_Asymmetry_Pilot,2022.1.3,Win32,58.910162,62bbe60bf3d75ef465d3e404,0,110,110,158,1,fourtwo,,,,,,,,,,,,,,,,,,,,,,,,,,,,,,,,,,,,,,,,,,,,,,,,,,,,,,,,,,,,,,,,,,,,,,,,,,,,,,,,,,,,,,,,,,,,,,,,,,,,,,,,,,,,,,,,,,,,,,,,,,,,,,,,,,,,,,,,,,,,,,,,,,,,,,,,
,,,,,,5b4b8f509c7a6000017ae54f,62bbf973c8656b5829d45d38,2022-06-29_09h04.31.109,Colour_Asymmetry_Pilot,2022.1.3,Win32,58.910162,62bbe60bf3d75ef465d3e404,0,111,111,24,1,onetwo,,,,,,,,,,,,,,,,,,,,,,,,,,,,,,,,,,,,,,,,,,,,,,,,,,,,,,,,,,,,,,,,,,,,,,,,,,,,,,,,,,,,,,,,,,,,,,,,,,,,,,,,,,,,,,,,,,,,,,,,,,,,,,,,,,,,,,,,,,,,,,,,,,,,,,,,
,,,,,,5b4b8f509c7a6000017ae54f,62bbf973c8656b5829d45d38,2022-06-29_09h04.31.109,Colour_Asymmetry_Pilot,2022.1.3,Win32,58.910162,62bbe60bf3d75ef465d3e404,0,112,112,96,1,onetwo,,,,,,,,,,,,,,,,,,,,,,,,,,,,,,,,,,,,,,,,,,,,,,,,,,,,,,,,,,,,,,,,,,,,,,,,,,,,,,,,,,,,,,,,,,,,,,,,,,,,,,,,,,,,,,,,,,,,,,,,,,,,,,,,,,,,,,,,,,,,,,,,,,,,,,,,
,,,,,,5b4b8f509c7a6000017ae54f,62bbf973c8656b5829d45d38,2022-06-29_09h04.31.109,Colour_Asymmetry_Pilot,2022.1.3,Win32,58.910162,62bbe60bf3d75ef465d3e404,0,113,113,95,1,fourthree,,,,,,,,,,,,,,,,,,,,,,,,,,,,,,,,,,,,,,,,,,,,,,,,,,,,,,,,,,,,,,,,,,,,,,,,,,,,,,,,,,,,,,,,,,,,,,,,,,,,,,,,,,,,,,,,,,,,,,,,,,,,,,,,,,,,,,,,,,,,,,,,,,,,,,,,
,,,,,,5b4b8f509c7a6000017ae54f,62bbf973c8656b5829d45d38,2022-06-29_09h04.31.109,Colour_Asymmetry_Pilot,2022.1.3,Win32,58.910162,62bbe60bf3d75ef465d3e404,0,114,114,32,1,onetwo,,,,,,,,,,,,,,,,,,,,,,,,,,,,,,,,,,,,,,,,,,,,,,,,,,,,,,,,,,,,,,,,,,,,,,,,,,,,,,,,,,,,,,,,,,,,,,,,,,,,,,,,,,,,,,,,,,,,,,,,,,,,,,,,,,,,,,,,,,,,,,,,,,,,,,,,
,,,,,,5b4b8f509c7a6000017ae54f,62bbf973c8656b5829d45d38,2022-06-29_09h04.31.109,Colour_Asymmetry_Pilot,2022.1.3,Win32,58.910162,62bbe60bf3d75ef465d3e404,0,115,115,16,1,onetwo,,,,,,,,,,,,,,,,,,,,,,,,,,,,,,,,,,,,,,,,,,,,,,,,,,,,,,,,,,,,,,,,,,,,,,,,,,,,,,,,,,,,,,,,,,,,,,,,,,,,,,,,,,,,,,,,,,,,,,,,,,,,,,,,,,,,,,,,,,,,,,,,,,,,,,,,
,,,,,,5b4b8f509c7a6000017ae54f,62bbf973c8656b5829d45d38,2022-06-29_09h04.31.109,Colour_Asymmetry_Pilot,2022.1.3,Win32,58.910162,62bbe60bf3d75ef465d3e404,0,116,116,35,1,twofour,,,,,,,,,,,,,,,,,,,,,,,,,,,,,,,,,,,,,,,,,,,,,,,,,,,,,,,,,,,,,,,,,,,,,,,,,,,,,,,,,,,,,,,,,,,,,,,,,,,,,,,,,,,,,,,,,,,,,,,,,,,,,,,,,,,,,,,,,,,,,,,,,,,,,,,,
,,,,,,5b4b8f509c7a6000017ae54f,62bbf973c8656b5829d45d38,2022-06-29_09h04.31.109,Colour_Asymmetry_Pilot,2022.1.3,Win32,58.910162,62bbe60bf3d75ef465d3e404,0,117,117,43,1,twofour,,,,,,,,,,,,,,,,,,,,,,,,,,,,,,,,,,,,,,,,,,,,,,,,,,,,,,,,,,,,,,,,,,,,,,,,,,,,,,,,,,,,,,,,,,,,,,,,,,,,,,,,,,,,,,,,,,,,,,,,,,,,,,,,,,,,,,,,,,,,,,,,,,,,,,,,
,,,,,,5b4b8f509c7a6000017ae54f,62bbf973c8656b5829d45d38,2022-06-29_09h04.31.109,Colour_Asymmetry_Pilot,2022.1.3,Win32,58.910162,62bbe60bf3d75ef465d3e404,0,118,118,41,1,onethree,,,,,,,,,,,,,,,,,,,,,,,,,,,,,,,,,,,,,,,,,,,,,,,,,,,,,,,,,,,,,,,,,,,,,,,,,,,,,,,,,,,,,,,,,,,,,,,,,,,,,,,,,,,,,,,,,,,,,,,,,,,,,,,,,,,,,,,,,,,,,,,,,,,,,,,,
,,,,,,5b4b8f509c7a6000017ae54f,62bbf973c8656b5829d45d38,2022-06-29_09h04.31.109,Colour_Asymmetry_Pilot,2022.1.3,Win32,58.910162,62bbe60bf3d75ef465d3e404,0,119,119,116,1,threeone,,,,,,,,,,,,,,,,,,,,,,,,,,,,,,,,,,,,,,,,,,,,,,,,,,,,,,,,,,,,,,,,,,,,,,,,,,,,,,,,,,,,,,,,,,,,,,,,,,,,,,,,,,,,,,,,,,,,,,,,,,,,,,,,,,,,,,,,,,,,,,,,,,,,,,,,
,,,,,,5b4b8f509c7a6000017ae54f,62bbf973c8656b5829d45d38,2022-06-29_09h04.31.109,Colour_Asymmetry_Pilot,2022.1.3,Win32,58.910162,62bbe60bf3d75ef465d3e404,0,120,120,18,1,twoone,,,,,,,,,,,,,,,,,,,,,,,,,,,,,,,,,,,,,,,,,,,,,,,,,,,,,,,,,,,,,,,,,,,,,,,,,,,,,,,,,,,,,,,,,,,,,,,,,,,,,,,,,,,,,,,,,,,,,,,,,,,,,,,,,,,,,,,,,,,,,,,,,,,,,,,,
,,,,,,5b4b8f509c7a6000017ae54f,62bbf973c8656b5829d45d38,2022-06-29_09h04.31.109,Colour_Asymmetry_Pilot,2022.1.3,Win32,58.910162,62bbe60bf3d75ef465d3e404,0,121,121,112,1,onetwo,,,,,,,,,,,,,,,,,,,,,,,,,,,,,,,,,,,,,,,,,,,,,,,,,,,,,,,,,,,,,,,,,,,,,,,,,,,,,,,,,,,,,,,,,,,,,,,,,,,,,,,,,,,,,,,,,,,,,,,,,,,,,,,,,,,,,,,,,,,,,,,,,,,,,,,,
,,,,,,5b4b8f509c7a6000017ae54f,62bbf973c8656b5829d45d38,2022-06-29_09h04.31.109,Colour_Asymmetry_Pilot,2022.1.3,Win32,58.910162,62bbe60bf3d75ef465d3e404,0,122,122,26,1,twoone,,,,,,,,,,,,,,,,,,,,,,,,,,,,,,,,,,,,,,,,,,,,,,,,,,,,,,,,,,,,,,,,,,,,,,,,,,,,,,,,,,,,,,,,,,,,,,,,,,,,,,,,,,,,,,,,,,,,,,,,,,,,,,,,,,,,,,,,,,,,,,,,,,,,,,,,
,,,,,,5b4b8f509c7a6000017ae54f,62bbf973c8656b5829d45d38,2022-06-29_09h04.31.109,Colour_Asymmetry_Pilot,2022.1.3,Win32,58.910162,62bbe60bf3d75ef465d3e404,0,123,123,103,1,fourthree,,,,,,,,,,,,,,,,,,,,,,,,,,,,,,,,,,,,,,,,,,,,,,,,,,,,,,,,,,,,,,,,,,,,,,,,,,,,,,,,,,,,,,,,,,,,,,,,,,,,,,,,,,,,,,,,,,,,,,,,,,,,,,,,,,,,,,,,,,,,,,,,,,,,,,,,
,,,,,,5b4b8f509c7a6000017ae54f,62bbf973c8656b5829d45d38,2022-06-29_09h04.31.109,Colour_Asymmetry_Pilot,2022.1.3,Win32,58.910162,62bbe60bf3d75ef465d3e404,0,124,124,134,1,fourtwo,,,,,,,,,,,,,,,,,,,,,,,,,,,,,,,,,,,,,,,,,,,,,,,,,,,,,,,,,,,,,,,,,,,,,,,,,,,,,,,,,,,,,,,,,,,,,,,,,,,,,,,,,,,,,,,,,,,,,,,,,,,,,,,,,,,,,,,,,,,,,,,,,,,,,,,,
,,,,,,5b4b8f509c7a6000017ae54f,62bbf973c8656b5829d45d38,2022-06-29_09h04.31.109,Colour_Asymmetry_Pilot,2022.1.3,Win32,58.910162,62bbe60bf3d75ef465d3e404,0,125,125,11,1,twofour,,,,,,,,,,,,,,,,,,,,,,,,,,,,,,,,,,,,,,,,,,,,,,,,,,,,,,,,,,,,,,,,,,,,,,,,,,,,,,,,,,,,,,,,,,,,,,,,,,,,,,,,,,,,,,,,,,,,,,,,,,,,,,,,,,,,,,,,,,,,,,,,,,,,,,,,
,,,,,,5b4b8f509c7a6000017ae54f,62bbf973c8656b5829d45d38,2022-06-29_09h04.31.109,Colour_Asymmetry_Pilot,2022.1.3,Win32,58.910162,62bbe60bf3d75ef465d3e404,0,126,126,54,1,fourtwo,,,,,,,,,,,,,,,,,,,,,,,,,,,,,,,,,,,,,,,,,,,,,,,,,,,,,,,,,,,,,,,,,,,,,,,,,,,,,,,,,,,,,,,,,,,,,,,,,,,,,,,,,,,,,,,,,,,,,,,,,,,,,,,,,,,,,,,,,,,,,,,,,,,,,,,,
,,,,,,5b4b8f509c7a6000017ae54f,62bbf973c8656b5829d45d38,2022-06-29_09h04.31.109,Colour_Asymmetry_Pilot,2022.1.3,Win32,58.910162,62bbe60bf3d75ef465d3e404,0,127,127,37,1,threefour,,,,,,,,,,,,,,,,,,,,,,,,,,,,,,,,,,,,,,,,,,,,,,,,,,,,,,,,,,,,,,,,,,,,,,,,,,,,,,,,,,,,,,,,,,,,,,,,,,,,,,,,,,,,,,,,,,,,,,,,,,,,,,,,,,,,,,,,,,,,,,,,,,,,,,,,
,,,,,,5b4b8f509c7a6000017ae54f,62bbf973c8656b5829d45d38,2022-06-29_09h04.31.109,Colour_Asymmetry_Pilot,2022.1.3,Win32,58.910162,62bbe60bf3d75ef465d3e404,0,128,128,84,1,threeone,,,,,,,,,,,,,,,,,,,,,,,,,,,,,,,,,,,,,,,,,,,,,,,,,,,,,,,,,,,,,,,,,,,,,,,,,,,,,,,,,,,,,,,,,,,,,,,,,,,,,,,,,,,,,,,,,,,,,,,,,,,,,,,,,,,,,,,,,,,,,,,,,,,,,,,,
,,,,,,5b4b8f509c7a6000017ae54f,62bbf973c8656b5829d45d38,2022-06-29_09h04.31.109,Colour_Asymmetry_Pilot,2022.1.3,Win32,58.910162,62bbe60bf3d75ef465d3e404,0,129,129,135,1,fourthree,,,,,,,,,,,,,,,,,,,,,,,,,,,,,,,,,,,,,,,,,,,,,,,,,,,,,,,,,,,,,,,,,,,,,,,,,,,,,,,,,,,,,,,,,,,,,,,,,,,,,,,,,,,,,,,,,,,,,,,,,,,,,,,,,,,,,,,,,,,,,,,,,,,,,,,,
,,,,,,5b4b8f509c7a6000017ae54f,62bbf973c8656b5829d45d38,2022-06-29_09h04.31.109,Colour_Asymmetry_Pilot,2022.1.3,Win32,58.910162,62bbe60bf3d75ef465d3e404,0,130,130,33,1,onethree,,,,,,,,,,,,,,,,,,,,,,,,,,,,,,,,,,,,,,,,,,,,,,,,,,,,,,,,,,,,,,,,,,,,,,,,,,,,,,,,,,,,,,,,,,,,,,,,,,,,,,,,,,,,,,,,,,,,,,,,,,,,,,,,,,,,,,,,,,,,,,,,,,,,,,,,
,,,,,,5b4b8f509c7a6000017ae54f,62bbf973c8656b5829d45d38,2022-06-29_09h04.31.109,Colour_Asymmetry_Pilot,2022.1.3,Win32,58.910162,62bbe60bf3d75ef465d3e404,0,131,131,55,1,fourthree,,,,,,,,,,,,,,,,,,,,,,,,,,,,,,,,,,,,,,,,,,,,,,,,,,,,,,,,,,,,,,,,,,,,,,,,,,,,,,,,,,,,,,,,,,,,,,,,,,,,,,,,,,,,,,,,,,,,,,,,,,,,,,,,,,,,,,,,,,,,,,,,,,,,,,,,
,,,,,,5b4b8f509c7a6000017ae54f,62bbf973c8656b5829d45d38,2022-06-29_09h04.31.109,Colour_Asymmetry_Pilot,2022.1.3,Win32,58.910162,62bbe60bf3d75ef465d3e404,0,132,132,51,1,twofour,,,,,,,,,,,,,,,,,,,,,,,,,,,,,,,,,,,,,,,,,,,,,,,,,,,,,,,,,,,,,,,,,,,,,,,,,,,,,,,,,,,,,,,,,,,,,,,,,,,,,,,,,,,,,,,,,,,,,,,,,,,,,,,,,,,,,,,,,,,,,,,,,,,,,,,,
,,,,,,5b4b8f509c7a6000017ae54f,62bbf973c8656b5829d45d38,2022-06-29_09h04.31.109,Colour_Asymmetry_Pilot,2022.1.3,Win32,58.910162,62bbe60bf3d75ef465d3e404,0,133,133,63,1,fourthree,,,,,,,,,,,,,,,,,,,,,,,,,,,,,,,,,,,,,,,,,,,,,,,,,,,,,,,,,,,,,,,,,,,,,,,,,,,,,,,,,,,,,,,,,,,,,,,,,,,,,,,,,,,,,,,,,,,,,,,,,,,,,,,,,,,,,,,,,,,,,,,,,,,,,,,,
,,,,,,5b4b8f509c7a6000017ae54f,62bbf973c8656b5829d45d38,2022-06-29_09h04.31.109,Colour_Asymmetry_Pilot,2022.1.3,Win32,58.910162,62bbe60bf3d75ef465d3e404,0,134,134,72,1,onetwo,,,,,,,,,,,,,,,,,,,,,,,,,,,,,,,,,,,,,,,,,,,,,,,,,,,,,,,,,,,,,,,,,,,,,,,,,,,,,,,,,,,,,,,,,,,,,,,,,,,,,,,,,,,,,,,,,,,,,,,,,,,,,,,,,,,,,,,,,,,,,,,,,,,,,,,,
,,,,,,5b4b8f509c7a6000017ae54f,62bbf973c8656b5829d45d38,2022-06-29_09h04.31.109,Colour_Asymmetry_Pilot,2022.1.3,Win32,58.910162,62bbe60bf3d75ef465d3e404,0,135,135,129,1,onethree,,,,,,,,,,,,,,,,,,,,,,,,,,,,,,,,,,,,,,,,,,,,,,,,,,,,,,,,,,,,,,,,,,,,,,,,,,,,,,,,,,,,,,,,,,,,,,,,,,,,,,,,,,,,,,,,,,,,,,,,,,,,,,,,,,,,,,,,,,,,,,,,,,,,,,,,
,,,,,,5b4b8f509c7a6000017ae54f,62bbf973c8656b5829d45d38,2022-06-29_09h04.31.109,Colour_Asymmetry_Pilot,2022.1.3,Win32,58.910162,62bbe60bf3d75ef465d3e404,0,136,136,27,1,twofour,,,,,,,,,,,,,,,,,,,,,,,,,,,,,,,,,,,,,,,,,,,,,,,,,,,,,,,,,,,,,,,,,,,,,,,,,,,,,,,,,,,,,,,,,,,,,,,,,,,,,,,,,,,,,,,,,,,,,,,,,,,,,,,,,,,,,,,,,,,,,,,,,,,,,,,,
,,,,,,5b4b8f509c7a6000017ae54f,62bbf973c8656b5829d45d38,2022-06-29_09h04.31.109,Colour_Asymmetry_Pilot,2022.1.3,Win32,58.910162,62bbe60bf3d75ef465d3e404,0,137,137,75,1,twofour,,,,,,,,,,,,,,,,,,,,,,,,,,,,,,,,,,,,,,,,,,,,,,,,,,,,,,,,,,,,,,,,,,,,,,,,,,,,,,,,,,,,,,,,,,,,,,,,,,,,,,,,,,,,,,,,,,,,,,,,,,,,,,,,,,,,,,,,,,,,,,,,,,,,,,,,
,,,,,,5b4b8f509c7a6000017ae54f,62bbf973c8656b5829d45d38,2022-06-29_09h04.31.109,Colour_Asymmetry_Pilot,2022.1.3,Win32,58.910162,62bbe60bf3d75ef465d3e404,0,138,138,46,1,fourtwo,,,,,,,,,,,,,,,,,,,,,,,,,,,,,,,,,,,,,,,,,,,,,,,,,,,,,,,,,,,,,,,,,,,,,,,,,,,,,,,,,,,,,,,,,,,,,,,,,,,,,,,,,,,,,,,,,,,,,,,,,,,,,,,,,,,,,,,,,,,,,,,,,,,,,,,,
,,,,,,5b4b8f509c7a6000017ae54f,62bbf973c8656b5829d45d38,2022-06-29_09h04.31.109,Colour_Asymmetry_Pilot,2022.1.3,Win32,58.910162,62bbe60bf3d75ef465d3e404,0,139,139,2,1,twoone,,,,,,,,,,,,,,,,,,,,,,,,,,,,,,,,,,,,,,,,,,,,,,,,,,,,,,,,,,,,,,,,,,,,,,,,,,,,,,,,,,,,,,,,,,,,,,,,,,,,,,,,,,,,,,,,,,,,,,,,,,,,,,,,,,,,,,,,,,,,,,,,,,,,,,,,
,,,,,,5b4b8f509c7a6000017ae54f,62bbf973c8656b5829d45d38,2022-06-29_09h04.31.109,Colour_Asymmetry_Pilot,2022.1.3,Win32,58.910162,62bbe60bf3d75ef465d3e404,0,140,140,10,1,twoone,,,,,,,,,,,,,,,,,,,,,,,,,,,,,,,,,,,,,,,,,,,,,,,,,,,,,,,,,,,,,,,,,,,,,,,,,,,,,,,,,,,,,,,,,,,,,,,,,,,,,,,,,,,,,,,,,,,,,,,,,,,,,,,,,,,,,,,,,,,,,,,,,,,,,,,,
,,,,,,5b4b8f509c7a6000017ae54f,62bbf973c8656b5829d45d38,2022-06-29_09h04.31.109,Colour_Asymmetry_Pilot,2022.1.3,Win32,58.910162,62bbe60bf3d75ef465d3e404,0,141,141,17,1,onethree,,,,,,,,,,,,,,,,,,,,,,,,,,,,,,,,,,,,,,,,,,,,,,,,,,,,,,,,,,,,,,,,,,,,,,,,,,,,,,,,,,,,,,,,,,,,,,,,,,,,,,,,,,,,,,,,,,,,,,,,,,,,,,,,,,,,,,,,,,,,,,,,,,,,,,,,
,,,,,,5b4b8f509c7a6000017ae54f,62bbf973c8656b5829d45d38,2022-06-29_09h04.31.109,Colour_Asymmetry_Pilot,2022.1.3,Win32,58.910162,62bbe60bf3d75ef465d3e404,0,142,142,30,1,fourtwo,,,,,,,,,,,,,,,,,,,,,,,,,,,,,,,,,,,,,,,,,,,,,,,,,,,,,,,,,,,,,,,,,,,,,,,,,,,,,,,,,,,,,,,,,,,,,,,,,,,,,,,,,,,,,,,,,,,,,,,,,,,,,,,,,,,,,,,,,,,,,,,,,,,,,,,,
,,,,,,5b4b8f509c7a6000017ae54f,62bbf973c8656b5829d45d38,2022-06-29_09h04.31.109,Colour_Asymmetry_Pilot,2022.1.3,Win32,58.910162,62bbe60bf3d75ef465d3e404,0,143,143,117,1,threefour,,,,,,,,,,,,,,,,,,,,,,,,,,,,,,,,,,,,,,,,,,,,,,,,,,,,,,,,,,,,,,,,,,,,,,,,,,,,,,,,,,,,,,,,,,,,,,,,,,,,,,,,,,,,,,,,,,,,,,,,,,,,,,,,,,,,,,,,,,,,,,,,,,,,,,,,
,,,,,,5b4b8f509c7a6000017ae54f,62bbf973c8656b5829d45d38,2022-06-29_09h04.31.109,Colour_Asymmetry_Pilot,2022.1.3,Win32,58.910162,62bbe60bf3d75ef465d3e404,0,144,144,100,1,threeone,,,,,,,,,,,,,,,,,,,,,,,,,,,,,,,,,,,,,,,,,,,,,,,,,,,,,,,,,,,,,,,,,,,,,,,,,,,,,,,,,,,,,,,,,,,,,,,,,,,,,,,,,,,,,,,,,,,,,,,,,,,,,,,,,,,,,,,,,,,,,,,,,,,,,,,,
,,,,,,5b4b8f509c7a6000017ae54f,62bbf973c8656b5829d45d38,2022-06-29_09h04.31.109,Colour_Asymmetry_Pilot,2022.1.3,Win32,58.910162,62bbe60bf3d75ef465d3e404,0,145,145,83,1,twofour,,,,,,,,,,,,,,,,,,,,,,,,,,,,,,,,,,,,,,,,,,,,,,,,,,,,,,,,,,,,,,,,,,,,,,,,,,,,,,,,,,,,,,,,,,,,,,,,,,,,,,,,,,,,,,,,,,,,,,,,,,,,,,,,,,,,,,,,,,,,,,,,,,,,,,,,
,,,,,,5b4b8f509c7a6000017ae54f,62bbf973c8656b5829d45d38,2022-06-29_09h04.31.109,Colour_Asymmetry_Pilot,2022.1.3,Win32,58.910162,62bbe60bf3d75ef465d3e404,0,146,146,102,1,fourtwo,,,,,,,,,,,,,,,,,,,,,,,,,,,,,,,,,,,,,,,,,,,,,,,,,,,,,,,,,,,,,,,,,,,,,,,,,,,,,,,,,,,,,,,,,,,,,,,,,,,,,,,,,,,,,,,,,,,,,,,,,,,,,,,,,,,,,,,,,,,,,,,,,,,,,,,,
,,,,,,5b4b8f509c7a6000017ae54f,62bbf973c8656b5829d45d38,2022-06-29_09h04.31.109,Colour_Asymmetry_Pilot,2022.1.3,Win32,58.910162,62bbe60bf3d75ef465d3e404,0,147,147,149,1,threefour,,,,,,,,,,,,,,,,,,,,,,,,,,,,,,,,,,,,,,,,,,,,,,,,,,,,,,,,,,,,,,,,,,,,,,,,,,,,,,,,,,,,,,,,,,,,,,,,,,,,,,,,,,,,,,,,,,,,,,,,,,,,,,,,,,,,,,,,,,,,,,,,,,,,,,,,
,,,,,,5b4b8f509c7a6000017ae54f,62bbf973c8656b5829d45d38,2022-06-29_09h04.31.109,Colour_Asymmetry_Pilot,2022.1.3,Win32,58.910162,62bbe60bf3d75ef465d3e404,0,148,148,97,1,onethree,,,,,,,,,,,,,,,,,,,,,,,,,,,,,,,,,,,,,,,,,,,,,,,,,,,,,,,,,,,,,,,,,,,,,,,,,,,,,,,,,,,,,,,,,,,,,,,,,,,,,,,,,,,,,,,,,,,,,,,,,,,,,,,,,,,,,,,,,,,,,,,,,,,,,,,,
,,,,,,5b4b8f509c7a6000017ae54f,62bbf973c8656b5829d45d38,2022-06-29_09h04.31.109,Colour_Asymmetry_Pilot,2022.1.3,Win32,58.910162,62bbe60bf3d75ef465d3e404,0,149,149,88,1,onetwo,,,,,,,,,,,,,,,,,,,,,,,,,,,,,,,,,,,,,,,,,,,,,,,,,,,,,,,,,,,,,,,,,,,,,,,,,,,,,,,,,,,,,,,,,,,,,,,,,,,,,,,,,,,,,,,,,,,,,,,,,,,,,,,,,,,,,,,,,,,,,,,,,,,,,,,,
,,,,,,5b4b8f509c7a6000017ae54f,62bbf973c8656b5829d45d38,2022-06-29_09h04.31.109,Colour_Asymmetry_Pilot,2022.1.3,Win32,58.910162,62bbe60bf3d75ef465d3e404,0,150,150,152,1,onetwo,,,,,,,,,,,,,,,,,,,,,,,,,,,,,,,,,,,,,,,,,,,,,,,,,,,,,,,,,,,,,,,,,,,,,,,,,,,,,,,,,,,,,,,,,,,,,,,,,,,,,,,,,,,,,,,,,,,,,,,,,,,,,,,,,,,,,,,,,,,,,,,,,,,,,,,,
,,,,,,5b4b8f509c7a6000017ae54f,62bbf973c8656b5829d45d38,2022-06-29_09h04.31.109,Colour_Asymmetry_Pilot,2022.1.3,Win32,58.910162,62bbe60bf3d75ef465d3e404,0,151,151,47,1,fourthree,,,,,,,,,,,,,,,,,,,,,,,,,,,,,,,,,,,,,,,,,,,,,,,,,,,,,,,,,,,,,,,,,,,,,,,,,,,,,,,,,,,,,,,,,,,,,,,,,,,,,,,,,,,,,,,,,,,,,,,,,,,,,,,,,,,,,,,,,,,,,,,,,,,,,,,,
,,,,,,5b4b8f509c7a6000017ae54f,62bbf973c8656b5829d45d38,2022-06-29_09h04.31.109,Colour_Asymmetry_Pilot,2022.1.3,Win32,58.910162,62bbe60bf3d75ef465d3e404,0,152,152,38,1,fourtwo,,,,,,,,,,,,,,,,,,,,,,,,,,,,,,,,,,,,,,,,,,,,,,,,,,,,,,,,,,,,,,,,,,,,,,,,,,,,,,,,,,,,,,,,,,,,,,,,,,,,,,,,,,,,,,,,,,,,,,,,,,,,,,,,,,,,,,,,,,,,,,,,,,,,,,,,
,,,,,,5b4b8f509c7a6000017ae54f,62bbf973c8656b5829d45d38,2022-06-29_09h04.31.109,Colour_Asymmetry_Pilot,2022.1.3,Win32,58.910162,62bbe60bf3d75ef465d3e404,0,153,153,66,1,twoone,,,,,,,,,,,,,,,,,,,,,,,,,,,,,,,,,,,,,,,,,,,,,,,,,,,,,,,,,,,,,,,,,,,,,,,,,,,,,,,,,,,,,,,,,,,,,,,,,,,,,,,,,,,,,,,,,,,,,,,,,,,,,,,,,,,,,,,,,,,,,,,,,,,,,,,,
,,,,,,5b4b8f509c7a6000017ae54f,62bbf973c8656b5829d45d38,2022-06-29_09h04.31.109,Colour_Asymmetry_Pilot,2022.1.3,Win32,58.910162,62bbe60bf3d75ef465d3e404,0,154,154,92,1,threeone,,,,,,,,,,,,,,,,,,,,,,,,,,,,,,,,,,,,,,,,,,,,,,,,,,,,,,,,,,,,,,,,,,,,,,,,,,,,,,,,,,,,,,,,,,,,,,,,,,,,,,,,,,,,,,,,,,,,,,,,,,,,,,,,,,,,,,,,,,,,,,,,,,,,,,,,
,,,,,,5b4b8f509c7a6000017ae54f,62bbf973c8656b5829d45d38,2022-06-29_09h04.31.109,Colour_Asymmetry_Pilot,2022.1.3,Win32,58.910162,62bbe60bf3d75ef465d3e404,0,155,155,61,1,threefour,,,,,,,,,,,,,,,,,,,,,,,,,,,,,,,,,,,,,,,,,,,,,,,,,,,,,,,,,,,,,,,,,,,,,,,,,,,,,,,,,,,,,,,,,,,,,,,,,,,,,,,,,,,,,,,,,,,,,,,,,,,,,,,,,,,,,,,,,,,,,,,,,,,,,,,,
,,,,,,5b4b8f509c7a6000017ae54f,62bbf973c8656b5829d45d38,2022-06-29_09h04.31.109,Colour_Asymmetry_Pilot,2022.1.3,Win32,58.910162,62bbe60bf3d75ef465d3e404,0,156,156,23,1,fourthree,,,,,,,,,,,,,,,,,,,,,,,,,,,,,,,,,,,,,,,,,,,,,,,,,,,,,,,,,,,,,,,,,,,,,,,,,,,,,,,,,,,,,,,,,,,,,,,,,,,,,,,,,,,,,,,,,,,,,,,,,,,,,,,,,,,,,,,,,,,,,,,,,,,,,,,,
,,,,,,5b4b8f509c7a6000017ae54f,62bbf973c8656b5829d45d38,2022-06-29_09h04.31.109,Colour_Asymmetry_Pilot,2022.1.3,Win32,58.910162,62bbe60bf3d75ef465d3e404,0,157,157,107,1,twofour,,,,,,,,,,,,,,,,,,,,,,,,,,,,,,,,,,,,,,,,,,,,,,,,,,,,,,,,,,,,,,,,,,,,,,,,,,,,,,,,,,,,,,,,,,,,,,,,,,,,,,,,,,,,,,,,,,,,,,,,,,,,,,,,,,,,,,,,,,,,,,,,,,,,,,,,
,,,,,,5b4b8f509c7a6000017ae54f,62bbf973c8656b5829d45d38,2022-06-29_09h04.31.109,Colour_Asymmetry_Pilot,2022.1.3,Win32,58.910162,62bbe60bf3d75ef465d3e404,0,158,158,98,1,twoone,,,,,,,,,,,,,,,,,,,,,,,,,,,,,,,,,,,,,,,,,,,,,,,,,,,,,,,,,,,,,,,,,,,,,,,,,,,,,,,,,,,,,,,,,,,,,,,,,,,,,,,,,,,,,,,,,,,,,,,,,,,,,,,,,,,,,,,,,,,,,,,,,,,,,,,,
,,,,,,5b4b8f509c7a6000017ae54f,62bbf973c8656b5829d45d38,2022-06-29_09h04.31.109,Colour_Asymmetry_Pilot,2022.1.3,Win32,58.910162,62bbe60bf3d75ef465d3e404,0,159,159,4,1,threeone,,,,,,,,,,,,,,,,,,,,,,,,,,,,,,,,,,,,,,,,,,,,,,,,,,,,,,,,,,,,,,,,,,,,,,,,,,,,,,,,,,,,,,,,,,,,,,,,,,,,,,,,,,,,,,,,,,,,,,,,,,,,,,,,,,,,,,,,,,,,,,,,,,,,,,,,
,,,,,,5b4b8f509c7a6000017ae54f,62bbf973c8656b5829d45d38,2022-06-29_09h04.31.109,Colour_Asymmetry_Pilot,2022.1.3,Win32,58.910162,62bbe60bf3d75ef465d3e404,0,160,160,140,1,threeone,,,,,,,,,,,,,,,,,,,,,,,,,,,,,,,,,,,,,,,,,,,,,,,,,,,,,,,,,,,,,,,,,,,,,,,,,,,,,,,,,,,,,,,,,,,,,,,,,,,,,,,,,,,,,,,,,,,,,,,,,,,,,,,,,,,,,,,,,,,,,,,,,,,,,,,,
,,,,,,5b4b8f509c7a6000017ae54f,62bbf973c8656b5829d45d38,2022-06-29_09h04.31.109,Colour_Asymmetry_Pilot,2022.1.3,Win32,58.910162,62bbe60bf3d75ef465d3e404,0,161,161,79,1,fourthree,,,,,,,,,,,,,,,,,,,,,,,,,,,,,,,,,,,,,,,,,,,,,,,,,,,,,,,,,,,,,,,,,,,,,,,,,,,,,,,,,,,,,,,,,,,,,,,,,,,,,,,,,,,,,,,,,,,,,,,,,,,,,,,,,,,,,,,,,,,,,,,,,,,,,,,,
,,,,,,5b4b8f509c7a6000017ae54f,62bbf973c8656b5829d45d38,2022-06-29_09h04.31.109,Colour_Asymmetry_Pilot,2022.1.3,Win32,58.910162,62bbe60bf3d75ef465d3e404,,,,,,,space,2.4832,space,32.5663,space,18.0214,space,6.0839,space,0.6156,space,6.0588,"[0.6625999999999999,0.4980000000000002,-0.357]",threeone,"[-0.8118,-0.8198,-0.5452]",-4,9.2855,-57.25,126.25,1,0,0,response7disk_5,-6,3.75,1,0,0,rectangle_8,-6,3.75,1,0,0,3,-6,3.75,1,0,0,0,0,0,0,1,,,,,,,,,,,,,,,,,,,,,,,,,,,,,,,,,,,,,,,,,,,,,,,,,,,,,,,,,,,,,,,,,,,,,,,,,,,,,,,,,,,,,,,,,,,,,,,,,,,,,,,,,,,
,,,,,,5b4b8f509c7a6000017ae54f,62bbf973c8656b5829d45d38,2022-06-29_09h04.31.109,Colour_Asymmetry_Pilot,2022.1.3,Win32,58.910162,62bbe60bf3d75ef465d3e404,,,,,,,,,,,,,,,,,,,"[0.4196,0.4665999999999999,0.3568]",onethree,"[0.9763999999999999,0.30979999999999985,-0.6786]",-2,2.7836,-123.5,-42.5,1,0,0,response5disk_5,0.25,-2.5,1,0,0,rectangle_8,119,45,1,0,0,3,-6,-3.75,1,0,0,1,0,1,0,1,response1disk_7,6,rectangle_4,,,,,,,,,,,,,,,,,,,,,,,,,,,,,,,,,,,,,,,,,,,,,,,,,,,,,,,,,,,,,,,,,,,,,,,,,,,,,,,,,,,,,,,,,,,,,,,,,,,,,,,,
,,,,,,5b4b8f509c7a6000017ae54f,62bbf973c8656b5829d45d38,2022-06-29_09h04.31.109,Colour_Asymmetry_Pilot,2022.1.3,Win32,58.910162,62bbe60bf3d75ef465d3e404,,,,,,,,,,,,,,,,,,,"[0.9686000000000001,0.5763999999999998,0.11359999999999992]",onethree,"[0.9763999999999999,0.30979999999999985,-0.6786]",1,2.2835,49,-111.25,1,0,0,response3disk_5,-4.75,-6.25,1,0,0,rectangle_8,-4.75,-6.25,1,0,0,3,-4.75,-6.25,1,0,0,2,0,2,0,1,,,,,,,,,,,,,,,,,,,,,,,,,,,,,,,,,,,,,,,,,,,,,,,,,,,,,,,,,,,,,,,,,,,,,,,,,,,,,,,,,,,,,,,,,,,,,,,,,,,,,,,,,,,
,,,,,,5b4b8f509c7a6000017ae54f,62bbf973c8656b5829d45d38,2022-06-29_09h04.31.109,Colour_Asymmetry_Pilot,2022.1.3,Win32,58.910162,62bbe60bf3d75ef465d3e404,,,,,,,,,,,,,,,,,,,"[-0.9766,-0.34920000000000007,0.2156]",fourthree,"[-0.6,0.16860000000000008,0.44300000000000006]",1,1.1503,30.25,-106.25,1,0,0,response3disk_5,0.25,6.25,1,0,0,rectangle_8,0.25,6.25,1,0,0,3,0.25,6.25,1,0,0,3,0,3,0,1,,,,,,,,,,,,,,,,,,,,,,,,,,,,,,,,,,,,,,,,,,,,,,,,,,,,,,,,,,,,,,,,,,,,,,,,,,,,,,,,,,,,,,,,,,,,,,,,,,,,,,,,,,,
,,,,,,5b4b8f509c7a6000017ae54f,62bbf973c8656b5829d45d38,2022-06-29_09h04.31.109,Colour_Asymmetry_Pilot,2022.1.3,Win32,58.910162,62bbe60bf3d75ef465d3e404,,,,,,,,,,,,,,,,,,,"[0.8115999999999999,-0.0040000000000000036,-0.09819999999999995]",twoone,"[0.22340000000000004,-0.9296,-0.7884]",2,1.5665,101.5,-37.5,1,0,0,response3disk_5,0.25,-3.75,1,0,0,rectangle_8,0.25,-3.75,1,0,0,3,0.25,-3.75,1,0,0,4,0,4,0,1,,,,,,,,,,,,,,,,,,,,,,,,,,,,,,,,,,,,,,,,,,,,,,,,,,,,,,,,,,,,,,,,,,,,,,,,,,,,,,,,,,,,,,,,,,,,,,,,,,,,,,,,,,,
,,,,,,5b4b8f509c7a6000017ae54f,62bbf973c8656b5829d45d38,2022-06-29_09h04.31.109,Colour_Asymmetry_Pilot,2022.1.3,Win32,58.910162,62bbe60bf3d75ef465d3e404,,,,,,,,,,,,,,,,,,,"[-0.2942,-0.7648,-0.7492000000000001]",threeone,"[0.23120000000000007,-0.7726,-0.34120000000000006]",2,1.6337,92.75,-35,1,0,0,response3disk_5,-1,1.25,1,0,0,rectangle_8,-1,1.25,1,0,0,3,-1,1.25,1,0,0,5,0,5,0,1,,,,,,,,,,,,,,,,,,,,,,,,,,,,,,,,,,,,,,,,,,,,,,,,,,,,,,,,,,,,,,,,,,,,,,,,,,,,,,,,,,,,,,,,,,,,,,,,,,,,,,,,,,,
,,,,,,5b4b8f509c7a6000017ae54f,62bbf973c8656b5829d45d38,2022-06-29_09h04.31.109,Colour_Asymmetry_Pilot,2022.1.3,Win32,58.910162,62bbe60bf3d75ef465d3e404,,,,,,,,,,,,,,,,,,,"[-0.7412000000000001,-0.08239999999999992,-0.6864]",twofour,"[-0.38039999999999996,-0.4276,-0.1452]",-3,1.6892,-102.25,46.25,1,0,0,response7disk_5,1.5,-10,1,0,0,rectangle_8,1.5,-10,1,0,0,3,1.5,-10,1,0,0,6,0,6,0,1,,,,,,,,,,,,,,,,,,,,,,,,,,,,,,,,,,,,,,,,,,,,,,,,,,,,,,,,,,,,,,,,,,,,,,,,,,,,,,,,,,,,,,,,,,,,,,,,,,,,,,,,,,,
,,,,,,5b4b8f509c7a6000017ae54f,62bbf973c8656b5829d45d38,2022-06-29_09h04.31.109,Colour_Asymmetry_Pilot,2022.1.3,Win32,58.910162,62bbe60bf3d75ef465d3e404,,,,,,,,,,,,,,,,,,,,onethree,,-3,1.2171,,,,,,,,,,,,,,,,,,,,,,,,,,,,,,,,space,3.2873,"[-0.34920000000000007,-0.702,-0.5216]","[-0.2942,-0.24719999999999998,-0.357]",-97.25,72.5,1,0,0,response7disk,6.5,5,1,0,0,rectangle,6.5,5,1,0,0,,3,0.0028,0,6.5,5,1,0,0,0,0,0,22,1,22,first,,,,,,,,,,,,,,,,,,,,,,,,,,,,,,,,,,,,,,,,,,,,,,,,,,,,,,,,,,,,,,,,,,,
,,,,,,5b4b8f509c7a6000017ae54f,62bbf973c8656b5829d45d38,2022-06-29_09h04.31.109,Colour_Asymmetry_Pilot,2022.1.3,Win32,58.910162,62bbe60bf3d75ef465d3e404,,,,,,,,,,,,,,,,,,,,twofour,,-4,0.767,,,,,,,,,,,,,,,,,,,,,,,,,,,,,,,,,,"[-0.48240000000000005,0.3175999999999999,0.2156]","[0.6625999999999999,0.4980000000000002,-0.357]",-41,115,1,0,0,response7disk,4,-3.75,1,0,0,rectangle,4,-3.75,1,0,0,,3,0.0002,0,4,-3.75,1,0,0,0,1,1,46,1,46,first,,,,,,,,,,,,,,,,,,,,,,,,,,,,,,,,,,,,,,,,,,,,,,,,,,,,,,,,,,,,,,,,,,,
,,,,,,5b4b8f509c7a6000017ae54f,62bbf973c8656b5829d45d38,2022-06-29_09h04.31.109,Colour_Asymmetry_Pilot,2022.1.3,Win32,58.910162,62bbe60bf3d75ef465d3e404,,,,,,,,,,,,,,,,,,,,fourthree,,-4,0.5668,,,,,,,,,,,,,,,,,,,,,,,,,,,,,,,,,,"[0.19199999999999995,0.18419999999999992,0.5136000000000001]","[1,0.12939999999999996,-1]",-39.75,127.5,1,0,0,response7disk,17.75,0,1,0,0,rectangle,17.75,0,1,0,0,,2,0.0018,0,17.75,0,1,0,0,0,2,2,151,1,70,second,,,,,,,,,,,,,,,,,,,,,,,,,,,,,,,,,,,,,,,,,,,,,,,,,,,,,,,,,,,,,,,,,,,
,,,,,,5b4b8f509c7a6000017ae54f,62bbf973c8656b5829d45d38,2022-06-29_09h04.31.109,Colour_Asymmetry_Pilot,2022.1.3,Win32,58.910162,62bbe60bf3d75ef465d3e404,,,,,,,,,,,,,,,,,,,,twoone,,2,1.1838,,,,,,,,,,,,,,,,,,,,,,,,,,,,,,,,,,"[-0.30200000000000005,0.14500000000000002,0.2784]","[-0.9688,-0.4902000000000001,-0.12159999999999993]",79,-61.25,1,0,0,response3disk,-2.25,3.75,1,0,0,rectangle,-2.25,3.75,1,0,0,,2,0.0002,0,-2.25,3.75,1,0,0,0,3,3,49,1,49,first,,,,,,,,,,,,,,,,,,,,,,,,,,,,,,,,,,,,,,,,,,,,,,,,,,,,,,,,,,,,,,,,,,,
,,,,,,5b4b8f509c7a6000017ae54f,62bbf973c8656b5829d45d38,2022-06-29_09h04.31.109,Colour_Asymmetry_Pilot,2022.1.3,Win32,58.910162,62bbe60bf3d75ef465d3e404,,,,,,,,,,,,,,,,,,,,fourthree,,-2,0.7005,,,,,,,,,,,,,,,,,,,,,,,,,,,,,,,,,,"[-0.4276,0.0038000000000000256,-0.3256]","[-0.9688,-0.7412000000000001,-0.4902000000000001]",-86,-36.25,1,0,0,response5disk,0.25,-2.5,1,0,0,rectangle,0.25,-2.5,1,0,0,,3,0.0014,0,0.25,-2.5,1,0,0,0,4,4,44,1,44,first,,,,,,,,,,,,,,,,,,,,,,,,,,,,,,,,,,,,,,,,,,,,,,,,,,,,,,,,,,,,,,,,,,,
,,,,,,5b4b8f509c7a6000017ae54f,62bbf973c8656b5829d45d38,2022-06-29_09h04.31.109,Colour_Asymmetry_Pilot,2022.1.3,Win32,58.910162,62bbe60bf3d75ef465d3e404,,,,,,,,,,,,,,,,,,,,fourtwo,,-4,0.5498,,,,,,,,,,,,,,,,,,,,,,,,,,,,,,,,,,"[-0.5452,-0.608,0.2470000000000001]","[0.30180000000000007,-0.7884,-0.9844]",-36,95,1,0,0,response7disk,19,3.75,1,0,0,rectangle,19,3.75,1,0,0,,1,0.0013,0,19,3.75,1,0,0,0,5,5,133,1,52,second,,,,,,,,,,,,,,,,,,,,,,,,,,,,,,,,,,,,,,,,,,,,,,,,,,,,,,,,,,,,,,,,,,,
,,,,,,5b4b8f509c7a6000017ae54f,62bbf973c8656b5829d45d38,2022-06-29_09h04.31.109,Colour_Asymmetry_Pilot,2022.1.3,Win32,58.910162,62bbe60bf3d75ef465d3e404,,,,,,,,,,,,,,,,,,,,threeone,,-3,0.6505,,,,,,,,,,,,,,,,,,,,,,,,,,,,,,,,,,"[-0.011800000000000033,-0.906,-0.45100000000000007]","[0.9763999999999999,-0.1137999999999999,-0.6314]",-94.75,23.75,1,0,0,response7disk,10.25,-7.5,1,0,0,rectangle,10.25,-7.5,1,0,0,,3,0.0012,0,10.25,-7.5,1,0,0,0,6,6,90,1,9,second,,,,,,,,,,,,,,,,,,,,,,,,,,,,,,,,,,,,,,,,,,,,,,,,,,,,,,,,,,,,,,,,,,,
,,,,,,5b4b8f509c7a6000017ae54f,62bbf973c8656b5829d45d38,2022-06-29_09h04.31.109,Colour_Asymmetry_Pilot,2022.1.3,Win32,58.910162,62bbe60bf3d75ef465d3e404,,,,,,,,,,,,,,,,,,,,threefour,,-4,0.9505,,,,,,,,,,,,,,,,,,,,,,,,,,,,,,,,,,"[0.6625999999999999,0.4980000000000002,-0.357]","[-0.9688,-0.38039999999999996,-0.41979999999999995]",-36,91.25,1,0,0,response7disk,0.25,7.5,1,0,0,rectangle,0.25,7.5,1,0,0,,1,0.0012,0,0.25,7.5,1,0,0,0,7,7,98,1,17,second,,,,,,,,,,,,,,,,,,,,,,,,,,,,,,,,,,,,,,,,,,,,,,,,,,,,,,,,,,,,,,,,,,,
,,,,,,5b4b8f509c7a6000017ae54f,62bbf973c8656b5829d45d38,2022-06-29_09h04.31.109,Colour_Asymmetry_Pilot,2022.1.3,Win32,58.910162,62bbe60bf3d75ef465d3e404,,,,,,,,,,,,,,,,,,,,onethree,,-4,0.6174,,,,,,,,,,,,,,,,,,,,,,,,,,,,,,,,,,"[-0.8118,-0.8198,-0.5452]","[0.3568,-0.20799999999999996,-0.9844]",-42.25,108.75,1,0,0,response7disk,2.75,3.75,1,0,0,rectangle,2.75,3.75,1,0,0,,1,0.0002,0,2.75,3.75,1,0,0,0,8,8,82,1,1,second,,,,,,,,,,,,,,,,,,,,,,,,,,,,,,,,,,,,,,,,,,,,,,,,,,,,,,,,,,,,,,,,,,,
,,,,,,5b4b8f509c7a6000017ae54f,62bbf973c8656b5829d45d38,2022-06-29_09h04.31.109,Colour_Asymmetry_Pilot,2022.1.3,Win32,58.910162,62bbe60bf3d75ef465d3e404,,,,,,,,,,,,,,,,,,,,threefour,,-4,0.5666,,,,,,,,,,,,,,,,,,,,,,,,,,,,,,,,,,"[0.23120000000000007,-0.7726,-0.34120000000000006]","[-0.17659999999999998,0.3253999999999999,0.19999999999999996]",-58.5,125,1,0,0,response7disk,1.5,6.25,1,0,0,rectangle,1.5,6.25,1,0,0,,2,0.0014,0,1.5,6.25,1,0,0,0,9,9,63,1,63,first,,,,,,,,,,,,,,,,,,,,,,,,,,,,,,,,,,,,,,,,,,,,,,,,,,,,,,,,,,,,,,,,,,,
,,,,,,5b4b8f509c7a6000017ae54f,62bbf973c8656b5829d45d38,2022-06-29_09h04.31.109,Colour_Asymmetry_Pilot,2022.1.3,Win32,58.910162,62bbe60bf3d75ef465d3e404,,,,,,,,,,,,,,,,,,,,threefour,,-1,0.7846,,,,,,,,,,,,,,,,,,,,,,,,,,,,,,,,,,"[-0.30200000000000005,0.14500000000000002,0.2784]","[-0.20799999999999996,-0.655,-0.01980000000000004]",-57.25,-120,1,0,0,response5disk,-2.25,-1.25,1,0,0,rectangle,-2.25,-1.25,1,0,0,,2,0.0003,0,-2.25,-1.25,1,0,0,0,10,10,94,1,13,second,,,,,,,,,,,,,,,,,,,,,,,,,,,,,,,,,,,,,,,,,,,,,,,,,,,,,,,,,,,,,,,,,,,
,,,,,,5b4b8f509c7a6000017ae54f,62bbf973c8656b5829d45d38,2022-06-29_09h04.31.109,Colour_Asymmetry_Pilot,2022.1.3,Win32,58.910162,62bbe60bf3d75ef465d3e404,,,,,,,,,,,,,,,,,,,,onetwo,,-3,0.6443,,,,,,,,,,,,,,,,,,,,,,,,,,,,,,,,,,"[-0.050999999999999934,-0.6706000000000001,-0.804]","[-0.9688,-0.38039999999999996,-0.41979999999999995]",-108.5,55,1,0,0,response7disk,-14.75,3.75,1,0,0,rectangle,116.5,-55,1,0,0,2,2,2.05,1,-7.25,-5,1,0,0,0,11,11,76,1,76,first,response3disk_3,rectangle,,,,,,,,,,,,,,,,,,,,,,,,,,,,,,,,,,,,,,,,,,,,,,,,,,,,,,,,,,,,,,,,,
,,,,,,5b4b8f509c7a6000017ae54f,62bbf973c8656b5829d45d38,2022-06-29_09h04.31.109,Colour_Asymmetry_Pilot,2022.1.3,Win32,58.910162,62bbe60bf3d75ef465d3e404,,,,,,,,,,,,,,,,,,,,threeone,,-2,0.9831,,,,,,,,,,,,,,,,,,,,,,,,,,,,,,,,,,"[-0.8982,-0.37259999999999993,0.2784]","[0.23920000000000008,0.2704,0.16060000000000008]",-74.75,-38.75,1,0,0,response5disk,6.5,3.75,1,0,0,rectangle,6.5,3.75,1,0,0,2,2,0.0002,0,6.5,3.75,1,0,0,0,12,12,4,1,4,first,,,,,,,,,,,,,,,,,,,,,,,,,,,,,,,,,,,,,,,,,,,,,,,,,,,,,,,,,,,,,,,,,,,
,,,,,,5b4b8f509c7a6000017ae54f,62bbf973c8656b5829d45d38,2022-06-29_09h04.31.109,Colour_Asymmetry_Pilot,2022.1.3,Win32,58.910162,62bbe60bf3d75ef465d3e404,,,,,,,,,,,,,,,,,,,,onetwo,,-4,0.9996,,,,,,,,,,,,,,,,,,,,,,,,,,,,,,,,,,"[-0.9688,-0.38039999999999996,-0.41979999999999995]","[-0.050999999999999934,-0.6706000000000001,-0.804]",-39.75,128.75,1,0,0,response7disk,1.5,5,1,0,0,rectangle,1.5,5,1,0,0,2,3,0.0015,0,1.5,5,1,0,0,0,13,13,157,1,76,second,,,,,,,,,,,,,,,,,,,,,,,,,,,,,,,,,,,,,,,,,,,,,,,,,,,,,,,,,,,,,,,,,,,
,,,,,,5b4b8f509c7a6000017ae54f,62bbf973c8656b5829d45d38,2022-06-29_09h04.31.109,Colour_Asymmetry_Pilot,2022.1.3,Win32,58.910162,62bbe60bf3d75ef465d3e404,,,,,,,,,,,,,,,,,,,,twofour,,-4,0.5668,,,,,,,,,,,,,,,,,,,,,,,,,,,,,,,,,,"[0.40379999999999994,0.09000000000000008,0.44300000000000006]","[0.9763999999999999,0.8588,-0.05900000000000005]",-74.75,90,1,0,0,response7disk,-3.5,3.75,1,0,0,rectangle,-3.5,3.75,1,0,0,2,2,0.0016,0,-3.5,3.75,1,0,0,0,14,14,45,1,45,first,,,,,,,,,,,,,,,,,,,,,,,,,,,,,,,,,,,,,,,,,,,,,,,,,,,,,,,,,,,,,,,,,,,
,,,,,,5b4b8f509c7a6000017ae54f,62bbf973c8656b5829d45d38,2022-06-29_09h04.31.109,Colour_Asymmetry_Pilot,2022.1.3,Win32,58.910162,62bbe60bf3d75ef465d3e404,,,,,,,,,,,,,,,,,,,,fourthree,,-3,0.6001,,,,,,,,,,,,,,,,,,,,,,,,,,,,,,,,,,"[0.3881999999999999,-0.23939999999999995,-0.05040000000000011]","[0.3568,-0.20799999999999996,-0.9844]",-136,32.5,1,0,0,response7disk,-12.25,-3.75,1,0,0,rectangle,-12.25,-3.75,1,0,0,2,3,0.0016,0,-12.25,-3.75,1,0,0,0,15,15,156,1,75,second,,,,,,,,,,,,,,,,,,,,,,,,,,,,,,,,,,,,,,,,,,,,,,,,,,,,,,,,,,,,,,,,,,,
,,,,,,5b4b8f509c7a6000017ae54f,62bbf973c8656b5829d45d38,2022-06-29_09h04.31.109,Colour_Asymmetry_Pilot,2022.1.3,Win32,58.910162,62bbe60bf3d75ef465d3e404,,,,,,,,,,,,,,,,,,,,twofour,,2,0.6837,,,,,,,,,,,,,,,,,,,,,,,,,,,,,,,,,,"[0.7176,-0.906,-0.6864]","[0.7802,-0.23140000000000005,-0.20799999999999996]",91.5,-31.25,1,0,0,response3disk,-26,11.25,1,0,0,rectangle,-26,11.25,1,0,0,2,2,0.0015,0,-26,11.25,1,0,0,0,16,16,15,1,15,first,,,,,,,,,,,,,,,,,,,,,,,,,,,,,,,,,,,,,,,,,,,,,,,,,,,,,,,,,,,,,,,,,,,
,,,,,,5b4b8f509c7a6000017ae54f,62bbf973c8656b5829d45d38,2022-06-29_09h04.31.109,Colour_Asymmetry_Pilot,2022.1.3,Win32,58.910162,62bbe60bf3d75ef465d3e404,,,,,,,,,,,,,,,,,,,,threefour,,-4,0.617,,,,,,,,,,,,,,,,,,,,,,,,,,,,,,,,,,"[0.09799999999999986,-0.24719999999999998,0.15280000000000005]","[0.3568,-0.20799999999999996,-0.9844]",-43.5,83.75,1,0,0,response7disk,15.25,-6.25,1,0,0,rectangle,15.25,-6.25,1,0,0,2,3,0.0014,0,15.25,-6.25,1,0,0,0,17,17,71,1,71,first,,,,,,,,,,,,,,,,,,,,,,,,,,,,,,,,,,,,,,,,,,,,,,,,,,,,,,,,,,,,,,,,,,,
,,,,,,5b4b8f509c7a6000017ae54f,62bbf973c8656b5829d45d38,2022-06-29_09h04.31.109,Colour_Asymmetry_Pilot,2022.1.3,Win32,58.910162,62bbe60bf3d75ef465d3e404,,,,,,,,,,,,,,,,,,,,threefour,,-4,0.6503,,,,,,,,,,,,,,,,,,,,,,,,,,,,,,,,,,"[0.34099999999999997,0.5841999999999998,-0.9844]","[-0.24719999999999998,-0.0354000000000001,0.3175999999999999]",-53.5,87.5,1,0,0,response7disk,19,-6.25,1,0,0,rectangle,116.5,38.75,1,0,0,3,3,1.7671,1,14,3.75,1,0,0,0,18,18,159,1,78,second,response1disk_3,rectangle,,,,,,,,,,,,,,,,,,,,,,,,,,,,,,,,,,,,,,,,,,,,,,,,,,,,,,,,,,,,,,,,,
,,,,,,5b4b8f509c7a6000017ae54f,62bbf973c8656b5829d45d38,2022-06-29_09h04.31.109,Colour_Asymmetry_Pilot,2022.1.3,Win32,58.910162,62bbe60bf3d75ef465d3e404,,,,,,,,,,,,,,,,,,,,twoone,,-2,0.6999,,,,,,,,,,,,,,,,,,,,,,,,,,,,,,,,,,"[-0.20799999999999996,-0.655,-0.01980000000000004]","[0.22340000000000004,-0.9296,-0.7884]",-101,-27.5,1,0,0,response5disk,-8.5,18.75,1,0,0,rectangle,-8.5,18.75,1,0,0,3,3,0.0002,0,-8.5,18.75,1,0,0,0,19,19,106,1,25,second,,,,,,,,,,,,,,,,,,,,,,,,,,,,,,,,,,,,,,,,,,,,,,,,,,,,,,,,,,,,,,,,,,,
,,,,,,5b4b8f509c7a6000017ae54f,62bbf973c8656b5829d45d38,2022-06-29_09h04.31.109,Colour_Asymmetry_Pilot,2022.1.3,Win32,58.910162,62bbe60bf3d75ef465d3e404,,,,,,,,,,,,,,,,,,,,threefour,,-4,0.55,,,,,,,,,,,,,,,,,,,,,,,,,,,,,,,,,,"[-0.050999999999999934,-0.6706000000000001,-0.804]","[0.4196,0.4665999999999999,0.3568]",-71,88.75,1,0,0,response7disk,1.5,8.75,1,0,0,rectangle,1.5,8.75,1,0,0,3,3,0.0004,0,1.5,8.75,1,0,0,0,20,20,16,1,16,first,,,,,,,,,,,,,,,,,,,,,,,,,,,,,,,,,,,,,,,,,,,,,,,,,,,,,,,,,,,,,,,,,,,
