trials.thisRepN,trials.thisTrialN,trials.thisN,trials.thisIndex,trials.ran,Colourcodes,participant,session,date,expName,psychopyVersion,OS,frameRate,study_id,trials_4.thisRepN,trials_4.thisTrialN,trials_4.thisN,trials_4.thisIndex,trials_4.ran,StimulusPos,key_resp.keys,key_resp.rt,key_resp_2.keys,key_resp_2.rt,key_resp_15.keys,key_resp_15.rt,key_resp_17.keys,key_resp_17.rt,key_resp_9.keys,key_resp_9.rt,key_resp_10.keys,key_resp_10.rt,Circle1_col,Ecc,Circle2_col,similarity,response_time,mouse_5.x,mouse_5.y,mouse_5.leftButton,mouse_5.midButton,mouse_5.rightButton,mouse_5.clicked_name,mouse_10.x,mouse_10.y,mouse_10.leftButton,mouse_10.midButton,mouse_10.rightButton,mouse_10.clicked_name,mouse_7.x,mouse_7.y,mouse_7.leftButton,mouse_7.midButton,mouse_7.rightButton,catchnumberprac,mouse_6.x,mouse_6.y,mouse_6.leftButton,mouse_6.midButton,mouse_6.rightButton,duringprac.thisRepN,duringprac.thisTrialN,duringprac.thisN,duringprac.thisIndex,duringprac.ran,mouse_7.clicked_name,catchprac,mouse_6.clicked_name,key_resp_22.keys,key_resp_22.rt,Circle1_colour,Circle2_colour,mouse.x,mouse.y,mouse.leftButton,mouse.midButton,mouse.rightButton,mouse.clicked_name,mouse_2.x,mouse_2.y,mouse_2.leftButton,mouse_2.midButton,mouse_2.rightButton,mouse_2.clicked_name,mouse_3.x,mouse_3.y,mouse_3.leftButton,mouse_3.midButton,mouse_3.rightButton,catchresponse,catchnumber,response_time_catch,Catch,mouse_11.x,mouse_11.y,mouse_11.leftButton,mouse_11.midButton,mouse_11.rightButton,trials_2.thisRepN,trials_2.thisTrialN,trials_2.thisN,trials_2.thisIndex,trials_2.ran,Colourpair,Temporder,mouse_3.clicked_name,mouse_11.clicked_name,trials_3.thisRepN,trials_3.thisTrialN,trials_3.thisN,trials_3.thisIndex,trials_3.ran,key_resp_instr_Ishi.keys,key_resp_instr_Ishi.rt,Ishi_trial_keyresp.keys,Ishi_trial_keyresp.rt,Ishi_textbox.text,Ishi_loop.thisRepN,Ishi_loop.thisTrialN,Ishi_loop.thisN,Ishi_loop.thisIndex,Ishi_loop.ran,imageaddress,textbox.text,mouse_4.x,mouse_4.y,mouse_4.leftButton,mouse_4.midButton,mouse_4.rightButton,mouse_4.clicked_name,textbox_2.text,mouse_8.x,mouse_8.y,mouse_8.leftButton,mouse_8.midButton,mouse_8.rightButton,mouse_8.clicked_name,textbox_3.text,mouse_9.x,mouse_9.y,mouse_9.leftButton,mouse_9.midButton,mouse_9.rightButton,mouse_9.clicked_name,textbox_4.text,mouse_12.x,mouse_12.y,mouse_12.leftButton,mouse_12.midButton,mouse_12.rightButton,mouse_12.clicked_name,textbox_5.text,mouse_13.x,mouse_13.y,mouse_13.leftButton,mouse_13.midButton,mouse_13.rightButton,mouse_13.clicked_name,textbox_6.text,mouse_14.x,mouse_14.y,mouse_14.leftButton,mouse_14.midButton,mouse_14.rightButton,mouse_14.clicked_name,textbox_7.text,mouse_15.x,mouse_15.y,mouse_15.leftButton,mouse_15.midButton,mouse_15.rightButton,mouse_15.clicked_name
0,0,0,75,1,,5e5bd71ee0777c3bbe5b108c,62bbfb062e33886c7dd2440a,2022-06-29_10h11.20.344,Colour_Asymmetry_Pilot,2022.1.3,Win32,60.07810153,62bbe60bf3d75ef465d3e404,,,,,,,,,,,,,,,,,,,,,,,,,,,,,,,,,,,,,,,,,,,,,,,,,,,,,,,,,,,,,,,,,,,,,,,,,,,,,,,,,,,,,,,,,,,,,,,,,,,,,,,,,,,,,,,,,,,,,,,,,,,,,,,,,,,,,,,,,,,,,,,,,,,,,,,,,,,,,,
0,1,1,78,1,,5e5bd71ee0777c3bbe5b108c,62bbfb062e33886c7dd2440a,2022-06-29_10h11.20.344,Colour_Asymmetry_Pilot,2022.1.3,Win32,60.07810153,62bbe60bf3d75ef465d3e404,,,,,,,,,,,,,,,,,,,,,,,,,,,,,,,,,,,,,,,,,,,,,,,,,,,,,,,,,,,,,,,,,,,,,,,,,,,,,,,,,,,,,,,,,,,,,,,,,,,,,,,,,,,,,,,,,,,,,,,,,,,,,,,,,,,,,,,,,,,,,,,,,,,,,,,,,,,,,,
0,2,2,68,1,,5e5bd71ee0777c3bbe5b108c,62bbfb062e33886c7dd2440a,2022-06-29_10h11.20.344,Colour_Asymmetry_Pilot,2022.1.3,Win32,60.07810153,62bbe60bf3d75ef465d3e404,,,,,,,,,,,,,,,,,,,,,,,,,,,,,,,,,,,,,,,,,,,,,,,,,,,,,,,,,,,,,,,,,,,,,,,,,,,,,,,,,,,,,,,,,,,,,,,,,,,,,,,,,,,,,,,,,,,,,,,,,,,,,,,,,,,,,,,,,,,,,,,,,,,,,,,,,,,,,,
0,3,3,16,1,,5e5bd71ee0777c3bbe5b108c,62bbfb062e33886c7dd2440a,2022-06-29_10h11.20.344,Colour_Asymmetry_Pilot,2022.1.3,Win32,60.07810153,62bbe60bf3d75ef465d3e404,,,,,,,,,,,,,,,,,,,,,,,,,,,,,,,,,,,,,,,,,,,,,,,,,,,,,,,,,,,,,,,,,,,,,,,,,,,,,,,,,,,,,,,,,,,,,,,,,,,,,,,,,,,,,,,,,,,,,,,,,,,,,,,,,,,,,,,,,,,,,,,,,,,,,,,,,,,,,,
0,4,4,39,1,,5e5bd71ee0777c3bbe5b108c,62bbfb062e33886c7dd2440a,2022-06-29_10h11.20.344,Colour_Asymmetry_Pilot,2022.1.3,Win32,60.07810153,62bbe60bf3d75ef465d3e404,,,,,,,,,,,,,,,,,,,,,,,,,,,,,,,,,,,,,,,,,,,,,,,,,,,,,,,,,,,,,,,,,,,,,,,,,,,,,,,,,,,,,,,,,,,,,,,,,,,,,,,,,,,,,,,,,,,,,,,,,,,,,,,,,,,,,,,,,,,,,,,,,,,,,,,,,,,,,,
0,5,5,49,1,,5e5bd71ee0777c3bbe5b108c,62bbfb062e33886c7dd2440a,2022-06-29_10h11.20.344,Colour_Asymmetry_Pilot,2022.1.3,Win32,60.07810153,62bbe60bf3d75ef465d3e404,,,,,,,,,,,,,,,,,,,,,,,,,,,,,,,,,,,,,,,,,,,,,,,,,,,,,,,,,,,,,,,,,,,,,,,,,,,,,,,,,,,,,,,,,,,,,,,,,,,,,,,,,,,,,,,,,,,,,,,,,,,,,,,,,,,,,,,,,,,,,,,,,,,,,,,,,,,,,,
0,6,6,1,1,,5e5bd71ee0777c3bbe5b108c,62bbfb062e33886c7dd2440a,2022-06-29_10h11.20.344,Colour_Asymmetry_Pilot,2022.1.3,Win32,60.07810153,62bbe60bf3d75ef465d3e404,,,,,,,,,,,,,,,,,,,,,,,,,,,,,,,,,,,,,,,,,,,,,,,,,,,,,,,,,,,,,,,,,,,,,,,,,,,,,,,,,,,,,,,,,,,,,,,,,,,,,,,,,,,,,,,,,,,,,,,,,,,,,,,,,,,,,,,,,,,,,,,,,,,,,,,,,,,,,,
0,7,7,43,1,,5e5bd71ee0777c3bbe5b108c,62bbfb062e33886c7dd2440a,2022-06-29_10h11.20.344,Colour_Asymmetry_Pilot,2022.1.3,Win32,60.07810153,62bbe60bf3d75ef465d3e404,,,,,,,,,,,,,,,,,,,,,,,,,,,,,,,,,,,,,,,,,,,,,,,,,,,,,,,,,,,,,,,,,,,,,,,,,,,,,,,,,,,,,,,,,,,,,,,,,,,,,,,,,,,,,,,,,,,,,,,,,,,,,,,,,,,,,,,,,,,,,,,,,,,,,,,,,,,,,,
0,8,8,88,1,,5e5bd71ee0777c3bbe5b108c,62bbfb062e33886c7dd2440a,2022-06-29_10h11.20.344,Colour_Asymmetry_Pilot,2022.1.3,Win32,60.07810153,62bbe60bf3d75ef465d3e404,,,,,,,,,,,,,,,,,,,,,,,,,,,,,,,,,,,,,,,,,,,,,,,,,,,,,,,,,,,,,,,,,,,,,,,,,,,,,,,,,,,,,,,,,,,,,,,,,,,,,,,,,,,,,,,,,,,,,,,,,,,,,,,,,,,,,,,,,,,,,,,,,,,,,,,,,,,,,,
0,9,9,42,1,,5e5bd71ee0777c3bbe5b108c,62bbfb062e33886c7dd2440a,2022-06-29_10h11.20.344,Colour_Asymmetry_Pilot,2022.1.3,Win32,60.07810153,62bbe60bf3d75ef465d3e404,,,,,,,,,,,,,,,,,,,,,,,,,,,,,,,,,,,,,,,,,,,,,,,,,,,,,,,,,,,,,,,,,,,,,,,,,,,,,,,,,,,,,,,,,,,,,,,,,,,,,,,,,,,,,,,,,,,,,,,,,,,,,,,,,,,,,,,,,,,,,,,,,,,,,,,,,,,,,,
0,10,10,8,1,,5e5bd71ee0777c3bbe5b108c,62bbfb062e33886c7dd2440a,2022-06-29_10h11.20.344,Colour_Asymmetry_Pilot,2022.1.3,Win32,60.07810153,62bbe60bf3d75ef465d3e404,,,,,,,,,,,,,,,,,,,,,,,,,,,,,,,,,,,,,,,,,,,,,,,,,,,,,,,,,,,,,,,,,,,,,,,,,,,,,,,,,,,,,,,,,,,,,,,,,,,,,,,,,,,,,,,,,,,,,,,,,,,,,,,,,,,,,,,,,,,,,,,,,,,,,,,,,,,,,,
0,11,11,3,1,,5e5bd71ee0777c3bbe5b108c,62bbfb062e33886c7dd2440a,2022-06-29_10h11.20.344,Colour_Asymmetry_Pilot,2022.1.3,Win32,60.07810153,62bbe60bf3d75ef465d3e404,,,,,,,,,,,,,,,,,,,,,,,,,,,,,,,,,,,,,,,,,,,,,,,,,,,,,,,,,,,,,,,,,,,,,,,,,,,,,,,,,,,,,,,,,,,,,,,,,,,,,,,,,,,,,,,,,,,,,,,,,,,,,,,,,,,,,,,,,,,,,,,,,,,,,,,,,,,,,,
0,12,12,64,1,,5e5bd71ee0777c3bbe5b108c,62bbfb062e33886c7dd2440a,2022-06-29_10h11.20.344,Colour_Asymmetry_Pilot,2022.1.3,Win32,60.07810153,62bbe60bf3d75ef465d3e404,,,,,,,,,,,,,,,,,,,,,,,,,,,,,,,,,,,,,,,,,,,,,,,,,,,,,,,,,,,,,,,,,,,,,,,,,,,,,,,,,,,,,,,,,,,,,,,,,,,,,,,,,,,,,,,,,,,,,,,,,,,,,,,,,,,,,,,,,,,,,,,,,,,,,,,,,,,,,,
0,13,13,55,1,,5e5bd71ee0777c3bbe5b108c,62bbfb062e33886c7dd2440a,2022-06-29_10h11.20.344,Colour_Asymmetry_Pilot,2022.1.3,Win32,60.07810153,62bbe60bf3d75ef465d3e404,,,,,,,,,,,,,,,,,,,,,,,,,,,,,,,,,,,,,,,,,,,,,,,,,,,,,,,,,,,,,,,,,,,,,,,,,,,,,,,,,,,,,,,,,,,,,,,,,,,,,,,,,,,,,,,,,,,,,,,,,,,,,,,,,,,,,,,,,,,,,,,,,,,,,,,,,,,,,,
0,14,14,14,1,,5e5bd71ee0777c3bbe5b108c,62bbfb062e33886c7dd2440a,2022-06-29_10h11.20.344,Colour_Asymmetry_Pilot,2022.1.3,Win32,60.07810153,62bbe60bf3d75ef465d3e404,,,,,,,,,,,,,,,,,,,,,,,,,,,,,,,,,,,,,,,,,,,,,,,,,,,,,,,,,,,,,,,,,,,,,,,,,,,,,,,,,,,,,,,,,,,,,,,,,,,,,,,,,,,,,,,,,,,,,,,,,,,,,,,,,,,,,,,,,,,,,,,,,,,,,,,,,,,,,,
0,15,15,72,1,,5e5bd71ee0777c3bbe5b108c,62bbfb062e33886c7dd2440a,2022-06-29_10h11.20.344,Colour_Asymmetry_Pilot,2022.1.3,Win32,60.07810153,62bbe60bf3d75ef465d3e404,,,,,,,,,,,,,,,,,,,,,,,,,,,,,,,,,,,,,,,,,,,,,,,,,,,,,,,,,,,,,,,,,,,,,,,,,,,,,,,,,,,,,,,,,,,,,,,,,,,,,,,,,,,,,,,,,,,,,,,,,,,,,,,,,,,,,,,,,,,,,,,,,,,,,,,,,,,,,,
0,16,16,31,1,,5e5bd71ee0777c3bbe5b108c,62bbfb062e33886c7dd2440a,2022-06-29_10h11.20.344,Colour_Asymmetry_Pilot,2022.1.3,Win32,60.07810153,62bbe60bf3d75ef465d3e404,,,,,,,,,,,,,,,,,,,,,,,,,,,,,,,,,,,,,,,,,,,,,,,,,,,,,,,,,,,,,,,,,,,,,,,,,,,,,,,,,,,,,,,,,,,,,,,,,,,,,,,,,,,,,,,,,,,,,,,,,,,,,,,,,,,,,,,,,,,,,,,,,,,,,,,,,,,,,,
0,17,17,45,1,,5e5bd71ee0777c3bbe5b108c,62bbfb062e33886c7dd2440a,2022-06-29_10h11.20.344,Colour_Asymmetry_Pilot,2022.1.3,Win32,60.07810153,62bbe60bf3d75ef465d3e404,,,,,,,,,,,,,,,,,,,,,,,,,,,,,,,,,,,,,,,,,,,,,,,,,,,,,,,,,,,,,,,,,,,,,,,,,,,,,,,,,,,,,,,,,,,,,,,,,,,,,,,,,,,,,,,,,,,,,,,,,,,,,,,,,,,,,,,,,,,,,,,,,,,,,,,,,,,,,,
0,18,18,6,1,,5e5bd71ee0777c3bbe5b108c,62bbfb062e33886c7dd2440a,2022-06-29_10h11.20.344,Colour_Asymmetry_Pilot,2022.1.3,Win32,60.07810153,62bbe60bf3d75ef465d3e404,,,,,,,,,,,,,,,,,,,,,,,,,,,,,,,,,,,,,,,,,,,,,,,,,,,,,,,,,,,,,,,,,,,,,,,,,,,,,,,,,,,,,,,,,,,,,,,,,,,,,,,,,,,,,,,,,,,,,,,,,,,,,,,,,,,,,,,,,,,,,,,,,,,,,,,,,,,,,,
0,19,19,5,1,,5e5bd71ee0777c3bbe5b108c,62bbfb062e33886c7dd2440a,2022-06-29_10h11.20.344,Colour_Asymmetry_Pilot,2022.1.3,Win32,60.07810153,62bbe60bf3d75ef465d3e404,,,,,,,,,,,,,,,,,,,,,,,,,,,,,,,,,,,,,,,,,,,,,,,,,,,,,,,,,,,,,,,,,,,,,,,,,,,,,,,,,,,,,,,,,,,,,,,,,,,,,,,,,,,,,,,,,,,,,,,,,,,,,,,,,,,,,,,,,,,,,,,,,,,,,,,,,,,,,,
0,20,20,18,1,,5e5bd71ee0777c3bbe5b108c,62bbfb062e33886c7dd2440a,2022-06-29_10h11.20.344,Colour_Asymmetry_Pilot,2022.1.3,Win32,60.07810153,62bbe60bf3d75ef465d3e404,,,,,,,,,,,,,,,,,,,,,,,,,,,,,,,,,,,,,,,,,,,,,,,,,,,,,,,,,,,,,,,,,,,,,,,,,,,,,,,,,,,,,,,,,,,,,,,,,,,,,,,,,,,,,,,,,,,,,,,,,,,,,,,,,,,,,,,,,,,,,,,,,,,,,,,,,,,,,,
0,21,21,47,1,,5e5bd71ee0777c3bbe5b108c,62bbfb062e33886c7dd2440a,2022-06-29_10h11.20.344,Colour_Asymmetry_Pilot,2022.1.3,Win32,60.07810153,62bbe60bf3d75ef465d3e404,,,,,,,,,,,,,,,,,,,,,,,,,,,,,,,,,,,,,,,,,,,,,,,,,,,,,,,,,,,,,,,,,,,,,,,,,,,,,,,,,,,,,,,,,,,,,,,,,,,,,,,,,,,,,,,,,,,,,,,,,,,,,,,,,,,,,,,,,,,,,,,,,,,,,,,,,,,,,,
0,22,22,54,1,,5e5bd71ee0777c3bbe5b108c,62bbfb062e33886c7dd2440a,2022-06-29_10h11.20.344,Colour_Asymmetry_Pilot,2022.1.3,Win32,60.07810153,62bbe60bf3d75ef465d3e404,,,,,,,,,,,,,,,,,,,,,,,,,,,,,,,,,,,,,,,,,,,,,,,,,,,,,,,,,,,,,,,,,,,,,,,,,,,,,,,,,,,,,,,,,,,,,,,,,,,,,,,,,,,,,,,,,,,,,,,,,,,,,,,,,,,,,,,,,,,,,,,,,,,,,,,,,,,,,,
0,23,23,10,1,,5e5bd71ee0777c3bbe5b108c,62bbfb062e33886c7dd2440a,2022-06-29_10h11.20.344,Colour_Asymmetry_Pilot,2022.1.3,Win32,60.07810153,62bbe60bf3d75ef465d3e404,,,,,,,,,,,,,,,,,,,,,,,,,,,,,,,,,,,,,,,,,,,,,,,,,,,,,,,,,,,,,,,,,,,,,,,,,,,,,,,,,,,,,,,,,,,,,,,,,,,,,,,,,,,,,,,,,,,,,,,,,,,,,,,,,,,,,,,,,,,,,,,,,,,,,,,,,,,,,,
0,24,24,65,1,,5e5bd71ee0777c3bbe5b108c,62bbfb062e33886c7dd2440a,2022-06-29_10h11.20.344,Colour_Asymmetry_Pilot,2022.1.3,Win32,60.07810153,62bbe60bf3d75ef465d3e404,,,,,,,,,,,,,,,,,,,,,,,,,,,,,,,,,,,,,,,,,,,,,,,,,,,,,,,,,,,,,,,,,,,,,,,,,,,,,,,,,,,,,,,,,,,,,,,,,,,,,,,,,,,,,,,,,,,,,,,,,,,,,,,,,,,,,,,,,,,,,,,,,,,,,,,,,,,,,,
0,25,25,48,1,,5e5bd71ee0777c3bbe5b108c,62bbfb062e33886c7dd2440a,2022-06-29_10h11.20.344,Colour_Asymmetry_Pilot,2022.1.3,Win32,60.07810153,62bbe60bf3d75ef465d3e404,,,,,,,,,,,,,,,,,,,,,,,,,,,,,,,,,,,,,,,,,,,,,,,,,,,,,,,,,,,,,,,,,,,,,,,,,,,,,,,,,,,,,,,,,,,,,,,,,,,,,,,,,,,,,,,,,,,,,,,,,,,,,,,,,,,,,,,,,,,,,,,,,,,,,,,,,,,,,,
0,26,26,36,1,,5e5bd71ee0777c3bbe5b108c,62bbfb062e33886c7dd2440a,2022-06-29_10h11.20.344,Colour_Asymmetry_Pilot,2022.1.3,Win32,60.07810153,62bbe60bf3d75ef465d3e404,,,,,,,,,,,,,,,,,,,,,,,,,,,,,,,,,,,,,,,,,,,,,,,,,,,,,,,,,,,,,,,,,,,,,,,,,,,,,,,,,,,,,,,,,,,,,,,,,,,,,,,,,,,,,,,,,,,,,,,,,,,,,,,,,,,,,,,,,,,,,,,,,,,,,,,,,,,,,,
0,27,27,34,1,,5e5bd71ee0777c3bbe5b108c,62bbfb062e33886c7dd2440a,2022-06-29_10h11.20.344,Colour_Asymmetry_Pilot,2022.1.3,Win32,60.07810153,62bbe60bf3d75ef465d3e404,,,,,,,,,,,,,,,,,,,,,,,,,,,,,,,,,,,,,,,,,,,,,,,,,,,,,,,,,,,,,,,,,,,,,,,,,,,,,,,,,,,,,,,,,,,,,,,,,,,,,,,,,,,,,,,,,,,,,,,,,,,,,,,,,,,,,,,,,,,,,,,,,,,,,,,,,,,,,,
0,28,28,57,1,,5e5bd71ee0777c3bbe5b108c,62bbfb062e33886c7dd2440a,2022-06-29_10h11.20.344,Colour_Asymmetry_Pilot,2022.1.3,Win32,60.07810153,62bbe60bf3d75ef465d3e404,,,,,,,,,,,,,,,,,,,,,,,,,,,,,,,,,,,,,,,,,,,,,,,,,,,,,,,,,,,,,,,,,,,,,,,,,,,,,,,,,,,,,,,,,,,,,,,,,,,,,,,,,,,,,,,,,,,,,,,,,,,,,,,,,,,,,,,,,,,,,,,,,,,,,,,,,,,,,,
0,29,29,76,1,,5e5bd71ee0777c3bbe5b108c,62bbfb062e33886c7dd2440a,2022-06-29_10h11.20.344,Colour_Asymmetry_Pilot,2022.1.3,Win32,60.07810153,62bbe60bf3d75ef465d3e404,,,,,,,,,,,,,,,,,,,,,,,,,,,,,,,,,,,,,,,,,,,,,,,,,,,,,,,,,,,,,,,,,,,,,,,,,,,,,,,,,,,,,,,,,,,,,,,,,,,,,,,,,,,,,,,,,,,,,,,,,,,,,,,,,,,,,,,,,,,,,,,,,,,,,,,,,,,,,,
0,30,30,33,1,,5e5bd71ee0777c3bbe5b108c,62bbfb062e33886c7dd2440a,2022-06-29_10h11.20.344,Colour_Asymmetry_Pilot,2022.1.3,Win32,60.07810153,62bbe60bf3d75ef465d3e404,,,,,,,,,,,,,,,,,,,,,,,,,,,,,,,,,,,,,,,,,,,,,,,,,,,,,,,,,,,,,,,,,,,,,,,,,,,,,,,,,,,,,,,,,,,,,,,,,,,,,,,,,,,,,,,,,,,,,,,,,,,,,,,,,,,,,,,,,,,,,,,,,,,,,,,,,,,,,,
0,31,31,28,1,,5e5bd71ee0777c3bbe5b108c,62bbfb062e33886c7dd2440a,2022-06-29_10h11.20.344,Colour_Asymmetry_Pilot,2022.1.3,Win32,60.07810153,62bbe60bf3d75ef465d3e404,,,,,,,,,,,,,,,,,,,,,,,,,,,,,,,,,,,,,,,,,,,,,,,,,,,,,,,,,,,,,,,,,,,,,,,,,,,,,,,,,,,,,,,,,,,,,,,,,,,,,,,,,,,,,,,,,,,,,,,,,,,,,,,,,,,,,,,,,,,,,,,,,,,,,,,,,,,,,,
0,32,32,83,1,,5e5bd71ee0777c3bbe5b108c,62bbfb062e33886c7dd2440a,2022-06-29_10h11.20.344,Colour_Asymmetry_Pilot,2022.1.3,Win32,60.07810153,62bbe60bf3d75ef465d3e404,,,,,,,,,,,,,,,,,,,,,,,,,,,,,,,,,,,,,,,,,,,,,,,,,,,,,,,,,,,,,,,,,,,,,,,,,,,,,,,,,,,,,,,,,,,,,,,,,,,,,,,,,,,,,,,,,,,,,,,,,,,,,,,,,,,,,,,,,,,,,,,,,,,,,,,,,,,,,,
0,33,33,73,1,,5e5bd71ee0777c3bbe5b108c,62bbfb062e33886c7dd2440a,2022-06-29_10h11.20.344,Colour_Asymmetry_Pilot,2022.1.3,Win32,60.07810153,62bbe60bf3d75ef465d3e404,,,,,,,,,,,,,,,,,,,,,,,,,,,,,,,,,,,,,,,,,,,,,,,,,,,,,,,,,,,,,,,,,,,,,,,,,,,,,,,,,,,,,,,,,,,,,,,,,,,,,,,,,,,,,,,,,,,,,,,,,,,,,,,,,,,,,,,,,,,,,,,,,,,,,,,,,,,,,,
0,34,34,79,1,,5e5bd71ee0777c3bbe5b108c,62bbfb062e33886c7dd2440a,2022-06-29_10h11.20.344,Colour_Asymmetry_Pilot,2022.1.3,Win32,60.07810153,62bbe60bf3d75ef465d3e404,,,,,,,,,,,,,,,,,,,,,,,,,,,,,,,,,,,,,,,,,,,,,,,,,,,,,,,,,,,,,,,,,,,,,,,,,,,,,,,,,,,,,,,,,,,,,,,,,,,,,,,,,,,,,,,,,,,,,,,,,,,,,,,,,,,,,,,,,,,,,,,,,,,,,,,,,,,,,,
0,35,35,38,1,,5e5bd71ee0777c3bbe5b108c,62bbfb062e33886c7dd2440a,2022-06-29_10h11.20.344,Colour_Asymmetry_Pilot,2022.1.3,Win32,60.07810153,62bbe60bf3d75ef465d3e404,,,,,,,,,,,,,,,,,,,,,,,,,,,,,,,,,,,,,,,,,,,,,,,,,,,,,,,,,,,,,,,,,,,,,,,,,,,,,,,,,,,,,,,,,,,,,,,,,,,,,,,,,,,,,,,,,,,,,,,,,,,,,,,,,,,,,,,,,,,,,,,,,,,,,,,,,,,,,,
0,36,36,19,1,,5e5bd71ee0777c3bbe5b108c,62bbfb062e33886c7dd2440a,2022-06-29_10h11.20.344,Colour_Asymmetry_Pilot,2022.1.3,Win32,60.07810153,62bbe60bf3d75ef465d3e404,,,,,,,,,,,,,,,,,,,,,,,,,,,,,,,,,,,,,,,,,,,,,,,,,,,,,,,,,,,,,,,,,,,,,,,,,,,,,,,,,,,,,,,,,,,,,,,,,,,,,,,,,,,,,,,,,,,,,,,,,,,,,,,,,,,,,,,,,,,,,,,,,,,,,,,,,,,,,,
0,37,37,90,1,,5e5bd71ee0777c3bbe5b108c,62bbfb062e33886c7dd2440a,2022-06-29_10h11.20.344,Colour_Asymmetry_Pilot,2022.1.3,Win32,60.07810153,62bbe60bf3d75ef465d3e404,,,,,,,,,,,,,,,,,,,,,,,,,,,,,,,,,,,,,,,,,,,,,,,,,,,,,,,,,,,,,,,,,,,,,,,,,,,,,,,,,,,,,,,,,,,,,,,,,,,,,,,,,,,,,,,,,,,,,,,,,,,,,,,,,,,,,,,,,,,,,,,,,,,,,,,,,,,,,,
0,38,38,67,1,,5e5bd71ee0777c3bbe5b108c,62bbfb062e33886c7dd2440a,2022-06-29_10h11.20.344,Colour_Asymmetry_Pilot,2022.1.3,Win32,60.07810153,62bbe60bf3d75ef465d3e404,,,,,,,,,,,,,,,,,,,,,,,,,,,,,,,,,,,,,,,,,,,,,,,,,,,,,,,,,,,,,,,,,,,,,,,,,,,,,,,,,,,,,,,,,,,,,,,,,,,,,,,,,,,,,,,,,,,,,,,,,,,,,,,,,,,,,,,,,,,,,,,,,,,,,,,,,,,,,,
0,39,39,71,1,,5e5bd71ee0777c3bbe5b108c,62bbfb062e33886c7dd2440a,2022-06-29_10h11.20.344,Colour_Asymmetry_Pilot,2022.1.3,Win32,60.07810153,62bbe60bf3d75ef465d3e404,,,,,,,,,,,,,,,,,,,,,,,,,,,,,,,,,,,,,,,,,,,,,,,,,,,,,,,,,,,,,,,,,,,,,,,,,,,,,,,,,,,,,,,,,,,,,,,,,,,,,,,,,,,,,,,,,,,,,,,,,,,,,,,,,,,,,,,,,,,,,,,,,,,,,,,,,,,,,,
0,40,40,92,1,,5e5bd71ee0777c3bbe5b108c,62bbfb062e33886c7dd2440a,2022-06-29_10h11.20.344,Colour_Asymmetry_Pilot,2022.1.3,Win32,60.07810153,62bbe60bf3d75ef465d3e404,,,,,,,,,,,,,,,,,,,,,,,,,,,,,,,,,,,,,,,,,,,,,,,,,,,,,,,,,,,,,,,,,,,,,,,,,,,,,,,,,,,,,,,,,,,,,,,,,,,,,,,,,,,,,,,,,,,,,,,,,,,,,,,,,,,,,,,,,,,,,,,,,,,,,,,,,,,,,,
0,41,41,63,1,,5e5bd71ee0777c3bbe5b108c,62bbfb062e33886c7dd2440a,2022-06-29_10h11.20.344,Colour_Asymmetry_Pilot,2022.1.3,Win32,60.07810153,62bbe60bf3d75ef465d3e404,,,,,,,,,,,,,,,,,,,,,,,,,,,,,,,,,,,,,,,,,,,,,,,,,,,,,,,,,,,,,,,,,,,,,,,,,,,,,,,,,,,,,,,,,,,,,,,,,,,,,,,,,,,,,,,,,,,,,,,,,,,,,,,,,,,,,,,,,,,,,,,,,,,,,,,,,,,,,,
0,42,42,69,1,,5e5bd71ee0777c3bbe5b108c,62bbfb062e33886c7dd2440a,2022-06-29_10h11.20.344,Colour_Asymmetry_Pilot,2022.1.3,Win32,60.07810153,62bbe60bf3d75ef465d3e404,,,,,,,,,,,,,,,,,,,,,,,,,,,,,,,,,,,,,,,,,,,,,,,,,,,,,,,,,,,,,,,,,,,,,,,,,,,,,,,,,,,,,,,,,,,,,,,,,,,,,,,,,,,,,,,,,,,,,,,,,,,,,,,,,,,,,,,,,,,,,,,,,,,,,,,,,,,,,,
0,43,43,40,1,,5e5bd71ee0777c3bbe5b108c,62bbfb062e33886c7dd2440a,2022-06-29_10h11.20.344,Colour_Asymmetry_Pilot,2022.1.3,Win32,60.07810153,62bbe60bf3d75ef465d3e404,,,,,,,,,,,,,,,,,,,,,,,,,,,,,,,,,,,,,,,,,,,,,,,,,,,,,,,,,,,,,,,,,,,,,,,,,,,,,,,,,,,,,,,,,,,,,,,,,,,,,,,,,,,,,,,,,,,,,,,,,,,,,,,,,,,,,,,,,,,,,,,,,,,,,,,,,,,,,,
0,44,44,0,1,,5e5bd71ee0777c3bbe5b108c,62bbfb062e33886c7dd2440a,2022-06-29_10h11.20.344,Colour_Asymmetry_Pilot,2022.1.3,Win32,60.07810153,62bbe60bf3d75ef465d3e404,,,,,,,,,,,,,,,,,,,,,,,,,,,,,,,,,,,,,,,,,,,,,,,,,,,,,,,,,,,,,,,,,,,,,,,,,,,,,,,,,,,,,,,,,,,,,,,,,,,,,,,,,,,,,,,,,,,,,,,,,,,,,,,,,,,,,,,,,,,,,,,,,,,,,,,,,,,,,,
0,45,45,20,1,,5e5bd71ee0777c3bbe5b108c,62bbfb062e33886c7dd2440a,2022-06-29_10h11.20.344,Colour_Asymmetry_Pilot,2022.1.3,Win32,60.07810153,62bbe60bf3d75ef465d3e404,,,,,,,,,,,,,,,,,,,,,,,,,,,,,,,,,,,,,,,,,,,,,,,,,,,,,,,,,,,,,,,,,,,,,,,,,,,,,,,,,,,,,,,,,,,,,,,,,,,,,,,,,,,,,,,,,,,,,,,,,,,,,,,,,,,,,,,,,,,,,,,,,,,,,,,,,,,,,,
0,46,46,35,1,,5e5bd71ee0777c3bbe5b108c,62bbfb062e33886c7dd2440a,2022-06-29_10h11.20.344,Colour_Asymmetry_Pilot,2022.1.3,Win32,60.07810153,62bbe60bf3d75ef465d3e404,,,,,,,,,,,,,,,,,,,,,,,,,,,,,,,,,,,,,,,,,,,,,,,,,,,,,,,,,,,,,,,,,,,,,,,,,,,,,,,,,,,,,,,,,,,,,,,,,,,,,,,,,,,,,,,,,,,,,,,,,,,,,,,,,,,,,,,,,,,,,,,,,,,,,,,,,,,,,,
0,47,47,86,1,,5e5bd71ee0777c3bbe5b108c,62bbfb062e33886c7dd2440a,2022-06-29_10h11.20.344,Colour_Asymmetry_Pilot,2022.1.3,Win32,60.07810153,62bbe60bf3d75ef465d3e404,,,,,,,,,,,,,,,,,,,,,,,,,,,,,,,,,,,,,,,,,,,,,,,,,,,,,,,,,,,,,,,,,,,,,,,,,,,,,,,,,,,,,,,,,,,,,,,,,,,,,,,,,,,,,,,,,,,,,,,,,,,,,,,,,,,,,,,,,,,,,,,,,,,,,,,,,,,,,,
0,48,48,61,1,,5e5bd71ee0777c3bbe5b108c,62bbfb062e33886c7dd2440a,2022-06-29_10h11.20.344,Colour_Asymmetry_Pilot,2022.1.3,Win32,60.07810153,62bbe60bf3d75ef465d3e404,,,,,,,,,,,,,,,,,,,,,,,,,,,,,,,,,,,,,,,,,,,,,,,,,,,,,,,,,,,,,,,,,,,,,,,,,,,,,,,,,,,,,,,,,,,,,,,,,,,,,,,,,,,,,,,,,,,,,,,,,,,,,,,,,,,,,,,,,,,,,,,,,,,,,,,,,,,,,,
0,49,49,87,1,,5e5bd71ee0777c3bbe5b108c,62bbfb062e33886c7dd2440a,2022-06-29_10h11.20.344,Colour_Asymmetry_Pilot,2022.1.3,Win32,60.07810153,62bbe60bf3d75ef465d3e404,,,,,,,,,,,,,,,,,,,,,,,,,,,,,,,,,,,,,,,,,,,,,,,,,,,,,,,,,,,,,,,,,,,,,,,,,,,,,,,,,,,,,,,,,,,,,,,,,,,,,,,,,,,,,,,,,,,,,,,,,,,,,,,,,,,,,,,,,,,,,,,,,,,,,,,,,,,,,,
0,50,50,9,1,,5e5bd71ee0777c3bbe5b108c,62bbfb062e33886c7dd2440a,2022-06-29_10h11.20.344,Colour_Asymmetry_Pilot,2022.1.3,Win32,60.07810153,62bbe60bf3d75ef465d3e404,,,,,,,,,,,,,,,,,,,,,,,,,,,,,,,,,,,,,,,,,,,,,,,,,,,,,,,,,,,,,,,,,,,,,,,,,,,,,,,,,,,,,,,,,,,,,,,,,,,,,,,,,,,,,,,,,,,,,,,,,,,,,,,,,,,,,,,,,,,,,,,,,,,,,,,,,,,,,,
0,51,51,82,1,,5e5bd71ee0777c3bbe5b108c,62bbfb062e33886c7dd2440a,2022-06-29_10h11.20.344,Colour_Asymmetry_Pilot,2022.1.3,Win32,60.07810153,62bbe60bf3d75ef465d3e404,,,,,,,,,,,,,,,,,,,,,,,,,,,,,,,,,,,,,,,,,,,,,,,,,,,,,,,,,,,,,,,,,,,,,,,,,,,,,,,,,,,,,,,,,,,,,,,,,,,,,,,,,,,,,,,,,,,,,,,,,,,,,,,,,,,,,,,,,,,,,,,,,,,,,,,,,,,,,,
0,52,52,52,1,,5e5bd71ee0777c3bbe5b108c,62bbfb062e33886c7dd2440a,2022-06-29_10h11.20.344,Colour_Asymmetry_Pilot,2022.1.3,Win32,60.07810153,62bbe60bf3d75ef465d3e404,,,,,,,,,,,,,,,,,,,,,,,,,,,,,,,,,,,,,,,,,,,,,,,,,,,,,,,,,,,,,,,,,,,,,,,,,,,,,,,,,,,,,,,,,,,,,,,,,,,,,,,,,,,,,,,,,,,,,,,,,,,,,,,,,,,,,,,,,,,,,,,,,,,,,,,,,,,,,,
0,53,53,77,1,,5e5bd71ee0777c3bbe5b108c,62bbfb062e33886c7dd2440a,2022-06-29_10h11.20.344,Colour_Asymmetry_Pilot,2022.1.3,Win32,60.07810153,62bbe60bf3d75ef465d3e404,,,,,,,,,,,,,,,,,,,,,,,,,,,,,,,,,,,,,,,,,,,,,,,,,,,,,,,,,,,,,,,,,,,,,,,,,,,,,,,,,,,,,,,,,,,,,,,,,,,,,,,,,,,,,,,,,,,,,,,,,,,,,,,,,,,,,,,,,,,,,,,,,,,,,,,,,,,,,,
0,54,54,58,1,,5e5bd71ee0777c3bbe5b108c,62bbfb062e33886c7dd2440a,2022-06-29_10h11.20.344,Colour_Asymmetry_Pilot,2022.1.3,Win32,60.07810153,62bbe60bf3d75ef465d3e404,,,,,,,,,,,,,,,,,,,,,,,,,,,,,,,,,,,,,,,,,,,,,,,,,,,,,,,,,,,,,,,,,,,,,,,,,,,,,,,,,,,,,,,,,,,,,,,,,,,,,,,,,,,,,,,,,,,,,,,,,,,,,,,,,,,,,,,,,,,,,,,,,,,,,,,,,,,,,,
0,55,55,21,1,,5e5bd71ee0777c3bbe5b108c,62bbfb062e33886c7dd2440a,2022-06-29_10h11.20.344,Colour_Asymmetry_Pilot,2022.1.3,Win32,60.07810153,62bbe60bf3d75ef465d3e404,,,,,,,,,,,,,,,,,,,,,,,,,,,,,,,,,,,,,,,,,,,,,,,,,,,,,,,,,,,,,,,,,,,,,,,,,,,,,,,,,,,,,,,,,,,,,,,,,,,,,,,,,,,,,,,,,,,,,,,,,,,,,,,,,,,,,,,,,,,,,,,,,,,,,,,,,,,,,,
0,56,56,12,1,,5e5bd71ee0777c3bbe5b108c,62bbfb062e33886c7dd2440a,2022-06-29_10h11.20.344,Colour_Asymmetry_Pilot,2022.1.3,Win32,60.07810153,62bbe60bf3d75ef465d3e404,,,,,,,,,,,,,,,,,,,,,,,,,,,,,,,,,,,,,,,,,,,,,,,,,,,,,,,,,,,,,,,,,,,,,,,,,,,,,,,,,,,,,,,,,,,,,,,,,,,,,,,,,,,,,,,,,,,,,,,,,,,,,,,,,,,,,,,,,,,,,,,,,,,,,,,,,,,,,,
0,57,57,22,1,,5e5bd71ee0777c3bbe5b108c,62bbfb062e33886c7dd2440a,2022-06-29_10h11.20.344,Colour_Asymmetry_Pilot,2022.1.3,Win32,60.07810153,62bbe60bf3d75ef465d3e404,,,,,,,,,,,,,,,,,,,,,,,,,,,,,,,,,,,,,,,,,,,,,,,,,,,,,,,,,,,,,,,,,,,,,,,,,,,,,,,,,,,,,,,,,,,,,,,,,,,,,,,,,,,,,,,,,,,,,,,,,,,,,,,,,,,,,,,,,,,,,,,,,,,,,,,,,,,,,,
0,58,58,56,1,,5e5bd71ee0777c3bbe5b108c,62bbfb062e33886c7dd2440a,2022-06-29_10h11.20.344,Colour_Asymmetry_Pilot,2022.1.3,Win32,60.07810153,62bbe60bf3d75ef465d3e404,,,,,,,,,,,,,,,,,,,,,,,,,,,,,,,,,,,,,,,,,,,,,,,,,,,,,,,,,,,,,,,,,,,,,,,,,,,,,,,,,,,,,,,,,,,,,,,,,,,,,,,,,,,,,,,,,,,,,,,,,,,,,,,,,,,,,,,,,,,,,,,,,,,,,,,,,,,,,,
0,59,59,26,1,,5e5bd71ee0777c3bbe5b108c,62bbfb062e33886c7dd2440a,2022-06-29_10h11.20.344,Colour_Asymmetry_Pilot,2022.1.3,Win32,60.07810153,62bbe60bf3d75ef465d3e404,,,,,,,,,,,,,,,,,,,,,,,,,,,,,,,,,,,,,,,,,,,,,,,,,,,,,,,,,,,,,,,,,,,,,,,,,,,,,,,,,,,,,,,,,,,,,,,,,,,,,,,,,,,,,,,,,,,,,,,,,,,,,,,,,,,,,,,,,,,,,,,,,,,,,,,,,,,,,,
0,60,60,11,1,,5e5bd71ee0777c3bbe5b108c,62bbfb062e33886c7dd2440a,2022-06-29_10h11.20.344,Colour_Asymmetry_Pilot,2022.1.3,Win32,60.07810153,62bbe60bf3d75ef465d3e404,,,,,,,,,,,,,,,,,,,,,,,,,,,,,,,,,,,,,,,,,,,,,,,,,,,,,,,,,,,,,,,,,,,,,,,,,,,,,,,,,,,,,,,,,,,,,,,,,,,,,,,,,,,,,,,,,,,,,,,,,,,,,,,,,,,,,,,,,,,,,,,,,,,,,,,,,,,,,,
0,61,61,62,1,,5e5bd71ee0777c3bbe5b108c,62bbfb062e33886c7dd2440a,2022-06-29_10h11.20.344,Colour_Asymmetry_Pilot,2022.1.3,Win32,60.07810153,62bbe60bf3d75ef465d3e404,,,,,,,,,,,,,,,,,,,,,,,,,,,,,,,,,,,,,,,,,,,,,,,,,,,,,,,,,,,,,,,,,,,,,,,,,,,,,,,,,,,,,,,,,,,,,,,,,,,,,,,,,,,,,,,,,,,,,,,,,,,,,,,,,,,,,,,,,,,,,,,,,,,,,,,,,,,,,,
0,62,62,50,1,,5e5bd71ee0777c3bbe5b108c,62bbfb062e33886c7dd2440a,2022-06-29_10h11.20.344,Colour_Asymmetry_Pilot,2022.1.3,Win32,60.07810153,62bbe60bf3d75ef465d3e404,,,,,,,,,,,,,,,,,,,,,,,,,,,,,,,,,,,,,,,,,,,,,,,,,,,,,,,,,,,,,,,,,,,,,,,,,,,,,,,,,,,,,,,,,,,,,,,,,,,,,,,,,,,,,,,,,,,,,,,,,,,,,,,,,,,,,,,,,,,,,,,,,,,,,,,,,,,,,,
0,63,63,59,1,,5e5bd71ee0777c3bbe5b108c,62bbfb062e33886c7dd2440a,2022-06-29_10h11.20.344,Colour_Asymmetry_Pilot,2022.1.3,Win32,60.07810153,62bbe60bf3d75ef465d3e404,,,,,,,,,,,,,,,,,,,,,,,,,,,,,,,,,,,,,,,,,,,,,,,,,,,,,,,,,,,,,,,,,,,,,,,,,,,,,,,,,,,,,,,,,,,,,,,,,,,,,,,,,,,,,,,,,,,,,,,,,,,,,,,,,,,,,,,,,,,,,,,,,,,,,,,,,,,,,,
0,64,64,74,1,,5e5bd71ee0777c3bbe5b108c,62bbfb062e33886c7dd2440a,2022-06-29_10h11.20.344,Colour_Asymmetry_Pilot,2022.1.3,Win32,60.07810153,62bbe60bf3d75ef465d3e404,,,,,,,,,,,,,,,,,,,,,,,,,,,,,,,,,,,,,,,,,,,,,,,,,,,,,,,,,,,,,,,,,,,,,,,,,,,,,,,,,,,,,,,,,,,,,,,,,,,,,,,,,,,,,,,,,,,,,,,,,,,,,,,,,,,,,,,,,,,,,,,,,,,,,,,,,,,,,,
0,65,65,80,1,,5e5bd71ee0777c3bbe5b108c,62bbfb062e33886c7dd2440a,2022-06-29_10h11.20.344,Colour_Asymmetry_Pilot,2022.1.3,Win32,60.07810153,62bbe60bf3d75ef465d3e404,,,,,,,,,,,,,,,,,,,,,,,,,,,,,,,,,,,,,,,,,,,,,,,,,,,,,,,,,,,,,,,,,,,,,,,,,,,,,,,,,,,,,,,,,,,,,,,,,,,,,,,,,,,,,,,,,,,,,,,,,,,,,,,,,,,,,,,,,,,,,,,,,,,,,,,,,,,,,,
0,66,66,44,1,,5e5bd71ee0777c3bbe5b108c,62bbfb062e33886c7dd2440a,2022-06-29_10h11.20.344,Colour_Asymmetry_Pilot,2022.1.3,Win32,60.07810153,62bbe60bf3d75ef465d3e404,,,,,,,,,,,,,,,,,,,,,,,,,,,,,,,,,,,,,,,,,,,,,,,,,,,,,,,,,,,,,,,,,,,,,,,,,,,,,,,,,,,,,,,,,,,,,,,,,,,,,,,,,,,,,,,,,,,,,,,,,,,,,,,,,,,,,,,,,,,,,,,,,,,,,,,,,,,,,,
0,67,67,23,1,,5e5bd71ee0777c3bbe5b108c,62bbfb062e33886c7dd2440a,2022-06-29_10h11.20.344,Colour_Asymmetry_Pilot,2022.1.3,Win32,60.07810153,62bbe60bf3d75ef465d3e404,,,,,,,,,,,,,,,,,,,,,,,,,,,,,,,,,,,,,,,,,,,,,,,,,,,,,,,,,,,,,,,,,,,,,,,,,,,,,,,,,,,,,,,,,,,,,,,,,,,,,,,,,,,,,,,,,,,,,,,,,,,,,,,,,,,,,,,,,,,,,,,,,,,,,,,,,,,,,,
0,68,68,4,1,,5e5bd71ee0777c3bbe5b108c,62bbfb062e33886c7dd2440a,2022-06-29_10h11.20.344,Colour_Asymmetry_Pilot,2022.1.3,Win32,60.07810153,62bbe60bf3d75ef465d3e404,,,,,,,,,,,,,,,,,,,,,,,,,,,,,,,,,,,,,,,,,,,,,,,,,,,,,,,,,,,,,,,,,,,,,,,,,,,,,,,,,,,,,,,,,,,,,,,,,,,,,,,,,,,,,,,,,,,,,,,,,,,,,,,,,,,,,,,,,,,,,,,,,,,,,,,,,,,,,,
0,69,69,70,1,,5e5bd71ee0777c3bbe5b108c,62bbfb062e33886c7dd2440a,2022-06-29_10h11.20.344,Colour_Asymmetry_Pilot,2022.1.3,Win32,60.07810153,62bbe60bf3d75ef465d3e404,,,,,,,,,,,,,,,,,,,,,,,,,,,,,,,,,,,,,,,,,,,,,,,,,,,,,,,,,,,,,,,,,,,,,,,,,,,,,,,,,,,,,,,,,,,,,,,,,,,,,,,,,,,,,,,,,,,,,,,,,,,,,,,,,,,,,,,,,,,,,,,,,,,,,,,,,,,,,,
0,70,70,24,1,,5e5bd71ee0777c3bbe5b108c,62bbfb062e33886c7dd2440a,2022-06-29_10h11.20.344,Colour_Asymmetry_Pilot,2022.1.3,Win32,60.07810153,62bbe60bf3d75ef465d3e404,,,,,,,,,,,,,,,,,,,,,,,,,,,,,,,,,,,,,,,,,,,,,,,,,,,,,,,,,,,,,,,,,,,,,,,,,,,,,,,,,,,,,,,,,,,,,,,,,,,,,,,,,,,,,,,,,,,,,,,,,,,,,,,,,,,,,,,,,,,,,,,,,,,,,,,,,,,,,,
0,71,71,7,1,,5e5bd71ee0777c3bbe5b108c,62bbfb062e33886c7dd2440a,2022-06-29_10h11.20.344,Colour_Asymmetry_Pilot,2022.1.3,Win32,60.07810153,62bbe60bf3d75ef465d3e404,,,,,,,,,,,,,,,,,,,,,,,,,,,,,,,,,,,,,,,,,,,,,,,,,,,,,,,,,,,,,,,,,,,,,,,,,,,,,,,,,,,,,,,,,,,,,,,,,,,,,,,,,,,,,,,,,,,,,,,,,,,,,,,,,,,,,,,,,,,,,,,,,,,,,,,,,,,,,,
0,72,72,53,1,,5e5bd71ee0777c3bbe5b108c,62bbfb062e33886c7dd2440a,2022-06-29_10h11.20.344,Colour_Asymmetry_Pilot,2022.1.3,Win32,60.07810153,62bbe60bf3d75ef465d3e404,,,,,,,,,,,,,,,,,,,,,,,,,,,,,,,,,,,,,,,,,,,,,,,,,,,,,,,,,,,,,,,,,,,,,,,,,,,,,,,,,,,,,,,,,,,,,,,,,,,,,,,,,,,,,,,,,,,,,,,,,,,,,,,,,,,,,,,,,,,,,,,,,,,,,,,,,,,,,,
0,73,73,85,1,,5e5bd71ee0777c3bbe5b108c,62bbfb062e33886c7dd2440a,2022-06-29_10h11.20.344,Colour_Asymmetry_Pilot,2022.1.3,Win32,60.07810153,62bbe60bf3d75ef465d3e404,,,,,,,,,,,,,,,,,,,,,,,,,,,,,,,,,,,,,,,,,,,,,,,,,,,,,,,,,,,,,,,,,,,,,,,,,,,,,,,,,,,,,,,,,,,,,,,,,,,,,,,,,,,,,,,,,,,,,,,,,,,,,,,,,,,,,,,,,,,,,,,,,,,,,,,,,,,,,,
0,74,74,29,1,,5e5bd71ee0777c3bbe5b108c,62bbfb062e33886c7dd2440a,2022-06-29_10h11.20.344,Colour_Asymmetry_Pilot,2022.1.3,Win32,60.07810153,62bbe60bf3d75ef465d3e404,,,,,,,,,,,,,,,,,,,,,,,,,,,,,,,,,,,,,,,,,,,,,,,,,,,,,,,,,,,,,,,,,,,,,,,,,,,,,,,,,,,,,,,,,,,,,,,,,,,,,,,,,,,,,,,,,,,,,,,,,,,,,,,,,,,,,,,,,,,,,,,,,,,,,,,,,,,,,,
0,75,75,66,1,,5e5bd71ee0777c3bbe5b108c,62bbfb062e33886c7dd2440a,2022-06-29_10h11.20.344,Colour_Asymmetry_Pilot,2022.1.3,Win32,60.07810153,62bbe60bf3d75ef465d3e404,,,,,,,,,,,,,,,,,,,,,,,,,,,,,,,,,,,,,,,,,,,,,,,,,,,,,,,,,,,,,,,,,,,,,,,,,,,,,,,,,,,,,,,,,,,,,,,,,,,,,,,,,,,,,,,,,,,,,,,,,,,,,,,,,,,,,,,,,,,,,,,,,,,,,,,,,,,,,,
0,76,76,15,1,,5e5bd71ee0777c3bbe5b108c,62bbfb062e33886c7dd2440a,2022-06-29_10h11.20.344,Colour_Asymmetry_Pilot,2022.1.3,Win32,60.07810153,62bbe60bf3d75ef465d3e404,,,,,,,,,,,,,,,,,,,,,,,,,,,,,,,,,,,,,,,,,,,,,,,,,,,,,,,,,,,,,,,,,,,,,,,,,,,,,,,,,,,,,,,,,,,,,,,,,,,,,,,,,,,,,,,,,,,,,,,,,,,,,,,,,,,,,,,,,,,,,,,,,,,,,,,,,,,,,,
0,77,77,41,1,,5e5bd71ee0777c3bbe5b108c,62bbfb062e33886c7dd2440a,2022-06-29_10h11.20.344,Colour_Asymmetry_Pilot,2022.1.3,Win32,60.07810153,62bbe60bf3d75ef465d3e404,,,,,,,,,,,,,,,,,,,,,,,,,,,,,,,,,,,,,,,,,,,,,,,,,,,,,,,,,,,,,,,,,,,,,,,,,,,,,,,,,,,,,,,,,,,,,,,,,,,,,,,,,,,,,,,,,,,,,,,,,,,,,,,,,,,,,,,,,,,,,,,,,,,,,,,,,,,,,,
0,78,78,89,1,,5e5bd71ee0777c3bbe5b108c,62bbfb062e33886c7dd2440a,2022-06-29_10h11.20.344,Colour_Asymmetry_Pilot,2022.1.3,Win32,60.07810153,62bbe60bf3d75ef465d3e404,,,,,,,,,,,,,,,,,,,,,,,,,,,,,,,,,,,,,,,,,,,,,,,,,,,,,,,,,,,,,,,,,,,,,,,,,,,,,,,,,,,,,,,,,,,,,,,,,,,,,,,,,,,,,,,,,,,,,,,,,,,,,,,,,,,,,,,,,,,,,,,,,,,,,,,,,,,,,,
0,79,79,17,1,,5e5bd71ee0777c3bbe5b108c,62bbfb062e33886c7dd2440a,2022-06-29_10h11.20.344,Colour_Asymmetry_Pilot,2022.1.3,Win32,60.07810153,62bbe60bf3d75ef465d3e404,,,,,,,,,,,,,,,,,,,,,,,,,,,,,,,,,,,,,,,,,,,,,,,,,,,,,,,,,,,,,,,,,,,,,,,,,,,,,,,,,,,,,,,,,,,,,,,,,,,,,,,,,,,,,,,,,,,,,,,,,,,,,,,,,,,,,,,,,,,,,,,,,,,,,,,,,,,,,,
0,80,80,91,1,,5e5bd71ee0777c3bbe5b108c,62bbfb062e33886c7dd2440a,2022-06-29_10h11.20.344,Colour_Asymmetry_Pilot,2022.1.3,Win32,60.07810153,62bbe60bf3d75ef465d3e404,,,,,,,,,,,,,,,,,,,,,,,,,,,,,,,,,,,,,,,,,,,,,,,,,,,,,,,,,,,,,,,,,,,,,,,,,,,,,,,,,,,,,,,,,,,,,,,,,,,,,,,,,,,,,,,,,,,,,,,,,,,,,,,,,,,,,,,,,,,,,,,,,,,,,,,,,,,,,,
0,81,81,51,1,,5e5bd71ee0777c3bbe5b108c,62bbfb062e33886c7dd2440a,2022-06-29_10h11.20.344,Colour_Asymmetry_Pilot,2022.1.3,Win32,60.07810153,62bbe60bf3d75ef465d3e404,,,,,,,,,,,,,,,,,,,,,,,,,,,,,,,,,,,,,,,,,,,,,,,,,,,,,,,,,,,,,,,,,,,,,,,,,,,,,,,,,,,,,,,,,,,,,,,,,,,,,,,,,,,,,,,,,,,,,,,,,,,,,,,,,,,,,,,,,,,,,,,,,,,,,,,,,,,,,,
0,82,82,37,1,,5e5bd71ee0777c3bbe5b108c,62bbfb062e33886c7dd2440a,2022-06-29_10h11.20.344,Colour_Asymmetry_Pilot,2022.1.3,Win32,60.07810153,62bbe60bf3d75ef465d3e404,,,,,,,,,,,,,,,,,,,,,,,,,,,,,,,,,,,,,,,,,,,,,,,,,,,,,,,,,,,,,,,,,,,,,,,,,,,,,,,,,,,,,,,,,,,,,,,,,,,,,,,,,,,,,,,,,,,,,,,,,,,,,,,,,,,,,,,,,,,,,,,,,,,,,,,,,,,,,,
0,83,83,46,1,,5e5bd71ee0777c3bbe5b108c,62bbfb062e33886c7dd2440a,2022-06-29_10h11.20.344,Colour_Asymmetry_Pilot,2022.1.3,Win32,60.07810153,62bbe60bf3d75ef465d3e404,,,,,,,,,,,,,,,,,,,,,,,,,,,,,,,,,,,,,,,,,,,,,,,,,,,,,,,,,,,,,,,,,,,,,,,,,,,,,,,,,,,,,,,,,,,,,,,,,,,,,,,,,,,,,,,,,,,,,,,,,,,,,,,,,,,,,,,,,,,,,,,,,,,,,,,,,,,,,,
0,84,84,30,1,,5e5bd71ee0777c3bbe5b108c,62bbfb062e33886c7dd2440a,2022-06-29_10h11.20.344,Colour_Asymmetry_Pilot,2022.1.3,Win32,60.07810153,62bbe60bf3d75ef465d3e404,,,,,,,,,,,,,,,,,,,,,,,,,,,,,,,,,,,,,,,,,,,,,,,,,,,,,,,,,,,,,,,,,,,,,,,,,,,,,,,,,,,,,,,,,,,,,,,,,,,,,,,,,,,,,,,,,,,,,,,,,,,,,,,,,,,,,,,,,,,,,,,,,,,,,,,,,,,,,,
0,85,85,27,1,,5e5bd71ee0777c3bbe5b108c,62bbfb062e33886c7dd2440a,2022-06-29_10h11.20.344,Colour_Asymmetry_Pilot,2022.1.3,Win32,60.07810153,62bbe60bf3d75ef465d3e404,,,,,,,,,,,,,,,,,,,,,,,,,,,,,,,,,,,,,,,,,,,,,,,,,,,,,,,,,,,,,,,,,,,,,,,,,,,,,,,,,,,,,,,,,,,,,,,,,,,,,,,,,,,,,,,,,,,,,,,,,,,,,,,,,,,,,,,,,,,,,,,,,,,,,,,,,,,,,,
0,86,86,25,1,,5e5bd71ee0777c3bbe5b108c,62bbfb062e33886c7dd2440a,2022-06-29_10h11.20.344,Colour_Asymmetry_Pilot,2022.1.3,Win32,60.07810153,62bbe60bf3d75ef465d3e404,,,,,,,,,,,,,,,,,,,,,,,,,,,,,,,,,,,,,,,,,,,,,,,,,,,,,,,,,,,,,,,,,,,,,,,,,,,,,,,,,,,,,,,,,,,,,,,,,,,,,,,,,,,,,,,,,,,,,,,,,,,,,,,,,,,,,,,,,,,,,,,,,,,,,,,,,,,,,,
0,87,87,84,1,,5e5bd71ee0777c3bbe5b108c,62bbfb062e33886c7dd2440a,2022-06-29_10h11.20.344,Colour_Asymmetry_Pilot,2022.1.3,Win32,60.07810153,62bbe60bf3d75ef465d3e404,,,,,,,,,,,,,,,,,,,,,,,,,,,,,,,,,,,,,,,,,,,,,,,,,,,,,,,,,,,,,,,,,,,,,,,,,,,,,,,,,,,,,,,,,,,,,,,,,,,,,,,,,,,,,,,,,,,,,,,,,,,,,,,,,,,,,,,,,,,,,,,,,,,,,,,,,,,,,,
0,88,88,13,1,,5e5bd71ee0777c3bbe5b108c,62bbfb062e33886c7dd2440a,2022-06-29_10h11.20.344,Colour_Asymmetry_Pilot,2022.1.3,Win32,60.07810153,62bbe60bf3d75ef465d3e404,,,,,,,,,,,,,,,,,,,,,,,,,,,,,,,,,,,,,,,,,,,,,,,,,,,,,,,,,,,,,,,,,,,,,,,,,,,,,,,,,,,,,,,,,,,,,,,,,,,,,,,,,,,,,,,,,,,,,,,,,,,,,,,,,,,,,,,,,,,,,,,,,,,,,,,,,,,,,,
0,89,89,32,1,,5e5bd71ee0777c3bbe5b108c,62bbfb062e33886c7dd2440a,2022-06-29_10h11.20.344,Colour_Asymmetry_Pilot,2022.1.3,Win32,60.07810153,62bbe60bf3d75ef465d3e404,,,,,,,,,,,,,,,,,,,,,,,,,,,,,,,,,,,,,,,,,,,,,,,,,,,,,,,,,,,,,,,,,,,,,,,,,,,,,,,,,,,,,,,,,,,,,,,,,,,,,,,,,,,,,,,,,,,,,,,,,,,,,,,,,,,,,,,,,,,,,,,,,,,,,,,,,,,,,,
0,90,90,60,1,,5e5bd71ee0777c3bbe5b108c,62bbfb062e33886c7dd2440a,2022-06-29_10h11.20.344,Colour_Asymmetry_Pilot,2022.1.3,Win32,60.07810153,62bbe60bf3d75ef465d3e404,,,,,,,,,,,,,,,,,,,,,,,,,,,,,,,,,,,,,,,,,,,,,,,,,,,,,,,,,,,,,,,,,,,,,,,,,,,,,,,,,,,,,,,,,,,,,,,,,,,,,,,,,,,,,,,,,,,,,,,,,,,,,,,,,,,,,,,,,,,,,,,,,,,,,,,,,,,,,,
0,91,91,2,1,,5e5bd71ee0777c3bbe5b108c,62bbfb062e33886c7dd2440a,2022-06-29_10h11.20.344,Colour_Asymmetry_Pilot,2022.1.3,Win32,60.07810153,62bbe60bf3d75ef465d3e404,,,,,,,,,,,,,,,,,,,,,,,,,,,,,,,,,,,,,,,,,,,,,,,,,,,,,,,,,,,,,,,,,,,,,,,,,,,,,,,,,,,,,,,,,,,,,,,,,,,,,,,,,,,,,,,,,,,,,,,,,,,,,,,,,,,,,,,,,,,,,,,,,,,,,,,,,,,,,,
0,92,92,81,1,,5e5bd71ee0777c3bbe5b108c,62bbfb062e33886c7dd2440a,2022-06-29_10h11.20.344,Colour_Asymmetry_Pilot,2022.1.3,Win32,60.07810153,62bbe60bf3d75ef465d3e404,,,,,,,,,,,,,,,,,,,,,,,,,,,,,,,,,,,,,,,,,,,,,,,,,,,,,,,,,,,,,,,,,,,,,,,,,,,,,,,,,,,,,,,,,,,,,,,,,,,,,,,,,,,,,,,,,,,,,,,,,,,,,,,,,,,,,,,,,,,,,,,,,,,,,,,,,,,,,,
,,,,,,5e5bd71ee0777c3bbe5b108c,62bbfb062e33886c7dd2440a,2022-06-29_10h11.20.344,Colour_Asymmetry_Pilot,2022.1.3,Win32,60.07810153,62bbe60bf3d75ef465d3e404,0,0,0,131,1,twofour,,,,,,,,,,,,,,,,,,,,,,,,,,,,,,,,,,,,,,,,,,,,,,,,,,,,,,,,,,,,,,,,,,,,,,,,,,,,,,,,,,,,,,,,,,,,,,,,,,,,,,,,,,,,,,,,,,,,,,,,,,,,,,,,,,,,,,,,,,,,,,,,,,,,,,,,
,,,,,,5e5bd71ee0777c3bbe5b108c,62bbfb062e33886c7dd2440a,2022-06-29_10h11.20.344,Colour_Asymmetry_Pilot,2022.1.3,Win32,60.07810153,62bbe60bf3d75ef465d3e404,0,1,1,52,1,threeone,,,,,,,,,,,,,,,,,,,,,,,,,,,,,,,,,,,,,,,,,,,,,,,,,,,,,,,,,,,,,,,,,,,,,,,,,,,,,,,,,,,,,,,,,,,,,,,,,,,,,,,,,,,,,,,,,,,,,,,,,,,,,,,,,,,,,,,,,,,,,,,,,,,,,,,,
,,,,,,5e5bd71ee0777c3bbe5b108c,62bbfb062e33886c7dd2440a,2022-06-29_10h11.20.344,Colour_Asymmetry_Pilot,2022.1.3,Win32,60.07810153,62bbe60bf3d75ef465d3e404,0,2,2,159,1,fourthree,,,,,,,,,,,,,,,,,,,,,,,,,,,,,,,,,,,,,,,,,,,,,,,,,,,,,,,,,,,,,,,,,,,,,,,,,,,,,,,,,,,,,,,,,,,,,,,,,,,,,,,,,,,,,,,,,,,,,,,,,,,,,,,,,,,,,,,,,,,,,,,,,,,,,,,,
,,,,,,5e5bd71ee0777c3bbe5b108c,62bbfb062e33886c7dd2440a,2022-06-29_10h11.20.344,Colour_Asymmetry_Pilot,2022.1.3,Win32,60.07810153,62bbe60bf3d75ef465d3e404,0,3,3,25,1,onethree,,,,,,,,,,,,,,,,,,,,,,,,,,,,,,,,,,,,,,,,,,,,,,,,,,,,,,,,,,,,,,,,,,,,,,,,,,,,,,,,,,,,,,,,,,,,,,,,,,,,,,,,,,,,,,,,,,,,,,,,,,,,,,,,,,,,,,,,,,,,,,,,,,,,,,,,
,,,,,,5e5bd71ee0777c3bbe5b108c,62bbfb062e33886c7dd2440a,2022-06-29_10h11.20.344,Colour_Asymmetry_Pilot,2022.1.3,Win32,60.07810153,62bbe60bf3d75ef465d3e404,0,4,4,16,1,onetwo,,,,,,,,,,,,,,,,,,,,,,,,,,,,,,,,,,,,,,,,,,,,,,,,,,,,,,,,,,,,,,,,,,,,,,,,,,,,,,,,,,,,,,,,,,,,,,,,,,,,,,,,,,,,,,,,,,,,,,,,,,,,,,,,,,,,,,,,,,,,,,,,,,,,,,,,
,,,,,,5e5bd71ee0777c3bbe5b108c,62bbfb062e33886c7dd2440a,2022-06-29_10h11.20.344,Colour_Asymmetry_Pilot,2022.1.3,Win32,60.07810153,62bbe60bf3d75ef465d3e404,0,5,5,92,1,threeone,,,,,,,,,,,,,,,,,,,,,,,,,,,,,,,,,,,,,,,,,,,,,,,,,,,,,,,,,,,,,,,,,,,,,,,,,,,,,,,,,,,,,,,,,,,,,,,,,,,,,,,,,,,,,,,,,,,,,,,,,,,,,,,,,,,,,,,,,,,,,,,,,,,,,,,,
,,,,,,5e5bd71ee0777c3bbe5b108c,62bbfb062e33886c7dd2440a,2022-06-29_10h11.20.344,Colour_Asymmetry_Pilot,2022.1.3,Win32,60.07810153,62bbe60bf3d75ef465d3e404,0,6,6,17,1,onethree,,,,,,,,,,,,,,,,,,,,,,,,,,,,,,,,,,,,,,,,,,,,,,,,,,,,,,,,,,,,,,,,,,,,,,,,,,,,,,,,,,,,,,,,,,,,,,,,,,,,,,,,,,,,,,,,,,,,,,,,,,,,,,,,,,,,,,,,,,,,,,,,,,,,,,,,
,,,,,,5e5bd71ee0777c3bbe5b108c,62bbfb062e33886c7dd2440a,2022-06-29_10h11.20.344,Colour_Asymmetry_Pilot,2022.1.3,Win32,60.07810153,62bbe60bf3d75ef465d3e404,0,7,7,90,1,twoone,,,,,,,,,,,,,,,,,,,,,,,,,,,,,,,,,,,,,,,,,,,,,,,,,,,,,,,,,,,,,,,,,,,,,,,,,,,,,,,,,,,,,,,,,,,,,,,,,,,,,,,,,,,,,,,,,,,,,,,,,,,,,,,,,,,,,,,,,,,,,,,,,,,,,,,,
,,,,,,5e5bd71ee0777c3bbe5b108c,62bbfb062e33886c7dd2440a,2022-06-29_10h11.20.344,Colour_Asymmetry_Pilot,2022.1.3,Win32,60.07810153,62bbe60bf3d75ef465d3e404,0,8,8,32,1,onetwo,,,,,,,,,,,,,,,,,,,,,,,,,,,,,,,,,,,,,,,,,,,,,,,,,,,,,,,,,,,,,,,,,,,,,,,,,,,,,,,,,,,,,,,,,,,,,,,,,,,,,,,,,,,,,,,,,,,,,,,,,,,,,,,,,,,,,,,,,,,,,,,,,,,,,,,,
,,,,,,5e5bd71ee0777c3bbe5b108c,62bbfb062e33886c7dd2440a,2022-06-29_10h11.20.344,Colour_Asymmetry_Pilot,2022.1.3,Win32,60.07810153,62bbe60bf3d75ef465d3e404,0,9,9,125,1,threefour,,,,,,,,,,,,,,,,,,,,,,,,,,,,,,,,,,,,,,,,,,,,,,,,,,,,,,,,,,,,,,,,,,,,,,,,,,,,,,,,,,,,,,,,,,,,,,,,,,,,,,,,,,,,,,,,,,,,,,,,,,,,,,,,,,,,,,,,,,,,,,,,,,,,,,,,
,,,,,,5e5bd71ee0777c3bbe5b108c,62bbfb062e33886c7dd2440a,2022-06-29_10h11.20.344,Colour_Asymmetry_Pilot,2022.1.3,Win32,60.07810153,62bbe60bf3d75ef465d3e404,0,10,10,89,1,onethree,,,,,,,,,,,,,,,,,,,,,,,,,,,,,,,,,,,,,,,,,,,,,,,,,,,,,,,,,,,,,,,,,,,,,,,,,,,,,,,,,,,,,,,,,,,,,,,,,,,,,,,,,,,,,,,,,,,,,,,,,,,,,,,,,,,,,,,,,,,,,,,,,,,,,,,,
,,,,,,5e5bd71ee0777c3bbe5b108c,62bbfb062e33886c7dd2440a,2022-06-29_10h11.20.344,Colour_Asymmetry_Pilot,2022.1.3,Win32,60.07810153,62bbe60bf3d75ef465d3e404,0,11,11,111,1,fourthree,,,,,,,,,,,,,,,,,,,,,,,,,,,,,,,,,,,,,,,,,,,,,,,,,,,,,,,,,,,,,,,,,,,,,,,,,,,,,,,,,,,,,,,,,,,,,,,,,,,,,,,,,,,,,,,,,,,,,,,,,,,,,,,,,,,,,,,,,,,,,,,,,,,,,,,,
,,,,,,5e5bd71ee0777c3bbe5b108c,62bbfb062e33886c7dd2440a,2022-06-29_10h11.20.344,Colour_Asymmetry_Pilot,2022.1.3,Win32,60.07810153,62bbe60bf3d75ef465d3e404,0,12,12,137,1,onethree,,,,,,,,,,,,,,,,,,,,,,,,,,,,,,,,,,,,,,,,,,,,,,,,,,,,,,,,,,,,,,,,,,,,,,,,,,,,,,,,,,,,,,,,,,,,,,,,,,,,,,,,,,,,,,,,,,,,,,,,,,,,,,,,,,,,,,,,,,,,,,,,,,,,,,,,
,,,,,,5e5bd71ee0777c3bbe5b108c,62bbfb062e33886c7dd2440a,2022-06-29_10h11.20.344,Colour_Asymmetry_Pilot,2022.1.3,Win32,60.07810153,62bbe60bf3d75ef465d3e404,0,13,13,0,1,onetwo,,,,,,,,,,,,,,,,,,,,,,,,,,,,,,,,,,,,,,,,,,,,,,,,,,,,,,,,,,,,,,,,,,,,,,,,,,,,,,,,,,,,,,,,,,,,,,,,,,,,,,,,,,,,,,,,,,,,,,,,,,,,,,,,,,,,,,,,,,,,,,,,,,,,,,,,
,,,,,,5e5bd71ee0777c3bbe5b108c,62bbfb062e33886c7dd2440a,2022-06-29_10h11.20.344,Colour_Asymmetry_Pilot,2022.1.3,Win32,60.07810153,62bbe60bf3d75ef465d3e404,0,14,14,73,1,onethree,,,,,,,,,,,,,,,,,,,,,,,,,,,,,,,,,,,,,,,,,,,,,,,,,,,,,,,,,,,,,,,,,,,,,,,,,,,,,,,,,,,,,,,,,,,,,,,,,,,,,,,,,,,,,,,,,,,,,,,,,,,,,,,,,,,,,,,,,,,,,,,,,,,,,,,,
,,,,,,5e5bd71ee0777c3bbe5b108c,62bbfb062e33886c7dd2440a,2022-06-29_10h11.20.344,Colour_Asymmetry_Pilot,2022.1.3,Win32,60.07810153,62bbe60bf3d75ef465d3e404,0,15,15,77,1,threefour,,,,,,,,,,,,,,,,,,,,,,,,,,,,,,,,,,,,,,,,,,,,,,,,,,,,,,,,,,,,,,,,,,,,,,,,,,,,,,,,,,,,,,,,,,,,,,,,,,,,,,,,,,,,,,,,,,,,,,,,,,,,,,,,,,,,,,,,,,,,,,,,,,,,,,,,
,,,,,,5e5bd71ee0777c3bbe5b108c,62bbfb062e33886c7dd2440a,2022-06-29_10h11.20.344,Colour_Asymmetry_Pilot,2022.1.3,Win32,60.07810153,62bbe60bf3d75ef465d3e404,0,16,16,11,1,twofour,,,,,,,,,,,,,,,,,,,,,,,,,,,,,,,,,,,,,,,,,,,,,,,,,,,,,,,,,,,,,,,,,,,,,,,,,,,,,,,,,,,,,,,,,,,,,,,,,,,,,,,,,,,,,,,,,,,,,,,,,,,,,,,,,,,,,,,,,,,,,,,,,,,,,,,,
,,,,,,5e5bd71ee0777c3bbe5b108c,62bbfb062e33886c7dd2440a,2022-06-29_10h11.20.344,Colour_Asymmetry_Pilot,2022.1.3,Win32,60.07810153,62bbe60bf3d75ef465d3e404,0,17,17,9,1,onethree,,,,,,,,,,,,,,,,,,,,,,,,,,,,,,,,,,,,,,,,,,,,,,,,,,,,,,,,,,,,,,,,,,,,,,,,,,,,,,,,,,,,,,,,,,,,,,,,,,,,,,,,,,,,,,,,,,,,,,,,,,,,,,,,,,,,,,,,,,,,,,,,,,,,,,,,
,,,,,,5e5bd71ee0777c3bbe5b108c,62bbfb062e33886c7dd2440a,2022-06-29_10h11.20.344,Colour_Asymmetry_Pilot,2022.1.3,Win32,60.07810153,62bbe60bf3d75ef465d3e404,0,18,18,109,1,threefour,,,,,,,,,,,,,,,,,,,,,,,,,,,,,,,,,,,,,,,,,,,,,,,,,,,,,,,,,,,,,,,,,,,,,,,,,,,,,,,,,,,,,,,,,,,,,,,,,,,,,,,,,,,,,,,,,,,,,,,,,,,,,,,,,,,,,,,,,,,,,,,,,,,,,,,,
,,,,,,5e5bd71ee0777c3bbe5b108c,62bbfb062e33886c7dd2440a,2022-06-29_10h11.20.344,Colour_Asymmetry_Pilot,2022.1.3,Win32,60.07810153,62bbe60bf3d75ef465d3e404,0,19,19,14,1,fourtwo,,,,,,,,,,,,,,,,,,,,,,,,,,,,,,,,,,,,,,,,,,,,,,,,,,,,,,,,,,,,,,,,,,,,,,,,,,,,,,,,,,,,,,,,,,,,,,,,,,,,,,,,,,,,,,,,,,,,,,,,,,,,,,,,,,,,,,,,,,,,,,,,,,,,,,,,
,,,,,,5e5bd71ee0777c3bbe5b108c,62bbfb062e33886c7dd2440a,2022-06-29_10h11.20.344,Colour_Asymmetry_Pilot,2022.1.3,Win32,60.07810153,62bbe60bf3d75ef465d3e404,0,20,20,55,1,fourthree,,,,,,,,,,,,,,,,,,,,,,,,,,,,,,,,,,,,,,,,,,,,,,,,,,,,,,,,,,,,,,,,,,,,,,,,,,,,,,,,,,,,,,,,,,,,,,,,,,,,,,,,,,,,,,,,,,,,,,,,,,,,,,,,,,,,,,,,,,,,,,,,,,,,,,,,
,,,,,,5e5bd71ee0777c3bbe5b108c,62bbfb062e33886c7dd2440a,2022-06-29_10h11.20.344,Colour_Asymmetry_Pilot,2022.1.3,Win32,60.07810153,62bbe60bf3d75ef465d3e404,0,21,21,44,1,threeone,,,,,,,,,,,,,,,,,,,,,,,,,,,,,,,,,,,,,,,,,,,,,,,,,,,,,,,,,,,,,,,,,,,,,,,,,,,,,,,,,,,,,,,,,,,,,,,,,,,,,,,,,,,,,,,,,,,,,,,,,,,,,,,,,,,,,,,,,,,,,,,,,,,,,,,,
,,,,,,5e5bd71ee0777c3bbe5b108c,62bbfb062e33886c7dd2440a,2022-06-29_10h11.20.344,Colour_Asymmetry_Pilot,2022.1.3,Win32,60.07810153,62bbe60bf3d75ef465d3e404,0,22,22,67,1,twofour,,,,,,,,,,,,,,,,,,,,,,,,,,,,,,,,,,,,,,,,,,,,,,,,,,,,,,,,,,,,,,,,,,,,,,,,,,,,,,,,,,,,,,,,,,,,,,,,,,,,,,,,,,,,,,,,,,,,,,,,,,,,,,,,,,,,,,,,,,,,,,,,,,,,,,,,
,,,,,,5e5bd71ee0777c3bbe5b108c,62bbfb062e33886c7dd2440a,2022-06-29_10h11.20.344,Colour_Asymmetry_Pilot,2022.1.3,Win32,60.07810153,62bbe60bf3d75ef465d3e404,0,23,23,136,1,onetwo,,,,,,,,,,,,,,,,,,,,,,,,,,,,,,,,,,,,,,,,,,,,,,,,,,,,,,,,,,,,,,,,,,,,,,,,,,,,,,,,,,,,,,,,,,,,,,,,,,,,,,,,,,,,,,,,,,,,,,,,,,,,,,,,,,,,,,,,,,,,,,,,,,,,,,,,
,,,,,,5e5bd71ee0777c3bbe5b108c,62bbfb062e33886c7dd2440a,2022-06-29_10h11.20.344,Colour_Asymmetry_Pilot,2022.1.3,Win32,60.07810153,62bbe60bf3d75ef465d3e404,0,24,24,116,1,threeone,,,,,,,,,,,,,,,,,,,,,,,,,,,,,,,,,,,,,,,,,,,,,,,,,,,,,,,,,,,,,,,,,,,,,,,,,,,,,,,,,,,,,,,,,,,,,,,,,,,,,,,,,,,,,,,,,,,,,,,,,,,,,,,,,,,,,,,,,,,,,,,,,,,,,,,,
,,,,,,5e5bd71ee0777c3bbe5b108c,62bbfb062e33886c7dd2440a,2022-06-29_10h11.20.344,Colour_Asymmetry_Pilot,2022.1.3,Win32,60.07810153,62bbe60bf3d75ef465d3e404,0,25,25,112,1,onetwo,,,,,,,,,,,,,,,,,,,,,,,,,,,,,,,,,,,,,,,,,,,,,,,,,,,,,,,,,,,,,,,,,,,,,,,,,,,,,,,,,,,,,,,,,,,,,,,,,,,,,,,,,,,,,,,,,,,,,,,,,,,,,,,,,,,,,,,,,,,,,,,,,,,,,,,,
,,,,,,5e5bd71ee0777c3bbe5b108c,62bbfb062e33886c7dd2440a,2022-06-29_10h11.20.344,Colour_Asymmetry_Pilot,2022.1.3,Win32,60.07810153,62bbe60bf3d75ef465d3e404,0,26,26,66,1,twoone,,,,,,,,,,,,,,,,,,,,,,,,,,,,,,,,,,,,,,,,,,,,,,,,,,,,,,,,,,,,,,,,,,,,,,,,,,,,,,,,,,,,,,,,,,,,,,,,,,,,,,,,,,,,,,,,,,,,,,,,,,,,,,,,,,,,,,,,,,,,,,,,,,,,,,,,
,,,,,,5e5bd71ee0777c3bbe5b108c,62bbfb062e33886c7dd2440a,2022-06-29_10h11.20.344,Colour_Asymmetry_Pilot,2022.1.3,Win32,60.07810153,62bbe60bf3d75ef465d3e404,0,27,27,43,1,twofour,,,,,,,,,,,,,,,,,,,,,,,,,,,,,,,,,,,,,,,,,,,,,,,,,,,,,,,,,,,,,,,,,,,,,,,,,,,,,,,,,,,,,,,,,,,,,,,,,,,,,,,,,,,,,,,,,,,,,,,,,,,,,,,,,,,,,,,,,,,,,,,,,,,,,,,,
,,,,,,5e5bd71ee0777c3bbe5b108c,62bbfb062e33886c7dd2440a,2022-06-29_10h11.20.344,Colour_Asymmetry_Pilot,2022.1.3,Win32,60.07810153,62bbe60bf3d75ef465d3e404,0,28,28,144,1,onetwo,,,,,,,,,,,,,,,,,,,,,,,,,,,,,,,,,,,,,,,,,,,,,,,,,,,,,,,,,,,,,,,,,,,,,,,,,,,,,,,,,,,,,,,,,,,,,,,,,,,,,,,,,,,,,,,,,,,,,,,,,,,,,,,,,,,,,,,,,,,,,,,,,,,,,,,,
,,,,,,5e5bd71ee0777c3bbe5b108c,62bbfb062e33886c7dd2440a,2022-06-29_10h11.20.344,Colour_Asymmetry_Pilot,2022.1.3,Win32,60.07810153,62bbe60bf3d75ef465d3e404,0,29,29,126,1,fourtwo,,,,,,,,,,,,,,,,,,,,,,,,,,,,,,,,,,,,,,,,,,,,,,,,,,,,,,,,,,,,,,,,,,,,,,,,,,,,,,,,,,,,,,,,,,,,,,,,,,,,,,,,,,,,,,,,,,,,,,,,,,,,,,,,,,,,,,,,,,,,,,,,,,,,,,,,
,,,,,,5e5bd71ee0777c3bbe5b108c,62bbfb062e33886c7dd2440a,2022-06-29_10h11.20.344,Colour_Asymmetry_Pilot,2022.1.3,Win32,60.07810153,62bbe60bf3d75ef465d3e404,0,30,30,94,1,fourtwo,,,,,,,,,,,,,,,,,,,,,,,,,,,,,,,,,,,,,,,,,,,,,,,,,,,,,,,,,,,,,,,,,,,,,,,,,,,,,,,,,,,,,,,,,,,,,,,,,,,,,,,,,,,,,,,,,,,,,,,,,,,,,,,,,,,,,,,,,,,,,,,,,,,,,,,,
,,,,,,5e5bd71ee0777c3bbe5b108c,62bbfb062e33886c7dd2440a,2022-06-29_10h11.20.344,Colour_Asymmetry_Pilot,2022.1.3,Win32,60.07810153,62bbe60bf3d75ef465d3e404,0,31,31,119,1,fourthree,,,,,,,,,,,,,,,,,,,,,,,,,,,,,,,,,,,,,,,,,,,,,,,,,,,,,,,,,,,,,,,,,,,,,,,,,,,,,,,,,,,,,,,,,,,,,,,,,,,,,,,,,,,,,,,,,,,,,,,,,,,,,,,,,,,,,,,,,,,,,,,,,,,,,,,,
,,,,,,5e5bd71ee0777c3bbe5b108c,62bbfb062e33886c7dd2440a,2022-06-29_10h11.20.344,Colour_Asymmetry_Pilot,2022.1.3,Win32,60.07810153,62bbe60bf3d75ef465d3e404,0,32,32,71,1,fourthree,,,,,,,,,,,,,,,,,,,,,,,,,,,,,,,,,,,,,,,,,,,,,,,,,,,,,,,,,,,,,,,,,,,,,,,,,,,,,,,,,,,,,,,,,,,,,,,,,,,,,,,,,,,,,,,,,,,,,,,,,,,,,,,,,,,,,,,,,,,,,,,,,,,,,,,,
,,,,,,5e5bd71ee0777c3bbe5b108c,62bbfb062e33886c7dd2440a,2022-06-29_10h11.20.344,Colour_Asymmetry_Pilot,2022.1.3,Win32,60.07810153,62bbe60bf3d75ef465d3e404,0,33,33,88,1,onetwo,,,,,,,,,,,,,,,,,,,,,,,,,,,,,,,,,,,,,,,,,,,,,,,,,,,,,,,,,,,,,,,,,,,,,,,,,,,,,,,,,,,,,,,,,,,,,,,,,,,,,,,,,,,,,,,,,,,,,,,,,,,,,,,,,,,,,,,,,,,,,,,,,,,,,,,,
,,,,,,5e5bd71ee0777c3bbe5b108c,62bbfb062e33886c7dd2440a,2022-06-29_10h11.20.344,Colour_Asymmetry_Pilot,2022.1.3,Win32,60.07810153,62bbe60bf3d75ef465d3e404,0,34,34,64,1,onetwo,,,,,,,,,,,,,,,,,,,,,,,,,,,,,,,,,,,,,,,,,,,,,,,,,,,,,,,,,,,,,,,,,,,,,,,,,,,,,,,,,,,,,,,,,,,,,,,,,,,,,,,,,,,,,,,,,,,,,,,,,,,,,,,,,,,,,,,,,,,,,,,,,,,,,,,,
,,,,,,5e5bd71ee0777c3bbe5b108c,62bbfb062e33886c7dd2440a,2022-06-29_10h11.20.344,Colour_Asymmetry_Pilot,2022.1.3,Win32,60.07810153,62bbe60bf3d75ef465d3e404,0,35,35,24,1,onetwo,,,,,,,,,,,,,,,,,,,,,,,,,,,,,,,,,,,,,,,,,,,,,,,,,,,,,,,,,,,,,,,,,,,,,,,,,,,,,,,,,,,,,,,,,,,,,,,,,,,,,,,,,,,,,,,,,,,,,,,,,,,,,,,,,,,,,,,,,,,,,,,,,,,,,,,,
,,,,,,5e5bd71ee0777c3bbe5b108c,62bbfb062e33886c7dd2440a,2022-06-29_10h11.20.344,Colour_Asymmetry_Pilot,2022.1.3,Win32,60.07810153,62bbe60bf3d75ef465d3e404,0,36,36,130,1,twoone,,,,,,,,,,,,,,,,,,,,,,,,,,,,,,,,,,,,,,,,,,,,,,,,,,,,,,,,,,,,,,,,,,,,,,,,,,,,,,,,,,,,,,,,,,,,,,,,,,,,,,,,,,,,,,,,,,,,,,,,,,,,,,,,,,,,,,,,,,,,,,,,,,,,,,,,
,,,,,,5e5bd71ee0777c3bbe5b108c,62bbfb062e33886c7dd2440a,2022-06-29_10h11.20.344,Colour_Asymmetry_Pilot,2022.1.3,Win32,60.07810153,62bbe60bf3d75ef465d3e404,0,37,37,84,1,threeone,,,,,,,,,,,,,,,,,,,,,,,,,,,,,,,,,,,,,,,,,,,,,,,,,,,,,,,,,,,,,,,,,,,,,,,,,,,,,,,,,,,,,,,,,,,,,,,,,,,,,,,,,,,,,,,,,,,,,,,,,,,,,,,,,,,,,,,,,,,,,,,,,,,,,,,,
,,,,,,5e5bd71ee0777c3bbe5b108c,62bbfb062e33886c7dd2440a,2022-06-29_10h11.20.344,Colour_Asymmetry_Pilot,2022.1.3,Win32,60.07810153,62bbe60bf3d75ef465d3e404,0,38,38,13,1,threefour,,,,,,,,,,,,,,,,,,,,,,,,,,,,,,,,,,,,,,,,,,,,,,,,,,,,,,,,,,,,,,,,,,,,,,,,,,,,,,,,,,,,,,,,,,,,,,,,,,,,,,,,,,,,,,,,,,,,,,,,,,,,,,,,,,,,,,,,,,,,,,,,,,,,,,,,
,,,,,,5e5bd71ee0777c3bbe5b108c,62bbfb062e33886c7dd2440a,2022-06-29_10h11.20.344,Colour_Asymmetry_Pilot,2022.1.3,Win32,60.07810153,62bbe60bf3d75ef465d3e404,0,39,39,140,1,threeone,,,,,,,,,,,,,,,,,,,,,,,,,,,,,,,,,,,,,,,,,,,,,,,,,,,,,,,,,,,,,,,,,,,,,,,,,,,,,,,,,,,,,,,,,,,,,,,,,,,,,,,,,,,,,,,,,,,,,,,,,,,,,,,,,,,,,,,,,,,,,,,,,,,,,,,,
,,,,,,5e5bd71ee0777c3bbe5b108c,62bbfb062e33886c7dd2440a,2022-06-29_10h11.20.344,Colour_Asymmetry_Pilot,2022.1.3,Win32,60.07810153,62bbe60bf3d75ef465d3e404,0,40,40,138,1,twoone,,,,,,,,,,,,,,,,,,,,,,,,,,,,,,,,,,,,,,,,,,,,,,,,,,,,,,,,,,,,,,,,,,,,,,,,,,,,,,,,,,,,,,,,,,,,,,,,,,,,,,,,,,,,,,,,,,,,,,,,,,,,,,,,,,,,,,,,,,,,,,,,,,,,,,,,
,,,,,,5e5bd71ee0777c3bbe5b108c,62bbfb062e33886c7dd2440a,2022-06-29_10h11.20.344,Colour_Asymmetry_Pilot,2022.1.3,Win32,60.07810153,62bbe60bf3d75ef465d3e404,0,41,41,34,1,twoone,,,,,,,,,,,,,,,,,,,,,,,,,,,,,,,,,,,,,,,,,,,,,,,,,,,,,,,,,,,,,,,,,,,,,,,,,,,,,,,,,,,,,,,,,,,,,,,,,,,,,,,,,,,,,,,,,,,,,,,,,,,,,,,,,,,,,,,,,,,,,,,,,,,,,,,,
,,,,,,5e5bd71ee0777c3bbe5b108c,62bbfb062e33886c7dd2440a,2022-06-29_10h11.20.344,Colour_Asymmetry_Pilot,2022.1.3,Win32,60.07810153,62bbe60bf3d75ef465d3e404,0,42,42,153,1,onethree,,,,,,,,,,,,,,,,,,,,,,,,,,,,,,,,,,,,,,,,,,,,,,,,,,,,,,,,,,,,,,,,,,,,,,,,,,,,,,,,,,,,,,,,,,,,,,,,,,,,,,,,,,,,,,,,,,,,,,,,,,,,,,,,,,,,,,,,,,,,,,,,,,,,,,,,
,,,,,,5e5bd71ee0777c3bbe5b108c,62bbfb062e33886c7dd2440a,2022-06-29_10h11.20.344,Colour_Asymmetry_Pilot,2022.1.3,Win32,60.07810153,62bbe60bf3d75ef465d3e404,0,43,43,107,1,twofour,,,,,,,,,,,,,,,,,,,,,,,,,,,,,,,,,,,,,,,,,,,,,,,,,,,,,,,,,,,,,,,,,,,,,,,,,,,,,,,,,,,,,,,,,,,,,,,,,,,,,,,,,,,,,,,,,,,,,,,,,,,,,,,,,,,,,,,,,,,,,,,,,,,,,,,,
,,,,,,5e5bd71ee0777c3bbe5b108c,62bbfb062e33886c7dd2440a,2022-06-29_10h11.20.344,Colour_Asymmetry_Pilot,2022.1.3,Win32,60.07810153,62bbe60bf3d75ef465d3e404,0,44,44,110,1,fourtwo,,,,,,,,,,,,,,,,,,,,,,,,,,,,,,,,,,,,,,,,,,,,,,,,,,,,,,,,,,,,,,,,,,,,,,,,,,,,,,,,,,,,,,,,,,,,,,,,,,,,,,,,,,,,,,,,,,,,,,,,,,,,,,,,,,,,,,,,,,,,,,,,,,,,,,,,
,,,,,,5e5bd71ee0777c3bbe5b108c,62bbfb062e33886c7dd2440a,2022-06-29_10h11.20.344,Colour_Asymmetry_Pilot,2022.1.3,Win32,60.07810153,62bbe60bf3d75ef465d3e404,0,45,45,46,1,fourtwo,,,,,,,,,,,,,,,,,,,,,,,,,,,,,,,,,,,,,,,,,,,,,,,,,,,,,,,,,,,,,,,,,,,,,,,,,,,,,,,,,,,,,,,,,,,,,,,,,,,,,,,,,,,,,,,,,,,,,,,,,,,,,,,,,,,,,,,,,,,,,,,,,,,,,,,,
,,,,,,5e5bd71ee0777c3bbe5b108c,62bbfb062e33886c7dd2440a,2022-06-29_10h11.20.344,Colour_Asymmetry_Pilot,2022.1.3,Win32,60.07810153,62bbe60bf3d75ef465d3e404,0,46,46,139,1,twofour,,,,,,,,,,,,,,,,,,,,,,,,,,,,,,,,,,,,,,,,,,,,,,,,,,,,,,,,,,,,,,,,,,,,,,,,,,,,,,,,,,,,,,,,,,,,,,,,,,,,,,,,,,,,,,,,,,,,,,,,,,,,,,,,,,,,,,,,,,,,,,,,,,,,,,,,
,,,,,,5e5bd71ee0777c3bbe5b108c,62bbfb062e33886c7dd2440a,2022-06-29_10h11.20.344,Colour_Asymmetry_Pilot,2022.1.3,Win32,60.07810153,62bbe60bf3d75ef465d3e404,0,47,47,29,1,threefour,,,,,,,,,,,,,,,,,,,,,,,,,,,,,,,,,,,,,,,,,,,,,,,,,,,,,,,,,,,,,,,,,,,,,,,,,,,,,,,,,,,,,,,,,,,,,,,,,,,,,,,,,,,,,,,,,,,,,,,,,,,,,,,,,,,,,,,,,,,,,,,,,,,,,,,,
,,,,,,5e5bd71ee0777c3bbe5b108c,62bbfb062e33886c7dd2440a,2022-06-29_10h11.20.344,Colour_Asymmetry_Pilot,2022.1.3,Win32,60.07810153,62bbe60bf3d75ef465d3e404,0,48,48,75,1,twofour,,,,,,,,,,,,,,,,,,,,,,,,,,,,,,,,,,,,,,,,,,,,,,,,,,,,,,,,,,,,,,,,,,,,,,,,,,,,,,,,,,,,,,,,,,,,,,,,,,,,,,,,,,,,,,,,,,,,,,,,,,,,,,,,,,,,,,,,,,,,,,,,,,,,,,,,
,,,,,,5e5bd71ee0777c3bbe5b108c,62bbfb062e33886c7dd2440a,2022-06-29_10h11.20.344,Colour_Asymmetry_Pilot,2022.1.3,Win32,60.07810153,62bbe60bf3d75ef465d3e404,0,49,49,104,1,onetwo,,,,,,,,,,,,,,,,,,,,,,,,,,,,,,,,,,,,,,,,,,,,,,,,,,,,,,,,,,,,,,,,,,,,,,,,,,,,,,,,,,,,,,,,,,,,,,,,,,,,,,,,,,,,,,,,,,,,,,,,,,,,,,,,,,,,,,,,,,,,,,,,,,,,,,,,
,,,,,,5e5bd71ee0777c3bbe5b108c,62bbfb062e33886c7dd2440a,2022-06-29_10h11.20.344,Colour_Asymmetry_Pilot,2022.1.3,Win32,60.07810153,62bbe60bf3d75ef465d3e404,0,50,50,151,1,fourthree,,,,,,,,,,,,,,,,,,,,,,,,,,,,,,,,,,,,,,,,,,,,,,,,,,,,,,,,,,,,,,,,,,,,,,,,,,,,,,,,,,,,,,,,,,,,,,,,,,,,,,,,,,,,,,,,,,,,,,,,,,,,,,,,,,,,,,,,,,,,,,,,,,,,,,,,
,,,,,,5e5bd71ee0777c3bbe5b108c,62bbfb062e33886c7dd2440a,2022-06-29_10h11.20.344,Colour_Asymmetry_Pilot,2022.1.3,Win32,60.07810153,62bbe60bf3d75ef465d3e404,0,51,51,39,1,fourthree,,,,,,,,,,,,,,,,,,,,,,,,,,,,,,,,,,,,,,,,,,,,,,,,,,,,,,,,,,,,,,,,,,,,,,,,,,,,,,,,,,,,,,,,,,,,,,,,,,,,,,,,,,,,,,,,,,,,,,,,,,,,,,,,,,,,,,,,,,,,,,,,,,,,,,,,
,,,,,,5e5bd71ee0777c3bbe5b108c,62bbfb062e33886c7dd2440a,2022-06-29_10h11.20.344,Colour_Asymmetry_Pilot,2022.1.3,Win32,60.07810153,62bbe60bf3d75ef465d3e404,0,52,52,69,1,threefour,,,,,,,,,,,,,,,,,,,,,,,,,,,,,,,,,,,,,,,,,,,,,,,,,,,,,,,,,,,,,,,,,,,,,,,,,,,,,,,,,,,,,,,,,,,,,,,,,,,,,,,,,,,,,,,,,,,,,,,,,,,,,,,,,,,,,,,,,,,,,,,,,,,,,,,,
,,,,,,5e5bd71ee0777c3bbe5b108c,62bbfb062e33886c7dd2440a,2022-06-29_10h11.20.344,Colour_Asymmetry_Pilot,2022.1.3,Win32,60.07810153,62bbe60bf3d75ef465d3e404,0,53,53,31,1,fourthree,,,,,,,,,,,,,,,,,,,,,,,,,,,,,,,,,,,,,,,,,,,,,,,,,,,,,,,,,,,,,,,,,,,,,,,,,,,,,,,,,,,,,,,,,,,,,,,,,,,,,,,,,,,,,,,,,,,,,,,,,,,,,,,,,,,,,,,,,,,,,,,,,,,,,,,,
,,,,,,5e5bd71ee0777c3bbe5b108c,62bbfb062e33886c7dd2440a,2022-06-29_10h11.20.344,Colour_Asymmetry_Pilot,2022.1.3,Win32,60.07810153,62bbe60bf3d75ef465d3e404,0,54,54,91,1,twofour,,,,,,,,,,,,,,,,,,,,,,,,,,,,,,,,,,,,,,,,,,,,,,,,,,,,,,,,,,,,,,,,,,,,,,,,,,,,,,,,,,,,,,,,,,,,,,,,,,,,,,,,,,,,,,,,,,,,,,,,,,,,,,,,,,,,,,,,,,,,,,,,,,,,,,,,
,,,,,,5e5bd71ee0777c3bbe5b108c,62bbfb062e33886c7dd2440a,2022-06-29_10h11.20.344,Colour_Asymmetry_Pilot,2022.1.3,Win32,60.07810153,62bbe60bf3d75ef465d3e404,0,55,55,147,1,twofour,,,,,,,,,,,,,,,,,,,,,,,,,,,,,,,,,,,,,,,,,,,,,,,,,,,,,,,,,,,,,,,,,,,,,,,,,,,,,,,,,,,,,,,,,,,,,,,,,,,,,,,,,,,,,,,,,,,,,,,,,,,,,,,,,,,,,,,,,,,,,,,,,,,,,,,,
,,,,,,5e5bd71ee0777c3bbe5b108c,62bbfb062e33886c7dd2440a,2022-06-29_10h11.20.344,Colour_Asymmetry_Pilot,2022.1.3,Win32,60.07810153,62bbe60bf3d75ef465d3e404,0,56,56,10,1,twoone,,,,,,,,,,,,,,,,,,,,,,,,,,,,,,,,,,,,,,,,,,,,,,,,,,,,,,,,,,,,,,,,,,,,,,,,,,,,,,,,,,,,,,,,,,,,,,,,,,,,,,,,,,,,,,,,,,,,,,,,,,,,,,,,,,,,,,,,,,,,,,,,,,,,,,,,
,,,,,,5e5bd71ee0777c3bbe5b108c,62bbfb062e33886c7dd2440a,2022-06-29_10h11.20.344,Colour_Asymmetry_Pilot,2022.1.3,Win32,60.07810153,62bbe60bf3d75ef465d3e404,0,57,57,63,1,fourthree,,,,,,,,,,,,,,,,,,,,,,,,,,,,,,,,,,,,,,,,,,,,,,,,,,,,,,,,,,,,,,,,,,,,,,,,,,,,,,,,,,,,,,,,,,,,,,,,,,,,,,,,,,,,,,,,,,,,,,,,,,,,,,,,,,,,,,,,,,,,,,,,,,,,,,,,
,,,,,,5e5bd71ee0777c3bbe5b108c,62bbfb062e33886c7dd2440a,2022-06-29_10h11.20.344,Colour_Asymmetry_Pilot,2022.1.3,Win32,60.07810153,62bbe60bf3d75ef465d3e404,0,58,58,65,1,onethree,,,,,,,,,,,,,,,,,,,,,,,,,,,,,,,,,,,,,,,,,,,,,,,,,,,,,,,,,,,,,,,,,,,,,,,,,,,,,,,,,,,,,,,,,,,,,,,,,,,,,,,,,,,,,,,,,,,,,,,,,,,,,,,,,,,,,,,,,,,,,,,,,,,,,,,,
,,,,,,5e5bd71ee0777c3bbe5b108c,62bbfb062e33886c7dd2440a,2022-06-29_10h11.20.344,Colour_Asymmetry_Pilot,2022.1.3,Win32,60.07810153,62bbe60bf3d75ef465d3e404,0,59,59,115,1,twofour,,,,,,,,,,,,,,,,,,,,,,,,,,,,,,,,,,,,,,,,,,,,,,,,,,,,,,,,,,,,,,,,,,,,,,,,,,,,,,,,,,,,,,,,,,,,,,,,,,,,,,,,,,,,,,,,,,,,,,,,,,,,,,,,,,,,,,,,,,,,,,,,,,,,,,,,
,,,,,,5e5bd71ee0777c3bbe5b108c,62bbfb062e33886c7dd2440a,2022-06-29_10h11.20.344,Colour_Asymmetry_Pilot,2022.1.3,Win32,60.07810153,62bbe60bf3d75ef465d3e404,0,60,60,56,1,onetwo,,,,,,,,,,,,,,,,,,,,,,,,,,,,,,,,,,,,,,,,,,,,,,,,,,,,,,,,,,,,,,,,,,,,,,,,,,,,,,,,,,,,,,,,,,,,,,,,,,,,,,,,,,,,,,,,,,,,,,,,,,,,,,,,,,,,,,,,,,,,,,,,,,,,,,,,
,,,,,,5e5bd71ee0777c3bbe5b108c,62bbfb062e33886c7dd2440a,2022-06-29_10h11.20.344,Colour_Asymmetry_Pilot,2022.1.3,Win32,60.07810153,62bbe60bf3d75ef465d3e404,0,61,61,5,1,threefour,,,,,,,,,,,,,,,,,,,,,,,,,,,,,,,,,,,,,,,,,,,,,,,,,,,,,,,,,,,,,,,,,,,,,,,,,,,,,,,,,,,,,,,,,,,,,,,,,,,,,,,,,,,,,,,,,,,,,,,,,,,,,,,,,,,,,,,,,,,,,,,,,,,,,,,,
,,,,,,5e5bd71ee0777c3bbe5b108c,62bbfb062e33886c7dd2440a,2022-06-29_10h11.20.344,Colour_Asymmetry_Pilot,2022.1.3,Win32,60.07810153,62bbe60bf3d75ef465d3e404,0,62,62,105,1,onethree,,,,,,,,,,,,,,,,,,,,,,,,,,,,,,,,,,,,,,,,,,,,,,,,,,,,,,,,,,,,,,,,,,,,,,,,,,,,,,,,,,,,,,,,,,,,,,,,,,,,,,,,,,,,,,,,,,,,,,,,,,,,,,,,,,,,,,,,,,,,,,,,,,,,,,,,
,,,,,,5e5bd71ee0777c3bbe5b108c,62bbfb062e33886c7dd2440a,2022-06-29_10h11.20.344,Colour_Asymmetry_Pilot,2022.1.3,Win32,60.07810153,62bbe60bf3d75ef465d3e404,0,63,63,18,1,twoone,,,,,,,,,,,,,,,,,,,,,,,,,,,,,,,,,,,,,,,,,,,,,,,,,,,,,,,,,,,,,,,,,,,,,,,,,,,,,,,,,,,,,,,,,,,,,,,,,,,,,,,,,,,,,,,,,,,,,,,,,,,,,,,,,,,,,,,,,,,,,,,,,,,,,,,,
,,,,,,5e5bd71ee0777c3bbe5b108c,62bbfb062e33886c7dd2440a,2022-06-29_10h11.20.344,Colour_Asymmetry_Pilot,2022.1.3,Win32,60.07810153,62bbe60bf3d75ef465d3e404,0,64,64,22,1,fourtwo,,,,,,,,,,,,,,,,,,,,,,,,,,,,,,,,,,,,,,,,,,,,,,,,,,,,,,,,,,,,,,,,,,,,,,,,,,,,,,,,,,,,,,,,,,,,,,,,,,,,,,,,,,,,,,,,,,,,,,,,,,,,,,,,,,,,,,,,,,,,,,,,,,,,,,,,
,,,,,,5e5bd71ee0777c3bbe5b108c,62bbfb062e33886c7dd2440a,2022-06-29_10h11.20.344,Colour_Asymmetry_Pilot,2022.1.3,Win32,60.07810153,62bbe60bf3d75ef465d3e404,0,65,65,72,1,onetwo,,,,,,,,,,,,,,,,,,,,,,,,,,,,,,,,,,,,,,,,,,,,,,,,,,,,,,,,,,,,,,,,,,,,,,,,,,,,,,,,,,,,,,,,,,,,,,,,,,,,,,,,,,,,,,,,,,,,,,,,,,,,,,,,,,,,,,,,,,,,,,,,,,,,,,,,
,,,,,,5e5bd71ee0777c3bbe5b108c,62bbfb062e33886c7dd2440a,2022-06-29_10h11.20.344,Colour_Asymmetry_Pilot,2022.1.3,Win32,60.07810153,62bbe60bf3d75ef465d3e404,0,66,66,100,1,threeone,,,,,,,,,,,,,,,,,,,,,,,,,,,,,,,,,,,,,,,,,,,,,,,,,,,,,,,,,,,,,,,,,,,,,,,,,,,,,,,,,,,,,,,,,,,,,,,,,,,,,,,,,,,,,,,,,,,,,,,,,,,,,,,,,,,,,,,,,,,,,,,,,,,,,,,,
,,,,,,5e5bd71ee0777c3bbe5b108c,62bbfb062e33886c7dd2440a,2022-06-29_10h11.20.344,Colour_Asymmetry_Pilot,2022.1.3,Win32,60.07810153,62bbe60bf3d75ef465d3e404,0,67,67,27,1,twofour,,,,,,,,,,,,,,,,,,,,,,,,,,,,,,,,,,,,,,,,,,,,,,,,,,,,,,,,,,,,,,,,,,,,,,,,,,,,,,,,,,,,,,,,,,,,,,,,,,,,,,,,,,,,,,,,,,,,,,,,,,,,,,,,,,,,,,,,,,,,,,,,,,,,,,,,
,,,,,,5e5bd71ee0777c3bbe5b108c,62bbfb062e33886c7dd2440a,2022-06-29_10h11.20.344,Colour_Asymmetry_Pilot,2022.1.3,Win32,60.07810153,62bbe60bf3d75ef465d3e404,0,68,68,118,1,fourtwo,,,,,,,,,,,,,,,,,,,,,,,,,,,,,,,,,,,,,,,,,,,,,,,,,,,,,,,,,,,,,,,,,,,,,,,,,,,,,,,,,,,,,,,,,,,,,,,,,,,,,,,,,,,,,,,,,,,,,,,,,,,,,,,,,,,,,,,,,,,,,,,,,,,,,,,,
,,,,,,5e5bd71ee0777c3bbe5b108c,62bbfb062e33886c7dd2440a,2022-06-29_10h11.20.344,Colour_Asymmetry_Pilot,2022.1.3,Win32,60.07810153,62bbe60bf3d75ef465d3e404,0,69,69,120,1,onetwo,,,,,,,,,,,,,,,,,,,,,,,,,,,,,,,,,,,,,,,,,,,,,,,,,,,,,,,,,,,,,,,,,,,,,,,,,,,,,,,,,,,,,,,,,,,,,,,,,,,,,,,,,,,,,,,,,,,,,,,,,,,,,,,,,,,,,,,,,,,,,,,,,,,,,,,,
,,,,,,5e5bd71ee0777c3bbe5b108c,62bbfb062e33886c7dd2440a,2022-06-29_10h11.20.344,Colour_Asymmetry_Pilot,2022.1.3,Win32,60.07810153,62bbe60bf3d75ef465d3e404,0,70,70,149,1,threefour,,,,,,,,,,,,,,,,,,,,,,,,,,,,,,,,,,,,,,,,,,,,,,,,,,,,,,,,,,,,,,,,,,,,,,,,,,,,,,,,,,,,,,,,,,,,,,,,,,,,,,,,,,,,,,,,,,,,,,,,,,,,,,,,,,,,,,,,,,,,,,,,,,,,,,,,
,,,,,,5e5bd71ee0777c3bbe5b108c,62bbfb062e33886c7dd2440a,2022-06-29_10h11.20.344,Colour_Asymmetry_Pilot,2022.1.3,Win32,60.07810153,62bbe60bf3d75ef465d3e404,0,71,71,60,1,threeone,,,,,,,,,,,,,,,,,,,,,,,,,,,,,,,,,,,,,,,,,,,,,,,,,,,,,,,,,,,,,,,,,,,,,,,,,,,,,,,,,,,,,,,,,,,,,,,,,,,,,,,,,,,,,,,,,,,,,,,,,,,,,,,,,,,,,,,,,,,,,,,,,,,,,,,,
,,,,,,5e5bd71ee0777c3bbe5b108c,62bbfb062e33886c7dd2440a,2022-06-29_10h11.20.344,Colour_Asymmetry_Pilot,2022.1.3,Win32,60.07810153,62bbe60bf3d75ef465d3e404,0,72,72,2,1,twoone,,,,,,,,,,,,,,,,,,,,,,,,,,,,,,,,,,,,,,,,,,,,,,,,,,,,,,,,,,,,,,,,,,,,,,,,,,,,,,,,,,,,,,,,,,,,,,,,,,,,,,,,,,,,,,,,,,,,,,,,,,,,,,,,,,,,,,,,,,,,,,,,,,,,,,,,
,,,,,,5e5bd71ee0777c3bbe5b108c,62bbfb062e33886c7dd2440a,2022-06-29_10h11.20.344,Colour_Asymmetry_Pilot,2022.1.3,Win32,60.07810153,62bbe60bf3d75ef465d3e404,0,73,73,15,1,fourthree,,,,,,,,,,,,,,,,,,,,,,,,,,,,,,,,,,,,,,,,,,,,,,,,,,,,,,,,,,,,,,,,,,,,,,,,,,,,,,,,,,,,,,,,,,,,,,,,,,,,,,,,,,,,,,,,,,,,,,,,,,,,,,,,,,,,,,,,,,,,,,,,,,,,,,,,
,,,,,,5e5bd71ee0777c3bbe5b108c,62bbfb062e33886c7dd2440a,2022-06-29_10h11.20.344,Colour_Asymmetry_Pilot,2022.1.3,Win32,60.07810153,62bbe60bf3d75ef465d3e404,0,74,74,53,1,threefour,,,,,,,,,,,,,,,,,,,,,,,,,,,,,,,,,,,,,,,,,,,,,,,,,,,,,,,,,,,,,,,,,,,,,,,,,,,,,,,,,,,,,,,,,,,,,,,,,,,,,,,,,,,,,,,,,,,,,,,,,,,,,,,,,,,,,,,,,,,,,,,,,,,,,,,,
,,,,,,5e5bd71ee0777c3bbe5b108c,62bbfb062e33886c7dd2440a,2022-06-29_10h11.20.344,Colour_Asymmetry_Pilot,2022.1.3,Win32,60.07810153,62bbe60bf3d75ef465d3e404,0,75,75,6,1,fourtwo,,,,,,,,,,,,,,,,,,,,,,,,,,,,,,,,,,,,,,,,,,,,,,,,,,,,,,,,,,,,,,,,,,,,,,,,,,,,,,,,,,,,,,,,,,,,,,,,,,,,,,,,,,,,,,,,,,,,,,,,,,,,,,,,,,,,,,,,,,,,,,,,,,,,,,,,
,,,,,,5e5bd71ee0777c3bbe5b108c,62bbfb062e33886c7dd2440a,2022-06-29_10h11.20.344,Colour_Asymmetry_Pilot,2022.1.3,Win32,60.07810153,62bbe60bf3d75ef465d3e404,0,76,76,148,1,threeone,,,,,,,,,,,,,,,,,,,,,,,,,,,,,,,,,,,,,,,,,,,,,,,,,,,,,,,,,,,,,,,,,,,,,,,,,,,,,,,,,,,,,,,,,,,,,,,,,,,,,,,,,,,,,,,,,,,,,,,,,,,,,,,,,,,,,,,,,,,,,,,,,,,,,,,,
,,,,,,5e5bd71ee0777c3bbe5b108c,62bbfb062e33886c7dd2440a,2022-06-29_10h11.20.344,Colour_Asymmetry_Pilot,2022.1.3,Win32,60.07810153,62bbe60bf3d75ef465d3e404,0,77,77,58,1,twoone,,,,,,,,,,,,,,,,,,,,,,,,,,,,,,,,,,,,,,,,,,,,,,,,,,,,,,,,,,,,,,,,,,,,,,,,,,,,,,,,,,,,,,,,,,,,,,,,,,,,,,,,,,,,,,,,,,,,,,,,,,,,,,,,,,,,,,,,,,,,,,,,,,,,,,,,
,,,,,,5e5bd71ee0777c3bbe5b108c,62bbfb062e33886c7dd2440a,2022-06-29_10h11.20.344,Colour_Asymmetry_Pilot,2022.1.3,Win32,60.07810153,62bbe60bf3d75ef465d3e404,0,78,78,21,1,threefour,,,,,,,,,,,,,,,,,,,,,,,,,,,,,,,,,,,,,,,,,,,,,,,,,,,,,,,,,,,,,,,,,,,,,,,,,,,,,,,,,,,,,,,,,,,,,,,,,,,,,,,,,,,,,,,,,,,,,,,,,,,,,,,,,,,,,,,,,,,,,,,,,,,,,,,,
,,,,,,5e5bd71ee0777c3bbe5b108c,62bbfb062e33886c7dd2440a,2022-06-29_10h11.20.344,Colour_Asymmetry_Pilot,2022.1.3,Win32,60.07810153,62bbe60bf3d75ef465d3e404,0,79,79,86,1,fourtwo,,,,,,,,,,,,,,,,,,,,,,,,,,,,,,,,,,,,,,,,,,,,,,,,,,,,,,,,,,,,,,,,,,,,,,,,,,,,,,,,,,,,,,,,,,,,,,,,,,,,,,,,,,,,,,,,,,,,,,,,,,,,,,,,,,,,,,,,,,,,,,,,,,,,,,,,
,,,,,,5e5bd71ee0777c3bbe5b108c,62bbfb062e33886c7dd2440a,2022-06-29_10h11.20.344,Colour_Asymmetry_Pilot,2022.1.3,Win32,60.07810153,62bbe60bf3d75ef465d3e404,0,80,80,133,1,threefour,,,,,,,,,,,,,,,,,,,,,,,,,,,,,,,,,,,,,,,,,,,,,,,,,,,,,,,,,,,,,,,,,,,,,,,,,,,,,,,,,,,,,,,,,,,,,,,,,,,,,,,,,,,,,,,,,,,,,,,,,,,,,,,,,,,,,,,,,,,,,,,,,,,,,,,,
,,,,,,5e5bd71ee0777c3bbe5b108c,62bbfb062e33886c7dd2440a,2022-06-29_10h11.20.344,Colour_Asymmetry_Pilot,2022.1.3,Win32,60.07810153,62bbe60bf3d75ef465d3e404,0,81,81,143,1,fourthree,,,,,,,,,,,,,,,,,,,,,,,,,,,,,,,,,,,,,,,,,,,,,,,,,,,,,,,,,,,,,,,,,,,,,,,,,,,,,,,,,,,,,,,,,,,,,,,,,,,,,,,,,,,,,,,,,,,,,,,,,,,,,,,,,,,,,,,,,,,,,,,,,,,,,,,,
,,,,,,5e5bd71ee0777c3bbe5b108c,62bbfb062e33886c7dd2440a,2022-06-29_10h11.20.344,Colour_Asymmetry_Pilot,2022.1.3,Win32,60.07810153,62bbe60bf3d75ef465d3e404,0,82,82,121,1,onethree,,,,,,,,,,,,,,,,,,,,,,,,,,,,,,,,,,,,,,,,,,,,,,,,,,,,,,,,,,,,,,,,,,,,,,,,,,,,,,,,,,,,,,,,,,,,,,,,,,,,,,,,,,,,,,,,,,,,,,,,,,,,,,,,,,,,,,,,,,,,,,,,,,,,,,,,
,,,,,,5e5bd71ee0777c3bbe5b108c,62bbfb062e33886c7dd2440a,2022-06-29_10h11.20.344,Colour_Asymmetry_Pilot,2022.1.3,Win32,60.07810153,62bbe60bf3d75ef465d3e404,0,83,83,4,1,threeone,,,,,,,,,,,,,,,,,,,,,,,,,,,,,,,,,,,,,,,,,,,,,,,,,,,,,,,,,,,,,,,,,,,,,,,,,,,,,,,,,,,,,,,,,,,,,,,,,,,,,,,,,,,,,,,,,,,,,,,,,,,,,,,,,,,,,,,,,,,,,,,,,,,,,,,,
,,,,,,5e5bd71ee0777c3bbe5b108c,62bbfb062e33886c7dd2440a,2022-06-29_10h11.20.344,Colour_Asymmetry_Pilot,2022.1.3,Win32,60.07810153,62bbe60bf3d75ef465d3e404,0,84,84,156,1,threeone,,,,,,,,,,,,,,,,,,,,,,,,,,,,,,,,,,,,,,,,,,,,,,,,,,,,,,,,,,,,,,,,,,,,,,,,,,,,,,,,,,,,,,,,,,,,,,,,,,,,,,,,,,,,,,,,,,,,,,,,,,,,,,,,,,,,,,,,,,,,,,,,,,,,,,,,
,,,,,,5e5bd71ee0777c3bbe5b108c,62bbfb062e33886c7dd2440a,2022-06-29_10h11.20.344,Colour_Asymmetry_Pilot,2022.1.3,Win32,60.07810153,62bbe60bf3d75ef465d3e404,0,85,85,93,1,threefour,,,,,,,,,,,,,,,,,,,,,,,,,,,,,,,,,,,,,,,,,,,,,,,,,,,,,,,,,,,,,,,,,,,,,,,,,,,,,,,,,,,,,,,,,,,,,,,,,,,,,,,,,,,,,,,,,,,,,,,,,,,,,,,,,,,,,,,,,,,,,,,,,,,,,,,,
,,,,,,5e5bd71ee0777c3bbe5b108c,62bbfb062e33886c7dd2440a,2022-06-29_10h11.20.344,Colour_Asymmetry_Pilot,2022.1.3,Win32,60.07810153,62bbe60bf3d75ef465d3e404,0,86,86,28,1,threeone,,,,,,,,,,,,,,,,,,,,,,,,,,,,,,,,,,,,,,,,,,,,,,,,,,,,,,,,,,,,,,,,,,,,,,,,,,,,,,,,,,,,,,,,,,,,,,,,,,,,,,,,,,,,,,,,,,,,,,,,,,,,,,,,,,,,,,,,,,,,,,,,,,,,,,,,
,,,,,,5e5bd71ee0777c3bbe5b108c,62bbfb062e33886c7dd2440a,2022-06-29_10h11.20.344,Colour_Asymmetry_Pilot,2022.1.3,Win32,60.07810153,62bbe60bf3d75ef465d3e404,0,87,87,150,1,fourtwo,,,,,,,,,,,,,,,,,,,,,,,,,,,,,,,,,,,,,,,,,,,,,,,,,,,,,,,,,,,,,,,,,,,,,,,,,,,,,,,,,,,,,,,,,,,,,,,,,,,,,,,,,,,,,,,,,,,,,,,,,,,,,,,,,,,,,,,,,,,,,,,,,,,,,,,,
,,,,,,5e5bd71ee0777c3bbe5b108c,62bbfb062e33886c7dd2440a,2022-06-29_10h11.20.344,Colour_Asymmetry_Pilot,2022.1.3,Win32,60.07810153,62bbe60bf3d75ef465d3e404,0,88,88,35,1,twofour,,,,,,,,,,,,,,,,,,,,,,,,,,,,,,,,,,,,,,,,,,,,,,,,,,,,,,,,,,,,,,,,,,,,,,,,,,,,,,,,,,,,,,,,,,,,,,,,,,,,,,,,,,,,,,,,,,,,,,,,,,,,,,,,,,,,,,,,,,,,,,,,,,,,,,,,
,,,,,,5e5bd71ee0777c3bbe5b108c,62bbfb062e33886c7dd2440a,2022-06-29_10h11.20.344,Colour_Asymmetry_Pilot,2022.1.3,Win32,60.07810153,62bbe60bf3d75ef465d3e404,0,89,89,82,1,twoone,,,,,,,,,,,,,,,,,,,,,,,,,,,,,,,,,,,,,,,,,,,,,,,,,,,,,,,,,,,,,,,,,,,,,,,,,,,,,,,,,,,,,,,,,,,,,,,,,,,,,,,,,,,,,,,,,,,,,,,,,,,,,,,,,,,,,,,,,,,,,,,,,,,,,,,,
,,,,,,5e5bd71ee0777c3bbe5b108c,62bbfb062e33886c7dd2440a,2022-06-29_10h11.20.344,Colour_Asymmetry_Pilot,2022.1.3,Win32,60.07810153,62bbe60bf3d75ef465d3e404,0,90,90,81,1,onethree,,,,,,,,,,,,,,,,,,,,,,,,,,,,,,,,,,,,,,,,,,,,,,,,,,,,,,,,,,,,,,,,,,,,,,,,,,,,,,,,,,,,,,,,,,,,,,,,,,,,,,,,,,,,,,,,,,,,,,,,,,,,,,,,,,,,,,,,,,,,,,,,,,,,,,,,
,,,,,,5e5bd71ee0777c3bbe5b108c,62bbfb062e33886c7dd2440a,2022-06-29_10h11.20.344,Colour_Asymmetry_Pilot,2022.1.3,Win32,60.07810153,62bbe60bf3d75ef465d3e404,0,91,91,61,1,threefour,,,,,,,,,,,,,,,,,,,,,,,,,,,,,,,,,,,,,,,,,,,,,,,,,,,,,,,,,,,,,,,,,,,,,,,,,,,,,,,,,,,,,,,,,,,,,,,,,,,,,,,,,,,,,,,,,,,,,,,,,,,,,,,,,,,,,,,,,,,,,,,,,,,,,,,,
,,,,,,5e5bd71ee0777c3bbe5b108c,62bbfb062e33886c7dd2440a,2022-06-29_10h11.20.344,Colour_Asymmetry_Pilot,2022.1.3,Win32,60.07810153,62bbe60bf3d75ef465d3e404,0,92,92,141,1,threefour,,,,,,,,,,,,,,,,,,,,,,,,,,,,,,,,,,,,,,,,,,,,,,,,,,,,,,,,,,,,,,,,,,,,,,,,,,,,,,,,,,,,,,,,,,,,,,,,,,,,,,,,,,,,,,,,,,,,,,,,,,,,,,,,,,,,,,,,,,,,,,,,,,,,,,,,
,,,,,,5e5bd71ee0777c3bbe5b108c,62bbfb062e33886c7dd2440a,2022-06-29_10h11.20.344,Colour_Asymmetry_Pilot,2022.1.3,Win32,60.07810153,62bbe60bf3d75ef465d3e404,0,93,93,45,1,threefour,,,,,,,,,,,,,,,,,,,,,,,,,,,,,,,,,,,,,,,,,,,,,,,,,,,,,,,,,,,,,,,,,,,,,,,,,,,,,,,,,,,,,,,,,,,,,,,,,,,,,,,,,,,,,,,,,,,,,,,,,,,,,,,,,,,,,,,,,,,,,,,,,,,,,,,,
,,,,,,5e5bd71ee0777c3bbe5b108c,62bbfb062e33886c7dd2440a,2022-06-29_10h11.20.344,Colour_Asymmetry_Pilot,2022.1.3,Win32,60.07810153,62bbe60bf3d75ef465d3e404,0,94,94,134,1,fourtwo,,,,,,,,,,,,,,,,,,,,,,,,,,,,,,,,,,,,,,,,,,,,,,,,,,,,,,,,,,,,,,,,,,,,,,,,,,,,,,,,,,,,,,,,,,,,,,,,,,,,,,,,,,,,,,,,,,,,,,,,,,,,,,,,,,,,,,,,,,,,,,,,,,,,,,,,
,,,,,,5e5bd71ee0777c3bbe5b108c,62bbfb062e33886c7dd2440a,2022-06-29_10h11.20.344,Colour_Asymmetry_Pilot,2022.1.3,Win32,60.07810153,62bbe60bf3d75ef465d3e404,0,95,95,123,1,twofour,,,,,,,,,,,,,,,,,,,,,,,,,,,,,,,,,,,,,,,,,,,,,,,,,,,,,,,,,,,,,,,,,,,,,,,,,,,,,,,,,,,,,,,,,,,,,,,,,,,,,,,,,,,,,,,,,,,,,,,,,,,,,,,,,,,,,,,,,,,,,,,,,,,,,,,,
,,,,,,5e5bd71ee0777c3bbe5b108c,62bbfb062e33886c7dd2440a,2022-06-29_10h11.20.344,Colour_Asymmetry_Pilot,2022.1.3,Win32,60.07810153,62bbe60bf3d75ef465d3e404,0,96,96,57,1,onethree,,,,,,,,,,,,,,,,,,,,,,,,,,,,,,,,,,,,,,,,,,,,,,,,,,,,,,,,,,,,,,,,,,,,,,,,,,,,,,,,,,,,,,,,,,,,,,,,,,,,,,,,,,,,,,,,,,,,,,,,,,,,,,,,,,,,,,,,,,,,,,,,,,,,,,,,
,,,,,,5e5bd71ee0777c3bbe5b108c,62bbfb062e33886c7dd2440a,2022-06-29_10h11.20.344,Colour_Asymmetry_Pilot,2022.1.3,Win32,60.07810153,62bbe60bf3d75ef465d3e404,0,97,97,124,1,threeone,,,,,,,,,,,,,,,,,,,,,,,,,,,,,,,,,,,,,,,,,,,,,,,,,,,,,,,,,,,,,,,,,,,,,,,,,,,,,,,,,,,,,,,,,,,,,,,,,,,,,,,,,,,,,,,,,,,,,,,,,,,,,,,,,,,,,,,,,,,,,,,,,,,,,,,,
,,,,,,5e5bd71ee0777c3bbe5b108c,62bbfb062e33886c7dd2440a,2022-06-29_10h11.20.344,Colour_Asymmetry_Pilot,2022.1.3,Win32,60.07810153,62bbe60bf3d75ef465d3e404,0,98,98,99,1,twofour,,,,,,,,,,,,,,,,,,,,,,,,,,,,,,,,,,,,,,,,,,,,,,,,,,,,,,,,,,,,,,,,,,,,,,,,,,,,,,,,,,,,,,,,,,,,,,,,,,,,,,,,,,,,,,,,,,,,,,,,,,,,,,,,,,,,,,,,,,,,,,,,,,,,,,,,
,,,,,,5e5bd71ee0777c3bbe5b108c,62bbfb062e33886c7dd2440a,2022-06-29_10h11.20.344,Colour_Asymmetry_Pilot,2022.1.3,Win32,60.07810153,62bbe60bf3d75ef465d3e404,0,99,99,3,1,twofour,,,,,,,,,,,,,,,,,,,,,,,,,,,,,,,,,,,,,,,,,,,,,,,,,,,,,,,,,,,,,,,,,,,,,,,,,,,,,,,,,,,,,,,,,,,,,,,,,,,,,,,,,,,,,,,,,,,,,,,,,,,,,,,,,,,,,,,,,,,,,,,,,,,,,,,,
,,,,,,5e5bd71ee0777c3bbe5b108c,62bbfb062e33886c7dd2440a,2022-06-29_10h11.20.344,Colour_Asymmetry_Pilot,2022.1.3,Win32,60.07810153,62bbe60bf3d75ef465d3e404,0,100,100,20,1,threeone,,,,,,,,,,,,,,,,,,,,,,,,,,,,,,,,,,,,,,,,,,,,,,,,,,,,,,,,,,,,,,,,,,,,,,,,,,,,,,,,,,,,,,,,,,,,,,,,,,,,,,,,,,,,,,,,,,,,,,,,,,,,,,,,,,,,,,,,,,,,,,,,,,,,,,,,
,,,,,,5e5bd71ee0777c3bbe5b108c,62bbfb062e33886c7dd2440a,2022-06-29_10h11.20.344,Colour_Asymmetry_Pilot,2022.1.3,Win32,60.07810153,62bbe60bf3d75ef465d3e404,0,101,101,33,1,onethree,,,,,,,,,,,,,,,,,,,,,,,,,,,,,,,,,,,,,,,,,,,,,,,,,,,,,,,,,,,,,,,,,,,,,,,,,,,,,,,,,,,,,,,,,,,,,,,,,,,,,,,,,,,,,,,,,,,,,,,,,,,,,,,,,,,,,,,,,,,,,,,,,,,,,,,,
,,,,,,5e5bd71ee0777c3bbe5b108c,62bbfb062e33886c7dd2440a,2022-06-29_10h11.20.344,Colour_Asymmetry_Pilot,2022.1.3,Win32,60.07810153,62bbe60bf3d75ef465d3e404,0,102,102,26,1,twoone,,,,,,,,,,,,,,,,,,,,,,,,,,,,,,,,,,,,,,,,,,,,,,,,,,,,,,,,,,,,,,,,,,,,,,,,,,,,,,,,,,,,,,,,,,,,,,,,,,,,,,,,,,,,,,,,,,,,,,,,,,,,,,,,,,,,,,,,,,,,,,,,,,,,,,,,
,,,,,,5e5bd71ee0777c3bbe5b108c,62bbfb062e33886c7dd2440a,2022-06-29_10h11.20.344,Colour_Asymmetry_Pilot,2022.1.3,Win32,60.07810153,62bbe60bf3d75ef465d3e404,0,103,103,30,1,fourtwo,,,,,,,,,,,,,,,,,,,,,,,,,,,,,,,,,,,,,,,,,,,,,,,,,,,,,,,,,,,,,,,,,,,,,,,,,,,,,,,,,,,,,,,,,,,,,,,,,,,,,,,,,,,,,,,,,,,,,,,,,,,,,,,,,,,,,,,,,,,,,,,,,,,,,,,,
,,,,,,5e5bd71ee0777c3bbe5b108c,62bbfb062e33886c7dd2440a,2022-06-29_10h11.20.344,Colour_Asymmetry_Pilot,2022.1.3,Win32,60.07810153,62bbe60bf3d75ef465d3e404,0,104,104,8,1,onetwo,,,,,,,,,,,,,,,,,,,,,,,,,,,,,,,,,,,,,,,,,,,,,,,,,,,,,,,,,,,,,,,,,,,,,,,,,,,,,,,,,,,,,,,,,,,,,,,,,,,,,,,,,,,,,,,,,,,,,,,,,,,,,,,,,,,,,,,,,,,,,,,,,,,,,,,,
,,,,,,5e5bd71ee0777c3bbe5b108c,62bbfb062e33886c7dd2440a,2022-06-29_10h11.20.344,Colour_Asymmetry_Pilot,2022.1.3,Win32,60.07810153,62bbe60bf3d75ef465d3e404,0,105,105,49,1,onethree,,,,,,,,,,,,,,,,,,,,,,,,,,,,,,,,,,,,,,,,,,,,,,,,,,,,,,,,,,,,,,,,,,,,,,,,,,,,,,,,,,,,,,,,,,,,,,,,,,,,,,,,,,,,,,,,,,,,,,,,,,,,,,,,,,,,,,,,,,,,,,,,,,,,,,,,
,,,,,,5e5bd71ee0777c3bbe5b108c,62bbfb062e33886c7dd2440a,2022-06-29_10h11.20.344,Colour_Asymmetry_Pilot,2022.1.3,Win32,60.07810153,62bbe60bf3d75ef465d3e404,0,106,106,95,1,fourthree,,,,,,,,,,,,,,,,,,,,,,,,,,,,,,,,,,,,,,,,,,,,,,,,,,,,,,,,,,,,,,,,,,,,,,,,,,,,,,,,,,,,,,,,,,,,,,,,,,,,,,,,,,,,,,,,,,,,,,,,,,,,,,,,,,,,,,,,,,,,,,,,,,,,,,,,
,,,,,,5e5bd71ee0777c3bbe5b108c,62bbfb062e33886c7dd2440a,2022-06-29_10h11.20.344,Colour_Asymmetry_Pilot,2022.1.3,Win32,60.07810153,62bbe60bf3d75ef465d3e404,0,107,107,68,1,threeone,,,,,,,,,,,,,,,,,,,,,,,,,,,,,,,,,,,,,,,,,,,,,,,,,,,,,,,,,,,,,,,,,,,,,,,,,,,,,,,,,,,,,,,,,,,,,,,,,,,,,,,,,,,,,,,,,,,,,,,,,,,,,,,,,,,,,,,,,,,,,,,,,,,,,,,,
,,,,,,5e5bd71ee0777c3bbe5b108c,62bbfb062e33886c7dd2440a,2022-06-29_10h11.20.344,Colour_Asymmetry_Pilot,2022.1.3,Win32,60.07810153,62bbe60bf3d75ef465d3e404,0,108,108,38,1,fourtwo,,,,,,,,,,,,,,,,,,,,,,,,,,,,,,,,,,,,,,,,,,,,,,,,,,,,,,,,,,,,,,,,,,,,,,,,,,,,,,,,,,,,,,,,,,,,,,,,,,,,,,,,,,,,,,,,,,,,,,,,,,,,,,,,,,,,,,,,,,,,,,,,,,,,,,,,
,,,,,,5e5bd71ee0777c3bbe5b108c,62bbfb062e33886c7dd2440a,2022-06-29_10h11.20.344,Colour_Asymmetry_Pilot,2022.1.3,Win32,60.07810153,62bbe60bf3d75ef465d3e404,0,109,109,114,1,twoone,,,,,,,,,,,,,,,,,,,,,,,,,,,,,,,,,,,,,,,,,,,,,,,,,,,,,,,,,,,,,,,,,,,,,,,,,,,,,,,,,,,,,,,,,,,,,,,,,,,,,,,,,,,,,,,,,,,,,,,,,,,,,,,,,,,,,,,,,,,,,,,,,,,,,,,,
,,,,,,5e5bd71ee0777c3bbe5b108c,62bbfb062e33886c7dd2440a,2022-06-29_10h11.20.344,Colour_Asymmetry_Pilot,2022.1.3,Win32,60.07810153,62bbe60bf3d75ef465d3e404,0,110,110,161,1,onethree,,,,,,,,,,,,,,,,,,,,,,,,,,,,,,,,,,,,,,,,,,,,,,,,,,,,,,,,,,,,,,,,,,,,,,,,,,,,,,,,,,,,,,,,,,,,,,,,,,,,,,,,,,,,,,,,,,,,,,,,,,,,,,,,,,,,,,,,,,,,,,,,,,,,,,,,
,,,,,,5e5bd71ee0777c3bbe5b108c,62bbfb062e33886c7dd2440a,2022-06-29_10h11.20.344,Colour_Asymmetry_Pilot,2022.1.3,Win32,60.07810153,62bbe60bf3d75ef465d3e404,0,111,111,154,1,twoone,,,,,,,,,,,,,,,,,,,,,,,,,,,,,,,,,,,,,,,,,,,,,,,,,,,,,,,,,,,,,,,,,,,,,,,,,,,,,,,,,,,,,,,,,,,,,,,,,,,,,,,,,,,,,,,,,,,,,,,,,,,,,,,,,,,,,,,,,,,,,,,,,,,,,,,,
,,,,,,5e5bd71ee0777c3bbe5b108c,62bbfb062e33886c7dd2440a,2022-06-29_10h11.20.344,Colour_Asymmetry_Pilot,2022.1.3,Win32,60.07810153,62bbe60bf3d75ef465d3e404,0,112,112,47,1,fourthree,,,,,,,,,,,,,,,,,,,,,,,,,,,,,,,,,,,,,,,,,,,,,,,,,,,,,,,,,,,,,,,,,,,,,,,,,,,,,,,,,,,,,,,,,,,,,,,,,,,,,,,,,,,,,,,,,,,,,,,,,,,,,,,,,,,,,,,,,,,,,,,,,,,,,,,,
,,,,,,5e5bd71ee0777c3bbe5b108c,62bbfb062e33886c7dd2440a,2022-06-29_10h11.20.344,Colour_Asymmetry_Pilot,2022.1.3,Win32,60.07810153,62bbe60bf3d75ef465d3e404,0,113,113,160,1,onetwo,,,,,,,,,,,,,,,,,,,,,,,,,,,,,,,,,,,,,,,,,,,,,,,,,,,,,,,,,,,,,,,,,,,,,,,,,,,,,,,,,,,,,,,,,,,,,,,,,,,,,,,,,,,,,,,,,,,,,,,,,,,,,,,,,,,,,,,,,,,,,,,,,,,,,,,,
,,,,,,5e5bd71ee0777c3bbe5b108c,62bbfb062e33886c7dd2440a,2022-06-29_10h11.20.344,Colour_Asymmetry_Pilot,2022.1.3,Win32,60.07810153,62bbe60bf3d75ef465d3e404,0,114,114,54,1,fourtwo,,,,,,,,,,,,,,,,,,,,,,,,,,,,,,,,,,,,,,,,,,,,,,,,,,,,,,,,,,,,,,,,,,,,,,,,,,,,,,,,,,,,,,,,,,,,,,,,,,,,,,,,,,,,,,,,,,,,,,,,,,,,,,,,,,,,,,,,,,,,,,,,,,,,,,,,
,,,,,,5e5bd71ee0777c3bbe5b108c,62bbfb062e33886c7dd2440a,2022-06-29_10h11.20.344,Colour_Asymmetry_Pilot,2022.1.3,Win32,60.07810153,62bbe60bf3d75ef465d3e404,0,115,115,41,1,onethree,,,,,,,,,,,,,,,,,,,,,,,,,,,,,,,,,,,,,,,,,,,,,,,,,,,,,,,,,,,,,,,,,,,,,,,,,,,,,,,,,,,,,,,,,,,,,,,,,,,,,,,,,,,,,,,,,,,,,,,,,,,,,,,,,,,,,,,,,,,,,,,,,,,,,,,,
,,,,,,5e5bd71ee0777c3bbe5b108c,62bbfb062e33886c7dd2440a,2022-06-29_10h11.20.344,Colour_Asymmetry_Pilot,2022.1.3,Win32,60.07810153,62bbe60bf3d75ef465d3e404,0,116,116,7,1,fourthree,,,,,,,,,,,,,,,,,,,,,,,,,,,,,,,,,,,,,,,,,,,,,,,,,,,,,,,,,,,,,,,,,,,,,,,,,,,,,,,,,,,,,,,,,,,,,,,,,,,,,,,,,,,,,,,,,,,,,,,,,,,,,,,,,,,,,,,,,,,,,,,,,,,,,,,,
,,,,,,5e5bd71ee0777c3bbe5b108c,62bbfb062e33886c7dd2440a,2022-06-29_10h11.20.344,Colour_Asymmetry_Pilot,2022.1.3,Win32,60.07810153,62bbe60bf3d75ef465d3e404,0,117,117,19,1,twofour,,,,,,,,,,,,,,,,,,,,,,,,,,,,,,,,,,,,,,,,,,,,,,,,,,,,,,,,,,,,,,,,,,,,,,,,,,,,,,,,,,,,,,,,,,,,,,,,,,,,,,,,,,,,,,,,,,,,,,,,,,,,,,,,,,,,,,,,,,,,,,,,,,,,,,,,
,,,,,,5e5bd71ee0777c3bbe5b108c,62bbfb062e33886c7dd2440a,2022-06-29_10h11.20.344,Colour_Asymmetry_Pilot,2022.1.3,Win32,60.07810153,62bbe60bf3d75ef465d3e404,0,118,118,117,1,threefour,,,,,,,,,,,,,,,,,,,,,,,,,,,,,,,,,,,,,,,,,,,,,,,,,,,,,,,,,,,,,,,,,,,,,,,,,,,,,,,,,,,,,,,,,,,,,,,,,,,,,,,,,,,,,,,,,,,,,,,,,,,,,,,,,,,,,,,,,,,,,,,,,,,,,,,,
,,,,,,5e5bd71ee0777c3bbe5b108c,62bbfb062e33886c7dd2440a,2022-06-29_10h11.20.344,Colour_Asymmetry_Pilot,2022.1.3,Win32,60.07810153,62bbe60bf3d75ef465d3e404,0,119,119,12,1,threeone,,,,,,,,,,,,,,,,,,,,,,,,,,,,,,,,,,,,,,,,,,,,,,,,,,,,,,,,,,,,,,,,,,,,,,,,,,,,,,,,,,,,,,,,,,,,,,,,,,,,,,,,,,,,,,,,,,,,,,,,,,,,,,,,,,,,,,,,,,,,,,,,,,,,,,,,
,,,,,,5e5bd71ee0777c3bbe5b108c,62bbfb062e33886c7dd2440a,2022-06-29_10h11.20.344,Colour_Asymmetry_Pilot,2022.1.3,Win32,60.07810153,62bbe60bf3d75ef465d3e404,0,120,120,74,1,twoone,,,,,,,,,,,,,,,,,,,,,,,,,,,,,,,,,,,,,,,,,,,,,,,,,,,,,,,,,,,,,,,,,,,,,,,,,,,,,,,,,,,,,,,,,,,,,,,,,,,,,,,,,,,,,,,,,,,,,,,,,,,,,,,,,,,,,,,,,,,,,,,,,,,,,,,,
,,,,,,5e5bd71ee0777c3bbe5b108c,62bbfb062e33886c7dd2440a,2022-06-29_10h11.20.344,Colour_Asymmetry_Pilot,2022.1.3,Win32,60.07810153,62bbe60bf3d75ef465d3e404,0,121,121,51,1,twofour,,,,,,,,,,,,,,,,,,,,,,,,,,,,,,,,,,,,,,,,,,,,,,,,,,,,,,,,,,,,,,,,,,,,,,,,,,,,,,,,,,,,,,,,,,,,,,,,,,,,,,,,,,,,,,,,,,,,,,,,,,,,,,,,,,,,,,,,,,,,,,,,,,,,,,,,
,,,,,,5e5bd71ee0777c3bbe5b108c,62bbfb062e33886c7dd2440a,2022-06-29_10h11.20.344,Colour_Asymmetry_Pilot,2022.1.3,Win32,60.07810153,62bbe60bf3d75ef465d3e404,0,122,122,129,1,onethree,,,,,,,,,,,,,,,,,,,,,,,,,,,,,,,,,,,,,,,,,,,,,,,,,,,,,,,,,,,,,,,,,,,,,,,,,,,,,,,,,,,,,,,,,,,,,,,,,,,,,,,,,,,,,,,,,,,,,,,,,,,,,,,,,,,,,,,,,,,,,,,,,,,,,,,,
,,,,,,5e5bd71ee0777c3bbe5b108c,62bbfb062e33886c7dd2440a,2022-06-29_10h11.20.344,Colour_Asymmetry_Pilot,2022.1.3,Win32,60.07810153,62bbe60bf3d75ef465d3e404,0,123,123,59,1,twofour,,,,,,,,,,,,,,,,,,,,,,,,,,,,,,,,,,,,,,,,,,,,,,,,,,,,,,,,,,,,,,,,,,,,,,,,,,,,,,,,,,,,,,,,,,,,,,,,,,,,,,,,,,,,,,,,,,,,,,,,,,,,,,,,,,,,,,,,,,,,,,,,,,,,,,,,
,,,,,,5e5bd71ee0777c3bbe5b108c,62bbfb062e33886c7dd2440a,2022-06-29_10h11.20.344,Colour_Asymmetry_Pilot,2022.1.3,Win32,60.07810153,62bbe60bf3d75ef465d3e404,0,124,124,102,1,fourtwo,,,,,,,,,,,,,,,,,,,,,,,,,,,,,,,,,,,,,,,,,,,,,,,,,,,,,,,,,,,,,,,,,,,,,,,,,,,,,,,,,,,,,,,,,,,,,,,,,,,,,,,,,,,,,,,,,,,,,,,,,,,,,,,,,,,,,,,,,,,,,,,,,,,,,,,,
,,,,,,5e5bd71ee0777c3bbe5b108c,62bbfb062e33886c7dd2440a,2022-06-29_10h11.20.344,Colour_Asymmetry_Pilot,2022.1.3,Win32,60.07810153,62bbe60bf3d75ef465d3e404,0,125,125,122,1,twoone,,,,,,,,,,,,,,,,,,,,,,,,,,,,,,,,,,,,,,,,,,,,,,,,,,,,,,,,,,,,,,,,,,,,,,,,,,,,,,,,,,,,,,,,,,,,,,,,,,,,,,,,,,,,,,,,,,,,,,,,,,,,,,,,,,,,,,,,,,,,,,,,,,,,,,,,
,,,,,,5e5bd71ee0777c3bbe5b108c,62bbfb062e33886c7dd2440a,2022-06-29_10h11.20.344,Colour_Asymmetry_Pilot,2022.1.3,Win32,60.07810153,62bbe60bf3d75ef465d3e404,0,126,126,127,1,fourthree,,,,,,,,,,,,,,,,,,,,,,,,,,,,,,,,,,,,,,,,,,,,,,,,,,,,,,,,,,,,,,,,,,,,,,,,,,,,,,,,,,,,,,,,,,,,,,,,,,,,,,,,,,,,,,,,,,,,,,,,,,,,,,,,,,,,,,,,,,,,,,,,,,,,,,,,
,,,,,,5e5bd71ee0777c3bbe5b108c,62bbfb062e33886c7dd2440a,2022-06-29_10h11.20.344,Colour_Asymmetry_Pilot,2022.1.3,Win32,60.07810153,62bbe60bf3d75ef465d3e404,0,127,127,135,1,fourthree,,,,,,,,,,,,,,,,,,,,,,,,,,,,,,,,,,,,,,,,,,,,,,,,,,,,,,,,,,,,,,,,,,,,,,,,,,,,,,,,,,,,,,,,,,,,,,,,,,,,,,,,,,,,,,,,,,,,,,,,,,,,,,,,,,,,,,,,,,,,,,,,,,,,,,,,
,,,,,,5e5bd71ee0777c3bbe5b108c,62bbfb062e33886c7dd2440a,2022-06-29_10h11.20.344,Colour_Asymmetry_Pilot,2022.1.3,Win32,60.07810153,62bbe60bf3d75ef465d3e404,0,128,128,48,1,onetwo,,,,,,,,,,,,,,,,,,,,,,,,,,,,,,,,,,,,,,,,,,,,,,,,,,,,,,,,,,,,,,,,,,,,,,,,,,,,,,,,,,,,,,,,,,,,,,,,,,,,,,,,,,,,,,,,,,,,,,,,,,,,,,,,,,,,,,,,,,,,,,,,,,,,,,,,
,,,,,,5e5bd71ee0777c3bbe5b108c,62bbfb062e33886c7dd2440a,2022-06-29_10h11.20.344,Colour_Asymmetry_Pilot,2022.1.3,Win32,60.07810153,62bbe60bf3d75ef465d3e404,0,129,129,128,1,onetwo,,,,,,,,,,,,,,,,,,,,,,,,,,,,,,,,,,,,,,,,,,,,,,,,,,,,,,,,,,,,,,,,,,,,,,,,,,,,,,,,,,,,,,,,,,,,,,,,,,,,,,,,,,,,,,,,,,,,,,,,,,,,,,,,,,,,,,,,,,,,,,,,,,,,,,,,
,,,,,,5e5bd71ee0777c3bbe5b108c,62bbfb062e33886c7dd2440a,2022-06-29_10h11.20.344,Colour_Asymmetry_Pilot,2022.1.3,Win32,60.07810153,62bbe60bf3d75ef465d3e404,0,130,130,78,1,fourtwo,,,,,,,,,,,,,,,,,,,,,,,,,,,,,,,,,,,,,,,,,,,,,,,,,,,,,,,,,,,,,,,,,,,,,,,,,,,,,,,,,,,,,,,,,,,,,,,,,,,,,,,,,,,,,,,,,,,,,,,,,,,,,,,,,,,,,,,,,,,,,,,,,,,,,,,,
,,,,,,5e5bd71ee0777c3bbe5b108c,62bbfb062e33886c7dd2440a,2022-06-29_10h11.20.344,Colour_Asymmetry_Pilot,2022.1.3,Win32,60.07810153,62bbe60bf3d75ef465d3e404,0,131,131,142,1,fourtwo,,,,,,,,,,,,,,,,,,,,,,,,,,,,,,,,,,,,,,,,,,,,,,,,,,,,,,,,,,,,,,,,,,,,,,,,,,,,,,,,,,,,,,,,,,,,,,,,,,,,,,,,,,,,,,,,,,,,,,,,,,,,,,,,,,,,,,,,,,,,,,,,,,,,,,,,
,,,,,,5e5bd71ee0777c3bbe5b108c,62bbfb062e33886c7dd2440a,2022-06-29_10h11.20.344,Colour_Asymmetry_Pilot,2022.1.3,Win32,60.07810153,62bbe60bf3d75ef465d3e404,0,132,132,76,1,threeone,,,,,,,,,,,,,,,,,,,,,,,,,,,,,,,,,,,,,,,,,,,,,,,,,,,,,,,,,,,,,,,,,,,,,,,,,,,,,,,,,,,,,,,,,,,,,,,,,,,,,,,,,,,,,,,,,,,,,,,,,,,,,,,,,,,,,,,,,,,,,,,,,,,,,,,,
,,,,,,5e5bd71ee0777c3bbe5b108c,62bbfb062e33886c7dd2440a,2022-06-29_10h11.20.344,Colour_Asymmetry_Pilot,2022.1.3,Win32,60.07810153,62bbe60bf3d75ef465d3e404,0,133,133,40,1,onetwo,,,,,,,,,,,,,,,,,,,,,,,,,,,,,,,,,,,,,,,,,,,,,,,,,,,,,,,,,,,,,,,,,,,,,,,,,,,,,,,,,,,,,,,,,,,,,,,,,,,,,,,,,,,,,,,,,,,,,,,,,,,,,,,,,,,,,,,,,,,,,,,,,,,,,,,,
,,,,,,5e5bd71ee0777c3bbe5b108c,62bbfb062e33886c7dd2440a,2022-06-29_10h11.20.344,Colour_Asymmetry_Pilot,2022.1.3,Win32,60.07810153,62bbe60bf3d75ef465d3e404,0,134,134,87,1,fourthree,,,,,,,,,,,,,,,,,,,,,,,,,,,,,,,,,,,,,,,,,,,,,,,,,,,,,,,,,,,,,,,,,,,,,,,,,,,,,,,,,,,,,,,,,,,,,,,,,,,,,,,,,,,,,,,,,,,,,,,,,,,,,,,,,,,,,,,,,,,,,,,,,,,,,,,,
,,,,,,5e5bd71ee0777c3bbe5b108c,62bbfb062e33886c7dd2440a,2022-06-29_10h11.20.344,Colour_Asymmetry_Pilot,2022.1.3,Win32,60.07810153,62bbe60bf3d75ef465d3e404,0,135,135,155,1,twofour,,,,,,,,,,,,,,,,,,,,,,,,,,,,,,,,,,,,,,,,,,,,,,,,,,,,,,,,,,,,,,,,,,,,,,,,,,,,,,,,,,,,,,,,,,,,,,,,,,,,,,,,,,,,,,,,,,,,,,,,,,,,,,,,,,,,,,,,,,,,,,,,,,,,,,,,
,,,,,,5e5bd71ee0777c3bbe5b108c,62bbfb062e33886c7dd2440a,2022-06-29_10h11.20.344,Colour_Asymmetry_Pilot,2022.1.3,Win32,60.07810153,62bbe60bf3d75ef465d3e404,0,136,136,101,1,threefour,,,,,,,,,,,,,,,,,,,,,,,,,,,,,,,,,,,,,,,,,,,,,,,,,,,,,,,,,,,,,,,,,,,,,,,,,,,,,,,,,,,,,,,,,,,,,,,,,,,,,,,,,,,,,,,,,,,,,,,,,,,,,,,,,,,,,,,,,,,,,,,,,,,,,,,,
,,,,,,5e5bd71ee0777c3bbe5b108c,62bbfb062e33886c7dd2440a,2022-06-29_10h11.20.344,Colour_Asymmetry_Pilot,2022.1.3,Win32,60.07810153,62bbe60bf3d75ef465d3e404,0,137,137,62,1,fourtwo,,,,,,,,,,,,,,,,,,,,,,,,,,,,,,,,,,,,,,,,,,,,,,,,,,,,,,,,,,,,,,,,,,,,,,,,,,,,,,,,,,,,,,,,,,,,,,,,,,,,,,,,,,,,,,,,,,,,,,,,,,,,,,,,,,,,,,,,,,,,,,,,,,,,,,,,
,,,,,,5e5bd71ee0777c3bbe5b108c,62bbfb062e33886c7dd2440a,2022-06-29_10h11.20.344,Colour_Asymmetry_Pilot,2022.1.3,Win32,60.07810153,62bbe60bf3d75ef465d3e404,0,138,138,80,1,onetwo,,,,,,,,,,,,,,,,,,,,,,,,,,,,,,,,,,,,,,,,,,,,,,,,,,,,,,,,,,,,,,,,,,,,,,,,,,,,,,,,,,,,,,,,,,,,,,,,,,,,,,,,,,,,,,,,,,,,,,,,,,,,,,,,,,,,,,,,,,,,,,,,,,,,,,,,
,,,,,,5e5bd71ee0777c3bbe5b108c,62bbfb062e33886c7dd2440a,2022-06-29_10h11.20.344,Colour_Asymmetry_Pilot,2022.1.3,Win32,60.07810153,62bbe60bf3d75ef465d3e404,0,139,139,1,1,onethree,,,,,,,,,,,,,,,,,,,,,,,,,,,,,,,,,,,,,,,,,,,,,,,,,,,,,,,,,,,,,,,,,,,,,,,,,,,,,,,,,,,,,,,,,,,,,,,,,,,,,,,,,,,,,,,,,,,,,,,,,,,,,,,,,,,,,,,,,,,,,,,,,,,,,,,,
,,,,,,5e5bd71ee0777c3bbe5b108c,62bbfb062e33886c7dd2440a,2022-06-29_10h11.20.344,Colour_Asymmetry_Pilot,2022.1.3,Win32,60.07810153,62bbe60bf3d75ef465d3e404,0,140,140,106,1,twoone,,,,,,,,,,,,,,,,,,,,,,,,,,,,,,,,,,,,,,,,,,,,,,,,,,,,,,,,,,,,,,,,,,,,,,,,,,,,,,,,,,,,,,,,,,,,,,,,,,,,,,,,,,,,,,,,,,,,,,,,,,,,,,,,,,,,,,,,,,,,,,,,,,,,,,,,
,,,,,,5e5bd71ee0777c3bbe5b108c,62bbfb062e33886c7dd2440a,2022-06-29_10h11.20.344,Colour_Asymmetry_Pilot,2022.1.3,Win32,60.07810153,62bbe60bf3d75ef465d3e404,0,141,141,23,1,fourthree,,,,,,,,,,,,,,,,,,,,,,,,,,,,,,,,,,,,,,,,,,,,,,,,,,,,,,,,,,,,,,,,,,,,,,,,,,,,,,,,,,,,,,,,,,,,,,,,,,,,,,,,,,,,,,,,,,,,,,,,,,,,,,,,,,,,,,,,,,,,,,,,,,,,,,,,
,,,,,,5e5bd71ee0777c3bbe5b108c,62bbfb062e33886c7dd2440a,2022-06-29_10h11.20.344,Colour_Asymmetry_Pilot,2022.1.3,Win32,60.07810153,62bbe60bf3d75ef465d3e404,0,142,142,50,1,twoone,,,,,,,,,,,,,,,,,,,,,,,,,,,,,,,,,,,,,,,,,,,,,,,,,,,,,,,,,,,,,,,,,,,,,,,,,,,,,,,,,,,,,,,,,,,,,,,,,,,,,,,,,,,,,,,,,,,,,,,,,,,,,,,,,,,,,,,,,,,,,,,,,,,,,,,,
,,,,,,5e5bd71ee0777c3bbe5b108c,62bbfb062e33886c7dd2440a,2022-06-29_10h11.20.344,Colour_Asymmetry_Pilot,2022.1.3,Win32,60.07810153,62bbe60bf3d75ef465d3e404,0,143,143,83,1,twofour,,,,,,,,,,,,,,,,,,,,,,,,,,,,,,,,,,,,,,,,,,,,,,,,,,,,,,,,,,,,,,,,,,,,,,,,,,,,,,,,,,,,,,,,,,,,,,,,,,,,,,,,,,,,,,,,,,,,,,,,,,,,,,,,,,,,,,,,,,,,,,,,,,,,,,,,
,,,,,,5e5bd71ee0777c3bbe5b108c,62bbfb062e33886c7dd2440a,2022-06-29_10h11.20.344,Colour_Asymmetry_Pilot,2022.1.3,Win32,60.07810153,62bbe60bf3d75ef465d3e404,0,144,144,85,1,threefour,,,,,,,,,,,,,,,,,,,,,,,,,,,,,,,,,,,,,,,,,,,,,,,,,,,,,,,,,,,,,,,,,,,,,,,,,,,,,,,,,,,,,,,,,,,,,,,,,,,,,,,,,,,,,,,,,,,,,,,,,,,,,,,,,,,,,,,,,,,,,,,,,,,,,,,,
,,,,,,5e5bd71ee0777c3bbe5b108c,62bbfb062e33886c7dd2440a,2022-06-29_10h11.20.344,Colour_Asymmetry_Pilot,2022.1.3,Win32,60.07810153,62bbe60bf3d75ef465d3e404,0,145,145,158,1,fourtwo,,,,,,,,,,,,,,,,,,,,,,,,,,,,,,,,,,,,,,,,,,,,,,,,,,,,,,,,,,,,,,,,,,,,,,,,,,,,,,,,,,,,,,,,,,,,,,,,,,,,,,,,,,,,,,,,,,,,,,,,,,,,,,,,,,,,,,,,,,,,,,,,,,,,,,,,
,,,,,,5e5bd71ee0777c3bbe5b108c,62bbfb062e33886c7dd2440a,2022-06-29_10h11.20.344,Colour_Asymmetry_Pilot,2022.1.3,Win32,60.07810153,62bbe60bf3d75ef465d3e404,0,146,146,37,1,threefour,,,,,,,,,,,,,,,,,,,,,,,,,,,,,,,,,,,,,,,,,,,,,,,,,,,,,,,,,,,,,,,,,,,,,,,,,,,,,,,,,,,,,,,,,,,,,,,,,,,,,,,,,,,,,,,,,,,,,,,,,,,,,,,,,,,,,,,,,,,,,,,,,,,,,,,,
,,,,,,5e5bd71ee0777c3bbe5b108c,62bbfb062e33886c7dd2440a,2022-06-29_10h11.20.344,Colour_Asymmetry_Pilot,2022.1.3,Win32,60.07810153,62bbe60bf3d75ef465d3e404,0,147,147,96,1,onetwo,,,,,,,,,,,,,,,,,,,,,,,,,,,,,,,,,,,,,,,,,,,,,,,,,,,,,,,,,,,,,,,,,,,,,,,,,,,,,,,,,,,,,,,,,,,,,,,,,,,,,,,,,,,,,,,,,,,,,,,,,,,,,,,,,,,,,,,,,,,,,,,,,,,,,,,,
,,,,,,5e5bd71ee0777c3bbe5b108c,62bbfb062e33886c7dd2440a,2022-06-29_10h11.20.344,Colour_Asymmetry_Pilot,2022.1.3,Win32,60.07810153,62bbe60bf3d75ef465d3e404,0,148,148,108,1,threeone,,,,,,,,,,,,,,,,,,,,,,,,,,,,,,,,,,,,,,,,,,,,,,,,,,,,,,,,,,,,,,,,,,,,,,,,,,,,,,,,,,,,,,,,,,,,,,,,,,,,,,,,,,,,,,,,,,,,,,,,,,,,,,,,,,,,,,,,,,,,,,,,,,,,,,,,
,,,,,,5e5bd71ee0777c3bbe5b108c,62bbfb062e33886c7dd2440a,2022-06-29_10h11.20.344,Colour_Asymmetry_Pilot,2022.1.3,Win32,60.07810153,62bbe60bf3d75ef465d3e404,0,149,149,145,1,onethree,,,,,,,,,,,,,,,,,,,,,,,,,,,,,,,,,,,,,,,,,,,,,,,,,,,,,,,,,,,,,,,,,,,,,,,,,,,,,,,,,,,,,,,,,,,,,,,,,,,,,,,,,,,,,,,,,,,,,,,,,,,,,,,,,,,,,,,,,,,,,,,,,,,,,,,,
,,,,,,5e5bd71ee0777c3bbe5b108c,62bbfb062e33886c7dd2440a,2022-06-29_10h11.20.344,Colour_Asymmetry_Pilot,2022.1.3,Win32,60.07810153,62bbe60bf3d75ef465d3e404,0,150,150,132,1,threeone,,,,,,,,,,,,,,,,,,,,,,,,,,,,,,,,,,,,,,,,,,,,,,,,,,,,,,,,,,,,,,,,,,,,,,,,,,,,,,,,,,,,,,,,,,,,,,,,,,,,,,,,,,,,,,,,,,,,,,,,,,,,,,,,,,,,,,,,,,,,,,,,,,,,,,,,
,,,,,,5e5bd71ee0777c3bbe5b108c,62bbfb062e33886c7dd2440a,2022-06-29_10h11.20.344,Colour_Asymmetry_Pilot,2022.1.3,Win32,60.07810153,62bbe60bf3d75ef465d3e404,0,151,151,146,1,twoone,,,,,,,,,,,,,,,,,,,,,,,,,,,,,,,,,,,,,,,,,,,,,,,,,,,,,,,,,,,,,,,,,,,,,,,,,,,,,,,,,,,,,,,,,,,,,,,,,,,,,,,,,,,,,,,,,,,,,,,,,,,,,,,,,,,,,,,,,,,,,,,,,,,,,,,,
,,,,,,5e5bd71ee0777c3bbe5b108c,62bbfb062e33886c7dd2440a,2022-06-29_10h11.20.344,Colour_Asymmetry_Pilot,2022.1.3,Win32,60.07810153,62bbe60bf3d75ef465d3e404,0,152,152,152,1,onetwo,,,,,,,,,,,,,,,,,,,,,,,,,,,,,,,,,,,,,,,,,,,,,,,,,,,,,,,,,,,,,,,,,,,,,,,,,,,,,,,,,,,,,,,,,,,,,,,,,,,,,,,,,,,,,,,,,,,,,,,,,,,,,,,,,,,,,,,,,,,,,,,,,,,,,,,,
,,,,,,5e5bd71ee0777c3bbe5b108c,62bbfb062e33886c7dd2440a,2022-06-29_10h11.20.344,Colour_Asymmetry_Pilot,2022.1.3,Win32,60.07810153,62bbe60bf3d75ef465d3e404,0,153,153,103,1,fourthree,,,,,,,,,,,,,,,,,,,,,,,,,,,,,,,,,,,,,,,,,,,,,,,,,,,,,,,,,,,,,,,,,,,,,,,,,,,,,,,,,,,,,,,,,,,,,,,,,,,,,,,,,,,,,,,,,,,,,,,,,,,,,,,,,,,,,,,,,,,,,,,,,,,,,,,,
,,,,,,5e5bd71ee0777c3bbe5b108c,62bbfb062e33886c7dd2440a,2022-06-29_10h11.20.344,Colour_Asymmetry_Pilot,2022.1.3,Win32,60.07810153,62bbe60bf3d75ef465d3e404,0,154,154,42,1,twoone,,,,,,,,,,,,,,,,,,,,,,,,,,,,,,,,,,,,,,,,,,,,,,,,,,,,,,,,,,,,,,,,,,,,,,,,,,,,,,,,,,,,,,,,,,,,,,,,,,,,,,,,,,,,,,,,,,,,,,,,,,,,,,,,,,,,,,,,,,,,,,,,,,,,,,,,
,,,,,,5e5bd71ee0777c3bbe5b108c,62bbfb062e33886c7dd2440a,2022-06-29_10h11.20.344,Colour_Asymmetry_Pilot,2022.1.3,Win32,60.07810153,62bbe60bf3d75ef465d3e404,0,155,155,157,1,threefour,,,,,,,,,,,,,,,,,,,,,,,,,,,,,,,,,,,,,,,,,,,,,,,,,,,,,,,,,,,,,,,,,,,,,,,,,,,,,,,,,,,,,,,,,,,,,,,,,,,,,,,,,,,,,,,,,,,,,,,,,,,,,,,,,,,,,,,,,,,,,,,,,,,,,,,,
,,,,,,5e5bd71ee0777c3bbe5b108c,62bbfb062e33886c7dd2440a,2022-06-29_10h11.20.344,Colour_Asymmetry_Pilot,2022.1.3,Win32,60.07810153,62bbe60bf3d75ef465d3e404,0,156,156,113,1,onethree,,,,,,,,,,,,,,,,,,,,,,,,,,,,,,,,,,,,,,,,,,,,,,,,,,,,,,,,,,,,,,,,,,,,,,,,,,,,,,,,,,,,,,,,,,,,,,,,,,,,,,,,,,,,,,,,,,,,,,,,,,,,,,,,,,,,,,,,,,,,,,,,,,,,,,,,
,,,,,,5e5bd71ee0777c3bbe5b108c,62bbfb062e33886c7dd2440a,2022-06-29_10h11.20.344,Colour_Asymmetry_Pilot,2022.1.3,Win32,60.07810153,62bbe60bf3d75ef465d3e404,0,157,157,98,1,twoone,,,,,,,,,,,,,,,,,,,,,,,,,,,,,,,,,,,,,,,,,,,,,,,,,,,,,,,,,,,,,,,,,,,,,,,,,,,,,,,,,,,,,,,,,,,,,,,,,,,,,,,,,,,,,,,,,,,,,,,,,,,,,,,,,,,,,,,,,,,,,,,,,,,,,,,,
,,,,,,5e5bd71ee0777c3bbe5b108c,62bbfb062e33886c7dd2440a,2022-06-29_10h11.20.344,Colour_Asymmetry_Pilot,2022.1.3,Win32,60.07810153,62bbe60bf3d75ef465d3e404,0,158,158,79,1,fourthree,,,,,,,,,,,,,,,,,,,,,,,,,,,,,,,,,,,,,,,,,,,,,,,,,,,,,,,,,,,,,,,,,,,,,,,,,,,,,,,,,,,,,,,,,,,,,,,,,,,,,,,,,,,,,,,,,,,,,,,,,,,,,,,,,,,,,,,,,,,,,,,,,,,,,,,,
,,,,,,5e5bd71ee0777c3bbe5b108c,62bbfb062e33886c7dd2440a,2022-06-29_10h11.20.344,Colour_Asymmetry_Pilot,2022.1.3,Win32,60.07810153,62bbe60bf3d75ef465d3e404,0,159,159,97,1,onethree,,,,,,,,,,,,,,,,,,,,,,,,,,,,,,,,,,,,,,,,,,,,,,,,,,,,,,,,,,,,,,,,,,,,,,,,,,,,,,,,,,,,,,,,,,,,,,,,,,,,,,,,,,,,,,,,,,,,,,,,,,,,,,,,,,,,,,,,,,,,,,,,,,,,,,,,
,,,,,,5e5bd71ee0777c3bbe5b108c,62bbfb062e33886c7dd2440a,2022-06-29_10h11.20.344,Colour_Asymmetry_Pilot,2022.1.3,Win32,60.07810153,62bbe60bf3d75ef465d3e404,0,160,160,36,1,threeone,,,,,,,,,,,,,,,,,,,,,,,,,,,,,,,,,,,,,,,,,,,,,,,,,,,,,,,,,,,,,,,,,,,,,,,,,,,,,,,,,,,,,,,,,,,,,,,,,,,,,,,,,,,,,,,,,,,,,,,,,,,,,,,,,,,,,,,,,,,,,,,,,,,,,,,,
,,,,,,5e5bd71ee0777c3bbe5b108c,62bbfb062e33886c7dd2440a,2022-06-29_10h11.20.344,Colour_Asymmetry_Pilot,2022.1.3,Win32,60.07810153,62bbe60bf3d75ef465d3e404,0,161,161,70,1,fourtwo,,,,,,,,,,,,,,,,,,,,,,,,,,,,,,,,,,,,,,,,,,,,,,,,,,,,,,,,,,,,,,,,,,,,,,,,,,,,,,,,,,,,,,,,,,,,,,,,,,,,,,,,,,,,,,,,,,,,,,,,,,,,,,,,,,,,,,,,,,,,,,,,,,,,,,,,
,,,,,,5e5bd71ee0777c3bbe5b108c,62bbfb062e33886c7dd2440a,2022-06-29_10h11.20.344,Colour_Asymmetry_Pilot,2022.1.3,Win32,60.07810153,62bbe60bf3d75ef465d3e404,,,,,,,space,4.7088,space,23.1974,space,61.4055,space,12.1607,space,11.4822,space,8.1942,"[-0.06680000000000008,-0.45100000000000007,-0.906]",twoone,"[-0.20799999999999996,-0.655,-0.01980000000000004]",2,11.6002,90.38891602,-39.05557251,1,0,0,response3disk_5,-4.055541992,0.94442749,1,0,0,rectangle_8,-4.055541992,0.94442749,1,0,0,3,-4.055541992,0.94442749,1,0,0,0,0,0,0,1,,,,,,,,,,,,,,,,,,,,,,,,,,,,,,,,,,,,,,,,,,,,,,,,,,,,,,,,,,,,,,,,,,,,,,,,,,,,,,,,,,,,,,,,,,,,,,,,,,,,,,,,,,,
,,,,,,5e5bd71ee0777c3bbe5b108c,62bbfb062e33886c7dd2440a,2022-06-29_10h11.20.344,Colour_Asymmetry_Pilot,2022.1.3,Win32,60.07810153,62bbe60bf3d75ef465d3e404,,,,,,,,,,,,,,,,,,,"[0.34099999999999997,0.5841999999999998,-0.9844]",threefour,"[-0.4982,-0.2942,-0.0354000000000001]",-1,3.1972,-45.16662598,-69.05557251,1,0,0,response5disk_5,2.61114502,3.166656494,1,0,0,rectangle_8,2.61114502,3.166656494,1,0,0,3,2.61114502,3.166656494,1,0,0,1,0,1,0,1,,,,,,,,,,,,,,,,,,,,,,,,,,,,,,,,,,,,,,,,,,,,,,,,,,,,,,,,,,,,,,,,,,,,,,,,,,,,,,,,,,,,,,,,,,,,,,,,,,,,,,,,,,,
,,,,,,5e5bd71ee0777c3bbe5b108c,62bbfb062e33886c7dd2440a,2022-06-29_10h11.20.344,Colour_Asymmetry_Pilot,2022.1.3,Win32,60.07810153,62bbe60bf3d75ef465d3e404,,,,,,,,,,,,,,,,,,,"[-0.050999999999999934,-0.6706000000000001,-0.804]",onethree,"[0.05879999999999996,0.2784,0.5841999999999998]",-3,1.5339,-80.72210693,37.61108398,1,0,0,response7disk_5,-6.277770996,6.499938965,1,0,0,rectangle_8,93.72235107,33.16665649,1,0,0,3,-5.166625977,6.499938965,1,0,0,2,0,2,0,1,response1disk_7,6,rectangle_4,,,,,,,,,,,,,,,,,,,,,,,,,,,,,,,,,,,,,,,,,,,,,,,,,,,,,,,,,,,,,,,,,,,,,,,,,,,,,,,,,,,,,,,,,,,,,,,,,,,,,,,,
,,,,,,5e5bd71ee0777c3bbe5b108c,62bbfb062e33886c7dd2440a,2022-06-29_10h11.20.344,Colour_Asymmetry_Pilot,2022.1.3,Win32,60.07810153,62bbe60bf3d75ef465d3e404,,,,,,,,,,,,,,,,,,,"[0.3802000000000001,0.19199999999999995,-0.6394]",onethree,"[0.6547999999999998,-0.043199999999999905,-0.011800000000000033]",2,1.7745,87.05560303,-42.38891602,1,0,0,response3disk_5,-10.72210693,-0.166687012,1,0,0,rectangle_8,-10.72210693,-0.166687012,1,0,0,3,-10.72210693,-0.166687012,1,0,0,3,0,3,0,1,,,,,,,,,,,,,,,,,,,,,,,,,,,,,,,,,,,,,,,,,,,,,,,,,,,,,,,,,,,,,,,,,,,,,,,,,,,,,,,,,,,,,,,,,,,,,,,,,,,,,,,,,,,
,,,,,,5e5bd71ee0777c3bbe5b108c,62bbfb062e33886c7dd2440a,2022-06-29_10h11.20.344,Colour_Asymmetry_Pilot,2022.1.3,Win32,60.07810153,62bbe60bf3d75ef465d3e404,,,,,,,,,,,,,,,,,,,"[-0.5922000000000001,-0.7492000000000001,-0.5296000000000001]",onetwo,"[0.4196,0.4665999999999999,0.3568]",-1,2.7592,-35.16662598,-73.50006104,1,0,0,response5disk_5,-8.49987793,-0.166687012,1,0,0,rectangle_8,-8.49987793,-0.166687012,1,0,0,3,-8.49987793,-0.166687012,1,0,0,4,0,4,0,1,,,,,,,,,,,,,,,,,,,,,,,,,,,,,,,,,,,,,,,,,,,,,,,,,,,,,,,,,,,,,,,,,,,,,,,,,,,,,,,,,,,,,,,,,,,,,,,,,,,,,,,,,,,
,,,,,,5e5bd71ee0777c3bbe5b108c,62bbfb062e33886c7dd2440a,2022-06-29_10h11.20.344,Colour_Asymmetry_Pilot,2022.1.3,Win32,60.07810153,62bbe60bf3d75ef465d3e404,,,,,,,,,,,,,,,,,,,"[0.23120000000000007,-0.7726,-0.34120000000000006]",onetwo,"[0.2784,-0.31000000000000005,-0.5452]",3,1.2837,90.38891602,46.49993896,1,0,0,response1disk_5,-17.38885498,-7.944458008,1,0,0,rectangle_8,83.72235107,35.38882446,1,0,0,3,-5.166625977,0.94442749,1,0,0,5,0,5,0,1,response1disk_7,6,rectangle_4,,,,,,,,,,,,,,,,,,,,,,,,,,,,,,,,,,,,,,,,,,,,,,,,,,,,,,,,,,,,,,,,,,,,,,,,,,,,,,,,,,,,,,,,,,,,,,,,,,,,,,,,
,,,,,,5e5bd71ee0777c3bbe5b108c,62bbfb062e33886c7dd2440a,2022-06-29_10h11.20.344,Colour_Asymmetry_Pilot,2022.1.3,Win32,60.07810153,62bbe60bf3d75ef465d3e404,,,,,,,,,,,,,,,,,,,"[0.30180000000000007,-0.7884,-0.9844]",onetwo,"[-0.4668,-0.8746,-0.2942]",-2,1.2163,-65.16662598,-31.27780151,1,0,0,response5disk_5,4.833374023,6.499938965,1,0,0,rectangle_8,4.833374023,6.499938965,1,0,0,3,4.833374023,6.499938965,1,0,0,6,0,6,0,1,,,,,,,,,,,,,,,,,,,,,,,,,,,,,,,,,,,,,,,,,,,,,,,,,,,,,,,,,,,,,,,,,,,,,,,,,,,,,,,,,,,,,,,,,,,,,,,,,,,,,,,,,,,
,,,,,,5e5bd71ee0777c3bbe5b108c,62bbfb062e33886c7dd2440a,2022-06-29_10h11.20.344,Colour_Asymmetry_Pilot,2022.1.3,Win32,60.07810153,62bbe60bf3d75ef465d3e404,,,,,,,,,,,,,,,,,,,,twofour,,-3,1.1947,,,,,,,,,,,,,,,,,,,,,,,,,,,,,,,,space,6.1573,"[0.9686000000000001,0.3802000000000001,0.19999999999999996]","[-0.8118,-0.8198,-0.5452]",-86.277771,46.49993896,1,0,0,response7disk,-15.16662598,0.94442749,1,0,0,rectangle,-15.16662598,0.94442749,1,0,0,,1,0.0021,0,-15.16662598,0.94442749,1,0,0,0,0,0,17,1,17,first,,,,,,,,,,,,,,,,,,,,,,,,,,,,,,,,,,,,,,,,,,,,,,,,,,,,,,,,,,,,,,,,,,,
,,,,,,5e5bd71ee0777c3bbe5b108c,62bbfb062e33886c7dd2440a,2022-06-29_10h11.20.344,Colour_Asymmetry_Pilot,2022.1.3,Win32,60.07810153,62bbe60bf3d75ef465d3e404,,,,,,,,,,,,,,,,,,,,threeone,,3,1.4304,,,,,,,,,,,,,,,,,,,,,,,,,,,,,,,,,,"[0.9213999999999998,0.6391999999999998,-0.9922]","[0.3802000000000001,0.19199999999999995,-0.6394]",91.50012207,66.49993896,1,0,0,response1disk,14.83337402,6.499938965,1,0,0,rectangle,84.83337402,45.3888855,1,0,0,3,2,2.7166,1,-1.833312988,3.166656494,1,0,0,0,1,1,159,1,78,second,response1disk_3,rectangle,,,,,,,,,,,,,,,,,,,,,,,,,,,,,,,,,,,,,,,,,,,,,,,,,,,,,,,,,,,,,,,,,
,,,,,,5e5bd71ee0777c3bbe5b108c,62bbfb062e33886c7dd2440a,2022-06-29_10h11.20.344,Colour_Asymmetry_Pilot,2022.1.3,Win32,60.07810153,62bbe60bf3d75ef465d3e404,,,,,,,,,,,,,,,,,,,,fourthree,,-3,2.282,,,,,,,,,,,,,,,,,,,,,,,,,,,,,,,,,,"[-0.8118,-0.8198,-0.5452]","[0.9763999999999999,0.30979999999999985,-0.6786]",-77.38885498,47.61105347,1,0,0,response7disk,1.50012207,-1.277801514,1,0,0,rectangle,1.50012207,-1.277801514,1,0,0,3,1,0.0021,0,1.50012207,-1.277801514,1,0,0,0,2,2,101,1,20,second,,,,,,,,,,,,,,,,,,,,,,,,,,,,,,,,,,,,,,,,,,,,,,,,,,,,,,,,,,,,,,,,,,,
,,,,,,5e5bd71ee0777c3bbe5b108c,62bbfb062e33886c7dd2440a,2022-06-29_10h11.20.344,Colour_Asymmetry_Pilot,2022.1.3,Win32,60.07810153,62bbe60bf3d75ef465d3e404,,,,,,,,,,,,,,,,,,,,onethree,,-1,1.3364,,,,,,,,,,,,,,,,,,,,,,,,,,,,,,,,,,"[0.9763999999999999,0.8588,-0.05900000000000005]","[0.0351999999999999,0.41159999999999997,0.0038000000000000256]",-56.277771,-72.38891602,1,0,0,response5disk,-2.944396973,-0.166687012,1,0,0,rectangle,-2.944396973,-0.166687012,1,0,0,3,3,0.001,0,-2.944396973,-0.166687012,1,0,0,0,3,3,84,1,3,second,,,,,,,,,,,,,,,,,,,,,,,,,,,,,,,,,,,,,,,,,,,,,,,,,,,,,,,,,,,,,,,,,,,
,,,,,,5e5bd71ee0777c3bbe5b108c,62bbfb062e33886c7dd2440a,2022-06-29_10h11.20.344,Colour_Asymmetry_Pilot,2022.1.3,Win32,60.07810153,62bbe60bf3d75ef465d3e404,,,,,,,,,,,,,,,,,,,,onetwo,,-1,1.9454,,,,,,,,,,,,,,,,,,,,,,,,,,,,,,,,,,"[-0.24719999999999998,-0.0354000000000001,0.3175999999999999]","[0.5528,0.7409999999999999,-0.71]",-42.94439697,-80.16668701,1,0,0,response5disk,-2.944396973,2.055541992,1,0,0,rectangle,-2.944396973,2.055541992,1,0,0,3,2,0.0016,0,-2.944396973,2.055541992,1,0,0,0,4,4,6,1,6,first,,,,,,,,,,,,,,,,,,,,,,,,,,,,,,,,,,,,,,,,,,,,,,,,,,,,,,,,,,,,,,,,,,,
,,,,,,5e5bd71ee0777c3bbe5b108c,62bbfb062e33886c7dd2440a,2022-06-29_10h11.20.344,Colour_Asymmetry_Pilot,2022.1.3,Win32,60.07810153,62bbe60bf3d75ef465d3e404,,,,,,,,,,,,,,,,,,,,threeone,,-3,1.0951,,,,,,,,,,,,,,,,,,,,,,,,,,,,,,,,,,"[0.09799999999999986,-0.24719999999999998,0.15280000000000005]","[0.9372,0.20779999999999998,0.2704]",-95.16662598,64.277771,1,0,0,response7disk,4.833374023,2.055541992,1,0,0,rectangle,4.833374023,2.055541992,1,0,0,3,3,0.0011,0,4.833374023,2.055541992,1,0,0,0,5,5,41,1,41,first,,,,,,,,,,,,,,,,,,,,,,,,,,,,,,,,,,,,,,,,,,,,,,,,,,,,,,,,,,,,,,,,,,,
,,,,,,5e5bd71ee0777c3bbe5b108c,62bbfb062e33886c7dd2440a,2022-06-29_10h11.20.344,Colour_Asymmetry_Pilot,2022.1.3,Win32,60.07810153,62bbe60bf3d75ef465d3e404,,,,,,,,,,,,,,,,,,,,onethree,,-1,1.1811,,,,,,,,,,,,,,,,,,,,,,,,,,,,,,,,,,"[-0.38039999999999996,-0.4276,-0.1452]","[-0.4902000000000001,0.2704,-0.45899999999999996]",-30.72210693,-89.05560303,1,0,0,response5disk,3.722229004,5.388824463,1,0,0,rectangle,3.722229004,5.388824463,1,0,0,3,1,0.0013,0,3.722229004,5.388824463,1,0,0,0,6,6,139,1,58,second,,,,,,,,,,,,,,,,,,,,,,,,,,,,,,,,,,,,,,,,,,,,,,,,,,,,,,,,,,,,,,,,,,,
,,,,,,5e5bd71ee0777c3bbe5b108c,62bbfb062e33886c7dd2440a,2022-06-29_10h11.20.344,Colour_Asymmetry_Pilot,2022.1.3,Win32,60.07810153,62bbe60bf3d75ef465d3e404,,,,,,,,,,,,,,,,,,,,twoone,,1,0.8298,,,,,,,,,,,,,,,,,,,,,,,,,,,,,,,,,,"[-0.45899999999999996,-0.3256,-0.9374]","[-0.9296,-0.12959999999999994,-0.043199999999999905]",44.83337402,-76.83334351,1,0,0,response3disk,10.38891602,-6.833343506,1,0,0,rectangle,10.38891602,-6.833343506,1,0,0,3,3,0.0028,0,10.38891602,-6.833343506,1,0,0,0,7,7,125,1,44,second,,,,,,,,,,,,,,,,,,,,,,,,,,,,,,,,,,,,,,,,,,,,,,,,,,,,,,,,,,,,,,,,,,,
,,,,,,5e5bd71ee0777c3bbe5b108c,62bbfb062e33886c7dd2440a,2022-06-29_10h11.20.344,Colour_Asymmetry_Pilot,2022.1.3,Win32,60.07810153,62bbe60bf3d75ef465d3e404,,,,,,,,,,,,,,,,,,,,onetwo,,2,1.7034,,,,,,,,,,,,,,,,,,,,,,,,,,,,,,,,,,"[-0.6235999999999999,-0.6786,-0.08239999999999992]","[-0.9296,-0.12959999999999994,-0.043199999999999905]",85.94445801,-27.94445801,1,0,0,response3disk,4.833374023,3.166656494,1,0,0,rectangle,4.833374023,3.166656494,1,0,0,3,3,0.0005,0,4.833374023,3.166656494,1,0,0,0,8,8,37,1,37,first,,,,,,,,,,,,,,,,,,,,,,,,,,,,,,,,,,,,,,,,,,,,,,,,,,,,,,,,,,,,,,,,,,,
,,,,,,5e5bd71ee0777c3bbe5b108c,62bbfb062e33886c7dd2440a,2022-06-29_10h11.20.344,Colour_Asymmetry_Pilot,2022.1.3,Win32,60.07810153,62bbe60bf3d75ef465d3e404,,,,,,,,,,,,,,,,,,,,threefour,,1,1.8039,,,,,,,,,,,,,,,,,,,,,,,,,,,,,,,,,,"[0.9686000000000001,0.3802000000000001,0.19999999999999996]","[0.9842,0.7409999999999999,-0.6628000000000001]",41.50012207,-90.16668701,1,0,0,response3disk,3.722229004,-1.277801514,1,0,0,rectangle,3.722229004,-1.277801514,1,0,0,3,2,0.0014,0,3.722229004,-1.277801514,1,0,0,0,9,9,112,1,31,second,,,,,,,,,,,,,,,,,,,,,,,,,,,,,,,,,,,,,,,,,,,,,,,,,,,,,,,,,,,,,,,,,,,
,,,,,,5e5bd71ee0777c3bbe5b108c,62bbfb062e33886c7dd2440a,2022-06-29_10h11.20.344,Colour_Asymmetry_Pilot,2022.1.3,Win32,60.07810153,62bbe60bf3d75ef465d3e404,,,,,,,,,,,,,,,,,,,,onethree,,-1,1.1156,,,,,,,,,,,,,,,,,,,,,,,,,,,,,,,,,,"[-0.26280000000000003,-0.2158,-0.3256]","[-0.24719999999999998,-0.0354000000000001,0.3175999999999999]",-35.16662598,-93.5,1,0,0,response5disk,-0.722106934,-5.722229004,1,0,0,rectangle,-0.722106934,-5.722229004,1,0,0,3,3,0.0017,0,-0.722106934,-5.722229004,1,0,0,0,10,10,19,1,19,first,,,,,,,,,,,,,,,,,,,,,,,,,,,,,,,,,,,,,,,,,,,,,,,,,,,,,,,,,,,,,,,,,,,
,,,,,,5e5bd71ee0777c3bbe5b108c,62bbfb062e33886c7dd2440a,2022-06-29_10h11.20.344,Colour_Asymmetry_Pilot,2022.1.3,Win32,60.07810153,62bbe60bf3d75ef465d3e404,,,,,,,,,,,,,,,,,,,,fourthree,,3,1.3651,,,,,,,,,,,,,,,,,,,,,,,,,,,,,,,,,,"[-0.10599999999999998,-0.10599999999999998,0.5841999999999998]","[-0.9216,-0.5529999999999999,-0.3962]",79.27783203,53.16665649,1,0,0,response1disk,2.61114502,8.722198486,1,0,0,rectangle,2.61114502,8.722198486,1,0,0,3,1,0.0012,0,2.61114502,8.722198486,1,0,0,0,11,11,107,1,26,second,,,,,,,,,,,,,,,,,,,,,,,,,,,,,,,,,,,,,,,,,,,,,,,,,,,,,,,,,,,,,,,,,,,
,,,,,,5e5bd71ee0777c3bbe5b108c,62bbfb062e33886c7dd2440a,2022-06-29_10h11.20.344,Colour_Asymmetry_Pilot,2022.1.3,Win32,60.07810153,62bbe60bf3d75ef465d3e404,,,,,,,,,,,,,,,,,,,,onethree,,1,0.7953,,,,,,,,,,,,,,,,,,,,,,,,,,,,,,,,,,"[-0.9766,-0.34920000000000007,0.2156]","[-0.17659999999999998,0.3253999999999999,0.19999999999999996]",48.16668701,-81.27780151,1,0,0,response3disk,9.277893066,-1.277801514,1,0,0,rectangle,9.277893066,-1.277801514,1,0,0,3,1,0.0003,0,9.277893066,-1.277801514,1,0,0,0,12,12,149,1,68,second,,,,,,,,,,,,,,,,,,,,,,,,,,,,,,,,,,,,,,,,,,,,,,,,,,,,,,,,,,,,,,,,,,,
,,,,,,5e5bd71ee0777c3bbe5b108c,62bbfb062e33886c7dd2440a,2022-06-29_10h11.20.344,Colour_Asymmetry_Pilot,2022.1.3,Win32,60.07810153,62bbe60bf3d75ef465d3e404,,,,,,,,,,,,,,,,,,,,onetwo,,-2,1.7301,,,,,,,,,,,,,,,,,,,,,,,,,,,,,,,,,,"[0.37240000000000006,0.4980000000000002,-0.2864]","[0.12939999999999996,-0.2864,0.3253999999999999]",-82.94439697,-52.38891602,1,0,0,response5disk,-2.944396973,2.055541992,1,0,0,rectangle,-2.944396973,2.055541992,1,0,0,3,1,0.0002,0,-2.944396973,2.055541992,1,0,0,0,13,13,66,1,66,first,,,,,,,,,,,,,,,,,,,,,,,,,,,,,,,,,,,,,,,,,,,,,,,,,,,,,,,,,,,,,,,,,,,
,,,,,,5e5bd71ee0777c3bbe5b108c,62bbfb062e33886c7dd2440a,2022-06-29_10h11.20.344,Colour_Asymmetry_Pilot,2022.1.3,Win32,60.07810153,62bbe60bf3d75ef465d3e404,,,,,,,,,,,,,,,,,,,,onethree,,-3,0.8898,,,,,,,,,,,,,,,,,,,,,,,,,,,,,,,,,,"[0.9763999999999999,0.30979999999999985,-0.6786]","[-0.8118,-0.8198,-0.5452]",-85.16662598,32.05554199,1,0,0,response7disk,-11.83331299,0.94442749,1,0,0,rectangle,-11.83331299,0.94442749,1,0,0,3,1,0.0002,0,-11.83331299,0.94442749,1,0,0,0,14,14,20,1,20,first,,,,,,,,,,,,,,,,,,,,,,,,,,,,,,,,,,,,,,,,,,,,,,,,,,,,,,,,,,,,,,,,,,,
,,,,,,5e5bd71ee0777c3bbe5b108c,62bbfb062e33886c7dd2440a,2022-06-29_10h11.20.344,Colour_Asymmetry_Pilot,2022.1.3,Win32,60.07810153,62bbe60bf3d75ef465d3e404,,,,,,,,,,,,,,,,,,,,threefour,,-2,1.0659,,,,,,,,,,,,,,,,,,,,,,,,,,,,,,,,,,"[-0.011800000000000033,-0.906,-0.45100000000000007]","[-0.7412000000000001,-0.08239999999999992,-0.6864]",-90.72210693,-56.83334351,1,0,0,response5disk,-4.055541992,3.166656494,1,0,0,rectangle,-4.055541992,3.166656494,1,0,0,3,1,0.0002,0,-4.055541992,3.166656494,1,0,0,0,15,15,39,1,39,first,,,,,,,,,,,,,,,,,,,,,,,,,,,,,,,,,,,,,,,,,,,,,,,,,,,,,,,,,,,,,,,,,,,
,,,,,,5e5bd71ee0777c3bbe5b108c,62bbfb062e33886c7dd2440a,2022-06-29_10h11.20.344,Colour_Asymmetry_Pilot,2022.1.3,Win32,60.07810153,62bbe60bf3d75ef465d3e404,,,,,,,,,,,,,,,,,,,,twofour,,-2,1.748,,,,,,,,,,,,,,,,,,,,,,,,,,,,,,,,,,"[0.2862,0.7802,0.3568]","[-0.2942,-0.7648,-0.7492000000000001]",-85.16662598,-35.722229,1,0,0,response5disk,-12.94439697,-0.166687012,1,0,0,rectangle,-12.94439697,-0.166687012,1,0,0,3,2,0.0028,0,-12.94439697,-0.166687012,1,0,0,0,16,16,83,1,2,second,,,,,,,,,,,,,,,,,,,,,,,,,,,,,,,,,,,,,,,,,,,,,,,,,,,,,,,,,,,,,,,,,,,
