trials.thisRepN,trials.thisTrialN,trials.thisN,trials.thisIndex,trials.ran,Colourcodes,participant,session,date,expName,psychopyVersion,OS,frameRate,study_id,trials_4.thisRepN,trials_4.thisTrialN,trials_4.thisN,trials_4.thisIndex,trials_4.ran,StimulusPos,key_resp.keys,key_resp.rt,key_resp_2.keys,key_resp_2.rt,key_resp_15.keys,key_resp_15.rt,key_resp_17.keys,key_resp_17.rt,key_resp_9.keys,key_resp_9.rt,key_resp_10.keys,key_resp_10.rt,Circle1_col,Ecc,Circle2_col,similarity,response_time,mouse_5.x,mouse_5.y,mouse_5.leftButton,mouse_5.midButton,mouse_5.rightButton,mouse_5.clicked_name,mouse_10.x,mouse_10.y,mouse_10.leftButton,mouse_10.midButton,mouse_10.rightButton,mouse_10.clicked_name,mouse_7.x,mouse_7.y,mouse_7.leftButton,mouse_7.midButton,mouse_7.rightButton,catchnumberprac,mouse_6.x,mouse_6.y,mouse_6.leftButton,mouse_6.midButton,mouse_6.rightButton,duringprac.thisRepN,duringprac.thisTrialN,duringprac.thisN,duringprac.thisIndex,duringprac.ran,mouse_7.clicked_name,catchprac,mouse_6.clicked_name,key_resp_22.keys,key_resp_22.rt,Circle1_colour,Circle2_colour,mouse.x,mouse.y,mouse.leftButton,mouse.midButton,mouse.rightButton,mouse.clicked_name,mouse_2.x,mouse_2.y,mouse_2.leftButton,mouse_2.midButton,mouse_2.rightButton,mouse_2.clicked_name,mouse_3.x,mouse_3.y,mouse_3.leftButton,mouse_3.midButton,mouse_3.rightButton,catchresponse,catchnumber,response_time_catch,Catch,mouse_11.x,mouse_11.y,mouse_11.leftButton,mouse_11.midButton,mouse_11.rightButton,trials_2.thisRepN,trials_2.thisTrialN,trials_2.thisN,trials_2.thisIndex,trials_2.ran,Colourpair,Temporder,mouse_3.clicked_name,mouse_11.clicked_name,trials_3.thisRepN,trials_3.thisTrialN,trials_3.thisN,trials_3.thisIndex,trials_3.ran,key_resp_instr_Ishi.keys,key_resp_instr_Ishi.rt,Ishi_trial_keyresp.keys,Ishi_trial_keyresp.rt,Ishi_textbox.text,Ishi_loop.thisRepN,Ishi_loop.thisTrialN,Ishi_loop.thisN,Ishi_loop.thisIndex,Ishi_loop.ran,imageaddress,textbox.text,mouse_4.x,mouse_4.y,mouse_4.leftButton,mouse_4.midButton,mouse_4.rightButton,mouse_4.clicked_name,textbox_2.text,mouse_8.x,mouse_8.y,mouse_8.leftButton,mouse_8.midButton,mouse_8.rightButton,mouse_8.clicked_name,textbox_3.text,mouse_9.x,mouse_9.y,mouse_9.leftButton,mouse_9.midButton,mouse_9.rightButton,mouse_9.clicked_name,textbox_4.text,mouse_12.x,mouse_12.y,mouse_12.leftButton,mouse_12.midButton,mouse_12.rightButton,mouse_12.clicked_name,textbox_5.text,mouse_13.x,mouse_13.y,mouse_13.leftButton,mouse_13.midButton,mouse_13.rightButton,mouse_13.clicked_name,textbox_6.text,mouse_14.x,mouse_14.y,mouse_14.leftButton,mouse_14.midButton,mouse_14.rightButton,mouse_14.clicked_name,textbox_7.text,mouse_15.x,mouse_15.y,mouse_15.leftButton,mouse_15.midButton,mouse_15.rightButton,mouse_15.clicked_name
0,0,0,13,1,,5f82e997eec0860404c8f790,62bbfb52d74ddac5d85e4ce9,2022-06-29_08h12.28.803,Colour_Asymmetry_Pilot,2022.1.3,MacIntel,59.84082341,62bbe60bf3d75ef465d3e404,,,,,,,,,,,,,,,,,,,,,,,,,,,,,,,,,,,,,,,,,,,,,,,,,,,,,,,,,,,,,,,,,,,,,,,,,,,,,,,,,,,,,,,,,,,,,,,,,,,,,,,,,,,,,,,,,,,,,,,,,,,,,,,,,,,,,,,,,,,,,,,,,,,,,,,,,,,,,,
0,1,1,68,1,,5f82e997eec0860404c8f790,62bbfb52d74ddac5d85e4ce9,2022-06-29_08h12.28.803,Colour_Asymmetry_Pilot,2022.1.3,MacIntel,59.84082341,62bbe60bf3d75ef465d3e404,,,,,,,,,,,,,,,,,,,,,,,,,,,,,,,,,,,,,,,,,,,,,,,,,,,,,,,,,,,,,,,,,,,,,,,,,,,,,,,,,,,,,,,,,,,,,,,,,,,,,,,,,,,,,,,,,,,,,,,,,,,,,,,,,,,,,,,,,,,,,,,,,,,,,,,,,,,,,,
0,2,2,76,1,,5f82e997eec0860404c8f790,62bbfb52d74ddac5d85e4ce9,2022-06-29_08h12.28.803,Colour_Asymmetry_Pilot,2022.1.3,MacIntel,59.84082341,62bbe60bf3d75ef465d3e404,,,,,,,,,,,,,,,,,,,,,,,,,,,,,,,,,,,,,,,,,,,,,,,,,,,,,,,,,,,,,,,,,,,,,,,,,,,,,,,,,,,,,,,,,,,,,,,,,,,,,,,,,,,,,,,,,,,,,,,,,,,,,,,,,,,,,,,,,,,,,,,,,,,,,,,,,,,,,,
0,3,3,15,1,,5f82e997eec0860404c8f790,62bbfb52d74ddac5d85e4ce9,2022-06-29_08h12.28.803,Colour_Asymmetry_Pilot,2022.1.3,MacIntel,59.84082341,62bbe60bf3d75ef465d3e404,,,,,,,,,,,,,,,,,,,,,,,,,,,,,,,,,,,,,,,,,,,,,,,,,,,,,,,,,,,,,,,,,,,,,,,,,,,,,,,,,,,,,,,,,,,,,,,,,,,,,,,,,,,,,,,,,,,,,,,,,,,,,,,,,,,,,,,,,,,,,,,,,,,,,,,,,,,,,,
0,4,4,20,1,,5f82e997eec0860404c8f790,62bbfb52d74ddac5d85e4ce9,2022-06-29_08h12.28.803,Colour_Asymmetry_Pilot,2022.1.3,MacIntel,59.84082341,62bbe60bf3d75ef465d3e404,,,,,,,,,,,,,,,,,,,,,,,,,,,,,,,,,,,,,,,,,,,,,,,,,,,,,,,,,,,,,,,,,,,,,,,,,,,,,,,,,,,,,,,,,,,,,,,,,,,,,,,,,,,,,,,,,,,,,,,,,,,,,,,,,,,,,,,,,,,,,,,,,,,,,,,,,,,,,,
0,5,5,84,1,,5f82e997eec0860404c8f790,62bbfb52d74ddac5d85e4ce9,2022-06-29_08h12.28.803,Colour_Asymmetry_Pilot,2022.1.3,MacIntel,59.84082341,62bbe60bf3d75ef465d3e404,,,,,,,,,,,,,,,,,,,,,,,,,,,,,,,,,,,,,,,,,,,,,,,,,,,,,,,,,,,,,,,,,,,,,,,,,,,,,,,,,,,,,,,,,,,,,,,,,,,,,,,,,,,,,,,,,,,,,,,,,,,,,,,,,,,,,,,,,,,,,,,,,,,,,,,,,,,,,,
0,6,6,19,1,,5f82e997eec0860404c8f790,62bbfb52d74ddac5d85e4ce9,2022-06-29_08h12.28.803,Colour_Asymmetry_Pilot,2022.1.3,MacIntel,59.84082341,62bbe60bf3d75ef465d3e404,,,,,,,,,,,,,,,,,,,,,,,,,,,,,,,,,,,,,,,,,,,,,,,,,,,,,,,,,,,,,,,,,,,,,,,,,,,,,,,,,,,,,,,,,,,,,,,,,,,,,,,,,,,,,,,,,,,,,,,,,,,,,,,,,,,,,,,,,,,,,,,,,,,,,,,,,,,,,,
0,7,7,27,1,,5f82e997eec0860404c8f790,62bbfb52d74ddac5d85e4ce9,2022-06-29_08h12.28.803,Colour_Asymmetry_Pilot,2022.1.3,MacIntel,59.84082341,62bbe60bf3d75ef465d3e404,,,,,,,,,,,,,,,,,,,,,,,,,,,,,,,,,,,,,,,,,,,,,,,,,,,,,,,,,,,,,,,,,,,,,,,,,,,,,,,,,,,,,,,,,,,,,,,,,,,,,,,,,,,,,,,,,,,,,,,,,,,,,,,,,,,,,,,,,,,,,,,,,,,,,,,,,,,,,,
0,8,8,5,1,,5f82e997eec0860404c8f790,62bbfb52d74ddac5d85e4ce9,2022-06-29_08h12.28.803,Colour_Asymmetry_Pilot,2022.1.3,MacIntel,59.84082341,62bbe60bf3d75ef465d3e404,,,,,,,,,,,,,,,,,,,,,,,,,,,,,,,,,,,,,,,,,,,,,,,,,,,,,,,,,,,,,,,,,,,,,,,,,,,,,,,,,,,,,,,,,,,,,,,,,,,,,,,,,,,,,,,,,,,,,,,,,,,,,,,,,,,,,,,,,,,,,,,,,,,,,,,,,,,,,,
0,9,9,25,1,,5f82e997eec0860404c8f790,62bbfb52d74ddac5d85e4ce9,2022-06-29_08h12.28.803,Colour_Asymmetry_Pilot,2022.1.3,MacIntel,59.84082341,62bbe60bf3d75ef465d3e404,,,,,,,,,,,,,,,,,,,,,,,,,,,,,,,,,,,,,,,,,,,,,,,,,,,,,,,,,,,,,,,,,,,,,,,,,,,,,,,,,,,,,,,,,,,,,,,,,,,,,,,,,,,,,,,,,,,,,,,,,,,,,,,,,,,,,,,,,,,,,,,,,,,,,,,,,,,,,,
0,10,10,69,1,,5f82e997eec0860404c8f790,62bbfb52d74ddac5d85e4ce9,2022-06-29_08h12.28.803,Colour_Asymmetry_Pilot,2022.1.3,MacIntel,59.84082341,62bbe60bf3d75ef465d3e404,,,,,,,,,,,,,,,,,,,,,,,,,,,,,,,,,,,,,,,,,,,,,,,,,,,,,,,,,,,,,,,,,,,,,,,,,,,,,,,,,,,,,,,,,,,,,,,,,,,,,,,,,,,,,,,,,,,,,,,,,,,,,,,,,,,,,,,,,,,,,,,,,,,,,,,,,,,,,,
0,11,11,23,1,,5f82e997eec0860404c8f790,62bbfb52d74ddac5d85e4ce9,2022-06-29_08h12.28.803,Colour_Asymmetry_Pilot,2022.1.3,MacIntel,59.84082341,62bbe60bf3d75ef465d3e404,,,,,,,,,,,,,,,,,,,,,,,,,,,,,,,,,,,,,,,,,,,,,,,,,,,,,,,,,,,,,,,,,,,,,,,,,,,,,,,,,,,,,,,,,,,,,,,,,,,,,,,,,,,,,,,,,,,,,,,,,,,,,,,,,,,,,,,,,,,,,,,,,,,,,,,,,,,,,,
0,12,12,17,1,,5f82e997eec0860404c8f790,62bbfb52d74ddac5d85e4ce9,2022-06-29_08h12.28.803,Colour_Asymmetry_Pilot,2022.1.3,MacIntel,59.84082341,62bbe60bf3d75ef465d3e404,,,,,,,,,,,,,,,,,,,,,,,,,,,,,,,,,,,,,,,,,,,,,,,,,,,,,,,,,,,,,,,,,,,,,,,,,,,,,,,,,,,,,,,,,,,,,,,,,,,,,,,,,,,,,,,,,,,,,,,,,,,,,,,,,,,,,,,,,,,,,,,,,,,,,,,,,,,,,,
0,13,13,29,1,,5f82e997eec0860404c8f790,62bbfb52d74ddac5d85e4ce9,2022-06-29_08h12.28.803,Colour_Asymmetry_Pilot,2022.1.3,MacIntel,59.84082341,62bbe60bf3d75ef465d3e404,,,,,,,,,,,,,,,,,,,,,,,,,,,,,,,,,,,,,,,,,,,,,,,,,,,,,,,,,,,,,,,,,,,,,,,,,,,,,,,,,,,,,,,,,,,,,,,,,,,,,,,,,,,,,,,,,,,,,,,,,,,,,,,,,,,,,,,,,,,,,,,,,,,,,,,,,,,,,,
0,14,14,71,1,,5f82e997eec0860404c8f790,62bbfb52d74ddac5d85e4ce9,2022-06-29_08h12.28.803,Colour_Asymmetry_Pilot,2022.1.3,MacIntel,59.84082341,62bbe60bf3d75ef465d3e404,,,,,,,,,,,,,,,,,,,,,,,,,,,,,,,,,,,,,,,,,,,,,,,,,,,,,,,,,,,,,,,,,,,,,,,,,,,,,,,,,,,,,,,,,,,,,,,,,,,,,,,,,,,,,,,,,,,,,,,,,,,,,,,,,,,,,,,,,,,,,,,,,,,,,,,,,,,,,,
0,15,15,11,1,,5f82e997eec0860404c8f790,62bbfb52d74ddac5d85e4ce9,2022-06-29_08h12.28.803,Colour_Asymmetry_Pilot,2022.1.3,MacIntel,59.84082341,62bbe60bf3d75ef465d3e404,,,,,,,,,,,,,,,,,,,,,,,,,,,,,,,,,,,,,,,,,,,,,,,,,,,,,,,,,,,,,,,,,,,,,,,,,,,,,,,,,,,,,,,,,,,,,,,,,,,,,,,,,,,,,,,,,,,,,,,,,,,,,,,,,,,,,,,,,,,,,,,,,,,,,,,,,,,,,,
0,16,16,77,1,,5f82e997eec0860404c8f790,62bbfb52d74ddac5d85e4ce9,2022-06-29_08h12.28.803,Colour_Asymmetry_Pilot,2022.1.3,MacIntel,59.84082341,62bbe60bf3d75ef465d3e404,,,,,,,,,,,,,,,,,,,,,,,,,,,,,,,,,,,,,,,,,,,,,,,,,,,,,,,,,,,,,,,,,,,,,,,,,,,,,,,,,,,,,,,,,,,,,,,,,,,,,,,,,,,,,,,,,,,,,,,,,,,,,,,,,,,,,,,,,,,,,,,,,,,,,,,,,,,,,,
0,17,17,60,1,,5f82e997eec0860404c8f790,62bbfb52d74ddac5d85e4ce9,2022-06-29_08h12.28.803,Colour_Asymmetry_Pilot,2022.1.3,MacIntel,59.84082341,62bbe60bf3d75ef465d3e404,,,,,,,,,,,,,,,,,,,,,,,,,,,,,,,,,,,,,,,,,,,,,,,,,,,,,,,,,,,,,,,,,,,,,,,,,,,,,,,,,,,,,,,,,,,,,,,,,,,,,,,,,,,,,,,,,,,,,,,,,,,,,,,,,,,,,,,,,,,,,,,,,,,,,,,,,,,,,,
0,18,18,21,1,,5f82e997eec0860404c8f790,62bbfb52d74ddac5d85e4ce9,2022-06-29_08h12.28.803,Colour_Asymmetry_Pilot,2022.1.3,MacIntel,59.84082341,62bbe60bf3d75ef465d3e404,,,,,,,,,,,,,,,,,,,,,,,,,,,,,,,,,,,,,,,,,,,,,,,,,,,,,,,,,,,,,,,,,,,,,,,,,,,,,,,,,,,,,,,,,,,,,,,,,,,,,,,,,,,,,,,,,,,,,,,,,,,,,,,,,,,,,,,,,,,,,,,,,,,,,,,,,,,,,,
0,19,19,10,1,,5f82e997eec0860404c8f790,62bbfb52d74ddac5d85e4ce9,2022-06-29_08h12.28.803,Colour_Asymmetry_Pilot,2022.1.3,MacIntel,59.84082341,62bbe60bf3d75ef465d3e404,,,,,,,,,,,,,,,,,,,,,,,,,,,,,,,,,,,,,,,,,,,,,,,,,,,,,,,,,,,,,,,,,,,,,,,,,,,,,,,,,,,,,,,,,,,,,,,,,,,,,,,,,,,,,,,,,,,,,,,,,,,,,,,,,,,,,,,,,,,,,,,,,,,,,,,,,,,,,,
0,20,20,53,1,,5f82e997eec0860404c8f790,62bbfb52d74ddac5d85e4ce9,2022-06-29_08h12.28.803,Colour_Asymmetry_Pilot,2022.1.3,MacIntel,59.84082341,62bbe60bf3d75ef465d3e404,,,,,,,,,,,,,,,,,,,,,,,,,,,,,,,,,,,,,,,,,,,,,,,,,,,,,,,,,,,,,,,,,,,,,,,,,,,,,,,,,,,,,,,,,,,,,,,,,,,,,,,,,,,,,,,,,,,,,,,,,,,,,,,,,,,,,,,,,,,,,,,,,,,,,,,,,,,,,,
0,21,21,56,1,,5f82e997eec0860404c8f790,62bbfb52d74ddac5d85e4ce9,2022-06-29_08h12.28.803,Colour_Asymmetry_Pilot,2022.1.3,MacIntel,59.84082341,62bbe60bf3d75ef465d3e404,,,,,,,,,,,,,,,,,,,,,,,,,,,,,,,,,,,,,,,,,,,,,,,,,,,,,,,,,,,,,,,,,,,,,,,,,,,,,,,,,,,,,,,,,,,,,,,,,,,,,,,,,,,,,,,,,,,,,,,,,,,,,,,,,,,,,,,,,,,,,,,,,,,,,,,,,,,,,,
0,22,22,73,1,,5f82e997eec0860404c8f790,62bbfb52d74ddac5d85e4ce9,2022-06-29_08h12.28.803,Colour_Asymmetry_Pilot,2022.1.3,MacIntel,59.84082341,62bbe60bf3d75ef465d3e404,,,,,,,,,,,,,,,,,,,,,,,,,,,,,,,,,,,,,,,,,,,,,,,,,,,,,,,,,,,,,,,,,,,,,,,,,,,,,,,,,,,,,,,,,,,,,,,,,,,,,,,,,,,,,,,,,,,,,,,,,,,,,,,,,,,,,,,,,,,,,,,,,,,,,,,,,,,,,,
0,23,23,33,1,,5f82e997eec0860404c8f790,62bbfb52d74ddac5d85e4ce9,2022-06-29_08h12.28.803,Colour_Asymmetry_Pilot,2022.1.3,MacIntel,59.84082341,62bbe60bf3d75ef465d3e404,,,,,,,,,,,,,,,,,,,,,,,,,,,,,,,,,,,,,,,,,,,,,,,,,,,,,,,,,,,,,,,,,,,,,,,,,,,,,,,,,,,,,,,,,,,,,,,,,,,,,,,,,,,,,,,,,,,,,,,,,,,,,,,,,,,,,,,,,,,,,,,,,,,,,,,,,,,,,,
0,24,24,81,1,,5f82e997eec0860404c8f790,62bbfb52d74ddac5d85e4ce9,2022-06-29_08h12.28.803,Colour_Asymmetry_Pilot,2022.1.3,MacIntel,59.84082341,62bbe60bf3d75ef465d3e404,,,,,,,,,,,,,,,,,,,,,,,,,,,,,,,,,,,,,,,,,,,,,,,,,,,,,,,,,,,,,,,,,,,,,,,,,,,,,,,,,,,,,,,,,,,,,,,,,,,,,,,,,,,,,,,,,,,,,,,,,,,,,,,,,,,,,,,,,,,,,,,,,,,,,,,,,,,,,,
0,25,25,44,1,,5f82e997eec0860404c8f790,62bbfb52d74ddac5d85e4ce9,2022-06-29_08h12.28.803,Colour_Asymmetry_Pilot,2022.1.3,MacIntel,59.84082341,62bbe60bf3d75ef465d3e404,,,,,,,,,,,,,,,,,,,,,,,,,,,,,,,,,,,,,,,,,,,,,,,,,,,,,,,,,,,,,,,,,,,,,,,,,,,,,,,,,,,,,,,,,,,,,,,,,,,,,,,,,,,,,,,,,,,,,,,,,,,,,,,,,,,,,,,,,,,,,,,,,,,,,,,,,,,,,,
0,26,26,26,1,,5f82e997eec0860404c8f790,62bbfb52d74ddac5d85e4ce9,2022-06-29_08h12.28.803,Colour_Asymmetry_Pilot,2022.1.3,MacIntel,59.84082341,62bbe60bf3d75ef465d3e404,,,,,,,,,,,,,,,,,,,,,,,,,,,,,,,,,,,,,,,,,,,,,,,,,,,,,,,,,,,,,,,,,,,,,,,,,,,,,,,,,,,,,,,,,,,,,,,,,,,,,,,,,,,,,,,,,,,,,,,,,,,,,,,,,,,,,,,,,,,,,,,,,,,,,,,,,,,,,,
0,27,27,51,1,,5f82e997eec0860404c8f790,62bbfb52d74ddac5d85e4ce9,2022-06-29_08h12.28.803,Colour_Asymmetry_Pilot,2022.1.3,MacIntel,59.84082341,62bbe60bf3d75ef465d3e404,,,,,,,,,,,,,,,,,,,,,,,,,,,,,,,,,,,,,,,,,,,,,,,,,,,,,,,,,,,,,,,,,,,,,,,,,,,,,,,,,,,,,,,,,,,,,,,,,,,,,,,,,,,,,,,,,,,,,,,,,,,,,,,,,,,,,,,,,,,,,,,,,,,,,,,,,,,,,,
0,28,28,80,1,,5f82e997eec0860404c8f790,62bbfb52d74ddac5d85e4ce9,2022-06-29_08h12.28.803,Colour_Asymmetry_Pilot,2022.1.3,MacIntel,59.84082341,62bbe60bf3d75ef465d3e404,,,,,,,,,,,,,,,,,,,,,,,,,,,,,,,,,,,,,,,,,,,,,,,,,,,,,,,,,,,,,,,,,,,,,,,,,,,,,,,,,,,,,,,,,,,,,,,,,,,,,,,,,,,,,,,,,,,,,,,,,,,,,,,,,,,,,,,,,,,,,,,,,,,,,,,,,,,,,,
0,29,29,54,1,,5f82e997eec0860404c8f790,62bbfb52d74ddac5d85e4ce9,2022-06-29_08h12.28.803,Colour_Asymmetry_Pilot,2022.1.3,MacIntel,59.84082341,62bbe60bf3d75ef465d3e404,,,,,,,,,,,,,,,,,,,,,,,,,,,,,,,,,,,,,,,,,,,,,,,,,,,,,,,,,,,,,,,,,,,,,,,,,,,,,,,,,,,,,,,,,,,,,,,,,,,,,,,,,,,,,,,,,,,,,,,,,,,,,,,,,,,,,,,,,,,,,,,,,,,,,,,,,,,,,,
0,30,30,46,1,,5f82e997eec0860404c8f790,62bbfb52d74ddac5d85e4ce9,2022-06-29_08h12.28.803,Colour_Asymmetry_Pilot,2022.1.3,MacIntel,59.84082341,62bbe60bf3d75ef465d3e404,,,,,,,,,,,,,,,,,,,,,,,,,,,,,,,,,,,,,,,,,,,,,,,,,,,,,,,,,,,,,,,,,,,,,,,,,,,,,,,,,,,,,,,,,,,,,,,,,,,,,,,,,,,,,,,,,,,,,,,,,,,,,,,,,,,,,,,,,,,,,,,,,,,,,,,,,,,,,,
0,31,31,12,1,,5f82e997eec0860404c8f790,62bbfb52d74ddac5d85e4ce9,2022-06-29_08h12.28.803,Colour_Asymmetry_Pilot,2022.1.3,MacIntel,59.84082341,62bbe60bf3d75ef465d3e404,,,,,,,,,,,,,,,,,,,,,,,,,,,,,,,,,,,,,,,,,,,,,,,,,,,,,,,,,,,,,,,,,,,,,,,,,,,,,,,,,,,,,,,,,,,,,,,,,,,,,,,,,,,,,,,,,,,,,,,,,,,,,,,,,,,,,,,,,,,,,,,,,,,,,,,,,,,,,,
0,32,32,75,1,,5f82e997eec0860404c8f790,62bbfb52d74ddac5d85e4ce9,2022-06-29_08h12.28.803,Colour_Asymmetry_Pilot,2022.1.3,MacIntel,59.84082341,62bbe60bf3d75ef465d3e404,,,,,,,,,,,,,,,,,,,,,,,,,,,,,,,,,,,,,,,,,,,,,,,,,,,,,,,,,,,,,,,,,,,,,,,,,,,,,,,,,,,,,,,,,,,,,,,,,,,,,,,,,,,,,,,,,,,,,,,,,,,,,,,,,,,,,,,,,,,,,,,,,,,,,,,,,,,,,,
0,33,33,14,1,,5f82e997eec0860404c8f790,62bbfb52d74ddac5d85e4ce9,2022-06-29_08h12.28.803,Colour_Asymmetry_Pilot,2022.1.3,MacIntel,59.84082341,62bbe60bf3d75ef465d3e404,,,,,,,,,,,,,,,,,,,,,,,,,,,,,,,,,,,,,,,,,,,,,,,,,,,,,,,,,,,,,,,,,,,,,,,,,,,,,,,,,,,,,,,,,,,,,,,,,,,,,,,,,,,,,,,,,,,,,,,,,,,,,,,,,,,,,,,,,,,,,,,,,,,,,,,,,,,,,,
0,34,34,88,1,,5f82e997eec0860404c8f790,62bbfb52d74ddac5d85e4ce9,2022-06-29_08h12.28.803,Colour_Asymmetry_Pilot,2022.1.3,MacIntel,59.84082341,62bbe60bf3d75ef465d3e404,,,,,,,,,,,,,,,,,,,,,,,,,,,,,,,,,,,,,,,,,,,,,,,,,,,,,,,,,,,,,,,,,,,,,,,,,,,,,,,,,,,,,,,,,,,,,,,,,,,,,,,,,,,,,,,,,,,,,,,,,,,,,,,,,,,,,,,,,,,,,,,,,,,,,,,,,,,,,,
0,35,35,85,1,,5f82e997eec0860404c8f790,62bbfb52d74ddac5d85e4ce9,2022-06-29_08h12.28.803,Colour_Asymmetry_Pilot,2022.1.3,MacIntel,59.84082341,62bbe60bf3d75ef465d3e404,,,,,,,,,,,,,,,,,,,,,,,,,,,,,,,,,,,,,,,,,,,,,,,,,,,,,,,,,,,,,,,,,,,,,,,,,,,,,,,,,,,,,,,,,,,,,,,,,,,,,,,,,,,,,,,,,,,,,,,,,,,,,,,,,,,,,,,,,,,,,,,,,,,,,,,,,,,,,,
0,36,36,47,1,,5f82e997eec0860404c8f790,62bbfb52d74ddac5d85e4ce9,2022-06-29_08h12.28.803,Colour_Asymmetry_Pilot,2022.1.3,MacIntel,59.84082341,62bbe60bf3d75ef465d3e404,,,,,,,,,,,,,,,,,,,,,,,,,,,,,,,,,,,,,,,,,,,,,,,,,,,,,,,,,,,,,,,,,,,,,,,,,,,,,,,,,,,,,,,,,,,,,,,,,,,,,,,,,,,,,,,,,,,,,,,,,,,,,,,,,,,,,,,,,,,,,,,,,,,,,,,,,,,,,,
0,37,37,39,1,,5f82e997eec0860404c8f790,62bbfb52d74ddac5d85e4ce9,2022-06-29_08h12.28.803,Colour_Asymmetry_Pilot,2022.1.3,MacIntel,59.84082341,62bbe60bf3d75ef465d3e404,,,,,,,,,,,,,,,,,,,,,,,,,,,,,,,,,,,,,,,,,,,,,,,,,,,,,,,,,,,,,,,,,,,,,,,,,,,,,,,,,,,,,,,,,,,,,,,,,,,,,,,,,,,,,,,,,,,,,,,,,,,,,,,,,,,,,,,,,,,,,,,,,,,,,,,,,,,,,,
0,38,38,59,1,,5f82e997eec0860404c8f790,62bbfb52d74ddac5d85e4ce9,2022-06-29_08h12.28.803,Colour_Asymmetry_Pilot,2022.1.3,MacIntel,59.84082341,62bbe60bf3d75ef465d3e404,,,,,,,,,,,,,,,,,,,,,,,,,,,,,,,,,,,,,,,,,,,,,,,,,,,,,,,,,,,,,,,,,,,,,,,,,,,,,,,,,,,,,,,,,,,,,,,,,,,,,,,,,,,,,,,,,,,,,,,,,,,,,,,,,,,,,,,,,,,,,,,,,,,,,,,,,,,,,,
0,39,39,78,1,,5f82e997eec0860404c8f790,62bbfb52d74ddac5d85e4ce9,2022-06-29_08h12.28.803,Colour_Asymmetry_Pilot,2022.1.3,MacIntel,59.84082341,62bbe60bf3d75ef465d3e404,,,,,,,,,,,,,,,,,,,,,,,,,,,,,,,,,,,,,,,,,,,,,,,,,,,,,,,,,,,,,,,,,,,,,,,,,,,,,,,,,,,,,,,,,,,,,,,,,,,,,,,,,,,,,,,,,,,,,,,,,,,,,,,,,,,,,,,,,,,,,,,,,,,,,,,,,,,,,,
0,40,40,86,1,,5f82e997eec0860404c8f790,62bbfb52d74ddac5d85e4ce9,2022-06-29_08h12.28.803,Colour_Asymmetry_Pilot,2022.1.3,MacIntel,59.84082341,62bbe60bf3d75ef465d3e404,,,,,,,,,,,,,,,,,,,,,,,,,,,,,,,,,,,,,,,,,,,,,,,,,,,,,,,,,,,,,,,,,,,,,,,,,,,,,,,,,,,,,,,,,,,,,,,,,,,,,,,,,,,,,,,,,,,,,,,,,,,,,,,,,,,,,,,,,,,,,,,,,,,,,,,,,,,,,,
0,41,41,91,1,,5f82e997eec0860404c8f790,62bbfb52d74ddac5d85e4ce9,2022-06-29_08h12.28.803,Colour_Asymmetry_Pilot,2022.1.3,MacIntel,59.84082341,62bbe60bf3d75ef465d3e404,,,,,,,,,,,,,,,,,,,,,,,,,,,,,,,,,,,,,,,,,,,,,,,,,,,,,,,,,,,,,,,,,,,,,,,,,,,,,,,,,,,,,,,,,,,,,,,,,,,,,,,,,,,,,,,,,,,,,,,,,,,,,,,,,,,,,,,,,,,,,,,,,,,,,,,,,,,,,,
0,42,42,7,1,,5f82e997eec0860404c8f790,62bbfb52d74ddac5d85e4ce9,2022-06-29_08h12.28.803,Colour_Asymmetry_Pilot,2022.1.3,MacIntel,59.84082341,62bbe60bf3d75ef465d3e404,,,,,,,,,,,,,,,,,,,,,,,,,,,,,,,,,,,,,,,,,,,,,,,,,,,,,,,,,,,,,,,,,,,,,,,,,,,,,,,,,,,,,,,,,,,,,,,,,,,,,,,,,,,,,,,,,,,,,,,,,,,,,,,,,,,,,,,,,,,,,,,,,,,,,,,,,,,,,,
0,43,43,50,1,,5f82e997eec0860404c8f790,62bbfb52d74ddac5d85e4ce9,2022-06-29_08h12.28.803,Colour_Asymmetry_Pilot,2022.1.3,MacIntel,59.84082341,62bbe60bf3d75ef465d3e404,,,,,,,,,,,,,,,,,,,,,,,,,,,,,,,,,,,,,,,,,,,,,,,,,,,,,,,,,,,,,,,,,,,,,,,,,,,,,,,,,,,,,,,,,,,,,,,,,,,,,,,,,,,,,,,,,,,,,,,,,,,,,,,,,,,,,,,,,,,,,,,,,,,,,,,,,,,,,,
0,44,44,4,1,,5f82e997eec0860404c8f790,62bbfb52d74ddac5d85e4ce9,2022-06-29_08h12.28.803,Colour_Asymmetry_Pilot,2022.1.3,MacIntel,59.84082341,62bbe60bf3d75ef465d3e404,,,,,,,,,,,,,,,,,,,,,,,,,,,,,,,,,,,,,,,,,,,,,,,,,,,,,,,,,,,,,,,,,,,,,,,,,,,,,,,,,,,,,,,,,,,,,,,,,,,,,,,,,,,,,,,,,,,,,,,,,,,,,,,,,,,,,,,,,,,,,,,,,,,,,,,,,,,,,,
0,45,45,2,1,,5f82e997eec0860404c8f790,62bbfb52d74ddac5d85e4ce9,2022-06-29_08h12.28.803,Colour_Asymmetry_Pilot,2022.1.3,MacIntel,59.84082341,62bbe60bf3d75ef465d3e404,,,,,,,,,,,,,,,,,,,,,,,,,,,,,,,,,,,,,,,,,,,,,,,,,,,,,,,,,,,,,,,,,,,,,,,,,,,,,,,,,,,,,,,,,,,,,,,,,,,,,,,,,,,,,,,,,,,,,,,,,,,,,,,,,,,,,,,,,,,,,,,,,,,,,,,,,,,,,,
0,46,46,62,1,,5f82e997eec0860404c8f790,62bbfb52d74ddac5d85e4ce9,2022-06-29_08h12.28.803,Colour_Asymmetry_Pilot,2022.1.3,MacIntel,59.84082341,62bbe60bf3d75ef465d3e404,,,,,,,,,,,,,,,,,,,,,,,,,,,,,,,,,,,,,,,,,,,,,,,,,,,,,,,,,,,,,,,,,,,,,,,,,,,,,,,,,,,,,,,,,,,,,,,,,,,,,,,,,,,,,,,,,,,,,,,,,,,,,,,,,,,,,,,,,,,,,,,,,,,,,,,,,,,,,,
0,47,47,38,1,,5f82e997eec0860404c8f790,62bbfb52d74ddac5d85e4ce9,2022-06-29_08h12.28.803,Colour_Asymmetry_Pilot,2022.1.3,MacIntel,59.84082341,62bbe60bf3d75ef465d3e404,,,,,,,,,,,,,,,,,,,,,,,,,,,,,,,,,,,,,,,,,,,,,,,,,,,,,,,,,,,,,,,,,,,,,,,,,,,,,,,,,,,,,,,,,,,,,,,,,,,,,,,,,,,,,,,,,,,,,,,,,,,,,,,,,,,,,,,,,,,,,,,,,,,,,,,,,,,,,,
0,48,48,64,1,,5f82e997eec0860404c8f790,62bbfb52d74ddac5d85e4ce9,2022-06-29_08h12.28.803,Colour_Asymmetry_Pilot,2022.1.3,MacIntel,59.84082341,62bbe60bf3d75ef465d3e404,,,,,,,,,,,,,,,,,,,,,,,,,,,,,,,,,,,,,,,,,,,,,,,,,,,,,,,,,,,,,,,,,,,,,,,,,,,,,,,,,,,,,,,,,,,,,,,,,,,,,,,,,,,,,,,,,,,,,,,,,,,,,,,,,,,,,,,,,,,,,,,,,,,,,,,,,,,,,,
0,49,49,40,1,,5f82e997eec0860404c8f790,62bbfb52d74ddac5d85e4ce9,2022-06-29_08h12.28.803,Colour_Asymmetry_Pilot,2022.1.3,MacIntel,59.84082341,62bbe60bf3d75ef465d3e404,,,,,,,,,,,,,,,,,,,,,,,,,,,,,,,,,,,,,,,,,,,,,,,,,,,,,,,,,,,,,,,,,,,,,,,,,,,,,,,,,,,,,,,,,,,,,,,,,,,,,,,,,,,,,,,,,,,,,,,,,,,,,,,,,,,,,,,,,,,,,,,,,,,,,,,,,,,,,,
0,50,50,79,1,,5f82e997eec0860404c8f790,62bbfb52d74ddac5d85e4ce9,2022-06-29_08h12.28.803,Colour_Asymmetry_Pilot,2022.1.3,MacIntel,59.84082341,62bbe60bf3d75ef465d3e404,,,,,,,,,,,,,,,,,,,,,,,,,,,,,,,,,,,,,,,,,,,,,,,,,,,,,,,,,,,,,,,,,,,,,,,,,,,,,,,,,,,,,,,,,,,,,,,,,,,,,,,,,,,,,,,,,,,,,,,,,,,,,,,,,,,,,,,,,,,,,,,,,,,,,,,,,,,,,,
0,51,51,92,1,,5f82e997eec0860404c8f790,62bbfb52d74ddac5d85e4ce9,2022-06-29_08h12.28.803,Colour_Asymmetry_Pilot,2022.1.3,MacIntel,59.84082341,62bbe60bf3d75ef465d3e404,,,,,,,,,,,,,,,,,,,,,,,,,,,,,,,,,,,,,,,,,,,,,,,,,,,,,,,,,,,,,,,,,,,,,,,,,,,,,,,,,,,,,,,,,,,,,,,,,,,,,,,,,,,,,,,,,,,,,,,,,,,,,,,,,,,,,,,,,,,,,,,,,,,,,,,,,,,,,,
0,52,52,28,1,,5f82e997eec0860404c8f790,62bbfb52d74ddac5d85e4ce9,2022-06-29_08h12.28.803,Colour_Asymmetry_Pilot,2022.1.3,MacIntel,59.84082341,62bbe60bf3d75ef465d3e404,,,,,,,,,,,,,,,,,,,,,,,,,,,,,,,,,,,,,,,,,,,,,,,,,,,,,,,,,,,,,,,,,,,,,,,,,,,,,,,,,,,,,,,,,,,,,,,,,,,,,,,,,,,,,,,,,,,,,,,,,,,,,,,,,,,,,,,,,,,,,,,,,,,,,,,,,,,,,,
0,53,53,32,1,,5f82e997eec0860404c8f790,62bbfb52d74ddac5d85e4ce9,2022-06-29_08h12.28.803,Colour_Asymmetry_Pilot,2022.1.3,MacIntel,59.84082341,62bbe60bf3d75ef465d3e404,,,,,,,,,,,,,,,,,,,,,,,,,,,,,,,,,,,,,,,,,,,,,,,,,,,,,,,,,,,,,,,,,,,,,,,,,,,,,,,,,,,,,,,,,,,,,,,,,,,,,,,,,,,,,,,,,,,,,,,,,,,,,,,,,,,,,,,,,,,,,,,,,,,,,,,,,,,,,,
0,54,54,22,1,,5f82e997eec0860404c8f790,62bbfb52d74ddac5d85e4ce9,2022-06-29_08h12.28.803,Colour_Asymmetry_Pilot,2022.1.3,MacIntel,59.84082341,62bbe60bf3d75ef465d3e404,,,,,,,,,,,,,,,,,,,,,,,,,,,,,,,,,,,,,,,,,,,,,,,,,,,,,,,,,,,,,,,,,,,,,,,,,,,,,,,,,,,,,,,,,,,,,,,,,,,,,,,,,,,,,,,,,,,,,,,,,,,,,,,,,,,,,,,,,,,,,,,,,,,,,,,,,,,,,,
0,55,55,58,1,,5f82e997eec0860404c8f790,62bbfb52d74ddac5d85e4ce9,2022-06-29_08h12.28.803,Colour_Asymmetry_Pilot,2022.1.3,MacIntel,59.84082341,62bbe60bf3d75ef465d3e404,,,,,,,,,,,,,,,,,,,,,,,,,,,,,,,,,,,,,,,,,,,,,,,,,,,,,,,,,,,,,,,,,,,,,,,,,,,,,,,,,,,,,,,,,,,,,,,,,,,,,,,,,,,,,,,,,,,,,,,,,,,,,,,,,,,,,,,,,,,,,,,,,,,,,,,,,,,,,,
0,56,56,42,1,,5f82e997eec0860404c8f790,62bbfb52d74ddac5d85e4ce9,2022-06-29_08h12.28.803,Colour_Asymmetry_Pilot,2022.1.3,MacIntel,59.84082341,62bbe60bf3d75ef465d3e404,,,,,,,,,,,,,,,,,,,,,,,,,,,,,,,,,,,,,,,,,,,,,,,,,,,,,,,,,,,,,,,,,,,,,,,,,,,,,,,,,,,,,,,,,,,,,,,,,,,,,,,,,,,,,,,,,,,,,,,,,,,,,,,,,,,,,,,,,,,,,,,,,,,,,,,,,,,,,,
0,57,57,87,1,,5f82e997eec0860404c8f790,62bbfb52d74ddac5d85e4ce9,2022-06-29_08h12.28.803,Colour_Asymmetry_Pilot,2022.1.3,MacIntel,59.84082341,62bbe60bf3d75ef465d3e404,,,,,,,,,,,,,,,,,,,,,,,,,,,,,,,,,,,,,,,,,,,,,,,,,,,,,,,,,,,,,,,,,,,,,,,,,,,,,,,,,,,,,,,,,,,,,,,,,,,,,,,,,,,,,,,,,,,,,,,,,,,,,,,,,,,,,,,,,,,,,,,,,,,,,,,,,,,,,,
0,58,58,34,1,,5f82e997eec0860404c8f790,62bbfb52d74ddac5d85e4ce9,2022-06-29_08h12.28.803,Colour_Asymmetry_Pilot,2022.1.3,MacIntel,59.84082341,62bbe60bf3d75ef465d3e404,,,,,,,,,,,,,,,,,,,,,,,,,,,,,,,,,,,,,,,,,,,,,,,,,,,,,,,,,,,,,,,,,,,,,,,,,,,,,,,,,,,,,,,,,,,,,,,,,,,,,,,,,,,,,,,,,,,,,,,,,,,,,,,,,,,,,,,,,,,,,,,,,,,,,,,,,,,,,,
0,59,59,49,1,,5f82e997eec0860404c8f790,62bbfb52d74ddac5d85e4ce9,2022-06-29_08h12.28.803,Colour_Asymmetry_Pilot,2022.1.3,MacIntel,59.84082341,62bbe60bf3d75ef465d3e404,,,,,,,,,,,,,,,,,,,,,,,,,,,,,,,,,,,,,,,,,,,,,,,,,,,,,,,,,,,,,,,,,,,,,,,,,,,,,,,,,,,,,,,,,,,,,,,,,,,,,,,,,,,,,,,,,,,,,,,,,,,,,,,,,,,,,,,,,,,,,,,,,,,,,,,,,,,,,,
0,60,60,31,1,,5f82e997eec0860404c8f790,62bbfb52d74ddac5d85e4ce9,2022-06-29_08h12.28.803,Colour_Asymmetry_Pilot,2022.1.3,MacIntel,59.84082341,62bbe60bf3d75ef465d3e404,,,,,,,,,,,,,,,,,,,,,,,,,,,,,,,,,,,,,,,,,,,,,,,,,,,,,,,,,,,,,,,,,,,,,,,,,,,,,,,,,,,,,,,,,,,,,,,,,,,,,,,,,,,,,,,,,,,,,,,,,,,,,,,,,,,,,,,,,,,,,,,,,,,,,,,,,,,,,,
0,61,61,30,1,,5f82e997eec0860404c8f790,62bbfb52d74ddac5d85e4ce9,2022-06-29_08h12.28.803,Colour_Asymmetry_Pilot,2022.1.3,MacIntel,59.84082341,62bbe60bf3d75ef465d3e404,,,,,,,,,,,,,,,,,,,,,,,,,,,,,,,,,,,,,,,,,,,,,,,,,,,,,,,,,,,,,,,,,,,,,,,,,,,,,,,,,,,,,,,,,,,,,,,,,,,,,,,,,,,,,,,,,,,,,,,,,,,,,,,,,,,,,,,,,,,,,,,,,,,,,,,,,,,,,,
0,62,62,57,1,,5f82e997eec0860404c8f790,62bbfb52d74ddac5d85e4ce9,2022-06-29_08h12.28.803,Colour_Asymmetry_Pilot,2022.1.3,MacIntel,59.84082341,62bbe60bf3d75ef465d3e404,,,,,,,,,,,,,,,,,,,,,,,,,,,,,,,,,,,,,,,,,,,,,,,,,,,,,,,,,,,,,,,,,,,,,,,,,,,,,,,,,,,,,,,,,,,,,,,,,,,,,,,,,,,,,,,,,,,,,,,,,,,,,,,,,,,,,,,,,,,,,,,,,,,,,,,,,,,,,,
0,63,63,74,1,,5f82e997eec0860404c8f790,62bbfb52d74ddac5d85e4ce9,2022-06-29_08h12.28.803,Colour_Asymmetry_Pilot,2022.1.3,MacIntel,59.84082341,62bbe60bf3d75ef465d3e404,,,,,,,,,,,,,,,,,,,,,,,,,,,,,,,,,,,,,,,,,,,,,,,,,,,,,,,,,,,,,,,,,,,,,,,,,,,,,,,,,,,,,,,,,,,,,,,,,,,,,,,,,,,,,,,,,,,,,,,,,,,,,,,,,,,,,,,,,,,,,,,,,,,,,,,,,,,,,,
0,64,64,24,1,,5f82e997eec0860404c8f790,62bbfb52d74ddac5d85e4ce9,2022-06-29_08h12.28.803,Colour_Asymmetry_Pilot,2022.1.3,MacIntel,59.84082341,62bbe60bf3d75ef465d3e404,,,,,,,,,,,,,,,,,,,,,,,,,,,,,,,,,,,,,,,,,,,,,,,,,,,,,,,,,,,,,,,,,,,,,,,,,,,,,,,,,,,,,,,,,,,,,,,,,,,,,,,,,,,,,,,,,,,,,,,,,,,,,,,,,,,,,,,,,,,,,,,,,,,,,,,,,,,,,,
0,65,65,55,1,,5f82e997eec0860404c8f790,62bbfb52d74ddac5d85e4ce9,2022-06-29_08h12.28.803,Colour_Asymmetry_Pilot,2022.1.3,MacIntel,59.84082341,62bbe60bf3d75ef465d3e404,,,,,,,,,,,,,,,,,,,,,,,,,,,,,,,,,,,,,,,,,,,,,,,,,,,,,,,,,,,,,,,,,,,,,,,,,,,,,,,,,,,,,,,,,,,,,,,,,,,,,,,,,,,,,,,,,,,,,,,,,,,,,,,,,,,,,,,,,,,,,,,,,,,,,,,,,,,,,,
0,66,66,18,1,,5f82e997eec0860404c8f790,62bbfb52d74ddac5d85e4ce9,2022-06-29_08h12.28.803,Colour_Asymmetry_Pilot,2022.1.3,MacIntel,59.84082341,62bbe60bf3d75ef465d3e404,,,,,,,,,,,,,,,,,,,,,,,,,,,,,,,,,,,,,,,,,,,,,,,,,,,,,,,,,,,,,,,,,,,,,,,,,,,,,,,,,,,,,,,,,,,,,,,,,,,,,,,,,,,,,,,,,,,,,,,,,,,,,,,,,,,,,,,,,,,,,,,,,,,,,,,,,,,,,,
0,67,67,61,1,,5f82e997eec0860404c8f790,62bbfb52d74ddac5d85e4ce9,2022-06-29_08h12.28.803,Colour_Asymmetry_Pilot,2022.1.3,MacIntel,59.84082341,62bbe60bf3d75ef465d3e404,,,,,,,,,,,,,,,,,,,,,,,,,,,,,,,,,,,,,,,,,,,,,,,,,,,,,,,,,,,,,,,,,,,,,,,,,,,,,,,,,,,,,,,,,,,,,,,,,,,,,,,,,,,,,,,,,,,,,,,,,,,,,,,,,,,,,,,,,,,,,,,,,,,,,,,,,,,,,,
0,68,68,41,1,,5f82e997eec0860404c8f790,62bbfb52d74ddac5d85e4ce9,2022-06-29_08h12.28.803,Colour_Asymmetry_Pilot,2022.1.3,MacIntel,59.84082341,62bbe60bf3d75ef465d3e404,,,,,,,,,,,,,,,,,,,,,,,,,,,,,,,,,,,,,,,,,,,,,,,,,,,,,,,,,,,,,,,,,,,,,,,,,,,,,,,,,,,,,,,,,,,,,,,,,,,,,,,,,,,,,,,,,,,,,,,,,,,,,,,,,,,,,,,,,,,,,,,,,,,,,,,,,,,,,,
0,69,69,3,1,,5f82e997eec0860404c8f790,62bbfb52d74ddac5d85e4ce9,2022-06-29_08h12.28.803,Colour_Asymmetry_Pilot,2022.1.3,MacIntel,59.84082341,62bbe60bf3d75ef465d3e404,,,,,,,,,,,,,,,,,,,,,,,,,,,,,,,,,,,,,,,,,,,,,,,,,,,,,,,,,,,,,,,,,,,,,,,,,,,,,,,,,,,,,,,,,,,,,,,,,,,,,,,,,,,,,,,,,,,,,,,,,,,,,,,,,,,,,,,,,,,,,,,,,,,,,,,,,,,,,,
0,70,70,90,1,,5f82e997eec0860404c8f790,62bbfb52d74ddac5d85e4ce9,2022-06-29_08h12.28.803,Colour_Asymmetry_Pilot,2022.1.3,MacIntel,59.84082341,62bbe60bf3d75ef465d3e404,,,,,,,,,,,,,,,,,,,,,,,,,,,,,,,,,,,,,,,,,,,,,,,,,,,,,,,,,,,,,,,,,,,,,,,,,,,,,,,,,,,,,,,,,,,,,,,,,,,,,,,,,,,,,,,,,,,,,,,,,,,,,,,,,,,,,,,,,,,,,,,,,,,,,,,,,,,,,,
0,71,71,36,1,,5f82e997eec0860404c8f790,62bbfb52d74ddac5d85e4ce9,2022-06-29_08h12.28.803,Colour_Asymmetry_Pilot,2022.1.3,MacIntel,59.84082341,62bbe60bf3d75ef465d3e404,,,,,,,,,,,,,,,,,,,,,,,,,,,,,,,,,,,,,,,,,,,,,,,,,,,,,,,,,,,,,,,,,,,,,,,,,,,,,,,,,,,,,,,,,,,,,,,,,,,,,,,,,,,,,,,,,,,,,,,,,,,,,,,,,,,,,,,,,,,,,,,,,,,,,,,,,,,,,,
0,72,72,6,1,,5f82e997eec0860404c8f790,62bbfb52d74ddac5d85e4ce9,2022-06-29_08h12.28.803,Colour_Asymmetry_Pilot,2022.1.3,MacIntel,59.84082341,62bbe60bf3d75ef465d3e404,,,,,,,,,,,,,,,,,,,,,,,,,,,,,,,,,,,,,,,,,,,,,,,,,,,,,,,,,,,,,,,,,,,,,,,,,,,,,,,,,,,,,,,,,,,,,,,,,,,,,,,,,,,,,,,,,,,,,,,,,,,,,,,,,,,,,,,,,,,,,,,,,,,,,,,,,,,,,,
0,73,73,45,1,,5f82e997eec0860404c8f790,62bbfb52d74ddac5d85e4ce9,2022-06-29_08h12.28.803,Colour_Asymmetry_Pilot,2022.1.3,MacIntel,59.84082341,62bbe60bf3d75ef465d3e404,,,,,,,,,,,,,,,,,,,,,,,,,,,,,,,,,,,,,,,,,,,,,,,,,,,,,,,,,,,,,,,,,,,,,,,,,,,,,,,,,,,,,,,,,,,,,,,,,,,,,,,,,,,,,,,,,,,,,,,,,,,,,,,,,,,,,,,,,,,,,,,,,,,,,,,,,,,,,,
0,74,74,70,1,,5f82e997eec0860404c8f790,62bbfb52d74ddac5d85e4ce9,2022-06-29_08h12.28.803,Colour_Asymmetry_Pilot,2022.1.3,MacIntel,59.84082341,62bbe60bf3d75ef465d3e404,,,,,,,,,,,,,,,,,,,,,,,,,,,,,,,,,,,,,,,,,,,,,,,,,,,,,,,,,,,,,,,,,,,,,,,,,,,,,,,,,,,,,,,,,,,,,,,,,,,,,,,,,,,,,,,,,,,,,,,,,,,,,,,,,,,,,,,,,,,,,,,,,,,,,,,,,,,,,,
0,75,75,8,1,,5f82e997eec0860404c8f790,62bbfb52d74ddac5d85e4ce9,2022-06-29_08h12.28.803,Colour_Asymmetry_Pilot,2022.1.3,MacIntel,59.84082341,62bbe60bf3d75ef465d3e404,,,,,,,,,,,,,,,,,,,,,,,,,,,,,,,,,,,,,,,,,,,,,,,,,,,,,,,,,,,,,,,,,,,,,,,,,,,,,,,,,,,,,,,,,,,,,,,,,,,,,,,,,,,,,,,,,,,,,,,,,,,,,,,,,,,,,,,,,,,,,,,,,,,,,,,,,,,,,,
0,76,76,65,1,,5f82e997eec0860404c8f790,62bbfb52d74ddac5d85e4ce9,2022-06-29_08h12.28.803,Colour_Asymmetry_Pilot,2022.1.3,MacIntel,59.84082341,62bbe60bf3d75ef465d3e404,,,,,,,,,,,,,,,,,,,,,,,,,,,,,,,,,,,,,,,,,,,,,,,,,,,,,,,,,,,,,,,,,,,,,,,,,,,,,,,,,,,,,,,,,,,,,,,,,,,,,,,,,,,,,,,,,,,,,,,,,,,,,,,,,,,,,,,,,,,,,,,,,,,,,,,,,,,,,,
0,77,77,35,1,,5f82e997eec0860404c8f790,62bbfb52d74ddac5d85e4ce9,2022-06-29_08h12.28.803,Colour_Asymmetry_Pilot,2022.1.3,MacIntel,59.84082341,62bbe60bf3d75ef465d3e404,,,,,,,,,,,,,,,,,,,,,,,,,,,,,,,,,,,,,,,,,,,,,,,,,,,,,,,,,,,,,,,,,,,,,,,,,,,,,,,,,,,,,,,,,,,,,,,,,,,,,,,,,,,,,,,,,,,,,,,,,,,,,,,,,,,,,,,,,,,,,,,,,,,,,,,,,,,,,,
0,78,78,66,1,,5f82e997eec0860404c8f790,62bbfb52d74ddac5d85e4ce9,2022-06-29_08h12.28.803,Colour_Asymmetry_Pilot,2022.1.3,MacIntel,59.84082341,62bbe60bf3d75ef465d3e404,,,,,,,,,,,,,,,,,,,,,,,,,,,,,,,,,,,,,,,,,,,,,,,,,,,,,,,,,,,,,,,,,,,,,,,,,,,,,,,,,,,,,,,,,,,,,,,,,,,,,,,,,,,,,,,,,,,,,,,,,,,,,,,,,,,,,,,,,,,,,,,,,,,,,,,,,,,,,,
0,79,79,67,1,,5f82e997eec0860404c8f790,62bbfb52d74ddac5d85e4ce9,2022-06-29_08h12.28.803,Colour_Asymmetry_Pilot,2022.1.3,MacIntel,59.84082341,62bbe60bf3d75ef465d3e404,,,,,,,,,,,,,,,,,,,,,,,,,,,,,,,,,,,,,,,,,,,,,,,,,,,,,,,,,,,,,,,,,,,,,,,,,,,,,,,,,,,,,,,,,,,,,,,,,,,,,,,,,,,,,,,,,,,,,,,,,,,,,,,,,,,,,,,,,,,,,,,,,,,,,,,,,,,,,,
0,80,80,83,1,,5f82e997eec0860404c8f790,62bbfb52d74ddac5d85e4ce9,2022-06-29_08h12.28.803,Colour_Asymmetry_Pilot,2022.1.3,MacIntel,59.84082341,62bbe60bf3d75ef465d3e404,,,,,,,,,,,,,,,,,,,,,,,,,,,,,,,,,,,,,,,,,,,,,,,,,,,,,,,,,,,,,,,,,,,,,,,,,,,,,,,,,,,,,,,,,,,,,,,,,,,,,,,,,,,,,,,,,,,,,,,,,,,,,,,,,,,,,,,,,,,,,,,,,,,,,,,,,,,,,,
0,81,81,63,1,,5f82e997eec0860404c8f790,62bbfb52d74ddac5d85e4ce9,2022-06-29_08h12.28.803,Colour_Asymmetry_Pilot,2022.1.3,MacIntel,59.84082341,62bbe60bf3d75ef465d3e404,,,,,,,,,,,,,,,,,,,,,,,,,,,,,,,,,,,,,,,,,,,,,,,,,,,,,,,,,,,,,,,,,,,,,,,,,,,,,,,,,,,,,,,,,,,,,,,,,,,,,,,,,,,,,,,,,,,,,,,,,,,,,,,,,,,,,,,,,,,,,,,,,,,,,,,,,,,,,,
0,82,82,89,1,,5f82e997eec0860404c8f790,62bbfb52d74ddac5d85e4ce9,2022-06-29_08h12.28.803,Colour_Asymmetry_Pilot,2022.1.3,MacIntel,59.84082341,62bbe60bf3d75ef465d3e404,,,,,,,,,,,,,,,,,,,,,,,,,,,,,,,,,,,,,,,,,,,,,,,,,,,,,,,,,,,,,,,,,,,,,,,,,,,,,,,,,,,,,,,,,,,,,,,,,,,,,,,,,,,,,,,,,,,,,,,,,,,,,,,,,,,,,,,,,,,,,,,,,,,,,,,,,,,,,,
0,83,83,52,1,,5f82e997eec0860404c8f790,62bbfb52d74ddac5d85e4ce9,2022-06-29_08h12.28.803,Colour_Asymmetry_Pilot,2022.1.3,MacIntel,59.84082341,62bbe60bf3d75ef465d3e404,,,,,,,,,,,,,,,,,,,,,,,,,,,,,,,,,,,,,,,,,,,,,,,,,,,,,,,,,,,,,,,,,,,,,,,,,,,,,,,,,,,,,,,,,,,,,,,,,,,,,,,,,,,,,,,,,,,,,,,,,,,,,,,,,,,,,,,,,,,,,,,,,,,,,,,,,,,,,,
0,84,84,16,1,,5f82e997eec0860404c8f790,62bbfb52d74ddac5d85e4ce9,2022-06-29_08h12.28.803,Colour_Asymmetry_Pilot,2022.1.3,MacIntel,59.84082341,62bbe60bf3d75ef465d3e404,,,,,,,,,,,,,,,,,,,,,,,,,,,,,,,,,,,,,,,,,,,,,,,,,,,,,,,,,,,,,,,,,,,,,,,,,,,,,,,,,,,,,,,,,,,,,,,,,,,,,,,,,,,,,,,,,,,,,,,,,,,,,,,,,,,,,,,,,,,,,,,,,,,,,,,,,,,,,,
0,85,85,82,1,,5f82e997eec0860404c8f790,62bbfb52d74ddac5d85e4ce9,2022-06-29_08h12.28.803,Colour_Asymmetry_Pilot,2022.1.3,MacIntel,59.84082341,62bbe60bf3d75ef465d3e404,,,,,,,,,,,,,,,,,,,,,,,,,,,,,,,,,,,,,,,,,,,,,,,,,,,,,,,,,,,,,,,,,,,,,,,,,,,,,,,,,,,,,,,,,,,,,,,,,,,,,,,,,,,,,,,,,,,,,,,,,,,,,,,,,,,,,,,,,,,,,,,,,,,,,,,,,,,,,,
0,86,86,72,1,,5f82e997eec0860404c8f790,62bbfb52d74ddac5d85e4ce9,2022-06-29_08h12.28.803,Colour_Asymmetry_Pilot,2022.1.3,MacIntel,59.84082341,62bbe60bf3d75ef465d3e404,,,,,,,,,,,,,,,,,,,,,,,,,,,,,,,,,,,,,,,,,,,,,,,,,,,,,,,,,,,,,,,,,,,,,,,,,,,,,,,,,,,,,,,,,,,,,,,,,,,,,,,,,,,,,,,,,,,,,,,,,,,,,,,,,,,,,,,,,,,,,,,,,,,,,,,,,,,,,,
0,87,87,9,1,,5f82e997eec0860404c8f790,62bbfb52d74ddac5d85e4ce9,2022-06-29_08h12.28.803,Colour_Asymmetry_Pilot,2022.1.3,MacIntel,59.84082341,62bbe60bf3d75ef465d3e404,,,,,,,,,,,,,,,,,,,,,,,,,,,,,,,,,,,,,,,,,,,,,,,,,,,,,,,,,,,,,,,,,,,,,,,,,,,,,,,,,,,,,,,,,,,,,,,,,,,,,,,,,,,,,,,,,,,,,,,,,,,,,,,,,,,,,,,,,,,,,,,,,,,,,,,,,,,,,,
0,88,88,48,1,,5f82e997eec0860404c8f790,62bbfb52d74ddac5d85e4ce9,2022-06-29_08h12.28.803,Colour_Asymmetry_Pilot,2022.1.3,MacIntel,59.84082341,62bbe60bf3d75ef465d3e404,,,,,,,,,,,,,,,,,,,,,,,,,,,,,,,,,,,,,,,,,,,,,,,,,,,,,,,,,,,,,,,,,,,,,,,,,,,,,,,,,,,,,,,,,,,,,,,,,,,,,,,,,,,,,,,,,,,,,,,,,,,,,,,,,,,,,,,,,,,,,,,,,,,,,,,,,,,,,,
0,89,89,0,1,,5f82e997eec0860404c8f790,62bbfb52d74ddac5d85e4ce9,2022-06-29_08h12.28.803,Colour_Asymmetry_Pilot,2022.1.3,MacIntel,59.84082341,62bbe60bf3d75ef465d3e404,,,,,,,,,,,,,,,,,,,,,,,,,,,,,,,,,,,,,,,,,,,,,,,,,,,,,,,,,,,,,,,,,,,,,,,,,,,,,,,,,,,,,,,,,,,,,,,,,,,,,,,,,,,,,,,,,,,,,,,,,,,,,,,,,,,,,,,,,,,,,,,,,,,,,,,,,,,,,,
0,90,90,37,1,,5f82e997eec0860404c8f790,62bbfb52d74ddac5d85e4ce9,2022-06-29_08h12.28.803,Colour_Asymmetry_Pilot,2022.1.3,MacIntel,59.84082341,62bbe60bf3d75ef465d3e404,,,,,,,,,,,,,,,,,,,,,,,,,,,,,,,,,,,,,,,,,,,,,,,,,,,,,,,,,,,,,,,,,,,,,,,,,,,,,,,,,,,,,,,,,,,,,,,,,,,,,,,,,,,,,,,,,,,,,,,,,,,,,,,,,,,,,,,,,,,,,,,,,,,,,,,,,,,,,,
0,91,91,43,1,,5f82e997eec0860404c8f790,62bbfb52d74ddac5d85e4ce9,2022-06-29_08h12.28.803,Colour_Asymmetry_Pilot,2022.1.3,MacIntel,59.84082341,62bbe60bf3d75ef465d3e404,,,,,,,,,,,,,,,,,,,,,,,,,,,,,,,,,,,,,,,,,,,,,,,,,,,,,,,,,,,,,,,,,,,,,,,,,,,,,,,,,,,,,,,,,,,,,,,,,,,,,,,,,,,,,,,,,,,,,,,,,,,,,,,,,,,,,,,,,,,,,,,,,,,,,,,,,,,,,,
0,92,92,1,1,,5f82e997eec0860404c8f790,62bbfb52d74ddac5d85e4ce9,2022-06-29_08h12.28.803,Colour_Asymmetry_Pilot,2022.1.3,MacIntel,59.84082341,62bbe60bf3d75ef465d3e404,,,,,,,,,,,,,,,,,,,,,,,,,,,,,,,,,,,,,,,,,,,,,,,,,,,,,,,,,,,,,,,,,,,,,,,,,,,,,,,,,,,,,,,,,,,,,,,,,,,,,,,,,,,,,,,,,,,,,,,,,,,,,,,,,,,,,,,,,,,,,,,,,,,,,,,,,,,,,,
,,,,,,5f82e997eec0860404c8f790,62bbfb52d74ddac5d85e4ce9,2022-06-29_08h12.28.803,Colour_Asymmetry_Pilot,2022.1.3,MacIntel,59.84082341,62bbe60bf3d75ef465d3e404,0,0,0,100,1,threeone,,,,,,,,,,,,,,,,,,,,,,,,,,,,,,,,,,,,,,,,,,,,,,,,,,,,,,,,,,,,,,,,,,,,,,,,,,,,,,,,,,,,,,,,,,,,,,,,,,,,,,,,,,,,,,,,,,,,,,,,,,,,,,,,,,,,,,,,,,,,,,,,,,,,,,,,
,,,,,,5f82e997eec0860404c8f790,62bbfb52d74ddac5d85e4ce9,2022-06-29_08h12.28.803,Colour_Asymmetry_Pilot,2022.1.3,MacIntel,59.84082341,62bbe60bf3d75ef465d3e404,0,1,1,45,1,threefour,,,,,,,,,,,,,,,,,,,,,,,,,,,,,,,,,,,,,,,,,,,,,,,,,,,,,,,,,,,,,,,,,,,,,,,,,,,,,,,,,,,,,,,,,,,,,,,,,,,,,,,,,,,,,,,,,,,,,,,,,,,,,,,,,,,,,,,,,,,,,,,,,,,,,,,,
,,,,,,5f82e997eec0860404c8f790,62bbfb52d74ddac5d85e4ce9,2022-06-29_08h12.28.803,Colour_Asymmetry_Pilot,2022.1.3,MacIntel,59.84082341,62bbe60bf3d75ef465d3e404,0,2,2,34,1,twoone,,,,,,,,,,,,,,,,,,,,,,,,,,,,,,,,,,,,,,,,,,,,,,,,,,,,,,,,,,,,,,,,,,,,,,,,,,,,,,,,,,,,,,,,,,,,,,,,,,,,,,,,,,,,,,,,,,,,,,,,,,,,,,,,,,,,,,,,,,,,,,,,,,,,,,,,
,,,,,,5f82e997eec0860404c8f790,62bbfb52d74ddac5d85e4ce9,2022-06-29_08h12.28.803,Colour_Asymmetry_Pilot,2022.1.3,MacIntel,59.84082341,62bbe60bf3d75ef465d3e404,0,3,3,136,1,onetwo,,,,,,,,,,,,,,,,,,,,,,,,,,,,,,,,,,,,,,,,,,,,,,,,,,,,,,,,,,,,,,,,,,,,,,,,,,,,,,,,,,,,,,,,,,,,,,,,,,,,,,,,,,,,,,,,,,,,,,,,,,,,,,,,,,,,,,,,,,,,,,,,,,,,,,,,
,,,,,,5f82e997eec0860404c8f790,62bbfb52d74ddac5d85e4ce9,2022-06-29_08h12.28.803,Colour_Asymmetry_Pilot,2022.1.3,MacIntel,59.84082341,62bbe60bf3d75ef465d3e404,0,4,4,64,1,onetwo,,,,,,,,,,,,,,,,,,,,,,,,,,,,,,,,,,,,,,,,,,,,,,,,,,,,,,,,,,,,,,,,,,,,,,,,,,,,,,,,,,,,,,,,,,,,,,,,,,,,,,,,,,,,,,,,,,,,,,,,,,,,,,,,,,,,,,,,,,,,,,,,,,,,,,,,
,,,,,,5f82e997eec0860404c8f790,62bbfb52d74ddac5d85e4ce9,2022-06-29_08h12.28.803,Colour_Asymmetry_Pilot,2022.1.3,MacIntel,59.84082341,62bbe60bf3d75ef465d3e404,0,5,5,36,1,threeone,,,,,,,,,,,,,,,,,,,,,,,,,,,,,,,,,,,,,,,,,,,,,,,,,,,,,,,,,,,,,,,,,,,,,,,,,,,,,,,,,,,,,,,,,,,,,,,,,,,,,,,,,,,,,,,,,,,,,,,,,,,,,,,,,,,,,,,,,,,,,,,,,,,,,,,,
,,,,,,5f82e997eec0860404c8f790,62bbfb52d74ddac5d85e4ce9,2022-06-29_08h12.28.803,Colour_Asymmetry_Pilot,2022.1.3,MacIntel,59.84082341,62bbe60bf3d75ef465d3e404,0,6,6,5,1,threefour,,,,,,,,,,,,,,,,,,,,,,,,,,,,,,,,,,,,,,,,,,,,,,,,,,,,,,,,,,,,,,,,,,,,,,,,,,,,,,,,,,,,,,,,,,,,,,,,,,,,,,,,,,,,,,,,,,,,,,,,,,,,,,,,,,,,,,,,,,,,,,,,,,,,,,,,
,,,,,,5f82e997eec0860404c8f790,62bbfb52d74ddac5d85e4ce9,2022-06-29_08h12.28.803,Colour_Asymmetry_Pilot,2022.1.3,MacIntel,59.84082341,62bbe60bf3d75ef465d3e404,0,7,7,110,1,fourtwo,,,,,,,,,,,,,,,,,,,,,,,,,,,,,,,,,,,,,,,,,,,,,,,,,,,,,,,,,,,,,,,,,,,,,,,,,,,,,,,,,,,,,,,,,,,,,,,,,,,,,,,,,,,,,,,,,,,,,,,,,,,,,,,,,,,,,,,,,,,,,,,,,,,,,,,,
,,,,,,5f82e997eec0860404c8f790,62bbfb52d74ddac5d85e4ce9,2022-06-29_08h12.28.803,Colour_Asymmetry_Pilot,2022.1.3,MacIntel,59.84082341,62bbe60bf3d75ef465d3e404,0,8,8,32,1,onetwo,,,,,,,,,,,,,,,,,,,,,,,,,,,,,,,,,,,,,,,,,,,,,,,,,,,,,,,,,,,,,,,,,,,,,,,,,,,,,,,,,,,,,,,,,,,,,,,,,,,,,,,,,,,,,,,,,,,,,,,,,,,,,,,,,,,,,,,,,,,,,,,,,,,,,,,,
,,,,,,5f82e997eec0860404c8f790,62bbfb52d74ddac5d85e4ce9,2022-06-29_08h12.28.803,Colour_Asymmetry_Pilot,2022.1.3,MacIntel,59.84082341,62bbe60bf3d75ef465d3e404,0,9,9,22,1,fourtwo,,,,,,,,,,,,,,,,,,,,,,,,,,,,,,,,,,,,,,,,,,,,,,,,,,,,,,,,,,,,,,,,,,,,,,,,,,,,,,,,,,,,,,,,,,,,,,,,,,,,,,,,,,,,,,,,,,,,,,,,,,,,,,,,,,,,,,,,,,,,,,,,,,,,,,,,
,,,,,,5f82e997eec0860404c8f790,62bbfb52d74ddac5d85e4ce9,2022-06-29_08h12.28.803,Colour_Asymmetry_Pilot,2022.1.3,MacIntel,59.84082341,62bbe60bf3d75ef465d3e404,0,10,10,14,1,fourtwo,,,,,,,,,,,,,,,,,,,,,,,,,,,,,,,,,,,,,,,,,,,,,,,,,,,,,,,,,,,,,,,,,,,,,,,,,,,,,,,,,,,,,,,,,,,,,,,,,,,,,,,,,,,,,,,,,,,,,,,,,,,,,,,,,,,,,,,,,,,,,,,,,,,,,,,,
,,,,,,5f82e997eec0860404c8f790,62bbfb52d74ddac5d85e4ce9,2022-06-29_08h12.28.803,Colour_Asymmetry_Pilot,2022.1.3,MacIntel,59.84082341,62bbe60bf3d75ef465d3e404,0,11,11,49,1,onethree,,,,,,,,,,,,,,,,,,,,,,,,,,,,,,,,,,,,,,,,,,,,,,,,,,,,,,,,,,,,,,,,,,,,,,,,,,,,,,,,,,,,,,,,,,,,,,,,,,,,,,,,,,,,,,,,,,,,,,,,,,,,,,,,,,,,,,,,,,,,,,,,,,,,,,,,
,,,,,,5f82e997eec0860404c8f790,62bbfb52d74ddac5d85e4ce9,2022-06-29_08h12.28.803,Colour_Asymmetry_Pilot,2022.1.3,MacIntel,59.84082341,62bbe60bf3d75ef465d3e404,0,12,12,54,1,fourtwo,,,,,,,,,,,,,,,,,,,,,,,,,,,,,,,,,,,,,,,,,,,,,,,,,,,,,,,,,,,,,,,,,,,,,,,,,,,,,,,,,,,,,,,,,,,,,,,,,,,,,,,,,,,,,,,,,,,,,,,,,,,,,,,,,,,,,,,,,,,,,,,,,,,,,,,,
,,,,,,5f82e997eec0860404c8f790,62bbfb52d74ddac5d85e4ce9,2022-06-29_08h12.28.803,Colour_Asymmetry_Pilot,2022.1.3,MacIntel,59.84082341,62bbe60bf3d75ef465d3e404,0,13,13,129,1,onethree,,,,,,,,,,,,,,,,,,,,,,,,,,,,,,,,,,,,,,,,,,,,,,,,,,,,,,,,,,,,,,,,,,,,,,,,,,,,,,,,,,,,,,,,,,,,,,,,,,,,,,,,,,,,,,,,,,,,,,,,,,,,,,,,,,,,,,,,,,,,,,,,,,,,,,,,
,,,,,,5f82e997eec0860404c8f790,62bbfb52d74ddac5d85e4ce9,2022-06-29_08h12.28.803,Colour_Asymmetry_Pilot,2022.1.3,MacIntel,59.84082341,62bbe60bf3d75ef465d3e404,0,14,14,134,1,fourtwo,,,,,,,,,,,,,,,,,,,,,,,,,,,,,,,,,,,,,,,,,,,,,,,,,,,,,,,,,,,,,,,,,,,,,,,,,,,,,,,,,,,,,,,,,,,,,,,,,,,,,,,,,,,,,,,,,,,,,,,,,,,,,,,,,,,,,,,,,,,,,,,,,,,,,,,,
,,,,,,5f82e997eec0860404c8f790,62bbfb52d74ddac5d85e4ce9,2022-06-29_08h12.28.803,Colour_Asymmetry_Pilot,2022.1.3,MacIntel,59.84082341,62bbe60bf3d75ef465d3e404,0,15,15,19,1,twofour,,,,,,,,,,,,,,,,,,,,,,,,,,,,,,,,,,,,,,,,,,,,,,,,,,,,,,,,,,,,,,,,,,,,,,,,,,,,,,,,,,,,,,,,,,,,,,,,,,,,,,,,,,,,,,,,,,,,,,,,,,,,,,,,,,,,,,,,,,,,,,,,,,,,,,,,
,,,,,,5f82e997eec0860404c8f790,62bbfb52d74ddac5d85e4ce9,2022-06-29_08h12.28.803,Colour_Asymmetry_Pilot,2022.1.3,MacIntel,59.84082341,62bbe60bf3d75ef465d3e404,0,16,16,74,1,twoone,,,,,,,,,,,,,,,,,,,,,,,,,,,,,,,,,,,,,,,,,,,,,,,,,,,,,,,,,,,,,,,,,,,,,,,,,,,,,,,,,,,,,,,,,,,,,,,,,,,,,,,,,,,,,,,,,,,,,,,,,,,,,,,,,,,,,,,,,,,,,,,,,,,,,,,,
,,,,,,5f82e997eec0860404c8f790,62bbfb52d74ddac5d85e4ce9,2022-06-29_08h12.28.803,Colour_Asymmetry_Pilot,2022.1.3,MacIntel,59.84082341,62bbe60bf3d75ef465d3e404,0,17,17,91,1,twofour,,,,,,,,,,,,,,,,,,,,,,,,,,,,,,,,,,,,,,,,,,,,,,,,,,,,,,,,,,,,,,,,,,,,,,,,,,,,,,,,,,,,,,,,,,,,,,,,,,,,,,,,,,,,,,,,,,,,,,,,,,,,,,,,,,,,,,,,,,,,,,,,,,,,,,,,
,,,,,,5f82e997eec0860404c8f790,62bbfb52d74ddac5d85e4ce9,2022-06-29_08h12.28.803,Colour_Asymmetry_Pilot,2022.1.3,MacIntel,59.84082341,62bbe60bf3d75ef465d3e404,0,18,18,98,1,twoone,,,,,,,,,,,,,,,,,,,,,,,,,,,,,,,,,,,,,,,,,,,,,,,,,,,,,,,,,,,,,,,,,,,,,,,,,,,,,,,,,,,,,,,,,,,,,,,,,,,,,,,,,,,,,,,,,,,,,,,,,,,,,,,,,,,,,,,,,,,,,,,,,,,,,,,,
,,,,,,5f82e997eec0860404c8f790,62bbfb52d74ddac5d85e4ce9,2022-06-29_08h12.28.803,Colour_Asymmetry_Pilot,2022.1.3,MacIntel,59.84082341,62bbe60bf3d75ef465d3e404,0,19,19,111,1,fourthree,,,,,,,,,,,,,,,,,,,,,,,,,,,,,,,,,,,,,,,,,,,,,,,,,,,,,,,,,,,,,,,,,,,,,,,,,,,,,,,,,,,,,,,,,,,,,,,,,,,,,,,,,,,,,,,,,,,,,,,,,,,,,,,,,,,,,,,,,,,,,,,,,,,,,,,,
,,,,,,5f82e997eec0860404c8f790,62bbfb52d74ddac5d85e4ce9,2022-06-29_08h12.28.803,Colour_Asymmetry_Pilot,2022.1.3,MacIntel,59.84082341,62bbe60bf3d75ef465d3e404,0,20,20,106,1,twoone,,,,,,,,,,,,,,,,,,,,,,,,,,,,,,,,,,,,,,,,,,,,,,,,,,,,,,,,,,,,,,,,,,,,,,,,,,,,,,,,,,,,,,,,,,,,,,,,,,,,,,,,,,,,,,,,,,,,,,,,,,,,,,,,,,,,,,,,,,,,,,,,,,,,,,,,
,,,,,,5f82e997eec0860404c8f790,62bbfb52d74ddac5d85e4ce9,2022-06-29_08h12.28.803,Colour_Asymmetry_Pilot,2022.1.3,MacIntel,59.84082341,62bbe60bf3d75ef465d3e404,0,21,21,81,1,onethree,,,,,,,,,,,,,,,,,,,,,,,,,,,,,,,,,,,,,,,,,,,,,,,,,,,,,,,,,,,,,,,,,,,,,,,,,,,,,,,,,,,,,,,,,,,,,,,,,,,,,,,,,,,,,,,,,,,,,,,,,,,,,,,,,,,,,,,,,,,,,,,,,,,,,,,,
,,,,,,5f82e997eec0860404c8f790,62bbfb52d74ddac5d85e4ce9,2022-06-29_08h12.28.803,Colour_Asymmetry_Pilot,2022.1.3,MacIntel,59.84082341,62bbe60bf3d75ef465d3e404,0,22,22,10,1,twoone,,,,,,,,,,,,,,,,,,,,,,,,,,,,,,,,,,,,,,,,,,,,,,,,,,,,,,,,,,,,,,,,,,,,,,,,,,,,,,,,,,,,,,,,,,,,,,,,,,,,,,,,,,,,,,,,,,,,,,,,,,,,,,,,,,,,,,,,,,,,,,,,,,,,,,,,
,,,,,,5f82e997eec0860404c8f790,62bbfb52d74ddac5d85e4ce9,2022-06-29_08h12.28.803,Colour_Asymmetry_Pilot,2022.1.3,MacIntel,59.84082341,62bbe60bf3d75ef465d3e404,0,23,23,138,1,twoone,,,,,,,,,,,,,,,,,,,,,,,,,,,,,,,,,,,,,,,,,,,,,,,,,,,,,,,,,,,,,,,,,,,,,,,,,,,,,,,,,,,,,,,,,,,,,,,,,,,,,,,,,,,,,,,,,,,,,,,,,,,,,,,,,,,,,,,,,,,,,,,,,,,,,,,,
,,,,,,5f82e997eec0860404c8f790,62bbfb52d74ddac5d85e4ce9,2022-06-29_08h12.28.803,Colour_Asymmetry_Pilot,2022.1.3,MacIntel,59.84082341,62bbe60bf3d75ef465d3e404,0,24,24,44,1,threeone,,,,,,,,,,,,,,,,,,,,,,,,,,,,,,,,,,,,,,,,,,,,,,,,,,,,,,,,,,,,,,,,,,,,,,,,,,,,,,,,,,,,,,,,,,,,,,,,,,,,,,,,,,,,,,,,,,,,,,,,,,,,,,,,,,,,,,,,,,,,,,,,,,,,,,,,
,,,,,,5f82e997eec0860404c8f790,62bbfb52d74ddac5d85e4ce9,2022-06-29_08h12.28.803,Colour_Asymmetry_Pilot,2022.1.3,MacIntel,59.84082341,62bbe60bf3d75ef465d3e404,0,25,25,25,1,onethree,,,,,,,,,,,,,,,,,,,,,,,,,,,,,,,,,,,,,,,,,,,,,,,,,,,,,,,,,,,,,,,,,,,,,,,,,,,,,,,,,,,,,,,,,,,,,,,,,,,,,,,,,,,,,,,,,,,,,,,,,,,,,,,,,,,,,,,,,,,,,,,,,,,,,,,,
,,,,,,5f82e997eec0860404c8f790,62bbfb52d74ddac5d85e4ce9,2022-06-29_08h12.28.803,Colour_Asymmetry_Pilot,2022.1.3,MacIntel,59.84082341,62bbe60bf3d75ef465d3e404,0,26,26,61,1,threefour,,,,,,,,,,,,,,,,,,,,,,,,,,,,,,,,,,,,,,,,,,,,,,,,,,,,,,,,,,,,,,,,,,,,,,,,,,,,,,,,,,,,,,,,,,,,,,,,,,,,,,,,,,,,,,,,,,,,,,,,,,,,,,,,,,,,,,,,,,,,,,,,,,,,,,,,
,,,,,,5f82e997eec0860404c8f790,62bbfb52d74ddac5d85e4ce9,2022-06-29_08h12.28.803,Colour_Asymmetry_Pilot,2022.1.3,MacIntel,59.84082341,62bbe60bf3d75ef465d3e404,0,27,27,60,1,threeone,,,,,,,,,,,,,,,,,,,,,,,,,,,,,,,,,,,,,,,,,,,,,,,,,,,,,,,,,,,,,,,,,,,,,,,,,,,,,,,,,,,,,,,,,,,,,,,,,,,,,,,,,,,,,,,,,,,,,,,,,,,,,,,,,,,,,,,,,,,,,,,,,,,,,,,,
,,,,,,5f82e997eec0860404c8f790,62bbfb52d74ddac5d85e4ce9,2022-06-29_08h12.28.803,Colour_Asymmetry_Pilot,2022.1.3,MacIntel,59.84082341,62bbe60bf3d75ef465d3e404,0,28,28,128,1,onetwo,,,,,,,,,,,,,,,,,,,,,,,,,,,,,,,,,,,,,,,,,,,,,,,,,,,,,,,,,,,,,,,,,,,,,,,,,,,,,,,,,,,,,,,,,,,,,,,,,,,,,,,,,,,,,,,,,,,,,,,,,,,,,,,,,,,,,,,,,,,,,,,,,,,,,,,,
,,,,,,5f82e997eec0860404c8f790,62bbfb52d74ddac5d85e4ce9,2022-06-29_08h12.28.803,Colour_Asymmetry_Pilot,2022.1.3,MacIntel,59.84082341,62bbe60bf3d75ef465d3e404,0,29,29,70,1,fourtwo,,,,,,,,,,,,,,,,,,,,,,,,,,,,,,,,,,,,,,,,,,,,,,,,,,,,,,,,,,,,,,,,,,,,,,,,,,,,,,,,,,,,,,,,,,,,,,,,,,,,,,,,,,,,,,,,,,,,,,,,,,,,,,,,,,,,,,,,,,,,,,,,,,,,,,,,
,,,,,,5f82e997eec0860404c8f790,62bbfb52d74ddac5d85e4ce9,2022-06-29_08h12.28.803,Colour_Asymmetry_Pilot,2022.1.3,MacIntel,59.84082341,62bbe60bf3d75ef465d3e404,0,30,30,28,1,threeone,,,,,,,,,,,,,,,,,,,,,,,,,,,,,,,,,,,,,,,,,,,,,,,,,,,,,,,,,,,,,,,,,,,,,,,,,,,,,,,,,,,,,,,,,,,,,,,,,,,,,,,,,,,,,,,,,,,,,,,,,,,,,,,,,,,,,,,,,,,,,,,,,,,,,,,,
,,,,,,5f82e997eec0860404c8f790,62bbfb52d74ddac5d85e4ce9,2022-06-29_08h12.28.803,Colour_Asymmetry_Pilot,2022.1.3,MacIntel,59.84082341,62bbe60bf3d75ef465d3e404,0,31,31,105,1,onethree,,,,,,,,,,,,,,,,,,,,,,,,,,,,,,,,,,,,,,,,,,,,,,,,,,,,,,,,,,,,,,,,,,,,,,,,,,,,,,,,,,,,,,,,,,,,,,,,,,,,,,,,,,,,,,,,,,,,,,,,,,,,,,,,,,,,,,,,,,,,,,,,,,,,,,,,
,,,,,,5f82e997eec0860404c8f790,62bbfb52d74ddac5d85e4ce9,2022-06-29_08h12.28.803,Colour_Asymmetry_Pilot,2022.1.3,MacIntel,59.84082341,62bbe60bf3d75ef465d3e404,0,32,32,3,1,twofour,,,,,,,,,,,,,,,,,,,,,,,,,,,,,,,,,,,,,,,,,,,,,,,,,,,,,,,,,,,,,,,,,,,,,,,,,,,,,,,,,,,,,,,,,,,,,,,,,,,,,,,,,,,,,,,,,,,,,,,,,,,,,,,,,,,,,,,,,,,,,,,,,,,,,,,,
,,,,,,5f82e997eec0860404c8f790,62bbfb52d74ddac5d85e4ce9,2022-06-29_08h12.28.803,Colour_Asymmetry_Pilot,2022.1.3,MacIntel,59.84082341,62bbe60bf3d75ef465d3e404,0,33,33,53,1,threefour,,,,,,,,,,,,,,,,,,,,,,,,,,,,,,,,,,,,,,,,,,,,,,,,,,,,,,,,,,,,,,,,,,,,,,,,,,,,,,,,,,,,,,,,,,,,,,,,,,,,,,,,,,,,,,,,,,,,,,,,,,,,,,,,,,,,,,,,,,,,,,,,,,,,,,,,
,,,,,,5f82e997eec0860404c8f790,62bbfb52d74ddac5d85e4ce9,2022-06-29_08h12.28.803,Colour_Asymmetry_Pilot,2022.1.3,MacIntel,59.84082341,62bbe60bf3d75ef465d3e404,0,34,34,75,1,twofour,,,,,,,,,,,,,,,,,,,,,,,,,,,,,,,,,,,,,,,,,,,,,,,,,,,,,,,,,,,,,,,,,,,,,,,,,,,,,,,,,,,,,,,,,,,,,,,,,,,,,,,,,,,,,,,,,,,,,,,,,,,,,,,,,,,,,,,,,,,,,,,,,,,,,,,,
,,,,,,5f82e997eec0860404c8f790,62bbfb52d74ddac5d85e4ce9,2022-06-29_08h12.28.803,Colour_Asymmetry_Pilot,2022.1.3,MacIntel,59.84082341,62bbe60bf3d75ef465d3e404,0,35,35,137,1,onethree,,,,,,,,,,,,,,,,,,,,,,,,,,,,,,,,,,,,,,,,,,,,,,,,,,,,,,,,,,,,,,,,,,,,,,,,,,,,,,,,,,,,,,,,,,,,,,,,,,,,,,,,,,,,,,,,,,,,,,,,,,,,,,,,,,,,,,,,,,,,,,,,,,,,,,,,
,,,,,,5f82e997eec0860404c8f790,62bbfb52d74ddac5d85e4ce9,2022-06-29_08h12.28.803,Colour_Asymmetry_Pilot,2022.1.3,MacIntel,59.84082341,62bbe60bf3d75ef465d3e404,0,36,36,31,1,fourthree,,,,,,,,,,,,,,,,,,,,,,,,,,,,,,,,,,,,,,,,,,,,,,,,,,,,,,,,,,,,,,,,,,,,,,,,,,,,,,,,,,,,,,,,,,,,,,,,,,,,,,,,,,,,,,,,,,,,,,,,,,,,,,,,,,,,,,,,,,,,,,,,,,,,,,,,
,,,,,,5f82e997eec0860404c8f790,62bbfb52d74ddac5d85e4ce9,2022-06-29_08h12.28.803,Colour_Asymmetry_Pilot,2022.1.3,MacIntel,59.84082341,62bbe60bf3d75ef465d3e404,0,37,37,90,1,twoone,,,,,,,,,,,,,,,,,,,,,,,,,,,,,,,,,,,,,,,,,,,,,,,,,,,,,,,,,,,,,,,,,,,,,,,,,,,,,,,,,,,,,,,,,,,,,,,,,,,,,,,,,,,,,,,,,,,,,,,,,,,,,,,,,,,,,,,,,,,,,,,,,,,,,,,,
,,,,,,5f82e997eec0860404c8f790,62bbfb52d74ddac5d85e4ce9,2022-06-29_08h12.28.803,Colour_Asymmetry_Pilot,2022.1.3,MacIntel,59.84082341,62bbe60bf3d75ef465d3e404,0,38,38,46,1,fourtwo,,,,,,,,,,,,,,,,,,,,,,,,,,,,,,,,,,,,,,,,,,,,,,,,,,,,,,,,,,,,,,,,,,,,,,,,,,,,,,,,,,,,,,,,,,,,,,,,,,,,,,,,,,,,,,,,,,,,,,,,,,,,,,,,,,,,,,,,,,,,,,,,,,,,,,,,
,,,,,,5f82e997eec0860404c8f790,62bbfb52d74ddac5d85e4ce9,2022-06-29_08h12.28.803,Colour_Asymmetry_Pilot,2022.1.3,MacIntel,59.84082341,62bbe60bf3d75ef465d3e404,0,39,39,108,1,threeone,,,,,,,,,,,,,,,,,,,,,,,,,,,,,,,,,,,,,,,,,,,,,,,,,,,,,,,,,,,,,,,,,,,,,,,,,,,,,,,,,,,,,,,,,,,,,,,,,,,,,,,,,,,,,,,,,,,,,,,,,,,,,,,,,,,,,,,,,,,,,,,,,,,,,,,,
,,,,,,5f82e997eec0860404c8f790,62bbfb52d74ddac5d85e4ce9,2022-06-29_08h12.28.803,Colour_Asymmetry_Pilot,2022.1.3,MacIntel,59.84082341,62bbe60bf3d75ef465d3e404,0,40,40,72,1,onetwo,,,,,,,,,,,,,,,,,,,,,,,,,,,,,,,,,,,,,,,,,,,,,,,,,,,,,,,,,,,,,,,,,,,,,,,,,,,,,,,,,,,,,,,,,,,,,,,,,,,,,,,,,,,,,,,,,,,,,,,,,,,,,,,,,,,,,,,,,,,,,,,,,,,,,,,,
,,,,,,5f82e997eec0860404c8f790,62bbfb52d74ddac5d85e4ce9,2022-06-29_08h12.28.803,Colour_Asymmetry_Pilot,2022.1.3,MacIntel,59.84082341,62bbe60bf3d75ef465d3e404,0,41,41,41,1,onethree,,,,,,,,,,,,,,,,,,,,,,,,,,,,,,,,,,,,,,,,,,,,,,,,,,,,,,,,,,,,,,,,,,,,,,,,,,,,,,,,,,,,,,,,,,,,,,,,,,,,,,,,,,,,,,,,,,,,,,,,,,,,,,,,,,,,,,,,,,,,,,,,,,,,,,,,
,,,,,,5f82e997eec0860404c8f790,62bbfb52d74ddac5d85e4ce9,2022-06-29_08h12.28.803,Colour_Asymmetry_Pilot,2022.1.3,MacIntel,59.84082341,62bbe60bf3d75ef465d3e404,0,42,42,120,1,onetwo,,,,,,,,,,,,,,,,,,,,,,,,,,,,,,,,,,,,,,,,,,,,,,,,,,,,,,,,,,,,,,,,,,,,,,,,,,,,,,,,,,,,,,,,,,,,,,,,,,,,,,,,,,,,,,,,,,,,,,,,,,,,,,,,,,,,,,,,,,,,,,,,,,,,,,,,
,,,,,,5f82e997eec0860404c8f790,62bbfb52d74ddac5d85e4ce9,2022-06-29_08h12.28.803,Colour_Asymmetry_Pilot,2022.1.3,MacIntel,59.84082341,62bbe60bf3d75ef465d3e404,0,43,43,58,1,twoone,,,,,,,,,,,,,,,,,,,,,,,,,,,,,,,,,,,,,,,,,,,,,,,,,,,,,,,,,,,,,,,,,,,,,,,,,,,,,,,,,,,,,,,,,,,,,,,,,,,,,,,,,,,,,,,,,,,,,,,,,,,,,,,,,,,,,,,,,,,,,,,,,,,,,,,,
,,,,,,5f82e997eec0860404c8f790,62bbfb52d74ddac5d85e4ce9,2022-06-29_08h12.28.803,Colour_Asymmetry_Pilot,2022.1.3,MacIntel,59.84082341,62bbe60bf3d75ef465d3e404,0,44,44,130,1,twoone,,,,,,,,,,,,,,,,,,,,,,,,,,,,,,,,,,,,,,,,,,,,,,,,,,,,,,,,,,,,,,,,,,,,,,,,,,,,,,,,,,,,,,,,,,,,,,,,,,,,,,,,,,,,,,,,,,,,,,,,,,,,,,,,,,,,,,,,,,,,,,,,,,,,,,,,
,,,,,,5f82e997eec0860404c8f790,62bbfb52d74ddac5d85e4ce9,2022-06-29_08h12.28.803,Colour_Asymmetry_Pilot,2022.1.3,MacIntel,59.84082341,62bbe60bf3d75ef465d3e404,0,45,45,124,1,threeone,,,,,,,,,,,,,,,,,,,,,,,,,,,,,,,,,,,,,,,,,,,,,,,,,,,,,,,,,,,,,,,,,,,,,,,,,,,,,,,,,,,,,,,,,,,,,,,,,,,,,,,,,,,,,,,,,,,,,,,,,,,,,,,,,,,,,,,,,,,,,,,,,,,,,,,,
,,,,,,5f82e997eec0860404c8f790,62bbfb52d74ddac5d85e4ce9,2022-06-29_08h12.28.803,Colour_Asymmetry_Pilot,2022.1.3,MacIntel,59.84082341,62bbe60bf3d75ef465d3e404,0,46,46,92,1,threeone,,,,,,,,,,,,,,,,,,,,,,,,,,,,,,,,,,,,,,,,,,,,,,,,,,,,,,,,,,,,,,,,,,,,,,,,,,,,,,,,,,,,,,,,,,,,,,,,,,,,,,,,,,,,,,,,,,,,,,,,,,,,,,,,,,,,,,,,,,,,,,,,,,,,,,,,
,,,,,,5f82e997eec0860404c8f790,62bbfb52d74ddac5d85e4ce9,2022-06-29_08h12.28.803,Colour_Asymmetry_Pilot,2022.1.3,MacIntel,59.84082341,62bbe60bf3d75ef465d3e404,0,47,47,39,1,fourthree,,,,,,,,,,,,,,,,,,,,,,,,,,,,,,,,,,,,,,,,,,,,,,,,,,,,,,,,,,,,,,,,,,,,,,,,,,,,,,,,,,,,,,,,,,,,,,,,,,,,,,,,,,,,,,,,,,,,,,,,,,,,,,,,,,,,,,,,,,,,,,,,,,,,,,,,
,,,,,,5f82e997eec0860404c8f790,62bbfb52d74ddac5d85e4ce9,2022-06-29_08h12.28.803,Colour_Asymmetry_Pilot,2022.1.3,MacIntel,59.84082341,62bbe60bf3d75ef465d3e404,0,48,48,15,1,fourthree,,,,,,,,,,,,,,,,,,,,,,,,,,,,,,,,,,,,,,,,,,,,,,,,,,,,,,,,,,,,,,,,,,,,,,,,,,,,,,,,,,,,,,,,,,,,,,,,,,,,,,,,,,,,,,,,,,,,,,,,,,,,,,,,,,,,,,,,,,,,,,,,,,,,,,,,
,,,,,,5f82e997eec0860404c8f790,62bbfb52d74ddac5d85e4ce9,2022-06-29_08h12.28.803,Colour_Asymmetry_Pilot,2022.1.3,MacIntel,59.84082341,62bbe60bf3d75ef465d3e404,0,49,49,47,1,fourthree,,,,,,,,,,,,,,,,,,,,,,,,,,,,,,,,,,,,,,,,,,,,,,,,,,,,,,,,,,,,,,,,,,,,,,,,,,,,,,,,,,,,,,,,,,,,,,,,,,,,,,,,,,,,,,,,,,,,,,,,,,,,,,,,,,,,,,,,,,,,,,,,,,,,,,,,
,,,,,,5f82e997eec0860404c8f790,62bbfb52d74ddac5d85e4ce9,2022-06-29_08h12.28.803,Colour_Asymmetry_Pilot,2022.1.3,MacIntel,59.84082341,62bbe60bf3d75ef465d3e404,0,50,50,86,1,fourtwo,,,,,,,,,,,,,,,,,,,,,,,,,,,,,,,,,,,,,,,,,,,,,,,,,,,,,,,,,,,,,,,,,,,,,,,,,,,,,,,,,,,,,,,,,,,,,,,,,,,,,,,,,,,,,,,,,,,,,,,,,,,,,,,,,,,,,,,,,,,,,,,,,,,,,,,,
,,,,,,5f82e997eec0860404c8f790,62bbfb52d74ddac5d85e4ce9,2022-06-29_08h12.28.803,Colour_Asymmetry_Pilot,2022.1.3,MacIntel,59.84082341,62bbe60bf3d75ef465d3e404,0,51,51,93,1,threefour,,,,,,,,,,,,,,,,,,,,,,,,,,,,,,,,,,,,,,,,,,,,,,,,,,,,,,,,,,,,,,,,,,,,,,,,,,,,,,,,,,,,,,,,,,,,,,,,,,,,,,,,,,,,,,,,,,,,,,,,,,,,,,,,,,,,,,,,,,,,,,,,,,,,,,,,
,,,,,,5f82e997eec0860404c8f790,62bbfb52d74ddac5d85e4ce9,2022-06-29_08h12.28.803,Colour_Asymmetry_Pilot,2022.1.3,MacIntel,59.84082341,62bbe60bf3d75ef465d3e404,0,52,52,116,1,threeone,,,,,,,,,,,,,,,,,,,,,,,,,,,,,,,,,,,,,,,,,,,,,,,,,,,,,,,,,,,,,,,,,,,,,,,,,,,,,,,,,,,,,,,,,,,,,,,,,,,,,,,,,,,,,,,,,,,,,,,,,,,,,,,,,,,,,,,,,,,,,,,,,,,,,,,,
,,,,,,5f82e997eec0860404c8f790,62bbfb52d74ddac5d85e4ce9,2022-06-29_08h12.28.803,Colour_Asymmetry_Pilot,2022.1.3,MacIntel,59.84082341,62bbe60bf3d75ef465d3e404,0,53,53,157,1,threefour,,,,,,,,,,,,,,,,,,,,,,,,,,,,,,,,,,,,,,,,,,,,,,,,,,,,,,,,,,,,,,,,,,,,,,,,,,,,,,,,,,,,,,,,,,,,,,,,,,,,,,,,,,,,,,,,,,,,,,,,,,,,,,,,,,,,,,,,,,,,,,,,,,,,,,,,
,,,,,,5f82e997eec0860404c8f790,62bbfb52d74ddac5d85e4ce9,2022-06-29_08h12.28.803,Colour_Asymmetry_Pilot,2022.1.3,MacIntel,59.84082341,62bbe60bf3d75ef465d3e404,0,54,54,50,1,twoone,,,,,,,,,,,,,,,,,,,,,,,,,,,,,,,,,,,,,,,,,,,,,,,,,,,,,,,,,,,,,,,,,,,,,,,,,,,,,,,,,,,,,,,,,,,,,,,,,,,,,,,,,,,,,,,,,,,,,,,,,,,,,,,,,,,,,,,,,,,,,,,,,,,,,,,,
,,,,,,5f82e997eec0860404c8f790,62bbfb52d74ddac5d85e4ce9,2022-06-29_08h12.28.803,Colour_Asymmetry_Pilot,2022.1.3,MacIntel,59.84082341,62bbe60bf3d75ef465d3e404,0,55,55,102,1,fourtwo,,,,,,,,,,,,,,,,,,,,,,,,,,,,,,,,,,,,,,,,,,,,,,,,,,,,,,,,,,,,,,,,,,,,,,,,,,,,,,,,,,,,,,,,,,,,,,,,,,,,,,,,,,,,,,,,,,,,,,,,,,,,,,,,,,,,,,,,,,,,,,,,,,,,,,,,
,,,,,,5f82e997eec0860404c8f790,62bbfb52d74ddac5d85e4ce9,2022-06-29_08h12.28.803,Colour_Asymmetry_Pilot,2022.1.3,MacIntel,59.84082341,62bbe60bf3d75ef465d3e404,0,56,56,122,1,twoone,,,,,,,,,,,,,,,,,,,,,,,,,,,,,,,,,,,,,,,,,,,,,,,,,,,,,,,,,,,,,,,,,,,,,,,,,,,,,,,,,,,,,,,,,,,,,,,,,,,,,,,,,,,,,,,,,,,,,,,,,,,,,,,,,,,,,,,,,,,,,,,,,,,,,,,,
,,,,,,5f82e997eec0860404c8f790,62bbfb52d74ddac5d85e4ce9,2022-06-29_08h12.28.803,Colour_Asymmetry_Pilot,2022.1.3,MacIntel,59.84082341,62bbe60bf3d75ef465d3e404,0,57,57,40,1,onetwo,,,,,,,,,,,,,,,,,,,,,,,,,,,,,,,,,,,,,,,,,,,,,,,,,,,,,,,,,,,,,,,,,,,,,,,,,,,,,,,,,,,,,,,,,,,,,,,,,,,,,,,,,,,,,,,,,,,,,,,,,,,,,,,,,,,,,,,,,,,,,,,,,,,,,,,,
,,,,,,5f82e997eec0860404c8f790,62bbfb52d74ddac5d85e4ce9,2022-06-29_08h12.28.803,Colour_Asymmetry_Pilot,2022.1.3,MacIntel,59.84082341,62bbe60bf3d75ef465d3e404,0,58,58,155,1,twofour,,,,,,,,,,,,,,,,,,,,,,,,,,,,,,,,,,,,,,,,,,,,,,,,,,,,,,,,,,,,,,,,,,,,,,,,,,,,,,,,,,,,,,,,,,,,,,,,,,,,,,,,,,,,,,,,,,,,,,,,,,,,,,,,,,,,,,,,,,,,,,,,,,,,,,,,
,,,,,,5f82e997eec0860404c8f790,62bbfb52d74ddac5d85e4ce9,2022-06-29_08h12.28.803,Colour_Asymmetry_Pilot,2022.1.3,MacIntel,59.84082341,62bbe60bf3d75ef465d3e404,0,59,59,89,1,onethree,,,,,,,,,,,,,,,,,,,,,,,,,,,,,,,,,,,,,,,,,,,,,,,,,,,,,,,,,,,,,,,,,,,,,,,,,,,,,,,,,,,,,,,,,,,,,,,,,,,,,,,,,,,,,,,,,,,,,,,,,,,,,,,,,,,,,,,,,,,,,,,,,,,,,,,,
,,,,,,5f82e997eec0860404c8f790,62bbfb52d74ddac5d85e4ce9,2022-06-29_08h12.28.803,Colour_Asymmetry_Pilot,2022.1.3,MacIntel,59.84082341,62bbe60bf3d75ef465d3e404,0,60,60,12,1,threeone,,,,,,,,,,,,,,,,,,,,,,,,,,,,,,,,,,,,,,,,,,,,,,,,,,,,,,,,,,,,,,,,,,,,,,,,,,,,,,,,,,,,,,,,,,,,,,,,,,,,,,,,,,,,,,,,,,,,,,,,,,,,,,,,,,,,,,,,,,,,,,,,,,,,,,,,
,,,,,,5f82e997eec0860404c8f790,62bbfb52d74ddac5d85e4ce9,2022-06-29_08h12.28.803,Colour_Asymmetry_Pilot,2022.1.3,MacIntel,59.84082341,62bbe60bf3d75ef465d3e404,0,61,61,156,1,threeone,,,,,,,,,,,,,,,,,,,,,,,,,,,,,,,,,,,,,,,,,,,,,,,,,,,,,,,,,,,,,,,,,,,,,,,,,,,,,,,,,,,,,,,,,,,,,,,,,,,,,,,,,,,,,,,,,,,,,,,,,,,,,,,,,,,,,,,,,,,,,,,,,,,,,,,,
,,,,,,5f82e997eec0860404c8f790,62bbfb52d74ddac5d85e4ce9,2022-06-29_08h12.28.803,Colour_Asymmetry_Pilot,2022.1.3,MacIntel,59.84082341,62bbe60bf3d75ef465d3e404,0,62,62,56,1,onetwo,,,,,,,,,,,,,,,,,,,,,,,,,,,,,,,,,,,,,,,,,,,,,,,,,,,,,,,,,,,,,,,,,,,,,,,,,,,,,,,,,,,,,,,,,,,,,,,,,,,,,,,,,,,,,,,,,,,,,,,,,,,,,,,,,,,,,,,,,,,,,,,,,,,,,,,,
,,,,,,5f82e997eec0860404c8f790,62bbfb52d74ddac5d85e4ce9,2022-06-29_08h12.28.803,Colour_Asymmetry_Pilot,2022.1.3,MacIntel,59.84082341,62bbe60bf3d75ef465d3e404,0,63,63,85,1,threefour,,,,,,,,,,,,,,,,,,,,,,,,,,,,,,,,,,,,,,,,,,,,,,,,,,,,,,,,,,,,,,,,,,,,,,,,,,,,,,,,,,,,,,,,,,,,,,,,,,,,,,,,,,,,,,,,,,,,,,,,,,,,,,,,,,,,,,,,,,,,,,,,,,,,,,,,
,,,,,,5f82e997eec0860404c8f790,62bbfb52d74ddac5d85e4ce9,2022-06-29_08h12.28.803,Colour_Asymmetry_Pilot,2022.1.3,MacIntel,59.84082341,62bbe60bf3d75ef465d3e404,0,64,64,142,1,fourtwo,,,,,,,,,,,,,,,,,,,,,,,,,,,,,,,,,,,,,,,,,,,,,,,,,,,,,,,,,,,,,,,,,,,,,,,,,,,,,,,,,,,,,,,,,,,,,,,,,,,,,,,,,,,,,,,,,,,,,,,,,,,,,,,,,,,,,,,,,,,,,,,,,,,,,,,,
,,,,,,5f82e997eec0860404c8f790,62bbfb52d74ddac5d85e4ce9,2022-06-29_08h12.28.803,Colour_Asymmetry_Pilot,2022.1.3,MacIntel,59.84082341,62bbe60bf3d75ef465d3e404,0,65,65,125,1,threefour,,,,,,,,,,,,,,,,,,,,,,,,,,,,,,,,,,,,,,,,,,,,,,,,,,,,,,,,,,,,,,,,,,,,,,,,,,,,,,,,,,,,,,,,,,,,,,,,,,,,,,,,,,,,,,,,,,,,,,,,,,,,,,,,,,,,,,,,,,,,,,,,,,,,,,,,
,,,,,,5f82e997eec0860404c8f790,62bbfb52d74ddac5d85e4ce9,2022-06-29_08h12.28.803,Colour_Asymmetry_Pilot,2022.1.3,MacIntel,59.84082341,62bbe60bf3d75ef465d3e404,0,66,66,13,1,threefour,,,,,,,,,,,,,,,,,,,,,,,,,,,,,,,,,,,,,,,,,,,,,,,,,,,,,,,,,,,,,,,,,,,,,,,,,,,,,,,,,,,,,,,,,,,,,,,,,,,,,,,,,,,,,,,,,,,,,,,,,,,,,,,,,,,,,,,,,,,,,,,,,,,,,,,,
,,,,,,5f82e997eec0860404c8f790,62bbfb52d74ddac5d85e4ce9,2022-06-29_08h12.28.803,Colour_Asymmetry_Pilot,2022.1.3,MacIntel,59.84082341,62bbe60bf3d75ef465d3e404,0,67,67,151,1,fourthree,,,,,,,,,,,,,,,,,,,,,,,,,,,,,,,,,,,,,,,,,,,,,,,,,,,,,,,,,,,,,,,,,,,,,,,,,,,,,,,,,,,,,,,,,,,,,,,,,,,,,,,,,,,,,,,,,,,,,,,,,,,,,,,,,,,,,,,,,,,,,,,,,,,,,,,,
,,,,,,5f82e997eec0860404c8f790,62bbfb52d74ddac5d85e4ce9,2022-06-29_08h12.28.803,Colour_Asymmetry_Pilot,2022.1.3,MacIntel,59.84082341,62bbe60bf3d75ef465d3e404,0,68,68,101,1,threefour,,,,,,,,,,,,,,,,,,,,,,,,,,,,,,,,,,,,,,,,,,,,,,,,,,,,,,,,,,,,,,,,,,,,,,,,,,,,,,,,,,,,,,,,,,,,,,,,,,,,,,,,,,,,,,,,,,,,,,,,,,,,,,,,,,,,,,,,,,,,,,,,,,,,,,,,
,,,,,,5f82e997eec0860404c8f790,62bbfb52d74ddac5d85e4ce9,2022-06-29_08h12.28.803,Colour_Asymmetry_Pilot,2022.1.3,MacIntel,59.84082341,62bbe60bf3d75ef465d3e404,0,69,69,65,1,onethree,,,,,,,,,,,,,,,,,,,,,,,,,,,,,,,,,,,,,,,,,,,,,,,,,,,,,,,,,,,,,,,,,,,,,,,,,,,,,,,,,,,,,,,,,,,,,,,,,,,,,,,,,,,,,,,,,,,,,,,,,,,,,,,,,,,,,,,,,,,,,,,,,,,,,,,,
,,,,,,5f82e997eec0860404c8f790,62bbfb52d74ddac5d85e4ce9,2022-06-29_08h12.28.803,Colour_Asymmetry_Pilot,2022.1.3,MacIntel,59.84082341,62bbe60bf3d75ef465d3e404,0,70,70,42,1,twoone,,,,,,,,,,,,,,,,,,,,,,,,,,,,,,,,,,,,,,,,,,,,,,,,,,,,,,,,,,,,,,,,,,,,,,,,,,,,,,,,,,,,,,,,,,,,,,,,,,,,,,,,,,,,,,,,,,,,,,,,,,,,,,,,,,,,,,,,,,,,,,,,,,,,,,,,
,,,,,,5f82e997eec0860404c8f790,62bbfb52d74ddac5d85e4ce9,2022-06-29_08h12.28.803,Colour_Asymmetry_Pilot,2022.1.3,MacIntel,59.84082341,62bbe60bf3d75ef465d3e404,0,71,71,83,1,twofour,,,,,,,,,,,,,,,,,,,,,,,,,,,,,,,,,,,,,,,,,,,,,,,,,,,,,,,,,,,,,,,,,,,,,,,,,,,,,,,,,,,,,,,,,,,,,,,,,,,,,,,,,,,,,,,,,,,,,,,,,,,,,,,,,,,,,,,,,,,,,,,,,,,,,,,,
,,,,,,5f82e997eec0860404c8f790,62bbfb52d74ddac5d85e4ce9,2022-06-29_08h12.28.803,Colour_Asymmetry_Pilot,2022.1.3,MacIntel,59.84082341,62bbe60bf3d75ef465d3e404,0,72,72,6,1,fourtwo,,,,,,,,,,,,,,,,,,,,,,,,,,,,,,,,,,,,,,,,,,,,,,,,,,,,,,,,,,,,,,,,,,,,,,,,,,,,,,,,,,,,,,,,,,,,,,,,,,,,,,,,,,,,,,,,,,,,,,,,,,,,,,,,,,,,,,,,,,,,,,,,,,,,,,,,
,,,,,,5f82e997eec0860404c8f790,62bbfb52d74ddac5d85e4ce9,2022-06-29_08h12.28.803,Colour_Asymmetry_Pilot,2022.1.3,MacIntel,59.84082341,62bbe60bf3d75ef465d3e404,0,73,73,159,1,fourthree,,,,,,,,,,,,,,,,,,,,,,,,,,,,,,,,,,,,,,,,,,,,,,,,,,,,,,,,,,,,,,,,,,,,,,,,,,,,,,,,,,,,,,,,,,,,,,,,,,,,,,,,,,,,,,,,,,,,,,,,,,,,,,,,,,,,,,,,,,,,,,,,,,,,,,,,
,,,,,,5f82e997eec0860404c8f790,62bbfb52d74ddac5d85e4ce9,2022-06-29_08h12.28.803,Colour_Asymmetry_Pilot,2022.1.3,MacIntel,59.84082341,62bbe60bf3d75ef465d3e404,0,74,74,16,1,onetwo,,,,,,,,,,,,,,,,,,,,,,,,,,,,,,,,,,,,,,,,,,,,,,,,,,,,,,,,,,,,,,,,,,,,,,,,,,,,,,,,,,,,,,,,,,,,,,,,,,,,,,,,,,,,,,,,,,,,,,,,,,,,,,,,,,,,,,,,,,,,,,,,,,,,,,,,
,,,,,,5f82e997eec0860404c8f790,62bbfb52d74ddac5d85e4ce9,2022-06-29_08h12.28.803,Colour_Asymmetry_Pilot,2022.1.3,MacIntel,59.84082341,62bbe60bf3d75ef465d3e404,0,75,75,119,1,fourthree,,,,,,,,,,,,,,,,,,,,,,,,,,,,,,,,,,,,,,,,,,,,,,,,,,,,,,,,,,,,,,,,,,,,,,,,,,,,,,,,,,,,,,,,,,,,,,,,,,,,,,,,,,,,,,,,,,,,,,,,,,,,,,,,,,,,,,,,,,,,,,,,,,,,,,,,
,,,,,,5f82e997eec0860404c8f790,62bbfb52d74ddac5d85e4ce9,2022-06-29_08h12.28.803,Colour_Asymmetry_Pilot,2022.1.3,MacIntel,59.84082341,62bbe60bf3d75ef465d3e404,0,76,76,115,1,twofour,,,,,,,,,,,,,,,,,,,,,,,,,,,,,,,,,,,,,,,,,,,,,,,,,,,,,,,,,,,,,,,,,,,,,,,,,,,,,,,,,,,,,,,,,,,,,,,,,,,,,,,,,,,,,,,,,,,,,,,,,,,,,,,,,,,,,,,,,,,,,,,,,,,,,,,,
,,,,,,5f82e997eec0860404c8f790,62bbfb52d74ddac5d85e4ce9,2022-06-29_08h12.28.803,Colour_Asymmetry_Pilot,2022.1.3,MacIntel,59.84082341,62bbe60bf3d75ef465d3e404,0,77,77,55,1,fourthree,,,,,,,,,,,,,,,,,,,,,,,,,,,,,,,,,,,,,,,,,,,,,,,,,,,,,,,,,,,,,,,,,,,,,,,,,,,,,,,,,,,,,,,,,,,,,,,,,,,,,,,,,,,,,,,,,,,,,,,,,,,,,,,,,,,,,,,,,,,,,,,,,,,,,,,,
,,,,,,5f82e997eec0860404c8f790,62bbfb52d74ddac5d85e4ce9,2022-06-29_08h12.28.803,Colour_Asymmetry_Pilot,2022.1.3,MacIntel,59.84082341,62bbe60bf3d75ef465d3e404,0,78,78,127,1,fourthree,,,,,,,,,,,,,,,,,,,,,,,,,,,,,,,,,,,,,,,,,,,,,,,,,,,,,,,,,,,,,,,,,,,,,,,,,,,,,,,,,,,,,,,,,,,,,,,,,,,,,,,,,,,,,,,,,,,,,,,,,,,,,,,,,,,,,,,,,,,,,,,,,,,,,,,,
,,,,,,5f82e997eec0860404c8f790,62bbfb52d74ddac5d85e4ce9,2022-06-29_08h12.28.803,Colour_Asymmetry_Pilot,2022.1.3,MacIntel,59.84082341,62bbe60bf3d75ef465d3e404,0,79,79,0,1,onetwo,,,,,,,,,,,,,,,,,,,,,,,,,,,,,,,,,,,,,,,,,,,,,,,,,,,,,,,,,,,,,,,,,,,,,,,,,,,,,,,,,,,,,,,,,,,,,,,,,,,,,,,,,,,,,,,,,,,,,,,,,,,,,,,,,,,,,,,,,,,,,,,,,,,,,,,,
,,,,,,5f82e997eec0860404c8f790,62bbfb52d74ddac5d85e4ce9,2022-06-29_08h12.28.803,Colour_Asymmetry_Pilot,2022.1.3,MacIntel,59.84082341,62bbe60bf3d75ef465d3e404,0,80,80,68,1,threeone,,,,,,,,,,,,,,,,,,,,,,,,,,,,,,,,,,,,,,,,,,,,,,,,,,,,,,,,,,,,,,,,,,,,,,,,,,,,,,,,,,,,,,,,,,,,,,,,,,,,,,,,,,,,,,,,,,,,,,,,,,,,,,,,,,,,,,,,,,,,,,,,,,,,,,,,
,,,,,,5f82e997eec0860404c8f790,62bbfb52d74ddac5d85e4ce9,2022-06-29_08h12.28.803,Colour_Asymmetry_Pilot,2022.1.3,MacIntel,59.84082341,62bbe60bf3d75ef465d3e404,0,81,81,154,1,twoone,,,,,,,,,,,,,,,,,,,,,,,,,,,,,,,,,,,,,,,,,,,,,,,,,,,,,,,,,,,,,,,,,,,,,,,,,,,,,,,,,,,,,,,,,,,,,,,,,,,,,,,,,,,,,,,,,,,,,,,,,,,,,,,,,,,,,,,,,,,,,,,,,,,,,,,,
,,,,,,5f82e997eec0860404c8f790,62bbfb52d74ddac5d85e4ce9,2022-06-29_08h12.28.803,Colour_Asymmetry_Pilot,2022.1.3,MacIntel,59.84082341,62bbe60bf3d75ef465d3e404,0,82,82,48,1,onetwo,,,,,,,,,,,,,,,,,,,,,,,,,,,,,,,,,,,,,,,,,,,,,,,,,,,,,,,,,,,,,,,,,,,,,,,,,,,,,,,,,,,,,,,,,,,,,,,,,,,,,,,,,,,,,,,,,,,,,,,,,,,,,,,,,,,,,,,,,,,,,,,,,,,,,,,,
,,,,,,5f82e997eec0860404c8f790,62bbfb52d74ddac5d85e4ce9,2022-06-29_08h12.28.803,Colour_Asymmetry_Pilot,2022.1.3,MacIntel,59.84082341,62bbe60bf3d75ef465d3e404,0,83,83,26,1,twoone,,,,,,,,,,,,,,,,,,,,,,,,,,,,,,,,,,,,,,,,,,,,,,,,,,,,,,,,,,,,,,,,,,,,,,,,,,,,,,,,,,,,,,,,,,,,,,,,,,,,,,,,,,,,,,,,,,,,,,,,,,,,,,,,,,,,,,,,,,,,,,,,,,,,,,,,
,,,,,,5f82e997eec0860404c8f790,62bbfb52d74ddac5d85e4ce9,2022-06-29_08h12.28.803,Colour_Asymmetry_Pilot,2022.1.3,MacIntel,59.84082341,62bbe60bf3d75ef465d3e404,0,84,84,1,1,onethree,,,,,,,,,,,,,,,,,,,,,,,,,,,,,,,,,,,,,,,,,,,,,,,,,,,,,,,,,,,,,,,,,,,,,,,,,,,,,,,,,,,,,,,,,,,,,,,,,,,,,,,,,,,,,,,,,,,,,,,,,,,,,,,,,,,,,,,,,,,,,,,,,,,,,,,,
,,,,,,5f82e997eec0860404c8f790,62bbfb52d74ddac5d85e4ce9,2022-06-29_08h12.28.803,Colour_Asymmetry_Pilot,2022.1.3,MacIntel,59.84082341,62bbe60bf3d75ef465d3e404,0,85,85,112,1,onetwo,,,,,,,,,,,,,,,,,,,,,,,,,,,,,,,,,,,,,,,,,,,,,,,,,,,,,,,,,,,,,,,,,,,,,,,,,,,,,,,,,,,,,,,,,,,,,,,,,,,,,,,,,,,,,,,,,,,,,,,,,,,,,,,,,,,,,,,,,,,,,,,,,,,,,,,,
,,,,,,5f82e997eec0860404c8f790,62bbfb52d74ddac5d85e4ce9,2022-06-29_08h12.28.803,Colour_Asymmetry_Pilot,2022.1.3,MacIntel,59.84082341,62bbe60bf3d75ef465d3e404,0,86,86,63,1,fourthree,,,,,,,,,,,,,,,,,,,,,,,,,,,,,,,,,,,,,,,,,,,,,,,,,,,,,,,,,,,,,,,,,,,,,,,,,,,,,,,,,,,,,,,,,,,,,,,,,,,,,,,,,,,,,,,,,,,,,,,,,,,,,,,,,,,,,,,,,,,,,,,,,,,,,,,,
,,,,,,5f82e997eec0860404c8f790,62bbfb52d74ddac5d85e4ce9,2022-06-29_08h12.28.803,Colour_Asymmetry_Pilot,2022.1.3,MacIntel,59.84082341,62bbe60bf3d75ef465d3e404,0,87,87,66,1,twoone,,,,,,,,,,,,,,,,,,,,,,,,,,,,,,,,,,,,,,,,,,,,,,,,,,,,,,,,,,,,,,,,,,,,,,,,,,,,,,,,,,,,,,,,,,,,,,,,,,,,,,,,,,,,,,,,,,,,,,,,,,,,,,,,,,,,,,,,,,,,,,,,,,,,,,,,
,,,,,,5f82e997eec0860404c8f790,62bbfb52d74ddac5d85e4ce9,2022-06-29_08h12.28.803,Colour_Asymmetry_Pilot,2022.1.3,MacIntel,59.84082341,62bbe60bf3d75ef465d3e404,0,88,88,57,1,onethree,,,,,,,,,,,,,,,,,,,,,,,,,,,,,,,,,,,,,,,,,,,,,,,,,,,,,,,,,,,,,,,,,,,,,,,,,,,,,,,,,,,,,,,,,,,,,,,,,,,,,,,,,,,,,,,,,,,,,,,,,,,,,,,,,,,,,,,,,,,,,,,,,,,,,,,,
,,,,,,5f82e997eec0860404c8f790,62bbfb52d74ddac5d85e4ce9,2022-06-29_08h12.28.803,Colour_Asymmetry_Pilot,2022.1.3,MacIntel,59.84082341,62bbe60bf3d75ef465d3e404,0,89,89,88,1,onetwo,,,,,,,,,,,,,,,,,,,,,,,,,,,,,,,,,,,,,,,,,,,,,,,,,,,,,,,,,,,,,,,,,,,,,,,,,,,,,,,,,,,,,,,,,,,,,,,,,,,,,,,,,,,,,,,,,,,,,,,,,,,,,,,,,,,,,,,,,,,,,,,,,,,,,,,,
,,,,,,5f82e997eec0860404c8f790,62bbfb52d74ddac5d85e4ce9,2022-06-29_08h12.28.803,Colour_Asymmetry_Pilot,2022.1.3,MacIntel,59.84082341,62bbe60bf3d75ef465d3e404,0,90,90,35,1,twofour,,,,,,,,,,,,,,,,,,,,,,,,,,,,,,,,,,,,,,,,,,,,,,,,,,,,,,,,,,,,,,,,,,,,,,,,,,,,,,,,,,,,,,,,,,,,,,,,,,,,,,,,,,,,,,,,,,,,,,,,,,,,,,,,,,,,,,,,,,,,,,,,,,,,,,,,
,,,,,,5f82e997eec0860404c8f790,62bbfb52d74ddac5d85e4ce9,2022-06-29_08h12.28.803,Colour_Asymmetry_Pilot,2022.1.3,MacIntel,59.84082341,62bbe60bf3d75ef465d3e404,0,91,91,62,1,fourtwo,,,,,,,,,,,,,,,,,,,,,,,,,,,,,,,,,,,,,,,,,,,,,,,,,,,,,,,,,,,,,,,,,,,,,,,,,,,,,,,,,,,,,,,,,,,,,,,,,,,,,,,,,,,,,,,,,,,,,,,,,,,,,,,,,,,,,,,,,,,,,,,,,,,,,,,,
,,,,,,5f82e997eec0860404c8f790,62bbfb52d74ddac5d85e4ce9,2022-06-29_08h12.28.803,Colour_Asymmetry_Pilot,2022.1.3,MacIntel,59.84082341,62bbe60bf3d75ef465d3e404,0,92,92,132,1,threeone,,,,,,,,,,,,,,,,,,,,,,,,,,,,,,,,,,,,,,,,,,,,,,,,,,,,,,,,,,,,,,,,,,,,,,,,,,,,,,,,,,,,,,,,,,,,,,,,,,,,,,,,,,,,,,,,,,,,,,,,,,,,,,,,,,,,,,,,,,,,,,,,,,,,,,,,
,,,,,,5f82e997eec0860404c8f790,62bbfb52d74ddac5d85e4ce9,2022-06-29_08h12.28.803,Colour_Asymmetry_Pilot,2022.1.3,MacIntel,59.84082341,62bbe60bf3d75ef465d3e404,0,93,93,33,1,onethree,,,,,,,,,,,,,,,,,,,,,,,,,,,,,,,,,,,,,,,,,,,,,,,,,,,,,,,,,,,,,,,,,,,,,,,,,,,,,,,,,,,,,,,,,,,,,,,,,,,,,,,,,,,,,,,,,,,,,,,,,,,,,,,,,,,,,,,,,,,,,,,,,,,,,,,,
,,,,,,5f82e997eec0860404c8f790,62bbfb52d74ddac5d85e4ce9,2022-06-29_08h12.28.803,Colour_Asymmetry_Pilot,2022.1.3,MacIntel,59.84082341,62bbe60bf3d75ef465d3e404,0,94,94,131,1,twofour,,,,,,,,,,,,,,,,,,,,,,,,,,,,,,,,,,,,,,,,,,,,,,,,,,,,,,,,,,,,,,,,,,,,,,,,,,,,,,,,,,,,,,,,,,,,,,,,,,,,,,,,,,,,,,,,,,,,,,,,,,,,,,,,,,,,,,,,,,,,,,,,,,,,,,,,
,,,,,,5f82e997eec0860404c8f790,62bbfb52d74ddac5d85e4ce9,2022-06-29_08h12.28.803,Colour_Asymmetry_Pilot,2022.1.3,MacIntel,59.84082341,62bbe60bf3d75ef465d3e404,0,95,95,77,1,threefour,,,,,,,,,,,,,,,,,,,,,,,,,,,,,,,,,,,,,,,,,,,,,,,,,,,,,,,,,,,,,,,,,,,,,,,,,,,,,,,,,,,,,,,,,,,,,,,,,,,,,,,,,,,,,,,,,,,,,,,,,,,,,,,,,,,,,,,,,,,,,,,,,,,,,,,,
,,,,,,5f82e997eec0860404c8f790,62bbfb52d74ddac5d85e4ce9,2022-06-29_08h12.28.803,Colour_Asymmetry_Pilot,2022.1.3,MacIntel,59.84082341,62bbe60bf3d75ef465d3e404,0,96,96,27,1,twofour,,,,,,,,,,,,,,,,,,,,,,,,,,,,,,,,,,,,,,,,,,,,,,,,,,,,,,,,,,,,,,,,,,,,,,,,,,,,,,,,,,,,,,,,,,,,,,,,,,,,,,,,,,,,,,,,,,,,,,,,,,,,,,,,,,,,,,,,,,,,,,,,,,,,,,,,
,,,,,,5f82e997eec0860404c8f790,62bbfb52d74ddac5d85e4ce9,2022-06-29_08h12.28.803,Colour_Asymmetry_Pilot,2022.1.3,MacIntel,59.84082341,62bbe60bf3d75ef465d3e404,0,97,97,79,1,fourthree,,,,,,,,,,,,,,,,,,,,,,,,,,,,,,,,,,,,,,,,,,,,,,,,,,,,,,,,,,,,,,,,,,,,,,,,,,,,,,,,,,,,,,,,,,,,,,,,,,,,,,,,,,,,,,,,,,,,,,,,,,,,,,,,,,,,,,,,,,,,,,,,,,,,,,,,
,,,,,,5f82e997eec0860404c8f790,62bbfb52d74ddac5d85e4ce9,2022-06-29_08h12.28.803,Colour_Asymmetry_Pilot,2022.1.3,MacIntel,59.84082341,62bbe60bf3d75ef465d3e404,0,98,98,107,1,twofour,,,,,,,,,,,,,,,,,,,,,,,,,,,,,,,,,,,,,,,,,,,,,,,,,,,,,,,,,,,,,,,,,,,,,,,,,,,,,,,,,,,,,,,,,,,,,,,,,,,,,,,,,,,,,,,,,,,,,,,,,,,,,,,,,,,,,,,,,,,,,,,,,,,,,,,,
,,,,,,5f82e997eec0860404c8f790,62bbfb52d74ddac5d85e4ce9,2022-06-29_08h12.28.803,Colour_Asymmetry_Pilot,2022.1.3,MacIntel,59.84082341,62bbe60bf3d75ef465d3e404,0,99,99,153,1,onethree,,,,,,,,,,,,,,,,,,,,,,,,,,,,,,,,,,,,,,,,,,,,,,,,,,,,,,,,,,,,,,,,,,,,,,,,,,,,,,,,,,,,,,,,,,,,,,,,,,,,,,,,,,,,,,,,,,,,,,,,,,,,,,,,,,,,,,,,,,,,,,,,,,,,,,,,
,,,,,,5f82e997eec0860404c8f790,62bbfb52d74ddac5d85e4ce9,2022-06-29_08h12.28.803,Colour_Asymmetry_Pilot,2022.1.3,MacIntel,59.84082341,62bbe60bf3d75ef465d3e404,0,100,100,52,1,threeone,,,,,,,,,,,,,,,,,,,,,,,,,,,,,,,,,,,,,,,,,,,,,,,,,,,,,,,,,,,,,,,,,,,,,,,,,,,,,,,,,,,,,,,,,,,,,,,,,,,,,,,,,,,,,,,,,,,,,,,,,,,,,,,,,,,,,,,,,,,,,,,,,,,,,,,,
,,,,,,5f82e997eec0860404c8f790,62bbfb52d74ddac5d85e4ce9,2022-06-29_08h12.28.803,Colour_Asymmetry_Pilot,2022.1.3,MacIntel,59.84082341,62bbe60bf3d75ef465d3e404,0,101,101,87,1,fourthree,,,,,,,,,,,,,,,,,,,,,,,,,,,,,,,,,,,,,,,,,,,,,,,,,,,,,,,,,,,,,,,,,,,,,,,,,,,,,,,,,,,,,,,,,,,,,,,,,,,,,,,,,,,,,,,,,,,,,,,,,,,,,,,,,,,,,,,,,,,,,,,,,,,,,,,,
,,,,,,5f82e997eec0860404c8f790,62bbfb52d74ddac5d85e4ce9,2022-06-29_08h12.28.803,Colour_Asymmetry_Pilot,2022.1.3,MacIntel,59.84082341,62bbe60bf3d75ef465d3e404,0,102,102,30,1,fourtwo,,,,,,,,,,,,,,,,,,,,,,,,,,,,,,,,,,,,,,,,,,,,,,,,,,,,,,,,,,,,,,,,,,,,,,,,,,,,,,,,,,,,,,,,,,,,,,,,,,,,,,,,,,,,,,,,,,,,,,,,,,,,,,,,,,,,,,,,,,,,,,,,,,,,,,,,
,,,,,,5f82e997eec0860404c8f790,62bbfb52d74ddac5d85e4ce9,2022-06-29_08h12.28.803,Colour_Asymmetry_Pilot,2022.1.3,MacIntel,59.84082341,62bbe60bf3d75ef465d3e404,0,103,103,148,1,threeone,,,,,,,,,,,,,,,,,,,,,,,,,,,,,,,,,,,,,,,,,,,,,,,,,,,,,,,,,,,,,,,,,,,,,,,,,,,,,,,,,,,,,,,,,,,,,,,,,,,,,,,,,,,,,,,,,,,,,,,,,,,,,,,,,,,,,,,,,,,,,,,,,,,,,,,,
,,,,,,5f82e997eec0860404c8f790,62bbfb52d74ddac5d85e4ce9,2022-06-29_08h12.28.803,Colour_Asymmetry_Pilot,2022.1.3,MacIntel,59.84082341,62bbe60bf3d75ef465d3e404,0,104,104,76,1,threeone,,,,,,,,,,,,,,,,,,,,,,,,,,,,,,,,,,,,,,,,,,,,,,,,,,,,,,,,,,,,,,,,,,,,,,,,,,,,,,,,,,,,,,,,,,,,,,,,,,,,,,,,,,,,,,,,,,,,,,,,,,,,,,,,,,,,,,,,,,,,,,,,,,,,,,,,
,,,,,,5f82e997eec0860404c8f790,62bbfb52d74ddac5d85e4ce9,2022-06-29_08h12.28.803,Colour_Asymmetry_Pilot,2022.1.3,MacIntel,59.84082341,62bbe60bf3d75ef465d3e404,0,105,105,37,1,threefour,,,,,,,,,,,,,,,,,,,,,,,,,,,,,,,,,,,,,,,,,,,,,,,,,,,,,,,,,,,,,,,,,,,,,,,,,,,,,,,,,,,,,,,,,,,,,,,,,,,,,,,,,,,,,,,,,,,,,,,,,,,,,,,,,,,,,,,,,,,,,,,,,,,,,,,,
,,,,,,5f82e997eec0860404c8f790,62bbfb52d74ddac5d85e4ce9,2022-06-29_08h12.28.803,Colour_Asymmetry_Pilot,2022.1.3,MacIntel,59.84082341,62bbe60bf3d75ef465d3e404,0,106,106,149,1,threefour,,,,,,,,,,,,,,,,,,,,,,,,,,,,,,,,,,,,,,,,,,,,,,,,,,,,,,,,,,,,,,,,,,,,,,,,,,,,,,,,,,,,,,,,,,,,,,,,,,,,,,,,,,,,,,,,,,,,,,,,,,,,,,,,,,,,,,,,,,,,,,,,,,,,,,,,
,,,,,,5f82e997eec0860404c8f790,62bbfb52d74ddac5d85e4ce9,2022-06-29_08h12.28.803,Colour_Asymmetry_Pilot,2022.1.3,MacIntel,59.84082341,62bbe60bf3d75ef465d3e404,0,107,107,147,1,twofour,,,,,,,,,,,,,,,,,,,,,,,,,,,,,,,,,,,,,,,,,,,,,,,,,,,,,,,,,,,,,,,,,,,,,,,,,,,,,,,,,,,,,,,,,,,,,,,,,,,,,,,,,,,,,,,,,,,,,,,,,,,,,,,,,,,,,,,,,,,,,,,,,,,,,,,,
,,,,,,5f82e997eec0860404c8f790,62bbfb52d74ddac5d85e4ce9,2022-06-29_08h12.28.803,Colour_Asymmetry_Pilot,2022.1.3,MacIntel,59.84082341,62bbe60bf3d75ef465d3e404,0,108,108,2,1,twoone,,,,,,,,,,,,,,,,,,,,,,,,,,,,,,,,,,,,,,,,,,,,,,,,,,,,,,,,,,,,,,,,,,,,,,,,,,,,,,,,,,,,,,,,,,,,,,,,,,,,,,,,,,,,,,,,,,,,,,,,,,,,,,,,,,,,,,,,,,,,,,,,,,,,,,,,
,,,,,,5f82e997eec0860404c8f790,62bbfb52d74ddac5d85e4ce9,2022-06-29_08h12.28.803,Colour_Asymmetry_Pilot,2022.1.3,MacIntel,59.84082341,62bbe60bf3d75ef465d3e404,0,109,109,140,1,threeone,,,,,,,,,,,,,,,,,,,,,,,,,,,,,,,,,,,,,,,,,,,,,,,,,,,,,,,,,,,,,,,,,,,,,,,,,,,,,,,,,,,,,,,,,,,,,,,,,,,,,,,,,,,,,,,,,,,,,,,,,,,,,,,,,,,,,,,,,,,,,,,,,,,,,,,,
,,,,,,5f82e997eec0860404c8f790,62bbfb52d74ddac5d85e4ce9,2022-06-29_08h12.28.803,Colour_Asymmetry_Pilot,2022.1.3,MacIntel,59.84082341,62bbe60bf3d75ef465d3e404,0,110,110,67,1,twofour,,,,,,,,,,,,,,,,,,,,,,,,,,,,,,,,,,,,,,,,,,,,,,,,,,,,,,,,,,,,,,,,,,,,,,,,,,,,,,,,,,,,,,,,,,,,,,,,,,,,,,,,,,,,,,,,,,,,,,,,,,,,,,,,,,,,,,,,,,,,,,,,,,,,,,,,
,,,,,,5f82e997eec0860404c8f790,62bbfb52d74ddac5d85e4ce9,2022-06-29_08h12.28.803,Colour_Asymmetry_Pilot,2022.1.3,MacIntel,59.84082341,62bbe60bf3d75ef465d3e404,0,111,111,161,1,onethree,,,,,,,,,,,,,,,,,,,,,,,,,,,,,,,,,,,,,,,,,,,,,,,,,,,,,,,,,,,,,,,,,,,,,,,,,,,,,,,,,,,,,,,,,,,,,,,,,,,,,,,,,,,,,,,,,,,,,,,,,,,,,,,,,,,,,,,,,,,,,,,,,,,,,,,,
,,,,,,5f82e997eec0860404c8f790,62bbfb52d74ddac5d85e4ce9,2022-06-29_08h12.28.803,Colour_Asymmetry_Pilot,2022.1.3,MacIntel,59.84082341,62bbe60bf3d75ef465d3e404,0,112,112,123,1,twofour,,,,,,,,,,,,,,,,,,,,,,,,,,,,,,,,,,,,,,,,,,,,,,,,,,,,,,,,,,,,,,,,,,,,,,,,,,,,,,,,,,,,,,,,,,,,,,,,,,,,,,,,,,,,,,,,,,,,,,,,,,,,,,,,,,,,,,,,,,,,,,,,,,,,,,,,
,,,,,,5f82e997eec0860404c8f790,62bbfb52d74ddac5d85e4ce9,2022-06-29_08h12.28.803,Colour_Asymmetry_Pilot,2022.1.3,MacIntel,59.84082341,62bbe60bf3d75ef465d3e404,0,113,113,84,1,threeone,,,,,,,,,,,,,,,,,,,,,,,,,,,,,,,,,,,,,,,,,,,,,,,,,,,,,,,,,,,,,,,,,,,,,,,,,,,,,,,,,,,,,,,,,,,,,,,,,,,,,,,,,,,,,,,,,,,,,,,,,,,,,,,,,,,,,,,,,,,,,,,,,,,,,,,,
,,,,,,5f82e997eec0860404c8f790,62bbfb52d74ddac5d85e4ce9,2022-06-29_08h12.28.803,Colour_Asymmetry_Pilot,2022.1.3,MacIntel,59.84082341,62bbe60bf3d75ef465d3e404,0,114,114,94,1,fourtwo,,,,,,,,,,,,,,,,,,,,,,,,,,,,,,,,,,,,,,,,,,,,,,,,,,,,,,,,,,,,,,,,,,,,,,,,,,,,,,,,,,,,,,,,,,,,,,,,,,,,,,,,,,,,,,,,,,,,,,,,,,,,,,,,,,,,,,,,,,,,,,,,,,,,,,,,
,,,,,,5f82e997eec0860404c8f790,62bbfb52d74ddac5d85e4ce9,2022-06-29_08h12.28.803,Colour_Asymmetry_Pilot,2022.1.3,MacIntel,59.84082341,62bbe60bf3d75ef465d3e404,0,115,115,150,1,fourtwo,,,,,,,,,,,,,,,,,,,,,,,,,,,,,,,,,,,,,,,,,,,,,,,,,,,,,,,,,,,,,,,,,,,,,,,,,,,,,,,,,,,,,,,,,,,,,,,,,,,,,,,,,,,,,,,,,,,,,,,,,,,,,,,,,,,,,,,,,,,,,,,,,,,,,,,,
,,,,,,5f82e997eec0860404c8f790,62bbfb52d74ddac5d85e4ce9,2022-06-29_08h12.28.803,Colour_Asymmetry_Pilot,2022.1.3,MacIntel,59.84082341,62bbe60bf3d75ef465d3e404,0,116,116,103,1,fourthree,,,,,,,,,,,,,,,,,,,,,,,,,,,,,,,,,,,,,,,,,,,,,,,,,,,,,,,,,,,,,,,,,,,,,,,,,,,,,,,,,,,,,,,,,,,,,,,,,,,,,,,,,,,,,,,,,,,,,,,,,,,,,,,,,,,,,,,,,,,,,,,,,,,,,,,,
,,,,,,5f82e997eec0860404c8f790,62bbfb52d74ddac5d85e4ce9,2022-06-29_08h12.28.803,Colour_Asymmetry_Pilot,2022.1.3,MacIntel,59.84082341,62bbe60bf3d75ef465d3e404,0,117,117,69,1,threefour,,,,,,,,,,,,,,,,,,,,,,,,,,,,,,,,,,,,,,,,,,,,,,,,,,,,,,,,,,,,,,,,,,,,,,,,,,,,,,,,,,,,,,,,,,,,,,,,,,,,,,,,,,,,,,,,,,,,,,,,,,,,,,,,,,,,,,,,,,,,,,,,,,,,,,,,
,,,,,,5f82e997eec0860404c8f790,62bbfb52d74ddac5d85e4ce9,2022-06-29_08h12.28.803,Colour_Asymmetry_Pilot,2022.1.3,MacIntel,59.84082341,62bbe60bf3d75ef465d3e404,0,118,118,73,1,onethree,,,,,,,,,,,,,,,,,,,,,,,,,,,,,,,,,,,,,,,,,,,,,,,,,,,,,,,,,,,,,,,,,,,,,,,,,,,,,,,,,,,,,,,,,,,,,,,,,,,,,,,,,,,,,,,,,,,,,,,,,,,,,,,,,,,,,,,,,,,,,,,,,,,,,,,,
,,,,,,5f82e997eec0860404c8f790,62bbfb52d74ddac5d85e4ce9,2022-06-29_08h12.28.803,Colour_Asymmetry_Pilot,2022.1.3,MacIntel,59.84082341,62bbe60bf3d75ef465d3e404,0,119,119,143,1,fourthree,,,,,,,,,,,,,,,,,,,,,,,,,,,,,,,,,,,,,,,,,,,,,,,,,,,,,,,,,,,,,,,,,,,,,,,,,,,,,,,,,,,,,,,,,,,,,,,,,,,,,,,,,,,,,,,,,,,,,,,,,,,,,,,,,,,,,,,,,,,,,,,,,,,,,,,,
,,,,,,5f82e997eec0860404c8f790,62bbfb52d74ddac5d85e4ce9,2022-06-29_08h12.28.803,Colour_Asymmetry_Pilot,2022.1.3,MacIntel,59.84082341,62bbe60bf3d75ef465d3e404,0,120,120,133,1,threefour,,,,,,,,,,,,,,,,,,,,,,,,,,,,,,,,,,,,,,,,,,,,,,,,,,,,,,,,,,,,,,,,,,,,,,,,,,,,,,,,,,,,,,,,,,,,,,,,,,,,,,,,,,,,,,,,,,,,,,,,,,,,,,,,,,,,,,,,,,,,,,,,,,,,,,,,
,,,,,,5f82e997eec0860404c8f790,62bbfb52d74ddac5d85e4ce9,2022-06-29_08h12.28.803,Colour_Asymmetry_Pilot,2022.1.3,MacIntel,59.84082341,62bbe60bf3d75ef465d3e404,0,121,121,38,1,fourtwo,,,,,,,,,,,,,,,,,,,,,,,,,,,,,,,,,,,,,,,,,,,,,,,,,,,,,,,,,,,,,,,,,,,,,,,,,,,,,,,,,,,,,,,,,,,,,,,,,,,,,,,,,,,,,,,,,,,,,,,,,,,,,,,,,,,,,,,,,,,,,,,,,,,,,,,,
,,,,,,5f82e997eec0860404c8f790,62bbfb52d74ddac5d85e4ce9,2022-06-29_08h12.28.803,Colour_Asymmetry_Pilot,2022.1.3,MacIntel,59.84082341,62bbe60bf3d75ef465d3e404,0,122,122,20,1,threeone,,,,,,,,,,,,,,,,,,,,,,,,,,,,,,,,,,,,,,,,,,,,,,,,,,,,,,,,,,,,,,,,,,,,,,,,,,,,,,,,,,,,,,,,,,,,,,,,,,,,,,,,,,,,,,,,,,,,,,,,,,,,,,,,,,,,,,,,,,,,,,,,,,,,,,,,
,,,,,,5f82e997eec0860404c8f790,62bbfb52d74ddac5d85e4ce9,2022-06-29_08h12.28.803,Colour_Asymmetry_Pilot,2022.1.3,MacIntel,59.84082341,62bbe60bf3d75ef465d3e404,0,123,123,118,1,fourtwo,,,,,,,,,,,,,,,,,,,,,,,,,,,,,,,,,,,,,,,,,,,,,,,,,,,,,,,,,,,,,,,,,,,,,,,,,,,,,,,,,,,,,,,,,,,,,,,,,,,,,,,,,,,,,,,,,,,,,,,,,,,,,,,,,,,,,,,,,,,,,,,,,,,,,,,,
,,,,,,5f82e997eec0860404c8f790,62bbfb52d74ddac5d85e4ce9,2022-06-29_08h12.28.803,Colour_Asymmetry_Pilot,2022.1.3,MacIntel,59.84082341,62bbe60bf3d75ef465d3e404,0,124,124,23,1,fourthree,,,,,,,,,,,,,,,,,,,,,,,,,,,,,,,,,,,,,,,,,,,,,,,,,,,,,,,,,,,,,,,,,,,,,,,,,,,,,,,,,,,,,,,,,,,,,,,,,,,,,,,,,,,,,,,,,,,,,,,,,,,,,,,,,,,,,,,,,,,,,,,,,,,,,,,,
,,,,,,5f82e997eec0860404c8f790,62bbfb52d74ddac5d85e4ce9,2022-06-29_08h12.28.803,Colour_Asymmetry_Pilot,2022.1.3,MacIntel,59.84082341,62bbe60bf3d75ef465d3e404,0,125,125,80,1,onetwo,,,,,,,,,,,,,,,,,,,,,,,,,,,,,,,,,,,,,,,,,,,,,,,,,,,,,,,,,,,,,,,,,,,,,,,,,,,,,,,,,,,,,,,,,,,,,,,,,,,,,,,,,,,,,,,,,,,,,,,,,,,,,,,,,,,,,,,,,,,,,,,,,,,,,,,,
,,,,,,5f82e997eec0860404c8f790,62bbfb52d74ddac5d85e4ce9,2022-06-29_08h12.28.803,Colour_Asymmetry_Pilot,2022.1.3,MacIntel,59.84082341,62bbe60bf3d75ef465d3e404,0,126,126,51,1,twofour,,,,,,,,,,,,,,,,,,,,,,,,,,,,,,,,,,,,,,,,,,,,,,,,,,,,,,,,,,,,,,,,,,,,,,,,,,,,,,,,,,,,,,,,,,,,,,,,,,,,,,,,,,,,,,,,,,,,,,,,,,,,,,,,,,,,,,,,,,,,,,,,,,,,,,,,
,,,,,,5f82e997eec0860404c8f790,62bbfb52d74ddac5d85e4ce9,2022-06-29_08h12.28.803,Colour_Asymmetry_Pilot,2022.1.3,MacIntel,59.84082341,62bbe60bf3d75ef465d3e404,0,127,127,43,1,twofour,,,,,,,,,,,,,,,,,,,,,,,,,,,,,,,,,,,,,,,,,,,,,,,,,,,,,,,,,,,,,,,,,,,,,,,,,,,,,,,,,,,,,,,,,,,,,,,,,,,,,,,,,,,,,,,,,,,,,,,,,,,,,,,,,,,,,,,,,,,,,,,,,,,,,,,,
,,,,,,5f82e997eec0860404c8f790,62bbfb52d74ddac5d85e4ce9,2022-06-29_08h12.28.803,Colour_Asymmetry_Pilot,2022.1.3,MacIntel,59.84082341,62bbe60bf3d75ef465d3e404,0,128,128,97,1,onethree,,,,,,,,,,,,,,,,,,,,,,,,,,,,,,,,,,,,,,,,,,,,,,,,,,,,,,,,,,,,,,,,,,,,,,,,,,,,,,,,,,,,,,,,,,,,,,,,,,,,,,,,,,,,,,,,,,,,,,,,,,,,,,,,,,,,,,,,,,,,,,,,,,,,,,,,
,,,,,,5f82e997eec0860404c8f790,62bbfb52d74ddac5d85e4ce9,2022-06-29_08h12.28.803,Colour_Asymmetry_Pilot,2022.1.3,MacIntel,59.84082341,62bbe60bf3d75ef465d3e404,0,129,129,99,1,twofour,,,,,,,,,,,,,,,,,,,,,,,,,,,,,,,,,,,,,,,,,,,,,,,,,,,,,,,,,,,,,,,,,,,,,,,,,,,,,,,,,,,,,,,,,,,,,,,,,,,,,,,,,,,,,,,,,,,,,,,,,,,,,,,,,,,,,,,,,,,,,,,,,,,,,,,,
,,,,,,5f82e997eec0860404c8f790,62bbfb52d74ddac5d85e4ce9,2022-06-29_08h12.28.803,Colour_Asymmetry_Pilot,2022.1.3,MacIntel,59.84082341,62bbe60bf3d75ef465d3e404,0,130,130,7,1,fourthree,,,,,,,,,,,,,,,,,,,,,,,,,,,,,,,,,,,,,,,,,,,,,,,,,,,,,,,,,,,,,,,,,,,,,,,,,,,,,,,,,,,,,,,,,,,,,,,,,,,,,,,,,,,,,,,,,,,,,,,,,,,,,,,,,,,,,,,,,,,,,,,,,,,,,,,,
,,,,,,5f82e997eec0860404c8f790,62bbfb52d74ddac5d85e4ce9,2022-06-29_08h12.28.803,Colour_Asymmetry_Pilot,2022.1.3,MacIntel,59.84082341,62bbe60bf3d75ef465d3e404,0,131,131,158,1,fourtwo,,,,,,,,,,,,,,,,,,,,,,,,,,,,,,,,,,,,,,,,,,,,,,,,,,,,,,,,,,,,,,,,,,,,,,,,,,,,,,,,,,,,,,,,,,,,,,,,,,,,,,,,,,,,,,,,,,,,,,,,,,,,,,,,,,,,,,,,,,,,,,,,,,,,,,,,
,,,,,,5f82e997eec0860404c8f790,62bbfb52d74ddac5d85e4ce9,2022-06-29_08h12.28.803,Colour_Asymmetry_Pilot,2022.1.3,MacIntel,59.84082341,62bbe60bf3d75ef465d3e404,0,132,132,145,1,onethree,,,,,,,,,,,,,,,,,,,,,,,,,,,,,,,,,,,,,,,,,,,,,,,,,,,,,,,,,,,,,,,,,,,,,,,,,,,,,,,,,,,,,,,,,,,,,,,,,,,,,,,,,,,,,,,,,,,,,,,,,,,,,,,,,,,,,,,,,,,,,,,,,,,,,,,,
,,,,,,5f82e997eec0860404c8f790,62bbfb52d74ddac5d85e4ce9,2022-06-29_08h12.28.803,Colour_Asymmetry_Pilot,2022.1.3,MacIntel,59.84082341,62bbe60bf3d75ef465d3e404,0,133,133,95,1,fourthree,,,,,,,,,,,,,,,,,,,,,,,,,,,,,,,,,,,,,,,,,,,,,,,,,,,,,,,,,,,,,,,,,,,,,,,,,,,,,,,,,,,,,,,,,,,,,,,,,,,,,,,,,,,,,,,,,,,,,,,,,,,,,,,,,,,,,,,,,,,,,,,,,,,,,,,,
,,,,,,5f82e997eec0860404c8f790,62bbfb52d74ddac5d85e4ce9,2022-06-29_08h12.28.803,Colour_Asymmetry_Pilot,2022.1.3,MacIntel,59.84082341,62bbe60bf3d75ef465d3e404,0,134,134,18,1,twoone,,,,,,,,,,,,,,,,,,,,,,,,,,,,,,,,,,,,,,,,,,,,,,,,,,,,,,,,,,,,,,,,,,,,,,,,,,,,,,,,,,,,,,,,,,,,,,,,,,,,,,,,,,,,,,,,,,,,,,,,,,,,,,,,,,,,,,,,,,,,,,,,,,,,,,,,
,,,,,,5f82e997eec0860404c8f790,62bbfb52d74ddac5d85e4ce9,2022-06-29_08h12.28.803,Colour_Asymmetry_Pilot,2022.1.3,MacIntel,59.84082341,62bbe60bf3d75ef465d3e404,0,135,135,126,1,fourtwo,,,,,,,,,,,,,,,,,,,,,,,,,,,,,,,,,,,,,,,,,,,,,,,,,,,,,,,,,,,,,,,,,,,,,,,,,,,,,,,,,,,,,,,,,,,,,,,,,,,,,,,,,,,,,,,,,,,,,,,,,,,,,,,,,,,,,,,,,,,,,,,,,,,,,,,,
,,,,,,5f82e997eec0860404c8f790,62bbfb52d74ddac5d85e4ce9,2022-06-29_08h12.28.803,Colour_Asymmetry_Pilot,2022.1.3,MacIntel,59.84082341,62bbe60bf3d75ef465d3e404,0,136,136,109,1,threefour,,,,,,,,,,,,,,,,,,,,,,,,,,,,,,,,,,,,,,,,,,,,,,,,,,,,,,,,,,,,,,,,,,,,,,,,,,,,,,,,,,,,,,,,,,,,,,,,,,,,,,,,,,,,,,,,,,,,,,,,,,,,,,,,,,,,,,,,,,,,,,,,,,,,,,,,
,,,,,,5f82e997eec0860404c8f790,62bbfb52d74ddac5d85e4ce9,2022-06-29_08h12.28.803,Colour_Asymmetry_Pilot,2022.1.3,MacIntel,59.84082341,62bbe60bf3d75ef465d3e404,0,137,137,152,1,onetwo,,,,,,,,,,,,,,,,,,,,,,,,,,,,,,,,,,,,,,,,,,,,,,,,,,,,,,,,,,,,,,,,,,,,,,,,,,,,,,,,,,,,,,,,,,,,,,,,,,,,,,,,,,,,,,,,,,,,,,,,,,,,,,,,,,,,,,,,,,,,,,,,,,,,,,,,
,,,,,,5f82e997eec0860404c8f790,62bbfb52d74ddac5d85e4ce9,2022-06-29_08h12.28.803,Colour_Asymmetry_Pilot,2022.1.3,MacIntel,59.84082341,62bbe60bf3d75ef465d3e404,0,138,138,78,1,fourtwo,,,,,,,,,,,,,,,,,,,,,,,,,,,,,,,,,,,,,,,,,,,,,,,,,,,,,,,,,,,,,,,,,,,,,,,,,,,,,,,,,,,,,,,,,,,,,,,,,,,,,,,,,,,,,,,,,,,,,,,,,,,,,,,,,,,,,,,,,,,,,,,,,,,,,,,,
,,,,,,5f82e997eec0860404c8f790,62bbfb52d74ddac5d85e4ce9,2022-06-29_08h12.28.803,Colour_Asymmetry_Pilot,2022.1.3,MacIntel,59.84082341,62bbe60bf3d75ef465d3e404,0,139,139,146,1,twoone,,,,,,,,,,,,,,,,,,,,,,,,,,,,,,,,,,,,,,,,,,,,,,,,,,,,,,,,,,,,,,,,,,,,,,,,,,,,,,,,,,,,,,,,,,,,,,,,,,,,,,,,,,,,,,,,,,,,,,,,,,,,,,,,,,,,,,,,,,,,,,,,,,,,,,,,
,,,,,,5f82e997eec0860404c8f790,62bbfb52d74ddac5d85e4ce9,2022-06-29_08h12.28.803,Colour_Asymmetry_Pilot,2022.1.3,MacIntel,59.84082341,62bbe60bf3d75ef465d3e404,0,140,140,117,1,threefour,,,,,,,,,,,,,,,,,,,,,,,,,,,,,,,,,,,,,,,,,,,,,,,,,,,,,,,,,,,,,,,,,,,,,,,,,,,,,,,,,,,,,,,,,,,,,,,,,,,,,,,,,,,,,,,,,,,,,,,,,,,,,,,,,,,,,,,,,,,,,,,,,,,,,,,,
,,,,,,5f82e997eec0860404c8f790,62bbfb52d74ddac5d85e4ce9,2022-06-29_08h12.28.803,Colour_Asymmetry_Pilot,2022.1.3,MacIntel,59.84082341,62bbe60bf3d75ef465d3e404,0,141,141,144,1,onetwo,,,,,,,,,,,,,,,,,,,,,,,,,,,,,,,,,,,,,,,,,,,,,,,,,,,,,,,,,,,,,,,,,,,,,,,,,,,,,,,,,,,,,,,,,,,,,,,,,,,,,,,,,,,,,,,,,,,,,,,,,,,,,,,,,,,,,,,,,,,,,,,,,,,,,,,,
,,,,,,5f82e997eec0860404c8f790,62bbfb52d74ddac5d85e4ce9,2022-06-29_08h12.28.803,Colour_Asymmetry_Pilot,2022.1.3,MacIntel,59.84082341,62bbe60bf3d75ef465d3e404,0,142,142,121,1,onethree,,,,,,,,,,,,,,,,,,,,,,,,,,,,,,,,,,,,,,,,,,,,,,,,,,,,,,,,,,,,,,,,,,,,,,,,,,,,,,,,,,,,,,,,,,,,,,,,,,,,,,,,,,,,,,,,,,,,,,,,,,,,,,,,,,,,,,,,,,,,,,,,,,,,,,,,
,,,,,,5f82e997eec0860404c8f790,62bbfb52d74ddac5d85e4ce9,2022-06-29_08h12.28.803,Colour_Asymmetry_Pilot,2022.1.3,MacIntel,59.84082341,62bbe60bf3d75ef465d3e404,0,143,143,96,1,onetwo,,,,,,,,,,,,,,,,,,,,,,,,,,,,,,,,,,,,,,,,,,,,,,,,,,,,,,,,,,,,,,,,,,,,,,,,,,,,,,,,,,,,,,,,,,,,,,,,,,,,,,,,,,,,,,,,,,,,,,,,,,,,,,,,,,,,,,,,,,,,,,,,,,,,,,,,
,,,,,,5f82e997eec0860404c8f790,62bbfb52d74ddac5d85e4ce9,2022-06-29_08h12.28.803,Colour_Asymmetry_Pilot,2022.1.3,MacIntel,59.84082341,62bbe60bf3d75ef465d3e404,0,144,144,160,1,onetwo,,,,,,,,,,,,,,,,,,,,,,,,,,,,,,,,,,,,,,,,,,,,,,,,,,,,,,,,,,,,,,,,,,,,,,,,,,,,,,,,,,,,,,,,,,,,,,,,,,,,,,,,,,,,,,,,,,,,,,,,,,,,,,,,,,,,,,,,,,,,,,,,,,,,,,,,
,,,,,,5f82e997eec0860404c8f790,62bbfb52d74ddac5d85e4ce9,2022-06-29_08h12.28.803,Colour_Asymmetry_Pilot,2022.1.3,MacIntel,59.84082341,62bbe60bf3d75ef465d3e404,0,145,145,104,1,onetwo,,,,,,,,,,,,,,,,,,,,,,,,,,,,,,,,,,,,,,,,,,,,,,,,,,,,,,,,,,,,,,,,,,,,,,,,,,,,,,,,,,,,,,,,,,,,,,,,,,,,,,,,,,,,,,,,,,,,,,,,,,,,,,,,,,,,,,,,,,,,,,,,,,,,,,,,
,,,,,,5f82e997eec0860404c8f790,62bbfb52d74ddac5d85e4ce9,2022-06-29_08h12.28.803,Colour_Asymmetry_Pilot,2022.1.3,MacIntel,59.84082341,62bbe60bf3d75ef465d3e404,0,146,146,82,1,twoone,,,,,,,,,,,,,,,,,,,,,,,,,,,,,,,,,,,,,,,,,,,,,,,,,,,,,,,,,,,,,,,,,,,,,,,,,,,,,,,,,,,,,,,,,,,,,,,,,,,,,,,,,,,,,,,,,,,,,,,,,,,,,,,,,,,,,,,,,,,,,,,,,,,,,,,,
,,,,,,5f82e997eec0860404c8f790,62bbfb52d74ddac5d85e4ce9,2022-06-29_08h12.28.803,Colour_Asymmetry_Pilot,2022.1.3,MacIntel,59.84082341,62bbe60bf3d75ef465d3e404,0,147,147,113,1,onethree,,,,,,,,,,,,,,,,,,,,,,,,,,,,,,,,,,,,,,,,,,,,,,,,,,,,,,,,,,,,,,,,,,,,,,,,,,,,,,,,,,,,,,,,,,,,,,,,,,,,,,,,,,,,,,,,,,,,,,,,,,,,,,,,,,,,,,,,,,,,,,,,,,,,,,,,
,,,,,,5f82e997eec0860404c8f790,62bbfb52d74ddac5d85e4ce9,2022-06-29_08h12.28.803,Colour_Asymmetry_Pilot,2022.1.3,MacIntel,59.84082341,62bbe60bf3d75ef465d3e404,0,148,148,71,1,fourthree,,,,,,,,,,,,,,,,,,,,,,,,,,,,,,,,,,,,,,,,,,,,,,,,,,,,,,,,,,,,,,,,,,,,,,,,,,,,,,,,,,,,,,,,,,,,,,,,,,,,,,,,,,,,,,,,,,,,,,,,,,,,,,,,,,,,,,,,,,,,,,,,,,,,,,,,
,,,,,,5f82e997eec0860404c8f790,62bbfb52d74ddac5d85e4ce9,2022-06-29_08h12.28.803,Colour_Asymmetry_Pilot,2022.1.3,MacIntel,59.84082341,62bbe60bf3d75ef465d3e404,0,149,149,24,1,onetwo,,,,,,,,,,,,,,,,,,,,,,,,,,,,,,,,,,,,,,,,,,,,,,,,,,,,,,,,,,,,,,,,,,,,,,,,,,,,,,,,,,,,,,,,,,,,,,,,,,,,,,,,,,,,,,,,,,,,,,,,,,,,,,,,,,,,,,,,,,,,,,,,,,,,,,,,
,,,,,,5f82e997eec0860404c8f790,62bbfb52d74ddac5d85e4ce9,2022-06-29_08h12.28.803,Colour_Asymmetry_Pilot,2022.1.3,MacIntel,59.84082341,62bbe60bf3d75ef465d3e404,0,150,150,21,1,threefour,,,,,,,,,,,,,,,,,,,,,,,,,,,,,,,,,,,,,,,,,,,,,,,,,,,,,,,,,,,,,,,,,,,,,,,,,,,,,,,,,,,,,,,,,,,,,,,,,,,,,,,,,,,,,,,,,,,,,,,,,,,,,,,,,,,,,,,,,,,,,,,,,,,,,,,,
,,,,,,5f82e997eec0860404c8f790,62bbfb52d74ddac5d85e4ce9,2022-06-29_08h12.28.803,Colour_Asymmetry_Pilot,2022.1.3,MacIntel,59.84082341,62bbe60bf3d75ef465d3e404,0,151,151,4,1,threeone,,,,,,,,,,,,,,,,,,,,,,,,,,,,,,,,,,,,,,,,,,,,,,,,,,,,,,,,,,,,,,,,,,,,,,,,,,,,,,,,,,,,,,,,,,,,,,,,,,,,,,,,,,,,,,,,,,,,,,,,,,,,,,,,,,,,,,,,,,,,,,,,,,,,,,,,
,,,,,,5f82e997eec0860404c8f790,62bbfb52d74ddac5d85e4ce9,2022-06-29_08h12.28.803,Colour_Asymmetry_Pilot,2022.1.3,MacIntel,59.84082341,62bbe60bf3d75ef465d3e404,0,152,152,11,1,twofour,,,,,,,,,,,,,,,,,,,,,,,,,,,,,,,,,,,,,,,,,,,,,,,,,,,,,,,,,,,,,,,,,,,,,,,,,,,,,,,,,,,,,,,,,,,,,,,,,,,,,,,,,,,,,,,,,,,,,,,,,,,,,,,,,,,,,,,,,,,,,,,,,,,,,,,,
,,,,,,5f82e997eec0860404c8f790,62bbfb52d74ddac5d85e4ce9,2022-06-29_08h12.28.803,Colour_Asymmetry_Pilot,2022.1.3,MacIntel,59.84082341,62bbe60bf3d75ef465d3e404,0,153,153,114,1,twoone,,,,,,,,,,,,,,,,,,,,,,,,,,,,,,,,,,,,,,,,,,,,,,,,,,,,,,,,,,,,,,,,,,,,,,,,,,,,,,,,,,,,,,,,,,,,,,,,,,,,,,,,,,,,,,,,,,,,,,,,,,,,,,,,,,,,,,,,,,,,,,,,,,,,,,,,
,,,,,,5f82e997eec0860404c8f790,62bbfb52d74ddac5d85e4ce9,2022-06-29_08h12.28.803,Colour_Asymmetry_Pilot,2022.1.3,MacIntel,59.84082341,62bbe60bf3d75ef465d3e404,0,154,154,29,1,threefour,,,,,,,,,,,,,,,,,,,,,,,,,,,,,,,,,,,,,,,,,,,,,,,,,,,,,,,,,,,,,,,,,,,,,,,,,,,,,,,,,,,,,,,,,,,,,,,,,,,,,,,,,,,,,,,,,,,,,,,,,,,,,,,,,,,,,,,,,,,,,,,,,,,,,,,,
,,,,,,5f82e997eec0860404c8f790,62bbfb52d74ddac5d85e4ce9,2022-06-29_08h12.28.803,Colour_Asymmetry_Pilot,2022.1.3,MacIntel,59.84082341,62bbe60bf3d75ef465d3e404,0,155,155,8,1,onetwo,,,,,,,,,,,,,,,,,,,,,,,,,,,,,,,,,,,,,,,,,,,,,,,,,,,,,,,,,,,,,,,,,,,,,,,,,,,,,,,,,,,,,,,,,,,,,,,,,,,,,,,,,,,,,,,,,,,,,,,,,,,,,,,,,,,,,,,,,,,,,,,,,,,,,,,,
,,,,,,5f82e997eec0860404c8f790,62bbfb52d74ddac5d85e4ce9,2022-06-29_08h12.28.803,Colour_Asymmetry_Pilot,2022.1.3,MacIntel,59.84082341,62bbe60bf3d75ef465d3e404,0,156,156,9,1,onethree,,,,,,,,,,,,,,,,,,,,,,,,,,,,,,,,,,,,,,,,,,,,,,,,,,,,,,,,,,,,,,,,,,,,,,,,,,,,,,,,,,,,,,,,,,,,,,,,,,,,,,,,,,,,,,,,,,,,,,,,,,,,,,,,,,,,,,,,,,,,,,,,,,,,,,,,
,,,,,,5f82e997eec0860404c8f790,62bbfb52d74ddac5d85e4ce9,2022-06-29_08h12.28.803,Colour_Asymmetry_Pilot,2022.1.3,MacIntel,59.84082341,62bbe60bf3d75ef465d3e404,0,157,157,135,1,fourthree,,,,,,,,,,,,,,,,,,,,,,,,,,,,,,,,,,,,,,,,,,,,,,,,,,,,,,,,,,,,,,,,,,,,,,,,,,,,,,,,,,,,,,,,,,,,,,,,,,,,,,,,,,,,,,,,,,,,,,,,,,,,,,,,,,,,,,,,,,,,,,,,,,,,,,,,
,,,,,,5f82e997eec0860404c8f790,62bbfb52d74ddac5d85e4ce9,2022-06-29_08h12.28.803,Colour_Asymmetry_Pilot,2022.1.3,MacIntel,59.84082341,62bbe60bf3d75ef465d3e404,0,158,158,17,1,onethree,,,,,,,,,,,,,,,,,,,,,,,,,,,,,,,,,,,,,,,,,,,,,,,,,,,,,,,,,,,,,,,,,,,,,,,,,,,,,,,,,,,,,,,,,,,,,,,,,,,,,,,,,,,,,,,,,,,,,,,,,,,,,,,,,,,,,,,,,,,,,,,,,,,,,,,,
,,,,,,5f82e997eec0860404c8f790,62bbfb52d74ddac5d85e4ce9,2022-06-29_08h12.28.803,Colour_Asymmetry_Pilot,2022.1.3,MacIntel,59.84082341,62bbe60bf3d75ef465d3e404,0,159,159,59,1,twofour,,,,,,,,,,,,,,,,,,,,,,,,,,,,,,,,,,,,,,,,,,,,,,,,,,,,,,,,,,,,,,,,,,,,,,,,,,,,,,,,,,,,,,,,,,,,,,,,,,,,,,,,,,,,,,,,,,,,,,,,,,,,,,,,,,,,,,,,,,,,,,,,,,,,,,,,
,,,,,,5f82e997eec0860404c8f790,62bbfb52d74ddac5d85e4ce9,2022-06-29_08h12.28.803,Colour_Asymmetry_Pilot,2022.1.3,MacIntel,59.84082341,62bbe60bf3d75ef465d3e404,0,160,160,139,1,twofour,,,,,,,,,,,,,,,,,,,,,,,,,,,,,,,,,,,,,,,,,,,,,,,,,,,,,,,,,,,,,,,,,,,,,,,,,,,,,,,,,,,,,,,,,,,,,,,,,,,,,,,,,,,,,,,,,,,,,,,,,,,,,,,,,,,,,,,,,,,,,,,,,,,,,,,,
,,,,,,5f82e997eec0860404c8f790,62bbfb52d74ddac5d85e4ce9,2022-06-29_08h12.28.803,Colour_Asymmetry_Pilot,2022.1.3,MacIntel,59.84082341,62bbe60bf3d75ef465d3e404,0,161,161,141,1,threefour,,,,,,,,,,,,,,,,,,,,,,,,,,,,,,,,,,,,,,,,,,,,,,,,,,,,,,,,,,,,,,,,,,,,,,,,,,,,,,,,,,,,,,,,,,,,,,,,,,,,,,,,,,,,,,,,,,,,,,,,,,,,,,,,,,,,,,,,,,,,,,,,,,,,,,,,
,,,,,,5f82e997eec0860404c8f790,62bbfb52d74ddac5d85e4ce9,2022-06-29_08h12.28.803,Colour_Asymmetry_Pilot,2022.1.3,MacIntel,59.84082341,62bbe60bf3d75ef465d3e404,,,,,,,space,1.193,space,2.627,space,17.095,space,16.0986,space,1.1718,space,4.1755,"[0.7802,-0.23140000000000005,-0.20799999999999996]",twoone,"[-0.30200000000000005,0.14500000000000002,0.2784]",-1,13.4581,-41.97210693,-86.23449707,1,0,0,response5disk_5,8.472351074,-1.129516602,1,0,0,rectangle_8,8.472351074,-1.129516602,1,0,0,1,8.472351074,-1.129516602,1,0,0,0,0,0,0,1,,,,,,,,,,,,,,,,,,,,,,,,,,,,,,,,,,,,,,,,,,,,,,,,,,,,,,,,,,,,,,,,,,,,,,,,,,,,,,,,,,,,,,,,,,,,,,,,,,,,,,,,,,,
,,,,,,5f82e997eec0860404c8f790,62bbfb52d74ddac5d85e4ce9,2022-06-29_08h12.28.803,Colour_Asymmetry_Pilot,2022.1.3,MacIntel,59.84082341,62bbe60bf3d75ef465d3e404,,,,,,,,,,,,,,,,,,,"[0.8274000000000001,-0.5844,-0.9452]",twoone,"[-0.050999999999999934,-0.6706000000000001,-0.804]",3,2.2056,77.12103271,36.09564209,1,0,0,response1disk_5,4.835083008,6.116638184,1,0,0,rectangle_8,4.835083008,6.116638184,1,0,0,1,4.835083008,6.116638184,1,0,0,1,0,1,0,1,,,,,,,,,,,,,,,,,,,,,,,,,,,,,,,,,,,,,,,,,,,,,,,,,,,,,,,,,,,,,,,,,,,,,,,,,,,,,,,,,,,,,,,,,,,,,,,,,,,,,,,,,,,
,,,,,,5f82e997eec0860404c8f790,62bbfb52d74ddac5d85e4ce9,2022-06-29_08h12.28.803,Colour_Asymmetry_Pilot,2022.1.3,MacIntel,59.84082341,62bbe60bf3d75ef465d3e404,,,,,,,,,,,,,,,,,,,"[-0.6706000000000001,-0.6157999999999999,-0.6786]",onetwo,"[0.34099999999999997,0.5841999999999998,-0.9844]",1,2.1739,40.32336426,-95.99133301,1,0,0,response3disk_5,-12.62786865,-6.65612793,1,0,0,rectangle_8,-12.62786865,-6.65612793,1,0,0,1,-12.62786865,-6.65612793,1,0,0,2,0,2,0,1,,,,,,,,,,,,,,,,,,,,,,,,,,,,,,,,,,,,,,,,,,,,,,,,,,,,,,,,,,,,,,,,,,,,,,,,,,,,,,,,,,,,,,,,,,,,,,,,,,,,,,,,,,,
,,,,,,5f82e997eec0860404c8f790,62bbfb52d74ddac5d85e4ce9,2022-06-29_08h12.28.803,Colour_Asymmetry_Pilot,2022.1.3,MacIntel,59.84082341,62bbe60bf3d75ef465d3e404,,,,,,,,,,,,,,,,,,,"[-0.0040000000000000036,0.02739999999999987,-0.08239999999999992]",twoone,"[0.8274000000000001,-0.5844,-0.9452]",-2,1.9566,-58.53625488,-25.34277344,1,0,0,response5disk_5,2.93737793,1.291809082,1,0,0,rectangle_8,2.93737793,1.291809082,1,0,0,1,2.93737793,1.291809082,1,0,0,3,0,3,0,1,,,,,,,,,,,,,,,,,,,,,,,,,,,,,,,,,,,,,,,,,,,,,,,,,,,,,,,,,,,,,,,,,,,,,,,,,,,,,,,,,,,,,,,,,,,,,,,,,,,,,,,,,,,
,,,,,,5f82e997eec0860404c8f790,62bbfb52d74ddac5d85e4ce9,2022-06-29_08h12.28.803,Colour_Asymmetry_Pilot,2022.1.3,MacIntel,59.84082341,62bbe60bf3d75ef465d3e404,,,,,,,,,,,,,,,,,,,"[0.23120000000000007,-0.7726,-0.34120000000000006]",onethree,"[-0.48240000000000005,0.3175999999999999,0.2156]",-2,1.2195,-49.40368652,-34.60687256,1,0,0,response5disk_5,-2.83001709,-4.607910156,1,0,0,rectangle_8,29.74804688,-91.2220459,1,0,0,1,-6.638549805,-2.317077637,1,0,0,4,0,4,0,1,response3disk_7,4,rectangle_4,,,,,,,,,,,,,,,,,,,,,,,,,,,,,,,,,,,,,,,,,,,,,,,,,,,,,,,,,,,,,,,,,,,,,,,,,,,,,,,,,,,,,,,,,,,,,,,,,,,,,,,,
,,,,,,5f82e997eec0860404c8f790,62bbfb52d74ddac5d85e4ce9,2022-06-29_08h12.28.803,Colour_Asymmetry_Pilot,2022.1.3,MacIntel,59.84082341,62bbe60bf3d75ef465d3e404,,,,,,,,,,,,,,,,,,,"[-0.30200000000000005,0.14500000000000002,0.2784]",threeone,"[0.9213999999999998,0.6391999999999998,-0.9922]",-2,1.0021,-72.81420898,-45.48184204,1,0,0,response5disk_5,-19.55273438,-6.761444092,1,0,0,rectangle_8,47.06079102,-109.173584,1,0,0,1,-14.61206055,5.34362793,1,0,0,5,0,5,0,1,response3disk_7,4,rectangle_4,,,,,,,,,,,,,,,,,,,,,,,,,,,,,,,,,,,,,,,,,,,,,,,,,,,,,,,,,,,,,,,,,,,,,,,,,,,,,,,,,,,,,,,,,,,,,,,,,,,,,,,,
,,,,,,5f82e997eec0860404c8f790,62bbfb52d74ddac5d85e4ce9,2022-06-29_08h12.28.803,Colour_Asymmetry_Pilot,2022.1.3,MacIntel,59.84082341,62bbe60bf3d75ef465d3e404,,,,,,,,,,,,,,,,,,,"[0.9686000000000001,0.5763999999999998,0.11359999999999992]",threeone,"[-0.34920000000000007,-0.702,-0.5216]",-3,1.1708,-82.48693848,29.7434082,1,0,0,response7disk_5,13.3973999,-0.321533203,1,0,0,rectangle_8,13.3973999,-0.321533203,1,0,0,1,13.3973999,-0.321533203,1,0,0,6,0,6,0,1,,,,,,,,,,,,,,,,,,,,,,,,,,,,,,,,,,,,,,,,,,,,,,,,,,,,,,,,,,,,,,,,,,,,,,,,,,,,,,,,,,,,,,,,,,,,,,,,,,,,,,,,,,,
,,,,,,5f82e997eec0860404c8f790,62bbfb52d74ddac5d85e4ce9,2022-06-29_08h12.28.803,Colour_Asymmetry_Pilot,2022.1.3,MacIntel,59.84082341,62bbe60bf3d75ef465d3e404,,,,,,,,,,,,,,,,,,,,threeone,,-3,2.2917,,,,,,,,,,,,,,,,,,,,,,,,,,,,,,,,space,2.3632,"[-0.30200000000000005,0.14500000000000002,0.2784]","[0.9372,0.20779999999999998,0.2704]",-89.61322021,25.42218018,1,0,0,response7disk,-14.70349121,4.742950439,1,0,0,rectangle,-14.70349121,4.742950439,1,0,0,,2,0.0028,0,-14.70349121,4.742950439,1,0,0,0,0,0,45,1,45,first,,,,,,,,,,,,,,,,,,,,,,,,,,,,,,,,,,,,,,,,,,,,,,,,,,,,,,,,,,,,,,,,,,,
,,,,,,5f82e997eec0860404c8f790,62bbfb52d74ddac5d85e4ce9,2022-06-29_08h12.28.803,Colour_Asymmetry_Pilot,2022.1.3,MacIntel,59.84082341,62bbe60bf3d75ef465d3e404,,,,,,,,,,,,,,,,,,,,threefour,,-3,1.7041,,,,,,,,,,,,,,,,,,,,,,,,,,,,,,,,,,"[0.09799999999999986,-0.24719999999999998,0.15280000000000005]","[0.9763999999999999,0.8588,-0.05900000000000005]",-78.54705811,40.39581299,1,0,0,response7disk,-1.688171387,-4.387390137,1,0,0,rectangle,101.5845337,-42.06878662,1,0,0,2,2,2.3258,1,21.13537598,5.422485352,1,0,0,0,1,1,159,1,78,second,response3disk_3,rectangle,,,,,,,,,,,,,,,,,,,,,,,,,,,,,,,,,,,,,,,,,,,,,,,,,,,,,,,,,,,,,,,,,
,,,,,,5f82e997eec0860404c8f790,62bbfb52d74ddac5d85e4ce9,2022-06-29_08h12.28.803,Colour_Asymmetry_Pilot,2022.1.3,MacIntel,59.84082341,62bbe60bf3d75ef465d3e404,,,,,,,,,,,,,,,,,,,,twoone,,3,0.6173,,,,,,,,,,,,,,,,,,,,,,,,,,,,,,,,,,"[0.40379999999999994,0.09000000000000008,0.44300000000000006]","[0.6547999999999998,-0.043199999999999905,-0.011800000000000033]",69.44665527,29.36193848,1,0,0,response1disk,2.133850098,0.557189941,1,0,0,rectangle,2.133850098,0.557189941,1,0,0,2,2,0.0002,0,2.133850098,0.557189941,1,0,0,0,2,2,131,1,50,second,,,,,,,,,,,,,,,,,,,,,,,,,,,,,,,,,,,,,,,,,,,,,,,,,,,,,,,,,,,,,,,,,,,
,,,,,,5f82e997eec0860404c8f790,62bbfb52d74ddac5d85e4ce9,2022-06-29_08h12.28.803,Colour_Asymmetry_Pilot,2022.1.3,MacIntel,59.84082341,62bbe60bf3d75ef465d3e404,,,,,,,,,,,,,,,,,,,,onetwo,,-2,1.5204,,,,,,,,,,,,,,,,,,,,,,,,,,,,,,,,,,"[0.9372,0.20779999999999998,0.2704]","[-0.30200000000000005,0.14500000000000002,0.2784]",-78.06829834,-36.0043335,1,0,0,response5disk,-19.84313965,-1.510925293,1,0,0,rectangle,-19.84313965,-1.510925293,1,0,0,2,1,0.0027,0,-19.84313965,-1.510925293,1,0,0,0,3,3,126,1,45,second,,,,,,,,,,,,,,,,,,,,,,,,,,,,,,,,,,,,,,,,,,,,,,,,,,,,,,,,,,,,,,,,,,,
,,,,,,5f82e997eec0860404c8f790,62bbfb52d74ddac5d85e4ce9,2022-06-29_08h12.28.803,Colour_Asymmetry_Pilot,2022.1.3,MacIntel,59.84082341,62bbe60bf3d75ef465d3e404,,,,,,,,,,,,,,,,,,,,onetwo,,2,0.9183,,,,,,,,,,,,,,,,,,,,,,,,,,,,,,,,,,"[-0.4746,-0.0354000000000001,0.5449999999999999]","[-0.5688,-0.08239999999999992,-0.1844]",87.76708984,-52.14190674,1,0,0,response3disk,13.10772705,5.759490967,1,0,0,rectangle,13.10772705,5.759490967,1,0,0,2,1,0.0002,0,13.10772705,5.759490967,1,0,0,0,4,4,17,1,17,first,,,,,,,,,,,,,,,,,,,,,,,,,,,,,,,,,,,,,,,,,,,,,,,,,,,,,,,,,,,,,,,,,,,
,,,,,,5f82e997eec0860404c8f790,62bbfb52d74ddac5d85e4ce9,2022-06-29_08h12.28.803,Colour_Asymmetry_Pilot,2022.1.3,MacIntel,59.84082341,62bbe60bf3d75ef465d3e404,,,,,,,,,,,,,,,,,,,,threeone,,-2,1.2706,,,,,,,,,,,,,,,,,,,,,,,,,,,,,,,,,,"[0.9842,0.7409999999999999,-0.6628000000000001]","[0.2862,0.7802,0.3568]",-65.87915039,-41.17962646,1,0,0,response5disk,13.30230713,5.052001953,1,0,0,rectangle,13.30230713,5.052001953,1,0,0,2,1,0.0004,0,13.30230713,5.052001953,1,0,0,0,5,5,99,1,18,second,,,,,,,,,,,,,,,,,,,,,,,,,,,,,,,,,,,,,,,,,,,,,,,,,,,,,,,,,,,,,,,,,,,
,,,,,,5f82e997eec0860404c8f790,62bbfb52d74ddac5d85e4ce9,2022-06-29_08h12.28.803,Colour_Asymmetry_Pilot,2022.1.3,MacIntel,59.84082341,62bbe60bf3d75ef465d3e404,,,,,,,,,,,,,,,,,,,,threefour,,2,0.8854,,,,,,,,,,,,,,,,,,,,,,,,,,,,,,,,,,"[0.9372,0.20779999999999998,0.2704]","[0.37240000000000006,-0.050999999999999934,-0.5216]",78.40332031,-39.34646606,1,0,0,response3disk,3.59375,-0.853851318,1,0,0,rectangle,3.59375,-0.853851318,1,0,0,2,3,0.002,0,3.59375,-0.853851318,1,0,0,0,6,6,130,1,49,second,,,,,,,,,,,,,,,,,,,,,,,,,,,,,,,,,,,,,,,,,,,,,,,,,,,,,,,,,,,,,,,,,,,
,,,,,,5f82e997eec0860404c8f790,62bbfb52d74ddac5d85e4ce9,2022-06-29_08h12.28.803,Colour_Asymmetry_Pilot,2022.1.3,MacIntel,59.84082341,62bbe60bf3d75ef465d3e404,,,,,,,,,,,,,,,,,,,,fourtwo,,-3,0.5017,,,,,,,,,,,,,,,,,,,,,,,,,,,,,,,,,,"[0.7018,0.7802,-0.16079999999999994]","[-0.2942,-0.24719999999999998,-0.357]",-58.3427124,33.32559204,1,0,0,response7disk,-11.84997559,15.24987793,1,0,0,rectangle,-11.84997559,15.24987793,1,0,0,2,1,0.0023,0,-11.84997559,15.24987793,1,0,0,0,7,7,139,1,58,second,,,,,,,,,,,,,,,,,,,,,,,,,,,,,,,,,,,,,,,,,,,,,,,,,,,,,,,,,,,,,,,,,,,
,,,,,,5f82e997eec0860404c8f790,62bbfb52d74ddac5d85e4ce9,2022-06-29_08h12.28.803,Colour_Asymmetry_Pilot,2022.1.3,MacIntel,59.84082341,62bbe60bf3d75ef465d3e404,,,,,,,,,,,,,,,,,,,,onetwo,,4,0.5007,,,,,,,,,,,,,,,,,,,,,,,,,,,,,,,,,,"[-0.4982,-0.2942,-0.0354000000000001]","[-0.9688,-0.7412000000000001,-0.4902000000000001]",46.25994873,93.33956909,1,0,0,response1disk,-7.781677246,7.557922363,1,0,0,rectangle,-7.781677246,7.557922363,1,0,0,2,3,0.0018,0,-7.781677246,7.557922363,1,0,0,0,8,8,79,1,79,first,,,,,,,,,,,,,,,,,,,,,,,,,,,,,,,,,,,,,,,,,,,,,,,,,,,,,,,,,,,,,,,,,,,
,,,,,,5f82e997eec0860404c8f790,62bbfb52d74ddac5d85e4ce9,2022-06-29_08h12.28.803,Colour_Asymmetry_Pilot,2022.1.3,MacIntel,59.84082341,62bbe60bf3d75ef465d3e404,,,,,,,,,,,,,,,,,,,,fourtwo,,4,0.7342,,,,,,,,,,,,,,,,,,,,,,,,,,,,,,,,,,"[-0.4982,-0.2942,-0.0354000000000001]","[-0.8118,-0.8198,-0.5452]",41.33850098,94.23196411,1,0,0,response1disk,1.018798828,3.168884277,1,0,0,rectangle,1.018798828,3.168884277,1,0,0,2,1,0.0029,0,1.018798828,3.168884277,1,0,0,0,9,9,108,1,27,second,,,,,,,,,,,,,,,,,,,,,,,,,,,,,,,,,,,,,,,,,,,,,,,,,,,,,,,,,,,,,,,,,,,
,,,,,,5f82e997eec0860404c8f790,62bbfb52d74ddac5d85e4ce9,2022-06-29_08h12.28.803,Colour_Asymmetry_Pilot,2022.1.3,MacIntel,59.84082341,62bbe60bf3d75ef465d3e404,,,,,,,,,,,,,,,,,,,,fourtwo,,1,1.7715,,,,,,,,,,,,,,,,,,,,,,,,,,,,,,,,,,"[-0.26280000000000003,-0.2158,-0.3256]","[-0.30200000000000005,0.14500000000000002,0.2784]",34.11712646,-84.27001953,1,0,0,response3disk,-16.42205811,6.249755859,1,0,0,rectangle,-16.42205811,6.249755859,1,0,0,2,1,0.0003,0,-16.42205811,6.249755859,1,0,0,0,10,10,83,1,2,second,,,,,,,,,,,,,,,,,,,,,,,,,,,,,,,,,,,,,,,,,,,,,,,,,,,,,,,,,,,,,,,,,,,
,,,,,,5f82e997eec0860404c8f790,62bbfb52d74ddac5d85e4ce9,2022-06-29_08h12.28.803,Colour_Asymmetry_Pilot,2022.1.3,MacIntel,59.84082341,62bbe60bf3d75ef465d3e404,,,,,,,,,,,,,,,,,,,,onethree,,-3,1.2537,,,,,,,,,,,,,,,,,,,,,,,,,,,,,,,,,,"[0.6547999999999998,-0.043199999999999905,-0.011800000000000033]","[-0.5688,-0.08239999999999992,-0.1844]",-96.87445068,45.44683838,1,0,0,response7disk,-9.145202637,-3.429138184,1,0,0,rectangle,-9.145202637,-3.429138184,1,0,0,2,2,0.003,0,-9.145202637,-3.429138184,1,0,0,0,11,11,86,1,5,second,,,,,,,,,,,,,,,,,,,,,,,,,,,,,,,,,,,,,,,,,,,,,,,,,,,,,,,,,,,,,,,,,,,
,,,,,,5f82e997eec0860404c8f790,62bbfb52d74ddac5d85e4ce9,2022-06-29_08h12.28.803,Colour_Asymmetry_Pilot,2022.1.3,MacIntel,59.84082341,62bbe60bf3d75ef465d3e404,,,,,,,,,,,,,,,,,,,,fourtwo,,2,0.8018,,,,,,,,,,,,,,,,,,,,,,,,,,,,,,,,,,"[-0.050999999999999934,-0.6706000000000001,-0.804]","[0.23120000000000007,-0.7726,-0.34120000000000006]",70.02801514,-35.62683105,1,0,0,response3disk,12.58813477,-11.84069824,1,0,0,rectangle,12.58813477,-11.84069824,1,0,0,2,1,0.0009,0,12.58813477,-11.84069824,1,0,0,0,12,12,80,1,80,first,,,,,,,,,,,,,,,,,,,,,,,,,,,,,,,,,,,,,,,,,,,,,,,,,,,,,,,,,,,,,,,,,,,
,,,,,,5f82e997eec0860404c8f790,62bbfb52d74ddac5d85e4ce9,2022-06-29_08h12.28.803,Colour_Asymmetry_Pilot,2022.1.3,MacIntel,59.84082341,62bbe60bf3d75ef465d3e404,,,,,,,,,,,,,,,,,,,,onethree,,-2,1.6372,,,,,,,,,,,,,,,,,,,,,,,,,,,,,,,,,,"[-0.011800000000000033,-0.906,-0.45100000000000007]","[-0.4746,-0.0354000000000001,0.5449999999999999]",-72.35021973,-39.11437988,1,0,0,response5disk,-17.82891846,-3.646057129,1,0,0,rectangle,-17.82891846,-3.646057129,1,0,0,2,3,0.0011,0,-17.82891846,-3.646057129,1,0,0,0,13,13,109,1,28,second,,,,,,,,,,,,,,,,,,,,,,,,,,,,,,,,,,,,,,,,,,,,,,,,,,,,,,,,,,,,,,,,,,,
,,,,,,5f82e997eec0860404c8f790,62bbfb52d74ddac5d85e4ce9,2022-06-29_08h12.28.803,Colour_Asymmetry_Pilot,2022.1.3,MacIntel,59.84082341,62bbe60bf3d75ef465d3e404,,,,,,,,,,,,,,,,,,,,fourtwo,,1,1.9047,,,,,,,,,,,,,,,,,,,,,,,,,,,,,,,,,,"[-0.09019999999999995,0.44300000000000006,0.5371999999999999]","[-0.38039999999999996,-0.4276,-0.1452]",25.51940918,-59.79858398,1,0,0,response3disk,5.916320801,-17.28656006,1,0,0,rectangle,5.916320801,-17.28656006,1,0,0,2,3,0.0002,0,5.916320801,-17.28656006,1,0,0,0,14,14,90,1,9,second,,,,,,,,,,,,,,,,,,,,,,,,,,,,,,,,,,,,,,,,,,,,,,,,,,,,,,,,,,,,,,,,,,,
