trials.thisRepN,trials.thisTrialN,trials.thisN,trials.thisIndex,trials.ran,Colourcodes,participant,session,date,expName,psychopyVersion,OS,frameRate,study_id,trials_4.thisRepN,trials_4.thisTrialN,trials_4.thisN,trials_4.thisIndex,trials_4.ran,StimulusPos,key_resp.keys,key_resp.rt,key_resp_2.keys,key_resp_2.rt,key_resp_15.keys,key_resp_15.rt,key_resp_17.keys,key_resp_17.rt,key_resp_9.keys,key_resp_9.rt,key_resp_10.keys,key_resp_10.rt,Circle1_col,Ecc,Circle2_col,similarity,response_time,mouse_5.x,mouse_5.y,mouse_5.leftButton,mouse_5.midButton,mouse_5.rightButton,mouse_5.clicked_name,mouse_10.x,mouse_10.y,mouse_10.leftButton,mouse_10.midButton,mouse_10.rightButton,mouse_10.clicked_name,mouse_7.x,mouse_7.y,mouse_7.leftButton,mouse_7.midButton,mouse_7.rightButton,catchnumberprac,mouse_6.x,mouse_6.y,mouse_6.leftButton,mouse_6.midButton,mouse_6.rightButton,duringprac.thisRepN,duringprac.thisTrialN,duringprac.thisN,duringprac.thisIndex,duringprac.ran,mouse_7.clicked_name,catchprac,mouse_6.clicked_name,key_resp_22.keys,key_resp_22.rt,Circle1_colour,Circle2_colour,mouse.x,mouse.y,mouse.leftButton,mouse.midButton,mouse.rightButton,mouse.clicked_name,mouse_2.x,mouse_2.y,mouse_2.leftButton,mouse_2.midButton,mouse_2.rightButton,mouse_2.clicked_name,mouse_3.x,mouse_3.y,mouse_3.leftButton,mouse_3.midButton,mouse_3.rightButton,catchresponse,catchnumber,response_time_catch,Catch,mouse_11.x,mouse_11.y,mouse_11.leftButton,mouse_11.midButton,mouse_11.rightButton,trials_2.thisRepN,trials_2.thisTrialN,trials_2.thisN,trials_2.thisIndex,trials_2.ran,Colourpair,Temporder,mouse_3.clicked_name,mouse_11.clicked_name,trials_3.thisRepN,trials_3.thisTrialN,trials_3.thisN,trials_3.thisIndex,trials_3.ran,key_resp_instr_Ishi.keys,key_resp_instr_Ishi.rt,Ishi_trial_keyresp.keys,Ishi_trial_keyresp.rt,Ishi_textbox.text,Ishi_loop.thisRepN,Ishi_loop.thisTrialN,Ishi_loop.thisN,Ishi_loop.thisIndex,Ishi_loop.ran,imageaddress,textbox.text,mouse_4.x,mouse_4.y,mouse_4.leftButton,mouse_4.midButton,mouse_4.rightButton,mouse_4.clicked_name,textbox_2.text,mouse_8.x,mouse_8.y,mouse_8.leftButton,mouse_8.midButton,mouse_8.rightButton,mouse_8.clicked_name,textbox_3.text,mouse_9.x,mouse_9.y,mouse_9.leftButton,mouse_9.midButton,mouse_9.rightButton,mouse_9.clicked_name,textbox_4.text,mouse_12.x,mouse_12.y,mouse_12.leftButton,mouse_12.midButton,mouse_12.rightButton,mouse_12.clicked_name,textbox_5.text,mouse_13.x,mouse_13.y,mouse_13.leftButton,mouse_13.midButton,mouse_13.rightButton,mouse_13.clicked_name,textbox_6.text,mouse_14.x,mouse_14.y,mouse_14.leftButton,mouse_14.midButton,mouse_14.rightButton,mouse_14.clicked_name,textbox_7.text,mouse_15.x,mouse_15.y,mouse_15.leftButton,mouse_15.midButton,mouse_15.rightButton,mouse_15.clicked_name
0,0,0,22,1,,5e10ad92a6eb6078856a5067,62bbfb66b97729c39df35892,2022-06-29_08h13.33.070,Colour_Asymmetry_Pilot,2022.1.3,MacIntel,9.979442349,62bbe60bf3d75ef465d3e404,,,,,,,,,,,,,,,,,,,,,,,,,,,,,,,,,,,,,,,,,,,,,,,,,,,,,,,,,,,,,,,,,,,,,,,,,,,,,,,,,,,,,,,,,,,,,,,,,,,,,,,,,,,,,,,,,,,,,,,,,,,,,,,,,,,,,,,,,,,,,,,,,,,,,,,,,,,,,,
0,1,1,75,1,,5e10ad92a6eb6078856a5067,62bbfb66b97729c39df35892,2022-06-29_08h13.33.070,Colour_Asymmetry_Pilot,2022.1.3,MacIntel,9.979442349,62bbe60bf3d75ef465d3e404,,,,,,,,,,,,,,,,,,,,,,,,,,,,,,,,,,,,,,,,,,,,,,,,,,,,,,,,,,,,,,,,,,,,,,,,,,,,,,,,,,,,,,,,,,,,,,,,,,,,,,,,,,,,,,,,,,,,,,,,,,,,,,,,,,,,,,,,,,,,,,,,,,,,,,,,,,,,,,
0,2,2,8,1,,5e10ad92a6eb6078856a5067,62bbfb66b97729c39df35892,2022-06-29_08h13.33.070,Colour_Asymmetry_Pilot,2022.1.3,MacIntel,9.979442349,62bbe60bf3d75ef465d3e404,,,,,,,,,,,,,,,,,,,,,,,,,,,,,,,,,,,,,,,,,,,,,,,,,,,,,,,,,,,,,,,,,,,,,,,,,,,,,,,,,,,,,,,,,,,,,,,,,,,,,,,,,,,,,,,,,,,,,,,,,,,,,,,,,,,,,,,,,,,,,,,,,,,,,,,,,,,,,,
0,3,3,46,1,,5e10ad92a6eb6078856a5067,62bbfb66b97729c39df35892,2022-06-29_08h13.33.070,Colour_Asymmetry_Pilot,2022.1.3,MacIntel,9.979442349,62bbe60bf3d75ef465d3e404,,,,,,,,,,,,,,,,,,,,,,,,,,,,,,,,,,,,,,,,,,,,,,,,,,,,,,,,,,,,,,,,,,,,,,,,,,,,,,,,,,,,,,,,,,,,,,,,,,,,,,,,,,,,,,,,,,,,,,,,,,,,,,,,,,,,,,,,,,,,,,,,,,,,,,,,,,,,,,
0,4,4,66,1,,5e10ad92a6eb6078856a5067,62bbfb66b97729c39df35892,2022-06-29_08h13.33.070,Colour_Asymmetry_Pilot,2022.1.3,MacIntel,9.979442349,62bbe60bf3d75ef465d3e404,,,,,,,,,,,,,,,,,,,,,,,,,,,,,,,,,,,,,,,,,,,,,,,,,,,,,,,,,,,,,,,,,,,,,,,,,,,,,,,,,,,,,,,,,,,,,,,,,,,,,,,,,,,,,,,,,,,,,,,,,,,,,,,,,,,,,,,,,,,,,,,,,,,,,,,,,,,,,,
0,5,5,69,1,,5e10ad92a6eb6078856a5067,62bbfb66b97729c39df35892,2022-06-29_08h13.33.070,Colour_Asymmetry_Pilot,2022.1.3,MacIntel,9.979442349,62bbe60bf3d75ef465d3e404,,,,,,,,,,,,,,,,,,,,,,,,,,,,,,,,,,,,,,,,,,,,,,,,,,,,,,,,,,,,,,,,,,,,,,,,,,,,,,,,,,,,,,,,,,,,,,,,,,,,,,,,,,,,,,,,,,,,,,,,,,,,,,,,,,,,,,,,,,,,,,,,,,,,,,,,,,,,,,
0,6,6,38,1,,5e10ad92a6eb6078856a5067,62bbfb66b97729c39df35892,2022-06-29_08h13.33.070,Colour_Asymmetry_Pilot,2022.1.3,MacIntel,9.979442349,62bbe60bf3d75ef465d3e404,,,,,,,,,,,,,,,,,,,,,,,,,,,,,,,,,,,,,,,,,,,,,,,,,,,,,,,,,,,,,,,,,,,,,,,,,,,,,,,,,,,,,,,,,,,,,,,,,,,,,,,,,,,,,,,,,,,,,,,,,,,,,,,,,,,,,,,,,,,,,,,,,,,,,,,,,,,,,,
0,7,7,1,1,,5e10ad92a6eb6078856a5067,62bbfb66b97729c39df35892,2022-06-29_08h13.33.070,Colour_Asymmetry_Pilot,2022.1.3,MacIntel,9.979442349,62bbe60bf3d75ef465d3e404,,,,,,,,,,,,,,,,,,,,,,,,,,,,,,,,,,,,,,,,,,,,,,,,,,,,,,,,,,,,,,,,,,,,,,,,,,,,,,,,,,,,,,,,,,,,,,,,,,,,,,,,,,,,,,,,,,,,,,,,,,,,,,,,,,,,,,,,,,,,,,,,,,,,,,,,,,,,,,
0,8,8,34,1,,5e10ad92a6eb6078856a5067,62bbfb66b97729c39df35892,2022-06-29_08h13.33.070,Colour_Asymmetry_Pilot,2022.1.3,MacIntel,9.979442349,62bbe60bf3d75ef465d3e404,,,,,,,,,,,,,,,,,,,,,,,,,,,,,,,,,,,,,,,,,,,,,,,,,,,,,,,,,,,,,,,,,,,,,,,,,,,,,,,,,,,,,,,,,,,,,,,,,,,,,,,,,,,,,,,,,,,,,,,,,,,,,,,,,,,,,,,,,,,,,,,,,,,,,,,,,,,,,,
0,9,9,10,1,,5e10ad92a6eb6078856a5067,62bbfb66b97729c39df35892,2022-06-29_08h13.33.070,Colour_Asymmetry_Pilot,2022.1.3,MacIntel,9.979442349,62bbe60bf3d75ef465d3e404,,,,,,,,,,,,,,,,,,,,,,,,,,,,,,,,,,,,,,,,,,,,,,,,,,,,,,,,,,,,,,,,,,,,,,,,,,,,,,,,,,,,,,,,,,,,,,,,,,,,,,,,,,,,,,,,,,,,,,,,,,,,,,,,,,,,,,,,,,,,,,,,,,,,,,,,,,,,,,
0,10,10,48,1,,5e10ad92a6eb6078856a5067,62bbfb66b97729c39df35892,2022-06-29_08h13.33.070,Colour_Asymmetry_Pilot,2022.1.3,MacIntel,9.979442349,62bbe60bf3d75ef465d3e404,,,,,,,,,,,,,,,,,,,,,,,,,,,,,,,,,,,,,,,,,,,,,,,,,,,,,,,,,,,,,,,,,,,,,,,,,,,,,,,,,,,,,,,,,,,,,,,,,,,,,,,,,,,,,,,,,,,,,,,,,,,,,,,,,,,,,,,,,,,,,,,,,,,,,,,,,,,,,,
0,11,11,18,1,,5e10ad92a6eb6078856a5067,62bbfb66b97729c39df35892,2022-06-29_08h13.33.070,Colour_Asymmetry_Pilot,2022.1.3,MacIntel,9.979442349,62bbe60bf3d75ef465d3e404,,,,,,,,,,,,,,,,,,,,,,,,,,,,,,,,,,,,,,,,,,,,,,,,,,,,,,,,,,,,,,,,,,,,,,,,,,,,,,,,,,,,,,,,,,,,,,,,,,,,,,,,,,,,,,,,,,,,,,,,,,,,,,,,,,,,,,,,,,,,,,,,,,,,,,,,,,,,,,
0,12,12,47,1,,5e10ad92a6eb6078856a5067,62bbfb66b97729c39df35892,2022-06-29_08h13.33.070,Colour_Asymmetry_Pilot,2022.1.3,MacIntel,9.979442349,62bbe60bf3d75ef465d3e404,,,,,,,,,,,,,,,,,,,,,,,,,,,,,,,,,,,,,,,,,,,,,,,,,,,,,,,,,,,,,,,,,,,,,,,,,,,,,,,,,,,,,,,,,,,,,,,,,,,,,,,,,,,,,,,,,,,,,,,,,,,,,,,,,,,,,,,,,,,,,,,,,,,,,,,,,,,,,,
0,13,13,80,1,,5e10ad92a6eb6078856a5067,62bbfb66b97729c39df35892,2022-06-29_08h13.33.070,Colour_Asymmetry_Pilot,2022.1.3,MacIntel,9.979442349,62bbe60bf3d75ef465d3e404,,,,,,,,,,,,,,,,,,,,,,,,,,,,,,,,,,,,,,,,,,,,,,,,,,,,,,,,,,,,,,,,,,,,,,,,,,,,,,,,,,,,,,,,,,,,,,,,,,,,,,,,,,,,,,,,,,,,,,,,,,,,,,,,,,,,,,,,,,,,,,,,,,,,,,,,,,,,,,
0,14,14,90,1,,5e10ad92a6eb6078856a5067,62bbfb66b97729c39df35892,2022-06-29_08h13.33.070,Colour_Asymmetry_Pilot,2022.1.3,MacIntel,9.979442349,62bbe60bf3d75ef465d3e404,,,,,,,,,,,,,,,,,,,,,,,,,,,,,,,,,,,,,,,,,,,,,,,,,,,,,,,,,,,,,,,,,,,,,,,,,,,,,,,,,,,,,,,,,,,,,,,,,,,,,,,,,,,,,,,,,,,,,,,,,,,,,,,,,,,,,,,,,,,,,,,,,,,,,,,,,,,,,,
0,15,15,41,1,,5e10ad92a6eb6078856a5067,62bbfb66b97729c39df35892,2022-06-29_08h13.33.070,Colour_Asymmetry_Pilot,2022.1.3,MacIntel,9.979442349,62bbe60bf3d75ef465d3e404,,,,,,,,,,,,,,,,,,,,,,,,,,,,,,,,,,,,,,,,,,,,,,,,,,,,,,,,,,,,,,,,,,,,,,,,,,,,,,,,,,,,,,,,,,,,,,,,,,,,,,,,,,,,,,,,,,,,,,,,,,,,,,,,,,,,,,,,,,,,,,,,,,,,,,,,,,,,,,
0,16,16,78,1,,5e10ad92a6eb6078856a5067,62bbfb66b97729c39df35892,2022-06-29_08h13.33.070,Colour_Asymmetry_Pilot,2022.1.3,MacIntel,9.979442349,62bbe60bf3d75ef465d3e404,,,,,,,,,,,,,,,,,,,,,,,,,,,,,,,,,,,,,,,,,,,,,,,,,,,,,,,,,,,,,,,,,,,,,,,,,,,,,,,,,,,,,,,,,,,,,,,,,,,,,,,,,,,,,,,,,,,,,,,,,,,,,,,,,,,,,,,,,,,,,,,,,,,,,,,,,,,,,,
0,17,17,12,1,,5e10ad92a6eb6078856a5067,62bbfb66b97729c39df35892,2022-06-29_08h13.33.070,Colour_Asymmetry_Pilot,2022.1.3,MacIntel,9.979442349,62bbe60bf3d75ef465d3e404,,,,,,,,,,,,,,,,,,,,,,,,,,,,,,,,,,,,,,,,,,,,,,,,,,,,,,,,,,,,,,,,,,,,,,,,,,,,,,,,,,,,,,,,,,,,,,,,,,,,,,,,,,,,,,,,,,,,,,,,,,,,,,,,,,,,,,,,,,,,,,,,,,,,,,,,,,,,,,
0,18,18,87,1,,5e10ad92a6eb6078856a5067,62bbfb66b97729c39df35892,2022-06-29_08h13.33.070,Colour_Asymmetry_Pilot,2022.1.3,MacIntel,9.979442349,62bbe60bf3d75ef465d3e404,,,,,,,,,,,,,,,,,,,,,,,,,,,,,,,,,,,,,,,,,,,,,,,,,,,,,,,,,,,,,,,,,,,,,,,,,,,,,,,,,,,,,,,,,,,,,,,,,,,,,,,,,,,,,,,,,,,,,,,,,,,,,,,,,,,,,,,,,,,,,,,,,,,,,,,,,,,,,,
0,19,19,33,1,,5e10ad92a6eb6078856a5067,62bbfb66b97729c39df35892,2022-06-29_08h13.33.070,Colour_Asymmetry_Pilot,2022.1.3,MacIntel,9.979442349,62bbe60bf3d75ef465d3e404,,,,,,,,,,,,,,,,,,,,,,,,,,,,,,,,,,,,,,,,,,,,,,,,,,,,,,,,,,,,,,,,,,,,,,,,,,,,,,,,,,,,,,,,,,,,,,,,,,,,,,,,,,,,,,,,,,,,,,,,,,,,,,,,,,,,,,,,,,,,,,,,,,,,,,,,,,,,,,
0,20,20,58,1,,5e10ad92a6eb6078856a5067,62bbfb66b97729c39df35892,2022-06-29_08h13.33.070,Colour_Asymmetry_Pilot,2022.1.3,MacIntel,9.979442349,62bbe60bf3d75ef465d3e404,,,,,,,,,,,,,,,,,,,,,,,,,,,,,,,,,,,,,,,,,,,,,,,,,,,,,,,,,,,,,,,,,,,,,,,,,,,,,,,,,,,,,,,,,,,,,,,,,,,,,,,,,,,,,,,,,,,,,,,,,,,,,,,,,,,,,,,,,,,,,,,,,,,,,,,,,,,,,,
0,21,21,42,1,,5e10ad92a6eb6078856a5067,62bbfb66b97729c39df35892,2022-06-29_08h13.33.070,Colour_Asymmetry_Pilot,2022.1.3,MacIntel,9.979442349,62bbe60bf3d75ef465d3e404,,,,,,,,,,,,,,,,,,,,,,,,,,,,,,,,,,,,,,,,,,,,,,,,,,,,,,,,,,,,,,,,,,,,,,,,,,,,,,,,,,,,,,,,,,,,,,,,,,,,,,,,,,,,,,,,,,,,,,,,,,,,,,,,,,,,,,,,,,,,,,,,,,,,,,,,,,,,,,
0,22,22,68,1,,5e10ad92a6eb6078856a5067,62bbfb66b97729c39df35892,2022-06-29_08h13.33.070,Colour_Asymmetry_Pilot,2022.1.3,MacIntel,9.979442349,62bbe60bf3d75ef465d3e404,,,,,,,,,,,,,,,,,,,,,,,,,,,,,,,,,,,,,,,,,,,,,,,,,,,,,,,,,,,,,,,,,,,,,,,,,,,,,,,,,,,,,,,,,,,,,,,,,,,,,,,,,,,,,,,,,,,,,,,,,,,,,,,,,,,,,,,,,,,,,,,,,,,,,,,,,,,,,,
0,23,23,73,1,,5e10ad92a6eb6078856a5067,62bbfb66b97729c39df35892,2022-06-29_08h13.33.070,Colour_Asymmetry_Pilot,2022.1.3,MacIntel,9.979442349,62bbe60bf3d75ef465d3e404,,,,,,,,,,,,,,,,,,,,,,,,,,,,,,,,,,,,,,,,,,,,,,,,,,,,,,,,,,,,,,,,,,,,,,,,,,,,,,,,,,,,,,,,,,,,,,,,,,,,,,,,,,,,,,,,,,,,,,,,,,,,,,,,,,,,,,,,,,,,,,,,,,,,,,,,,,,,,,
0,24,24,17,1,,5e10ad92a6eb6078856a5067,62bbfb66b97729c39df35892,2022-06-29_08h13.33.070,Colour_Asymmetry_Pilot,2022.1.3,MacIntel,9.979442349,62bbe60bf3d75ef465d3e404,,,,,,,,,,,,,,,,,,,,,,,,,,,,,,,,,,,,,,,,,,,,,,,,,,,,,,,,,,,,,,,,,,,,,,,,,,,,,,,,,,,,,,,,,,,,,,,,,,,,,,,,,,,,,,,,,,,,,,,,,,,,,,,,,,,,,,,,,,,,,,,,,,,,,,,,,,,,,,
0,25,25,81,1,,5e10ad92a6eb6078856a5067,62bbfb66b97729c39df35892,2022-06-29_08h13.33.070,Colour_Asymmetry_Pilot,2022.1.3,MacIntel,9.979442349,62bbe60bf3d75ef465d3e404,,,,,,,,,,,,,,,,,,,,,,,,,,,,,,,,,,,,,,,,,,,,,,,,,,,,,,,,,,,,,,,,,,,,,,,,,,,,,,,,,,,,,,,,,,,,,,,,,,,,,,,,,,,,,,,,,,,,,,,,,,,,,,,,,,,,,,,,,,,,,,,,,,,,,,,,,,,,,,
0,26,26,7,1,,5e10ad92a6eb6078856a5067,62bbfb66b97729c39df35892,2022-06-29_08h13.33.070,Colour_Asymmetry_Pilot,2022.1.3,MacIntel,9.979442349,62bbe60bf3d75ef465d3e404,,,,,,,,,,,,,,,,,,,,,,,,,,,,,,,,,,,,,,,,,,,,,,,,,,,,,,,,,,,,,,,,,,,,,,,,,,,,,,,,,,,,,,,,,,,,,,,,,,,,,,,,,,,,,,,,,,,,,,,,,,,,,,,,,,,,,,,,,,,,,,,,,,,,,,,,,,,,,,
0,27,27,0,1,,5e10ad92a6eb6078856a5067,62bbfb66b97729c39df35892,2022-06-29_08h13.33.070,Colour_Asymmetry_Pilot,2022.1.3,MacIntel,9.979442349,62bbe60bf3d75ef465d3e404,,,,,,,,,,,,,,,,,,,,,,,,,,,,,,,,,,,,,,,,,,,,,,,,,,,,,,,,,,,,,,,,,,,,,,,,,,,,,,,,,,,,,,,,,,,,,,,,,,,,,,,,,,,,,,,,,,,,,,,,,,,,,,,,,,,,,,,,,,,,,,,,,,,,,,,,,,,,,,
0,28,28,49,1,,5e10ad92a6eb6078856a5067,62bbfb66b97729c39df35892,2022-06-29_08h13.33.070,Colour_Asymmetry_Pilot,2022.1.3,MacIntel,9.979442349,62bbe60bf3d75ef465d3e404,,,,,,,,,,,,,,,,,,,,,,,,,,,,,,,,,,,,,,,,,,,,,,,,,,,,,,,,,,,,,,,,,,,,,,,,,,,,,,,,,,,,,,,,,,,,,,,,,,,,,,,,,,,,,,,,,,,,,,,,,,,,,,,,,,,,,,,,,,,,,,,,,,,,,,,,,,,,,,
0,29,29,13,1,,5e10ad92a6eb6078856a5067,62bbfb66b97729c39df35892,2022-06-29_08h13.33.070,Colour_Asymmetry_Pilot,2022.1.3,MacIntel,9.979442349,62bbe60bf3d75ef465d3e404,,,,,,,,,,,,,,,,,,,,,,,,,,,,,,,,,,,,,,,,,,,,,,,,,,,,,,,,,,,,,,,,,,,,,,,,,,,,,,,,,,,,,,,,,,,,,,,,,,,,,,,,,,,,,,,,,,,,,,,,,,,,,,,,,,,,,,,,,,,,,,,,,,,,,,,,,,,,,,
0,30,30,76,1,,5e10ad92a6eb6078856a5067,62bbfb66b97729c39df35892,2022-06-29_08h13.33.070,Colour_Asymmetry_Pilot,2022.1.3,MacIntel,9.979442349,62bbe60bf3d75ef465d3e404,,,,,,,,,,,,,,,,,,,,,,,,,,,,,,,,,,,,,,,,,,,,,,,,,,,,,,,,,,,,,,,,,,,,,,,,,,,,,,,,,,,,,,,,,,,,,,,,,,,,,,,,,,,,,,,,,,,,,,,,,,,,,,,,,,,,,,,,,,,,,,,,,,,,,,,,,,,,,,
0,31,31,24,1,,5e10ad92a6eb6078856a5067,62bbfb66b97729c39df35892,2022-06-29_08h13.33.070,Colour_Asymmetry_Pilot,2022.1.3,MacIntel,9.979442349,62bbe60bf3d75ef465d3e404,,,,,,,,,,,,,,,,,,,,,,,,,,,,,,,,,,,,,,,,,,,,,,,,,,,,,,,,,,,,,,,,,,,,,,,,,,,,,,,,,,,,,,,,,,,,,,,,,,,,,,,,,,,,,,,,,,,,,,,,,,,,,,,,,,,,,,,,,,,,,,,,,,,,,,,,,,,,,,
0,32,32,3,1,,5e10ad92a6eb6078856a5067,62bbfb66b97729c39df35892,2022-06-29_08h13.33.070,Colour_Asymmetry_Pilot,2022.1.3,MacIntel,9.979442349,62bbe60bf3d75ef465d3e404,,,,,,,,,,,,,,,,,,,,,,,,,,,,,,,,,,,,,,,,,,,,,,,,,,,,,,,,,,,,,,,,,,,,,,,,,,,,,,,,,,,,,,,,,,,,,,,,,,,,,,,,,,,,,,,,,,,,,,,,,,,,,,,,,,,,,,,,,,,,,,,,,,,,,,,,,,,,,,
0,33,33,45,1,,5e10ad92a6eb6078856a5067,62bbfb66b97729c39df35892,2022-06-29_08h13.33.070,Colour_Asymmetry_Pilot,2022.1.3,MacIntel,9.979442349,62bbe60bf3d75ef465d3e404,,,,,,,,,,,,,,,,,,,,,,,,,,,,,,,,,,,,,,,,,,,,,,,,,,,,,,,,,,,,,,,,,,,,,,,,,,,,,,,,,,,,,,,,,,,,,,,,,,,,,,,,,,,,,,,,,,,,,,,,,,,,,,,,,,,,,,,,,,,,,,,,,,,,,,,,,,,,,,
0,34,34,31,1,,5e10ad92a6eb6078856a5067,62bbfb66b97729c39df35892,2022-06-29_08h13.33.070,Colour_Asymmetry_Pilot,2022.1.3,MacIntel,9.979442349,62bbe60bf3d75ef465d3e404,,,,,,,,,,,,,,,,,,,,,,,,,,,,,,,,,,,,,,,,,,,,,,,,,,,,,,,,,,,,,,,,,,,,,,,,,,,,,,,,,,,,,,,,,,,,,,,,,,,,,,,,,,,,,,,,,,,,,,,,,,,,,,,,,,,,,,,,,,,,,,,,,,,,,,,,,,,,,,
0,35,35,67,1,,5e10ad92a6eb6078856a5067,62bbfb66b97729c39df35892,2022-06-29_08h13.33.070,Colour_Asymmetry_Pilot,2022.1.3,MacIntel,9.979442349,62bbe60bf3d75ef465d3e404,,,,,,,,,,,,,,,,,,,,,,,,,,,,,,,,,,,,,,,,,,,,,,,,,,,,,,,,,,,,,,,,,,,,,,,,,,,,,,,,,,,,,,,,,,,,,,,,,,,,,,,,,,,,,,,,,,,,,,,,,,,,,,,,,,,,,,,,,,,,,,,,,,,,,,,,,,,,,,
0,36,36,4,1,,5e10ad92a6eb6078856a5067,62bbfb66b97729c39df35892,2022-06-29_08h13.33.070,Colour_Asymmetry_Pilot,2022.1.3,MacIntel,9.979442349,62bbe60bf3d75ef465d3e404,,,,,,,,,,,,,,,,,,,,,,,,,,,,,,,,,,,,,,,,,,,,,,,,,,,,,,,,,,,,,,,,,,,,,,,,,,,,,,,,,,,,,,,,,,,,,,,,,,,,,,,,,,,,,,,,,,,,,,,,,,,,,,,,,,,,,,,,,,,,,,,,,,,,,,,,,,,,,,
0,37,37,89,1,,5e10ad92a6eb6078856a5067,62bbfb66b97729c39df35892,2022-06-29_08h13.33.070,Colour_Asymmetry_Pilot,2022.1.3,MacIntel,9.979442349,62bbe60bf3d75ef465d3e404,,,,,,,,,,,,,,,,,,,,,,,,,,,,,,,,,,,,,,,,,,,,,,,,,,,,,,,,,,,,,,,,,,,,,,,,,,,,,,,,,,,,,,,,,,,,,,,,,,,,,,,,,,,,,,,,,,,,,,,,,,,,,,,,,,,,,,,,,,,,,,,,,,,,,,,,,,,,,,
0,38,38,55,1,,5e10ad92a6eb6078856a5067,62bbfb66b97729c39df35892,2022-06-29_08h13.33.070,Colour_Asymmetry_Pilot,2022.1.3,MacIntel,9.979442349,62bbe60bf3d75ef465d3e404,,,,,,,,,,,,,,,,,,,,,,,,,,,,,,,,,,,,,,,,,,,,,,,,,,,,,,,,,,,,,,,,,,,,,,,,,,,,,,,,,,,,,,,,,,,,,,,,,,,,,,,,,,,,,,,,,,,,,,,,,,,,,,,,,,,,,,,,,,,,,,,,,,,,,,,,,,,,,,
0,39,39,92,1,,5e10ad92a6eb6078856a5067,62bbfb66b97729c39df35892,2022-06-29_08h13.33.070,Colour_Asymmetry_Pilot,2022.1.3,MacIntel,9.979442349,62bbe60bf3d75ef465d3e404,,,,,,,,,,,,,,,,,,,,,,,,,,,,,,,,,,,,,,,,,,,,,,,,,,,,,,,,,,,,,,,,,,,,,,,,,,,,,,,,,,,,,,,,,,,,,,,,,,,,,,,,,,,,,,,,,,,,,,,,,,,,,,,,,,,,,,,,,,,,,,,,,,,,,,,,,,,,,,
0,40,40,70,1,,5e10ad92a6eb6078856a5067,62bbfb66b97729c39df35892,2022-06-29_08h13.33.070,Colour_Asymmetry_Pilot,2022.1.3,MacIntel,9.979442349,62bbe60bf3d75ef465d3e404,,,,,,,,,,,,,,,,,,,,,,,,,,,,,,,,,,,,,,,,,,,,,,,,,,,,,,,,,,,,,,,,,,,,,,,,,,,,,,,,,,,,,,,,,,,,,,,,,,,,,,,,,,,,,,,,,,,,,,,,,,,,,,,,,,,,,,,,,,,,,,,,,,,,,,,,,,,,,,
0,41,41,35,1,,5e10ad92a6eb6078856a5067,62bbfb66b97729c39df35892,2022-06-29_08h13.33.070,Colour_Asymmetry_Pilot,2022.1.3,MacIntel,9.979442349,62bbe60bf3d75ef465d3e404,,,,,,,,,,,,,,,,,,,,,,,,,,,,,,,,,,,,,,,,,,,,,,,,,,,,,,,,,,,,,,,,,,,,,,,,,,,,,,,,,,,,,,,,,,,,,,,,,,,,,,,,,,,,,,,,,,,,,,,,,,,,,,,,,,,,,,,,,,,,,,,,,,,,,,,,,,,,,,
0,42,42,2,1,,5e10ad92a6eb6078856a5067,62bbfb66b97729c39df35892,2022-06-29_08h13.33.070,Colour_Asymmetry_Pilot,2022.1.3,MacIntel,9.979442349,62bbe60bf3d75ef465d3e404,,,,,,,,,,,,,,,,,,,,,,,,,,,,,,,,,,,,,,,,,,,,,,,,,,,,,,,,,,,,,,,,,,,,,,,,,,,,,,,,,,,,,,,,,,,,,,,,,,,,,,,,,,,,,,,,,,,,,,,,,,,,,,,,,,,,,,,,,,,,,,,,,,,,,,,,,,,,,,
0,43,43,84,1,,5e10ad92a6eb6078856a5067,62bbfb66b97729c39df35892,2022-06-29_08h13.33.070,Colour_Asymmetry_Pilot,2022.1.3,MacIntel,9.979442349,62bbe60bf3d75ef465d3e404,,,,,,,,,,,,,,,,,,,,,,,,,,,,,,,,,,,,,,,,,,,,,,,,,,,,,,,,,,,,,,,,,,,,,,,,,,,,,,,,,,,,,,,,,,,,,,,,,,,,,,,,,,,,,,,,,,,,,,,,,,,,,,,,,,,,,,,,,,,,,,,,,,,,,,,,,,,,,,
0,44,44,65,1,,5e10ad92a6eb6078856a5067,62bbfb66b97729c39df35892,2022-06-29_08h13.33.070,Colour_Asymmetry_Pilot,2022.1.3,MacIntel,9.979442349,62bbe60bf3d75ef465d3e404,,,,,,,,,,,,,,,,,,,,,,,,,,,,,,,,,,,,,,,,,,,,,,,,,,,,,,,,,,,,,,,,,,,,,,,,,,,,,,,,,,,,,,,,,,,,,,,,,,,,,,,,,,,,,,,,,,,,,,,,,,,,,,,,,,,,,,,,,,,,,,,,,,,,,,,,,,,,,,
0,45,45,20,1,,5e10ad92a6eb6078856a5067,62bbfb66b97729c39df35892,2022-06-29_08h13.33.070,Colour_Asymmetry_Pilot,2022.1.3,MacIntel,9.979442349,62bbe60bf3d75ef465d3e404,,,,,,,,,,,,,,,,,,,,,,,,,,,,,,,,,,,,,,,,,,,,,,,,,,,,,,,,,,,,,,,,,,,,,,,,,,,,,,,,,,,,,,,,,,,,,,,,,,,,,,,,,,,,,,,,,,,,,,,,,,,,,,,,,,,,,,,,,,,,,,,,,,,,,,,,,,,,,,
0,46,46,30,1,,5e10ad92a6eb6078856a5067,62bbfb66b97729c39df35892,2022-06-29_08h13.33.070,Colour_Asymmetry_Pilot,2022.1.3,MacIntel,9.979442349,62bbe60bf3d75ef465d3e404,,,,,,,,,,,,,,,,,,,,,,,,,,,,,,,,,,,,,,,,,,,,,,,,,,,,,,,,,,,,,,,,,,,,,,,,,,,,,,,,,,,,,,,,,,,,,,,,,,,,,,,,,,,,,,,,,,,,,,,,,,,,,,,,,,,,,,,,,,,,,,,,,,,,,,,,,,,,,,
0,47,47,83,1,,5e10ad92a6eb6078856a5067,62bbfb66b97729c39df35892,2022-06-29_08h13.33.070,Colour_Asymmetry_Pilot,2022.1.3,MacIntel,9.979442349,62bbe60bf3d75ef465d3e404,,,,,,,,,,,,,,,,,,,,,,,,,,,,,,,,,,,,,,,,,,,,,,,,,,,,,,,,,,,,,,,,,,,,,,,,,,,,,,,,,,,,,,,,,,,,,,,,,,,,,,,,,,,,,,,,,,,,,,,,,,,,,,,,,,,,,,,,,,,,,,,,,,,,,,,,,,,,,,
0,48,48,5,1,,5e10ad92a6eb6078856a5067,62bbfb66b97729c39df35892,2022-06-29_08h13.33.070,Colour_Asymmetry_Pilot,2022.1.3,MacIntel,9.979442349,62bbe60bf3d75ef465d3e404,,,,,,,,,,,,,,,,,,,,,,,,,,,,,,,,,,,,,,,,,,,,,,,,,,,,,,,,,,,,,,,,,,,,,,,,,,,,,,,,,,,,,,,,,,,,,,,,,,,,,,,,,,,,,,,,,,,,,,,,,,,,,,,,,,,,,,,,,,,,,,,,,,,,,,,,,,,,,,
0,49,49,74,1,,5e10ad92a6eb6078856a5067,62bbfb66b97729c39df35892,2022-06-29_08h13.33.070,Colour_Asymmetry_Pilot,2022.1.3,MacIntel,9.979442349,62bbe60bf3d75ef465d3e404,,,,,,,,,,,,,,,,,,,,,,,,,,,,,,,,,,,,,,,,,,,,,,,,,,,,,,,,,,,,,,,,,,,,,,,,,,,,,,,,,,,,,,,,,,,,,,,,,,,,,,,,,,,,,,,,,,,,,,,,,,,,,,,,,,,,,,,,,,,,,,,,,,,,,,,,,,,,,,
0,50,50,50,1,,5e10ad92a6eb6078856a5067,62bbfb66b97729c39df35892,2022-06-29_08h13.33.070,Colour_Asymmetry_Pilot,2022.1.3,MacIntel,9.979442349,62bbe60bf3d75ef465d3e404,,,,,,,,,,,,,,,,,,,,,,,,,,,,,,,,,,,,,,,,,,,,,,,,,,,,,,,,,,,,,,,,,,,,,,,,,,,,,,,,,,,,,,,,,,,,,,,,,,,,,,,,,,,,,,,,,,,,,,,,,,,,,,,,,,,,,,,,,,,,,,,,,,,,,,,,,,,,,,
0,51,51,36,1,,5e10ad92a6eb6078856a5067,62bbfb66b97729c39df35892,2022-06-29_08h13.33.070,Colour_Asymmetry_Pilot,2022.1.3,MacIntel,9.979442349,62bbe60bf3d75ef465d3e404,,,,,,,,,,,,,,,,,,,,,,,,,,,,,,,,,,,,,,,,,,,,,,,,,,,,,,,,,,,,,,,,,,,,,,,,,,,,,,,,,,,,,,,,,,,,,,,,,,,,,,,,,,,,,,,,,,,,,,,,,,,,,,,,,,,,,,,,,,,,,,,,,,,,,,,,,,,,,,
0,52,52,85,1,,5e10ad92a6eb6078856a5067,62bbfb66b97729c39df35892,2022-06-29_08h13.33.070,Colour_Asymmetry_Pilot,2022.1.3,MacIntel,9.979442349,62bbe60bf3d75ef465d3e404,,,,,,,,,,,,,,,,,,,,,,,,,,,,,,,,,,,,,,,,,,,,,,,,,,,,,,,,,,,,,,,,,,,,,,,,,,,,,,,,,,,,,,,,,,,,,,,,,,,,,,,,,,,,,,,,,,,,,,,,,,,,,,,,,,,,,,,,,,,,,,,,,,,,,,,,,,,,,,
0,53,53,16,1,,5e10ad92a6eb6078856a5067,62bbfb66b97729c39df35892,2022-06-29_08h13.33.070,Colour_Asymmetry_Pilot,2022.1.3,MacIntel,9.979442349,62bbe60bf3d75ef465d3e404,,,,,,,,,,,,,,,,,,,,,,,,,,,,,,,,,,,,,,,,,,,,,,,,,,,,,,,,,,,,,,,,,,,,,,,,,,,,,,,,,,,,,,,,,,,,,,,,,,,,,,,,,,,,,,,,,,,,,,,,,,,,,,,,,,,,,,,,,,,,,,,,,,,,,,,,,,,,,,
0,54,54,26,1,,5e10ad92a6eb6078856a5067,62bbfb66b97729c39df35892,2022-06-29_08h13.33.070,Colour_Asymmetry_Pilot,2022.1.3,MacIntel,9.979442349,62bbe60bf3d75ef465d3e404,,,,,,,,,,,,,,,,,,,,,,,,,,,,,,,,,,,,,,,,,,,,,,,,,,,,,,,,,,,,,,,,,,,,,,,,,,,,,,,,,,,,,,,,,,,,,,,,,,,,,,,,,,,,,,,,,,,,,,,,,,,,,,,,,,,,,,,,,,,,,,,,,,,,,,,,,,,,,,
0,55,55,63,1,,5e10ad92a6eb6078856a5067,62bbfb66b97729c39df35892,2022-06-29_08h13.33.070,Colour_Asymmetry_Pilot,2022.1.3,MacIntel,9.979442349,62bbe60bf3d75ef465d3e404,,,,,,,,,,,,,,,,,,,,,,,,,,,,,,,,,,,,,,,,,,,,,,,,,,,,,,,,,,,,,,,,,,,,,,,,,,,,,,,,,,,,,,,,,,,,,,,,,,,,,,,,,,,,,,,,,,,,,,,,,,,,,,,,,,,,,,,,,,,,,,,,,,,,,,,,,,,,,,
0,56,56,51,1,,5e10ad92a6eb6078856a5067,62bbfb66b97729c39df35892,2022-06-29_08h13.33.070,Colour_Asymmetry_Pilot,2022.1.3,MacIntel,9.979442349,62bbe60bf3d75ef465d3e404,,,,,,,,,,,,,,,,,,,,,,,,,,,,,,,,,,,,,,,,,,,,,,,,,,,,,,,,,,,,,,,,,,,,,,,,,,,,,,,,,,,,,,,,,,,,,,,,,,,,,,,,,,,,,,,,,,,,,,,,,,,,,,,,,,,,,,,,,,,,,,,,,,,,,,,,,,,,,,
0,57,57,57,1,,5e10ad92a6eb6078856a5067,62bbfb66b97729c39df35892,2022-06-29_08h13.33.070,Colour_Asymmetry_Pilot,2022.1.3,MacIntel,9.979442349,62bbe60bf3d75ef465d3e404,,,,,,,,,,,,,,,,,,,,,,,,,,,,,,,,,,,,,,,,,,,,,,,,,,,,,,,,,,,,,,,,,,,,,,,,,,,,,,,,,,,,,,,,,,,,,,,,,,,,,,,,,,,,,,,,,,,,,,,,,,,,,,,,,,,,,,,,,,,,,,,,,,,,,,,,,,,,,,
0,58,58,28,1,,5e10ad92a6eb6078856a5067,62bbfb66b97729c39df35892,2022-06-29_08h13.33.070,Colour_Asymmetry_Pilot,2022.1.3,MacIntel,9.979442349,62bbe60bf3d75ef465d3e404,,,,,,,,,,,,,,,,,,,,,,,,,,,,,,,,,,,,,,,,,,,,,,,,,,,,,,,,,,,,,,,,,,,,,,,,,,,,,,,,,,,,,,,,,,,,,,,,,,,,,,,,,,,,,,,,,,,,,,,,,,,,,,,,,,,,,,,,,,,,,,,,,,,,,,,,,,,,,,
0,59,59,40,1,,5e10ad92a6eb6078856a5067,62bbfb66b97729c39df35892,2022-06-29_08h13.33.070,Colour_Asymmetry_Pilot,2022.1.3,MacIntel,9.979442349,62bbe60bf3d75ef465d3e404,,,,,,,,,,,,,,,,,,,,,,,,,,,,,,,,,,,,,,,,,,,,,,,,,,,,,,,,,,,,,,,,,,,,,,,,,,,,,,,,,,,,,,,,,,,,,,,,,,,,,,,,,,,,,,,,,,,,,,,,,,,,,,,,,,,,,,,,,,,,,,,,,,,,,,,,,,,,,,
0,60,60,91,1,,5e10ad92a6eb6078856a5067,62bbfb66b97729c39df35892,2022-06-29_08h13.33.070,Colour_Asymmetry_Pilot,2022.1.3,MacIntel,9.979442349,62bbe60bf3d75ef465d3e404,,,,,,,,,,,,,,,,,,,,,,,,,,,,,,,,,,,,,,,,,,,,,,,,,,,,,,,,,,,,,,,,,,,,,,,,,,,,,,,,,,,,,,,,,,,,,,,,,,,,,,,,,,,,,,,,,,,,,,,,,,,,,,,,,,,,,,,,,,,,,,,,,,,,,,,,,,,,,,
0,61,61,52,1,,5e10ad92a6eb6078856a5067,62bbfb66b97729c39df35892,2022-06-29_08h13.33.070,Colour_Asymmetry_Pilot,2022.1.3,MacIntel,9.979442349,62bbe60bf3d75ef465d3e404,,,,,,,,,,,,,,,,,,,,,,,,,,,,,,,,,,,,,,,,,,,,,,,,,,,,,,,,,,,,,,,,,,,,,,,,,,,,,,,,,,,,,,,,,,,,,,,,,,,,,,,,,,,,,,,,,,,,,,,,,,,,,,,,,,,,,,,,,,,,,,,,,,,,,,,,,,,,,,
0,62,62,23,1,,5e10ad92a6eb6078856a5067,62bbfb66b97729c39df35892,2022-06-29_08h13.33.070,Colour_Asymmetry_Pilot,2022.1.3,MacIntel,9.979442349,62bbe60bf3d75ef465d3e404,,,,,,,,,,,,,,,,,,,,,,,,,,,,,,,,,,,,,,,,,,,,,,,,,,,,,,,,,,,,,,,,,,,,,,,,,,,,,,,,,,,,,,,,,,,,,,,,,,,,,,,,,,,,,,,,,,,,,,,,,,,,,,,,,,,,,,,,,,,,,,,,,,,,,,,,,,,,,,
0,63,63,59,1,,5e10ad92a6eb6078856a5067,62bbfb66b97729c39df35892,2022-06-29_08h13.33.070,Colour_Asymmetry_Pilot,2022.1.3,MacIntel,9.979442349,62bbe60bf3d75ef465d3e404,,,,,,,,,,,,,,,,,,,,,,,,,,,,,,,,,,,,,,,,,,,,,,,,,,,,,,,,,,,,,,,,,,,,,,,,,,,,,,,,,,,,,,,,,,,,,,,,,,,,,,,,,,,,,,,,,,,,,,,,,,,,,,,,,,,,,,,,,,,,,,,,,,,,,,,,,,,,,,
0,64,64,25,1,,5e10ad92a6eb6078856a5067,62bbfb66b97729c39df35892,2022-06-29_08h13.33.070,Colour_Asymmetry_Pilot,2022.1.3,MacIntel,9.979442349,62bbe60bf3d75ef465d3e404,,,,,,,,,,,,,,,,,,,,,,,,,,,,,,,,,,,,,,,,,,,,,,,,,,,,,,,,,,,,,,,,,,,,,,,,,,,,,,,,,,,,,,,,,,,,,,,,,,,,,,,,,,,,,,,,,,,,,,,,,,,,,,,,,,,,,,,,,,,,,,,,,,,,,,,,,,,,,,
0,65,65,82,1,,5e10ad92a6eb6078856a5067,62bbfb66b97729c39df35892,2022-06-29_08h13.33.070,Colour_Asymmetry_Pilot,2022.1.3,MacIntel,9.979442349,62bbe60bf3d75ef465d3e404,,,,,,,,,,,,,,,,,,,,,,,,,,,,,,,,,,,,,,,,,,,,,,,,,,,,,,,,,,,,,,,,,,,,,,,,,,,,,,,,,,,,,,,,,,,,,,,,,,,,,,,,,,,,,,,,,,,,,,,,,,,,,,,,,,,,,,,,,,,,,,,,,,,,,,,,,,,,,,
0,66,66,79,1,,5e10ad92a6eb6078856a5067,62bbfb66b97729c39df35892,2022-06-29_08h13.33.070,Colour_Asymmetry_Pilot,2022.1.3,MacIntel,9.979442349,62bbe60bf3d75ef465d3e404,,,,,,,,,,,,,,,,,,,,,,,,,,,,,,,,,,,,,,,,,,,,,,,,,,,,,,,,,,,,,,,,,,,,,,,,,,,,,,,,,,,,,,,,,,,,,,,,,,,,,,,,,,,,,,,,,,,,,,,,,,,,,,,,,,,,,,,,,,,,,,,,,,,,,,,,,,,,,,
0,67,67,11,1,,5e10ad92a6eb6078856a5067,62bbfb66b97729c39df35892,2022-06-29_08h13.33.070,Colour_Asymmetry_Pilot,2022.1.3,MacIntel,9.979442349,62bbe60bf3d75ef465d3e404,,,,,,,,,,,,,,,,,,,,,,,,,,,,,,,,,,,,,,,,,,,,,,,,,,,,,,,,,,,,,,,,,,,,,,,,,,,,,,,,,,,,,,,,,,,,,,,,,,,,,,,,,,,,,,,,,,,,,,,,,,,,,,,,,,,,,,,,,,,,,,,,,,,,,,,,,,,,,,
0,68,68,86,1,,5e10ad92a6eb6078856a5067,62bbfb66b97729c39df35892,2022-06-29_08h13.33.070,Colour_Asymmetry_Pilot,2022.1.3,MacIntel,9.979442349,62bbe60bf3d75ef465d3e404,,,,,,,,,,,,,,,,,,,,,,,,,,,,,,,,,,,,,,,,,,,,,,,,,,,,,,,,,,,,,,,,,,,,,,,,,,,,,,,,,,,,,,,,,,,,,,,,,,,,,,,,,,,,,,,,,,,,,,,,,,,,,,,,,,,,,,,,,,,,,,,,,,,,,,,,,,,,,,
0,69,69,39,1,,5e10ad92a6eb6078856a5067,62bbfb66b97729c39df35892,2022-06-29_08h13.33.070,Colour_Asymmetry_Pilot,2022.1.3,MacIntel,9.979442349,62bbe60bf3d75ef465d3e404,,,,,,,,,,,,,,,,,,,,,,,,,,,,,,,,,,,,,,,,,,,,,,,,,,,,,,,,,,,,,,,,,,,,,,,,,,,,,,,,,,,,,,,,,,,,,,,,,,,,,,,,,,,,,,,,,,,,,,,,,,,,,,,,,,,,,,,,,,,,,,,,,,,,,,,,,,,,,,
0,70,70,27,1,,5e10ad92a6eb6078856a5067,62bbfb66b97729c39df35892,2022-06-29_08h13.33.070,Colour_Asymmetry_Pilot,2022.1.3,MacIntel,9.979442349,62bbe60bf3d75ef465d3e404,,,,,,,,,,,,,,,,,,,,,,,,,,,,,,,,,,,,,,,,,,,,,,,,,,,,,,,,,,,,,,,,,,,,,,,,,,,,,,,,,,,,,,,,,,,,,,,,,,,,,,,,,,,,,,,,,,,,,,,,,,,,,,,,,,,,,,,,,,,,,,,,,,,,,,,,,,,,,,
0,71,71,32,1,,5e10ad92a6eb6078856a5067,62bbfb66b97729c39df35892,2022-06-29_08h13.33.070,Colour_Asymmetry_Pilot,2022.1.3,MacIntel,9.979442349,62bbe60bf3d75ef465d3e404,,,,,,,,,,,,,,,,,,,,,,,,,,,,,,,,,,,,,,,,,,,,,,,,,,,,,,,,,,,,,,,,,,,,,,,,,,,,,,,,,,,,,,,,,,,,,,,,,,,,,,,,,,,,,,,,,,,,,,,,,,,,,,,,,,,,,,,,,,,,,,,,,,,,,,,,,,,,,,
0,72,72,43,1,,5e10ad92a6eb6078856a5067,62bbfb66b97729c39df35892,2022-06-29_08h13.33.070,Colour_Asymmetry_Pilot,2022.1.3,MacIntel,9.979442349,62bbe60bf3d75ef465d3e404,,,,,,,,,,,,,,,,,,,,,,,,,,,,,,,,,,,,,,,,,,,,,,,,,,,,,,,,,,,,,,,,,,,,,,,,,,,,,,,,,,,,,,,,,,,,,,,,,,,,,,,,,,,,,,,,,,,,,,,,,,,,,,,,,,,,,,,,,,,,,,,,,,,,,,,,,,,,,,
0,73,73,15,1,,5e10ad92a6eb6078856a5067,62bbfb66b97729c39df35892,2022-06-29_08h13.33.070,Colour_Asymmetry_Pilot,2022.1.3,MacIntel,9.979442349,62bbe60bf3d75ef465d3e404,,,,,,,,,,,,,,,,,,,,,,,,,,,,,,,,,,,,,,,,,,,,,,,,,,,,,,,,,,,,,,,,,,,,,,,,,,,,,,,,,,,,,,,,,,,,,,,,,,,,,,,,,,,,,,,,,,,,,,,,,,,,,,,,,,,,,,,,,,,,,,,,,,,,,,,,,,,,,,
0,74,74,77,1,,5e10ad92a6eb6078856a5067,62bbfb66b97729c39df35892,2022-06-29_08h13.33.070,Colour_Asymmetry_Pilot,2022.1.3,MacIntel,9.979442349,62bbe60bf3d75ef465d3e404,,,,,,,,,,,,,,,,,,,,,,,,,,,,,,,,,,,,,,,,,,,,,,,,,,,,,,,,,,,,,,,,,,,,,,,,,,,,,,,,,,,,,,,,,,,,,,,,,,,,,,,,,,,,,,,,,,,,,,,,,,,,,,,,,,,,,,,,,,,,,,,,,,,,,,,,,,,,,,
0,75,75,54,1,,5e10ad92a6eb6078856a5067,62bbfb66b97729c39df35892,2022-06-29_08h13.33.070,Colour_Asymmetry_Pilot,2022.1.3,MacIntel,9.979442349,62bbe60bf3d75ef465d3e404,,,,,,,,,,,,,,,,,,,,,,,,,,,,,,,,,,,,,,,,,,,,,,,,,,,,,,,,,,,,,,,,,,,,,,,,,,,,,,,,,,,,,,,,,,,,,,,,,,,,,,,,,,,,,,,,,,,,,,,,,,,,,,,,,,,,,,,,,,,,,,,,,,,,,,,,,,,,,,
0,76,76,19,1,,5e10ad92a6eb6078856a5067,62bbfb66b97729c39df35892,2022-06-29_08h13.33.070,Colour_Asymmetry_Pilot,2022.1.3,MacIntel,9.979442349,62bbe60bf3d75ef465d3e404,,,,,,,,,,,,,,,,,,,,,,,,,,,,,,,,,,,,,,,,,,,,,,,,,,,,,,,,,,,,,,,,,,,,,,,,,,,,,,,,,,,,,,,,,,,,,,,,,,,,,,,,,,,,,,,,,,,,,,,,,,,,,,,,,,,,,,,,,,,,,,,,,,,,,,,,,,,,,,
0,77,77,88,1,,5e10ad92a6eb6078856a5067,62bbfb66b97729c39df35892,2022-06-29_08h13.33.070,Colour_Asymmetry_Pilot,2022.1.3,MacIntel,9.979442349,62bbe60bf3d75ef465d3e404,,,,,,,,,,,,,,,,,,,,,,,,,,,,,,,,,,,,,,,,,,,,,,,,,,,,,,,,,,,,,,,,,,,,,,,,,,,,,,,,,,,,,,,,,,,,,,,,,,,,,,,,,,,,,,,,,,,,,,,,,,,,,,,,,,,,,,,,,,,,,,,,,,,,,,,,,,,,,,
0,78,78,14,1,,5e10ad92a6eb6078856a5067,62bbfb66b97729c39df35892,2022-06-29_08h13.33.070,Colour_Asymmetry_Pilot,2022.1.3,MacIntel,9.979442349,62bbe60bf3d75ef465d3e404,,,,,,,,,,,,,,,,,,,,,,,,,,,,,,,,,,,,,,,,,,,,,,,,,,,,,,,,,,,,,,,,,,,,,,,,,,,,,,,,,,,,,,,,,,,,,,,,,,,,,,,,,,,,,,,,,,,,,,,,,,,,,,,,,,,,,,,,,,,,,,,,,,,,,,,,,,,,,,
0,79,79,44,1,,5e10ad92a6eb6078856a5067,62bbfb66b97729c39df35892,2022-06-29_08h13.33.070,Colour_Asymmetry_Pilot,2022.1.3,MacIntel,9.979442349,62bbe60bf3d75ef465d3e404,,,,,,,,,,,,,,,,,,,,,,,,,,,,,,,,,,,,,,,,,,,,,,,,,,,,,,,,,,,,,,,,,,,,,,,,,,,,,,,,,,,,,,,,,,,,,,,,,,,,,,,,,,,,,,,,,,,,,,,,,,,,,,,,,,,,,,,,,,,,,,,,,,,,,,,,,,,,,,
0,80,80,62,1,,5e10ad92a6eb6078856a5067,62bbfb66b97729c39df35892,2022-06-29_08h13.33.070,Colour_Asymmetry_Pilot,2022.1.3,MacIntel,9.979442349,62bbe60bf3d75ef465d3e404,,,,,,,,,,,,,,,,,,,,,,,,,,,,,,,,,,,,,,,,,,,,,,,,,,,,,,,,,,,,,,,,,,,,,,,,,,,,,,,,,,,,,,,,,,,,,,,,,,,,,,,,,,,,,,,,,,,,,,,,,,,,,,,,,,,,,,,,,,,,,,,,,,,,,,,,,,,,,,
0,81,81,53,1,,5e10ad92a6eb6078856a5067,62bbfb66b97729c39df35892,2022-06-29_08h13.33.070,Colour_Asymmetry_Pilot,2022.1.3,MacIntel,9.979442349,62bbe60bf3d75ef465d3e404,,,,,,,,,,,,,,,,,,,,,,,,,,,,,,,,,,,,,,,,,,,,,,,,,,,,,,,,,,,,,,,,,,,,,,,,,,,,,,,,,,,,,,,,,,,,,,,,,,,,,,,,,,,,,,,,,,,,,,,,,,,,,,,,,,,,,,,,,,,,,,,,,,,,,,,,,,,,,,
0,82,82,64,1,,5e10ad92a6eb6078856a5067,62bbfb66b97729c39df35892,2022-06-29_08h13.33.070,Colour_Asymmetry_Pilot,2022.1.3,MacIntel,9.979442349,62bbe60bf3d75ef465d3e404,,,,,,,,,,,,,,,,,,,,,,,,,,,,,,,,,,,,,,,,,,,,,,,,,,,,,,,,,,,,,,,,,,,,,,,,,,,,,,,,,,,,,,,,,,,,,,,,,,,,,,,,,,,,,,,,,,,,,,,,,,,,,,,,,,,,,,,,,,,,,,,,,,,,,,,,,,,,,,
0,83,83,29,1,,5e10ad92a6eb6078856a5067,62bbfb66b97729c39df35892,2022-06-29_08h13.33.070,Colour_Asymmetry_Pilot,2022.1.3,MacIntel,9.979442349,62bbe60bf3d75ef465d3e404,,,,,,,,,,,,,,,,,,,,,,,,,,,,,,,,,,,,,,,,,,,,,,,,,,,,,,,,,,,,,,,,,,,,,,,,,,,,,,,,,,,,,,,,,,,,,,,,,,,,,,,,,,,,,,,,,,,,,,,,,,,,,,,,,,,,,,,,,,,,,,,,,,,,,,,,,,,,,,
0,84,84,21,1,,5e10ad92a6eb6078856a5067,62bbfb66b97729c39df35892,2022-06-29_08h13.33.070,Colour_Asymmetry_Pilot,2022.1.3,MacIntel,9.979442349,62bbe60bf3d75ef465d3e404,,,,,,,,,,,,,,,,,,,,,,,,,,,,,,,,,,,,,,,,,,,,,,,,,,,,,,,,,,,,,,,,,,,,,,,,,,,,,,,,,,,,,,,,,,,,,,,,,,,,,,,,,,,,,,,,,,,,,,,,,,,,,,,,,,,,,,,,,,,,,,,,,,,,,,,,,,,,,,
0,85,85,6,1,,5e10ad92a6eb6078856a5067,62bbfb66b97729c39df35892,2022-06-29_08h13.33.070,Colour_Asymmetry_Pilot,2022.1.3,MacIntel,9.979442349,62bbe60bf3d75ef465d3e404,,,,,,,,,,,,,,,,,,,,,,,,,,,,,,,,,,,,,,,,,,,,,,,,,,,,,,,,,,,,,,,,,,,,,,,,,,,,,,,,,,,,,,,,,,,,,,,,,,,,,,,,,,,,,,,,,,,,,,,,,,,,,,,,,,,,,,,,,,,,,,,,,,,,,,,,,,,,,,
0,86,86,61,1,,5e10ad92a6eb6078856a5067,62bbfb66b97729c39df35892,2022-06-29_08h13.33.070,Colour_Asymmetry_Pilot,2022.1.3,MacIntel,9.979442349,62bbe60bf3d75ef465d3e404,,,,,,,,,,,,,,,,,,,,,,,,,,,,,,,,,,,,,,,,,,,,,,,,,,,,,,,,,,,,,,,,,,,,,,,,,,,,,,,,,,,,,,,,,,,,,,,,,,,,,,,,,,,,,,,,,,,,,,,,,,,,,,,,,,,,,,,,,,,,,,,,,,,,,,,,,,,,,,
0,87,87,72,1,,5e10ad92a6eb6078856a5067,62bbfb66b97729c39df35892,2022-06-29_08h13.33.070,Colour_Asymmetry_Pilot,2022.1.3,MacIntel,9.979442349,62bbe60bf3d75ef465d3e404,,,,,,,,,,,,,,,,,,,,,,,,,,,,,,,,,,,,,,,,,,,,,,,,,,,,,,,,,,,,,,,,,,,,,,,,,,,,,,,,,,,,,,,,,,,,,,,,,,,,,,,,,,,,,,,,,,,,,,,,,,,,,,,,,,,,,,,,,,,,,,,,,,,,,,,,,,,,,,
0,88,88,60,1,,5e10ad92a6eb6078856a5067,62bbfb66b97729c39df35892,2022-06-29_08h13.33.070,Colour_Asymmetry_Pilot,2022.1.3,MacIntel,9.979442349,62bbe60bf3d75ef465d3e404,,,,,,,,,,,,,,,,,,,,,,,,,,,,,,,,,,,,,,,,,,,,,,,,,,,,,,,,,,,,,,,,,,,,,,,,,,,,,,,,,,,,,,,,,,,,,,,,,,,,,,,,,,,,,,,,,,,,,,,,,,,,,,,,,,,,,,,,,,,,,,,,,,,,,,,,,,,,,,
0,89,89,9,1,,5e10ad92a6eb6078856a5067,62bbfb66b97729c39df35892,2022-06-29_08h13.33.070,Colour_Asymmetry_Pilot,2022.1.3,MacIntel,9.979442349,62bbe60bf3d75ef465d3e404,,,,,,,,,,,,,,,,,,,,,,,,,,,,,,,,,,,,,,,,,,,,,,,,,,,,,,,,,,,,,,,,,,,,,,,,,,,,,,,,,,,,,,,,,,,,,,,,,,,,,,,,,,,,,,,,,,,,,,,,,,,,,,,,,,,,,,,,,,,,,,,,,,,,,,,,,,,,,,
0,90,90,56,1,,5e10ad92a6eb6078856a5067,62bbfb66b97729c39df35892,2022-06-29_08h13.33.070,Colour_Asymmetry_Pilot,2022.1.3,MacIntel,9.979442349,62bbe60bf3d75ef465d3e404,,,,,,,,,,,,,,,,,,,,,,,,,,,,,,,,,,,,,,,,,,,,,,,,,,,,,,,,,,,,,,,,,,,,,,,,,,,,,,,,,,,,,,,,,,,,,,,,,,,,,,,,,,,,,,,,,,,,,,,,,,,,,,,,,,,,,,,,,,,,,,,,,,,,,,,,,,,,,,
0,91,91,71,1,,5e10ad92a6eb6078856a5067,62bbfb66b97729c39df35892,2022-06-29_08h13.33.070,Colour_Asymmetry_Pilot,2022.1.3,MacIntel,9.979442349,62bbe60bf3d75ef465d3e404,,,,,,,,,,,,,,,,,,,,,,,,,,,,,,,,,,,,,,,,,,,,,,,,,,,,,,,,,,,,,,,,,,,,,,,,,,,,,,,,,,,,,,,,,,,,,,,,,,,,,,,,,,,,,,,,,,,,,,,,,,,,,,,,,,,,,,,,,,,,,,,,,,,,,,,,,,,,,,
0,92,92,37,1,,5e10ad92a6eb6078856a5067,62bbfb66b97729c39df35892,2022-06-29_08h13.33.070,Colour_Asymmetry_Pilot,2022.1.3,MacIntel,9.979442349,62bbe60bf3d75ef465d3e404,,,,,,,,,,,,,,,,,,,,,,,,,,,,,,,,,,,,,,,,,,,,,,,,,,,,,,,,,,,,,,,,,,,,,,,,,,,,,,,,,,,,,,,,,,,,,,,,,,,,,,,,,,,,,,,,,,,,,,,,,,,,,,,,,,,,,,,,,,,,,,,,,,,,,,,,,,,,,,
,,,,,,5e10ad92a6eb6078856a5067,62bbfb66b97729c39df35892,2022-06-29_08h13.33.070,Colour_Asymmetry_Pilot,2022.1.3,MacIntel,9.979442349,62bbe60bf3d75ef465d3e404,0,0,0,112,1,onetwo,,,,,,,,,,,,,,,,,,,,,,,,,,,,,,,,,,,,,,,,,,,,,,,,,,,,,,,,,,,,,,,,,,,,,,,,,,,,,,,,,,,,,,,,,,,,,,,,,,,,,,,,,,,,,,,,,,,,,,,,,,,,,,,,,,,,,,,,,,,,,,,,,,,,,,,,
,,,,,,5e10ad92a6eb6078856a5067,62bbfb66b97729c39df35892,2022-06-29_08h13.33.070,Colour_Asymmetry_Pilot,2022.1.3,MacIntel,9.979442349,62bbe60bf3d75ef465d3e404,0,1,1,157,1,threefour,,,,,,,,,,,,,,,,,,,,,,,,,,,,,,,,,,,,,,,,,,,,,,,,,,,,,,,,,,,,,,,,,,,,,,,,,,,,,,,,,,,,,,,,,,,,,,,,,,,,,,,,,,,,,,,,,,,,,,,,,,,,,,,,,,,,,,,,,,,,,,,,,,,,,,,,
,,,,,,5e10ad92a6eb6078856a5067,62bbfb66b97729c39df35892,2022-06-29_08h13.33.070,Colour_Asymmetry_Pilot,2022.1.3,MacIntel,9.979442349,62bbe60bf3d75ef465d3e404,0,2,2,65,1,onethree,,,,,,,,,,,,,,,,,,,,,,,,,,,,,,,,,,,,,,,,,,,,,,,,,,,,,,,,,,,,,,,,,,,,,,,,,,,,,,,,,,,,,,,,,,,,,,,,,,,,,,,,,,,,,,,,,,,,,,,,,,,,,,,,,,,,,,,,,,,,,,,,,,,,,,,,
,,,,,,5e10ad92a6eb6078856a5067,62bbfb66b97729c39df35892,2022-06-29_08h13.33.070,Colour_Asymmetry_Pilot,2022.1.3,MacIntel,9.979442349,62bbe60bf3d75ef465d3e404,0,3,3,64,1,onetwo,,,,,,,,,,,,,,,,,,,,,,,,,,,,,,,,,,,,,,,,,,,,,,,,,,,,,,,,,,,,,,,,,,,,,,,,,,,,,,,,,,,,,,,,,,,,,,,,,,,,,,,,,,,,,,,,,,,,,,,,,,,,,,,,,,,,,,,,,,,,,,,,,,,,,,,,
,,,,,,5e10ad92a6eb6078856a5067,62bbfb66b97729c39df35892,2022-06-29_08h13.33.070,Colour_Asymmetry_Pilot,2022.1.3,MacIntel,9.979442349,62bbe60bf3d75ef465d3e404,0,4,4,57,1,onethree,,,,,,,,,,,,,,,,,,,,,,,,,,,,,,,,,,,,,,,,,,,,,,,,,,,,,,,,,,,,,,,,,,,,,,,,,,,,,,,,,,,,,,,,,,,,,,,,,,,,,,,,,,,,,,,,,,,,,,,,,,,,,,,,,,,,,,,,,,,,,,,,,,,,,,,,
,,,,,,5e10ad92a6eb6078856a5067,62bbfb66b97729c39df35892,2022-06-29_08h13.33.070,Colour_Asymmetry_Pilot,2022.1.3,MacIntel,9.979442349,62bbe60bf3d75ef465d3e404,0,5,5,32,1,onetwo,,,,,,,,,,,,,,,,,,,,,,,,,,,,,,,,,,,,,,,,,,,,,,,,,,,,,,,,,,,,,,,,,,,,,,,,,,,,,,,,,,,,,,,,,,,,,,,,,,,,,,,,,,,,,,,,,,,,,,,,,,,,,,,,,,,,,,,,,,,,,,,,,,,,,,,,
,,,,,,5e10ad92a6eb6078856a5067,62bbfb66b97729c39df35892,2022-06-29_08h13.33.070,Colour_Asymmetry_Pilot,2022.1.3,MacIntel,9.979442349,62bbe60bf3d75ef465d3e404,0,6,6,100,1,threeone,,,,,,,,,,,,,,,,,,,,,,,,,,,,,,,,,,,,,,,,,,,,,,,,,,,,,,,,,,,,,,,,,,,,,,,,,,,,,,,,,,,,,,,,,,,,,,,,,,,,,,,,,,,,,,,,,,,,,,,,,,,,,,,,,,,,,,,,,,,,,,,,,,,,,,,,
,,,,,,5e10ad92a6eb6078856a5067,62bbfb66b97729c39df35892,2022-06-29_08h13.33.070,Colour_Asymmetry_Pilot,2022.1.3,MacIntel,9.979442349,62bbe60bf3d75ef465d3e404,0,7,7,13,1,threefour,,,,,,,,,,,,,,,,,,,,,,,,,,,,,,,,,,,,,,,,,,,,,,,,,,,,,,,,,,,,,,,,,,,,,,,,,,,,,,,,,,,,,,,,,,,,,,,,,,,,,,,,,,,,,,,,,,,,,,,,,,,,,,,,,,,,,,,,,,,,,,,,,,,,,,,,
,,,,,,5e10ad92a6eb6078856a5067,62bbfb66b97729c39df35892,2022-06-29_08h13.33.070,Colour_Asymmetry_Pilot,2022.1.3,MacIntel,9.979442349,62bbe60bf3d75ef465d3e404,0,8,8,117,1,threefour,,,,,,,,,,,,,,,,,,,,,,,,,,,,,,,,,,,,,,,,,,,,,,,,,,,,,,,,,,,,,,,,,,,,,,,,,,,,,,,,,,,,,,,,,,,,,,,,,,,,,,,,,,,,,,,,,,,,,,,,,,,,,,,,,,,,,,,,,,,,,,,,,,,,,,,,
,,,,,,5e10ad92a6eb6078856a5067,62bbfb66b97729c39df35892,2022-06-29_08h13.33.070,Colour_Asymmetry_Pilot,2022.1.3,MacIntel,9.979442349,62bbe60bf3d75ef465d3e404,0,9,9,17,1,onethree,,,,,,,,,,,,,,,,,,,,,,,,,,,,,,,,,,,,,,,,,,,,,,,,,,,,,,,,,,,,,,,,,,,,,,,,,,,,,,,,,,,,,,,,,,,,,,,,,,,,,,,,,,,,,,,,,,,,,,,,,,,,,,,,,,,,,,,,,,,,,,,,,,,,,,,,
,,,,,,5e10ad92a6eb6078856a5067,62bbfb66b97729c39df35892,2022-06-29_08h13.33.070,Colour_Asymmetry_Pilot,2022.1.3,MacIntel,9.979442349,62bbe60bf3d75ef465d3e404,0,10,10,25,1,onethree,,,,,,,,,,,,,,,,,,,,,,,,,,,,,,,,,,,,,,,,,,,,,,,,,,,,,,,,,,,,,,,,,,,,,,,,,,,,,,,,,,,,,,,,,,,,,,,,,,,,,,,,,,,,,,,,,,,,,,,,,,,,,,,,,,,,,,,,,,,,,,,,,,,,,,,,
,,,,,,5e10ad92a6eb6078856a5067,62bbfb66b97729c39df35892,2022-06-29_08h13.33.070,Colour_Asymmetry_Pilot,2022.1.3,MacIntel,9.979442349,62bbe60bf3d75ef465d3e404,0,11,11,156,1,threeone,,,,,,,,,,,,,,,,,,,,,,,,,,,,,,,,,,,,,,,,,,,,,,,,,,,,,,,,,,,,,,,,,,,,,,,,,,,,,,,,,,,,,,,,,,,,,,,,,,,,,,,,,,,,,,,,,,,,,,,,,,,,,,,,,,,,,,,,,,,,,,,,,,,,,,,,
,,,,,,5e10ad92a6eb6078856a5067,62bbfb66b97729c39df35892,2022-06-29_08h13.33.070,Colour_Asymmetry_Pilot,2022.1.3,MacIntel,9.979442349,62bbe60bf3d75ef465d3e404,0,12,12,91,1,twofour,,,,,,,,,,,,,,,,,,,,,,,,,,,,,,,,,,,,,,,,,,,,,,,,,,,,,,,,,,,,,,,,,,,,,,,,,,,,,,,,,,,,,,,,,,,,,,,,,,,,,,,,,,,,,,,,,,,,,,,,,,,,,,,,,,,,,,,,,,,,,,,,,,,,,,,,
,,,,,,5e10ad92a6eb6078856a5067,62bbfb66b97729c39df35892,2022-06-29_08h13.33.070,Colour_Asymmetry_Pilot,2022.1.3,MacIntel,9.979442349,62bbe60bf3d75ef465d3e404,0,13,13,87,1,fourthree,,,,,,,,,,,,,,,,,,,,,,,,,,,,,,,,,,,,,,,,,,,,,,,,,,,,,,,,,,,,,,,,,,,,,,,,,,,,,,,,,,,,,,,,,,,,,,,,,,,,,,,,,,,,,,,,,,,,,,,,,,,,,,,,,,,,,,,,,,,,,,,,,,,,,,,,
,,,,,,5e10ad92a6eb6078856a5067,62bbfb66b97729c39df35892,2022-06-29_08h13.33.070,Colour_Asymmetry_Pilot,2022.1.3,MacIntel,9.979442349,62bbe60bf3d75ef465d3e404,0,14,14,27,1,twofour,,,,,,,,,,,,,,,,,,,,,,,,,,,,,,,,,,,,,,,,,,,,,,,,,,,,,,,,,,,,,,,,,,,,,,,,,,,,,,,,,,,,,,,,,,,,,,,,,,,,,,,,,,,,,,,,,,,,,,,,,,,,,,,,,,,,,,,,,,,,,,,,,,,,,,,,
,,,,,,5e10ad92a6eb6078856a5067,62bbfb66b97729c39df35892,2022-06-29_08h13.33.070,Colour_Asymmetry_Pilot,2022.1.3,MacIntel,9.979442349,62bbe60bf3d75ef465d3e404,0,15,15,95,1,fourthree,,,,,,,,,,,,,,,,,,,,,,,,,,,,,,,,,,,,,,,,,,,,,,,,,,,,,,,,,,,,,,,,,,,,,,,,,,,,,,,,,,,,,,,,,,,,,,,,,,,,,,,,,,,,,,,,,,,,,,,,,,,,,,,,,,,,,,,,,,,,,,,,,,,,,,,,
,,,,,,5e10ad92a6eb6078856a5067,62bbfb66b97729c39df35892,2022-06-29_08h13.33.070,Colour_Asymmetry_Pilot,2022.1.3,MacIntel,9.979442349,62bbe60bf3d75ef465d3e404,0,16,16,90,1,twoone,,,,,,,,,,,,,,,,,,,,,,,,,,,,,,,,,,,,,,,,,,,,,,,,,,,,,,,,,,,,,,,,,,,,,,,,,,,,,,,,,,,,,,,,,,,,,,,,,,,,,,,,,,,,,,,,,,,,,,,,,,,,,,,,,,,,,,,,,,,,,,,,,,,,,,,,
,,,,,,5e10ad92a6eb6078856a5067,62bbfb66b97729c39df35892,2022-06-29_08h13.33.070,Colour_Asymmetry_Pilot,2022.1.3,MacIntel,9.979442349,62bbe60bf3d75ef465d3e404,0,17,17,60,1,threeone,,,,,,,,,,,,,,,,,,,,,,,,,,,,,,,,,,,,,,,,,,,,,,,,,,,,,,,,,,,,,,,,,,,,,,,,,,,,,,,,,,,,,,,,,,,,,,,,,,,,,,,,,,,,,,,,,,,,,,,,,,,,,,,,,,,,,,,,,,,,,,,,,,,,,,,,
,,,,,,5e10ad92a6eb6078856a5067,62bbfb66b97729c39df35892,2022-06-29_08h13.33.070,Colour_Asymmetry_Pilot,2022.1.3,MacIntel,9.979442349,62bbe60bf3d75ef465d3e404,0,18,18,20,1,threeone,,,,,,,,,,,,,,,,,,,,,,,,,,,,,,,,,,,,,,,,,,,,,,,,,,,,,,,,,,,,,,,,,,,,,,,,,,,,,,,,,,,,,,,,,,,,,,,,,,,,,,,,,,,,,,,,,,,,,,,,,,,,,,,,,,,,,,,,,,,,,,,,,,,,,,,,
,,,,,,5e10ad92a6eb6078856a5067,62bbfb66b97729c39df35892,2022-06-29_08h13.33.070,Colour_Asymmetry_Pilot,2022.1.3,MacIntel,9.979442349,62bbe60bf3d75ef465d3e404,0,19,19,141,1,threefour,,,,,,,,,,,,,,,,,,,,,,,,,,,,,,,,,,,,,,,,,,,,,,,,,,,,,,,,,,,,,,,,,,,,,,,,,,,,,,,,,,,,,,,,,,,,,,,,,,,,,,,,,,,,,,,,,,,,,,,,,,,,,,,,,,,,,,,,,,,,,,,,,,,,,,,,
,,,,,,5e10ad92a6eb6078856a5067,62bbfb66b97729c39df35892,2022-06-29_08h13.33.070,Colour_Asymmetry_Pilot,2022.1.3,MacIntel,9.979442349,62bbe60bf3d75ef465d3e404,0,20,20,9,1,onethree,,,,,,,,,,,,,,,,,,,,,,,,,,,,,,,,,,,,,,,,,,,,,,,,,,,,,,,,,,,,,,,,,,,,,,,,,,,,,,,,,,,,,,,,,,,,,,,,,,,,,,,,,,,,,,,,,,,,,,,,,,,,,,,,,,,,,,,,,,,,,,,,,,,,,,,,
,,,,,,5e10ad92a6eb6078856a5067,62bbfb66b97729c39df35892,2022-06-29_08h13.33.070,Colour_Asymmetry_Pilot,2022.1.3,MacIntel,9.979442349,62bbe60bf3d75ef465d3e404,0,21,21,111,1,fourthree,,,,,,,,,,,,,,,,,,,,,,,,,,,,,,,,,,,,,,,,,,,,,,,,,,,,,,,,,,,,,,,,,,,,,,,,,,,,,,,,,,,,,,,,,,,,,,,,,,,,,,,,,,,,,,,,,,,,,,,,,,,,,,,,,,,,,,,,,,,,,,,,,,,,,,,,
,,,,,,5e10ad92a6eb6078856a5067,62bbfb66b97729c39df35892,2022-06-29_08h13.33.070,Colour_Asymmetry_Pilot,2022.1.3,MacIntel,9.979442349,62bbe60bf3d75ef465d3e404,0,22,22,161,1,onethree,,,,,,,,,,,,,,,,,,,,,,,,,,,,,,,,,,,,,,,,,,,,,,,,,,,,,,,,,,,,,,,,,,,,,,,,,,,,,,,,,,,,,,,,,,,,,,,,,,,,,,,,,,,,,,,,,,,,,,,,,,,,,,,,,,,,,,,,,,,,,,,,,,,,,,,,
,,,,,,5e10ad92a6eb6078856a5067,62bbfb66b97729c39df35892,2022-06-29_08h13.33.070,Colour_Asymmetry_Pilot,2022.1.3,MacIntel,9.979442349,62bbe60bf3d75ef465d3e404,0,23,23,105,1,onethree,,,,,,,,,,,,,,,,,,,,,,,,,,,,,,,,,,,,,,,,,,,,,,,,,,,,,,,,,,,,,,,,,,,,,,,,,,,,,,,,,,,,,,,,,,,,,,,,,,,,,,,,,,,,,,,,,,,,,,,,,,,,,,,,,,,,,,,,,,,,,,,,,,,,,,,,
,,,,,,5e10ad92a6eb6078856a5067,62bbfb66b97729c39df35892,2022-06-29_08h13.33.070,Colour_Asymmetry_Pilot,2022.1.3,MacIntel,9.979442349,62bbe60bf3d75ef465d3e404,0,24,24,151,1,fourthree,,,,,,,,,,,,,,,,,,,,,,,,,,,,,,,,,,,,,,,,,,,,,,,,,,,,,,,,,,,,,,,,,,,,,,,,,,,,,,,,,,,,,,,,,,,,,,,,,,,,,,,,,,,,,,,,,,,,,,,,,,,,,,,,,,,,,,,,,,,,,,,,,,,,,,,,
,,,,,,5e10ad92a6eb6078856a5067,62bbfb66b97729c39df35892,2022-06-29_08h13.33.070,Colour_Asymmetry_Pilot,2022.1.3,MacIntel,9.979442349,62bbe60bf3d75ef465d3e404,0,25,25,44,1,threeone,,,,,,,,,,,,,,,,,,,,,,,,,,,,,,,,,,,,,,,,,,,,,,,,,,,,,,,,,,,,,,,,,,,,,,,,,,,,,,,,,,,,,,,,,,,,,,,,,,,,,,,,,,,,,,,,,,,,,,,,,,,,,,,,,,,,,,,,,,,,,,,,,,,,,,,,
,,,,,,5e10ad92a6eb6078856a5067,62bbfb66b97729c39df35892,2022-06-29_08h13.33.070,Colour_Asymmetry_Pilot,2022.1.3,MacIntel,9.979442349,62bbe60bf3d75ef465d3e404,0,26,26,46,1,fourtwo,,,,,,,,,,,,,,,,,,,,,,,,,,,,,,,,,,,,,,,,,,,,,,,,,,,,,,,,,,,,,,,,,,,,,,,,,,,,,,,,,,,,,,,,,,,,,,,,,,,,,,,,,,,,,,,,,,,,,,,,,,,,,,,,,,,,,,,,,,,,,,,,,,,,,,,,
,,,,,,5e10ad92a6eb6078856a5067,62bbfb66b97729c39df35892,2022-06-29_08h13.33.070,Colour_Asymmetry_Pilot,2022.1.3,MacIntel,9.979442349,62bbe60bf3d75ef465d3e404,0,27,27,19,1,twofour,,,,,,,,,,,,,,,,,,,,,,,,,,,,,,,,,,,,,,,,,,,,,,,,,,,,,,,,,,,,,,,,,,,,,,,,,,,,,,,,,,,,,,,,,,,,,,,,,,,,,,,,,,,,,,,,,,,,,,,,,,,,,,,,,,,,,,,,,,,,,,,,,,,,,,,,
,,,,,,5e10ad92a6eb6078856a5067,62bbfb66b97729c39df35892,2022-06-29_08h13.33.070,Colour_Asymmetry_Pilot,2022.1.3,MacIntel,9.979442349,62bbe60bf3d75ef465d3e404,0,28,28,74,1,twoone,,,,,,,,,,,,,,,,,,,,,,,,,,,,,,,,,,,,,,,,,,,,,,,,,,,,,,,,,,,,,,,,,,,,,,,,,,,,,,,,,,,,,,,,,,,,,,,,,,,,,,,,,,,,,,,,,,,,,,,,,,,,,,,,,,,,,,,,,,,,,,,,,,,,,,,,
,,,,,,5e10ad92a6eb6078856a5067,62bbfb66b97729c39df35892,2022-06-29_08h13.33.070,Colour_Asymmetry_Pilot,2022.1.3,MacIntel,9.979442349,62bbe60bf3d75ef465d3e404,0,29,29,133,1,threefour,,,,,,,,,,,,,,,,,,,,,,,,,,,,,,,,,,,,,,,,,,,,,,,,,,,,,,,,,,,,,,,,,,,,,,,,,,,,,,,,,,,,,,,,,,,,,,,,,,,,,,,,,,,,,,,,,,,,,,,,,,,,,,,,,,,,,,,,,,,,,,,,,,,,,,,,
,,,,,,5e10ad92a6eb6078856a5067,62bbfb66b97729c39df35892,2022-06-29_08h13.33.070,Colour_Asymmetry_Pilot,2022.1.3,MacIntel,9.979442349,62bbe60bf3d75ef465d3e404,0,30,30,5,1,threefour,,,,,,,,,,,,,,,,,,,,,,,,,,,,,,,,,,,,,,,,,,,,,,,,,,,,,,,,,,,,,,,,,,,,,,,,,,,,,,,,,,,,,,,,,,,,,,,,,,,,,,,,,,,,,,,,,,,,,,,,,,,,,,,,,,,,,,,,,,,,,,,,,,,,,,,,
,,,,,,5e10ad92a6eb6078856a5067,62bbfb66b97729c39df35892,2022-06-29_08h13.33.070,Colour_Asymmetry_Pilot,2022.1.3,MacIntel,9.979442349,62bbe60bf3d75ef465d3e404,0,31,31,149,1,threefour,,,,,,,,,,,,,,,,,,,,,,,,,,,,,,,,,,,,,,,,,,,,,,,,,,,,,,,,,,,,,,,,,,,,,,,,,,,,,,,,,,,,,,,,,,,,,,,,,,,,,,,,,,,,,,,,,,,,,,,,,,,,,,,,,,,,,,,,,,,,,,,,,,,,,,,,
,,,,,,5e10ad92a6eb6078856a5067,62bbfb66b97729c39df35892,2022-06-29_08h13.33.070,Colour_Asymmetry_Pilot,2022.1.3,MacIntel,9.979442349,62bbe60bf3d75ef465d3e404,0,32,32,152,1,onetwo,,,,,,,,,,,,,,,,,,,,,,,,,,,,,,,,,,,,,,,,,,,,,,,,,,,,,,,,,,,,,,,,,,,,,,,,,,,,,,,,,,,,,,,,,,,,,,,,,,,,,,,,,,,,,,,,,,,,,,,,,,,,,,,,,,,,,,,,,,,,,,,,,,,,,,,,
,,,,,,5e10ad92a6eb6078856a5067,62bbfb66b97729c39df35892,2022-06-29_08h13.33.070,Colour_Asymmetry_Pilot,2022.1.3,MacIntel,9.979442349,62bbe60bf3d75ef465d3e404,0,33,33,113,1,onethree,,,,,,,,,,,,,,,,,,,,,,,,,,,,,,,,,,,,,,,,,,,,,,,,,,,,,,,,,,,,,,,,,,,,,,,,,,,,,,,,,,,,,,,,,,,,,,,,,,,,,,,,,,,,,,,,,,,,,,,,,,,,,,,,,,,,,,,,,,,,,,,,,,,,,,,,
,,,,,,5e10ad92a6eb6078856a5067,62bbfb66b97729c39df35892,2022-06-29_08h13.33.070,Colour_Asymmetry_Pilot,2022.1.3,MacIntel,9.979442349,62bbe60bf3d75ef465d3e404,0,34,34,97,1,onethree,,,,,,,,,,,,,,,,,,,,,,,,,,,,,,,,,,,,,,,,,,,,,,,,,,,,,,,,,,,,,,,,,,,,,,,,,,,,,,,,,,,,,,,,,,,,,,,,,,,,,,,,,,,,,,,,,,,,,,,,,,,,,,,,,,,,,,,,,,,,,,,,,,,,,,,,
,,,,,,5e10ad92a6eb6078856a5067,62bbfb66b97729c39df35892,2022-06-29_08h13.33.070,Colour_Asymmetry_Pilot,2022.1.3,MacIntel,9.979442349,62bbe60bf3d75ef465d3e404,0,35,35,75,1,twofour,,,,,,,,,,,,,,,,,,,,,,,,,,,,,,,,,,,,,,,,,,,,,,,,,,,,,,,,,,,,,,,,,,,,,,,,,,,,,,,,,,,,,,,,,,,,,,,,,,,,,,,,,,,,,,,,,,,,,,,,,,,,,,,,,,,,,,,,,,,,,,,,,,,,,,,,
,,,,,,5e10ad92a6eb6078856a5067,62bbfb66b97729c39df35892,2022-06-29_08h13.33.070,Colour_Asymmetry_Pilot,2022.1.3,MacIntel,9.979442349,62bbe60bf3d75ef465d3e404,0,36,36,52,1,threeone,,,,,,,,,,,,,,,,,,,,,,,,,,,,,,,,,,,,,,,,,,,,,,,,,,,,,,,,,,,,,,,,,,,,,,,,,,,,,,,,,,,,,,,,,,,,,,,,,,,,,,,,,,,,,,,,,,,,,,,,,,,,,,,,,,,,,,,,,,,,,,,,,,,,,,,,
,,,,,,5e10ad92a6eb6078856a5067,62bbfb66b97729c39df35892,2022-06-29_08h13.33.070,Colour_Asymmetry_Pilot,2022.1.3,MacIntel,9.979442349,62bbe60bf3d75ef465d3e404,0,37,37,1,1,onethree,,,,,,,,,,,,,,,,,,,,,,,,,,,,,,,,,,,,,,,,,,,,,,,,,,,,,,,,,,,,,,,,,,,,,,,,,,,,,,,,,,,,,,,,,,,,,,,,,,,,,,,,,,,,,,,,,,,,,,,,,,,,,,,,,,,,,,,,,,,,,,,,,,,,,,,,
,,,,,,5e10ad92a6eb6078856a5067,62bbfb66b97729c39df35892,2022-06-29_08h13.33.070,Colour_Asymmetry_Pilot,2022.1.3,MacIntel,9.979442349,62bbe60bf3d75ef465d3e404,0,38,38,70,1,fourtwo,,,,,,,,,,,,,,,,,,,,,,,,,,,,,,,,,,,,,,,,,,,,,,,,,,,,,,,,,,,,,,,,,,,,,,,,,,,,,,,,,,,,,,,,,,,,,,,,,,,,,,,,,,,,,,,,,,,,,,,,,,,,,,,,,,,,,,,,,,,,,,,,,,,,,,,,
,,,,,,5e10ad92a6eb6078856a5067,62bbfb66b97729c39df35892,2022-06-29_08h13.33.070,Colour_Asymmetry_Pilot,2022.1.3,MacIntel,9.979442349,62bbe60bf3d75ef465d3e404,0,39,39,82,1,twoone,,,,,,,,,,,,,,,,,,,,,,,,,,,,,,,,,,,,,,,,,,,,,,,,,,,,,,,,,,,,,,,,,,,,,,,,,,,,,,,,,,,,,,,,,,,,,,,,,,,,,,,,,,,,,,,,,,,,,,,,,,,,,,,,,,,,,,,,,,,,,,,,,,,,,,,,
,,,,,,5e10ad92a6eb6078856a5067,62bbfb66b97729c39df35892,2022-06-29_08h13.33.070,Colour_Asymmetry_Pilot,2022.1.3,MacIntel,9.979442349,62bbe60bf3d75ef465d3e404,0,40,40,28,1,threeone,,,,,,,,,,,,,,,,,,,,,,,,,,,,,,,,,,,,,,,,,,,,,,,,,,,,,,,,,,,,,,,,,,,,,,,,,,,,,,,,,,,,,,,,,,,,,,,,,,,,,,,,,,,,,,,,,,,,,,,,,,,,,,,,,,,,,,,,,,,,,,,,,,,,,,,,
,,,,,,5e10ad92a6eb6078856a5067,62bbfb66b97729c39df35892,2022-06-29_08h13.33.070,Colour_Asymmetry_Pilot,2022.1.3,MacIntel,9.979442349,62bbe60bf3d75ef465d3e404,0,41,41,73,1,onethree,,,,,,,,,,,,,,,,,,,,,,,,,,,,,,,,,,,,,,,,,,,,,,,,,,,,,,,,,,,,,,,,,,,,,,,,,,,,,,,,,,,,,,,,,,,,,,,,,,,,,,,,,,,,,,,,,,,,,,,,,,,,,,,,,,,,,,,,,,,,,,,,,,,,,,,,
,,,,,,5e10ad92a6eb6078856a5067,62bbfb66b97729c39df35892,2022-06-29_08h13.33.070,Colour_Asymmetry_Pilot,2022.1.3,MacIntel,9.979442349,62bbe60bf3d75ef465d3e404,0,42,42,86,1,fourtwo,,,,,,,,,,,,,,,,,,,,,,,,,,,,,,,,,,,,,,,,,,,,,,,,,,,,,,,,,,,,,,,,,,,,,,,,,,,,,,,,,,,,,,,,,,,,,,,,,,,,,,,,,,,,,,,,,,,,,,,,,,,,,,,,,,,,,,,,,,,,,,,,,,,,,,,,
,,,,,,5e10ad92a6eb6078856a5067,62bbfb66b97729c39df35892,2022-06-29_08h13.33.070,Colour_Asymmetry_Pilot,2022.1.3,MacIntel,9.979442349,62bbe60bf3d75ef465d3e404,0,43,43,47,1,fourthree,,,,,,,,,,,,,,,,,,,,,,,,,,,,,,,,,,,,,,,,,,,,,,,,,,,,,,,,,,,,,,,,,,,,,,,,,,,,,,,,,,,,,,,,,,,,,,,,,,,,,,,,,,,,,,,,,,,,,,,,,,,,,,,,,,,,,,,,,,,,,,,,,,,,,,,,
,,,,,,5e10ad92a6eb6078856a5067,62bbfb66b97729c39df35892,2022-06-29_08h13.33.070,Colour_Asymmetry_Pilot,2022.1.3,MacIntel,9.979442349,62bbe60bf3d75ef465d3e404,0,44,44,11,1,twofour,,,,,,,,,,,,,,,,,,,,,,,,,,,,,,,,,,,,,,,,,,,,,,,,,,,,,,,,,,,,,,,,,,,,,,,,,,,,,,,,,,,,,,,,,,,,,,,,,,,,,,,,,,,,,,,,,,,,,,,,,,,,,,,,,,,,,,,,,,,,,,,,,,,,,,,,
,,,,,,5e10ad92a6eb6078856a5067,62bbfb66b97729c39df35892,2022-06-29_08h13.33.070,Colour_Asymmetry_Pilot,2022.1.3,MacIntel,9.979442349,62bbe60bf3d75ef465d3e404,0,45,45,29,1,threefour,,,,,,,,,,,,,,,,,,,,,,,,,,,,,,,,,,,,,,,,,,,,,,,,,,,,,,,,,,,,,,,,,,,,,,,,,,,,,,,,,,,,,,,,,,,,,,,,,,,,,,,,,,,,,,,,,,,,,,,,,,,,,,,,,,,,,,,,,,,,,,,,,,,,,,,,
,,,,,,5e10ad92a6eb6078856a5067,62bbfb66b97729c39df35892,2022-06-29_08h13.33.070,Colour_Asymmetry_Pilot,2022.1.3,MacIntel,9.979442349,62bbe60bf3d75ef465d3e404,0,46,46,24,1,onetwo,,,,,,,,,,,,,,,,,,,,,,,,,,,,,,,,,,,,,,,,,,,,,,,,,,,,,,,,,,,,,,,,,,,,,,,,,,,,,,,,,,,,,,,,,,,,,,,,,,,,,,,,,,,,,,,,,,,,,,,,,,,,,,,,,,,,,,,,,,,,,,,,,,,,,,,,
,,,,,,5e10ad92a6eb6078856a5067,62bbfb66b97729c39df35892,2022-06-29_08h13.33.070,Colour_Asymmetry_Pilot,2022.1.3,MacIntel,9.979442349,62bbe60bf3d75ef465d3e404,0,47,47,48,1,onetwo,,,,,,,,,,,,,,,,,,,,,,,,,,,,,,,,,,,,,,,,,,,,,,,,,,,,,,,,,,,,,,,,,,,,,,,,,,,,,,,,,,,,,,,,,,,,,,,,,,,,,,,,,,,,,,,,,,,,,,,,,,,,,,,,,,,,,,,,,,,,,,,,,,,,,,,,
,,,,,,5e10ad92a6eb6078856a5067,62bbfb66b97729c39df35892,2022-06-29_08h13.33.070,Colour_Asymmetry_Pilot,2022.1.3,MacIntel,9.979442349,62bbe60bf3d75ef465d3e404,0,48,48,7,1,fourthree,,,,,,,,,,,,,,,,,,,,,,,,,,,,,,,,,,,,,,,,,,,,,,,,,,,,,,,,,,,,,,,,,,,,,,,,,,,,,,,,,,,,,,,,,,,,,,,,,,,,,,,,,,,,,,,,,,,,,,,,,,,,,,,,,,,,,,,,,,,,,,,,,,,,,,,,
,,,,,,5e10ad92a6eb6078856a5067,62bbfb66b97729c39df35892,2022-06-29_08h13.33.070,Colour_Asymmetry_Pilot,2022.1.3,MacIntel,9.979442349,62bbe60bf3d75ef465d3e404,0,49,49,8,1,onetwo,,,,,,,,,,,,,,,,,,,,,,,,,,,,,,,,,,,,,,,,,,,,,,,,,,,,,,,,,,,,,,,,,,,,,,,,,,,,,,,,,,,,,,,,,,,,,,,,,,,,,,,,,,,,,,,,,,,,,,,,,,,,,,,,,,,,,,,,,,,,,,,,,,,,,,,,
,,,,,,5e10ad92a6eb6078856a5067,62bbfb66b97729c39df35892,2022-06-29_08h13.33.070,Colour_Asymmetry_Pilot,2022.1.3,MacIntel,9.979442349,62bbe60bf3d75ef465d3e404,0,50,50,124,1,threeone,,,,,,,,,,,,,,,,,,,,,,,,,,,,,,,,,,,,,,,,,,,,,,,,,,,,,,,,,,,,,,,,,,,,,,,,,,,,,,,,,,,,,,,,,,,,,,,,,,,,,,,,,,,,,,,,,,,,,,,,,,,,,,,,,,,,,,,,,,,,,,,,,,,,,,,,
,,,,,,5e10ad92a6eb6078856a5067,62bbfb66b97729c39df35892,2022-06-29_08h13.33.070,Colour_Asymmetry_Pilot,2022.1.3,MacIntel,9.979442349,62bbe60bf3d75ef465d3e404,0,51,51,99,1,twofour,,,,,,,,,,,,,,,,,,,,,,,,,,,,,,,,,,,,,,,,,,,,,,,,,,,,,,,,,,,,,,,,,,,,,,,,,,,,,,,,,,,,,,,,,,,,,,,,,,,,,,,,,,,,,,,,,,,,,,,,,,,,,,,,,,,,,,,,,,,,,,,,,,,,,,,,
,,,,,,5e10ad92a6eb6078856a5067,62bbfb66b97729c39df35892,2022-06-29_08h13.33.070,Colour_Asymmetry_Pilot,2022.1.3,MacIntel,9.979442349,62bbe60bf3d75ef465d3e404,0,52,52,72,1,onetwo,,,,,,,,,,,,,,,,,,,,,,,,,,,,,,,,,,,,,,,,,,,,,,,,,,,,,,,,,,,,,,,,,,,,,,,,,,,,,,,,,,,,,,,,,,,,,,,,,,,,,,,,,,,,,,,,,,,,,,,,,,,,,,,,,,,,,,,,,,,,,,,,,,,,,,,,
,,,,,,5e10ad92a6eb6078856a5067,62bbfb66b97729c39df35892,2022-06-29_08h13.33.070,Colour_Asymmetry_Pilot,2022.1.3,MacIntel,9.979442349,62bbe60bf3d75ef465d3e404,0,53,53,76,1,threeone,,,,,,,,,,,,,,,,,,,,,,,,,,,,,,,,,,,,,,,,,,,,,,,,,,,,,,,,,,,,,,,,,,,,,,,,,,,,,,,,,,,,,,,,,,,,,,,,,,,,,,,,,,,,,,,,,,,,,,,,,,,,,,,,,,,,,,,,,,,,,,,,,,,,,,,,
,,,,,,5e10ad92a6eb6078856a5067,62bbfb66b97729c39df35892,2022-06-29_08h13.33.070,Colour_Asymmetry_Pilot,2022.1.3,MacIntel,9.979442349,62bbe60bf3d75ef465d3e404,0,54,54,84,1,threeone,,,,,,,,,,,,,,,,,,,,,,,,,,,,,,,,,,,,,,,,,,,,,,,,,,,,,,,,,,,,,,,,,,,,,,,,,,,,,,,,,,,,,,,,,,,,,,,,,,,,,,,,,,,,,,,,,,,,,,,,,,,,,,,,,,,,,,,,,,,,,,,,,,,,,,,,
,,,,,,5e10ad92a6eb6078856a5067,62bbfb66b97729c39df35892,2022-06-29_08h13.33.070,Colour_Asymmetry_Pilot,2022.1.3,MacIntel,9.979442349,62bbe60bf3d75ef465d3e404,0,55,55,98,1,twoone,,,,,,,,,,,,,,,,,,,,,,,,,,,,,,,,,,,,,,,,,,,,,,,,,,,,,,,,,,,,,,,,,,,,,,,,,,,,,,,,,,,,,,,,,,,,,,,,,,,,,,,,,,,,,,,,,,,,,,,,,,,,,,,,,,,,,,,,,,,,,,,,,,,,,,,,
,,,,,,5e10ad92a6eb6078856a5067,62bbfb66b97729c39df35892,2022-06-29_08h13.33.070,Colour_Asymmetry_Pilot,2022.1.3,MacIntel,9.979442349,62bbe60bf3d75ef465d3e404,0,56,56,80,1,onetwo,,,,,,,,,,,,,,,,,,,,,,,,,,,,,,,,,,,,,,,,,,,,,,,,,,,,,,,,,,,,,,,,,,,,,,,,,,,,,,,,,,,,,,,,,,,,,,,,,,,,,,,,,,,,,,,,,,,,,,,,,,,,,,,,,,,,,,,,,,,,,,,,,,,,,,,,
,,,,,,5e10ad92a6eb6078856a5067,62bbfb66b97729c39df35892,2022-06-29_08h13.33.070,Colour_Asymmetry_Pilot,2022.1.3,MacIntel,9.979442349,62bbe60bf3d75ef465d3e404,0,57,57,30,1,fourtwo,,,,,,,,,,,,,,,,,,,,,,,,,,,,,,,,,,,,,,,,,,,,,,,,,,,,,,,,,,,,,,,,,,,,,,,,,,,,,,,,,,,,,,,,,,,,,,,,,,,,,,,,,,,,,,,,,,,,,,,,,,,,,,,,,,,,,,,,,,,,,,,,,,,,,,,,
,,,,,,5e10ad92a6eb6078856a5067,62bbfb66b97729c39df35892,2022-06-29_08h13.33.070,Colour_Asymmetry_Pilot,2022.1.3,MacIntel,9.979442349,62bbe60bf3d75ef465d3e404,0,58,58,126,1,fourtwo,,,,,,,,,,,,,,,,,,,,,,,,,,,,,,,,,,,,,,,,,,,,,,,,,,,,,,,,,,,,,,,,,,,,,,,,,,,,,,,,,,,,,,,,,,,,,,,,,,,,,,,,,,,,,,,,,,,,,,,,,,,,,,,,,,,,,,,,,,,,,,,,,,,,,,,,
,,,,,,5e10ad92a6eb6078856a5067,62bbfb66b97729c39df35892,2022-06-29_08h13.33.070,Colour_Asymmetry_Pilot,2022.1.3,MacIntel,9.979442349,62bbe60bf3d75ef465d3e404,0,59,59,56,1,onetwo,,,,,,,,,,,,,,,,,,,,,,,,,,,,,,,,,,,,,,,,,,,,,,,,,,,,,,,,,,,,,,,,,,,,,,,,,,,,,,,,,,,,,,,,,,,,,,,,,,,,,,,,,,,,,,,,,,,,,,,,,,,,,,,,,,,,,,,,,,,,,,,,,,,,,,,,
,,,,,,5e10ad92a6eb6078856a5067,62bbfb66b97729c39df35892,2022-06-29_08h13.33.070,Colour_Asymmetry_Pilot,2022.1.3,MacIntel,9.979442349,62bbe60bf3d75ef465d3e404,0,60,60,34,1,twoone,,,,,,,,,,,,,,,,,,,,,,,,,,,,,,,,,,,,,,,,,,,,,,,,,,,,,,,,,,,,,,,,,,,,,,,,,,,,,,,,,,,,,,,,,,,,,,,,,,,,,,,,,,,,,,,,,,,,,,,,,,,,,,,,,,,,,,,,,,,,,,,,,,,,,,,,
,,,,,,5e10ad92a6eb6078856a5067,62bbfb66b97729c39df35892,2022-06-29_08h13.33.070,Colour_Asymmetry_Pilot,2022.1.3,MacIntel,9.979442349,62bbe60bf3d75ef465d3e404,0,61,61,143,1,fourthree,,,,,,,,,,,,,,,,,,,,,,,,,,,,,,,,,,,,,,,,,,,,,,,,,,,,,,,,,,,,,,,,,,,,,,,,,,,,,,,,,,,,,,,,,,,,,,,,,,,,,,,,,,,,,,,,,,,,,,,,,,,,,,,,,,,,,,,,,,,,,,,,,,,,,,,,
,,,,,,5e10ad92a6eb6078856a5067,62bbfb66b97729c39df35892,2022-06-29_08h13.33.070,Colour_Asymmetry_Pilot,2022.1.3,MacIntel,9.979442349,62bbe60bf3d75ef465d3e404,0,62,62,35,1,twofour,,,,,,,,,,,,,,,,,,,,,,,,,,,,,,,,,,,,,,,,,,,,,,,,,,,,,,,,,,,,,,,,,,,,,,,,,,,,,,,,,,,,,,,,,,,,,,,,,,,,,,,,,,,,,,,,,,,,,,,,,,,,,,,,,,,,,,,,,,,,,,,,,,,,,,,,
,,,,,,5e10ad92a6eb6078856a5067,62bbfb66b97729c39df35892,2022-06-29_08h13.33.070,Colour_Asymmetry_Pilot,2022.1.3,MacIntel,9.979442349,62bbe60bf3d75ef465d3e404,0,63,63,107,1,twofour,,,,,,,,,,,,,,,,,,,,,,,,,,,,,,,,,,,,,,,,,,,,,,,,,,,,,,,,,,,,,,,,,,,,,,,,,,,,,,,,,,,,,,,,,,,,,,,,,,,,,,,,,,,,,,,,,,,,,,,,,,,,,,,,,,,,,,,,,,,,,,,,,,,,,,,,
,,,,,,5e10ad92a6eb6078856a5067,62bbfb66b97729c39df35892,2022-06-29_08h13.33.070,Colour_Asymmetry_Pilot,2022.1.3,MacIntel,9.979442349,62bbe60bf3d75ef465d3e404,0,64,64,45,1,threefour,,,,,,,,,,,,,,,,,,,,,,,,,,,,,,,,,,,,,,,,,,,,,,,,,,,,,,,,,,,,,,,,,,,,,,,,,,,,,,,,,,,,,,,,,,,,,,,,,,,,,,,,,,,,,,,,,,,,,,,,,,,,,,,,,,,,,,,,,,,,,,,,,,,,,,,,
,,,,,,5e10ad92a6eb6078856a5067,62bbfb66b97729c39df35892,2022-06-29_08h13.33.070,Colour_Asymmetry_Pilot,2022.1.3,MacIntel,9.979442349,62bbe60bf3d75ef465d3e404,0,65,65,63,1,fourthree,,,,,,,,,,,,,,,,,,,,,,,,,,,,,,,,,,,,,,,,,,,,,,,,,,,,,,,,,,,,,,,,,,,,,,,,,,,,,,,,,,,,,,,,,,,,,,,,,,,,,,,,,,,,,,,,,,,,,,,,,,,,,,,,,,,,,,,,,,,,,,,,,,,,,,,,
,,,,,,5e10ad92a6eb6078856a5067,62bbfb66b97729c39df35892,2022-06-29_08h13.33.070,Colour_Asymmetry_Pilot,2022.1.3,MacIntel,9.979442349,62bbe60bf3d75ef465d3e404,0,66,66,26,1,twoone,,,,,,,,,,,,,,,,,,,,,,,,,,,,,,,,,,,,,,,,,,,,,,,,,,,,,,,,,,,,,,,,,,,,,,,,,,,,,,,,,,,,,,,,,,,,,,,,,,,,,,,,,,,,,,,,,,,,,,,,,,,,,,,,,,,,,,,,,,,,,,,,,,,,,,,,
,,,,,,5e10ad92a6eb6078856a5067,62bbfb66b97729c39df35892,2022-06-29_08h13.33.070,Colour_Asymmetry_Pilot,2022.1.3,MacIntel,9.979442349,62bbe60bf3d75ef465d3e404,0,67,67,21,1,threefour,,,,,,,,,,,,,,,,,,,,,,,,,,,,,,,,,,,,,,,,,,,,,,,,,,,,,,,,,,,,,,,,,,,,,,,,,,,,,,,,,,,,,,,,,,,,,,,,,,,,,,,,,,,,,,,,,,,,,,,,,,,,,,,,,,,,,,,,,,,,,,,,,,,,,,,,
,,,,,,5e10ad92a6eb6078856a5067,62bbfb66b97729c39df35892,2022-06-29_08h13.33.070,Colour_Asymmetry_Pilot,2022.1.3,MacIntel,9.979442349,62bbe60bf3d75ef465d3e404,0,68,68,150,1,fourtwo,,,,,,,,,,,,,,,,,,,,,,,,,,,,,,,,,,,,,,,,,,,,,,,,,,,,,,,,,,,,,,,,,,,,,,,,,,,,,,,,,,,,,,,,,,,,,,,,,,,,,,,,,,,,,,,,,,,,,,,,,,,,,,,,,,,,,,,,,,,,,,,,,,,,,,,,
,,,,,,5e10ad92a6eb6078856a5067,62bbfb66b97729c39df35892,2022-06-29_08h13.33.070,Colour_Asymmetry_Pilot,2022.1.3,MacIntel,9.979442349,62bbe60bf3d75ef465d3e404,0,69,69,10,1,twoone,,,,,,,,,,,,,,,,,,,,,,,,,,,,,,,,,,,,,,,,,,,,,,,,,,,,,,,,,,,,,,,,,,,,,,,,,,,,,,,,,,,,,,,,,,,,,,,,,,,,,,,,,,,,,,,,,,,,,,,,,,,,,,,,,,,,,,,,,,,,,,,,,,,,,,,,
,,,,,,5e10ad92a6eb6078856a5067,62bbfb66b97729c39df35892,2022-06-29_08h13.33.070,Colour_Asymmetry_Pilot,2022.1.3,MacIntel,9.979442349,62bbe60bf3d75ef465d3e404,0,70,70,50,1,twoone,,,,,,,,,,,,,,,,,,,,,,,,,,,,,,,,,,,,,,,,,,,,,,,,,,,,,,,,,,,,,,,,,,,,,,,,,,,,,,,,,,,,,,,,,,,,,,,,,,,,,,,,,,,,,,,,,,,,,,,,,,,,,,,,,,,,,,,,,,,,,,,,,,,,,,,,
,,,,,,5e10ad92a6eb6078856a5067,62bbfb66b97729c39df35892,2022-06-29_08h13.33.070,Colour_Asymmetry_Pilot,2022.1.3,MacIntel,9.979442349,62bbe60bf3d75ef465d3e404,0,71,71,85,1,threefour,,,,,,,,,,,,,,,,,,,,,,,,,,,,,,,,,,,,,,,,,,,,,,,,,,,,,,,,,,,,,,,,,,,,,,,,,,,,,,,,,,,,,,,,,,,,,,,,,,,,,,,,,,,,,,,,,,,,,,,,,,,,,,,,,,,,,,,,,,,,,,,,,,,,,,,,
,,,,,,5e10ad92a6eb6078856a5067,62bbfb66b97729c39df35892,2022-06-29_08h13.33.070,Colour_Asymmetry_Pilot,2022.1.3,MacIntel,9.979442349,62bbe60bf3d75ef465d3e404,0,72,72,120,1,onetwo,,,,,,,,,,,,,,,,,,,,,,,,,,,,,,,,,,,,,,,,,,,,,,,,,,,,,,,,,,,,,,,,,,,,,,,,,,,,,,,,,,,,,,,,,,,,,,,,,,,,,,,,,,,,,,,,,,,,,,,,,,,,,,,,,,,,,,,,,,,,,,,,,,,,,,,,
,,,,,,5e10ad92a6eb6078856a5067,62bbfb66b97729c39df35892,2022-06-29_08h13.33.070,Colour_Asymmetry_Pilot,2022.1.3,MacIntel,9.979442349,62bbe60bf3d75ef465d3e404,0,73,73,132,1,threeone,,,,,,,,,,,,,,,,,,,,,,,,,,,,,,,,,,,,,,,,,,,,,,,,,,,,,,,,,,,,,,,,,,,,,,,,,,,,,,,,,,,,,,,,,,,,,,,,,,,,,,,,,,,,,,,,,,,,,,,,,,,,,,,,,,,,,,,,,,,,,,,,,,,,,,,,
,,,,,,5e10ad92a6eb6078856a5067,62bbfb66b97729c39df35892,2022-06-29_08h13.33.070,Colour_Asymmetry_Pilot,2022.1.3,MacIntel,9.979442349,62bbe60bf3d75ef465d3e404,0,74,74,58,1,twoone,,,,,,,,,,,,,,,,,,,,,,,,,,,,,,,,,,,,,,,,,,,,,,,,,,,,,,,,,,,,,,,,,,,,,,,,,,,,,,,,,,,,,,,,,,,,,,,,,,,,,,,,,,,,,,,,,,,,,,,,,,,,,,,,,,,,,,,,,,,,,,,,,,,,,,,,
,,,,,,5e10ad92a6eb6078856a5067,62bbfb66b97729c39df35892,2022-06-29_08h13.33.070,Colour_Asymmetry_Pilot,2022.1.3,MacIntel,9.979442349,62bbe60bf3d75ef465d3e404,0,75,75,153,1,onethree,,,,,,,,,,,,,,,,,,,,,,,,,,,,,,,,,,,,,,,,,,,,,,,,,,,,,,,,,,,,,,,,,,,,,,,,,,,,,,,,,,,,,,,,,,,,,,,,,,,,,,,,,,,,,,,,,,,,,,,,,,,,,,,,,,,,,,,,,,,,,,,,,,,,,,,,
,,,,,,5e10ad92a6eb6078856a5067,62bbfb66b97729c39df35892,2022-06-29_08h13.33.070,Colour_Asymmetry_Pilot,2022.1.3,MacIntel,9.979442349,62bbe60bf3d75ef465d3e404,0,76,76,89,1,onethree,,,,,,,,,,,,,,,,,,,,,,,,,,,,,,,,,,,,,,,,,,,,,,,,,,,,,,,,,,,,,,,,,,,,,,,,,,,,,,,,,,,,,,,,,,,,,,,,,,,,,,,,,,,,,,,,,,,,,,,,,,,,,,,,,,,,,,,,,,,,,,,,,,,,,,,,
,,,,,,5e10ad92a6eb6078856a5067,62bbfb66b97729c39df35892,2022-06-29_08h13.33.070,Colour_Asymmetry_Pilot,2022.1.3,MacIntel,9.979442349,62bbe60bf3d75ef465d3e404,0,77,77,12,1,threeone,,,,,,,,,,,,,,,,,,,,,,,,,,,,,,,,,,,,,,,,,,,,,,,,,,,,,,,,,,,,,,,,,,,,,,,,,,,,,,,,,,,,,,,,,,,,,,,,,,,,,,,,,,,,,,,,,,,,,,,,,,,,,,,,,,,,,,,,,,,,,,,,,,,,,,,,
,,,,,,5e10ad92a6eb6078856a5067,62bbfb66b97729c39df35892,2022-06-29_08h13.33.070,Colour_Asymmetry_Pilot,2022.1.3,MacIntel,9.979442349,62bbe60bf3d75ef465d3e404,0,78,78,121,1,onethree,,,,,,,,,,,,,,,,,,,,,,,,,,,,,,,,,,,,,,,,,,,,,,,,,,,,,,,,,,,,,,,,,,,,,,,,,,,,,,,,,,,,,,,,,,,,,,,,,,,,,,,,,,,,,,,,,,,,,,,,,,,,,,,,,,,,,,,,,,,,,,,,,,,,,,,,
,,,,,,5e10ad92a6eb6078856a5067,62bbfb66b97729c39df35892,2022-06-29_08h13.33.070,Colour_Asymmetry_Pilot,2022.1.3,MacIntel,9.979442349,62bbe60bf3d75ef465d3e404,0,79,79,93,1,threefour,,,,,,,,,,,,,,,,,,,,,,,,,,,,,,,,,,,,,,,,,,,,,,,,,,,,,,,,,,,,,,,,,,,,,,,,,,,,,,,,,,,,,,,,,,,,,,,,,,,,,,,,,,,,,,,,,,,,,,,,,,,,,,,,,,,,,,,,,,,,,,,,,,,,,,,,
,,,,,,5e10ad92a6eb6078856a5067,62bbfb66b97729c39df35892,2022-06-29_08h13.33.070,Colour_Asymmetry_Pilot,2022.1.3,MacIntel,9.979442349,62bbe60bf3d75ef465d3e404,0,80,80,39,1,fourthree,,,,,,,,,,,,,,,,,,,,,,,,,,,,,,,,,,,,,,,,,,,,,,,,,,,,,,,,,,,,,,,,,,,,,,,,,,,,,,,,,,,,,,,,,,,,,,,,,,,,,,,,,,,,,,,,,,,,,,,,,,,,,,,,,,,,,,,,,,,,,,,,,,,,,,,,
,,,,,,5e10ad92a6eb6078856a5067,62bbfb66b97729c39df35892,2022-06-29_08h13.33.070,Colour_Asymmetry_Pilot,2022.1.3,MacIntel,9.979442349,62bbe60bf3d75ef465d3e404,0,81,81,144,1,onetwo,,,,,,,,,,,,,,,,,,,,,,,,,,,,,,,,,,,,,,,,,,,,,,,,,,,,,,,,,,,,,,,,,,,,,,,,,,,,,,,,,,,,,,,,,,,,,,,,,,,,,,,,,,,,,,,,,,,,,,,,,,,,,,,,,,,,,,,,,,,,,,,,,,,,,,,,
,,,,,,5e10ad92a6eb6078856a5067,62bbfb66b97729c39df35892,2022-06-29_08h13.33.070,Colour_Asymmetry_Pilot,2022.1.3,MacIntel,9.979442349,62bbe60bf3d75ef465d3e404,0,82,82,54,1,fourtwo,,,,,,,,,,,,,,,,,,,,,,,,,,,,,,,,,,,,,,,,,,,,,,,,,,,,,,,,,,,,,,,,,,,,,,,,,,,,,,,,,,,,,,,,,,,,,,,,,,,,,,,,,,,,,,,,,,,,,,,,,,,,,,,,,,,,,,,,,,,,,,,,,,,,,,,,
,,,,,,5e10ad92a6eb6078856a5067,62bbfb66b97729c39df35892,2022-06-29_08h13.33.070,Colour_Asymmetry_Pilot,2022.1.3,MacIntel,9.979442349,62bbe60bf3d75ef465d3e404,0,83,83,147,1,twofour,,,,,,,,,,,,,,,,,,,,,,,,,,,,,,,,,,,,,,,,,,,,,,,,,,,,,,,,,,,,,,,,,,,,,,,,,,,,,,,,,,,,,,,,,,,,,,,,,,,,,,,,,,,,,,,,,,,,,,,,,,,,,,,,,,,,,,,,,,,,,,,,,,,,,,,,
,,,,,,5e10ad92a6eb6078856a5067,62bbfb66b97729c39df35892,2022-06-29_08h13.33.070,Colour_Asymmetry_Pilot,2022.1.3,MacIntel,9.979442349,62bbe60bf3d75ef465d3e404,0,84,84,115,1,twofour,,,,,,,,,,,,,,,,,,,,,,,,,,,,,,,,,,,,,,,,,,,,,,,,,,,,,,,,,,,,,,,,,,,,,,,,,,,,,,,,,,,,,,,,,,,,,,,,,,,,,,,,,,,,,,,,,,,,,,,,,,,,,,,,,,,,,,,,,,,,,,,,,,,,,,,,
,,,,,,5e10ad92a6eb6078856a5067,62bbfb66b97729c39df35892,2022-06-29_08h13.33.070,Colour_Asymmetry_Pilot,2022.1.3,MacIntel,9.979442349,62bbe60bf3d75ef465d3e404,0,85,85,23,1,fourthree,,,,,,,,,,,,,,,,,,,,,,,,,,,,,,,,,,,,,,,,,,,,,,,,,,,,,,,,,,,,,,,,,,,,,,,,,,,,,,,,,,,,,,,,,,,,,,,,,,,,,,,,,,,,,,,,,,,,,,,,,,,,,,,,,,,,,,,,,,,,,,,,,,,,,,,,
,,,,,,5e10ad92a6eb6078856a5067,62bbfb66b97729c39df35892,2022-06-29_08h13.33.070,Colour_Asymmetry_Pilot,2022.1.3,MacIntel,9.979442349,62bbe60bf3d75ef465d3e404,0,86,86,103,1,fourthree,,,,,,,,,,,,,,,,,,,,,,,,,,,,,,,,,,,,,,,,,,,,,,,,,,,,,,,,,,,,,,,,,,,,,,,,,,,,,,,,,,,,,,,,,,,,,,,,,,,,,,,,,,,,,,,,,,,,,,,,,,,,,,,,,,,,,,,,,,,,,,,,,,,,,,,,
,,,,,,5e10ad92a6eb6078856a5067,62bbfb66b97729c39df35892,2022-06-29_08h13.33.070,Colour_Asymmetry_Pilot,2022.1.3,MacIntel,9.979442349,62bbe60bf3d75ef465d3e404,0,87,87,159,1,fourthree,,,,,,,,,,,,,,,,,,,,,,,,,,,,,,,,,,,,,,,,,,,,,,,,,,,,,,,,,,,,,,,,,,,,,,,,,,,,,,,,,,,,,,,,,,,,,,,,,,,,,,,,,,,,,,,,,,,,,,,,,,,,,,,,,,,,,,,,,,,,,,,,,,,,,,,,
,,,,,,5e10ad92a6eb6078856a5067,62bbfb66b97729c39df35892,2022-06-29_08h13.33.070,Colour_Asymmetry_Pilot,2022.1.3,MacIntel,9.979442349,62bbe60bf3d75ef465d3e404,0,88,88,6,1,fourtwo,,,,,,,,,,,,,,,,,,,,,,,,,,,,,,,,,,,,,,,,,,,,,,,,,,,,,,,,,,,,,,,,,,,,,,,,,,,,,,,,,,,,,,,,,,,,,,,,,,,,,,,,,,,,,,,,,,,,,,,,,,,,,,,,,,,,,,,,,,,,,,,,,,,,,,,,
,,,,,,5e10ad92a6eb6078856a5067,62bbfb66b97729c39df35892,2022-06-29_08h13.33.070,Colour_Asymmetry_Pilot,2022.1.3,MacIntel,9.979442349,62bbe60bf3d75ef465d3e404,0,89,89,139,1,twofour,,,,,,,,,,,,,,,,,,,,,,,,,,,,,,,,,,,,,,,,,,,,,,,,,,,,,,,,,,,,,,,,,,,,,,,,,,,,,,,,,,,,,,,,,,,,,,,,,,,,,,,,,,,,,,,,,,,,,,,,,,,,,,,,,,,,,,,,,,,,,,,,,,,,,,,,
,,,,,,5e10ad92a6eb6078856a5067,62bbfb66b97729c39df35892,2022-06-29_08h13.33.070,Colour_Asymmetry_Pilot,2022.1.3,MacIntel,9.979442349,62bbe60bf3d75ef465d3e404,0,90,90,119,1,fourthree,,,,,,,,,,,,,,,,,,,,,,,,,,,,,,,,,,,,,,,,,,,,,,,,,,,,,,,,,,,,,,,,,,,,,,,,,,,,,,,,,,,,,,,,,,,,,,,,,,,,,,,,,,,,,,,,,,,,,,,,,,,,,,,,,,,,,,,,,,,,,,,,,,,,,,,,
,,,,,,5e10ad92a6eb6078856a5067,62bbfb66b97729c39df35892,2022-06-29_08h13.33.070,Colour_Asymmetry_Pilot,2022.1.3,MacIntel,9.979442349,62bbe60bf3d75ef465d3e404,0,91,91,55,1,fourthree,,,,,,,,,,,,,,,,,,,,,,,,,,,,,,,,,,,,,,,,,,,,,,,,,,,,,,,,,,,,,,,,,,,,,,,,,,,,,,,,,,,,,,,,,,,,,,,,,,,,,,,,,,,,,,,,,,,,,,,,,,,,,,,,,,,,,,,,,,,,,,,,,,,,,,,,
,,,,,,5e10ad92a6eb6078856a5067,62bbfb66b97729c39df35892,2022-06-29_08h13.33.070,Colour_Asymmetry_Pilot,2022.1.3,MacIntel,9.979442349,62bbe60bf3d75ef465d3e404,0,92,92,14,1,fourtwo,,,,,,,,,,,,,,,,,,,,,,,,,,,,,,,,,,,,,,,,,,,,,,,,,,,,,,,,,,,,,,,,,,,,,,,,,,,,,,,,,,,,,,,,,,,,,,,,,,,,,,,,,,,,,,,,,,,,,,,,,,,,,,,,,,,,,,,,,,,,,,,,,,,,,,,,
,,,,,,5e10ad92a6eb6078856a5067,62bbfb66b97729c39df35892,2022-06-29_08h13.33.070,Colour_Asymmetry_Pilot,2022.1.3,MacIntel,9.979442349,62bbe60bf3d75ef465d3e404,0,93,93,101,1,threefour,,,,,,,,,,,,,,,,,,,,,,,,,,,,,,,,,,,,,,,,,,,,,,,,,,,,,,,,,,,,,,,,,,,,,,,,,,,,,,,,,,,,,,,,,,,,,,,,,,,,,,,,,,,,,,,,,,,,,,,,,,,,,,,,,,,,,,,,,,,,,,,,,,,,,,,,
,,,,,,5e10ad92a6eb6078856a5067,62bbfb66b97729c39df35892,2022-06-29_08h13.33.070,Colour_Asymmetry_Pilot,2022.1.3,MacIntel,9.979442349,62bbe60bf3d75ef465d3e404,0,94,94,128,1,onetwo,,,,,,,,,,,,,,,,,,,,,,,,,,,,,,,,,,,,,,,,,,,,,,,,,,,,,,,,,,,,,,,,,,,,,,,,,,,,,,,,,,,,,,,,,,,,,,,,,,,,,,,,,,,,,,,,,,,,,,,,,,,,,,,,,,,,,,,,,,,,,,,,,,,,,,,,
,,,,,,5e10ad92a6eb6078856a5067,62bbfb66b97729c39df35892,2022-06-29_08h13.33.070,Colour_Asymmetry_Pilot,2022.1.3,MacIntel,9.979442349,62bbe60bf3d75ef465d3e404,0,95,95,110,1,fourtwo,,,,,,,,,,,,,,,,,,,,,,,,,,,,,,,,,,,,,,,,,,,,,,,,,,,,,,,,,,,,,,,,,,,,,,,,,,,,,,,,,,,,,,,,,,,,,,,,,,,,,,,,,,,,,,,,,,,,,,,,,,,,,,,,,,,,,,,,,,,,,,,,,,,,,,,,
,,,,,,5e10ad92a6eb6078856a5067,62bbfb66b97729c39df35892,2022-06-29_08h13.33.070,Colour_Asymmetry_Pilot,2022.1.3,MacIntel,9.979442349,62bbe60bf3d75ef465d3e404,0,96,96,140,1,threeone,,,,,,,,,,,,,,,,,,,,,,,,,,,,,,,,,,,,,,,,,,,,,,,,,,,,,,,,,,,,,,,,,,,,,,,,,,,,,,,,,,,,,,,,,,,,,,,,,,,,,,,,,,,,,,,,,,,,,,,,,,,,,,,,,,,,,,,,,,,,,,,,,,,,,,,,
,,,,,,5e10ad92a6eb6078856a5067,62bbfb66b97729c39df35892,2022-06-29_08h13.33.070,Colour_Asymmetry_Pilot,2022.1.3,MacIntel,9.979442349,62bbe60bf3d75ef465d3e404,0,97,97,66,1,twoone,,,,,,,,,,,,,,,,,,,,,,,,,,,,,,,,,,,,,,,,,,,,,,,,,,,,,,,,,,,,,,,,,,,,,,,,,,,,,,,,,,,,,,,,,,,,,,,,,,,,,,,,,,,,,,,,,,,,,,,,,,,,,,,,,,,,,,,,,,,,,,,,,,,,,,,,
,,,,,,5e10ad92a6eb6078856a5067,62bbfb66b97729c39df35892,2022-06-29_08h13.33.070,Colour_Asymmetry_Pilot,2022.1.3,MacIntel,9.979442349,62bbe60bf3d75ef465d3e404,0,98,98,160,1,onetwo,,,,,,,,,,,,,,,,,,,,,,,,,,,,,,,,,,,,,,,,,,,,,,,,,,,,,,,,,,,,,,,,,,,,,,,,,,,,,,,,,,,,,,,,,,,,,,,,,,,,,,,,,,,,,,,,,,,,,,,,,,,,,,,,,,,,,,,,,,,,,,,,,,,,,,,,
,,,,,,5e10ad92a6eb6078856a5067,62bbfb66b97729c39df35892,2022-06-29_08h13.33.070,Colour_Asymmetry_Pilot,2022.1.3,MacIntel,9.979442349,62bbe60bf3d75ef465d3e404,0,99,99,96,1,onetwo,,,,,,,,,,,,,,,,,,,,,,,,,,,,,,,,,,,,,,,,,,,,,,,,,,,,,,,,,,,,,,,,,,,,,,,,,,,,,,,,,,,,,,,,,,,,,,,,,,,,,,,,,,,,,,,,,,,,,,,,,,,,,,,,,,,,,,,,,,,,,,,,,,,,,,,,
,,,,,,5e10ad92a6eb6078856a5067,62bbfb66b97729c39df35892,2022-06-29_08h13.33.070,Colour_Asymmetry_Pilot,2022.1.3,MacIntel,9.979442349,62bbe60bf3d75ef465d3e404,0,100,100,123,1,twofour,,,,,,,,,,,,,,,,,,,,,,,,,,,,,,,,,,,,,,,,,,,,,,,,,,,,,,,,,,,,,,,,,,,,,,,,,,,,,,,,,,,,,,,,,,,,,,,,,,,,,,,,,,,,,,,,,,,,,,,,,,,,,,,,,,,,,,,,,,,,,,,,,,,,,,,,
,,,,,,5e10ad92a6eb6078856a5067,62bbfb66b97729c39df35892,2022-06-29_08h13.33.070,Colour_Asymmetry_Pilot,2022.1.3,MacIntel,9.979442349,62bbe60bf3d75ef465d3e404,0,101,101,137,1,onethree,,,,,,,,,,,,,,,,,,,,,,,,,,,,,,,,,,,,,,,,,,,,,,,,,,,,,,,,,,,,,,,,,,,,,,,,,,,,,,,,,,,,,,,,,,,,,,,,,,,,,,,,,,,,,,,,,,,,,,,,,,,,,,,,,,,,,,,,,,,,,,,,,,,,,,,,
,,,,,,5e10ad92a6eb6078856a5067,62bbfb66b97729c39df35892,2022-06-29_08h13.33.070,Colour_Asymmetry_Pilot,2022.1.3,MacIntel,9.979442349,62bbe60bf3d75ef465d3e404,0,102,102,138,1,twoone,,,,,,,,,,,,,,,,,,,,,,,,,,,,,,,,,,,,,,,,,,,,,,,,,,,,,,,,,,,,,,,,,,,,,,,,,,,,,,,,,,,,,,,,,,,,,,,,,,,,,,,,,,,,,,,,,,,,,,,,,,,,,,,,,,,,,,,,,,,,,,,,,,,,,,,,
,,,,,,5e10ad92a6eb6078856a5067,62bbfb66b97729c39df35892,2022-06-29_08h13.33.070,Colour_Asymmetry_Pilot,2022.1.3,MacIntel,9.979442349,62bbe60bf3d75ef465d3e404,0,103,103,114,1,twoone,,,,,,,,,,,,,,,,,,,,,,,,,,,,,,,,,,,,,,,,,,,,,,,,,,,,,,,,,,,,,,,,,,,,,,,,,,,,,,,,,,,,,,,,,,,,,,,,,,,,,,,,,,,,,,,,,,,,,,,,,,,,,,,,,,,,,,,,,,,,,,,,,,,,,,,,
,,,,,,5e10ad92a6eb6078856a5067,62bbfb66b97729c39df35892,2022-06-29_08h13.33.070,Colour_Asymmetry_Pilot,2022.1.3,MacIntel,9.979442349,62bbe60bf3d75ef465d3e404,0,104,104,136,1,onetwo,,,,,,,,,,,,,,,,,,,,,,,,,,,,,,,,,,,,,,,,,,,,,,,,,,,,,,,,,,,,,,,,,,,,,,,,,,,,,,,,,,,,,,,,,,,,,,,,,,,,,,,,,,,,,,,,,,,,,,,,,,,,,,,,,,,,,,,,,,,,,,,,,,,,,,,,
,,,,,,5e10ad92a6eb6078856a5067,62bbfb66b97729c39df35892,2022-06-29_08h13.33.070,Colour_Asymmetry_Pilot,2022.1.3,MacIntel,9.979442349,62bbe60bf3d75ef465d3e404,0,105,105,79,1,fourthree,,,,,,,,,,,,,,,,,,,,,,,,,,,,,,,,,,,,,,,,,,,,,,,,,,,,,,,,,,,,,,,,,,,,,,,,,,,,,,,,,,,,,,,,,,,,,,,,,,,,,,,,,,,,,,,,,,,,,,,,,,,,,,,,,,,,,,,,,,,,,,,,,,,,,,,,
,,,,,,5e10ad92a6eb6078856a5067,62bbfb66b97729c39df35892,2022-06-29_08h13.33.070,Colour_Asymmetry_Pilot,2022.1.3,MacIntel,9.979442349,62bbe60bf3d75ef465d3e404,0,106,106,127,1,fourthree,,,,,,,,,,,,,,,,,,,,,,,,,,,,,,,,,,,,,,,,,,,,,,,,,,,,,,,,,,,,,,,,,,,,,,,,,,,,,,,,,,,,,,,,,,,,,,,,,,,,,,,,,,,,,,,,,,,,,,,,,,,,,,,,,,,,,,,,,,,,,,,,,,,,,,,,
,,,,,,5e10ad92a6eb6078856a5067,62bbfb66b97729c39df35892,2022-06-29_08h13.33.070,Colour_Asymmetry_Pilot,2022.1.3,MacIntel,9.979442349,62bbe60bf3d75ef465d3e404,0,107,107,4,1,threeone,,,,,,,,,,,,,,,,,,,,,,,,,,,,,,,,,,,,,,,,,,,,,,,,,,,,,,,,,,,,,,,,,,,,,,,,,,,,,,,,,,,,,,,,,,,,,,,,,,,,,,,,,,,,,,,,,,,,,,,,,,,,,,,,,,,,,,,,,,,,,,,,,,,,,,,,
,,,,,,5e10ad92a6eb6078856a5067,62bbfb66b97729c39df35892,2022-06-29_08h13.33.070,Colour_Asymmetry_Pilot,2022.1.3,MacIntel,9.979442349,62bbe60bf3d75ef465d3e404,0,108,108,135,1,fourthree,,,,,,,,,,,,,,,,,,,,,,,,,,,,,,,,,,,,,,,,,,,,,,,,,,,,,,,,,,,,,,,,,,,,,,,,,,,,,,,,,,,,,,,,,,,,,,,,,,,,,,,,,,,,,,,,,,,,,,,,,,,,,,,,,,,,,,,,,,,,,,,,,,,,,,,,
,,,,,,5e10ad92a6eb6078856a5067,62bbfb66b97729c39df35892,2022-06-29_08h13.33.070,Colour_Asymmetry_Pilot,2022.1.3,MacIntel,9.979442349,62bbe60bf3d75ef465d3e404,0,109,109,61,1,threefour,,,,,,,,,,,,,,,,,,,,,,,,,,,,,,,,,,,,,,,,,,,,,,,,,,,,,,,,,,,,,,,,,,,,,,,,,,,,,,,,,,,,,,,,,,,,,,,,,,,,,,,,,,,,,,,,,,,,,,,,,,,,,,,,,,,,,,,,,,,,,,,,,,,,,,,,
,,,,,,5e10ad92a6eb6078856a5067,62bbfb66b97729c39df35892,2022-06-29_08h13.33.070,Colour_Asymmetry_Pilot,2022.1.3,MacIntel,9.979442349,62bbe60bf3d75ef465d3e404,0,110,110,108,1,threeone,,,,,,,,,,,,,,,,,,,,,,,,,,,,,,,,,,,,,,,,,,,,,,,,,,,,,,,,,,,,,,,,,,,,,,,,,,,,,,,,,,,,,,,,,,,,,,,,,,,,,,,,,,,,,,,,,,,,,,,,,,,,,,,,,,,,,,,,,,,,,,,,,,,,,,,,
,,,,,,5e10ad92a6eb6078856a5067,62bbfb66b97729c39df35892,2022-06-29_08h13.33.070,Colour_Asymmetry_Pilot,2022.1.3,MacIntel,9.979442349,62bbe60bf3d75ef465d3e404,0,111,111,31,1,fourthree,,,,,,,,,,,,,,,,,,,,,,,,,,,,,,,,,,,,,,,,,,,,,,,,,,,,,,,,,,,,,,,,,,,,,,,,,,,,,,,,,,,,,,,,,,,,,,,,,,,,,,,,,,,,,,,,,,,,,,,,,,,,,,,,,,,,,,,,,,,,,,,,,,,,,,,,
,,,,,,5e10ad92a6eb6078856a5067,62bbfb66b97729c39df35892,2022-06-29_08h13.33.070,Colour_Asymmetry_Pilot,2022.1.3,MacIntel,9.979442349,62bbe60bf3d75ef465d3e404,0,112,112,2,1,twoone,,,,,,,,,,,,,,,,,,,,,,,,,,,,,,,,,,,,,,,,,,,,,,,,,,,,,,,,,,,,,,,,,,,,,,,,,,,,,,,,,,,,,,,,,,,,,,,,,,,,,,,,,,,,,,,,,,,,,,,,,,,,,,,,,,,,,,,,,,,,,,,,,,,,,,,,
,,,,,,5e10ad92a6eb6078856a5067,62bbfb66b97729c39df35892,2022-06-29_08h13.33.070,Colour_Asymmetry_Pilot,2022.1.3,MacIntel,9.979442349,62bbe60bf3d75ef465d3e404,0,113,113,102,1,fourtwo,,,,,,,,,,,,,,,,,,,,,,,,,,,,,,,,,,,,,,,,,,,,,,,,,,,,,,,,,,,,,,,,,,,,,,,,,,,,,,,,,,,,,,,,,,,,,,,,,,,,,,,,,,,,,,,,,,,,,,,,,,,,,,,,,,,,,,,,,,,,,,,,,,,,,,,,
,,,,,,5e10ad92a6eb6078856a5067,62bbfb66b97729c39df35892,2022-06-29_08h13.33.070,Colour_Asymmetry_Pilot,2022.1.3,MacIntel,9.979442349,62bbe60bf3d75ef465d3e404,0,114,114,69,1,threefour,,,,,,,,,,,,,,,,,,,,,,,,,,,,,,,,,,,,,,,,,,,,,,,,,,,,,,,,,,,,,,,,,,,,,,,,,,,,,,,,,,,,,,,,,,,,,,,,,,,,,,,,,,,,,,,,,,,,,,,,,,,,,,,,,,,,,,,,,,,,,,,,,,,,,,,,
,,,,,,5e10ad92a6eb6078856a5067,62bbfb66b97729c39df35892,2022-06-29_08h13.33.070,Colour_Asymmetry_Pilot,2022.1.3,MacIntel,9.979442349,62bbe60bf3d75ef465d3e404,0,115,115,62,1,fourtwo,,,,,,,,,,,,,,,,,,,,,,,,,,,,,,,,,,,,,,,,,,,,,,,,,,,,,,,,,,,,,,,,,,,,,,,,,,,,,,,,,,,,,,,,,,,,,,,,,,,,,,,,,,,,,,,,,,,,,,,,,,,,,,,,,,,,,,,,,,,,,,,,,,,,,,,,
,,,,,,5e10ad92a6eb6078856a5067,62bbfb66b97729c39df35892,2022-06-29_08h13.33.070,Colour_Asymmetry_Pilot,2022.1.3,MacIntel,9.979442349,62bbe60bf3d75ef465d3e404,0,116,116,92,1,threeone,,,,,,,,,,,,,,,,,,,,,,,,,,,,,,,,,,,,,,,,,,,,,,,,,,,,,,,,,,,,,,,,,,,,,,,,,,,,,,,,,,,,,,,,,,,,,,,,,,,,,,,,,,,,,,,,,,,,,,,,,,,,,,,,,,,,,,,,,,,,,,,,,,,,,,,,
,,,,,,5e10ad92a6eb6078856a5067,62bbfb66b97729c39df35892,2022-06-29_08h13.33.070,Colour_Asymmetry_Pilot,2022.1.3,MacIntel,9.979442349,62bbe60bf3d75ef465d3e404,0,117,117,77,1,threefour,,,,,,,,,,,,,,,,,,,,,,,,,,,,,,,,,,,,,,,,,,,,,,,,,,,,,,,,,,,,,,,,,,,,,,,,,,,,,,,,,,,,,,,,,,,,,,,,,,,,,,,,,,,,,,,,,,,,,,,,,,,,,,,,,,,,,,,,,,,,,,,,,,,,,,,,
,,,,,,5e10ad92a6eb6078856a5067,62bbfb66b97729c39df35892,2022-06-29_08h13.33.070,Colour_Asymmetry_Pilot,2022.1.3,MacIntel,9.979442349,62bbe60bf3d75ef465d3e404,0,118,118,3,1,twofour,,,,,,,,,,,,,,,,,,,,,,,,,,,,,,,,,,,,,,,,,,,,,,,,,,,,,,,,,,,,,,,,,,,,,,,,,,,,,,,,,,,,,,,,,,,,,,,,,,,,,,,,,,,,,,,,,,,,,,,,,,,,,,,,,,,,,,,,,,,,,,,,,,,,,,,,
,,,,,,5e10ad92a6eb6078856a5067,62bbfb66b97729c39df35892,2022-06-29_08h13.33.070,Colour_Asymmetry_Pilot,2022.1.3,MacIntel,9.979442349,62bbe60bf3d75ef465d3e404,0,119,119,122,1,twoone,,,,,,,,,,,,,,,,,,,,,,,,,,,,,,,,,,,,,,,,,,,,,,,,,,,,,,,,,,,,,,,,,,,,,,,,,,,,,,,,,,,,,,,,,,,,,,,,,,,,,,,,,,,,,,,,,,,,,,,,,,,,,,,,,,,,,,,,,,,,,,,,,,,,,,,,
,,,,,,5e10ad92a6eb6078856a5067,62bbfb66b97729c39df35892,2022-06-29_08h13.33.070,Colour_Asymmetry_Pilot,2022.1.3,MacIntel,9.979442349,62bbe60bf3d75ef465d3e404,0,120,120,37,1,threefour,,,,,,,,,,,,,,,,,,,,,,,,,,,,,,,,,,,,,,,,,,,,,,,,,,,,,,,,,,,,,,,,,,,,,,,,,,,,,,,,,,,,,,,,,,,,,,,,,,,,,,,,,,,,,,,,,,,,,,,,,,,,,,,,,,,,,,,,,,,,,,,,,,,,,,,,
,,,,,,5e10ad92a6eb6078856a5067,62bbfb66b97729c39df35892,2022-06-29_08h13.33.070,Colour_Asymmetry_Pilot,2022.1.3,MacIntel,9.979442349,62bbe60bf3d75ef465d3e404,0,121,121,49,1,onethree,,,,,,,,,,,,,,,,,,,,,,,,,,,,,,,,,,,,,,,,,,,,,,,,,,,,,,,,,,,,,,,,,,,,,,,,,,,,,,,,,,,,,,,,,,,,,,,,,,,,,,,,,,,,,,,,,,,,,,,,,,,,,,,,,,,,,,,,,,,,,,,,,,,,,,,,
,,,,,,5e10ad92a6eb6078856a5067,62bbfb66b97729c39df35892,2022-06-29_08h13.33.070,Colour_Asymmetry_Pilot,2022.1.3,MacIntel,9.979442349,62bbe60bf3d75ef465d3e404,0,122,122,134,1,fourtwo,,,,,,,,,,,,,,,,,,,,,,,,,,,,,,,,,,,,,,,,,,,,,,,,,,,,,,,,,,,,,,,,,,,,,,,,,,,,,,,,,,,,,,,,,,,,,,,,,,,,,,,,,,,,,,,,,,,,,,,,,,,,,,,,,,,,,,,,,,,,,,,,,,,,,,,,
,,,,,,5e10ad92a6eb6078856a5067,62bbfb66b97729c39df35892,2022-06-29_08h13.33.070,Colour_Asymmetry_Pilot,2022.1.3,MacIntel,9.979442349,62bbe60bf3d75ef465d3e404,0,123,123,43,1,twofour,,,,,,,,,,,,,,,,,,,,,,,,,,,,,,,,,,,,,,,,,,,,,,,,,,,,,,,,,,,,,,,,,,,,,,,,,,,,,,,,,,,,,,,,,,,,,,,,,,,,,,,,,,,,,,,,,,,,,,,,,,,,,,,,,,,,,,,,,,,,,,,,,,,,,,,,
,,,,,,5e10ad92a6eb6078856a5067,62bbfb66b97729c39df35892,2022-06-29_08h13.33.070,Colour_Asymmetry_Pilot,2022.1.3,MacIntel,9.979442349,62bbe60bf3d75ef465d3e404,0,124,124,83,1,twofour,,,,,,,,,,,,,,,,,,,,,,,,,,,,,,,,,,,,,,,,,,,,,,,,,,,,,,,,,,,,,,,,,,,,,,,,,,,,,,,,,,,,,,,,,,,,,,,,,,,,,,,,,,,,,,,,,,,,,,,,,,,,,,,,,,,,,,,,,,,,,,,,,,,,,,,,
,,,,,,5e10ad92a6eb6078856a5067,62bbfb66b97729c39df35892,2022-06-29_08h13.33.070,Colour_Asymmetry_Pilot,2022.1.3,MacIntel,9.979442349,62bbe60bf3d75ef465d3e404,0,125,125,68,1,threeone,,,,,,,,,,,,,,,,,,,,,,,,,,,,,,,,,,,,,,,,,,,,,,,,,,,,,,,,,,,,,,,,,,,,,,,,,,,,,,,,,,,,,,,,,,,,,,,,,,,,,,,,,,,,,,,,,,,,,,,,,,,,,,,,,,,,,,,,,,,,,,,,,,,,,,,,
,,,,,,5e10ad92a6eb6078856a5067,62bbfb66b97729c39df35892,2022-06-29_08h13.33.070,Colour_Asymmetry_Pilot,2022.1.3,MacIntel,9.979442349,62bbe60bf3d75ef465d3e404,0,126,126,59,1,twofour,,,,,,,,,,,,,,,,,,,,,,,,,,,,,,,,,,,,,,,,,,,,,,,,,,,,,,,,,,,,,,,,,,,,,,,,,,,,,,,,,,,,,,,,,,,,,,,,,,,,,,,,,,,,,,,,,,,,,,,,,,,,,,,,,,,,,,,,,,,,,,,,,,,,,,,,
,,,,,,5e10ad92a6eb6078856a5067,62bbfb66b97729c39df35892,2022-06-29_08h13.33.070,Colour_Asymmetry_Pilot,2022.1.3,MacIntel,9.979442349,62bbe60bf3d75ef465d3e404,0,127,127,81,1,onethree,,,,,,,,,,,,,,,,,,,,,,,,,,,,,,,,,,,,,,,,,,,,,,,,,,,,,,,,,,,,,,,,,,,,,,,,,,,,,,,,,,,,,,,,,,,,,,,,,,,,,,,,,,,,,,,,,,,,,,,,,,,,,,,,,,,,,,,,,,,,,,,,,,,,,,,,
,,,,,,5e10ad92a6eb6078856a5067,62bbfb66b97729c39df35892,2022-06-29_08h13.33.070,Colour_Asymmetry_Pilot,2022.1.3,MacIntel,9.979442349,62bbe60bf3d75ef465d3e404,0,128,128,78,1,fourtwo,,,,,,,,,,,,,,,,,,,,,,,,,,,,,,,,,,,,,,,,,,,,,,,,,,,,,,,,,,,,,,,,,,,,,,,,,,,,,,,,,,,,,,,,,,,,,,,,,,,,,,,,,,,,,,,,,,,,,,,,,,,,,,,,,,,,,,,,,,,,,,,,,,,,,,,,
,,,,,,5e10ad92a6eb6078856a5067,62bbfb66b97729c39df35892,2022-06-29_08h13.33.070,Colour_Asymmetry_Pilot,2022.1.3,MacIntel,9.979442349,62bbe60bf3d75ef465d3e404,0,129,129,125,1,threefour,,,,,,,,,,,,,,,,,,,,,,,,,,,,,,,,,,,,,,,,,,,,,,,,,,,,,,,,,,,,,,,,,,,,,,,,,,,,,,,,,,,,,,,,,,,,,,,,,,,,,,,,,,,,,,,,,,,,,,,,,,,,,,,,,,,,,,,,,,,,,,,,,,,,,,,,
,,,,,,5e10ad92a6eb6078856a5067,62bbfb66b97729c39df35892,2022-06-29_08h13.33.070,Colour_Asymmetry_Pilot,2022.1.3,MacIntel,9.979442349,62bbe60bf3d75ef465d3e404,0,130,130,51,1,twofour,,,,,,,,,,,,,,,,,,,,,,,,,,,,,,,,,,,,,,,,,,,,,,,,,,,,,,,,,,,,,,,,,,,,,,,,,,,,,,,,,,,,,,,,,,,,,,,,,,,,,,,,,,,,,,,,,,,,,,,,,,,,,,,,,,,,,,,,,,,,,,,,,,,,,,,,
,,,,,,5e10ad92a6eb6078856a5067,62bbfb66b97729c39df35892,2022-06-29_08h13.33.070,Colour_Asymmetry_Pilot,2022.1.3,MacIntel,9.979442349,62bbe60bf3d75ef465d3e404,0,131,131,146,1,twoone,,,,,,,,,,,,,,,,,,,,,,,,,,,,,,,,,,,,,,,,,,,,,,,,,,,,,,,,,,,,,,,,,,,,,,,,,,,,,,,,,,,,,,,,,,,,,,,,,,,,,,,,,,,,,,,,,,,,,,,,,,,,,,,,,,,,,,,,,,,,,,,,,,,,,,,,
,,,,,,5e10ad92a6eb6078856a5067,62bbfb66b97729c39df35892,2022-06-29_08h13.33.070,Colour_Asymmetry_Pilot,2022.1.3,MacIntel,9.979442349,62bbe60bf3d75ef465d3e404,0,132,132,71,1,fourthree,,,,,,,,,,,,,,,,,,,,,,,,,,,,,,,,,,,,,,,,,,,,,,,,,,,,,,,,,,,,,,,,,,,,,,,,,,,,,,,,,,,,,,,,,,,,,,,,,,,,,,,,,,,,,,,,,,,,,,,,,,,,,,,,,,,,,,,,,,,,,,,,,,,,,,,,
,,,,,,5e10ad92a6eb6078856a5067,62bbfb66b97729c39df35892,2022-06-29_08h13.33.070,Colour_Asymmetry_Pilot,2022.1.3,MacIntel,9.979442349,62bbe60bf3d75ef465d3e404,0,133,133,40,1,onetwo,,,,,,,,,,,,,,,,,,,,,,,,,,,,,,,,,,,,,,,,,,,,,,,,,,,,,,,,,,,,,,,,,,,,,,,,,,,,,,,,,,,,,,,,,,,,,,,,,,,,,,,,,,,,,,,,,,,,,,,,,,,,,,,,,,,,,,,,,,,,,,,,,,,,,,,,
,,,,,,5e10ad92a6eb6078856a5067,62bbfb66b97729c39df35892,2022-06-29_08h13.33.070,Colour_Asymmetry_Pilot,2022.1.3,MacIntel,9.979442349,62bbe60bf3d75ef465d3e404,0,134,134,41,1,onethree,,,,,,,,,,,,,,,,,,,,,,,,,,,,,,,,,,,,,,,,,,,,,,,,,,,,,,,,,,,,,,,,,,,,,,,,,,,,,,,,,,,,,,,,,,,,,,,,,,,,,,,,,,,,,,,,,,,,,,,,,,,,,,,,,,,,,,,,,,,,,,,,,,,,,,,,
,,,,,,5e10ad92a6eb6078856a5067,62bbfb66b97729c39df35892,2022-06-29_08h13.33.070,Colour_Asymmetry_Pilot,2022.1.3,MacIntel,9.979442349,62bbe60bf3d75ef465d3e404,0,135,135,129,1,onethree,,,,,,,,,,,,,,,,,,,,,,,,,,,,,,,,,,,,,,,,,,,,,,,,,,,,,,,,,,,,,,,,,,,,,,,,,,,,,,,,,,,,,,,,,,,,,,,,,,,,,,,,,,,,,,,,,,,,,,,,,,,,,,,,,,,,,,,,,,,,,,,,,,,,,,,,
,,,,,,5e10ad92a6eb6078856a5067,62bbfb66b97729c39df35892,2022-06-29_08h13.33.070,Colour_Asymmetry_Pilot,2022.1.3,MacIntel,9.979442349,62bbe60bf3d75ef465d3e404,0,136,136,0,1,onetwo,,,,,,,,,,,,,,,,,,,,,,,,,,,,,,,,,,,,,,,,,,,,,,,,,,,,,,,,,,,,,,,,,,,,,,,,,,,,,,,,,,,,,,,,,,,,,,,,,,,,,,,,,,,,,,,,,,,,,,,,,,,,,,,,,,,,,,,,,,,,,,,,,,,,,,,,
,,,,,,5e10ad92a6eb6078856a5067,62bbfb66b97729c39df35892,2022-06-29_08h13.33.070,Colour_Asymmetry_Pilot,2022.1.3,MacIntel,9.979442349,62bbe60bf3d75ef465d3e404,0,137,137,118,1,fourtwo,,,,,,,,,,,,,,,,,,,,,,,,,,,,,,,,,,,,,,,,,,,,,,,,,,,,,,,,,,,,,,,,,,,,,,,,,,,,,,,,,,,,,,,,,,,,,,,,,,,,,,,,,,,,,,,,,,,,,,,,,,,,,,,,,,,,,,,,,,,,,,,,,,,,,,,,
,,,,,,5e10ad92a6eb6078856a5067,62bbfb66b97729c39df35892,2022-06-29_08h13.33.070,Colour_Asymmetry_Pilot,2022.1.3,MacIntel,9.979442349,62bbe60bf3d75ef465d3e404,0,138,138,53,1,threefour,,,,,,,,,,,,,,,,,,,,,,,,,,,,,,,,,,,,,,,,,,,,,,,,,,,,,,,,,,,,,,,,,,,,,,,,,,,,,,,,,,,,,,,,,,,,,,,,,,,,,,,,,,,,,,,,,,,,,,,,,,,,,,,,,,,,,,,,,,,,,,,,,,,,,,,,
,,,,,,5e10ad92a6eb6078856a5067,62bbfb66b97729c39df35892,2022-06-29_08h13.33.070,Colour_Asymmetry_Pilot,2022.1.3,MacIntel,9.979442349,62bbe60bf3d75ef465d3e404,0,139,139,36,1,threeone,,,,,,,,,,,,,,,,,,,,,,,,,,,,,,,,,,,,,,,,,,,,,,,,,,,,,,,,,,,,,,,,,,,,,,,,,,,,,,,,,,,,,,,,,,,,,,,,,,,,,,,,,,,,,,,,,,,,,,,,,,,,,,,,,,,,,,,,,,,,,,,,,,,,,,,,
,,,,,,5e10ad92a6eb6078856a5067,62bbfb66b97729c39df35892,2022-06-29_08h13.33.070,Colour_Asymmetry_Pilot,2022.1.3,MacIntel,9.979442349,62bbe60bf3d75ef465d3e404,0,140,140,145,1,onethree,,,,,,,,,,,,,,,,,,,,,,,,,,,,,,,,,,,,,,,,,,,,,,,,,,,,,,,,,,,,,,,,,,,,,,,,,,,,,,,,,,,,,,,,,,,,,,,,,,,,,,,,,,,,,,,,,,,,,,,,,,,,,,,,,,,,,,,,,,,,,,,,,,,,,,,,
,,,,,,5e10ad92a6eb6078856a5067,62bbfb66b97729c39df35892,2022-06-29_08h13.33.070,Colour_Asymmetry_Pilot,2022.1.3,MacIntel,9.979442349,62bbe60bf3d75ef465d3e404,0,141,141,38,1,fourtwo,,,,,,,,,,,,,,,,,,,,,,,,,,,,,,,,,,,,,,,,,,,,,,,,,,,,,,,,,,,,,,,,,,,,,,,,,,,,,,,,,,,,,,,,,,,,,,,,,,,,,,,,,,,,,,,,,,,,,,,,,,,,,,,,,,,,,,,,,,,,,,,,,,,,,,,,
,,,,,,5e10ad92a6eb6078856a5067,62bbfb66b97729c39df35892,2022-06-29_08h13.33.070,Colour_Asymmetry_Pilot,2022.1.3,MacIntel,9.979442349,62bbe60bf3d75ef465d3e404,0,142,142,148,1,threeone,,,,,,,,,,,,,,,,,,,,,,,,,,,,,,,,,,,,,,,,,,,,,,,,,,,,,,,,,,,,,,,,,,,,,,,,,,,,,,,,,,,,,,,,,,,,,,,,,,,,,,,,,,,,,,,,,,,,,,,,,,,,,,,,,,,,,,,,,,,,,,,,,,,,,,,,
,,,,,,5e10ad92a6eb6078856a5067,62bbfb66b97729c39df35892,2022-06-29_08h13.33.070,Colour_Asymmetry_Pilot,2022.1.3,MacIntel,9.979442349,62bbe60bf3d75ef465d3e404,0,143,143,15,1,fourthree,,,,,,,,,,,,,,,,,,,,,,,,,,,,,,,,,,,,,,,,,,,,,,,,,,,,,,,,,,,,,,,,,,,,,,,,,,,,,,,,,,,,,,,,,,,,,,,,,,,,,,,,,,,,,,,,,,,,,,,,,,,,,,,,,,,,,,,,,,,,,,,,,,,,,,,,
,,,,,,5e10ad92a6eb6078856a5067,62bbfb66b97729c39df35892,2022-06-29_08h13.33.070,Colour_Asymmetry_Pilot,2022.1.3,MacIntel,9.979442349,62bbe60bf3d75ef465d3e404,0,144,144,155,1,twofour,,,,,,,,,,,,,,,,,,,,,,,,,,,,,,,,,,,,,,,,,,,,,,,,,,,,,,,,,,,,,,,,,,,,,,,,,,,,,,,,,,,,,,,,,,,,,,,,,,,,,,,,,,,,,,,,,,,,,,,,,,,,,,,,,,,,,,,,,,,,,,,,,,,,,,,,
,,,,,,5e10ad92a6eb6078856a5067,62bbfb66b97729c39df35892,2022-06-29_08h13.33.070,Colour_Asymmetry_Pilot,2022.1.3,MacIntel,9.979442349,62bbe60bf3d75ef465d3e404,0,145,145,109,1,threefour,,,,,,,,,,,,,,,,,,,,,,,,,,,,,,,,,,,,,,,,,,,,,,,,,,,,,,,,,,,,,,,,,,,,,,,,,,,,,,,,,,,,,,,,,,,,,,,,,,,,,,,,,,,,,,,,,,,,,,,,,,,,,,,,,,,,,,,,,,,,,,,,,,,,,,,,
,,,,,,5e10ad92a6eb6078856a5067,62bbfb66b97729c39df35892,2022-06-29_08h13.33.070,Colour_Asymmetry_Pilot,2022.1.3,MacIntel,9.979442349,62bbe60bf3d75ef465d3e404,0,146,146,116,1,threeone,,,,,,,,,,,,,,,,,,,,,,,,,,,,,,,,,,,,,,,,,,,,,,,,,,,,,,,,,,,,,,,,,,,,,,,,,,,,,,,,,,,,,,,,,,,,,,,,,,,,,,,,,,,,,,,,,,,,,,,,,,,,,,,,,,,,,,,,,,,,,,,,,,,,,,,,
,,,,,,5e10ad92a6eb6078856a5067,62bbfb66b97729c39df35892,2022-06-29_08h13.33.070,Colour_Asymmetry_Pilot,2022.1.3,MacIntel,9.979442349,62bbe60bf3d75ef465d3e404,0,147,147,67,1,twofour,,,,,,,,,,,,,,,,,,,,,,,,,,,,,,,,,,,,,,,,,,,,,,,,,,,,,,,,,,,,,,,,,,,,,,,,,,,,,,,,,,,,,,,,,,,,,,,,,,,,,,,,,,,,,,,,,,,,,,,,,,,,,,,,,,,,,,,,,,,,,,,,,,,,,,,,
,,,,,,5e10ad92a6eb6078856a5067,62bbfb66b97729c39df35892,2022-06-29_08h13.33.070,Colour_Asymmetry_Pilot,2022.1.3,MacIntel,9.979442349,62bbe60bf3d75ef465d3e404,0,148,148,106,1,twoone,,,,,,,,,,,,,,,,,,,,,,,,,,,,,,,,,,,,,,,,,,,,,,,,,,,,,,,,,,,,,,,,,,,,,,,,,,,,,,,,,,,,,,,,,,,,,,,,,,,,,,,,,,,,,,,,,,,,,,,,,,,,,,,,,,,,,,,,,,,,,,,,,,,,,,,,
,,,,,,5e10ad92a6eb6078856a5067,62bbfb66b97729c39df35892,2022-06-29_08h13.33.070,Colour_Asymmetry_Pilot,2022.1.3,MacIntel,9.979442349,62bbe60bf3d75ef465d3e404,0,149,149,130,1,twoone,,,,,,,,,,,,,,,,,,,,,,,,,,,,,,,,,,,,,,,,,,,,,,,,,,,,,,,,,,,,,,,,,,,,,,,,,,,,,,,,,,,,,,,,,,,,,,,,,,,,,,,,,,,,,,,,,,,,,,,,,,,,,,,,,,,,,,,,,,,,,,,,,,,,,,,,
,,,,,,5e10ad92a6eb6078856a5067,62bbfb66b97729c39df35892,2022-06-29_08h13.33.070,Colour_Asymmetry_Pilot,2022.1.3,MacIntel,9.979442349,62bbe60bf3d75ef465d3e404,0,150,150,104,1,onetwo,,,,,,,,,,,,,,,,,,,,,,,,,,,,,,,,,,,,,,,,,,,,,,,,,,,,,,,,,,,,,,,,,,,,,,,,,,,,,,,,,,,,,,,,,,,,,,,,,,,,,,,,,,,,,,,,,,,,,,,,,,,,,,,,,,,,,,,,,,,,,,,,,,,,,,,,
,,,,,,5e10ad92a6eb6078856a5067,62bbfb66b97729c39df35892,2022-06-29_08h13.33.070,Colour_Asymmetry_Pilot,2022.1.3,MacIntel,9.979442349,62bbe60bf3d75ef465d3e404,0,151,151,18,1,twoone,,,,,,,,,,,,,,,,,,,,,,,,,,,,,,,,,,,,,,,,,,,,,,,,,,,,,,,,,,,,,,,,,,,,,,,,,,,,,,,,,,,,,,,,,,,,,,,,,,,,,,,,,,,,,,,,,,,,,,,,,,,,,,,,,,,,,,,,,,,,,,,,,,,,,,,,
,,,,,,5e10ad92a6eb6078856a5067,62bbfb66b97729c39df35892,2022-06-29_08h13.33.070,Colour_Asymmetry_Pilot,2022.1.3,MacIntel,9.979442349,62bbe60bf3d75ef465d3e404,0,152,152,142,1,fourtwo,,,,,,,,,,,,,,,,,,,,,,,,,,,,,,,,,,,,,,,,,,,,,,,,,,,,,,,,,,,,,,,,,,,,,,,,,,,,,,,,,,,,,,,,,,,,,,,,,,,,,,,,,,,,,,,,,,,,,,,,,,,,,,,,,,,,,,,,,,,,,,,,,,,,,,,,
,,,,,,5e10ad92a6eb6078856a5067,62bbfb66b97729c39df35892,2022-06-29_08h13.33.070,Colour_Asymmetry_Pilot,2022.1.3,MacIntel,9.979442349,62bbe60bf3d75ef465d3e404,0,153,153,131,1,twofour,,,,,,,,,,,,,,,,,,,,,,,,,,,,,,,,,,,,,,,,,,,,,,,,,,,,,,,,,,,,,,,,,,,,,,,,,,,,,,,,,,,,,,,,,,,,,,,,,,,,,,,,,,,,,,,,,,,,,,,,,,,,,,,,,,,,,,,,,,,,,,,,,,,,,,,,
,,,,,,5e10ad92a6eb6078856a5067,62bbfb66b97729c39df35892,2022-06-29_08h13.33.070,Colour_Asymmetry_Pilot,2022.1.3,MacIntel,9.979442349,62bbe60bf3d75ef465d3e404,0,154,154,22,1,fourtwo,,,,,,,,,,,,,,,,,,,,,,,,,,,,,,,,,,,,,,,,,,,,,,,,,,,,,,,,,,,,,,,,,,,,,,,,,,,,,,,,,,,,,,,,,,,,,,,,,,,,,,,,,,,,,,,,,,,,,,,,,,,,,,,,,,,,,,,,,,,,,,,,,,,,,,,,
,,,,,,5e10ad92a6eb6078856a5067,62bbfb66b97729c39df35892,2022-06-29_08h13.33.070,Colour_Asymmetry_Pilot,2022.1.3,MacIntel,9.979442349,62bbe60bf3d75ef465d3e404,0,155,155,42,1,twoone,,,,,,,,,,,,,,,,,,,,,,,,,,,,,,,,,,,,,,,,,,,,,,,,,,,,,,,,,,,,,,,,,,,,,,,,,,,,,,,,,,,,,,,,,,,,,,,,,,,,,,,,,,,,,,,,,,,,,,,,,,,,,,,,,,,,,,,,,,,,,,,,,,,,,,,,
,,,,,,5e10ad92a6eb6078856a5067,62bbfb66b97729c39df35892,2022-06-29_08h13.33.070,Colour_Asymmetry_Pilot,2022.1.3,MacIntel,9.979442349,62bbe60bf3d75ef465d3e404,0,156,156,154,1,twoone,,,,,,,,,,,,,,,,,,,,,,,,,,,,,,,,,,,,,,,,,,,,,,,,,,,,,,,,,,,,,,,,,,,,,,,,,,,,,,,,,,,,,,,,,,,,,,,,,,,,,,,,,,,,,,,,,,,,,,,,,,,,,,,,,,,,,,,,,,,,,,,,,,,,,,,,
,,,,,,5e10ad92a6eb6078856a5067,62bbfb66b97729c39df35892,2022-06-29_08h13.33.070,Colour_Asymmetry_Pilot,2022.1.3,MacIntel,9.979442349,62bbe60bf3d75ef465d3e404,0,157,157,158,1,fourtwo,,,,,,,,,,,,,,,,,,,,,,,,,,,,,,,,,,,,,,,,,,,,,,,,,,,,,,,,,,,,,,,,,,,,,,,,,,,,,,,,,,,,,,,,,,,,,,,,,,,,,,,,,,,,,,,,,,,,,,,,,,,,,,,,,,,,,,,,,,,,,,,,,,,,,,,,
,,,,,,5e10ad92a6eb6078856a5067,62bbfb66b97729c39df35892,2022-06-29_08h13.33.070,Colour_Asymmetry_Pilot,2022.1.3,MacIntel,9.979442349,62bbe60bf3d75ef465d3e404,0,158,158,16,1,onetwo,,,,,,,,,,,,,,,,,,,,,,,,,,,,,,,,,,,,,,,,,,,,,,,,,,,,,,,,,,,,,,,,,,,,,,,,,,,,,,,,,,,,,,,,,,,,,,,,,,,,,,,,,,,,,,,,,,,,,,,,,,,,,,,,,,,,,,,,,,,,,,,,,,,,,,,,
,,,,,,5e10ad92a6eb6078856a5067,62bbfb66b97729c39df35892,2022-06-29_08h13.33.070,Colour_Asymmetry_Pilot,2022.1.3,MacIntel,9.979442349,62bbe60bf3d75ef465d3e404,0,159,159,94,1,fourtwo,,,,,,,,,,,,,,,,,,,,,,,,,,,,,,,,,,,,,,,,,,,,,,,,,,,,,,,,,,,,,,,,,,,,,,,,,,,,,,,,,,,,,,,,,,,,,,,,,,,,,,,,,,,,,,,,,,,,,,,,,,,,,,,,,,,,,,,,,,,,,,,,,,,,,,,,
,,,,,,5e10ad92a6eb6078856a5067,62bbfb66b97729c39df35892,2022-06-29_08h13.33.070,Colour_Asymmetry_Pilot,2022.1.3,MacIntel,9.979442349,62bbe60bf3d75ef465d3e404,0,160,160,88,1,onetwo,,,,,,,,,,,,,,,,,,,,,,,,,,,,,,,,,,,,,,,,,,,,,,,,,,,,,,,,,,,,,,,,,,,,,,,,,,,,,,,,,,,,,,,,,,,,,,,,,,,,,,,,,,,,,,,,,,,,,,,,,,,,,,,,,,,,,,,,,,,,,,,,,,,,,,,,
,,,,,,5e10ad92a6eb6078856a5067,62bbfb66b97729c39df35892,2022-06-29_08h13.33.070,Colour_Asymmetry_Pilot,2022.1.3,MacIntel,9.979442349,62bbe60bf3d75ef465d3e404,0,161,161,33,1,onethree,,,,,,,,,,,,,,,,,,,,,,,,,,,,,,,,,,,,,,,,,,,,,,,,,,,,,,,,,,,,,,,,,,,,,,,,,,,,,,,,,,,,,,,,,,,,,,,,,,,,,,,,,,,,,,,,,,,,,,,,,,,,,,,,,,,,,,,,,,,,,,,,,,,,,,,,
,,,,,,5e10ad92a6eb6078856a5067,62bbfb66b97729c39df35892,2022-06-29_08h13.33.070,Colour_Asymmetry_Pilot,2022.1.3,MacIntel,9.979442349,62bbe60bf3d75ef465d3e404,,,,,,,space,2.44381,space,0.34242,space,32.75127,space,17.247805,space,2.494455,space,3.832075,"[-0.5688,-0.08239999999999992,-0.1844]",threeone,"[-0.2942,-0.7648,-0.7492000000000001]",4,24.75507,32.2265625,95.60546875,1,0,0,response1disk_5,-8.7890625,2.69921875,1,0,0,rectangle_8,-8.7890625,2.69921875,1,0,0,1,-8.7890625,2.69921875,1,0,0,0,0,0,0,1,,,,,,,,,,,,,,,,,,,,,,,,,,,,,,,,,,,,,,,,,,,,,,,,,,,,,,,,,,,,,,,,,,,,,,,,,,,,,,,,,,,,,,,,,,,,,,,,,,,,,,,,,,,
,,,,,,5e10ad92a6eb6078856a5067,62bbfb66b97729c39df35892,2022-06-29_08h13.33.070,Colour_Asymmetry_Pilot,2022.1.3,MacIntel,9.979442349,62bbe60bf3d75ef465d3e404,,,,,,,,,,,,,,,,,,,"[0.7018,0.7176,0.6155999999999999]",twofour,"[1,0.12939999999999996,-1]",4,12.701375,34.8828125,87.90625,1,0,0,response1disk_5,1.56640625,-2.69140625,1,0,0,rectangle_8,1.56640625,-2.69140625,1,0,0,1,1.56640625,-2.69140625,1,0,0,1,0,1,0,1,,,,,,,,,,,,,,,,,,,,,,,,,,,,,,,,,,,,,,,,,,,,,,,,,,,,,,,,,,,,,,,,,,,,,,,,,,,,,,,,,,,,,,,,,,,,,,,,,,,,,,,,,,,
,,,,,,5e10ad92a6eb6078856a5067,62bbfb66b97729c39df35892,2022-06-29_08h13.33.070,Colour_Asymmetry_Pilot,2022.1.3,MacIntel,9.979442349,62bbe60bf3d75ef465d3e404,,,,,,,,,,,,,,,,,,,"[0.19199999999999995,0.18419999999999992,0.5136000000000001]",twofour,"[-0.9216,-0.5529999999999999,-0.3962]",-4,2.516495,-43.9296875,68.94140625,1,0,0,response7disk_5,-7.39453125,-1.30078125,1,0,0,rectangle_8,-7.39453125,-1.30078125,1,0,0,1,-7.39453125,-1.30078125,1,0,0,2,0,2,0,1,,,,,,,,,,,,,,,,,,,,,,,,,,,,,,,,,,,,,,,,,,,,,,,,,,,,,,,,,,,,,,,,,,,,,,,,,,,,,,,,,,,,,,,,,,,,,,,,,,,,,,,,,,,
,,,,,,5e10ad92a6eb6078856a5067,62bbfb66b97729c39df35892,2022-06-29_08h13.33.070,Colour_Asymmetry_Pilot,2022.1.3,MacIntel,9.979442349,62bbe60bf3d75ef465d3e404,,,,,,,,,,,,,,,,,,,"[-0.9216,-0.5529999999999999,-0.3962]",twofour,"[0.9213999999999998,0.6391999999999998,-0.9922]",-4,1.794295,-37.62109375,65.375,1,0,0,response7disk_5,-6,1.046875,1,0,0,rectangle_8,-6,1.046875,1,0,0,1,-6,1.046875,1,0,0,3,0,3,0,1,,,,,,,,,,,,,,,,,,,,,,,,,,,,,,,,,,,,,,,,,,,,,,,,,,,,,,,,,,,,,,,,,,,,,,,,,,,,,,,,,,,,,,,,,,,,,,,,,,,,,,,,,,,
,,,,,,5e10ad92a6eb6078856a5067,62bbfb66b97729c39df35892,2022-06-29_08h13.33.070,Colour_Asymmetry_Pilot,2022.1.3,MacIntel,9.979442349,62bbe60bf3d75ef465d3e404,,,,,,,,,,,,,,,,,,,"[-0.9296,-0.12959999999999994,-0.043199999999999905]",fourtwo,"[0.3881999999999999,-0.23939999999999995,-0.05040000000000011]",-4,1.81642,-38.7109375,70.94140625,1,0,0,response7disk_5,-4.34765625,5.22265625,1,0,0,rectangle_8,33.79296875,-74.4140625,1,0,0,1,-3.34765625,-8.04296875,1,0,0,4,0,4,0,1,response3disk_7,4,rectangle_4,,,,,,,,,,,,,,,,,,,,,,,,,,,,,,,,,,,,,,,,,,,,,,,,,,,,,,,,,,,,,,,,,,,,,,,,,,,,,,,,,,,,,,,,,,,,,,,,,,,,,,,,
,,,,,,5e10ad92a6eb6078856a5067,62bbfb66b97729c39df35892,2022-06-29_08h13.33.070,Colour_Asymmetry_Pilot,2022.1.3,MacIntel,9.979442349,62bbe60bf3d75ef465d3e404,,,,,,,,,,,,,,,,,,,"[-0.09019999999999995,0.44300000000000006,0.5371999999999999]",threefour,"[-0.01980000000000004,-0.5138,-0.38039999999999996]",-4,1.984115,-49.28125,71.55078125,1,0,0,response7disk_5,-6.44140625,-2.46484375,1,0,0,rectangle_8,-6.44140625,-2.46484375,1,0,0,1,-6.44140625,-2.46484375,1,0,0,5,0,5,0,1,,,,,,,,,,,,,,,,,,,,,,,,,,,,,,,,,,,,,,,,,,,,,,,,,,,,,,,,,,,,,,,,,,,,,,,,,,,,,,,,,,,,,,,,,,,,,,,,,,,,,,,,,,,
,,,,,,5e10ad92a6eb6078856a5067,62bbfb66b97729c39df35892,2022-06-29_08h13.33.070,Colour_Asymmetry_Pilot,2022.1.3,MacIntel,9.979442349,62bbe60bf3d75ef465d3e404,,,,,,,,,,,,,,,,,,,"[0.37240000000000006,-0.050999999999999934,-0.5216]",onetwo,"[-0.9844,-0.9688,-0.9922]",-4,1.54254,-38.3671875,89.00390625,1,0,0,response7disk_5,-4.66015625,-0.72265625,1,0,0,rectangle_8,-4.66015625,-0.72265625,1,0,0,1,-4.66015625,-0.72265625,1,0,0,6,0,6,0,1,,,,,,,,,,,,,,,,,,,,,,,,,,,,,,,,,,,,,,,,,,,,,,,,,,,,,,,,,,,,,,,,,,,,,,,,,,,,,,,,,,,,,,,,,,,,,,,,,,,,,,,,,,,
,,,,,,5e10ad92a6eb6078856a5067,62bbfb66b97729c39df35892,2022-06-29_08h13.33.070,Colour_Asymmetry_Pilot,2022.1.3,MacIntel,9.979442349,62bbe60bf3d75ef465d3e404,,,,,,,,,,,,,,,,,,,,onetwo,,4,4.432345,,,,,,,,,,,,,,,,,,,,,,,,,,,,,,,,space,3.4243,"[-0.10599999999999998,-0.15300000000000002,0.15280000000000005]","[-0.4982,-0.2942,-0.0354000000000001]",42.96484375,71.5625,1,0,0,response1disk,-7.05078125,3.015625,1,0,0,rectangle,-7.05078125,3.015625,1,0,0,,1,0.006545,0,-7.05078125,3.015625,1,0,0,0,0,0,102,1,21,second,,,,,,,,,,,,,,,,,,,,,,,,,,,,,,,,,,,,,,,,,,,,,,,,,,,,,,,,,,,,,,,,,,,
,,,,,,5e10ad92a6eb6078856a5067,62bbfb66b97729c39df35892,2022-06-29_08h13.33.070,Colour_Asymmetry_Pilot,2022.1.3,MacIntel,9.979442349,62bbe60bf3d75ef465d3e404,,,,,,,,,,,,,,,,,,,,threefour,,-4,5.03731,,,,,,,,,,,,,,,,,,,,,,,,,,,,,,,,,,"[0.09799999999999986,-0.24719999999999998,0.15280000000000005]","[-0.17659999999999998,-0.2864,-0.8354]",-41.10546875,79.12890625,1,0,0,response7disk,-1.7890625,4.015625,1,0,0,rectangle,-1.7890625,4.015625,1,0,0,,1,0.001375,0,-1.7890625,4.015625,1,0,0,0,1,1,140,1,59,second,,,,,,,,,,,,,,,,,,,,,,,,,,,,,,,,,,,,,,,,,,,,,,,,,,,,,,,,,,,,,,,,,,,
,,,,,,5e10ad92a6eb6078856a5067,62bbfb66b97729c39df35892,2022-06-29_08h13.33.070,Colour_Asymmetry_Pilot,2022.1.3,MacIntel,9.979442349,62bbe60bf3d75ef465d3e404,,,,,,,,,,,,,,,,,,,,onethree,,-4,1.2678,,,,,,,,,,,,,,,,,,,,,,,,,,,,,,,,,,"[0.34099999999999997,0.5841999999999998,-0.9844]","[0.3568,-0.20799999999999996,-0.9844]",-27.40625,54.59765625,1,0,0,response7disk,-1.65625,-1.90234375,1,0,0,rectangle,-35.53515625,-48.17578125,1,0,0,-1,1,4.53629,1,-2.265625,2.578125,1,0,0,0,2,2,11,1,11,first,response5disk_3,rectangle,,,,,,,,,,,,,,,,,,,,,,,,,,,,,,,,,,,,,,,,,,,,,,,,,,,,,,,,,,,,,,,,,
,,,,,,5e10ad92a6eb6078856a5067,62bbfb66b97729c39df35892,2022-06-29_08h13.33.070,Colour_Asymmetry_Pilot,2022.1.3,MacIntel,9.979442349,62bbe60bf3d75ef465d3e404,,,,,,,,,,,,,,,,,,,,onetwo,,-3,2.347595,,,,,,,,,,,,,,,,,,,,,,,,,,,,,,,,,,"[0.37240000000000006,0.4980000000000002,-0.2864]","[-0.17659999999999998,-0.2864,-0.8354]",-88.1640625,43.8515625,1,0,0,response7disk,-5.69921875,-2.078125,1,0,0,rectangle,-5.69921875,-2.078125,1,0,0,-1,3,0.004335,0,-5.69921875,-2.078125,1,0,0,0,3,3,98,1,17,second,,,,,,,,,,,,,,,,,,,,,,,,,,,,,,,,,,,,,,,,,,,,,,,,,,,,,,,,,,,,,,,,,,,
,,,,,,5e10ad92a6eb6078856a5067,62bbfb66b97729c39df35892,2022-06-29_08h13.33.070,Colour_Asymmetry_Pilot,2022.1.3,MacIntel,9.979442349,62bbe60bf3d75ef465d3e404,,,,,,,,,,,,,,,,,,,,onethree,,-4,4.246475,,,,,,,,,,,,,,,,,,,,,,,,,,,,,,,,,,"[-0.6942,-0.7648,-0.12959999999999994]","[0.37240000000000006,-0.050999999999999934,-0.5216]",-38.23046875,79.16796875,1,0,0,response7disk,-13.046875,0.75,1,0,0,rectangle,-13.046875,0.75,1,0,0,-1,2,0.004485,0,-13.046875,0.75,1,0,0,0,4,4,42,1,42,first,,,,,,,,,,,,,,,,,,,,,,,,,,,,,,,,,,,,,,,,,,,,,,,,,,,,,,,,,,,,,,,,,,,
,,,,,,5e10ad92a6eb6078856a5067,62bbfb66b97729c39df35892,2022-06-29_08h13.33.070,Colour_Asymmetry_Pilot,2022.1.3,MacIntel,9.979442349,62bbe60bf3d75ef465d3e404,,,,,,,,,,,,,,,,,,,,onetwo,,-3,3.236665,,,,,,,,,,,,,,,,,,,,,,,,,,,,,,,,,,"[-0.5922000000000001,-0.7492000000000001,-0.5296000000000001]","[-0.0040000000000000036,0.02739999999999987,-0.08239999999999992]",-82.24609375,41.50390625,1,0,0,response7disk,-6.046875,-2.6875,1,0,0,rectangle,-6.046875,-2.6875,1,0,0,-1,3,0.00343,0,-6.046875,-2.6875,1,0,0,0,5,5,96,1,15,second,,,,,,,,,,,,,,,,,,,,,,,,,,,,,,,,,,,,,,,,,,,,,,,,,,,,,,,,,,,,,,,,,,,
,,,,,,5e10ad92a6eb6078856a5067,62bbfb66b97729c39df35892,2022-06-29_08h13.33.070,Colour_Asymmetry_Pilot,2022.1.3,MacIntel,9.979442349,62bbe60bf3d75ef465d3e404,,,,,,,,,,,,,,,,,,,,threeone,,-4,1.34003,,,,,,,,,,,,,,,,,,,,,,,,,,,,,,,,,,"[0.22340000000000004,-0.9296,-0.7884]","[0.2862,0.7802,0.3568]",-46.32421875,68.55859375,1,0,0,response7disk,4.82421875,-6.81640625,1,0,0,rectangle,4.82421875,-6.81640625,1,0,0,-1,2,0.003135,0,4.82421875,-6.81640625,1,0,0,0,6,6,88,1,7,second,,,,,,,,,,,,,,,,,,,,,,,,,,,,,,,,,,,,,,,,,,,,,,,,,,,,,,,,,,,,,,,,,,,
,,,,,,5e10ad92a6eb6078856a5067,62bbfb66b97729c39df35892,2022-06-29_08h13.33.070,Colour_Asymmetry_Pilot,2022.1.3,MacIntel,9.979442349,62bbe60bf3d75ef465d3e404,,,,,,,,,,,,,,,,,,,,threefour,,-4,1.30996,,,,,,,,,,,,,,,,,,,,,,,,,,,,,,,,,,"[0.04299999999999993,0.16060000000000008,-0.6628000000000001]","[0.23120000000000007,-0.7726,-0.34120000000000006]",-51.5,80.78125,1,0,0,response7disk,-2.08984375,-1.20703125,1,0,0,rectangle,-2.08984375,-1.20703125,1,0,0,-1,1,0.002795,0,-2.08984375,-1.20703125,1,0,0,0,7,7,2,1,2,first,,,,,,,,,,,,,,,,,,,,,,,,,,,,,,,,,,,,,,,,,,,,,,,,,,,,,,,,,,,,,,,,,,,
,,,,,,5e10ad92a6eb6078856a5067,62bbfb66b97729c39df35892,2022-06-29_08h13.33.070,Colour_Asymmetry_Pilot,2022.1.3,MacIntel,9.979442349,62bbe60bf3d75ef465d3e404,,,,,,,,,,,,,,,,,,,,threefour,,-3,2.17749,,,,,,,,,,,,,,,,,,,,,,,,,,,,,,,,,,"[0.23920000000000008,0.2704,0.16060000000000008]","[0.7018,0.7802,-0.16079999999999994]",-85.421875,33.5,1,0,0,response7disk,5.609375,2.92578125,1,0,0,rectangle,5.609375,2.92578125,1,0,0,-1,3,0.00284,0,5.609375,2.92578125,1,0,0,0,8,8,14,1,14,first,,,,,,,,,,,,,,,,,,,,,,,,,,,,,,,,,,,,,,,,,,,,,,,,,,,,,,,,,,,,,,,,,,,
,,,,,,5e10ad92a6eb6078856a5067,62bbfb66b97729c39df35892,2022-06-29_08h13.33.070,Colour_Asymmetry_Pilot,2022.1.3,MacIntel,9.979442349,62bbe60bf3d75ef465d3e404,,,,,,,,,,,,,,,,,,,,onethree,,-2,1.523975,,,,,,,,,,,,,,,,,,,,,,,,,,,,,,,,,,"[-0.8982,-0.37259999999999993,0.2784]","[-0.6235999999999999,-0.6786,-0.08239999999999992]",-64.19921875,-30.0859375,1,0,0,response5disk,-11.7890625,-3.03515625,1,0,0,rectangle,-11.7890625,-3.03515625,1,0,0,-1,3,0.00074,0,-11.7890625,-3.03515625,1,0,0,0,9,9,157,1,76,second,,,,,,,,,,,,,,,,,,,,,,,,,,,,,,,,,,,,,,,,,,,,,,,,,,,,,,,,,,,,,,,,,,,
,,,,,,5e10ad92a6eb6078856a5067,62bbfb66b97729c39df35892,2022-06-29_08h13.33.070,Colour_Asymmetry_Pilot,2022.1.3,MacIntel,9.979442349,62bbe60bf3d75ef465d3e404,,,,,,,,,,,,,,,,,,,,onethree,,-4,1.304065,,,,,,,,,,,,,,,,,,,,,,,,,,,,,,,,,,"[0.2862,0.7802,0.3568]","[0.22340000000000004,-0.9296,-0.7884]",-60.8046875,86.73828125,1,0,0,response7disk,-4.828125,-2.640625,1,0,0,rectangle,-4.828125,-2.640625,1,0,0,-1,2,0.00425,0,-4.828125,-2.640625,1,0,0,0,10,10,7,1,7,first,,,,,,,,,,,,,,,,,,,,,,,,,,,,,,,,,,,,,,,,,,,,,,,,,,,,,,,,,,,,,,,,,,,
,,,,,,5e10ad92a6eb6078856a5067,62bbfb66b97729c39df35892,2022-06-29_08h13.33.070,Colour_Asymmetry_Pilot,2022.1.3,MacIntel,9.979442349,62bbe60bf3d75ef465d3e404,,,,,,,,,,,,,,,,,,,,threeone,,-4,0.95647,,,,,,,,,,,,,,,,,,,,,,,,,,,,,,,,,,"[-0.5922000000000001,-0.7492000000000001,-0.5296000000000001]","[0.3881999999999999,-0.23939999999999995,-0.05040000000000011]",-53.1953125,74.2109375,1,0,0,response7disk,-9.00390625,-1.20703125,1,0,0,rectangle,-9.00390625,-1.20703125,1,0,0,-1,1,0.004475,0,-9.00390625,-1.20703125,1,0,0,0,11,11,31,1,31,first,,,,,,,,,,,,,,,,,,,,,,,,,,,,,,,,,,,,,,,,,,,,,,,,,,,,,,,,,,,,,,,,,,,
,,,,,,5e10ad92a6eb6078856a5067,62bbfb66b97729c39df35892,2022-06-29_08h13.33.070,Colour_Asymmetry_Pilot,2022.1.3,MacIntel,9.979442349,62bbe60bf3d75ef465d3e404,,,,,,,,,,,,,,,,,,,,twofour,,-4,0.869905,,,,,,,,,,,,,,,,,,,,,,,,,,,,,,,,,,"[-0.2942,-0.24719999999999998,-0.357]","[-0.4746,-0.0354000000000001,0.5449999999999999]",-42.1484375,77.38671875,1,0,0,response7disk,-7.00390625,-0.859375,1,0,0,rectangle,-7.00390625,-0.859375,1,0,0,-1,3,0.003385,0,-7.00390625,-0.859375,1,0,0,0,12,12,49,1,49,first,,,,,,,,,,,,,,,,,,,,,,,,,,,,,,,,,,,,,,,,,,,,,,,,,,,,,,,,,,,,,,,,,,,
,,,,,,5e10ad92a6eb6078856a5067,62bbfb66b97729c39df35892,2022-06-29_08h13.33.070,Colour_Asymmetry_Pilot,2022.1.3,MacIntel,9.979442349,62bbe60bf3d75ef465d3e404,,,,,,,,,,,,,,,,,,,,fourthree,,-3,1.085275,,,,,,,,,,,,,,,,,,,,,,,,,,,,,,,,,,"[-0.9138,-0.5296000000000001,-0.5529999999999999]","[-0.06680000000000008,-0.45100000000000007,-0.906]",-85.90234375,58.98828125,1,0,0,response7disk,-9.91796875,5.1875,1,0,0,rectangle,-9.91796875,5.1875,1,0,0,-1,3,0.000695,0,-9.91796875,5.1875,1,0,0,0,13,13,29,1,29,first,,,,,,,,,,,,,,,,,,,,,,,,,,,,,,,,,,,,,,,,,,,,,,,,,,,,,,,,,,,,,,,,,,,
,,,,,,5e10ad92a6eb6078856a5067,62bbfb66b97729c39df35892,2022-06-29_08h13.33.070,Colour_Asymmetry_Pilot,2022.1.3,MacIntel,9.979442349,62bbe60bf3d75ef465d3e404,,,,,,,,,,,,,,,,,,,,twofour,,-3,1.25182,,,,,,,,,,,,,,,,,,,,,,,,,,,,,,,,,,"[0.9213999999999998,0.6391999999999998,-0.9922]","[0.7018,0.7176,0.6155999999999999]",-89.55859375,58.73046875,1,0,0,response7disk,-10.3125,5.14453125,1,0,0,rectangle,-10.3125,5.14453125,1,0,0,-1,3,0.00091,0,-10.3125,5.14453125,1,0,0,0,14,14,61,1,61,first,,,,,,,,,,,,,,,,,,,,,,,,,,,,,,,,,,,,,,,,,,,,,,,,,,,,,,,,,,,,,,,,,,,
,,,,,,5e10ad92a6eb6078856a5067,62bbfb66b97729c39df35892,2022-06-29_08h13.33.070,Colour_Asymmetry_Pilot,2022.1.3,MacIntel,9.979442349,62bbe60bf3d75ef465d3e404,,,,,,,,,,,,,,,,,,,,fourthree,,-4,1.319495,,,,,,,,,,,,,,,,,,,,,,,,,,,,,,,,,,"[0.3881999999999999,-0.23939999999999995,-0.05040000000000011]","[-0.5922000000000001,-0.7492000000000001,-0.5296000000000001]",-57.19921875,82.65234375,1,0,0,response7disk,-1.5703125,3.05859375,1,0,0,rectangle,-1.5703125,3.05859375,1,0,0,-1,1,0.00237,0,-1.5703125,3.05859375,1,0,0,0,15,15,112,1,31,second,,,,,,,,,,,,,,,,,,,,,,,,,,,,,,,,,,,,,,,,,,,,,,,,,,,,,,,,,,,,,,,,,,,
