trials.thisRepN,trials.thisTrialN,trials.thisN,trials.thisIndex,trials.ran,Colourcodes,participant,session,date,expName,psychopyVersion,OS,frameRate,study_id,trials_4.thisRepN,trials_4.thisTrialN,trials_4.thisN,trials_4.thisIndex,trials_4.ran,StimulusPos,key_resp.keys,key_resp.rt,key_resp_2.keys,key_resp_2.rt,key_resp_15.keys,key_resp_15.rt,key_resp_17.keys,key_resp_17.rt,key_resp_9.keys,key_resp_9.rt,key_resp_10.keys,key_resp_10.rt,Circle1_col,Ecc,Circle2_col,similarity,response_time,mouse_5.x,mouse_5.y,mouse_5.leftButton,mouse_5.midButton,mouse_5.rightButton,mouse_5.clicked_name,mouse_10.x,mouse_10.y,mouse_10.leftButton,mouse_10.midButton,mouse_10.rightButton,mouse_10.clicked_name,mouse_7.x,mouse_7.y,mouse_7.leftButton,mouse_7.midButton,mouse_7.rightButton,mouse_7.clicked_name,catchprac,catchnumberprac,mouse_6.x,mouse_6.y,mouse_6.leftButton,mouse_6.midButton,mouse_6.rightButton,mouse_6.clicked_name,duringprac.thisRepN,duringprac.thisTrialN,duringprac.thisN,duringprac.thisIndex,duringprac.ran,key_resp_22.keys,key_resp_22.rt,Circle1_colour,Circle2_colour,mouse.x,mouse.y,mouse.leftButton,mouse.midButton,mouse.rightButton,mouse.clicked_name,mouse_2.x,mouse_2.y,mouse_2.leftButton,mouse_2.midButton,mouse_2.rightButton,mouse_2.clicked_name,mouse_3.x,mouse_3.y,mouse_3.leftButton,mouse_3.midButton,mouse_3.rightButton,catchresponse,catchnumber,response_time_catch,Catch,mouse_11.x,mouse_11.y,mouse_11.leftButton,mouse_11.midButton,mouse_11.rightButton,trials_2.thisRepN,trials_2.thisTrialN,trials_2.thisN,trials_2.thisIndex,trials_2.ran,Colourpair,Temporder,mouse_3.clicked_name,mouse_11.clicked_name,trials_3.thisRepN,trials_3.thisTrialN,trials_3.thisN,trials_3.thisIndex,trials_3.ran,key_resp_instr_Ishi.keys,key_resp_instr_Ishi.rt,Ishi_trial_keyresp.keys,Ishi_trial_keyresp.rt,Ishi_textbox.text,Ishi_loop.thisRepN,Ishi_loop.thisTrialN,Ishi_loop.thisN,Ishi_loop.thisIndex,Ishi_loop.ran,imageaddress,textbox.text,mouse_4.x,mouse_4.y,mouse_4.leftButton,mouse_4.midButton,mouse_4.rightButton,mouse_4.clicked_name,textbox_2.text,mouse_8.x,mouse_8.y,mouse_8.leftButton,mouse_8.midButton,mouse_8.rightButton,mouse_8.clicked_name,textbox_3.text,mouse_9.x,mouse_9.y,mouse_9.leftButton,mouse_9.midButton,mouse_9.rightButton,mouse_9.clicked_name,textbox_4.text,mouse_12.x,mouse_12.y,mouse_12.leftButton,mouse_12.midButton,mouse_12.rightButton,mouse_12.clicked_name,textbox_5.text,mouse_13.x,mouse_13.y,mouse_13.leftButton,mouse_13.midButton,mouse_13.rightButton,mouse_13.clicked_name,textbox_6.text,mouse_14.x,mouse_14.y,mouse_14.leftButton,mouse_14.midButton,mouse_14.rightButton,mouse_14.clicked_name,textbox_7.text,mouse_15.x,mouse_15.y,mouse_15.leftButton,mouse_15.midButton,mouse_15.rightButton,mouse_15.clicked_name
0,0,0,15,1,,6131de3102b54b21bccdc7f7,62bbfa3b5d8e00a17248ed24,2022-06-29_09h09.05.789,Colour_Asymmetry_Pilot,2022.1.3,Win32,59.95203837,62bbe60bf3d75ef465d3e404,,,,,,,,,,,,,,,,,,,,,,,,,,,,,,,,,,,,,,,,,,,,,,,,,,,,,,,,,,,,,,,,,,,,,,,,,,,,,,,,,,,,,,,,,,,,,,,,,,,,,,,,,,,,,,,,,,,,,,,,,,,,,,,,,,,,,,,,,,,,,,,,,,,,,,,,,,,,,,
0,1,1,17,1,,6131de3102b54b21bccdc7f7,62bbfa3b5d8e00a17248ed24,2022-06-29_09h09.05.789,Colour_Asymmetry_Pilot,2022.1.3,Win32,59.95203837,62bbe60bf3d75ef465d3e404,,,,,,,,,,,,,,,,,,,,,,,,,,,,,,,,,,,,,,,,,,,,,,,,,,,,,,,,,,,,,,,,,,,,,,,,,,,,,,,,,,,,,,,,,,,,,,,,,,,,,,,,,,,,,,,,,,,,,,,,,,,,,,,,,,,,,,,,,,,,,,,,,,,,,,,,,,,,,,
0,2,2,25,1,,6131de3102b54b21bccdc7f7,62bbfa3b5d8e00a17248ed24,2022-06-29_09h09.05.789,Colour_Asymmetry_Pilot,2022.1.3,Win32,59.95203837,62bbe60bf3d75ef465d3e404,,,,,,,,,,,,,,,,,,,,,,,,,,,,,,,,,,,,,,,,,,,,,,,,,,,,,,,,,,,,,,,,,,,,,,,,,,,,,,,,,,,,,,,,,,,,,,,,,,,,,,,,,,,,,,,,,,,,,,,,,,,,,,,,,,,,,,,,,,,,,,,,,,,,,,,,,,,,,,
0,3,3,39,1,,6131de3102b54b21bccdc7f7,62bbfa3b5d8e00a17248ed24,2022-06-29_09h09.05.789,Colour_Asymmetry_Pilot,2022.1.3,Win32,59.95203837,62bbe60bf3d75ef465d3e404,,,,,,,,,,,,,,,,,,,,,,,,,,,,,,,,,,,,,,,,,,,,,,,,,,,,,,,,,,,,,,,,,,,,,,,,,,,,,,,,,,,,,,,,,,,,,,,,,,,,,,,,,,,,,,,,,,,,,,,,,,,,,,,,,,,,,,,,,,,,,,,,,,,,,,,,,,,,,,
0,4,4,86,1,,6131de3102b54b21bccdc7f7,62bbfa3b5d8e00a17248ed24,2022-06-29_09h09.05.789,Colour_Asymmetry_Pilot,2022.1.3,Win32,59.95203837,62bbe60bf3d75ef465d3e404,,,,,,,,,,,,,,,,,,,,,,,,,,,,,,,,,,,,,,,,,,,,,,,,,,,,,,,,,,,,,,,,,,,,,,,,,,,,,,,,,,,,,,,,,,,,,,,,,,,,,,,,,,,,,,,,,,,,,,,,,,,,,,,,,,,,,,,,,,,,,,,,,,,,,,,,,,,,,,
0,5,5,26,1,,6131de3102b54b21bccdc7f7,62bbfa3b5d8e00a17248ed24,2022-06-29_09h09.05.789,Colour_Asymmetry_Pilot,2022.1.3,Win32,59.95203837,62bbe60bf3d75ef465d3e404,,,,,,,,,,,,,,,,,,,,,,,,,,,,,,,,,,,,,,,,,,,,,,,,,,,,,,,,,,,,,,,,,,,,,,,,,,,,,,,,,,,,,,,,,,,,,,,,,,,,,,,,,,,,,,,,,,,,,,,,,,,,,,,,,,,,,,,,,,,,,,,,,,,,,,,,,,,,,,
0,6,6,78,1,,6131de3102b54b21bccdc7f7,62bbfa3b5d8e00a17248ed24,2022-06-29_09h09.05.789,Colour_Asymmetry_Pilot,2022.1.3,Win32,59.95203837,62bbe60bf3d75ef465d3e404,,,,,,,,,,,,,,,,,,,,,,,,,,,,,,,,,,,,,,,,,,,,,,,,,,,,,,,,,,,,,,,,,,,,,,,,,,,,,,,,,,,,,,,,,,,,,,,,,,,,,,,,,,,,,,,,,,,,,,,,,,,,,,,,,,,,,,,,,,,,,,,,,,,,,,,,,,,,,,
0,7,7,77,1,,6131de3102b54b21bccdc7f7,62bbfa3b5d8e00a17248ed24,2022-06-29_09h09.05.789,Colour_Asymmetry_Pilot,2022.1.3,Win32,59.95203837,62bbe60bf3d75ef465d3e404,,,,,,,,,,,,,,,,,,,,,,,,,,,,,,,,,,,,,,,,,,,,,,,,,,,,,,,,,,,,,,,,,,,,,,,,,,,,,,,,,,,,,,,,,,,,,,,,,,,,,,,,,,,,,,,,,,,,,,,,,,,,,,,,,,,,,,,,,,,,,,,,,,,,,,,,,,,,,,
0,8,8,41,1,,6131de3102b54b21bccdc7f7,62bbfa3b5d8e00a17248ed24,2022-06-29_09h09.05.789,Colour_Asymmetry_Pilot,2022.1.3,Win32,59.95203837,62bbe60bf3d75ef465d3e404,,,,,,,,,,,,,,,,,,,,,,,,,,,,,,,,,,,,,,,,,,,,,,,,,,,,,,,,,,,,,,,,,,,,,,,,,,,,,,,,,,,,,,,,,,,,,,,,,,,,,,,,,,,,,,,,,,,,,,,,,,,,,,,,,,,,,,,,,,,,,,,,,,,,,,,,,,,,,,
0,9,9,79,1,,6131de3102b54b21bccdc7f7,62bbfa3b5d8e00a17248ed24,2022-06-29_09h09.05.789,Colour_Asymmetry_Pilot,2022.1.3,Win32,59.95203837,62bbe60bf3d75ef465d3e404,,,,,,,,,,,,,,,,,,,,,,,,,,,,,,,,,,,,,,,,,,,,,,,,,,,,,,,,,,,,,,,,,,,,,,,,,,,,,,,,,,,,,,,,,,,,,,,,,,,,,,,,,,,,,,,,,,,,,,,,,,,,,,,,,,,,,,,,,,,,,,,,,,,,,,,,,,,,,,
0,10,10,59,1,,6131de3102b54b21bccdc7f7,62bbfa3b5d8e00a17248ed24,2022-06-29_09h09.05.789,Colour_Asymmetry_Pilot,2022.1.3,Win32,59.95203837,62bbe60bf3d75ef465d3e404,,,,,,,,,,,,,,,,,,,,,,,,,,,,,,,,,,,,,,,,,,,,,,,,,,,,,,,,,,,,,,,,,,,,,,,,,,,,,,,,,,,,,,,,,,,,,,,,,,,,,,,,,,,,,,,,,,,,,,,,,,,,,,,,,,,,,,,,,,,,,,,,,,,,,,,,,,,,,,
0,11,11,28,1,,6131de3102b54b21bccdc7f7,62bbfa3b5d8e00a17248ed24,2022-06-29_09h09.05.789,Colour_Asymmetry_Pilot,2022.1.3,Win32,59.95203837,62bbe60bf3d75ef465d3e404,,,,,,,,,,,,,,,,,,,,,,,,,,,,,,,,,,,,,,,,,,,,,,,,,,,,,,,,,,,,,,,,,,,,,,,,,,,,,,,,,,,,,,,,,,,,,,,,,,,,,,,,,,,,,,,,,,,,,,,,,,,,,,,,,,,,,,,,,,,,,,,,,,,,,,,,,,,,,,
0,12,12,71,1,,6131de3102b54b21bccdc7f7,62bbfa3b5d8e00a17248ed24,2022-06-29_09h09.05.789,Colour_Asymmetry_Pilot,2022.1.3,Win32,59.95203837,62bbe60bf3d75ef465d3e404,,,,,,,,,,,,,,,,,,,,,,,,,,,,,,,,,,,,,,,,,,,,,,,,,,,,,,,,,,,,,,,,,,,,,,,,,,,,,,,,,,,,,,,,,,,,,,,,,,,,,,,,,,,,,,,,,,,,,,,,,,,,,,,,,,,,,,,,,,,,,,,,,,,,,,,,,,,,,,
0,13,13,70,1,,6131de3102b54b21bccdc7f7,62bbfa3b5d8e00a17248ed24,2022-06-29_09h09.05.789,Colour_Asymmetry_Pilot,2022.1.3,Win32,59.95203837,62bbe60bf3d75ef465d3e404,,,,,,,,,,,,,,,,,,,,,,,,,,,,,,,,,,,,,,,,,,,,,,,,,,,,,,,,,,,,,,,,,,,,,,,,,,,,,,,,,,,,,,,,,,,,,,,,,,,,,,,,,,,,,,,,,,,,,,,,,,,,,,,,,,,,,,,,,,,,,,,,,,,,,,,,,,,,,,
0,14,14,30,1,,6131de3102b54b21bccdc7f7,62bbfa3b5d8e00a17248ed24,2022-06-29_09h09.05.789,Colour_Asymmetry_Pilot,2022.1.3,Win32,59.95203837,62bbe60bf3d75ef465d3e404,,,,,,,,,,,,,,,,,,,,,,,,,,,,,,,,,,,,,,,,,,,,,,,,,,,,,,,,,,,,,,,,,,,,,,,,,,,,,,,,,,,,,,,,,,,,,,,,,,,,,,,,,,,,,,,,,,,,,,,,,,,,,,,,,,,,,,,,,,,,,,,,,,,,,,,,,,,,,,
0,15,15,24,1,,6131de3102b54b21bccdc7f7,62bbfa3b5d8e00a17248ed24,2022-06-29_09h09.05.789,Colour_Asymmetry_Pilot,2022.1.3,Win32,59.95203837,62bbe60bf3d75ef465d3e404,,,,,,,,,,,,,,,,,,,,,,,,,,,,,,,,,,,,,,,,,,,,,,,,,,,,,,,,,,,,,,,,,,,,,,,,,,,,,,,,,,,,,,,,,,,,,,,,,,,,,,,,,,,,,,,,,,,,,,,,,,,,,,,,,,,,,,,,,,,,,,,,,,,,,,,,,,,,,,
0,16,16,65,1,,6131de3102b54b21bccdc7f7,62bbfa3b5d8e00a17248ed24,2022-06-29_09h09.05.789,Colour_Asymmetry_Pilot,2022.1.3,Win32,59.95203837,62bbe60bf3d75ef465d3e404,,,,,,,,,,,,,,,,,,,,,,,,,,,,,,,,,,,,,,,,,,,,,,,,,,,,,,,,,,,,,,,,,,,,,,,,,,,,,,,,,,,,,,,,,,,,,,,,,,,,,,,,,,,,,,,,,,,,,,,,,,,,,,,,,,,,,,,,,,,,,,,,,,,,,,,,,,,,,,
0,17,17,31,1,,6131de3102b54b21bccdc7f7,62bbfa3b5d8e00a17248ed24,2022-06-29_09h09.05.789,Colour_Asymmetry_Pilot,2022.1.3,Win32,59.95203837,62bbe60bf3d75ef465d3e404,,,,,,,,,,,,,,,,,,,,,,,,,,,,,,,,,,,,,,,,,,,,,,,,,,,,,,,,,,,,,,,,,,,,,,,,,,,,,,,,,,,,,,,,,,,,,,,,,,,,,,,,,,,,,,,,,,,,,,,,,,,,,,,,,,,,,,,,,,,,,,,,,,,,,,,,,,,,,,
0,18,18,8,1,,6131de3102b54b21bccdc7f7,62bbfa3b5d8e00a17248ed24,2022-06-29_09h09.05.789,Colour_Asymmetry_Pilot,2022.1.3,Win32,59.95203837,62bbe60bf3d75ef465d3e404,,,,,,,,,,,,,,,,,,,,,,,,,,,,,,,,,,,,,,,,,,,,,,,,,,,,,,,,,,,,,,,,,,,,,,,,,,,,,,,,,,,,,,,,,,,,,,,,,,,,,,,,,,,,,,,,,,,,,,,,,,,,,,,,,,,,,,,,,,,,,,,,,,,,,,,,,,,,,,
0,19,19,81,1,,6131de3102b54b21bccdc7f7,62bbfa3b5d8e00a17248ed24,2022-06-29_09h09.05.789,Colour_Asymmetry_Pilot,2022.1.3,Win32,59.95203837,62bbe60bf3d75ef465d3e404,,,,,,,,,,,,,,,,,,,,,,,,,,,,,,,,,,,,,,,,,,,,,,,,,,,,,,,,,,,,,,,,,,,,,,,,,,,,,,,,,,,,,,,,,,,,,,,,,,,,,,,,,,,,,,,,,,,,,,,,,,,,,,,,,,,,,,,,,,,,,,,,,,,,,,,,,,,,,,
0,20,20,90,1,,6131de3102b54b21bccdc7f7,62bbfa3b5d8e00a17248ed24,2022-06-29_09h09.05.789,Colour_Asymmetry_Pilot,2022.1.3,Win32,59.95203837,62bbe60bf3d75ef465d3e404,,,,,,,,,,,,,,,,,,,,,,,,,,,,,,,,,,,,,,,,,,,,,,,,,,,,,,,,,,,,,,,,,,,,,,,,,,,,,,,,,,,,,,,,,,,,,,,,,,,,,,,,,,,,,,,,,,,,,,,,,,,,,,,,,,,,,,,,,,,,,,,,,,,,,,,,,,,,,,
0,21,21,51,1,,6131de3102b54b21bccdc7f7,62bbfa3b5d8e00a17248ed24,2022-06-29_09h09.05.789,Colour_Asymmetry_Pilot,2022.1.3,Win32,59.95203837,62bbe60bf3d75ef465d3e404,,,,,,,,,,,,,,,,,,,,,,,,,,,,,,,,,,,,,,,,,,,,,,,,,,,,,,,,,,,,,,,,,,,,,,,,,,,,,,,,,,,,,,,,,,,,,,,,,,,,,,,,,,,,,,,,,,,,,,,,,,,,,,,,,,,,,,,,,,,,,,,,,,,,,,,,,,,,,,
0,22,22,44,1,,6131de3102b54b21bccdc7f7,62bbfa3b5d8e00a17248ed24,2022-06-29_09h09.05.789,Colour_Asymmetry_Pilot,2022.1.3,Win32,59.95203837,62bbe60bf3d75ef465d3e404,,,,,,,,,,,,,,,,,,,,,,,,,,,,,,,,,,,,,,,,,,,,,,,,,,,,,,,,,,,,,,,,,,,,,,,,,,,,,,,,,,,,,,,,,,,,,,,,,,,,,,,,,,,,,,,,,,,,,,,,,,,,,,,,,,,,,,,,,,,,,,,,,,,,,,,,,,,,,,
0,23,23,32,1,,6131de3102b54b21bccdc7f7,62bbfa3b5d8e00a17248ed24,2022-06-29_09h09.05.789,Colour_Asymmetry_Pilot,2022.1.3,Win32,59.95203837,62bbe60bf3d75ef465d3e404,,,,,,,,,,,,,,,,,,,,,,,,,,,,,,,,,,,,,,,,,,,,,,,,,,,,,,,,,,,,,,,,,,,,,,,,,,,,,,,,,,,,,,,,,,,,,,,,,,,,,,,,,,,,,,,,,,,,,,,,,,,,,,,,,,,,,,,,,,,,,,,,,,,,,,,,,,,,,,
0,24,24,67,1,,6131de3102b54b21bccdc7f7,62bbfa3b5d8e00a17248ed24,2022-06-29_09h09.05.789,Colour_Asymmetry_Pilot,2022.1.3,Win32,59.95203837,62bbe60bf3d75ef465d3e404,,,,,,,,,,,,,,,,,,,,,,,,,,,,,,,,,,,,,,,,,,,,,,,,,,,,,,,,,,,,,,,,,,,,,,,,,,,,,,,,,,,,,,,,,,,,,,,,,,,,,,,,,,,,,,,,,,,,,,,,,,,,,,,,,,,,,,,,,,,,,,,,,,,,,,,,,,,,,,
0,25,25,74,1,,6131de3102b54b21bccdc7f7,62bbfa3b5d8e00a17248ed24,2022-06-29_09h09.05.789,Colour_Asymmetry_Pilot,2022.1.3,Win32,59.95203837,62bbe60bf3d75ef465d3e404,,,,,,,,,,,,,,,,,,,,,,,,,,,,,,,,,,,,,,,,,,,,,,,,,,,,,,,,,,,,,,,,,,,,,,,,,,,,,,,,,,,,,,,,,,,,,,,,,,,,,,,,,,,,,,,,,,,,,,,,,,,,,,,,,,,,,,,,,,,,,,,,,,,,,,,,,,,,,,
0,26,26,56,1,,6131de3102b54b21bccdc7f7,62bbfa3b5d8e00a17248ed24,2022-06-29_09h09.05.789,Colour_Asymmetry_Pilot,2022.1.3,Win32,59.95203837,62bbe60bf3d75ef465d3e404,,,,,,,,,,,,,,,,,,,,,,,,,,,,,,,,,,,,,,,,,,,,,,,,,,,,,,,,,,,,,,,,,,,,,,,,,,,,,,,,,,,,,,,,,,,,,,,,,,,,,,,,,,,,,,,,,,,,,,,,,,,,,,,,,,,,,,,,,,,,,,,,,,,,,,,,,,,,,,
0,27,27,82,1,,6131de3102b54b21bccdc7f7,62bbfa3b5d8e00a17248ed24,2022-06-29_09h09.05.789,Colour_Asymmetry_Pilot,2022.1.3,Win32,59.95203837,62bbe60bf3d75ef465d3e404,,,,,,,,,,,,,,,,,,,,,,,,,,,,,,,,,,,,,,,,,,,,,,,,,,,,,,,,,,,,,,,,,,,,,,,,,,,,,,,,,,,,,,,,,,,,,,,,,,,,,,,,,,,,,,,,,,,,,,,,,,,,,,,,,,,,,,,,,,,,,,,,,,,,,,,,,,,,,,
0,28,28,33,1,,6131de3102b54b21bccdc7f7,62bbfa3b5d8e00a17248ed24,2022-06-29_09h09.05.789,Colour_Asymmetry_Pilot,2022.1.3,Win32,59.95203837,62bbe60bf3d75ef465d3e404,,,,,,,,,,,,,,,,,,,,,,,,,,,,,,,,,,,,,,,,,,,,,,,,,,,,,,,,,,,,,,,,,,,,,,,,,,,,,,,,,,,,,,,,,,,,,,,,,,,,,,,,,,,,,,,,,,,,,,,,,,,,,,,,,,,,,,,,,,,,,,,,,,,,,,,,,,,,,,
0,29,29,53,1,,6131de3102b54b21bccdc7f7,62bbfa3b5d8e00a17248ed24,2022-06-29_09h09.05.789,Colour_Asymmetry_Pilot,2022.1.3,Win32,59.95203837,62bbe60bf3d75ef465d3e404,,,,,,,,,,,,,,,,,,,,,,,,,,,,,,,,,,,,,,,,,,,,,,,,,,,,,,,,,,,,,,,,,,,,,,,,,,,,,,,,,,,,,,,,,,,,,,,,,,,,,,,,,,,,,,,,,,,,,,,,,,,,,,,,,,,,,,,,,,,,,,,,,,,,,,,,,,,,,,
0,30,30,9,1,,6131de3102b54b21bccdc7f7,62bbfa3b5d8e00a17248ed24,2022-06-29_09h09.05.789,Colour_Asymmetry_Pilot,2022.1.3,Win32,59.95203837,62bbe60bf3d75ef465d3e404,,,,,,,,,,,,,,,,,,,,,,,,,,,,,,,,,,,,,,,,,,,,,,,,,,,,,,,,,,,,,,,,,,,,,,,,,,,,,,,,,,,,,,,,,,,,,,,,,,,,,,,,,,,,,,,,,,,,,,,,,,,,,,,,,,,,,,,,,,,,,,,,,,,,,,,,,,,,,,
0,31,31,58,1,,6131de3102b54b21bccdc7f7,62bbfa3b5d8e00a17248ed24,2022-06-29_09h09.05.789,Colour_Asymmetry_Pilot,2022.1.3,Win32,59.95203837,62bbe60bf3d75ef465d3e404,,,,,,,,,,,,,,,,,,,,,,,,,,,,,,,,,,,,,,,,,,,,,,,,,,,,,,,,,,,,,,,,,,,,,,,,,,,,,,,,,,,,,,,,,,,,,,,,,,,,,,,,,,,,,,,,,,,,,,,,,,,,,,,,,,,,,,,,,,,,,,,,,,,,,,,,,,,,,,
0,32,32,42,1,,6131de3102b54b21bccdc7f7,62bbfa3b5d8e00a17248ed24,2022-06-29_09h09.05.789,Colour_Asymmetry_Pilot,2022.1.3,Win32,59.95203837,62bbe60bf3d75ef465d3e404,,,,,,,,,,,,,,,,,,,,,,,,,,,,,,,,,,,,,,,,,,,,,,,,,,,,,,,,,,,,,,,,,,,,,,,,,,,,,,,,,,,,,,,,,,,,,,,,,,,,,,,,,,,,,,,,,,,,,,,,,,,,,,,,,,,,,,,,,,,,,,,,,,,,,,,,,,,,,,
0,33,33,54,1,,6131de3102b54b21bccdc7f7,62bbfa3b5d8e00a17248ed24,2022-06-29_09h09.05.789,Colour_Asymmetry_Pilot,2022.1.3,Win32,59.95203837,62bbe60bf3d75ef465d3e404,,,,,,,,,,,,,,,,,,,,,,,,,,,,,,,,,,,,,,,,,,,,,,,,,,,,,,,,,,,,,,,,,,,,,,,,,,,,,,,,,,,,,,,,,,,,,,,,,,,,,,,,,,,,,,,,,,,,,,,,,,,,,,,,,,,,,,,,,,,,,,,,,,,,,,,,,,,,,,
0,34,34,87,1,,6131de3102b54b21bccdc7f7,62bbfa3b5d8e00a17248ed24,2022-06-29_09h09.05.789,Colour_Asymmetry_Pilot,2022.1.3,Win32,59.95203837,62bbe60bf3d75ef465d3e404,,,,,,,,,,,,,,,,,,,,,,,,,,,,,,,,,,,,,,,,,,,,,,,,,,,,,,,,,,,,,,,,,,,,,,,,,,,,,,,,,,,,,,,,,,,,,,,,,,,,,,,,,,,,,,,,,,,,,,,,,,,,,,,,,,,,,,,,,,,,,,,,,,,,,,,,,,,,,,
0,35,35,14,1,,6131de3102b54b21bccdc7f7,62bbfa3b5d8e00a17248ed24,2022-06-29_09h09.05.789,Colour_Asymmetry_Pilot,2022.1.3,Win32,59.95203837,62bbe60bf3d75ef465d3e404,,,,,,,,,,,,,,,,,,,,,,,,,,,,,,,,,,,,,,,,,,,,,,,,,,,,,,,,,,,,,,,,,,,,,,,,,,,,,,,,,,,,,,,,,,,,,,,,,,,,,,,,,,,,,,,,,,,,,,,,,,,,,,,,,,,,,,,,,,,,,,,,,,,,,,,,,,,,,,
0,36,36,50,1,,6131de3102b54b21bccdc7f7,62bbfa3b5d8e00a17248ed24,2022-06-29_09h09.05.789,Colour_Asymmetry_Pilot,2022.1.3,Win32,59.95203837,62bbe60bf3d75ef465d3e404,,,,,,,,,,,,,,,,,,,,,,,,,,,,,,,,,,,,,,,,,,,,,,,,,,,,,,,,,,,,,,,,,,,,,,,,,,,,,,,,,,,,,,,,,,,,,,,,,,,,,,,,,,,,,,,,,,,,,,,,,,,,,,,,,,,,,,,,,,,,,,,,,,,,,,,,,,,,,,
0,37,37,5,1,,6131de3102b54b21bccdc7f7,62bbfa3b5d8e00a17248ed24,2022-06-29_09h09.05.789,Colour_Asymmetry_Pilot,2022.1.3,Win32,59.95203837,62bbe60bf3d75ef465d3e404,,,,,,,,,,,,,,,,,,,,,,,,,,,,,,,,,,,,,,,,,,,,,,,,,,,,,,,,,,,,,,,,,,,,,,,,,,,,,,,,,,,,,,,,,,,,,,,,,,,,,,,,,,,,,,,,,,,,,,,,,,,,,,,,,,,,,,,,,,,,,,,,,,,,,,,,,,,,,,
0,38,38,43,1,,6131de3102b54b21bccdc7f7,62bbfa3b5d8e00a17248ed24,2022-06-29_09h09.05.789,Colour_Asymmetry_Pilot,2022.1.3,Win32,59.95203837,62bbe60bf3d75ef465d3e404,,,,,,,,,,,,,,,,,,,,,,,,,,,,,,,,,,,,,,,,,,,,,,,,,,,,,,,,,,,,,,,,,,,,,,,,,,,,,,,,,,,,,,,,,,,,,,,,,,,,,,,,,,,,,,,,,,,,,,,,,,,,,,,,,,,,,,,,,,,,,,,,,,,,,,,,,,,,,,
0,39,39,91,1,,6131de3102b54b21bccdc7f7,62bbfa3b5d8e00a17248ed24,2022-06-29_09h09.05.789,Colour_Asymmetry_Pilot,2022.1.3,Win32,59.95203837,62bbe60bf3d75ef465d3e404,,,,,,,,,,,,,,,,,,,,,,,,,,,,,,,,,,,,,,,,,,,,,,,,,,,,,,,,,,,,,,,,,,,,,,,,,,,,,,,,,,,,,,,,,,,,,,,,,,,,,,,,,,,,,,,,,,,,,,,,,,,,,,,,,,,,,,,,,,,,,,,,,,,,,,,,,,,,,,
0,40,40,38,1,,6131de3102b54b21bccdc7f7,62bbfa3b5d8e00a17248ed24,2022-06-29_09h09.05.789,Colour_Asymmetry_Pilot,2022.1.3,Win32,59.95203837,62bbe60bf3d75ef465d3e404,,,,,,,,,,,,,,,,,,,,,,,,,,,,,,,,,,,,,,,,,,,,,,,,,,,,,,,,,,,,,,,,,,,,,,,,,,,,,,,,,,,,,,,,,,,,,,,,,,,,,,,,,,,,,,,,,,,,,,,,,,,,,,,,,,,,,,,,,,,,,,,,,,,,,,,,,,,,,,
0,41,41,83,1,,6131de3102b54b21bccdc7f7,62bbfa3b5d8e00a17248ed24,2022-06-29_09h09.05.789,Colour_Asymmetry_Pilot,2022.1.3,Win32,59.95203837,62bbe60bf3d75ef465d3e404,,,,,,,,,,,,,,,,,,,,,,,,,,,,,,,,,,,,,,,,,,,,,,,,,,,,,,,,,,,,,,,,,,,,,,,,,,,,,,,,,,,,,,,,,,,,,,,,,,,,,,,,,,,,,,,,,,,,,,,,,,,,,,,,,,,,,,,,,,,,,,,,,,,,,,,,,,,,,,
0,42,42,27,1,,6131de3102b54b21bccdc7f7,62bbfa3b5d8e00a17248ed24,2022-06-29_09h09.05.789,Colour_Asymmetry_Pilot,2022.1.3,Win32,59.95203837,62bbe60bf3d75ef465d3e404,,,,,,,,,,,,,,,,,,,,,,,,,,,,,,,,,,,,,,,,,,,,,,,,,,,,,,,,,,,,,,,,,,,,,,,,,,,,,,,,,,,,,,,,,,,,,,,,,,,,,,,,,,,,,,,,,,,,,,,,,,,,,,,,,,,,,,,,,,,,,,,,,,,,,,,,,,,,,,
0,43,43,69,1,,6131de3102b54b21bccdc7f7,62bbfa3b5d8e00a17248ed24,2022-06-29_09h09.05.789,Colour_Asymmetry_Pilot,2022.1.3,Win32,59.95203837,62bbe60bf3d75ef465d3e404,,,,,,,,,,,,,,,,,,,,,,,,,,,,,,,,,,,,,,,,,,,,,,,,,,,,,,,,,,,,,,,,,,,,,,,,,,,,,,,,,,,,,,,,,,,,,,,,,,,,,,,,,,,,,,,,,,,,,,,,,,,,,,,,,,,,,,,,,,,,,,,,,,,,,,,,,,,,,,
0,44,44,49,1,,6131de3102b54b21bccdc7f7,62bbfa3b5d8e00a17248ed24,2022-06-29_09h09.05.789,Colour_Asymmetry_Pilot,2022.1.3,Win32,59.95203837,62bbe60bf3d75ef465d3e404,,,,,,,,,,,,,,,,,,,,,,,,,,,,,,,,,,,,,,,,,,,,,,,,,,,,,,,,,,,,,,,,,,,,,,,,,,,,,,,,,,,,,,,,,,,,,,,,,,,,,,,,,,,,,,,,,,,,,,,,,,,,,,,,,,,,,,,,,,,,,,,,,,,,,,,,,,,,,,
0,45,45,76,1,,6131de3102b54b21bccdc7f7,62bbfa3b5d8e00a17248ed24,2022-06-29_09h09.05.789,Colour_Asymmetry_Pilot,2022.1.3,Win32,59.95203837,62bbe60bf3d75ef465d3e404,,,,,,,,,,,,,,,,,,,,,,,,,,,,,,,,,,,,,,,,,,,,,,,,,,,,,,,,,,,,,,,,,,,,,,,,,,,,,,,,,,,,,,,,,,,,,,,,,,,,,,,,,,,,,,,,,,,,,,,,,,,,,,,,,,,,,,,,,,,,,,,,,,,,,,,,,,,,,,
0,46,46,13,1,,6131de3102b54b21bccdc7f7,62bbfa3b5d8e00a17248ed24,2022-06-29_09h09.05.789,Colour_Asymmetry_Pilot,2022.1.3,Win32,59.95203837,62bbe60bf3d75ef465d3e404,,,,,,,,,,,,,,,,,,,,,,,,,,,,,,,,,,,,,,,,,,,,,,,,,,,,,,,,,,,,,,,,,,,,,,,,,,,,,,,,,,,,,,,,,,,,,,,,,,,,,,,,,,,,,,,,,,,,,,,,,,,,,,,,,,,,,,,,,,,,,,,,,,,,,,,,,,,,,,
0,47,47,18,1,,6131de3102b54b21bccdc7f7,62bbfa3b5d8e00a17248ed24,2022-06-29_09h09.05.789,Colour_Asymmetry_Pilot,2022.1.3,Win32,59.95203837,62bbe60bf3d75ef465d3e404,,,,,,,,,,,,,,,,,,,,,,,,,,,,,,,,,,,,,,,,,,,,,,,,,,,,,,,,,,,,,,,,,,,,,,,,,,,,,,,,,,,,,,,,,,,,,,,,,,,,,,,,,,,,,,,,,,,,,,,,,,,,,,,,,,,,,,,,,,,,,,,,,,,,,,,,,,,,,,
0,48,48,40,1,,6131de3102b54b21bccdc7f7,62bbfa3b5d8e00a17248ed24,2022-06-29_09h09.05.789,Colour_Asymmetry_Pilot,2022.1.3,Win32,59.95203837,62bbe60bf3d75ef465d3e404,,,,,,,,,,,,,,,,,,,,,,,,,,,,,,,,,,,,,,,,,,,,,,,,,,,,,,,,,,,,,,,,,,,,,,,,,,,,,,,,,,,,,,,,,,,,,,,,,,,,,,,,,,,,,,,,,,,,,,,,,,,,,,,,,,,,,,,,,,,,,,,,,,,,,,,,,,,,,,
0,49,49,55,1,,6131de3102b54b21bccdc7f7,62bbfa3b5d8e00a17248ed24,2022-06-29_09h09.05.789,Colour_Asymmetry_Pilot,2022.1.3,Win32,59.95203837,62bbe60bf3d75ef465d3e404,,,,,,,,,,,,,,,,,,,,,,,,,,,,,,,,,,,,,,,,,,,,,,,,,,,,,,,,,,,,,,,,,,,,,,,,,,,,,,,,,,,,,,,,,,,,,,,,,,,,,,,,,,,,,,,,,,,,,,,,,,,,,,,,,,,,,,,,,,,,,,,,,,,,,,,,,,,,,,
0,50,50,19,1,,6131de3102b54b21bccdc7f7,62bbfa3b5d8e00a17248ed24,2022-06-29_09h09.05.789,Colour_Asymmetry_Pilot,2022.1.3,Win32,59.95203837,62bbe60bf3d75ef465d3e404,,,,,,,,,,,,,,,,,,,,,,,,,,,,,,,,,,,,,,,,,,,,,,,,,,,,,,,,,,,,,,,,,,,,,,,,,,,,,,,,,,,,,,,,,,,,,,,,,,,,,,,,,,,,,,,,,,,,,,,,,,,,,,,,,,,,,,,,,,,,,,,,,,,,,,,,,,,,,,
0,51,51,64,1,,6131de3102b54b21bccdc7f7,62bbfa3b5d8e00a17248ed24,2022-06-29_09h09.05.789,Colour_Asymmetry_Pilot,2022.1.3,Win32,59.95203837,62bbe60bf3d75ef465d3e404,,,,,,,,,,,,,,,,,,,,,,,,,,,,,,,,,,,,,,,,,,,,,,,,,,,,,,,,,,,,,,,,,,,,,,,,,,,,,,,,,,,,,,,,,,,,,,,,,,,,,,,,,,,,,,,,,,,,,,,,,,,,,,,,,,,,,,,,,,,,,,,,,,,,,,,,,,,,,,
0,52,52,34,1,,6131de3102b54b21bccdc7f7,62bbfa3b5d8e00a17248ed24,2022-06-29_09h09.05.789,Colour_Asymmetry_Pilot,2022.1.3,Win32,59.95203837,62bbe60bf3d75ef465d3e404,,,,,,,,,,,,,,,,,,,,,,,,,,,,,,,,,,,,,,,,,,,,,,,,,,,,,,,,,,,,,,,,,,,,,,,,,,,,,,,,,,,,,,,,,,,,,,,,,,,,,,,,,,,,,,,,,,,,,,,,,,,,,,,,,,,,,,,,,,,,,,,,,,,,,,,,,,,,,,
0,53,53,11,1,,6131de3102b54b21bccdc7f7,62bbfa3b5d8e00a17248ed24,2022-06-29_09h09.05.789,Colour_Asymmetry_Pilot,2022.1.3,Win32,59.95203837,62bbe60bf3d75ef465d3e404,,,,,,,,,,,,,,,,,,,,,,,,,,,,,,,,,,,,,,,,,,,,,,,,,,,,,,,,,,,,,,,,,,,,,,,,,,,,,,,,,,,,,,,,,,,,,,,,,,,,,,,,,,,,,,,,,,,,,,,,,,,,,,,,,,,,,,,,,,,,,,,,,,,,,,,,,,,,,,
0,54,54,57,1,,6131de3102b54b21bccdc7f7,62bbfa3b5d8e00a17248ed24,2022-06-29_09h09.05.789,Colour_Asymmetry_Pilot,2022.1.3,Win32,59.95203837,62bbe60bf3d75ef465d3e404,,,,,,,,,,,,,,,,,,,,,,,,,,,,,,,,,,,,,,,,,,,,,,,,,,,,,,,,,,,,,,,,,,,,,,,,,,,,,,,,,,,,,,,,,,,,,,,,,,,,,,,,,,,,,,,,,,,,,,,,,,,,,,,,,,,,,,,,,,,,,,,,,,,,,,,,,,,,,,
0,55,55,68,1,,6131de3102b54b21bccdc7f7,62bbfa3b5d8e00a17248ed24,2022-06-29_09h09.05.789,Colour_Asymmetry_Pilot,2022.1.3,Win32,59.95203837,62bbe60bf3d75ef465d3e404,,,,,,,,,,,,,,,,,,,,,,,,,,,,,,,,,,,,,,,,,,,,,,,,,,,,,,,,,,,,,,,,,,,,,,,,,,,,,,,,,,,,,,,,,,,,,,,,,,,,,,,,,,,,,,,,,,,,,,,,,,,,,,,,,,,,,,,,,,,,,,,,,,,,,,,,,,,,,,
0,56,56,60,1,,6131de3102b54b21bccdc7f7,62bbfa3b5d8e00a17248ed24,2022-06-29_09h09.05.789,Colour_Asymmetry_Pilot,2022.1.3,Win32,59.95203837,62bbe60bf3d75ef465d3e404,,,,,,,,,,,,,,,,,,,,,,,,,,,,,,,,,,,,,,,,,,,,,,,,,,,,,,,,,,,,,,,,,,,,,,,,,,,,,,,,,,,,,,,,,,,,,,,,,,,,,,,,,,,,,,,,,,,,,,,,,,,,,,,,,,,,,,,,,,,,,,,,,,,,,,,,,,,,,,
0,57,57,46,1,,6131de3102b54b21bccdc7f7,62bbfa3b5d8e00a17248ed24,2022-06-29_09h09.05.789,Colour_Asymmetry_Pilot,2022.1.3,Win32,59.95203837,62bbe60bf3d75ef465d3e404,,,,,,,,,,,,,,,,,,,,,,,,,,,,,,,,,,,,,,,,,,,,,,,,,,,,,,,,,,,,,,,,,,,,,,,,,,,,,,,,,,,,,,,,,,,,,,,,,,,,,,,,,,,,,,,,,,,,,,,,,,,,,,,,,,,,,,,,,,,,,,,,,,,,,,,,,,,,,,
0,58,58,66,1,,6131de3102b54b21bccdc7f7,62bbfa3b5d8e00a17248ed24,2022-06-29_09h09.05.789,Colour_Asymmetry_Pilot,2022.1.3,Win32,59.95203837,62bbe60bf3d75ef465d3e404,,,,,,,,,,,,,,,,,,,,,,,,,,,,,,,,,,,,,,,,,,,,,,,,,,,,,,,,,,,,,,,,,,,,,,,,,,,,,,,,,,,,,,,,,,,,,,,,,,,,,,,,,,,,,,,,,,,,,,,,,,,,,,,,,,,,,,,,,,,,,,,,,,,,,,,,,,,,,,
0,59,59,92,1,,6131de3102b54b21bccdc7f7,62bbfa3b5d8e00a17248ed24,2022-06-29_09h09.05.789,Colour_Asymmetry_Pilot,2022.1.3,Win32,59.95203837,62bbe60bf3d75ef465d3e404,,,,,,,,,,,,,,,,,,,,,,,,,,,,,,,,,,,,,,,,,,,,,,,,,,,,,,,,,,,,,,,,,,,,,,,,,,,,,,,,,,,,,,,,,,,,,,,,,,,,,,,,,,,,,,,,,,,,,,,,,,,,,,,,,,,,,,,,,,,,,,,,,,,,,,,,,,,,,,
0,60,60,21,1,,6131de3102b54b21bccdc7f7,62bbfa3b5d8e00a17248ed24,2022-06-29_09h09.05.789,Colour_Asymmetry_Pilot,2022.1.3,Win32,59.95203837,62bbe60bf3d75ef465d3e404,,,,,,,,,,,,,,,,,,,,,,,,,,,,,,,,,,,,,,,,,,,,,,,,,,,,,,,,,,,,,,,,,,,,,,,,,,,,,,,,,,,,,,,,,,,,,,,,,,,,,,,,,,,,,,,,,,,,,,,,,,,,,,,,,,,,,,,,,,,,,,,,,,,,,,,,,,,,,,
0,61,61,1,1,,6131de3102b54b21bccdc7f7,62bbfa3b5d8e00a17248ed24,2022-06-29_09h09.05.789,Colour_Asymmetry_Pilot,2022.1.3,Win32,59.95203837,62bbe60bf3d75ef465d3e404,,,,,,,,,,,,,,,,,,,,,,,,,,,,,,,,,,,,,,,,,,,,,,,,,,,,,,,,,,,,,,,,,,,,,,,,,,,,,,,,,,,,,,,,,,,,,,,,,,,,,,,,,,,,,,,,,,,,,,,,,,,,,,,,,,,,,,,,,,,,,,,,,,,,,,,,,,,,,,
0,62,62,52,1,,6131de3102b54b21bccdc7f7,62bbfa3b5d8e00a17248ed24,2022-06-29_09h09.05.789,Colour_Asymmetry_Pilot,2022.1.3,Win32,59.95203837,62bbe60bf3d75ef465d3e404,,,,,,,,,,,,,,,,,,,,,,,,,,,,,,,,,,,,,,,,,,,,,,,,,,,,,,,,,,,,,,,,,,,,,,,,,,,,,,,,,,,,,,,,,,,,,,,,,,,,,,,,,,,,,,,,,,,,,,,,,,,,,,,,,,,,,,,,,,,,,,,,,,,,,,,,,,,,,,
0,63,63,16,1,,6131de3102b54b21bccdc7f7,62bbfa3b5d8e00a17248ed24,2022-06-29_09h09.05.789,Colour_Asymmetry_Pilot,2022.1.3,Win32,59.95203837,62bbe60bf3d75ef465d3e404,,,,,,,,,,,,,,,,,,,,,,,,,,,,,,,,,,,,,,,,,,,,,,,,,,,,,,,,,,,,,,,,,,,,,,,,,,,,,,,,,,,,,,,,,,,,,,,,,,,,,,,,,,,,,,,,,,,,,,,,,,,,,,,,,,,,,,,,,,,,,,,,,,,,,,,,,,,,,,
0,64,64,61,1,,6131de3102b54b21bccdc7f7,62bbfa3b5d8e00a17248ed24,2022-06-29_09h09.05.789,Colour_Asymmetry_Pilot,2022.1.3,Win32,59.95203837,62bbe60bf3d75ef465d3e404,,,,,,,,,,,,,,,,,,,,,,,,,,,,,,,,,,,,,,,,,,,,,,,,,,,,,,,,,,,,,,,,,,,,,,,,,,,,,,,,,,,,,,,,,,,,,,,,,,,,,,,,,,,,,,,,,,,,,,,,,,,,,,,,,,,,,,,,,,,,,,,,,,,,,,,,,,,,,,
0,65,65,29,1,,6131de3102b54b21bccdc7f7,62bbfa3b5d8e00a17248ed24,2022-06-29_09h09.05.789,Colour_Asymmetry_Pilot,2022.1.3,Win32,59.95203837,62bbe60bf3d75ef465d3e404,,,,,,,,,,,,,,,,,,,,,,,,,,,,,,,,,,,,,,,,,,,,,,,,,,,,,,,,,,,,,,,,,,,,,,,,,,,,,,,,,,,,,,,,,,,,,,,,,,,,,,,,,,,,,,,,,,,,,,,,,,,,,,,,,,,,,,,,,,,,,,,,,,,,,,,,,,,,,,
0,66,66,10,1,,6131de3102b54b21bccdc7f7,62bbfa3b5d8e00a17248ed24,2022-06-29_09h09.05.789,Colour_Asymmetry_Pilot,2022.1.3,Win32,59.95203837,62bbe60bf3d75ef465d3e404,,,,,,,,,,,,,,,,,,,,,,,,,,,,,,,,,,,,,,,,,,,,,,,,,,,,,,,,,,,,,,,,,,,,,,,,,,,,,,,,,,,,,,,,,,,,,,,,,,,,,,,,,,,,,,,,,,,,,,,,,,,,,,,,,,,,,,,,,,,,,,,,,,,,,,,,,,,,,,
0,67,67,73,1,,6131de3102b54b21bccdc7f7,62bbfa3b5d8e00a17248ed24,2022-06-29_09h09.05.789,Colour_Asymmetry_Pilot,2022.1.3,Win32,59.95203837,62bbe60bf3d75ef465d3e404,,,,,,,,,,,,,,,,,,,,,,,,,,,,,,,,,,,,,,,,,,,,,,,,,,,,,,,,,,,,,,,,,,,,,,,,,,,,,,,,,,,,,,,,,,,,,,,,,,,,,,,,,,,,,,,,,,,,,,,,,,,,,,,,,,,,,,,,,,,,,,,,,,,,,,,,,,,,,,
0,68,68,89,1,,6131de3102b54b21bccdc7f7,62bbfa3b5d8e00a17248ed24,2022-06-29_09h09.05.789,Colour_Asymmetry_Pilot,2022.1.3,Win32,59.95203837,62bbe60bf3d75ef465d3e404,,,,,,,,,,,,,,,,,,,,,,,,,,,,,,,,,,,,,,,,,,,,,,,,,,,,,,,,,,,,,,,,,,,,,,,,,,,,,,,,,,,,,,,,,,,,,,,,,,,,,,,,,,,,,,,,,,,,,,,,,,,,,,,,,,,,,,,,,,,,,,,,,,,,,,,,,,,,,,
0,69,69,2,1,,6131de3102b54b21bccdc7f7,62bbfa3b5d8e00a17248ed24,2022-06-29_09h09.05.789,Colour_Asymmetry_Pilot,2022.1.3,Win32,59.95203837,62bbe60bf3d75ef465d3e404,,,,,,,,,,,,,,,,,,,,,,,,,,,,,,,,,,,,,,,,,,,,,,,,,,,,,,,,,,,,,,,,,,,,,,,,,,,,,,,,,,,,,,,,,,,,,,,,,,,,,,,,,,,,,,,,,,,,,,,,,,,,,,,,,,,,,,,,,,,,,,,,,,,,,,,,,,,,,,
0,70,70,72,1,,6131de3102b54b21bccdc7f7,62bbfa3b5d8e00a17248ed24,2022-06-29_09h09.05.789,Colour_Asymmetry_Pilot,2022.1.3,Win32,59.95203837,62bbe60bf3d75ef465d3e404,,,,,,,,,,,,,,,,,,,,,,,,,,,,,,,,,,,,,,,,,,,,,,,,,,,,,,,,,,,,,,,,,,,,,,,,,,,,,,,,,,,,,,,,,,,,,,,,,,,,,,,,,,,,,,,,,,,,,,,,,,,,,,,,,,,,,,,,,,,,,,,,,,,,,,,,,,,,,,
0,71,71,63,1,,6131de3102b54b21bccdc7f7,62bbfa3b5d8e00a17248ed24,2022-06-29_09h09.05.789,Colour_Asymmetry_Pilot,2022.1.3,Win32,59.95203837,62bbe60bf3d75ef465d3e404,,,,,,,,,,,,,,,,,,,,,,,,,,,,,,,,,,,,,,,,,,,,,,,,,,,,,,,,,,,,,,,,,,,,,,,,,,,,,,,,,,,,,,,,,,,,,,,,,,,,,,,,,,,,,,,,,,,,,,,,,,,,,,,,,,,,,,,,,,,,,,,,,,,,,,,,,,,,,,
0,72,72,6,1,,6131de3102b54b21bccdc7f7,62bbfa3b5d8e00a17248ed24,2022-06-29_09h09.05.789,Colour_Asymmetry_Pilot,2022.1.3,Win32,59.95203837,62bbe60bf3d75ef465d3e404,,,,,,,,,,,,,,,,,,,,,,,,,,,,,,,,,,,,,,,,,,,,,,,,,,,,,,,,,,,,,,,,,,,,,,,,,,,,,,,,,,,,,,,,,,,,,,,,,,,,,,,,,,,,,,,,,,,,,,,,,,,,,,,,,,,,,,,,,,,,,,,,,,,,,,,,,,,,,,
0,73,73,88,1,,6131de3102b54b21bccdc7f7,62bbfa3b5d8e00a17248ed24,2022-06-29_09h09.05.789,Colour_Asymmetry_Pilot,2022.1.3,Win32,59.95203837,62bbe60bf3d75ef465d3e404,,,,,,,,,,,,,,,,,,,,,,,,,,,,,,,,,,,,,,,,,,,,,,,,,,,,,,,,,,,,,,,,,,,,,,,,,,,,,,,,,,,,,,,,,,,,,,,,,,,,,,,,,,,,,,,,,,,,,,,,,,,,,,,,,,,,,,,,,,,,,,,,,,,,,,,,,,,,,,
0,74,74,62,1,,6131de3102b54b21bccdc7f7,62bbfa3b5d8e00a17248ed24,2022-06-29_09h09.05.789,Colour_Asymmetry_Pilot,2022.1.3,Win32,59.95203837,62bbe60bf3d75ef465d3e404,,,,,,,,,,,,,,,,,,,,,,,,,,,,,,,,,,,,,,,,,,,,,,,,,,,,,,,,,,,,,,,,,,,,,,,,,,,,,,,,,,,,,,,,,,,,,,,,,,,,,,,,,,,,,,,,,,,,,,,,,,,,,,,,,,,,,,,,,,,,,,,,,,,,,,,,,,,,,,
0,75,75,4,1,,6131de3102b54b21bccdc7f7,62bbfa3b5d8e00a17248ed24,2022-06-29_09h09.05.789,Colour_Asymmetry_Pilot,2022.1.3,Win32,59.95203837,62bbe60bf3d75ef465d3e404,,,,,,,,,,,,,,,,,,,,,,,,,,,,,,,,,,,,,,,,,,,,,,,,,,,,,,,,,,,,,,,,,,,,,,,,,,,,,,,,,,,,,,,,,,,,,,,,,,,,,,,,,,,,,,,,,,,,,,,,,,,,,,,,,,,,,,,,,,,,,,,,,,,,,,,,,,,,,,
0,76,76,20,1,,6131de3102b54b21bccdc7f7,62bbfa3b5d8e00a17248ed24,2022-06-29_09h09.05.789,Colour_Asymmetry_Pilot,2022.1.3,Win32,59.95203837,62bbe60bf3d75ef465d3e404,,,,,,,,,,,,,,,,,,,,,,,,,,,,,,,,,,,,,,,,,,,,,,,,,,,,,,,,,,,,,,,,,,,,,,,,,,,,,,,,,,,,,,,,,,,,,,,,,,,,,,,,,,,,,,,,,,,,,,,,,,,,,,,,,,,,,,,,,,,,,,,,,,,,,,,,,,,,,,
0,77,77,75,1,,6131de3102b54b21bccdc7f7,62bbfa3b5d8e00a17248ed24,2022-06-29_09h09.05.789,Colour_Asymmetry_Pilot,2022.1.3,Win32,59.95203837,62bbe60bf3d75ef465d3e404,,,,,,,,,,,,,,,,,,,,,,,,,,,,,,,,,,,,,,,,,,,,,,,,,,,,,,,,,,,,,,,,,,,,,,,,,,,,,,,,,,,,,,,,,,,,,,,,,,,,,,,,,,,,,,,,,,,,,,,,,,,,,,,,,,,,,,,,,,,,,,,,,,,,,,,,,,,,,,
0,78,78,45,1,,6131de3102b54b21bccdc7f7,62bbfa3b5d8e00a17248ed24,2022-06-29_09h09.05.789,Colour_Asymmetry_Pilot,2022.1.3,Win32,59.95203837,62bbe60bf3d75ef465d3e404,,,,,,,,,,,,,,,,,,,,,,,,,,,,,,,,,,,,,,,,,,,,,,,,,,,,,,,,,,,,,,,,,,,,,,,,,,,,,,,,,,,,,,,,,,,,,,,,,,,,,,,,,,,,,,,,,,,,,,,,,,,,,,,,,,,,,,,,,,,,,,,,,,,,,,,,,,,,,,
0,79,79,84,1,,6131de3102b54b21bccdc7f7,62bbfa3b5d8e00a17248ed24,2022-06-29_09h09.05.789,Colour_Asymmetry_Pilot,2022.1.3,Win32,59.95203837,62bbe60bf3d75ef465d3e404,,,,,,,,,,,,,,,,,,,,,,,,,,,,,,,,,,,,,,,,,,,,,,,,,,,,,,,,,,,,,,,,,,,,,,,,,,,,,,,,,,,,,,,,,,,,,,,,,,,,,,,,,,,,,,,,,,,,,,,,,,,,,,,,,,,,,,,,,,,,,,,,,,,,,,,,,,,,,,
0,80,80,23,1,,6131de3102b54b21bccdc7f7,62bbfa3b5d8e00a17248ed24,2022-06-29_09h09.05.789,Colour_Asymmetry_Pilot,2022.1.3,Win32,59.95203837,62bbe60bf3d75ef465d3e404,,,,,,,,,,,,,,,,,,,,,,,,,,,,,,,,,,,,,,,,,,,,,,,,,,,,,,,,,,,,,,,,,,,,,,,,,,,,,,,,,,,,,,,,,,,,,,,,,,,,,,,,,,,,,,,,,,,,,,,,,,,,,,,,,,,,,,,,,,,,,,,,,,,,,,,,,,,,,,
0,81,81,48,1,,6131de3102b54b21bccdc7f7,62bbfa3b5d8e00a17248ed24,2022-06-29_09h09.05.789,Colour_Asymmetry_Pilot,2022.1.3,Win32,59.95203837,62bbe60bf3d75ef465d3e404,,,,,,,,,,,,,,,,,,,,,,,,,,,,,,,,,,,,,,,,,,,,,,,,,,,,,,,,,,,,,,,,,,,,,,,,,,,,,,,,,,,,,,,,,,,,,,,,,,,,,,,,,,,,,,,,,,,,,,,,,,,,,,,,,,,,,,,,,,,,,,,,,,,,,,,,,,,,,,
0,82,82,12,1,,6131de3102b54b21bccdc7f7,62bbfa3b5d8e00a17248ed24,2022-06-29_09h09.05.789,Colour_Asymmetry_Pilot,2022.1.3,Win32,59.95203837,62bbe60bf3d75ef465d3e404,,,,,,,,,,,,,,,,,,,,,,,,,,,,,,,,,,,,,,,,,,,,,,,,,,,,,,,,,,,,,,,,,,,,,,,,,,,,,,,,,,,,,,,,,,,,,,,,,,,,,,,,,,,,,,,,,,,,,,,,,,,,,,,,,,,,,,,,,,,,,,,,,,,,,,,,,,,,,,
0,83,83,35,1,,6131de3102b54b21bccdc7f7,62bbfa3b5d8e00a17248ed24,2022-06-29_09h09.05.789,Colour_Asymmetry_Pilot,2022.1.3,Win32,59.95203837,62bbe60bf3d75ef465d3e404,,,,,,,,,,,,,,,,,,,,,,,,,,,,,,,,,,,,,,,,,,,,,,,,,,,,,,,,,,,,,,,,,,,,,,,,,,,,,,,,,,,,,,,,,,,,,,,,,,,,,,,,,,,,,,,,,,,,,,,,,,,,,,,,,,,,,,,,,,,,,,,,,,,,,,,,,,,,,,
0,84,84,36,1,,6131de3102b54b21bccdc7f7,62bbfa3b5d8e00a17248ed24,2022-06-29_09h09.05.789,Colour_Asymmetry_Pilot,2022.1.3,Win32,59.95203837,62bbe60bf3d75ef465d3e404,,,,,,,,,,,,,,,,,,,,,,,,,,,,,,,,,,,,,,,,,,,,,,,,,,,,,,,,,,,,,,,,,,,,,,,,,,,,,,,,,,,,,,,,,,,,,,,,,,,,,,,,,,,,,,,,,,,,,,,,,,,,,,,,,,,,,,,,,,,,,,,,,,,,,,,,,,,,,,
0,85,85,7,1,,6131de3102b54b21bccdc7f7,62bbfa3b5d8e00a17248ed24,2022-06-29_09h09.05.789,Colour_Asymmetry_Pilot,2022.1.3,Win32,59.95203837,62bbe60bf3d75ef465d3e404,,,,,,,,,,,,,,,,,,,,,,,,,,,,,,,,,,,,,,,,,,,,,,,,,,,,,,,,,,,,,,,,,,,,,,,,,,,,,,,,,,,,,,,,,,,,,,,,,,,,,,,,,,,,,,,,,,,,,,,,,,,,,,,,,,,,,,,,,,,,,,,,,,,,,,,,,,,,,,
0,86,86,22,1,,6131de3102b54b21bccdc7f7,62bbfa3b5d8e00a17248ed24,2022-06-29_09h09.05.789,Colour_Asymmetry_Pilot,2022.1.3,Win32,59.95203837,62bbe60bf3d75ef465d3e404,,,,,,,,,,,,,,,,,,,,,,,,,,,,,,,,,,,,,,,,,,,,,,,,,,,,,,,,,,,,,,,,,,,,,,,,,,,,,,,,,,,,,,,,,,,,,,,,,,,,,,,,,,,,,,,,,,,,,,,,,,,,,,,,,,,,,,,,,,,,,,,,,,,,,,,,,,,,,,
0,87,87,85,1,,6131de3102b54b21bccdc7f7,62bbfa3b5d8e00a17248ed24,2022-06-29_09h09.05.789,Colour_Asymmetry_Pilot,2022.1.3,Win32,59.95203837,62bbe60bf3d75ef465d3e404,,,,,,,,,,,,,,,,,,,,,,,,,,,,,,,,,,,,,,,,,,,,,,,,,,,,,,,,,,,,,,,,,,,,,,,,,,,,,,,,,,,,,,,,,,,,,,,,,,,,,,,,,,,,,,,,,,,,,,,,,,,,,,,,,,,,,,,,,,,,,,,,,,,,,,,,,,,,,,
0,88,88,80,1,,6131de3102b54b21bccdc7f7,62bbfa3b5d8e00a17248ed24,2022-06-29_09h09.05.789,Colour_Asymmetry_Pilot,2022.1.3,Win32,59.95203837,62bbe60bf3d75ef465d3e404,,,,,,,,,,,,,,,,,,,,,,,,,,,,,,,,,,,,,,,,,,,,,,,,,,,,,,,,,,,,,,,,,,,,,,,,,,,,,,,,,,,,,,,,,,,,,,,,,,,,,,,,,,,,,,,,,,,,,,,,,,,,,,,,,,,,,,,,,,,,,,,,,,,,,,,,,,,,,,
0,89,89,0,1,,6131de3102b54b21bccdc7f7,62bbfa3b5d8e00a17248ed24,2022-06-29_09h09.05.789,Colour_Asymmetry_Pilot,2022.1.3,Win32,59.95203837,62bbe60bf3d75ef465d3e404,,,,,,,,,,,,,,,,,,,,,,,,,,,,,,,,,,,,,,,,,,,,,,,,,,,,,,,,,,,,,,,,,,,,,,,,,,,,,,,,,,,,,,,,,,,,,,,,,,,,,,,,,,,,,,,,,,,,,,,,,,,,,,,,,,,,,,,,,,,,,,,,,,,,,,,,,,,,,,
0,90,90,3,1,,6131de3102b54b21bccdc7f7,62bbfa3b5d8e00a17248ed24,2022-06-29_09h09.05.789,Colour_Asymmetry_Pilot,2022.1.3,Win32,59.95203837,62bbe60bf3d75ef465d3e404,,,,,,,,,,,,,,,,,,,,,,,,,,,,,,,,,,,,,,,,,,,,,,,,,,,,,,,,,,,,,,,,,,,,,,,,,,,,,,,,,,,,,,,,,,,,,,,,,,,,,,,,,,,,,,,,,,,,,,,,,,,,,,,,,,,,,,,,,,,,,,,,,,,,,,,,,,,,,,
0,91,91,37,1,,6131de3102b54b21bccdc7f7,62bbfa3b5d8e00a17248ed24,2022-06-29_09h09.05.789,Colour_Asymmetry_Pilot,2022.1.3,Win32,59.95203837,62bbe60bf3d75ef465d3e404,,,,,,,,,,,,,,,,,,,,,,,,,,,,,,,,,,,,,,,,,,,,,,,,,,,,,,,,,,,,,,,,,,,,,,,,,,,,,,,,,,,,,,,,,,,,,,,,,,,,,,,,,,,,,,,,,,,,,,,,,,,,,,,,,,,,,,,,,,,,,,,,,,,,,,,,,,,,,,
0,92,92,47,1,,6131de3102b54b21bccdc7f7,62bbfa3b5d8e00a17248ed24,2022-06-29_09h09.05.789,Colour_Asymmetry_Pilot,2022.1.3,Win32,59.95203837,62bbe60bf3d75ef465d3e404,,,,,,,,,,,,,,,,,,,,,,,,,,,,,,,,,,,,,,,,,,,,,,,,,,,,,,,,,,,,,,,,,,,,,,,,,,,,,,,,,,,,,,,,,,,,,,,,,,,,,,,,,,,,,,,,,,,,,,,,,,,,,,,,,,,,,,,,,,,,,,,,,,,,,,,,,,,,,,
,,,,,,6131de3102b54b21bccdc7f7,62bbfa3b5d8e00a17248ed24,2022-06-29_09h09.05.789,Colour_Asymmetry_Pilot,2022.1.3,Win32,59.95203837,62bbe60bf3d75ef465d3e404,0,0,0,7,1,fourthree,,,,,,,,,,,,,,,,,,,,,,,,,,,,,,,,,,,,,,,,,,,,,,,,,,,,,,,,,,,,,,,,,,,,,,,,,,,,,,,,,,,,,,,,,,,,,,,,,,,,,,,,,,,,,,,,,,,,,,,,,,,,,,,,,,,,,,,,,,,,,,,,,,,,,,,,
,,,,,,6131de3102b54b21bccdc7f7,62bbfa3b5d8e00a17248ed24,2022-06-29_09h09.05.789,Colour_Asymmetry_Pilot,2022.1.3,Win32,59.95203837,62bbe60bf3d75ef465d3e404,0,1,1,39,1,fourthree,,,,,,,,,,,,,,,,,,,,,,,,,,,,,,,,,,,,,,,,,,,,,,,,,,,,,,,,,,,,,,,,,,,,,,,,,,,,,,,,,,,,,,,,,,,,,,,,,,,,,,,,,,,,,,,,,,,,,,,,,,,,,,,,,,,,,,,,,,,,,,,,,,,,,,,,
,,,,,,6131de3102b54b21bccdc7f7,62bbfa3b5d8e00a17248ed24,2022-06-29_09h09.05.789,Colour_Asymmetry_Pilot,2022.1.3,Win32,59.95203837,62bbe60bf3d75ef465d3e404,0,2,2,103,1,fourthree,,,,,,,,,,,,,,,,,,,,,,,,,,,,,,,,,,,,,,,,,,,,,,,,,,,,,,,,,,,,,,,,,,,,,,,,,,,,,,,,,,,,,,,,,,,,,,,,,,,,,,,,,,,,,,,,,,,,,,,,,,,,,,,,,,,,,,,,,,,,,,,,,,,,,,,,
,,,,,,6131de3102b54b21bccdc7f7,62bbfa3b5d8e00a17248ed24,2022-06-29_09h09.05.789,Colour_Asymmetry_Pilot,2022.1.3,Win32,59.95203837,62bbe60bf3d75ef465d3e404,0,3,3,61,1,threefour,,,,,,,,,,,,,,,,,,,,,,,,,,,,,,,,,,,,,,,,,,,,,,,,,,,,,,,,,,,,,,,,,,,,,,,,,,,,,,,,,,,,,,,,,,,,,,,,,,,,,,,,,,,,,,,,,,,,,,,,,,,,,,,,,,,,,,,,,,,,,,,,,,,,,,,,
,,,,,,6131de3102b54b21bccdc7f7,62bbfa3b5d8e00a17248ed24,2022-06-29_09h09.05.789,Colour_Asymmetry_Pilot,2022.1.3,Win32,59.95203837,62bbe60bf3d75ef465d3e404,0,4,4,48,1,onetwo,,,,,,,,,,,,,,,,,,,,,,,,,,,,,,,,,,,,,,,,,,,,,,,,,,,,,,,,,,,,,,,,,,,,,,,,,,,,,,,,,,,,,,,,,,,,,,,,,,,,,,,,,,,,,,,,,,,,,,,,,,,,,,,,,,,,,,,,,,,,,,,,,,,,,,,,
,,,,,,6131de3102b54b21bccdc7f7,62bbfa3b5d8e00a17248ed24,2022-06-29_09h09.05.789,Colour_Asymmetry_Pilot,2022.1.3,Win32,59.95203837,62bbe60bf3d75ef465d3e404,0,5,5,67,1,twofour,,,,,,,,,,,,,,,,,,,,,,,,,,,,,,,,,,,,,,,,,,,,,,,,,,,,,,,,,,,,,,,,,,,,,,,,,,,,,,,,,,,,,,,,,,,,,,,,,,,,,,,,,,,,,,,,,,,,,,,,,,,,,,,,,,,,,,,,,,,,,,,,,,,,,,,,
,,,,,,6131de3102b54b21bccdc7f7,62bbfa3b5d8e00a17248ed24,2022-06-29_09h09.05.789,Colour_Asymmetry_Pilot,2022.1.3,Win32,59.95203837,62bbe60bf3d75ef465d3e404,0,6,6,17,1,onethree,,,,,,,,,,,,,,,,,,,,,,,,,,,,,,,,,,,,,,,,,,,,,,,,,,,,,,,,,,,,,,,,,,,,,,,,,,,,,,,,,,,,,,,,,,,,,,,,,,,,,,,,,,,,,,,,,,,,,,,,,,,,,,,,,,,,,,,,,,,,,,,,,,,,,,,,
,,,,,,6131de3102b54b21bccdc7f7,62bbfa3b5d8e00a17248ed24,2022-06-29_09h09.05.789,Colour_Asymmetry_Pilot,2022.1.3,Win32,59.95203837,62bbe60bf3d75ef465d3e404,0,7,7,12,1,threeone,,,,,,,,,,,,,,,,,,,,,,,,,,,,,,,,,,,,,,,,,,,,,,,,,,,,,,,,,,,,,,,,,,,,,,,,,,,,,,,,,,,,,,,,,,,,,,,,,,,,,,,,,,,,,,,,,,,,,,,,,,,,,,,,,,,,,,,,,,,,,,,,,,,,,,,,
,,,,,,6131de3102b54b21bccdc7f7,62bbfa3b5d8e00a17248ed24,2022-06-29_09h09.05.789,Colour_Asymmetry_Pilot,2022.1.3,Win32,59.95203837,62bbe60bf3d75ef465d3e404,0,8,8,5,1,threefour,,,,,,,,,,,,,,,,,,,,,,,,,,,,,,,,,,,,,,,,,,,,,,,,,,,,,,,,,,,,,,,,,,,,,,,,,,,,,,,,,,,,,,,,,,,,,,,,,,,,,,,,,,,,,,,,,,,,,,,,,,,,,,,,,,,,,,,,,,,,,,,,,,,,,,,,
,,,,,,6131de3102b54b21bccdc7f7,62bbfa3b5d8e00a17248ed24,2022-06-29_09h09.05.789,Colour_Asymmetry_Pilot,2022.1.3,Win32,59.95203837,62bbe60bf3d75ef465d3e404,0,9,9,115,1,twofour,,,,,,,,,,,,,,,,,,,,,,,,,,,,,,,,,,,,,,,,,,,,,,,,,,,,,,,,,,,,,,,,,,,,,,,,,,,,,,,,,,,,,,,,,,,,,,,,,,,,,,,,,,,,,,,,,,,,,,,,,,,,,,,,,,,,,,,,,,,,,,,,,,,,,,,,
,,,,,,6131de3102b54b21bccdc7f7,62bbfa3b5d8e00a17248ed24,2022-06-29_09h09.05.789,Colour_Asymmetry_Pilot,2022.1.3,Win32,59.95203837,62bbe60bf3d75ef465d3e404,0,10,10,1,1,onethree,,,,,,,,,,,,,,,,,,,,,,,,,,,,,,,,,,,,,,,,,,,,,,,,,,,,,,,,,,,,,,,,,,,,,,,,,,,,,,,,,,,,,,,,,,,,,,,,,,,,,,,,,,,,,,,,,,,,,,,,,,,,,,,,,,,,,,,,,,,,,,,,,,,,,,,,
,,,,,,6131de3102b54b21bccdc7f7,62bbfa3b5d8e00a17248ed24,2022-06-29_09h09.05.789,Colour_Asymmetry_Pilot,2022.1.3,Win32,59.95203837,62bbe60bf3d75ef465d3e404,0,11,11,119,1,fourthree,,,,,,,,,,,,,,,,,,,,,,,,,,,,,,,,,,,,,,,,,,,,,,,,,,,,,,,,,,,,,,,,,,,,,,,,,,,,,,,,,,,,,,,,,,,,,,,,,,,,,,,,,,,,,,,,,,,,,,,,,,,,,,,,,,,,,,,,,,,,,,,,,,,,,,,,
,,,,,,6131de3102b54b21bccdc7f7,62bbfa3b5d8e00a17248ed24,2022-06-29_09h09.05.789,Colour_Asymmetry_Pilot,2022.1.3,Win32,59.95203837,62bbe60bf3d75ef465d3e404,0,12,12,66,1,twoone,,,,,,,,,,,,,,,,,,,,,,,,,,,,,,,,,,,,,,,,,,,,,,,,,,,,,,,,,,,,,,,,,,,,,,,,,,,,,,,,,,,,,,,,,,,,,,,,,,,,,,,,,,,,,,,,,,,,,,,,,,,,,,,,,,,,,,,,,,,,,,,,,,,,,,,,
,,,,,,6131de3102b54b21bccdc7f7,62bbfa3b5d8e00a17248ed24,2022-06-29_09h09.05.789,Colour_Asymmetry_Pilot,2022.1.3,Win32,59.95203837,62bbe60bf3d75ef465d3e404,0,13,13,76,1,threeone,,,,,,,,,,,,,,,,,,,,,,,,,,,,,,,,,,,,,,,,,,,,,,,,,,,,,,,,,,,,,,,,,,,,,,,,,,,,,,,,,,,,,,,,,,,,,,,,,,,,,,,,,,,,,,,,,,,,,,,,,,,,,,,,,,,,,,,,,,,,,,,,,,,,,,,,
,,,,,,6131de3102b54b21bccdc7f7,62bbfa3b5d8e00a17248ed24,2022-06-29_09h09.05.789,Colour_Asymmetry_Pilot,2022.1.3,Win32,59.95203837,62bbe60bf3d75ef465d3e404,0,14,14,2,1,twoone,,,,,,,,,,,,,,,,,,,,,,,,,,,,,,,,,,,,,,,,,,,,,,,,,,,,,,,,,,,,,,,,,,,,,,,,,,,,,,,,,,,,,,,,,,,,,,,,,,,,,,,,,,,,,,,,,,,,,,,,,,,,,,,,,,,,,,,,,,,,,,,,,,,,,,,,
,,,,,,6131de3102b54b21bccdc7f7,62bbfa3b5d8e00a17248ed24,2022-06-29_09h09.05.789,Colour_Asymmetry_Pilot,2022.1.3,Win32,59.95203837,62bbe60bf3d75ef465d3e404,0,15,15,90,1,twoone,,,,,,,,,,,,,,,,,,,,,,,,,,,,,,,,,,,,,,,,,,,,,,,,,,,,,,,,,,,,,,,,,,,,,,,,,,,,,,,,,,,,,,,,,,,,,,,,,,,,,,,,,,,,,,,,,,,,,,,,,,,,,,,,,,,,,,,,,,,,,,,,,,,,,,,,
,,,,,,6131de3102b54b21bccdc7f7,62bbfa3b5d8e00a17248ed24,2022-06-29_09h09.05.789,Colour_Asymmetry_Pilot,2022.1.3,Win32,59.95203837,62bbe60bf3d75ef465d3e404,0,16,16,106,1,twoone,,,,,,,,,,,,,,,,,,,,,,,,,,,,,,,,,,,,,,,,,,,,,,,,,,,,,,,,,,,,,,,,,,,,,,,,,,,,,,,,,,,,,,,,,,,,,,,,,,,,,,,,,,,,,,,,,,,,,,,,,,,,,,,,,,,,,,,,,,,,,,,,,,,,,,,,
,,,,,,6131de3102b54b21bccdc7f7,62bbfa3b5d8e00a17248ed24,2022-06-29_09h09.05.789,Colour_Asymmetry_Pilot,2022.1.3,Win32,59.95203837,62bbe60bf3d75ef465d3e404,0,17,17,146,1,twoone,,,,,,,,,,,,,,,,,,,,,,,,,,,,,,,,,,,,,,,,,,,,,,,,,,,,,,,,,,,,,,,,,,,,,,,,,,,,,,,,,,,,,,,,,,,,,,,,,,,,,,,,,,,,,,,,,,,,,,,,,,,,,,,,,,,,,,,,,,,,,,,,,,,,,,,,
,,,,,,6131de3102b54b21bccdc7f7,62bbfa3b5d8e00a17248ed24,2022-06-29_09h09.05.789,Colour_Asymmetry_Pilot,2022.1.3,Win32,59.95203837,62bbe60bf3d75ef465d3e404,0,18,18,152,1,onetwo,,,,,,,,,,,,,,,,,,,,,,,,,,,,,,,,,,,,,,,,,,,,,,,,,,,,,,,,,,,,,,,,,,,,,,,,,,,,,,,,,,,,,,,,,,,,,,,,,,,,,,,,,,,,,,,,,,,,,,,,,,,,,,,,,,,,,,,,,,,,,,,,,,,,,,,,
,,,,,,6131de3102b54b21bccdc7f7,62bbfa3b5d8e00a17248ed24,2022-06-29_09h09.05.789,Colour_Asymmetry_Pilot,2022.1.3,Win32,59.95203837,62bbe60bf3d75ef465d3e404,0,19,19,83,1,twofour,,,,,,,,,,,,,,,,,,,,,,,,,,,,,,,,,,,,,,,,,,,,,,,,,,,,,,,,,,,,,,,,,,,,,,,,,,,,,,,,,,,,,,,,,,,,,,,,,,,,,,,,,,,,,,,,,,,,,,,,,,,,,,,,,,,,,,,,,,,,,,,,,,,,,,,,
,,,,,,6131de3102b54b21bccdc7f7,62bbfa3b5d8e00a17248ed24,2022-06-29_09h09.05.789,Colour_Asymmetry_Pilot,2022.1.3,Win32,59.95203837,62bbe60bf3d75ef465d3e404,0,20,20,4,1,threeone,,,,,,,,,,,,,,,,,,,,,,,,,,,,,,,,,,,,,,,,,,,,,,,,,,,,,,,,,,,,,,,,,,,,,,,,,,,,,,,,,,,,,,,,,,,,,,,,,,,,,,,,,,,,,,,,,,,,,,,,,,,,,,,,,,,,,,,,,,,,,,,,,,,,,,,,
,,,,,,6131de3102b54b21bccdc7f7,62bbfa3b5d8e00a17248ed24,2022-06-29_09h09.05.789,Colour_Asymmetry_Pilot,2022.1.3,Win32,59.95203837,62bbe60bf3d75ef465d3e404,0,21,21,128,1,onetwo,,,,,,,,,,,,,,,,,,,,,,,,,,,,,,,,,,,,,,,,,,,,,,,,,,,,,,,,,,,,,,,,,,,,,,,,,,,,,,,,,,,,,,,,,,,,,,,,,,,,,,,,,,,,,,,,,,,,,,,,,,,,,,,,,,,,,,,,,,,,,,,,,,,,,,,,
,,,,,,6131de3102b54b21bccdc7f7,62bbfa3b5d8e00a17248ed24,2022-06-29_09h09.05.789,Colour_Asymmetry_Pilot,2022.1.3,Win32,59.95203837,62bbe60bf3d75ef465d3e404,0,22,22,94,1,fourtwo,,,,,,,,,,,,,,,,,,,,,,,,,,,,,,,,,,,,,,,,,,,,,,,,,,,,,,,,,,,,,,,,,,,,,,,,,,,,,,,,,,,,,,,,,,,,,,,,,,,,,,,,,,,,,,,,,,,,,,,,,,,,,,,,,,,,,,,,,,,,,,,,,,,,,,,,
,,,,,,6131de3102b54b21bccdc7f7,62bbfa3b5d8e00a17248ed24,2022-06-29_09h09.05.789,Colour_Asymmetry_Pilot,2022.1.3,Win32,59.95203837,62bbe60bf3d75ef465d3e404,0,23,23,78,1,fourtwo,,,,,,,,,,,,,,,,,,,,,,,,,,,,,,,,,,,,,,,,,,,,,,,,,,,,,,,,,,,,,,,,,,,,,,,,,,,,,,,,,,,,,,,,,,,,,,,,,,,,,,,,,,,,,,,,,,,,,,,,,,,,,,,,,,,,,,,,,,,,,,,,,,,,,,,,
,,,,,,6131de3102b54b21bccdc7f7,62bbfa3b5d8e00a17248ed24,2022-06-29_09h09.05.789,Colour_Asymmetry_Pilot,2022.1.3,Win32,59.95203837,62bbe60bf3d75ef465d3e404,0,24,24,121,1,onethree,,,,,,,,,,,,,,,,,,,,,,,,,,,,,,,,,,,,,,,,,,,,,,,,,,,,,,,,,,,,,,,,,,,,,,,,,,,,,,,,,,,,,,,,,,,,,,,,,,,,,,,,,,,,,,,,,,,,,,,,,,,,,,,,,,,,,,,,,,,,,,,,,,,,,,,,
,,,,,,6131de3102b54b21bccdc7f7,62bbfa3b5d8e00a17248ed24,2022-06-29_09h09.05.789,Colour_Asymmetry_Pilot,2022.1.3,Win32,59.95203837,62bbe60bf3d75ef465d3e404,0,25,25,25,1,onethree,,,,,,,,,,,,,,,,,,,,,,,,,,,,,,,,,,,,,,,,,,,,,,,,,,,,,,,,,,,,,,,,,,,,,,,,,,,,,,,,,,,,,,,,,,,,,,,,,,,,,,,,,,,,,,,,,,,,,,,,,,,,,,,,,,,,,,,,,,,,,,,,,,,,,,,,
,,,,,,6131de3102b54b21bccdc7f7,62bbfa3b5d8e00a17248ed24,2022-06-29_09h09.05.789,Colour_Asymmetry_Pilot,2022.1.3,Win32,59.95203837,62bbe60bf3d75ef465d3e404,0,26,26,32,1,onetwo,,,,,,,,,,,,,,,,,,,,,,,,,,,,,,,,,,,,,,,,,,,,,,,,,,,,,,,,,,,,,,,,,,,,,,,,,,,,,,,,,,,,,,,,,,,,,,,,,,,,,,,,,,,,,,,,,,,,,,,,,,,,,,,,,,,,,,,,,,,,,,,,,,,,,,,,
,,,,,,6131de3102b54b21bccdc7f7,62bbfa3b5d8e00a17248ed24,2022-06-29_09h09.05.789,Colour_Asymmetry_Pilot,2022.1.3,Win32,59.95203837,62bbe60bf3d75ef465d3e404,0,27,27,135,1,fourthree,,,,,,,,,,,,,,,,,,,,,,,,,,,,,,,,,,,,,,,,,,,,,,,,,,,,,,,,,,,,,,,,,,,,,,,,,,,,,,,,,,,,,,,,,,,,,,,,,,,,,,,,,,,,,,,,,,,,,,,,,,,,,,,,,,,,,,,,,,,,,,,,,,,,,,,,
,,,,,,6131de3102b54b21bccdc7f7,62bbfa3b5d8e00a17248ed24,2022-06-29_09h09.05.789,Colour_Asymmetry_Pilot,2022.1.3,Win32,59.95203837,62bbe60bf3d75ef465d3e404,0,28,28,141,1,threefour,,,,,,,,,,,,,,,,,,,,,,,,,,,,,,,,,,,,,,,,,,,,,,,,,,,,,,,,,,,,,,,,,,,,,,,,,,,,,,,,,,,,,,,,,,,,,,,,,,,,,,,,,,,,,,,,,,,,,,,,,,,,,,,,,,,,,,,,,,,,,,,,,,,,,,,,
,,,,,,6131de3102b54b21bccdc7f7,62bbfa3b5d8e00a17248ed24,2022-06-29_09h09.05.789,Colour_Asymmetry_Pilot,2022.1.3,Win32,59.95203837,62bbe60bf3d75ef465d3e404,0,29,29,91,1,twofour,,,,,,,,,,,,,,,,,,,,,,,,,,,,,,,,,,,,,,,,,,,,,,,,,,,,,,,,,,,,,,,,,,,,,,,,,,,,,,,,,,,,,,,,,,,,,,,,,,,,,,,,,,,,,,,,,,,,,,,,,,,,,,,,,,,,,,,,,,,,,,,,,,,,,,,,
,,,,,,6131de3102b54b21bccdc7f7,62bbfa3b5d8e00a17248ed24,2022-06-29_09h09.05.789,Colour_Asymmetry_Pilot,2022.1.3,Win32,59.95203837,62bbe60bf3d75ef465d3e404,0,30,30,151,1,fourthree,,,,,,,,,,,,,,,,,,,,,,,,,,,,,,,,,,,,,,,,,,,,,,,,,,,,,,,,,,,,,,,,,,,,,,,,,,,,,,,,,,,,,,,,,,,,,,,,,,,,,,,,,,,,,,,,,,,,,,,,,,,,,,,,,,,,,,,,,,,,,,,,,,,,,,,,
,,,,,,6131de3102b54b21bccdc7f7,62bbfa3b5d8e00a17248ed24,2022-06-29_09h09.05.789,Colour_Asymmetry_Pilot,2022.1.3,Win32,59.95203837,62bbe60bf3d75ef465d3e404,0,31,31,107,1,twofour,,,,,,,,,,,,,,,,,,,,,,,,,,,,,,,,,,,,,,,,,,,,,,,,,,,,,,,,,,,,,,,,,,,,,,,,,,,,,,,,,,,,,,,,,,,,,,,,,,,,,,,,,,,,,,,,,,,,,,,,,,,,,,,,,,,,,,,,,,,,,,,,,,,,,,,,
,,,,,,6131de3102b54b21bccdc7f7,62bbfa3b5d8e00a17248ed24,2022-06-29_09h09.05.789,Colour_Asymmetry_Pilot,2022.1.3,Win32,59.95203837,62bbe60bf3d75ef465d3e404,0,32,32,84,1,threeone,,,,,,,,,,,,,,,,,,,,,,,,,,,,,,,,,,,,,,,,,,,,,,,,,,,,,,,,,,,,,,,,,,,,,,,,,,,,,,,,,,,,,,,,,,,,,,,,,,,,,,,,,,,,,,,,,,,,,,,,,,,,,,,,,,,,,,,,,,,,,,,,,,,,,,,,
,,,,,,6131de3102b54b21bccdc7f7,62bbfa3b5d8e00a17248ed24,2022-06-29_09h09.05.789,Colour_Asymmetry_Pilot,2022.1.3,Win32,59.95203837,62bbe60bf3d75ef465d3e404,0,33,33,72,1,onetwo,,,,,,,,,,,,,,,,,,,,,,,,,,,,,,,,,,,,,,,,,,,,,,,,,,,,,,,,,,,,,,,,,,,,,,,,,,,,,,,,,,,,,,,,,,,,,,,,,,,,,,,,,,,,,,,,,,,,,,,,,,,,,,,,,,,,,,,,,,,,,,,,,,,,,,,,
,,,,,,6131de3102b54b21bccdc7f7,62bbfa3b5d8e00a17248ed24,2022-06-29_09h09.05.789,Colour_Asymmetry_Pilot,2022.1.3,Win32,59.95203837,62bbe60bf3d75ef465d3e404,0,34,34,27,1,twofour,,,,,,,,,,,,,,,,,,,,,,,,,,,,,,,,,,,,,,,,,,,,,,,,,,,,,,,,,,,,,,,,,,,,,,,,,,,,,,,,,,,,,,,,,,,,,,,,,,,,,,,,,,,,,,,,,,,,,,,,,,,,,,,,,,,,,,,,,,,,,,,,,,,,,,,,
,,,,,,6131de3102b54b21bccdc7f7,62bbfa3b5d8e00a17248ed24,2022-06-29_09h09.05.789,Colour_Asymmetry_Pilot,2022.1.3,Win32,59.95203837,62bbe60bf3d75ef465d3e404,0,35,35,155,1,twofour,,,,,,,,,,,,,,,,,,,,,,,,,,,,,,,,,,,,,,,,,,,,,,,,,,,,,,,,,,,,,,,,,,,,,,,,,,,,,,,,,,,,,,,,,,,,,,,,,,,,,,,,,,,,,,,,,,,,,,,,,,,,,,,,,,,,,,,,,,,,,,,,,,,,,,,,
,,,,,,6131de3102b54b21bccdc7f7,62bbfa3b5d8e00a17248ed24,2022-06-29_09h09.05.789,Colour_Asymmetry_Pilot,2022.1.3,Win32,59.95203837,62bbe60bf3d75ef465d3e404,0,36,36,112,1,onetwo,,,,,,,,,,,,,,,,,,,,,,,,,,,,,,,,,,,,,,,,,,,,,,,,,,,,,,,,,,,,,,,,,,,,,,,,,,,,,,,,,,,,,,,,,,,,,,,,,,,,,,,,,,,,,,,,,,,,,,,,,,,,,,,,,,,,,,,,,,,,,,,,,,,,,,,,
,,,,,,6131de3102b54b21bccdc7f7,62bbfa3b5d8e00a17248ed24,2022-06-29_09h09.05.789,Colour_Asymmetry_Pilot,2022.1.3,Win32,59.95203837,62bbe60bf3d75ef465d3e404,0,37,37,36,1,threeone,,,,,,,,,,,,,,,,,,,,,,,,,,,,,,,,,,,,,,,,,,,,,,,,,,,,,,,,,,,,,,,,,,,,,,,,,,,,,,,,,,,,,,,,,,,,,,,,,,,,,,,,,,,,,,,,,,,,,,,,,,,,,,,,,,,,,,,,,,,,,,,,,,,,,,,,
,,,,,,6131de3102b54b21bccdc7f7,62bbfa3b5d8e00a17248ed24,2022-06-29_09h09.05.789,Colour_Asymmetry_Pilot,2022.1.3,Win32,59.95203837,62bbe60bf3d75ef465d3e404,0,38,38,51,1,twofour,,,,,,,,,,,,,,,,,,,,,,,,,,,,,,,,,,,,,,,,,,,,,,,,,,,,,,,,,,,,,,,,,,,,,,,,,,,,,,,,,,,,,,,,,,,,,,,,,,,,,,,,,,,,,,,,,,,,,,,,,,,,,,,,,,,,,,,,,,,,,,,,,,,,,,,,
,,,,,,6131de3102b54b21bccdc7f7,62bbfa3b5d8e00a17248ed24,2022-06-29_09h09.05.789,Colour_Asymmetry_Pilot,2022.1.3,Win32,59.95203837,62bbe60bf3d75ef465d3e404,0,39,39,150,1,fourtwo,,,,,,,,,,,,,,,,,,,,,,,,,,,,,,,,,,,,,,,,,,,,,,,,,,,,,,,,,,,,,,,,,,,,,,,,,,,,,,,,,,,,,,,,,,,,,,,,,,,,,,,,,,,,,,,,,,,,,,,,,,,,,,,,,,,,,,,,,,,,,,,,,,,,,,,,
,,,,,,6131de3102b54b21bccdc7f7,62bbfa3b5d8e00a17248ed24,2022-06-29_09h09.05.789,Colour_Asymmetry_Pilot,2022.1.3,Win32,59.95203837,62bbe60bf3d75ef465d3e404,0,40,40,73,1,onethree,,,,,,,,,,,,,,,,,,,,,,,,,,,,,,,,,,,,,,,,,,,,,,,,,,,,,,,,,,,,,,,,,,,,,,,,,,,,,,,,,,,,,,,,,,,,,,,,,,,,,,,,,,,,,,,,,,,,,,,,,,,,,,,,,,,,,,,,,,,,,,,,,,,,,,,,
,,,,,,6131de3102b54b21bccdc7f7,62bbfa3b5d8e00a17248ed24,2022-06-29_09h09.05.789,Colour_Asymmetry_Pilot,2022.1.3,Win32,59.95203837,62bbe60bf3d75ef465d3e404,0,41,41,149,1,threefour,,,,,,,,,,,,,,,,,,,,,,,,,,,,,,,,,,,,,,,,,,,,,,,,,,,,,,,,,,,,,,,,,,,,,,,,,,,,,,,,,,,,,,,,,,,,,,,,,,,,,,,,,,,,,,,,,,,,,,,,,,,,,,,,,,,,,,,,,,,,,,,,,,,,,,,,
,,,,,,6131de3102b54b21bccdc7f7,62bbfa3b5d8e00a17248ed24,2022-06-29_09h09.05.789,Colour_Asymmetry_Pilot,2022.1.3,Win32,59.95203837,62bbe60bf3d75ef465d3e404,0,42,42,122,1,twoone,,,,,,,,,,,,,,,,,,,,,,,,,,,,,,,,,,,,,,,,,,,,,,,,,,,,,,,,,,,,,,,,,,,,,,,,,,,,,,,,,,,,,,,,,,,,,,,,,,,,,,,,,,,,,,,,,,,,,,,,,,,,,,,,,,,,,,,,,,,,,,,,,,,,,,,,
,,,,,,6131de3102b54b21bccdc7f7,62bbfa3b5d8e00a17248ed24,2022-06-29_09h09.05.789,Colour_Asymmetry_Pilot,2022.1.3,Win32,59.95203837,62bbe60bf3d75ef465d3e404,0,43,43,154,1,twoone,,,,,,,,,,,,,,,,,,,,,,,,,,,,,,,,,,,,,,,,,,,,,,,,,,,,,,,,,,,,,,,,,,,,,,,,,,,,,,,,,,,,,,,,,,,,,,,,,,,,,,,,,,,,,,,,,,,,,,,,,,,,,,,,,,,,,,,,,,,,,,,,,,,,,,,,
,,,,,,6131de3102b54b21bccdc7f7,62bbfa3b5d8e00a17248ed24,2022-06-29_09h09.05.789,Colour_Asymmetry_Pilot,2022.1.3,Win32,59.95203837,62bbe60bf3d75ef465d3e404,0,44,44,123,1,twofour,,,,,,,,,,,,,,,,,,,,,,,,,,,,,,,,,,,,,,,,,,,,,,,,,,,,,,,,,,,,,,,,,,,,,,,,,,,,,,,,,,,,,,,,,,,,,,,,,,,,,,,,,,,,,,,,,,,,,,,,,,,,,,,,,,,,,,,,,,,,,,,,,,,,,,,,
,,,,,,6131de3102b54b21bccdc7f7,62bbfa3b5d8e00a17248ed24,2022-06-29_09h09.05.789,Colour_Asymmetry_Pilot,2022.1.3,Win32,59.95203837,62bbe60bf3d75ef465d3e404,0,45,45,16,1,onetwo,,,,,,,,,,,,,,,,,,,,,,,,,,,,,,,,,,,,,,,,,,,,,,,,,,,,,,,,,,,,,,,,,,,,,,,,,,,,,,,,,,,,,,,,,,,,,,,,,,,,,,,,,,,,,,,,,,,,,,,,,,,,,,,,,,,,,,,,,,,,,,,,,,,,,,,,
,,,,,,6131de3102b54b21bccdc7f7,62bbfa3b5d8e00a17248ed24,2022-06-29_09h09.05.789,Colour_Asymmetry_Pilot,2022.1.3,Win32,59.95203837,62bbe60bf3d75ef465d3e404,0,46,46,118,1,fourtwo,,,,,,,,,,,,,,,,,,,,,,,,,,,,,,,,,,,,,,,,,,,,,,,,,,,,,,,,,,,,,,,,,,,,,,,,,,,,,,,,,,,,,,,,,,,,,,,,,,,,,,,,,,,,,,,,,,,,,,,,,,,,,,,,,,,,,,,,,,,,,,,,,,,,,,,,
,,,,,,6131de3102b54b21bccdc7f7,62bbfa3b5d8e00a17248ed24,2022-06-29_09h09.05.789,Colour_Asymmetry_Pilot,2022.1.3,Win32,59.95203837,62bbe60bf3d75ef465d3e404,0,47,47,56,1,onetwo,,,,,,,,,,,,,,,,,,,,,,,,,,,,,,,,,,,,,,,,,,,,,,,,,,,,,,,,,,,,,,,,,,,,,,,,,,,,,,,,,,,,,,,,,,,,,,,,,,,,,,,,,,,,,,,,,,,,,,,,,,,,,,,,,,,,,,,,,,,,,,,,,,,,,,,,
,,,,,,6131de3102b54b21bccdc7f7,62bbfa3b5d8e00a17248ed24,2022-06-29_09h09.05.789,Colour_Asymmetry_Pilot,2022.1.3,Win32,59.95203837,62bbe60bf3d75ef465d3e404,0,48,48,117,1,threefour,,,,,,,,,,,,,,,,,,,,,,,,,,,,,,,,,,,,,,,,,,,,,,,,,,,,,,,,,,,,,,,,,,,,,,,,,,,,,,,,,,,,,,,,,,,,,,,,,,,,,,,,,,,,,,,,,,,,,,,,,,,,,,,,,,,,,,,,,,,,,,,,,,,,,,,,
,,,,,,6131de3102b54b21bccdc7f7,62bbfa3b5d8e00a17248ed24,2022-06-29_09h09.05.789,Colour_Asymmetry_Pilot,2022.1.3,Win32,59.95203837,62bbe60bf3d75ef465d3e404,0,49,49,74,1,twoone,,,,,,,,,,,,,,,,,,,,,,,,,,,,,,,,,,,,,,,,,,,,,,,,,,,,,,,,,,,,,,,,,,,,,,,,,,,,,,,,,,,,,,,,,,,,,,,,,,,,,,,,,,,,,,,,,,,,,,,,,,,,,,,,,,,,,,,,,,,,,,,,,,,,,,,,
,,,,,,6131de3102b54b21bccdc7f7,62bbfa3b5d8e00a17248ed24,2022-06-29_09h09.05.789,Colour_Asymmetry_Pilot,2022.1.3,Win32,59.95203837,62bbe60bf3d75ef465d3e404,0,50,50,69,1,threefour,,,,,,,,,,,,,,,,,,,,,,,,,,,,,,,,,,,,,,,,,,,,,,,,,,,,,,,,,,,,,,,,,,,,,,,,,,,,,,,,,,,,,,,,,,,,,,,,,,,,,,,,,,,,,,,,,,,,,,,,,,,,,,,,,,,,,,,,,,,,,,,,,,,,,,,,
,,,,,,6131de3102b54b21bccdc7f7,62bbfa3b5d8e00a17248ed24,2022-06-29_09h09.05.789,Colour_Asymmetry_Pilot,2022.1.3,Win32,59.95203837,62bbe60bf3d75ef465d3e404,0,51,51,62,1,fourtwo,,,,,,,,,,,,,,,,,,,,,,,,,,,,,,,,,,,,,,,,,,,,,,,,,,,,,,,,,,,,,,,,,,,,,,,,,,,,,,,,,,,,,,,,,,,,,,,,,,,,,,,,,,,,,,,,,,,,,,,,,,,,,,,,,,,,,,,,,,,,,,,,,,,,,,,,
,,,,,,6131de3102b54b21bccdc7f7,62bbfa3b5d8e00a17248ed24,2022-06-29_09h09.05.789,Colour_Asymmetry_Pilot,2022.1.3,Win32,59.95203837,62bbe60bf3d75ef465d3e404,0,52,52,95,1,fourthree,,,,,,,,,,,,,,,,,,,,,,,,,,,,,,,,,,,,,,,,,,,,,,,,,,,,,,,,,,,,,,,,,,,,,,,,,,,,,,,,,,,,,,,,,,,,,,,,,,,,,,,,,,,,,,,,,,,,,,,,,,,,,,,,,,,,,,,,,,,,,,,,,,,,,,,,
,,,,,,6131de3102b54b21bccdc7f7,62bbfa3b5d8e00a17248ed24,2022-06-29_09h09.05.789,Colour_Asymmetry_Pilot,2022.1.3,Win32,59.95203837,62bbe60bf3d75ef465d3e404,0,53,53,131,1,twofour,,,,,,,,,,,,,,,,,,,,,,,,,,,,,,,,,,,,,,,,,,,,,,,,,,,,,,,,,,,,,,,,,,,,,,,,,,,,,,,,,,,,,,,,,,,,,,,,,,,,,,,,,,,,,,,,,,,,,,,,,,,,,,,,,,,,,,,,,,,,,,,,,,,,,,,,
,,,,,,6131de3102b54b21bccdc7f7,62bbfa3b5d8e00a17248ed24,2022-06-29_09h09.05.789,Colour_Asymmetry_Pilot,2022.1.3,Win32,59.95203837,62bbe60bf3d75ef465d3e404,0,54,54,22,1,fourtwo,,,,,,,,,,,,,,,,,,,,,,,,,,,,,,,,,,,,,,,,,,,,,,,,,,,,,,,,,,,,,,,,,,,,,,,,,,,,,,,,,,,,,,,,,,,,,,,,,,,,,,,,,,,,,,,,,,,,,,,,,,,,,,,,,,,,,,,,,,,,,,,,,,,,,,,,
,,,,,,6131de3102b54b21bccdc7f7,62bbfa3b5d8e00a17248ed24,2022-06-29_09h09.05.789,Colour_Asymmetry_Pilot,2022.1.3,Win32,59.95203837,62bbe60bf3d75ef465d3e404,0,55,55,143,1,fourthree,,,,,,,,,,,,,,,,,,,,,,,,,,,,,,,,,,,,,,,,,,,,,,,,,,,,,,,,,,,,,,,,,,,,,,,,,,,,,,,,,,,,,,,,,,,,,,,,,,,,,,,,,,,,,,,,,,,,,,,,,,,,,,,,,,,,,,,,,,,,,,,,,,,,,,,,
,,,,,,6131de3102b54b21bccdc7f7,62bbfa3b5d8e00a17248ed24,2022-06-29_09h09.05.789,Colour_Asymmetry_Pilot,2022.1.3,Win32,59.95203837,62bbe60bf3d75ef465d3e404,0,56,56,29,1,threefour,,,,,,,,,,,,,,,,,,,,,,,,,,,,,,,,,,,,,,,,,,,,,,,,,,,,,,,,,,,,,,,,,,,,,,,,,,,,,,,,,,,,,,,,,,,,,,,,,,,,,,,,,,,,,,,,,,,,,,,,,,,,,,,,,,,,,,,,,,,,,,,,,,,,,,,,
,,,,,,6131de3102b54b21bccdc7f7,62bbfa3b5d8e00a17248ed24,2022-06-29_09h09.05.789,Colour_Asymmetry_Pilot,2022.1.3,Win32,59.95203837,62bbe60bf3d75ef465d3e404,0,57,57,68,1,threeone,,,,,,,,,,,,,,,,,,,,,,,,,,,,,,,,,,,,,,,,,,,,,,,,,,,,,,,,,,,,,,,,,,,,,,,,,,,,,,,,,,,,,,,,,,,,,,,,,,,,,,,,,,,,,,,,,,,,,,,,,,,,,,,,,,,,,,,,,,,,,,,,,,,,,,,,
,,,,,,6131de3102b54b21bccdc7f7,62bbfa3b5d8e00a17248ed24,2022-06-29_09h09.05.789,Colour_Asymmetry_Pilot,2022.1.3,Win32,59.95203837,62bbe60bf3d75ef465d3e404,0,58,58,142,1,fourtwo,,,,,,,,,,,,,,,,,,,,,,,,,,,,,,,,,,,,,,,,,,,,,,,,,,,,,,,,,,,,,,,,,,,,,,,,,,,,,,,,,,,,,,,,,,,,,,,,,,,,,,,,,,,,,,,,,,,,,,,,,,,,,,,,,,,,,,,,,,,,,,,,,,,,,,,,
,,,,,,6131de3102b54b21bccdc7f7,62bbfa3b5d8e00a17248ed24,2022-06-29_09h09.05.789,Colour_Asymmetry_Pilot,2022.1.3,Win32,59.95203837,62bbe60bf3d75ef465d3e404,0,59,59,30,1,fourtwo,,,,,,,,,,,,,,,,,,,,,,,,,,,,,,,,,,,,,,,,,,,,,,,,,,,,,,,,,,,,,,,,,,,,,,,,,,,,,,,,,,,,,,,,,,,,,,,,,,,,,,,,,,,,,,,,,,,,,,,,,,,,,,,,,,,,,,,,,,,,,,,,,,,,,,,,
,,,,,,6131de3102b54b21bccdc7f7,62bbfa3b5d8e00a17248ed24,2022-06-29_09h09.05.789,Colour_Asymmetry_Pilot,2022.1.3,Win32,59.95203837,62bbe60bf3d75ef465d3e404,0,60,60,40,1,onetwo,,,,,,,,,,,,,,,,,,,,,,,,,,,,,,,,,,,,,,,,,,,,,,,,,,,,,,,,,,,,,,,,,,,,,,,,,,,,,,,,,,,,,,,,,,,,,,,,,,,,,,,,,,,,,,,,,,,,,,,,,,,,,,,,,,,,,,,,,,,,,,,,,,,,,,,,
,,,,,,6131de3102b54b21bccdc7f7,62bbfa3b5d8e00a17248ed24,2022-06-29_09h09.05.789,Colour_Asymmetry_Pilot,2022.1.3,Win32,59.95203837,62bbe60bf3d75ef465d3e404,0,61,61,147,1,twofour,,,,,,,,,,,,,,,,,,,,,,,,,,,,,,,,,,,,,,,,,,,,,,,,,,,,,,,,,,,,,,,,,,,,,,,,,,,,,,,,,,,,,,,,,,,,,,,,,,,,,,,,,,,,,,,,,,,,,,,,,,,,,,,,,,,,,,,,,,,,,,,,,,,,,,,,
,,,,,,6131de3102b54b21bccdc7f7,62bbfa3b5d8e00a17248ed24,2022-06-29_09h09.05.789,Colour_Asymmetry_Pilot,2022.1.3,Win32,59.95203837,62bbe60bf3d75ef465d3e404,0,62,62,92,1,threeone,,,,,,,,,,,,,,,,,,,,,,,,,,,,,,,,,,,,,,,,,,,,,,,,,,,,,,,,,,,,,,,,,,,,,,,,,,,,,,,,,,,,,,,,,,,,,,,,,,,,,,,,,,,,,,,,,,,,,,,,,,,,,,,,,,,,,,,,,,,,,,,,,,,,,,,,
,,,,,,6131de3102b54b21bccdc7f7,62bbfa3b5d8e00a17248ed24,2022-06-29_09h09.05.789,Colour_Asymmetry_Pilot,2022.1.3,Win32,59.95203837,62bbe60bf3d75ef465d3e404,0,63,63,110,1,fourtwo,,,,,,,,,,,,,,,,,,,,,,,,,,,,,,,,,,,,,,,,,,,,,,,,,,,,,,,,,,,,,,,,,,,,,,,,,,,,,,,,,,,,,,,,,,,,,,,,,,,,,,,,,,,,,,,,,,,,,,,,,,,,,,,,,,,,,,,,,,,,,,,,,,,,,,,,
,,,,,,6131de3102b54b21bccdc7f7,62bbfa3b5d8e00a17248ed24,2022-06-29_09h09.05.789,Colour_Asymmetry_Pilot,2022.1.3,Win32,59.95203837,62bbe60bf3d75ef465d3e404,0,64,64,24,1,onetwo,,,,,,,,,,,,,,,,,,,,,,,,,,,,,,,,,,,,,,,,,,,,,,,,,,,,,,,,,,,,,,,,,,,,,,,,,,,,,,,,,,,,,,,,,,,,,,,,,,,,,,,,,,,,,,,,,,,,,,,,,,,,,,,,,,,,,,,,,,,,,,,,,,,,,,,,
,,,,,,6131de3102b54b21bccdc7f7,62bbfa3b5d8e00a17248ed24,2022-06-29_09h09.05.789,Colour_Asymmetry_Pilot,2022.1.3,Win32,59.95203837,62bbe60bf3d75ef465d3e404,0,65,65,37,1,threefour,,,,,,,,,,,,,,,,,,,,,,,,,,,,,,,,,,,,,,,,,,,,,,,,,,,,,,,,,,,,,,,,,,,,,,,,,,,,,,,,,,,,,,,,,,,,,,,,,,,,,,,,,,,,,,,,,,,,,,,,,,,,,,,,,,,,,,,,,,,,,,,,,,,,,,,,
,,,,,,6131de3102b54b21bccdc7f7,62bbfa3b5d8e00a17248ed24,2022-06-29_09h09.05.789,Colour_Asymmetry_Pilot,2022.1.3,Win32,59.95203837,62bbe60bf3d75ef465d3e404,0,66,66,21,1,threefour,,,,,,,,,,,,,,,,,,,,,,,,,,,,,,,,,,,,,,,,,,,,,,,,,,,,,,,,,,,,,,,,,,,,,,,,,,,,,,,,,,,,,,,,,,,,,,,,,,,,,,,,,,,,,,,,,,,,,,,,,,,,,,,,,,,,,,,,,,,,,,,,,,,,,,,,
,,,,,,6131de3102b54b21bccdc7f7,62bbfa3b5d8e00a17248ed24,2022-06-29_09h09.05.789,Colour_Asymmetry_Pilot,2022.1.3,Win32,59.95203837,62bbe60bf3d75ef465d3e404,0,67,67,134,1,fourtwo,,,,,,,,,,,,,,,,,,,,,,,,,,,,,,,,,,,,,,,,,,,,,,,,,,,,,,,,,,,,,,,,,,,,,,,,,,,,,,,,,,,,,,,,,,,,,,,,,,,,,,,,,,,,,,,,,,,,,,,,,,,,,,,,,,,,,,,,,,,,,,,,,,,,,,,,
,,,,,,6131de3102b54b21bccdc7f7,62bbfa3b5d8e00a17248ed24,2022-06-29_09h09.05.789,Colour_Asymmetry_Pilot,2022.1.3,Win32,59.95203837,62bbe60bf3d75ef465d3e404,0,68,68,63,1,fourthree,,,,,,,,,,,,,,,,,,,,,,,,,,,,,,,,,,,,,,,,,,,,,,,,,,,,,,,,,,,,,,,,,,,,,,,,,,,,,,,,,,,,,,,,,,,,,,,,,,,,,,,,,,,,,,,,,,,,,,,,,,,,,,,,,,,,,,,,,,,,,,,,,,,,,,,,
,,,,,,6131de3102b54b21bccdc7f7,62bbfa3b5d8e00a17248ed24,2022-06-29_09h09.05.789,Colour_Asymmetry_Pilot,2022.1.3,Win32,59.95203837,62bbe60bf3d75ef465d3e404,0,69,69,86,1,fourtwo,,,,,,,,,,,,,,,,,,,,,,,,,,,,,,,,,,,,,,,,,,,,,,,,,,,,,,,,,,,,,,,,,,,,,,,,,,,,,,,,,,,,,,,,,,,,,,,,,,,,,,,,,,,,,,,,,,,,,,,,,,,,,,,,,,,,,,,,,,,,,,,,,,,,,,,,
,,,,,,6131de3102b54b21bccdc7f7,62bbfa3b5d8e00a17248ed24,2022-06-29_09h09.05.789,Colour_Asymmetry_Pilot,2022.1.3,Win32,59.95203837,62bbe60bf3d75ef465d3e404,0,70,70,50,1,twoone,,,,,,,,,,,,,,,,,,,,,,,,,,,,,,,,,,,,,,,,,,,,,,,,,,,,,,,,,,,,,,,,,,,,,,,,,,,,,,,,,,,,,,,,,,,,,,,,,,,,,,,,,,,,,,,,,,,,,,,,,,,,,,,,,,,,,,,,,,,,,,,,,,,,,,,,
,,,,,,6131de3102b54b21bccdc7f7,62bbfa3b5d8e00a17248ed24,2022-06-29_09h09.05.789,Colour_Asymmetry_Pilot,2022.1.3,Win32,59.95203837,62bbe60bf3d75ef465d3e404,0,71,71,8,1,onetwo,,,,,,,,,,,,,,,,,,,,,,,,,,,,,,,,,,,,,,,,,,,,,,,,,,,,,,,,,,,,,,,,,,,,,,,,,,,,,,,,,,,,,,,,,,,,,,,,,,,,,,,,,,,,,,,,,,,,,,,,,,,,,,,,,,,,,,,,,,,,,,,,,,,,,,,,
,,,,,,6131de3102b54b21bccdc7f7,62bbfa3b5d8e00a17248ed24,2022-06-29_09h09.05.789,Colour_Asymmetry_Pilot,2022.1.3,Win32,59.95203837,62bbe60bf3d75ef465d3e404,0,72,72,44,1,threeone,,,,,,,,,,,,,,,,,,,,,,,,,,,,,,,,,,,,,,,,,,,,,,,,,,,,,,,,,,,,,,,,,,,,,,,,,,,,,,,,,,,,,,,,,,,,,,,,,,,,,,,,,,,,,,,,,,,,,,,,,,,,,,,,,,,,,,,,,,,,,,,,,,,,,,,,
,,,,,,6131de3102b54b21bccdc7f7,62bbfa3b5d8e00a17248ed24,2022-06-29_09h09.05.789,Colour_Asymmetry_Pilot,2022.1.3,Win32,59.95203837,62bbe60bf3d75ef465d3e404,0,73,73,54,1,fourtwo,,,,,,,,,,,,,,,,,,,,,,,,,,,,,,,,,,,,,,,,,,,,,,,,,,,,,,,,,,,,,,,,,,,,,,,,,,,,,,,,,,,,,,,,,,,,,,,,,,,,,,,,,,,,,,,,,,,,,,,,,,,,,,,,,,,,,,,,,,,,,,,,,,,,,,,,
,,,,,,6131de3102b54b21bccdc7f7,62bbfa3b5d8e00a17248ed24,2022-06-29_09h09.05.789,Colour_Asymmetry_Pilot,2022.1.3,Win32,59.95203837,62bbe60bf3d75ef465d3e404,0,74,74,114,1,twoone,,,,,,,,,,,,,,,,,,,,,,,,,,,,,,,,,,,,,,,,,,,,,,,,,,,,,,,,,,,,,,,,,,,,,,,,,,,,,,,,,,,,,,,,,,,,,,,,,,,,,,,,,,,,,,,,,,,,,,,,,,,,,,,,,,,,,,,,,,,,,,,,,,,,,,,,
,,,,,,6131de3102b54b21bccdc7f7,62bbfa3b5d8e00a17248ed24,2022-06-29_09h09.05.789,Colour_Asymmetry_Pilot,2022.1.3,Win32,59.95203837,62bbe60bf3d75ef465d3e404,0,75,75,120,1,onetwo,,,,,,,,,,,,,,,,,,,,,,,,,,,,,,,,,,,,,,,,,,,,,,,,,,,,,,,,,,,,,,,,,,,,,,,,,,,,,,,,,,,,,,,,,,,,,,,,,,,,,,,,,,,,,,,,,,,,,,,,,,,,,,,,,,,,,,,,,,,,,,,,,,,,,,,,
,,,,,,6131de3102b54b21bccdc7f7,62bbfa3b5d8e00a17248ed24,2022-06-29_09h09.05.789,Colour_Asymmetry_Pilot,2022.1.3,Win32,59.95203837,62bbe60bf3d75ef465d3e404,0,76,76,34,1,twoone,,,,,,,,,,,,,,,,,,,,,,,,,,,,,,,,,,,,,,,,,,,,,,,,,,,,,,,,,,,,,,,,,,,,,,,,,,,,,,,,,,,,,,,,,,,,,,,,,,,,,,,,,,,,,,,,,,,,,,,,,,,,,,,,,,,,,,,,,,,,,,,,,,,,,,,,
,,,,,,6131de3102b54b21bccdc7f7,62bbfa3b5d8e00a17248ed24,2022-06-29_09h09.05.789,Colour_Asymmetry_Pilot,2022.1.3,Win32,59.95203837,62bbe60bf3d75ef465d3e404,0,77,77,41,1,onethree,,,,,,,,,,,,,,,,,,,,,,,,,,,,,,,,,,,,,,,,,,,,,,,,,,,,,,,,,,,,,,,,,,,,,,,,,,,,,,,,,,,,,,,,,,,,,,,,,,,,,,,,,,,,,,,,,,,,,,,,,,,,,,,,,,,,,,,,,,,,,,,,,,,,,,,,
,,,,,,6131de3102b54b21bccdc7f7,62bbfa3b5d8e00a17248ed24,2022-06-29_09h09.05.789,Colour_Asymmetry_Pilot,2022.1.3,Win32,59.95203837,62bbe60bf3d75ef465d3e404,0,78,78,47,1,fourthree,,,,,,,,,,,,,,,,,,,,,,,,,,,,,,,,,,,,,,,,,,,,,,,,,,,,,,,,,,,,,,,,,,,,,,,,,,,,,,,,,,,,,,,,,,,,,,,,,,,,,,,,,,,,,,,,,,,,,,,,,,,,,,,,,,,,,,,,,,,,,,,,,,,,,,,,
,,,,,,6131de3102b54b21bccdc7f7,62bbfa3b5d8e00a17248ed24,2022-06-29_09h09.05.789,Colour_Asymmetry_Pilot,2022.1.3,Win32,59.95203837,62bbe60bf3d75ef465d3e404,0,79,79,105,1,onethree,,,,,,,,,,,,,,,,,,,,,,,,,,,,,,,,,,,,,,,,,,,,,,,,,,,,,,,,,,,,,,,,,,,,,,,,,,,,,,,,,,,,,,,,,,,,,,,,,,,,,,,,,,,,,,,,,,,,,,,,,,,,,,,,,,,,,,,,,,,,,,,,,,,,,,,,
,,,,,,6131de3102b54b21bccdc7f7,62bbfa3b5d8e00a17248ed24,2022-06-29_09h09.05.789,Colour_Asymmetry_Pilot,2022.1.3,Win32,59.95203837,62bbe60bf3d75ef465d3e404,0,80,80,6,1,fourtwo,,,,,,,,,,,,,,,,,,,,,,,,,,,,,,,,,,,,,,,,,,,,,,,,,,,,,,,,,,,,,,,,,,,,,,,,,,,,,,,,,,,,,,,,,,,,,,,,,,,,,,,,,,,,,,,,,,,,,,,,,,,,,,,,,,,,,,,,,,,,,,,,,,,,,,,,
,,,,,,6131de3102b54b21bccdc7f7,62bbfa3b5d8e00a17248ed24,2022-06-29_09h09.05.789,Colour_Asymmetry_Pilot,2022.1.3,Win32,59.95203837,62bbe60bf3d75ef465d3e404,0,81,81,140,1,threeone,,,,,,,,,,,,,,,,,,,,,,,,,,,,,,,,,,,,,,,,,,,,,,,,,,,,,,,,,,,,,,,,,,,,,,,,,,,,,,,,,,,,,,,,,,,,,,,,,,,,,,,,,,,,,,,,,,,,,,,,,,,,,,,,,,,,,,,,,,,,,,,,,,,,,,,,
,,,,,,6131de3102b54b21bccdc7f7,62bbfa3b5d8e00a17248ed24,2022-06-29_09h09.05.789,Colour_Asymmetry_Pilot,2022.1.3,Win32,59.95203837,62bbe60bf3d75ef465d3e404,0,82,82,133,1,threefour,,,,,,,,,,,,,,,,,,,,,,,,,,,,,,,,,,,,,,,,,,,,,,,,,,,,,,,,,,,,,,,,,,,,,,,,,,,,,,,,,,,,,,,,,,,,,,,,,,,,,,,,,,,,,,,,,,,,,,,,,,,,,,,,,,,,,,,,,,,,,,,,,,,,,,,,
,,,,,,6131de3102b54b21bccdc7f7,62bbfa3b5d8e00a17248ed24,2022-06-29_09h09.05.789,Colour_Asymmetry_Pilot,2022.1.3,Win32,59.95203837,62bbe60bf3d75ef465d3e404,0,83,83,11,1,twofour,,,,,,,,,,,,,,,,,,,,,,,,,,,,,,,,,,,,,,,,,,,,,,,,,,,,,,,,,,,,,,,,,,,,,,,,,,,,,,,,,,,,,,,,,,,,,,,,,,,,,,,,,,,,,,,,,,,,,,,,,,,,,,,,,,,,,,,,,,,,,,,,,,,,,,,,
,,,,,,6131de3102b54b21bccdc7f7,62bbfa3b5d8e00a17248ed24,2022-06-29_09h09.05.789,Colour_Asymmetry_Pilot,2022.1.3,Win32,59.95203837,62bbe60bf3d75ef465d3e404,0,84,84,10,1,twoone,,,,,,,,,,,,,,,,,,,,,,,,,,,,,,,,,,,,,,,,,,,,,,,,,,,,,,,,,,,,,,,,,,,,,,,,,,,,,,,,,,,,,,,,,,,,,,,,,,,,,,,,,,,,,,,,,,,,,,,,,,,,,,,,,,,,,,,,,,,,,,,,,,,,,,,,
,,,,,,6131de3102b54b21bccdc7f7,62bbfa3b5d8e00a17248ed24,2022-06-29_09h09.05.789,Colour_Asymmetry_Pilot,2022.1.3,Win32,59.95203837,62bbe60bf3d75ef465d3e404,0,85,85,59,1,twofour,,,,,,,,,,,,,,,,,,,,,,,,,,,,,,,,,,,,,,,,,,,,,,,,,,,,,,,,,,,,,,,,,,,,,,,,,,,,,,,,,,,,,,,,,,,,,,,,,,,,,,,,,,,,,,,,,,,,,,,,,,,,,,,,,,,,,,,,,,,,,,,,,,,,,,,,
,,,,,,6131de3102b54b21bccdc7f7,62bbfa3b5d8e00a17248ed24,2022-06-29_09h09.05.789,Colour_Asymmetry_Pilot,2022.1.3,Win32,59.95203837,62bbe60bf3d75ef465d3e404,0,86,86,3,1,twofour,,,,,,,,,,,,,,,,,,,,,,,,,,,,,,,,,,,,,,,,,,,,,,,,,,,,,,,,,,,,,,,,,,,,,,,,,,,,,,,,,,,,,,,,,,,,,,,,,,,,,,,,,,,,,,,,,,,,,,,,,,,,,,,,,,,,,,,,,,,,,,,,,,,,,,,,
,,,,,,6131de3102b54b21bccdc7f7,62bbfa3b5d8e00a17248ed24,2022-06-29_09h09.05.789,Colour_Asymmetry_Pilot,2022.1.3,Win32,59.95203837,62bbe60bf3d75ef465d3e404,0,87,87,28,1,threeone,,,,,,,,,,,,,,,,,,,,,,,,,,,,,,,,,,,,,,,,,,,,,,,,,,,,,,,,,,,,,,,,,,,,,,,,,,,,,,,,,,,,,,,,,,,,,,,,,,,,,,,,,,,,,,,,,,,,,,,,,,,,,,,,,,,,,,,,,,,,,,,,,,,,,,,,
,,,,,,6131de3102b54b21bccdc7f7,62bbfa3b5d8e00a17248ed24,2022-06-29_09h09.05.789,Colour_Asymmetry_Pilot,2022.1.3,Win32,59.95203837,62bbe60bf3d75ef465d3e404,0,88,88,64,1,onetwo,,,,,,,,,,,,,,,,,,,,,,,,,,,,,,,,,,,,,,,,,,,,,,,,,,,,,,,,,,,,,,,,,,,,,,,,,,,,,,,,,,,,,,,,,,,,,,,,,,,,,,,,,,,,,,,,,,,,,,,,,,,,,,,,,,,,,,,,,,,,,,,,,,,,,,,,
,,,,,,6131de3102b54b21bccdc7f7,62bbfa3b5d8e00a17248ed24,2022-06-29_09h09.05.789,Colour_Asymmetry_Pilot,2022.1.3,Win32,59.95203837,62bbe60bf3d75ef465d3e404,0,89,89,97,1,onethree,,,,,,,,,,,,,,,,,,,,,,,,,,,,,,,,,,,,,,,,,,,,,,,,,,,,,,,,,,,,,,,,,,,,,,,,,,,,,,,,,,,,,,,,,,,,,,,,,,,,,,,,,,,,,,,,,,,,,,,,,,,,,,,,,,,,,,,,,,,,,,,,,,,,,,,,
,,,,,,6131de3102b54b21bccdc7f7,62bbfa3b5d8e00a17248ed24,2022-06-29_09h09.05.789,Colour_Asymmetry_Pilot,2022.1.3,Win32,59.95203837,62bbe60bf3d75ef465d3e404,0,90,90,18,1,twoone,,,,,,,,,,,,,,,,,,,,,,,,,,,,,,,,,,,,,,,,,,,,,,,,,,,,,,,,,,,,,,,,,,,,,,,,,,,,,,,,,,,,,,,,,,,,,,,,,,,,,,,,,,,,,,,,,,,,,,,,,,,,,,,,,,,,,,,,,,,,,,,,,,,,,,,,
,,,,,,6131de3102b54b21bccdc7f7,62bbfa3b5d8e00a17248ed24,2022-06-29_09h09.05.789,Colour_Asymmetry_Pilot,2022.1.3,Win32,59.95203837,62bbe60bf3d75ef465d3e404,0,91,91,42,1,twoone,,,,,,,,,,,,,,,,,,,,,,,,,,,,,,,,,,,,,,,,,,,,,,,,,,,,,,,,,,,,,,,,,,,,,,,,,,,,,,,,,,,,,,,,,,,,,,,,,,,,,,,,,,,,,,,,,,,,,,,,,,,,,,,,,,,,,,,,,,,,,,,,,,,,,,,,
,,,,,,6131de3102b54b21bccdc7f7,62bbfa3b5d8e00a17248ed24,2022-06-29_09h09.05.789,Colour_Asymmetry_Pilot,2022.1.3,Win32,59.95203837,62bbe60bf3d75ef465d3e404,0,92,92,160,1,onetwo,,,,,,,,,,,,,,,,,,,,,,,,,,,,,,,,,,,,,,,,,,,,,,,,,,,,,,,,,,,,,,,,,,,,,,,,,,,,,,,,,,,,,,,,,,,,,,,,,,,,,,,,,,,,,,,,,,,,,,,,,,,,,,,,,,,,,,,,,,,,,,,,,,,,,,,,
,,,,,,6131de3102b54b21bccdc7f7,62bbfa3b5d8e00a17248ed24,2022-06-29_09h09.05.789,Colour_Asymmetry_Pilot,2022.1.3,Win32,59.95203837,62bbe60bf3d75ef465d3e404,0,93,93,13,1,threefour,,,,,,,,,,,,,,,,,,,,,,,,,,,,,,,,,,,,,,,,,,,,,,,,,,,,,,,,,,,,,,,,,,,,,,,,,,,,,,,,,,,,,,,,,,,,,,,,,,,,,,,,,,,,,,,,,,,,,,,,,,,,,,,,,,,,,,,,,,,,,,,,,,,,,,,,
,,,,,,6131de3102b54b21bccdc7f7,62bbfa3b5d8e00a17248ed24,2022-06-29_09h09.05.789,Colour_Asymmetry_Pilot,2022.1.3,Win32,59.95203837,62bbe60bf3d75ef465d3e404,0,94,94,136,1,onetwo,,,,,,,,,,,,,,,,,,,,,,,,,,,,,,,,,,,,,,,,,,,,,,,,,,,,,,,,,,,,,,,,,,,,,,,,,,,,,,,,,,,,,,,,,,,,,,,,,,,,,,,,,,,,,,,,,,,,,,,,,,,,,,,,,,,,,,,,,,,,,,,,,,,,,,,,
,,,,,,6131de3102b54b21bccdc7f7,62bbfa3b5d8e00a17248ed24,2022-06-29_09h09.05.789,Colour_Asymmetry_Pilot,2022.1.3,Win32,59.95203837,62bbe60bf3d75ef465d3e404,0,95,95,159,1,fourthree,,,,,,,,,,,,,,,,,,,,,,,,,,,,,,,,,,,,,,,,,,,,,,,,,,,,,,,,,,,,,,,,,,,,,,,,,,,,,,,,,,,,,,,,,,,,,,,,,,,,,,,,,,,,,,,,,,,,,,,,,,,,,,,,,,,,,,,,,,,,,,,,,,,,,,,,
,,,,,,6131de3102b54b21bccdc7f7,62bbfa3b5d8e00a17248ed24,2022-06-29_09h09.05.789,Colour_Asymmetry_Pilot,2022.1.3,Win32,59.95203837,62bbe60bf3d75ef465d3e404,0,96,96,129,1,onethree,,,,,,,,,,,,,,,,,,,,,,,,,,,,,,,,,,,,,,,,,,,,,,,,,,,,,,,,,,,,,,,,,,,,,,,,,,,,,,,,,,,,,,,,,,,,,,,,,,,,,,,,,,,,,,,,,,,,,,,,,,,,,,,,,,,,,,,,,,,,,,,,,,,,,,,,
,,,,,,6131de3102b54b21bccdc7f7,62bbfa3b5d8e00a17248ed24,2022-06-29_09h09.05.789,Colour_Asymmetry_Pilot,2022.1.3,Win32,59.95203837,62bbe60bf3d75ef465d3e404,0,97,97,55,1,fourthree,,,,,,,,,,,,,,,,,,,,,,,,,,,,,,,,,,,,,,,,,,,,,,,,,,,,,,,,,,,,,,,,,,,,,,,,,,,,,,,,,,,,,,,,,,,,,,,,,,,,,,,,,,,,,,,,,,,,,,,,,,,,,,,,,,,,,,,,,,,,,,,,,,,,,,,,
,,,,,,6131de3102b54b21bccdc7f7,62bbfa3b5d8e00a17248ed24,2022-06-29_09h09.05.789,Colour_Asymmetry_Pilot,2022.1.3,Win32,59.95203837,62bbe60bf3d75ef465d3e404,0,98,98,148,1,threeone,,,,,,,,,,,,,,,,,,,,,,,,,,,,,,,,,,,,,,,,,,,,,,,,,,,,,,,,,,,,,,,,,,,,,,,,,,,,,,,,,,,,,,,,,,,,,,,,,,,,,,,,,,,,,,,,,,,,,,,,,,,,,,,,,,,,,,,,,,,,,,,,,,,,,,,,
,,,,,,6131de3102b54b21bccdc7f7,62bbfa3b5d8e00a17248ed24,2022-06-29_09h09.05.789,Colour_Asymmetry_Pilot,2022.1.3,Win32,59.95203837,62bbe60bf3d75ef465d3e404,0,99,99,65,1,onethree,,,,,,,,,,,,,,,,,,,,,,,,,,,,,,,,,,,,,,,,,,,,,,,,,,,,,,,,,,,,,,,,,,,,,,,,,,,,,,,,,,,,,,,,,,,,,,,,,,,,,,,,,,,,,,,,,,,,,,,,,,,,,,,,,,,,,,,,,,,,,,,,,,,,,,,,
,,,,,,6131de3102b54b21bccdc7f7,62bbfa3b5d8e00a17248ed24,2022-06-29_09h09.05.789,Colour_Asymmetry_Pilot,2022.1.3,Win32,59.95203837,62bbe60bf3d75ef465d3e404,0,100,100,127,1,fourthree,,,,,,,,,,,,,,,,,,,,,,,,,,,,,,,,,,,,,,,,,,,,,,,,,,,,,,,,,,,,,,,,,,,,,,,,,,,,,,,,,,,,,,,,,,,,,,,,,,,,,,,,,,,,,,,,,,,,,,,,,,,,,,,,,,,,,,,,,,,,,,,,,,,,,,,,
,,,,,,6131de3102b54b21bccdc7f7,62bbfa3b5d8e00a17248ed24,2022-06-29_09h09.05.789,Colour_Asymmetry_Pilot,2022.1.3,Win32,59.95203837,62bbe60bf3d75ef465d3e404,0,101,101,43,1,twofour,,,,,,,,,,,,,,,,,,,,,,,,,,,,,,,,,,,,,,,,,,,,,,,,,,,,,,,,,,,,,,,,,,,,,,,,,,,,,,,,,,,,,,,,,,,,,,,,,,,,,,,,,,,,,,,,,,,,,,,,,,,,,,,,,,,,,,,,,,,,,,,,,,,,,,,,
,,,,,,6131de3102b54b21bccdc7f7,62bbfa3b5d8e00a17248ed24,2022-06-29_09h09.05.789,Colour_Asymmetry_Pilot,2022.1.3,Win32,59.95203837,62bbe60bf3d75ef465d3e404,0,102,102,38,1,fourtwo,,,,,,,,,,,,,,,,,,,,,,,,,,,,,,,,,,,,,,,,,,,,,,,,,,,,,,,,,,,,,,,,,,,,,,,,,,,,,,,,,,,,,,,,,,,,,,,,,,,,,,,,,,,,,,,,,,,,,,,,,,,,,,,,,,,,,,,,,,,,,,,,,,,,,,,,
,,,,,,6131de3102b54b21bccdc7f7,62bbfa3b5d8e00a17248ed24,2022-06-29_09h09.05.789,Colour_Asymmetry_Pilot,2022.1.3,Win32,59.95203837,62bbe60bf3d75ef465d3e404,0,103,103,132,1,threeone,,,,,,,,,,,,,,,,,,,,,,,,,,,,,,,,,,,,,,,,,,,,,,,,,,,,,,,,,,,,,,,,,,,,,,,,,,,,,,,,,,,,,,,,,,,,,,,,,,,,,,,,,,,,,,,,,,,,,,,,,,,,,,,,,,,,,,,,,,,,,,,,,,,,,,,,
,,,,,,6131de3102b54b21bccdc7f7,62bbfa3b5d8e00a17248ed24,2022-06-29_09h09.05.789,Colour_Asymmetry_Pilot,2022.1.3,Win32,59.95203837,62bbe60bf3d75ef465d3e404,0,104,104,52,1,threeone,,,,,,,,,,,,,,,,,,,,,,,,,,,,,,,,,,,,,,,,,,,,,,,,,,,,,,,,,,,,,,,,,,,,,,,,,,,,,,,,,,,,,,,,,,,,,,,,,,,,,,,,,,,,,,,,,,,,,,,,,,,,,,,,,,,,,,,,,,,,,,,,,,,,,,,,
,,,,,,6131de3102b54b21bccdc7f7,62bbfa3b5d8e00a17248ed24,2022-06-29_09h09.05.789,Colour_Asymmetry_Pilot,2022.1.3,Win32,59.95203837,62bbe60bf3d75ef465d3e404,0,105,105,46,1,fourtwo,,,,,,,,,,,,,,,,,,,,,,,,,,,,,,,,,,,,,,,,,,,,,,,,,,,,,,,,,,,,,,,,,,,,,,,,,,,,,,,,,,,,,,,,,,,,,,,,,,,,,,,,,,,,,,,,,,,,,,,,,,,,,,,,,,,,,,,,,,,,,,,,,,,,,,,,
,,,,,,6131de3102b54b21bccdc7f7,62bbfa3b5d8e00a17248ed24,2022-06-29_09h09.05.789,Colour_Asymmetry_Pilot,2022.1.3,Win32,59.95203837,62bbe60bf3d75ef465d3e404,0,106,106,81,1,onethree,,,,,,,,,,,,,,,,,,,,,,,,,,,,,,,,,,,,,,,,,,,,,,,,,,,,,,,,,,,,,,,,,,,,,,,,,,,,,,,,,,,,,,,,,,,,,,,,,,,,,,,,,,,,,,,,,,,,,,,,,,,,,,,,,,,,,,,,,,,,,,,,,,,,,,,,
,,,,,,6131de3102b54b21bccdc7f7,62bbfa3b5d8e00a17248ed24,2022-06-29_09h09.05.789,Colour_Asymmetry_Pilot,2022.1.3,Win32,59.95203837,62bbe60bf3d75ef465d3e404,0,107,107,45,1,threefour,,,,,,,,,,,,,,,,,,,,,,,,,,,,,,,,,,,,,,,,,,,,,,,,,,,,,,,,,,,,,,,,,,,,,,,,,,,,,,,,,,,,,,,,,,,,,,,,,,,,,,,,,,,,,,,,,,,,,,,,,,,,,,,,,,,,,,,,,,,,,,,,,,,,,,,,
,,,,,,6131de3102b54b21bccdc7f7,62bbfa3b5d8e00a17248ed24,2022-06-29_09h09.05.789,Colour_Asymmetry_Pilot,2022.1.3,Win32,59.95203837,62bbe60bf3d75ef465d3e404,0,108,108,104,1,onetwo,,,,,,,,,,,,,,,,,,,,,,,,,,,,,,,,,,,,,,,,,,,,,,,,,,,,,,,,,,,,,,,,,,,,,,,,,,,,,,,,,,,,,,,,,,,,,,,,,,,,,,,,,,,,,,,,,,,,,,,,,,,,,,,,,,,,,,,,,,,,,,,,,,,,,,,,
,,,,,,6131de3102b54b21bccdc7f7,62bbfa3b5d8e00a17248ed24,2022-06-29_09h09.05.789,Colour_Asymmetry_Pilot,2022.1.3,Win32,59.95203837,62bbe60bf3d75ef465d3e404,0,109,109,153,1,onethree,,,,,,,,,,,,,,,,,,,,,,,,,,,,,,,,,,,,,,,,,,,,,,,,,,,,,,,,,,,,,,,,,,,,,,,,,,,,,,,,,,,,,,,,,,,,,,,,,,,,,,,,,,,,,,,,,,,,,,,,,,,,,,,,,,,,,,,,,,,,,,,,,,,,,,,,
,,,,,,6131de3102b54b21bccdc7f7,62bbfa3b5d8e00a17248ed24,2022-06-29_09h09.05.789,Colour_Asymmetry_Pilot,2022.1.3,Win32,59.95203837,62bbe60bf3d75ef465d3e404,0,110,110,102,1,fourtwo,,,,,,,,,,,,,,,,,,,,,,,,,,,,,,,,,,,,,,,,,,,,,,,,,,,,,,,,,,,,,,,,,,,,,,,,,,,,,,,,,,,,,,,,,,,,,,,,,,,,,,,,,,,,,,,,,,,,,,,,,,,,,,,,,,,,,,,,,,,,,,,,,,,,,,,,
,,,,,,6131de3102b54b21bccdc7f7,62bbfa3b5d8e00a17248ed24,2022-06-29_09h09.05.789,Colour_Asymmetry_Pilot,2022.1.3,Win32,59.95203837,62bbe60bf3d75ef465d3e404,0,111,111,144,1,onetwo,,,,,,,,,,,,,,,,,,,,,,,,,,,,,,,,,,,,,,,,,,,,,,,,,,,,,,,,,,,,,,,,,,,,,,,,,,,,,,,,,,,,,,,,,,,,,,,,,,,,,,,,,,,,,,,,,,,,,,,,,,,,,,,,,,,,,,,,,,,,,,,,,,,,,,,,
,,,,,,6131de3102b54b21bccdc7f7,62bbfa3b5d8e00a17248ed24,2022-06-29_09h09.05.789,Colour_Asymmetry_Pilot,2022.1.3,Win32,59.95203837,62bbe60bf3d75ef465d3e404,0,112,112,0,1,onetwo,,,,,,,,,,,,,,,,,,,,,,,,,,,,,,,,,,,,,,,,,,,,,,,,,,,,,,,,,,,,,,,,,,,,,,,,,,,,,,,,,,,,,,,,,,,,,,,,,,,,,,,,,,,,,,,,,,,,,,,,,,,,,,,,,,,,,,,,,,,,,,,,,,,,,,,,
,,,,,,6131de3102b54b21bccdc7f7,62bbfa3b5d8e00a17248ed24,2022-06-29_09h09.05.789,Colour_Asymmetry_Pilot,2022.1.3,Win32,59.95203837,62bbe60bf3d75ef465d3e404,0,113,113,88,1,onetwo,,,,,,,,,,,,,,,,,,,,,,,,,,,,,,,,,,,,,,,,,,,,,,,,,,,,,,,,,,,,,,,,,,,,,,,,,,,,,,,,,,,,,,,,,,,,,,,,,,,,,,,,,,,,,,,,,,,,,,,,,,,,,,,,,,,,,,,,,,,,,,,,,,,,,,,,
,,,,,,6131de3102b54b21bccdc7f7,62bbfa3b5d8e00a17248ed24,2022-06-29_09h09.05.789,Colour_Asymmetry_Pilot,2022.1.3,Win32,59.95203837,62bbe60bf3d75ef465d3e404,0,114,114,101,1,threefour,,,,,,,,,,,,,,,,,,,,,,,,,,,,,,,,,,,,,,,,,,,,,,,,,,,,,,,,,,,,,,,,,,,,,,,,,,,,,,,,,,,,,,,,,,,,,,,,,,,,,,,,,,,,,,,,,,,,,,,,,,,,,,,,,,,,,,,,,,,,,,,,,,,,,,,,
,,,,,,6131de3102b54b21bccdc7f7,62bbfa3b5d8e00a17248ed24,2022-06-29_09h09.05.789,Colour_Asymmetry_Pilot,2022.1.3,Win32,59.95203837,62bbe60bf3d75ef465d3e404,0,115,115,125,1,threefour,,,,,,,,,,,,,,,,,,,,,,,,,,,,,,,,,,,,,,,,,,,,,,,,,,,,,,,,,,,,,,,,,,,,,,,,,,,,,,,,,,,,,,,,,,,,,,,,,,,,,,,,,,,,,,,,,,,,,,,,,,,,,,,,,,,,,,,,,,,,,,,,,,,,,,,,
,,,,,,6131de3102b54b21bccdc7f7,62bbfa3b5d8e00a17248ed24,2022-06-29_09h09.05.789,Colour_Asymmetry_Pilot,2022.1.3,Win32,59.95203837,62bbe60bf3d75ef465d3e404,0,116,116,79,1,fourthree,,,,,,,,,,,,,,,,,,,,,,,,,,,,,,,,,,,,,,,,,,,,,,,,,,,,,,,,,,,,,,,,,,,,,,,,,,,,,,,,,,,,,,,,,,,,,,,,,,,,,,,,,,,,,,,,,,,,,,,,,,,,,,,,,,,,,,,,,,,,,,,,,,,,,,,,
,,,,,,6131de3102b54b21bccdc7f7,62bbfa3b5d8e00a17248ed24,2022-06-29_09h09.05.789,Colour_Asymmetry_Pilot,2022.1.3,Win32,59.95203837,62bbe60bf3d75ef465d3e404,0,117,117,116,1,threeone,,,,,,,,,,,,,,,,,,,,,,,,,,,,,,,,,,,,,,,,,,,,,,,,,,,,,,,,,,,,,,,,,,,,,,,,,,,,,,,,,,,,,,,,,,,,,,,,,,,,,,,,,,,,,,,,,,,,,,,,,,,,,,,,,,,,,,,,,,,,,,,,,,,,,,,,
,,,,,,6131de3102b54b21bccdc7f7,62bbfa3b5d8e00a17248ed24,2022-06-29_09h09.05.789,Colour_Asymmetry_Pilot,2022.1.3,Win32,59.95203837,62bbe60bf3d75ef465d3e404,0,118,118,130,1,twoone,,,,,,,,,,,,,,,,,,,,,,,,,,,,,,,,,,,,,,,,,,,,,,,,,,,,,,,,,,,,,,,,,,,,,,,,,,,,,,,,,,,,,,,,,,,,,,,,,,,,,,,,,,,,,,,,,,,,,,,,,,,,,,,,,,,,,,,,,,,,,,,,,,,,,,,,
,,,,,,6131de3102b54b21bccdc7f7,62bbfa3b5d8e00a17248ed24,2022-06-29_09h09.05.789,Colour_Asymmetry_Pilot,2022.1.3,Win32,59.95203837,62bbe60bf3d75ef465d3e404,0,119,119,9,1,onethree,,,,,,,,,,,,,,,,,,,,,,,,,,,,,,,,,,,,,,,,,,,,,,,,,,,,,,,,,,,,,,,,,,,,,,,,,,,,,,,,,,,,,,,,,,,,,,,,,,,,,,,,,,,,,,,,,,,,,,,,,,,,,,,,,,,,,,,,,,,,,,,,,,,,,,,,
,,,,,,6131de3102b54b21bccdc7f7,62bbfa3b5d8e00a17248ed24,2022-06-29_09h09.05.789,Colour_Asymmetry_Pilot,2022.1.3,Win32,59.95203837,62bbe60bf3d75ef465d3e404,0,120,120,82,1,twoone,,,,,,,,,,,,,,,,,,,,,,,,,,,,,,,,,,,,,,,,,,,,,,,,,,,,,,,,,,,,,,,,,,,,,,,,,,,,,,,,,,,,,,,,,,,,,,,,,,,,,,,,,,,,,,,,,,,,,,,,,,,,,,,,,,,,,,,,,,,,,,,,,,,,,,,,
,,,,,,6131de3102b54b21bccdc7f7,62bbfa3b5d8e00a17248ed24,2022-06-29_09h09.05.789,Colour_Asymmetry_Pilot,2022.1.3,Win32,59.95203837,62bbe60bf3d75ef465d3e404,0,121,121,137,1,onethree,,,,,,,,,,,,,,,,,,,,,,,,,,,,,,,,,,,,,,,,,,,,,,,,,,,,,,,,,,,,,,,,,,,,,,,,,,,,,,,,,,,,,,,,,,,,,,,,,,,,,,,,,,,,,,,,,,,,,,,,,,,,,,,,,,,,,,,,,,,,,,,,,,,,,,,,
,,,,,,6131de3102b54b21bccdc7f7,62bbfa3b5d8e00a17248ed24,2022-06-29_09h09.05.789,Colour_Asymmetry_Pilot,2022.1.3,Win32,59.95203837,62bbe60bf3d75ef465d3e404,0,122,122,70,1,fourtwo,,,,,,,,,,,,,,,,,,,,,,,,,,,,,,,,,,,,,,,,,,,,,,,,,,,,,,,,,,,,,,,,,,,,,,,,,,,,,,,,,,,,,,,,,,,,,,,,,,,,,,,,,,,,,,,,,,,,,,,,,,,,,,,,,,,,,,,,,,,,,,,,,,,,,,,,
,,,,,,6131de3102b54b21bccdc7f7,62bbfa3b5d8e00a17248ed24,2022-06-29_09h09.05.789,Colour_Asymmetry_Pilot,2022.1.3,Win32,59.95203837,62bbe60bf3d75ef465d3e404,0,123,123,124,1,threeone,,,,,,,,,,,,,,,,,,,,,,,,,,,,,,,,,,,,,,,,,,,,,,,,,,,,,,,,,,,,,,,,,,,,,,,,,,,,,,,,,,,,,,,,,,,,,,,,,,,,,,,,,,,,,,,,,,,,,,,,,,,,,,,,,,,,,,,,,,,,,,,,,,,,,,,,
,,,,,,6131de3102b54b21bccdc7f7,62bbfa3b5d8e00a17248ed24,2022-06-29_09h09.05.789,Colour_Asymmetry_Pilot,2022.1.3,Win32,59.95203837,62bbe60bf3d75ef465d3e404,0,124,124,96,1,onetwo,,,,,,,,,,,,,,,,,,,,,,,,,,,,,,,,,,,,,,,,,,,,,,,,,,,,,,,,,,,,,,,,,,,,,,,,,,,,,,,,,,,,,,,,,,,,,,,,,,,,,,,,,,,,,,,,,,,,,,,,,,,,,,,,,,,,,,,,,,,,,,,,,,,,,,,,
,,,,,,6131de3102b54b21bccdc7f7,62bbfa3b5d8e00a17248ed24,2022-06-29_09h09.05.789,Colour_Asymmetry_Pilot,2022.1.3,Win32,59.95203837,62bbe60bf3d75ef465d3e404,0,125,125,49,1,onethree,,,,,,,,,,,,,,,,,,,,,,,,,,,,,,,,,,,,,,,,,,,,,,,,,,,,,,,,,,,,,,,,,,,,,,,,,,,,,,,,,,,,,,,,,,,,,,,,,,,,,,,,,,,,,,,,,,,,,,,,,,,,,,,,,,,,,,,,,,,,,,,,,,,,,,,,
,,,,,,6131de3102b54b21bccdc7f7,62bbfa3b5d8e00a17248ed24,2022-06-29_09h09.05.789,Colour_Asymmetry_Pilot,2022.1.3,Win32,59.95203837,62bbe60bf3d75ef465d3e404,0,126,126,99,1,twofour,,,,,,,,,,,,,,,,,,,,,,,,,,,,,,,,,,,,,,,,,,,,,,,,,,,,,,,,,,,,,,,,,,,,,,,,,,,,,,,,,,,,,,,,,,,,,,,,,,,,,,,,,,,,,,,,,,,,,,,,,,,,,,,,,,,,,,,,,,,,,,,,,,,,,,,,
,,,,,,6131de3102b54b21bccdc7f7,62bbfa3b5d8e00a17248ed24,2022-06-29_09h09.05.789,Colour_Asymmetry_Pilot,2022.1.3,Win32,59.95203837,62bbe60bf3d75ef465d3e404,0,127,127,35,1,twofour,,,,,,,,,,,,,,,,,,,,,,,,,,,,,,,,,,,,,,,,,,,,,,,,,,,,,,,,,,,,,,,,,,,,,,,,,,,,,,,,,,,,,,,,,,,,,,,,,,,,,,,,,,,,,,,,,,,,,,,,,,,,,,,,,,,,,,,,,,,,,,,,,,,,,,,,
,,,,,,6131de3102b54b21bccdc7f7,62bbfa3b5d8e00a17248ed24,2022-06-29_09h09.05.789,Colour_Asymmetry_Pilot,2022.1.3,Win32,59.95203837,62bbe60bf3d75ef465d3e404,0,128,128,80,1,onetwo,,,,,,,,,,,,,,,,,,,,,,,,,,,,,,,,,,,,,,,,,,,,,,,,,,,,,,,,,,,,,,,,,,,,,,,,,,,,,,,,,,,,,,,,,,,,,,,,,,,,,,,,,,,,,,,,,,,,,,,,,,,,,,,,,,,,,,,,,,,,,,,,,,,,,,,,
,,,,,,6131de3102b54b21bccdc7f7,62bbfa3b5d8e00a17248ed24,2022-06-29_09h09.05.789,Colour_Asymmetry_Pilot,2022.1.3,Win32,59.95203837,62bbe60bf3d75ef465d3e404,0,129,129,145,1,onethree,,,,,,,,,,,,,,,,,,,,,,,,,,,,,,,,,,,,,,,,,,,,,,,,,,,,,,,,,,,,,,,,,,,,,,,,,,,,,,,,,,,,,,,,,,,,,,,,,,,,,,,,,,,,,,,,,,,,,,,,,,,,,,,,,,,,,,,,,,,,,,,,,,,,,,,,
,,,,,,6131de3102b54b21bccdc7f7,62bbfa3b5d8e00a17248ed24,2022-06-29_09h09.05.789,Colour_Asymmetry_Pilot,2022.1.3,Win32,59.95203837,62bbe60bf3d75ef465d3e404,0,130,130,77,1,threefour,,,,,,,,,,,,,,,,,,,,,,,,,,,,,,,,,,,,,,,,,,,,,,,,,,,,,,,,,,,,,,,,,,,,,,,,,,,,,,,,,,,,,,,,,,,,,,,,,,,,,,,,,,,,,,,,,,,,,,,,,,,,,,,,,,,,,,,,,,,,,,,,,,,,,,,,
,,,,,,6131de3102b54b21bccdc7f7,62bbfa3b5d8e00a17248ed24,2022-06-29_09h09.05.789,Colour_Asymmetry_Pilot,2022.1.3,Win32,59.95203837,62bbe60bf3d75ef465d3e404,0,131,131,26,1,twoone,,,,,,,,,,,,,,,,,,,,,,,,,,,,,,,,,,,,,,,,,,,,,,,,,,,,,,,,,,,,,,,,,,,,,,,,,,,,,,,,,,,,,,,,,,,,,,,,,,,,,,,,,,,,,,,,,,,,,,,,,,,,,,,,,,,,,,,,,,,,,,,,,,,,,,,,
,,,,,,6131de3102b54b21bccdc7f7,62bbfa3b5d8e00a17248ed24,2022-06-29_09h09.05.789,Colour_Asymmetry_Pilot,2022.1.3,Win32,59.95203837,62bbe60bf3d75ef465d3e404,0,132,132,31,1,fourthree,,,,,,,,,,,,,,,,,,,,,,,,,,,,,,,,,,,,,,,,,,,,,,,,,,,,,,,,,,,,,,,,,,,,,,,,,,,,,,,,,,,,,,,,,,,,,,,,,,,,,,,,,,,,,,,,,,,,,,,,,,,,,,,,,,,,,,,,,,,,,,,,,,,,,,,,
,,,,,,6131de3102b54b21bccdc7f7,62bbfa3b5d8e00a17248ed24,2022-06-29_09h09.05.789,Colour_Asymmetry_Pilot,2022.1.3,Win32,59.95203837,62bbe60bf3d75ef465d3e404,0,133,133,75,1,twofour,,,,,,,,,,,,,,,,,,,,,,,,,,,,,,,,,,,,,,,,,,,,,,,,,,,,,,,,,,,,,,,,,,,,,,,,,,,,,,,,,,,,,,,,,,,,,,,,,,,,,,,,,,,,,,,,,,,,,,,,,,,,,,,,,,,,,,,,,,,,,,,,,,,,,,,,
,,,,,,6131de3102b54b21bccdc7f7,62bbfa3b5d8e00a17248ed24,2022-06-29_09h09.05.789,Colour_Asymmetry_Pilot,2022.1.3,Win32,59.95203837,62bbe60bf3d75ef465d3e404,0,134,134,98,1,twoone,,,,,,,,,,,,,,,,,,,,,,,,,,,,,,,,,,,,,,,,,,,,,,,,,,,,,,,,,,,,,,,,,,,,,,,,,,,,,,,,,,,,,,,,,,,,,,,,,,,,,,,,,,,,,,,,,,,,,,,,,,,,,,,,,,,,,,,,,,,,,,,,,,,,,,,,
,,,,,,6131de3102b54b21bccdc7f7,62bbfa3b5d8e00a17248ed24,2022-06-29_09h09.05.789,Colour_Asymmetry_Pilot,2022.1.3,Win32,59.95203837,62bbe60bf3d75ef465d3e404,0,135,135,156,1,threeone,,,,,,,,,,,,,,,,,,,,,,,,,,,,,,,,,,,,,,,,,,,,,,,,,,,,,,,,,,,,,,,,,,,,,,,,,,,,,,,,,,,,,,,,,,,,,,,,,,,,,,,,,,,,,,,,,,,,,,,,,,,,,,,,,,,,,,,,,,,,,,,,,,,,,,,,
,,,,,,6131de3102b54b21bccdc7f7,62bbfa3b5d8e00a17248ed24,2022-06-29_09h09.05.789,Colour_Asymmetry_Pilot,2022.1.3,Win32,59.95203837,62bbe60bf3d75ef465d3e404,0,136,136,87,1,fourthree,,,,,,,,,,,,,,,,,,,,,,,,,,,,,,,,,,,,,,,,,,,,,,,,,,,,,,,,,,,,,,,,,,,,,,,,,,,,,,,,,,,,,,,,,,,,,,,,,,,,,,,,,,,,,,,,,,,,,,,,,,,,,,,,,,,,,,,,,,,,,,,,,,,,,,,,
,,,,,,6131de3102b54b21bccdc7f7,62bbfa3b5d8e00a17248ed24,2022-06-29_09h09.05.789,Colour_Asymmetry_Pilot,2022.1.3,Win32,59.95203837,62bbe60bf3d75ef465d3e404,0,137,137,113,1,onethree,,,,,,,,,,,,,,,,,,,,,,,,,,,,,,,,,,,,,,,,,,,,,,,,,,,,,,,,,,,,,,,,,,,,,,,,,,,,,,,,,,,,,,,,,,,,,,,,,,,,,,,,,,,,,,,,,,,,,,,,,,,,,,,,,,,,,,,,,,,,,,,,,,,,,,,,
,,,,,,6131de3102b54b21bccdc7f7,62bbfa3b5d8e00a17248ed24,2022-06-29_09h09.05.789,Colour_Asymmetry_Pilot,2022.1.3,Win32,59.95203837,62bbe60bf3d75ef465d3e404,0,138,138,100,1,threeone,,,,,,,,,,,,,,,,,,,,,,,,,,,,,,,,,,,,,,,,,,,,,,,,,,,,,,,,,,,,,,,,,,,,,,,,,,,,,,,,,,,,,,,,,,,,,,,,,,,,,,,,,,,,,,,,,,,,,,,,,,,,,,,,,,,,,,,,,,,,,,,,,,,,,,,,
,,,,,,6131de3102b54b21bccdc7f7,62bbfa3b5d8e00a17248ed24,2022-06-29_09h09.05.789,Colour_Asymmetry_Pilot,2022.1.3,Win32,59.95203837,62bbe60bf3d75ef465d3e404,0,139,139,157,1,threefour,,,,,,,,,,,,,,,,,,,,,,,,,,,,,,,,,,,,,,,,,,,,,,,,,,,,,,,,,,,,,,,,,,,,,,,,,,,,,,,,,,,,,,,,,,,,,,,,,,,,,,,,,,,,,,,,,,,,,,,,,,,,,,,,,,,,,,,,,,,,,,,,,,,,,,,,
,,,,,,6131de3102b54b21bccdc7f7,62bbfa3b5d8e00a17248ed24,2022-06-29_09h09.05.789,Colour_Asymmetry_Pilot,2022.1.3,Win32,59.95203837,62bbe60bf3d75ef465d3e404,0,140,140,71,1,fourthree,,,,,,,,,,,,,,,,,,,,,,,,,,,,,,,,,,,,,,,,,,,,,,,,,,,,,,,,,,,,,,,,,,,,,,,,,,,,,,,,,,,,,,,,,,,,,,,,,,,,,,,,,,,,,,,,,,,,,,,,,,,,,,,,,,,,,,,,,,,,,,,,,,,,,,,,
,,,,,,6131de3102b54b21bccdc7f7,62bbfa3b5d8e00a17248ed24,2022-06-29_09h09.05.789,Colour_Asymmetry_Pilot,2022.1.3,Win32,59.95203837,62bbe60bf3d75ef465d3e404,0,141,141,15,1,fourthree,,,,,,,,,,,,,,,,,,,,,,,,,,,,,,,,,,,,,,,,,,,,,,,,,,,,,,,,,,,,,,,,,,,,,,,,,,,,,,,,,,,,,,,,,,,,,,,,,,,,,,,,,,,,,,,,,,,,,,,,,,,,,,,,,,,,,,,,,,,,,,,,,,,,,,,,
,,,,,,6131de3102b54b21bccdc7f7,62bbfa3b5d8e00a17248ed24,2022-06-29_09h09.05.789,Colour_Asymmetry_Pilot,2022.1.3,Win32,59.95203837,62bbe60bf3d75ef465d3e404,0,142,142,57,1,onethree,,,,,,,,,,,,,,,,,,,,,,,,,,,,,,,,,,,,,,,,,,,,,,,,,,,,,,,,,,,,,,,,,,,,,,,,,,,,,,,,,,,,,,,,,,,,,,,,,,,,,,,,,,,,,,,,,,,,,,,,,,,,,,,,,,,,,,,,,,,,,,,,,,,,,,,,
,,,,,,6131de3102b54b21bccdc7f7,62bbfa3b5d8e00a17248ed24,2022-06-29_09h09.05.789,Colour_Asymmetry_Pilot,2022.1.3,Win32,59.95203837,62bbe60bf3d75ef465d3e404,0,143,143,109,1,threefour,,,,,,,,,,,,,,,,,,,,,,,,,,,,,,,,,,,,,,,,,,,,,,,,,,,,,,,,,,,,,,,,,,,,,,,,,,,,,,,,,,,,,,,,,,,,,,,,,,,,,,,,,,,,,,,,,,,,,,,,,,,,,,,,,,,,,,,,,,,,,,,,,,,,,,,,
,,,,,,6131de3102b54b21bccdc7f7,62bbfa3b5d8e00a17248ed24,2022-06-29_09h09.05.789,Colour_Asymmetry_Pilot,2022.1.3,Win32,59.95203837,62bbe60bf3d75ef465d3e404,0,144,144,161,1,onethree,,,,,,,,,,,,,,,,,,,,,,,,,,,,,,,,,,,,,,,,,,,,,,,,,,,,,,,,,,,,,,,,,,,,,,,,,,,,,,,,,,,,,,,,,,,,,,,,,,,,,,,,,,,,,,,,,,,,,,,,,,,,,,,,,,,,,,,,,,,,,,,,,,,,,,,,
,,,,,,6131de3102b54b21bccdc7f7,62bbfa3b5d8e00a17248ed24,2022-06-29_09h09.05.789,Colour_Asymmetry_Pilot,2022.1.3,Win32,59.95203837,62bbe60bf3d75ef465d3e404,0,145,145,139,1,twofour,,,,,,,,,,,,,,,,,,,,,,,,,,,,,,,,,,,,,,,,,,,,,,,,,,,,,,,,,,,,,,,,,,,,,,,,,,,,,,,,,,,,,,,,,,,,,,,,,,,,,,,,,,,,,,,,,,,,,,,,,,,,,,,,,,,,,,,,,,,,,,,,,,,,,,,,
,,,,,,6131de3102b54b21bccdc7f7,62bbfa3b5d8e00a17248ed24,2022-06-29_09h09.05.789,Colour_Asymmetry_Pilot,2022.1.3,Win32,59.95203837,62bbe60bf3d75ef465d3e404,0,146,146,33,1,onethree,,,,,,,,,,,,,,,,,,,,,,,,,,,,,,,,,,,,,,,,,,,,,,,,,,,,,,,,,,,,,,,,,,,,,,,,,,,,,,,,,,,,,,,,,,,,,,,,,,,,,,,,,,,,,,,,,,,,,,,,,,,,,,,,,,,,,,,,,,,,,,,,,,,,,,,,
,,,,,,6131de3102b54b21bccdc7f7,62bbfa3b5d8e00a17248ed24,2022-06-29_09h09.05.789,Colour_Asymmetry_Pilot,2022.1.3,Win32,59.95203837,62bbe60bf3d75ef465d3e404,0,147,147,126,1,fourtwo,,,,,,,,,,,,,,,,,,,,,,,,,,,,,,,,,,,,,,,,,,,,,,,,,,,,,,,,,,,,,,,,,,,,,,,,,,,,,,,,,,,,,,,,,,,,,,,,,,,,,,,,,,,,,,,,,,,,,,,,,,,,,,,,,,,,,,,,,,,,,,,,,,,,,,,,
,,,,,,6131de3102b54b21bccdc7f7,62bbfa3b5d8e00a17248ed24,2022-06-29_09h09.05.789,Colour_Asymmetry_Pilot,2022.1.3,Win32,59.95203837,62bbe60bf3d75ef465d3e404,0,148,148,58,1,twoone,,,,,,,,,,,,,,,,,,,,,,,,,,,,,,,,,,,,,,,,,,,,,,,,,,,,,,,,,,,,,,,,,,,,,,,,,,,,,,,,,,,,,,,,,,,,,,,,,,,,,,,,,,,,,,,,,,,,,,,,,,,,,,,,,,,,,,,,,,,,,,,,,,,,,,,,
,,,,,,6131de3102b54b21bccdc7f7,62bbfa3b5d8e00a17248ed24,2022-06-29_09h09.05.789,Colour_Asymmetry_Pilot,2022.1.3,Win32,59.95203837,62bbe60bf3d75ef465d3e404,0,149,149,111,1,fourthree,,,,,,,,,,,,,,,,,,,,,,,,,,,,,,,,,,,,,,,,,,,,,,,,,,,,,,,,,,,,,,,,,,,,,,,,,,,,,,,,,,,,,,,,,,,,,,,,,,,,,,,,,,,,,,,,,,,,,,,,,,,,,,,,,,,,,,,,,,,,,,,,,,,,,,,,
,,,,,,6131de3102b54b21bccdc7f7,62bbfa3b5d8e00a17248ed24,2022-06-29_09h09.05.789,Colour_Asymmetry_Pilot,2022.1.3,Win32,59.95203837,62bbe60bf3d75ef465d3e404,0,150,150,89,1,onethree,,,,,,,,,,,,,,,,,,,,,,,,,,,,,,,,,,,,,,,,,,,,,,,,,,,,,,,,,,,,,,,,,,,,,,,,,,,,,,,,,,,,,,,,,,,,,,,,,,,,,,,,,,,,,,,,,,,,,,,,,,,,,,,,,,,,,,,,,,,,,,,,,,,,,,,,
,,,,,,6131de3102b54b21bccdc7f7,62bbfa3b5d8e00a17248ed24,2022-06-29_09h09.05.789,Colour_Asymmetry_Pilot,2022.1.3,Win32,59.95203837,62bbe60bf3d75ef465d3e404,0,151,151,14,1,fourtwo,,,,,,,,,,,,,,,,,,,,,,,,,,,,,,,,,,,,,,,,,,,,,,,,,,,,,,,,,,,,,,,,,,,,,,,,,,,,,,,,,,,,,,,,,,,,,,,,,,,,,,,,,,,,,,,,,,,,,,,,,,,,,,,,,,,,,,,,,,,,,,,,,,,,,,,,
,,,,,,6131de3102b54b21bccdc7f7,62bbfa3b5d8e00a17248ed24,2022-06-29_09h09.05.789,Colour_Asymmetry_Pilot,2022.1.3,Win32,59.95203837,62bbe60bf3d75ef465d3e404,0,152,152,53,1,threefour,,,,,,,,,,,,,,,,,,,,,,,,,,,,,,,,,,,,,,,,,,,,,,,,,,,,,,,,,,,,,,,,,,,,,,,,,,,,,,,,,,,,,,,,,,,,,,,,,,,,,,,,,,,,,,,,,,,,,,,,,,,,,,,,,,,,,,,,,,,,,,,,,,,,,,,,
,,,,,,6131de3102b54b21bccdc7f7,62bbfa3b5d8e00a17248ed24,2022-06-29_09h09.05.789,Colour_Asymmetry_Pilot,2022.1.3,Win32,59.95203837,62bbe60bf3d75ef465d3e404,0,153,153,108,1,threeone,,,,,,,,,,,,,,,,,,,,,,,,,,,,,,,,,,,,,,,,,,,,,,,,,,,,,,,,,,,,,,,,,,,,,,,,,,,,,,,,,,,,,,,,,,,,,,,,,,,,,,,,,,,,,,,,,,,,,,,,,,,,,,,,,,,,,,,,,,,,,,,,,,,,,,,,
,,,,,,6131de3102b54b21bccdc7f7,62bbfa3b5d8e00a17248ed24,2022-06-29_09h09.05.789,Colour_Asymmetry_Pilot,2022.1.3,Win32,59.95203837,62bbe60bf3d75ef465d3e404,0,154,154,60,1,threeone,,,,,,,,,,,,,,,,,,,,,,,,,,,,,,,,,,,,,,,,,,,,,,,,,,,,,,,,,,,,,,,,,,,,,,,,,,,,,,,,,,,,,,,,,,,,,,,,,,,,,,,,,,,,,,,,,,,,,,,,,,,,,,,,,,,,,,,,,,,,,,,,,,,,,,,,
,,,,,,6131de3102b54b21bccdc7f7,62bbfa3b5d8e00a17248ed24,2022-06-29_09h09.05.789,Colour_Asymmetry_Pilot,2022.1.3,Win32,59.95203837,62bbe60bf3d75ef465d3e404,0,155,155,20,1,threeone,,,,,,,,,,,,,,,,,,,,,,,,,,,,,,,,,,,,,,,,,,,,,,,,,,,,,,,,,,,,,,,,,,,,,,,,,,,,,,,,,,,,,,,,,,,,,,,,,,,,,,,,,,,,,,,,,,,,,,,,,,,,,,,,,,,,,,,,,,,,,,,,,,,,,,,,
,,,,,,6131de3102b54b21bccdc7f7,62bbfa3b5d8e00a17248ed24,2022-06-29_09h09.05.789,Colour_Asymmetry_Pilot,2022.1.3,Win32,59.95203837,62bbe60bf3d75ef465d3e404,0,156,156,19,1,twofour,,,,,,,,,,,,,,,,,,,,,,,,,,,,,,,,,,,,,,,,,,,,,,,,,,,,,,,,,,,,,,,,,,,,,,,,,,,,,,,,,,,,,,,,,,,,,,,,,,,,,,,,,,,,,,,,,,,,,,,,,,,,,,,,,,,,,,,,,,,,,,,,,,,,,,,,
,,,,,,6131de3102b54b21bccdc7f7,62bbfa3b5d8e00a17248ed24,2022-06-29_09h09.05.789,Colour_Asymmetry_Pilot,2022.1.3,Win32,59.95203837,62bbe60bf3d75ef465d3e404,0,157,157,23,1,fourthree,,,,,,,,,,,,,,,,,,,,,,,,,,,,,,,,,,,,,,,,,,,,,,,,,,,,,,,,,,,,,,,,,,,,,,,,,,,,,,,,,,,,,,,,,,,,,,,,,,,,,,,,,,,,,,,,,,,,,,,,,,,,,,,,,,,,,,,,,,,,,,,,,,,,,,,,
,,,,,,6131de3102b54b21bccdc7f7,62bbfa3b5d8e00a17248ed24,2022-06-29_09h09.05.789,Colour_Asymmetry_Pilot,2022.1.3,Win32,59.95203837,62bbe60bf3d75ef465d3e404,0,158,158,138,1,twoone,,,,,,,,,,,,,,,,,,,,,,,,,,,,,,,,,,,,,,,,,,,,,,,,,,,,,,,,,,,,,,,,,,,,,,,,,,,,,,,,,,,,,,,,,,,,,,,,,,,,,,,,,,,,,,,,,,,,,,,,,,,,,,,,,,,,,,,,,,,,,,,,,,,,,,,,
,,,,,,6131de3102b54b21bccdc7f7,62bbfa3b5d8e00a17248ed24,2022-06-29_09h09.05.789,Colour_Asymmetry_Pilot,2022.1.3,Win32,59.95203837,62bbe60bf3d75ef465d3e404,0,159,159,85,1,threefour,,,,,,,,,,,,,,,,,,,,,,,,,,,,,,,,,,,,,,,,,,,,,,,,,,,,,,,,,,,,,,,,,,,,,,,,,,,,,,,,,,,,,,,,,,,,,,,,,,,,,,,,,,,,,,,,,,,,,,,,,,,,,,,,,,,,,,,,,,,,,,,,,,,,,,,,
,,,,,,6131de3102b54b21bccdc7f7,62bbfa3b5d8e00a17248ed24,2022-06-29_09h09.05.789,Colour_Asymmetry_Pilot,2022.1.3,Win32,59.95203837,62bbe60bf3d75ef465d3e404,0,160,160,158,1,fourtwo,,,,,,,,,,,,,,,,,,,,,,,,,,,,,,,,,,,,,,,,,,,,,,,,,,,,,,,,,,,,,,,,,,,,,,,,,,,,,,,,,,,,,,,,,,,,,,,,,,,,,,,,,,,,,,,,,,,,,,,,,,,,,,,,,,,,,,,,,,,,,,,,,,,,,,,,
,,,,,,6131de3102b54b21bccdc7f7,62bbfa3b5d8e00a17248ed24,2022-06-29_09h09.05.789,Colour_Asymmetry_Pilot,2022.1.3,Win32,59.95203837,62bbe60bf3d75ef465d3e404,0,161,161,93,1,threefour,,,,,,,,,,,,,,,,,,,,,,,,,,,,,,,,,,,,,,,,,,,,,,,,,,,,,,,,,,,,,,,,,,,,,,,,,,,,,,,,,,,,,,,,,,,,,,,,,,,,,,,,,,,,,,,,,,,,,,,,,,,,,,,,,,,,,,,,,,,,,,,,,,,,,,,,
,,,,,,6131de3102b54b21bccdc7f7,62bbfa3b5d8e00a17248ed24,2022-06-29_09h09.05.789,Colour_Asymmetry_Pilot,2022.1.3,Win32,59.95203837,62bbe60bf3d75ef465d3e404,,,,,,,space,5.038,space,8.364,space,32.267,space,8.774,space,1.681,space,7.934,"[0.9842,0.7409999999999999,-0.6628000000000001]",twofour,"[0.7018,0.7802,-0.16079999999999994]",4,9.751,42,99,1,0,0,response1disk_5,-3,1,1,0,0,rectangle_8,100,56,1,0,0,response1disk_7,6,3,21,-2,1,0,0,rectangle_4,0,0,0,0,1,,,,,,,,,,,,,,,,,,,,,,,,,,,,,,,,,,,,,,,,,,,,,,,,,,,,,,,,,,,,,,,,,,,,,,,,,,,,,,,,,,,,,,,,,,,,,,,,,,,,,,,,
,,,,,,6131de3102b54b21bccdc7f7,62bbfa3b5d8e00a17248ed24,2022-06-29_09h09.05.789,Colour_Asymmetry_Pilot,2022.1.3,Win32,59.95203837,62bbe60bf3d75ef465d3e404,,,,,,,,,,,,,,,,,,,"[-0.050999999999999934,-0.6706000000000001,-0.804]",onetwo,"[-0.38039999999999996,-0.4276,-0.1452]",-2,2.617,-91,-42,1,0,0,response5disk_5,10,-6,1,0,0,rectangle_8,10,-6,1,0,0,,,3,10,-6,1,0,0,,1,0,1,0,1,,,,,,,,,,,,,,,,,,,,,,,,,,,,,,,,,,,,,,,,,,,,,,,,,,,,,,,,,,,,,,,,,,,,,,,,,,,,,,,,,,,,,,,,,,,,,,,,,,,,,,,,
,,,,,,6131de3102b54b21bccdc7f7,62bbfa3b5d8e00a17248ed24,2022-06-29_09h09.05.789,Colour_Asymmetry_Pilot,2022.1.3,Win32,59.95203837,62bbe60bf3d75ef465d3e404,,,,,,,,,,,,,,,,,,,"[0.7646000000000002,0.07440000000000002,0.2704]",fourthree,"[0.0351999999999999,0.41159999999999997,0.0038000000000000256]",-2,1.217,-102,-50,1,0,0,response5disk_5,-2,5,1,0,0,rectangle_8,97,44,1,0,0,response1disk_7,6,3,-17,11,1,0,0,rectangle_4,2,0,2,0,1,,,,,,,,,,,,,,,,,,,,,,,,,,,,,,,,,,,,,,,,,,,,,,,,,,,,,,,,,,,,,,,,,,,,,,,,,,,,,,,,,,,,,,,,,,,,,,,,,,,,,,,,
,,,,,,6131de3102b54b21bccdc7f7,62bbfa3b5d8e00a17248ed24,2022-06-29_09h09.05.789,Colour_Asymmetry_Pilot,2022.1.3,Win32,59.95203837,62bbe60bf3d75ef465d3e404,,,,,,,,,,,,,,,,,,,"[-0.9688,-0.38039999999999996,-0.41979999999999995]",threefour,"[0.37240000000000006,-0.050999999999999934,-0.5216]",-3,2.567,-88,38,1,0,0,response7disk_5,-20,-2,1,0,0,rectangle_8,-20,-2,1,0,0,,,3,-20,-2,1,0,0,,3,0,3,0,1,,,,,,,,,,,,,,,,,,,,,,,,,,,,,,,,,,,,,,,,,,,,,,,,,,,,,,,,,,,,,,,,,,,,,,,,,,,,,,,,,,,,,,,,,,,,,,,,,,,,,,,,
,,,,,,6131de3102b54b21bccdc7f7,62bbfa3b5d8e00a17248ed24,2022-06-29_09h09.05.789,Colour_Asymmetry_Pilot,2022.1.3,Win32,59.95203837,62bbe60bf3d75ef465d3e404,,,,,,,,,,,,,,,,,,,"[-0.4982,-0.2942,-0.0354000000000001]",twofour,"[-0.20799999999999996,-0.655,-0.01980000000000004]",3,2.35,108,48,1,0,0,response1disk_5,6,7,1,0,0,rectangle_8,6,7,1,0,0,,,3,6,7,1,0,0,,4,0,4,0,1,,,,,,,,,,,,,,,,,,,,,,,,,,,,,,,,,,,,,,,,,,,,,,,,,,,,,,,,,,,,,,,,,,,,,,,,,,,,,,,,,,,,,,,,,,,,,,,,,,,,,,,,
,,,,,,6131de3102b54b21bccdc7f7,62bbfa3b5d8e00a17248ed24,2022-06-29_09h09.05.789,Colour_Asymmetry_Pilot,2022.1.3,Win32,59.95203837,62bbe60bf3d75ef465d3e404,,,,,,,,,,,,,,,,,,,"[-0.24719999999999998,-0.0354000000000001,0.3175999999999999]",fourtwo,"[-0.20799999999999996,-0.655,-0.01980000000000004]",2,1.334,53,-38,1,0,0,response3disk_5,23,-2,1,0,0,rectangle_8,23,-2,1,0,0,,,3,23,-2,1,0,0,,5,0,5,0,1,,,,,,,,,,,,,,,,,,,,,,,,,,,,,,,,,,,,,,,,,,,,,,,,,,,,,,,,,,,,,,,,,,,,,,,,,,,,,,,,,,,,,,,,,,,,,,,,,,,,,,,,
,,,,,,6131de3102b54b21bccdc7f7,62bbfa3b5d8e00a17248ed24,2022-06-29_09h09.05.789,Colour_Asymmetry_Pilot,2022.1.3,Win32,59.95203837,62bbe60bf3d75ef465d3e404,,,,,,,,,,,,,,,,,,,"[-0.5452,-0.608,0.2470000000000001]",twoone,"[0.3568,-0.20799999999999996,-0.9844]",-4,2.316,-43,89,1,0,0,response7disk_5,-22,1,1,0,0,rectangle_8,-22,1,1,0,0,,,3,-22,1,1,0,0,,6,0,6,0,1,,,,,,,,,,,,,,,,,,,,,,,,,,,,,,,,,,,,,,,,,,,,,,,,,,,,,,,,,,,,,,,,,,,,,,,,,,,,,,,,,,,,,,,,,,,,,,,,,,,,,,,,
,,,,,,6131de3102b54b21bccdc7f7,62bbfa3b5d8e00a17248ed24,2022-06-29_09h09.05.789,Colour_Asymmetry_Pilot,2022.1.3,Win32,59.95203837,62bbe60bf3d75ef465d3e404,,,,,,,,,,,,,,,,,,,,fourthree,,4,1.45,,,,,,,,,,,,,,,,,,,,,,,,,,,,,,,,space,2.429,"[-0.0040000000000000036,0.02739999999999987,-0.08239999999999992]","[0.2784,-0.31000000000000005,-0.5452]",42,124,1,0,0,response1disk,3,-1,1,0,0,rectangle,3,-1,1,0,0,,3,0.001,0,3,-1,1,0,0,0,0,0,17,1,17,first,,,,,,,,,,,,,,,,,,,,,,,,,,,,,,,,,,,,,,,,,,,,,,,,,,,,,,,,,,,,,,,,,,,
,,,,,,6131de3102b54b21bccdc7f7,62bbfa3b5d8e00a17248ed24,2022-06-29_09h09.05.789,Colour_Asymmetry_Pilot,2022.1.3,Win32,59.95203837,62bbe60bf3d75ef465d3e404,,,,,,,,,,,,,,,,,,,,fourthree,,-2,2.117,,,,,,,,,,,,,,,,,,,,,,,,,,,,,,,,,,"[0.6625999999999999,0.4980000000000002,-0.357]","[0.2862,0.7802,0.3568]",-72,-40,1,0,0,response5disk,-15,4,1,0,0,rectangle,-15,4,1,0,0,,2,0,0,-15,4,1,0,0,0,1,1,150,1,69,second,,,,,,,,,,,,,,,,,,,,,,,,,,,,,,,,,,,,,,,,,,,,,,,,,,,,,,,,,,,,,,,,,,,
,,,,,,6131de3102b54b21bccdc7f7,62bbfa3b5d8e00a17248ed24,2022-06-29_09h09.05.789,Colour_Asymmetry_Pilot,2022.1.3,Win32,59.95203837,62bbe60bf3d75ef465d3e404,,,,,,,,,,,,,,,,,,,,fourthree,,-3,1.383,,,,,,,,,,,,,,,,,,,,,,,,,,,,,,,,,,"[0.37240000000000006,0.4980000000000002,-0.2864]","[-0.9296,-0.12959999999999994,-0.043199999999999905]",-90,42,1,0,0,response7disk,-17,3,1,0,0,rectangle,-17,3,1,0,0,,3,0,0,-17,3,1,0,0,0,2,2,4,1,4,first,,,,,,,,,,,,,,,,,,,,,,,,,,,,,,,,,,,,,,,,,,,,,,,,,,,,,,,,,,,,,,,,,,,
,,,,,,6131de3102b54b21bccdc7f7,62bbfa3b5d8e00a17248ed24,2022-06-29_09h09.05.789,Colour_Asymmetry_Pilot,2022.1.3,Win32,59.95203837,62bbe60bf3d75ef465d3e404,,,,,,,,,,,,,,,,,,,,threefour,,-4,0.5,,,,,,,,,,,,,,,,,,,,,,,,,,,,,,,,,,"[-0.9766,-0.6472,0.07440000000000002]","[0.34099999999999997,0.5841999999999998,-0.9844]",-47,88,1,0,0,response7disk,-22,1,1,0,0,rectangle,-22,1,1,0,0,,3,0.001,0,-22,1,1,0,0,0,3,3,39,1,39,first,,,,,,,,,,,,,,,,,,,,,,,,,,,,,,,,,,,,,,,,,,,,,,,,,,,,,,,,,,,,,,,,,,,
,,,,,,6131de3102b54b21bccdc7f7,62bbfa3b5d8e00a17248ed24,2022-06-29_09h09.05.789,Colour_Asymmetry_Pilot,2022.1.3,Win32,59.95203837,62bbe60bf3d75ef465d3e404,,,,,,,,,,,,,,,,,,,,onetwo,,-4,0.751,,,,,,,,,,,,,,,,,,,,,,,,,,,,,,,,,,"[-0.26280000000000003,-0.4746,-0.2158]","[0.9686000000000001,0.5763999999999998,0.11359999999999992]",-57,91,1,0,0,response7disk,3,-3,1,0,0,rectangle,3,-3,1,0,0,,1,0.001,0,3,-3,1,0,0,0,4,4,32,1,32,first,,,,,,,,,,,,,,,,,,,,,,,,,,,,,,,,,,,,,,,,,,,,,,,,,,,,,,,,,,,,,,,,,,,
,,,,,,6131de3102b54b21bccdc7f7,62bbfa3b5d8e00a17248ed24,2022-06-29_09h09.05.789,Colour_Asymmetry_Pilot,2022.1.3,Win32,59.95203837,62bbe60bf3d75ef465d3e404,,,,,,,,,,,,,,,,,,,,twofour,,-1,0.966,,,,,,,,,,,,,,,,,,,,,,,,,,,,,,,,,,"[0.2784,-0.31000000000000005,-0.5452]","[0.37240000000000006,0.4980000000000002,-0.2864]",-34,-101,1,0,0,response5disk,13,5,1,0,0,rectangle,13,5,1,0,0,,3,0,0,13,5,1,0,0,0,5,5,60,1,60,first,,,,,,,,,,,,,,,,,,,,,,,,,,,,,,,,,,,,,,,,,,,,,,,,,,,,,,,,,,,,,,,,,,,
,,,,,,6131de3102b54b21bccdc7f7,62bbfa3b5d8e00a17248ed24,2022-06-29_09h09.05.789,Colour_Asymmetry_Pilot,2022.1.3,Win32,59.95203837,62bbe60bf3d75ef465d3e404,,,,,,,,,,,,,,,,,,,,onethree,,-1,0.833,,,,,,,,,,,,,,,,,,,,,,,,,,,,,,,,,,"[-0.2942,-0.7648,-0.7492000000000001]","[0.37240000000000006,-0.050999999999999934,-0.5216]",-30,-82,1,0,0,response5disk,2,3,1,0,0,rectangle,2,3,1,0,0,,1,0,0,2,3,1,0,0,0,6,6,123,1,42,second,,,,,,,,,,,,,,,,,,,,,,,,,,,,,,,,,,,,,,,,,,,,,,,,,,,,,,,,,,,,,,,,,,,
,,,,,,6131de3102b54b21bccdc7f7,62bbfa3b5d8e00a17248ed24,2022-06-29_09h09.05.789,Colour_Asymmetry_Pilot,2022.1.3,Win32,59.95203837,62bbe60bf3d75ef465d3e404,,,,,,,,,,,,,,,,,,,,threeone,,-3,1.583,,,,,,,,,,,,,,,,,,,,,,,,,,,,,,,,,,"[1,0.12939999999999996,-1]","[0.23120000000000007,-0.7726,-0.34120000000000006]",-86,25,1,0,0,response7disk,-18,-6,1,0,0,rectangle,-18,-6,1,0,0,,3,0,0,-18,-6,1,0,0,0,7,7,16,1,16,first,,,,,,,,,,,,,,,,,,,,,,,,,,,,,,,,,,,,,,,,,,,,,,,,,,,,,,,,,,,,,,,,,,,
,,,,,,6131de3102b54b21bccdc7f7,62bbfa3b5d8e00a17248ed24,2022-06-29_09h09.05.789,Colour_Asymmetry_Pilot,2022.1.3,Win32,59.95203837,62bbe60bf3d75ef465d3e404,,,,,,,,,,,,,,,,,,,,threefour,,1,0.816,,,,,,,,,,,,,,,,,,,,,,,,,,,,,,,,,,"[0.23120000000000007,-0.7726,-0.34120000000000006]","[-0.2942,-0.7648,-0.7492000000000001]",51,-84,1,0,0,response3disk,30,-6,1,0,0,rectangle,30,-6,1,0,0,,1,0.001,0,30,-6,1,0,0,0,8,8,78,1,78,first,,,,,,,,,,,,,,,,,,,,,,,,,,,,,,,,,,,,,,,,,,,,,,,,,,,,,,,,,,,,,,,,,,,
,,,,,,6131de3102b54b21bccdc7f7,62bbfa3b5d8e00a17248ed24,2022-06-29_09h09.05.789,Colour_Asymmetry_Pilot,2022.1.3,Win32,59.95203837,62bbe60bf3d75ef465d3e404,,,,,,,,,,,,,,,,,,,,twofour,,-2,0.616,,,,,,,,,,,,,,,,,,,,,,,,,,,,,,,,,,"[-0.011800000000000033,-0.906,-0.45100000000000007]","[-0.9216,-0.5529999999999999,-0.3962]",-88,-46,1,0,0,response5disk,-10,0,1,0,0,rectangle,-10,0,1,0,0,,3,0.001,0,-10,0,1,0,0,0,9,9,19,1,19,first,,,,,,,,,,,,,,,,,,,,,,,,,,,,,,,,,,,,,,,,,,,,,,,,,,,,,,,,,,,,,,,,,,,
,,,,,,6131de3102b54b21bccdc7f7,62bbfa3b5d8e00a17248ed24,2022-06-29_09h09.05.789,Colour_Asymmetry_Pilot,2022.1.3,Win32,59.95203837,62bbe60bf3d75ef465d3e404,,,,,,,,,,,,,,,,,,,,onethree,,-4,0.516,,,,,,,,,,,,,,,,,,,,,,,,,,,,,,,,,,"[-0.20799999999999996,-0.655,-0.01980000000000004]","[0.9763999999999999,0.8588,-0.05900000000000005]",-44,85,1,0,0,response7disk,-5,16,1,0,0,rectangle,-5,16,1,0,0,,3,0.001,0,-5,16,1,0,0,0,10,10,88,1,7,second,,,,,,,,,,,,,,,,,,,,,,,,,,,,,,,,,,,,,,,,,,,,,,,,,,,,,,,,,,,,,,,,,,,
,,,,,,6131de3102b54b21bccdc7f7,62bbfa3b5d8e00a17248ed24,2022-06-29_09h09.05.789,Colour_Asymmetry_Pilot,2022.1.3,Win32,59.95203837,62bbe60bf3d75ef465d3e404,,,,,,,,,,,,,,,,,,,,fourthree,,-3,0.75,,,,,,,,,,,,,,,,,,,,,,,,,,,,,,,,,,"[-0.050999999999999934,-0.6706000000000001,-0.804]","[-0.9688,-0.38039999999999996,-0.41979999999999995]",-98,35,1,0,0,response7disk,3,-2,1,0,0,rectangle,3,-2,1,0,0,,1,0.001,0,3,-2,1,0,0,0,11,11,115,1,34,second,,,,,,,,,,,,,,,,,,,,,,,,,,,,,,,,,,,,,,,,,,,,,,,,,,,,,,,,,,,,,,,,,,,
,,,,,,6131de3102b54b21bccdc7f7,62bbfa3b5d8e00a17248ed24,2022-06-29_09h09.05.789,Colour_Asymmetry_Pilot,2022.1.3,Win32,59.95203837,62bbe60bf3d75ef465d3e404,,,,,,,,,,,,,,,,,,,,twoone,,-4,0.35,,,,,,,,,,,,,,,,,,,,,,,,,,,,,,,,,,"[0.30180000000000007,-0.7884,-0.9844]","[-0.6235999999999999,-0.6786,-0.08239999999999992]",-71,108,1,0,0,response7disk,3,9,1,0,0,rectangle,3,9,1,0,0,,2,0.001,0,3,9,1,0,0,0,12,12,108,1,27,second,,,,,,,,,,,,,,,,,,,,,,,,,,,,,,,,,,,,,,,,,,,,,,,,,,,,,,,,,,,,,,,,,,,
,,,,,,6131de3102b54b21bccdc7f7,62bbfa3b5d8e00a17248ed24,2022-06-29_09h09.05.789,Colour_Asymmetry_Pilot,2022.1.3,Win32,59.95203837,62bbe60bf3d75ef465d3e404,,,,,,,,,,,,,,,,,,,,threeone,,-4,1.235,,,,,,,,,,,,,,,,,,,,,,,,,,,,,,,,,,"[-0.45899999999999996,-0.3256,-0.9374]","[0.9842,0.7409999999999999,-0.6628000000000001]",-66,110,1,0,0,response7disk,-5,15,1,0,0,rectangle,-5,15,1,0,0,,3,0.001,0,-5,15,1,0,0,0,13,13,8,1,8,first,,,,,,,,,,,,,,,,,,,,,,,,,,,,,,,,,,,,,,,,,,,,,,,,,,,,,,,,,,,,,,,,,,,
,,,,,,6131de3102b54b21bccdc7f7,62bbfa3b5d8e00a17248ed24,2022-06-29_09h09.05.789,Colour_Asymmetry_Pilot,2022.1.3,Win32,59.95203837,62bbe60bf3d75ef465d3e404,,,,,,,,,,,,,,,,,,,,twoone,,-4,4.283,,,,,,,,,,,,,,,,,,,,,,,,,,,,,,,,,,"[0.9763999999999999,-0.1137999999999999,-0.6314]","[-0.26280000000000003,-0.4746,-0.2158]",-46,91,1,0,0,response7disk,0,11,1,0,0,rectangle,0,11,1,0,0,,2,0.001,0,0,11,1,0,0,0,14,14,125,1,44,second,,,,,,,,,,,,,,,,,,,,,,,,,,,,,,,,,,,,,,,,,,,,,,,,,,,,,,,,,,,,,,,,,,,
,,,,,,6131de3102b54b21bccdc7f7,62bbfa3b5d8e00a17248ed24,2022-06-29_09h09.05.789,Colour_Asymmetry_Pilot,2022.1.3,Win32,59.95203837,62bbe60bf3d75ef465d3e404,,,,,,,,,,,,,,,,,,,,twoone,,-1,1.783,,,,,,,,,,,,,,,,,,,,,,,,,,,,,,,,,,"[0.7018,0.7176,0.6155999999999999]","[-0.17659999999999998,0.3253999999999999,0.19999999999999996]",-24,-58,1,0,0,response5disk,3,1,1,0,0,rectangle,3,1,1,0,0,,1,0.001,0,3,1,1,0,0,0,15,15,140,1,59,second,,,,,,,,,,,,,,,,,,,,,,,,,,,,,,,,,,,,,,,,,,,,,,,,,,,,,,,,,,,,,,,,,,,
,,,,,,6131de3102b54b21bccdc7f7,62bbfa3b5d8e00a17248ed24,2022-06-29_09h09.05.789,Colour_Asymmetry_Pilot,2022.1.3,Win32,59.95203837,62bbe60bf3d75ef465d3e404,,,,,,,,,,,,,,,,,,,,twoone,,-3,0.934,,,,,,,,,,,,,,,,,,,,,,,,,,,,,,,,,,"[-0.7412000000000001,-0.08239999999999992,-0.6864]","[0.37240000000000006,-0.050999999999999934,-0.5216]",-86,29,1,0,0,response7disk,-2,10,1,0,0,rectangle,-2,10,1,0,0,,2,0.001,0,-2,10,1,0,0,0,16,16,6,1,6,first,,,,,,,,,,,,,,,,,,,,,,,,,,,,,,,,,,,,,,,,,,,,,,,,,,,,,,,,,,,,,,,,,,,
,,,,,,6131de3102b54b21bccdc7f7,62bbfa3b5d8e00a17248ed24,2022-06-29_09h09.05.789,Colour_Asymmetry_Pilot,2022.1.3,Win32,59.95203837,62bbe60bf3d75ef465d3e404,,,,,,,,,,,,,,,,,,,,twoone,,-4,1.234,,,,,,,,,,,,,,,,,,,,,,,,,,,,,,,,,,"[0.7018,0.7802,-0.16079999999999994]","[-0.9138,-0.5296000000000001,-0.5529999999999999]",-43,113,1,0,0,response7disk,12,12,1,0,0,rectangle,84,-43,1,0,0,2,2,2.167,1,10,8,1,0,0,0,17,17,104,1,23,second,response3disk_3,rectangle,,,,,,,,,,,,,,,,,,,,,,,,,,,,,,,,,,,,,,,,,,,,,,,,,,,,,,,,,,,,,,,,,
,,,,,,6131de3102b54b21bccdc7f7,62bbfa3b5d8e00a17248ed24,2022-06-29_09h09.05.789,Colour_Asymmetry_Pilot,2022.1.3,Win32,59.95203837,62bbe60bf3d75ef465d3e404,,,,,,,,,,,,,,,,,,,,onetwo,,-1,0.867,,,,,,,,,,,,,,,,,,,,,,,,,,,,,,,,,,"[1,0.12939999999999996,-1]","[0.6547999999999998,-0.043199999999999905,-0.011800000000000033]",-38,-62,1,0,0,response5disk,3,0,1,0,0,rectangle,3,0,1,0,0,2,3,0.001,0,3,0,1,0,0,0,18,18,135,1,54,second,,,,,,,,,,,,,,,,,,,,,,,,,,,,,,,,,,,,,,,,,,,,,,,,,,,,,,,,,,,,,,,,,,,
,,,,,,6131de3102b54b21bccdc7f7,62bbfa3b5d8e00a17248ed24,2022-06-29_09h09.05.789,Colour_Asymmetry_Pilot,2022.1.3,Win32,59.95203837,62bbe60bf3d75ef465d3e404,,,,,,,,,,,,,,,,,,,,twofour,,-4,0.367,,,,,,,,,,,,,,,,,,,,,,,,,,,,,,,,,,"[0.796,0.2156,-0.27859999999999996]","[-0.6942,-0.7648,-0.12959999999999994]",-38,91,1,0,0,response7disk,0,9,1,0,0,rectangle,0,9,1,0,0,2,2,0.001,0,0,9,1,0,0,0,19,19,35,1,35,first,,,,,,,,,,,,,,,,,,,,,,,,,,,,,,,,,,,,,,,,,,,,,,,,,,,,,,,,,,,,,,,,,,,
,,,,,,6131de3102b54b21bccdc7f7,62bbfa3b5d8e00a17248ed24,2022-06-29_09h09.05.789,Colour_Asymmetry_Pilot,2022.1.3,Win32,59.95203837,62bbe60bf3d75ef465d3e404,,,,,,,,,,,,,,,,,,,,threeone,,3,0.834,,,,,,,,,,,,,,,,,,,,,,,,,,,,,,,,,,"[0.34099999999999997,0.5841999999999998,-0.9844]","[0.7018,0.7802,-0.16079999999999994]",81,51,1,0,0,response1disk,18,6,1,0,0,rectangle,18,6,1,0,0,2,1,0.001,0,18,6,1,0,0,0,20,20,93,1,12,second,,,,,,,,,,,,,,,,,,,,,,,,,,,,,,,,,,,,,,,,,,,,,,,,,,,,,,,,,,,,,,,,,,,
