trials.thisRepN,trials.thisTrialN,trials.thisN,trials.thisIndex,trials.ran,Colourcodes,participant,session,date,expName,psychopyVersion,OS,frameRate,study_id,trials_4.thisRepN,trials_4.thisTrialN,trials_4.thisN,trials_4.thisIndex,trials_4.ran,StimulusPos,key_resp.keys,key_resp.rt,key_resp_2.keys,key_resp_2.rt,key_resp_15.keys,key_resp_15.rt,key_resp_17.keys,key_resp_17.rt,key_resp_9.keys,key_resp_9.rt,key_resp_10.keys,key_resp_10.rt,Circle1_col,Ecc,Circle2_col,similarity,response_time,mouse_5.x,mouse_5.y,mouse_5.leftButton,mouse_5.midButton,mouse_5.rightButton,mouse_5.clicked_name,mouse_10.x,mouse_10.y,mouse_10.leftButton,mouse_10.midButton,mouse_10.rightButton,mouse_10.clicked_name,mouse_7.x,mouse_7.y,mouse_7.leftButton,mouse_7.midButton,mouse_7.rightButton,catchnumberprac,mouse_6.x,mouse_6.y,mouse_6.leftButton,mouse_6.midButton,mouse_6.rightButton,duringprac.thisRepN,duringprac.thisTrialN,duringprac.thisN,duringprac.thisIndex,duringprac.ran,mouse_7.clicked_name,catchprac,mouse_6.clicked_name,key_resp_22.keys,key_resp_22.rt,Circle1_colour,Circle2_colour,mouse.x,mouse.y,mouse.leftButton,mouse.midButton,mouse.rightButton,mouse.clicked_name,mouse_2.x,mouse_2.y,mouse_2.leftButton,mouse_2.midButton,mouse_2.rightButton,mouse_2.clicked_name,mouse_3.x,mouse_3.y,mouse_3.leftButton,mouse_3.midButton,mouse_3.rightButton,mouse_3.clicked_name,catchresponse,catchnumber,response_time_catch,Catch,mouse_11.x,mouse_11.y,mouse_11.leftButton,mouse_11.midButton,mouse_11.rightButton,mouse_11.clicked_name,trials_2.thisRepN,trials_2.thisTrialN,trials_2.thisN,trials_2.thisIndex,trials_2.ran,Colourpair,Temporder,trials_3.thisRepN,trials_3.thisTrialN,trials_3.thisN,trials_3.thisIndex,trials_3.ran,key_resp_instr_Ishi.keys,key_resp_instr_Ishi.rt,Ishi_trial_keyresp.keys,Ishi_trial_keyresp.rt,Ishi_textbox.text,Ishi_loop.thisRepN,Ishi_loop.thisTrialN,Ishi_loop.thisN,Ishi_loop.thisIndex,Ishi_loop.ran,imageaddress,textbox.text,mouse_4.x,mouse_4.y,mouse_4.leftButton,mouse_4.midButton,mouse_4.rightButton,mouse_4.clicked_name,textbox_2.text,mouse_8.x,mouse_8.y,mouse_8.leftButton,mouse_8.midButton,mouse_8.rightButton,mouse_8.clicked_name,textbox_3.text,mouse_9.x,mouse_9.y,mouse_9.leftButton,mouse_9.midButton,mouse_9.rightButton,mouse_9.clicked_name,textbox_4.text,mouse_12.x,mouse_12.y,mouse_12.leftButton,mouse_12.midButton,mouse_12.rightButton,mouse_12.clicked_name,textbox_5.text,mouse_13.x,mouse_13.y,mouse_13.leftButton,mouse_13.midButton,mouse_13.rightButton,mouse_13.clicked_name,textbox_6.text,mouse_14.x,mouse_14.y,mouse_14.leftButton,mouse_14.midButton,mouse_14.rightButton,mouse_14.clicked_name,textbox_7.text,mouse_15.x,mouse_15.y,mouse_15.leftButton,mouse_15.midButton,mouse_15.rightButton,mouse_15.clicked_name
0,0,0,55,1,,61601e9a6b8306196d2a129c,62bbfa8de61a9153e4d8e9cc,2022-06-29_09h09.36.487,Colour_Asymmetry_Pilot,2022.1.3,Win32,60.0240096,62bbe60bf3d75ef465d3e404,,,,,,,,,,,,,,,,,,,,,,,,,,,,,,,,,,,,,,,,,,,,,,,,,,,,,,,,,,,,,,,,,,,,,,,,,,,,,,,,,,,,,,,,,,,,,,,,,,,,,,,,,,,,,,,,,,,,,,,,,,,,,,,,,,,,,,,,,,,,,,,,,,,,,,,,,,,,,,
0,1,1,65,1,,61601e9a6b8306196d2a129c,62bbfa8de61a9153e4d8e9cc,2022-06-29_09h09.36.487,Colour_Asymmetry_Pilot,2022.1.3,Win32,60.0240096,62bbe60bf3d75ef465d3e404,,,,,,,,,,,,,,,,,,,,,,,,,,,,,,,,,,,,,,,,,,,,,,,,,,,,,,,,,,,,,,,,,,,,,,,,,,,,,,,,,,,,,,,,,,,,,,,,,,,,,,,,,,,,,,,,,,,,,,,,,,,,,,,,,,,,,,,,,,,,,,,,,,,,,,,,,,,,,,
0,2,2,79,1,,61601e9a6b8306196d2a129c,62bbfa8de61a9153e4d8e9cc,2022-06-29_09h09.36.487,Colour_Asymmetry_Pilot,2022.1.3,Win32,60.0240096,62bbe60bf3d75ef465d3e404,,,,,,,,,,,,,,,,,,,,,,,,,,,,,,,,,,,,,,,,,,,,,,,,,,,,,,,,,,,,,,,,,,,,,,,,,,,,,,,,,,,,,,,,,,,,,,,,,,,,,,,,,,,,,,,,,,,,,,,,,,,,,,,,,,,,,,,,,,,,,,,,,,,,,,,,,,,,,,
0,3,3,30,1,,61601e9a6b8306196d2a129c,62bbfa8de61a9153e4d8e9cc,2022-06-29_09h09.36.487,Colour_Asymmetry_Pilot,2022.1.3,Win32,60.0240096,62bbe60bf3d75ef465d3e404,,,,,,,,,,,,,,,,,,,,,,,,,,,,,,,,,,,,,,,,,,,,,,,,,,,,,,,,,,,,,,,,,,,,,,,,,,,,,,,,,,,,,,,,,,,,,,,,,,,,,,,,,,,,,,,,,,,,,,,,,,,,,,,,,,,,,,,,,,,,,,,,,,,,,,,,,,,,,,
0,4,4,78,1,,61601e9a6b8306196d2a129c,62bbfa8de61a9153e4d8e9cc,2022-06-29_09h09.36.487,Colour_Asymmetry_Pilot,2022.1.3,Win32,60.0240096,62bbe60bf3d75ef465d3e404,,,,,,,,,,,,,,,,,,,,,,,,,,,,,,,,,,,,,,,,,,,,,,,,,,,,,,,,,,,,,,,,,,,,,,,,,,,,,,,,,,,,,,,,,,,,,,,,,,,,,,,,,,,,,,,,,,,,,,,,,,,,,,,,,,,,,,,,,,,,,,,,,,,,,,,,,,,,,,
0,5,5,60,1,,61601e9a6b8306196d2a129c,62bbfa8de61a9153e4d8e9cc,2022-06-29_09h09.36.487,Colour_Asymmetry_Pilot,2022.1.3,Win32,60.0240096,62bbe60bf3d75ef465d3e404,,,,,,,,,,,,,,,,,,,,,,,,,,,,,,,,,,,,,,,,,,,,,,,,,,,,,,,,,,,,,,,,,,,,,,,,,,,,,,,,,,,,,,,,,,,,,,,,,,,,,,,,,,,,,,,,,,,,,,,,,,,,,,,,,,,,,,,,,,,,,,,,,,,,,,,,,,,,,,
0,6,6,37,1,,61601e9a6b8306196d2a129c,62bbfa8de61a9153e4d8e9cc,2022-06-29_09h09.36.487,Colour_Asymmetry_Pilot,2022.1.3,Win32,60.0240096,62bbe60bf3d75ef465d3e404,,,,,,,,,,,,,,,,,,,,,,,,,,,,,,,,,,,,,,,,,,,,,,,,,,,,,,,,,,,,,,,,,,,,,,,,,,,,,,,,,,,,,,,,,,,,,,,,,,,,,,,,,,,,,,,,,,,,,,,,,,,,,,,,,,,,,,,,,,,,,,,,,,,,,,,,,,,,,,
0,7,7,12,1,,61601e9a6b8306196d2a129c,62bbfa8de61a9153e4d8e9cc,2022-06-29_09h09.36.487,Colour_Asymmetry_Pilot,2022.1.3,Win32,60.0240096,62bbe60bf3d75ef465d3e404,,,,,,,,,,,,,,,,,,,,,,,,,,,,,,,,,,,,,,,,,,,,,,,,,,,,,,,,,,,,,,,,,,,,,,,,,,,,,,,,,,,,,,,,,,,,,,,,,,,,,,,,,,,,,,,,,,,,,,,,,,,,,,,,,,,,,,,,,,,,,,,,,,,,,,,,,,,,,,
0,8,8,14,1,,61601e9a6b8306196d2a129c,62bbfa8de61a9153e4d8e9cc,2022-06-29_09h09.36.487,Colour_Asymmetry_Pilot,2022.1.3,Win32,60.0240096,62bbe60bf3d75ef465d3e404,,,,,,,,,,,,,,,,,,,,,,,,,,,,,,,,,,,,,,,,,,,,,,,,,,,,,,,,,,,,,,,,,,,,,,,,,,,,,,,,,,,,,,,,,,,,,,,,,,,,,,,,,,,,,,,,,,,,,,,,,,,,,,,,,,,,,,,,,,,,,,,,,,,,,,,,,,,,,,
0,9,9,42,1,,61601e9a6b8306196d2a129c,62bbfa8de61a9153e4d8e9cc,2022-06-29_09h09.36.487,Colour_Asymmetry_Pilot,2022.1.3,Win32,60.0240096,62bbe60bf3d75ef465d3e404,,,,,,,,,,,,,,,,,,,,,,,,,,,,,,,,,,,,,,,,,,,,,,,,,,,,,,,,,,,,,,,,,,,,,,,,,,,,,,,,,,,,,,,,,,,,,,,,,,,,,,,,,,,,,,,,,,,,,,,,,,,,,,,,,,,,,,,,,,,,,,,,,,,,,,,,,,,,,,
0,10,10,86,1,,61601e9a6b8306196d2a129c,62bbfa8de61a9153e4d8e9cc,2022-06-29_09h09.36.487,Colour_Asymmetry_Pilot,2022.1.3,Win32,60.0240096,62bbe60bf3d75ef465d3e404,,,,,,,,,,,,,,,,,,,,,,,,,,,,,,,,,,,,,,,,,,,,,,,,,,,,,,,,,,,,,,,,,,,,,,,,,,,,,,,,,,,,,,,,,,,,,,,,,,,,,,,,,,,,,,,,,,,,,,,,,,,,,,,,,,,,,,,,,,,,,,,,,,,,,,,,,,,,,,
0,11,11,66,1,,61601e9a6b8306196d2a129c,62bbfa8de61a9153e4d8e9cc,2022-06-29_09h09.36.487,Colour_Asymmetry_Pilot,2022.1.3,Win32,60.0240096,62bbe60bf3d75ef465d3e404,,,,,,,,,,,,,,,,,,,,,,,,,,,,,,,,,,,,,,,,,,,,,,,,,,,,,,,,,,,,,,,,,,,,,,,,,,,,,,,,,,,,,,,,,,,,,,,,,,,,,,,,,,,,,,,,,,,,,,,,,,,,,,,,,,,,,,,,,,,,,,,,,,,,,,,,,,,,,,
0,12,12,19,1,,61601e9a6b8306196d2a129c,62bbfa8de61a9153e4d8e9cc,2022-06-29_09h09.36.487,Colour_Asymmetry_Pilot,2022.1.3,Win32,60.0240096,62bbe60bf3d75ef465d3e404,,,,,,,,,,,,,,,,,,,,,,,,,,,,,,,,,,,,,,,,,,,,,,,,,,,,,,,,,,,,,,,,,,,,,,,,,,,,,,,,,,,,,,,,,,,,,,,,,,,,,,,,,,,,,,,,,,,,,,,,,,,,,,,,,,,,,,,,,,,,,,,,,,,,,,,,,,,,,,
0,13,13,45,1,,61601e9a6b8306196d2a129c,62bbfa8de61a9153e4d8e9cc,2022-06-29_09h09.36.487,Colour_Asymmetry_Pilot,2022.1.3,Win32,60.0240096,62bbe60bf3d75ef465d3e404,,,,,,,,,,,,,,,,,,,,,,,,,,,,,,,,,,,,,,,,,,,,,,,,,,,,,,,,,,,,,,,,,,,,,,,,,,,,,,,,,,,,,,,,,,,,,,,,,,,,,,,,,,,,,,,,,,,,,,,,,,,,,,,,,,,,,,,,,,,,,,,,,,,,,,,,,,,,,,
0,14,14,69,1,,61601e9a6b8306196d2a129c,62bbfa8de61a9153e4d8e9cc,2022-06-29_09h09.36.487,Colour_Asymmetry_Pilot,2022.1.3,Win32,60.0240096,62bbe60bf3d75ef465d3e404,,,,,,,,,,,,,,,,,,,,,,,,,,,,,,,,,,,,,,,,,,,,,,,,,,,,,,,,,,,,,,,,,,,,,,,,,,,,,,,,,,,,,,,,,,,,,,,,,,,,,,,,,,,,,,,,,,,,,,,,,,,,,,,,,,,,,,,,,,,,,,,,,,,,,,,,,,,,,,
0,15,15,34,1,,61601e9a6b8306196d2a129c,62bbfa8de61a9153e4d8e9cc,2022-06-29_09h09.36.487,Colour_Asymmetry_Pilot,2022.1.3,Win32,60.0240096,62bbe60bf3d75ef465d3e404,,,,,,,,,,,,,,,,,,,,,,,,,,,,,,,,,,,,,,,,,,,,,,,,,,,,,,,,,,,,,,,,,,,,,,,,,,,,,,,,,,,,,,,,,,,,,,,,,,,,,,,,,,,,,,,,,,,,,,,,,,,,,,,,,,,,,,,,,,,,,,,,,,,,,,,,,,,,,,
0,16,16,72,1,,61601e9a6b8306196d2a129c,62bbfa8de61a9153e4d8e9cc,2022-06-29_09h09.36.487,Colour_Asymmetry_Pilot,2022.1.3,Win32,60.0240096,62bbe60bf3d75ef465d3e404,,,,,,,,,,,,,,,,,,,,,,,,,,,,,,,,,,,,,,,,,,,,,,,,,,,,,,,,,,,,,,,,,,,,,,,,,,,,,,,,,,,,,,,,,,,,,,,,,,,,,,,,,,,,,,,,,,,,,,,,,,,,,,,,,,,,,,,,,,,,,,,,,,,,,,,,,,,,,,
0,17,17,0,1,,61601e9a6b8306196d2a129c,62bbfa8de61a9153e4d8e9cc,2022-06-29_09h09.36.487,Colour_Asymmetry_Pilot,2022.1.3,Win32,60.0240096,62bbe60bf3d75ef465d3e404,,,,,,,,,,,,,,,,,,,,,,,,,,,,,,,,,,,,,,,,,,,,,,,,,,,,,,,,,,,,,,,,,,,,,,,,,,,,,,,,,,,,,,,,,,,,,,,,,,,,,,,,,,,,,,,,,,,,,,,,,,,,,,,,,,,,,,,,,,,,,,,,,,,,,,,,,,,,,,
0,18,18,82,1,,61601e9a6b8306196d2a129c,62bbfa8de61a9153e4d8e9cc,2022-06-29_09h09.36.487,Colour_Asymmetry_Pilot,2022.1.3,Win32,60.0240096,62bbe60bf3d75ef465d3e404,,,,,,,,,,,,,,,,,,,,,,,,,,,,,,,,,,,,,,,,,,,,,,,,,,,,,,,,,,,,,,,,,,,,,,,,,,,,,,,,,,,,,,,,,,,,,,,,,,,,,,,,,,,,,,,,,,,,,,,,,,,,,,,,,,,,,,,,,,,,,,,,,,,,,,,,,,,,,,
0,19,19,61,1,,61601e9a6b8306196d2a129c,62bbfa8de61a9153e4d8e9cc,2022-06-29_09h09.36.487,Colour_Asymmetry_Pilot,2022.1.3,Win32,60.0240096,62bbe60bf3d75ef465d3e404,,,,,,,,,,,,,,,,,,,,,,,,,,,,,,,,,,,,,,,,,,,,,,,,,,,,,,,,,,,,,,,,,,,,,,,,,,,,,,,,,,,,,,,,,,,,,,,,,,,,,,,,,,,,,,,,,,,,,,,,,,,,,,,,,,,,,,,,,,,,,,,,,,,,,,,,,,,,,,
0,20,20,56,1,,61601e9a6b8306196d2a129c,62bbfa8de61a9153e4d8e9cc,2022-06-29_09h09.36.487,Colour_Asymmetry_Pilot,2022.1.3,Win32,60.0240096,62bbe60bf3d75ef465d3e404,,,,,,,,,,,,,,,,,,,,,,,,,,,,,,,,,,,,,,,,,,,,,,,,,,,,,,,,,,,,,,,,,,,,,,,,,,,,,,,,,,,,,,,,,,,,,,,,,,,,,,,,,,,,,,,,,,,,,,,,,,,,,,,,,,,,,,,,,,,,,,,,,,,,,,,,,,,,,,
0,21,21,36,1,,61601e9a6b8306196d2a129c,62bbfa8de61a9153e4d8e9cc,2022-06-29_09h09.36.487,Colour_Asymmetry_Pilot,2022.1.3,Win32,60.0240096,62bbe60bf3d75ef465d3e404,,,,,,,,,,,,,,,,,,,,,,,,,,,,,,,,,,,,,,,,,,,,,,,,,,,,,,,,,,,,,,,,,,,,,,,,,,,,,,,,,,,,,,,,,,,,,,,,,,,,,,,,,,,,,,,,,,,,,,,,,,,,,,,,,,,,,,,,,,,,,,,,,,,,,,,,,,,,,,
0,22,22,43,1,,61601e9a6b8306196d2a129c,62bbfa8de61a9153e4d8e9cc,2022-06-29_09h09.36.487,Colour_Asymmetry_Pilot,2022.1.3,Win32,60.0240096,62bbe60bf3d75ef465d3e404,,,,,,,,,,,,,,,,,,,,,,,,,,,,,,,,,,,,,,,,,,,,,,,,,,,,,,,,,,,,,,,,,,,,,,,,,,,,,,,,,,,,,,,,,,,,,,,,,,,,,,,,,,,,,,,,,,,,,,,,,,,,,,,,,,,,,,,,,,,,,,,,,,,,,,,,,,,,,,
0,23,23,6,1,,61601e9a6b8306196d2a129c,62bbfa8de61a9153e4d8e9cc,2022-06-29_09h09.36.487,Colour_Asymmetry_Pilot,2022.1.3,Win32,60.0240096,62bbe60bf3d75ef465d3e404,,,,,,,,,,,,,,,,,,,,,,,,,,,,,,,,,,,,,,,,,,,,,,,,,,,,,,,,,,,,,,,,,,,,,,,,,,,,,,,,,,,,,,,,,,,,,,,,,,,,,,,,,,,,,,,,,,,,,,,,,,,,,,,,,,,,,,,,,,,,,,,,,,,,,,,,,,,,,,
0,24,24,54,1,,61601e9a6b8306196d2a129c,62bbfa8de61a9153e4d8e9cc,2022-06-29_09h09.36.487,Colour_Asymmetry_Pilot,2022.1.3,Win32,60.0240096,62bbe60bf3d75ef465d3e404,,,,,,,,,,,,,,,,,,,,,,,,,,,,,,,,,,,,,,,,,,,,,,,,,,,,,,,,,,,,,,,,,,,,,,,,,,,,,,,,,,,,,,,,,,,,,,,,,,,,,,,,,,,,,,,,,,,,,,,,,,,,,,,,,,,,,,,,,,,,,,,,,,,,,,,,,,,,,,
0,25,25,57,1,,61601e9a6b8306196d2a129c,62bbfa8de61a9153e4d8e9cc,2022-06-29_09h09.36.487,Colour_Asymmetry_Pilot,2022.1.3,Win32,60.0240096,62bbe60bf3d75ef465d3e404,,,,,,,,,,,,,,,,,,,,,,,,,,,,,,,,,,,,,,,,,,,,,,,,,,,,,,,,,,,,,,,,,,,,,,,,,,,,,,,,,,,,,,,,,,,,,,,,,,,,,,,,,,,,,,,,,,,,,,,,,,,,,,,,,,,,,,,,,,,,,,,,,,,,,,,,,,,,,,
0,26,26,83,1,,61601e9a6b8306196d2a129c,62bbfa8de61a9153e4d8e9cc,2022-06-29_09h09.36.487,Colour_Asymmetry_Pilot,2022.1.3,Win32,60.0240096,62bbe60bf3d75ef465d3e404,,,,,,,,,,,,,,,,,,,,,,,,,,,,,,,,,,,,,,,,,,,,,,,,,,,,,,,,,,,,,,,,,,,,,,,,,,,,,,,,,,,,,,,,,,,,,,,,,,,,,,,,,,,,,,,,,,,,,,,,,,,,,,,,,,,,,,,,,,,,,,,,,,,,,,,,,,,,,,
0,27,27,70,1,,61601e9a6b8306196d2a129c,62bbfa8de61a9153e4d8e9cc,2022-06-29_09h09.36.487,Colour_Asymmetry_Pilot,2022.1.3,Win32,60.0240096,62bbe60bf3d75ef465d3e404,,,,,,,,,,,,,,,,,,,,,,,,,,,,,,,,,,,,,,,,,,,,,,,,,,,,,,,,,,,,,,,,,,,,,,,,,,,,,,,,,,,,,,,,,,,,,,,,,,,,,,,,,,,,,,,,,,,,,,,,,,,,,,,,,,,,,,,,,,,,,,,,,,,,,,,,,,,,,,
0,28,28,17,1,,61601e9a6b8306196d2a129c,62bbfa8de61a9153e4d8e9cc,2022-06-29_09h09.36.487,Colour_Asymmetry_Pilot,2022.1.3,Win32,60.0240096,62bbe60bf3d75ef465d3e404,,,,,,,,,,,,,,,,,,,,,,,,,,,,,,,,,,,,,,,,,,,,,,,,,,,,,,,,,,,,,,,,,,,,,,,,,,,,,,,,,,,,,,,,,,,,,,,,,,,,,,,,,,,,,,,,,,,,,,,,,,,,,,,,,,,,,,,,,,,,,,,,,,,,,,,,,,,,,,
0,29,29,41,1,,61601e9a6b8306196d2a129c,62bbfa8de61a9153e4d8e9cc,2022-06-29_09h09.36.487,Colour_Asymmetry_Pilot,2022.1.3,Win32,60.0240096,62bbe60bf3d75ef465d3e404,,,,,,,,,,,,,,,,,,,,,,,,,,,,,,,,,,,,,,,,,,,,,,,,,,,,,,,,,,,,,,,,,,,,,,,,,,,,,,,,,,,,,,,,,,,,,,,,,,,,,,,,,,,,,,,,,,,,,,,,,,,,,,,,,,,,,,,,,,,,,,,,,,,,,,,,,,,,,,
0,30,30,44,1,,61601e9a6b8306196d2a129c,62bbfa8de61a9153e4d8e9cc,2022-06-29_09h09.36.487,Colour_Asymmetry_Pilot,2022.1.3,Win32,60.0240096,62bbe60bf3d75ef465d3e404,,,,,,,,,,,,,,,,,,,,,,,,,,,,,,,,,,,,,,,,,,,,,,,,,,,,,,,,,,,,,,,,,,,,,,,,,,,,,,,,,,,,,,,,,,,,,,,,,,,,,,,,,,,,,,,,,,,,,,,,,,,,,,,,,,,,,,,,,,,,,,,,,,,,,,,,,,,,,,
0,31,31,53,1,,61601e9a6b8306196d2a129c,62bbfa8de61a9153e4d8e9cc,2022-06-29_09h09.36.487,Colour_Asymmetry_Pilot,2022.1.3,Win32,60.0240096,62bbe60bf3d75ef465d3e404,,,,,,,,,,,,,,,,,,,,,,,,,,,,,,,,,,,,,,,,,,,,,,,,,,,,,,,,,,,,,,,,,,,,,,,,,,,,,,,,,,,,,,,,,,,,,,,,,,,,,,,,,,,,,,,,,,,,,,,,,,,,,,,,,,,,,,,,,,,,,,,,,,,,,,,,,,,,,,
0,32,32,80,1,,61601e9a6b8306196d2a129c,62bbfa8de61a9153e4d8e9cc,2022-06-29_09h09.36.487,Colour_Asymmetry_Pilot,2022.1.3,Win32,60.0240096,62bbe60bf3d75ef465d3e404,,,,,,,,,,,,,,,,,,,,,,,,,,,,,,,,,,,,,,,,,,,,,,,,,,,,,,,,,,,,,,,,,,,,,,,,,,,,,,,,,,,,,,,,,,,,,,,,,,,,,,,,,,,,,,,,,,,,,,,,,,,,,,,,,,,,,,,,,,,,,,,,,,,,,,,,,,,,,,
0,33,33,20,1,,61601e9a6b8306196d2a129c,62bbfa8de61a9153e4d8e9cc,2022-06-29_09h09.36.487,Colour_Asymmetry_Pilot,2022.1.3,Win32,60.0240096,62bbe60bf3d75ef465d3e404,,,,,,,,,,,,,,,,,,,,,,,,,,,,,,,,,,,,,,,,,,,,,,,,,,,,,,,,,,,,,,,,,,,,,,,,,,,,,,,,,,,,,,,,,,,,,,,,,,,,,,,,,,,,,,,,,,,,,,,,,,,,,,,,,,,,,,,,,,,,,,,,,,,,,,,,,,,,,,
0,34,34,89,1,,61601e9a6b8306196d2a129c,62bbfa8de61a9153e4d8e9cc,2022-06-29_09h09.36.487,Colour_Asymmetry_Pilot,2022.1.3,Win32,60.0240096,62bbe60bf3d75ef465d3e404,,,,,,,,,,,,,,,,,,,,,,,,,,,,,,,,,,,,,,,,,,,,,,,,,,,,,,,,,,,,,,,,,,,,,,,,,,,,,,,,,,,,,,,,,,,,,,,,,,,,,,,,,,,,,,,,,,,,,,,,,,,,,,,,,,,,,,,,,,,,,,,,,,,,,,,,,,,,,,
0,35,35,50,1,,61601e9a6b8306196d2a129c,62bbfa8de61a9153e4d8e9cc,2022-06-29_09h09.36.487,Colour_Asymmetry_Pilot,2022.1.3,Win32,60.0240096,62bbe60bf3d75ef465d3e404,,,,,,,,,,,,,,,,,,,,,,,,,,,,,,,,,,,,,,,,,,,,,,,,,,,,,,,,,,,,,,,,,,,,,,,,,,,,,,,,,,,,,,,,,,,,,,,,,,,,,,,,,,,,,,,,,,,,,,,,,,,,,,,,,,,,,,,,,,,,,,,,,,,,,,,,,,,,,,
0,36,36,92,1,,61601e9a6b8306196d2a129c,62bbfa8de61a9153e4d8e9cc,2022-06-29_09h09.36.487,Colour_Asymmetry_Pilot,2022.1.3,Win32,60.0240096,62bbe60bf3d75ef465d3e404,,,,,,,,,,,,,,,,,,,,,,,,,,,,,,,,,,,,,,,,,,,,,,,,,,,,,,,,,,,,,,,,,,,,,,,,,,,,,,,,,,,,,,,,,,,,,,,,,,,,,,,,,,,,,,,,,,,,,,,,,,,,,,,,,,,,,,,,,,,,,,,,,,,,,,,,,,,,,,
0,37,37,21,1,,61601e9a6b8306196d2a129c,62bbfa8de61a9153e4d8e9cc,2022-06-29_09h09.36.487,Colour_Asymmetry_Pilot,2022.1.3,Win32,60.0240096,62bbe60bf3d75ef465d3e404,,,,,,,,,,,,,,,,,,,,,,,,,,,,,,,,,,,,,,,,,,,,,,,,,,,,,,,,,,,,,,,,,,,,,,,,,,,,,,,,,,,,,,,,,,,,,,,,,,,,,,,,,,,,,,,,,,,,,,,,,,,,,,,,,,,,,,,,,,,,,,,,,,,,,,,,,,,,,,
0,38,38,75,1,,61601e9a6b8306196d2a129c,62bbfa8de61a9153e4d8e9cc,2022-06-29_09h09.36.487,Colour_Asymmetry_Pilot,2022.1.3,Win32,60.0240096,62bbe60bf3d75ef465d3e404,,,,,,,,,,,,,,,,,,,,,,,,,,,,,,,,,,,,,,,,,,,,,,,,,,,,,,,,,,,,,,,,,,,,,,,,,,,,,,,,,,,,,,,,,,,,,,,,,,,,,,,,,,,,,,,,,,,,,,,,,,,,,,,,,,,,,,,,,,,,,,,,,,,,,,,,,,,,,,
0,39,39,88,1,,61601e9a6b8306196d2a129c,62bbfa8de61a9153e4d8e9cc,2022-06-29_09h09.36.487,Colour_Asymmetry_Pilot,2022.1.3,Win32,60.0240096,62bbe60bf3d75ef465d3e404,,,,,,,,,,,,,,,,,,,,,,,,,,,,,,,,,,,,,,,,,,,,,,,,,,,,,,,,,,,,,,,,,,,,,,,,,,,,,,,,,,,,,,,,,,,,,,,,,,,,,,,,,,,,,,,,,,,,,,,,,,,,,,,,,,,,,,,,,,,,,,,,,,,,,,,,,,,,,,
0,40,40,91,1,,61601e9a6b8306196d2a129c,62bbfa8de61a9153e4d8e9cc,2022-06-29_09h09.36.487,Colour_Asymmetry_Pilot,2022.1.3,Win32,60.0240096,62bbe60bf3d75ef465d3e404,,,,,,,,,,,,,,,,,,,,,,,,,,,,,,,,,,,,,,,,,,,,,,,,,,,,,,,,,,,,,,,,,,,,,,,,,,,,,,,,,,,,,,,,,,,,,,,,,,,,,,,,,,,,,,,,,,,,,,,,,,,,,,,,,,,,,,,,,,,,,,,,,,,,,,,,,,,,,,
0,41,41,1,1,,61601e9a6b8306196d2a129c,62bbfa8de61a9153e4d8e9cc,2022-06-29_09h09.36.487,Colour_Asymmetry_Pilot,2022.1.3,Win32,60.0240096,62bbe60bf3d75ef465d3e404,,,,,,,,,,,,,,,,,,,,,,,,,,,,,,,,,,,,,,,,,,,,,,,,,,,,,,,,,,,,,,,,,,,,,,,,,,,,,,,,,,,,,,,,,,,,,,,,,,,,,,,,,,,,,,,,,,,,,,,,,,,,,,,,,,,,,,,,,,,,,,,,,,,,,,,,,,,,,,
0,42,42,46,1,,61601e9a6b8306196d2a129c,62bbfa8de61a9153e4d8e9cc,2022-06-29_09h09.36.487,Colour_Asymmetry_Pilot,2022.1.3,Win32,60.0240096,62bbe60bf3d75ef465d3e404,,,,,,,,,,,,,,,,,,,,,,,,,,,,,,,,,,,,,,,,,,,,,,,,,,,,,,,,,,,,,,,,,,,,,,,,,,,,,,,,,,,,,,,,,,,,,,,,,,,,,,,,,,,,,,,,,,,,,,,,,,,,,,,,,,,,,,,,,,,,,,,,,,,,,,,,,,,,,,
0,43,43,15,1,,61601e9a6b8306196d2a129c,62bbfa8de61a9153e4d8e9cc,2022-06-29_09h09.36.487,Colour_Asymmetry_Pilot,2022.1.3,Win32,60.0240096,62bbe60bf3d75ef465d3e404,,,,,,,,,,,,,,,,,,,,,,,,,,,,,,,,,,,,,,,,,,,,,,,,,,,,,,,,,,,,,,,,,,,,,,,,,,,,,,,,,,,,,,,,,,,,,,,,,,,,,,,,,,,,,,,,,,,,,,,,,,,,,,,,,,,,,,,,,,,,,,,,,,,,,,,,,,,,,,
0,44,44,47,1,,61601e9a6b8306196d2a129c,62bbfa8de61a9153e4d8e9cc,2022-06-29_09h09.36.487,Colour_Asymmetry_Pilot,2022.1.3,Win32,60.0240096,62bbe60bf3d75ef465d3e404,,,,,,,,,,,,,,,,,,,,,,,,,,,,,,,,,,,,,,,,,,,,,,,,,,,,,,,,,,,,,,,,,,,,,,,,,,,,,,,,,,,,,,,,,,,,,,,,,,,,,,,,,,,,,,,,,,,,,,,,,,,,,,,,,,,,,,,,,,,,,,,,,,,,,,,,,,,,,,
0,45,45,90,1,,61601e9a6b8306196d2a129c,62bbfa8de61a9153e4d8e9cc,2022-06-29_09h09.36.487,Colour_Asymmetry_Pilot,2022.1.3,Win32,60.0240096,62bbe60bf3d75ef465d3e404,,,,,,,,,,,,,,,,,,,,,,,,,,,,,,,,,,,,,,,,,,,,,,,,,,,,,,,,,,,,,,,,,,,,,,,,,,,,,,,,,,,,,,,,,,,,,,,,,,,,,,,,,,,,,,,,,,,,,,,,,,,,,,,,,,,,,,,,,,,,,,,,,,,,,,,,,,,,,,
0,46,46,84,1,,61601e9a6b8306196d2a129c,62bbfa8de61a9153e4d8e9cc,2022-06-29_09h09.36.487,Colour_Asymmetry_Pilot,2022.1.3,Win32,60.0240096,62bbe60bf3d75ef465d3e404,,,,,,,,,,,,,,,,,,,,,,,,,,,,,,,,,,,,,,,,,,,,,,,,,,,,,,,,,,,,,,,,,,,,,,,,,,,,,,,,,,,,,,,,,,,,,,,,,,,,,,,,,,,,,,,,,,,,,,,,,,,,,,,,,,,,,,,,,,,,,,,,,,,,,,,,,,,,,,
0,47,47,25,1,,61601e9a6b8306196d2a129c,62bbfa8de61a9153e4d8e9cc,2022-06-29_09h09.36.487,Colour_Asymmetry_Pilot,2022.1.3,Win32,60.0240096,62bbe60bf3d75ef465d3e404,,,,,,,,,,,,,,,,,,,,,,,,,,,,,,,,,,,,,,,,,,,,,,,,,,,,,,,,,,,,,,,,,,,,,,,,,,,,,,,,,,,,,,,,,,,,,,,,,,,,,,,,,,,,,,,,,,,,,,,,,,,,,,,,,,,,,,,,,,,,,,,,,,,,,,,,,,,,,,
0,48,48,73,1,,61601e9a6b8306196d2a129c,62bbfa8de61a9153e4d8e9cc,2022-06-29_09h09.36.487,Colour_Asymmetry_Pilot,2022.1.3,Win32,60.0240096,62bbe60bf3d75ef465d3e404,,,,,,,,,,,,,,,,,,,,,,,,,,,,,,,,,,,,,,,,,,,,,,,,,,,,,,,,,,,,,,,,,,,,,,,,,,,,,,,,,,,,,,,,,,,,,,,,,,,,,,,,,,,,,,,,,,,,,,,,,,,,,,,,,,,,,,,,,,,,,,,,,,,,,,,,,,,,,,
0,49,49,7,1,,61601e9a6b8306196d2a129c,62bbfa8de61a9153e4d8e9cc,2022-06-29_09h09.36.487,Colour_Asymmetry_Pilot,2022.1.3,Win32,60.0240096,62bbe60bf3d75ef465d3e404,,,,,,,,,,,,,,,,,,,,,,,,,,,,,,,,,,,,,,,,,,,,,,,,,,,,,,,,,,,,,,,,,,,,,,,,,,,,,,,,,,,,,,,,,,,,,,,,,,,,,,,,,,,,,,,,,,,,,,,,,,,,,,,,,,,,,,,,,,,,,,,,,,,,,,,,,,,,,,
0,50,50,31,1,,61601e9a6b8306196d2a129c,62bbfa8de61a9153e4d8e9cc,2022-06-29_09h09.36.487,Colour_Asymmetry_Pilot,2022.1.3,Win32,60.0240096,62bbe60bf3d75ef465d3e404,,,,,,,,,,,,,,,,,,,,,,,,,,,,,,,,,,,,,,,,,,,,,,,,,,,,,,,,,,,,,,,,,,,,,,,,,,,,,,,,,,,,,,,,,,,,,,,,,,,,,,,,,,,,,,,,,,,,,,,,,,,,,,,,,,,,,,,,,,,,,,,,,,,,,,,,,,,,,,
0,51,51,9,1,,61601e9a6b8306196d2a129c,62bbfa8de61a9153e4d8e9cc,2022-06-29_09h09.36.487,Colour_Asymmetry_Pilot,2022.1.3,Win32,60.0240096,62bbe60bf3d75ef465d3e404,,,,,,,,,,,,,,,,,,,,,,,,,,,,,,,,,,,,,,,,,,,,,,,,,,,,,,,,,,,,,,,,,,,,,,,,,,,,,,,,,,,,,,,,,,,,,,,,,,,,,,,,,,,,,,,,,,,,,,,,,,,,,,,,,,,,,,,,,,,,,,,,,,,,,,,,,,,,,,
0,52,52,85,1,,61601e9a6b8306196d2a129c,62bbfa8de61a9153e4d8e9cc,2022-06-29_09h09.36.487,Colour_Asymmetry_Pilot,2022.1.3,Win32,60.0240096,62bbe60bf3d75ef465d3e404,,,,,,,,,,,,,,,,,,,,,,,,,,,,,,,,,,,,,,,,,,,,,,,,,,,,,,,,,,,,,,,,,,,,,,,,,,,,,,,,,,,,,,,,,,,,,,,,,,,,,,,,,,,,,,,,,,,,,,,,,,,,,,,,,,,,,,,,,,,,,,,,,,,,,,,,,,,,,,
0,53,53,23,1,,61601e9a6b8306196d2a129c,62bbfa8de61a9153e4d8e9cc,2022-06-29_09h09.36.487,Colour_Asymmetry_Pilot,2022.1.3,Win32,60.0240096,62bbe60bf3d75ef465d3e404,,,,,,,,,,,,,,,,,,,,,,,,,,,,,,,,,,,,,,,,,,,,,,,,,,,,,,,,,,,,,,,,,,,,,,,,,,,,,,,,,,,,,,,,,,,,,,,,,,,,,,,,,,,,,,,,,,,,,,,,,,,,,,,,,,,,,,,,,,,,,,,,,,,,,,,,,,,,,,
0,54,54,74,1,,61601e9a6b8306196d2a129c,62bbfa8de61a9153e4d8e9cc,2022-06-29_09h09.36.487,Colour_Asymmetry_Pilot,2022.1.3,Win32,60.0240096,62bbe60bf3d75ef465d3e404,,,,,,,,,,,,,,,,,,,,,,,,,,,,,,,,,,,,,,,,,,,,,,,,,,,,,,,,,,,,,,,,,,,,,,,,,,,,,,,,,,,,,,,,,,,,,,,,,,,,,,,,,,,,,,,,,,,,,,,,,,,,,,,,,,,,,,,,,,,,,,,,,,,,,,,,,,,,,,
0,55,55,59,1,,61601e9a6b8306196d2a129c,62bbfa8de61a9153e4d8e9cc,2022-06-29_09h09.36.487,Colour_Asymmetry_Pilot,2022.1.3,Win32,60.0240096,62bbe60bf3d75ef465d3e404,,,,,,,,,,,,,,,,,,,,,,,,,,,,,,,,,,,,,,,,,,,,,,,,,,,,,,,,,,,,,,,,,,,,,,,,,,,,,,,,,,,,,,,,,,,,,,,,,,,,,,,,,,,,,,,,,,,,,,,,,,,,,,,,,,,,,,,,,,,,,,,,,,,,,,,,,,,,,,
0,56,56,4,1,,61601e9a6b8306196d2a129c,62bbfa8de61a9153e4d8e9cc,2022-06-29_09h09.36.487,Colour_Asymmetry_Pilot,2022.1.3,Win32,60.0240096,62bbe60bf3d75ef465d3e404,,,,,,,,,,,,,,,,,,,,,,,,,,,,,,,,,,,,,,,,,,,,,,,,,,,,,,,,,,,,,,,,,,,,,,,,,,,,,,,,,,,,,,,,,,,,,,,,,,,,,,,,,,,,,,,,,,,,,,,,,,,,,,,,,,,,,,,,,,,,,,,,,,,,,,,,,,,,,,
0,57,57,27,1,,61601e9a6b8306196d2a129c,62bbfa8de61a9153e4d8e9cc,2022-06-29_09h09.36.487,Colour_Asymmetry_Pilot,2022.1.3,Win32,60.0240096,62bbe60bf3d75ef465d3e404,,,,,,,,,,,,,,,,,,,,,,,,,,,,,,,,,,,,,,,,,,,,,,,,,,,,,,,,,,,,,,,,,,,,,,,,,,,,,,,,,,,,,,,,,,,,,,,,,,,,,,,,,,,,,,,,,,,,,,,,,,,,,,,,,,,,,,,,,,,,,,,,,,,,,,,,,,,,,,
0,58,58,68,1,,61601e9a6b8306196d2a129c,62bbfa8de61a9153e4d8e9cc,2022-06-29_09h09.36.487,Colour_Asymmetry_Pilot,2022.1.3,Win32,60.0240096,62bbe60bf3d75ef465d3e404,,,,,,,,,,,,,,,,,,,,,,,,,,,,,,,,,,,,,,,,,,,,,,,,,,,,,,,,,,,,,,,,,,,,,,,,,,,,,,,,,,,,,,,,,,,,,,,,,,,,,,,,,,,,,,,,,,,,,,,,,,,,,,,,,,,,,,,,,,,,,,,,,,,,,,,,,,,,,,
0,59,59,32,1,,61601e9a6b8306196d2a129c,62bbfa8de61a9153e4d8e9cc,2022-06-29_09h09.36.487,Colour_Asymmetry_Pilot,2022.1.3,Win32,60.0240096,62bbe60bf3d75ef465d3e404,,,,,,,,,,,,,,,,,,,,,,,,,,,,,,,,,,,,,,,,,,,,,,,,,,,,,,,,,,,,,,,,,,,,,,,,,,,,,,,,,,,,,,,,,,,,,,,,,,,,,,,,,,,,,,,,,,,,,,,,,,,,,,,,,,,,,,,,,,,,,,,,,,,,,,,,,,,,,,
0,60,60,2,1,,61601e9a6b8306196d2a129c,62bbfa8de61a9153e4d8e9cc,2022-06-29_09h09.36.487,Colour_Asymmetry_Pilot,2022.1.3,Win32,60.0240096,62bbe60bf3d75ef465d3e404,,,,,,,,,,,,,,,,,,,,,,,,,,,,,,,,,,,,,,,,,,,,,,,,,,,,,,,,,,,,,,,,,,,,,,,,,,,,,,,,,,,,,,,,,,,,,,,,,,,,,,,,,,,,,,,,,,,,,,,,,,,,,,,,,,,,,,,,,,,,,,,,,,,,,,,,,,,,,,
0,61,61,33,1,,61601e9a6b8306196d2a129c,62bbfa8de61a9153e4d8e9cc,2022-06-29_09h09.36.487,Colour_Asymmetry_Pilot,2022.1.3,Win32,60.0240096,62bbe60bf3d75ef465d3e404,,,,,,,,,,,,,,,,,,,,,,,,,,,,,,,,,,,,,,,,,,,,,,,,,,,,,,,,,,,,,,,,,,,,,,,,,,,,,,,,,,,,,,,,,,,,,,,,,,,,,,,,,,,,,,,,,,,,,,,,,,,,,,,,,,,,,,,,,,,,,,,,,,,,,,,,,,,,,,
0,62,62,67,1,,61601e9a6b8306196d2a129c,62bbfa8de61a9153e4d8e9cc,2022-06-29_09h09.36.487,Colour_Asymmetry_Pilot,2022.1.3,Win32,60.0240096,62bbe60bf3d75ef465d3e404,,,,,,,,,,,,,,,,,,,,,,,,,,,,,,,,,,,,,,,,,,,,,,,,,,,,,,,,,,,,,,,,,,,,,,,,,,,,,,,,,,,,,,,,,,,,,,,,,,,,,,,,,,,,,,,,,,,,,,,,,,,,,,,,,,,,,,,,,,,,,,,,,,,,,,,,,,,,,,
0,63,63,49,1,,61601e9a6b8306196d2a129c,62bbfa8de61a9153e4d8e9cc,2022-06-29_09h09.36.487,Colour_Asymmetry_Pilot,2022.1.3,Win32,60.0240096,62bbe60bf3d75ef465d3e404,,,,,,,,,,,,,,,,,,,,,,,,,,,,,,,,,,,,,,,,,,,,,,,,,,,,,,,,,,,,,,,,,,,,,,,,,,,,,,,,,,,,,,,,,,,,,,,,,,,,,,,,,,,,,,,,,,,,,,,,,,,,,,,,,,,,,,,,,,,,,,,,,,,,,,,,,,,,,,
0,64,64,18,1,,61601e9a6b8306196d2a129c,62bbfa8de61a9153e4d8e9cc,2022-06-29_09h09.36.487,Colour_Asymmetry_Pilot,2022.1.3,Win32,60.0240096,62bbe60bf3d75ef465d3e404,,,,,,,,,,,,,,,,,,,,,,,,,,,,,,,,,,,,,,,,,,,,,,,,,,,,,,,,,,,,,,,,,,,,,,,,,,,,,,,,,,,,,,,,,,,,,,,,,,,,,,,,,,,,,,,,,,,,,,,,,,,,,,,,,,,,,,,,,,,,,,,,,,,,,,,,,,,,,,
0,65,65,35,1,,61601e9a6b8306196d2a129c,62bbfa8de61a9153e4d8e9cc,2022-06-29_09h09.36.487,Colour_Asymmetry_Pilot,2022.1.3,Win32,60.0240096,62bbe60bf3d75ef465d3e404,,,,,,,,,,,,,,,,,,,,,,,,,,,,,,,,,,,,,,,,,,,,,,,,,,,,,,,,,,,,,,,,,,,,,,,,,,,,,,,,,,,,,,,,,,,,,,,,,,,,,,,,,,,,,,,,,,,,,,,,,,,,,,,,,,,,,,,,,,,,,,,,,,,,,,,,,,,,,,
0,66,66,5,1,,61601e9a6b8306196d2a129c,62bbfa8de61a9153e4d8e9cc,2022-06-29_09h09.36.487,Colour_Asymmetry_Pilot,2022.1.3,Win32,60.0240096,62bbe60bf3d75ef465d3e404,,,,,,,,,,,,,,,,,,,,,,,,,,,,,,,,,,,,,,,,,,,,,,,,,,,,,,,,,,,,,,,,,,,,,,,,,,,,,,,,,,,,,,,,,,,,,,,,,,,,,,,,,,,,,,,,,,,,,,,,,,,,,,,,,,,,,,,,,,,,,,,,,,,,,,,,,,,,,,
0,67,67,22,1,,61601e9a6b8306196d2a129c,62bbfa8de61a9153e4d8e9cc,2022-06-29_09h09.36.487,Colour_Asymmetry_Pilot,2022.1.3,Win32,60.0240096,62bbe60bf3d75ef465d3e404,,,,,,,,,,,,,,,,,,,,,,,,,,,,,,,,,,,,,,,,,,,,,,,,,,,,,,,,,,,,,,,,,,,,,,,,,,,,,,,,,,,,,,,,,,,,,,,,,,,,,,,,,,,,,,,,,,,,,,,,,,,,,,,,,,,,,,,,,,,,,,,,,,,,,,,,,,,,,,
0,68,68,38,1,,61601e9a6b8306196d2a129c,62bbfa8de61a9153e4d8e9cc,2022-06-29_09h09.36.487,Colour_Asymmetry_Pilot,2022.1.3,Win32,60.0240096,62bbe60bf3d75ef465d3e404,,,,,,,,,,,,,,,,,,,,,,,,,,,,,,,,,,,,,,,,,,,,,,,,,,,,,,,,,,,,,,,,,,,,,,,,,,,,,,,,,,,,,,,,,,,,,,,,,,,,,,,,,,,,,,,,,,,,,,,,,,,,,,,,,,,,,,,,,,,,,,,,,,,,,,,,,,,,,,
0,69,69,51,1,,61601e9a6b8306196d2a129c,62bbfa8de61a9153e4d8e9cc,2022-06-29_09h09.36.487,Colour_Asymmetry_Pilot,2022.1.3,Win32,60.0240096,62bbe60bf3d75ef465d3e404,,,,,,,,,,,,,,,,,,,,,,,,,,,,,,,,,,,,,,,,,,,,,,,,,,,,,,,,,,,,,,,,,,,,,,,,,,,,,,,,,,,,,,,,,,,,,,,,,,,,,,,,,,,,,,,,,,,,,,,,,,,,,,,,,,,,,,,,,,,,,,,,,,,,,,,,,,,,,,
0,70,70,29,1,,61601e9a6b8306196d2a129c,62bbfa8de61a9153e4d8e9cc,2022-06-29_09h09.36.487,Colour_Asymmetry_Pilot,2022.1.3,Win32,60.0240096,62bbe60bf3d75ef465d3e404,,,,,,,,,,,,,,,,,,,,,,,,,,,,,,,,,,,,,,,,,,,,,,,,,,,,,,,,,,,,,,,,,,,,,,,,,,,,,,,,,,,,,,,,,,,,,,,,,,,,,,,,,,,,,,,,,,,,,,,,,,,,,,,,,,,,,,,,,,,,,,,,,,,,,,,,,,,,,,
0,71,71,39,1,,61601e9a6b8306196d2a129c,62bbfa8de61a9153e4d8e9cc,2022-06-29_09h09.36.487,Colour_Asymmetry_Pilot,2022.1.3,Win32,60.0240096,62bbe60bf3d75ef465d3e404,,,,,,,,,,,,,,,,,,,,,,,,,,,,,,,,,,,,,,,,,,,,,,,,,,,,,,,,,,,,,,,,,,,,,,,,,,,,,,,,,,,,,,,,,,,,,,,,,,,,,,,,,,,,,,,,,,,,,,,,,,,,,,,,,,,,,,,,,,,,,,,,,,,,,,,,,,,,,,
0,72,72,24,1,,61601e9a6b8306196d2a129c,62bbfa8de61a9153e4d8e9cc,2022-06-29_09h09.36.487,Colour_Asymmetry_Pilot,2022.1.3,Win32,60.0240096,62bbe60bf3d75ef465d3e404,,,,,,,,,,,,,,,,,,,,,,,,,,,,,,,,,,,,,,,,,,,,,,,,,,,,,,,,,,,,,,,,,,,,,,,,,,,,,,,,,,,,,,,,,,,,,,,,,,,,,,,,,,,,,,,,,,,,,,,,,,,,,,,,,,,,,,,,,,,,,,,,,,,,,,,,,,,,,,
0,73,73,28,1,,61601e9a6b8306196d2a129c,62bbfa8de61a9153e4d8e9cc,2022-06-29_09h09.36.487,Colour_Asymmetry_Pilot,2022.1.3,Win32,60.0240096,62bbe60bf3d75ef465d3e404,,,,,,,,,,,,,,,,,,,,,,,,,,,,,,,,,,,,,,,,,,,,,,,,,,,,,,,,,,,,,,,,,,,,,,,,,,,,,,,,,,,,,,,,,,,,,,,,,,,,,,,,,,,,,,,,,,,,,,,,,,,,,,,,,,,,,,,,,,,,,,,,,,,,,,,,,,,,,,
0,74,74,71,1,,61601e9a6b8306196d2a129c,62bbfa8de61a9153e4d8e9cc,2022-06-29_09h09.36.487,Colour_Asymmetry_Pilot,2022.1.3,Win32,60.0240096,62bbe60bf3d75ef465d3e404,,,,,,,,,,,,,,,,,,,,,,,,,,,,,,,,,,,,,,,,,,,,,,,,,,,,,,,,,,,,,,,,,,,,,,,,,,,,,,,,,,,,,,,,,,,,,,,,,,,,,,,,,,,,,,,,,,,,,,,,,,,,,,,,,,,,,,,,,,,,,,,,,,,,,,,,,,,,,,
0,75,75,13,1,,61601e9a6b8306196d2a129c,62bbfa8de61a9153e4d8e9cc,2022-06-29_09h09.36.487,Colour_Asymmetry_Pilot,2022.1.3,Win32,60.0240096,62bbe60bf3d75ef465d3e404,,,,,,,,,,,,,,,,,,,,,,,,,,,,,,,,,,,,,,,,,,,,,,,,,,,,,,,,,,,,,,,,,,,,,,,,,,,,,,,,,,,,,,,,,,,,,,,,,,,,,,,,,,,,,,,,,,,,,,,,,,,,,,,,,,,,,,,,,,,,,,,,,,,,,,,,,,,,,,
0,76,76,62,1,,61601e9a6b8306196d2a129c,62bbfa8de61a9153e4d8e9cc,2022-06-29_09h09.36.487,Colour_Asymmetry_Pilot,2022.1.3,Win32,60.0240096,62bbe60bf3d75ef465d3e404,,,,,,,,,,,,,,,,,,,,,,,,,,,,,,,,,,,,,,,,,,,,,,,,,,,,,,,,,,,,,,,,,,,,,,,,,,,,,,,,,,,,,,,,,,,,,,,,,,,,,,,,,,,,,,,,,,,,,,,,,,,,,,,,,,,,,,,,,,,,,,,,,,,,,,,,,,,,,,
0,77,77,10,1,,61601e9a6b8306196d2a129c,62bbfa8de61a9153e4d8e9cc,2022-06-29_09h09.36.487,Colour_Asymmetry_Pilot,2022.1.3,Win32,60.0240096,62bbe60bf3d75ef465d3e404,,,,,,,,,,,,,,,,,,,,,,,,,,,,,,,,,,,,,,,,,,,,,,,,,,,,,,,,,,,,,,,,,,,,,,,,,,,,,,,,,,,,,,,,,,,,,,,,,,,,,,,,,,,,,,,,,,,,,,,,,,,,,,,,,,,,,,,,,,,,,,,,,,,,,,,,,,,,,,
0,78,78,76,1,,61601e9a6b8306196d2a129c,62bbfa8de61a9153e4d8e9cc,2022-06-29_09h09.36.487,Colour_Asymmetry_Pilot,2022.1.3,Win32,60.0240096,62bbe60bf3d75ef465d3e404,,,,,,,,,,,,,,,,,,,,,,,,,,,,,,,,,,,,,,,,,,,,,,,,,,,,,,,,,,,,,,,,,,,,,,,,,,,,,,,,,,,,,,,,,,,,,,,,,,,,,,,,,,,,,,,,,,,,,,,,,,,,,,,,,,,,,,,,,,,,,,,,,,,,,,,,,,,,,,
0,79,79,63,1,,61601e9a6b8306196d2a129c,62bbfa8de61a9153e4d8e9cc,2022-06-29_09h09.36.487,Colour_Asymmetry_Pilot,2022.1.3,Win32,60.0240096,62bbe60bf3d75ef465d3e404,,,,,,,,,,,,,,,,,,,,,,,,,,,,,,,,,,,,,,,,,,,,,,,,,,,,,,,,,,,,,,,,,,,,,,,,,,,,,,,,,,,,,,,,,,,,,,,,,,,,,,,,,,,,,,,,,,,,,,,,,,,,,,,,,,,,,,,,,,,,,,,,,,,,,,,,,,,,,,
0,80,80,40,1,,61601e9a6b8306196d2a129c,62bbfa8de61a9153e4d8e9cc,2022-06-29_09h09.36.487,Colour_Asymmetry_Pilot,2022.1.3,Win32,60.0240096,62bbe60bf3d75ef465d3e404,,,,,,,,,,,,,,,,,,,,,,,,,,,,,,,,,,,,,,,,,,,,,,,,,,,,,,,,,,,,,,,,,,,,,,,,,,,,,,,,,,,,,,,,,,,,,,,,,,,,,,,,,,,,,,,,,,,,,,,,,,,,,,,,,,,,,,,,,,,,,,,,,,,,,,,,,,,,,,
0,81,81,64,1,,61601e9a6b8306196d2a129c,62bbfa8de61a9153e4d8e9cc,2022-06-29_09h09.36.487,Colour_Asymmetry_Pilot,2022.1.3,Win32,60.0240096,62bbe60bf3d75ef465d3e404,,,,,,,,,,,,,,,,,,,,,,,,,,,,,,,,,,,,,,,,,,,,,,,,,,,,,,,,,,,,,,,,,,,,,,,,,,,,,,,,,,,,,,,,,,,,,,,,,,,,,,,,,,,,,,,,,,,,,,,,,,,,,,,,,,,,,,,,,,,,,,,,,,,,,,,,,,,,,,
0,82,82,3,1,,61601e9a6b8306196d2a129c,62bbfa8de61a9153e4d8e9cc,2022-06-29_09h09.36.487,Colour_Asymmetry_Pilot,2022.1.3,Win32,60.0240096,62bbe60bf3d75ef465d3e404,,,,,,,,,,,,,,,,,,,,,,,,,,,,,,,,,,,,,,,,,,,,,,,,,,,,,,,,,,,,,,,,,,,,,,,,,,,,,,,,,,,,,,,,,,,,,,,,,,,,,,,,,,,,,,,,,,,,,,,,,,,,,,,,,,,,,,,,,,,,,,,,,,,,,,,,,,,,,,
0,83,83,81,1,,61601e9a6b8306196d2a129c,62bbfa8de61a9153e4d8e9cc,2022-06-29_09h09.36.487,Colour_Asymmetry_Pilot,2022.1.3,Win32,60.0240096,62bbe60bf3d75ef465d3e404,,,,,,,,,,,,,,,,,,,,,,,,,,,,,,,,,,,,,,,,,,,,,,,,,,,,,,,,,,,,,,,,,,,,,,,,,,,,,,,,,,,,,,,,,,,,,,,,,,,,,,,,,,,,,,,,,,,,,,,,,,,,,,,,,,,,,,,,,,,,,,,,,,,,,,,,,,,,,,
0,84,84,58,1,,61601e9a6b8306196d2a129c,62bbfa8de61a9153e4d8e9cc,2022-06-29_09h09.36.487,Colour_Asymmetry_Pilot,2022.1.3,Win32,60.0240096,62bbe60bf3d75ef465d3e404,,,,,,,,,,,,,,,,,,,,,,,,,,,,,,,,,,,,,,,,,,,,,,,,,,,,,,,,,,,,,,,,,,,,,,,,,,,,,,,,,,,,,,,,,,,,,,,,,,,,,,,,,,,,,,,,,,,,,,,,,,,,,,,,,,,,,,,,,,,,,,,,,,,,,,,,,,,,,,
0,85,85,77,1,,61601e9a6b8306196d2a129c,62bbfa8de61a9153e4d8e9cc,2022-06-29_09h09.36.487,Colour_Asymmetry_Pilot,2022.1.3,Win32,60.0240096,62bbe60bf3d75ef465d3e404,,,,,,,,,,,,,,,,,,,,,,,,,,,,,,,,,,,,,,,,,,,,,,,,,,,,,,,,,,,,,,,,,,,,,,,,,,,,,,,,,,,,,,,,,,,,,,,,,,,,,,,,,,,,,,,,,,,,,,,,,,,,,,,,,,,,,,,,,,,,,,,,,,,,,,,,,,,,,,
0,86,86,8,1,,61601e9a6b8306196d2a129c,62bbfa8de61a9153e4d8e9cc,2022-06-29_09h09.36.487,Colour_Asymmetry_Pilot,2022.1.3,Win32,60.0240096,62bbe60bf3d75ef465d3e404,,,,,,,,,,,,,,,,,,,,,,,,,,,,,,,,,,,,,,,,,,,,,,,,,,,,,,,,,,,,,,,,,,,,,,,,,,,,,,,,,,,,,,,,,,,,,,,,,,,,,,,,,,,,,,,,,,,,,,,,,,,,,,,,,,,,,,,,,,,,,,,,,,,,,,,,,,,,,,
0,87,87,26,1,,61601e9a6b8306196d2a129c,62bbfa8de61a9153e4d8e9cc,2022-06-29_09h09.36.487,Colour_Asymmetry_Pilot,2022.1.3,Win32,60.0240096,62bbe60bf3d75ef465d3e404,,,,,,,,,,,,,,,,,,,,,,,,,,,,,,,,,,,,,,,,,,,,,,,,,,,,,,,,,,,,,,,,,,,,,,,,,,,,,,,,,,,,,,,,,,,,,,,,,,,,,,,,,,,,,,,,,,,,,,,,,,,,,,,,,,,,,,,,,,,,,,,,,,,,,,,,,,,,,,
0,88,88,11,1,,61601e9a6b8306196d2a129c,62bbfa8de61a9153e4d8e9cc,2022-06-29_09h09.36.487,Colour_Asymmetry_Pilot,2022.1.3,Win32,60.0240096,62bbe60bf3d75ef465d3e404,,,,,,,,,,,,,,,,,,,,,,,,,,,,,,,,,,,,,,,,,,,,,,,,,,,,,,,,,,,,,,,,,,,,,,,,,,,,,,,,,,,,,,,,,,,,,,,,,,,,,,,,,,,,,,,,,,,,,,,,,,,,,,,,,,,,,,,,,,,,,,,,,,,,,,,,,,,,,,
0,89,89,52,1,,61601e9a6b8306196d2a129c,62bbfa8de61a9153e4d8e9cc,2022-06-29_09h09.36.487,Colour_Asymmetry_Pilot,2022.1.3,Win32,60.0240096,62bbe60bf3d75ef465d3e404,,,,,,,,,,,,,,,,,,,,,,,,,,,,,,,,,,,,,,,,,,,,,,,,,,,,,,,,,,,,,,,,,,,,,,,,,,,,,,,,,,,,,,,,,,,,,,,,,,,,,,,,,,,,,,,,,,,,,,,,,,,,,,,,,,,,,,,,,,,,,,,,,,,,,,,,,,,,,,
0,90,90,16,1,,61601e9a6b8306196d2a129c,62bbfa8de61a9153e4d8e9cc,2022-06-29_09h09.36.487,Colour_Asymmetry_Pilot,2022.1.3,Win32,60.0240096,62bbe60bf3d75ef465d3e404,,,,,,,,,,,,,,,,,,,,,,,,,,,,,,,,,,,,,,,,,,,,,,,,,,,,,,,,,,,,,,,,,,,,,,,,,,,,,,,,,,,,,,,,,,,,,,,,,,,,,,,,,,,,,,,,,,,,,,,,,,,,,,,,,,,,,,,,,,,,,,,,,,,,,,,,,,,,,,
0,91,91,87,1,,61601e9a6b8306196d2a129c,62bbfa8de61a9153e4d8e9cc,2022-06-29_09h09.36.487,Colour_Asymmetry_Pilot,2022.1.3,Win32,60.0240096,62bbe60bf3d75ef465d3e404,,,,,,,,,,,,,,,,,,,,,,,,,,,,,,,,,,,,,,,,,,,,,,,,,,,,,,,,,,,,,,,,,,,,,,,,,,,,,,,,,,,,,,,,,,,,,,,,,,,,,,,,,,,,,,,,,,,,,,,,,,,,,,,,,,,,,,,,,,,,,,,,,,,,,,,,,,,,,,
0,92,92,48,1,,61601e9a6b8306196d2a129c,62bbfa8de61a9153e4d8e9cc,2022-06-29_09h09.36.487,Colour_Asymmetry_Pilot,2022.1.3,Win32,60.0240096,62bbe60bf3d75ef465d3e404,,,,,,,,,,,,,,,,,,,,,,,,,,,,,,,,,,,,,,,,,,,,,,,,,,,,,,,,,,,,,,,,,,,,,,,,,,,,,,,,,,,,,,,,,,,,,,,,,,,,,,,,,,,,,,,,,,,,,,,,,,,,,,,,,,,,,,,,,,,,,,,,,,,,,,,,,,,,,,
,,,,,,61601e9a6b8306196d2a129c,62bbfa8de61a9153e4d8e9cc,2022-06-29_09h09.36.487,Colour_Asymmetry_Pilot,2022.1.3,Win32,60.0240096,62bbe60bf3d75ef465d3e404,0,0,0,19,1,twofour,,,,,,,,,,,,,,,,,,,,,,,,,,,,,,,,,,,,,,,,,,,,,,,,,,,,,,,,,,,,,,,,,,,,,,,,,,,,,,,,,,,,,,,,,,,,,,,,,,,,,,,,,,,,,,,,,,,,,,,,,,,,,,,,,,,,,,,,,,,,,,,,,,,,,,,,
,,,,,,61601e9a6b8306196d2a129c,62bbfa8de61a9153e4d8e9cc,2022-06-29_09h09.36.487,Colour_Asymmetry_Pilot,2022.1.3,Win32,60.0240096,62bbe60bf3d75ef465d3e404,0,1,1,7,1,fourthree,,,,,,,,,,,,,,,,,,,,,,,,,,,,,,,,,,,,,,,,,,,,,,,,,,,,,,,,,,,,,,,,,,,,,,,,,,,,,,,,,,,,,,,,,,,,,,,,,,,,,,,,,,,,,,,,,,,,,,,,,,,,,,,,,,,,,,,,,,,,,,,,,,,,,,,,
,,,,,,61601e9a6b8306196d2a129c,62bbfa8de61a9153e4d8e9cc,2022-06-29_09h09.36.487,Colour_Asymmetry_Pilot,2022.1.3,Win32,60.0240096,62bbe60bf3d75ef465d3e404,0,2,2,77,1,threefour,,,,,,,,,,,,,,,,,,,,,,,,,,,,,,,,,,,,,,,,,,,,,,,,,,,,,,,,,,,,,,,,,,,,,,,,,,,,,,,,,,,,,,,,,,,,,,,,,,,,,,,,,,,,,,,,,,,,,,,,,,,,,,,,,,,,,,,,,,,,,,,,,,,,,,,,
,,,,,,61601e9a6b8306196d2a129c,62bbfa8de61a9153e4d8e9cc,2022-06-29_09h09.36.487,Colour_Asymmetry_Pilot,2022.1.3,Win32,60.0240096,62bbe60bf3d75ef465d3e404,0,3,3,5,1,threefour,,,,,,,,,,,,,,,,,,,,,,,,,,,,,,,,,,,,,,,,,,,,,,,,,,,,,,,,,,,,,,,,,,,,,,,,,,,,,,,,,,,,,,,,,,,,,,,,,,,,,,,,,,,,,,,,,,,,,,,,,,,,,,,,,,,,,,,,,,,,,,,,,,,,,,,,
,,,,,,61601e9a6b8306196d2a129c,62bbfa8de61a9153e4d8e9cc,2022-06-29_09h09.36.487,Colour_Asymmetry_Pilot,2022.1.3,Win32,60.0240096,62bbe60bf3d75ef465d3e404,0,4,4,93,1,threefour,,,,,,,,,,,,,,,,,,,,,,,,,,,,,,,,,,,,,,,,,,,,,,,,,,,,,,,,,,,,,,,,,,,,,,,,,,,,,,,,,,,,,,,,,,,,,,,,,,,,,,,,,,,,,,,,,,,,,,,,,,,,,,,,,,,,,,,,,,,,,,,,,,,,,,,,
,,,,,,61601e9a6b8306196d2a129c,62bbfa8de61a9153e4d8e9cc,2022-06-29_09h09.36.487,Colour_Asymmetry_Pilot,2022.1.3,Win32,60.0240096,62bbe60bf3d75ef465d3e404,0,5,5,68,1,threeone,,,,,,,,,,,,,,,,,,,,,,,,,,,,,,,,,,,,,,,,,,,,,,,,,,,,,,,,,,,,,,,,,,,,,,,,,,,,,,,,,,,,,,,,,,,,,,,,,,,,,,,,,,,,,,,,,,,,,,,,,,,,,,,,,,,,,,,,,,,,,,,,,,,,,,,,
,,,,,,61601e9a6b8306196d2a129c,62bbfa8de61a9153e4d8e9cc,2022-06-29_09h09.36.487,Colour_Asymmetry_Pilot,2022.1.3,Win32,60.0240096,62bbe60bf3d75ef465d3e404,0,6,6,82,1,twoone,,,,,,,,,,,,,,,,,,,,,,,,,,,,,,,,,,,,,,,,,,,,,,,,,,,,,,,,,,,,,,,,,,,,,,,,,,,,,,,,,,,,,,,,,,,,,,,,,,,,,,,,,,,,,,,,,,,,,,,,,,,,,,,,,,,,,,,,,,,,,,,,,,,,,,,,
,,,,,,61601e9a6b8306196d2a129c,62bbfa8de61a9153e4d8e9cc,2022-06-29_09h09.36.487,Colour_Asymmetry_Pilot,2022.1.3,Win32,60.0240096,62bbe60bf3d75ef465d3e404,0,7,7,121,1,onethree,,,,,,,,,,,,,,,,,,,,,,,,,,,,,,,,,,,,,,,,,,,,,,,,,,,,,,,,,,,,,,,,,,,,,,,,,,,,,,,,,,,,,,,,,,,,,,,,,,,,,,,,,,,,,,,,,,,,,,,,,,,,,,,,,,,,,,,,,,,,,,,,,,,,,,,,
,,,,,,61601e9a6b8306196d2a129c,62bbfa8de61a9153e4d8e9cc,2022-06-29_09h09.36.487,Colour_Asymmetry_Pilot,2022.1.3,Win32,60.0240096,62bbe60bf3d75ef465d3e404,0,8,8,131,1,twofour,,,,,,,,,,,,,,,,,,,,,,,,,,,,,,,,,,,,,,,,,,,,,,,,,,,,,,,,,,,,,,,,,,,,,,,,,,,,,,,,,,,,,,,,,,,,,,,,,,,,,,,,,,,,,,,,,,,,,,,,,,,,,,,,,,,,,,,,,,,,,,,,,,,,,,,,
,,,,,,61601e9a6b8306196d2a129c,62bbfa8de61a9153e4d8e9cc,2022-06-29_09h09.36.487,Colour_Asymmetry_Pilot,2022.1.3,Win32,60.0240096,62bbe60bf3d75ef465d3e404,0,9,9,57,1,onethree,,,,,,,,,,,,,,,,,,,,,,,,,,,,,,,,,,,,,,,,,,,,,,,,,,,,,,,,,,,,,,,,,,,,,,,,,,,,,,,,,,,,,,,,,,,,,,,,,,,,,,,,,,,,,,,,,,,,,,,,,,,,,,,,,,,,,,,,,,,,,,,,,,,,,,,,
,,,,,,61601e9a6b8306196d2a129c,62bbfa8de61a9153e4d8e9cc,2022-06-29_09h09.36.487,Colour_Asymmetry_Pilot,2022.1.3,Win32,60.0240096,62bbe60bf3d75ef465d3e404,0,10,10,128,1,onetwo,,,,,,,,,,,,,,,,,,,,,,,,,,,,,,,,,,,,,,,,,,,,,,,,,,,,,,,,,,,,,,,,,,,,,,,,,,,,,,,,,,,,,,,,,,,,,,,,,,,,,,,,,,,,,,,,,,,,,,,,,,,,,,,,,,,,,,,,,,,,,,,,,,,,,,,,
,,,,,,61601e9a6b8306196d2a129c,62bbfa8de61a9153e4d8e9cc,2022-06-29_09h09.36.487,Colour_Asymmetry_Pilot,2022.1.3,Win32,60.0240096,62bbe60bf3d75ef465d3e404,0,11,11,91,1,twofour,,,,,,,,,,,,,,,,,,,,,,,,,,,,,,,,,,,,,,,,,,,,,,,,,,,,,,,,,,,,,,,,,,,,,,,,,,,,,,,,,,,,,,,,,,,,,,,,,,,,,,,,,,,,,,,,,,,,,,,,,,,,,,,,,,,,,,,,,,,,,,,,,,,,,,,,
,,,,,,61601e9a6b8306196d2a129c,62bbfa8de61a9153e4d8e9cc,2022-06-29_09h09.36.487,Colour_Asymmetry_Pilot,2022.1.3,Win32,60.0240096,62bbe60bf3d75ef465d3e404,0,12,12,113,1,onethree,,,,,,,,,,,,,,,,,,,,,,,,,,,,,,,,,,,,,,,,,,,,,,,,,,,,,,,,,,,,,,,,,,,,,,,,,,,,,,,,,,,,,,,,,,,,,,,,,,,,,,,,,,,,,,,,,,,,,,,,,,,,,,,,,,,,,,,,,,,,,,,,,,,,,,,,
,,,,,,61601e9a6b8306196d2a129c,62bbfa8de61a9153e4d8e9cc,2022-06-29_09h09.36.487,Colour_Asymmetry_Pilot,2022.1.3,Win32,60.0240096,62bbe60bf3d75ef465d3e404,0,13,13,10,1,twoone,,,,,,,,,,,,,,,,,,,,,,,,,,,,,,,,,,,,,,,,,,,,,,,,,,,,,,,,,,,,,,,,,,,,,,,,,,,,,,,,,,,,,,,,,,,,,,,,,,,,,,,,,,,,,,,,,,,,,,,,,,,,,,,,,,,,,,,,,,,,,,,,,,,,,,,,
,,,,,,61601e9a6b8306196d2a129c,62bbfa8de61a9153e4d8e9cc,2022-06-29_09h09.36.487,Colour_Asymmetry_Pilot,2022.1.3,Win32,60.0240096,62bbe60bf3d75ef465d3e404,0,14,14,4,1,threeone,,,,,,,,,,,,,,,,,,,,,,,,,,,,,,,,,,,,,,,,,,,,,,,,,,,,,,,,,,,,,,,,,,,,,,,,,,,,,,,,,,,,,,,,,,,,,,,,,,,,,,,,,,,,,,,,,,,,,,,,,,,,,,,,,,,,,,,,,,,,,,,,,,,,,,,,
,,,,,,61601e9a6b8306196d2a129c,62bbfa8de61a9153e4d8e9cc,2022-06-29_09h09.36.487,Colour_Asymmetry_Pilot,2022.1.3,Win32,60.0240096,62bbe60bf3d75ef465d3e404,0,15,15,161,1,onethree,,,,,,,,,,,,,,,,,,,,,,,,,,,,,,,,,,,,,,,,,,,,,,,,,,,,,,,,,,,,,,,,,,,,,,,,,,,,,,,,,,,,,,,,,,,,,,,,,,,,,,,,,,,,,,,,,,,,,,,,,,,,,,,,,,,,,,,,,,,,,,,,,,,,,,,,
,,,,,,61601e9a6b8306196d2a129c,62bbfa8de61a9153e4d8e9cc,2022-06-29_09h09.36.487,Colour_Asymmetry_Pilot,2022.1.3,Win32,60.0240096,62bbe60bf3d75ef465d3e404,0,16,16,155,1,twofour,,,,,,,,,,,,,,,,,,,,,,,,,,,,,,,,,,,,,,,,,,,,,,,,,,,,,,,,,,,,,,,,,,,,,,,,,,,,,,,,,,,,,,,,,,,,,,,,,,,,,,,,,,,,,,,,,,,,,,,,,,,,,,,,,,,,,,,,,,,,,,,,,,,,,,,,
,,,,,,61601e9a6b8306196d2a129c,62bbfa8de61a9153e4d8e9cc,2022-06-29_09h09.36.487,Colour_Asymmetry_Pilot,2022.1.3,Win32,60.0240096,62bbe60bf3d75ef465d3e404,0,17,17,52,1,threeone,,,,,,,,,,,,,,,,,,,,,,,,,,,,,,,,,,,,,,,,,,,,,,,,,,,,,,,,,,,,,,,,,,,,,,,,,,,,,,,,,,,,,,,,,,,,,,,,,,,,,,,,,,,,,,,,,,,,,,,,,,,,,,,,,,,,,,,,,,,,,,,,,,,,,,,,
,,,,,,61601e9a6b8306196d2a129c,62bbfa8de61a9153e4d8e9cc,2022-06-29_09h09.36.487,Colour_Asymmetry_Pilot,2022.1.3,Win32,60.0240096,62bbe60bf3d75ef465d3e404,0,18,18,65,1,onethree,,,,,,,,,,,,,,,,,,,,,,,,,,,,,,,,,,,,,,,,,,,,,,,,,,,,,,,,,,,,,,,,,,,,,,,,,,,,,,,,,,,,,,,,,,,,,,,,,,,,,,,,,,,,,,,,,,,,,,,,,,,,,,,,,,,,,,,,,,,,,,,,,,,,,,,,
,,,,,,61601e9a6b8306196d2a129c,62bbfa8de61a9153e4d8e9cc,2022-06-29_09h09.36.487,Colour_Asymmetry_Pilot,2022.1.3,Win32,60.0240096,62bbe60bf3d75ef465d3e404,0,19,19,119,1,fourthree,,,,,,,,,,,,,,,,,,,,,,,,,,,,,,,,,,,,,,,,,,,,,,,,,,,,,,,,,,,,,,,,,,,,,,,,,,,,,,,,,,,,,,,,,,,,,,,,,,,,,,,,,,,,,,,,,,,,,,,,,,,,,,,,,,,,,,,,,,,,,,,,,,,,,,,,
,,,,,,61601e9a6b8306196d2a129c,62bbfa8de61a9153e4d8e9cc,2022-06-29_09h09.36.487,Colour_Asymmetry_Pilot,2022.1.3,Win32,60.0240096,62bbe60bf3d75ef465d3e404,0,20,20,36,1,threeone,,,,,,,,,,,,,,,,,,,,,,,,,,,,,,,,,,,,,,,,,,,,,,,,,,,,,,,,,,,,,,,,,,,,,,,,,,,,,,,,,,,,,,,,,,,,,,,,,,,,,,,,,,,,,,,,,,,,,,,,,,,,,,,,,,,,,,,,,,,,,,,,,,,,,,,,
,,,,,,61601e9a6b8306196d2a129c,62bbfa8de61a9153e4d8e9cc,2022-06-29_09h09.36.487,Colour_Asymmetry_Pilot,2022.1.3,Win32,60.0240096,62bbe60bf3d75ef465d3e404,0,21,21,99,1,twofour,,,,,,,,,,,,,,,,,,,,,,,,,,,,,,,,,,,,,,,,,,,,,,,,,,,,,,,,,,,,,,,,,,,,,,,,,,,,,,,,,,,,,,,,,,,,,,,,,,,,,,,,,,,,,,,,,,,,,,,,,,,,,,,,,,,,,,,,,,,,,,,,,,,,,,,,
,,,,,,61601e9a6b8306196d2a129c,62bbfa8de61a9153e4d8e9cc,2022-06-29_09h09.36.487,Colour_Asymmetry_Pilot,2022.1.3,Win32,60.0240096,62bbe60bf3d75ef465d3e404,0,22,22,63,1,fourthree,,,,,,,,,,,,,,,,,,,,,,,,,,,,,,,,,,,,,,,,,,,,,,,,,,,,,,,,,,,,,,,,,,,,,,,,,,,,,,,,,,,,,,,,,,,,,,,,,,,,,,,,,,,,,,,,,,,,,,,,,,,,,,,,,,,,,,,,,,,,,,,,,,,,,,,,
,,,,,,61601e9a6b8306196d2a129c,62bbfa8de61a9153e4d8e9cc,2022-06-29_09h09.36.487,Colour_Asymmetry_Pilot,2022.1.3,Win32,60.0240096,62bbe60bf3d75ef465d3e404,0,23,23,31,1,fourthree,,,,,,,,,,,,,,,,,,,,,,,,,,,,,,,,,,,,,,,,,,,,,,,,,,,,,,,,,,,,,,,,,,,,,,,,,,,,,,,,,,,,,,,,,,,,,,,,,,,,,,,,,,,,,,,,,,,,,,,,,,,,,,,,,,,,,,,,,,,,,,,,,,,,,,,,
,,,,,,61601e9a6b8306196d2a129c,62bbfa8de61a9153e4d8e9cc,2022-06-29_09h09.36.487,Colour_Asymmetry_Pilot,2022.1.3,Win32,60.0240096,62bbe60bf3d75ef465d3e404,0,24,24,66,1,twoone,,,,,,,,,,,,,,,,,,,,,,,,,,,,,,,,,,,,,,,,,,,,,,,,,,,,,,,,,,,,,,,,,,,,,,,,,,,,,,,,,,,,,,,,,,,,,,,,,,,,,,,,,,,,,,,,,,,,,,,,,,,,,,,,,,,,,,,,,,,,,,,,,,,,,,,,
,,,,,,61601e9a6b8306196d2a129c,62bbfa8de61a9153e4d8e9cc,2022-06-29_09h09.36.487,Colour_Asymmetry_Pilot,2022.1.3,Win32,60.0240096,62bbe60bf3d75ef465d3e404,0,25,25,25,1,onethree,,,,,,,,,,,,,,,,,,,,,,,,,,,,,,,,,,,,,,,,,,,,,,,,,,,,,,,,,,,,,,,,,,,,,,,,,,,,,,,,,,,,,,,,,,,,,,,,,,,,,,,,,,,,,,,,,,,,,,,,,,,,,,,,,,,,,,,,,,,,,,,,,,,,,,,,
,,,,,,61601e9a6b8306196d2a129c,62bbfa8de61a9153e4d8e9cc,2022-06-29_09h09.36.487,Colour_Asymmetry_Pilot,2022.1.3,Win32,60.0240096,62bbe60bf3d75ef465d3e404,0,26,26,124,1,threeone,,,,,,,,,,,,,,,,,,,,,,,,,,,,,,,,,,,,,,,,,,,,,,,,,,,,,,,,,,,,,,,,,,,,,,,,,,,,,,,,,,,,,,,,,,,,,,,,,,,,,,,,,,,,,,,,,,,,,,,,,,,,,,,,,,,,,,,,,,,,,,,,,,,,,,,,
,,,,,,61601e9a6b8306196d2a129c,62bbfa8de61a9153e4d8e9cc,2022-06-29_09h09.36.487,Colour_Asymmetry_Pilot,2022.1.3,Win32,60.0240096,62bbe60bf3d75ef465d3e404,0,27,27,26,1,twoone,,,,,,,,,,,,,,,,,,,,,,,,,,,,,,,,,,,,,,,,,,,,,,,,,,,,,,,,,,,,,,,,,,,,,,,,,,,,,,,,,,,,,,,,,,,,,,,,,,,,,,,,,,,,,,,,,,,,,,,,,,,,,,,,,,,,,,,,,,,,,,,,,,,,,,,,
,,,,,,61601e9a6b8306196d2a129c,62bbfa8de61a9153e4d8e9cc,2022-06-29_09h09.36.487,Colour_Asymmetry_Pilot,2022.1.3,Win32,60.0240096,62bbe60bf3d75ef465d3e404,0,28,28,18,1,twoone,,,,,,,,,,,,,,,,,,,,,,,,,,,,,,,,,,,,,,,,,,,,,,,,,,,,,,,,,,,,,,,,,,,,,,,,,,,,,,,,,,,,,,,,,,,,,,,,,,,,,,,,,,,,,,,,,,,,,,,,,,,,,,,,,,,,,,,,,,,,,,,,,,,,,,,,
,,,,,,61601e9a6b8306196d2a129c,62bbfa8de61a9153e4d8e9cc,2022-06-29_09h09.36.487,Colour_Asymmetry_Pilot,2022.1.3,Win32,60.0240096,62bbe60bf3d75ef465d3e404,0,29,29,39,1,fourthree,,,,,,,,,,,,,,,,,,,,,,,,,,,,,,,,,,,,,,,,,,,,,,,,,,,,,,,,,,,,,,,,,,,,,,,,,,,,,,,,,,,,,,,,,,,,,,,,,,,,,,,,,,,,,,,,,,,,,,,,,,,,,,,,,,,,,,,,,,,,,,,,,,,,,,,,
,,,,,,61601e9a6b8306196d2a129c,62bbfa8de61a9153e4d8e9cc,2022-06-29_09h09.36.487,Colour_Asymmetry_Pilot,2022.1.3,Win32,60.0240096,62bbe60bf3d75ef465d3e404,0,30,30,111,1,fourthree,,,,,,,,,,,,,,,,,,,,,,,,,,,,,,,,,,,,,,,,,,,,,,,,,,,,,,,,,,,,,,,,,,,,,,,,,,,,,,,,,,,,,,,,,,,,,,,,,,,,,,,,,,,,,,,,,,,,,,,,,,,,,,,,,,,,,,,,,,,,,,,,,,,,,,,,
,,,,,,61601e9a6b8306196d2a129c,62bbfa8de61a9153e4d8e9cc,2022-06-29_09h09.36.487,Colour_Asymmetry_Pilot,2022.1.3,Win32,60.0240096,62bbe60bf3d75ef465d3e404,0,31,31,43,1,twofour,,,,,,,,,,,,,,,,,,,,,,,,,,,,,,,,,,,,,,,,,,,,,,,,,,,,,,,,,,,,,,,,,,,,,,,,,,,,,,,,,,,,,,,,,,,,,,,,,,,,,,,,,,,,,,,,,,,,,,,,,,,,,,,,,,,,,,,,,,,,,,,,,,,,,,,,
,,,,,,61601e9a6b8306196d2a129c,62bbfa8de61a9153e4d8e9cc,2022-06-29_09h09.36.487,Colour_Asymmetry_Pilot,2022.1.3,Win32,60.0240096,62bbe60bf3d75ef465d3e404,0,32,32,120,1,onetwo,,,,,,,,,,,,,,,,,,,,,,,,,,,,,,,,,,,,,,,,,,,,,,,,,,,,,,,,,,,,,,,,,,,,,,,,,,,,,,,,,,,,,,,,,,,,,,,,,,,,,,,,,,,,,,,,,,,,,,,,,,,,,,,,,,,,,,,,,,,,,,,,,,,,,,,,
,,,,,,61601e9a6b8306196d2a129c,62bbfa8de61a9153e4d8e9cc,2022-06-29_09h09.36.487,Colour_Asymmetry_Pilot,2022.1.3,Win32,60.0240096,62bbe60bf3d75ef465d3e404,0,33,33,51,1,twofour,,,,,,,,,,,,,,,,,,,,,,,,,,,,,,,,,,,,,,,,,,,,,,,,,,,,,,,,,,,,,,,,,,,,,,,,,,,,,,,,,,,,,,,,,,,,,,,,,,,,,,,,,,,,,,,,,,,,,,,,,,,,,,,,,,,,,,,,,,,,,,,,,,,,,,,,
,,,,,,61601e9a6b8306196d2a129c,62bbfa8de61a9153e4d8e9cc,2022-06-29_09h09.36.487,Colour_Asymmetry_Pilot,2022.1.3,Win32,60.0240096,62bbe60bf3d75ef465d3e404,0,34,34,35,1,twofour,,,,,,,,,,,,,,,,,,,,,,,,,,,,,,,,,,,,,,,,,,,,,,,,,,,,,,,,,,,,,,,,,,,,,,,,,,,,,,,,,,,,,,,,,,,,,,,,,,,,,,,,,,,,,,,,,,,,,,,,,,,,,,,,,,,,,,,,,,,,,,,,,,,,,,,,
,,,,,,61601e9a6b8306196d2a129c,62bbfa8de61a9153e4d8e9cc,2022-06-29_09h09.36.487,Colour_Asymmetry_Pilot,2022.1.3,Win32,60.0240096,62bbe60bf3d75ef465d3e404,0,35,35,85,1,threefour,,,,,,,,,,,,,,,,,,,,,,,,,,,,,,,,,,,,,,,,,,,,,,,,,,,,,,,,,,,,,,,,,,,,,,,,,,,,,,,,,,,,,,,,,,,,,,,,,,,,,,,,,,,,,,,,,,,,,,,,,,,,,,,,,,,,,,,,,,,,,,,,,,,,,,,,
,,,,,,61601e9a6b8306196d2a129c,62bbfa8de61a9153e4d8e9cc,2022-06-29_09h09.36.487,Colour_Asymmetry_Pilot,2022.1.3,Win32,60.0240096,62bbe60bf3d75ef465d3e404,0,36,36,139,1,twofour,,,,,,,,,,,,,,,,,,,,,,,,,,,,,,,,,,,,,,,,,,,,,,,,,,,,,,,,,,,,,,,,,,,,,,,,,,,,,,,,,,,,,,,,,,,,,,,,,,,,,,,,,,,,,,,,,,,,,,,,,,,,,,,,,,,,,,,,,,,,,,,,,,,,,,,,
,,,,,,61601e9a6b8306196d2a129c,62bbfa8de61a9153e4d8e9cc,2022-06-29_09h09.36.487,Colour_Asymmetry_Pilot,2022.1.3,Win32,60.0240096,62bbe60bf3d75ef465d3e404,0,37,37,34,1,twoone,,,,,,,,,,,,,,,,,,,,,,,,,,,,,,,,,,,,,,,,,,,,,,,,,,,,,,,,,,,,,,,,,,,,,,,,,,,,,,,,,,,,,,,,,,,,,,,,,,,,,,,,,,,,,,,,,,,,,,,,,,,,,,,,,,,,,,,,,,,,,,,,,,,,,,,,
,,,,,,61601e9a6b8306196d2a129c,62bbfa8de61a9153e4d8e9cc,2022-06-29_09h09.36.487,Colour_Asymmetry_Pilot,2022.1.3,Win32,60.0240096,62bbe60bf3d75ef465d3e404,0,38,38,105,1,onethree,,,,,,,,,,,,,,,,,,,,,,,,,,,,,,,,,,,,,,,,,,,,,,,,,,,,,,,,,,,,,,,,,,,,,,,,,,,,,,,,,,,,,,,,,,,,,,,,,,,,,,,,,,,,,,,,,,,,,,,,,,,,,,,,,,,,,,,,,,,,,,,,,,,,,,,,
,,,,,,61601e9a6b8306196d2a129c,62bbfa8de61a9153e4d8e9cc,2022-06-29_09h09.36.487,Colour_Asymmetry_Pilot,2022.1.3,Win32,60.0240096,62bbe60bf3d75ef465d3e404,0,39,39,75,1,twofour,,,,,,,,,,,,,,,,,,,,,,,,,,,,,,,,,,,,,,,,,,,,,,,,,,,,,,,,,,,,,,,,,,,,,,,,,,,,,,,,,,,,,,,,,,,,,,,,,,,,,,,,,,,,,,,,,,,,,,,,,,,,,,,,,,,,,,,,,,,,,,,,,,,,,,,,
,,,,,,61601e9a6b8306196d2a129c,62bbfa8de61a9153e4d8e9cc,2022-06-29_09h09.36.487,Colour_Asymmetry_Pilot,2022.1.3,Win32,60.0240096,62bbe60bf3d75ef465d3e404,0,40,40,15,1,fourthree,,,,,,,,,,,,,,,,,,,,,,,,,,,,,,,,,,,,,,,,,,,,,,,,,,,,,,,,,,,,,,,,,,,,,,,,,,,,,,,,,,,,,,,,,,,,,,,,,,,,,,,,,,,,,,,,,,,,,,,,,,,,,,,,,,,,,,,,,,,,,,,,,,,,,,,,
,,,,,,61601e9a6b8306196d2a129c,62bbfa8de61a9153e4d8e9cc,2022-06-29_09h09.36.487,Colour_Asymmetry_Pilot,2022.1.3,Win32,60.0240096,62bbe60bf3d75ef465d3e404,0,41,41,33,1,onethree,,,,,,,,,,,,,,,,,,,,,,,,,,,,,,,,,,,,,,,,,,,,,,,,,,,,,,,,,,,,,,,,,,,,,,,,,,,,,,,,,,,,,,,,,,,,,,,,,,,,,,,,,,,,,,,,,,,,,,,,,,,,,,,,,,,,,,,,,,,,,,,,,,,,,,,,
,,,,,,61601e9a6b8306196d2a129c,62bbfa8de61a9153e4d8e9cc,2022-06-29_09h09.36.487,Colour_Asymmetry_Pilot,2022.1.3,Win32,60.0240096,62bbe60bf3d75ef465d3e404,0,42,42,72,1,onetwo,,,,,,,,,,,,,,,,,,,,,,,,,,,,,,,,,,,,,,,,,,,,,,,,,,,,,,,,,,,,,,,,,,,,,,,,,,,,,,,,,,,,,,,,,,,,,,,,,,,,,,,,,,,,,,,,,,,,,,,,,,,,,,,,,,,,,,,,,,,,,,,,,,,,,,,,
,,,,,,61601e9a6b8306196d2a129c,62bbfa8de61a9153e4d8e9cc,2022-06-29_09h09.36.487,Colour_Asymmetry_Pilot,2022.1.3,Win32,60.0240096,62bbe60bf3d75ef465d3e404,0,43,43,98,1,twoone,,,,,,,,,,,,,,,,,,,,,,,,,,,,,,,,,,,,,,,,,,,,,,,,,,,,,,,,,,,,,,,,,,,,,,,,,,,,,,,,,,,,,,,,,,,,,,,,,,,,,,,,,,,,,,,,,,,,,,,,,,,,,,,,,,,,,,,,,,,,,,,,,,,,,,,,
,,,,,,61601e9a6b8306196d2a129c,62bbfa8de61a9153e4d8e9cc,2022-06-29_09h09.36.487,Colour_Asymmetry_Pilot,2022.1.3,Win32,60.0240096,62bbe60bf3d75ef465d3e404,0,44,44,97,1,onethree,,,,,,,,,,,,,,,,,,,,,,,,,,,,,,,,,,,,,,,,,,,,,,,,,,,,,,,,,,,,,,,,,,,,,,,,,,,,,,,,,,,,,,,,,,,,,,,,,,,,,,,,,,,,,,,,,,,,,,,,,,,,,,,,,,,,,,,,,,,,,,,,,,,,,,,,
,,,,,,61601e9a6b8306196d2a129c,62bbfa8de61a9153e4d8e9cc,2022-06-29_09h09.36.487,Colour_Asymmetry_Pilot,2022.1.3,Win32,60.0240096,62bbe60bf3d75ef465d3e404,0,45,45,70,1,fourtwo,,,,,,,,,,,,,,,,,,,,,,,,,,,,,,,,,,,,,,,,,,,,,,,,,,,,,,,,,,,,,,,,,,,,,,,,,,,,,,,,,,,,,,,,,,,,,,,,,,,,,,,,,,,,,,,,,,,,,,,,,,,,,,,,,,,,,,,,,,,,,,,,,,,,,,,,
,,,,,,61601e9a6b8306196d2a129c,62bbfa8de61a9153e4d8e9cc,2022-06-29_09h09.36.487,Colour_Asymmetry_Pilot,2022.1.3,Win32,60.0240096,62bbe60bf3d75ef465d3e404,0,46,46,73,1,onethree,,,,,,,,,,,,,,,,,,,,,,,,,,,,,,,,,,,,,,,,,,,,,,,,,,,,,,,,,,,,,,,,,,,,,,,,,,,,,,,,,,,,,,,,,,,,,,,,,,,,,,,,,,,,,,,,,,,,,,,,,,,,,,,,,,,,,,,,,,,,,,,,,,,,,,,,
,,,,,,61601e9a6b8306196d2a129c,62bbfa8de61a9153e4d8e9cc,2022-06-29_09h09.36.487,Colour_Asymmetry_Pilot,2022.1.3,Win32,60.0240096,62bbe60bf3d75ef465d3e404,0,47,47,16,1,onetwo,,,,,,,,,,,,,,,,,,,,,,,,,,,,,,,,,,,,,,,,,,,,,,,,,,,,,,,,,,,,,,,,,,,,,,,,,,,,,,,,,,,,,,,,,,,,,,,,,,,,,,,,,,,,,,,,,,,,,,,,,,,,,,,,,,,,,,,,,,,,,,,,,,,,,,,,
,,,,,,61601e9a6b8306196d2a129c,62bbfa8de61a9153e4d8e9cc,2022-06-29_09h09.36.487,Colour_Asymmetry_Pilot,2022.1.3,Win32,60.0240096,62bbe60bf3d75ef465d3e404,0,48,48,27,1,twofour,,,,,,,,,,,,,,,,,,,,,,,,,,,,,,,,,,,,,,,,,,,,,,,,,,,,,,,,,,,,,,,,,,,,,,,,,,,,,,,,,,,,,,,,,,,,,,,,,,,,,,,,,,,,,,,,,,,,,,,,,,,,,,,,,,,,,,,,,,,,,,,,,,,,,,,,
,,,,,,61601e9a6b8306196d2a129c,62bbfa8de61a9153e4d8e9cc,2022-06-29_09h09.36.487,Colour_Asymmetry_Pilot,2022.1.3,Win32,60.0240096,62bbe60bf3d75ef465d3e404,0,49,49,110,1,fourtwo,,,,,,,,,,,,,,,,,,,,,,,,,,,,,,,,,,,,,,,,,,,,,,,,,,,,,,,,,,,,,,,,,,,,,,,,,,,,,,,,,,,,,,,,,,,,,,,,,,,,,,,,,,,,,,,,,,,,,,,,,,,,,,,,,,,,,,,,,,,,,,,,,,,,,,,,
,,,,,,61601e9a6b8306196d2a129c,62bbfa8de61a9153e4d8e9cc,2022-06-29_09h09.36.487,Colour_Asymmetry_Pilot,2022.1.3,Win32,60.0240096,62bbe60bf3d75ef465d3e404,0,50,50,90,1,twoone,,,,,,,,,,,,,,,,,,,,,,,,,,,,,,,,,,,,,,,,,,,,,,,,,,,,,,,,,,,,,,,,,,,,,,,,,,,,,,,,,,,,,,,,,,,,,,,,,,,,,,,,,,,,,,,,,,,,,,,,,,,,,,,,,,,,,,,,,,,,,,,,,,,,,,,,
,,,,,,61601e9a6b8306196d2a129c,62bbfa8de61a9153e4d8e9cc,2022-06-29_09h09.36.487,Colour_Asymmetry_Pilot,2022.1.3,Win32,60.0240096,62bbe60bf3d75ef465d3e404,0,51,51,157,1,threefour,,,,,,,,,,,,,,,,,,,,,,,,,,,,,,,,,,,,,,,,,,,,,,,,,,,,,,,,,,,,,,,,,,,,,,,,,,,,,,,,,,,,,,,,,,,,,,,,,,,,,,,,,,,,,,,,,,,,,,,,,,,,,,,,,,,,,,,,,,,,,,,,,,,,,,,,
,,,,,,61601e9a6b8306196d2a129c,62bbfa8de61a9153e4d8e9cc,2022-06-29_09h09.36.487,Colour_Asymmetry_Pilot,2022.1.3,Win32,60.0240096,62bbe60bf3d75ef465d3e404,0,52,52,6,1,fourtwo,,,,,,,,,,,,,,,,,,,,,,,,,,,,,,,,,,,,,,,,,,,,,,,,,,,,,,,,,,,,,,,,,,,,,,,,,,,,,,,,,,,,,,,,,,,,,,,,,,,,,,,,,,,,,,,,,,,,,,,,,,,,,,,,,,,,,,,,,,,,,,,,,,,,,,,,
,,,,,,61601e9a6b8306196d2a129c,62bbfa8de61a9153e4d8e9cc,2022-06-29_09h09.36.487,Colour_Asymmetry_Pilot,2022.1.3,Win32,60.0240096,62bbe60bf3d75ef465d3e404,0,53,53,1,1,onethree,,,,,,,,,,,,,,,,,,,,,,,,,,,,,,,,,,,,,,,,,,,,,,,,,,,,,,,,,,,,,,,,,,,,,,,,,,,,,,,,,,,,,,,,,,,,,,,,,,,,,,,,,,,,,,,,,,,,,,,,,,,,,,,,,,,,,,,,,,,,,,,,,,,,,,,,
,,,,,,61601e9a6b8306196d2a129c,62bbfa8de61a9153e4d8e9cc,2022-06-29_09h09.36.487,Colour_Asymmetry_Pilot,2022.1.3,Win32,60.0240096,62bbe60bf3d75ef465d3e404,0,54,54,38,1,fourtwo,,,,,,,,,,,,,,,,,,,,,,,,,,,,,,,,,,,,,,,,,,,,,,,,,,,,,,,,,,,,,,,,,,,,,,,,,,,,,,,,,,,,,,,,,,,,,,,,,,,,,,,,,,,,,,,,,,,,,,,,,,,,,,,,,,,,,,,,,,,,,,,,,,,,,,,,
,,,,,,61601e9a6b8306196d2a129c,62bbfa8de61a9153e4d8e9cc,2022-06-29_09h09.36.487,Colour_Asymmetry_Pilot,2022.1.3,Win32,60.0240096,62bbe60bf3d75ef465d3e404,0,55,55,115,1,twofour,,,,,,,,,,,,,,,,,,,,,,,,,,,,,,,,,,,,,,,,,,,,,,,,,,,,,,,,,,,,,,,,,,,,,,,,,,,,,,,,,,,,,,,,,,,,,,,,,,,,,,,,,,,,,,,,,,,,,,,,,,,,,,,,,,,,,,,,,,,,,,,,,,,,,,,,
,,,,,,61601e9a6b8306196d2a129c,62bbfa8de61a9153e4d8e9cc,2022-06-29_09h09.36.487,Colour_Asymmetry_Pilot,2022.1.3,Win32,60.0240096,62bbe60bf3d75ef465d3e404,0,56,56,28,1,threeone,,,,,,,,,,,,,,,,,,,,,,,,,,,,,,,,,,,,,,,,,,,,,,,,,,,,,,,,,,,,,,,,,,,,,,,,,,,,,,,,,,,,,,,,,,,,,,,,,,,,,,,,,,,,,,,,,,,,,,,,,,,,,,,,,,,,,,,,,,,,,,,,,,,,,,,,
,,,,,,61601e9a6b8306196d2a129c,62bbfa8de61a9153e4d8e9cc,2022-06-29_09h09.36.487,Colour_Asymmetry_Pilot,2022.1.3,Win32,60.0240096,62bbe60bf3d75ef465d3e404,0,57,57,58,1,twoone,,,,,,,,,,,,,,,,,,,,,,,,,,,,,,,,,,,,,,,,,,,,,,,,,,,,,,,,,,,,,,,,,,,,,,,,,,,,,,,,,,,,,,,,,,,,,,,,,,,,,,,,,,,,,,,,,,,,,,,,,,,,,,,,,,,,,,,,,,,,,,,,,,,,,,,,
,,,,,,61601e9a6b8306196d2a129c,62bbfa8de61a9153e4d8e9cc,2022-06-29_09h09.36.487,Colour_Asymmetry_Pilot,2022.1.3,Win32,60.0240096,62bbe60bf3d75ef465d3e404,0,58,58,127,1,fourthree,,,,,,,,,,,,,,,,,,,,,,,,,,,,,,,,,,,,,,,,,,,,,,,,,,,,,,,,,,,,,,,,,,,,,,,,,,,,,,,,,,,,,,,,,,,,,,,,,,,,,,,,,,,,,,,,,,,,,,,,,,,,,,,,,,,,,,,,,,,,,,,,,,,,,,,,
,,,,,,61601e9a6b8306196d2a129c,62bbfa8de61a9153e4d8e9cc,2022-06-29_09h09.36.487,Colour_Asymmetry_Pilot,2022.1.3,Win32,60.0240096,62bbe60bf3d75ef465d3e404,0,59,59,144,1,onetwo,,,,,,,,,,,,,,,,,,,,,,,,,,,,,,,,,,,,,,,,,,,,,,,,,,,,,,,,,,,,,,,,,,,,,,,,,,,,,,,,,,,,,,,,,,,,,,,,,,,,,,,,,,,,,,,,,,,,,,,,,,,,,,,,,,,,,,,,,,,,,,,,,,,,,,,,
,,,,,,61601e9a6b8306196d2a129c,62bbfa8de61a9153e4d8e9cc,2022-06-29_09h09.36.487,Colour_Asymmetry_Pilot,2022.1.3,Win32,60.0240096,62bbe60bf3d75ef465d3e404,0,60,60,69,1,threefour,,,,,,,,,,,,,,,,,,,,,,,,,,,,,,,,,,,,,,,,,,,,,,,,,,,,,,,,,,,,,,,,,,,,,,,,,,,,,,,,,,,,,,,,,,,,,,,,,,,,,,,,,,,,,,,,,,,,,,,,,,,,,,,,,,,,,,,,,,,,,,,,,,,,,,,,
,,,,,,61601e9a6b8306196d2a129c,62bbfa8de61a9153e4d8e9cc,2022-06-29_09h09.36.487,Colour_Asymmetry_Pilot,2022.1.3,Win32,60.0240096,62bbe60bf3d75ef465d3e404,0,61,61,81,1,onethree,,,,,,,,,,,,,,,,,,,,,,,,,,,,,,,,,,,,,,,,,,,,,,,,,,,,,,,,,,,,,,,,,,,,,,,,,,,,,,,,,,,,,,,,,,,,,,,,,,,,,,,,,,,,,,,,,,,,,,,,,,,,,,,,,,,,,,,,,,,,,,,,,,,,,,,,
,,,,,,61601e9a6b8306196d2a129c,62bbfa8de61a9153e4d8e9cc,2022-06-29_09h09.36.487,Colour_Asymmetry_Pilot,2022.1.3,Win32,60.0240096,62bbe60bf3d75ef465d3e404,0,62,62,22,1,fourtwo,,,,,,,,,,,,,,,,,,,,,,,,,,,,,,,,,,,,,,,,,,,,,,,,,,,,,,,,,,,,,,,,,,,,,,,,,,,,,,,,,,,,,,,,,,,,,,,,,,,,,,,,,,,,,,,,,,,,,,,,,,,,,,,,,,,,,,,,,,,,,,,,,,,,,,,,
,,,,,,61601e9a6b8306196d2a129c,62bbfa8de61a9153e4d8e9cc,2022-06-29_09h09.36.487,Colour_Asymmetry_Pilot,2022.1.3,Win32,60.0240096,62bbe60bf3d75ef465d3e404,0,63,63,100,1,threeone,,,,,,,,,,,,,,,,,,,,,,,,,,,,,,,,,,,,,,,,,,,,,,,,,,,,,,,,,,,,,,,,,,,,,,,,,,,,,,,,,,,,,,,,,,,,,,,,,,,,,,,,,,,,,,,,,,,,,,,,,,,,,,,,,,,,,,,,,,,,,,,,,,,,,,,,
,,,,,,61601e9a6b8306196d2a129c,62bbfa8de61a9153e4d8e9cc,2022-06-29_09h09.36.487,Colour_Asymmetry_Pilot,2022.1.3,Win32,60.0240096,62bbe60bf3d75ef465d3e404,0,64,64,147,1,twofour,,,,,,,,,,,,,,,,,,,,,,,,,,,,,,,,,,,,,,,,,,,,,,,,,,,,,,,,,,,,,,,,,,,,,,,,,,,,,,,,,,,,,,,,,,,,,,,,,,,,,,,,,,,,,,,,,,,,,,,,,,,,,,,,,,,,,,,,,,,,,,,,,,,,,,,,
,,,,,,61601e9a6b8306196d2a129c,62bbfa8de61a9153e4d8e9cc,2022-06-29_09h09.36.487,Colour_Asymmetry_Pilot,2022.1.3,Win32,60.0240096,62bbe60bf3d75ef465d3e404,0,65,65,145,1,onethree,,,,,,,,,,,,,,,,,,,,,,,,,,,,,,,,,,,,,,,,,,,,,,,,,,,,,,,,,,,,,,,,,,,,,,,,,,,,,,,,,,,,,,,,,,,,,,,,,,,,,,,,,,,,,,,,,,,,,,,,,,,,,,,,,,,,,,,,,,,,,,,,,,,,,,,,
,,,,,,61601e9a6b8306196d2a129c,62bbfa8de61a9153e4d8e9cc,2022-06-29_09h09.36.487,Colour_Asymmetry_Pilot,2022.1.3,Win32,60.0240096,62bbe60bf3d75ef465d3e404,0,66,66,109,1,threefour,,,,,,,,,,,,,,,,,,,,,,,,,,,,,,,,,,,,,,,,,,,,,,,,,,,,,,,,,,,,,,,,,,,,,,,,,,,,,,,,,,,,,,,,,,,,,,,,,,,,,,,,,,,,,,,,,,,,,,,,,,,,,,,,,,,,,,,,,,,,,,,,,,,,,,,,
,,,,,,61601e9a6b8306196d2a129c,62bbfa8de61a9153e4d8e9cc,2022-06-29_09h09.36.487,Colour_Asymmetry_Pilot,2022.1.3,Win32,60.0240096,62bbe60bf3d75ef465d3e404,0,67,67,50,1,twoone,,,,,,,,,,,,,,,,,,,,,,,,,,,,,,,,,,,,,,,,,,,,,,,,,,,,,,,,,,,,,,,,,,,,,,,,,,,,,,,,,,,,,,,,,,,,,,,,,,,,,,,,,,,,,,,,,,,,,,,,,,,,,,,,,,,,,,,,,,,,,,,,,,,,,,,,
,,,,,,61601e9a6b8306196d2a129c,62bbfa8de61a9153e4d8e9cc,2022-06-29_09h09.36.487,Colour_Asymmetry_Pilot,2022.1.3,Win32,60.0240096,62bbe60bf3d75ef465d3e404,0,68,68,158,1,fourtwo,,,,,,,,,,,,,,,,,,,,,,,,,,,,,,,,,,,,,,,,,,,,,,,,,,,,,,,,,,,,,,,,,,,,,,,,,,,,,,,,,,,,,,,,,,,,,,,,,,,,,,,,,,,,,,,,,,,,,,,,,,,,,,,,,,,,,,,,,,,,,,,,,,,,,,,,
,,,,,,61601e9a6b8306196d2a129c,62bbfa8de61a9153e4d8e9cc,2022-06-29_09h09.36.487,Colour_Asymmetry_Pilot,2022.1.3,Win32,60.0240096,62bbe60bf3d75ef465d3e404,0,69,69,117,1,threefour,,,,,,,,,,,,,,,,,,,,,,,,,,,,,,,,,,,,,,,,,,,,,,,,,,,,,,,,,,,,,,,,,,,,,,,,,,,,,,,,,,,,,,,,,,,,,,,,,,,,,,,,,,,,,,,,,,,,,,,,,,,,,,,,,,,,,,,,,,,,,,,,,,,,,,,,
,,,,,,61601e9a6b8306196d2a129c,62bbfa8de61a9153e4d8e9cc,2022-06-29_09h09.36.487,Colour_Asymmetry_Pilot,2022.1.3,Win32,60.0240096,62bbe60bf3d75ef465d3e404,0,70,70,42,1,twoone,,,,,,,,,,,,,,,,,,,,,,,,,,,,,,,,,,,,,,,,,,,,,,,,,,,,,,,,,,,,,,,,,,,,,,,,,,,,,,,,,,,,,,,,,,,,,,,,,,,,,,,,,,,,,,,,,,,,,,,,,,,,,,,,,,,,,,,,,,,,,,,,,,,,,,,,
,,,,,,61601e9a6b8306196d2a129c,62bbfa8de61a9153e4d8e9cc,2022-06-29_09h09.36.487,Colour_Asymmetry_Pilot,2022.1.3,Win32,60.0240096,62bbe60bf3d75ef465d3e404,0,71,71,89,1,onethree,,,,,,,,,,,,,,,,,,,,,,,,,,,,,,,,,,,,,,,,,,,,,,,,,,,,,,,,,,,,,,,,,,,,,,,,,,,,,,,,,,,,,,,,,,,,,,,,,,,,,,,,,,,,,,,,,,,,,,,,,,,,,,,,,,,,,,,,,,,,,,,,,,,,,,,,
,,,,,,61601e9a6b8306196d2a129c,62bbfa8de61a9153e4d8e9cc,2022-06-29_09h09.36.487,Colour_Asymmetry_Pilot,2022.1.3,Win32,60.0240096,62bbe60bf3d75ef465d3e404,0,72,72,143,1,fourthree,,,,,,,,,,,,,,,,,,,,,,,,,,,,,,,,,,,,,,,,,,,,,,,,,,,,,,,,,,,,,,,,,,,,,,,,,,,,,,,,,,,,,,,,,,,,,,,,,,,,,,,,,,,,,,,,,,,,,,,,,,,,,,,,,,,,,,,,,,,,,,,,,,,,,,,,
,,,,,,61601e9a6b8306196d2a129c,62bbfa8de61a9153e4d8e9cc,2022-06-29_09h09.36.487,Colour_Asymmetry_Pilot,2022.1.3,Win32,60.0240096,62bbe60bf3d75ef465d3e404,0,73,73,55,1,fourthree,,,,,,,,,,,,,,,,,,,,,,,,,,,,,,,,,,,,,,,,,,,,,,,,,,,,,,,,,,,,,,,,,,,,,,,,,,,,,,,,,,,,,,,,,,,,,,,,,,,,,,,,,,,,,,,,,,,,,,,,,,,,,,,,,,,,,,,,,,,,,,,,,,,,,,,,
,,,,,,61601e9a6b8306196d2a129c,62bbfa8de61a9153e4d8e9cc,2022-06-29_09h09.36.487,Colour_Asymmetry_Pilot,2022.1.3,Win32,60.0240096,62bbe60bf3d75ef465d3e404,0,74,74,45,1,threefour,,,,,,,,,,,,,,,,,,,,,,,,,,,,,,,,,,,,,,,,,,,,,,,,,,,,,,,,,,,,,,,,,,,,,,,,,,,,,,,,,,,,,,,,,,,,,,,,,,,,,,,,,,,,,,,,,,,,,,,,,,,,,,,,,,,,,,,,,,,,,,,,,,,,,,,,
,,,,,,61601e9a6b8306196d2a129c,62bbfa8de61a9153e4d8e9cc,2022-06-29_09h09.36.487,Colour_Asymmetry_Pilot,2022.1.3,Win32,60.0240096,62bbe60bf3d75ef465d3e404,0,75,75,40,1,onetwo,,,,,,,,,,,,,,,,,,,,,,,,,,,,,,,,,,,,,,,,,,,,,,,,,,,,,,,,,,,,,,,,,,,,,,,,,,,,,,,,,,,,,,,,,,,,,,,,,,,,,,,,,,,,,,,,,,,,,,,,,,,,,,,,,,,,,,,,,,,,,,,,,,,,,,,,
,,,,,,61601e9a6b8306196d2a129c,62bbfa8de61a9153e4d8e9cc,2022-06-29_09h09.36.487,Colour_Asymmetry_Pilot,2022.1.3,Win32,60.0240096,62bbe60bf3d75ef465d3e404,0,76,76,41,1,onethree,,,,,,,,,,,,,,,,,,,,,,,,,,,,,,,,,,,,,,,,,,,,,,,,,,,,,,,,,,,,,,,,,,,,,,,,,,,,,,,,,,,,,,,,,,,,,,,,,,,,,,,,,,,,,,,,,,,,,,,,,,,,,,,,,,,,,,,,,,,,,,,,,,,,,,,,
,,,,,,61601e9a6b8306196d2a129c,62bbfa8de61a9153e4d8e9cc,2022-06-29_09h09.36.487,Colour_Asymmetry_Pilot,2022.1.3,Win32,60.0240096,62bbe60bf3d75ef465d3e404,0,77,77,83,1,twofour,,,,,,,,,,,,,,,,,,,,,,,,,,,,,,,,,,,,,,,,,,,,,,,,,,,,,,,,,,,,,,,,,,,,,,,,,,,,,,,,,,,,,,,,,,,,,,,,,,,,,,,,,,,,,,,,,,,,,,,,,,,,,,,,,,,,,,,,,,,,,,,,,,,,,,,,
,,,,,,61601e9a6b8306196d2a129c,62bbfa8de61a9153e4d8e9cc,2022-06-29_09h09.36.487,Colour_Asymmetry_Pilot,2022.1.3,Win32,60.0240096,62bbe60bf3d75ef465d3e404,0,78,78,129,1,onethree,,,,,,,,,,,,,,,,,,,,,,,,,,,,,,,,,,,,,,,,,,,,,,,,,,,,,,,,,,,,,,,,,,,,,,,,,,,,,,,,,,,,,,,,,,,,,,,,,,,,,,,,,,,,,,,,,,,,,,,,,,,,,,,,,,,,,,,,,,,,,,,,,,,,,,,,
,,,,,,61601e9a6b8306196d2a129c,62bbfa8de61a9153e4d8e9cc,2022-06-29_09h09.36.487,Colour_Asymmetry_Pilot,2022.1.3,Win32,60.0240096,62bbe60bf3d75ef465d3e404,0,79,79,8,1,onetwo,,,,,,,,,,,,,,,,,,,,,,,,,,,,,,,,,,,,,,,,,,,,,,,,,,,,,,,,,,,,,,,,,,,,,,,,,,,,,,,,,,,,,,,,,,,,,,,,,,,,,,,,,,,,,,,,,,,,,,,,,,,,,,,,,,,,,,,,,,,,,,,,,,,,,,,,
,,,,,,61601e9a6b8306196d2a129c,62bbfa8de61a9153e4d8e9cc,2022-06-29_09h09.36.487,Colour_Asymmetry_Pilot,2022.1.3,Win32,60.0240096,62bbe60bf3d75ef465d3e404,0,80,80,102,1,fourtwo,,,,,,,,,,,,,,,,,,,,,,,,,,,,,,,,,,,,,,,,,,,,,,,,,,,,,,,,,,,,,,,,,,,,,,,,,,,,,,,,,,,,,,,,,,,,,,,,,,,,,,,,,,,,,,,,,,,,,,,,,,,,,,,,,,,,,,,,,,,,,,,,,,,,,,,,
,,,,,,61601e9a6b8306196d2a129c,62bbfa8de61a9153e4d8e9cc,2022-06-29_09h09.36.487,Colour_Asymmetry_Pilot,2022.1.3,Win32,60.0240096,62bbe60bf3d75ef465d3e404,0,81,81,59,1,twofour,,,,,,,,,,,,,,,,,,,,,,,,,,,,,,,,,,,,,,,,,,,,,,,,,,,,,,,,,,,,,,,,,,,,,,,,,,,,,,,,,,,,,,,,,,,,,,,,,,,,,,,,,,,,,,,,,,,,,,,,,,,,,,,,,,,,,,,,,,,,,,,,,,,,,,,,
,,,,,,61601e9a6b8306196d2a129c,62bbfa8de61a9153e4d8e9cc,2022-06-29_09h09.36.487,Colour_Asymmetry_Pilot,2022.1.3,Win32,60.0240096,62bbe60bf3d75ef465d3e404,0,82,82,159,1,fourthree,,,,,,,,,,,,,,,,,,,,,,,,,,,,,,,,,,,,,,,,,,,,,,,,,,,,,,,,,,,,,,,,,,,,,,,,,,,,,,,,,,,,,,,,,,,,,,,,,,,,,,,,,,,,,,,,,,,,,,,,,,,,,,,,,,,,,,,,,,,,,,,,,,,,,,,,
,,,,,,61601e9a6b8306196d2a129c,62bbfa8de61a9153e4d8e9cc,2022-06-29_09h09.36.487,Colour_Asymmetry_Pilot,2022.1.3,Win32,60.0240096,62bbe60bf3d75ef465d3e404,0,83,83,107,1,twofour,,,,,,,,,,,,,,,,,,,,,,,,,,,,,,,,,,,,,,,,,,,,,,,,,,,,,,,,,,,,,,,,,,,,,,,,,,,,,,,,,,,,,,,,,,,,,,,,,,,,,,,,,,,,,,,,,,,,,,,,,,,,,,,,,,,,,,,,,,,,,,,,,,,,,,,,
,,,,,,61601e9a6b8306196d2a129c,62bbfa8de61a9153e4d8e9cc,2022-06-29_09h09.36.487,Colour_Asymmetry_Pilot,2022.1.3,Win32,60.0240096,62bbe60bf3d75ef465d3e404,0,84,84,94,1,fourtwo,,,,,,,,,,,,,,,,,,,,,,,,,,,,,,,,,,,,,,,,,,,,,,,,,,,,,,,,,,,,,,,,,,,,,,,,,,,,,,,,,,,,,,,,,,,,,,,,,,,,,,,,,,,,,,,,,,,,,,,,,,,,,,,,,,,,,,,,,,,,,,,,,,,,,,,,
,,,,,,61601e9a6b8306196d2a129c,62bbfa8de61a9153e4d8e9cc,2022-06-29_09h09.36.487,Colour_Asymmetry_Pilot,2022.1.3,Win32,60.0240096,62bbe60bf3d75ef465d3e404,0,85,85,133,1,threefour,,,,,,,,,,,,,,,,,,,,,,,,,,,,,,,,,,,,,,,,,,,,,,,,,,,,,,,,,,,,,,,,,,,,,,,,,,,,,,,,,,,,,,,,,,,,,,,,,,,,,,,,,,,,,,,,,,,,,,,,,,,,,,,,,,,,,,,,,,,,,,,,,,,,,,,,
,,,,,,61601e9a6b8306196d2a129c,62bbfa8de61a9153e4d8e9cc,2022-06-29_09h09.36.487,Colour_Asymmetry_Pilot,2022.1.3,Win32,60.0240096,62bbe60bf3d75ef465d3e404,0,86,86,132,1,threeone,,,,,,,,,,,,,,,,,,,,,,,,,,,,,,,,,,,,,,,,,,,,,,,,,,,,,,,,,,,,,,,,,,,,,,,,,,,,,,,,,,,,,,,,,,,,,,,,,,,,,,,,,,,,,,,,,,,,,,,,,,,,,,,,,,,,,,,,,,,,,,,,,,,,,,,,
,,,,,,61601e9a6b8306196d2a129c,62bbfa8de61a9153e4d8e9cc,2022-06-29_09h09.36.487,Colour_Asymmetry_Pilot,2022.1.3,Win32,60.0240096,62bbe60bf3d75ef465d3e404,0,87,87,142,1,fourtwo,,,,,,,,,,,,,,,,,,,,,,,,,,,,,,,,,,,,,,,,,,,,,,,,,,,,,,,,,,,,,,,,,,,,,,,,,,,,,,,,,,,,,,,,,,,,,,,,,,,,,,,,,,,,,,,,,,,,,,,,,,,,,,,,,,,,,,,,,,,,,,,,,,,,,,,,
,,,,,,61601e9a6b8306196d2a129c,62bbfa8de61a9153e4d8e9cc,2022-06-29_09h09.36.487,Colour_Asymmetry_Pilot,2022.1.3,Win32,60.0240096,62bbe60bf3d75ef465d3e404,0,88,88,62,1,fourtwo,,,,,,,,,,,,,,,,,,,,,,,,,,,,,,,,,,,,,,,,,,,,,,,,,,,,,,,,,,,,,,,,,,,,,,,,,,,,,,,,,,,,,,,,,,,,,,,,,,,,,,,,,,,,,,,,,,,,,,,,,,,,,,,,,,,,,,,,,,,,,,,,,,,,,,,,
,,,,,,61601e9a6b8306196d2a129c,62bbfa8de61a9153e4d8e9cc,2022-06-29_09h09.36.487,Colour_Asymmetry_Pilot,2022.1.3,Win32,60.0240096,62bbe60bf3d75ef465d3e404,0,89,89,67,1,twofour,,,,,,,,,,,,,,,,,,,,,,,,,,,,,,,,,,,,,,,,,,,,,,,,,,,,,,,,,,,,,,,,,,,,,,,,,,,,,,,,,,,,,,,,,,,,,,,,,,,,,,,,,,,,,,,,,,,,,,,,,,,,,,,,,,,,,,,,,,,,,,,,,,,,,,,,
,,,,,,61601e9a6b8306196d2a129c,62bbfa8de61a9153e4d8e9cc,2022-06-29_09h09.36.487,Colour_Asymmetry_Pilot,2022.1.3,Win32,60.0240096,62bbe60bf3d75ef465d3e404,0,90,90,123,1,twofour,,,,,,,,,,,,,,,,,,,,,,,,,,,,,,,,,,,,,,,,,,,,,,,,,,,,,,,,,,,,,,,,,,,,,,,,,,,,,,,,,,,,,,,,,,,,,,,,,,,,,,,,,,,,,,,,,,,,,,,,,,,,,,,,,,,,,,,,,,,,,,,,,,,,,,,,
,,,,,,61601e9a6b8306196d2a129c,62bbfa8de61a9153e4d8e9cc,2022-06-29_09h09.36.487,Colour_Asymmetry_Pilot,2022.1.3,Win32,60.0240096,62bbe60bf3d75ef465d3e404,0,91,91,126,1,fourtwo,,,,,,,,,,,,,,,,,,,,,,,,,,,,,,,,,,,,,,,,,,,,,,,,,,,,,,,,,,,,,,,,,,,,,,,,,,,,,,,,,,,,,,,,,,,,,,,,,,,,,,,,,,,,,,,,,,,,,,,,,,,,,,,,,,,,,,,,,,,,,,,,,,,,,,,,
,,,,,,61601e9a6b8306196d2a129c,62bbfa8de61a9153e4d8e9cc,2022-06-29_09h09.36.487,Colour_Asymmetry_Pilot,2022.1.3,Win32,60.0240096,62bbe60bf3d75ef465d3e404,0,92,92,96,1,onetwo,,,,,,,,,,,,,,,,,,,,,,,,,,,,,,,,,,,,,,,,,,,,,,,,,,,,,,,,,,,,,,,,,,,,,,,,,,,,,,,,,,,,,,,,,,,,,,,,,,,,,,,,,,,,,,,,,,,,,,,,,,,,,,,,,,,,,,,,,,,,,,,,,,,,,,,,
,,,,,,61601e9a6b8306196d2a129c,62bbfa8de61a9153e4d8e9cc,2022-06-29_09h09.36.487,Colour_Asymmetry_Pilot,2022.1.3,Win32,60.0240096,62bbe60bf3d75ef465d3e404,0,93,93,101,1,threefour,,,,,,,,,,,,,,,,,,,,,,,,,,,,,,,,,,,,,,,,,,,,,,,,,,,,,,,,,,,,,,,,,,,,,,,,,,,,,,,,,,,,,,,,,,,,,,,,,,,,,,,,,,,,,,,,,,,,,,,,,,,,,,,,,,,,,,,,,,,,,,,,,,,,,,,,
,,,,,,61601e9a6b8306196d2a129c,62bbfa8de61a9153e4d8e9cc,2022-06-29_09h09.36.487,Colour_Asymmetry_Pilot,2022.1.3,Win32,60.0240096,62bbe60bf3d75ef465d3e404,0,94,94,141,1,threefour,,,,,,,,,,,,,,,,,,,,,,,,,,,,,,,,,,,,,,,,,,,,,,,,,,,,,,,,,,,,,,,,,,,,,,,,,,,,,,,,,,,,,,,,,,,,,,,,,,,,,,,,,,,,,,,,,,,,,,,,,,,,,,,,,,,,,,,,,,,,,,,,,,,,,,,,
,,,,,,61601e9a6b8306196d2a129c,62bbfa8de61a9153e4d8e9cc,2022-06-29_09h09.36.487,Colour_Asymmetry_Pilot,2022.1.3,Win32,60.0240096,62bbe60bf3d75ef465d3e404,0,95,95,86,1,fourtwo,,,,,,,,,,,,,,,,,,,,,,,,,,,,,,,,,,,,,,,,,,,,,,,,,,,,,,,,,,,,,,,,,,,,,,,,,,,,,,,,,,,,,,,,,,,,,,,,,,,,,,,,,,,,,,,,,,,,,,,,,,,,,,,,,,,,,,,,,,,,,,,,,,,,,,,,
,,,,,,61601e9a6b8306196d2a129c,62bbfa8de61a9153e4d8e9cc,2022-06-29_09h09.36.487,Colour_Asymmetry_Pilot,2022.1.3,Win32,60.0240096,62bbe60bf3d75ef465d3e404,0,96,96,48,1,onetwo,,,,,,,,,,,,,,,,,,,,,,,,,,,,,,,,,,,,,,,,,,,,,,,,,,,,,,,,,,,,,,,,,,,,,,,,,,,,,,,,,,,,,,,,,,,,,,,,,,,,,,,,,,,,,,,,,,,,,,,,,,,,,,,,,,,,,,,,,,,,,,,,,,,,,,,,
,,,,,,61601e9a6b8306196d2a129c,62bbfa8de61a9153e4d8e9cc,2022-06-29_09h09.36.487,Colour_Asymmetry_Pilot,2022.1.3,Win32,60.0240096,62bbe60bf3d75ef465d3e404,0,97,97,14,1,fourtwo,,,,,,,,,,,,,,,,,,,,,,,,,,,,,,,,,,,,,,,,,,,,,,,,,,,,,,,,,,,,,,,,,,,,,,,,,,,,,,,,,,,,,,,,,,,,,,,,,,,,,,,,,,,,,,,,,,,,,,,,,,,,,,,,,,,,,,,,,,,,,,,,,,,,,,,,
,,,,,,61601e9a6b8306196d2a129c,62bbfa8de61a9153e4d8e9cc,2022-06-29_09h09.36.487,Colour_Asymmetry_Pilot,2022.1.3,Win32,60.0240096,62bbe60bf3d75ef465d3e404,0,98,98,80,1,onetwo,,,,,,,,,,,,,,,,,,,,,,,,,,,,,,,,,,,,,,,,,,,,,,,,,,,,,,,,,,,,,,,,,,,,,,,,,,,,,,,,,,,,,,,,,,,,,,,,,,,,,,,,,,,,,,,,,,,,,,,,,,,,,,,,,,,,,,,,,,,,,,,,,,,,,,,,
,,,,,,61601e9a6b8306196d2a129c,62bbfa8de61a9153e4d8e9cc,2022-06-29_09h09.36.487,Colour_Asymmetry_Pilot,2022.1.3,Win32,60.0240096,62bbe60bf3d75ef465d3e404,0,99,99,122,1,twoone,,,,,,,,,,,,,,,,,,,,,,,,,,,,,,,,,,,,,,,,,,,,,,,,,,,,,,,,,,,,,,,,,,,,,,,,,,,,,,,,,,,,,,,,,,,,,,,,,,,,,,,,,,,,,,,,,,,,,,,,,,,,,,,,,,,,,,,,,,,,,,,,,,,,,,,,
,,,,,,61601e9a6b8306196d2a129c,62bbfa8de61a9153e4d8e9cc,2022-06-29_09h09.36.487,Colour_Asymmetry_Pilot,2022.1.3,Win32,60.0240096,62bbe60bf3d75ef465d3e404,0,100,100,37,1,threefour,,,,,,,,,,,,,,,,,,,,,,,,,,,,,,,,,,,,,,,,,,,,,,,,,,,,,,,,,,,,,,,,,,,,,,,,,,,,,,,,,,,,,,,,,,,,,,,,,,,,,,,,,,,,,,,,,,,,,,,,,,,,,,,,,,,,,,,,,,,,,,,,,,,,,,,,
,,,,,,61601e9a6b8306196d2a129c,62bbfa8de61a9153e4d8e9cc,2022-06-29_09h09.36.487,Colour_Asymmetry_Pilot,2022.1.3,Win32,60.0240096,62bbe60bf3d75ef465d3e404,0,101,101,84,1,threeone,,,,,,,,,,,,,,,,,,,,,,,,,,,,,,,,,,,,,,,,,,,,,,,,,,,,,,,,,,,,,,,,,,,,,,,,,,,,,,,,,,,,,,,,,,,,,,,,,,,,,,,,,,,,,,,,,,,,,,,,,,,,,,,,,,,,,,,,,,,,,,,,,,,,,,,,
,,,,,,61601e9a6b8306196d2a129c,62bbfa8de61a9153e4d8e9cc,2022-06-29_09h09.36.487,Colour_Asymmetry_Pilot,2022.1.3,Win32,60.0240096,62bbe60bf3d75ef465d3e404,0,102,102,150,1,fourtwo,,,,,,,,,,,,,,,,,,,,,,,,,,,,,,,,,,,,,,,,,,,,,,,,,,,,,,,,,,,,,,,,,,,,,,,,,,,,,,,,,,,,,,,,,,,,,,,,,,,,,,,,,,,,,,,,,,,,,,,,,,,,,,,,,,,,,,,,,,,,,,,,,,,,,,,,
,,,,,,61601e9a6b8306196d2a129c,62bbfa8de61a9153e4d8e9cc,2022-06-29_09h09.36.487,Colour_Asymmetry_Pilot,2022.1.3,Win32,60.0240096,62bbe60bf3d75ef465d3e404,0,103,103,11,1,twofour,,,,,,,,,,,,,,,,,,,,,,,,,,,,,,,,,,,,,,,,,,,,,,,,,,,,,,,,,,,,,,,,,,,,,,,,,,,,,,,,,,,,,,,,,,,,,,,,,,,,,,,,,,,,,,,,,,,,,,,,,,,,,,,,,,,,,,,,,,,,,,,,,,,,,,,,
,,,,,,61601e9a6b8306196d2a129c,62bbfa8de61a9153e4d8e9cc,2022-06-29_09h09.36.487,Colour_Asymmetry_Pilot,2022.1.3,Win32,60.0240096,62bbe60bf3d75ef465d3e404,0,104,104,0,1,onetwo,,,,,,,,,,,,,,,,,,,,,,,,,,,,,,,,,,,,,,,,,,,,,,,,,,,,,,,,,,,,,,,,,,,,,,,,,,,,,,,,,,,,,,,,,,,,,,,,,,,,,,,,,,,,,,,,,,,,,,,,,,,,,,,,,,,,,,,,,,,,,,,,,,,,,,,,
,,,,,,61601e9a6b8306196d2a129c,62bbfa8de61a9153e4d8e9cc,2022-06-29_09h09.36.487,Colour_Asymmetry_Pilot,2022.1.3,Win32,60.0240096,62bbe60bf3d75ef465d3e404,0,105,105,151,1,fourthree,,,,,,,,,,,,,,,,,,,,,,,,,,,,,,,,,,,,,,,,,,,,,,,,,,,,,,,,,,,,,,,,,,,,,,,,,,,,,,,,,,,,,,,,,,,,,,,,,,,,,,,,,,,,,,,,,,,,,,,,,,,,,,,,,,,,,,,,,,,,,,,,,,,,,,,,
,,,,,,61601e9a6b8306196d2a129c,62bbfa8de61a9153e4d8e9cc,2022-06-29_09h09.36.487,Colour_Asymmetry_Pilot,2022.1.3,Win32,60.0240096,62bbe60bf3d75ef465d3e404,0,106,106,79,1,fourthree,,,,,,,,,,,,,,,,,,,,,,,,,,,,,,,,,,,,,,,,,,,,,,,,,,,,,,,,,,,,,,,,,,,,,,,,,,,,,,,,,,,,,,,,,,,,,,,,,,,,,,,,,,,,,,,,,,,,,,,,,,,,,,,,,,,,,,,,,,,,,,,,,,,,,,,,
,,,,,,61601e9a6b8306196d2a129c,62bbfa8de61a9153e4d8e9cc,2022-06-29_09h09.36.487,Colour_Asymmetry_Pilot,2022.1.3,Win32,60.0240096,62bbe60bf3d75ef465d3e404,0,107,107,60,1,threeone,,,,,,,,,,,,,,,,,,,,,,,,,,,,,,,,,,,,,,,,,,,,,,,,,,,,,,,,,,,,,,,,,,,,,,,,,,,,,,,,,,,,,,,,,,,,,,,,,,,,,,,,,,,,,,,,,,,,,,,,,,,,,,,,,,,,,,,,,,,,,,,,,,,,,,,,
,,,,,,61601e9a6b8306196d2a129c,62bbfa8de61a9153e4d8e9cc,2022-06-29_09h09.36.487,Colour_Asymmetry_Pilot,2022.1.3,Win32,60.0240096,62bbe60bf3d75ef465d3e404,0,108,108,140,1,threeone,,,,,,,,,,,,,,,,,,,,,,,,,,,,,,,,,,,,,,,,,,,,,,,,,,,,,,,,,,,,,,,,,,,,,,,,,,,,,,,,,,,,,,,,,,,,,,,,,,,,,,,,,,,,,,,,,,,,,,,,,,,,,,,,,,,,,,,,,,,,,,,,,,,,,,,,
,,,,,,61601e9a6b8306196d2a129c,62bbfa8de61a9153e4d8e9cc,2022-06-29_09h09.36.487,Colour_Asymmetry_Pilot,2022.1.3,Win32,60.0240096,62bbe60bf3d75ef465d3e404,0,109,109,152,1,onetwo,,,,,,,,,,,,,,,,,,,,,,,,,,,,,,,,,,,,,,,,,,,,,,,,,,,,,,,,,,,,,,,,,,,,,,,,,,,,,,,,,,,,,,,,,,,,,,,,,,,,,,,,,,,,,,,,,,,,,,,,,,,,,,,,,,,,,,,,,,,,,,,,,,,,,,,,
,,,,,,61601e9a6b8306196d2a129c,62bbfa8de61a9153e4d8e9cc,2022-06-29_09h09.36.487,Colour_Asymmetry_Pilot,2022.1.3,Win32,60.0240096,62bbe60bf3d75ef465d3e404,0,110,110,20,1,threeone,,,,,,,,,,,,,,,,,,,,,,,,,,,,,,,,,,,,,,,,,,,,,,,,,,,,,,,,,,,,,,,,,,,,,,,,,,,,,,,,,,,,,,,,,,,,,,,,,,,,,,,,,,,,,,,,,,,,,,,,,,,,,,,,,,,,,,,,,,,,,,,,,,,,,,,,
,,,,,,61601e9a6b8306196d2a129c,62bbfa8de61a9153e4d8e9cc,2022-06-29_09h09.36.487,Colour_Asymmetry_Pilot,2022.1.3,Win32,60.0240096,62bbe60bf3d75ef465d3e404,0,111,111,24,1,onetwo,,,,,,,,,,,,,,,,,,,,,,,,,,,,,,,,,,,,,,,,,,,,,,,,,,,,,,,,,,,,,,,,,,,,,,,,,,,,,,,,,,,,,,,,,,,,,,,,,,,,,,,,,,,,,,,,,,,,,,,,,,,,,,,,,,,,,,,,,,,,,,,,,,,,,,,,
,,,,,,61601e9a6b8306196d2a129c,62bbfa8de61a9153e4d8e9cc,2022-06-29_09h09.36.487,Colour_Asymmetry_Pilot,2022.1.3,Win32,60.0240096,62bbe60bf3d75ef465d3e404,0,112,112,153,1,onethree,,,,,,,,,,,,,,,,,,,,,,,,,,,,,,,,,,,,,,,,,,,,,,,,,,,,,,,,,,,,,,,,,,,,,,,,,,,,,,,,,,,,,,,,,,,,,,,,,,,,,,,,,,,,,,,,,,,,,,,,,,,,,,,,,,,,,,,,,,,,,,,,,,,,,,,,
,,,,,,61601e9a6b8306196d2a129c,62bbfa8de61a9153e4d8e9cc,2022-06-29_09h09.36.487,Colour_Asymmetry_Pilot,2022.1.3,Win32,60.0240096,62bbe60bf3d75ef465d3e404,0,113,113,13,1,threefour,,,,,,,,,,,,,,,,,,,,,,,,,,,,,,,,,,,,,,,,,,,,,,,,,,,,,,,,,,,,,,,,,,,,,,,,,,,,,,,,,,,,,,,,,,,,,,,,,,,,,,,,,,,,,,,,,,,,,,,,,,,,,,,,,,,,,,,,,,,,,,,,,,,,,,,,
,,,,,,61601e9a6b8306196d2a129c,62bbfa8de61a9153e4d8e9cc,2022-06-29_09h09.36.487,Colour_Asymmetry_Pilot,2022.1.3,Win32,60.0240096,62bbe60bf3d75ef465d3e404,0,114,114,61,1,threefour,,,,,,,,,,,,,,,,,,,,,,,,,,,,,,,,,,,,,,,,,,,,,,,,,,,,,,,,,,,,,,,,,,,,,,,,,,,,,,,,,,,,,,,,,,,,,,,,,,,,,,,,,,,,,,,,,,,,,,,,,,,,,,,,,,,,,,,,,,,,,,,,,,,,,,,,
,,,,,,61601e9a6b8306196d2a129c,62bbfa8de61a9153e4d8e9cc,2022-06-29_09h09.36.487,Colour_Asymmetry_Pilot,2022.1.3,Win32,60.0240096,62bbe60bf3d75ef465d3e404,0,115,115,92,1,threeone,,,,,,,,,,,,,,,,,,,,,,,,,,,,,,,,,,,,,,,,,,,,,,,,,,,,,,,,,,,,,,,,,,,,,,,,,,,,,,,,,,,,,,,,,,,,,,,,,,,,,,,,,,,,,,,,,,,,,,,,,,,,,,,,,,,,,,,,,,,,,,,,,,,,,,,,
,,,,,,61601e9a6b8306196d2a129c,62bbfa8de61a9153e4d8e9cc,2022-06-29_09h09.36.487,Colour_Asymmetry_Pilot,2022.1.3,Win32,60.0240096,62bbe60bf3d75ef465d3e404,0,116,116,154,1,twoone,,,,,,,,,,,,,,,,,,,,,,,,,,,,,,,,,,,,,,,,,,,,,,,,,,,,,,,,,,,,,,,,,,,,,,,,,,,,,,,,,,,,,,,,,,,,,,,,,,,,,,,,,,,,,,,,,,,,,,,,,,,,,,,,,,,,,,,,,,,,,,,,,,,,,,,,
,,,,,,61601e9a6b8306196d2a129c,62bbfa8de61a9153e4d8e9cc,2022-06-29_09h09.36.487,Colour_Asymmetry_Pilot,2022.1.3,Win32,60.0240096,62bbe60bf3d75ef465d3e404,0,117,117,136,1,onetwo,,,,,,,,,,,,,,,,,,,,,,,,,,,,,,,,,,,,,,,,,,,,,,,,,,,,,,,,,,,,,,,,,,,,,,,,,,,,,,,,,,,,,,,,,,,,,,,,,,,,,,,,,,,,,,,,,,,,,,,,,,,,,,,,,,,,,,,,,,,,,,,,,,,,,,,,
,,,,,,61601e9a6b8306196d2a129c,62bbfa8de61a9153e4d8e9cc,2022-06-29_09h09.36.487,Colour_Asymmetry_Pilot,2022.1.3,Win32,60.0240096,62bbe60bf3d75ef465d3e404,0,118,118,95,1,fourthree,,,,,,,,,,,,,,,,,,,,,,,,,,,,,,,,,,,,,,,,,,,,,,,,,,,,,,,,,,,,,,,,,,,,,,,,,,,,,,,,,,,,,,,,,,,,,,,,,,,,,,,,,,,,,,,,,,,,,,,,,,,,,,,,,,,,,,,,,,,,,,,,,,,,,,,,
,,,,,,61601e9a6b8306196d2a129c,62bbfa8de61a9153e4d8e9cc,2022-06-29_09h09.36.487,Colour_Asymmetry_Pilot,2022.1.3,Win32,60.0240096,62bbe60bf3d75ef465d3e404,0,119,119,3,1,twofour,,,,,,,,,,,,,,,,,,,,,,,,,,,,,,,,,,,,,,,,,,,,,,,,,,,,,,,,,,,,,,,,,,,,,,,,,,,,,,,,,,,,,,,,,,,,,,,,,,,,,,,,,,,,,,,,,,,,,,,,,,,,,,,,,,,,,,,,,,,,,,,,,,,,,,,,
,,,,,,61601e9a6b8306196d2a129c,62bbfa8de61a9153e4d8e9cc,2022-06-29_09h09.36.487,Colour_Asymmetry_Pilot,2022.1.3,Win32,60.0240096,62bbe60bf3d75ef465d3e404,0,120,120,88,1,onetwo,,,,,,,,,,,,,,,,,,,,,,,,,,,,,,,,,,,,,,,,,,,,,,,,,,,,,,,,,,,,,,,,,,,,,,,,,,,,,,,,,,,,,,,,,,,,,,,,,,,,,,,,,,,,,,,,,,,,,,,,,,,,,,,,,,,,,,,,,,,,,,,,,,,,,,,,
,,,,,,61601e9a6b8306196d2a129c,62bbfa8de61a9153e4d8e9cc,2022-06-29_09h09.36.487,Colour_Asymmetry_Pilot,2022.1.3,Win32,60.0240096,62bbe60bf3d75ef465d3e404,0,121,121,17,1,onethree,,,,,,,,,,,,,,,,,,,,,,,,,,,,,,,,,,,,,,,,,,,,,,,,,,,,,,,,,,,,,,,,,,,,,,,,,,,,,,,,,,,,,,,,,,,,,,,,,,,,,,,,,,,,,,,,,,,,,,,,,,,,,,,,,,,,,,,,,,,,,,,,,,,,,,,,
,,,,,,61601e9a6b8306196d2a129c,62bbfa8de61a9153e4d8e9cc,2022-06-29_09h09.36.487,Colour_Asymmetry_Pilot,2022.1.3,Win32,60.0240096,62bbe60bf3d75ef465d3e404,0,122,122,56,1,onetwo,,,,,,,,,,,,,,,,,,,,,,,,,,,,,,,,,,,,,,,,,,,,,,,,,,,,,,,,,,,,,,,,,,,,,,,,,,,,,,,,,,,,,,,,,,,,,,,,,,,,,,,,,,,,,,,,,,,,,,,,,,,,,,,,,,,,,,,,,,,,,,,,,,,,,,,,
,,,,,,61601e9a6b8306196d2a129c,62bbfa8de61a9153e4d8e9cc,2022-06-29_09h09.36.487,Colour_Asymmetry_Pilot,2022.1.3,Win32,60.0240096,62bbe60bf3d75ef465d3e404,0,123,123,160,1,onetwo,,,,,,,,,,,,,,,,,,,,,,,,,,,,,,,,,,,,,,,,,,,,,,,,,,,,,,,,,,,,,,,,,,,,,,,,,,,,,,,,,,,,,,,,,,,,,,,,,,,,,,,,,,,,,,,,,,,,,,,,,,,,,,,,,,,,,,,,,,,,,,,,,,,,,,,,
,,,,,,61601e9a6b8306196d2a129c,62bbfa8de61a9153e4d8e9cc,2022-06-29_09h09.36.487,Colour_Asymmetry_Pilot,2022.1.3,Win32,60.0240096,62bbe60bf3d75ef465d3e404,0,124,124,2,1,twoone,,,,,,,,,,,,,,,,,,,,,,,,,,,,,,,,,,,,,,,,,,,,,,,,,,,,,,,,,,,,,,,,,,,,,,,,,,,,,,,,,,,,,,,,,,,,,,,,,,,,,,,,,,,,,,,,,,,,,,,,,,,,,,,,,,,,,,,,,,,,,,,,,,,,,,,,
,,,,,,61601e9a6b8306196d2a129c,62bbfa8de61a9153e4d8e9cc,2022-06-29_09h09.36.487,Colour_Asymmetry_Pilot,2022.1.3,Win32,60.0240096,62bbe60bf3d75ef465d3e404,0,125,125,47,1,fourthree,,,,,,,,,,,,,,,,,,,,,,,,,,,,,,,,,,,,,,,,,,,,,,,,,,,,,,,,,,,,,,,,,,,,,,,,,,,,,,,,,,,,,,,,,,,,,,,,,,,,,,,,,,,,,,,,,,,,,,,,,,,,,,,,,,,,,,,,,,,,,,,,,,,,,,,,
,,,,,,61601e9a6b8306196d2a129c,62bbfa8de61a9153e4d8e9cc,2022-06-29_09h09.36.487,Colour_Asymmetry_Pilot,2022.1.3,Win32,60.0240096,62bbe60bf3d75ef465d3e404,0,126,126,9,1,onethree,,,,,,,,,,,,,,,,,,,,,,,,,,,,,,,,,,,,,,,,,,,,,,,,,,,,,,,,,,,,,,,,,,,,,,,,,,,,,,,,,,,,,,,,,,,,,,,,,,,,,,,,,,,,,,,,,,,,,,,,,,,,,,,,,,,,,,,,,,,,,,,,,,,,,,,,
,,,,,,61601e9a6b8306196d2a129c,62bbfa8de61a9153e4d8e9cc,2022-06-29_09h09.36.487,Colour_Asymmetry_Pilot,2022.1.3,Win32,60.0240096,62bbe60bf3d75ef465d3e404,0,127,127,53,1,threefour,,,,,,,,,,,,,,,,,,,,,,,,,,,,,,,,,,,,,,,,,,,,,,,,,,,,,,,,,,,,,,,,,,,,,,,,,,,,,,,,,,,,,,,,,,,,,,,,,,,,,,,,,,,,,,,,,,,,,,,,,,,,,,,,,,,,,,,,,,,,,,,,,,,,,,,,
,,,,,,61601e9a6b8306196d2a129c,62bbfa8de61a9153e4d8e9cc,2022-06-29_09h09.36.487,Colour_Asymmetry_Pilot,2022.1.3,Win32,60.0240096,62bbe60bf3d75ef465d3e404,0,128,128,23,1,fourthree,,,,,,,,,,,,,,,,,,,,,,,,,,,,,,,,,,,,,,,,,,,,,,,,,,,,,,,,,,,,,,,,,,,,,,,,,,,,,,,,,,,,,,,,,,,,,,,,,,,,,,,,,,,,,,,,,,,,,,,,,,,,,,,,,,,,,,,,,,,,,,,,,,,,,,,,
,,,,,,61601e9a6b8306196d2a129c,62bbfa8de61a9153e4d8e9cc,2022-06-29_09h09.36.487,Colour_Asymmetry_Pilot,2022.1.3,Win32,60.0240096,62bbe60bf3d75ef465d3e404,0,129,129,64,1,onetwo,,,,,,,,,,,,,,,,,,,,,,,,,,,,,,,,,,,,,,,,,,,,,,,,,,,,,,,,,,,,,,,,,,,,,,,,,,,,,,,,,,,,,,,,,,,,,,,,,,,,,,,,,,,,,,,,,,,,,,,,,,,,,,,,,,,,,,,,,,,,,,,,,,,,,,,,
,,,,,,61601e9a6b8306196d2a129c,62bbfa8de61a9153e4d8e9cc,2022-06-29_09h09.36.487,Colour_Asymmetry_Pilot,2022.1.3,Win32,60.0240096,62bbe60bf3d75ef465d3e404,0,130,130,135,1,fourthree,,,,,,,,,,,,,,,,,,,,,,,,,,,,,,,,,,,,,,,,,,,,,,,,,,,,,,,,,,,,,,,,,,,,,,,,,,,,,,,,,,,,,,,,,,,,,,,,,,,,,,,,,,,,,,,,,,,,,,,,,,,,,,,,,,,,,,,,,,,,,,,,,,,,,,,,
,,,,,,61601e9a6b8306196d2a129c,62bbfa8de61a9153e4d8e9cc,2022-06-29_09h09.36.487,Colour_Asymmetry_Pilot,2022.1.3,Win32,60.0240096,62bbe60bf3d75ef465d3e404,0,131,131,138,1,twoone,,,,,,,,,,,,,,,,,,,,,,,,,,,,,,,,,,,,,,,,,,,,,,,,,,,,,,,,,,,,,,,,,,,,,,,,,,,,,,,,,,,,,,,,,,,,,,,,,,,,,,,,,,,,,,,,,,,,,,,,,,,,,,,,,,,,,,,,,,,,,,,,,,,,,,,,
,,,,,,61601e9a6b8306196d2a129c,62bbfa8de61a9153e4d8e9cc,2022-06-29_09h09.36.487,Colour_Asymmetry_Pilot,2022.1.3,Win32,60.0240096,62bbe60bf3d75ef465d3e404,0,132,132,12,1,threeone,,,,,,,,,,,,,,,,,,,,,,,,,,,,,,,,,,,,,,,,,,,,,,,,,,,,,,,,,,,,,,,,,,,,,,,,,,,,,,,,,,,,,,,,,,,,,,,,,,,,,,,,,,,,,,,,,,,,,,,,,,,,,,,,,,,,,,,,,,,,,,,,,,,,,,,,
,,,,,,61601e9a6b8306196d2a129c,62bbfa8de61a9153e4d8e9cc,2022-06-29_09h09.36.487,Colour_Asymmetry_Pilot,2022.1.3,Win32,60.0240096,62bbe60bf3d75ef465d3e404,0,133,133,49,1,onethree,,,,,,,,,,,,,,,,,,,,,,,,,,,,,,,,,,,,,,,,,,,,,,,,,,,,,,,,,,,,,,,,,,,,,,,,,,,,,,,,,,,,,,,,,,,,,,,,,,,,,,,,,,,,,,,,,,,,,,,,,,,,,,,,,,,,,,,,,,,,,,,,,,,,,,,,
,,,,,,61601e9a6b8306196d2a129c,62bbfa8de61a9153e4d8e9cc,2022-06-29_09h09.36.487,Colour_Asymmetry_Pilot,2022.1.3,Win32,60.0240096,62bbe60bf3d75ef465d3e404,0,134,134,146,1,twoone,,,,,,,,,,,,,,,,,,,,,,,,,,,,,,,,,,,,,,,,,,,,,,,,,,,,,,,,,,,,,,,,,,,,,,,,,,,,,,,,,,,,,,,,,,,,,,,,,,,,,,,,,,,,,,,,,,,,,,,,,,,,,,,,,,,,,,,,,,,,,,,,,,,,,,,,
,,,,,,61601e9a6b8306196d2a129c,62bbfa8de61a9153e4d8e9cc,2022-06-29_09h09.36.487,Colour_Asymmetry_Pilot,2022.1.3,Win32,60.0240096,62bbe60bf3d75ef465d3e404,0,135,135,32,1,onetwo,,,,,,,,,,,,,,,,,,,,,,,,,,,,,,,,,,,,,,,,,,,,,,,,,,,,,,,,,,,,,,,,,,,,,,,,,,,,,,,,,,,,,,,,,,,,,,,,,,,,,,,,,,,,,,,,,,,,,,,,,,,,,,,,,,,,,,,,,,,,,,,,,,,,,,,,
,,,,,,61601e9a6b8306196d2a129c,62bbfa8de61a9153e4d8e9cc,2022-06-29_09h09.36.487,Colour_Asymmetry_Pilot,2022.1.3,Win32,60.0240096,62bbe60bf3d75ef465d3e404,0,136,136,114,1,twoone,,,,,,,,,,,,,,,,,,,,,,,,,,,,,,,,,,,,,,,,,,,,,,,,,,,,,,,,,,,,,,,,,,,,,,,,,,,,,,,,,,,,,,,,,,,,,,,,,,,,,,,,,,,,,,,,,,,,,,,,,,,,,,,,,,,,,,,,,,,,,,,,,,,,,,,,
,,,,,,61601e9a6b8306196d2a129c,62bbfa8de61a9153e4d8e9cc,2022-06-29_09h09.36.487,Colour_Asymmetry_Pilot,2022.1.3,Win32,60.0240096,62bbe60bf3d75ef465d3e404,0,137,137,137,1,onethree,,,,,,,,,,,,,,,,,,,,,,,,,,,,,,,,,,,,,,,,,,,,,,,,,,,,,,,,,,,,,,,,,,,,,,,,,,,,,,,,,,,,,,,,,,,,,,,,,,,,,,,,,,,,,,,,,,,,,,,,,,,,,,,,,,,,,,,,,,,,,,,,,,,,,,,,
,,,,,,61601e9a6b8306196d2a129c,62bbfa8de61a9153e4d8e9cc,2022-06-29_09h09.36.487,Colour_Asymmetry_Pilot,2022.1.3,Win32,60.0240096,62bbe60bf3d75ef465d3e404,0,138,138,125,1,threefour,,,,,,,,,,,,,,,,,,,,,,,,,,,,,,,,,,,,,,,,,,,,,,,,,,,,,,,,,,,,,,,,,,,,,,,,,,,,,,,,,,,,,,,,,,,,,,,,,,,,,,,,,,,,,,,,,,,,,,,,,,,,,,,,,,,,,,,,,,,,,,,,,,,,,,,,
,,,,,,61601e9a6b8306196d2a129c,62bbfa8de61a9153e4d8e9cc,2022-06-29_09h09.36.487,Colour_Asymmetry_Pilot,2022.1.3,Win32,60.0240096,62bbe60bf3d75ef465d3e404,0,139,139,148,1,threeone,,,,,,,,,,,,,,,,,,,,,,,,,,,,,,,,,,,,,,,,,,,,,,,,,,,,,,,,,,,,,,,,,,,,,,,,,,,,,,,,,,,,,,,,,,,,,,,,,,,,,,,,,,,,,,,,,,,,,,,,,,,,,,,,,,,,,,,,,,,,,,,,,,,,,,,,
,,,,,,61601e9a6b8306196d2a129c,62bbfa8de61a9153e4d8e9cc,2022-06-29_09h09.36.487,Colour_Asymmetry_Pilot,2022.1.3,Win32,60.0240096,62bbe60bf3d75ef465d3e404,0,140,140,130,1,twoone,,,,,,,,,,,,,,,,,,,,,,,,,,,,,,,,,,,,,,,,,,,,,,,,,,,,,,,,,,,,,,,,,,,,,,,,,,,,,,,,,,,,,,,,,,,,,,,,,,,,,,,,,,,,,,,,,,,,,,,,,,,,,,,,,,,,,,,,,,,,,,,,,,,,,,,,
,,,,,,61601e9a6b8306196d2a129c,62bbfa8de61a9153e4d8e9cc,2022-06-29_09h09.36.487,Colour_Asymmetry_Pilot,2022.1.3,Win32,60.0240096,62bbe60bf3d75ef465d3e404,0,141,141,116,1,threeone,,,,,,,,,,,,,,,,,,,,,,,,,,,,,,,,,,,,,,,,,,,,,,,,,,,,,,,,,,,,,,,,,,,,,,,,,,,,,,,,,,,,,,,,,,,,,,,,,,,,,,,,,,,,,,,,,,,,,,,,,,,,,,,,,,,,,,,,,,,,,,,,,,,,,,,,
,,,,,,61601e9a6b8306196d2a129c,62bbfa8de61a9153e4d8e9cc,2022-06-29_09h09.36.487,Colour_Asymmetry_Pilot,2022.1.3,Win32,60.0240096,62bbe60bf3d75ef465d3e404,0,142,142,44,1,threeone,,,,,,,,,,,,,,,,,,,,,,,,,,,,,,,,,,,,,,,,,,,,,,,,,,,,,,,,,,,,,,,,,,,,,,,,,,,,,,,,,,,,,,,,,,,,,,,,,,,,,,,,,,,,,,,,,,,,,,,,,,,,,,,,,,,,,,,,,,,,,,,,,,,,,,,,
,,,,,,61601e9a6b8306196d2a129c,62bbfa8de61a9153e4d8e9cc,2022-06-29_09h09.36.487,Colour_Asymmetry_Pilot,2022.1.3,Win32,60.0240096,62bbe60bf3d75ef465d3e404,0,143,143,54,1,fourtwo,,,,,,,,,,,,,,,,,,,,,,,,,,,,,,,,,,,,,,,,,,,,,,,,,,,,,,,,,,,,,,,,,,,,,,,,,,,,,,,,,,,,,,,,,,,,,,,,,,,,,,,,,,,,,,,,,,,,,,,,,,,,,,,,,,,,,,,,,,,,,,,,,,,,,,,,
,,,,,,61601e9a6b8306196d2a129c,62bbfa8de61a9153e4d8e9cc,2022-06-29_09h09.36.487,Colour_Asymmetry_Pilot,2022.1.3,Win32,60.0240096,62bbe60bf3d75ef465d3e404,0,144,144,104,1,onetwo,,,,,,,,,,,,,,,,,,,,,,,,,,,,,,,,,,,,,,,,,,,,,,,,,,,,,,,,,,,,,,,,,,,,,,,,,,,,,,,,,,,,,,,,,,,,,,,,,,,,,,,,,,,,,,,,,,,,,,,,,,,,,,,,,,,,,,,,,,,,,,,,,,,,,,,,
,,,,,,61601e9a6b8306196d2a129c,62bbfa8de61a9153e4d8e9cc,2022-06-29_09h09.36.487,Colour_Asymmetry_Pilot,2022.1.3,Win32,60.0240096,62bbe60bf3d75ef465d3e404,0,145,145,106,1,twoone,,,,,,,,,,,,,,,,,,,,,,,,,,,,,,,,,,,,,,,,,,,,,,,,,,,,,,,,,,,,,,,,,,,,,,,,,,,,,,,,,,,,,,,,,,,,,,,,,,,,,,,,,,,,,,,,,,,,,,,,,,,,,,,,,,,,,,,,,,,,,,,,,,,,,,,,
,,,,,,61601e9a6b8306196d2a129c,62bbfa8de61a9153e4d8e9cc,2022-06-29_09h09.36.487,Colour_Asymmetry_Pilot,2022.1.3,Win32,60.0240096,62bbe60bf3d75ef465d3e404,0,146,146,87,1,fourthree,,,,,,,,,,,,,,,,,,,,,,,,,,,,,,,,,,,,,,,,,,,,,,,,,,,,,,,,,,,,,,,,,,,,,,,,,,,,,,,,,,,,,,,,,,,,,,,,,,,,,,,,,,,,,,,,,,,,,,,,,,,,,,,,,,,,,,,,,,,,,,,,,,,,,,,,
,,,,,,61601e9a6b8306196d2a129c,62bbfa8de61a9153e4d8e9cc,2022-06-29_09h09.36.487,Colour_Asymmetry_Pilot,2022.1.3,Win32,60.0240096,62bbe60bf3d75ef465d3e404,0,147,147,134,1,fourtwo,,,,,,,,,,,,,,,,,,,,,,,,,,,,,,,,,,,,,,,,,,,,,,,,,,,,,,,,,,,,,,,,,,,,,,,,,,,,,,,,,,,,,,,,,,,,,,,,,,,,,,,,,,,,,,,,,,,,,,,,,,,,,,,,,,,,,,,,,,,,,,,,,,,,,,,,
,,,,,,61601e9a6b8306196d2a129c,62bbfa8de61a9153e4d8e9cc,2022-06-29_09h09.36.487,Colour_Asymmetry_Pilot,2022.1.3,Win32,60.0240096,62bbe60bf3d75ef465d3e404,0,148,148,149,1,threefour,,,,,,,,,,,,,,,,,,,,,,,,,,,,,,,,,,,,,,,,,,,,,,,,,,,,,,,,,,,,,,,,,,,,,,,,,,,,,,,,,,,,,,,,,,,,,,,,,,,,,,,,,,,,,,,,,,,,,,,,,,,,,,,,,,,,,,,,,,,,,,,,,,,,,,,,
,,,,,,61601e9a6b8306196d2a129c,62bbfa8de61a9153e4d8e9cc,2022-06-29_09h09.36.487,Colour_Asymmetry_Pilot,2022.1.3,Win32,60.0240096,62bbe60bf3d75ef465d3e404,0,149,149,21,1,threefour,,,,,,,,,,,,,,,,,,,,,,,,,,,,,,,,,,,,,,,,,,,,,,,,,,,,,,,,,,,,,,,,,,,,,,,,,,,,,,,,,,,,,,,,,,,,,,,,,,,,,,,,,,,,,,,,,,,,,,,,,,,,,,,,,,,,,,,,,,,,,,,,,,,,,,,,
,,,,,,61601e9a6b8306196d2a129c,62bbfa8de61a9153e4d8e9cc,2022-06-29_09h09.36.487,Colour_Asymmetry_Pilot,2022.1.3,Win32,60.0240096,62bbe60bf3d75ef465d3e404,0,150,150,78,1,fourtwo,,,,,,,,,,,,,,,,,,,,,,,,,,,,,,,,,,,,,,,,,,,,,,,,,,,,,,,,,,,,,,,,,,,,,,,,,,,,,,,,,,,,,,,,,,,,,,,,,,,,,,,,,,,,,,,,,,,,,,,,,,,,,,,,,,,,,,,,,,,,,,,,,,,,,,,,
,,,,,,61601e9a6b8306196d2a129c,62bbfa8de61a9153e4d8e9cc,2022-06-29_09h09.36.487,Colour_Asymmetry_Pilot,2022.1.3,Win32,60.0240096,62bbe60bf3d75ef465d3e404,0,151,151,156,1,threeone,,,,,,,,,,,,,,,,,,,,,,,,,,,,,,,,,,,,,,,,,,,,,,,,,,,,,,,,,,,,,,,,,,,,,,,,,,,,,,,,,,,,,,,,,,,,,,,,,,,,,,,,,,,,,,,,,,,,,,,,,,,,,,,,,,,,,,,,,,,,,,,,,,,,,,,,
,,,,,,61601e9a6b8306196d2a129c,62bbfa8de61a9153e4d8e9cc,2022-06-29_09h09.36.487,Colour_Asymmetry_Pilot,2022.1.3,Win32,60.0240096,62bbe60bf3d75ef465d3e404,0,152,152,30,1,fourtwo,,,,,,,,,,,,,,,,,,,,,,,,,,,,,,,,,,,,,,,,,,,,,,,,,,,,,,,,,,,,,,,,,,,,,,,,,,,,,,,,,,,,,,,,,,,,,,,,,,,,,,,,,,,,,,,,,,,,,,,,,,,,,,,,,,,,,,,,,,,,,,,,,,,,,,,,
,,,,,,61601e9a6b8306196d2a129c,62bbfa8de61a9153e4d8e9cc,2022-06-29_09h09.36.487,Colour_Asymmetry_Pilot,2022.1.3,Win32,60.0240096,62bbe60bf3d75ef465d3e404,0,153,153,103,1,fourthree,,,,,,,,,,,,,,,,,,,,,,,,,,,,,,,,,,,,,,,,,,,,,,,,,,,,,,,,,,,,,,,,,,,,,,,,,,,,,,,,,,,,,,,,,,,,,,,,,,,,,,,,,,,,,,,,,,,,,,,,,,,,,,,,,,,,,,,,,,,,,,,,,,,,,,,,
,,,,,,61601e9a6b8306196d2a129c,62bbfa8de61a9153e4d8e9cc,2022-06-29_09h09.36.487,Colour_Asymmetry_Pilot,2022.1.3,Win32,60.0240096,62bbe60bf3d75ef465d3e404,0,154,154,118,1,fourtwo,,,,,,,,,,,,,,,,,,,,,,,,,,,,,,,,,,,,,,,,,,,,,,,,,,,,,,,,,,,,,,,,,,,,,,,,,,,,,,,,,,,,,,,,,,,,,,,,,,,,,,,,,,,,,,,,,,,,,,,,,,,,,,,,,,,,,,,,,,,,,,,,,,,,,,,,
,,,,,,61601e9a6b8306196d2a129c,62bbfa8de61a9153e4d8e9cc,2022-06-29_09h09.36.487,Colour_Asymmetry_Pilot,2022.1.3,Win32,60.0240096,62bbe60bf3d75ef465d3e404,0,155,155,46,1,fourtwo,,,,,,,,,,,,,,,,,,,,,,,,,,,,,,,,,,,,,,,,,,,,,,,,,,,,,,,,,,,,,,,,,,,,,,,,,,,,,,,,,,,,,,,,,,,,,,,,,,,,,,,,,,,,,,,,,,,,,,,,,,,,,,,,,,,,,,,,,,,,,,,,,,,,,,,,
,,,,,,61601e9a6b8306196d2a129c,62bbfa8de61a9153e4d8e9cc,2022-06-29_09h09.36.487,Colour_Asymmetry_Pilot,2022.1.3,Win32,60.0240096,62bbe60bf3d75ef465d3e404,0,156,156,71,1,fourthree,,,,,,,,,,,,,,,,,,,,,,,,,,,,,,,,,,,,,,,,,,,,,,,,,,,,,,,,,,,,,,,,,,,,,,,,,,,,,,,,,,,,,,,,,,,,,,,,,,,,,,,,,,,,,,,,,,,,,,,,,,,,,,,,,,,,,,,,,,,,,,,,,,,,,,,,
,,,,,,61601e9a6b8306196d2a129c,62bbfa8de61a9153e4d8e9cc,2022-06-29_09h09.36.487,Colour_Asymmetry_Pilot,2022.1.3,Win32,60.0240096,62bbe60bf3d75ef465d3e404,0,157,157,112,1,onetwo,,,,,,,,,,,,,,,,,,,,,,,,,,,,,,,,,,,,,,,,,,,,,,,,,,,,,,,,,,,,,,,,,,,,,,,,,,,,,,,,,,,,,,,,,,,,,,,,,,,,,,,,,,,,,,,,,,,,,,,,,,,,,,,,,,,,,,,,,,,,,,,,,,,,,,,,
,,,,,,61601e9a6b8306196d2a129c,62bbfa8de61a9153e4d8e9cc,2022-06-29_09h09.36.487,Colour_Asymmetry_Pilot,2022.1.3,Win32,60.0240096,62bbe60bf3d75ef465d3e404,0,158,158,108,1,threeone,,,,,,,,,,,,,,,,,,,,,,,,,,,,,,,,,,,,,,,,,,,,,,,,,,,,,,,,,,,,,,,,,,,,,,,,,,,,,,,,,,,,,,,,,,,,,,,,,,,,,,,,,,,,,,,,,,,,,,,,,,,,,,,,,,,,,,,,,,,,,,,,,,,,,,,,
,,,,,,61601e9a6b8306196d2a129c,62bbfa8de61a9153e4d8e9cc,2022-06-29_09h09.36.487,Colour_Asymmetry_Pilot,2022.1.3,Win32,60.0240096,62bbe60bf3d75ef465d3e404,0,159,159,29,1,threefour,,,,,,,,,,,,,,,,,,,,,,,,,,,,,,,,,,,,,,,,,,,,,,,,,,,,,,,,,,,,,,,,,,,,,,,,,,,,,,,,,,,,,,,,,,,,,,,,,,,,,,,,,,,,,,,,,,,,,,,,,,,,,,,,,,,,,,,,,,,,,,,,,,,,,,,,
,,,,,,61601e9a6b8306196d2a129c,62bbfa8de61a9153e4d8e9cc,2022-06-29_09h09.36.487,Colour_Asymmetry_Pilot,2022.1.3,Win32,60.0240096,62bbe60bf3d75ef465d3e404,0,160,160,76,1,threeone,,,,,,,,,,,,,,,,,,,,,,,,,,,,,,,,,,,,,,,,,,,,,,,,,,,,,,,,,,,,,,,,,,,,,,,,,,,,,,,,,,,,,,,,,,,,,,,,,,,,,,,,,,,,,,,,,,,,,,,,,,,,,,,,,,,,,,,,,,,,,,,,,,,,,,,,
,,,,,,61601e9a6b8306196d2a129c,62bbfa8de61a9153e4d8e9cc,2022-06-29_09h09.36.487,Colour_Asymmetry_Pilot,2022.1.3,Win32,60.0240096,62bbe60bf3d75ef465d3e404,0,161,161,74,1,twoone,,,,,,,,,,,,,,,,,,,,,,,,,,,,,,,,,,,,,,,,,,,,,,,,,,,,,,,,,,,,,,,,,,,,,,,,,,,,,,,,,,,,,,,,,,,,,,,,,,,,,,,,,,,,,,,,,,,,,,,,,,,,,,,,,,,,,,,,,,,,,,,,,,,,,,,,
,,,,,,61601e9a6b8306196d2a129c,62bbfa8de61a9153e4d8e9cc,2022-06-29_09h09.36.487,Colour_Asymmetry_Pilot,2022.1.3,Win32,60.0240096,62bbe60bf3d75ef465d3e404,,,,,,,space,2.221,space,21.378,space,52.201,space,16.252,space,1.774,space,6.254,"[-0.09019999999999995,0.44300000000000006,0.5371999999999999]",fourthree,"[-0.26280000000000003,-0.2158,-0.3256]",-2,23.501,-93,-43,1,0,0,response5disk_5,2,3,1,0,0,rectangle_8,2,3,1,0,0,4,2,3,1,0,0,0,0,0,0,1,,,,,,,,,,,,,,,,,,,,,,,,,,,,,,,,,,,,,,,,,,,,,,,,,,,,,,,,,,,,,,,,,,,,,,,,,,,,,,,,,,,,,,,,,,,,,,,,,,,,,,,,,,,
,,,,,,61601e9a6b8306196d2a129c,62bbfa8de61a9153e4d8e9cc,2022-06-29_09h09.36.487,Colour_Asymmetry_Pilot,2022.1.3,Win32,60.0240096,62bbe60bf3d75ef465d3e404,,,,,,,,,,,,,,,,,,,"[-0.34920000000000007,-0.702,-0.5216]",threefour,"[-0.06680000000000008,-0.45100000000000007,-0.906]",-2,4.8,-117,-50,1,0,0,response5disk_5,-6,3,1,0,0,rectangle_8,59,145,1,0,0,4,-3,2,1,0,0,1,0,1,0,1,response1disk_7,7,rectangle_4,,,,,,,,,,,,,,,,,,,,,,,,,,,,,,,,,,,,,,,,,,,,,,,,,,,,,,,,,,,,,,,,,,,,,,,,,,,,,,,,,,,,,,,,,,,,,,,,,,,,,,,,
,,,,,,61601e9a6b8306196d2a129c,62bbfa8de61a9153e4d8e9cc,2022-06-29_09h09.36.487,Colour_Asymmetry_Pilot,2022.1.3,Win32,60.0240096,62bbe60bf3d75ef465d3e404,,,,,,,,,,,,,,,,,,,"[-0.4982,-0.2942,-0.0354000000000001]",fourtwo,"[-0.050999999999999934,-0.6706000000000001,-0.804]",-3,2.4,-104,35,1,0,0,response7disk_5,5,5,1,0,0,rectangle_8,5,5,1,0,0,4,5,5,1,0,0,2,0,2,0,1,,,,,,,,,,,,,,,,,,,,,,,,,,,,,,,,,,,,,,,,,,,,,,,,,,,,,,,,,,,,,,,,,,,,,,,,,,,,,,,,,,,,,,,,,,,,,,,,,,,,,,,,,,,
,,,,,,61601e9a6b8306196d2a129c,62bbfa8de61a9153e4d8e9cc,2022-06-29_09h09.36.487,Colour_Asymmetry_Pilot,2022.1.3,Win32,60.0240096,62bbe60bf3d75ef465d3e404,,,,,,,,,,,,,,,,,,,"[0.0351999999999999,0.41159999999999997,0.0038000000000000256]",twofour,"[0.7176,-0.906,-0.6864]",-4,2.95,-57,139,1,0,0,response7disk_5,9,3,1,0,0,rectangle_8,9,3,1,0,0,4,9,3,1,0,0,3,0,3,0,1,,,,,,,,,,,,,,,,,,,,,,,,,,,,,,,,,,,,,,,,,,,,,,,,,,,,,,,,,,,,,,,,,,,,,,,,,,,,,,,,,,,,,,,,,,,,,,,,,,,,,,,,,,,
,,,,,,61601e9a6b8306196d2a129c,62bbfa8de61a9153e4d8e9cc,2022-06-29_09h09.36.487,Colour_Asymmetry_Pilot,2022.1.3,Win32,60.0240096,62bbe60bf3d75ef465d3e404,,,,,,,,,,,,,,,,,,,"[0.9763999999999999,-0.1137999999999999,-0.6314]",onethree,"[0.09799999999999986,-0.24719999999999998,0.15280000000000005]",-2,3.417,-104,-26,1,0,0,response5disk_5,-28,3,1,0,0,rectangle_8,-28,3,1,0,0,4,-28,3,1,0,0,4,0,4,0,1,,,,,,,,,,,,,,,,,,,,,,,,,,,,,,,,,,,,,,,,,,,,,,,,,,,,,,,,,,,,,,,,,,,,,,,,,,,,,,,,,,,,,,,,,,,,,,,,,,,,,,,,,,,
,,,,,,61601e9a6b8306196d2a129c,62bbfa8de61a9153e4d8e9cc,2022-06-29_09h09.36.487,Colour_Asymmetry_Pilot,2022.1.3,Win32,60.0240096,62bbe60bf3d75ef465d3e404,,,,,,,,,,,,,,,,,,,"[-0.9296,-0.12959999999999994,-0.043199999999999905]",twofour,"[-0.6942,-0.7648,-0.12959999999999994]",2,6.734,101,-44,1,0,0,response3disk_5,7,-2,1,0,0,rectangle_8,28,118,1,0,0,4,1,-7,1,0,0,5,0,5,0,1,response1disk_7,7,rectangle_4,,,,,,,,,,,,,,,,,,,,,,,,,,,,,,,,,,,,,,,,,,,,,,,,,,,,,,,,,,,,,,,,,,,,,,,,,,,,,,,,,,,,,,,,,,,,,,,,,,,,,,,,
,,,,,,61601e9a6b8306196d2a129c,62bbfa8de61a9153e4d8e9cc,2022-06-29_09h09.36.487,Colour_Asymmetry_Pilot,2022.1.3,Win32,60.0240096,62bbe60bf3d75ef465d3e404,,,,,,,,,,,,,,,,,,,"[-0.48240000000000005,0.3175999999999999,0.2156]",fourthree,"[0.8274000000000001,-0.5844,-0.9452]",-3,4.134,-91,54,1,0,0,response7disk_5,9,-13,1,0,0,rectangle_8,9,-13,1,0,0,4,9,-13,1,0,0,6,0,6,0,1,,,,,,,,,,,,,,,,,,,,,,,,,,,,,,,,,,,,,,,,,,,,,,,,,,,,,,,,,,,,,,,,,,,,,,,,,,,,,,,,,,,,,,,,,,,,,,,,,,,,,,,,,,,
,,,,,,61601e9a6b8306196d2a129c,62bbfa8de61a9153e4d8e9cc,2022-06-29_09h09.36.487,Colour_Asymmetry_Pilot,2022.1.3,Win32,60.0240096,62bbe60bf3d75ef465d3e404,,,,,,,,,,,,,,,,,,,,twofour,,-2,1.666,,,,,,,,,,,,,,,,,,,,,,,,,,,,,,,,space,3.459,"[0.37240000000000006,-0.050999999999999934,-0.5216]","[-0.8198,-0.5138,-0.7492000000000001]",-121,-60,1,0,0,response5disk,3,-3,1,0,0,rectangle,119,-44,1,0,0,response3disk_3,2,2,3.833,1,-13,9,1,0,0,rectangle,0,0,0,55,1,55,first,,,,,,,,,,,,,,,,,,,,,,,,,,,,,,,,,,,,,,,,,,,,,,,,,,,,,,,,,,,,,,,,,
,,,,,,61601e9a6b8306196d2a129c,62bbfa8de61a9153e4d8e9cc,2022-06-29_09h09.36.487,Colour_Asymmetry_Pilot,2022.1.3,Win32,60.0240096,62bbe60bf3d75ef465d3e404,,,,,,,,,,,,,,,,,,,,fourthree,,1,2.949,,,,,,,,,,,,,,,,,,,,,,,,,,,,,,,,,,"[-0.07459999999999989,0.12139999999999995,-0.9922]","[-0.8118,-0.8198,-0.5452]",51,-126,1,0,0,response3disk,2,-1,1,0,0,rectangle,118,-64,1,0,0,response3disk_3,2,2,2.651,1,11,3,1,0,0,rectangle,0,1,1,159,1,78,second,,,,,,,,,,,,,,,,,,,,,,,,,,,,,,,,,,,,,,,,,,,,,,,,,,,,,,,,,,,,,,,,,
,,,,,,61601e9a6b8306196d2a129c,62bbfa8de61a9153e4d8e9cc,2022-06-29_09h09.36.487,Colour_Asymmetry_Pilot,2022.1.3,Win32,60.0240096,62bbe60bf3d75ef465d3e404,,,,,,,,,,,,,,,,,,,,threefour,,-1,4.916,,,,,,,,,,,,,,,,,,,,,,,,,,,,,,,,,,"[-0.5922000000000001,-0.7492000000000001,-0.5296000000000001]","[0.4196,0.4665999999999999,0.3568]",-41,-132,1,0,0,response5disk,18,0,1,0,0,rectangle,18,0,1,0,0,,2,2,0.001,0,18,0,1,0,0,,0,2,2,63,1,63,first,,,,,,,,,,,,,,,,,,,,,,,,,,,,,,,,,,,,,,,,,,,,,,,,,,,,,,,,,,,,,,,,,
,,,,,,61601e9a6b8306196d2a129c,62bbfa8de61a9153e4d8e9cc,2022-06-29_09h09.36.487,Colour_Asymmetry_Pilot,2022.1.3,Win32,60.0240096,62bbe60bf3d75ef465d3e404,,,,,,,,,,,,,,,,,,,,threefour,,-2,3.05,,,,,,,,,,,,,,,,,,,,,,,,,,,,,,,,,,"[-0.8982,-0.37259999999999993,0.2784]","[-0.24719999999999998,0.5213999999999999,-0.12959999999999994]",-110,-50,1,0,0,response5disk,13,-6,1,0,0,rectangle,55,-129,1,0,0,response3disk_3,1,1,2.381,1,-15,15,1,0,0,rectangle,0,3,3,160,1,79,second,,,,,,,,,,,,,,,,,,,,,,,,,,,,,,,,,,,,,,,,,,,,,,,,,,,,,,,,,,,,,,,,,
,,,,,,61601e9a6b8306196d2a129c,62bbfa8de61a9153e4d8e9cc,2022-06-29_09h09.36.487,Colour_Asymmetry_Pilot,2022.1.3,Win32,60.0240096,62bbe60bf3d75ef465d3e404,,,,,,,,,,,,,,,,,,,,threefour,,1,1.466,,,,,,,,,,,,,,,,,,,,,,,,,,,,,,,,,,"[-0.9766,-0.6472,0.07440000000000002]","[-0.10599999999999998,-0.15300000000000002,0.15280000000000005]",82,-142,1,0,0,response3disk,6,8,1,0,0,rectangle,6,8,1,0,0,,1,3,0.002,0,6,8,1,0,0,,0,4,4,12,1,12,first,,,,,,,,,,,,,,,,,,,,,,,,,,,,,,,,,,,,,,,,,,,,,,,,,,,,,,,,,,,,,,,,,
,,,,,,61601e9a6b8306196d2a129c,62bbfa8de61a9153e4d8e9cc,2022-06-29_09h09.36.487,Colour_Asymmetry_Pilot,2022.1.3,Win32,60.0240096,62bbe60bf3d75ef465d3e404,,,,,,,,,,,,,,,,,,,,threeone,,-3,3.85,,,,,,,,,,,,,,,,,,,,,,,,,,,,,,,,,,"[0.11359999999999992,0.6312,0.5213999999999999]","[0.8274000000000001,-0.5844,-0.9452]",-84,35,1,0,0,response7disk,-7,8,1,0,0,rectangle,-7,8,1,0,0,,1,2,0.001,0,-7,8,1,0,0,,0,5,5,133,1,52,second,,,,,,,,,,,,,,,,,,,,,,,,,,,,,,,,,,,,,,,,,,,,,,,,,,,,,,,,,,,,,,,,,
,,,,,,61601e9a6b8306196d2a129c,62bbfa8de61a9153e4d8e9cc,2022-06-29_09h09.36.487,Colour_Asymmetry_Pilot,2022.1.3,Win32,60.0240096,62bbe60bf3d75ef465d3e404,,,,,,,,,,,,,,,,,,,,twoone,,3,1.683,,,,,,,,,,,,,,,,,,,,,,,,,,,,,,,,,,"[-0.20799999999999996,-0.655,-0.01980000000000004]","[-0.10599999999999998,-0.15300000000000002,0.15280000000000005]",108,41,1,0,0,response1disk,4,-6,1,0,0,rectangle,4,-6,1,0,0,,1,3,0.002,0,4,-6,1,0,0,,0,6,6,71,1,71,first,,,,,,,,,,,,,,,,,,,,,,,,,,,,,,,,,,,,,,,,,,,,,,,,,,,,,,,,,,,,,,,,,
,,,,,,61601e9a6b8306196d2a129c,62bbfa8de61a9153e4d8e9cc,2022-06-29_09h09.36.487,Colour_Asymmetry_Pilot,2022.1.3,Win32,60.0240096,62bbe60bf3d75ef465d3e404,,,,,,,,,,,,,,,,,,,,onethree,,-4,2.517,,,,,,,,,,,,,,,,,,,,,,,,,,,,,,,,,,"[0.9763999999999999,0.8588,-0.05900000000000005]","[-0.8198,-0.5138,-0.7492000000000001]",-46,94,1,0,0,response7disk,-13,14,1,0,0,rectangle,-13,14,1,0,0,,1,3,0,0,-13,14,1,0,0,,0,7,7,156,1,75,second,,,,,,,,,,,,,,,,,,,,,,,,,,,,,,,,,,,,,,,,,,,,,,,,,,,,,,,,,,,,,,,,,
,,,,,,61601e9a6b8306196d2a129c,62bbfa8de61a9153e4d8e9cc,2022-06-29_09h09.36.487,Colour_Asymmetry_Pilot,2022.1.3,Win32,60.0240096,62bbe60bf3d75ef465d3e404,,,,,,,,,,,,,,,,,,,,twofour,,-4,1.467,,,,,,,,,,,,,,,,,,,,,,,,,,,,,,,,,,"[0.37240000000000006,-0.050999999999999934,-0.5216]","[-0.4746,-0.0354000000000001,0.5449999999999999]",-69,101,1,0,0,response7disk,3,-2,1,0,0,rectangle,3,-2,1,0,0,,1,2,0.002,0,3,-2,1,0,0,,0,8,8,111,1,30,second,,,,,,,,,,,,,,,,,,,,,,,,,,,,,,,,,,,,,,,,,,,,,,,,,,,,,,,,,,,,,,,,,
,,,,,,61601e9a6b8306196d2a129c,62bbfa8de61a9153e4d8e9cc,2022-06-29_09h09.36.487,Colour_Asymmetry_Pilot,2022.1.3,Win32,60.0240096,62bbe60bf3d75ef465d3e404,,,,,,,,,,,,,,,,,,,,onethree,,4,1.801,,,,,,,,,,,,,,,,,,,,,,,,,,,,,,,,,,"[0.6547999999999998,-0.043199999999999905,-0.011800000000000033]","[0.5449999999999999,-0.31000000000000005,-0.0354000000000001]",51,135,1,0,0,response1disk,-1,0,1,0,0,rectangle,-1,0,1,0,0,,1,1,0.003,0,-1,0,1,0,0,,0,9,9,67,1,67,first,,,,,,,,,,,,,,,,,,,,,,,,,,,,,,,,,,,,,,,,,,,,,,,,,,,,,,,,,,,,,,,,,
,,,,,,61601e9a6b8306196d2a129c,62bbfa8de61a9153e4d8e9cc,2022-06-29_09h09.36.487,Colour_Asymmetry_Pilot,2022.1.3,Win32,60.0240096,62bbe60bf3d75ef465d3e404,,,,,,,,,,,,,,,,,,,,onetwo,,-3,2.484,,,,,,,,,,,,,,,,,,,,,,,,,,,,,,,,,,"[-0.6706000000000001,-0.6157999999999999,-0.6786]","[0.12939999999999996,-0.2864,0.3253999999999999]",-68,37,1,0,0,response7disk,5,1,1,0,0,rectangle,5,1,1,0,0,,1,2,0.001,0,5,1,1,0,0,,0,10,10,99,1,18,second,,,,,,,,,,,,,,,,,,,,,,,,,,,,,,,,,,,,,,,,,,,,,,,,,,,,,,,,,,,,,,,,,
,,,,,,61601e9a6b8306196d2a129c,62bbfa8de61a9153e4d8e9cc,2022-06-29_09h09.36.487,Colour_Asymmetry_Pilot,2022.1.3,Win32,60.0240096,62bbe60bf3d75ef465d3e404,,,,,,,,,,,,,,,,,,,,twofour,,-4,0.751,,,,,,,,,,,,,,,,,,,,,,,,,,,,,,,,,,"[0.9763999999999999,0.30979999999999985,-0.6786]","[-0.5688,-0.08239999999999992,-0.1844]",-49,104,1,0,0,response7disk,2,20,1,0,0,rectangle,2,20,1,0,0,,1,3,0.002,0,2,20,1,0,0,,0,11,11,107,1,26,second,,,,,,,,,,,,,,,,,,,,,,,,,,,,,,,,,,,,,,,,,,,,,,,,,,,,,,,,,,,,,,,,,
,,,,,,61601e9a6b8306196d2a129c,62bbfa8de61a9153e4d8e9cc,2022-06-29_09h09.36.487,Colour_Asymmetry_Pilot,2022.1.3,Win32,60.0240096,62bbe60bf3d75ef465d3e404,,,,,,,,,,,,,,,,,,,,onethree,,-3,1.616,,,,,,,,,,,,,,,,,,,,,,,,,,,,,,,,,,"[-0.48240000000000005,0.3175999999999999,0.2156]","[-0.17659999999999998,-0.2864,-0.8354]",-71,44,1,0,0,response7disk,-3,-3,1,0,0,rectangle,-3,-3,1,0,0,,1,2,0.001,0,-3,-3,1,0,0,,0,12,12,157,1,76,second,,,,,,,,,,,,,,,,,,,,,,,,,,,,,,,,,,,,,,,,,,,,,,,,,,,,,,,,,,,,,,,,,
,,,,,,61601e9a6b8306196d2a129c,62bbfa8de61a9153e4d8e9cc,2022-06-29_09h09.36.487,Colour_Asymmetry_Pilot,2022.1.3,Win32,60.0240096,62bbe60bf3d75ef465d3e404,,,,,,,,,,,,,,,,,,,,twoone,,-4,0.95,,,,,,,,,,,,,,,,,,,,,,,,,,,,,,,,,,"[0.6547999999999998,-0.043199999999999905,-0.011800000000000033]","[-0.6,0.16860000000000008,0.44300000000000006]",-85,110,1,0,0,response7disk,8,-3,1,0,0,rectangle,8,-3,1,0,0,,1,2,0.001,0,8,-3,1,0,0,,0,13,13,138,1,57,second,,,,,,,,,,,,,,,,,,,,,,,,,,,,,,,,,,,,,,,,,,,,,,,,,,,,,,,,,,,,,,,,,
,,,,,,61601e9a6b8306196d2a129c,62bbfa8de61a9153e4d8e9cc,2022-06-29_09h09.36.487,Colour_Asymmetry_Pilot,2022.1.3,Win32,60.0240096,62bbe60bf3d75ef465d3e404,,,,,,,,,,,,,,,,,,,,threeone,,-3,2.667,,,,,,,,,,,,,,,,,,,,,,,,,,,,,,,,,,"[-0.09019999999999995,0.44300000000000006,0.5371999999999999]","[-0.9844,-0.9688,-0.9922]",-115,45,1,0,0,response7disk,7,-8,1,0,0,rectangle,7,-8,1,0,0,,1,2,0,0,7,-8,1,0,0,,0,14,14,118,1,37,second,,,,,,,,,,,,,,,,,,,,,,,,,,,,,,,,,,,,,,,,,,,,,,,,,,,,,,,,,,,,,,,,,
,,,,,,61601e9a6b8306196d2a129c,62bbfa8de61a9153e4d8e9cc,2022-06-29_09h09.36.487,Colour_Asymmetry_Pilot,2022.1.3,Win32,60.0240096,62bbe60bf3d75ef465d3e404,,,,,,,,,,,,,,,,,,,,onethree,,-2,3.5,,,,,,,,,,,,,,,,,,,,,,,,,,,,,,,,,,"[0.09799999999999986,-0.24719999999999998,0.15280000000000005]","[-0.9766,-0.34920000000000007,0.2156]",-101,-33,1,0,0,response5disk,-2,8,1,0,0,rectangle,-2,8,1,0,0,,1,1,0,0,-2,8,1,0,0,,0,15,15,127,1,46,second,,,,,,,,,,,,,,,,,,,,,,,,,,,,,,,,,,,,,,,,,,,,,,,,,,,,,,,,,,,,,,,,,
,,,,,,61601e9a6b8306196d2a129c,62bbfa8de61a9153e4d8e9cc,2022-06-29_09h09.36.487,Colour_Asymmetry_Pilot,2022.1.3,Win32,60.0240096,62bbe60bf3d75ef465d3e404,,,,,,,,,,,,,,,,,,,,twofour,,-3,3.916,,,,,,,,,,,,,,,,,,,,,,,,,,,,,,,,,,"[0.4196,0.4665999999999999,0.3568]","[-0.5922000000000001,-0.7492000000000001,-0.5296000000000001]",-88,28,1,0,0,response7disk,-13,7,1,0,0,rectangle,-13,7,1,0,0,,1,3,0.001,0,-13,7,1,0,0,,0,16,16,144,1,63,second,,,,,,,,,,,,,,,,,,,,,,,,,,,,,,,,,,,,,,,,,,,,,,,,,,,,,,,,,,,,,,,,,
,,,,,,61601e9a6b8306196d2a129c,62bbfa8de61a9153e4d8e9cc,2022-06-29_09h09.36.487,Colour_Asymmetry_Pilot,2022.1.3,Win32,60.0240096,62bbe60bf3d75ef465d3e404,,,,,,,,,,,,,,,,,,,,threeone,,3,0.917,,,,,,,,,,,,,,,,,,,,,,,,,,,,,,,,,,"[0.9372,0.20779999999999998,0.2704]","[0.3881999999999999,-0.23939999999999995,-0.05040000000000011]",80,51,1,0,0,response1disk,-2,11,1,0,0,rectangle,-2,11,1,0,0,,1,1,0.001,0,-2,11,1,0,0,,0,17,17,145,1,64,second,,,,,,,,,,,,,,,,,,,,,,,,,,,,,,,,,,,,,,,,,,,,,,,,,,,,,,,,,,,,,,,,,
,,,,,,61601e9a6b8306196d2a129c,62bbfa8de61a9153e4d8e9cc,2022-06-29_09h09.36.487,Colour_Asymmetry_Pilot,2022.1.3,Win32,60.0240096,62bbe60bf3d75ef465d3e404,,,,,,,,,,,,,,,,,,,,onethree,,-3,1.45,,,,,,,,,,,,,,,,,,,,,,,,,,,,,,,,,,"[-0.7412000000000001,-0.08239999999999992,-0.6864]","[0.23120000000000007,-0.7726,-0.34120000000000006]",-100,33,1,0,0,response7disk,-32,4,1,0,0,rectangle,-32,4,1,0,0,,1,2,0.002,0,-32,4,1,0,0,,0,18,18,39,1,39,first,,,,,,,,,,,,,,,,,,,,,,,,,,,,,,,,,,,,,,,,,,,,,,,,,,,,,,,,,,,,,,,,,
,,,,,,61601e9a6b8306196d2a129c,62bbfa8de61a9153e4d8e9cc,2022-06-29_09h09.36.487,Colour_Asymmetry_Pilot,2022.1.3,Win32,60.0240096,62bbe60bf3d75ef465d3e404,,,,,,,,,,,,,,,,,,,,fourthree,,-4,0.533,,,,,,,,,,,,,,,,,,,,,,,,,,,,,,,,,,"[-0.5922000000000001,-0.7492000000000001,-0.5296000000000001]","[0.9213999999999998,0.6391999999999998,-0.9922]",-67,111,1,0,0,response7disk,2,4,1,0,0,rectangle,2,4,1,0,0,,1,2,0,0,2,4,1,0,0,,0,19,19,123,1,42,second,,,,,,,,,,,,,,,,,,,,,,,,,,,,,,,,,,,,,,,,,,,,,,,,,,,,,,,,,,,,,,,,,
,,,,,,61601e9a6b8306196d2a129c,62bbfa8de61a9153e4d8e9cc,2022-06-29_09h09.36.487,Colour_Asymmetry_Pilot,2022.1.3,Win32,60.0240096,62bbe60bf3d75ef465d3e404,,,,,,,,,,,,,,,,,,,,threeone,,-3,2.25,,,,,,,,,,,,,,,,,,,,,,,,,,,,,,,,,,"[-0.9844,-0.9688,-0.9922]","[-0.09019999999999995,0.44300000000000006,0.5371999999999999]",-99,40,1,0,0,response7disk,13,-3,1,0,0,rectangle,13,-3,1,0,0,,1,2,0,0,13,-3,1,0,0,,0,20,20,37,1,37,first,,,,,,,,,,,,,,,,,,,,,,,,,,,,,,,,,,,,,,,,,,,,,,,,,,,,,,,,,,,,,,,,,
