trials.thisRepN,trials.thisTrialN,trials.thisN,trials.thisIndex,trials.ran,Colourcodes,participant,session,date,expName,psychopyVersion,OS,frameRate,study_id,trials_4.thisRepN,trials_4.thisTrialN,trials_4.thisN,trials_4.thisIndex,trials_4.ran,StimulusPos,key_resp.keys,key_resp.rt,key_resp_2.keys,key_resp_2.rt,key_resp_15.keys,key_resp_15.rt,key_resp_17.keys,key_resp_17.rt,key_resp_9.keys,key_resp_9.rt,key_resp_10.keys,key_resp_10.rt,Circle1_col,Ecc,Circle2_col,similarity,response_time,mouse_5.x,mouse_5.y,mouse_5.leftButton,mouse_5.midButton,mouse_5.rightButton,mouse_5.clicked_name,mouse_10.x,mouse_10.y,mouse_10.leftButton,mouse_10.midButton,mouse_10.rightButton,mouse_10.clicked_name,mouse_7.x,mouse_7.y,mouse_7.leftButton,mouse_7.midButton,mouse_7.rightButton,catchnumberprac,mouse_6.x,mouse_6.y,mouse_6.leftButton,mouse_6.midButton,mouse_6.rightButton,duringprac.thisRepN,duringprac.thisTrialN,duringprac.thisN,duringprac.thisIndex,duringprac.ran,mouse_7.clicked_name,catchprac,mouse_6.clicked_name,key_resp_22.keys,key_resp_22.rt,Circle1_colour,Circle2_colour,mouse.x,mouse.y,mouse.leftButton,mouse.midButton,mouse.rightButton,mouse.clicked_name,mouse_2.x,mouse_2.y,mouse_2.leftButton,mouse_2.midButton,mouse_2.rightButton,mouse_2.clicked_name,mouse_3.x,mouse_3.y,mouse_3.leftButton,mouse_3.midButton,mouse_3.rightButton,mouse_3.clicked_name,catchresponse,catchnumber,response_time_catch,Catch,mouse_11.x,mouse_11.y,mouse_11.leftButton,mouse_11.midButton,mouse_11.rightButton,mouse_11.clicked_name,trials_2.thisRepN,trials_2.thisTrialN,trials_2.thisN,trials_2.thisIndex,trials_2.ran,Colourpair,Temporder,trials_3.thisRepN,trials_3.thisTrialN,trials_3.thisN,trials_3.thisIndex,trials_3.ran,key_resp_instr_Ishi.keys,key_resp_instr_Ishi.rt,Ishi_trial_keyresp.keys,Ishi_trial_keyresp.rt,Ishi_textbox.text,Ishi_loop.thisRepN,Ishi_loop.thisTrialN,Ishi_loop.thisN,Ishi_loop.thisIndex,Ishi_loop.ran,imageaddress,textbox.text,mouse_4.x,mouse_4.y,mouse_4.leftButton,mouse_4.midButton,mouse_4.rightButton,mouse_4.clicked_name,textbox_2.text,mouse_8.x,mouse_8.y,mouse_8.leftButton,mouse_8.midButton,mouse_8.rightButton,mouse_8.clicked_name,textbox_3.text,mouse_9.x,mouse_9.y,mouse_9.leftButton,mouse_9.midButton,mouse_9.rightButton,mouse_9.clicked_name,textbox_4.text,mouse_12.x,mouse_12.y,mouse_12.leftButton,mouse_12.midButton,mouse_12.rightButton,mouse_12.clicked_name,textbox_5.text,mouse_13.x,mouse_13.y,mouse_13.leftButton,mouse_13.midButton,mouse_13.rightButton,mouse_13.clicked_name,textbox_6.text,mouse_14.x,mouse_14.y,mouse_14.leftButton,mouse_14.midButton,mouse_14.rightButton,mouse_14.clicked_name,textbox_7.text,mouse_15.x,mouse_15.y,mouse_15.leftButton,mouse_15.midButton,mouse_15.rightButton,mouse_15.clicked_name
0,0,0,3,1,,5789972670c76a00012433b3,62bbfb71dd33c6b4ecf35899,2022-06-29_09h12.58.739,Colour_Asymmetry_Pilot,2022.1.3,Win32,59.97001499,62bbe60bf3d75ef465d3e404,,,,,,,,,,,,,,,,,,,,,,,,,,,,,,,,,,,,,,,,,,,,,,,,,,,,,,,,,,,,,,,,,,,,,,,,,,,,,,,,,,,,,,,,,,,,,,,,,,,,,,,,,,,,,,,,,,,,,,,,,,,,,,,,,,,,,,,,,,,,,,,,,,,,,,,,,,,,,,
0,1,1,64,1,,5789972670c76a00012433b3,62bbfb71dd33c6b4ecf35899,2022-06-29_09h12.58.739,Colour_Asymmetry_Pilot,2022.1.3,Win32,59.97001499,62bbe60bf3d75ef465d3e404,,,,,,,,,,,,,,,,,,,,,,,,,,,,,,,,,,,,,,,,,,,,,,,,,,,,,,,,,,,,,,,,,,,,,,,,,,,,,,,,,,,,,,,,,,,,,,,,,,,,,,,,,,,,,,,,,,,,,,,,,,,,,,,,,,,,,,,,,,,,,,,,,,,,,,,,,,,,,,
0,2,2,31,1,,5789972670c76a00012433b3,62bbfb71dd33c6b4ecf35899,2022-06-29_09h12.58.739,Colour_Asymmetry_Pilot,2022.1.3,Win32,59.97001499,62bbe60bf3d75ef465d3e404,,,,,,,,,,,,,,,,,,,,,,,,,,,,,,,,,,,,,,,,,,,,,,,,,,,,,,,,,,,,,,,,,,,,,,,,,,,,,,,,,,,,,,,,,,,,,,,,,,,,,,,,,,,,,,,,,,,,,,,,,,,,,,,,,,,,,,,,,,,,,,,,,,,,,,,,,,,,,,
0,3,3,58,1,,5789972670c76a00012433b3,62bbfb71dd33c6b4ecf35899,2022-06-29_09h12.58.739,Colour_Asymmetry_Pilot,2022.1.3,Win32,59.97001499,62bbe60bf3d75ef465d3e404,,,,,,,,,,,,,,,,,,,,,,,,,,,,,,,,,,,,,,,,,,,,,,,,,,,,,,,,,,,,,,,,,,,,,,,,,,,,,,,,,,,,,,,,,,,,,,,,,,,,,,,,,,,,,,,,,,,,,,,,,,,,,,,,,,,,,,,,,,,,,,,,,,,,,,,,,,,,,,
0,4,4,82,1,,5789972670c76a00012433b3,62bbfb71dd33c6b4ecf35899,2022-06-29_09h12.58.739,Colour_Asymmetry_Pilot,2022.1.3,Win32,59.97001499,62bbe60bf3d75ef465d3e404,,,,,,,,,,,,,,,,,,,,,,,,,,,,,,,,,,,,,,,,,,,,,,,,,,,,,,,,,,,,,,,,,,,,,,,,,,,,,,,,,,,,,,,,,,,,,,,,,,,,,,,,,,,,,,,,,,,,,,,,,,,,,,,,,,,,,,,,,,,,,,,,,,,,,,,,,,,,,,
0,5,5,68,1,,5789972670c76a00012433b3,62bbfb71dd33c6b4ecf35899,2022-06-29_09h12.58.739,Colour_Asymmetry_Pilot,2022.1.3,Win32,59.97001499,62bbe60bf3d75ef465d3e404,,,,,,,,,,,,,,,,,,,,,,,,,,,,,,,,,,,,,,,,,,,,,,,,,,,,,,,,,,,,,,,,,,,,,,,,,,,,,,,,,,,,,,,,,,,,,,,,,,,,,,,,,,,,,,,,,,,,,,,,,,,,,,,,,,,,,,,,,,,,,,,,,,,,,,,,,,,,,,
0,6,6,41,1,,5789972670c76a00012433b3,62bbfb71dd33c6b4ecf35899,2022-06-29_09h12.58.739,Colour_Asymmetry_Pilot,2022.1.3,Win32,59.97001499,62bbe60bf3d75ef465d3e404,,,,,,,,,,,,,,,,,,,,,,,,,,,,,,,,,,,,,,,,,,,,,,,,,,,,,,,,,,,,,,,,,,,,,,,,,,,,,,,,,,,,,,,,,,,,,,,,,,,,,,,,,,,,,,,,,,,,,,,,,,,,,,,,,,,,,,,,,,,,,,,,,,,,,,,,,,,,,,
0,7,7,24,1,,5789972670c76a00012433b3,62bbfb71dd33c6b4ecf35899,2022-06-29_09h12.58.739,Colour_Asymmetry_Pilot,2022.1.3,Win32,59.97001499,62bbe60bf3d75ef465d3e404,,,,,,,,,,,,,,,,,,,,,,,,,,,,,,,,,,,,,,,,,,,,,,,,,,,,,,,,,,,,,,,,,,,,,,,,,,,,,,,,,,,,,,,,,,,,,,,,,,,,,,,,,,,,,,,,,,,,,,,,,,,,,,,,,,,,,,,,,,,,,,,,,,,,,,,,,,,,,,
0,8,8,0,1,,5789972670c76a00012433b3,62bbfb71dd33c6b4ecf35899,2022-06-29_09h12.58.739,Colour_Asymmetry_Pilot,2022.1.3,Win32,59.97001499,62bbe60bf3d75ef465d3e404,,,,,,,,,,,,,,,,,,,,,,,,,,,,,,,,,,,,,,,,,,,,,,,,,,,,,,,,,,,,,,,,,,,,,,,,,,,,,,,,,,,,,,,,,,,,,,,,,,,,,,,,,,,,,,,,,,,,,,,,,,,,,,,,,,,,,,,,,,,,,,,,,,,,,,,,,,,,,,
0,9,9,61,1,,5789972670c76a00012433b3,62bbfb71dd33c6b4ecf35899,2022-06-29_09h12.58.739,Colour_Asymmetry_Pilot,2022.1.3,Win32,59.97001499,62bbe60bf3d75ef465d3e404,,,,,,,,,,,,,,,,,,,,,,,,,,,,,,,,,,,,,,,,,,,,,,,,,,,,,,,,,,,,,,,,,,,,,,,,,,,,,,,,,,,,,,,,,,,,,,,,,,,,,,,,,,,,,,,,,,,,,,,,,,,,,,,,,,,,,,,,,,,,,,,,,,,,,,,,,,,,,,
0,10,10,80,1,,5789972670c76a00012433b3,62bbfb71dd33c6b4ecf35899,2022-06-29_09h12.58.739,Colour_Asymmetry_Pilot,2022.1.3,Win32,59.97001499,62bbe60bf3d75ef465d3e404,,,,,,,,,,,,,,,,,,,,,,,,,,,,,,,,,,,,,,,,,,,,,,,,,,,,,,,,,,,,,,,,,,,,,,,,,,,,,,,,,,,,,,,,,,,,,,,,,,,,,,,,,,,,,,,,,,,,,,,,,,,,,,,,,,,,,,,,,,,,,,,,,,,,,,,,,,,,,,
0,11,11,30,1,,5789972670c76a00012433b3,62bbfb71dd33c6b4ecf35899,2022-06-29_09h12.58.739,Colour_Asymmetry_Pilot,2022.1.3,Win32,59.97001499,62bbe60bf3d75ef465d3e404,,,,,,,,,,,,,,,,,,,,,,,,,,,,,,,,,,,,,,,,,,,,,,,,,,,,,,,,,,,,,,,,,,,,,,,,,,,,,,,,,,,,,,,,,,,,,,,,,,,,,,,,,,,,,,,,,,,,,,,,,,,,,,,,,,,,,,,,,,,,,,,,,,,,,,,,,,,,,,
0,12,12,5,1,,5789972670c76a00012433b3,62bbfb71dd33c6b4ecf35899,2022-06-29_09h12.58.739,Colour_Asymmetry_Pilot,2022.1.3,Win32,59.97001499,62bbe60bf3d75ef465d3e404,,,,,,,,,,,,,,,,,,,,,,,,,,,,,,,,,,,,,,,,,,,,,,,,,,,,,,,,,,,,,,,,,,,,,,,,,,,,,,,,,,,,,,,,,,,,,,,,,,,,,,,,,,,,,,,,,,,,,,,,,,,,,,,,,,,,,,,,,,,,,,,,,,,,,,,,,,,,,,
0,13,13,69,1,,5789972670c76a00012433b3,62bbfb71dd33c6b4ecf35899,2022-06-29_09h12.58.739,Colour_Asymmetry_Pilot,2022.1.3,Win32,59.97001499,62bbe60bf3d75ef465d3e404,,,,,,,,,,,,,,,,,,,,,,,,,,,,,,,,,,,,,,,,,,,,,,,,,,,,,,,,,,,,,,,,,,,,,,,,,,,,,,,,,,,,,,,,,,,,,,,,,,,,,,,,,,,,,,,,,,,,,,,,,,,,,,,,,,,,,,,,,,,,,,,,,,,,,,,,,,,,,,
0,14,14,40,1,,5789972670c76a00012433b3,62bbfb71dd33c6b4ecf35899,2022-06-29_09h12.58.739,Colour_Asymmetry_Pilot,2022.1.3,Win32,59.97001499,62bbe60bf3d75ef465d3e404,,,,,,,,,,,,,,,,,,,,,,,,,,,,,,,,,,,,,,,,,,,,,,,,,,,,,,,,,,,,,,,,,,,,,,,,,,,,,,,,,,,,,,,,,,,,,,,,,,,,,,,,,,,,,,,,,,,,,,,,,,,,,,,,,,,,,,,,,,,,,,,,,,,,,,,,,,,,,,
0,15,15,36,1,,5789972670c76a00012433b3,62bbfb71dd33c6b4ecf35899,2022-06-29_09h12.58.739,Colour_Asymmetry_Pilot,2022.1.3,Win32,59.97001499,62bbe60bf3d75ef465d3e404,,,,,,,,,,,,,,,,,,,,,,,,,,,,,,,,,,,,,,,,,,,,,,,,,,,,,,,,,,,,,,,,,,,,,,,,,,,,,,,,,,,,,,,,,,,,,,,,,,,,,,,,,,,,,,,,,,,,,,,,,,,,,,,,,,,,,,,,,,,,,,,,,,,,,,,,,,,,,,
0,16,16,14,1,,5789972670c76a00012433b3,62bbfb71dd33c6b4ecf35899,2022-06-29_09h12.58.739,Colour_Asymmetry_Pilot,2022.1.3,Win32,59.97001499,62bbe60bf3d75ef465d3e404,,,,,,,,,,,,,,,,,,,,,,,,,,,,,,,,,,,,,,,,,,,,,,,,,,,,,,,,,,,,,,,,,,,,,,,,,,,,,,,,,,,,,,,,,,,,,,,,,,,,,,,,,,,,,,,,,,,,,,,,,,,,,,,,,,,,,,,,,,,,,,,,,,,,,,,,,,,,,,
0,17,17,70,1,,5789972670c76a00012433b3,62bbfb71dd33c6b4ecf35899,2022-06-29_09h12.58.739,Colour_Asymmetry_Pilot,2022.1.3,Win32,59.97001499,62bbe60bf3d75ef465d3e404,,,,,,,,,,,,,,,,,,,,,,,,,,,,,,,,,,,,,,,,,,,,,,,,,,,,,,,,,,,,,,,,,,,,,,,,,,,,,,,,,,,,,,,,,,,,,,,,,,,,,,,,,,,,,,,,,,,,,,,,,,,,,,,,,,,,,,,,,,,,,,,,,,,,,,,,,,,,,,
0,18,18,92,1,,5789972670c76a00012433b3,62bbfb71dd33c6b4ecf35899,2022-06-29_09h12.58.739,Colour_Asymmetry_Pilot,2022.1.3,Win32,59.97001499,62bbe60bf3d75ef465d3e404,,,,,,,,,,,,,,,,,,,,,,,,,,,,,,,,,,,,,,,,,,,,,,,,,,,,,,,,,,,,,,,,,,,,,,,,,,,,,,,,,,,,,,,,,,,,,,,,,,,,,,,,,,,,,,,,,,,,,,,,,,,,,,,,,,,,,,,,,,,,,,,,,,,,,,,,,,,,,,
0,19,19,72,1,,5789972670c76a00012433b3,62bbfb71dd33c6b4ecf35899,2022-06-29_09h12.58.739,Colour_Asymmetry_Pilot,2022.1.3,Win32,59.97001499,62bbe60bf3d75ef465d3e404,,,,,,,,,,,,,,,,,,,,,,,,,,,,,,,,,,,,,,,,,,,,,,,,,,,,,,,,,,,,,,,,,,,,,,,,,,,,,,,,,,,,,,,,,,,,,,,,,,,,,,,,,,,,,,,,,,,,,,,,,,,,,,,,,,,,,,,,,,,,,,,,,,,,,,,,,,,,,,
0,20,20,8,1,,5789972670c76a00012433b3,62bbfb71dd33c6b4ecf35899,2022-06-29_09h12.58.739,Colour_Asymmetry_Pilot,2022.1.3,Win32,59.97001499,62bbe60bf3d75ef465d3e404,,,,,,,,,,,,,,,,,,,,,,,,,,,,,,,,,,,,,,,,,,,,,,,,,,,,,,,,,,,,,,,,,,,,,,,,,,,,,,,,,,,,,,,,,,,,,,,,,,,,,,,,,,,,,,,,,,,,,,,,,,,,,,,,,,,,,,,,,,,,,,,,,,,,,,,,,,,,,,
0,21,21,78,1,,5789972670c76a00012433b3,62bbfb71dd33c6b4ecf35899,2022-06-29_09h12.58.739,Colour_Asymmetry_Pilot,2022.1.3,Win32,59.97001499,62bbe60bf3d75ef465d3e404,,,,,,,,,,,,,,,,,,,,,,,,,,,,,,,,,,,,,,,,,,,,,,,,,,,,,,,,,,,,,,,,,,,,,,,,,,,,,,,,,,,,,,,,,,,,,,,,,,,,,,,,,,,,,,,,,,,,,,,,,,,,,,,,,,,,,,,,,,,,,,,,,,,,,,,,,,,,,,
0,22,22,77,1,,5789972670c76a00012433b3,62bbfb71dd33c6b4ecf35899,2022-06-29_09h12.58.739,Colour_Asymmetry_Pilot,2022.1.3,Win32,59.97001499,62bbe60bf3d75ef465d3e404,,,,,,,,,,,,,,,,,,,,,,,,,,,,,,,,,,,,,,,,,,,,,,,,,,,,,,,,,,,,,,,,,,,,,,,,,,,,,,,,,,,,,,,,,,,,,,,,,,,,,,,,,,,,,,,,,,,,,,,,,,,,,,,,,,,,,,,,,,,,,,,,,,,,,,,,,,,,,,
0,23,23,13,1,,5789972670c76a00012433b3,62bbfb71dd33c6b4ecf35899,2022-06-29_09h12.58.739,Colour_Asymmetry_Pilot,2022.1.3,Win32,59.97001499,62bbe60bf3d75ef465d3e404,,,,,,,,,,,,,,,,,,,,,,,,,,,,,,,,,,,,,,,,,,,,,,,,,,,,,,,,,,,,,,,,,,,,,,,,,,,,,,,,,,,,,,,,,,,,,,,,,,,,,,,,,,,,,,,,,,,,,,,,,,,,,,,,,,,,,,,,,,,,,,,,,,,,,,,,,,,,,,
0,24,24,15,1,,5789972670c76a00012433b3,62bbfb71dd33c6b4ecf35899,2022-06-29_09h12.58.739,Colour_Asymmetry_Pilot,2022.1.3,Win32,59.97001499,62bbe60bf3d75ef465d3e404,,,,,,,,,,,,,,,,,,,,,,,,,,,,,,,,,,,,,,,,,,,,,,,,,,,,,,,,,,,,,,,,,,,,,,,,,,,,,,,,,,,,,,,,,,,,,,,,,,,,,,,,,,,,,,,,,,,,,,,,,,,,,,,,,,,,,,,,,,,,,,,,,,,,,,,,,,,,,,
0,25,25,28,1,,5789972670c76a00012433b3,62bbfb71dd33c6b4ecf35899,2022-06-29_09h12.58.739,Colour_Asymmetry_Pilot,2022.1.3,Win32,59.97001499,62bbe60bf3d75ef465d3e404,,,,,,,,,,,,,,,,,,,,,,,,,,,,,,,,,,,,,,,,,,,,,,,,,,,,,,,,,,,,,,,,,,,,,,,,,,,,,,,,,,,,,,,,,,,,,,,,,,,,,,,,,,,,,,,,,,,,,,,,,,,,,,,,,,,,,,,,,,,,,,,,,,,,,,,,,,,,,,
0,26,26,23,1,,5789972670c76a00012433b3,62bbfb71dd33c6b4ecf35899,2022-06-29_09h12.58.739,Colour_Asymmetry_Pilot,2022.1.3,Win32,59.97001499,62bbe60bf3d75ef465d3e404,,,,,,,,,,,,,,,,,,,,,,,,,,,,,,,,,,,,,,,,,,,,,,,,,,,,,,,,,,,,,,,,,,,,,,,,,,,,,,,,,,,,,,,,,,,,,,,,,,,,,,,,,,,,,,,,,,,,,,,,,,,,,,,,,,,,,,,,,,,,,,,,,,,,,,,,,,,,,,
0,27,27,39,1,,5789972670c76a00012433b3,62bbfb71dd33c6b4ecf35899,2022-06-29_09h12.58.739,Colour_Asymmetry_Pilot,2022.1.3,Win32,59.97001499,62bbe60bf3d75ef465d3e404,,,,,,,,,,,,,,,,,,,,,,,,,,,,,,,,,,,,,,,,,,,,,,,,,,,,,,,,,,,,,,,,,,,,,,,,,,,,,,,,,,,,,,,,,,,,,,,,,,,,,,,,,,,,,,,,,,,,,,,,,,,,,,,,,,,,,,,,,,,,,,,,,,,,,,,,,,,,,,
0,28,28,12,1,,5789972670c76a00012433b3,62bbfb71dd33c6b4ecf35899,2022-06-29_09h12.58.739,Colour_Asymmetry_Pilot,2022.1.3,Win32,59.97001499,62bbe60bf3d75ef465d3e404,,,,,,,,,,,,,,,,,,,,,,,,,,,,,,,,,,,,,,,,,,,,,,,,,,,,,,,,,,,,,,,,,,,,,,,,,,,,,,,,,,,,,,,,,,,,,,,,,,,,,,,,,,,,,,,,,,,,,,,,,,,,,,,,,,,,,,,,,,,,,,,,,,,,,,,,,,,,,,
0,29,29,74,1,,5789972670c76a00012433b3,62bbfb71dd33c6b4ecf35899,2022-06-29_09h12.58.739,Colour_Asymmetry_Pilot,2022.1.3,Win32,59.97001499,62bbe60bf3d75ef465d3e404,,,,,,,,,,,,,,,,,,,,,,,,,,,,,,,,,,,,,,,,,,,,,,,,,,,,,,,,,,,,,,,,,,,,,,,,,,,,,,,,,,,,,,,,,,,,,,,,,,,,,,,,,,,,,,,,,,,,,,,,,,,,,,,,,,,,,,,,,,,,,,,,,,,,,,,,,,,,,,
0,30,30,11,1,,5789972670c76a00012433b3,62bbfb71dd33c6b4ecf35899,2022-06-29_09h12.58.739,Colour_Asymmetry_Pilot,2022.1.3,Win32,59.97001499,62bbe60bf3d75ef465d3e404,,,,,,,,,,,,,,,,,,,,,,,,,,,,,,,,,,,,,,,,,,,,,,,,,,,,,,,,,,,,,,,,,,,,,,,,,,,,,,,,,,,,,,,,,,,,,,,,,,,,,,,,,,,,,,,,,,,,,,,,,,,,,,,,,,,,,,,,,,,,,,,,,,,,,,,,,,,,,,
0,31,31,43,1,,5789972670c76a00012433b3,62bbfb71dd33c6b4ecf35899,2022-06-29_09h12.58.739,Colour_Asymmetry_Pilot,2022.1.3,Win32,59.97001499,62bbe60bf3d75ef465d3e404,,,,,,,,,,,,,,,,,,,,,,,,,,,,,,,,,,,,,,,,,,,,,,,,,,,,,,,,,,,,,,,,,,,,,,,,,,,,,,,,,,,,,,,,,,,,,,,,,,,,,,,,,,,,,,,,,,,,,,,,,,,,,,,,,,,,,,,,,,,,,,,,,,,,,,,,,,,,,,
0,32,32,18,1,,5789972670c76a00012433b3,62bbfb71dd33c6b4ecf35899,2022-06-29_09h12.58.739,Colour_Asymmetry_Pilot,2022.1.3,Win32,59.97001499,62bbe60bf3d75ef465d3e404,,,,,,,,,,,,,,,,,,,,,,,,,,,,,,,,,,,,,,,,,,,,,,,,,,,,,,,,,,,,,,,,,,,,,,,,,,,,,,,,,,,,,,,,,,,,,,,,,,,,,,,,,,,,,,,,,,,,,,,,,,,,,,,,,,,,,,,,,,,,,,,,,,,,,,,,,,,,,,
0,33,33,60,1,,5789972670c76a00012433b3,62bbfb71dd33c6b4ecf35899,2022-06-29_09h12.58.739,Colour_Asymmetry_Pilot,2022.1.3,Win32,59.97001499,62bbe60bf3d75ef465d3e404,,,,,,,,,,,,,,,,,,,,,,,,,,,,,,,,,,,,,,,,,,,,,,,,,,,,,,,,,,,,,,,,,,,,,,,,,,,,,,,,,,,,,,,,,,,,,,,,,,,,,,,,,,,,,,,,,,,,,,,,,,,,,,,,,,,,,,,,,,,,,,,,,,,,,,,,,,,,,,
0,34,34,10,1,,5789972670c76a00012433b3,62bbfb71dd33c6b4ecf35899,2022-06-29_09h12.58.739,Colour_Asymmetry_Pilot,2022.1.3,Win32,59.97001499,62bbe60bf3d75ef465d3e404,,,,,,,,,,,,,,,,,,,,,,,,,,,,,,,,,,,,,,,,,,,,,,,,,,,,,,,,,,,,,,,,,,,,,,,,,,,,,,,,,,,,,,,,,,,,,,,,,,,,,,,,,,,,,,,,,,,,,,,,,,,,,,,,,,,,,,,,,,,,,,,,,,,,,,,,,,,,,,
0,35,35,25,1,,5789972670c76a00012433b3,62bbfb71dd33c6b4ecf35899,2022-06-29_09h12.58.739,Colour_Asymmetry_Pilot,2022.1.3,Win32,59.97001499,62bbe60bf3d75ef465d3e404,,,,,,,,,,,,,,,,,,,,,,,,,,,,,,,,,,,,,,,,,,,,,,,,,,,,,,,,,,,,,,,,,,,,,,,,,,,,,,,,,,,,,,,,,,,,,,,,,,,,,,,,,,,,,,,,,,,,,,,,,,,,,,,,,,,,,,,,,,,,,,,,,,,,,,,,,,,,,,
0,36,36,16,1,,5789972670c76a00012433b3,62bbfb71dd33c6b4ecf35899,2022-06-29_09h12.58.739,Colour_Asymmetry_Pilot,2022.1.3,Win32,59.97001499,62bbe60bf3d75ef465d3e404,,,,,,,,,,,,,,,,,,,,,,,,,,,,,,,,,,,,,,,,,,,,,,,,,,,,,,,,,,,,,,,,,,,,,,,,,,,,,,,,,,,,,,,,,,,,,,,,,,,,,,,,,,,,,,,,,,,,,,,,,,,,,,,,,,,,,,,,,,,,,,,,,,,,,,,,,,,,,,
0,37,37,52,1,,5789972670c76a00012433b3,62bbfb71dd33c6b4ecf35899,2022-06-29_09h12.58.739,Colour_Asymmetry_Pilot,2022.1.3,Win32,59.97001499,62bbe60bf3d75ef465d3e404,,,,,,,,,,,,,,,,,,,,,,,,,,,,,,,,,,,,,,,,,,,,,,,,,,,,,,,,,,,,,,,,,,,,,,,,,,,,,,,,,,,,,,,,,,,,,,,,,,,,,,,,,,,,,,,,,,,,,,,,,,,,,,,,,,,,,,,,,,,,,,,,,,,,,,,,,,,,,,
0,38,38,37,1,,5789972670c76a00012433b3,62bbfb71dd33c6b4ecf35899,2022-06-29_09h12.58.739,Colour_Asymmetry_Pilot,2022.1.3,Win32,59.97001499,62bbe60bf3d75ef465d3e404,,,,,,,,,,,,,,,,,,,,,,,,,,,,,,,,,,,,,,,,,,,,,,,,,,,,,,,,,,,,,,,,,,,,,,,,,,,,,,,,,,,,,,,,,,,,,,,,,,,,,,,,,,,,,,,,,,,,,,,,,,,,,,,,,,,,,,,,,,,,,,,,,,,,,,,,,,,,,,
0,39,39,57,1,,5789972670c76a00012433b3,62bbfb71dd33c6b4ecf35899,2022-06-29_09h12.58.739,Colour_Asymmetry_Pilot,2022.1.3,Win32,59.97001499,62bbe60bf3d75ef465d3e404,,,,,,,,,,,,,,,,,,,,,,,,,,,,,,,,,,,,,,,,,,,,,,,,,,,,,,,,,,,,,,,,,,,,,,,,,,,,,,,,,,,,,,,,,,,,,,,,,,,,,,,,,,,,,,,,,,,,,,,,,,,,,,,,,,,,,,,,,,,,,,,,,,,,,,,,,,,,,,
0,40,40,66,1,,5789972670c76a00012433b3,62bbfb71dd33c6b4ecf35899,2022-06-29_09h12.58.739,Colour_Asymmetry_Pilot,2022.1.3,Win32,59.97001499,62bbe60bf3d75ef465d3e404,,,,,,,,,,,,,,,,,,,,,,,,,,,,,,,,,,,,,,,,,,,,,,,,,,,,,,,,,,,,,,,,,,,,,,,,,,,,,,,,,,,,,,,,,,,,,,,,,,,,,,,,,,,,,,,,,,,,,,,,,,,,,,,,,,,,,,,,,,,,,,,,,,,,,,,,,,,,,,
0,41,41,9,1,,5789972670c76a00012433b3,62bbfb71dd33c6b4ecf35899,2022-06-29_09h12.58.739,Colour_Asymmetry_Pilot,2022.1.3,Win32,59.97001499,62bbe60bf3d75ef465d3e404,,,,,,,,,,,,,,,,,,,,,,,,,,,,,,,,,,,,,,,,,,,,,,,,,,,,,,,,,,,,,,,,,,,,,,,,,,,,,,,,,,,,,,,,,,,,,,,,,,,,,,,,,,,,,,,,,,,,,,,,,,,,,,,,,,,,,,,,,,,,,,,,,,,,,,,,,,,,,,
0,42,42,20,1,,5789972670c76a00012433b3,62bbfb71dd33c6b4ecf35899,2022-06-29_09h12.58.739,Colour_Asymmetry_Pilot,2022.1.3,Win32,59.97001499,62bbe60bf3d75ef465d3e404,,,,,,,,,,,,,,,,,,,,,,,,,,,,,,,,,,,,,,,,,,,,,,,,,,,,,,,,,,,,,,,,,,,,,,,,,,,,,,,,,,,,,,,,,,,,,,,,,,,,,,,,,,,,,,,,,,,,,,,,,,,,,,,,,,,,,,,,,,,,,,,,,,,,,,,,,,,,,,
0,43,43,85,1,,5789972670c76a00012433b3,62bbfb71dd33c6b4ecf35899,2022-06-29_09h12.58.739,Colour_Asymmetry_Pilot,2022.1.3,Win32,59.97001499,62bbe60bf3d75ef465d3e404,,,,,,,,,,,,,,,,,,,,,,,,,,,,,,,,,,,,,,,,,,,,,,,,,,,,,,,,,,,,,,,,,,,,,,,,,,,,,,,,,,,,,,,,,,,,,,,,,,,,,,,,,,,,,,,,,,,,,,,,,,,,,,,,,,,,,,,,,,,,,,,,,,,,,,,,,,,,,,
0,44,44,83,1,,5789972670c76a00012433b3,62bbfb71dd33c6b4ecf35899,2022-06-29_09h12.58.739,Colour_Asymmetry_Pilot,2022.1.3,Win32,59.97001499,62bbe60bf3d75ef465d3e404,,,,,,,,,,,,,,,,,,,,,,,,,,,,,,,,,,,,,,,,,,,,,,,,,,,,,,,,,,,,,,,,,,,,,,,,,,,,,,,,,,,,,,,,,,,,,,,,,,,,,,,,,,,,,,,,,,,,,,,,,,,,,,,,,,,,,,,,,,,,,,,,,,,,,,,,,,,,,,
0,45,45,76,1,,5789972670c76a00012433b3,62bbfb71dd33c6b4ecf35899,2022-06-29_09h12.58.739,Colour_Asymmetry_Pilot,2022.1.3,Win32,59.97001499,62bbe60bf3d75ef465d3e404,,,,,,,,,,,,,,,,,,,,,,,,,,,,,,,,,,,,,,,,,,,,,,,,,,,,,,,,,,,,,,,,,,,,,,,,,,,,,,,,,,,,,,,,,,,,,,,,,,,,,,,,,,,,,,,,,,,,,,,,,,,,,,,,,,,,,,,,,,,,,,,,,,,,,,,,,,,,,,
0,46,46,53,1,,5789972670c76a00012433b3,62bbfb71dd33c6b4ecf35899,2022-06-29_09h12.58.739,Colour_Asymmetry_Pilot,2022.1.3,Win32,59.97001499,62bbe60bf3d75ef465d3e404,,,,,,,,,,,,,,,,,,,,,,,,,,,,,,,,,,,,,,,,,,,,,,,,,,,,,,,,,,,,,,,,,,,,,,,,,,,,,,,,,,,,,,,,,,,,,,,,,,,,,,,,,,,,,,,,,,,,,,,,,,,,,,,,,,,,,,,,,,,,,,,,,,,,,,,,,,,,,,
0,47,47,89,1,,5789972670c76a00012433b3,62bbfb71dd33c6b4ecf35899,2022-06-29_09h12.58.739,Colour_Asymmetry_Pilot,2022.1.3,Win32,59.97001499,62bbe60bf3d75ef465d3e404,,,,,,,,,,,,,,,,,,,,,,,,,,,,,,,,,,,,,,,,,,,,,,,,,,,,,,,,,,,,,,,,,,,,,,,,,,,,,,,,,,,,,,,,,,,,,,,,,,,,,,,,,,,,,,,,,,,,,,,,,,,,,,,,,,,,,,,,,,,,,,,,,,,,,,,,,,,,,,
0,48,48,90,1,,5789972670c76a00012433b3,62bbfb71dd33c6b4ecf35899,2022-06-29_09h12.58.739,Colour_Asymmetry_Pilot,2022.1.3,Win32,59.97001499,62bbe60bf3d75ef465d3e404,,,,,,,,,,,,,,,,,,,,,,,,,,,,,,,,,,,,,,,,,,,,,,,,,,,,,,,,,,,,,,,,,,,,,,,,,,,,,,,,,,,,,,,,,,,,,,,,,,,,,,,,,,,,,,,,,,,,,,,,,,,,,,,,,,,,,,,,,,,,,,,,,,,,,,,,,,,,,,
0,49,49,51,1,,5789972670c76a00012433b3,62bbfb71dd33c6b4ecf35899,2022-06-29_09h12.58.739,Colour_Asymmetry_Pilot,2022.1.3,Win32,59.97001499,62bbe60bf3d75ef465d3e404,,,,,,,,,,,,,,,,,,,,,,,,,,,,,,,,,,,,,,,,,,,,,,,,,,,,,,,,,,,,,,,,,,,,,,,,,,,,,,,,,,,,,,,,,,,,,,,,,,,,,,,,,,,,,,,,,,,,,,,,,,,,,,,,,,,,,,,,,,,,,,,,,,,,,,,,,,,,,,
0,50,50,27,1,,5789972670c76a00012433b3,62bbfb71dd33c6b4ecf35899,2022-06-29_09h12.58.739,Colour_Asymmetry_Pilot,2022.1.3,Win32,59.97001499,62bbe60bf3d75ef465d3e404,,,,,,,,,,,,,,,,,,,,,,,,,,,,,,,,,,,,,,,,,,,,,,,,,,,,,,,,,,,,,,,,,,,,,,,,,,,,,,,,,,,,,,,,,,,,,,,,,,,,,,,,,,,,,,,,,,,,,,,,,,,,,,,,,,,,,,,,,,,,,,,,,,,,,,,,,,,,,,
0,51,51,73,1,,5789972670c76a00012433b3,62bbfb71dd33c6b4ecf35899,2022-06-29_09h12.58.739,Colour_Asymmetry_Pilot,2022.1.3,Win32,59.97001499,62bbe60bf3d75ef465d3e404,,,,,,,,,,,,,,,,,,,,,,,,,,,,,,,,,,,,,,,,,,,,,,,,,,,,,,,,,,,,,,,,,,,,,,,,,,,,,,,,,,,,,,,,,,,,,,,,,,,,,,,,,,,,,,,,,,,,,,,,,,,,,,,,,,,,,,,,,,,,,,,,,,,,,,,,,,,,,,
0,52,52,59,1,,5789972670c76a00012433b3,62bbfb71dd33c6b4ecf35899,2022-06-29_09h12.58.739,Colour_Asymmetry_Pilot,2022.1.3,Win32,59.97001499,62bbe60bf3d75ef465d3e404,,,,,,,,,,,,,,,,,,,,,,,,,,,,,,,,,,,,,,,,,,,,,,,,,,,,,,,,,,,,,,,,,,,,,,,,,,,,,,,,,,,,,,,,,,,,,,,,,,,,,,,,,,,,,,,,,,,,,,,,,,,,,,,,,,,,,,,,,,,,,,,,,,,,,,,,,,,,,,
0,53,53,6,1,,5789972670c76a00012433b3,62bbfb71dd33c6b4ecf35899,2022-06-29_09h12.58.739,Colour_Asymmetry_Pilot,2022.1.3,Win32,59.97001499,62bbe60bf3d75ef465d3e404,,,,,,,,,,,,,,,,,,,,,,,,,,,,,,,,,,,,,,,,,,,,,,,,,,,,,,,,,,,,,,,,,,,,,,,,,,,,,,,,,,,,,,,,,,,,,,,,,,,,,,,,,,,,,,,,,,,,,,,,,,,,,,,,,,,,,,,,,,,,,,,,,,,,,,,,,,,,,,
0,54,54,84,1,,5789972670c76a00012433b3,62bbfb71dd33c6b4ecf35899,2022-06-29_09h12.58.739,Colour_Asymmetry_Pilot,2022.1.3,Win32,59.97001499,62bbe60bf3d75ef465d3e404,,,,,,,,,,,,,,,,,,,,,,,,,,,,,,,,,,,,,,,,,,,,,,,,,,,,,,,,,,,,,,,,,,,,,,,,,,,,,,,,,,,,,,,,,,,,,,,,,,,,,,,,,,,,,,,,,,,,,,,,,,,,,,,,,,,,,,,,,,,,,,,,,,,,,,,,,,,,,,
0,55,55,32,1,,5789972670c76a00012433b3,62bbfb71dd33c6b4ecf35899,2022-06-29_09h12.58.739,Colour_Asymmetry_Pilot,2022.1.3,Win32,59.97001499,62bbe60bf3d75ef465d3e404,,,,,,,,,,,,,,,,,,,,,,,,,,,,,,,,,,,,,,,,,,,,,,,,,,,,,,,,,,,,,,,,,,,,,,,,,,,,,,,,,,,,,,,,,,,,,,,,,,,,,,,,,,,,,,,,,,,,,,,,,,,,,,,,,,,,,,,,,,,,,,,,,,,,,,,,,,,,,,
0,56,56,45,1,,5789972670c76a00012433b3,62bbfb71dd33c6b4ecf35899,2022-06-29_09h12.58.739,Colour_Asymmetry_Pilot,2022.1.3,Win32,59.97001499,62bbe60bf3d75ef465d3e404,,,,,,,,,,,,,,,,,,,,,,,,,,,,,,,,,,,,,,,,,,,,,,,,,,,,,,,,,,,,,,,,,,,,,,,,,,,,,,,,,,,,,,,,,,,,,,,,,,,,,,,,,,,,,,,,,,,,,,,,,,,,,,,,,,,,,,,,,,,,,,,,,,,,,,,,,,,,,,
0,57,57,65,1,,5789972670c76a00012433b3,62bbfb71dd33c6b4ecf35899,2022-06-29_09h12.58.739,Colour_Asymmetry_Pilot,2022.1.3,Win32,59.97001499,62bbe60bf3d75ef465d3e404,,,,,,,,,,,,,,,,,,,,,,,,,,,,,,,,,,,,,,,,,,,,,,,,,,,,,,,,,,,,,,,,,,,,,,,,,,,,,,,,,,,,,,,,,,,,,,,,,,,,,,,,,,,,,,,,,,,,,,,,,,,,,,,,,,,,,,,,,,,,,,,,,,,,,,,,,,,,,,
0,58,58,87,1,,5789972670c76a00012433b3,62bbfb71dd33c6b4ecf35899,2022-06-29_09h12.58.739,Colour_Asymmetry_Pilot,2022.1.3,Win32,59.97001499,62bbe60bf3d75ef465d3e404,,,,,,,,,,,,,,,,,,,,,,,,,,,,,,,,,,,,,,,,,,,,,,,,,,,,,,,,,,,,,,,,,,,,,,,,,,,,,,,,,,,,,,,,,,,,,,,,,,,,,,,,,,,,,,,,,,,,,,,,,,,,,,,,,,,,,,,,,,,,,,,,,,,,,,,,,,,,,,
0,59,59,26,1,,5789972670c76a00012433b3,62bbfb71dd33c6b4ecf35899,2022-06-29_09h12.58.739,Colour_Asymmetry_Pilot,2022.1.3,Win32,59.97001499,62bbe60bf3d75ef465d3e404,,,,,,,,,,,,,,,,,,,,,,,,,,,,,,,,,,,,,,,,,,,,,,,,,,,,,,,,,,,,,,,,,,,,,,,,,,,,,,,,,,,,,,,,,,,,,,,,,,,,,,,,,,,,,,,,,,,,,,,,,,,,,,,,,,,,,,,,,,,,,,,,,,,,,,,,,,,,,,
0,60,60,17,1,,5789972670c76a00012433b3,62bbfb71dd33c6b4ecf35899,2022-06-29_09h12.58.739,Colour_Asymmetry_Pilot,2022.1.3,Win32,59.97001499,62bbe60bf3d75ef465d3e404,,,,,,,,,,,,,,,,,,,,,,,,,,,,,,,,,,,,,,,,,,,,,,,,,,,,,,,,,,,,,,,,,,,,,,,,,,,,,,,,,,,,,,,,,,,,,,,,,,,,,,,,,,,,,,,,,,,,,,,,,,,,,,,,,,,,,,,,,,,,,,,,,,,,,,,,,,,,,,
0,61,61,91,1,,5789972670c76a00012433b3,62bbfb71dd33c6b4ecf35899,2022-06-29_09h12.58.739,Colour_Asymmetry_Pilot,2022.1.3,Win32,59.97001499,62bbe60bf3d75ef465d3e404,,,,,,,,,,,,,,,,,,,,,,,,,,,,,,,,,,,,,,,,,,,,,,,,,,,,,,,,,,,,,,,,,,,,,,,,,,,,,,,,,,,,,,,,,,,,,,,,,,,,,,,,,,,,,,,,,,,,,,,,,,,,,,,,,,,,,,,,,,,,,,,,,,,,,,,,,,,,,,
0,62,62,50,1,,5789972670c76a00012433b3,62bbfb71dd33c6b4ecf35899,2022-06-29_09h12.58.739,Colour_Asymmetry_Pilot,2022.1.3,Win32,59.97001499,62bbe60bf3d75ef465d3e404,,,,,,,,,,,,,,,,,,,,,,,,,,,,,,,,,,,,,,,,,,,,,,,,,,,,,,,,,,,,,,,,,,,,,,,,,,,,,,,,,,,,,,,,,,,,,,,,,,,,,,,,,,,,,,,,,,,,,,,,,,,,,,,,,,,,,,,,,,,,,,,,,,,,,,,,,,,,,,
0,63,63,21,1,,5789972670c76a00012433b3,62bbfb71dd33c6b4ecf35899,2022-06-29_09h12.58.739,Colour_Asymmetry_Pilot,2022.1.3,Win32,59.97001499,62bbe60bf3d75ef465d3e404,,,,,,,,,,,,,,,,,,,,,,,,,,,,,,,,,,,,,,,,,,,,,,,,,,,,,,,,,,,,,,,,,,,,,,,,,,,,,,,,,,,,,,,,,,,,,,,,,,,,,,,,,,,,,,,,,,,,,,,,,,,,,,,,,,,,,,,,,,,,,,,,,,,,,,,,,,,,,,
0,64,64,33,1,,5789972670c76a00012433b3,62bbfb71dd33c6b4ecf35899,2022-06-29_09h12.58.739,Colour_Asymmetry_Pilot,2022.1.3,Win32,59.97001499,62bbe60bf3d75ef465d3e404,,,,,,,,,,,,,,,,,,,,,,,,,,,,,,,,,,,,,,,,,,,,,,,,,,,,,,,,,,,,,,,,,,,,,,,,,,,,,,,,,,,,,,,,,,,,,,,,,,,,,,,,,,,,,,,,,,,,,,,,,,,,,,,,,,,,,,,,,,,,,,,,,,,,,,,,,,,,,,
0,65,65,35,1,,5789972670c76a00012433b3,62bbfb71dd33c6b4ecf35899,2022-06-29_09h12.58.739,Colour_Asymmetry_Pilot,2022.1.3,Win32,59.97001499,62bbe60bf3d75ef465d3e404,,,,,,,,,,,,,,,,,,,,,,,,,,,,,,,,,,,,,,,,,,,,,,,,,,,,,,,,,,,,,,,,,,,,,,,,,,,,,,,,,,,,,,,,,,,,,,,,,,,,,,,,,,,,,,,,,,,,,,,,,,,,,,,,,,,,,,,,,,,,,,,,,,,,,,,,,,,,,,
0,66,66,1,1,,5789972670c76a00012433b3,62bbfb71dd33c6b4ecf35899,2022-06-29_09h12.58.739,Colour_Asymmetry_Pilot,2022.1.3,Win32,59.97001499,62bbe60bf3d75ef465d3e404,,,,,,,,,,,,,,,,,,,,,,,,,,,,,,,,,,,,,,,,,,,,,,,,,,,,,,,,,,,,,,,,,,,,,,,,,,,,,,,,,,,,,,,,,,,,,,,,,,,,,,,,,,,,,,,,,,,,,,,,,,,,,,,,,,,,,,,,,,,,,,,,,,,,,,,,,,,,,,
0,67,67,55,1,,5789972670c76a00012433b3,62bbfb71dd33c6b4ecf35899,2022-06-29_09h12.58.739,Colour_Asymmetry_Pilot,2022.1.3,Win32,59.97001499,62bbe60bf3d75ef465d3e404,,,,,,,,,,,,,,,,,,,,,,,,,,,,,,,,,,,,,,,,,,,,,,,,,,,,,,,,,,,,,,,,,,,,,,,,,,,,,,,,,,,,,,,,,,,,,,,,,,,,,,,,,,,,,,,,,,,,,,,,,,,,,,,,,,,,,,,,,,,,,,,,,,,,,,,,,,,,,,
0,68,68,7,1,,5789972670c76a00012433b3,62bbfb71dd33c6b4ecf35899,2022-06-29_09h12.58.739,Colour_Asymmetry_Pilot,2022.1.3,Win32,59.97001499,62bbe60bf3d75ef465d3e404,,,,,,,,,,,,,,,,,,,,,,,,,,,,,,,,,,,,,,,,,,,,,,,,,,,,,,,,,,,,,,,,,,,,,,,,,,,,,,,,,,,,,,,,,,,,,,,,,,,,,,,,,,,,,,,,,,,,,,,,,,,,,,,,,,,,,,,,,,,,,,,,,,,,,,,,,,,,,,
0,69,69,79,1,,5789972670c76a00012433b3,62bbfb71dd33c6b4ecf35899,2022-06-29_09h12.58.739,Colour_Asymmetry_Pilot,2022.1.3,Win32,59.97001499,62bbe60bf3d75ef465d3e404,,,,,,,,,,,,,,,,,,,,,,,,,,,,,,,,,,,,,,,,,,,,,,,,,,,,,,,,,,,,,,,,,,,,,,,,,,,,,,,,,,,,,,,,,,,,,,,,,,,,,,,,,,,,,,,,,,,,,,,,,,,,,,,,,,,,,,,,,,,,,,,,,,,,,,,,,,,,,,
0,70,70,81,1,,5789972670c76a00012433b3,62bbfb71dd33c6b4ecf35899,2022-06-29_09h12.58.739,Colour_Asymmetry_Pilot,2022.1.3,Win32,59.97001499,62bbe60bf3d75ef465d3e404,,,,,,,,,,,,,,,,,,,,,,,,,,,,,,,,,,,,,,,,,,,,,,,,,,,,,,,,,,,,,,,,,,,,,,,,,,,,,,,,,,,,,,,,,,,,,,,,,,,,,,,,,,,,,,,,,,,,,,,,,,,,,,,,,,,,,,,,,,,,,,,,,,,,,,,,,,,,,,
0,71,71,67,1,,5789972670c76a00012433b3,62bbfb71dd33c6b4ecf35899,2022-06-29_09h12.58.739,Colour_Asymmetry_Pilot,2022.1.3,Win32,59.97001499,62bbe60bf3d75ef465d3e404,,,,,,,,,,,,,,,,,,,,,,,,,,,,,,,,,,,,,,,,,,,,,,,,,,,,,,,,,,,,,,,,,,,,,,,,,,,,,,,,,,,,,,,,,,,,,,,,,,,,,,,,,,,,,,,,,,,,,,,,,,,,,,,,,,,,,,,,,,,,,,,,,,,,,,,,,,,,,,
0,72,72,29,1,,5789972670c76a00012433b3,62bbfb71dd33c6b4ecf35899,2022-06-29_09h12.58.739,Colour_Asymmetry_Pilot,2022.1.3,Win32,59.97001499,62bbe60bf3d75ef465d3e404,,,,,,,,,,,,,,,,,,,,,,,,,,,,,,,,,,,,,,,,,,,,,,,,,,,,,,,,,,,,,,,,,,,,,,,,,,,,,,,,,,,,,,,,,,,,,,,,,,,,,,,,,,,,,,,,,,,,,,,,,,,,,,,,,,,,,,,,,,,,,,,,,,,,,,,,,,,,,,
0,73,73,75,1,,5789972670c76a00012433b3,62bbfb71dd33c6b4ecf35899,2022-06-29_09h12.58.739,Colour_Asymmetry_Pilot,2022.1.3,Win32,59.97001499,62bbe60bf3d75ef465d3e404,,,,,,,,,,,,,,,,,,,,,,,,,,,,,,,,,,,,,,,,,,,,,,,,,,,,,,,,,,,,,,,,,,,,,,,,,,,,,,,,,,,,,,,,,,,,,,,,,,,,,,,,,,,,,,,,,,,,,,,,,,,,,,,,,,,,,,,,,,,,,,,,,,,,,,,,,,,,,,
0,74,74,46,1,,5789972670c76a00012433b3,62bbfb71dd33c6b4ecf35899,2022-06-29_09h12.58.739,Colour_Asymmetry_Pilot,2022.1.3,Win32,59.97001499,62bbe60bf3d75ef465d3e404,,,,,,,,,,,,,,,,,,,,,,,,,,,,,,,,,,,,,,,,,,,,,,,,,,,,,,,,,,,,,,,,,,,,,,,,,,,,,,,,,,,,,,,,,,,,,,,,,,,,,,,,,,,,,,,,,,,,,,,,,,,,,,,,,,,,,,,,,,,,,,,,,,,,,,,,,,,,,,
0,75,75,38,1,,5789972670c76a00012433b3,62bbfb71dd33c6b4ecf35899,2022-06-29_09h12.58.739,Colour_Asymmetry_Pilot,2022.1.3,Win32,59.97001499,62bbe60bf3d75ef465d3e404,,,,,,,,,,,,,,,,,,,,,,,,,,,,,,,,,,,,,,,,,,,,,,,,,,,,,,,,,,,,,,,,,,,,,,,,,,,,,,,,,,,,,,,,,,,,,,,,,,,,,,,,,,,,,,,,,,,,,,,,,,,,,,,,,,,,,,,,,,,,,,,,,,,,,,,,,,,,,,
0,76,76,4,1,,5789972670c76a00012433b3,62bbfb71dd33c6b4ecf35899,2022-06-29_09h12.58.739,Colour_Asymmetry_Pilot,2022.1.3,Win32,59.97001499,62bbe60bf3d75ef465d3e404,,,,,,,,,,,,,,,,,,,,,,,,,,,,,,,,,,,,,,,,,,,,,,,,,,,,,,,,,,,,,,,,,,,,,,,,,,,,,,,,,,,,,,,,,,,,,,,,,,,,,,,,,,,,,,,,,,,,,,,,,,,,,,,,,,,,,,,,,,,,,,,,,,,,,,,,,,,,,,
0,77,77,48,1,,5789972670c76a00012433b3,62bbfb71dd33c6b4ecf35899,2022-06-29_09h12.58.739,Colour_Asymmetry_Pilot,2022.1.3,Win32,59.97001499,62bbe60bf3d75ef465d3e404,,,,,,,,,,,,,,,,,,,,,,,,,,,,,,,,,,,,,,,,,,,,,,,,,,,,,,,,,,,,,,,,,,,,,,,,,,,,,,,,,,,,,,,,,,,,,,,,,,,,,,,,,,,,,,,,,,,,,,,,,,,,,,,,,,,,,,,,,,,,,,,,,,,,,,,,,,,,,,
0,78,78,54,1,,5789972670c76a00012433b3,62bbfb71dd33c6b4ecf35899,2022-06-29_09h12.58.739,Colour_Asymmetry_Pilot,2022.1.3,Win32,59.97001499,62bbe60bf3d75ef465d3e404,,,,,,,,,,,,,,,,,,,,,,,,,,,,,,,,,,,,,,,,,,,,,,,,,,,,,,,,,,,,,,,,,,,,,,,,,,,,,,,,,,,,,,,,,,,,,,,,,,,,,,,,,,,,,,,,,,,,,,,,,,,,,,,,,,,,,,,,,,,,,,,,,,,,,,,,,,,,,,
0,79,79,88,1,,5789972670c76a00012433b3,62bbfb71dd33c6b4ecf35899,2022-06-29_09h12.58.739,Colour_Asymmetry_Pilot,2022.1.3,Win32,59.97001499,62bbe60bf3d75ef465d3e404,,,,,,,,,,,,,,,,,,,,,,,,,,,,,,,,,,,,,,,,,,,,,,,,,,,,,,,,,,,,,,,,,,,,,,,,,,,,,,,,,,,,,,,,,,,,,,,,,,,,,,,,,,,,,,,,,,,,,,,,,,,,,,,,,,,,,,,,,,,,,,,,,,,,,,,,,,,,,,
0,80,80,71,1,,5789972670c76a00012433b3,62bbfb71dd33c6b4ecf35899,2022-06-29_09h12.58.739,Colour_Asymmetry_Pilot,2022.1.3,Win32,59.97001499,62bbe60bf3d75ef465d3e404,,,,,,,,,,,,,,,,,,,,,,,,,,,,,,,,,,,,,,,,,,,,,,,,,,,,,,,,,,,,,,,,,,,,,,,,,,,,,,,,,,,,,,,,,,,,,,,,,,,,,,,,,,,,,,,,,,,,,,,,,,,,,,,,,,,,,,,,,,,,,,,,,,,,,,,,,,,,,,
0,81,81,42,1,,5789972670c76a00012433b3,62bbfb71dd33c6b4ecf35899,2022-06-29_09h12.58.739,Colour_Asymmetry_Pilot,2022.1.3,Win32,59.97001499,62bbe60bf3d75ef465d3e404,,,,,,,,,,,,,,,,,,,,,,,,,,,,,,,,,,,,,,,,,,,,,,,,,,,,,,,,,,,,,,,,,,,,,,,,,,,,,,,,,,,,,,,,,,,,,,,,,,,,,,,,,,,,,,,,,,,,,,,,,,,,,,,,,,,,,,,,,,,,,,,,,,,,,,,,,,,,,,
0,82,82,63,1,,5789972670c76a00012433b3,62bbfb71dd33c6b4ecf35899,2022-06-29_09h12.58.739,Colour_Asymmetry_Pilot,2022.1.3,Win32,59.97001499,62bbe60bf3d75ef465d3e404,,,,,,,,,,,,,,,,,,,,,,,,,,,,,,,,,,,,,,,,,,,,,,,,,,,,,,,,,,,,,,,,,,,,,,,,,,,,,,,,,,,,,,,,,,,,,,,,,,,,,,,,,,,,,,,,,,,,,,,,,,,,,,,,,,,,,,,,,,,,,,,,,,,,,,,,,,,,,,
0,83,83,19,1,,5789972670c76a00012433b3,62bbfb71dd33c6b4ecf35899,2022-06-29_09h12.58.739,Colour_Asymmetry_Pilot,2022.1.3,Win32,59.97001499,62bbe60bf3d75ef465d3e404,,,,,,,,,,,,,,,,,,,,,,,,,,,,,,,,,,,,,,,,,,,,,,,,,,,,,,,,,,,,,,,,,,,,,,,,,,,,,,,,,,,,,,,,,,,,,,,,,,,,,,,,,,,,,,,,,,,,,,,,,,,,,,,,,,,,,,,,,,,,,,,,,,,,,,,,,,,,,,
0,84,84,34,1,,5789972670c76a00012433b3,62bbfb71dd33c6b4ecf35899,2022-06-29_09h12.58.739,Colour_Asymmetry_Pilot,2022.1.3,Win32,59.97001499,62bbe60bf3d75ef465d3e404,,,,,,,,,,,,,,,,,,,,,,,,,,,,,,,,,,,,,,,,,,,,,,,,,,,,,,,,,,,,,,,,,,,,,,,,,,,,,,,,,,,,,,,,,,,,,,,,,,,,,,,,,,,,,,,,,,,,,,,,,,,,,,,,,,,,,,,,,,,,,,,,,,,,,,,,,,,,,,
0,85,85,47,1,,5789972670c76a00012433b3,62bbfb71dd33c6b4ecf35899,2022-06-29_09h12.58.739,Colour_Asymmetry_Pilot,2022.1.3,Win32,59.97001499,62bbe60bf3d75ef465d3e404,,,,,,,,,,,,,,,,,,,,,,,,,,,,,,,,,,,,,,,,,,,,,,,,,,,,,,,,,,,,,,,,,,,,,,,,,,,,,,,,,,,,,,,,,,,,,,,,,,,,,,,,,,,,,,,,,,,,,,,,,,,,,,,,,,,,,,,,,,,,,,,,,,,,,,,,,,,,,,
0,86,86,56,1,,5789972670c76a00012433b3,62bbfb71dd33c6b4ecf35899,2022-06-29_09h12.58.739,Colour_Asymmetry_Pilot,2022.1.3,Win32,59.97001499,62bbe60bf3d75ef465d3e404,,,,,,,,,,,,,,,,,,,,,,,,,,,,,,,,,,,,,,,,,,,,,,,,,,,,,,,,,,,,,,,,,,,,,,,,,,,,,,,,,,,,,,,,,,,,,,,,,,,,,,,,,,,,,,,,,,,,,,,,,,,,,,,,,,,,,,,,,,,,,,,,,,,,,,,,,,,,,,
0,87,87,44,1,,5789972670c76a00012433b3,62bbfb71dd33c6b4ecf35899,2022-06-29_09h12.58.739,Colour_Asymmetry_Pilot,2022.1.3,Win32,59.97001499,62bbe60bf3d75ef465d3e404,,,,,,,,,,,,,,,,,,,,,,,,,,,,,,,,,,,,,,,,,,,,,,,,,,,,,,,,,,,,,,,,,,,,,,,,,,,,,,,,,,,,,,,,,,,,,,,,,,,,,,,,,,,,,,,,,,,,,,,,,,,,,,,,,,,,,,,,,,,,,,,,,,,,,,,,,,,,,,
0,88,88,22,1,,5789972670c76a00012433b3,62bbfb71dd33c6b4ecf35899,2022-06-29_09h12.58.739,Colour_Asymmetry_Pilot,2022.1.3,Win32,59.97001499,62bbe60bf3d75ef465d3e404,,,,,,,,,,,,,,,,,,,,,,,,,,,,,,,,,,,,,,,,,,,,,,,,,,,,,,,,,,,,,,,,,,,,,,,,,,,,,,,,,,,,,,,,,,,,,,,,,,,,,,,,,,,,,,,,,,,,,,,,,,,,,,,,,,,,,,,,,,,,,,,,,,,,,,,,,,,,,,
0,89,89,2,1,,5789972670c76a00012433b3,62bbfb71dd33c6b4ecf35899,2022-06-29_09h12.58.739,Colour_Asymmetry_Pilot,2022.1.3,Win32,59.97001499,62bbe60bf3d75ef465d3e404,,,,,,,,,,,,,,,,,,,,,,,,,,,,,,,,,,,,,,,,,,,,,,,,,,,,,,,,,,,,,,,,,,,,,,,,,,,,,,,,,,,,,,,,,,,,,,,,,,,,,,,,,,,,,,,,,,,,,,,,,,,,,,,,,,,,,,,,,,,,,,,,,,,,,,,,,,,,,,
0,90,90,86,1,,5789972670c76a00012433b3,62bbfb71dd33c6b4ecf35899,2022-06-29_09h12.58.739,Colour_Asymmetry_Pilot,2022.1.3,Win32,59.97001499,62bbe60bf3d75ef465d3e404,,,,,,,,,,,,,,,,,,,,,,,,,,,,,,,,,,,,,,,,,,,,,,,,,,,,,,,,,,,,,,,,,,,,,,,,,,,,,,,,,,,,,,,,,,,,,,,,,,,,,,,,,,,,,,,,,,,,,,,,,,,,,,,,,,,,,,,,,,,,,,,,,,,,,,,,,,,,,,
0,91,91,49,1,,5789972670c76a00012433b3,62bbfb71dd33c6b4ecf35899,2022-06-29_09h12.58.739,Colour_Asymmetry_Pilot,2022.1.3,Win32,59.97001499,62bbe60bf3d75ef465d3e404,,,,,,,,,,,,,,,,,,,,,,,,,,,,,,,,,,,,,,,,,,,,,,,,,,,,,,,,,,,,,,,,,,,,,,,,,,,,,,,,,,,,,,,,,,,,,,,,,,,,,,,,,,,,,,,,,,,,,,,,,,,,,,,,,,,,,,,,,,,,,,,,,,,,,,,,,,,,,,
0,92,92,62,1,,5789972670c76a00012433b3,62bbfb71dd33c6b4ecf35899,2022-06-29_09h12.58.739,Colour_Asymmetry_Pilot,2022.1.3,Win32,59.97001499,62bbe60bf3d75ef465d3e404,,,,,,,,,,,,,,,,,,,,,,,,,,,,,,,,,,,,,,,,,,,,,,,,,,,,,,,,,,,,,,,,,,,,,,,,,,,,,,,,,,,,,,,,,,,,,,,,,,,,,,,,,,,,,,,,,,,,,,,,,,,,,,,,,,,,,,,,,,,,,,,,,,,,,,,,,,,,,,
,,,,,,5789972670c76a00012433b3,62bbfb71dd33c6b4ecf35899,2022-06-29_09h12.58.739,Colour_Asymmetry_Pilot,2022.1.3,Win32,59.97001499,62bbe60bf3d75ef465d3e404,0,0,0,109,1,threefour,,,,,,,,,,,,,,,,,,,,,,,,,,,,,,,,,,,,,,,,,,,,,,,,,,,,,,,,,,,,,,,,,,,,,,,,,,,,,,,,,,,,,,,,,,,,,,,,,,,,,,,,,,,,,,,,,,,,,,,,,,,,,,,,,,,,,,,,,,,,,,,,,,,,,,,,
,,,,,,5789972670c76a00012433b3,62bbfb71dd33c6b4ecf35899,2022-06-29_09h12.58.739,Colour_Asymmetry_Pilot,2022.1.3,Win32,59.97001499,62bbe60bf3d75ef465d3e404,0,1,1,34,1,twoone,,,,,,,,,,,,,,,,,,,,,,,,,,,,,,,,,,,,,,,,,,,,,,,,,,,,,,,,,,,,,,,,,,,,,,,,,,,,,,,,,,,,,,,,,,,,,,,,,,,,,,,,,,,,,,,,,,,,,,,,,,,,,,,,,,,,,,,,,,,,,,,,,,,,,,,,
,,,,,,5789972670c76a00012433b3,62bbfb71dd33c6b4ecf35899,2022-06-29_09h12.58.739,Colour_Asymmetry_Pilot,2022.1.3,Win32,59.97001499,62bbe60bf3d75ef465d3e404,0,2,2,39,1,fourthree,,,,,,,,,,,,,,,,,,,,,,,,,,,,,,,,,,,,,,,,,,,,,,,,,,,,,,,,,,,,,,,,,,,,,,,,,,,,,,,,,,,,,,,,,,,,,,,,,,,,,,,,,,,,,,,,,,,,,,,,,,,,,,,,,,,,,,,,,,,,,,,,,,,,,,,,
,,,,,,5789972670c76a00012433b3,62bbfb71dd33c6b4ecf35899,2022-06-29_09h12.58.739,Colour_Asymmetry_Pilot,2022.1.3,Win32,59.97001499,62bbe60bf3d75ef465d3e404,0,3,3,101,1,threefour,,,,,,,,,,,,,,,,,,,,,,,,,,,,,,,,,,,,,,,,,,,,,,,,,,,,,,,,,,,,,,,,,,,,,,,,,,,,,,,,,,,,,,,,,,,,,,,,,,,,,,,,,,,,,,,,,,,,,,,,,,,,,,,,,,,,,,,,,,,,,,,,,,,,,,,,
,,,,,,5789972670c76a00012433b3,62bbfb71dd33c6b4ecf35899,2022-06-29_09h12.58.739,Colour_Asymmetry_Pilot,2022.1.3,Win32,59.97001499,62bbe60bf3d75ef465d3e404,0,4,4,106,1,twoone,,,,,,,,,,,,,,,,,,,,,,,,,,,,,,,,,,,,,,,,,,,,,,,,,,,,,,,,,,,,,,,,,,,,,,,,,,,,,,,,,,,,,,,,,,,,,,,,,,,,,,,,,,,,,,,,,,,,,,,,,,,,,,,,,,,,,,,,,,,,,,,,,,,,,,,,
,,,,,,5789972670c76a00012433b3,62bbfb71dd33c6b4ecf35899,2022-06-29_09h12.58.739,Colour_Asymmetry_Pilot,2022.1.3,Win32,59.97001499,62bbe60bf3d75ef465d3e404,0,5,5,156,1,threeone,,,,,,,,,,,,,,,,,,,,,,,,,,,,,,,,,,,,,,,,,,,,,,,,,,,,,,,,,,,,,,,,,,,,,,,,,,,,,,,,,,,,,,,,,,,,,,,,,,,,,,,,,,,,,,,,,,,,,,,,,,,,,,,,,,,,,,,,,,,,,,,,,,,,,,,,
,,,,,,5789972670c76a00012433b3,62bbfb71dd33c6b4ecf35899,2022-06-29_09h12.58.739,Colour_Asymmetry_Pilot,2022.1.3,Win32,59.97001499,62bbe60bf3d75ef465d3e404,0,6,6,89,1,onethree,,,,,,,,,,,,,,,,,,,,,,,,,,,,,,,,,,,,,,,,,,,,,,,,,,,,,,,,,,,,,,,,,,,,,,,,,,,,,,,,,,,,,,,,,,,,,,,,,,,,,,,,,,,,,,,,,,,,,,,,,,,,,,,,,,,,,,,,,,,,,,,,,,,,,,,,
,,,,,,5789972670c76a00012433b3,62bbfb71dd33c6b4ecf35899,2022-06-29_09h12.58.739,Colour_Asymmetry_Pilot,2022.1.3,Win32,59.97001499,62bbe60bf3d75ef465d3e404,0,7,7,121,1,onethree,,,,,,,,,,,,,,,,,,,,,,,,,,,,,,,,,,,,,,,,,,,,,,,,,,,,,,,,,,,,,,,,,,,,,,,,,,,,,,,,,,,,,,,,,,,,,,,,,,,,,,,,,,,,,,,,,,,,,,,,,,,,,,,,,,,,,,,,,,,,,,,,,,,,,,,,
,,,,,,5789972670c76a00012433b3,62bbfb71dd33c6b4ecf35899,2022-06-29_09h12.58.739,Colour_Asymmetry_Pilot,2022.1.3,Win32,59.97001499,62bbe60bf3d75ef465d3e404,0,8,8,18,1,twoone,,,,,,,,,,,,,,,,,,,,,,,,,,,,,,,,,,,,,,,,,,,,,,,,,,,,,,,,,,,,,,,,,,,,,,,,,,,,,,,,,,,,,,,,,,,,,,,,,,,,,,,,,,,,,,,,,,,,,,,,,,,,,,,,,,,,,,,,,,,,,,,,,,,,,,,,
,,,,,,5789972670c76a00012433b3,62bbfb71dd33c6b4ecf35899,2022-06-29_09h12.58.739,Colour_Asymmetry_Pilot,2022.1.3,Win32,59.97001499,62bbe60bf3d75ef465d3e404,0,9,9,38,1,fourtwo,,,,,,,,,,,,,,,,,,,,,,,,,,,,,,,,,,,,,,,,,,,,,,,,,,,,,,,,,,,,,,,,,,,,,,,,,,,,,,,,,,,,,,,,,,,,,,,,,,,,,,,,,,,,,,,,,,,,,,,,,,,,,,,,,,,,,,,,,,,,,,,,,,,,,,,,
,,,,,,5789972670c76a00012433b3,62bbfb71dd33c6b4ecf35899,2022-06-29_09h12.58.739,Colour_Asymmetry_Pilot,2022.1.3,Win32,59.97001499,62bbe60bf3d75ef465d3e404,0,10,10,76,1,threeone,,,,,,,,,,,,,,,,,,,,,,,,,,,,,,,,,,,,,,,,,,,,,,,,,,,,,,,,,,,,,,,,,,,,,,,,,,,,,,,,,,,,,,,,,,,,,,,,,,,,,,,,,,,,,,,,,,,,,,,,,,,,,,,,,,,,,,,,,,,,,,,,,,,,,,,,
,,,,,,5789972670c76a00012433b3,62bbfb71dd33c6b4ecf35899,2022-06-29_09h12.58.739,Colour_Asymmetry_Pilot,2022.1.3,Win32,59.97001499,62bbe60bf3d75ef465d3e404,0,11,11,155,1,twofour,,,,,,,,,,,,,,,,,,,,,,,,,,,,,,,,,,,,,,,,,,,,,,,,,,,,,,,,,,,,,,,,,,,,,,,,,,,,,,,,,,,,,,,,,,,,,,,,,,,,,,,,,,,,,,,,,,,,,,,,,,,,,,,,,,,,,,,,,,,,,,,,,,,,,,,,
,,,,,,5789972670c76a00012433b3,62bbfb71dd33c6b4ecf35899,2022-06-29_09h12.58.739,Colour_Asymmetry_Pilot,2022.1.3,Win32,59.97001499,62bbe60bf3d75ef465d3e404,0,12,12,29,1,threefour,,,,,,,,,,,,,,,,,,,,,,,,,,,,,,,,,,,,,,,,,,,,,,,,,,,,,,,,,,,,,,,,,,,,,,,,,,,,,,,,,,,,,,,,,,,,,,,,,,,,,,,,,,,,,,,,,,,,,,,,,,,,,,,,,,,,,,,,,,,,,,,,,,,,,,,,
,,,,,,5789972670c76a00012433b3,62bbfb71dd33c6b4ecf35899,2022-06-29_09h12.58.739,Colour_Asymmetry_Pilot,2022.1.3,Win32,59.97001499,62bbe60bf3d75ef465d3e404,0,13,13,7,1,fourthree,,,,,,,,,,,,,,,,,,,,,,,,,,,,,,,,,,,,,,,,,,,,,,,,,,,,,,,,,,,,,,,,,,,,,,,,,,,,,,,,,,,,,,,,,,,,,,,,,,,,,,,,,,,,,,,,,,,,,,,,,,,,,,,,,,,,,,,,,,,,,,,,,,,,,,,,
,,,,,,5789972670c76a00012433b3,62bbfb71dd33c6b4ecf35899,2022-06-29_09h12.58.739,Colour_Asymmetry_Pilot,2022.1.3,Win32,59.97001499,62bbe60bf3d75ef465d3e404,0,14,14,78,1,fourtwo,,,,,,,,,,,,,,,,,,,,,,,,,,,,,,,,,,,,,,,,,,,,,,,,,,,,,,,,,,,,,,,,,,,,,,,,,,,,,,,,,,,,,,,,,,,,,,,,,,,,,,,,,,,,,,,,,,,,,,,,,,,,,,,,,,,,,,,,,,,,,,,,,,,,,,,,
,,,,,,5789972670c76a00012433b3,62bbfb71dd33c6b4ecf35899,2022-06-29_09h12.58.739,Colour_Asymmetry_Pilot,2022.1.3,Win32,59.97001499,62bbe60bf3d75ef465d3e404,0,15,15,92,1,threeone,,,,,,,,,,,,,,,,,,,,,,,,,,,,,,,,,,,,,,,,,,,,,,,,,,,,,,,,,,,,,,,,,,,,,,,,,,,,,,,,,,,,,,,,,,,,,,,,,,,,,,,,,,,,,,,,,,,,,,,,,,,,,,,,,,,,,,,,,,,,,,,,,,,,,,,,
,,,,,,5789972670c76a00012433b3,62bbfb71dd33c6b4ecf35899,2022-06-29_09h12.58.739,Colour_Asymmetry_Pilot,2022.1.3,Win32,59.97001499,62bbe60bf3d75ef465d3e404,0,16,16,61,1,threefour,,,,,,,,,,,,,,,,,,,,,,,,,,,,,,,,,,,,,,,,,,,,,,,,,,,,,,,,,,,,,,,,,,,,,,,,,,,,,,,,,,,,,,,,,,,,,,,,,,,,,,,,,,,,,,,,,,,,,,,,,,,,,,,,,,,,,,,,,,,,,,,,,,,,,,,,
,,,,,,5789972670c76a00012433b3,62bbfb71dd33c6b4ecf35899,2022-06-29_09h12.58.739,Colour_Asymmetry_Pilot,2022.1.3,Win32,59.97001499,62bbe60bf3d75ef465d3e404,0,17,17,67,1,twofour,,,,,,,,,,,,,,,,,,,,,,,,,,,,,,,,,,,,,,,,,,,,,,,,,,,,,,,,,,,,,,,,,,,,,,,,,,,,,,,,,,,,,,,,,,,,,,,,,,,,,,,,,,,,,,,,,,,,,,,,,,,,,,,,,,,,,,,,,,,,,,,,,,,,,,,,
,,,,,,5789972670c76a00012433b3,62bbfb71dd33c6b4ecf35899,2022-06-29_09h12.58.739,Colour_Asymmetry_Pilot,2022.1.3,Win32,59.97001499,62bbe60bf3d75ef465d3e404,0,18,18,90,1,twoone,,,,,,,,,,,,,,,,,,,,,,,,,,,,,,,,,,,,,,,,,,,,,,,,,,,,,,,,,,,,,,,,,,,,,,,,,,,,,,,,,,,,,,,,,,,,,,,,,,,,,,,,,,,,,,,,,,,,,,,,,,,,,,,,,,,,,,,,,,,,,,,,,,,,,,,,
,,,,,,5789972670c76a00012433b3,62bbfb71dd33c6b4ecf35899,2022-06-29_09h12.58.739,Colour_Asymmetry_Pilot,2022.1.3,Win32,59.97001499,62bbe60bf3d75ef465d3e404,0,19,19,11,1,twofour,,,,,,,,,,,,,,,,,,,,,,,,,,,,,,,,,,,,,,,,,,,,,,,,,,,,,,,,,,,,,,,,,,,,,,,,,,,,,,,,,,,,,,,,,,,,,,,,,,,,,,,,,,,,,,,,,,,,,,,,,,,,,,,,,,,,,,,,,,,,,,,,,,,,,,,,
,,,,,,5789972670c76a00012433b3,62bbfb71dd33c6b4ecf35899,2022-06-29_09h12.58.739,Colour_Asymmetry_Pilot,2022.1.3,Win32,59.97001499,62bbe60bf3d75ef465d3e404,0,20,20,111,1,fourthree,,,,,,,,,,,,,,,,,,,,,,,,,,,,,,,,,,,,,,,,,,,,,,,,,,,,,,,,,,,,,,,,,,,,,,,,,,,,,,,,,,,,,,,,,,,,,,,,,,,,,,,,,,,,,,,,,,,,,,,,,,,,,,,,,,,,,,,,,,,,,,,,,,,,,,,,
,,,,,,5789972670c76a00012433b3,62bbfb71dd33c6b4ecf35899,2022-06-29_09h12.58.739,Colour_Asymmetry_Pilot,2022.1.3,Win32,59.97001499,62bbe60bf3d75ef465d3e404,0,21,21,55,1,fourthree,,,,,,,,,,,,,,,,,,,,,,,,,,,,,,,,,,,,,,,,,,,,,,,,,,,,,,,,,,,,,,,,,,,,,,,,,,,,,,,,,,,,,,,,,,,,,,,,,,,,,,,,,,,,,,,,,,,,,,,,,,,,,,,,,,,,,,,,,,,,,,,,,,,,,,,,
,,,,,,5789972670c76a00012433b3,62bbfb71dd33c6b4ecf35899,2022-06-29_09h12.58.739,Colour_Asymmetry_Pilot,2022.1.3,Win32,59.97001499,62bbe60bf3d75ef465d3e404,0,22,22,20,1,threeone,,,,,,,,,,,,,,,,,,,,,,,,,,,,,,,,,,,,,,,,,,,,,,,,,,,,,,,,,,,,,,,,,,,,,,,,,,,,,,,,,,,,,,,,,,,,,,,,,,,,,,,,,,,,,,,,,,,,,,,,,,,,,,,,,,,,,,,,,,,,,,,,,,,,,,,,
,,,,,,5789972670c76a00012433b3,62bbfb71dd33c6b4ecf35899,2022-06-29_09h12.58.739,Colour_Asymmetry_Pilot,2022.1.3,Win32,59.97001499,62bbe60bf3d75ef465d3e404,0,23,23,114,1,twoone,,,,,,,,,,,,,,,,,,,,,,,,,,,,,,,,,,,,,,,,,,,,,,,,,,,,,,,,,,,,,,,,,,,,,,,,,,,,,,,,,,,,,,,,,,,,,,,,,,,,,,,,,,,,,,,,,,,,,,,,,,,,,,,,,,,,,,,,,,,,,,,,,,,,,,,,
,,,,,,5789972670c76a00012433b3,62bbfb71dd33c6b4ecf35899,2022-06-29_09h12.58.739,Colour_Asymmetry_Pilot,2022.1.3,Win32,59.97001499,62bbe60bf3d75ef465d3e404,0,24,24,100,1,threeone,,,,,,,,,,,,,,,,,,,,,,,,,,,,,,,,,,,,,,,,,,,,,,,,,,,,,,,,,,,,,,,,,,,,,,,,,,,,,,,,,,,,,,,,,,,,,,,,,,,,,,,,,,,,,,,,,,,,,,,,,,,,,,,,,,,,,,,,,,,,,,,,,,,,,,,,
,,,,,,5789972670c76a00012433b3,62bbfb71dd33c6b4ecf35899,2022-06-29_09h12.58.739,Colour_Asymmetry_Pilot,2022.1.3,Win32,59.97001499,62bbe60bf3d75ef465d3e404,0,25,25,133,1,threefour,,,,,,,,,,,,,,,,,,,,,,,,,,,,,,,,,,,,,,,,,,,,,,,,,,,,,,,,,,,,,,,,,,,,,,,,,,,,,,,,,,,,,,,,,,,,,,,,,,,,,,,,,,,,,,,,,,,,,,,,,,,,,,,,,,,,,,,,,,,,,,,,,,,,,,,,
,,,,,,5789972670c76a00012433b3,62bbfb71dd33c6b4ecf35899,2022-06-29_09h12.58.739,Colour_Asymmetry_Pilot,2022.1.3,Win32,59.97001499,62bbe60bf3d75ef465d3e404,0,26,26,93,1,threefour,,,,,,,,,,,,,,,,,,,,,,,,,,,,,,,,,,,,,,,,,,,,,,,,,,,,,,,,,,,,,,,,,,,,,,,,,,,,,,,,,,,,,,,,,,,,,,,,,,,,,,,,,,,,,,,,,,,,,,,,,,,,,,,,,,,,,,,,,,,,,,,,,,,,,,,,
,,,,,,5789972670c76a00012433b3,62bbfb71dd33c6b4ecf35899,2022-06-29_09h12.58.739,Colour_Asymmetry_Pilot,2022.1.3,Win32,59.97001499,62bbe60bf3d75ef465d3e404,0,27,27,66,1,twoone,,,,,,,,,,,,,,,,,,,,,,,,,,,,,,,,,,,,,,,,,,,,,,,,,,,,,,,,,,,,,,,,,,,,,,,,,,,,,,,,,,,,,,,,,,,,,,,,,,,,,,,,,,,,,,,,,,,,,,,,,,,,,,,,,,,,,,,,,,,,,,,,,,,,,,,,
,,,,,,5789972670c76a00012433b3,62bbfb71dd33c6b4ecf35899,2022-06-29_09h12.58.739,Colour_Asymmetry_Pilot,2022.1.3,Win32,59.97001499,62bbe60bf3d75ef465d3e404,0,28,28,150,1,fourtwo,,,,,,,,,,,,,,,,,,,,,,,,,,,,,,,,,,,,,,,,,,,,,,,,,,,,,,,,,,,,,,,,,,,,,,,,,,,,,,,,,,,,,,,,,,,,,,,,,,,,,,,,,,,,,,,,,,,,,,,,,,,,,,,,,,,,,,,,,,,,,,,,,,,,,,,,
,,,,,,5789972670c76a00012433b3,62bbfb71dd33c6b4ecf35899,2022-06-29_09h12.58.739,Colour_Asymmetry_Pilot,2022.1.3,Win32,59.97001499,62bbe60bf3d75ef465d3e404,0,29,29,123,1,twofour,,,,,,,,,,,,,,,,,,,,,,,,,,,,,,,,,,,,,,,,,,,,,,,,,,,,,,,,,,,,,,,,,,,,,,,,,,,,,,,,,,,,,,,,,,,,,,,,,,,,,,,,,,,,,,,,,,,,,,,,,,,,,,,,,,,,,,,,,,,,,,,,,,,,,,,,
,,,,,,5789972670c76a00012433b3,62bbfb71dd33c6b4ecf35899,2022-06-29_09h12.58.739,Colour_Asymmetry_Pilot,2022.1.3,Win32,59.97001499,62bbe60bf3d75ef465d3e404,0,30,30,157,1,threefour,,,,,,,,,,,,,,,,,,,,,,,,,,,,,,,,,,,,,,,,,,,,,,,,,,,,,,,,,,,,,,,,,,,,,,,,,,,,,,,,,,,,,,,,,,,,,,,,,,,,,,,,,,,,,,,,,,,,,,,,,,,,,,,,,,,,,,,,,,,,,,,,,,,,,,,,
,,,,,,5789972670c76a00012433b3,62bbfb71dd33c6b4ecf35899,2022-06-29_09h12.58.739,Colour_Asymmetry_Pilot,2022.1.3,Win32,59.97001499,62bbe60bf3d75ef465d3e404,0,31,31,21,1,threefour,,,,,,,,,,,,,,,,,,,,,,,,,,,,,,,,,,,,,,,,,,,,,,,,,,,,,,,,,,,,,,,,,,,,,,,,,,,,,,,,,,,,,,,,,,,,,,,,,,,,,,,,,,,,,,,,,,,,,,,,,,,,,,,,,,,,,,,,,,,,,,,,,,,,,,,,
,,,,,,5789972670c76a00012433b3,62bbfb71dd33c6b4ecf35899,2022-06-29_09h12.58.739,Colour_Asymmetry_Pilot,2022.1.3,Win32,59.97001499,62bbe60bf3d75ef465d3e404,0,32,32,148,1,threeone,,,,,,,,,,,,,,,,,,,,,,,,,,,,,,,,,,,,,,,,,,,,,,,,,,,,,,,,,,,,,,,,,,,,,,,,,,,,,,,,,,,,,,,,,,,,,,,,,,,,,,,,,,,,,,,,,,,,,,,,,,,,,,,,,,,,,,,,,,,,,,,,,,,,,,,,
,,,,,,5789972670c76a00012433b3,62bbfb71dd33c6b4ecf35899,2022-06-29_09h12.58.739,Colour_Asymmetry_Pilot,2022.1.3,Win32,59.97001499,62bbe60bf3d75ef465d3e404,0,33,33,115,1,twofour,,,,,,,,,,,,,,,,,,,,,,,,,,,,,,,,,,,,,,,,,,,,,,,,,,,,,,,,,,,,,,,,,,,,,,,,,,,,,,,,,,,,,,,,,,,,,,,,,,,,,,,,,,,,,,,,,,,,,,,,,,,,,,,,,,,,,,,,,,,,,,,,,,,,,,,,
,,,,,,5789972670c76a00012433b3,62bbfb71dd33c6b4ecf35899,2022-06-29_09h12.58.739,Colour_Asymmetry_Pilot,2022.1.3,Win32,59.97001499,62bbe60bf3d75ef465d3e404,0,34,34,140,1,threeone,,,,,,,,,,,,,,,,,,,,,,,,,,,,,,,,,,,,,,,,,,,,,,,,,,,,,,,,,,,,,,,,,,,,,,,,,,,,,,,,,,,,,,,,,,,,,,,,,,,,,,,,,,,,,,,,,,,,,,,,,,,,,,,,,,,,,,,,,,,,,,,,,,,,,,,,
,,,,,,5789972670c76a00012433b3,62bbfb71dd33c6b4ecf35899,2022-06-29_09h12.58.739,Colour_Asymmetry_Pilot,2022.1.3,Win32,59.97001499,62bbe60bf3d75ef465d3e404,0,35,35,13,1,threefour,,,,,,,,,,,,,,,,,,,,,,,,,,,,,,,,,,,,,,,,,,,,,,,,,,,,,,,,,,,,,,,,,,,,,,,,,,,,,,,,,,,,,,,,,,,,,,,,,,,,,,,,,,,,,,,,,,,,,,,,,,,,,,,,,,,,,,,,,,,,,,,,,,,,,,,,
,,,,,,5789972670c76a00012433b3,62bbfb71dd33c6b4ecf35899,2022-06-29_09h12.58.739,Colour_Asymmetry_Pilot,2022.1.3,Win32,59.97001499,62bbe60bf3d75ef465d3e404,0,36,36,139,1,twofour,,,,,,,,,,,,,,,,,,,,,,,,,,,,,,,,,,,,,,,,,,,,,,,,,,,,,,,,,,,,,,,,,,,,,,,,,,,,,,,,,,,,,,,,,,,,,,,,,,,,,,,,,,,,,,,,,,,,,,,,,,,,,,,,,,,,,,,,,,,,,,,,,,,,,,,,
,,,,,,5789972670c76a00012433b3,62bbfb71dd33c6b4ecf35899,2022-06-29_09h12.58.739,Colour_Asymmetry_Pilot,2022.1.3,Win32,59.97001499,62bbe60bf3d75ef465d3e404,0,37,37,104,1,onetwo,,,,,,,,,,,,,,,,,,,,,,,,,,,,,,,,,,,,,,,,,,,,,,,,,,,,,,,,,,,,,,,,,,,,,,,,,,,,,,,,,,,,,,,,,,,,,,,,,,,,,,,,,,,,,,,,,,,,,,,,,,,,,,,,,,,,,,,,,,,,,,,,,,,,,,,,
,,,,,,5789972670c76a00012433b3,62bbfb71dd33c6b4ecf35899,2022-06-29_09h12.58.739,Colour_Asymmetry_Pilot,2022.1.3,Win32,59.97001499,62bbe60bf3d75ef465d3e404,0,38,38,84,1,threeone,,,,,,,,,,,,,,,,,,,,,,,,,,,,,,,,,,,,,,,,,,,,,,,,,,,,,,,,,,,,,,,,,,,,,,,,,,,,,,,,,,,,,,,,,,,,,,,,,,,,,,,,,,,,,,,,,,,,,,,,,,,,,,,,,,,,,,,,,,,,,,,,,,,,,,,,
,,,,,,5789972670c76a00012433b3,62bbfb71dd33c6b4ecf35899,2022-06-29_09h12.58.739,Colour_Asymmetry_Pilot,2022.1.3,Win32,59.97001499,62bbe60bf3d75ef465d3e404,0,39,39,112,1,onetwo,,,,,,,,,,,,,,,,,,,,,,,,,,,,,,,,,,,,,,,,,,,,,,,,,,,,,,,,,,,,,,,,,,,,,,,,,,,,,,,,,,,,,,,,,,,,,,,,,,,,,,,,,,,,,,,,,,,,,,,,,,,,,,,,,,,,,,,,,,,,,,,,,,,,,,,,
,,,,,,5789972670c76a00012433b3,62bbfb71dd33c6b4ecf35899,2022-06-29_09h12.58.739,Colour_Asymmetry_Pilot,2022.1.3,Win32,59.97001499,62bbe60bf3d75ef465d3e404,0,40,40,141,1,threefour,,,,,,,,,,,,,,,,,,,,,,,,,,,,,,,,,,,,,,,,,,,,,,,,,,,,,,,,,,,,,,,,,,,,,,,,,,,,,,,,,,,,,,,,,,,,,,,,,,,,,,,,,,,,,,,,,,,,,,,,,,,,,,,,,,,,,,,,,,,,,,,,,,,,,,,,
,,,,,,5789972670c76a00012433b3,62bbfb71dd33c6b4ecf35899,2022-06-29_09h12.58.739,Colour_Asymmetry_Pilot,2022.1.3,Win32,59.97001499,62bbe60bf3d75ef465d3e404,0,41,41,73,1,onethree,,,,,,,,,,,,,,,,,,,,,,,,,,,,,,,,,,,,,,,,,,,,,,,,,,,,,,,,,,,,,,,,,,,,,,,,,,,,,,,,,,,,,,,,,,,,,,,,,,,,,,,,,,,,,,,,,,,,,,,,,,,,,,,,,,,,,,,,,,,,,,,,,,,,,,,,
,,,,,,5789972670c76a00012433b3,62bbfb71dd33c6b4ecf35899,2022-06-29_09h12.58.739,Colour_Asymmetry_Pilot,2022.1.3,Win32,59.97001499,62bbe60bf3d75ef465d3e404,0,42,42,91,1,twofour,,,,,,,,,,,,,,,,,,,,,,,,,,,,,,,,,,,,,,,,,,,,,,,,,,,,,,,,,,,,,,,,,,,,,,,,,,,,,,,,,,,,,,,,,,,,,,,,,,,,,,,,,,,,,,,,,,,,,,,,,,,,,,,,,,,,,,,,,,,,,,,,,,,,,,,,
,,,,,,5789972670c76a00012433b3,62bbfb71dd33c6b4ecf35899,2022-06-29_09h12.58.739,Colour_Asymmetry_Pilot,2022.1.3,Win32,59.97001499,62bbe60bf3d75ef465d3e404,0,43,43,65,1,onethree,,,,,,,,,,,,,,,,,,,,,,,,,,,,,,,,,,,,,,,,,,,,,,,,,,,,,,,,,,,,,,,,,,,,,,,,,,,,,,,,,,,,,,,,,,,,,,,,,,,,,,,,,,,,,,,,,,,,,,,,,,,,,,,,,,,,,,,,,,,,,,,,,,,,,,,,
,,,,,,5789972670c76a00012433b3,62bbfb71dd33c6b4ecf35899,2022-06-29_09h12.58.739,Colour_Asymmetry_Pilot,2022.1.3,Win32,59.97001499,62bbe60bf3d75ef465d3e404,0,44,44,23,1,fourthree,,,,,,,,,,,,,,,,,,,,,,,,,,,,,,,,,,,,,,,,,,,,,,,,,,,,,,,,,,,,,,,,,,,,,,,,,,,,,,,,,,,,,,,,,,,,,,,,,,,,,,,,,,,,,,,,,,,,,,,,,,,,,,,,,,,,,,,,,,,,,,,,,,,,,,,,
,,,,,,5789972670c76a00012433b3,62bbfb71dd33c6b4ecf35899,2022-06-29_09h12.58.739,Colour_Asymmetry_Pilot,2022.1.3,Win32,59.97001499,62bbe60bf3d75ef465d3e404,0,45,45,143,1,fourthree,,,,,,,,,,,,,,,,,,,,,,,,,,,,,,,,,,,,,,,,,,,,,,,,,,,,,,,,,,,,,,,,,,,,,,,,,,,,,,,,,,,,,,,,,,,,,,,,,,,,,,,,,,,,,,,,,,,,,,,,,,,,,,,,,,,,,,,,,,,,,,,,,,,,,,,,
,,,,,,5789972670c76a00012433b3,62bbfb71dd33c6b4ecf35899,2022-06-29_09h12.58.739,Colour_Asymmetry_Pilot,2022.1.3,Win32,59.97001499,62bbe60bf3d75ef465d3e404,0,46,46,15,1,fourthree,,,,,,,,,,,,,,,,,,,,,,,,,,,,,,,,,,,,,,,,,,,,,,,,,,,,,,,,,,,,,,,,,,,,,,,,,,,,,,,,,,,,,,,,,,,,,,,,,,,,,,,,,,,,,,,,,,,,,,,,,,,,,,,,,,,,,,,,,,,,,,,,,,,,,,,,
,,,,,,5789972670c76a00012433b3,62bbfb71dd33c6b4ecf35899,2022-06-29_09h12.58.739,Colour_Asymmetry_Pilot,2022.1.3,Win32,59.97001499,62bbe60bf3d75ef465d3e404,0,47,47,126,1,fourtwo,,,,,,,,,,,,,,,,,,,,,,,,,,,,,,,,,,,,,,,,,,,,,,,,,,,,,,,,,,,,,,,,,,,,,,,,,,,,,,,,,,,,,,,,,,,,,,,,,,,,,,,,,,,,,,,,,,,,,,,,,,,,,,,,,,,,,,,,,,,,,,,,,,,,,,,,
,,,,,,5789972670c76a00012433b3,62bbfb71dd33c6b4ecf35899,2022-06-29_09h12.58.739,Colour_Asymmetry_Pilot,2022.1.3,Win32,59.97001499,62bbe60bf3d75ef465d3e404,0,48,48,2,1,twoone,,,,,,,,,,,,,,,,,,,,,,,,,,,,,,,,,,,,,,,,,,,,,,,,,,,,,,,,,,,,,,,,,,,,,,,,,,,,,,,,,,,,,,,,,,,,,,,,,,,,,,,,,,,,,,,,,,,,,,,,,,,,,,,,,,,,,,,,,,,,,,,,,,,,,,,,
,,,,,,5789972670c76a00012433b3,62bbfb71dd33c6b4ecf35899,2022-06-29_09h12.58.739,Colour_Asymmetry_Pilot,2022.1.3,Win32,59.97001499,62bbe60bf3d75ef465d3e404,0,49,49,62,1,fourtwo,,,,,,,,,,,,,,,,,,,,,,,,,,,,,,,,,,,,,,,,,,,,,,,,,,,,,,,,,,,,,,,,,,,,,,,,,,,,,,,,,,,,,,,,,,,,,,,,,,,,,,,,,,,,,,,,,,,,,,,,,,,,,,,,,,,,,,,,,,,,,,,,,,,,,,,,
,,,,,,5789972670c76a00012433b3,62bbfb71dd33c6b4ecf35899,2022-06-29_09h12.58.739,Colour_Asymmetry_Pilot,2022.1.3,Win32,59.97001499,62bbe60bf3d75ef465d3e404,0,50,50,4,1,threeone,,,,,,,,,,,,,,,,,,,,,,,,,,,,,,,,,,,,,,,,,,,,,,,,,,,,,,,,,,,,,,,,,,,,,,,,,,,,,,,,,,,,,,,,,,,,,,,,,,,,,,,,,,,,,,,,,,,,,,,,,,,,,,,,,,,,,,,,,,,,,,,,,,,,,,,,
,,,,,,5789972670c76a00012433b3,62bbfb71dd33c6b4ecf35899,2022-06-29_09h12.58.739,Colour_Asymmetry_Pilot,2022.1.3,Win32,59.97001499,62bbe60bf3d75ef465d3e404,0,51,51,77,1,threefour,,,,,,,,,,,,,,,,,,,,,,,,,,,,,,,,,,,,,,,,,,,,,,,,,,,,,,,,,,,,,,,,,,,,,,,,,,,,,,,,,,,,,,,,,,,,,,,,,,,,,,,,,,,,,,,,,,,,,,,,,,,,,,,,,,,,,,,,,,,,,,,,,,,,,,,,
,,,,,,5789972670c76a00012433b3,62bbfb71dd33c6b4ecf35899,2022-06-29_09h12.58.739,Colour_Asymmetry_Pilot,2022.1.3,Win32,59.97001499,62bbe60bf3d75ef465d3e404,0,52,52,135,1,fourthree,,,,,,,,,,,,,,,,,,,,,,,,,,,,,,,,,,,,,,,,,,,,,,,,,,,,,,,,,,,,,,,,,,,,,,,,,,,,,,,,,,,,,,,,,,,,,,,,,,,,,,,,,,,,,,,,,,,,,,,,,,,,,,,,,,,,,,,,,,,,,,,,,,,,,,,,
,,,,,,5789972670c76a00012433b3,62bbfb71dd33c6b4ecf35899,2022-06-29_09h12.58.739,Colour_Asymmetry_Pilot,2022.1.3,Win32,59.97001499,62bbe60bf3d75ef465d3e404,0,53,53,94,1,fourtwo,,,,,,,,,,,,,,,,,,,,,,,,,,,,,,,,,,,,,,,,,,,,,,,,,,,,,,,,,,,,,,,,,,,,,,,,,,,,,,,,,,,,,,,,,,,,,,,,,,,,,,,,,,,,,,,,,,,,,,,,,,,,,,,,,,,,,,,,,,,,,,,,,,,,,,,,
,,,,,,5789972670c76a00012433b3,62bbfb71dd33c6b4ecf35899,2022-06-29_09h12.58.739,Colour_Asymmetry_Pilot,2022.1.3,Win32,59.97001499,62bbe60bf3d75ef465d3e404,0,54,54,70,1,fourtwo,,,,,,,,,,,,,,,,,,,,,,,,,,,,,,,,,,,,,,,,,,,,,,,,,,,,,,,,,,,,,,,,,,,,,,,,,,,,,,,,,,,,,,,,,,,,,,,,,,,,,,,,,,,,,,,,,,,,,,,,,,,,,,,,,,,,,,,,,,,,,,,,,,,,,,,,
,,,,,,5789972670c76a00012433b3,62bbfb71dd33c6b4ecf35899,2022-06-29_09h12.58.739,Colour_Asymmetry_Pilot,2022.1.3,Win32,59.97001499,62bbe60bf3d75ef465d3e404,0,55,55,14,1,fourtwo,,,,,,,,,,,,,,,,,,,,,,,,,,,,,,,,,,,,,,,,,,,,,,,,,,,,,,,,,,,,,,,,,,,,,,,,,,,,,,,,,,,,,,,,,,,,,,,,,,,,,,,,,,,,,,,,,,,,,,,,,,,,,,,,,,,,,,,,,,,,,,,,,,,,,,,,
,,,,,,5789972670c76a00012433b3,62bbfb71dd33c6b4ecf35899,2022-06-29_09h12.58.739,Colour_Asymmetry_Pilot,2022.1.3,Win32,59.97001499,62bbe60bf3d75ef465d3e404,0,56,56,128,1,onetwo,,,,,,,,,,,,,,,,,,,,,,,,,,,,,,,,,,,,,,,,,,,,,,,,,,,,,,,,,,,,,,,,,,,,,,,,,,,,,,,,,,,,,,,,,,,,,,,,,,,,,,,,,,,,,,,,,,,,,,,,,,,,,,,,,,,,,,,,,,,,,,,,,,,,,,,,
,,,,,,5789972670c76a00012433b3,62bbfb71dd33c6b4ecf35899,2022-06-29_09h12.58.739,Colour_Asymmetry_Pilot,2022.1.3,Win32,59.97001499,62bbe60bf3d75ef465d3e404,0,57,57,154,1,twoone,,,,,,,,,,,,,,,,,,,,,,,,,,,,,,,,,,,,,,,,,,,,,,,,,,,,,,,,,,,,,,,,,,,,,,,,,,,,,,,,,,,,,,,,,,,,,,,,,,,,,,,,,,,,,,,,,,,,,,,,,,,,,,,,,,,,,,,,,,,,,,,,,,,,,,,,
,,,,,,5789972670c76a00012433b3,62bbfb71dd33c6b4ecf35899,2022-06-29_09h12.58.739,Colour_Asymmetry_Pilot,2022.1.3,Win32,59.97001499,62bbe60bf3d75ef465d3e404,0,58,58,50,1,twoone,,,,,,,,,,,,,,,,,,,,,,,,,,,,,,,,,,,,,,,,,,,,,,,,,,,,,,,,,,,,,,,,,,,,,,,,,,,,,,,,,,,,,,,,,,,,,,,,,,,,,,,,,,,,,,,,,,,,,,,,,,,,,,,,,,,,,,,,,,,,,,,,,,,,,,,,
,,,,,,5789972670c76a00012433b3,62bbfb71dd33c6b4ecf35899,2022-06-29_09h12.58.739,Colour_Asymmetry_Pilot,2022.1.3,Win32,59.97001499,62bbe60bf3d75ef465d3e404,0,59,59,87,1,fourthree,,,,,,,,,,,,,,,,,,,,,,,,,,,,,,,,,,,,,,,,,,,,,,,,,,,,,,,,,,,,,,,,,,,,,,,,,,,,,,,,,,,,,,,,,,,,,,,,,,,,,,,,,,,,,,,,,,,,,,,,,,,,,,,,,,,,,,,,,,,,,,,,,,,,,,,,
,,,,,,5789972670c76a00012433b3,62bbfb71dd33c6b4ecf35899,2022-06-29_09h12.58.739,Colour_Asymmetry_Pilot,2022.1.3,Win32,59.97001499,62bbe60bf3d75ef465d3e404,0,60,60,75,1,twofour,,,,,,,,,,,,,,,,,,,,,,,,,,,,,,,,,,,,,,,,,,,,,,,,,,,,,,,,,,,,,,,,,,,,,,,,,,,,,,,,,,,,,,,,,,,,,,,,,,,,,,,,,,,,,,,,,,,,,,,,,,,,,,,,,,,,,,,,,,,,,,,,,,,,,,,,
,,,,,,5789972670c76a00012433b3,62bbfb71dd33c6b4ecf35899,2022-06-29_09h12.58.739,Colour_Asymmetry_Pilot,2022.1.3,Win32,59.97001499,62bbe60bf3d75ef465d3e404,0,61,61,98,1,twoone,,,,,,,,,,,,,,,,,,,,,,,,,,,,,,,,,,,,,,,,,,,,,,,,,,,,,,,,,,,,,,,,,,,,,,,,,,,,,,,,,,,,,,,,,,,,,,,,,,,,,,,,,,,,,,,,,,,,,,,,,,,,,,,,,,,,,,,,,,,,,,,,,,,,,,,,
,,,,,,5789972670c76a00012433b3,62bbfb71dd33c6b4ecf35899,2022-06-29_09h12.58.739,Colour_Asymmetry_Pilot,2022.1.3,Win32,59.97001499,62bbe60bf3d75ef465d3e404,0,62,62,82,1,twoone,,,,,,,,,,,,,,,,,,,,,,,,,,,,,,,,,,,,,,,,,,,,,,,,,,,,,,,,,,,,,,,,,,,,,,,,,,,,,,,,,,,,,,,,,,,,,,,,,,,,,,,,,,,,,,,,,,,,,,,,,,,,,,,,,,,,,,,,,,,,,,,,,,,,,,,,
,,,,,,5789972670c76a00012433b3,62bbfb71dd33c6b4ecf35899,2022-06-29_09h12.58.739,Colour_Asymmetry_Pilot,2022.1.3,Win32,59.97001499,62bbe60bf3d75ef465d3e404,0,63,63,1,1,onethree,,,,,,,,,,,,,,,,,,,,,,,,,,,,,,,,,,,,,,,,,,,,,,,,,,,,,,,,,,,,,,,,,,,,,,,,,,,,,,,,,,,,,,,,,,,,,,,,,,,,,,,,,,,,,,,,,,,,,,,,,,,,,,,,,,,,,,,,,,,,,,,,,,,,,,,,
,,,,,,5789972670c76a00012433b3,62bbfb71dd33c6b4ecf35899,2022-06-29_09h12.58.739,Colour_Asymmetry_Pilot,2022.1.3,Win32,59.97001499,62bbe60bf3d75ef465d3e404,0,64,64,49,1,onethree,,,,,,,,,,,,,,,,,,,,,,,,,,,,,,,,,,,,,,,,,,,,,,,,,,,,,,,,,,,,,,,,,,,,,,,,,,,,,,,,,,,,,,,,,,,,,,,,,,,,,,,,,,,,,,,,,,,,,,,,,,,,,,,,,,,,,,,,,,,,,,,,,,,,,,,,
,,,,,,5789972670c76a00012433b3,62bbfb71dd33c6b4ecf35899,2022-06-29_09h12.58.739,Colour_Asymmetry_Pilot,2022.1.3,Win32,59.97001499,62bbe60bf3d75ef465d3e404,0,65,65,74,1,twoone,,,,,,,,,,,,,,,,,,,,,,,,,,,,,,,,,,,,,,,,,,,,,,,,,,,,,,,,,,,,,,,,,,,,,,,,,,,,,,,,,,,,,,,,,,,,,,,,,,,,,,,,,,,,,,,,,,,,,,,,,,,,,,,,,,,,,,,,,,,,,,,,,,,,,,,,
,,,,,,5789972670c76a00012433b3,62bbfb71dd33c6b4ecf35899,2022-06-29_09h12.58.739,Colour_Asymmetry_Pilot,2022.1.3,Win32,59.97001499,62bbe60bf3d75ef465d3e404,0,66,66,54,1,fourtwo,,,,,,,,,,,,,,,,,,,,,,,,,,,,,,,,,,,,,,,,,,,,,,,,,,,,,,,,,,,,,,,,,,,,,,,,,,,,,,,,,,,,,,,,,,,,,,,,,,,,,,,,,,,,,,,,,,,,,,,,,,,,,,,,,,,,,,,,,,,,,,,,,,,,,,,,
,,,,,,5789972670c76a00012433b3,62bbfb71dd33c6b4ecf35899,2022-06-29_09h12.58.739,Colour_Asymmetry_Pilot,2022.1.3,Win32,59.97001499,62bbe60bf3d75ef465d3e404,0,67,67,47,1,fourthree,,,,,,,,,,,,,,,,,,,,,,,,,,,,,,,,,,,,,,,,,,,,,,,,,,,,,,,,,,,,,,,,,,,,,,,,,,,,,,,,,,,,,,,,,,,,,,,,,,,,,,,,,,,,,,,,,,,,,,,,,,,,,,,,,,,,,,,,,,,,,,,,,,,,,,,,
,,,,,,5789972670c76a00012433b3,62bbfb71dd33c6b4ecf35899,2022-06-29_09h12.58.739,Colour_Asymmetry_Pilot,2022.1.3,Win32,59.97001499,62bbe60bf3d75ef465d3e404,0,68,68,110,1,fourtwo,,,,,,,,,,,,,,,,,,,,,,,,,,,,,,,,,,,,,,,,,,,,,,,,,,,,,,,,,,,,,,,,,,,,,,,,,,,,,,,,,,,,,,,,,,,,,,,,,,,,,,,,,,,,,,,,,,,,,,,,,,,,,,,,,,,,,,,,,,,,,,,,,,,,,,,,
,,,,,,5789972670c76a00012433b3,62bbfb71dd33c6b4ecf35899,2022-06-29_09h12.58.739,Colour_Asymmetry_Pilot,2022.1.3,Win32,59.97001499,62bbe60bf3d75ef465d3e404,0,69,69,159,1,fourthree,,,,,,,,,,,,,,,,,,,,,,,,,,,,,,,,,,,,,,,,,,,,,,,,,,,,,,,,,,,,,,,,,,,,,,,,,,,,,,,,,,,,,,,,,,,,,,,,,,,,,,,,,,,,,,,,,,,,,,,,,,,,,,,,,,,,,,,,,,,,,,,,,,,,,,,,
,,,,,,5789972670c76a00012433b3,62bbfb71dd33c6b4ecf35899,2022-06-29_09h12.58.739,Colour_Asymmetry_Pilot,2022.1.3,Win32,59.97001499,62bbe60bf3d75ef465d3e404,0,70,70,161,1,onethree,,,,,,,,,,,,,,,,,,,,,,,,,,,,,,,,,,,,,,,,,,,,,,,,,,,,,,,,,,,,,,,,,,,,,,,,,,,,,,,,,,,,,,,,,,,,,,,,,,,,,,,,,,,,,,,,,,,,,,,,,,,,,,,,,,,,,,,,,,,,,,,,,,,,,,,,
,,,,,,5789972670c76a00012433b3,62bbfb71dd33c6b4ecf35899,2022-06-29_09h12.58.739,Colour_Asymmetry_Pilot,2022.1.3,Win32,59.97001499,62bbe60bf3d75ef465d3e404,0,71,71,145,1,onethree,,,,,,,,,,,,,,,,,,,,,,,,,,,,,,,,,,,,,,,,,,,,,,,,,,,,,,,,,,,,,,,,,,,,,,,,,,,,,,,,,,,,,,,,,,,,,,,,,,,,,,,,,,,,,,,,,,,,,,,,,,,,,,,,,,,,,,,,,,,,,,,,,,,,,,,,
,,,,,,5789972670c76a00012433b3,62bbfb71dd33c6b4ecf35899,2022-06-29_09h12.58.739,Colour_Asymmetry_Pilot,2022.1.3,Win32,59.97001499,62bbe60bf3d75ef465d3e404,0,72,72,122,1,twoone,,,,,,,,,,,,,,,,,,,,,,,,,,,,,,,,,,,,,,,,,,,,,,,,,,,,,,,,,,,,,,,,,,,,,,,,,,,,,,,,,,,,,,,,,,,,,,,,,,,,,,,,,,,,,,,,,,,,,,,,,,,,,,,,,,,,,,,,,,,,,,,,,,,,,,,,
,,,,,,5789972670c76a00012433b3,62bbfb71dd33c6b4ecf35899,2022-06-29_09h12.58.739,Colour_Asymmetry_Pilot,2022.1.3,Win32,59.97001499,62bbe60bf3d75ef465d3e404,0,73,73,35,1,twofour,,,,,,,,,,,,,,,,,,,,,,,,,,,,,,,,,,,,,,,,,,,,,,,,,,,,,,,,,,,,,,,,,,,,,,,,,,,,,,,,,,,,,,,,,,,,,,,,,,,,,,,,,,,,,,,,,,,,,,,,,,,,,,,,,,,,,,,,,,,,,,,,,,,,,,,,
,,,,,,5789972670c76a00012433b3,62bbfb71dd33c6b4ecf35899,2022-06-29_09h12.58.739,Colour_Asymmetry_Pilot,2022.1.3,Win32,59.97001499,62bbe60bf3d75ef465d3e404,0,74,74,44,1,threeone,,,,,,,,,,,,,,,,,,,,,,,,,,,,,,,,,,,,,,,,,,,,,,,,,,,,,,,,,,,,,,,,,,,,,,,,,,,,,,,,,,,,,,,,,,,,,,,,,,,,,,,,,,,,,,,,,,,,,,,,,,,,,,,,,,,,,,,,,,,,,,,,,,,,,,,,
,,,,,,5789972670c76a00012433b3,62bbfb71dd33c6b4ecf35899,2022-06-29_09h12.58.739,Colour_Asymmetry_Pilot,2022.1.3,Win32,59.97001499,62bbe60bf3d75ef465d3e404,0,75,75,136,1,onetwo,,,,,,,,,,,,,,,,,,,,,,,,,,,,,,,,,,,,,,,,,,,,,,,,,,,,,,,,,,,,,,,,,,,,,,,,,,,,,,,,,,,,,,,,,,,,,,,,,,,,,,,,,,,,,,,,,,,,,,,,,,,,,,,,,,,,,,,,,,,,,,,,,,,,,,,,
,,,,,,5789972670c76a00012433b3,62bbfb71dd33c6b4ecf35899,2022-06-29_09h12.58.739,Colour_Asymmetry_Pilot,2022.1.3,Win32,59.97001499,62bbe60bf3d75ef465d3e404,0,76,76,83,1,twofour,,,,,,,,,,,,,,,,,,,,,,,,,,,,,,,,,,,,,,,,,,,,,,,,,,,,,,,,,,,,,,,,,,,,,,,,,,,,,,,,,,,,,,,,,,,,,,,,,,,,,,,,,,,,,,,,,,,,,,,,,,,,,,,,,,,,,,,,,,,,,,,,,,,,,,,,
,,,,,,5789972670c76a00012433b3,62bbfb71dd33c6b4ecf35899,2022-06-29_09h12.58.739,Colour_Asymmetry_Pilot,2022.1.3,Win32,59.97001499,62bbe60bf3d75ef465d3e404,0,77,77,28,1,threeone,,,,,,,,,,,,,,,,,,,,,,,,,,,,,,,,,,,,,,,,,,,,,,,,,,,,,,,,,,,,,,,,,,,,,,,,,,,,,,,,,,,,,,,,,,,,,,,,,,,,,,,,,,,,,,,,,,,,,,,,,,,,,,,,,,,,,,,,,,,,,,,,,,,,,,,,
,,,,,,5789972670c76a00012433b3,62bbfb71dd33c6b4ecf35899,2022-06-29_09h12.58.739,Colour_Asymmetry_Pilot,2022.1.3,Win32,59.97001499,62bbe60bf3d75ef465d3e404,0,78,78,96,1,onetwo,,,,,,,,,,,,,,,,,,,,,,,,,,,,,,,,,,,,,,,,,,,,,,,,,,,,,,,,,,,,,,,,,,,,,,,,,,,,,,,,,,,,,,,,,,,,,,,,,,,,,,,,,,,,,,,,,,,,,,,,,,,,,,,,,,,,,,,,,,,,,,,,,,,,,,,,
,,,,,,5789972670c76a00012433b3,62bbfb71dd33c6b4ecf35899,2022-06-29_09h12.58.739,Colour_Asymmetry_Pilot,2022.1.3,Win32,59.97001499,62bbe60bf3d75ef465d3e404,0,79,79,118,1,fourtwo,,,,,,,,,,,,,,,,,,,,,,,,,,,,,,,,,,,,,,,,,,,,,,,,,,,,,,,,,,,,,,,,,,,,,,,,,,,,,,,,,,,,,,,,,,,,,,,,,,,,,,,,,,,,,,,,,,,,,,,,,,,,,,,,,,,,,,,,,,,,,,,,,,,,,,,,
,,,,,,5789972670c76a00012433b3,62bbfb71dd33c6b4ecf35899,2022-06-29_09h12.58.739,Colour_Asymmetry_Pilot,2022.1.3,Win32,59.97001499,62bbe60bf3d75ef465d3e404,0,80,80,138,1,twoone,,,,,,,,,,,,,,,,,,,,,,,,,,,,,,,,,,,,,,,,,,,,,,,,,,,,,,,,,,,,,,,,,,,,,,,,,,,,,,,,,,,,,,,,,,,,,,,,,,,,,,,,,,,,,,,,,,,,,,,,,,,,,,,,,,,,,,,,,,,,,,,,,,,,,,,,
,,,,,,5789972670c76a00012433b3,62bbfb71dd33c6b4ecf35899,2022-06-29_09h12.58.739,Colour_Asymmetry_Pilot,2022.1.3,Win32,59.97001499,62bbe60bf3d75ef465d3e404,0,81,81,88,1,onetwo,,,,,,,,,,,,,,,,,,,,,,,,,,,,,,,,,,,,,,,,,,,,,,,,,,,,,,,,,,,,,,,,,,,,,,,,,,,,,,,,,,,,,,,,,,,,,,,,,,,,,,,,,,,,,,,,,,,,,,,,,,,,,,,,,,,,,,,,,,,,,,,,,,,,,,,,
,,,,,,5789972670c76a00012433b3,62bbfb71dd33c6b4ecf35899,2022-06-29_09h12.58.739,Colour_Asymmetry_Pilot,2022.1.3,Win32,59.97001499,62bbe60bf3d75ef465d3e404,0,82,82,113,1,onethree,,,,,,,,,,,,,,,,,,,,,,,,,,,,,,,,,,,,,,,,,,,,,,,,,,,,,,,,,,,,,,,,,,,,,,,,,,,,,,,,,,,,,,,,,,,,,,,,,,,,,,,,,,,,,,,,,,,,,,,,,,,,,,,,,,,,,,,,,,,,,,,,,,,,,,,,
,,,,,,5789972670c76a00012433b3,62bbfb71dd33c6b4ecf35899,2022-06-29_09h12.58.739,Colour_Asymmetry_Pilot,2022.1.3,Win32,59.97001499,62bbe60bf3d75ef465d3e404,0,83,83,17,1,onethree,,,,,,,,,,,,,,,,,,,,,,,,,,,,,,,,,,,,,,,,,,,,,,,,,,,,,,,,,,,,,,,,,,,,,,,,,,,,,,,,,,,,,,,,,,,,,,,,,,,,,,,,,,,,,,,,,,,,,,,,,,,,,,,,,,,,,,,,,,,,,,,,,,,,,,,,
,,,,,,5789972670c76a00012433b3,62bbfb71dd33c6b4ecf35899,2022-06-29_09h12.58.739,Colour_Asymmetry_Pilot,2022.1.3,Win32,59.97001499,62bbe60bf3d75ef465d3e404,0,84,84,56,1,onetwo,,,,,,,,,,,,,,,,,,,,,,,,,,,,,,,,,,,,,,,,,,,,,,,,,,,,,,,,,,,,,,,,,,,,,,,,,,,,,,,,,,,,,,,,,,,,,,,,,,,,,,,,,,,,,,,,,,,,,,,,,,,,,,,,,,,,,,,,,,,,,,,,,,,,,,,,
,,,,,,5789972670c76a00012433b3,62bbfb71dd33c6b4ecf35899,2022-06-29_09h12.58.739,Colour_Asymmetry_Pilot,2022.1.3,Win32,59.97001499,62bbe60bf3d75ef465d3e404,0,85,85,131,1,twofour,,,,,,,,,,,,,,,,,,,,,,,,,,,,,,,,,,,,,,,,,,,,,,,,,,,,,,,,,,,,,,,,,,,,,,,,,,,,,,,,,,,,,,,,,,,,,,,,,,,,,,,,,,,,,,,,,,,,,,,,,,,,,,,,,,,,,,,,,,,,,,,,,,,,,,,,
,,,,,,5789972670c76a00012433b3,62bbfb71dd33c6b4ecf35899,2022-06-29_09h12.58.739,Colour_Asymmetry_Pilot,2022.1.3,Win32,59.97001499,62bbe60bf3d75ef465d3e404,0,86,86,152,1,onetwo,,,,,,,,,,,,,,,,,,,,,,,,,,,,,,,,,,,,,,,,,,,,,,,,,,,,,,,,,,,,,,,,,,,,,,,,,,,,,,,,,,,,,,,,,,,,,,,,,,,,,,,,,,,,,,,,,,,,,,,,,,,,,,,,,,,,,,,,,,,,,,,,,,,,,,,,
,,,,,,5789972670c76a00012433b3,62bbfb71dd33c6b4ecf35899,2022-06-29_09h12.58.739,Colour_Asymmetry_Pilot,2022.1.3,Win32,59.97001499,62bbe60bf3d75ef465d3e404,0,87,87,72,1,onetwo,,,,,,,,,,,,,,,,,,,,,,,,,,,,,,,,,,,,,,,,,,,,,,,,,,,,,,,,,,,,,,,,,,,,,,,,,,,,,,,,,,,,,,,,,,,,,,,,,,,,,,,,,,,,,,,,,,,,,,,,,,,,,,,,,,,,,,,,,,,,,,,,,,,,,,,,
,,,,,,5789972670c76a00012433b3,62bbfb71dd33c6b4ecf35899,2022-06-29_09h12.58.739,Colour_Asymmetry_Pilot,2022.1.3,Win32,59.97001499,62bbe60bf3d75ef465d3e404,0,88,88,80,1,onetwo,,,,,,,,,,,,,,,,,,,,,,,,,,,,,,,,,,,,,,,,,,,,,,,,,,,,,,,,,,,,,,,,,,,,,,,,,,,,,,,,,,,,,,,,,,,,,,,,,,,,,,,,,,,,,,,,,,,,,,,,,,,,,,,,,,,,,,,,,,,,,,,,,,,,,,,,
,,,,,,5789972670c76a00012433b3,62bbfb71dd33c6b4ecf35899,2022-06-29_09h12.58.739,Colour_Asymmetry_Pilot,2022.1.3,Win32,59.97001499,62bbe60bf3d75ef465d3e404,0,89,89,59,1,twofour,,,,,,,,,,,,,,,,,,,,,,,,,,,,,,,,,,,,,,,,,,,,,,,,,,,,,,,,,,,,,,,,,,,,,,,,,,,,,,,,,,,,,,,,,,,,,,,,,,,,,,,,,,,,,,,,,,,,,,,,,,,,,,,,,,,,,,,,,,,,,,,,,,,,,,,,
,,,,,,5789972670c76a00012433b3,62bbfb71dd33c6b4ecf35899,2022-06-29_09h12.58.739,Colour_Asymmetry_Pilot,2022.1.3,Win32,59.97001499,62bbe60bf3d75ef465d3e404,0,90,90,53,1,threefour,,,,,,,,,,,,,,,,,,,,,,,,,,,,,,,,,,,,,,,,,,,,,,,,,,,,,,,,,,,,,,,,,,,,,,,,,,,,,,,,,,,,,,,,,,,,,,,,,,,,,,,,,,,,,,,,,,,,,,,,,,,,,,,,,,,,,,,,,,,,,,,,,,,,,,,,
,,,,,,5789972670c76a00012433b3,62bbfb71dd33c6b4ecf35899,2022-06-29_09h12.58.739,Colour_Asymmetry_Pilot,2022.1.3,Win32,59.97001499,62bbe60bf3d75ef465d3e404,0,91,91,52,1,threeone,,,,,,,,,,,,,,,,,,,,,,,,,,,,,,,,,,,,,,,,,,,,,,,,,,,,,,,,,,,,,,,,,,,,,,,,,,,,,,,,,,,,,,,,,,,,,,,,,,,,,,,,,,,,,,,,,,,,,,,,,,,,,,,,,,,,,,,,,,,,,,,,,,,,,,,,
,,,,,,5789972670c76a00012433b3,62bbfb71dd33c6b4ecf35899,2022-06-29_09h12.58.739,Colour_Asymmetry_Pilot,2022.1.3,Win32,59.97001499,62bbe60bf3d75ef465d3e404,0,92,92,36,1,threeone,,,,,,,,,,,,,,,,,,,,,,,,,,,,,,,,,,,,,,,,,,,,,,,,,,,,,,,,,,,,,,,,,,,,,,,,,,,,,,,,,,,,,,,,,,,,,,,,,,,,,,,,,,,,,,,,,,,,,,,,,,,,,,,,,,,,,,,,,,,,,,,,,,,,,,,,
,,,,,,5789972670c76a00012433b3,62bbfb71dd33c6b4ecf35899,2022-06-29_09h12.58.739,Colour_Asymmetry_Pilot,2022.1.3,Win32,59.97001499,62bbe60bf3d75ef465d3e404,0,93,93,95,1,fourthree,,,,,,,,,,,,,,,,,,,,,,,,,,,,,,,,,,,,,,,,,,,,,,,,,,,,,,,,,,,,,,,,,,,,,,,,,,,,,,,,,,,,,,,,,,,,,,,,,,,,,,,,,,,,,,,,,,,,,,,,,,,,,,,,,,,,,,,,,,,,,,,,,,,,,,,,
,,,,,,5789972670c76a00012433b3,62bbfb71dd33c6b4ecf35899,2022-06-29_09h12.58.739,Colour_Asymmetry_Pilot,2022.1.3,Win32,59.97001499,62bbe60bf3d75ef465d3e404,0,94,94,16,1,onetwo,,,,,,,,,,,,,,,,,,,,,,,,,,,,,,,,,,,,,,,,,,,,,,,,,,,,,,,,,,,,,,,,,,,,,,,,,,,,,,,,,,,,,,,,,,,,,,,,,,,,,,,,,,,,,,,,,,,,,,,,,,,,,,,,,,,,,,,,,,,,,,,,,,,,,,,,
,,,,,,5789972670c76a00012433b3,62bbfb71dd33c6b4ecf35899,2022-06-29_09h12.58.739,Colour_Asymmetry_Pilot,2022.1.3,Win32,59.97001499,62bbe60bf3d75ef465d3e404,0,95,95,6,1,fourtwo,,,,,,,,,,,,,,,,,,,,,,,,,,,,,,,,,,,,,,,,,,,,,,,,,,,,,,,,,,,,,,,,,,,,,,,,,,,,,,,,,,,,,,,,,,,,,,,,,,,,,,,,,,,,,,,,,,,,,,,,,,,,,,,,,,,,,,,,,,,,,,,,,,,,,,,,
,,,,,,5789972670c76a00012433b3,62bbfb71dd33c6b4ecf35899,2022-06-29_09h12.58.739,Colour_Asymmetry_Pilot,2022.1.3,Win32,59.97001499,62bbe60bf3d75ef465d3e404,0,96,96,45,1,threefour,,,,,,,,,,,,,,,,,,,,,,,,,,,,,,,,,,,,,,,,,,,,,,,,,,,,,,,,,,,,,,,,,,,,,,,,,,,,,,,,,,,,,,,,,,,,,,,,,,,,,,,,,,,,,,,,,,,,,,,,,,,,,,,,,,,,,,,,,,,,,,,,,,,,,,,,
,,,,,,5789972670c76a00012433b3,62bbfb71dd33c6b4ecf35899,2022-06-29_09h12.58.739,Colour_Asymmetry_Pilot,2022.1.3,Win32,59.97001499,62bbe60bf3d75ef465d3e404,0,97,97,108,1,threeone,,,,,,,,,,,,,,,,,,,,,,,,,,,,,,,,,,,,,,,,,,,,,,,,,,,,,,,,,,,,,,,,,,,,,,,,,,,,,,,,,,,,,,,,,,,,,,,,,,,,,,,,,,,,,,,,,,,,,,,,,,,,,,,,,,,,,,,,,,,,,,,,,,,,,,,,
,,,,,,5789972670c76a00012433b3,62bbfb71dd33c6b4ecf35899,2022-06-29_09h12.58.739,Colour_Asymmetry_Pilot,2022.1.3,Win32,59.97001499,62bbe60bf3d75ef465d3e404,0,98,98,71,1,fourthree,,,,,,,,,,,,,,,,,,,,,,,,,,,,,,,,,,,,,,,,,,,,,,,,,,,,,,,,,,,,,,,,,,,,,,,,,,,,,,,,,,,,,,,,,,,,,,,,,,,,,,,,,,,,,,,,,,,,,,,,,,,,,,,,,,,,,,,,,,,,,,,,,,,,,,,,
,,,,,,5789972670c76a00012433b3,62bbfb71dd33c6b4ecf35899,2022-06-29_09h12.58.739,Colour_Asymmetry_Pilot,2022.1.3,Win32,59.97001499,62bbe60bf3d75ef465d3e404,0,99,99,41,1,onethree,,,,,,,,,,,,,,,,,,,,,,,,,,,,,,,,,,,,,,,,,,,,,,,,,,,,,,,,,,,,,,,,,,,,,,,,,,,,,,,,,,,,,,,,,,,,,,,,,,,,,,,,,,,,,,,,,,,,,,,,,,,,,,,,,,,,,,,,,,,,,,,,,,,,,,,,
,,,,,,5789972670c76a00012433b3,62bbfb71dd33c6b4ecf35899,2022-06-29_09h12.58.739,Colour_Asymmetry_Pilot,2022.1.3,Win32,59.97001499,62bbe60bf3d75ef465d3e404,0,100,100,8,1,onetwo,,,,,,,,,,,,,,,,,,,,,,,,,,,,,,,,,,,,,,,,,,,,,,,,,,,,,,,,,,,,,,,,,,,,,,,,,,,,,,,,,,,,,,,,,,,,,,,,,,,,,,,,,,,,,,,,,,,,,,,,,,,,,,,,,,,,,,,,,,,,,,,,,,,,,,,,
,,,,,,5789972670c76a00012433b3,62bbfb71dd33c6b4ecf35899,2022-06-29_09h12.58.739,Colour_Asymmetry_Pilot,2022.1.3,Win32,59.97001499,62bbe60bf3d75ef465d3e404,0,101,101,160,1,onetwo,,,,,,,,,,,,,,,,,,,,,,,,,,,,,,,,,,,,,,,,,,,,,,,,,,,,,,,,,,,,,,,,,,,,,,,,,,,,,,,,,,,,,,,,,,,,,,,,,,,,,,,,,,,,,,,,,,,,,,,,,,,,,,,,,,,,,,,,,,,,,,,,,,,,,,,,
,,,,,,5789972670c76a00012433b3,62bbfb71dd33c6b4ecf35899,2022-06-29_09h12.58.739,Colour_Asymmetry_Pilot,2022.1.3,Win32,59.97001499,62bbe60bf3d75ef465d3e404,0,102,102,31,1,fourthree,,,,,,,,,,,,,,,,,,,,,,,,,,,,,,,,,,,,,,,,,,,,,,,,,,,,,,,,,,,,,,,,,,,,,,,,,,,,,,,,,,,,,,,,,,,,,,,,,,,,,,,,,,,,,,,,,,,,,,,,,,,,,,,,,,,,,,,,,,,,,,,,,,,,,,,,
,,,,,,5789972670c76a00012433b3,62bbfb71dd33c6b4ecf35899,2022-06-29_09h12.58.739,Colour_Asymmetry_Pilot,2022.1.3,Win32,59.97001499,62bbe60bf3d75ef465d3e404,0,103,103,43,1,twofour,,,,,,,,,,,,,,,,,,,,,,,,,,,,,,,,,,,,,,,,,,,,,,,,,,,,,,,,,,,,,,,,,,,,,,,,,,,,,,,,,,,,,,,,,,,,,,,,,,,,,,,,,,,,,,,,,,,,,,,,,,,,,,,,,,,,,,,,,,,,,,,,,,,,,,,,
,,,,,,5789972670c76a00012433b3,62bbfb71dd33c6b4ecf35899,2022-06-29_09h12.58.739,Colour_Asymmetry_Pilot,2022.1.3,Win32,59.97001499,62bbe60bf3d75ef465d3e404,0,104,104,46,1,fourtwo,,,,,,,,,,,,,,,,,,,,,,,,,,,,,,,,,,,,,,,,,,,,,,,,,,,,,,,,,,,,,,,,,,,,,,,,,,,,,,,,,,,,,,,,,,,,,,,,,,,,,,,,,,,,,,,,,,,,,,,,,,,,,,,,,,,,,,,,,,,,,,,,,,,,,,,,
,,,,,,5789972670c76a00012433b3,62bbfb71dd33c6b4ecf35899,2022-06-29_09h12.58.739,Colour_Asymmetry_Pilot,2022.1.3,Win32,59.97001499,62bbe60bf3d75ef465d3e404,0,105,105,119,1,fourthree,,,,,,,,,,,,,,,,,,,,,,,,,,,,,,,,,,,,,,,,,,,,,,,,,,,,,,,,,,,,,,,,,,,,,,,,,,,,,,,,,,,,,,,,,,,,,,,,,,,,,,,,,,,,,,,,,,,,,,,,,,,,,,,,,,,,,,,,,,,,,,,,,,,,,,,,
,,,,,,5789972670c76a00012433b3,62bbfb71dd33c6b4ecf35899,2022-06-29_09h12.58.739,Colour_Asymmetry_Pilot,2022.1.3,Win32,59.97001499,62bbe60bf3d75ef465d3e404,0,106,106,27,1,twofour,,,,,,,,,,,,,,,,,,,,,,,,,,,,,,,,,,,,,,,,,,,,,,,,,,,,,,,,,,,,,,,,,,,,,,,,,,,,,,,,,,,,,,,,,,,,,,,,,,,,,,,,,,,,,,,,,,,,,,,,,,,,,,,,,,,,,,,,,,,,,,,,,,,,,,,,
,,,,,,5789972670c76a00012433b3,62bbfb71dd33c6b4ecf35899,2022-06-29_09h12.58.739,Colour_Asymmetry_Pilot,2022.1.3,Win32,59.97001499,62bbe60bf3d75ef465d3e404,0,107,107,127,1,fourthree,,,,,,,,,,,,,,,,,,,,,,,,,,,,,,,,,,,,,,,,,,,,,,,,,,,,,,,,,,,,,,,,,,,,,,,,,,,,,,,,,,,,,,,,,,,,,,,,,,,,,,,,,,,,,,,,,,,,,,,,,,,,,,,,,,,,,,,,,,,,,,,,,,,,,,,,
,,,,,,5789972670c76a00012433b3,62bbfb71dd33c6b4ecf35899,2022-06-29_09h12.58.739,Colour_Asymmetry_Pilot,2022.1.3,Win32,59.97001499,62bbe60bf3d75ef465d3e404,0,108,108,149,1,threefour,,,,,,,,,,,,,,,,,,,,,,,,,,,,,,,,,,,,,,,,,,,,,,,,,,,,,,,,,,,,,,,,,,,,,,,,,,,,,,,,,,,,,,,,,,,,,,,,,,,,,,,,,,,,,,,,,,,,,,,,,,,,,,,,,,,,,,,,,,,,,,,,,,,,,,,,
,,,,,,5789972670c76a00012433b3,62bbfb71dd33c6b4ecf35899,2022-06-29_09h12.58.739,Colour_Asymmetry_Pilot,2022.1.3,Win32,59.97001499,62bbe60bf3d75ef465d3e404,0,109,109,79,1,fourthree,,,,,,,,,,,,,,,,,,,,,,,,,,,,,,,,,,,,,,,,,,,,,,,,,,,,,,,,,,,,,,,,,,,,,,,,,,,,,,,,,,,,,,,,,,,,,,,,,,,,,,,,,,,,,,,,,,,,,,,,,,,,,,,,,,,,,,,,,,,,,,,,,,,,,,,,
,,,,,,5789972670c76a00012433b3,62bbfb71dd33c6b4ecf35899,2022-06-29_09h12.58.739,Colour_Asymmetry_Pilot,2022.1.3,Win32,59.97001499,62bbe60bf3d75ef465d3e404,0,110,110,63,1,fourthree,,,,,,,,,,,,,,,,,,,,,,,,,,,,,,,,,,,,,,,,,,,,,,,,,,,,,,,,,,,,,,,,,,,,,,,,,,,,,,,,,,,,,,,,,,,,,,,,,,,,,,,,,,,,,,,,,,,,,,,,,,,,,,,,,,,,,,,,,,,,,,,,,,,,,,,,
,,,,,,5789972670c76a00012433b3,62bbfb71dd33c6b4ecf35899,2022-06-29_09h12.58.739,Colour_Asymmetry_Pilot,2022.1.3,Win32,59.97001499,62bbe60bf3d75ef465d3e404,0,111,111,134,1,fourtwo,,,,,,,,,,,,,,,,,,,,,,,,,,,,,,,,,,,,,,,,,,,,,,,,,,,,,,,,,,,,,,,,,,,,,,,,,,,,,,,,,,,,,,,,,,,,,,,,,,,,,,,,,,,,,,,,,,,,,,,,,,,,,,,,,,,,,,,,,,,,,,,,,,,,,,,,
,,,,,,5789972670c76a00012433b3,62bbfb71dd33c6b4ecf35899,2022-06-29_09h12.58.739,Colour_Asymmetry_Pilot,2022.1.3,Win32,59.97001499,62bbe60bf3d75ef465d3e404,0,112,112,32,1,onetwo,,,,,,,,,,,,,,,,,,,,,,,,,,,,,,,,,,,,,,,,,,,,,,,,,,,,,,,,,,,,,,,,,,,,,,,,,,,,,,,,,,,,,,,,,,,,,,,,,,,,,,,,,,,,,,,,,,,,,,,,,,,,,,,,,,,,,,,,,,,,,,,,,,,,,,,,
,,,,,,5789972670c76a00012433b3,62bbfb71dd33c6b4ecf35899,2022-06-29_09h12.58.739,Colour_Asymmetry_Pilot,2022.1.3,Win32,59.97001499,62bbe60bf3d75ef465d3e404,0,113,113,57,1,onethree,,,,,,,,,,,,,,,,,,,,,,,,,,,,,,,,,,,,,,,,,,,,,,,,,,,,,,,,,,,,,,,,,,,,,,,,,,,,,,,,,,,,,,,,,,,,,,,,,,,,,,,,,,,,,,,,,,,,,,,,,,,,,,,,,,,,,,,,,,,,,,,,,,,,,,,,
,,,,,,5789972670c76a00012433b3,62bbfb71dd33c6b4ecf35899,2022-06-29_09h12.58.739,Colour_Asymmetry_Pilot,2022.1.3,Win32,59.97001499,62bbe60bf3d75ef465d3e404,0,114,114,26,1,twoone,,,,,,,,,,,,,,,,,,,,,,,,,,,,,,,,,,,,,,,,,,,,,,,,,,,,,,,,,,,,,,,,,,,,,,,,,,,,,,,,,,,,,,,,,,,,,,,,,,,,,,,,,,,,,,,,,,,,,,,,,,,,,,,,,,,,,,,,,,,,,,,,,,,,,,,,
,,,,,,5789972670c76a00012433b3,62bbfb71dd33c6b4ecf35899,2022-06-29_09h12.58.739,Colour_Asymmetry_Pilot,2022.1.3,Win32,59.97001499,62bbe60bf3d75ef465d3e404,0,115,115,103,1,fourthree,,,,,,,,,,,,,,,,,,,,,,,,,,,,,,,,,,,,,,,,,,,,,,,,,,,,,,,,,,,,,,,,,,,,,,,,,,,,,,,,,,,,,,,,,,,,,,,,,,,,,,,,,,,,,,,,,,,,,,,,,,,,,,,,,,,,,,,,,,,,,,,,,,,,,,,,
,,,,,,5789972670c76a00012433b3,62bbfb71dd33c6b4ecf35899,2022-06-29_09h12.58.739,Colour_Asymmetry_Pilot,2022.1.3,Win32,59.97001499,62bbe60bf3d75ef465d3e404,0,116,116,132,1,threeone,,,,,,,,,,,,,,,,,,,,,,,,,,,,,,,,,,,,,,,,,,,,,,,,,,,,,,,,,,,,,,,,,,,,,,,,,,,,,,,,,,,,,,,,,,,,,,,,,,,,,,,,,,,,,,,,,,,,,,,,,,,,,,,,,,,,,,,,,,,,,,,,,,,,,,,,
,,,,,,5789972670c76a00012433b3,62bbfb71dd33c6b4ecf35899,2022-06-29_09h12.58.739,Colour_Asymmetry_Pilot,2022.1.3,Win32,59.97001499,62bbe60bf3d75ef465d3e404,0,117,117,19,1,twofour,,,,,,,,,,,,,,,,,,,,,,,,,,,,,,,,,,,,,,,,,,,,,,,,,,,,,,,,,,,,,,,,,,,,,,,,,,,,,,,,,,,,,,,,,,,,,,,,,,,,,,,,,,,,,,,,,,,,,,,,,,,,,,,,,,,,,,,,,,,,,,,,,,,,,,,,
,,,,,,5789972670c76a00012433b3,62bbfb71dd33c6b4ecf35899,2022-06-29_09h12.58.739,Colour_Asymmetry_Pilot,2022.1.3,Win32,59.97001499,62bbe60bf3d75ef465d3e404,0,118,118,99,1,twofour,,,,,,,,,,,,,,,,,,,,,,,,,,,,,,,,,,,,,,,,,,,,,,,,,,,,,,,,,,,,,,,,,,,,,,,,,,,,,,,,,,,,,,,,,,,,,,,,,,,,,,,,,,,,,,,,,,,,,,,,,,,,,,,,,,,,,,,,,,,,,,,,,,,,,,,,
,,,,,,5789972670c76a00012433b3,62bbfb71dd33c6b4ecf35899,2022-06-29_09h12.58.739,Colour_Asymmetry_Pilot,2022.1.3,Win32,59.97001499,62bbe60bf3d75ef465d3e404,0,119,119,48,1,onetwo,,,,,,,,,,,,,,,,,,,,,,,,,,,,,,,,,,,,,,,,,,,,,,,,,,,,,,,,,,,,,,,,,,,,,,,,,,,,,,,,,,,,,,,,,,,,,,,,,,,,,,,,,,,,,,,,,,,,,,,,,,,,,,,,,,,,,,,,,,,,,,,,,,,,,,,,
,,,,,,5789972670c76a00012433b3,62bbfb71dd33c6b4ecf35899,2022-06-29_09h12.58.739,Colour_Asymmetry_Pilot,2022.1.3,Win32,59.97001499,62bbe60bf3d75ef465d3e404,0,120,120,42,1,twoone,,,,,,,,,,,,,,,,,,,,,,,,,,,,,,,,,,,,,,,,,,,,,,,,,,,,,,,,,,,,,,,,,,,,,,,,,,,,,,,,,,,,,,,,,,,,,,,,,,,,,,,,,,,,,,,,,,,,,,,,,,,,,,,,,,,,,,,,,,,,,,,,,,,,,,,,
,,,,,,5789972670c76a00012433b3,62bbfb71dd33c6b4ecf35899,2022-06-29_09h12.58.739,Colour_Asymmetry_Pilot,2022.1.3,Win32,59.97001499,62bbe60bf3d75ef465d3e404,0,121,121,33,1,onethree,,,,,,,,,,,,,,,,,,,,,,,,,,,,,,,,,,,,,,,,,,,,,,,,,,,,,,,,,,,,,,,,,,,,,,,,,,,,,,,,,,,,,,,,,,,,,,,,,,,,,,,,,,,,,,,,,,,,,,,,,,,,,,,,,,,,,,,,,,,,,,,,,,,,,,,,
,,,,,,5789972670c76a00012433b3,62bbfb71dd33c6b4ecf35899,2022-06-29_09h12.58.739,Colour_Asymmetry_Pilot,2022.1.3,Win32,59.97001499,62bbe60bf3d75ef465d3e404,0,122,122,120,1,onetwo,,,,,,,,,,,,,,,,,,,,,,,,,,,,,,,,,,,,,,,,,,,,,,,,,,,,,,,,,,,,,,,,,,,,,,,,,,,,,,,,,,,,,,,,,,,,,,,,,,,,,,,,,,,,,,,,,,,,,,,,,,,,,,,,,,,,,,,,,,,,,,,,,,,,,,,,
,,,,,,5789972670c76a00012433b3,62bbfb71dd33c6b4ecf35899,2022-06-29_09h12.58.739,Colour_Asymmetry_Pilot,2022.1.3,Win32,59.97001499,62bbe60bf3d75ef465d3e404,0,123,123,97,1,onethree,,,,,,,,,,,,,,,,,,,,,,,,,,,,,,,,,,,,,,,,,,,,,,,,,,,,,,,,,,,,,,,,,,,,,,,,,,,,,,,,,,,,,,,,,,,,,,,,,,,,,,,,,,,,,,,,,,,,,,,,,,,,,,,,,,,,,,,,,,,,,,,,,,,,,,,,
,,,,,,5789972670c76a00012433b3,62bbfb71dd33c6b4ecf35899,2022-06-29_09h12.58.739,Colour_Asymmetry_Pilot,2022.1.3,Win32,59.97001499,62bbe60bf3d75ef465d3e404,0,124,124,68,1,threeone,,,,,,,,,,,,,,,,,,,,,,,,,,,,,,,,,,,,,,,,,,,,,,,,,,,,,,,,,,,,,,,,,,,,,,,,,,,,,,,,,,,,,,,,,,,,,,,,,,,,,,,,,,,,,,,,,,,,,,,,,,,,,,,,,,,,,,,,,,,,,,,,,,,,,,,,
,,,,,,5789972670c76a00012433b3,62bbfb71dd33c6b4ecf35899,2022-06-29_09h12.58.739,Colour_Asymmetry_Pilot,2022.1.3,Win32,59.97001499,62bbe60bf3d75ef465d3e404,0,125,125,105,1,onethree,,,,,,,,,,,,,,,,,,,,,,,,,,,,,,,,,,,,,,,,,,,,,,,,,,,,,,,,,,,,,,,,,,,,,,,,,,,,,,,,,,,,,,,,,,,,,,,,,,,,,,,,,,,,,,,,,,,,,,,,,,,,,,,,,,,,,,,,,,,,,,,,,,,,,,,,
,,,,,,5789972670c76a00012433b3,62bbfb71dd33c6b4ecf35899,2022-06-29_09h12.58.739,Colour_Asymmetry_Pilot,2022.1.3,Win32,59.97001499,62bbe60bf3d75ef465d3e404,0,126,126,81,1,onethree,,,,,,,,,,,,,,,,,,,,,,,,,,,,,,,,,,,,,,,,,,,,,,,,,,,,,,,,,,,,,,,,,,,,,,,,,,,,,,,,,,,,,,,,,,,,,,,,,,,,,,,,,,,,,,,,,,,,,,,,,,,,,,,,,,,,,,,,,,,,,,,,,,,,,,,,
,,,,,,5789972670c76a00012433b3,62bbfb71dd33c6b4ecf35899,2022-06-29_09h12.58.739,Colour_Asymmetry_Pilot,2022.1.3,Win32,59.97001499,62bbe60bf3d75ef465d3e404,0,127,127,64,1,onetwo,,,,,,,,,,,,,,,,,,,,,,,,,,,,,,,,,,,,,,,,,,,,,,,,,,,,,,,,,,,,,,,,,,,,,,,,,,,,,,,,,,,,,,,,,,,,,,,,,,,,,,,,,,,,,,,,,,,,,,,,,,,,,,,,,,,,,,,,,,,,,,,,,,,,,,,,
,,,,,,5789972670c76a00012433b3,62bbfb71dd33c6b4ecf35899,2022-06-29_09h12.58.739,Colour_Asymmetry_Pilot,2022.1.3,Win32,59.97001499,62bbe60bf3d75ef465d3e404,0,128,128,12,1,threeone,,,,,,,,,,,,,,,,,,,,,,,,,,,,,,,,,,,,,,,,,,,,,,,,,,,,,,,,,,,,,,,,,,,,,,,,,,,,,,,,,,,,,,,,,,,,,,,,,,,,,,,,,,,,,,,,,,,,,,,,,,,,,,,,,,,,,,,,,,,,,,,,,,,,,,,,
,,,,,,5789972670c76a00012433b3,62bbfb71dd33c6b4ecf35899,2022-06-29_09h12.58.739,Colour_Asymmetry_Pilot,2022.1.3,Win32,59.97001499,62bbe60bf3d75ef465d3e404,0,129,129,144,1,onetwo,,,,,,,,,,,,,,,,,,,,,,,,,,,,,,,,,,,,,,,,,,,,,,,,,,,,,,,,,,,,,,,,,,,,,,,,,,,,,,,,,,,,,,,,,,,,,,,,,,,,,,,,,,,,,,,,,,,,,,,,,,,,,,,,,,,,,,,,,,,,,,,,,,,,,,,,
,,,,,,5789972670c76a00012433b3,62bbfb71dd33c6b4ecf35899,2022-06-29_09h12.58.739,Colour_Asymmetry_Pilot,2022.1.3,Win32,59.97001499,62bbe60bf3d75ef465d3e404,0,130,130,22,1,fourtwo,,,,,,,,,,,,,,,,,,,,,,,,,,,,,,,,,,,,,,,,,,,,,,,,,,,,,,,,,,,,,,,,,,,,,,,,,,,,,,,,,,,,,,,,,,,,,,,,,,,,,,,,,,,,,,,,,,,,,,,,,,,,,,,,,,,,,,,,,,,,,,,,,,,,,,,,
,,,,,,5789972670c76a00012433b3,62bbfb71dd33c6b4ecf35899,2022-06-29_09h12.58.739,Colour_Asymmetry_Pilot,2022.1.3,Win32,59.97001499,62bbe60bf3d75ef465d3e404,0,131,131,147,1,twofour,,,,,,,,,,,,,,,,,,,,,,,,,,,,,,,,,,,,,,,,,,,,,,,,,,,,,,,,,,,,,,,,,,,,,,,,,,,,,,,,,,,,,,,,,,,,,,,,,,,,,,,,,,,,,,,,,,,,,,,,,,,,,,,,,,,,,,,,,,,,,,,,,,,,,,,,
,,,,,,5789972670c76a00012433b3,62bbfb71dd33c6b4ecf35899,2022-06-29_09h12.58.739,Colour_Asymmetry_Pilot,2022.1.3,Win32,59.97001499,62bbe60bf3d75ef465d3e404,0,132,132,137,1,onethree,,,,,,,,,,,,,,,,,,,,,,,,,,,,,,,,,,,,,,,,,,,,,,,,,,,,,,,,,,,,,,,,,,,,,,,,,,,,,,,,,,,,,,,,,,,,,,,,,,,,,,,,,,,,,,,,,,,,,,,,,,,,,,,,,,,,,,,,,,,,,,,,,,,,,,,,
,,,,,,5789972670c76a00012433b3,62bbfb71dd33c6b4ecf35899,2022-06-29_09h12.58.739,Colour_Asymmetry_Pilot,2022.1.3,Win32,59.97001499,62bbe60bf3d75ef465d3e404,0,133,133,85,1,threefour,,,,,,,,,,,,,,,,,,,,,,,,,,,,,,,,,,,,,,,,,,,,,,,,,,,,,,,,,,,,,,,,,,,,,,,,,,,,,,,,,,,,,,,,,,,,,,,,,,,,,,,,,,,,,,,,,,,,,,,,,,,,,,,,,,,,,,,,,,,,,,,,,,,,,,,,
,,,,,,5789972670c76a00012433b3,62bbfb71dd33c6b4ecf35899,2022-06-29_09h12.58.739,Colour_Asymmetry_Pilot,2022.1.3,Win32,59.97001499,62bbe60bf3d75ef465d3e404,0,134,134,60,1,threeone,,,,,,,,,,,,,,,,,,,,,,,,,,,,,,,,,,,,,,,,,,,,,,,,,,,,,,,,,,,,,,,,,,,,,,,,,,,,,,,,,,,,,,,,,,,,,,,,,,,,,,,,,,,,,,,,,,,,,,,,,,,,,,,,,,,,,,,,,,,,,,,,,,,,,,,,
,,,,,,5789972670c76a00012433b3,62bbfb71dd33c6b4ecf35899,2022-06-29_09h12.58.739,Colour_Asymmetry_Pilot,2022.1.3,Win32,59.97001499,62bbe60bf3d75ef465d3e404,0,135,135,5,1,threefour,,,,,,,,,,,,,,,,,,,,,,,,,,,,,,,,,,,,,,,,,,,,,,,,,,,,,,,,,,,,,,,,,,,,,,,,,,,,,,,,,,,,,,,,,,,,,,,,,,,,,,,,,,,,,,,,,,,,,,,,,,,,,,,,,,,,,,,,,,,,,,,,,,,,,,,,
,,,,,,5789972670c76a00012433b3,62bbfb71dd33c6b4ecf35899,2022-06-29_09h12.58.739,Colour_Asymmetry_Pilot,2022.1.3,Win32,59.97001499,62bbe60bf3d75ef465d3e404,0,136,136,24,1,onetwo,,,,,,,,,,,,,,,,,,,,,,,,,,,,,,,,,,,,,,,,,,,,,,,,,,,,,,,,,,,,,,,,,,,,,,,,,,,,,,,,,,,,,,,,,,,,,,,,,,,,,,,,,,,,,,,,,,,,,,,,,,,,,,,,,,,,,,,,,,,,,,,,,,,,,,,,
,,,,,,5789972670c76a00012433b3,62bbfb71dd33c6b4ecf35899,2022-06-29_09h12.58.739,Colour_Asymmetry_Pilot,2022.1.3,Win32,59.97001499,62bbe60bf3d75ef465d3e404,0,137,137,124,1,threeone,,,,,,,,,,,,,,,,,,,,,,,,,,,,,,,,,,,,,,,,,,,,,,,,,,,,,,,,,,,,,,,,,,,,,,,,,,,,,,,,,,,,,,,,,,,,,,,,,,,,,,,,,,,,,,,,,,,,,,,,,,,,,,,,,,,,,,,,,,,,,,,,,,,,,,,,
,,,,,,5789972670c76a00012433b3,62bbfb71dd33c6b4ecf35899,2022-06-29_09h12.58.739,Colour_Asymmetry_Pilot,2022.1.3,Win32,59.97001499,62bbe60bf3d75ef465d3e404,0,138,138,9,1,onethree,,,,,,,,,,,,,,,,,,,,,,,,,,,,,,,,,,,,,,,,,,,,,,,,,,,,,,,,,,,,,,,,,,,,,,,,,,,,,,,,,,,,,,,,,,,,,,,,,,,,,,,,,,,,,,,,,,,,,,,,,,,,,,,,,,,,,,,,,,,,,,,,,,,,,,,,
,,,,,,5789972670c76a00012433b3,62bbfb71dd33c6b4ecf35899,2022-06-29_09h12.58.739,Colour_Asymmetry_Pilot,2022.1.3,Win32,59.97001499,62bbe60bf3d75ef465d3e404,0,139,139,3,1,twofour,,,,,,,,,,,,,,,,,,,,,,,,,,,,,,,,,,,,,,,,,,,,,,,,,,,,,,,,,,,,,,,,,,,,,,,,,,,,,,,,,,,,,,,,,,,,,,,,,,,,,,,,,,,,,,,,,,,,,,,,,,,,,,,,,,,,,,,,,,,,,,,,,,,,,,,,
,,,,,,5789972670c76a00012433b3,62bbfb71dd33c6b4ecf35899,2022-06-29_09h12.58.739,Colour_Asymmetry_Pilot,2022.1.3,Win32,59.97001499,62bbe60bf3d75ef465d3e404,0,140,140,129,1,onethree,,,,,,,,,,,,,,,,,,,,,,,,,,,,,,,,,,,,,,,,,,,,,,,,,,,,,,,,,,,,,,,,,,,,,,,,,,,,,,,,,,,,,,,,,,,,,,,,,,,,,,,,,,,,,,,,,,,,,,,,,,,,,,,,,,,,,,,,,,,,,,,,,,,,,,,,
,,,,,,5789972670c76a00012433b3,62bbfb71dd33c6b4ecf35899,2022-06-29_09h12.58.739,Colour_Asymmetry_Pilot,2022.1.3,Win32,59.97001499,62bbe60bf3d75ef465d3e404,0,141,141,58,1,twoone,,,,,,,,,,,,,,,,,,,,,,,,,,,,,,,,,,,,,,,,,,,,,,,,,,,,,,,,,,,,,,,,,,,,,,,,,,,,,,,,,,,,,,,,,,,,,,,,,,,,,,,,,,,,,,,,,,,,,,,,,,,,,,,,,,,,,,,,,,,,,,,,,,,,,,,,
,,,,,,5789972670c76a00012433b3,62bbfb71dd33c6b4ecf35899,2022-06-29_09h12.58.739,Colour_Asymmetry_Pilot,2022.1.3,Win32,59.97001499,62bbe60bf3d75ef465d3e404,0,142,142,25,1,onethree,,,,,,,,,,,,,,,,,,,,,,,,,,,,,,,,,,,,,,,,,,,,,,,,,,,,,,,,,,,,,,,,,,,,,,,,,,,,,,,,,,,,,,,,,,,,,,,,,,,,,,,,,,,,,,,,,,,,,,,,,,,,,,,,,,,,,,,,,,,,,,,,,,,,,,,,
,,,,,,5789972670c76a00012433b3,62bbfb71dd33c6b4ecf35899,2022-06-29_09h12.58.739,Colour_Asymmetry_Pilot,2022.1.3,Win32,59.97001499,62bbe60bf3d75ef465d3e404,0,143,143,30,1,fourtwo,,,,,,,,,,,,,,,,,,,,,,,,,,,,,,,,,,,,,,,,,,,,,,,,,,,,,,,,,,,,,,,,,,,,,,,,,,,,,,,,,,,,,,,,,,,,,,,,,,,,,,,,,,,,,,,,,,,,,,,,,,,,,,,,,,,,,,,,,,,,,,,,,,,,,,,,
,,,,,,5789972670c76a00012433b3,62bbfb71dd33c6b4ecf35899,2022-06-29_09h12.58.739,Colour_Asymmetry_Pilot,2022.1.3,Win32,59.97001499,62bbe60bf3d75ef465d3e404,0,144,144,0,1,onetwo,,,,,,,,,,,,,,,,,,,,,,,,,,,,,,,,,,,,,,,,,,,,,,,,,,,,,,,,,,,,,,,,,,,,,,,,,,,,,,,,,,,,,,,,,,,,,,,,,,,,,,,,,,,,,,,,,,,,,,,,,,,,,,,,,,,,,,,,,,,,,,,,,,,,,,,,
,,,,,,5789972670c76a00012433b3,62bbfb71dd33c6b4ecf35899,2022-06-29_09h12.58.739,Colour_Asymmetry_Pilot,2022.1.3,Win32,59.97001499,62bbe60bf3d75ef465d3e404,0,145,145,107,1,twofour,,,,,,,,,,,,,,,,,,,,,,,,,,,,,,,,,,,,,,,,,,,,,,,,,,,,,,,,,,,,,,,,,,,,,,,,,,,,,,,,,,,,,,,,,,,,,,,,,,,,,,,,,,,,,,,,,,,,,,,,,,,,,,,,,,,,,,,,,,,,,,,,,,,,,,,,
,,,,,,5789972670c76a00012433b3,62bbfb71dd33c6b4ecf35899,2022-06-29_09h12.58.739,Colour_Asymmetry_Pilot,2022.1.3,Win32,59.97001499,62bbe60bf3d75ef465d3e404,0,146,146,10,1,twoone,,,,,,,,,,,,,,,,,,,,,,,,,,,,,,,,,,,,,,,,,,,,,,,,,,,,,,,,,,,,,,,,,,,,,,,,,,,,,,,,,,,,,,,,,,,,,,,,,,,,,,,,,,,,,,,,,,,,,,,,,,,,,,,,,,,,,,,,,,,,,,,,,,,,,,,,
,,,,,,5789972670c76a00012433b3,62bbfb71dd33c6b4ecf35899,2022-06-29_09h12.58.739,Colour_Asymmetry_Pilot,2022.1.3,Win32,59.97001499,62bbe60bf3d75ef465d3e404,0,147,147,117,1,threefour,,,,,,,,,,,,,,,,,,,,,,,,,,,,,,,,,,,,,,,,,,,,,,,,,,,,,,,,,,,,,,,,,,,,,,,,,,,,,,,,,,,,,,,,,,,,,,,,,,,,,,,,,,,,,,,,,,,,,,,,,,,,,,,,,,,,,,,,,,,,,,,,,,,,,,,,
,,,,,,5789972670c76a00012433b3,62bbfb71dd33c6b4ecf35899,2022-06-29_09h12.58.739,Colour_Asymmetry_Pilot,2022.1.3,Win32,59.97001499,62bbe60bf3d75ef465d3e404,0,148,148,40,1,onetwo,,,,,,,,,,,,,,,,,,,,,,,,,,,,,,,,,,,,,,,,,,,,,,,,,,,,,,,,,,,,,,,,,,,,,,,,,,,,,,,,,,,,,,,,,,,,,,,,,,,,,,,,,,,,,,,,,,,,,,,,,,,,,,,,,,,,,,,,,,,,,,,,,,,,,,,,
,,,,,,5789972670c76a00012433b3,62bbfb71dd33c6b4ecf35899,2022-06-29_09h12.58.739,Colour_Asymmetry_Pilot,2022.1.3,Win32,59.97001499,62bbe60bf3d75ef465d3e404,0,149,149,37,1,threefour,,,,,,,,,,,,,,,,,,,,,,,,,,,,,,,,,,,,,,,,,,,,,,,,,,,,,,,,,,,,,,,,,,,,,,,,,,,,,,,,,,,,,,,,,,,,,,,,,,,,,,,,,,,,,,,,,,,,,,,,,,,,,,,,,,,,,,,,,,,,,,,,,,,,,,,,
,,,,,,5789972670c76a00012433b3,62bbfb71dd33c6b4ecf35899,2022-06-29_09h12.58.739,Colour_Asymmetry_Pilot,2022.1.3,Win32,59.97001499,62bbe60bf3d75ef465d3e404,0,150,150,86,1,fourtwo,,,,,,,,,,,,,,,,,,,,,,,,,,,,,,,,,,,,,,,,,,,,,,,,,,,,,,,,,,,,,,,,,,,,,,,,,,,,,,,,,,,,,,,,,,,,,,,,,,,,,,,,,,,,,,,,,,,,,,,,,,,,,,,,,,,,,,,,,,,,,,,,,,,,,,,,
,,,,,,5789972670c76a00012433b3,62bbfb71dd33c6b4ecf35899,2022-06-29_09h12.58.739,Colour_Asymmetry_Pilot,2022.1.3,Win32,59.97001499,62bbe60bf3d75ef465d3e404,0,151,151,125,1,threefour,,,,,,,,,,,,,,,,,,,,,,,,,,,,,,,,,,,,,,,,,,,,,,,,,,,,,,,,,,,,,,,,,,,,,,,,,,,,,,,,,,,,,,,,,,,,,,,,,,,,,,,,,,,,,,,,,,,,,,,,,,,,,,,,,,,,,,,,,,,,,,,,,,,,,,,,
,,,,,,5789972670c76a00012433b3,62bbfb71dd33c6b4ecf35899,2022-06-29_09h12.58.739,Colour_Asymmetry_Pilot,2022.1.3,Win32,59.97001499,62bbe60bf3d75ef465d3e404,0,152,152,158,1,fourtwo,,,,,,,,,,,,,,,,,,,,,,,,,,,,,,,,,,,,,,,,,,,,,,,,,,,,,,,,,,,,,,,,,,,,,,,,,,,,,,,,,,,,,,,,,,,,,,,,,,,,,,,,,,,,,,,,,,,,,,,,,,,,,,,,,,,,,,,,,,,,,,,,,,,,,,,,
,,,,,,5789972670c76a00012433b3,62bbfb71dd33c6b4ecf35899,2022-06-29_09h12.58.739,Colour_Asymmetry_Pilot,2022.1.3,Win32,59.97001499,62bbe60bf3d75ef465d3e404,0,153,153,142,1,fourtwo,,,,,,,,,,,,,,,,,,,,,,,,,,,,,,,,,,,,,,,,,,,,,,,,,,,,,,,,,,,,,,,,,,,,,,,,,,,,,,,,,,,,,,,,,,,,,,,,,,,,,,,,,,,,,,,,,,,,,,,,,,,,,,,,,,,,,,,,,,,,,,,,,,,,,,,,
,,,,,,5789972670c76a00012433b3,62bbfb71dd33c6b4ecf35899,2022-06-29_09h12.58.739,Colour_Asymmetry_Pilot,2022.1.3,Win32,59.97001499,62bbe60bf3d75ef465d3e404,0,154,154,116,1,threeone,,,,,,,,,,,,,,,,,,,,,,,,,,,,,,,,,,,,,,,,,,,,,,,,,,,,,,,,,,,,,,,,,,,,,,,,,,,,,,,,,,,,,,,,,,,,,,,,,,,,,,,,,,,,,,,,,,,,,,,,,,,,,,,,,,,,,,,,,,,,,,,,,,,,,,,,
,,,,,,5789972670c76a00012433b3,62bbfb71dd33c6b4ecf35899,2022-06-29_09h12.58.739,Colour_Asymmetry_Pilot,2022.1.3,Win32,59.97001499,62bbe60bf3d75ef465d3e404,0,155,155,51,1,twofour,,,,,,,,,,,,,,,,,,,,,,,,,,,,,,,,,,,,,,,,,,,,,,,,,,,,,,,,,,,,,,,,,,,,,,,,,,,,,,,,,,,,,,,,,,,,,,,,,,,,,,,,,,,,,,,,,,,,,,,,,,,,,,,,,,,,,,,,,,,,,,,,,,,,,,,,
,,,,,,5789972670c76a00012433b3,62bbfb71dd33c6b4ecf35899,2022-06-29_09h12.58.739,Colour_Asymmetry_Pilot,2022.1.3,Win32,59.97001499,62bbe60bf3d75ef465d3e404,0,156,156,146,1,twoone,,,,,,,,,,,,,,,,,,,,,,,,,,,,,,,,,,,,,,,,,,,,,,,,,,,,,,,,,,,,,,,,,,,,,,,,,,,,,,,,,,,,,,,,,,,,,,,,,,,,,,,,,,,,,,,,,,,,,,,,,,,,,,,,,,,,,,,,,,,,,,,,,,,,,,,,
,,,,,,5789972670c76a00012433b3,62bbfb71dd33c6b4ecf35899,2022-06-29_09h12.58.739,Colour_Asymmetry_Pilot,2022.1.3,Win32,59.97001499,62bbe60bf3d75ef465d3e404,0,157,157,130,1,twoone,,,,,,,,,,,,,,,,,,,,,,,,,,,,,,,,,,,,,,,,,,,,,,,,,,,,,,,,,,,,,,,,,,,,,,,,,,,,,,,,,,,,,,,,,,,,,,,,,,,,,,,,,,,,,,,,,,,,,,,,,,,,,,,,,,,,,,,,,,,,,,,,,,,,,,,,
,,,,,,5789972670c76a00012433b3,62bbfb71dd33c6b4ecf35899,2022-06-29_09h12.58.739,Colour_Asymmetry_Pilot,2022.1.3,Win32,59.97001499,62bbe60bf3d75ef465d3e404,0,158,158,69,1,threefour,,,,,,,,,,,,,,,,,,,,,,,,,,,,,,,,,,,,,,,,,,,,,,,,,,,,,,,,,,,,,,,,,,,,,,,,,,,,,,,,,,,,,,,,,,,,,,,,,,,,,,,,,,,,,,,,,,,,,,,,,,,,,,,,,,,,,,,,,,,,,,,,,,,,,,,,
,,,,,,5789972670c76a00012433b3,62bbfb71dd33c6b4ecf35899,2022-06-29_09h12.58.739,Colour_Asymmetry_Pilot,2022.1.3,Win32,59.97001499,62bbe60bf3d75ef465d3e404,0,159,159,153,1,onethree,,,,,,,,,,,,,,,,,,,,,,,,,,,,,,,,,,,,,,,,,,,,,,,,,,,,,,,,,,,,,,,,,,,,,,,,,,,,,,,,,,,,,,,,,,,,,,,,,,,,,,,,,,,,,,,,,,,,,,,,,,,,,,,,,,,,,,,,,,,,,,,,,,,,,,,,
,,,,,,5789972670c76a00012433b3,62bbfb71dd33c6b4ecf35899,2022-06-29_09h12.58.739,Colour_Asymmetry_Pilot,2022.1.3,Win32,59.97001499,62bbe60bf3d75ef465d3e404,0,160,160,102,1,fourtwo,,,,,,,,,,,,,,,,,,,,,,,,,,,,,,,,,,,,,,,,,,,,,,,,,,,,,,,,,,,,,,,,,,,,,,,,,,,,,,,,,,,,,,,,,,,,,,,,,,,,,,,,,,,,,,,,,,,,,,,,,,,,,,,,,,,,,,,,,,,,,,,,,,,,,,,,
,,,,,,5789972670c76a00012433b3,62bbfb71dd33c6b4ecf35899,2022-06-29_09h12.58.739,Colour_Asymmetry_Pilot,2022.1.3,Win32,59.97001499,62bbe60bf3d75ef465d3e404,0,161,161,151,1,fourthree,,,,,,,,,,,,,,,,,,,,,,,,,,,,,,,,,,,,,,,,,,,,,,,,,,,,,,,,,,,,,,,,,,,,,,,,,,,,,,,,,,,,,,,,,,,,,,,,,,,,,,,,,,,,,,,,,,,,,,,,,,,,,,,,,,,,,,,,,,,,,,,,,,,,,,,,
,,,,,,5789972670c76a00012433b3,62bbfb71dd33c6b4ecf35899,2022-06-29_09h12.58.739,Colour_Asymmetry_Pilot,2022.1.3,Win32,59.97001499,62bbe60bf3d75ef465d3e404,,,,,,,space,3.1027,space,48.3178,space,58.2137,space,25.7173,space,6.8674,space,6.4889,"[0.19199999999999995,0.18419999999999992,0.5136000000000001]",twofour,"[0.7802,-0.23140000000000005,-0.20799999999999996]",-1,9.1841,-38,-69.33334351,1,0,0,response5disk_5,9.333374023,-2,1,0,0,rectangle_8,9.333374023,-2,1,0,0,3,9.333374023,-2,1,0,0,0,0,0,0,1,,,,,,,,,,,,,,,,,,,,,,,,,,,,,,,,,,,,,,,,,,,,,,,,,,,,,,,,,,,,,,,,,,,,,,,,,,,,,,,,,,,,,,,,,,,,,,,,,,,,,,,,,,,
,,,,,,5789972670c76a00012433b3,62bbfb71dd33c6b4ecf35899,2022-06-29_09h12.58.739,Colour_Asymmetry_Pilot,2022.1.3,Win32,59.97001499,62bbe60bf3d75ef465d3e404,,,,,,,,,,,,,,,,,,,"[-0.4982,-0.2942,-0.0354000000000001]",fourthree,"[-0.5922000000000001,-0.7492000000000001,-0.5296000000000001]",-1,3.1832,-46,-80.66668701,1,0,0,response5disk_5,12.66668701,-0.666687012,1,0,0,rectangle_8,86,50.66665649,1,0,0,3,-1.333312988,1.333312988,1,0,0,1,0,1,0,1,response1disk_7,6,rectangle_4,,,,,,,,,,,,,,,,,,,,,,,,,,,,,,,,,,,,,,,,,,,,,,,,,,,,,,,,,,,,,,,,,,,,,,,,,,,,,,,,,,,,,,,,,,,,,,,,,,,,,,,,
,,,,,,5789972670c76a00012433b3,62bbfb71dd33c6b4ecf35899,2022-06-29_09h12.58.739,Colour_Asymmetry_Pilot,2022.1.3,Win32,59.97001499,62bbe60bf3d75ef465d3e404,,,,,,,,,,,,,,,,,,,"[0.9842,0.7409999999999999,-0.6628000000000001]",twoone,"[0.34099999999999997,0.5841999999999998,-0.9844]",3,3.9507,66,34.66665649,1,0,0,response1disk_5,2.666687012,5.333312988,1,0,0,rectangle_8,2.666687012,5.333312988,1,0,0,3,2.666687012,5.333312988,1,0,0,2,0,2,0,1,,,,,,,,,,,,,,,,,,,,,,,,,,,,,,,,,,,,,,,,,,,,,,,,,,,,,,,,,,,,,,,,,,,,,,,,,,,,,,,,,,,,,,,,,,,,,,,,,,,,,,,,,,,
,,,,,,5789972670c76a00012433b3,62bbfb71dd33c6b4ecf35899,2022-06-29_09h12.58.739,Colour_Asymmetry_Pilot,2022.1.3,Win32,59.97001499,62bbe60bf3d75ef465d3e404,,,,,,,,,,,,,,,,,,,"[0.3802000000000001,0.19199999999999995,-0.6394]",onetwo,"[-0.4902000000000001,0.2704,-0.45899999999999996]",-1,1.6834,-34.66662598,-76,1,0,0,response5disk_5,-5.333312988,0.666656494,1,0,0,rectangle_8,81.33337402,32,1,0,0,3,-6,2,1,0,0,3,0,3,0,1,response1disk_7,6,rectangle_4,,,,,,,,,,,,,,,,,,,,,,,,,,,,,,,,,,,,,,,,,,,,,,,,,,,,,,,,,,,,,,,,,,,,,,,,,,,,,,,,,,,,,,,,,,,,,,,,,,,,,,,,
,,,,,,5789972670c76a00012433b3,62bbfb71dd33c6b4ecf35899,2022-06-29_09h12.58.739,Colour_Asymmetry_Pilot,2022.1.3,Win32,59.97001499,62bbe60bf3d75ef465d3e404,,,,,,,,,,,,,,,,,,,"[0.7646000000000002,0.07440000000000002,0.2704]",threeone,"[0.3881999999999999,-0.23939999999999995,-0.05040000000000011]",2,5.6169,76,-26,1,0,0,response3disk_5,-4.666625977,2.666656494,1,0,0,rectangle_8,-4.666625977,2.666656494,1,0,0,3,-4.666625977,2.666656494,1,0,0,4,0,4,0,1,,,,,,,,,,,,,,,,,,,,,,,,,,,,,,,,,,,,,,,,,,,,,,,,,,,,,,,,,,,,,,,,,,,,,,,,,,,,,,,,,,,,,,,,,,,,,,,,,,,,,,,,,,,
,,,,,,5789972670c76a00012433b3,62bbfb71dd33c6b4ecf35899,2022-06-29_09h12.58.739,Colour_Asymmetry_Pilot,2022.1.3,Win32,59.97001499,62bbe60bf3d75ef465d3e404,,,,,,,,,,,,,,,,,,,"[-0.2942,-0.7648,-0.7492000000000001]",twofour,"[0.09799999999999986,-0.24719999999999998,0.15280000000000005]",-4,4.1501,-29.33331299,76,1,0,0,response7disk_5,-17.33331299,1.333312988,1,0,0,rectangle_8,-17.33331299,1.333312988,1,0,0,3,-17.33331299,1.333312988,1,0,0,5,0,5,0,1,,,,,,,,,,,,,,,,,,,,,,,,,,,,,,,,,,,,,,,,,,,,,,,,,,,,,,,,,,,,,,,,,,,,,,,,,,,,,,,,,,,,,,,,,,,,,,,,,,,,,,,,,,,
,,,,,,5789972670c76a00012433b3,62bbfb71dd33c6b4ecf35899,2022-06-29_09h12.58.739,Colour_Asymmetry_Pilot,2022.1.3,Win32,59.97001499,62bbe60bf3d75ef465d3e404,,,,,,,,,,,,,,,,,,,"[0.9842,0.7409999999999999,-0.6628000000000001]",twoone,"[-0.24719999999999998,0.5213999999999999,-0.12959999999999994]",-3,2.6,-64.66662598,40.66665649,1,0,0,response7disk_5,16.66668701,-1.333343506,1,0,0,rectangle_8,16.66668701,-1.333343506,1,0,0,3,16.66668701,-1.333343506,1,0,0,6,0,6,0,1,,,,,,,,,,,,,,,,,,,,,,,,,,,,,,,,,,,,,,,,,,,,,,,,,,,,,,,,,,,,,,,,,,,,,,,,,,,,,,,,,,,,,,,,,,,,,,,,,,,,,,,,,,,
,,,,,,5789972670c76a00012433b3,62bbfb71dd33c6b4ecf35899,2022-06-29_09h12.58.739,Colour_Asymmetry_Pilot,2022.1.3,Win32,59.97001499,62bbe60bf3d75ef465d3e404,,,,,,,,,,,,,,,,,,,,threefour,,-4,1.3673,,,,,,,,,,,,,,,,,,,,,,,,,,,,,,,,space,3.7738,"[0.9213999999999998,0.6391999999999998,-0.9922]","[-0.9688,-0.4902000000000001,-0.12159999999999993]",-36,61.33331299,1,0,0,response7disk,5.333374023,-0.666687012,1,0,0,rectangle,104,48,1,0,0,response1disk_3,3,3,1.7835,1,-2.666625977,0,1,0,0,rectangle,0,0,0,36,1,36,first,,,,,,,,,,,,,,,,,,,,,,,,,,,,,,,,,,,,,,,,,,,,,,,,,,,,,,,,,,,,,,,,,
,,,,,,5789972670c76a00012433b3,62bbfb71dd33c6b4ecf35899,2022-06-29_09h12.58.739,Colour_Asymmetry_Pilot,2022.1.3,Win32,59.97001499,62bbe60bf3d75ef465d3e404,,,,,,,,,,,,,,,,,,,,twoone,,-4,2.0668,,,,,,,,,,,,,,,,,,,,,,,,,,,,,,,,,,"[-0.2942,-0.7648,-0.7492000000000001]","[-0.9766,-0.34920000000000007,0.2156]",-32,79.33331299,1,0,0,response7disk,1.333374023,8.666656494,1,0,0,rectangle,1.333374023,8.666656494,1,0,0,,3,1,0.0015,0,1.333374023,8.666656494,1,0,0,,0,1,1,102,1,21,second,,,,,,,,,,,,,,,,,,,,,,,,,,,,,,,,,,,,,,,,,,,,,,,,,,,,,,,,,,,,,,,,,
,,,,,,5789972670c76a00012433b3,62bbfb71dd33c6b4ecf35899,2022-06-29_09h12.58.739,Colour_Asymmetry_Pilot,2022.1.3,Win32,59.97001499,62bbe60bf3d75ef465d3e404,,,,,,,,,,,,,,,,,,,,fourthree,,-4,1.4834,,,,,,,,,,,,,,,,,,,,,,,,,,,,,,,,,,"[0.796,0.2156,-0.27859999999999996]","[-0.9766,-0.6472,0.07440000000000002]",-42,76.66665649,1,0,0,response7disk,0,-0.666687012,1,0,0,rectangle,0,-0.666687012,1,0,0,,3,1,0,0,0,-0.666687012,1,0,0,,0,2,2,46,1,46,first,,,,,,,,,,,,,,,,,,,,,,,,,,,,,,,,,,,,,,,,,,,,,,,,,,,,,,,,,,,,,,,,,
,,,,,,5789972670c76a00012433b3,62bbfb71dd33c6b4ecf35899,2022-06-29_09h12.58.739,Colour_Asymmetry_Pilot,2022.1.3,Win32,59.97001499,62bbe60bf3d75ef465d3e404,,,,,,,,,,,,,,,,,,,,threefour,,-4,0.7499,,,,,,,,,,,,,,,,,,,,,,,,,,,,,,,,,,"[0.04299999999999993,0.16060000000000008,-0.6628000000000001]","[-0.9216,-0.5529999999999999,-0.3962]",-24.66662598,76,1,0,0,response7disk,4,9.333312988,1,0,0,rectangle,4,9.333312988,1,0,0,,3,3,0.0012,0,4,9.333312988,1,0,0,,0,3,3,113,1,32,second,,,,,,,,,,,,,,,,,,,,,,,,,,,,,,,,,,,,,,,,,,,,,,,,,,,,,,,,,,,,,,,,,
,,,,,,5789972670c76a00012433b3,62bbfb71dd33c6b4ecf35899,2022-06-29_09h12.58.739,Colour_Asymmetry_Pilot,2022.1.3,Win32,59.97001499,62bbe60bf3d75ef465d3e404,,,,,,,,,,,,,,,,,,,,twoone,,-3,1.1668,,,,,,,,,,,,,,,,,,,,,,,,,,,,,,,,,,"[0.5449999999999999,-0.31000000000000005,-0.0354000000000001]","[0.22340000000000004,-0.9296,-0.7884]",-82.66662598,34,1,0,0,response7disk,-6.666625977,6.666656494,1,0,0,rectangle,-6.666625977,6.666656494,1,0,0,,3,2,0.0012,0,-6.666625977,6.666656494,1,0,0,,0,4,4,4,1,4,first,,,,,,,,,,,,,,,,,,,,,,,,,,,,,,,,,,,,,,,,,,,,,,,,,,,,,,,,,,,,,,,,,
,,,,,,5789972670c76a00012433b3,62bbfb71dd33c6b4ecf35899,2022-06-29_09h12.58.739,Colour_Asymmetry_Pilot,2022.1.3,Win32,59.97001499,62bbe60bf3d75ef465d3e404,,,,,,,,,,,,,,,,,,,,threeone,,-4,0.9667,,,,,,,,,,,,,,,,,,,,,,,,,,,,,,,,,,"[-0.4902000000000001,0.2704,-0.45899999999999996]","[0.7176,-0.906,-0.6864]",-26,71.33331299,1,0,0,response7disk,9.333374023,-6.666687012,1,0,0,rectangle,9.333374023,-6.666687012,1,0,0,,3,2,0.0001,0,9.333374023,-6.666687012,1,0,0,,0,5,5,51,1,51,first,,,,,,,,,,,,,,,,,,,,,,,,,,,,,,,,,,,,,,,,,,,,,,,,,,,,,,,,,,,,,,,,,
,,,,,,5789972670c76a00012433b3,62bbfb71dd33c6b4ecf35899,2022-06-29_09h12.58.739,Colour_Asymmetry_Pilot,2022.1.3,Win32,59.97001499,62bbe60bf3d75ef465d3e404,,,,,,,,,,,,,,,,,,,,onethree,,-4,0.6333,,,,,,,,,,,,,,,,,,,,,,,,,,,,,,,,,,"[0.9763999999999999,0.8588,-0.05900000000000005]","[0.05879999999999996,0.2784,0.5841999999999998]",-55.33331299,64.66665649,1,0,0,response7disk,4.666687012,0.666656494,1,0,0,rectangle,4.666687012,0.666656494,1,0,0,,3,2,0.0002,0,4.666687012,0.666656494,1,0,0,,0,6,6,95,1,14,second,,,,,,,,,,,,,,,,,,,,,,,,,,,,,,,,,,,,,,,,,,,,,,,,,,,,,,,,,,,,,,,,,
,,,,,,5789972670c76a00012433b3,62bbfb71dd33c6b4ecf35899,2022-06-29_09h12.58.739,Colour_Asymmetry_Pilot,2022.1.3,Win32,59.97001499,62bbe60bf3d75ef465d3e404,,,,,,,,,,,,,,,,,,,,onethree,,1,3.2,,,,,,,,,,,,,,,,,,,,,,,,,,,,,,,,,,"[0.3802000000000001,0.19199999999999995,-0.6394]","[0.37240000000000006,0.4980000000000002,-0.2864]",80,-94,1,0,0,response3disk,6,6,1,0,0,rectangle,6,6,1,0,0,,3,3,0.0013,0,6,6,1,0,0,,0,7,7,149,1,68,second,,,,,,,,,,,,,,,,,,,,,,,,,,,,,,,,,,,,,,,,,,,,,,,,,,,,,,,,,,,,,,,,,
,,,,,,5789972670c76a00012433b3,62bbfb71dd33c6b4ecf35899,2022-06-29_09h12.58.739,Colour_Asymmetry_Pilot,2022.1.3,Win32,59.97001499,62bbe60bf3d75ef465d3e404,,,,,,,,,,,,,,,,,,,,twoone,,2,3.5663,,,,,,,,,,,,,,,,,,,,,,,,,,,,,,,,,,"[-0.2942,-0.24719999999999998,-0.357]","[-0.7412000000000001,-0.08239999999999992,-0.6864]",53.33337402,-37.33334351,1,0,0,response3disk,15.33337402,-2.666687012,1,0,0,rectangle,15.33337402,-2.666687012,1,0,0,,3,3,0.0001,0,15.33337402,-2.666687012,1,0,0,,0,8,8,45,1,45,first,,,,,,,,,,,,,,,,,,,,,,,,,,,,,,,,,,,,,,,,,,,,,,,,,,,,,,,,,,,,,,,,,
,,,,,,5789972670c76a00012433b3,62bbfb71dd33c6b4ecf35899,2022-06-29_09h12.58.739,Colour_Asymmetry_Pilot,2022.1.3,Win32,59.97001499,62bbe60bf3d75ef465d3e404,,,,,,,,,,,,,,,,,,,,fourtwo,,-2,4.4167,,,,,,,,,,,,,,,,,,,,,,,,,,,,,,,,,,"[-0.9296,-0.12959999999999994,-0.043199999999999905]","[0.04299999999999993,0.16060000000000008,-0.6628000000000001]",-54.66662598,-22,1,0,0,response5disk,0.666687012,5.333312988,1,0,0,rectangle,0.666687012,5.333312988,1,0,0,,3,1,0.0012,0,0.666687012,5.333312988,1,0,0,,0,9,9,109,1,28,second,,,,,,,,,,,,,,,,,,,,,,,,,,,,,,,,,,,,,,,,,,,,,,,,,,,,,,,,,,,,,,,,,
,,,,,,5789972670c76a00012433b3,62bbfb71dd33c6b4ecf35899,2022-06-29_09h12.58.739,Colour_Asymmetry_Pilot,2022.1.3,Win32,59.97001499,62bbe60bf3d75ef465d3e404,,,,,,,,,,,,,,,,,,,,threeone,,2,3.0336,,,,,,,,,,,,,,,,,,,,,,,,,,,,,,,,,,"[-0.26280000000000003,-0.4746,-0.2158]","[-0.10599999999999998,-0.10599999999999998,0.5841999999999998]",91.33337402,-45.33334351,1,0,0,response3disk,-9.333312988,2.666656494,1,0,0,rectangle,-9.333312988,2.666656494,1,0,0,,3,3,0.0014,0,-9.333312988,2.666656494,1,0,0,,0,10,10,15,1,15,first,,,,,,,,,,,,,,,,,,,,,,,,,,,,,,,,,,,,,,,,,,,,,,,,,,,,,,,,,,,,,,,,,
,,,,,,5789972670c76a00012433b3,62bbfb71dd33c6b4ecf35899,2022-06-29_09h12.58.739,Colour_Asymmetry_Pilot,2022.1.3,Win32,59.97001499,62bbe60bf3d75ef465d3e404,,,,,,,,,,,,,,,,,,,,twofour,,-3,1.5169,,,,,,,,,,,,,,,,,,,,,,,,,,,,,,,,,,"[0.9763999999999999,0.30979999999999985,-0.6786]","[0.30180000000000007,-0.7884,-0.9844]",-63.33331299,33.33331299,1,0,0,response7disk,6.666687012,4.666656494,1,0,0,rectangle,6.666687012,4.666656494,1,0,0,,3,2,0.0013,0,6.666687012,4.666656494,1,0,0,,0,11,11,17,1,17,first,,,,,,,,,,,,,,,,,,,,,,,,,,,,,,,,,,,,,,,,,,,,,,,,,,,,,,,,,,,,,,,,,
,,,,,,5789972670c76a00012433b3,62bbfb71dd33c6b4ecf35899,2022-06-29_09h12.58.739,Colour_Asymmetry_Pilot,2022.1.3,Win32,59.97001499,62bbe60bf3d75ef465d3e404,,,,,,,,,,,,,,,,,,,,threefour,,2,2.7501,,,,,,,,,,,,,,,,,,,,,,,,,,,,,,,,,,"[0.04299999999999993,0.16060000000000008,-0.6628000000000001]","[0.3568,-0.20799999999999996,-0.9844]",69.33337402,-54,1,0,0,response3disk,9.333374023,-2.666687012,1,0,0,rectangle,9.333374023,-2.666687012,1,0,0,,3,2,0.0002,0,9.333374023,-2.666687012,1,0,0,,0,12,12,100,1,19,second,,,,,,,,,,,,,,,,,,,,,,,,,,,,,,,,,,,,,,,,,,,,,,,,,,,,,,,,,,,,,,,,,
,,,,,,5789972670c76a00012433b3,62bbfb71dd33c6b4ecf35899,2022-06-29_09h12.58.739,Colour_Asymmetry_Pilot,2022.1.3,Win32,59.97001499,62bbe60bf3d75ef465d3e404,,,,,,,,,,,,,,,,,,,,fourthree,,1,2.2002,,,,,,,,,,,,,,,,,,,,,,,,,,,,,,,,,,"[-0.45899999999999996,-0.3256,-0.9374]","[-0.24719999999999998,0.5213999999999999,-0.12959999999999994]",54.66668701,-74,1,0,0,response3disk,-12,7.333312988,1,0,0,rectangle,-12,7.333312988,1,0,0,,3,1,0.0013,0,-12,7.333312988,1,0,0,,0,13,13,33,1,33,first,,,,,,,,,,,,,,,,,,,,,,,,,,,,,,,,,,,,,,,,,,,,,,,,,,,,,,,,,,,,,,,,,
,,,,,,5789972670c76a00012433b3,62bbfb71dd33c6b4ecf35899,2022-06-29_09h12.58.739,Colour_Asymmetry_Pilot,2022.1.3,Win32,59.97001499,62bbe60bf3d75ef465d3e404,,,,,,,,,,,,,,,,,,,,fourtwo,,4,1.7335,,,,,,,,,,,,,,,,,,,,,,,,,,,,,,,,,,"[0.34099999999999997,0.12939999999999996,-0.9766]","[0.5528,0.7409999999999999,-0.71]",43.33337402,72,1,0,0,response1disk,21.33337402,2,1,0,0,rectangle,21.33337402,2,1,0,0,,3,2,0.0014,0,21.33337402,2,1,0,0,,0,14,14,148,1,67,second,,,,,,,,,,,,,,,,,,,,,,,,,,,,,,,,,,,,,,,,,,,,,,,,,,,,,,,,,,,,,,,,,
,,,,,,5789972670c76a00012433b3,62bbfb71dd33c6b4ecf35899,2022-06-29_09h12.58.739,Colour_Asymmetry_Pilot,2022.1.3,Win32,59.97001499,62bbe60bf3d75ef465d3e404,,,,,,,,,,,,,,,,,,,,threeone,,-2,2.7501,,,,,,,,,,,,,,,,,,,,,,,,,,,,,,,,,,"[0.05879999999999996,0.2784,0.5841999999999998]","[0.7018,0.7176,0.6155999999999999]",-68.66662598,-49.33334351,1,0,0,response5disk,-6.666625977,9.333312988,1,0,0,rectangle,-6.666625977,9.333312988,1,0,0,,3,1,0.0012,0,-6.666625977,9.333312988,1,0,0,,0,15,15,64,1,64,first,,,,,,,,,,,,,,,,,,,,,,,,,,,,,,,,,,,,,,,,,,,,,,,,,,,,,,,,,,,,,,,,,
,,,,,,5789972670c76a00012433b3,62bbfb71dd33c6b4ecf35899,2022-06-29_09h12.58.739,Colour_Asymmetry_Pilot,2022.1.3,Win32,59.97001499,62bbe60bf3d75ef465d3e404,,,,,,,,,,,,,,,,,,,,threefour,,-1,1.001,,,,,,,,,,,,,,,,,,,,,,,,,,,,,,,,,,"[0.22340000000000004,-0.9296,-0.7884]","[-0.9688,-0.38039999999999996,-0.41979999999999995]",-31.33331299,-76,1,0,0,response5disk,1.333374023,-8,1,0,0,rectangle,1.333374023,-8,1,0,0,,3,3,0.001,0,1.333374023,-8,1,0,0,,0,16,16,125,1,44,second,,,,,,,,,,,,,,,,,,,,,,,,,,,,,,,,,,,,,,,,,,,,,,,,,,,,,,,,,,,,,,,,,
,,,,,,5789972670c76a00012433b3,62bbfb71dd33c6b4ecf35899,2022-06-29_09h12.58.739,Colour_Asymmetry_Pilot,2022.1.3,Win32,59.97001499,62bbe60bf3d75ef465d3e404,,,,,,,,,,,,,,,,,,,,twofour,,-4,0.6334,,,,,,,,,,,,,,,,,,,,,,,,,,,,,,,,,,"[-0.20799999999999996,-0.655,-0.01980000000000004]","[0.796,0.2156,-0.27859999999999996]",-53.33331299,83.33331299,1,0,0,response7disk,-2.666625977,6,1,0,0,rectangle,-2.666625977,6,1,0,0,,3,2,0.0036,0,-2.666625977,6,1,0,0,,0,17,17,88,1,7,second,,,,,,,,,,,,,,,,,,,,,,,,,,,,,,,,,,,,,,,,,,,,,,,,,,,,,,,,,,,,,,,,,
