trials.thisRepN,trials.thisTrialN,trials.thisN,trials.thisIndex,trials.ran,Colourcodes,participant,session,date,expName,psychopyVersion,OS,frameRate,study_id,trials_4.thisRepN,trials_4.thisTrialN,trials_4.thisN,trials_4.thisIndex,trials_4.ran,StimulusPos,key_resp.keys,key_resp.rt,key_resp_2.keys,key_resp_2.rt,key_resp_15.keys,key_resp_15.rt,key_resp_17.keys,key_resp_17.rt,key_resp_9.keys,key_resp_9.rt,key_resp_10.keys,key_resp_10.rt,Circle1_col,Ecc,Circle2_col,similarity,response_time,mouse_5.x,mouse_5.y,mouse_5.leftButton,mouse_5.midButton,mouse_5.rightButton,mouse_5.clicked_name,mouse_10.x,mouse_10.y,mouse_10.leftButton,mouse_10.midButton,mouse_10.rightButton,mouse_10.clicked_name,mouse_7.x,mouse_7.y,mouse_7.leftButton,mouse_7.midButton,mouse_7.rightButton,mouse_7.clicked_name,catchprac,catchnumberprac,mouse_6.x,mouse_6.y,mouse_6.leftButton,mouse_6.midButton,mouse_6.rightButton,mouse_6.clicked_name,duringprac.thisRepN,duringprac.thisTrialN,duringprac.thisN,duringprac.thisIndex,duringprac.ran,key_resp_22.keys,key_resp_22.rt,Circle1_colour,Circle2_colour,mouse.x,mouse.y,mouse.leftButton,mouse.midButton,mouse.rightButton,mouse.clicked_name,mouse_2.x,mouse_2.y,mouse_2.leftButton,mouse_2.midButton,mouse_2.rightButton,mouse_2.clicked_name,mouse_3.x,mouse_3.y,mouse_3.leftButton,mouse_3.midButton,mouse_3.rightButton,catchresponse,catchnumber,response_time_catch,Catch,mouse_11.x,mouse_11.y,mouse_11.leftButton,mouse_11.midButton,mouse_11.rightButton,trials_2.thisRepN,trials_2.thisTrialN,trials_2.thisN,trials_2.thisIndex,trials_2.ran,Colourpair,Temporder,mouse_3.clicked_name,mouse_11.clicked_name,trials_3.thisRepN,trials_3.thisTrialN,trials_3.thisN,trials_3.thisIndex,trials_3.ran,key_resp_instr_Ishi.keys,key_resp_instr_Ishi.rt,Ishi_trial_keyresp.keys,Ishi_trial_keyresp.rt,Ishi_textbox.text,Ishi_loop.thisRepN,Ishi_loop.thisTrialN,Ishi_loop.thisN,Ishi_loop.thisIndex,Ishi_loop.ran,imageaddress,textbox.text,mouse_4.x,mouse_4.y,mouse_4.leftButton,mouse_4.midButton,mouse_4.rightButton,mouse_4.clicked_name,textbox_2.text,mouse_8.x,mouse_8.y,mouse_8.leftButton,mouse_8.midButton,mouse_8.rightButton,mouse_8.clicked_name,textbox_3.text,mouse_9.x,mouse_9.y,mouse_9.leftButton,mouse_9.midButton,mouse_9.rightButton,mouse_9.clicked_name,textbox_4.text,mouse_12.x,mouse_12.y,mouse_12.leftButton,mouse_12.midButton,mouse_12.rightButton,mouse_12.clicked_name,textbox_5.text,mouse_13.x,mouse_13.y,mouse_13.leftButton,mouse_13.midButton,mouse_13.rightButton,mouse_13.clicked_name,textbox_6.text,mouse_14.x,mouse_14.y,mouse_14.leftButton,mouse_14.midButton,mouse_14.rightButton,mouse_14.clicked_name,textbox_7.text,mouse_15.x,mouse_15.y,mouse_15.leftButton,mouse_15.midButton,mouse_15.rightButton,mouse_15.clicked_name
0,0,0,3,1,,60d5f605483d5fe184fcaad8,62bbf90de1b67965ba07d588,2022-06-29_09h39.13.010,Colour_Asymmetry_Pilot,2022.1.3,Win32,74.81110197,62bbe60bf3d75ef465d3e404,,,,,,,,,,,,,,,,,,,,,,,,,,,,,,,,,,,,,,,,,,,,,,,,,,,,,,,,,,,,,,,,,,,,,,,,,,,,,,,,,,,,,,,,,,,,,,,,,,,,,,,,,,,,,,,,,,,,,,,,,,,,,,,,,,,,,,,,,,,,,,,,,,,,,,,,,,,,,,
0,1,1,52,1,,60d5f605483d5fe184fcaad8,62bbf90de1b67965ba07d588,2022-06-29_09h39.13.010,Colour_Asymmetry_Pilot,2022.1.3,Win32,74.81110197,62bbe60bf3d75ef465d3e404,,,,,,,,,,,,,,,,,,,,,,,,,,,,,,,,,,,,,,,,,,,,,,,,,,,,,,,,,,,,,,,,,,,,,,,,,,,,,,,,,,,,,,,,,,,,,,,,,,,,,,,,,,,,,,,,,,,,,,,,,,,,,,,,,,,,,,,,,,,,,,,,,,,,,,,,,,,,,,
0,2,2,17,1,,60d5f605483d5fe184fcaad8,62bbf90de1b67965ba07d588,2022-06-29_09h39.13.010,Colour_Asymmetry_Pilot,2022.1.3,Win32,74.81110197,62bbe60bf3d75ef465d3e404,,,,,,,,,,,,,,,,,,,,,,,,,,,,,,,,,,,,,,,,,,,,,,,,,,,,,,,,,,,,,,,,,,,,,,,,,,,,,,,,,,,,,,,,,,,,,,,,,,,,,,,,,,,,,,,,,,,,,,,,,,,,,,,,,,,,,,,,,,,,,,,,,,,,,,,,,,,,,,
0,3,3,83,1,,60d5f605483d5fe184fcaad8,62bbf90de1b67965ba07d588,2022-06-29_09h39.13.010,Colour_Asymmetry_Pilot,2022.1.3,Win32,74.81110197,62bbe60bf3d75ef465d3e404,,,,,,,,,,,,,,,,,,,,,,,,,,,,,,,,,,,,,,,,,,,,,,,,,,,,,,,,,,,,,,,,,,,,,,,,,,,,,,,,,,,,,,,,,,,,,,,,,,,,,,,,,,,,,,,,,,,,,,,,,,,,,,,,,,,,,,,,,,,,,,,,,,,,,,,,,,,,,,
0,4,4,44,1,,60d5f605483d5fe184fcaad8,62bbf90de1b67965ba07d588,2022-06-29_09h39.13.010,Colour_Asymmetry_Pilot,2022.1.3,Win32,74.81110197,62bbe60bf3d75ef465d3e404,,,,,,,,,,,,,,,,,,,,,,,,,,,,,,,,,,,,,,,,,,,,,,,,,,,,,,,,,,,,,,,,,,,,,,,,,,,,,,,,,,,,,,,,,,,,,,,,,,,,,,,,,,,,,,,,,,,,,,,,,,,,,,,,,,,,,,,,,,,,,,,,,,,,,,,,,,,,,,
0,5,5,32,1,,60d5f605483d5fe184fcaad8,62bbf90de1b67965ba07d588,2022-06-29_09h39.13.010,Colour_Asymmetry_Pilot,2022.1.3,Win32,74.81110197,62bbe60bf3d75ef465d3e404,,,,,,,,,,,,,,,,,,,,,,,,,,,,,,,,,,,,,,,,,,,,,,,,,,,,,,,,,,,,,,,,,,,,,,,,,,,,,,,,,,,,,,,,,,,,,,,,,,,,,,,,,,,,,,,,,,,,,,,,,,,,,,,,,,,,,,,,,,,,,,,,,,,,,,,,,,,,,,
0,6,6,74,1,,60d5f605483d5fe184fcaad8,62bbf90de1b67965ba07d588,2022-06-29_09h39.13.010,Colour_Asymmetry_Pilot,2022.1.3,Win32,74.81110197,62bbe60bf3d75ef465d3e404,,,,,,,,,,,,,,,,,,,,,,,,,,,,,,,,,,,,,,,,,,,,,,,,,,,,,,,,,,,,,,,,,,,,,,,,,,,,,,,,,,,,,,,,,,,,,,,,,,,,,,,,,,,,,,,,,,,,,,,,,,,,,,,,,,,,,,,,,,,,,,,,,,,,,,,,,,,,,,
0,7,7,0,1,,60d5f605483d5fe184fcaad8,62bbf90de1b67965ba07d588,2022-06-29_09h39.13.010,Colour_Asymmetry_Pilot,2022.1.3,Win32,74.81110197,62bbe60bf3d75ef465d3e404,,,,,,,,,,,,,,,,,,,,,,,,,,,,,,,,,,,,,,,,,,,,,,,,,,,,,,,,,,,,,,,,,,,,,,,,,,,,,,,,,,,,,,,,,,,,,,,,,,,,,,,,,,,,,,,,,,,,,,,,,,,,,,,,,,,,,,,,,,,,,,,,,,,,,,,,,,,,,,
0,8,8,25,1,,60d5f605483d5fe184fcaad8,62bbf90de1b67965ba07d588,2022-06-29_09h39.13.010,Colour_Asymmetry_Pilot,2022.1.3,Win32,74.81110197,62bbe60bf3d75ef465d3e404,,,,,,,,,,,,,,,,,,,,,,,,,,,,,,,,,,,,,,,,,,,,,,,,,,,,,,,,,,,,,,,,,,,,,,,,,,,,,,,,,,,,,,,,,,,,,,,,,,,,,,,,,,,,,,,,,,,,,,,,,,,,,,,,,,,,,,,,,,,,,,,,,,,,,,,,,,,,,,
0,9,9,65,1,,60d5f605483d5fe184fcaad8,62bbf90de1b67965ba07d588,2022-06-29_09h39.13.010,Colour_Asymmetry_Pilot,2022.1.3,Win32,74.81110197,62bbe60bf3d75ef465d3e404,,,,,,,,,,,,,,,,,,,,,,,,,,,,,,,,,,,,,,,,,,,,,,,,,,,,,,,,,,,,,,,,,,,,,,,,,,,,,,,,,,,,,,,,,,,,,,,,,,,,,,,,,,,,,,,,,,,,,,,,,,,,,,,,,,,,,,,,,,,,,,,,,,,,,,,,,,,,,,
0,10,10,35,1,,60d5f605483d5fe184fcaad8,62bbf90de1b67965ba07d588,2022-06-29_09h39.13.010,Colour_Asymmetry_Pilot,2022.1.3,Win32,74.81110197,62bbe60bf3d75ef465d3e404,,,,,,,,,,,,,,,,,,,,,,,,,,,,,,,,,,,,,,,,,,,,,,,,,,,,,,,,,,,,,,,,,,,,,,,,,,,,,,,,,,,,,,,,,,,,,,,,,,,,,,,,,,,,,,,,,,,,,,,,,,,,,,,,,,,,,,,,,,,,,,,,,,,,,,,,,,,,,,
0,11,11,61,1,,60d5f605483d5fe184fcaad8,62bbf90de1b67965ba07d588,2022-06-29_09h39.13.010,Colour_Asymmetry_Pilot,2022.1.3,Win32,74.81110197,62bbe60bf3d75ef465d3e404,,,,,,,,,,,,,,,,,,,,,,,,,,,,,,,,,,,,,,,,,,,,,,,,,,,,,,,,,,,,,,,,,,,,,,,,,,,,,,,,,,,,,,,,,,,,,,,,,,,,,,,,,,,,,,,,,,,,,,,,,,,,,,,,,,,,,,,,,,,,,,,,,,,,,,,,,,,,,,
0,12,12,1,1,,60d5f605483d5fe184fcaad8,62bbf90de1b67965ba07d588,2022-06-29_09h39.13.010,Colour_Asymmetry_Pilot,2022.1.3,Win32,74.81110197,62bbe60bf3d75ef465d3e404,,,,,,,,,,,,,,,,,,,,,,,,,,,,,,,,,,,,,,,,,,,,,,,,,,,,,,,,,,,,,,,,,,,,,,,,,,,,,,,,,,,,,,,,,,,,,,,,,,,,,,,,,,,,,,,,,,,,,,,,,,,,,,,,,,,,,,,,,,,,,,,,,,,,,,,,,,,,,,
0,13,13,73,1,,60d5f605483d5fe184fcaad8,62bbf90de1b67965ba07d588,2022-06-29_09h39.13.010,Colour_Asymmetry_Pilot,2022.1.3,Win32,74.81110197,62bbe60bf3d75ef465d3e404,,,,,,,,,,,,,,,,,,,,,,,,,,,,,,,,,,,,,,,,,,,,,,,,,,,,,,,,,,,,,,,,,,,,,,,,,,,,,,,,,,,,,,,,,,,,,,,,,,,,,,,,,,,,,,,,,,,,,,,,,,,,,,,,,,,,,,,,,,,,,,,,,,,,,,,,,,,,,,
0,14,14,5,1,,60d5f605483d5fe184fcaad8,62bbf90de1b67965ba07d588,2022-06-29_09h39.13.010,Colour_Asymmetry_Pilot,2022.1.3,Win32,74.81110197,62bbe60bf3d75ef465d3e404,,,,,,,,,,,,,,,,,,,,,,,,,,,,,,,,,,,,,,,,,,,,,,,,,,,,,,,,,,,,,,,,,,,,,,,,,,,,,,,,,,,,,,,,,,,,,,,,,,,,,,,,,,,,,,,,,,,,,,,,,,,,,,,,,,,,,,,,,,,,,,,,,,,,,,,,,,,,,,
0,15,15,77,1,,60d5f605483d5fe184fcaad8,62bbf90de1b67965ba07d588,2022-06-29_09h39.13.010,Colour_Asymmetry_Pilot,2022.1.3,Win32,74.81110197,62bbe60bf3d75ef465d3e404,,,,,,,,,,,,,,,,,,,,,,,,,,,,,,,,,,,,,,,,,,,,,,,,,,,,,,,,,,,,,,,,,,,,,,,,,,,,,,,,,,,,,,,,,,,,,,,,,,,,,,,,,,,,,,,,,,,,,,,,,,,,,,,,,,,,,,,,,,,,,,,,,,,,,,,,,,,,,,
0,16,16,16,1,,60d5f605483d5fe184fcaad8,62bbf90de1b67965ba07d588,2022-06-29_09h39.13.010,Colour_Asymmetry_Pilot,2022.1.3,Win32,74.81110197,62bbe60bf3d75ef465d3e404,,,,,,,,,,,,,,,,,,,,,,,,,,,,,,,,,,,,,,,,,,,,,,,,,,,,,,,,,,,,,,,,,,,,,,,,,,,,,,,,,,,,,,,,,,,,,,,,,,,,,,,,,,,,,,,,,,,,,,,,,,,,,,,,,,,,,,,,,,,,,,,,,,,,,,,,,,,,,,
0,17,17,37,1,,60d5f605483d5fe184fcaad8,62bbf90de1b67965ba07d588,2022-06-29_09h39.13.010,Colour_Asymmetry_Pilot,2022.1.3,Win32,74.81110197,62bbe60bf3d75ef465d3e404,,,,,,,,,,,,,,,,,,,,,,,,,,,,,,,,,,,,,,,,,,,,,,,,,,,,,,,,,,,,,,,,,,,,,,,,,,,,,,,,,,,,,,,,,,,,,,,,,,,,,,,,,,,,,,,,,,,,,,,,,,,,,,,,,,,,,,,,,,,,,,,,,,,,,,,,,,,,,,
0,18,18,87,1,,60d5f605483d5fe184fcaad8,62bbf90de1b67965ba07d588,2022-06-29_09h39.13.010,Colour_Asymmetry_Pilot,2022.1.3,Win32,74.81110197,62bbe60bf3d75ef465d3e404,,,,,,,,,,,,,,,,,,,,,,,,,,,,,,,,,,,,,,,,,,,,,,,,,,,,,,,,,,,,,,,,,,,,,,,,,,,,,,,,,,,,,,,,,,,,,,,,,,,,,,,,,,,,,,,,,,,,,,,,,,,,,,,,,,,,,,,,,,,,,,,,,,,,,,,,,,,,,,
0,19,19,10,1,,60d5f605483d5fe184fcaad8,62bbf90de1b67965ba07d588,2022-06-29_09h39.13.010,Colour_Asymmetry_Pilot,2022.1.3,Win32,74.81110197,62bbe60bf3d75ef465d3e404,,,,,,,,,,,,,,,,,,,,,,,,,,,,,,,,,,,,,,,,,,,,,,,,,,,,,,,,,,,,,,,,,,,,,,,,,,,,,,,,,,,,,,,,,,,,,,,,,,,,,,,,,,,,,,,,,,,,,,,,,,,,,,,,,,,,,,,,,,,,,,,,,,,,,,,,,,,,,,
0,20,20,47,1,,60d5f605483d5fe184fcaad8,62bbf90de1b67965ba07d588,2022-06-29_09h39.13.010,Colour_Asymmetry_Pilot,2022.1.3,Win32,74.81110197,62bbe60bf3d75ef465d3e404,,,,,,,,,,,,,,,,,,,,,,,,,,,,,,,,,,,,,,,,,,,,,,,,,,,,,,,,,,,,,,,,,,,,,,,,,,,,,,,,,,,,,,,,,,,,,,,,,,,,,,,,,,,,,,,,,,,,,,,,,,,,,,,,,,,,,,,,,,,,,,,,,,,,,,,,,,,,,,
0,21,21,7,1,,60d5f605483d5fe184fcaad8,62bbf90de1b67965ba07d588,2022-06-29_09h39.13.010,Colour_Asymmetry_Pilot,2022.1.3,Win32,74.81110197,62bbe60bf3d75ef465d3e404,,,,,,,,,,,,,,,,,,,,,,,,,,,,,,,,,,,,,,,,,,,,,,,,,,,,,,,,,,,,,,,,,,,,,,,,,,,,,,,,,,,,,,,,,,,,,,,,,,,,,,,,,,,,,,,,,,,,,,,,,,,,,,,,,,,,,,,,,,,,,,,,,,,,,,,,,,,,,,
0,22,22,36,1,,60d5f605483d5fe184fcaad8,62bbf90de1b67965ba07d588,2022-06-29_09h39.13.010,Colour_Asymmetry_Pilot,2022.1.3,Win32,74.81110197,62bbe60bf3d75ef465d3e404,,,,,,,,,,,,,,,,,,,,,,,,,,,,,,,,,,,,,,,,,,,,,,,,,,,,,,,,,,,,,,,,,,,,,,,,,,,,,,,,,,,,,,,,,,,,,,,,,,,,,,,,,,,,,,,,,,,,,,,,,,,,,,,,,,,,,,,,,,,,,,,,,,,,,,,,,,,,,,
0,23,23,53,1,,60d5f605483d5fe184fcaad8,62bbf90de1b67965ba07d588,2022-06-29_09h39.13.010,Colour_Asymmetry_Pilot,2022.1.3,Win32,74.81110197,62bbe60bf3d75ef465d3e404,,,,,,,,,,,,,,,,,,,,,,,,,,,,,,,,,,,,,,,,,,,,,,,,,,,,,,,,,,,,,,,,,,,,,,,,,,,,,,,,,,,,,,,,,,,,,,,,,,,,,,,,,,,,,,,,,,,,,,,,,,,,,,,,,,,,,,,,,,,,,,,,,,,,,,,,,,,,,,
0,24,24,28,1,,60d5f605483d5fe184fcaad8,62bbf90de1b67965ba07d588,2022-06-29_09h39.13.010,Colour_Asymmetry_Pilot,2022.1.3,Win32,74.81110197,62bbe60bf3d75ef465d3e404,,,,,,,,,,,,,,,,,,,,,,,,,,,,,,,,,,,,,,,,,,,,,,,,,,,,,,,,,,,,,,,,,,,,,,,,,,,,,,,,,,,,,,,,,,,,,,,,,,,,,,,,,,,,,,,,,,,,,,,,,,,,,,,,,,,,,,,,,,,,,,,,,,,,,,,,,,,,,,
0,25,25,43,1,,60d5f605483d5fe184fcaad8,62bbf90de1b67965ba07d588,2022-06-29_09h39.13.010,Colour_Asymmetry_Pilot,2022.1.3,Win32,74.81110197,62bbe60bf3d75ef465d3e404,,,,,,,,,,,,,,,,,,,,,,,,,,,,,,,,,,,,,,,,,,,,,,,,,,,,,,,,,,,,,,,,,,,,,,,,,,,,,,,,,,,,,,,,,,,,,,,,,,,,,,,,,,,,,,,,,,,,,,,,,,,,,,,,,,,,,,,,,,,,,,,,,,,,,,,,,,,,,,
0,26,26,20,1,,60d5f605483d5fe184fcaad8,62bbf90de1b67965ba07d588,2022-06-29_09h39.13.010,Colour_Asymmetry_Pilot,2022.1.3,Win32,74.81110197,62bbe60bf3d75ef465d3e404,,,,,,,,,,,,,,,,,,,,,,,,,,,,,,,,,,,,,,,,,,,,,,,,,,,,,,,,,,,,,,,,,,,,,,,,,,,,,,,,,,,,,,,,,,,,,,,,,,,,,,,,,,,,,,,,,,,,,,,,,,,,,,,,,,,,,,,,,,,,,,,,,,,,,,,,,,,,,,
0,27,27,88,1,,60d5f605483d5fe184fcaad8,62bbf90de1b67965ba07d588,2022-06-29_09h39.13.010,Colour_Asymmetry_Pilot,2022.1.3,Win32,74.81110197,62bbe60bf3d75ef465d3e404,,,,,,,,,,,,,,,,,,,,,,,,,,,,,,,,,,,,,,,,,,,,,,,,,,,,,,,,,,,,,,,,,,,,,,,,,,,,,,,,,,,,,,,,,,,,,,,,,,,,,,,,,,,,,,,,,,,,,,,,,,,,,,,,,,,,,,,,,,,,,,,,,,,,,,,,,,,,,,
0,28,28,41,1,,60d5f605483d5fe184fcaad8,62bbf90de1b67965ba07d588,2022-06-29_09h39.13.010,Colour_Asymmetry_Pilot,2022.1.3,Win32,74.81110197,62bbe60bf3d75ef465d3e404,,,,,,,,,,,,,,,,,,,,,,,,,,,,,,,,,,,,,,,,,,,,,,,,,,,,,,,,,,,,,,,,,,,,,,,,,,,,,,,,,,,,,,,,,,,,,,,,,,,,,,,,,,,,,,,,,,,,,,,,,,,,,,,,,,,,,,,,,,,,,,,,,,,,,,,,,,,,,,
0,29,29,22,1,,60d5f605483d5fe184fcaad8,62bbf90de1b67965ba07d588,2022-06-29_09h39.13.010,Colour_Asymmetry_Pilot,2022.1.3,Win32,74.81110197,62bbe60bf3d75ef465d3e404,,,,,,,,,,,,,,,,,,,,,,,,,,,,,,,,,,,,,,,,,,,,,,,,,,,,,,,,,,,,,,,,,,,,,,,,,,,,,,,,,,,,,,,,,,,,,,,,,,,,,,,,,,,,,,,,,,,,,,,,,,,,,,,,,,,,,,,,,,,,,,,,,,,,,,,,,,,,,,
0,30,30,62,1,,60d5f605483d5fe184fcaad8,62bbf90de1b67965ba07d588,2022-06-29_09h39.13.010,Colour_Asymmetry_Pilot,2022.1.3,Win32,74.81110197,62bbe60bf3d75ef465d3e404,,,,,,,,,,,,,,,,,,,,,,,,,,,,,,,,,,,,,,,,,,,,,,,,,,,,,,,,,,,,,,,,,,,,,,,,,,,,,,,,,,,,,,,,,,,,,,,,,,,,,,,,,,,,,,,,,,,,,,,,,,,,,,,,,,,,,,,,,,,,,,,,,,,,,,,,,,,,,,
0,31,31,75,1,,60d5f605483d5fe184fcaad8,62bbf90de1b67965ba07d588,2022-06-29_09h39.13.010,Colour_Asymmetry_Pilot,2022.1.3,Win32,74.81110197,62bbe60bf3d75ef465d3e404,,,,,,,,,,,,,,,,,,,,,,,,,,,,,,,,,,,,,,,,,,,,,,,,,,,,,,,,,,,,,,,,,,,,,,,,,,,,,,,,,,,,,,,,,,,,,,,,,,,,,,,,,,,,,,,,,,,,,,,,,,,,,,,,,,,,,,,,,,,,,,,,,,,,,,,,,,,,,,
0,32,32,70,1,,60d5f605483d5fe184fcaad8,62bbf90de1b67965ba07d588,2022-06-29_09h39.13.010,Colour_Asymmetry_Pilot,2022.1.3,Win32,74.81110197,62bbe60bf3d75ef465d3e404,,,,,,,,,,,,,,,,,,,,,,,,,,,,,,,,,,,,,,,,,,,,,,,,,,,,,,,,,,,,,,,,,,,,,,,,,,,,,,,,,,,,,,,,,,,,,,,,,,,,,,,,,,,,,,,,,,,,,,,,,,,,,,,,,,,,,,,,,,,,,,,,,,,,,,,,,,,,,,
0,33,33,86,1,,60d5f605483d5fe184fcaad8,62bbf90de1b67965ba07d588,2022-06-29_09h39.13.010,Colour_Asymmetry_Pilot,2022.1.3,Win32,74.81110197,62bbe60bf3d75ef465d3e404,,,,,,,,,,,,,,,,,,,,,,,,,,,,,,,,,,,,,,,,,,,,,,,,,,,,,,,,,,,,,,,,,,,,,,,,,,,,,,,,,,,,,,,,,,,,,,,,,,,,,,,,,,,,,,,,,,,,,,,,,,,,,,,,,,,,,,,,,,,,,,,,,,,,,,,,,,,,,,
0,34,34,24,1,,60d5f605483d5fe184fcaad8,62bbf90de1b67965ba07d588,2022-06-29_09h39.13.010,Colour_Asymmetry_Pilot,2022.1.3,Win32,74.81110197,62bbe60bf3d75ef465d3e404,,,,,,,,,,,,,,,,,,,,,,,,,,,,,,,,,,,,,,,,,,,,,,,,,,,,,,,,,,,,,,,,,,,,,,,,,,,,,,,,,,,,,,,,,,,,,,,,,,,,,,,,,,,,,,,,,,,,,,,,,,,,,,,,,,,,,,,,,,,,,,,,,,,,,,,,,,,,,,
0,35,35,14,1,,60d5f605483d5fe184fcaad8,62bbf90de1b67965ba07d588,2022-06-29_09h39.13.010,Colour_Asymmetry_Pilot,2022.1.3,Win32,74.81110197,62bbe60bf3d75ef465d3e404,,,,,,,,,,,,,,,,,,,,,,,,,,,,,,,,,,,,,,,,,,,,,,,,,,,,,,,,,,,,,,,,,,,,,,,,,,,,,,,,,,,,,,,,,,,,,,,,,,,,,,,,,,,,,,,,,,,,,,,,,,,,,,,,,,,,,,,,,,,,,,,,,,,,,,,,,,,,,,
0,36,36,89,1,,60d5f605483d5fe184fcaad8,62bbf90de1b67965ba07d588,2022-06-29_09h39.13.010,Colour_Asymmetry_Pilot,2022.1.3,Win32,74.81110197,62bbe60bf3d75ef465d3e404,,,,,,,,,,,,,,,,,,,,,,,,,,,,,,,,,,,,,,,,,,,,,,,,,,,,,,,,,,,,,,,,,,,,,,,,,,,,,,,,,,,,,,,,,,,,,,,,,,,,,,,,,,,,,,,,,,,,,,,,,,,,,,,,,,,,,,,,,,,,,,,,,,,,,,,,,,,,,,
0,37,37,90,1,,60d5f605483d5fe184fcaad8,62bbf90de1b67965ba07d588,2022-06-29_09h39.13.010,Colour_Asymmetry_Pilot,2022.1.3,Win32,74.81110197,62bbe60bf3d75ef465d3e404,,,,,,,,,,,,,,,,,,,,,,,,,,,,,,,,,,,,,,,,,,,,,,,,,,,,,,,,,,,,,,,,,,,,,,,,,,,,,,,,,,,,,,,,,,,,,,,,,,,,,,,,,,,,,,,,,,,,,,,,,,,,,,,,,,,,,,,,,,,,,,,,,,,,,,,,,,,,,,
0,38,38,40,1,,60d5f605483d5fe184fcaad8,62bbf90de1b67965ba07d588,2022-06-29_09h39.13.010,Colour_Asymmetry_Pilot,2022.1.3,Win32,74.81110197,62bbe60bf3d75ef465d3e404,,,,,,,,,,,,,,,,,,,,,,,,,,,,,,,,,,,,,,,,,,,,,,,,,,,,,,,,,,,,,,,,,,,,,,,,,,,,,,,,,,,,,,,,,,,,,,,,,,,,,,,,,,,,,,,,,,,,,,,,,,,,,,,,,,,,,,,,,,,,,,,,,,,,,,,,,,,,,,
0,39,39,18,1,,60d5f605483d5fe184fcaad8,62bbf90de1b67965ba07d588,2022-06-29_09h39.13.010,Colour_Asymmetry_Pilot,2022.1.3,Win32,74.81110197,62bbe60bf3d75ef465d3e404,,,,,,,,,,,,,,,,,,,,,,,,,,,,,,,,,,,,,,,,,,,,,,,,,,,,,,,,,,,,,,,,,,,,,,,,,,,,,,,,,,,,,,,,,,,,,,,,,,,,,,,,,,,,,,,,,,,,,,,,,,,,,,,,,,,,,,,,,,,,,,,,,,,,,,,,,,,,,,
0,40,40,69,1,,60d5f605483d5fe184fcaad8,62bbf90de1b67965ba07d588,2022-06-29_09h39.13.010,Colour_Asymmetry_Pilot,2022.1.3,Win32,74.81110197,62bbe60bf3d75ef465d3e404,,,,,,,,,,,,,,,,,,,,,,,,,,,,,,,,,,,,,,,,,,,,,,,,,,,,,,,,,,,,,,,,,,,,,,,,,,,,,,,,,,,,,,,,,,,,,,,,,,,,,,,,,,,,,,,,,,,,,,,,,,,,,,,,,,,,,,,,,,,,,,,,,,,,,,,,,,,,,,
0,41,41,11,1,,60d5f605483d5fe184fcaad8,62bbf90de1b67965ba07d588,2022-06-29_09h39.13.010,Colour_Asymmetry_Pilot,2022.1.3,Win32,74.81110197,62bbe60bf3d75ef465d3e404,,,,,,,,,,,,,,,,,,,,,,,,,,,,,,,,,,,,,,,,,,,,,,,,,,,,,,,,,,,,,,,,,,,,,,,,,,,,,,,,,,,,,,,,,,,,,,,,,,,,,,,,,,,,,,,,,,,,,,,,,,,,,,,,,,,,,,,,,,,,,,,,,,,,,,,,,,,,,,
0,42,42,34,1,,60d5f605483d5fe184fcaad8,62bbf90de1b67965ba07d588,2022-06-29_09h39.13.010,Colour_Asymmetry_Pilot,2022.1.3,Win32,74.81110197,62bbe60bf3d75ef465d3e404,,,,,,,,,,,,,,,,,,,,,,,,,,,,,,,,,,,,,,,,,,,,,,,,,,,,,,,,,,,,,,,,,,,,,,,,,,,,,,,,,,,,,,,,,,,,,,,,,,,,,,,,,,,,,,,,,,,,,,,,,,,,,,,,,,,,,,,,,,,,,,,,,,,,,,,,,,,,,,
0,43,43,2,1,,60d5f605483d5fe184fcaad8,62bbf90de1b67965ba07d588,2022-06-29_09h39.13.010,Colour_Asymmetry_Pilot,2022.1.3,Win32,74.81110197,62bbe60bf3d75ef465d3e404,,,,,,,,,,,,,,,,,,,,,,,,,,,,,,,,,,,,,,,,,,,,,,,,,,,,,,,,,,,,,,,,,,,,,,,,,,,,,,,,,,,,,,,,,,,,,,,,,,,,,,,,,,,,,,,,,,,,,,,,,,,,,,,,,,,,,,,,,,,,,,,,,,,,,,,,,,,,,,
0,44,44,76,1,,60d5f605483d5fe184fcaad8,62bbf90de1b67965ba07d588,2022-06-29_09h39.13.010,Colour_Asymmetry_Pilot,2022.1.3,Win32,74.81110197,62bbe60bf3d75ef465d3e404,,,,,,,,,,,,,,,,,,,,,,,,,,,,,,,,,,,,,,,,,,,,,,,,,,,,,,,,,,,,,,,,,,,,,,,,,,,,,,,,,,,,,,,,,,,,,,,,,,,,,,,,,,,,,,,,,,,,,,,,,,,,,,,,,,,,,,,,,,,,,,,,,,,,,,,,,,,,,,
0,45,45,9,1,,60d5f605483d5fe184fcaad8,62bbf90de1b67965ba07d588,2022-06-29_09h39.13.010,Colour_Asymmetry_Pilot,2022.1.3,Win32,74.81110197,62bbe60bf3d75ef465d3e404,,,,,,,,,,,,,,,,,,,,,,,,,,,,,,,,,,,,,,,,,,,,,,,,,,,,,,,,,,,,,,,,,,,,,,,,,,,,,,,,,,,,,,,,,,,,,,,,,,,,,,,,,,,,,,,,,,,,,,,,,,,,,,,,,,,,,,,,,,,,,,,,,,,,,,,,,,,,,,
0,46,46,42,1,,60d5f605483d5fe184fcaad8,62bbf90de1b67965ba07d588,2022-06-29_09h39.13.010,Colour_Asymmetry_Pilot,2022.1.3,Win32,74.81110197,62bbe60bf3d75ef465d3e404,,,,,,,,,,,,,,,,,,,,,,,,,,,,,,,,,,,,,,,,,,,,,,,,,,,,,,,,,,,,,,,,,,,,,,,,,,,,,,,,,,,,,,,,,,,,,,,,,,,,,,,,,,,,,,,,,,,,,,,,,,,,,,,,,,,,,,,,,,,,,,,,,,,,,,,,,,,,,,
0,47,47,27,1,,60d5f605483d5fe184fcaad8,62bbf90de1b67965ba07d588,2022-06-29_09h39.13.010,Colour_Asymmetry_Pilot,2022.1.3,Win32,74.81110197,62bbe60bf3d75ef465d3e404,,,,,,,,,,,,,,,,,,,,,,,,,,,,,,,,,,,,,,,,,,,,,,,,,,,,,,,,,,,,,,,,,,,,,,,,,,,,,,,,,,,,,,,,,,,,,,,,,,,,,,,,,,,,,,,,,,,,,,,,,,,,,,,,,,,,,,,,,,,,,,,,,,,,,,,,,,,,,,
0,48,48,80,1,,60d5f605483d5fe184fcaad8,62bbf90de1b67965ba07d588,2022-06-29_09h39.13.010,Colour_Asymmetry_Pilot,2022.1.3,Win32,74.81110197,62bbe60bf3d75ef465d3e404,,,,,,,,,,,,,,,,,,,,,,,,,,,,,,,,,,,,,,,,,,,,,,,,,,,,,,,,,,,,,,,,,,,,,,,,,,,,,,,,,,,,,,,,,,,,,,,,,,,,,,,,,,,,,,,,,,,,,,,,,,,,,,,,,,,,,,,,,,,,,,,,,,,,,,,,,,,,,,
0,49,49,64,1,,60d5f605483d5fe184fcaad8,62bbf90de1b67965ba07d588,2022-06-29_09h39.13.010,Colour_Asymmetry_Pilot,2022.1.3,Win32,74.81110197,62bbe60bf3d75ef465d3e404,,,,,,,,,,,,,,,,,,,,,,,,,,,,,,,,,,,,,,,,,,,,,,,,,,,,,,,,,,,,,,,,,,,,,,,,,,,,,,,,,,,,,,,,,,,,,,,,,,,,,,,,,,,,,,,,,,,,,,,,,,,,,,,,,,,,,,,,,,,,,,,,,,,,,,,,,,,,,,
0,50,50,79,1,,60d5f605483d5fe184fcaad8,62bbf90de1b67965ba07d588,2022-06-29_09h39.13.010,Colour_Asymmetry_Pilot,2022.1.3,Win32,74.81110197,62bbe60bf3d75ef465d3e404,,,,,,,,,,,,,,,,,,,,,,,,,,,,,,,,,,,,,,,,,,,,,,,,,,,,,,,,,,,,,,,,,,,,,,,,,,,,,,,,,,,,,,,,,,,,,,,,,,,,,,,,,,,,,,,,,,,,,,,,,,,,,,,,,,,,,,,,,,,,,,,,,,,,,,,,,,,,,,
0,51,51,48,1,,60d5f605483d5fe184fcaad8,62bbf90de1b67965ba07d588,2022-06-29_09h39.13.010,Colour_Asymmetry_Pilot,2022.1.3,Win32,74.81110197,62bbe60bf3d75ef465d3e404,,,,,,,,,,,,,,,,,,,,,,,,,,,,,,,,,,,,,,,,,,,,,,,,,,,,,,,,,,,,,,,,,,,,,,,,,,,,,,,,,,,,,,,,,,,,,,,,,,,,,,,,,,,,,,,,,,,,,,,,,,,,,,,,,,,,,,,,,,,,,,,,,,,,,,,,,,,,,,
0,52,52,13,1,,60d5f605483d5fe184fcaad8,62bbf90de1b67965ba07d588,2022-06-29_09h39.13.010,Colour_Asymmetry_Pilot,2022.1.3,Win32,74.81110197,62bbe60bf3d75ef465d3e404,,,,,,,,,,,,,,,,,,,,,,,,,,,,,,,,,,,,,,,,,,,,,,,,,,,,,,,,,,,,,,,,,,,,,,,,,,,,,,,,,,,,,,,,,,,,,,,,,,,,,,,,,,,,,,,,,,,,,,,,,,,,,,,,,,,,,,,,,,,,,,,,,,,,,,,,,,,,,,
0,53,53,26,1,,60d5f605483d5fe184fcaad8,62bbf90de1b67965ba07d588,2022-06-29_09h39.13.010,Colour_Asymmetry_Pilot,2022.1.3,Win32,74.81110197,62bbe60bf3d75ef465d3e404,,,,,,,,,,,,,,,,,,,,,,,,,,,,,,,,,,,,,,,,,,,,,,,,,,,,,,,,,,,,,,,,,,,,,,,,,,,,,,,,,,,,,,,,,,,,,,,,,,,,,,,,,,,,,,,,,,,,,,,,,,,,,,,,,,,,,,,,,,,,,,,,,,,,,,,,,,,,,,
0,54,54,46,1,,60d5f605483d5fe184fcaad8,62bbf90de1b67965ba07d588,2022-06-29_09h39.13.010,Colour_Asymmetry_Pilot,2022.1.3,Win32,74.81110197,62bbe60bf3d75ef465d3e404,,,,,,,,,,,,,,,,,,,,,,,,,,,,,,,,,,,,,,,,,,,,,,,,,,,,,,,,,,,,,,,,,,,,,,,,,,,,,,,,,,,,,,,,,,,,,,,,,,,,,,,,,,,,,,,,,,,,,,,,,,,,,,,,,,,,,,,,,,,,,,,,,,,,,,,,,,,,,,
0,55,55,51,1,,60d5f605483d5fe184fcaad8,62bbf90de1b67965ba07d588,2022-06-29_09h39.13.010,Colour_Asymmetry_Pilot,2022.1.3,Win32,74.81110197,62bbe60bf3d75ef465d3e404,,,,,,,,,,,,,,,,,,,,,,,,,,,,,,,,,,,,,,,,,,,,,,,,,,,,,,,,,,,,,,,,,,,,,,,,,,,,,,,,,,,,,,,,,,,,,,,,,,,,,,,,,,,,,,,,,,,,,,,,,,,,,,,,,,,,,,,,,,,,,,,,,,,,,,,,,,,,,,
0,56,56,12,1,,60d5f605483d5fe184fcaad8,62bbf90de1b67965ba07d588,2022-06-29_09h39.13.010,Colour_Asymmetry_Pilot,2022.1.3,Win32,74.81110197,62bbe60bf3d75ef465d3e404,,,,,,,,,,,,,,,,,,,,,,,,,,,,,,,,,,,,,,,,,,,,,,,,,,,,,,,,,,,,,,,,,,,,,,,,,,,,,,,,,,,,,,,,,,,,,,,,,,,,,,,,,,,,,,,,,,,,,,,,,,,,,,,,,,,,,,,,,,,,,,,,,,,,,,,,,,,,,,
0,57,57,39,1,,60d5f605483d5fe184fcaad8,62bbf90de1b67965ba07d588,2022-06-29_09h39.13.010,Colour_Asymmetry_Pilot,2022.1.3,Win32,74.81110197,62bbe60bf3d75ef465d3e404,,,,,,,,,,,,,,,,,,,,,,,,,,,,,,,,,,,,,,,,,,,,,,,,,,,,,,,,,,,,,,,,,,,,,,,,,,,,,,,,,,,,,,,,,,,,,,,,,,,,,,,,,,,,,,,,,,,,,,,,,,,,,,,,,,,,,,,,,,,,,,,,,,,,,,,,,,,,,,
0,58,58,45,1,,60d5f605483d5fe184fcaad8,62bbf90de1b67965ba07d588,2022-06-29_09h39.13.010,Colour_Asymmetry_Pilot,2022.1.3,Win32,74.81110197,62bbe60bf3d75ef465d3e404,,,,,,,,,,,,,,,,,,,,,,,,,,,,,,,,,,,,,,,,,,,,,,,,,,,,,,,,,,,,,,,,,,,,,,,,,,,,,,,,,,,,,,,,,,,,,,,,,,,,,,,,,,,,,,,,,,,,,,,,,,,,,,,,,,,,,,,,,,,,,,,,,,,,,,,,,,,,,,
0,59,59,81,1,,60d5f605483d5fe184fcaad8,62bbf90de1b67965ba07d588,2022-06-29_09h39.13.010,Colour_Asymmetry_Pilot,2022.1.3,Win32,74.81110197,62bbe60bf3d75ef465d3e404,,,,,,,,,,,,,,,,,,,,,,,,,,,,,,,,,,,,,,,,,,,,,,,,,,,,,,,,,,,,,,,,,,,,,,,,,,,,,,,,,,,,,,,,,,,,,,,,,,,,,,,,,,,,,,,,,,,,,,,,,,,,,,,,,,,,,,,,,,,,,,,,,,,,,,,,,,,,,,
0,60,60,78,1,,60d5f605483d5fe184fcaad8,62bbf90de1b67965ba07d588,2022-06-29_09h39.13.010,Colour_Asymmetry_Pilot,2022.1.3,Win32,74.81110197,62bbe60bf3d75ef465d3e404,,,,,,,,,,,,,,,,,,,,,,,,,,,,,,,,,,,,,,,,,,,,,,,,,,,,,,,,,,,,,,,,,,,,,,,,,,,,,,,,,,,,,,,,,,,,,,,,,,,,,,,,,,,,,,,,,,,,,,,,,,,,,,,,,,,,,,,,,,,,,,,,,,,,,,,,,,,,,,
0,61,61,31,1,,60d5f605483d5fe184fcaad8,62bbf90de1b67965ba07d588,2022-06-29_09h39.13.010,Colour_Asymmetry_Pilot,2022.1.3,Win32,74.81110197,62bbe60bf3d75ef465d3e404,,,,,,,,,,,,,,,,,,,,,,,,,,,,,,,,,,,,,,,,,,,,,,,,,,,,,,,,,,,,,,,,,,,,,,,,,,,,,,,,,,,,,,,,,,,,,,,,,,,,,,,,,,,,,,,,,,,,,,,,,,,,,,,,,,,,,,,,,,,,,,,,,,,,,,,,,,,,,,
0,62,62,30,1,,60d5f605483d5fe184fcaad8,62bbf90de1b67965ba07d588,2022-06-29_09h39.13.010,Colour_Asymmetry_Pilot,2022.1.3,Win32,74.81110197,62bbe60bf3d75ef465d3e404,,,,,,,,,,,,,,,,,,,,,,,,,,,,,,,,,,,,,,,,,,,,,,,,,,,,,,,,,,,,,,,,,,,,,,,,,,,,,,,,,,,,,,,,,,,,,,,,,,,,,,,,,,,,,,,,,,,,,,,,,,,,,,,,,,,,,,,,,,,,,,,,,,,,,,,,,,,,,,
0,63,63,82,1,,60d5f605483d5fe184fcaad8,62bbf90de1b67965ba07d588,2022-06-29_09h39.13.010,Colour_Asymmetry_Pilot,2022.1.3,Win32,74.81110197,62bbe60bf3d75ef465d3e404,,,,,,,,,,,,,,,,,,,,,,,,,,,,,,,,,,,,,,,,,,,,,,,,,,,,,,,,,,,,,,,,,,,,,,,,,,,,,,,,,,,,,,,,,,,,,,,,,,,,,,,,,,,,,,,,,,,,,,,,,,,,,,,,,,,,,,,,,,,,,,,,,,,,,,,,,,,,,,
0,64,64,33,1,,60d5f605483d5fe184fcaad8,62bbf90de1b67965ba07d588,2022-06-29_09h39.13.010,Colour_Asymmetry_Pilot,2022.1.3,Win32,74.81110197,62bbe60bf3d75ef465d3e404,,,,,,,,,,,,,,,,,,,,,,,,,,,,,,,,,,,,,,,,,,,,,,,,,,,,,,,,,,,,,,,,,,,,,,,,,,,,,,,,,,,,,,,,,,,,,,,,,,,,,,,,,,,,,,,,,,,,,,,,,,,,,,,,,,,,,,,,,,,,,,,,,,,,,,,,,,,,,,
0,65,65,15,1,,60d5f605483d5fe184fcaad8,62bbf90de1b67965ba07d588,2022-06-29_09h39.13.010,Colour_Asymmetry_Pilot,2022.1.3,Win32,74.81110197,62bbe60bf3d75ef465d3e404,,,,,,,,,,,,,,,,,,,,,,,,,,,,,,,,,,,,,,,,,,,,,,,,,,,,,,,,,,,,,,,,,,,,,,,,,,,,,,,,,,,,,,,,,,,,,,,,,,,,,,,,,,,,,,,,,,,,,,,,,,,,,,,,,,,,,,,,,,,,,,,,,,,,,,,,,,,,,,
0,66,66,84,1,,60d5f605483d5fe184fcaad8,62bbf90de1b67965ba07d588,2022-06-29_09h39.13.010,Colour_Asymmetry_Pilot,2022.1.3,Win32,74.81110197,62bbe60bf3d75ef465d3e404,,,,,,,,,,,,,,,,,,,,,,,,,,,,,,,,,,,,,,,,,,,,,,,,,,,,,,,,,,,,,,,,,,,,,,,,,,,,,,,,,,,,,,,,,,,,,,,,,,,,,,,,,,,,,,,,,,,,,,,,,,,,,,,,,,,,,,,,,,,,,,,,,,,,,,,,,,,,,,
0,67,67,67,1,,60d5f605483d5fe184fcaad8,62bbf90de1b67965ba07d588,2022-06-29_09h39.13.010,Colour_Asymmetry_Pilot,2022.1.3,Win32,74.81110197,62bbe60bf3d75ef465d3e404,,,,,,,,,,,,,,,,,,,,,,,,,,,,,,,,,,,,,,,,,,,,,,,,,,,,,,,,,,,,,,,,,,,,,,,,,,,,,,,,,,,,,,,,,,,,,,,,,,,,,,,,,,,,,,,,,,,,,,,,,,,,,,,,,,,,,,,,,,,,,,,,,,,,,,,,,,,,,,
0,68,68,4,1,,60d5f605483d5fe184fcaad8,62bbf90de1b67965ba07d588,2022-06-29_09h39.13.010,Colour_Asymmetry_Pilot,2022.1.3,Win32,74.81110197,62bbe60bf3d75ef465d3e404,,,,,,,,,,,,,,,,,,,,,,,,,,,,,,,,,,,,,,,,,,,,,,,,,,,,,,,,,,,,,,,,,,,,,,,,,,,,,,,,,,,,,,,,,,,,,,,,,,,,,,,,,,,,,,,,,,,,,,,,,,,,,,,,,,,,,,,,,,,,,,,,,,,,,,,,,,,,,,
0,69,69,63,1,,60d5f605483d5fe184fcaad8,62bbf90de1b67965ba07d588,2022-06-29_09h39.13.010,Colour_Asymmetry_Pilot,2022.1.3,Win32,74.81110197,62bbe60bf3d75ef465d3e404,,,,,,,,,,,,,,,,,,,,,,,,,,,,,,,,,,,,,,,,,,,,,,,,,,,,,,,,,,,,,,,,,,,,,,,,,,,,,,,,,,,,,,,,,,,,,,,,,,,,,,,,,,,,,,,,,,,,,,,,,,,,,,,,,,,,,,,,,,,,,,,,,,,,,,,,,,,,,,
0,70,70,50,1,,60d5f605483d5fe184fcaad8,62bbf90de1b67965ba07d588,2022-06-29_09h39.13.010,Colour_Asymmetry_Pilot,2022.1.3,Win32,74.81110197,62bbe60bf3d75ef465d3e404,,,,,,,,,,,,,,,,,,,,,,,,,,,,,,,,,,,,,,,,,,,,,,,,,,,,,,,,,,,,,,,,,,,,,,,,,,,,,,,,,,,,,,,,,,,,,,,,,,,,,,,,,,,,,,,,,,,,,,,,,,,,,,,,,,,,,,,,,,,,,,,,,,,,,,,,,,,,,,
0,71,71,38,1,,60d5f605483d5fe184fcaad8,62bbf90de1b67965ba07d588,2022-06-29_09h39.13.010,Colour_Asymmetry_Pilot,2022.1.3,Win32,74.81110197,62bbe60bf3d75ef465d3e404,,,,,,,,,,,,,,,,,,,,,,,,,,,,,,,,,,,,,,,,,,,,,,,,,,,,,,,,,,,,,,,,,,,,,,,,,,,,,,,,,,,,,,,,,,,,,,,,,,,,,,,,,,,,,,,,,,,,,,,,,,,,,,,,,,,,,,,,,,,,,,,,,,,,,,,,,,,,,,
0,72,72,54,1,,60d5f605483d5fe184fcaad8,62bbf90de1b67965ba07d588,2022-06-29_09h39.13.010,Colour_Asymmetry_Pilot,2022.1.3,Win32,74.81110197,62bbe60bf3d75ef465d3e404,,,,,,,,,,,,,,,,,,,,,,,,,,,,,,,,,,,,,,,,,,,,,,,,,,,,,,,,,,,,,,,,,,,,,,,,,,,,,,,,,,,,,,,,,,,,,,,,,,,,,,,,,,,,,,,,,,,,,,,,,,,,,,,,,,,,,,,,,,,,,,,,,,,,,,,,,,,,,,
0,73,73,23,1,,60d5f605483d5fe184fcaad8,62bbf90de1b67965ba07d588,2022-06-29_09h39.13.010,Colour_Asymmetry_Pilot,2022.1.3,Win32,74.81110197,62bbe60bf3d75ef465d3e404,,,,,,,,,,,,,,,,,,,,,,,,,,,,,,,,,,,,,,,,,,,,,,,,,,,,,,,,,,,,,,,,,,,,,,,,,,,,,,,,,,,,,,,,,,,,,,,,,,,,,,,,,,,,,,,,,,,,,,,,,,,,,,,,,,,,,,,,,,,,,,,,,,,,,,,,,,,,,,
0,74,74,6,1,,60d5f605483d5fe184fcaad8,62bbf90de1b67965ba07d588,2022-06-29_09h39.13.010,Colour_Asymmetry_Pilot,2022.1.3,Win32,74.81110197,62bbe60bf3d75ef465d3e404,,,,,,,,,,,,,,,,,,,,,,,,,,,,,,,,,,,,,,,,,,,,,,,,,,,,,,,,,,,,,,,,,,,,,,,,,,,,,,,,,,,,,,,,,,,,,,,,,,,,,,,,,,,,,,,,,,,,,,,,,,,,,,,,,,,,,,,,,,,,,,,,,,,,,,,,,,,,,,
0,75,75,49,1,,60d5f605483d5fe184fcaad8,62bbf90de1b67965ba07d588,2022-06-29_09h39.13.010,Colour_Asymmetry_Pilot,2022.1.3,Win32,74.81110197,62bbe60bf3d75ef465d3e404,,,,,,,,,,,,,,,,,,,,,,,,,,,,,,,,,,,,,,,,,,,,,,,,,,,,,,,,,,,,,,,,,,,,,,,,,,,,,,,,,,,,,,,,,,,,,,,,,,,,,,,,,,,,,,,,,,,,,,,,,,,,,,,,,,,,,,,,,,,,,,,,,,,,,,,,,,,,,,
0,76,76,59,1,,60d5f605483d5fe184fcaad8,62bbf90de1b67965ba07d588,2022-06-29_09h39.13.010,Colour_Asymmetry_Pilot,2022.1.3,Win32,74.81110197,62bbe60bf3d75ef465d3e404,,,,,,,,,,,,,,,,,,,,,,,,,,,,,,,,,,,,,,,,,,,,,,,,,,,,,,,,,,,,,,,,,,,,,,,,,,,,,,,,,,,,,,,,,,,,,,,,,,,,,,,,,,,,,,,,,,,,,,,,,,,,,,,,,,,,,,,,,,,,,,,,,,,,,,,,,,,,,,
0,77,77,29,1,,60d5f605483d5fe184fcaad8,62bbf90de1b67965ba07d588,2022-06-29_09h39.13.010,Colour_Asymmetry_Pilot,2022.1.3,Win32,74.81110197,62bbe60bf3d75ef465d3e404,,,,,,,,,,,,,,,,,,,,,,,,,,,,,,,,,,,,,,,,,,,,,,,,,,,,,,,,,,,,,,,,,,,,,,,,,,,,,,,,,,,,,,,,,,,,,,,,,,,,,,,,,,,,,,,,,,,,,,,,,,,,,,,,,,,,,,,,,,,,,,,,,,,,,,,,,,,,,,
0,78,78,19,1,,60d5f605483d5fe184fcaad8,62bbf90de1b67965ba07d588,2022-06-29_09h39.13.010,Colour_Asymmetry_Pilot,2022.1.3,Win32,74.81110197,62bbe60bf3d75ef465d3e404,,,,,,,,,,,,,,,,,,,,,,,,,,,,,,,,,,,,,,,,,,,,,,,,,,,,,,,,,,,,,,,,,,,,,,,,,,,,,,,,,,,,,,,,,,,,,,,,,,,,,,,,,,,,,,,,,,,,,,,,,,,,,,,,,,,,,,,,,,,,,,,,,,,,,,,,,,,,,,
0,79,79,85,1,,60d5f605483d5fe184fcaad8,62bbf90de1b67965ba07d588,2022-06-29_09h39.13.010,Colour_Asymmetry_Pilot,2022.1.3,Win32,74.81110197,62bbe60bf3d75ef465d3e404,,,,,,,,,,,,,,,,,,,,,,,,,,,,,,,,,,,,,,,,,,,,,,,,,,,,,,,,,,,,,,,,,,,,,,,,,,,,,,,,,,,,,,,,,,,,,,,,,,,,,,,,,,,,,,,,,,,,,,,,,,,,,,,,,,,,,,,,,,,,,,,,,,,,,,,,,,,,,,
0,80,80,66,1,,60d5f605483d5fe184fcaad8,62bbf90de1b67965ba07d588,2022-06-29_09h39.13.010,Colour_Asymmetry_Pilot,2022.1.3,Win32,74.81110197,62bbe60bf3d75ef465d3e404,,,,,,,,,,,,,,,,,,,,,,,,,,,,,,,,,,,,,,,,,,,,,,,,,,,,,,,,,,,,,,,,,,,,,,,,,,,,,,,,,,,,,,,,,,,,,,,,,,,,,,,,,,,,,,,,,,,,,,,,,,,,,,,,,,,,,,,,,,,,,,,,,,,,,,,,,,,,,,
0,81,81,58,1,,60d5f605483d5fe184fcaad8,62bbf90de1b67965ba07d588,2022-06-29_09h39.13.010,Colour_Asymmetry_Pilot,2022.1.3,Win32,74.81110197,62bbe60bf3d75ef465d3e404,,,,,,,,,,,,,,,,,,,,,,,,,,,,,,,,,,,,,,,,,,,,,,,,,,,,,,,,,,,,,,,,,,,,,,,,,,,,,,,,,,,,,,,,,,,,,,,,,,,,,,,,,,,,,,,,,,,,,,,,,,,,,,,,,,,,,,,,,,,,,,,,,,,,,,,,,,,,,,
0,82,82,92,1,,60d5f605483d5fe184fcaad8,62bbf90de1b67965ba07d588,2022-06-29_09h39.13.010,Colour_Asymmetry_Pilot,2022.1.3,Win32,74.81110197,62bbe60bf3d75ef465d3e404,,,,,,,,,,,,,,,,,,,,,,,,,,,,,,,,,,,,,,,,,,,,,,,,,,,,,,,,,,,,,,,,,,,,,,,,,,,,,,,,,,,,,,,,,,,,,,,,,,,,,,,,,,,,,,,,,,,,,,,,,,,,,,,,,,,,,,,,,,,,,,,,,,,,,,,,,,,,,,
0,83,83,72,1,,60d5f605483d5fe184fcaad8,62bbf90de1b67965ba07d588,2022-06-29_09h39.13.010,Colour_Asymmetry_Pilot,2022.1.3,Win32,74.81110197,62bbe60bf3d75ef465d3e404,,,,,,,,,,,,,,,,,,,,,,,,,,,,,,,,,,,,,,,,,,,,,,,,,,,,,,,,,,,,,,,,,,,,,,,,,,,,,,,,,,,,,,,,,,,,,,,,,,,,,,,,,,,,,,,,,,,,,,,,,,,,,,,,,,,,,,,,,,,,,,,,,,,,,,,,,,,,,,
0,84,84,21,1,,60d5f605483d5fe184fcaad8,62bbf90de1b67965ba07d588,2022-06-29_09h39.13.010,Colour_Asymmetry_Pilot,2022.1.3,Win32,74.81110197,62bbe60bf3d75ef465d3e404,,,,,,,,,,,,,,,,,,,,,,,,,,,,,,,,,,,,,,,,,,,,,,,,,,,,,,,,,,,,,,,,,,,,,,,,,,,,,,,,,,,,,,,,,,,,,,,,,,,,,,,,,,,,,,,,,,,,,,,,,,,,,,,,,,,,,,,,,,,,,,,,,,,,,,,,,,,,,,
0,85,85,57,1,,60d5f605483d5fe184fcaad8,62bbf90de1b67965ba07d588,2022-06-29_09h39.13.010,Colour_Asymmetry_Pilot,2022.1.3,Win32,74.81110197,62bbe60bf3d75ef465d3e404,,,,,,,,,,,,,,,,,,,,,,,,,,,,,,,,,,,,,,,,,,,,,,,,,,,,,,,,,,,,,,,,,,,,,,,,,,,,,,,,,,,,,,,,,,,,,,,,,,,,,,,,,,,,,,,,,,,,,,,,,,,,,,,,,,,,,,,,,,,,,,,,,,,,,,,,,,,,,,
0,86,86,55,1,,60d5f605483d5fe184fcaad8,62bbf90de1b67965ba07d588,2022-06-29_09h39.13.010,Colour_Asymmetry_Pilot,2022.1.3,Win32,74.81110197,62bbe60bf3d75ef465d3e404,,,,,,,,,,,,,,,,,,,,,,,,,,,,,,,,,,,,,,,,,,,,,,,,,,,,,,,,,,,,,,,,,,,,,,,,,,,,,,,,,,,,,,,,,,,,,,,,,,,,,,,,,,,,,,,,,,,,,,,,,,,,,,,,,,,,,,,,,,,,,,,,,,,,,,,,,,,,,,
0,87,87,91,1,,60d5f605483d5fe184fcaad8,62bbf90de1b67965ba07d588,2022-06-29_09h39.13.010,Colour_Asymmetry_Pilot,2022.1.3,Win32,74.81110197,62bbe60bf3d75ef465d3e404,,,,,,,,,,,,,,,,,,,,,,,,,,,,,,,,,,,,,,,,,,,,,,,,,,,,,,,,,,,,,,,,,,,,,,,,,,,,,,,,,,,,,,,,,,,,,,,,,,,,,,,,,,,,,,,,,,,,,,,,,,,,,,,,,,,,,,,,,,,,,,,,,,,,,,,,,,,,,,
0,88,88,60,1,,60d5f605483d5fe184fcaad8,62bbf90de1b67965ba07d588,2022-06-29_09h39.13.010,Colour_Asymmetry_Pilot,2022.1.3,Win32,74.81110197,62bbe60bf3d75ef465d3e404,,,,,,,,,,,,,,,,,,,,,,,,,,,,,,,,,,,,,,,,,,,,,,,,,,,,,,,,,,,,,,,,,,,,,,,,,,,,,,,,,,,,,,,,,,,,,,,,,,,,,,,,,,,,,,,,,,,,,,,,,,,,,,,,,,,,,,,,,,,,,,,,,,,,,,,,,,,,,,
0,89,89,56,1,,60d5f605483d5fe184fcaad8,62bbf90de1b67965ba07d588,2022-06-29_09h39.13.010,Colour_Asymmetry_Pilot,2022.1.3,Win32,74.81110197,62bbe60bf3d75ef465d3e404,,,,,,,,,,,,,,,,,,,,,,,,,,,,,,,,,,,,,,,,,,,,,,,,,,,,,,,,,,,,,,,,,,,,,,,,,,,,,,,,,,,,,,,,,,,,,,,,,,,,,,,,,,,,,,,,,,,,,,,,,,,,,,,,,,,,,,,,,,,,,,,,,,,,,,,,,,,,,,
0,90,90,8,1,,60d5f605483d5fe184fcaad8,62bbf90de1b67965ba07d588,2022-06-29_09h39.13.010,Colour_Asymmetry_Pilot,2022.1.3,Win32,74.81110197,62bbe60bf3d75ef465d3e404,,,,,,,,,,,,,,,,,,,,,,,,,,,,,,,,,,,,,,,,,,,,,,,,,,,,,,,,,,,,,,,,,,,,,,,,,,,,,,,,,,,,,,,,,,,,,,,,,,,,,,,,,,,,,,,,,,,,,,,,,,,,,,,,,,,,,,,,,,,,,,,,,,,,,,,,,,,,,,
0,91,91,71,1,,60d5f605483d5fe184fcaad8,62bbf90de1b67965ba07d588,2022-06-29_09h39.13.010,Colour_Asymmetry_Pilot,2022.1.3,Win32,74.81110197,62bbe60bf3d75ef465d3e404,,,,,,,,,,,,,,,,,,,,,,,,,,,,,,,,,,,,,,,,,,,,,,,,,,,,,,,,,,,,,,,,,,,,,,,,,,,,,,,,,,,,,,,,,,,,,,,,,,,,,,,,,,,,,,,,,,,,,,,,,,,,,,,,,,,,,,,,,,,,,,,,,,,,,,,,,,,,,,
0,92,92,68,1,,60d5f605483d5fe184fcaad8,62bbf90de1b67965ba07d588,2022-06-29_09h39.13.010,Colour_Asymmetry_Pilot,2022.1.3,Win32,74.81110197,62bbe60bf3d75ef465d3e404,,,,,,,,,,,,,,,,,,,,,,,,,,,,,,,,,,,,,,,,,,,,,,,,,,,,,,,,,,,,,,,,,,,,,,,,,,,,,,,,,,,,,,,,,,,,,,,,,,,,,,,,,,,,,,,,,,,,,,,,,,,,,,,,,,,,,,,,,,,,,,,,,,,,,,,,,,,,,,
,,,,,,60d5f605483d5fe184fcaad8,62bbf90de1b67965ba07d588,2022-06-29_09h39.13.010,Colour_Asymmetry_Pilot,2022.1.3,Win32,74.81110197,62bbe60bf3d75ef465d3e404,0,0,0,39,1,fourthree,,,,,,,,,,,,,,,,,,,,,,,,,,,,,,,,,,,,,,,,,,,,,,,,,,,,,,,,,,,,,,,,,,,,,,,,,,,,,,,,,,,,,,,,,,,,,,,,,,,,,,,,,,,,,,,,,,,,,,,,,,,,,,,,,,,,,,,,,,,,,,,,,,,,,,,,
,,,,,,60d5f605483d5fe184fcaad8,62bbf90de1b67965ba07d588,2022-06-29_09h39.13.010,Colour_Asymmetry_Pilot,2022.1.3,Win32,74.81110197,62bbe60bf3d75ef465d3e404,0,1,1,82,1,twoone,,,,,,,,,,,,,,,,,,,,,,,,,,,,,,,,,,,,,,,,,,,,,,,,,,,,,,,,,,,,,,,,,,,,,,,,,,,,,,,,,,,,,,,,,,,,,,,,,,,,,,,,,,,,,,,,,,,,,,,,,,,,,,,,,,,,,,,,,,,,,,,,,,,,,,,,
,,,,,,60d5f605483d5fe184fcaad8,62bbf90de1b67965ba07d588,2022-06-29_09h39.13.010,Colour_Asymmetry_Pilot,2022.1.3,Win32,74.81110197,62bbe60bf3d75ef465d3e404,0,2,2,105,1,onethree,,,,,,,,,,,,,,,,,,,,,,,,,,,,,,,,,,,,,,,,,,,,,,,,,,,,,,,,,,,,,,,,,,,,,,,,,,,,,,,,,,,,,,,,,,,,,,,,,,,,,,,,,,,,,,,,,,,,,,,,,,,,,,,,,,,,,,,,,,,,,,,,,,,,,,,,
,,,,,,60d5f605483d5fe184fcaad8,62bbf90de1b67965ba07d588,2022-06-29_09h39.13.010,Colour_Asymmetry_Pilot,2022.1.3,Win32,74.81110197,62bbe60bf3d75ef465d3e404,0,3,3,38,1,fourtwo,,,,,,,,,,,,,,,,,,,,,,,,,,,,,,,,,,,,,,,,,,,,,,,,,,,,,,,,,,,,,,,,,,,,,,,,,,,,,,,,,,,,,,,,,,,,,,,,,,,,,,,,,,,,,,,,,,,,,,,,,,,,,,,,,,,,,,,,,,,,,,,,,,,,,,,,
,,,,,,60d5f605483d5fe184fcaad8,62bbf90de1b67965ba07d588,2022-06-29_09h39.13.010,Colour_Asymmetry_Pilot,2022.1.3,Win32,74.81110197,62bbe60bf3d75ef465d3e404,0,4,4,156,1,threeone,,,,,,,,,,,,,,,,,,,,,,,,,,,,,,,,,,,,,,,,,,,,,,,,,,,,,,,,,,,,,,,,,,,,,,,,,,,,,,,,,,,,,,,,,,,,,,,,,,,,,,,,,,,,,,,,,,,,,,,,,,,,,,,,,,,,,,,,,,,,,,,,,,,,,,,,
,,,,,,60d5f605483d5fe184fcaad8,62bbf90de1b67965ba07d588,2022-06-29_09h39.13.010,Colour_Asymmetry_Pilot,2022.1.3,Win32,74.81110197,62bbe60bf3d75ef465d3e404,0,5,5,125,1,threefour,,,,,,,,,,,,,,,,,,,,,,,,,,,,,,,,,,,,,,,,,,,,,,,,,,,,,,,,,,,,,,,,,,,,,,,,,,,,,,,,,,,,,,,,,,,,,,,,,,,,,,,,,,,,,,,,,,,,,,,,,,,,,,,,,,,,,,,,,,,,,,,,,,,,,,,,
,,,,,,60d5f605483d5fe184fcaad8,62bbf90de1b67965ba07d588,2022-06-29_09h39.13.010,Colour_Asymmetry_Pilot,2022.1.3,Win32,74.81110197,62bbe60bf3d75ef465d3e404,0,6,6,22,1,fourtwo,,,,,,,,,,,,,,,,,,,,,,,,,,,,,,,,,,,,,,,,,,,,,,,,,,,,,,,,,,,,,,,,,,,,,,,,,,,,,,,,,,,,,,,,,,,,,,,,,,,,,,,,,,,,,,,,,,,,,,,,,,,,,,,,,,,,,,,,,,,,,,,,,,,,,,,,
,,,,,,60d5f605483d5fe184fcaad8,62bbf90de1b67965ba07d588,2022-06-29_09h39.13.010,Colour_Asymmetry_Pilot,2022.1.3,Win32,74.81110197,62bbe60bf3d75ef465d3e404,0,7,7,108,1,threeone,,,,,,,,,,,,,,,,,,,,,,,,,,,,,,,,,,,,,,,,,,,,,,,,,,,,,,,,,,,,,,,,,,,,,,,,,,,,,,,,,,,,,,,,,,,,,,,,,,,,,,,,,,,,,,,,,,,,,,,,,,,,,,,,,,,,,,,,,,,,,,,,,,,,,,,,
,,,,,,60d5f605483d5fe184fcaad8,62bbf90de1b67965ba07d588,2022-06-29_09h39.13.010,Colour_Asymmetry_Pilot,2022.1.3,Win32,74.81110197,62bbe60bf3d75ef465d3e404,0,8,8,145,1,onethree,,,,,,,,,,,,,,,,,,,,,,,,,,,,,,,,,,,,,,,,,,,,,,,,,,,,,,,,,,,,,,,,,,,,,,,,,,,,,,,,,,,,,,,,,,,,,,,,,,,,,,,,,,,,,,,,,,,,,,,,,,,,,,,,,,,,,,,,,,,,,,,,,,,,,,,,
,,,,,,60d5f605483d5fe184fcaad8,62bbf90de1b67965ba07d588,2022-06-29_09h39.13.010,Colour_Asymmetry_Pilot,2022.1.3,Win32,74.81110197,62bbe60bf3d75ef465d3e404,0,9,9,112,1,onetwo,,,,,,,,,,,,,,,,,,,,,,,,,,,,,,,,,,,,,,,,,,,,,,,,,,,,,,,,,,,,,,,,,,,,,,,,,,,,,,,,,,,,,,,,,,,,,,,,,,,,,,,,,,,,,,,,,,,,,,,,,,,,,,,,,,,,,,,,,,,,,,,,,,,,,,,,
,,,,,,60d5f605483d5fe184fcaad8,62bbf90de1b67965ba07d588,2022-06-29_09h39.13.010,Colour_Asymmetry_Pilot,2022.1.3,Win32,74.81110197,62bbe60bf3d75ef465d3e404,0,10,10,1,1,onethree,,,,,,,,,,,,,,,,,,,,,,,,,,,,,,,,,,,,,,,,,,,,,,,,,,,,,,,,,,,,,,,,,,,,,,,,,,,,,,,,,,,,,,,,,,,,,,,,,,,,,,,,,,,,,,,,,,,,,,,,,,,,,,,,,,,,,,,,,,,,,,,,,,,,,,,,
,,,,,,60d5f605483d5fe184fcaad8,62bbf90de1b67965ba07d588,2022-06-29_09h39.13.010,Colour_Asymmetry_Pilot,2022.1.3,Win32,74.81110197,62bbe60bf3d75ef465d3e404,0,11,11,161,1,onethree,,,,,,,,,,,,,,,,,,,,,,,,,,,,,,,,,,,,,,,,,,,,,,,,,,,,,,,,,,,,,,,,,,,,,,,,,,,,,,,,,,,,,,,,,,,,,,,,,,,,,,,,,,,,,,,,,,,,,,,,,,,,,,,,,,,,,,,,,,,,,,,,,,,,,,,,
,,,,,,60d5f605483d5fe184fcaad8,62bbf90de1b67965ba07d588,2022-06-29_09h39.13.010,Colour_Asymmetry_Pilot,2022.1.3,Win32,74.81110197,62bbe60bf3d75ef465d3e404,0,12,12,104,1,onetwo,,,,,,,,,,,,,,,,,,,,,,,,,,,,,,,,,,,,,,,,,,,,,,,,,,,,,,,,,,,,,,,,,,,,,,,,,,,,,,,,,,,,,,,,,,,,,,,,,,,,,,,,,,,,,,,,,,,,,,,,,,,,,,,,,,,,,,,,,,,,,,,,,,,,,,,,
,,,,,,60d5f605483d5fe184fcaad8,62bbf90de1b67965ba07d588,2022-06-29_09h39.13.010,Colour_Asymmetry_Pilot,2022.1.3,Win32,74.81110197,62bbe60bf3d75ef465d3e404,0,13,13,124,1,threeone,,,,,,,,,,,,,,,,,,,,,,,,,,,,,,,,,,,,,,,,,,,,,,,,,,,,,,,,,,,,,,,,,,,,,,,,,,,,,,,,,,,,,,,,,,,,,,,,,,,,,,,,,,,,,,,,,,,,,,,,,,,,,,,,,,,,,,,,,,,,,,,,,,,,,,,,
,,,,,,60d5f605483d5fe184fcaad8,62bbf90de1b67965ba07d588,2022-06-29_09h39.13.010,Colour_Asymmetry_Pilot,2022.1.3,Win32,74.81110197,62bbe60bf3d75ef465d3e404,0,14,14,123,1,twofour,,,,,,,,,,,,,,,,,,,,,,,,,,,,,,,,,,,,,,,,,,,,,,,,,,,,,,,,,,,,,,,,,,,,,,,,,,,,,,,,,,,,,,,,,,,,,,,,,,,,,,,,,,,,,,,,,,,,,,,,,,,,,,,,,,,,,,,,,,,,,,,,,,,,,,,,
,,,,,,60d5f605483d5fe184fcaad8,62bbf90de1b67965ba07d588,2022-06-29_09h39.13.010,Colour_Asymmetry_Pilot,2022.1.3,Win32,74.81110197,62bbe60bf3d75ef465d3e404,0,15,15,57,1,onethree,,,,,,,,,,,,,,,,,,,,,,,,,,,,,,,,,,,,,,,,,,,,,,,,,,,,,,,,,,,,,,,,,,,,,,,,,,,,,,,,,,,,,,,,,,,,,,,,,,,,,,,,,,,,,,,,,,,,,,,,,,,,,,,,,,,,,,,,,,,,,,,,,,,,,,,,
,,,,,,60d5f605483d5fe184fcaad8,62bbf90de1b67965ba07d588,2022-06-29_09h39.13.010,Colour_Asymmetry_Pilot,2022.1.3,Win32,74.81110197,62bbe60bf3d75ef465d3e404,0,16,16,52,1,threeone,,,,,,,,,,,,,,,,,,,,,,,,,,,,,,,,,,,,,,,,,,,,,,,,,,,,,,,,,,,,,,,,,,,,,,,,,,,,,,,,,,,,,,,,,,,,,,,,,,,,,,,,,,,,,,,,,,,,,,,,,,,,,,,,,,,,,,,,,,,,,,,,,,,,,,,,
,,,,,,60d5f605483d5fe184fcaad8,62bbf90de1b67965ba07d588,2022-06-29_09h39.13.010,Colour_Asymmetry_Pilot,2022.1.3,Win32,74.81110197,62bbe60bf3d75ef465d3e404,0,17,17,148,1,threeone,,,,,,,,,,,,,,,,,,,,,,,,,,,,,,,,,,,,,,,,,,,,,,,,,,,,,,,,,,,,,,,,,,,,,,,,,,,,,,,,,,,,,,,,,,,,,,,,,,,,,,,,,,,,,,,,,,,,,,,,,,,,,,,,,,,,,,,,,,,,,,,,,,,,,,,,
,,,,,,60d5f605483d5fe184fcaad8,62bbf90de1b67965ba07d588,2022-06-29_09h39.13.010,Colour_Asymmetry_Pilot,2022.1.3,Win32,74.81110197,62bbe60bf3d75ef465d3e404,0,18,18,55,1,fourthree,,,,,,,,,,,,,,,,,,,,,,,,,,,,,,,,,,,,,,,,,,,,,,,,,,,,,,,,,,,,,,,,,,,,,,,,,,,,,,,,,,,,,,,,,,,,,,,,,,,,,,,,,,,,,,,,,,,,,,,,,,,,,,,,,,,,,,,,,,,,,,,,,,,,,,,,
,,,,,,60d5f605483d5fe184fcaad8,62bbf90de1b67965ba07d588,2022-06-29_09h39.13.010,Colour_Asymmetry_Pilot,2022.1.3,Win32,74.81110197,62bbe60bf3d75ef465d3e404,0,19,19,152,1,onetwo,,,,,,,,,,,,,,,,,,,,,,,,,,,,,,,,,,,,,,,,,,,,,,,,,,,,,,,,,,,,,,,,,,,,,,,,,,,,,,,,,,,,,,,,,,,,,,,,,,,,,,,,,,,,,,,,,,,,,,,,,,,,,,,,,,,,,,,,,,,,,,,,,,,,,,,,
,,,,,,60d5f605483d5fe184fcaad8,62bbf90de1b67965ba07d588,2022-06-29_09h39.13.010,Colour_Asymmetry_Pilot,2022.1.3,Win32,74.81110197,62bbe60bf3d75ef465d3e404,0,20,20,35,1,twofour,,,,,,,,,,,,,,,,,,,,,,,,,,,,,,,,,,,,,,,,,,,,,,,,,,,,,,,,,,,,,,,,,,,,,,,,,,,,,,,,,,,,,,,,,,,,,,,,,,,,,,,,,,,,,,,,,,,,,,,,,,,,,,,,,,,,,,,,,,,,,,,,,,,,,,,,
,,,,,,60d5f605483d5fe184fcaad8,62bbf90de1b67965ba07d588,2022-06-29_09h39.13.010,Colour_Asymmetry_Pilot,2022.1.3,Win32,74.81110197,62bbe60bf3d75ef465d3e404,0,21,21,80,1,onetwo,,,,,,,,,,,,,,,,,,,,,,,,,,,,,,,,,,,,,,,,,,,,,,,,,,,,,,,,,,,,,,,,,,,,,,,,,,,,,,,,,,,,,,,,,,,,,,,,,,,,,,,,,,,,,,,,,,,,,,,,,,,,,,,,,,,,,,,,,,,,,,,,,,,,,,,,
,,,,,,60d5f605483d5fe184fcaad8,62bbf90de1b67965ba07d588,2022-06-29_09h39.13.010,Colour_Asymmetry_Pilot,2022.1.3,Win32,74.81110197,62bbe60bf3d75ef465d3e404,0,22,22,153,1,onethree,,,,,,,,,,,,,,,,,,,,,,,,,,,,,,,,,,,,,,,,,,,,,,,,,,,,,,,,,,,,,,,,,,,,,,,,,,,,,,,,,,,,,,,,,,,,,,,,,,,,,,,,,,,,,,,,,,,,,,,,,,,,,,,,,,,,,,,,,,,,,,,,,,,,,,,,
,,,,,,60d5f605483d5fe184fcaad8,62bbf90de1b67965ba07d588,2022-06-29_09h39.13.010,Colour_Asymmetry_Pilot,2022.1.3,Win32,74.81110197,62bbe60bf3d75ef465d3e404,0,23,23,101,1,threefour,,,,,,,,,,,,,,,,,,,,,,,,,,,,,,,,,,,,,,,,,,,,,,,,,,,,,,,,,,,,,,,,,,,,,,,,,,,,,,,,,,,,,,,,,,,,,,,,,,,,,,,,,,,,,,,,,,,,,,,,,,,,,,,,,,,,,,,,,,,,,,,,,,,,,,,,
,,,,,,60d5f605483d5fe184fcaad8,62bbf90de1b67965ba07d588,2022-06-29_09h39.13.010,Colour_Asymmetry_Pilot,2022.1.3,Win32,74.81110197,62bbe60bf3d75ef465d3e404,0,24,24,133,1,threefour,,,,,,,,,,,,,,,,,,,,,,,,,,,,,,,,,,,,,,,,,,,,,,,,,,,,,,,,,,,,,,,,,,,,,,,,,,,,,,,,,,,,,,,,,,,,,,,,,,,,,,,,,,,,,,,,,,,,,,,,,,,,,,,,,,,,,,,,,,,,,,,,,,,,,,,,
,,,,,,60d5f605483d5fe184fcaad8,62bbf90de1b67965ba07d588,2022-06-29_09h39.13.010,Colour_Asymmetry_Pilot,2022.1.3,Win32,74.81110197,62bbe60bf3d75ef465d3e404,0,25,25,25,1,onethree,,,,,,,,,,,,,,,,,,,,,,,,,,,,,,,,,,,,,,,,,,,,,,,,,,,,,,,,,,,,,,,,,,,,,,,,,,,,,,,,,,,,,,,,,,,,,,,,,,,,,,,,,,,,,,,,,,,,,,,,,,,,,,,,,,,,,,,,,,,,,,,,,,,,,,,,
,,,,,,60d5f605483d5fe184fcaad8,62bbf90de1b67965ba07d588,2022-06-29_09h39.13.010,Colour_Asymmetry_Pilot,2022.1.3,Win32,74.81110197,62bbe60bf3d75ef465d3e404,0,26,26,68,1,threeone,,,,,,,,,,,,,,,,,,,,,,,,,,,,,,,,,,,,,,,,,,,,,,,,,,,,,,,,,,,,,,,,,,,,,,,,,,,,,,,,,,,,,,,,,,,,,,,,,,,,,,,,,,,,,,,,,,,,,,,,,,,,,,,,,,,,,,,,,,,,,,,,,,,,,,,,
,,,,,,60d5f605483d5fe184fcaad8,62bbf90de1b67965ba07d588,2022-06-29_09h39.13.010,Colour_Asymmetry_Pilot,2022.1.3,Win32,74.81110197,62bbe60bf3d75ef465d3e404,0,27,27,59,1,twofour,,,,,,,,,,,,,,,,,,,,,,,,,,,,,,,,,,,,,,,,,,,,,,,,,,,,,,,,,,,,,,,,,,,,,,,,,,,,,,,,,,,,,,,,,,,,,,,,,,,,,,,,,,,,,,,,,,,,,,,,,,,,,,,,,,,,,,,,,,,,,,,,,,,,,,,,
,,,,,,60d5f605483d5fe184fcaad8,62bbf90de1b67965ba07d588,2022-06-29_09h39.13.010,Colour_Asymmetry_Pilot,2022.1.3,Win32,74.81110197,62bbe60bf3d75ef465d3e404,0,28,28,110,1,fourtwo,,,,,,,,,,,,,,,,,,,,,,,,,,,,,,,,,,,,,,,,,,,,,,,,,,,,,,,,,,,,,,,,,,,,,,,,,,,,,,,,,,,,,,,,,,,,,,,,,,,,,,,,,,,,,,,,,,,,,,,,,,,,,,,,,,,,,,,,,,,,,,,,,,,,,,,,
,,,,,,60d5f605483d5fe184fcaad8,62bbf90de1b67965ba07d588,2022-06-29_09h39.13.010,Colour_Asymmetry_Pilot,2022.1.3,Win32,74.81110197,62bbe60bf3d75ef465d3e404,0,29,29,78,1,fourtwo,,,,,,,,,,,,,,,,,,,,,,,,,,,,,,,,,,,,,,,,,,,,,,,,,,,,,,,,,,,,,,,,,,,,,,,,,,,,,,,,,,,,,,,,,,,,,,,,,,,,,,,,,,,,,,,,,,,,,,,,,,,,,,,,,,,,,,,,,,,,,,,,,,,,,,,,
,,,,,,60d5f605483d5fe184fcaad8,62bbf90de1b67965ba07d588,2022-06-29_09h39.13.010,Colour_Asymmetry_Pilot,2022.1.3,Win32,74.81110197,62bbe60bf3d75ef465d3e404,0,30,30,5,1,threefour,,,,,,,,,,,,,,,,,,,,,,,,,,,,,,,,,,,,,,,,,,,,,,,,,,,,,,,,,,,,,,,,,,,,,,,,,,,,,,,,,,,,,,,,,,,,,,,,,,,,,,,,,,,,,,,,,,,,,,,,,,,,,,,,,,,,,,,,,,,,,,,,,,,,,,,,
,,,,,,60d5f605483d5fe184fcaad8,62bbf90de1b67965ba07d588,2022-06-29_09h39.13.010,Colour_Asymmetry_Pilot,2022.1.3,Win32,74.81110197,62bbe60bf3d75ef465d3e404,0,31,31,3,1,twofour,,,,,,,,,,,,,,,,,,,,,,,,,,,,,,,,,,,,,,,,,,,,,,,,,,,,,,,,,,,,,,,,,,,,,,,,,,,,,,,,,,,,,,,,,,,,,,,,,,,,,,,,,,,,,,,,,,,,,,,,,,,,,,,,,,,,,,,,,,,,,,,,,,,,,,,,
,,,,,,60d5f605483d5fe184fcaad8,62bbf90de1b67965ba07d588,2022-06-29_09h39.13.010,Colour_Asymmetry_Pilot,2022.1.3,Win32,74.81110197,62bbe60bf3d75ef465d3e404,0,32,32,143,1,fourthree,,,,,,,,,,,,,,,,,,,,,,,,,,,,,,,,,,,,,,,,,,,,,,,,,,,,,,,,,,,,,,,,,,,,,,,,,,,,,,,,,,,,,,,,,,,,,,,,,,,,,,,,,,,,,,,,,,,,,,,,,,,,,,,,,,,,,,,,,,,,,,,,,,,,,,,,
,,,,,,60d5f605483d5fe184fcaad8,62bbf90de1b67965ba07d588,2022-06-29_09h39.13.010,Colour_Asymmetry_Pilot,2022.1.3,Win32,74.81110197,62bbe60bf3d75ef465d3e404,0,33,33,138,1,twoone,,,,,,,,,,,,,,,,,,,,,,,,,,,,,,,,,,,,,,,,,,,,,,,,,,,,,,,,,,,,,,,,,,,,,,,,,,,,,,,,,,,,,,,,,,,,,,,,,,,,,,,,,,,,,,,,,,,,,,,,,,,,,,,,,,,,,,,,,,,,,,,,,,,,,,,,
,,,,,,60d5f605483d5fe184fcaad8,62bbf90de1b67965ba07d588,2022-06-29_09h39.13.010,Colour_Asymmetry_Pilot,2022.1.3,Win32,74.81110197,62bbe60bf3d75ef465d3e404,0,34,34,94,1,fourtwo,,,,,,,,,,,,,,,,,,,,,,,,,,,,,,,,,,,,,,,,,,,,,,,,,,,,,,,,,,,,,,,,,,,,,,,,,,,,,,,,,,,,,,,,,,,,,,,,,,,,,,,,,,,,,,,,,,,,,,,,,,,,,,,,,,,,,,,,,,,,,,,,,,,,,,,,
,,,,,,60d5f605483d5fe184fcaad8,62bbf90de1b67965ba07d588,2022-06-29_09h39.13.010,Colour_Asymmetry_Pilot,2022.1.3,Win32,74.81110197,62bbe60bf3d75ef465d3e404,0,35,35,20,1,threeone,,,,,,,,,,,,,,,,,,,,,,,,,,,,,,,,,,,,,,,,,,,,,,,,,,,,,,,,,,,,,,,,,,,,,,,,,,,,,,,,,,,,,,,,,,,,,,,,,,,,,,,,,,,,,,,,,,,,,,,,,,,,,,,,,,,,,,,,,,,,,,,,,,,,,,,,
,,,,,,60d5f605483d5fe184fcaad8,62bbf90de1b67965ba07d588,2022-06-29_09h39.13.010,Colour_Asymmetry_Pilot,2022.1.3,Win32,74.81110197,62bbe60bf3d75ef465d3e404,0,36,36,0,1,onetwo,,,,,,,,,,,,,,,,,,,,,,,,,,,,,,,,,,,,,,,,,,,,,,,,,,,,,,,,,,,,,,,,,,,,,,,,,,,,,,,,,,,,,,,,,,,,,,,,,,,,,,,,,,,,,,,,,,,,,,,,,,,,,,,,,,,,,,,,,,,,,,,,,,,,,,,,
,,,,,,60d5f605483d5fe184fcaad8,62bbf90de1b67965ba07d588,2022-06-29_09h39.13.010,Colour_Asymmetry_Pilot,2022.1.3,Win32,74.81110197,62bbe60bf3d75ef465d3e404,0,37,37,63,1,fourthree,,,,,,,,,,,,,,,,,,,,,,,,,,,,,,,,,,,,,,,,,,,,,,,,,,,,,,,,,,,,,,,,,,,,,,,,,,,,,,,,,,,,,,,,,,,,,,,,,,,,,,,,,,,,,,,,,,,,,,,,,,,,,,,,,,,,,,,,,,,,,,,,,,,,,,,,
,,,,,,60d5f605483d5fe184fcaad8,62bbf90de1b67965ba07d588,2022-06-29_09h39.13.010,Colour_Asymmetry_Pilot,2022.1.3,Win32,74.81110197,62bbe60bf3d75ef465d3e404,0,38,38,89,1,onethree,,,,,,,,,,,,,,,,,,,,,,,,,,,,,,,,,,,,,,,,,,,,,,,,,,,,,,,,,,,,,,,,,,,,,,,,,,,,,,,,,,,,,,,,,,,,,,,,,,,,,,,,,,,,,,,,,,,,,,,,,,,,,,,,,,,,,,,,,,,,,,,,,,,,,,,,
,,,,,,60d5f605483d5fe184fcaad8,62bbf90de1b67965ba07d588,2022-06-29_09h39.13.010,Colour_Asymmetry_Pilot,2022.1.3,Win32,74.81110197,62bbe60bf3d75ef465d3e404,0,39,39,119,1,fourthree,,,,,,,,,,,,,,,,,,,,,,,,,,,,,,,,,,,,,,,,,,,,,,,,,,,,,,,,,,,,,,,,,,,,,,,,,,,,,,,,,,,,,,,,,,,,,,,,,,,,,,,,,,,,,,,,,,,,,,,,,,,,,,,,,,,,,,,,,,,,,,,,,,,,,,,,
,,,,,,60d5f605483d5fe184fcaad8,62bbf90de1b67965ba07d588,2022-06-29_09h39.13.010,Colour_Asymmetry_Pilot,2022.1.3,Win32,74.81110197,62bbe60bf3d75ef465d3e404,0,40,40,11,1,twofour,,,,,,,,,,,,,,,,,,,,,,,,,,,,,,,,,,,,,,,,,,,,,,,,,,,,,,,,,,,,,,,,,,,,,,,,,,,,,,,,,,,,,,,,,,,,,,,,,,,,,,,,,,,,,,,,,,,,,,,,,,,,,,,,,,,,,,,,,,,,,,,,,,,,,,,,
,,,,,,60d5f605483d5fe184fcaad8,62bbf90de1b67965ba07d588,2022-06-29_09h39.13.010,Colour_Asymmetry_Pilot,2022.1.3,Win32,74.81110197,62bbe60bf3d75ef465d3e404,0,41,41,106,1,twoone,,,,,,,,,,,,,,,,,,,,,,,,,,,,,,,,,,,,,,,,,,,,,,,,,,,,,,,,,,,,,,,,,,,,,,,,,,,,,,,,,,,,,,,,,,,,,,,,,,,,,,,,,,,,,,,,,,,,,,,,,,,,,,,,,,,,,,,,,,,,,,,,,,,,,,,,
,,,,,,60d5f605483d5fe184fcaad8,62bbf90de1b67965ba07d588,2022-06-29_09h39.13.010,Colour_Asymmetry_Pilot,2022.1.3,Win32,74.81110197,62bbe60bf3d75ef465d3e404,0,42,42,8,1,onetwo,,,,,,,,,,,,,,,,,,,,,,,,,,,,,,,,,,,,,,,,,,,,,,,,,,,,,,,,,,,,,,,,,,,,,,,,,,,,,,,,,,,,,,,,,,,,,,,,,,,,,,,,,,,,,,,,,,,,,,,,,,,,,,,,,,,,,,,,,,,,,,,,,,,,,,,,
,,,,,,60d5f605483d5fe184fcaad8,62bbf90de1b67965ba07d588,2022-06-29_09h39.13.010,Colour_Asymmetry_Pilot,2022.1.3,Win32,74.81110197,62bbe60bf3d75ef465d3e404,0,43,43,72,1,onetwo,,,,,,,,,,,,,,,,,,,,,,,,,,,,,,,,,,,,,,,,,,,,,,,,,,,,,,,,,,,,,,,,,,,,,,,,,,,,,,,,,,,,,,,,,,,,,,,,,,,,,,,,,,,,,,,,,,,,,,,,,,,,,,,,,,,,,,,,,,,,,,,,,,,,,,,,
,,,,,,60d5f605483d5fe184fcaad8,62bbf90de1b67965ba07d588,2022-06-29_09h39.13.010,Colour_Asymmetry_Pilot,2022.1.3,Win32,74.81110197,62bbe60bf3d75ef465d3e404,0,44,44,49,1,onethree,,,,,,,,,,,,,,,,,,,,,,,,,,,,,,,,,,,,,,,,,,,,,,,,,,,,,,,,,,,,,,,,,,,,,,,,,,,,,,,,,,,,,,,,,,,,,,,,,,,,,,,,,,,,,,,,,,,,,,,,,,,,,,,,,,,,,,,,,,,,,,,,,,,,,,,,
,,,,,,60d5f605483d5fe184fcaad8,62bbf90de1b67965ba07d588,2022-06-29_09h39.13.010,Colour_Asymmetry_Pilot,2022.1.3,Win32,74.81110197,62bbe60bf3d75ef465d3e404,0,45,45,70,1,fourtwo,,,,,,,,,,,,,,,,,,,,,,,,,,,,,,,,,,,,,,,,,,,,,,,,,,,,,,,,,,,,,,,,,,,,,,,,,,,,,,,,,,,,,,,,,,,,,,,,,,,,,,,,,,,,,,,,,,,,,,,,,,,,,,,,,,,,,,,,,,,,,,,,,,,,,,,,
,,,,,,60d5f605483d5fe184fcaad8,62bbf90de1b67965ba07d588,2022-06-29_09h39.13.010,Colour_Asymmetry_Pilot,2022.1.3,Win32,74.81110197,62bbe60bf3d75ef465d3e404,0,46,46,40,1,onetwo,,,,,,,,,,,,,,,,,,,,,,,,,,,,,,,,,,,,,,,,,,,,,,,,,,,,,,,,,,,,,,,,,,,,,,,,,,,,,,,,,,,,,,,,,,,,,,,,,,,,,,,,,,,,,,,,,,,,,,,,,,,,,,,,,,,,,,,,,,,,,,,,,,,,,,,,
,,,,,,60d5f605483d5fe184fcaad8,62bbf90de1b67965ba07d588,2022-06-29_09h39.13.010,Colour_Asymmetry_Pilot,2022.1.3,Win32,74.81110197,62bbe60bf3d75ef465d3e404,0,47,47,91,1,twofour,,,,,,,,,,,,,,,,,,,,,,,,,,,,,,,,,,,,,,,,,,,,,,,,,,,,,,,,,,,,,,,,,,,,,,,,,,,,,,,,,,,,,,,,,,,,,,,,,,,,,,,,,,,,,,,,,,,,,,,,,,,,,,,,,,,,,,,,,,,,,,,,,,,,,,,,
,,,,,,60d5f605483d5fe184fcaad8,62bbf90de1b67965ba07d588,2022-06-29_09h39.13.010,Colour_Asymmetry_Pilot,2022.1.3,Win32,74.81110197,62bbe60bf3d75ef465d3e404,0,48,48,53,1,threefour,,,,,,,,,,,,,,,,,,,,,,,,,,,,,,,,,,,,,,,,,,,,,,,,,,,,,,,,,,,,,,,,,,,,,,,,,,,,,,,,,,,,,,,,,,,,,,,,,,,,,,,,,,,,,,,,,,,,,,,,,,,,,,,,,,,,,,,,,,,,,,,,,,,,,,,,
,,,,,,60d5f605483d5fe184fcaad8,62bbf90de1b67965ba07d588,2022-06-29_09h39.13.010,Colour_Asymmetry_Pilot,2022.1.3,Win32,74.81110197,62bbe60bf3d75ef465d3e404,0,49,49,31,1,fourthree,,,,,,,,,,,,,,,,,,,,,,,,,,,,,,,,,,,,,,,,,,,,,,,,,,,,,,,,,,,,,,,,,,,,,,,,,,,,,,,,,,,,,,,,,,,,,,,,,,,,,,,,,,,,,,,,,,,,,,,,,,,,,,,,,,,,,,,,,,,,,,,,,,,,,,,,
,,,,,,60d5f605483d5fe184fcaad8,62bbf90de1b67965ba07d588,2022-06-29_09h39.13.010,Colour_Asymmetry_Pilot,2022.1.3,Win32,74.81110197,62bbe60bf3d75ef465d3e404,0,50,50,111,1,fourthree,,,,,,,,,,,,,,,,,,,,,,,,,,,,,,,,,,,,,,,,,,,,,,,,,,,,,,,,,,,,,,,,,,,,,,,,,,,,,,,,,,,,,,,,,,,,,,,,,,,,,,,,,,,,,,,,,,,,,,,,,,,,,,,,,,,,,,,,,,,,,,,,,,,,,,,,
,,,,,,60d5f605483d5fe184fcaad8,62bbf90de1b67965ba07d588,2022-06-29_09h39.13.010,Colour_Asymmetry_Pilot,2022.1.3,Win32,74.81110197,62bbe60bf3d75ef465d3e404,0,51,51,131,1,twofour,,,,,,,,,,,,,,,,,,,,,,,,,,,,,,,,,,,,,,,,,,,,,,,,,,,,,,,,,,,,,,,,,,,,,,,,,,,,,,,,,,,,,,,,,,,,,,,,,,,,,,,,,,,,,,,,,,,,,,,,,,,,,,,,,,,,,,,,,,,,,,,,,,,,,,,,
,,,,,,60d5f605483d5fe184fcaad8,62bbf90de1b67965ba07d588,2022-06-29_09h39.13.010,Colour_Asymmetry_Pilot,2022.1.3,Win32,74.81110197,62bbe60bf3d75ef465d3e404,0,52,52,140,1,threeone,,,,,,,,,,,,,,,,,,,,,,,,,,,,,,,,,,,,,,,,,,,,,,,,,,,,,,,,,,,,,,,,,,,,,,,,,,,,,,,,,,,,,,,,,,,,,,,,,,,,,,,,,,,,,,,,,,,,,,,,,,,,,,,,,,,,,,,,,,,,,,,,,,,,,,,,
,,,,,,60d5f605483d5fe184fcaad8,62bbf90de1b67965ba07d588,2022-06-29_09h39.13.010,Colour_Asymmetry_Pilot,2022.1.3,Win32,74.81110197,62bbe60bf3d75ef465d3e404,0,53,53,75,1,twofour,,,,,,,,,,,,,,,,,,,,,,,,,,,,,,,,,,,,,,,,,,,,,,,,,,,,,,,,,,,,,,,,,,,,,,,,,,,,,,,,,,,,,,,,,,,,,,,,,,,,,,,,,,,,,,,,,,,,,,,,,,,,,,,,,,,,,,,,,,,,,,,,,,,,,,,,
,,,,,,60d5f605483d5fe184fcaad8,62bbf90de1b67965ba07d588,2022-06-29_09h39.13.010,Colour_Asymmetry_Pilot,2022.1.3,Win32,74.81110197,62bbe60bf3d75ef465d3e404,0,54,54,158,1,fourtwo,,,,,,,,,,,,,,,,,,,,,,,,,,,,,,,,,,,,,,,,,,,,,,,,,,,,,,,,,,,,,,,,,,,,,,,,,,,,,,,,,,,,,,,,,,,,,,,,,,,,,,,,,,,,,,,,,,,,,,,,,,,,,,,,,,,,,,,,,,,,,,,,,,,,,,,,
,,,,,,60d5f605483d5fe184fcaad8,62bbf90de1b67965ba07d588,2022-06-29_09h39.13.010,Colour_Asymmetry_Pilot,2022.1.3,Win32,74.81110197,62bbe60bf3d75ef465d3e404,0,55,55,103,1,fourthree,,,,,,,,,,,,,,,,,,,,,,,,,,,,,,,,,,,,,,,,,,,,,,,,,,,,,,,,,,,,,,,,,,,,,,,,,,,,,,,,,,,,,,,,,,,,,,,,,,,,,,,,,,,,,,,,,,,,,,,,,,,,,,,,,,,,,,,,,,,,,,,,,,,,,,,,
,,,,,,60d5f605483d5fe184fcaad8,62bbf90de1b67965ba07d588,2022-06-29_09h39.13.010,Colour_Asymmetry_Pilot,2022.1.3,Win32,74.81110197,62bbe60bf3d75ef465d3e404,0,56,56,13,1,threefour,,,,,,,,,,,,,,,,,,,,,,,,,,,,,,,,,,,,,,,,,,,,,,,,,,,,,,,,,,,,,,,,,,,,,,,,,,,,,,,,,,,,,,,,,,,,,,,,,,,,,,,,,,,,,,,,,,,,,,,,,,,,,,,,,,,,,,,,,,,,,,,,,,,,,,,,
,,,,,,60d5f605483d5fe184fcaad8,62bbf90de1b67965ba07d588,2022-06-29_09h39.13.010,Colour_Asymmetry_Pilot,2022.1.3,Win32,74.81110197,62bbe60bf3d75ef465d3e404,0,57,57,65,1,onethree,,,,,,,,,,,,,,,,,,,,,,,,,,,,,,,,,,,,,,,,,,,,,,,,,,,,,,,,,,,,,,,,,,,,,,,,,,,,,,,,,,,,,,,,,,,,,,,,,,,,,,,,,,,,,,,,,,,,,,,,,,,,,,,,,,,,,,,,,,,,,,,,,,,,,,,,
,,,,,,60d5f605483d5fe184fcaad8,62bbf90de1b67965ba07d588,2022-06-29_09h39.13.010,Colour_Asymmetry_Pilot,2022.1.3,Win32,74.81110197,62bbe60bf3d75ef465d3e404,0,58,58,27,1,twofour,,,,,,,,,,,,,,,,,,,,,,,,,,,,,,,,,,,,,,,,,,,,,,,,,,,,,,,,,,,,,,,,,,,,,,,,,,,,,,,,,,,,,,,,,,,,,,,,,,,,,,,,,,,,,,,,,,,,,,,,,,,,,,,,,,,,,,,,,,,,,,,,,,,,,,,,
,,,,,,60d5f605483d5fe184fcaad8,62bbf90de1b67965ba07d588,2022-06-29_09h39.13.010,Colour_Asymmetry_Pilot,2022.1.3,Win32,74.81110197,62bbe60bf3d75ef465d3e404,0,59,59,142,1,fourtwo,,,,,,,,,,,,,,,,,,,,,,,,,,,,,,,,,,,,,,,,,,,,,,,,,,,,,,,,,,,,,,,,,,,,,,,,,,,,,,,,,,,,,,,,,,,,,,,,,,,,,,,,,,,,,,,,,,,,,,,,,,,,,,,,,,,,,,,,,,,,,,,,,,,,,,,,
,,,,,,60d5f605483d5fe184fcaad8,62bbf90de1b67965ba07d588,2022-06-29_09h39.13.010,Colour_Asymmetry_Pilot,2022.1.3,Win32,74.81110197,62bbe60bf3d75ef465d3e404,0,60,60,30,1,fourtwo,,,,,,,,,,,,,,,,,,,,,,,,,,,,,,,,,,,,,,,,,,,,,,,,,,,,,,,,,,,,,,,,,,,,,,,,,,,,,,,,,,,,,,,,,,,,,,,,,,,,,,,,,,,,,,,,,,,,,,,,,,,,,,,,,,,,,,,,,,,,,,,,,,,,,,,,
,,,,,,60d5f605483d5fe184fcaad8,62bbf90de1b67965ba07d588,2022-06-29_09h39.13.010,Colour_Asymmetry_Pilot,2022.1.3,Win32,74.81110197,62bbe60bf3d75ef465d3e404,0,61,61,32,1,onetwo,,,,,,,,,,,,,,,,,,,,,,,,,,,,,,,,,,,,,,,,,,,,,,,,,,,,,,,,,,,,,,,,,,,,,,,,,,,,,,,,,,,,,,,,,,,,,,,,,,,,,,,,,,,,,,,,,,,,,,,,,,,,,,,,,,,,,,,,,,,,,,,,,,,,,,,,
,,,,,,60d5f605483d5fe184fcaad8,62bbf90de1b67965ba07d588,2022-06-29_09h39.13.010,Colour_Asymmetry_Pilot,2022.1.3,Win32,74.81110197,62bbe60bf3d75ef465d3e404,0,62,62,67,1,twofour,,,,,,,,,,,,,,,,,,,,,,,,,,,,,,,,,,,,,,,,,,,,,,,,,,,,,,,,,,,,,,,,,,,,,,,,,,,,,,,,,,,,,,,,,,,,,,,,,,,,,,,,,,,,,,,,,,,,,,,,,,,,,,,,,,,,,,,,,,,,,,,,,,,,,,,,
,,,,,,60d5f605483d5fe184fcaad8,62bbf90de1b67965ba07d588,2022-06-29_09h39.13.010,Colour_Asymmetry_Pilot,2022.1.3,Win32,74.81110197,62bbe60bf3d75ef465d3e404,0,63,63,9,1,onethree,,,,,,,,,,,,,,,,,,,,,,,,,,,,,,,,,,,,,,,,,,,,,,,,,,,,,,,,,,,,,,,,,,,,,,,,,,,,,,,,,,,,,,,,,,,,,,,,,,,,,,,,,,,,,,,,,,,,,,,,,,,,,,,,,,,,,,,,,,,,,,,,,,,,,,,,
,,,,,,60d5f605483d5fe184fcaad8,62bbf90de1b67965ba07d588,2022-06-29_09h39.13.010,Colour_Asymmetry_Pilot,2022.1.3,Win32,74.81110197,62bbe60bf3d75ef465d3e404,0,64,64,46,1,fourtwo,,,,,,,,,,,,,,,,,,,,,,,,,,,,,,,,,,,,,,,,,,,,,,,,,,,,,,,,,,,,,,,,,,,,,,,,,,,,,,,,,,,,,,,,,,,,,,,,,,,,,,,,,,,,,,,,,,,,,,,,,,,,,,,,,,,,,,,,,,,,,,,,,,,,,,,,
,,,,,,60d5f605483d5fe184fcaad8,62bbf90de1b67965ba07d588,2022-06-29_09h39.13.010,Colour_Asymmetry_Pilot,2022.1.3,Win32,74.81110197,62bbe60bf3d75ef465d3e404,0,65,65,33,1,onethree,,,,,,,,,,,,,,,,,,,,,,,,,,,,,,,,,,,,,,,,,,,,,,,,,,,,,,,,,,,,,,,,,,,,,,,,,,,,,,,,,,,,,,,,,,,,,,,,,,,,,,,,,,,,,,,,,,,,,,,,,,,,,,,,,,,,,,,,,,,,,,,,,,,,,,,,
,,,,,,60d5f605483d5fe184fcaad8,62bbf90de1b67965ba07d588,2022-06-29_09h39.13.010,Colour_Asymmetry_Pilot,2022.1.3,Win32,74.81110197,62bbe60bf3d75ef465d3e404,0,66,66,56,1,onetwo,,,,,,,,,,,,,,,,,,,,,,,,,,,,,,,,,,,,,,,,,,,,,,,,,,,,,,,,,,,,,,,,,,,,,,,,,,,,,,,,,,,,,,,,,,,,,,,,,,,,,,,,,,,,,,,,,,,,,,,,,,,,,,,,,,,,,,,,,,,,,,,,,,,,,,,,
,,,,,,60d5f605483d5fe184fcaad8,62bbf90de1b67965ba07d588,2022-06-29_09h39.13.010,Colour_Asymmetry_Pilot,2022.1.3,Win32,74.81110197,62bbe60bf3d75ef465d3e404,0,67,67,43,1,twofour,,,,,,,,,,,,,,,,,,,,,,,,,,,,,,,,,,,,,,,,,,,,,,,,,,,,,,,,,,,,,,,,,,,,,,,,,,,,,,,,,,,,,,,,,,,,,,,,,,,,,,,,,,,,,,,,,,,,,,,,,,,,,,,,,,,,,,,,,,,,,,,,,,,,,,,,
,,,,,,60d5f605483d5fe184fcaad8,62bbf90de1b67965ba07d588,2022-06-29_09h39.13.010,Colour_Asymmetry_Pilot,2022.1.3,Win32,74.81110197,62bbe60bf3d75ef465d3e404,0,68,68,128,1,onetwo,,,,,,,,,,,,,,,,,,,,,,,,,,,,,,,,,,,,,,,,,,,,,,,,,,,,,,,,,,,,,,,,,,,,,,,,,,,,,,,,,,,,,,,,,,,,,,,,,,,,,,,,,,,,,,,,,,,,,,,,,,,,,,,,,,,,,,,,,,,,,,,,,,,,,,,,
,,,,,,60d5f605483d5fe184fcaad8,62bbf90de1b67965ba07d588,2022-06-29_09h39.13.010,Colour_Asymmetry_Pilot,2022.1.3,Win32,74.81110197,62bbe60bf3d75ef465d3e404,0,69,69,58,1,twoone,,,,,,,,,,,,,,,,,,,,,,,,,,,,,,,,,,,,,,,,,,,,,,,,,,,,,,,,,,,,,,,,,,,,,,,,,,,,,,,,,,,,,,,,,,,,,,,,,,,,,,,,,,,,,,,,,,,,,,,,,,,,,,,,,,,,,,,,,,,,,,,,,,,,,,,,
,,,,,,60d5f605483d5fe184fcaad8,62bbf90de1b67965ba07d588,2022-06-29_09h39.13.010,Colour_Asymmetry_Pilot,2022.1.3,Win32,74.81110197,62bbe60bf3d75ef465d3e404,0,70,70,48,1,onetwo,,,,,,,,,,,,,,,,,,,,,,,,,,,,,,,,,,,,,,,,,,,,,,,,,,,,,,,,,,,,,,,,,,,,,,,,,,,,,,,,,,,,,,,,,,,,,,,,,,,,,,,,,,,,,,,,,,,,,,,,,,,,,,,,,,,,,,,,,,,,,,,,,,,,,,,,
,,,,,,60d5f605483d5fe184fcaad8,62bbf90de1b67965ba07d588,2022-06-29_09h39.13.010,Colour_Asymmetry_Pilot,2022.1.3,Win32,74.81110197,62bbe60bf3d75ef465d3e404,0,71,71,18,1,twoone,,,,,,,,,,,,,,,,,,,,,,,,,,,,,,,,,,,,,,,,,,,,,,,,,,,,,,,,,,,,,,,,,,,,,,,,,,,,,,,,,,,,,,,,,,,,,,,,,,,,,,,,,,,,,,,,,,,,,,,,,,,,,,,,,,,,,,,,,,,,,,,,,,,,,,,,
,,,,,,60d5f605483d5fe184fcaad8,62bbf90de1b67965ba07d588,2022-06-29_09h39.13.010,Colour_Asymmetry_Pilot,2022.1.3,Win32,74.81110197,62bbe60bf3d75ef465d3e404,0,72,72,85,1,threefour,,,,,,,,,,,,,,,,,,,,,,,,,,,,,,,,,,,,,,,,,,,,,,,,,,,,,,,,,,,,,,,,,,,,,,,,,,,,,,,,,,,,,,,,,,,,,,,,,,,,,,,,,,,,,,,,,,,,,,,,,,,,,,,,,,,,,,,,,,,,,,,,,,,,,,,,
,,,,,,60d5f605483d5fe184fcaad8,62bbf90de1b67965ba07d588,2022-06-29_09h39.13.010,Colour_Asymmetry_Pilot,2022.1.3,Win32,74.81110197,62bbe60bf3d75ef465d3e404,0,73,73,29,1,threefour,,,,,,,,,,,,,,,,,,,,,,,,,,,,,,,,,,,,,,,,,,,,,,,,,,,,,,,,,,,,,,,,,,,,,,,,,,,,,,,,,,,,,,,,,,,,,,,,,,,,,,,,,,,,,,,,,,,,,,,,,,,,,,,,,,,,,,,,,,,,,,,,,,,,,,,,
,,,,,,60d5f605483d5fe184fcaad8,62bbf90de1b67965ba07d588,2022-06-29_09h39.13.010,Colour_Asymmetry_Pilot,2022.1.3,Win32,74.81110197,62bbe60bf3d75ef465d3e404,0,74,74,36,1,threeone,,,,,,,,,,,,,,,,,,,,,,,,,,,,,,,,,,,,,,,,,,,,,,,,,,,,,,,,,,,,,,,,,,,,,,,,,,,,,,,,,,,,,,,,,,,,,,,,,,,,,,,,,,,,,,,,,,,,,,,,,,,,,,,,,,,,,,,,,,,,,,,,,,,,,,,,
,,,,,,60d5f605483d5fe184fcaad8,62bbf90de1b67965ba07d588,2022-06-29_09h39.13.010,Colour_Asymmetry_Pilot,2022.1.3,Win32,74.81110197,62bbe60bf3d75ef465d3e404,0,75,75,100,1,threeone,,,,,,,,,,,,,,,,,,,,,,,,,,,,,,,,,,,,,,,,,,,,,,,,,,,,,,,,,,,,,,,,,,,,,,,,,,,,,,,,,,,,,,,,,,,,,,,,,,,,,,,,,,,,,,,,,,,,,,,,,,,,,,,,,,,,,,,,,,,,,,,,,,,,,,,,
,,,,,,60d5f605483d5fe184fcaad8,62bbf90de1b67965ba07d588,2022-06-29_09h39.13.010,Colour_Asymmetry_Pilot,2022.1.3,Win32,74.81110197,62bbe60bf3d75ef465d3e404,0,76,76,136,1,onetwo,,,,,,,,,,,,,,,,,,,,,,,,,,,,,,,,,,,,,,,,,,,,,,,,,,,,,,,,,,,,,,,,,,,,,,,,,,,,,,,,,,,,,,,,,,,,,,,,,,,,,,,,,,,,,,,,,,,,,,,,,,,,,,,,,,,,,,,,,,,,,,,,,,,,,,,,
,,,,,,60d5f605483d5fe184fcaad8,62bbf90de1b67965ba07d588,2022-06-29_09h39.13.010,Colour_Asymmetry_Pilot,2022.1.3,Win32,74.81110197,62bbe60bf3d75ef465d3e404,0,77,77,50,1,twoone,,,,,,,,,,,,,,,,,,,,,,,,,,,,,,,,,,,,,,,,,,,,,,,,,,,,,,,,,,,,,,,,,,,,,,,,,,,,,,,,,,,,,,,,,,,,,,,,,,,,,,,,,,,,,,,,,,,,,,,,,,,,,,,,,,,,,,,,,,,,,,,,,,,,,,,,
,,,,,,60d5f605483d5fe184fcaad8,62bbf90de1b67965ba07d588,2022-06-29_09h39.13.010,Colour_Asymmetry_Pilot,2022.1.3,Win32,74.81110197,62bbe60bf3d75ef465d3e404,0,78,78,88,1,onetwo,,,,,,,,,,,,,,,,,,,,,,,,,,,,,,,,,,,,,,,,,,,,,,,,,,,,,,,,,,,,,,,,,,,,,,,,,,,,,,,,,,,,,,,,,,,,,,,,,,,,,,,,,,,,,,,,,,,,,,,,,,,,,,,,,,,,,,,,,,,,,,,,,,,,,,,,
,,,,,,60d5f605483d5fe184fcaad8,62bbf90de1b67965ba07d588,2022-06-29_09h39.13.010,Colour_Asymmetry_Pilot,2022.1.3,Win32,74.81110197,62bbe60bf3d75ef465d3e404,0,79,79,17,1,onethree,,,,,,,,,,,,,,,,,,,,,,,,,,,,,,,,,,,,,,,,,,,,,,,,,,,,,,,,,,,,,,,,,,,,,,,,,,,,,,,,,,,,,,,,,,,,,,,,,,,,,,,,,,,,,,,,,,,,,,,,,,,,,,,,,,,,,,,,,,,,,,,,,,,,,,,,
,,,,,,60d5f605483d5fe184fcaad8,62bbf90de1b67965ba07d588,2022-06-29_09h39.13.010,Colour_Asymmetry_Pilot,2022.1.3,Win32,74.81110197,62bbe60bf3d75ef465d3e404,0,80,80,62,1,fourtwo,,,,,,,,,,,,,,,,,,,,,,,,,,,,,,,,,,,,,,,,,,,,,,,,,,,,,,,,,,,,,,,,,,,,,,,,,,,,,,,,,,,,,,,,,,,,,,,,,,,,,,,,,,,,,,,,,,,,,,,,,,,,,,,,,,,,,,,,,,,,,,,,,,,,,,,,
,,,,,,60d5f605483d5fe184fcaad8,62bbf90de1b67965ba07d588,2022-06-29_09h39.13.010,Colour_Asymmetry_Pilot,2022.1.3,Win32,74.81110197,62bbe60bf3d75ef465d3e404,0,81,81,74,1,twoone,,,,,,,,,,,,,,,,,,,,,,,,,,,,,,,,,,,,,,,,,,,,,,,,,,,,,,,,,,,,,,,,,,,,,,,,,,,,,,,,,,,,,,,,,,,,,,,,,,,,,,,,,,,,,,,,,,,,,,,,,,,,,,,,,,,,,,,,,,,,,,,,,,,,,,,,
,,,,,,60d5f605483d5fe184fcaad8,62bbf90de1b67965ba07d588,2022-06-29_09h39.13.010,Colour_Asymmetry_Pilot,2022.1.3,Win32,74.81110197,62bbe60bf3d75ef465d3e404,0,82,82,87,1,fourthree,,,,,,,,,,,,,,,,,,,,,,,,,,,,,,,,,,,,,,,,,,,,,,,,,,,,,,,,,,,,,,,,,,,,,,,,,,,,,,,,,,,,,,,,,,,,,,,,,,,,,,,,,,,,,,,,,,,,,,,,,,,,,,,,,,,,,,,,,,,,,,,,,,,,,,,,
,,,,,,60d5f605483d5fe184fcaad8,62bbf90de1b67965ba07d588,2022-06-29_09h39.13.010,Colour_Asymmetry_Pilot,2022.1.3,Win32,74.81110197,62bbe60bf3d75ef465d3e404,0,83,83,26,1,twoone,,,,,,,,,,,,,,,,,,,,,,,,,,,,,,,,,,,,,,,,,,,,,,,,,,,,,,,,,,,,,,,,,,,,,,,,,,,,,,,,,,,,,,,,,,,,,,,,,,,,,,,,,,,,,,,,,,,,,,,,,,,,,,,,,,,,,,,,,,,,,,,,,,,,,,,,
,,,,,,60d5f605483d5fe184fcaad8,62bbf90de1b67965ba07d588,2022-06-29_09h39.13.010,Colour_Asymmetry_Pilot,2022.1.3,Win32,74.81110197,62bbe60bf3d75ef465d3e404,0,84,84,69,1,threefour,,,,,,,,,,,,,,,,,,,,,,,,,,,,,,,,,,,,,,,,,,,,,,,,,,,,,,,,,,,,,,,,,,,,,,,,,,,,,,,,,,,,,,,,,,,,,,,,,,,,,,,,,,,,,,,,,,,,,,,,,,,,,,,,,,,,,,,,,,,,,,,,,,,,,,,,
,,,,,,60d5f605483d5fe184fcaad8,62bbf90de1b67965ba07d588,2022-06-29_09h39.13.010,Colour_Asymmetry_Pilot,2022.1.3,Win32,74.81110197,62bbe60bf3d75ef465d3e404,0,85,85,132,1,threeone,,,,,,,,,,,,,,,,,,,,,,,,,,,,,,,,,,,,,,,,,,,,,,,,,,,,,,,,,,,,,,,,,,,,,,,,,,,,,,,,,,,,,,,,,,,,,,,,,,,,,,,,,,,,,,,,,,,,,,,,,,,,,,,,,,,,,,,,,,,,,,,,,,,,,,,,
,,,,,,60d5f605483d5fe184fcaad8,62bbf90de1b67965ba07d588,2022-06-29_09h39.13.010,Colour_Asymmetry_Pilot,2022.1.3,Win32,74.81110197,62bbe60bf3d75ef465d3e404,0,86,86,102,1,fourtwo,,,,,,,,,,,,,,,,,,,,,,,,,,,,,,,,,,,,,,,,,,,,,,,,,,,,,,,,,,,,,,,,,,,,,,,,,,,,,,,,,,,,,,,,,,,,,,,,,,,,,,,,,,,,,,,,,,,,,,,,,,,,,,,,,,,,,,,,,,,,,,,,,,,,,,,,
,,,,,,60d5f605483d5fe184fcaad8,62bbf90de1b67965ba07d588,2022-06-29_09h39.13.010,Colour_Asymmetry_Pilot,2022.1.3,Win32,74.81110197,62bbe60bf3d75ef465d3e404,0,87,87,21,1,threefour,,,,,,,,,,,,,,,,,,,,,,,,,,,,,,,,,,,,,,,,,,,,,,,,,,,,,,,,,,,,,,,,,,,,,,,,,,,,,,,,,,,,,,,,,,,,,,,,,,,,,,,,,,,,,,,,,,,,,,,,,,,,,,,,,,,,,,,,,,,,,,,,,,,,,,,,
,,,,,,60d5f605483d5fe184fcaad8,62bbf90de1b67965ba07d588,2022-06-29_09h39.13.010,Colour_Asymmetry_Pilot,2022.1.3,Win32,74.81110197,62bbe60bf3d75ef465d3e404,0,88,88,127,1,fourthree,,,,,,,,,,,,,,,,,,,,,,,,,,,,,,,,,,,,,,,,,,,,,,,,,,,,,,,,,,,,,,,,,,,,,,,,,,,,,,,,,,,,,,,,,,,,,,,,,,,,,,,,,,,,,,,,,,,,,,,,,,,,,,,,,,,,,,,,,,,,,,,,,,,,,,,,
,,,,,,60d5f605483d5fe184fcaad8,62bbf90de1b67965ba07d588,2022-06-29_09h39.13.010,Colour_Asymmetry_Pilot,2022.1.3,Win32,74.81110197,62bbe60bf3d75ef465d3e404,0,89,89,83,1,twofour,,,,,,,,,,,,,,,,,,,,,,,,,,,,,,,,,,,,,,,,,,,,,,,,,,,,,,,,,,,,,,,,,,,,,,,,,,,,,,,,,,,,,,,,,,,,,,,,,,,,,,,,,,,,,,,,,,,,,,,,,,,,,,,,,,,,,,,,,,,,,,,,,,,,,,,,
,,,,,,60d5f605483d5fe184fcaad8,62bbf90de1b67965ba07d588,2022-06-29_09h39.13.010,Colour_Asymmetry_Pilot,2022.1.3,Win32,74.81110197,62bbe60bf3d75ef465d3e404,0,90,90,134,1,fourtwo,,,,,,,,,,,,,,,,,,,,,,,,,,,,,,,,,,,,,,,,,,,,,,,,,,,,,,,,,,,,,,,,,,,,,,,,,,,,,,,,,,,,,,,,,,,,,,,,,,,,,,,,,,,,,,,,,,,,,,,,,,,,,,,,,,,,,,,,,,,,,,,,,,,,,,,,
,,,,,,60d5f605483d5fe184fcaad8,62bbf90de1b67965ba07d588,2022-06-29_09h39.13.010,Colour_Asymmetry_Pilot,2022.1.3,Win32,74.81110197,62bbe60bf3d75ef465d3e404,0,91,91,141,1,threefour,,,,,,,,,,,,,,,,,,,,,,,,,,,,,,,,,,,,,,,,,,,,,,,,,,,,,,,,,,,,,,,,,,,,,,,,,,,,,,,,,,,,,,,,,,,,,,,,,,,,,,,,,,,,,,,,,,,,,,,,,,,,,,,,,,,,,,,,,,,,,,,,,,,,,,,,
,,,,,,60d5f605483d5fe184fcaad8,62bbf90de1b67965ba07d588,2022-06-29_09h39.13.010,Colour_Asymmetry_Pilot,2022.1.3,Win32,74.81110197,62bbe60bf3d75ef465d3e404,0,92,92,146,1,twoone,,,,,,,,,,,,,,,,,,,,,,,,,,,,,,,,,,,,,,,,,,,,,,,,,,,,,,,,,,,,,,,,,,,,,,,,,,,,,,,,,,,,,,,,,,,,,,,,,,,,,,,,,,,,,,,,,,,,,,,,,,,,,,,,,,,,,,,,,,,,,,,,,,,,,,,,
,,,,,,60d5f605483d5fe184fcaad8,62bbf90de1b67965ba07d588,2022-06-29_09h39.13.010,Colour_Asymmetry_Pilot,2022.1.3,Win32,74.81110197,62bbe60bf3d75ef465d3e404,0,93,93,51,1,twofour,,,,,,,,,,,,,,,,,,,,,,,,,,,,,,,,,,,,,,,,,,,,,,,,,,,,,,,,,,,,,,,,,,,,,,,,,,,,,,,,,,,,,,,,,,,,,,,,,,,,,,,,,,,,,,,,,,,,,,,,,,,,,,,,,,,,,,,,,,,,,,,,,,,,,,,,
,,,,,,60d5f605483d5fe184fcaad8,62bbf90de1b67965ba07d588,2022-06-29_09h39.13.010,Colour_Asymmetry_Pilot,2022.1.3,Win32,74.81110197,62bbe60bf3d75ef465d3e404,0,94,94,79,1,fourthree,,,,,,,,,,,,,,,,,,,,,,,,,,,,,,,,,,,,,,,,,,,,,,,,,,,,,,,,,,,,,,,,,,,,,,,,,,,,,,,,,,,,,,,,,,,,,,,,,,,,,,,,,,,,,,,,,,,,,,,,,,,,,,,,,,,,,,,,,,,,,,,,,,,,,,,,
,,,,,,60d5f605483d5fe184fcaad8,62bbf90de1b67965ba07d588,2022-06-29_09h39.13.010,Colour_Asymmetry_Pilot,2022.1.3,Win32,74.81110197,62bbe60bf3d75ef465d3e404,0,95,95,159,1,fourthree,,,,,,,,,,,,,,,,,,,,,,,,,,,,,,,,,,,,,,,,,,,,,,,,,,,,,,,,,,,,,,,,,,,,,,,,,,,,,,,,,,,,,,,,,,,,,,,,,,,,,,,,,,,,,,,,,,,,,,,,,,,,,,,,,,,,,,,,,,,,,,,,,,,,,,,,
,,,,,,60d5f605483d5fe184fcaad8,62bbf90de1b67965ba07d588,2022-06-29_09h39.13.010,Colour_Asymmetry_Pilot,2022.1.3,Win32,74.81110197,62bbe60bf3d75ef465d3e404,0,96,96,155,1,twofour,,,,,,,,,,,,,,,,,,,,,,,,,,,,,,,,,,,,,,,,,,,,,,,,,,,,,,,,,,,,,,,,,,,,,,,,,,,,,,,,,,,,,,,,,,,,,,,,,,,,,,,,,,,,,,,,,,,,,,,,,,,,,,,,,,,,,,,,,,,,,,,,,,,,,,,,
,,,,,,60d5f605483d5fe184fcaad8,62bbf90de1b67965ba07d588,2022-06-29_09h39.13.010,Colour_Asymmetry_Pilot,2022.1.3,Win32,74.81110197,62bbe60bf3d75ef465d3e404,0,97,97,81,1,onethree,,,,,,,,,,,,,,,,,,,,,,,,,,,,,,,,,,,,,,,,,,,,,,,,,,,,,,,,,,,,,,,,,,,,,,,,,,,,,,,,,,,,,,,,,,,,,,,,,,,,,,,,,,,,,,,,,,,,,,,,,,,,,,,,,,,,,,,,,,,,,,,,,,,,,,,,
,,,,,,60d5f605483d5fe184fcaad8,62bbf90de1b67965ba07d588,2022-06-29_09h39.13.010,Colour_Asymmetry_Pilot,2022.1.3,Win32,74.81110197,62bbe60bf3d75ef465d3e404,0,98,98,64,1,onetwo,,,,,,,,,,,,,,,,,,,,,,,,,,,,,,,,,,,,,,,,,,,,,,,,,,,,,,,,,,,,,,,,,,,,,,,,,,,,,,,,,,,,,,,,,,,,,,,,,,,,,,,,,,,,,,,,,,,,,,,,,,,,,,,,,,,,,,,,,,,,,,,,,,,,,,,,
,,,,,,60d5f605483d5fe184fcaad8,62bbf90de1b67965ba07d588,2022-06-29_09h39.13.010,Colour_Asymmetry_Pilot,2022.1.3,Win32,74.81110197,62bbe60bf3d75ef465d3e404,0,99,99,19,1,twofour,,,,,,,,,,,,,,,,,,,,,,,,,,,,,,,,,,,,,,,,,,,,,,,,,,,,,,,,,,,,,,,,,,,,,,,,,,,,,,,,,,,,,,,,,,,,,,,,,,,,,,,,,,,,,,,,,,,,,,,,,,,,,,,,,,,,,,,,,,,,,,,,,,,,,,,,
,,,,,,60d5f605483d5fe184fcaad8,62bbf90de1b67965ba07d588,2022-06-29_09h39.13.010,Colour_Asymmetry_Pilot,2022.1.3,Win32,74.81110197,62bbe60bf3d75ef465d3e404,0,100,100,54,1,fourtwo,,,,,,,,,,,,,,,,,,,,,,,,,,,,,,,,,,,,,,,,,,,,,,,,,,,,,,,,,,,,,,,,,,,,,,,,,,,,,,,,,,,,,,,,,,,,,,,,,,,,,,,,,,,,,,,,,,,,,,,,,,,,,,,,,,,,,,,,,,,,,,,,,,,,,,,,
,,,,,,60d5f605483d5fe184fcaad8,62bbf90de1b67965ba07d588,2022-06-29_09h39.13.010,Colour_Asymmetry_Pilot,2022.1.3,Win32,74.81110197,62bbe60bf3d75ef465d3e404,0,101,101,107,1,twofour,,,,,,,,,,,,,,,,,,,,,,,,,,,,,,,,,,,,,,,,,,,,,,,,,,,,,,,,,,,,,,,,,,,,,,,,,,,,,,,,,,,,,,,,,,,,,,,,,,,,,,,,,,,,,,,,,,,,,,,,,,,,,,,,,,,,,,,,,,,,,,,,,,,,,,,,
,,,,,,60d5f605483d5fe184fcaad8,62bbf90de1b67965ba07d588,2022-06-29_09h39.13.010,Colour_Asymmetry_Pilot,2022.1.3,Win32,74.81110197,62bbe60bf3d75ef465d3e404,0,102,102,113,1,onethree,,,,,,,,,,,,,,,,,,,,,,,,,,,,,,,,,,,,,,,,,,,,,,,,,,,,,,,,,,,,,,,,,,,,,,,,,,,,,,,,,,,,,,,,,,,,,,,,,,,,,,,,,,,,,,,,,,,,,,,,,,,,,,,,,,,,,,,,,,,,,,,,,,,,,,,,
,,,,,,60d5f605483d5fe184fcaad8,62bbf90de1b67965ba07d588,2022-06-29_09h39.13.010,Colour_Asymmetry_Pilot,2022.1.3,Win32,74.81110197,62bbe60bf3d75ef465d3e404,0,103,103,90,1,twoone,,,,,,,,,,,,,,,,,,,,,,,,,,,,,,,,,,,,,,,,,,,,,,,,,,,,,,,,,,,,,,,,,,,,,,,,,,,,,,,,,,,,,,,,,,,,,,,,,,,,,,,,,,,,,,,,,,,,,,,,,,,,,,,,,,,,,,,,,,,,,,,,,,,,,,,,
,,,,,,60d5f605483d5fe184fcaad8,62bbf90de1b67965ba07d588,2022-06-29_09h39.13.010,Colour_Asymmetry_Pilot,2022.1.3,Win32,74.81110197,62bbe60bf3d75ef465d3e404,0,104,104,45,1,threefour,,,,,,,,,,,,,,,,,,,,,,,,,,,,,,,,,,,,,,,,,,,,,,,,,,,,,,,,,,,,,,,,,,,,,,,,,,,,,,,,,,,,,,,,,,,,,,,,,,,,,,,,,,,,,,,,,,,,,,,,,,,,,,,,,,,,,,,,,,,,,,,,,,,,,,,,
,,,,,,60d5f605483d5fe184fcaad8,62bbf90de1b67965ba07d588,2022-06-29_09h39.13.010,Colour_Asymmetry_Pilot,2022.1.3,Win32,74.81110197,62bbe60bf3d75ef465d3e404,0,105,105,15,1,fourthree,,,,,,,,,,,,,,,,,,,,,,,,,,,,,,,,,,,,,,,,,,,,,,,,,,,,,,,,,,,,,,,,,,,,,,,,,,,,,,,,,,,,,,,,,,,,,,,,,,,,,,,,,,,,,,,,,,,,,,,,,,,,,,,,,,,,,,,,,,,,,,,,,,,,,,,,
,,,,,,60d5f605483d5fe184fcaad8,62bbf90de1b67965ba07d588,2022-06-29_09h39.13.010,Colour_Asymmetry_Pilot,2022.1.3,Win32,74.81110197,62bbe60bf3d75ef465d3e404,0,106,106,10,1,twoone,,,,,,,,,,,,,,,,,,,,,,,,,,,,,,,,,,,,,,,,,,,,,,,,,,,,,,,,,,,,,,,,,,,,,,,,,,,,,,,,,,,,,,,,,,,,,,,,,,,,,,,,,,,,,,,,,,,,,,,,,,,,,,,,,,,,,,,,,,,,,,,,,,,,,,,,
,,,,,,60d5f605483d5fe184fcaad8,62bbf90de1b67965ba07d588,2022-06-29_09h39.13.010,Colour_Asymmetry_Pilot,2022.1.3,Win32,74.81110197,62bbe60bf3d75ef465d3e404,0,107,107,77,1,threefour,,,,,,,,,,,,,,,,,,,,,,,,,,,,,,,,,,,,,,,,,,,,,,,,,,,,,,,,,,,,,,,,,,,,,,,,,,,,,,,,,,,,,,,,,,,,,,,,,,,,,,,,,,,,,,,,,,,,,,,,,,,,,,,,,,,,,,,,,,,,,,,,,,,,,,,,
,,,,,,60d5f605483d5fe184fcaad8,62bbf90de1b67965ba07d588,2022-06-29_09h39.13.010,Colour_Asymmetry_Pilot,2022.1.3,Win32,74.81110197,62bbe60bf3d75ef465d3e404,0,108,108,109,1,threefour,,,,,,,,,,,,,,,,,,,,,,,,,,,,,,,,,,,,,,,,,,,,,,,,,,,,,,,,,,,,,,,,,,,,,,,,,,,,,,,,,,,,,,,,,,,,,,,,,,,,,,,,,,,,,,,,,,,,,,,,,,,,,,,,,,,,,,,,,,,,,,,,,,,,,,,,
,,,,,,60d5f605483d5fe184fcaad8,62bbf90de1b67965ba07d588,2022-06-29_09h39.13.010,Colour_Asymmetry_Pilot,2022.1.3,Win32,74.81110197,62bbe60bf3d75ef465d3e404,0,109,109,121,1,onethree,,,,,,,,,,,,,,,,,,,,,,,,,,,,,,,,,,,,,,,,,,,,,,,,,,,,,,,,,,,,,,,,,,,,,,,,,,,,,,,,,,,,,,,,,,,,,,,,,,,,,,,,,,,,,,,,,,,,,,,,,,,,,,,,,,,,,,,,,,,,,,,,,,,,,,,,
,,,,,,60d5f605483d5fe184fcaad8,62bbf90de1b67965ba07d588,2022-06-29_09h39.13.010,Colour_Asymmetry_Pilot,2022.1.3,Win32,74.81110197,62bbe60bf3d75ef465d3e404,0,110,110,98,1,twoone,,,,,,,,,,,,,,,,,,,,,,,,,,,,,,,,,,,,,,,,,,,,,,,,,,,,,,,,,,,,,,,,,,,,,,,,,,,,,,,,,,,,,,,,,,,,,,,,,,,,,,,,,,,,,,,,,,,,,,,,,,,,,,,,,,,,,,,,,,,,,,,,,,,,,,,,
,,,,,,60d5f605483d5fe184fcaad8,62bbf90de1b67965ba07d588,2022-06-29_09h39.13.010,Colour_Asymmetry_Pilot,2022.1.3,Win32,74.81110197,62bbe60bf3d75ef465d3e404,0,111,111,12,1,threeone,,,,,,,,,,,,,,,,,,,,,,,,,,,,,,,,,,,,,,,,,,,,,,,,,,,,,,,,,,,,,,,,,,,,,,,,,,,,,,,,,,,,,,,,,,,,,,,,,,,,,,,,,,,,,,,,,,,,,,,,,,,,,,,,,,,,,,,,,,,,,,,,,,,,,,,,
,,,,,,60d5f605483d5fe184fcaad8,62bbf90de1b67965ba07d588,2022-06-29_09h39.13.010,Colour_Asymmetry_Pilot,2022.1.3,Win32,74.81110197,62bbe60bf3d75ef465d3e404,0,112,112,139,1,twofour,,,,,,,,,,,,,,,,,,,,,,,,,,,,,,,,,,,,,,,,,,,,,,,,,,,,,,,,,,,,,,,,,,,,,,,,,,,,,,,,,,,,,,,,,,,,,,,,,,,,,,,,,,,,,,,,,,,,,,,,,,,,,,,,,,,,,,,,,,,,,,,,,,,,,,,,
,,,,,,60d5f605483d5fe184fcaad8,62bbf90de1b67965ba07d588,2022-06-29_09h39.13.010,Colour_Asymmetry_Pilot,2022.1.3,Win32,74.81110197,62bbe60bf3d75ef465d3e404,0,113,113,97,1,onethree,,,,,,,,,,,,,,,,,,,,,,,,,,,,,,,,,,,,,,,,,,,,,,,,,,,,,,,,,,,,,,,,,,,,,,,,,,,,,,,,,,,,,,,,,,,,,,,,,,,,,,,,,,,,,,,,,,,,,,,,,,,,,,,,,,,,,,,,,,,,,,,,,,,,,,,,
,,,,,,60d5f605483d5fe184fcaad8,62bbf90de1b67965ba07d588,2022-06-29_09h39.13.010,Colour_Asymmetry_Pilot,2022.1.3,Win32,74.81110197,62bbe60bf3d75ef465d3e404,0,114,114,99,1,twofour,,,,,,,,,,,,,,,,,,,,,,,,,,,,,,,,,,,,,,,,,,,,,,,,,,,,,,,,,,,,,,,,,,,,,,,,,,,,,,,,,,,,,,,,,,,,,,,,,,,,,,,,,,,,,,,,,,,,,,,,,,,,,,,,,,,,,,,,,,,,,,,,,,,,,,,,
,,,,,,60d5f605483d5fe184fcaad8,62bbf90de1b67965ba07d588,2022-06-29_09h39.13.010,Colour_Asymmetry_Pilot,2022.1.3,Win32,74.81110197,62bbe60bf3d75ef465d3e404,0,115,115,117,1,threefour,,,,,,,,,,,,,,,,,,,,,,,,,,,,,,,,,,,,,,,,,,,,,,,,,,,,,,,,,,,,,,,,,,,,,,,,,,,,,,,,,,,,,,,,,,,,,,,,,,,,,,,,,,,,,,,,,,,,,,,,,,,,,,,,,,,,,,,,,,,,,,,,,,,,,,,,
,,,,,,60d5f605483d5fe184fcaad8,62bbf90de1b67965ba07d588,2022-06-29_09h39.13.010,Colour_Asymmetry_Pilot,2022.1.3,Win32,74.81110197,62bbe60bf3d75ef465d3e404,0,116,116,73,1,onethree,,,,,,,,,,,,,,,,,,,,,,,,,,,,,,,,,,,,,,,,,,,,,,,,,,,,,,,,,,,,,,,,,,,,,,,,,,,,,,,,,,,,,,,,,,,,,,,,,,,,,,,,,,,,,,,,,,,,,,,,,,,,,,,,,,,,,,,,,,,,,,,,,,,,,,,,
,,,,,,60d5f605483d5fe184fcaad8,62bbf90de1b67965ba07d588,2022-06-29_09h39.13.010,Colour_Asymmetry_Pilot,2022.1.3,Win32,74.81110197,62bbe60bf3d75ef465d3e404,0,117,117,34,1,twoone,,,,,,,,,,,,,,,,,,,,,,,,,,,,,,,,,,,,,,,,,,,,,,,,,,,,,,,,,,,,,,,,,,,,,,,,,,,,,,,,,,,,,,,,,,,,,,,,,,,,,,,,,,,,,,,,,,,,,,,,,,,,,,,,,,,,,,,,,,,,,,,,,,,,,,,,
,,,,,,60d5f605483d5fe184fcaad8,62bbf90de1b67965ba07d588,2022-06-29_09h39.13.010,Colour_Asymmetry_Pilot,2022.1.3,Win32,74.81110197,62bbe60bf3d75ef465d3e404,0,118,118,47,1,fourthree,,,,,,,,,,,,,,,,,,,,,,,,,,,,,,,,,,,,,,,,,,,,,,,,,,,,,,,,,,,,,,,,,,,,,,,,,,,,,,,,,,,,,,,,,,,,,,,,,,,,,,,,,,,,,,,,,,,,,,,,,,,,,,,,,,,,,,,,,,,,,,,,,,,,,,,,
,,,,,,60d5f605483d5fe184fcaad8,62bbf90de1b67965ba07d588,2022-06-29_09h39.13.010,Colour_Asymmetry_Pilot,2022.1.3,Win32,74.81110197,62bbe60bf3d75ef465d3e404,0,119,119,150,1,fourtwo,,,,,,,,,,,,,,,,,,,,,,,,,,,,,,,,,,,,,,,,,,,,,,,,,,,,,,,,,,,,,,,,,,,,,,,,,,,,,,,,,,,,,,,,,,,,,,,,,,,,,,,,,,,,,,,,,,,,,,,,,,,,,,,,,,,,,,,,,,,,,,,,,,,,,,,,
,,,,,,60d5f605483d5fe184fcaad8,62bbf90de1b67965ba07d588,2022-06-29_09h39.13.010,Colour_Asymmetry_Pilot,2022.1.3,Win32,74.81110197,62bbe60bf3d75ef465d3e404,0,120,120,84,1,threeone,,,,,,,,,,,,,,,,,,,,,,,,,,,,,,,,,,,,,,,,,,,,,,,,,,,,,,,,,,,,,,,,,,,,,,,,,,,,,,,,,,,,,,,,,,,,,,,,,,,,,,,,,,,,,,,,,,,,,,,,,,,,,,,,,,,,,,,,,,,,,,,,,,,,,,,,
,,,,,,60d5f605483d5fe184fcaad8,62bbf90de1b67965ba07d588,2022-06-29_09h39.13.010,Colour_Asymmetry_Pilot,2022.1.3,Win32,74.81110197,62bbe60bf3d75ef465d3e404,0,121,121,118,1,fourtwo,,,,,,,,,,,,,,,,,,,,,,,,,,,,,,,,,,,,,,,,,,,,,,,,,,,,,,,,,,,,,,,,,,,,,,,,,,,,,,,,,,,,,,,,,,,,,,,,,,,,,,,,,,,,,,,,,,,,,,,,,,,,,,,,,,,,,,,,,,,,,,,,,,,,,,,,
,,,,,,60d5f605483d5fe184fcaad8,62bbf90de1b67965ba07d588,2022-06-29_09h39.13.010,Colour_Asymmetry_Pilot,2022.1.3,Win32,74.81110197,62bbe60bf3d75ef465d3e404,0,122,122,6,1,fourtwo,,,,,,,,,,,,,,,,,,,,,,,,,,,,,,,,,,,,,,,,,,,,,,,,,,,,,,,,,,,,,,,,,,,,,,,,,,,,,,,,,,,,,,,,,,,,,,,,,,,,,,,,,,,,,,,,,,,,,,,,,,,,,,,,,,,,,,,,,,,,,,,,,,,,,,,,
,,,,,,60d5f605483d5fe184fcaad8,62bbf90de1b67965ba07d588,2022-06-29_09h39.13.010,Colour_Asymmetry_Pilot,2022.1.3,Win32,74.81110197,62bbe60bf3d75ef465d3e404,0,123,123,115,1,twofour,,,,,,,,,,,,,,,,,,,,,,,,,,,,,,,,,,,,,,,,,,,,,,,,,,,,,,,,,,,,,,,,,,,,,,,,,,,,,,,,,,,,,,,,,,,,,,,,,,,,,,,,,,,,,,,,,,,,,,,,,,,,,,,,,,,,,,,,,,,,,,,,,,,,,,,,
,,,,,,60d5f605483d5fe184fcaad8,62bbf90de1b67965ba07d588,2022-06-29_09h39.13.010,Colour_Asymmetry_Pilot,2022.1.3,Win32,74.81110197,62bbe60bf3d75ef465d3e404,0,124,124,149,1,threefour,,,,,,,,,,,,,,,,,,,,,,,,,,,,,,,,,,,,,,,,,,,,,,,,,,,,,,,,,,,,,,,,,,,,,,,,,,,,,,,,,,,,,,,,,,,,,,,,,,,,,,,,,,,,,,,,,,,,,,,,,,,,,,,,,,,,,,,,,,,,,,,,,,,,,,,,
,,,,,,60d5f605483d5fe184fcaad8,62bbf90de1b67965ba07d588,2022-06-29_09h39.13.010,Colour_Asymmetry_Pilot,2022.1.3,Win32,74.81110197,62bbe60bf3d75ef465d3e404,0,125,125,114,1,twoone,,,,,,,,,,,,,,,,,,,,,,,,,,,,,,,,,,,,,,,,,,,,,,,,,,,,,,,,,,,,,,,,,,,,,,,,,,,,,,,,,,,,,,,,,,,,,,,,,,,,,,,,,,,,,,,,,,,,,,,,,,,,,,,,,,,,,,,,,,,,,,,,,,,,,,,,
,,,,,,60d5f605483d5fe184fcaad8,62bbf90de1b67965ba07d588,2022-06-29_09h39.13.010,Colour_Asymmetry_Pilot,2022.1.3,Win32,74.81110197,62bbe60bf3d75ef465d3e404,0,126,126,2,1,twoone,,,,,,,,,,,,,,,,,,,,,,,,,,,,,,,,,,,,,,,,,,,,,,,,,,,,,,,,,,,,,,,,,,,,,,,,,,,,,,,,,,,,,,,,,,,,,,,,,,,,,,,,,,,,,,,,,,,,,,,,,,,,,,,,,,,,,,,,,,,,,,,,,,,,,,,,
,,,,,,60d5f605483d5fe184fcaad8,62bbf90de1b67965ba07d588,2022-06-29_09h39.13.010,Colour_Asymmetry_Pilot,2022.1.3,Win32,74.81110197,62bbe60bf3d75ef465d3e404,0,127,127,16,1,onetwo,,,,,,,,,,,,,,,,,,,,,,,,,,,,,,,,,,,,,,,,,,,,,,,,,,,,,,,,,,,,,,,,,,,,,,,,,,,,,,,,,,,,,,,,,,,,,,,,,,,,,,,,,,,,,,,,,,,,,,,,,,,,,,,,,,,,,,,,,,,,,,,,,,,,,,,,
,,,,,,60d5f605483d5fe184fcaad8,62bbf90de1b67965ba07d588,2022-06-29_09h39.13.010,Colour_Asymmetry_Pilot,2022.1.3,Win32,74.81110197,62bbe60bf3d75ef465d3e404,0,128,128,120,1,onetwo,,,,,,,,,,,,,,,,,,,,,,,,,,,,,,,,,,,,,,,,,,,,,,,,,,,,,,,,,,,,,,,,,,,,,,,,,,,,,,,,,,,,,,,,,,,,,,,,,,,,,,,,,,,,,,,,,,,,,,,,,,,,,,,,,,,,,,,,,,,,,,,,,,,,,,,,
,,,,,,60d5f605483d5fe184fcaad8,62bbf90de1b67965ba07d588,2022-06-29_09h39.13.010,Colour_Asymmetry_Pilot,2022.1.3,Win32,74.81110197,62bbe60bf3d75ef465d3e404,0,129,129,24,1,onetwo,,,,,,,,,,,,,,,,,,,,,,,,,,,,,,,,,,,,,,,,,,,,,,,,,,,,,,,,,,,,,,,,,,,,,,,,,,,,,,,,,,,,,,,,,,,,,,,,,,,,,,,,,,,,,,,,,,,,,,,,,,,,,,,,,,,,,,,,,,,,,,,,,,,,,,,,
,,,,,,60d5f605483d5fe184fcaad8,62bbf90de1b67965ba07d588,2022-06-29_09h39.13.010,Colour_Asymmetry_Pilot,2022.1.3,Win32,74.81110197,62bbe60bf3d75ef465d3e404,0,130,130,135,1,fourthree,,,,,,,,,,,,,,,,,,,,,,,,,,,,,,,,,,,,,,,,,,,,,,,,,,,,,,,,,,,,,,,,,,,,,,,,,,,,,,,,,,,,,,,,,,,,,,,,,,,,,,,,,,,,,,,,,,,,,,,,,,,,,,,,,,,,,,,,,,,,,,,,,,,,,,,,
,,,,,,60d5f605483d5fe184fcaad8,62bbf90de1b67965ba07d588,2022-06-29_09h39.13.010,Colour_Asymmetry_Pilot,2022.1.3,Win32,74.81110197,62bbe60bf3d75ef465d3e404,0,131,131,37,1,threefour,,,,,,,,,,,,,,,,,,,,,,,,,,,,,,,,,,,,,,,,,,,,,,,,,,,,,,,,,,,,,,,,,,,,,,,,,,,,,,,,,,,,,,,,,,,,,,,,,,,,,,,,,,,,,,,,,,,,,,,,,,,,,,,,,,,,,,,,,,,,,,,,,,,,,,,,
,,,,,,60d5f605483d5fe184fcaad8,62bbf90de1b67965ba07d588,2022-06-29_09h39.13.010,Colour_Asymmetry_Pilot,2022.1.3,Win32,74.81110197,62bbe60bf3d75ef465d3e404,0,132,132,160,1,onetwo,,,,,,,,,,,,,,,,,,,,,,,,,,,,,,,,,,,,,,,,,,,,,,,,,,,,,,,,,,,,,,,,,,,,,,,,,,,,,,,,,,,,,,,,,,,,,,,,,,,,,,,,,,,,,,,,,,,,,,,,,,,,,,,,,,,,,,,,,,,,,,,,,,,,,,,,
,,,,,,60d5f605483d5fe184fcaad8,62bbf90de1b67965ba07d588,2022-06-29_09h39.13.010,Colour_Asymmetry_Pilot,2022.1.3,Win32,74.81110197,62bbe60bf3d75ef465d3e404,0,133,133,41,1,onethree,,,,,,,,,,,,,,,,,,,,,,,,,,,,,,,,,,,,,,,,,,,,,,,,,,,,,,,,,,,,,,,,,,,,,,,,,,,,,,,,,,,,,,,,,,,,,,,,,,,,,,,,,,,,,,,,,,,,,,,,,,,,,,,,,,,,,,,,,,,,,,,,,,,,,,,,
,,,,,,60d5f605483d5fe184fcaad8,62bbf90de1b67965ba07d588,2022-06-29_09h39.13.010,Colour_Asymmetry_Pilot,2022.1.3,Win32,74.81110197,62bbe60bf3d75ef465d3e404,0,134,134,93,1,threefour,,,,,,,,,,,,,,,,,,,,,,,,,,,,,,,,,,,,,,,,,,,,,,,,,,,,,,,,,,,,,,,,,,,,,,,,,,,,,,,,,,,,,,,,,,,,,,,,,,,,,,,,,,,,,,,,,,,,,,,,,,,,,,,,,,,,,,,,,,,,,,,,,,,,,,,,
,,,,,,60d5f605483d5fe184fcaad8,62bbf90de1b67965ba07d588,2022-06-29_09h39.13.010,Colour_Asymmetry_Pilot,2022.1.3,Win32,74.81110197,62bbe60bf3d75ef465d3e404,0,135,135,129,1,onethree,,,,,,,,,,,,,,,,,,,,,,,,,,,,,,,,,,,,,,,,,,,,,,,,,,,,,,,,,,,,,,,,,,,,,,,,,,,,,,,,,,,,,,,,,,,,,,,,,,,,,,,,,,,,,,,,,,,,,,,,,,,,,,,,,,,,,,,,,,,,,,,,,,,,,,,,
,,,,,,60d5f605483d5fe184fcaad8,62bbf90de1b67965ba07d588,2022-06-29_09h39.13.010,Colour_Asymmetry_Pilot,2022.1.3,Win32,74.81110197,62bbe60bf3d75ef465d3e404,0,136,136,151,1,fourthree,,,,,,,,,,,,,,,,,,,,,,,,,,,,,,,,,,,,,,,,,,,,,,,,,,,,,,,,,,,,,,,,,,,,,,,,,,,,,,,,,,,,,,,,,,,,,,,,,,,,,,,,,,,,,,,,,,,,,,,,,,,,,,,,,,,,,,,,,,,,,,,,,,,,,,,,
,,,,,,60d5f605483d5fe184fcaad8,62bbf90de1b67965ba07d588,2022-06-29_09h39.13.010,Colour_Asymmetry_Pilot,2022.1.3,Win32,74.81110197,62bbe60bf3d75ef465d3e404,0,137,137,71,1,fourthree,,,,,,,,,,,,,,,,,,,,,,,,,,,,,,,,,,,,,,,,,,,,,,,,,,,,,,,,,,,,,,,,,,,,,,,,,,,,,,,,,,,,,,,,,,,,,,,,,,,,,,,,,,,,,,,,,,,,,,,,,,,,,,,,,,,,,,,,,,,,,,,,,,,,,,,,
,,,,,,60d5f605483d5fe184fcaad8,62bbf90de1b67965ba07d588,2022-06-29_09h39.13.010,Colour_Asymmetry_Pilot,2022.1.3,Win32,74.81110197,62bbe60bf3d75ef465d3e404,0,138,138,42,1,twoone,,,,,,,,,,,,,,,,,,,,,,,,,,,,,,,,,,,,,,,,,,,,,,,,,,,,,,,,,,,,,,,,,,,,,,,,,,,,,,,,,,,,,,,,,,,,,,,,,,,,,,,,,,,,,,,,,,,,,,,,,,,,,,,,,,,,,,,,,,,,,,,,,,,,,,,,
,,,,,,60d5f605483d5fe184fcaad8,62bbf90de1b67965ba07d588,2022-06-29_09h39.13.010,Colour_Asymmetry_Pilot,2022.1.3,Win32,74.81110197,62bbe60bf3d75ef465d3e404,0,139,139,23,1,fourthree,,,,,,,,,,,,,,,,,,,,,,,,,,,,,,,,,,,,,,,,,,,,,,,,,,,,,,,,,,,,,,,,,,,,,,,,,,,,,,,,,,,,,,,,,,,,,,,,,,,,,,,,,,,,,,,,,,,,,,,,,,,,,,,,,,,,,,,,,,,,,,,,,,,,,,,,
,,,,,,60d5f605483d5fe184fcaad8,62bbf90de1b67965ba07d588,2022-06-29_09h39.13.010,Colour_Asymmetry_Pilot,2022.1.3,Win32,74.81110197,62bbe60bf3d75ef465d3e404,0,140,140,126,1,fourtwo,,,,,,,,,,,,,,,,,,,,,,,,,,,,,,,,,,,,,,,,,,,,,,,,,,,,,,,,,,,,,,,,,,,,,,,,,,,,,,,,,,,,,,,,,,,,,,,,,,,,,,,,,,,,,,,,,,,,,,,,,,,,,,,,,,,,,,,,,,,,,,,,,,,,,,,,
,,,,,,60d5f605483d5fe184fcaad8,62bbf90de1b67965ba07d588,2022-06-29_09h39.13.010,Colour_Asymmetry_Pilot,2022.1.3,Win32,74.81110197,62bbe60bf3d75ef465d3e404,0,141,141,44,1,threeone,,,,,,,,,,,,,,,,,,,,,,,,,,,,,,,,,,,,,,,,,,,,,,,,,,,,,,,,,,,,,,,,,,,,,,,,,,,,,,,,,,,,,,,,,,,,,,,,,,,,,,,,,,,,,,,,,,,,,,,,,,,,,,,,,,,,,,,,,,,,,,,,,,,,,,,,
,,,,,,60d5f605483d5fe184fcaad8,62bbf90de1b67965ba07d588,2022-06-29_09h39.13.010,Colour_Asymmetry_Pilot,2022.1.3,Win32,74.81110197,62bbe60bf3d75ef465d3e404,0,142,142,122,1,twoone,,,,,,,,,,,,,,,,,,,,,,,,,,,,,,,,,,,,,,,,,,,,,,,,,,,,,,,,,,,,,,,,,,,,,,,,,,,,,,,,,,,,,,,,,,,,,,,,,,,,,,,,,,,,,,,,,,,,,,,,,,,,,,,,,,,,,,,,,,,,,,,,,,,,,,,,
,,,,,,60d5f605483d5fe184fcaad8,62bbf90de1b67965ba07d588,2022-06-29_09h39.13.010,Colour_Asymmetry_Pilot,2022.1.3,Win32,74.81110197,62bbe60bf3d75ef465d3e404,0,143,143,157,1,threefour,,,,,,,,,,,,,,,,,,,,,,,,,,,,,,,,,,,,,,,,,,,,,,,,,,,,,,,,,,,,,,,,,,,,,,,,,,,,,,,,,,,,,,,,,,,,,,,,,,,,,,,,,,,,,,,,,,,,,,,,,,,,,,,,,,,,,,,,,,,,,,,,,,,,,,,,
,,,,,,60d5f605483d5fe184fcaad8,62bbf90de1b67965ba07d588,2022-06-29_09h39.13.010,Colour_Asymmetry_Pilot,2022.1.3,Win32,74.81110197,62bbe60bf3d75ef465d3e404,0,144,144,144,1,onetwo,,,,,,,,,,,,,,,,,,,,,,,,,,,,,,,,,,,,,,,,,,,,,,,,,,,,,,,,,,,,,,,,,,,,,,,,,,,,,,,,,,,,,,,,,,,,,,,,,,,,,,,,,,,,,,,,,,,,,,,,,,,,,,,,,,,,,,,,,,,,,,,,,,,,,,,,
,,,,,,60d5f605483d5fe184fcaad8,62bbf90de1b67965ba07d588,2022-06-29_09h39.13.010,Colour_Asymmetry_Pilot,2022.1.3,Win32,74.81110197,62bbe60bf3d75ef465d3e404,0,145,145,7,1,fourthree,,,,,,,,,,,,,,,,,,,,,,,,,,,,,,,,,,,,,,,,,,,,,,,,,,,,,,,,,,,,,,,,,,,,,,,,,,,,,,,,,,,,,,,,,,,,,,,,,,,,,,,,,,,,,,,,,,,,,,,,,,,,,,,,,,,,,,,,,,,,,,,,,,,,,,,,
,,,,,,60d5f605483d5fe184fcaad8,62bbf90de1b67965ba07d588,2022-06-29_09h39.13.010,Colour_Asymmetry_Pilot,2022.1.3,Win32,74.81110197,62bbe60bf3d75ef465d3e404,0,146,146,154,1,twoone,,,,,,,,,,,,,,,,,,,,,,,,,,,,,,,,,,,,,,,,,,,,,,,,,,,,,,,,,,,,,,,,,,,,,,,,,,,,,,,,,,,,,,,,,,,,,,,,,,,,,,,,,,,,,,,,,,,,,,,,,,,,,,,,,,,,,,,,,,,,,,,,,,,,,,,,
,,,,,,60d5f605483d5fe184fcaad8,62bbf90de1b67965ba07d588,2022-06-29_09h39.13.010,Colour_Asymmetry_Pilot,2022.1.3,Win32,74.81110197,62bbe60bf3d75ef465d3e404,0,147,147,96,1,onetwo,,,,,,,,,,,,,,,,,,,,,,,,,,,,,,,,,,,,,,,,,,,,,,,,,,,,,,,,,,,,,,,,,,,,,,,,,,,,,,,,,,,,,,,,,,,,,,,,,,,,,,,,,,,,,,,,,,,,,,,,,,,,,,,,,,,,,,,,,,,,,,,,,,,,,,,,
,,,,,,60d5f605483d5fe184fcaad8,62bbf90de1b67965ba07d588,2022-06-29_09h39.13.010,Colour_Asymmetry_Pilot,2022.1.3,Win32,74.81110197,62bbe60bf3d75ef465d3e404,0,148,148,76,1,threeone,,,,,,,,,,,,,,,,,,,,,,,,,,,,,,,,,,,,,,,,,,,,,,,,,,,,,,,,,,,,,,,,,,,,,,,,,,,,,,,,,,,,,,,,,,,,,,,,,,,,,,,,,,,,,,,,,,,,,,,,,,,,,,,,,,,,,,,,,,,,,,,,,,,,,,,,
,,,,,,60d5f605483d5fe184fcaad8,62bbf90de1b67965ba07d588,2022-06-29_09h39.13.010,Colour_Asymmetry_Pilot,2022.1.3,Win32,74.81110197,62bbe60bf3d75ef465d3e404,0,149,149,14,1,fourtwo,,,,,,,,,,,,,,,,,,,,,,,,,,,,,,,,,,,,,,,,,,,,,,,,,,,,,,,,,,,,,,,,,,,,,,,,,,,,,,,,,,,,,,,,,,,,,,,,,,,,,,,,,,,,,,,,,,,,,,,,,,,,,,,,,,,,,,,,,,,,,,,,,,,,,,,,
,,,,,,60d5f605483d5fe184fcaad8,62bbf90de1b67965ba07d588,2022-06-29_09h39.13.010,Colour_Asymmetry_Pilot,2022.1.3,Win32,74.81110197,62bbe60bf3d75ef465d3e404,0,150,150,28,1,threeone,,,,,,,,,,,,,,,,,,,,,,,,,,,,,,,,,,,,,,,,,,,,,,,,,,,,,,,,,,,,,,,,,,,,,,,,,,,,,,,,,,,,,,,,,,,,,,,,,,,,,,,,,,,,,,,,,,,,,,,,,,,,,,,,,,,,,,,,,,,,,,,,,,,,,,,,
,,,,,,60d5f605483d5fe184fcaad8,62bbf90de1b67965ba07d588,2022-06-29_09h39.13.010,Colour_Asymmetry_Pilot,2022.1.3,Win32,74.81110197,62bbe60bf3d75ef465d3e404,0,151,151,95,1,fourthree,,,,,,,,,,,,,,,,,,,,,,,,,,,,,,,,,,,,,,,,,,,,,,,,,,,,,,,,,,,,,,,,,,,,,,,,,,,,,,,,,,,,,,,,,,,,,,,,,,,,,,,,,,,,,,,,,,,,,,,,,,,,,,,,,,,,,,,,,,,,,,,,,,,,,,,,
,,,,,,60d5f605483d5fe184fcaad8,62bbf90de1b67965ba07d588,2022-06-29_09h39.13.010,Colour_Asymmetry_Pilot,2022.1.3,Win32,74.81110197,62bbe60bf3d75ef465d3e404,0,152,152,4,1,threeone,,,,,,,,,,,,,,,,,,,,,,,,,,,,,,,,,,,,,,,,,,,,,,,,,,,,,,,,,,,,,,,,,,,,,,,,,,,,,,,,,,,,,,,,,,,,,,,,,,,,,,,,,,,,,,,,,,,,,,,,,,,,,,,,,,,,,,,,,,,,,,,,,,,,,,,,
,,,,,,60d5f605483d5fe184fcaad8,62bbf90de1b67965ba07d588,2022-06-29_09h39.13.010,Colour_Asymmetry_Pilot,2022.1.3,Win32,74.81110197,62bbe60bf3d75ef465d3e404,0,153,153,92,1,threeone,,,,,,,,,,,,,,,,,,,,,,,,,,,,,,,,,,,,,,,,,,,,,,,,,,,,,,,,,,,,,,,,,,,,,,,,,,,,,,,,,,,,,,,,,,,,,,,,,,,,,,,,,,,,,,,,,,,,,,,,,,,,,,,,,,,,,,,,,,,,,,,,,,,,,,,,
,,,,,,60d5f605483d5fe184fcaad8,62bbf90de1b67965ba07d588,2022-06-29_09h39.13.010,Colour_Asymmetry_Pilot,2022.1.3,Win32,74.81110197,62bbe60bf3d75ef465d3e404,0,154,154,137,1,onethree,,,,,,,,,,,,,,,,,,,,,,,,,,,,,,,,,,,,,,,,,,,,,,,,,,,,,,,,,,,,,,,,,,,,,,,,,,,,,,,,,,,,,,,,,,,,,,,,,,,,,,,,,,,,,,,,,,,,,,,,,,,,,,,,,,,,,,,,,,,,,,,,,,,,,,,,
,,,,,,60d5f605483d5fe184fcaad8,62bbf90de1b67965ba07d588,2022-06-29_09h39.13.010,Colour_Asymmetry_Pilot,2022.1.3,Win32,74.81110197,62bbe60bf3d75ef465d3e404,0,155,155,130,1,twoone,,,,,,,,,,,,,,,,,,,,,,,,,,,,,,,,,,,,,,,,,,,,,,,,,,,,,,,,,,,,,,,,,,,,,,,,,,,,,,,,,,,,,,,,,,,,,,,,,,,,,,,,,,,,,,,,,,,,,,,,,,,,,,,,,,,,,,,,,,,,,,,,,,,,,,,,
,,,,,,60d5f605483d5fe184fcaad8,62bbf90de1b67965ba07d588,2022-06-29_09h39.13.010,Colour_Asymmetry_Pilot,2022.1.3,Win32,74.81110197,62bbe60bf3d75ef465d3e404,0,156,156,61,1,threefour,,,,,,,,,,,,,,,,,,,,,,,,,,,,,,,,,,,,,,,,,,,,,,,,,,,,,,,,,,,,,,,,,,,,,,,,,,,,,,,,,,,,,,,,,,,,,,,,,,,,,,,,,,,,,,,,,,,,,,,,,,,,,,,,,,,,,,,,,,,,,,,,,,,,,,,,
,,,,,,60d5f605483d5fe184fcaad8,62bbf90de1b67965ba07d588,2022-06-29_09h39.13.010,Colour_Asymmetry_Pilot,2022.1.3,Win32,74.81110197,62bbe60bf3d75ef465d3e404,0,157,157,66,1,twoone,,,,,,,,,,,,,,,,,,,,,,,,,,,,,,,,,,,,,,,,,,,,,,,,,,,,,,,,,,,,,,,,,,,,,,,,,,,,,,,,,,,,,,,,,,,,,,,,,,,,,,,,,,,,,,,,,,,,,,,,,,,,,,,,,,,,,,,,,,,,,,,,,,,,,,,,
,,,,,,60d5f605483d5fe184fcaad8,62bbf90de1b67965ba07d588,2022-06-29_09h39.13.010,Colour_Asymmetry_Pilot,2022.1.3,Win32,74.81110197,62bbe60bf3d75ef465d3e404,0,158,158,116,1,threeone,,,,,,,,,,,,,,,,,,,,,,,,,,,,,,,,,,,,,,,,,,,,,,,,,,,,,,,,,,,,,,,,,,,,,,,,,,,,,,,,,,,,,,,,,,,,,,,,,,,,,,,,,,,,,,,,,,,,,,,,,,,,,,,,,,,,,,,,,,,,,,,,,,,,,,,,
,,,,,,60d5f605483d5fe184fcaad8,62bbf90de1b67965ba07d588,2022-06-29_09h39.13.010,Colour_Asymmetry_Pilot,2022.1.3,Win32,74.81110197,62bbe60bf3d75ef465d3e404,0,159,159,60,1,threeone,,,,,,,,,,,,,,,,,,,,,,,,,,,,,,,,,,,,,,,,,,,,,,,,,,,,,,,,,,,,,,,,,,,,,,,,,,,,,,,,,,,,,,,,,,,,,,,,,,,,,,,,,,,,,,,,,,,,,,,,,,,,,,,,,,,,,,,,,,,,,,,,,,,,,,,,
,,,,,,60d5f605483d5fe184fcaad8,62bbf90de1b67965ba07d588,2022-06-29_09h39.13.010,Colour_Asymmetry_Pilot,2022.1.3,Win32,74.81110197,62bbe60bf3d75ef465d3e404,0,160,160,147,1,twofour,,,,,,,,,,,,,,,,,,,,,,,,,,,,,,,,,,,,,,,,,,,,,,,,,,,,,,,,,,,,,,,,,,,,,,,,,,,,,,,,,,,,,,,,,,,,,,,,,,,,,,,,,,,,,,,,,,,,,,,,,,,,,,,,,,,,,,,,,,,,,,,,,,,,,,,,
,,,,,,60d5f605483d5fe184fcaad8,62bbf90de1b67965ba07d588,2022-06-29_09h39.13.010,Colour_Asymmetry_Pilot,2022.1.3,Win32,74.81110197,62bbe60bf3d75ef465d3e404,0,161,161,86,1,fourtwo,,,,,,,,,,,,,,,,,,,,,,,,,,,,,,,,,,,,,,,,,,,,,,,,,,,,,,,,,,,,,,,,,,,,,,,,,,,,,,,,,,,,,,,,,,,,,,,,,,,,,,,,,,,,,,,,,,,,,,,,,,,,,,,,,,,,,,,,,,,,,,,,,,,,,,,,
,,,,,,60d5f605483d5fe184fcaad8,62bbf90de1b67965ba07d588,2022-06-29_09h39.13.010,Colour_Asymmetry_Pilot,2022.1.3,Win32,74.81110197,62bbe60bf3d75ef465d3e404,,,,,,,space,0.9103,space,2.3771,space,44.2136,space,14.4727,space,14.0312,space,3.8061,"[0.9842,0.7409999999999999,-0.6628000000000001]",twoone,"[0.09799999999999986,-0.24719999999999998,0.15280000000000005]",-1,9.9934,-68.79998779,-125.6000366,1,0,0,response5disk_5,-2.399963379,-8.799987793,1,0,0,rectangle_8,39.20007324,128,1,0,0,response1disk_7,7,4,8.800048828,0.799987793,1,0,0,rectangle_4,0,0,0,0,1,,,,,,,,,,,,,,,,,,,,,,,,,,,,,,,,,,,,,,,,,,,,,,,,,,,,,,,,,,,,,,,,,,,,,,,,,,,,,,,,,,,,,,,,,,,,,,,,,,,,,,,,
,,,,,,60d5f605483d5fe184fcaad8,62bbf90de1b67965ba07d588,2022-06-29_09h39.13.010,Colour_Asymmetry_Pilot,2022.1.3,Win32,74.81110197,62bbe60bf3d75ef465d3e404,,,,,,,,,,,,,,,,,,,"[-0.5452,-0.608,0.2470000000000001]",onetwo,"[0.9686000000000001,0.3802000000000001,0.19999999999999996]",-3,2.694,-119.2000122,42.39996338,1,0,0,response7disk_5,-1.599975586,-0.799987793,1,0,0,rectangle_8,-1.599975586,-0.799987793,1,0,0,,,4,-1.599975586,-0.799987793,1,0,0,,1,0,1,0,1,,,,,,,,,,,,,,,,,,,,,,,,,,,,,,,,,,,,,,,,,,,,,,,,,,,,,,,,,,,,,,,,,,,,,,,,,,,,,,,,,,,,,,,,,,,,,,,,,,,,,,,,
,,,,,,60d5f605483d5fe184fcaad8,62bbf90de1b67965ba07d588,2022-06-29_09h39.13.010,Colour_Asymmetry_Pilot,2022.1.3,Win32,74.81110197,62bbe60bf3d75ef465d3e404,,,,,,,,,,,,,,,,,,,"[-0.45899999999999996,-0.3256,-0.9374]",onethree,"[-0.6235999999999999,-0.6786,-0.08239999999999992]",-2,3.3479,-103.2000122,-61.60003662,1,0,0,response5disk_5,-4,3.200012207,1,0,0,rectangle_8,-4,3.200012207,1,0,0,,,4,-4,3.200012207,1,0,0,,2,0,2,0,1,,,,,,,,,,,,,,,,,,,,,,,,,,,,,,,,,,,,,,,,,,,,,,,,,,,,,,,,,,,,,,,,,,,,,,,,,,,,,,,,,,,,,,,,,,,,,,,,,,,,,,,,
,,,,,,60d5f605483d5fe184fcaad8,62bbf90de1b67965ba07d588,2022-06-29_09h39.13.010,Colour_Asymmetry_Pilot,2022.1.3,Win32,74.81110197,62bbe60bf3d75ef465d3e404,,,,,,,,,,,,,,,,,,,"[-0.45899999999999996,-0.3256,-0.9374]",fourthree,"[-0.9688,-0.38039999999999996,-0.41979999999999995]",-1,3.1211,-40.79998779,-90.40002441,1,0,0,response5disk_5,-3.200012207,-4,1,0,0,rectangle_8,-3.200012207,-4,1,0,0,,,4,-3.200012207,-4,1,0,0,,3,0,3,0,1,,,,,,,,,,,,,,,,,,,,,,,,,,,,,,,,,,,,,,,,,,,,,,,,,,,,,,,,,,,,,,,,,,,,,,,,,,,,,,,,,,,,,,,,,,,,,,,,,,,,,,,,
,,,,,,60d5f605483d5fe184fcaad8,62bbf90de1b67965ba07d588,2022-06-29_09h39.13.010,Colour_Asymmetry_Pilot,2022.1.3,Win32,74.81110197,62bbe60bf3d75ef465d3e404,,,,,,,,,,,,,,,,,,,"[-0.6235999999999999,-0.6786,-0.08239999999999992]",onethree,"[0.23920000000000008,0.2704,0.16060000000000008]",-2,3.0146,-93.59997559,-40.79998779,1,0,0,response5disk_5,-4,-3.200012207,1,0,0,rectangle_8,54.40002441,112,1,0,0,response1disk_7,7,4,-1.599975586,-1.600036621,1,0,0,rectangle_4,4,0,4,0,1,,,,,,,,,,,,,,,,,,,,,,,,,,,,,,,,,,,,,,,,,,,,,,,,,,,,,,,,,,,,,,,,,,,,,,,,,,,,,,,,,,,,,,,,,,,,,,,,,,,,,,,,
,,,,,,60d5f605483d5fe184fcaad8,62bbf90de1b67965ba07d588,2022-06-29_09h39.13.010,Colour_Asymmetry_Pilot,2022.1.3,Win32,74.81110197,62bbe60bf3d75ef465d3e404,,,,,,,,,,,,,,,,,,,"[-0.26280000000000003,-0.2158,-0.3256]",twofour,"[0.7802,-0.23140000000000005,-0.20799999999999996]",-2,3.5746,-93.59997559,-43.20001221,1,0,0,response5disk_5,-11.20001221,4.799987793,1,0,0,rectangle_8,-11.20001221,4.799987793,1,0,0,,,4,-11.20001221,4.799987793,1,0,0,,5,0,5,0,1,,,,,,,,,,,,,,,,,,,,,,,,,,,,,,,,,,,,,,,,,,,,,,,,,,,,,,,,,,,,,,,,,,,,,,,,,,,,,,,,,,,,,,,,,,,,,,,,,,,,,,,,
,,,,,,60d5f605483d5fe184fcaad8,62bbf90de1b67965ba07d588,2022-06-29_09h39.13.010,Colour_Asymmetry_Pilot,2022.1.3,Win32,74.81110197,62bbe60bf3d75ef465d3e404,,,,,,,,,,,,,,,,,,,"[-0.8118,-0.8198,-0.5452]",fourthree,"[-0.7412000000000001,-0.08239999999999992,-0.6864]",-1,2.2541,-44,-123.2000122,1,0,0,response5disk_5,-6.399963379,-8,1,0,0,rectangle_8,-6.399963379,-8,1,0,0,,,4,-6.399963379,-8,1,0,0,,6,0,6,0,1,,,,,,,,,,,,,,,,,,,,,,,,,,,,,,,,,,,,,,,,,,,,,,,,,,,,,,,,,,,,,,,,,,,,,,,,,,,,,,,,,,,,,,,,,,,,,,,,,,,,,,,,
,,,,,,60d5f605483d5fe184fcaad8,62bbf90de1b67965ba07d588,2022-06-29_09h39.13.010,Colour_Asymmetry_Pilot,2022.1.3,Win32,74.81110197,62bbe60bf3d75ef465d3e404,,,,,,,,,,,,,,,,,,,,fourthree,,-1,2.041,,,,,,,,,,,,,,,,,,,,,,,,,,,,,,,,space,4.487,"[-0.10599999999999998,-0.10599999999999998,0.5841999999999998]","[0.34099999999999997,0.12939999999999996,-0.9766]",-32.79998779,-103.2000122,1,0,0,response5disk,-7.200012207,1.599975586,1,0,0,rectangle,-7.200012207,1.599975586,1,0,0,,2,0.0011,0,-7.200012207,1.599975586,1,0,0,0,0,0,21,1,21,first,,,,,,,,,,,,,,,,,,,,,,,,,,,,,,,,,,,,,,,,,,,,,,,,,,,,,,,,,,,,,,,,,,,
,,,,,,60d5f605483d5fe184fcaad8,62bbf90de1b67965ba07d588,2022-06-29_09h39.13.010,Colour_Asymmetry_Pilot,2022.1.3,Win32,74.81110197,62bbe60bf3d75ef465d3e404,,,,,,,,,,,,,,,,,,,,twoone,,-2,1.5075,,,,,,,,,,,,,,,,,,,,,,,,,,,,,,,,,,"[0.2784,-0.31000000000000005,-0.5452]","[-0.6,0.16860000000000008,0.44300000000000006]",-100.7999878,-53.60003662,1,0,0,response5disk,12.80004883,-4,1,0,0,rectangle,12.80004883,-4,1,0,0,,2,0.0003,0,12.80004883,-4,1,0,0,0,1,1,99,1,18,second,,,,,,,,,,,,,,,,,,,,,,,,,,,,,,,,,,,,,,,,,,,,,,,,,,,,,,,,,,,,,,,,,,,
,,,,,,60d5f605483d5fe184fcaad8,62bbf90de1b67965ba07d588,2022-06-29_09h39.13.010,Colour_Asymmetry_Pilot,2022.1.3,Win32,74.81110197,62bbe60bf3d75ef465d3e404,,,,,,,,,,,,,,,,,,,,onethree,,1,1.1606,,,,,,,,,,,,,,,,,,,,,,,,,,,,,,,,,,"[-0.26280000000000003,-0.2158,-0.3256]","[0.9686000000000001,0.5763999999999998,0.11359999999999992]",46.40002441,-110.4000244,1,0,0,response3disk,-10.39996338,-9.600036621,1,0,0,rectangle,-10.39996338,-9.600036621,1,0,0,,2,0.0002,0,-10.39996338,-9.600036621,1,0,0,0,2,2,129,1,48,second,,,,,,,,,,,,,,,,,,,,,,,,,,,,,,,,,,,,,,,,,,,,,,,,,,,,,,,,,,,,,,,,,,,
,,,,,,60d5f605483d5fe184fcaad8,62bbf90de1b67965ba07d588,2022-06-29_09h39.13.010,Colour_Asymmetry_Pilot,2022.1.3,Win32,74.81110197,62bbe60bf3d75ef465d3e404,,,,,,,,,,,,,,,,,,,,fourtwo,,1,2.1339,,,,,,,,,,,,,,,,,,,,,,,,,,,,,,,,,,"[0.9842,0.7409999999999999,-0.6628000000000001]","[0.9372,0.9450000000000001,0.8980000000000001]",59.20007324,-110.4000244,1,0,0,response3disk,1.599975586,1.599975586,1,0,0,rectangle,1.599975586,1.599975586,1,0,0,,2,0.0002,0,1.599975586,1.599975586,1,0,0,0,3,3,60,1,60,first,,,,,,,,,,,,,,,,,,,,,,,,,,,,,,,,,,,,,,,,,,,,,,,,,,,,,,,,,,,,,,,,,,,
,,,,,,60d5f605483d5fe184fcaad8,62bbf90de1b67965ba07d588,2022-06-29_09h39.13.010,Colour_Asymmetry_Pilot,2022.1.3,Win32,74.81110197,62bbe60bf3d75ef465d3e404,,,,,,,,,,,,,,,,,,,,threeone,,1,2.8676,,,,,,,,,,,,,,,,,,,,,,,,,,,,,,,,,,"[0.9763999999999999,0.8588,-0.05900000000000005]","[0.0351999999999999,0.41159999999999997,0.0038000000000000256]",44.80004883,-128,1,0,0,response3disk,-5.599975586,-4.799987793,1,0,0,rectangle,-5.599975586,-4.799987793,1,0,0,,2,0.0002,0,-5.599975586,-4.799987793,1,0,0,0,4,4,121,1,40,second,,,,,,,,,,,,,,,,,,,,,,,,,,,,,,,,,,,,,,,,,,,,,,,,,,,,,,,,,,,,,,,,,,,
,,,,,,60d5f605483d5fe184fcaad8,62bbf90de1b67965ba07d588,2022-06-29_09h39.13.010,Colour_Asymmetry_Pilot,2022.1.3,Win32,74.81110197,62bbe60bf3d75ef465d3e404,,,,,,,,,,,,,,,,,,,,threefour,,2,1.2405,,,,,,,,,,,,,,,,,,,,,,,,,,,,,,,,,,"[-0.26280000000000003,-0.2158,-0.3256]","[-0.34920000000000007,-0.702,-0.5216]",111.2000732,-58.40002441,1,0,0,response3disk,3.200073242,0.799987793,1,0,0,rectangle,3.200073242,0.799987793,1,0,0,,3,0.0009,0,3.200073242,0.799987793,1,0,0,0,5,5,155,1,74,second,,,,,,,,,,,,,,,,,,,,,,,,,,,,,,,,,,,,,,,,,,,,,,,,,,,,,,,,,,,,,,,,,,,
,,,,,,60d5f605483d5fe184fcaad8,62bbf90de1b67965ba07d588,2022-06-29_09h39.13.010,Colour_Asymmetry_Pilot,2022.1.3,Win32,74.81110197,62bbe60bf3d75ef465d3e404,,,,,,,,,,,,,,,,,,,,fourtwo,,1,0.7337,,,,,,,,,,,,,,,,,,,,,,,,,,,,,,,,,,"[-0.6706000000000001,-0.6157999999999999,-0.6786]","[0.2784,-0.31000000000000005,-0.5452]",64,-132,1,0,0,response3disk,-7.200012207,0,1,0,0,rectangle,-7.200012207,0,1,0,0,,2,0.0008,0,-7.200012207,0,1,0,0,0,6,6,114,1,33,second,,,,,,,,,,,,,,,,,,,,,,,,,,,,,,,,,,,,,,,,,,,,,,,,,,,,,,,,,,,,,,,,,,,
,,,,,,60d5f605483d5fe184fcaad8,62bbf90de1b67965ba07d588,2022-06-29_09h39.13.010,Colour_Asymmetry_Pilot,2022.1.3,Win32,74.81110197,62bbe60bf3d75ef465d3e404,,,,,,,,,,,,,,,,,,,,threeone,,1,1.8274,,,,,,,,,,,,,,,,,,,,,,,,,,,,,,,,,,"[0.7018,0.7176,0.6155999999999999]","[0.19199999999999995,0.18419999999999992,0.5136000000000001]",52,-117.6000366,1,0,0,response3disk,-7.200012207,-0.799987793,1,0,0,rectangle,-7.200012207,-0.799987793,1,0,0,,2,0.0001,0,-7.200012207,-0.799987793,1,0,0,0,7,7,150,1,69,second,,,,,,,,,,,,,,,,,,,,,,,,,,,,,,,,,,,,,,,,,,,,,,,,,,,,,,,,,,,,,,,,,,,
,,,,,,60d5f605483d5fe184fcaad8,62bbf90de1b67965ba07d588,2022-06-29_09h39.13.010,Colour_Asymmetry_Pilot,2022.1.3,Win32,74.81110197,62bbe60bf3d75ef465d3e404,,,,,,,,,,,,,,,,,,,,onethree,,-3,1.2005,,,,,,,,,,,,,,,,,,,,,,,,,,,,,,,,,,"[0.4196,0.4665999999999999,0.3568]","[-0.9138,-0.5296000000000001,-0.5529999999999999]",-124,28.79998779,1,0,0,response7disk,6.400024414,-0.799987793,1,0,0,rectangle,6.400024414,-0.799987793,1,0,0,,1,0.0008,0,6.400024414,-0.799987793,1,0,0,0,8,8,35,1,35,first,,,,,,,,,,,,,,,,,,,,,,,,,,,,,,,,,,,,,,,,,,,,,,,,,,,,,,,,,,,,,,,,,,,
,,,,,,60d5f605483d5fe184fcaad8,62bbf90de1b67965ba07d588,2022-06-29_09h39.13.010,Colour_Asymmetry_Pilot,2022.1.3,Win32,74.81110197,62bbe60bf3d75ef465d3e404,,,,,,,,,,,,,,,,,,,,onetwo,,-2,1.574,,,,,,,,,,,,,,,,,,,,,,,,,,,,,,,,,,"[-0.011800000000000033,-0.906,-0.45100000000000007]","[0.9763999999999999,-0.1137999999999999,-0.6314]",-92,-51.20001221,1,0,0,response5disk,6.400024414,-0.799987793,1,0,0,rectangle,6.400024414,-0.799987793,1,0,0,,1,0.0004,0,6.400024414,-0.799987793,1,0,0,0,9,9,87,1,6,second,,,,,,,,,,,,,,,,,,,,,,,,,,,,,,,,,,,,,,,,,,,,,,,,,,,,,,,,,,,,,,,,,,,
,,,,,,60d5f605483d5fe184fcaad8,62bbf90de1b67965ba07d588,2022-06-29_09h39.13.010,Colour_Asymmetry_Pilot,2022.1.3,Win32,74.81110197,62bbe60bf3d75ef465d3e404,,,,,,,,,,,,,,,,,,,,onethree,,4,1.0406,,,,,,,,,,,,,,,,,,,,,,,,,,,,,,,,,,"[0.3568,-0.20799999999999996,-0.9844]","[0.2784,-0.31000000000000005,-0.5452]",79.20007324,104.7999878,1,0,0,response1disk,-4.799987793,0.799987793,1,0,0,rectangle,-4.799987793,0.799987793,1,0,0,,1,0.0001,0,-4.799987793,0.799987793,1,0,0,0,10,10,50,1,50,first,,,,,,,,,,,,,,,,,,,,,,,,,,,,,,,,,,,,,,,,,,,,,,,,,,,,,,,,,,,,,,,,,,,
,,,,,,60d5f605483d5fe184fcaad8,62bbf90de1b67965ba07d588,2022-06-29_09h39.13.010,Colour_Asymmetry_Pilot,2022.1.3,Win32,74.81110197,62bbe60bf3d75ef465d3e404,,,,,,,,,,,,,,,,,,,,onethree,,-3,2.4007,,,,,,,,,,,,,,,,,,,,,,,,,,,,,,,,,,"[0.23120000000000007,-0.7726,-0.34120000000000006]","[-0.0040000000000000036,0.02739999999999987,-0.08239999999999992]",-123.2000122,51.20001221,1,0,0,response7disk,8,1.599975586,1,0,0,rectangle,8,1.599975586,1,0,0,,2,0.0008,0,8,1.599975586,1,0,0,0,11,11,111,1,30,second,,,,,,,,,,,,,,,,,,,,,,,,,,,,,,,,,,,,,,,,,,,,,,,,,,,,,,,,,,,,,,,,,,,
,,,,,,60d5f605483d5fe184fcaad8,62bbf90de1b67965ba07d588,2022-06-29_09h39.13.010,Colour_Asymmetry_Pilot,2022.1.3,Win32,74.81110197,62bbe60bf3d75ef465d3e404,,,,,,,,,,,,,,,,,,,,onetwo,,3,1.0407,,,,,,,,,,,,,,,,,,,,,,,,,,,,,,,,,,"[-0.5452,-0.608,0.2470000000000001]","[-0.4746,-0.0354000000000001,0.5449999999999999]",152,32.79998779,1,0,0,response1disk,-7.200012207,4.799987793,1,0,0,rectangle,-7.200012207,4.799987793,1,0,0,,3,0.0008,0,-7.200012207,4.799987793,1,0,0,0,12,12,81,1,0,second,,,,,,,,,,,,,,,,,,,,,,,,,,,,,,,,,,,,,,,,,,,,,,,,,,,,,,,,,,,,,,,,,,,
,,,,,,60d5f605483d5fe184fcaad8,62bbf90de1b67965ba07d588,2022-06-29_09h39.13.010,Colour_Asymmetry_Pilot,2022.1.3,Win32,74.81110197,62bbe60bf3d75ef465d3e404,,,,,,,,,,,,,,,,,,,,threeone,,-3,4.188,,,,,,,,,,,,,,,,,,,,,,,,,,,,,,,,,,"[-0.4982,-0.2942,-0.0354000000000001]","[0.8115999999999999,-0.0040000000000000036,-0.09819999999999995]",-99.20001221,41.59997559,1,0,0,response7disk,7.200073242,2.399963379,1,0,0,rectangle,7.200073242,2.399963379,1,0,0,,1,0.0008,0,7.200073242,2.399963379,1,0,0,0,13,13,156,1,75,second,,,,,,,,,,,,,,,,,,,,,,,,,,,,,,,,,,,,,,,,,,,,,,,,,,,,,,,,,,,,,,,,,,,
,,,,,,60d5f605483d5fe184fcaad8,62bbf90de1b67965ba07d588,2022-06-29_09h39.13.010,Colour_Asymmetry_Pilot,2022.1.3,Win32,74.81110197,62bbe60bf3d75ef465d3e404,,,,,,,,,,,,,,,,,,,,twofour,,-4,0.5734,,,,,,,,,,,,,,,,,,,,,,,,,,,,,,,,,,"[-0.9688,-0.7412000000000001,-0.4902000000000001]","[0.9842,0.7409999999999999,-0.6628000000000001]",-49.59997559,90.3999939,1,0,0,response7disk,3.200073242,-0.799987793,1,0,0,rectangle,3.200073242,-0.799987793,1,0,0,,2,0.0009,0,3.200073242,-0.799987793,1,0,0,0,14,14,100,1,19,second,,,,,,,,,,,,,,,,,,,,,,,,,,,,,,,,,,,,,,,,,,,,,,,,,,,,,,,,,,,,,,,,,,,
,,,,,,60d5f605483d5fe184fcaad8,62bbf90de1b67965ba07d588,2022-06-29_09h39.13.010,Colour_Asymmetry_Pilot,2022.1.3,Win32,74.81110197,62bbe60bf3d75ef465d3e404,,,,,,,,,,,,,,,,,,,,onethree,,-2,1.1336,,,,,,,,,,,,,,,,,,,,,,,,,,,,,,,,,,"[0.9372,0.9450000000000001,0.8980000000000001]","[0.9842,0.7409999999999999,-0.6628000000000001]",-88,-55.20001221,1,0,0,response5disk,-0.799987793,-12,1,0,0,rectangle,-0.799987793,-12,1,0,0,,1,0.0009,0,-0.799987793,-12,1,0,0,0,15,15,141,1,60,second,,,,,,,,,,,,,,,,,,,,,,,,,,,,,,,,,,,,,,,,,,,,,,,,,,,,,,,,,,,,,,,,,,,
,,,,,,60d5f605483d5fe184fcaad8,62bbf90de1b67965ba07d588,2022-06-29_09h39.13.010,Colour_Asymmetry_Pilot,2022.1.3,Win32,74.81110197,62bbe60bf3d75ef465d3e404,,,,,,,,,,,,,,,,,,,,threeone,,3,1.7112,,,,,,,,,,,,,,,,,,,,,,,,,,,,,,,,,,"[-0.011800000000000033,-0.906,-0.45100000000000007]","[-0.20799999999999996,-0.655,-0.01980000000000004]",128.8000488,36,1,0,0,response1disk,6.400024414,-4.799987793,1,0,0,rectangle,123.2000732,36.79998779,1,0,0,3,3,3.7212,1,6.400024414,12,1,0,0,0,16,16,97,1,16,second,response1disk_3,rectangle,,,,,,,,,,,,,,,,,,,,,,,,,,,,,,,,,,,,,,,,,,,,,,,,,,,,,,,,,,,,,,,,,
