trials.thisRepN,trials.thisTrialN,trials.thisN,trials.thisIndex,trials.ran,Colourcodes,participant,session,date,expName,psychopyVersion,OS,frameRate,study_id,trials_4.thisRepN,trials_4.thisTrialN,trials_4.thisN,trials_4.thisIndex,trials_4.ran,StimulusPos,key_resp.keys,key_resp.rt,key_resp_2.keys,key_resp_2.rt,key_resp_15.keys,key_resp_15.rt,key_resp_17.keys,key_resp_17.rt,key_resp_9.keys,key_resp_9.rt,key_resp_10.keys,key_resp_10.rt,Circle1_col,Ecc,Circle2_col,similarity,response_time,mouse_5.x,mouse_5.y,mouse_5.leftButton,mouse_5.midButton,mouse_5.rightButton,mouse_5.clicked_name,mouse_10.x,mouse_10.y,mouse_10.leftButton,mouse_10.midButton,mouse_10.rightButton,mouse_10.clicked_name,mouse_7.x,mouse_7.y,mouse_7.leftButton,mouse_7.midButton,mouse_7.rightButton,catchnumberprac,mouse_6.x,mouse_6.y,mouse_6.leftButton,mouse_6.midButton,mouse_6.rightButton,duringprac.thisRepN,duringprac.thisTrialN,duringprac.thisN,duringprac.thisIndex,duringprac.ran,mouse_7.clicked_name,catchprac,mouse_6.clicked_name,key_resp_22.keys,key_resp_22.rt,Circle1_colour,Circle2_colour,mouse.x,mouse.y,mouse.leftButton,mouse.midButton,mouse.rightButton,mouse.clicked_name,mouse_2.x,mouse_2.y,mouse_2.leftButton,mouse_2.midButton,mouse_2.rightButton,mouse_2.clicked_name,mouse_3.x,mouse_3.y,mouse_3.leftButton,mouse_3.midButton,mouse_3.rightButton,catchresponse,catchnumber,response_time_catch,Catch,mouse_11.x,mouse_11.y,mouse_11.leftButton,mouse_11.midButton,mouse_11.rightButton,trials_2.thisRepN,trials_2.thisTrialN,trials_2.thisN,trials_2.thisIndex,trials_2.ran,Colourpair,Temporder,mouse_3.clicked_name,mouse_11.clicked_name,trials_3.thisRepN,trials_3.thisTrialN,trials_3.thisN,trials_3.thisIndex,trials_3.ran,key_resp_instr_Ishi.keys,key_resp_instr_Ishi.rt,Ishi_trial_keyresp.keys,Ishi_trial_keyresp.rt,Ishi_textbox.text,Ishi_loop.thisRepN,Ishi_loop.thisTrialN,Ishi_loop.thisN,Ishi_loop.thisIndex,Ishi_loop.ran,imageaddress,textbox.text,mouse_4.x,mouse_4.y,mouse_4.leftButton,mouse_4.midButton,mouse_4.rightButton,mouse_4.clicked_name,textbox_2.text,mouse_8.x,mouse_8.y,mouse_8.leftButton,mouse_8.midButton,mouse_8.rightButton,mouse_8.clicked_name,textbox_3.text,mouse_9.x,mouse_9.y,mouse_9.leftButton,mouse_9.midButton,mouse_9.rightButton,mouse_9.clicked_name,textbox_4.text,mouse_12.x,mouse_12.y,mouse_12.leftButton,mouse_12.midButton,mouse_12.rightButton,mouse_12.clicked_name,textbox_5.text,mouse_13.x,mouse_13.y,mouse_13.leftButton,mouse_13.midButton,mouse_13.rightButton,mouse_13.clicked_name,textbox_6.text,mouse_14.x,mouse_14.y,mouse_14.leftButton,mouse_14.midButton,mouse_14.rightButton,mouse_14.clicked_name,textbox_7.text,mouse_15.x,mouse_15.y,mouse_15.leftButton,mouse_15.midButton,mouse_15.rightButton,mouse_15.clicked_name
0,0,0,54,1,,5e9774d2837b810ebe32666e,62bbfb3df06d34a04fe3a75c,2022-06-29_08h12.20.017,Colour_Asymmetry_Pilot,2022.1.3,Win32,46.02144599,62bbe60bf3d75ef465d3e404,,,,,,,,,,,,,,,,,,,,,,,,,,,,,,,,,,,,,,,,,,,,,,,,,,,,,,,,,,,,,,,,,,,,,,,,,,,,,,,,,,,,,,,,,,,,,,,,,,,,,,,,,,,,,,,,,,,,,,,,,,,,,,,,,,,,,,,,,,,,,,,,,,,,,,,,,,,,,,
0,1,1,58,1,,5e9774d2837b810ebe32666e,62bbfb3df06d34a04fe3a75c,2022-06-29_08h12.20.017,Colour_Asymmetry_Pilot,2022.1.3,Win32,46.02144599,62bbe60bf3d75ef465d3e404,,,,,,,,,,,,,,,,,,,,,,,,,,,,,,,,,,,,,,,,,,,,,,,,,,,,,,,,,,,,,,,,,,,,,,,,,,,,,,,,,,,,,,,,,,,,,,,,,,,,,,,,,,,,,,,,,,,,,,,,,,,,,,,,,,,,,,,,,,,,,,,,,,,,,,,,,,,,,,
0,2,2,50,1,,5e9774d2837b810ebe32666e,62bbfb3df06d34a04fe3a75c,2022-06-29_08h12.20.017,Colour_Asymmetry_Pilot,2022.1.3,Win32,46.02144599,62bbe60bf3d75ef465d3e404,,,,,,,,,,,,,,,,,,,,,,,,,,,,,,,,,,,,,,,,,,,,,,,,,,,,,,,,,,,,,,,,,,,,,,,,,,,,,,,,,,,,,,,,,,,,,,,,,,,,,,,,,,,,,,,,,,,,,,,,,,,,,,,,,,,,,,,,,,,,,,,,,,,,,,,,,,,,,,
0,3,3,44,1,,5e9774d2837b810ebe32666e,62bbfb3df06d34a04fe3a75c,2022-06-29_08h12.20.017,Colour_Asymmetry_Pilot,2022.1.3,Win32,46.02144599,62bbe60bf3d75ef465d3e404,,,,,,,,,,,,,,,,,,,,,,,,,,,,,,,,,,,,,,,,,,,,,,,,,,,,,,,,,,,,,,,,,,,,,,,,,,,,,,,,,,,,,,,,,,,,,,,,,,,,,,,,,,,,,,,,,,,,,,,,,,,,,,,,,,,,,,,,,,,,,,,,,,,,,,,,,,,,,,
0,4,4,32,1,,5e9774d2837b810ebe32666e,62bbfb3df06d34a04fe3a75c,2022-06-29_08h12.20.017,Colour_Asymmetry_Pilot,2022.1.3,Win32,46.02144599,62bbe60bf3d75ef465d3e404,,,,,,,,,,,,,,,,,,,,,,,,,,,,,,,,,,,,,,,,,,,,,,,,,,,,,,,,,,,,,,,,,,,,,,,,,,,,,,,,,,,,,,,,,,,,,,,,,,,,,,,,,,,,,,,,,,,,,,,,,,,,,,,,,,,,,,,,,,,,,,,,,,,,,,,,,,,,,,
0,5,5,1,1,,5e9774d2837b810ebe32666e,62bbfb3df06d34a04fe3a75c,2022-06-29_08h12.20.017,Colour_Asymmetry_Pilot,2022.1.3,Win32,46.02144599,62bbe60bf3d75ef465d3e404,,,,,,,,,,,,,,,,,,,,,,,,,,,,,,,,,,,,,,,,,,,,,,,,,,,,,,,,,,,,,,,,,,,,,,,,,,,,,,,,,,,,,,,,,,,,,,,,,,,,,,,,,,,,,,,,,,,,,,,,,,,,,,,,,,,,,,,,,,,,,,,,,,,,,,,,,,,,,,
0,6,6,62,1,,5e9774d2837b810ebe32666e,62bbfb3df06d34a04fe3a75c,2022-06-29_08h12.20.017,Colour_Asymmetry_Pilot,2022.1.3,Win32,46.02144599,62bbe60bf3d75ef465d3e404,,,,,,,,,,,,,,,,,,,,,,,,,,,,,,,,,,,,,,,,,,,,,,,,,,,,,,,,,,,,,,,,,,,,,,,,,,,,,,,,,,,,,,,,,,,,,,,,,,,,,,,,,,,,,,,,,,,,,,,,,,,,,,,,,,,,,,,,,,,,,,,,,,,,,,,,,,,,,,
0,7,7,68,1,,5e9774d2837b810ebe32666e,62bbfb3df06d34a04fe3a75c,2022-06-29_08h12.20.017,Colour_Asymmetry_Pilot,2022.1.3,Win32,46.02144599,62bbe60bf3d75ef465d3e404,,,,,,,,,,,,,,,,,,,,,,,,,,,,,,,,,,,,,,,,,,,,,,,,,,,,,,,,,,,,,,,,,,,,,,,,,,,,,,,,,,,,,,,,,,,,,,,,,,,,,,,,,,,,,,,,,,,,,,,,,,,,,,,,,,,,,,,,,,,,,,,,,,,,,,,,,,,,,,
0,8,8,46,1,,5e9774d2837b810ebe32666e,62bbfb3df06d34a04fe3a75c,2022-06-29_08h12.20.017,Colour_Asymmetry_Pilot,2022.1.3,Win32,46.02144599,62bbe60bf3d75ef465d3e404,,,,,,,,,,,,,,,,,,,,,,,,,,,,,,,,,,,,,,,,,,,,,,,,,,,,,,,,,,,,,,,,,,,,,,,,,,,,,,,,,,,,,,,,,,,,,,,,,,,,,,,,,,,,,,,,,,,,,,,,,,,,,,,,,,,,,,,,,,,,,,,,,,,,,,,,,,,,,,
0,9,9,70,1,,5e9774d2837b810ebe32666e,62bbfb3df06d34a04fe3a75c,2022-06-29_08h12.20.017,Colour_Asymmetry_Pilot,2022.1.3,Win32,46.02144599,62bbe60bf3d75ef465d3e404,,,,,,,,,,,,,,,,,,,,,,,,,,,,,,,,,,,,,,,,,,,,,,,,,,,,,,,,,,,,,,,,,,,,,,,,,,,,,,,,,,,,,,,,,,,,,,,,,,,,,,,,,,,,,,,,,,,,,,,,,,,,,,,,,,,,,,,,,,,,,,,,,,,,,,,,,,,,,,
0,10,10,74,1,,5e9774d2837b810ebe32666e,62bbfb3df06d34a04fe3a75c,2022-06-29_08h12.20.017,Colour_Asymmetry_Pilot,2022.1.3,Win32,46.02144599,62bbe60bf3d75ef465d3e404,,,,,,,,,,,,,,,,,,,,,,,,,,,,,,,,,,,,,,,,,,,,,,,,,,,,,,,,,,,,,,,,,,,,,,,,,,,,,,,,,,,,,,,,,,,,,,,,,,,,,,,,,,,,,,,,,,,,,,,,,,,,,,,,,,,,,,,,,,,,,,,,,,,,,,,,,,,,,,
0,11,11,65,1,,5e9774d2837b810ebe32666e,62bbfb3df06d34a04fe3a75c,2022-06-29_08h12.20.017,Colour_Asymmetry_Pilot,2022.1.3,Win32,46.02144599,62bbe60bf3d75ef465d3e404,,,,,,,,,,,,,,,,,,,,,,,,,,,,,,,,,,,,,,,,,,,,,,,,,,,,,,,,,,,,,,,,,,,,,,,,,,,,,,,,,,,,,,,,,,,,,,,,,,,,,,,,,,,,,,,,,,,,,,,,,,,,,,,,,,,,,,,,,,,,,,,,,,,,,,,,,,,,,,
0,12,12,33,1,,5e9774d2837b810ebe32666e,62bbfb3df06d34a04fe3a75c,2022-06-29_08h12.20.017,Colour_Asymmetry_Pilot,2022.1.3,Win32,46.02144599,62bbe60bf3d75ef465d3e404,,,,,,,,,,,,,,,,,,,,,,,,,,,,,,,,,,,,,,,,,,,,,,,,,,,,,,,,,,,,,,,,,,,,,,,,,,,,,,,,,,,,,,,,,,,,,,,,,,,,,,,,,,,,,,,,,,,,,,,,,,,,,,,,,,,,,,,,,,,,,,,,,,,,,,,,,,,,,,
0,13,13,8,1,,5e9774d2837b810ebe32666e,62bbfb3df06d34a04fe3a75c,2022-06-29_08h12.20.017,Colour_Asymmetry_Pilot,2022.1.3,Win32,46.02144599,62bbe60bf3d75ef465d3e404,,,,,,,,,,,,,,,,,,,,,,,,,,,,,,,,,,,,,,,,,,,,,,,,,,,,,,,,,,,,,,,,,,,,,,,,,,,,,,,,,,,,,,,,,,,,,,,,,,,,,,,,,,,,,,,,,,,,,,,,,,,,,,,,,,,,,,,,,,,,,,,,,,,,,,,,,,,,,,
0,14,14,60,1,,5e9774d2837b810ebe32666e,62bbfb3df06d34a04fe3a75c,2022-06-29_08h12.20.017,Colour_Asymmetry_Pilot,2022.1.3,Win32,46.02144599,62bbe60bf3d75ef465d3e404,,,,,,,,,,,,,,,,,,,,,,,,,,,,,,,,,,,,,,,,,,,,,,,,,,,,,,,,,,,,,,,,,,,,,,,,,,,,,,,,,,,,,,,,,,,,,,,,,,,,,,,,,,,,,,,,,,,,,,,,,,,,,,,,,,,,,,,,,,,,,,,,,,,,,,,,,,,,,,
0,15,15,45,1,,5e9774d2837b810ebe32666e,62bbfb3df06d34a04fe3a75c,2022-06-29_08h12.20.017,Colour_Asymmetry_Pilot,2022.1.3,Win32,46.02144599,62bbe60bf3d75ef465d3e404,,,,,,,,,,,,,,,,,,,,,,,,,,,,,,,,,,,,,,,,,,,,,,,,,,,,,,,,,,,,,,,,,,,,,,,,,,,,,,,,,,,,,,,,,,,,,,,,,,,,,,,,,,,,,,,,,,,,,,,,,,,,,,,,,,,,,,,,,,,,,,,,,,,,,,,,,,,,,,
0,16,16,6,1,,5e9774d2837b810ebe32666e,62bbfb3df06d34a04fe3a75c,2022-06-29_08h12.20.017,Colour_Asymmetry_Pilot,2022.1.3,Win32,46.02144599,62bbe60bf3d75ef465d3e404,,,,,,,,,,,,,,,,,,,,,,,,,,,,,,,,,,,,,,,,,,,,,,,,,,,,,,,,,,,,,,,,,,,,,,,,,,,,,,,,,,,,,,,,,,,,,,,,,,,,,,,,,,,,,,,,,,,,,,,,,,,,,,,,,,,,,,,,,,,,,,,,,,,,,,,,,,,,,,
0,17,17,57,1,,5e9774d2837b810ebe32666e,62bbfb3df06d34a04fe3a75c,2022-06-29_08h12.20.017,Colour_Asymmetry_Pilot,2022.1.3,Win32,46.02144599,62bbe60bf3d75ef465d3e404,,,,,,,,,,,,,,,,,,,,,,,,,,,,,,,,,,,,,,,,,,,,,,,,,,,,,,,,,,,,,,,,,,,,,,,,,,,,,,,,,,,,,,,,,,,,,,,,,,,,,,,,,,,,,,,,,,,,,,,,,,,,,,,,,,,,,,,,,,,,,,,,,,,,,,,,,,,,,,
0,18,18,0,1,,5e9774d2837b810ebe32666e,62bbfb3df06d34a04fe3a75c,2022-06-29_08h12.20.017,Colour_Asymmetry_Pilot,2022.1.3,Win32,46.02144599,62bbe60bf3d75ef465d3e404,,,,,,,,,,,,,,,,,,,,,,,,,,,,,,,,,,,,,,,,,,,,,,,,,,,,,,,,,,,,,,,,,,,,,,,,,,,,,,,,,,,,,,,,,,,,,,,,,,,,,,,,,,,,,,,,,,,,,,,,,,,,,,,,,,,,,,,,,,,,,,,,,,,,,,,,,,,,,,
0,19,19,81,1,,5e9774d2837b810ebe32666e,62bbfb3df06d34a04fe3a75c,2022-06-29_08h12.20.017,Colour_Asymmetry_Pilot,2022.1.3,Win32,46.02144599,62bbe60bf3d75ef465d3e404,,,,,,,,,,,,,,,,,,,,,,,,,,,,,,,,,,,,,,,,,,,,,,,,,,,,,,,,,,,,,,,,,,,,,,,,,,,,,,,,,,,,,,,,,,,,,,,,,,,,,,,,,,,,,,,,,,,,,,,,,,,,,,,,,,,,,,,,,,,,,,,,,,,,,,,,,,,,,,
0,20,20,15,1,,5e9774d2837b810ebe32666e,62bbfb3df06d34a04fe3a75c,2022-06-29_08h12.20.017,Colour_Asymmetry_Pilot,2022.1.3,Win32,46.02144599,62bbe60bf3d75ef465d3e404,,,,,,,,,,,,,,,,,,,,,,,,,,,,,,,,,,,,,,,,,,,,,,,,,,,,,,,,,,,,,,,,,,,,,,,,,,,,,,,,,,,,,,,,,,,,,,,,,,,,,,,,,,,,,,,,,,,,,,,,,,,,,,,,,,,,,,,,,,,,,,,,,,,,,,,,,,,,,,
0,21,21,38,1,,5e9774d2837b810ebe32666e,62bbfb3df06d34a04fe3a75c,2022-06-29_08h12.20.017,Colour_Asymmetry_Pilot,2022.1.3,Win32,46.02144599,62bbe60bf3d75ef465d3e404,,,,,,,,,,,,,,,,,,,,,,,,,,,,,,,,,,,,,,,,,,,,,,,,,,,,,,,,,,,,,,,,,,,,,,,,,,,,,,,,,,,,,,,,,,,,,,,,,,,,,,,,,,,,,,,,,,,,,,,,,,,,,,,,,,,,,,,,,,,,,,,,,,,,,,,,,,,,,,
0,22,22,27,1,,5e9774d2837b810ebe32666e,62bbfb3df06d34a04fe3a75c,2022-06-29_08h12.20.017,Colour_Asymmetry_Pilot,2022.1.3,Win32,46.02144599,62bbe60bf3d75ef465d3e404,,,,,,,,,,,,,,,,,,,,,,,,,,,,,,,,,,,,,,,,,,,,,,,,,,,,,,,,,,,,,,,,,,,,,,,,,,,,,,,,,,,,,,,,,,,,,,,,,,,,,,,,,,,,,,,,,,,,,,,,,,,,,,,,,,,,,,,,,,,,,,,,,,,,,,,,,,,,,,
0,23,23,13,1,,5e9774d2837b810ebe32666e,62bbfb3df06d34a04fe3a75c,2022-06-29_08h12.20.017,Colour_Asymmetry_Pilot,2022.1.3,Win32,46.02144599,62bbe60bf3d75ef465d3e404,,,,,,,,,,,,,,,,,,,,,,,,,,,,,,,,,,,,,,,,,,,,,,,,,,,,,,,,,,,,,,,,,,,,,,,,,,,,,,,,,,,,,,,,,,,,,,,,,,,,,,,,,,,,,,,,,,,,,,,,,,,,,,,,,,,,,,,,,,,,,,,,,,,,,,,,,,,,,,
0,24,24,26,1,,5e9774d2837b810ebe32666e,62bbfb3df06d34a04fe3a75c,2022-06-29_08h12.20.017,Colour_Asymmetry_Pilot,2022.1.3,Win32,46.02144599,62bbe60bf3d75ef465d3e404,,,,,,,,,,,,,,,,,,,,,,,,,,,,,,,,,,,,,,,,,,,,,,,,,,,,,,,,,,,,,,,,,,,,,,,,,,,,,,,,,,,,,,,,,,,,,,,,,,,,,,,,,,,,,,,,,,,,,,,,,,,,,,,,,,,,,,,,,,,,,,,,,,,,,,,,,,,,,,
0,25,25,18,1,,5e9774d2837b810ebe32666e,62bbfb3df06d34a04fe3a75c,2022-06-29_08h12.20.017,Colour_Asymmetry_Pilot,2022.1.3,Win32,46.02144599,62bbe60bf3d75ef465d3e404,,,,,,,,,,,,,,,,,,,,,,,,,,,,,,,,,,,,,,,,,,,,,,,,,,,,,,,,,,,,,,,,,,,,,,,,,,,,,,,,,,,,,,,,,,,,,,,,,,,,,,,,,,,,,,,,,,,,,,,,,,,,,,,,,,,,,,,,,,,,,,,,,,,,,,,,,,,,,,
0,26,26,40,1,,5e9774d2837b810ebe32666e,62bbfb3df06d34a04fe3a75c,2022-06-29_08h12.20.017,Colour_Asymmetry_Pilot,2022.1.3,Win32,46.02144599,62bbe60bf3d75ef465d3e404,,,,,,,,,,,,,,,,,,,,,,,,,,,,,,,,,,,,,,,,,,,,,,,,,,,,,,,,,,,,,,,,,,,,,,,,,,,,,,,,,,,,,,,,,,,,,,,,,,,,,,,,,,,,,,,,,,,,,,,,,,,,,,,,,,,,,,,,,,,,,,,,,,,,,,,,,,,,,,
0,27,27,82,1,,5e9774d2837b810ebe32666e,62bbfb3df06d34a04fe3a75c,2022-06-29_08h12.20.017,Colour_Asymmetry_Pilot,2022.1.3,Win32,46.02144599,62bbe60bf3d75ef465d3e404,,,,,,,,,,,,,,,,,,,,,,,,,,,,,,,,,,,,,,,,,,,,,,,,,,,,,,,,,,,,,,,,,,,,,,,,,,,,,,,,,,,,,,,,,,,,,,,,,,,,,,,,,,,,,,,,,,,,,,,,,,,,,,,,,,,,,,,,,,,,,,,,,,,,,,,,,,,,,,
0,28,28,72,1,,5e9774d2837b810ebe32666e,62bbfb3df06d34a04fe3a75c,2022-06-29_08h12.20.017,Colour_Asymmetry_Pilot,2022.1.3,Win32,46.02144599,62bbe60bf3d75ef465d3e404,,,,,,,,,,,,,,,,,,,,,,,,,,,,,,,,,,,,,,,,,,,,,,,,,,,,,,,,,,,,,,,,,,,,,,,,,,,,,,,,,,,,,,,,,,,,,,,,,,,,,,,,,,,,,,,,,,,,,,,,,,,,,,,,,,,,,,,,,,,,,,,,,,,,,,,,,,,,,,
0,29,29,25,1,,5e9774d2837b810ebe32666e,62bbfb3df06d34a04fe3a75c,2022-06-29_08h12.20.017,Colour_Asymmetry_Pilot,2022.1.3,Win32,46.02144599,62bbe60bf3d75ef465d3e404,,,,,,,,,,,,,,,,,,,,,,,,,,,,,,,,,,,,,,,,,,,,,,,,,,,,,,,,,,,,,,,,,,,,,,,,,,,,,,,,,,,,,,,,,,,,,,,,,,,,,,,,,,,,,,,,,,,,,,,,,,,,,,,,,,,,,,,,,,,,,,,,,,,,,,,,,,,,,,
0,30,30,71,1,,5e9774d2837b810ebe32666e,62bbfb3df06d34a04fe3a75c,2022-06-29_08h12.20.017,Colour_Asymmetry_Pilot,2022.1.3,Win32,46.02144599,62bbe60bf3d75ef465d3e404,,,,,,,,,,,,,,,,,,,,,,,,,,,,,,,,,,,,,,,,,,,,,,,,,,,,,,,,,,,,,,,,,,,,,,,,,,,,,,,,,,,,,,,,,,,,,,,,,,,,,,,,,,,,,,,,,,,,,,,,,,,,,,,,,,,,,,,,,,,,,,,,,,,,,,,,,,,,,,
0,31,31,42,1,,5e9774d2837b810ebe32666e,62bbfb3df06d34a04fe3a75c,2022-06-29_08h12.20.017,Colour_Asymmetry_Pilot,2022.1.3,Win32,46.02144599,62bbe60bf3d75ef465d3e404,,,,,,,,,,,,,,,,,,,,,,,,,,,,,,,,,,,,,,,,,,,,,,,,,,,,,,,,,,,,,,,,,,,,,,,,,,,,,,,,,,,,,,,,,,,,,,,,,,,,,,,,,,,,,,,,,,,,,,,,,,,,,,,,,,,,,,,,,,,,,,,,,,,,,,,,,,,,,,
0,32,32,36,1,,5e9774d2837b810ebe32666e,62bbfb3df06d34a04fe3a75c,2022-06-29_08h12.20.017,Colour_Asymmetry_Pilot,2022.1.3,Win32,46.02144599,62bbe60bf3d75ef465d3e404,,,,,,,,,,,,,,,,,,,,,,,,,,,,,,,,,,,,,,,,,,,,,,,,,,,,,,,,,,,,,,,,,,,,,,,,,,,,,,,,,,,,,,,,,,,,,,,,,,,,,,,,,,,,,,,,,,,,,,,,,,,,,,,,,,,,,,,,,,,,,,,,,,,,,,,,,,,,,,
0,33,33,67,1,,5e9774d2837b810ebe32666e,62bbfb3df06d34a04fe3a75c,2022-06-29_08h12.20.017,Colour_Asymmetry_Pilot,2022.1.3,Win32,46.02144599,62bbe60bf3d75ef465d3e404,,,,,,,,,,,,,,,,,,,,,,,,,,,,,,,,,,,,,,,,,,,,,,,,,,,,,,,,,,,,,,,,,,,,,,,,,,,,,,,,,,,,,,,,,,,,,,,,,,,,,,,,,,,,,,,,,,,,,,,,,,,,,,,,,,,,,,,,,,,,,,,,,,,,,,,,,,,,,,
0,34,34,92,1,,5e9774d2837b810ebe32666e,62bbfb3df06d34a04fe3a75c,2022-06-29_08h12.20.017,Colour_Asymmetry_Pilot,2022.1.3,Win32,46.02144599,62bbe60bf3d75ef465d3e404,,,,,,,,,,,,,,,,,,,,,,,,,,,,,,,,,,,,,,,,,,,,,,,,,,,,,,,,,,,,,,,,,,,,,,,,,,,,,,,,,,,,,,,,,,,,,,,,,,,,,,,,,,,,,,,,,,,,,,,,,,,,,,,,,,,,,,,,,,,,,,,,,,,,,,,,,,,,,,
0,35,35,86,1,,5e9774d2837b810ebe32666e,62bbfb3df06d34a04fe3a75c,2022-06-29_08h12.20.017,Colour_Asymmetry_Pilot,2022.1.3,Win32,46.02144599,62bbe60bf3d75ef465d3e404,,,,,,,,,,,,,,,,,,,,,,,,,,,,,,,,,,,,,,,,,,,,,,,,,,,,,,,,,,,,,,,,,,,,,,,,,,,,,,,,,,,,,,,,,,,,,,,,,,,,,,,,,,,,,,,,,,,,,,,,,,,,,,,,,,,,,,,,,,,,,,,,,,,,,,,,,,,,,,
0,36,36,7,1,,5e9774d2837b810ebe32666e,62bbfb3df06d34a04fe3a75c,2022-06-29_08h12.20.017,Colour_Asymmetry_Pilot,2022.1.3,Win32,46.02144599,62bbe60bf3d75ef465d3e404,,,,,,,,,,,,,,,,,,,,,,,,,,,,,,,,,,,,,,,,,,,,,,,,,,,,,,,,,,,,,,,,,,,,,,,,,,,,,,,,,,,,,,,,,,,,,,,,,,,,,,,,,,,,,,,,,,,,,,,,,,,,,,,,,,,,,,,,,,,,,,,,,,,,,,,,,,,,,,
0,37,37,80,1,,5e9774d2837b810ebe32666e,62bbfb3df06d34a04fe3a75c,2022-06-29_08h12.20.017,Colour_Asymmetry_Pilot,2022.1.3,Win32,46.02144599,62bbe60bf3d75ef465d3e404,,,,,,,,,,,,,,,,,,,,,,,,,,,,,,,,,,,,,,,,,,,,,,,,,,,,,,,,,,,,,,,,,,,,,,,,,,,,,,,,,,,,,,,,,,,,,,,,,,,,,,,,,,,,,,,,,,,,,,,,,,,,,,,,,,,,,,,,,,,,,,,,,,,,,,,,,,,,,,
0,38,38,52,1,,5e9774d2837b810ebe32666e,62bbfb3df06d34a04fe3a75c,2022-06-29_08h12.20.017,Colour_Asymmetry_Pilot,2022.1.3,Win32,46.02144599,62bbe60bf3d75ef465d3e404,,,,,,,,,,,,,,,,,,,,,,,,,,,,,,,,,,,,,,,,,,,,,,,,,,,,,,,,,,,,,,,,,,,,,,,,,,,,,,,,,,,,,,,,,,,,,,,,,,,,,,,,,,,,,,,,,,,,,,,,,,,,,,,,,,,,,,,,,,,,,,,,,,,,,,,,,,,,,,
0,39,39,24,1,,5e9774d2837b810ebe32666e,62bbfb3df06d34a04fe3a75c,2022-06-29_08h12.20.017,Colour_Asymmetry_Pilot,2022.1.3,Win32,46.02144599,62bbe60bf3d75ef465d3e404,,,,,,,,,,,,,,,,,,,,,,,,,,,,,,,,,,,,,,,,,,,,,,,,,,,,,,,,,,,,,,,,,,,,,,,,,,,,,,,,,,,,,,,,,,,,,,,,,,,,,,,,,,,,,,,,,,,,,,,,,,,,,,,,,,,,,,,,,,,,,,,,,,,,,,,,,,,,,,
0,40,40,89,1,,5e9774d2837b810ebe32666e,62bbfb3df06d34a04fe3a75c,2022-06-29_08h12.20.017,Colour_Asymmetry_Pilot,2022.1.3,Win32,46.02144599,62bbe60bf3d75ef465d3e404,,,,,,,,,,,,,,,,,,,,,,,,,,,,,,,,,,,,,,,,,,,,,,,,,,,,,,,,,,,,,,,,,,,,,,,,,,,,,,,,,,,,,,,,,,,,,,,,,,,,,,,,,,,,,,,,,,,,,,,,,,,,,,,,,,,,,,,,,,,,,,,,,,,,,,,,,,,,,,
0,41,41,83,1,,5e9774d2837b810ebe32666e,62bbfb3df06d34a04fe3a75c,2022-06-29_08h12.20.017,Colour_Asymmetry_Pilot,2022.1.3,Win32,46.02144599,62bbe60bf3d75ef465d3e404,,,,,,,,,,,,,,,,,,,,,,,,,,,,,,,,,,,,,,,,,,,,,,,,,,,,,,,,,,,,,,,,,,,,,,,,,,,,,,,,,,,,,,,,,,,,,,,,,,,,,,,,,,,,,,,,,,,,,,,,,,,,,,,,,,,,,,,,,,,,,,,,,,,,,,,,,,,,,,
0,42,42,19,1,,5e9774d2837b810ebe32666e,62bbfb3df06d34a04fe3a75c,2022-06-29_08h12.20.017,Colour_Asymmetry_Pilot,2022.1.3,Win32,46.02144599,62bbe60bf3d75ef465d3e404,,,,,,,,,,,,,,,,,,,,,,,,,,,,,,,,,,,,,,,,,,,,,,,,,,,,,,,,,,,,,,,,,,,,,,,,,,,,,,,,,,,,,,,,,,,,,,,,,,,,,,,,,,,,,,,,,,,,,,,,,,,,,,,,,,,,,,,,,,,,,,,,,,,,,,,,,,,,,,
0,43,43,2,1,,5e9774d2837b810ebe32666e,62bbfb3df06d34a04fe3a75c,2022-06-29_08h12.20.017,Colour_Asymmetry_Pilot,2022.1.3,Win32,46.02144599,62bbe60bf3d75ef465d3e404,,,,,,,,,,,,,,,,,,,,,,,,,,,,,,,,,,,,,,,,,,,,,,,,,,,,,,,,,,,,,,,,,,,,,,,,,,,,,,,,,,,,,,,,,,,,,,,,,,,,,,,,,,,,,,,,,,,,,,,,,,,,,,,,,,,,,,,,,,,,,,,,,,,,,,,,,,,,,,
0,44,44,56,1,,5e9774d2837b810ebe32666e,62bbfb3df06d34a04fe3a75c,2022-06-29_08h12.20.017,Colour_Asymmetry_Pilot,2022.1.3,Win32,46.02144599,62bbe60bf3d75ef465d3e404,,,,,,,,,,,,,,,,,,,,,,,,,,,,,,,,,,,,,,,,,,,,,,,,,,,,,,,,,,,,,,,,,,,,,,,,,,,,,,,,,,,,,,,,,,,,,,,,,,,,,,,,,,,,,,,,,,,,,,,,,,,,,,,,,,,,,,,,,,,,,,,,,,,,,,,,,,,,,,
0,45,45,48,1,,5e9774d2837b810ebe32666e,62bbfb3df06d34a04fe3a75c,2022-06-29_08h12.20.017,Colour_Asymmetry_Pilot,2022.1.3,Win32,46.02144599,62bbe60bf3d75ef465d3e404,,,,,,,,,,,,,,,,,,,,,,,,,,,,,,,,,,,,,,,,,,,,,,,,,,,,,,,,,,,,,,,,,,,,,,,,,,,,,,,,,,,,,,,,,,,,,,,,,,,,,,,,,,,,,,,,,,,,,,,,,,,,,,,,,,,,,,,,,,,,,,,,,,,,,,,,,,,,,,
0,46,46,17,1,,5e9774d2837b810ebe32666e,62bbfb3df06d34a04fe3a75c,2022-06-29_08h12.20.017,Colour_Asymmetry_Pilot,2022.1.3,Win32,46.02144599,62bbe60bf3d75ef465d3e404,,,,,,,,,,,,,,,,,,,,,,,,,,,,,,,,,,,,,,,,,,,,,,,,,,,,,,,,,,,,,,,,,,,,,,,,,,,,,,,,,,,,,,,,,,,,,,,,,,,,,,,,,,,,,,,,,,,,,,,,,,,,,,,,,,,,,,,,,,,,,,,,,,,,,,,,,,,,,,
0,47,47,69,1,,5e9774d2837b810ebe32666e,62bbfb3df06d34a04fe3a75c,2022-06-29_08h12.20.017,Colour_Asymmetry_Pilot,2022.1.3,Win32,46.02144599,62bbe60bf3d75ef465d3e404,,,,,,,,,,,,,,,,,,,,,,,,,,,,,,,,,,,,,,,,,,,,,,,,,,,,,,,,,,,,,,,,,,,,,,,,,,,,,,,,,,,,,,,,,,,,,,,,,,,,,,,,,,,,,,,,,,,,,,,,,,,,,,,,,,,,,,,,,,,,,,,,,,,,,,,,,,,,,,
0,48,48,10,1,,5e9774d2837b810ebe32666e,62bbfb3df06d34a04fe3a75c,2022-06-29_08h12.20.017,Colour_Asymmetry_Pilot,2022.1.3,Win32,46.02144599,62bbe60bf3d75ef465d3e404,,,,,,,,,,,,,,,,,,,,,,,,,,,,,,,,,,,,,,,,,,,,,,,,,,,,,,,,,,,,,,,,,,,,,,,,,,,,,,,,,,,,,,,,,,,,,,,,,,,,,,,,,,,,,,,,,,,,,,,,,,,,,,,,,,,,,,,,,,,,,,,,,,,,,,,,,,,,,,
0,49,49,61,1,,5e9774d2837b810ebe32666e,62bbfb3df06d34a04fe3a75c,2022-06-29_08h12.20.017,Colour_Asymmetry_Pilot,2022.1.3,Win32,46.02144599,62bbe60bf3d75ef465d3e404,,,,,,,,,,,,,,,,,,,,,,,,,,,,,,,,,,,,,,,,,,,,,,,,,,,,,,,,,,,,,,,,,,,,,,,,,,,,,,,,,,,,,,,,,,,,,,,,,,,,,,,,,,,,,,,,,,,,,,,,,,,,,,,,,,,,,,,,,,,,,,,,,,,,,,,,,,,,,,
0,50,50,53,1,,5e9774d2837b810ebe32666e,62bbfb3df06d34a04fe3a75c,2022-06-29_08h12.20.017,Colour_Asymmetry_Pilot,2022.1.3,Win32,46.02144599,62bbe60bf3d75ef465d3e404,,,,,,,,,,,,,,,,,,,,,,,,,,,,,,,,,,,,,,,,,,,,,,,,,,,,,,,,,,,,,,,,,,,,,,,,,,,,,,,,,,,,,,,,,,,,,,,,,,,,,,,,,,,,,,,,,,,,,,,,,,,,,,,,,,,,,,,,,,,,,,,,,,,,,,,,,,,,,,
0,51,51,55,1,,5e9774d2837b810ebe32666e,62bbfb3df06d34a04fe3a75c,2022-06-29_08h12.20.017,Colour_Asymmetry_Pilot,2022.1.3,Win32,46.02144599,62bbe60bf3d75ef465d3e404,,,,,,,,,,,,,,,,,,,,,,,,,,,,,,,,,,,,,,,,,,,,,,,,,,,,,,,,,,,,,,,,,,,,,,,,,,,,,,,,,,,,,,,,,,,,,,,,,,,,,,,,,,,,,,,,,,,,,,,,,,,,,,,,,,,,,,,,,,,,,,,,,,,,,,,,,,,,,,
0,52,52,64,1,,5e9774d2837b810ebe32666e,62bbfb3df06d34a04fe3a75c,2022-06-29_08h12.20.017,Colour_Asymmetry_Pilot,2022.1.3,Win32,46.02144599,62bbe60bf3d75ef465d3e404,,,,,,,,,,,,,,,,,,,,,,,,,,,,,,,,,,,,,,,,,,,,,,,,,,,,,,,,,,,,,,,,,,,,,,,,,,,,,,,,,,,,,,,,,,,,,,,,,,,,,,,,,,,,,,,,,,,,,,,,,,,,,,,,,,,,,,,,,,,,,,,,,,,,,,,,,,,,,,
0,53,53,90,1,,5e9774d2837b810ebe32666e,62bbfb3df06d34a04fe3a75c,2022-06-29_08h12.20.017,Colour_Asymmetry_Pilot,2022.1.3,Win32,46.02144599,62bbe60bf3d75ef465d3e404,,,,,,,,,,,,,,,,,,,,,,,,,,,,,,,,,,,,,,,,,,,,,,,,,,,,,,,,,,,,,,,,,,,,,,,,,,,,,,,,,,,,,,,,,,,,,,,,,,,,,,,,,,,,,,,,,,,,,,,,,,,,,,,,,,,,,,,,,,,,,,,,,,,,,,,,,,,,,,
0,54,54,28,1,,5e9774d2837b810ebe32666e,62bbfb3df06d34a04fe3a75c,2022-06-29_08h12.20.017,Colour_Asymmetry_Pilot,2022.1.3,Win32,46.02144599,62bbe60bf3d75ef465d3e404,,,,,,,,,,,,,,,,,,,,,,,,,,,,,,,,,,,,,,,,,,,,,,,,,,,,,,,,,,,,,,,,,,,,,,,,,,,,,,,,,,,,,,,,,,,,,,,,,,,,,,,,,,,,,,,,,,,,,,,,,,,,,,,,,,,,,,,,,,,,,,,,,,,,,,,,,,,,,,
0,55,55,4,1,,5e9774d2837b810ebe32666e,62bbfb3df06d34a04fe3a75c,2022-06-29_08h12.20.017,Colour_Asymmetry_Pilot,2022.1.3,Win32,46.02144599,62bbe60bf3d75ef465d3e404,,,,,,,,,,,,,,,,,,,,,,,,,,,,,,,,,,,,,,,,,,,,,,,,,,,,,,,,,,,,,,,,,,,,,,,,,,,,,,,,,,,,,,,,,,,,,,,,,,,,,,,,,,,,,,,,,,,,,,,,,,,,,,,,,,,,,,,,,,,,,,,,,,,,,,,,,,,,,,
0,56,56,12,1,,5e9774d2837b810ebe32666e,62bbfb3df06d34a04fe3a75c,2022-06-29_08h12.20.017,Colour_Asymmetry_Pilot,2022.1.3,Win32,46.02144599,62bbe60bf3d75ef465d3e404,,,,,,,,,,,,,,,,,,,,,,,,,,,,,,,,,,,,,,,,,,,,,,,,,,,,,,,,,,,,,,,,,,,,,,,,,,,,,,,,,,,,,,,,,,,,,,,,,,,,,,,,,,,,,,,,,,,,,,,,,,,,,,,,,,,,,,,,,,,,,,,,,,,,,,,,,,,,,,
0,57,57,31,1,,5e9774d2837b810ebe32666e,62bbfb3df06d34a04fe3a75c,2022-06-29_08h12.20.017,Colour_Asymmetry_Pilot,2022.1.3,Win32,46.02144599,62bbe60bf3d75ef465d3e404,,,,,,,,,,,,,,,,,,,,,,,,,,,,,,,,,,,,,,,,,,,,,,,,,,,,,,,,,,,,,,,,,,,,,,,,,,,,,,,,,,,,,,,,,,,,,,,,,,,,,,,,,,,,,,,,,,,,,,,,,,,,,,,,,,,,,,,,,,,,,,,,,,,,,,,,,,,,,,
0,58,58,59,1,,5e9774d2837b810ebe32666e,62bbfb3df06d34a04fe3a75c,2022-06-29_08h12.20.017,Colour_Asymmetry_Pilot,2022.1.3,Win32,46.02144599,62bbe60bf3d75ef465d3e404,,,,,,,,,,,,,,,,,,,,,,,,,,,,,,,,,,,,,,,,,,,,,,,,,,,,,,,,,,,,,,,,,,,,,,,,,,,,,,,,,,,,,,,,,,,,,,,,,,,,,,,,,,,,,,,,,,,,,,,,,,,,,,,,,,,,,,,,,,,,,,,,,,,,,,,,,,,,,,
0,59,59,73,1,,5e9774d2837b810ebe32666e,62bbfb3df06d34a04fe3a75c,2022-06-29_08h12.20.017,Colour_Asymmetry_Pilot,2022.1.3,Win32,46.02144599,62bbe60bf3d75ef465d3e404,,,,,,,,,,,,,,,,,,,,,,,,,,,,,,,,,,,,,,,,,,,,,,,,,,,,,,,,,,,,,,,,,,,,,,,,,,,,,,,,,,,,,,,,,,,,,,,,,,,,,,,,,,,,,,,,,,,,,,,,,,,,,,,,,,,,,,,,,,,,,,,,,,,,,,,,,,,,,,
0,60,60,78,1,,5e9774d2837b810ebe32666e,62bbfb3df06d34a04fe3a75c,2022-06-29_08h12.20.017,Colour_Asymmetry_Pilot,2022.1.3,Win32,46.02144599,62bbe60bf3d75ef465d3e404,,,,,,,,,,,,,,,,,,,,,,,,,,,,,,,,,,,,,,,,,,,,,,,,,,,,,,,,,,,,,,,,,,,,,,,,,,,,,,,,,,,,,,,,,,,,,,,,,,,,,,,,,,,,,,,,,,,,,,,,,,,,,,,,,,,,,,,,,,,,,,,,,,,,,,,,,,,,,,
0,61,61,35,1,,5e9774d2837b810ebe32666e,62bbfb3df06d34a04fe3a75c,2022-06-29_08h12.20.017,Colour_Asymmetry_Pilot,2022.1.3,Win32,46.02144599,62bbe60bf3d75ef465d3e404,,,,,,,,,,,,,,,,,,,,,,,,,,,,,,,,,,,,,,,,,,,,,,,,,,,,,,,,,,,,,,,,,,,,,,,,,,,,,,,,,,,,,,,,,,,,,,,,,,,,,,,,,,,,,,,,,,,,,,,,,,,,,,,,,,,,,,,,,,,,,,,,,,,,,,,,,,,,,,
0,62,62,14,1,,5e9774d2837b810ebe32666e,62bbfb3df06d34a04fe3a75c,2022-06-29_08h12.20.017,Colour_Asymmetry_Pilot,2022.1.3,Win32,46.02144599,62bbe60bf3d75ef465d3e404,,,,,,,,,,,,,,,,,,,,,,,,,,,,,,,,,,,,,,,,,,,,,,,,,,,,,,,,,,,,,,,,,,,,,,,,,,,,,,,,,,,,,,,,,,,,,,,,,,,,,,,,,,,,,,,,,,,,,,,,,,,,,,,,,,,,,,,,,,,,,,,,,,,,,,,,,,,,,,
0,63,63,20,1,,5e9774d2837b810ebe32666e,62bbfb3df06d34a04fe3a75c,2022-06-29_08h12.20.017,Colour_Asymmetry_Pilot,2022.1.3,Win32,46.02144599,62bbe60bf3d75ef465d3e404,,,,,,,,,,,,,,,,,,,,,,,,,,,,,,,,,,,,,,,,,,,,,,,,,,,,,,,,,,,,,,,,,,,,,,,,,,,,,,,,,,,,,,,,,,,,,,,,,,,,,,,,,,,,,,,,,,,,,,,,,,,,,,,,,,,,,,,,,,,,,,,,,,,,,,,,,,,,,,
0,64,64,16,1,,5e9774d2837b810ebe32666e,62bbfb3df06d34a04fe3a75c,2022-06-29_08h12.20.017,Colour_Asymmetry_Pilot,2022.1.3,Win32,46.02144599,62bbe60bf3d75ef465d3e404,,,,,,,,,,,,,,,,,,,,,,,,,,,,,,,,,,,,,,,,,,,,,,,,,,,,,,,,,,,,,,,,,,,,,,,,,,,,,,,,,,,,,,,,,,,,,,,,,,,,,,,,,,,,,,,,,,,,,,,,,,,,,,,,,,,,,,,,,,,,,,,,,,,,,,,,,,,,,,
0,65,65,76,1,,5e9774d2837b810ebe32666e,62bbfb3df06d34a04fe3a75c,2022-06-29_08h12.20.017,Colour_Asymmetry_Pilot,2022.1.3,Win32,46.02144599,62bbe60bf3d75ef465d3e404,,,,,,,,,,,,,,,,,,,,,,,,,,,,,,,,,,,,,,,,,,,,,,,,,,,,,,,,,,,,,,,,,,,,,,,,,,,,,,,,,,,,,,,,,,,,,,,,,,,,,,,,,,,,,,,,,,,,,,,,,,,,,,,,,,,,,,,,,,,,,,,,,,,,,,,,,,,,,,
0,66,66,21,1,,5e9774d2837b810ebe32666e,62bbfb3df06d34a04fe3a75c,2022-06-29_08h12.20.017,Colour_Asymmetry_Pilot,2022.1.3,Win32,46.02144599,62bbe60bf3d75ef465d3e404,,,,,,,,,,,,,,,,,,,,,,,,,,,,,,,,,,,,,,,,,,,,,,,,,,,,,,,,,,,,,,,,,,,,,,,,,,,,,,,,,,,,,,,,,,,,,,,,,,,,,,,,,,,,,,,,,,,,,,,,,,,,,,,,,,,,,,,,,,,,,,,,,,,,,,,,,,,,,,
0,67,67,11,1,,5e9774d2837b810ebe32666e,62bbfb3df06d34a04fe3a75c,2022-06-29_08h12.20.017,Colour_Asymmetry_Pilot,2022.1.3,Win32,46.02144599,62bbe60bf3d75ef465d3e404,,,,,,,,,,,,,,,,,,,,,,,,,,,,,,,,,,,,,,,,,,,,,,,,,,,,,,,,,,,,,,,,,,,,,,,,,,,,,,,,,,,,,,,,,,,,,,,,,,,,,,,,,,,,,,,,,,,,,,,,,,,,,,,,,,,,,,,,,,,,,,,,,,,,,,,,,,,,,,
0,68,68,30,1,,5e9774d2837b810ebe32666e,62bbfb3df06d34a04fe3a75c,2022-06-29_08h12.20.017,Colour_Asymmetry_Pilot,2022.1.3,Win32,46.02144599,62bbe60bf3d75ef465d3e404,,,,,,,,,,,,,,,,,,,,,,,,,,,,,,,,,,,,,,,,,,,,,,,,,,,,,,,,,,,,,,,,,,,,,,,,,,,,,,,,,,,,,,,,,,,,,,,,,,,,,,,,,,,,,,,,,,,,,,,,,,,,,,,,,,,,,,,,,,,,,,,,,,,,,,,,,,,,,,
0,69,69,29,1,,5e9774d2837b810ebe32666e,62bbfb3df06d34a04fe3a75c,2022-06-29_08h12.20.017,Colour_Asymmetry_Pilot,2022.1.3,Win32,46.02144599,62bbe60bf3d75ef465d3e404,,,,,,,,,,,,,,,,,,,,,,,,,,,,,,,,,,,,,,,,,,,,,,,,,,,,,,,,,,,,,,,,,,,,,,,,,,,,,,,,,,,,,,,,,,,,,,,,,,,,,,,,,,,,,,,,,,,,,,,,,,,,,,,,,,,,,,,,,,,,,,,,,,,,,,,,,,,,,,
0,70,70,91,1,,5e9774d2837b810ebe32666e,62bbfb3df06d34a04fe3a75c,2022-06-29_08h12.20.017,Colour_Asymmetry_Pilot,2022.1.3,Win32,46.02144599,62bbe60bf3d75ef465d3e404,,,,,,,,,,,,,,,,,,,,,,,,,,,,,,,,,,,,,,,,,,,,,,,,,,,,,,,,,,,,,,,,,,,,,,,,,,,,,,,,,,,,,,,,,,,,,,,,,,,,,,,,,,,,,,,,,,,,,,,,,,,,,,,,,,,,,,,,,,,,,,,,,,,,,,,,,,,,,,
0,71,71,88,1,,5e9774d2837b810ebe32666e,62bbfb3df06d34a04fe3a75c,2022-06-29_08h12.20.017,Colour_Asymmetry_Pilot,2022.1.3,Win32,46.02144599,62bbe60bf3d75ef465d3e404,,,,,,,,,,,,,,,,,,,,,,,,,,,,,,,,,,,,,,,,,,,,,,,,,,,,,,,,,,,,,,,,,,,,,,,,,,,,,,,,,,,,,,,,,,,,,,,,,,,,,,,,,,,,,,,,,,,,,,,,,,,,,,,,,,,,,,,,,,,,,,,,,,,,,,,,,,,,,,
0,72,72,43,1,,5e9774d2837b810ebe32666e,62bbfb3df06d34a04fe3a75c,2022-06-29_08h12.20.017,Colour_Asymmetry_Pilot,2022.1.3,Win32,46.02144599,62bbe60bf3d75ef465d3e404,,,,,,,,,,,,,,,,,,,,,,,,,,,,,,,,,,,,,,,,,,,,,,,,,,,,,,,,,,,,,,,,,,,,,,,,,,,,,,,,,,,,,,,,,,,,,,,,,,,,,,,,,,,,,,,,,,,,,,,,,,,,,,,,,,,,,,,,,,,,,,,,,,,,,,,,,,,,,,
0,73,73,3,1,,5e9774d2837b810ebe32666e,62bbfb3df06d34a04fe3a75c,2022-06-29_08h12.20.017,Colour_Asymmetry_Pilot,2022.1.3,Win32,46.02144599,62bbe60bf3d75ef465d3e404,,,,,,,,,,,,,,,,,,,,,,,,,,,,,,,,,,,,,,,,,,,,,,,,,,,,,,,,,,,,,,,,,,,,,,,,,,,,,,,,,,,,,,,,,,,,,,,,,,,,,,,,,,,,,,,,,,,,,,,,,,,,,,,,,,,,,,,,,,,,,,,,,,,,,,,,,,,,,,
0,74,74,9,1,,5e9774d2837b810ebe32666e,62bbfb3df06d34a04fe3a75c,2022-06-29_08h12.20.017,Colour_Asymmetry_Pilot,2022.1.3,Win32,46.02144599,62bbe60bf3d75ef465d3e404,,,,,,,,,,,,,,,,,,,,,,,,,,,,,,,,,,,,,,,,,,,,,,,,,,,,,,,,,,,,,,,,,,,,,,,,,,,,,,,,,,,,,,,,,,,,,,,,,,,,,,,,,,,,,,,,,,,,,,,,,,,,,,,,,,,,,,,,,,,,,,,,,,,,,,,,,,,,,,
0,75,75,85,1,,5e9774d2837b810ebe32666e,62bbfb3df06d34a04fe3a75c,2022-06-29_08h12.20.017,Colour_Asymmetry_Pilot,2022.1.3,Win32,46.02144599,62bbe60bf3d75ef465d3e404,,,,,,,,,,,,,,,,,,,,,,,,,,,,,,,,,,,,,,,,,,,,,,,,,,,,,,,,,,,,,,,,,,,,,,,,,,,,,,,,,,,,,,,,,,,,,,,,,,,,,,,,,,,,,,,,,,,,,,,,,,,,,,,,,,,,,,,,,,,,,,,,,,,,,,,,,,,,,,
0,76,76,23,1,,5e9774d2837b810ebe32666e,62bbfb3df06d34a04fe3a75c,2022-06-29_08h12.20.017,Colour_Asymmetry_Pilot,2022.1.3,Win32,46.02144599,62bbe60bf3d75ef465d3e404,,,,,,,,,,,,,,,,,,,,,,,,,,,,,,,,,,,,,,,,,,,,,,,,,,,,,,,,,,,,,,,,,,,,,,,,,,,,,,,,,,,,,,,,,,,,,,,,,,,,,,,,,,,,,,,,,,,,,,,,,,,,,,,,,,,,,,,,,,,,,,,,,,,,,,,,,,,,,,
0,77,77,49,1,,5e9774d2837b810ebe32666e,62bbfb3df06d34a04fe3a75c,2022-06-29_08h12.20.017,Colour_Asymmetry_Pilot,2022.1.3,Win32,46.02144599,62bbe60bf3d75ef465d3e404,,,,,,,,,,,,,,,,,,,,,,,,,,,,,,,,,,,,,,,,,,,,,,,,,,,,,,,,,,,,,,,,,,,,,,,,,,,,,,,,,,,,,,,,,,,,,,,,,,,,,,,,,,,,,,,,,,,,,,,,,,,,,,,,,,,,,,,,,,,,,,,,,,,,,,,,,,,,,,
0,78,78,41,1,,5e9774d2837b810ebe32666e,62bbfb3df06d34a04fe3a75c,2022-06-29_08h12.20.017,Colour_Asymmetry_Pilot,2022.1.3,Win32,46.02144599,62bbe60bf3d75ef465d3e404,,,,,,,,,,,,,,,,,,,,,,,,,,,,,,,,,,,,,,,,,,,,,,,,,,,,,,,,,,,,,,,,,,,,,,,,,,,,,,,,,,,,,,,,,,,,,,,,,,,,,,,,,,,,,,,,,,,,,,,,,,,,,,,,,,,,,,,,,,,,,,,,,,,,,,,,,,,,,,
0,79,79,5,1,,5e9774d2837b810ebe32666e,62bbfb3df06d34a04fe3a75c,2022-06-29_08h12.20.017,Colour_Asymmetry_Pilot,2022.1.3,Win32,46.02144599,62bbe60bf3d75ef465d3e404,,,,,,,,,,,,,,,,,,,,,,,,,,,,,,,,,,,,,,,,,,,,,,,,,,,,,,,,,,,,,,,,,,,,,,,,,,,,,,,,,,,,,,,,,,,,,,,,,,,,,,,,,,,,,,,,,,,,,,,,,,,,,,,,,,,,,,,,,,,,,,,,,,,,,,,,,,,,,,
0,80,80,22,1,,5e9774d2837b810ebe32666e,62bbfb3df06d34a04fe3a75c,2022-06-29_08h12.20.017,Colour_Asymmetry_Pilot,2022.1.3,Win32,46.02144599,62bbe60bf3d75ef465d3e404,,,,,,,,,,,,,,,,,,,,,,,,,,,,,,,,,,,,,,,,,,,,,,,,,,,,,,,,,,,,,,,,,,,,,,,,,,,,,,,,,,,,,,,,,,,,,,,,,,,,,,,,,,,,,,,,,,,,,,,,,,,,,,,,,,,,,,,,,,,,,,,,,,,,,,,,,,,,,,
0,81,81,87,1,,5e9774d2837b810ebe32666e,62bbfb3df06d34a04fe3a75c,2022-06-29_08h12.20.017,Colour_Asymmetry_Pilot,2022.1.3,Win32,46.02144599,62bbe60bf3d75ef465d3e404,,,,,,,,,,,,,,,,,,,,,,,,,,,,,,,,,,,,,,,,,,,,,,,,,,,,,,,,,,,,,,,,,,,,,,,,,,,,,,,,,,,,,,,,,,,,,,,,,,,,,,,,,,,,,,,,,,,,,,,,,,,,,,,,,,,,,,,,,,,,,,,,,,,,,,,,,,,,,,
0,82,82,66,1,,5e9774d2837b810ebe32666e,62bbfb3df06d34a04fe3a75c,2022-06-29_08h12.20.017,Colour_Asymmetry_Pilot,2022.1.3,Win32,46.02144599,62bbe60bf3d75ef465d3e404,,,,,,,,,,,,,,,,,,,,,,,,,,,,,,,,,,,,,,,,,,,,,,,,,,,,,,,,,,,,,,,,,,,,,,,,,,,,,,,,,,,,,,,,,,,,,,,,,,,,,,,,,,,,,,,,,,,,,,,,,,,,,,,,,,,,,,,,,,,,,,,,,,,,,,,,,,,,,,
0,83,83,47,1,,5e9774d2837b810ebe32666e,62bbfb3df06d34a04fe3a75c,2022-06-29_08h12.20.017,Colour_Asymmetry_Pilot,2022.1.3,Win32,46.02144599,62bbe60bf3d75ef465d3e404,,,,,,,,,,,,,,,,,,,,,,,,,,,,,,,,,,,,,,,,,,,,,,,,,,,,,,,,,,,,,,,,,,,,,,,,,,,,,,,,,,,,,,,,,,,,,,,,,,,,,,,,,,,,,,,,,,,,,,,,,,,,,,,,,,,,,,,,,,,,,,,,,,,,,,,,,,,,,,
0,84,84,84,1,,5e9774d2837b810ebe32666e,62bbfb3df06d34a04fe3a75c,2022-06-29_08h12.20.017,Colour_Asymmetry_Pilot,2022.1.3,Win32,46.02144599,62bbe60bf3d75ef465d3e404,,,,,,,,,,,,,,,,,,,,,,,,,,,,,,,,,,,,,,,,,,,,,,,,,,,,,,,,,,,,,,,,,,,,,,,,,,,,,,,,,,,,,,,,,,,,,,,,,,,,,,,,,,,,,,,,,,,,,,,,,,,,,,,,,,,,,,,,,,,,,,,,,,,,,,,,,,,,,,
0,85,85,34,1,,5e9774d2837b810ebe32666e,62bbfb3df06d34a04fe3a75c,2022-06-29_08h12.20.017,Colour_Asymmetry_Pilot,2022.1.3,Win32,46.02144599,62bbe60bf3d75ef465d3e404,,,,,,,,,,,,,,,,,,,,,,,,,,,,,,,,,,,,,,,,,,,,,,,,,,,,,,,,,,,,,,,,,,,,,,,,,,,,,,,,,,,,,,,,,,,,,,,,,,,,,,,,,,,,,,,,,,,,,,,,,,,,,,,,,,,,,,,,,,,,,,,,,,,,,,,,,,,,,,
0,86,86,39,1,,5e9774d2837b810ebe32666e,62bbfb3df06d34a04fe3a75c,2022-06-29_08h12.20.017,Colour_Asymmetry_Pilot,2022.1.3,Win32,46.02144599,62bbe60bf3d75ef465d3e404,,,,,,,,,,,,,,,,,,,,,,,,,,,,,,,,,,,,,,,,,,,,,,,,,,,,,,,,,,,,,,,,,,,,,,,,,,,,,,,,,,,,,,,,,,,,,,,,,,,,,,,,,,,,,,,,,,,,,,,,,,,,,,,,,,,,,,,,,,,,,,,,,,,,,,,,,,,,,,
0,87,87,75,1,,5e9774d2837b810ebe32666e,62bbfb3df06d34a04fe3a75c,2022-06-29_08h12.20.017,Colour_Asymmetry_Pilot,2022.1.3,Win32,46.02144599,62bbe60bf3d75ef465d3e404,,,,,,,,,,,,,,,,,,,,,,,,,,,,,,,,,,,,,,,,,,,,,,,,,,,,,,,,,,,,,,,,,,,,,,,,,,,,,,,,,,,,,,,,,,,,,,,,,,,,,,,,,,,,,,,,,,,,,,,,,,,,,,,,,,,,,,,,,,,,,,,,,,,,,,,,,,,,,,
0,88,88,77,1,,5e9774d2837b810ebe32666e,62bbfb3df06d34a04fe3a75c,2022-06-29_08h12.20.017,Colour_Asymmetry_Pilot,2022.1.3,Win32,46.02144599,62bbe60bf3d75ef465d3e404,,,,,,,,,,,,,,,,,,,,,,,,,,,,,,,,,,,,,,,,,,,,,,,,,,,,,,,,,,,,,,,,,,,,,,,,,,,,,,,,,,,,,,,,,,,,,,,,,,,,,,,,,,,,,,,,,,,,,,,,,,,,,,,,,,,,,,,,,,,,,,,,,,,,,,,,,,,,,,
0,89,89,51,1,,5e9774d2837b810ebe32666e,62bbfb3df06d34a04fe3a75c,2022-06-29_08h12.20.017,Colour_Asymmetry_Pilot,2022.1.3,Win32,46.02144599,62bbe60bf3d75ef465d3e404,,,,,,,,,,,,,,,,,,,,,,,,,,,,,,,,,,,,,,,,,,,,,,,,,,,,,,,,,,,,,,,,,,,,,,,,,,,,,,,,,,,,,,,,,,,,,,,,,,,,,,,,,,,,,,,,,,,,,,,,,,,,,,,,,,,,,,,,,,,,,,,,,,,,,,,,,,,,,,
0,90,90,63,1,,5e9774d2837b810ebe32666e,62bbfb3df06d34a04fe3a75c,2022-06-29_08h12.20.017,Colour_Asymmetry_Pilot,2022.1.3,Win32,46.02144599,62bbe60bf3d75ef465d3e404,,,,,,,,,,,,,,,,,,,,,,,,,,,,,,,,,,,,,,,,,,,,,,,,,,,,,,,,,,,,,,,,,,,,,,,,,,,,,,,,,,,,,,,,,,,,,,,,,,,,,,,,,,,,,,,,,,,,,,,,,,,,,,,,,,,,,,,,,,,,,,,,,,,,,,,,,,,,,,
0,91,91,79,1,,5e9774d2837b810ebe32666e,62bbfb3df06d34a04fe3a75c,2022-06-29_08h12.20.017,Colour_Asymmetry_Pilot,2022.1.3,Win32,46.02144599,62bbe60bf3d75ef465d3e404,,,,,,,,,,,,,,,,,,,,,,,,,,,,,,,,,,,,,,,,,,,,,,,,,,,,,,,,,,,,,,,,,,,,,,,,,,,,,,,,,,,,,,,,,,,,,,,,,,,,,,,,,,,,,,,,,,,,,,,,,,,,,,,,,,,,,,,,,,,,,,,,,,,,,,,,,,,,,,
0,92,92,37,1,,5e9774d2837b810ebe32666e,62bbfb3df06d34a04fe3a75c,2022-06-29_08h12.20.017,Colour_Asymmetry_Pilot,2022.1.3,Win32,46.02144599,62bbe60bf3d75ef465d3e404,,,,,,,,,,,,,,,,,,,,,,,,,,,,,,,,,,,,,,,,,,,,,,,,,,,,,,,,,,,,,,,,,,,,,,,,,,,,,,,,,,,,,,,,,,,,,,,,,,,,,,,,,,,,,,,,,,,,,,,,,,,,,,,,,,,,,,,,,,,,,,,,,,,,,,,,,,,,,,
,,,,,,5e9774d2837b810ebe32666e,62bbfb3df06d34a04fe3a75c,2022-06-29_08h12.20.017,Colour_Asymmetry_Pilot,2022.1.3,Win32,46.02144599,62bbe60bf3d75ef465d3e404,0,0,0,20,1,threeone,,,,,,,,,,,,,,,,,,,,,,,,,,,,,,,,,,,,,,,,,,,,,,,,,,,,,,,,,,,,,,,,,,,,,,,,,,,,,,,,,,,,,,,,,,,,,,,,,,,,,,,,,,,,,,,,,,,,,,,,,,,,,,,,,,,,,,,,,,,,,,,,,,,,,,,,
,,,,,,5e9774d2837b810ebe32666e,62bbfb3df06d34a04fe3a75c,2022-06-29_08h12.20.017,Colour_Asymmetry_Pilot,2022.1.3,Win32,46.02144599,62bbe60bf3d75ef465d3e404,0,1,1,106,1,twoone,,,,,,,,,,,,,,,,,,,,,,,,,,,,,,,,,,,,,,,,,,,,,,,,,,,,,,,,,,,,,,,,,,,,,,,,,,,,,,,,,,,,,,,,,,,,,,,,,,,,,,,,,,,,,,,,,,,,,,,,,,,,,,,,,,,,,,,,,,,,,,,,,,,,,,,,
,,,,,,5e9774d2837b810ebe32666e,62bbfb3df06d34a04fe3a75c,2022-06-29_08h12.20.017,Colour_Asymmetry_Pilot,2022.1.3,Win32,46.02144599,62bbe60bf3d75ef465d3e404,0,2,2,15,1,fourthree,,,,,,,,,,,,,,,,,,,,,,,,,,,,,,,,,,,,,,,,,,,,,,,,,,,,,,,,,,,,,,,,,,,,,,,,,,,,,,,,,,,,,,,,,,,,,,,,,,,,,,,,,,,,,,,,,,,,,,,,,,,,,,,,,,,,,,,,,,,,,,,,,,,,,,,,
,,,,,,5e9774d2837b810ebe32666e,62bbfb3df06d34a04fe3a75c,2022-06-29_08h12.20.017,Colour_Asymmetry_Pilot,2022.1.3,Win32,46.02144599,62bbe60bf3d75ef465d3e404,0,3,3,155,1,twofour,,,,,,,,,,,,,,,,,,,,,,,,,,,,,,,,,,,,,,,,,,,,,,,,,,,,,,,,,,,,,,,,,,,,,,,,,,,,,,,,,,,,,,,,,,,,,,,,,,,,,,,,,,,,,,,,,,,,,,,,,,,,,,,,,,,,,,,,,,,,,,,,,,,,,,,,
,,,,,,5e9774d2837b810ebe32666e,62bbfb3df06d34a04fe3a75c,2022-06-29_08h12.20.017,Colour_Asymmetry_Pilot,2022.1.3,Win32,46.02144599,62bbe60bf3d75ef465d3e404,0,4,4,6,1,fourtwo,,,,,,,,,,,,,,,,,,,,,,,,,,,,,,,,,,,,,,,,,,,,,,,,,,,,,,,,,,,,,,,,,,,,,,,,,,,,,,,,,,,,,,,,,,,,,,,,,,,,,,,,,,,,,,,,,,,,,,,,,,,,,,,,,,,,,,,,,,,,,,,,,,,,,,,,
,,,,,,5e9774d2837b810ebe32666e,62bbfb3df06d34a04fe3a75c,2022-06-29_08h12.20.017,Colour_Asymmetry_Pilot,2022.1.3,Win32,46.02144599,62bbe60bf3d75ef465d3e404,0,5,5,31,1,fourthree,,,,,,,,,,,,,,,,,,,,,,,,,,,,,,,,,,,,,,,,,,,,,,,,,,,,,,,,,,,,,,,,,,,,,,,,,,,,,,,,,,,,,,,,,,,,,,,,,,,,,,,,,,,,,,,,,,,,,,,,,,,,,,,,,,,,,,,,,,,,,,,,,,,,,,,,
,,,,,,5e9774d2837b810ebe32666e,62bbfb3df06d34a04fe3a75c,2022-06-29_08h12.20.017,Colour_Asymmetry_Pilot,2022.1.3,Win32,46.02144599,62bbe60bf3d75ef465d3e404,0,6,6,154,1,twoone,,,,,,,,,,,,,,,,,,,,,,,,,,,,,,,,,,,,,,,,,,,,,,,,,,,,,,,,,,,,,,,,,,,,,,,,,,,,,,,,,,,,,,,,,,,,,,,,,,,,,,,,,,,,,,,,,,,,,,,,,,,,,,,,,,,,,,,,,,,,,,,,,,,,,,,,
,,,,,,5e9774d2837b810ebe32666e,62bbfb3df06d34a04fe3a75c,2022-06-29_08h12.20.017,Colour_Asymmetry_Pilot,2022.1.3,Win32,46.02144599,62bbe60bf3d75ef465d3e404,0,7,7,133,1,threefour,,,,,,,,,,,,,,,,,,,,,,,,,,,,,,,,,,,,,,,,,,,,,,,,,,,,,,,,,,,,,,,,,,,,,,,,,,,,,,,,,,,,,,,,,,,,,,,,,,,,,,,,,,,,,,,,,,,,,,,,,,,,,,,,,,,,,,,,,,,,,,,,,,,,,,,,
,,,,,,5e9774d2837b810ebe32666e,62bbfb3df06d34a04fe3a75c,2022-06-29_08h12.20.017,Colour_Asymmetry_Pilot,2022.1.3,Win32,46.02144599,62bbe60bf3d75ef465d3e404,0,8,8,91,1,twofour,,,,,,,,,,,,,,,,,,,,,,,,,,,,,,,,,,,,,,,,,,,,,,,,,,,,,,,,,,,,,,,,,,,,,,,,,,,,,,,,,,,,,,,,,,,,,,,,,,,,,,,,,,,,,,,,,,,,,,,,,,,,,,,,,,,,,,,,,,,,,,,,,,,,,,,,
,,,,,,5e9774d2837b810ebe32666e,62bbfb3df06d34a04fe3a75c,2022-06-29_08h12.20.017,Colour_Asymmetry_Pilot,2022.1.3,Win32,46.02144599,62bbe60bf3d75ef465d3e404,0,9,9,69,1,threefour,,,,,,,,,,,,,,,,,,,,,,,,,,,,,,,,,,,,,,,,,,,,,,,,,,,,,,,,,,,,,,,,,,,,,,,,,,,,,,,,,,,,,,,,,,,,,,,,,,,,,,,,,,,,,,,,,,,,,,,,,,,,,,,,,,,,,,,,,,,,,,,,,,,,,,,,
,,,,,,5e9774d2837b810ebe32666e,62bbfb3df06d34a04fe3a75c,2022-06-29_08h12.20.017,Colour_Asymmetry_Pilot,2022.1.3,Win32,46.02144599,62bbe60bf3d75ef465d3e404,0,10,10,131,1,twofour,,,,,,,,,,,,,,,,,,,,,,,,,,,,,,,,,,,,,,,,,,,,,,,,,,,,,,,,,,,,,,,,,,,,,,,,,,,,,,,,,,,,,,,,,,,,,,,,,,,,,,,,,,,,,,,,,,,,,,,,,,,,,,,,,,,,,,,,,,,,,,,,,,,,,,,,
,,,,,,5e9774d2837b810ebe32666e,62bbfb3df06d34a04fe3a75c,2022-06-29_08h12.20.017,Colour_Asymmetry_Pilot,2022.1.3,Win32,46.02144599,62bbe60bf3d75ef465d3e404,0,11,11,48,1,onetwo,,,,,,,,,,,,,,,,,,,,,,,,,,,,,,,,,,,,,,,,,,,,,,,,,,,,,,,,,,,,,,,,,,,,,,,,,,,,,,,,,,,,,,,,,,,,,,,,,,,,,,,,,,,,,,,,,,,,,,,,,,,,,,,,,,,,,,,,,,,,,,,,,,,,,,,,
,,,,,,5e9774d2837b810ebe32666e,62bbfb3df06d34a04fe3a75c,2022-06-29_08h12.20.017,Colour_Asymmetry_Pilot,2022.1.3,Win32,46.02144599,62bbe60bf3d75ef465d3e404,0,12,12,128,1,onetwo,,,,,,,,,,,,,,,,,,,,,,,,,,,,,,,,,,,,,,,,,,,,,,,,,,,,,,,,,,,,,,,,,,,,,,,,,,,,,,,,,,,,,,,,,,,,,,,,,,,,,,,,,,,,,,,,,,,,,,,,,,,,,,,,,,,,,,,,,,,,,,,,,,,,,,,,
,,,,,,5e9774d2837b810ebe32666e,62bbfb3df06d34a04fe3a75c,2022-06-29_08h12.20.017,Colour_Asymmetry_Pilot,2022.1.3,Win32,46.02144599,62bbe60bf3d75ef465d3e404,0,13,13,141,1,threefour,,,,,,,,,,,,,,,,,,,,,,,,,,,,,,,,,,,,,,,,,,,,,,,,,,,,,,,,,,,,,,,,,,,,,,,,,,,,,,,,,,,,,,,,,,,,,,,,,,,,,,,,,,,,,,,,,,,,,,,,,,,,,,,,,,,,,,,,,,,,,,,,,,,,,,,,
,,,,,,5e9774d2837b810ebe32666e,62bbfb3df06d34a04fe3a75c,2022-06-29_08h12.20.017,Colour_Asymmetry_Pilot,2022.1.3,Win32,46.02144599,62bbe60bf3d75ef465d3e404,0,14,14,120,1,onetwo,,,,,,,,,,,,,,,,,,,,,,,,,,,,,,,,,,,,,,,,,,,,,,,,,,,,,,,,,,,,,,,,,,,,,,,,,,,,,,,,,,,,,,,,,,,,,,,,,,,,,,,,,,,,,,,,,,,,,,,,,,,,,,,,,,,,,,,,,,,,,,,,,,,,,,,,
,,,,,,5e9774d2837b810ebe32666e,62bbfb3df06d34a04fe3a75c,2022-06-29_08h12.20.017,Colour_Asymmetry_Pilot,2022.1.3,Win32,46.02144599,62bbe60bf3d75ef465d3e404,0,15,15,4,1,threeone,,,,,,,,,,,,,,,,,,,,,,,,,,,,,,,,,,,,,,,,,,,,,,,,,,,,,,,,,,,,,,,,,,,,,,,,,,,,,,,,,,,,,,,,,,,,,,,,,,,,,,,,,,,,,,,,,,,,,,,,,,,,,,,,,,,,,,,,,,,,,,,,,,,,,,,,
,,,,,,5e9774d2837b810ebe32666e,62bbfb3df06d34a04fe3a75c,2022-06-29_08h12.20.017,Colour_Asymmetry_Pilot,2022.1.3,Win32,46.02144599,62bbe60bf3d75ef465d3e404,0,16,16,125,1,threefour,,,,,,,,,,,,,,,,,,,,,,,,,,,,,,,,,,,,,,,,,,,,,,,,,,,,,,,,,,,,,,,,,,,,,,,,,,,,,,,,,,,,,,,,,,,,,,,,,,,,,,,,,,,,,,,,,,,,,,,,,,,,,,,,,,,,,,,,,,,,,,,,,,,,,,,,
,,,,,,5e9774d2837b810ebe32666e,62bbfb3df06d34a04fe3a75c,2022-06-29_08h12.20.017,Colour_Asymmetry_Pilot,2022.1.3,Win32,46.02144599,62bbe60bf3d75ef465d3e404,0,17,17,34,1,twoone,,,,,,,,,,,,,,,,,,,,,,,,,,,,,,,,,,,,,,,,,,,,,,,,,,,,,,,,,,,,,,,,,,,,,,,,,,,,,,,,,,,,,,,,,,,,,,,,,,,,,,,,,,,,,,,,,,,,,,,,,,,,,,,,,,,,,,,,,,,,,,,,,,,,,,,,
,,,,,,5e9774d2837b810ebe32666e,62bbfb3df06d34a04fe3a75c,2022-06-29_08h12.20.017,Colour_Asymmetry_Pilot,2022.1.3,Win32,46.02144599,62bbe60bf3d75ef465d3e404,0,18,18,56,1,onetwo,,,,,,,,,,,,,,,,,,,,,,,,,,,,,,,,,,,,,,,,,,,,,,,,,,,,,,,,,,,,,,,,,,,,,,,,,,,,,,,,,,,,,,,,,,,,,,,,,,,,,,,,,,,,,,,,,,,,,,,,,,,,,,,,,,,,,,,,,,,,,,,,,,,,,,,,
,,,,,,5e9774d2837b810ebe32666e,62bbfb3df06d34a04fe3a75c,2022-06-29_08h12.20.017,Colour_Asymmetry_Pilot,2022.1.3,Win32,46.02144599,62bbe60bf3d75ef465d3e404,0,19,19,139,1,twofour,,,,,,,,,,,,,,,,,,,,,,,,,,,,,,,,,,,,,,,,,,,,,,,,,,,,,,,,,,,,,,,,,,,,,,,,,,,,,,,,,,,,,,,,,,,,,,,,,,,,,,,,,,,,,,,,,,,,,,,,,,,,,,,,,,,,,,,,,,,,,,,,,,,,,,,,
,,,,,,5e9774d2837b810ebe32666e,62bbfb3df06d34a04fe3a75c,2022-06-29_08h12.20.017,Colour_Asymmetry_Pilot,2022.1.3,Win32,46.02144599,62bbe60bf3d75ef465d3e404,0,20,20,156,1,threeone,,,,,,,,,,,,,,,,,,,,,,,,,,,,,,,,,,,,,,,,,,,,,,,,,,,,,,,,,,,,,,,,,,,,,,,,,,,,,,,,,,,,,,,,,,,,,,,,,,,,,,,,,,,,,,,,,,,,,,,,,,,,,,,,,,,,,,,,,,,,,,,,,,,,,,,,
,,,,,,5e9774d2837b810ebe32666e,62bbfb3df06d34a04fe3a75c,2022-06-29_08h12.20.017,Colour_Asymmetry_Pilot,2022.1.3,Win32,46.02144599,62bbe60bf3d75ef465d3e404,0,21,21,14,1,fourtwo,,,,,,,,,,,,,,,,,,,,,,,,,,,,,,,,,,,,,,,,,,,,,,,,,,,,,,,,,,,,,,,,,,,,,,,,,,,,,,,,,,,,,,,,,,,,,,,,,,,,,,,,,,,,,,,,,,,,,,,,,,,,,,,,,,,,,,,,,,,,,,,,,,,,,,,,
,,,,,,5e9774d2837b810ebe32666e,62bbfb3df06d34a04fe3a75c,2022-06-29_08h12.20.017,Colour_Asymmetry_Pilot,2022.1.3,Win32,46.02144599,62bbe60bf3d75ef465d3e404,0,22,22,89,1,onethree,,,,,,,,,,,,,,,,,,,,,,,,,,,,,,,,,,,,,,,,,,,,,,,,,,,,,,,,,,,,,,,,,,,,,,,,,,,,,,,,,,,,,,,,,,,,,,,,,,,,,,,,,,,,,,,,,,,,,,,,,,,,,,,,,,,,,,,,,,,,,,,,,,,,,,,,
,,,,,,5e9774d2837b810ebe32666e,62bbfb3df06d34a04fe3a75c,2022-06-29_08h12.20.017,Colour_Asymmetry_Pilot,2022.1.3,Win32,46.02144599,62bbe60bf3d75ef465d3e404,0,23,23,81,1,onethree,,,,,,,,,,,,,,,,,,,,,,,,,,,,,,,,,,,,,,,,,,,,,,,,,,,,,,,,,,,,,,,,,,,,,,,,,,,,,,,,,,,,,,,,,,,,,,,,,,,,,,,,,,,,,,,,,,,,,,,,,,,,,,,,,,,,,,,,,,,,,,,,,,,,,,,,
,,,,,,5e9774d2837b810ebe32666e,62bbfb3df06d34a04fe3a75c,2022-06-29_08h12.20.017,Colour_Asymmetry_Pilot,2022.1.3,Win32,46.02144599,62bbe60bf3d75ef465d3e404,0,24,24,3,1,twofour,,,,,,,,,,,,,,,,,,,,,,,,,,,,,,,,,,,,,,,,,,,,,,,,,,,,,,,,,,,,,,,,,,,,,,,,,,,,,,,,,,,,,,,,,,,,,,,,,,,,,,,,,,,,,,,,,,,,,,,,,,,,,,,,,,,,,,,,,,,,,,,,,,,,,,,,
,,,,,,5e9774d2837b810ebe32666e,62bbfb3df06d34a04fe3a75c,2022-06-29_08h12.20.017,Colour_Asymmetry_Pilot,2022.1.3,Win32,46.02144599,62bbe60bf3d75ef465d3e404,0,25,25,153,1,onethree,,,,,,,,,,,,,,,,,,,,,,,,,,,,,,,,,,,,,,,,,,,,,,,,,,,,,,,,,,,,,,,,,,,,,,,,,,,,,,,,,,,,,,,,,,,,,,,,,,,,,,,,,,,,,,,,,,,,,,,,,,,,,,,,,,,,,,,,,,,,,,,,,,,,,,,,
,,,,,,5e9774d2837b810ebe32666e,62bbfb3df06d34a04fe3a75c,2022-06-29_08h12.20.017,Colour_Asymmetry_Pilot,2022.1.3,Win32,46.02144599,62bbe60bf3d75ef465d3e404,0,26,26,85,1,threefour,,,,,,,,,,,,,,,,,,,,,,,,,,,,,,,,,,,,,,,,,,,,,,,,,,,,,,,,,,,,,,,,,,,,,,,,,,,,,,,,,,,,,,,,,,,,,,,,,,,,,,,,,,,,,,,,,,,,,,,,,,,,,,,,,,,,,,,,,,,,,,,,,,,,,,,,
,,,,,,5e9774d2837b810ebe32666e,62bbfb3df06d34a04fe3a75c,2022-06-29_08h12.20.017,Colour_Asymmetry_Pilot,2022.1.3,Win32,46.02144599,62bbe60bf3d75ef465d3e404,0,27,27,23,1,fourthree,,,,,,,,,,,,,,,,,,,,,,,,,,,,,,,,,,,,,,,,,,,,,,,,,,,,,,,,,,,,,,,,,,,,,,,,,,,,,,,,,,,,,,,,,,,,,,,,,,,,,,,,,,,,,,,,,,,,,,,,,,,,,,,,,,,,,,,,,,,,,,,,,,,,,,,,
,,,,,,5e9774d2837b810ebe32666e,62bbfb3df06d34a04fe3a75c,2022-06-29_08h12.20.017,Colour_Asymmetry_Pilot,2022.1.3,Win32,46.02144599,62bbe60bf3d75ef465d3e404,0,28,28,115,1,twofour,,,,,,,,,,,,,,,,,,,,,,,,,,,,,,,,,,,,,,,,,,,,,,,,,,,,,,,,,,,,,,,,,,,,,,,,,,,,,,,,,,,,,,,,,,,,,,,,,,,,,,,,,,,,,,,,,,,,,,,,,,,,,,,,,,,,,,,,,,,,,,,,,,,,,,,,
,,,,,,5e9774d2837b810ebe32666e,62bbfb3df06d34a04fe3a75c,2022-06-29_08h12.20.017,Colour_Asymmetry_Pilot,2022.1.3,Win32,46.02144599,62bbe60bf3d75ef465d3e404,0,29,29,68,1,threeone,,,,,,,,,,,,,,,,,,,,,,,,,,,,,,,,,,,,,,,,,,,,,,,,,,,,,,,,,,,,,,,,,,,,,,,,,,,,,,,,,,,,,,,,,,,,,,,,,,,,,,,,,,,,,,,,,,,,,,,,,,,,,,,,,,,,,,,,,,,,,,,,,,,,,,,,
,,,,,,5e9774d2837b810ebe32666e,62bbfb3df06d34a04fe3a75c,2022-06-29_08h12.20.017,Colour_Asymmetry_Pilot,2022.1.3,Win32,46.02144599,62bbe60bf3d75ef465d3e404,0,30,30,134,1,fourtwo,,,,,,,,,,,,,,,,,,,,,,,,,,,,,,,,,,,,,,,,,,,,,,,,,,,,,,,,,,,,,,,,,,,,,,,,,,,,,,,,,,,,,,,,,,,,,,,,,,,,,,,,,,,,,,,,,,,,,,,,,,,,,,,,,,,,,,,,,,,,,,,,,,,,,,,,
,,,,,,5e9774d2837b810ebe32666e,62bbfb3df06d34a04fe3a75c,2022-06-29_08h12.20.017,Colour_Asymmetry_Pilot,2022.1.3,Win32,46.02144599,62bbe60bf3d75ef465d3e404,0,31,31,43,1,twofour,,,,,,,,,,,,,,,,,,,,,,,,,,,,,,,,,,,,,,,,,,,,,,,,,,,,,,,,,,,,,,,,,,,,,,,,,,,,,,,,,,,,,,,,,,,,,,,,,,,,,,,,,,,,,,,,,,,,,,,,,,,,,,,,,,,,,,,,,,,,,,,,,,,,,,,,
,,,,,,5e9774d2837b810ebe32666e,62bbfb3df06d34a04fe3a75c,2022-06-29_08h12.20.017,Colour_Asymmetry_Pilot,2022.1.3,Win32,46.02144599,62bbe60bf3d75ef465d3e404,0,32,32,159,1,fourthree,,,,,,,,,,,,,,,,,,,,,,,,,,,,,,,,,,,,,,,,,,,,,,,,,,,,,,,,,,,,,,,,,,,,,,,,,,,,,,,,,,,,,,,,,,,,,,,,,,,,,,,,,,,,,,,,,,,,,,,,,,,,,,,,,,,,,,,,,,,,,,,,,,,,,,,,
,,,,,,5e9774d2837b810ebe32666e,62bbfb3df06d34a04fe3a75c,2022-06-29_08h12.20.017,Colour_Asymmetry_Pilot,2022.1.3,Win32,46.02144599,62bbe60bf3d75ef465d3e404,0,33,33,65,1,onethree,,,,,,,,,,,,,,,,,,,,,,,,,,,,,,,,,,,,,,,,,,,,,,,,,,,,,,,,,,,,,,,,,,,,,,,,,,,,,,,,,,,,,,,,,,,,,,,,,,,,,,,,,,,,,,,,,,,,,,,,,,,,,,,,,,,,,,,,,,,,,,,,,,,,,,,,
,,,,,,5e9774d2837b810ebe32666e,62bbfb3df06d34a04fe3a75c,2022-06-29_08h12.20.017,Colour_Asymmetry_Pilot,2022.1.3,Win32,46.02144599,62bbe60bf3d75ef465d3e404,0,34,34,63,1,fourthree,,,,,,,,,,,,,,,,,,,,,,,,,,,,,,,,,,,,,,,,,,,,,,,,,,,,,,,,,,,,,,,,,,,,,,,,,,,,,,,,,,,,,,,,,,,,,,,,,,,,,,,,,,,,,,,,,,,,,,,,,,,,,,,,,,,,,,,,,,,,,,,,,,,,,,,,
,,,,,,5e9774d2837b810ebe32666e,62bbfb3df06d34a04fe3a75c,2022-06-29_08h12.20.017,Colour_Asymmetry_Pilot,2022.1.3,Win32,46.02144599,62bbe60bf3d75ef465d3e404,0,35,35,13,1,threefour,,,,,,,,,,,,,,,,,,,,,,,,,,,,,,,,,,,,,,,,,,,,,,,,,,,,,,,,,,,,,,,,,,,,,,,,,,,,,,,,,,,,,,,,,,,,,,,,,,,,,,,,,,,,,,,,,,,,,,,,,,,,,,,,,,,,,,,,,,,,,,,,,,,,,,,,
,,,,,,5e9774d2837b810ebe32666e,62bbfb3df06d34a04fe3a75c,2022-06-29_08h12.20.017,Colour_Asymmetry_Pilot,2022.1.3,Win32,46.02144599,62bbe60bf3d75ef465d3e404,0,36,36,107,1,twofour,,,,,,,,,,,,,,,,,,,,,,,,,,,,,,,,,,,,,,,,,,,,,,,,,,,,,,,,,,,,,,,,,,,,,,,,,,,,,,,,,,,,,,,,,,,,,,,,,,,,,,,,,,,,,,,,,,,,,,,,,,,,,,,,,,,,,,,,,,,,,,,,,,,,,,,,
,,,,,,5e9774d2837b810ebe32666e,62bbfb3df06d34a04fe3a75c,2022-06-29_08h12.20.017,Colour_Asymmetry_Pilot,2022.1.3,Win32,46.02144599,62bbe60bf3d75ef465d3e404,0,37,37,140,1,threeone,,,,,,,,,,,,,,,,,,,,,,,,,,,,,,,,,,,,,,,,,,,,,,,,,,,,,,,,,,,,,,,,,,,,,,,,,,,,,,,,,,,,,,,,,,,,,,,,,,,,,,,,,,,,,,,,,,,,,,,,,,,,,,,,,,,,,,,,,,,,,,,,,,,,,,,,
,,,,,,5e9774d2837b810ebe32666e,62bbfb3df06d34a04fe3a75c,2022-06-29_08h12.20.017,Colour_Asymmetry_Pilot,2022.1.3,Win32,46.02144599,62bbe60bf3d75ef465d3e404,0,38,38,110,1,fourtwo,,,,,,,,,,,,,,,,,,,,,,,,,,,,,,,,,,,,,,,,,,,,,,,,,,,,,,,,,,,,,,,,,,,,,,,,,,,,,,,,,,,,,,,,,,,,,,,,,,,,,,,,,,,,,,,,,,,,,,,,,,,,,,,,,,,,,,,,,,,,,,,,,,,,,,,,
,,,,,,5e9774d2837b810ebe32666e,62bbfb3df06d34a04fe3a75c,2022-06-29_08h12.20.017,Colour_Asymmetry_Pilot,2022.1.3,Win32,46.02144599,62bbe60bf3d75ef465d3e404,0,39,39,32,1,onetwo,,,,,,,,,,,,,,,,,,,,,,,,,,,,,,,,,,,,,,,,,,,,,,,,,,,,,,,,,,,,,,,,,,,,,,,,,,,,,,,,,,,,,,,,,,,,,,,,,,,,,,,,,,,,,,,,,,,,,,,,,,,,,,,,,,,,,,,,,,,,,,,,,,,,,,,,
,,,,,,5e9774d2837b810ebe32666e,62bbfb3df06d34a04fe3a75c,2022-06-29_08h12.20.017,Colour_Asymmetry_Pilot,2022.1.3,Win32,46.02144599,62bbe60bf3d75ef465d3e404,0,40,40,73,1,onethree,,,,,,,,,,,,,,,,,,,,,,,,,,,,,,,,,,,,,,,,,,,,,,,,,,,,,,,,,,,,,,,,,,,,,,,,,,,,,,,,,,,,,,,,,,,,,,,,,,,,,,,,,,,,,,,,,,,,,,,,,,,,,,,,,,,,,,,,,,,,,,,,,,,,,,,,
,,,,,,5e9774d2837b810ebe32666e,62bbfb3df06d34a04fe3a75c,2022-06-29_08h12.20.017,Colour_Asymmetry_Pilot,2022.1.3,Win32,46.02144599,62bbe60bf3d75ef465d3e404,0,41,41,104,1,onetwo,,,,,,,,,,,,,,,,,,,,,,,,,,,,,,,,,,,,,,,,,,,,,,,,,,,,,,,,,,,,,,,,,,,,,,,,,,,,,,,,,,,,,,,,,,,,,,,,,,,,,,,,,,,,,,,,,,,,,,,,,,,,,,,,,,,,,,,,,,,,,,,,,,,,,,,,
,,,,,,5e9774d2837b810ebe32666e,62bbfb3df06d34a04fe3a75c,2022-06-29_08h12.20.017,Colour_Asymmetry_Pilot,2022.1.3,Win32,46.02144599,62bbe60bf3d75ef465d3e404,0,42,42,74,1,twoone,,,,,,,,,,,,,,,,,,,,,,,,,,,,,,,,,,,,,,,,,,,,,,,,,,,,,,,,,,,,,,,,,,,,,,,,,,,,,,,,,,,,,,,,,,,,,,,,,,,,,,,,,,,,,,,,,,,,,,,,,,,,,,,,,,,,,,,,,,,,,,,,,,,,,,,,
,,,,,,5e9774d2837b810ebe32666e,62bbfb3df06d34a04fe3a75c,2022-06-29_08h12.20.017,Colour_Asymmetry_Pilot,2022.1.3,Win32,46.02144599,62bbe60bf3d75ef465d3e404,0,43,43,100,1,threeone,,,,,,,,,,,,,,,,,,,,,,,,,,,,,,,,,,,,,,,,,,,,,,,,,,,,,,,,,,,,,,,,,,,,,,,,,,,,,,,,,,,,,,,,,,,,,,,,,,,,,,,,,,,,,,,,,,,,,,,,,,,,,,,,,,,,,,,,,,,,,,,,,,,,,,,,
,,,,,,5e9774d2837b810ebe32666e,62bbfb3df06d34a04fe3a75c,2022-06-29_08h12.20.017,Colour_Asymmetry_Pilot,2022.1.3,Win32,46.02144599,62bbe60bf3d75ef465d3e404,0,44,44,146,1,twoone,,,,,,,,,,,,,,,,,,,,,,,,,,,,,,,,,,,,,,,,,,,,,,,,,,,,,,,,,,,,,,,,,,,,,,,,,,,,,,,,,,,,,,,,,,,,,,,,,,,,,,,,,,,,,,,,,,,,,,,,,,,,,,,,,,,,,,,,,,,,,,,,,,,,,,,,
,,,,,,5e9774d2837b810ebe32666e,62bbfb3df06d34a04fe3a75c,2022-06-29_08h12.20.017,Colour_Asymmetry_Pilot,2022.1.3,Win32,46.02144599,62bbe60bf3d75ef465d3e404,0,45,45,150,1,fourtwo,,,,,,,,,,,,,,,,,,,,,,,,,,,,,,,,,,,,,,,,,,,,,,,,,,,,,,,,,,,,,,,,,,,,,,,,,,,,,,,,,,,,,,,,,,,,,,,,,,,,,,,,,,,,,,,,,,,,,,,,,,,,,,,,,,,,,,,,,,,,,,,,,,,,,,,,
,,,,,,5e9774d2837b810ebe32666e,62bbfb3df06d34a04fe3a75c,2022-06-29_08h12.20.017,Colour_Asymmetry_Pilot,2022.1.3,Win32,46.02144599,62bbe60bf3d75ef465d3e404,0,46,46,18,1,twoone,,,,,,,,,,,,,,,,,,,,,,,,,,,,,,,,,,,,,,,,,,,,,,,,,,,,,,,,,,,,,,,,,,,,,,,,,,,,,,,,,,,,,,,,,,,,,,,,,,,,,,,,,,,,,,,,,,,,,,,,,,,,,,,,,,,,,,,,,,,,,,,,,,,,,,,,
,,,,,,5e9774d2837b810ebe32666e,62bbfb3df06d34a04fe3a75c,2022-06-29_08h12.20.017,Colour_Asymmetry_Pilot,2022.1.3,Win32,46.02144599,62bbe60bf3d75ef465d3e404,0,47,47,36,1,threeone,,,,,,,,,,,,,,,,,,,,,,,,,,,,,,,,,,,,,,,,,,,,,,,,,,,,,,,,,,,,,,,,,,,,,,,,,,,,,,,,,,,,,,,,,,,,,,,,,,,,,,,,,,,,,,,,,,,,,,,,,,,,,,,,,,,,,,,,,,,,,,,,,,,,,,,,
,,,,,,5e9774d2837b810ebe32666e,62bbfb3df06d34a04fe3a75c,2022-06-29_08h12.20.017,Colour_Asymmetry_Pilot,2022.1.3,Win32,46.02144599,62bbe60bf3d75ef465d3e404,0,48,48,75,1,twofour,,,,,,,,,,,,,,,,,,,,,,,,,,,,,,,,,,,,,,,,,,,,,,,,,,,,,,,,,,,,,,,,,,,,,,,,,,,,,,,,,,,,,,,,,,,,,,,,,,,,,,,,,,,,,,,,,,,,,,,,,,,,,,,,,,,,,,,,,,,,,,,,,,,,,,,,
,,,,,,5e9774d2837b810ebe32666e,62bbfb3df06d34a04fe3a75c,2022-06-29_08h12.20.017,Colour_Asymmetry_Pilot,2022.1.3,Win32,46.02144599,62bbe60bf3d75ef465d3e404,0,49,49,19,1,twofour,,,,,,,,,,,,,,,,,,,,,,,,,,,,,,,,,,,,,,,,,,,,,,,,,,,,,,,,,,,,,,,,,,,,,,,,,,,,,,,,,,,,,,,,,,,,,,,,,,,,,,,,,,,,,,,,,,,,,,,,,,,,,,,,,,,,,,,,,,,,,,,,,,,,,,,,
,,,,,,5e9774d2837b810ebe32666e,62bbfb3df06d34a04fe3a75c,2022-06-29_08h12.20.017,Colour_Asymmetry_Pilot,2022.1.3,Win32,46.02144599,62bbe60bf3d75ef465d3e404,0,50,50,30,1,fourtwo,,,,,,,,,,,,,,,,,,,,,,,,,,,,,,,,,,,,,,,,,,,,,,,,,,,,,,,,,,,,,,,,,,,,,,,,,,,,,,,,,,,,,,,,,,,,,,,,,,,,,,,,,,,,,,,,,,,,,,,,,,,,,,,,,,,,,,,,,,,,,,,,,,,,,,,,
,,,,,,5e9774d2837b810ebe32666e,62bbfb3df06d34a04fe3a75c,2022-06-29_08h12.20.017,Colour_Asymmetry_Pilot,2022.1.3,Win32,46.02144599,62bbe60bf3d75ef465d3e404,0,51,51,143,1,fourthree,,,,,,,,,,,,,,,,,,,,,,,,,,,,,,,,,,,,,,,,,,,,,,,,,,,,,,,,,,,,,,,,,,,,,,,,,,,,,,,,,,,,,,,,,,,,,,,,,,,,,,,,,,,,,,,,,,,,,,,,,,,,,,,,,,,,,,,,,,,,,,,,,,,,,,,,
,,,,,,5e9774d2837b810ebe32666e,62bbfb3df06d34a04fe3a75c,2022-06-29_08h12.20.017,Colour_Asymmetry_Pilot,2022.1.3,Win32,46.02144599,62bbe60bf3d75ef465d3e404,0,52,52,66,1,twoone,,,,,,,,,,,,,,,,,,,,,,,,,,,,,,,,,,,,,,,,,,,,,,,,,,,,,,,,,,,,,,,,,,,,,,,,,,,,,,,,,,,,,,,,,,,,,,,,,,,,,,,,,,,,,,,,,,,,,,,,,,,,,,,,,,,,,,,,,,,,,,,,,,,,,,,,
,,,,,,5e9774d2837b810ebe32666e,62bbfb3df06d34a04fe3a75c,2022-06-29_08h12.20.017,Colour_Asymmetry_Pilot,2022.1.3,Win32,46.02144599,62bbe60bf3d75ef465d3e404,0,53,53,38,1,fourtwo,,,,,,,,,,,,,,,,,,,,,,,,,,,,,,,,,,,,,,,,,,,,,,,,,,,,,,,,,,,,,,,,,,,,,,,,,,,,,,,,,,,,,,,,,,,,,,,,,,,,,,,,,,,,,,,,,,,,,,,,,,,,,,,,,,,,,,,,,,,,,,,,,,,,,,,,
,,,,,,5e9774d2837b810ebe32666e,62bbfb3df06d34a04fe3a75c,2022-06-29_08h12.20.017,Colour_Asymmetry_Pilot,2022.1.3,Win32,46.02144599,62bbe60bf3d75ef465d3e404,0,54,54,53,1,threefour,,,,,,,,,,,,,,,,,,,,,,,,,,,,,,,,,,,,,,,,,,,,,,,,,,,,,,,,,,,,,,,,,,,,,,,,,,,,,,,,,,,,,,,,,,,,,,,,,,,,,,,,,,,,,,,,,,,,,,,,,,,,,,,,,,,,,,,,,,,,,,,,,,,,,,,,
,,,,,,5e9774d2837b810ebe32666e,62bbfb3df06d34a04fe3a75c,2022-06-29_08h12.20.017,Colour_Asymmetry_Pilot,2022.1.3,Win32,46.02144599,62bbe60bf3d75ef465d3e404,0,55,55,54,1,fourtwo,,,,,,,,,,,,,,,,,,,,,,,,,,,,,,,,,,,,,,,,,,,,,,,,,,,,,,,,,,,,,,,,,,,,,,,,,,,,,,,,,,,,,,,,,,,,,,,,,,,,,,,,,,,,,,,,,,,,,,,,,,,,,,,,,,,,,,,,,,,,,,,,,,,,,,,,
,,,,,,5e9774d2837b810ebe32666e,62bbfb3df06d34a04fe3a75c,2022-06-29_08h12.20.017,Colour_Asymmetry_Pilot,2022.1.3,Win32,46.02144599,62bbe60bf3d75ef465d3e404,0,56,56,28,1,threeone,,,,,,,,,,,,,,,,,,,,,,,,,,,,,,,,,,,,,,,,,,,,,,,,,,,,,,,,,,,,,,,,,,,,,,,,,,,,,,,,,,,,,,,,,,,,,,,,,,,,,,,,,,,,,,,,,,,,,,,,,,,,,,,,,,,,,,,,,,,,,,,,,,,,,,,,
,,,,,,5e9774d2837b810ebe32666e,62bbfb3df06d34a04fe3a75c,2022-06-29_08h12.20.017,Colour_Asymmetry_Pilot,2022.1.3,Win32,46.02144599,62bbe60bf3d75ef465d3e404,0,57,57,112,1,onetwo,,,,,,,,,,,,,,,,,,,,,,,,,,,,,,,,,,,,,,,,,,,,,,,,,,,,,,,,,,,,,,,,,,,,,,,,,,,,,,,,,,,,,,,,,,,,,,,,,,,,,,,,,,,,,,,,,,,,,,,,,,,,,,,,,,,,,,,,,,,,,,,,,,,,,,,,
,,,,,,5e9774d2837b810ebe32666e,62bbfb3df06d34a04fe3a75c,2022-06-29_08h12.20.017,Colour_Asymmetry_Pilot,2022.1.3,Win32,46.02144599,62bbe60bf3d75ef465d3e404,0,58,58,82,1,twoone,,,,,,,,,,,,,,,,,,,,,,,,,,,,,,,,,,,,,,,,,,,,,,,,,,,,,,,,,,,,,,,,,,,,,,,,,,,,,,,,,,,,,,,,,,,,,,,,,,,,,,,,,,,,,,,,,,,,,,,,,,,,,,,,,,,,,,,,,,,,,,,,,,,,,,,,
,,,,,,5e9774d2837b810ebe32666e,62bbfb3df06d34a04fe3a75c,2022-06-29_08h12.20.017,Colour_Asymmetry_Pilot,2022.1.3,Win32,46.02144599,62bbe60bf3d75ef465d3e404,0,59,59,149,1,threefour,,,,,,,,,,,,,,,,,,,,,,,,,,,,,,,,,,,,,,,,,,,,,,,,,,,,,,,,,,,,,,,,,,,,,,,,,,,,,,,,,,,,,,,,,,,,,,,,,,,,,,,,,,,,,,,,,,,,,,,,,,,,,,,,,,,,,,,,,,,,,,,,,,,,,,,,
,,,,,,5e9774d2837b810ebe32666e,62bbfb3df06d34a04fe3a75c,2022-06-29_08h12.20.017,Colour_Asymmetry_Pilot,2022.1.3,Win32,46.02144599,62bbe60bf3d75ef465d3e404,0,60,60,129,1,onethree,,,,,,,,,,,,,,,,,,,,,,,,,,,,,,,,,,,,,,,,,,,,,,,,,,,,,,,,,,,,,,,,,,,,,,,,,,,,,,,,,,,,,,,,,,,,,,,,,,,,,,,,,,,,,,,,,,,,,,,,,,,,,,,,,,,,,,,,,,,,,,,,,,,,,,,,
,,,,,,5e9774d2837b810ebe32666e,62bbfb3df06d34a04fe3a75c,2022-06-29_08h12.20.017,Colour_Asymmetry_Pilot,2022.1.3,Win32,46.02144599,62bbe60bf3d75ef465d3e404,0,61,61,52,1,threeone,,,,,,,,,,,,,,,,,,,,,,,,,,,,,,,,,,,,,,,,,,,,,,,,,,,,,,,,,,,,,,,,,,,,,,,,,,,,,,,,,,,,,,,,,,,,,,,,,,,,,,,,,,,,,,,,,,,,,,,,,,,,,,,,,,,,,,,,,,,,,,,,,,,,,,,,
,,,,,,5e9774d2837b810ebe32666e,62bbfb3df06d34a04fe3a75c,2022-06-29_08h12.20.017,Colour_Asymmetry_Pilot,2022.1.3,Win32,46.02144599,62bbe60bf3d75ef465d3e404,0,62,62,21,1,threefour,,,,,,,,,,,,,,,,,,,,,,,,,,,,,,,,,,,,,,,,,,,,,,,,,,,,,,,,,,,,,,,,,,,,,,,,,,,,,,,,,,,,,,,,,,,,,,,,,,,,,,,,,,,,,,,,,,,,,,,,,,,,,,,,,,,,,,,,,,,,,,,,,,,,,,,,
,,,,,,5e9774d2837b810ebe32666e,62bbfb3df06d34a04fe3a75c,2022-06-29_08h12.20.017,Colour_Asymmetry_Pilot,2022.1.3,Win32,46.02144599,62bbe60bf3d75ef465d3e404,0,63,63,116,1,threeone,,,,,,,,,,,,,,,,,,,,,,,,,,,,,,,,,,,,,,,,,,,,,,,,,,,,,,,,,,,,,,,,,,,,,,,,,,,,,,,,,,,,,,,,,,,,,,,,,,,,,,,,,,,,,,,,,,,,,,,,,,,,,,,,,,,,,,,,,,,,,,,,,,,,,,,,
,,,,,,5e9774d2837b810ebe32666e,62bbfb3df06d34a04fe3a75c,2022-06-29_08h12.20.017,Colour_Asymmetry_Pilot,2022.1.3,Win32,46.02144599,62bbe60bf3d75ef465d3e404,0,64,64,60,1,threeone,,,,,,,,,,,,,,,,,,,,,,,,,,,,,,,,,,,,,,,,,,,,,,,,,,,,,,,,,,,,,,,,,,,,,,,,,,,,,,,,,,,,,,,,,,,,,,,,,,,,,,,,,,,,,,,,,,,,,,,,,,,,,,,,,,,,,,,,,,,,,,,,,,,,,,,,
,,,,,,5e9774d2837b810ebe32666e,62bbfb3df06d34a04fe3a75c,2022-06-29_08h12.20.017,Colour_Asymmetry_Pilot,2022.1.3,Win32,46.02144599,62bbe60bf3d75ef465d3e404,0,65,65,160,1,onetwo,,,,,,,,,,,,,,,,,,,,,,,,,,,,,,,,,,,,,,,,,,,,,,,,,,,,,,,,,,,,,,,,,,,,,,,,,,,,,,,,,,,,,,,,,,,,,,,,,,,,,,,,,,,,,,,,,,,,,,,,,,,,,,,,,,,,,,,,,,,,,,,,,,,,,,,,
,,,,,,5e9774d2837b810ebe32666e,62bbfb3df06d34a04fe3a75c,2022-06-29_08h12.20.017,Colour_Asymmetry_Pilot,2022.1.3,Win32,46.02144599,62bbe60bf3d75ef465d3e404,0,66,66,95,1,fourthree,,,,,,,,,,,,,,,,,,,,,,,,,,,,,,,,,,,,,,,,,,,,,,,,,,,,,,,,,,,,,,,,,,,,,,,,,,,,,,,,,,,,,,,,,,,,,,,,,,,,,,,,,,,,,,,,,,,,,,,,,,,,,,,,,,,,,,,,,,,,,,,,,,,,,,,,
,,,,,,5e9774d2837b810ebe32666e,62bbfb3df06d34a04fe3a75c,2022-06-29_08h12.20.017,Colour_Asymmetry_Pilot,2022.1.3,Win32,46.02144599,62bbe60bf3d75ef465d3e404,0,67,67,44,1,threeone,,,,,,,,,,,,,,,,,,,,,,,,,,,,,,,,,,,,,,,,,,,,,,,,,,,,,,,,,,,,,,,,,,,,,,,,,,,,,,,,,,,,,,,,,,,,,,,,,,,,,,,,,,,,,,,,,,,,,,,,,,,,,,,,,,,,,,,,,,,,,,,,,,,,,,,,
,,,,,,5e9774d2837b810ebe32666e,62bbfb3df06d34a04fe3a75c,2022-06-29_08h12.20.017,Colour_Asymmetry_Pilot,2022.1.3,Win32,46.02144599,62bbe60bf3d75ef465d3e404,0,68,68,152,1,onetwo,,,,,,,,,,,,,,,,,,,,,,,,,,,,,,,,,,,,,,,,,,,,,,,,,,,,,,,,,,,,,,,,,,,,,,,,,,,,,,,,,,,,,,,,,,,,,,,,,,,,,,,,,,,,,,,,,,,,,,,,,,,,,,,,,,,,,,,,,,,,,,,,,,,,,,,,
,,,,,,5e9774d2837b810ebe32666e,62bbfb3df06d34a04fe3a75c,2022-06-29_08h12.20.017,Colour_Asymmetry_Pilot,2022.1.3,Win32,46.02144599,62bbe60bf3d75ef465d3e404,0,69,69,117,1,threefour,,,,,,,,,,,,,,,,,,,,,,,,,,,,,,,,,,,,,,,,,,,,,,,,,,,,,,,,,,,,,,,,,,,,,,,,,,,,,,,,,,,,,,,,,,,,,,,,,,,,,,,,,,,,,,,,,,,,,,,,,,,,,,,,,,,,,,,,,,,,,,,,,,,,,,,,
,,,,,,5e9774d2837b810ebe32666e,62bbfb3df06d34a04fe3a75c,2022-06-29_08h12.20.017,Colour_Asymmetry_Pilot,2022.1.3,Win32,46.02144599,62bbe60bf3d75ef465d3e404,0,70,70,161,1,onethree,,,,,,,,,,,,,,,,,,,,,,,,,,,,,,,,,,,,,,,,,,,,,,,,,,,,,,,,,,,,,,,,,,,,,,,,,,,,,,,,,,,,,,,,,,,,,,,,,,,,,,,,,,,,,,,,,,,,,,,,,,,,,,,,,,,,,,,,,,,,,,,,,,,,,,,,
,,,,,,5e9774d2837b810ebe32666e,62bbfb3df06d34a04fe3a75c,2022-06-29_08h12.20.017,Colour_Asymmetry_Pilot,2022.1.3,Win32,46.02144599,62bbe60bf3d75ef465d3e404,0,71,71,17,1,onethree,,,,,,,,,,,,,,,,,,,,,,,,,,,,,,,,,,,,,,,,,,,,,,,,,,,,,,,,,,,,,,,,,,,,,,,,,,,,,,,,,,,,,,,,,,,,,,,,,,,,,,,,,,,,,,,,,,,,,,,,,,,,,,,,,,,,,,,,,,,,,,,,,,,,,,,,
,,,,,,5e9774d2837b810ebe32666e,62bbfb3df06d34a04fe3a75c,2022-06-29_08h12.20.017,Colour_Asymmetry_Pilot,2022.1.3,Win32,46.02144599,62bbe60bf3d75ef465d3e404,0,72,72,5,1,threefour,,,,,,,,,,,,,,,,,,,,,,,,,,,,,,,,,,,,,,,,,,,,,,,,,,,,,,,,,,,,,,,,,,,,,,,,,,,,,,,,,,,,,,,,,,,,,,,,,,,,,,,,,,,,,,,,,,,,,,,,,,,,,,,,,,,,,,,,,,,,,,,,,,,,,,,,
,,,,,,5e9774d2837b810ebe32666e,62bbfb3df06d34a04fe3a75c,2022-06-29_08h12.20.017,Colour_Asymmetry_Pilot,2022.1.3,Win32,46.02144599,62bbe60bf3d75ef465d3e404,0,73,73,97,1,onethree,,,,,,,,,,,,,,,,,,,,,,,,,,,,,,,,,,,,,,,,,,,,,,,,,,,,,,,,,,,,,,,,,,,,,,,,,,,,,,,,,,,,,,,,,,,,,,,,,,,,,,,,,,,,,,,,,,,,,,,,,,,,,,,,,,,,,,,,,,,,,,,,,,,,,,,,
,,,,,,5e9774d2837b810ebe32666e,62bbfb3df06d34a04fe3a75c,2022-06-29_08h12.20.017,Colour_Asymmetry_Pilot,2022.1.3,Win32,46.02144599,62bbe60bf3d75ef465d3e404,0,74,74,35,1,twofour,,,,,,,,,,,,,,,,,,,,,,,,,,,,,,,,,,,,,,,,,,,,,,,,,,,,,,,,,,,,,,,,,,,,,,,,,,,,,,,,,,,,,,,,,,,,,,,,,,,,,,,,,,,,,,,,,,,,,,,,,,,,,,,,,,,,,,,,,,,,,,,,,,,,,,,,
,,,,,,5e9774d2837b810ebe32666e,62bbfb3df06d34a04fe3a75c,2022-06-29_08h12.20.017,Colour_Asymmetry_Pilot,2022.1.3,Win32,46.02144599,62bbe60bf3d75ef465d3e404,0,75,75,37,1,threefour,,,,,,,,,,,,,,,,,,,,,,,,,,,,,,,,,,,,,,,,,,,,,,,,,,,,,,,,,,,,,,,,,,,,,,,,,,,,,,,,,,,,,,,,,,,,,,,,,,,,,,,,,,,,,,,,,,,,,,,,,,,,,,,,,,,,,,,,,,,,,,,,,,,,,,,,
,,,,,,5e9774d2837b810ebe32666e,62bbfb3df06d34a04fe3a75c,2022-06-29_08h12.20.017,Colour_Asymmetry_Pilot,2022.1.3,Win32,46.02144599,62bbe60bf3d75ef465d3e404,0,76,76,80,1,onetwo,,,,,,,,,,,,,,,,,,,,,,,,,,,,,,,,,,,,,,,,,,,,,,,,,,,,,,,,,,,,,,,,,,,,,,,,,,,,,,,,,,,,,,,,,,,,,,,,,,,,,,,,,,,,,,,,,,,,,,,,,,,,,,,,,,,,,,,,,,,,,,,,,,,,,,,,
,,,,,,5e9774d2837b810ebe32666e,62bbfb3df06d34a04fe3a75c,2022-06-29_08h12.20.017,Colour_Asymmetry_Pilot,2022.1.3,Win32,46.02144599,62bbe60bf3d75ef465d3e404,0,77,77,144,1,onetwo,,,,,,,,,,,,,,,,,,,,,,,,,,,,,,,,,,,,,,,,,,,,,,,,,,,,,,,,,,,,,,,,,,,,,,,,,,,,,,,,,,,,,,,,,,,,,,,,,,,,,,,,,,,,,,,,,,,,,,,,,,,,,,,,,,,,,,,,,,,,,,,,,,,,,,,,
,,,,,,5e9774d2837b810ebe32666e,62bbfb3df06d34a04fe3a75c,2022-06-29_08h12.20.017,Colour_Asymmetry_Pilot,2022.1.3,Win32,46.02144599,62bbe60bf3d75ef465d3e404,0,78,78,96,1,onetwo,,,,,,,,,,,,,,,,,,,,,,,,,,,,,,,,,,,,,,,,,,,,,,,,,,,,,,,,,,,,,,,,,,,,,,,,,,,,,,,,,,,,,,,,,,,,,,,,,,,,,,,,,,,,,,,,,,,,,,,,,,,,,,,,,,,,,,,,,,,,,,,,,,,,,,,,
,,,,,,5e9774d2837b810ebe32666e,62bbfb3df06d34a04fe3a75c,2022-06-29_08h12.20.017,Colour_Asymmetry_Pilot,2022.1.3,Win32,46.02144599,62bbe60bf3d75ef465d3e404,0,79,79,64,1,onetwo,,,,,,,,,,,,,,,,,,,,,,,,,,,,,,,,,,,,,,,,,,,,,,,,,,,,,,,,,,,,,,,,,,,,,,,,,,,,,,,,,,,,,,,,,,,,,,,,,,,,,,,,,,,,,,,,,,,,,,,,,,,,,,,,,,,,,,,,,,,,,,,,,,,,,,,,
,,,,,,5e9774d2837b810ebe32666e,62bbfb3df06d34a04fe3a75c,2022-06-29_08h12.20.017,Colour_Asymmetry_Pilot,2022.1.3,Win32,46.02144599,62bbe60bf3d75ef465d3e404,0,80,80,70,1,fourtwo,,,,,,,,,,,,,,,,,,,,,,,,,,,,,,,,,,,,,,,,,,,,,,,,,,,,,,,,,,,,,,,,,,,,,,,,,,,,,,,,,,,,,,,,,,,,,,,,,,,,,,,,,,,,,,,,,,,,,,,,,,,,,,,,,,,,,,,,,,,,,,,,,,,,,,,,
,,,,,,5e9774d2837b810ebe32666e,62bbfb3df06d34a04fe3a75c,2022-06-29_08h12.20.017,Colour_Asymmetry_Pilot,2022.1.3,Win32,46.02144599,62bbe60bf3d75ef465d3e404,0,81,81,71,1,fourthree,,,,,,,,,,,,,,,,,,,,,,,,,,,,,,,,,,,,,,,,,,,,,,,,,,,,,,,,,,,,,,,,,,,,,,,,,,,,,,,,,,,,,,,,,,,,,,,,,,,,,,,,,,,,,,,,,,,,,,,,,,,,,,,,,,,,,,,,,,,,,,,,,,,,,,,,
,,,,,,5e9774d2837b810ebe32666e,62bbfb3df06d34a04fe3a75c,2022-06-29_08h12.20.017,Colour_Asymmetry_Pilot,2022.1.3,Win32,46.02144599,62bbe60bf3d75ef465d3e404,0,82,82,12,1,threeone,,,,,,,,,,,,,,,,,,,,,,,,,,,,,,,,,,,,,,,,,,,,,,,,,,,,,,,,,,,,,,,,,,,,,,,,,,,,,,,,,,,,,,,,,,,,,,,,,,,,,,,,,,,,,,,,,,,,,,,,,,,,,,,,,,,,,,,,,,,,,,,,,,,,,,,,
,,,,,,5e9774d2837b810ebe32666e,62bbfb3df06d34a04fe3a75c,2022-06-29_08h12.20.017,Colour_Asymmetry_Pilot,2022.1.3,Win32,46.02144599,62bbe60bf3d75ef465d3e404,0,83,83,11,1,twofour,,,,,,,,,,,,,,,,,,,,,,,,,,,,,,,,,,,,,,,,,,,,,,,,,,,,,,,,,,,,,,,,,,,,,,,,,,,,,,,,,,,,,,,,,,,,,,,,,,,,,,,,,,,,,,,,,,,,,,,,,,,,,,,,,,,,,,,,,,,,,,,,,,,,,,,,
,,,,,,5e9774d2837b810ebe32666e,62bbfb3df06d34a04fe3a75c,2022-06-29_08h12.20.017,Colour_Asymmetry_Pilot,2022.1.3,Win32,46.02144599,62bbe60bf3d75ef465d3e404,0,84,84,83,1,twofour,,,,,,,,,,,,,,,,,,,,,,,,,,,,,,,,,,,,,,,,,,,,,,,,,,,,,,,,,,,,,,,,,,,,,,,,,,,,,,,,,,,,,,,,,,,,,,,,,,,,,,,,,,,,,,,,,,,,,,,,,,,,,,,,,,,,,,,,,,,,,,,,,,,,,,,,
,,,,,,5e9774d2837b810ebe32666e,62bbfb3df06d34a04fe3a75c,2022-06-29_08h12.20.017,Colour_Asymmetry_Pilot,2022.1.3,Win32,46.02144599,62bbe60bf3d75ef465d3e404,0,85,85,92,1,threeone,,,,,,,,,,,,,,,,,,,,,,,,,,,,,,,,,,,,,,,,,,,,,,,,,,,,,,,,,,,,,,,,,,,,,,,,,,,,,,,,,,,,,,,,,,,,,,,,,,,,,,,,,,,,,,,,,,,,,,,,,,,,,,,,,,,,,,,,,,,,,,,,,,,,,,,,
,,,,,,5e9774d2837b810ebe32666e,62bbfb3df06d34a04fe3a75c,2022-06-29_08h12.20.017,Colour_Asymmetry_Pilot,2022.1.3,Win32,46.02144599,62bbe60bf3d75ef465d3e404,0,86,86,101,1,threefour,,,,,,,,,,,,,,,,,,,,,,,,,,,,,,,,,,,,,,,,,,,,,,,,,,,,,,,,,,,,,,,,,,,,,,,,,,,,,,,,,,,,,,,,,,,,,,,,,,,,,,,,,,,,,,,,,,,,,,,,,,,,,,,,,,,,,,,,,,,,,,,,,,,,,,,,
,,,,,,5e9774d2837b810ebe32666e,62bbfb3df06d34a04fe3a75c,2022-06-29_08h12.20.017,Colour_Asymmetry_Pilot,2022.1.3,Win32,46.02144599,62bbe60bf3d75ef465d3e404,0,87,87,33,1,onethree,,,,,,,,,,,,,,,,,,,,,,,,,,,,,,,,,,,,,,,,,,,,,,,,,,,,,,,,,,,,,,,,,,,,,,,,,,,,,,,,,,,,,,,,,,,,,,,,,,,,,,,,,,,,,,,,,,,,,,,,,,,,,,,,,,,,,,,,,,,,,,,,,,,,,,,,
,,,,,,5e9774d2837b810ebe32666e,62bbfb3df06d34a04fe3a75c,2022-06-29_08h12.20.017,Colour_Asymmetry_Pilot,2022.1.3,Win32,46.02144599,62bbe60bf3d75ef465d3e404,0,88,88,130,1,twoone,,,,,,,,,,,,,,,,,,,,,,,,,,,,,,,,,,,,,,,,,,,,,,,,,,,,,,,,,,,,,,,,,,,,,,,,,,,,,,,,,,,,,,,,,,,,,,,,,,,,,,,,,,,,,,,,,,,,,,,,,,,,,,,,,,,,,,,,,,,,,,,,,,,,,,,,
,,,,,,5e9774d2837b810ebe32666e,62bbfb3df06d34a04fe3a75c,2022-06-29_08h12.20.017,Colour_Asymmetry_Pilot,2022.1.3,Win32,46.02144599,62bbe60bf3d75ef465d3e404,0,89,89,8,1,onetwo,,,,,,,,,,,,,,,,,,,,,,,,,,,,,,,,,,,,,,,,,,,,,,,,,,,,,,,,,,,,,,,,,,,,,,,,,,,,,,,,,,,,,,,,,,,,,,,,,,,,,,,,,,,,,,,,,,,,,,,,,,,,,,,,,,,,,,,,,,,,,,,,,,,,,,,,
,,,,,,5e9774d2837b810ebe32666e,62bbfb3df06d34a04fe3a75c,2022-06-29_08h12.20.017,Colour_Asymmetry_Pilot,2022.1.3,Win32,46.02144599,62bbe60bf3d75ef465d3e404,0,90,90,49,1,onethree,,,,,,,,,,,,,,,,,,,,,,,,,,,,,,,,,,,,,,,,,,,,,,,,,,,,,,,,,,,,,,,,,,,,,,,,,,,,,,,,,,,,,,,,,,,,,,,,,,,,,,,,,,,,,,,,,,,,,,,,,,,,,,,,,,,,,,,,,,,,,,,,,,,,,,,,
,,,,,,5e9774d2837b810ebe32666e,62bbfb3df06d34a04fe3a75c,2022-06-29_08h12.20.017,Colour_Asymmetry_Pilot,2022.1.3,Win32,46.02144599,62bbe60bf3d75ef465d3e404,0,91,91,103,1,fourthree,,,,,,,,,,,,,,,,,,,,,,,,,,,,,,,,,,,,,,,,,,,,,,,,,,,,,,,,,,,,,,,,,,,,,,,,,,,,,,,,,,,,,,,,,,,,,,,,,,,,,,,,,,,,,,,,,,,,,,,,,,,,,,,,,,,,,,,,,,,,,,,,,,,,,,,,
,,,,,,5e9774d2837b810ebe32666e,62bbfb3df06d34a04fe3a75c,2022-06-29_08h12.20.017,Colour_Asymmetry_Pilot,2022.1.3,Win32,46.02144599,62bbe60bf3d75ef465d3e404,0,92,92,42,1,twoone,,,,,,,,,,,,,,,,,,,,,,,,,,,,,,,,,,,,,,,,,,,,,,,,,,,,,,,,,,,,,,,,,,,,,,,,,,,,,,,,,,,,,,,,,,,,,,,,,,,,,,,,,,,,,,,,,,,,,,,,,,,,,,,,,,,,,,,,,,,,,,,,,,,,,,,,
,,,,,,5e9774d2837b810ebe32666e,62bbfb3df06d34a04fe3a75c,2022-06-29_08h12.20.017,Colour_Asymmetry_Pilot,2022.1.3,Win32,46.02144599,62bbe60bf3d75ef465d3e404,0,93,93,59,1,twofour,,,,,,,,,,,,,,,,,,,,,,,,,,,,,,,,,,,,,,,,,,,,,,,,,,,,,,,,,,,,,,,,,,,,,,,,,,,,,,,,,,,,,,,,,,,,,,,,,,,,,,,,,,,,,,,,,,,,,,,,,,,,,,,,,,,,,,,,,,,,,,,,,,,,,,,,
,,,,,,5e9774d2837b810ebe32666e,62bbfb3df06d34a04fe3a75c,2022-06-29_08h12.20.017,Colour_Asymmetry_Pilot,2022.1.3,Win32,46.02144599,62bbe60bf3d75ef465d3e404,0,94,94,135,1,fourthree,,,,,,,,,,,,,,,,,,,,,,,,,,,,,,,,,,,,,,,,,,,,,,,,,,,,,,,,,,,,,,,,,,,,,,,,,,,,,,,,,,,,,,,,,,,,,,,,,,,,,,,,,,,,,,,,,,,,,,,,,,,,,,,,,,,,,,,,,,,,,,,,,,,,,,,,
,,,,,,5e9774d2837b810ebe32666e,62bbfb3df06d34a04fe3a75c,2022-06-29_08h12.20.017,Colour_Asymmetry_Pilot,2022.1.3,Win32,46.02144599,62bbe60bf3d75ef465d3e404,0,95,95,118,1,fourtwo,,,,,,,,,,,,,,,,,,,,,,,,,,,,,,,,,,,,,,,,,,,,,,,,,,,,,,,,,,,,,,,,,,,,,,,,,,,,,,,,,,,,,,,,,,,,,,,,,,,,,,,,,,,,,,,,,,,,,,,,,,,,,,,,,,,,,,,,,,,,,,,,,,,,,,,,
,,,,,,5e9774d2837b810ebe32666e,62bbfb3df06d34a04fe3a75c,2022-06-29_08h12.20.017,Colour_Asymmetry_Pilot,2022.1.3,Win32,46.02144599,62bbe60bf3d75ef465d3e404,0,96,96,124,1,threeone,,,,,,,,,,,,,,,,,,,,,,,,,,,,,,,,,,,,,,,,,,,,,,,,,,,,,,,,,,,,,,,,,,,,,,,,,,,,,,,,,,,,,,,,,,,,,,,,,,,,,,,,,,,,,,,,,,,,,,,,,,,,,,,,,,,,,,,,,,,,,,,,,,,,,,,,
,,,,,,5e9774d2837b810ebe32666e,62bbfb3df06d34a04fe3a75c,2022-06-29_08h12.20.017,Colour_Asymmetry_Pilot,2022.1.3,Win32,46.02144599,62bbe60bf3d75ef465d3e404,0,97,97,137,1,onethree,,,,,,,,,,,,,,,,,,,,,,,,,,,,,,,,,,,,,,,,,,,,,,,,,,,,,,,,,,,,,,,,,,,,,,,,,,,,,,,,,,,,,,,,,,,,,,,,,,,,,,,,,,,,,,,,,,,,,,,,,,,,,,,,,,,,,,,,,,,,,,,,,,,,,,,,
,,,,,,5e9774d2837b810ebe32666e,62bbfb3df06d34a04fe3a75c,2022-06-29_08h12.20.017,Colour_Asymmetry_Pilot,2022.1.3,Win32,46.02144599,62bbe60bf3d75ef465d3e404,0,98,98,119,1,fourthree,,,,,,,,,,,,,,,,,,,,,,,,,,,,,,,,,,,,,,,,,,,,,,,,,,,,,,,,,,,,,,,,,,,,,,,,,,,,,,,,,,,,,,,,,,,,,,,,,,,,,,,,,,,,,,,,,,,,,,,,,,,,,,,,,,,,,,,,,,,,,,,,,,,,,,,,
,,,,,,5e9774d2837b810ebe32666e,62bbfb3df06d34a04fe3a75c,2022-06-29_08h12.20.017,Colour_Asymmetry_Pilot,2022.1.3,Win32,46.02144599,62bbe60bf3d75ef465d3e404,0,99,99,39,1,fourthree,,,,,,,,,,,,,,,,,,,,,,,,,,,,,,,,,,,,,,,,,,,,,,,,,,,,,,,,,,,,,,,,,,,,,,,,,,,,,,,,,,,,,,,,,,,,,,,,,,,,,,,,,,,,,,,,,,,,,,,,,,,,,,,,,,,,,,,,,,,,,,,,,,,,,,,,
,,,,,,5e9774d2837b810ebe32666e,62bbfb3df06d34a04fe3a75c,2022-06-29_08h12.20.017,Colour_Asymmetry_Pilot,2022.1.3,Win32,46.02144599,62bbe60bf3d75ef465d3e404,0,100,100,7,1,fourthree,,,,,,,,,,,,,,,,,,,,,,,,,,,,,,,,,,,,,,,,,,,,,,,,,,,,,,,,,,,,,,,,,,,,,,,,,,,,,,,,,,,,,,,,,,,,,,,,,,,,,,,,,,,,,,,,,,,,,,,,,,,,,,,,,,,,,,,,,,,,,,,,,,,,,,,,
,,,,,,5e9774d2837b810ebe32666e,62bbfb3df06d34a04fe3a75c,2022-06-29_08h12.20.017,Colour_Asymmetry_Pilot,2022.1.3,Win32,46.02144599,62bbe60bf3d75ef465d3e404,0,101,101,16,1,onetwo,,,,,,,,,,,,,,,,,,,,,,,,,,,,,,,,,,,,,,,,,,,,,,,,,,,,,,,,,,,,,,,,,,,,,,,,,,,,,,,,,,,,,,,,,,,,,,,,,,,,,,,,,,,,,,,,,,,,,,,,,,,,,,,,,,,,,,,,,,,,,,,,,,,,,,,,
,,,,,,5e9774d2837b810ebe32666e,62bbfb3df06d34a04fe3a75c,2022-06-29_08h12.20.017,Colour_Asymmetry_Pilot,2022.1.3,Win32,46.02144599,62bbe60bf3d75ef465d3e404,0,102,102,79,1,fourthree,,,,,,,,,,,,,,,,,,,,,,,,,,,,,,,,,,,,,,,,,,,,,,,,,,,,,,,,,,,,,,,,,,,,,,,,,,,,,,,,,,,,,,,,,,,,,,,,,,,,,,,,,,,,,,,,,,,,,,,,,,,,,,,,,,,,,,,,,,,,,,,,,,,,,,,,
,,,,,,5e9774d2837b810ebe32666e,62bbfb3df06d34a04fe3a75c,2022-06-29_08h12.20.017,Colour_Asymmetry_Pilot,2022.1.3,Win32,46.02144599,62bbe60bf3d75ef465d3e404,0,103,103,142,1,fourtwo,,,,,,,,,,,,,,,,,,,,,,,,,,,,,,,,,,,,,,,,,,,,,,,,,,,,,,,,,,,,,,,,,,,,,,,,,,,,,,,,,,,,,,,,,,,,,,,,,,,,,,,,,,,,,,,,,,,,,,,,,,,,,,,,,,,,,,,,,,,,,,,,,,,,,,,,
,,,,,,5e9774d2837b810ebe32666e,62bbfb3df06d34a04fe3a75c,2022-06-29_08h12.20.017,Colour_Asymmetry_Pilot,2022.1.3,Win32,46.02144599,62bbe60bf3d75ef465d3e404,0,104,104,57,1,onethree,,,,,,,,,,,,,,,,,,,,,,,,,,,,,,,,,,,,,,,,,,,,,,,,,,,,,,,,,,,,,,,,,,,,,,,,,,,,,,,,,,,,,,,,,,,,,,,,,,,,,,,,,,,,,,,,,,,,,,,,,,,,,,,,,,,,,,,,,,,,,,,,,,,,,,,,
,,,,,,5e9774d2837b810ebe32666e,62bbfb3df06d34a04fe3a75c,2022-06-29_08h12.20.017,Colour_Asymmetry_Pilot,2022.1.3,Win32,46.02144599,62bbe60bf3d75ef465d3e404,0,105,105,114,1,twoone,,,,,,,,,,,,,,,,,,,,,,,,,,,,,,,,,,,,,,,,,,,,,,,,,,,,,,,,,,,,,,,,,,,,,,,,,,,,,,,,,,,,,,,,,,,,,,,,,,,,,,,,,,,,,,,,,,,,,,,,,,,,,,,,,,,,,,,,,,,,,,,,,,,,,,,,
,,,,,,5e9774d2837b810ebe32666e,62bbfb3df06d34a04fe3a75c,2022-06-29_08h12.20.017,Colour_Asymmetry_Pilot,2022.1.3,Win32,46.02144599,62bbe60bf3d75ef465d3e404,0,106,106,126,1,fourtwo,,,,,,,,,,,,,,,,,,,,,,,,,,,,,,,,,,,,,,,,,,,,,,,,,,,,,,,,,,,,,,,,,,,,,,,,,,,,,,,,,,,,,,,,,,,,,,,,,,,,,,,,,,,,,,,,,,,,,,,,,,,,,,,,,,,,,,,,,,,,,,,,,,,,,,,,
,,,,,,5e9774d2837b810ebe32666e,62bbfb3df06d34a04fe3a75c,2022-06-29_08h12.20.017,Colour_Asymmetry_Pilot,2022.1.3,Win32,46.02144599,62bbe60bf3d75ef465d3e404,0,107,107,157,1,threefour,,,,,,,,,,,,,,,,,,,,,,,,,,,,,,,,,,,,,,,,,,,,,,,,,,,,,,,,,,,,,,,,,,,,,,,,,,,,,,,,,,,,,,,,,,,,,,,,,,,,,,,,,,,,,,,,,,,,,,,,,,,,,,,,,,,,,,,,,,,,,,,,,,,,,,,,
,,,,,,5e9774d2837b810ebe32666e,62bbfb3df06d34a04fe3a75c,2022-06-29_08h12.20.017,Colour_Asymmetry_Pilot,2022.1.3,Win32,46.02144599,62bbe60bf3d75ef465d3e404,0,108,108,147,1,twofour,,,,,,,,,,,,,,,,,,,,,,,,,,,,,,,,,,,,,,,,,,,,,,,,,,,,,,,,,,,,,,,,,,,,,,,,,,,,,,,,,,,,,,,,,,,,,,,,,,,,,,,,,,,,,,,,,,,,,,,,,,,,,,,,,,,,,,,,,,,,,,,,,,,,,,,,
,,,,,,5e9774d2837b810ebe32666e,62bbfb3df06d34a04fe3a75c,2022-06-29_08h12.20.017,Colour_Asymmetry_Pilot,2022.1.3,Win32,46.02144599,62bbe60bf3d75ef465d3e404,0,109,109,122,1,twoone,,,,,,,,,,,,,,,,,,,,,,,,,,,,,,,,,,,,,,,,,,,,,,,,,,,,,,,,,,,,,,,,,,,,,,,,,,,,,,,,,,,,,,,,,,,,,,,,,,,,,,,,,,,,,,,,,,,,,,,,,,,,,,,,,,,,,,,,,,,,,,,,,,,,,,,,
,,,,,,5e9774d2837b810ebe32666e,62bbfb3df06d34a04fe3a75c,2022-06-29_08h12.20.017,Colour_Asymmetry_Pilot,2022.1.3,Win32,46.02144599,62bbe60bf3d75ef465d3e404,0,110,110,22,1,fourtwo,,,,,,,,,,,,,,,,,,,,,,,,,,,,,,,,,,,,,,,,,,,,,,,,,,,,,,,,,,,,,,,,,,,,,,,,,,,,,,,,,,,,,,,,,,,,,,,,,,,,,,,,,,,,,,,,,,,,,,,,,,,,,,,,,,,,,,,,,,,,,,,,,,,,,,,,
,,,,,,5e9774d2837b810ebe32666e,62bbfb3df06d34a04fe3a75c,2022-06-29_08h12.20.017,Colour_Asymmetry_Pilot,2022.1.3,Win32,46.02144599,62bbe60bf3d75ef465d3e404,0,111,111,148,1,threeone,,,,,,,,,,,,,,,,,,,,,,,,,,,,,,,,,,,,,,,,,,,,,,,,,,,,,,,,,,,,,,,,,,,,,,,,,,,,,,,,,,,,,,,,,,,,,,,,,,,,,,,,,,,,,,,,,,,,,,,,,,,,,,,,,,,,,,,,,,,,,,,,,,,,,,,,
,,,,,,5e9774d2837b810ebe32666e,62bbfb3df06d34a04fe3a75c,2022-06-29_08h12.20.017,Colour_Asymmetry_Pilot,2022.1.3,Win32,46.02144599,62bbe60bf3d75ef465d3e404,0,112,112,132,1,threeone,,,,,,,,,,,,,,,,,,,,,,,,,,,,,,,,,,,,,,,,,,,,,,,,,,,,,,,,,,,,,,,,,,,,,,,,,,,,,,,,,,,,,,,,,,,,,,,,,,,,,,,,,,,,,,,,,,,,,,,,,,,,,,,,,,,,,,,,,,,,,,,,,,,,,,,,
,,,,,,5e9774d2837b810ebe32666e,62bbfb3df06d34a04fe3a75c,2022-06-29_08h12.20.017,Colour_Asymmetry_Pilot,2022.1.3,Win32,46.02144599,62bbe60bf3d75ef465d3e404,0,113,113,55,1,fourthree,,,,,,,,,,,,,,,,,,,,,,,,,,,,,,,,,,,,,,,,,,,,,,,,,,,,,,,,,,,,,,,,,,,,,,,,,,,,,,,,,,,,,,,,,,,,,,,,,,,,,,,,,,,,,,,,,,,,,,,,,,,,,,,,,,,,,,,,,,,,,,,,,,,,,,,,
,,,,,,5e9774d2837b810ebe32666e,62bbfb3df06d34a04fe3a75c,2022-06-29_08h12.20.017,Colour_Asymmetry_Pilot,2022.1.3,Win32,46.02144599,62bbe60bf3d75ef465d3e404,0,114,114,88,1,onetwo,,,,,,,,,,,,,,,,,,,,,,,,,,,,,,,,,,,,,,,,,,,,,,,,,,,,,,,,,,,,,,,,,,,,,,,,,,,,,,,,,,,,,,,,,,,,,,,,,,,,,,,,,,,,,,,,,,,,,,,,,,,,,,,,,,,,,,,,,,,,,,,,,,,,,,,,
,,,,,,5e9774d2837b810ebe32666e,62bbfb3df06d34a04fe3a75c,2022-06-29_08h12.20.017,Colour_Asymmetry_Pilot,2022.1.3,Win32,46.02144599,62bbe60bf3d75ef465d3e404,0,115,115,27,1,twofour,,,,,,,,,,,,,,,,,,,,,,,,,,,,,,,,,,,,,,,,,,,,,,,,,,,,,,,,,,,,,,,,,,,,,,,,,,,,,,,,,,,,,,,,,,,,,,,,,,,,,,,,,,,,,,,,,,,,,,,,,,,,,,,,,,,,,,,,,,,,,,,,,,,,,,,,
,,,,,,5e9774d2837b810ebe32666e,62bbfb3df06d34a04fe3a75c,2022-06-29_08h12.20.017,Colour_Asymmetry_Pilot,2022.1.3,Win32,46.02144599,62bbe60bf3d75ef465d3e404,0,116,116,26,1,twoone,,,,,,,,,,,,,,,,,,,,,,,,,,,,,,,,,,,,,,,,,,,,,,,,,,,,,,,,,,,,,,,,,,,,,,,,,,,,,,,,,,,,,,,,,,,,,,,,,,,,,,,,,,,,,,,,,,,,,,,,,,,,,,,,,,,,,,,,,,,,,,,,,,,,,,,,
,,,,,,5e9774d2837b810ebe32666e,62bbfb3df06d34a04fe3a75c,2022-06-29_08h12.20.017,Colour_Asymmetry_Pilot,2022.1.3,Win32,46.02144599,62bbe60bf3d75ef465d3e404,0,117,117,9,1,onethree,,,,,,,,,,,,,,,,,,,,,,,,,,,,,,,,,,,,,,,,,,,,,,,,,,,,,,,,,,,,,,,,,,,,,,,,,,,,,,,,,,,,,,,,,,,,,,,,,,,,,,,,,,,,,,,,,,,,,,,,,,,,,,,,,,,,,,,,,,,,,,,,,,,,,,,,
,,,,,,5e9774d2837b810ebe32666e,62bbfb3df06d34a04fe3a75c,2022-06-29_08h12.20.017,Colour_Asymmetry_Pilot,2022.1.3,Win32,46.02144599,62bbe60bf3d75ef465d3e404,0,118,118,2,1,twoone,,,,,,,,,,,,,,,,,,,,,,,,,,,,,,,,,,,,,,,,,,,,,,,,,,,,,,,,,,,,,,,,,,,,,,,,,,,,,,,,,,,,,,,,,,,,,,,,,,,,,,,,,,,,,,,,,,,,,,,,,,,,,,,,,,,,,,,,,,,,,,,,,,,,,,,,
,,,,,,5e9774d2837b810ebe32666e,62bbfb3df06d34a04fe3a75c,2022-06-29_08h12.20.017,Colour_Asymmetry_Pilot,2022.1.3,Win32,46.02144599,62bbe60bf3d75ef465d3e404,0,119,119,41,1,onethree,,,,,,,,,,,,,,,,,,,,,,,,,,,,,,,,,,,,,,,,,,,,,,,,,,,,,,,,,,,,,,,,,,,,,,,,,,,,,,,,,,,,,,,,,,,,,,,,,,,,,,,,,,,,,,,,,,,,,,,,,,,,,,,,,,,,,,,,,,,,,,,,,,,,,,,,
,,,,,,5e9774d2837b810ebe32666e,62bbfb3df06d34a04fe3a75c,2022-06-29_08h12.20.017,Colour_Asymmetry_Pilot,2022.1.3,Win32,46.02144599,62bbe60bf3d75ef465d3e404,0,120,120,47,1,fourthree,,,,,,,,,,,,,,,,,,,,,,,,,,,,,,,,,,,,,,,,,,,,,,,,,,,,,,,,,,,,,,,,,,,,,,,,,,,,,,,,,,,,,,,,,,,,,,,,,,,,,,,,,,,,,,,,,,,,,,,,,,,,,,,,,,,,,,,,,,,,,,,,,,,,,,,,
,,,,,,5e9774d2837b810ebe32666e,62bbfb3df06d34a04fe3a75c,2022-06-29_08h12.20.017,Colour_Asymmetry_Pilot,2022.1.3,Win32,46.02144599,62bbe60bf3d75ef465d3e404,0,121,121,24,1,onetwo,,,,,,,,,,,,,,,,,,,,,,,,,,,,,,,,,,,,,,,,,,,,,,,,,,,,,,,,,,,,,,,,,,,,,,,,,,,,,,,,,,,,,,,,,,,,,,,,,,,,,,,,,,,,,,,,,,,,,,,,,,,,,,,,,,,,,,,,,,,,,,,,,,,,,,,,
,,,,,,5e9774d2837b810ebe32666e,62bbfb3df06d34a04fe3a75c,2022-06-29_08h12.20.017,Colour_Asymmetry_Pilot,2022.1.3,Win32,46.02144599,62bbe60bf3d75ef465d3e404,0,122,122,10,1,twoone,,,,,,,,,,,,,,,,,,,,,,,,,,,,,,,,,,,,,,,,,,,,,,,,,,,,,,,,,,,,,,,,,,,,,,,,,,,,,,,,,,,,,,,,,,,,,,,,,,,,,,,,,,,,,,,,,,,,,,,,,,,,,,,,,,,,,,,,,,,,,,,,,,,,,,,,
,,,,,,5e9774d2837b810ebe32666e,62bbfb3df06d34a04fe3a75c,2022-06-29_08h12.20.017,Colour_Asymmetry_Pilot,2022.1.3,Win32,46.02144599,62bbe60bf3d75ef465d3e404,0,123,123,1,1,onethree,,,,,,,,,,,,,,,,,,,,,,,,,,,,,,,,,,,,,,,,,,,,,,,,,,,,,,,,,,,,,,,,,,,,,,,,,,,,,,,,,,,,,,,,,,,,,,,,,,,,,,,,,,,,,,,,,,,,,,,,,,,,,,,,,,,,,,,,,,,,,,,,,,,,,,,,
,,,,,,5e9774d2837b810ebe32666e,62bbfb3df06d34a04fe3a75c,2022-06-29_08h12.20.017,Colour_Asymmetry_Pilot,2022.1.3,Win32,46.02144599,62bbe60bf3d75ef465d3e404,0,124,124,51,1,twofour,,,,,,,,,,,,,,,,,,,,,,,,,,,,,,,,,,,,,,,,,,,,,,,,,,,,,,,,,,,,,,,,,,,,,,,,,,,,,,,,,,,,,,,,,,,,,,,,,,,,,,,,,,,,,,,,,,,,,,,,,,,,,,,,,,,,,,,,,,,,,,,,,,,,,,,,
,,,,,,5e9774d2837b810ebe32666e,62bbfb3df06d34a04fe3a75c,2022-06-29_08h12.20.017,Colour_Asymmetry_Pilot,2022.1.3,Win32,46.02144599,62bbe60bf3d75ef465d3e404,0,125,125,84,1,threeone,,,,,,,,,,,,,,,,,,,,,,,,,,,,,,,,,,,,,,,,,,,,,,,,,,,,,,,,,,,,,,,,,,,,,,,,,,,,,,,,,,,,,,,,,,,,,,,,,,,,,,,,,,,,,,,,,,,,,,,,,,,,,,,,,,,,,,,,,,,,,,,,,,,,,,,,
,,,,,,5e9774d2837b810ebe32666e,62bbfb3df06d34a04fe3a75c,2022-06-29_08h12.20.017,Colour_Asymmetry_Pilot,2022.1.3,Win32,46.02144599,62bbe60bf3d75ef465d3e404,0,126,126,67,1,twofour,,,,,,,,,,,,,,,,,,,,,,,,,,,,,,,,,,,,,,,,,,,,,,,,,,,,,,,,,,,,,,,,,,,,,,,,,,,,,,,,,,,,,,,,,,,,,,,,,,,,,,,,,,,,,,,,,,,,,,,,,,,,,,,,,,,,,,,,,,,,,,,,,,,,,,,,
,,,,,,5e9774d2837b810ebe32666e,62bbfb3df06d34a04fe3a75c,2022-06-29_08h12.20.017,Colour_Asymmetry_Pilot,2022.1.3,Win32,46.02144599,62bbe60bf3d75ef465d3e404,0,127,127,90,1,twoone,,,,,,,,,,,,,,,,,,,,,,,,,,,,,,,,,,,,,,,,,,,,,,,,,,,,,,,,,,,,,,,,,,,,,,,,,,,,,,,,,,,,,,,,,,,,,,,,,,,,,,,,,,,,,,,,,,,,,,,,,,,,,,,,,,,,,,,,,,,,,,,,,,,,,,,,
,,,,,,5e9774d2837b810ebe32666e,62bbfb3df06d34a04fe3a75c,2022-06-29_08h12.20.017,Colour_Asymmetry_Pilot,2022.1.3,Win32,46.02144599,62bbe60bf3d75ef465d3e404,0,128,128,102,1,fourtwo,,,,,,,,,,,,,,,,,,,,,,,,,,,,,,,,,,,,,,,,,,,,,,,,,,,,,,,,,,,,,,,,,,,,,,,,,,,,,,,,,,,,,,,,,,,,,,,,,,,,,,,,,,,,,,,,,,,,,,,,,,,,,,,,,,,,,,,,,,,,,,,,,,,,,,,,
,,,,,,5e9774d2837b810ebe32666e,62bbfb3df06d34a04fe3a75c,2022-06-29_08h12.20.017,Colour_Asymmetry_Pilot,2022.1.3,Win32,46.02144599,62bbe60bf3d75ef465d3e404,0,129,129,145,1,onethree,,,,,,,,,,,,,,,,,,,,,,,,,,,,,,,,,,,,,,,,,,,,,,,,,,,,,,,,,,,,,,,,,,,,,,,,,,,,,,,,,,,,,,,,,,,,,,,,,,,,,,,,,,,,,,,,,,,,,,,,,,,,,,,,,,,,,,,,,,,,,,,,,,,,,,,,
,,,,,,5e9774d2837b810ebe32666e,62bbfb3df06d34a04fe3a75c,2022-06-29_08h12.20.017,Colour_Asymmetry_Pilot,2022.1.3,Win32,46.02144599,62bbe60bf3d75ef465d3e404,0,130,130,46,1,fourtwo,,,,,,,,,,,,,,,,,,,,,,,,,,,,,,,,,,,,,,,,,,,,,,,,,,,,,,,,,,,,,,,,,,,,,,,,,,,,,,,,,,,,,,,,,,,,,,,,,,,,,,,,,,,,,,,,,,,,,,,,,,,,,,,,,,,,,,,,,,,,,,,,,,,,,,,,
,,,,,,5e9774d2837b810ebe32666e,62bbfb3df06d34a04fe3a75c,2022-06-29_08h12.20.017,Colour_Asymmetry_Pilot,2022.1.3,Win32,46.02144599,62bbe60bf3d75ef465d3e404,0,131,131,158,1,fourtwo,,,,,,,,,,,,,,,,,,,,,,,,,,,,,,,,,,,,,,,,,,,,,,,,,,,,,,,,,,,,,,,,,,,,,,,,,,,,,,,,,,,,,,,,,,,,,,,,,,,,,,,,,,,,,,,,,,,,,,,,,,,,,,,,,,,,,,,,,,,,,,,,,,,,,,,,
,,,,,,5e9774d2837b810ebe32666e,62bbfb3df06d34a04fe3a75c,2022-06-29_08h12.20.017,Colour_Asymmetry_Pilot,2022.1.3,Win32,46.02144599,62bbe60bf3d75ef465d3e404,0,132,132,76,1,threeone,,,,,,,,,,,,,,,,,,,,,,,,,,,,,,,,,,,,,,,,,,,,,,,,,,,,,,,,,,,,,,,,,,,,,,,,,,,,,,,,,,,,,,,,,,,,,,,,,,,,,,,,,,,,,,,,,,,,,,,,,,,,,,,,,,,,,,,,,,,,,,,,,,,,,,,,
,,,,,,5e9774d2837b810ebe32666e,62bbfb3df06d34a04fe3a75c,2022-06-29_08h12.20.017,Colour_Asymmetry_Pilot,2022.1.3,Win32,46.02144599,62bbe60bf3d75ef465d3e404,0,133,133,87,1,fourthree,,,,,,,,,,,,,,,,,,,,,,,,,,,,,,,,,,,,,,,,,,,,,,,,,,,,,,,,,,,,,,,,,,,,,,,,,,,,,,,,,,,,,,,,,,,,,,,,,,,,,,,,,,,,,,,,,,,,,,,,,,,,,,,,,,,,,,,,,,,,,,,,,,,,,,,,
,,,,,,5e9774d2837b810ebe32666e,62bbfb3df06d34a04fe3a75c,2022-06-29_08h12.20.017,Colour_Asymmetry_Pilot,2022.1.3,Win32,46.02144599,62bbe60bf3d75ef465d3e404,0,134,134,138,1,twoone,,,,,,,,,,,,,,,,,,,,,,,,,,,,,,,,,,,,,,,,,,,,,,,,,,,,,,,,,,,,,,,,,,,,,,,,,,,,,,,,,,,,,,,,,,,,,,,,,,,,,,,,,,,,,,,,,,,,,,,,,,,,,,,,,,,,,,,,,,,,,,,,,,,,,,,,
,,,,,,5e9774d2837b810ebe32666e,62bbfb3df06d34a04fe3a75c,2022-06-29_08h12.20.017,Colour_Asymmetry_Pilot,2022.1.3,Win32,46.02144599,62bbe60bf3d75ef465d3e404,0,135,135,50,1,twoone,,,,,,,,,,,,,,,,,,,,,,,,,,,,,,,,,,,,,,,,,,,,,,,,,,,,,,,,,,,,,,,,,,,,,,,,,,,,,,,,,,,,,,,,,,,,,,,,,,,,,,,,,,,,,,,,,,,,,,,,,,,,,,,,,,,,,,,,,,,,,,,,,,,,,,,,
,,,,,,5e9774d2837b810ebe32666e,62bbfb3df06d34a04fe3a75c,2022-06-29_08h12.20.017,Colour_Asymmetry_Pilot,2022.1.3,Win32,46.02144599,62bbe60bf3d75ef465d3e404,0,136,136,109,1,threefour,,,,,,,,,,,,,,,,,,,,,,,,,,,,,,,,,,,,,,,,,,,,,,,,,,,,,,,,,,,,,,,,,,,,,,,,,,,,,,,,,,,,,,,,,,,,,,,,,,,,,,,,,,,,,,,,,,,,,,,,,,,,,,,,,,,,,,,,,,,,,,,,,,,,,,,,
,,,,,,5e9774d2837b810ebe32666e,62bbfb3df06d34a04fe3a75c,2022-06-29_08h12.20.017,Colour_Asymmetry_Pilot,2022.1.3,Win32,46.02144599,62bbe60bf3d75ef465d3e404,0,137,137,78,1,fourtwo,,,,,,,,,,,,,,,,,,,,,,,,,,,,,,,,,,,,,,,,,,,,,,,,,,,,,,,,,,,,,,,,,,,,,,,,,,,,,,,,,,,,,,,,,,,,,,,,,,,,,,,,,,,,,,,,,,,,,,,,,,,,,,,,,,,,,,,,,,,,,,,,,,,,,,,,
,,,,,,5e9774d2837b810ebe32666e,62bbfb3df06d34a04fe3a75c,2022-06-29_08h12.20.017,Colour_Asymmetry_Pilot,2022.1.3,Win32,46.02144599,62bbe60bf3d75ef465d3e404,0,138,138,86,1,fourtwo,,,,,,,,,,,,,,,,,,,,,,,,,,,,,,,,,,,,,,,,,,,,,,,,,,,,,,,,,,,,,,,,,,,,,,,,,,,,,,,,,,,,,,,,,,,,,,,,,,,,,,,,,,,,,,,,,,,,,,,,,,,,,,,,,,,,,,,,,,,,,,,,,,,,,,,,
,,,,,,5e9774d2837b810ebe32666e,62bbfb3df06d34a04fe3a75c,2022-06-29_08h12.20.017,Colour_Asymmetry_Pilot,2022.1.3,Win32,46.02144599,62bbe60bf3d75ef465d3e404,0,139,139,93,1,threefour,,,,,,,,,,,,,,,,,,,,,,,,,,,,,,,,,,,,,,,,,,,,,,,,,,,,,,,,,,,,,,,,,,,,,,,,,,,,,,,,,,,,,,,,,,,,,,,,,,,,,,,,,,,,,,,,,,,,,,,,,,,,,,,,,,,,,,,,,,,,,,,,,,,,,,,,
,,,,,,5e9774d2837b810ebe32666e,62bbfb3df06d34a04fe3a75c,2022-06-29_08h12.20.017,Colour_Asymmetry_Pilot,2022.1.3,Win32,46.02144599,62bbe60bf3d75ef465d3e404,0,140,140,105,1,onethree,,,,,,,,,,,,,,,,,,,,,,,,,,,,,,,,,,,,,,,,,,,,,,,,,,,,,,,,,,,,,,,,,,,,,,,,,,,,,,,,,,,,,,,,,,,,,,,,,,,,,,,,,,,,,,,,,,,,,,,,,,,,,,,,,,,,,,,,,,,,,,,,,,,,,,,,
,,,,,,5e9774d2837b810ebe32666e,62bbfb3df06d34a04fe3a75c,2022-06-29_08h12.20.017,Colour_Asymmetry_Pilot,2022.1.3,Win32,46.02144599,62bbe60bf3d75ef465d3e404,0,141,141,25,1,onethree,,,,,,,,,,,,,,,,,,,,,,,,,,,,,,,,,,,,,,,,,,,,,,,,,,,,,,,,,,,,,,,,,,,,,,,,,,,,,,,,,,,,,,,,,,,,,,,,,,,,,,,,,,,,,,,,,,,,,,,,,,,,,,,,,,,,,,,,,,,,,,,,,,,,,,,,
,,,,,,5e9774d2837b810ebe32666e,62bbfb3df06d34a04fe3a75c,2022-06-29_08h12.20.017,Colour_Asymmetry_Pilot,2022.1.3,Win32,46.02144599,62bbe60bf3d75ef465d3e404,0,142,142,123,1,twofour,,,,,,,,,,,,,,,,,,,,,,,,,,,,,,,,,,,,,,,,,,,,,,,,,,,,,,,,,,,,,,,,,,,,,,,,,,,,,,,,,,,,,,,,,,,,,,,,,,,,,,,,,,,,,,,,,,,,,,,,,,,,,,,,,,,,,,,,,,,,,,,,,,,,,,,,
,,,,,,5e9774d2837b810ebe32666e,62bbfb3df06d34a04fe3a75c,2022-06-29_08h12.20.017,Colour_Asymmetry_Pilot,2022.1.3,Win32,46.02144599,62bbe60bf3d75ef465d3e404,0,143,143,121,1,onethree,,,,,,,,,,,,,,,,,,,,,,,,,,,,,,,,,,,,,,,,,,,,,,,,,,,,,,,,,,,,,,,,,,,,,,,,,,,,,,,,,,,,,,,,,,,,,,,,,,,,,,,,,,,,,,,,,,,,,,,,,,,,,,,,,,,,,,,,,,,,,,,,,,,,,,,,
,,,,,,5e9774d2837b810ebe32666e,62bbfb3df06d34a04fe3a75c,2022-06-29_08h12.20.017,Colour_Asymmetry_Pilot,2022.1.3,Win32,46.02144599,62bbe60bf3d75ef465d3e404,0,144,144,58,1,twoone,,,,,,,,,,,,,,,,,,,,,,,,,,,,,,,,,,,,,,,,,,,,,,,,,,,,,,,,,,,,,,,,,,,,,,,,,,,,,,,,,,,,,,,,,,,,,,,,,,,,,,,,,,,,,,,,,,,,,,,,,,,,,,,,,,,,,,,,,,,,,,,,,,,,,,,,
,,,,,,5e9774d2837b810ebe32666e,62bbfb3df06d34a04fe3a75c,2022-06-29_08h12.20.017,Colour_Asymmetry_Pilot,2022.1.3,Win32,46.02144599,62bbe60bf3d75ef465d3e404,0,145,145,99,1,twofour,,,,,,,,,,,,,,,,,,,,,,,,,,,,,,,,,,,,,,,,,,,,,,,,,,,,,,,,,,,,,,,,,,,,,,,,,,,,,,,,,,,,,,,,,,,,,,,,,,,,,,,,,,,,,,,,,,,,,,,,,,,,,,,,,,,,,,,,,,,,,,,,,,,,,,,,
,,,,,,5e9774d2837b810ebe32666e,62bbfb3df06d34a04fe3a75c,2022-06-29_08h12.20.017,Colour_Asymmetry_Pilot,2022.1.3,Win32,46.02144599,62bbe60bf3d75ef465d3e404,0,146,146,61,1,threefour,,,,,,,,,,,,,,,,,,,,,,,,,,,,,,,,,,,,,,,,,,,,,,,,,,,,,,,,,,,,,,,,,,,,,,,,,,,,,,,,,,,,,,,,,,,,,,,,,,,,,,,,,,,,,,,,,,,,,,,,,,,,,,,,,,,,,,,,,,,,,,,,,,,,,,,,
,,,,,,5e9774d2837b810ebe32666e,62bbfb3df06d34a04fe3a75c,2022-06-29_08h12.20.017,Colour_Asymmetry_Pilot,2022.1.3,Win32,46.02144599,62bbe60bf3d75ef465d3e404,0,147,147,62,1,fourtwo,,,,,,,,,,,,,,,,,,,,,,,,,,,,,,,,,,,,,,,,,,,,,,,,,,,,,,,,,,,,,,,,,,,,,,,,,,,,,,,,,,,,,,,,,,,,,,,,,,,,,,,,,,,,,,,,,,,,,,,,,,,,,,,,,,,,,,,,,,,,,,,,,,,,,,,,
,,,,,,5e9774d2837b810ebe32666e,62bbfb3df06d34a04fe3a75c,2022-06-29_08h12.20.017,Colour_Asymmetry_Pilot,2022.1.3,Win32,46.02144599,62bbe60bf3d75ef465d3e404,0,148,148,108,1,threeone,,,,,,,,,,,,,,,,,,,,,,,,,,,,,,,,,,,,,,,,,,,,,,,,,,,,,,,,,,,,,,,,,,,,,,,,,,,,,,,,,,,,,,,,,,,,,,,,,,,,,,,,,,,,,,,,,,,,,,,,,,,,,,,,,,,,,,,,,,,,,,,,,,,,,,,,
,,,,,,5e9774d2837b810ebe32666e,62bbfb3df06d34a04fe3a75c,2022-06-29_08h12.20.017,Colour_Asymmetry_Pilot,2022.1.3,Win32,46.02144599,62bbe60bf3d75ef465d3e404,0,149,149,29,1,threefour,,,,,,,,,,,,,,,,,,,,,,,,,,,,,,,,,,,,,,,,,,,,,,,,,,,,,,,,,,,,,,,,,,,,,,,,,,,,,,,,,,,,,,,,,,,,,,,,,,,,,,,,,,,,,,,,,,,,,,,,,,,,,,,,,,,,,,,,,,,,,,,,,,,,,,,,
,,,,,,5e9774d2837b810ebe32666e,62bbfb3df06d34a04fe3a75c,2022-06-29_08h12.20.017,Colour_Asymmetry_Pilot,2022.1.3,Win32,46.02144599,62bbe60bf3d75ef465d3e404,0,150,150,0,1,onetwo,,,,,,,,,,,,,,,,,,,,,,,,,,,,,,,,,,,,,,,,,,,,,,,,,,,,,,,,,,,,,,,,,,,,,,,,,,,,,,,,,,,,,,,,,,,,,,,,,,,,,,,,,,,,,,,,,,,,,,,,,,,,,,,,,,,,,,,,,,,,,,,,,,,,,,,,
,,,,,,5e9774d2837b810ebe32666e,62bbfb3df06d34a04fe3a75c,2022-06-29_08h12.20.017,Colour_Asymmetry_Pilot,2022.1.3,Win32,46.02144599,62bbe60bf3d75ef465d3e404,0,151,151,45,1,threefour,,,,,,,,,,,,,,,,,,,,,,,,,,,,,,,,,,,,,,,,,,,,,,,,,,,,,,,,,,,,,,,,,,,,,,,,,,,,,,,,,,,,,,,,,,,,,,,,,,,,,,,,,,,,,,,,,,,,,,,,,,,,,,,,,,,,,,,,,,,,,,,,,,,,,,,,
,,,,,,5e9774d2837b810ebe32666e,62bbfb3df06d34a04fe3a75c,2022-06-29_08h12.20.017,Colour_Asymmetry_Pilot,2022.1.3,Win32,46.02144599,62bbe60bf3d75ef465d3e404,0,152,152,111,1,fourthree,,,,,,,,,,,,,,,,,,,,,,,,,,,,,,,,,,,,,,,,,,,,,,,,,,,,,,,,,,,,,,,,,,,,,,,,,,,,,,,,,,,,,,,,,,,,,,,,,,,,,,,,,,,,,,,,,,,,,,,,,,,,,,,,,,,,,,,,,,,,,,,,,,,,,,,,
,,,,,,5e9774d2837b810ebe32666e,62bbfb3df06d34a04fe3a75c,2022-06-29_08h12.20.017,Colour_Asymmetry_Pilot,2022.1.3,Win32,46.02144599,62bbe60bf3d75ef465d3e404,0,153,153,136,1,onetwo,,,,,,,,,,,,,,,,,,,,,,,,,,,,,,,,,,,,,,,,,,,,,,,,,,,,,,,,,,,,,,,,,,,,,,,,,,,,,,,,,,,,,,,,,,,,,,,,,,,,,,,,,,,,,,,,,,,,,,,,,,,,,,,,,,,,,,,,,,,,,,,,,,,,,,,,
,,,,,,5e9774d2837b810ebe32666e,62bbfb3df06d34a04fe3a75c,2022-06-29_08h12.20.017,Colour_Asymmetry_Pilot,2022.1.3,Win32,46.02144599,62bbe60bf3d75ef465d3e404,0,154,154,98,1,twoone,,,,,,,,,,,,,,,,,,,,,,,,,,,,,,,,,,,,,,,,,,,,,,,,,,,,,,,,,,,,,,,,,,,,,,,,,,,,,,,,,,,,,,,,,,,,,,,,,,,,,,,,,,,,,,,,,,,,,,,,,,,,,,,,,,,,,,,,,,,,,,,,,,,,,,,,
,,,,,,5e9774d2837b810ebe32666e,62bbfb3df06d34a04fe3a75c,2022-06-29_08h12.20.017,Colour_Asymmetry_Pilot,2022.1.3,Win32,46.02144599,62bbe60bf3d75ef465d3e404,0,155,155,77,1,threefour,,,,,,,,,,,,,,,,,,,,,,,,,,,,,,,,,,,,,,,,,,,,,,,,,,,,,,,,,,,,,,,,,,,,,,,,,,,,,,,,,,,,,,,,,,,,,,,,,,,,,,,,,,,,,,,,,,,,,,,,,,,,,,,,,,,,,,,,,,,,,,,,,,,,,,,,
,,,,,,5e9774d2837b810ebe32666e,62bbfb3df06d34a04fe3a75c,2022-06-29_08h12.20.017,Colour_Asymmetry_Pilot,2022.1.3,Win32,46.02144599,62bbe60bf3d75ef465d3e404,0,156,156,113,1,onethree,,,,,,,,,,,,,,,,,,,,,,,,,,,,,,,,,,,,,,,,,,,,,,,,,,,,,,,,,,,,,,,,,,,,,,,,,,,,,,,,,,,,,,,,,,,,,,,,,,,,,,,,,,,,,,,,,,,,,,,,,,,,,,,,,,,,,,,,,,,,,,,,,,,,,,,,
,,,,,,5e9774d2837b810ebe32666e,62bbfb3df06d34a04fe3a75c,2022-06-29_08h12.20.017,Colour_Asymmetry_Pilot,2022.1.3,Win32,46.02144599,62bbe60bf3d75ef465d3e404,0,157,157,72,1,onetwo,,,,,,,,,,,,,,,,,,,,,,,,,,,,,,,,,,,,,,,,,,,,,,,,,,,,,,,,,,,,,,,,,,,,,,,,,,,,,,,,,,,,,,,,,,,,,,,,,,,,,,,,,,,,,,,,,,,,,,,,,,,,,,,,,,,,,,,,,,,,,,,,,,,,,,,,
,,,,,,5e9774d2837b810ebe32666e,62bbfb3df06d34a04fe3a75c,2022-06-29_08h12.20.017,Colour_Asymmetry_Pilot,2022.1.3,Win32,46.02144599,62bbe60bf3d75ef465d3e404,0,158,158,127,1,fourthree,,,,,,,,,,,,,,,,,,,,,,,,,,,,,,,,,,,,,,,,,,,,,,,,,,,,,,,,,,,,,,,,,,,,,,,,,,,,,,,,,,,,,,,,,,,,,,,,,,,,,,,,,,,,,,,,,,,,,,,,,,,,,,,,,,,,,,,,,,,,,,,,,,,,,,,,
,,,,,,5e9774d2837b810ebe32666e,62bbfb3df06d34a04fe3a75c,2022-06-29_08h12.20.017,Colour_Asymmetry_Pilot,2022.1.3,Win32,46.02144599,62bbe60bf3d75ef465d3e404,0,159,159,40,1,onetwo,,,,,,,,,,,,,,,,,,,,,,,,,,,,,,,,,,,,,,,,,,,,,,,,,,,,,,,,,,,,,,,,,,,,,,,,,,,,,,,,,,,,,,,,,,,,,,,,,,,,,,,,,,,,,,,,,,,,,,,,,,,,,,,,,,,,,,,,,,,,,,,,,,,,,,,,
,,,,,,5e9774d2837b810ebe32666e,62bbfb3df06d34a04fe3a75c,2022-06-29_08h12.20.017,Colour_Asymmetry_Pilot,2022.1.3,Win32,46.02144599,62bbe60bf3d75ef465d3e404,0,160,160,94,1,fourtwo,,,,,,,,,,,,,,,,,,,,,,,,,,,,,,,,,,,,,,,,,,,,,,,,,,,,,,,,,,,,,,,,,,,,,,,,,,,,,,,,,,,,,,,,,,,,,,,,,,,,,,,,,,,,,,,,,,,,,,,,,,,,,,,,,,,,,,,,,,,,,,,,,,,,,,,,
,,,,,,5e9774d2837b810ebe32666e,62bbfb3df06d34a04fe3a75c,2022-06-29_08h12.20.017,Colour_Asymmetry_Pilot,2022.1.3,Win32,46.02144599,62bbe60bf3d75ef465d3e404,0,161,161,151,1,fourthree,,,,,,,,,,,,,,,,,,,,,,,,,,,,,,,,,,,,,,,,,,,,,,,,,,,,,,,,,,,,,,,,,,,,,,,,,,,,,,,,,,,,,,,,,,,,,,,,,,,,,,,,,,,,,,,,,,,,,,,,,,,,,,,,,,,,,,,,,,,,,,,,,,,,,,,,
,,,,,,5e9774d2837b810ebe32666e,62bbfb3df06d34a04fe3a75c,2022-06-29_08h12.20.017,Colour_Asymmetry_Pilot,2022.1.3,Win32,46.02144599,62bbe60bf3d75ef465d3e404,,,,,,,space,3.3796,space,1609.4297,space,24.2292,space,10.3466,space,5.6043,space,3.9092,"[0.7018,0.7802,-0.16079999999999994]",onetwo,"[-0.4982,-0.2942,-0.0354000000000001]",-4,3.45,-52,127,1,0,0,response7disk_5,-3,-4,1,0,0,rectangle_8,-3,-4,1,0,0,2,-3,-4,1,0,0,0,0,0,0,1,,,,,,,,,,,,,,,,,,,,,,,,,,,,,,,,,,,,,,,,,,,,,,,,,,,,,,,,,,,,,,,,,,,,,,,,,,,,,,,,,,,,,,,,,,,,,,,,,,,,,,,,,,,
,,,,,,5e9774d2837b810ebe32666e,62bbfb3df06d34a04fe3a75c,2022-06-29_08h12.20.017,Colour_Asymmetry_Pilot,2022.1.3,Win32,46.02144599,62bbe60bf3d75ef465d3e404,,,,,,,,,,,,,,,,,,,"[-0.9766,-0.34920000000000007,0.2156]",onethree,"[0.9372,0.9450000000000001,0.8980000000000001]",-4,14.0368,-58,113,1,0,0,response7disk_5,11,-4,1,0,0,rectangle_8,119,-53,1,0,0,2,3,-1,1,0,0,1,0,1,0,1,response3disk_7,5,rectangle_4,,,,,,,,,,,,,,,,,,,,,,,,,,,,,,,,,,,,,,,,,,,,,,,,,,,,,,,,,,,,,,,,,,,,,,,,,,,,,,,,,,,,,,,,,,,,,,,,,,,,,,,,
,,,,,,5e9774d2837b810ebe32666e,62bbfb3df06d34a04fe3a75c,2022-06-29_08h12.20.017,Colour_Asymmetry_Pilot,2022.1.3,Win32,46.02144599,62bbe60bf3d75ef465d3e404,,,,,,,,,,,,,,,,,,,"[-0.2942,-0.7648,-0.7492000000000001]",twoone,"[0.37240000000000006,0.4980000000000002,-0.2864]",-4,1.4501,-61,103,1,0,0,response7disk_5,-3,4,1,0,0,rectangle_8,-3,4,1,0,0,2,-3,4,1,0,0,2,0,2,0,1,,,,,,,,,,,,,,,,,,,,,,,,,,,,,,,,,,,,,,,,,,,,,,,,,,,,,,,,,,,,,,,,,,,,,,,,,,,,,,,,,,,,,,,,,,,,,,,,,,,,,,,,,,,
,,,,,,5e9774d2837b810ebe32666e,62bbfb3df06d34a04fe3a75c,2022-06-29_08h12.20.017,Colour_Asymmetry_Pilot,2022.1.3,Win32,46.02144599,62bbe60bf3d75ef465d3e404,,,,,,,,,,,,,,,,,,,"[-0.10599999999999998,-0.10599999999999998,0.5841999999999998]",twofour,"[-0.4902000000000001,0.2704,-0.45899999999999996]",-4,0.8662,-54,91,1,0,0,response7disk_5,-1,-11,1,0,0,rectangle_8,-1,-11,1,0,0,2,-1,-11,1,0,0,3,0,3,0,1,,,,,,,,,,,,,,,,,,,,,,,,,,,,,,,,,,,,,,,,,,,,,,,,,,,,,,,,,,,,,,,,,,,,,,,,,,,,,,,,,,,,,,,,,,,,,,,,,,,,,,,,,,,
,,,,,,5e9774d2837b810ebe32666e,62bbfb3df06d34a04fe3a75c,2022-06-29_08h12.20.017,Colour_Asymmetry_Pilot,2022.1.3,Win32,46.02144599,62bbe60bf3d75ef465d3e404,,,,,,,,,,,,,,,,,,,"[-0.45899999999999996,-0.3256,-0.9374]",onethree,"[0.6625999999999999,0.4980000000000002,-0.357]",-1,2.3169,-61,-115,1,0,0,response5disk_5,-5,4,1,0,0,rectangle_8,131,-62,1,0,0,2,16,3,1,0,0,4,0,4,0,1,response3disk_7,5,rectangle_4,,,,,,,,,,,,,,,,,,,,,,,,,,,,,,,,,,,,,,,,,,,,,,,,,,,,,,,,,,,,,,,,,,,,,,,,,,,,,,,,,,,,,,,,,,,,,,,,,,,,,,,,
,,,,,,5e9774d2837b810ebe32666e,62bbfb3df06d34a04fe3a75c,2022-06-29_08h12.20.017,Colour_Asymmetry_Pilot,2022.1.3,Win32,46.02144599,62bbe60bf3d75ef465d3e404,,,,,,,,,,,,,,,,,,,"[0.0351999999999999,0.41159999999999997,0.0038000000000000256]",fourthree,"[0.9372,0.20779999999999998,0.2704]",-4,1.8665,-51,90,1,0,0,response7disk_5,-6,-1,1,0,0,rectangle_8,-6,-1,1,0,0,2,-6,-1,1,0,0,5,0,5,0,1,,,,,,,,,,,,,,,,,,,,,,,,,,,,,,,,,,,,,,,,,,,,,,,,,,,,,,,,,,,,,,,,,,,,,,,,,,,,,,,,,,,,,,,,,,,,,,,,,,,,,,,,,,,
,,,,,,5e9774d2837b810ebe32666e,62bbfb3df06d34a04fe3a75c,2022-06-29_08h12.20.017,Colour_Asymmetry_Pilot,2022.1.3,Win32,46.02144599,62bbe60bf3d75ef465d3e404,,,,,,,,,,,,,,,,,,,"[0.40379999999999994,0.09000000000000008,0.44300000000000006]",onethree,"[-0.4982,-0.2942,-0.0354000000000001]",-3,4.0499,-116,39,1,0,0,response7disk_5,-5,-3,1,0,0,rectangle_8,-5,-3,1,0,0,2,-5,-3,1,0,0,6,0,6,0,1,,,,,,,,,,,,,,,,,,,,,,,,,,,,,,,,,,,,,,,,,,,,,,,,,,,,,,,,,,,,,,,,,,,,,,,,,,,,,,,,,,,,,,,,,,,,,,,,,,,,,,,,,,,
,,,,,,5e9774d2837b810ebe32666e,62bbfb3df06d34a04fe3a75c,2022-06-29_08h12.20.017,Colour_Asymmetry_Pilot,2022.1.3,Win32,46.02144599,62bbe60bf3d75ef465d3e404,,,,,,,,,,,,,,,,,,,,threeone,,-4,2.2678,,,,,,,,,,,,,,,,,,,,,,,,,,,,,,,,space,3.1844,"[0.23120000000000007,-0.7726,-0.34120000000000006]","[-0.48240000000000005,0.3175999999999999,0.2156]",-61,123,1,0,0,response7disk,8,-6,1,0,0,rectangle,8,-6,1,0,0,,2,0.0016,0,8,-6,1,0,0,0,0,0,113,1,32,second,,,,,,,,,,,,,,,,,,,,,,,,,,,,,,,,,,,,,,,,,,,,,,,,,,,,,,,,,,,,,,,,,,,
,,,,,,5e9774d2837b810ebe32666e,62bbfb3df06d34a04fe3a75c,2022-06-29_08h12.20.017,Colour_Asymmetry_Pilot,2022.1.3,Win32,46.02144599,62bbe60bf3d75ef465d3e404,,,,,,,,,,,,,,,,,,,,twoone,,1,3.7668,,,,,,,,,,,,,,,,,,,,,,,,,,,,,,,,,,"[0.09799999999999986,-0.24719999999999998,0.15280000000000005]","[0.3881999999999999,-0.23939999999999995,-0.05040000000000011]",55,-142,1,0,0,response3disk,-19,-1,1,0,0,rectangle,-19,-1,1,0,0,,1,0.0011,0,-19,-1,1,0,0,0,1,1,19,1,19,first,,,,,,,,,,,,,,,,,,,,,,,,,,,,,,,,,,,,,,,,,,,,,,,,,,,,,,,,,,,,,,,,,,,
,,,,,,5e9774d2837b810ebe32666e,62bbfb3df06d34a04fe3a75c,2022-06-29_08h12.20.017,Colour_Asymmetry_Pilot,2022.1.3,Win32,46.02144599,62bbe60bf3d75ef465d3e404,,,,,,,,,,,,,,,,,,,,fourthree,,-2,3.8496,,,,,,,,,,,,,,,,,,,,,,,,,,,,,,,,,,"[0.9763999999999999,0.8588,-0.05900000000000005]","[0.2784,-0.31000000000000005,-0.5452]",-99,-57,1,0,0,response5disk,-3,3,1,0,0,rectangle,-3,3,1,0,0,,1,0.0002,0,-3,3,1,0,0,0,2,2,112,1,31,second,,,,,,,,,,,,,,,,,,,,,,,,,,,,,,,,,,,,,,,,,,,,,,,,,,,,,,,,,,,,,,,,,,,
,,,,,,5e9774d2837b810ebe32666e,62bbfb3df06d34a04fe3a75c,2022-06-29_08h12.20.017,Colour_Asymmetry_Pilot,2022.1.3,Win32,46.02144599,62bbe60bf3d75ef465d3e404,,,,,,,,,,,,,,,,,,,,twofour,,-4,1.8667,,,,,,,,,,,,,,,,,,,,,,,,,,,,,,,,,,"[-0.9138,-0.5296000000000001,-0.5529999999999999]","[0.7176,-0.906,-0.6864]",-60,101,1,0,0,response7disk,0,-3,1,0,0,rectangle,0,-3,1,0,0,,1,0.0002,0,0,-3,1,0,0,0,3,3,83,1,2,second,,,,,,,,,,,,,,,,,,,,,,,,,,,,,,,,,,,,,,,,,,,,,,,,,,,,,,,,,,,,,,,,,,,
,,,,,,5e9774d2837b810ebe32666e,62bbfb3df06d34a04fe3a75c,2022-06-29_08h12.20.017,Colour_Asymmetry_Pilot,2022.1.3,Win32,46.02144599,62bbe60bf3d75ef465d3e404,,,,,,,,,,,,,,,,,,,,fourtwo,,-3,1.0167,,,,,,,,,,,,,,,,,,,,,,,,,,,,,,,,,,"[-0.17659999999999998,0.3253999999999999,0.19999999999999996]","[0.7802,-0.23140000000000005,-0.20799999999999996]",-109,69,1,0,0,response7disk,11,-4,1,0,0,rectangle,11,-4,1,0,0,,1,0.0002,0,11,-4,1,0,0,0,4,4,118,1,37,second,,,,,,,,,,,,,,,,,,,,,,,,,,,,,,,,,,,,,,,,,,,,,,,,,,,,,,,,,,,,,,,,,,,
,,,,,,5e9774d2837b810ebe32666e,62bbfb3df06d34a04fe3a75c,2022-06-29_08h12.20.017,Colour_Asymmetry_Pilot,2022.1.3,Win32,46.02144599,62bbe60bf3d75ef465d3e404,,,,,,,,,,,,,,,,,,,,fourthree,,-4,1.2831,,,,,,,,,,,,,,,,,,,,,,,,,,,,,,,,,,"[-0.4276,0.0038000000000000256,-0.3256]","[0.05879999999999996,0.2784,0.5841999999999998]",-70,109,1,0,0,response7disk,4,5,1,0,0,rectangle,4,5,1,0,0,,1,0.0002,0,4,5,1,0,0,0,5,5,140,1,59,second,,,,,,,,,,,,,,,,,,,,,,,,,,,,,,,,,,,,,,,,,,,,,,,,,,,,,,,,,,,,,,,,,,,
,,,,,,5e9774d2837b810ebe32666e,62bbfb3df06d34a04fe3a75c,2022-06-29_08h12.20.017,Colour_Asymmetry_Pilot,2022.1.3,Win32,46.02144599,62bbe60bf3d75ef465d3e404,,,,,,,,,,,,,,,,,,,,twoone,,1,3.1672,,,,,,,,,,,,,,,,,,,,,,,,,,,,,,,,,,"[-0.011800000000000033,-0.906,-0.45100000000000007]","[-0.050999999999999934,-0.6706000000000001,-0.804]",90,-122,1,0,0,response3disk,3,-3,1,0,0,rectangle,3,-3,1,0,0,,3,0.0009,0,3,-3,1,0,0,0,6,6,62,1,62,first,,,,,,,,,,,,,,,,,,,,,,,,,,,,,,,,,,,,,,,,,,,,,,,,,,,,,,,,,,,,,,,,,,,
,,,,,,5e9774d2837b810ebe32666e,62bbfb3df06d34a04fe3a75c,2022-06-29_08h12.20.017,Colour_Asymmetry_Pilot,2022.1.3,Win32,46.02144599,62bbe60bf3d75ef465d3e404,,,,,,,,,,,,,,,,,,,,threefour,,-4,1.3333,,,,,,,,,,,,,,,,,,,,,,,,,,,,,,,,,,"[-0.10599999999999998,-0.15300000000000002,0.15280000000000005]","[0.7176,-0.906,-0.6864]",-71,114,1,0,0,response7disk,-15,7,1,0,0,rectangle,-15,7,1,0,0,,1,0.0009,0,-15,7,1,0,0,0,7,7,39,1,39,first,,,,,,,,,,,,,,,,,,,,,,,,,,,,,,,,,,,,,,,,,,,,,,,,,,,,,,,,,,,,,,,,,,,
,,,,,,5e9774d2837b810ebe32666e,62bbfb3df06d34a04fe3a75c,2022-06-29_08h12.20.017,Colour_Asymmetry_Pilot,2022.1.3,Win32,46.02144599,62bbe60bf3d75ef465d3e404,,,,,,,,,,,,,,,,,,,,twofour,,-4,0.3836,,,,,,,,,,,,,,,,,,,,,,,,,,,,,,,,,,"[0.22340000000000004,-0.9296,-0.7884]","[-0.8198,-0.5138,-0.7492000000000001]",-73,136,1,0,0,response7disk,4,-3,1,0,0,rectangle,4,-3,1,0,0,,2,0.0009,0,4,-3,1,0,0,0,8,8,129,1,48,second,,,,,,,,,,,,,,,,,,,,,,,,,,,,,,,,,,,,,,,,,,,,,,,,,,,,,,,,,,,,,,,,,,,
,,,,,,5e9774d2837b810ebe32666e,62bbfb3df06d34a04fe3a75c,2022-06-29_08h12.20.017,Colour_Asymmetry_Pilot,2022.1.3,Win32,46.02144599,62bbe60bf3d75ef465d3e404,,,,,,,,,,,,,,,,,,,,threefour,,2,3.7516,,,,,,,,,,,,,,,,,,,,,,,,,,,,,,,,,,"[-0.17659999999999998,-0.2864,-0.8354]","[0.6625999999999999,0.4980000000000002,-0.357]",128,-85,1,0,0,response3disk,1,0,1,0,0,rectangle,1,0,1,0,0,,3,0.001,0,1,0,1,0,0,0,9,9,101,1,20,second,,,,,,,,,,,,,,,,,,,,,,,,,,,,,,,,,,,,,,,,,,,,,,,,,,,,,,,,,,,,,,,,,,,
,,,,,,5e9774d2837b810ebe32666e,62bbfb3df06d34a04fe3a75c,2022-06-29_08h12.20.017,Colour_Asymmetry_Pilot,2022.1.3,Win32,46.02144599,62bbe60bf3d75ef465d3e404,,,,,,,,,,,,,,,,,,,,twofour,,1,6.7996,,,,,,,,,,,,,,,,,,,,,,,,,,,,,,,,,,"[-0.5688,-0.08239999999999992,-0.1844]","[-0.9296,-0.12959999999999994,-0.043199999999999905]",54,-123,1,0,0,response3disk,-4,-6,1,0,0,rectangle,-4,-6,1,0,0,,1,0.0009,0,-4,-6,1,0,0,0,10,10,26,1,26,first,,,,,,,,,,,,,,,,,,,,,,,,,,,,,,,,,,,,,,,,,,,,,,,,,,,,,,,,,,,,,,,,,,,
,,,,,,5e9774d2837b810ebe32666e,62bbfb3df06d34a04fe3a75c,2022-06-29_08h12.20.017,Colour_Asymmetry_Pilot,2022.1.3,Win32,46.02144599,62bbe60bf3d75ef465d3e404,,,,,,,,,,,,,,,,,,,,onetwo,,-4,0.6333,,,,,,,,,,,,,,,,,,,,,,,,,,,,,,,,,,"[-0.4746,-0.0354000000000001,0.5449999999999999]","[0.7176,-0.906,-0.6864]",-58,124,1,0,0,response7disk,16,2,1,0,0,rectangle,16,2,1,0,0,,3,0.001,0,16,2,1,0,0,0,11,11,27,1,27,first,,,,,,,,,,,,,,,,,,,,,,,,,,,,,,,,,,,,,,,,,,,,,,,,,,,,,,,,,,,,,,,,,,,
,,,,,,5e9774d2837b810ebe32666e,62bbfb3df06d34a04fe3a75c,2022-06-29_08h12.20.017,Colour_Asymmetry_Pilot,2022.1.3,Win32,46.02144599,62bbe60bf3d75ef465d3e404,,,,,,,,,,,,,,,,,,,,onetwo,,-3,2.133,,,,,,,,,,,,,,,,,,,,,,,,,,,,,,,,,,"[0.40379999999999994,0.09000000000000008,0.44300000000000006]","[-0.4982,-0.2942,-0.0354000000000001]",-119,57,1,0,0,response7disk,3,7,1,0,0,rectangle,3,7,1,0,0,,3,0.0001,0,3,7,1,0,0,0,12,12,125,1,44,second,,,,,,,,,,,,,,,,,,,,,,,,,,,,,,,,,,,,,,,,,,,,,,,,,,,,,,,,,,,,,,,,,,,
,,,,,,5e9774d2837b810ebe32666e,62bbfb3df06d34a04fe3a75c,2022-06-29_08h12.20.017,Colour_Asymmetry_Pilot,2022.1.3,Win32,46.02144599,62bbe60bf3d75ef465d3e404,,,,,,,,,,,,,,,,,,,,threefour,,-3,1.4165,,,,,,,,,,,,,,,,,,,,,,,,,,,,,,,,,,"[-0.45899999999999996,-0.3256,-0.9374]","[-0.48240000000000005,0.3175999999999999,0.2156]",-122,48,1,0,0,response7disk,11,-1,1,0,0,rectangle,11,-1,1,0,0,,3,0.0004,0,11,-1,1,0,0,0,13,13,91,1,10,second,,,,,,,,,,,,,,,,,,,,,,,,,,,,,,,,,,,,,,,,,,,,,,,,,,,,,,,,,,,,,,,,,,,
,,,,,,5e9774d2837b810ebe32666e,62bbfb3df06d34a04fe3a75c,2022-06-29_08h12.20.017,Colour_Asymmetry_Pilot,2022.1.3,Win32,46.02144599,62bbe60bf3d75ef465d3e404,,,,,,,,,,,,,,,,,,,,onetwo,,2,4.0995,,,,,,,,,,,,,,,,,,,,,,,,,,,,,,,,,,"[0.30180000000000007,-0.7884,-0.9844]","[0.7802,-0.23140000000000005,-0.20799999999999996]",121,-85,1,0,0,response3disk,9,-4,1,0,0,rectangle,9,-4,1,0,0,,3,0.0002,0,9,-4,1,0,0,0,14,14,131,1,50,second,,,,,,,,,,,,,,,,,,,,,,,,,,,,,,,,,,,,,,,,,,,,,,,,,,,,,,,,,,,,,,,,,,,
,,,,,,5e9774d2837b810ebe32666e,62bbfb3df06d34a04fe3a75c,2022-06-29_08h12.20.017,Colour_Asymmetry_Pilot,2022.1.3,Win32,46.02144599,62bbe60bf3d75ef465d3e404,,,,,,,,,,,,,,,,,,,,threeone,,-3,0.7332,,,,,,,,,,,,,,,,,,,,,,,,,,,,,,,,,,"[0.18419999999999992,-0.4276,-0.404]","[0.7018,0.7176,0.6155999999999999]",-88,71,1,0,0,response7disk,8,0,1,0,0,rectangle,8,0,1,0,0,,3,0.0002,0,8,0,1,0,0,0,15,15,158,1,77,second,,,,,,,,,,,,,,,,,,,,,,,,,,,,,,,,,,,,,,,,,,,,,,,,,,,,,,,,,,,,,,,,,,,
,,,,,,5e9774d2837b810ebe32666e,62bbfb3df06d34a04fe3a75c,2022-06-29_08h12.20.017,Colour_Asymmetry_Pilot,2022.1.3,Win32,46.02144599,62bbe60bf3d75ef465d3e404,,,,,,,,,,,,,,,,,,,,threefour,,-4,2.2498,,,,,,,,,,,,,,,,,,,,,,,,,,,,,,,,,,"[-0.01980000000000004,-0.5138,-0.38039999999999996]","[-0.0040000000000000036,0.02739999999999987,-0.08239999999999992]",-50,127,1,0,0,response7disk,8,2,1,0,0,rectangle,8,2,1,0,0,,2,0.0008,0,8,2,1,0,0,0,16,16,116,1,35,second,,,,,,,,,,,,,,,,,,,,,,,,,,,,,,,,,,,,,,,,,,,,,,,,,,,,,,,,,,,,,,,,,,,
,,,,,,5e9774d2837b810ebe32666e,62bbfb3df06d34a04fe3a75c,2022-06-29_08h12.20.017,Colour_Asymmetry_Pilot,2022.1.3,Win32,46.02144599,62bbe60bf3d75ef465d3e404,,,,,,,,,,,,,,,,,,,,twoone,,-4,7.6001,,,,,,,,,,,,,,,,,,,,,,,,,,,,,,,,,,"[-0.0040000000000000036,0.02739999999999987,-0.08239999999999992]","[-0.01980000000000004,-0.5138,-0.38039999999999996]",-47,88,1,0,0,response7disk,-5,4,1,0,0,rectangle,-5,4,1,0,0,,3,0.001,0,-5,4,1,0,0,0,17,17,35,1,35,first,,,,,,,,,,,,,,,,,,,,,,,,,,,,,,,,,,,,,,,,,,,,,,,,,,,,,,,,,,,,,,,,,,,
,,,,,,5e9774d2837b810ebe32666e,62bbfb3df06d34a04fe3a75c,2022-06-29_08h12.20.017,Colour_Asymmetry_Pilot,2022.1.3,Win32,46.02144599,62bbe60bf3d75ef465d3e404,,,,,,,,,,,,,,,,,,,,onetwo,,-4,1.0667,,,,,,,,,,,,,,,,,,,,,,,,,,,,,,,,,,"[-0.9844,-0.9688,-0.9922]","[-0.26280000000000003,-0.4746,-0.2158]",-54,107,1,0,0,response7disk,-1,10,1,0,0,rectangle,-1,10,1,0,0,,3,0.0002,0,-1,10,1,0,0,0,18,18,56,1,56,first,,,,,,,,,,,,,,,,,,,,,,,,,,,,,,,,,,,,,,,,,,,,,,,,,,,,,,,,,,,,,,,,,,,
,,,,,,5e9774d2837b810ebe32666e,62bbfb3df06d34a04fe3a75c,2022-06-29_08h12.20.017,Colour_Asymmetry_Pilot,2022.1.3,Win32,46.02144599,62bbe60bf3d75ef465d3e404,,,,,,,,,,,,,,,,,,,,twofour,,-3,1.8166,,,,,,,,,,,,,,,,,,,,,,,,,,,,,,,,,,"[-0.4982,-0.2942,-0.0354000000000001]","[0.40379999999999994,0.09000000000000008,0.44300000000000006]",-109,42,1,0,0,response7disk,27,0,1,0,0,rectangle,27,0,1,0,0,,2,0.0019,0,27,0,1,0,0,0,19,19,44,1,44,first,,,,,,,,,,,,,,,,,,,,,,,,,,,,,,,,,,,,,,,,,,,,,,,,,,,,,,,,,,,,,,,,,,,
,,,,,,5e9774d2837b810ebe32666e,62bbfb3df06d34a04fe3a75c,2022-06-29_08h12.20.017,Colour_Asymmetry_Pilot,2022.1.3,Win32,46.02144599,62bbe60bf3d75ef465d3e404,,,,,,,,,,,,,,,,,,,,threeone,,-4,0.6668,,,,,,,,,,,,,,,,,,,,,,,,,,,,,,,,,,"[0.7018,0.7176,0.6155999999999999]","[0.18419999999999992,-0.4276,-0.404]",-68,105,1,0,0,response7disk,14,8,1,0,0,rectangle,14,8,1,0,0,,3,0.0011,0,14,8,1,0,0,0,20,20,77,1,77,first,,,,,,,,,,,,,,,,,,,,,,,,,,,,,,,,,,,,,,,,,,,,,,,,,,,,,,,,,,,,,,,,,,,
