trials.thisRepN,trials.thisTrialN,trials.thisN,trials.thisIndex,trials.ran,Colourcodes,participant,session,date,expName,psychopyVersion,OS,frameRate,study_id,trials_4.thisRepN,trials_4.thisTrialN,trials_4.thisN,trials_4.thisIndex,trials_4.ran,StimulusPos,key_resp.keys,key_resp.rt,key_resp_2.keys,key_resp_2.rt,key_resp_15.keys,key_resp_15.rt,key_resp_17.keys,key_resp_17.rt,key_resp_9.keys,key_resp_9.rt,key_resp_10.keys,key_resp_10.rt,Circle1_col,Ecc,Circle2_col,similarity,response_time,mouse_5.x,mouse_5.y,mouse_5.leftButton,mouse_5.midButton,mouse_5.rightButton,mouse_5.clicked_name,mouse_10.x,mouse_10.y,mouse_10.leftButton,mouse_10.midButton,mouse_10.rightButton,mouse_10.clicked_name,mouse_7.x,mouse_7.y,mouse_7.leftButton,mouse_7.midButton,mouse_7.rightButton,catchnumberprac,mouse_6.x,mouse_6.y,mouse_6.leftButton,mouse_6.midButton,mouse_6.rightButton,duringprac.thisRepN,duringprac.thisTrialN,duringprac.thisN,duringprac.thisIndex,duringprac.ran,mouse_7.clicked_name,catchprac,mouse_6.clicked_name,key_resp_22.keys,key_resp_22.rt,Circle1_colour,Circle2_colour,mouse.x,mouse.y,mouse.leftButton,mouse.midButton,mouse.rightButton,mouse.clicked_name,mouse_2.x,mouse_2.y,mouse_2.leftButton,mouse_2.midButton,mouse_2.rightButton,mouse_2.clicked_name,mouse_3.x,mouse_3.y,mouse_3.leftButton,mouse_3.midButton,mouse_3.rightButton,catchresponse,catchnumber,response_time_catch,Catch,mouse_11.x,mouse_11.y,mouse_11.leftButton,mouse_11.midButton,mouse_11.rightButton,trials_2.thisRepN,trials_2.thisTrialN,trials_2.thisN,trials_2.thisIndex,trials_2.ran,Colourpair,Temporder,mouse_3.clicked_name,mouse_11.clicked_name,trials_3.thisRepN,trials_3.thisTrialN,trials_3.thisN,trials_3.thisIndex,trials_3.ran,key_resp_instr_Ishi.keys,key_resp_instr_Ishi.rt,Ishi_trial_keyresp.keys,Ishi_trial_keyresp.rt,Ishi_textbox.text,Ishi_loop.thisRepN,Ishi_loop.thisTrialN,Ishi_loop.thisN,Ishi_loop.thisIndex,Ishi_loop.ran,imageaddress,textbox.text,mouse_4.x,mouse_4.y,mouse_4.leftButton,mouse_4.midButton,mouse_4.rightButton,mouse_4.clicked_name,textbox_2.text,mouse_8.x,mouse_8.y,mouse_8.leftButton,mouse_8.midButton,mouse_8.rightButton,mouse_8.clicked_name,textbox_3.text,mouse_9.x,mouse_9.y,mouse_9.leftButton,mouse_9.midButton,mouse_9.rightButton,mouse_9.clicked_name,textbox_4.text,mouse_12.x,mouse_12.y,mouse_12.leftButton,mouse_12.midButton,mouse_12.rightButton,mouse_12.clicked_name,textbox_5.text,mouse_13.x,mouse_13.y,mouse_13.leftButton,mouse_13.midButton,mouse_13.rightButton,mouse_13.clicked_name,textbox_6.text,mouse_14.x,mouse_14.y,mouse_14.leftButton,mouse_14.midButton,mouse_14.rightButton,mouse_14.clicked_name,textbox_7.text,mouse_15.x,mouse_15.y,mouse_15.leftButton,mouse_15.midButton,mouse_15.rightButton,mouse_15.clicked_name
0,0,0,7,1,,611e5a53b063fa0cfe9e59b7,62b2acbccf00c0c5f626ba1e,2022-06-22_08h32.47.347,Colour_Asymmetry_Pilot,2022.1.3,Win32,71.64350193,62b2a6a25f2ba72662469a01,,,,,,,,,,,,,,,,,,,,,,,,,,,,,,,,,,,,,,,,,,,,,,,,,,,,,,,,,,,,,,,,,,,,,,,,,,,,,,,,,,,,,,,,,,,,,,,,,,,,,,,,,,,,,,,,,,,,,,,,,,,,,,,,,,,,,,,,,,,,,,,,,,,,,,,,,,,,,,
0,1,1,55,1,,611e5a53b063fa0cfe9e59b7,62b2acbccf00c0c5f626ba1e,2022-06-22_08h32.47.347,Colour_Asymmetry_Pilot,2022.1.3,Win32,71.64350193,62b2a6a25f2ba72662469a01,,,,,,,,,,,,,,,,,,,,,,,,,,,,,,,,,,,,,,,,,,,,,,,,,,,,,,,,,,,,,,,,,,,,,,,,,,,,,,,,,,,,,,,,,,,,,,,,,,,,,,,,,,,,,,,,,,,,,,,,,,,,,,,,,,,,,,,,,,,,,,,,,,,,,,,,,,,,,,
0,2,2,40,1,,611e5a53b063fa0cfe9e59b7,62b2acbccf00c0c5f626ba1e,2022-06-22_08h32.47.347,Colour_Asymmetry_Pilot,2022.1.3,Win32,71.64350193,62b2a6a25f2ba72662469a01,,,,,,,,,,,,,,,,,,,,,,,,,,,,,,,,,,,,,,,,,,,,,,,,,,,,,,,,,,,,,,,,,,,,,,,,,,,,,,,,,,,,,,,,,,,,,,,,,,,,,,,,,,,,,,,,,,,,,,,,,,,,,,,,,,,,,,,,,,,,,,,,,,,,,,,,,,,,,,
0,3,3,41,1,,611e5a53b063fa0cfe9e59b7,62b2acbccf00c0c5f626ba1e,2022-06-22_08h32.47.347,Colour_Asymmetry_Pilot,2022.1.3,Win32,71.64350193,62b2a6a25f2ba72662469a01,,,,,,,,,,,,,,,,,,,,,,,,,,,,,,,,,,,,,,,,,,,,,,,,,,,,,,,,,,,,,,,,,,,,,,,,,,,,,,,,,,,,,,,,,,,,,,,,,,,,,,,,,,,,,,,,,,,,,,,,,,,,,,,,,,,,,,,,,,,,,,,,,,,,,,,,,,,,,,
0,4,4,31,1,,611e5a53b063fa0cfe9e59b7,62b2acbccf00c0c5f626ba1e,2022-06-22_08h32.47.347,Colour_Asymmetry_Pilot,2022.1.3,Win32,71.64350193,62b2a6a25f2ba72662469a01,,,,,,,,,,,,,,,,,,,,,,,,,,,,,,,,,,,,,,,,,,,,,,,,,,,,,,,,,,,,,,,,,,,,,,,,,,,,,,,,,,,,,,,,,,,,,,,,,,,,,,,,,,,,,,,,,,,,,,,,,,,,,,,,,,,,,,,,,,,,,,,,,,,,,,,,,,,,,,
0,5,5,74,1,,611e5a53b063fa0cfe9e59b7,62b2acbccf00c0c5f626ba1e,2022-06-22_08h32.47.347,Colour_Asymmetry_Pilot,2022.1.3,Win32,71.64350193,62b2a6a25f2ba72662469a01,,,,,,,,,,,,,,,,,,,,,,,,,,,,,,,,,,,,,,,,,,,,,,,,,,,,,,,,,,,,,,,,,,,,,,,,,,,,,,,,,,,,,,,,,,,,,,,,,,,,,,,,,,,,,,,,,,,,,,,,,,,,,,,,,,,,,,,,,,,,,,,,,,,,,,,,,,,,,,
0,6,6,83,1,,611e5a53b063fa0cfe9e59b7,62b2acbccf00c0c5f626ba1e,2022-06-22_08h32.47.347,Colour_Asymmetry_Pilot,2022.1.3,Win32,71.64350193,62b2a6a25f2ba72662469a01,,,,,,,,,,,,,,,,,,,,,,,,,,,,,,,,,,,,,,,,,,,,,,,,,,,,,,,,,,,,,,,,,,,,,,,,,,,,,,,,,,,,,,,,,,,,,,,,,,,,,,,,,,,,,,,,,,,,,,,,,,,,,,,,,,,,,,,,,,,,,,,,,,,,,,,,,,,,,,
0,7,7,38,1,,611e5a53b063fa0cfe9e59b7,62b2acbccf00c0c5f626ba1e,2022-06-22_08h32.47.347,Colour_Asymmetry_Pilot,2022.1.3,Win32,71.64350193,62b2a6a25f2ba72662469a01,,,,,,,,,,,,,,,,,,,,,,,,,,,,,,,,,,,,,,,,,,,,,,,,,,,,,,,,,,,,,,,,,,,,,,,,,,,,,,,,,,,,,,,,,,,,,,,,,,,,,,,,,,,,,,,,,,,,,,,,,,,,,,,,,,,,,,,,,,,,,,,,,,,,,,,,,,,,,,
0,8,8,66,1,,611e5a53b063fa0cfe9e59b7,62b2acbccf00c0c5f626ba1e,2022-06-22_08h32.47.347,Colour_Asymmetry_Pilot,2022.1.3,Win32,71.64350193,62b2a6a25f2ba72662469a01,,,,,,,,,,,,,,,,,,,,,,,,,,,,,,,,,,,,,,,,,,,,,,,,,,,,,,,,,,,,,,,,,,,,,,,,,,,,,,,,,,,,,,,,,,,,,,,,,,,,,,,,,,,,,,,,,,,,,,,,,,,,,,,,,,,,,,,,,,,,,,,,,,,,,,,,,,,,,,
0,9,9,90,1,,611e5a53b063fa0cfe9e59b7,62b2acbccf00c0c5f626ba1e,2022-06-22_08h32.47.347,Colour_Asymmetry_Pilot,2022.1.3,Win32,71.64350193,62b2a6a25f2ba72662469a01,,,,,,,,,,,,,,,,,,,,,,,,,,,,,,,,,,,,,,,,,,,,,,,,,,,,,,,,,,,,,,,,,,,,,,,,,,,,,,,,,,,,,,,,,,,,,,,,,,,,,,,,,,,,,,,,,,,,,,,,,,,,,,,,,,,,,,,,,,,,,,,,,,,,,,,,,,,,,,
0,10,10,81,1,,611e5a53b063fa0cfe9e59b7,62b2acbccf00c0c5f626ba1e,2022-06-22_08h32.47.347,Colour_Asymmetry_Pilot,2022.1.3,Win32,71.64350193,62b2a6a25f2ba72662469a01,,,,,,,,,,,,,,,,,,,,,,,,,,,,,,,,,,,,,,,,,,,,,,,,,,,,,,,,,,,,,,,,,,,,,,,,,,,,,,,,,,,,,,,,,,,,,,,,,,,,,,,,,,,,,,,,,,,,,,,,,,,,,,,,,,,,,,,,,,,,,,,,,,,,,,,,,,,,,,
0,11,11,92,1,,611e5a53b063fa0cfe9e59b7,62b2acbccf00c0c5f626ba1e,2022-06-22_08h32.47.347,Colour_Asymmetry_Pilot,2022.1.3,Win32,71.64350193,62b2a6a25f2ba72662469a01,,,,,,,,,,,,,,,,,,,,,,,,,,,,,,,,,,,,,,,,,,,,,,,,,,,,,,,,,,,,,,,,,,,,,,,,,,,,,,,,,,,,,,,,,,,,,,,,,,,,,,,,,,,,,,,,,,,,,,,,,,,,,,,,,,,,,,,,,,,,,,,,,,,,,,,,,,,,,,
0,12,12,18,1,,611e5a53b063fa0cfe9e59b7,62b2acbccf00c0c5f626ba1e,2022-06-22_08h32.47.347,Colour_Asymmetry_Pilot,2022.1.3,Win32,71.64350193,62b2a6a25f2ba72662469a01,,,,,,,,,,,,,,,,,,,,,,,,,,,,,,,,,,,,,,,,,,,,,,,,,,,,,,,,,,,,,,,,,,,,,,,,,,,,,,,,,,,,,,,,,,,,,,,,,,,,,,,,,,,,,,,,,,,,,,,,,,,,,,,,,,,,,,,,,,,,,,,,,,,,,,,,,,,,,,
0,13,13,6,1,,611e5a53b063fa0cfe9e59b7,62b2acbccf00c0c5f626ba1e,2022-06-22_08h32.47.347,Colour_Asymmetry_Pilot,2022.1.3,Win32,71.64350193,62b2a6a25f2ba72662469a01,,,,,,,,,,,,,,,,,,,,,,,,,,,,,,,,,,,,,,,,,,,,,,,,,,,,,,,,,,,,,,,,,,,,,,,,,,,,,,,,,,,,,,,,,,,,,,,,,,,,,,,,,,,,,,,,,,,,,,,,,,,,,,,,,,,,,,,,,,,,,,,,,,,,,,,,,,,,,,
0,14,14,89,1,,611e5a53b063fa0cfe9e59b7,62b2acbccf00c0c5f626ba1e,2022-06-22_08h32.47.347,Colour_Asymmetry_Pilot,2022.1.3,Win32,71.64350193,62b2a6a25f2ba72662469a01,,,,,,,,,,,,,,,,,,,,,,,,,,,,,,,,,,,,,,,,,,,,,,,,,,,,,,,,,,,,,,,,,,,,,,,,,,,,,,,,,,,,,,,,,,,,,,,,,,,,,,,,,,,,,,,,,,,,,,,,,,,,,,,,,,,,,,,,,,,,,,,,,,,,,,,,,,,,,,
0,15,15,27,1,,611e5a53b063fa0cfe9e59b7,62b2acbccf00c0c5f626ba1e,2022-06-22_08h32.47.347,Colour_Asymmetry_Pilot,2022.1.3,Win32,71.64350193,62b2a6a25f2ba72662469a01,,,,,,,,,,,,,,,,,,,,,,,,,,,,,,,,,,,,,,,,,,,,,,,,,,,,,,,,,,,,,,,,,,,,,,,,,,,,,,,,,,,,,,,,,,,,,,,,,,,,,,,,,,,,,,,,,,,,,,,,,,,,,,,,,,,,,,,,,,,,,,,,,,,,,,,,,,,,,,
0,16,16,24,1,,611e5a53b063fa0cfe9e59b7,62b2acbccf00c0c5f626ba1e,2022-06-22_08h32.47.347,Colour_Asymmetry_Pilot,2022.1.3,Win32,71.64350193,62b2a6a25f2ba72662469a01,,,,,,,,,,,,,,,,,,,,,,,,,,,,,,,,,,,,,,,,,,,,,,,,,,,,,,,,,,,,,,,,,,,,,,,,,,,,,,,,,,,,,,,,,,,,,,,,,,,,,,,,,,,,,,,,,,,,,,,,,,,,,,,,,,,,,,,,,,,,,,,,,,,,,,,,,,,,,,
0,17,17,35,1,,611e5a53b063fa0cfe9e59b7,62b2acbccf00c0c5f626ba1e,2022-06-22_08h32.47.347,Colour_Asymmetry_Pilot,2022.1.3,Win32,71.64350193,62b2a6a25f2ba72662469a01,,,,,,,,,,,,,,,,,,,,,,,,,,,,,,,,,,,,,,,,,,,,,,,,,,,,,,,,,,,,,,,,,,,,,,,,,,,,,,,,,,,,,,,,,,,,,,,,,,,,,,,,,,,,,,,,,,,,,,,,,,,,,,,,,,,,,,,,,,,,,,,,,,,,,,,,,,,,,,
0,18,18,78,1,,611e5a53b063fa0cfe9e59b7,62b2acbccf00c0c5f626ba1e,2022-06-22_08h32.47.347,Colour_Asymmetry_Pilot,2022.1.3,Win32,71.64350193,62b2a6a25f2ba72662469a01,,,,,,,,,,,,,,,,,,,,,,,,,,,,,,,,,,,,,,,,,,,,,,,,,,,,,,,,,,,,,,,,,,,,,,,,,,,,,,,,,,,,,,,,,,,,,,,,,,,,,,,,,,,,,,,,,,,,,,,,,,,,,,,,,,,,,,,,,,,,,,,,,,,,,,,,,,,,,,
0,19,19,62,1,,611e5a53b063fa0cfe9e59b7,62b2acbccf00c0c5f626ba1e,2022-06-22_08h32.47.347,Colour_Asymmetry_Pilot,2022.1.3,Win32,71.64350193,62b2a6a25f2ba72662469a01,,,,,,,,,,,,,,,,,,,,,,,,,,,,,,,,,,,,,,,,,,,,,,,,,,,,,,,,,,,,,,,,,,,,,,,,,,,,,,,,,,,,,,,,,,,,,,,,,,,,,,,,,,,,,,,,,,,,,,,,,,,,,,,,,,,,,,,,,,,,,,,,,,,,,,,,,,,,,,
0,20,20,39,1,,611e5a53b063fa0cfe9e59b7,62b2acbccf00c0c5f626ba1e,2022-06-22_08h32.47.347,Colour_Asymmetry_Pilot,2022.1.3,Win32,71.64350193,62b2a6a25f2ba72662469a01,,,,,,,,,,,,,,,,,,,,,,,,,,,,,,,,,,,,,,,,,,,,,,,,,,,,,,,,,,,,,,,,,,,,,,,,,,,,,,,,,,,,,,,,,,,,,,,,,,,,,,,,,,,,,,,,,,,,,,,,,,,,,,,,,,,,,,,,,,,,,,,,,,,,,,,,,,,,,,
0,21,21,52,1,,611e5a53b063fa0cfe9e59b7,62b2acbccf00c0c5f626ba1e,2022-06-22_08h32.47.347,Colour_Asymmetry_Pilot,2022.1.3,Win32,71.64350193,62b2a6a25f2ba72662469a01,,,,,,,,,,,,,,,,,,,,,,,,,,,,,,,,,,,,,,,,,,,,,,,,,,,,,,,,,,,,,,,,,,,,,,,,,,,,,,,,,,,,,,,,,,,,,,,,,,,,,,,,,,,,,,,,,,,,,,,,,,,,,,,,,,,,,,,,,,,,,,,,,,,,,,,,,,,,,,
0,22,22,80,1,,611e5a53b063fa0cfe9e59b7,62b2acbccf00c0c5f626ba1e,2022-06-22_08h32.47.347,Colour_Asymmetry_Pilot,2022.1.3,Win32,71.64350193,62b2a6a25f2ba72662469a01,,,,,,,,,,,,,,,,,,,,,,,,,,,,,,,,,,,,,,,,,,,,,,,,,,,,,,,,,,,,,,,,,,,,,,,,,,,,,,,,,,,,,,,,,,,,,,,,,,,,,,,,,,,,,,,,,,,,,,,,,,,,,,,,,,,,,,,,,,,,,,,,,,,,,,,,,,,,,,
0,23,23,77,1,,611e5a53b063fa0cfe9e59b7,62b2acbccf00c0c5f626ba1e,2022-06-22_08h32.47.347,Colour_Asymmetry_Pilot,2022.1.3,Win32,71.64350193,62b2a6a25f2ba72662469a01,,,,,,,,,,,,,,,,,,,,,,,,,,,,,,,,,,,,,,,,,,,,,,,,,,,,,,,,,,,,,,,,,,,,,,,,,,,,,,,,,,,,,,,,,,,,,,,,,,,,,,,,,,,,,,,,,,,,,,,,,,,,,,,,,,,,,,,,,,,,,,,,,,,,,,,,,,,,,,
0,24,24,33,1,,611e5a53b063fa0cfe9e59b7,62b2acbccf00c0c5f626ba1e,2022-06-22_08h32.47.347,Colour_Asymmetry_Pilot,2022.1.3,Win32,71.64350193,62b2a6a25f2ba72662469a01,,,,,,,,,,,,,,,,,,,,,,,,,,,,,,,,,,,,,,,,,,,,,,,,,,,,,,,,,,,,,,,,,,,,,,,,,,,,,,,,,,,,,,,,,,,,,,,,,,,,,,,,,,,,,,,,,,,,,,,,,,,,,,,,,,,,,,,,,,,,,,,,,,,,,,,,,,,,,,
0,25,25,46,1,,611e5a53b063fa0cfe9e59b7,62b2acbccf00c0c5f626ba1e,2022-06-22_08h32.47.347,Colour_Asymmetry_Pilot,2022.1.3,Win32,71.64350193,62b2a6a25f2ba72662469a01,,,,,,,,,,,,,,,,,,,,,,,,,,,,,,,,,,,,,,,,,,,,,,,,,,,,,,,,,,,,,,,,,,,,,,,,,,,,,,,,,,,,,,,,,,,,,,,,,,,,,,,,,,,,,,,,,,,,,,,,,,,,,,,,,,,,,,,,,,,,,,,,,,,,,,,,,,,,,,
0,26,26,23,1,,611e5a53b063fa0cfe9e59b7,62b2acbccf00c0c5f626ba1e,2022-06-22_08h32.47.347,Colour_Asymmetry_Pilot,2022.1.3,Win32,71.64350193,62b2a6a25f2ba72662469a01,,,,,,,,,,,,,,,,,,,,,,,,,,,,,,,,,,,,,,,,,,,,,,,,,,,,,,,,,,,,,,,,,,,,,,,,,,,,,,,,,,,,,,,,,,,,,,,,,,,,,,,,,,,,,,,,,,,,,,,,,,,,,,,,,,,,,,,,,,,,,,,,,,,,,,,,,,,,,,
0,27,27,59,1,,611e5a53b063fa0cfe9e59b7,62b2acbccf00c0c5f626ba1e,2022-06-22_08h32.47.347,Colour_Asymmetry_Pilot,2022.1.3,Win32,71.64350193,62b2a6a25f2ba72662469a01,,,,,,,,,,,,,,,,,,,,,,,,,,,,,,,,,,,,,,,,,,,,,,,,,,,,,,,,,,,,,,,,,,,,,,,,,,,,,,,,,,,,,,,,,,,,,,,,,,,,,,,,,,,,,,,,,,,,,,,,,,,,,,,,,,,,,,,,,,,,,,,,,,,,,,,,,,,,,,
0,28,28,87,1,,611e5a53b063fa0cfe9e59b7,62b2acbccf00c0c5f626ba1e,2022-06-22_08h32.47.347,Colour_Asymmetry_Pilot,2022.1.3,Win32,71.64350193,62b2a6a25f2ba72662469a01,,,,,,,,,,,,,,,,,,,,,,,,,,,,,,,,,,,,,,,,,,,,,,,,,,,,,,,,,,,,,,,,,,,,,,,,,,,,,,,,,,,,,,,,,,,,,,,,,,,,,,,,,,,,,,,,,,,,,,,,,,,,,,,,,,,,,,,,,,,,,,,,,,,,,,,,,,,,,,
0,29,29,29,1,,611e5a53b063fa0cfe9e59b7,62b2acbccf00c0c5f626ba1e,2022-06-22_08h32.47.347,Colour_Asymmetry_Pilot,2022.1.3,Win32,71.64350193,62b2a6a25f2ba72662469a01,,,,,,,,,,,,,,,,,,,,,,,,,,,,,,,,,,,,,,,,,,,,,,,,,,,,,,,,,,,,,,,,,,,,,,,,,,,,,,,,,,,,,,,,,,,,,,,,,,,,,,,,,,,,,,,,,,,,,,,,,,,,,,,,,,,,,,,,,,,,,,,,,,,,,,,,,,,,,,
0,30,30,53,1,,611e5a53b063fa0cfe9e59b7,62b2acbccf00c0c5f626ba1e,2022-06-22_08h32.47.347,Colour_Asymmetry_Pilot,2022.1.3,Win32,71.64350193,62b2a6a25f2ba72662469a01,,,,,,,,,,,,,,,,,,,,,,,,,,,,,,,,,,,,,,,,,,,,,,,,,,,,,,,,,,,,,,,,,,,,,,,,,,,,,,,,,,,,,,,,,,,,,,,,,,,,,,,,,,,,,,,,,,,,,,,,,,,,,,,,,,,,,,,,,,,,,,,,,,,,,,,,,,,,,,
0,31,31,70,1,,611e5a53b063fa0cfe9e59b7,62b2acbccf00c0c5f626ba1e,2022-06-22_08h32.47.347,Colour_Asymmetry_Pilot,2022.1.3,Win32,71.64350193,62b2a6a25f2ba72662469a01,,,,,,,,,,,,,,,,,,,,,,,,,,,,,,,,,,,,,,,,,,,,,,,,,,,,,,,,,,,,,,,,,,,,,,,,,,,,,,,,,,,,,,,,,,,,,,,,,,,,,,,,,,,,,,,,,,,,,,,,,,,,,,,,,,,,,,,,,,,,,,,,,,,,,,,,,,,,,,
0,32,32,47,1,,611e5a53b063fa0cfe9e59b7,62b2acbccf00c0c5f626ba1e,2022-06-22_08h32.47.347,Colour_Asymmetry_Pilot,2022.1.3,Win32,71.64350193,62b2a6a25f2ba72662469a01,,,,,,,,,,,,,,,,,,,,,,,,,,,,,,,,,,,,,,,,,,,,,,,,,,,,,,,,,,,,,,,,,,,,,,,,,,,,,,,,,,,,,,,,,,,,,,,,,,,,,,,,,,,,,,,,,,,,,,,,,,,,,,,,,,,,,,,,,,,,,,,,,,,,,,,,,,,,,,
0,33,33,22,1,,611e5a53b063fa0cfe9e59b7,62b2acbccf00c0c5f626ba1e,2022-06-22_08h32.47.347,Colour_Asymmetry_Pilot,2022.1.3,Win32,71.64350193,62b2a6a25f2ba72662469a01,,,,,,,,,,,,,,,,,,,,,,,,,,,,,,,,,,,,,,,,,,,,,,,,,,,,,,,,,,,,,,,,,,,,,,,,,,,,,,,,,,,,,,,,,,,,,,,,,,,,,,,,,,,,,,,,,,,,,,,,,,,,,,,,,,,,,,,,,,,,,,,,,,,,,,,,,,,,,,
0,34,34,45,1,,611e5a53b063fa0cfe9e59b7,62b2acbccf00c0c5f626ba1e,2022-06-22_08h32.47.347,Colour_Asymmetry_Pilot,2022.1.3,Win32,71.64350193,62b2a6a25f2ba72662469a01,,,,,,,,,,,,,,,,,,,,,,,,,,,,,,,,,,,,,,,,,,,,,,,,,,,,,,,,,,,,,,,,,,,,,,,,,,,,,,,,,,,,,,,,,,,,,,,,,,,,,,,,,,,,,,,,,,,,,,,,,,,,,,,,,,,,,,,,,,,,,,,,,,,,,,,,,,,,,,
0,35,35,61,1,,611e5a53b063fa0cfe9e59b7,62b2acbccf00c0c5f626ba1e,2022-06-22_08h32.47.347,Colour_Asymmetry_Pilot,2022.1.3,Win32,71.64350193,62b2a6a25f2ba72662469a01,,,,,,,,,,,,,,,,,,,,,,,,,,,,,,,,,,,,,,,,,,,,,,,,,,,,,,,,,,,,,,,,,,,,,,,,,,,,,,,,,,,,,,,,,,,,,,,,,,,,,,,,,,,,,,,,,,,,,,,,,,,,,,,,,,,,,,,,,,,,,,,,,,,,,,,,,,,,,,
0,36,36,20,1,,611e5a53b063fa0cfe9e59b7,62b2acbccf00c0c5f626ba1e,2022-06-22_08h32.47.347,Colour_Asymmetry_Pilot,2022.1.3,Win32,71.64350193,62b2a6a25f2ba72662469a01,,,,,,,,,,,,,,,,,,,,,,,,,,,,,,,,,,,,,,,,,,,,,,,,,,,,,,,,,,,,,,,,,,,,,,,,,,,,,,,,,,,,,,,,,,,,,,,,,,,,,,,,,,,,,,,,,,,,,,,,,,,,,,,,,,,,,,,,,,,,,,,,,,,,,,,,,,,,,,
0,37,37,67,1,,611e5a53b063fa0cfe9e59b7,62b2acbccf00c0c5f626ba1e,2022-06-22_08h32.47.347,Colour_Asymmetry_Pilot,2022.1.3,Win32,71.64350193,62b2a6a25f2ba72662469a01,,,,,,,,,,,,,,,,,,,,,,,,,,,,,,,,,,,,,,,,,,,,,,,,,,,,,,,,,,,,,,,,,,,,,,,,,,,,,,,,,,,,,,,,,,,,,,,,,,,,,,,,,,,,,,,,,,,,,,,,,,,,,,,,,,,,,,,,,,,,,,,,,,,,,,,,,,,,,,
0,38,38,69,1,,611e5a53b063fa0cfe9e59b7,62b2acbccf00c0c5f626ba1e,2022-06-22_08h32.47.347,Colour_Asymmetry_Pilot,2022.1.3,Win32,71.64350193,62b2a6a25f2ba72662469a01,,,,,,,,,,,,,,,,,,,,,,,,,,,,,,,,,,,,,,,,,,,,,,,,,,,,,,,,,,,,,,,,,,,,,,,,,,,,,,,,,,,,,,,,,,,,,,,,,,,,,,,,,,,,,,,,,,,,,,,,,,,,,,,,,,,,,,,,,,,,,,,,,,,,,,,,,,,,,,
0,39,39,60,1,,611e5a53b063fa0cfe9e59b7,62b2acbccf00c0c5f626ba1e,2022-06-22_08h32.47.347,Colour_Asymmetry_Pilot,2022.1.3,Win32,71.64350193,62b2a6a25f2ba72662469a01,,,,,,,,,,,,,,,,,,,,,,,,,,,,,,,,,,,,,,,,,,,,,,,,,,,,,,,,,,,,,,,,,,,,,,,,,,,,,,,,,,,,,,,,,,,,,,,,,,,,,,,,,,,,,,,,,,,,,,,,,,,,,,,,,,,,,,,,,,,,,,,,,,,,,,,,,,,,,,
0,40,40,75,1,,611e5a53b063fa0cfe9e59b7,62b2acbccf00c0c5f626ba1e,2022-06-22_08h32.47.347,Colour_Asymmetry_Pilot,2022.1.3,Win32,71.64350193,62b2a6a25f2ba72662469a01,,,,,,,,,,,,,,,,,,,,,,,,,,,,,,,,,,,,,,,,,,,,,,,,,,,,,,,,,,,,,,,,,,,,,,,,,,,,,,,,,,,,,,,,,,,,,,,,,,,,,,,,,,,,,,,,,,,,,,,,,,,,,,,,,,,,,,,,,,,,,,,,,,,,,,,,,,,,,,
0,41,41,79,1,,611e5a53b063fa0cfe9e59b7,62b2acbccf00c0c5f626ba1e,2022-06-22_08h32.47.347,Colour_Asymmetry_Pilot,2022.1.3,Win32,71.64350193,62b2a6a25f2ba72662469a01,,,,,,,,,,,,,,,,,,,,,,,,,,,,,,,,,,,,,,,,,,,,,,,,,,,,,,,,,,,,,,,,,,,,,,,,,,,,,,,,,,,,,,,,,,,,,,,,,,,,,,,,,,,,,,,,,,,,,,,,,,,,,,,,,,,,,,,,,,,,,,,,,,,,,,,,,,,,,,
0,42,42,3,1,,611e5a53b063fa0cfe9e59b7,62b2acbccf00c0c5f626ba1e,2022-06-22_08h32.47.347,Colour_Asymmetry_Pilot,2022.1.3,Win32,71.64350193,62b2a6a25f2ba72662469a01,,,,,,,,,,,,,,,,,,,,,,,,,,,,,,,,,,,,,,,,,,,,,,,,,,,,,,,,,,,,,,,,,,,,,,,,,,,,,,,,,,,,,,,,,,,,,,,,,,,,,,,,,,,,,,,,,,,,,,,,,,,,,,,,,,,,,,,,,,,,,,,,,,,,,,,,,,,,,,
0,43,43,68,1,,611e5a53b063fa0cfe9e59b7,62b2acbccf00c0c5f626ba1e,2022-06-22_08h32.47.347,Colour_Asymmetry_Pilot,2022.1.3,Win32,71.64350193,62b2a6a25f2ba72662469a01,,,,,,,,,,,,,,,,,,,,,,,,,,,,,,,,,,,,,,,,,,,,,,,,,,,,,,,,,,,,,,,,,,,,,,,,,,,,,,,,,,,,,,,,,,,,,,,,,,,,,,,,,,,,,,,,,,,,,,,,,,,,,,,,,,,,,,,,,,,,,,,,,,,,,,,,,,,,,,
0,44,44,71,1,,611e5a53b063fa0cfe9e59b7,62b2acbccf00c0c5f626ba1e,2022-06-22_08h32.47.347,Colour_Asymmetry_Pilot,2022.1.3,Win32,71.64350193,62b2a6a25f2ba72662469a01,,,,,,,,,,,,,,,,,,,,,,,,,,,,,,,,,,,,,,,,,,,,,,,,,,,,,,,,,,,,,,,,,,,,,,,,,,,,,,,,,,,,,,,,,,,,,,,,,,,,,,,,,,,,,,,,,,,,,,,,,,,,,,,,,,,,,,,,,,,,,,,,,,,,,,,,,,,,,,
0,45,45,43,1,,611e5a53b063fa0cfe9e59b7,62b2acbccf00c0c5f626ba1e,2022-06-22_08h32.47.347,Colour_Asymmetry_Pilot,2022.1.3,Win32,71.64350193,62b2a6a25f2ba72662469a01,,,,,,,,,,,,,,,,,,,,,,,,,,,,,,,,,,,,,,,,,,,,,,,,,,,,,,,,,,,,,,,,,,,,,,,,,,,,,,,,,,,,,,,,,,,,,,,,,,,,,,,,,,,,,,,,,,,,,,,,,,,,,,,,,,,,,,,,,,,,,,,,,,,,,,,,,,,,,,
0,46,46,72,1,,611e5a53b063fa0cfe9e59b7,62b2acbccf00c0c5f626ba1e,2022-06-22_08h32.47.347,Colour_Asymmetry_Pilot,2022.1.3,Win32,71.64350193,62b2a6a25f2ba72662469a01,,,,,,,,,,,,,,,,,,,,,,,,,,,,,,,,,,,,,,,,,,,,,,,,,,,,,,,,,,,,,,,,,,,,,,,,,,,,,,,,,,,,,,,,,,,,,,,,,,,,,,,,,,,,,,,,,,,,,,,,,,,,,,,,,,,,,,,,,,,,,,,,,,,,,,,,,,,,,,
0,47,47,21,1,,611e5a53b063fa0cfe9e59b7,62b2acbccf00c0c5f626ba1e,2022-06-22_08h32.47.347,Colour_Asymmetry_Pilot,2022.1.3,Win32,71.64350193,62b2a6a25f2ba72662469a01,,,,,,,,,,,,,,,,,,,,,,,,,,,,,,,,,,,,,,,,,,,,,,,,,,,,,,,,,,,,,,,,,,,,,,,,,,,,,,,,,,,,,,,,,,,,,,,,,,,,,,,,,,,,,,,,,,,,,,,,,,,,,,,,,,,,,,,,,,,,,,,,,,,,,,,,,,,,,,
0,48,48,56,1,,611e5a53b063fa0cfe9e59b7,62b2acbccf00c0c5f626ba1e,2022-06-22_08h32.47.347,Colour_Asymmetry_Pilot,2022.1.3,Win32,71.64350193,62b2a6a25f2ba72662469a01,,,,,,,,,,,,,,,,,,,,,,,,,,,,,,,,,,,,,,,,,,,,,,,,,,,,,,,,,,,,,,,,,,,,,,,,,,,,,,,,,,,,,,,,,,,,,,,,,,,,,,,,,,,,,,,,,,,,,,,,,,,,,,,,,,,,,,,,,,,,,,,,,,,,,,,,,,,,,,
0,49,49,12,1,,611e5a53b063fa0cfe9e59b7,62b2acbccf00c0c5f626ba1e,2022-06-22_08h32.47.347,Colour_Asymmetry_Pilot,2022.1.3,Win32,71.64350193,62b2a6a25f2ba72662469a01,,,,,,,,,,,,,,,,,,,,,,,,,,,,,,,,,,,,,,,,,,,,,,,,,,,,,,,,,,,,,,,,,,,,,,,,,,,,,,,,,,,,,,,,,,,,,,,,,,,,,,,,,,,,,,,,,,,,,,,,,,,,,,,,,,,,,,,,,,,,,,,,,,,,,,,,,,,,,,
0,50,50,16,1,,611e5a53b063fa0cfe9e59b7,62b2acbccf00c0c5f626ba1e,2022-06-22_08h32.47.347,Colour_Asymmetry_Pilot,2022.1.3,Win32,71.64350193,62b2a6a25f2ba72662469a01,,,,,,,,,,,,,,,,,,,,,,,,,,,,,,,,,,,,,,,,,,,,,,,,,,,,,,,,,,,,,,,,,,,,,,,,,,,,,,,,,,,,,,,,,,,,,,,,,,,,,,,,,,,,,,,,,,,,,,,,,,,,,,,,,,,,,,,,,,,,,,,,,,,,,,,,,,,,,,
0,51,51,14,1,,611e5a53b063fa0cfe9e59b7,62b2acbccf00c0c5f626ba1e,2022-06-22_08h32.47.347,Colour_Asymmetry_Pilot,2022.1.3,Win32,71.64350193,62b2a6a25f2ba72662469a01,,,,,,,,,,,,,,,,,,,,,,,,,,,,,,,,,,,,,,,,,,,,,,,,,,,,,,,,,,,,,,,,,,,,,,,,,,,,,,,,,,,,,,,,,,,,,,,,,,,,,,,,,,,,,,,,,,,,,,,,,,,,,,,,,,,,,,,,,,,,,,,,,,,,,,,,,,,,,,
0,52,52,50,1,,611e5a53b063fa0cfe9e59b7,62b2acbccf00c0c5f626ba1e,2022-06-22_08h32.47.347,Colour_Asymmetry_Pilot,2022.1.3,Win32,71.64350193,62b2a6a25f2ba72662469a01,,,,,,,,,,,,,,,,,,,,,,,,,,,,,,,,,,,,,,,,,,,,,,,,,,,,,,,,,,,,,,,,,,,,,,,,,,,,,,,,,,,,,,,,,,,,,,,,,,,,,,,,,,,,,,,,,,,,,,,,,,,,,,,,,,,,,,,,,,,,,,,,,,,,,,,,,,,,,,
0,53,53,32,1,,611e5a53b063fa0cfe9e59b7,62b2acbccf00c0c5f626ba1e,2022-06-22_08h32.47.347,Colour_Asymmetry_Pilot,2022.1.3,Win32,71.64350193,62b2a6a25f2ba72662469a01,,,,,,,,,,,,,,,,,,,,,,,,,,,,,,,,,,,,,,,,,,,,,,,,,,,,,,,,,,,,,,,,,,,,,,,,,,,,,,,,,,,,,,,,,,,,,,,,,,,,,,,,,,,,,,,,,,,,,,,,,,,,,,,,,,,,,,,,,,,,,,,,,,,,,,,,,,,,,,
0,54,54,37,1,,611e5a53b063fa0cfe9e59b7,62b2acbccf00c0c5f626ba1e,2022-06-22_08h32.47.347,Colour_Asymmetry_Pilot,2022.1.3,Win32,71.64350193,62b2a6a25f2ba72662469a01,,,,,,,,,,,,,,,,,,,,,,,,,,,,,,,,,,,,,,,,,,,,,,,,,,,,,,,,,,,,,,,,,,,,,,,,,,,,,,,,,,,,,,,,,,,,,,,,,,,,,,,,,,,,,,,,,,,,,,,,,,,,,,,,,,,,,,,,,,,,,,,,,,,,,,,,,,,,,,
0,55,55,30,1,,611e5a53b063fa0cfe9e59b7,62b2acbccf00c0c5f626ba1e,2022-06-22_08h32.47.347,Colour_Asymmetry_Pilot,2022.1.3,Win32,71.64350193,62b2a6a25f2ba72662469a01,,,,,,,,,,,,,,,,,,,,,,,,,,,,,,,,,,,,,,,,,,,,,,,,,,,,,,,,,,,,,,,,,,,,,,,,,,,,,,,,,,,,,,,,,,,,,,,,,,,,,,,,,,,,,,,,,,,,,,,,,,,,,,,,,,,,,,,,,,,,,,,,,,,,,,,,,,,,,,
0,56,56,85,1,,611e5a53b063fa0cfe9e59b7,62b2acbccf00c0c5f626ba1e,2022-06-22_08h32.47.347,Colour_Asymmetry_Pilot,2022.1.3,Win32,71.64350193,62b2a6a25f2ba72662469a01,,,,,,,,,,,,,,,,,,,,,,,,,,,,,,,,,,,,,,,,,,,,,,,,,,,,,,,,,,,,,,,,,,,,,,,,,,,,,,,,,,,,,,,,,,,,,,,,,,,,,,,,,,,,,,,,,,,,,,,,,,,,,,,,,,,,,,,,,,,,,,,,,,,,,,,,,,,,,,
0,57,57,84,1,,611e5a53b063fa0cfe9e59b7,62b2acbccf00c0c5f626ba1e,2022-06-22_08h32.47.347,Colour_Asymmetry_Pilot,2022.1.3,Win32,71.64350193,62b2a6a25f2ba72662469a01,,,,,,,,,,,,,,,,,,,,,,,,,,,,,,,,,,,,,,,,,,,,,,,,,,,,,,,,,,,,,,,,,,,,,,,,,,,,,,,,,,,,,,,,,,,,,,,,,,,,,,,,,,,,,,,,,,,,,,,,,,,,,,,,,,,,,,,,,,,,,,,,,,,,,,,,,,,,,,
0,58,58,2,1,,611e5a53b063fa0cfe9e59b7,62b2acbccf00c0c5f626ba1e,2022-06-22_08h32.47.347,Colour_Asymmetry_Pilot,2022.1.3,Win32,71.64350193,62b2a6a25f2ba72662469a01,,,,,,,,,,,,,,,,,,,,,,,,,,,,,,,,,,,,,,,,,,,,,,,,,,,,,,,,,,,,,,,,,,,,,,,,,,,,,,,,,,,,,,,,,,,,,,,,,,,,,,,,,,,,,,,,,,,,,,,,,,,,,,,,,,,,,,,,,,,,,,,,,,,,,,,,,,,,,,
0,59,59,73,1,,611e5a53b063fa0cfe9e59b7,62b2acbccf00c0c5f626ba1e,2022-06-22_08h32.47.347,Colour_Asymmetry_Pilot,2022.1.3,Win32,71.64350193,62b2a6a25f2ba72662469a01,,,,,,,,,,,,,,,,,,,,,,,,,,,,,,,,,,,,,,,,,,,,,,,,,,,,,,,,,,,,,,,,,,,,,,,,,,,,,,,,,,,,,,,,,,,,,,,,,,,,,,,,,,,,,,,,,,,,,,,,,,,,,,,,,,,,,,,,,,,,,,,,,,,,,,,,,,,,,,
0,60,60,63,1,,611e5a53b063fa0cfe9e59b7,62b2acbccf00c0c5f626ba1e,2022-06-22_08h32.47.347,Colour_Asymmetry_Pilot,2022.1.3,Win32,71.64350193,62b2a6a25f2ba72662469a01,,,,,,,,,,,,,,,,,,,,,,,,,,,,,,,,,,,,,,,,,,,,,,,,,,,,,,,,,,,,,,,,,,,,,,,,,,,,,,,,,,,,,,,,,,,,,,,,,,,,,,,,,,,,,,,,,,,,,,,,,,,,,,,,,,,,,,,,,,,,,,,,,,,,,,,,,,,,,,
0,61,61,34,1,,611e5a53b063fa0cfe9e59b7,62b2acbccf00c0c5f626ba1e,2022-06-22_08h32.47.347,Colour_Asymmetry_Pilot,2022.1.3,Win32,71.64350193,62b2a6a25f2ba72662469a01,,,,,,,,,,,,,,,,,,,,,,,,,,,,,,,,,,,,,,,,,,,,,,,,,,,,,,,,,,,,,,,,,,,,,,,,,,,,,,,,,,,,,,,,,,,,,,,,,,,,,,,,,,,,,,,,,,,,,,,,,,,,,,,,,,,,,,,,,,,,,,,,,,,,,,,,,,,,,,
0,62,62,64,1,,611e5a53b063fa0cfe9e59b7,62b2acbccf00c0c5f626ba1e,2022-06-22_08h32.47.347,Colour_Asymmetry_Pilot,2022.1.3,Win32,71.64350193,62b2a6a25f2ba72662469a01,,,,,,,,,,,,,,,,,,,,,,,,,,,,,,,,,,,,,,,,,,,,,,,,,,,,,,,,,,,,,,,,,,,,,,,,,,,,,,,,,,,,,,,,,,,,,,,,,,,,,,,,,,,,,,,,,,,,,,,,,,,,,,,,,,,,,,,,,,,,,,,,,,,,,,,,,,,,,,
0,63,63,13,1,,611e5a53b063fa0cfe9e59b7,62b2acbccf00c0c5f626ba1e,2022-06-22_08h32.47.347,Colour_Asymmetry_Pilot,2022.1.3,Win32,71.64350193,62b2a6a25f2ba72662469a01,,,,,,,,,,,,,,,,,,,,,,,,,,,,,,,,,,,,,,,,,,,,,,,,,,,,,,,,,,,,,,,,,,,,,,,,,,,,,,,,,,,,,,,,,,,,,,,,,,,,,,,,,,,,,,,,,,,,,,,,,,,,,,,,,,,,,,,,,,,,,,,,,,,,,,,,,,,,,,
0,64,64,15,1,,611e5a53b063fa0cfe9e59b7,62b2acbccf00c0c5f626ba1e,2022-06-22_08h32.47.347,Colour_Asymmetry_Pilot,2022.1.3,Win32,71.64350193,62b2a6a25f2ba72662469a01,,,,,,,,,,,,,,,,,,,,,,,,,,,,,,,,,,,,,,,,,,,,,,,,,,,,,,,,,,,,,,,,,,,,,,,,,,,,,,,,,,,,,,,,,,,,,,,,,,,,,,,,,,,,,,,,,,,,,,,,,,,,,,,,,,,,,,,,,,,,,,,,,,,,,,,,,,,,,,
0,65,65,54,1,,611e5a53b063fa0cfe9e59b7,62b2acbccf00c0c5f626ba1e,2022-06-22_08h32.47.347,Colour_Asymmetry_Pilot,2022.1.3,Win32,71.64350193,62b2a6a25f2ba72662469a01,,,,,,,,,,,,,,,,,,,,,,,,,,,,,,,,,,,,,,,,,,,,,,,,,,,,,,,,,,,,,,,,,,,,,,,,,,,,,,,,,,,,,,,,,,,,,,,,,,,,,,,,,,,,,,,,,,,,,,,,,,,,,,,,,,,,,,,,,,,,,,,,,,,,,,,,,,,,,,
0,66,66,17,1,,611e5a53b063fa0cfe9e59b7,62b2acbccf00c0c5f626ba1e,2022-06-22_08h32.47.347,Colour_Asymmetry_Pilot,2022.1.3,Win32,71.64350193,62b2a6a25f2ba72662469a01,,,,,,,,,,,,,,,,,,,,,,,,,,,,,,,,,,,,,,,,,,,,,,,,,,,,,,,,,,,,,,,,,,,,,,,,,,,,,,,,,,,,,,,,,,,,,,,,,,,,,,,,,,,,,,,,,,,,,,,,,,,,,,,,,,,,,,,,,,,,,,,,,,,,,,,,,,,,,,
0,67,67,51,1,,611e5a53b063fa0cfe9e59b7,62b2acbccf00c0c5f626ba1e,2022-06-22_08h32.47.347,Colour_Asymmetry_Pilot,2022.1.3,Win32,71.64350193,62b2a6a25f2ba72662469a01,,,,,,,,,,,,,,,,,,,,,,,,,,,,,,,,,,,,,,,,,,,,,,,,,,,,,,,,,,,,,,,,,,,,,,,,,,,,,,,,,,,,,,,,,,,,,,,,,,,,,,,,,,,,,,,,,,,,,,,,,,,,,,,,,,,,,,,,,,,,,,,,,,,,,,,,,,,,,,
0,68,68,65,1,,611e5a53b063fa0cfe9e59b7,62b2acbccf00c0c5f626ba1e,2022-06-22_08h32.47.347,Colour_Asymmetry_Pilot,2022.1.3,Win32,71.64350193,62b2a6a25f2ba72662469a01,,,,,,,,,,,,,,,,,,,,,,,,,,,,,,,,,,,,,,,,,,,,,,,,,,,,,,,,,,,,,,,,,,,,,,,,,,,,,,,,,,,,,,,,,,,,,,,,,,,,,,,,,,,,,,,,,,,,,,,,,,,,,,,,,,,,,,,,,,,,,,,,,,,,,,,,,,,,,,
0,69,69,8,1,,611e5a53b063fa0cfe9e59b7,62b2acbccf00c0c5f626ba1e,2022-06-22_08h32.47.347,Colour_Asymmetry_Pilot,2022.1.3,Win32,71.64350193,62b2a6a25f2ba72662469a01,,,,,,,,,,,,,,,,,,,,,,,,,,,,,,,,,,,,,,,,,,,,,,,,,,,,,,,,,,,,,,,,,,,,,,,,,,,,,,,,,,,,,,,,,,,,,,,,,,,,,,,,,,,,,,,,,,,,,,,,,,,,,,,,,,,,,,,,,,,,,,,,,,,,,,,,,,,,,,
0,70,70,11,1,,611e5a53b063fa0cfe9e59b7,62b2acbccf00c0c5f626ba1e,2022-06-22_08h32.47.347,Colour_Asymmetry_Pilot,2022.1.3,Win32,71.64350193,62b2a6a25f2ba72662469a01,,,,,,,,,,,,,,,,,,,,,,,,,,,,,,,,,,,,,,,,,,,,,,,,,,,,,,,,,,,,,,,,,,,,,,,,,,,,,,,,,,,,,,,,,,,,,,,,,,,,,,,,,,,,,,,,,,,,,,,,,,,,,,,,,,,,,,,,,,,,,,,,,,,,,,,,,,,,,,
0,71,71,0,1,,611e5a53b063fa0cfe9e59b7,62b2acbccf00c0c5f626ba1e,2022-06-22_08h32.47.347,Colour_Asymmetry_Pilot,2022.1.3,Win32,71.64350193,62b2a6a25f2ba72662469a01,,,,,,,,,,,,,,,,,,,,,,,,,,,,,,,,,,,,,,,,,,,,,,,,,,,,,,,,,,,,,,,,,,,,,,,,,,,,,,,,,,,,,,,,,,,,,,,,,,,,,,,,,,,,,,,,,,,,,,,,,,,,,,,,,,,,,,,,,,,,,,,,,,,,,,,,,,,,,,
0,72,72,26,1,,611e5a53b063fa0cfe9e59b7,62b2acbccf00c0c5f626ba1e,2022-06-22_08h32.47.347,Colour_Asymmetry_Pilot,2022.1.3,Win32,71.64350193,62b2a6a25f2ba72662469a01,,,,,,,,,,,,,,,,,,,,,,,,,,,,,,,,,,,,,,,,,,,,,,,,,,,,,,,,,,,,,,,,,,,,,,,,,,,,,,,,,,,,,,,,,,,,,,,,,,,,,,,,,,,,,,,,,,,,,,,,,,,,,,,,,,,,,,,,,,,,,,,,,,,,,,,,,,,,,,
0,73,73,82,1,,611e5a53b063fa0cfe9e59b7,62b2acbccf00c0c5f626ba1e,2022-06-22_08h32.47.347,Colour_Asymmetry_Pilot,2022.1.3,Win32,71.64350193,62b2a6a25f2ba72662469a01,,,,,,,,,,,,,,,,,,,,,,,,,,,,,,,,,,,,,,,,,,,,,,,,,,,,,,,,,,,,,,,,,,,,,,,,,,,,,,,,,,,,,,,,,,,,,,,,,,,,,,,,,,,,,,,,,,,,,,,,,,,,,,,,,,,,,,,,,,,,,,,,,,,,,,,,,,,,,,
0,74,74,48,1,,611e5a53b063fa0cfe9e59b7,62b2acbccf00c0c5f626ba1e,2022-06-22_08h32.47.347,Colour_Asymmetry_Pilot,2022.1.3,Win32,71.64350193,62b2a6a25f2ba72662469a01,,,,,,,,,,,,,,,,,,,,,,,,,,,,,,,,,,,,,,,,,,,,,,,,,,,,,,,,,,,,,,,,,,,,,,,,,,,,,,,,,,,,,,,,,,,,,,,,,,,,,,,,,,,,,,,,,,,,,,,,,,,,,,,,,,,,,,,,,,,,,,,,,,,,,,,,,,,,,,
0,75,75,42,1,,611e5a53b063fa0cfe9e59b7,62b2acbccf00c0c5f626ba1e,2022-06-22_08h32.47.347,Colour_Asymmetry_Pilot,2022.1.3,Win32,71.64350193,62b2a6a25f2ba72662469a01,,,,,,,,,,,,,,,,,,,,,,,,,,,,,,,,,,,,,,,,,,,,,,,,,,,,,,,,,,,,,,,,,,,,,,,,,,,,,,,,,,,,,,,,,,,,,,,,,,,,,,,,,,,,,,,,,,,,,,,,,,,,,,,,,,,,,,,,,,,,,,,,,,,,,,,,,,,,,,
0,76,76,58,1,,611e5a53b063fa0cfe9e59b7,62b2acbccf00c0c5f626ba1e,2022-06-22_08h32.47.347,Colour_Asymmetry_Pilot,2022.1.3,Win32,71.64350193,62b2a6a25f2ba72662469a01,,,,,,,,,,,,,,,,,,,,,,,,,,,,,,,,,,,,,,,,,,,,,,,,,,,,,,,,,,,,,,,,,,,,,,,,,,,,,,,,,,,,,,,,,,,,,,,,,,,,,,,,,,,,,,,,,,,,,,,,,,,,,,,,,,,,,,,,,,,,,,,,,,,,,,,,,,,,,,
0,77,77,25,1,,611e5a53b063fa0cfe9e59b7,62b2acbccf00c0c5f626ba1e,2022-06-22_08h32.47.347,Colour_Asymmetry_Pilot,2022.1.3,Win32,71.64350193,62b2a6a25f2ba72662469a01,,,,,,,,,,,,,,,,,,,,,,,,,,,,,,,,,,,,,,,,,,,,,,,,,,,,,,,,,,,,,,,,,,,,,,,,,,,,,,,,,,,,,,,,,,,,,,,,,,,,,,,,,,,,,,,,,,,,,,,,,,,,,,,,,,,,,,,,,,,,,,,,,,,,,,,,,,,,,,
0,78,78,28,1,,611e5a53b063fa0cfe9e59b7,62b2acbccf00c0c5f626ba1e,2022-06-22_08h32.47.347,Colour_Asymmetry_Pilot,2022.1.3,Win32,71.64350193,62b2a6a25f2ba72662469a01,,,,,,,,,,,,,,,,,,,,,,,,,,,,,,,,,,,,,,,,,,,,,,,,,,,,,,,,,,,,,,,,,,,,,,,,,,,,,,,,,,,,,,,,,,,,,,,,,,,,,,,,,,,,,,,,,,,,,,,,,,,,,,,,,,,,,,,,,,,,,,,,,,,,,,,,,,,,,,
0,79,79,76,1,,611e5a53b063fa0cfe9e59b7,62b2acbccf00c0c5f626ba1e,2022-06-22_08h32.47.347,Colour_Asymmetry_Pilot,2022.1.3,Win32,71.64350193,62b2a6a25f2ba72662469a01,,,,,,,,,,,,,,,,,,,,,,,,,,,,,,,,,,,,,,,,,,,,,,,,,,,,,,,,,,,,,,,,,,,,,,,,,,,,,,,,,,,,,,,,,,,,,,,,,,,,,,,,,,,,,,,,,,,,,,,,,,,,,,,,,,,,,,,,,,,,,,,,,,,,,,,,,,,,,,
0,80,80,88,1,,611e5a53b063fa0cfe9e59b7,62b2acbccf00c0c5f626ba1e,2022-06-22_08h32.47.347,Colour_Asymmetry_Pilot,2022.1.3,Win32,71.64350193,62b2a6a25f2ba72662469a01,,,,,,,,,,,,,,,,,,,,,,,,,,,,,,,,,,,,,,,,,,,,,,,,,,,,,,,,,,,,,,,,,,,,,,,,,,,,,,,,,,,,,,,,,,,,,,,,,,,,,,,,,,,,,,,,,,,,,,,,,,,,,,,,,,,,,,,,,,,,,,,,,,,,,,,,,,,,,,
0,81,81,9,1,,611e5a53b063fa0cfe9e59b7,62b2acbccf00c0c5f626ba1e,2022-06-22_08h32.47.347,Colour_Asymmetry_Pilot,2022.1.3,Win32,71.64350193,62b2a6a25f2ba72662469a01,,,,,,,,,,,,,,,,,,,,,,,,,,,,,,,,,,,,,,,,,,,,,,,,,,,,,,,,,,,,,,,,,,,,,,,,,,,,,,,,,,,,,,,,,,,,,,,,,,,,,,,,,,,,,,,,,,,,,,,,,,,,,,,,,,,,,,,,,,,,,,,,,,,,,,,,,,,,,,
0,82,82,19,1,,611e5a53b063fa0cfe9e59b7,62b2acbccf00c0c5f626ba1e,2022-06-22_08h32.47.347,Colour_Asymmetry_Pilot,2022.1.3,Win32,71.64350193,62b2a6a25f2ba72662469a01,,,,,,,,,,,,,,,,,,,,,,,,,,,,,,,,,,,,,,,,,,,,,,,,,,,,,,,,,,,,,,,,,,,,,,,,,,,,,,,,,,,,,,,,,,,,,,,,,,,,,,,,,,,,,,,,,,,,,,,,,,,,,,,,,,,,,,,,,,,,,,,,,,,,,,,,,,,,,,
0,83,83,57,1,,611e5a53b063fa0cfe9e59b7,62b2acbccf00c0c5f626ba1e,2022-06-22_08h32.47.347,Colour_Asymmetry_Pilot,2022.1.3,Win32,71.64350193,62b2a6a25f2ba72662469a01,,,,,,,,,,,,,,,,,,,,,,,,,,,,,,,,,,,,,,,,,,,,,,,,,,,,,,,,,,,,,,,,,,,,,,,,,,,,,,,,,,,,,,,,,,,,,,,,,,,,,,,,,,,,,,,,,,,,,,,,,,,,,,,,,,,,,,,,,,,,,,,,,,,,,,,,,,,,,,
0,84,84,4,1,,611e5a53b063fa0cfe9e59b7,62b2acbccf00c0c5f626ba1e,2022-06-22_08h32.47.347,Colour_Asymmetry_Pilot,2022.1.3,Win32,71.64350193,62b2a6a25f2ba72662469a01,,,,,,,,,,,,,,,,,,,,,,,,,,,,,,,,,,,,,,,,,,,,,,,,,,,,,,,,,,,,,,,,,,,,,,,,,,,,,,,,,,,,,,,,,,,,,,,,,,,,,,,,,,,,,,,,,,,,,,,,,,,,,,,,,,,,,,,,,,,,,,,,,,,,,,,,,,,,,,
0,85,85,10,1,,611e5a53b063fa0cfe9e59b7,62b2acbccf00c0c5f626ba1e,2022-06-22_08h32.47.347,Colour_Asymmetry_Pilot,2022.1.3,Win32,71.64350193,62b2a6a25f2ba72662469a01,,,,,,,,,,,,,,,,,,,,,,,,,,,,,,,,,,,,,,,,,,,,,,,,,,,,,,,,,,,,,,,,,,,,,,,,,,,,,,,,,,,,,,,,,,,,,,,,,,,,,,,,,,,,,,,,,,,,,,,,,,,,,,,,,,,,,,,,,,,,,,,,,,,,,,,,,,,,,,
0,86,86,1,1,,611e5a53b063fa0cfe9e59b7,62b2acbccf00c0c5f626ba1e,2022-06-22_08h32.47.347,Colour_Asymmetry_Pilot,2022.1.3,Win32,71.64350193,62b2a6a25f2ba72662469a01,,,,,,,,,,,,,,,,,,,,,,,,,,,,,,,,,,,,,,,,,,,,,,,,,,,,,,,,,,,,,,,,,,,,,,,,,,,,,,,,,,,,,,,,,,,,,,,,,,,,,,,,,,,,,,,,,,,,,,,,,,,,,,,,,,,,,,,,,,,,,,,,,,,,,,,,,,,,,,
0,87,87,5,1,,611e5a53b063fa0cfe9e59b7,62b2acbccf00c0c5f626ba1e,2022-06-22_08h32.47.347,Colour_Asymmetry_Pilot,2022.1.3,Win32,71.64350193,62b2a6a25f2ba72662469a01,,,,,,,,,,,,,,,,,,,,,,,,,,,,,,,,,,,,,,,,,,,,,,,,,,,,,,,,,,,,,,,,,,,,,,,,,,,,,,,,,,,,,,,,,,,,,,,,,,,,,,,,,,,,,,,,,,,,,,,,,,,,,,,,,,,,,,,,,,,,,,,,,,,,,,,,,,,,,,
0,88,88,44,1,,611e5a53b063fa0cfe9e59b7,62b2acbccf00c0c5f626ba1e,2022-06-22_08h32.47.347,Colour_Asymmetry_Pilot,2022.1.3,Win32,71.64350193,62b2a6a25f2ba72662469a01,,,,,,,,,,,,,,,,,,,,,,,,,,,,,,,,,,,,,,,,,,,,,,,,,,,,,,,,,,,,,,,,,,,,,,,,,,,,,,,,,,,,,,,,,,,,,,,,,,,,,,,,,,,,,,,,,,,,,,,,,,,,,,,,,,,,,,,,,,,,,,,,,,,,,,,,,,,,,,
0,89,89,36,1,,611e5a53b063fa0cfe9e59b7,62b2acbccf00c0c5f626ba1e,2022-06-22_08h32.47.347,Colour_Asymmetry_Pilot,2022.1.3,Win32,71.64350193,62b2a6a25f2ba72662469a01,,,,,,,,,,,,,,,,,,,,,,,,,,,,,,,,,,,,,,,,,,,,,,,,,,,,,,,,,,,,,,,,,,,,,,,,,,,,,,,,,,,,,,,,,,,,,,,,,,,,,,,,,,,,,,,,,,,,,,,,,,,,,,,,,,,,,,,,,,,,,,,,,,,,,,,,,,,,,,
0,90,90,49,1,,611e5a53b063fa0cfe9e59b7,62b2acbccf00c0c5f626ba1e,2022-06-22_08h32.47.347,Colour_Asymmetry_Pilot,2022.1.3,Win32,71.64350193,62b2a6a25f2ba72662469a01,,,,,,,,,,,,,,,,,,,,,,,,,,,,,,,,,,,,,,,,,,,,,,,,,,,,,,,,,,,,,,,,,,,,,,,,,,,,,,,,,,,,,,,,,,,,,,,,,,,,,,,,,,,,,,,,,,,,,,,,,,,,,,,,,,,,,,,,,,,,,,,,,,,,,,,,,,,,,,
0,91,91,86,1,,611e5a53b063fa0cfe9e59b7,62b2acbccf00c0c5f626ba1e,2022-06-22_08h32.47.347,Colour_Asymmetry_Pilot,2022.1.3,Win32,71.64350193,62b2a6a25f2ba72662469a01,,,,,,,,,,,,,,,,,,,,,,,,,,,,,,,,,,,,,,,,,,,,,,,,,,,,,,,,,,,,,,,,,,,,,,,,,,,,,,,,,,,,,,,,,,,,,,,,,,,,,,,,,,,,,,,,,,,,,,,,,,,,,,,,,,,,,,,,,,,,,,,,,,,,,,,,,,,,,,
0,92,92,91,1,,611e5a53b063fa0cfe9e59b7,62b2acbccf00c0c5f626ba1e,2022-06-22_08h32.47.347,Colour_Asymmetry_Pilot,2022.1.3,Win32,71.64350193,62b2a6a25f2ba72662469a01,,,,,,,,,,,,,,,,,,,,,,,,,,,,,,,,,,,,,,,,,,,,,,,,,,,,,,,,,,,,,,,,,,,,,,,,,,,,,,,,,,,,,,,,,,,,,,,,,,,,,,,,,,,,,,,,,,,,,,,,,,,,,,,,,,,,,,,,,,,,,,,,,,,,,,,,,,,,,,
,,,,,,611e5a53b063fa0cfe9e59b7,62b2acbccf00c0c5f626ba1e,2022-06-22_08h32.47.347,Colour_Asymmetry_Pilot,2022.1.3,Win32,71.64350193,62b2a6a25f2ba72662469a01,0,0,0,129,1,onethree,,,,,,,,,,,,,,,,,,,,,,,,,,,,,,,,,,,,,,,,,,,,,,,,,,,,,,,,,,,,,,,,,,,,,,,,,,,,,,,,,,,,,,,,,,,,,,,,,,,,,,,,,,,,,,,,,,,,,,,,,,,,,,,,,,,,,,,,,,,,,,,,,,,,,,,,
,,,,,,611e5a53b063fa0cfe9e59b7,62b2acbccf00c0c5f626ba1e,2022-06-22_08h32.47.347,Colour_Asymmetry_Pilot,2022.1.3,Win32,71.64350193,62b2a6a25f2ba72662469a01,0,1,1,110,1,fourtwo,,,,,,,,,,,,,,,,,,,,,,,,,,,,,,,,,,,,,,,,,,,,,,,,,,,,,,,,,,,,,,,,,,,,,,,,,,,,,,,,,,,,,,,,,,,,,,,,,,,,,,,,,,,,,,,,,,,,,,,,,,,,,,,,,,,,,,,,,,,,,,,,,,,,,,,,
,,,,,,611e5a53b063fa0cfe9e59b7,62b2acbccf00c0c5f626ba1e,2022-06-22_08h32.47.347,Colour_Asymmetry_Pilot,2022.1.3,Win32,71.64350193,62b2a6a25f2ba72662469a01,0,2,2,133,1,threefour,,,,,,,,,,,,,,,,,,,,,,,,,,,,,,,,,,,,,,,,,,,,,,,,,,,,,,,,,,,,,,,,,,,,,,,,,,,,,,,,,,,,,,,,,,,,,,,,,,,,,,,,,,,,,,,,,,,,,,,,,,,,,,,,,,,,,,,,,,,,,,,,,,,,,,,,
,,,,,,611e5a53b063fa0cfe9e59b7,62b2acbccf00c0c5f626ba1e,2022-06-22_08h32.47.347,Colour_Asymmetry_Pilot,2022.1.3,Win32,71.64350193,62b2a6a25f2ba72662469a01,0,3,3,126,1,fourtwo,,,,,,,,,,,,,,,,,,,,,,,,,,,,,,,,,,,,,,,,,,,,,,,,,,,,,,,,,,,,,,,,,,,,,,,,,,,,,,,,,,,,,,,,,,,,,,,,,,,,,,,,,,,,,,,,,,,,,,,,,,,,,,,,,,,,,,,,,,,,,,,,,,,,,,,,
,,,,,,611e5a53b063fa0cfe9e59b7,62b2acbccf00c0c5f626ba1e,2022-06-22_08h32.47.347,Colour_Asymmetry_Pilot,2022.1.3,Win32,71.64350193,62b2a6a25f2ba72662469a01,0,4,4,27,1,twofour,,,,,,,,,,,,,,,,,,,,,,,,,,,,,,,,,,,,,,,,,,,,,,,,,,,,,,,,,,,,,,,,,,,,,,,,,,,,,,,,,,,,,,,,,,,,,,,,,,,,,,,,,,,,,,,,,,,,,,,,,,,,,,,,,,,,,,,,,,,,,,,,,,,,,,,,
,,,,,,611e5a53b063fa0cfe9e59b7,62b2acbccf00c0c5f626ba1e,2022-06-22_08h32.47.347,Colour_Asymmetry_Pilot,2022.1.3,Win32,71.64350193,62b2a6a25f2ba72662469a01,0,5,5,55,1,fourthree,,,,,,,,,,,,,,,,,,,,,,,,,,,,,,,,,,,,,,,,,,,,,,,,,,,,,,,,,,,,,,,,,,,,,,,,,,,,,,,,,,,,,,,,,,,,,,,,,,,,,,,,,,,,,,,,,,,,,,,,,,,,,,,,,,,,,,,,,,,,,,,,,,,,,,,,
,,,,,,611e5a53b063fa0cfe9e59b7,62b2acbccf00c0c5f626ba1e,2022-06-22_08h32.47.347,Colour_Asymmetry_Pilot,2022.1.3,Win32,71.64350193,62b2a6a25f2ba72662469a01,0,6,6,106,1,twoone,,,,,,,,,,,,,,,,,,,,,,,,,,,,,,,,,,,,,,,,,,,,,,,,,,,,,,,,,,,,,,,,,,,,,,,,,,,,,,,,,,,,,,,,,,,,,,,,,,,,,,,,,,,,,,,,,,,,,,,,,,,,,,,,,,,,,,,,,,,,,,,,,,,,,,,,
,,,,,,611e5a53b063fa0cfe9e59b7,62b2acbccf00c0c5f626ba1e,2022-06-22_08h32.47.347,Colour_Asymmetry_Pilot,2022.1.3,Win32,71.64350193,62b2a6a25f2ba72662469a01,0,7,7,132,1,threeone,,,,,,,,,,,,,,,,,,,,,,,,,,,,,,,,,,,,,,,,,,,,,,,,,,,,,,,,,,,,,,,,,,,,,,,,,,,,,,,,,,,,,,,,,,,,,,,,,,,,,,,,,,,,,,,,,,,,,,,,,,,,,,,,,,,,,,,,,,,,,,,,,,,,,,,,
,,,,,,611e5a53b063fa0cfe9e59b7,62b2acbccf00c0c5f626ba1e,2022-06-22_08h32.47.347,Colour_Asymmetry_Pilot,2022.1.3,Win32,71.64350193,62b2a6a25f2ba72662469a01,0,8,8,9,1,onethree,,,,,,,,,,,,,,,,,,,,,,,,,,,,,,,,,,,,,,,,,,,,,,,,,,,,,,,,,,,,,,,,,,,,,,,,,,,,,,,,,,,,,,,,,,,,,,,,,,,,,,,,,,,,,,,,,,,,,,,,,,,,,,,,,,,,,,,,,,,,,,,,,,,,,,,,
,,,,,,611e5a53b063fa0cfe9e59b7,62b2acbccf00c0c5f626ba1e,2022-06-22_08h32.47.347,Colour_Asymmetry_Pilot,2022.1.3,Win32,71.64350193,62b2a6a25f2ba72662469a01,0,9,9,37,1,threefour,,,,,,,,,,,,,,,,,,,,,,,,,,,,,,,,,,,,,,,,,,,,,,,,,,,,,,,,,,,,,,,,,,,,,,,,,,,,,,,,,,,,,,,,,,,,,,,,,,,,,,,,,,,,,,,,,,,,,,,,,,,,,,,,,,,,,,,,,,,,,,,,,,,,,,,,
,,,,,,611e5a53b063fa0cfe9e59b7,62b2acbccf00c0c5f626ba1e,2022-06-22_08h32.47.347,Colour_Asymmetry_Pilot,2022.1.3,Win32,71.64350193,62b2a6a25f2ba72662469a01,0,10,10,117,1,threefour,,,,,,,,,,,,,,,,,,,,,,,,,,,,,,,,,,,,,,,,,,,,,,,,,,,,,,,,,,,,,,,,,,,,,,,,,,,,,,,,,,,,,,,,,,,,,,,,,,,,,,,,,,,,,,,,,,,,,,,,,,,,,,,,,,,,,,,,,,,,,,,,,,,,,,,,
,,,,,,611e5a53b063fa0cfe9e59b7,62b2acbccf00c0c5f626ba1e,2022-06-22_08h32.47.347,Colour_Asymmetry_Pilot,2022.1.3,Win32,71.64350193,62b2a6a25f2ba72662469a01,0,11,11,74,1,twoone,,,,,,,,,,,,,,,,,,,,,,,,,,,,,,,,,,,,,,,,,,,,,,,,,,,,,,,,,,,,,,,,,,,,,,,,,,,,,,,,,,,,,,,,,,,,,,,,,,,,,,,,,,,,,,,,,,,,,,,,,,,,,,,,,,,,,,,,,,,,,,,,,,,,,,,,
,,,,,,611e5a53b063fa0cfe9e59b7,62b2acbccf00c0c5f626ba1e,2022-06-22_08h32.47.347,Colour_Asymmetry_Pilot,2022.1.3,Win32,71.64350193,62b2a6a25f2ba72662469a01,0,12,12,158,1,fourtwo,,,,,,,,,,,,,,,,,,,,,,,,,,,,,,,,,,,,,,,,,,,,,,,,,,,,,,,,,,,,,,,,,,,,,,,,,,,,,,,,,,,,,,,,,,,,,,,,,,,,,,,,,,,,,,,,,,,,,,,,,,,,,,,,,,,,,,,,,,,,,,,,,,,,,,,,
,,,,,,611e5a53b063fa0cfe9e59b7,62b2acbccf00c0c5f626ba1e,2022-06-22_08h32.47.347,Colour_Asymmetry_Pilot,2022.1.3,Win32,71.64350193,62b2a6a25f2ba72662469a01,0,13,13,146,1,twoone,,,,,,,,,,,,,,,,,,,,,,,,,,,,,,,,,,,,,,,,,,,,,,,,,,,,,,,,,,,,,,,,,,,,,,,,,,,,,,,,,,,,,,,,,,,,,,,,,,,,,,,,,,,,,,,,,,,,,,,,,,,,,,,,,,,,,,,,,,,,,,,,,,,,,,,,
,,,,,,611e5a53b063fa0cfe9e59b7,62b2acbccf00c0c5f626ba1e,2022-06-22_08h32.47.347,Colour_Asymmetry_Pilot,2022.1.3,Win32,71.64350193,62b2a6a25f2ba72662469a01,0,14,14,14,1,fourtwo,,,,,,,,,,,,,,,,,,,,,,,,,,,,,,,,,,,,,,,,,,,,,,,,,,,,,,,,,,,,,,,,,,,,,,,,,,,,,,,,,,,,,,,,,,,,,,,,,,,,,,,,,,,,,,,,,,,,,,,,,,,,,,,,,,,,,,,,,,,,,,,,,,,,,,,,
,,,,,,611e5a53b063fa0cfe9e59b7,62b2acbccf00c0c5f626ba1e,2022-06-22_08h32.47.347,Colour_Asymmetry_Pilot,2022.1.3,Win32,71.64350193,62b2a6a25f2ba72662469a01,0,15,15,52,1,threeone,,,,,,,,,,,,,,,,,,,,,,,,,,,,,,,,,,,,,,,,,,,,,,,,,,,,,,,,,,,,,,,,,,,,,,,,,,,,,,,,,,,,,,,,,,,,,,,,,,,,,,,,,,,,,,,,,,,,,,,,,,,,,,,,,,,,,,,,,,,,,,,,,,,,,,,,
,,,,,,611e5a53b063fa0cfe9e59b7,62b2acbccf00c0c5f626ba1e,2022-06-22_08h32.47.347,Colour_Asymmetry_Pilot,2022.1.3,Win32,71.64350193,62b2a6a25f2ba72662469a01,0,16,16,29,1,threefour,,,,,,,,,,,,,,,,,,,,,,,,,,,,,,,,,,,,,,,,,,,,,,,,,,,,,,,,,,,,,,,,,,,,,,,,,,,,,,,,,,,,,,,,,,,,,,,,,,,,,,,,,,,,,,,,,,,,,,,,,,,,,,,,,,,,,,,,,,,,,,,,,,,,,,,,
,,,,,,611e5a53b063fa0cfe9e59b7,62b2acbccf00c0c5f626ba1e,2022-06-22_08h32.47.347,Colour_Asymmetry_Pilot,2022.1.3,Win32,71.64350193,62b2a6a25f2ba72662469a01,0,17,17,38,1,fourtwo,,,,,,,,,,,,,,,,,,,,,,,,,,,,,,,,,,,,,,,,,,,,,,,,,,,,,,,,,,,,,,,,,,,,,,,,,,,,,,,,,,,,,,,,,,,,,,,,,,,,,,,,,,,,,,,,,,,,,,,,,,,,,,,,,,,,,,,,,,,,,,,,,,,,,,,,
,,,,,,611e5a53b063fa0cfe9e59b7,62b2acbccf00c0c5f626ba1e,2022-06-22_08h32.47.347,Colour_Asymmetry_Pilot,2022.1.3,Win32,71.64350193,62b2a6a25f2ba72662469a01,0,18,18,16,1,onetwo,,,,,,,,,,,,,,,,,,,,,,,,,,,,,,,,,,,,,,,,,,,,,,,,,,,,,,,,,,,,,,,,,,,,,,,,,,,,,,,,,,,,,,,,,,,,,,,,,,,,,,,,,,,,,,,,,,,,,,,,,,,,,,,,,,,,,,,,,,,,,,,,,,,,,,,,
,,,,,,611e5a53b063fa0cfe9e59b7,62b2acbccf00c0c5f626ba1e,2022-06-22_08h32.47.347,Colour_Asymmetry_Pilot,2022.1.3,Win32,71.64350193,62b2a6a25f2ba72662469a01,0,19,19,69,1,threefour,,,,,,,,,,,,,,,,,,,,,,,,,,,,,,,,,,,,,,,,,,,,,,,,,,,,,,,,,,,,,,,,,,,,,,,,,,,,,,,,,,,,,,,,,,,,,,,,,,,,,,,,,,,,,,,,,,,,,,,,,,,,,,,,,,,,,,,,,,,,,,,,,,,,,,,,
,,,,,,611e5a53b063fa0cfe9e59b7,62b2acbccf00c0c5f626ba1e,2022-06-22_08h32.47.347,Colour_Asymmetry_Pilot,2022.1.3,Win32,71.64350193,62b2a6a25f2ba72662469a01,0,20,20,94,1,fourtwo,,,,,,,,,,,,,,,,,,,,,,,,,,,,,,,,,,,,,,,,,,,,,,,,,,,,,,,,,,,,,,,,,,,,,,,,,,,,,,,,,,,,,,,,,,,,,,,,,,,,,,,,,,,,,,,,,,,,,,,,,,,,,,,,,,,,,,,,,,,,,,,,,,,,,,,,
,,,,,,611e5a53b063fa0cfe9e59b7,62b2acbccf00c0c5f626ba1e,2022-06-22_08h32.47.347,Colour_Asymmetry_Pilot,2022.1.3,Win32,71.64350193,62b2a6a25f2ba72662469a01,0,21,21,23,1,fourthree,,,,,,,,,,,,,,,,,,,,,,,,,,,,,,,,,,,,,,,,,,,,,,,,,,,,,,,,,,,,,,,,,,,,,,,,,,,,,,,,,,,,,,,,,,,,,,,,,,,,,,,,,,,,,,,,,,,,,,,,,,,,,,,,,,,,,,,,,,,,,,,,,,,,,,,,
,,,,,,611e5a53b063fa0cfe9e59b7,62b2acbccf00c0c5f626ba1e,2022-06-22_08h32.47.347,Colour_Asymmetry_Pilot,2022.1.3,Win32,71.64350193,62b2a6a25f2ba72662469a01,0,22,22,80,1,onetwo,,,,,,,,,,,,,,,,,,,,,,,,,,,,,,,,,,,,,,,,,,,,,,,,,,,,,,,,,,,,,,,,,,,,,,,,,,,,,,,,,,,,,,,,,,,,,,,,,,,,,,,,,,,,,,,,,,,,,,,,,,,,,,,,,,,,,,,,,,,,,,,,,,,,,,,,
,,,,,,611e5a53b063fa0cfe9e59b7,62b2acbccf00c0c5f626ba1e,2022-06-22_08h32.47.347,Colour_Asymmetry_Pilot,2022.1.3,Win32,71.64350193,62b2a6a25f2ba72662469a01,0,23,23,24,1,onetwo,,,,,,,,,,,,,,,,,,,,,,,,,,,,,,,,,,,,,,,,,,,,,,,,,,,,,,,,,,,,,,,,,,,,,,,,,,,,,,,,,,,,,,,,,,,,,,,,,,,,,,,,,,,,,,,,,,,,,,,,,,,,,,,,,,,,,,,,,,,,,,,,,,,,,,,,
,,,,,,611e5a53b063fa0cfe9e59b7,62b2acbccf00c0c5f626ba1e,2022-06-22_08h32.47.347,Colour_Asymmetry_Pilot,2022.1.3,Win32,71.64350193,62b2a6a25f2ba72662469a01,0,24,24,100,1,threeone,,,,,,,,,,,,,,,,,,,,,,,,,,,,,,,,,,,,,,,,,,,,,,,,,,,,,,,,,,,,,,,,,,,,,,,,,,,,,,,,,,,,,,,,,,,,,,,,,,,,,,,,,,,,,,,,,,,,,,,,,,,,,,,,,,,,,,,,,,,,,,,,,,,,,,,,
,,,,,,611e5a53b063fa0cfe9e59b7,62b2acbccf00c0c5f626ba1e,2022-06-22_08h32.47.347,Colour_Asymmetry_Pilot,2022.1.3,Win32,71.64350193,62b2a6a25f2ba72662469a01,0,25,25,82,1,twoone,,,,,,,,,,,,,,,,,,,,,,,,,,,,,,,,,,,,,,,,,,,,,,,,,,,,,,,,,,,,,,,,,,,,,,,,,,,,,,,,,,,,,,,,,,,,,,,,,,,,,,,,,,,,,,,,,,,,,,,,,,,,,,,,,,,,,,,,,,,,,,,,,,,,,,,,
,,,,,,611e5a53b063fa0cfe9e59b7,62b2acbccf00c0c5f626ba1e,2022-06-22_08h32.47.347,Colour_Asymmetry_Pilot,2022.1.3,Win32,71.64350193,62b2a6a25f2ba72662469a01,0,26,26,130,1,twoone,,,,,,,,,,,,,,,,,,,,,,,,,,,,,,,,,,,,,,,,,,,,,,,,,,,,,,,,,,,,,,,,,,,,,,,,,,,,,,,,,,,,,,,,,,,,,,,,,,,,,,,,,,,,,,,,,,,,,,,,,,,,,,,,,,,,,,,,,,,,,,,,,,,,,,,,
,,,,,,611e5a53b063fa0cfe9e59b7,62b2acbccf00c0c5f626ba1e,2022-06-22_08h32.47.347,Colour_Asymmetry_Pilot,2022.1.3,Win32,71.64350193,62b2a6a25f2ba72662469a01,0,27,27,34,1,twoone,,,,,,,,,,,,,,,,,,,,,,,,,,,,,,,,,,,,,,,,,,,,,,,,,,,,,,,,,,,,,,,,,,,,,,,,,,,,,,,,,,,,,,,,,,,,,,,,,,,,,,,,,,,,,,,,,,,,,,,,,,,,,,,,,,,,,,,,,,,,,,,,,,,,,,,,
,,,,,,611e5a53b063fa0cfe9e59b7,62b2acbccf00c0c5f626ba1e,2022-06-22_08h32.47.347,Colour_Asymmetry_Pilot,2022.1.3,Win32,71.64350193,62b2a6a25f2ba72662469a01,0,28,28,30,1,fourtwo,,,,,,,,,,,,,,,,,,,,,,,,,,,,,,,,,,,,,,,,,,,,,,,,,,,,,,,,,,,,,,,,,,,,,,,,,,,,,,,,,,,,,,,,,,,,,,,,,,,,,,,,,,,,,,,,,,,,,,,,,,,,,,,,,,,,,,,,,,,,,,,,,,,,,,,,
,,,,,,611e5a53b063fa0cfe9e59b7,62b2acbccf00c0c5f626ba1e,2022-06-22_08h32.47.347,Colour_Asymmetry_Pilot,2022.1.3,Win32,71.64350193,62b2a6a25f2ba72662469a01,0,29,29,136,1,onetwo,,,,,,,,,,,,,,,,,,,,,,,,,,,,,,,,,,,,,,,,,,,,,,,,,,,,,,,,,,,,,,,,,,,,,,,,,,,,,,,,,,,,,,,,,,,,,,,,,,,,,,,,,,,,,,,,,,,,,,,,,,,,,,,,,,,,,,,,,,,,,,,,,,,,,,,,
,,,,,,611e5a53b063fa0cfe9e59b7,62b2acbccf00c0c5f626ba1e,2022-06-22_08h32.47.347,Colour_Asymmetry_Pilot,2022.1.3,Win32,71.64350193,62b2a6a25f2ba72662469a01,0,30,30,17,1,onethree,,,,,,,,,,,,,,,,,,,,,,,,,,,,,,,,,,,,,,,,,,,,,,,,,,,,,,,,,,,,,,,,,,,,,,,,,,,,,,,,,,,,,,,,,,,,,,,,,,,,,,,,,,,,,,,,,,,,,,,,,,,,,,,,,,,,,,,,,,,,,,,,,,,,,,,,
,,,,,,611e5a53b063fa0cfe9e59b7,62b2acbccf00c0c5f626ba1e,2022-06-22_08h32.47.347,Colour_Asymmetry_Pilot,2022.1.3,Win32,71.64350193,62b2a6a25f2ba72662469a01,0,31,31,128,1,onetwo,,,,,,,,,,,,,,,,,,,,,,,,,,,,,,,,,,,,,,,,,,,,,,,,,,,,,,,,,,,,,,,,,,,,,,,,,,,,,,,,,,,,,,,,,,,,,,,,,,,,,,,,,,,,,,,,,,,,,,,,,,,,,,,,,,,,,,,,,,,,,,,,,,,,,,,,
,,,,,,611e5a53b063fa0cfe9e59b7,62b2acbccf00c0c5f626ba1e,2022-06-22_08h32.47.347,Colour_Asymmetry_Pilot,2022.1.3,Win32,71.64350193,62b2a6a25f2ba72662469a01,0,32,32,104,1,onetwo,,,,,,,,,,,,,,,,,,,,,,,,,,,,,,,,,,,,,,,,,,,,,,,,,,,,,,,,,,,,,,,,,,,,,,,,,,,,,,,,,,,,,,,,,,,,,,,,,,,,,,,,,,,,,,,,,,,,,,,,,,,,,,,,,,,,,,,,,,,,,,,,,,,,,,,,
,,,,,,611e5a53b063fa0cfe9e59b7,62b2acbccf00c0c5f626ba1e,2022-06-22_08h32.47.347,Colour_Asymmetry_Pilot,2022.1.3,Win32,71.64350193,62b2a6a25f2ba72662469a01,0,33,33,66,1,twoone,,,,,,,,,,,,,,,,,,,,,,,,,,,,,,,,,,,,,,,,,,,,,,,,,,,,,,,,,,,,,,,,,,,,,,,,,,,,,,,,,,,,,,,,,,,,,,,,,,,,,,,,,,,,,,,,,,,,,,,,,,,,,,,,,,,,,,,,,,,,,,,,,,,,,,,,
,,,,,,611e5a53b063fa0cfe9e59b7,62b2acbccf00c0c5f626ba1e,2022-06-22_08h32.47.347,Colour_Asymmetry_Pilot,2022.1.3,Win32,71.64350193,62b2a6a25f2ba72662469a01,0,34,34,18,1,twoone,,,,,,,,,,,,,,,,,,,,,,,,,,,,,,,,,,,,,,,,,,,,,,,,,,,,,,,,,,,,,,,,,,,,,,,,,,,,,,,,,,,,,,,,,,,,,,,,,,,,,,,,,,,,,,,,,,,,,,,,,,,,,,,,,,,,,,,,,,,,,,,,,,,,,,,,
,,,,,,611e5a53b063fa0cfe9e59b7,62b2acbccf00c0c5f626ba1e,2022-06-22_08h32.47.347,Colour_Asymmetry_Pilot,2022.1.3,Win32,71.64350193,62b2a6a25f2ba72662469a01,0,35,35,150,1,fourtwo,,,,,,,,,,,,,,,,,,,,,,,,,,,,,,,,,,,,,,,,,,,,,,,,,,,,,,,,,,,,,,,,,,,,,,,,,,,,,,,,,,,,,,,,,,,,,,,,,,,,,,,,,,,,,,,,,,,,,,,,,,,,,,,,,,,,,,,,,,,,,,,,,,,,,,,,
,,,,,,611e5a53b063fa0cfe9e59b7,62b2acbccf00c0c5f626ba1e,2022-06-22_08h32.47.347,Colour_Asymmetry_Pilot,2022.1.3,Win32,71.64350193,62b2a6a25f2ba72662469a01,0,36,36,116,1,threeone,,,,,,,,,,,,,,,,,,,,,,,,,,,,,,,,,,,,,,,,,,,,,,,,,,,,,,,,,,,,,,,,,,,,,,,,,,,,,,,,,,,,,,,,,,,,,,,,,,,,,,,,,,,,,,,,,,,,,,,,,,,,,,,,,,,,,,,,,,,,,,,,,,,,,,,,
,,,,,,611e5a53b063fa0cfe9e59b7,62b2acbccf00c0c5f626ba1e,2022-06-22_08h32.47.347,Colour_Asymmetry_Pilot,2022.1.3,Win32,71.64350193,62b2a6a25f2ba72662469a01,0,37,37,137,1,onethree,,,,,,,,,,,,,,,,,,,,,,,,,,,,,,,,,,,,,,,,,,,,,,,,,,,,,,,,,,,,,,,,,,,,,,,,,,,,,,,,,,,,,,,,,,,,,,,,,,,,,,,,,,,,,,,,,,,,,,,,,,,,,,,,,,,,,,,,,,,,,,,,,,,,,,,,
,,,,,,611e5a53b063fa0cfe9e59b7,62b2acbccf00c0c5f626ba1e,2022-06-22_08h32.47.347,Colour_Asymmetry_Pilot,2022.1.3,Win32,71.64350193,62b2a6a25f2ba72662469a01,0,38,38,56,1,onetwo,,,,,,,,,,,,,,,,,,,,,,,,,,,,,,,,,,,,,,,,,,,,,,,,,,,,,,,,,,,,,,,,,,,,,,,,,,,,,,,,,,,,,,,,,,,,,,,,,,,,,,,,,,,,,,,,,,,,,,,,,,,,,,,,,,,,,,,,,,,,,,,,,,,,,,,,
,,,,,,611e5a53b063fa0cfe9e59b7,62b2acbccf00c0c5f626ba1e,2022-06-22_08h32.47.347,Colour_Asymmetry_Pilot,2022.1.3,Win32,71.64350193,62b2a6a25f2ba72662469a01,0,39,39,140,1,threeone,,,,,,,,,,,,,,,,,,,,,,,,,,,,,,,,,,,,,,,,,,,,,,,,,,,,,,,,,,,,,,,,,,,,,,,,,,,,,,,,,,,,,,,,,,,,,,,,,,,,,,,,,,,,,,,,,,,,,,,,,,,,,,,,,,,,,,,,,,,,,,,,,,,,,,,,
,,,,,,611e5a53b063fa0cfe9e59b7,62b2acbccf00c0c5f626ba1e,2022-06-22_08h32.47.347,Colour_Asymmetry_Pilot,2022.1.3,Win32,71.64350193,62b2a6a25f2ba72662469a01,0,40,40,73,1,onethree,,,,,,,,,,,,,,,,,,,,,,,,,,,,,,,,,,,,,,,,,,,,,,,,,,,,,,,,,,,,,,,,,,,,,,,,,,,,,,,,,,,,,,,,,,,,,,,,,,,,,,,,,,,,,,,,,,,,,,,,,,,,,,,,,,,,,,,,,,,,,,,,,,,,,,,,
,,,,,,611e5a53b063fa0cfe9e59b7,62b2acbccf00c0c5f626ba1e,2022-06-22_08h32.47.347,Colour_Asymmetry_Pilot,2022.1.3,Win32,71.64350193,62b2a6a25f2ba72662469a01,0,41,41,153,1,onethree,,,,,,,,,,,,,,,,,,,,,,,,,,,,,,,,,,,,,,,,,,,,,,,,,,,,,,,,,,,,,,,,,,,,,,,,,,,,,,,,,,,,,,,,,,,,,,,,,,,,,,,,,,,,,,,,,,,,,,,,,,,,,,,,,,,,,,,,,,,,,,,,,,,,,,,,
,,,,,,611e5a53b063fa0cfe9e59b7,62b2acbccf00c0c5f626ba1e,2022-06-22_08h32.47.347,Colour_Asymmetry_Pilot,2022.1.3,Win32,71.64350193,62b2a6a25f2ba72662469a01,0,42,42,79,1,fourthree,,,,,,,,,,,,,,,,,,,,,,,,,,,,,,,,,,,,,,,,,,,,,,,,,,,,,,,,,,,,,,,,,,,,,,,,,,,,,,,,,,,,,,,,,,,,,,,,,,,,,,,,,,,,,,,,,,,,,,,,,,,,,,,,,,,,,,,,,,,,,,,,,,,,,,,,
,,,,,,611e5a53b063fa0cfe9e59b7,62b2acbccf00c0c5f626ba1e,2022-06-22_08h32.47.347,Colour_Asymmetry_Pilot,2022.1.3,Win32,71.64350193,62b2a6a25f2ba72662469a01,0,43,43,2,1,twoone,,,,,,,,,,,,,,,,,,,,,,,,,,,,,,,,,,,,,,,,,,,,,,,,,,,,,,,,,,,,,,,,,,,,,,,,,,,,,,,,,,,,,,,,,,,,,,,,,,,,,,,,,,,,,,,,,,,,,,,,,,,,,,,,,,,,,,,,,,,,,,,,,,,,,,,,
,,,,,,611e5a53b063fa0cfe9e59b7,62b2acbccf00c0c5f626ba1e,2022-06-22_08h32.47.347,Colour_Asymmetry_Pilot,2022.1.3,Win32,71.64350193,62b2a6a25f2ba72662469a01,0,44,44,50,1,twoone,,,,,,,,,,,,,,,,,,,,,,,,,,,,,,,,,,,,,,,,,,,,,,,,,,,,,,,,,,,,,,,,,,,,,,,,,,,,,,,,,,,,,,,,,,,,,,,,,,,,,,,,,,,,,,,,,,,,,,,,,,,,,,,,,,,,,,,,,,,,,,,,,,,,,,,,
,,,,,,611e5a53b063fa0cfe9e59b7,62b2acbccf00c0c5f626ba1e,2022-06-22_08h32.47.347,Colour_Asymmetry_Pilot,2022.1.3,Win32,71.64350193,62b2a6a25f2ba72662469a01,0,45,45,101,1,threefour,,,,,,,,,,,,,,,,,,,,,,,,,,,,,,,,,,,,,,,,,,,,,,,,,,,,,,,,,,,,,,,,,,,,,,,,,,,,,,,,,,,,,,,,,,,,,,,,,,,,,,,,,,,,,,,,,,,,,,,,,,,,,,,,,,,,,,,,,,,,,,,,,,,,,,,,
,,,,,,611e5a53b063fa0cfe9e59b7,62b2acbccf00c0c5f626ba1e,2022-06-22_08h32.47.347,Colour_Asymmetry_Pilot,2022.1.3,Win32,71.64350193,62b2a6a25f2ba72662469a01,0,46,46,78,1,fourtwo,,,,,,,,,,,,,,,,,,,,,,,,,,,,,,,,,,,,,,,,,,,,,,,,,,,,,,,,,,,,,,,,,,,,,,,,,,,,,,,,,,,,,,,,,,,,,,,,,,,,,,,,,,,,,,,,,,,,,,,,,,,,,,,,,,,,,,,,,,,,,,,,,,,,,,,,
,,,,,,611e5a53b063fa0cfe9e59b7,62b2acbccf00c0c5f626ba1e,2022-06-22_08h32.47.347,Colour_Asymmetry_Pilot,2022.1.3,Win32,71.64350193,62b2a6a25f2ba72662469a01,0,47,47,62,1,fourtwo,,,,,,,,,,,,,,,,,,,,,,,,,,,,,,,,,,,,,,,,,,,,,,,,,,,,,,,,,,,,,,,,,,,,,,,,,,,,,,,,,,,,,,,,,,,,,,,,,,,,,,,,,,,,,,,,,,,,,,,,,,,,,,,,,,,,,,,,,,,,,,,,,,,,,,,,
,,,,,,611e5a53b063fa0cfe9e59b7,62b2acbccf00c0c5f626ba1e,2022-06-22_08h32.47.347,Colour_Asymmetry_Pilot,2022.1.3,Win32,71.64350193,62b2a6a25f2ba72662469a01,0,48,48,20,1,threeone,,,,,,,,,,,,,,,,,,,,,,,,,,,,,,,,,,,,,,,,,,,,,,,,,,,,,,,,,,,,,,,,,,,,,,,,,,,,,,,,,,,,,,,,,,,,,,,,,,,,,,,,,,,,,,,,,,,,,,,,,,,,,,,,,,,,,,,,,,,,,,,,,,,,,,,,
,,,,,,611e5a53b063fa0cfe9e59b7,62b2acbccf00c0c5f626ba1e,2022-06-22_08h32.47.347,Colour_Asymmetry_Pilot,2022.1.3,Win32,71.64350193,62b2a6a25f2ba72662469a01,0,49,49,122,1,twoone,,,,,,,,,,,,,,,,,,,,,,,,,,,,,,,,,,,,,,,,,,,,,,,,,,,,,,,,,,,,,,,,,,,,,,,,,,,,,,,,,,,,,,,,,,,,,,,,,,,,,,,,,,,,,,,,,,,,,,,,,,,,,,,,,,,,,,,,,,,,,,,,,,,,,,,,
,,,,,,611e5a53b063fa0cfe9e59b7,62b2acbccf00c0c5f626ba1e,2022-06-22_08h32.47.347,Colour_Asymmetry_Pilot,2022.1.3,Win32,71.64350193,62b2a6a25f2ba72662469a01,0,50,50,90,1,twoone,,,,,,,,,,,,,,,,,,,,,,,,,,,,,,,,,,,,,,,,,,,,,,,,,,,,,,,,,,,,,,,,,,,,,,,,,,,,,,,,,,,,,,,,,,,,,,,,,,,,,,,,,,,,,,,,,,,,,,,,,,,,,,,,,,,,,,,,,,,,,,,,,,,,,,,,
,,,,,,611e5a53b063fa0cfe9e59b7,62b2acbccf00c0c5f626ba1e,2022-06-22_08h32.47.347,Colour_Asymmetry_Pilot,2022.1.3,Win32,71.64350193,62b2a6a25f2ba72662469a01,0,51,51,21,1,threefour,,,,,,,,,,,,,,,,,,,,,,,,,,,,,,,,,,,,,,,,,,,,,,,,,,,,,,,,,,,,,,,,,,,,,,,,,,,,,,,,,,,,,,,,,,,,,,,,,,,,,,,,,,,,,,,,,,,,,,,,,,,,,,,,,,,,,,,,,,,,,,,,,,,,,,,,
,,,,,,611e5a53b063fa0cfe9e59b7,62b2acbccf00c0c5f626ba1e,2022-06-22_08h32.47.347,Colour_Asymmetry_Pilot,2022.1.3,Win32,71.64350193,62b2a6a25f2ba72662469a01,0,52,52,22,1,fourtwo,,,,,,,,,,,,,,,,,,,,,,,,,,,,,,,,,,,,,,,,,,,,,,,,,,,,,,,,,,,,,,,,,,,,,,,,,,,,,,,,,,,,,,,,,,,,,,,,,,,,,,,,,,,,,,,,,,,,,,,,,,,,,,,,,,,,,,,,,,,,,,,,,,,,,,,,
,,,,,,611e5a53b063fa0cfe9e59b7,62b2acbccf00c0c5f626ba1e,2022-06-22_08h32.47.347,Colour_Asymmetry_Pilot,2022.1.3,Win32,71.64350193,62b2a6a25f2ba72662469a01,0,53,53,19,1,twofour,,,,,,,,,,,,,,,,,,,,,,,,,,,,,,,,,,,,,,,,,,,,,,,,,,,,,,,,,,,,,,,,,,,,,,,,,,,,,,,,,,,,,,,,,,,,,,,,,,,,,,,,,,,,,,,,,,,,,,,,,,,,,,,,,,,,,,,,,,,,,,,,,,,,,,,,
,,,,,,611e5a53b063fa0cfe9e59b7,62b2acbccf00c0c5f626ba1e,2022-06-22_08h32.47.347,Colour_Asymmetry_Pilot,2022.1.3,Win32,71.64350193,62b2a6a25f2ba72662469a01,0,54,54,13,1,threefour,,,,,,,,,,,,,,,,,,,,,,,,,,,,,,,,,,,,,,,,,,,,,,,,,,,,,,,,,,,,,,,,,,,,,,,,,,,,,,,,,,,,,,,,,,,,,,,,,,,,,,,,,,,,,,,,,,,,,,,,,,,,,,,,,,,,,,,,,,,,,,,,,,,,,,,,
,,,,,,611e5a53b063fa0cfe9e59b7,62b2acbccf00c0c5f626ba1e,2022-06-22_08h32.47.347,Colour_Asymmetry_Pilot,2022.1.3,Win32,71.64350193,62b2a6a25f2ba72662469a01,0,55,55,144,1,onetwo,,,,,,,,,,,,,,,,,,,,,,,,,,,,,,,,,,,,,,,,,,,,,,,,,,,,,,,,,,,,,,,,,,,,,,,,,,,,,,,,,,,,,,,,,,,,,,,,,,,,,,,,,,,,,,,,,,,,,,,,,,,,,,,,,,,,,,,,,,,,,,,,,,,,,,,,
,,,,,,611e5a53b063fa0cfe9e59b7,62b2acbccf00c0c5f626ba1e,2022-06-22_08h32.47.347,Colour_Asymmetry_Pilot,2022.1.3,Win32,71.64350193,62b2a6a25f2ba72662469a01,0,56,56,154,1,twoone,,,,,,,,,,,,,,,,,,,,,,,,,,,,,,,,,,,,,,,,,,,,,,,,,,,,,,,,,,,,,,,,,,,,,,,,,,,,,,,,,,,,,,,,,,,,,,,,,,,,,,,,,,,,,,,,,,,,,,,,,,,,,,,,,,,,,,,,,,,,,,,,,,,,,,,,
,,,,,,611e5a53b063fa0cfe9e59b7,62b2acbccf00c0c5f626ba1e,2022-06-22_08h32.47.347,Colour_Asymmetry_Pilot,2022.1.3,Win32,71.64350193,62b2a6a25f2ba72662469a01,0,57,57,97,1,onethree,,,,,,,,,,,,,,,,,,,,,,,,,,,,,,,,,,,,,,,,,,,,,,,,,,,,,,,,,,,,,,,,,,,,,,,,,,,,,,,,,,,,,,,,,,,,,,,,,,,,,,,,,,,,,,,,,,,,,,,,,,,,,,,,,,,,,,,,,,,,,,,,,,,,,,,,
,,,,,,611e5a53b063fa0cfe9e59b7,62b2acbccf00c0c5f626ba1e,2022-06-22_08h32.47.347,Colour_Asymmetry_Pilot,2022.1.3,Win32,71.64350193,62b2a6a25f2ba72662469a01,0,58,58,120,1,onetwo,,,,,,,,,,,,,,,,,,,,,,,,,,,,,,,,,,,,,,,,,,,,,,,,,,,,,,,,,,,,,,,,,,,,,,,,,,,,,,,,,,,,,,,,,,,,,,,,,,,,,,,,,,,,,,,,,,,,,,,,,,,,,,,,,,,,,,,,,,,,,,,,,,,,,,,,
,,,,,,611e5a53b063fa0cfe9e59b7,62b2acbccf00c0c5f626ba1e,2022-06-22_08h32.47.347,Colour_Asymmetry_Pilot,2022.1.3,Win32,71.64350193,62b2a6a25f2ba72662469a01,0,59,59,141,1,threefour,,,,,,,,,,,,,,,,,,,,,,,,,,,,,,,,,,,,,,,,,,,,,,,,,,,,,,,,,,,,,,,,,,,,,,,,,,,,,,,,,,,,,,,,,,,,,,,,,,,,,,,,,,,,,,,,,,,,,,,,,,,,,,,,,,,,,,,,,,,,,,,,,,,,,,,,
,,,,,,611e5a53b063fa0cfe9e59b7,62b2acbccf00c0c5f626ba1e,2022-06-22_08h32.47.347,Colour_Asymmetry_Pilot,2022.1.3,Win32,71.64350193,62b2a6a25f2ba72662469a01,0,60,60,151,1,fourthree,,,,,,,,,,,,,,,,,,,,,,,,,,,,,,,,,,,,,,,,,,,,,,,,,,,,,,,,,,,,,,,,,,,,,,,,,,,,,,,,,,,,,,,,,,,,,,,,,,,,,,,,,,,,,,,,,,,,,,,,,,,,,,,,,,,,,,,,,,,,,,,,,,,,,,,,
,,,,,,611e5a53b063fa0cfe9e59b7,62b2acbccf00c0c5f626ba1e,2022-06-22_08h32.47.347,Colour_Asymmetry_Pilot,2022.1.3,Win32,71.64350193,62b2a6a25f2ba72662469a01,0,61,61,3,1,twofour,,,,,,,,,,,,,,,,,,,,,,,,,,,,,,,,,,,,,,,,,,,,,,,,,,,,,,,,,,,,,,,,,,,,,,,,,,,,,,,,,,,,,,,,,,,,,,,,,,,,,,,,,,,,,,,,,,,,,,,,,,,,,,,,,,,,,,,,,,,,,,,,,,,,,,,,
,,,,,,611e5a53b063fa0cfe9e59b7,62b2acbccf00c0c5f626ba1e,2022-06-22_08h32.47.347,Colour_Asymmetry_Pilot,2022.1.3,Win32,71.64350193,62b2a6a25f2ba72662469a01,0,62,62,35,1,twofour,,,,,,,,,,,,,,,,,,,,,,,,,,,,,,,,,,,,,,,,,,,,,,,,,,,,,,,,,,,,,,,,,,,,,,,,,,,,,,,,,,,,,,,,,,,,,,,,,,,,,,,,,,,,,,,,,,,,,,,,,,,,,,,,,,,,,,,,,,,,,,,,,,,,,,,,
,,,,,,611e5a53b063fa0cfe9e59b7,62b2acbccf00c0c5f626ba1e,2022-06-22_08h32.47.347,Colour_Asymmetry_Pilot,2022.1.3,Win32,71.64350193,62b2a6a25f2ba72662469a01,0,63,63,26,1,twoone,,,,,,,,,,,,,,,,,,,,,,,,,,,,,,,,,,,,,,,,,,,,,,,,,,,,,,,,,,,,,,,,,,,,,,,,,,,,,,,,,,,,,,,,,,,,,,,,,,,,,,,,,,,,,,,,,,,,,,,,,,,,,,,,,,,,,,,,,,,,,,,,,,,,,,,,
,,,,,,611e5a53b063fa0cfe9e59b7,62b2acbccf00c0c5f626ba1e,2022-06-22_08h32.47.347,Colour_Asymmetry_Pilot,2022.1.3,Win32,71.64350193,62b2a6a25f2ba72662469a01,0,64,64,107,1,twofour,,,,,,,,,,,,,,,,,,,,,,,,,,,,,,,,,,,,,,,,,,,,,,,,,,,,,,,,,,,,,,,,,,,,,,,,,,,,,,,,,,,,,,,,,,,,,,,,,,,,,,,,,,,,,,,,,,,,,,,,,,,,,,,,,,,,,,,,,,,,,,,,,,,,,,,,
,,,,,,611e5a53b063fa0cfe9e59b7,62b2acbccf00c0c5f626ba1e,2022-06-22_08h32.47.347,Colour_Asymmetry_Pilot,2022.1.3,Win32,71.64350193,62b2a6a25f2ba72662469a01,0,65,65,109,1,threefour,,,,,,,,,,,,,,,,,,,,,,,,,,,,,,,,,,,,,,,,,,,,,,,,,,,,,,,,,,,,,,,,,,,,,,,,,,,,,,,,,,,,,,,,,,,,,,,,,,,,,,,,,,,,,,,,,,,,,,,,,,,,,,,,,,,,,,,,,,,,,,,,,,,,,,,,
,,,,,,611e5a53b063fa0cfe9e59b7,62b2acbccf00c0c5f626ba1e,2022-06-22_08h32.47.347,Colour_Asymmetry_Pilot,2022.1.3,Win32,71.64350193,62b2a6a25f2ba72662469a01,0,66,66,119,1,fourthree,,,,,,,,,,,,,,,,,,,,,,,,,,,,,,,,,,,,,,,,,,,,,,,,,,,,,,,,,,,,,,,,,,,,,,,,,,,,,,,,,,,,,,,,,,,,,,,,,,,,,,,,,,,,,,,,,,,,,,,,,,,,,,,,,,,,,,,,,,,,,,,,,,,,,,,,
,,,,,,611e5a53b063fa0cfe9e59b7,62b2acbccf00c0c5f626ba1e,2022-06-22_08h32.47.347,Colour_Asymmetry_Pilot,2022.1.3,Win32,71.64350193,62b2a6a25f2ba72662469a01,0,67,67,32,1,onetwo,,,,,,,,,,,,,,,,,,,,,,,,,,,,,,,,,,,,,,,,,,,,,,,,,,,,,,,,,,,,,,,,,,,,,,,,,,,,,,,,,,,,,,,,,,,,,,,,,,,,,,,,,,,,,,,,,,,,,,,,,,,,,,,,,,,,,,,,,,,,,,,,,,,,,,,,
,,,,,,611e5a53b063fa0cfe9e59b7,62b2acbccf00c0c5f626ba1e,2022-06-22_08h32.47.347,Colour_Asymmetry_Pilot,2022.1.3,Win32,71.64350193,62b2a6a25f2ba72662469a01,0,68,68,48,1,onetwo,,,,,,,,,,,,,,,,,,,,,,,,,,,,,,,,,,,,,,,,,,,,,,,,,,,,,,,,,,,,,,,,,,,,,,,,,,,,,,,,,,,,,,,,,,,,,,,,,,,,,,,,,,,,,,,,,,,,,,,,,,,,,,,,,,,,,,,,,,,,,,,,,,,,,,,,
,,,,,,611e5a53b063fa0cfe9e59b7,62b2acbccf00c0c5f626ba1e,2022-06-22_08h32.47.347,Colour_Asymmetry_Pilot,2022.1.3,Win32,71.64350193,62b2a6a25f2ba72662469a01,0,69,69,8,1,onetwo,,,,,,,,,,,,,,,,,,,,,,,,,,,,,,,,,,,,,,,,,,,,,,,,,,,,,,,,,,,,,,,,,,,,,,,,,,,,,,,,,,,,,,,,,,,,,,,,,,,,,,,,,,,,,,,,,,,,,,,,,,,,,,,,,,,,,,,,,,,,,,,,,,,,,,,,
,,,,,,611e5a53b063fa0cfe9e59b7,62b2acbccf00c0c5f626ba1e,2022-06-22_08h32.47.347,Colour_Asymmetry_Pilot,2022.1.3,Win32,71.64350193,62b2a6a25f2ba72662469a01,0,70,70,108,1,threeone,,,,,,,,,,,,,,,,,,,,,,,,,,,,,,,,,,,,,,,,,,,,,,,,,,,,,,,,,,,,,,,,,,,,,,,,,,,,,,,,,,,,,,,,,,,,,,,,,,,,,,,,,,,,,,,,,,,,,,,,,,,,,,,,,,,,,,,,,,,,,,,,,,,,,,,,
,,,,,,611e5a53b063fa0cfe9e59b7,62b2acbccf00c0c5f626ba1e,2022-06-22_08h32.47.347,Colour_Asymmetry_Pilot,2022.1.3,Win32,71.64350193,62b2a6a25f2ba72662469a01,0,71,71,123,1,twofour,,,,,,,,,,,,,,,,,,,,,,,,,,,,,,,,,,,,,,,,,,,,,,,,,,,,,,,,,,,,,,,,,,,,,,,,,,,,,,,,,,,,,,,,,,,,,,,,,,,,,,,,,,,,,,,,,,,,,,,,,,,,,,,,,,,,,,,,,,,,,,,,,,,,,,,,
,,,,,,611e5a53b063fa0cfe9e59b7,62b2acbccf00c0c5f626ba1e,2022-06-22_08h32.47.347,Colour_Asymmetry_Pilot,2022.1.3,Win32,71.64350193,62b2a6a25f2ba72662469a01,0,72,72,53,1,threefour,,,,,,,,,,,,,,,,,,,,,,,,,,,,,,,,,,,,,,,,,,,,,,,,,,,,,,,,,,,,,,,,,,,,,,,,,,,,,,,,,,,,,,,,,,,,,,,,,,,,,,,,,,,,,,,,,,,,,,,,,,,,,,,,,,,,,,,,,,,,,,,,,,,,,,,,
,,,,,,611e5a53b063fa0cfe9e59b7,62b2acbccf00c0c5f626ba1e,2022-06-22_08h32.47.347,Colour_Asymmetry_Pilot,2022.1.3,Win32,71.64350193,62b2a6a25f2ba72662469a01,0,73,73,161,1,onethree,,,,,,,,,,,,,,,,,,,,,,,,,,,,,,,,,,,,,,,,,,,,,,,,,,,,,,,,,,,,,,,,,,,,,,,,,,,,,,,,,,,,,,,,,,,,,,,,,,,,,,,,,,,,,,,,,,,,,,,,,,,,,,,,,,,,,,,,,,,,,,,,,,,,,,,,
,,,,,,611e5a53b063fa0cfe9e59b7,62b2acbccf00c0c5f626ba1e,2022-06-22_08h32.47.347,Colour_Asymmetry_Pilot,2022.1.3,Win32,71.64350193,62b2a6a25f2ba72662469a01,0,74,74,86,1,fourtwo,,,,,,,,,,,,,,,,,,,,,,,,,,,,,,,,,,,,,,,,,,,,,,,,,,,,,,,,,,,,,,,,,,,,,,,,,,,,,,,,,,,,,,,,,,,,,,,,,,,,,,,,,,,,,,,,,,,,,,,,,,,,,,,,,,,,,,,,,,,,,,,,,,,,,,,,
,,,,,,611e5a53b063fa0cfe9e59b7,62b2acbccf00c0c5f626ba1e,2022-06-22_08h32.47.347,Colour_Asymmetry_Pilot,2022.1.3,Win32,71.64350193,62b2a6a25f2ba72662469a01,0,75,75,113,1,onethree,,,,,,,,,,,,,,,,,,,,,,,,,,,,,,,,,,,,,,,,,,,,,,,,,,,,,,,,,,,,,,,,,,,,,,,,,,,,,,,,,,,,,,,,,,,,,,,,,,,,,,,,,,,,,,,,,,,,,,,,,,,,,,,,,,,,,,,,,,,,,,,,,,,,,,,,
,,,,,,611e5a53b063fa0cfe9e59b7,62b2acbccf00c0c5f626ba1e,2022-06-22_08h32.47.347,Colour_Asymmetry_Pilot,2022.1.3,Win32,71.64350193,62b2a6a25f2ba72662469a01,0,76,76,57,1,onethree,,,,,,,,,,,,,,,,,,,,,,,,,,,,,,,,,,,,,,,,,,,,,,,,,,,,,,,,,,,,,,,,,,,,,,,,,,,,,,,,,,,,,,,,,,,,,,,,,,,,,,,,,,,,,,,,,,,,,,,,,,,,,,,,,,,,,,,,,,,,,,,,,,,,,,,,
,,,,,,611e5a53b063fa0cfe9e59b7,62b2acbccf00c0c5f626ba1e,2022-06-22_08h32.47.347,Colour_Asymmetry_Pilot,2022.1.3,Win32,71.64350193,62b2a6a25f2ba72662469a01,0,77,77,42,1,twoone,,,,,,,,,,,,,,,,,,,,,,,,,,,,,,,,,,,,,,,,,,,,,,,,,,,,,,,,,,,,,,,,,,,,,,,,,,,,,,,,,,,,,,,,,,,,,,,,,,,,,,,,,,,,,,,,,,,,,,,,,,,,,,,,,,,,,,,,,,,,,,,,,,,,,,,,
,,,,,,611e5a53b063fa0cfe9e59b7,62b2acbccf00c0c5f626ba1e,2022-06-22_08h32.47.347,Colour_Asymmetry_Pilot,2022.1.3,Win32,71.64350193,62b2a6a25f2ba72662469a01,0,78,78,93,1,threefour,,,,,,,,,,,,,,,,,,,,,,,,,,,,,,,,,,,,,,,,,,,,,,,,,,,,,,,,,,,,,,,,,,,,,,,,,,,,,,,,,,,,,,,,,,,,,,,,,,,,,,,,,,,,,,,,,,,,,,,,,,,,,,,,,,,,,,,,,,,,,,,,,,,,,,,,
,,,,,,611e5a53b063fa0cfe9e59b7,62b2acbccf00c0c5f626ba1e,2022-06-22_08h32.47.347,Colour_Asymmetry_Pilot,2022.1.3,Win32,71.64350193,62b2a6a25f2ba72662469a01,0,79,79,11,1,twofour,,,,,,,,,,,,,,,,,,,,,,,,,,,,,,,,,,,,,,,,,,,,,,,,,,,,,,,,,,,,,,,,,,,,,,,,,,,,,,,,,,,,,,,,,,,,,,,,,,,,,,,,,,,,,,,,,,,,,,,,,,,,,,,,,,,,,,,,,,,,,,,,,,,,,,,,
,,,,,,611e5a53b063fa0cfe9e59b7,62b2acbccf00c0c5f626ba1e,2022-06-22_08h32.47.347,Colour_Asymmetry_Pilot,2022.1.3,Win32,71.64350193,62b2a6a25f2ba72662469a01,0,80,80,114,1,twoone,,,,,,,,,,,,,,,,,,,,,,,,,,,,,,,,,,,,,,,,,,,,,,,,,,,,,,,,,,,,,,,,,,,,,,,,,,,,,,,,,,,,,,,,,,,,,,,,,,,,,,,,,,,,,,,,,,,,,,,,,,,,,,,,,,,,,,,,,,,,,,,,,,,,,,,,
,,,,,,611e5a53b063fa0cfe9e59b7,62b2acbccf00c0c5f626ba1e,2022-06-22_08h32.47.347,Colour_Asymmetry_Pilot,2022.1.3,Win32,71.64350193,62b2a6a25f2ba72662469a01,0,81,81,143,1,fourthree,,,,,,,,,,,,,,,,,,,,,,,,,,,,,,,,,,,,,,,,,,,,,,,,,,,,,,,,,,,,,,,,,,,,,,,,,,,,,,,,,,,,,,,,,,,,,,,,,,,,,,,,,,,,,,,,,,,,,,,,,,,,,,,,,,,,,,,,,,,,,,,,,,,,,,,,
,,,,,,611e5a53b063fa0cfe9e59b7,62b2acbccf00c0c5f626ba1e,2022-06-22_08h32.47.347,Colour_Asymmetry_Pilot,2022.1.3,Win32,71.64350193,62b2a6a25f2ba72662469a01,0,82,82,60,1,threeone,,,,,,,,,,,,,,,,,,,,,,,,,,,,,,,,,,,,,,,,,,,,,,,,,,,,,,,,,,,,,,,,,,,,,,,,,,,,,,,,,,,,,,,,,,,,,,,,,,,,,,,,,,,,,,,,,,,,,,,,,,,,,,,,,,,,,,,,,,,,,,,,,,,,,,,,
,,,,,,611e5a53b063fa0cfe9e59b7,62b2acbccf00c0c5f626ba1e,2022-06-22_08h32.47.347,Colour_Asymmetry_Pilot,2022.1.3,Win32,71.64350193,62b2a6a25f2ba72662469a01,0,83,83,71,1,fourthree,,,,,,,,,,,,,,,,,,,,,,,,,,,,,,,,,,,,,,,,,,,,,,,,,,,,,,,,,,,,,,,,,,,,,,,,,,,,,,,,,,,,,,,,,,,,,,,,,,,,,,,,,,,,,,,,,,,,,,,,,,,,,,,,,,,,,,,,,,,,,,,,,,,,,,,,
,,,,,,611e5a53b063fa0cfe9e59b7,62b2acbccf00c0c5f626ba1e,2022-06-22_08h32.47.347,Colour_Asymmetry_Pilot,2022.1.3,Win32,71.64350193,62b2a6a25f2ba72662469a01,0,84,84,64,1,onetwo,,,,,,,,,,,,,,,,,,,,,,,,,,,,,,,,,,,,,,,,,,,,,,,,,,,,,,,,,,,,,,,,,,,,,,,,,,,,,,,,,,,,,,,,,,,,,,,,,,,,,,,,,,,,,,,,,,,,,,,,,,,,,,,,,,,,,,,,,,,,,,,,,,,,,,,,
,,,,,,611e5a53b063fa0cfe9e59b7,62b2acbccf00c0c5f626ba1e,2022-06-22_08h32.47.347,Colour_Asymmetry_Pilot,2022.1.3,Win32,71.64350193,62b2a6a25f2ba72662469a01,0,85,85,10,1,twoone,,,,,,,,,,,,,,,,,,,,,,,,,,,,,,,,,,,,,,,,,,,,,,,,,,,,,,,,,,,,,,,,,,,,,,,,,,,,,,,,,,,,,,,,,,,,,,,,,,,,,,,,,,,,,,,,,,,,,,,,,,,,,,,,,,,,,,,,,,,,,,,,,,,,,,,,
,,,,,,611e5a53b063fa0cfe9e59b7,62b2acbccf00c0c5f626ba1e,2022-06-22_08h32.47.347,Colour_Asymmetry_Pilot,2022.1.3,Win32,71.64350193,62b2a6a25f2ba72662469a01,0,86,86,89,1,onethree,,,,,,,,,,,,,,,,,,,,,,,,,,,,,,,,,,,,,,,,,,,,,,,,,,,,,,,,,,,,,,,,,,,,,,,,,,,,,,,,,,,,,,,,,,,,,,,,,,,,,,,,,,,,,,,,,,,,,,,,,,,,,,,,,,,,,,,,,,,,,,,,,,,,,,,,
,,,,,,611e5a53b063fa0cfe9e59b7,62b2acbccf00c0c5f626ba1e,2022-06-22_08h32.47.347,Colour_Asymmetry_Pilot,2022.1.3,Win32,71.64350193,62b2a6a25f2ba72662469a01,0,87,87,77,1,threefour,,,,,,,,,,,,,,,,,,,,,,,,,,,,,,,,,,,,,,,,,,,,,,,,,,,,,,,,,,,,,,,,,,,,,,,,,,,,,,,,,,,,,,,,,,,,,,,,,,,,,,,,,,,,,,,,,,,,,,,,,,,,,,,,,,,,,,,,,,,,,,,,,,,,,,,,
,,,,,,611e5a53b063fa0cfe9e59b7,62b2acbccf00c0c5f626ba1e,2022-06-22_08h32.47.347,Colour_Asymmetry_Pilot,2022.1.3,Win32,71.64350193,62b2a6a25f2ba72662469a01,0,88,88,95,1,fourthree,,,,,,,,,,,,,,,,,,,,,,,,,,,,,,,,,,,,,,,,,,,,,,,,,,,,,,,,,,,,,,,,,,,,,,,,,,,,,,,,,,,,,,,,,,,,,,,,,,,,,,,,,,,,,,,,,,,,,,,,,,,,,,,,,,,,,,,,,,,,,,,,,,,,,,,,
,,,,,,611e5a53b063fa0cfe9e59b7,62b2acbccf00c0c5f626ba1e,2022-06-22_08h32.47.347,Colour_Asymmetry_Pilot,2022.1.3,Win32,71.64350193,62b2a6a25f2ba72662469a01,0,89,89,54,1,fourtwo,,,,,,,,,,,,,,,,,,,,,,,,,,,,,,,,,,,,,,,,,,,,,,,,,,,,,,,,,,,,,,,,,,,,,,,,,,,,,,,,,,,,,,,,,,,,,,,,,,,,,,,,,,,,,,,,,,,,,,,,,,,,,,,,,,,,,,,,,,,,,,,,,,,,,,,,
,,,,,,611e5a53b063fa0cfe9e59b7,62b2acbccf00c0c5f626ba1e,2022-06-22_08h32.47.347,Colour_Asymmetry_Pilot,2022.1.3,Win32,71.64350193,62b2a6a25f2ba72662469a01,0,90,90,65,1,onethree,,,,,,,,,,,,,,,,,,,,,,,,,,,,,,,,,,,,,,,,,,,,,,,,,,,,,,,,,,,,,,,,,,,,,,,,,,,,,,,,,,,,,,,,,,,,,,,,,,,,,,,,,,,,,,,,,,,,,,,,,,,,,,,,,,,,,,,,,,,,,,,,,,,,,,,,
,,,,,,611e5a53b063fa0cfe9e59b7,62b2acbccf00c0c5f626ba1e,2022-06-22_08h32.47.347,Colour_Asymmetry_Pilot,2022.1.3,Win32,71.64350193,62b2a6a25f2ba72662469a01,0,91,91,63,1,fourthree,,,,,,,,,,,,,,,,,,,,,,,,,,,,,,,,,,,,,,,,,,,,,,,,,,,,,,,,,,,,,,,,,,,,,,,,,,,,,,,,,,,,,,,,,,,,,,,,,,,,,,,,,,,,,,,,,,,,,,,,,,,,,,,,,,,,,,,,,,,,,,,,,,,,,,,,
,,,,,,611e5a53b063fa0cfe9e59b7,62b2acbccf00c0c5f626ba1e,2022-06-22_08h32.47.347,Colour_Asymmetry_Pilot,2022.1.3,Win32,71.64350193,62b2a6a25f2ba72662469a01,0,92,92,160,1,onetwo,,,,,,,,,,,,,,,,,,,,,,,,,,,,,,,,,,,,,,,,,,,,,,,,,,,,,,,,,,,,,,,,,,,,,,,,,,,,,,,,,,,,,,,,,,,,,,,,,,,,,,,,,,,,,,,,,,,,,,,,,,,,,,,,,,,,,,,,,,,,,,,,,,,,,,,,
,,,,,,611e5a53b063fa0cfe9e59b7,62b2acbccf00c0c5f626ba1e,2022-06-22_08h32.47.347,Colour_Asymmetry_Pilot,2022.1.3,Win32,71.64350193,62b2a6a25f2ba72662469a01,0,93,93,102,1,fourtwo,,,,,,,,,,,,,,,,,,,,,,,,,,,,,,,,,,,,,,,,,,,,,,,,,,,,,,,,,,,,,,,,,,,,,,,,,,,,,,,,,,,,,,,,,,,,,,,,,,,,,,,,,,,,,,,,,,,,,,,,,,,,,,,,,,,,,,,,,,,,,,,,,,,,,,,,
,,,,,,611e5a53b063fa0cfe9e59b7,62b2acbccf00c0c5f626ba1e,2022-06-22_08h32.47.347,Colour_Asymmetry_Pilot,2022.1.3,Win32,71.64350193,62b2a6a25f2ba72662469a01,0,94,94,98,1,twoone,,,,,,,,,,,,,,,,,,,,,,,,,,,,,,,,,,,,,,,,,,,,,,,,,,,,,,,,,,,,,,,,,,,,,,,,,,,,,,,,,,,,,,,,,,,,,,,,,,,,,,,,,,,,,,,,,,,,,,,,,,,,,,,,,,,,,,,,,,,,,,,,,,,,,,,,
,,,,,,611e5a53b063fa0cfe9e59b7,62b2acbccf00c0c5f626ba1e,2022-06-22_08h32.47.347,Colour_Asymmetry_Pilot,2022.1.3,Win32,71.64350193,62b2a6a25f2ba72662469a01,0,95,95,145,1,onethree,,,,,,,,,,,,,,,,,,,,,,,,,,,,,,,,,,,,,,,,,,,,,,,,,,,,,,,,,,,,,,,,,,,,,,,,,,,,,,,,,,,,,,,,,,,,,,,,,,,,,,,,,,,,,,,,,,,,,,,,,,,,,,,,,,,,,,,,,,,,,,,,,,,,,,,,
,,,,,,611e5a53b063fa0cfe9e59b7,62b2acbccf00c0c5f626ba1e,2022-06-22_08h32.47.347,Colour_Asymmetry_Pilot,2022.1.3,Win32,71.64350193,62b2a6a25f2ba72662469a01,0,96,96,12,1,threeone,,,,,,,,,,,,,,,,,,,,,,,,,,,,,,,,,,,,,,,,,,,,,,,,,,,,,,,,,,,,,,,,,,,,,,,,,,,,,,,,,,,,,,,,,,,,,,,,,,,,,,,,,,,,,,,,,,,,,,,,,,,,,,,,,,,,,,,,,,,,,,,,,,,,,,,,
,,,,,,611e5a53b063fa0cfe9e59b7,62b2acbccf00c0c5f626ba1e,2022-06-22_08h32.47.347,Colour_Asymmetry_Pilot,2022.1.3,Win32,71.64350193,62b2a6a25f2ba72662469a01,0,97,97,72,1,onetwo,,,,,,,,,,,,,,,,,,,,,,,,,,,,,,,,,,,,,,,,,,,,,,,,,,,,,,,,,,,,,,,,,,,,,,,,,,,,,,,,,,,,,,,,,,,,,,,,,,,,,,,,,,,,,,,,,,,,,,,,,,,,,,,,,,,,,,,,,,,,,,,,,,,,,,,,
,,,,,,611e5a53b063fa0cfe9e59b7,62b2acbccf00c0c5f626ba1e,2022-06-22_08h32.47.347,Colour_Asymmetry_Pilot,2022.1.3,Win32,71.64350193,62b2a6a25f2ba72662469a01,0,98,98,92,1,threeone,,,,,,,,,,,,,,,,,,,,,,,,,,,,,,,,,,,,,,,,,,,,,,,,,,,,,,,,,,,,,,,,,,,,,,,,,,,,,,,,,,,,,,,,,,,,,,,,,,,,,,,,,,,,,,,,,,,,,,,,,,,,,,,,,,,,,,,,,,,,,,,,,,,,,,,,
,,,,,,611e5a53b063fa0cfe9e59b7,62b2acbccf00c0c5f626ba1e,2022-06-22_08h32.47.347,Colour_Asymmetry_Pilot,2022.1.3,Win32,71.64350193,62b2a6a25f2ba72662469a01,0,99,99,131,1,twofour,,,,,,,,,,,,,,,,,,,,,,,,,,,,,,,,,,,,,,,,,,,,,,,,,,,,,,,,,,,,,,,,,,,,,,,,,,,,,,,,,,,,,,,,,,,,,,,,,,,,,,,,,,,,,,,,,,,,,,,,,,,,,,,,,,,,,,,,,,,,,,,,,,,,,,,,
,,,,,,611e5a53b063fa0cfe9e59b7,62b2acbccf00c0c5f626ba1e,2022-06-22_08h32.47.347,Colour_Asymmetry_Pilot,2022.1.3,Win32,71.64350193,62b2a6a25f2ba72662469a01,0,100,100,75,1,twofour,,,,,,,,,,,,,,,,,,,,,,,,,,,,,,,,,,,,,,,,,,,,,,,,,,,,,,,,,,,,,,,,,,,,,,,,,,,,,,,,,,,,,,,,,,,,,,,,,,,,,,,,,,,,,,,,,,,,,,,,,,,,,,,,,,,,,,,,,,,,,,,,,,,,,,,,
,,,,,,611e5a53b063fa0cfe9e59b7,62b2acbccf00c0c5f626ba1e,2022-06-22_08h32.47.347,Colour_Asymmetry_Pilot,2022.1.3,Win32,71.64350193,62b2a6a25f2ba72662469a01,0,101,101,67,1,twofour,,,,,,,,,,,,,,,,,,,,,,,,,,,,,,,,,,,,,,,,,,,,,,,,,,,,,,,,,,,,,,,,,,,,,,,,,,,,,,,,,,,,,,,,,,,,,,,,,,,,,,,,,,,,,,,,,,,,,,,,,,,,,,,,,,,,,,,,,,,,,,,,,,,,,,,,
,,,,,,611e5a53b063fa0cfe9e59b7,62b2acbccf00c0c5f626ba1e,2022-06-22_08h32.47.347,Colour_Asymmetry_Pilot,2022.1.3,Win32,71.64350193,62b2a6a25f2ba72662469a01,0,102,102,149,1,threefour,,,,,,,,,,,,,,,,,,,,,,,,,,,,,,,,,,,,,,,,,,,,,,,,,,,,,,,,,,,,,,,,,,,,,,,,,,,,,,,,,,,,,,,,,,,,,,,,,,,,,,,,,,,,,,,,,,,,,,,,,,,,,,,,,,,,,,,,,,,,,,,,,,,,,,,,
,,,,,,611e5a53b063fa0cfe9e59b7,62b2acbccf00c0c5f626ba1e,2022-06-22_08h32.47.347,Colour_Asymmetry_Pilot,2022.1.3,Win32,71.64350193,62b2a6a25f2ba72662469a01,0,103,103,138,1,twoone,,,,,,,,,,,,,,,,,,,,,,,,,,,,,,,,,,,,,,,,,,,,,,,,,,,,,,,,,,,,,,,,,,,,,,,,,,,,,,,,,,,,,,,,,,,,,,,,,,,,,,,,,,,,,,,,,,,,,,,,,,,,,,,,,,,,,,,,,,,,,,,,,,,,,,,,
,,,,,,611e5a53b063fa0cfe9e59b7,62b2acbccf00c0c5f626ba1e,2022-06-22_08h32.47.347,Colour_Asymmetry_Pilot,2022.1.3,Win32,71.64350193,62b2a6a25f2ba72662469a01,0,104,104,47,1,fourthree,,,,,,,,,,,,,,,,,,,,,,,,,,,,,,,,,,,,,,,,,,,,,,,,,,,,,,,,,,,,,,,,,,,,,,,,,,,,,,,,,,,,,,,,,,,,,,,,,,,,,,,,,,,,,,,,,,,,,,,,,,,,,,,,,,,,,,,,,,,,,,,,,,,,,,,,
,,,,,,611e5a53b063fa0cfe9e59b7,62b2acbccf00c0c5f626ba1e,2022-06-22_08h32.47.347,Colour_Asymmetry_Pilot,2022.1.3,Win32,71.64350193,62b2a6a25f2ba72662469a01,0,105,105,68,1,threeone,,,,,,,,,,,,,,,,,,,,,,,,,,,,,,,,,,,,,,,,,,,,,,,,,,,,,,,,,,,,,,,,,,,,,,,,,,,,,,,,,,,,,,,,,,,,,,,,,,,,,,,,,,,,,,,,,,,,,,,,,,,,,,,,,,,,,,,,,,,,,,,,,,,,,,,,
,,,,,,611e5a53b063fa0cfe9e59b7,62b2acbccf00c0c5f626ba1e,2022-06-22_08h32.47.347,Colour_Asymmetry_Pilot,2022.1.3,Win32,71.64350193,62b2a6a25f2ba72662469a01,0,106,106,148,1,threeone,,,,,,,,,,,,,,,,,,,,,,,,,,,,,,,,,,,,,,,,,,,,,,,,,,,,,,,,,,,,,,,,,,,,,,,,,,,,,,,,,,,,,,,,,,,,,,,,,,,,,,,,,,,,,,,,,,,,,,,,,,,,,,,,,,,,,,,,,,,,,,,,,,,,,,,,
,,,,,,611e5a53b063fa0cfe9e59b7,62b2acbccf00c0c5f626ba1e,2022-06-22_08h32.47.347,Colour_Asymmetry_Pilot,2022.1.3,Win32,71.64350193,62b2a6a25f2ba72662469a01,0,107,107,127,1,fourthree,,,,,,,,,,,,,,,,,,,,,,,,,,,,,,,,,,,,,,,,,,,,,,,,,,,,,,,,,,,,,,,,,,,,,,,,,,,,,,,,,,,,,,,,,,,,,,,,,,,,,,,,,,,,,,,,,,,,,,,,,,,,,,,,,,,,,,,,,,,,,,,,,,,,,,,,
,,,,,,611e5a53b063fa0cfe9e59b7,62b2acbccf00c0c5f626ba1e,2022-06-22_08h32.47.347,Colour_Asymmetry_Pilot,2022.1.3,Win32,71.64350193,62b2a6a25f2ba72662469a01,0,108,108,25,1,onethree,,,,,,,,,,,,,,,,,,,,,,,,,,,,,,,,,,,,,,,,,,,,,,,,,,,,,,,,,,,,,,,,,,,,,,,,,,,,,,,,,,,,,,,,,,,,,,,,,,,,,,,,,,,,,,,,,,,,,,,,,,,,,,,,,,,,,,,,,,,,,,,,,,,,,,,,
,,,,,,611e5a53b063fa0cfe9e59b7,62b2acbccf00c0c5f626ba1e,2022-06-22_08h32.47.347,Colour_Asymmetry_Pilot,2022.1.3,Win32,71.64350193,62b2a6a25f2ba72662469a01,0,109,109,0,1,onetwo,,,,,,,,,,,,,,,,,,,,,,,,,,,,,,,,,,,,,,,,,,,,,,,,,,,,,,,,,,,,,,,,,,,,,,,,,,,,,,,,,,,,,,,,,,,,,,,,,,,,,,,,,,,,,,,,,,,,,,,,,,,,,,,,,,,,,,,,,,,,,,,,,,,,,,,,
,,,,,,611e5a53b063fa0cfe9e59b7,62b2acbccf00c0c5f626ba1e,2022-06-22_08h32.47.347,Colour_Asymmetry_Pilot,2022.1.3,Win32,71.64350193,62b2a6a25f2ba72662469a01,0,110,110,76,1,threeone,,,,,,,,,,,,,,,,,,,,,,,,,,,,,,,,,,,,,,,,,,,,,,,,,,,,,,,,,,,,,,,,,,,,,,,,,,,,,,,,,,,,,,,,,,,,,,,,,,,,,,,,,,,,,,,,,,,,,,,,,,,,,,,,,,,,,,,,,,,,,,,,,,,,,,,,
,,,,,,611e5a53b063fa0cfe9e59b7,62b2acbccf00c0c5f626ba1e,2022-06-22_08h32.47.347,Colour_Asymmetry_Pilot,2022.1.3,Win32,71.64350193,62b2a6a25f2ba72662469a01,0,111,111,125,1,threefour,,,,,,,,,,,,,,,,,,,,,,,,,,,,,,,,,,,,,,,,,,,,,,,,,,,,,,,,,,,,,,,,,,,,,,,,,,,,,,,,,,,,,,,,,,,,,,,,,,,,,,,,,,,,,,,,,,,,,,,,,,,,,,,,,,,,,,,,,,,,,,,,,,,,,,,,
,,,,,,611e5a53b063fa0cfe9e59b7,62b2acbccf00c0c5f626ba1e,2022-06-22_08h32.47.347,Colour_Asymmetry_Pilot,2022.1.3,Win32,71.64350193,62b2a6a25f2ba72662469a01,0,112,112,51,1,twofour,,,,,,,,,,,,,,,,,,,,,,,,,,,,,,,,,,,,,,,,,,,,,,,,,,,,,,,,,,,,,,,,,,,,,,,,,,,,,,,,,,,,,,,,,,,,,,,,,,,,,,,,,,,,,,,,,,,,,,,,,,,,,,,,,,,,,,,,,,,,,,,,,,,,,,,,
,,,,,,611e5a53b063fa0cfe9e59b7,62b2acbccf00c0c5f626ba1e,2022-06-22_08h32.47.347,Colour_Asymmetry_Pilot,2022.1.3,Win32,71.64350193,62b2a6a25f2ba72662469a01,0,113,113,49,1,onethree,,,,,,,,,,,,,,,,,,,,,,,,,,,,,,,,,,,,,,,,,,,,,,,,,,,,,,,,,,,,,,,,,,,,,,,,,,,,,,,,,,,,,,,,,,,,,,,,,,,,,,,,,,,,,,,,,,,,,,,,,,,,,,,,,,,,,,,,,,,,,,,,,,,,,,,,
,,,,,,611e5a53b063fa0cfe9e59b7,62b2acbccf00c0c5f626ba1e,2022-06-22_08h32.47.347,Colour_Asymmetry_Pilot,2022.1.3,Win32,71.64350193,62b2a6a25f2ba72662469a01,0,114,114,115,1,twofour,,,,,,,,,,,,,,,,,,,,,,,,,,,,,,,,,,,,,,,,,,,,,,,,,,,,,,,,,,,,,,,,,,,,,,,,,,,,,,,,,,,,,,,,,,,,,,,,,,,,,,,,,,,,,,,,,,,,,,,,,,,,,,,,,,,,,,,,,,,,,,,,,,,,,,,,
,,,,,,611e5a53b063fa0cfe9e59b7,62b2acbccf00c0c5f626ba1e,2022-06-22_08h32.47.347,Colour_Asymmetry_Pilot,2022.1.3,Win32,71.64350193,62b2a6a25f2ba72662469a01,0,115,115,147,1,twofour,,,,,,,,,,,,,,,,,,,,,,,,,,,,,,,,,,,,,,,,,,,,,,,,,,,,,,,,,,,,,,,,,,,,,,,,,,,,,,,,,,,,,,,,,,,,,,,,,,,,,,,,,,,,,,,,,,,,,,,,,,,,,,,,,,,,,,,,,,,,,,,,,,,,,,,,
,,,,,,611e5a53b063fa0cfe9e59b7,62b2acbccf00c0c5f626ba1e,2022-06-22_08h32.47.347,Colour_Asymmetry_Pilot,2022.1.3,Win32,71.64350193,62b2a6a25f2ba72662469a01,0,116,116,159,1,fourthree,,,,,,,,,,,,,,,,,,,,,,,,,,,,,,,,,,,,,,,,,,,,,,,,,,,,,,,,,,,,,,,,,,,,,,,,,,,,,,,,,,,,,,,,,,,,,,,,,,,,,,,,,,,,,,,,,,,,,,,,,,,,,,,,,,,,,,,,,,,,,,,,,,,,,,,,
,,,,,,611e5a53b063fa0cfe9e59b7,62b2acbccf00c0c5f626ba1e,2022-06-22_08h32.47.347,Colour_Asymmetry_Pilot,2022.1.3,Win32,71.64350193,62b2a6a25f2ba72662469a01,0,117,117,118,1,fourtwo,,,,,,,,,,,,,,,,,,,,,,,,,,,,,,,,,,,,,,,,,,,,,,,,,,,,,,,,,,,,,,,,,,,,,,,,,,,,,,,,,,,,,,,,,,,,,,,,,,,,,,,,,,,,,,,,,,,,,,,,,,,,,,,,,,,,,,,,,,,,,,,,,,,,,,,,
,,,,,,611e5a53b063fa0cfe9e59b7,62b2acbccf00c0c5f626ba1e,2022-06-22_08h32.47.347,Colour_Asymmetry_Pilot,2022.1.3,Win32,71.64350193,62b2a6a25f2ba72662469a01,0,118,118,155,1,twofour,,,,,,,,,,,,,,,,,,,,,,,,,,,,,,,,,,,,,,,,,,,,,,,,,,,,,,,,,,,,,,,,,,,,,,,,,,,,,,,,,,,,,,,,,,,,,,,,,,,,,,,,,,,,,,,,,,,,,,,,,,,,,,,,,,,,,,,,,,,,,,,,,,,,,,,,
,,,,,,611e5a53b063fa0cfe9e59b7,62b2acbccf00c0c5f626ba1e,2022-06-22_08h32.47.347,Colour_Asymmetry_Pilot,2022.1.3,Win32,71.64350193,62b2a6a25f2ba72662469a01,0,119,119,44,1,threeone,,,,,,,,,,,,,,,,,,,,,,,,,,,,,,,,,,,,,,,,,,,,,,,,,,,,,,,,,,,,,,,,,,,,,,,,,,,,,,,,,,,,,,,,,,,,,,,,,,,,,,,,,,,,,,,,,,,,,,,,,,,,,,,,,,,,,,,,,,,,,,,,,,,,,,,,
,,,,,,611e5a53b063fa0cfe9e59b7,62b2acbccf00c0c5f626ba1e,2022-06-22_08h32.47.347,Colour_Asymmetry_Pilot,2022.1.3,Win32,71.64350193,62b2a6a25f2ba72662469a01,0,120,120,99,1,twofour,,,,,,,,,,,,,,,,,,,,,,,,,,,,,,,,,,,,,,,,,,,,,,,,,,,,,,,,,,,,,,,,,,,,,,,,,,,,,,,,,,,,,,,,,,,,,,,,,,,,,,,,,,,,,,,,,,,,,,,,,,,,,,,,,,,,,,,,,,,,,,,,,,,,,,,,
,,,,,,611e5a53b063fa0cfe9e59b7,62b2acbccf00c0c5f626ba1e,2022-06-22_08h32.47.347,Colour_Asymmetry_Pilot,2022.1.3,Win32,71.64350193,62b2a6a25f2ba72662469a01,0,121,121,43,1,twofour,,,,,,,,,,,,,,,,,,,,,,,,,,,,,,,,,,,,,,,,,,,,,,,,,,,,,,,,,,,,,,,,,,,,,,,,,,,,,,,,,,,,,,,,,,,,,,,,,,,,,,,,,,,,,,,,,,,,,,,,,,,,,,,,,,,,,,,,,,,,,,,,,,,,,,,,
,,,,,,611e5a53b063fa0cfe9e59b7,62b2acbccf00c0c5f626ba1e,2022-06-22_08h32.47.347,Colour_Asymmetry_Pilot,2022.1.3,Win32,71.64350193,62b2a6a25f2ba72662469a01,0,122,122,33,1,onethree,,,,,,,,,,,,,,,,,,,,,,,,,,,,,,,,,,,,,,,,,,,,,,,,,,,,,,,,,,,,,,,,,,,,,,,,,,,,,,,,,,,,,,,,,,,,,,,,,,,,,,,,,,,,,,,,,,,,,,,,,,,,,,,,,,,,,,,,,,,,,,,,,,,,,,,,
,,,,,,611e5a53b063fa0cfe9e59b7,62b2acbccf00c0c5f626ba1e,2022-06-22_08h32.47.347,Colour_Asymmetry_Pilot,2022.1.3,Win32,71.64350193,62b2a6a25f2ba72662469a01,0,123,123,58,1,twoone,,,,,,,,,,,,,,,,,,,,,,,,,,,,,,,,,,,,,,,,,,,,,,,,,,,,,,,,,,,,,,,,,,,,,,,,,,,,,,,,,,,,,,,,,,,,,,,,,,,,,,,,,,,,,,,,,,,,,,,,,,,,,,,,,,,,,,,,,,,,,,,,,,,,,,,,
,,,,,,611e5a53b063fa0cfe9e59b7,62b2acbccf00c0c5f626ba1e,2022-06-22_08h32.47.347,Colour_Asymmetry_Pilot,2022.1.3,Win32,71.64350193,62b2a6a25f2ba72662469a01,0,124,124,36,1,threeone,,,,,,,,,,,,,,,,,,,,,,,,,,,,,,,,,,,,,,,,,,,,,,,,,,,,,,,,,,,,,,,,,,,,,,,,,,,,,,,,,,,,,,,,,,,,,,,,,,,,,,,,,,,,,,,,,,,,,,,,,,,,,,,,,,,,,,,,,,,,,,,,,,,,,,,,
,,,,,,611e5a53b063fa0cfe9e59b7,62b2acbccf00c0c5f626ba1e,2022-06-22_08h32.47.347,Colour_Asymmetry_Pilot,2022.1.3,Win32,71.64350193,62b2a6a25f2ba72662469a01,0,125,125,157,1,threefour,,,,,,,,,,,,,,,,,,,,,,,,,,,,,,,,,,,,,,,,,,,,,,,,,,,,,,,,,,,,,,,,,,,,,,,,,,,,,,,,,,,,,,,,,,,,,,,,,,,,,,,,,,,,,,,,,,,,,,,,,,,,,,,,,,,,,,,,,,,,,,,,,,,,,,,,
,,,,,,611e5a53b063fa0cfe9e59b7,62b2acbccf00c0c5f626ba1e,2022-06-22_08h32.47.347,Colour_Asymmetry_Pilot,2022.1.3,Win32,71.64350193,62b2a6a25f2ba72662469a01,0,126,126,124,1,threeone,,,,,,,,,,,,,,,,,,,,,,,,,,,,,,,,,,,,,,,,,,,,,,,,,,,,,,,,,,,,,,,,,,,,,,,,,,,,,,,,,,,,,,,,,,,,,,,,,,,,,,,,,,,,,,,,,,,,,,,,,,,,,,,,,,,,,,,,,,,,,,,,,,,,,,,,
,,,,,,611e5a53b063fa0cfe9e59b7,62b2acbccf00c0c5f626ba1e,2022-06-22_08h32.47.347,Colour_Asymmetry_Pilot,2022.1.3,Win32,71.64350193,62b2a6a25f2ba72662469a01,0,127,127,46,1,fourtwo,,,,,,,,,,,,,,,,,,,,,,,,,,,,,,,,,,,,,,,,,,,,,,,,,,,,,,,,,,,,,,,,,,,,,,,,,,,,,,,,,,,,,,,,,,,,,,,,,,,,,,,,,,,,,,,,,,,,,,,,,,,,,,,,,,,,,,,,,,,,,,,,,,,,,,,,
,,,,,,611e5a53b063fa0cfe9e59b7,62b2acbccf00c0c5f626ba1e,2022-06-22_08h32.47.347,Colour_Asymmetry_Pilot,2022.1.3,Win32,71.64350193,62b2a6a25f2ba72662469a01,0,128,128,28,1,threeone,,,,,,,,,,,,,,,,,,,,,,,,,,,,,,,,,,,,,,,,,,,,,,,,,,,,,,,,,,,,,,,,,,,,,,,,,,,,,,,,,,,,,,,,,,,,,,,,,,,,,,,,,,,,,,,,,,,,,,,,,,,,,,,,,,,,,,,,,,,,,,,,,,,,,,,,
,,,,,,611e5a53b063fa0cfe9e59b7,62b2acbccf00c0c5f626ba1e,2022-06-22_08h32.47.347,Colour_Asymmetry_Pilot,2022.1.3,Win32,71.64350193,62b2a6a25f2ba72662469a01,0,129,129,70,1,fourtwo,,,,,,,,,,,,,,,,,,,,,,,,,,,,,,,,,,,,,,,,,,,,,,,,,,,,,,,,,,,,,,,,,,,,,,,,,,,,,,,,,,,,,,,,,,,,,,,,,,,,,,,,,,,,,,,,,,,,,,,,,,,,,,,,,,,,,,,,,,,,,,,,,,,,,,,,
,,,,,,611e5a53b063fa0cfe9e59b7,62b2acbccf00c0c5f626ba1e,2022-06-22_08h32.47.347,Colour_Asymmetry_Pilot,2022.1.3,Win32,71.64350193,62b2a6a25f2ba72662469a01,0,130,130,83,1,twofour,,,,,,,,,,,,,,,,,,,,,,,,,,,,,,,,,,,,,,,,,,,,,,,,,,,,,,,,,,,,,,,,,,,,,,,,,,,,,,,,,,,,,,,,,,,,,,,,,,,,,,,,,,,,,,,,,,,,,,,,,,,,,,,,,,,,,,,,,,,,,,,,,,,,,,,,
,,,,,,611e5a53b063fa0cfe9e59b7,62b2acbccf00c0c5f626ba1e,2022-06-22_08h32.47.347,Colour_Asymmetry_Pilot,2022.1.3,Win32,71.64350193,62b2a6a25f2ba72662469a01,0,131,131,87,1,fourthree,,,,,,,,,,,,,,,,,,,,,,,,,,,,,,,,,,,,,,,,,,,,,,,,,,,,,,,,,,,,,,,,,,,,,,,,,,,,,,,,,,,,,,,,,,,,,,,,,,,,,,,,,,,,,,,,,,,,,,,,,,,,,,,,,,,,,,,,,,,,,,,,,,,,,,,,
,,,,,,611e5a53b063fa0cfe9e59b7,62b2acbccf00c0c5f626ba1e,2022-06-22_08h32.47.347,Colour_Asymmetry_Pilot,2022.1.3,Win32,71.64350193,62b2a6a25f2ba72662469a01,0,132,132,105,1,onethree,,,,,,,,,,,,,,,,,,,,,,,,,,,,,,,,,,,,,,,,,,,,,,,,,,,,,,,,,,,,,,,,,,,,,,,,,,,,,,,,,,,,,,,,,,,,,,,,,,,,,,,,,,,,,,,,,,,,,,,,,,,,,,,,,,,,,,,,,,,,,,,,,,,,,,,,
,,,,,,611e5a53b063fa0cfe9e59b7,62b2acbccf00c0c5f626ba1e,2022-06-22_08h32.47.347,Colour_Asymmetry_Pilot,2022.1.3,Win32,71.64350193,62b2a6a25f2ba72662469a01,0,133,133,91,1,twofour,,,,,,,,,,,,,,,,,,,,,,,,,,,,,,,,,,,,,,,,,,,,,,,,,,,,,,,,,,,,,,,,,,,,,,,,,,,,,,,,,,,,,,,,,,,,,,,,,,,,,,,,,,,,,,,,,,,,,,,,,,,,,,,,,,,,,,,,,,,,,,,,,,,,,,,,
,,,,,,611e5a53b063fa0cfe9e59b7,62b2acbccf00c0c5f626ba1e,2022-06-22_08h32.47.347,Colour_Asymmetry_Pilot,2022.1.3,Win32,71.64350193,62b2a6a25f2ba72662469a01,0,134,134,40,1,onetwo,,,,,,,,,,,,,,,,,,,,,,,,,,,,,,,,,,,,,,,,,,,,,,,,,,,,,,,,,,,,,,,,,,,,,,,,,,,,,,,,,,,,,,,,,,,,,,,,,,,,,,,,,,,,,,,,,,,,,,,,,,,,,,,,,,,,,,,,,,,,,,,,,,,,,,,,
,,,,,,611e5a53b063fa0cfe9e59b7,62b2acbccf00c0c5f626ba1e,2022-06-22_08h32.47.347,Colour_Asymmetry_Pilot,2022.1.3,Win32,71.64350193,62b2a6a25f2ba72662469a01,0,135,135,31,1,fourthree,,,,,,,,,,,,,,,,,,,,,,,,,,,,,,,,,,,,,,,,,,,,,,,,,,,,,,,,,,,,,,,,,,,,,,,,,,,,,,,,,,,,,,,,,,,,,,,,,,,,,,,,,,,,,,,,,,,,,,,,,,,,,,,,,,,,,,,,,,,,,,,,,,,,,,,,
,,,,,,611e5a53b063fa0cfe9e59b7,62b2acbccf00c0c5f626ba1e,2022-06-22_08h32.47.347,Colour_Asymmetry_Pilot,2022.1.3,Win32,71.64350193,62b2a6a25f2ba72662469a01,0,136,136,96,1,onetwo,,,,,,,,,,,,,,,,,,,,,,,,,,,,,,,,,,,,,,,,,,,,,,,,,,,,,,,,,,,,,,,,,,,,,,,,,,,,,,,,,,,,,,,,,,,,,,,,,,,,,,,,,,,,,,,,,,,,,,,,,,,,,,,,,,,,,,,,,,,,,,,,,,,,,,,,
,,,,,,611e5a53b063fa0cfe9e59b7,62b2acbccf00c0c5f626ba1e,2022-06-22_08h32.47.347,Colour_Asymmetry_Pilot,2022.1.3,Win32,71.64350193,62b2a6a25f2ba72662469a01,0,137,137,1,1,onethree,,,,,,,,,,,,,,,,,,,,,,,,,,,,,,,,,,,,,,,,,,,,,,,,,,,,,,,,,,,,,,,,,,,,,,,,,,,,,,,,,,,,,,,,,,,,,,,,,,,,,,,,,,,,,,,,,,,,,,,,,,,,,,,,,,,,,,,,,,,,,,,,,,,,,,,,
,,,,,,611e5a53b063fa0cfe9e59b7,62b2acbccf00c0c5f626ba1e,2022-06-22_08h32.47.347,Colour_Asymmetry_Pilot,2022.1.3,Win32,71.64350193,62b2a6a25f2ba72662469a01,0,138,138,39,1,fourthree,,,,,,,,,,,,,,,,,,,,,,,,,,,,,,,,,,,,,,,,,,,,,,,,,,,,,,,,,,,,,,,,,,,,,,,,,,,,,,,,,,,,,,,,,,,,,,,,,,,,,,,,,,,,,,,,,,,,,,,,,,,,,,,,,,,,,,,,,,,,,,,,,,,,,,,,
,,,,,,611e5a53b063fa0cfe9e59b7,62b2acbccf00c0c5f626ba1e,2022-06-22_08h32.47.347,Colour_Asymmetry_Pilot,2022.1.3,Win32,71.64350193,62b2a6a25f2ba72662469a01,0,139,139,111,1,fourthree,,,,,,,,,,,,,,,,,,,,,,,,,,,,,,,,,,,,,,,,,,,,,,,,,,,,,,,,,,,,,,,,,,,,,,,,,,,,,,,,,,,,,,,,,,,,,,,,,,,,,,,,,,,,,,,,,,,,,,,,,,,,,,,,,,,,,,,,,,,,,,,,,,,,,,,,
,,,,,,611e5a53b063fa0cfe9e59b7,62b2acbccf00c0c5f626ba1e,2022-06-22_08h32.47.347,Colour_Asymmetry_Pilot,2022.1.3,Win32,71.64350193,62b2a6a25f2ba72662469a01,0,140,140,84,1,threeone,,,,,,,,,,,,,,,,,,,,,,,,,,,,,,,,,,,,,,,,,,,,,,,,,,,,,,,,,,,,,,,,,,,,,,,,,,,,,,,,,,,,,,,,,,,,,,,,,,,,,,,,,,,,,,,,,,,,,,,,,,,,,,,,,,,,,,,,,,,,,,,,,,,,,,,,
,,,,,,611e5a53b063fa0cfe9e59b7,62b2acbccf00c0c5f626ba1e,2022-06-22_08h32.47.347,Colour_Asymmetry_Pilot,2022.1.3,Win32,71.64350193,62b2a6a25f2ba72662469a01,0,141,141,152,1,onetwo,,,,,,,,,,,,,,,,,,,,,,,,,,,,,,,,,,,,,,,,,,,,,,,,,,,,,,,,,,,,,,,,,,,,,,,,,,,,,,,,,,,,,,,,,,,,,,,,,,,,,,,,,,,,,,,,,,,,,,,,,,,,,,,,,,,,,,,,,,,,,,,,,,,,,,,,
,,,,,,611e5a53b063fa0cfe9e59b7,62b2acbccf00c0c5f626ba1e,2022-06-22_08h32.47.347,Colour_Asymmetry_Pilot,2022.1.3,Win32,71.64350193,62b2a6a25f2ba72662469a01,0,142,142,156,1,threeone,,,,,,,,,,,,,,,,,,,,,,,,,,,,,,,,,,,,,,,,,,,,,,,,,,,,,,,,,,,,,,,,,,,,,,,,,,,,,,,,,,,,,,,,,,,,,,,,,,,,,,,,,,,,,,,,,,,,,,,,,,,,,,,,,,,,,,,,,,,,,,,,,,,,,,,,
,,,,,,611e5a53b063fa0cfe9e59b7,62b2acbccf00c0c5f626ba1e,2022-06-22_08h32.47.347,Colour_Asymmetry_Pilot,2022.1.3,Win32,71.64350193,62b2a6a25f2ba72662469a01,0,143,143,4,1,threeone,,,,,,,,,,,,,,,,,,,,,,,,,,,,,,,,,,,,,,,,,,,,,,,,,,,,,,,,,,,,,,,,,,,,,,,,,,,,,,,,,,,,,,,,,,,,,,,,,,,,,,,,,,,,,,,,,,,,,,,,,,,,,,,,,,,,,,,,,,,,,,,,,,,,,,,,
,,,,,,611e5a53b063fa0cfe9e59b7,62b2acbccf00c0c5f626ba1e,2022-06-22_08h32.47.347,Colour_Asymmetry_Pilot,2022.1.3,Win32,71.64350193,62b2a6a25f2ba72662469a01,0,144,144,103,1,fourthree,,,,,,,,,,,,,,,,,,,,,,,,,,,,,,,,,,,,,,,,,,,,,,,,,,,,,,,,,,,,,,,,,,,,,,,,,,,,,,,,,,,,,,,,,,,,,,,,,,,,,,,,,,,,,,,,,,,,,,,,,,,,,,,,,,,,,,,,,,,,,,,,,,,,,,,,
,,,,,,611e5a53b063fa0cfe9e59b7,62b2acbccf00c0c5f626ba1e,2022-06-22_08h32.47.347,Colour_Asymmetry_Pilot,2022.1.3,Win32,71.64350193,62b2a6a25f2ba72662469a01,0,145,145,121,1,onethree,,,,,,,,,,,,,,,,,,,,,,,,,,,,,,,,,,,,,,,,,,,,,,,,,,,,,,,,,,,,,,,,,,,,,,,,,,,,,,,,,,,,,,,,,,,,,,,,,,,,,,,,,,,,,,,,,,,,,,,,,,,,,,,,,,,,,,,,,,,,,,,,,,,,,,,,
,,,,,,611e5a53b063fa0cfe9e59b7,62b2acbccf00c0c5f626ba1e,2022-06-22_08h32.47.347,Colour_Asymmetry_Pilot,2022.1.3,Win32,71.64350193,62b2a6a25f2ba72662469a01,0,146,146,85,1,threefour,,,,,,,,,,,,,,,,,,,,,,,,,,,,,,,,,,,,,,,,,,,,,,,,,,,,,,,,,,,,,,,,,,,,,,,,,,,,,,,,,,,,,,,,,,,,,,,,,,,,,,,,,,,,,,,,,,,,,,,,,,,,,,,,,,,,,,,,,,,,,,,,,,,,,,,,
,,,,,,611e5a53b063fa0cfe9e59b7,62b2acbccf00c0c5f626ba1e,2022-06-22_08h32.47.347,Colour_Asymmetry_Pilot,2022.1.3,Win32,71.64350193,62b2a6a25f2ba72662469a01,0,147,147,6,1,fourtwo,,,,,,,,,,,,,,,,,,,,,,,,,,,,,,,,,,,,,,,,,,,,,,,,,,,,,,,,,,,,,,,,,,,,,,,,,,,,,,,,,,,,,,,,,,,,,,,,,,,,,,,,,,,,,,,,,,,,,,,,,,,,,,,,,,,,,,,,,,,,,,,,,,,,,,,,
,,,,,,611e5a53b063fa0cfe9e59b7,62b2acbccf00c0c5f626ba1e,2022-06-22_08h32.47.347,Colour_Asymmetry_Pilot,2022.1.3,Win32,71.64350193,62b2a6a25f2ba72662469a01,0,148,148,135,1,fourthree,,,,,,,,,,,,,,,,,,,,,,,,,,,,,,,,,,,,,,,,,,,,,,,,,,,,,,,,,,,,,,,,,,,,,,,,,,,,,,,,,,,,,,,,,,,,,,,,,,,,,,,,,,,,,,,,,,,,,,,,,,,,,,,,,,,,,,,,,,,,,,,,,,,,,,,,
,,,,,,611e5a53b063fa0cfe9e59b7,62b2acbccf00c0c5f626ba1e,2022-06-22_08h32.47.347,Colour_Asymmetry_Pilot,2022.1.3,Win32,71.64350193,62b2a6a25f2ba72662469a01,0,149,149,142,1,fourtwo,,,,,,,,,,,,,,,,,,,,,,,,,,,,,,,,,,,,,,,,,,,,,,,,,,,,,,,,,,,,,,,,,,,,,,,,,,,,,,,,,,,,,,,,,,,,,,,,,,,,,,,,,,,,,,,,,,,,,,,,,,,,,,,,,,,,,,,,,,,,,,,,,,,,,,,,
,,,,,,611e5a53b063fa0cfe9e59b7,62b2acbccf00c0c5f626ba1e,2022-06-22_08h32.47.347,Colour_Asymmetry_Pilot,2022.1.3,Win32,71.64350193,62b2a6a25f2ba72662469a01,0,150,150,59,1,twofour,,,,,,,,,,,,,,,,,,,,,,,,,,,,,,,,,,,,,,,,,,,,,,,,,,,,,,,,,,,,,,,,,,,,,,,,,,,,,,,,,,,,,,,,,,,,,,,,,,,,,,,,,,,,,,,,,,,,,,,,,,,,,,,,,,,,,,,,,,,,,,,,,,,,,,,,
,,,,,,611e5a53b063fa0cfe9e59b7,62b2acbccf00c0c5f626ba1e,2022-06-22_08h32.47.347,Colour_Asymmetry_Pilot,2022.1.3,Win32,71.64350193,62b2a6a25f2ba72662469a01,0,151,151,134,1,fourtwo,,,,,,,,,,,,,,,,,,,,,,,,,,,,,,,,,,,,,,,,,,,,,,,,,,,,,,,,,,,,,,,,,,,,,,,,,,,,,,,,,,,,,,,,,,,,,,,,,,,,,,,,,,,,,,,,,,,,,,,,,,,,,,,,,,,,,,,,,,,,,,,,,,,,,,,,
,,,,,,611e5a53b063fa0cfe9e59b7,62b2acbccf00c0c5f626ba1e,2022-06-22_08h32.47.347,Colour_Asymmetry_Pilot,2022.1.3,Win32,71.64350193,62b2a6a25f2ba72662469a01,0,152,152,41,1,onethree,,,,,,,,,,,,,,,,,,,,,,,,,,,,,,,,,,,,,,,,,,,,,,,,,,,,,,,,,,,,,,,,,,,,,,,,,,,,,,,,,,,,,,,,,,,,,,,,,,,,,,,,,,,,,,,,,,,,,,,,,,,,,,,,,,,,,,,,,,,,,,,,,,,,,,,,
,,,,,,611e5a53b063fa0cfe9e59b7,62b2acbccf00c0c5f626ba1e,2022-06-22_08h32.47.347,Colour_Asymmetry_Pilot,2022.1.3,Win32,71.64350193,62b2a6a25f2ba72662469a01,0,153,153,7,1,fourthree,,,,,,,,,,,,,,,,,,,,,,,,,,,,,,,,,,,,,,,,,,,,,,,,,,,,,,,,,,,,,,,,,,,,,,,,,,,,,,,,,,,,,,,,,,,,,,,,,,,,,,,,,,,,,,,,,,,,,,,,,,,,,,,,,,,,,,,,,,,,,,,,,,,,,,,,
,,,,,,611e5a53b063fa0cfe9e59b7,62b2acbccf00c0c5f626ba1e,2022-06-22_08h32.47.347,Colour_Asymmetry_Pilot,2022.1.3,Win32,71.64350193,62b2a6a25f2ba72662469a01,0,154,154,45,1,threefour,,,,,,,,,,,,,,,,,,,,,,,,,,,,,,,,,,,,,,,,,,,,,,,,,,,,,,,,,,,,,,,,,,,,,,,,,,,,,,,,,,,,,,,,,,,,,,,,,,,,,,,,,,,,,,,,,,,,,,,,,,,,,,,,,,,,,,,,,,,,,,,,,,,,,,,,
,,,,,,611e5a53b063fa0cfe9e59b7,62b2acbccf00c0c5f626ba1e,2022-06-22_08h32.47.347,Colour_Asymmetry_Pilot,2022.1.3,Win32,71.64350193,62b2a6a25f2ba72662469a01,0,155,155,15,1,fourthree,,,,,,,,,,,,,,,,,,,,,,,,,,,,,,,,,,,,,,,,,,,,,,,,,,,,,,,,,,,,,,,,,,,,,,,,,,,,,,,,,,,,,,,,,,,,,,,,,,,,,,,,,,,,,,,,,,,,,,,,,,,,,,,,,,,,,,,,,,,,,,,,,,,,,,,,
,,,,,,611e5a53b063fa0cfe9e59b7,62b2acbccf00c0c5f626ba1e,2022-06-22_08h32.47.347,Colour_Asymmetry_Pilot,2022.1.3,Win32,71.64350193,62b2a6a25f2ba72662469a01,0,156,156,81,1,onethree,,,,,,,,,,,,,,,,,,,,,,,,,,,,,,,,,,,,,,,,,,,,,,,,,,,,,,,,,,,,,,,,,,,,,,,,,,,,,,,,,,,,,,,,,,,,,,,,,,,,,,,,,,,,,,,,,,,,,,,,,,,,,,,,,,,,,,,,,,,,,,,,,,,,,,,,
,,,,,,611e5a53b063fa0cfe9e59b7,62b2acbccf00c0c5f626ba1e,2022-06-22_08h32.47.347,Colour_Asymmetry_Pilot,2022.1.3,Win32,71.64350193,62b2a6a25f2ba72662469a01,0,157,157,61,1,threefour,,,,,,,,,,,,,,,,,,,,,,,,,,,,,,,,,,,,,,,,,,,,,,,,,,,,,,,,,,,,,,,,,,,,,,,,,,,,,,,,,,,,,,,,,,,,,,,,,,,,,,,,,,,,,,,,,,,,,,,,,,,,,,,,,,,,,,,,,,,,,,,,,,,,,,,,
,,,,,,611e5a53b063fa0cfe9e59b7,62b2acbccf00c0c5f626ba1e,2022-06-22_08h32.47.347,Colour_Asymmetry_Pilot,2022.1.3,Win32,71.64350193,62b2a6a25f2ba72662469a01,0,158,158,5,1,threefour,,,,,,,,,,,,,,,,,,,,,,,,,,,,,,,,,,,,,,,,,,,,,,,,,,,,,,,,,,,,,,,,,,,,,,,,,,,,,,,,,,,,,,,,,,,,,,,,,,,,,,,,,,,,,,,,,,,,,,,,,,,,,,,,,,,,,,,,,,,,,,,,,,,,,,,,
,,,,,,611e5a53b063fa0cfe9e59b7,62b2acbccf00c0c5f626ba1e,2022-06-22_08h32.47.347,Colour_Asymmetry_Pilot,2022.1.3,Win32,71.64350193,62b2a6a25f2ba72662469a01,0,159,159,88,1,onetwo,,,,,,,,,,,,,,,,,,,,,,,,,,,,,,,,,,,,,,,,,,,,,,,,,,,,,,,,,,,,,,,,,,,,,,,,,,,,,,,,,,,,,,,,,,,,,,,,,,,,,,,,,,,,,,,,,,,,,,,,,,,,,,,,,,,,,,,,,,,,,,,,,,,,,,,,
,,,,,,611e5a53b063fa0cfe9e59b7,62b2acbccf00c0c5f626ba1e,2022-06-22_08h32.47.347,Colour_Asymmetry_Pilot,2022.1.3,Win32,71.64350193,62b2a6a25f2ba72662469a01,0,160,160,139,1,twofour,,,,,,,,,,,,,,,,,,,,,,,,,,,,,,,,,,,,,,,,,,,,,,,,,,,,,,,,,,,,,,,,,,,,,,,,,,,,,,,,,,,,,,,,,,,,,,,,,,,,,,,,,,,,,,,,,,,,,,,,,,,,,,,,,,,,,,,,,,,,,,,,,,,,,,,,
,,,,,,611e5a53b063fa0cfe9e59b7,62b2acbccf00c0c5f626ba1e,2022-06-22_08h32.47.347,Colour_Asymmetry_Pilot,2022.1.3,Win32,71.64350193,62b2a6a25f2ba72662469a01,0,161,161,112,1,onetwo,,,,,,,,,,,,,,,,,,,,,,,,,,,,,,,,,,,,,,,,,,,,,,,,,,,,,,,,,,,,,,,,,,,,,,,,,,,,,,,,,,,,,,,,,,,,,,,,,,,,,,,,,,,,,,,,,,,,,,,,,,,,,,,,,,,,,,,,,,,,,,,,,,,,,,,,
,,,,,,611e5a53b063fa0cfe9e59b7,62b2acbccf00c0c5f626ba1e,2022-06-22_08h32.47.347,Colour_Asymmetry_Pilot,2022.1.3,Win32,71.64350193,62b2a6a25f2ba72662469a01,,,,,,,space,9.6412,space,179.5909,space,189.8047,space,49.1096,space,33.128,space,11.3586,"[-0.6706000000000001,-0.6157999999999999,-0.6786]",twoone,"[-0.6235999999999999,-0.6786,-0.08239999999999992]",2,20.9109,69,-39.5,1,0,0,response3disk_5,-7,-2.5,1,0,0,rectangle_8,-7,-2.5,1,0,0,3,-7,-2.5,1,0,0,0,0,0,0,1,,,,,,,,,,,,,,,,,,,,,,,,,,,,,,,,,,,,,,,,,,,,,,,,,,,,,,,,,,,,,,,,,,,,,,,,,,,,,,,,,,,,,,,,,,,,,,,,,,,,,,,,,,,
,,,,,,611e5a53b063fa0cfe9e59b7,62b2acbccf00c0c5f626ba1e,2022-06-22_08h32.47.347,Colour_Asymmetry_Pilot,2022.1.3,Win32,71.64350193,62b2a6a25f2ba72662469a01,,,,,,,,,,,,,,,,,,,"[0.05879999999999996,0.2784,0.5841999999999998]",threefour,"[-0.26280000000000003,-0.2158,-0.3256]",2,18.3427,77,-36.5,1,0,0,response3disk_5,-1,6.5,1,0,0,rectangle_8,-1,6.5,1,0,0,3,-1,6.5,1,0,0,1,0,1,0,1,,,,,,,,,,,,,,,,,,,,,,,,,,,,,,,,,,,,,,,,,,,,,,,,,,,,,,,,,,,,,,,,,,,,,,,,,,,,,,,,,,,,,,,,,,,,,,,,,,,,,,,,,,,
,,,,,,611e5a53b063fa0cfe9e59b7,62b2acbccf00c0c5f626ba1e,2022-06-22_08h32.47.347,Colour_Asymmetry_Pilot,2022.1.3,Win32,71.64350193,62b2a6a25f2ba72662469a01,,,,,,,,,,,,,,,,,,,"[-0.20799999999999996,-0.655,-0.01980000000000004]",onethree,"[-0.050999999999999934,-0.6706000000000001,-0.804]",-2,5.0524,-67,-33.5,1,0,0,response5disk_5,6,9.5,1,0,0,rectangle_8,6,9.5,1,0,0,3,6,9.5,1,0,0,2,0,2,0,1,,,,,,,,,,,,,,,,,,,,,,,,,,,,,,,,,,,,,,,,,,,,,,,,,,,,,,,,,,,,,,,,,,,,,,,,,,,,,,,,,,,,,,,,,,,,,,,,,,,,,,,,,,,
,,,,,,611e5a53b063fa0cfe9e59b7,62b2acbccf00c0c5f626ba1e,2022-06-22_08h32.47.347,Colour_Asymmetry_Pilot,2022.1.3,Win32,71.64350193,62b2a6a25f2ba72662469a01,,,,,,,,,,,,,,,,,,,"[-0.26280000000000003,-0.2158,-0.3256]",twoone,"[0.19199999999999995,0.18419999999999992,0.5136000000000001]",-1,6.8453,-37,-56.5,1,0,0,response5disk_5,-2,-1.5,1,0,0,rectangle_8,-2,-1.5,1,0,0,3,-2,-1.5,1,0,0,3,0,3,0,1,,,,,,,,,,,,,,,,,,,,,,,,,,,,,,,,,,,,,,,,,,,,,,,,,,,,,,,,,,,,,,,,,,,,,,,,,,,,,,,,,,,,,,,,,,,,,,,,,,,,,,,,,,,
,,,,,,611e5a53b063fa0cfe9e59b7,62b2acbccf00c0c5f626ba1e,2022-06-22_08h32.47.347,Colour_Asymmetry_Pilot,2022.1.3,Win32,71.64350193,62b2a6a25f2ba72662469a01,,,,,,,,,,,,,,,,,,,"[-0.8198,-0.5138,-0.7492000000000001]",twoone,"[-0.4668,-0.8746,-0.2942]",-3,4.2681,-82,35.5,1,0,0,response7disk_5,9,1.5,1,0,0,rectangle_8,9,1.5,1,0,0,3,9,1.5,1,0,0,4,0,4,0,1,,,,,,,,,,,,,,,,,,,,,,,,,,,,,,,,,,,,,,,,,,,,,,,,,,,,,,,,,,,,,,,,,,,,,,,,,,,,,,,,,,,,,,,,,,,,,,,,,,,,,,,,,,,
,,,,,,611e5a53b063fa0cfe9e59b7,62b2acbccf00c0c5f626ba1e,2022-06-22_08h32.47.347,Colour_Asymmetry_Pilot,2022.1.3,Win32,71.64350193,62b2a6a25f2ba72662469a01,,,,,,,,,,,,,,,,,,,"[-0.38039999999999996,-0.4276,-0.1452]",twoone,"[-0.4746,-0.0354000000000001,0.5449999999999999]",-4,3.336,-58,78.5,1,0,0,response7disk_5,-1,-0.5,1,0,0,rectangle_8,87,39.5,1,0,0,3,3,0.5,1,0,0,5,0,5,0,1,response1disk_7,6,rectangle_4,,,,,,,,,,,,,,,,,,,,,,,,,,,,,,,,,,,,,,,,,,,,,,,,,,,,,,,,,,,,,,,,,,,,,,,,,,,,,,,,,,,,,,,,,,,,,,,,,,,,,,,,
,,,,,,611e5a53b063fa0cfe9e59b7,62b2acbccf00c0c5f626ba1e,2022-06-22_08h32.47.347,Colour_Asymmetry_Pilot,2022.1.3,Win32,71.64350193,62b2a6a25f2ba72662469a01,,,,,,,,,,,,,,,,,,,"[-0.9688,-0.7412000000000001,-0.4902000000000001]",onethree,"[-0.5922000000000001,-0.7492000000000001,-0.5296000000000001]",-4,2.9268,-47,79.5,1,0,0,response7disk_5,-14,2.5,1,0,0,rectangle_8,-14,2.5,1,0,0,3,-14,2.5,1,0,0,6,0,6,0,1,,,,,,,,,,,,,,,,,,,,,,,,,,,,,,,,,,,,,,,,,,,,,,,,,,,,,,,,,,,,,,,,,,,,,,,,,,,,,,,,,,,,,,,,,,,,,,,,,,,,,,,,,,,
,,,,,,611e5a53b063fa0cfe9e59b7,62b2acbccf00c0c5f626ba1e,2022-06-22_08h32.47.347,Colour_Asymmetry_Pilot,2022.1.3,Win32,71.64350193,62b2a6a25f2ba72662469a01,,,,,,,,,,,,,,,,,,,,onethree,,-3,2.5913,,,,,,,,,,,,,,,,,,,,,,,,,,,,,,,,space,5.6312,"[-0.8118,-0.8198,-0.5452]","[0.0351999999999999,0.41159999999999997,0.0038000000000000256]",-95,47.5,1,0,0,response7disk,24,3.5,1,0,0,rectangle,24,3.5,1,0,0,,1,0.0021,0,24,3.5,1,0,0,0,0,0,143,1,62,second,,,,,,,,,,,,,,,,,,,,,,,,,,,,,,,,,,,,,,,,,,,,,,,,,,,,,,,,,,,,,,,,,,,
,,,,,,611e5a53b063fa0cfe9e59b7,62b2acbccf00c0c5f626ba1e,2022-06-22_08h32.47.347,Colour_Asymmetry_Pilot,2022.1.3,Win32,71.64350193,62b2a6a25f2ba72662469a01,,,,,,,,,,,,,,,,,,,,fourtwo,,-3,1.5176,,,,,,,,,,,,,,,,,,,,,,,,,,,,,,,,,,"[0.4196,0.4665999999999999,0.3568]","[0.30180000000000007,-0.7884,-0.9844]",-99,43.5,1,0,0,response7disk,11,-0.5,1,0,0,rectangle,11,-0.5,1,0,0,,1,0.0006,0,11,-0.5,1,0,0,0,1,1,121,1,40,second,,,,,,,,,,,,,,,,,,,,,,,,,,,,,,,,,,,,,,,,,,,,,,,,,,,,,,,,,,,,,,,,,,,
,,,,,,611e5a53b063fa0cfe9e59b7,62b2acbccf00c0c5f626ba1e,2022-06-22_08h32.47.347,Colour_Asymmetry_Pilot,2022.1.3,Win32,71.64350193,62b2a6a25f2ba72662469a01,,,,,,,,,,,,,,,,,,,,threefour,,-3,1.8509,,,,,,,,,,,,,,,,,,,,,,,,,,,,,,,,,,"[-0.6942,-0.7648,-0.12959999999999994]","[0.7802,-0.23140000000000005,-0.20799999999999996]",-108,38.5,1,0,0,response7disk,16,2.5,1,0,0,rectangle,16,2.5,1,0,0,,3,0.0018,0,16,2.5,1,0,0,0,2,2,3,1,3,first,,,,,,,,,,,,,,,,,,,,,,,,,,,,,,,,,,,,,,,,,,,,,,,,,,,,,,,,,,,,,,,,,,,
,,,,,,611e5a53b063fa0cfe9e59b7,62b2acbccf00c0c5f626ba1e,2022-06-22_08h32.47.347,Colour_Asymmetry_Pilot,2022.1.3,Win32,71.64350193,62b2a6a25f2ba72662469a01,,,,,,,,,,,,,,,,,,,,fourtwo,,-3,1.8842,,,,,,,,,,,,,,,,,,,,,,,,,,,,,,,,,,"[0.5528,0.7409999999999999,-0.71]","[-0.30200000000000005,0.14500000000000002,0.2784]",-85,40.5,1,0,0,response7disk,2,2.5,1,0,0,rectangle,2,2.5,1,0,0,,1,0.0013,0,2,2.5,1,0,0,0,3,3,14,1,14,first,,,,,,,,,,,,,,,,,,,,,,,,,,,,,,,,,,,,,,,,,,,,,,,,,,,,,,,,,,,,,,,,,,,
,,,,,,611e5a53b063fa0cfe9e59b7,62b2acbccf00c0c5f626ba1e,2022-06-22_08h32.47.347,Colour_Asymmetry_Pilot,2022.1.3,Win32,71.64350193,62b2a6a25f2ba72662469a01,,,,,,,,,,,,,,,,,,,,twofour,,-2,1.6865,,,,,,,,,,,,,,,,,,,,,,,,,,,,,,,,,,"[0.12939999999999996,-0.2864,0.3253999999999999]","[0.5449999999999999,-0.31000000000000005,-0.0354000000000001]",-105,-44.5,1,0,0,response5disk,1,8.5,1,0,0,rectangle,1,8.5,1,0,0,,3,0.0015,0,1,8.5,1,0,0,0,4,4,101,1,20,second,,,,,,,,,,,,,,,,,,,,,,,,,,,,,,,,,,,,,,,,,,,,,,,,,,,,,,,,,,,,,,,,,,,
,,,,,,611e5a53b063fa0cfe9e59b7,62b2acbccf00c0c5f626ba1e,2022-06-22_08h32.47.347,Colour_Asymmetry_Pilot,2022.1.3,Win32,71.64350193,62b2a6a25f2ba72662469a01,,,,,,,,,,,,,,,,,,,,fourthree,,-4,2.3783,,,,,,,,,,,,,,,,,,,,,,,,,,,,,,,,,,"[0.6625999999999999,0.4980000000000002,-0.357]","[-0.9844,-0.9688,-0.9922]",-48,96.5,1,0,0,response7disk,8,2.5,1,0,0,rectangle,8,2.5,1,0,0,,2,0.0012,0,8,2.5,1,0,0,0,5,5,141,1,60,second,,,,,,,,,,,,,,,,,,,,,,,,,,,,,,,,,,,,,,,,,,,,,,,,,,,,,,,,,,,,,,,,,,,
,,,,,,611e5a53b063fa0cfe9e59b7,62b2acbccf00c0c5f626ba1e,2022-06-22_08h32.47.347,Colour_Asymmetry_Pilot,2022.1.3,Win32,71.64350193,62b2a6a25f2ba72662469a01,,,,,,,,,,,,,,,,,,,,twoone,,-3,1.4671,,,,,,,,,,,,,,,,,,,,,,,,,,,,,,,,,,"[0.23920000000000008,0.2704,0.16060000000000008]","[-0.26280000000000003,-0.4746,-0.2158]",-105,46.5,1,0,0,response7disk,-15,-0.5,1,0,0,rectangle,-15,-0.5,1,0,0,,2,0.0003,0,-15,-0.5,1,0,0,0,6,6,144,1,63,second,,,,,,,,,,,,,,,,,,,,,,,,,,,,,,,,,,,,,,,,,,,,,,,,,,,,,,,,,,,,,,,,,,,
,,,,,,611e5a53b063fa0cfe9e59b7,62b2acbccf00c0c5f626ba1e,2022-06-22_08h32.47.347,Colour_Asymmetry_Pilot,2022.1.3,Win32,71.64350193,62b2a6a25f2ba72662469a01,,,,,,,,,,,,,,,,,,,,threeone,,-1,3.9456,,,,,,,,,,,,,,,,,,,,,,,,,,,,,,,,,,"[-0.45899999999999996,-0.3256,-0.9374]","[-0.4276,0.0038000000000000256,-0.3256]",-60,-76.5,1,0,0,response5disk,10,9.5,1,0,0,rectangle,10,9.5,1,0,0,,3,0.0012,0,10,9.5,1,0,0,0,7,7,45,1,45,first,,,,,,,,,,,,,,,,,,,,,,,,,,,,,,,,,,,,,,,,,,,,,,,,,,,,,,,,,,,,,,,,,,,
,,,,,,611e5a53b063fa0cfe9e59b7,62b2acbccf00c0c5f626ba1e,2022-06-22_08h32.47.347,Colour_Asymmetry_Pilot,2022.1.3,Win32,71.64350193,62b2a6a25f2ba72662469a01,,,,,,,,,,,,,,,,,,,,onethree,,1,2.1024,,,,,,,,,,,,,,,,,,,,,,,,,,,,,,,,,,"[-0.9138,-0.5296000000000001,-0.5529999999999999]","[-0.8198,-0.5138,-0.7492000000000001]",44,-104.5,1,0,0,response3disk,-2,0.5,1,0,0,rectangle,-2,0.5,1,0,0,,3,0.0002,0,-2,0.5,1,0,0,0,8,8,93,1,12,second,,,,,,,,,,,,,,,,,,,,,,,,,,,,,,,,,,,,,,,,,,,,,,,,,,,,,,,,,,,,,,,,,,,
,,,,,,611e5a53b063fa0cfe9e59b7,62b2acbccf00c0c5f626ba1e,2022-06-22_08h32.47.347,Colour_Asymmetry_Pilot,2022.1.3,Win32,71.64350193,62b2a6a25f2ba72662469a01,,,,,,,,,,,,,,,,,,,,threefour,,-2,1.7579,,,,,,,,,,,,,,,,,,,,,,,,,,,,,,,,,,"[-0.01980000000000004,-0.5138,-0.38039999999999996]","[0.3802000000000001,0.19199999999999995,-0.6394]",-84,-32.5,1,0,0,response5disk,8,5.5,1,0,0,rectangle,8,5.5,1,0,0,,3,0.0002,0,8,5.5,1,0,0,0,9,9,157,1,76,second,,,,,,,,,,,,,,,,,,,,,,,,,,,,,,,,,,,,,,,,,,,,,,,,,,,,,,,,,,,,,,,,,,,
,,,,,,611e5a53b063fa0cfe9e59b7,62b2acbccf00c0c5f626ba1e,2022-06-22_08h32.47.347,Colour_Asymmetry_Pilot,2022.1.3,Win32,71.64350193,62b2a6a25f2ba72662469a01,,,,,,,,,,,,,,,,,,,,threefour,,-2,1.386,,,,,,,,,,,,,,,,,,,,,,,,,,,,,,,,,,"[0.7018,0.7802,-0.16079999999999994]","[-0.011800000000000033,-0.906,-0.45100000000000007]",-106,-31.5,1,0,0,response5disk,14,9.5,1,0,0,rectangle,14,9.5,1,0,0,,3,0.0003,0,14,9.5,1,0,0,0,10,10,56,1,56,first,,,,,,,,,,,,,,,,,,,,,,,,,,,,,,,,,,,,,,,,,,,,,,,,,,,,,,,,,,,,,,,,,,,
,,,,,,611e5a53b063fa0cfe9e59b7,62b2acbccf00c0c5f626ba1e,2022-06-22_08h32.47.347,Colour_Asymmetry_Pilot,2022.1.3,Win32,71.64350193,62b2a6a25f2ba72662469a01,,,,,,,,,,,,,,,,,,,,twoone,,-3,1.7659,,,,,,,,,,,,,,,,,,,,,,,,,,,,,,,,,,"[0.3802000000000001,0.19199999999999995,-0.6394]","[-0.01980000000000004,-0.5138,-0.38039999999999996]",-85,28.5,1,0,0,response7disk,-6,5.5,1,0,0,rectangle,78,42.5,1,0,0,3,3,4.2203,1,-14,-4.5,1,0,0,0,11,11,76,1,76,first,response1disk_3,rectangle,,,,,,,,,,,,,,,,,,,,,,,,,,,,,,,,,,,,,,,,,,,,,,,,,,,,,,,,,,,,,,,,,
,,,,,,611e5a53b063fa0cfe9e59b7,62b2acbccf00c0c5f626ba1e,2022-06-22_08h32.47.347,Colour_Asymmetry_Pilot,2022.1.3,Win32,71.64350193,62b2a6a25f2ba72662469a01,,,,,,,,,,,,,,,,,,,,fourtwo,,-2,2.8623,,,,,,,,,,,,,,,,,,,,,,,,,,,,,,,,,,"[0.8115999999999999,-0.0040000000000000036,-0.09819999999999995]","[-0.6235999999999999,-0.6786,-0.08239999999999992]",-91,-49.5,1,0,0,response5disk,2,-10.5,1,0,0,rectangle,2,-10.5,1,0,0,3,1,0.0013,0,2,-10.5,1,0,0,0,12,12,77,1,77,first,,,,,,,,,,,,,,,,,,,,,,,,,,,,,,,,,,,,,,,,,,,,,,,,,,,,,,,,,,,,,,,,,,,
,,,,,,611e5a53b063fa0cfe9e59b7,62b2acbccf00c0c5f626ba1e,2022-06-22_08h32.47.347,Colour_Asymmetry_Pilot,2022.1.3,Win32,71.64350193,62b2a6a25f2ba72662469a01,,,,,,,,,,,,,,,,,,,,twoone,,-2,1.5381,,,,,,,,,,,,,,,,,,,,,,,,,,,,,,,,,,"[0.9763999999999999,0.8588,-0.05900000000000005]","[-0.5688,-0.08239999999999992,-0.1844]",-57,-25.5,1,0,0,response5disk,-16,0.5,1,0,0,rectangle,-16,0.5,1,0,0,3,2,0.0011,0,-16,0.5,1,0,0,0,13,13,142,1,61,second,,,,,,,,,,,,,,,,,,,,,,,,,,,,,,,,,,,,,,,,,,,,,,,,,,,,,,,,,,,,,,,,,,,
,,,,,,611e5a53b063fa0cfe9e59b7,62b2acbccf00c0c5f626ba1e,2022-06-22_08h32.47.347,Colour_Asymmetry_Pilot,2022.1.3,Win32,71.64350193,62b2a6a25f2ba72662469a01,,,,,,,,,,,,,,,,,,,,fourtwo,,-3,1.2853,,,,,,,,,,,,,,,,,,,,,,,,,,,,,,,,,,"[-0.17659999999999998,0.3253999999999999,0.19999999999999996]","[-0.17659999999999998,-0.2864,-0.8354]",-69,37.5,1,0,0,response7disk,-17,-1.5,1,0,0,rectangle,104,-34.5,1,0,0,2,2,6.067,1,-3,-0.5,1,0,0,0,14,14,104,1,23,second,response3disk_3,rectangle,,,,,,,,,,,,,,,,,,,,,,,,,,,,,,,,,,,,,,,,,,,,,,,,,,,,,,,,,,,,,,,,,
,,,,,,611e5a53b063fa0cfe9e59b7,62b2acbccf00c0c5f626ba1e,2022-06-22_08h32.47.347,Colour_Asymmetry_Pilot,2022.1.3,Win32,71.64350193,62b2a6a25f2ba72662469a01,,,,,,,,,,,,,,,,,,,,threeone,,-4,1.5895,,,,,,,,,,,,,,,,,,,,,,,,,,,,,,,,,,"[-0.26280000000000003,-0.4746,-0.2158]","[0.8274000000000001,-0.5844,-0.9452]",-28,66.5,1,0,0,response7disk,-19,-3.5,1,0,0,rectangle,-19,-3.5,1,0,0,2,3,0.001,0,-19,-3.5,1,0,0,0,15,15,65,1,65,first,,,,,,,,,,,,,,,,,,,,,,,,,,,,,,,,,,,,,,,,,,,,,,,,,,,,,,,,,,,,,,,,,,,
,,,,,,611e5a53b063fa0cfe9e59b7,62b2acbccf00c0c5f626ba1e,2022-06-22_08h32.47.347,Colour_Asymmetry_Pilot,2022.1.3,Win32,71.64350193,62b2a6a25f2ba72662469a01,,,,,,,,,,,,,,,,,,,,threefour,,-3,0.9171,,,,,,,,,,,,,,,,,,,,,,,,,,,,,,,,,,"[0.3881999999999999,-0.23939999999999995,-0.05040000000000011]","[-0.9766,-0.6472,0.07440000000000002]",-71,44.5,1,0,0,response7disk,1,6.5,1,0,0,rectangle,1,6.5,1,0,0,2,3,0.0003,0,1,6.5,1,0,0,0,16,16,82,1,1,second,,,,,,,,,,,,,,,,,,,,,,,,,,,,,,,,,,,,,,,,,,,,,,,,,,,,,,,,,,,,,,,,,,,
,,,,,,611e5a53b063fa0cfe9e59b7,62b2acbccf00c0c5f626ba1e,2022-06-22_08h32.47.347,Colour_Asymmetry_Pilot,2022.1.3,Win32,71.64350193,62b2a6a25f2ba72662469a01,,,,,,,,,,,,,,,,,,,,fourtwo,,-4,1.0017,,,,,,,,,,,,,,,,,,,,,,,,,,,,,,,,,,"[-0.20799999999999996,-0.655,-0.01980000000000004]","[0.3568,-0.20799999999999996,-0.9844]",-36,60.5,1,0,0,response7disk,-1,10.5,1,0,0,rectangle,-1,10.5,1,0,0,2,3,0.0004,0,-1,10.5,1,0,0,0,17,17,100,1,19,second,,,,,,,,,,,,,,,,,,,,,,,,,,,,,,,,,,,,,,,,,,,,,,,,,,,,,,,,,,,,,,,,,,,
,,,,,,611e5a53b063fa0cfe9e59b7,62b2acbccf00c0c5f626ba1e,2022-06-22_08h32.47.347,Colour_Asymmetry_Pilot,2022.1.3,Win32,71.64350193,62b2a6a25f2ba72662469a01,,,,,,,,,,,,,,,,,,,,onetwo,,-3,0.8899,,,,,,,,,,,,,,,,,,,,,,,,,,,,,,,,,,"[-0.2942,-0.24719999999999998,-0.357]","[-0.9766,-0.6472,0.07440000000000002]",-76,38.5,1,0,0,response7disk,-4,-7.5,1,0,0,rectangle,-4,-7.5,1,0,0,2,3,0.0002,0,-4,-7.5,1,0,0,0,18,18,155,1,74,second,,,,,,,,,,,,,,,,,,,,,,,,,,,,,,,,,,,,,,,,,,,,,,,,,,,,,,,,,,,,,,,,,,,
,,,,,,611e5a53b063fa0cfe9e59b7,62b2acbccf00c0c5f626ba1e,2022-06-22_08h32.47.347,Colour_Asymmetry_Pilot,2022.1.3,Win32,71.64350193,62b2a6a25f2ba72662469a01,,,,,,,,,,,,,,,,,,,,threefour,,-3,1.2339,,,,,,,,,,,,,,,,,,,,,,,,,,,,,,,,,,"[0.8115999999999999,-0.0040000000000000036,-0.09819999999999995]","[-0.6706000000000001,-0.6157999999999999,-0.6786]",-81,43.5,1,0,0,response7disk,3,3.5,1,0,0,rectangle,3,3.5,1,0,0,2,3,0.0003,0,3,3.5,1,0,0,0,19,19,91,1,10,second,,,,,,,,,,,,,,,,,,,,,,,,,,,,,,,,,,,,,,,,,,,,,,,,,,,,,,,,,,,,,,,,,,,
