trials.thisRepN,trials.thisTrialN,trials.thisN,trials.thisIndex,trials.ran,Colourcodes,participant,session,date,expName,psychopyVersion,OS,frameRate,study_id,trials_4.thisRepN,trials_4.thisTrialN,trials_4.thisN,trials_4.thisIndex,trials_4.ran,StimulusPos,key_resp.keys,key_resp.rt,key_resp_2.keys,key_resp_2.rt,key_resp_15.keys,key_resp_15.rt,key_resp_17.keys,key_resp_17.rt,key_resp_9.keys,key_resp_9.rt,key_resp_10.keys,key_resp_10.rt,Circle1_col,Ecc,Circle2_col,similarity,response_time,mouse_5.x,mouse_5.y,mouse_5.leftButton,mouse_5.midButton,mouse_5.rightButton,mouse_5.clicked_name,mouse_10.x,mouse_10.y,mouse_10.leftButton,mouse_10.midButton,mouse_10.rightButton,mouse_10.clicked_name,mouse_7.x,mouse_7.y,mouse_7.leftButton,mouse_7.midButton,mouse_7.rightButton,catchnumberprac,mouse_6.x,mouse_6.y,mouse_6.leftButton,mouse_6.midButton,mouse_6.rightButton,duringprac.thisRepN,duringprac.thisTrialN,duringprac.thisN,duringprac.thisIndex,duringprac.ran,mouse_7.clicked_name,catchprac,mouse_6.clicked_name,key_resp_22.keys,key_resp_22.rt,Circle1_colour,Circle2_colour,mouse.x,mouse.y,mouse.leftButton,mouse.midButton,mouse.rightButton,mouse.clicked_name,mouse_2.x,mouse_2.y,mouse_2.leftButton,mouse_2.midButton,mouse_2.rightButton,mouse_2.clicked_name,mouse_3.x,mouse_3.y,mouse_3.leftButton,mouse_3.midButton,mouse_3.rightButton,catchresponse,catchnumber,response_time_catch,Catch,mouse_11.x,mouse_11.y,mouse_11.leftButton,mouse_11.midButton,mouse_11.rightButton,trials_2.thisRepN,trials_2.thisTrialN,trials_2.thisN,trials_2.thisIndex,trials_2.ran,Colourpair,Temporder,mouse_3.clicked_name,mouse_11.clicked_name,trials_3.thisRepN,trials_3.thisTrialN,trials_3.thisN,trials_3.thisIndex,trials_3.ran,key_resp_instr_Ishi.keys,key_resp_instr_Ishi.rt,Ishi_trial_keyresp.keys,Ishi_trial_keyresp.rt,Ishi_textbox.text,Ishi_loop.thisRepN,Ishi_loop.thisTrialN,Ishi_loop.thisN,Ishi_loop.thisIndex,Ishi_loop.ran,imageaddress,textbox.text,mouse_4.x,mouse_4.y,mouse_4.leftButton,mouse_4.midButton,mouse_4.rightButton,mouse_4.clicked_name,textbox_2.text,mouse_8.x,mouse_8.y,mouse_8.leftButton,mouse_8.midButton,mouse_8.rightButton,mouse_8.clicked_name,textbox_3.text,mouse_9.x,mouse_9.y,mouse_9.leftButton,mouse_9.midButton,mouse_9.rightButton,mouse_9.clicked_name,textbox_4.text,mouse_12.x,mouse_12.y,mouse_12.leftButton,mouse_12.midButton,mouse_12.rightButton,mouse_12.clicked_name,textbox_5.text,mouse_13.x,mouse_13.y,mouse_13.leftButton,mouse_13.midButton,mouse_13.rightButton,mouse_13.clicked_name,textbox_6.text,mouse_14.x,mouse_14.y,mouse_14.leftButton,mouse_14.midButton,mouse_14.rightButton,mouse_14.clicked_name,textbox_7.text,mouse_15.x,mouse_15.y,mouse_15.leftButton,mouse_15.midButton,mouse_15.rightButton,mouse_15.clicked_name
0,0,0,91,1,,5ec44adb04069732a53a7bee,62bbfb59a3c281fa050a9833,2022-06-29_09h12.33.647,Colour_Asymmetry_Pilot,2022.1.3,Win32,144.092219,62bbe60bf3d75ef465d3e404,,,,,,,,,,,,,,,,,,,,,,,,,,,,,,,,,,,,,,,,,,,,,,,,,,,,,,,,,,,,,,,,,,,,,,,,,,,,,,,,,,,,,,,,,,,,,,,,,,,,,,,,,,,,,,,,,,,,,,,,,,,,,,,,,,,,,,,,,,,,,,,,,,,,,,,,,,,,,,
0,1,1,50,1,,5ec44adb04069732a53a7bee,62bbfb59a3c281fa050a9833,2022-06-29_09h12.33.647,Colour_Asymmetry_Pilot,2022.1.3,Win32,144.092219,62bbe60bf3d75ef465d3e404,,,,,,,,,,,,,,,,,,,,,,,,,,,,,,,,,,,,,,,,,,,,,,,,,,,,,,,,,,,,,,,,,,,,,,,,,,,,,,,,,,,,,,,,,,,,,,,,,,,,,,,,,,,,,,,,,,,,,,,,,,,,,,,,,,,,,,,,,,,,,,,,,,,,,,,,,,,,,,
0,2,2,34,1,,5ec44adb04069732a53a7bee,62bbfb59a3c281fa050a9833,2022-06-29_09h12.33.647,Colour_Asymmetry_Pilot,2022.1.3,Win32,144.092219,62bbe60bf3d75ef465d3e404,,,,,,,,,,,,,,,,,,,,,,,,,,,,,,,,,,,,,,,,,,,,,,,,,,,,,,,,,,,,,,,,,,,,,,,,,,,,,,,,,,,,,,,,,,,,,,,,,,,,,,,,,,,,,,,,,,,,,,,,,,,,,,,,,,,,,,,,,,,,,,,,,,,,,,,,,,,,,,
0,3,3,28,1,,5ec44adb04069732a53a7bee,62bbfb59a3c281fa050a9833,2022-06-29_09h12.33.647,Colour_Asymmetry_Pilot,2022.1.3,Win32,144.092219,62bbe60bf3d75ef465d3e404,,,,,,,,,,,,,,,,,,,,,,,,,,,,,,,,,,,,,,,,,,,,,,,,,,,,,,,,,,,,,,,,,,,,,,,,,,,,,,,,,,,,,,,,,,,,,,,,,,,,,,,,,,,,,,,,,,,,,,,,,,,,,,,,,,,,,,,,,,,,,,,,,,,,,,,,,,,,,,
0,4,4,40,1,,5ec44adb04069732a53a7bee,62bbfb59a3c281fa050a9833,2022-06-29_09h12.33.647,Colour_Asymmetry_Pilot,2022.1.3,Win32,144.092219,62bbe60bf3d75ef465d3e404,,,,,,,,,,,,,,,,,,,,,,,,,,,,,,,,,,,,,,,,,,,,,,,,,,,,,,,,,,,,,,,,,,,,,,,,,,,,,,,,,,,,,,,,,,,,,,,,,,,,,,,,,,,,,,,,,,,,,,,,,,,,,,,,,,,,,,,,,,,,,,,,,,,,,,,,,,,,,,
0,5,5,81,1,,5ec44adb04069732a53a7bee,62bbfb59a3c281fa050a9833,2022-06-29_09h12.33.647,Colour_Asymmetry_Pilot,2022.1.3,Win32,144.092219,62bbe60bf3d75ef465d3e404,,,,,,,,,,,,,,,,,,,,,,,,,,,,,,,,,,,,,,,,,,,,,,,,,,,,,,,,,,,,,,,,,,,,,,,,,,,,,,,,,,,,,,,,,,,,,,,,,,,,,,,,,,,,,,,,,,,,,,,,,,,,,,,,,,,,,,,,,,,,,,,,,,,,,,,,,,,,,,
0,6,6,55,1,,5ec44adb04069732a53a7bee,62bbfb59a3c281fa050a9833,2022-06-29_09h12.33.647,Colour_Asymmetry_Pilot,2022.1.3,Win32,144.092219,62bbe60bf3d75ef465d3e404,,,,,,,,,,,,,,,,,,,,,,,,,,,,,,,,,,,,,,,,,,,,,,,,,,,,,,,,,,,,,,,,,,,,,,,,,,,,,,,,,,,,,,,,,,,,,,,,,,,,,,,,,,,,,,,,,,,,,,,,,,,,,,,,,,,,,,,,,,,,,,,,,,,,,,,,,,,,,,
0,7,7,57,1,,5ec44adb04069732a53a7bee,62bbfb59a3c281fa050a9833,2022-06-29_09h12.33.647,Colour_Asymmetry_Pilot,2022.1.3,Win32,144.092219,62bbe60bf3d75ef465d3e404,,,,,,,,,,,,,,,,,,,,,,,,,,,,,,,,,,,,,,,,,,,,,,,,,,,,,,,,,,,,,,,,,,,,,,,,,,,,,,,,,,,,,,,,,,,,,,,,,,,,,,,,,,,,,,,,,,,,,,,,,,,,,,,,,,,,,,,,,,,,,,,,,,,,,,,,,,,,,,
0,8,8,46,1,,5ec44adb04069732a53a7bee,62bbfb59a3c281fa050a9833,2022-06-29_09h12.33.647,Colour_Asymmetry_Pilot,2022.1.3,Win32,144.092219,62bbe60bf3d75ef465d3e404,,,,,,,,,,,,,,,,,,,,,,,,,,,,,,,,,,,,,,,,,,,,,,,,,,,,,,,,,,,,,,,,,,,,,,,,,,,,,,,,,,,,,,,,,,,,,,,,,,,,,,,,,,,,,,,,,,,,,,,,,,,,,,,,,,,,,,,,,,,,,,,,,,,,,,,,,,,,,,
0,9,9,74,1,,5ec44adb04069732a53a7bee,62bbfb59a3c281fa050a9833,2022-06-29_09h12.33.647,Colour_Asymmetry_Pilot,2022.1.3,Win32,144.092219,62bbe60bf3d75ef465d3e404,,,,,,,,,,,,,,,,,,,,,,,,,,,,,,,,,,,,,,,,,,,,,,,,,,,,,,,,,,,,,,,,,,,,,,,,,,,,,,,,,,,,,,,,,,,,,,,,,,,,,,,,,,,,,,,,,,,,,,,,,,,,,,,,,,,,,,,,,,,,,,,,,,,,,,,,,,,,,,
0,10,10,79,1,,5ec44adb04069732a53a7bee,62bbfb59a3c281fa050a9833,2022-06-29_09h12.33.647,Colour_Asymmetry_Pilot,2022.1.3,Win32,144.092219,62bbe60bf3d75ef465d3e404,,,,,,,,,,,,,,,,,,,,,,,,,,,,,,,,,,,,,,,,,,,,,,,,,,,,,,,,,,,,,,,,,,,,,,,,,,,,,,,,,,,,,,,,,,,,,,,,,,,,,,,,,,,,,,,,,,,,,,,,,,,,,,,,,,,,,,,,,,,,,,,,,,,,,,,,,,,,,,
0,11,11,26,1,,5ec44adb04069732a53a7bee,62bbfb59a3c281fa050a9833,2022-06-29_09h12.33.647,Colour_Asymmetry_Pilot,2022.1.3,Win32,144.092219,62bbe60bf3d75ef465d3e404,,,,,,,,,,,,,,,,,,,,,,,,,,,,,,,,,,,,,,,,,,,,,,,,,,,,,,,,,,,,,,,,,,,,,,,,,,,,,,,,,,,,,,,,,,,,,,,,,,,,,,,,,,,,,,,,,,,,,,,,,,,,,,,,,,,,,,,,,,,,,,,,,,,,,,,,,,,,,,
0,12,12,1,1,,5ec44adb04069732a53a7bee,62bbfb59a3c281fa050a9833,2022-06-29_09h12.33.647,Colour_Asymmetry_Pilot,2022.1.3,Win32,144.092219,62bbe60bf3d75ef465d3e404,,,,,,,,,,,,,,,,,,,,,,,,,,,,,,,,,,,,,,,,,,,,,,,,,,,,,,,,,,,,,,,,,,,,,,,,,,,,,,,,,,,,,,,,,,,,,,,,,,,,,,,,,,,,,,,,,,,,,,,,,,,,,,,,,,,,,,,,,,,,,,,,,,,,,,,,,,,,,,
0,13,13,52,1,,5ec44adb04069732a53a7bee,62bbfb59a3c281fa050a9833,2022-06-29_09h12.33.647,Colour_Asymmetry_Pilot,2022.1.3,Win32,144.092219,62bbe60bf3d75ef465d3e404,,,,,,,,,,,,,,,,,,,,,,,,,,,,,,,,,,,,,,,,,,,,,,,,,,,,,,,,,,,,,,,,,,,,,,,,,,,,,,,,,,,,,,,,,,,,,,,,,,,,,,,,,,,,,,,,,,,,,,,,,,,,,,,,,,,,,,,,,,,,,,,,,,,,,,,,,,,,,,
0,14,14,61,1,,5ec44adb04069732a53a7bee,62bbfb59a3c281fa050a9833,2022-06-29_09h12.33.647,Colour_Asymmetry_Pilot,2022.1.3,Win32,144.092219,62bbe60bf3d75ef465d3e404,,,,,,,,,,,,,,,,,,,,,,,,,,,,,,,,,,,,,,,,,,,,,,,,,,,,,,,,,,,,,,,,,,,,,,,,,,,,,,,,,,,,,,,,,,,,,,,,,,,,,,,,,,,,,,,,,,,,,,,,,,,,,,,,,,,,,,,,,,,,,,,,,,,,,,,,,,,,,,
0,15,15,12,1,,5ec44adb04069732a53a7bee,62bbfb59a3c281fa050a9833,2022-06-29_09h12.33.647,Colour_Asymmetry_Pilot,2022.1.3,Win32,144.092219,62bbe60bf3d75ef465d3e404,,,,,,,,,,,,,,,,,,,,,,,,,,,,,,,,,,,,,,,,,,,,,,,,,,,,,,,,,,,,,,,,,,,,,,,,,,,,,,,,,,,,,,,,,,,,,,,,,,,,,,,,,,,,,,,,,,,,,,,,,,,,,,,,,,,,,,,,,,,,,,,,,,,,,,,,,,,,,,
0,16,16,66,1,,5ec44adb04069732a53a7bee,62bbfb59a3c281fa050a9833,2022-06-29_09h12.33.647,Colour_Asymmetry_Pilot,2022.1.3,Win32,144.092219,62bbe60bf3d75ef465d3e404,,,,,,,,,,,,,,,,,,,,,,,,,,,,,,,,,,,,,,,,,,,,,,,,,,,,,,,,,,,,,,,,,,,,,,,,,,,,,,,,,,,,,,,,,,,,,,,,,,,,,,,,,,,,,,,,,,,,,,,,,,,,,,,,,,,,,,,,,,,,,,,,,,,,,,,,,,,,,,
0,17,17,44,1,,5ec44adb04069732a53a7bee,62bbfb59a3c281fa050a9833,2022-06-29_09h12.33.647,Colour_Asymmetry_Pilot,2022.1.3,Win32,144.092219,62bbe60bf3d75ef465d3e404,,,,,,,,,,,,,,,,,,,,,,,,,,,,,,,,,,,,,,,,,,,,,,,,,,,,,,,,,,,,,,,,,,,,,,,,,,,,,,,,,,,,,,,,,,,,,,,,,,,,,,,,,,,,,,,,,,,,,,,,,,,,,,,,,,,,,,,,,,,,,,,,,,,,,,,,,,,,,,
0,18,18,32,1,,5ec44adb04069732a53a7bee,62bbfb59a3c281fa050a9833,2022-06-29_09h12.33.647,Colour_Asymmetry_Pilot,2022.1.3,Win32,144.092219,62bbe60bf3d75ef465d3e404,,,,,,,,,,,,,,,,,,,,,,,,,,,,,,,,,,,,,,,,,,,,,,,,,,,,,,,,,,,,,,,,,,,,,,,,,,,,,,,,,,,,,,,,,,,,,,,,,,,,,,,,,,,,,,,,,,,,,,,,,,,,,,,,,,,,,,,,,,,,,,,,,,,,,,,,,,,,,,
0,19,19,10,1,,5ec44adb04069732a53a7bee,62bbfb59a3c281fa050a9833,2022-06-29_09h12.33.647,Colour_Asymmetry_Pilot,2022.1.3,Win32,144.092219,62bbe60bf3d75ef465d3e404,,,,,,,,,,,,,,,,,,,,,,,,,,,,,,,,,,,,,,,,,,,,,,,,,,,,,,,,,,,,,,,,,,,,,,,,,,,,,,,,,,,,,,,,,,,,,,,,,,,,,,,,,,,,,,,,,,,,,,,,,,,,,,,,,,,,,,,,,,,,,,,,,,,,,,,,,,,,,,
0,20,20,19,1,,5ec44adb04069732a53a7bee,62bbfb59a3c281fa050a9833,2022-06-29_09h12.33.647,Colour_Asymmetry_Pilot,2022.1.3,Win32,144.092219,62bbe60bf3d75ef465d3e404,,,,,,,,,,,,,,,,,,,,,,,,,,,,,,,,,,,,,,,,,,,,,,,,,,,,,,,,,,,,,,,,,,,,,,,,,,,,,,,,,,,,,,,,,,,,,,,,,,,,,,,,,,,,,,,,,,,,,,,,,,,,,,,,,,,,,,,,,,,,,,,,,,,,,,,,,,,,,,
0,21,21,36,1,,5ec44adb04069732a53a7bee,62bbfb59a3c281fa050a9833,2022-06-29_09h12.33.647,Colour_Asymmetry_Pilot,2022.1.3,Win32,144.092219,62bbe60bf3d75ef465d3e404,,,,,,,,,,,,,,,,,,,,,,,,,,,,,,,,,,,,,,,,,,,,,,,,,,,,,,,,,,,,,,,,,,,,,,,,,,,,,,,,,,,,,,,,,,,,,,,,,,,,,,,,,,,,,,,,,,,,,,,,,,,,,,,,,,,,,,,,,,,,,,,,,,,,,,,,,,,,,,
0,22,22,53,1,,5ec44adb04069732a53a7bee,62bbfb59a3c281fa050a9833,2022-06-29_09h12.33.647,Colour_Asymmetry_Pilot,2022.1.3,Win32,144.092219,62bbe60bf3d75ef465d3e404,,,,,,,,,,,,,,,,,,,,,,,,,,,,,,,,,,,,,,,,,,,,,,,,,,,,,,,,,,,,,,,,,,,,,,,,,,,,,,,,,,,,,,,,,,,,,,,,,,,,,,,,,,,,,,,,,,,,,,,,,,,,,,,,,,,,,,,,,,,,,,,,,,,,,,,,,,,,,,
0,23,23,4,1,,5ec44adb04069732a53a7bee,62bbfb59a3c281fa050a9833,2022-06-29_09h12.33.647,Colour_Asymmetry_Pilot,2022.1.3,Win32,144.092219,62bbe60bf3d75ef465d3e404,,,,,,,,,,,,,,,,,,,,,,,,,,,,,,,,,,,,,,,,,,,,,,,,,,,,,,,,,,,,,,,,,,,,,,,,,,,,,,,,,,,,,,,,,,,,,,,,,,,,,,,,,,,,,,,,,,,,,,,,,,,,,,,,,,,,,,,,,,,,,,,,,,,,,,,,,,,,,,
0,24,24,48,1,,5ec44adb04069732a53a7bee,62bbfb59a3c281fa050a9833,2022-06-29_09h12.33.647,Colour_Asymmetry_Pilot,2022.1.3,Win32,144.092219,62bbe60bf3d75ef465d3e404,,,,,,,,,,,,,,,,,,,,,,,,,,,,,,,,,,,,,,,,,,,,,,,,,,,,,,,,,,,,,,,,,,,,,,,,,,,,,,,,,,,,,,,,,,,,,,,,,,,,,,,,,,,,,,,,,,,,,,,,,,,,,,,,,,,,,,,,,,,,,,,,,,,,,,,,,,,,,,
0,25,25,80,1,,5ec44adb04069732a53a7bee,62bbfb59a3c281fa050a9833,2022-06-29_09h12.33.647,Colour_Asymmetry_Pilot,2022.1.3,Win32,144.092219,62bbe60bf3d75ef465d3e404,,,,,,,,,,,,,,,,,,,,,,,,,,,,,,,,,,,,,,,,,,,,,,,,,,,,,,,,,,,,,,,,,,,,,,,,,,,,,,,,,,,,,,,,,,,,,,,,,,,,,,,,,,,,,,,,,,,,,,,,,,,,,,,,,,,,,,,,,,,,,,,,,,,,,,,,,,,,,,
0,26,26,92,1,,5ec44adb04069732a53a7bee,62bbfb59a3c281fa050a9833,2022-06-29_09h12.33.647,Colour_Asymmetry_Pilot,2022.1.3,Win32,144.092219,62bbe60bf3d75ef465d3e404,,,,,,,,,,,,,,,,,,,,,,,,,,,,,,,,,,,,,,,,,,,,,,,,,,,,,,,,,,,,,,,,,,,,,,,,,,,,,,,,,,,,,,,,,,,,,,,,,,,,,,,,,,,,,,,,,,,,,,,,,,,,,,,,,,,,,,,,,,,,,,,,,,,,,,,,,,,,,,
0,27,27,15,1,,5ec44adb04069732a53a7bee,62bbfb59a3c281fa050a9833,2022-06-29_09h12.33.647,Colour_Asymmetry_Pilot,2022.1.3,Win32,144.092219,62bbe60bf3d75ef465d3e404,,,,,,,,,,,,,,,,,,,,,,,,,,,,,,,,,,,,,,,,,,,,,,,,,,,,,,,,,,,,,,,,,,,,,,,,,,,,,,,,,,,,,,,,,,,,,,,,,,,,,,,,,,,,,,,,,,,,,,,,,,,,,,,,,,,,,,,,,,,,,,,,,,,,,,,,,,,,,,
0,28,28,39,1,,5ec44adb04069732a53a7bee,62bbfb59a3c281fa050a9833,2022-06-29_09h12.33.647,Colour_Asymmetry_Pilot,2022.1.3,Win32,144.092219,62bbe60bf3d75ef465d3e404,,,,,,,,,,,,,,,,,,,,,,,,,,,,,,,,,,,,,,,,,,,,,,,,,,,,,,,,,,,,,,,,,,,,,,,,,,,,,,,,,,,,,,,,,,,,,,,,,,,,,,,,,,,,,,,,,,,,,,,,,,,,,,,,,,,,,,,,,,,,,,,,,,,,,,,,,,,,,,
0,29,29,20,1,,5ec44adb04069732a53a7bee,62bbfb59a3c281fa050a9833,2022-06-29_09h12.33.647,Colour_Asymmetry_Pilot,2022.1.3,Win32,144.092219,62bbe60bf3d75ef465d3e404,,,,,,,,,,,,,,,,,,,,,,,,,,,,,,,,,,,,,,,,,,,,,,,,,,,,,,,,,,,,,,,,,,,,,,,,,,,,,,,,,,,,,,,,,,,,,,,,,,,,,,,,,,,,,,,,,,,,,,,,,,,,,,,,,,,,,,,,,,,,,,,,,,,,,,,,,,,,,,
0,30,30,71,1,,5ec44adb04069732a53a7bee,62bbfb59a3c281fa050a9833,2022-06-29_09h12.33.647,Colour_Asymmetry_Pilot,2022.1.3,Win32,144.092219,62bbe60bf3d75ef465d3e404,,,,,,,,,,,,,,,,,,,,,,,,,,,,,,,,,,,,,,,,,,,,,,,,,,,,,,,,,,,,,,,,,,,,,,,,,,,,,,,,,,,,,,,,,,,,,,,,,,,,,,,,,,,,,,,,,,,,,,,,,,,,,,,,,,,,,,,,,,,,,,,,,,,,,,,,,,,,,,
0,31,31,90,1,,5ec44adb04069732a53a7bee,62bbfb59a3c281fa050a9833,2022-06-29_09h12.33.647,Colour_Asymmetry_Pilot,2022.1.3,Win32,144.092219,62bbe60bf3d75ef465d3e404,,,,,,,,,,,,,,,,,,,,,,,,,,,,,,,,,,,,,,,,,,,,,,,,,,,,,,,,,,,,,,,,,,,,,,,,,,,,,,,,,,,,,,,,,,,,,,,,,,,,,,,,,,,,,,,,,,,,,,,,,,,,,,,,,,,,,,,,,,,,,,,,,,,,,,,,,,,,,,
0,32,32,24,1,,5ec44adb04069732a53a7bee,62bbfb59a3c281fa050a9833,2022-06-29_09h12.33.647,Colour_Asymmetry_Pilot,2022.1.3,Win32,144.092219,62bbe60bf3d75ef465d3e404,,,,,,,,,,,,,,,,,,,,,,,,,,,,,,,,,,,,,,,,,,,,,,,,,,,,,,,,,,,,,,,,,,,,,,,,,,,,,,,,,,,,,,,,,,,,,,,,,,,,,,,,,,,,,,,,,,,,,,,,,,,,,,,,,,,,,,,,,,,,,,,,,,,,,,,,,,,,,,
0,33,33,65,1,,5ec44adb04069732a53a7bee,62bbfb59a3c281fa050a9833,2022-06-29_09h12.33.647,Colour_Asymmetry_Pilot,2022.1.3,Win32,144.092219,62bbe60bf3d75ef465d3e404,,,,,,,,,,,,,,,,,,,,,,,,,,,,,,,,,,,,,,,,,,,,,,,,,,,,,,,,,,,,,,,,,,,,,,,,,,,,,,,,,,,,,,,,,,,,,,,,,,,,,,,,,,,,,,,,,,,,,,,,,,,,,,,,,,,,,,,,,,,,,,,,,,,,,,,,,,,,,,
0,34,34,84,1,,5ec44adb04069732a53a7bee,62bbfb59a3c281fa050a9833,2022-06-29_09h12.33.647,Colour_Asymmetry_Pilot,2022.1.3,Win32,144.092219,62bbe60bf3d75ef465d3e404,,,,,,,,,,,,,,,,,,,,,,,,,,,,,,,,,,,,,,,,,,,,,,,,,,,,,,,,,,,,,,,,,,,,,,,,,,,,,,,,,,,,,,,,,,,,,,,,,,,,,,,,,,,,,,,,,,,,,,,,,,,,,,,,,,,,,,,,,,,,,,,,,,,,,,,,,,,,,,
0,35,35,25,1,,5ec44adb04069732a53a7bee,62bbfb59a3c281fa050a9833,2022-06-29_09h12.33.647,Colour_Asymmetry_Pilot,2022.1.3,Win32,144.092219,62bbe60bf3d75ef465d3e404,,,,,,,,,,,,,,,,,,,,,,,,,,,,,,,,,,,,,,,,,,,,,,,,,,,,,,,,,,,,,,,,,,,,,,,,,,,,,,,,,,,,,,,,,,,,,,,,,,,,,,,,,,,,,,,,,,,,,,,,,,,,,,,,,,,,,,,,,,,,,,,,,,,,,,,,,,,,,,
0,36,36,37,1,,5ec44adb04069732a53a7bee,62bbfb59a3c281fa050a9833,2022-06-29_09h12.33.647,Colour_Asymmetry_Pilot,2022.1.3,Win32,144.092219,62bbe60bf3d75ef465d3e404,,,,,,,,,,,,,,,,,,,,,,,,,,,,,,,,,,,,,,,,,,,,,,,,,,,,,,,,,,,,,,,,,,,,,,,,,,,,,,,,,,,,,,,,,,,,,,,,,,,,,,,,,,,,,,,,,,,,,,,,,,,,,,,,,,,,,,,,,,,,,,,,,,,,,,,,,,,,,,
0,37,37,5,1,,5ec44adb04069732a53a7bee,62bbfb59a3c281fa050a9833,2022-06-29_09h12.33.647,Colour_Asymmetry_Pilot,2022.1.3,Win32,144.092219,62bbe60bf3d75ef465d3e404,,,,,,,,,,,,,,,,,,,,,,,,,,,,,,,,,,,,,,,,,,,,,,,,,,,,,,,,,,,,,,,,,,,,,,,,,,,,,,,,,,,,,,,,,,,,,,,,,,,,,,,,,,,,,,,,,,,,,,,,,,,,,,,,,,,,,,,,,,,,,,,,,,,,,,,,,,,,,,
0,38,38,69,1,,5ec44adb04069732a53a7bee,62bbfb59a3c281fa050a9833,2022-06-29_09h12.33.647,Colour_Asymmetry_Pilot,2022.1.3,Win32,144.092219,62bbe60bf3d75ef465d3e404,,,,,,,,,,,,,,,,,,,,,,,,,,,,,,,,,,,,,,,,,,,,,,,,,,,,,,,,,,,,,,,,,,,,,,,,,,,,,,,,,,,,,,,,,,,,,,,,,,,,,,,,,,,,,,,,,,,,,,,,,,,,,,,,,,,,,,,,,,,,,,,,,,,,,,,,,,,,,,
0,39,39,56,1,,5ec44adb04069732a53a7bee,62bbfb59a3c281fa050a9833,2022-06-29_09h12.33.647,Colour_Asymmetry_Pilot,2022.1.3,Win32,144.092219,62bbe60bf3d75ef465d3e404,,,,,,,,,,,,,,,,,,,,,,,,,,,,,,,,,,,,,,,,,,,,,,,,,,,,,,,,,,,,,,,,,,,,,,,,,,,,,,,,,,,,,,,,,,,,,,,,,,,,,,,,,,,,,,,,,,,,,,,,,,,,,,,,,,,,,,,,,,,,,,,,,,,,,,,,,,,,,,
0,40,40,0,1,,5ec44adb04069732a53a7bee,62bbfb59a3c281fa050a9833,2022-06-29_09h12.33.647,Colour_Asymmetry_Pilot,2022.1.3,Win32,144.092219,62bbe60bf3d75ef465d3e404,,,,,,,,,,,,,,,,,,,,,,,,,,,,,,,,,,,,,,,,,,,,,,,,,,,,,,,,,,,,,,,,,,,,,,,,,,,,,,,,,,,,,,,,,,,,,,,,,,,,,,,,,,,,,,,,,,,,,,,,,,,,,,,,,,,,,,,,,,,,,,,,,,,,,,,,,,,,,,
0,41,41,11,1,,5ec44adb04069732a53a7bee,62bbfb59a3c281fa050a9833,2022-06-29_09h12.33.647,Colour_Asymmetry_Pilot,2022.1.3,Win32,144.092219,62bbe60bf3d75ef465d3e404,,,,,,,,,,,,,,,,,,,,,,,,,,,,,,,,,,,,,,,,,,,,,,,,,,,,,,,,,,,,,,,,,,,,,,,,,,,,,,,,,,,,,,,,,,,,,,,,,,,,,,,,,,,,,,,,,,,,,,,,,,,,,,,,,,,,,,,,,,,,,,,,,,,,,,,,,,,,,,
0,42,42,64,1,,5ec44adb04069732a53a7bee,62bbfb59a3c281fa050a9833,2022-06-29_09h12.33.647,Colour_Asymmetry_Pilot,2022.1.3,Win32,144.092219,62bbe60bf3d75ef465d3e404,,,,,,,,,,,,,,,,,,,,,,,,,,,,,,,,,,,,,,,,,,,,,,,,,,,,,,,,,,,,,,,,,,,,,,,,,,,,,,,,,,,,,,,,,,,,,,,,,,,,,,,,,,,,,,,,,,,,,,,,,,,,,,,,,,,,,,,,,,,,,,,,,,,,,,,,,,,,,,
0,43,43,72,1,,5ec44adb04069732a53a7bee,62bbfb59a3c281fa050a9833,2022-06-29_09h12.33.647,Colour_Asymmetry_Pilot,2022.1.3,Win32,144.092219,62bbe60bf3d75ef465d3e404,,,,,,,,,,,,,,,,,,,,,,,,,,,,,,,,,,,,,,,,,,,,,,,,,,,,,,,,,,,,,,,,,,,,,,,,,,,,,,,,,,,,,,,,,,,,,,,,,,,,,,,,,,,,,,,,,,,,,,,,,,,,,,,,,,,,,,,,,,,,,,,,,,,,,,,,,,,,,,
0,44,44,85,1,,5ec44adb04069732a53a7bee,62bbfb59a3c281fa050a9833,2022-06-29_09h12.33.647,Colour_Asymmetry_Pilot,2022.1.3,Win32,144.092219,62bbe60bf3d75ef465d3e404,,,,,,,,,,,,,,,,,,,,,,,,,,,,,,,,,,,,,,,,,,,,,,,,,,,,,,,,,,,,,,,,,,,,,,,,,,,,,,,,,,,,,,,,,,,,,,,,,,,,,,,,,,,,,,,,,,,,,,,,,,,,,,,,,,,,,,,,,,,,,,,,,,,,,,,,,,,,,,
0,45,45,51,1,,5ec44adb04069732a53a7bee,62bbfb59a3c281fa050a9833,2022-06-29_09h12.33.647,Colour_Asymmetry_Pilot,2022.1.3,Win32,144.092219,62bbe60bf3d75ef465d3e404,,,,,,,,,,,,,,,,,,,,,,,,,,,,,,,,,,,,,,,,,,,,,,,,,,,,,,,,,,,,,,,,,,,,,,,,,,,,,,,,,,,,,,,,,,,,,,,,,,,,,,,,,,,,,,,,,,,,,,,,,,,,,,,,,,,,,,,,,,,,,,,,,,,,,,,,,,,,,,
0,46,46,87,1,,5ec44adb04069732a53a7bee,62bbfb59a3c281fa050a9833,2022-06-29_09h12.33.647,Colour_Asymmetry_Pilot,2022.1.3,Win32,144.092219,62bbe60bf3d75ef465d3e404,,,,,,,,,,,,,,,,,,,,,,,,,,,,,,,,,,,,,,,,,,,,,,,,,,,,,,,,,,,,,,,,,,,,,,,,,,,,,,,,,,,,,,,,,,,,,,,,,,,,,,,,,,,,,,,,,,,,,,,,,,,,,,,,,,,,,,,,,,,,,,,,,,,,,,,,,,,,,,
0,47,47,9,1,,5ec44adb04069732a53a7bee,62bbfb59a3c281fa050a9833,2022-06-29_09h12.33.647,Colour_Asymmetry_Pilot,2022.1.3,Win32,144.092219,62bbe60bf3d75ef465d3e404,,,,,,,,,,,,,,,,,,,,,,,,,,,,,,,,,,,,,,,,,,,,,,,,,,,,,,,,,,,,,,,,,,,,,,,,,,,,,,,,,,,,,,,,,,,,,,,,,,,,,,,,,,,,,,,,,,,,,,,,,,,,,,,,,,,,,,,,,,,,,,,,,,,,,,,,,,,,,,
0,48,48,47,1,,5ec44adb04069732a53a7bee,62bbfb59a3c281fa050a9833,2022-06-29_09h12.33.647,Colour_Asymmetry_Pilot,2022.1.3,Win32,144.092219,62bbe60bf3d75ef465d3e404,,,,,,,,,,,,,,,,,,,,,,,,,,,,,,,,,,,,,,,,,,,,,,,,,,,,,,,,,,,,,,,,,,,,,,,,,,,,,,,,,,,,,,,,,,,,,,,,,,,,,,,,,,,,,,,,,,,,,,,,,,,,,,,,,,,,,,,,,,,,,,,,,,,,,,,,,,,,,,
0,49,49,3,1,,5ec44adb04069732a53a7bee,62bbfb59a3c281fa050a9833,2022-06-29_09h12.33.647,Colour_Asymmetry_Pilot,2022.1.3,Win32,144.092219,62bbe60bf3d75ef465d3e404,,,,,,,,,,,,,,,,,,,,,,,,,,,,,,,,,,,,,,,,,,,,,,,,,,,,,,,,,,,,,,,,,,,,,,,,,,,,,,,,,,,,,,,,,,,,,,,,,,,,,,,,,,,,,,,,,,,,,,,,,,,,,,,,,,,,,,,,,,,,,,,,,,,,,,,,,,,,,,
0,50,50,2,1,,5ec44adb04069732a53a7bee,62bbfb59a3c281fa050a9833,2022-06-29_09h12.33.647,Colour_Asymmetry_Pilot,2022.1.3,Win32,144.092219,62bbe60bf3d75ef465d3e404,,,,,,,,,,,,,,,,,,,,,,,,,,,,,,,,,,,,,,,,,,,,,,,,,,,,,,,,,,,,,,,,,,,,,,,,,,,,,,,,,,,,,,,,,,,,,,,,,,,,,,,,,,,,,,,,,,,,,,,,,,,,,,,,,,,,,,,,,,,,,,,,,,,,,,,,,,,,,,
0,51,51,31,1,,5ec44adb04069732a53a7bee,62bbfb59a3c281fa050a9833,2022-06-29_09h12.33.647,Colour_Asymmetry_Pilot,2022.1.3,Win32,144.092219,62bbe60bf3d75ef465d3e404,,,,,,,,,,,,,,,,,,,,,,,,,,,,,,,,,,,,,,,,,,,,,,,,,,,,,,,,,,,,,,,,,,,,,,,,,,,,,,,,,,,,,,,,,,,,,,,,,,,,,,,,,,,,,,,,,,,,,,,,,,,,,,,,,,,,,,,,,,,,,,,,,,,,,,,,,,,,,,
0,52,52,7,1,,5ec44adb04069732a53a7bee,62bbfb59a3c281fa050a9833,2022-06-29_09h12.33.647,Colour_Asymmetry_Pilot,2022.1.3,Win32,144.092219,62bbe60bf3d75ef465d3e404,,,,,,,,,,,,,,,,,,,,,,,,,,,,,,,,,,,,,,,,,,,,,,,,,,,,,,,,,,,,,,,,,,,,,,,,,,,,,,,,,,,,,,,,,,,,,,,,,,,,,,,,,,,,,,,,,,,,,,,,,,,,,,,,,,,,,,,,,,,,,,,,,,,,,,,,,,,,,,
0,53,53,41,1,,5ec44adb04069732a53a7bee,62bbfb59a3c281fa050a9833,2022-06-29_09h12.33.647,Colour_Asymmetry_Pilot,2022.1.3,Win32,144.092219,62bbe60bf3d75ef465d3e404,,,,,,,,,,,,,,,,,,,,,,,,,,,,,,,,,,,,,,,,,,,,,,,,,,,,,,,,,,,,,,,,,,,,,,,,,,,,,,,,,,,,,,,,,,,,,,,,,,,,,,,,,,,,,,,,,,,,,,,,,,,,,,,,,,,,,,,,,,,,,,,,,,,,,,,,,,,,,,
0,54,54,43,1,,5ec44adb04069732a53a7bee,62bbfb59a3c281fa050a9833,2022-06-29_09h12.33.647,Colour_Asymmetry_Pilot,2022.1.3,Win32,144.092219,62bbe60bf3d75ef465d3e404,,,,,,,,,,,,,,,,,,,,,,,,,,,,,,,,,,,,,,,,,,,,,,,,,,,,,,,,,,,,,,,,,,,,,,,,,,,,,,,,,,,,,,,,,,,,,,,,,,,,,,,,,,,,,,,,,,,,,,,,,,,,,,,,,,,,,,,,,,,,,,,,,,,,,,,,,,,,,,
0,55,55,35,1,,5ec44adb04069732a53a7bee,62bbfb59a3c281fa050a9833,2022-06-29_09h12.33.647,Colour_Asymmetry_Pilot,2022.1.3,Win32,144.092219,62bbe60bf3d75ef465d3e404,,,,,,,,,,,,,,,,,,,,,,,,,,,,,,,,,,,,,,,,,,,,,,,,,,,,,,,,,,,,,,,,,,,,,,,,,,,,,,,,,,,,,,,,,,,,,,,,,,,,,,,,,,,,,,,,,,,,,,,,,,,,,,,,,,,,,,,,,,,,,,,,,,,,,,,,,,,,,,
0,56,56,89,1,,5ec44adb04069732a53a7bee,62bbfb59a3c281fa050a9833,2022-06-29_09h12.33.647,Colour_Asymmetry_Pilot,2022.1.3,Win32,144.092219,62bbe60bf3d75ef465d3e404,,,,,,,,,,,,,,,,,,,,,,,,,,,,,,,,,,,,,,,,,,,,,,,,,,,,,,,,,,,,,,,,,,,,,,,,,,,,,,,,,,,,,,,,,,,,,,,,,,,,,,,,,,,,,,,,,,,,,,,,,,,,,,,,,,,,,,,,,,,,,,,,,,,,,,,,,,,,,,
0,57,57,6,1,,5ec44adb04069732a53a7bee,62bbfb59a3c281fa050a9833,2022-06-29_09h12.33.647,Colour_Asymmetry_Pilot,2022.1.3,Win32,144.092219,62bbe60bf3d75ef465d3e404,,,,,,,,,,,,,,,,,,,,,,,,,,,,,,,,,,,,,,,,,,,,,,,,,,,,,,,,,,,,,,,,,,,,,,,,,,,,,,,,,,,,,,,,,,,,,,,,,,,,,,,,,,,,,,,,,,,,,,,,,,,,,,,,,,,,,,,,,,,,,,,,,,,,,,,,,,,,,,
0,58,58,30,1,,5ec44adb04069732a53a7bee,62bbfb59a3c281fa050a9833,2022-06-29_09h12.33.647,Colour_Asymmetry_Pilot,2022.1.3,Win32,144.092219,62bbe60bf3d75ef465d3e404,,,,,,,,,,,,,,,,,,,,,,,,,,,,,,,,,,,,,,,,,,,,,,,,,,,,,,,,,,,,,,,,,,,,,,,,,,,,,,,,,,,,,,,,,,,,,,,,,,,,,,,,,,,,,,,,,,,,,,,,,,,,,,,,,,,,,,,,,,,,,,,,,,,,,,,,,,,,,,
0,59,59,22,1,,5ec44adb04069732a53a7bee,62bbfb59a3c281fa050a9833,2022-06-29_09h12.33.647,Colour_Asymmetry_Pilot,2022.1.3,Win32,144.092219,62bbe60bf3d75ef465d3e404,,,,,,,,,,,,,,,,,,,,,,,,,,,,,,,,,,,,,,,,,,,,,,,,,,,,,,,,,,,,,,,,,,,,,,,,,,,,,,,,,,,,,,,,,,,,,,,,,,,,,,,,,,,,,,,,,,,,,,,,,,,,,,,,,,,,,,,,,,,,,,,,,,,,,,,,,,,,,,
0,60,60,18,1,,5ec44adb04069732a53a7bee,62bbfb59a3c281fa050a9833,2022-06-29_09h12.33.647,Colour_Asymmetry_Pilot,2022.1.3,Win32,144.092219,62bbe60bf3d75ef465d3e404,,,,,,,,,,,,,,,,,,,,,,,,,,,,,,,,,,,,,,,,,,,,,,,,,,,,,,,,,,,,,,,,,,,,,,,,,,,,,,,,,,,,,,,,,,,,,,,,,,,,,,,,,,,,,,,,,,,,,,,,,,,,,,,,,,,,,,,,,,,,,,,,,,,,,,,,,,,,,,
0,61,61,73,1,,5ec44adb04069732a53a7bee,62bbfb59a3c281fa050a9833,2022-06-29_09h12.33.647,Colour_Asymmetry_Pilot,2022.1.3,Win32,144.092219,62bbe60bf3d75ef465d3e404,,,,,,,,,,,,,,,,,,,,,,,,,,,,,,,,,,,,,,,,,,,,,,,,,,,,,,,,,,,,,,,,,,,,,,,,,,,,,,,,,,,,,,,,,,,,,,,,,,,,,,,,,,,,,,,,,,,,,,,,,,,,,,,,,,,,,,,,,,,,,,,,,,,,,,,,,,,,,,
0,62,62,14,1,,5ec44adb04069732a53a7bee,62bbfb59a3c281fa050a9833,2022-06-29_09h12.33.647,Colour_Asymmetry_Pilot,2022.1.3,Win32,144.092219,62bbe60bf3d75ef465d3e404,,,,,,,,,,,,,,,,,,,,,,,,,,,,,,,,,,,,,,,,,,,,,,,,,,,,,,,,,,,,,,,,,,,,,,,,,,,,,,,,,,,,,,,,,,,,,,,,,,,,,,,,,,,,,,,,,,,,,,,,,,,,,,,,,,,,,,,,,,,,,,,,,,,,,,,,,,,,,,
0,63,63,17,1,,5ec44adb04069732a53a7bee,62bbfb59a3c281fa050a9833,2022-06-29_09h12.33.647,Colour_Asymmetry_Pilot,2022.1.3,Win32,144.092219,62bbe60bf3d75ef465d3e404,,,,,,,,,,,,,,,,,,,,,,,,,,,,,,,,,,,,,,,,,,,,,,,,,,,,,,,,,,,,,,,,,,,,,,,,,,,,,,,,,,,,,,,,,,,,,,,,,,,,,,,,,,,,,,,,,,,,,,,,,,,,,,,,,,,,,,,,,,,,,,,,,,,,,,,,,,,,,,
0,64,64,76,1,,5ec44adb04069732a53a7bee,62bbfb59a3c281fa050a9833,2022-06-29_09h12.33.647,Colour_Asymmetry_Pilot,2022.1.3,Win32,144.092219,62bbe60bf3d75ef465d3e404,,,,,,,,,,,,,,,,,,,,,,,,,,,,,,,,,,,,,,,,,,,,,,,,,,,,,,,,,,,,,,,,,,,,,,,,,,,,,,,,,,,,,,,,,,,,,,,,,,,,,,,,,,,,,,,,,,,,,,,,,,,,,,,,,,,,,,,,,,,,,,,,,,,,,,,,,,,,,,
0,65,65,42,1,,5ec44adb04069732a53a7bee,62bbfb59a3c281fa050a9833,2022-06-29_09h12.33.647,Colour_Asymmetry_Pilot,2022.1.3,Win32,144.092219,62bbe60bf3d75ef465d3e404,,,,,,,,,,,,,,,,,,,,,,,,,,,,,,,,,,,,,,,,,,,,,,,,,,,,,,,,,,,,,,,,,,,,,,,,,,,,,,,,,,,,,,,,,,,,,,,,,,,,,,,,,,,,,,,,,,,,,,,,,,,,,,,,,,,,,,,,,,,,,,,,,,,,,,,,,,,,,,
0,66,66,68,1,,5ec44adb04069732a53a7bee,62bbfb59a3c281fa050a9833,2022-06-29_09h12.33.647,Colour_Asymmetry_Pilot,2022.1.3,Win32,144.092219,62bbe60bf3d75ef465d3e404,,,,,,,,,,,,,,,,,,,,,,,,,,,,,,,,,,,,,,,,,,,,,,,,,,,,,,,,,,,,,,,,,,,,,,,,,,,,,,,,,,,,,,,,,,,,,,,,,,,,,,,,,,,,,,,,,,,,,,,,,,,,,,,,,,,,,,,,,,,,,,,,,,,,,,,,,,,,,,
0,67,67,77,1,,5ec44adb04069732a53a7bee,62bbfb59a3c281fa050a9833,2022-06-29_09h12.33.647,Colour_Asymmetry_Pilot,2022.1.3,Win32,144.092219,62bbe60bf3d75ef465d3e404,,,,,,,,,,,,,,,,,,,,,,,,,,,,,,,,,,,,,,,,,,,,,,,,,,,,,,,,,,,,,,,,,,,,,,,,,,,,,,,,,,,,,,,,,,,,,,,,,,,,,,,,,,,,,,,,,,,,,,,,,,,,,,,,,,,,,,,,,,,,,,,,,,,,,,,,,,,,,,
0,68,68,62,1,,5ec44adb04069732a53a7bee,62bbfb59a3c281fa050a9833,2022-06-29_09h12.33.647,Colour_Asymmetry_Pilot,2022.1.3,Win32,144.092219,62bbe60bf3d75ef465d3e404,,,,,,,,,,,,,,,,,,,,,,,,,,,,,,,,,,,,,,,,,,,,,,,,,,,,,,,,,,,,,,,,,,,,,,,,,,,,,,,,,,,,,,,,,,,,,,,,,,,,,,,,,,,,,,,,,,,,,,,,,,,,,,,,,,,,,,,,,,,,,,,,,,,,,,,,,,,,,,
0,69,69,38,1,,5ec44adb04069732a53a7bee,62bbfb59a3c281fa050a9833,2022-06-29_09h12.33.647,Colour_Asymmetry_Pilot,2022.1.3,Win32,144.092219,62bbe60bf3d75ef465d3e404,,,,,,,,,,,,,,,,,,,,,,,,,,,,,,,,,,,,,,,,,,,,,,,,,,,,,,,,,,,,,,,,,,,,,,,,,,,,,,,,,,,,,,,,,,,,,,,,,,,,,,,,,,,,,,,,,,,,,,,,,,,,,,,,,,,,,,,,,,,,,,,,,,,,,,,,,,,,,,
0,70,70,21,1,,5ec44adb04069732a53a7bee,62bbfb59a3c281fa050a9833,2022-06-29_09h12.33.647,Colour_Asymmetry_Pilot,2022.1.3,Win32,144.092219,62bbe60bf3d75ef465d3e404,,,,,,,,,,,,,,,,,,,,,,,,,,,,,,,,,,,,,,,,,,,,,,,,,,,,,,,,,,,,,,,,,,,,,,,,,,,,,,,,,,,,,,,,,,,,,,,,,,,,,,,,,,,,,,,,,,,,,,,,,,,,,,,,,,,,,,,,,,,,,,,,,,,,,,,,,,,,,,
0,71,71,83,1,,5ec44adb04069732a53a7bee,62bbfb59a3c281fa050a9833,2022-06-29_09h12.33.647,Colour_Asymmetry_Pilot,2022.1.3,Win32,144.092219,62bbe60bf3d75ef465d3e404,,,,,,,,,,,,,,,,,,,,,,,,,,,,,,,,,,,,,,,,,,,,,,,,,,,,,,,,,,,,,,,,,,,,,,,,,,,,,,,,,,,,,,,,,,,,,,,,,,,,,,,,,,,,,,,,,,,,,,,,,,,,,,,,,,,,,,,,,,,,,,,,,,,,,,,,,,,,,,
0,72,72,75,1,,5ec44adb04069732a53a7bee,62bbfb59a3c281fa050a9833,2022-06-29_09h12.33.647,Colour_Asymmetry_Pilot,2022.1.3,Win32,144.092219,62bbe60bf3d75ef465d3e404,,,,,,,,,,,,,,,,,,,,,,,,,,,,,,,,,,,,,,,,,,,,,,,,,,,,,,,,,,,,,,,,,,,,,,,,,,,,,,,,,,,,,,,,,,,,,,,,,,,,,,,,,,,,,,,,,,,,,,,,,,,,,,,,,,,,,,,,,,,,,,,,,,,,,,,,,,,,,,
0,73,73,49,1,,5ec44adb04069732a53a7bee,62bbfb59a3c281fa050a9833,2022-06-29_09h12.33.647,Colour_Asymmetry_Pilot,2022.1.3,Win32,144.092219,62bbe60bf3d75ef465d3e404,,,,,,,,,,,,,,,,,,,,,,,,,,,,,,,,,,,,,,,,,,,,,,,,,,,,,,,,,,,,,,,,,,,,,,,,,,,,,,,,,,,,,,,,,,,,,,,,,,,,,,,,,,,,,,,,,,,,,,,,,,,,,,,,,,,,,,,,,,,,,,,,,,,,,,,,,,,,,,
0,74,74,82,1,,5ec44adb04069732a53a7bee,62bbfb59a3c281fa050a9833,2022-06-29_09h12.33.647,Colour_Asymmetry_Pilot,2022.1.3,Win32,144.092219,62bbe60bf3d75ef465d3e404,,,,,,,,,,,,,,,,,,,,,,,,,,,,,,,,,,,,,,,,,,,,,,,,,,,,,,,,,,,,,,,,,,,,,,,,,,,,,,,,,,,,,,,,,,,,,,,,,,,,,,,,,,,,,,,,,,,,,,,,,,,,,,,,,,,,,,,,,,,,,,,,,,,,,,,,,,,,,,
0,75,75,33,1,,5ec44adb04069732a53a7bee,62bbfb59a3c281fa050a9833,2022-06-29_09h12.33.647,Colour_Asymmetry_Pilot,2022.1.3,Win32,144.092219,62bbe60bf3d75ef465d3e404,,,,,,,,,,,,,,,,,,,,,,,,,,,,,,,,,,,,,,,,,,,,,,,,,,,,,,,,,,,,,,,,,,,,,,,,,,,,,,,,,,,,,,,,,,,,,,,,,,,,,,,,,,,,,,,,,,,,,,,,,,,,,,,,,,,,,,,,,,,,,,,,,,,,,,,,,,,,,,
0,76,76,29,1,,5ec44adb04069732a53a7bee,62bbfb59a3c281fa050a9833,2022-06-29_09h12.33.647,Colour_Asymmetry_Pilot,2022.1.3,Win32,144.092219,62bbe60bf3d75ef465d3e404,,,,,,,,,,,,,,,,,,,,,,,,,,,,,,,,,,,,,,,,,,,,,,,,,,,,,,,,,,,,,,,,,,,,,,,,,,,,,,,,,,,,,,,,,,,,,,,,,,,,,,,,,,,,,,,,,,,,,,,,,,,,,,,,,,,,,,,,,,,,,,,,,,,,,,,,,,,,,,
0,77,77,86,1,,5ec44adb04069732a53a7bee,62bbfb59a3c281fa050a9833,2022-06-29_09h12.33.647,Colour_Asymmetry_Pilot,2022.1.3,Win32,144.092219,62bbe60bf3d75ef465d3e404,,,,,,,,,,,,,,,,,,,,,,,,,,,,,,,,,,,,,,,,,,,,,,,,,,,,,,,,,,,,,,,,,,,,,,,,,,,,,,,,,,,,,,,,,,,,,,,,,,,,,,,,,,,,,,,,,,,,,,,,,,,,,,,,,,,,,,,,,,,,,,,,,,,,,,,,,,,,,,
0,78,78,78,1,,5ec44adb04069732a53a7bee,62bbfb59a3c281fa050a9833,2022-06-29_09h12.33.647,Colour_Asymmetry_Pilot,2022.1.3,Win32,144.092219,62bbe60bf3d75ef465d3e404,,,,,,,,,,,,,,,,,,,,,,,,,,,,,,,,,,,,,,,,,,,,,,,,,,,,,,,,,,,,,,,,,,,,,,,,,,,,,,,,,,,,,,,,,,,,,,,,,,,,,,,,,,,,,,,,,,,,,,,,,,,,,,,,,,,,,,,,,,,,,,,,,,,,,,,,,,,,,,
0,79,79,27,1,,5ec44adb04069732a53a7bee,62bbfb59a3c281fa050a9833,2022-06-29_09h12.33.647,Colour_Asymmetry_Pilot,2022.1.3,Win32,144.092219,62bbe60bf3d75ef465d3e404,,,,,,,,,,,,,,,,,,,,,,,,,,,,,,,,,,,,,,,,,,,,,,,,,,,,,,,,,,,,,,,,,,,,,,,,,,,,,,,,,,,,,,,,,,,,,,,,,,,,,,,,,,,,,,,,,,,,,,,,,,,,,,,,,,,,,,,,,,,,,,,,,,,,,,,,,,,,,,
0,80,80,88,1,,5ec44adb04069732a53a7bee,62bbfb59a3c281fa050a9833,2022-06-29_09h12.33.647,Colour_Asymmetry_Pilot,2022.1.3,Win32,144.092219,62bbe60bf3d75ef465d3e404,,,,,,,,,,,,,,,,,,,,,,,,,,,,,,,,,,,,,,,,,,,,,,,,,,,,,,,,,,,,,,,,,,,,,,,,,,,,,,,,,,,,,,,,,,,,,,,,,,,,,,,,,,,,,,,,,,,,,,,,,,,,,,,,,,,,,,,,,,,,,,,,,,,,,,,,,,,,,,
0,81,81,63,1,,5ec44adb04069732a53a7bee,62bbfb59a3c281fa050a9833,2022-06-29_09h12.33.647,Colour_Asymmetry_Pilot,2022.1.3,Win32,144.092219,62bbe60bf3d75ef465d3e404,,,,,,,,,,,,,,,,,,,,,,,,,,,,,,,,,,,,,,,,,,,,,,,,,,,,,,,,,,,,,,,,,,,,,,,,,,,,,,,,,,,,,,,,,,,,,,,,,,,,,,,,,,,,,,,,,,,,,,,,,,,,,,,,,,,,,,,,,,,,,,,,,,,,,,,,,,,,,,
0,82,82,59,1,,5ec44adb04069732a53a7bee,62bbfb59a3c281fa050a9833,2022-06-29_09h12.33.647,Colour_Asymmetry_Pilot,2022.1.3,Win32,144.092219,62bbe60bf3d75ef465d3e404,,,,,,,,,,,,,,,,,,,,,,,,,,,,,,,,,,,,,,,,,,,,,,,,,,,,,,,,,,,,,,,,,,,,,,,,,,,,,,,,,,,,,,,,,,,,,,,,,,,,,,,,,,,,,,,,,,,,,,,,,,,,,,,,,,,,,,,,,,,,,,,,,,,,,,,,,,,,,,
0,83,83,16,1,,5ec44adb04069732a53a7bee,62bbfb59a3c281fa050a9833,2022-06-29_09h12.33.647,Colour_Asymmetry_Pilot,2022.1.3,Win32,144.092219,62bbe60bf3d75ef465d3e404,,,,,,,,,,,,,,,,,,,,,,,,,,,,,,,,,,,,,,,,,,,,,,,,,,,,,,,,,,,,,,,,,,,,,,,,,,,,,,,,,,,,,,,,,,,,,,,,,,,,,,,,,,,,,,,,,,,,,,,,,,,,,,,,,,,,,,,,,,,,,,,,,,,,,,,,,,,,,,
0,84,84,54,1,,5ec44adb04069732a53a7bee,62bbfb59a3c281fa050a9833,2022-06-29_09h12.33.647,Colour_Asymmetry_Pilot,2022.1.3,Win32,144.092219,62bbe60bf3d75ef465d3e404,,,,,,,,,,,,,,,,,,,,,,,,,,,,,,,,,,,,,,,,,,,,,,,,,,,,,,,,,,,,,,,,,,,,,,,,,,,,,,,,,,,,,,,,,,,,,,,,,,,,,,,,,,,,,,,,,,,,,,,,,,,,,,,,,,,,,,,,,,,,,,,,,,,,,,,,,,,,,,
0,85,85,23,1,,5ec44adb04069732a53a7bee,62bbfb59a3c281fa050a9833,2022-06-29_09h12.33.647,Colour_Asymmetry_Pilot,2022.1.3,Win32,144.092219,62bbe60bf3d75ef465d3e404,,,,,,,,,,,,,,,,,,,,,,,,,,,,,,,,,,,,,,,,,,,,,,,,,,,,,,,,,,,,,,,,,,,,,,,,,,,,,,,,,,,,,,,,,,,,,,,,,,,,,,,,,,,,,,,,,,,,,,,,,,,,,,,,,,,,,,,,,,,,,,,,,,,,,,,,,,,,,,
0,86,86,45,1,,5ec44adb04069732a53a7bee,62bbfb59a3c281fa050a9833,2022-06-29_09h12.33.647,Colour_Asymmetry_Pilot,2022.1.3,Win32,144.092219,62bbe60bf3d75ef465d3e404,,,,,,,,,,,,,,,,,,,,,,,,,,,,,,,,,,,,,,,,,,,,,,,,,,,,,,,,,,,,,,,,,,,,,,,,,,,,,,,,,,,,,,,,,,,,,,,,,,,,,,,,,,,,,,,,,,,,,,,,,,,,,,,,,,,,,,,,,,,,,,,,,,,,,,,,,,,,,,
0,87,87,60,1,,5ec44adb04069732a53a7bee,62bbfb59a3c281fa050a9833,2022-06-29_09h12.33.647,Colour_Asymmetry_Pilot,2022.1.3,Win32,144.092219,62bbe60bf3d75ef465d3e404,,,,,,,,,,,,,,,,,,,,,,,,,,,,,,,,,,,,,,,,,,,,,,,,,,,,,,,,,,,,,,,,,,,,,,,,,,,,,,,,,,,,,,,,,,,,,,,,,,,,,,,,,,,,,,,,,,,,,,,,,,,,,,,,,,,,,,,,,,,,,,,,,,,,,,,,,,,,,,
0,88,88,58,1,,5ec44adb04069732a53a7bee,62bbfb59a3c281fa050a9833,2022-06-29_09h12.33.647,Colour_Asymmetry_Pilot,2022.1.3,Win32,144.092219,62bbe60bf3d75ef465d3e404,,,,,,,,,,,,,,,,,,,,,,,,,,,,,,,,,,,,,,,,,,,,,,,,,,,,,,,,,,,,,,,,,,,,,,,,,,,,,,,,,,,,,,,,,,,,,,,,,,,,,,,,,,,,,,,,,,,,,,,,,,,,,,,,,,,,,,,,,,,,,,,,,,,,,,,,,,,,,,
0,89,89,13,1,,5ec44adb04069732a53a7bee,62bbfb59a3c281fa050a9833,2022-06-29_09h12.33.647,Colour_Asymmetry_Pilot,2022.1.3,Win32,144.092219,62bbe60bf3d75ef465d3e404,,,,,,,,,,,,,,,,,,,,,,,,,,,,,,,,,,,,,,,,,,,,,,,,,,,,,,,,,,,,,,,,,,,,,,,,,,,,,,,,,,,,,,,,,,,,,,,,,,,,,,,,,,,,,,,,,,,,,,,,,,,,,,,,,,,,,,,,,,,,,,,,,,,,,,,,,,,,,,
0,90,90,8,1,,5ec44adb04069732a53a7bee,62bbfb59a3c281fa050a9833,2022-06-29_09h12.33.647,Colour_Asymmetry_Pilot,2022.1.3,Win32,144.092219,62bbe60bf3d75ef465d3e404,,,,,,,,,,,,,,,,,,,,,,,,,,,,,,,,,,,,,,,,,,,,,,,,,,,,,,,,,,,,,,,,,,,,,,,,,,,,,,,,,,,,,,,,,,,,,,,,,,,,,,,,,,,,,,,,,,,,,,,,,,,,,,,,,,,,,,,,,,,,,,,,,,,,,,,,,,,,,,
0,91,91,67,1,,5ec44adb04069732a53a7bee,62bbfb59a3c281fa050a9833,2022-06-29_09h12.33.647,Colour_Asymmetry_Pilot,2022.1.3,Win32,144.092219,62bbe60bf3d75ef465d3e404,,,,,,,,,,,,,,,,,,,,,,,,,,,,,,,,,,,,,,,,,,,,,,,,,,,,,,,,,,,,,,,,,,,,,,,,,,,,,,,,,,,,,,,,,,,,,,,,,,,,,,,,,,,,,,,,,,,,,,,,,,,,,,,,,,,,,,,,,,,,,,,,,,,,,,,,,,,,,,
0,92,92,70,1,,5ec44adb04069732a53a7bee,62bbfb59a3c281fa050a9833,2022-06-29_09h12.33.647,Colour_Asymmetry_Pilot,2022.1.3,Win32,144.092219,62bbe60bf3d75ef465d3e404,,,,,,,,,,,,,,,,,,,,,,,,,,,,,,,,,,,,,,,,,,,,,,,,,,,,,,,,,,,,,,,,,,,,,,,,,,,,,,,,,,,,,,,,,,,,,,,,,,,,,,,,,,,,,,,,,,,,,,,,,,,,,,,,,,,,,,,,,,,,,,,,,,,,,,,,,,,,,,
,,,,,,5ec44adb04069732a53a7bee,62bbfb59a3c281fa050a9833,2022-06-29_09h12.33.647,Colour_Asymmetry_Pilot,2022.1.3,Win32,144.092219,62bbe60bf3d75ef465d3e404,0,0,0,22,1,fourtwo,,,,,,,,,,,,,,,,,,,,,,,,,,,,,,,,,,,,,,,,,,,,,,,,,,,,,,,,,,,,,,,,,,,,,,,,,,,,,,,,,,,,,,,,,,,,,,,,,,,,,,,,,,,,,,,,,,,,,,,,,,,,,,,,,,,,,,,,,,,,,,,,,,,,,,,,
,,,,,,5ec44adb04069732a53a7bee,62bbfb59a3c281fa050a9833,2022-06-29_09h12.33.647,Colour_Asymmetry_Pilot,2022.1.3,Win32,144.092219,62bbe60bf3d75ef465d3e404,0,1,1,127,1,fourthree,,,,,,,,,,,,,,,,,,,,,,,,,,,,,,,,,,,,,,,,,,,,,,,,,,,,,,,,,,,,,,,,,,,,,,,,,,,,,,,,,,,,,,,,,,,,,,,,,,,,,,,,,,,,,,,,,,,,,,,,,,,,,,,,,,,,,,,,,,,,,,,,,,,,,,,,
,,,,,,5ec44adb04069732a53a7bee,62bbfb59a3c281fa050a9833,2022-06-29_09h12.33.647,Colour_Asymmetry_Pilot,2022.1.3,Win32,144.092219,62bbe60bf3d75ef465d3e404,0,2,2,32,1,onetwo,,,,,,,,,,,,,,,,,,,,,,,,,,,,,,,,,,,,,,,,,,,,,,,,,,,,,,,,,,,,,,,,,,,,,,,,,,,,,,,,,,,,,,,,,,,,,,,,,,,,,,,,,,,,,,,,,,,,,,,,,,,,,,,,,,,,,,,,,,,,,,,,,,,,,,,,
,,,,,,5ec44adb04069732a53a7bee,62bbfb59a3c281fa050a9833,2022-06-29_09h12.33.647,Colour_Asymmetry_Pilot,2022.1.3,Win32,144.092219,62bbe60bf3d75ef465d3e404,0,3,3,123,1,twofour,,,,,,,,,,,,,,,,,,,,,,,,,,,,,,,,,,,,,,,,,,,,,,,,,,,,,,,,,,,,,,,,,,,,,,,,,,,,,,,,,,,,,,,,,,,,,,,,,,,,,,,,,,,,,,,,,,,,,,,,,,,,,,,,,,,,,,,,,,,,,,,,,,,,,,,,
,,,,,,5ec44adb04069732a53a7bee,62bbfb59a3c281fa050a9833,2022-06-29_09h12.33.647,Colour_Asymmetry_Pilot,2022.1.3,Win32,144.092219,62bbe60bf3d75ef465d3e404,0,4,4,76,1,threeone,,,,,,,,,,,,,,,,,,,,,,,,,,,,,,,,,,,,,,,,,,,,,,,,,,,,,,,,,,,,,,,,,,,,,,,,,,,,,,,,,,,,,,,,,,,,,,,,,,,,,,,,,,,,,,,,,,,,,,,,,,,,,,,,,,,,,,,,,,,,,,,,,,,,,,,,
,,,,,,5ec44adb04069732a53a7bee,62bbfb59a3c281fa050a9833,2022-06-29_09h12.33.647,Colour_Asymmetry_Pilot,2022.1.3,Win32,144.092219,62bbe60bf3d75ef465d3e404,0,5,5,48,1,onetwo,,,,,,,,,,,,,,,,,,,,,,,,,,,,,,,,,,,,,,,,,,,,,,,,,,,,,,,,,,,,,,,,,,,,,,,,,,,,,,,,,,,,,,,,,,,,,,,,,,,,,,,,,,,,,,,,,,,,,,,,,,,,,,,,,,,,,,,,,,,,,,,,,,,,,,,,
,,,,,,5ec44adb04069732a53a7bee,62bbfb59a3c281fa050a9833,2022-06-29_09h12.33.647,Colour_Asymmetry_Pilot,2022.1.3,Win32,144.092219,62bbe60bf3d75ef465d3e404,0,6,6,147,1,twofour,,,,,,,,,,,,,,,,,,,,,,,,,,,,,,,,,,,,,,,,,,,,,,,,,,,,,,,,,,,,,,,,,,,,,,,,,,,,,,,,,,,,,,,,,,,,,,,,,,,,,,,,,,,,,,,,,,,,,,,,,,,,,,,,,,,,,,,,,,,,,,,,,,,,,,,,
,,,,,,5ec44adb04069732a53a7bee,62bbfb59a3c281fa050a9833,2022-06-29_09h12.33.647,Colour_Asymmetry_Pilot,2022.1.3,Win32,144.092219,62bbe60bf3d75ef465d3e404,0,7,7,36,1,threeone,,,,,,,,,,,,,,,,,,,,,,,,,,,,,,,,,,,,,,,,,,,,,,,,,,,,,,,,,,,,,,,,,,,,,,,,,,,,,,,,,,,,,,,,,,,,,,,,,,,,,,,,,,,,,,,,,,,,,,,,,,,,,,,,,,,,,,,,,,,,,,,,,,,,,,,,
,,,,,,5ec44adb04069732a53a7bee,62bbfb59a3c281fa050a9833,2022-06-29_09h12.33.647,Colour_Asymmetry_Pilot,2022.1.3,Win32,144.092219,62bbe60bf3d75ef465d3e404,0,8,8,96,1,onetwo,,,,,,,,,,,,,,,,,,,,,,,,,,,,,,,,,,,,,,,,,,,,,,,,,,,,,,,,,,,,,,,,,,,,,,,,,,,,,,,,,,,,,,,,,,,,,,,,,,,,,,,,,,,,,,,,,,,,,,,,,,,,,,,,,,,,,,,,,,,,,,,,,,,,,,,,
,,,,,,5ec44adb04069732a53a7bee,62bbfb59a3c281fa050a9833,2022-06-29_09h12.33.647,Colour_Asymmetry_Pilot,2022.1.3,Win32,144.092219,62bbe60bf3d75ef465d3e404,0,9,9,73,1,onethree,,,,,,,,,,,,,,,,,,,,,,,,,,,,,,,,,,,,,,,,,,,,,,,,,,,,,,,,,,,,,,,,,,,,,,,,,,,,,,,,,,,,,,,,,,,,,,,,,,,,,,,,,,,,,,,,,,,,,,,,,,,,,,,,,,,,,,,,,,,,,,,,,,,,,,,,
,,,,,,5ec44adb04069732a53a7bee,62bbfb59a3c281fa050a9833,2022-06-29_09h12.33.647,Colour_Asymmetry_Pilot,2022.1.3,Win32,144.092219,62bbe60bf3d75ef465d3e404,0,10,10,105,1,onethree,,,,,,,,,,,,,,,,,,,,,,,,,,,,,,,,,,,,,,,,,,,,,,,,,,,,,,,,,,,,,,,,,,,,,,,,,,,,,,,,,,,,,,,,,,,,,,,,,,,,,,,,,,,,,,,,,,,,,,,,,,,,,,,,,,,,,,,,,,,,,,,,,,,,,,,,
,,,,,,5ec44adb04069732a53a7bee,62bbfb59a3c281fa050a9833,2022-06-29_09h12.33.647,Colour_Asymmetry_Pilot,2022.1.3,Win32,144.092219,62bbe60bf3d75ef465d3e404,0,11,11,0,1,onetwo,,,,,,,,,,,,,,,,,,,,,,,,,,,,,,,,,,,,,,,,,,,,,,,,,,,,,,,,,,,,,,,,,,,,,,,,,,,,,,,,,,,,,,,,,,,,,,,,,,,,,,,,,,,,,,,,,,,,,,,,,,,,,,,,,,,,,,,,,,,,,,,,,,,,,,,,
,,,,,,5ec44adb04069732a53a7bee,62bbfb59a3c281fa050a9833,2022-06-29_09h12.33.647,Colour_Asymmetry_Pilot,2022.1.3,Win32,144.092219,62bbe60bf3d75ef465d3e404,0,12,12,129,1,onethree,,,,,,,,,,,,,,,,,,,,,,,,,,,,,,,,,,,,,,,,,,,,,,,,,,,,,,,,,,,,,,,,,,,,,,,,,,,,,,,,,,,,,,,,,,,,,,,,,,,,,,,,,,,,,,,,,,,,,,,,,,,,,,,,,,,,,,,,,,,,,,,,,,,,,,,,
,,,,,,5ec44adb04069732a53a7bee,62bbfb59a3c281fa050a9833,2022-06-29_09h12.33.647,Colour_Asymmetry_Pilot,2022.1.3,Win32,144.092219,62bbe60bf3d75ef465d3e404,0,13,13,1,1,onethree,,,,,,,,,,,,,,,,,,,,,,,,,,,,,,,,,,,,,,,,,,,,,,,,,,,,,,,,,,,,,,,,,,,,,,,,,,,,,,,,,,,,,,,,,,,,,,,,,,,,,,,,,,,,,,,,,,,,,,,,,,,,,,,,,,,,,,,,,,,,,,,,,,,,,,,,
,,,,,,5ec44adb04069732a53a7bee,62bbfb59a3c281fa050a9833,2022-06-29_09h12.33.647,Colour_Asymmetry_Pilot,2022.1.3,Win32,144.092219,62bbe60bf3d75ef465d3e404,0,14,14,54,1,fourtwo,,,,,,,,,,,,,,,,,,,,,,,,,,,,,,,,,,,,,,,,,,,,,,,,,,,,,,,,,,,,,,,,,,,,,,,,,,,,,,,,,,,,,,,,,,,,,,,,,,,,,,,,,,,,,,,,,,,,,,,,,,,,,,,,,,,,,,,,,,,,,,,,,,,,,,,,
,,,,,,5ec44adb04069732a53a7bee,62bbfb59a3c281fa050a9833,2022-06-29_09h12.33.647,Colour_Asymmetry_Pilot,2022.1.3,Win32,144.092219,62bbe60bf3d75ef465d3e404,0,15,15,99,1,twofour,,,,,,,,,,,,,,,,,,,,,,,,,,,,,,,,,,,,,,,,,,,,,,,,,,,,,,,,,,,,,,,,,,,,,,,,,,,,,,,,,,,,,,,,,,,,,,,,,,,,,,,,,,,,,,,,,,,,,,,,,,,,,,,,,,,,,,,,,,,,,,,,,,,,,,,,
,,,,,,5ec44adb04069732a53a7bee,62bbfb59a3c281fa050a9833,2022-06-29_09h12.33.647,Colour_Asymmetry_Pilot,2022.1.3,Win32,144.092219,62bbe60bf3d75ef465d3e404,0,16,16,126,1,fourtwo,,,,,,,,,,,,,,,,,,,,,,,,,,,,,,,,,,,,,,,,,,,,,,,,,,,,,,,,,,,,,,,,,,,,,,,,,,,,,,,,,,,,,,,,,,,,,,,,,,,,,,,,,,,,,,,,,,,,,,,,,,,,,,,,,,,,,,,,,,,,,,,,,,,,,,,,
,,,,,,5ec44adb04069732a53a7bee,62bbfb59a3c281fa050a9833,2022-06-29_09h12.33.647,Colour_Asymmetry_Pilot,2022.1.3,Win32,144.092219,62bbe60bf3d75ef465d3e404,0,17,17,88,1,onetwo,,,,,,,,,,,,,,,,,,,,,,,,,,,,,,,,,,,,,,,,,,,,,,,,,,,,,,,,,,,,,,,,,,,,,,,,,,,,,,,,,,,,,,,,,,,,,,,,,,,,,,,,,,,,,,,,,,,,,,,,,,,,,,,,,,,,,,,,,,,,,,,,,,,,,,,,
,,,,,,5ec44adb04069732a53a7bee,62bbfb59a3c281fa050a9833,2022-06-29_09h12.33.647,Colour_Asymmetry_Pilot,2022.1.3,Win32,144.092219,62bbe60bf3d75ef465d3e404,0,18,18,106,1,twoone,,,,,,,,,,,,,,,,,,,,,,,,,,,,,,,,,,,,,,,,,,,,,,,,,,,,,,,,,,,,,,,,,,,,,,,,,,,,,,,,,,,,,,,,,,,,,,,,,,,,,,,,,,,,,,,,,,,,,,,,,,,,,,,,,,,,,,,,,,,,,,,,,,,,,,,,
,,,,,,5ec44adb04069732a53a7bee,62bbfb59a3c281fa050a9833,2022-06-29_09h12.33.647,Colour_Asymmetry_Pilot,2022.1.3,Win32,144.092219,62bbe60bf3d75ef465d3e404,0,19,19,39,1,fourthree,,,,,,,,,,,,,,,,,,,,,,,,,,,,,,,,,,,,,,,,,,,,,,,,,,,,,,,,,,,,,,,,,,,,,,,,,,,,,,,,,,,,,,,,,,,,,,,,,,,,,,,,,,,,,,,,,,,,,,,,,,,,,,,,,,,,,,,,,,,,,,,,,,,,,,,,
,,,,,,5ec44adb04069732a53a7bee,62bbfb59a3c281fa050a9833,2022-06-29_09h12.33.647,Colour_Asymmetry_Pilot,2022.1.3,Win32,144.092219,62bbe60bf3d75ef465d3e404,0,20,20,136,1,onetwo,,,,,,,,,,,,,,,,,,,,,,,,,,,,,,,,,,,,,,,,,,,,,,,,,,,,,,,,,,,,,,,,,,,,,,,,,,,,,,,,,,,,,,,,,,,,,,,,,,,,,,,,,,,,,,,,,,,,,,,,,,,,,,,,,,,,,,,,,,,,,,,,,,,,,,,,
,,,,,,5ec44adb04069732a53a7bee,62bbfb59a3c281fa050a9833,2022-06-29_09h12.33.647,Colour_Asymmetry_Pilot,2022.1.3,Win32,144.092219,62bbe60bf3d75ef465d3e404,0,21,21,135,1,fourthree,,,,,,,,,,,,,,,,,,,,,,,,,,,,,,,,,,,,,,,,,,,,,,,,,,,,,,,,,,,,,,,,,,,,,,,,,,,,,,,,,,,,,,,,,,,,,,,,,,,,,,,,,,,,,,,,,,,,,,,,,,,,,,,,,,,,,,,,,,,,,,,,,,,,,,,,
,,,,,,5ec44adb04069732a53a7bee,62bbfb59a3c281fa050a9833,2022-06-29_09h12.33.647,Colour_Asymmetry_Pilot,2022.1.3,Win32,144.092219,62bbe60bf3d75ef465d3e404,0,22,22,41,1,onethree,,,,,,,,,,,,,,,,,,,,,,,,,,,,,,,,,,,,,,,,,,,,,,,,,,,,,,,,,,,,,,,,,,,,,,,,,,,,,,,,,,,,,,,,,,,,,,,,,,,,,,,,,,,,,,,,,,,,,,,,,,,,,,,,,,,,,,,,,,,,,,,,,,,,,,,,
,,,,,,5ec44adb04069732a53a7bee,62bbfb59a3c281fa050a9833,2022-06-29_09h12.33.647,Colour_Asymmetry_Pilot,2022.1.3,Win32,144.092219,62bbe60bf3d75ef465d3e404,0,23,23,109,1,threefour,,,,,,,,,,,,,,,,,,,,,,,,,,,,,,,,,,,,,,,,,,,,,,,,,,,,,,,,,,,,,,,,,,,,,,,,,,,,,,,,,,,,,,,,,,,,,,,,,,,,,,,,,,,,,,,,,,,,,,,,,,,,,,,,,,,,,,,,,,,,,,,,,,,,,,,,
,,,,,,5ec44adb04069732a53a7bee,62bbfb59a3c281fa050a9833,2022-06-29_09h12.33.647,Colour_Asymmetry_Pilot,2022.1.3,Win32,144.092219,62bbe60bf3d75ef465d3e404,0,24,24,121,1,onethree,,,,,,,,,,,,,,,,,,,,,,,,,,,,,,,,,,,,,,,,,,,,,,,,,,,,,,,,,,,,,,,,,,,,,,,,,,,,,,,,,,,,,,,,,,,,,,,,,,,,,,,,,,,,,,,,,,,,,,,,,,,,,,,,,,,,,,,,,,,,,,,,,,,,,,,,
,,,,,,5ec44adb04069732a53a7bee,62bbfb59a3c281fa050a9833,2022-06-29_09h12.33.647,Colour_Asymmetry_Pilot,2022.1.3,Win32,144.092219,62bbe60bf3d75ef465d3e404,0,25,25,61,1,threefour,,,,,,,,,,,,,,,,,,,,,,,,,,,,,,,,,,,,,,,,,,,,,,,,,,,,,,,,,,,,,,,,,,,,,,,,,,,,,,,,,,,,,,,,,,,,,,,,,,,,,,,,,,,,,,,,,,,,,,,,,,,,,,,,,,,,,,,,,,,,,,,,,,,,,,,,
,,,,,,5ec44adb04069732a53a7bee,62bbfb59a3c281fa050a9833,2022-06-29_09h12.33.647,Colour_Asymmetry_Pilot,2022.1.3,Win32,144.092219,62bbe60bf3d75ef465d3e404,0,26,26,56,1,onetwo,,,,,,,,,,,,,,,,,,,,,,,,,,,,,,,,,,,,,,,,,,,,,,,,,,,,,,,,,,,,,,,,,,,,,,,,,,,,,,,,,,,,,,,,,,,,,,,,,,,,,,,,,,,,,,,,,,,,,,,,,,,,,,,,,,,,,,,,,,,,,,,,,,,,,,,,
,,,,,,5ec44adb04069732a53a7bee,62bbfb59a3c281fa050a9833,2022-06-29_09h12.33.647,Colour_Asymmetry_Pilot,2022.1.3,Win32,144.092219,62bbe60bf3d75ef465d3e404,0,27,27,66,1,twoone,,,,,,,,,,,,,,,,,,,,,,,,,,,,,,,,,,,,,,,,,,,,,,,,,,,,,,,,,,,,,,,,,,,,,,,,,,,,,,,,,,,,,,,,,,,,,,,,,,,,,,,,,,,,,,,,,,,,,,,,,,,,,,,,,,,,,,,,,,,,,,,,,,,,,,,,
,,,,,,5ec44adb04069732a53a7bee,62bbfb59a3c281fa050a9833,2022-06-29_09h12.33.647,Colour_Asymmetry_Pilot,2022.1.3,Win32,144.092219,62bbe60bf3d75ef465d3e404,0,28,28,31,1,fourthree,,,,,,,,,,,,,,,,,,,,,,,,,,,,,,,,,,,,,,,,,,,,,,,,,,,,,,,,,,,,,,,,,,,,,,,,,,,,,,,,,,,,,,,,,,,,,,,,,,,,,,,,,,,,,,,,,,,,,,,,,,,,,,,,,,,,,,,,,,,,,,,,,,,,,,,,
,,,,,,5ec44adb04069732a53a7bee,62bbfb59a3c281fa050a9833,2022-06-29_09h12.33.647,Colour_Asymmetry_Pilot,2022.1.3,Win32,144.092219,62bbe60bf3d75ef465d3e404,0,29,29,4,1,threeone,,,,,,,,,,,,,,,,,,,,,,,,,,,,,,,,,,,,,,,,,,,,,,,,,,,,,,,,,,,,,,,,,,,,,,,,,,,,,,,,,,,,,,,,,,,,,,,,,,,,,,,,,,,,,,,,,,,,,,,,,,,,,,,,,,,,,,,,,,,,,,,,,,,,,,,,
,,,,,,5ec44adb04069732a53a7bee,62bbfb59a3c281fa050a9833,2022-06-29_09h12.33.647,Colour_Asymmetry_Pilot,2022.1.3,Win32,144.092219,62bbe60bf3d75ef465d3e404,0,30,30,144,1,onetwo,,,,,,,,,,,,,,,,,,,,,,,,,,,,,,,,,,,,,,,,,,,,,,,,,,,,,,,,,,,,,,,,,,,,,,,,,,,,,,,,,,,,,,,,,,,,,,,,,,,,,,,,,,,,,,,,,,,,,,,,,,,,,,,,,,,,,,,,,,,,,,,,,,,,,,,,
,,,,,,5ec44adb04069732a53a7bee,62bbfb59a3c281fa050a9833,2022-06-29_09h12.33.647,Colour_Asymmetry_Pilot,2022.1.3,Win32,144.092219,62bbe60bf3d75ef465d3e404,0,31,31,92,1,threeone,,,,,,,,,,,,,,,,,,,,,,,,,,,,,,,,,,,,,,,,,,,,,,,,,,,,,,,,,,,,,,,,,,,,,,,,,,,,,,,,,,,,,,,,,,,,,,,,,,,,,,,,,,,,,,,,,,,,,,,,,,,,,,,,,,,,,,,,,,,,,,,,,,,,,,,,
,,,,,,5ec44adb04069732a53a7bee,62bbfb59a3c281fa050a9833,2022-06-29_09h12.33.647,Colour_Asymmetry_Pilot,2022.1.3,Win32,144.092219,62bbe60bf3d75ef465d3e404,0,32,32,124,1,threeone,,,,,,,,,,,,,,,,,,,,,,,,,,,,,,,,,,,,,,,,,,,,,,,,,,,,,,,,,,,,,,,,,,,,,,,,,,,,,,,,,,,,,,,,,,,,,,,,,,,,,,,,,,,,,,,,,,,,,,,,,,,,,,,,,,,,,,,,,,,,,,,,,,,,,,,,
,,,,,,5ec44adb04069732a53a7bee,62bbfb59a3c281fa050a9833,2022-06-29_09h12.33.647,Colour_Asymmetry_Pilot,2022.1.3,Win32,144.092219,62bbe60bf3d75ef465d3e404,0,33,33,15,1,fourthree,,,,,,,,,,,,,,,,,,,,,,,,,,,,,,,,,,,,,,,,,,,,,,,,,,,,,,,,,,,,,,,,,,,,,,,,,,,,,,,,,,,,,,,,,,,,,,,,,,,,,,,,,,,,,,,,,,,,,,,,,,,,,,,,,,,,,,,,,,,,,,,,,,,,,,,,
,,,,,,5ec44adb04069732a53a7bee,62bbfb59a3c281fa050a9833,2022-06-29_09h12.33.647,Colour_Asymmetry_Pilot,2022.1.3,Win32,144.092219,62bbe60bf3d75ef465d3e404,0,34,34,128,1,onetwo,,,,,,,,,,,,,,,,,,,,,,,,,,,,,,,,,,,,,,,,,,,,,,,,,,,,,,,,,,,,,,,,,,,,,,,,,,,,,,,,,,,,,,,,,,,,,,,,,,,,,,,,,,,,,,,,,,,,,,,,,,,,,,,,,,,,,,,,,,,,,,,,,,,,,,,,
,,,,,,5ec44adb04069732a53a7bee,62bbfb59a3c281fa050a9833,2022-06-29_09h12.33.647,Colour_Asymmetry_Pilot,2022.1.3,Win32,144.092219,62bbe60bf3d75ef465d3e404,0,35,35,143,1,fourthree,,,,,,,,,,,,,,,,,,,,,,,,,,,,,,,,,,,,,,,,,,,,,,,,,,,,,,,,,,,,,,,,,,,,,,,,,,,,,,,,,,,,,,,,,,,,,,,,,,,,,,,,,,,,,,,,,,,,,,,,,,,,,,,,,,,,,,,,,,,,,,,,,,,,,,,,
,,,,,,5ec44adb04069732a53a7bee,62bbfb59a3c281fa050a9833,2022-06-29_09h12.33.647,Colour_Asymmetry_Pilot,2022.1.3,Win32,144.092219,62bbe60bf3d75ef465d3e404,0,36,36,94,1,fourtwo,,,,,,,,,,,,,,,,,,,,,,,,,,,,,,,,,,,,,,,,,,,,,,,,,,,,,,,,,,,,,,,,,,,,,,,,,,,,,,,,,,,,,,,,,,,,,,,,,,,,,,,,,,,,,,,,,,,,,,,,,,,,,,,,,,,,,,,,,,,,,,,,,,,,,,,,
,,,,,,5ec44adb04069732a53a7bee,62bbfb59a3c281fa050a9833,2022-06-29_09h12.33.647,Colour_Asymmetry_Pilot,2022.1.3,Win32,144.092219,62bbe60bf3d75ef465d3e404,0,37,37,65,1,onethree,,,,,,,,,,,,,,,,,,,,,,,,,,,,,,,,,,,,,,,,,,,,,,,,,,,,,,,,,,,,,,,,,,,,,,,,,,,,,,,,,,,,,,,,,,,,,,,,,,,,,,,,,,,,,,,,,,,,,,,,,,,,,,,,,,,,,,,,,,,,,,,,,,,,,,,,
,,,,,,5ec44adb04069732a53a7bee,62bbfb59a3c281fa050a9833,2022-06-29_09h12.33.647,Colour_Asymmetry_Pilot,2022.1.3,Win32,144.092219,62bbe60bf3d75ef465d3e404,0,38,38,34,1,twoone,,,,,,,,,,,,,,,,,,,,,,,,,,,,,,,,,,,,,,,,,,,,,,,,,,,,,,,,,,,,,,,,,,,,,,,,,,,,,,,,,,,,,,,,,,,,,,,,,,,,,,,,,,,,,,,,,,,,,,,,,,,,,,,,,,,,,,,,,,,,,,,,,,,,,,,,
,,,,,,5ec44adb04069732a53a7bee,62bbfb59a3c281fa050a9833,2022-06-29_09h12.33.647,Colour_Asymmetry_Pilot,2022.1.3,Win32,144.092219,62bbe60bf3d75ef465d3e404,0,39,39,69,1,threefour,,,,,,,,,,,,,,,,,,,,,,,,,,,,,,,,,,,,,,,,,,,,,,,,,,,,,,,,,,,,,,,,,,,,,,,,,,,,,,,,,,,,,,,,,,,,,,,,,,,,,,,,,,,,,,,,,,,,,,,,,,,,,,,,,,,,,,,,,,,,,,,,,,,,,,,,
,,,,,,5ec44adb04069732a53a7bee,62bbfb59a3c281fa050a9833,2022-06-29_09h12.33.647,Colour_Asymmetry_Pilot,2022.1.3,Win32,144.092219,62bbe60bf3d75ef465d3e404,0,40,40,40,1,onetwo,,,,,,,,,,,,,,,,,,,,,,,,,,,,,,,,,,,,,,,,,,,,,,,,,,,,,,,,,,,,,,,,,,,,,,,,,,,,,,,,,,,,,,,,,,,,,,,,,,,,,,,,,,,,,,,,,,,,,,,,,,,,,,,,,,,,,,,,,,,,,,,,,,,,,,,,
,,,,,,5ec44adb04069732a53a7bee,62bbfb59a3c281fa050a9833,2022-06-29_09h12.33.647,Colour_Asymmetry_Pilot,2022.1.3,Win32,144.092219,62bbe60bf3d75ef465d3e404,0,41,41,119,1,fourthree,,,,,,,,,,,,,,,,,,,,,,,,,,,,,,,,,,,,,,,,,,,,,,,,,,,,,,,,,,,,,,,,,,,,,,,,,,,,,,,,,,,,,,,,,,,,,,,,,,,,,,,,,,,,,,,,,,,,,,,,,,,,,,,,,,,,,,,,,,,,,,,,,,,,,,,,
,,,,,,5ec44adb04069732a53a7bee,62bbfb59a3c281fa050a9833,2022-06-29_09h12.33.647,Colour_Asymmetry_Pilot,2022.1.3,Win32,144.092219,62bbe60bf3d75ef465d3e404,0,42,42,53,1,threefour,,,,,,,,,,,,,,,,,,,,,,,,,,,,,,,,,,,,,,,,,,,,,,,,,,,,,,,,,,,,,,,,,,,,,,,,,,,,,,,,,,,,,,,,,,,,,,,,,,,,,,,,,,,,,,,,,,,,,,,,,,,,,,,,,,,,,,,,,,,,,,,,,,,,,,,,
,,,,,,5ec44adb04069732a53a7bee,62bbfb59a3c281fa050a9833,2022-06-29_09h12.33.647,Colour_Asymmetry_Pilot,2022.1.3,Win32,144.092219,62bbe60bf3d75ef465d3e404,0,43,43,5,1,threefour,,,,,,,,,,,,,,,,,,,,,,,,,,,,,,,,,,,,,,,,,,,,,,,,,,,,,,,,,,,,,,,,,,,,,,,,,,,,,,,,,,,,,,,,,,,,,,,,,,,,,,,,,,,,,,,,,,,,,,,,,,,,,,,,,,,,,,,,,,,,,,,,,,,,,,,,
,,,,,,5ec44adb04069732a53a7bee,62bbfb59a3c281fa050a9833,2022-06-29_09h12.33.647,Colour_Asymmetry_Pilot,2022.1.3,Win32,144.092219,62bbe60bf3d75ef465d3e404,0,44,44,28,1,threeone,,,,,,,,,,,,,,,,,,,,,,,,,,,,,,,,,,,,,,,,,,,,,,,,,,,,,,,,,,,,,,,,,,,,,,,,,,,,,,,,,,,,,,,,,,,,,,,,,,,,,,,,,,,,,,,,,,,,,,,,,,,,,,,,,,,,,,,,,,,,,,,,,,,,,,,,
,,,,,,5ec44adb04069732a53a7bee,62bbfb59a3c281fa050a9833,2022-06-29_09h12.33.647,Colour_Asymmetry_Pilot,2022.1.3,Win32,144.092219,62bbe60bf3d75ef465d3e404,0,45,45,2,1,twoone,,,,,,,,,,,,,,,,,,,,,,,,,,,,,,,,,,,,,,,,,,,,,,,,,,,,,,,,,,,,,,,,,,,,,,,,,,,,,,,,,,,,,,,,,,,,,,,,,,,,,,,,,,,,,,,,,,,,,,,,,,,,,,,,,,,,,,,,,,,,,,,,,,,,,,,,
,,,,,,5ec44adb04069732a53a7bee,62bbfb59a3c281fa050a9833,2022-06-29_09h12.33.647,Colour_Asymmetry_Pilot,2022.1.3,Win32,144.092219,62bbe60bf3d75ef465d3e404,0,46,46,37,1,threefour,,,,,,,,,,,,,,,,,,,,,,,,,,,,,,,,,,,,,,,,,,,,,,,,,,,,,,,,,,,,,,,,,,,,,,,,,,,,,,,,,,,,,,,,,,,,,,,,,,,,,,,,,,,,,,,,,,,,,,,,,,,,,,,,,,,,,,,,,,,,,,,,,,,,,,,,
,,,,,,5ec44adb04069732a53a7bee,62bbfb59a3c281fa050a9833,2022-06-29_09h12.33.647,Colour_Asymmetry_Pilot,2022.1.3,Win32,144.092219,62bbe60bf3d75ef465d3e404,0,47,47,14,1,fourtwo,,,,,,,,,,,,,,,,,,,,,,,,,,,,,,,,,,,,,,,,,,,,,,,,,,,,,,,,,,,,,,,,,,,,,,,,,,,,,,,,,,,,,,,,,,,,,,,,,,,,,,,,,,,,,,,,,,,,,,,,,,,,,,,,,,,,,,,,,,,,,,,,,,,,,,,,
,,,,,,5ec44adb04069732a53a7bee,62bbfb59a3c281fa050a9833,2022-06-29_09h12.33.647,Colour_Asymmetry_Pilot,2022.1.3,Win32,144.092219,62bbe60bf3d75ef465d3e404,0,48,48,112,1,onetwo,,,,,,,,,,,,,,,,,,,,,,,,,,,,,,,,,,,,,,,,,,,,,,,,,,,,,,,,,,,,,,,,,,,,,,,,,,,,,,,,,,,,,,,,,,,,,,,,,,,,,,,,,,,,,,,,,,,,,,,,,,,,,,,,,,,,,,,,,,,,,,,,,,,,,,,,
,,,,,,5ec44adb04069732a53a7bee,62bbfb59a3c281fa050a9833,2022-06-29_09h12.33.647,Colour_Asymmetry_Pilot,2022.1.3,Win32,144.092219,62bbe60bf3d75ef465d3e404,0,49,49,139,1,twofour,,,,,,,,,,,,,,,,,,,,,,,,,,,,,,,,,,,,,,,,,,,,,,,,,,,,,,,,,,,,,,,,,,,,,,,,,,,,,,,,,,,,,,,,,,,,,,,,,,,,,,,,,,,,,,,,,,,,,,,,,,,,,,,,,,,,,,,,,,,,,,,,,,,,,,,,
,,,,,,5ec44adb04069732a53a7bee,62bbfb59a3c281fa050a9833,2022-06-29_09h12.33.647,Colour_Asymmetry_Pilot,2022.1.3,Win32,144.092219,62bbe60bf3d75ef465d3e404,0,50,50,103,1,fourthree,,,,,,,,,,,,,,,,,,,,,,,,,,,,,,,,,,,,,,,,,,,,,,,,,,,,,,,,,,,,,,,,,,,,,,,,,,,,,,,,,,,,,,,,,,,,,,,,,,,,,,,,,,,,,,,,,,,,,,,,,,,,,,,,,,,,,,,,,,,,,,,,,,,,,,,,
,,,,,,5ec44adb04069732a53a7bee,62bbfb59a3c281fa050a9833,2022-06-29_09h12.33.647,Colour_Asymmetry_Pilot,2022.1.3,Win32,144.092219,62bbe60bf3d75ef465d3e404,0,51,51,13,1,threefour,,,,,,,,,,,,,,,,,,,,,,,,,,,,,,,,,,,,,,,,,,,,,,,,,,,,,,,,,,,,,,,,,,,,,,,,,,,,,,,,,,,,,,,,,,,,,,,,,,,,,,,,,,,,,,,,,,,,,,,,,,,,,,,,,,,,,,,,,,,,,,,,,,,,,,,,
,,,,,,5ec44adb04069732a53a7bee,62bbfb59a3c281fa050a9833,2022-06-29_09h12.33.647,Colour_Asymmetry_Pilot,2022.1.3,Win32,144.092219,62bbe60bf3d75ef465d3e404,0,52,52,57,1,onethree,,,,,,,,,,,,,,,,,,,,,,,,,,,,,,,,,,,,,,,,,,,,,,,,,,,,,,,,,,,,,,,,,,,,,,,,,,,,,,,,,,,,,,,,,,,,,,,,,,,,,,,,,,,,,,,,,,,,,,,,,,,,,,,,,,,,,,,,,,,,,,,,,,,,,,,,
,,,,,,5ec44adb04069732a53a7bee,62bbfb59a3c281fa050a9833,2022-06-29_09h12.33.647,Colour_Asymmetry_Pilot,2022.1.3,Win32,144.092219,62bbe60bf3d75ef465d3e404,0,53,53,47,1,fourthree,,,,,,,,,,,,,,,,,,,,,,,,,,,,,,,,,,,,,,,,,,,,,,,,,,,,,,,,,,,,,,,,,,,,,,,,,,,,,,,,,,,,,,,,,,,,,,,,,,,,,,,,,,,,,,,,,,,,,,,,,,,,,,,,,,,,,,,,,,,,,,,,,,,,,,,,
,,,,,,5ec44adb04069732a53a7bee,62bbfb59a3c281fa050a9833,2022-06-29_09h12.33.647,Colour_Asymmetry_Pilot,2022.1.3,Win32,144.092219,62bbe60bf3d75ef465d3e404,0,54,54,156,1,threeone,,,,,,,,,,,,,,,,,,,,,,,,,,,,,,,,,,,,,,,,,,,,,,,,,,,,,,,,,,,,,,,,,,,,,,,,,,,,,,,,,,,,,,,,,,,,,,,,,,,,,,,,,,,,,,,,,,,,,,,,,,,,,,,,,,,,,,,,,,,,,,,,,,,,,,,,
,,,,,,5ec44adb04069732a53a7bee,62bbfb59a3c281fa050a9833,2022-06-29_09h12.33.647,Colour_Asymmetry_Pilot,2022.1.3,Win32,144.092219,62bbe60bf3d75ef465d3e404,0,55,55,154,1,twoone,,,,,,,,,,,,,,,,,,,,,,,,,,,,,,,,,,,,,,,,,,,,,,,,,,,,,,,,,,,,,,,,,,,,,,,,,,,,,,,,,,,,,,,,,,,,,,,,,,,,,,,,,,,,,,,,,,,,,,,,,,,,,,,,,,,,,,,,,,,,,,,,,,,,,,,,
,,,,,,5ec44adb04069732a53a7bee,62bbfb59a3c281fa050a9833,2022-06-29_09h12.33.647,Colour_Asymmetry_Pilot,2022.1.3,Win32,144.092219,62bbe60bf3d75ef465d3e404,0,56,56,52,1,threeone,,,,,,,,,,,,,,,,,,,,,,,,,,,,,,,,,,,,,,,,,,,,,,,,,,,,,,,,,,,,,,,,,,,,,,,,,,,,,,,,,,,,,,,,,,,,,,,,,,,,,,,,,,,,,,,,,,,,,,,,,,,,,,,,,,,,,,,,,,,,,,,,,,,,,,,,
,,,,,,5ec44adb04069732a53a7bee,62bbfb59a3c281fa050a9833,2022-06-29_09h12.33.647,Colour_Asymmetry_Pilot,2022.1.3,Win32,144.092219,62bbe60bf3d75ef465d3e404,0,57,57,6,1,fourtwo,,,,,,,,,,,,,,,,,,,,,,,,,,,,,,,,,,,,,,,,,,,,,,,,,,,,,,,,,,,,,,,,,,,,,,,,,,,,,,,,,,,,,,,,,,,,,,,,,,,,,,,,,,,,,,,,,,,,,,,,,,,,,,,,,,,,,,,,,,,,,,,,,,,,,,,,
,,,,,,5ec44adb04069732a53a7bee,62bbfb59a3c281fa050a9833,2022-06-29_09h12.33.647,Colour_Asymmetry_Pilot,2022.1.3,Win32,144.092219,62bbe60bf3d75ef465d3e404,0,58,58,23,1,fourthree,,,,,,,,,,,,,,,,,,,,,,,,,,,,,,,,,,,,,,,,,,,,,,,,,,,,,,,,,,,,,,,,,,,,,,,,,,,,,,,,,,,,,,,,,,,,,,,,,,,,,,,,,,,,,,,,,,,,,,,,,,,,,,,,,,,,,,,,,,,,,,,,,,,,,,,,
,,,,,,5ec44adb04069732a53a7bee,62bbfb59a3c281fa050a9833,2022-06-29_09h12.33.647,Colour_Asymmetry_Pilot,2022.1.3,Win32,144.092219,62bbe60bf3d75ef465d3e404,0,59,59,110,1,fourtwo,,,,,,,,,,,,,,,,,,,,,,,,,,,,,,,,,,,,,,,,,,,,,,,,,,,,,,,,,,,,,,,,,,,,,,,,,,,,,,,,,,,,,,,,,,,,,,,,,,,,,,,,,,,,,,,,,,,,,,,,,,,,,,,,,,,,,,,,,,,,,,,,,,,,,,,,
,,,,,,5ec44adb04069732a53a7bee,62bbfb59a3c281fa050a9833,2022-06-29_09h12.33.647,Colour_Asymmetry_Pilot,2022.1.3,Win32,144.092219,62bbe60bf3d75ef465d3e404,0,60,60,26,1,twoone,,,,,,,,,,,,,,,,,,,,,,,,,,,,,,,,,,,,,,,,,,,,,,,,,,,,,,,,,,,,,,,,,,,,,,,,,,,,,,,,,,,,,,,,,,,,,,,,,,,,,,,,,,,,,,,,,,,,,,,,,,,,,,,,,,,,,,,,,,,,,,,,,,,,,,,,
,,,,,,5ec44adb04069732a53a7bee,62bbfb59a3c281fa050a9833,2022-06-29_09h12.33.647,Colour_Asymmetry_Pilot,2022.1.3,Win32,144.092219,62bbe60bf3d75ef465d3e404,0,61,61,111,1,fourthree,,,,,,,,,,,,,,,,,,,,,,,,,,,,,,,,,,,,,,,,,,,,,,,,,,,,,,,,,,,,,,,,,,,,,,,,,,,,,,,,,,,,,,,,,,,,,,,,,,,,,,,,,,,,,,,,,,,,,,,,,,,,,,,,,,,,,,,,,,,,,,,,,,,,,,,,
,,,,,,5ec44adb04069732a53a7bee,62bbfb59a3c281fa050a9833,2022-06-29_09h12.33.647,Colour_Asymmetry_Pilot,2022.1.3,Win32,144.092219,62bbe60bf3d75ef465d3e404,0,62,62,145,1,onethree,,,,,,,,,,,,,,,,,,,,,,,,,,,,,,,,,,,,,,,,,,,,,,,,,,,,,,,,,,,,,,,,,,,,,,,,,,,,,,,,,,,,,,,,,,,,,,,,,,,,,,,,,,,,,,,,,,,,,,,,,,,,,,,,,,,,,,,,,,,,,,,,,,,,,,,,
,,,,,,5ec44adb04069732a53a7bee,62bbfb59a3c281fa050a9833,2022-06-29_09h12.33.647,Colour_Asymmetry_Pilot,2022.1.3,Win32,144.092219,62bbe60bf3d75ef465d3e404,0,63,63,101,1,threefour,,,,,,,,,,,,,,,,,,,,,,,,,,,,,,,,,,,,,,,,,,,,,,,,,,,,,,,,,,,,,,,,,,,,,,,,,,,,,,,,,,,,,,,,,,,,,,,,,,,,,,,,,,,,,,,,,,,,,,,,,,,,,,,,,,,,,,,,,,,,,,,,,,,,,,,,
,,,,,,5ec44adb04069732a53a7bee,62bbfb59a3c281fa050a9833,2022-06-29_09h12.33.647,Colour_Asymmetry_Pilot,2022.1.3,Win32,144.092219,62bbe60bf3d75ef465d3e404,0,64,64,141,1,threefour,,,,,,,,,,,,,,,,,,,,,,,,,,,,,,,,,,,,,,,,,,,,,,,,,,,,,,,,,,,,,,,,,,,,,,,,,,,,,,,,,,,,,,,,,,,,,,,,,,,,,,,,,,,,,,,,,,,,,,,,,,,,,,,,,,,,,,,,,,,,,,,,,,,,,,,,
,,,,,,5ec44adb04069732a53a7bee,62bbfb59a3c281fa050a9833,2022-06-29_09h12.33.647,Colour_Asymmetry_Pilot,2022.1.3,Win32,144.092219,62bbe60bf3d75ef465d3e404,0,65,65,104,1,onetwo,,,,,,,,,,,,,,,,,,,,,,,,,,,,,,,,,,,,,,,,,,,,,,,,,,,,,,,,,,,,,,,,,,,,,,,,,,,,,,,,,,,,,,,,,,,,,,,,,,,,,,,,,,,,,,,,,,,,,,,,,,,,,,,,,,,,,,,,,,,,,,,,,,,,,,,,
,,,,,,5ec44adb04069732a53a7bee,62bbfb59a3c281fa050a9833,2022-06-29_09h12.33.647,Colour_Asymmetry_Pilot,2022.1.3,Win32,144.092219,62bbe60bf3d75ef465d3e404,0,66,66,157,1,threefour,,,,,,,,,,,,,,,,,,,,,,,,,,,,,,,,,,,,,,,,,,,,,,,,,,,,,,,,,,,,,,,,,,,,,,,,,,,,,,,,,,,,,,,,,,,,,,,,,,,,,,,,,,,,,,,,,,,,,,,,,,,,,,,,,,,,,,,,,,,,,,,,,,,,,,,,
,,,,,,5ec44adb04069732a53a7bee,62bbfb59a3c281fa050a9833,2022-06-29_09h12.33.647,Colour_Asymmetry_Pilot,2022.1.3,Win32,144.092219,62bbe60bf3d75ef465d3e404,0,67,67,11,1,twofour,,,,,,,,,,,,,,,,,,,,,,,,,,,,,,,,,,,,,,,,,,,,,,,,,,,,,,,,,,,,,,,,,,,,,,,,,,,,,,,,,,,,,,,,,,,,,,,,,,,,,,,,,,,,,,,,,,,,,,,,,,,,,,,,,,,,,,,,,,,,,,,,,,,,,,,,
,,,,,,5ec44adb04069732a53a7bee,62bbfb59a3c281fa050a9833,2022-06-29_09h12.33.647,Colour_Asymmetry_Pilot,2022.1.3,Win32,144.092219,62bbe60bf3d75ef465d3e404,0,68,68,125,1,threefour,,,,,,,,,,,,,,,,,,,,,,,,,,,,,,,,,,,,,,,,,,,,,,,,,,,,,,,,,,,,,,,,,,,,,,,,,,,,,,,,,,,,,,,,,,,,,,,,,,,,,,,,,,,,,,,,,,,,,,,,,,,,,,,,,,,,,,,,,,,,,,,,,,,,,,,,
,,,,,,5ec44adb04069732a53a7bee,62bbfb59a3c281fa050a9833,2022-06-29_09h12.33.647,Colour_Asymmetry_Pilot,2022.1.3,Win32,144.092219,62bbe60bf3d75ef465d3e404,0,69,69,44,1,threeone,,,,,,,,,,,,,,,,,,,,,,,,,,,,,,,,,,,,,,,,,,,,,,,,,,,,,,,,,,,,,,,,,,,,,,,,,,,,,,,,,,,,,,,,,,,,,,,,,,,,,,,,,,,,,,,,,,,,,,,,,,,,,,,,,,,,,,,,,,,,,,,,,,,,,,,,
,,,,,,5ec44adb04069732a53a7bee,62bbfb59a3c281fa050a9833,2022-06-29_09h12.33.647,Colour_Asymmetry_Pilot,2022.1.3,Win32,144.092219,62bbe60bf3d75ef465d3e404,0,70,70,70,1,fourtwo,,,,,,,,,,,,,,,,,,,,,,,,,,,,,,,,,,,,,,,,,,,,,,,,,,,,,,,,,,,,,,,,,,,,,,,,,,,,,,,,,,,,,,,,,,,,,,,,,,,,,,,,,,,,,,,,,,,,,,,,,,,,,,,,,,,,,,,,,,,,,,,,,,,,,,,,
,,,,,,5ec44adb04069732a53a7bee,62bbfb59a3c281fa050a9833,2022-06-29_09h12.33.647,Colour_Asymmetry_Pilot,2022.1.3,Win32,144.092219,62bbe60bf3d75ef465d3e404,0,71,71,46,1,fourtwo,,,,,,,,,,,,,,,,,,,,,,,,,,,,,,,,,,,,,,,,,,,,,,,,,,,,,,,,,,,,,,,,,,,,,,,,,,,,,,,,,,,,,,,,,,,,,,,,,,,,,,,,,,,,,,,,,,,,,,,,,,,,,,,,,,,,,,,,,,,,,,,,,,,,,,,,
,,,,,,5ec44adb04069732a53a7bee,62bbfb59a3c281fa050a9833,2022-06-29_09h12.33.647,Colour_Asymmetry_Pilot,2022.1.3,Win32,144.092219,62bbe60bf3d75ef465d3e404,0,72,72,85,1,threefour,,,,,,,,,,,,,,,,,,,,,,,,,,,,,,,,,,,,,,,,,,,,,,,,,,,,,,,,,,,,,,,,,,,,,,,,,,,,,,,,,,,,,,,,,,,,,,,,,,,,,,,,,,,,,,,,,,,,,,,,,,,,,,,,,,,,,,,,,,,,,,,,,,,,,,,,
,,,,,,5ec44adb04069732a53a7bee,62bbfb59a3c281fa050a9833,2022-06-29_09h12.33.647,Colour_Asymmetry_Pilot,2022.1.3,Win32,144.092219,62bbe60bf3d75ef465d3e404,0,73,73,134,1,fourtwo,,,,,,,,,,,,,,,,,,,,,,,,,,,,,,,,,,,,,,,,,,,,,,,,,,,,,,,,,,,,,,,,,,,,,,,,,,,,,,,,,,,,,,,,,,,,,,,,,,,,,,,,,,,,,,,,,,,,,,,,,,,,,,,,,,,,,,,,,,,,,,,,,,,,,,,,
,,,,,,5ec44adb04069732a53a7bee,62bbfb59a3c281fa050a9833,2022-06-29_09h12.33.647,Colour_Asymmetry_Pilot,2022.1.3,Win32,144.092219,62bbe60bf3d75ef465d3e404,0,74,74,81,1,onethree,,,,,,,,,,,,,,,,,,,,,,,,,,,,,,,,,,,,,,,,,,,,,,,,,,,,,,,,,,,,,,,,,,,,,,,,,,,,,,,,,,,,,,,,,,,,,,,,,,,,,,,,,,,,,,,,,,,,,,,,,,,,,,,,,,,,,,,,,,,,,,,,,,,,,,,,
,,,,,,5ec44adb04069732a53a7bee,62bbfb59a3c281fa050a9833,2022-06-29_09h12.33.647,Colour_Asymmetry_Pilot,2022.1.3,Win32,144.092219,62bbe60bf3d75ef465d3e404,0,75,75,153,1,onethree,,,,,,,,,,,,,,,,,,,,,,,,,,,,,,,,,,,,,,,,,,,,,,,,,,,,,,,,,,,,,,,,,,,,,,,,,,,,,,,,,,,,,,,,,,,,,,,,,,,,,,,,,,,,,,,,,,,,,,,,,,,,,,,,,,,,,,,,,,,,,,,,,,,,,,,,
,,,,,,5ec44adb04069732a53a7bee,62bbfb59a3c281fa050a9833,2022-06-29_09h12.33.647,Colour_Asymmetry_Pilot,2022.1.3,Win32,144.092219,62bbe60bf3d75ef465d3e404,0,76,76,155,1,twofour,,,,,,,,,,,,,,,,,,,,,,,,,,,,,,,,,,,,,,,,,,,,,,,,,,,,,,,,,,,,,,,,,,,,,,,,,,,,,,,,,,,,,,,,,,,,,,,,,,,,,,,,,,,,,,,,,,,,,,,,,,,,,,,,,,,,,,,,,,,,,,,,,,,,,,,,
,,,,,,5ec44adb04069732a53a7bee,62bbfb59a3c281fa050a9833,2022-06-29_09h12.33.647,Colour_Asymmetry_Pilot,2022.1.3,Win32,144.092219,62bbe60bf3d75ef465d3e404,0,77,77,50,1,twoone,,,,,,,,,,,,,,,,,,,,,,,,,,,,,,,,,,,,,,,,,,,,,,,,,,,,,,,,,,,,,,,,,,,,,,,,,,,,,,,,,,,,,,,,,,,,,,,,,,,,,,,,,,,,,,,,,,,,,,,,,,,,,,,,,,,,,,,,,,,,,,,,,,,,,,,,
,,,,,,5ec44adb04069732a53a7bee,62bbfb59a3c281fa050a9833,2022-06-29_09h12.33.647,Colour_Asymmetry_Pilot,2022.1.3,Win32,144.092219,62bbe60bf3d75ef465d3e404,0,78,78,108,1,threeone,,,,,,,,,,,,,,,,,,,,,,,,,,,,,,,,,,,,,,,,,,,,,,,,,,,,,,,,,,,,,,,,,,,,,,,,,,,,,,,,,,,,,,,,,,,,,,,,,,,,,,,,,,,,,,,,,,,,,,,,,,,,,,,,,,,,,,,,,,,,,,,,,,,,,,,,
,,,,,,5ec44adb04069732a53a7bee,62bbfb59a3c281fa050a9833,2022-06-29_09h12.33.647,Colour_Asymmetry_Pilot,2022.1.3,Win32,144.092219,62bbe60bf3d75ef465d3e404,0,79,79,33,1,onethree,,,,,,,,,,,,,,,,,,,,,,,,,,,,,,,,,,,,,,,,,,,,,,,,,,,,,,,,,,,,,,,,,,,,,,,,,,,,,,,,,,,,,,,,,,,,,,,,,,,,,,,,,,,,,,,,,,,,,,,,,,,,,,,,,,,,,,,,,,,,,,,,,,,,,,,,
,,,,,,5ec44adb04069732a53a7bee,62bbfb59a3c281fa050a9833,2022-06-29_09h12.33.647,Colour_Asymmetry_Pilot,2022.1.3,Win32,144.092219,62bbe60bf3d75ef465d3e404,0,80,80,79,1,fourthree,,,,,,,,,,,,,,,,,,,,,,,,,,,,,,,,,,,,,,,,,,,,,,,,,,,,,,,,,,,,,,,,,,,,,,,,,,,,,,,,,,,,,,,,,,,,,,,,,,,,,,,,,,,,,,,,,,,,,,,,,,,,,,,,,,,,,,,,,,,,,,,,,,,,,,,,
,,,,,,5ec44adb04069732a53a7bee,62bbfb59a3c281fa050a9833,2022-06-29_09h12.33.647,Colour_Asymmetry_Pilot,2022.1.3,Win32,144.092219,62bbe60bf3d75ef465d3e404,0,81,81,29,1,threefour,,,,,,,,,,,,,,,,,,,,,,,,,,,,,,,,,,,,,,,,,,,,,,,,,,,,,,,,,,,,,,,,,,,,,,,,,,,,,,,,,,,,,,,,,,,,,,,,,,,,,,,,,,,,,,,,,,,,,,,,,,,,,,,,,,,,,,,,,,,,,,,,,,,,,,,,
,,,,,,5ec44adb04069732a53a7bee,62bbfb59a3c281fa050a9833,2022-06-29_09h12.33.647,Colour_Asymmetry_Pilot,2022.1.3,Win32,144.092219,62bbe60bf3d75ef465d3e404,0,82,82,98,1,twoone,,,,,,,,,,,,,,,,,,,,,,,,,,,,,,,,,,,,,,,,,,,,,,,,,,,,,,,,,,,,,,,,,,,,,,,,,,,,,,,,,,,,,,,,,,,,,,,,,,,,,,,,,,,,,,,,,,,,,,,,,,,,,,,,,,,,,,,,,,,,,,,,,,,,,,,,
,,,,,,5ec44adb04069732a53a7bee,62bbfb59a3c281fa050a9833,2022-06-29_09h12.33.647,Colour_Asymmetry_Pilot,2022.1.3,Win32,144.092219,62bbe60bf3d75ef465d3e404,0,83,83,116,1,threeone,,,,,,,,,,,,,,,,,,,,,,,,,,,,,,,,,,,,,,,,,,,,,,,,,,,,,,,,,,,,,,,,,,,,,,,,,,,,,,,,,,,,,,,,,,,,,,,,,,,,,,,,,,,,,,,,,,,,,,,,,,,,,,,,,,,,,,,,,,,,,,,,,,,,,,,,
,,,,,,5ec44adb04069732a53a7bee,62bbfb59a3c281fa050a9833,2022-06-29_09h12.33.647,Colour_Asymmetry_Pilot,2022.1.3,Win32,144.092219,62bbe60bf3d75ef465d3e404,0,84,84,102,1,fourtwo,,,,,,,,,,,,,,,,,,,,,,,,,,,,,,,,,,,,,,,,,,,,,,,,,,,,,,,,,,,,,,,,,,,,,,,,,,,,,,,,,,,,,,,,,,,,,,,,,,,,,,,,,,,,,,,,,,,,,,,,,,,,,,,,,,,,,,,,,,,,,,,,,,,,,,,,
,,,,,,5ec44adb04069732a53a7bee,62bbfb59a3c281fa050a9833,2022-06-29_09h12.33.647,Colour_Asymmetry_Pilot,2022.1.3,Win32,144.092219,62bbe60bf3d75ef465d3e404,0,85,85,131,1,twofour,,,,,,,,,,,,,,,,,,,,,,,,,,,,,,,,,,,,,,,,,,,,,,,,,,,,,,,,,,,,,,,,,,,,,,,,,,,,,,,,,,,,,,,,,,,,,,,,,,,,,,,,,,,,,,,,,,,,,,,,,,,,,,,,,,,,,,,,,,,,,,,,,,,,,,,,
,,,,,,5ec44adb04069732a53a7bee,62bbfb59a3c281fa050a9833,2022-06-29_09h12.33.647,Colour_Asymmetry_Pilot,2022.1.3,Win32,144.092219,62bbe60bf3d75ef465d3e404,0,86,86,160,1,onetwo,,,,,,,,,,,,,,,,,,,,,,,,,,,,,,,,,,,,,,,,,,,,,,,,,,,,,,,,,,,,,,,,,,,,,,,,,,,,,,,,,,,,,,,,,,,,,,,,,,,,,,,,,,,,,,,,,,,,,,,,,,,,,,,,,,,,,,,,,,,,,,,,,,,,,,,,
,,,,,,5ec44adb04069732a53a7bee,62bbfb59a3c281fa050a9833,2022-06-29_09h12.33.647,Colour_Asymmetry_Pilot,2022.1.3,Win32,144.092219,62bbe60bf3d75ef465d3e404,0,87,87,152,1,onetwo,,,,,,,,,,,,,,,,,,,,,,,,,,,,,,,,,,,,,,,,,,,,,,,,,,,,,,,,,,,,,,,,,,,,,,,,,,,,,,,,,,,,,,,,,,,,,,,,,,,,,,,,,,,,,,,,,,,,,,,,,,,,,,,,,,,,,,,,,,,,,,,,,,,,,,,,
,,,,,,5ec44adb04069732a53a7bee,62bbfb59a3c281fa050a9833,2022-06-29_09h12.33.647,Colour_Asymmetry_Pilot,2022.1.3,Win32,144.092219,62bbe60bf3d75ef465d3e404,0,88,88,138,1,twoone,,,,,,,,,,,,,,,,,,,,,,,,,,,,,,,,,,,,,,,,,,,,,,,,,,,,,,,,,,,,,,,,,,,,,,,,,,,,,,,,,,,,,,,,,,,,,,,,,,,,,,,,,,,,,,,,,,,,,,,,,,,,,,,,,,,,,,,,,,,,,,,,,,,,,,,,
,,,,,,5ec44adb04069732a53a7bee,62bbfb59a3c281fa050a9833,2022-06-29_09h12.33.647,Colour_Asymmetry_Pilot,2022.1.3,Win32,144.092219,62bbe60bf3d75ef465d3e404,0,89,89,59,1,twofour,,,,,,,,,,,,,,,,,,,,,,,,,,,,,,,,,,,,,,,,,,,,,,,,,,,,,,,,,,,,,,,,,,,,,,,,,,,,,,,,,,,,,,,,,,,,,,,,,,,,,,,,,,,,,,,,,,,,,,,,,,,,,,,,,,,,,,,,,,,,,,,,,,,,,,,,
,,,,,,5ec44adb04069732a53a7bee,62bbfb59a3c281fa050a9833,2022-06-29_09h12.33.647,Colour_Asymmetry_Pilot,2022.1.3,Win32,144.092219,62bbe60bf3d75ef465d3e404,0,90,90,55,1,fourthree,,,,,,,,,,,,,,,,,,,,,,,,,,,,,,,,,,,,,,,,,,,,,,,,,,,,,,,,,,,,,,,,,,,,,,,,,,,,,,,,,,,,,,,,,,,,,,,,,,,,,,,,,,,,,,,,,,,,,,,,,,,,,,,,,,,,,,,,,,,,,,,,,,,,,,,,
,,,,,,5ec44adb04069732a53a7bee,62bbfb59a3c281fa050a9833,2022-06-29_09h12.33.647,Colour_Asymmetry_Pilot,2022.1.3,Win32,144.092219,62bbe60bf3d75ef465d3e404,0,91,91,91,1,twofour,,,,,,,,,,,,,,,,,,,,,,,,,,,,,,,,,,,,,,,,,,,,,,,,,,,,,,,,,,,,,,,,,,,,,,,,,,,,,,,,,,,,,,,,,,,,,,,,,,,,,,,,,,,,,,,,,,,,,,,,,,,,,,,,,,,,,,,,,,,,,,,,,,,,,,,,
,,,,,,5ec44adb04069732a53a7bee,62bbfb59a3c281fa050a9833,2022-06-29_09h12.33.647,Colour_Asymmetry_Pilot,2022.1.3,Win32,144.092219,62bbe60bf3d75ef465d3e404,0,92,92,27,1,twofour,,,,,,,,,,,,,,,,,,,,,,,,,,,,,,,,,,,,,,,,,,,,,,,,,,,,,,,,,,,,,,,,,,,,,,,,,,,,,,,,,,,,,,,,,,,,,,,,,,,,,,,,,,,,,,,,,,,,,,,,,,,,,,,,,,,,,,,,,,,,,,,,,,,,,,,,
,,,,,,5ec44adb04069732a53a7bee,62bbfb59a3c281fa050a9833,2022-06-29_09h12.33.647,Colour_Asymmetry_Pilot,2022.1.3,Win32,144.092219,62bbe60bf3d75ef465d3e404,0,93,93,18,1,twoone,,,,,,,,,,,,,,,,,,,,,,,,,,,,,,,,,,,,,,,,,,,,,,,,,,,,,,,,,,,,,,,,,,,,,,,,,,,,,,,,,,,,,,,,,,,,,,,,,,,,,,,,,,,,,,,,,,,,,,,,,,,,,,,,,,,,,,,,,,,,,,,,,,,,,,,,
,,,,,,5ec44adb04069732a53a7bee,62bbfb59a3c281fa050a9833,2022-06-29_09h12.33.647,Colour_Asymmetry_Pilot,2022.1.3,Win32,144.092219,62bbe60bf3d75ef465d3e404,0,94,94,51,1,twofour,,,,,,,,,,,,,,,,,,,,,,,,,,,,,,,,,,,,,,,,,,,,,,,,,,,,,,,,,,,,,,,,,,,,,,,,,,,,,,,,,,,,,,,,,,,,,,,,,,,,,,,,,,,,,,,,,,,,,,,,,,,,,,,,,,,,,,,,,,,,,,,,,,,,,,,,
,,,,,,5ec44adb04069732a53a7bee,62bbfb59a3c281fa050a9833,2022-06-29_09h12.33.647,Colour_Asymmetry_Pilot,2022.1.3,Win32,144.092219,62bbe60bf3d75ef465d3e404,0,95,95,97,1,onethree,,,,,,,,,,,,,,,,,,,,,,,,,,,,,,,,,,,,,,,,,,,,,,,,,,,,,,,,,,,,,,,,,,,,,,,,,,,,,,,,,,,,,,,,,,,,,,,,,,,,,,,,,,,,,,,,,,,,,,,,,,,,,,,,,,,,,,,,,,,,,,,,,,,,,,,,
,,,,,,5ec44adb04069732a53a7bee,62bbfb59a3c281fa050a9833,2022-06-29_09h12.33.647,Colour_Asymmetry_Pilot,2022.1.3,Win32,144.092219,62bbe60bf3d75ef465d3e404,0,96,96,10,1,twoone,,,,,,,,,,,,,,,,,,,,,,,,,,,,,,,,,,,,,,,,,,,,,,,,,,,,,,,,,,,,,,,,,,,,,,,,,,,,,,,,,,,,,,,,,,,,,,,,,,,,,,,,,,,,,,,,,,,,,,,,,,,,,,,,,,,,,,,,,,,,,,,,,,,,,,,,
,,,,,,5ec44adb04069732a53a7bee,62bbfb59a3c281fa050a9833,2022-06-29_09h12.33.647,Colour_Asymmetry_Pilot,2022.1.3,Win32,144.092219,62bbe60bf3d75ef465d3e404,0,97,97,120,1,onetwo,,,,,,,,,,,,,,,,,,,,,,,,,,,,,,,,,,,,,,,,,,,,,,,,,,,,,,,,,,,,,,,,,,,,,,,,,,,,,,,,,,,,,,,,,,,,,,,,,,,,,,,,,,,,,,,,,,,,,,,,,,,,,,,,,,,,,,,,,,,,,,,,,,,,,,,,
,,,,,,5ec44adb04069732a53a7bee,62bbfb59a3c281fa050a9833,2022-06-29_09h12.33.647,Colour_Asymmetry_Pilot,2022.1.3,Win32,144.092219,62bbe60bf3d75ef465d3e404,0,98,98,21,1,threefour,,,,,,,,,,,,,,,,,,,,,,,,,,,,,,,,,,,,,,,,,,,,,,,,,,,,,,,,,,,,,,,,,,,,,,,,,,,,,,,,,,,,,,,,,,,,,,,,,,,,,,,,,,,,,,,,,,,,,,,,,,,,,,,,,,,,,,,,,,,,,,,,,,,,,,,,
,,,,,,5ec44adb04069732a53a7bee,62bbfb59a3c281fa050a9833,2022-06-29_09h12.33.647,Colour_Asymmetry_Pilot,2022.1.3,Win32,144.092219,62bbe60bf3d75ef465d3e404,0,99,99,72,1,onetwo,,,,,,,,,,,,,,,,,,,,,,,,,,,,,,,,,,,,,,,,,,,,,,,,,,,,,,,,,,,,,,,,,,,,,,,,,,,,,,,,,,,,,,,,,,,,,,,,,,,,,,,,,,,,,,,,,,,,,,,,,,,,,,,,,,,,,,,,,,,,,,,,,,,,,,,,
,,,,,,5ec44adb04069732a53a7bee,62bbfb59a3c281fa050a9833,2022-06-29_09h12.33.647,Colour_Asymmetry_Pilot,2022.1.3,Win32,144.092219,62bbe60bf3d75ef465d3e404,0,100,100,68,1,threeone,,,,,,,,,,,,,,,,,,,,,,,,,,,,,,,,,,,,,,,,,,,,,,,,,,,,,,,,,,,,,,,,,,,,,,,,,,,,,,,,,,,,,,,,,,,,,,,,,,,,,,,,,,,,,,,,,,,,,,,,,,,,,,,,,,,,,,,,,,,,,,,,,,,,,,,,
,,,,,,5ec44adb04069732a53a7bee,62bbfb59a3c281fa050a9833,2022-06-29_09h12.33.647,Colour_Asymmetry_Pilot,2022.1.3,Win32,144.092219,62bbe60bf3d75ef465d3e404,0,101,101,159,1,fourthree,,,,,,,,,,,,,,,,,,,,,,,,,,,,,,,,,,,,,,,,,,,,,,,,,,,,,,,,,,,,,,,,,,,,,,,,,,,,,,,,,,,,,,,,,,,,,,,,,,,,,,,,,,,,,,,,,,,,,,,,,,,,,,,,,,,,,,,,,,,,,,,,,,,,,,,,
,,,,,,5ec44adb04069732a53a7bee,62bbfb59a3c281fa050a9833,2022-06-29_09h12.33.647,Colour_Asymmetry_Pilot,2022.1.3,Win32,144.092219,62bbe60bf3d75ef465d3e404,0,102,102,132,1,threeone,,,,,,,,,,,,,,,,,,,,,,,,,,,,,,,,,,,,,,,,,,,,,,,,,,,,,,,,,,,,,,,,,,,,,,,,,,,,,,,,,,,,,,,,,,,,,,,,,,,,,,,,,,,,,,,,,,,,,,,,,,,,,,,,,,,,,,,,,,,,,,,,,,,,,,,,
,,,,,,5ec44adb04069732a53a7bee,62bbfb59a3c281fa050a9833,2022-06-29_09h12.33.647,Colour_Asymmetry_Pilot,2022.1.3,Win32,144.092219,62bbe60bf3d75ef465d3e404,0,103,103,78,1,fourtwo,,,,,,,,,,,,,,,,,,,,,,,,,,,,,,,,,,,,,,,,,,,,,,,,,,,,,,,,,,,,,,,,,,,,,,,,,,,,,,,,,,,,,,,,,,,,,,,,,,,,,,,,,,,,,,,,,,,,,,,,,,,,,,,,,,,,,,,,,,,,,,,,,,,,,,,,
,,,,,,5ec44adb04069732a53a7bee,62bbfb59a3c281fa050a9833,2022-06-29_09h12.33.647,Colour_Asymmetry_Pilot,2022.1.3,Win32,144.092219,62bbe60bf3d75ef465d3e404,0,104,104,158,1,fourtwo,,,,,,,,,,,,,,,,,,,,,,,,,,,,,,,,,,,,,,,,,,,,,,,,,,,,,,,,,,,,,,,,,,,,,,,,,,,,,,,,,,,,,,,,,,,,,,,,,,,,,,,,,,,,,,,,,,,,,,,,,,,,,,,,,,,,,,,,,,,,,,,,,,,,,,,,
,,,,,,5ec44adb04069732a53a7bee,62bbfb59a3c281fa050a9833,2022-06-29_09h12.33.647,Colour_Asymmetry_Pilot,2022.1.3,Win32,144.092219,62bbe60bf3d75ef465d3e404,0,105,105,100,1,threeone,,,,,,,,,,,,,,,,,,,,,,,,,,,,,,,,,,,,,,,,,,,,,,,,,,,,,,,,,,,,,,,,,,,,,,,,,,,,,,,,,,,,,,,,,,,,,,,,,,,,,,,,,,,,,,,,,,,,,,,,,,,,,,,,,,,,,,,,,,,,,,,,,,,,,,,,
,,,,,,5ec44adb04069732a53a7bee,62bbfb59a3c281fa050a9833,2022-06-29_09h12.33.647,Colour_Asymmetry_Pilot,2022.1.3,Win32,144.092219,62bbe60bf3d75ef465d3e404,0,106,106,117,1,threefour,,,,,,,,,,,,,,,,,,,,,,,,,,,,,,,,,,,,,,,,,,,,,,,,,,,,,,,,,,,,,,,,,,,,,,,,,,,,,,,,,,,,,,,,,,,,,,,,,,,,,,,,,,,,,,,,,,,,,,,,,,,,,,,,,,,,,,,,,,,,,,,,,,,,,,,,
,,,,,,5ec44adb04069732a53a7bee,62bbfb59a3c281fa050a9833,2022-06-29_09h12.33.647,Colour_Asymmetry_Pilot,2022.1.3,Win32,144.092219,62bbe60bf3d75ef465d3e404,0,107,107,122,1,twoone,,,,,,,,,,,,,,,,,,,,,,,,,,,,,,,,,,,,,,,,,,,,,,,,,,,,,,,,,,,,,,,,,,,,,,,,,,,,,,,,,,,,,,,,,,,,,,,,,,,,,,,,,,,,,,,,,,,,,,,,,,,,,,,,,,,,,,,,,,,,,,,,,,,,,,,,
,,,,,,5ec44adb04069732a53a7bee,62bbfb59a3c281fa050a9833,2022-06-29_09h12.33.647,Colour_Asymmetry_Pilot,2022.1.3,Win32,144.092219,62bbe60bf3d75ef465d3e404,0,108,108,84,1,threeone,,,,,,,,,,,,,,,,,,,,,,,,,,,,,,,,,,,,,,,,,,,,,,,,,,,,,,,,,,,,,,,,,,,,,,,,,,,,,,,,,,,,,,,,,,,,,,,,,,,,,,,,,,,,,,,,,,,,,,,,,,,,,,,,,,,,,,,,,,,,,,,,,,,,,,,,
,,,,,,5ec44adb04069732a53a7bee,62bbfb59a3c281fa050a9833,2022-06-29_09h12.33.647,Colour_Asymmetry_Pilot,2022.1.3,Win32,144.092219,62bbe60bf3d75ef465d3e404,0,109,109,64,1,onetwo,,,,,,,,,,,,,,,,,,,,,,,,,,,,,,,,,,,,,,,,,,,,,,,,,,,,,,,,,,,,,,,,,,,,,,,,,,,,,,,,,,,,,,,,,,,,,,,,,,,,,,,,,,,,,,,,,,,,,,,,,,,,,,,,,,,,,,,,,,,,,,,,,,,,,,,,
,,,,,,5ec44adb04069732a53a7bee,62bbfb59a3c281fa050a9833,2022-06-29_09h12.33.647,Colour_Asymmetry_Pilot,2022.1.3,Win32,144.092219,62bbe60bf3d75ef465d3e404,0,110,110,19,1,twofour,,,,,,,,,,,,,,,,,,,,,,,,,,,,,,,,,,,,,,,,,,,,,,,,,,,,,,,,,,,,,,,,,,,,,,,,,,,,,,,,,,,,,,,,,,,,,,,,,,,,,,,,,,,,,,,,,,,,,,,,,,,,,,,,,,,,,,,,,,,,,,,,,,,,,,,,
,,,,,,5ec44adb04069732a53a7bee,62bbfb59a3c281fa050a9833,2022-06-29_09h12.33.647,Colour_Asymmetry_Pilot,2022.1.3,Win32,144.092219,62bbe60bf3d75ef465d3e404,0,111,111,17,1,onethree,,,,,,,,,,,,,,,,,,,,,,,,,,,,,,,,,,,,,,,,,,,,,,,,,,,,,,,,,,,,,,,,,,,,,,,,,,,,,,,,,,,,,,,,,,,,,,,,,,,,,,,,,,,,,,,,,,,,,,,,,,,,,,,,,,,,,,,,,,,,,,,,,,,,,,,,
,,,,,,5ec44adb04069732a53a7bee,62bbfb59a3c281fa050a9833,2022-06-29_09h12.33.647,Colour_Asymmetry_Pilot,2022.1.3,Win32,144.092219,62bbe60bf3d75ef465d3e404,0,112,112,83,1,twofour,,,,,,,,,,,,,,,,,,,,,,,,,,,,,,,,,,,,,,,,,,,,,,,,,,,,,,,,,,,,,,,,,,,,,,,,,,,,,,,,,,,,,,,,,,,,,,,,,,,,,,,,,,,,,,,,,,,,,,,,,,,,,,,,,,,,,,,,,,,,,,,,,,,,,,,,
,,,,,,5ec44adb04069732a53a7bee,62bbfb59a3c281fa050a9833,2022-06-29_09h12.33.647,Colour_Asymmetry_Pilot,2022.1.3,Win32,144.092219,62bbe60bf3d75ef465d3e404,0,113,113,140,1,threeone,,,,,,,,,,,,,,,,,,,,,,,,,,,,,,,,,,,,,,,,,,,,,,,,,,,,,,,,,,,,,,,,,,,,,,,,,,,,,,,,,,,,,,,,,,,,,,,,,,,,,,,,,,,,,,,,,,,,,,,,,,,,,,,,,,,,,,,,,,,,,,,,,,,,,,,,
,,,,,,5ec44adb04069732a53a7bee,62bbfb59a3c281fa050a9833,2022-06-29_09h12.33.647,Colour_Asymmetry_Pilot,2022.1.3,Win32,144.092219,62bbe60bf3d75ef465d3e404,0,114,114,25,1,onethree,,,,,,,,,,,,,,,,,,,,,,,,,,,,,,,,,,,,,,,,,,,,,,,,,,,,,,,,,,,,,,,,,,,,,,,,,,,,,,,,,,,,,,,,,,,,,,,,,,,,,,,,,,,,,,,,,,,,,,,,,,,,,,,,,,,,,,,,,,,,,,,,,,,,,,,,
,,,,,,5ec44adb04069732a53a7bee,62bbfb59a3c281fa050a9833,2022-06-29_09h12.33.647,Colour_Asymmetry_Pilot,2022.1.3,Win32,144.092219,62bbe60bf3d75ef465d3e404,0,115,115,107,1,twofour,,,,,,,,,,,,,,,,,,,,,,,,,,,,,,,,,,,,,,,,,,,,,,,,,,,,,,,,,,,,,,,,,,,,,,,,,,,,,,,,,,,,,,,,,,,,,,,,,,,,,,,,,,,,,,,,,,,,,,,,,,,,,,,,,,,,,,,,,,,,,,,,,,,,,,,,
,,,,,,5ec44adb04069732a53a7bee,62bbfb59a3c281fa050a9833,2022-06-29_09h12.33.647,Colour_Asymmetry_Pilot,2022.1.3,Win32,144.092219,62bbe60bf3d75ef465d3e404,0,116,116,60,1,threeone,,,,,,,,,,,,,,,,,,,,,,,,,,,,,,,,,,,,,,,,,,,,,,,,,,,,,,,,,,,,,,,,,,,,,,,,,,,,,,,,,,,,,,,,,,,,,,,,,,,,,,,,,,,,,,,,,,,,,,,,,,,,,,,,,,,,,,,,,,,,,,,,,,,,,,,,
,,,,,,5ec44adb04069732a53a7bee,62bbfb59a3c281fa050a9833,2022-06-29_09h12.33.647,Colour_Asymmetry_Pilot,2022.1.3,Win32,144.092219,62bbe60bf3d75ef465d3e404,0,117,117,71,1,fourthree,,,,,,,,,,,,,,,,,,,,,,,,,,,,,,,,,,,,,,,,,,,,,,,,,,,,,,,,,,,,,,,,,,,,,,,,,,,,,,,,,,,,,,,,,,,,,,,,,,,,,,,,,,,,,,,,,,,,,,,,,,,,,,,,,,,,,,,,,,,,,,,,,,,,,,,,
,,,,,,5ec44adb04069732a53a7bee,62bbfb59a3c281fa050a9833,2022-06-29_09h12.33.647,Colour_Asymmetry_Pilot,2022.1.3,Win32,144.092219,62bbe60bf3d75ef465d3e404,0,118,118,93,1,threefour,,,,,,,,,,,,,,,,,,,,,,,,,,,,,,,,,,,,,,,,,,,,,,,,,,,,,,,,,,,,,,,,,,,,,,,,,,,,,,,,,,,,,,,,,,,,,,,,,,,,,,,,,,,,,,,,,,,,,,,,,,,,,,,,,,,,,,,,,,,,,,,,,,,,,,,,
,,,,,,5ec44adb04069732a53a7bee,62bbfb59a3c281fa050a9833,2022-06-29_09h12.33.647,Colour_Asymmetry_Pilot,2022.1.3,Win32,144.092219,62bbe60bf3d75ef465d3e404,0,119,119,113,1,onethree,,,,,,,,,,,,,,,,,,,,,,,,,,,,,,,,,,,,,,,,,,,,,,,,,,,,,,,,,,,,,,,,,,,,,,,,,,,,,,,,,,,,,,,,,,,,,,,,,,,,,,,,,,,,,,,,,,,,,,,,,,,,,,,,,,,,,,,,,,,,,,,,,,,,,,,,
,,,,,,5ec44adb04069732a53a7bee,62bbfb59a3c281fa050a9833,2022-06-29_09h12.33.647,Colour_Asymmetry_Pilot,2022.1.3,Win32,144.092219,62bbe60bf3d75ef465d3e404,0,120,120,74,1,twoone,,,,,,,,,,,,,,,,,,,,,,,,,,,,,,,,,,,,,,,,,,,,,,,,,,,,,,,,,,,,,,,,,,,,,,,,,,,,,,,,,,,,,,,,,,,,,,,,,,,,,,,,,,,,,,,,,,,,,,,,,,,,,,,,,,,,,,,,,,,,,,,,,,,,,,,,
,,,,,,5ec44adb04069732a53a7bee,62bbfb59a3c281fa050a9833,2022-06-29_09h12.33.647,Colour_Asymmetry_Pilot,2022.1.3,Win32,144.092219,62bbe60bf3d75ef465d3e404,0,121,121,7,1,fourthree,,,,,,,,,,,,,,,,,,,,,,,,,,,,,,,,,,,,,,,,,,,,,,,,,,,,,,,,,,,,,,,,,,,,,,,,,,,,,,,,,,,,,,,,,,,,,,,,,,,,,,,,,,,,,,,,,,,,,,,,,,,,,,,,,,,,,,,,,,,,,,,,,,,,,,,,
,,,,,,5ec44adb04069732a53a7bee,62bbfb59a3c281fa050a9833,2022-06-29_09h12.33.647,Colour_Asymmetry_Pilot,2022.1.3,Win32,144.092219,62bbe60bf3d75ef465d3e404,0,122,122,115,1,twofour,,,,,,,,,,,,,,,,,,,,,,,,,,,,,,,,,,,,,,,,,,,,,,,,,,,,,,,,,,,,,,,,,,,,,,,,,,,,,,,,,,,,,,,,,,,,,,,,,,,,,,,,,,,,,,,,,,,,,,,,,,,,,,,,,,,,,,,,,,,,,,,,,,,,,,,,
,,,,,,5ec44adb04069732a53a7bee,62bbfb59a3c281fa050a9833,2022-06-29_09h12.33.647,Colour_Asymmetry_Pilot,2022.1.3,Win32,144.092219,62bbe60bf3d75ef465d3e404,0,123,123,20,1,threeone,,,,,,,,,,,,,,,,,,,,,,,,,,,,,,,,,,,,,,,,,,,,,,,,,,,,,,,,,,,,,,,,,,,,,,,,,,,,,,,,,,,,,,,,,,,,,,,,,,,,,,,,,,,,,,,,,,,,,,,,,,,,,,,,,,,,,,,,,,,,,,,,,,,,,,,,
,,,,,,5ec44adb04069732a53a7bee,62bbfb59a3c281fa050a9833,2022-06-29_09h12.33.647,Colour_Asymmetry_Pilot,2022.1.3,Win32,144.092219,62bbe60bf3d75ef465d3e404,0,124,124,86,1,fourtwo,,,,,,,,,,,,,,,,,,,,,,,,,,,,,,,,,,,,,,,,,,,,,,,,,,,,,,,,,,,,,,,,,,,,,,,,,,,,,,,,,,,,,,,,,,,,,,,,,,,,,,,,,,,,,,,,,,,,,,,,,,,,,,,,,,,,,,,,,,,,,,,,,,,,,,,,
,,,,,,5ec44adb04069732a53a7bee,62bbfb59a3c281fa050a9833,2022-06-29_09h12.33.647,Colour_Asymmetry_Pilot,2022.1.3,Win32,144.092219,62bbe60bf3d75ef465d3e404,0,125,125,146,1,twoone,,,,,,,,,,,,,,,,,,,,,,,,,,,,,,,,,,,,,,,,,,,,,,,,,,,,,,,,,,,,,,,,,,,,,,,,,,,,,,,,,,,,,,,,,,,,,,,,,,,,,,,,,,,,,,,,,,,,,,,,,,,,,,,,,,,,,,,,,,,,,,,,,,,,,,,,
,,,,,,5ec44adb04069732a53a7bee,62bbfb59a3c281fa050a9833,2022-06-29_09h12.33.647,Colour_Asymmetry_Pilot,2022.1.3,Win32,144.092219,62bbe60bf3d75ef465d3e404,0,126,126,150,1,fourtwo,,,,,,,,,,,,,,,,,,,,,,,,,,,,,,,,,,,,,,,,,,,,,,,,,,,,,,,,,,,,,,,,,,,,,,,,,,,,,,,,,,,,,,,,,,,,,,,,,,,,,,,,,,,,,,,,,,,,,,,,,,,,,,,,,,,,,,,,,,,,,,,,,,,,,,,,
,,,,,,5ec44adb04069732a53a7bee,62bbfb59a3c281fa050a9833,2022-06-29_09h12.33.647,Colour_Asymmetry_Pilot,2022.1.3,Win32,144.092219,62bbe60bf3d75ef465d3e404,0,127,127,38,1,fourtwo,,,,,,,,,,,,,,,,,,,,,,,,,,,,,,,,,,,,,,,,,,,,,,,,,,,,,,,,,,,,,,,,,,,,,,,,,,,,,,,,,,,,,,,,,,,,,,,,,,,,,,,,,,,,,,,,,,,,,,,,,,,,,,,,,,,,,,,,,,,,,,,,,,,,,,,,
,,,,,,5ec44adb04069732a53a7bee,62bbfb59a3c281fa050a9833,2022-06-29_09h12.33.647,Colour_Asymmetry_Pilot,2022.1.3,Win32,144.092219,62bbe60bf3d75ef465d3e404,0,128,128,8,1,onetwo,,,,,,,,,,,,,,,,,,,,,,,,,,,,,,,,,,,,,,,,,,,,,,,,,,,,,,,,,,,,,,,,,,,,,,,,,,,,,,,,,,,,,,,,,,,,,,,,,,,,,,,,,,,,,,,,,,,,,,,,,,,,,,,,,,,,,,,,,,,,,,,,,,,,,,,,
,,,,,,5ec44adb04069732a53a7bee,62bbfb59a3c281fa050a9833,2022-06-29_09h12.33.647,Colour_Asymmetry_Pilot,2022.1.3,Win32,144.092219,62bbe60bf3d75ef465d3e404,0,129,129,24,1,onetwo,,,,,,,,,,,,,,,,,,,,,,,,,,,,,,,,,,,,,,,,,,,,,,,,,,,,,,,,,,,,,,,,,,,,,,,,,,,,,,,,,,,,,,,,,,,,,,,,,,,,,,,,,,,,,,,,,,,,,,,,,,,,,,,,,,,,,,,,,,,,,,,,,,,,,,,,
,,,,,,5ec44adb04069732a53a7bee,62bbfb59a3c281fa050a9833,2022-06-29_09h12.33.647,Colour_Asymmetry_Pilot,2022.1.3,Win32,144.092219,62bbe60bf3d75ef465d3e404,0,130,130,9,1,onethree,,,,,,,,,,,,,,,,,,,,,,,,,,,,,,,,,,,,,,,,,,,,,,,,,,,,,,,,,,,,,,,,,,,,,,,,,,,,,,,,,,,,,,,,,,,,,,,,,,,,,,,,,,,,,,,,,,,,,,,,,,,,,,,,,,,,,,,,,,,,,,,,,,,,,,,,
,,,,,,5ec44adb04069732a53a7bee,62bbfb59a3c281fa050a9833,2022-06-29_09h12.33.647,Colour_Asymmetry_Pilot,2022.1.3,Win32,144.092219,62bbe60bf3d75ef465d3e404,0,131,131,30,1,fourtwo,,,,,,,,,,,,,,,,,,,,,,,,,,,,,,,,,,,,,,,,,,,,,,,,,,,,,,,,,,,,,,,,,,,,,,,,,,,,,,,,,,,,,,,,,,,,,,,,,,,,,,,,,,,,,,,,,,,,,,,,,,,,,,,,,,,,,,,,,,,,,,,,,,,,,,,,
,,,,,,5ec44adb04069732a53a7bee,62bbfb59a3c281fa050a9833,2022-06-29_09h12.33.647,Colour_Asymmetry_Pilot,2022.1.3,Win32,144.092219,62bbe60bf3d75ef465d3e404,0,132,132,137,1,onethree,,,,,,,,,,,,,,,,,,,,,,,,,,,,,,,,,,,,,,,,,,,,,,,,,,,,,,,,,,,,,,,,,,,,,,,,,,,,,,,,,,,,,,,,,,,,,,,,,,,,,,,,,,,,,,,,,,,,,,,,,,,,,,,,,,,,,,,,,,,,,,,,,,,,,,,,
,,,,,,5ec44adb04069732a53a7bee,62bbfb59a3c281fa050a9833,2022-06-29_09h12.33.647,Colour_Asymmetry_Pilot,2022.1.3,Win32,144.092219,62bbe60bf3d75ef465d3e404,0,133,133,12,1,threeone,,,,,,,,,,,,,,,,,,,,,,,,,,,,,,,,,,,,,,,,,,,,,,,,,,,,,,,,,,,,,,,,,,,,,,,,,,,,,,,,,,,,,,,,,,,,,,,,,,,,,,,,,,,,,,,,,,,,,,,,,,,,,,,,,,,,,,,,,,,,,,,,,,,,,,,,
,,,,,,5ec44adb04069732a53a7bee,62bbfb59a3c281fa050a9833,2022-06-29_09h12.33.647,Colour_Asymmetry_Pilot,2022.1.3,Win32,144.092219,62bbe60bf3d75ef465d3e404,0,134,134,148,1,threeone,,,,,,,,,,,,,,,,,,,,,,,,,,,,,,,,,,,,,,,,,,,,,,,,,,,,,,,,,,,,,,,,,,,,,,,,,,,,,,,,,,,,,,,,,,,,,,,,,,,,,,,,,,,,,,,,,,,,,,,,,,,,,,,,,,,,,,,,,,,,,,,,,,,,,,,,
,,,,,,5ec44adb04069732a53a7bee,62bbfb59a3c281fa050a9833,2022-06-29_09h12.33.647,Colour_Asymmetry_Pilot,2022.1.3,Win32,144.092219,62bbe60bf3d75ef465d3e404,0,135,135,95,1,fourthree,,,,,,,,,,,,,,,,,,,,,,,,,,,,,,,,,,,,,,,,,,,,,,,,,,,,,,,,,,,,,,,,,,,,,,,,,,,,,,,,,,,,,,,,,,,,,,,,,,,,,,,,,,,,,,,,,,,,,,,,,,,,,,,,,,,,,,,,,,,,,,,,,,,,,,,,
,,,,,,5ec44adb04069732a53a7bee,62bbfb59a3c281fa050a9833,2022-06-29_09h12.33.647,Colour_Asymmetry_Pilot,2022.1.3,Win32,144.092219,62bbe60bf3d75ef465d3e404,0,136,136,151,1,fourthree,,,,,,,,,,,,,,,,,,,,,,,,,,,,,,,,,,,,,,,,,,,,,,,,,,,,,,,,,,,,,,,,,,,,,,,,,,,,,,,,,,,,,,,,,,,,,,,,,,,,,,,,,,,,,,,,,,,,,,,,,,,,,,,,,,,,,,,,,,,,,,,,,,,,,,,,
,,,,,,5ec44adb04069732a53a7bee,62bbfb59a3c281fa050a9833,2022-06-29_09h12.33.647,Colour_Asymmetry_Pilot,2022.1.3,Win32,144.092219,62bbe60bf3d75ef465d3e404,0,137,137,58,1,twoone,,,,,,,,,,,,,,,,,,,,,,,,,,,,,,,,,,,,,,,,,,,,,,,,,,,,,,,,,,,,,,,,,,,,,,,,,,,,,,,,,,,,,,,,,,,,,,,,,,,,,,,,,,,,,,,,,,,,,,,,,,,,,,,,,,,,,,,,,,,,,,,,,,,,,,,,
,,,,,,5ec44adb04069732a53a7bee,62bbfb59a3c281fa050a9833,2022-06-29_09h12.33.647,Colour_Asymmetry_Pilot,2022.1.3,Win32,144.092219,62bbe60bf3d75ef465d3e404,0,138,138,142,1,fourtwo,,,,,,,,,,,,,,,,,,,,,,,,,,,,,,,,,,,,,,,,,,,,,,,,,,,,,,,,,,,,,,,,,,,,,,,,,,,,,,,,,,,,,,,,,,,,,,,,,,,,,,,,,,,,,,,,,,,,,,,,,,,,,,,,,,,,,,,,,,,,,,,,,,,,,,,,
,,,,,,5ec44adb04069732a53a7bee,62bbfb59a3c281fa050a9833,2022-06-29_09h12.33.647,Colour_Asymmetry_Pilot,2022.1.3,Win32,144.092219,62bbe60bf3d75ef465d3e404,0,139,139,82,1,twoone,,,,,,,,,,,,,,,,,,,,,,,,,,,,,,,,,,,,,,,,,,,,,,,,,,,,,,,,,,,,,,,,,,,,,,,,,,,,,,,,,,,,,,,,,,,,,,,,,,,,,,,,,,,,,,,,,,,,,,,,,,,,,,,,,,,,,,,,,,,,,,,,,,,,,,,,
,,,,,,5ec44adb04069732a53a7bee,62bbfb59a3c281fa050a9833,2022-06-29_09h12.33.647,Colour_Asymmetry_Pilot,2022.1.3,Win32,144.092219,62bbe60bf3d75ef465d3e404,0,140,140,161,1,onethree,,,,,,,,,,,,,,,,,,,,,,,,,,,,,,,,,,,,,,,,,,,,,,,,,,,,,,,,,,,,,,,,,,,,,,,,,,,,,,,,,,,,,,,,,,,,,,,,,,,,,,,,,,,,,,,,,,,,,,,,,,,,,,,,,,,,,,,,,,,,,,,,,,,,,,,,
,,,,,,5ec44adb04069732a53a7bee,62bbfb59a3c281fa050a9833,2022-06-29_09h12.33.647,Colour_Asymmetry_Pilot,2022.1.3,Win32,144.092219,62bbe60bf3d75ef465d3e404,0,141,141,89,1,onethree,,,,,,,,,,,,,,,,,,,,,,,,,,,,,,,,,,,,,,,,,,,,,,,,,,,,,,,,,,,,,,,,,,,,,,,,,,,,,,,,,,,,,,,,,,,,,,,,,,,,,,,,,,,,,,,,,,,,,,,,,,,,,,,,,,,,,,,,,,,,,,,,,,,,,,,,
,,,,,,5ec44adb04069732a53a7bee,62bbfb59a3c281fa050a9833,2022-06-29_09h12.33.647,Colour_Asymmetry_Pilot,2022.1.3,Win32,144.092219,62bbe60bf3d75ef465d3e404,0,142,142,3,1,twofour,,,,,,,,,,,,,,,,,,,,,,,,,,,,,,,,,,,,,,,,,,,,,,,,,,,,,,,,,,,,,,,,,,,,,,,,,,,,,,,,,,,,,,,,,,,,,,,,,,,,,,,,,,,,,,,,,,,,,,,,,,,,,,,,,,,,,,,,,,,,,,,,,,,,,,,,
,,,,,,5ec44adb04069732a53a7bee,62bbfb59a3c281fa050a9833,2022-06-29_09h12.33.647,Colour_Asymmetry_Pilot,2022.1.3,Win32,144.092219,62bbe60bf3d75ef465d3e404,0,143,143,77,1,threefour,,,,,,,,,,,,,,,,,,,,,,,,,,,,,,,,,,,,,,,,,,,,,,,,,,,,,,,,,,,,,,,,,,,,,,,,,,,,,,,,,,,,,,,,,,,,,,,,,,,,,,,,,,,,,,,,,,,,,,,,,,,,,,,,,,,,,,,,,,,,,,,,,,,,,,,,
,,,,,,5ec44adb04069732a53a7bee,62bbfb59a3c281fa050a9833,2022-06-29_09h12.33.647,Colour_Asymmetry_Pilot,2022.1.3,Win32,144.092219,62bbe60bf3d75ef465d3e404,0,144,144,62,1,fourtwo,,,,,,,,,,,,,,,,,,,,,,,,,,,,,,,,,,,,,,,,,,,,,,,,,,,,,,,,,,,,,,,,,,,,,,,,,,,,,,,,,,,,,,,,,,,,,,,,,,,,,,,,,,,,,,,,,,,,,,,,,,,,,,,,,,,,,,,,,,,,,,,,,,,,,,,,
,,,,,,5ec44adb04069732a53a7bee,62bbfb59a3c281fa050a9833,2022-06-29_09h12.33.647,Colour_Asymmetry_Pilot,2022.1.3,Win32,144.092219,62bbe60bf3d75ef465d3e404,0,145,145,35,1,twofour,,,,,,,,,,,,,,,,,,,,,,,,,,,,,,,,,,,,,,,,,,,,,,,,,,,,,,,,,,,,,,,,,,,,,,,,,,,,,,,,,,,,,,,,,,,,,,,,,,,,,,,,,,,,,,,,,,,,,,,,,,,,,,,,,,,,,,,,,,,,,,,,,,,,,,,,
,,,,,,5ec44adb04069732a53a7bee,62bbfb59a3c281fa050a9833,2022-06-29_09h12.33.647,Colour_Asymmetry_Pilot,2022.1.3,Win32,144.092219,62bbe60bf3d75ef465d3e404,0,146,146,16,1,onetwo,,,,,,,,,,,,,,,,,,,,,,,,,,,,,,,,,,,,,,,,,,,,,,,,,,,,,,,,,,,,,,,,,,,,,,,,,,,,,,,,,,,,,,,,,,,,,,,,,,,,,,,,,,,,,,,,,,,,,,,,,,,,,,,,,,,,,,,,,,,,,,,,,,,,,,,,
,,,,,,5ec44adb04069732a53a7bee,62bbfb59a3c281fa050a9833,2022-06-29_09h12.33.647,Colour_Asymmetry_Pilot,2022.1.3,Win32,144.092219,62bbe60bf3d75ef465d3e404,0,147,147,133,1,threefour,,,,,,,,,,,,,,,,,,,,,,,,,,,,,,,,,,,,,,,,,,,,,,,,,,,,,,,,,,,,,,,,,,,,,,,,,,,,,,,,,,,,,,,,,,,,,,,,,,,,,,,,,,,,,,,,,,,,,,,,,,,,,,,,,,,,,,,,,,,,,,,,,,,,,,,,
,,,,,,5ec44adb04069732a53a7bee,62bbfb59a3c281fa050a9833,2022-06-29_09h12.33.647,Colour_Asymmetry_Pilot,2022.1.3,Win32,144.092219,62bbe60bf3d75ef465d3e404,0,148,148,114,1,twoone,,,,,,,,,,,,,,,,,,,,,,,,,,,,,,,,,,,,,,,,,,,,,,,,,,,,,,,,,,,,,,,,,,,,,,,,,,,,,,,,,,,,,,,,,,,,,,,,,,,,,,,,,,,,,,,,,,,,,,,,,,,,,,,,,,,,,,,,,,,,,,,,,,,,,,,,
,,,,,,5ec44adb04069732a53a7bee,62bbfb59a3c281fa050a9833,2022-06-29_09h12.33.647,Colour_Asymmetry_Pilot,2022.1.3,Win32,144.092219,62bbe60bf3d75ef465d3e404,0,149,149,80,1,onetwo,,,,,,,,,,,,,,,,,,,,,,,,,,,,,,,,,,,,,,,,,,,,,,,,,,,,,,,,,,,,,,,,,,,,,,,,,,,,,,,,,,,,,,,,,,,,,,,,,,,,,,,,,,,,,,,,,,,,,,,,,,,,,,,,,,,,,,,,,,,,,,,,,,,,,,,,
,,,,,,5ec44adb04069732a53a7bee,62bbfb59a3c281fa050a9833,2022-06-29_09h12.33.647,Colour_Asymmetry_Pilot,2022.1.3,Win32,144.092219,62bbe60bf3d75ef465d3e404,0,150,150,130,1,twoone,,,,,,,,,,,,,,,,,,,,,,,,,,,,,,,,,,,,,,,,,,,,,,,,,,,,,,,,,,,,,,,,,,,,,,,,,,,,,,,,,,,,,,,,,,,,,,,,,,,,,,,,,,,,,,,,,,,,,,,,,,,,,,,,,,,,,,,,,,,,,,,,,,,,,,,,
,,,,,,5ec44adb04069732a53a7bee,62bbfb59a3c281fa050a9833,2022-06-29_09h12.33.647,Colour_Asymmetry_Pilot,2022.1.3,Win32,144.092219,62bbe60bf3d75ef465d3e404,0,151,151,67,1,twofour,,,,,,,,,,,,,,,,,,,,,,,,,,,,,,,,,,,,,,,,,,,,,,,,,,,,,,,,,,,,,,,,,,,,,,,,,,,,,,,,,,,,,,,,,,,,,,,,,,,,,,,,,,,,,,,,,,,,,,,,,,,,,,,,,,,,,,,,,,,,,,,,,,,,,,,,
,,,,,,5ec44adb04069732a53a7bee,62bbfb59a3c281fa050a9833,2022-06-29_09h12.33.647,Colour_Asymmetry_Pilot,2022.1.3,Win32,144.092219,62bbe60bf3d75ef465d3e404,0,152,152,63,1,fourthree,,,,,,,,,,,,,,,,,,,,,,,,,,,,,,,,,,,,,,,,,,,,,,,,,,,,,,,,,,,,,,,,,,,,,,,,,,,,,,,,,,,,,,,,,,,,,,,,,,,,,,,,,,,,,,,,,,,,,,,,,,,,,,,,,,,,,,,,,,,,,,,,,,,,,,,,
,,,,,,5ec44adb04069732a53a7bee,62bbfb59a3c281fa050a9833,2022-06-29_09h12.33.647,Colour_Asymmetry_Pilot,2022.1.3,Win32,144.092219,62bbe60bf3d75ef465d3e404,0,153,153,42,1,twoone,,,,,,,,,,,,,,,,,,,,,,,,,,,,,,,,,,,,,,,,,,,,,,,,,,,,,,,,,,,,,,,,,,,,,,,,,,,,,,,,,,,,,,,,,,,,,,,,,,,,,,,,,,,,,,,,,,,,,,,,,,,,,,,,,,,,,,,,,,,,,,,,,,,,,,,,
,,,,,,5ec44adb04069732a53a7bee,62bbfb59a3c281fa050a9833,2022-06-29_09h12.33.647,Colour_Asymmetry_Pilot,2022.1.3,Win32,144.092219,62bbe60bf3d75ef465d3e404,0,154,154,149,1,threefour,,,,,,,,,,,,,,,,,,,,,,,,,,,,,,,,,,,,,,,,,,,,,,,,,,,,,,,,,,,,,,,,,,,,,,,,,,,,,,,,,,,,,,,,,,,,,,,,,,,,,,,,,,,,,,,,,,,,,,,,,,,,,,,,,,,,,,,,,,,,,,,,,,,,,,,,
,,,,,,5ec44adb04069732a53a7bee,62bbfb59a3c281fa050a9833,2022-06-29_09h12.33.647,Colour_Asymmetry_Pilot,2022.1.3,Win32,144.092219,62bbe60bf3d75ef465d3e404,0,155,155,90,1,twoone,,,,,,,,,,,,,,,,,,,,,,,,,,,,,,,,,,,,,,,,,,,,,,,,,,,,,,,,,,,,,,,,,,,,,,,,,,,,,,,,,,,,,,,,,,,,,,,,,,,,,,,,,,,,,,,,,,,,,,,,,,,,,,,,,,,,,,,,,,,,,,,,,,,,,,,,
,,,,,,5ec44adb04069732a53a7bee,62bbfb59a3c281fa050a9833,2022-06-29_09h12.33.647,Colour_Asymmetry_Pilot,2022.1.3,Win32,144.092219,62bbe60bf3d75ef465d3e404,0,156,156,75,1,twofour,,,,,,,,,,,,,,,,,,,,,,,,,,,,,,,,,,,,,,,,,,,,,,,,,,,,,,,,,,,,,,,,,,,,,,,,,,,,,,,,,,,,,,,,,,,,,,,,,,,,,,,,,,,,,,,,,,,,,,,,,,,,,,,,,,,,,,,,,,,,,,,,,,,,,,,,
,,,,,,5ec44adb04069732a53a7bee,62bbfb59a3c281fa050a9833,2022-06-29_09h12.33.647,Colour_Asymmetry_Pilot,2022.1.3,Win32,144.092219,62bbe60bf3d75ef465d3e404,0,157,157,45,1,threefour,,,,,,,,,,,,,,,,,,,,,,,,,,,,,,,,,,,,,,,,,,,,,,,,,,,,,,,,,,,,,,,,,,,,,,,,,,,,,,,,,,,,,,,,,,,,,,,,,,,,,,,,,,,,,,,,,,,,,,,,,,,,,,,,,,,,,,,,,,,,,,,,,,,,,,,,
,,,,,,5ec44adb04069732a53a7bee,62bbfb59a3c281fa050a9833,2022-06-29_09h12.33.647,Colour_Asymmetry_Pilot,2022.1.3,Win32,144.092219,62bbe60bf3d75ef465d3e404,0,158,158,49,1,onethree,,,,,,,,,,,,,,,,,,,,,,,,,,,,,,,,,,,,,,,,,,,,,,,,,,,,,,,,,,,,,,,,,,,,,,,,,,,,,,,,,,,,,,,,,,,,,,,,,,,,,,,,,,,,,,,,,,,,,,,,,,,,,,,,,,,,,,,,,,,,,,,,,,,,,,,,
,,,,,,5ec44adb04069732a53a7bee,62bbfb59a3c281fa050a9833,2022-06-29_09h12.33.647,Colour_Asymmetry_Pilot,2022.1.3,Win32,144.092219,62bbe60bf3d75ef465d3e404,0,159,159,118,1,fourtwo,,,,,,,,,,,,,,,,,,,,,,,,,,,,,,,,,,,,,,,,,,,,,,,,,,,,,,,,,,,,,,,,,,,,,,,,,,,,,,,,,,,,,,,,,,,,,,,,,,,,,,,,,,,,,,,,,,,,,,,,,,,,,,,,,,,,,,,,,,,,,,,,,,,,,,,,
,,,,,,5ec44adb04069732a53a7bee,62bbfb59a3c281fa050a9833,2022-06-29_09h12.33.647,Colour_Asymmetry_Pilot,2022.1.3,Win32,144.092219,62bbe60bf3d75ef465d3e404,0,160,160,87,1,fourthree,,,,,,,,,,,,,,,,,,,,,,,,,,,,,,,,,,,,,,,,,,,,,,,,,,,,,,,,,,,,,,,,,,,,,,,,,,,,,,,,,,,,,,,,,,,,,,,,,,,,,,,,,,,,,,,,,,,,,,,,,,,,,,,,,,,,,,,,,,,,,,,,,,,,,,,,
,,,,,,5ec44adb04069732a53a7bee,62bbfb59a3c281fa050a9833,2022-06-29_09h12.33.647,Colour_Asymmetry_Pilot,2022.1.3,Win32,144.092219,62bbe60bf3d75ef465d3e404,0,161,161,43,1,twofour,,,,,,,,,,,,,,,,,,,,,,,,,,,,,,,,,,,,,,,,,,,,,,,,,,,,,,,,,,,,,,,,,,,,,,,,,,,,,,,,,,,,,,,,,,,,,,,,,,,,,,,,,,,,,,,,,,,,,,,,,,,,,,,,,,,,,,,,,,,,,,,,,,,,,,,,
,,,,,,5ec44adb04069732a53a7bee,62bbfb59a3c281fa050a9833,2022-06-29_09h12.33.647,Colour_Asymmetry_Pilot,2022.1.3,Win32,144.092219,62bbe60bf3d75ef465d3e404,,,,,,,space,1.515,space,9.715,space,18.887,space,4.827,space,1.508,space,5.889,"[-0.6942,-0.7648,-0.12959999999999994]",onetwo,"[-0.8118,-0.8198,-0.5452]",4,8.793,51,114,1,0,0,response1disk_5,3,2,1,0,0,rectangle_8,3,2,1,0,0,1,3,2,1,0,0,0,0,0,0,1,,,,,,,,,,,,,,,,,,,,,,,,,,,,,,,,,,,,,,,,,,,,,,,,,,,,,,,,,,,,,,,,,,,,,,,,,,,,,,,,,,,,,,,,,,,,,,,,,,,,,,,,,,,
,,,,,,5ec44adb04069732a53a7bee,62bbfb59a3c281fa050a9833,2022-06-29_09h12.33.647,Colour_Asymmetry_Pilot,2022.1.3,Win32,144.092219,62bbe60bf3d75ef465d3e404,,,,,,,,,,,,,,,,,,,"[0.7802,-0.23140000000000005,-0.20799999999999996]",twofour,"[0.4196,0.4665999999999999,0.3568]",3,4.514,100,46,1,0,0,response1disk_5,23,3,1,0,0,rectangle_8,23,3,1,0,0,1,23,3,1,0,0,1,0,1,0,1,,,,,,,,,,,,,,,,,,,,,,,,,,,,,,,,,,,,,,,,,,,,,,,,,,,,,,,,,,,,,,,,,,,,,,,,,,,,,,,,,,,,,,,,,,,,,,,,,,,,,,,,,,,
,,,,,,5ec44adb04069732a53a7bee,62bbfb59a3c281fa050a9833,2022-06-29_09h12.33.647,Colour_Asymmetry_Pilot,2022.1.3,Win32,144.092219,62bbe60bf3d75ef465d3e404,,,,,,,,,,,,,,,,,,,"[0.9213999999999998,0.6391999999999998,-0.9922]",onethree,"[-0.7412000000000001,-0.08239999999999992,-0.6864]",-4,2.543,-47,112,1,0,0,response7disk_5,3,-4,1,0,0,rectangle_8,41,-130,1,0,0,1,12,-5,1,0,0,2,0,2,0,1,response3disk_7,4,rectangle_4,,,,,,,,,,,,,,,,,,,,,,,,,,,,,,,,,,,,,,,,,,,,,,,,,,,,,,,,,,,,,,,,,,,,,,,,,,,,,,,,,,,,,,,,,,,,,,,,,,,,,,,,
,,,,,,5ec44adb04069732a53a7bee,62bbfb59a3c281fa050a9833,2022-06-29_09h12.33.647,Colour_Asymmetry_Pilot,2022.1.3,Win32,144.092219,62bbe60bf3d75ef465d3e404,,,,,,,,,,,,,,,,,,,"[0.09799999999999986,-0.24719999999999998,0.15280000000000005]",threeone,"[0.9686000000000001,0.5763999999999998,0.11359999999999992]",-4,2.161,-44,102,1,0,0,response7disk_5,-13,-8,1,0,0,rectangle_8,59,-99,1,0,0,1,-10,-1,1,0,0,3,0,3,0,1,response3disk_7,4,rectangle_4,,,,,,,,,,,,,,,,,,,,,,,,,,,,,,,,,,,,,,,,,,,,,,,,,,,,,,,,,,,,,,,,,,,,,,,,,,,,,,,,,,,,,,,,,,,,,,,,,,,,,,,,
,,,,,,5ec44adb04069732a53a7bee,62bbfb59a3c281fa050a9833,2022-06-29_09h12.33.647,Colour_Asymmetry_Pilot,2022.1.3,Win32,144.092219,62bbe60bf3d75ef465d3e404,,,,,,,,,,,,,,,,,,,"[0.7018,0.7176,0.6155999999999999]",threeone,"[0.5528,0.7409999999999999,-0.71]",-4,1.958,-34,75,1,0,0,response7disk_5,13,-5,1,0,0,rectangle_8,13,-5,1,0,0,1,13,-5,1,0,0,4,0,4,0,1,,,,,,,,,,,,,,,,,,,,,,,,,,,,,,,,,,,,,,,,,,,,,,,,,,,,,,,,,,,,,,,,,,,,,,,,,,,,,,,,,,,,,,,,,,,,,,,,,,,,,,,,,,,
,,,,,,5ec44adb04069732a53a7bee,62bbfb59a3c281fa050a9833,2022-06-29_09h12.33.647,Colour_Asymmetry_Pilot,2022.1.3,Win32,144.092219,62bbe60bf3d75ef465d3e404,,,,,,,,,,,,,,,,,,,"[0.7176,-0.906,-0.6864]",twofour,"[-0.8118,-0.8198,-0.5452]",-4,1.062,-49,82,1,0,0,response7disk_5,-1,4,1,0,0,rectangle_8,-1,4,1,0,0,1,-1,4,1,0,0,5,0,5,0,1,,,,,,,,,,,,,,,,,,,,,,,,,,,,,,,,,,,,,,,,,,,,,,,,,,,,,,,,,,,,,,,,,,,,,,,,,,,,,,,,,,,,,,,,,,,,,,,,,,,,,,,,,,,
,,,,,,5ec44adb04069732a53a7bee,62bbfb59a3c281fa050a9833,2022-06-29_09h12.33.647,Colour_Asymmetry_Pilot,2022.1.3,Win32,144.092219,62bbe60bf3d75ef465d3e404,,,,,,,,,,,,,,,,,,,"[0.9372,0.20779999999999998,0.2704]",onetwo,"[0.19199999999999995,0.18419999999999992,0.5136000000000001]",-3,1.277,-91,44,1,0,0,response7disk_5,-5,-1,1,0,0,rectangle_8,-5,-1,1,0,0,1,-5,-1,1,0,0,6,0,6,0,1,,,,,,,,,,,,,,,,,,,,,,,,,,,,,,,,,,,,,,,,,,,,,,,,,,,,,,,,,,,,,,,,,,,,,,,,,,,,,,,,,,,,,,,,,,,,,,,,,,,,,,,,,,,
,,,,,,5ec44adb04069732a53a7bee,62bbfb59a3c281fa050a9833,2022-06-29_09h12.33.647,Colour_Asymmetry_Pilot,2022.1.3,Win32,144.092219,62bbe60bf3d75ef465d3e404,,,,,,,,,,,,,,,,,,,,fourtwo,,-4,1.452,,,,,,,,,,,,,,,,,,,,,,,,,,,,,,,,space,3.898,"[-0.2942,-0.24719999999999998,-0.357]","[0.9763999999999999,0.8588,-0.05900000000000005]",-44,107,1,0,0,response7disk,-23,3,1,0,0,rectangle,-23,3,1,0,0,,1,0.001,0,-23,3,1,0,0,0,0,0,2,1,2,first,,,,,,,,,,,,,,,,,,,,,,,,,,,,,,,,,,,,,,,,,,,,,,,,,,,,,,,,,,,,,,,,,,,
,,,,,,5ec44adb04069732a53a7bee,62bbfb59a3c281fa050a9833,2022-06-29_09h12.33.647,Colour_Asymmetry_Pilot,2022.1.3,Win32,144.092219,62bbe60bf3d75ef465d3e404,,,,,,,,,,,,,,,,,,,,fourthree,,-2,0.854,,,,,,,,,,,,,,,,,,,,,,,,,,,,,,,,,,"[-0.38039999999999996,-0.4276,-0.1452]","[-0.24719999999999998,-0.0354000000000001,0.3175999999999999]",-98,-37,1,0,0,response5disk,-4,-3,1,0,0,rectangle,-4,-3,1,0,0,,1,0,0,-4,-3,1,0,0,0,1,1,116,1,35,second,,,,,,,,,,,,,,,,,,,,,,,,,,,,,,,,,,,,,,,,,,,,,,,,,,,,,,,,,,,,,,,,,,,
,,,,,,5ec44adb04069732a53a7bee,62bbfb59a3c281fa050a9833,2022-06-29_09h12.33.647,Colour_Asymmetry_Pilot,2022.1.3,Win32,144.092219,62bbe60bf3d75ef465d3e404,,,,,,,,,,,,,,,,,,,,onetwo,,-4,2.291,,,,,,,,,,,,,,,,,,,,,,,,,,,,,,,,,,"[-0.4982,-0.2942,-0.0354000000000001]","[0.0351999999999999,0.41159999999999997,0.0038000000000000256]",-64,111,1,0,0,response7disk,12,2,1,0,0,rectangle,12,2,1,0,0,,2,0,0,12,2,1,0,0,0,2,2,117,1,36,second,,,,,,,,,,,,,,,,,,,,,,,,,,,,,,,,,,,,,,,,,,,,,,,,,,,,,,,,,,,,,,,,,,,
,,,,,,5ec44adb04069732a53a7bee,62bbfb59a3c281fa050a9833,2022-06-29_09h12.33.647,Colour_Asymmetry_Pilot,2022.1.3,Win32,144.092219,62bbe60bf3d75ef465d3e404,,,,,,,,,,,,,,,,,,,,twofour,,-4,0.361,,,,,,,,,,,,,,,,,,,,,,,,,,,,,,,,,,"[-0.4746,-0.0354000000000001,0.5449999999999999]","[0.5528,0.7409999999999999,-0.71]",-49,105,1,0,0,response7disk,-7,7,1,0,0,rectangle,-7,7,1,0,0,,3,0.001,0,-7,7,1,0,0,0,3,3,73,1,73,first,,,,,,,,,,,,,,,,,,,,,,,,,,,,,,,,,,,,,,,,,,,,,,,,,,,,,,,,,,,,,,,,,,,
,,,,,,5ec44adb04069732a53a7bee,62bbfb59a3c281fa050a9833,2022-06-29_09h12.33.647,Colour_Asymmetry_Pilot,2022.1.3,Win32,144.092219,62bbe60bf3d75ef465d3e404,,,,,,,,,,,,,,,,,,,,threeone,,-4,0.305,,,,,,,,,,,,,,,,,,,,,,,,,,,,,,,,,,"[-0.6,0.16860000000000008,0.44300000000000006]","[1,0.12939999999999996,-1]",-47,98,1,0,0,response7disk,2,0,1,0,0,rectangle,2,0,1,0,0,,2,0.001,0,2,0,1,0,0,0,4,4,29,1,29,first,,,,,,,,,,,,,,,,,,,,,,,,,,,,,,,,,,,,,,,,,,,,,,,,,,,,,,,,,,,,,,,,,,,
,,,,,,5ec44adb04069732a53a7bee,62bbfb59a3c281fa050a9833,2022-06-29_09h12.33.647,Colour_Asymmetry_Pilot,2022.1.3,Win32,144.092219,62bbe60bf3d75ef465d3e404,,,,,,,,,,,,,,,,,,,,onetwo,,-3,1.736,,,,,,,,,,,,,,,,,,,,,,,,,,,,,,,,,,"[-0.09019999999999995,0.44300000000000006,0.5371999999999999]","[-0.10599999999999998,-0.10599999999999998,0.5841999999999998]",-104,45,1,0,0,response7disk,-10,-3,1,0,0,rectangle,-10,-3,1,0,0,,1,0,0,-10,-3,1,0,0,0,5,5,3,1,3,first,,,,,,,,,,,,,,,,,,,,,,,,,,,,,,,,,,,,,,,,,,,,,,,,,,,,,,,,,,,,,,,,,,,
,,,,,,5ec44adb04069732a53a7bee,62bbfb59a3c281fa050a9833,2022-06-29_09h12.33.647,Colour_Asymmetry_Pilot,2022.1.3,Win32,144.092219,62bbe60bf3d75ef465d3e404,,,,,,,,,,,,,,,,,,,,twofour,,3,1.083,,,,,,,,,,,,,,,,,,,,,,,,,,,,,,,,,,"[-0.01980000000000004,-0.5138,-0.38039999999999996]","[0.9372,0.20779999999999998,0.2704]",95,50,1,0,0,response1disk,13,4,1,0,0,rectangle,13,4,1,0,0,,1,0,0,13,4,1,0,0,0,6,6,151,1,70,second,,,,,,,,,,,,,,,,,,,,,,,,,,,,,,,,,,,,,,,,,,,,,,,,,,,,,,,,,,,,,,,,,,,
,,,,,,5ec44adb04069732a53a7bee,62bbfb59a3c281fa050a9833,2022-06-29_09h12.33.647,Colour_Asymmetry_Pilot,2022.1.3,Win32,144.092219,62bbe60bf3d75ef465d3e404,,,,,,,,,,,,,,,,,,,,threeone,,-4,1.917,,,,,,,,,,,,,,,,,,,,,,,,,,,,,,,,,,"[-0.4276,0.0038000000000000256,-0.3256]","[-0.09019999999999995,0.44300000000000006,0.5371999999999999]",-41,91,1,0,0,response7disk,-15,1,1,0,0,rectangle,-15,1,1,0,0,,3,0.001,0,-15,1,1,0,0,0,7,7,149,1,68,second,,,,,,,,,,,,,,,,,,,,,,,,,,,,,,,,,,,,,,,,,,,,,,,,,,,,,,,,,,,,,,,,,,,
,,,,,,5ec44adb04069732a53a7bee,62bbfb59a3c281fa050a9833,2022-06-29_09h12.33.647,Colour_Asymmetry_Pilot,2022.1.3,Win32,144.092219,62bbe60bf3d75ef465d3e404,,,,,,,,,,,,,,,,,,,,onetwo,,-4,0.34,,,,,,,,,,,,,,,,,,,,,,,,,,,,,,,,,,"[0.22340000000000004,-0.9296,-0.7884]","[-0.4668,-0.8746,-0.2942]",-41,93,1,0,0,response7disk,-8,0,1,0,0,rectangle,-8,0,1,0,0,,2,0.001,0,-8,0,1,0,0,0,8,8,31,1,31,first,,,,,,,,,,,,,,,,,,,,,,,,,,,,,,,,,,,,,,,,,,,,,,,,,,,,,,,,,,,,,,,,,,,
,,,,,,5ec44adb04069732a53a7bee,62bbfb59a3c281fa050a9833,2022-06-29_09h12.33.647,Colour_Asymmetry_Pilot,2022.1.3,Win32,144.092219,62bbe60bf3d75ef465d3e404,,,,,,,,,,,,,,,,,,,,onethree,,-3,0.702,,,,,,,,,,,,,,,,,,,,,,,,,,,,,,,,,,"[0.12939999999999996,-0.2864,0.3253999999999999]","[-0.6942,-0.7648,-0.12959999999999994]",-81,44,1,0,0,response7disk,-3,1,1,0,0,rectangle,-3,1,1,0,0,,1,0.001,0,-3,1,1,0,0,0,9,9,140,1,59,second,,,,,,,,,,,,,,,,,,,,,,,,,,,,,,,,,,,,,,,,,,,,,,,,,,,,,,,,,,,,,,,,,,,
,,,,,,5ec44adb04069732a53a7bee,62bbfb59a3c281fa050a9833,2022-06-29_09h12.33.647,Colour_Asymmetry_Pilot,2022.1.3,Win32,144.092219,62bbe60bf3d75ef465d3e404,,,,,,,,,,,,,,,,,,,,onethree,,-4,2.245,,,,,,,,,,,,,,,,,,,,,,,,,,,,,,,,,,"[0.34099999999999997,0.5841999999999998,-0.9844]","[-0.09019999999999995,0.44300000000000006,0.5371999999999999]",-44,98,1,0,0,response7disk,-4,1,1,0,0,rectangle,-4,1,1,0,0,,2,0,0,-4,1,1,0,0,0,10,10,78,1,78,first,,,,,,,,,,,,,,,,,,,,,,,,,,,,,,,,,,,,,,,,,,,,,,,,,,,,,,,,,,,,,,,,,,,
,,,,,,5ec44adb04069732a53a7bee,62bbfb59a3c281fa050a9833,2022-06-29_09h12.33.647,Colour_Asymmetry_Pilot,2022.1.3,Win32,144.092219,62bbe60bf3d75ef465d3e404,,,,,,,,,,,,,,,,,,,,onetwo,,-3,2.077,,,,,,,,,,,,,,,,,,,,,,,,,,,,,,,,,,"[-0.24719999999999998,-0.0354000000000001,0.3175999999999999]","[-0.17659999999999998,0.3253999999999999,0.19999999999999996]",-86,41,1,0,0,response7disk,-29,-1,1,0,0,rectangle,-29,-1,1,0,0,,2,0,0,-29,-1,1,0,0,0,11,11,91,1,10,second,,,,,,,,,,,,,,,,,,,,,,,,,,,,,,,,,,,,,,,,,,,,,,,,,,,,,,,,,,,,,,,,,,,
,,,,,,5ec44adb04069732a53a7bee,62bbfb59a3c281fa050a9833,2022-06-29_09h12.33.647,Colour_Asymmetry_Pilot,2022.1.3,Win32,144.092219,62bbe60bf3d75ef465d3e404,,,,,,,,,,,,,,,,,,,,onethree,,-4,1.251,,,,,,,,,,,,,,,,,,,,,,,,,,,,,,,,,,"[0.9372,0.20779999999999998,0.2704]","[-0.4982,-0.2942,-0.0354000000000001]",-41,75,1,0,0,response7disk,-7,6,1,0,0,rectangle,-7,6,1,0,0,,2,0,0,-7,6,1,0,0,0,12,12,135,1,54,second,,,,,,,,,,,,,,,,,,,,,,,,,,,,,,,,,,,,,,,,,,,,,,,,,,,,,,,,,,,,,,,,,,,
,,,,,,5ec44adb04069732a53a7bee,62bbfb59a3c281fa050a9833,2022-06-29_09h12.33.647,Colour_Asymmetry_Pilot,2022.1.3,Win32,144.092219,62bbe60bf3d75ef465d3e404,,,,,,,,,,,,,,,,,,,,onethree,,2,7.168,,,,,,,,,,,,,,,,,,,,,,,,,,,,,,,,,,"[-0.9216,-0.5529999999999999,-0.3962]","[-0.8982,-0.37259999999999993,0.2784]",59,-41,1,0,0,response3disk,8,2,1,0,0,rectangle,43,-93,1,0,0,1,1,2.861,1,5,-7,1,0,0,0,13,13,160,1,79,second,response3disk_3,rectangle,,,,,,,,,,,,,,,,,,,,,,,,,,,,,,,,,,,,,,,,,,,,,,,,,,,,,,,,,,,,,,,,,
,,,,,,5ec44adb04069732a53a7bee,62bbfb59a3c281fa050a9833,2022-06-29_09h12.33.647,Colour_Asymmetry_Pilot,2022.1.3,Win32,144.092219,62bbe60bf3d75ef465d3e404,,,,,,,,,,,,,,,,,,,,fourtwo,,3,1.062,,,,,,,,,,,,,,,,,,,,,,,,,,,,,,,,,,"[-0.24719999999999998,-0.0354000000000001,0.3175999999999999]","[-0.38039999999999996,-0.4276,-0.1452]",76,44,1,0,0,response1disk,15,8,1,0,0,rectangle,15,8,1,0,0,1,1,0,0,15,8,1,0,0,0,14,14,35,1,35,first,,,,,,,,,,,,,,,,,,,,,,,,,,,,,,,,,,,,,,,,,,,,,,,,,,,,,,,,,,,,,,,,,,,
,,,,,,5ec44adb04069732a53a7bee,62bbfb59a3c281fa050a9833,2022-06-29_09h12.33.647,Colour_Asymmetry_Pilot,2022.1.3,Win32,144.092219,62bbe60bf3d75ef465d3e404,,,,,,,,,,,,,,,,,,,,twofour,,-1,1.417,,,,,,,,,,,,,,,,,,,,,,,,,,,,,,,,,,"[-0.10599999999999998,-0.15300000000000002,0.15280000000000005]","[0.5449999999999999,-0.31000000000000005,-0.0354000000000001]",-34,-100,1,0,0,response5disk,-17,-4,1,0,0,rectangle,-17,-4,1,0,0,1,1,0,0,-17,-4,1,0,0,0,15,15,12,1,12,first,,,,,,,,,,,,,,,,,,,,,,,,,,,,,,,,,,,,,,,,,,,,,,,,,,,,,,,,,,,,,,,,,,,
,,,,,,5ec44adb04069732a53a7bee,62bbfb59a3c281fa050a9833,2022-06-29_09h12.33.647,Colour_Asymmetry_Pilot,2022.1.3,Win32,144.092219,62bbe60bf3d75ef465d3e404,,,,,,,,,,,,,,,,,,,,fourtwo,,-3,0.619,,,,,,,,,,,,,,,,,,,,,,,,,,,,,,,,,,"[-0.09019999999999995,0.44300000000000006,0.5371999999999999]","[0.34099999999999997,0.5841999999999998,-0.9844]",-83,35,1,0,0,response7disk,-6,-2,1,0,0,rectangle,66,-97,1,0,0,1,1,1.868,1,-1,4,1,0,0,0,16,16,159,1,78,second,response3disk_3,rectangle,,,,,,,,,,,,,,,,,,,,,,,,,,,,,,,,,,,,,,,,,,,,,,,,,,,,,,,,,,,,,,,,,
,,,,,,5ec44adb04069732a53a7bee,62bbfb59a3c281fa050a9833,2022-06-29_09h12.33.647,Colour_Asymmetry_Pilot,2022.1.3,Win32,144.092219,62bbe60bf3d75ef465d3e404,,,,,,,,,,,,,,,,,,,,onetwo,,-4,1.111,,,,,,,,,,,,,,,,,,,,,,,,,,,,,,,,,,"[0.9763999999999999,0.8588,-0.05900000000000005]","[-0.48240000000000005,0.3175999999999999,0.2156]",-73,112,1,0,0,response7disk,-7,-5,1,0,0,rectangle,-7,-5,1,0,0,1,1,0,0,-7,-5,1,0,0,0,17,17,157,1,76,second,,,,,,,,,,,,,,,,,,,,,,,,,,,,,,,,,,,,,,,,,,,,,,,,,,,,,,,,,,,,,,,,,,,
,,,,,,5ec44adb04069732a53a7bee,62bbfb59a3c281fa050a9833,2022-06-29_09h12.33.647,Colour_Asymmetry_Pilot,2022.1.3,Win32,144.092219,62bbe60bf3d75ef465d3e404,,,,,,,,,,,,,,,,,,,,twoone,,-3,1.091,,,,,,,,,,,,,,,,,,,,,,,,,,,,,,,,,,"[0.0351999999999999,0.41159999999999997,0.0038000000000000256]","[-0.38039999999999996,-0.4276,-0.1452]",-105,58,1,0,0,response7disk,-21,-1,1,0,0,rectangle,-21,-1,1,0,0,1,3,0.001,0,-21,-1,1,0,0,0,18,18,133,1,52,second,,,,,,,,,,,,,,,,,,,,,,,,,,,,,,,,,,,,,,,,,,,,,,,,,,,,,,,,,,,,,,,,,,,
,,,,,,5ec44adb04069732a53a7bee,62bbfb59a3c281fa050a9833,2022-06-29_09h12.33.647,Colour_Asymmetry_Pilot,2022.1.3,Win32,144.092219,62bbe60bf3d75ef465d3e404,,,,,,,,,,,,,,,,,,,,fourthree,,-2,4.167,,,,,,,,,,,,,,,,,,,,,,,,,,,,,,,,,,"[-0.011800000000000033,-0.906,-0.45100000000000007]","[-0.9216,-0.5529999999999999,-0.3962]",-99,-64,1,0,0,response5disk,-19,1,1,0,0,rectangle,-19,1,1,0,0,1,2,0.001,0,-19,1,1,0,0,0,19,19,143,1,62,second,,,,,,,,,,,,,,,,,,,,,,,,,,,,,,,,,,,,,,,,,,,,,,,,,,,,,,,,,,,,,,,,,,,
,,,,,,5ec44adb04069732a53a7bee,62bbfb59a3c281fa050a9833,2022-06-29_09h12.33.647,Colour_Asymmetry_Pilot,2022.1.3,Win32,144.092219,62bbe60bf3d75ef465d3e404,,,,,,,,,,,,,,,,,,,,onetwo,,-2,0.382,,,,,,,,,,,,,,,,,,,,,,,,,,,,,,,,,,"[-0.6942,-0.7648,-0.12959999999999994]","[0.12939999999999996,-0.2864,0.3253999999999999]",-79,-45,1,0,0,response5disk,-18,-13,1,0,0,rectangle,-18,-13,1,0,0,1,2,0,0,-18,-13,1,0,0,0,20,20,59,1,59,first,,,,,,,,,,,,,,,,,,,,,,,,,,,,,,,,,,,,,,,,,,,,,,,,,,,,,,,,,,,,,,,,,,,
