trials.thisRepN,trials.thisTrialN,trials.thisN,trials.thisIndex,trials.ran,Colourcodes,participant,session,date,expName,psychopyVersion,OS,frameRate,study_id,trials_4.thisRepN,trials_4.thisTrialN,trials_4.thisN,trials_4.thisIndex,trials_4.ran,StimulusPos,key_resp.keys,key_resp.rt,key_resp_2.keys,key_resp_2.rt,key_resp_15.keys,key_resp_15.rt,key_resp_17.keys,key_resp_17.rt,key_resp_9.keys,key_resp_9.rt,key_resp_10.keys,key_resp_10.rt,Circle1_col,Ecc,Circle2_col,similarity,response_time,mouse_5.x,mouse_5.y,mouse_5.leftButton,mouse_5.midButton,mouse_5.rightButton,mouse_5.clicked_name,mouse_10.x,mouse_10.y,mouse_10.leftButton,mouse_10.midButton,mouse_10.rightButton,mouse_10.clicked_name,mouse_7.x,mouse_7.y,mouse_7.leftButton,mouse_7.midButton,mouse_7.rightButton,catchnumberprac,mouse_6.x,mouse_6.y,mouse_6.leftButton,mouse_6.midButton,mouse_6.rightButton,duringprac.thisRepN,duringprac.thisTrialN,duringprac.thisN,duringprac.thisIndex,duringprac.ran,mouse_7.clicked_name,catchprac,mouse_6.clicked_name,key_resp_22.keys,key_resp_22.rt,Circle1_colour,Circle2_colour,mouse.x,mouse.y,mouse.leftButton,mouse.midButton,mouse.rightButton,mouse.clicked_name,mouse_2.x,mouse_2.y,mouse_2.leftButton,mouse_2.midButton,mouse_2.rightButton,mouse_2.clicked_name,mouse_3.x,mouse_3.y,mouse_3.leftButton,mouse_3.midButton,mouse_3.rightButton,catchresponse,catchnumber,response_time_catch,Catch,mouse_11.x,mouse_11.y,mouse_11.leftButton,mouse_11.midButton,mouse_11.rightButton,trials_2.thisRepN,trials_2.thisTrialN,trials_2.thisN,trials_2.thisIndex,trials_2.ran,Colourpair,Temporder,mouse_3.clicked_name,mouse_11.clicked_name,trials_3.thisRepN,trials_3.thisTrialN,trials_3.thisN,trials_3.thisIndex,trials_3.ran,key_resp_instr_Ishi.keys,key_resp_instr_Ishi.rt,Ishi_trial_keyresp.keys,Ishi_trial_keyresp.rt,Ishi_textbox.text,Ishi_loop.thisRepN,Ishi_loop.thisTrialN,Ishi_loop.thisN,Ishi_loop.thisIndex,Ishi_loop.ran,imageaddress,textbox.text,mouse_4.x,mouse_4.y,mouse_4.leftButton,mouse_4.midButton,mouse_4.rightButton,mouse_4.clicked_name,textbox_2.text,mouse_8.x,mouse_8.y,mouse_8.leftButton,mouse_8.midButton,mouse_8.rightButton,mouse_8.clicked_name,textbox_3.text,mouse_9.x,mouse_9.y,mouse_9.leftButton,mouse_9.midButton,mouse_9.rightButton,mouse_9.clicked_name,textbox_4.text,mouse_12.x,mouse_12.y,mouse_12.leftButton,mouse_12.midButton,mouse_12.rightButton,mouse_12.clicked_name,textbox_5.text,mouse_13.x,mouse_13.y,mouse_13.leftButton,mouse_13.midButton,mouse_13.rightButton,mouse_13.clicked_name,textbox_6.text,mouse_14.x,mouse_14.y,mouse_14.leftButton,mouse_14.midButton,mouse_14.rightButton,mouse_14.clicked_name,textbox_7.text,mouse_15.x,mouse_15.y,mouse_15.leftButton,mouse_15.midButton,mouse_15.rightButton,mouse_15.clicked_name
0,0,0,60,1,,5f194a84823da61b2d97e805,62bbfd5c577dd0fadc318cfe,2022-06-29_09h50.44.375,Colour_Asymmetry_Pilot,2022.1.3,Win32,59.9880024,62bbe60bf3d75ef465d3e404,,,,,,,,,,,,,,,,,,,,,,,,,,,,,,,,,,,,,,,,,,,,,,,,,,,,,,,,,,,,,,,,,,,,,,,,,,,,,,,,,,,,,,,,,,,,,,,,,,,,,,,,,,,,,,,,,,,,,,,,,,,,,,,,,,,,,,,,,,,,,,,,,,,,,,,,,,,,,,
0,1,1,28,1,,5f194a84823da61b2d97e805,62bbfd5c577dd0fadc318cfe,2022-06-29_09h50.44.375,Colour_Asymmetry_Pilot,2022.1.3,Win32,59.9880024,62bbe60bf3d75ef465d3e404,,,,,,,,,,,,,,,,,,,,,,,,,,,,,,,,,,,,,,,,,,,,,,,,,,,,,,,,,,,,,,,,,,,,,,,,,,,,,,,,,,,,,,,,,,,,,,,,,,,,,,,,,,,,,,,,,,,,,,,,,,,,,,,,,,,,,,,,,,,,,,,,,,,,,,,,,,,,,,
0,2,2,75,1,,5f194a84823da61b2d97e805,62bbfd5c577dd0fadc318cfe,2022-06-29_09h50.44.375,Colour_Asymmetry_Pilot,2022.1.3,Win32,59.9880024,62bbe60bf3d75ef465d3e404,,,,,,,,,,,,,,,,,,,,,,,,,,,,,,,,,,,,,,,,,,,,,,,,,,,,,,,,,,,,,,,,,,,,,,,,,,,,,,,,,,,,,,,,,,,,,,,,,,,,,,,,,,,,,,,,,,,,,,,,,,,,,,,,,,,,,,,,,,,,,,,,,,,,,,,,,,,,,,
0,3,3,37,1,,5f194a84823da61b2d97e805,62bbfd5c577dd0fadc318cfe,2022-06-29_09h50.44.375,Colour_Asymmetry_Pilot,2022.1.3,Win32,59.9880024,62bbe60bf3d75ef465d3e404,,,,,,,,,,,,,,,,,,,,,,,,,,,,,,,,,,,,,,,,,,,,,,,,,,,,,,,,,,,,,,,,,,,,,,,,,,,,,,,,,,,,,,,,,,,,,,,,,,,,,,,,,,,,,,,,,,,,,,,,,,,,,,,,,,,,,,,,,,,,,,,,,,,,,,,,,,,,,,
0,4,4,67,1,,5f194a84823da61b2d97e805,62bbfd5c577dd0fadc318cfe,2022-06-29_09h50.44.375,Colour_Asymmetry_Pilot,2022.1.3,Win32,59.9880024,62bbe60bf3d75ef465d3e404,,,,,,,,,,,,,,,,,,,,,,,,,,,,,,,,,,,,,,,,,,,,,,,,,,,,,,,,,,,,,,,,,,,,,,,,,,,,,,,,,,,,,,,,,,,,,,,,,,,,,,,,,,,,,,,,,,,,,,,,,,,,,,,,,,,,,,,,,,,,,,,,,,,,,,,,,,,,,,
0,5,5,62,1,,5f194a84823da61b2d97e805,62bbfd5c577dd0fadc318cfe,2022-06-29_09h50.44.375,Colour_Asymmetry_Pilot,2022.1.3,Win32,59.9880024,62bbe60bf3d75ef465d3e404,,,,,,,,,,,,,,,,,,,,,,,,,,,,,,,,,,,,,,,,,,,,,,,,,,,,,,,,,,,,,,,,,,,,,,,,,,,,,,,,,,,,,,,,,,,,,,,,,,,,,,,,,,,,,,,,,,,,,,,,,,,,,,,,,,,,,,,,,,,,,,,,,,,,,,,,,,,,,,
0,6,6,65,1,,5f194a84823da61b2d97e805,62bbfd5c577dd0fadc318cfe,2022-06-29_09h50.44.375,Colour_Asymmetry_Pilot,2022.1.3,Win32,59.9880024,62bbe60bf3d75ef465d3e404,,,,,,,,,,,,,,,,,,,,,,,,,,,,,,,,,,,,,,,,,,,,,,,,,,,,,,,,,,,,,,,,,,,,,,,,,,,,,,,,,,,,,,,,,,,,,,,,,,,,,,,,,,,,,,,,,,,,,,,,,,,,,,,,,,,,,,,,,,,,,,,,,,,,,,,,,,,,,,
0,7,7,81,1,,5f194a84823da61b2d97e805,62bbfd5c577dd0fadc318cfe,2022-06-29_09h50.44.375,Colour_Asymmetry_Pilot,2022.1.3,Win32,59.9880024,62bbe60bf3d75ef465d3e404,,,,,,,,,,,,,,,,,,,,,,,,,,,,,,,,,,,,,,,,,,,,,,,,,,,,,,,,,,,,,,,,,,,,,,,,,,,,,,,,,,,,,,,,,,,,,,,,,,,,,,,,,,,,,,,,,,,,,,,,,,,,,,,,,,,,,,,,,,,,,,,,,,,,,,,,,,,,,,
0,8,8,41,1,,5f194a84823da61b2d97e805,62bbfd5c577dd0fadc318cfe,2022-06-29_09h50.44.375,Colour_Asymmetry_Pilot,2022.1.3,Win32,59.9880024,62bbe60bf3d75ef465d3e404,,,,,,,,,,,,,,,,,,,,,,,,,,,,,,,,,,,,,,,,,,,,,,,,,,,,,,,,,,,,,,,,,,,,,,,,,,,,,,,,,,,,,,,,,,,,,,,,,,,,,,,,,,,,,,,,,,,,,,,,,,,,,,,,,,,,,,,,,,,,,,,,,,,,,,,,,,,,,,
0,9,9,17,1,,5f194a84823da61b2d97e805,62bbfd5c577dd0fadc318cfe,2022-06-29_09h50.44.375,Colour_Asymmetry_Pilot,2022.1.3,Win32,59.9880024,62bbe60bf3d75ef465d3e404,,,,,,,,,,,,,,,,,,,,,,,,,,,,,,,,,,,,,,,,,,,,,,,,,,,,,,,,,,,,,,,,,,,,,,,,,,,,,,,,,,,,,,,,,,,,,,,,,,,,,,,,,,,,,,,,,,,,,,,,,,,,,,,,,,,,,,,,,,,,,,,,,,,,,,,,,,,,,,
0,10,10,0,1,,5f194a84823da61b2d97e805,62bbfd5c577dd0fadc318cfe,2022-06-29_09h50.44.375,Colour_Asymmetry_Pilot,2022.1.3,Win32,59.9880024,62bbe60bf3d75ef465d3e404,,,,,,,,,,,,,,,,,,,,,,,,,,,,,,,,,,,,,,,,,,,,,,,,,,,,,,,,,,,,,,,,,,,,,,,,,,,,,,,,,,,,,,,,,,,,,,,,,,,,,,,,,,,,,,,,,,,,,,,,,,,,,,,,,,,,,,,,,,,,,,,,,,,,,,,,,,,,,,
0,11,11,7,1,,5f194a84823da61b2d97e805,62bbfd5c577dd0fadc318cfe,2022-06-29_09h50.44.375,Colour_Asymmetry_Pilot,2022.1.3,Win32,59.9880024,62bbe60bf3d75ef465d3e404,,,,,,,,,,,,,,,,,,,,,,,,,,,,,,,,,,,,,,,,,,,,,,,,,,,,,,,,,,,,,,,,,,,,,,,,,,,,,,,,,,,,,,,,,,,,,,,,,,,,,,,,,,,,,,,,,,,,,,,,,,,,,,,,,,,,,,,,,,,,,,,,,,,,,,,,,,,,,,
0,12,12,92,1,,5f194a84823da61b2d97e805,62bbfd5c577dd0fadc318cfe,2022-06-29_09h50.44.375,Colour_Asymmetry_Pilot,2022.1.3,Win32,59.9880024,62bbe60bf3d75ef465d3e404,,,,,,,,,,,,,,,,,,,,,,,,,,,,,,,,,,,,,,,,,,,,,,,,,,,,,,,,,,,,,,,,,,,,,,,,,,,,,,,,,,,,,,,,,,,,,,,,,,,,,,,,,,,,,,,,,,,,,,,,,,,,,,,,,,,,,,,,,,,,,,,,,,,,,,,,,,,,,,
0,13,13,48,1,,5f194a84823da61b2d97e805,62bbfd5c577dd0fadc318cfe,2022-06-29_09h50.44.375,Colour_Asymmetry_Pilot,2022.1.3,Win32,59.9880024,62bbe60bf3d75ef465d3e404,,,,,,,,,,,,,,,,,,,,,,,,,,,,,,,,,,,,,,,,,,,,,,,,,,,,,,,,,,,,,,,,,,,,,,,,,,,,,,,,,,,,,,,,,,,,,,,,,,,,,,,,,,,,,,,,,,,,,,,,,,,,,,,,,,,,,,,,,,,,,,,,,,,,,,,,,,,,,,
0,14,14,13,1,,5f194a84823da61b2d97e805,62bbfd5c577dd0fadc318cfe,2022-06-29_09h50.44.375,Colour_Asymmetry_Pilot,2022.1.3,Win32,59.9880024,62bbe60bf3d75ef465d3e404,,,,,,,,,,,,,,,,,,,,,,,,,,,,,,,,,,,,,,,,,,,,,,,,,,,,,,,,,,,,,,,,,,,,,,,,,,,,,,,,,,,,,,,,,,,,,,,,,,,,,,,,,,,,,,,,,,,,,,,,,,,,,,,,,,,,,,,,,,,,,,,,,,,,,,,,,,,,,,
0,15,15,15,1,,5f194a84823da61b2d97e805,62bbfd5c577dd0fadc318cfe,2022-06-29_09h50.44.375,Colour_Asymmetry_Pilot,2022.1.3,Win32,59.9880024,62bbe60bf3d75ef465d3e404,,,,,,,,,,,,,,,,,,,,,,,,,,,,,,,,,,,,,,,,,,,,,,,,,,,,,,,,,,,,,,,,,,,,,,,,,,,,,,,,,,,,,,,,,,,,,,,,,,,,,,,,,,,,,,,,,,,,,,,,,,,,,,,,,,,,,,,,,,,,,,,,,,,,,,,,,,,,,,
0,16,16,84,1,,5f194a84823da61b2d97e805,62bbfd5c577dd0fadc318cfe,2022-06-29_09h50.44.375,Colour_Asymmetry_Pilot,2022.1.3,Win32,59.9880024,62bbe60bf3d75ef465d3e404,,,,,,,,,,,,,,,,,,,,,,,,,,,,,,,,,,,,,,,,,,,,,,,,,,,,,,,,,,,,,,,,,,,,,,,,,,,,,,,,,,,,,,,,,,,,,,,,,,,,,,,,,,,,,,,,,,,,,,,,,,,,,,,,,,,,,,,,,,,,,,,,,,,,,,,,,,,,,,
0,17,17,29,1,,5f194a84823da61b2d97e805,62bbfd5c577dd0fadc318cfe,2022-06-29_09h50.44.375,Colour_Asymmetry_Pilot,2022.1.3,Win32,59.9880024,62bbe60bf3d75ef465d3e404,,,,,,,,,,,,,,,,,,,,,,,,,,,,,,,,,,,,,,,,,,,,,,,,,,,,,,,,,,,,,,,,,,,,,,,,,,,,,,,,,,,,,,,,,,,,,,,,,,,,,,,,,,,,,,,,,,,,,,,,,,,,,,,,,,,,,,,,,,,,,,,,,,,,,,,,,,,,,,
0,18,18,35,1,,5f194a84823da61b2d97e805,62bbfd5c577dd0fadc318cfe,2022-06-29_09h50.44.375,Colour_Asymmetry_Pilot,2022.1.3,Win32,59.9880024,62bbe60bf3d75ef465d3e404,,,,,,,,,,,,,,,,,,,,,,,,,,,,,,,,,,,,,,,,,,,,,,,,,,,,,,,,,,,,,,,,,,,,,,,,,,,,,,,,,,,,,,,,,,,,,,,,,,,,,,,,,,,,,,,,,,,,,,,,,,,,,,,,,,,,,,,,,,,,,,,,,,,,,,,,,,,,,,
0,19,19,8,1,,5f194a84823da61b2d97e805,62bbfd5c577dd0fadc318cfe,2022-06-29_09h50.44.375,Colour_Asymmetry_Pilot,2022.1.3,Win32,59.9880024,62bbe60bf3d75ef465d3e404,,,,,,,,,,,,,,,,,,,,,,,,,,,,,,,,,,,,,,,,,,,,,,,,,,,,,,,,,,,,,,,,,,,,,,,,,,,,,,,,,,,,,,,,,,,,,,,,,,,,,,,,,,,,,,,,,,,,,,,,,,,,,,,,,,,,,,,,,,,,,,,,,,,,,,,,,,,,,,
0,20,20,34,1,,5f194a84823da61b2d97e805,62bbfd5c577dd0fadc318cfe,2022-06-29_09h50.44.375,Colour_Asymmetry_Pilot,2022.1.3,Win32,59.9880024,62bbe60bf3d75ef465d3e404,,,,,,,,,,,,,,,,,,,,,,,,,,,,,,,,,,,,,,,,,,,,,,,,,,,,,,,,,,,,,,,,,,,,,,,,,,,,,,,,,,,,,,,,,,,,,,,,,,,,,,,,,,,,,,,,,,,,,,,,,,,,,,,,,,,,,,,,,,,,,,,,,,,,,,,,,,,,,,
0,21,21,6,1,,5f194a84823da61b2d97e805,62bbfd5c577dd0fadc318cfe,2022-06-29_09h50.44.375,Colour_Asymmetry_Pilot,2022.1.3,Win32,59.9880024,62bbe60bf3d75ef465d3e404,,,,,,,,,,,,,,,,,,,,,,,,,,,,,,,,,,,,,,,,,,,,,,,,,,,,,,,,,,,,,,,,,,,,,,,,,,,,,,,,,,,,,,,,,,,,,,,,,,,,,,,,,,,,,,,,,,,,,,,,,,,,,,,,,,,,,,,,,,,,,,,,,,,,,,,,,,,,,,
0,22,22,43,1,,5f194a84823da61b2d97e805,62bbfd5c577dd0fadc318cfe,2022-06-29_09h50.44.375,Colour_Asymmetry_Pilot,2022.1.3,Win32,59.9880024,62bbe60bf3d75ef465d3e404,,,,,,,,,,,,,,,,,,,,,,,,,,,,,,,,,,,,,,,,,,,,,,,,,,,,,,,,,,,,,,,,,,,,,,,,,,,,,,,,,,,,,,,,,,,,,,,,,,,,,,,,,,,,,,,,,,,,,,,,,,,,,,,,,,,,,,,,,,,,,,,,,,,,,,,,,,,,,,
0,23,23,21,1,,5f194a84823da61b2d97e805,62bbfd5c577dd0fadc318cfe,2022-06-29_09h50.44.375,Colour_Asymmetry_Pilot,2022.1.3,Win32,59.9880024,62bbe60bf3d75ef465d3e404,,,,,,,,,,,,,,,,,,,,,,,,,,,,,,,,,,,,,,,,,,,,,,,,,,,,,,,,,,,,,,,,,,,,,,,,,,,,,,,,,,,,,,,,,,,,,,,,,,,,,,,,,,,,,,,,,,,,,,,,,,,,,,,,,,,,,,,,,,,,,,,,,,,,,,,,,,,,,,
0,24,24,79,1,,5f194a84823da61b2d97e805,62bbfd5c577dd0fadc318cfe,2022-06-29_09h50.44.375,Colour_Asymmetry_Pilot,2022.1.3,Win32,59.9880024,62bbe60bf3d75ef465d3e404,,,,,,,,,,,,,,,,,,,,,,,,,,,,,,,,,,,,,,,,,,,,,,,,,,,,,,,,,,,,,,,,,,,,,,,,,,,,,,,,,,,,,,,,,,,,,,,,,,,,,,,,,,,,,,,,,,,,,,,,,,,,,,,,,,,,,,,,,,,,,,,,,,,,,,,,,,,,,,
0,25,25,45,1,,5f194a84823da61b2d97e805,62bbfd5c577dd0fadc318cfe,2022-06-29_09h50.44.375,Colour_Asymmetry_Pilot,2022.1.3,Win32,59.9880024,62bbe60bf3d75ef465d3e404,,,,,,,,,,,,,,,,,,,,,,,,,,,,,,,,,,,,,,,,,,,,,,,,,,,,,,,,,,,,,,,,,,,,,,,,,,,,,,,,,,,,,,,,,,,,,,,,,,,,,,,,,,,,,,,,,,,,,,,,,,,,,,,,,,,,,,,,,,,,,,,,,,,,,,,,,,,,,,
0,26,26,3,1,,5f194a84823da61b2d97e805,62bbfd5c577dd0fadc318cfe,2022-06-29_09h50.44.375,Colour_Asymmetry_Pilot,2022.1.3,Win32,59.9880024,62bbe60bf3d75ef465d3e404,,,,,,,,,,,,,,,,,,,,,,,,,,,,,,,,,,,,,,,,,,,,,,,,,,,,,,,,,,,,,,,,,,,,,,,,,,,,,,,,,,,,,,,,,,,,,,,,,,,,,,,,,,,,,,,,,,,,,,,,,,,,,,,,,,,,,,,,,,,,,,,,,,,,,,,,,,,,,,
0,27,27,73,1,,5f194a84823da61b2d97e805,62bbfd5c577dd0fadc318cfe,2022-06-29_09h50.44.375,Colour_Asymmetry_Pilot,2022.1.3,Win32,59.9880024,62bbe60bf3d75ef465d3e404,,,,,,,,,,,,,,,,,,,,,,,,,,,,,,,,,,,,,,,,,,,,,,,,,,,,,,,,,,,,,,,,,,,,,,,,,,,,,,,,,,,,,,,,,,,,,,,,,,,,,,,,,,,,,,,,,,,,,,,,,,,,,,,,,,,,,,,,,,,,,,,,,,,,,,,,,,,,,,
0,28,28,54,1,,5f194a84823da61b2d97e805,62bbfd5c577dd0fadc318cfe,2022-06-29_09h50.44.375,Colour_Asymmetry_Pilot,2022.1.3,Win32,59.9880024,62bbe60bf3d75ef465d3e404,,,,,,,,,,,,,,,,,,,,,,,,,,,,,,,,,,,,,,,,,,,,,,,,,,,,,,,,,,,,,,,,,,,,,,,,,,,,,,,,,,,,,,,,,,,,,,,,,,,,,,,,,,,,,,,,,,,,,,,,,,,,,,,,,,,,,,,,,,,,,,,,,,,,,,,,,,,,,,
0,29,29,2,1,,5f194a84823da61b2d97e805,62bbfd5c577dd0fadc318cfe,2022-06-29_09h50.44.375,Colour_Asymmetry_Pilot,2022.1.3,Win32,59.9880024,62bbe60bf3d75ef465d3e404,,,,,,,,,,,,,,,,,,,,,,,,,,,,,,,,,,,,,,,,,,,,,,,,,,,,,,,,,,,,,,,,,,,,,,,,,,,,,,,,,,,,,,,,,,,,,,,,,,,,,,,,,,,,,,,,,,,,,,,,,,,,,,,,,,,,,,,,,,,,,,,,,,,,,,,,,,,,,,
0,30,30,19,1,,5f194a84823da61b2d97e805,62bbfd5c577dd0fadc318cfe,2022-06-29_09h50.44.375,Colour_Asymmetry_Pilot,2022.1.3,Win32,59.9880024,62bbe60bf3d75ef465d3e404,,,,,,,,,,,,,,,,,,,,,,,,,,,,,,,,,,,,,,,,,,,,,,,,,,,,,,,,,,,,,,,,,,,,,,,,,,,,,,,,,,,,,,,,,,,,,,,,,,,,,,,,,,,,,,,,,,,,,,,,,,,,,,,,,,,,,,,,,,,,,,,,,,,,,,,,,,,,,,
0,31,31,88,1,,5f194a84823da61b2d97e805,62bbfd5c577dd0fadc318cfe,2022-06-29_09h50.44.375,Colour_Asymmetry_Pilot,2022.1.3,Win32,59.9880024,62bbe60bf3d75ef465d3e404,,,,,,,,,,,,,,,,,,,,,,,,,,,,,,,,,,,,,,,,,,,,,,,,,,,,,,,,,,,,,,,,,,,,,,,,,,,,,,,,,,,,,,,,,,,,,,,,,,,,,,,,,,,,,,,,,,,,,,,,,,,,,,,,,,,,,,,,,,,,,,,,,,,,,,,,,,,,,,
0,32,32,30,1,,5f194a84823da61b2d97e805,62bbfd5c577dd0fadc318cfe,2022-06-29_09h50.44.375,Colour_Asymmetry_Pilot,2022.1.3,Win32,59.9880024,62bbe60bf3d75ef465d3e404,,,,,,,,,,,,,,,,,,,,,,,,,,,,,,,,,,,,,,,,,,,,,,,,,,,,,,,,,,,,,,,,,,,,,,,,,,,,,,,,,,,,,,,,,,,,,,,,,,,,,,,,,,,,,,,,,,,,,,,,,,,,,,,,,,,,,,,,,,,,,,,,,,,,,,,,,,,,,,
0,33,33,82,1,,5f194a84823da61b2d97e805,62bbfd5c577dd0fadc318cfe,2022-06-29_09h50.44.375,Colour_Asymmetry_Pilot,2022.1.3,Win32,59.9880024,62bbe60bf3d75ef465d3e404,,,,,,,,,,,,,,,,,,,,,,,,,,,,,,,,,,,,,,,,,,,,,,,,,,,,,,,,,,,,,,,,,,,,,,,,,,,,,,,,,,,,,,,,,,,,,,,,,,,,,,,,,,,,,,,,,,,,,,,,,,,,,,,,,,,,,,,,,,,,,,,,,,,,,,,,,,,,,,
0,34,34,78,1,,5f194a84823da61b2d97e805,62bbfd5c577dd0fadc318cfe,2022-06-29_09h50.44.375,Colour_Asymmetry_Pilot,2022.1.3,Win32,59.9880024,62bbe60bf3d75ef465d3e404,,,,,,,,,,,,,,,,,,,,,,,,,,,,,,,,,,,,,,,,,,,,,,,,,,,,,,,,,,,,,,,,,,,,,,,,,,,,,,,,,,,,,,,,,,,,,,,,,,,,,,,,,,,,,,,,,,,,,,,,,,,,,,,,,,,,,,,,,,,,,,,,,,,,,,,,,,,,,,
0,35,35,36,1,,5f194a84823da61b2d97e805,62bbfd5c577dd0fadc318cfe,2022-06-29_09h50.44.375,Colour_Asymmetry_Pilot,2022.1.3,Win32,59.9880024,62bbe60bf3d75ef465d3e404,,,,,,,,,,,,,,,,,,,,,,,,,,,,,,,,,,,,,,,,,,,,,,,,,,,,,,,,,,,,,,,,,,,,,,,,,,,,,,,,,,,,,,,,,,,,,,,,,,,,,,,,,,,,,,,,,,,,,,,,,,,,,,,,,,,,,,,,,,,,,,,,,,,,,,,,,,,,,,
0,36,36,83,1,,5f194a84823da61b2d97e805,62bbfd5c577dd0fadc318cfe,2022-06-29_09h50.44.375,Colour_Asymmetry_Pilot,2022.1.3,Win32,59.9880024,62bbe60bf3d75ef465d3e404,,,,,,,,,,,,,,,,,,,,,,,,,,,,,,,,,,,,,,,,,,,,,,,,,,,,,,,,,,,,,,,,,,,,,,,,,,,,,,,,,,,,,,,,,,,,,,,,,,,,,,,,,,,,,,,,,,,,,,,,,,,,,,,,,,,,,,,,,,,,,,,,,,,,,,,,,,,,,,
0,37,37,20,1,,5f194a84823da61b2d97e805,62bbfd5c577dd0fadc318cfe,2022-06-29_09h50.44.375,Colour_Asymmetry_Pilot,2022.1.3,Win32,59.9880024,62bbe60bf3d75ef465d3e404,,,,,,,,,,,,,,,,,,,,,,,,,,,,,,,,,,,,,,,,,,,,,,,,,,,,,,,,,,,,,,,,,,,,,,,,,,,,,,,,,,,,,,,,,,,,,,,,,,,,,,,,,,,,,,,,,,,,,,,,,,,,,,,,,,,,,,,,,,,,,,,,,,,,,,,,,,,,,,
0,38,38,46,1,,5f194a84823da61b2d97e805,62bbfd5c577dd0fadc318cfe,2022-06-29_09h50.44.375,Colour_Asymmetry_Pilot,2022.1.3,Win32,59.9880024,62bbe60bf3d75ef465d3e404,,,,,,,,,,,,,,,,,,,,,,,,,,,,,,,,,,,,,,,,,,,,,,,,,,,,,,,,,,,,,,,,,,,,,,,,,,,,,,,,,,,,,,,,,,,,,,,,,,,,,,,,,,,,,,,,,,,,,,,,,,,,,,,,,,,,,,,,,,,,,,,,,,,,,,,,,,,,,,
0,39,39,11,1,,5f194a84823da61b2d97e805,62bbfd5c577dd0fadc318cfe,2022-06-29_09h50.44.375,Colour_Asymmetry_Pilot,2022.1.3,Win32,59.9880024,62bbe60bf3d75ef465d3e404,,,,,,,,,,,,,,,,,,,,,,,,,,,,,,,,,,,,,,,,,,,,,,,,,,,,,,,,,,,,,,,,,,,,,,,,,,,,,,,,,,,,,,,,,,,,,,,,,,,,,,,,,,,,,,,,,,,,,,,,,,,,,,,,,,,,,,,,,,,,,,,,,,,,,,,,,,,,,,
0,40,40,86,1,,5f194a84823da61b2d97e805,62bbfd5c577dd0fadc318cfe,2022-06-29_09h50.44.375,Colour_Asymmetry_Pilot,2022.1.3,Win32,59.9880024,62bbe60bf3d75ef465d3e404,,,,,,,,,,,,,,,,,,,,,,,,,,,,,,,,,,,,,,,,,,,,,,,,,,,,,,,,,,,,,,,,,,,,,,,,,,,,,,,,,,,,,,,,,,,,,,,,,,,,,,,,,,,,,,,,,,,,,,,,,,,,,,,,,,,,,,,,,,,,,,,,,,,,,,,,,,,,,,
0,41,41,44,1,,5f194a84823da61b2d97e805,62bbfd5c577dd0fadc318cfe,2022-06-29_09h50.44.375,Colour_Asymmetry_Pilot,2022.1.3,Win32,59.9880024,62bbe60bf3d75ef465d3e404,,,,,,,,,,,,,,,,,,,,,,,,,,,,,,,,,,,,,,,,,,,,,,,,,,,,,,,,,,,,,,,,,,,,,,,,,,,,,,,,,,,,,,,,,,,,,,,,,,,,,,,,,,,,,,,,,,,,,,,,,,,,,,,,,,,,,,,,,,,,,,,,,,,,,,,,,,,,,,
0,42,42,12,1,,5f194a84823da61b2d97e805,62bbfd5c577dd0fadc318cfe,2022-06-29_09h50.44.375,Colour_Asymmetry_Pilot,2022.1.3,Win32,59.9880024,62bbe60bf3d75ef465d3e404,,,,,,,,,,,,,,,,,,,,,,,,,,,,,,,,,,,,,,,,,,,,,,,,,,,,,,,,,,,,,,,,,,,,,,,,,,,,,,,,,,,,,,,,,,,,,,,,,,,,,,,,,,,,,,,,,,,,,,,,,,,,,,,,,,,,,,,,,,,,,,,,,,,,,,,,,,,,,,
0,43,43,76,1,,5f194a84823da61b2d97e805,62bbfd5c577dd0fadc318cfe,2022-06-29_09h50.44.375,Colour_Asymmetry_Pilot,2022.1.3,Win32,59.9880024,62bbe60bf3d75ef465d3e404,,,,,,,,,,,,,,,,,,,,,,,,,,,,,,,,,,,,,,,,,,,,,,,,,,,,,,,,,,,,,,,,,,,,,,,,,,,,,,,,,,,,,,,,,,,,,,,,,,,,,,,,,,,,,,,,,,,,,,,,,,,,,,,,,,,,,,,,,,,,,,,,,,,,,,,,,,,,,,
0,44,44,58,1,,5f194a84823da61b2d97e805,62bbfd5c577dd0fadc318cfe,2022-06-29_09h50.44.375,Colour_Asymmetry_Pilot,2022.1.3,Win32,59.9880024,62bbe60bf3d75ef465d3e404,,,,,,,,,,,,,,,,,,,,,,,,,,,,,,,,,,,,,,,,,,,,,,,,,,,,,,,,,,,,,,,,,,,,,,,,,,,,,,,,,,,,,,,,,,,,,,,,,,,,,,,,,,,,,,,,,,,,,,,,,,,,,,,,,,,,,,,,,,,,,,,,,,,,,,,,,,,,,,
0,45,45,33,1,,5f194a84823da61b2d97e805,62bbfd5c577dd0fadc318cfe,2022-06-29_09h50.44.375,Colour_Asymmetry_Pilot,2022.1.3,Win32,59.9880024,62bbe60bf3d75ef465d3e404,,,,,,,,,,,,,,,,,,,,,,,,,,,,,,,,,,,,,,,,,,,,,,,,,,,,,,,,,,,,,,,,,,,,,,,,,,,,,,,,,,,,,,,,,,,,,,,,,,,,,,,,,,,,,,,,,,,,,,,,,,,,,,,,,,,,,,,,,,,,,,,,,,,,,,,,,,,,,,
0,46,46,56,1,,5f194a84823da61b2d97e805,62bbfd5c577dd0fadc318cfe,2022-06-29_09h50.44.375,Colour_Asymmetry_Pilot,2022.1.3,Win32,59.9880024,62bbe60bf3d75ef465d3e404,,,,,,,,,,,,,,,,,,,,,,,,,,,,,,,,,,,,,,,,,,,,,,,,,,,,,,,,,,,,,,,,,,,,,,,,,,,,,,,,,,,,,,,,,,,,,,,,,,,,,,,,,,,,,,,,,,,,,,,,,,,,,,,,,,,,,,,,,,,,,,,,,,,,,,,,,,,,,,
0,47,47,80,1,,5f194a84823da61b2d97e805,62bbfd5c577dd0fadc318cfe,2022-06-29_09h50.44.375,Colour_Asymmetry_Pilot,2022.1.3,Win32,59.9880024,62bbe60bf3d75ef465d3e404,,,,,,,,,,,,,,,,,,,,,,,,,,,,,,,,,,,,,,,,,,,,,,,,,,,,,,,,,,,,,,,,,,,,,,,,,,,,,,,,,,,,,,,,,,,,,,,,,,,,,,,,,,,,,,,,,,,,,,,,,,,,,,,,,,,,,,,,,,,,,,,,,,,,,,,,,,,,,,
0,48,48,10,1,,5f194a84823da61b2d97e805,62bbfd5c577dd0fadc318cfe,2022-06-29_09h50.44.375,Colour_Asymmetry_Pilot,2022.1.3,Win32,59.9880024,62bbe60bf3d75ef465d3e404,,,,,,,,,,,,,,,,,,,,,,,,,,,,,,,,,,,,,,,,,,,,,,,,,,,,,,,,,,,,,,,,,,,,,,,,,,,,,,,,,,,,,,,,,,,,,,,,,,,,,,,,,,,,,,,,,,,,,,,,,,,,,,,,,,,,,,,,,,,,,,,,,,,,,,,,,,,,,,
0,49,49,77,1,,5f194a84823da61b2d97e805,62bbfd5c577dd0fadc318cfe,2022-06-29_09h50.44.375,Colour_Asymmetry_Pilot,2022.1.3,Win32,59.9880024,62bbe60bf3d75ef465d3e404,,,,,,,,,,,,,,,,,,,,,,,,,,,,,,,,,,,,,,,,,,,,,,,,,,,,,,,,,,,,,,,,,,,,,,,,,,,,,,,,,,,,,,,,,,,,,,,,,,,,,,,,,,,,,,,,,,,,,,,,,,,,,,,,,,,,,,,,,,,,,,,,,,,,,,,,,,,,,,
0,50,50,38,1,,5f194a84823da61b2d97e805,62bbfd5c577dd0fadc318cfe,2022-06-29_09h50.44.375,Colour_Asymmetry_Pilot,2022.1.3,Win32,59.9880024,62bbe60bf3d75ef465d3e404,,,,,,,,,,,,,,,,,,,,,,,,,,,,,,,,,,,,,,,,,,,,,,,,,,,,,,,,,,,,,,,,,,,,,,,,,,,,,,,,,,,,,,,,,,,,,,,,,,,,,,,,,,,,,,,,,,,,,,,,,,,,,,,,,,,,,,,,,,,,,,,,,,,,,,,,,,,,,,
0,51,51,27,1,,5f194a84823da61b2d97e805,62bbfd5c577dd0fadc318cfe,2022-06-29_09h50.44.375,Colour_Asymmetry_Pilot,2022.1.3,Win32,59.9880024,62bbe60bf3d75ef465d3e404,,,,,,,,,,,,,,,,,,,,,,,,,,,,,,,,,,,,,,,,,,,,,,,,,,,,,,,,,,,,,,,,,,,,,,,,,,,,,,,,,,,,,,,,,,,,,,,,,,,,,,,,,,,,,,,,,,,,,,,,,,,,,,,,,,,,,,,,,,,,,,,,,,,,,,,,,,,,,,
0,52,52,61,1,,5f194a84823da61b2d97e805,62bbfd5c577dd0fadc318cfe,2022-06-29_09h50.44.375,Colour_Asymmetry_Pilot,2022.1.3,Win32,59.9880024,62bbe60bf3d75ef465d3e404,,,,,,,,,,,,,,,,,,,,,,,,,,,,,,,,,,,,,,,,,,,,,,,,,,,,,,,,,,,,,,,,,,,,,,,,,,,,,,,,,,,,,,,,,,,,,,,,,,,,,,,,,,,,,,,,,,,,,,,,,,,,,,,,,,,,,,,,,,,,,,,,,,,,,,,,,,,,,,
0,53,53,50,1,,5f194a84823da61b2d97e805,62bbfd5c577dd0fadc318cfe,2022-06-29_09h50.44.375,Colour_Asymmetry_Pilot,2022.1.3,Win32,59.9880024,62bbe60bf3d75ef465d3e404,,,,,,,,,,,,,,,,,,,,,,,,,,,,,,,,,,,,,,,,,,,,,,,,,,,,,,,,,,,,,,,,,,,,,,,,,,,,,,,,,,,,,,,,,,,,,,,,,,,,,,,,,,,,,,,,,,,,,,,,,,,,,,,,,,,,,,,,,,,,,,,,,,,,,,,,,,,,,,
0,54,54,53,1,,5f194a84823da61b2d97e805,62bbfd5c577dd0fadc318cfe,2022-06-29_09h50.44.375,Colour_Asymmetry_Pilot,2022.1.3,Win32,59.9880024,62bbe60bf3d75ef465d3e404,,,,,,,,,,,,,,,,,,,,,,,,,,,,,,,,,,,,,,,,,,,,,,,,,,,,,,,,,,,,,,,,,,,,,,,,,,,,,,,,,,,,,,,,,,,,,,,,,,,,,,,,,,,,,,,,,,,,,,,,,,,,,,,,,,,,,,,,,,,,,,,,,,,,,,,,,,,,,,
0,55,55,9,1,,5f194a84823da61b2d97e805,62bbfd5c577dd0fadc318cfe,2022-06-29_09h50.44.375,Colour_Asymmetry_Pilot,2022.1.3,Win32,59.9880024,62bbe60bf3d75ef465d3e404,,,,,,,,,,,,,,,,,,,,,,,,,,,,,,,,,,,,,,,,,,,,,,,,,,,,,,,,,,,,,,,,,,,,,,,,,,,,,,,,,,,,,,,,,,,,,,,,,,,,,,,,,,,,,,,,,,,,,,,,,,,,,,,,,,,,,,,,,,,,,,,,,,,,,,,,,,,,,,
0,56,56,5,1,,5f194a84823da61b2d97e805,62bbfd5c577dd0fadc318cfe,2022-06-29_09h50.44.375,Colour_Asymmetry_Pilot,2022.1.3,Win32,59.9880024,62bbe60bf3d75ef465d3e404,,,,,,,,,,,,,,,,,,,,,,,,,,,,,,,,,,,,,,,,,,,,,,,,,,,,,,,,,,,,,,,,,,,,,,,,,,,,,,,,,,,,,,,,,,,,,,,,,,,,,,,,,,,,,,,,,,,,,,,,,,,,,,,,,,,,,,,,,,,,,,,,,,,,,,,,,,,,,,
0,57,57,52,1,,5f194a84823da61b2d97e805,62bbfd5c577dd0fadc318cfe,2022-06-29_09h50.44.375,Colour_Asymmetry_Pilot,2022.1.3,Win32,59.9880024,62bbe60bf3d75ef465d3e404,,,,,,,,,,,,,,,,,,,,,,,,,,,,,,,,,,,,,,,,,,,,,,,,,,,,,,,,,,,,,,,,,,,,,,,,,,,,,,,,,,,,,,,,,,,,,,,,,,,,,,,,,,,,,,,,,,,,,,,,,,,,,,,,,,,,,,,,,,,,,,,,,,,,,,,,,,,,,,
0,58,58,69,1,,5f194a84823da61b2d97e805,62bbfd5c577dd0fadc318cfe,2022-06-29_09h50.44.375,Colour_Asymmetry_Pilot,2022.1.3,Win32,59.9880024,62bbe60bf3d75ef465d3e404,,,,,,,,,,,,,,,,,,,,,,,,,,,,,,,,,,,,,,,,,,,,,,,,,,,,,,,,,,,,,,,,,,,,,,,,,,,,,,,,,,,,,,,,,,,,,,,,,,,,,,,,,,,,,,,,,,,,,,,,,,,,,,,,,,,,,,,,,,,,,,,,,,,,,,,,,,,,,,
0,59,59,51,1,,5f194a84823da61b2d97e805,62bbfd5c577dd0fadc318cfe,2022-06-29_09h50.44.375,Colour_Asymmetry_Pilot,2022.1.3,Win32,59.9880024,62bbe60bf3d75ef465d3e404,,,,,,,,,,,,,,,,,,,,,,,,,,,,,,,,,,,,,,,,,,,,,,,,,,,,,,,,,,,,,,,,,,,,,,,,,,,,,,,,,,,,,,,,,,,,,,,,,,,,,,,,,,,,,,,,,,,,,,,,,,,,,,,,,,,,,,,,,,,,,,,,,,,,,,,,,,,,,,
0,60,60,89,1,,5f194a84823da61b2d97e805,62bbfd5c577dd0fadc318cfe,2022-06-29_09h50.44.375,Colour_Asymmetry_Pilot,2022.1.3,Win32,59.9880024,62bbe60bf3d75ef465d3e404,,,,,,,,,,,,,,,,,,,,,,,,,,,,,,,,,,,,,,,,,,,,,,,,,,,,,,,,,,,,,,,,,,,,,,,,,,,,,,,,,,,,,,,,,,,,,,,,,,,,,,,,,,,,,,,,,,,,,,,,,,,,,,,,,,,,,,,,,,,,,,,,,,,,,,,,,,,,,,
0,61,61,25,1,,5f194a84823da61b2d97e805,62bbfd5c577dd0fadc318cfe,2022-06-29_09h50.44.375,Colour_Asymmetry_Pilot,2022.1.3,Win32,59.9880024,62bbe60bf3d75ef465d3e404,,,,,,,,,,,,,,,,,,,,,,,,,,,,,,,,,,,,,,,,,,,,,,,,,,,,,,,,,,,,,,,,,,,,,,,,,,,,,,,,,,,,,,,,,,,,,,,,,,,,,,,,,,,,,,,,,,,,,,,,,,,,,,,,,,,,,,,,,,,,,,,,,,,,,,,,,,,,,,
0,62,62,14,1,,5f194a84823da61b2d97e805,62bbfd5c577dd0fadc318cfe,2022-06-29_09h50.44.375,Colour_Asymmetry_Pilot,2022.1.3,Win32,59.9880024,62bbe60bf3d75ef465d3e404,,,,,,,,,,,,,,,,,,,,,,,,,,,,,,,,,,,,,,,,,,,,,,,,,,,,,,,,,,,,,,,,,,,,,,,,,,,,,,,,,,,,,,,,,,,,,,,,,,,,,,,,,,,,,,,,,,,,,,,,,,,,,,,,,,,,,,,,,,,,,,,,,,,,,,,,,,,,,,
0,63,63,64,1,,5f194a84823da61b2d97e805,62bbfd5c577dd0fadc318cfe,2022-06-29_09h50.44.375,Colour_Asymmetry_Pilot,2022.1.3,Win32,59.9880024,62bbe60bf3d75ef465d3e404,,,,,,,,,,,,,,,,,,,,,,,,,,,,,,,,,,,,,,,,,,,,,,,,,,,,,,,,,,,,,,,,,,,,,,,,,,,,,,,,,,,,,,,,,,,,,,,,,,,,,,,,,,,,,,,,,,,,,,,,,,,,,,,,,,,,,,,,,,,,,,,,,,,,,,,,,,,,,,
0,64,64,49,1,,5f194a84823da61b2d97e805,62bbfd5c577dd0fadc318cfe,2022-06-29_09h50.44.375,Colour_Asymmetry_Pilot,2022.1.3,Win32,59.9880024,62bbe60bf3d75ef465d3e404,,,,,,,,,,,,,,,,,,,,,,,,,,,,,,,,,,,,,,,,,,,,,,,,,,,,,,,,,,,,,,,,,,,,,,,,,,,,,,,,,,,,,,,,,,,,,,,,,,,,,,,,,,,,,,,,,,,,,,,,,,,,,,,,,,,,,,,,,,,,,,,,,,,,,,,,,,,,,,
0,65,65,24,1,,5f194a84823da61b2d97e805,62bbfd5c577dd0fadc318cfe,2022-06-29_09h50.44.375,Colour_Asymmetry_Pilot,2022.1.3,Win32,59.9880024,62bbe60bf3d75ef465d3e404,,,,,,,,,,,,,,,,,,,,,,,,,,,,,,,,,,,,,,,,,,,,,,,,,,,,,,,,,,,,,,,,,,,,,,,,,,,,,,,,,,,,,,,,,,,,,,,,,,,,,,,,,,,,,,,,,,,,,,,,,,,,,,,,,,,,,,,,,,,,,,,,,,,,,,,,,,,,,,
0,66,66,22,1,,5f194a84823da61b2d97e805,62bbfd5c577dd0fadc318cfe,2022-06-29_09h50.44.375,Colour_Asymmetry_Pilot,2022.1.3,Win32,59.9880024,62bbe60bf3d75ef465d3e404,,,,,,,,,,,,,,,,,,,,,,,,,,,,,,,,,,,,,,,,,,,,,,,,,,,,,,,,,,,,,,,,,,,,,,,,,,,,,,,,,,,,,,,,,,,,,,,,,,,,,,,,,,,,,,,,,,,,,,,,,,,,,,,,,,,,,,,,,,,,,,,,,,,,,,,,,,,,,,
0,67,67,91,1,,5f194a84823da61b2d97e805,62bbfd5c577dd0fadc318cfe,2022-06-29_09h50.44.375,Colour_Asymmetry_Pilot,2022.1.3,Win32,59.9880024,62bbe60bf3d75ef465d3e404,,,,,,,,,,,,,,,,,,,,,,,,,,,,,,,,,,,,,,,,,,,,,,,,,,,,,,,,,,,,,,,,,,,,,,,,,,,,,,,,,,,,,,,,,,,,,,,,,,,,,,,,,,,,,,,,,,,,,,,,,,,,,,,,,,,,,,,,,,,,,,,,,,,,,,,,,,,,,,
0,68,68,55,1,,5f194a84823da61b2d97e805,62bbfd5c577dd0fadc318cfe,2022-06-29_09h50.44.375,Colour_Asymmetry_Pilot,2022.1.3,Win32,59.9880024,62bbe60bf3d75ef465d3e404,,,,,,,,,,,,,,,,,,,,,,,,,,,,,,,,,,,,,,,,,,,,,,,,,,,,,,,,,,,,,,,,,,,,,,,,,,,,,,,,,,,,,,,,,,,,,,,,,,,,,,,,,,,,,,,,,,,,,,,,,,,,,,,,,,,,,,,,,,,,,,,,,,,,,,,,,,,,,,
0,69,69,4,1,,5f194a84823da61b2d97e805,62bbfd5c577dd0fadc318cfe,2022-06-29_09h50.44.375,Colour_Asymmetry_Pilot,2022.1.3,Win32,59.9880024,62bbe60bf3d75ef465d3e404,,,,,,,,,,,,,,,,,,,,,,,,,,,,,,,,,,,,,,,,,,,,,,,,,,,,,,,,,,,,,,,,,,,,,,,,,,,,,,,,,,,,,,,,,,,,,,,,,,,,,,,,,,,,,,,,,,,,,,,,,,,,,,,,,,,,,,,,,,,,,,,,,,,,,,,,,,,,,,
0,70,70,31,1,,5f194a84823da61b2d97e805,62bbfd5c577dd0fadc318cfe,2022-06-29_09h50.44.375,Colour_Asymmetry_Pilot,2022.1.3,Win32,59.9880024,62bbe60bf3d75ef465d3e404,,,,,,,,,,,,,,,,,,,,,,,,,,,,,,,,,,,,,,,,,,,,,,,,,,,,,,,,,,,,,,,,,,,,,,,,,,,,,,,,,,,,,,,,,,,,,,,,,,,,,,,,,,,,,,,,,,,,,,,,,,,,,,,,,,,,,,,,,,,,,,,,,,,,,,,,,,,,,,
0,71,71,57,1,,5f194a84823da61b2d97e805,62bbfd5c577dd0fadc318cfe,2022-06-29_09h50.44.375,Colour_Asymmetry_Pilot,2022.1.3,Win32,59.9880024,62bbe60bf3d75ef465d3e404,,,,,,,,,,,,,,,,,,,,,,,,,,,,,,,,,,,,,,,,,,,,,,,,,,,,,,,,,,,,,,,,,,,,,,,,,,,,,,,,,,,,,,,,,,,,,,,,,,,,,,,,,,,,,,,,,,,,,,,,,,,,,,,,,,,,,,,,,,,,,,,,,,,,,,,,,,,,,,
0,72,72,40,1,,5f194a84823da61b2d97e805,62bbfd5c577dd0fadc318cfe,2022-06-29_09h50.44.375,Colour_Asymmetry_Pilot,2022.1.3,Win32,59.9880024,62bbe60bf3d75ef465d3e404,,,,,,,,,,,,,,,,,,,,,,,,,,,,,,,,,,,,,,,,,,,,,,,,,,,,,,,,,,,,,,,,,,,,,,,,,,,,,,,,,,,,,,,,,,,,,,,,,,,,,,,,,,,,,,,,,,,,,,,,,,,,,,,,,,,,,,,,,,,,,,,,,,,,,,,,,,,,,,
0,73,73,47,1,,5f194a84823da61b2d97e805,62bbfd5c577dd0fadc318cfe,2022-06-29_09h50.44.375,Colour_Asymmetry_Pilot,2022.1.3,Win32,59.9880024,62bbe60bf3d75ef465d3e404,,,,,,,,,,,,,,,,,,,,,,,,,,,,,,,,,,,,,,,,,,,,,,,,,,,,,,,,,,,,,,,,,,,,,,,,,,,,,,,,,,,,,,,,,,,,,,,,,,,,,,,,,,,,,,,,,,,,,,,,,,,,,,,,,,,,,,,,,,,,,,,,,,,,,,,,,,,,,,
0,74,74,71,1,,5f194a84823da61b2d97e805,62bbfd5c577dd0fadc318cfe,2022-06-29_09h50.44.375,Colour_Asymmetry_Pilot,2022.1.3,Win32,59.9880024,62bbe60bf3d75ef465d3e404,,,,,,,,,,,,,,,,,,,,,,,,,,,,,,,,,,,,,,,,,,,,,,,,,,,,,,,,,,,,,,,,,,,,,,,,,,,,,,,,,,,,,,,,,,,,,,,,,,,,,,,,,,,,,,,,,,,,,,,,,,,,,,,,,,,,,,,,,,,,,,,,,,,,,,,,,,,,,,
0,75,75,68,1,,5f194a84823da61b2d97e805,62bbfd5c577dd0fadc318cfe,2022-06-29_09h50.44.375,Colour_Asymmetry_Pilot,2022.1.3,Win32,59.9880024,62bbe60bf3d75ef465d3e404,,,,,,,,,,,,,,,,,,,,,,,,,,,,,,,,,,,,,,,,,,,,,,,,,,,,,,,,,,,,,,,,,,,,,,,,,,,,,,,,,,,,,,,,,,,,,,,,,,,,,,,,,,,,,,,,,,,,,,,,,,,,,,,,,,,,,,,,,,,,,,,,,,,,,,,,,,,,,,
0,76,76,72,1,,5f194a84823da61b2d97e805,62bbfd5c577dd0fadc318cfe,2022-06-29_09h50.44.375,Colour_Asymmetry_Pilot,2022.1.3,Win32,59.9880024,62bbe60bf3d75ef465d3e404,,,,,,,,,,,,,,,,,,,,,,,,,,,,,,,,,,,,,,,,,,,,,,,,,,,,,,,,,,,,,,,,,,,,,,,,,,,,,,,,,,,,,,,,,,,,,,,,,,,,,,,,,,,,,,,,,,,,,,,,,,,,,,,,,,,,,,,,,,,,,,,,,,,,,,,,,,,,,,
0,77,77,85,1,,5f194a84823da61b2d97e805,62bbfd5c577dd0fadc318cfe,2022-06-29_09h50.44.375,Colour_Asymmetry_Pilot,2022.1.3,Win32,59.9880024,62bbe60bf3d75ef465d3e404,,,,,,,,,,,,,,,,,,,,,,,,,,,,,,,,,,,,,,,,,,,,,,,,,,,,,,,,,,,,,,,,,,,,,,,,,,,,,,,,,,,,,,,,,,,,,,,,,,,,,,,,,,,,,,,,,,,,,,,,,,,,,,,,,,,,,,,,,,,,,,,,,,,,,,,,,,,,,,
0,78,78,87,1,,5f194a84823da61b2d97e805,62bbfd5c577dd0fadc318cfe,2022-06-29_09h50.44.375,Colour_Asymmetry_Pilot,2022.1.3,Win32,59.9880024,62bbe60bf3d75ef465d3e404,,,,,,,,,,,,,,,,,,,,,,,,,,,,,,,,,,,,,,,,,,,,,,,,,,,,,,,,,,,,,,,,,,,,,,,,,,,,,,,,,,,,,,,,,,,,,,,,,,,,,,,,,,,,,,,,,,,,,,,,,,,,,,,,,,,,,,,,,,,,,,,,,,,,,,,,,,,,,,
0,79,79,39,1,,5f194a84823da61b2d97e805,62bbfd5c577dd0fadc318cfe,2022-06-29_09h50.44.375,Colour_Asymmetry_Pilot,2022.1.3,Win32,59.9880024,62bbe60bf3d75ef465d3e404,,,,,,,,,,,,,,,,,,,,,,,,,,,,,,,,,,,,,,,,,,,,,,,,,,,,,,,,,,,,,,,,,,,,,,,,,,,,,,,,,,,,,,,,,,,,,,,,,,,,,,,,,,,,,,,,,,,,,,,,,,,,,,,,,,,,,,,,,,,,,,,,,,,,,,,,,,,,,,
0,80,80,32,1,,5f194a84823da61b2d97e805,62bbfd5c577dd0fadc318cfe,2022-06-29_09h50.44.375,Colour_Asymmetry_Pilot,2022.1.3,Win32,59.9880024,62bbe60bf3d75ef465d3e404,,,,,,,,,,,,,,,,,,,,,,,,,,,,,,,,,,,,,,,,,,,,,,,,,,,,,,,,,,,,,,,,,,,,,,,,,,,,,,,,,,,,,,,,,,,,,,,,,,,,,,,,,,,,,,,,,,,,,,,,,,,,,,,,,,,,,,,,,,,,,,,,,,,,,,,,,,,,,,
0,81,81,70,1,,5f194a84823da61b2d97e805,62bbfd5c577dd0fadc318cfe,2022-06-29_09h50.44.375,Colour_Asymmetry_Pilot,2022.1.3,Win32,59.9880024,62bbe60bf3d75ef465d3e404,,,,,,,,,,,,,,,,,,,,,,,,,,,,,,,,,,,,,,,,,,,,,,,,,,,,,,,,,,,,,,,,,,,,,,,,,,,,,,,,,,,,,,,,,,,,,,,,,,,,,,,,,,,,,,,,,,,,,,,,,,,,,,,,,,,,,,,,,,,,,,,,,,,,,,,,,,,,,,
0,82,82,42,1,,5f194a84823da61b2d97e805,62bbfd5c577dd0fadc318cfe,2022-06-29_09h50.44.375,Colour_Asymmetry_Pilot,2022.1.3,Win32,59.9880024,62bbe60bf3d75ef465d3e404,,,,,,,,,,,,,,,,,,,,,,,,,,,,,,,,,,,,,,,,,,,,,,,,,,,,,,,,,,,,,,,,,,,,,,,,,,,,,,,,,,,,,,,,,,,,,,,,,,,,,,,,,,,,,,,,,,,,,,,,,,,,,,,,,,,,,,,,,,,,,,,,,,,,,,,,,,,,,,
0,83,83,23,1,,5f194a84823da61b2d97e805,62bbfd5c577dd0fadc318cfe,2022-06-29_09h50.44.375,Colour_Asymmetry_Pilot,2022.1.3,Win32,59.9880024,62bbe60bf3d75ef465d3e404,,,,,,,,,,,,,,,,,,,,,,,,,,,,,,,,,,,,,,,,,,,,,,,,,,,,,,,,,,,,,,,,,,,,,,,,,,,,,,,,,,,,,,,,,,,,,,,,,,,,,,,,,,,,,,,,,,,,,,,,,,,,,,,,,,,,,,,,,,,,,,,,,,,,,,,,,,,,,,
0,84,84,18,1,,5f194a84823da61b2d97e805,62bbfd5c577dd0fadc318cfe,2022-06-29_09h50.44.375,Colour_Asymmetry_Pilot,2022.1.3,Win32,59.9880024,62bbe60bf3d75ef465d3e404,,,,,,,,,,,,,,,,,,,,,,,,,,,,,,,,,,,,,,,,,,,,,,,,,,,,,,,,,,,,,,,,,,,,,,,,,,,,,,,,,,,,,,,,,,,,,,,,,,,,,,,,,,,,,,,,,,,,,,,,,,,,,,,,,,,,,,,,,,,,,,,,,,,,,,,,,,,,,,
0,85,85,66,1,,5f194a84823da61b2d97e805,62bbfd5c577dd0fadc318cfe,2022-06-29_09h50.44.375,Colour_Asymmetry_Pilot,2022.1.3,Win32,59.9880024,62bbe60bf3d75ef465d3e404,,,,,,,,,,,,,,,,,,,,,,,,,,,,,,,,,,,,,,,,,,,,,,,,,,,,,,,,,,,,,,,,,,,,,,,,,,,,,,,,,,,,,,,,,,,,,,,,,,,,,,,,,,,,,,,,,,,,,,,,,,,,,,,,,,,,,,,,,,,,,,,,,,,,,,,,,,,,,,
0,86,86,63,1,,5f194a84823da61b2d97e805,62bbfd5c577dd0fadc318cfe,2022-06-29_09h50.44.375,Colour_Asymmetry_Pilot,2022.1.3,Win32,59.9880024,62bbe60bf3d75ef465d3e404,,,,,,,,,,,,,,,,,,,,,,,,,,,,,,,,,,,,,,,,,,,,,,,,,,,,,,,,,,,,,,,,,,,,,,,,,,,,,,,,,,,,,,,,,,,,,,,,,,,,,,,,,,,,,,,,,,,,,,,,,,,,,,,,,,,,,,,,,,,,,,,,,,,,,,,,,,,,,,
0,87,87,16,1,,5f194a84823da61b2d97e805,62bbfd5c577dd0fadc318cfe,2022-06-29_09h50.44.375,Colour_Asymmetry_Pilot,2022.1.3,Win32,59.9880024,62bbe60bf3d75ef465d3e404,,,,,,,,,,,,,,,,,,,,,,,,,,,,,,,,,,,,,,,,,,,,,,,,,,,,,,,,,,,,,,,,,,,,,,,,,,,,,,,,,,,,,,,,,,,,,,,,,,,,,,,,,,,,,,,,,,,,,,,,,,,,,,,,,,,,,,,,,,,,,,,,,,,,,,,,,,,,,,
0,88,88,1,1,,5f194a84823da61b2d97e805,62bbfd5c577dd0fadc318cfe,2022-06-29_09h50.44.375,Colour_Asymmetry_Pilot,2022.1.3,Win32,59.9880024,62bbe60bf3d75ef465d3e404,,,,,,,,,,,,,,,,,,,,,,,,,,,,,,,,,,,,,,,,,,,,,,,,,,,,,,,,,,,,,,,,,,,,,,,,,,,,,,,,,,,,,,,,,,,,,,,,,,,,,,,,,,,,,,,,,,,,,,,,,,,,,,,,,,,,,,,,,,,,,,,,,,,,,,,,,,,,,,
0,89,89,59,1,,5f194a84823da61b2d97e805,62bbfd5c577dd0fadc318cfe,2022-06-29_09h50.44.375,Colour_Asymmetry_Pilot,2022.1.3,Win32,59.9880024,62bbe60bf3d75ef465d3e404,,,,,,,,,,,,,,,,,,,,,,,,,,,,,,,,,,,,,,,,,,,,,,,,,,,,,,,,,,,,,,,,,,,,,,,,,,,,,,,,,,,,,,,,,,,,,,,,,,,,,,,,,,,,,,,,,,,,,,,,,,,,,,,,,,,,,,,,,,,,,,,,,,,,,,,,,,,,,,
0,90,90,90,1,,5f194a84823da61b2d97e805,62bbfd5c577dd0fadc318cfe,2022-06-29_09h50.44.375,Colour_Asymmetry_Pilot,2022.1.3,Win32,59.9880024,62bbe60bf3d75ef465d3e404,,,,,,,,,,,,,,,,,,,,,,,,,,,,,,,,,,,,,,,,,,,,,,,,,,,,,,,,,,,,,,,,,,,,,,,,,,,,,,,,,,,,,,,,,,,,,,,,,,,,,,,,,,,,,,,,,,,,,,,,,,,,,,,,,,,,,,,,,,,,,,,,,,,,,,,,,,,,,,
0,91,91,26,1,,5f194a84823da61b2d97e805,62bbfd5c577dd0fadc318cfe,2022-06-29_09h50.44.375,Colour_Asymmetry_Pilot,2022.1.3,Win32,59.9880024,62bbe60bf3d75ef465d3e404,,,,,,,,,,,,,,,,,,,,,,,,,,,,,,,,,,,,,,,,,,,,,,,,,,,,,,,,,,,,,,,,,,,,,,,,,,,,,,,,,,,,,,,,,,,,,,,,,,,,,,,,,,,,,,,,,,,,,,,,,,,,,,,,,,,,,,,,,,,,,,,,,,,,,,,,,,,,,,
0,92,92,74,1,,5f194a84823da61b2d97e805,62bbfd5c577dd0fadc318cfe,2022-06-29_09h50.44.375,Colour_Asymmetry_Pilot,2022.1.3,Win32,59.9880024,62bbe60bf3d75ef465d3e404,,,,,,,,,,,,,,,,,,,,,,,,,,,,,,,,,,,,,,,,,,,,,,,,,,,,,,,,,,,,,,,,,,,,,,,,,,,,,,,,,,,,,,,,,,,,,,,,,,,,,,,,,,,,,,,,,,,,,,,,,,,,,,,,,,,,,,,,,,,,,,,,,,,,,,,,,,,,,,
,,,,,,5f194a84823da61b2d97e805,62bbfd5c577dd0fadc318cfe,2022-06-29_09h50.44.375,Colour_Asymmetry_Pilot,2022.1.3,Win32,59.9880024,62bbe60bf3d75ef465d3e404,0,0,0,31,1,fourthree,,,,,,,,,,,,,,,,,,,,,,,,,,,,,,,,,,,,,,,,,,,,,,,,,,,,,,,,,,,,,,,,,,,,,,,,,,,,,,,,,,,,,,,,,,,,,,,,,,,,,,,,,,,,,,,,,,,,,,,,,,,,,,,,,,,,,,,,,,,,,,,,,,,,,,,,
,,,,,,5f194a84823da61b2d97e805,62bbfd5c577dd0fadc318cfe,2022-06-29_09h50.44.375,Colour_Asymmetry_Pilot,2022.1.3,Win32,59.9880024,62bbe60bf3d75ef465d3e404,0,1,1,79,1,fourthree,,,,,,,,,,,,,,,,,,,,,,,,,,,,,,,,,,,,,,,,,,,,,,,,,,,,,,,,,,,,,,,,,,,,,,,,,,,,,,,,,,,,,,,,,,,,,,,,,,,,,,,,,,,,,,,,,,,,,,,,,,,,,,,,,,,,,,,,,,,,,,,,,,,,,,,,
,,,,,,5f194a84823da61b2d97e805,62bbfd5c577dd0fadc318cfe,2022-06-29_09h50.44.375,Colour_Asymmetry_Pilot,2022.1.3,Win32,59.9880024,62bbe60bf3d75ef465d3e404,0,2,2,138,1,twoone,,,,,,,,,,,,,,,,,,,,,,,,,,,,,,,,,,,,,,,,,,,,,,,,,,,,,,,,,,,,,,,,,,,,,,,,,,,,,,,,,,,,,,,,,,,,,,,,,,,,,,,,,,,,,,,,,,,,,,,,,,,,,,,,,,,,,,,,,,,,,,,,,,,,,,,,
,,,,,,5f194a84823da61b2d97e805,62bbfd5c577dd0fadc318cfe,2022-06-29_09h50.44.375,Colour_Asymmetry_Pilot,2022.1.3,Win32,59.9880024,62bbe60bf3d75ef465d3e404,0,3,3,36,1,threeone,,,,,,,,,,,,,,,,,,,,,,,,,,,,,,,,,,,,,,,,,,,,,,,,,,,,,,,,,,,,,,,,,,,,,,,,,,,,,,,,,,,,,,,,,,,,,,,,,,,,,,,,,,,,,,,,,,,,,,,,,,,,,,,,,,,,,,,,,,,,,,,,,,,,,,,,
,,,,,,5f194a84823da61b2d97e805,62bbfd5c577dd0fadc318cfe,2022-06-29_09h50.44.375,Colour_Asymmetry_Pilot,2022.1.3,Win32,59.9880024,62bbe60bf3d75ef465d3e404,0,4,4,81,1,onethree,,,,,,,,,,,,,,,,,,,,,,,,,,,,,,,,,,,,,,,,,,,,,,,,,,,,,,,,,,,,,,,,,,,,,,,,,,,,,,,,,,,,,,,,,,,,,,,,,,,,,,,,,,,,,,,,,,,,,,,,,,,,,,,,,,,,,,,,,,,,,,,,,,,,,,,,
,,,,,,5f194a84823da61b2d97e805,62bbfd5c577dd0fadc318cfe,2022-06-29_09h50.44.375,Colour_Asymmetry_Pilot,2022.1.3,Win32,59.9880024,62bbe60bf3d75ef465d3e404,0,5,5,84,1,threeone,,,,,,,,,,,,,,,,,,,,,,,,,,,,,,,,,,,,,,,,,,,,,,,,,,,,,,,,,,,,,,,,,,,,,,,,,,,,,,,,,,,,,,,,,,,,,,,,,,,,,,,,,,,,,,,,,,,,,,,,,,,,,,,,,,,,,,,,,,,,,,,,,,,,,,,,
,,,,,,5f194a84823da61b2d97e805,62bbfd5c577dd0fadc318cfe,2022-06-29_09h50.44.375,Colour_Asymmetry_Pilot,2022.1.3,Win32,59.9880024,62bbe60bf3d75ef465d3e404,0,6,6,48,1,onetwo,,,,,,,,,,,,,,,,,,,,,,,,,,,,,,,,,,,,,,,,,,,,,,,,,,,,,,,,,,,,,,,,,,,,,,,,,,,,,,,,,,,,,,,,,,,,,,,,,,,,,,,,,,,,,,,,,,,,,,,,,,,,,,,,,,,,,,,,,,,,,,,,,,,,,,,,
,,,,,,5f194a84823da61b2d97e805,62bbfd5c577dd0fadc318cfe,2022-06-29_09h50.44.375,Colour_Asymmetry_Pilot,2022.1.3,Win32,59.9880024,62bbe60bf3d75ef465d3e404,0,7,7,111,1,fourthree,,,,,,,,,,,,,,,,,,,,,,,,,,,,,,,,,,,,,,,,,,,,,,,,,,,,,,,,,,,,,,,,,,,,,,,,,,,,,,,,,,,,,,,,,,,,,,,,,,,,,,,,,,,,,,,,,,,,,,,,,,,,,,,,,,,,,,,,,,,,,,,,,,,,,,,,
,,,,,,5f194a84823da61b2d97e805,62bbfd5c577dd0fadc318cfe,2022-06-29_09h50.44.375,Colour_Asymmetry_Pilot,2022.1.3,Win32,59.9880024,62bbe60bf3d75ef465d3e404,0,8,8,108,1,threeone,,,,,,,,,,,,,,,,,,,,,,,,,,,,,,,,,,,,,,,,,,,,,,,,,,,,,,,,,,,,,,,,,,,,,,,,,,,,,,,,,,,,,,,,,,,,,,,,,,,,,,,,,,,,,,,,,,,,,,,,,,,,,,,,,,,,,,,,,,,,,,,,,,,,,,,,
,,,,,,5f194a84823da61b2d97e805,62bbfd5c577dd0fadc318cfe,2022-06-29_09h50.44.375,Colour_Asymmetry_Pilot,2022.1.3,Win32,59.9880024,62bbe60bf3d75ef465d3e404,0,9,9,44,1,threeone,,,,,,,,,,,,,,,,,,,,,,,,,,,,,,,,,,,,,,,,,,,,,,,,,,,,,,,,,,,,,,,,,,,,,,,,,,,,,,,,,,,,,,,,,,,,,,,,,,,,,,,,,,,,,,,,,,,,,,,,,,,,,,,,,,,,,,,,,,,,,,,,,,,,,,,,
,,,,,,5f194a84823da61b2d97e805,62bbfd5c577dd0fadc318cfe,2022-06-29_09h50.44.375,Colour_Asymmetry_Pilot,2022.1.3,Win32,59.9880024,62bbe60bf3d75ef465d3e404,0,10,10,155,1,twofour,,,,,,,,,,,,,,,,,,,,,,,,,,,,,,,,,,,,,,,,,,,,,,,,,,,,,,,,,,,,,,,,,,,,,,,,,,,,,,,,,,,,,,,,,,,,,,,,,,,,,,,,,,,,,,,,,,,,,,,,,,,,,,,,,,,,,,,,,,,,,,,,,,,,,,,,
,,,,,,5f194a84823da61b2d97e805,62bbfd5c577dd0fadc318cfe,2022-06-29_09h50.44.375,Colour_Asymmetry_Pilot,2022.1.3,Win32,59.9880024,62bbe60bf3d75ef465d3e404,0,11,11,83,1,twofour,,,,,,,,,,,,,,,,,,,,,,,,,,,,,,,,,,,,,,,,,,,,,,,,,,,,,,,,,,,,,,,,,,,,,,,,,,,,,,,,,,,,,,,,,,,,,,,,,,,,,,,,,,,,,,,,,,,,,,,,,,,,,,,,,,,,,,,,,,,,,,,,,,,,,,,,
,,,,,,5f194a84823da61b2d97e805,62bbfd5c577dd0fadc318cfe,2022-06-29_09h50.44.375,Colour_Asymmetry_Pilot,2022.1.3,Win32,59.9880024,62bbe60bf3d75ef465d3e404,0,12,12,67,1,twofour,,,,,,,,,,,,,,,,,,,,,,,,,,,,,,,,,,,,,,,,,,,,,,,,,,,,,,,,,,,,,,,,,,,,,,,,,,,,,,,,,,,,,,,,,,,,,,,,,,,,,,,,,,,,,,,,,,,,,,,,,,,,,,,,,,,,,,,,,,,,,,,,,,,,,,,,
,,,,,,5f194a84823da61b2d97e805,62bbfd5c577dd0fadc318cfe,2022-06-29_09h50.44.375,Colour_Asymmetry_Pilot,2022.1.3,Win32,59.9880024,62bbe60bf3d75ef465d3e404,0,13,13,156,1,threeone,,,,,,,,,,,,,,,,,,,,,,,,,,,,,,,,,,,,,,,,,,,,,,,,,,,,,,,,,,,,,,,,,,,,,,,,,,,,,,,,,,,,,,,,,,,,,,,,,,,,,,,,,,,,,,,,,,,,,,,,,,,,,,,,,,,,,,,,,,,,,,,,,,,,,,,,
,,,,,,5f194a84823da61b2d97e805,62bbfd5c577dd0fadc318cfe,2022-06-29_09h50.44.375,Colour_Asymmetry_Pilot,2022.1.3,Win32,59.9880024,62bbe60bf3d75ef465d3e404,0,14,14,70,1,fourtwo,,,,,,,,,,,,,,,,,,,,,,,,,,,,,,,,,,,,,,,,,,,,,,,,,,,,,,,,,,,,,,,,,,,,,,,,,,,,,,,,,,,,,,,,,,,,,,,,,,,,,,,,,,,,,,,,,,,,,,,,,,,,,,,,,,,,,,,,,,,,,,,,,,,,,,,,
,,,,,,5f194a84823da61b2d97e805,62bbfd5c577dd0fadc318cfe,2022-06-29_09h50.44.375,Colour_Asymmetry_Pilot,2022.1.3,Win32,59.9880024,62bbe60bf3d75ef465d3e404,0,15,15,37,1,threefour,,,,,,,,,,,,,,,,,,,,,,,,,,,,,,,,,,,,,,,,,,,,,,,,,,,,,,,,,,,,,,,,,,,,,,,,,,,,,,,,,,,,,,,,,,,,,,,,,,,,,,,,,,,,,,,,,,,,,,,,,,,,,,,,,,,,,,,,,,,,,,,,,,,,,,,,
,,,,,,5f194a84823da61b2d97e805,62bbfd5c577dd0fadc318cfe,2022-06-29_09h50.44.375,Colour_Asymmetry_Pilot,2022.1.3,Win32,59.9880024,62bbe60bf3d75ef465d3e404,0,16,16,23,1,fourthree,,,,,,,,,,,,,,,,,,,,,,,,,,,,,,,,,,,,,,,,,,,,,,,,,,,,,,,,,,,,,,,,,,,,,,,,,,,,,,,,,,,,,,,,,,,,,,,,,,,,,,,,,,,,,,,,,,,,,,,,,,,,,,,,,,,,,,,,,,,,,,,,,,,,,,,,
,,,,,,5f194a84823da61b2d97e805,62bbfd5c577dd0fadc318cfe,2022-06-29_09h50.44.375,Colour_Asymmetry_Pilot,2022.1.3,Win32,59.9880024,62bbe60bf3d75ef465d3e404,0,17,17,151,1,fourthree,,,,,,,,,,,,,,,,,,,,,,,,,,,,,,,,,,,,,,,,,,,,,,,,,,,,,,,,,,,,,,,,,,,,,,,,,,,,,,,,,,,,,,,,,,,,,,,,,,,,,,,,,,,,,,,,,,,,,,,,,,,,,,,,,,,,,,,,,,,,,,,,,,,,,,,,
,,,,,,5f194a84823da61b2d97e805,62bbfd5c577dd0fadc318cfe,2022-06-29_09h50.44.375,Colour_Asymmetry_Pilot,2022.1.3,Win32,59.9880024,62bbe60bf3d75ef465d3e404,0,18,18,87,1,fourthree,,,,,,,,,,,,,,,,,,,,,,,,,,,,,,,,,,,,,,,,,,,,,,,,,,,,,,,,,,,,,,,,,,,,,,,,,,,,,,,,,,,,,,,,,,,,,,,,,,,,,,,,,,,,,,,,,,,,,,,,,,,,,,,,,,,,,,,,,,,,,,,,,,,,,,,,
,,,,,,5f194a84823da61b2d97e805,62bbfd5c577dd0fadc318cfe,2022-06-29_09h50.44.375,Colour_Asymmetry_Pilot,2022.1.3,Win32,59.9880024,62bbe60bf3d75ef465d3e404,0,19,19,121,1,onethree,,,,,,,,,,,,,,,,,,,,,,,,,,,,,,,,,,,,,,,,,,,,,,,,,,,,,,,,,,,,,,,,,,,,,,,,,,,,,,,,,,,,,,,,,,,,,,,,,,,,,,,,,,,,,,,,,,,,,,,,,,,,,,,,,,,,,,,,,,,,,,,,,,,,,,,,
,,,,,,5f194a84823da61b2d97e805,62bbfd5c577dd0fadc318cfe,2022-06-29_09h50.44.375,Colour_Asymmetry_Pilot,2022.1.3,Win32,59.9880024,62bbe60bf3d75ef465d3e404,0,20,20,52,1,threeone,,,,,,,,,,,,,,,,,,,,,,,,,,,,,,,,,,,,,,,,,,,,,,,,,,,,,,,,,,,,,,,,,,,,,,,,,,,,,,,,,,,,,,,,,,,,,,,,,,,,,,,,,,,,,,,,,,,,,,,,,,,,,,,,,,,,,,,,,,,,,,,,,,,,,,,,
,,,,,,5f194a84823da61b2d97e805,62bbfd5c577dd0fadc318cfe,2022-06-29_09h50.44.375,Colour_Asymmetry_Pilot,2022.1.3,Win32,59.9880024,62bbe60bf3d75ef465d3e404,0,21,21,134,1,fourtwo,,,,,,,,,,,,,,,,,,,,,,,,,,,,,,,,,,,,,,,,,,,,,,,,,,,,,,,,,,,,,,,,,,,,,,,,,,,,,,,,,,,,,,,,,,,,,,,,,,,,,,,,,,,,,,,,,,,,,,,,,,,,,,,,,,,,,,,,,,,,,,,,,,,,,,,,
,,,,,,5f194a84823da61b2d97e805,62bbfd5c577dd0fadc318cfe,2022-06-29_09h50.44.375,Colour_Asymmetry_Pilot,2022.1.3,Win32,59.9880024,62bbe60bf3d75ef465d3e404,0,22,22,10,1,twoone,,,,,,,,,,,,,,,,,,,,,,,,,,,,,,,,,,,,,,,,,,,,,,,,,,,,,,,,,,,,,,,,,,,,,,,,,,,,,,,,,,,,,,,,,,,,,,,,,,,,,,,,,,,,,,,,,,,,,,,,,,,,,,,,,,,,,,,,,,,,,,,,,,,,,,,,
,,,,,,5f194a84823da61b2d97e805,62bbfd5c577dd0fadc318cfe,2022-06-29_09h50.44.375,Colour_Asymmetry_Pilot,2022.1.3,Win32,59.9880024,62bbe60bf3d75ef465d3e404,0,23,23,51,1,twofour,,,,,,,,,,,,,,,,,,,,,,,,,,,,,,,,,,,,,,,,,,,,,,,,,,,,,,,,,,,,,,,,,,,,,,,,,,,,,,,,,,,,,,,,,,,,,,,,,,,,,,,,,,,,,,,,,,,,,,,,,,,,,,,,,,,,,,,,,,,,,,,,,,,,,,,,
,,,,,,5f194a84823da61b2d97e805,62bbfd5c577dd0fadc318cfe,2022-06-29_09h50.44.375,Colour_Asymmetry_Pilot,2022.1.3,Win32,59.9880024,62bbe60bf3d75ef465d3e404,0,24,24,119,1,fourthree,,,,,,,,,,,,,,,,,,,,,,,,,,,,,,,,,,,,,,,,,,,,,,,,,,,,,,,,,,,,,,,,,,,,,,,,,,,,,,,,,,,,,,,,,,,,,,,,,,,,,,,,,,,,,,,,,,,,,,,,,,,,,,,,,,,,,,,,,,,,,,,,,,,,,,,,
,,,,,,5f194a84823da61b2d97e805,62bbfd5c577dd0fadc318cfe,2022-06-29_09h50.44.375,Colour_Asymmetry_Pilot,2022.1.3,Win32,59.9880024,62bbe60bf3d75ef465d3e404,0,25,25,62,1,fourtwo,,,,,,,,,,,,,,,,,,,,,,,,,,,,,,,,,,,,,,,,,,,,,,,,,,,,,,,,,,,,,,,,,,,,,,,,,,,,,,,,,,,,,,,,,,,,,,,,,,,,,,,,,,,,,,,,,,,,,,,,,,,,,,,,,,,,,,,,,,,,,,,,,,,,,,,,
,,,,,,5f194a84823da61b2d97e805,62bbfd5c577dd0fadc318cfe,2022-06-29_09h50.44.375,Colour_Asymmetry_Pilot,2022.1.3,Win32,59.9880024,62bbe60bf3d75ef465d3e404,0,26,26,161,1,onethree,,,,,,,,,,,,,,,,,,,,,,,,,,,,,,,,,,,,,,,,,,,,,,,,,,,,,,,,,,,,,,,,,,,,,,,,,,,,,,,,,,,,,,,,,,,,,,,,,,,,,,,,,,,,,,,,,,,,,,,,,,,,,,,,,,,,,,,,,,,,,,,,,,,,,,,,
,,,,,,5f194a84823da61b2d97e805,62bbfd5c577dd0fadc318cfe,2022-06-29_09h50.44.375,Colour_Asymmetry_Pilot,2022.1.3,Win32,59.9880024,62bbe60bf3d75ef465d3e404,0,27,27,78,1,fourtwo,,,,,,,,,,,,,,,,,,,,,,,,,,,,,,,,,,,,,,,,,,,,,,,,,,,,,,,,,,,,,,,,,,,,,,,,,,,,,,,,,,,,,,,,,,,,,,,,,,,,,,,,,,,,,,,,,,,,,,,,,,,,,,,,,,,,,,,,,,,,,,,,,,,,,,,,
,,,,,,5f194a84823da61b2d97e805,62bbfd5c577dd0fadc318cfe,2022-06-29_09h50.44.375,Colour_Asymmetry_Pilot,2022.1.3,Win32,59.9880024,62bbe60bf3d75ef465d3e404,0,28,28,39,1,fourthree,,,,,,,,,,,,,,,,,,,,,,,,,,,,,,,,,,,,,,,,,,,,,,,,,,,,,,,,,,,,,,,,,,,,,,,,,,,,,,,,,,,,,,,,,,,,,,,,,,,,,,,,,,,,,,,,,,,,,,,,,,,,,,,,,,,,,,,,,,,,,,,,,,,,,,,,
,,,,,,5f194a84823da61b2d97e805,62bbfd5c577dd0fadc318cfe,2022-06-29_09h50.44.375,Colour_Asymmetry_Pilot,2022.1.3,Win32,59.9880024,62bbe60bf3d75ef465d3e404,0,29,29,88,1,onetwo,,,,,,,,,,,,,,,,,,,,,,,,,,,,,,,,,,,,,,,,,,,,,,,,,,,,,,,,,,,,,,,,,,,,,,,,,,,,,,,,,,,,,,,,,,,,,,,,,,,,,,,,,,,,,,,,,,,,,,,,,,,,,,,,,,,,,,,,,,,,,,,,,,,,,,,,
,,,,,,5f194a84823da61b2d97e805,62bbfd5c577dd0fadc318cfe,2022-06-29_09h50.44.375,Colour_Asymmetry_Pilot,2022.1.3,Win32,59.9880024,62bbe60bf3d75ef465d3e404,0,30,30,123,1,twofour,,,,,,,,,,,,,,,,,,,,,,,,,,,,,,,,,,,,,,,,,,,,,,,,,,,,,,,,,,,,,,,,,,,,,,,,,,,,,,,,,,,,,,,,,,,,,,,,,,,,,,,,,,,,,,,,,,,,,,,,,,,,,,,,,,,,,,,,,,,,,,,,,,,,,,,,
,,,,,,5f194a84823da61b2d97e805,62bbfd5c577dd0fadc318cfe,2022-06-29_09h50.44.375,Colour_Asymmetry_Pilot,2022.1.3,Win32,59.9880024,62bbe60bf3d75ef465d3e404,0,31,31,1,1,onethree,,,,,,,,,,,,,,,,,,,,,,,,,,,,,,,,,,,,,,,,,,,,,,,,,,,,,,,,,,,,,,,,,,,,,,,,,,,,,,,,,,,,,,,,,,,,,,,,,,,,,,,,,,,,,,,,,,,,,,,,,,,,,,,,,,,,,,,,,,,,,,,,,,,,,,,,
,,,,,,5f194a84823da61b2d97e805,62bbfd5c577dd0fadc318cfe,2022-06-29_09h50.44.375,Colour_Asymmetry_Pilot,2022.1.3,Win32,59.9880024,62bbe60bf3d75ef465d3e404,0,32,32,20,1,threeone,,,,,,,,,,,,,,,,,,,,,,,,,,,,,,,,,,,,,,,,,,,,,,,,,,,,,,,,,,,,,,,,,,,,,,,,,,,,,,,,,,,,,,,,,,,,,,,,,,,,,,,,,,,,,,,,,,,,,,,,,,,,,,,,,,,,,,,,,,,,,,,,,,,,,,,,
,,,,,,5f194a84823da61b2d97e805,62bbfd5c577dd0fadc318cfe,2022-06-29_09h50.44.375,Colour_Asymmetry_Pilot,2022.1.3,Win32,59.9880024,62bbe60bf3d75ef465d3e404,0,33,33,45,1,threefour,,,,,,,,,,,,,,,,,,,,,,,,,,,,,,,,,,,,,,,,,,,,,,,,,,,,,,,,,,,,,,,,,,,,,,,,,,,,,,,,,,,,,,,,,,,,,,,,,,,,,,,,,,,,,,,,,,,,,,,,,,,,,,,,,,,,,,,,,,,,,,,,,,,,,,,,
,,,,,,5f194a84823da61b2d97e805,62bbfd5c577dd0fadc318cfe,2022-06-29_09h50.44.375,Colour_Asymmetry_Pilot,2022.1.3,Win32,59.9880024,62bbe60bf3d75ef465d3e404,0,34,34,63,1,fourthree,,,,,,,,,,,,,,,,,,,,,,,,,,,,,,,,,,,,,,,,,,,,,,,,,,,,,,,,,,,,,,,,,,,,,,,,,,,,,,,,,,,,,,,,,,,,,,,,,,,,,,,,,,,,,,,,,,,,,,,,,,,,,,,,,,,,,,,,,,,,,,,,,,,,,,,,
,,,,,,5f194a84823da61b2d97e805,62bbfd5c577dd0fadc318cfe,2022-06-29_09h50.44.375,Colour_Asymmetry_Pilot,2022.1.3,Win32,59.9880024,62bbe60bf3d75ef465d3e404,0,35,35,91,1,twofour,,,,,,,,,,,,,,,,,,,,,,,,,,,,,,,,,,,,,,,,,,,,,,,,,,,,,,,,,,,,,,,,,,,,,,,,,,,,,,,,,,,,,,,,,,,,,,,,,,,,,,,,,,,,,,,,,,,,,,,,,,,,,,,,,,,,,,,,,,,,,,,,,,,,,,,,
,,,,,,5f194a84823da61b2d97e805,62bbfd5c577dd0fadc318cfe,2022-06-29_09h50.44.375,Colour_Asymmetry_Pilot,2022.1.3,Win32,59.9880024,62bbe60bf3d75ef465d3e404,0,36,36,38,1,fourtwo,,,,,,,,,,,,,,,,,,,,,,,,,,,,,,,,,,,,,,,,,,,,,,,,,,,,,,,,,,,,,,,,,,,,,,,,,,,,,,,,,,,,,,,,,,,,,,,,,,,,,,,,,,,,,,,,,,,,,,,,,,,,,,,,,,,,,,,,,,,,,,,,,,,,,,,,
,,,,,,5f194a84823da61b2d97e805,62bbfd5c577dd0fadc318cfe,2022-06-29_09h50.44.375,Colour_Asymmetry_Pilot,2022.1.3,Win32,59.9880024,62bbe60bf3d75ef465d3e404,0,37,37,120,1,onetwo,,,,,,,,,,,,,,,,,,,,,,,,,,,,,,,,,,,,,,,,,,,,,,,,,,,,,,,,,,,,,,,,,,,,,,,,,,,,,,,,,,,,,,,,,,,,,,,,,,,,,,,,,,,,,,,,,,,,,,,,,,,,,,,,,,,,,,,,,,,,,,,,,,,,,,,,
,,,,,,5f194a84823da61b2d97e805,62bbfd5c577dd0fadc318cfe,2022-06-29_09h50.44.375,Colour_Asymmetry_Pilot,2022.1.3,Win32,59.9880024,62bbe60bf3d75ef465d3e404,0,38,38,27,1,twofour,,,,,,,,,,,,,,,,,,,,,,,,,,,,,,,,,,,,,,,,,,,,,,,,,,,,,,,,,,,,,,,,,,,,,,,,,,,,,,,,,,,,,,,,,,,,,,,,,,,,,,,,,,,,,,,,,,,,,,,,,,,,,,,,,,,,,,,,,,,,,,,,,,,,,,,,
,,,,,,5f194a84823da61b2d97e805,62bbfd5c577dd0fadc318cfe,2022-06-29_09h50.44.375,Colour_Asymmetry_Pilot,2022.1.3,Win32,59.9880024,62bbe60bf3d75ef465d3e404,0,39,39,139,1,twofour,,,,,,,,,,,,,,,,,,,,,,,,,,,,,,,,,,,,,,,,,,,,,,,,,,,,,,,,,,,,,,,,,,,,,,,,,,,,,,,,,,,,,,,,,,,,,,,,,,,,,,,,,,,,,,,,,,,,,,,,,,,,,,,,,,,,,,,,,,,,,,,,,,,,,,,,
,,,,,,5f194a84823da61b2d97e805,62bbfd5c577dd0fadc318cfe,2022-06-29_09h50.44.375,Colour_Asymmetry_Pilot,2022.1.3,Win32,59.9880024,62bbe60bf3d75ef465d3e404,0,40,40,25,1,onethree,,,,,,,,,,,,,,,,,,,,,,,,,,,,,,,,,,,,,,,,,,,,,,,,,,,,,,,,,,,,,,,,,,,,,,,,,,,,,,,,,,,,,,,,,,,,,,,,,,,,,,,,,,,,,,,,,,,,,,,,,,,,,,,,,,,,,,,,,,,,,,,,,,,,,,,,
,,,,,,5f194a84823da61b2d97e805,62bbfd5c577dd0fadc318cfe,2022-06-29_09h50.44.375,Colour_Asymmetry_Pilot,2022.1.3,Win32,59.9880024,62bbe60bf3d75ef465d3e404,0,41,41,140,1,threeone,,,,,,,,,,,,,,,,,,,,,,,,,,,,,,,,,,,,,,,,,,,,,,,,,,,,,,,,,,,,,,,,,,,,,,,,,,,,,,,,,,,,,,,,,,,,,,,,,,,,,,,,,,,,,,,,,,,,,,,,,,,,,,,,,,,,,,,,,,,,,,,,,,,,,,,,
,,,,,,5f194a84823da61b2d97e805,62bbfd5c577dd0fadc318cfe,2022-06-29_09h50.44.375,Colour_Asymmetry_Pilot,2022.1.3,Win32,59.9880024,62bbe60bf3d75ef465d3e404,0,42,42,18,1,twoone,,,,,,,,,,,,,,,,,,,,,,,,,,,,,,,,,,,,,,,,,,,,,,,,,,,,,,,,,,,,,,,,,,,,,,,,,,,,,,,,,,,,,,,,,,,,,,,,,,,,,,,,,,,,,,,,,,,,,,,,,,,,,,,,,,,,,,,,,,,,,,,,,,,,,,,,
,,,,,,5f194a84823da61b2d97e805,62bbfd5c577dd0fadc318cfe,2022-06-29_09h50.44.375,Colour_Asymmetry_Pilot,2022.1.3,Win32,59.9880024,62bbe60bf3d75ef465d3e404,0,43,43,89,1,onethree,,,,,,,,,,,,,,,,,,,,,,,,,,,,,,,,,,,,,,,,,,,,,,,,,,,,,,,,,,,,,,,,,,,,,,,,,,,,,,,,,,,,,,,,,,,,,,,,,,,,,,,,,,,,,,,,,,,,,,,,,,,,,,,,,,,,,,,,,,,,,,,,,,,,,,,,
,,,,,,5f194a84823da61b2d97e805,62bbfd5c577dd0fadc318cfe,2022-06-29_09h50.44.375,Colour_Asymmetry_Pilot,2022.1.3,Win32,59.9880024,62bbe60bf3d75ef465d3e404,0,44,44,94,1,fourtwo,,,,,,,,,,,,,,,,,,,,,,,,,,,,,,,,,,,,,,,,,,,,,,,,,,,,,,,,,,,,,,,,,,,,,,,,,,,,,,,,,,,,,,,,,,,,,,,,,,,,,,,,,,,,,,,,,,,,,,,,,,,,,,,,,,,,,,,,,,,,,,,,,,,,,,,,
,,,,,,5f194a84823da61b2d97e805,62bbfd5c577dd0fadc318cfe,2022-06-29_09h50.44.375,Colour_Asymmetry_Pilot,2022.1.3,Win32,59.9880024,62bbe60bf3d75ef465d3e404,0,45,45,21,1,threefour,,,,,,,,,,,,,,,,,,,,,,,,,,,,,,,,,,,,,,,,,,,,,,,,,,,,,,,,,,,,,,,,,,,,,,,,,,,,,,,,,,,,,,,,,,,,,,,,,,,,,,,,,,,,,,,,,,,,,,,,,,,,,,,,,,,,,,,,,,,,,,,,,,,,,,,,
,,,,,,5f194a84823da61b2d97e805,62bbfd5c577dd0fadc318cfe,2022-06-29_09h50.44.375,Colour_Asymmetry_Pilot,2022.1.3,Win32,59.9880024,62bbe60bf3d75ef465d3e404,0,46,46,128,1,onetwo,,,,,,,,,,,,,,,,,,,,,,,,,,,,,,,,,,,,,,,,,,,,,,,,,,,,,,,,,,,,,,,,,,,,,,,,,,,,,,,,,,,,,,,,,,,,,,,,,,,,,,,,,,,,,,,,,,,,,,,,,,,,,,,,,,,,,,,,,,,,,,,,,,,,,,,,
,,,,,,5f194a84823da61b2d97e805,62bbfd5c577dd0fadc318cfe,2022-06-29_09h50.44.375,Colour_Asymmetry_Pilot,2022.1.3,Win32,59.9880024,62bbe60bf3d75ef465d3e404,0,47,47,144,1,onetwo,,,,,,,,,,,,,,,,,,,,,,,,,,,,,,,,,,,,,,,,,,,,,,,,,,,,,,,,,,,,,,,,,,,,,,,,,,,,,,,,,,,,,,,,,,,,,,,,,,,,,,,,,,,,,,,,,,,,,,,,,,,,,,,,,,,,,,,,,,,,,,,,,,,,,,,,
,,,,,,5f194a84823da61b2d97e805,62bbfd5c577dd0fadc318cfe,2022-06-29_09h50.44.375,Colour_Asymmetry_Pilot,2022.1.3,Win32,59.9880024,62bbe60bf3d75ef465d3e404,0,48,48,99,1,twofour,,,,,,,,,,,,,,,,,,,,,,,,,,,,,,,,,,,,,,,,,,,,,,,,,,,,,,,,,,,,,,,,,,,,,,,,,,,,,,,,,,,,,,,,,,,,,,,,,,,,,,,,,,,,,,,,,,,,,,,,,,,,,,,,,,,,,,,,,,,,,,,,,,,,,,,,
,,,,,,5f194a84823da61b2d97e805,62bbfd5c577dd0fadc318cfe,2022-06-29_09h50.44.375,Colour_Asymmetry_Pilot,2022.1.3,Win32,59.9880024,62bbe60bf3d75ef465d3e404,0,49,49,126,1,fourtwo,,,,,,,,,,,,,,,,,,,,,,,,,,,,,,,,,,,,,,,,,,,,,,,,,,,,,,,,,,,,,,,,,,,,,,,,,,,,,,,,,,,,,,,,,,,,,,,,,,,,,,,,,,,,,,,,,,,,,,,,,,,,,,,,,,,,,,,,,,,,,,,,,,,,,,,,
,,,,,,5f194a84823da61b2d97e805,62bbfd5c577dd0fadc318cfe,2022-06-29_09h50.44.375,Colour_Asymmetry_Pilot,2022.1.3,Win32,59.9880024,62bbe60bf3d75ef465d3e404,0,50,50,114,1,twoone,,,,,,,,,,,,,,,,,,,,,,,,,,,,,,,,,,,,,,,,,,,,,,,,,,,,,,,,,,,,,,,,,,,,,,,,,,,,,,,,,,,,,,,,,,,,,,,,,,,,,,,,,,,,,,,,,,,,,,,,,,,,,,,,,,,,,,,,,,,,,,,,,,,,,,,,
,,,,,,5f194a84823da61b2d97e805,62bbfd5c577dd0fadc318cfe,2022-06-29_09h50.44.375,Colour_Asymmetry_Pilot,2022.1.3,Win32,59.9880024,62bbe60bf3d75ef465d3e404,0,51,51,49,1,onethree,,,,,,,,,,,,,,,,,,,,,,,,,,,,,,,,,,,,,,,,,,,,,,,,,,,,,,,,,,,,,,,,,,,,,,,,,,,,,,,,,,,,,,,,,,,,,,,,,,,,,,,,,,,,,,,,,,,,,,,,,,,,,,,,,,,,,,,,,,,,,,,,,,,,,,,,
,,,,,,5f194a84823da61b2d97e805,62bbfd5c577dd0fadc318cfe,2022-06-29_09h50.44.375,Colour_Asymmetry_Pilot,2022.1.3,Win32,59.9880024,62bbe60bf3d75ef465d3e404,0,52,52,60,1,threeone,,,,,,,,,,,,,,,,,,,,,,,,,,,,,,,,,,,,,,,,,,,,,,,,,,,,,,,,,,,,,,,,,,,,,,,,,,,,,,,,,,,,,,,,,,,,,,,,,,,,,,,,,,,,,,,,,,,,,,,,,,,,,,,,,,,,,,,,,,,,,,,,,,,,,,,,
,,,,,,5f194a84823da61b2d97e805,62bbfd5c577dd0fadc318cfe,2022-06-29_09h50.44.375,Colour_Asymmetry_Pilot,2022.1.3,Win32,59.9880024,62bbe60bf3d75ef465d3e404,0,53,53,11,1,twofour,,,,,,,,,,,,,,,,,,,,,,,,,,,,,,,,,,,,,,,,,,,,,,,,,,,,,,,,,,,,,,,,,,,,,,,,,,,,,,,,,,,,,,,,,,,,,,,,,,,,,,,,,,,,,,,,,,,,,,,,,,,,,,,,,,,,,,,,,,,,,,,,,,,,,,,,
,,,,,,5f194a84823da61b2d97e805,62bbfd5c577dd0fadc318cfe,2022-06-29_09h50.44.375,Colour_Asymmetry_Pilot,2022.1.3,Win32,59.9880024,62bbe60bf3d75ef465d3e404,0,54,54,15,1,fourthree,,,,,,,,,,,,,,,,,,,,,,,,,,,,,,,,,,,,,,,,,,,,,,,,,,,,,,,,,,,,,,,,,,,,,,,,,,,,,,,,,,,,,,,,,,,,,,,,,,,,,,,,,,,,,,,,,,,,,,,,,,,,,,,,,,,,,,,,,,,,,,,,,,,,,,,,
,,,,,,5f194a84823da61b2d97e805,62bbfd5c577dd0fadc318cfe,2022-06-29_09h50.44.375,Colour_Asymmetry_Pilot,2022.1.3,Win32,59.9880024,62bbe60bf3d75ef465d3e404,0,55,55,73,1,onethree,,,,,,,,,,,,,,,,,,,,,,,,,,,,,,,,,,,,,,,,,,,,,,,,,,,,,,,,,,,,,,,,,,,,,,,,,,,,,,,,,,,,,,,,,,,,,,,,,,,,,,,,,,,,,,,,,,,,,,,,,,,,,,,,,,,,,,,,,,,,,,,,,,,,,,,,
,,,,,,5f194a84823da61b2d97e805,62bbfd5c577dd0fadc318cfe,2022-06-29_09h50.44.375,Colour_Asymmetry_Pilot,2022.1.3,Win32,59.9880024,62bbe60bf3d75ef465d3e404,0,56,56,17,1,onethree,,,,,,,,,,,,,,,,,,,,,,,,,,,,,,,,,,,,,,,,,,,,,,,,,,,,,,,,,,,,,,,,,,,,,,,,,,,,,,,,,,,,,,,,,,,,,,,,,,,,,,,,,,,,,,,,,,,,,,,,,,,,,,,,,,,,,,,,,,,,,,,,,,,,,,,,
,,,,,,5f194a84823da61b2d97e805,62bbfd5c577dd0fadc318cfe,2022-06-29_09h50.44.375,Colour_Asymmetry_Pilot,2022.1.3,Win32,59.9880024,62bbe60bf3d75ef465d3e404,0,57,57,2,1,twoone,,,,,,,,,,,,,,,,,,,,,,,,,,,,,,,,,,,,,,,,,,,,,,,,,,,,,,,,,,,,,,,,,,,,,,,,,,,,,,,,,,,,,,,,,,,,,,,,,,,,,,,,,,,,,,,,,,,,,,,,,,,,,,,,,,,,,,,,,,,,,,,,,,,,,,,,
,,,,,,5f194a84823da61b2d97e805,62bbfd5c577dd0fadc318cfe,2022-06-29_09h50.44.375,Colour_Asymmetry_Pilot,2022.1.3,Win32,59.9880024,62bbe60bf3d75ef465d3e404,0,58,58,160,1,onetwo,,,,,,,,,,,,,,,,,,,,,,,,,,,,,,,,,,,,,,,,,,,,,,,,,,,,,,,,,,,,,,,,,,,,,,,,,,,,,,,,,,,,,,,,,,,,,,,,,,,,,,,,,,,,,,,,,,,,,,,,,,,,,,,,,,,,,,,,,,,,,,,,,,,,,,,,
,,,,,,5f194a84823da61b2d97e805,62bbfd5c577dd0fadc318cfe,2022-06-29_09h50.44.375,Colour_Asymmetry_Pilot,2022.1.3,Win32,59.9880024,62bbe60bf3d75ef465d3e404,0,59,59,55,1,fourthree,,,,,,,,,,,,,,,,,,,,,,,,,,,,,,,,,,,,,,,,,,,,,,,,,,,,,,,,,,,,,,,,,,,,,,,,,,,,,,,,,,,,,,,,,,,,,,,,,,,,,,,,,,,,,,,,,,,,,,,,,,,,,,,,,,,,,,,,,,,,,,,,,,,,,,,,
,,,,,,5f194a84823da61b2d97e805,62bbfd5c577dd0fadc318cfe,2022-06-29_09h50.44.375,Colour_Asymmetry_Pilot,2022.1.3,Win32,59.9880024,62bbe60bf3d75ef465d3e404,0,60,60,6,1,fourtwo,,,,,,,,,,,,,,,,,,,,,,,,,,,,,,,,,,,,,,,,,,,,,,,,,,,,,,,,,,,,,,,,,,,,,,,,,,,,,,,,,,,,,,,,,,,,,,,,,,,,,,,,,,,,,,,,,,,,,,,,,,,,,,,,,,,,,,,,,,,,,,,,,,,,,,,,
,,,,,,5f194a84823da61b2d97e805,62bbfd5c577dd0fadc318cfe,2022-06-29_09h50.44.375,Colour_Asymmetry_Pilot,2022.1.3,Win32,59.9880024,62bbe60bf3d75ef465d3e404,0,61,61,154,1,twoone,,,,,,,,,,,,,,,,,,,,,,,,,,,,,,,,,,,,,,,,,,,,,,,,,,,,,,,,,,,,,,,,,,,,,,,,,,,,,,,,,,,,,,,,,,,,,,,,,,,,,,,,,,,,,,,,,,,,,,,,,,,,,,,,,,,,,,,,,,,,,,,,,,,,,,,,
,,,,,,5f194a84823da61b2d97e805,62bbfd5c577dd0fadc318cfe,2022-06-29_09h50.44.375,Colour_Asymmetry_Pilot,2022.1.3,Win32,59.9880024,62bbe60bf3d75ef465d3e404,0,62,62,14,1,fourtwo,,,,,,,,,,,,,,,,,,,,,,,,,,,,,,,,,,,,,,,,,,,,,,,,,,,,,,,,,,,,,,,,,,,,,,,,,,,,,,,,,,,,,,,,,,,,,,,,,,,,,,,,,,,,,,,,,,,,,,,,,,,,,,,,,,,,,,,,,,,,,,,,,,,,,,,,
,,,,,,5f194a84823da61b2d97e805,62bbfd5c577dd0fadc318cfe,2022-06-29_09h50.44.375,Colour_Asymmetry_Pilot,2022.1.3,Win32,59.9880024,62bbe60bf3d75ef465d3e404,0,63,63,61,1,threefour,,,,,,,,,,,,,,,,,,,,,,,,,,,,,,,,,,,,,,,,,,,,,,,,,,,,,,,,,,,,,,,,,,,,,,,,,,,,,,,,,,,,,,,,,,,,,,,,,,,,,,,,,,,,,,,,,,,,,,,,,,,,,,,,,,,,,,,,,,,,,,,,,,,,,,,,
,,,,,,5f194a84823da61b2d97e805,62bbfd5c577dd0fadc318cfe,2022-06-29_09h50.44.375,Colour_Asymmetry_Pilot,2022.1.3,Win32,59.9880024,62bbe60bf3d75ef465d3e404,0,64,64,34,1,twoone,,,,,,,,,,,,,,,,,,,,,,,,,,,,,,,,,,,,,,,,,,,,,,,,,,,,,,,,,,,,,,,,,,,,,,,,,,,,,,,,,,,,,,,,,,,,,,,,,,,,,,,,,,,,,,,,,,,,,,,,,,,,,,,,,,,,,,,,,,,,,,,,,,,,,,,,
,,,,,,5f194a84823da61b2d97e805,62bbfd5c577dd0fadc318cfe,2022-06-29_09h50.44.375,Colour_Asymmetry_Pilot,2022.1.3,Win32,59.9880024,62bbe60bf3d75ef465d3e404,0,65,65,19,1,twofour,,,,,,,,,,,,,,,,,,,,,,,,,,,,,,,,,,,,,,,,,,,,,,,,,,,,,,,,,,,,,,,,,,,,,,,,,,,,,,,,,,,,,,,,,,,,,,,,,,,,,,,,,,,,,,,,,,,,,,,,,,,,,,,,,,,,,,,,,,,,,,,,,,,,,,,,
,,,,,,5f194a84823da61b2d97e805,62bbfd5c577dd0fadc318cfe,2022-06-29_09h50.44.375,Colour_Asymmetry_Pilot,2022.1.3,Win32,59.9880024,62bbe60bf3d75ef465d3e404,0,66,66,4,1,threeone,,,,,,,,,,,,,,,,,,,,,,,,,,,,,,,,,,,,,,,,,,,,,,,,,,,,,,,,,,,,,,,,,,,,,,,,,,,,,,,,,,,,,,,,,,,,,,,,,,,,,,,,,,,,,,,,,,,,,,,,,,,,,,,,,,,,,,,,,,,,,,,,,,,,,,,,
,,,,,,5f194a84823da61b2d97e805,62bbfd5c577dd0fadc318cfe,2022-06-29_09h50.44.375,Colour_Asymmetry_Pilot,2022.1.3,Win32,59.9880024,62bbe60bf3d75ef465d3e404,0,67,67,92,1,threeone,,,,,,,,,,,,,,,,,,,,,,,,,,,,,,,,,,,,,,,,,,,,,,,,,,,,,,,,,,,,,,,,,,,,,,,,,,,,,,,,,,,,,,,,,,,,,,,,,,,,,,,,,,,,,,,,,,,,,,,,,,,,,,,,,,,,,,,,,,,,,,,,,,,,,,,,
,,,,,,5f194a84823da61b2d97e805,62bbfd5c577dd0fadc318cfe,2022-06-29_09h50.44.375,Colour_Asymmetry_Pilot,2022.1.3,Win32,59.9880024,62bbe60bf3d75ef465d3e404,0,68,68,147,1,twofour,,,,,,,,,,,,,,,,,,,,,,,,,,,,,,,,,,,,,,,,,,,,,,,,,,,,,,,,,,,,,,,,,,,,,,,,,,,,,,,,,,,,,,,,,,,,,,,,,,,,,,,,,,,,,,,,,,,,,,,,,,,,,,,,,,,,,,,,,,,,,,,,,,,,,,,,
,,,,,,5f194a84823da61b2d97e805,62bbfd5c577dd0fadc318cfe,2022-06-29_09h50.44.375,Colour_Asymmetry_Pilot,2022.1.3,Win32,59.9880024,62bbe60bf3d75ef465d3e404,0,69,69,82,1,twoone,,,,,,,,,,,,,,,,,,,,,,,,,,,,,,,,,,,,,,,,,,,,,,,,,,,,,,,,,,,,,,,,,,,,,,,,,,,,,,,,,,,,,,,,,,,,,,,,,,,,,,,,,,,,,,,,,,,,,,,,,,,,,,,,,,,,,,,,,,,,,,,,,,,,,,,,
,,,,,,5f194a84823da61b2d97e805,62bbfd5c577dd0fadc318cfe,2022-06-29_09h50.44.375,Colour_Asymmetry_Pilot,2022.1.3,Win32,59.9880024,62bbe60bf3d75ef465d3e404,0,70,70,148,1,threeone,,,,,,,,,,,,,,,,,,,,,,,,,,,,,,,,,,,,,,,,,,,,,,,,,,,,,,,,,,,,,,,,,,,,,,,,,,,,,,,,,,,,,,,,,,,,,,,,,,,,,,,,,,,,,,,,,,,,,,,,,,,,,,,,,,,,,,,,,,,,,,,,,,,,,,,,
,,,,,,5f194a84823da61b2d97e805,62bbfd5c577dd0fadc318cfe,2022-06-29_09h50.44.375,Colour_Asymmetry_Pilot,2022.1.3,Win32,59.9880024,62bbe60bf3d75ef465d3e404,0,71,71,98,1,twoone,,,,,,,,,,,,,,,,,,,,,,,,,,,,,,,,,,,,,,,,,,,,,,,,,,,,,,,,,,,,,,,,,,,,,,,,,,,,,,,,,,,,,,,,,,,,,,,,,,,,,,,,,,,,,,,,,,,,,,,,,,,,,,,,,,,,,,,,,,,,,,,,,,,,,,,,
,,,,,,5f194a84823da61b2d97e805,62bbfd5c577dd0fadc318cfe,2022-06-29_09h50.44.375,Colour_Asymmetry_Pilot,2022.1.3,Win32,59.9880024,62bbe60bf3d75ef465d3e404,0,72,72,46,1,fourtwo,,,,,,,,,,,,,,,,,,,,,,,,,,,,,,,,,,,,,,,,,,,,,,,,,,,,,,,,,,,,,,,,,,,,,,,,,,,,,,,,,,,,,,,,,,,,,,,,,,,,,,,,,,,,,,,,,,,,,,,,,,,,,,,,,,,,,,,,,,,,,,,,,,,,,,,,
,,,,,,5f194a84823da61b2d97e805,62bbfd5c577dd0fadc318cfe,2022-06-29_09h50.44.375,Colour_Asymmetry_Pilot,2022.1.3,Win32,59.9880024,62bbe60bf3d75ef465d3e404,0,73,73,105,1,onethree,,,,,,,,,,,,,,,,,,,,,,,,,,,,,,,,,,,,,,,,,,,,,,,,,,,,,,,,,,,,,,,,,,,,,,,,,,,,,,,,,,,,,,,,,,,,,,,,,,,,,,,,,,,,,,,,,,,,,,,,,,,,,,,,,,,,,,,,,,,,,,,,,,,,,,,,
,,,,,,5f194a84823da61b2d97e805,62bbfd5c577dd0fadc318cfe,2022-06-29_09h50.44.375,Colour_Asymmetry_Pilot,2022.1.3,Win32,59.9880024,62bbe60bf3d75ef465d3e404,0,74,74,68,1,threeone,,,,,,,,,,,,,,,,,,,,,,,,,,,,,,,,,,,,,,,,,,,,,,,,,,,,,,,,,,,,,,,,,,,,,,,,,,,,,,,,,,,,,,,,,,,,,,,,,,,,,,,,,,,,,,,,,,,,,,,,,,,,,,,,,,,,,,,,,,,,,,,,,,,,,,,,
,,,,,,5f194a84823da61b2d97e805,62bbfd5c577dd0fadc318cfe,2022-06-29_09h50.44.375,Colour_Asymmetry_Pilot,2022.1.3,Win32,59.9880024,62bbe60bf3d75ef465d3e404,0,75,75,57,1,onethree,,,,,,,,,,,,,,,,,,,,,,,,,,,,,,,,,,,,,,,,,,,,,,,,,,,,,,,,,,,,,,,,,,,,,,,,,,,,,,,,,,,,,,,,,,,,,,,,,,,,,,,,,,,,,,,,,,,,,,,,,,,,,,,,,,,,,,,,,,,,,,,,,,,,,,,,
,,,,,,5f194a84823da61b2d97e805,62bbfd5c577dd0fadc318cfe,2022-06-29_09h50.44.375,Colour_Asymmetry_Pilot,2022.1.3,Win32,59.9880024,62bbe60bf3d75ef465d3e404,0,76,76,33,1,onethree,,,,,,,,,,,,,,,,,,,,,,,,,,,,,,,,,,,,,,,,,,,,,,,,,,,,,,,,,,,,,,,,,,,,,,,,,,,,,,,,,,,,,,,,,,,,,,,,,,,,,,,,,,,,,,,,,,,,,,,,,,,,,,,,,,,,,,,,,,,,,,,,,,,,,,,,
,,,,,,5f194a84823da61b2d97e805,62bbfd5c577dd0fadc318cfe,2022-06-29_09h50.44.375,Colour_Asymmetry_Pilot,2022.1.3,Win32,59.9880024,62bbe60bf3d75ef465d3e404,0,77,77,85,1,threefour,,,,,,,,,,,,,,,,,,,,,,,,,,,,,,,,,,,,,,,,,,,,,,,,,,,,,,,,,,,,,,,,,,,,,,,,,,,,,,,,,,,,,,,,,,,,,,,,,,,,,,,,,,,,,,,,,,,,,,,,,,,,,,,,,,,,,,,,,,,,,,,,,,,,,,,,
,,,,,,5f194a84823da61b2d97e805,62bbfd5c577dd0fadc318cfe,2022-06-29_09h50.44.375,Colour_Asymmetry_Pilot,2022.1.3,Win32,59.9880024,62bbe60bf3d75ef465d3e404,0,78,78,153,1,onethree,,,,,,,,,,,,,,,,,,,,,,,,,,,,,,,,,,,,,,,,,,,,,,,,,,,,,,,,,,,,,,,,,,,,,,,,,,,,,,,,,,,,,,,,,,,,,,,,,,,,,,,,,,,,,,,,,,,,,,,,,,,,,,,,,,,,,,,,,,,,,,,,,,,,,,,,
,,,,,,5f194a84823da61b2d97e805,62bbfd5c577dd0fadc318cfe,2022-06-29_09h50.44.375,Colour_Asymmetry_Pilot,2022.1.3,Win32,59.9880024,62bbe60bf3d75ef465d3e404,0,79,79,43,1,twofour,,,,,,,,,,,,,,,,,,,,,,,,,,,,,,,,,,,,,,,,,,,,,,,,,,,,,,,,,,,,,,,,,,,,,,,,,,,,,,,,,,,,,,,,,,,,,,,,,,,,,,,,,,,,,,,,,,,,,,,,,,,,,,,,,,,,,,,,,,,,,,,,,,,,,,,,
,,,,,,5f194a84823da61b2d97e805,62bbfd5c577dd0fadc318cfe,2022-06-29_09h50.44.375,Colour_Asymmetry_Pilot,2022.1.3,Win32,59.9880024,62bbe60bf3d75ef465d3e404,0,80,80,122,1,twoone,,,,,,,,,,,,,,,,,,,,,,,,,,,,,,,,,,,,,,,,,,,,,,,,,,,,,,,,,,,,,,,,,,,,,,,,,,,,,,,,,,,,,,,,,,,,,,,,,,,,,,,,,,,,,,,,,,,,,,,,,,,,,,,,,,,,,,,,,,,,,,,,,,,,,,,,
,,,,,,5f194a84823da61b2d97e805,62bbfd5c577dd0fadc318cfe,2022-06-29_09h50.44.375,Colour_Asymmetry_Pilot,2022.1.3,Win32,59.9880024,62bbe60bf3d75ef465d3e404,0,81,81,157,1,threefour,,,,,,,,,,,,,,,,,,,,,,,,,,,,,,,,,,,,,,,,,,,,,,,,,,,,,,,,,,,,,,,,,,,,,,,,,,,,,,,,,,,,,,,,,,,,,,,,,,,,,,,,,,,,,,,,,,,,,,,,,,,,,,,,,,,,,,,,,,,,,,,,,,,,,,,,
,,,,,,5f194a84823da61b2d97e805,62bbfd5c577dd0fadc318cfe,2022-06-29_09h50.44.375,Colour_Asymmetry_Pilot,2022.1.3,Win32,59.9880024,62bbe60bf3d75ef465d3e404,0,82,82,158,1,fourtwo,,,,,,,,,,,,,,,,,,,,,,,,,,,,,,,,,,,,,,,,,,,,,,,,,,,,,,,,,,,,,,,,,,,,,,,,,,,,,,,,,,,,,,,,,,,,,,,,,,,,,,,,,,,,,,,,,,,,,,,,,,,,,,,,,,,,,,,,,,,,,,,,,,,,,,,,
,,,,,,5f194a84823da61b2d97e805,62bbfd5c577dd0fadc318cfe,2022-06-29_09h50.44.375,Colour_Asymmetry_Pilot,2022.1.3,Win32,59.9880024,62bbe60bf3d75ef465d3e404,0,83,83,95,1,fourthree,,,,,,,,,,,,,,,,,,,,,,,,,,,,,,,,,,,,,,,,,,,,,,,,,,,,,,,,,,,,,,,,,,,,,,,,,,,,,,,,,,,,,,,,,,,,,,,,,,,,,,,,,,,,,,,,,,,,,,,,,,,,,,,,,,,,,,,,,,,,,,,,,,,,,,,,
,,,,,,5f194a84823da61b2d97e805,62bbfd5c577dd0fadc318cfe,2022-06-29_09h50.44.375,Colour_Asymmetry_Pilot,2022.1.3,Win32,59.9880024,62bbe60bf3d75ef465d3e404,0,84,84,41,1,onethree,,,,,,,,,,,,,,,,,,,,,,,,,,,,,,,,,,,,,,,,,,,,,,,,,,,,,,,,,,,,,,,,,,,,,,,,,,,,,,,,,,,,,,,,,,,,,,,,,,,,,,,,,,,,,,,,,,,,,,,,,,,,,,,,,,,,,,,,,,,,,,,,,,,,,,,,
,,,,,,5f194a84823da61b2d97e805,62bbfd5c577dd0fadc318cfe,2022-06-29_09h50.44.375,Colour_Asymmetry_Pilot,2022.1.3,Win32,59.9880024,62bbe60bf3d75ef465d3e404,0,85,85,9,1,onethree,,,,,,,,,,,,,,,,,,,,,,,,,,,,,,,,,,,,,,,,,,,,,,,,,,,,,,,,,,,,,,,,,,,,,,,,,,,,,,,,,,,,,,,,,,,,,,,,,,,,,,,,,,,,,,,,,,,,,,,,,,,,,,,,,,,,,,,,,,,,,,,,,,,,,,,,
,,,,,,5f194a84823da61b2d97e805,62bbfd5c577dd0fadc318cfe,2022-06-29_09h50.44.375,Colour_Asymmetry_Pilot,2022.1.3,Win32,59.9880024,62bbe60bf3d75ef465d3e404,0,86,86,136,1,onetwo,,,,,,,,,,,,,,,,,,,,,,,,,,,,,,,,,,,,,,,,,,,,,,,,,,,,,,,,,,,,,,,,,,,,,,,,,,,,,,,,,,,,,,,,,,,,,,,,,,,,,,,,,,,,,,,,,,,,,,,,,,,,,,,,,,,,,,,,,,,,,,,,,,,,,,,,
,,,,,,5f194a84823da61b2d97e805,62bbfd5c577dd0fadc318cfe,2022-06-29_09h50.44.375,Colour_Asymmetry_Pilot,2022.1.3,Win32,59.9880024,62bbe60bf3d75ef465d3e404,0,87,87,24,1,onetwo,,,,,,,,,,,,,,,,,,,,,,,,,,,,,,,,,,,,,,,,,,,,,,,,,,,,,,,,,,,,,,,,,,,,,,,,,,,,,,,,,,,,,,,,,,,,,,,,,,,,,,,,,,,,,,,,,,,,,,,,,,,,,,,,,,,,,,,,,,,,,,,,,,,,,,,,
,,,,,,5f194a84823da61b2d97e805,62bbfd5c577dd0fadc318cfe,2022-06-29_09h50.44.375,Colour_Asymmetry_Pilot,2022.1.3,Win32,59.9880024,62bbe60bf3d75ef465d3e404,0,88,88,100,1,threeone,,,,,,,,,,,,,,,,,,,,,,,,,,,,,,,,,,,,,,,,,,,,,,,,,,,,,,,,,,,,,,,,,,,,,,,,,,,,,,,,,,,,,,,,,,,,,,,,,,,,,,,,,,,,,,,,,,,,,,,,,,,,,,,,,,,,,,,,,,,,,,,,,,,,,,,,
,,,,,,5f194a84823da61b2d97e805,62bbfd5c577dd0fadc318cfe,2022-06-29_09h50.44.375,Colour_Asymmetry_Pilot,2022.1.3,Win32,59.9880024,62bbe60bf3d75ef465d3e404,0,89,89,116,1,threeone,,,,,,,,,,,,,,,,,,,,,,,,,,,,,,,,,,,,,,,,,,,,,,,,,,,,,,,,,,,,,,,,,,,,,,,,,,,,,,,,,,,,,,,,,,,,,,,,,,,,,,,,,,,,,,,,,,,,,,,,,,,,,,,,,,,,,,,,,,,,,,,,,,,,,,,,
,,,,,,5f194a84823da61b2d97e805,62bbfd5c577dd0fadc318cfe,2022-06-29_09h50.44.375,Colour_Asymmetry_Pilot,2022.1.3,Win32,59.9880024,62bbe60bf3d75ef465d3e404,0,90,90,30,1,fourtwo,,,,,,,,,,,,,,,,,,,,,,,,,,,,,,,,,,,,,,,,,,,,,,,,,,,,,,,,,,,,,,,,,,,,,,,,,,,,,,,,,,,,,,,,,,,,,,,,,,,,,,,,,,,,,,,,,,,,,,,,,,,,,,,,,,,,,,,,,,,,,,,,,,,,,,,,
,,,,,,5f194a84823da61b2d97e805,62bbfd5c577dd0fadc318cfe,2022-06-29_09h50.44.375,Colour_Asymmetry_Pilot,2022.1.3,Win32,59.9880024,62bbe60bf3d75ef465d3e404,0,91,91,77,1,threefour,,,,,,,,,,,,,,,,,,,,,,,,,,,,,,,,,,,,,,,,,,,,,,,,,,,,,,,,,,,,,,,,,,,,,,,,,,,,,,,,,,,,,,,,,,,,,,,,,,,,,,,,,,,,,,,,,,,,,,,,,,,,,,,,,,,,,,,,,,,,,,,,,,,,,,,,
,,,,,,5f194a84823da61b2d97e805,62bbfd5c577dd0fadc318cfe,2022-06-29_09h50.44.375,Colour_Asymmetry_Pilot,2022.1.3,Win32,59.9880024,62bbe60bf3d75ef465d3e404,0,92,92,101,1,threefour,,,,,,,,,,,,,,,,,,,,,,,,,,,,,,,,,,,,,,,,,,,,,,,,,,,,,,,,,,,,,,,,,,,,,,,,,,,,,,,,,,,,,,,,,,,,,,,,,,,,,,,,,,,,,,,,,,,,,,,,,,,,,,,,,,,,,,,,,,,,,,,,,,,,,,,,
,,,,,,5f194a84823da61b2d97e805,62bbfd5c577dd0fadc318cfe,2022-06-29_09h50.44.375,Colour_Asymmetry_Pilot,2022.1.3,Win32,59.9880024,62bbe60bf3d75ef465d3e404,0,93,93,113,1,onethree,,,,,,,,,,,,,,,,,,,,,,,,,,,,,,,,,,,,,,,,,,,,,,,,,,,,,,,,,,,,,,,,,,,,,,,,,,,,,,,,,,,,,,,,,,,,,,,,,,,,,,,,,,,,,,,,,,,,,,,,,,,,,,,,,,,,,,,,,,,,,,,,,,,,,,,,
,,,,,,5f194a84823da61b2d97e805,62bbfd5c577dd0fadc318cfe,2022-06-29_09h50.44.375,Colour_Asymmetry_Pilot,2022.1.3,Win32,59.9880024,62bbe60bf3d75ef465d3e404,0,94,94,54,1,fourtwo,,,,,,,,,,,,,,,,,,,,,,,,,,,,,,,,,,,,,,,,,,,,,,,,,,,,,,,,,,,,,,,,,,,,,,,,,,,,,,,,,,,,,,,,,,,,,,,,,,,,,,,,,,,,,,,,,,,,,,,,,,,,,,,,,,,,,,,,,,,,,,,,,,,,,,,,
,,,,,,5f194a84823da61b2d97e805,62bbfd5c577dd0fadc318cfe,2022-06-29_09h50.44.375,Colour_Asymmetry_Pilot,2022.1.3,Win32,59.9880024,62bbe60bf3d75ef465d3e404,0,95,95,118,1,fourtwo,,,,,,,,,,,,,,,,,,,,,,,,,,,,,,,,,,,,,,,,,,,,,,,,,,,,,,,,,,,,,,,,,,,,,,,,,,,,,,,,,,,,,,,,,,,,,,,,,,,,,,,,,,,,,,,,,,,,,,,,,,,,,,,,,,,,,,,,,,,,,,,,,,,,,,,,
,,,,,,5f194a84823da61b2d97e805,62bbfd5c577dd0fadc318cfe,2022-06-29_09h50.44.375,Colour_Asymmetry_Pilot,2022.1.3,Win32,59.9880024,62bbe60bf3d75ef465d3e404,0,96,96,59,1,twofour,,,,,,,,,,,,,,,,,,,,,,,,,,,,,,,,,,,,,,,,,,,,,,,,,,,,,,,,,,,,,,,,,,,,,,,,,,,,,,,,,,,,,,,,,,,,,,,,,,,,,,,,,,,,,,,,,,,,,,,,,,,,,,,,,,,,,,,,,,,,,,,,,,,,,,,,
,,,,,,5f194a84823da61b2d97e805,62bbfd5c577dd0fadc318cfe,2022-06-29_09h50.44.375,Colour_Asymmetry_Pilot,2022.1.3,Win32,59.9880024,62bbe60bf3d75ef465d3e404,0,97,97,124,1,threeone,,,,,,,,,,,,,,,,,,,,,,,,,,,,,,,,,,,,,,,,,,,,,,,,,,,,,,,,,,,,,,,,,,,,,,,,,,,,,,,,,,,,,,,,,,,,,,,,,,,,,,,,,,,,,,,,,,,,,,,,,,,,,,,,,,,,,,,,,,,,,,,,,,,,,,,,
,,,,,,5f194a84823da61b2d97e805,62bbfd5c577dd0fadc318cfe,2022-06-29_09h50.44.375,Colour_Asymmetry_Pilot,2022.1.3,Win32,59.9880024,62bbe60bf3d75ef465d3e404,0,98,98,16,1,onetwo,,,,,,,,,,,,,,,,,,,,,,,,,,,,,,,,,,,,,,,,,,,,,,,,,,,,,,,,,,,,,,,,,,,,,,,,,,,,,,,,,,,,,,,,,,,,,,,,,,,,,,,,,,,,,,,,,,,,,,,,,,,,,,,,,,,,,,,,,,,,,,,,,,,,,,,,
,,,,,,5f194a84823da61b2d97e805,62bbfd5c577dd0fadc318cfe,2022-06-29_09h50.44.375,Colour_Asymmetry_Pilot,2022.1.3,Win32,59.9880024,62bbe60bf3d75ef465d3e404,0,99,99,141,1,threefour,,,,,,,,,,,,,,,,,,,,,,,,,,,,,,,,,,,,,,,,,,,,,,,,,,,,,,,,,,,,,,,,,,,,,,,,,,,,,,,,,,,,,,,,,,,,,,,,,,,,,,,,,,,,,,,,,,,,,,,,,,,,,,,,,,,,,,,,,,,,,,,,,,,,,,,,
,,,,,,5f194a84823da61b2d97e805,62bbfd5c577dd0fadc318cfe,2022-06-29_09h50.44.375,Colour_Asymmetry_Pilot,2022.1.3,Win32,59.9880024,62bbe60bf3d75ef465d3e404,0,100,100,56,1,onetwo,,,,,,,,,,,,,,,,,,,,,,,,,,,,,,,,,,,,,,,,,,,,,,,,,,,,,,,,,,,,,,,,,,,,,,,,,,,,,,,,,,,,,,,,,,,,,,,,,,,,,,,,,,,,,,,,,,,,,,,,,,,,,,,,,,,,,,,,,,,,,,,,,,,,,,,,
,,,,,,5f194a84823da61b2d97e805,62bbfd5c577dd0fadc318cfe,2022-06-29_09h50.44.375,Colour_Asymmetry_Pilot,2022.1.3,Win32,59.9880024,62bbe60bf3d75ef465d3e404,0,101,101,64,1,onetwo,,,,,,,,,,,,,,,,,,,,,,,,,,,,,,,,,,,,,,,,,,,,,,,,,,,,,,,,,,,,,,,,,,,,,,,,,,,,,,,,,,,,,,,,,,,,,,,,,,,,,,,,,,,,,,,,,,,,,,,,,,,,,,,,,,,,,,,,,,,,,,,,,,,,,,,,
,,,,,,5f194a84823da61b2d97e805,62bbfd5c577dd0fadc318cfe,2022-06-29_09h50.44.375,Colour_Asymmetry_Pilot,2022.1.3,Win32,59.9880024,62bbe60bf3d75ef465d3e404,0,102,102,149,1,threefour,,,,,,,,,,,,,,,,,,,,,,,,,,,,,,,,,,,,,,,,,,,,,,,,,,,,,,,,,,,,,,,,,,,,,,,,,,,,,,,,,,,,,,,,,,,,,,,,,,,,,,,,,,,,,,,,,,,,,,,,,,,,,,,,,,,,,,,,,,,,,,,,,,,,,,,,
,,,,,,5f194a84823da61b2d97e805,62bbfd5c577dd0fadc318cfe,2022-06-29_09h50.44.375,Colour_Asymmetry_Pilot,2022.1.3,Win32,59.9880024,62bbe60bf3d75ef465d3e404,0,103,103,159,1,fourthree,,,,,,,,,,,,,,,,,,,,,,,,,,,,,,,,,,,,,,,,,,,,,,,,,,,,,,,,,,,,,,,,,,,,,,,,,,,,,,,,,,,,,,,,,,,,,,,,,,,,,,,,,,,,,,,,,,,,,,,,,,,,,,,,,,,,,,,,,,,,,,,,,,,,,,,,
,,,,,,5f194a84823da61b2d97e805,62bbfd5c577dd0fadc318cfe,2022-06-29_09h50.44.375,Colour_Asymmetry_Pilot,2022.1.3,Win32,59.9880024,62bbe60bf3d75ef465d3e404,0,104,104,32,1,onetwo,,,,,,,,,,,,,,,,,,,,,,,,,,,,,,,,,,,,,,,,,,,,,,,,,,,,,,,,,,,,,,,,,,,,,,,,,,,,,,,,,,,,,,,,,,,,,,,,,,,,,,,,,,,,,,,,,,,,,,,,,,,,,,,,,,,,,,,,,,,,,,,,,,,,,,,,
,,,,,,5f194a84823da61b2d97e805,62bbfd5c577dd0fadc318cfe,2022-06-29_09h50.44.375,Colour_Asymmetry_Pilot,2022.1.3,Win32,59.9880024,62bbe60bf3d75ef465d3e404,0,105,105,71,1,fourthree,,,,,,,,,,,,,,,,,,,,,,,,,,,,,,,,,,,,,,,,,,,,,,,,,,,,,,,,,,,,,,,,,,,,,,,,,,,,,,,,,,,,,,,,,,,,,,,,,,,,,,,,,,,,,,,,,,,,,,,,,,,,,,,,,,,,,,,,,,,,,,,,,,,,,,,,
,,,,,,5f194a84823da61b2d97e805,62bbfd5c577dd0fadc318cfe,2022-06-29_09h50.44.375,Colour_Asymmetry_Pilot,2022.1.3,Win32,59.9880024,62bbe60bf3d75ef465d3e404,0,106,106,47,1,fourthree,,,,,,,,,,,,,,,,,,,,,,,,,,,,,,,,,,,,,,,,,,,,,,,,,,,,,,,,,,,,,,,,,,,,,,,,,,,,,,,,,,,,,,,,,,,,,,,,,,,,,,,,,,,,,,,,,,,,,,,,,,,,,,,,,,,,,,,,,,,,,,,,,,,,,,,,
,,,,,,5f194a84823da61b2d97e805,62bbfd5c577dd0fadc318cfe,2022-06-29_09h50.44.375,Colour_Asymmetry_Pilot,2022.1.3,Win32,59.9880024,62bbe60bf3d75ef465d3e404,0,107,107,103,1,fourthree,,,,,,,,,,,,,,,,,,,,,,,,,,,,,,,,,,,,,,,,,,,,,,,,,,,,,,,,,,,,,,,,,,,,,,,,,,,,,,,,,,,,,,,,,,,,,,,,,,,,,,,,,,,,,,,,,,,,,,,,,,,,,,,,,,,,,,,,,,,,,,,,,,,,,,,,
,,,,,,5f194a84823da61b2d97e805,62bbfd5c577dd0fadc318cfe,2022-06-29_09h50.44.375,Colour_Asymmetry_Pilot,2022.1.3,Win32,59.9880024,62bbe60bf3d75ef465d3e404,0,108,108,75,1,twofour,,,,,,,,,,,,,,,,,,,,,,,,,,,,,,,,,,,,,,,,,,,,,,,,,,,,,,,,,,,,,,,,,,,,,,,,,,,,,,,,,,,,,,,,,,,,,,,,,,,,,,,,,,,,,,,,,,,,,,,,,,,,,,,,,,,,,,,,,,,,,,,,,,,,,,,,
,,,,,,5f194a84823da61b2d97e805,62bbfd5c577dd0fadc318cfe,2022-06-29_09h50.44.375,Colour_Asymmetry_Pilot,2022.1.3,Win32,59.9880024,62bbe60bf3d75ef465d3e404,0,109,109,109,1,threefour,,,,,,,,,,,,,,,,,,,,,,,,,,,,,,,,,,,,,,,,,,,,,,,,,,,,,,,,,,,,,,,,,,,,,,,,,,,,,,,,,,,,,,,,,,,,,,,,,,,,,,,,,,,,,,,,,,,,,,,,,,,,,,,,,,,,,,,,,,,,,,,,,,,,,,,,
,,,,,,5f194a84823da61b2d97e805,62bbfd5c577dd0fadc318cfe,2022-06-29_09h50.44.375,Colour_Asymmetry_Pilot,2022.1.3,Win32,59.9880024,62bbe60bf3d75ef465d3e404,0,110,110,143,1,fourthree,,,,,,,,,,,,,,,,,,,,,,,,,,,,,,,,,,,,,,,,,,,,,,,,,,,,,,,,,,,,,,,,,,,,,,,,,,,,,,,,,,,,,,,,,,,,,,,,,,,,,,,,,,,,,,,,,,,,,,,,,,,,,,,,,,,,,,,,,,,,,,,,,,,,,,,,
,,,,,,5f194a84823da61b2d97e805,62bbfd5c577dd0fadc318cfe,2022-06-29_09h50.44.375,Colour_Asymmetry_Pilot,2022.1.3,Win32,59.9880024,62bbe60bf3d75ef465d3e404,0,111,111,40,1,onetwo,,,,,,,,,,,,,,,,,,,,,,,,,,,,,,,,,,,,,,,,,,,,,,,,,,,,,,,,,,,,,,,,,,,,,,,,,,,,,,,,,,,,,,,,,,,,,,,,,,,,,,,,,,,,,,,,,,,,,,,,,,,,,,,,,,,,,,,,,,,,,,,,,,,,,,,,
,,,,,,5f194a84823da61b2d97e805,62bbfd5c577dd0fadc318cfe,2022-06-29_09h50.44.375,Colour_Asymmetry_Pilot,2022.1.3,Win32,59.9880024,62bbe60bf3d75ef465d3e404,0,112,112,112,1,onetwo,,,,,,,,,,,,,,,,,,,,,,,,,,,,,,,,,,,,,,,,,,,,,,,,,,,,,,,,,,,,,,,,,,,,,,,,,,,,,,,,,,,,,,,,,,,,,,,,,,,,,,,,,,,,,,,,,,,,,,,,,,,,,,,,,,,,,,,,,,,,,,,,,,,,,,,,
,,,,,,5f194a84823da61b2d97e805,62bbfd5c577dd0fadc318cfe,2022-06-29_09h50.44.375,Colour_Asymmetry_Pilot,2022.1.3,Win32,59.9880024,62bbe60bf3d75ef465d3e404,0,113,113,142,1,fourtwo,,,,,,,,,,,,,,,,,,,,,,,,,,,,,,,,,,,,,,,,,,,,,,,,,,,,,,,,,,,,,,,,,,,,,,,,,,,,,,,,,,,,,,,,,,,,,,,,,,,,,,,,,,,,,,,,,,,,,,,,,,,,,,,,,,,,,,,,,,,,,,,,,,,,,,,,
,,,,,,5f194a84823da61b2d97e805,62bbfd5c577dd0fadc318cfe,2022-06-29_09h50.44.375,Colour_Asymmetry_Pilot,2022.1.3,Win32,59.9880024,62bbe60bf3d75ef465d3e404,0,114,114,135,1,fourthree,,,,,,,,,,,,,,,,,,,,,,,,,,,,,,,,,,,,,,,,,,,,,,,,,,,,,,,,,,,,,,,,,,,,,,,,,,,,,,,,,,,,,,,,,,,,,,,,,,,,,,,,,,,,,,,,,,,,,,,,,,,,,,,,,,,,,,,,,,,,,,,,,,,,,,,,
,,,,,,5f194a84823da61b2d97e805,62bbfd5c577dd0fadc318cfe,2022-06-29_09h50.44.375,Colour_Asymmetry_Pilot,2022.1.3,Win32,59.9880024,62bbe60bf3d75ef465d3e404,0,115,115,3,1,twofour,,,,,,,,,,,,,,,,,,,,,,,,,,,,,,,,,,,,,,,,,,,,,,,,,,,,,,,,,,,,,,,,,,,,,,,,,,,,,,,,,,,,,,,,,,,,,,,,,,,,,,,,,,,,,,,,,,,,,,,,,,,,,,,,,,,,,,,,,,,,,,,,,,,,,,,,
,,,,,,5f194a84823da61b2d97e805,62bbfd5c577dd0fadc318cfe,2022-06-29_09h50.44.375,Colour_Asymmetry_Pilot,2022.1.3,Win32,59.9880024,62bbe60bf3d75ef465d3e404,0,116,116,132,1,threeone,,,,,,,,,,,,,,,,,,,,,,,,,,,,,,,,,,,,,,,,,,,,,,,,,,,,,,,,,,,,,,,,,,,,,,,,,,,,,,,,,,,,,,,,,,,,,,,,,,,,,,,,,,,,,,,,,,,,,,,,,,,,,,,,,,,,,,,,,,,,,,,,,,,,,,,,
,,,,,,5f194a84823da61b2d97e805,62bbfd5c577dd0fadc318cfe,2022-06-29_09h50.44.375,Colour_Asymmetry_Pilot,2022.1.3,Win32,59.9880024,62bbe60bf3d75ef465d3e404,0,117,117,66,1,twoone,,,,,,,,,,,,,,,,,,,,,,,,,,,,,,,,,,,,,,,,,,,,,,,,,,,,,,,,,,,,,,,,,,,,,,,,,,,,,,,,,,,,,,,,,,,,,,,,,,,,,,,,,,,,,,,,,,,,,,,,,,,,,,,,,,,,,,,,,,,,,,,,,,,,,,,,
,,,,,,5f194a84823da61b2d97e805,62bbfd5c577dd0fadc318cfe,2022-06-29_09h50.44.375,Colour_Asymmetry_Pilot,2022.1.3,Win32,59.9880024,62bbe60bf3d75ef465d3e404,0,118,118,104,1,onetwo,,,,,,,,,,,,,,,,,,,,,,,,,,,,,,,,,,,,,,,,,,,,,,,,,,,,,,,,,,,,,,,,,,,,,,,,,,,,,,,,,,,,,,,,,,,,,,,,,,,,,,,,,,,,,,,,,,,,,,,,,,,,,,,,,,,,,,,,,,,,,,,,,,,,,,,,
,,,,,,5f194a84823da61b2d97e805,62bbfd5c577dd0fadc318cfe,2022-06-29_09h50.44.375,Colour_Asymmetry_Pilot,2022.1.3,Win32,59.9880024,62bbe60bf3d75ef465d3e404,0,119,119,65,1,onethree,,,,,,,,,,,,,,,,,,,,,,,,,,,,,,,,,,,,,,,,,,,,,,,,,,,,,,,,,,,,,,,,,,,,,,,,,,,,,,,,,,,,,,,,,,,,,,,,,,,,,,,,,,,,,,,,,,,,,,,,,,,,,,,,,,,,,,,,,,,,,,,,,,,,,,,,
,,,,,,5f194a84823da61b2d97e805,62bbfd5c577dd0fadc318cfe,2022-06-29_09h50.44.375,Colour_Asymmetry_Pilot,2022.1.3,Win32,59.9880024,62bbe60bf3d75ef465d3e404,0,120,120,26,1,twoone,,,,,,,,,,,,,,,,,,,,,,,,,,,,,,,,,,,,,,,,,,,,,,,,,,,,,,,,,,,,,,,,,,,,,,,,,,,,,,,,,,,,,,,,,,,,,,,,,,,,,,,,,,,,,,,,,,,,,,,,,,,,,,,,,,,,,,,,,,,,,,,,,,,,,,,,
,,,,,,5f194a84823da61b2d97e805,62bbfd5c577dd0fadc318cfe,2022-06-29_09h50.44.375,Colour_Asymmetry_Pilot,2022.1.3,Win32,59.9880024,62bbe60bf3d75ef465d3e404,0,121,121,96,1,onetwo,,,,,,,,,,,,,,,,,,,,,,,,,,,,,,,,,,,,,,,,,,,,,,,,,,,,,,,,,,,,,,,,,,,,,,,,,,,,,,,,,,,,,,,,,,,,,,,,,,,,,,,,,,,,,,,,,,,,,,,,,,,,,,,,,,,,,,,,,,,,,,,,,,,,,,,,
,,,,,,5f194a84823da61b2d97e805,62bbfd5c577dd0fadc318cfe,2022-06-29_09h50.44.375,Colour_Asymmetry_Pilot,2022.1.3,Win32,59.9880024,62bbe60bf3d75ef465d3e404,0,122,122,50,1,twoone,,,,,,,,,,,,,,,,,,,,,,,,,,,,,,,,,,,,,,,,,,,,,,,,,,,,,,,,,,,,,,,,,,,,,,,,,,,,,,,,,,,,,,,,,,,,,,,,,,,,,,,,,,,,,,,,,,,,,,,,,,,,,,,,,,,,,,,,,,,,,,,,,,,,,,,,
,,,,,,5f194a84823da61b2d97e805,62bbfd5c577dd0fadc318cfe,2022-06-29_09h50.44.375,Colour_Asymmetry_Pilot,2022.1.3,Win32,59.9880024,62bbe60bf3d75ef465d3e404,0,123,123,93,1,threefour,,,,,,,,,,,,,,,,,,,,,,,,,,,,,,,,,,,,,,,,,,,,,,,,,,,,,,,,,,,,,,,,,,,,,,,,,,,,,,,,,,,,,,,,,,,,,,,,,,,,,,,,,,,,,,,,,,,,,,,,,,,,,,,,,,,,,,,,,,,,,,,,,,,,,,,,
,,,,,,5f194a84823da61b2d97e805,62bbfd5c577dd0fadc318cfe,2022-06-29_09h50.44.375,Colour_Asymmetry_Pilot,2022.1.3,Win32,59.9880024,62bbe60bf3d75ef465d3e404,0,124,124,8,1,onetwo,,,,,,,,,,,,,,,,,,,,,,,,,,,,,,,,,,,,,,,,,,,,,,,,,,,,,,,,,,,,,,,,,,,,,,,,,,,,,,,,,,,,,,,,,,,,,,,,,,,,,,,,,,,,,,,,,,,,,,,,,,,,,,,,,,,,,,,,,,,,,,,,,,,,,,,,
,,,,,,5f194a84823da61b2d97e805,62bbfd5c577dd0fadc318cfe,2022-06-29_09h50.44.375,Colour_Asymmetry_Pilot,2022.1.3,Win32,59.9880024,62bbe60bf3d75ef465d3e404,0,125,125,76,1,threeone,,,,,,,,,,,,,,,,,,,,,,,,,,,,,,,,,,,,,,,,,,,,,,,,,,,,,,,,,,,,,,,,,,,,,,,,,,,,,,,,,,,,,,,,,,,,,,,,,,,,,,,,,,,,,,,,,,,,,,,,,,,,,,,,,,,,,,,,,,,,,,,,,,,,,,,,
,,,,,,5f194a84823da61b2d97e805,62bbfd5c577dd0fadc318cfe,2022-06-29_09h50.44.375,Colour_Asymmetry_Pilot,2022.1.3,Win32,59.9880024,62bbe60bf3d75ef465d3e404,0,126,126,127,1,fourthree,,,,,,,,,,,,,,,,,,,,,,,,,,,,,,,,,,,,,,,,,,,,,,,,,,,,,,,,,,,,,,,,,,,,,,,,,,,,,,,,,,,,,,,,,,,,,,,,,,,,,,,,,,,,,,,,,,,,,,,,,,,,,,,,,,,,,,,,,,,,,,,,,,,,,,,,
,,,,,,5f194a84823da61b2d97e805,62bbfd5c577dd0fadc318cfe,2022-06-29_09h50.44.375,Colour_Asymmetry_Pilot,2022.1.3,Win32,59.9880024,62bbe60bf3d75ef465d3e404,0,127,127,133,1,threefour,,,,,,,,,,,,,,,,,,,,,,,,,,,,,,,,,,,,,,,,,,,,,,,,,,,,,,,,,,,,,,,,,,,,,,,,,,,,,,,,,,,,,,,,,,,,,,,,,,,,,,,,,,,,,,,,,,,,,,,,,,,,,,,,,,,,,,,,,,,,,,,,,,,,,,,,
,,,,,,5f194a84823da61b2d97e805,62bbfd5c577dd0fadc318cfe,2022-06-29_09h50.44.375,Colour_Asymmetry_Pilot,2022.1.3,Win32,59.9880024,62bbe60bf3d75ef465d3e404,0,128,128,29,1,threefour,,,,,,,,,,,,,,,,,,,,,,,,,,,,,,,,,,,,,,,,,,,,,,,,,,,,,,,,,,,,,,,,,,,,,,,,,,,,,,,,,,,,,,,,,,,,,,,,,,,,,,,,,,,,,,,,,,,,,,,,,,,,,,,,,,,,,,,,,,,,,,,,,,,,,,,,
,,,,,,5f194a84823da61b2d97e805,62bbfd5c577dd0fadc318cfe,2022-06-29_09h50.44.375,Colour_Asymmetry_Pilot,2022.1.3,Win32,59.9880024,62bbe60bf3d75ef465d3e404,0,129,129,152,1,onetwo,,,,,,,,,,,,,,,,,,,,,,,,,,,,,,,,,,,,,,,,,,,,,,,,,,,,,,,,,,,,,,,,,,,,,,,,,,,,,,,,,,,,,,,,,,,,,,,,,,,,,,,,,,,,,,,,,,,,,,,,,,,,,,,,,,,,,,,,,,,,,,,,,,,,,,,,
,,,,,,5f194a84823da61b2d97e805,62bbfd5c577dd0fadc318cfe,2022-06-29_09h50.44.375,Colour_Asymmetry_Pilot,2022.1.3,Win32,59.9880024,62bbe60bf3d75ef465d3e404,0,130,130,150,1,fourtwo,,,,,,,,,,,,,,,,,,,,,,,,,,,,,,,,,,,,,,,,,,,,,,,,,,,,,,,,,,,,,,,,,,,,,,,,,,,,,,,,,,,,,,,,,,,,,,,,,,,,,,,,,,,,,,,,,,,,,,,,,,,,,,,,,,,,,,,,,,,,,,,,,,,,,,,,
,,,,,,5f194a84823da61b2d97e805,62bbfd5c577dd0fadc318cfe,2022-06-29_09h50.44.375,Colour_Asymmetry_Pilot,2022.1.3,Win32,59.9880024,62bbe60bf3d75ef465d3e404,0,131,131,7,1,fourthree,,,,,,,,,,,,,,,,,,,,,,,,,,,,,,,,,,,,,,,,,,,,,,,,,,,,,,,,,,,,,,,,,,,,,,,,,,,,,,,,,,,,,,,,,,,,,,,,,,,,,,,,,,,,,,,,,,,,,,,,,,,,,,,,,,,,,,,,,,,,,,,,,,,,,,,,
,,,,,,5f194a84823da61b2d97e805,62bbfd5c577dd0fadc318cfe,2022-06-29_09h50.44.375,Colour_Asymmetry_Pilot,2022.1.3,Win32,59.9880024,62bbe60bf3d75ef465d3e404,0,132,132,13,1,threefour,,,,,,,,,,,,,,,,,,,,,,,,,,,,,,,,,,,,,,,,,,,,,,,,,,,,,,,,,,,,,,,,,,,,,,,,,,,,,,,,,,,,,,,,,,,,,,,,,,,,,,,,,,,,,,,,,,,,,,,,,,,,,,,,,,,,,,,,,,,,,,,,,,,,,,,,
,,,,,,5f194a84823da61b2d97e805,62bbfd5c577dd0fadc318cfe,2022-06-29_09h50.44.375,Colour_Asymmetry_Pilot,2022.1.3,Win32,59.9880024,62bbe60bf3d75ef465d3e404,0,133,133,107,1,twofour,,,,,,,,,,,,,,,,,,,,,,,,,,,,,,,,,,,,,,,,,,,,,,,,,,,,,,,,,,,,,,,,,,,,,,,,,,,,,,,,,,,,,,,,,,,,,,,,,,,,,,,,,,,,,,,,,,,,,,,,,,,,,,,,,,,,,,,,,,,,,,,,,,,,,,,,
,,,,,,5f194a84823da61b2d97e805,62bbfd5c577dd0fadc318cfe,2022-06-29_09h50.44.375,Colour_Asymmetry_Pilot,2022.1.3,Win32,59.9880024,62bbe60bf3d75ef465d3e404,0,134,134,69,1,threefour,,,,,,,,,,,,,,,,,,,,,,,,,,,,,,,,,,,,,,,,,,,,,,,,,,,,,,,,,,,,,,,,,,,,,,,,,,,,,,,,,,,,,,,,,,,,,,,,,,,,,,,,,,,,,,,,,,,,,,,,,,,,,,,,,,,,,,,,,,,,,,,,,,,,,,,,
,,,,,,5f194a84823da61b2d97e805,62bbfd5c577dd0fadc318cfe,2022-06-29_09h50.44.375,Colour_Asymmetry_Pilot,2022.1.3,Win32,59.9880024,62bbe60bf3d75ef465d3e404,0,135,135,110,1,fourtwo,,,,,,,,,,,,,,,,,,,,,,,,,,,,,,,,,,,,,,,,,,,,,,,,,,,,,,,,,,,,,,,,,,,,,,,,,,,,,,,,,,,,,,,,,,,,,,,,,,,,,,,,,,,,,,,,,,,,,,,,,,,,,,,,,,,,,,,,,,,,,,,,,,,,,,,,
,,,,,,5f194a84823da61b2d97e805,62bbfd5c577dd0fadc318cfe,2022-06-29_09h50.44.375,Colour_Asymmetry_Pilot,2022.1.3,Win32,59.9880024,62bbe60bf3d75ef465d3e404,0,136,136,137,1,onethree,,,,,,,,,,,,,,,,,,,,,,,,,,,,,,,,,,,,,,,,,,,,,,,,,,,,,,,,,,,,,,,,,,,,,,,,,,,,,,,,,,,,,,,,,,,,,,,,,,,,,,,,,,,,,,,,,,,,,,,,,,,,,,,,,,,,,,,,,,,,,,,,,,,,,,,,
,,,,,,5f194a84823da61b2d97e805,62bbfd5c577dd0fadc318cfe,2022-06-29_09h50.44.375,Colour_Asymmetry_Pilot,2022.1.3,Win32,59.9880024,62bbe60bf3d75ef465d3e404,0,137,137,117,1,threefour,,,,,,,,,,,,,,,,,,,,,,,,,,,,,,,,,,,,,,,,,,,,,,,,,,,,,,,,,,,,,,,,,,,,,,,,,,,,,,,,,,,,,,,,,,,,,,,,,,,,,,,,,,,,,,,,,,,,,,,,,,,,,,,,,,,,,,,,,,,,,,,,,,,,,,,,
,,,,,,5f194a84823da61b2d97e805,62bbfd5c577dd0fadc318cfe,2022-06-29_09h50.44.375,Colour_Asymmetry_Pilot,2022.1.3,Win32,59.9880024,62bbe60bf3d75ef465d3e404,0,138,138,80,1,onetwo,,,,,,,,,,,,,,,,,,,,,,,,,,,,,,,,,,,,,,,,,,,,,,,,,,,,,,,,,,,,,,,,,,,,,,,,,,,,,,,,,,,,,,,,,,,,,,,,,,,,,,,,,,,,,,,,,,,,,,,,,,,,,,,,,,,,,,,,,,,,,,,,,,,,,,,,
,,,,,,5f194a84823da61b2d97e805,62bbfd5c577dd0fadc318cfe,2022-06-29_09h50.44.375,Colour_Asymmetry_Pilot,2022.1.3,Win32,59.9880024,62bbe60bf3d75ef465d3e404,0,139,139,53,1,threefour,,,,,,,,,,,,,,,,,,,,,,,,,,,,,,,,,,,,,,,,,,,,,,,,,,,,,,,,,,,,,,,,,,,,,,,,,,,,,,,,,,,,,,,,,,,,,,,,,,,,,,,,,,,,,,,,,,,,,,,,,,,,,,,,,,,,,,,,,,,,,,,,,,,,,,,,
,,,,,,5f194a84823da61b2d97e805,62bbfd5c577dd0fadc318cfe,2022-06-29_09h50.44.375,Colour_Asymmetry_Pilot,2022.1.3,Win32,59.9880024,62bbe60bf3d75ef465d3e404,0,140,140,145,1,onethree,,,,,,,,,,,,,,,,,,,,,,,,,,,,,,,,,,,,,,,,,,,,,,,,,,,,,,,,,,,,,,,,,,,,,,,,,,,,,,,,,,,,,,,,,,,,,,,,,,,,,,,,,,,,,,,,,,,,,,,,,,,,,,,,,,,,,,,,,,,,,,,,,,,,,,,,
,,,,,,5f194a84823da61b2d97e805,62bbfd5c577dd0fadc318cfe,2022-06-29_09h50.44.375,Colour_Asymmetry_Pilot,2022.1.3,Win32,59.9880024,62bbe60bf3d75ef465d3e404,0,141,141,125,1,threefour,,,,,,,,,,,,,,,,,,,,,,,,,,,,,,,,,,,,,,,,,,,,,,,,,,,,,,,,,,,,,,,,,,,,,,,,,,,,,,,,,,,,,,,,,,,,,,,,,,,,,,,,,,,,,,,,,,,,,,,,,,,,,,,,,,,,,,,,,,,,,,,,,,,,,,,,
,,,,,,5f194a84823da61b2d97e805,62bbfd5c577dd0fadc318cfe,2022-06-29_09h50.44.375,Colour_Asymmetry_Pilot,2022.1.3,Win32,59.9880024,62bbe60bf3d75ef465d3e404,0,142,142,22,1,fourtwo,,,,,,,,,,,,,,,,,,,,,,,,,,,,,,,,,,,,,,,,,,,,,,,,,,,,,,,,,,,,,,,,,,,,,,,,,,,,,,,,,,,,,,,,,,,,,,,,,,,,,,,,,,,,,,,,,,,,,,,,,,,,,,,,,,,,,,,,,,,,,,,,,,,,,,,,
,,,,,,5f194a84823da61b2d97e805,62bbfd5c577dd0fadc318cfe,2022-06-29_09h50.44.375,Colour_Asymmetry_Pilot,2022.1.3,Win32,59.9880024,62bbe60bf3d75ef465d3e404,0,143,143,42,1,twoone,,,,,,,,,,,,,,,,,,,,,,,,,,,,,,,,,,,,,,,,,,,,,,,,,,,,,,,,,,,,,,,,,,,,,,,,,,,,,,,,,,,,,,,,,,,,,,,,,,,,,,,,,,,,,,,,,,,,,,,,,,,,,,,,,,,,,,,,,,,,,,,,,,,,,,,,
,,,,,,5f194a84823da61b2d97e805,62bbfd5c577dd0fadc318cfe,2022-06-29_09h50.44.375,Colour_Asymmetry_Pilot,2022.1.3,Win32,59.9880024,62bbe60bf3d75ef465d3e404,0,144,144,102,1,fourtwo,,,,,,,,,,,,,,,,,,,,,,,,,,,,,,,,,,,,,,,,,,,,,,,,,,,,,,,,,,,,,,,,,,,,,,,,,,,,,,,,,,,,,,,,,,,,,,,,,,,,,,,,,,,,,,,,,,,,,,,,,,,,,,,,,,,,,,,,,,,,,,,,,,,,,,,,
,,,,,,5f194a84823da61b2d97e805,62bbfd5c577dd0fadc318cfe,2022-06-29_09h50.44.375,Colour_Asymmetry_Pilot,2022.1.3,Win32,59.9880024,62bbe60bf3d75ef465d3e404,0,145,145,106,1,twoone,,,,,,,,,,,,,,,,,,,,,,,,,,,,,,,,,,,,,,,,,,,,,,,,,,,,,,,,,,,,,,,,,,,,,,,,,,,,,,,,,,,,,,,,,,,,,,,,,,,,,,,,,,,,,,,,,,,,,,,,,,,,,,,,,,,,,,,,,,,,,,,,,,,,,,,,
,,,,,,5f194a84823da61b2d97e805,62bbfd5c577dd0fadc318cfe,2022-06-29_09h50.44.375,Colour_Asymmetry_Pilot,2022.1.3,Win32,59.9880024,62bbe60bf3d75ef465d3e404,0,146,146,74,1,twoone,,,,,,,,,,,,,,,,,,,,,,,,,,,,,,,,,,,,,,,,,,,,,,,,,,,,,,,,,,,,,,,,,,,,,,,,,,,,,,,,,,,,,,,,,,,,,,,,,,,,,,,,,,,,,,,,,,,,,,,,,,,,,,,,,,,,,,,,,,,,,,,,,,,,,,,,
,,,,,,5f194a84823da61b2d97e805,62bbfd5c577dd0fadc318cfe,2022-06-29_09h50.44.375,Colour_Asymmetry_Pilot,2022.1.3,Win32,59.9880024,62bbe60bf3d75ef465d3e404,0,147,147,90,1,twoone,,,,,,,,,,,,,,,,,,,,,,,,,,,,,,,,,,,,,,,,,,,,,,,,,,,,,,,,,,,,,,,,,,,,,,,,,,,,,,,,,,,,,,,,,,,,,,,,,,,,,,,,,,,,,,,,,,,,,,,,,,,,,,,,,,,,,,,,,,,,,,,,,,,,,,,,
,,,,,,5f194a84823da61b2d97e805,62bbfd5c577dd0fadc318cfe,2022-06-29_09h50.44.375,Colour_Asymmetry_Pilot,2022.1.3,Win32,59.9880024,62bbe60bf3d75ef465d3e404,0,148,148,97,1,onethree,,,,,,,,,,,,,,,,,,,,,,,,,,,,,,,,,,,,,,,,,,,,,,,,,,,,,,,,,,,,,,,,,,,,,,,,,,,,,,,,,,,,,,,,,,,,,,,,,,,,,,,,,,,,,,,,,,,,,,,,,,,,,,,,,,,,,,,,,,,,,,,,,,,,,,,,
,,,,,,5f194a84823da61b2d97e805,62bbfd5c577dd0fadc318cfe,2022-06-29_09h50.44.375,Colour_Asymmetry_Pilot,2022.1.3,Win32,59.9880024,62bbe60bf3d75ef465d3e404,0,149,149,129,1,onethree,,,,,,,,,,,,,,,,,,,,,,,,,,,,,,,,,,,,,,,,,,,,,,,,,,,,,,,,,,,,,,,,,,,,,,,,,,,,,,,,,,,,,,,,,,,,,,,,,,,,,,,,,,,,,,,,,,,,,,,,,,,,,,,,,,,,,,,,,,,,,,,,,,,,,,,,
,,,,,,5f194a84823da61b2d97e805,62bbfd5c577dd0fadc318cfe,2022-06-29_09h50.44.375,Colour_Asymmetry_Pilot,2022.1.3,Win32,59.9880024,62bbe60bf3d75ef465d3e404,0,150,150,72,1,onetwo,,,,,,,,,,,,,,,,,,,,,,,,,,,,,,,,,,,,,,,,,,,,,,,,,,,,,,,,,,,,,,,,,,,,,,,,,,,,,,,,,,,,,,,,,,,,,,,,,,,,,,,,,,,,,,,,,,,,,,,,,,,,,,,,,,,,,,,,,,,,,,,,,,,,,,,,
,,,,,,5f194a84823da61b2d97e805,62bbfd5c577dd0fadc318cfe,2022-06-29_09h50.44.375,Colour_Asymmetry_Pilot,2022.1.3,Win32,59.9880024,62bbe60bf3d75ef465d3e404,0,151,151,86,1,fourtwo,,,,,,,,,,,,,,,,,,,,,,,,,,,,,,,,,,,,,,,,,,,,,,,,,,,,,,,,,,,,,,,,,,,,,,,,,,,,,,,,,,,,,,,,,,,,,,,,,,,,,,,,,,,,,,,,,,,,,,,,,,,,,,,,,,,,,,,,,,,,,,,,,,,,,,,,
,,,,,,5f194a84823da61b2d97e805,62bbfd5c577dd0fadc318cfe,2022-06-29_09h50.44.375,Colour_Asymmetry_Pilot,2022.1.3,Win32,59.9880024,62bbe60bf3d75ef465d3e404,0,152,152,12,1,threeone,,,,,,,,,,,,,,,,,,,,,,,,,,,,,,,,,,,,,,,,,,,,,,,,,,,,,,,,,,,,,,,,,,,,,,,,,,,,,,,,,,,,,,,,,,,,,,,,,,,,,,,,,,,,,,,,,,,,,,,,,,,,,,,,,,,,,,,,,,,,,,,,,,,,,,,,
,,,,,,5f194a84823da61b2d97e805,62bbfd5c577dd0fadc318cfe,2022-06-29_09h50.44.375,Colour_Asymmetry_Pilot,2022.1.3,Win32,59.9880024,62bbe60bf3d75ef465d3e404,0,153,153,35,1,twofour,,,,,,,,,,,,,,,,,,,,,,,,,,,,,,,,,,,,,,,,,,,,,,,,,,,,,,,,,,,,,,,,,,,,,,,,,,,,,,,,,,,,,,,,,,,,,,,,,,,,,,,,,,,,,,,,,,,,,,,,,,,,,,,,,,,,,,,,,,,,,,,,,,,,,,,,
,,,,,,5f194a84823da61b2d97e805,62bbfd5c577dd0fadc318cfe,2022-06-29_09h50.44.375,Colour_Asymmetry_Pilot,2022.1.3,Win32,59.9880024,62bbe60bf3d75ef465d3e404,0,154,154,0,1,onetwo,,,,,,,,,,,,,,,,,,,,,,,,,,,,,,,,,,,,,,,,,,,,,,,,,,,,,,,,,,,,,,,,,,,,,,,,,,,,,,,,,,,,,,,,,,,,,,,,,,,,,,,,,,,,,,,,,,,,,,,,,,,,,,,,,,,,,,,,,,,,,,,,,,,,,,,,
,,,,,,5f194a84823da61b2d97e805,62bbfd5c577dd0fadc318cfe,2022-06-29_09h50.44.375,Colour_Asymmetry_Pilot,2022.1.3,Win32,59.9880024,62bbe60bf3d75ef465d3e404,0,155,155,131,1,twofour,,,,,,,,,,,,,,,,,,,,,,,,,,,,,,,,,,,,,,,,,,,,,,,,,,,,,,,,,,,,,,,,,,,,,,,,,,,,,,,,,,,,,,,,,,,,,,,,,,,,,,,,,,,,,,,,,,,,,,,,,,,,,,,,,,,,,,,,,,,,,,,,,,,,,,,,
,,,,,,5f194a84823da61b2d97e805,62bbfd5c577dd0fadc318cfe,2022-06-29_09h50.44.375,Colour_Asymmetry_Pilot,2022.1.3,Win32,59.9880024,62bbe60bf3d75ef465d3e404,0,156,156,130,1,twoone,,,,,,,,,,,,,,,,,,,,,,,,,,,,,,,,,,,,,,,,,,,,,,,,,,,,,,,,,,,,,,,,,,,,,,,,,,,,,,,,,,,,,,,,,,,,,,,,,,,,,,,,,,,,,,,,,,,,,,,,,,,,,,,,,,,,,,,,,,,,,,,,,,,,,,,,
,,,,,,5f194a84823da61b2d97e805,62bbfd5c577dd0fadc318cfe,2022-06-29_09h50.44.375,Colour_Asymmetry_Pilot,2022.1.3,Win32,59.9880024,62bbe60bf3d75ef465d3e404,0,157,157,58,1,twoone,,,,,,,,,,,,,,,,,,,,,,,,,,,,,,,,,,,,,,,,,,,,,,,,,,,,,,,,,,,,,,,,,,,,,,,,,,,,,,,,,,,,,,,,,,,,,,,,,,,,,,,,,,,,,,,,,,,,,,,,,,,,,,,,,,,,,,,,,,,,,,,,,,,,,,,,
,,,,,,5f194a84823da61b2d97e805,62bbfd5c577dd0fadc318cfe,2022-06-29_09h50.44.375,Colour_Asymmetry_Pilot,2022.1.3,Win32,59.9880024,62bbe60bf3d75ef465d3e404,0,158,158,28,1,threeone,,,,,,,,,,,,,,,,,,,,,,,,,,,,,,,,,,,,,,,,,,,,,,,,,,,,,,,,,,,,,,,,,,,,,,,,,,,,,,,,,,,,,,,,,,,,,,,,,,,,,,,,,,,,,,,,,,,,,,,,,,,,,,,,,,,,,,,,,,,,,,,,,,,,,,,,
,,,,,,5f194a84823da61b2d97e805,62bbfd5c577dd0fadc318cfe,2022-06-29_09h50.44.375,Colour_Asymmetry_Pilot,2022.1.3,Win32,59.9880024,62bbe60bf3d75ef465d3e404,0,159,159,115,1,twofour,,,,,,,,,,,,,,,,,,,,,,,,,,,,,,,,,,,,,,,,,,,,,,,,,,,,,,,,,,,,,,,,,,,,,,,,,,,,,,,,,,,,,,,,,,,,,,,,,,,,,,,,,,,,,,,,,,,,,,,,,,,,,,,,,,,,,,,,,,,,,,,,,,,,,,,,
,,,,,,5f194a84823da61b2d97e805,62bbfd5c577dd0fadc318cfe,2022-06-29_09h50.44.375,Colour_Asymmetry_Pilot,2022.1.3,Win32,59.9880024,62bbe60bf3d75ef465d3e404,0,160,160,5,1,threefour,,,,,,,,,,,,,,,,,,,,,,,,,,,,,,,,,,,,,,,,,,,,,,,,,,,,,,,,,,,,,,,,,,,,,,,,,,,,,,,,,,,,,,,,,,,,,,,,,,,,,,,,,,,,,,,,,,,,,,,,,,,,,,,,,,,,,,,,,,,,,,,,,,,,,,,,
,,,,,,5f194a84823da61b2d97e805,62bbfd5c577dd0fadc318cfe,2022-06-29_09h50.44.375,Colour_Asymmetry_Pilot,2022.1.3,Win32,59.9880024,62bbe60bf3d75ef465d3e404,0,161,161,146,1,twoone,,,,,,,,,,,,,,,,,,,,,,,,,,,,,,,,,,,,,,,,,,,,,,,,,,,,,,,,,,,,,,,,,,,,,,,,,,,,,,,,,,,,,,,,,,,,,,,,,,,,,,,,,,,,,,,,,,,,,,,,,,,,,,,,,,,,,,,,,,,,,,,,,,,,,,,,
,,,,,,5f194a84823da61b2d97e805,62bbfd5c577dd0fadc318cfe,2022-06-29_09h50.44.375,Colour_Asymmetry_Pilot,2022.1.3,Win32,59.9880024,62bbe60bf3d75ef465d3e404,,,,,,,space,2.0768,space,5.4633,space,35.0705,space,7.7363,space,6.4562,space,2.8093,"[0.6547999999999998,-0.043199999999999905,-0.011800000000000033]",fourtwo,"[-0.9844,-0.9688,-0.9922]",-2,10.3973,-70.5,-31.3999939,1,0,0,response5disk_5,5.5,-6.600006104,1,0,0,rectangle_8,5.5,-6.600006104,1,0,0,1,5.5,-6.600006104,1,0,0,0,0,0,0,1,,,,,,,,,,,,,,,,,,,,,,,,,,,,,,,,,,,,,,,,,,,,,,,,,,,,,,,,,,,,,,,,,,,,,,,,,,,,,,,,,,,,,,,,,,,,,,,,,,,,,,,,,,,
,,,,,,5f194a84823da61b2d97e805,62bbfd5c577dd0fadc318cfe,2022-06-29_09h50.44.375,Colour_Asymmetry_Pilot,2022.1.3,Win32,59.9880024,62bbe60bf3d75ef465d3e404,,,,,,,,,,,,,,,,,,,"[-0.9296,-0.12959999999999994,-0.043199999999999905]",onethree,"[0.18419999999999992,-0.4276,-0.404]",-3,4.1573,-50.5,25.3999939,1,0,0,response7disk_5,-18.5,-5,1,0,0,rectangle_8,53.5,-75.3999939,1,0,0,1,-3.299987793,3.799987793,1,0,0,1,0,1,0,1,response3disk_7,4,rectangle_4,,,,,,,,,,,,,,,,,,,,,,,,,,,,,,,,,,,,,,,,,,,,,,,,,,,,,,,,,,,,,,,,,,,,,,,,,,,,,,,,,,,,,,,,,,,,,,,,,,,,,,,,
,,,,,,5f194a84823da61b2d97e805,62bbfd5c577dd0fadc318cfe,2022-06-29_09h50.44.375,Colour_Asymmetry_Pilot,2022.1.3,Win32,59.9880024,62bbe60bf3d75ef465d3e404,,,,,,,,,,,,,,,,,,,"[-0.9766,-0.34920000000000007,0.2156]",threefour,"[0.9763999999999999,-0.1137999999999999,-0.6314]",-1,1.0203,-24.89996338,-55.3999939,1,0,0,response5disk_5,-0.099975586,1.399993896,1,0,0,rectangle_8,-0.099975586,1.399993896,1,0,0,1,-0.099975586,1.399993896,1,0,0,2,0,2,0,1,,,,,,,,,,,,,,,,,,,,,,,,,,,,,,,,,,,,,,,,,,,,,,,,,,,,,,,,,,,,,,,,,,,,,,,,,,,,,,,,,,,,,,,,,,,,,,,,,,,,,,,,,,,
,,,,,,5f194a84823da61b2d97e805,62bbfd5c577dd0fadc318cfe,2022-06-29_09h50.44.375,Colour_Asymmetry_Pilot,2022.1.3,Win32,59.9880024,62bbe60bf3d75ef465d3e404,,,,,,,,,,,,,,,,,,,"[-0.8118,-0.8198,-0.5452]",onethree,"[0.7646000000000002,0.07440000000000002,0.2704]",-2,2.5266,-52.8999939,-37.80001831,1,0,0,response5disk_5,0.700012207,-6.600006104,1,0,0,rectangle_8,35.10003662,-65,1,0,0,1,-0.099975586,-5,1,0,0,3,0,3,0,1,response3disk_7,4,rectangle_4,,,,,,,,,,,,,,,,,,,,,,,,,,,,,,,,,,,,,,,,,,,,,,,,,,,,,,,,,,,,,,,,,,,,,,,,,,,,,,,,,,,,,,,,,,,,,,,,,,,,,,,,
,,,,,,5f194a84823da61b2d97e805,62bbfd5c577dd0fadc318cfe,2022-06-29_09h50.44.375,Colour_Asymmetry_Pilot,2022.1.3,Win32,59.9880024,62bbe60bf3d75ef465d3e404,,,,,,,,,,,,,,,,,,,"[0.9686000000000001,0.3802000000000001,0.19999999999999996]",twofour,"[-0.2942,-0.24719999999999998,-0.357]",1,1.2215,30.29998779,-77,1,0,0,response3disk_5,-7.299987793,-5,1,0,0,rectangle_8,-7.299987793,-5,1,0,0,1,-7.299987793,-5,1,0,0,4,0,4,0,1,,,,,,,,,,,,,,,,,,,,,,,,,,,,,,,,,,,,,,,,,,,,,,,,,,,,,,,,,,,,,,,,,,,,,,,,,,,,,,,,,,,,,,,,,,,,,,,,,,,,,,,,,,,
,,,,,,5f194a84823da61b2d97e805,62bbfd5c577dd0fadc318cfe,2022-06-29_09h50.44.375,Colour_Asymmetry_Pilot,2022.1.3,Win32,59.9880024,62bbe60bf3d75ef465d3e404,,,,,,,,,,,,,,,,,,,"[0.3881999999999999,-0.23939999999999995,-0.05040000000000011]",fourtwo,"[0.9372,0.20779999999999998,0.2704]",3,2.3511,66.29998779,25.3999939,1,0,0,response1disk_5,-4.099975586,-3.399993896,1,0,0,rectangle_8,-4.099975586,-3.399993896,1,0,0,1,-4.099975586,-3.399993896,1,0,0,5,0,5,0,1,,,,,,,,,,,,,,,,,,,,,,,,,,,,,,,,,,,,,,,,,,,,,,,,,,,,,,,,,,,,,,,,,,,,,,,,,,,,,,,,,,,,,,,,,,,,,,,,,,,,,,,,,,,
,,,,,,5f194a84823da61b2d97e805,62bbfd5c577dd0fadc318cfe,2022-06-29_09h50.44.375,Colour_Asymmetry_Pilot,2022.1.3,Win32,59.9880024,62bbe60bf3d75ef465d3e404,,,,,,,,,,,,,,,,,,,"[-0.9844,-0.9688,-0.9922]",onethree,"[0.7802,-0.23140000000000005,-0.20799999999999996]",-2,0.8661,-48.8999939,-35.3999939,1,0,0,response5disk_5,-6.5,0.600006104,1,0,0,rectangle_8,-6.5,0.600006104,1,0,0,1,-6.5,0.600006104,1,0,0,6,0,6,0,1,,,,,,,,,,,,,,,,,,,,,,,,,,,,,,,,,,,,,,,,,,,,,,,,,,,,,,,,,,,,,,,,,,,,,,,,,,,,,,,,,,,,,,,,,,,,,,,,,,,,,,,,,,,
,,,,,,5f194a84823da61b2d97e805,62bbfd5c577dd0fadc318cfe,2022-06-29_09h50.44.375,Colour_Asymmetry_Pilot,2022.1.3,Win32,59.9880024,62bbe60bf3d75ef465d3e404,,,,,,,,,,,,,,,,,,,,fourthree,,1,1.901,,,,,,,,,,,,,,,,,,,,,,,,,,,,,,,,space,2.0593,"[-0.011800000000000033,-0.906,-0.45100000000000007]","[0.30180000000000007,-0.7884,-0.9844]",50.29998779,-64.20001221,1,0,0,response3disk,16.70001221,-7.399993896,1,0,0,rectangle,16.70001221,-7.399993896,1,0,0,,1,0.0129,0,16.70001221,-7.399993896,1,0,0,0,0,0,81,1,0,second,,,,,,,,,,,,,,,,,,,,,,,,,,,,,,,,,,,,,,,,,,,,,,,,,,,,,,,,,,,,,,,,,,,
,,,,,,5f194a84823da61b2d97e805,62bbfd5c577dd0fadc318cfe,2022-06-29_09h50.44.375,Colour_Asymmetry_Pilot,2022.1.3,Win32,59.9880024,62bbe60bf3d75ef465d3e404,,,,,,,,,,,,,,,,,,,,fourthree,,1,0.6653,,,,,,,,,,,,,,,,,,,,,,,,,,,,,,,,,,"[-0.01980000000000004,-0.5138,-0.38039999999999996]","[0.9686000000000001,0.5763999999999998,0.11359999999999992]",61.5,-76.20001221,1,0,0,response3disk,-7.299987793,9.399993896,1,0,0,rectangle,-7.299987793,9.399993896,1,0,0,,1,0.0008,0,-7.299987793,9.399993896,1,0,0,0,1,1,23,1,23,first,,,,,,,,,,,,,,,,,,,,,,,,,,,,,,,,,,,,,,,,,,,,,,,,,,,,,,,,,,,,,,,,,,,
,,,,,,5f194a84823da61b2d97e805,62bbfd5c577dd0fadc318cfe,2022-06-29_09h50.44.375,Colour_Asymmetry_Pilot,2022.1.3,Win32,59.9880024,62bbe60bf3d75ef465d3e404,,,,,,,,,,,,,,,,,,,,twoone,,-1,0.4873,,,,,,,,,,,,,,,,,,,,,,,,,,,,,,,,,,"[-0.10599999999999998,-0.10599999999999998,0.5841999999999998]","[-0.050999999999999934,-0.6706000000000001,-0.804]",-20.89996338,-63.3999939,1,0,0,response5disk,0.700012207,0.600006104,1,0,0,rectangle,0.700012207,0.600006104,1,0,0,,3,0.0048,0,0.700012207,0.600006104,1,0,0,0,2,2,37,1,37,first,,,,,,,,,,,,,,,,,,,,,,,,,,,,,,,,,,,,,,,,,,,,,,,,,,,,,,,,,,,,,,,,,,,
,,,,,,5f194a84823da61b2d97e805,62bbfd5c577dd0fadc318cfe,2022-06-29_09h50.44.375,Colour_Asymmetry_Pilot,2022.1.3,Win32,59.9880024,62bbe60bf3d75ef465d3e404,,,,,,,,,,,,,,,,,,,,threeone,,1,0.4196,,,,,,,,,,,,,,,,,,,,,,,,,,,,,,,,,,"[-0.2942,-0.7648,-0.7492000000000001]","[-0.06680000000000008,-0.45100000000000007,-0.906]",39.10003662,-71.3999939,1,0,0,response3disk,10.29998779,-1,1,0,0,rectangle,10.29998779,-1,1,0,0,,2,0.0066,0,10.29998779,-1,1,0,0,0,3,3,27,1,27,first,,,,,,,,,,,,,,,,,,,,,,,,,,,,,,,,,,,,,,,,,,,,,,,,,,,,,,,,,,,,,,,,,,,
,,,,,,5f194a84823da61b2d97e805,62bbfd5c577dd0fadc318cfe,2022-06-29_09h50.44.375,Colour_Asymmetry_Pilot,2022.1.3,Win32,59.9880024,62bbe60bf3d75ef465d3e404,,,,,,,,,,,,,,,,,,,,onethree,,-2,1.1591,,,,,,,,,,,,,,,,,,,,,,,,,,,,,,,,,,"[-0.10599999999999998,-0.10599999999999998,0.5841999999999998]","[0.9763999999999999,0.8588,-0.05900000000000005]",-65.69998169,-41.80001831,1,0,0,response5disk,4.700012207,-8.200012207,1,0,0,rectangle,4.700012207,-8.200012207,1,0,0,,2,0.0007,0,4.700012207,-8.200012207,1,0,0,0,4,4,34,1,34,first,,,,,,,,,,,,,,,,,,,,,,,,,,,,,,,,,,,,,,,,,,,,,,,,,,,,,,,,,,,,,,,,,,,
,,,,,,5f194a84823da61b2d97e805,62bbfd5c577dd0fadc318cfe,2022-06-29_09h50.44.375,Colour_Asymmetry_Pilot,2022.1.3,Win32,59.9880024,62bbe60bf3d75ef465d3e404,,,,,,,,,,,,,,,,,,,,threeone,,1,0.5251,,,,,,,,,,,,,,,,,,,,,,,,,,,,,,,,,,"[-0.5452,-0.608,0.2470000000000001]","[-0.5922000000000001,-0.7492000000000001,-0.5296000000000001]",42.29998779,-57.80001831,1,0,0,response3disk,5.5,-3.399993896,1,0,0,rectangle,5.5,-3.399993896,1,0,0,,2,0.0009,0,5.5,-3.399993896,1,0,0,0,5,5,138,1,57,second,,,,,,,,,,,,,,,,,,,,,,,,,,,,,,,,,,,,,,,,,,,,,,,,,,,,,,,,,,,,,,,,,,,
,,,,,,5f194a84823da61b2d97e805,62bbfd5c577dd0fadc318cfe,2022-06-29_09h50.44.375,Colour_Asymmetry_Pilot,2022.1.3,Win32,59.9880024,62bbe60bf3d75ef465d3e404,,,,,,,,,,,,,,,,,,,,onetwo,,-1,0.4012,,,,,,,,,,,,,,,,,,,,,,,,,,,,,,,,,,"[0.6625999999999999,0.4980000000000002,-0.357]","[-0.45899999999999996,-0.3256,-0.9374]",-23.29998779,-65,1,0,0,response5disk,2.299987793,3,1,0,0,rectangle,2.299987793,3,1,0,0,,2,0.0007,0,2.299987793,3,1,0,0,0,6,6,119,1,38,second,,,,,,,,,,,,,,,,,,,,,,,,,,,,,,,,,,,,,,,,,,,,,,,,,,,,,,,,,,,,,,,,,,,
,,,,,,5f194a84823da61b2d97e805,62bbfd5c577dd0fadc318cfe,2022-06-29_09h50.44.375,Colour_Asymmetry_Pilot,2022.1.3,Win32,59.9880024,62bbe60bf3d75ef465d3e404,,,,,,,,,,,,,,,,,,,,fourthree,,-2,0.7877,,,,,,,,,,,,,,,,,,,,,,,,,,,,,,,,,,"[-0.8118,-0.8198,-0.5452]","[0.7646000000000002,0.07440000000000002,0.2704]",-53.69998169,-42.6000061,1,0,0,response5disk,3.900024414,-9,1,0,0,rectangle,3.900024414,-9,1,0,0,,1,0.0035,0,3.900024414,-9,1,0,0,0,7,7,64,1,64,first,,,,,,,,,,,,,,,,,,,,,,,,,,,,,,,,,,,,,,,,,,,,,,,,,,,,,,,,,,,,,,,,,,,
,,,,,,5f194a84823da61b2d97e805,62bbfd5c577dd0fadc318cfe,2022-06-29_09h50.44.375,Colour_Asymmetry_Pilot,2022.1.3,Win32,59.9880024,62bbe60bf3d75ef465d3e404,,,,,,,,,,,,,,,,,,,,threeone,,1,0.5503,,,,,,,,,,,,,,,,,,,,,,,,,,,,,,,,,,"[-0.5922000000000001,-0.7492000000000001,-0.5296000000000001]","[-0.5688,-0.08239999999999992,-0.1844]",29.5,-65.80001831,1,0,0,response3disk,10.29998779,7.799987793,1,0,0,rectangle,10.29998779,7.799987793,1,0,0,,3,0.0035,0,10.29998779,7.799987793,1,0,0,0,8,8,95,1,14,second,,,,,,,,,,,,,,,,,,,,,,,,,,,,,,,,,,,,,,,,,,,,,,,,,,,,,,,,,,,,,,,,,,,
,,,,,,5f194a84823da61b2d97e805,62bbfd5c577dd0fadc318cfe,2022-06-29_09h50.44.375,Colour_Asymmetry_Pilot,2022.1.3,Win32,59.9880024,62bbe60bf3d75ef465d3e404,,,,,,,,,,,,,,,,,,,,threeone,,-3,0.9986,,,,,,,,,,,,,,,,,,,,,,,,,,,,,,,,,,"[-0.34920000000000007,-0.702,-0.5216]","[1,0.12939999999999996,-1]",-49.69998169,29.3999939,1,0,0,response7disk,3.100036621,-7.399993896,1,0,0,rectangle,3.100036621,-7.399993896,1,0,0,,1,0.0034,0,3.100036621,-7.399993896,1,0,0,0,9,9,16,1,16,first,,,,,,,,,,,,,,,,,,,,,,,,,,,,,,,,,,,,,,,,,,,,,,,,,,,,,,,,,,,,,,,,,,,
,,,,,,5f194a84823da61b2d97e805,62bbfd5c577dd0fadc318cfe,2022-06-29_09h50.44.375,Colour_Asymmetry_Pilot,2022.1.3,Win32,59.9880024,62bbe60bf3d75ef465d3e404,,,,,,,,,,,,,,,,,,,,twofour,,-2,0.9461,,,,,,,,,,,,,,,,,,,,,,,,,,,,,,,,,,"[0.3881999999999999,-0.23939999999999995,-0.05040000000000011]","[-0.09019999999999995,0.44300000000000006,0.5371999999999999]",-59.29998779,-30.6000061,1,0,0,response5disk,11.90002441,1.399993896,1,0,0,rectangle,11.90002441,1.399993896,1,0,0,,2,0.0052,0,11.90002441,1.399993896,1,0,0,0,10,10,43,1,43,first,,,,,,,,,,,,,,,,,,,,,,,,,,,,,,,,,,,,,,,,,,,,,,,,,,,,,,,,,,,,,,,,,,,
,,,,,,5f194a84823da61b2d97e805,62bbfd5c577dd0fadc318cfe,2022-06-29_09h50.44.375,Colour_Asymmetry_Pilot,2022.1.3,Win32,59.9880024,62bbe60bf3d75ef465d3e404,,,,,,,,,,,,,,,,,,,,twofour,,-1,0.4509,,,,,,,,,,,,,,,,,,,,,,,,,,,,,,,,,,"[0.6547999999999998,-0.043199999999999905,-0.011800000000000033]","[-0.06680000000000008,-0.45100000000000007,-0.906]",-25.70001221,-31.3999939,1,0,0,response5disk,-16.09997559,0.600006104,1,0,0,rectangle,81.5,-35.3999939,1,0,0,2,2,3.7357,1,-4.099975586,-0.200012207,1,0,0,0,11,11,160,1,79,second,response3disk_3,rectangle,,,,,,,,,,,,,,,,,,,,,,,,,,,,,,,,,,,,,,,,,,,,,,,,,,,,,,,,,,,,,,,,,
,,,,,,5f194a84823da61b2d97e805,62bbfd5c577dd0fadc318cfe,2022-06-29_09h50.44.375,Colour_Asymmetry_Pilot,2022.1.3,Win32,59.9880024,62bbe60bf3d75ef465d3e404,,,,,,,,,,,,,,,,,,,,twofour,,1,0.4036,,,,,,,,,,,,,,,,,,,,,,,,,,,,,,,,,,"[0.37240000000000006,-0.050999999999999934,-0.5216]","[0.34099999999999997,0.12939999999999996,-0.9766]",35.10003662,-75.3999939,1,0,0,response3disk,10.29998779,-9.800018311,1,0,0,rectangle,10.29998779,-9.800018311,1,0,0,2,3,0.0033,0,10.29998779,-9.800018311,1,0,0,0,12,12,103,1,22,second,,,,,,,,,,,,,,,,,,,,,,,,,,,,,,,,,,,,,,,,,,,,,,,,,,,,,,,,,,,,,,,,,,,
,,,,,,5f194a84823da61b2d97e805,62bbfd5c577dd0fadc318cfe,2022-06-29_09h50.44.375,Colour_Asymmetry_Pilot,2022.1.3,Win32,59.9880024,62bbe60bf3d75ef465d3e404,,,,,,,,,,,,,,,,,,,,threeone,,1,0.4286,,,,,,,,,,,,,,,,,,,,,,,,,,,,,,,,,,"[-0.6942,-0.7648,-0.12959999999999994]","[-0.6,0.16860000000000008,0.44300000000000006]",29.5,-51.3999939,1,0,0,response3disk,12.70001221,-9,1,0,0,rectangle,12.70001221,-9,1,0,0,2,1,0.0069,0,12.70001221,-9,1,0,0,0,13,13,13,1,13,first,,,,,,,,,,,,,,,,,,,,,,,,,,,,,,,,,,,,,,,,,,,,,,,,,,,,,,,,,,,,,,,,,,,
,,,,,,5f194a84823da61b2d97e805,62bbfd5c577dd0fadc318cfe,2022-06-29_09h50.44.375,Colour_Asymmetry_Pilot,2022.1.3,Win32,59.9880024,62bbe60bf3d75ef465d3e404,,,,,,,,,,,,,,,,,,,,fourtwo,,-1,0.303,,,,,,,,,,,,,,,,,,,,,,,,,,,,,,,,,,"[-0.2942,-0.7648,-0.7492000000000001]","[0.23920000000000008,0.2704,0.16060000000000008]",-33.70001221,-57,1,0,0,response5disk,0.700012207,-3.399993896,1,0,0,rectangle,0.700012207,-3.399993896,1,0,0,2,3,0.0048,0,0.700012207,-3.399993896,1,0,0,0,14,14,29,1,29,first,,,,,,,,,,,,,,,,,,,,,,,,,,,,,,,,,,,,,,,,,,,,,,,,,,,,,,,,,,,,,,,,,,,
,,,,,,5f194a84823da61b2d97e805,62bbfd5c577dd0fadc318cfe,2022-06-29_09h50.44.375,Colour_Asymmetry_Pilot,2022.1.3,Win32,59.9880024,62bbe60bf3d75ef465d3e404,,,,,,,,,,,,,,,,,,,,threefour,,-3,0.89,,,,,,,,,,,,,,,,,,,,,,,,,,,,,,,,,,"[0.23120000000000007,-0.7726,-0.34120000000000006]","[0.9842,0.7409999999999999,-0.6628000000000001]",-64.1000061,41.3999939,1,0,0,response7disk,-16.09997559,7,1,0,0,rectangle,-16.09997559,7,1,0,0,2,2,0.003,0,-16.09997559,7,1,0,0,0,15,15,140,1,59,second,,,,,,,,,,,,,,,,,,,,,,,,,,,,,,,,,,,,,,,,,,,,,,,,,,,,,,,,,,,,,,,,,,,
,,,,,,5f194a84823da61b2d97e805,62bbfd5c577dd0fadc318cfe,2022-06-29_09h50.44.375,Colour_Asymmetry_Pilot,2022.1.3,Win32,59.9880024,62bbe60bf3d75ef465d3e404,,,,,,,,,,,,,,,,,,,,fourthree,,-2,0.5974,,,,,,,,,,,,,,,,,,,,,,,,,,,,,,,,,,"[0.6547999999999998,-0.043199999999999905,-0.011800000000000033]","[1,0.12939999999999996,-1]",-60.1000061,-43.3999939,1,0,0,response5disk,15.10003662,-9.800018311,1,0,0,rectangle,15.10003662,-9.800018311,1,0,0,2,1,0.0066,0,15.10003662,-9.800018311,1,0,0,0,16,16,142,1,61,second,,,,,,,,,,,,,,,,,,,,,,,,,,,,,,,,,,,,,,,,,,,,,,,,,,,,,,,,,,,,,,,,,,,
,,,,,,5f194a84823da61b2d97e805,62bbfd5c577dd0fadc318cfe,2022-06-29_09h50.44.375,Colour_Asymmetry_Pilot,2022.1.3,Win32,59.9880024,62bbe60bf3d75ef465d3e404,,,,,,,,,,,,,,,,,,,,fourthree,,-4,0.4878,,,,,,,,,,,,,,,,,,,,,,,,,,,,,,,,,,"[0.7018,0.7802,-0.16079999999999994]","[-0.8198,-0.5138,-0.7492000000000001]",-22.5,42.19998169,1,0,0,response7disk,3.900024414,-9,1,0,0,rectangle,3.900024414,-9,1,0,0,2,3,0.006,0,3.900024414,-9,1,0,0,0,17,17,45,1,45,first,,,,,,,,,,,,,,,,,,,,,,,,,,,,,,,,,,,,,,,,,,,,,,,,,,,,,,,,,,,,,,,,,,,
