trials.thisRepN,trials.thisTrialN,trials.thisN,trials.thisIndex,trials.ran,Colourcodes,participant,session,date,expName,psychopyVersion,OS,frameRate,study_id,trials_4.thisRepN,trials_4.thisTrialN,trials_4.thisN,trials_4.thisIndex,trials_4.ran,StimulusPos,key_resp.keys,key_resp.rt,key_resp_2.keys,key_resp_2.rt,key_resp_15.keys,key_resp_15.rt,key_resp_17.keys,key_resp_17.rt,key_resp_9.keys,key_resp_9.rt,key_resp_10.keys,key_resp_10.rt,Circle1_col,Ecc,Circle2_col,similarity,response_time,mouse_5.x,mouse_5.y,mouse_5.leftButton,mouse_5.midButton,mouse_5.rightButton,mouse_5.clicked_name,mouse_10.x,mouse_10.y,mouse_10.leftButton,mouse_10.midButton,mouse_10.rightButton,mouse_10.clicked_name,mouse_7.x,mouse_7.y,mouse_7.leftButton,mouse_7.midButton,mouse_7.rightButton,mouse_7.clicked_name,catchprac,catchnumberprac,mouse_6.x,mouse_6.y,mouse_6.leftButton,mouse_6.midButton,mouse_6.rightButton,mouse_6.clicked_name,duringprac.thisRepN,duringprac.thisTrialN,duringprac.thisN,duringprac.thisIndex,duringprac.ran,key_resp_22.keys,key_resp_22.rt,Circle1_colour,Circle2_colour,mouse.x,mouse.y,mouse.leftButton,mouse.midButton,mouse.rightButton,mouse.clicked_name,mouse_2.x,mouse_2.y,mouse_2.leftButton,mouse_2.midButton,mouse_2.rightButton,mouse_2.clicked_name,mouse_3.x,mouse_3.y,mouse_3.leftButton,mouse_3.midButton,mouse_3.rightButton,mouse_3.clicked_name,catchresponse,catchnumber,response_time_catch,Catch,mouse_11.x,mouse_11.y,mouse_11.leftButton,mouse_11.midButton,mouse_11.rightButton,mouse_11.clicked_name,trials_2.thisRepN,trials_2.thisTrialN,trials_2.thisN,trials_2.thisIndex,trials_2.ran,Colourpair,Temporder,trials_3.thisRepN,trials_3.thisTrialN,trials_3.thisN,trials_3.thisIndex,trials_3.ran,key_resp_instr_Ishi.keys,key_resp_instr_Ishi.rt,Ishi_trial_keyresp.keys,Ishi_trial_keyresp.rt,Ishi_textbox.text,Ishi_loop.thisRepN,Ishi_loop.thisTrialN,Ishi_loop.thisN,Ishi_loop.thisIndex,Ishi_loop.ran,imageaddress,textbox.text,mouse_4.x,mouse_4.y,mouse_4.leftButton,mouse_4.midButton,mouse_4.rightButton,mouse_4.clicked_name,textbox_2.text,mouse_8.x,mouse_8.y,mouse_8.leftButton,mouse_8.midButton,mouse_8.rightButton,mouse_8.clicked_name,textbox_3.text,mouse_9.x,mouse_9.y,mouse_9.leftButton,mouse_9.midButton,mouse_9.rightButton,mouse_9.clicked_name,textbox_4.text,mouse_12.x,mouse_12.y,mouse_12.leftButton,mouse_12.midButton,mouse_12.rightButton,mouse_12.clicked_name,textbox_5.text,mouse_13.x,mouse_13.y,mouse_13.leftButton,mouse_13.midButton,mouse_13.rightButton,mouse_13.clicked_name,textbox_6.text,mouse_14.x,mouse_14.y,mouse_14.leftButton,mouse_14.midButton,mouse_14.rightButton,mouse_14.clicked_name,textbox_7.text,mouse_15.x,mouse_15.y,mouse_15.leftButton,mouse_15.midButton,mouse_15.rightButton,mouse_15.clicked_name
0,0,0,59,1,,5f248b7b1bde03086270bd37,62bbfa016e6855b2c603359f,2022-06-29_09h06.54.721,Colour_Asymmetry_Pilot,2022.1.3,Win32,60.00960154,62bbe60bf3d75ef465d3e404,,,,,,,,,,,,,,,,,,,,,,,,,,,,,,,,,,,,,,,,,,,,,,,,,,,,,,,,,,,,,,,,,,,,,,,,,,,,,,,,,,,,,,,,,,,,,,,,,,,,,,,,,,,,,,,,,,,,,,,,,,,,,,,,,,,,,,,,,,,,,,,,,,,,,,,,,,,,,,
0,1,1,41,1,,5f248b7b1bde03086270bd37,62bbfa016e6855b2c603359f,2022-06-29_09h06.54.721,Colour_Asymmetry_Pilot,2022.1.3,Win32,60.00960154,62bbe60bf3d75ef465d3e404,,,,,,,,,,,,,,,,,,,,,,,,,,,,,,,,,,,,,,,,,,,,,,,,,,,,,,,,,,,,,,,,,,,,,,,,,,,,,,,,,,,,,,,,,,,,,,,,,,,,,,,,,,,,,,,,,,,,,,,,,,,,,,,,,,,,,,,,,,,,,,,,,,,,,,,,,,,,,,
0,2,2,36,1,,5f248b7b1bde03086270bd37,62bbfa016e6855b2c603359f,2022-06-29_09h06.54.721,Colour_Asymmetry_Pilot,2022.1.3,Win32,60.00960154,62bbe60bf3d75ef465d3e404,,,,,,,,,,,,,,,,,,,,,,,,,,,,,,,,,,,,,,,,,,,,,,,,,,,,,,,,,,,,,,,,,,,,,,,,,,,,,,,,,,,,,,,,,,,,,,,,,,,,,,,,,,,,,,,,,,,,,,,,,,,,,,,,,,,,,,,,,,,,,,,,,,,,,,,,,,,,,,
0,3,3,48,1,,5f248b7b1bde03086270bd37,62bbfa016e6855b2c603359f,2022-06-29_09h06.54.721,Colour_Asymmetry_Pilot,2022.1.3,Win32,60.00960154,62bbe60bf3d75ef465d3e404,,,,,,,,,,,,,,,,,,,,,,,,,,,,,,,,,,,,,,,,,,,,,,,,,,,,,,,,,,,,,,,,,,,,,,,,,,,,,,,,,,,,,,,,,,,,,,,,,,,,,,,,,,,,,,,,,,,,,,,,,,,,,,,,,,,,,,,,,,,,,,,,,,,,,,,,,,,,,,
0,4,4,89,1,,5f248b7b1bde03086270bd37,62bbfa016e6855b2c603359f,2022-06-29_09h06.54.721,Colour_Asymmetry_Pilot,2022.1.3,Win32,60.00960154,62bbe60bf3d75ef465d3e404,,,,,,,,,,,,,,,,,,,,,,,,,,,,,,,,,,,,,,,,,,,,,,,,,,,,,,,,,,,,,,,,,,,,,,,,,,,,,,,,,,,,,,,,,,,,,,,,,,,,,,,,,,,,,,,,,,,,,,,,,,,,,,,,,,,,,,,,,,,,,,,,,,,,,,,,,,,,,,
0,5,5,35,1,,5f248b7b1bde03086270bd37,62bbfa016e6855b2c603359f,2022-06-29_09h06.54.721,Colour_Asymmetry_Pilot,2022.1.3,Win32,60.00960154,62bbe60bf3d75ef465d3e404,,,,,,,,,,,,,,,,,,,,,,,,,,,,,,,,,,,,,,,,,,,,,,,,,,,,,,,,,,,,,,,,,,,,,,,,,,,,,,,,,,,,,,,,,,,,,,,,,,,,,,,,,,,,,,,,,,,,,,,,,,,,,,,,,,,,,,,,,,,,,,,,,,,,,,,,,,,,,,
0,6,6,66,1,,5f248b7b1bde03086270bd37,62bbfa016e6855b2c603359f,2022-06-29_09h06.54.721,Colour_Asymmetry_Pilot,2022.1.3,Win32,60.00960154,62bbe60bf3d75ef465d3e404,,,,,,,,,,,,,,,,,,,,,,,,,,,,,,,,,,,,,,,,,,,,,,,,,,,,,,,,,,,,,,,,,,,,,,,,,,,,,,,,,,,,,,,,,,,,,,,,,,,,,,,,,,,,,,,,,,,,,,,,,,,,,,,,,,,,,,,,,,,,,,,,,,,,,,,,,,,,,,
0,7,7,38,1,,5f248b7b1bde03086270bd37,62bbfa016e6855b2c603359f,2022-06-29_09h06.54.721,Colour_Asymmetry_Pilot,2022.1.3,Win32,60.00960154,62bbe60bf3d75ef465d3e404,,,,,,,,,,,,,,,,,,,,,,,,,,,,,,,,,,,,,,,,,,,,,,,,,,,,,,,,,,,,,,,,,,,,,,,,,,,,,,,,,,,,,,,,,,,,,,,,,,,,,,,,,,,,,,,,,,,,,,,,,,,,,,,,,,,,,,,,,,,,,,,,,,,,,,,,,,,,,,
0,8,8,28,1,,5f248b7b1bde03086270bd37,62bbfa016e6855b2c603359f,2022-06-29_09h06.54.721,Colour_Asymmetry_Pilot,2022.1.3,Win32,60.00960154,62bbe60bf3d75ef465d3e404,,,,,,,,,,,,,,,,,,,,,,,,,,,,,,,,,,,,,,,,,,,,,,,,,,,,,,,,,,,,,,,,,,,,,,,,,,,,,,,,,,,,,,,,,,,,,,,,,,,,,,,,,,,,,,,,,,,,,,,,,,,,,,,,,,,,,,,,,,,,,,,,,,,,,,,,,,,,,,
0,9,9,64,1,,5f248b7b1bde03086270bd37,62bbfa016e6855b2c603359f,2022-06-29_09h06.54.721,Colour_Asymmetry_Pilot,2022.1.3,Win32,60.00960154,62bbe60bf3d75ef465d3e404,,,,,,,,,,,,,,,,,,,,,,,,,,,,,,,,,,,,,,,,,,,,,,,,,,,,,,,,,,,,,,,,,,,,,,,,,,,,,,,,,,,,,,,,,,,,,,,,,,,,,,,,,,,,,,,,,,,,,,,,,,,,,,,,,,,,,,,,,,,,,,,,,,,,,,,,,,,,,,
0,10,10,86,1,,5f248b7b1bde03086270bd37,62bbfa016e6855b2c603359f,2022-06-29_09h06.54.721,Colour_Asymmetry_Pilot,2022.1.3,Win32,60.00960154,62bbe60bf3d75ef465d3e404,,,,,,,,,,,,,,,,,,,,,,,,,,,,,,,,,,,,,,,,,,,,,,,,,,,,,,,,,,,,,,,,,,,,,,,,,,,,,,,,,,,,,,,,,,,,,,,,,,,,,,,,,,,,,,,,,,,,,,,,,,,,,,,,,,,,,,,,,,,,,,,,,,,,,,,,,,,,,,
0,11,11,52,1,,5f248b7b1bde03086270bd37,62bbfa016e6855b2c603359f,2022-06-29_09h06.54.721,Colour_Asymmetry_Pilot,2022.1.3,Win32,60.00960154,62bbe60bf3d75ef465d3e404,,,,,,,,,,,,,,,,,,,,,,,,,,,,,,,,,,,,,,,,,,,,,,,,,,,,,,,,,,,,,,,,,,,,,,,,,,,,,,,,,,,,,,,,,,,,,,,,,,,,,,,,,,,,,,,,,,,,,,,,,,,,,,,,,,,,,,,,,,,,,,,,,,,,,,,,,,,,,,
0,12,12,67,1,,5f248b7b1bde03086270bd37,62bbfa016e6855b2c603359f,2022-06-29_09h06.54.721,Colour_Asymmetry_Pilot,2022.1.3,Win32,60.00960154,62bbe60bf3d75ef465d3e404,,,,,,,,,,,,,,,,,,,,,,,,,,,,,,,,,,,,,,,,,,,,,,,,,,,,,,,,,,,,,,,,,,,,,,,,,,,,,,,,,,,,,,,,,,,,,,,,,,,,,,,,,,,,,,,,,,,,,,,,,,,,,,,,,,,,,,,,,,,,,,,,,,,,,,,,,,,,,,
0,13,13,58,1,,5f248b7b1bde03086270bd37,62bbfa016e6855b2c603359f,2022-06-29_09h06.54.721,Colour_Asymmetry_Pilot,2022.1.3,Win32,60.00960154,62bbe60bf3d75ef465d3e404,,,,,,,,,,,,,,,,,,,,,,,,,,,,,,,,,,,,,,,,,,,,,,,,,,,,,,,,,,,,,,,,,,,,,,,,,,,,,,,,,,,,,,,,,,,,,,,,,,,,,,,,,,,,,,,,,,,,,,,,,,,,,,,,,,,,,,,,,,,,,,,,,,,,,,,,,,,,,,
0,14,14,51,1,,5f248b7b1bde03086270bd37,62bbfa016e6855b2c603359f,2022-06-29_09h06.54.721,Colour_Asymmetry_Pilot,2022.1.3,Win32,60.00960154,62bbe60bf3d75ef465d3e404,,,,,,,,,,,,,,,,,,,,,,,,,,,,,,,,,,,,,,,,,,,,,,,,,,,,,,,,,,,,,,,,,,,,,,,,,,,,,,,,,,,,,,,,,,,,,,,,,,,,,,,,,,,,,,,,,,,,,,,,,,,,,,,,,,,,,,,,,,,,,,,,,,,,,,,,,,,,,,
0,15,15,11,1,,5f248b7b1bde03086270bd37,62bbfa016e6855b2c603359f,2022-06-29_09h06.54.721,Colour_Asymmetry_Pilot,2022.1.3,Win32,60.00960154,62bbe60bf3d75ef465d3e404,,,,,,,,,,,,,,,,,,,,,,,,,,,,,,,,,,,,,,,,,,,,,,,,,,,,,,,,,,,,,,,,,,,,,,,,,,,,,,,,,,,,,,,,,,,,,,,,,,,,,,,,,,,,,,,,,,,,,,,,,,,,,,,,,,,,,,,,,,,,,,,,,,,,,,,,,,,,,,
0,16,16,20,1,,5f248b7b1bde03086270bd37,62bbfa016e6855b2c603359f,2022-06-29_09h06.54.721,Colour_Asymmetry_Pilot,2022.1.3,Win32,60.00960154,62bbe60bf3d75ef465d3e404,,,,,,,,,,,,,,,,,,,,,,,,,,,,,,,,,,,,,,,,,,,,,,,,,,,,,,,,,,,,,,,,,,,,,,,,,,,,,,,,,,,,,,,,,,,,,,,,,,,,,,,,,,,,,,,,,,,,,,,,,,,,,,,,,,,,,,,,,,,,,,,,,,,,,,,,,,,,,,
0,17,17,9,1,,5f248b7b1bde03086270bd37,62bbfa016e6855b2c603359f,2022-06-29_09h06.54.721,Colour_Asymmetry_Pilot,2022.1.3,Win32,60.00960154,62bbe60bf3d75ef465d3e404,,,,,,,,,,,,,,,,,,,,,,,,,,,,,,,,,,,,,,,,,,,,,,,,,,,,,,,,,,,,,,,,,,,,,,,,,,,,,,,,,,,,,,,,,,,,,,,,,,,,,,,,,,,,,,,,,,,,,,,,,,,,,,,,,,,,,,,,,,,,,,,,,,,,,,,,,,,,,,
0,18,18,55,1,,5f248b7b1bde03086270bd37,62bbfa016e6855b2c603359f,2022-06-29_09h06.54.721,Colour_Asymmetry_Pilot,2022.1.3,Win32,60.00960154,62bbe60bf3d75ef465d3e404,,,,,,,,,,,,,,,,,,,,,,,,,,,,,,,,,,,,,,,,,,,,,,,,,,,,,,,,,,,,,,,,,,,,,,,,,,,,,,,,,,,,,,,,,,,,,,,,,,,,,,,,,,,,,,,,,,,,,,,,,,,,,,,,,,,,,,,,,,,,,,,,,,,,,,,,,,,,,,
0,19,19,13,1,,5f248b7b1bde03086270bd37,62bbfa016e6855b2c603359f,2022-06-29_09h06.54.721,Colour_Asymmetry_Pilot,2022.1.3,Win32,60.00960154,62bbe60bf3d75ef465d3e404,,,,,,,,,,,,,,,,,,,,,,,,,,,,,,,,,,,,,,,,,,,,,,,,,,,,,,,,,,,,,,,,,,,,,,,,,,,,,,,,,,,,,,,,,,,,,,,,,,,,,,,,,,,,,,,,,,,,,,,,,,,,,,,,,,,,,,,,,,,,,,,,,,,,,,,,,,,,,,
0,20,20,22,1,,5f248b7b1bde03086270bd37,62bbfa016e6855b2c603359f,2022-06-29_09h06.54.721,Colour_Asymmetry_Pilot,2022.1.3,Win32,60.00960154,62bbe60bf3d75ef465d3e404,,,,,,,,,,,,,,,,,,,,,,,,,,,,,,,,,,,,,,,,,,,,,,,,,,,,,,,,,,,,,,,,,,,,,,,,,,,,,,,,,,,,,,,,,,,,,,,,,,,,,,,,,,,,,,,,,,,,,,,,,,,,,,,,,,,,,,,,,,,,,,,,,,,,,,,,,,,,,,
0,21,21,14,1,,5f248b7b1bde03086270bd37,62bbfa016e6855b2c603359f,2022-06-29_09h06.54.721,Colour_Asymmetry_Pilot,2022.1.3,Win32,60.00960154,62bbe60bf3d75ef465d3e404,,,,,,,,,,,,,,,,,,,,,,,,,,,,,,,,,,,,,,,,,,,,,,,,,,,,,,,,,,,,,,,,,,,,,,,,,,,,,,,,,,,,,,,,,,,,,,,,,,,,,,,,,,,,,,,,,,,,,,,,,,,,,,,,,,,,,,,,,,,,,,,,,,,,,,,,,,,,,,
0,22,22,47,1,,5f248b7b1bde03086270bd37,62bbfa016e6855b2c603359f,2022-06-29_09h06.54.721,Colour_Asymmetry_Pilot,2022.1.3,Win32,60.00960154,62bbe60bf3d75ef465d3e404,,,,,,,,,,,,,,,,,,,,,,,,,,,,,,,,,,,,,,,,,,,,,,,,,,,,,,,,,,,,,,,,,,,,,,,,,,,,,,,,,,,,,,,,,,,,,,,,,,,,,,,,,,,,,,,,,,,,,,,,,,,,,,,,,,,,,,,,,,,,,,,,,,,,,,,,,,,,,,
0,23,23,25,1,,5f248b7b1bde03086270bd37,62bbfa016e6855b2c603359f,2022-06-29_09h06.54.721,Colour_Asymmetry_Pilot,2022.1.3,Win32,60.00960154,62bbe60bf3d75ef465d3e404,,,,,,,,,,,,,,,,,,,,,,,,,,,,,,,,,,,,,,,,,,,,,,,,,,,,,,,,,,,,,,,,,,,,,,,,,,,,,,,,,,,,,,,,,,,,,,,,,,,,,,,,,,,,,,,,,,,,,,,,,,,,,,,,,,,,,,,,,,,,,,,,,,,,,,,,,,,,,,
0,24,24,60,1,,5f248b7b1bde03086270bd37,62bbfa016e6855b2c603359f,2022-06-29_09h06.54.721,Colour_Asymmetry_Pilot,2022.1.3,Win32,60.00960154,62bbe60bf3d75ef465d3e404,,,,,,,,,,,,,,,,,,,,,,,,,,,,,,,,,,,,,,,,,,,,,,,,,,,,,,,,,,,,,,,,,,,,,,,,,,,,,,,,,,,,,,,,,,,,,,,,,,,,,,,,,,,,,,,,,,,,,,,,,,,,,,,,,,,,,,,,,,,,,,,,,,,,,,,,,,,,,,
0,25,25,57,1,,5f248b7b1bde03086270bd37,62bbfa016e6855b2c603359f,2022-06-29_09h06.54.721,Colour_Asymmetry_Pilot,2022.1.3,Win32,60.00960154,62bbe60bf3d75ef465d3e404,,,,,,,,,,,,,,,,,,,,,,,,,,,,,,,,,,,,,,,,,,,,,,,,,,,,,,,,,,,,,,,,,,,,,,,,,,,,,,,,,,,,,,,,,,,,,,,,,,,,,,,,,,,,,,,,,,,,,,,,,,,,,,,,,,,,,,,,,,,,,,,,,,,,,,,,,,,,,,
0,26,26,16,1,,5f248b7b1bde03086270bd37,62bbfa016e6855b2c603359f,2022-06-29_09h06.54.721,Colour_Asymmetry_Pilot,2022.1.3,Win32,60.00960154,62bbe60bf3d75ef465d3e404,,,,,,,,,,,,,,,,,,,,,,,,,,,,,,,,,,,,,,,,,,,,,,,,,,,,,,,,,,,,,,,,,,,,,,,,,,,,,,,,,,,,,,,,,,,,,,,,,,,,,,,,,,,,,,,,,,,,,,,,,,,,,,,,,,,,,,,,,,,,,,,,,,,,,,,,,,,,,,
0,27,27,42,1,,5f248b7b1bde03086270bd37,62bbfa016e6855b2c603359f,2022-06-29_09h06.54.721,Colour_Asymmetry_Pilot,2022.1.3,Win32,60.00960154,62bbe60bf3d75ef465d3e404,,,,,,,,,,,,,,,,,,,,,,,,,,,,,,,,,,,,,,,,,,,,,,,,,,,,,,,,,,,,,,,,,,,,,,,,,,,,,,,,,,,,,,,,,,,,,,,,,,,,,,,,,,,,,,,,,,,,,,,,,,,,,,,,,,,,,,,,,,,,,,,,,,,,,,,,,,,,,,
0,28,28,10,1,,5f248b7b1bde03086270bd37,62bbfa016e6855b2c603359f,2022-06-29_09h06.54.721,Colour_Asymmetry_Pilot,2022.1.3,Win32,60.00960154,62bbe60bf3d75ef465d3e404,,,,,,,,,,,,,,,,,,,,,,,,,,,,,,,,,,,,,,,,,,,,,,,,,,,,,,,,,,,,,,,,,,,,,,,,,,,,,,,,,,,,,,,,,,,,,,,,,,,,,,,,,,,,,,,,,,,,,,,,,,,,,,,,,,,,,,,,,,,,,,,,,,,,,,,,,,,,,,
0,29,29,34,1,,5f248b7b1bde03086270bd37,62bbfa016e6855b2c603359f,2022-06-29_09h06.54.721,Colour_Asymmetry_Pilot,2022.1.3,Win32,60.00960154,62bbe60bf3d75ef465d3e404,,,,,,,,,,,,,,,,,,,,,,,,,,,,,,,,,,,,,,,,,,,,,,,,,,,,,,,,,,,,,,,,,,,,,,,,,,,,,,,,,,,,,,,,,,,,,,,,,,,,,,,,,,,,,,,,,,,,,,,,,,,,,,,,,,,,,,,,,,,,,,,,,,,,,,,,,,,,,,
0,30,30,83,1,,5f248b7b1bde03086270bd37,62bbfa016e6855b2c603359f,2022-06-29_09h06.54.721,Colour_Asymmetry_Pilot,2022.1.3,Win32,60.00960154,62bbe60bf3d75ef465d3e404,,,,,,,,,,,,,,,,,,,,,,,,,,,,,,,,,,,,,,,,,,,,,,,,,,,,,,,,,,,,,,,,,,,,,,,,,,,,,,,,,,,,,,,,,,,,,,,,,,,,,,,,,,,,,,,,,,,,,,,,,,,,,,,,,,,,,,,,,,,,,,,,,,,,,,,,,,,,,,
0,31,31,19,1,,5f248b7b1bde03086270bd37,62bbfa016e6855b2c603359f,2022-06-29_09h06.54.721,Colour_Asymmetry_Pilot,2022.1.3,Win32,60.00960154,62bbe60bf3d75ef465d3e404,,,,,,,,,,,,,,,,,,,,,,,,,,,,,,,,,,,,,,,,,,,,,,,,,,,,,,,,,,,,,,,,,,,,,,,,,,,,,,,,,,,,,,,,,,,,,,,,,,,,,,,,,,,,,,,,,,,,,,,,,,,,,,,,,,,,,,,,,,,,,,,,,,,,,,,,,,,,,,
0,32,32,85,1,,5f248b7b1bde03086270bd37,62bbfa016e6855b2c603359f,2022-06-29_09h06.54.721,Colour_Asymmetry_Pilot,2022.1.3,Win32,60.00960154,62bbe60bf3d75ef465d3e404,,,,,,,,,,,,,,,,,,,,,,,,,,,,,,,,,,,,,,,,,,,,,,,,,,,,,,,,,,,,,,,,,,,,,,,,,,,,,,,,,,,,,,,,,,,,,,,,,,,,,,,,,,,,,,,,,,,,,,,,,,,,,,,,,,,,,,,,,,,,,,,,,,,,,,,,,,,,,,
0,33,33,75,1,,5f248b7b1bde03086270bd37,62bbfa016e6855b2c603359f,2022-06-29_09h06.54.721,Colour_Asymmetry_Pilot,2022.1.3,Win32,60.00960154,62bbe60bf3d75ef465d3e404,,,,,,,,,,,,,,,,,,,,,,,,,,,,,,,,,,,,,,,,,,,,,,,,,,,,,,,,,,,,,,,,,,,,,,,,,,,,,,,,,,,,,,,,,,,,,,,,,,,,,,,,,,,,,,,,,,,,,,,,,,,,,,,,,,,,,,,,,,,,,,,,,,,,,,,,,,,,,,
0,34,34,44,1,,5f248b7b1bde03086270bd37,62bbfa016e6855b2c603359f,2022-06-29_09h06.54.721,Colour_Asymmetry_Pilot,2022.1.3,Win32,60.00960154,62bbe60bf3d75ef465d3e404,,,,,,,,,,,,,,,,,,,,,,,,,,,,,,,,,,,,,,,,,,,,,,,,,,,,,,,,,,,,,,,,,,,,,,,,,,,,,,,,,,,,,,,,,,,,,,,,,,,,,,,,,,,,,,,,,,,,,,,,,,,,,,,,,,,,,,,,,,,,,,,,,,,,,,,,,,,,,,
0,35,35,27,1,,5f248b7b1bde03086270bd37,62bbfa016e6855b2c603359f,2022-06-29_09h06.54.721,Colour_Asymmetry_Pilot,2022.1.3,Win32,60.00960154,62bbe60bf3d75ef465d3e404,,,,,,,,,,,,,,,,,,,,,,,,,,,,,,,,,,,,,,,,,,,,,,,,,,,,,,,,,,,,,,,,,,,,,,,,,,,,,,,,,,,,,,,,,,,,,,,,,,,,,,,,,,,,,,,,,,,,,,,,,,,,,,,,,,,,,,,,,,,,,,,,,,,,,,,,,,,,,,
0,36,36,1,1,,5f248b7b1bde03086270bd37,62bbfa016e6855b2c603359f,2022-06-29_09h06.54.721,Colour_Asymmetry_Pilot,2022.1.3,Win32,60.00960154,62bbe60bf3d75ef465d3e404,,,,,,,,,,,,,,,,,,,,,,,,,,,,,,,,,,,,,,,,,,,,,,,,,,,,,,,,,,,,,,,,,,,,,,,,,,,,,,,,,,,,,,,,,,,,,,,,,,,,,,,,,,,,,,,,,,,,,,,,,,,,,,,,,,,,,,,,,,,,,,,,,,,,,,,,,,,,,,
0,37,37,81,1,,5f248b7b1bde03086270bd37,62bbfa016e6855b2c603359f,2022-06-29_09h06.54.721,Colour_Asymmetry_Pilot,2022.1.3,Win32,60.00960154,62bbe60bf3d75ef465d3e404,,,,,,,,,,,,,,,,,,,,,,,,,,,,,,,,,,,,,,,,,,,,,,,,,,,,,,,,,,,,,,,,,,,,,,,,,,,,,,,,,,,,,,,,,,,,,,,,,,,,,,,,,,,,,,,,,,,,,,,,,,,,,,,,,,,,,,,,,,,,,,,,,,,,,,,,,,,,,,
0,38,38,6,1,,5f248b7b1bde03086270bd37,62bbfa016e6855b2c603359f,2022-06-29_09h06.54.721,Colour_Asymmetry_Pilot,2022.1.3,Win32,60.00960154,62bbe60bf3d75ef465d3e404,,,,,,,,,,,,,,,,,,,,,,,,,,,,,,,,,,,,,,,,,,,,,,,,,,,,,,,,,,,,,,,,,,,,,,,,,,,,,,,,,,,,,,,,,,,,,,,,,,,,,,,,,,,,,,,,,,,,,,,,,,,,,,,,,,,,,,,,,,,,,,,,,,,,,,,,,,,,,,
0,39,39,29,1,,5f248b7b1bde03086270bd37,62bbfa016e6855b2c603359f,2022-06-29_09h06.54.721,Colour_Asymmetry_Pilot,2022.1.3,Win32,60.00960154,62bbe60bf3d75ef465d3e404,,,,,,,,,,,,,,,,,,,,,,,,,,,,,,,,,,,,,,,,,,,,,,,,,,,,,,,,,,,,,,,,,,,,,,,,,,,,,,,,,,,,,,,,,,,,,,,,,,,,,,,,,,,,,,,,,,,,,,,,,,,,,,,,,,,,,,,,,,,,,,,,,,,,,,,,,,,,,,
0,40,40,2,1,,5f248b7b1bde03086270bd37,62bbfa016e6855b2c603359f,2022-06-29_09h06.54.721,Colour_Asymmetry_Pilot,2022.1.3,Win32,60.00960154,62bbe60bf3d75ef465d3e404,,,,,,,,,,,,,,,,,,,,,,,,,,,,,,,,,,,,,,,,,,,,,,,,,,,,,,,,,,,,,,,,,,,,,,,,,,,,,,,,,,,,,,,,,,,,,,,,,,,,,,,,,,,,,,,,,,,,,,,,,,,,,,,,,,,,,,,,,,,,,,,,,,,,,,,,,,,,,,
0,41,41,40,1,,5f248b7b1bde03086270bd37,62bbfa016e6855b2c603359f,2022-06-29_09h06.54.721,Colour_Asymmetry_Pilot,2022.1.3,Win32,60.00960154,62bbe60bf3d75ef465d3e404,,,,,,,,,,,,,,,,,,,,,,,,,,,,,,,,,,,,,,,,,,,,,,,,,,,,,,,,,,,,,,,,,,,,,,,,,,,,,,,,,,,,,,,,,,,,,,,,,,,,,,,,,,,,,,,,,,,,,,,,,,,,,,,,,,,,,,,,,,,,,,,,,,,,,,,,,,,,,,
0,42,42,15,1,,5f248b7b1bde03086270bd37,62bbfa016e6855b2c603359f,2022-06-29_09h06.54.721,Colour_Asymmetry_Pilot,2022.1.3,Win32,60.00960154,62bbe60bf3d75ef465d3e404,,,,,,,,,,,,,,,,,,,,,,,,,,,,,,,,,,,,,,,,,,,,,,,,,,,,,,,,,,,,,,,,,,,,,,,,,,,,,,,,,,,,,,,,,,,,,,,,,,,,,,,,,,,,,,,,,,,,,,,,,,,,,,,,,,,,,,,,,,,,,,,,,,,,,,,,,,,,,,
0,43,43,87,1,,5f248b7b1bde03086270bd37,62bbfa016e6855b2c603359f,2022-06-29_09h06.54.721,Colour_Asymmetry_Pilot,2022.1.3,Win32,60.00960154,62bbe60bf3d75ef465d3e404,,,,,,,,,,,,,,,,,,,,,,,,,,,,,,,,,,,,,,,,,,,,,,,,,,,,,,,,,,,,,,,,,,,,,,,,,,,,,,,,,,,,,,,,,,,,,,,,,,,,,,,,,,,,,,,,,,,,,,,,,,,,,,,,,,,,,,,,,,,,,,,,,,,,,,,,,,,,,,
0,44,44,72,1,,5f248b7b1bde03086270bd37,62bbfa016e6855b2c603359f,2022-06-29_09h06.54.721,Colour_Asymmetry_Pilot,2022.1.3,Win32,60.00960154,62bbe60bf3d75ef465d3e404,,,,,,,,,,,,,,,,,,,,,,,,,,,,,,,,,,,,,,,,,,,,,,,,,,,,,,,,,,,,,,,,,,,,,,,,,,,,,,,,,,,,,,,,,,,,,,,,,,,,,,,,,,,,,,,,,,,,,,,,,,,,,,,,,,,,,,,,,,,,,,,,,,,,,,,,,,,,,,
0,45,45,17,1,,5f248b7b1bde03086270bd37,62bbfa016e6855b2c603359f,2022-06-29_09h06.54.721,Colour_Asymmetry_Pilot,2022.1.3,Win32,60.00960154,62bbe60bf3d75ef465d3e404,,,,,,,,,,,,,,,,,,,,,,,,,,,,,,,,,,,,,,,,,,,,,,,,,,,,,,,,,,,,,,,,,,,,,,,,,,,,,,,,,,,,,,,,,,,,,,,,,,,,,,,,,,,,,,,,,,,,,,,,,,,,,,,,,,,,,,,,,,,,,,,,,,,,,,,,,,,,,,
0,46,46,79,1,,5f248b7b1bde03086270bd37,62bbfa016e6855b2c603359f,2022-06-29_09h06.54.721,Colour_Asymmetry_Pilot,2022.1.3,Win32,60.00960154,62bbe60bf3d75ef465d3e404,,,,,,,,,,,,,,,,,,,,,,,,,,,,,,,,,,,,,,,,,,,,,,,,,,,,,,,,,,,,,,,,,,,,,,,,,,,,,,,,,,,,,,,,,,,,,,,,,,,,,,,,,,,,,,,,,,,,,,,,,,,,,,,,,,,,,,,,,,,,,,,,,,,,,,,,,,,,,,
0,47,47,45,1,,5f248b7b1bde03086270bd37,62bbfa016e6855b2c603359f,2022-06-29_09h06.54.721,Colour_Asymmetry_Pilot,2022.1.3,Win32,60.00960154,62bbe60bf3d75ef465d3e404,,,,,,,,,,,,,,,,,,,,,,,,,,,,,,,,,,,,,,,,,,,,,,,,,,,,,,,,,,,,,,,,,,,,,,,,,,,,,,,,,,,,,,,,,,,,,,,,,,,,,,,,,,,,,,,,,,,,,,,,,,,,,,,,,,,,,,,,,,,,,,,,,,,,,,,,,,,,,,
0,48,48,63,1,,5f248b7b1bde03086270bd37,62bbfa016e6855b2c603359f,2022-06-29_09h06.54.721,Colour_Asymmetry_Pilot,2022.1.3,Win32,60.00960154,62bbe60bf3d75ef465d3e404,,,,,,,,,,,,,,,,,,,,,,,,,,,,,,,,,,,,,,,,,,,,,,,,,,,,,,,,,,,,,,,,,,,,,,,,,,,,,,,,,,,,,,,,,,,,,,,,,,,,,,,,,,,,,,,,,,,,,,,,,,,,,,,,,,,,,,,,,,,,,,,,,,,,,,,,,,,,,,
0,49,49,53,1,,5f248b7b1bde03086270bd37,62bbfa016e6855b2c603359f,2022-06-29_09h06.54.721,Colour_Asymmetry_Pilot,2022.1.3,Win32,60.00960154,62bbe60bf3d75ef465d3e404,,,,,,,,,,,,,,,,,,,,,,,,,,,,,,,,,,,,,,,,,,,,,,,,,,,,,,,,,,,,,,,,,,,,,,,,,,,,,,,,,,,,,,,,,,,,,,,,,,,,,,,,,,,,,,,,,,,,,,,,,,,,,,,,,,,,,,,,,,,,,,,,,,,,,,,,,,,,,,
0,50,50,5,1,,5f248b7b1bde03086270bd37,62bbfa016e6855b2c603359f,2022-06-29_09h06.54.721,Colour_Asymmetry_Pilot,2022.1.3,Win32,60.00960154,62bbe60bf3d75ef465d3e404,,,,,,,,,,,,,,,,,,,,,,,,,,,,,,,,,,,,,,,,,,,,,,,,,,,,,,,,,,,,,,,,,,,,,,,,,,,,,,,,,,,,,,,,,,,,,,,,,,,,,,,,,,,,,,,,,,,,,,,,,,,,,,,,,,,,,,,,,,,,,,,,,,,,,,,,,,,,,,
0,51,51,24,1,,5f248b7b1bde03086270bd37,62bbfa016e6855b2c603359f,2022-06-29_09h06.54.721,Colour_Asymmetry_Pilot,2022.1.3,Win32,60.00960154,62bbe60bf3d75ef465d3e404,,,,,,,,,,,,,,,,,,,,,,,,,,,,,,,,,,,,,,,,,,,,,,,,,,,,,,,,,,,,,,,,,,,,,,,,,,,,,,,,,,,,,,,,,,,,,,,,,,,,,,,,,,,,,,,,,,,,,,,,,,,,,,,,,,,,,,,,,,,,,,,,,,,,,,,,,,,,,,
0,52,52,26,1,,5f248b7b1bde03086270bd37,62bbfa016e6855b2c603359f,2022-06-29_09h06.54.721,Colour_Asymmetry_Pilot,2022.1.3,Win32,60.00960154,62bbe60bf3d75ef465d3e404,,,,,,,,,,,,,,,,,,,,,,,,,,,,,,,,,,,,,,,,,,,,,,,,,,,,,,,,,,,,,,,,,,,,,,,,,,,,,,,,,,,,,,,,,,,,,,,,,,,,,,,,,,,,,,,,,,,,,,,,,,,,,,,,,,,,,,,,,,,,,,,,,,,,,,,,,,,,,,
0,53,53,65,1,,5f248b7b1bde03086270bd37,62bbfa016e6855b2c603359f,2022-06-29_09h06.54.721,Colour_Asymmetry_Pilot,2022.1.3,Win32,60.00960154,62bbe60bf3d75ef465d3e404,,,,,,,,,,,,,,,,,,,,,,,,,,,,,,,,,,,,,,,,,,,,,,,,,,,,,,,,,,,,,,,,,,,,,,,,,,,,,,,,,,,,,,,,,,,,,,,,,,,,,,,,,,,,,,,,,,,,,,,,,,,,,,,,,,,,,,,,,,,,,,,,,,,,,,,,,,,,,,
0,54,54,49,1,,5f248b7b1bde03086270bd37,62bbfa016e6855b2c603359f,2022-06-29_09h06.54.721,Colour_Asymmetry_Pilot,2022.1.3,Win32,60.00960154,62bbe60bf3d75ef465d3e404,,,,,,,,,,,,,,,,,,,,,,,,,,,,,,,,,,,,,,,,,,,,,,,,,,,,,,,,,,,,,,,,,,,,,,,,,,,,,,,,,,,,,,,,,,,,,,,,,,,,,,,,,,,,,,,,,,,,,,,,,,,,,,,,,,,,,,,,,,,,,,,,,,,,,,,,,,,,,,
0,55,55,32,1,,5f248b7b1bde03086270bd37,62bbfa016e6855b2c603359f,2022-06-29_09h06.54.721,Colour_Asymmetry_Pilot,2022.1.3,Win32,60.00960154,62bbe60bf3d75ef465d3e404,,,,,,,,,,,,,,,,,,,,,,,,,,,,,,,,,,,,,,,,,,,,,,,,,,,,,,,,,,,,,,,,,,,,,,,,,,,,,,,,,,,,,,,,,,,,,,,,,,,,,,,,,,,,,,,,,,,,,,,,,,,,,,,,,,,,,,,,,,,,,,,,,,,,,,,,,,,,,,
0,56,56,12,1,,5f248b7b1bde03086270bd37,62bbfa016e6855b2c603359f,2022-06-29_09h06.54.721,Colour_Asymmetry_Pilot,2022.1.3,Win32,60.00960154,62bbe60bf3d75ef465d3e404,,,,,,,,,,,,,,,,,,,,,,,,,,,,,,,,,,,,,,,,,,,,,,,,,,,,,,,,,,,,,,,,,,,,,,,,,,,,,,,,,,,,,,,,,,,,,,,,,,,,,,,,,,,,,,,,,,,,,,,,,,,,,,,,,,,,,,,,,,,,,,,,,,,,,,,,,,,,,,
0,57,57,62,1,,5f248b7b1bde03086270bd37,62bbfa016e6855b2c603359f,2022-06-29_09h06.54.721,Colour_Asymmetry_Pilot,2022.1.3,Win32,60.00960154,62bbe60bf3d75ef465d3e404,,,,,,,,,,,,,,,,,,,,,,,,,,,,,,,,,,,,,,,,,,,,,,,,,,,,,,,,,,,,,,,,,,,,,,,,,,,,,,,,,,,,,,,,,,,,,,,,,,,,,,,,,,,,,,,,,,,,,,,,,,,,,,,,,,,,,,,,,,,,,,,,,,,,,,,,,,,,,,
0,58,58,37,1,,5f248b7b1bde03086270bd37,62bbfa016e6855b2c603359f,2022-06-29_09h06.54.721,Colour_Asymmetry_Pilot,2022.1.3,Win32,60.00960154,62bbe60bf3d75ef465d3e404,,,,,,,,,,,,,,,,,,,,,,,,,,,,,,,,,,,,,,,,,,,,,,,,,,,,,,,,,,,,,,,,,,,,,,,,,,,,,,,,,,,,,,,,,,,,,,,,,,,,,,,,,,,,,,,,,,,,,,,,,,,,,,,,,,,,,,,,,,,,,,,,,,,,,,,,,,,,,,
0,59,59,92,1,,5f248b7b1bde03086270bd37,62bbfa016e6855b2c603359f,2022-06-29_09h06.54.721,Colour_Asymmetry_Pilot,2022.1.3,Win32,60.00960154,62bbe60bf3d75ef465d3e404,,,,,,,,,,,,,,,,,,,,,,,,,,,,,,,,,,,,,,,,,,,,,,,,,,,,,,,,,,,,,,,,,,,,,,,,,,,,,,,,,,,,,,,,,,,,,,,,,,,,,,,,,,,,,,,,,,,,,,,,,,,,,,,,,,,,,,,,,,,,,,,,,,,,,,,,,,,,,,
0,60,60,3,1,,5f248b7b1bde03086270bd37,62bbfa016e6855b2c603359f,2022-06-29_09h06.54.721,Colour_Asymmetry_Pilot,2022.1.3,Win32,60.00960154,62bbe60bf3d75ef465d3e404,,,,,,,,,,,,,,,,,,,,,,,,,,,,,,,,,,,,,,,,,,,,,,,,,,,,,,,,,,,,,,,,,,,,,,,,,,,,,,,,,,,,,,,,,,,,,,,,,,,,,,,,,,,,,,,,,,,,,,,,,,,,,,,,,,,,,,,,,,,,,,,,,,,,,,,,,,,,,,
0,61,61,77,1,,5f248b7b1bde03086270bd37,62bbfa016e6855b2c603359f,2022-06-29_09h06.54.721,Colour_Asymmetry_Pilot,2022.1.3,Win32,60.00960154,62bbe60bf3d75ef465d3e404,,,,,,,,,,,,,,,,,,,,,,,,,,,,,,,,,,,,,,,,,,,,,,,,,,,,,,,,,,,,,,,,,,,,,,,,,,,,,,,,,,,,,,,,,,,,,,,,,,,,,,,,,,,,,,,,,,,,,,,,,,,,,,,,,,,,,,,,,,,,,,,,,,,,,,,,,,,,,,
0,62,62,4,1,,5f248b7b1bde03086270bd37,62bbfa016e6855b2c603359f,2022-06-29_09h06.54.721,Colour_Asymmetry_Pilot,2022.1.3,Win32,60.00960154,62bbe60bf3d75ef465d3e404,,,,,,,,,,,,,,,,,,,,,,,,,,,,,,,,,,,,,,,,,,,,,,,,,,,,,,,,,,,,,,,,,,,,,,,,,,,,,,,,,,,,,,,,,,,,,,,,,,,,,,,,,,,,,,,,,,,,,,,,,,,,,,,,,,,,,,,,,,,,,,,,,,,,,,,,,,,,,,
0,63,63,70,1,,5f248b7b1bde03086270bd37,62bbfa016e6855b2c603359f,2022-06-29_09h06.54.721,Colour_Asymmetry_Pilot,2022.1.3,Win32,60.00960154,62bbe60bf3d75ef465d3e404,,,,,,,,,,,,,,,,,,,,,,,,,,,,,,,,,,,,,,,,,,,,,,,,,,,,,,,,,,,,,,,,,,,,,,,,,,,,,,,,,,,,,,,,,,,,,,,,,,,,,,,,,,,,,,,,,,,,,,,,,,,,,,,,,,,,,,,,,,,,,,,,,,,,,,,,,,,,,,
0,64,64,43,1,,5f248b7b1bde03086270bd37,62bbfa016e6855b2c603359f,2022-06-29_09h06.54.721,Colour_Asymmetry_Pilot,2022.1.3,Win32,60.00960154,62bbe60bf3d75ef465d3e404,,,,,,,,,,,,,,,,,,,,,,,,,,,,,,,,,,,,,,,,,,,,,,,,,,,,,,,,,,,,,,,,,,,,,,,,,,,,,,,,,,,,,,,,,,,,,,,,,,,,,,,,,,,,,,,,,,,,,,,,,,,,,,,,,,,,,,,,,,,,,,,,,,,,,,,,,,,,,,
0,65,65,69,1,,5f248b7b1bde03086270bd37,62bbfa016e6855b2c603359f,2022-06-29_09h06.54.721,Colour_Asymmetry_Pilot,2022.1.3,Win32,60.00960154,62bbe60bf3d75ef465d3e404,,,,,,,,,,,,,,,,,,,,,,,,,,,,,,,,,,,,,,,,,,,,,,,,,,,,,,,,,,,,,,,,,,,,,,,,,,,,,,,,,,,,,,,,,,,,,,,,,,,,,,,,,,,,,,,,,,,,,,,,,,,,,,,,,,,,,,,,,,,,,,,,,,,,,,,,,,,,,,
0,66,66,8,1,,5f248b7b1bde03086270bd37,62bbfa016e6855b2c603359f,2022-06-29_09h06.54.721,Colour_Asymmetry_Pilot,2022.1.3,Win32,60.00960154,62bbe60bf3d75ef465d3e404,,,,,,,,,,,,,,,,,,,,,,,,,,,,,,,,,,,,,,,,,,,,,,,,,,,,,,,,,,,,,,,,,,,,,,,,,,,,,,,,,,,,,,,,,,,,,,,,,,,,,,,,,,,,,,,,,,,,,,,,,,,,,,,,,,,,,,,,,,,,,,,,,,,,,,,,,,,,,,
0,67,67,56,1,,5f248b7b1bde03086270bd37,62bbfa016e6855b2c603359f,2022-06-29_09h06.54.721,Colour_Asymmetry_Pilot,2022.1.3,Win32,60.00960154,62bbe60bf3d75ef465d3e404,,,,,,,,,,,,,,,,,,,,,,,,,,,,,,,,,,,,,,,,,,,,,,,,,,,,,,,,,,,,,,,,,,,,,,,,,,,,,,,,,,,,,,,,,,,,,,,,,,,,,,,,,,,,,,,,,,,,,,,,,,,,,,,,,,,,,,,,,,,,,,,,,,,,,,,,,,,,,,
0,68,68,76,1,,5f248b7b1bde03086270bd37,62bbfa016e6855b2c603359f,2022-06-29_09h06.54.721,Colour_Asymmetry_Pilot,2022.1.3,Win32,60.00960154,62bbe60bf3d75ef465d3e404,,,,,,,,,,,,,,,,,,,,,,,,,,,,,,,,,,,,,,,,,,,,,,,,,,,,,,,,,,,,,,,,,,,,,,,,,,,,,,,,,,,,,,,,,,,,,,,,,,,,,,,,,,,,,,,,,,,,,,,,,,,,,,,,,,,,,,,,,,,,,,,,,,,,,,,,,,,,,,
0,69,69,84,1,,5f248b7b1bde03086270bd37,62bbfa016e6855b2c603359f,2022-06-29_09h06.54.721,Colour_Asymmetry_Pilot,2022.1.3,Win32,60.00960154,62bbe60bf3d75ef465d3e404,,,,,,,,,,,,,,,,,,,,,,,,,,,,,,,,,,,,,,,,,,,,,,,,,,,,,,,,,,,,,,,,,,,,,,,,,,,,,,,,,,,,,,,,,,,,,,,,,,,,,,,,,,,,,,,,,,,,,,,,,,,,,,,,,,,,,,,,,,,,,,,,,,,,,,,,,,,,,,
0,70,70,88,1,,5f248b7b1bde03086270bd37,62bbfa016e6855b2c603359f,2022-06-29_09h06.54.721,Colour_Asymmetry_Pilot,2022.1.3,Win32,60.00960154,62bbe60bf3d75ef465d3e404,,,,,,,,,,,,,,,,,,,,,,,,,,,,,,,,,,,,,,,,,,,,,,,,,,,,,,,,,,,,,,,,,,,,,,,,,,,,,,,,,,,,,,,,,,,,,,,,,,,,,,,,,,,,,,,,,,,,,,,,,,,,,,,,,,,,,,,,,,,,,,,,,,,,,,,,,,,,,,
0,71,71,33,1,,5f248b7b1bde03086270bd37,62bbfa016e6855b2c603359f,2022-06-29_09h06.54.721,Colour_Asymmetry_Pilot,2022.1.3,Win32,60.00960154,62bbe60bf3d75ef465d3e404,,,,,,,,,,,,,,,,,,,,,,,,,,,,,,,,,,,,,,,,,,,,,,,,,,,,,,,,,,,,,,,,,,,,,,,,,,,,,,,,,,,,,,,,,,,,,,,,,,,,,,,,,,,,,,,,,,,,,,,,,,,,,,,,,,,,,,,,,,,,,,,,,,,,,,,,,,,,,,
0,72,72,31,1,,5f248b7b1bde03086270bd37,62bbfa016e6855b2c603359f,2022-06-29_09h06.54.721,Colour_Asymmetry_Pilot,2022.1.3,Win32,60.00960154,62bbe60bf3d75ef465d3e404,,,,,,,,,,,,,,,,,,,,,,,,,,,,,,,,,,,,,,,,,,,,,,,,,,,,,,,,,,,,,,,,,,,,,,,,,,,,,,,,,,,,,,,,,,,,,,,,,,,,,,,,,,,,,,,,,,,,,,,,,,,,,,,,,,,,,,,,,,,,,,,,,,,,,,,,,,,,,,
0,73,73,71,1,,5f248b7b1bde03086270bd37,62bbfa016e6855b2c603359f,2022-06-29_09h06.54.721,Colour_Asymmetry_Pilot,2022.1.3,Win32,60.00960154,62bbe60bf3d75ef465d3e404,,,,,,,,,,,,,,,,,,,,,,,,,,,,,,,,,,,,,,,,,,,,,,,,,,,,,,,,,,,,,,,,,,,,,,,,,,,,,,,,,,,,,,,,,,,,,,,,,,,,,,,,,,,,,,,,,,,,,,,,,,,,,,,,,,,,,,,,,,,,,,,,,,,,,,,,,,,,,,
0,74,74,7,1,,5f248b7b1bde03086270bd37,62bbfa016e6855b2c603359f,2022-06-29_09h06.54.721,Colour_Asymmetry_Pilot,2022.1.3,Win32,60.00960154,62bbe60bf3d75ef465d3e404,,,,,,,,,,,,,,,,,,,,,,,,,,,,,,,,,,,,,,,,,,,,,,,,,,,,,,,,,,,,,,,,,,,,,,,,,,,,,,,,,,,,,,,,,,,,,,,,,,,,,,,,,,,,,,,,,,,,,,,,,,,,,,,,,,,,,,,,,,,,,,,,,,,,,,,,,,,,,,
0,75,75,68,1,,5f248b7b1bde03086270bd37,62bbfa016e6855b2c603359f,2022-06-29_09h06.54.721,Colour_Asymmetry_Pilot,2022.1.3,Win32,60.00960154,62bbe60bf3d75ef465d3e404,,,,,,,,,,,,,,,,,,,,,,,,,,,,,,,,,,,,,,,,,,,,,,,,,,,,,,,,,,,,,,,,,,,,,,,,,,,,,,,,,,,,,,,,,,,,,,,,,,,,,,,,,,,,,,,,,,,,,,,,,,,,,,,,,,,,,,,,,,,,,,,,,,,,,,,,,,,,,,
0,76,76,18,1,,5f248b7b1bde03086270bd37,62bbfa016e6855b2c603359f,2022-06-29_09h06.54.721,Colour_Asymmetry_Pilot,2022.1.3,Win32,60.00960154,62bbe60bf3d75ef465d3e404,,,,,,,,,,,,,,,,,,,,,,,,,,,,,,,,,,,,,,,,,,,,,,,,,,,,,,,,,,,,,,,,,,,,,,,,,,,,,,,,,,,,,,,,,,,,,,,,,,,,,,,,,,,,,,,,,,,,,,,,,,,,,,,,,,,,,,,,,,,,,,,,,,,,,,,,,,,,,,
0,77,77,78,1,,5f248b7b1bde03086270bd37,62bbfa016e6855b2c603359f,2022-06-29_09h06.54.721,Colour_Asymmetry_Pilot,2022.1.3,Win32,60.00960154,62bbe60bf3d75ef465d3e404,,,,,,,,,,,,,,,,,,,,,,,,,,,,,,,,,,,,,,,,,,,,,,,,,,,,,,,,,,,,,,,,,,,,,,,,,,,,,,,,,,,,,,,,,,,,,,,,,,,,,,,,,,,,,,,,,,,,,,,,,,,,,,,,,,,,,,,,,,,,,,,,,,,,,,,,,,,,,,
0,78,78,90,1,,5f248b7b1bde03086270bd37,62bbfa016e6855b2c603359f,2022-06-29_09h06.54.721,Colour_Asymmetry_Pilot,2022.1.3,Win32,60.00960154,62bbe60bf3d75ef465d3e404,,,,,,,,,,,,,,,,,,,,,,,,,,,,,,,,,,,,,,,,,,,,,,,,,,,,,,,,,,,,,,,,,,,,,,,,,,,,,,,,,,,,,,,,,,,,,,,,,,,,,,,,,,,,,,,,,,,,,,,,,,,,,,,,,,,,,,,,,,,,,,,,,,,,,,,,,,,,,,
0,79,79,54,1,,5f248b7b1bde03086270bd37,62bbfa016e6855b2c603359f,2022-06-29_09h06.54.721,Colour_Asymmetry_Pilot,2022.1.3,Win32,60.00960154,62bbe60bf3d75ef465d3e404,,,,,,,,,,,,,,,,,,,,,,,,,,,,,,,,,,,,,,,,,,,,,,,,,,,,,,,,,,,,,,,,,,,,,,,,,,,,,,,,,,,,,,,,,,,,,,,,,,,,,,,,,,,,,,,,,,,,,,,,,,,,,,,,,,,,,,,,,,,,,,,,,,,,,,,,,,,,,,
0,80,80,46,1,,5f248b7b1bde03086270bd37,62bbfa016e6855b2c603359f,2022-06-29_09h06.54.721,Colour_Asymmetry_Pilot,2022.1.3,Win32,60.00960154,62bbe60bf3d75ef465d3e404,,,,,,,,,,,,,,,,,,,,,,,,,,,,,,,,,,,,,,,,,,,,,,,,,,,,,,,,,,,,,,,,,,,,,,,,,,,,,,,,,,,,,,,,,,,,,,,,,,,,,,,,,,,,,,,,,,,,,,,,,,,,,,,,,,,,,,,,,,,,,,,,,,,,,,,,,,,,,,
0,81,81,82,1,,5f248b7b1bde03086270bd37,62bbfa016e6855b2c603359f,2022-06-29_09h06.54.721,Colour_Asymmetry_Pilot,2022.1.3,Win32,60.00960154,62bbe60bf3d75ef465d3e404,,,,,,,,,,,,,,,,,,,,,,,,,,,,,,,,,,,,,,,,,,,,,,,,,,,,,,,,,,,,,,,,,,,,,,,,,,,,,,,,,,,,,,,,,,,,,,,,,,,,,,,,,,,,,,,,,,,,,,,,,,,,,,,,,,,,,,,,,,,,,,,,,,,,,,,,,,,,,,
0,82,82,80,1,,5f248b7b1bde03086270bd37,62bbfa016e6855b2c603359f,2022-06-29_09h06.54.721,Colour_Asymmetry_Pilot,2022.1.3,Win32,60.00960154,62bbe60bf3d75ef465d3e404,,,,,,,,,,,,,,,,,,,,,,,,,,,,,,,,,,,,,,,,,,,,,,,,,,,,,,,,,,,,,,,,,,,,,,,,,,,,,,,,,,,,,,,,,,,,,,,,,,,,,,,,,,,,,,,,,,,,,,,,,,,,,,,,,,,,,,,,,,,,,,,,,,,,,,,,,,,,,,
0,83,83,23,1,,5f248b7b1bde03086270bd37,62bbfa016e6855b2c603359f,2022-06-29_09h06.54.721,Colour_Asymmetry_Pilot,2022.1.3,Win32,60.00960154,62bbe60bf3d75ef465d3e404,,,,,,,,,,,,,,,,,,,,,,,,,,,,,,,,,,,,,,,,,,,,,,,,,,,,,,,,,,,,,,,,,,,,,,,,,,,,,,,,,,,,,,,,,,,,,,,,,,,,,,,,,,,,,,,,,,,,,,,,,,,,,,,,,,,,,,,,,,,,,,,,,,,,,,,,,,,,,,
0,84,84,50,1,,5f248b7b1bde03086270bd37,62bbfa016e6855b2c603359f,2022-06-29_09h06.54.721,Colour_Asymmetry_Pilot,2022.1.3,Win32,60.00960154,62bbe60bf3d75ef465d3e404,,,,,,,,,,,,,,,,,,,,,,,,,,,,,,,,,,,,,,,,,,,,,,,,,,,,,,,,,,,,,,,,,,,,,,,,,,,,,,,,,,,,,,,,,,,,,,,,,,,,,,,,,,,,,,,,,,,,,,,,,,,,,,,,,,,,,,,,,,,,,,,,,,,,,,,,,,,,,,
0,85,85,21,1,,5f248b7b1bde03086270bd37,62bbfa016e6855b2c603359f,2022-06-29_09h06.54.721,Colour_Asymmetry_Pilot,2022.1.3,Win32,60.00960154,62bbe60bf3d75ef465d3e404,,,,,,,,,,,,,,,,,,,,,,,,,,,,,,,,,,,,,,,,,,,,,,,,,,,,,,,,,,,,,,,,,,,,,,,,,,,,,,,,,,,,,,,,,,,,,,,,,,,,,,,,,,,,,,,,,,,,,,,,,,,,,,,,,,,,,,,,,,,,,,,,,,,,,,,,,,,,,,
0,86,86,39,1,,5f248b7b1bde03086270bd37,62bbfa016e6855b2c603359f,2022-06-29_09h06.54.721,Colour_Asymmetry_Pilot,2022.1.3,Win32,60.00960154,62bbe60bf3d75ef465d3e404,,,,,,,,,,,,,,,,,,,,,,,,,,,,,,,,,,,,,,,,,,,,,,,,,,,,,,,,,,,,,,,,,,,,,,,,,,,,,,,,,,,,,,,,,,,,,,,,,,,,,,,,,,,,,,,,,,,,,,,,,,,,,,,,,,,,,,,,,,,,,,,,,,,,,,,,,,,,,,
0,87,87,74,1,,5f248b7b1bde03086270bd37,62bbfa016e6855b2c603359f,2022-06-29_09h06.54.721,Colour_Asymmetry_Pilot,2022.1.3,Win32,60.00960154,62bbe60bf3d75ef465d3e404,,,,,,,,,,,,,,,,,,,,,,,,,,,,,,,,,,,,,,,,,,,,,,,,,,,,,,,,,,,,,,,,,,,,,,,,,,,,,,,,,,,,,,,,,,,,,,,,,,,,,,,,,,,,,,,,,,,,,,,,,,,,,,,,,,,,,,,,,,,,,,,,,,,,,,,,,,,,,,
0,88,88,30,1,,5f248b7b1bde03086270bd37,62bbfa016e6855b2c603359f,2022-06-29_09h06.54.721,Colour_Asymmetry_Pilot,2022.1.3,Win32,60.00960154,62bbe60bf3d75ef465d3e404,,,,,,,,,,,,,,,,,,,,,,,,,,,,,,,,,,,,,,,,,,,,,,,,,,,,,,,,,,,,,,,,,,,,,,,,,,,,,,,,,,,,,,,,,,,,,,,,,,,,,,,,,,,,,,,,,,,,,,,,,,,,,,,,,,,,,,,,,,,,,,,,,,,,,,,,,,,,,,
0,89,89,91,1,,5f248b7b1bde03086270bd37,62bbfa016e6855b2c603359f,2022-06-29_09h06.54.721,Colour_Asymmetry_Pilot,2022.1.3,Win32,60.00960154,62bbe60bf3d75ef465d3e404,,,,,,,,,,,,,,,,,,,,,,,,,,,,,,,,,,,,,,,,,,,,,,,,,,,,,,,,,,,,,,,,,,,,,,,,,,,,,,,,,,,,,,,,,,,,,,,,,,,,,,,,,,,,,,,,,,,,,,,,,,,,,,,,,,,,,,,,,,,,,,,,,,,,,,,,,,,,,,
0,90,90,73,1,,5f248b7b1bde03086270bd37,62bbfa016e6855b2c603359f,2022-06-29_09h06.54.721,Colour_Asymmetry_Pilot,2022.1.3,Win32,60.00960154,62bbe60bf3d75ef465d3e404,,,,,,,,,,,,,,,,,,,,,,,,,,,,,,,,,,,,,,,,,,,,,,,,,,,,,,,,,,,,,,,,,,,,,,,,,,,,,,,,,,,,,,,,,,,,,,,,,,,,,,,,,,,,,,,,,,,,,,,,,,,,,,,,,,,,,,,,,,,,,,,,,,,,,,,,,,,,,,
0,91,91,61,1,,5f248b7b1bde03086270bd37,62bbfa016e6855b2c603359f,2022-06-29_09h06.54.721,Colour_Asymmetry_Pilot,2022.1.3,Win32,60.00960154,62bbe60bf3d75ef465d3e404,,,,,,,,,,,,,,,,,,,,,,,,,,,,,,,,,,,,,,,,,,,,,,,,,,,,,,,,,,,,,,,,,,,,,,,,,,,,,,,,,,,,,,,,,,,,,,,,,,,,,,,,,,,,,,,,,,,,,,,,,,,,,,,,,,,,,,,,,,,,,,,,,,,,,,,,,,,,,,
0,92,92,0,1,,5f248b7b1bde03086270bd37,62bbfa016e6855b2c603359f,2022-06-29_09h06.54.721,Colour_Asymmetry_Pilot,2022.1.3,Win32,60.00960154,62bbe60bf3d75ef465d3e404,,,,,,,,,,,,,,,,,,,,,,,,,,,,,,,,,,,,,,,,,,,,,,,,,,,,,,,,,,,,,,,,,,,,,,,,,,,,,,,,,,,,,,,,,,,,,,,,,,,,,,,,,,,,,,,,,,,,,,,,,,,,,,,,,,,,,,,,,,,,,,,,,,,,,,,,,,,,,,
,,,,,,5f248b7b1bde03086270bd37,62bbfa016e6855b2c603359f,2022-06-29_09h06.54.721,Colour_Asymmetry_Pilot,2022.1.3,Win32,60.00960154,62bbe60bf3d75ef465d3e404,0,0,0,107,1,twofour,,,,,,,,,,,,,,,,,,,,,,,,,,,,,,,,,,,,,,,,,,,,,,,,,,,,,,,,,,,,,,,,,,,,,,,,,,,,,,,,,,,,,,,,,,,,,,,,,,,,,,,,,,,,,,,,,,,,,,,,,,,,,,,,,,,,,,,,,,,,,,,,,,,,,,,,
,,,,,,5f248b7b1bde03086270bd37,62bbfa016e6855b2c603359f,2022-06-29_09h06.54.721,Colour_Asymmetry_Pilot,2022.1.3,Win32,60.00960154,62bbe60bf3d75ef465d3e404,0,1,1,27,1,twofour,,,,,,,,,,,,,,,,,,,,,,,,,,,,,,,,,,,,,,,,,,,,,,,,,,,,,,,,,,,,,,,,,,,,,,,,,,,,,,,,,,,,,,,,,,,,,,,,,,,,,,,,,,,,,,,,,,,,,,,,,,,,,,,,,,,,,,,,,,,,,,,,,,,,,,,,
,,,,,,5f248b7b1bde03086270bd37,62bbfa016e6855b2c603359f,2022-06-29_09h06.54.721,Colour_Asymmetry_Pilot,2022.1.3,Win32,60.00960154,62bbe60bf3d75ef465d3e404,0,2,2,1,1,onethree,,,,,,,,,,,,,,,,,,,,,,,,,,,,,,,,,,,,,,,,,,,,,,,,,,,,,,,,,,,,,,,,,,,,,,,,,,,,,,,,,,,,,,,,,,,,,,,,,,,,,,,,,,,,,,,,,,,,,,,,,,,,,,,,,,,,,,,,,,,,,,,,,,,,,,,,
,,,,,,5f248b7b1bde03086270bd37,62bbfa016e6855b2c603359f,2022-06-29_09h06.54.721,Colour_Asymmetry_Pilot,2022.1.3,Win32,60.00960154,62bbe60bf3d75ef465d3e404,0,3,3,0,1,onetwo,,,,,,,,,,,,,,,,,,,,,,,,,,,,,,,,,,,,,,,,,,,,,,,,,,,,,,,,,,,,,,,,,,,,,,,,,,,,,,,,,,,,,,,,,,,,,,,,,,,,,,,,,,,,,,,,,,,,,,,,,,,,,,,,,,,,,,,,,,,,,,,,,,,,,,,,
,,,,,,5f248b7b1bde03086270bd37,62bbfa016e6855b2c603359f,2022-06-29_09h06.54.721,Colour_Asymmetry_Pilot,2022.1.3,Win32,60.00960154,62bbe60bf3d75ef465d3e404,0,4,4,121,1,onethree,,,,,,,,,,,,,,,,,,,,,,,,,,,,,,,,,,,,,,,,,,,,,,,,,,,,,,,,,,,,,,,,,,,,,,,,,,,,,,,,,,,,,,,,,,,,,,,,,,,,,,,,,,,,,,,,,,,,,,,,,,,,,,,,,,,,,,,,,,,,,,,,,,,,,,,,
,,,,,,5f248b7b1bde03086270bd37,62bbfa016e6855b2c603359f,2022-06-29_09h06.54.721,Colour_Asymmetry_Pilot,2022.1.3,Win32,60.00960154,62bbe60bf3d75ef465d3e404,0,5,5,130,1,twoone,,,,,,,,,,,,,,,,,,,,,,,,,,,,,,,,,,,,,,,,,,,,,,,,,,,,,,,,,,,,,,,,,,,,,,,,,,,,,,,,,,,,,,,,,,,,,,,,,,,,,,,,,,,,,,,,,,,,,,,,,,,,,,,,,,,,,,,,,,,,,,,,,,,,,,,,
,,,,,,5f248b7b1bde03086270bd37,62bbfa016e6855b2c603359f,2022-06-29_09h06.54.721,Colour_Asymmetry_Pilot,2022.1.3,Win32,60.00960154,62bbe60bf3d75ef465d3e404,0,6,6,29,1,threefour,,,,,,,,,,,,,,,,,,,,,,,,,,,,,,,,,,,,,,,,,,,,,,,,,,,,,,,,,,,,,,,,,,,,,,,,,,,,,,,,,,,,,,,,,,,,,,,,,,,,,,,,,,,,,,,,,,,,,,,,,,,,,,,,,,,,,,,,,,,,,,,,,,,,,,,,
,,,,,,5f248b7b1bde03086270bd37,62bbfa016e6855b2c603359f,2022-06-29_09h06.54.721,Colour_Asymmetry_Pilot,2022.1.3,Win32,60.00960154,62bbe60bf3d75ef465d3e404,0,7,7,60,1,threeone,,,,,,,,,,,,,,,,,,,,,,,,,,,,,,,,,,,,,,,,,,,,,,,,,,,,,,,,,,,,,,,,,,,,,,,,,,,,,,,,,,,,,,,,,,,,,,,,,,,,,,,,,,,,,,,,,,,,,,,,,,,,,,,,,,,,,,,,,,,,,,,,,,,,,,,,
,,,,,,5f248b7b1bde03086270bd37,62bbfa016e6855b2c603359f,2022-06-29_09h06.54.721,Colour_Asymmetry_Pilot,2022.1.3,Win32,60.00960154,62bbe60bf3d75ef465d3e404,0,8,8,69,1,threefour,,,,,,,,,,,,,,,,,,,,,,,,,,,,,,,,,,,,,,,,,,,,,,,,,,,,,,,,,,,,,,,,,,,,,,,,,,,,,,,,,,,,,,,,,,,,,,,,,,,,,,,,,,,,,,,,,,,,,,,,,,,,,,,,,,,,,,,,,,,,,,,,,,,,,,,,
,,,,,,5f248b7b1bde03086270bd37,62bbfa016e6855b2c603359f,2022-06-29_09h06.54.721,Colour_Asymmetry_Pilot,2022.1.3,Win32,60.00960154,62bbe60bf3d75ef465d3e404,0,9,9,126,1,fourtwo,,,,,,,,,,,,,,,,,,,,,,,,,,,,,,,,,,,,,,,,,,,,,,,,,,,,,,,,,,,,,,,,,,,,,,,,,,,,,,,,,,,,,,,,,,,,,,,,,,,,,,,,,,,,,,,,,,,,,,,,,,,,,,,,,,,,,,,,,,,,,,,,,,,,,,,,
,,,,,,5f248b7b1bde03086270bd37,62bbfa016e6855b2c603359f,2022-06-29_09h06.54.721,Colour_Asymmetry_Pilot,2022.1.3,Win32,60.00960154,62bbe60bf3d75ef465d3e404,0,10,10,37,1,threefour,,,,,,,,,,,,,,,,,,,,,,,,,,,,,,,,,,,,,,,,,,,,,,,,,,,,,,,,,,,,,,,,,,,,,,,,,,,,,,,,,,,,,,,,,,,,,,,,,,,,,,,,,,,,,,,,,,,,,,,,,,,,,,,,,,,,,,,,,,,,,,,,,,,,,,,,
,,,,,,5f248b7b1bde03086270bd37,62bbfa016e6855b2c603359f,2022-06-29_09h06.54.721,Colour_Asymmetry_Pilot,2022.1.3,Win32,60.00960154,62bbe60bf3d75ef465d3e404,0,11,11,58,1,twoone,,,,,,,,,,,,,,,,,,,,,,,,,,,,,,,,,,,,,,,,,,,,,,,,,,,,,,,,,,,,,,,,,,,,,,,,,,,,,,,,,,,,,,,,,,,,,,,,,,,,,,,,,,,,,,,,,,,,,,,,,,,,,,,,,,,,,,,,,,,,,,,,,,,,,,,,
,,,,,,5f248b7b1bde03086270bd37,62bbfa016e6855b2c603359f,2022-06-29_09h06.54.721,Colour_Asymmetry_Pilot,2022.1.3,Win32,60.00960154,62bbe60bf3d75ef465d3e404,0,12,12,122,1,twoone,,,,,,,,,,,,,,,,,,,,,,,,,,,,,,,,,,,,,,,,,,,,,,,,,,,,,,,,,,,,,,,,,,,,,,,,,,,,,,,,,,,,,,,,,,,,,,,,,,,,,,,,,,,,,,,,,,,,,,,,,,,,,,,,,,,,,,,,,,,,,,,,,,,,,,,,
,,,,,,5f248b7b1bde03086270bd37,62bbfa016e6855b2c603359f,2022-06-29_09h06.54.721,Colour_Asymmetry_Pilot,2022.1.3,Win32,60.00960154,62bbe60bf3d75ef465d3e404,0,13,13,11,1,twofour,,,,,,,,,,,,,,,,,,,,,,,,,,,,,,,,,,,,,,,,,,,,,,,,,,,,,,,,,,,,,,,,,,,,,,,,,,,,,,,,,,,,,,,,,,,,,,,,,,,,,,,,,,,,,,,,,,,,,,,,,,,,,,,,,,,,,,,,,,,,,,,,,,,,,,,,
,,,,,,5f248b7b1bde03086270bd37,62bbfa016e6855b2c603359f,2022-06-29_09h06.54.721,Colour_Asymmetry_Pilot,2022.1.3,Win32,60.00960154,62bbe60bf3d75ef465d3e404,0,14,14,101,1,threefour,,,,,,,,,,,,,,,,,,,,,,,,,,,,,,,,,,,,,,,,,,,,,,,,,,,,,,,,,,,,,,,,,,,,,,,,,,,,,,,,,,,,,,,,,,,,,,,,,,,,,,,,,,,,,,,,,,,,,,,,,,,,,,,,,,,,,,,,,,,,,,,,,,,,,,,,
,,,,,,5f248b7b1bde03086270bd37,62bbfa016e6855b2c603359f,2022-06-29_09h06.54.721,Colour_Asymmetry_Pilot,2022.1.3,Win32,60.00960154,62bbe60bf3d75ef465d3e404,0,15,15,81,1,onethree,,,,,,,,,,,,,,,,,,,,,,,,,,,,,,,,,,,,,,,,,,,,,,,,,,,,,,,,,,,,,,,,,,,,,,,,,,,,,,,,,,,,,,,,,,,,,,,,,,,,,,,,,,,,,,,,,,,,,,,,,,,,,,,,,,,,,,,,,,,,,,,,,,,,,,,,
,,,,,,5f248b7b1bde03086270bd37,62bbfa016e6855b2c603359f,2022-06-29_09h06.54.721,Colour_Asymmetry_Pilot,2022.1.3,Win32,60.00960154,62bbe60bf3d75ef465d3e404,0,16,16,116,1,threeone,,,,,,,,,,,,,,,,,,,,,,,,,,,,,,,,,,,,,,,,,,,,,,,,,,,,,,,,,,,,,,,,,,,,,,,,,,,,,,,,,,,,,,,,,,,,,,,,,,,,,,,,,,,,,,,,,,,,,,,,,,,,,,,,,,,,,,,,,,,,,,,,,,,,,,,,
,,,,,,5f248b7b1bde03086270bd37,62bbfa016e6855b2c603359f,2022-06-29_09h06.54.721,Colour_Asymmetry_Pilot,2022.1.3,Win32,60.00960154,62bbe60bf3d75ef465d3e404,0,17,17,34,1,twoone,,,,,,,,,,,,,,,,,,,,,,,,,,,,,,,,,,,,,,,,,,,,,,,,,,,,,,,,,,,,,,,,,,,,,,,,,,,,,,,,,,,,,,,,,,,,,,,,,,,,,,,,,,,,,,,,,,,,,,,,,,,,,,,,,,,,,,,,,,,,,,,,,,,,,,,,
,,,,,,5f248b7b1bde03086270bd37,62bbfa016e6855b2c603359f,2022-06-29_09h06.54.721,Colour_Asymmetry_Pilot,2022.1.3,Win32,60.00960154,62bbe60bf3d75ef465d3e404,0,18,18,87,1,fourthree,,,,,,,,,,,,,,,,,,,,,,,,,,,,,,,,,,,,,,,,,,,,,,,,,,,,,,,,,,,,,,,,,,,,,,,,,,,,,,,,,,,,,,,,,,,,,,,,,,,,,,,,,,,,,,,,,,,,,,,,,,,,,,,,,,,,,,,,,,,,,,,,,,,,,,,,
,,,,,,5f248b7b1bde03086270bd37,62bbfa016e6855b2c603359f,2022-06-29_09h06.54.721,Colour_Asymmetry_Pilot,2022.1.3,Win32,60.00960154,62bbe60bf3d75ef465d3e404,0,19,19,76,1,threeone,,,,,,,,,,,,,,,,,,,,,,,,,,,,,,,,,,,,,,,,,,,,,,,,,,,,,,,,,,,,,,,,,,,,,,,,,,,,,,,,,,,,,,,,,,,,,,,,,,,,,,,,,,,,,,,,,,,,,,,,,,,,,,,,,,,,,,,,,,,,,,,,,,,,,,,,
,,,,,,5f248b7b1bde03086270bd37,62bbfa016e6855b2c603359f,2022-06-29_09h06.54.721,Colour_Asymmetry_Pilot,2022.1.3,Win32,60.00960154,62bbe60bf3d75ef465d3e404,0,20,20,113,1,onethree,,,,,,,,,,,,,,,,,,,,,,,,,,,,,,,,,,,,,,,,,,,,,,,,,,,,,,,,,,,,,,,,,,,,,,,,,,,,,,,,,,,,,,,,,,,,,,,,,,,,,,,,,,,,,,,,,,,,,,,,,,,,,,,,,,,,,,,,,,,,,,,,,,,,,,,,
,,,,,,5f248b7b1bde03086270bd37,62bbfa016e6855b2c603359f,2022-06-29_09h06.54.721,Colour_Asymmetry_Pilot,2022.1.3,Win32,60.00960154,62bbe60bf3d75ef465d3e404,0,21,21,85,1,threefour,,,,,,,,,,,,,,,,,,,,,,,,,,,,,,,,,,,,,,,,,,,,,,,,,,,,,,,,,,,,,,,,,,,,,,,,,,,,,,,,,,,,,,,,,,,,,,,,,,,,,,,,,,,,,,,,,,,,,,,,,,,,,,,,,,,,,,,,,,,,,,,,,,,,,,,,
,,,,,,5f248b7b1bde03086270bd37,62bbfa016e6855b2c603359f,2022-06-29_09h06.54.721,Colour_Asymmetry_Pilot,2022.1.3,Win32,60.00960154,62bbe60bf3d75ef465d3e404,0,22,22,44,1,threeone,,,,,,,,,,,,,,,,,,,,,,,,,,,,,,,,,,,,,,,,,,,,,,,,,,,,,,,,,,,,,,,,,,,,,,,,,,,,,,,,,,,,,,,,,,,,,,,,,,,,,,,,,,,,,,,,,,,,,,,,,,,,,,,,,,,,,,,,,,,,,,,,,,,,,,,,
,,,,,,5f248b7b1bde03086270bd37,62bbfa016e6855b2c603359f,2022-06-29_09h06.54.721,Colour_Asymmetry_Pilot,2022.1.3,Win32,60.00960154,62bbe60bf3d75ef465d3e404,0,23,23,82,1,twoone,,,,,,,,,,,,,,,,,,,,,,,,,,,,,,,,,,,,,,,,,,,,,,,,,,,,,,,,,,,,,,,,,,,,,,,,,,,,,,,,,,,,,,,,,,,,,,,,,,,,,,,,,,,,,,,,,,,,,,,,,,,,,,,,,,,,,,,,,,,,,,,,,,,,,,,,
,,,,,,5f248b7b1bde03086270bd37,62bbfa016e6855b2c603359f,2022-06-29_09h06.54.721,Colour_Asymmetry_Pilot,2022.1.3,Win32,60.00960154,62bbe60bf3d75ef465d3e404,0,24,24,75,1,twofour,,,,,,,,,,,,,,,,,,,,,,,,,,,,,,,,,,,,,,,,,,,,,,,,,,,,,,,,,,,,,,,,,,,,,,,,,,,,,,,,,,,,,,,,,,,,,,,,,,,,,,,,,,,,,,,,,,,,,,,,,,,,,,,,,,,,,,,,,,,,,,,,,,,,,,,,
,,,,,,5f248b7b1bde03086270bd37,62bbfa016e6855b2c603359f,2022-06-29_09h06.54.721,Colour_Asymmetry_Pilot,2022.1.3,Win32,60.00960154,62bbe60bf3d75ef465d3e404,0,25,25,95,1,fourthree,,,,,,,,,,,,,,,,,,,,,,,,,,,,,,,,,,,,,,,,,,,,,,,,,,,,,,,,,,,,,,,,,,,,,,,,,,,,,,,,,,,,,,,,,,,,,,,,,,,,,,,,,,,,,,,,,,,,,,,,,,,,,,,,,,,,,,,,,,,,,,,,,,,,,,,,
,,,,,,5f248b7b1bde03086270bd37,62bbfa016e6855b2c603359f,2022-06-29_09h06.54.721,Colour_Asymmetry_Pilot,2022.1.3,Win32,60.00960154,62bbe60bf3d75ef465d3e404,0,26,26,108,1,threeone,,,,,,,,,,,,,,,,,,,,,,,,,,,,,,,,,,,,,,,,,,,,,,,,,,,,,,,,,,,,,,,,,,,,,,,,,,,,,,,,,,,,,,,,,,,,,,,,,,,,,,,,,,,,,,,,,,,,,,,,,,,,,,,,,,,,,,,,,,,,,,,,,,,,,,,,
,,,,,,5f248b7b1bde03086270bd37,62bbfa016e6855b2c603359f,2022-06-29_09h06.54.721,Colour_Asymmetry_Pilot,2022.1.3,Win32,60.00960154,62bbe60bf3d75ef465d3e404,0,27,27,33,1,onethree,,,,,,,,,,,,,,,,,,,,,,,,,,,,,,,,,,,,,,,,,,,,,,,,,,,,,,,,,,,,,,,,,,,,,,,,,,,,,,,,,,,,,,,,,,,,,,,,,,,,,,,,,,,,,,,,,,,,,,,,,,,,,,,,,,,,,,,,,,,,,,,,,,,,,,,,
,,,,,,5f248b7b1bde03086270bd37,62bbfa016e6855b2c603359f,2022-06-29_09h06.54.721,Colour_Asymmetry_Pilot,2022.1.3,Win32,60.00960154,62bbe60bf3d75ef465d3e404,0,28,28,120,1,onetwo,,,,,,,,,,,,,,,,,,,,,,,,,,,,,,,,,,,,,,,,,,,,,,,,,,,,,,,,,,,,,,,,,,,,,,,,,,,,,,,,,,,,,,,,,,,,,,,,,,,,,,,,,,,,,,,,,,,,,,,,,,,,,,,,,,,,,,,,,,,,,,,,,,,,,,,,
,,,,,,5f248b7b1bde03086270bd37,62bbfa016e6855b2c603359f,2022-06-29_09h06.54.721,Colour_Asymmetry_Pilot,2022.1.3,Win32,60.00960154,62bbe60bf3d75ef465d3e404,0,29,29,86,1,fourtwo,,,,,,,,,,,,,,,,,,,,,,,,,,,,,,,,,,,,,,,,,,,,,,,,,,,,,,,,,,,,,,,,,,,,,,,,,,,,,,,,,,,,,,,,,,,,,,,,,,,,,,,,,,,,,,,,,,,,,,,,,,,,,,,,,,,,,,,,,,,,,,,,,,,,,,,,
,,,,,,5f248b7b1bde03086270bd37,62bbfa016e6855b2c603359f,2022-06-29_09h06.54.721,Colour_Asymmetry_Pilot,2022.1.3,Win32,60.00960154,62bbe60bf3d75ef465d3e404,0,30,30,146,1,twoone,,,,,,,,,,,,,,,,,,,,,,,,,,,,,,,,,,,,,,,,,,,,,,,,,,,,,,,,,,,,,,,,,,,,,,,,,,,,,,,,,,,,,,,,,,,,,,,,,,,,,,,,,,,,,,,,,,,,,,,,,,,,,,,,,,,,,,,,,,,,,,,,,,,,,,,,
,,,,,,5f248b7b1bde03086270bd37,62bbfa016e6855b2c603359f,2022-06-29_09h06.54.721,Colour_Asymmetry_Pilot,2022.1.3,Win32,60.00960154,62bbe60bf3d75ef465d3e404,0,31,31,46,1,fourtwo,,,,,,,,,,,,,,,,,,,,,,,,,,,,,,,,,,,,,,,,,,,,,,,,,,,,,,,,,,,,,,,,,,,,,,,,,,,,,,,,,,,,,,,,,,,,,,,,,,,,,,,,,,,,,,,,,,,,,,,,,,,,,,,,,,,,,,,,,,,,,,,,,,,,,,,,
,,,,,,5f248b7b1bde03086270bd37,62bbfa016e6855b2c603359f,2022-06-29_09h06.54.721,Colour_Asymmetry_Pilot,2022.1.3,Win32,60.00960154,62bbe60bf3d75ef465d3e404,0,32,32,61,1,threefour,,,,,,,,,,,,,,,,,,,,,,,,,,,,,,,,,,,,,,,,,,,,,,,,,,,,,,,,,,,,,,,,,,,,,,,,,,,,,,,,,,,,,,,,,,,,,,,,,,,,,,,,,,,,,,,,,,,,,,,,,,,,,,,,,,,,,,,,,,,,,,,,,,,,,,,,
,,,,,,5f248b7b1bde03086270bd37,62bbfa016e6855b2c603359f,2022-06-29_09h06.54.721,Colour_Asymmetry_Pilot,2022.1.3,Win32,60.00960154,62bbe60bf3d75ef465d3e404,0,33,33,32,1,onetwo,,,,,,,,,,,,,,,,,,,,,,,,,,,,,,,,,,,,,,,,,,,,,,,,,,,,,,,,,,,,,,,,,,,,,,,,,,,,,,,,,,,,,,,,,,,,,,,,,,,,,,,,,,,,,,,,,,,,,,,,,,,,,,,,,,,,,,,,,,,,,,,,,,,,,,,,
,,,,,,5f248b7b1bde03086270bd37,62bbfa016e6855b2c603359f,2022-06-29_09h06.54.721,Colour_Asymmetry_Pilot,2022.1.3,Win32,60.00960154,62bbe60bf3d75ef465d3e404,0,34,34,25,1,onethree,,,,,,,,,,,,,,,,,,,,,,,,,,,,,,,,,,,,,,,,,,,,,,,,,,,,,,,,,,,,,,,,,,,,,,,,,,,,,,,,,,,,,,,,,,,,,,,,,,,,,,,,,,,,,,,,,,,,,,,,,,,,,,,,,,,,,,,,,,,,,,,,,,,,,,,,
,,,,,,5f248b7b1bde03086270bd37,62bbfa016e6855b2c603359f,2022-06-29_09h06.54.721,Colour_Asymmetry_Pilot,2022.1.3,Win32,60.00960154,62bbe60bf3d75ef465d3e404,0,35,35,49,1,onethree,,,,,,,,,,,,,,,,,,,,,,,,,,,,,,,,,,,,,,,,,,,,,,,,,,,,,,,,,,,,,,,,,,,,,,,,,,,,,,,,,,,,,,,,,,,,,,,,,,,,,,,,,,,,,,,,,,,,,,,,,,,,,,,,,,,,,,,,,,,,,,,,,,,,,,,,
,,,,,,5f248b7b1bde03086270bd37,62bbfa016e6855b2c603359f,2022-06-29_09h06.54.721,Colour_Asymmetry_Pilot,2022.1.3,Win32,60.00960154,62bbe60bf3d75ef465d3e404,0,36,36,7,1,fourthree,,,,,,,,,,,,,,,,,,,,,,,,,,,,,,,,,,,,,,,,,,,,,,,,,,,,,,,,,,,,,,,,,,,,,,,,,,,,,,,,,,,,,,,,,,,,,,,,,,,,,,,,,,,,,,,,,,,,,,,,,,,,,,,,,,,,,,,,,,,,,,,,,,,,,,,,
,,,,,,5f248b7b1bde03086270bd37,62bbfa016e6855b2c603359f,2022-06-29_09h06.54.721,Colour_Asymmetry_Pilot,2022.1.3,Win32,60.00960154,62bbe60bf3d75ef465d3e404,0,37,37,139,1,twofour,,,,,,,,,,,,,,,,,,,,,,,,,,,,,,,,,,,,,,,,,,,,,,,,,,,,,,,,,,,,,,,,,,,,,,,,,,,,,,,,,,,,,,,,,,,,,,,,,,,,,,,,,,,,,,,,,,,,,,,,,,,,,,,,,,,,,,,,,,,,,,,,,,,,,,,,
,,,,,,5f248b7b1bde03086270bd37,62bbfa016e6855b2c603359f,2022-06-29_09h06.54.721,Colour_Asymmetry_Pilot,2022.1.3,Win32,60.00960154,62bbe60bf3d75ef465d3e404,0,38,38,38,1,fourtwo,,,,,,,,,,,,,,,,,,,,,,,,,,,,,,,,,,,,,,,,,,,,,,,,,,,,,,,,,,,,,,,,,,,,,,,,,,,,,,,,,,,,,,,,,,,,,,,,,,,,,,,,,,,,,,,,,,,,,,,,,,,,,,,,,,,,,,,,,,,,,,,,,,,,,,,,
,,,,,,5f248b7b1bde03086270bd37,62bbfa016e6855b2c603359f,2022-06-29_09h06.54.721,Colour_Asymmetry_Pilot,2022.1.3,Win32,60.00960154,62bbe60bf3d75ef465d3e404,0,39,39,149,1,threefour,,,,,,,,,,,,,,,,,,,,,,,,,,,,,,,,,,,,,,,,,,,,,,,,,,,,,,,,,,,,,,,,,,,,,,,,,,,,,,,,,,,,,,,,,,,,,,,,,,,,,,,,,,,,,,,,,,,,,,,,,,,,,,,,,,,,,,,,,,,,,,,,,,,,,,,,
,,,,,,5f248b7b1bde03086270bd37,62bbfa016e6855b2c603359f,2022-06-29_09h06.54.721,Colour_Asymmetry_Pilot,2022.1.3,Win32,60.00960154,62bbe60bf3d75ef465d3e404,0,40,40,6,1,fourtwo,,,,,,,,,,,,,,,,,,,,,,,,,,,,,,,,,,,,,,,,,,,,,,,,,,,,,,,,,,,,,,,,,,,,,,,,,,,,,,,,,,,,,,,,,,,,,,,,,,,,,,,,,,,,,,,,,,,,,,,,,,,,,,,,,,,,,,,,,,,,,,,,,,,,,,,,
,,,,,,5f248b7b1bde03086270bd37,62bbfa016e6855b2c603359f,2022-06-29_09h06.54.721,Colour_Asymmetry_Pilot,2022.1.3,Win32,60.00960154,62bbe60bf3d75ef465d3e404,0,41,41,153,1,onethree,,,,,,,,,,,,,,,,,,,,,,,,,,,,,,,,,,,,,,,,,,,,,,,,,,,,,,,,,,,,,,,,,,,,,,,,,,,,,,,,,,,,,,,,,,,,,,,,,,,,,,,,,,,,,,,,,,,,,,,,,,,,,,,,,,,,,,,,,,,,,,,,,,,,,,,,
,,,,,,5f248b7b1bde03086270bd37,62bbfa016e6855b2c603359f,2022-06-29_09h06.54.721,Colour_Asymmetry_Pilot,2022.1.3,Win32,60.00960154,62bbe60bf3d75ef465d3e404,0,42,42,67,1,twofour,,,,,,,,,,,,,,,,,,,,,,,,,,,,,,,,,,,,,,,,,,,,,,,,,,,,,,,,,,,,,,,,,,,,,,,,,,,,,,,,,,,,,,,,,,,,,,,,,,,,,,,,,,,,,,,,,,,,,,,,,,,,,,,,,,,,,,,,,,,,,,,,,,,,,,,,
,,,,,,5f248b7b1bde03086270bd37,62bbfa016e6855b2c603359f,2022-06-29_09h06.54.721,Colour_Asymmetry_Pilot,2022.1.3,Win32,60.00960154,62bbe60bf3d75ef465d3e404,0,43,43,94,1,fourtwo,,,,,,,,,,,,,,,,,,,,,,,,,,,,,,,,,,,,,,,,,,,,,,,,,,,,,,,,,,,,,,,,,,,,,,,,,,,,,,,,,,,,,,,,,,,,,,,,,,,,,,,,,,,,,,,,,,,,,,,,,,,,,,,,,,,,,,,,,,,,,,,,,,,,,,,,
,,,,,,5f248b7b1bde03086270bd37,62bbfa016e6855b2c603359f,2022-06-29_09h06.54.721,Colour_Asymmetry_Pilot,2022.1.3,Win32,60.00960154,62bbe60bf3d75ef465d3e404,0,44,44,151,1,fourthree,,,,,,,,,,,,,,,,,,,,,,,,,,,,,,,,,,,,,,,,,,,,,,,,,,,,,,,,,,,,,,,,,,,,,,,,,,,,,,,,,,,,,,,,,,,,,,,,,,,,,,,,,,,,,,,,,,,,,,,,,,,,,,,,,,,,,,,,,,,,,,,,,,,,,,,,
,,,,,,5f248b7b1bde03086270bd37,62bbfa016e6855b2c603359f,2022-06-29_09h06.54.721,Colour_Asymmetry_Pilot,2022.1.3,Win32,60.00960154,62bbe60bf3d75ef465d3e404,0,45,45,22,1,fourtwo,,,,,,,,,,,,,,,,,,,,,,,,,,,,,,,,,,,,,,,,,,,,,,,,,,,,,,,,,,,,,,,,,,,,,,,,,,,,,,,,,,,,,,,,,,,,,,,,,,,,,,,,,,,,,,,,,,,,,,,,,,,,,,,,,,,,,,,,,,,,,,,,,,,,,,,,
,,,,,,5f248b7b1bde03086270bd37,62bbfa016e6855b2c603359f,2022-06-29_09h06.54.721,Colour_Asymmetry_Pilot,2022.1.3,Win32,60.00960154,62bbe60bf3d75ef465d3e404,0,46,46,90,1,twoone,,,,,,,,,,,,,,,,,,,,,,,,,,,,,,,,,,,,,,,,,,,,,,,,,,,,,,,,,,,,,,,,,,,,,,,,,,,,,,,,,,,,,,,,,,,,,,,,,,,,,,,,,,,,,,,,,,,,,,,,,,,,,,,,,,,,,,,,,,,,,,,,,,,,,,,,
,,,,,,5f248b7b1bde03086270bd37,62bbfa016e6855b2c603359f,2022-06-29_09h06.54.721,Colour_Asymmetry_Pilot,2022.1.3,Win32,60.00960154,62bbe60bf3d75ef465d3e404,0,47,47,35,1,twofour,,,,,,,,,,,,,,,,,,,,,,,,,,,,,,,,,,,,,,,,,,,,,,,,,,,,,,,,,,,,,,,,,,,,,,,,,,,,,,,,,,,,,,,,,,,,,,,,,,,,,,,,,,,,,,,,,,,,,,,,,,,,,,,,,,,,,,,,,,,,,,,,,,,,,,,,
,,,,,,5f248b7b1bde03086270bd37,62bbfa016e6855b2c603359f,2022-06-29_09h06.54.721,Colour_Asymmetry_Pilot,2022.1.3,Win32,60.00960154,62bbe60bf3d75ef465d3e404,0,48,48,98,1,twoone,,,,,,,,,,,,,,,,,,,,,,,,,,,,,,,,,,,,,,,,,,,,,,,,,,,,,,,,,,,,,,,,,,,,,,,,,,,,,,,,,,,,,,,,,,,,,,,,,,,,,,,,,,,,,,,,,,,,,,,,,,,,,,,,,,,,,,,,,,,,,,,,,,,,,,,,
,,,,,,5f248b7b1bde03086270bd37,62bbfa016e6855b2c603359f,2022-06-29_09h06.54.721,Colour_Asymmetry_Pilot,2022.1.3,Win32,60.00960154,62bbe60bf3d75ef465d3e404,0,49,49,143,1,fourthree,,,,,,,,,,,,,,,,,,,,,,,,,,,,,,,,,,,,,,,,,,,,,,,,,,,,,,,,,,,,,,,,,,,,,,,,,,,,,,,,,,,,,,,,,,,,,,,,,,,,,,,,,,,,,,,,,,,,,,,,,,,,,,,,,,,,,,,,,,,,,,,,,,,,,,,,
,,,,,,5f248b7b1bde03086270bd37,62bbfa016e6855b2c603359f,2022-06-29_09h06.54.721,Colour_Asymmetry_Pilot,2022.1.3,Win32,60.00960154,62bbe60bf3d75ef465d3e404,0,50,50,144,1,onetwo,,,,,,,,,,,,,,,,,,,,,,,,,,,,,,,,,,,,,,,,,,,,,,,,,,,,,,,,,,,,,,,,,,,,,,,,,,,,,,,,,,,,,,,,,,,,,,,,,,,,,,,,,,,,,,,,,,,,,,,,,,,,,,,,,,,,,,,,,,,,,,,,,,,,,,,,
,,,,,,5f248b7b1bde03086270bd37,62bbfa016e6855b2c603359f,2022-06-29_09h06.54.721,Colour_Asymmetry_Pilot,2022.1.3,Win32,60.00960154,62bbe60bf3d75ef465d3e404,0,51,51,83,1,twofour,,,,,,,,,,,,,,,,,,,,,,,,,,,,,,,,,,,,,,,,,,,,,,,,,,,,,,,,,,,,,,,,,,,,,,,,,,,,,,,,,,,,,,,,,,,,,,,,,,,,,,,,,,,,,,,,,,,,,,,,,,,,,,,,,,,,,,,,,,,,,,,,,,,,,,,,
,,,,,,5f248b7b1bde03086270bd37,62bbfa016e6855b2c603359f,2022-06-29_09h06.54.721,Colour_Asymmetry_Pilot,2022.1.3,Win32,60.00960154,62bbe60bf3d75ef465d3e404,0,52,52,91,1,twofour,,,,,,,,,,,,,,,,,,,,,,,,,,,,,,,,,,,,,,,,,,,,,,,,,,,,,,,,,,,,,,,,,,,,,,,,,,,,,,,,,,,,,,,,,,,,,,,,,,,,,,,,,,,,,,,,,,,,,,,,,,,,,,,,,,,,,,,,,,,,,,,,,,,,,,,,
,,,,,,5f248b7b1bde03086270bd37,62bbfa016e6855b2c603359f,2022-06-29_09h06.54.721,Colour_Asymmetry_Pilot,2022.1.3,Win32,60.00960154,62bbe60bf3d75ef465d3e404,0,53,53,97,1,onethree,,,,,,,,,,,,,,,,,,,,,,,,,,,,,,,,,,,,,,,,,,,,,,,,,,,,,,,,,,,,,,,,,,,,,,,,,,,,,,,,,,,,,,,,,,,,,,,,,,,,,,,,,,,,,,,,,,,,,,,,,,,,,,,,,,,,,,,,,,,,,,,,,,,,,,,,
,,,,,,5f248b7b1bde03086270bd37,62bbfa016e6855b2c603359f,2022-06-29_09h06.54.721,Colour_Asymmetry_Pilot,2022.1.3,Win32,60.00960154,62bbe60bf3d75ef465d3e404,0,54,54,52,1,threeone,,,,,,,,,,,,,,,,,,,,,,,,,,,,,,,,,,,,,,,,,,,,,,,,,,,,,,,,,,,,,,,,,,,,,,,,,,,,,,,,,,,,,,,,,,,,,,,,,,,,,,,,,,,,,,,,,,,,,,,,,,,,,,,,,,,,,,,,,,,,,,,,,,,,,,,,
,,,,,,5f248b7b1bde03086270bd37,62bbfa016e6855b2c603359f,2022-06-29_09h06.54.721,Colour_Asymmetry_Pilot,2022.1.3,Win32,60.00960154,62bbe60bf3d75ef465d3e404,0,55,55,88,1,onetwo,,,,,,,,,,,,,,,,,,,,,,,,,,,,,,,,,,,,,,,,,,,,,,,,,,,,,,,,,,,,,,,,,,,,,,,,,,,,,,,,,,,,,,,,,,,,,,,,,,,,,,,,,,,,,,,,,,,,,,,,,,,,,,,,,,,,,,,,,,,,,,,,,,,,,,,,
,,,,,,5f248b7b1bde03086270bd37,62bbfa016e6855b2c603359f,2022-06-29_09h06.54.721,Colour_Asymmetry_Pilot,2022.1.3,Win32,60.00960154,62bbe60bf3d75ef465d3e404,0,56,56,18,1,twoone,,,,,,,,,,,,,,,,,,,,,,,,,,,,,,,,,,,,,,,,,,,,,,,,,,,,,,,,,,,,,,,,,,,,,,,,,,,,,,,,,,,,,,,,,,,,,,,,,,,,,,,,,,,,,,,,,,,,,,,,,,,,,,,,,,,,,,,,,,,,,,,,,,,,,,,,
,,,,,,5f248b7b1bde03086270bd37,62bbfa016e6855b2c603359f,2022-06-29_09h06.54.721,Colour_Asymmetry_Pilot,2022.1.3,Win32,60.00960154,62bbe60bf3d75ef465d3e404,0,57,57,13,1,threefour,,,,,,,,,,,,,,,,,,,,,,,,,,,,,,,,,,,,,,,,,,,,,,,,,,,,,,,,,,,,,,,,,,,,,,,,,,,,,,,,,,,,,,,,,,,,,,,,,,,,,,,,,,,,,,,,,,,,,,,,,,,,,,,,,,,,,,,,,,,,,,,,,,,,,,,,
,,,,,,5f248b7b1bde03086270bd37,62bbfa016e6855b2c603359f,2022-06-29_09h06.54.721,Colour_Asymmetry_Pilot,2022.1.3,Win32,60.00960154,62bbe60bf3d75ef465d3e404,0,58,58,84,1,threeone,,,,,,,,,,,,,,,,,,,,,,,,,,,,,,,,,,,,,,,,,,,,,,,,,,,,,,,,,,,,,,,,,,,,,,,,,,,,,,,,,,,,,,,,,,,,,,,,,,,,,,,,,,,,,,,,,,,,,,,,,,,,,,,,,,,,,,,,,,,,,,,,,,,,,,,,
,,,,,,5f248b7b1bde03086270bd37,62bbfa016e6855b2c603359f,2022-06-29_09h06.54.721,Colour_Asymmetry_Pilot,2022.1.3,Win32,60.00960154,62bbe60bf3d75ef465d3e404,0,59,59,114,1,twoone,,,,,,,,,,,,,,,,,,,,,,,,,,,,,,,,,,,,,,,,,,,,,,,,,,,,,,,,,,,,,,,,,,,,,,,,,,,,,,,,,,,,,,,,,,,,,,,,,,,,,,,,,,,,,,,,,,,,,,,,,,,,,,,,,,,,,,,,,,,,,,,,,,,,,,,,
,,,,,,5f248b7b1bde03086270bd37,62bbfa016e6855b2c603359f,2022-06-29_09h06.54.721,Colour_Asymmetry_Pilot,2022.1.3,Win32,60.00960154,62bbe60bf3d75ef465d3e404,0,60,60,132,1,threeone,,,,,,,,,,,,,,,,,,,,,,,,,,,,,,,,,,,,,,,,,,,,,,,,,,,,,,,,,,,,,,,,,,,,,,,,,,,,,,,,,,,,,,,,,,,,,,,,,,,,,,,,,,,,,,,,,,,,,,,,,,,,,,,,,,,,,,,,,,,,,,,,,,,,,,,,
,,,,,,5f248b7b1bde03086270bd37,62bbfa016e6855b2c603359f,2022-06-29_09h06.54.721,Colour_Asymmetry_Pilot,2022.1.3,Win32,60.00960154,62bbe60bf3d75ef465d3e404,0,61,61,74,1,twoone,,,,,,,,,,,,,,,,,,,,,,,,,,,,,,,,,,,,,,,,,,,,,,,,,,,,,,,,,,,,,,,,,,,,,,,,,,,,,,,,,,,,,,,,,,,,,,,,,,,,,,,,,,,,,,,,,,,,,,,,,,,,,,,,,,,,,,,,,,,,,,,,,,,,,,,,
,,,,,,5f248b7b1bde03086270bd37,62bbfa016e6855b2c603359f,2022-06-29_09h06.54.721,Colour_Asymmetry_Pilot,2022.1.3,Win32,60.00960154,62bbe60bf3d75ef465d3e404,0,62,62,71,1,fourthree,,,,,,,,,,,,,,,,,,,,,,,,,,,,,,,,,,,,,,,,,,,,,,,,,,,,,,,,,,,,,,,,,,,,,,,,,,,,,,,,,,,,,,,,,,,,,,,,,,,,,,,,,,,,,,,,,,,,,,,,,,,,,,,,,,,,,,,,,,,,,,,,,,,,,,,,
,,,,,,5f248b7b1bde03086270bd37,62bbfa016e6855b2c603359f,2022-06-29_09h06.54.721,Colour_Asymmetry_Pilot,2022.1.3,Win32,60.00960154,62bbe60bf3d75ef465d3e404,0,63,63,17,1,onethree,,,,,,,,,,,,,,,,,,,,,,,,,,,,,,,,,,,,,,,,,,,,,,,,,,,,,,,,,,,,,,,,,,,,,,,,,,,,,,,,,,,,,,,,,,,,,,,,,,,,,,,,,,,,,,,,,,,,,,,,,,,,,,,,,,,,,,,,,,,,,,,,,,,,,,,,
,,,,,,5f248b7b1bde03086270bd37,62bbfa016e6855b2c603359f,2022-06-29_09h06.54.721,Colour_Asymmetry_Pilot,2022.1.3,Win32,60.00960154,62bbe60bf3d75ef465d3e404,0,64,64,72,1,onetwo,,,,,,,,,,,,,,,,,,,,,,,,,,,,,,,,,,,,,,,,,,,,,,,,,,,,,,,,,,,,,,,,,,,,,,,,,,,,,,,,,,,,,,,,,,,,,,,,,,,,,,,,,,,,,,,,,,,,,,,,,,,,,,,,,,,,,,,,,,,,,,,,,,,,,,,,
,,,,,,5f248b7b1bde03086270bd37,62bbfa016e6855b2c603359f,2022-06-29_09h06.54.721,Colour_Asymmetry_Pilot,2022.1.3,Win32,60.00960154,62bbe60bf3d75ef465d3e404,0,65,65,102,1,fourtwo,,,,,,,,,,,,,,,,,,,,,,,,,,,,,,,,,,,,,,,,,,,,,,,,,,,,,,,,,,,,,,,,,,,,,,,,,,,,,,,,,,,,,,,,,,,,,,,,,,,,,,,,,,,,,,,,,,,,,,,,,,,,,,,,,,,,,,,,,,,,,,,,,,,,,,,,
,,,,,,5f248b7b1bde03086270bd37,62bbfa016e6855b2c603359f,2022-06-29_09h06.54.721,Colour_Asymmetry_Pilot,2022.1.3,Win32,60.00960154,62bbe60bf3d75ef465d3e404,0,66,66,152,1,onetwo,,,,,,,,,,,,,,,,,,,,,,,,,,,,,,,,,,,,,,,,,,,,,,,,,,,,,,,,,,,,,,,,,,,,,,,,,,,,,,,,,,,,,,,,,,,,,,,,,,,,,,,,,,,,,,,,,,,,,,,,,,,,,,,,,,,,,,,,,,,,,,,,,,,,,,,,
,,,,,,5f248b7b1bde03086270bd37,62bbfa016e6855b2c603359f,2022-06-29_09h06.54.721,Colour_Asymmetry_Pilot,2022.1.3,Win32,60.00960154,62bbe60bf3d75ef465d3e404,0,67,67,119,1,fourthree,,,,,,,,,,,,,,,,,,,,,,,,,,,,,,,,,,,,,,,,,,,,,,,,,,,,,,,,,,,,,,,,,,,,,,,,,,,,,,,,,,,,,,,,,,,,,,,,,,,,,,,,,,,,,,,,,,,,,,,,,,,,,,,,,,,,,,,,,,,,,,,,,,,,,,,,
,,,,,,5f248b7b1bde03086270bd37,62bbfa016e6855b2c603359f,2022-06-29_09h06.54.721,Colour_Asymmetry_Pilot,2022.1.3,Win32,60.00960154,62bbe60bf3d75ef465d3e404,0,68,68,115,1,twofour,,,,,,,,,,,,,,,,,,,,,,,,,,,,,,,,,,,,,,,,,,,,,,,,,,,,,,,,,,,,,,,,,,,,,,,,,,,,,,,,,,,,,,,,,,,,,,,,,,,,,,,,,,,,,,,,,,,,,,,,,,,,,,,,,,,,,,,,,,,,,,,,,,,,,,,,
,,,,,,5f248b7b1bde03086270bd37,62bbfa016e6855b2c603359f,2022-06-29_09h06.54.721,Colour_Asymmetry_Pilot,2022.1.3,Win32,60.00960154,62bbe60bf3d75ef465d3e404,0,69,69,63,1,fourthree,,,,,,,,,,,,,,,,,,,,,,,,,,,,,,,,,,,,,,,,,,,,,,,,,,,,,,,,,,,,,,,,,,,,,,,,,,,,,,,,,,,,,,,,,,,,,,,,,,,,,,,,,,,,,,,,,,,,,,,,,,,,,,,,,,,,,,,,,,,,,,,,,,,,,,,,
,,,,,,5f248b7b1bde03086270bd37,62bbfa016e6855b2c603359f,2022-06-29_09h06.54.721,Colour_Asymmetry_Pilot,2022.1.3,Win32,60.00960154,62bbe60bf3d75ef465d3e404,0,70,70,136,1,onetwo,,,,,,,,,,,,,,,,,,,,,,,,,,,,,,,,,,,,,,,,,,,,,,,,,,,,,,,,,,,,,,,,,,,,,,,,,,,,,,,,,,,,,,,,,,,,,,,,,,,,,,,,,,,,,,,,,,,,,,,,,,,,,,,,,,,,,,,,,,,,,,,,,,,,,,,,
,,,,,,5f248b7b1bde03086270bd37,62bbfa016e6855b2c603359f,2022-06-29_09h06.54.721,Colour_Asymmetry_Pilot,2022.1.3,Win32,60.00960154,62bbe60bf3d75ef465d3e404,0,71,71,80,1,onetwo,,,,,,,,,,,,,,,,,,,,,,,,,,,,,,,,,,,,,,,,,,,,,,,,,,,,,,,,,,,,,,,,,,,,,,,,,,,,,,,,,,,,,,,,,,,,,,,,,,,,,,,,,,,,,,,,,,,,,,,,,,,,,,,,,,,,,,,,,,,,,,,,,,,,,,,,
,,,,,,5f248b7b1bde03086270bd37,62bbfa016e6855b2c603359f,2022-06-29_09h06.54.721,Colour_Asymmetry_Pilot,2022.1.3,Win32,60.00960154,62bbe60bf3d75ef465d3e404,0,72,72,125,1,threefour,,,,,,,,,,,,,,,,,,,,,,,,,,,,,,,,,,,,,,,,,,,,,,,,,,,,,,,,,,,,,,,,,,,,,,,,,,,,,,,,,,,,,,,,,,,,,,,,,,,,,,,,,,,,,,,,,,,,,,,,,,,,,,,,,,,,,,,,,,,,,,,,,,,,,,,,
,,,,,,5f248b7b1bde03086270bd37,62bbfa016e6855b2c603359f,2022-06-29_09h06.54.721,Colour_Asymmetry_Pilot,2022.1.3,Win32,60.00960154,62bbe60bf3d75ef465d3e404,0,73,73,127,1,fourthree,,,,,,,,,,,,,,,,,,,,,,,,,,,,,,,,,,,,,,,,,,,,,,,,,,,,,,,,,,,,,,,,,,,,,,,,,,,,,,,,,,,,,,,,,,,,,,,,,,,,,,,,,,,,,,,,,,,,,,,,,,,,,,,,,,,,,,,,,,,,,,,,,,,,,,,,
,,,,,,5f248b7b1bde03086270bd37,62bbfa016e6855b2c603359f,2022-06-29_09h06.54.721,Colour_Asymmetry_Pilot,2022.1.3,Win32,60.00960154,62bbe60bf3d75ef465d3e404,0,74,74,66,1,twoone,,,,,,,,,,,,,,,,,,,,,,,,,,,,,,,,,,,,,,,,,,,,,,,,,,,,,,,,,,,,,,,,,,,,,,,,,,,,,,,,,,,,,,,,,,,,,,,,,,,,,,,,,,,,,,,,,,,,,,,,,,,,,,,,,,,,,,,,,,,,,,,,,,,,,,,,
,,,,,,5f248b7b1bde03086270bd37,62bbfa016e6855b2c603359f,2022-06-29_09h06.54.721,Colour_Asymmetry_Pilot,2022.1.3,Win32,60.00960154,62bbe60bf3d75ef465d3e404,0,75,75,57,1,onethree,,,,,,,,,,,,,,,,,,,,,,,,,,,,,,,,,,,,,,,,,,,,,,,,,,,,,,,,,,,,,,,,,,,,,,,,,,,,,,,,,,,,,,,,,,,,,,,,,,,,,,,,,,,,,,,,,,,,,,,,,,,,,,,,,,,,,,,,,,,,,,,,,,,,,,,,
,,,,,,5f248b7b1bde03086270bd37,62bbfa016e6855b2c603359f,2022-06-29_09h06.54.721,Colour_Asymmetry_Pilot,2022.1.3,Win32,60.00960154,62bbe60bf3d75ef465d3e404,0,76,76,142,1,fourtwo,,,,,,,,,,,,,,,,,,,,,,,,,,,,,,,,,,,,,,,,,,,,,,,,,,,,,,,,,,,,,,,,,,,,,,,,,,,,,,,,,,,,,,,,,,,,,,,,,,,,,,,,,,,,,,,,,,,,,,,,,,,,,,,,,,,,,,,,,,,,,,,,,,,,,,,,
,,,,,,5f248b7b1bde03086270bd37,62bbfa016e6855b2c603359f,2022-06-29_09h06.54.721,Colour_Asymmetry_Pilot,2022.1.3,Win32,60.00960154,62bbe60bf3d75ef465d3e404,0,77,77,4,1,threeone,,,,,,,,,,,,,,,,,,,,,,,,,,,,,,,,,,,,,,,,,,,,,,,,,,,,,,,,,,,,,,,,,,,,,,,,,,,,,,,,,,,,,,,,,,,,,,,,,,,,,,,,,,,,,,,,,,,,,,,,,,,,,,,,,,,,,,,,,,,,,,,,,,,,,,,,
,,,,,,5f248b7b1bde03086270bd37,62bbfa016e6855b2c603359f,2022-06-29_09h06.54.721,Colour_Asymmetry_Pilot,2022.1.3,Win32,60.00960154,62bbe60bf3d75ef465d3e404,0,78,78,36,1,threeone,,,,,,,,,,,,,,,,,,,,,,,,,,,,,,,,,,,,,,,,,,,,,,,,,,,,,,,,,,,,,,,,,,,,,,,,,,,,,,,,,,,,,,,,,,,,,,,,,,,,,,,,,,,,,,,,,,,,,,,,,,,,,,,,,,,,,,,,,,,,,,,,,,,,,,,,
,,,,,,5f248b7b1bde03086270bd37,62bbfa016e6855b2c603359f,2022-06-29_09h06.54.721,Colour_Asymmetry_Pilot,2022.1.3,Win32,60.00960154,62bbe60bf3d75ef465d3e404,0,79,79,47,1,fourthree,,,,,,,,,,,,,,,,,,,,,,,,,,,,,,,,,,,,,,,,,,,,,,,,,,,,,,,,,,,,,,,,,,,,,,,,,,,,,,,,,,,,,,,,,,,,,,,,,,,,,,,,,,,,,,,,,,,,,,,,,,,,,,,,,,,,,,,,,,,,,,,,,,,,,,,,
,,,,,,5f248b7b1bde03086270bd37,62bbfa016e6855b2c603359f,2022-06-29_09h06.54.721,Colour_Asymmetry_Pilot,2022.1.3,Win32,60.00960154,62bbe60bf3d75ef465d3e404,0,80,80,24,1,onetwo,,,,,,,,,,,,,,,,,,,,,,,,,,,,,,,,,,,,,,,,,,,,,,,,,,,,,,,,,,,,,,,,,,,,,,,,,,,,,,,,,,,,,,,,,,,,,,,,,,,,,,,,,,,,,,,,,,,,,,,,,,,,,,,,,,,,,,,,,,,,,,,,,,,,,,,,
,,,,,,5f248b7b1bde03086270bd37,62bbfa016e6855b2c603359f,2022-06-29_09h06.54.721,Colour_Asymmetry_Pilot,2022.1.3,Win32,60.00960154,62bbe60bf3d75ef465d3e404,0,81,81,161,1,onethree,,,,,,,,,,,,,,,,,,,,,,,,,,,,,,,,,,,,,,,,,,,,,,,,,,,,,,,,,,,,,,,,,,,,,,,,,,,,,,,,,,,,,,,,,,,,,,,,,,,,,,,,,,,,,,,,,,,,,,,,,,,,,,,,,,,,,,,,,,,,,,,,,,,,,,,,
,,,,,,5f248b7b1bde03086270bd37,62bbfa016e6855b2c603359f,2022-06-29_09h06.54.721,Colour_Asymmetry_Pilot,2022.1.3,Win32,60.00960154,62bbe60bf3d75ef465d3e404,0,82,82,100,1,threeone,,,,,,,,,,,,,,,,,,,,,,,,,,,,,,,,,,,,,,,,,,,,,,,,,,,,,,,,,,,,,,,,,,,,,,,,,,,,,,,,,,,,,,,,,,,,,,,,,,,,,,,,,,,,,,,,,,,,,,,,,,,,,,,,,,,,,,,,,,,,,,,,,,,,,,,,
,,,,,,5f248b7b1bde03086270bd37,62bbfa016e6855b2c603359f,2022-06-29_09h06.54.721,Colour_Asymmetry_Pilot,2022.1.3,Win32,60.00960154,62bbe60bf3d75ef465d3e404,0,83,83,51,1,twofour,,,,,,,,,,,,,,,,,,,,,,,,,,,,,,,,,,,,,,,,,,,,,,,,,,,,,,,,,,,,,,,,,,,,,,,,,,,,,,,,,,,,,,,,,,,,,,,,,,,,,,,,,,,,,,,,,,,,,,,,,,,,,,,,,,,,,,,,,,,,,,,,,,,,,,,,
,,,,,,5f248b7b1bde03086270bd37,62bbfa016e6855b2c603359f,2022-06-29_09h06.54.721,Colour_Asymmetry_Pilot,2022.1.3,Win32,60.00960154,62bbe60bf3d75ef465d3e404,0,84,84,21,1,threefour,,,,,,,,,,,,,,,,,,,,,,,,,,,,,,,,,,,,,,,,,,,,,,,,,,,,,,,,,,,,,,,,,,,,,,,,,,,,,,,,,,,,,,,,,,,,,,,,,,,,,,,,,,,,,,,,,,,,,,,,,,,,,,,,,,,,,,,,,,,,,,,,,,,,,,,,
,,,,,,5f248b7b1bde03086270bd37,62bbfa016e6855b2c603359f,2022-06-29_09h06.54.721,Colour_Asymmetry_Pilot,2022.1.3,Win32,60.00960154,62bbe60bf3d75ef465d3e404,0,85,85,26,1,twoone,,,,,,,,,,,,,,,,,,,,,,,,,,,,,,,,,,,,,,,,,,,,,,,,,,,,,,,,,,,,,,,,,,,,,,,,,,,,,,,,,,,,,,,,,,,,,,,,,,,,,,,,,,,,,,,,,,,,,,,,,,,,,,,,,,,,,,,,,,,,,,,,,,,,,,,,
,,,,,,5f248b7b1bde03086270bd37,62bbfa016e6855b2c603359f,2022-06-29_09h06.54.721,Colour_Asymmetry_Pilot,2022.1.3,Win32,60.00960154,62bbe60bf3d75ef465d3e404,0,86,86,50,1,twoone,,,,,,,,,,,,,,,,,,,,,,,,,,,,,,,,,,,,,,,,,,,,,,,,,,,,,,,,,,,,,,,,,,,,,,,,,,,,,,,,,,,,,,,,,,,,,,,,,,,,,,,,,,,,,,,,,,,,,,,,,,,,,,,,,,,,,,,,,,,,,,,,,,,,,,,,
,,,,,,5f248b7b1bde03086270bd37,62bbfa016e6855b2c603359f,2022-06-29_09h06.54.721,Colour_Asymmetry_Pilot,2022.1.3,Win32,60.00960154,62bbe60bf3d75ef465d3e404,0,87,87,135,1,fourthree,,,,,,,,,,,,,,,,,,,,,,,,,,,,,,,,,,,,,,,,,,,,,,,,,,,,,,,,,,,,,,,,,,,,,,,,,,,,,,,,,,,,,,,,,,,,,,,,,,,,,,,,,,,,,,,,,,,,,,,,,,,,,,,,,,,,,,,,,,,,,,,,,,,,,,,,
,,,,,,5f248b7b1bde03086270bd37,62bbfa016e6855b2c603359f,2022-06-29_09h06.54.721,Colour_Asymmetry_Pilot,2022.1.3,Win32,60.00960154,62bbe60bf3d75ef465d3e404,0,88,88,137,1,onethree,,,,,,,,,,,,,,,,,,,,,,,,,,,,,,,,,,,,,,,,,,,,,,,,,,,,,,,,,,,,,,,,,,,,,,,,,,,,,,,,,,,,,,,,,,,,,,,,,,,,,,,,,,,,,,,,,,,,,,,,,,,,,,,,,,,,,,,,,,,,,,,,,,,,,,,,
,,,,,,5f248b7b1bde03086270bd37,62bbfa016e6855b2c603359f,2022-06-29_09h06.54.721,Colour_Asymmetry_Pilot,2022.1.3,Win32,60.00960154,62bbe60bf3d75ef465d3e404,0,89,89,15,1,fourthree,,,,,,,,,,,,,,,,,,,,,,,,,,,,,,,,,,,,,,,,,,,,,,,,,,,,,,,,,,,,,,,,,,,,,,,,,,,,,,,,,,,,,,,,,,,,,,,,,,,,,,,,,,,,,,,,,,,,,,,,,,,,,,,,,,,,,,,,,,,,,,,,,,,,,,,,
,,,,,,5f248b7b1bde03086270bd37,62bbfa016e6855b2c603359f,2022-06-29_09h06.54.721,Colour_Asymmetry_Pilot,2022.1.3,Win32,60.00960154,62bbe60bf3d75ef465d3e404,0,90,90,159,1,fourthree,,,,,,,,,,,,,,,,,,,,,,,,,,,,,,,,,,,,,,,,,,,,,,,,,,,,,,,,,,,,,,,,,,,,,,,,,,,,,,,,,,,,,,,,,,,,,,,,,,,,,,,,,,,,,,,,,,,,,,,,,,,,,,,,,,,,,,,,,,,,,,,,,,,,,,,,
,,,,,,5f248b7b1bde03086270bd37,62bbfa016e6855b2c603359f,2022-06-29_09h06.54.721,Colour_Asymmetry_Pilot,2022.1.3,Win32,60.00960154,62bbe60bf3d75ef465d3e404,0,91,91,39,1,fourthree,,,,,,,,,,,,,,,,,,,,,,,,,,,,,,,,,,,,,,,,,,,,,,,,,,,,,,,,,,,,,,,,,,,,,,,,,,,,,,,,,,,,,,,,,,,,,,,,,,,,,,,,,,,,,,,,,,,,,,,,,,,,,,,,,,,,,,,,,,,,,,,,,,,,,,,,
,,,,,,5f248b7b1bde03086270bd37,62bbfa016e6855b2c603359f,2022-06-29_09h06.54.721,Colour_Asymmetry_Pilot,2022.1.3,Win32,60.00960154,62bbe60bf3d75ef465d3e404,0,92,92,73,1,onethree,,,,,,,,,,,,,,,,,,,,,,,,,,,,,,,,,,,,,,,,,,,,,,,,,,,,,,,,,,,,,,,,,,,,,,,,,,,,,,,,,,,,,,,,,,,,,,,,,,,,,,,,,,,,,,,,,,,,,,,,,,,,,,,,,,,,,,,,,,,,,,,,,,,,,,,,
,,,,,,5f248b7b1bde03086270bd37,62bbfa016e6855b2c603359f,2022-06-29_09h06.54.721,Colour_Asymmetry_Pilot,2022.1.3,Win32,60.00960154,62bbe60bf3d75ef465d3e404,0,93,93,54,1,fourtwo,,,,,,,,,,,,,,,,,,,,,,,,,,,,,,,,,,,,,,,,,,,,,,,,,,,,,,,,,,,,,,,,,,,,,,,,,,,,,,,,,,,,,,,,,,,,,,,,,,,,,,,,,,,,,,,,,,,,,,,,,,,,,,,,,,,,,,,,,,,,,,,,,,,,,,,,
,,,,,,5f248b7b1bde03086270bd37,62bbfa016e6855b2c603359f,2022-06-29_09h06.54.721,Colour_Asymmetry_Pilot,2022.1.3,Win32,60.00960154,62bbe60bf3d75ef465d3e404,0,94,94,20,1,threeone,,,,,,,,,,,,,,,,,,,,,,,,,,,,,,,,,,,,,,,,,,,,,,,,,,,,,,,,,,,,,,,,,,,,,,,,,,,,,,,,,,,,,,,,,,,,,,,,,,,,,,,,,,,,,,,,,,,,,,,,,,,,,,,,,,,,,,,,,,,,,,,,,,,,,,,,
,,,,,,5f248b7b1bde03086270bd37,62bbfa016e6855b2c603359f,2022-06-29_09h06.54.721,Colour_Asymmetry_Pilot,2022.1.3,Win32,60.00960154,62bbe60bf3d75ef465d3e404,0,95,95,133,1,threefour,,,,,,,,,,,,,,,,,,,,,,,,,,,,,,,,,,,,,,,,,,,,,,,,,,,,,,,,,,,,,,,,,,,,,,,,,,,,,,,,,,,,,,,,,,,,,,,,,,,,,,,,,,,,,,,,,,,,,,,,,,,,,,,,,,,,,,,,,,,,,,,,,,,,,,,,
,,,,,,5f248b7b1bde03086270bd37,62bbfa016e6855b2c603359f,2022-06-29_09h06.54.721,Colour_Asymmetry_Pilot,2022.1.3,Win32,60.00960154,62bbe60bf3d75ef465d3e404,0,96,96,59,1,twofour,,,,,,,,,,,,,,,,,,,,,,,,,,,,,,,,,,,,,,,,,,,,,,,,,,,,,,,,,,,,,,,,,,,,,,,,,,,,,,,,,,,,,,,,,,,,,,,,,,,,,,,,,,,,,,,,,,,,,,,,,,,,,,,,,,,,,,,,,,,,,,,,,,,,,,,,
,,,,,,5f248b7b1bde03086270bd37,62bbfa016e6855b2c603359f,2022-06-29_09h06.54.721,Colour_Asymmetry_Pilot,2022.1.3,Win32,60.00960154,62bbe60bf3d75ef465d3e404,0,97,97,117,1,threefour,,,,,,,,,,,,,,,,,,,,,,,,,,,,,,,,,,,,,,,,,,,,,,,,,,,,,,,,,,,,,,,,,,,,,,,,,,,,,,,,,,,,,,,,,,,,,,,,,,,,,,,,,,,,,,,,,,,,,,,,,,,,,,,,,,,,,,,,,,,,,,,,,,,,,,,,
,,,,,,5f248b7b1bde03086270bd37,62bbfa016e6855b2c603359f,2022-06-29_09h06.54.721,Colour_Asymmetry_Pilot,2022.1.3,Win32,60.00960154,62bbe60bf3d75ef465d3e404,0,98,98,42,1,twoone,,,,,,,,,,,,,,,,,,,,,,,,,,,,,,,,,,,,,,,,,,,,,,,,,,,,,,,,,,,,,,,,,,,,,,,,,,,,,,,,,,,,,,,,,,,,,,,,,,,,,,,,,,,,,,,,,,,,,,,,,,,,,,,,,,,,,,,,,,,,,,,,,,,,,,,,
,,,,,,5f248b7b1bde03086270bd37,62bbfa016e6855b2c603359f,2022-06-29_09h06.54.721,Colour_Asymmetry_Pilot,2022.1.3,Win32,60.00960154,62bbe60bf3d75ef465d3e404,0,99,99,160,1,onetwo,,,,,,,,,,,,,,,,,,,,,,,,,,,,,,,,,,,,,,,,,,,,,,,,,,,,,,,,,,,,,,,,,,,,,,,,,,,,,,,,,,,,,,,,,,,,,,,,,,,,,,,,,,,,,,,,,,,,,,,,,,,,,,,,,,,,,,,,,,,,,,,,,,,,,,,,
,,,,,,5f248b7b1bde03086270bd37,62bbfa016e6855b2c603359f,2022-06-29_09h06.54.721,Colour_Asymmetry_Pilot,2022.1.3,Win32,60.00960154,62bbe60bf3d75ef465d3e404,0,100,100,123,1,twofour,,,,,,,,,,,,,,,,,,,,,,,,,,,,,,,,,,,,,,,,,,,,,,,,,,,,,,,,,,,,,,,,,,,,,,,,,,,,,,,,,,,,,,,,,,,,,,,,,,,,,,,,,,,,,,,,,,,,,,,,,,,,,,,,,,,,,,,,,,,,,,,,,,,,,,,,
,,,,,,5f248b7b1bde03086270bd37,62bbfa016e6855b2c603359f,2022-06-29_09h06.54.721,Colour_Asymmetry_Pilot,2022.1.3,Win32,60.00960154,62bbe60bf3d75ef465d3e404,0,101,101,112,1,onetwo,,,,,,,,,,,,,,,,,,,,,,,,,,,,,,,,,,,,,,,,,,,,,,,,,,,,,,,,,,,,,,,,,,,,,,,,,,,,,,,,,,,,,,,,,,,,,,,,,,,,,,,,,,,,,,,,,,,,,,,,,,,,,,,,,,,,,,,,,,,,,,,,,,,,,,,,
,,,,,,5f248b7b1bde03086270bd37,62bbfa016e6855b2c603359f,2022-06-29_09h06.54.721,Colour_Asymmetry_Pilot,2022.1.3,Win32,60.00960154,62bbe60bf3d75ef465d3e404,0,102,102,141,1,threefour,,,,,,,,,,,,,,,,,,,,,,,,,,,,,,,,,,,,,,,,,,,,,,,,,,,,,,,,,,,,,,,,,,,,,,,,,,,,,,,,,,,,,,,,,,,,,,,,,,,,,,,,,,,,,,,,,,,,,,,,,,,,,,,,,,,,,,,,,,,,,,,,,,,,,,,,
,,,,,,5f248b7b1bde03086270bd37,62bbfa016e6855b2c603359f,2022-06-29_09h06.54.721,Colour_Asymmetry_Pilot,2022.1.3,Win32,60.00960154,62bbe60bf3d75ef465d3e404,0,103,103,79,1,fourthree,,,,,,,,,,,,,,,,,,,,,,,,,,,,,,,,,,,,,,,,,,,,,,,,,,,,,,,,,,,,,,,,,,,,,,,,,,,,,,,,,,,,,,,,,,,,,,,,,,,,,,,,,,,,,,,,,,,,,,,,,,,,,,,,,,,,,,,,,,,,,,,,,,,,,,,,
,,,,,,5f248b7b1bde03086270bd37,62bbfa016e6855b2c603359f,2022-06-29_09h06.54.721,Colour_Asymmetry_Pilot,2022.1.3,Win32,60.00960154,62bbe60bf3d75ef465d3e404,0,104,104,134,1,fourtwo,,,,,,,,,,,,,,,,,,,,,,,,,,,,,,,,,,,,,,,,,,,,,,,,,,,,,,,,,,,,,,,,,,,,,,,,,,,,,,,,,,,,,,,,,,,,,,,,,,,,,,,,,,,,,,,,,,,,,,,,,,,,,,,,,,,,,,,,,,,,,,,,,,,,,,,,
,,,,,,5f248b7b1bde03086270bd37,62bbfa016e6855b2c603359f,2022-06-29_09h06.54.721,Colour_Asymmetry_Pilot,2022.1.3,Win32,60.00960154,62bbe60bf3d75ef465d3e404,0,105,105,5,1,threefour,,,,,,,,,,,,,,,,,,,,,,,,,,,,,,,,,,,,,,,,,,,,,,,,,,,,,,,,,,,,,,,,,,,,,,,,,,,,,,,,,,,,,,,,,,,,,,,,,,,,,,,,,,,,,,,,,,,,,,,,,,,,,,,,,,,,,,,,,,,,,,,,,,,,,,,,
,,,,,,5f248b7b1bde03086270bd37,62bbfa016e6855b2c603359f,2022-06-29_09h06.54.721,Colour_Asymmetry_Pilot,2022.1.3,Win32,60.00960154,62bbe60bf3d75ef465d3e404,0,106,106,8,1,onetwo,,,,,,,,,,,,,,,,,,,,,,,,,,,,,,,,,,,,,,,,,,,,,,,,,,,,,,,,,,,,,,,,,,,,,,,,,,,,,,,,,,,,,,,,,,,,,,,,,,,,,,,,,,,,,,,,,,,,,,,,,,,,,,,,,,,,,,,,,,,,,,,,,,,,,,,,
,,,,,,5f248b7b1bde03086270bd37,62bbfa016e6855b2c603359f,2022-06-29_09h06.54.721,Colour_Asymmetry_Pilot,2022.1.3,Win32,60.00960154,62bbe60bf3d75ef465d3e404,0,107,107,78,1,fourtwo,,,,,,,,,,,,,,,,,,,,,,,,,,,,,,,,,,,,,,,,,,,,,,,,,,,,,,,,,,,,,,,,,,,,,,,,,,,,,,,,,,,,,,,,,,,,,,,,,,,,,,,,,,,,,,,,,,,,,,,,,,,,,,,,,,,,,,,,,,,,,,,,,,,,,,,,
,,,,,,5f248b7b1bde03086270bd37,62bbfa016e6855b2c603359f,2022-06-29_09h06.54.721,Colour_Asymmetry_Pilot,2022.1.3,Win32,60.00960154,62bbe60bf3d75ef465d3e404,0,108,108,53,1,threefour,,,,,,,,,,,,,,,,,,,,,,,,,,,,,,,,,,,,,,,,,,,,,,,,,,,,,,,,,,,,,,,,,,,,,,,,,,,,,,,,,,,,,,,,,,,,,,,,,,,,,,,,,,,,,,,,,,,,,,,,,,,,,,,,,,,,,,,,,,,,,,,,,,,,,,,,
,,,,,,5f248b7b1bde03086270bd37,62bbfa016e6855b2c603359f,2022-06-29_09h06.54.721,Colour_Asymmetry_Pilot,2022.1.3,Win32,60.00960154,62bbe60bf3d75ef465d3e404,0,109,109,140,1,threeone,,,,,,,,,,,,,,,,,,,,,,,,,,,,,,,,,,,,,,,,,,,,,,,,,,,,,,,,,,,,,,,,,,,,,,,,,,,,,,,,,,,,,,,,,,,,,,,,,,,,,,,,,,,,,,,,,,,,,,,,,,,,,,,,,,,,,,,,,,,,,,,,,,,,,,,,
,,,,,,5f248b7b1bde03086270bd37,62bbfa016e6855b2c603359f,2022-06-29_09h06.54.721,Colour_Asymmetry_Pilot,2022.1.3,Win32,60.00960154,62bbe60bf3d75ef465d3e404,0,110,110,77,1,threefour,,,,,,,,,,,,,,,,,,,,,,,,,,,,,,,,,,,,,,,,,,,,,,,,,,,,,,,,,,,,,,,,,,,,,,,,,,,,,,,,,,,,,,,,,,,,,,,,,,,,,,,,,,,,,,,,,,,,,,,,,,,,,,,,,,,,,,,,,,,,,,,,,,,,,,,,
,,,,,,5f248b7b1bde03086270bd37,62bbfa016e6855b2c603359f,2022-06-29_09h06.54.721,Colour_Asymmetry_Pilot,2022.1.3,Win32,60.00960154,62bbe60bf3d75ef465d3e404,0,111,111,111,1,fourthree,,,,,,,,,,,,,,,,,,,,,,,,,,,,,,,,,,,,,,,,,,,,,,,,,,,,,,,,,,,,,,,,,,,,,,,,,,,,,,,,,,,,,,,,,,,,,,,,,,,,,,,,,,,,,,,,,,,,,,,,,,,,,,,,,,,,,,,,,,,,,,,,,,,,,,,,
,,,,,,5f248b7b1bde03086270bd37,62bbfa016e6855b2c603359f,2022-06-29_09h06.54.721,Colour_Asymmetry_Pilot,2022.1.3,Win32,60.00960154,62bbe60bf3d75ef465d3e404,0,112,112,96,1,onetwo,,,,,,,,,,,,,,,,,,,,,,,,,,,,,,,,,,,,,,,,,,,,,,,,,,,,,,,,,,,,,,,,,,,,,,,,,,,,,,,,,,,,,,,,,,,,,,,,,,,,,,,,,,,,,,,,,,,,,,,,,,,,,,,,,,,,,,,,,,,,,,,,,,,,,,,,
,,,,,,5f248b7b1bde03086270bd37,62bbfa016e6855b2c603359f,2022-06-29_09h06.54.721,Colour_Asymmetry_Pilot,2022.1.3,Win32,60.00960154,62bbe60bf3d75ef465d3e404,0,113,113,129,1,onethree,,,,,,,,,,,,,,,,,,,,,,,,,,,,,,,,,,,,,,,,,,,,,,,,,,,,,,,,,,,,,,,,,,,,,,,,,,,,,,,,,,,,,,,,,,,,,,,,,,,,,,,,,,,,,,,,,,,,,,,,,,,,,,,,,,,,,,,,,,,,,,,,,,,,,,,,
,,,,,,5f248b7b1bde03086270bd37,62bbfa016e6855b2c603359f,2022-06-29_09h06.54.721,Colour_Asymmetry_Pilot,2022.1.3,Win32,60.00960154,62bbe60bf3d75ef465d3e404,0,114,114,104,1,onetwo,,,,,,,,,,,,,,,,,,,,,,,,,,,,,,,,,,,,,,,,,,,,,,,,,,,,,,,,,,,,,,,,,,,,,,,,,,,,,,,,,,,,,,,,,,,,,,,,,,,,,,,,,,,,,,,,,,,,,,,,,,,,,,,,,,,,,,,,,,,,,,,,,,,,,,,,
,,,,,,5f248b7b1bde03086270bd37,62bbfa016e6855b2c603359f,2022-06-29_09h06.54.721,Colour_Asymmetry_Pilot,2022.1.3,Win32,60.00960154,62bbe60bf3d75ef465d3e404,0,115,115,64,1,onetwo,,,,,,,,,,,,,,,,,,,,,,,,,,,,,,,,,,,,,,,,,,,,,,,,,,,,,,,,,,,,,,,,,,,,,,,,,,,,,,,,,,,,,,,,,,,,,,,,,,,,,,,,,,,,,,,,,,,,,,,,,,,,,,,,,,,,,,,,,,,,,,,,,,,,,,,,
,,,,,,5f248b7b1bde03086270bd37,62bbfa016e6855b2c603359f,2022-06-29_09h06.54.721,Colour_Asymmetry_Pilot,2022.1.3,Win32,60.00960154,62bbe60bf3d75ef465d3e404,0,116,116,93,1,threefour,,,,,,,,,,,,,,,,,,,,,,,,,,,,,,,,,,,,,,,,,,,,,,,,,,,,,,,,,,,,,,,,,,,,,,,,,,,,,,,,,,,,,,,,,,,,,,,,,,,,,,,,,,,,,,,,,,,,,,,,,,,,,,,,,,,,,,,,,,,,,,,,,,,,,,,,
,,,,,,5f248b7b1bde03086270bd37,62bbfa016e6855b2c603359f,2022-06-29_09h06.54.721,Colour_Asymmetry_Pilot,2022.1.3,Win32,60.00960154,62bbe60bf3d75ef465d3e404,0,117,117,138,1,twoone,,,,,,,,,,,,,,,,,,,,,,,,,,,,,,,,,,,,,,,,,,,,,,,,,,,,,,,,,,,,,,,,,,,,,,,,,,,,,,,,,,,,,,,,,,,,,,,,,,,,,,,,,,,,,,,,,,,,,,,,,,,,,,,,,,,,,,,,,,,,,,,,,,,,,,,,
,,,,,,5f248b7b1bde03086270bd37,62bbfa016e6855b2c603359f,2022-06-29_09h06.54.721,Colour_Asymmetry_Pilot,2022.1.3,Win32,60.00960154,62bbe60bf3d75ef465d3e404,0,118,118,56,1,onetwo,,,,,,,,,,,,,,,,,,,,,,,,,,,,,,,,,,,,,,,,,,,,,,,,,,,,,,,,,,,,,,,,,,,,,,,,,,,,,,,,,,,,,,,,,,,,,,,,,,,,,,,,,,,,,,,,,,,,,,,,,,,,,,,,,,,,,,,,,,,,,,,,,,,,,,,,
,,,,,,5f248b7b1bde03086270bd37,62bbfa016e6855b2c603359f,2022-06-29_09h06.54.721,Colour_Asymmetry_Pilot,2022.1.3,Win32,60.00960154,62bbe60bf3d75ef465d3e404,0,119,119,131,1,twofour,,,,,,,,,,,,,,,,,,,,,,,,,,,,,,,,,,,,,,,,,,,,,,,,,,,,,,,,,,,,,,,,,,,,,,,,,,,,,,,,,,,,,,,,,,,,,,,,,,,,,,,,,,,,,,,,,,,,,,,,,,,,,,,,,,,,,,,,,,,,,,,,,,,,,,,,
,,,,,,5f248b7b1bde03086270bd37,62bbfa016e6855b2c603359f,2022-06-29_09h06.54.721,Colour_Asymmetry_Pilot,2022.1.3,Win32,60.00960154,62bbe60bf3d75ef465d3e404,0,120,120,2,1,twoone,,,,,,,,,,,,,,,,,,,,,,,,,,,,,,,,,,,,,,,,,,,,,,,,,,,,,,,,,,,,,,,,,,,,,,,,,,,,,,,,,,,,,,,,,,,,,,,,,,,,,,,,,,,,,,,,,,,,,,,,,,,,,,,,,,,,,,,,,,,,,,,,,,,,,,,,
,,,,,,5f248b7b1bde03086270bd37,62bbfa016e6855b2c603359f,2022-06-29_09h06.54.721,Colour_Asymmetry_Pilot,2022.1.3,Win32,60.00960154,62bbe60bf3d75ef465d3e404,0,121,121,106,1,twoone,,,,,,,,,,,,,,,,,,,,,,,,,,,,,,,,,,,,,,,,,,,,,,,,,,,,,,,,,,,,,,,,,,,,,,,,,,,,,,,,,,,,,,,,,,,,,,,,,,,,,,,,,,,,,,,,,,,,,,,,,,,,,,,,,,,,,,,,,,,,,,,,,,,,,,,,
,,,,,,5f248b7b1bde03086270bd37,62bbfa016e6855b2c603359f,2022-06-29_09h06.54.721,Colour_Asymmetry_Pilot,2022.1.3,Win32,60.00960154,62bbe60bf3d75ef465d3e404,0,122,122,30,1,fourtwo,,,,,,,,,,,,,,,,,,,,,,,,,,,,,,,,,,,,,,,,,,,,,,,,,,,,,,,,,,,,,,,,,,,,,,,,,,,,,,,,,,,,,,,,,,,,,,,,,,,,,,,,,,,,,,,,,,,,,,,,,,,,,,,,,,,,,,,,,,,,,,,,,,,,,,,,
,,,,,,5f248b7b1bde03086270bd37,62bbfa016e6855b2c603359f,2022-06-29_09h06.54.721,Colour_Asymmetry_Pilot,2022.1.3,Win32,60.00960154,62bbe60bf3d75ef465d3e404,0,123,123,65,1,onethree,,,,,,,,,,,,,,,,,,,,,,,,,,,,,,,,,,,,,,,,,,,,,,,,,,,,,,,,,,,,,,,,,,,,,,,,,,,,,,,,,,,,,,,,,,,,,,,,,,,,,,,,,,,,,,,,,,,,,,,,,,,,,,,,,,,,,,,,,,,,,,,,,,,,,,,,
,,,,,,5f248b7b1bde03086270bd37,62bbfa016e6855b2c603359f,2022-06-29_09h06.54.721,Colour_Asymmetry_Pilot,2022.1.3,Win32,60.00960154,62bbe60bf3d75ef465d3e404,0,124,124,110,1,fourtwo,,,,,,,,,,,,,,,,,,,,,,,,,,,,,,,,,,,,,,,,,,,,,,,,,,,,,,,,,,,,,,,,,,,,,,,,,,,,,,,,,,,,,,,,,,,,,,,,,,,,,,,,,,,,,,,,,,,,,,,,,,,,,,,,,,,,,,,,,,,,,,,,,,,,,,,,
,,,,,,5f248b7b1bde03086270bd37,62bbfa016e6855b2c603359f,2022-06-29_09h06.54.721,Colour_Asymmetry_Pilot,2022.1.3,Win32,60.00960154,62bbe60bf3d75ef465d3e404,0,125,125,48,1,onetwo,,,,,,,,,,,,,,,,,,,,,,,,,,,,,,,,,,,,,,,,,,,,,,,,,,,,,,,,,,,,,,,,,,,,,,,,,,,,,,,,,,,,,,,,,,,,,,,,,,,,,,,,,,,,,,,,,,,,,,,,,,,,,,,,,,,,,,,,,,,,,,,,,,,,,,,,
,,,,,,5f248b7b1bde03086270bd37,62bbfa016e6855b2c603359f,2022-06-29_09h06.54.721,Colour_Asymmetry_Pilot,2022.1.3,Win32,60.00960154,62bbe60bf3d75ef465d3e404,0,126,126,19,1,twofour,,,,,,,,,,,,,,,,,,,,,,,,,,,,,,,,,,,,,,,,,,,,,,,,,,,,,,,,,,,,,,,,,,,,,,,,,,,,,,,,,,,,,,,,,,,,,,,,,,,,,,,,,,,,,,,,,,,,,,,,,,,,,,,,,,,,,,,,,,,,,,,,,,,,,,,,
,,,,,,5f248b7b1bde03086270bd37,62bbfa016e6855b2c603359f,2022-06-29_09h06.54.721,Colour_Asymmetry_Pilot,2022.1.3,Win32,60.00960154,62bbe60bf3d75ef465d3e404,0,127,127,148,1,threeone,,,,,,,,,,,,,,,,,,,,,,,,,,,,,,,,,,,,,,,,,,,,,,,,,,,,,,,,,,,,,,,,,,,,,,,,,,,,,,,,,,,,,,,,,,,,,,,,,,,,,,,,,,,,,,,,,,,,,,,,,,,,,,,,,,,,,,,,,,,,,,,,,,,,,,,,
,,,,,,5f248b7b1bde03086270bd37,62bbfa016e6855b2c603359f,2022-06-29_09h06.54.721,Colour_Asymmetry_Pilot,2022.1.3,Win32,60.00960154,62bbe60bf3d75ef465d3e404,0,128,128,99,1,twofour,,,,,,,,,,,,,,,,,,,,,,,,,,,,,,,,,,,,,,,,,,,,,,,,,,,,,,,,,,,,,,,,,,,,,,,,,,,,,,,,,,,,,,,,,,,,,,,,,,,,,,,,,,,,,,,,,,,,,,,,,,,,,,,,,,,,,,,,,,,,,,,,,,,,,,,,
,,,,,,5f248b7b1bde03086270bd37,62bbfa016e6855b2c603359f,2022-06-29_09h06.54.721,Colour_Asymmetry_Pilot,2022.1.3,Win32,60.00960154,62bbe60bf3d75ef465d3e404,0,129,129,105,1,onethree,,,,,,,,,,,,,,,,,,,,,,,,,,,,,,,,,,,,,,,,,,,,,,,,,,,,,,,,,,,,,,,,,,,,,,,,,,,,,,,,,,,,,,,,,,,,,,,,,,,,,,,,,,,,,,,,,,,,,,,,,,,,,,,,,,,,,,,,,,,,,,,,,,,,,,,,
,,,,,,5f248b7b1bde03086270bd37,62bbfa016e6855b2c603359f,2022-06-29_09h06.54.721,Colour_Asymmetry_Pilot,2022.1.3,Win32,60.00960154,62bbe60bf3d75ef465d3e404,0,130,130,118,1,fourtwo,,,,,,,,,,,,,,,,,,,,,,,,,,,,,,,,,,,,,,,,,,,,,,,,,,,,,,,,,,,,,,,,,,,,,,,,,,,,,,,,,,,,,,,,,,,,,,,,,,,,,,,,,,,,,,,,,,,,,,,,,,,,,,,,,,,,,,,,,,,,,,,,,,,,,,,,
,,,,,,5f248b7b1bde03086270bd37,62bbfa016e6855b2c603359f,2022-06-29_09h06.54.721,Colour_Asymmetry_Pilot,2022.1.3,Win32,60.00960154,62bbe60bf3d75ef465d3e404,0,131,131,70,1,fourtwo,,,,,,,,,,,,,,,,,,,,,,,,,,,,,,,,,,,,,,,,,,,,,,,,,,,,,,,,,,,,,,,,,,,,,,,,,,,,,,,,,,,,,,,,,,,,,,,,,,,,,,,,,,,,,,,,,,,,,,,,,,,,,,,,,,,,,,,,,,,,,,,,,,,,,,,,
,,,,,,5f248b7b1bde03086270bd37,62bbfa016e6855b2c603359f,2022-06-29_09h06.54.721,Colour_Asymmetry_Pilot,2022.1.3,Win32,60.00960154,62bbe60bf3d75ef465d3e404,0,132,132,14,1,fourtwo,,,,,,,,,,,,,,,,,,,,,,,,,,,,,,,,,,,,,,,,,,,,,,,,,,,,,,,,,,,,,,,,,,,,,,,,,,,,,,,,,,,,,,,,,,,,,,,,,,,,,,,,,,,,,,,,,,,,,,,,,,,,,,,,,,,,,,,,,,,,,,,,,,,,,,,,
,,,,,,5f248b7b1bde03086270bd37,62bbfa016e6855b2c603359f,2022-06-29_09h06.54.721,Colour_Asymmetry_Pilot,2022.1.3,Win32,60.00960154,62bbe60bf3d75ef465d3e404,0,133,133,92,1,threeone,,,,,,,,,,,,,,,,,,,,,,,,,,,,,,,,,,,,,,,,,,,,,,,,,,,,,,,,,,,,,,,,,,,,,,,,,,,,,,,,,,,,,,,,,,,,,,,,,,,,,,,,,,,,,,,,,,,,,,,,,,,,,,,,,,,,,,,,,,,,,,,,,,,,,,,,
,,,,,,5f248b7b1bde03086270bd37,62bbfa016e6855b2c603359f,2022-06-29_09h06.54.721,Colour_Asymmetry_Pilot,2022.1.3,Win32,60.00960154,62bbe60bf3d75ef465d3e404,0,134,134,12,1,threeone,,,,,,,,,,,,,,,,,,,,,,,,,,,,,,,,,,,,,,,,,,,,,,,,,,,,,,,,,,,,,,,,,,,,,,,,,,,,,,,,,,,,,,,,,,,,,,,,,,,,,,,,,,,,,,,,,,,,,,,,,,,,,,,,,,,,,,,,,,,,,,,,,,,,,,,,
,,,,,,5f248b7b1bde03086270bd37,62bbfa016e6855b2c603359f,2022-06-29_09h06.54.721,Colour_Asymmetry_Pilot,2022.1.3,Win32,60.00960154,62bbe60bf3d75ef465d3e404,0,135,135,109,1,threefour,,,,,,,,,,,,,,,,,,,,,,,,,,,,,,,,,,,,,,,,,,,,,,,,,,,,,,,,,,,,,,,,,,,,,,,,,,,,,,,,,,,,,,,,,,,,,,,,,,,,,,,,,,,,,,,,,,,,,,,,,,,,,,,,,,,,,,,,,,,,,,,,,,,,,,,,
,,,,,,5f248b7b1bde03086270bd37,62bbfa016e6855b2c603359f,2022-06-29_09h06.54.721,Colour_Asymmetry_Pilot,2022.1.3,Win32,60.00960154,62bbe60bf3d75ef465d3e404,0,136,136,3,1,twofour,,,,,,,,,,,,,,,,,,,,,,,,,,,,,,,,,,,,,,,,,,,,,,,,,,,,,,,,,,,,,,,,,,,,,,,,,,,,,,,,,,,,,,,,,,,,,,,,,,,,,,,,,,,,,,,,,,,,,,,,,,,,,,,,,,,,,,,,,,,,,,,,,,,,,,,,
,,,,,,5f248b7b1bde03086270bd37,62bbfa016e6855b2c603359f,2022-06-29_09h06.54.721,Colour_Asymmetry_Pilot,2022.1.3,Win32,60.00960154,62bbe60bf3d75ef465d3e404,0,137,137,89,1,onethree,,,,,,,,,,,,,,,,,,,,,,,,,,,,,,,,,,,,,,,,,,,,,,,,,,,,,,,,,,,,,,,,,,,,,,,,,,,,,,,,,,,,,,,,,,,,,,,,,,,,,,,,,,,,,,,,,,,,,,,,,,,,,,,,,,,,,,,,,,,,,,,,,,,,,,,,
,,,,,,5f248b7b1bde03086270bd37,62bbfa016e6855b2c603359f,2022-06-29_09h06.54.721,Colour_Asymmetry_Pilot,2022.1.3,Win32,60.00960154,62bbe60bf3d75ef465d3e404,0,138,138,40,1,onetwo,,,,,,,,,,,,,,,,,,,,,,,,,,,,,,,,,,,,,,,,,,,,,,,,,,,,,,,,,,,,,,,,,,,,,,,,,,,,,,,,,,,,,,,,,,,,,,,,,,,,,,,,,,,,,,,,,,,,,,,,,,,,,,,,,,,,,,,,,,,,,,,,,,,,,,,,
,,,,,,5f248b7b1bde03086270bd37,62bbfa016e6855b2c603359f,2022-06-29_09h06.54.721,Colour_Asymmetry_Pilot,2022.1.3,Win32,60.00960154,62bbe60bf3d75ef465d3e404,0,139,139,155,1,twofour,,,,,,,,,,,,,,,,,,,,,,,,,,,,,,,,,,,,,,,,,,,,,,,,,,,,,,,,,,,,,,,,,,,,,,,,,,,,,,,,,,,,,,,,,,,,,,,,,,,,,,,,,,,,,,,,,,,,,,,,,,,,,,,,,,,,,,,,,,,,,,,,,,,,,,,,
,,,,,,5f248b7b1bde03086270bd37,62bbfa016e6855b2c603359f,2022-06-29_09h06.54.721,Colour_Asymmetry_Pilot,2022.1.3,Win32,60.00960154,62bbe60bf3d75ef465d3e404,0,140,140,9,1,onethree,,,,,,,,,,,,,,,,,,,,,,,,,,,,,,,,,,,,,,,,,,,,,,,,,,,,,,,,,,,,,,,,,,,,,,,,,,,,,,,,,,,,,,,,,,,,,,,,,,,,,,,,,,,,,,,,,,,,,,,,,,,,,,,,,,,,,,,,,,,,,,,,,,,,,,,,
,,,,,,5f248b7b1bde03086270bd37,62bbfa016e6855b2c603359f,2022-06-29_09h06.54.721,Colour_Asymmetry_Pilot,2022.1.3,Win32,60.00960154,62bbe60bf3d75ef465d3e404,0,141,141,154,1,twoone,,,,,,,,,,,,,,,,,,,,,,,,,,,,,,,,,,,,,,,,,,,,,,,,,,,,,,,,,,,,,,,,,,,,,,,,,,,,,,,,,,,,,,,,,,,,,,,,,,,,,,,,,,,,,,,,,,,,,,,,,,,,,,,,,,,,,,,,,,,,,,,,,,,,,,,,
,,,,,,5f248b7b1bde03086270bd37,62bbfa016e6855b2c603359f,2022-06-29_09h06.54.721,Colour_Asymmetry_Pilot,2022.1.3,Win32,60.00960154,62bbe60bf3d75ef465d3e404,0,142,142,45,1,threefour,,,,,,,,,,,,,,,,,,,,,,,,,,,,,,,,,,,,,,,,,,,,,,,,,,,,,,,,,,,,,,,,,,,,,,,,,,,,,,,,,,,,,,,,,,,,,,,,,,,,,,,,,,,,,,,,,,,,,,,,,,,,,,,,,,,,,,,,,,,,,,,,,,,,,,,,
,,,,,,5f248b7b1bde03086270bd37,62bbfa016e6855b2c603359f,2022-06-29_09h06.54.721,Colour_Asymmetry_Pilot,2022.1.3,Win32,60.00960154,62bbe60bf3d75ef465d3e404,0,143,143,156,1,threeone,,,,,,,,,,,,,,,,,,,,,,,,,,,,,,,,,,,,,,,,,,,,,,,,,,,,,,,,,,,,,,,,,,,,,,,,,,,,,,,,,,,,,,,,,,,,,,,,,,,,,,,,,,,,,,,,,,,,,,,,,,,,,,,,,,,,,,,,,,,,,,,,,,,,,,,,
,,,,,,5f248b7b1bde03086270bd37,62bbfa016e6855b2c603359f,2022-06-29_09h06.54.721,Colour_Asymmetry_Pilot,2022.1.3,Win32,60.00960154,62bbe60bf3d75ef465d3e404,0,144,144,158,1,fourtwo,,,,,,,,,,,,,,,,,,,,,,,,,,,,,,,,,,,,,,,,,,,,,,,,,,,,,,,,,,,,,,,,,,,,,,,,,,,,,,,,,,,,,,,,,,,,,,,,,,,,,,,,,,,,,,,,,,,,,,,,,,,,,,,,,,,,,,,,,,,,,,,,,,,,,,,,
,,,,,,5f248b7b1bde03086270bd37,62bbfa016e6855b2c603359f,2022-06-29_09h06.54.721,Colour_Asymmetry_Pilot,2022.1.3,Win32,60.00960154,62bbe60bf3d75ef465d3e404,0,145,145,23,1,fourthree,,,,,,,,,,,,,,,,,,,,,,,,,,,,,,,,,,,,,,,,,,,,,,,,,,,,,,,,,,,,,,,,,,,,,,,,,,,,,,,,,,,,,,,,,,,,,,,,,,,,,,,,,,,,,,,,,,,,,,,,,,,,,,,,,,,,,,,,,,,,,,,,,,,,,,,,
,,,,,,5f248b7b1bde03086270bd37,62bbfa016e6855b2c603359f,2022-06-29_09h06.54.721,Colour_Asymmetry_Pilot,2022.1.3,Win32,60.00960154,62bbe60bf3d75ef465d3e404,0,146,146,147,1,twofour,,,,,,,,,,,,,,,,,,,,,,,,,,,,,,,,,,,,,,,,,,,,,,,,,,,,,,,,,,,,,,,,,,,,,,,,,,,,,,,,,,,,,,,,,,,,,,,,,,,,,,,,,,,,,,,,,,,,,,,,,,,,,,,,,,,,,,,,,,,,,,,,,,,,,,,,
,,,,,,5f248b7b1bde03086270bd37,62bbfa016e6855b2c603359f,2022-06-29_09h06.54.721,Colour_Asymmetry_Pilot,2022.1.3,Win32,60.00960154,62bbe60bf3d75ef465d3e404,0,147,147,145,1,onethree,,,,,,,,,,,,,,,,,,,,,,,,,,,,,,,,,,,,,,,,,,,,,,,,,,,,,,,,,,,,,,,,,,,,,,,,,,,,,,,,,,,,,,,,,,,,,,,,,,,,,,,,,,,,,,,,,,,,,,,,,,,,,,,,,,,,,,,,,,,,,,,,,,,,,,,,
,,,,,,5f248b7b1bde03086270bd37,62bbfa016e6855b2c603359f,2022-06-29_09h06.54.721,Colour_Asymmetry_Pilot,2022.1.3,Win32,60.00960154,62bbe60bf3d75ef465d3e404,0,148,148,28,1,threeone,,,,,,,,,,,,,,,,,,,,,,,,,,,,,,,,,,,,,,,,,,,,,,,,,,,,,,,,,,,,,,,,,,,,,,,,,,,,,,,,,,,,,,,,,,,,,,,,,,,,,,,,,,,,,,,,,,,,,,,,,,,,,,,,,,,,,,,,,,,,,,,,,,,,,,,,
,,,,,,5f248b7b1bde03086270bd37,62bbfa016e6855b2c603359f,2022-06-29_09h06.54.721,Colour_Asymmetry_Pilot,2022.1.3,Win32,60.00960154,62bbe60bf3d75ef465d3e404,0,149,149,124,1,threeone,,,,,,,,,,,,,,,,,,,,,,,,,,,,,,,,,,,,,,,,,,,,,,,,,,,,,,,,,,,,,,,,,,,,,,,,,,,,,,,,,,,,,,,,,,,,,,,,,,,,,,,,,,,,,,,,,,,,,,,,,,,,,,,,,,,,,,,,,,,,,,,,,,,,,,,,
,,,,,,5f248b7b1bde03086270bd37,62bbfa016e6855b2c603359f,2022-06-29_09h06.54.721,Colour_Asymmetry_Pilot,2022.1.3,Win32,60.00960154,62bbe60bf3d75ef465d3e404,0,150,150,157,1,threefour,,,,,,,,,,,,,,,,,,,,,,,,,,,,,,,,,,,,,,,,,,,,,,,,,,,,,,,,,,,,,,,,,,,,,,,,,,,,,,,,,,,,,,,,,,,,,,,,,,,,,,,,,,,,,,,,,,,,,,,,,,,,,,,,,,,,,,,,,,,,,,,,,,,,,,,,
,,,,,,5f248b7b1bde03086270bd37,62bbfa016e6855b2c603359f,2022-06-29_09h06.54.721,Colour_Asymmetry_Pilot,2022.1.3,Win32,60.00960154,62bbe60bf3d75ef465d3e404,0,151,151,62,1,fourtwo,,,,,,,,,,,,,,,,,,,,,,,,,,,,,,,,,,,,,,,,,,,,,,,,,,,,,,,,,,,,,,,,,,,,,,,,,,,,,,,,,,,,,,,,,,,,,,,,,,,,,,,,,,,,,,,,,,,,,,,,,,,,,,,,,,,,,,,,,,,,,,,,,,,,,,,,
,,,,,,5f248b7b1bde03086270bd37,62bbfa016e6855b2c603359f,2022-06-29_09h06.54.721,Colour_Asymmetry_Pilot,2022.1.3,Win32,60.00960154,62bbe60bf3d75ef465d3e404,0,152,152,55,1,fourthree,,,,,,,,,,,,,,,,,,,,,,,,,,,,,,,,,,,,,,,,,,,,,,,,,,,,,,,,,,,,,,,,,,,,,,,,,,,,,,,,,,,,,,,,,,,,,,,,,,,,,,,,,,,,,,,,,,,,,,,,,,,,,,,,,,,,,,,,,,,,,,,,,,,,,,,,
,,,,,,5f248b7b1bde03086270bd37,62bbfa016e6855b2c603359f,2022-06-29_09h06.54.721,Colour_Asymmetry_Pilot,2022.1.3,Win32,60.00960154,62bbe60bf3d75ef465d3e404,0,153,153,43,1,twofour,,,,,,,,,,,,,,,,,,,,,,,,,,,,,,,,,,,,,,,,,,,,,,,,,,,,,,,,,,,,,,,,,,,,,,,,,,,,,,,,,,,,,,,,,,,,,,,,,,,,,,,,,,,,,,,,,,,,,,,,,,,,,,,,,,,,,,,,,,,,,,,,,,,,,,,,
,,,,,,5f248b7b1bde03086270bd37,62bbfa016e6855b2c603359f,2022-06-29_09h06.54.721,Colour_Asymmetry_Pilot,2022.1.3,Win32,60.00960154,62bbe60bf3d75ef465d3e404,0,154,154,16,1,onetwo,,,,,,,,,,,,,,,,,,,,,,,,,,,,,,,,,,,,,,,,,,,,,,,,,,,,,,,,,,,,,,,,,,,,,,,,,,,,,,,,,,,,,,,,,,,,,,,,,,,,,,,,,,,,,,,,,,,,,,,,,,,,,,,,,,,,,,,,,,,,,,,,,,,,,,,,
,,,,,,5f248b7b1bde03086270bd37,62bbfa016e6855b2c603359f,2022-06-29_09h06.54.721,Colour_Asymmetry_Pilot,2022.1.3,Win32,60.00960154,62bbe60bf3d75ef465d3e404,0,155,155,10,1,twoone,,,,,,,,,,,,,,,,,,,,,,,,,,,,,,,,,,,,,,,,,,,,,,,,,,,,,,,,,,,,,,,,,,,,,,,,,,,,,,,,,,,,,,,,,,,,,,,,,,,,,,,,,,,,,,,,,,,,,,,,,,,,,,,,,,,,,,,,,,,,,,,,,,,,,,,,
,,,,,,5f248b7b1bde03086270bd37,62bbfa016e6855b2c603359f,2022-06-29_09h06.54.721,Colour_Asymmetry_Pilot,2022.1.3,Win32,60.00960154,62bbe60bf3d75ef465d3e404,0,156,156,150,1,fourtwo,,,,,,,,,,,,,,,,,,,,,,,,,,,,,,,,,,,,,,,,,,,,,,,,,,,,,,,,,,,,,,,,,,,,,,,,,,,,,,,,,,,,,,,,,,,,,,,,,,,,,,,,,,,,,,,,,,,,,,,,,,,,,,,,,,,,,,,,,,,,,,,,,,,,,,,,
,,,,,,5f248b7b1bde03086270bd37,62bbfa016e6855b2c603359f,2022-06-29_09h06.54.721,Colour_Asymmetry_Pilot,2022.1.3,Win32,60.00960154,62bbe60bf3d75ef465d3e404,0,157,157,41,1,onethree,,,,,,,,,,,,,,,,,,,,,,,,,,,,,,,,,,,,,,,,,,,,,,,,,,,,,,,,,,,,,,,,,,,,,,,,,,,,,,,,,,,,,,,,,,,,,,,,,,,,,,,,,,,,,,,,,,,,,,,,,,,,,,,,,,,,,,,,,,,,,,,,,,,,,,,,
,,,,,,5f248b7b1bde03086270bd37,62bbfa016e6855b2c603359f,2022-06-29_09h06.54.721,Colour_Asymmetry_Pilot,2022.1.3,Win32,60.00960154,62bbe60bf3d75ef465d3e404,0,158,158,31,1,fourthree,,,,,,,,,,,,,,,,,,,,,,,,,,,,,,,,,,,,,,,,,,,,,,,,,,,,,,,,,,,,,,,,,,,,,,,,,,,,,,,,,,,,,,,,,,,,,,,,,,,,,,,,,,,,,,,,,,,,,,,,,,,,,,,,,,,,,,,,,,,,,,,,,,,,,,,,
,,,,,,5f248b7b1bde03086270bd37,62bbfa016e6855b2c603359f,2022-06-29_09h06.54.721,Colour_Asymmetry_Pilot,2022.1.3,Win32,60.00960154,62bbe60bf3d75ef465d3e404,0,159,159,128,1,onetwo,,,,,,,,,,,,,,,,,,,,,,,,,,,,,,,,,,,,,,,,,,,,,,,,,,,,,,,,,,,,,,,,,,,,,,,,,,,,,,,,,,,,,,,,,,,,,,,,,,,,,,,,,,,,,,,,,,,,,,,,,,,,,,,,,,,,,,,,,,,,,,,,,,,,,,,,
,,,,,,5f248b7b1bde03086270bd37,62bbfa016e6855b2c603359f,2022-06-29_09h06.54.721,Colour_Asymmetry_Pilot,2022.1.3,Win32,60.00960154,62bbe60bf3d75ef465d3e404,0,160,160,68,1,threeone,,,,,,,,,,,,,,,,,,,,,,,,,,,,,,,,,,,,,,,,,,,,,,,,,,,,,,,,,,,,,,,,,,,,,,,,,,,,,,,,,,,,,,,,,,,,,,,,,,,,,,,,,,,,,,,,,,,,,,,,,,,,,,,,,,,,,,,,,,,,,,,,,,,,,,,,
,,,,,,5f248b7b1bde03086270bd37,62bbfa016e6855b2c603359f,2022-06-29_09h06.54.721,Colour_Asymmetry_Pilot,2022.1.3,Win32,60.00960154,62bbe60bf3d75ef465d3e404,0,161,161,103,1,fourthree,,,,,,,,,,,,,,,,,,,,,,,,,,,,,,,,,,,,,,,,,,,,,,,,,,,,,,,,,,,,,,,,,,,,,,,,,,,,,,,,,,,,,,,,,,,,,,,,,,,,,,,,,,,,,,,,,,,,,,,,,,,,,,,,,,,,,,,,,,,,,,,,,,,,,,,,
,,,,,,5f248b7b1bde03086270bd37,62bbfa016e6855b2c603359f,2022-06-29_09h06.54.721,Colour_Asymmetry_Pilot,2022.1.3,Win32,60.00960154,62bbe60bf3d75ef465d3e404,,,,,,,space,11.9839,space,5.5293,space,54.8947,space,2.6385,space,0.7788,space,7.297,"[-0.17659999999999998,-0.2864,-0.8354]",fourtwo,"[-0.06680000000000008,-0.45100000000000007,-0.906]",4,4.8363,59,107,1,0,0,response1disk_5,5,1,1,0,0,rectangle_8,46,-121,1,0,0,response3disk_7,4,1,14,-8,1,0,0,rectangle_4,0,0,0,0,1,,,,,,,,,,,,,,,,,,,,,,,,,,,,,,,,,,,,,,,,,,,,,,,,,,,,,,,,,,,,,,,,,,,,,,,,,,,,,,,,,,,,,,,,,,,,,,,,,,,,,,,,
,,,,,,5f248b7b1bde03086270bd37,62bbfa016e6855b2c603359f,2022-06-29_09h06.54.721,Colour_Asymmetry_Pilot,2022.1.3,Win32,60.00960154,62bbe60bf3d75ef465d3e404,,,,,,,,,,,,,,,,,,,"[-0.34920000000000007,-0.702,-0.5216]",onethree,"[-0.2942,-0.7648,-0.7492000000000001]",2,1.5456,110,-63,1,0,0,response3disk_5,17,-2,1,0,0,rectangle_8,17,-2,1,0,0,,,1,17,-2,1,0,0,,1,0,1,0,1,,,,,,,,,,,,,,,,,,,,,,,,,,,,,,,,,,,,,,,,,,,,,,,,,,,,,,,,,,,,,,,,,,,,,,,,,,,,,,,,,,,,,,,,,,,,,,,,,,,,,,,,
,,,,,,5f248b7b1bde03086270bd37,62bbfa016e6855b2c603359f,2022-06-29_09h06.54.721,Colour_Asymmetry_Pilot,2022.1.3,Win32,60.00960154,62bbe60bf3d75ef465d3e404,,,,,,,,,,,,,,,,,,,"[-0.4276,0.0038000000000000256,-0.3256]",fourthree,"[0.7018,0.7802,-0.16079999999999994]",-4,1.4897,-45,98,1,0,0,response7disk_5,-30,-2,1,0,0,rectangle_8,-30,-2,1,0,0,,,1,-30,-2,1,0,0,,2,0,2,0,1,,,,,,,,,,,,,,,,,,,,,,,,,,,,,,,,,,,,,,,,,,,,,,,,,,,,,,,,,,,,,,,,,,,,,,,,,,,,,,,,,,,,,,,,,,,,,,,,,,,,,,,,
,,,,,,5f248b7b1bde03086270bd37,62bbfa016e6855b2c603359f,2022-06-29_09h06.54.721,Colour_Asymmetry_Pilot,2022.1.3,Win32,60.00960154,62bbe60bf3d75ef465d3e404,,,,,,,,,,,,,,,,,,,"[0.7018,0.7176,0.6155999999999999]",onetwo,"[-0.6235999999999999,-0.6786,-0.08239999999999992]",-4,2.45,-39,97,1,0,0,response7disk_5,15,3,1,0,0,rectangle_8,15,3,1,0,0,,,1,15,3,1,0,0,,3,0,3,0,1,,,,,,,,,,,,,,,,,,,,,,,,,,,,,,,,,,,,,,,,,,,,,,,,,,,,,,,,,,,,,,,,,,,,,,,,,,,,,,,,,,,,,,,,,,,,,,,,,,,,,,,,
,,,,,,5f248b7b1bde03086270bd37,62bbfa016e6855b2c603359f,2022-06-29_09h06.54.721,Colour_Asymmetry_Pilot,2022.1.3,Win32,60.00960154,62bbe60bf3d75ef465d3e404,,,,,,,,,,,,,,,,,,,"[-0.45899999999999996,-0.3256,-0.9374]",onethree,"[-0.8198,-0.5138,-0.7492000000000001]",2,1.6003,125,-57,1,0,0,response3disk_5,0,0,1,0,0,rectangle_8,0,0,1,0,0,,,1,0,0,1,0,0,,4,0,4,0,1,,,,,,,,,,,,,,,,,,,,,,,,,,,,,,,,,,,,,,,,,,,,,,,,,,,,,,,,,,,,,,,,,,,,,,,,,,,,,,,,,,,,,,,,,,,,,,,,,,,,,,,,
,,,,,,5f248b7b1bde03086270bd37,62bbfa016e6855b2c603359f,2022-06-29_09h06.54.721,Colour_Asymmetry_Pilot,2022.1.3,Win32,60.00960154,62bbe60bf3d75ef465d3e404,,,,,,,,,,,,,,,,,,,"[0.8115999999999999,-0.0040000000000000036,-0.09819999999999995]",fourtwo,"[-0.8198,-0.5138,-0.7492000000000001]",-3,1.1241,-74,36,1,0,0,response7disk_5,18,9,1,0,0,rectangle_8,18,9,1,0,0,,,1,18,9,1,0,0,,5,0,5,0,1,,,,,,,,,,,,,,,,,,,,,,,,,,,,,,,,,,,,,,,,,,,,,,,,,,,,,,,,,,,,,,,,,,,,,,,,,,,,,,,,,,,,,,,,,,,,,,,,,,,,,,,,
,,,,,,5f248b7b1bde03086270bd37,62bbfa016e6855b2c603359f,2022-06-29_09h06.54.721,Colour_Asymmetry_Pilot,2022.1.3,Win32,60.00960154,62bbe60bf3d75ef465d3e404,,,,,,,,,,,,,,,,,,,"[-0.4902000000000001,0.2704,-0.45899999999999996]",twofour,"[-0.38039999999999996,-0.4276,-0.1452]",-4,1.4114,-22,80,1,0,0,response7disk_5,-2,2,1,0,0,rectangle_8,-2,2,1,0,0,,,1,-2,2,1,0,0,,6,0,6,0,1,,,,,,,,,,,,,,,,,,,,,,,,,,,,,,,,,,,,,,,,,,,,,,,,,,,,,,,,,,,,,,,,,,,,,,,,,,,,,,,,,,,,,,,,,,,,,,,,,,,,,,,,
,,,,,,5f248b7b1bde03086270bd37,62bbfa016e6855b2c603359f,2022-06-29_09h06.54.721,Colour_Asymmetry_Pilot,2022.1.3,Win32,60.00960154,62bbe60bf3d75ef465d3e404,,,,,,,,,,,,,,,,,,,,twofour,,-2,1.2968,,,,,,,,,,,,,,,,,,,,,,,,,,,,,,,,space,1.7168,"[0.9763999999999999,-0.1137999999999999,-0.6314]","[0.9213999999999998,0.6391999999999998,-0.9922]",-96,-44,1,0,0,response5disk,8,-3,1,0,0,rectangle,112,38,1,0,0,response1disk_3,3,3,3.8265,1,12,4,1,0,0,rectangle,0,0,0,36,1,36,first,,,,,,,,,,,,,,,,,,,,,,,,,,,,,,,,,,,,,,,,,,,,,,,,,,,,,,,,,,,,,,,,,
,,,,,,5f248b7b1bde03086270bd37,62bbfa016e6855b2c603359f,2022-06-29_09h06.54.721,Colour_Asymmetry_Pilot,2022.1.3,Win32,60.00960154,62bbe60bf3d75ef465d3e404,,,,,,,,,,,,,,,,,,,,twofour,,-1,0.9497,,,,,,,,,,,,,,,,,,,,,,,,,,,,,,,,,,"[-0.48240000000000005,0.3175999999999999,0.2156]","[-0.07459999999999989,0.12139999999999995,-0.9922]",-31,-93,1,0,0,response5disk,3,-7,1,0,0,rectangle,3,-7,1,0,0,,3,3,1E-04,0,3,-7,1,0,0,,0,1,1,102,1,21,second,,,,,,,,,,,,,,,,,,,,,,,,,,,,,,,,,,,,,,,,,,,,,,,,,,,,,,,,,,,,,,,,,
,,,,,,5f248b7b1bde03086270bd37,62bbfa016e6855b2c603359f,2022-06-29_09h06.54.721,Colour_Asymmetry_Pilot,2022.1.3,Win32,60.00960154,62bbe60bf3d75ef465d3e404,,,,,,,,,,,,,,,,,,,,onethree,,-2,0.5956,,,,,,,,,,,,,,,,,,,,,,,,,,,,,,,,,,"[0.23920000000000008,0.2704,0.16060000000000008]","[0.37240000000000006,-0.050999999999999934,-0.5216]",-110,-32,1,0,0,response5disk,15,-3,1,0,0,rectangle,15,-3,1,0,0,,3,3,0.0001,0,15,-3,1,0,0,,0,2,2,46,1,46,first,,,,,,,,,,,,,,,,,,,,,,,,,,,,,,,,,,,,,,,,,,,,,,,,,,,,,,,,,,,,,,,,,
,,,,,,5f248b7b1bde03086270bd37,62bbfa016e6855b2c603359f,2022-06-29_09h06.54.721,Colour_Asymmetry_Pilot,2022.1.3,Win32,60.00960154,62bbe60bf3d75ef465d3e404,,,,,,,,,,,,,,,,,,,,onetwo,,-3,0.5229,,,,,,,,,,,,,,,,,,,,,,,,,,,,,,,,,,"[-0.06680000000000008,-0.45100000000000007,-0.906]","[0.4196,0.4665999999999999,0.3568]",-144,49,1,0,0,response7disk,18,-6,1,0,0,rectangle,18,-6,1,0,0,,3,1,0.0008,0,18,-6,1,0,0,,0,3,3,113,1,32,second,,,,,,,,,,,,,,,,,,,,,,,,,,,,,,,,,,,,,,,,,,,,,,,,,,,,,,,,,,,,,,,,,
,,,,,,5f248b7b1bde03086270bd37,62bbfa016e6855b2c603359f,2022-06-29_09h06.54.721,Colour_Asymmetry_Pilot,2022.1.3,Win32,60.00960154,62bbe60bf3d75ef465d3e404,,,,,,,,,,,,,,,,,,,,onethree,,-4,0.4981,,,,,,,,,,,,,,,,,,,,,,,,,,,,,,,,,,"[0.9686000000000001,0.5763999999999998,0.11359999999999992]","[-0.8198,-0.5138,-0.7492000000000001]",-53,93,1,0,0,response7disk,0,19,1,0,0,rectangle,0,19,1,0,0,,3,2,0.0008,0,0,19,1,0,0,,0,4,4,4,1,4,first,,,,,,,,,,,,,,,,,,,,,,,,,,,,,,,,,,,,,,,,,,,,,,,,,,,,,,,,,,,,,,,,,
,,,,,,5f248b7b1bde03086270bd37,62bbfa016e6855b2c603359f,2022-06-29_09h06.54.721,Colour_Asymmetry_Pilot,2022.1.3,Win32,60.00960154,62bbe60bf3d75ef465d3e404,,,,,,,,,,,,,,,,,,,,twoone,,-2,0.6364,,,,,,,,,,,,,,,,,,,,,,,,,,,,,,,,,,"[0.9686000000000001,0.5763999999999998,0.11359999999999992]","[0.2862,0.7802,0.3568]",-96,-59,1,0,0,response5disk,24,5,1,0,0,rectangle,24,5,1,0,0,,3,3,0.0007,0,24,5,1,0,0,,0,5,5,51,1,51,first,,,,,,,,,,,,,,,,,,,,,,,,,,,,,,,,,,,,,,,,,,,,,,,,,,,,,,,,,,,,,,,,,
,,,,,,5f248b7b1bde03086270bd37,62bbfa016e6855b2c603359f,2022-06-29_09h06.54.721,Colour_Asymmetry_Pilot,2022.1.3,Win32,60.00960154,62bbe60bf3d75ef465d3e404,,,,,,,,,,,,,,,,,,,,threefour,,4,0.5254,,,,,,,,,,,,,,,,,,,,,,,,,,,,,,,,,,"[-0.9766,-0.34920000000000007,0.2156]","[-0.8982,-0.37259999999999993,0.2784]",80,130,1,0,0,response1disk,11,0,1,0,0,rectangle,11,0,1,0,0,,3,1,0.0006,0,11,0,1,0,0,,0,6,6,95,1,14,second,,,,,,,,,,,,,,,,,,,,,,,,,,,,,,,,,,,,,,,,,,,,,,,,,,,,,,,,,,,,,,,,,
,,,,,,5f248b7b1bde03086270bd37,62bbfa016e6855b2c603359f,2022-06-29_09h06.54.721,Colour_Asymmetry_Pilot,2022.1.3,Win32,60.00960154,62bbe60bf3d75ef465d3e404,,,,,,,,,,,,,,,,,,,,threeone,,1,0.657,,,,,,,,,,,,,,,,,,,,,,,,,,,,,,,,,,"[0.9686000000000001,0.5763999999999998,0.11359999999999992]","[0.23920000000000008,0.2704,0.16060000000000008]",47,-116,1,0,0,response3disk,27,7,1,0,0,rectangle,27,7,1,0,0,,3,1,1E-04,0,27,7,1,0,0,,0,7,7,149,1,68,second,,,,,,,,,,,,,,,,,,,,,,,,,,,,,,,,,,,,,,,,,,,,,,,,,,,,,,,,,,,,,,,,,
,,,,,,5f248b7b1bde03086270bd37,62bbfa016e6855b2c603359f,2022-06-29_09h06.54.721,Colour_Asymmetry_Pilot,2022.1.3,Win32,60.00960154,62bbe60bf3d75ef465d3e404,,,,,,,,,,,,,,,,,,,,threefour,,-3,0.6008,,,,,,,,,,,,,,,,,,,,,,,,,,,,,,,,,,"[0.9213999999999998,0.6391999999999998,-0.9922]","[-0.17659999999999998,-0.2864,-0.8354]",-94,38,1,0,0,response7disk,22,-1,1,0,0,rectangle,22,-1,1,0,0,,3,1,0.0002,0,22,-1,1,0,0,,0,8,8,45,1,45,first,,,,,,,,,,,,,,,,,,,,,,,,,,,,,,,,,,,,,,,,,,,,,,,,,,,,,,,,,,,,,,,,,
,,,,,,5f248b7b1bde03086270bd37,62bbfa016e6855b2c603359f,2022-06-29_09h06.54.721,Colour_Asymmetry_Pilot,2022.1.3,Win32,60.00960154,62bbe60bf3d75ef465d3e404,,,,,,,,,,,,,,,,,,,,fourtwo,,-4,0.3504,,,,,,,,,,,,,,,,,,,,,,,,,,,,,,,,,,"[0.9842,0.7409999999999999,-0.6628000000000001]","[-0.9844,-0.9688,-0.9922]",-51,104,1,0,0,response7disk,4,-3,1,0,0,rectangle,4,-3,1,0,0,,3,3,0.0006,0,4,-3,1,0,0,,0,9,9,109,1,28,second,,,,,,,,,,,,,,,,,,,,,,,,,,,,,,,,,,,,,,,,,,,,,,,,,,,,,,,,,,,,,,,,,
,,,,,,5f248b7b1bde03086270bd37,62bbfa016e6855b2c603359f,2022-06-29_09h06.54.721,Colour_Asymmetry_Pilot,2022.1.3,Win32,60.00960154,62bbe60bf3d75ef465d3e404,,,,,,,,,,,,,,,,,,,,threefour,,1,0.6869,,,,,,,,,,,,,,,,,,,,,,,,,,,,,,,,,,"[-0.9216,-0.5529999999999999,-0.3962]","[-0.26280000000000003,-0.2158,-0.3256]",46,-113,1,0,0,response3disk,-6,5,1,0,0,rectangle,-6,5,1,0,0,,3,2,0.0007,0,-6,5,1,0,0,,0,10,10,15,1,15,first,,,,,,,,,,,,,,,,,,,,,,,,,,,,,,,,,,,,,,,,,,,,,,,,,,,,,,,,,,,,,,,,,
,,,,,,5f248b7b1bde03086270bd37,62bbfa016e6855b2c603359f,2022-06-29_09h06.54.721,Colour_Asymmetry_Pilot,2022.1.3,Win32,60.00960154,62bbe60bf3d75ef465d3e404,,,,,,,,,,,,,,,,,,,,twoone,,-2,0.6099,,,,,,,,,,,,,,,,,,,,,,,,,,,,,,,,,,"[-0.06680000000000008,-0.45100000000000007,-0.906]","[-0.9688,-0.38039999999999996,-0.41979999999999995]",-91,-39,1,0,0,response5disk,13,-20,1,0,0,rectangle,13,-20,1,0,0,,3,3,0.0007,0,13,-20,1,0,0,,0,11,11,17,1,17,first,,,,,,,,,,,,,,,,,,,,,,,,,,,,,,,,,,,,,,,,,,,,,,,,,,,,,,,,,,,,,,,,,
,,,,,,5f248b7b1bde03086270bd37,62bbfa016e6855b2c603359f,2022-06-29_09h06.54.721,Colour_Asymmetry_Pilot,2022.1.3,Win32,60.00960154,62bbe60bf3d75ef465d3e404,,,,,,,,,,,,,,,,,,,,twoone,,-3,0.4148,,,,,,,,,,,,,,,,,,,,,,,,,,,,,,,,,,"[0.3802000000000001,0.19199999999999995,-0.6394]","[0.3881999999999999,-0.23939999999999995,-0.05040000000000011]",-115,67,1,0,0,response7disk,8,-12,1,0,0,rectangle,8,-12,1,0,0,,3,3,0.0002,0,8,-12,1,0,0,,0,12,12,100,1,19,second,,,,,,,,,,,,,,,,,,,,,,,,,,,,,,,,,,,,,,,,,,,,,,,,,,,,,,,,,,,,,,,,,
,,,,,,5f248b7b1bde03086270bd37,62bbfa016e6855b2c603359f,2022-06-29_09h06.54.721,Colour_Asymmetry_Pilot,2022.1.3,Win32,60.00960154,62bbe60bf3d75ef465d3e404,,,,,,,,,,,,,,,,,,,,twofour,,-3,0.3717,,,,,,,,,,,,,,,,,,,,,,,,,,,,,,,,,,"[0.9686000000000001,0.5763999999999998,0.11359999999999992]","[0.30180000000000007,-0.7884,-0.9844]",-126,54,1,0,0,response7disk,17,-11,1,0,0,rectangle,17,-11,1,0,0,,3,3,1E-04,0,17,-11,1,0,0,,0,13,13,33,1,33,first,,,,,,,,,,,,,,,,,,,,,,,,,,,,,,,,,,,,,,,,,,,,,,,,,,,,,,,,,,,,,,,,,
,,,,,,5f248b7b1bde03086270bd37,62bbfa016e6855b2c603359f,2022-06-29_09h06.54.721,Colour_Asymmetry_Pilot,2022.1.3,Win32,60.00960154,62bbe60bf3d75ef465d3e404,,,,,,,,,,,,,,,,,,,,threefour,,-3,0.4952,,,,,,,,,,,,,,,,,,,,,,,,,,,,,,,,,,"[0.9842,0.7409999999999999,-0.6628000000000001]","[0.6547999999999998,-0.043199999999999905,-0.011800000000000033]",-107,42,1,0,0,response7disk,20,-10,1,0,0,rectangle,20,-10,1,0,0,,3,2,0.0006,0,20,-10,1,0,0,,0,14,14,148,1,67,second,,,,,,,,,,,,,,,,,,,,,,,,,,,,,,,,,,,,,,,,,,,,,,,,,,,,,,,,,,,,,,,,,
,,,,,,5f248b7b1bde03086270bd37,62bbfa016e6855b2c603359f,2022-06-29_09h06.54.721,Colour_Asymmetry_Pilot,2022.1.3,Win32,60.00960154,62bbe60bf3d75ef465d3e404,,,,,,,,,,,,,,,,,,,,onethree,,1,0.6078,,,,,,,,,,,,,,,,,,,,,,,,,,,,,,,,,,"[-0.07459999999999989,0.12139999999999995,-0.9922]","[0.23920000000000008,0.2704,0.16060000000000008]",63,-104,1,0,0,response3disk,14,16,1,0,0,rectangle,14,16,1,0,0,,3,1,0.0017,0,14,16,1,0,0,,0,15,15,64,1,64,first,,,,,,,,,,,,,,,,,,,,,,,,,,,,,,,,,,,,,,,,,,,,,,,,,,,,,,,,,,,,,,,,,
,,,,,,5f248b7b1bde03086270bd37,62bbfa016e6855b2c603359f,2022-06-29_09h06.54.721,Colour_Asymmetry_Pilot,2022.1.3,Win32,60.00960154,62bbe60bf3d75ef465d3e404,,,,,,,,,,,,,,,,,,,,threeone,,-3,0.4634,,,,,,,,,,,,,,,,,,,,,,,,,,,,,,,,,,"[0.22340000000000004,-0.9296,-0.7884]","[0.09799999999999986,-0.24719999999999998,0.15280000000000005]",-94,42,1,0,0,response7disk,6,-2,1,0,0,rectangle,6,-2,1,0,0,,3,3,0.0005,0,6,-2,1,0,0,,0,16,16,125,1,44,second,,,,,,,,,,,,,,,,,,,,,,,,,,,,,,,,,,,,,,,,,,,,,,,,,,,,,,,,,,,,,,,,,
,,,,,,5f248b7b1bde03086270bd37,62bbfa016e6855b2c603359f,2022-06-29_09h06.54.721,Colour_Asymmetry_Pilot,2022.1.3,Win32,60.00960154,62bbe60bf3d75ef465d3e404,,,,,,,,,,,,,,,,,,,,twoone,,-3,0.4573,,,,,,,,,,,,,,,,,,,,,,,,,,,,,,,,,,"[-0.2942,-0.7648,-0.7492000000000001]","[0.9372,0.9450000000000001,0.8980000000000001]",-119,49,1,0,0,response7disk,25,-7,1,0,0,rectangle,25,-7,1,0,0,,3,3,0.0001,0,25,-7,1,0,0,,0,17,17,88,1,7,second,,,,,,,,,,,,,,,,,,,,,,,,,,,,,,,,,,,,,,,,,,,,,,,,,,,,,,,,,,,,,,,,,
,,,,,,5f248b7b1bde03086270bd37,62bbfa016e6855b2c603359f,2022-06-29_09h06.54.721,Colour_Asymmetry_Pilot,2022.1.3,Win32,60.00960154,62bbe60bf3d75ef465d3e404,,,,,,,,,,,,,,,,,,,,fourthree,,-3,0.549,,,,,,,,,,,,,,,,,,,,,,,,,,,,,,,,,,"[-0.17659999999999998,-0.2864,-0.8354]","[-0.4746,-0.0354000000000001,0.5449999999999999]",-108,40,1,0,0,response7disk,-10,8,1,0,0,rectangle,-10,8,1,0,0,,3,1,0.0006,0,-10,8,1,0,0,,0,18,18,146,1,65,second,,,,,,,,,,,,,,,,,,,,,,,,,,,,,,,,,,,,,,,,,,,,,,,,,,,,,,,,,,,,,,,,,
,,,,,,5f248b7b1bde03086270bd37,62bbfa016e6855b2c603359f,2022-06-29_09h06.54.721,Colour_Asymmetry_Pilot,2022.1.3,Win32,60.00960154,62bbe60bf3d75ef465d3e404,,,,,,,,,,,,,,,,,,,,threeone,,-1,0.5012,,,,,,,,,,,,,,,,,,,,,,,,,,,,,,,,,,"[-0.4902000000000001,0.2704,-0.45899999999999996]","[0.05879999999999996,0.2784,0.5841999999999998]",-30,-88,1,0,0,response5disk,32,-10,1,0,0,rectangle,110,45,1,0,0,response1disk_3,3,3,2.291,1,-6,-8,1,0,0,rectangle,0,19,19,11,1,11,first,,,,,,,,,,,,,,,,,,,,,,,,,,,,,,,,,,,,,,,,,,,,,,,,,,,,,,,,,,,,,,,,,
,,,,,,5f248b7b1bde03086270bd37,62bbfa016e6855b2c603359f,2022-06-29_09h06.54.721,Colour_Asymmetry_Pilot,2022.1.3,Win32,60.00960154,62bbe60bf3d75ef465d3e404,,,,,,,,,,,,,,,,,,,,onethree,,-3,0.616,,,,,,,,,,,,,,,,,,,,,,,,,,,,,,,,,,"[0.3881999999999999,-0.23939999999999995,-0.05040000000000011]","[0.3802000000000001,0.19199999999999995,-0.6394]",-103,36,1,0,0,response7disk,11,-5,1,0,0,rectangle,11,-5,1,0,0,,3,1,0.0006,0,11,-5,1,0,0,,0,20,20,19,1,19,first,,,,,,,,,,,,,,,,,,,,,,,,,,,,,,,,,,,,,,,,,,,,,,,,,,,,,,,,,,,,,,,,,
