trials.thisRepN,trials.thisTrialN,trials.thisN,trials.thisIndex,trials.ran,Colourcodes,participant,session,date,expName,psychopyVersion,OS,frameRate,study_id,trials_4.thisRepN,trials_4.thisTrialN,trials_4.thisN,trials_4.thisIndex,trials_4.ran,StimulusPos,key_resp.keys,key_resp.rt,key_resp_2.keys,key_resp_2.rt,key_resp_15.keys,key_resp_15.rt,key_resp_17.keys,key_resp_17.rt,key_resp_9.keys,key_resp_9.rt,key_resp_10.keys,key_resp_10.rt,Circle1_col,Ecc,Circle2_col,similarity,response_time,mouse_5.x,mouse_5.y,mouse_5.leftButton,mouse_5.midButton,mouse_5.rightButton,mouse_5.clicked_name,mouse_10.x,mouse_10.y,mouse_10.leftButton,mouse_10.midButton,mouse_10.rightButton,mouse_10.clicked_name,mouse_7.x,mouse_7.y,mouse_7.leftButton,mouse_7.midButton,mouse_7.rightButton,catchnumberprac,mouse_6.x,mouse_6.y,mouse_6.leftButton,mouse_6.midButton,mouse_6.rightButton,duringprac.thisRepN,duringprac.thisTrialN,duringprac.thisN,duringprac.thisIndex,duringprac.ran,mouse_7.clicked_name,catchprac,mouse_6.clicked_name,key_resp_22.keys,key_resp_22.rt,Circle1_colour,Circle2_colour,mouse.x,mouse.y,mouse.leftButton,mouse.midButton,mouse.rightButton,mouse.clicked_name,mouse_2.x,mouse_2.y,mouse_2.leftButton,mouse_2.midButton,mouse_2.rightButton,mouse_2.clicked_name,mouse_3.x,mouse_3.y,mouse_3.leftButton,mouse_3.midButton,mouse_3.rightButton,catchresponse,catchnumber,response_time_catch,Catch,mouse_11.x,mouse_11.y,mouse_11.leftButton,mouse_11.midButton,mouse_11.rightButton,trials_2.thisRepN,trials_2.thisTrialN,trials_2.thisN,trials_2.thisIndex,trials_2.ran,Colourpair,Temporder,mouse_3.clicked_name,mouse_11.clicked_name,trials_3.thisRepN,trials_3.thisTrialN,trials_3.thisN,trials_3.thisIndex,trials_3.ran,key_resp_instr_Ishi.keys,key_resp_instr_Ishi.rt,Ishi_trial_keyresp.keys,Ishi_trial_keyresp.rt,Ishi_textbox.text,Ishi_loop.thisRepN,Ishi_loop.thisTrialN,Ishi_loop.thisN,Ishi_loop.thisIndex,Ishi_loop.ran,imageaddress,textbox.text,mouse_4.x,mouse_4.y,mouse_4.leftButton,mouse_4.midButton,mouse_4.rightButton,mouse_4.clicked_name,textbox_2.text,mouse_8.x,mouse_8.y,mouse_8.leftButton,mouse_8.midButton,mouse_8.rightButton,mouse_8.clicked_name,textbox_3.text,mouse_9.x,mouse_9.y,mouse_9.leftButton,mouse_9.midButton,mouse_9.rightButton,mouse_9.clicked_name,textbox_4.text,mouse_12.x,mouse_12.y,mouse_12.leftButton,mouse_12.midButton,mouse_12.rightButton,mouse_12.clicked_name,textbox_5.text,mouse_13.x,mouse_13.y,mouse_13.leftButton,mouse_13.midButton,mouse_13.rightButton,mouse_13.clicked_name,textbox_6.text,mouse_14.x,mouse_14.y,mouse_14.leftButton,mouse_14.midButton,mouse_14.rightButton,mouse_14.clicked_name,textbox_7.text,mouse_15.x,mouse_15.y,mouse_15.leftButton,mouse_15.midButton,mouse_15.rightButton,mouse_15.clicked_name
0,0,0,13,1,,611d614ecc4045952124853c,62bbfaa273dcda4f2d175ffe,2022-06-29_09h12.07.840,Colour_Asymmetry_Pilot,2022.1.3,Win32,60.0276127,62bbe60bf3d75ef465d3e404,,,,,,,,,,,,,,,,,,,,,,,,,,,,,,,,,,,,,,,,,,,,,,,,,,,,,,,,,,,,,,,,,,,,,,,,,,,,,,,,,,,,,,,,,,,,,,,,,,,,,,,,,,,,,,,,,,,,,,,,,,,,,,,,,,,,,,,,,,,,,,,,,,,,,,,,,,,,,,
0,1,1,15,1,,611d614ecc4045952124853c,62bbfaa273dcda4f2d175ffe,2022-06-29_09h12.07.840,Colour_Asymmetry_Pilot,2022.1.3,Win32,60.0276127,62bbe60bf3d75ef465d3e404,,,,,,,,,,,,,,,,,,,,,,,,,,,,,,,,,,,,,,,,,,,,,,,,,,,,,,,,,,,,,,,,,,,,,,,,,,,,,,,,,,,,,,,,,,,,,,,,,,,,,,,,,,,,,,,,,,,,,,,,,,,,,,,,,,,,,,,,,,,,,,,,,,,,,,,,,,,,,,
0,2,2,88,1,,611d614ecc4045952124853c,62bbfaa273dcda4f2d175ffe,2022-06-29_09h12.07.840,Colour_Asymmetry_Pilot,2022.1.3,Win32,60.0276127,62bbe60bf3d75ef465d3e404,,,,,,,,,,,,,,,,,,,,,,,,,,,,,,,,,,,,,,,,,,,,,,,,,,,,,,,,,,,,,,,,,,,,,,,,,,,,,,,,,,,,,,,,,,,,,,,,,,,,,,,,,,,,,,,,,,,,,,,,,,,,,,,,,,,,,,,,,,,,,,,,,,,,,,,,,,,,,,
0,3,3,12,1,,611d614ecc4045952124853c,62bbfaa273dcda4f2d175ffe,2022-06-29_09h12.07.840,Colour_Asymmetry_Pilot,2022.1.3,Win32,60.0276127,62bbe60bf3d75ef465d3e404,,,,,,,,,,,,,,,,,,,,,,,,,,,,,,,,,,,,,,,,,,,,,,,,,,,,,,,,,,,,,,,,,,,,,,,,,,,,,,,,,,,,,,,,,,,,,,,,,,,,,,,,,,,,,,,,,,,,,,,,,,,,,,,,,,,,,,,,,,,,,,,,,,,,,,,,,,,,,,
0,4,4,43,1,,611d614ecc4045952124853c,62bbfaa273dcda4f2d175ffe,2022-06-29_09h12.07.840,Colour_Asymmetry_Pilot,2022.1.3,Win32,60.0276127,62bbe60bf3d75ef465d3e404,,,,,,,,,,,,,,,,,,,,,,,,,,,,,,,,,,,,,,,,,,,,,,,,,,,,,,,,,,,,,,,,,,,,,,,,,,,,,,,,,,,,,,,,,,,,,,,,,,,,,,,,,,,,,,,,,,,,,,,,,,,,,,,,,,,,,,,,,,,,,,,,,,,,,,,,,,,,,,
0,5,5,76,1,,611d614ecc4045952124853c,62bbfaa273dcda4f2d175ffe,2022-06-29_09h12.07.840,Colour_Asymmetry_Pilot,2022.1.3,Win32,60.0276127,62bbe60bf3d75ef465d3e404,,,,,,,,,,,,,,,,,,,,,,,,,,,,,,,,,,,,,,,,,,,,,,,,,,,,,,,,,,,,,,,,,,,,,,,,,,,,,,,,,,,,,,,,,,,,,,,,,,,,,,,,,,,,,,,,,,,,,,,,,,,,,,,,,,,,,,,,,,,,,,,,,,,,,,,,,,,,,,
0,6,6,79,1,,611d614ecc4045952124853c,62bbfaa273dcda4f2d175ffe,2022-06-29_09h12.07.840,Colour_Asymmetry_Pilot,2022.1.3,Win32,60.0276127,62bbe60bf3d75ef465d3e404,,,,,,,,,,,,,,,,,,,,,,,,,,,,,,,,,,,,,,,,,,,,,,,,,,,,,,,,,,,,,,,,,,,,,,,,,,,,,,,,,,,,,,,,,,,,,,,,,,,,,,,,,,,,,,,,,,,,,,,,,,,,,,,,,,,,,,,,,,,,,,,,,,,,,,,,,,,,,,
0,7,7,61,1,,611d614ecc4045952124853c,62bbfaa273dcda4f2d175ffe,2022-06-29_09h12.07.840,Colour_Asymmetry_Pilot,2022.1.3,Win32,60.0276127,62bbe60bf3d75ef465d3e404,,,,,,,,,,,,,,,,,,,,,,,,,,,,,,,,,,,,,,,,,,,,,,,,,,,,,,,,,,,,,,,,,,,,,,,,,,,,,,,,,,,,,,,,,,,,,,,,,,,,,,,,,,,,,,,,,,,,,,,,,,,,,,,,,,,,,,,,,,,,,,,,,,,,,,,,,,,,,,
0,8,8,81,1,,611d614ecc4045952124853c,62bbfaa273dcda4f2d175ffe,2022-06-29_09h12.07.840,Colour_Asymmetry_Pilot,2022.1.3,Win32,60.0276127,62bbe60bf3d75ef465d3e404,,,,,,,,,,,,,,,,,,,,,,,,,,,,,,,,,,,,,,,,,,,,,,,,,,,,,,,,,,,,,,,,,,,,,,,,,,,,,,,,,,,,,,,,,,,,,,,,,,,,,,,,,,,,,,,,,,,,,,,,,,,,,,,,,,,,,,,,,,,,,,,,,,,,,,,,,,,,,,
0,9,9,78,1,,611d614ecc4045952124853c,62bbfaa273dcda4f2d175ffe,2022-06-29_09h12.07.840,Colour_Asymmetry_Pilot,2022.1.3,Win32,60.0276127,62bbe60bf3d75ef465d3e404,,,,,,,,,,,,,,,,,,,,,,,,,,,,,,,,,,,,,,,,,,,,,,,,,,,,,,,,,,,,,,,,,,,,,,,,,,,,,,,,,,,,,,,,,,,,,,,,,,,,,,,,,,,,,,,,,,,,,,,,,,,,,,,,,,,,,,,,,,,,,,,,,,,,,,,,,,,,,,
0,10,10,31,1,,611d614ecc4045952124853c,62bbfaa273dcda4f2d175ffe,2022-06-29_09h12.07.840,Colour_Asymmetry_Pilot,2022.1.3,Win32,60.0276127,62bbe60bf3d75ef465d3e404,,,,,,,,,,,,,,,,,,,,,,,,,,,,,,,,,,,,,,,,,,,,,,,,,,,,,,,,,,,,,,,,,,,,,,,,,,,,,,,,,,,,,,,,,,,,,,,,,,,,,,,,,,,,,,,,,,,,,,,,,,,,,,,,,,,,,,,,,,,,,,,,,,,,,,,,,,,,,,
0,11,11,32,1,,611d614ecc4045952124853c,62bbfaa273dcda4f2d175ffe,2022-06-29_09h12.07.840,Colour_Asymmetry_Pilot,2022.1.3,Win32,60.0276127,62bbe60bf3d75ef465d3e404,,,,,,,,,,,,,,,,,,,,,,,,,,,,,,,,,,,,,,,,,,,,,,,,,,,,,,,,,,,,,,,,,,,,,,,,,,,,,,,,,,,,,,,,,,,,,,,,,,,,,,,,,,,,,,,,,,,,,,,,,,,,,,,,,,,,,,,,,,,,,,,,,,,,,,,,,,,,,,
0,12,12,68,1,,611d614ecc4045952124853c,62bbfaa273dcda4f2d175ffe,2022-06-29_09h12.07.840,Colour_Asymmetry_Pilot,2022.1.3,Win32,60.0276127,62bbe60bf3d75ef465d3e404,,,,,,,,,,,,,,,,,,,,,,,,,,,,,,,,,,,,,,,,,,,,,,,,,,,,,,,,,,,,,,,,,,,,,,,,,,,,,,,,,,,,,,,,,,,,,,,,,,,,,,,,,,,,,,,,,,,,,,,,,,,,,,,,,,,,,,,,,,,,,,,,,,,,,,,,,,,,,,
0,13,13,55,1,,611d614ecc4045952124853c,62bbfaa273dcda4f2d175ffe,2022-06-29_09h12.07.840,Colour_Asymmetry_Pilot,2022.1.3,Win32,60.0276127,62bbe60bf3d75ef465d3e404,,,,,,,,,,,,,,,,,,,,,,,,,,,,,,,,,,,,,,,,,,,,,,,,,,,,,,,,,,,,,,,,,,,,,,,,,,,,,,,,,,,,,,,,,,,,,,,,,,,,,,,,,,,,,,,,,,,,,,,,,,,,,,,,,,,,,,,,,,,,,,,,,,,,,,,,,,,,,,
0,14,14,82,1,,611d614ecc4045952124853c,62bbfaa273dcda4f2d175ffe,2022-06-29_09h12.07.840,Colour_Asymmetry_Pilot,2022.1.3,Win32,60.0276127,62bbe60bf3d75ef465d3e404,,,,,,,,,,,,,,,,,,,,,,,,,,,,,,,,,,,,,,,,,,,,,,,,,,,,,,,,,,,,,,,,,,,,,,,,,,,,,,,,,,,,,,,,,,,,,,,,,,,,,,,,,,,,,,,,,,,,,,,,,,,,,,,,,,,,,,,,,,,,,,,,,,,,,,,,,,,,,,
0,15,15,10,1,,611d614ecc4045952124853c,62bbfaa273dcda4f2d175ffe,2022-06-29_09h12.07.840,Colour_Asymmetry_Pilot,2022.1.3,Win32,60.0276127,62bbe60bf3d75ef465d3e404,,,,,,,,,,,,,,,,,,,,,,,,,,,,,,,,,,,,,,,,,,,,,,,,,,,,,,,,,,,,,,,,,,,,,,,,,,,,,,,,,,,,,,,,,,,,,,,,,,,,,,,,,,,,,,,,,,,,,,,,,,,,,,,,,,,,,,,,,,,,,,,,,,,,,,,,,,,,,,
0,16,16,85,1,,611d614ecc4045952124853c,62bbfaa273dcda4f2d175ffe,2022-06-29_09h12.07.840,Colour_Asymmetry_Pilot,2022.1.3,Win32,60.0276127,62bbe60bf3d75ef465d3e404,,,,,,,,,,,,,,,,,,,,,,,,,,,,,,,,,,,,,,,,,,,,,,,,,,,,,,,,,,,,,,,,,,,,,,,,,,,,,,,,,,,,,,,,,,,,,,,,,,,,,,,,,,,,,,,,,,,,,,,,,,,,,,,,,,,,,,,,,,,,,,,,,,,,,,,,,,,,,,
0,17,17,33,1,,611d614ecc4045952124853c,62bbfaa273dcda4f2d175ffe,2022-06-29_09h12.07.840,Colour_Asymmetry_Pilot,2022.1.3,Win32,60.0276127,62bbe60bf3d75ef465d3e404,,,,,,,,,,,,,,,,,,,,,,,,,,,,,,,,,,,,,,,,,,,,,,,,,,,,,,,,,,,,,,,,,,,,,,,,,,,,,,,,,,,,,,,,,,,,,,,,,,,,,,,,,,,,,,,,,,,,,,,,,,,,,,,,,,,,,,,,,,,,,,,,,,,,,,,,,,,,,,
0,18,18,8,1,,611d614ecc4045952124853c,62bbfaa273dcda4f2d175ffe,2022-06-29_09h12.07.840,Colour_Asymmetry_Pilot,2022.1.3,Win32,60.0276127,62bbe60bf3d75ef465d3e404,,,,,,,,,,,,,,,,,,,,,,,,,,,,,,,,,,,,,,,,,,,,,,,,,,,,,,,,,,,,,,,,,,,,,,,,,,,,,,,,,,,,,,,,,,,,,,,,,,,,,,,,,,,,,,,,,,,,,,,,,,,,,,,,,,,,,,,,,,,,,,,,,,,,,,,,,,,,,,
0,19,19,35,1,,611d614ecc4045952124853c,62bbfaa273dcda4f2d175ffe,2022-06-29_09h12.07.840,Colour_Asymmetry_Pilot,2022.1.3,Win32,60.0276127,62bbe60bf3d75ef465d3e404,,,,,,,,,,,,,,,,,,,,,,,,,,,,,,,,,,,,,,,,,,,,,,,,,,,,,,,,,,,,,,,,,,,,,,,,,,,,,,,,,,,,,,,,,,,,,,,,,,,,,,,,,,,,,,,,,,,,,,,,,,,,,,,,,,,,,,,,,,,,,,,,,,,,,,,,,,,,,,
0,20,20,37,1,,611d614ecc4045952124853c,62bbfaa273dcda4f2d175ffe,2022-06-29_09h12.07.840,Colour_Asymmetry_Pilot,2022.1.3,Win32,60.0276127,62bbe60bf3d75ef465d3e404,,,,,,,,,,,,,,,,,,,,,,,,,,,,,,,,,,,,,,,,,,,,,,,,,,,,,,,,,,,,,,,,,,,,,,,,,,,,,,,,,,,,,,,,,,,,,,,,,,,,,,,,,,,,,,,,,,,,,,,,,,,,,,,,,,,,,,,,,,,,,,,,,,,,,,,,,,,,,,
0,21,21,70,1,,611d614ecc4045952124853c,62bbfaa273dcda4f2d175ffe,2022-06-29_09h12.07.840,Colour_Asymmetry_Pilot,2022.1.3,Win32,60.0276127,62bbe60bf3d75ef465d3e404,,,,,,,,,,,,,,,,,,,,,,,,,,,,,,,,,,,,,,,,,,,,,,,,,,,,,,,,,,,,,,,,,,,,,,,,,,,,,,,,,,,,,,,,,,,,,,,,,,,,,,,,,,,,,,,,,,,,,,,,,,,,,,,,,,,,,,,,,,,,,,,,,,,,,,,,,,,,,,
0,22,22,27,1,,611d614ecc4045952124853c,62bbfaa273dcda4f2d175ffe,2022-06-29_09h12.07.840,Colour_Asymmetry_Pilot,2022.1.3,Win32,60.0276127,62bbe60bf3d75ef465d3e404,,,,,,,,,,,,,,,,,,,,,,,,,,,,,,,,,,,,,,,,,,,,,,,,,,,,,,,,,,,,,,,,,,,,,,,,,,,,,,,,,,,,,,,,,,,,,,,,,,,,,,,,,,,,,,,,,,,,,,,,,,,,,,,,,,,,,,,,,,,,,,,,,,,,,,,,,,,,,,
0,23,23,39,1,,611d614ecc4045952124853c,62bbfaa273dcda4f2d175ffe,2022-06-29_09h12.07.840,Colour_Asymmetry_Pilot,2022.1.3,Win32,60.0276127,62bbe60bf3d75ef465d3e404,,,,,,,,,,,,,,,,,,,,,,,,,,,,,,,,,,,,,,,,,,,,,,,,,,,,,,,,,,,,,,,,,,,,,,,,,,,,,,,,,,,,,,,,,,,,,,,,,,,,,,,,,,,,,,,,,,,,,,,,,,,,,,,,,,,,,,,,,,,,,,,,,,,,,,,,,,,,,,
0,24,24,66,1,,611d614ecc4045952124853c,62bbfaa273dcda4f2d175ffe,2022-06-29_09h12.07.840,Colour_Asymmetry_Pilot,2022.1.3,Win32,60.0276127,62bbe60bf3d75ef465d3e404,,,,,,,,,,,,,,,,,,,,,,,,,,,,,,,,,,,,,,,,,,,,,,,,,,,,,,,,,,,,,,,,,,,,,,,,,,,,,,,,,,,,,,,,,,,,,,,,,,,,,,,,,,,,,,,,,,,,,,,,,,,,,,,,,,,,,,,,,,,,,,,,,,,,,,,,,,,,,,
0,25,25,7,1,,611d614ecc4045952124853c,62bbfaa273dcda4f2d175ffe,2022-06-29_09h12.07.840,Colour_Asymmetry_Pilot,2022.1.3,Win32,60.0276127,62bbe60bf3d75ef465d3e404,,,,,,,,,,,,,,,,,,,,,,,,,,,,,,,,,,,,,,,,,,,,,,,,,,,,,,,,,,,,,,,,,,,,,,,,,,,,,,,,,,,,,,,,,,,,,,,,,,,,,,,,,,,,,,,,,,,,,,,,,,,,,,,,,,,,,,,,,,,,,,,,,,,,,,,,,,,,,,
0,26,26,5,1,,611d614ecc4045952124853c,62bbfaa273dcda4f2d175ffe,2022-06-29_09h12.07.840,Colour_Asymmetry_Pilot,2022.1.3,Win32,60.0276127,62bbe60bf3d75ef465d3e404,,,,,,,,,,,,,,,,,,,,,,,,,,,,,,,,,,,,,,,,,,,,,,,,,,,,,,,,,,,,,,,,,,,,,,,,,,,,,,,,,,,,,,,,,,,,,,,,,,,,,,,,,,,,,,,,,,,,,,,,,,,,,,,,,,,,,,,,,,,,,,,,,,,,,,,,,,,,,,
0,27,27,69,1,,611d614ecc4045952124853c,62bbfaa273dcda4f2d175ffe,2022-06-29_09h12.07.840,Colour_Asymmetry_Pilot,2022.1.3,Win32,60.0276127,62bbe60bf3d75ef465d3e404,,,,,,,,,,,,,,,,,,,,,,,,,,,,,,,,,,,,,,,,,,,,,,,,,,,,,,,,,,,,,,,,,,,,,,,,,,,,,,,,,,,,,,,,,,,,,,,,,,,,,,,,,,,,,,,,,,,,,,,,,,,,,,,,,,,,,,,,,,,,,,,,,,,,,,,,,,,,,,
0,28,28,48,1,,611d614ecc4045952124853c,62bbfaa273dcda4f2d175ffe,2022-06-29_09h12.07.840,Colour_Asymmetry_Pilot,2022.1.3,Win32,60.0276127,62bbe60bf3d75ef465d3e404,,,,,,,,,,,,,,,,,,,,,,,,,,,,,,,,,,,,,,,,,,,,,,,,,,,,,,,,,,,,,,,,,,,,,,,,,,,,,,,,,,,,,,,,,,,,,,,,,,,,,,,,,,,,,,,,,,,,,,,,,,,,,,,,,,,,,,,,,,,,,,,,,,,,,,,,,,,,,,
0,29,29,0,1,,611d614ecc4045952124853c,62bbfaa273dcda4f2d175ffe,2022-06-29_09h12.07.840,Colour_Asymmetry_Pilot,2022.1.3,Win32,60.0276127,62bbe60bf3d75ef465d3e404,,,,,,,,,,,,,,,,,,,,,,,,,,,,,,,,,,,,,,,,,,,,,,,,,,,,,,,,,,,,,,,,,,,,,,,,,,,,,,,,,,,,,,,,,,,,,,,,,,,,,,,,,,,,,,,,,,,,,,,,,,,,,,,,,,,,,,,,,,,,,,,,,,,,,,,,,,,,,,
0,30,30,29,1,,611d614ecc4045952124853c,62bbfaa273dcda4f2d175ffe,2022-06-29_09h12.07.840,Colour_Asymmetry_Pilot,2022.1.3,Win32,60.0276127,62bbe60bf3d75ef465d3e404,,,,,,,,,,,,,,,,,,,,,,,,,,,,,,,,,,,,,,,,,,,,,,,,,,,,,,,,,,,,,,,,,,,,,,,,,,,,,,,,,,,,,,,,,,,,,,,,,,,,,,,,,,,,,,,,,,,,,,,,,,,,,,,,,,,,,,,,,,,,,,,,,,,,,,,,,,,,,,
0,31,31,1,1,,611d614ecc4045952124853c,62bbfaa273dcda4f2d175ffe,2022-06-29_09h12.07.840,Colour_Asymmetry_Pilot,2022.1.3,Win32,60.0276127,62bbe60bf3d75ef465d3e404,,,,,,,,,,,,,,,,,,,,,,,,,,,,,,,,,,,,,,,,,,,,,,,,,,,,,,,,,,,,,,,,,,,,,,,,,,,,,,,,,,,,,,,,,,,,,,,,,,,,,,,,,,,,,,,,,,,,,,,,,,,,,,,,,,,,,,,,,,,,,,,,,,,,,,,,,,,,,,
0,32,32,46,1,,611d614ecc4045952124853c,62bbfaa273dcda4f2d175ffe,2022-06-29_09h12.07.840,Colour_Asymmetry_Pilot,2022.1.3,Win32,60.0276127,62bbe60bf3d75ef465d3e404,,,,,,,,,,,,,,,,,,,,,,,,,,,,,,,,,,,,,,,,,,,,,,,,,,,,,,,,,,,,,,,,,,,,,,,,,,,,,,,,,,,,,,,,,,,,,,,,,,,,,,,,,,,,,,,,,,,,,,,,,,,,,,,,,,,,,,,,,,,,,,,,,,,,,,,,,,,,,,
0,33,33,67,1,,611d614ecc4045952124853c,62bbfaa273dcda4f2d175ffe,2022-06-29_09h12.07.840,Colour_Asymmetry_Pilot,2022.1.3,Win32,60.0276127,62bbe60bf3d75ef465d3e404,,,,,,,,,,,,,,,,,,,,,,,,,,,,,,,,,,,,,,,,,,,,,,,,,,,,,,,,,,,,,,,,,,,,,,,,,,,,,,,,,,,,,,,,,,,,,,,,,,,,,,,,,,,,,,,,,,,,,,,,,,,,,,,,,,,,,,,,,,,,,,,,,,,,,,,,,,,,,,
0,34,34,20,1,,611d614ecc4045952124853c,62bbfaa273dcda4f2d175ffe,2022-06-29_09h12.07.840,Colour_Asymmetry_Pilot,2022.1.3,Win32,60.0276127,62bbe60bf3d75ef465d3e404,,,,,,,,,,,,,,,,,,,,,,,,,,,,,,,,,,,,,,,,,,,,,,,,,,,,,,,,,,,,,,,,,,,,,,,,,,,,,,,,,,,,,,,,,,,,,,,,,,,,,,,,,,,,,,,,,,,,,,,,,,,,,,,,,,,,,,,,,,,,,,,,,,,,,,,,,,,,,,
0,35,35,84,1,,611d614ecc4045952124853c,62bbfaa273dcda4f2d175ffe,2022-06-29_09h12.07.840,Colour_Asymmetry_Pilot,2022.1.3,Win32,60.0276127,62bbe60bf3d75ef465d3e404,,,,,,,,,,,,,,,,,,,,,,,,,,,,,,,,,,,,,,,,,,,,,,,,,,,,,,,,,,,,,,,,,,,,,,,,,,,,,,,,,,,,,,,,,,,,,,,,,,,,,,,,,,,,,,,,,,,,,,,,,,,,,,,,,,,,,,,,,,,,,,,,,,,,,,,,,,,,,,
0,36,36,41,1,,611d614ecc4045952124853c,62bbfaa273dcda4f2d175ffe,2022-06-29_09h12.07.840,Colour_Asymmetry_Pilot,2022.1.3,Win32,60.0276127,62bbe60bf3d75ef465d3e404,,,,,,,,,,,,,,,,,,,,,,,,,,,,,,,,,,,,,,,,,,,,,,,,,,,,,,,,,,,,,,,,,,,,,,,,,,,,,,,,,,,,,,,,,,,,,,,,,,,,,,,,,,,,,,,,,,,,,,,,,,,,,,,,,,,,,,,,,,,,,,,,,,,,,,,,,,,,,,
0,37,37,75,1,,611d614ecc4045952124853c,62bbfaa273dcda4f2d175ffe,2022-06-29_09h12.07.840,Colour_Asymmetry_Pilot,2022.1.3,Win32,60.0276127,62bbe60bf3d75ef465d3e404,,,,,,,,,,,,,,,,,,,,,,,,,,,,,,,,,,,,,,,,,,,,,,,,,,,,,,,,,,,,,,,,,,,,,,,,,,,,,,,,,,,,,,,,,,,,,,,,,,,,,,,,,,,,,,,,,,,,,,,,,,,,,,,,,,,,,,,,,,,,,,,,,,,,,,,,,,,,,,
0,38,38,14,1,,611d614ecc4045952124853c,62bbfaa273dcda4f2d175ffe,2022-06-29_09h12.07.840,Colour_Asymmetry_Pilot,2022.1.3,Win32,60.0276127,62bbe60bf3d75ef465d3e404,,,,,,,,,,,,,,,,,,,,,,,,,,,,,,,,,,,,,,,,,,,,,,,,,,,,,,,,,,,,,,,,,,,,,,,,,,,,,,,,,,,,,,,,,,,,,,,,,,,,,,,,,,,,,,,,,,,,,,,,,,,,,,,,,,,,,,,,,,,,,,,,,,,,,,,,,,,,,,
0,39,39,58,1,,611d614ecc4045952124853c,62bbfaa273dcda4f2d175ffe,2022-06-29_09h12.07.840,Colour_Asymmetry_Pilot,2022.1.3,Win32,60.0276127,62bbe60bf3d75ef465d3e404,,,,,,,,,,,,,,,,,,,,,,,,,,,,,,,,,,,,,,,,,,,,,,,,,,,,,,,,,,,,,,,,,,,,,,,,,,,,,,,,,,,,,,,,,,,,,,,,,,,,,,,,,,,,,,,,,,,,,,,,,,,,,,,,,,,,,,,,,,,,,,,,,,,,,,,,,,,,,,
0,40,40,19,1,,611d614ecc4045952124853c,62bbfaa273dcda4f2d175ffe,2022-06-29_09h12.07.840,Colour_Asymmetry_Pilot,2022.1.3,Win32,60.0276127,62bbe60bf3d75ef465d3e404,,,,,,,,,,,,,,,,,,,,,,,,,,,,,,,,,,,,,,,,,,,,,,,,,,,,,,,,,,,,,,,,,,,,,,,,,,,,,,,,,,,,,,,,,,,,,,,,,,,,,,,,,,,,,,,,,,,,,,,,,,,,,,,,,,,,,,,,,,,,,,,,,,,,,,,,,,,,,,
0,41,41,22,1,,611d614ecc4045952124853c,62bbfaa273dcda4f2d175ffe,2022-06-29_09h12.07.840,Colour_Asymmetry_Pilot,2022.1.3,Win32,60.0276127,62bbe60bf3d75ef465d3e404,,,,,,,,,,,,,,,,,,,,,,,,,,,,,,,,,,,,,,,,,,,,,,,,,,,,,,,,,,,,,,,,,,,,,,,,,,,,,,,,,,,,,,,,,,,,,,,,,,,,,,,,,,,,,,,,,,,,,,,,,,,,,,,,,,,,,,,,,,,,,,,,,,,,,,,,,,,,,,
0,42,42,38,1,,611d614ecc4045952124853c,62bbfaa273dcda4f2d175ffe,2022-06-29_09h12.07.840,Colour_Asymmetry_Pilot,2022.1.3,Win32,60.0276127,62bbe60bf3d75ef465d3e404,,,,,,,,,,,,,,,,,,,,,,,,,,,,,,,,,,,,,,,,,,,,,,,,,,,,,,,,,,,,,,,,,,,,,,,,,,,,,,,,,,,,,,,,,,,,,,,,,,,,,,,,,,,,,,,,,,,,,,,,,,,,,,,,,,,,,,,,,,,,,,,,,,,,,,,,,,,,,,
0,43,43,62,1,,611d614ecc4045952124853c,62bbfaa273dcda4f2d175ffe,2022-06-29_09h12.07.840,Colour_Asymmetry_Pilot,2022.1.3,Win32,60.0276127,62bbe60bf3d75ef465d3e404,,,,,,,,,,,,,,,,,,,,,,,,,,,,,,,,,,,,,,,,,,,,,,,,,,,,,,,,,,,,,,,,,,,,,,,,,,,,,,,,,,,,,,,,,,,,,,,,,,,,,,,,,,,,,,,,,,,,,,,,,,,,,,,,,,,,,,,,,,,,,,,,,,,,,,,,,,,,,,
0,44,44,36,1,,611d614ecc4045952124853c,62bbfaa273dcda4f2d175ffe,2022-06-29_09h12.07.840,Colour_Asymmetry_Pilot,2022.1.3,Win32,60.0276127,62bbe60bf3d75ef465d3e404,,,,,,,,,,,,,,,,,,,,,,,,,,,,,,,,,,,,,,,,,,,,,,,,,,,,,,,,,,,,,,,,,,,,,,,,,,,,,,,,,,,,,,,,,,,,,,,,,,,,,,,,,,,,,,,,,,,,,,,,,,,,,,,,,,,,,,,,,,,,,,,,,,,,,,,,,,,,,,
0,45,45,45,1,,611d614ecc4045952124853c,62bbfaa273dcda4f2d175ffe,2022-06-29_09h12.07.840,Colour_Asymmetry_Pilot,2022.1.3,Win32,60.0276127,62bbe60bf3d75ef465d3e404,,,,,,,,,,,,,,,,,,,,,,,,,,,,,,,,,,,,,,,,,,,,,,,,,,,,,,,,,,,,,,,,,,,,,,,,,,,,,,,,,,,,,,,,,,,,,,,,,,,,,,,,,,,,,,,,,,,,,,,,,,,,,,,,,,,,,,,,,,,,,,,,,,,,,,,,,,,,,,
0,46,46,42,1,,611d614ecc4045952124853c,62bbfaa273dcda4f2d175ffe,2022-06-29_09h12.07.840,Colour_Asymmetry_Pilot,2022.1.3,Win32,60.0276127,62bbe60bf3d75ef465d3e404,,,,,,,,,,,,,,,,,,,,,,,,,,,,,,,,,,,,,,,,,,,,,,,,,,,,,,,,,,,,,,,,,,,,,,,,,,,,,,,,,,,,,,,,,,,,,,,,,,,,,,,,,,,,,,,,,,,,,,,,,,,,,,,,,,,,,,,,,,,,,,,,,,,,,,,,,,,,,,
0,47,47,65,1,,611d614ecc4045952124853c,62bbfaa273dcda4f2d175ffe,2022-06-29_09h12.07.840,Colour_Asymmetry_Pilot,2022.1.3,Win32,60.0276127,62bbe60bf3d75ef465d3e404,,,,,,,,,,,,,,,,,,,,,,,,,,,,,,,,,,,,,,,,,,,,,,,,,,,,,,,,,,,,,,,,,,,,,,,,,,,,,,,,,,,,,,,,,,,,,,,,,,,,,,,,,,,,,,,,,,,,,,,,,,,,,,,,,,,,,,,,,,,,,,,,,,,,,,,,,,,,,,
0,48,48,90,1,,611d614ecc4045952124853c,62bbfaa273dcda4f2d175ffe,2022-06-29_09h12.07.840,Colour_Asymmetry_Pilot,2022.1.3,Win32,60.0276127,62bbe60bf3d75ef465d3e404,,,,,,,,,,,,,,,,,,,,,,,,,,,,,,,,,,,,,,,,,,,,,,,,,,,,,,,,,,,,,,,,,,,,,,,,,,,,,,,,,,,,,,,,,,,,,,,,,,,,,,,,,,,,,,,,,,,,,,,,,,,,,,,,,,,,,,,,,,,,,,,,,,,,,,,,,,,,,,
0,49,49,86,1,,611d614ecc4045952124853c,62bbfaa273dcda4f2d175ffe,2022-06-29_09h12.07.840,Colour_Asymmetry_Pilot,2022.1.3,Win32,60.0276127,62bbe60bf3d75ef465d3e404,,,,,,,,,,,,,,,,,,,,,,,,,,,,,,,,,,,,,,,,,,,,,,,,,,,,,,,,,,,,,,,,,,,,,,,,,,,,,,,,,,,,,,,,,,,,,,,,,,,,,,,,,,,,,,,,,,,,,,,,,,,,,,,,,,,,,,,,,,,,,,,,,,,,,,,,,,,,,,
0,50,50,87,1,,611d614ecc4045952124853c,62bbfaa273dcda4f2d175ffe,2022-06-29_09h12.07.840,Colour_Asymmetry_Pilot,2022.1.3,Win32,60.0276127,62bbe60bf3d75ef465d3e404,,,,,,,,,,,,,,,,,,,,,,,,,,,,,,,,,,,,,,,,,,,,,,,,,,,,,,,,,,,,,,,,,,,,,,,,,,,,,,,,,,,,,,,,,,,,,,,,,,,,,,,,,,,,,,,,,,,,,,,,,,,,,,,,,,,,,,,,,,,,,,,,,,,,,,,,,,,,,,
0,51,51,59,1,,611d614ecc4045952124853c,62bbfaa273dcda4f2d175ffe,2022-06-29_09h12.07.840,Colour_Asymmetry_Pilot,2022.1.3,Win32,60.0276127,62bbe60bf3d75ef465d3e404,,,,,,,,,,,,,,,,,,,,,,,,,,,,,,,,,,,,,,,,,,,,,,,,,,,,,,,,,,,,,,,,,,,,,,,,,,,,,,,,,,,,,,,,,,,,,,,,,,,,,,,,,,,,,,,,,,,,,,,,,,,,,,,,,,,,,,,,,,,,,,,,,,,,,,,,,,,,,,
0,52,52,44,1,,611d614ecc4045952124853c,62bbfaa273dcda4f2d175ffe,2022-06-29_09h12.07.840,Colour_Asymmetry_Pilot,2022.1.3,Win32,60.0276127,62bbe60bf3d75ef465d3e404,,,,,,,,,,,,,,,,,,,,,,,,,,,,,,,,,,,,,,,,,,,,,,,,,,,,,,,,,,,,,,,,,,,,,,,,,,,,,,,,,,,,,,,,,,,,,,,,,,,,,,,,,,,,,,,,,,,,,,,,,,,,,,,,,,,,,,,,,,,,,,,,,,,,,,,,,,,,,,
0,53,53,4,1,,611d614ecc4045952124853c,62bbfaa273dcda4f2d175ffe,2022-06-29_09h12.07.840,Colour_Asymmetry_Pilot,2022.1.3,Win32,60.0276127,62bbe60bf3d75ef465d3e404,,,,,,,,,,,,,,,,,,,,,,,,,,,,,,,,,,,,,,,,,,,,,,,,,,,,,,,,,,,,,,,,,,,,,,,,,,,,,,,,,,,,,,,,,,,,,,,,,,,,,,,,,,,,,,,,,,,,,,,,,,,,,,,,,,,,,,,,,,,,,,,,,,,,,,,,,,,,,,
0,54,54,16,1,,611d614ecc4045952124853c,62bbfaa273dcda4f2d175ffe,2022-06-29_09h12.07.840,Colour_Asymmetry_Pilot,2022.1.3,Win32,60.0276127,62bbe60bf3d75ef465d3e404,,,,,,,,,,,,,,,,,,,,,,,,,,,,,,,,,,,,,,,,,,,,,,,,,,,,,,,,,,,,,,,,,,,,,,,,,,,,,,,,,,,,,,,,,,,,,,,,,,,,,,,,,,,,,,,,,,,,,,,,,,,,,,,,,,,,,,,,,,,,,,,,,,,,,,,,,,,,,,
0,55,55,34,1,,611d614ecc4045952124853c,62bbfaa273dcda4f2d175ffe,2022-06-29_09h12.07.840,Colour_Asymmetry_Pilot,2022.1.3,Win32,60.0276127,62bbe60bf3d75ef465d3e404,,,,,,,,,,,,,,,,,,,,,,,,,,,,,,,,,,,,,,,,,,,,,,,,,,,,,,,,,,,,,,,,,,,,,,,,,,,,,,,,,,,,,,,,,,,,,,,,,,,,,,,,,,,,,,,,,,,,,,,,,,,,,,,,,,,,,,,,,,,,,,,,,,,,,,,,,,,,,,
0,56,56,64,1,,611d614ecc4045952124853c,62bbfaa273dcda4f2d175ffe,2022-06-29_09h12.07.840,Colour_Asymmetry_Pilot,2022.1.3,Win32,60.0276127,62bbe60bf3d75ef465d3e404,,,,,,,,,,,,,,,,,,,,,,,,,,,,,,,,,,,,,,,,,,,,,,,,,,,,,,,,,,,,,,,,,,,,,,,,,,,,,,,,,,,,,,,,,,,,,,,,,,,,,,,,,,,,,,,,,,,,,,,,,,,,,,,,,,,,,,,,,,,,,,,,,,,,,,,,,,,,,,
0,57,57,40,1,,611d614ecc4045952124853c,62bbfaa273dcda4f2d175ffe,2022-06-29_09h12.07.840,Colour_Asymmetry_Pilot,2022.1.3,Win32,60.0276127,62bbe60bf3d75ef465d3e404,,,,,,,,,,,,,,,,,,,,,,,,,,,,,,,,,,,,,,,,,,,,,,,,,,,,,,,,,,,,,,,,,,,,,,,,,,,,,,,,,,,,,,,,,,,,,,,,,,,,,,,,,,,,,,,,,,,,,,,,,,,,,,,,,,,,,,,,,,,,,,,,,,,,,,,,,,,,,,
0,58,58,54,1,,611d614ecc4045952124853c,62bbfaa273dcda4f2d175ffe,2022-06-29_09h12.07.840,Colour_Asymmetry_Pilot,2022.1.3,Win32,60.0276127,62bbe60bf3d75ef465d3e404,,,,,,,,,,,,,,,,,,,,,,,,,,,,,,,,,,,,,,,,,,,,,,,,,,,,,,,,,,,,,,,,,,,,,,,,,,,,,,,,,,,,,,,,,,,,,,,,,,,,,,,,,,,,,,,,,,,,,,,,,,,,,,,,,,,,,,,,,,,,,,,,,,,,,,,,,,,,,,
0,59,59,77,1,,611d614ecc4045952124853c,62bbfaa273dcda4f2d175ffe,2022-06-29_09h12.07.840,Colour_Asymmetry_Pilot,2022.1.3,Win32,60.0276127,62bbe60bf3d75ef465d3e404,,,,,,,,,,,,,,,,,,,,,,,,,,,,,,,,,,,,,,,,,,,,,,,,,,,,,,,,,,,,,,,,,,,,,,,,,,,,,,,,,,,,,,,,,,,,,,,,,,,,,,,,,,,,,,,,,,,,,,,,,,,,,,,,,,,,,,,,,,,,,,,,,,,,,,,,,,,,,,
0,60,60,60,1,,611d614ecc4045952124853c,62bbfaa273dcda4f2d175ffe,2022-06-29_09h12.07.840,Colour_Asymmetry_Pilot,2022.1.3,Win32,60.0276127,62bbe60bf3d75ef465d3e404,,,,,,,,,,,,,,,,,,,,,,,,,,,,,,,,,,,,,,,,,,,,,,,,,,,,,,,,,,,,,,,,,,,,,,,,,,,,,,,,,,,,,,,,,,,,,,,,,,,,,,,,,,,,,,,,,,,,,,,,,,,,,,,,,,,,,,,,,,,,,,,,,,,,,,,,,,,,,,
0,61,61,9,1,,611d614ecc4045952124853c,62bbfaa273dcda4f2d175ffe,2022-06-29_09h12.07.840,Colour_Asymmetry_Pilot,2022.1.3,Win32,60.0276127,62bbe60bf3d75ef465d3e404,,,,,,,,,,,,,,,,,,,,,,,,,,,,,,,,,,,,,,,,,,,,,,,,,,,,,,,,,,,,,,,,,,,,,,,,,,,,,,,,,,,,,,,,,,,,,,,,,,,,,,,,,,,,,,,,,,,,,,,,,,,,,,,,,,,,,,,,,,,,,,,,,,,,,,,,,,,,,,
0,62,62,3,1,,611d614ecc4045952124853c,62bbfaa273dcda4f2d175ffe,2022-06-29_09h12.07.840,Colour_Asymmetry_Pilot,2022.1.3,Win32,60.0276127,62bbe60bf3d75ef465d3e404,,,,,,,,,,,,,,,,,,,,,,,,,,,,,,,,,,,,,,,,,,,,,,,,,,,,,,,,,,,,,,,,,,,,,,,,,,,,,,,,,,,,,,,,,,,,,,,,,,,,,,,,,,,,,,,,,,,,,,,,,,,,,,,,,,,,,,,,,,,,,,,,,,,,,,,,,,,,,,
0,63,63,25,1,,611d614ecc4045952124853c,62bbfaa273dcda4f2d175ffe,2022-06-29_09h12.07.840,Colour_Asymmetry_Pilot,2022.1.3,Win32,60.0276127,62bbe60bf3d75ef465d3e404,,,,,,,,,,,,,,,,,,,,,,,,,,,,,,,,,,,,,,,,,,,,,,,,,,,,,,,,,,,,,,,,,,,,,,,,,,,,,,,,,,,,,,,,,,,,,,,,,,,,,,,,,,,,,,,,,,,,,,,,,,,,,,,,,,,,,,,,,,,,,,,,,,,,,,,,,,,,,,
0,64,64,23,1,,611d614ecc4045952124853c,62bbfaa273dcda4f2d175ffe,2022-06-29_09h12.07.840,Colour_Asymmetry_Pilot,2022.1.3,Win32,60.0276127,62bbe60bf3d75ef465d3e404,,,,,,,,,,,,,,,,,,,,,,,,,,,,,,,,,,,,,,,,,,,,,,,,,,,,,,,,,,,,,,,,,,,,,,,,,,,,,,,,,,,,,,,,,,,,,,,,,,,,,,,,,,,,,,,,,,,,,,,,,,,,,,,,,,,,,,,,,,,,,,,,,,,,,,,,,,,,,,
0,65,65,49,1,,611d614ecc4045952124853c,62bbfaa273dcda4f2d175ffe,2022-06-29_09h12.07.840,Colour_Asymmetry_Pilot,2022.1.3,Win32,60.0276127,62bbe60bf3d75ef465d3e404,,,,,,,,,,,,,,,,,,,,,,,,,,,,,,,,,,,,,,,,,,,,,,,,,,,,,,,,,,,,,,,,,,,,,,,,,,,,,,,,,,,,,,,,,,,,,,,,,,,,,,,,,,,,,,,,,,,,,,,,,,,,,,,,,,,,,,,,,,,,,,,,,,,,,,,,,,,,,,
0,66,66,51,1,,611d614ecc4045952124853c,62bbfaa273dcda4f2d175ffe,2022-06-29_09h12.07.840,Colour_Asymmetry_Pilot,2022.1.3,Win32,60.0276127,62bbe60bf3d75ef465d3e404,,,,,,,,,,,,,,,,,,,,,,,,,,,,,,,,,,,,,,,,,,,,,,,,,,,,,,,,,,,,,,,,,,,,,,,,,,,,,,,,,,,,,,,,,,,,,,,,,,,,,,,,,,,,,,,,,,,,,,,,,,,,,,,,,,,,,,,,,,,,,,,,,,,,,,,,,,,,,,
0,67,67,28,1,,611d614ecc4045952124853c,62bbfaa273dcda4f2d175ffe,2022-06-29_09h12.07.840,Colour_Asymmetry_Pilot,2022.1.3,Win32,60.0276127,62bbe60bf3d75ef465d3e404,,,,,,,,,,,,,,,,,,,,,,,,,,,,,,,,,,,,,,,,,,,,,,,,,,,,,,,,,,,,,,,,,,,,,,,,,,,,,,,,,,,,,,,,,,,,,,,,,,,,,,,,,,,,,,,,,,,,,,,,,,,,,,,,,,,,,,,,,,,,,,,,,,,,,,,,,,,,,,
0,68,68,50,1,,611d614ecc4045952124853c,62bbfaa273dcda4f2d175ffe,2022-06-29_09h12.07.840,Colour_Asymmetry_Pilot,2022.1.3,Win32,60.0276127,62bbe60bf3d75ef465d3e404,,,,,,,,,,,,,,,,,,,,,,,,,,,,,,,,,,,,,,,,,,,,,,,,,,,,,,,,,,,,,,,,,,,,,,,,,,,,,,,,,,,,,,,,,,,,,,,,,,,,,,,,,,,,,,,,,,,,,,,,,,,,,,,,,,,,,,,,,,,,,,,,,,,,,,,,,,,,,,
0,69,69,89,1,,611d614ecc4045952124853c,62bbfaa273dcda4f2d175ffe,2022-06-29_09h12.07.840,Colour_Asymmetry_Pilot,2022.1.3,Win32,60.0276127,62bbe60bf3d75ef465d3e404,,,,,,,,,,,,,,,,,,,,,,,,,,,,,,,,,,,,,,,,,,,,,,,,,,,,,,,,,,,,,,,,,,,,,,,,,,,,,,,,,,,,,,,,,,,,,,,,,,,,,,,,,,,,,,,,,,,,,,,,,,,,,,,,,,,,,,,,,,,,,,,,,,,,,,,,,,,,,,
0,70,70,6,1,,611d614ecc4045952124853c,62bbfaa273dcda4f2d175ffe,2022-06-29_09h12.07.840,Colour_Asymmetry_Pilot,2022.1.3,Win32,60.0276127,62bbe60bf3d75ef465d3e404,,,,,,,,,,,,,,,,,,,,,,,,,,,,,,,,,,,,,,,,,,,,,,,,,,,,,,,,,,,,,,,,,,,,,,,,,,,,,,,,,,,,,,,,,,,,,,,,,,,,,,,,,,,,,,,,,,,,,,,,,,,,,,,,,,,,,,,,,,,,,,,,,,,,,,,,,,,,,,
0,71,71,18,1,,611d614ecc4045952124853c,62bbfaa273dcda4f2d175ffe,2022-06-29_09h12.07.840,Colour_Asymmetry_Pilot,2022.1.3,Win32,60.0276127,62bbe60bf3d75ef465d3e404,,,,,,,,,,,,,,,,,,,,,,,,,,,,,,,,,,,,,,,,,,,,,,,,,,,,,,,,,,,,,,,,,,,,,,,,,,,,,,,,,,,,,,,,,,,,,,,,,,,,,,,,,,,,,,,,,,,,,,,,,,,,,,,,,,,,,,,,,,,,,,,,,,,,,,,,,,,,,,
0,72,72,57,1,,611d614ecc4045952124853c,62bbfaa273dcda4f2d175ffe,2022-06-29_09h12.07.840,Colour_Asymmetry_Pilot,2022.1.3,Win32,60.0276127,62bbe60bf3d75ef465d3e404,,,,,,,,,,,,,,,,,,,,,,,,,,,,,,,,,,,,,,,,,,,,,,,,,,,,,,,,,,,,,,,,,,,,,,,,,,,,,,,,,,,,,,,,,,,,,,,,,,,,,,,,,,,,,,,,,,,,,,,,,,,,,,,,,,,,,,,,,,,,,,,,,,,,,,,,,,,,,,
0,73,73,92,1,,611d614ecc4045952124853c,62bbfaa273dcda4f2d175ffe,2022-06-29_09h12.07.840,Colour_Asymmetry_Pilot,2022.1.3,Win32,60.0276127,62bbe60bf3d75ef465d3e404,,,,,,,,,,,,,,,,,,,,,,,,,,,,,,,,,,,,,,,,,,,,,,,,,,,,,,,,,,,,,,,,,,,,,,,,,,,,,,,,,,,,,,,,,,,,,,,,,,,,,,,,,,,,,,,,,,,,,,,,,,,,,,,,,,,,,,,,,,,,,,,,,,,,,,,,,,,,,,
0,74,74,83,1,,611d614ecc4045952124853c,62bbfaa273dcda4f2d175ffe,2022-06-29_09h12.07.840,Colour_Asymmetry_Pilot,2022.1.3,Win32,60.0276127,62bbe60bf3d75ef465d3e404,,,,,,,,,,,,,,,,,,,,,,,,,,,,,,,,,,,,,,,,,,,,,,,,,,,,,,,,,,,,,,,,,,,,,,,,,,,,,,,,,,,,,,,,,,,,,,,,,,,,,,,,,,,,,,,,,,,,,,,,,,,,,,,,,,,,,,,,,,,,,,,,,,,,,,,,,,,,,,
0,75,75,24,1,,611d614ecc4045952124853c,62bbfaa273dcda4f2d175ffe,2022-06-29_09h12.07.840,Colour_Asymmetry_Pilot,2022.1.3,Win32,60.0276127,62bbe60bf3d75ef465d3e404,,,,,,,,,,,,,,,,,,,,,,,,,,,,,,,,,,,,,,,,,,,,,,,,,,,,,,,,,,,,,,,,,,,,,,,,,,,,,,,,,,,,,,,,,,,,,,,,,,,,,,,,,,,,,,,,,,,,,,,,,,,,,,,,,,,,,,,,,,,,,,,,,,,,,,,,,,,,,,
0,76,76,91,1,,611d614ecc4045952124853c,62bbfaa273dcda4f2d175ffe,2022-06-29_09h12.07.840,Colour_Asymmetry_Pilot,2022.1.3,Win32,60.0276127,62bbe60bf3d75ef465d3e404,,,,,,,,,,,,,,,,,,,,,,,,,,,,,,,,,,,,,,,,,,,,,,,,,,,,,,,,,,,,,,,,,,,,,,,,,,,,,,,,,,,,,,,,,,,,,,,,,,,,,,,,,,,,,,,,,,,,,,,,,,,,,,,,,,,,,,,,,,,,,,,,,,,,,,,,,,,,,,
0,77,77,52,1,,611d614ecc4045952124853c,62bbfaa273dcda4f2d175ffe,2022-06-29_09h12.07.840,Colour_Asymmetry_Pilot,2022.1.3,Win32,60.0276127,62bbe60bf3d75ef465d3e404,,,,,,,,,,,,,,,,,,,,,,,,,,,,,,,,,,,,,,,,,,,,,,,,,,,,,,,,,,,,,,,,,,,,,,,,,,,,,,,,,,,,,,,,,,,,,,,,,,,,,,,,,,,,,,,,,,,,,,,,,,,,,,,,,,,,,,,,,,,,,,,,,,,,,,,,,,,,,,
0,78,78,21,1,,611d614ecc4045952124853c,62bbfaa273dcda4f2d175ffe,2022-06-29_09h12.07.840,Colour_Asymmetry_Pilot,2022.1.3,Win32,60.0276127,62bbe60bf3d75ef465d3e404,,,,,,,,,,,,,,,,,,,,,,,,,,,,,,,,,,,,,,,,,,,,,,,,,,,,,,,,,,,,,,,,,,,,,,,,,,,,,,,,,,,,,,,,,,,,,,,,,,,,,,,,,,,,,,,,,,,,,,,,,,,,,,,,,,,,,,,,,,,,,,,,,,,,,,,,,,,,,,
0,79,79,56,1,,611d614ecc4045952124853c,62bbfaa273dcda4f2d175ffe,2022-06-29_09h12.07.840,Colour_Asymmetry_Pilot,2022.1.3,Win32,60.0276127,62bbe60bf3d75ef465d3e404,,,,,,,,,,,,,,,,,,,,,,,,,,,,,,,,,,,,,,,,,,,,,,,,,,,,,,,,,,,,,,,,,,,,,,,,,,,,,,,,,,,,,,,,,,,,,,,,,,,,,,,,,,,,,,,,,,,,,,,,,,,,,,,,,,,,,,,,,,,,,,,,,,,,,,,,,,,,,,
0,80,80,17,1,,611d614ecc4045952124853c,62bbfaa273dcda4f2d175ffe,2022-06-29_09h12.07.840,Colour_Asymmetry_Pilot,2022.1.3,Win32,60.0276127,62bbe60bf3d75ef465d3e404,,,,,,,,,,,,,,,,,,,,,,,,,,,,,,,,,,,,,,,,,,,,,,,,,,,,,,,,,,,,,,,,,,,,,,,,,,,,,,,,,,,,,,,,,,,,,,,,,,,,,,,,,,,,,,,,,,,,,,,,,,,,,,,,,,,,,,,,,,,,,,,,,,,,,,,,,,,,,,
0,81,81,73,1,,611d614ecc4045952124853c,62bbfaa273dcda4f2d175ffe,2022-06-29_09h12.07.840,Colour_Asymmetry_Pilot,2022.1.3,Win32,60.0276127,62bbe60bf3d75ef465d3e404,,,,,,,,,,,,,,,,,,,,,,,,,,,,,,,,,,,,,,,,,,,,,,,,,,,,,,,,,,,,,,,,,,,,,,,,,,,,,,,,,,,,,,,,,,,,,,,,,,,,,,,,,,,,,,,,,,,,,,,,,,,,,,,,,,,,,,,,,,,,,,,,,,,,,,,,,,,,,,
0,82,82,47,1,,611d614ecc4045952124853c,62bbfaa273dcda4f2d175ffe,2022-06-29_09h12.07.840,Colour_Asymmetry_Pilot,2022.1.3,Win32,60.0276127,62bbe60bf3d75ef465d3e404,,,,,,,,,,,,,,,,,,,,,,,,,,,,,,,,,,,,,,,,,,,,,,,,,,,,,,,,,,,,,,,,,,,,,,,,,,,,,,,,,,,,,,,,,,,,,,,,,,,,,,,,,,,,,,,,,,,,,,,,,,,,,,,,,,,,,,,,,,,,,,,,,,,,,,,,,,,,,,
0,83,83,30,1,,611d614ecc4045952124853c,62bbfaa273dcda4f2d175ffe,2022-06-29_09h12.07.840,Colour_Asymmetry_Pilot,2022.1.3,Win32,60.0276127,62bbe60bf3d75ef465d3e404,,,,,,,,,,,,,,,,,,,,,,,,,,,,,,,,,,,,,,,,,,,,,,,,,,,,,,,,,,,,,,,,,,,,,,,,,,,,,,,,,,,,,,,,,,,,,,,,,,,,,,,,,,,,,,,,,,,,,,,,,,,,,,,,,,,,,,,,,,,,,,,,,,,,,,,,,,,,,,
0,84,84,53,1,,611d614ecc4045952124853c,62bbfaa273dcda4f2d175ffe,2022-06-29_09h12.07.840,Colour_Asymmetry_Pilot,2022.1.3,Win32,60.0276127,62bbe60bf3d75ef465d3e404,,,,,,,,,,,,,,,,,,,,,,,,,,,,,,,,,,,,,,,,,,,,,,,,,,,,,,,,,,,,,,,,,,,,,,,,,,,,,,,,,,,,,,,,,,,,,,,,,,,,,,,,,,,,,,,,,,,,,,,,,,,,,,,,,,,,,,,,,,,,,,,,,,,,,,,,,,,,,,
0,85,85,74,1,,611d614ecc4045952124853c,62bbfaa273dcda4f2d175ffe,2022-06-29_09h12.07.840,Colour_Asymmetry_Pilot,2022.1.3,Win32,60.0276127,62bbe60bf3d75ef465d3e404,,,,,,,,,,,,,,,,,,,,,,,,,,,,,,,,,,,,,,,,,,,,,,,,,,,,,,,,,,,,,,,,,,,,,,,,,,,,,,,,,,,,,,,,,,,,,,,,,,,,,,,,,,,,,,,,,,,,,,,,,,,,,,,,,,,,,,,,,,,,,,,,,,,,,,,,,,,,,,
0,86,86,71,1,,611d614ecc4045952124853c,62bbfaa273dcda4f2d175ffe,2022-06-29_09h12.07.840,Colour_Asymmetry_Pilot,2022.1.3,Win32,60.0276127,62bbe60bf3d75ef465d3e404,,,,,,,,,,,,,,,,,,,,,,,,,,,,,,,,,,,,,,,,,,,,,,,,,,,,,,,,,,,,,,,,,,,,,,,,,,,,,,,,,,,,,,,,,,,,,,,,,,,,,,,,,,,,,,,,,,,,,,,,,,,,,,,,,,,,,,,,,,,,,,,,,,,,,,,,,,,,,,
0,87,87,2,1,,611d614ecc4045952124853c,62bbfaa273dcda4f2d175ffe,2022-06-29_09h12.07.840,Colour_Asymmetry_Pilot,2022.1.3,Win32,60.0276127,62bbe60bf3d75ef465d3e404,,,,,,,,,,,,,,,,,,,,,,,,,,,,,,,,,,,,,,,,,,,,,,,,,,,,,,,,,,,,,,,,,,,,,,,,,,,,,,,,,,,,,,,,,,,,,,,,,,,,,,,,,,,,,,,,,,,,,,,,,,,,,,,,,,,,,,,,,,,,,,,,,,,,,,,,,,,,,,
0,88,88,72,1,,611d614ecc4045952124853c,62bbfaa273dcda4f2d175ffe,2022-06-29_09h12.07.840,Colour_Asymmetry_Pilot,2022.1.3,Win32,60.0276127,62bbe60bf3d75ef465d3e404,,,,,,,,,,,,,,,,,,,,,,,,,,,,,,,,,,,,,,,,,,,,,,,,,,,,,,,,,,,,,,,,,,,,,,,,,,,,,,,,,,,,,,,,,,,,,,,,,,,,,,,,,,,,,,,,,,,,,,,,,,,,,,,,,,,,,,,,,,,,,,,,,,,,,,,,,,,,,,
0,89,89,11,1,,611d614ecc4045952124853c,62bbfaa273dcda4f2d175ffe,2022-06-29_09h12.07.840,Colour_Asymmetry_Pilot,2022.1.3,Win32,60.0276127,62bbe60bf3d75ef465d3e404,,,,,,,,,,,,,,,,,,,,,,,,,,,,,,,,,,,,,,,,,,,,,,,,,,,,,,,,,,,,,,,,,,,,,,,,,,,,,,,,,,,,,,,,,,,,,,,,,,,,,,,,,,,,,,,,,,,,,,,,,,,,,,,,,,,,,,,,,,,,,,,,,,,,,,,,,,,,,,
0,90,90,26,1,,611d614ecc4045952124853c,62bbfaa273dcda4f2d175ffe,2022-06-29_09h12.07.840,Colour_Asymmetry_Pilot,2022.1.3,Win32,60.0276127,62bbe60bf3d75ef465d3e404,,,,,,,,,,,,,,,,,,,,,,,,,,,,,,,,,,,,,,,,,,,,,,,,,,,,,,,,,,,,,,,,,,,,,,,,,,,,,,,,,,,,,,,,,,,,,,,,,,,,,,,,,,,,,,,,,,,,,,,,,,,,,,,,,,,,,,,,,,,,,,,,,,,,,,,,,,,,,,
0,91,91,80,1,,611d614ecc4045952124853c,62bbfaa273dcda4f2d175ffe,2022-06-29_09h12.07.840,Colour_Asymmetry_Pilot,2022.1.3,Win32,60.0276127,62bbe60bf3d75ef465d3e404,,,,,,,,,,,,,,,,,,,,,,,,,,,,,,,,,,,,,,,,,,,,,,,,,,,,,,,,,,,,,,,,,,,,,,,,,,,,,,,,,,,,,,,,,,,,,,,,,,,,,,,,,,,,,,,,,,,,,,,,,,,,,,,,,,,,,,,,,,,,,,,,,,,,,,,,,,,,,,
0,92,92,63,1,,611d614ecc4045952124853c,62bbfaa273dcda4f2d175ffe,2022-06-29_09h12.07.840,Colour_Asymmetry_Pilot,2022.1.3,Win32,60.0276127,62bbe60bf3d75ef465d3e404,,,,,,,,,,,,,,,,,,,,,,,,,,,,,,,,,,,,,,,,,,,,,,,,,,,,,,,,,,,,,,,,,,,,,,,,,,,,,,,,,,,,,,,,,,,,,,,,,,,,,,,,,,,,,,,,,,,,,,,,,,,,,,,,,,,,,,,,,,,,,,,,,,,,,,,,,,,,,,
,,,,,,611d614ecc4045952124853c,62bbfaa273dcda4f2d175ffe,2022-06-29_09h12.07.840,Colour_Asymmetry_Pilot,2022.1.3,Win32,60.0276127,62bbe60bf3d75ef465d3e404,0,0,0,90,1,twoone,,,,,,,,,,,,,,,,,,,,,,,,,,,,,,,,,,,,,,,,,,,,,,,,,,,,,,,,,,,,,,,,,,,,,,,,,,,,,,,,,,,,,,,,,,,,,,,,,,,,,,,,,,,,,,,,,,,,,,,,,,,,,,,,,,,,,,,,,,,,,,,,,,,,,,,,
,,,,,,611d614ecc4045952124853c,62bbfaa273dcda4f2d175ffe,2022-06-29_09h12.07.840,Colour_Asymmetry_Pilot,2022.1.3,Win32,60.0276127,62bbe60bf3d75ef465d3e404,0,1,1,9,1,onethree,,,,,,,,,,,,,,,,,,,,,,,,,,,,,,,,,,,,,,,,,,,,,,,,,,,,,,,,,,,,,,,,,,,,,,,,,,,,,,,,,,,,,,,,,,,,,,,,,,,,,,,,,,,,,,,,,,,,,,,,,,,,,,,,,,,,,,,,,,,,,,,,,,,,,,,,
,,,,,,611d614ecc4045952124853c,62bbfaa273dcda4f2d175ffe,2022-06-29_09h12.07.840,Colour_Asymmetry_Pilot,2022.1.3,Win32,60.0276127,62bbe60bf3d75ef465d3e404,0,2,2,141,1,threefour,,,,,,,,,,,,,,,,,,,,,,,,,,,,,,,,,,,,,,,,,,,,,,,,,,,,,,,,,,,,,,,,,,,,,,,,,,,,,,,,,,,,,,,,,,,,,,,,,,,,,,,,,,,,,,,,,,,,,,,,,,,,,,,,,,,,,,,,,,,,,,,,,,,,,,,,
,,,,,,611d614ecc4045952124853c,62bbfaa273dcda4f2d175ffe,2022-06-29_09h12.07.840,Colour_Asymmetry_Pilot,2022.1.3,Win32,60.0276127,62bbe60bf3d75ef465d3e404,0,3,3,124,1,threeone,,,,,,,,,,,,,,,,,,,,,,,,,,,,,,,,,,,,,,,,,,,,,,,,,,,,,,,,,,,,,,,,,,,,,,,,,,,,,,,,,,,,,,,,,,,,,,,,,,,,,,,,,,,,,,,,,,,,,,,,,,,,,,,,,,,,,,,,,,,,,,,,,,,,,,,,
,,,,,,611d614ecc4045952124853c,62bbfaa273dcda4f2d175ffe,2022-06-29_09h12.07.840,Colour_Asymmetry_Pilot,2022.1.3,Win32,60.0276127,62bbe60bf3d75ef465d3e404,0,4,4,103,1,fourthree,,,,,,,,,,,,,,,,,,,,,,,,,,,,,,,,,,,,,,,,,,,,,,,,,,,,,,,,,,,,,,,,,,,,,,,,,,,,,,,,,,,,,,,,,,,,,,,,,,,,,,,,,,,,,,,,,,,,,,,,,,,,,,,,,,,,,,,,,,,,,,,,,,,,,,,,
,,,,,,611d614ecc4045952124853c,62bbfaa273dcda4f2d175ffe,2022-06-29_09h12.07.840,Colour_Asymmetry_Pilot,2022.1.3,Win32,60.0276127,62bbe60bf3d75ef465d3e404,0,5,5,146,1,twoone,,,,,,,,,,,,,,,,,,,,,,,,,,,,,,,,,,,,,,,,,,,,,,,,,,,,,,,,,,,,,,,,,,,,,,,,,,,,,,,,,,,,,,,,,,,,,,,,,,,,,,,,,,,,,,,,,,,,,,,,,,,,,,,,,,,,,,,,,,,,,,,,,,,,,,,,
,,,,,,611d614ecc4045952124853c,62bbfaa273dcda4f2d175ffe,2022-06-29_09h12.07.840,Colour_Asymmetry_Pilot,2022.1.3,Win32,60.0276127,62bbe60bf3d75ef465d3e404,0,6,6,114,1,twoone,,,,,,,,,,,,,,,,,,,,,,,,,,,,,,,,,,,,,,,,,,,,,,,,,,,,,,,,,,,,,,,,,,,,,,,,,,,,,,,,,,,,,,,,,,,,,,,,,,,,,,,,,,,,,,,,,,,,,,,,,,,,,,,,,,,,,,,,,,,,,,,,,,,,,,,,
,,,,,,611d614ecc4045952124853c,62bbfaa273dcda4f2d175ffe,2022-06-29_09h12.07.840,Colour_Asymmetry_Pilot,2022.1.3,Win32,60.0276127,62bbe60bf3d75ef465d3e404,0,7,7,157,1,threefour,,,,,,,,,,,,,,,,,,,,,,,,,,,,,,,,,,,,,,,,,,,,,,,,,,,,,,,,,,,,,,,,,,,,,,,,,,,,,,,,,,,,,,,,,,,,,,,,,,,,,,,,,,,,,,,,,,,,,,,,,,,,,,,,,,,,,,,,,,,,,,,,,,,,,,,,
,,,,,,611d614ecc4045952124853c,62bbfaa273dcda4f2d175ffe,2022-06-29_09h12.07.840,Colour_Asymmetry_Pilot,2022.1.3,Win32,60.0276127,62bbe60bf3d75ef465d3e404,0,8,8,101,1,threefour,,,,,,,,,,,,,,,,,,,,,,,,,,,,,,,,,,,,,,,,,,,,,,,,,,,,,,,,,,,,,,,,,,,,,,,,,,,,,,,,,,,,,,,,,,,,,,,,,,,,,,,,,,,,,,,,,,,,,,,,,,,,,,,,,,,,,,,,,,,,,,,,,,,,,,,,
,,,,,,611d614ecc4045952124853c,62bbfaa273dcda4f2d175ffe,2022-06-29_09h12.07.840,Colour_Asymmetry_Pilot,2022.1.3,Win32,60.0276127,62bbe60bf3d75ef465d3e404,0,9,9,95,1,fourthree,,,,,,,,,,,,,,,,,,,,,,,,,,,,,,,,,,,,,,,,,,,,,,,,,,,,,,,,,,,,,,,,,,,,,,,,,,,,,,,,,,,,,,,,,,,,,,,,,,,,,,,,,,,,,,,,,,,,,,,,,,,,,,,,,,,,,,,,,,,,,,,,,,,,,,,,
,,,,,,611d614ecc4045952124853c,62bbfaa273dcda4f2d175ffe,2022-06-29_09h12.07.840,Colour_Asymmetry_Pilot,2022.1.3,Win32,60.0276127,62bbe60bf3d75ef465d3e404,0,10,10,41,1,onethree,,,,,,,,,,,,,,,,,,,,,,,,,,,,,,,,,,,,,,,,,,,,,,,,,,,,,,,,,,,,,,,,,,,,,,,,,,,,,,,,,,,,,,,,,,,,,,,,,,,,,,,,,,,,,,,,,,,,,,,,,,,,,,,,,,,,,,,,,,,,,,,,,,,,,,,,
,,,,,,611d614ecc4045952124853c,62bbfaa273dcda4f2d175ffe,2022-06-29_09h12.07.840,Colour_Asymmetry_Pilot,2022.1.3,Win32,60.0276127,62bbe60bf3d75ef465d3e404,0,11,11,38,1,fourtwo,,,,,,,,,,,,,,,,,,,,,,,,,,,,,,,,,,,,,,,,,,,,,,,,,,,,,,,,,,,,,,,,,,,,,,,,,,,,,,,,,,,,,,,,,,,,,,,,,,,,,,,,,,,,,,,,,,,,,,,,,,,,,,,,,,,,,,,,,,,,,,,,,,,,,,,,
,,,,,,611d614ecc4045952124853c,62bbfaa273dcda4f2d175ffe,2022-06-29_09h12.07.840,Colour_Asymmetry_Pilot,2022.1.3,Win32,60.0276127,62bbe60bf3d75ef465d3e404,0,12,12,100,1,threeone,,,,,,,,,,,,,,,,,,,,,,,,,,,,,,,,,,,,,,,,,,,,,,,,,,,,,,,,,,,,,,,,,,,,,,,,,,,,,,,,,,,,,,,,,,,,,,,,,,,,,,,,,,,,,,,,,,,,,,,,,,,,,,,,,,,,,,,,,,,,,,,,,,,,,,,,
,,,,,,611d614ecc4045952124853c,62bbfaa273dcda4f2d175ffe,2022-06-29_09h12.07.840,Colour_Asymmetry_Pilot,2022.1.3,Win32,60.0276127,62bbe60bf3d75ef465d3e404,0,13,13,150,1,fourtwo,,,,,,,,,,,,,,,,,,,,,,,,,,,,,,,,,,,,,,,,,,,,,,,,,,,,,,,,,,,,,,,,,,,,,,,,,,,,,,,,,,,,,,,,,,,,,,,,,,,,,,,,,,,,,,,,,,,,,,,,,,,,,,,,,,,,,,,,,,,,,,,,,,,,,,,,
,,,,,,611d614ecc4045952124853c,62bbfaa273dcda4f2d175ffe,2022-06-29_09h12.07.840,Colour_Asymmetry_Pilot,2022.1.3,Win32,60.0276127,62bbe60bf3d75ef465d3e404,0,14,14,98,1,twoone,,,,,,,,,,,,,,,,,,,,,,,,,,,,,,,,,,,,,,,,,,,,,,,,,,,,,,,,,,,,,,,,,,,,,,,,,,,,,,,,,,,,,,,,,,,,,,,,,,,,,,,,,,,,,,,,,,,,,,,,,,,,,,,,,,,,,,,,,,,,,,,,,,,,,,,,
,,,,,,611d614ecc4045952124853c,62bbfaa273dcda4f2d175ffe,2022-06-29_09h12.07.840,Colour_Asymmetry_Pilot,2022.1.3,Win32,60.0276127,62bbe60bf3d75ef465d3e404,0,15,15,143,1,fourthree,,,,,,,,,,,,,,,,,,,,,,,,,,,,,,,,,,,,,,,,,,,,,,,,,,,,,,,,,,,,,,,,,,,,,,,,,,,,,,,,,,,,,,,,,,,,,,,,,,,,,,,,,,,,,,,,,,,,,,,,,,,,,,,,,,,,,,,,,,,,,,,,,,,,,,,,
,,,,,,611d614ecc4045952124853c,62bbfaa273dcda4f2d175ffe,2022-06-29_09h12.07.840,Colour_Asymmetry_Pilot,2022.1.3,Win32,60.0276127,62bbe60bf3d75ef465d3e404,0,16,16,105,1,onethree,,,,,,,,,,,,,,,,,,,,,,,,,,,,,,,,,,,,,,,,,,,,,,,,,,,,,,,,,,,,,,,,,,,,,,,,,,,,,,,,,,,,,,,,,,,,,,,,,,,,,,,,,,,,,,,,,,,,,,,,,,,,,,,,,,,,,,,,,,,,,,,,,,,,,,,,
,,,,,,611d614ecc4045952124853c,62bbfaa273dcda4f2d175ffe,2022-06-29_09h12.07.840,Colour_Asymmetry_Pilot,2022.1.3,Win32,60.0276127,62bbe60bf3d75ef465d3e404,0,17,17,144,1,onetwo,,,,,,,,,,,,,,,,,,,,,,,,,,,,,,,,,,,,,,,,,,,,,,,,,,,,,,,,,,,,,,,,,,,,,,,,,,,,,,,,,,,,,,,,,,,,,,,,,,,,,,,,,,,,,,,,,,,,,,,,,,,,,,,,,,,,,,,,,,,,,,,,,,,,,,,,
,,,,,,611d614ecc4045952124853c,62bbfaa273dcda4f2d175ffe,2022-06-29_09h12.07.840,Colour_Asymmetry_Pilot,2022.1.3,Win32,60.0276127,62bbe60bf3d75ef465d3e404,0,18,18,93,1,threefour,,,,,,,,,,,,,,,,,,,,,,,,,,,,,,,,,,,,,,,,,,,,,,,,,,,,,,,,,,,,,,,,,,,,,,,,,,,,,,,,,,,,,,,,,,,,,,,,,,,,,,,,,,,,,,,,,,,,,,,,,,,,,,,,,,,,,,,,,,,,,,,,,,,,,,,,
,,,,,,611d614ecc4045952124853c,62bbfaa273dcda4f2d175ffe,2022-06-29_09h12.07.840,Colour_Asymmetry_Pilot,2022.1.3,Win32,60.0276127,62bbe60bf3d75ef465d3e404,0,19,19,22,1,fourtwo,,,,,,,,,,,,,,,,,,,,,,,,,,,,,,,,,,,,,,,,,,,,,,,,,,,,,,,,,,,,,,,,,,,,,,,,,,,,,,,,,,,,,,,,,,,,,,,,,,,,,,,,,,,,,,,,,,,,,,,,,,,,,,,,,,,,,,,,,,,,,,,,,,,,,,,,
,,,,,,611d614ecc4045952124853c,62bbfaa273dcda4f2d175ffe,2022-06-29_09h12.07.840,Colour_Asymmetry_Pilot,2022.1.3,Win32,60.0276127,62bbe60bf3d75ef465d3e404,0,20,20,137,1,onethree,,,,,,,,,,,,,,,,,,,,,,,,,,,,,,,,,,,,,,,,,,,,,,,,,,,,,,,,,,,,,,,,,,,,,,,,,,,,,,,,,,,,,,,,,,,,,,,,,,,,,,,,,,,,,,,,,,,,,,,,,,,,,,,,,,,,,,,,,,,,,,,,,,,,,,,,
,,,,,,611d614ecc4045952124853c,62bbfaa273dcda4f2d175ffe,2022-06-29_09h12.07.840,Colour_Asymmetry_Pilot,2022.1.3,Win32,60.0276127,62bbe60bf3d75ef465d3e404,0,21,21,32,1,onetwo,,,,,,,,,,,,,,,,,,,,,,,,,,,,,,,,,,,,,,,,,,,,,,,,,,,,,,,,,,,,,,,,,,,,,,,,,,,,,,,,,,,,,,,,,,,,,,,,,,,,,,,,,,,,,,,,,,,,,,,,,,,,,,,,,,,,,,,,,,,,,,,,,,,,,,,,
,,,,,,611d614ecc4045952124853c,62bbfaa273dcda4f2d175ffe,2022-06-29_09h12.07.840,Colour_Asymmetry_Pilot,2022.1.3,Win32,60.0276127,62bbe60bf3d75ef465d3e404,0,22,22,15,1,fourthree,,,,,,,,,,,,,,,,,,,,,,,,,,,,,,,,,,,,,,,,,,,,,,,,,,,,,,,,,,,,,,,,,,,,,,,,,,,,,,,,,,,,,,,,,,,,,,,,,,,,,,,,,,,,,,,,,,,,,,,,,,,,,,,,,,,,,,,,,,,,,,,,,,,,,,,,
,,,,,,611d614ecc4045952124853c,62bbfaa273dcda4f2d175ffe,2022-06-29_09h12.07.840,Colour_Asymmetry_Pilot,2022.1.3,Win32,60.0276127,62bbe60bf3d75ef465d3e404,0,23,23,123,1,twofour,,,,,,,,,,,,,,,,,,,,,,,,,,,,,,,,,,,,,,,,,,,,,,,,,,,,,,,,,,,,,,,,,,,,,,,,,,,,,,,,,,,,,,,,,,,,,,,,,,,,,,,,,,,,,,,,,,,,,,,,,,,,,,,,,,,,,,,,,,,,,,,,,,,,,,,,
,,,,,,611d614ecc4045952124853c,62bbfaa273dcda4f2d175ffe,2022-06-29_09h12.07.840,Colour_Asymmetry_Pilot,2022.1.3,Win32,60.0276127,62bbe60bf3d75ef465d3e404,0,24,24,148,1,threeone,,,,,,,,,,,,,,,,,,,,,,,,,,,,,,,,,,,,,,,,,,,,,,,,,,,,,,,,,,,,,,,,,,,,,,,,,,,,,,,,,,,,,,,,,,,,,,,,,,,,,,,,,,,,,,,,,,,,,,,,,,,,,,,,,,,,,,,,,,,,,,,,,,,,,,,,
,,,,,,611d614ecc4045952124853c,62bbfaa273dcda4f2d175ffe,2022-06-29_09h12.07.840,Colour_Asymmetry_Pilot,2022.1.3,Win32,60.0276127,62bbe60bf3d75ef465d3e404,0,25,25,76,1,threeone,,,,,,,,,,,,,,,,,,,,,,,,,,,,,,,,,,,,,,,,,,,,,,,,,,,,,,,,,,,,,,,,,,,,,,,,,,,,,,,,,,,,,,,,,,,,,,,,,,,,,,,,,,,,,,,,,,,,,,,,,,,,,,,,,,,,,,,,,,,,,,,,,,,,,,,,
,,,,,,611d614ecc4045952124853c,62bbfaa273dcda4f2d175ffe,2022-06-29_09h12.07.840,Colour_Asymmetry_Pilot,2022.1.3,Win32,60.0276127,62bbe60bf3d75ef465d3e404,0,26,26,107,1,twofour,,,,,,,,,,,,,,,,,,,,,,,,,,,,,,,,,,,,,,,,,,,,,,,,,,,,,,,,,,,,,,,,,,,,,,,,,,,,,,,,,,,,,,,,,,,,,,,,,,,,,,,,,,,,,,,,,,,,,,,,,,,,,,,,,,,,,,,,,,,,,,,,,,,,,,,,
,,,,,,611d614ecc4045952124853c,62bbfaa273dcda4f2d175ffe,2022-06-29_09h12.07.840,Colour_Asymmetry_Pilot,2022.1.3,Win32,60.0276127,62bbe60bf3d75ef465d3e404,0,27,27,19,1,twofour,,,,,,,,,,,,,,,,,,,,,,,,,,,,,,,,,,,,,,,,,,,,,,,,,,,,,,,,,,,,,,,,,,,,,,,,,,,,,,,,,,,,,,,,,,,,,,,,,,,,,,,,,,,,,,,,,,,,,,,,,,,,,,,,,,,,,,,,,,,,,,,,,,,,,,,,
,,,,,,611d614ecc4045952124853c,62bbfaa273dcda4f2d175ffe,2022-06-29_09h12.07.840,Colour_Asymmetry_Pilot,2022.1.3,Win32,60.0276127,62bbe60bf3d75ef465d3e404,0,28,28,33,1,onethree,,,,,,,,,,,,,,,,,,,,,,,,,,,,,,,,,,,,,,,,,,,,,,,,,,,,,,,,,,,,,,,,,,,,,,,,,,,,,,,,,,,,,,,,,,,,,,,,,,,,,,,,,,,,,,,,,,,,,,,,,,,,,,,,,,,,,,,,,,,,,,,,,,,,,,,,
,,,,,,611d614ecc4045952124853c,62bbfaa273dcda4f2d175ffe,2022-06-29_09h12.07.840,Colour_Asymmetry_Pilot,2022.1.3,Win32,60.0276127,62bbe60bf3d75ef465d3e404,0,29,29,149,1,threefour,,,,,,,,,,,,,,,,,,,,,,,,,,,,,,,,,,,,,,,,,,,,,,,,,,,,,,,,,,,,,,,,,,,,,,,,,,,,,,,,,,,,,,,,,,,,,,,,,,,,,,,,,,,,,,,,,,,,,,,,,,,,,,,,,,,,,,,,,,,,,,,,,,,,,,,,
,,,,,,611d614ecc4045952124853c,62bbfaa273dcda4f2d175ffe,2022-06-29_09h12.07.840,Colour_Asymmetry_Pilot,2022.1.3,Win32,60.0276127,62bbe60bf3d75ef465d3e404,0,30,30,1,1,onethree,,,,,,,,,,,,,,,,,,,,,,,,,,,,,,,,,,,,,,,,,,,,,,,,,,,,,,,,,,,,,,,,,,,,,,,,,,,,,,,,,,,,,,,,,,,,,,,,,,,,,,,,,,,,,,,,,,,,,,,,,,,,,,,,,,,,,,,,,,,,,,,,,,,,,,,,
,,,,,,611d614ecc4045952124853c,62bbfaa273dcda4f2d175ffe,2022-06-29_09h12.07.840,Colour_Asymmetry_Pilot,2022.1.3,Win32,60.0276127,62bbe60bf3d75ef465d3e404,0,31,31,14,1,fourtwo,,,,,,,,,,,,,,,,,,,,,,,,,,,,,,,,,,,,,,,,,,,,,,,,,,,,,,,,,,,,,,,,,,,,,,,,,,,,,,,,,,,,,,,,,,,,,,,,,,,,,,,,,,,,,,,,,,,,,,,,,,,,,,,,,,,,,,,,,,,,,,,,,,,,,,,,
,,,,,,611d614ecc4045952124853c,62bbfaa273dcda4f2d175ffe,2022-06-29_09h12.07.840,Colour_Asymmetry_Pilot,2022.1.3,Win32,60.0276127,62bbe60bf3d75ef465d3e404,0,32,32,50,1,twoone,,,,,,,,,,,,,,,,,,,,,,,,,,,,,,,,,,,,,,,,,,,,,,,,,,,,,,,,,,,,,,,,,,,,,,,,,,,,,,,,,,,,,,,,,,,,,,,,,,,,,,,,,,,,,,,,,,,,,,,,,,,,,,,,,,,,,,,,,,,,,,,,,,,,,,,,
,,,,,,611d614ecc4045952124853c,62bbfaa273dcda4f2d175ffe,2022-06-29_09h12.07.840,Colour_Asymmetry_Pilot,2022.1.3,Win32,60.0276127,62bbe60bf3d75ef465d3e404,0,33,33,109,1,threefour,,,,,,,,,,,,,,,,,,,,,,,,,,,,,,,,,,,,,,,,,,,,,,,,,,,,,,,,,,,,,,,,,,,,,,,,,,,,,,,,,,,,,,,,,,,,,,,,,,,,,,,,,,,,,,,,,,,,,,,,,,,,,,,,,,,,,,,,,,,,,,,,,,,,,,,,
,,,,,,611d614ecc4045952124853c,62bbfaa273dcda4f2d175ffe,2022-06-29_09h12.07.840,Colour_Asymmetry_Pilot,2022.1.3,Win32,60.0276127,62bbe60bf3d75ef465d3e404,0,34,34,77,1,threefour,,,,,,,,,,,,,,,,,,,,,,,,,,,,,,,,,,,,,,,,,,,,,,,,,,,,,,,,,,,,,,,,,,,,,,,,,,,,,,,,,,,,,,,,,,,,,,,,,,,,,,,,,,,,,,,,,,,,,,,,,,,,,,,,,,,,,,,,,,,,,,,,,,,,,,,,
,,,,,,611d614ecc4045952124853c,62bbfaa273dcda4f2d175ffe,2022-06-29_09h12.07.840,Colour_Asymmetry_Pilot,2022.1.3,Win32,60.0276127,62bbe60bf3d75ef465d3e404,0,35,35,89,1,onethree,,,,,,,,,,,,,,,,,,,,,,,,,,,,,,,,,,,,,,,,,,,,,,,,,,,,,,,,,,,,,,,,,,,,,,,,,,,,,,,,,,,,,,,,,,,,,,,,,,,,,,,,,,,,,,,,,,,,,,,,,,,,,,,,,,,,,,,,,,,,,,,,,,,,,,,,
,,,,,,611d614ecc4045952124853c,62bbfaa273dcda4f2d175ffe,2022-06-29_09h12.07.840,Colour_Asymmetry_Pilot,2022.1.3,Win32,60.0276127,62bbe60bf3d75ef465d3e404,0,36,36,4,1,threeone,,,,,,,,,,,,,,,,,,,,,,,,,,,,,,,,,,,,,,,,,,,,,,,,,,,,,,,,,,,,,,,,,,,,,,,,,,,,,,,,,,,,,,,,,,,,,,,,,,,,,,,,,,,,,,,,,,,,,,,,,,,,,,,,,,,,,,,,,,,,,,,,,,,,,,,,
,,,,,,611d614ecc4045952124853c,62bbfaa273dcda4f2d175ffe,2022-06-29_09h12.07.840,Colour_Asymmetry_Pilot,2022.1.3,Win32,60.0276127,62bbe60bf3d75ef465d3e404,0,37,37,8,1,onetwo,,,,,,,,,,,,,,,,,,,,,,,,,,,,,,,,,,,,,,,,,,,,,,,,,,,,,,,,,,,,,,,,,,,,,,,,,,,,,,,,,,,,,,,,,,,,,,,,,,,,,,,,,,,,,,,,,,,,,,,,,,,,,,,,,,,,,,,,,,,,,,,,,,,,,,,,
,,,,,,611d614ecc4045952124853c,62bbfaa273dcda4f2d175ffe,2022-06-29_09h12.07.840,Colour_Asymmetry_Pilot,2022.1.3,Win32,60.0276127,62bbe60bf3d75ef465d3e404,0,38,38,40,1,onetwo,,,,,,,,,,,,,,,,,,,,,,,,,,,,,,,,,,,,,,,,,,,,,,,,,,,,,,,,,,,,,,,,,,,,,,,,,,,,,,,,,,,,,,,,,,,,,,,,,,,,,,,,,,,,,,,,,,,,,,,,,,,,,,,,,,,,,,,,,,,,,,,,,,,,,,,,
,,,,,,611d614ecc4045952124853c,62bbfaa273dcda4f2d175ffe,2022-06-29_09h12.07.840,Colour_Asymmetry_Pilot,2022.1.3,Win32,60.0276127,62bbe60bf3d75ef465d3e404,0,39,39,53,1,threefour,,,,,,,,,,,,,,,,,,,,,,,,,,,,,,,,,,,,,,,,,,,,,,,,,,,,,,,,,,,,,,,,,,,,,,,,,,,,,,,,,,,,,,,,,,,,,,,,,,,,,,,,,,,,,,,,,,,,,,,,,,,,,,,,,,,,,,,,,,,,,,,,,,,,,,,,
,,,,,,611d614ecc4045952124853c,62bbfaa273dcda4f2d175ffe,2022-06-29_09h12.07.840,Colour_Asymmetry_Pilot,2022.1.3,Win32,60.0276127,62bbe60bf3d75ef465d3e404,0,40,40,59,1,twofour,,,,,,,,,,,,,,,,,,,,,,,,,,,,,,,,,,,,,,,,,,,,,,,,,,,,,,,,,,,,,,,,,,,,,,,,,,,,,,,,,,,,,,,,,,,,,,,,,,,,,,,,,,,,,,,,,,,,,,,,,,,,,,,,,,,,,,,,,,,,,,,,,,,,,,,,
,,,,,,611d614ecc4045952124853c,62bbfaa273dcda4f2d175ffe,2022-06-29_09h12.07.840,Colour_Asymmetry_Pilot,2022.1.3,Win32,60.0276127,62bbe60bf3d75ef465d3e404,0,41,41,55,1,fourthree,,,,,,,,,,,,,,,,,,,,,,,,,,,,,,,,,,,,,,,,,,,,,,,,,,,,,,,,,,,,,,,,,,,,,,,,,,,,,,,,,,,,,,,,,,,,,,,,,,,,,,,,,,,,,,,,,,,,,,,,,,,,,,,,,,,,,,,,,,,,,,,,,,,,,,,,
,,,,,,611d614ecc4045952124853c,62bbfaa273dcda4f2d175ffe,2022-06-29_09h12.07.840,Colour_Asymmetry_Pilot,2022.1.3,Win32,60.0276127,62bbe60bf3d75ef465d3e404,0,42,42,131,1,twofour,,,,,,,,,,,,,,,,,,,,,,,,,,,,,,,,,,,,,,,,,,,,,,,,,,,,,,,,,,,,,,,,,,,,,,,,,,,,,,,,,,,,,,,,,,,,,,,,,,,,,,,,,,,,,,,,,,,,,,,,,,,,,,,,,,,,,,,,,,,,,,,,,,,,,,,,
,,,,,,611d614ecc4045952124853c,62bbfaa273dcda4f2d175ffe,2022-06-29_09h12.07.840,Colour_Asymmetry_Pilot,2022.1.3,Win32,60.0276127,62bbe60bf3d75ef465d3e404,0,43,43,18,1,twoone,,,,,,,,,,,,,,,,,,,,,,,,,,,,,,,,,,,,,,,,,,,,,,,,,,,,,,,,,,,,,,,,,,,,,,,,,,,,,,,,,,,,,,,,,,,,,,,,,,,,,,,,,,,,,,,,,,,,,,,,,,,,,,,,,,,,,,,,,,,,,,,,,,,,,,,,
,,,,,,611d614ecc4045952124853c,62bbfaa273dcda4f2d175ffe,2022-06-29_09h12.07.840,Colour_Asymmetry_Pilot,2022.1.3,Win32,60.0276127,62bbe60bf3d75ef465d3e404,0,44,44,136,1,onetwo,,,,,,,,,,,,,,,,,,,,,,,,,,,,,,,,,,,,,,,,,,,,,,,,,,,,,,,,,,,,,,,,,,,,,,,,,,,,,,,,,,,,,,,,,,,,,,,,,,,,,,,,,,,,,,,,,,,,,,,,,,,,,,,,,,,,,,,,,,,,,,,,,,,,,,,,
,,,,,,611d614ecc4045952124853c,62bbfaa273dcda4f2d175ffe,2022-06-29_09h12.07.840,Colour_Asymmetry_Pilot,2022.1.3,Win32,60.0276127,62bbe60bf3d75ef465d3e404,0,45,45,43,1,twofour,,,,,,,,,,,,,,,,,,,,,,,,,,,,,,,,,,,,,,,,,,,,,,,,,,,,,,,,,,,,,,,,,,,,,,,,,,,,,,,,,,,,,,,,,,,,,,,,,,,,,,,,,,,,,,,,,,,,,,,,,,,,,,,,,,,,,,,,,,,,,,,,,,,,,,,,
,,,,,,611d614ecc4045952124853c,62bbfaa273dcda4f2d175ffe,2022-06-29_09h12.07.840,Colour_Asymmetry_Pilot,2022.1.3,Win32,60.0276127,62bbe60bf3d75ef465d3e404,0,46,46,135,1,fourthree,,,,,,,,,,,,,,,,,,,,,,,,,,,,,,,,,,,,,,,,,,,,,,,,,,,,,,,,,,,,,,,,,,,,,,,,,,,,,,,,,,,,,,,,,,,,,,,,,,,,,,,,,,,,,,,,,,,,,,,,,,,,,,,,,,,,,,,,,,,,,,,,,,,,,,,,
,,,,,,611d614ecc4045952124853c,62bbfaa273dcda4f2d175ffe,2022-06-29_09h12.07.840,Colour_Asymmetry_Pilot,2022.1.3,Win32,60.0276127,62bbe60bf3d75ef465d3e404,0,47,47,117,1,threefour,,,,,,,,,,,,,,,,,,,,,,,,,,,,,,,,,,,,,,,,,,,,,,,,,,,,,,,,,,,,,,,,,,,,,,,,,,,,,,,,,,,,,,,,,,,,,,,,,,,,,,,,,,,,,,,,,,,,,,,,,,,,,,,,,,,,,,,,,,,,,,,,,,,,,,,,
,,,,,,611d614ecc4045952124853c,62bbfaa273dcda4f2d175ffe,2022-06-29_09h12.07.840,Colour_Asymmetry_Pilot,2022.1.3,Win32,60.0276127,62bbe60bf3d75ef465d3e404,0,48,48,24,1,onetwo,,,,,,,,,,,,,,,,,,,,,,,,,,,,,,,,,,,,,,,,,,,,,,,,,,,,,,,,,,,,,,,,,,,,,,,,,,,,,,,,,,,,,,,,,,,,,,,,,,,,,,,,,,,,,,,,,,,,,,,,,,,,,,,,,,,,,,,,,,,,,,,,,,,,,,,,
,,,,,,611d614ecc4045952124853c,62bbfaa273dcda4f2d175ffe,2022-06-29_09h12.07.840,Colour_Asymmetry_Pilot,2022.1.3,Win32,60.0276127,62bbe60bf3d75ef465d3e404,0,49,49,28,1,threeone,,,,,,,,,,,,,,,,,,,,,,,,,,,,,,,,,,,,,,,,,,,,,,,,,,,,,,,,,,,,,,,,,,,,,,,,,,,,,,,,,,,,,,,,,,,,,,,,,,,,,,,,,,,,,,,,,,,,,,,,,,,,,,,,,,,,,,,,,,,,,,,,,,,,,,,,
,,,,,,611d614ecc4045952124853c,62bbfaa273dcda4f2d175ffe,2022-06-29_09h12.07.840,Colour_Asymmetry_Pilot,2022.1.3,Win32,60.0276127,62bbe60bf3d75ef465d3e404,0,50,50,51,1,twofour,,,,,,,,,,,,,,,,,,,,,,,,,,,,,,,,,,,,,,,,,,,,,,,,,,,,,,,,,,,,,,,,,,,,,,,,,,,,,,,,,,,,,,,,,,,,,,,,,,,,,,,,,,,,,,,,,,,,,,,,,,,,,,,,,,,,,,,,,,,,,,,,,,,,,,,,
,,,,,,611d614ecc4045952124853c,62bbfaa273dcda4f2d175ffe,2022-06-29_09h12.07.840,Colour_Asymmetry_Pilot,2022.1.3,Win32,60.0276127,62bbe60bf3d75ef465d3e404,0,51,51,6,1,fourtwo,,,,,,,,,,,,,,,,,,,,,,,,,,,,,,,,,,,,,,,,,,,,,,,,,,,,,,,,,,,,,,,,,,,,,,,,,,,,,,,,,,,,,,,,,,,,,,,,,,,,,,,,,,,,,,,,,,,,,,,,,,,,,,,,,,,,,,,,,,,,,,,,,,,,,,,,
,,,,,,611d614ecc4045952124853c,62bbfaa273dcda4f2d175ffe,2022-06-29_09h12.07.840,Colour_Asymmetry_Pilot,2022.1.3,Win32,60.0276127,62bbe60bf3d75ef465d3e404,0,52,52,0,1,onetwo,,,,,,,,,,,,,,,,,,,,,,,,,,,,,,,,,,,,,,,,,,,,,,,,,,,,,,,,,,,,,,,,,,,,,,,,,,,,,,,,,,,,,,,,,,,,,,,,,,,,,,,,,,,,,,,,,,,,,,,,,,,,,,,,,,,,,,,,,,,,,,,,,,,,,,,,
,,,,,,611d614ecc4045952124853c,62bbfaa273dcda4f2d175ffe,2022-06-29_09h12.07.840,Colour_Asymmetry_Pilot,2022.1.3,Win32,60.0276127,62bbe60bf3d75ef465d3e404,0,53,53,92,1,threeone,,,,,,,,,,,,,,,,,,,,,,,,,,,,,,,,,,,,,,,,,,,,,,,,,,,,,,,,,,,,,,,,,,,,,,,,,,,,,,,,,,,,,,,,,,,,,,,,,,,,,,,,,,,,,,,,,,,,,,,,,,,,,,,,,,,,,,,,,,,,,,,,,,,,,,,,
,,,,,,611d614ecc4045952124853c,62bbfaa273dcda4f2d175ffe,2022-06-29_09h12.07.840,Colour_Asymmetry_Pilot,2022.1.3,Win32,60.0276127,62bbe60bf3d75ef465d3e404,0,54,54,48,1,onetwo,,,,,,,,,,,,,,,,,,,,,,,,,,,,,,,,,,,,,,,,,,,,,,,,,,,,,,,,,,,,,,,,,,,,,,,,,,,,,,,,,,,,,,,,,,,,,,,,,,,,,,,,,,,,,,,,,,,,,,,,,,,,,,,,,,,,,,,,,,,,,,,,,,,,,,,,
,,,,,,611d614ecc4045952124853c,62bbfaa273dcda4f2d175ffe,2022-06-29_09h12.07.840,Colour_Asymmetry_Pilot,2022.1.3,Win32,60.0276127,62bbe60bf3d75ef465d3e404,0,55,55,69,1,threefour,,,,,,,,,,,,,,,,,,,,,,,,,,,,,,,,,,,,,,,,,,,,,,,,,,,,,,,,,,,,,,,,,,,,,,,,,,,,,,,,,,,,,,,,,,,,,,,,,,,,,,,,,,,,,,,,,,,,,,,,,,,,,,,,,,,,,,,,,,,,,,,,,,,,,,,,
,,,,,,611d614ecc4045952124853c,62bbfaa273dcda4f2d175ffe,2022-06-29_09h12.07.840,Colour_Asymmetry_Pilot,2022.1.3,Win32,60.0276127,62bbe60bf3d75ef465d3e404,0,56,56,108,1,threeone,,,,,,,,,,,,,,,,,,,,,,,,,,,,,,,,,,,,,,,,,,,,,,,,,,,,,,,,,,,,,,,,,,,,,,,,,,,,,,,,,,,,,,,,,,,,,,,,,,,,,,,,,,,,,,,,,,,,,,,,,,,,,,,,,,,,,,,,,,,,,,,,,,,,,,,,
,,,,,,611d614ecc4045952124853c,62bbfaa273dcda4f2d175ffe,2022-06-29_09h12.07.840,Colour_Asymmetry_Pilot,2022.1.3,Win32,60.0276127,62bbe60bf3d75ef465d3e404,0,57,57,140,1,threeone,,,,,,,,,,,,,,,,,,,,,,,,,,,,,,,,,,,,,,,,,,,,,,,,,,,,,,,,,,,,,,,,,,,,,,,,,,,,,,,,,,,,,,,,,,,,,,,,,,,,,,,,,,,,,,,,,,,,,,,,,,,,,,,,,,,,,,,,,,,,,,,,,,,,,,,,
,,,,,,611d614ecc4045952124853c,62bbfaa273dcda4f2d175ffe,2022-06-29_09h12.07.840,Colour_Asymmetry_Pilot,2022.1.3,Win32,60.0276127,62bbe60bf3d75ef465d3e404,0,58,58,25,1,onethree,,,,,,,,,,,,,,,,,,,,,,,,,,,,,,,,,,,,,,,,,,,,,,,,,,,,,,,,,,,,,,,,,,,,,,,,,,,,,,,,,,,,,,,,,,,,,,,,,,,,,,,,,,,,,,,,,,,,,,,,,,,,,,,,,,,,,,,,,,,,,,,,,,,,,,,,
,,,,,,611d614ecc4045952124853c,62bbfaa273dcda4f2d175ffe,2022-06-29_09h12.07.840,Colour_Asymmetry_Pilot,2022.1.3,Win32,60.0276127,62bbe60bf3d75ef465d3e404,0,59,59,133,1,threefour,,,,,,,,,,,,,,,,,,,,,,,,,,,,,,,,,,,,,,,,,,,,,,,,,,,,,,,,,,,,,,,,,,,,,,,,,,,,,,,,,,,,,,,,,,,,,,,,,,,,,,,,,,,,,,,,,,,,,,,,,,,,,,,,,,,,,,,,,,,,,,,,,,,,,,,,
,,,,,,611d614ecc4045952124853c,62bbfaa273dcda4f2d175ffe,2022-06-29_09h12.07.840,Colour_Asymmetry_Pilot,2022.1.3,Win32,60.0276127,62bbe60bf3d75ef465d3e404,0,60,60,65,1,onethree,,,,,,,,,,,,,,,,,,,,,,,,,,,,,,,,,,,,,,,,,,,,,,,,,,,,,,,,,,,,,,,,,,,,,,,,,,,,,,,,,,,,,,,,,,,,,,,,,,,,,,,,,,,,,,,,,,,,,,,,,,,,,,,,,,,,,,,,,,,,,,,,,,,,,,,,
,,,,,,611d614ecc4045952124853c,62bbfaa273dcda4f2d175ffe,2022-06-29_09h12.07.840,Colour_Asymmetry_Pilot,2022.1.3,Win32,60.0276127,62bbe60bf3d75ef465d3e404,0,61,61,12,1,threeone,,,,,,,,,,,,,,,,,,,,,,,,,,,,,,,,,,,,,,,,,,,,,,,,,,,,,,,,,,,,,,,,,,,,,,,,,,,,,,,,,,,,,,,,,,,,,,,,,,,,,,,,,,,,,,,,,,,,,,,,,,,,,,,,,,,,,,,,,,,,,,,,,,,,,,,,
,,,,,,611d614ecc4045952124853c,62bbfaa273dcda4f2d175ffe,2022-06-29_09h12.07.840,Colour_Asymmetry_Pilot,2022.1.3,Win32,60.0276127,62bbe60bf3d75ef465d3e404,0,62,62,121,1,onethree,,,,,,,,,,,,,,,,,,,,,,,,,,,,,,,,,,,,,,,,,,,,,,,,,,,,,,,,,,,,,,,,,,,,,,,,,,,,,,,,,,,,,,,,,,,,,,,,,,,,,,,,,,,,,,,,,,,,,,,,,,,,,,,,,,,,,,,,,,,,,,,,,,,,,,,,
,,,,,,611d614ecc4045952124853c,62bbfaa273dcda4f2d175ffe,2022-06-29_09h12.07.840,Colour_Asymmetry_Pilot,2022.1.3,Win32,60.0276127,62bbe60bf3d75ef465d3e404,0,63,63,96,1,onetwo,,,,,,,,,,,,,,,,,,,,,,,,,,,,,,,,,,,,,,,,,,,,,,,,,,,,,,,,,,,,,,,,,,,,,,,,,,,,,,,,,,,,,,,,,,,,,,,,,,,,,,,,,,,,,,,,,,,,,,,,,,,,,,,,,,,,,,,,,,,,,,,,,,,,,,,,
,,,,,,611d614ecc4045952124853c,62bbfaa273dcda4f2d175ffe,2022-06-29_09h12.07.840,Colour_Asymmetry_Pilot,2022.1.3,Win32,60.0276127,62bbe60bf3d75ef465d3e404,0,64,64,10,1,twoone,,,,,,,,,,,,,,,,,,,,,,,,,,,,,,,,,,,,,,,,,,,,,,,,,,,,,,,,,,,,,,,,,,,,,,,,,,,,,,,,,,,,,,,,,,,,,,,,,,,,,,,,,,,,,,,,,,,,,,,,,,,,,,,,,,,,,,,,,,,,,,,,,,,,,,,,
,,,,,,611d614ecc4045952124853c,62bbfaa273dcda4f2d175ffe,2022-06-29_09h12.07.840,Colour_Asymmetry_Pilot,2022.1.3,Win32,60.0276127,62bbe60bf3d75ef465d3e404,0,65,65,21,1,threefour,,,,,,,,,,,,,,,,,,,,,,,,,,,,,,,,,,,,,,,,,,,,,,,,,,,,,,,,,,,,,,,,,,,,,,,,,,,,,,,,,,,,,,,,,,,,,,,,,,,,,,,,,,,,,,,,,,,,,,,,,,,,,,,,,,,,,,,,,,,,,,,,,,,,,,,,
,,,,,,611d614ecc4045952124853c,62bbfaa273dcda4f2d175ffe,2022-06-29_09h12.07.840,Colour_Asymmetry_Pilot,2022.1.3,Win32,60.0276127,62bbe60bf3d75ef465d3e404,0,66,66,13,1,threefour,,,,,,,,,,,,,,,,,,,,,,,,,,,,,,,,,,,,,,,,,,,,,,,,,,,,,,,,,,,,,,,,,,,,,,,,,,,,,,,,,,,,,,,,,,,,,,,,,,,,,,,,,,,,,,,,,,,,,,,,,,,,,,,,,,,,,,,,,,,,,,,,,,,,,,,,
,,,,,,611d614ecc4045952124853c,62bbfaa273dcda4f2d175ffe,2022-06-29_09h12.07.840,Colour_Asymmetry_Pilot,2022.1.3,Win32,60.0276127,62bbe60bf3d75ef465d3e404,0,67,67,36,1,threeone,,,,,,,,,,,,,,,,,,,,,,,,,,,,,,,,,,,,,,,,,,,,,,,,,,,,,,,,,,,,,,,,,,,,,,,,,,,,,,,,,,,,,,,,,,,,,,,,,,,,,,,,,,,,,,,,,,,,,,,,,,,,,,,,,,,,,,,,,,,,,,,,,,,,,,,,
,,,,,,611d614ecc4045952124853c,62bbfaa273dcda4f2d175ffe,2022-06-29_09h12.07.840,Colour_Asymmetry_Pilot,2022.1.3,Win32,60.0276127,62bbe60bf3d75ef465d3e404,0,68,68,125,1,threefour,,,,,,,,,,,,,,,,,,,,,,,,,,,,,,,,,,,,,,,,,,,,,,,,,,,,,,,,,,,,,,,,,,,,,,,,,,,,,,,,,,,,,,,,,,,,,,,,,,,,,,,,,,,,,,,,,,,,,,,,,,,,,,,,,,,,,,,,,,,,,,,,,,,,,,,,
,,,,,,611d614ecc4045952124853c,62bbfaa273dcda4f2d175ffe,2022-06-29_09h12.07.840,Colour_Asymmetry_Pilot,2022.1.3,Win32,60.0276127,62bbe60bf3d75ef465d3e404,0,69,69,61,1,threefour,,,,,,,,,,,,,,,,,,,,,,,,,,,,,,,,,,,,,,,,,,,,,,,,,,,,,,,,,,,,,,,,,,,,,,,,,,,,,,,,,,,,,,,,,,,,,,,,,,,,,,,,,,,,,,,,,,,,,,,,,,,,,,,,,,,,,,,,,,,,,,,,,,,,,,,,
,,,,,,611d614ecc4045952124853c,62bbfaa273dcda4f2d175ffe,2022-06-29_09h12.07.840,Colour_Asymmetry_Pilot,2022.1.3,Win32,60.0276127,62bbe60bf3d75ef465d3e404,0,70,70,31,1,fourthree,,,,,,,,,,,,,,,,,,,,,,,,,,,,,,,,,,,,,,,,,,,,,,,,,,,,,,,,,,,,,,,,,,,,,,,,,,,,,,,,,,,,,,,,,,,,,,,,,,,,,,,,,,,,,,,,,,,,,,,,,,,,,,,,,,,,,,,,,,,,,,,,,,,,,,,,
,,,,,,611d614ecc4045952124853c,62bbfaa273dcda4f2d175ffe,2022-06-29_09h12.07.840,Colour_Asymmetry_Pilot,2022.1.3,Win32,60.0276127,62bbe60bf3d75ef465d3e404,0,71,71,44,1,threeone,,,,,,,,,,,,,,,,,,,,,,,,,,,,,,,,,,,,,,,,,,,,,,,,,,,,,,,,,,,,,,,,,,,,,,,,,,,,,,,,,,,,,,,,,,,,,,,,,,,,,,,,,,,,,,,,,,,,,,,,,,,,,,,,,,,,,,,,,,,,,,,,,,,,,,,,
,,,,,,611d614ecc4045952124853c,62bbfaa273dcda4f2d175ffe,2022-06-29_09h12.07.840,Colour_Asymmetry_Pilot,2022.1.3,Win32,60.0276127,62bbe60bf3d75ef465d3e404,0,72,72,64,1,onetwo,,,,,,,,,,,,,,,,,,,,,,,,,,,,,,,,,,,,,,,,,,,,,,,,,,,,,,,,,,,,,,,,,,,,,,,,,,,,,,,,,,,,,,,,,,,,,,,,,,,,,,,,,,,,,,,,,,,,,,,,,,,,,,,,,,,,,,,,,,,,,,,,,,,,,,,,
,,,,,,611d614ecc4045952124853c,62bbfaa273dcda4f2d175ffe,2022-06-29_09h12.07.840,Colour_Asymmetry_Pilot,2022.1.3,Win32,60.0276127,62bbe60bf3d75ef465d3e404,0,73,73,145,1,onethree,,,,,,,,,,,,,,,,,,,,,,,,,,,,,,,,,,,,,,,,,,,,,,,,,,,,,,,,,,,,,,,,,,,,,,,,,,,,,,,,,,,,,,,,,,,,,,,,,,,,,,,,,,,,,,,,,,,,,,,,,,,,,,,,,,,,,,,,,,,,,,,,,,,,,,,,
,,,,,,611d614ecc4045952124853c,62bbfaa273dcda4f2d175ffe,2022-06-29_09h12.07.840,Colour_Asymmetry_Pilot,2022.1.3,Win32,60.0276127,62bbe60bf3d75ef465d3e404,0,74,74,5,1,threefour,,,,,,,,,,,,,,,,,,,,,,,,,,,,,,,,,,,,,,,,,,,,,,,,,,,,,,,,,,,,,,,,,,,,,,,,,,,,,,,,,,,,,,,,,,,,,,,,,,,,,,,,,,,,,,,,,,,,,,,,,,,,,,,,,,,,,,,,,,,,,,,,,,,,,,,,
,,,,,,611d614ecc4045952124853c,62bbfaa273dcda4f2d175ffe,2022-06-29_09h12.07.840,Colour_Asymmetry_Pilot,2022.1.3,Win32,60.0276127,62bbe60bf3d75ef465d3e404,0,75,75,46,1,fourtwo,,,,,,,,,,,,,,,,,,,,,,,,,,,,,,,,,,,,,,,,,,,,,,,,,,,,,,,,,,,,,,,,,,,,,,,,,,,,,,,,,,,,,,,,,,,,,,,,,,,,,,,,,,,,,,,,,,,,,,,,,,,,,,,,,,,,,,,,,,,,,,,,,,,,,,,,
,,,,,,611d614ecc4045952124853c,62bbfaa273dcda4f2d175ffe,2022-06-29_09h12.07.840,Colour_Asymmetry_Pilot,2022.1.3,Win32,60.0276127,62bbe60bf3d75ef465d3e404,0,76,76,97,1,onethree,,,,,,,,,,,,,,,,,,,,,,,,,,,,,,,,,,,,,,,,,,,,,,,,,,,,,,,,,,,,,,,,,,,,,,,,,,,,,,,,,,,,,,,,,,,,,,,,,,,,,,,,,,,,,,,,,,,,,,,,,,,,,,,,,,,,,,,,,,,,,,,,,,,,,,,,
,,,,,,611d614ecc4045952124853c,62bbfaa273dcda4f2d175ffe,2022-06-29_09h12.07.840,Colour_Asymmetry_Pilot,2022.1.3,Win32,60.0276127,62bbe60bf3d75ef465d3e404,0,77,77,94,1,fourtwo,,,,,,,,,,,,,,,,,,,,,,,,,,,,,,,,,,,,,,,,,,,,,,,,,,,,,,,,,,,,,,,,,,,,,,,,,,,,,,,,,,,,,,,,,,,,,,,,,,,,,,,,,,,,,,,,,,,,,,,,,,,,,,,,,,,,,,,,,,,,,,,,,,,,,,,,
,,,,,,611d614ecc4045952124853c,62bbfaa273dcda4f2d175ffe,2022-06-29_09h12.07.840,Colour_Asymmetry_Pilot,2022.1.3,Win32,60.0276127,62bbe60bf3d75ef465d3e404,0,78,78,88,1,onetwo,,,,,,,,,,,,,,,,,,,,,,,,,,,,,,,,,,,,,,,,,,,,,,,,,,,,,,,,,,,,,,,,,,,,,,,,,,,,,,,,,,,,,,,,,,,,,,,,,,,,,,,,,,,,,,,,,,,,,,,,,,,,,,,,,,,,,,,,,,,,,,,,,,,,,,,,
,,,,,,611d614ecc4045952124853c,62bbfaa273dcda4f2d175ffe,2022-06-29_09h12.07.840,Colour_Asymmetry_Pilot,2022.1.3,Win32,60.0276127,62bbe60bf3d75ef465d3e404,0,79,79,17,1,onethree,,,,,,,,,,,,,,,,,,,,,,,,,,,,,,,,,,,,,,,,,,,,,,,,,,,,,,,,,,,,,,,,,,,,,,,,,,,,,,,,,,,,,,,,,,,,,,,,,,,,,,,,,,,,,,,,,,,,,,,,,,,,,,,,,,,,,,,,,,,,,,,,,,,,,,,,
,,,,,,611d614ecc4045952124853c,62bbfaa273dcda4f2d175ffe,2022-06-29_09h12.07.840,Colour_Asymmetry_Pilot,2022.1.3,Win32,60.0276127,62bbe60bf3d75ef465d3e404,0,80,80,130,1,twoone,,,,,,,,,,,,,,,,,,,,,,,,,,,,,,,,,,,,,,,,,,,,,,,,,,,,,,,,,,,,,,,,,,,,,,,,,,,,,,,,,,,,,,,,,,,,,,,,,,,,,,,,,,,,,,,,,,,,,,,,,,,,,,,,,,,,,,,,,,,,,,,,,,,,,,,,
,,,,,,611d614ecc4045952124853c,62bbfaa273dcda4f2d175ffe,2022-06-29_09h12.07.840,Colour_Asymmetry_Pilot,2022.1.3,Win32,60.0276127,62bbe60bf3d75ef465d3e404,0,81,81,79,1,fourthree,,,,,,,,,,,,,,,,,,,,,,,,,,,,,,,,,,,,,,,,,,,,,,,,,,,,,,,,,,,,,,,,,,,,,,,,,,,,,,,,,,,,,,,,,,,,,,,,,,,,,,,,,,,,,,,,,,,,,,,,,,,,,,,,,,,,,,,,,,,,,,,,,,,,,,,,
,,,,,,611d614ecc4045952124853c,62bbfaa273dcda4f2d175ffe,2022-06-29_09h12.07.840,Colour_Asymmetry_Pilot,2022.1.3,Win32,60.0276127,62bbe60bf3d75ef465d3e404,0,82,82,129,1,onethree,,,,,,,,,,,,,,,,,,,,,,,,,,,,,,,,,,,,,,,,,,,,,,,,,,,,,,,,,,,,,,,,,,,,,,,,,,,,,,,,,,,,,,,,,,,,,,,,,,,,,,,,,,,,,,,,,,,,,,,,,,,,,,,,,,,,,,,,,,,,,,,,,,,,,,,,
,,,,,,611d614ecc4045952124853c,62bbfaa273dcda4f2d175ffe,2022-06-29_09h12.07.840,Colour_Asymmetry_Pilot,2022.1.3,Win32,60.0276127,62bbe60bf3d75ef465d3e404,0,83,83,60,1,threeone,,,,,,,,,,,,,,,,,,,,,,,,,,,,,,,,,,,,,,,,,,,,,,,,,,,,,,,,,,,,,,,,,,,,,,,,,,,,,,,,,,,,,,,,,,,,,,,,,,,,,,,,,,,,,,,,,,,,,,,,,,,,,,,,,,,,,,,,,,,,,,,,,,,,,,,,
,,,,,,611d614ecc4045952124853c,62bbfaa273dcda4f2d175ffe,2022-06-29_09h12.07.840,Colour_Asymmetry_Pilot,2022.1.3,Win32,60.0276127,62bbe60bf3d75ef465d3e404,0,84,84,87,1,fourthree,,,,,,,,,,,,,,,,,,,,,,,,,,,,,,,,,,,,,,,,,,,,,,,,,,,,,,,,,,,,,,,,,,,,,,,,,,,,,,,,,,,,,,,,,,,,,,,,,,,,,,,,,,,,,,,,,,,,,,,,,,,,,,,,,,,,,,,,,,,,,,,,,,,,,,,,
,,,,,,611d614ecc4045952124853c,62bbfaa273dcda4f2d175ffe,2022-06-29_09h12.07.840,Colour_Asymmetry_Pilot,2022.1.3,Win32,60.0276127,62bbe60bf3d75ef465d3e404,0,85,85,58,1,twoone,,,,,,,,,,,,,,,,,,,,,,,,,,,,,,,,,,,,,,,,,,,,,,,,,,,,,,,,,,,,,,,,,,,,,,,,,,,,,,,,,,,,,,,,,,,,,,,,,,,,,,,,,,,,,,,,,,,,,,,,,,,,,,,,,,,,,,,,,,,,,,,,,,,,,,,,
,,,,,,611d614ecc4045952124853c,62bbfaa273dcda4f2d175ffe,2022-06-29_09h12.07.840,Colour_Asymmetry_Pilot,2022.1.3,Win32,60.0276127,62bbe60bf3d75ef465d3e404,0,86,86,128,1,onetwo,,,,,,,,,,,,,,,,,,,,,,,,,,,,,,,,,,,,,,,,,,,,,,,,,,,,,,,,,,,,,,,,,,,,,,,,,,,,,,,,,,,,,,,,,,,,,,,,,,,,,,,,,,,,,,,,,,,,,,,,,,,,,,,,,,,,,,,,,,,,,,,,,,,,,,,,
,,,,,,611d614ecc4045952124853c,62bbfaa273dcda4f2d175ffe,2022-06-29_09h12.07.840,Colour_Asymmetry_Pilot,2022.1.3,Win32,60.0276127,62bbe60bf3d75ef465d3e404,0,87,87,20,1,threeone,,,,,,,,,,,,,,,,,,,,,,,,,,,,,,,,,,,,,,,,,,,,,,,,,,,,,,,,,,,,,,,,,,,,,,,,,,,,,,,,,,,,,,,,,,,,,,,,,,,,,,,,,,,,,,,,,,,,,,,,,,,,,,,,,,,,,,,,,,,,,,,,,,,,,,,,
,,,,,,611d614ecc4045952124853c,62bbfaa273dcda4f2d175ffe,2022-06-29_09h12.07.840,Colour_Asymmetry_Pilot,2022.1.3,Win32,60.0276127,62bbe60bf3d75ef465d3e404,0,88,88,126,1,fourtwo,,,,,,,,,,,,,,,,,,,,,,,,,,,,,,,,,,,,,,,,,,,,,,,,,,,,,,,,,,,,,,,,,,,,,,,,,,,,,,,,,,,,,,,,,,,,,,,,,,,,,,,,,,,,,,,,,,,,,,,,,,,,,,,,,,,,,,,,,,,,,,,,,,,,,,,,
,,,,,,611d614ecc4045952124853c,62bbfaa273dcda4f2d175ffe,2022-06-29_09h12.07.840,Colour_Asymmetry_Pilot,2022.1.3,Win32,60.0276127,62bbe60bf3d75ef465d3e404,0,89,89,119,1,fourthree,,,,,,,,,,,,,,,,,,,,,,,,,,,,,,,,,,,,,,,,,,,,,,,,,,,,,,,,,,,,,,,,,,,,,,,,,,,,,,,,,,,,,,,,,,,,,,,,,,,,,,,,,,,,,,,,,,,,,,,,,,,,,,,,,,,,,,,,,,,,,,,,,,,,,,,,
,,,,,,611d614ecc4045952124853c,62bbfaa273dcda4f2d175ffe,2022-06-29_09h12.07.840,Colour_Asymmetry_Pilot,2022.1.3,Win32,60.0276127,62bbe60bf3d75ef465d3e404,0,90,90,37,1,threefour,,,,,,,,,,,,,,,,,,,,,,,,,,,,,,,,,,,,,,,,,,,,,,,,,,,,,,,,,,,,,,,,,,,,,,,,,,,,,,,,,,,,,,,,,,,,,,,,,,,,,,,,,,,,,,,,,,,,,,,,,,,,,,,,,,,,,,,,,,,,,,,,,,,,,,,,
,,,,,,611d614ecc4045952124853c,62bbfaa273dcda4f2d175ffe,2022-06-29_09h12.07.840,Colour_Asymmetry_Pilot,2022.1.3,Win32,60.0276127,62bbe60bf3d75ef465d3e404,0,91,91,152,1,onetwo,,,,,,,,,,,,,,,,,,,,,,,,,,,,,,,,,,,,,,,,,,,,,,,,,,,,,,,,,,,,,,,,,,,,,,,,,,,,,,,,,,,,,,,,,,,,,,,,,,,,,,,,,,,,,,,,,,,,,,,,,,,,,,,,,,,,,,,,,,,,,,,,,,,,,,,,
,,,,,,611d614ecc4045952124853c,62bbfaa273dcda4f2d175ffe,2022-06-29_09h12.07.840,Colour_Asymmetry_Pilot,2022.1.3,Win32,60.0276127,62bbe60bf3d75ef465d3e404,0,92,92,102,1,fourtwo,,,,,,,,,,,,,,,,,,,,,,,,,,,,,,,,,,,,,,,,,,,,,,,,,,,,,,,,,,,,,,,,,,,,,,,,,,,,,,,,,,,,,,,,,,,,,,,,,,,,,,,,,,,,,,,,,,,,,,,,,,,,,,,,,,,,,,,,,,,,,,,,,,,,,,,,
,,,,,,611d614ecc4045952124853c,62bbfaa273dcda4f2d175ffe,2022-06-29_09h12.07.840,Colour_Asymmetry_Pilot,2022.1.3,Win32,60.0276127,62bbe60bf3d75ef465d3e404,0,93,93,29,1,threefour,,,,,,,,,,,,,,,,,,,,,,,,,,,,,,,,,,,,,,,,,,,,,,,,,,,,,,,,,,,,,,,,,,,,,,,,,,,,,,,,,,,,,,,,,,,,,,,,,,,,,,,,,,,,,,,,,,,,,,,,,,,,,,,,,,,,,,,,,,,,,,,,,,,,,,,,
,,,,,,611d614ecc4045952124853c,62bbfaa273dcda4f2d175ffe,2022-06-29_09h12.07.840,Colour_Asymmetry_Pilot,2022.1.3,Win32,60.0276127,62bbe60bf3d75ef465d3e404,0,94,94,34,1,twoone,,,,,,,,,,,,,,,,,,,,,,,,,,,,,,,,,,,,,,,,,,,,,,,,,,,,,,,,,,,,,,,,,,,,,,,,,,,,,,,,,,,,,,,,,,,,,,,,,,,,,,,,,,,,,,,,,,,,,,,,,,,,,,,,,,,,,,,,,,,,,,,,,,,,,,,,
,,,,,,611d614ecc4045952124853c,62bbfaa273dcda4f2d175ffe,2022-06-29_09h12.07.840,Colour_Asymmetry_Pilot,2022.1.3,Win32,60.0276127,62bbe60bf3d75ef465d3e404,0,95,95,47,1,fourthree,,,,,,,,,,,,,,,,,,,,,,,,,,,,,,,,,,,,,,,,,,,,,,,,,,,,,,,,,,,,,,,,,,,,,,,,,,,,,,,,,,,,,,,,,,,,,,,,,,,,,,,,,,,,,,,,,,,,,,,,,,,,,,,,,,,,,,,,,,,,,,,,,,,,,,,,
,,,,,,611d614ecc4045952124853c,62bbfaa273dcda4f2d175ffe,2022-06-29_09h12.07.840,Colour_Asymmetry_Pilot,2022.1.3,Win32,60.0276127,62bbe60bf3d75ef465d3e404,0,96,96,74,1,twoone,,,,,,,,,,,,,,,,,,,,,,,,,,,,,,,,,,,,,,,,,,,,,,,,,,,,,,,,,,,,,,,,,,,,,,,,,,,,,,,,,,,,,,,,,,,,,,,,,,,,,,,,,,,,,,,,,,,,,,,,,,,,,,,,,,,,,,,,,,,,,,,,,,,,,,,,
,,,,,,611d614ecc4045952124853c,62bbfaa273dcda4f2d175ffe,2022-06-29_09h12.07.840,Colour_Asymmetry_Pilot,2022.1.3,Win32,60.0276127,62bbe60bf3d75ef465d3e404,0,97,97,122,1,twoone,,,,,,,,,,,,,,,,,,,,,,,,,,,,,,,,,,,,,,,,,,,,,,,,,,,,,,,,,,,,,,,,,,,,,,,,,,,,,,,,,,,,,,,,,,,,,,,,,,,,,,,,,,,,,,,,,,,,,,,,,,,,,,,,,,,,,,,,,,,,,,,,,,,,,,,,
,,,,,,611d614ecc4045952124853c,62bbfaa273dcda4f2d175ffe,2022-06-29_09h12.07.840,Colour_Asymmetry_Pilot,2022.1.3,Win32,60.0276127,62bbe60bf3d75ef465d3e404,0,98,98,54,1,fourtwo,,,,,,,,,,,,,,,,,,,,,,,,,,,,,,,,,,,,,,,,,,,,,,,,,,,,,,,,,,,,,,,,,,,,,,,,,,,,,,,,,,,,,,,,,,,,,,,,,,,,,,,,,,,,,,,,,,,,,,,,,,,,,,,,,,,,,,,,,,,,,,,,,,,,,,,,
,,,,,,611d614ecc4045952124853c,62bbfaa273dcda4f2d175ffe,2022-06-29_09h12.07.840,Colour_Asymmetry_Pilot,2022.1.3,Win32,60.0276127,62bbe60bf3d75ef465d3e404,0,99,99,82,1,twoone,,,,,,,,,,,,,,,,,,,,,,,,,,,,,,,,,,,,,,,,,,,,,,,,,,,,,,,,,,,,,,,,,,,,,,,,,,,,,,,,,,,,,,,,,,,,,,,,,,,,,,,,,,,,,,,,,,,,,,,,,,,,,,,,,,,,,,,,,,,,,,,,,,,,,,,,
,,,,,,611d614ecc4045952124853c,62bbfaa273dcda4f2d175ffe,2022-06-29_09h12.07.840,Colour_Asymmetry_Pilot,2022.1.3,Win32,60.0276127,62bbe60bf3d75ef465d3e404,0,100,100,52,1,threeone,,,,,,,,,,,,,,,,,,,,,,,,,,,,,,,,,,,,,,,,,,,,,,,,,,,,,,,,,,,,,,,,,,,,,,,,,,,,,,,,,,,,,,,,,,,,,,,,,,,,,,,,,,,,,,,,,,,,,,,,,,,,,,,,,,,,,,,,,,,,,,,,,,,,,,,,
,,,,,,611d614ecc4045952124853c,62bbfaa273dcda4f2d175ffe,2022-06-29_09h12.07.840,Colour_Asymmetry_Pilot,2022.1.3,Win32,60.0276127,62bbe60bf3d75ef465d3e404,0,101,101,80,1,onetwo,,,,,,,,,,,,,,,,,,,,,,,,,,,,,,,,,,,,,,,,,,,,,,,,,,,,,,,,,,,,,,,,,,,,,,,,,,,,,,,,,,,,,,,,,,,,,,,,,,,,,,,,,,,,,,,,,,,,,,,,,,,,,,,,,,,,,,,,,,,,,,,,,,,,,,,,
,,,,,,611d614ecc4045952124853c,62bbfaa273dcda4f2d175ffe,2022-06-29_09h12.07.840,Colour_Asymmetry_Pilot,2022.1.3,Win32,60.0276127,62bbe60bf3d75ef465d3e404,0,102,102,78,1,fourtwo,,,,,,,,,,,,,,,,,,,,,,,,,,,,,,,,,,,,,,,,,,,,,,,,,,,,,,,,,,,,,,,,,,,,,,,,,,,,,,,,,,,,,,,,,,,,,,,,,,,,,,,,,,,,,,,,,,,,,,,,,,,,,,,,,,,,,,,,,,,,,,,,,,,,,,,,
,,,,,,611d614ecc4045952124853c,62bbfaa273dcda4f2d175ffe,2022-06-29_09h12.07.840,Colour_Asymmetry_Pilot,2022.1.3,Win32,60.0276127,62bbe60bf3d75ef465d3e404,0,103,103,67,1,twofour,,,,,,,,,,,,,,,,,,,,,,,,,,,,,,,,,,,,,,,,,,,,,,,,,,,,,,,,,,,,,,,,,,,,,,,,,,,,,,,,,,,,,,,,,,,,,,,,,,,,,,,,,,,,,,,,,,,,,,,,,,,,,,,,,,,,,,,,,,,,,,,,,,,,,,,,
,,,,,,611d614ecc4045952124853c,62bbfaa273dcda4f2d175ffe,2022-06-29_09h12.07.840,Colour_Asymmetry_Pilot,2022.1.3,Win32,60.0276127,62bbe60bf3d75ef465d3e404,0,104,104,68,1,threeone,,,,,,,,,,,,,,,,,,,,,,,,,,,,,,,,,,,,,,,,,,,,,,,,,,,,,,,,,,,,,,,,,,,,,,,,,,,,,,,,,,,,,,,,,,,,,,,,,,,,,,,,,,,,,,,,,,,,,,,,,,,,,,,,,,,,,,,,,,,,,,,,,,,,,,,,
,,,,,,611d614ecc4045952124853c,62bbfaa273dcda4f2d175ffe,2022-06-29_09h12.07.840,Colour_Asymmetry_Pilot,2022.1.3,Win32,60.0276127,62bbe60bf3d75ef465d3e404,0,105,105,16,1,onetwo,,,,,,,,,,,,,,,,,,,,,,,,,,,,,,,,,,,,,,,,,,,,,,,,,,,,,,,,,,,,,,,,,,,,,,,,,,,,,,,,,,,,,,,,,,,,,,,,,,,,,,,,,,,,,,,,,,,,,,,,,,,,,,,,,,,,,,,,,,,,,,,,,,,,,,,,
,,,,,,611d614ecc4045952124853c,62bbfaa273dcda4f2d175ffe,2022-06-29_09h12.07.840,Colour_Asymmetry_Pilot,2022.1.3,Win32,60.0276127,62bbe60bf3d75ef465d3e404,0,106,106,127,1,fourthree,,,,,,,,,,,,,,,,,,,,,,,,,,,,,,,,,,,,,,,,,,,,,,,,,,,,,,,,,,,,,,,,,,,,,,,,,,,,,,,,,,,,,,,,,,,,,,,,,,,,,,,,,,,,,,,,,,,,,,,,,,,,,,,,,,,,,,,,,,,,,,,,,,,,,,,,
,,,,,,611d614ecc4045952124853c,62bbfaa273dcda4f2d175ffe,2022-06-29_09h12.07.840,Colour_Asymmetry_Pilot,2022.1.3,Win32,60.0276127,62bbe60bf3d75ef465d3e404,0,107,107,73,1,onethree,,,,,,,,,,,,,,,,,,,,,,,,,,,,,,,,,,,,,,,,,,,,,,,,,,,,,,,,,,,,,,,,,,,,,,,,,,,,,,,,,,,,,,,,,,,,,,,,,,,,,,,,,,,,,,,,,,,,,,,,,,,,,,,,,,,,,,,,,,,,,,,,,,,,,,,,
,,,,,,611d614ecc4045952124853c,62bbfaa273dcda4f2d175ffe,2022-06-29_09h12.07.840,Colour_Asymmetry_Pilot,2022.1.3,Win32,60.0276127,62bbe60bf3d75ef465d3e404,0,108,108,26,1,twoone,,,,,,,,,,,,,,,,,,,,,,,,,,,,,,,,,,,,,,,,,,,,,,,,,,,,,,,,,,,,,,,,,,,,,,,,,,,,,,,,,,,,,,,,,,,,,,,,,,,,,,,,,,,,,,,,,,,,,,,,,,,,,,,,,,,,,,,,,,,,,,,,,,,,,,,,
,,,,,,611d614ecc4045952124853c,62bbfaa273dcda4f2d175ffe,2022-06-29_09h12.07.840,Colour_Asymmetry_Pilot,2022.1.3,Win32,60.0276127,62bbe60bf3d75ef465d3e404,0,109,109,85,1,threefour,,,,,,,,,,,,,,,,,,,,,,,,,,,,,,,,,,,,,,,,,,,,,,,,,,,,,,,,,,,,,,,,,,,,,,,,,,,,,,,,,,,,,,,,,,,,,,,,,,,,,,,,,,,,,,,,,,,,,,,,,,,,,,,,,,,,,,,,,,,,,,,,,,,,,,,,
,,,,,,611d614ecc4045952124853c,62bbfaa273dcda4f2d175ffe,2022-06-29_09h12.07.840,Colour_Asymmetry_Pilot,2022.1.3,Win32,60.0276127,62bbe60bf3d75ef465d3e404,0,110,110,83,1,twofour,,,,,,,,,,,,,,,,,,,,,,,,,,,,,,,,,,,,,,,,,,,,,,,,,,,,,,,,,,,,,,,,,,,,,,,,,,,,,,,,,,,,,,,,,,,,,,,,,,,,,,,,,,,,,,,,,,,,,,,,,,,,,,,,,,,,,,,,,,,,,,,,,,,,,,,,
,,,,,,611d614ecc4045952124853c,62bbfaa273dcda4f2d175ffe,2022-06-29_09h12.07.840,Colour_Asymmetry_Pilot,2022.1.3,Win32,60.0276127,62bbe60bf3d75ef465d3e404,0,111,111,45,1,threefour,,,,,,,,,,,,,,,,,,,,,,,,,,,,,,,,,,,,,,,,,,,,,,,,,,,,,,,,,,,,,,,,,,,,,,,,,,,,,,,,,,,,,,,,,,,,,,,,,,,,,,,,,,,,,,,,,,,,,,,,,,,,,,,,,,,,,,,,,,,,,,,,,,,,,,,,
,,,,,,611d614ecc4045952124853c,62bbfaa273dcda4f2d175ffe,2022-06-29_09h12.07.840,Colour_Asymmetry_Pilot,2022.1.3,Win32,60.0276127,62bbe60bf3d75ef465d3e404,0,112,112,71,1,fourthree,,,,,,,,,,,,,,,,,,,,,,,,,,,,,,,,,,,,,,,,,,,,,,,,,,,,,,,,,,,,,,,,,,,,,,,,,,,,,,,,,,,,,,,,,,,,,,,,,,,,,,,,,,,,,,,,,,,,,,,,,,,,,,,,,,,,,,,,,,,,,,,,,,,,,,,,
,,,,,,611d614ecc4045952124853c,62bbfaa273dcda4f2d175ffe,2022-06-29_09h12.07.840,Colour_Asymmetry_Pilot,2022.1.3,Win32,60.0276127,62bbe60bf3d75ef465d3e404,0,113,113,161,1,onethree,,,,,,,,,,,,,,,,,,,,,,,,,,,,,,,,,,,,,,,,,,,,,,,,,,,,,,,,,,,,,,,,,,,,,,,,,,,,,,,,,,,,,,,,,,,,,,,,,,,,,,,,,,,,,,,,,,,,,,,,,,,,,,,,,,,,,,,,,,,,,,,,,,,,,,,,
,,,,,,611d614ecc4045952124853c,62bbfaa273dcda4f2d175ffe,2022-06-29_09h12.07.840,Colour_Asymmetry_Pilot,2022.1.3,Win32,60.0276127,62bbe60bf3d75ef465d3e404,0,114,114,42,1,twoone,,,,,,,,,,,,,,,,,,,,,,,,,,,,,,,,,,,,,,,,,,,,,,,,,,,,,,,,,,,,,,,,,,,,,,,,,,,,,,,,,,,,,,,,,,,,,,,,,,,,,,,,,,,,,,,,,,,,,,,,,,,,,,,,,,,,,,,,,,,,,,,,,,,,,,,,
,,,,,,611d614ecc4045952124853c,62bbfaa273dcda4f2d175ffe,2022-06-29_09h12.07.840,Colour_Asymmetry_Pilot,2022.1.3,Win32,60.0276127,62bbe60bf3d75ef465d3e404,0,115,115,139,1,twofour,,,,,,,,,,,,,,,,,,,,,,,,,,,,,,,,,,,,,,,,,,,,,,,,,,,,,,,,,,,,,,,,,,,,,,,,,,,,,,,,,,,,,,,,,,,,,,,,,,,,,,,,,,,,,,,,,,,,,,,,,,,,,,,,,,,,,,,,,,,,,,,,,,,,,,,,
,,,,,,611d614ecc4045952124853c,62bbfaa273dcda4f2d175ffe,2022-06-29_09h12.07.840,Colour_Asymmetry_Pilot,2022.1.3,Win32,60.0276127,62bbe60bf3d75ef465d3e404,0,116,116,72,1,onetwo,,,,,,,,,,,,,,,,,,,,,,,,,,,,,,,,,,,,,,,,,,,,,,,,,,,,,,,,,,,,,,,,,,,,,,,,,,,,,,,,,,,,,,,,,,,,,,,,,,,,,,,,,,,,,,,,,,,,,,,,,,,,,,,,,,,,,,,,,,,,,,,,,,,,,,,,
,,,,,,611d614ecc4045952124853c,62bbfaa273dcda4f2d175ffe,2022-06-29_09h12.07.840,Colour_Asymmetry_Pilot,2022.1.3,Win32,60.0276127,62bbe60bf3d75ef465d3e404,0,117,117,106,1,twoone,,,,,,,,,,,,,,,,,,,,,,,,,,,,,,,,,,,,,,,,,,,,,,,,,,,,,,,,,,,,,,,,,,,,,,,,,,,,,,,,,,,,,,,,,,,,,,,,,,,,,,,,,,,,,,,,,,,,,,,,,,,,,,,,,,,,,,,,,,,,,,,,,,,,,,,,
,,,,,,611d614ecc4045952124853c,62bbfaa273dcda4f2d175ffe,2022-06-29_09h12.07.840,Colour_Asymmetry_Pilot,2022.1.3,Win32,60.0276127,62bbe60bf3d75ef465d3e404,0,118,118,111,1,fourthree,,,,,,,,,,,,,,,,,,,,,,,,,,,,,,,,,,,,,,,,,,,,,,,,,,,,,,,,,,,,,,,,,,,,,,,,,,,,,,,,,,,,,,,,,,,,,,,,,,,,,,,,,,,,,,,,,,,,,,,,,,,,,,,,,,,,,,,,,,,,,,,,,,,,,,,,
,,,,,,611d614ecc4045952124853c,62bbfaa273dcda4f2d175ffe,2022-06-29_09h12.07.840,Colour_Asymmetry_Pilot,2022.1.3,Win32,60.0276127,62bbe60bf3d75ef465d3e404,0,119,119,66,1,twoone,,,,,,,,,,,,,,,,,,,,,,,,,,,,,,,,,,,,,,,,,,,,,,,,,,,,,,,,,,,,,,,,,,,,,,,,,,,,,,,,,,,,,,,,,,,,,,,,,,,,,,,,,,,,,,,,,,,,,,,,,,,,,,,,,,,,,,,,,,,,,,,,,,,,,,,,
,,,,,,611d614ecc4045952124853c,62bbfaa273dcda4f2d175ffe,2022-06-29_09h12.07.840,Colour_Asymmetry_Pilot,2022.1.3,Win32,60.0276127,62bbe60bf3d75ef465d3e404,0,120,120,116,1,threeone,,,,,,,,,,,,,,,,,,,,,,,,,,,,,,,,,,,,,,,,,,,,,,,,,,,,,,,,,,,,,,,,,,,,,,,,,,,,,,,,,,,,,,,,,,,,,,,,,,,,,,,,,,,,,,,,,,,,,,,,,,,,,,,,,,,,,,,,,,,,,,,,,,,,,,,,
,,,,,,611d614ecc4045952124853c,62bbfaa273dcda4f2d175ffe,2022-06-29_09h12.07.840,Colour_Asymmetry_Pilot,2022.1.3,Win32,60.0276127,62bbe60bf3d75ef465d3e404,0,121,121,154,1,twoone,,,,,,,,,,,,,,,,,,,,,,,,,,,,,,,,,,,,,,,,,,,,,,,,,,,,,,,,,,,,,,,,,,,,,,,,,,,,,,,,,,,,,,,,,,,,,,,,,,,,,,,,,,,,,,,,,,,,,,,,,,,,,,,,,,,,,,,,,,,,,,,,,,,,,,,,
,,,,,,611d614ecc4045952124853c,62bbfaa273dcda4f2d175ffe,2022-06-29_09h12.07.840,Colour_Asymmetry_Pilot,2022.1.3,Win32,60.0276127,62bbe60bf3d75ef465d3e404,0,122,122,49,1,onethree,,,,,,,,,,,,,,,,,,,,,,,,,,,,,,,,,,,,,,,,,,,,,,,,,,,,,,,,,,,,,,,,,,,,,,,,,,,,,,,,,,,,,,,,,,,,,,,,,,,,,,,,,,,,,,,,,,,,,,,,,,,,,,,,,,,,,,,,,,,,,,,,,,,,,,,,
,,,,,,611d614ecc4045952124853c,62bbfaa273dcda4f2d175ffe,2022-06-29_09h12.07.840,Colour_Asymmetry_Pilot,2022.1.3,Win32,60.0276127,62bbe60bf3d75ef465d3e404,0,123,123,134,1,fourtwo,,,,,,,,,,,,,,,,,,,,,,,,,,,,,,,,,,,,,,,,,,,,,,,,,,,,,,,,,,,,,,,,,,,,,,,,,,,,,,,,,,,,,,,,,,,,,,,,,,,,,,,,,,,,,,,,,,,,,,,,,,,,,,,,,,,,,,,,,,,,,,,,,,,,,,,,
,,,,,,611d614ecc4045952124853c,62bbfaa273dcda4f2d175ffe,2022-06-29_09h12.07.840,Colour_Asymmetry_Pilot,2022.1.3,Win32,60.0276127,62bbe60bf3d75ef465d3e404,0,124,124,132,1,threeone,,,,,,,,,,,,,,,,,,,,,,,,,,,,,,,,,,,,,,,,,,,,,,,,,,,,,,,,,,,,,,,,,,,,,,,,,,,,,,,,,,,,,,,,,,,,,,,,,,,,,,,,,,,,,,,,,,,,,,,,,,,,,,,,,,,,,,,,,,,,,,,,,,,,,,,,
,,,,,,611d614ecc4045952124853c,62bbfaa273dcda4f2d175ffe,2022-06-29_09h12.07.840,Colour_Asymmetry_Pilot,2022.1.3,Win32,60.0276127,62bbe60bf3d75ef465d3e404,0,125,125,120,1,onetwo,,,,,,,,,,,,,,,,,,,,,,,,,,,,,,,,,,,,,,,,,,,,,,,,,,,,,,,,,,,,,,,,,,,,,,,,,,,,,,,,,,,,,,,,,,,,,,,,,,,,,,,,,,,,,,,,,,,,,,,,,,,,,,,,,,,,,,,,,,,,,,,,,,,,,,,,
,,,,,,611d614ecc4045952124853c,62bbfaa273dcda4f2d175ffe,2022-06-29_09h12.07.840,Colour_Asymmetry_Pilot,2022.1.3,Win32,60.0276127,62bbe60bf3d75ef465d3e404,0,126,126,30,1,fourtwo,,,,,,,,,,,,,,,,,,,,,,,,,,,,,,,,,,,,,,,,,,,,,,,,,,,,,,,,,,,,,,,,,,,,,,,,,,,,,,,,,,,,,,,,,,,,,,,,,,,,,,,,,,,,,,,,,,,,,,,,,,,,,,,,,,,,,,,,,,,,,,,,,,,,,,,,
,,,,,,611d614ecc4045952124853c,62bbfaa273dcda4f2d175ffe,2022-06-29_09h12.07.840,Colour_Asymmetry_Pilot,2022.1.3,Win32,60.0276127,62bbe60bf3d75ef465d3e404,0,127,127,158,1,fourtwo,,,,,,,,,,,,,,,,,,,,,,,,,,,,,,,,,,,,,,,,,,,,,,,,,,,,,,,,,,,,,,,,,,,,,,,,,,,,,,,,,,,,,,,,,,,,,,,,,,,,,,,,,,,,,,,,,,,,,,,,,,,,,,,,,,,,,,,,,,,,,,,,,,,,,,,,
,,,,,,611d614ecc4045952124853c,62bbfaa273dcda4f2d175ffe,2022-06-29_09h12.07.840,Colour_Asymmetry_Pilot,2022.1.3,Win32,60.0276127,62bbe60bf3d75ef465d3e404,0,128,128,151,1,fourthree,,,,,,,,,,,,,,,,,,,,,,,,,,,,,,,,,,,,,,,,,,,,,,,,,,,,,,,,,,,,,,,,,,,,,,,,,,,,,,,,,,,,,,,,,,,,,,,,,,,,,,,,,,,,,,,,,,,,,,,,,,,,,,,,,,,,,,,,,,,,,,,,,,,,,,,,
,,,,,,611d614ecc4045952124853c,62bbfaa273dcda4f2d175ffe,2022-06-29_09h12.07.840,Colour_Asymmetry_Pilot,2022.1.3,Win32,60.0276127,62bbe60bf3d75ef465d3e404,0,129,129,110,1,fourtwo,,,,,,,,,,,,,,,,,,,,,,,,,,,,,,,,,,,,,,,,,,,,,,,,,,,,,,,,,,,,,,,,,,,,,,,,,,,,,,,,,,,,,,,,,,,,,,,,,,,,,,,,,,,,,,,,,,,,,,,,,,,,,,,,,,,,,,,,,,,,,,,,,,,,,,,,
,,,,,,611d614ecc4045952124853c,62bbfaa273dcda4f2d175ffe,2022-06-29_09h12.07.840,Colour_Asymmetry_Pilot,2022.1.3,Win32,60.0276127,62bbe60bf3d75ef465d3e404,0,130,130,7,1,fourthree,,,,,,,,,,,,,,,,,,,,,,,,,,,,,,,,,,,,,,,,,,,,,,,,,,,,,,,,,,,,,,,,,,,,,,,,,,,,,,,,,,,,,,,,,,,,,,,,,,,,,,,,,,,,,,,,,,,,,,,,,,,,,,,,,,,,,,,,,,,,,,,,,,,,,,,,
,,,,,,611d614ecc4045952124853c,62bbfaa273dcda4f2d175ffe,2022-06-29_09h12.07.840,Colour_Asymmetry_Pilot,2022.1.3,Win32,60.0276127,62bbe60bf3d75ef465d3e404,0,131,131,115,1,twofour,,,,,,,,,,,,,,,,,,,,,,,,,,,,,,,,,,,,,,,,,,,,,,,,,,,,,,,,,,,,,,,,,,,,,,,,,,,,,,,,,,,,,,,,,,,,,,,,,,,,,,,,,,,,,,,,,,,,,,,,,,,,,,,,,,,,,,,,,,,,,,,,,,,,,,,,
,,,,,,611d614ecc4045952124853c,62bbfaa273dcda4f2d175ffe,2022-06-29_09h12.07.840,Colour_Asymmetry_Pilot,2022.1.3,Win32,60.0276127,62bbe60bf3d75ef465d3e404,0,132,132,63,1,fourthree,,,,,,,,,,,,,,,,,,,,,,,,,,,,,,,,,,,,,,,,,,,,,,,,,,,,,,,,,,,,,,,,,,,,,,,,,,,,,,,,,,,,,,,,,,,,,,,,,,,,,,,,,,,,,,,,,,,,,,,,,,,,,,,,,,,,,,,,,,,,,,,,,,,,,,,,
,,,,,,611d614ecc4045952124853c,62bbfaa273dcda4f2d175ffe,2022-06-29_09h12.07.840,Colour_Asymmetry_Pilot,2022.1.3,Win32,60.0276127,62bbe60bf3d75ef465d3e404,0,133,133,39,1,fourthree,,,,,,,,,,,,,,,,,,,,,,,,,,,,,,,,,,,,,,,,,,,,,,,,,,,,,,,,,,,,,,,,,,,,,,,,,,,,,,,,,,,,,,,,,,,,,,,,,,,,,,,,,,,,,,,,,,,,,,,,,,,,,,,,,,,,,,,,,,,,,,,,,,,,,,,,
,,,,,,611d614ecc4045952124853c,62bbfaa273dcda4f2d175ffe,2022-06-29_09h12.07.840,Colour_Asymmetry_Pilot,2022.1.3,Win32,60.0276127,62bbe60bf3d75ef465d3e404,0,134,134,138,1,twoone,,,,,,,,,,,,,,,,,,,,,,,,,,,,,,,,,,,,,,,,,,,,,,,,,,,,,,,,,,,,,,,,,,,,,,,,,,,,,,,,,,,,,,,,,,,,,,,,,,,,,,,,,,,,,,,,,,,,,,,,,,,,,,,,,,,,,,,,,,,,,,,,,,,,,,,,
,,,,,,611d614ecc4045952124853c,62bbfaa273dcda4f2d175ffe,2022-06-29_09h12.07.840,Colour_Asymmetry_Pilot,2022.1.3,Win32,60.0276127,62bbe60bf3d75ef465d3e404,0,135,135,75,1,twofour,,,,,,,,,,,,,,,,,,,,,,,,,,,,,,,,,,,,,,,,,,,,,,,,,,,,,,,,,,,,,,,,,,,,,,,,,,,,,,,,,,,,,,,,,,,,,,,,,,,,,,,,,,,,,,,,,,,,,,,,,,,,,,,,,,,,,,,,,,,,,,,,,,,,,,,,
,,,,,,611d614ecc4045952124853c,62bbfaa273dcda4f2d175ffe,2022-06-29_09h12.07.840,Colour_Asymmetry_Pilot,2022.1.3,Win32,60.0276127,62bbe60bf3d75ef465d3e404,0,136,136,23,1,fourthree,,,,,,,,,,,,,,,,,,,,,,,,,,,,,,,,,,,,,,,,,,,,,,,,,,,,,,,,,,,,,,,,,,,,,,,,,,,,,,,,,,,,,,,,,,,,,,,,,,,,,,,,,,,,,,,,,,,,,,,,,,,,,,,,,,,,,,,,,,,,,,,,,,,,,,,,
,,,,,,611d614ecc4045952124853c,62bbfaa273dcda4f2d175ffe,2022-06-29_09h12.07.840,Colour_Asymmetry_Pilot,2022.1.3,Win32,60.0276127,62bbe60bf3d75ef465d3e404,0,137,137,62,1,fourtwo,,,,,,,,,,,,,,,,,,,,,,,,,,,,,,,,,,,,,,,,,,,,,,,,,,,,,,,,,,,,,,,,,,,,,,,,,,,,,,,,,,,,,,,,,,,,,,,,,,,,,,,,,,,,,,,,,,,,,,,,,,,,,,,,,,,,,,,,,,,,,,,,,,,,,,,,
,,,,,,611d614ecc4045952124853c,62bbfaa273dcda4f2d175ffe,2022-06-29_09h12.07.840,Colour_Asymmetry_Pilot,2022.1.3,Win32,60.0276127,62bbe60bf3d75ef465d3e404,0,138,138,113,1,onethree,,,,,,,,,,,,,,,,,,,,,,,,,,,,,,,,,,,,,,,,,,,,,,,,,,,,,,,,,,,,,,,,,,,,,,,,,,,,,,,,,,,,,,,,,,,,,,,,,,,,,,,,,,,,,,,,,,,,,,,,,,,,,,,,,,,,,,,,,,,,,,,,,,,,,,,,
,,,,,,611d614ecc4045952124853c,62bbfaa273dcda4f2d175ffe,2022-06-29_09h12.07.840,Colour_Asymmetry_Pilot,2022.1.3,Win32,60.0276127,62bbe60bf3d75ef465d3e404,0,139,139,156,1,threeone,,,,,,,,,,,,,,,,,,,,,,,,,,,,,,,,,,,,,,,,,,,,,,,,,,,,,,,,,,,,,,,,,,,,,,,,,,,,,,,,,,,,,,,,,,,,,,,,,,,,,,,,,,,,,,,,,,,,,,,,,,,,,,,,,,,,,,,,,,,,,,,,,,,,,,,,
,,,,,,611d614ecc4045952124853c,62bbfaa273dcda4f2d175ffe,2022-06-29_09h12.07.840,Colour_Asymmetry_Pilot,2022.1.3,Win32,60.0276127,62bbe60bf3d75ef465d3e404,0,140,140,84,1,threeone,,,,,,,,,,,,,,,,,,,,,,,,,,,,,,,,,,,,,,,,,,,,,,,,,,,,,,,,,,,,,,,,,,,,,,,,,,,,,,,,,,,,,,,,,,,,,,,,,,,,,,,,,,,,,,,,,,,,,,,,,,,,,,,,,,,,,,,,,,,,,,,,,,,,,,,,
,,,,,,611d614ecc4045952124853c,62bbfaa273dcda4f2d175ffe,2022-06-29_09h12.07.840,Colour_Asymmetry_Pilot,2022.1.3,Win32,60.0276127,62bbe60bf3d75ef465d3e404,0,141,141,104,1,onetwo,,,,,,,,,,,,,,,,,,,,,,,,,,,,,,,,,,,,,,,,,,,,,,,,,,,,,,,,,,,,,,,,,,,,,,,,,,,,,,,,,,,,,,,,,,,,,,,,,,,,,,,,,,,,,,,,,,,,,,,,,,,,,,,,,,,,,,,,,,,,,,,,,,,,,,,,
,,,,,,611d614ecc4045952124853c,62bbfaa273dcda4f2d175ffe,2022-06-29_09h12.07.840,Colour_Asymmetry_Pilot,2022.1.3,Win32,60.0276127,62bbe60bf3d75ef465d3e404,0,142,142,2,1,twoone,,,,,,,,,,,,,,,,,,,,,,,,,,,,,,,,,,,,,,,,,,,,,,,,,,,,,,,,,,,,,,,,,,,,,,,,,,,,,,,,,,,,,,,,,,,,,,,,,,,,,,,,,,,,,,,,,,,,,,,,,,,,,,,,,,,,,,,,,,,,,,,,,,,,,,,,
,,,,,,611d614ecc4045952124853c,62bbfaa273dcda4f2d175ffe,2022-06-29_09h12.07.840,Colour_Asymmetry_Pilot,2022.1.3,Win32,60.0276127,62bbe60bf3d75ef465d3e404,0,143,143,81,1,onethree,,,,,,,,,,,,,,,,,,,,,,,,,,,,,,,,,,,,,,,,,,,,,,,,,,,,,,,,,,,,,,,,,,,,,,,,,,,,,,,,,,,,,,,,,,,,,,,,,,,,,,,,,,,,,,,,,,,,,,,,,,,,,,,,,,,,,,,,,,,,,,,,,,,,,,,,
,,,,,,611d614ecc4045952124853c,62bbfaa273dcda4f2d175ffe,2022-06-29_09h12.07.840,Colour_Asymmetry_Pilot,2022.1.3,Win32,60.0276127,62bbe60bf3d75ef465d3e404,0,144,144,3,1,twofour,,,,,,,,,,,,,,,,,,,,,,,,,,,,,,,,,,,,,,,,,,,,,,,,,,,,,,,,,,,,,,,,,,,,,,,,,,,,,,,,,,,,,,,,,,,,,,,,,,,,,,,,,,,,,,,,,,,,,,,,,,,,,,,,,,,,,,,,,,,,,,,,,,,,,,,,
,,,,,,611d614ecc4045952124853c,62bbfaa273dcda4f2d175ffe,2022-06-29_09h12.07.840,Colour_Asymmetry_Pilot,2022.1.3,Win32,60.0276127,62bbe60bf3d75ef465d3e404,0,145,145,11,1,twofour,,,,,,,,,,,,,,,,,,,,,,,,,,,,,,,,,,,,,,,,,,,,,,,,,,,,,,,,,,,,,,,,,,,,,,,,,,,,,,,,,,,,,,,,,,,,,,,,,,,,,,,,,,,,,,,,,,,,,,,,,,,,,,,,,,,,,,,,,,,,,,,,,,,,,,,,
,,,,,,611d614ecc4045952124853c,62bbfaa273dcda4f2d175ffe,2022-06-29_09h12.07.840,Colour_Asymmetry_Pilot,2022.1.3,Win32,60.0276127,62bbe60bf3d75ef465d3e404,0,146,146,86,1,fourtwo,,,,,,,,,,,,,,,,,,,,,,,,,,,,,,,,,,,,,,,,,,,,,,,,,,,,,,,,,,,,,,,,,,,,,,,,,,,,,,,,,,,,,,,,,,,,,,,,,,,,,,,,,,,,,,,,,,,,,,,,,,,,,,,,,,,,,,,,,,,,,,,,,,,,,,,,
,,,,,,611d614ecc4045952124853c,62bbfaa273dcda4f2d175ffe,2022-06-29_09h12.07.840,Colour_Asymmetry_Pilot,2022.1.3,Win32,60.0276127,62bbe60bf3d75ef465d3e404,0,147,147,56,1,onetwo,,,,,,,,,,,,,,,,,,,,,,,,,,,,,,,,,,,,,,,,,,,,,,,,,,,,,,,,,,,,,,,,,,,,,,,,,,,,,,,,,,,,,,,,,,,,,,,,,,,,,,,,,,,,,,,,,,,,,,,,,,,,,,,,,,,,,,,,,,,,,,,,,,,,,,,,
,,,,,,611d614ecc4045952124853c,62bbfaa273dcda4f2d175ffe,2022-06-29_09h12.07.840,Colour_Asymmetry_Pilot,2022.1.3,Win32,60.0276127,62bbe60bf3d75ef465d3e404,0,148,148,155,1,twofour,,,,,,,,,,,,,,,,,,,,,,,,,,,,,,,,,,,,,,,,,,,,,,,,,,,,,,,,,,,,,,,,,,,,,,,,,,,,,,,,,,,,,,,,,,,,,,,,,,,,,,,,,,,,,,,,,,,,,,,,,,,,,,,,,,,,,,,,,,,,,,,,,,,,,,,,
,,,,,,611d614ecc4045952124853c,62bbfaa273dcda4f2d175ffe,2022-06-29_09h12.07.840,Colour_Asymmetry_Pilot,2022.1.3,Win32,60.0276127,62bbe60bf3d75ef465d3e404,0,149,149,147,1,twofour,,,,,,,,,,,,,,,,,,,,,,,,,,,,,,,,,,,,,,,,,,,,,,,,,,,,,,,,,,,,,,,,,,,,,,,,,,,,,,,,,,,,,,,,,,,,,,,,,,,,,,,,,,,,,,,,,,,,,,,,,,,,,,,,,,,,,,,,,,,,,,,,,,,,,,,,
,,,,,,611d614ecc4045952124853c,62bbfaa273dcda4f2d175ffe,2022-06-29_09h12.07.840,Colour_Asymmetry_Pilot,2022.1.3,Win32,60.0276127,62bbe60bf3d75ef465d3e404,0,150,150,35,1,twofour,,,,,,,,,,,,,,,,,,,,,,,,,,,,,,,,,,,,,,,,,,,,,,,,,,,,,,,,,,,,,,,,,,,,,,,,,,,,,,,,,,,,,,,,,,,,,,,,,,,,,,,,,,,,,,,,,,,,,,,,,,,,,,,,,,,,,,,,,,,,,,,,,,,,,,,,
,,,,,,611d614ecc4045952124853c,62bbfaa273dcda4f2d175ffe,2022-06-29_09h12.07.840,Colour_Asymmetry_Pilot,2022.1.3,Win32,60.0276127,62bbe60bf3d75ef465d3e404,0,151,151,91,1,twofour,,,,,,,,,,,,,,,,,,,,,,,,,,,,,,,,,,,,,,,,,,,,,,,,,,,,,,,,,,,,,,,,,,,,,,,,,,,,,,,,,,,,,,,,,,,,,,,,,,,,,,,,,,,,,,,,,,,,,,,,,,,,,,,,,,,,,,,,,,,,,,,,,,,,,,,,
,,,,,,611d614ecc4045952124853c,62bbfaa273dcda4f2d175ffe,2022-06-29_09h12.07.840,Colour_Asymmetry_Pilot,2022.1.3,Win32,60.0276127,62bbe60bf3d75ef465d3e404,0,152,152,159,1,fourthree,,,,,,,,,,,,,,,,,,,,,,,,,,,,,,,,,,,,,,,,,,,,,,,,,,,,,,,,,,,,,,,,,,,,,,,,,,,,,,,,,,,,,,,,,,,,,,,,,,,,,,,,,,,,,,,,,,,,,,,,,,,,,,,,,,,,,,,,,,,,,,,,,,,,,,,,
,,,,,,611d614ecc4045952124853c,62bbfaa273dcda4f2d175ffe,2022-06-29_09h12.07.840,Colour_Asymmetry_Pilot,2022.1.3,Win32,60.0276127,62bbe60bf3d75ef465d3e404,0,153,153,118,1,fourtwo,,,,,,,,,,,,,,,,,,,,,,,,,,,,,,,,,,,,,,,,,,,,,,,,,,,,,,,,,,,,,,,,,,,,,,,,,,,,,,,,,,,,,,,,,,,,,,,,,,,,,,,,,,,,,,,,,,,,,,,,,,,,,,,,,,,,,,,,,,,,,,,,,,,,,,,,
,,,,,,611d614ecc4045952124853c,62bbfaa273dcda4f2d175ffe,2022-06-29_09h12.07.840,Colour_Asymmetry_Pilot,2022.1.3,Win32,60.0276127,62bbe60bf3d75ef465d3e404,0,154,154,153,1,onethree,,,,,,,,,,,,,,,,,,,,,,,,,,,,,,,,,,,,,,,,,,,,,,,,,,,,,,,,,,,,,,,,,,,,,,,,,,,,,,,,,,,,,,,,,,,,,,,,,,,,,,,,,,,,,,,,,,,,,,,,,,,,,,,,,,,,,,,,,,,,,,,,,,,,,,,,
,,,,,,611d614ecc4045952124853c,62bbfaa273dcda4f2d175ffe,2022-06-29_09h12.07.840,Colour_Asymmetry_Pilot,2022.1.3,Win32,60.0276127,62bbe60bf3d75ef465d3e404,0,155,155,99,1,twofour,,,,,,,,,,,,,,,,,,,,,,,,,,,,,,,,,,,,,,,,,,,,,,,,,,,,,,,,,,,,,,,,,,,,,,,,,,,,,,,,,,,,,,,,,,,,,,,,,,,,,,,,,,,,,,,,,,,,,,,,,,,,,,,,,,,,,,,,,,,,,,,,,,,,,,,,
,,,,,,611d614ecc4045952124853c,62bbfaa273dcda4f2d175ffe,2022-06-29_09h12.07.840,Colour_Asymmetry_Pilot,2022.1.3,Win32,60.0276127,62bbe60bf3d75ef465d3e404,0,156,156,27,1,twofour,,,,,,,,,,,,,,,,,,,,,,,,,,,,,,,,,,,,,,,,,,,,,,,,,,,,,,,,,,,,,,,,,,,,,,,,,,,,,,,,,,,,,,,,,,,,,,,,,,,,,,,,,,,,,,,,,,,,,,,,,,,,,,,,,,,,,,,,,,,,,,,,,,,,,,,,
,,,,,,611d614ecc4045952124853c,62bbfaa273dcda4f2d175ffe,2022-06-29_09h12.07.840,Colour_Asymmetry_Pilot,2022.1.3,Win32,60.0276127,62bbe60bf3d75ef465d3e404,0,157,157,57,1,onethree,,,,,,,,,,,,,,,,,,,,,,,,,,,,,,,,,,,,,,,,,,,,,,,,,,,,,,,,,,,,,,,,,,,,,,,,,,,,,,,,,,,,,,,,,,,,,,,,,,,,,,,,,,,,,,,,,,,,,,,,,,,,,,,,,,,,,,,,,,,,,,,,,,,,,,,,
,,,,,,611d614ecc4045952124853c,62bbfaa273dcda4f2d175ffe,2022-06-29_09h12.07.840,Colour_Asymmetry_Pilot,2022.1.3,Win32,60.0276127,62bbe60bf3d75ef465d3e404,0,158,158,142,1,fourtwo,,,,,,,,,,,,,,,,,,,,,,,,,,,,,,,,,,,,,,,,,,,,,,,,,,,,,,,,,,,,,,,,,,,,,,,,,,,,,,,,,,,,,,,,,,,,,,,,,,,,,,,,,,,,,,,,,,,,,,,,,,,,,,,,,,,,,,,,,,,,,,,,,,,,,,,,
,,,,,,611d614ecc4045952124853c,62bbfaa273dcda4f2d175ffe,2022-06-29_09h12.07.840,Colour_Asymmetry_Pilot,2022.1.3,Win32,60.0276127,62bbe60bf3d75ef465d3e404,0,159,159,70,1,fourtwo,,,,,,,,,,,,,,,,,,,,,,,,,,,,,,,,,,,,,,,,,,,,,,,,,,,,,,,,,,,,,,,,,,,,,,,,,,,,,,,,,,,,,,,,,,,,,,,,,,,,,,,,,,,,,,,,,,,,,,,,,,,,,,,,,,,,,,,,,,,,,,,,,,,,,,,,
,,,,,,611d614ecc4045952124853c,62bbfaa273dcda4f2d175ffe,2022-06-29_09h12.07.840,Colour_Asymmetry_Pilot,2022.1.3,Win32,60.0276127,62bbe60bf3d75ef465d3e404,0,160,160,112,1,onetwo,,,,,,,,,,,,,,,,,,,,,,,,,,,,,,,,,,,,,,,,,,,,,,,,,,,,,,,,,,,,,,,,,,,,,,,,,,,,,,,,,,,,,,,,,,,,,,,,,,,,,,,,,,,,,,,,,,,,,,,,,,,,,,,,,,,,,,,,,,,,,,,,,,,,,,,,
,,,,,,611d614ecc4045952124853c,62bbfaa273dcda4f2d175ffe,2022-06-29_09h12.07.840,Colour_Asymmetry_Pilot,2022.1.3,Win32,60.0276127,62bbe60bf3d75ef465d3e404,0,161,161,160,1,onetwo,,,,,,,,,,,,,,,,,,,,,,,,,,,,,,,,,,,,,,,,,,,,,,,,,,,,,,,,,,,,,,,,,,,,,,,,,,,,,,,,,,,,,,,,,,,,,,,,,,,,,,,,,,,,,,,,,,,,,,,,,,,,,,,,,,,,,,,,,,,,,,,,,,,,,,,,
,,,,,,611d614ecc4045952124853c,62bbfaa273dcda4f2d175ffe,2022-06-29_09h12.07.840,Colour_Asymmetry_Pilot,2022.1.3,Win32,60.0276127,62bbe60bf3d75ef465d3e404,,,,,,,space,10.0741,space,57.2278,space,51.1244,space,10.2343,space,2.9759,space,10.4975,"[-0.9688,-0.38039999999999996,-0.41979999999999995]",onetwo,"[-0.26280000000000003,-0.4746,-0.2158]",4,15.2846,24,77,1,0,0,response1disk_5,-6,2,1,0,0,rectangle_8,-6,2,1,0,0,1,-6,2,1,0,0,0,0,0,0,1,,,,,,,,,,,,,,,,,,,,,,,,,,,,,,,,,,,,,,,,,,,,,,,,,,,,,,,,,,,,,,,,,,,,,,,,,,,,,,,,,,,,,,,,,,,,,,,,,,,,,,,,,,,
,,,,,,611d614ecc4045952124853c,62bbfaa273dcda4f2d175ffe,2022-06-29_09h12.07.840,Colour_Asymmetry_Pilot,2022.1.3,Win32,60.0276127,62bbe60bf3d75ef465d3e404,,,,,,,,,,,,,,,,,,,"[0.7646000000000002,0.07440000000000002,0.2704]",onetwo,"[-0.2942,-0.24719999999999998,-0.357]",1,7.7101,34,-53,1,0,0,response3disk_5,2,0,1,0,0,rectangle_8,2,0,1,0,0,1,2,0,1,0,0,1,0,1,0,1,,,,,,,,,,,,,,,,,,,,,,,,,,,,,,,,,,,,,,,,,,,,,,,,,,,,,,,,,,,,,,,,,,,,,,,,,,,,,,,,,,,,,,,,,,,,,,,,,,,,,,,,,,,
,,,,,,611d614ecc4045952124853c,62bbfaa273dcda4f2d175ffe,2022-06-29_09h12.07.840,Colour_Asymmetry_Pilot,2022.1.3,Win32,60.0276127,62bbe60bf3d75ef465d3e404,,,,,,,,,,,,,,,,,,,"[-0.4902000000000001,0.2704,-0.45899999999999996]",threefour,"[-0.34920000000000007,-0.702,-0.5216]",-4,4.033,-43,70,1,0,0,response7disk_5,-21,10,1,0,0,rectangle_8,54,-92,1,0,0,1,6,0,1,0,0,2,0,2,0,1,response3disk_7,4,rectangle_4,,,,,,,,,,,,,,,,,,,,,,,,,,,,,,,,,,,,,,,,,,,,,,,,,,,,,,,,,,,,,,,,,,,,,,,,,,,,,,,,,,,,,,,,,,,,,,,,,,,,,,,,
,,,,,,611d614ecc4045952124853c,62bbfaa273dcda4f2d175ffe,2022-06-29_09h12.07.840,Colour_Asymmetry_Pilot,2022.1.3,Win32,60.0276127,62bbe60bf3d75ef465d3e404,,,,,,,,,,,,,,,,,,,"[-0.9844,-0.9688,-0.9922]",fourthree,"[-0.8982,-0.37259999999999993,0.2784]",-1,7.5648,-32,-108,1,0,0,response5disk_5,2,-5,1,0,0,rectangle_8,2,-5,1,0,0,1,2,-5,1,0,0,3,0,3,0,1,,,,,,,,,,,,,,,,,,,,,,,,,,,,,,,,,,,,,,,,,,,,,,,,,,,,,,,,,,,,,,,,,,,,,,,,,,,,,,,,,,,,,,,,,,,,,,,,,,,,,,,,,,,
,,,,,,611d614ecc4045952124853c,62bbfaa273dcda4f2d175ffe,2022-06-29_09h12.07.840,Colour_Asymmetry_Pilot,2022.1.3,Win32,60.0276127,62bbe60bf3d75ef465d3e404,,,,,,,,,,,,,,,,,,,"[-0.9688,-0.38039999999999996,-0.41979999999999995]",twofour,"[0.9763999999999999,0.30979999999999985,-0.6786]",-4,1.6781,-31,61,1,0,0,response7disk_5,-9,0,1,0,0,rectangle_8,-9,0,1,0,0,1,-9,0,1,0,0,4,0,4,0,1,,,,,,,,,,,,,,,,,,,,,,,,,,,,,,,,,,,,,,,,,,,,,,,,,,,,,,,,,,,,,,,,,,,,,,,,,,,,,,,,,,,,,,,,,,,,,,,,,,,,,,,,,,,
,,,,,,611d614ecc4045952124853c,62bbfaa273dcda4f2d175ffe,2022-06-29_09h12.07.840,Colour_Asymmetry_Pilot,2022.1.3,Win32,60.0276127,62bbe60bf3d75ef465d3e404,,,,,,,,,,,,,,,,,,,"[-0.011800000000000033,-0.906,-0.45100000000000007]",twofour,"[0.6547999999999998,-0.043199999999999905,-0.011800000000000033]",-1,4.4439,-45,-96,1,0,0,response5disk_5,-15,1,1,0,0,rectangle_8,-15,1,1,0,0,1,-15,1,1,0,0,5,0,5,0,1,,,,,,,,,,,,,,,,,,,,,,,,,,,,,,,,,,,,,,,,,,,,,,,,,,,,,,,,,,,,,,,,,,,,,,,,,,,,,,,,,,,,,,,,,,,,,,,,,,,,,,,,,,,
,,,,,,611d614ecc4045952124853c,62bbfaa273dcda4f2d175ffe,2022-06-29_09h12.07.840,Colour_Asymmetry_Pilot,2022.1.3,Win32,60.0276127,62bbe60bf3d75ef465d3e404,,,,,,,,,,,,,,,,,,,"[-0.6235999999999999,-0.6786,-0.08239999999999992]",threefour,"[-0.5452,-0.608,0.2470000000000001]",4,1.5663,30,67,1,0,0,response1disk_5,13,5,1,0,0,rectangle_8,13,5,1,0,0,1,13,5,1,0,0,6,0,6,0,1,,,,,,,,,,,,,,,,,,,,,,,,,,,,,,,,,,,,,,,,,,,,,,,,,,,,,,,,,,,,,,,,,,,,,,,,,,,,,,,,,,,,,,,,,,,,,,,,,,,,,,,,,,,
,,,,,,611d614ecc4045952124853c,62bbfaa273dcda4f2d175ffe,2022-06-29_09h12.07.840,Colour_Asymmetry_Pilot,2022.1.3,Win32,60.0276127,62bbe60bf3d75ef465d3e404,,,,,,,,,,,,,,,,,,,,twoone,,1,6.5327,,,,,,,,,,,,,,,,,,,,,,,,,,,,,,,,space,30.5146,"[-0.6942,-0.7648,-0.12959999999999994]","[0.2784,-0.31000000000000005,-0.5452]",26,-71,1,0,0,response3disk,11,-1,1,0,0,rectangle,11,-1,1,0,0,,1,0.0019,0,11,-1,1,0,0,0,0,0,25,1,25,first,,,,,,,,,,,,,,,,,,,,,,,,,,,,,,,,,,,,,,,,,,,,,,,,,,,,,,,,,,,,,,,,,,,
,,,,,,611d614ecc4045952124853c,62bbfaa273dcda4f2d175ffe,2022-06-29_09h12.07.840,Colour_Asymmetry_Pilot,2022.1.3,Win32,60.0276127,62bbe60bf3d75ef465d3e404,,,,,,,,,,,,,,,,,,,,onethree,,-4,1.0163,,,,,,,,,,,,,,,,,,,,,,,,,,,,,,,,,,"[-0.6706000000000001,-0.6157999999999999,-0.6786]","[0.05879999999999996,0.2784,0.5841999999999998]",-32,55,1,0,0,response7disk,-4,3,1,0,0,rectangle,-4,3,1,0,0,,3,0.0024,0,-4,3,1,0,0,0,1,1,147,1,66,second,,,,,,,,,,,,,,,,,,,,,,,,,,,,,,,,,,,,,,,,,,,,,,,,,,,,,,,,,,,,,,,,,,,
,,,,,,611d614ecc4045952124853c,62bbfaa273dcda4f2d175ffe,2022-06-29_09h12.07.840,Colour_Asymmetry_Pilot,2022.1.3,Win32,60.0276127,62bbe60bf3d75ef465d3e404,,,,,,,,,,,,,,,,,,,,threefour,,-4,1.8317,,,,,,,,,,,,,,,,,,,,,,,,,,,,,,,,,,"[0.2784,-0.31000000000000005,-0.5452]","[0.7018,0.7176,0.6155999999999999]",-27,108,1,0,0,response7disk,-6,3,1,0,0,rectangle,-6,3,1,0,0,,3,0.0005,0,-6,3,1,0,0,0,2,2,31,1,31,first,,,,,,,,,,,,,,,,,,,,,,,,,,,,,,,,,,,,,,,,,,,,,,,,,,,,,,,,,,,,,,,,,,,
,,,,,,611d614ecc4045952124853c,62bbfaa273dcda4f2d175ffe,2022-06-29_09h12.07.840,Colour_Asymmetry_Pilot,2022.1.3,Win32,60.0276127,62bbe60bf3d75ef465d3e404,,,,,,,,,,,,,,,,,,,,threeone,,1,1.483,,,,,,,,,,,,,,,,,,,,,,,,,,,,,,,,,,"[-0.9688,-0.7412000000000001,-0.4902000000000001]","[-0.4746,-0.0354000000000001,0.5449999999999999]",51,-104,1,0,0,response3disk,7,8,1,0,0,rectangle,51,-86,1,0,0,1,1,5.3618,1,3,5,1,0,0,0,3,3,104,1,23,second,response3disk_3,rectangle,,,,,,,,,,,,,,,,,,,,,,,,,,,,,,,,,,,,,,,,,,,,,,,,,,,,,,,,,,,,,,,,,
,,,,,,611d614ecc4045952124853c,62bbfaa273dcda4f2d175ffe,2022-06-29_09h12.07.840,Colour_Asymmetry_Pilot,2022.1.3,Win32,60.0276127,62bbe60bf3d75ef465d3e404,,,,,,,,,,,,,,,,,,,,fourthree,,2,1.0166,,,,,,,,,,,,,,,,,,,,,,,,,,,,,,,,,,"[-0.4982,-0.2942,-0.0354000000000001]","[-0.9766,-0.6472,0.07440000000000002]",57,-28,1,0,0,response3disk,5,4,1,0,0,rectangle,5,4,1,0,0,1,1,0.0005,0,5,4,1,0,0,0,4,4,144,1,63,second,,,,,,,,,,,,,,,,,,,,,,,,,,,,,,,,,,,,,,,,,,,,,,,,,,,,,,,,,,,,,,,,,,,
,,,,,,611d614ecc4045952124853c,62bbfaa273dcda4f2d175ffe,2022-06-29_09h12.07.840,Colour_Asymmetry_Pilot,2022.1.3,Win32,60.0276127,62bbe60bf3d75ef465d3e404,,,,,,,,,,,,,,,,,,,,twoone,,1,5.7812,,,,,,,,,,,,,,,,,,,,,,,,,,,,,,,,,,"[-0.20799999999999996,-0.655,-0.01980000000000004]","[-0.2942,-0.24719999999999998,-0.357]",48,-71,1,0,0,response3disk,-1,7,1,0,0,rectangle,-1,7,1,0,0,1,2,0.0014,0,-1,7,1,0,0,0,5,5,139,1,58,second,,,,,,,,,,,,,,,,,,,,,,,,,,,,,,,,,,,,,,,,,,,,,,,,,,,,,,,,,,,,,,,,,,,
,,,,,,611d614ecc4045952124853c,62bbfaa273dcda4f2d175ffe,2022-06-29_09h12.07.840,Colour_Asymmetry_Pilot,2022.1.3,Win32,60.0276127,62bbe60bf3d75ef465d3e404,,,,,,,,,,,,,,,,,,,,twoone,,-4,0.9163,,,,,,,,,,,,,,,,,,,,,,,,,,,,,,,,,,"[0.7646000000000002,0.07440000000000002,0.2704]","[-0.9688,-0.7412000000000001,-0.4902000000000001]",-21,48,1,0,0,response7disk,-6,6,1,0,0,rectangle,-6,6,1,0,0,1,3,0.0015,0,-6,6,1,0,0,0,6,6,126,1,45,second,,,,,,,,,,,,,,,,,,,,,,,,,,,,,,,,,,,,,,,,,,,,,,,,,,,,,,,,,,,,,,,,,,,
,,,,,,611d614ecc4045952124853c,62bbfaa273dcda4f2d175ffe,2022-06-29_09h12.07.840,Colour_Asymmetry_Pilot,2022.1.3,Win32,60.0276127,62bbe60bf3d75ef465d3e404,,,,,,,,,,,,,,,,,,,,threefour,,-1,4.2821,,,,,,,,,,,,,,,,,,,,,,,,,,,,,,,,,,"[0.6547999999999998,-0.043199999999999905,-0.011800000000000033]","[-0.24719999999999998,0.5213999999999999,-0.12959999999999994]",-26,-60,1,0,0,response5disk,3,3,1,0,0,rectangle,3,3,1,0,0,1,3,0.0002,0,3,3,1,0,0,0,7,7,149,1,68,second,,,,,,,,,,,,,,,,,,,,,,,,,,,,,,,,,,,,,,,,,,,,,,,,,,,,,,,,,,,,,,,,,,,
,,,,,,611d614ecc4045952124853c,62bbfaa273dcda4f2d175ffe,2022-06-29_09h12.07.840,Colour_Asymmetry_Pilot,2022.1.3,Win32,60.0276127,62bbe60bf3d75ef465d3e404,,,,,,,,,,,,,,,,,,,,threefour,,1,1.3492,,,,,,,,,,,,,,,,,,,,,,,,,,,,,,,,,,"[0.9763999999999999,0.30979999999999985,-0.6786]","[0.18419999999999992,-0.4276,-0.404]",24,-69,1,0,0,response3disk,-6,4,1,0,0,rectangle,-6,4,1,0,0,1,2,0.0023,0,-6,4,1,0,0,0,8,8,42,1,42,first,,,,,,,,,,,,,,,,,,,,,,,,,,,,,,,,,,,,,,,,,,,,,,,,,,,,,,,,,,,,,,,,,,,
,,,,,,611d614ecc4045952124853c,62bbfaa273dcda4f2d175ffe,2022-06-29_09h12.07.840,Colour_Asymmetry_Pilot,2022.1.3,Win32,60.0276127,62bbe60bf3d75ef465d3e404,,,,,,,,,,,,,,,,,,,,fourthree,,-4,1.1313,,,,,,,,,,,,,,,,,,,,,,,,,,,,,,,,,,"[0.30180000000000007,-0.7884,-0.9844]","[0.9763999999999999,0.30979999999999985,-0.6786]",-28,39,1,0,0,response7disk,-13,-9,1,0,0,rectangle,-13,-9,1,0,0,1,3,0.0022,0,-13,-9,1,0,0,0,9,9,12,1,12,first,,,,,,,,,,,,,,,,,,,,,,,,,,,,,,,,,,,,,,,,,,,,,,,,,,,,,,,,,,,,,,,,,,,
,,,,,,611d614ecc4045952124853c,62bbfaa273dcda4f2d175ffe,2022-06-29_09h12.07.840,Colour_Asymmetry_Pilot,2022.1.3,Win32,60.0276127,62bbe60bf3d75ef465d3e404,,,,,,,,,,,,,,,,,,,,onethree,,-4,0.9331,,,,,,,,,,,,,,,,,,,,,,,,,,,,,,,,,,"[-0.9688,-0.7412000000000001,-0.4902000000000001]","[0.7646000000000002,0.07440000000000002,0.2704]",-39,65,1,0,0,response7disk,-12,10,1,0,0,rectangle,-12,10,1,0,0,1,3,0.0003,0,-12,10,1,0,0,0,10,10,45,1,45,first,,,,,,,,,,,,,,,,,,,,,,,,,,,,,,,,,,,,,,,,,,,,,,,,,,,,,,,,,,,,,,,,,,,
,,,,,,611d614ecc4045952124853c,62bbfaa273dcda4f2d175ffe,2022-06-29_09h12.07.840,Colour_Asymmetry_Pilot,2022.1.3,Win32,60.0276127,62bbe60bf3d75ef465d3e404,,,,,,,,,,,,,,,,,,,,fourtwo,,4,0.9714,,,,,,,,,,,,,,,,,,,,,,,,,,,,,,,,,,"[-0.4668,-0.8746,-0.2942]","[-0.4668,-0.8746,-0.2942]",31,64,1,0,0,response1disk,-1,1,1,0,0,rectangle,-1,1,1,0,0,1,1,0.0024,0,-1,1,1,0,0,0,11,11,71,1,71,first,,,,,,,,,,,,,,,,,,,,,,,,,,,,,,,,,,,,,,,,,,,,,,,,,,,,,,,,,,,,,,,,,,,
,,,,,,611d614ecc4045952124853c,62bbfaa273dcda4f2d175ffe,2022-06-29_09h12.07.840,Colour_Asymmetry_Pilot,2022.1.3,Win32,60.0276127,62bbe60bf3d75ef465d3e404,,,,,,,,,,,,,,,,,,,,threeone,,-4,1.4169,,,,,,,,,,,,,,,,,,,,,,,,,,,,,,,,,,"[0.8115999999999999,-0.0040000000000000036,-0.09819999999999995]","[-0.30200000000000005,0.14500000000000002,0.2784]",-38,84,1,0,0,response7disk,-6,10,1,0,0,rectangle,-6,10,1,0,0,1,1,0.0004,0,-6,10,1,0,0,0,12,12,131,1,50,second,,,,,,,,,,,,,,,,,,,,,,,,,,,,,,,,,,,,,,,,,,,,,,,,,,,,,,,,,,,,,,,,,,,
,,,,,,611d614ecc4045952124853c,62bbfaa273dcda4f2d175ffe,2022-06-29_09h12.07.840,Colour_Asymmetry_Pilot,2022.1.3,Win32,60.0276127,62bbe60bf3d75ef465d3e404,,,,,,,,,,,,,,,,,,,,fourtwo,,1,1.9994,,,,,,,,,,,,,,,,,,,,,,,,,,,,,,,,,,"[0.7018,0.7176,0.6155999999999999]","[-0.26280000000000003,-0.2158,-0.3256]",39,-48,1,0,0,response3disk,-1,1,1,0,0,rectangle,-1,1,1,0,0,1,3,0.0025,0,-1,1,1,0,0,0,13,13,109,1,28,second,,,,,,,,,,,,,,,,,,,,,,,,,,,,,,,,,,,,,,,,,,,,,,,,,,,,,,,,,,,,,,,,,,,
,,,,,,611d614ecc4045952124853c,62bbfaa273dcda4f2d175ffe,2022-06-29_09h12.07.840,Colour_Asymmetry_Pilot,2022.1.3,Win32,60.0276127,62bbe60bf3d75ef465d3e404,,,,,,,,,,,,,,,,,,,,twoone,,-4,1.0997,,,,,,,,,,,,,,,,,,,,,,,,,,,,,,,,,,"[-0.4746,-0.0354000000000001,0.5449999999999999]","[-0.8198,-0.5138,-0.7492000000000001]",-37,81,1,0,0,response7disk,7,-5,1,0,0,rectangle,7,-5,1,0,0,1,3,0.0046,0,7,-5,1,0,0,0,14,14,150,1,69,second,,,,,,,,,,,,,,,,,,,,,,,,,,,,,,,,,,,,,,,,,,,,,,,,,,,,,,,,,,,,,,,,,,,
,,,,,,611d614ecc4045952124853c,62bbfaa273dcda4f2d175ffe,2022-06-29_09h12.07.840,Colour_Asymmetry_Pilot,2022.1.3,Win32,60.0276127,62bbe60bf3d75ef465d3e404,,,,,,,,,,,,,,,,,,,,fourthree,,-4,0.9326,,,,,,,,,,,,,,,,,,,,,,,,,,,,,,,,,,"[-0.10599999999999998,-0.15300000000000002,0.15280000000000005]","[0.9763999999999999,-0.1137999999999999,-0.6314]",-26,52,1,0,0,response7disk,-5,1,1,0,0,rectangle,-5,1,1,0,0,1,3,0.0002,0,-5,1,1,0,0,0,15,15,100,1,19,second,,,,,,,,,,,,,,,,,,,,,,,,,,,,,,,,,,,,,,,,,,,,,,,,,,,,,,,,,,,,,,,,,,,
,,,,,,611d614ecc4045952124853c,62bbfaa273dcda4f2d175ffe,2022-06-29_09h12.07.840,Colour_Asymmetry_Pilot,2022.1.3,Win32,60.0276127,62bbe60bf3d75ef465d3e404,,,,,,,,,,,,,,,,,,,,onethree,,-4,0.8629,,,,,,,,,,,,,,,,,,,,,,,,,,,,,,,,,,"[-0.4668,-0.8746,-0.2942]","[-0.050999999999999934,-0.6706000000000001,-0.804]",-54,95,1,0,0,response7disk,-3,7,1,0,0,rectangle,112,45,1,0,0,3,3,4.7757,1,0,4,1,0,0,0,16,16,161,1,80,second,response1disk_3,rectangle,,,,,,,,,,,,,,,,,,,,,,,,,,,,,,,,,,,,,,,,,,,,,,,,,,,,,,,,,,,,,,,,,
,,,,,,611d614ecc4045952124853c,62bbfaa273dcda4f2d175ffe,2022-06-29_09h12.07.840,Colour_Asymmetry_Pilot,2022.1.3,Win32,60.0276127,62bbe60bf3d75ef465d3e404,,,,,,,,,,,,,,,,,,,,onetwo,,-4,1.8829,,,,,,,,,,,,,,,,,,,,,,,,,,,,,,,,,,"[0.7646000000000002,0.07440000000000002,0.2704]","[0.19199999999999995,0.18419999999999992,0.5136000000000001]",-34,61,1,0,0,response7disk,9,-9,1,0,0,rectangle,9,-9,1,0,0,3,3,0.0003,0,9,-9,1,0,0,0,17,17,49,1,49,first,,,,,,,,,,,,,,,,,,,,,,,,,,,,,,,,,,,,,,,,,,,,,,,,,,,,,,,,,,,,,,,,,,,
,,,,,,611d614ecc4045952124853c,62bbfaa273dcda4f2d175ffe,2022-06-29_09h12.07.840,Colour_Asymmetry_Pilot,2022.1.3,Win32,60.0276127,62bbe60bf3d75ef465d3e404,,,,,,,,,,,,,,,,,,,,threefour,,-4,2.0327,,,,,,,,,,,,,,,,,,,,,,,,,,,,,,,,,,"[0.18419999999999992,-0.4276,-0.404]","[1,0.12939999999999996,-1]",-44,111,1,0,0,response7disk,10,-2,1,0,0,rectangle,10,-2,1,0,0,3,3,0.0004,0,10,-2,1,0,0,0,18,18,128,1,47,second,,,,,,,,,,,,,,,,,,,,,,,,,,,,,,,,,,,,,,,,,,,,,,,,,,,,,,,,,,,,,,,,,,,
,,,,,,611d614ecc4045952124853c,62bbfaa273dcda4f2d175ffe,2022-06-29_09h12.07.840,Colour_Asymmetry_Pilot,2022.1.3,Win32,60.0276127,62bbe60bf3d75ef465d3e404,,,,,,,,,,,,,,,,,,,,fourtwo,,-4,0.9331,,,,,,,,,,,,,,,,,,,,,,,,,,,,,,,,,,"[-0.9688,-0.7412000000000001,-0.4902000000000001]","[0.9842,0.7409999999999999,-0.6628000000000001]",-28,55,1,0,0,response7disk,0,1,1,0,0,rectangle,39,-75,1,0,0,1,1,2.1464,1,3,-7,1,0,0,0,19,19,76,1,76,first,response3disk_3,rectangle,,,,,,,,,,,,,,,,,,,,,,,,,,,,,,,,,,,,,,,,,,,,,,,,,,,,,,,,,,,,,,,,,
,,,,,,611d614ecc4045952124853c,62bbfaa273dcda4f2d175ffe,2022-06-29_09h12.07.840,Colour_Asymmetry_Pilot,2022.1.3,Win32,60.0276127,62bbe60bf3d75ef465d3e404,,,,,,,,,,,,,,,,,,,,onethree,,-4,1.983,,,,,,,,,,,,,,,,,,,,,,,,,,,,,,,,,,"[-0.24719999999999998,-0.0354000000000001,0.3175999999999999]","[0.9686000000000001,0.3802000000000001,0.19999999999999996]",-69,103,1,0,0,response7disk,1,10,1,0,0,rectangle,1,10,1,0,0,1,2,0.0024,0,1,10,1,0,0,0,20,20,125,1,44,second,,,,,,,,,,,,,,,,,,,,,,,,,,,,,,,,,,,,,,,,,,,,,,,,,,,,,,,,,,,,,,,,,,,
