trials.thisRepN,trials.thisTrialN,trials.thisN,trials.thisIndex,trials.ran,Colourcodes,participant,session,date,expName,psychopyVersion,OS,frameRate,study_id,trials_4.thisRepN,trials_4.thisTrialN,trials_4.thisN,trials_4.thisIndex,trials_4.ran,StimulusPos,key_resp.keys,key_resp.rt,key_resp_2.keys,key_resp_2.rt,key_resp_15.keys,key_resp_15.rt,key_resp_17.keys,key_resp_17.rt,key_resp_9.keys,key_resp_9.rt,key_resp_10.keys,key_resp_10.rt,Circle1_col,Ecc,Circle2_col,similarity,response_time,mouse_5.x,mouse_5.y,mouse_5.leftButton,mouse_5.midButton,mouse_5.rightButton,mouse_5.clicked_name,mouse_10.x,mouse_10.y,mouse_10.leftButton,mouse_10.midButton,mouse_10.rightButton,mouse_10.clicked_name,mouse_7.x,mouse_7.y,mouse_7.leftButton,mouse_7.midButton,mouse_7.rightButton,mouse_7.clicked_name,catchprac,catchnumberprac,mouse_6.x,mouse_6.y,mouse_6.leftButton,mouse_6.midButton,mouse_6.rightButton,mouse_6.clicked_name,duringprac.thisRepN,duringprac.thisTrialN,duringprac.thisN,duringprac.thisIndex,duringprac.ran,key_resp_22.keys,key_resp_22.rt,Circle1_colour,Circle2_colour,mouse.x,mouse.y,mouse.leftButton,mouse.midButton,mouse.rightButton,mouse.clicked_name,mouse_2.x,mouse_2.y,mouse_2.leftButton,mouse_2.midButton,mouse_2.rightButton,mouse_2.clicked_name,mouse_3.x,mouse_3.y,mouse_3.leftButton,mouse_3.midButton,mouse_3.rightButton,catchresponse,catchnumber,response_time_catch,Catch,mouse_11.x,mouse_11.y,mouse_11.leftButton,mouse_11.midButton,mouse_11.rightButton,trials_2.thisRepN,trials_2.thisTrialN,trials_2.thisN,trials_2.thisIndex,trials_2.ran,Colourpair,Temporder,mouse_3.clicked_name,mouse_11.clicked_name,trials_3.thisRepN,trials_3.thisTrialN,trials_3.thisN,trials_3.thisIndex,trials_3.ran,key_resp_instr_Ishi.keys,key_resp_instr_Ishi.rt,Ishi_trial_keyresp.keys,Ishi_trial_keyresp.rt,Ishi_textbox.text,Ishi_loop.thisRepN,Ishi_loop.thisTrialN,Ishi_loop.thisN,Ishi_loop.thisIndex,Ishi_loop.ran,imageaddress,textbox.text,mouse_4.x,mouse_4.y,mouse_4.leftButton,mouse_4.midButton,mouse_4.rightButton,mouse_4.clicked_name,textbox_2.text,mouse_8.x,mouse_8.y,mouse_8.leftButton,mouse_8.midButton,mouse_8.rightButton,mouse_8.clicked_name,textbox_3.text,mouse_9.x,mouse_9.y,mouse_9.leftButton,mouse_9.midButton,mouse_9.rightButton,mouse_9.clicked_name,textbox_4.text,mouse_12.x,mouse_12.y,mouse_12.leftButton,mouse_12.midButton,mouse_12.rightButton,mouse_12.clicked_name,textbox_5.text,mouse_13.x,mouse_13.y,mouse_13.leftButton,mouse_13.midButton,mouse_13.rightButton,mouse_13.clicked_name,textbox_6.text,mouse_14.x,mouse_14.y,mouse_14.leftButton,mouse_14.midButton,mouse_14.rightButton,mouse_14.clicked_name,textbox_7.text,mouse_15.x,mouse_15.y,mouse_15.leftButton,mouse_15.midButton,mouse_15.rightButton,mouse_15.clicked_name
0,0,0,36,1,,5c472ac67379d8000112983d,62bbfa94b6566e598f2acc8b,2022-06-29_08h09.20.550,Colour_Asymmetry_Pilot,2022.1.3,Win32,59.52735282,62bbe60bf3d75ef465d3e404,,,,,,,,,,,,,,,,,,,,,,,,,,,,,,,,,,,,,,,,,,,,,,,,,,,,,,,,,,,,,,,,,,,,,,,,,,,,,,,,,,,,,,,,,,,,,,,,,,,,,,,,,,,,,,,,,,,,,,,,,,,,,,,,,,,,,,,,,,,,,,,,,,,,,,,,,,,,,,
0,1,1,33,1,,5c472ac67379d8000112983d,62bbfa94b6566e598f2acc8b,2022-06-29_08h09.20.550,Colour_Asymmetry_Pilot,2022.1.3,Win32,59.52735282,62bbe60bf3d75ef465d3e404,,,,,,,,,,,,,,,,,,,,,,,,,,,,,,,,,,,,,,,,,,,,,,,,,,,,,,,,,,,,,,,,,,,,,,,,,,,,,,,,,,,,,,,,,,,,,,,,,,,,,,,,,,,,,,,,,,,,,,,,,,,,,,,,,,,,,,,,,,,,,,,,,,,,,,,,,,,,,,
0,2,2,11,1,,5c472ac67379d8000112983d,62bbfa94b6566e598f2acc8b,2022-06-29_08h09.20.550,Colour_Asymmetry_Pilot,2022.1.3,Win32,59.52735282,62bbe60bf3d75ef465d3e404,,,,,,,,,,,,,,,,,,,,,,,,,,,,,,,,,,,,,,,,,,,,,,,,,,,,,,,,,,,,,,,,,,,,,,,,,,,,,,,,,,,,,,,,,,,,,,,,,,,,,,,,,,,,,,,,,,,,,,,,,,,,,,,,,,,,,,,,,,,,,,,,,,,,,,,,,,,,,,
0,3,3,82,1,,5c472ac67379d8000112983d,62bbfa94b6566e598f2acc8b,2022-06-29_08h09.20.550,Colour_Asymmetry_Pilot,2022.1.3,Win32,59.52735282,62bbe60bf3d75ef465d3e404,,,,,,,,,,,,,,,,,,,,,,,,,,,,,,,,,,,,,,,,,,,,,,,,,,,,,,,,,,,,,,,,,,,,,,,,,,,,,,,,,,,,,,,,,,,,,,,,,,,,,,,,,,,,,,,,,,,,,,,,,,,,,,,,,,,,,,,,,,,,,,,,,,,,,,,,,,,,,,
0,4,4,21,1,,5c472ac67379d8000112983d,62bbfa94b6566e598f2acc8b,2022-06-29_08h09.20.550,Colour_Asymmetry_Pilot,2022.1.3,Win32,59.52735282,62bbe60bf3d75ef465d3e404,,,,,,,,,,,,,,,,,,,,,,,,,,,,,,,,,,,,,,,,,,,,,,,,,,,,,,,,,,,,,,,,,,,,,,,,,,,,,,,,,,,,,,,,,,,,,,,,,,,,,,,,,,,,,,,,,,,,,,,,,,,,,,,,,,,,,,,,,,,,,,,,,,,,,,,,,,,,,,
0,5,5,89,1,,5c472ac67379d8000112983d,62bbfa94b6566e598f2acc8b,2022-06-29_08h09.20.550,Colour_Asymmetry_Pilot,2022.1.3,Win32,59.52735282,62bbe60bf3d75ef465d3e404,,,,,,,,,,,,,,,,,,,,,,,,,,,,,,,,,,,,,,,,,,,,,,,,,,,,,,,,,,,,,,,,,,,,,,,,,,,,,,,,,,,,,,,,,,,,,,,,,,,,,,,,,,,,,,,,,,,,,,,,,,,,,,,,,,,,,,,,,,,,,,,,,,,,,,,,,,,,,,
0,6,6,78,1,,5c472ac67379d8000112983d,62bbfa94b6566e598f2acc8b,2022-06-29_08h09.20.550,Colour_Asymmetry_Pilot,2022.1.3,Win32,59.52735282,62bbe60bf3d75ef465d3e404,,,,,,,,,,,,,,,,,,,,,,,,,,,,,,,,,,,,,,,,,,,,,,,,,,,,,,,,,,,,,,,,,,,,,,,,,,,,,,,,,,,,,,,,,,,,,,,,,,,,,,,,,,,,,,,,,,,,,,,,,,,,,,,,,,,,,,,,,,,,,,,,,,,,,,,,,,,,,,
0,7,7,67,1,,5c472ac67379d8000112983d,62bbfa94b6566e598f2acc8b,2022-06-29_08h09.20.550,Colour_Asymmetry_Pilot,2022.1.3,Win32,59.52735282,62bbe60bf3d75ef465d3e404,,,,,,,,,,,,,,,,,,,,,,,,,,,,,,,,,,,,,,,,,,,,,,,,,,,,,,,,,,,,,,,,,,,,,,,,,,,,,,,,,,,,,,,,,,,,,,,,,,,,,,,,,,,,,,,,,,,,,,,,,,,,,,,,,,,,,,,,,,,,,,,,,,,,,,,,,,,,,,
0,8,8,55,1,,5c472ac67379d8000112983d,62bbfa94b6566e598f2acc8b,2022-06-29_08h09.20.550,Colour_Asymmetry_Pilot,2022.1.3,Win32,59.52735282,62bbe60bf3d75ef465d3e404,,,,,,,,,,,,,,,,,,,,,,,,,,,,,,,,,,,,,,,,,,,,,,,,,,,,,,,,,,,,,,,,,,,,,,,,,,,,,,,,,,,,,,,,,,,,,,,,,,,,,,,,,,,,,,,,,,,,,,,,,,,,,,,,,,,,,,,,,,,,,,,,,,,,,,,,,,,,,,
0,9,9,3,1,,5c472ac67379d8000112983d,62bbfa94b6566e598f2acc8b,2022-06-29_08h09.20.550,Colour_Asymmetry_Pilot,2022.1.3,Win32,59.52735282,62bbe60bf3d75ef465d3e404,,,,,,,,,,,,,,,,,,,,,,,,,,,,,,,,,,,,,,,,,,,,,,,,,,,,,,,,,,,,,,,,,,,,,,,,,,,,,,,,,,,,,,,,,,,,,,,,,,,,,,,,,,,,,,,,,,,,,,,,,,,,,,,,,,,,,,,,,,,,,,,,,,,,,,,,,,,,,,
0,10,10,7,1,,5c472ac67379d8000112983d,62bbfa94b6566e598f2acc8b,2022-06-29_08h09.20.550,Colour_Asymmetry_Pilot,2022.1.3,Win32,59.52735282,62bbe60bf3d75ef465d3e404,,,,,,,,,,,,,,,,,,,,,,,,,,,,,,,,,,,,,,,,,,,,,,,,,,,,,,,,,,,,,,,,,,,,,,,,,,,,,,,,,,,,,,,,,,,,,,,,,,,,,,,,,,,,,,,,,,,,,,,,,,,,,,,,,,,,,,,,,,,,,,,,,,,,,,,,,,,,,,
0,11,11,15,1,,5c472ac67379d8000112983d,62bbfa94b6566e598f2acc8b,2022-06-29_08h09.20.550,Colour_Asymmetry_Pilot,2022.1.3,Win32,59.52735282,62bbe60bf3d75ef465d3e404,,,,,,,,,,,,,,,,,,,,,,,,,,,,,,,,,,,,,,,,,,,,,,,,,,,,,,,,,,,,,,,,,,,,,,,,,,,,,,,,,,,,,,,,,,,,,,,,,,,,,,,,,,,,,,,,,,,,,,,,,,,,,,,,,,,,,,,,,,,,,,,,,,,,,,,,,,,,,,
0,12,12,12,1,,5c472ac67379d8000112983d,62bbfa94b6566e598f2acc8b,2022-06-29_08h09.20.550,Colour_Asymmetry_Pilot,2022.1.3,Win32,59.52735282,62bbe60bf3d75ef465d3e404,,,,,,,,,,,,,,,,,,,,,,,,,,,,,,,,,,,,,,,,,,,,,,,,,,,,,,,,,,,,,,,,,,,,,,,,,,,,,,,,,,,,,,,,,,,,,,,,,,,,,,,,,,,,,,,,,,,,,,,,,,,,,,,,,,,,,,,,,,,,,,,,,,,,,,,,,,,,,,
0,13,13,14,1,,5c472ac67379d8000112983d,62bbfa94b6566e598f2acc8b,2022-06-29_08h09.20.550,Colour_Asymmetry_Pilot,2022.1.3,Win32,59.52735282,62bbe60bf3d75ef465d3e404,,,,,,,,,,,,,,,,,,,,,,,,,,,,,,,,,,,,,,,,,,,,,,,,,,,,,,,,,,,,,,,,,,,,,,,,,,,,,,,,,,,,,,,,,,,,,,,,,,,,,,,,,,,,,,,,,,,,,,,,,,,,,,,,,,,,,,,,,,,,,,,,,,,,,,,,,,,,,,
0,14,14,23,1,,5c472ac67379d8000112983d,62bbfa94b6566e598f2acc8b,2022-06-29_08h09.20.550,Colour_Asymmetry_Pilot,2022.1.3,Win32,59.52735282,62bbe60bf3d75ef465d3e404,,,,,,,,,,,,,,,,,,,,,,,,,,,,,,,,,,,,,,,,,,,,,,,,,,,,,,,,,,,,,,,,,,,,,,,,,,,,,,,,,,,,,,,,,,,,,,,,,,,,,,,,,,,,,,,,,,,,,,,,,,,,,,,,,,,,,,,,,,,,,,,,,,,,,,,,,,,,,,
0,15,15,74,1,,5c472ac67379d8000112983d,62bbfa94b6566e598f2acc8b,2022-06-29_08h09.20.550,Colour_Asymmetry_Pilot,2022.1.3,Win32,59.52735282,62bbe60bf3d75ef465d3e404,,,,,,,,,,,,,,,,,,,,,,,,,,,,,,,,,,,,,,,,,,,,,,,,,,,,,,,,,,,,,,,,,,,,,,,,,,,,,,,,,,,,,,,,,,,,,,,,,,,,,,,,,,,,,,,,,,,,,,,,,,,,,,,,,,,,,,,,,,,,,,,,,,,,,,,,,,,,,,
0,16,16,51,1,,5c472ac67379d8000112983d,62bbfa94b6566e598f2acc8b,2022-06-29_08h09.20.550,Colour_Asymmetry_Pilot,2022.1.3,Win32,59.52735282,62bbe60bf3d75ef465d3e404,,,,,,,,,,,,,,,,,,,,,,,,,,,,,,,,,,,,,,,,,,,,,,,,,,,,,,,,,,,,,,,,,,,,,,,,,,,,,,,,,,,,,,,,,,,,,,,,,,,,,,,,,,,,,,,,,,,,,,,,,,,,,,,,,,,,,,,,,,,,,,,,,,,,,,,,,,,,,,
0,17,17,24,1,,5c472ac67379d8000112983d,62bbfa94b6566e598f2acc8b,2022-06-29_08h09.20.550,Colour_Asymmetry_Pilot,2022.1.3,Win32,59.52735282,62bbe60bf3d75ef465d3e404,,,,,,,,,,,,,,,,,,,,,,,,,,,,,,,,,,,,,,,,,,,,,,,,,,,,,,,,,,,,,,,,,,,,,,,,,,,,,,,,,,,,,,,,,,,,,,,,,,,,,,,,,,,,,,,,,,,,,,,,,,,,,,,,,,,,,,,,,,,,,,,,,,,,,,,,,,,,,,
0,18,18,41,1,,5c472ac67379d8000112983d,62bbfa94b6566e598f2acc8b,2022-06-29_08h09.20.550,Colour_Asymmetry_Pilot,2022.1.3,Win32,59.52735282,62bbe60bf3d75ef465d3e404,,,,,,,,,,,,,,,,,,,,,,,,,,,,,,,,,,,,,,,,,,,,,,,,,,,,,,,,,,,,,,,,,,,,,,,,,,,,,,,,,,,,,,,,,,,,,,,,,,,,,,,,,,,,,,,,,,,,,,,,,,,,,,,,,,,,,,,,,,,,,,,,,,,,,,,,,,,,,,
0,19,19,30,1,,5c472ac67379d8000112983d,62bbfa94b6566e598f2acc8b,2022-06-29_08h09.20.550,Colour_Asymmetry_Pilot,2022.1.3,Win32,59.52735282,62bbe60bf3d75ef465d3e404,,,,,,,,,,,,,,,,,,,,,,,,,,,,,,,,,,,,,,,,,,,,,,,,,,,,,,,,,,,,,,,,,,,,,,,,,,,,,,,,,,,,,,,,,,,,,,,,,,,,,,,,,,,,,,,,,,,,,,,,,,,,,,,,,,,,,,,,,,,,,,,,,,,,,,,,,,,,,,
0,20,20,66,1,,5c472ac67379d8000112983d,62bbfa94b6566e598f2acc8b,2022-06-29_08h09.20.550,Colour_Asymmetry_Pilot,2022.1.3,Win32,59.52735282,62bbe60bf3d75ef465d3e404,,,,,,,,,,,,,,,,,,,,,,,,,,,,,,,,,,,,,,,,,,,,,,,,,,,,,,,,,,,,,,,,,,,,,,,,,,,,,,,,,,,,,,,,,,,,,,,,,,,,,,,,,,,,,,,,,,,,,,,,,,,,,,,,,,,,,,,,,,,,,,,,,,,,,,,,,,,,,,
0,21,21,1,1,,5c472ac67379d8000112983d,62bbfa94b6566e598f2acc8b,2022-06-29_08h09.20.550,Colour_Asymmetry_Pilot,2022.1.3,Win32,59.52735282,62bbe60bf3d75ef465d3e404,,,,,,,,,,,,,,,,,,,,,,,,,,,,,,,,,,,,,,,,,,,,,,,,,,,,,,,,,,,,,,,,,,,,,,,,,,,,,,,,,,,,,,,,,,,,,,,,,,,,,,,,,,,,,,,,,,,,,,,,,,,,,,,,,,,,,,,,,,,,,,,,,,,,,,,,,,,,,,
0,22,22,62,1,,5c472ac67379d8000112983d,62bbfa94b6566e598f2acc8b,2022-06-29_08h09.20.550,Colour_Asymmetry_Pilot,2022.1.3,Win32,59.52735282,62bbe60bf3d75ef465d3e404,,,,,,,,,,,,,,,,,,,,,,,,,,,,,,,,,,,,,,,,,,,,,,,,,,,,,,,,,,,,,,,,,,,,,,,,,,,,,,,,,,,,,,,,,,,,,,,,,,,,,,,,,,,,,,,,,,,,,,,,,,,,,,,,,,,,,,,,,,,,,,,,,,,,,,,,,,,,,,
0,23,23,69,1,,5c472ac67379d8000112983d,62bbfa94b6566e598f2acc8b,2022-06-29_08h09.20.550,Colour_Asymmetry_Pilot,2022.1.3,Win32,59.52735282,62bbe60bf3d75ef465d3e404,,,,,,,,,,,,,,,,,,,,,,,,,,,,,,,,,,,,,,,,,,,,,,,,,,,,,,,,,,,,,,,,,,,,,,,,,,,,,,,,,,,,,,,,,,,,,,,,,,,,,,,,,,,,,,,,,,,,,,,,,,,,,,,,,,,,,,,,,,,,,,,,,,,,,,,,,,,,,,
0,24,24,13,1,,5c472ac67379d8000112983d,62bbfa94b6566e598f2acc8b,2022-06-29_08h09.20.550,Colour_Asymmetry_Pilot,2022.1.3,Win32,59.52735282,62bbe60bf3d75ef465d3e404,,,,,,,,,,,,,,,,,,,,,,,,,,,,,,,,,,,,,,,,,,,,,,,,,,,,,,,,,,,,,,,,,,,,,,,,,,,,,,,,,,,,,,,,,,,,,,,,,,,,,,,,,,,,,,,,,,,,,,,,,,,,,,,,,,,,,,,,,,,,,,,,,,,,,,,,,,,,,,
0,25,25,79,1,,5c472ac67379d8000112983d,62bbfa94b6566e598f2acc8b,2022-06-29_08h09.20.550,Colour_Asymmetry_Pilot,2022.1.3,Win32,59.52735282,62bbe60bf3d75ef465d3e404,,,,,,,,,,,,,,,,,,,,,,,,,,,,,,,,,,,,,,,,,,,,,,,,,,,,,,,,,,,,,,,,,,,,,,,,,,,,,,,,,,,,,,,,,,,,,,,,,,,,,,,,,,,,,,,,,,,,,,,,,,,,,,,,,,,,,,,,,,,,,,,,,,,,,,,,,,,,,,
0,26,26,45,1,,5c472ac67379d8000112983d,62bbfa94b6566e598f2acc8b,2022-06-29_08h09.20.550,Colour_Asymmetry_Pilot,2022.1.3,Win32,59.52735282,62bbe60bf3d75ef465d3e404,,,,,,,,,,,,,,,,,,,,,,,,,,,,,,,,,,,,,,,,,,,,,,,,,,,,,,,,,,,,,,,,,,,,,,,,,,,,,,,,,,,,,,,,,,,,,,,,,,,,,,,,,,,,,,,,,,,,,,,,,,,,,,,,,,,,,,,,,,,,,,,,,,,,,,,,,,,,,,
0,27,27,59,1,,5c472ac67379d8000112983d,62bbfa94b6566e598f2acc8b,2022-06-29_08h09.20.550,Colour_Asymmetry_Pilot,2022.1.3,Win32,59.52735282,62bbe60bf3d75ef465d3e404,,,,,,,,,,,,,,,,,,,,,,,,,,,,,,,,,,,,,,,,,,,,,,,,,,,,,,,,,,,,,,,,,,,,,,,,,,,,,,,,,,,,,,,,,,,,,,,,,,,,,,,,,,,,,,,,,,,,,,,,,,,,,,,,,,,,,,,,,,,,,,,,,,,,,,,,,,,,,,
0,28,28,80,1,,5c472ac67379d8000112983d,62bbfa94b6566e598f2acc8b,2022-06-29_08h09.20.550,Colour_Asymmetry_Pilot,2022.1.3,Win32,59.52735282,62bbe60bf3d75ef465d3e404,,,,,,,,,,,,,,,,,,,,,,,,,,,,,,,,,,,,,,,,,,,,,,,,,,,,,,,,,,,,,,,,,,,,,,,,,,,,,,,,,,,,,,,,,,,,,,,,,,,,,,,,,,,,,,,,,,,,,,,,,,,,,,,,,,,,,,,,,,,,,,,,,,,,,,,,,,,,,,
0,29,29,77,1,,5c472ac67379d8000112983d,62bbfa94b6566e598f2acc8b,2022-06-29_08h09.20.550,Colour_Asymmetry_Pilot,2022.1.3,Win32,59.52735282,62bbe60bf3d75ef465d3e404,,,,,,,,,,,,,,,,,,,,,,,,,,,,,,,,,,,,,,,,,,,,,,,,,,,,,,,,,,,,,,,,,,,,,,,,,,,,,,,,,,,,,,,,,,,,,,,,,,,,,,,,,,,,,,,,,,,,,,,,,,,,,,,,,,,,,,,,,,,,,,,,,,,,,,,,,,,,,,
0,30,30,42,1,,5c472ac67379d8000112983d,62bbfa94b6566e598f2acc8b,2022-06-29_08h09.20.550,Colour_Asymmetry_Pilot,2022.1.3,Win32,59.52735282,62bbe60bf3d75ef465d3e404,,,,,,,,,,,,,,,,,,,,,,,,,,,,,,,,,,,,,,,,,,,,,,,,,,,,,,,,,,,,,,,,,,,,,,,,,,,,,,,,,,,,,,,,,,,,,,,,,,,,,,,,,,,,,,,,,,,,,,,,,,,,,,,,,,,,,,,,,,,,,,,,,,,,,,,,,,,,,,
0,31,31,8,1,,5c472ac67379d8000112983d,62bbfa94b6566e598f2acc8b,2022-06-29_08h09.20.550,Colour_Asymmetry_Pilot,2022.1.3,Win32,59.52735282,62bbe60bf3d75ef465d3e404,,,,,,,,,,,,,,,,,,,,,,,,,,,,,,,,,,,,,,,,,,,,,,,,,,,,,,,,,,,,,,,,,,,,,,,,,,,,,,,,,,,,,,,,,,,,,,,,,,,,,,,,,,,,,,,,,,,,,,,,,,,,,,,,,,,,,,,,,,,,,,,,,,,,,,,,,,,,,,
0,32,32,75,1,,5c472ac67379d8000112983d,62bbfa94b6566e598f2acc8b,2022-06-29_08h09.20.550,Colour_Asymmetry_Pilot,2022.1.3,Win32,59.52735282,62bbe60bf3d75ef465d3e404,,,,,,,,,,,,,,,,,,,,,,,,,,,,,,,,,,,,,,,,,,,,,,,,,,,,,,,,,,,,,,,,,,,,,,,,,,,,,,,,,,,,,,,,,,,,,,,,,,,,,,,,,,,,,,,,,,,,,,,,,,,,,,,,,,,,,,,,,,,,,,,,,,,,,,,,,,,,,,
0,33,33,52,1,,5c472ac67379d8000112983d,62bbfa94b6566e598f2acc8b,2022-06-29_08h09.20.550,Colour_Asymmetry_Pilot,2022.1.3,Win32,59.52735282,62bbe60bf3d75ef465d3e404,,,,,,,,,,,,,,,,,,,,,,,,,,,,,,,,,,,,,,,,,,,,,,,,,,,,,,,,,,,,,,,,,,,,,,,,,,,,,,,,,,,,,,,,,,,,,,,,,,,,,,,,,,,,,,,,,,,,,,,,,,,,,,,,,,,,,,,,,,,,,,,,,,,,,,,,,,,,,,
0,34,34,38,1,,5c472ac67379d8000112983d,62bbfa94b6566e598f2acc8b,2022-06-29_08h09.20.550,Colour_Asymmetry_Pilot,2022.1.3,Win32,59.52735282,62bbe60bf3d75ef465d3e404,,,,,,,,,,,,,,,,,,,,,,,,,,,,,,,,,,,,,,,,,,,,,,,,,,,,,,,,,,,,,,,,,,,,,,,,,,,,,,,,,,,,,,,,,,,,,,,,,,,,,,,,,,,,,,,,,,,,,,,,,,,,,,,,,,,,,,,,,,,,,,,,,,,,,,,,,,,,,,
0,35,35,85,1,,5c472ac67379d8000112983d,62bbfa94b6566e598f2acc8b,2022-06-29_08h09.20.550,Colour_Asymmetry_Pilot,2022.1.3,Win32,59.52735282,62bbe60bf3d75ef465d3e404,,,,,,,,,,,,,,,,,,,,,,,,,,,,,,,,,,,,,,,,,,,,,,,,,,,,,,,,,,,,,,,,,,,,,,,,,,,,,,,,,,,,,,,,,,,,,,,,,,,,,,,,,,,,,,,,,,,,,,,,,,,,,,,,,,,,,,,,,,,,,,,,,,,,,,,,,,,,,,
0,36,36,64,1,,5c472ac67379d8000112983d,62bbfa94b6566e598f2acc8b,2022-06-29_08h09.20.550,Colour_Asymmetry_Pilot,2022.1.3,Win32,59.52735282,62bbe60bf3d75ef465d3e404,,,,,,,,,,,,,,,,,,,,,,,,,,,,,,,,,,,,,,,,,,,,,,,,,,,,,,,,,,,,,,,,,,,,,,,,,,,,,,,,,,,,,,,,,,,,,,,,,,,,,,,,,,,,,,,,,,,,,,,,,,,,,,,,,,,,,,,,,,,,,,,,,,,,,,,,,,,,,,
0,37,37,88,1,,5c472ac67379d8000112983d,62bbfa94b6566e598f2acc8b,2022-06-29_08h09.20.550,Colour_Asymmetry_Pilot,2022.1.3,Win32,59.52735282,62bbe60bf3d75ef465d3e404,,,,,,,,,,,,,,,,,,,,,,,,,,,,,,,,,,,,,,,,,,,,,,,,,,,,,,,,,,,,,,,,,,,,,,,,,,,,,,,,,,,,,,,,,,,,,,,,,,,,,,,,,,,,,,,,,,,,,,,,,,,,,,,,,,,,,,,,,,,,,,,,,,,,,,,,,,,,,,
0,38,38,57,1,,5c472ac67379d8000112983d,62bbfa94b6566e598f2acc8b,2022-06-29_08h09.20.550,Colour_Asymmetry_Pilot,2022.1.3,Win32,59.52735282,62bbe60bf3d75ef465d3e404,,,,,,,,,,,,,,,,,,,,,,,,,,,,,,,,,,,,,,,,,,,,,,,,,,,,,,,,,,,,,,,,,,,,,,,,,,,,,,,,,,,,,,,,,,,,,,,,,,,,,,,,,,,,,,,,,,,,,,,,,,,,,,,,,,,,,,,,,,,,,,,,,,,,,,,,,,,,,,
0,39,39,81,1,,5c472ac67379d8000112983d,62bbfa94b6566e598f2acc8b,2022-06-29_08h09.20.550,Colour_Asymmetry_Pilot,2022.1.3,Win32,59.52735282,62bbe60bf3d75ef465d3e404,,,,,,,,,,,,,,,,,,,,,,,,,,,,,,,,,,,,,,,,,,,,,,,,,,,,,,,,,,,,,,,,,,,,,,,,,,,,,,,,,,,,,,,,,,,,,,,,,,,,,,,,,,,,,,,,,,,,,,,,,,,,,,,,,,,,,,,,,,,,,,,,,,,,,,,,,,,,,,
0,40,40,44,1,,5c472ac67379d8000112983d,62bbfa94b6566e598f2acc8b,2022-06-29_08h09.20.550,Colour_Asymmetry_Pilot,2022.1.3,Win32,59.52735282,62bbe60bf3d75ef465d3e404,,,,,,,,,,,,,,,,,,,,,,,,,,,,,,,,,,,,,,,,,,,,,,,,,,,,,,,,,,,,,,,,,,,,,,,,,,,,,,,,,,,,,,,,,,,,,,,,,,,,,,,,,,,,,,,,,,,,,,,,,,,,,,,,,,,,,,,,,,,,,,,,,,,,,,,,,,,,,,
0,41,41,73,1,,5c472ac67379d8000112983d,62bbfa94b6566e598f2acc8b,2022-06-29_08h09.20.550,Colour_Asymmetry_Pilot,2022.1.3,Win32,59.52735282,62bbe60bf3d75ef465d3e404,,,,,,,,,,,,,,,,,,,,,,,,,,,,,,,,,,,,,,,,,,,,,,,,,,,,,,,,,,,,,,,,,,,,,,,,,,,,,,,,,,,,,,,,,,,,,,,,,,,,,,,,,,,,,,,,,,,,,,,,,,,,,,,,,,,,,,,,,,,,,,,,,,,,,,,,,,,,,,
0,42,42,17,1,,5c472ac67379d8000112983d,62bbfa94b6566e598f2acc8b,2022-06-29_08h09.20.550,Colour_Asymmetry_Pilot,2022.1.3,Win32,59.52735282,62bbe60bf3d75ef465d3e404,,,,,,,,,,,,,,,,,,,,,,,,,,,,,,,,,,,,,,,,,,,,,,,,,,,,,,,,,,,,,,,,,,,,,,,,,,,,,,,,,,,,,,,,,,,,,,,,,,,,,,,,,,,,,,,,,,,,,,,,,,,,,,,,,,,,,,,,,,,,,,,,,,,,,,,,,,,,,,
0,43,43,48,1,,5c472ac67379d8000112983d,62bbfa94b6566e598f2acc8b,2022-06-29_08h09.20.550,Colour_Asymmetry_Pilot,2022.1.3,Win32,59.52735282,62bbe60bf3d75ef465d3e404,,,,,,,,,,,,,,,,,,,,,,,,,,,,,,,,,,,,,,,,,,,,,,,,,,,,,,,,,,,,,,,,,,,,,,,,,,,,,,,,,,,,,,,,,,,,,,,,,,,,,,,,,,,,,,,,,,,,,,,,,,,,,,,,,,,,,,,,,,,,,,,,,,,,,,,,,,,,,,
0,44,44,61,1,,5c472ac67379d8000112983d,62bbfa94b6566e598f2acc8b,2022-06-29_08h09.20.550,Colour_Asymmetry_Pilot,2022.1.3,Win32,59.52735282,62bbe60bf3d75ef465d3e404,,,,,,,,,,,,,,,,,,,,,,,,,,,,,,,,,,,,,,,,,,,,,,,,,,,,,,,,,,,,,,,,,,,,,,,,,,,,,,,,,,,,,,,,,,,,,,,,,,,,,,,,,,,,,,,,,,,,,,,,,,,,,,,,,,,,,,,,,,,,,,,,,,,,,,,,,,,,,,
0,45,45,43,1,,5c472ac67379d8000112983d,62bbfa94b6566e598f2acc8b,2022-06-29_08h09.20.550,Colour_Asymmetry_Pilot,2022.1.3,Win32,59.52735282,62bbe60bf3d75ef465d3e404,,,,,,,,,,,,,,,,,,,,,,,,,,,,,,,,,,,,,,,,,,,,,,,,,,,,,,,,,,,,,,,,,,,,,,,,,,,,,,,,,,,,,,,,,,,,,,,,,,,,,,,,,,,,,,,,,,,,,,,,,,,,,,,,,,,,,,,,,,,,,,,,,,,,,,,,,,,,,,
0,46,46,47,1,,5c472ac67379d8000112983d,62bbfa94b6566e598f2acc8b,2022-06-29_08h09.20.550,Colour_Asymmetry_Pilot,2022.1.3,Win32,59.52735282,62bbe60bf3d75ef465d3e404,,,,,,,,,,,,,,,,,,,,,,,,,,,,,,,,,,,,,,,,,,,,,,,,,,,,,,,,,,,,,,,,,,,,,,,,,,,,,,,,,,,,,,,,,,,,,,,,,,,,,,,,,,,,,,,,,,,,,,,,,,,,,,,,,,,,,,,,,,,,,,,,,,,,,,,,,,,,,,
0,47,47,32,1,,5c472ac67379d8000112983d,62bbfa94b6566e598f2acc8b,2022-06-29_08h09.20.550,Colour_Asymmetry_Pilot,2022.1.3,Win32,59.52735282,62bbe60bf3d75ef465d3e404,,,,,,,,,,,,,,,,,,,,,,,,,,,,,,,,,,,,,,,,,,,,,,,,,,,,,,,,,,,,,,,,,,,,,,,,,,,,,,,,,,,,,,,,,,,,,,,,,,,,,,,,,,,,,,,,,,,,,,,,,,,,,,,,,,,,,,,,,,,,,,,,,,,,,,,,,,,,,,
0,48,48,29,1,,5c472ac67379d8000112983d,62bbfa94b6566e598f2acc8b,2022-06-29_08h09.20.550,Colour_Asymmetry_Pilot,2022.1.3,Win32,59.52735282,62bbe60bf3d75ef465d3e404,,,,,,,,,,,,,,,,,,,,,,,,,,,,,,,,,,,,,,,,,,,,,,,,,,,,,,,,,,,,,,,,,,,,,,,,,,,,,,,,,,,,,,,,,,,,,,,,,,,,,,,,,,,,,,,,,,,,,,,,,,,,,,,,,,,,,,,,,,,,,,,,,,,,,,,,,,,,,,
0,49,49,56,1,,5c472ac67379d8000112983d,62bbfa94b6566e598f2acc8b,2022-06-29_08h09.20.550,Colour_Asymmetry_Pilot,2022.1.3,Win32,59.52735282,62bbe60bf3d75ef465d3e404,,,,,,,,,,,,,,,,,,,,,,,,,,,,,,,,,,,,,,,,,,,,,,,,,,,,,,,,,,,,,,,,,,,,,,,,,,,,,,,,,,,,,,,,,,,,,,,,,,,,,,,,,,,,,,,,,,,,,,,,,,,,,,,,,,,,,,,,,,,,,,,,,,,,,,,,,,,,,,
0,50,50,26,1,,5c472ac67379d8000112983d,62bbfa94b6566e598f2acc8b,2022-06-29_08h09.20.550,Colour_Asymmetry_Pilot,2022.1.3,Win32,59.52735282,62bbe60bf3d75ef465d3e404,,,,,,,,,,,,,,,,,,,,,,,,,,,,,,,,,,,,,,,,,,,,,,,,,,,,,,,,,,,,,,,,,,,,,,,,,,,,,,,,,,,,,,,,,,,,,,,,,,,,,,,,,,,,,,,,,,,,,,,,,,,,,,,,,,,,,,,,,,,,,,,,,,,,,,,,,,,,,,
0,51,51,65,1,,5c472ac67379d8000112983d,62bbfa94b6566e598f2acc8b,2022-06-29_08h09.20.550,Colour_Asymmetry_Pilot,2022.1.3,Win32,59.52735282,62bbe60bf3d75ef465d3e404,,,,,,,,,,,,,,,,,,,,,,,,,,,,,,,,,,,,,,,,,,,,,,,,,,,,,,,,,,,,,,,,,,,,,,,,,,,,,,,,,,,,,,,,,,,,,,,,,,,,,,,,,,,,,,,,,,,,,,,,,,,,,,,,,,,,,,,,,,,,,,,,,,,,,,,,,,,,,,
0,52,52,71,1,,5c472ac67379d8000112983d,62bbfa94b6566e598f2acc8b,2022-06-29_08h09.20.550,Colour_Asymmetry_Pilot,2022.1.3,Win32,59.52735282,62bbe60bf3d75ef465d3e404,,,,,,,,,,,,,,,,,,,,,,,,,,,,,,,,,,,,,,,,,,,,,,,,,,,,,,,,,,,,,,,,,,,,,,,,,,,,,,,,,,,,,,,,,,,,,,,,,,,,,,,,,,,,,,,,,,,,,,,,,,,,,,,,,,,,,,,,,,,,,,,,,,,,,,,,,,,,,,
0,53,53,28,1,,5c472ac67379d8000112983d,62bbfa94b6566e598f2acc8b,2022-06-29_08h09.20.550,Colour_Asymmetry_Pilot,2022.1.3,Win32,59.52735282,62bbe60bf3d75ef465d3e404,,,,,,,,,,,,,,,,,,,,,,,,,,,,,,,,,,,,,,,,,,,,,,,,,,,,,,,,,,,,,,,,,,,,,,,,,,,,,,,,,,,,,,,,,,,,,,,,,,,,,,,,,,,,,,,,,,,,,,,,,,,,,,,,,,,,,,,,,,,,,,,,,,,,,,,,,,,,,,
0,54,54,16,1,,5c472ac67379d8000112983d,62bbfa94b6566e598f2acc8b,2022-06-29_08h09.20.550,Colour_Asymmetry_Pilot,2022.1.3,Win32,59.52735282,62bbe60bf3d75ef465d3e404,,,,,,,,,,,,,,,,,,,,,,,,,,,,,,,,,,,,,,,,,,,,,,,,,,,,,,,,,,,,,,,,,,,,,,,,,,,,,,,,,,,,,,,,,,,,,,,,,,,,,,,,,,,,,,,,,,,,,,,,,,,,,,,,,,,,,,,,,,,,,,,,,,,,,,,,,,,,,,
0,55,55,49,1,,5c472ac67379d8000112983d,62bbfa94b6566e598f2acc8b,2022-06-29_08h09.20.550,Colour_Asymmetry_Pilot,2022.1.3,Win32,59.52735282,62bbe60bf3d75ef465d3e404,,,,,,,,,,,,,,,,,,,,,,,,,,,,,,,,,,,,,,,,,,,,,,,,,,,,,,,,,,,,,,,,,,,,,,,,,,,,,,,,,,,,,,,,,,,,,,,,,,,,,,,,,,,,,,,,,,,,,,,,,,,,,,,,,,,,,,,,,,,,,,,,,,,,,,,,,,,,,,
0,56,56,92,1,,5c472ac67379d8000112983d,62bbfa94b6566e598f2acc8b,2022-06-29_08h09.20.550,Colour_Asymmetry_Pilot,2022.1.3,Win32,59.52735282,62bbe60bf3d75ef465d3e404,,,,,,,,,,,,,,,,,,,,,,,,,,,,,,,,,,,,,,,,,,,,,,,,,,,,,,,,,,,,,,,,,,,,,,,,,,,,,,,,,,,,,,,,,,,,,,,,,,,,,,,,,,,,,,,,,,,,,,,,,,,,,,,,,,,,,,,,,,,,,,,,,,,,,,,,,,,,,,
0,57,57,20,1,,5c472ac67379d8000112983d,62bbfa94b6566e598f2acc8b,2022-06-29_08h09.20.550,Colour_Asymmetry_Pilot,2022.1.3,Win32,59.52735282,62bbe60bf3d75ef465d3e404,,,,,,,,,,,,,,,,,,,,,,,,,,,,,,,,,,,,,,,,,,,,,,,,,,,,,,,,,,,,,,,,,,,,,,,,,,,,,,,,,,,,,,,,,,,,,,,,,,,,,,,,,,,,,,,,,,,,,,,,,,,,,,,,,,,,,,,,,,,,,,,,,,,,,,,,,,,,,,
0,58,58,63,1,,5c472ac67379d8000112983d,62bbfa94b6566e598f2acc8b,2022-06-29_08h09.20.550,Colour_Asymmetry_Pilot,2022.1.3,Win32,59.52735282,62bbe60bf3d75ef465d3e404,,,,,,,,,,,,,,,,,,,,,,,,,,,,,,,,,,,,,,,,,,,,,,,,,,,,,,,,,,,,,,,,,,,,,,,,,,,,,,,,,,,,,,,,,,,,,,,,,,,,,,,,,,,,,,,,,,,,,,,,,,,,,,,,,,,,,,,,,,,,,,,,,,,,,,,,,,,,,,
0,59,59,27,1,,5c472ac67379d8000112983d,62bbfa94b6566e598f2acc8b,2022-06-29_08h09.20.550,Colour_Asymmetry_Pilot,2022.1.3,Win32,59.52735282,62bbe60bf3d75ef465d3e404,,,,,,,,,,,,,,,,,,,,,,,,,,,,,,,,,,,,,,,,,,,,,,,,,,,,,,,,,,,,,,,,,,,,,,,,,,,,,,,,,,,,,,,,,,,,,,,,,,,,,,,,,,,,,,,,,,,,,,,,,,,,,,,,,,,,,,,,,,,,,,,,,,,,,,,,,,,,,,
0,60,60,35,1,,5c472ac67379d8000112983d,62bbfa94b6566e598f2acc8b,2022-06-29_08h09.20.550,Colour_Asymmetry_Pilot,2022.1.3,Win32,59.52735282,62bbe60bf3d75ef465d3e404,,,,,,,,,,,,,,,,,,,,,,,,,,,,,,,,,,,,,,,,,,,,,,,,,,,,,,,,,,,,,,,,,,,,,,,,,,,,,,,,,,,,,,,,,,,,,,,,,,,,,,,,,,,,,,,,,,,,,,,,,,,,,,,,,,,,,,,,,,,,,,,,,,,,,,,,,,,,,,
0,61,61,9,1,,5c472ac67379d8000112983d,62bbfa94b6566e598f2acc8b,2022-06-29_08h09.20.550,Colour_Asymmetry_Pilot,2022.1.3,Win32,59.52735282,62bbe60bf3d75ef465d3e404,,,,,,,,,,,,,,,,,,,,,,,,,,,,,,,,,,,,,,,,,,,,,,,,,,,,,,,,,,,,,,,,,,,,,,,,,,,,,,,,,,,,,,,,,,,,,,,,,,,,,,,,,,,,,,,,,,,,,,,,,,,,,,,,,,,,,,,,,,,,,,,,,,,,,,,,,,,,,,
0,62,62,76,1,,5c472ac67379d8000112983d,62bbfa94b6566e598f2acc8b,2022-06-29_08h09.20.550,Colour_Asymmetry_Pilot,2022.1.3,Win32,59.52735282,62bbe60bf3d75ef465d3e404,,,,,,,,,,,,,,,,,,,,,,,,,,,,,,,,,,,,,,,,,,,,,,,,,,,,,,,,,,,,,,,,,,,,,,,,,,,,,,,,,,,,,,,,,,,,,,,,,,,,,,,,,,,,,,,,,,,,,,,,,,,,,,,,,,,,,,,,,,,,,,,,,,,,,,,,,,,,,,
0,63,63,72,1,,5c472ac67379d8000112983d,62bbfa94b6566e598f2acc8b,2022-06-29_08h09.20.550,Colour_Asymmetry_Pilot,2022.1.3,Win32,59.52735282,62bbe60bf3d75ef465d3e404,,,,,,,,,,,,,,,,,,,,,,,,,,,,,,,,,,,,,,,,,,,,,,,,,,,,,,,,,,,,,,,,,,,,,,,,,,,,,,,,,,,,,,,,,,,,,,,,,,,,,,,,,,,,,,,,,,,,,,,,,,,,,,,,,,,,,,,,,,,,,,,,,,,,,,,,,,,,,,
0,64,64,87,1,,5c472ac67379d8000112983d,62bbfa94b6566e598f2acc8b,2022-06-29_08h09.20.550,Colour_Asymmetry_Pilot,2022.1.3,Win32,59.52735282,62bbe60bf3d75ef465d3e404,,,,,,,,,,,,,,,,,,,,,,,,,,,,,,,,,,,,,,,,,,,,,,,,,,,,,,,,,,,,,,,,,,,,,,,,,,,,,,,,,,,,,,,,,,,,,,,,,,,,,,,,,,,,,,,,,,,,,,,,,,,,,,,,,,,,,,,,,,,,,,,,,,,,,,,,,,,,,,
0,65,65,70,1,,5c472ac67379d8000112983d,62bbfa94b6566e598f2acc8b,2022-06-29_08h09.20.550,Colour_Asymmetry_Pilot,2022.1.3,Win32,59.52735282,62bbe60bf3d75ef465d3e404,,,,,,,,,,,,,,,,,,,,,,,,,,,,,,,,,,,,,,,,,,,,,,,,,,,,,,,,,,,,,,,,,,,,,,,,,,,,,,,,,,,,,,,,,,,,,,,,,,,,,,,,,,,,,,,,,,,,,,,,,,,,,,,,,,,,,,,,,,,,,,,,,,,,,,,,,,,,,,
0,66,66,83,1,,5c472ac67379d8000112983d,62bbfa94b6566e598f2acc8b,2022-06-29_08h09.20.550,Colour_Asymmetry_Pilot,2022.1.3,Win32,59.52735282,62bbe60bf3d75ef465d3e404,,,,,,,,,,,,,,,,,,,,,,,,,,,,,,,,,,,,,,,,,,,,,,,,,,,,,,,,,,,,,,,,,,,,,,,,,,,,,,,,,,,,,,,,,,,,,,,,,,,,,,,,,,,,,,,,,,,,,,,,,,,,,,,,,,,,,,,,,,,,,,,,,,,,,,,,,,,,,,
0,67,67,37,1,,5c472ac67379d8000112983d,62bbfa94b6566e598f2acc8b,2022-06-29_08h09.20.550,Colour_Asymmetry_Pilot,2022.1.3,Win32,59.52735282,62bbe60bf3d75ef465d3e404,,,,,,,,,,,,,,,,,,,,,,,,,,,,,,,,,,,,,,,,,,,,,,,,,,,,,,,,,,,,,,,,,,,,,,,,,,,,,,,,,,,,,,,,,,,,,,,,,,,,,,,,,,,,,,,,,,,,,,,,,,,,,,,,,,,,,,,,,,,,,,,,,,,,,,,,,,,,,,
0,68,68,91,1,,5c472ac67379d8000112983d,62bbfa94b6566e598f2acc8b,2022-06-29_08h09.20.550,Colour_Asymmetry_Pilot,2022.1.3,Win32,59.52735282,62bbe60bf3d75ef465d3e404,,,,,,,,,,,,,,,,,,,,,,,,,,,,,,,,,,,,,,,,,,,,,,,,,,,,,,,,,,,,,,,,,,,,,,,,,,,,,,,,,,,,,,,,,,,,,,,,,,,,,,,,,,,,,,,,,,,,,,,,,,,,,,,,,,,,,,,,,,,,,,,,,,,,,,,,,,,,,,
0,69,69,6,1,,5c472ac67379d8000112983d,62bbfa94b6566e598f2acc8b,2022-06-29_08h09.20.550,Colour_Asymmetry_Pilot,2022.1.3,Win32,59.52735282,62bbe60bf3d75ef465d3e404,,,,,,,,,,,,,,,,,,,,,,,,,,,,,,,,,,,,,,,,,,,,,,,,,,,,,,,,,,,,,,,,,,,,,,,,,,,,,,,,,,,,,,,,,,,,,,,,,,,,,,,,,,,,,,,,,,,,,,,,,,,,,,,,,,,,,,,,,,,,,,,,,,,,,,,,,,,,,,
0,70,70,46,1,,5c472ac67379d8000112983d,62bbfa94b6566e598f2acc8b,2022-06-29_08h09.20.550,Colour_Asymmetry_Pilot,2022.1.3,Win32,59.52735282,62bbe60bf3d75ef465d3e404,,,,,,,,,,,,,,,,,,,,,,,,,,,,,,,,,,,,,,,,,,,,,,,,,,,,,,,,,,,,,,,,,,,,,,,,,,,,,,,,,,,,,,,,,,,,,,,,,,,,,,,,,,,,,,,,,,,,,,,,,,,,,,,,,,,,,,,,,,,,,,,,,,,,,,,,,,,,,,
0,71,71,84,1,,5c472ac67379d8000112983d,62bbfa94b6566e598f2acc8b,2022-06-29_08h09.20.550,Colour_Asymmetry_Pilot,2022.1.3,Win32,59.52735282,62bbe60bf3d75ef465d3e404,,,,,,,,,,,,,,,,,,,,,,,,,,,,,,,,,,,,,,,,,,,,,,,,,,,,,,,,,,,,,,,,,,,,,,,,,,,,,,,,,,,,,,,,,,,,,,,,,,,,,,,,,,,,,,,,,,,,,,,,,,,,,,,,,,,,,,,,,,,,,,,,,,,,,,,,,,,,,,
0,72,72,39,1,,5c472ac67379d8000112983d,62bbfa94b6566e598f2acc8b,2022-06-29_08h09.20.550,Colour_Asymmetry_Pilot,2022.1.3,Win32,59.52735282,62bbe60bf3d75ef465d3e404,,,,,,,,,,,,,,,,,,,,,,,,,,,,,,,,,,,,,,,,,,,,,,,,,,,,,,,,,,,,,,,,,,,,,,,,,,,,,,,,,,,,,,,,,,,,,,,,,,,,,,,,,,,,,,,,,,,,,,,,,,,,,,,,,,,,,,,,,,,,,,,,,,,,,,,,,,,,,,
0,73,73,68,1,,5c472ac67379d8000112983d,62bbfa94b6566e598f2acc8b,2022-06-29_08h09.20.550,Colour_Asymmetry_Pilot,2022.1.3,Win32,59.52735282,62bbe60bf3d75ef465d3e404,,,,,,,,,,,,,,,,,,,,,,,,,,,,,,,,,,,,,,,,,,,,,,,,,,,,,,,,,,,,,,,,,,,,,,,,,,,,,,,,,,,,,,,,,,,,,,,,,,,,,,,,,,,,,,,,,,,,,,,,,,,,,,,,,,,,,,,,,,,,,,,,,,,,,,,,,,,,,,
0,74,74,18,1,,5c472ac67379d8000112983d,62bbfa94b6566e598f2acc8b,2022-06-29_08h09.20.550,Colour_Asymmetry_Pilot,2022.1.3,Win32,59.52735282,62bbe60bf3d75ef465d3e404,,,,,,,,,,,,,,,,,,,,,,,,,,,,,,,,,,,,,,,,,,,,,,,,,,,,,,,,,,,,,,,,,,,,,,,,,,,,,,,,,,,,,,,,,,,,,,,,,,,,,,,,,,,,,,,,,,,,,,,,,,,,,,,,,,,,,,,,,,,,,,,,,,,,,,,,,,,,,,
0,75,75,2,1,,5c472ac67379d8000112983d,62bbfa94b6566e598f2acc8b,2022-06-29_08h09.20.550,Colour_Asymmetry_Pilot,2022.1.3,Win32,59.52735282,62bbe60bf3d75ef465d3e404,,,,,,,,,,,,,,,,,,,,,,,,,,,,,,,,,,,,,,,,,,,,,,,,,,,,,,,,,,,,,,,,,,,,,,,,,,,,,,,,,,,,,,,,,,,,,,,,,,,,,,,,,,,,,,,,,,,,,,,,,,,,,,,,,,,,,,,,,,,,,,,,,,,,,,,,,,,,,,
0,76,76,19,1,,5c472ac67379d8000112983d,62bbfa94b6566e598f2acc8b,2022-06-29_08h09.20.550,Colour_Asymmetry_Pilot,2022.1.3,Win32,59.52735282,62bbe60bf3d75ef465d3e404,,,,,,,,,,,,,,,,,,,,,,,,,,,,,,,,,,,,,,,,,,,,,,,,,,,,,,,,,,,,,,,,,,,,,,,,,,,,,,,,,,,,,,,,,,,,,,,,,,,,,,,,,,,,,,,,,,,,,,,,,,,,,,,,,,,,,,,,,,,,,,,,,,,,,,,,,,,,,,
0,77,77,25,1,,5c472ac67379d8000112983d,62bbfa94b6566e598f2acc8b,2022-06-29_08h09.20.550,Colour_Asymmetry_Pilot,2022.1.3,Win32,59.52735282,62bbe60bf3d75ef465d3e404,,,,,,,,,,,,,,,,,,,,,,,,,,,,,,,,,,,,,,,,,,,,,,,,,,,,,,,,,,,,,,,,,,,,,,,,,,,,,,,,,,,,,,,,,,,,,,,,,,,,,,,,,,,,,,,,,,,,,,,,,,,,,,,,,,,,,,,,,,,,,,,,,,,,,,,,,,,,,,
0,78,78,54,1,,5c472ac67379d8000112983d,62bbfa94b6566e598f2acc8b,2022-06-29_08h09.20.550,Colour_Asymmetry_Pilot,2022.1.3,Win32,59.52735282,62bbe60bf3d75ef465d3e404,,,,,,,,,,,,,,,,,,,,,,,,,,,,,,,,,,,,,,,,,,,,,,,,,,,,,,,,,,,,,,,,,,,,,,,,,,,,,,,,,,,,,,,,,,,,,,,,,,,,,,,,,,,,,,,,,,,,,,,,,,,,,,,,,,,,,,,,,,,,,,,,,,,,,,,,,,,,,,
0,79,79,22,1,,5c472ac67379d8000112983d,62bbfa94b6566e598f2acc8b,2022-06-29_08h09.20.550,Colour_Asymmetry_Pilot,2022.1.3,Win32,59.52735282,62bbe60bf3d75ef465d3e404,,,,,,,,,,,,,,,,,,,,,,,,,,,,,,,,,,,,,,,,,,,,,,,,,,,,,,,,,,,,,,,,,,,,,,,,,,,,,,,,,,,,,,,,,,,,,,,,,,,,,,,,,,,,,,,,,,,,,,,,,,,,,,,,,,,,,,,,,,,,,,,,,,,,,,,,,,,,,,
0,80,80,0,1,,5c472ac67379d8000112983d,62bbfa94b6566e598f2acc8b,2022-06-29_08h09.20.550,Colour_Asymmetry_Pilot,2022.1.3,Win32,59.52735282,62bbe60bf3d75ef465d3e404,,,,,,,,,,,,,,,,,,,,,,,,,,,,,,,,,,,,,,,,,,,,,,,,,,,,,,,,,,,,,,,,,,,,,,,,,,,,,,,,,,,,,,,,,,,,,,,,,,,,,,,,,,,,,,,,,,,,,,,,,,,,,,,,,,,,,,,,,,,,,,,,,,,,,,,,,,,,,,
0,81,81,10,1,,5c472ac67379d8000112983d,62bbfa94b6566e598f2acc8b,2022-06-29_08h09.20.550,Colour_Asymmetry_Pilot,2022.1.3,Win32,59.52735282,62bbe60bf3d75ef465d3e404,,,,,,,,,,,,,,,,,,,,,,,,,,,,,,,,,,,,,,,,,,,,,,,,,,,,,,,,,,,,,,,,,,,,,,,,,,,,,,,,,,,,,,,,,,,,,,,,,,,,,,,,,,,,,,,,,,,,,,,,,,,,,,,,,,,,,,,,,,,,,,,,,,,,,,,,,,,,,,
0,82,82,86,1,,5c472ac67379d8000112983d,62bbfa94b6566e598f2acc8b,2022-06-29_08h09.20.550,Colour_Asymmetry_Pilot,2022.1.3,Win32,59.52735282,62bbe60bf3d75ef465d3e404,,,,,,,,,,,,,,,,,,,,,,,,,,,,,,,,,,,,,,,,,,,,,,,,,,,,,,,,,,,,,,,,,,,,,,,,,,,,,,,,,,,,,,,,,,,,,,,,,,,,,,,,,,,,,,,,,,,,,,,,,,,,,,,,,,,,,,,,,,,,,,,,,,,,,,,,,,,,,,
0,83,83,40,1,,5c472ac67379d8000112983d,62bbfa94b6566e598f2acc8b,2022-06-29_08h09.20.550,Colour_Asymmetry_Pilot,2022.1.3,Win32,59.52735282,62bbe60bf3d75ef465d3e404,,,,,,,,,,,,,,,,,,,,,,,,,,,,,,,,,,,,,,,,,,,,,,,,,,,,,,,,,,,,,,,,,,,,,,,,,,,,,,,,,,,,,,,,,,,,,,,,,,,,,,,,,,,,,,,,,,,,,,,,,,,,,,,,,,,,,,,,,,,,,,,,,,,,,,,,,,,,,,
0,84,84,90,1,,5c472ac67379d8000112983d,62bbfa94b6566e598f2acc8b,2022-06-29_08h09.20.550,Colour_Asymmetry_Pilot,2022.1.3,Win32,59.52735282,62bbe60bf3d75ef465d3e404,,,,,,,,,,,,,,,,,,,,,,,,,,,,,,,,,,,,,,,,,,,,,,,,,,,,,,,,,,,,,,,,,,,,,,,,,,,,,,,,,,,,,,,,,,,,,,,,,,,,,,,,,,,,,,,,,,,,,,,,,,,,,,,,,,,,,,,,,,,,,,,,,,,,,,,,,,,,,,
0,85,85,5,1,,5c472ac67379d8000112983d,62bbfa94b6566e598f2acc8b,2022-06-29_08h09.20.550,Colour_Asymmetry_Pilot,2022.1.3,Win32,59.52735282,62bbe60bf3d75ef465d3e404,,,,,,,,,,,,,,,,,,,,,,,,,,,,,,,,,,,,,,,,,,,,,,,,,,,,,,,,,,,,,,,,,,,,,,,,,,,,,,,,,,,,,,,,,,,,,,,,,,,,,,,,,,,,,,,,,,,,,,,,,,,,,,,,,,,,,,,,,,,,,,,,,,,,,,,,,,,,,,
0,86,86,34,1,,5c472ac67379d8000112983d,62bbfa94b6566e598f2acc8b,2022-06-29_08h09.20.550,Colour_Asymmetry_Pilot,2022.1.3,Win32,59.52735282,62bbe60bf3d75ef465d3e404,,,,,,,,,,,,,,,,,,,,,,,,,,,,,,,,,,,,,,,,,,,,,,,,,,,,,,,,,,,,,,,,,,,,,,,,,,,,,,,,,,,,,,,,,,,,,,,,,,,,,,,,,,,,,,,,,,,,,,,,,,,,,,,,,,,,,,,,,,,,,,,,,,,,,,,,,,,,,,
0,87,87,60,1,,5c472ac67379d8000112983d,62bbfa94b6566e598f2acc8b,2022-06-29_08h09.20.550,Colour_Asymmetry_Pilot,2022.1.3,Win32,59.52735282,62bbe60bf3d75ef465d3e404,,,,,,,,,,,,,,,,,,,,,,,,,,,,,,,,,,,,,,,,,,,,,,,,,,,,,,,,,,,,,,,,,,,,,,,,,,,,,,,,,,,,,,,,,,,,,,,,,,,,,,,,,,,,,,,,,,,,,,,,,,,,,,,,,,,,,,,,,,,,,,,,,,,,,,,,,,,,,,
0,88,88,58,1,,5c472ac67379d8000112983d,62bbfa94b6566e598f2acc8b,2022-06-29_08h09.20.550,Colour_Asymmetry_Pilot,2022.1.3,Win32,59.52735282,62bbe60bf3d75ef465d3e404,,,,,,,,,,,,,,,,,,,,,,,,,,,,,,,,,,,,,,,,,,,,,,,,,,,,,,,,,,,,,,,,,,,,,,,,,,,,,,,,,,,,,,,,,,,,,,,,,,,,,,,,,,,,,,,,,,,,,,,,,,,,,,,,,,,,,,,,,,,,,,,,,,,,,,,,,,,,,,
0,89,89,53,1,,5c472ac67379d8000112983d,62bbfa94b6566e598f2acc8b,2022-06-29_08h09.20.550,Colour_Asymmetry_Pilot,2022.1.3,Win32,59.52735282,62bbe60bf3d75ef465d3e404,,,,,,,,,,,,,,,,,,,,,,,,,,,,,,,,,,,,,,,,,,,,,,,,,,,,,,,,,,,,,,,,,,,,,,,,,,,,,,,,,,,,,,,,,,,,,,,,,,,,,,,,,,,,,,,,,,,,,,,,,,,,,,,,,,,,,,,,,,,,,,,,,,,,,,,,,,,,,,
0,90,90,50,1,,5c472ac67379d8000112983d,62bbfa94b6566e598f2acc8b,2022-06-29_08h09.20.550,Colour_Asymmetry_Pilot,2022.1.3,Win32,59.52735282,62bbe60bf3d75ef465d3e404,,,,,,,,,,,,,,,,,,,,,,,,,,,,,,,,,,,,,,,,,,,,,,,,,,,,,,,,,,,,,,,,,,,,,,,,,,,,,,,,,,,,,,,,,,,,,,,,,,,,,,,,,,,,,,,,,,,,,,,,,,,,,,,,,,,,,,,,,,,,,,,,,,,,,,,,,,,,,,
0,91,91,4,1,,5c472ac67379d8000112983d,62bbfa94b6566e598f2acc8b,2022-06-29_08h09.20.550,Colour_Asymmetry_Pilot,2022.1.3,Win32,59.52735282,62bbe60bf3d75ef465d3e404,,,,,,,,,,,,,,,,,,,,,,,,,,,,,,,,,,,,,,,,,,,,,,,,,,,,,,,,,,,,,,,,,,,,,,,,,,,,,,,,,,,,,,,,,,,,,,,,,,,,,,,,,,,,,,,,,,,,,,,,,,,,,,,,,,,,,,,,,,,,,,,,,,,,,,,,,,,,,,
0,92,92,31,1,,5c472ac67379d8000112983d,62bbfa94b6566e598f2acc8b,2022-06-29_08h09.20.550,Colour_Asymmetry_Pilot,2022.1.3,Win32,59.52735282,62bbe60bf3d75ef465d3e404,,,,,,,,,,,,,,,,,,,,,,,,,,,,,,,,,,,,,,,,,,,,,,,,,,,,,,,,,,,,,,,,,,,,,,,,,,,,,,,,,,,,,,,,,,,,,,,,,,,,,,,,,,,,,,,,,,,,,,,,,,,,,,,,,,,,,,,,,,,,,,,,,,,,,,,,,,,,,,
,,,,,,5c472ac67379d8000112983d,62bbfa94b6566e598f2acc8b,2022-06-29_08h09.20.550,Colour_Asymmetry_Pilot,2022.1.3,Win32,59.52735282,62bbe60bf3d75ef465d3e404,0,0,0,27,1,twofour,,,,,,,,,,,,,,,,,,,,,,,,,,,,,,,,,,,,,,,,,,,,,,,,,,,,,,,,,,,,,,,,,,,,,,,,,,,,,,,,,,,,,,,,,,,,,,,,,,,,,,,,,,,,,,,,,,,,,,,,,,,,,,,,,,,,,,,,,,,,,,,,,,,,,,,,
,,,,,,5c472ac67379d8000112983d,62bbfa94b6566e598f2acc8b,2022-06-29_08h09.20.550,Colour_Asymmetry_Pilot,2022.1.3,Win32,59.52735282,62bbe60bf3d75ef465d3e404,0,1,1,103,1,fourthree,,,,,,,,,,,,,,,,,,,,,,,,,,,,,,,,,,,,,,,,,,,,,,,,,,,,,,,,,,,,,,,,,,,,,,,,,,,,,,,,,,,,,,,,,,,,,,,,,,,,,,,,,,,,,,,,,,,,,,,,,,,,,,,,,,,,,,,,,,,,,,,,,,,,,,,,
,,,,,,5c472ac67379d8000112983d,62bbfa94b6566e598f2acc8b,2022-06-29_08h09.20.550,Colour_Asymmetry_Pilot,2022.1.3,Win32,59.52735282,62bbe60bf3d75ef465d3e404,0,2,2,33,1,onethree,,,,,,,,,,,,,,,,,,,,,,,,,,,,,,,,,,,,,,,,,,,,,,,,,,,,,,,,,,,,,,,,,,,,,,,,,,,,,,,,,,,,,,,,,,,,,,,,,,,,,,,,,,,,,,,,,,,,,,,,,,,,,,,,,,,,,,,,,,,,,,,,,,,,,,,,
,,,,,,5c472ac67379d8000112983d,62bbfa94b6566e598f2acc8b,2022-06-29_08h09.20.550,Colour_Asymmetry_Pilot,2022.1.3,Win32,59.52735282,62bbe60bf3d75ef465d3e404,0,3,3,111,1,fourthree,,,,,,,,,,,,,,,,,,,,,,,,,,,,,,,,,,,,,,,,,,,,,,,,,,,,,,,,,,,,,,,,,,,,,,,,,,,,,,,,,,,,,,,,,,,,,,,,,,,,,,,,,,,,,,,,,,,,,,,,,,,,,,,,,,,,,,,,,,,,,,,,,,,,,,,,
,,,,,,5c472ac67379d8000112983d,62bbfa94b6566e598f2acc8b,2022-06-29_08h09.20.550,Colour_Asymmetry_Pilot,2022.1.3,Win32,59.52735282,62bbe60bf3d75ef465d3e404,0,4,4,73,1,onethree,,,,,,,,,,,,,,,,,,,,,,,,,,,,,,,,,,,,,,,,,,,,,,,,,,,,,,,,,,,,,,,,,,,,,,,,,,,,,,,,,,,,,,,,,,,,,,,,,,,,,,,,,,,,,,,,,,,,,,,,,,,,,,,,,,,,,,,,,,,,,,,,,,,,,,,,
,,,,,,5c472ac67379d8000112983d,62bbfa94b6566e598f2acc8b,2022-06-29_08h09.20.550,Colour_Asymmetry_Pilot,2022.1.3,Win32,59.52735282,62bbe60bf3d75ef465d3e404,0,5,5,60,1,threeone,,,,,,,,,,,,,,,,,,,,,,,,,,,,,,,,,,,,,,,,,,,,,,,,,,,,,,,,,,,,,,,,,,,,,,,,,,,,,,,,,,,,,,,,,,,,,,,,,,,,,,,,,,,,,,,,,,,,,,,,,,,,,,,,,,,,,,,,,,,,,,,,,,,,,,,,
,,,,,,5c472ac67379d8000112983d,62bbfa94b6566e598f2acc8b,2022-06-29_08h09.20.550,Colour_Asymmetry_Pilot,2022.1.3,Win32,59.52735282,62bbe60bf3d75ef465d3e404,0,6,6,118,1,fourtwo,,,,,,,,,,,,,,,,,,,,,,,,,,,,,,,,,,,,,,,,,,,,,,,,,,,,,,,,,,,,,,,,,,,,,,,,,,,,,,,,,,,,,,,,,,,,,,,,,,,,,,,,,,,,,,,,,,,,,,,,,,,,,,,,,,,,,,,,,,,,,,,,,,,,,,,,
,,,,,,5c472ac67379d8000112983d,62bbfa94b6566e598f2acc8b,2022-06-29_08h09.20.550,Colour_Asymmetry_Pilot,2022.1.3,Win32,59.52735282,62bbe60bf3d75ef465d3e404,0,7,7,108,1,threeone,,,,,,,,,,,,,,,,,,,,,,,,,,,,,,,,,,,,,,,,,,,,,,,,,,,,,,,,,,,,,,,,,,,,,,,,,,,,,,,,,,,,,,,,,,,,,,,,,,,,,,,,,,,,,,,,,,,,,,,,,,,,,,,,,,,,,,,,,,,,,,,,,,,,,,,,
,,,,,,5c472ac67379d8000112983d,62bbfa94b6566e598f2acc8b,2022-06-29_08h09.20.550,Colour_Asymmetry_Pilot,2022.1.3,Win32,59.52735282,62bbe60bf3d75ef465d3e404,0,8,8,9,1,onethree,,,,,,,,,,,,,,,,,,,,,,,,,,,,,,,,,,,,,,,,,,,,,,,,,,,,,,,,,,,,,,,,,,,,,,,,,,,,,,,,,,,,,,,,,,,,,,,,,,,,,,,,,,,,,,,,,,,,,,,,,,,,,,,,,,,,,,,,,,,,,,,,,,,,,,,,
,,,,,,5c472ac67379d8000112983d,62bbfa94b6566e598f2acc8b,2022-06-29_08h09.20.550,Colour_Asymmetry_Pilot,2022.1.3,Win32,59.52735282,62bbe60bf3d75ef465d3e404,0,9,9,98,1,twoone,,,,,,,,,,,,,,,,,,,,,,,,,,,,,,,,,,,,,,,,,,,,,,,,,,,,,,,,,,,,,,,,,,,,,,,,,,,,,,,,,,,,,,,,,,,,,,,,,,,,,,,,,,,,,,,,,,,,,,,,,,,,,,,,,,,,,,,,,,,,,,,,,,,,,,,,
,,,,,,5c472ac67379d8000112983d,62bbfa94b6566e598f2acc8b,2022-06-29_08h09.20.550,Colour_Asymmetry_Pilot,2022.1.3,Win32,59.52735282,62bbe60bf3d75ef465d3e404,0,10,10,69,1,threefour,,,,,,,,,,,,,,,,,,,,,,,,,,,,,,,,,,,,,,,,,,,,,,,,,,,,,,,,,,,,,,,,,,,,,,,,,,,,,,,,,,,,,,,,,,,,,,,,,,,,,,,,,,,,,,,,,,,,,,,,,,,,,,,,,,,,,,,,,,,,,,,,,,,,,,,,
,,,,,,5c472ac67379d8000112983d,62bbfa94b6566e598f2acc8b,2022-06-29_08h09.20.550,Colour_Asymmetry_Pilot,2022.1.3,Win32,59.52735282,62bbe60bf3d75ef465d3e404,0,11,11,105,1,onethree,,,,,,,,,,,,,,,,,,,,,,,,,,,,,,,,,,,,,,,,,,,,,,,,,,,,,,,,,,,,,,,,,,,,,,,,,,,,,,,,,,,,,,,,,,,,,,,,,,,,,,,,,,,,,,,,,,,,,,,,,,,,,,,,,,,,,,,,,,,,,,,,,,,,,,,,
,,,,,,5c472ac67379d8000112983d,62bbfa94b6566e598f2acc8b,2022-06-29_08h09.20.550,Colour_Asymmetry_Pilot,2022.1.3,Win32,59.52735282,62bbe60bf3d75ef465d3e404,0,12,12,34,1,twoone,,,,,,,,,,,,,,,,,,,,,,,,,,,,,,,,,,,,,,,,,,,,,,,,,,,,,,,,,,,,,,,,,,,,,,,,,,,,,,,,,,,,,,,,,,,,,,,,,,,,,,,,,,,,,,,,,,,,,,,,,,,,,,,,,,,,,,,,,,,,,,,,,,,,,,,,
,,,,,,5c472ac67379d8000112983d,62bbfa94b6566e598f2acc8b,2022-06-29_08h09.20.550,Colour_Asymmetry_Pilot,2022.1.3,Win32,59.52735282,62bbe60bf3d75ef465d3e404,0,13,13,84,1,threeone,,,,,,,,,,,,,,,,,,,,,,,,,,,,,,,,,,,,,,,,,,,,,,,,,,,,,,,,,,,,,,,,,,,,,,,,,,,,,,,,,,,,,,,,,,,,,,,,,,,,,,,,,,,,,,,,,,,,,,,,,,,,,,,,,,,,,,,,,,,,,,,,,,,,,,,,
,,,,,,5c472ac67379d8000112983d,62bbfa94b6566e598f2acc8b,2022-06-29_08h09.20.550,Colour_Asymmetry_Pilot,2022.1.3,Win32,59.52735282,62bbe60bf3d75ef465d3e404,0,14,14,14,1,fourtwo,,,,,,,,,,,,,,,,,,,,,,,,,,,,,,,,,,,,,,,,,,,,,,,,,,,,,,,,,,,,,,,,,,,,,,,,,,,,,,,,,,,,,,,,,,,,,,,,,,,,,,,,,,,,,,,,,,,,,,,,,,,,,,,,,,,,,,,,,,,,,,,,,,,,,,,,
,,,,,,5c472ac67379d8000112983d,62bbfa94b6566e598f2acc8b,2022-06-29_08h09.20.550,Colour_Asymmetry_Pilot,2022.1.3,Win32,59.52735282,62bbe60bf3d75ef465d3e404,0,15,15,81,1,onethree,,,,,,,,,,,,,,,,,,,,,,,,,,,,,,,,,,,,,,,,,,,,,,,,,,,,,,,,,,,,,,,,,,,,,,,,,,,,,,,,,,,,,,,,,,,,,,,,,,,,,,,,,,,,,,,,,,,,,,,,,,,,,,,,,,,,,,,,,,,,,,,,,,,,,,,,
,,,,,,5c472ac67379d8000112983d,62bbfa94b6566e598f2acc8b,2022-06-29_08h09.20.550,Colour_Asymmetry_Pilot,2022.1.3,Win32,59.52735282,62bbe60bf3d75ef465d3e404,0,16,16,115,1,twofour,,,,,,,,,,,,,,,,,,,,,,,,,,,,,,,,,,,,,,,,,,,,,,,,,,,,,,,,,,,,,,,,,,,,,,,,,,,,,,,,,,,,,,,,,,,,,,,,,,,,,,,,,,,,,,,,,,,,,,,,,,,,,,,,,,,,,,,,,,,,,,,,,,,,,,,,
,,,,,,5c472ac67379d8000112983d,62bbfa94b6566e598f2acc8b,2022-06-29_08h09.20.550,Colour_Asymmetry_Pilot,2022.1.3,Win32,59.52735282,62bbe60bf3d75ef465d3e404,0,17,17,148,1,threeone,,,,,,,,,,,,,,,,,,,,,,,,,,,,,,,,,,,,,,,,,,,,,,,,,,,,,,,,,,,,,,,,,,,,,,,,,,,,,,,,,,,,,,,,,,,,,,,,,,,,,,,,,,,,,,,,,,,,,,,,,,,,,,,,,,,,,,,,,,,,,,,,,,,,,,,,
,,,,,,5c472ac67379d8000112983d,62bbfa94b6566e598f2acc8b,2022-06-29_08h09.20.550,Colour_Asymmetry_Pilot,2022.1.3,Win32,59.52735282,62bbe60bf3d75ef465d3e404,0,18,18,49,1,onethree,,,,,,,,,,,,,,,,,,,,,,,,,,,,,,,,,,,,,,,,,,,,,,,,,,,,,,,,,,,,,,,,,,,,,,,,,,,,,,,,,,,,,,,,,,,,,,,,,,,,,,,,,,,,,,,,,,,,,,,,,,,,,,,,,,,,,,,,,,,,,,,,,,,,,,,,
,,,,,,5c472ac67379d8000112983d,62bbfa94b6566e598f2acc8b,2022-06-29_08h09.20.550,Colour_Asymmetry_Pilot,2022.1.3,Win32,59.52735282,62bbe60bf3d75ef465d3e404,0,19,19,154,1,twoone,,,,,,,,,,,,,,,,,,,,,,,,,,,,,,,,,,,,,,,,,,,,,,,,,,,,,,,,,,,,,,,,,,,,,,,,,,,,,,,,,,,,,,,,,,,,,,,,,,,,,,,,,,,,,,,,,,,,,,,,,,,,,,,,,,,,,,,,,,,,,,,,,,,,,,,,
,,,,,,5c472ac67379d8000112983d,62bbfa94b6566e598f2acc8b,2022-06-29_08h09.20.550,Colour_Asymmetry_Pilot,2022.1.3,Win32,59.52735282,62bbe60bf3d75ef465d3e404,0,20,20,51,1,twofour,,,,,,,,,,,,,,,,,,,,,,,,,,,,,,,,,,,,,,,,,,,,,,,,,,,,,,,,,,,,,,,,,,,,,,,,,,,,,,,,,,,,,,,,,,,,,,,,,,,,,,,,,,,,,,,,,,,,,,,,,,,,,,,,,,,,,,,,,,,,,,,,,,,,,,,,
,,,,,,5c472ac67379d8000112983d,62bbfa94b6566e598f2acc8b,2022-06-29_08h09.20.550,Colour_Asymmetry_Pilot,2022.1.3,Win32,59.52735282,62bbe60bf3d75ef465d3e404,0,21,21,4,1,threeone,,,,,,,,,,,,,,,,,,,,,,,,,,,,,,,,,,,,,,,,,,,,,,,,,,,,,,,,,,,,,,,,,,,,,,,,,,,,,,,,,,,,,,,,,,,,,,,,,,,,,,,,,,,,,,,,,,,,,,,,,,,,,,,,,,,,,,,,,,,,,,,,,,,,,,,,
,,,,,,5c472ac67379d8000112983d,62bbfa94b6566e598f2acc8b,2022-06-29_08h09.20.550,Colour_Asymmetry_Pilot,2022.1.3,Win32,59.52735282,62bbe60bf3d75ef465d3e404,0,22,22,155,1,twofour,,,,,,,,,,,,,,,,,,,,,,,,,,,,,,,,,,,,,,,,,,,,,,,,,,,,,,,,,,,,,,,,,,,,,,,,,,,,,,,,,,,,,,,,,,,,,,,,,,,,,,,,,,,,,,,,,,,,,,,,,,,,,,,,,,,,,,,,,,,,,,,,,,,,,,,,
,,,,,,5c472ac67379d8000112983d,62bbfa94b6566e598f2acc8b,2022-06-29_08h09.20.550,Colour_Asymmetry_Pilot,2022.1.3,Win32,59.52735282,62bbe60bf3d75ef465d3e404,0,23,23,65,1,onethree,,,,,,,,,,,,,,,,,,,,,,,,,,,,,,,,,,,,,,,,,,,,,,,,,,,,,,,,,,,,,,,,,,,,,,,,,,,,,,,,,,,,,,,,,,,,,,,,,,,,,,,,,,,,,,,,,,,,,,,,,,,,,,,,,,,,,,,,,,,,,,,,,,,,,,,,
,,,,,,5c472ac67379d8000112983d,62bbfa94b6566e598f2acc8b,2022-06-29_08h09.20.550,Colour_Asymmetry_Pilot,2022.1.3,Win32,59.52735282,62bbe60bf3d75ef465d3e404,0,24,24,122,1,twoone,,,,,,,,,,,,,,,,,,,,,,,,,,,,,,,,,,,,,,,,,,,,,,,,,,,,,,,,,,,,,,,,,,,,,,,,,,,,,,,,,,,,,,,,,,,,,,,,,,,,,,,,,,,,,,,,,,,,,,,,,,,,,,,,,,,,,,,,,,,,,,,,,,,,,,,,
,,,,,,5c472ac67379d8000112983d,62bbfa94b6566e598f2acc8b,2022-06-29_08h09.20.550,Colour_Asymmetry_Pilot,2022.1.3,Win32,59.52735282,62bbe60bf3d75ef465d3e404,0,25,25,3,1,twofour,,,,,,,,,,,,,,,,,,,,,,,,,,,,,,,,,,,,,,,,,,,,,,,,,,,,,,,,,,,,,,,,,,,,,,,,,,,,,,,,,,,,,,,,,,,,,,,,,,,,,,,,,,,,,,,,,,,,,,,,,,,,,,,,,,,,,,,,,,,,,,,,,,,,,,,,
,,,,,,5c472ac67379d8000112983d,62bbfa94b6566e598f2acc8b,2022-06-29_08h09.20.550,Colour_Asymmetry_Pilot,2022.1.3,Win32,59.52735282,62bbe60bf3d75ef465d3e404,0,26,26,104,1,onetwo,,,,,,,,,,,,,,,,,,,,,,,,,,,,,,,,,,,,,,,,,,,,,,,,,,,,,,,,,,,,,,,,,,,,,,,,,,,,,,,,,,,,,,,,,,,,,,,,,,,,,,,,,,,,,,,,,,,,,,,,,,,,,,,,,,,,,,,,,,,,,,,,,,,,,,,,
,,,,,,5c472ac67379d8000112983d,62bbfa94b6566e598f2acc8b,2022-06-29_08h09.20.550,Colour_Asymmetry_Pilot,2022.1.3,Win32,59.52735282,62bbe60bf3d75ef465d3e404,0,27,27,12,1,threeone,,,,,,,,,,,,,,,,,,,,,,,,,,,,,,,,,,,,,,,,,,,,,,,,,,,,,,,,,,,,,,,,,,,,,,,,,,,,,,,,,,,,,,,,,,,,,,,,,,,,,,,,,,,,,,,,,,,,,,,,,,,,,,,,,,,,,,,,,,,,,,,,,,,,,,,,
,,,,,,5c472ac67379d8000112983d,62bbfa94b6566e598f2acc8b,2022-06-29_08h09.20.550,Colour_Asymmetry_Pilot,2022.1.3,Win32,59.52735282,62bbe60bf3d75ef465d3e404,0,28,28,141,1,threefour,,,,,,,,,,,,,,,,,,,,,,,,,,,,,,,,,,,,,,,,,,,,,,,,,,,,,,,,,,,,,,,,,,,,,,,,,,,,,,,,,,,,,,,,,,,,,,,,,,,,,,,,,,,,,,,,,,,,,,,,,,,,,,,,,,,,,,,,,,,,,,,,,,,,,,,,
,,,,,,5c472ac67379d8000112983d,62bbfa94b6566e598f2acc8b,2022-06-29_08h09.20.550,Colour_Asymmetry_Pilot,2022.1.3,Win32,59.52735282,62bbe60bf3d75ef465d3e404,0,29,29,28,1,threeone,,,,,,,,,,,,,,,,,,,,,,,,,,,,,,,,,,,,,,,,,,,,,,,,,,,,,,,,,,,,,,,,,,,,,,,,,,,,,,,,,,,,,,,,,,,,,,,,,,,,,,,,,,,,,,,,,,,,,,,,,,,,,,,,,,,,,,,,,,,,,,,,,,,,,,,,
,,,,,,5c472ac67379d8000112983d,62bbfa94b6566e598f2acc8b,2022-06-29_08h09.20.550,Colour_Asymmetry_Pilot,2022.1.3,Win32,59.52735282,62bbe60bf3d75ef465d3e404,0,30,30,109,1,threefour,,,,,,,,,,,,,,,,,,,,,,,,,,,,,,,,,,,,,,,,,,,,,,,,,,,,,,,,,,,,,,,,,,,,,,,,,,,,,,,,,,,,,,,,,,,,,,,,,,,,,,,,,,,,,,,,,,,,,,,,,,,,,,,,,,,,,,,,,,,,,,,,,,,,,,,,
,,,,,,5c472ac67379d8000112983d,62bbfa94b6566e598f2acc8b,2022-06-29_08h09.20.550,Colour_Asymmetry_Pilot,2022.1.3,Win32,59.52735282,62bbe60bf3d75ef465d3e404,0,31,31,133,1,threefour,,,,,,,,,,,,,,,,,,,,,,,,,,,,,,,,,,,,,,,,,,,,,,,,,,,,,,,,,,,,,,,,,,,,,,,,,,,,,,,,,,,,,,,,,,,,,,,,,,,,,,,,,,,,,,,,,,,,,,,,,,,,,,,,,,,,,,,,,,,,,,,,,,,,,,,,
,,,,,,5c472ac67379d8000112983d,62bbfa94b6566e598f2acc8b,2022-06-29_08h09.20.550,Colour_Asymmetry_Pilot,2022.1.3,Win32,59.52735282,62bbe60bf3d75ef465d3e404,0,32,32,76,1,threeone,,,,,,,,,,,,,,,,,,,,,,,,,,,,,,,,,,,,,,,,,,,,,,,,,,,,,,,,,,,,,,,,,,,,,,,,,,,,,,,,,,,,,,,,,,,,,,,,,,,,,,,,,,,,,,,,,,,,,,,,,,,,,,,,,,,,,,,,,,,,,,,,,,,,,,,,
,,,,,,5c472ac67379d8000112983d,62bbfa94b6566e598f2acc8b,2022-06-29_08h09.20.550,Colour_Asymmetry_Pilot,2022.1.3,Win32,59.52735282,62bbe60bf3d75ef465d3e404,0,33,33,156,1,threeone,,,,,,,,,,,,,,,,,,,,,,,,,,,,,,,,,,,,,,,,,,,,,,,,,,,,,,,,,,,,,,,,,,,,,,,,,,,,,,,,,,,,,,,,,,,,,,,,,,,,,,,,,,,,,,,,,,,,,,,,,,,,,,,,,,,,,,,,,,,,,,,,,,,,,,,,
,,,,,,5c472ac67379d8000112983d,62bbfa94b6566e598f2acc8b,2022-06-29_08h09.20.550,Colour_Asymmetry_Pilot,2022.1.3,Win32,59.52735282,62bbe60bf3d75ef465d3e404,0,34,34,125,1,threefour,,,,,,,,,,,,,,,,,,,,,,,,,,,,,,,,,,,,,,,,,,,,,,,,,,,,,,,,,,,,,,,,,,,,,,,,,,,,,,,,,,,,,,,,,,,,,,,,,,,,,,,,,,,,,,,,,,,,,,,,,,,,,,,,,,,,,,,,,,,,,,,,,,,,,,,,
,,,,,,5c472ac67379d8000112983d,62bbfa94b6566e598f2acc8b,2022-06-29_08h09.20.550,Colour_Asymmetry_Pilot,2022.1.3,Win32,59.52735282,62bbe60bf3d75ef465d3e404,0,35,35,157,1,threefour,,,,,,,,,,,,,,,,,,,,,,,,,,,,,,,,,,,,,,,,,,,,,,,,,,,,,,,,,,,,,,,,,,,,,,,,,,,,,,,,,,,,,,,,,,,,,,,,,,,,,,,,,,,,,,,,,,,,,,,,,,,,,,,,,,,,,,,,,,,,,,,,,,,,,,,,
,,,,,,5c472ac67379d8000112983d,62bbfa94b6566e598f2acc8b,2022-06-29_08h09.20.550,Colour_Asymmetry_Pilot,2022.1.3,Win32,59.52735282,62bbe60bf3d75ef465d3e404,0,36,36,24,1,onetwo,,,,,,,,,,,,,,,,,,,,,,,,,,,,,,,,,,,,,,,,,,,,,,,,,,,,,,,,,,,,,,,,,,,,,,,,,,,,,,,,,,,,,,,,,,,,,,,,,,,,,,,,,,,,,,,,,,,,,,,,,,,,,,,,,,,,,,,,,,,,,,,,,,,,,,,,
,,,,,,5c472ac67379d8000112983d,62bbfa94b6566e598f2acc8b,2022-06-29_08h09.20.550,Colour_Asymmetry_Pilot,2022.1.3,Win32,59.52735282,62bbe60bf3d75ef465d3e404,0,37,37,159,1,fourthree,,,,,,,,,,,,,,,,,,,,,,,,,,,,,,,,,,,,,,,,,,,,,,,,,,,,,,,,,,,,,,,,,,,,,,,,,,,,,,,,,,,,,,,,,,,,,,,,,,,,,,,,,,,,,,,,,,,,,,,,,,,,,,,,,,,,,,,,,,,,,,,,,,,,,,,,
,,,,,,5c472ac67379d8000112983d,62bbfa94b6566e598f2acc8b,2022-06-29_08h09.20.550,Colour_Asymmetry_Pilot,2022.1.3,Win32,59.52735282,62bbe60bf3d75ef465d3e404,0,38,38,68,1,threeone,,,,,,,,,,,,,,,,,,,,,,,,,,,,,,,,,,,,,,,,,,,,,,,,,,,,,,,,,,,,,,,,,,,,,,,,,,,,,,,,,,,,,,,,,,,,,,,,,,,,,,,,,,,,,,,,,,,,,,,,,,,,,,,,,,,,,,,,,,,,,,,,,,,,,,,,
,,,,,,5c472ac67379d8000112983d,62bbfa94b6566e598f2acc8b,2022-06-29_08h09.20.550,Colour_Asymmetry_Pilot,2022.1.3,Win32,59.52735282,62bbe60bf3d75ef465d3e404,0,39,39,15,1,fourthree,,,,,,,,,,,,,,,,,,,,,,,,,,,,,,,,,,,,,,,,,,,,,,,,,,,,,,,,,,,,,,,,,,,,,,,,,,,,,,,,,,,,,,,,,,,,,,,,,,,,,,,,,,,,,,,,,,,,,,,,,,,,,,,,,,,,,,,,,,,,,,,,,,,,,,,,
,,,,,,5c472ac67379d8000112983d,62bbfa94b6566e598f2acc8b,2022-06-29_08h09.20.550,Colour_Asymmetry_Pilot,2022.1.3,Win32,59.52735282,62bbe60bf3d75ef465d3e404,0,40,40,16,1,onetwo,,,,,,,,,,,,,,,,,,,,,,,,,,,,,,,,,,,,,,,,,,,,,,,,,,,,,,,,,,,,,,,,,,,,,,,,,,,,,,,,,,,,,,,,,,,,,,,,,,,,,,,,,,,,,,,,,,,,,,,,,,,,,,,,,,,,,,,,,,,,,,,,,,,,,,,,
,,,,,,5c472ac67379d8000112983d,62bbfa94b6566e598f2acc8b,2022-06-29_08h09.20.550,Colour_Asymmetry_Pilot,2022.1.3,Win32,59.52735282,62bbe60bf3d75ef465d3e404,0,41,41,38,1,fourtwo,,,,,,,,,,,,,,,,,,,,,,,,,,,,,,,,,,,,,,,,,,,,,,,,,,,,,,,,,,,,,,,,,,,,,,,,,,,,,,,,,,,,,,,,,,,,,,,,,,,,,,,,,,,,,,,,,,,,,,,,,,,,,,,,,,,,,,,,,,,,,,,,,,,,,,,,
,,,,,,5c472ac67379d8000112983d,62bbfa94b6566e598f2acc8b,2022-06-29_08h09.20.550,Colour_Asymmetry_Pilot,2022.1.3,Win32,59.52735282,62bbe60bf3d75ef465d3e404,0,42,42,19,1,twofour,,,,,,,,,,,,,,,,,,,,,,,,,,,,,,,,,,,,,,,,,,,,,,,,,,,,,,,,,,,,,,,,,,,,,,,,,,,,,,,,,,,,,,,,,,,,,,,,,,,,,,,,,,,,,,,,,,,,,,,,,,,,,,,,,,,,,,,,,,,,,,,,,,,,,,,,
,,,,,,5c472ac67379d8000112983d,62bbfa94b6566e598f2acc8b,2022-06-29_08h09.20.550,Colour_Asymmetry_Pilot,2022.1.3,Win32,59.52735282,62bbe60bf3d75ef465d3e404,0,43,43,151,1,fourthree,,,,,,,,,,,,,,,,,,,,,,,,,,,,,,,,,,,,,,,,,,,,,,,,,,,,,,,,,,,,,,,,,,,,,,,,,,,,,,,,,,,,,,,,,,,,,,,,,,,,,,,,,,,,,,,,,,,,,,,,,,,,,,,,,,,,,,,,,,,,,,,,,,,,,,,,
,,,,,,5c472ac67379d8000112983d,62bbfa94b6566e598f2acc8b,2022-06-29_08h09.20.550,Colour_Asymmetry_Pilot,2022.1.3,Win32,59.52735282,62bbe60bf3d75ef465d3e404,0,44,44,143,1,fourthree,,,,,,,,,,,,,,,,,,,,,,,,,,,,,,,,,,,,,,,,,,,,,,,,,,,,,,,,,,,,,,,,,,,,,,,,,,,,,,,,,,,,,,,,,,,,,,,,,,,,,,,,,,,,,,,,,,,,,,,,,,,,,,,,,,,,,,,,,,,,,,,,,,,,,,,,
,,,,,,5c472ac67379d8000112983d,62bbfa94b6566e598f2acc8b,2022-06-29_08h09.20.550,Colour_Asymmetry_Pilot,2022.1.3,Win32,59.52735282,62bbe60bf3d75ef465d3e404,0,45,45,150,1,fourtwo,,,,,,,,,,,,,,,,,,,,,,,,,,,,,,,,,,,,,,,,,,,,,,,,,,,,,,,,,,,,,,,,,,,,,,,,,,,,,,,,,,,,,,,,,,,,,,,,,,,,,,,,,,,,,,,,,,,,,,,,,,,,,,,,,,,,,,,,,,,,,,,,,,,,,,,,
,,,,,,5c472ac67379d8000112983d,62bbfa94b6566e598f2acc8b,2022-06-29_08h09.20.550,Colour_Asymmetry_Pilot,2022.1.3,Win32,59.52735282,62bbe60bf3d75ef465d3e404,0,46,46,101,1,threefour,,,,,,,,,,,,,,,,,,,,,,,,,,,,,,,,,,,,,,,,,,,,,,,,,,,,,,,,,,,,,,,,,,,,,,,,,,,,,,,,,,,,,,,,,,,,,,,,,,,,,,,,,,,,,,,,,,,,,,,,,,,,,,,,,,,,,,,,,,,,,,,,,,,,,,,,
,,,,,,5c472ac67379d8000112983d,62bbfa94b6566e598f2acc8b,2022-06-29_08h09.20.550,Colour_Asymmetry_Pilot,2022.1.3,Win32,59.52735282,62bbe60bf3d75ef465d3e404,0,47,47,20,1,threeone,,,,,,,,,,,,,,,,,,,,,,,,,,,,,,,,,,,,,,,,,,,,,,,,,,,,,,,,,,,,,,,,,,,,,,,,,,,,,,,,,,,,,,,,,,,,,,,,,,,,,,,,,,,,,,,,,,,,,,,,,,,,,,,,,,,,,,,,,,,,,,,,,,,,,,,,
,,,,,,5c472ac67379d8000112983d,62bbfa94b6566e598f2acc8b,2022-06-29_08h09.20.550,Colour_Asymmetry_Pilot,2022.1.3,Win32,59.52735282,62bbe60bf3d75ef465d3e404,0,48,48,58,1,twoone,,,,,,,,,,,,,,,,,,,,,,,,,,,,,,,,,,,,,,,,,,,,,,,,,,,,,,,,,,,,,,,,,,,,,,,,,,,,,,,,,,,,,,,,,,,,,,,,,,,,,,,,,,,,,,,,,,,,,,,,,,,,,,,,,,,,,,,,,,,,,,,,,,,,,,,,
,,,,,,5c472ac67379d8000112983d,62bbfa94b6566e598f2acc8b,2022-06-29_08h09.20.550,Colour_Asymmetry_Pilot,2022.1.3,Win32,59.52735282,62bbe60bf3d75ef465d3e404,0,49,49,63,1,fourthree,,,,,,,,,,,,,,,,,,,,,,,,,,,,,,,,,,,,,,,,,,,,,,,,,,,,,,,,,,,,,,,,,,,,,,,,,,,,,,,,,,,,,,,,,,,,,,,,,,,,,,,,,,,,,,,,,,,,,,,,,,,,,,,,,,,,,,,,,,,,,,,,,,,,,,,,
,,,,,,5c472ac67379d8000112983d,62bbfa94b6566e598f2acc8b,2022-06-29_08h09.20.550,Colour_Asymmetry_Pilot,2022.1.3,Win32,59.52735282,62bbe60bf3d75ef465d3e404,0,50,50,139,1,twofour,,,,,,,,,,,,,,,,,,,,,,,,,,,,,,,,,,,,,,,,,,,,,,,,,,,,,,,,,,,,,,,,,,,,,,,,,,,,,,,,,,,,,,,,,,,,,,,,,,,,,,,,,,,,,,,,,,,,,,,,,,,,,,,,,,,,,,,,,,,,,,,,,,,,,,,,
,,,,,,5c472ac67379d8000112983d,62bbfa94b6566e598f2acc8b,2022-06-29_08h09.20.550,Colour_Asymmetry_Pilot,2022.1.3,Win32,59.52735282,62bbe60bf3d75ef465d3e404,0,51,51,45,1,threefour,,,,,,,,,,,,,,,,,,,,,,,,,,,,,,,,,,,,,,,,,,,,,,,,,,,,,,,,,,,,,,,,,,,,,,,,,,,,,,,,,,,,,,,,,,,,,,,,,,,,,,,,,,,,,,,,,,,,,,,,,,,,,,,,,,,,,,,,,,,,,,,,,,,,,,,,
,,,,,,5c472ac67379d8000112983d,62bbfa94b6566e598f2acc8b,2022-06-29_08h09.20.550,Colour_Asymmetry_Pilot,2022.1.3,Win32,59.52735282,62bbe60bf3d75ef465d3e404,0,52,52,80,1,onetwo,,,,,,,,,,,,,,,,,,,,,,,,,,,,,,,,,,,,,,,,,,,,,,,,,,,,,,,,,,,,,,,,,,,,,,,,,,,,,,,,,,,,,,,,,,,,,,,,,,,,,,,,,,,,,,,,,,,,,,,,,,,,,,,,,,,,,,,,,,,,,,,,,,,,,,,,
,,,,,,5c472ac67379d8000112983d,62bbfa94b6566e598f2acc8b,2022-06-29_08h09.20.550,Colour_Asymmetry_Pilot,2022.1.3,Win32,59.52735282,62bbe60bf3d75ef465d3e404,0,53,53,137,1,onethree,,,,,,,,,,,,,,,,,,,,,,,,,,,,,,,,,,,,,,,,,,,,,,,,,,,,,,,,,,,,,,,,,,,,,,,,,,,,,,,,,,,,,,,,,,,,,,,,,,,,,,,,,,,,,,,,,,,,,,,,,,,,,,,,,,,,,,,,,,,,,,,,,,,,,,,,
,,,,,,5c472ac67379d8000112983d,62bbfa94b6566e598f2acc8b,2022-06-29_08h09.20.550,Colour_Asymmetry_Pilot,2022.1.3,Win32,59.52735282,62bbe60bf3d75ef465d3e404,0,54,54,57,1,onethree,,,,,,,,,,,,,,,,,,,,,,,,,,,,,,,,,,,,,,,,,,,,,,,,,,,,,,,,,,,,,,,,,,,,,,,,,,,,,,,,,,,,,,,,,,,,,,,,,,,,,,,,,,,,,,,,,,,,,,,,,,,,,,,,,,,,,,,,,,,,,,,,,,,,,,,,
,,,,,,5c472ac67379d8000112983d,62bbfa94b6566e598f2acc8b,2022-06-29_08h09.20.550,Colour_Asymmetry_Pilot,2022.1.3,Win32,59.52735282,62bbe60bf3d75ef465d3e404,0,55,55,96,1,onetwo,,,,,,,,,,,,,,,,,,,,,,,,,,,,,,,,,,,,,,,,,,,,,,,,,,,,,,,,,,,,,,,,,,,,,,,,,,,,,,,,,,,,,,,,,,,,,,,,,,,,,,,,,,,,,,,,,,,,,,,,,,,,,,,,,,,,,,,,,,,,,,,,,,,,,,,,
,,,,,,5c472ac67379d8000112983d,62bbfa94b6566e598f2acc8b,2022-06-29_08h09.20.550,Colour_Asymmetry_Pilot,2022.1.3,Win32,59.52735282,62bbe60bf3d75ef465d3e404,0,56,56,79,1,fourthree,,,,,,,,,,,,,,,,,,,,,,,,,,,,,,,,,,,,,,,,,,,,,,,,,,,,,,,,,,,,,,,,,,,,,,,,,,,,,,,,,,,,,,,,,,,,,,,,,,,,,,,,,,,,,,,,,,,,,,,,,,,,,,,,,,,,,,,,,,,,,,,,,,,,,,,,
,,,,,,5c472ac67379d8000112983d,62bbfa94b6566e598f2acc8b,2022-06-29_08h09.20.550,Colour_Asymmetry_Pilot,2022.1.3,Win32,59.52735282,62bbe60bf3d75ef465d3e404,0,57,57,62,1,fourtwo,,,,,,,,,,,,,,,,,,,,,,,,,,,,,,,,,,,,,,,,,,,,,,,,,,,,,,,,,,,,,,,,,,,,,,,,,,,,,,,,,,,,,,,,,,,,,,,,,,,,,,,,,,,,,,,,,,,,,,,,,,,,,,,,,,,,,,,,,,,,,,,,,,,,,,,,
,,,,,,5c472ac67379d8000112983d,62bbfa94b6566e598f2acc8b,2022-06-29_08h09.20.550,Colour_Asymmetry_Pilot,2022.1.3,Win32,59.52735282,62bbe60bf3d75ef465d3e404,0,58,58,129,1,onethree,,,,,,,,,,,,,,,,,,,,,,,,,,,,,,,,,,,,,,,,,,,,,,,,,,,,,,,,,,,,,,,,,,,,,,,,,,,,,,,,,,,,,,,,,,,,,,,,,,,,,,,,,,,,,,,,,,,,,,,,,,,,,,,,,,,,,,,,,,,,,,,,,,,,,,,,
,,,,,,5c472ac67379d8000112983d,62bbfa94b6566e598f2acc8b,2022-06-29_08h09.20.550,Colour_Asymmetry_Pilot,2022.1.3,Win32,59.52735282,62bbe60bf3d75ef465d3e404,0,59,59,128,1,onetwo,,,,,,,,,,,,,,,,,,,,,,,,,,,,,,,,,,,,,,,,,,,,,,,,,,,,,,,,,,,,,,,,,,,,,,,,,,,,,,,,,,,,,,,,,,,,,,,,,,,,,,,,,,,,,,,,,,,,,,,,,,,,,,,,,,,,,,,,,,,,,,,,,,,,,,,,
,,,,,,5c472ac67379d8000112983d,62bbfa94b6566e598f2acc8b,2022-06-29_08h09.20.550,Colour_Asymmetry_Pilot,2022.1.3,Win32,59.52735282,62bbe60bf3d75ef465d3e404,0,60,60,145,1,onethree,,,,,,,,,,,,,,,,,,,,,,,,,,,,,,,,,,,,,,,,,,,,,,,,,,,,,,,,,,,,,,,,,,,,,,,,,,,,,,,,,,,,,,,,,,,,,,,,,,,,,,,,,,,,,,,,,,,,,,,,,,,,,,,,,,,,,,,,,,,,,,,,,,,,,,,,
,,,,,,5c472ac67379d8000112983d,62bbfa94b6566e598f2acc8b,2022-06-29_08h09.20.550,Colour_Asymmetry_Pilot,2022.1.3,Win32,59.52735282,62bbe60bf3d75ef465d3e404,0,61,61,107,1,twofour,,,,,,,,,,,,,,,,,,,,,,,,,,,,,,,,,,,,,,,,,,,,,,,,,,,,,,,,,,,,,,,,,,,,,,,,,,,,,,,,,,,,,,,,,,,,,,,,,,,,,,,,,,,,,,,,,,,,,,,,,,,,,,,,,,,,,,,,,,,,,,,,,,,,,,,,
,,,,,,5c472ac67379d8000112983d,62bbfa94b6566e598f2acc8b,2022-06-29_08h09.20.550,Colour_Asymmetry_Pilot,2022.1.3,Win32,59.52735282,62bbe60bf3d75ef465d3e404,0,62,62,116,1,threeone,,,,,,,,,,,,,,,,,,,,,,,,,,,,,,,,,,,,,,,,,,,,,,,,,,,,,,,,,,,,,,,,,,,,,,,,,,,,,,,,,,,,,,,,,,,,,,,,,,,,,,,,,,,,,,,,,,,,,,,,,,,,,,,,,,,,,,,,,,,,,,,,,,,,,,,,
,,,,,,5c472ac67379d8000112983d,62bbfa94b6566e598f2acc8b,2022-06-29_08h09.20.550,Colour_Asymmetry_Pilot,2022.1.3,Win32,59.52735282,62bbe60bf3d75ef465d3e404,0,63,63,35,1,twofour,,,,,,,,,,,,,,,,,,,,,,,,,,,,,,,,,,,,,,,,,,,,,,,,,,,,,,,,,,,,,,,,,,,,,,,,,,,,,,,,,,,,,,,,,,,,,,,,,,,,,,,,,,,,,,,,,,,,,,,,,,,,,,,,,,,,,,,,,,,,,,,,,,,,,,,,
,,,,,,5c472ac67379d8000112983d,62bbfa94b6566e598f2acc8b,2022-06-29_08h09.20.550,Colour_Asymmetry_Pilot,2022.1.3,Win32,59.52735282,62bbe60bf3d75ef465d3e404,0,64,64,82,1,twoone,,,,,,,,,,,,,,,,,,,,,,,,,,,,,,,,,,,,,,,,,,,,,,,,,,,,,,,,,,,,,,,,,,,,,,,,,,,,,,,,,,,,,,,,,,,,,,,,,,,,,,,,,,,,,,,,,,,,,,,,,,,,,,,,,,,,,,,,,,,,,,,,,,,,,,,,
,,,,,,5c472ac67379d8000112983d,62bbfa94b6566e598f2acc8b,2022-06-29_08h09.20.550,Colour_Asymmetry_Pilot,2022.1.3,Win32,59.52735282,62bbe60bf3d75ef465d3e404,0,65,65,59,1,twofour,,,,,,,,,,,,,,,,,,,,,,,,,,,,,,,,,,,,,,,,,,,,,,,,,,,,,,,,,,,,,,,,,,,,,,,,,,,,,,,,,,,,,,,,,,,,,,,,,,,,,,,,,,,,,,,,,,,,,,,,,,,,,,,,,,,,,,,,,,,,,,,,,,,,,,,,
,,,,,,5c472ac67379d8000112983d,62bbfa94b6566e598f2acc8b,2022-06-29_08h09.20.550,Colour_Asymmetry_Pilot,2022.1.3,Win32,59.52735282,62bbe60bf3d75ef465d3e404,0,66,66,112,1,onetwo,,,,,,,,,,,,,,,,,,,,,,,,,,,,,,,,,,,,,,,,,,,,,,,,,,,,,,,,,,,,,,,,,,,,,,,,,,,,,,,,,,,,,,,,,,,,,,,,,,,,,,,,,,,,,,,,,,,,,,,,,,,,,,,,,,,,,,,,,,,,,,,,,,,,,,,,
,,,,,,5c472ac67379d8000112983d,62bbfa94b6566e598f2acc8b,2022-06-29_08h09.20.550,Colour_Asymmetry_Pilot,2022.1.3,Win32,59.52735282,62bbe60bf3d75ef465d3e404,0,67,67,124,1,threeone,,,,,,,,,,,,,,,,,,,,,,,,,,,,,,,,,,,,,,,,,,,,,,,,,,,,,,,,,,,,,,,,,,,,,,,,,,,,,,,,,,,,,,,,,,,,,,,,,,,,,,,,,,,,,,,,,,,,,,,,,,,,,,,,,,,,,,,,,,,,,,,,,,,,,,,,
,,,,,,5c472ac67379d8000112983d,62bbfa94b6566e598f2acc8b,2022-06-29_08h09.20.550,Colour_Asymmetry_Pilot,2022.1.3,Win32,59.52735282,62bbe60bf3d75ef465d3e404,0,68,68,90,1,twoone,,,,,,,,,,,,,,,,,,,,,,,,,,,,,,,,,,,,,,,,,,,,,,,,,,,,,,,,,,,,,,,,,,,,,,,,,,,,,,,,,,,,,,,,,,,,,,,,,,,,,,,,,,,,,,,,,,,,,,,,,,,,,,,,,,,,,,,,,,,,,,,,,,,,,,,,
,,,,,,5c472ac67379d8000112983d,62bbfa94b6566e598f2acc8b,2022-06-29_08h09.20.550,Colour_Asymmetry_Pilot,2022.1.3,Win32,59.52735282,62bbe60bf3d75ef465d3e404,0,69,69,74,1,twoone,,,,,,,,,,,,,,,,,,,,,,,,,,,,,,,,,,,,,,,,,,,,,,,,,,,,,,,,,,,,,,,,,,,,,,,,,,,,,,,,,,,,,,,,,,,,,,,,,,,,,,,,,,,,,,,,,,,,,,,,,,,,,,,,,,,,,,,,,,,,,,,,,,,,,,,,
,,,,,,5c472ac67379d8000112983d,62bbfa94b6566e598f2acc8b,2022-06-29_08h09.20.550,Colour_Asymmetry_Pilot,2022.1.3,Win32,59.52735282,62bbe60bf3d75ef465d3e404,0,70,70,39,1,fourthree,,,,,,,,,,,,,,,,,,,,,,,,,,,,,,,,,,,,,,,,,,,,,,,,,,,,,,,,,,,,,,,,,,,,,,,,,,,,,,,,,,,,,,,,,,,,,,,,,,,,,,,,,,,,,,,,,,,,,,,,,,,,,,,,,,,,,,,,,,,,,,,,,,,,,,,,
,,,,,,5c472ac67379d8000112983d,62bbfa94b6566e598f2acc8b,2022-06-29_08h09.20.550,Colour_Asymmetry_Pilot,2022.1.3,Win32,59.52735282,62bbe60bf3d75ef465d3e404,0,71,71,21,1,threefour,,,,,,,,,,,,,,,,,,,,,,,,,,,,,,,,,,,,,,,,,,,,,,,,,,,,,,,,,,,,,,,,,,,,,,,,,,,,,,,,,,,,,,,,,,,,,,,,,,,,,,,,,,,,,,,,,,,,,,,,,,,,,,,,,,,,,,,,,,,,,,,,,,,,,,,,
,,,,,,5c472ac67379d8000112983d,62bbfa94b6566e598f2acc8b,2022-06-29_08h09.20.550,Colour_Asymmetry_Pilot,2022.1.3,Win32,59.52735282,62bbe60bf3d75ef465d3e404,0,72,72,61,1,threefour,,,,,,,,,,,,,,,,,,,,,,,,,,,,,,,,,,,,,,,,,,,,,,,,,,,,,,,,,,,,,,,,,,,,,,,,,,,,,,,,,,,,,,,,,,,,,,,,,,,,,,,,,,,,,,,,,,,,,,,,,,,,,,,,,,,,,,,,,,,,,,,,,,,,,,,,
,,,,,,5c472ac67379d8000112983d,62bbfa94b6566e598f2acc8b,2022-06-29_08h09.20.550,Colour_Asymmetry_Pilot,2022.1.3,Win32,59.52735282,62bbe60bf3d75ef465d3e404,0,73,73,25,1,onethree,,,,,,,,,,,,,,,,,,,,,,,,,,,,,,,,,,,,,,,,,,,,,,,,,,,,,,,,,,,,,,,,,,,,,,,,,,,,,,,,,,,,,,,,,,,,,,,,,,,,,,,,,,,,,,,,,,,,,,,,,,,,,,,,,,,,,,,,,,,,,,,,,,,,,,,,
,,,,,,5c472ac67379d8000112983d,62bbfa94b6566e598f2acc8b,2022-06-29_08h09.20.550,Colour_Asymmetry_Pilot,2022.1.3,Win32,59.52735282,62bbe60bf3d75ef465d3e404,0,74,74,44,1,threeone,,,,,,,,,,,,,,,,,,,,,,,,,,,,,,,,,,,,,,,,,,,,,,,,,,,,,,,,,,,,,,,,,,,,,,,,,,,,,,,,,,,,,,,,,,,,,,,,,,,,,,,,,,,,,,,,,,,,,,,,,,,,,,,,,,,,,,,,,,,,,,,,,,,,,,,,
,,,,,,5c472ac67379d8000112983d,62bbfa94b6566e598f2acc8b,2022-06-29_08h09.20.550,Colour_Asymmetry_Pilot,2022.1.3,Win32,59.52735282,62bbe60bf3d75ef465d3e404,0,75,75,85,1,threefour,,,,,,,,,,,,,,,,,,,,,,,,,,,,,,,,,,,,,,,,,,,,,,,,,,,,,,,,,,,,,,,,,,,,,,,,,,,,,,,,,,,,,,,,,,,,,,,,,,,,,,,,,,,,,,,,,,,,,,,,,,,,,,,,,,,,,,,,,,,,,,,,,,,,,,,,
,,,,,,5c472ac67379d8000112983d,62bbfa94b6566e598f2acc8b,2022-06-29_08h09.20.550,Colour_Asymmetry_Pilot,2022.1.3,Win32,59.52735282,62bbe60bf3d75ef465d3e404,0,76,76,71,1,fourthree,,,,,,,,,,,,,,,,,,,,,,,,,,,,,,,,,,,,,,,,,,,,,,,,,,,,,,,,,,,,,,,,,,,,,,,,,,,,,,,,,,,,,,,,,,,,,,,,,,,,,,,,,,,,,,,,,,,,,,,,,,,,,,,,,,,,,,,,,,,,,,,,,,,,,,,,
,,,,,,5c472ac67379d8000112983d,62bbfa94b6566e598f2acc8b,2022-06-29_08h09.20.550,Colour_Asymmetry_Pilot,2022.1.3,Win32,59.52735282,62bbe60bf3d75ef465d3e404,0,77,77,47,1,fourthree,,,,,,,,,,,,,,,,,,,,,,,,,,,,,,,,,,,,,,,,,,,,,,,,,,,,,,,,,,,,,,,,,,,,,,,,,,,,,,,,,,,,,,,,,,,,,,,,,,,,,,,,,,,,,,,,,,,,,,,,,,,,,,,,,,,,,,,,,,,,,,,,,,,,,,,,
,,,,,,5c472ac67379d8000112983d,62bbfa94b6566e598f2acc8b,2022-06-29_08h09.20.550,Colour_Asymmetry_Pilot,2022.1.3,Win32,59.52735282,62bbe60bf3d75ef465d3e404,0,78,78,93,1,threefour,,,,,,,,,,,,,,,,,,,,,,,,,,,,,,,,,,,,,,,,,,,,,,,,,,,,,,,,,,,,,,,,,,,,,,,,,,,,,,,,,,,,,,,,,,,,,,,,,,,,,,,,,,,,,,,,,,,,,,,,,,,,,,,,,,,,,,,,,,,,,,,,,,,,,,,,
,,,,,,5c472ac67379d8000112983d,62bbfa94b6566e598f2acc8b,2022-06-29_08h09.20.550,Colour_Asymmetry_Pilot,2022.1.3,Win32,59.52735282,62bbe60bf3d75ef465d3e404,0,79,79,37,1,threefour,,,,,,,,,,,,,,,,,,,,,,,,,,,,,,,,,,,,,,,,,,,,,,,,,,,,,,,,,,,,,,,,,,,,,,,,,,,,,,,,,,,,,,,,,,,,,,,,,,,,,,,,,,,,,,,,,,,,,,,,,,,,,,,,,,,,,,,,,,,,,,,,,,,,,,,,
,,,,,,5c472ac67379d8000112983d,62bbfa94b6566e598f2acc8b,2022-06-29_08h09.20.550,Colour_Asymmetry_Pilot,2022.1.3,Win32,59.52735282,62bbe60bf3d75ef465d3e404,0,80,80,32,1,onetwo,,,,,,,,,,,,,,,,,,,,,,,,,,,,,,,,,,,,,,,,,,,,,,,,,,,,,,,,,,,,,,,,,,,,,,,,,,,,,,,,,,,,,,,,,,,,,,,,,,,,,,,,,,,,,,,,,,,,,,,,,,,,,,,,,,,,,,,,,,,,,,,,,,,,,,,,
,,,,,,5c472ac67379d8000112983d,62bbfa94b6566e598f2acc8b,2022-06-29_08h09.20.550,Colour_Asymmetry_Pilot,2022.1.3,Win32,59.52735282,62bbe60bf3d75ef465d3e404,0,81,81,95,1,fourthree,,,,,,,,,,,,,,,,,,,,,,,,,,,,,,,,,,,,,,,,,,,,,,,,,,,,,,,,,,,,,,,,,,,,,,,,,,,,,,,,,,,,,,,,,,,,,,,,,,,,,,,,,,,,,,,,,,,,,,,,,,,,,,,,,,,,,,,,,,,,,,,,,,,,,,,,
,,,,,,5c472ac67379d8000112983d,62bbfa94b6566e598f2acc8b,2022-06-29_08h09.20.550,Colour_Asymmetry_Pilot,2022.1.3,Win32,59.52735282,62bbe60bf3d75ef465d3e404,0,82,82,67,1,twofour,,,,,,,,,,,,,,,,,,,,,,,,,,,,,,,,,,,,,,,,,,,,,,,,,,,,,,,,,,,,,,,,,,,,,,,,,,,,,,,,,,,,,,,,,,,,,,,,,,,,,,,,,,,,,,,,,,,,,,,,,,,,,,,,,,,,,,,,,,,,,,,,,,,,,,,,
,,,,,,5c472ac67379d8000112983d,62bbfa94b6566e598f2acc8b,2022-06-29_08h09.20.550,Colour_Asymmetry_Pilot,2022.1.3,Win32,59.52735282,62bbe60bf3d75ef465d3e404,0,83,83,30,1,fourtwo,,,,,,,,,,,,,,,,,,,,,,,,,,,,,,,,,,,,,,,,,,,,,,,,,,,,,,,,,,,,,,,,,,,,,,,,,,,,,,,,,,,,,,,,,,,,,,,,,,,,,,,,,,,,,,,,,,,,,,,,,,,,,,,,,,,,,,,,,,,,,,,,,,,,,,,,
,,,,,,5c472ac67379d8000112983d,62bbfa94b6566e598f2acc8b,2022-06-29_08h09.20.550,Colour_Asymmetry_Pilot,2022.1.3,Win32,59.52735282,62bbe60bf3d75ef465d3e404,0,84,84,121,1,onethree,,,,,,,,,,,,,,,,,,,,,,,,,,,,,,,,,,,,,,,,,,,,,,,,,,,,,,,,,,,,,,,,,,,,,,,,,,,,,,,,,,,,,,,,,,,,,,,,,,,,,,,,,,,,,,,,,,,,,,,,,,,,,,,,,,,,,,,,,,,,,,,,,,,,,,,,
,,,,,,5c472ac67379d8000112983d,62bbfa94b6566e598f2acc8b,2022-06-29_08h09.20.550,Colour_Asymmetry_Pilot,2022.1.3,Win32,59.52735282,62bbe60bf3d75ef465d3e404,0,85,85,160,1,onetwo,,,,,,,,,,,,,,,,,,,,,,,,,,,,,,,,,,,,,,,,,,,,,,,,,,,,,,,,,,,,,,,,,,,,,,,,,,,,,,,,,,,,,,,,,,,,,,,,,,,,,,,,,,,,,,,,,,,,,,,,,,,,,,,,,,,,,,,,,,,,,,,,,,,,,,,,
,,,,,,5c472ac67379d8000112983d,62bbfa94b6566e598f2acc8b,2022-06-29_08h09.20.550,Colour_Asymmetry_Pilot,2022.1.3,Win32,59.52735282,62bbe60bf3d75ef465d3e404,0,86,86,46,1,fourtwo,,,,,,,,,,,,,,,,,,,,,,,,,,,,,,,,,,,,,,,,,,,,,,,,,,,,,,,,,,,,,,,,,,,,,,,,,,,,,,,,,,,,,,,,,,,,,,,,,,,,,,,,,,,,,,,,,,,,,,,,,,,,,,,,,,,,,,,,,,,,,,,,,,,,,,,,
,,,,,,5c472ac67379d8000112983d,62bbfa94b6566e598f2acc8b,2022-06-29_08h09.20.550,Colour_Asymmetry_Pilot,2022.1.3,Win32,59.52735282,62bbe60bf3d75ef465d3e404,0,87,87,120,1,onetwo,,,,,,,,,,,,,,,,,,,,,,,,,,,,,,,,,,,,,,,,,,,,,,,,,,,,,,,,,,,,,,,,,,,,,,,,,,,,,,,,,,,,,,,,,,,,,,,,,,,,,,,,,,,,,,,,,,,,,,,,,,,,,,,,,,,,,,,,,,,,,,,,,,,,,,,,
,,,,,,5c472ac67379d8000112983d,62bbfa94b6566e598f2acc8b,2022-06-29_08h09.20.550,Colour_Asymmetry_Pilot,2022.1.3,Win32,59.52735282,62bbe60bf3d75ef465d3e404,0,88,88,48,1,onetwo,,,,,,,,,,,,,,,,,,,,,,,,,,,,,,,,,,,,,,,,,,,,,,,,,,,,,,,,,,,,,,,,,,,,,,,,,,,,,,,,,,,,,,,,,,,,,,,,,,,,,,,,,,,,,,,,,,,,,,,,,,,,,,,,,,,,,,,,,,,,,,,,,,,,,,,,
,,,,,,5c472ac67379d8000112983d,62bbfa94b6566e598f2acc8b,2022-06-29_08h09.20.550,Colour_Asymmetry_Pilot,2022.1.3,Win32,59.52735282,62bbe60bf3d75ef465d3e404,0,89,89,2,1,twoone,,,,,,,,,,,,,,,,,,,,,,,,,,,,,,,,,,,,,,,,,,,,,,,,,,,,,,,,,,,,,,,,,,,,,,,,,,,,,,,,,,,,,,,,,,,,,,,,,,,,,,,,,,,,,,,,,,,,,,,,,,,,,,,,,,,,,,,,,,,,,,,,,,,,,,,,
,,,,,,5c472ac67379d8000112983d,62bbfa94b6566e598f2acc8b,2022-06-29_08h09.20.550,Colour_Asymmetry_Pilot,2022.1.3,Win32,59.52735282,62bbe60bf3d75ef465d3e404,0,90,90,29,1,threefour,,,,,,,,,,,,,,,,,,,,,,,,,,,,,,,,,,,,,,,,,,,,,,,,,,,,,,,,,,,,,,,,,,,,,,,,,,,,,,,,,,,,,,,,,,,,,,,,,,,,,,,,,,,,,,,,,,,,,,,,,,,,,,,,,,,,,,,,,,,,,,,,,,,,,,,,
,,,,,,5c472ac67379d8000112983d,62bbfa94b6566e598f2acc8b,2022-06-29_08h09.20.550,Colour_Asymmetry_Pilot,2022.1.3,Win32,59.52735282,62bbe60bf3d75ef465d3e404,0,91,91,5,1,threefour,,,,,,,,,,,,,,,,,,,,,,,,,,,,,,,,,,,,,,,,,,,,,,,,,,,,,,,,,,,,,,,,,,,,,,,,,,,,,,,,,,,,,,,,,,,,,,,,,,,,,,,,,,,,,,,,,,,,,,,,,,,,,,,,,,,,,,,,,,,,,,,,,,,,,,,,
,,,,,,5c472ac67379d8000112983d,62bbfa94b6566e598f2acc8b,2022-06-29_08h09.20.550,Colour_Asymmetry_Pilot,2022.1.3,Win32,59.52735282,62bbe60bf3d75ef465d3e404,0,92,92,53,1,threefour,,,,,,,,,,,,,,,,,,,,,,,,,,,,,,,,,,,,,,,,,,,,,,,,,,,,,,,,,,,,,,,,,,,,,,,,,,,,,,,,,,,,,,,,,,,,,,,,,,,,,,,,,,,,,,,,,,,,,,,,,,,,,,,,,,,,,,,,,,,,,,,,,,,,,,,,
,,,,,,5c472ac67379d8000112983d,62bbfa94b6566e598f2acc8b,2022-06-29_08h09.20.550,Colour_Asymmetry_Pilot,2022.1.3,Win32,59.52735282,62bbe60bf3d75ef465d3e404,0,93,93,87,1,fourthree,,,,,,,,,,,,,,,,,,,,,,,,,,,,,,,,,,,,,,,,,,,,,,,,,,,,,,,,,,,,,,,,,,,,,,,,,,,,,,,,,,,,,,,,,,,,,,,,,,,,,,,,,,,,,,,,,,,,,,,,,,,,,,,,,,,,,,,,,,,,,,,,,,,,,,,,
,,,,,,5c472ac67379d8000112983d,62bbfa94b6566e598f2acc8b,2022-06-29_08h09.20.550,Colour_Asymmetry_Pilot,2022.1.3,Win32,59.52735282,62bbe60bf3d75ef465d3e404,0,94,94,70,1,fourtwo,,,,,,,,,,,,,,,,,,,,,,,,,,,,,,,,,,,,,,,,,,,,,,,,,,,,,,,,,,,,,,,,,,,,,,,,,,,,,,,,,,,,,,,,,,,,,,,,,,,,,,,,,,,,,,,,,,,,,,,,,,,,,,,,,,,,,,,,,,,,,,,,,,,,,,,,
,,,,,,5c472ac67379d8000112983d,62bbfa94b6566e598f2acc8b,2022-06-29_08h09.20.550,Colour_Asymmetry_Pilot,2022.1.3,Win32,59.52735282,62bbe60bf3d75ef465d3e404,0,95,95,149,1,threefour,,,,,,,,,,,,,,,,,,,,,,,,,,,,,,,,,,,,,,,,,,,,,,,,,,,,,,,,,,,,,,,,,,,,,,,,,,,,,,,,,,,,,,,,,,,,,,,,,,,,,,,,,,,,,,,,,,,,,,,,,,,,,,,,,,,,,,,,,,,,,,,,,,,,,,,,
,,,,,,5c472ac67379d8000112983d,62bbfa94b6566e598f2acc8b,2022-06-29_08h09.20.550,Colour_Asymmetry_Pilot,2022.1.3,Win32,59.52735282,62bbe60bf3d75ef465d3e404,0,96,96,6,1,fourtwo,,,,,,,,,,,,,,,,,,,,,,,,,,,,,,,,,,,,,,,,,,,,,,,,,,,,,,,,,,,,,,,,,,,,,,,,,,,,,,,,,,,,,,,,,,,,,,,,,,,,,,,,,,,,,,,,,,,,,,,,,,,,,,,,,,,,,,,,,,,,,,,,,,,,,,,,
,,,,,,5c472ac67379d8000112983d,62bbfa94b6566e598f2acc8b,2022-06-29_08h09.20.550,Colour_Asymmetry_Pilot,2022.1.3,Win32,59.52735282,62bbe60bf3d75ef465d3e404,0,97,97,142,1,fourtwo,,,,,,,,,,,,,,,,,,,,,,,,,,,,,,,,,,,,,,,,,,,,,,,,,,,,,,,,,,,,,,,,,,,,,,,,,,,,,,,,,,,,,,,,,,,,,,,,,,,,,,,,,,,,,,,,,,,,,,,,,,,,,,,,,,,,,,,,,,,,,,,,,,,,,,,,
,,,,,,5c472ac67379d8000112983d,62bbfa94b6566e598f2acc8b,2022-06-29_08h09.20.550,Colour_Asymmetry_Pilot,2022.1.3,Win32,59.52735282,62bbe60bf3d75ef465d3e404,0,98,98,97,1,onethree,,,,,,,,,,,,,,,,,,,,,,,,,,,,,,,,,,,,,,,,,,,,,,,,,,,,,,,,,,,,,,,,,,,,,,,,,,,,,,,,,,,,,,,,,,,,,,,,,,,,,,,,,,,,,,,,,,,,,,,,,,,,,,,,,,,,,,,,,,,,,,,,,,,,,,,,
,,,,,,5c472ac67379d8000112983d,62bbfa94b6566e598f2acc8b,2022-06-29_08h09.20.550,Colour_Asymmetry_Pilot,2022.1.3,Win32,59.52735282,62bbe60bf3d75ef465d3e404,0,99,99,144,1,onetwo,,,,,,,,,,,,,,,,,,,,,,,,,,,,,,,,,,,,,,,,,,,,,,,,,,,,,,,,,,,,,,,,,,,,,,,,,,,,,,,,,,,,,,,,,,,,,,,,,,,,,,,,,,,,,,,,,,,,,,,,,,,,,,,,,,,,,,,,,,,,,,,,,,,,,,,,
,,,,,,5c472ac67379d8000112983d,62bbfa94b6566e598f2acc8b,2022-06-29_08h09.20.550,Colour_Asymmetry_Pilot,2022.1.3,Win32,59.52735282,62bbe60bf3d75ef465d3e404,0,100,100,102,1,fourtwo,,,,,,,,,,,,,,,,,,,,,,,,,,,,,,,,,,,,,,,,,,,,,,,,,,,,,,,,,,,,,,,,,,,,,,,,,,,,,,,,,,,,,,,,,,,,,,,,,,,,,,,,,,,,,,,,,,,,,,,,,,,,,,,,,,,,,,,,,,,,,,,,,,,,,,,,
,,,,,,5c472ac67379d8000112983d,62bbfa94b6566e598f2acc8b,2022-06-29_08h09.20.550,Colour_Asymmetry_Pilot,2022.1.3,Win32,59.52735282,62bbe60bf3d75ef465d3e404,0,101,101,132,1,threeone,,,,,,,,,,,,,,,,,,,,,,,,,,,,,,,,,,,,,,,,,,,,,,,,,,,,,,,,,,,,,,,,,,,,,,,,,,,,,,,,,,,,,,,,,,,,,,,,,,,,,,,,,,,,,,,,,,,,,,,,,,,,,,,,,,,,,,,,,,,,,,,,,,,,,,,,
,,,,,,5c472ac67379d8000112983d,62bbfa94b6566e598f2acc8b,2022-06-29_08h09.20.550,Colour_Asymmetry_Pilot,2022.1.3,Win32,59.52735282,62bbe60bf3d75ef465d3e404,0,102,102,10,1,twoone,,,,,,,,,,,,,,,,,,,,,,,,,,,,,,,,,,,,,,,,,,,,,,,,,,,,,,,,,,,,,,,,,,,,,,,,,,,,,,,,,,,,,,,,,,,,,,,,,,,,,,,,,,,,,,,,,,,,,,,,,,,,,,,,,,,,,,,,,,,,,,,,,,,,,,,,
,,,,,,5c472ac67379d8000112983d,62bbfa94b6566e598f2acc8b,2022-06-29_08h09.20.550,Colour_Asymmetry_Pilot,2022.1.3,Win32,59.52735282,62bbe60bf3d75ef465d3e404,0,103,103,130,1,twoone,,,,,,,,,,,,,,,,,,,,,,,,,,,,,,,,,,,,,,,,,,,,,,,,,,,,,,,,,,,,,,,,,,,,,,,,,,,,,,,,,,,,,,,,,,,,,,,,,,,,,,,,,,,,,,,,,,,,,,,,,,,,,,,,,,,,,,,,,,,,,,,,,,,,,,,,
,,,,,,5c472ac67379d8000112983d,62bbfa94b6566e598f2acc8b,2022-06-29_08h09.20.550,Colour_Asymmetry_Pilot,2022.1.3,Win32,59.52735282,62bbe60bf3d75ef465d3e404,0,104,104,136,1,onetwo,,,,,,,,,,,,,,,,,,,,,,,,,,,,,,,,,,,,,,,,,,,,,,,,,,,,,,,,,,,,,,,,,,,,,,,,,,,,,,,,,,,,,,,,,,,,,,,,,,,,,,,,,,,,,,,,,,,,,,,,,,,,,,,,,,,,,,,,,,,,,,,,,,,,,,,,
,,,,,,5c472ac67379d8000112983d,62bbfa94b6566e598f2acc8b,2022-06-29_08h09.20.550,Colour_Asymmetry_Pilot,2022.1.3,Win32,59.52735282,62bbe60bf3d75ef465d3e404,0,105,105,41,1,onethree,,,,,,,,,,,,,,,,,,,,,,,,,,,,,,,,,,,,,,,,,,,,,,,,,,,,,,,,,,,,,,,,,,,,,,,,,,,,,,,,,,,,,,,,,,,,,,,,,,,,,,,,,,,,,,,,,,,,,,,,,,,,,,,,,,,,,,,,,,,,,,,,,,,,,,,,
,,,,,,5c472ac67379d8000112983d,62bbfa94b6566e598f2acc8b,2022-06-29_08h09.20.550,Colour_Asymmetry_Pilot,2022.1.3,Win32,59.52735282,62bbe60bf3d75ef465d3e404,0,106,106,55,1,fourthree,,,,,,,,,,,,,,,,,,,,,,,,,,,,,,,,,,,,,,,,,,,,,,,,,,,,,,,,,,,,,,,,,,,,,,,,,,,,,,,,,,,,,,,,,,,,,,,,,,,,,,,,,,,,,,,,,,,,,,,,,,,,,,,,,,,,,,,,,,,,,,,,,,,,,,,,
,,,,,,5c472ac67379d8000112983d,62bbfa94b6566e598f2acc8b,2022-06-29_08h09.20.550,Colour_Asymmetry_Pilot,2022.1.3,Win32,59.52735282,62bbe60bf3d75ef465d3e404,0,107,107,127,1,fourthree,,,,,,,,,,,,,,,,,,,,,,,,,,,,,,,,,,,,,,,,,,,,,,,,,,,,,,,,,,,,,,,,,,,,,,,,,,,,,,,,,,,,,,,,,,,,,,,,,,,,,,,,,,,,,,,,,,,,,,,,,,,,,,,,,,,,,,,,,,,,,,,,,,,,,,,,
,,,,,,5c472ac67379d8000112983d,62bbfa94b6566e598f2acc8b,2022-06-29_08h09.20.550,Colour_Asymmetry_Pilot,2022.1.3,Win32,59.52735282,62bbe60bf3d75ef465d3e404,0,108,108,23,1,fourthree,,,,,,,,,,,,,,,,,,,,,,,,,,,,,,,,,,,,,,,,,,,,,,,,,,,,,,,,,,,,,,,,,,,,,,,,,,,,,,,,,,,,,,,,,,,,,,,,,,,,,,,,,,,,,,,,,,,,,,,,,,,,,,,,,,,,,,,,,,,,,,,,,,,,,,,,
,,,,,,5c472ac67379d8000112983d,62bbfa94b6566e598f2acc8b,2022-06-29_08h09.20.550,Colour_Asymmetry_Pilot,2022.1.3,Win32,59.52735282,62bbe60bf3d75ef465d3e404,0,109,109,0,1,onetwo,,,,,,,,,,,,,,,,,,,,,,,,,,,,,,,,,,,,,,,,,,,,,,,,,,,,,,,,,,,,,,,,,,,,,,,,,,,,,,,,,,,,,,,,,,,,,,,,,,,,,,,,,,,,,,,,,,,,,,,,,,,,,,,,,,,,,,,,,,,,,,,,,,,,,,,,
,,,,,,5c472ac67379d8000112983d,62bbfa94b6566e598f2acc8b,2022-06-29_08h09.20.550,Colour_Asymmetry_Pilot,2022.1.3,Win32,59.52735282,62bbe60bf3d75ef465d3e404,0,110,110,126,1,fourtwo,,,,,,,,,,,,,,,,,,,,,,,,,,,,,,,,,,,,,,,,,,,,,,,,,,,,,,,,,,,,,,,,,,,,,,,,,,,,,,,,,,,,,,,,,,,,,,,,,,,,,,,,,,,,,,,,,,,,,,,,,,,,,,,,,,,,,,,,,,,,,,,,,,,,,,,,
,,,,,,5c472ac67379d8000112983d,62bbfa94b6566e598f2acc8b,2022-06-29_08h09.20.550,Colour_Asymmetry_Pilot,2022.1.3,Win32,59.52735282,62bbe60bf3d75ef465d3e404,0,111,111,50,1,twoone,,,,,,,,,,,,,,,,,,,,,,,,,,,,,,,,,,,,,,,,,,,,,,,,,,,,,,,,,,,,,,,,,,,,,,,,,,,,,,,,,,,,,,,,,,,,,,,,,,,,,,,,,,,,,,,,,,,,,,,,,,,,,,,,,,,,,,,,,,,,,,,,,,,,,,,,
,,,,,,5c472ac67379d8000112983d,62bbfa94b6566e598f2acc8b,2022-06-29_08h09.20.550,Colour_Asymmetry_Pilot,2022.1.3,Win32,59.52735282,62bbe60bf3d75ef465d3e404,0,112,112,56,1,onetwo,,,,,,,,,,,,,,,,,,,,,,,,,,,,,,,,,,,,,,,,,,,,,,,,,,,,,,,,,,,,,,,,,,,,,,,,,,,,,,,,,,,,,,,,,,,,,,,,,,,,,,,,,,,,,,,,,,,,,,,,,,,,,,,,,,,,,,,,,,,,,,,,,,,,,,,,
,,,,,,5c472ac67379d8000112983d,62bbfa94b6566e598f2acc8b,2022-06-29_08h09.20.550,Colour_Asymmetry_Pilot,2022.1.3,Win32,59.52735282,62bbe60bf3d75ef465d3e404,0,113,113,17,1,onethree,,,,,,,,,,,,,,,,,,,,,,,,,,,,,,,,,,,,,,,,,,,,,,,,,,,,,,,,,,,,,,,,,,,,,,,,,,,,,,,,,,,,,,,,,,,,,,,,,,,,,,,,,,,,,,,,,,,,,,,,,,,,,,,,,,,,,,,,,,,,,,,,,,,,,,,,
,,,,,,5c472ac67379d8000112983d,62bbfa94b6566e598f2acc8b,2022-06-29_08h09.20.550,Colour_Asymmetry_Pilot,2022.1.3,Win32,59.52735282,62bbe60bf3d75ef465d3e404,0,114,114,114,1,twoone,,,,,,,,,,,,,,,,,,,,,,,,,,,,,,,,,,,,,,,,,,,,,,,,,,,,,,,,,,,,,,,,,,,,,,,,,,,,,,,,,,,,,,,,,,,,,,,,,,,,,,,,,,,,,,,,,,,,,,,,,,,,,,,,,,,,,,,,,,,,,,,,,,,,,,,,
,,,,,,5c472ac67379d8000112983d,62bbfa94b6566e598f2acc8b,2022-06-29_08h09.20.550,Colour_Asymmetry_Pilot,2022.1.3,Win32,59.52735282,62bbe60bf3d75ef465d3e404,0,115,115,22,1,fourtwo,,,,,,,,,,,,,,,,,,,,,,,,,,,,,,,,,,,,,,,,,,,,,,,,,,,,,,,,,,,,,,,,,,,,,,,,,,,,,,,,,,,,,,,,,,,,,,,,,,,,,,,,,,,,,,,,,,,,,,,,,,,,,,,,,,,,,,,,,,,,,,,,,,,,,,,,
,,,,,,5c472ac67379d8000112983d,62bbfa94b6566e598f2acc8b,2022-06-29_08h09.20.550,Colour_Asymmetry_Pilot,2022.1.3,Win32,59.52735282,62bbe60bf3d75ef465d3e404,0,116,116,1,1,onethree,,,,,,,,,,,,,,,,,,,,,,,,,,,,,,,,,,,,,,,,,,,,,,,,,,,,,,,,,,,,,,,,,,,,,,,,,,,,,,,,,,,,,,,,,,,,,,,,,,,,,,,,,,,,,,,,,,,,,,,,,,,,,,,,,,,,,,,,,,,,,,,,,,,,,,,,
,,,,,,5c472ac67379d8000112983d,62bbfa94b6566e598f2acc8b,2022-06-29_08h09.20.550,Colour_Asymmetry_Pilot,2022.1.3,Win32,59.52735282,62bbe60bf3d75ef465d3e404,0,117,117,99,1,twofour,,,,,,,,,,,,,,,,,,,,,,,,,,,,,,,,,,,,,,,,,,,,,,,,,,,,,,,,,,,,,,,,,,,,,,,,,,,,,,,,,,,,,,,,,,,,,,,,,,,,,,,,,,,,,,,,,,,,,,,,,,,,,,,,,,,,,,,,,,,,,,,,,,,,,,,,
,,,,,,5c472ac67379d8000112983d,62bbfa94b6566e598f2acc8b,2022-06-29_08h09.20.550,Colour_Asymmetry_Pilot,2022.1.3,Win32,59.52735282,62bbe60bf3d75ef465d3e404,0,118,118,43,1,twofour,,,,,,,,,,,,,,,,,,,,,,,,,,,,,,,,,,,,,,,,,,,,,,,,,,,,,,,,,,,,,,,,,,,,,,,,,,,,,,,,,,,,,,,,,,,,,,,,,,,,,,,,,,,,,,,,,,,,,,,,,,,,,,,,,,,,,,,,,,,,,,,,,,,,,,,,
,,,,,,5c472ac67379d8000112983d,62bbfa94b6566e598f2acc8b,2022-06-29_08h09.20.550,Colour_Asymmetry_Pilot,2022.1.3,Win32,59.52735282,62bbe60bf3d75ef465d3e404,0,119,119,135,1,fourthree,,,,,,,,,,,,,,,,,,,,,,,,,,,,,,,,,,,,,,,,,,,,,,,,,,,,,,,,,,,,,,,,,,,,,,,,,,,,,,,,,,,,,,,,,,,,,,,,,,,,,,,,,,,,,,,,,,,,,,,,,,,,,,,,,,,,,,,,,,,,,,,,,,,,,,,,
,,,,,,5c472ac67379d8000112983d,62bbfa94b6566e598f2acc8b,2022-06-29_08h09.20.550,Colour_Asymmetry_Pilot,2022.1.3,Win32,59.52735282,62bbe60bf3d75ef465d3e404,0,120,120,11,1,twofour,,,,,,,,,,,,,,,,,,,,,,,,,,,,,,,,,,,,,,,,,,,,,,,,,,,,,,,,,,,,,,,,,,,,,,,,,,,,,,,,,,,,,,,,,,,,,,,,,,,,,,,,,,,,,,,,,,,,,,,,,,,,,,,,,,,,,,,,,,,,,,,,,,,,,,,,
,,,,,,5c472ac67379d8000112983d,62bbfa94b6566e598f2acc8b,2022-06-29_08h09.20.550,Colour_Asymmetry_Pilot,2022.1.3,Win32,59.52735282,62bbe60bf3d75ef465d3e404,0,121,121,88,1,onetwo,,,,,,,,,,,,,,,,,,,,,,,,,,,,,,,,,,,,,,,,,,,,,,,,,,,,,,,,,,,,,,,,,,,,,,,,,,,,,,,,,,,,,,,,,,,,,,,,,,,,,,,,,,,,,,,,,,,,,,,,,,,,,,,,,,,,,,,,,,,,,,,,,,,,,,,,
,,,,,,5c472ac67379d8000112983d,62bbfa94b6566e598f2acc8b,2022-06-29_08h09.20.550,Colour_Asymmetry_Pilot,2022.1.3,Win32,59.52735282,62bbe60bf3d75ef465d3e404,0,122,122,131,1,twofour,,,,,,,,,,,,,,,,,,,,,,,,,,,,,,,,,,,,,,,,,,,,,,,,,,,,,,,,,,,,,,,,,,,,,,,,,,,,,,,,,,,,,,,,,,,,,,,,,,,,,,,,,,,,,,,,,,,,,,,,,,,,,,,,,,,,,,,,,,,,,,,,,,,,,,,,
,,,,,,5c472ac67379d8000112983d,62bbfa94b6566e598f2acc8b,2022-06-29_08h09.20.550,Colour_Asymmetry_Pilot,2022.1.3,Win32,59.52735282,62bbe60bf3d75ef465d3e404,0,123,123,147,1,twofour,,,,,,,,,,,,,,,,,,,,,,,,,,,,,,,,,,,,,,,,,,,,,,,,,,,,,,,,,,,,,,,,,,,,,,,,,,,,,,,,,,,,,,,,,,,,,,,,,,,,,,,,,,,,,,,,,,,,,,,,,,,,,,,,,,,,,,,,,,,,,,,,,,,,,,,,
,,,,,,5c472ac67379d8000112983d,62bbfa94b6566e598f2acc8b,2022-06-29_08h09.20.550,Colour_Asymmetry_Pilot,2022.1.3,Win32,59.52735282,62bbe60bf3d75ef465d3e404,0,124,124,40,1,onetwo,,,,,,,,,,,,,,,,,,,,,,,,,,,,,,,,,,,,,,,,,,,,,,,,,,,,,,,,,,,,,,,,,,,,,,,,,,,,,,,,,,,,,,,,,,,,,,,,,,,,,,,,,,,,,,,,,,,,,,,,,,,,,,,,,,,,,,,,,,,,,,,,,,,,,,,,
,,,,,,5c472ac67379d8000112983d,62bbfa94b6566e598f2acc8b,2022-06-29_08h09.20.550,Colour_Asymmetry_Pilot,2022.1.3,Win32,59.52735282,62bbe60bf3d75ef465d3e404,0,125,125,91,1,twofour,,,,,,,,,,,,,,,,,,,,,,,,,,,,,,,,,,,,,,,,,,,,,,,,,,,,,,,,,,,,,,,,,,,,,,,,,,,,,,,,,,,,,,,,,,,,,,,,,,,,,,,,,,,,,,,,,,,,,,,,,,,,,,,,,,,,,,,,,,,,,,,,,,,,,,,,
,,,,,,5c472ac67379d8000112983d,62bbfa94b6566e598f2acc8b,2022-06-29_08h09.20.550,Colour_Asymmetry_Pilot,2022.1.3,Win32,59.52735282,62bbe60bf3d75ef465d3e404,0,126,126,18,1,twoone,,,,,,,,,,,,,,,,,,,,,,,,,,,,,,,,,,,,,,,,,,,,,,,,,,,,,,,,,,,,,,,,,,,,,,,,,,,,,,,,,,,,,,,,,,,,,,,,,,,,,,,,,,,,,,,,,,,,,,,,,,,,,,,,,,,,,,,,,,,,,,,,,,,,,,,,
,,,,,,5c472ac67379d8000112983d,62bbfa94b6566e598f2acc8b,2022-06-29_08h09.20.550,Colour_Asymmetry_Pilot,2022.1.3,Win32,59.52735282,62bbe60bf3d75ef465d3e404,0,127,127,42,1,twoone,,,,,,,,,,,,,,,,,,,,,,,,,,,,,,,,,,,,,,,,,,,,,,,,,,,,,,,,,,,,,,,,,,,,,,,,,,,,,,,,,,,,,,,,,,,,,,,,,,,,,,,,,,,,,,,,,,,,,,,,,,,,,,,,,,,,,,,,,,,,,,,,,,,,,,,,
,,,,,,5c472ac67379d8000112983d,62bbfa94b6566e598f2acc8b,2022-06-29_08h09.20.550,Colour_Asymmetry_Pilot,2022.1.3,Win32,59.52735282,62bbe60bf3d75ef465d3e404,0,128,128,54,1,fourtwo,,,,,,,,,,,,,,,,,,,,,,,,,,,,,,,,,,,,,,,,,,,,,,,,,,,,,,,,,,,,,,,,,,,,,,,,,,,,,,,,,,,,,,,,,,,,,,,,,,,,,,,,,,,,,,,,,,,,,,,,,,,,,,,,,,,,,,,,,,,,,,,,,,,,,,,,
,,,,,,5c472ac67379d8000112983d,62bbfa94b6566e598f2acc8b,2022-06-29_08h09.20.550,Colour_Asymmetry_Pilot,2022.1.3,Win32,59.52735282,62bbe60bf3d75ef465d3e404,0,129,129,117,1,threefour,,,,,,,,,,,,,,,,,,,,,,,,,,,,,,,,,,,,,,,,,,,,,,,,,,,,,,,,,,,,,,,,,,,,,,,,,,,,,,,,,,,,,,,,,,,,,,,,,,,,,,,,,,,,,,,,,,,,,,,,,,,,,,,,,,,,,,,,,,,,,,,,,,,,,,,,
,,,,,,5c472ac67379d8000112983d,62bbfa94b6566e598f2acc8b,2022-06-29_08h09.20.550,Colour_Asymmetry_Pilot,2022.1.3,Win32,59.52735282,62bbe60bf3d75ef465d3e404,0,130,130,78,1,fourtwo,,,,,,,,,,,,,,,,,,,,,,,,,,,,,,,,,,,,,,,,,,,,,,,,,,,,,,,,,,,,,,,,,,,,,,,,,,,,,,,,,,,,,,,,,,,,,,,,,,,,,,,,,,,,,,,,,,,,,,,,,,,,,,,,,,,,,,,,,,,,,,,,,,,,,,,,
,,,,,,5c472ac67379d8000112983d,62bbfa94b6566e598f2acc8b,2022-06-29_08h09.20.550,Colour_Asymmetry_Pilot,2022.1.3,Win32,59.52735282,62bbe60bf3d75ef465d3e404,0,131,131,134,1,fourtwo,,,,,,,,,,,,,,,,,,,,,,,,,,,,,,,,,,,,,,,,,,,,,,,,,,,,,,,,,,,,,,,,,,,,,,,,,,,,,,,,,,,,,,,,,,,,,,,,,,,,,,,,,,,,,,,,,,,,,,,,,,,,,,,,,,,,,,,,,,,,,,,,,,,,,,,,
,,,,,,5c472ac67379d8000112983d,62bbfa94b6566e598f2acc8b,2022-06-29_08h09.20.550,Colour_Asymmetry_Pilot,2022.1.3,Win32,59.52735282,62bbe60bf3d75ef465d3e404,0,132,132,138,1,twoone,,,,,,,,,,,,,,,,,,,,,,,,,,,,,,,,,,,,,,,,,,,,,,,,,,,,,,,,,,,,,,,,,,,,,,,,,,,,,,,,,,,,,,,,,,,,,,,,,,,,,,,,,,,,,,,,,,,,,,,,,,,,,,,,,,,,,,,,,,,,,,,,,,,,,,,,
,,,,,,5c472ac67379d8000112983d,62bbfa94b6566e598f2acc8b,2022-06-29_08h09.20.550,Colour_Asymmetry_Pilot,2022.1.3,Win32,59.52735282,62bbe60bf3d75ef465d3e404,0,133,133,123,1,twofour,,,,,,,,,,,,,,,,,,,,,,,,,,,,,,,,,,,,,,,,,,,,,,,,,,,,,,,,,,,,,,,,,,,,,,,,,,,,,,,,,,,,,,,,,,,,,,,,,,,,,,,,,,,,,,,,,,,,,,,,,,,,,,,,,,,,,,,,,,,,,,,,,,,,,,,,
,,,,,,5c472ac67379d8000112983d,62bbfa94b6566e598f2acc8b,2022-06-29_08h09.20.550,Colour_Asymmetry_Pilot,2022.1.3,Win32,59.52735282,62bbe60bf3d75ef465d3e404,0,134,134,119,1,fourthree,,,,,,,,,,,,,,,,,,,,,,,,,,,,,,,,,,,,,,,,,,,,,,,,,,,,,,,,,,,,,,,,,,,,,,,,,,,,,,,,,,,,,,,,,,,,,,,,,,,,,,,,,,,,,,,,,,,,,,,,,,,,,,,,,,,,,,,,,,,,,,,,,,,,,,,,
,,,,,,5c472ac67379d8000112983d,62bbfa94b6566e598f2acc8b,2022-06-29_08h09.20.550,Colour_Asymmetry_Pilot,2022.1.3,Win32,59.52735282,62bbe60bf3d75ef465d3e404,0,135,135,86,1,fourtwo,,,,,,,,,,,,,,,,,,,,,,,,,,,,,,,,,,,,,,,,,,,,,,,,,,,,,,,,,,,,,,,,,,,,,,,,,,,,,,,,,,,,,,,,,,,,,,,,,,,,,,,,,,,,,,,,,,,,,,,,,,,,,,,,,,,,,,,,,,,,,,,,,,,,,,,,
,,,,,,5c472ac67379d8000112983d,62bbfa94b6566e598f2acc8b,2022-06-29_08h09.20.550,Colour_Asymmetry_Pilot,2022.1.3,Win32,59.52735282,62bbe60bf3d75ef465d3e404,0,136,136,77,1,threefour,,,,,,,,,,,,,,,,,,,,,,,,,,,,,,,,,,,,,,,,,,,,,,,,,,,,,,,,,,,,,,,,,,,,,,,,,,,,,,,,,,,,,,,,,,,,,,,,,,,,,,,,,,,,,,,,,,,,,,,,,,,,,,,,,,,,,,,,,,,,,,,,,,,,,,,,
,,,,,,5c472ac67379d8000112983d,62bbfa94b6566e598f2acc8b,2022-06-29_08h09.20.550,Colour_Asymmetry_Pilot,2022.1.3,Win32,59.52735282,62bbe60bf3d75ef465d3e404,0,137,137,64,1,onetwo,,,,,,,,,,,,,,,,,,,,,,,,,,,,,,,,,,,,,,,,,,,,,,,,,,,,,,,,,,,,,,,,,,,,,,,,,,,,,,,,,,,,,,,,,,,,,,,,,,,,,,,,,,,,,,,,,,,,,,,,,,,,,,,,,,,,,,,,,,,,,,,,,,,,,,,,
,,,,,,5c472ac67379d8000112983d,62bbfa94b6566e598f2acc8b,2022-06-29_08h09.20.550,Colour_Asymmetry_Pilot,2022.1.3,Win32,59.52735282,62bbe60bf3d75ef465d3e404,0,138,138,106,1,twoone,,,,,,,,,,,,,,,,,,,,,,,,,,,,,,,,,,,,,,,,,,,,,,,,,,,,,,,,,,,,,,,,,,,,,,,,,,,,,,,,,,,,,,,,,,,,,,,,,,,,,,,,,,,,,,,,,,,,,,,,,,,,,,,,,,,,,,,,,,,,,,,,,,,,,,,,
,,,,,,5c472ac67379d8000112983d,62bbfa94b6566e598f2acc8b,2022-06-29_08h09.20.550,Colour_Asymmetry_Pilot,2022.1.3,Win32,59.52735282,62bbe60bf3d75ef465d3e404,0,139,139,92,1,threeone,,,,,,,,,,,,,,,,,,,,,,,,,,,,,,,,,,,,,,,,,,,,,,,,,,,,,,,,,,,,,,,,,,,,,,,,,,,,,,,,,,,,,,,,,,,,,,,,,,,,,,,,,,,,,,,,,,,,,,,,,,,,,,,,,,,,,,,,,,,,,,,,,,,,,,,,
,,,,,,5c472ac67379d8000112983d,62bbfa94b6566e598f2acc8b,2022-06-29_08h09.20.550,Colour_Asymmetry_Pilot,2022.1.3,Win32,59.52735282,62bbe60bf3d75ef465d3e404,0,140,140,8,1,onetwo,,,,,,,,,,,,,,,,,,,,,,,,,,,,,,,,,,,,,,,,,,,,,,,,,,,,,,,,,,,,,,,,,,,,,,,,,,,,,,,,,,,,,,,,,,,,,,,,,,,,,,,,,,,,,,,,,,,,,,,,,,,,,,,,,,,,,,,,,,,,,,,,,,,,,,,,
,,,,,,5c472ac67379d8000112983d,62bbfa94b6566e598f2acc8b,2022-06-29_08h09.20.550,Colour_Asymmetry_Pilot,2022.1.3,Win32,59.52735282,62bbe60bf3d75ef465d3e404,0,141,141,52,1,threeone,,,,,,,,,,,,,,,,,,,,,,,,,,,,,,,,,,,,,,,,,,,,,,,,,,,,,,,,,,,,,,,,,,,,,,,,,,,,,,,,,,,,,,,,,,,,,,,,,,,,,,,,,,,,,,,,,,,,,,,,,,,,,,,,,,,,,,,,,,,,,,,,,,,,,,,,
,,,,,,5c472ac67379d8000112983d,62bbfa94b6566e598f2acc8b,2022-06-29_08h09.20.550,Colour_Asymmetry_Pilot,2022.1.3,Win32,59.52735282,62bbe60bf3d75ef465d3e404,0,142,142,72,1,onetwo,,,,,,,,,,,,,,,,,,,,,,,,,,,,,,,,,,,,,,,,,,,,,,,,,,,,,,,,,,,,,,,,,,,,,,,,,,,,,,,,,,,,,,,,,,,,,,,,,,,,,,,,,,,,,,,,,,,,,,,,,,,,,,,,,,,,,,,,,,,,,,,,,,,,,,,,
,,,,,,5c472ac67379d8000112983d,62bbfa94b6566e598f2acc8b,2022-06-29_08h09.20.550,Colour_Asymmetry_Pilot,2022.1.3,Win32,59.52735282,62bbe60bf3d75ef465d3e404,0,143,143,153,1,onethree,,,,,,,,,,,,,,,,,,,,,,,,,,,,,,,,,,,,,,,,,,,,,,,,,,,,,,,,,,,,,,,,,,,,,,,,,,,,,,,,,,,,,,,,,,,,,,,,,,,,,,,,,,,,,,,,,,,,,,,,,,,,,,,,,,,,,,,,,,,,,,,,,,,,,,,,
,,,,,,5c472ac67379d8000112983d,62bbfa94b6566e598f2acc8b,2022-06-29_08h09.20.550,Colour_Asymmetry_Pilot,2022.1.3,Win32,59.52735282,62bbe60bf3d75ef465d3e404,0,144,144,161,1,onethree,,,,,,,,,,,,,,,,,,,,,,,,,,,,,,,,,,,,,,,,,,,,,,,,,,,,,,,,,,,,,,,,,,,,,,,,,,,,,,,,,,,,,,,,,,,,,,,,,,,,,,,,,,,,,,,,,,,,,,,,,,,,,,,,,,,,,,,,,,,,,,,,,,,,,,,,
,,,,,,5c472ac67379d8000112983d,62bbfa94b6566e598f2acc8b,2022-06-29_08h09.20.550,Colour_Asymmetry_Pilot,2022.1.3,Win32,59.52735282,62bbe60bf3d75ef465d3e404,0,145,145,26,1,twoone,,,,,,,,,,,,,,,,,,,,,,,,,,,,,,,,,,,,,,,,,,,,,,,,,,,,,,,,,,,,,,,,,,,,,,,,,,,,,,,,,,,,,,,,,,,,,,,,,,,,,,,,,,,,,,,,,,,,,,,,,,,,,,,,,,,,,,,,,,,,,,,,,,,,,,,,
,,,,,,5c472ac67379d8000112983d,62bbfa94b6566e598f2acc8b,2022-06-29_08h09.20.550,Colour_Asymmetry_Pilot,2022.1.3,Win32,59.52735282,62bbe60bf3d75ef465d3e404,0,146,146,75,1,twofour,,,,,,,,,,,,,,,,,,,,,,,,,,,,,,,,,,,,,,,,,,,,,,,,,,,,,,,,,,,,,,,,,,,,,,,,,,,,,,,,,,,,,,,,,,,,,,,,,,,,,,,,,,,,,,,,,,,,,,,,,,,,,,,,,,,,,,,,,,,,,,,,,,,,,,,,
,,,,,,5c472ac67379d8000112983d,62bbfa94b6566e598f2acc8b,2022-06-29_08h09.20.550,Colour_Asymmetry_Pilot,2022.1.3,Win32,59.52735282,62bbe60bf3d75ef465d3e404,0,147,147,13,1,threefour,,,,,,,,,,,,,,,,,,,,,,,,,,,,,,,,,,,,,,,,,,,,,,,,,,,,,,,,,,,,,,,,,,,,,,,,,,,,,,,,,,,,,,,,,,,,,,,,,,,,,,,,,,,,,,,,,,,,,,,,,,,,,,,,,,,,,,,,,,,,,,,,,,,,,,,,
,,,,,,5c472ac67379d8000112983d,62bbfa94b6566e598f2acc8b,2022-06-29_08h09.20.550,Colour_Asymmetry_Pilot,2022.1.3,Win32,59.52735282,62bbe60bf3d75ef465d3e404,0,148,148,94,1,fourtwo,,,,,,,,,,,,,,,,,,,,,,,,,,,,,,,,,,,,,,,,,,,,,,,,,,,,,,,,,,,,,,,,,,,,,,,,,,,,,,,,,,,,,,,,,,,,,,,,,,,,,,,,,,,,,,,,,,,,,,,,,,,,,,,,,,,,,,,,,,,,,,,,,,,,,,,,
,,,,,,5c472ac67379d8000112983d,62bbfa94b6566e598f2acc8b,2022-06-29_08h09.20.550,Colour_Asymmetry_Pilot,2022.1.3,Win32,59.52735282,62bbe60bf3d75ef465d3e404,0,149,149,140,1,threeone,,,,,,,,,,,,,,,,,,,,,,,,,,,,,,,,,,,,,,,,,,,,,,,,,,,,,,,,,,,,,,,,,,,,,,,,,,,,,,,,,,,,,,,,,,,,,,,,,,,,,,,,,,,,,,,,,,,,,,,,,,,,,,,,,,,,,,,,,,,,,,,,,,,,,,,,
,,,,,,5c472ac67379d8000112983d,62bbfa94b6566e598f2acc8b,2022-06-29_08h09.20.550,Colour_Asymmetry_Pilot,2022.1.3,Win32,59.52735282,62bbe60bf3d75ef465d3e404,0,150,150,36,1,threeone,,,,,,,,,,,,,,,,,,,,,,,,,,,,,,,,,,,,,,,,,,,,,,,,,,,,,,,,,,,,,,,,,,,,,,,,,,,,,,,,,,,,,,,,,,,,,,,,,,,,,,,,,,,,,,,,,,,,,,,,,,,,,,,,,,,,,,,,,,,,,,,,,,,,,,,,
,,,,,,5c472ac67379d8000112983d,62bbfa94b6566e598f2acc8b,2022-06-29_08h09.20.550,Colour_Asymmetry_Pilot,2022.1.3,Win32,59.52735282,62bbe60bf3d75ef465d3e404,0,151,151,7,1,fourthree,,,,,,,,,,,,,,,,,,,,,,,,,,,,,,,,,,,,,,,,,,,,,,,,,,,,,,,,,,,,,,,,,,,,,,,,,,,,,,,,,,,,,,,,,,,,,,,,,,,,,,,,,,,,,,,,,,,,,,,,,,,,,,,,,,,,,,,,,,,,,,,,,,,,,,,,
,,,,,,5c472ac67379d8000112983d,62bbfa94b6566e598f2acc8b,2022-06-29_08h09.20.550,Colour_Asymmetry_Pilot,2022.1.3,Win32,59.52735282,62bbe60bf3d75ef465d3e404,0,152,152,110,1,fourtwo,,,,,,,,,,,,,,,,,,,,,,,,,,,,,,,,,,,,,,,,,,,,,,,,,,,,,,,,,,,,,,,,,,,,,,,,,,,,,,,,,,,,,,,,,,,,,,,,,,,,,,,,,,,,,,,,,,,,,,,,,,,,,,,,,,,,,,,,,,,,,,,,,,,,,,,,
,,,,,,5c472ac67379d8000112983d,62bbfa94b6566e598f2acc8b,2022-06-29_08h09.20.550,Colour_Asymmetry_Pilot,2022.1.3,Win32,59.52735282,62bbe60bf3d75ef465d3e404,0,153,153,152,1,onetwo,,,,,,,,,,,,,,,,,,,,,,,,,,,,,,,,,,,,,,,,,,,,,,,,,,,,,,,,,,,,,,,,,,,,,,,,,,,,,,,,,,,,,,,,,,,,,,,,,,,,,,,,,,,,,,,,,,,,,,,,,,,,,,,,,,,,,,,,,,,,,,,,,,,,,,,,
,,,,,,5c472ac67379d8000112983d,62bbfa94b6566e598f2acc8b,2022-06-29_08h09.20.550,Colour_Asymmetry_Pilot,2022.1.3,Win32,59.52735282,62bbe60bf3d75ef465d3e404,0,154,154,83,1,twofour,,,,,,,,,,,,,,,,,,,,,,,,,,,,,,,,,,,,,,,,,,,,,,,,,,,,,,,,,,,,,,,,,,,,,,,,,,,,,,,,,,,,,,,,,,,,,,,,,,,,,,,,,,,,,,,,,,,,,,,,,,,,,,,,,,,,,,,,,,,,,,,,,,,,,,,,
,,,,,,5c472ac67379d8000112983d,62bbfa94b6566e598f2acc8b,2022-06-29_08h09.20.550,Colour_Asymmetry_Pilot,2022.1.3,Win32,59.52735282,62bbe60bf3d75ef465d3e404,0,155,155,100,1,threeone,,,,,,,,,,,,,,,,,,,,,,,,,,,,,,,,,,,,,,,,,,,,,,,,,,,,,,,,,,,,,,,,,,,,,,,,,,,,,,,,,,,,,,,,,,,,,,,,,,,,,,,,,,,,,,,,,,,,,,,,,,,,,,,,,,,,,,,,,,,,,,,,,,,,,,,,
,,,,,,5c472ac67379d8000112983d,62bbfa94b6566e598f2acc8b,2022-06-29_08h09.20.550,Colour_Asymmetry_Pilot,2022.1.3,Win32,59.52735282,62bbe60bf3d75ef465d3e404,0,156,156,158,1,fourtwo,,,,,,,,,,,,,,,,,,,,,,,,,,,,,,,,,,,,,,,,,,,,,,,,,,,,,,,,,,,,,,,,,,,,,,,,,,,,,,,,,,,,,,,,,,,,,,,,,,,,,,,,,,,,,,,,,,,,,,,,,,,,,,,,,,,,,,,,,,,,,,,,,,,,,,,,
,,,,,,5c472ac67379d8000112983d,62bbfa94b6566e598f2acc8b,2022-06-29_08h09.20.550,Colour_Asymmetry_Pilot,2022.1.3,Win32,59.52735282,62bbe60bf3d75ef465d3e404,0,157,157,31,1,fourthree,,,,,,,,,,,,,,,,,,,,,,,,,,,,,,,,,,,,,,,,,,,,,,,,,,,,,,,,,,,,,,,,,,,,,,,,,,,,,,,,,,,,,,,,,,,,,,,,,,,,,,,,,,,,,,,,,,,,,,,,,,,,,,,,,,,,,,,,,,,,,,,,,,,,,,,,
,,,,,,5c472ac67379d8000112983d,62bbfa94b6566e598f2acc8b,2022-06-29_08h09.20.550,Colour_Asymmetry_Pilot,2022.1.3,Win32,59.52735282,62bbe60bf3d75ef465d3e404,0,158,158,66,1,twoone,,,,,,,,,,,,,,,,,,,,,,,,,,,,,,,,,,,,,,,,,,,,,,,,,,,,,,,,,,,,,,,,,,,,,,,,,,,,,,,,,,,,,,,,,,,,,,,,,,,,,,,,,,,,,,,,,,,,,,,,,,,,,,,,,,,,,,,,,,,,,,,,,,,,,,,,
,,,,,,5c472ac67379d8000112983d,62bbfa94b6566e598f2acc8b,2022-06-29_08h09.20.550,Colour_Asymmetry_Pilot,2022.1.3,Win32,59.52735282,62bbe60bf3d75ef465d3e404,0,159,159,89,1,onethree,,,,,,,,,,,,,,,,,,,,,,,,,,,,,,,,,,,,,,,,,,,,,,,,,,,,,,,,,,,,,,,,,,,,,,,,,,,,,,,,,,,,,,,,,,,,,,,,,,,,,,,,,,,,,,,,,,,,,,,,,,,,,,,,,,,,,,,,,,,,,,,,,,,,,,,,
,,,,,,5c472ac67379d8000112983d,62bbfa94b6566e598f2acc8b,2022-06-29_08h09.20.550,Colour_Asymmetry_Pilot,2022.1.3,Win32,59.52735282,62bbe60bf3d75ef465d3e404,0,160,160,146,1,twoone,,,,,,,,,,,,,,,,,,,,,,,,,,,,,,,,,,,,,,,,,,,,,,,,,,,,,,,,,,,,,,,,,,,,,,,,,,,,,,,,,,,,,,,,,,,,,,,,,,,,,,,,,,,,,,,,,,,,,,,,,,,,,,,,,,,,,,,,,,,,,,,,,,,,,,,,
,,,,,,5c472ac67379d8000112983d,62bbfa94b6566e598f2acc8b,2022-06-29_08h09.20.550,Colour_Asymmetry_Pilot,2022.1.3,Win32,59.52735282,62bbe60bf3d75ef465d3e404,0,161,161,113,1,onethree,,,,,,,,,,,,,,,,,,,,,,,,,,,,,,,,,,,,,,,,,,,,,,,,,,,,,,,,,,,,,,,,,,,,,,,,,,,,,,,,,,,,,,,,,,,,,,,,,,,,,,,,,,,,,,,,,,,,,,,,,,,,,,,,,,,,,,,,,,,,,,,,,,,,,,,,
,,,,,,5c472ac67379d8000112983d,62bbfa94b6566e598f2acc8b,2022-06-29_08h09.20.550,Colour_Asymmetry_Pilot,2022.1.3,Win32,59.52735282,62bbe60bf3d75ef465d3e404,,,,,,,space,2.1169,space,12.0256,space,56.8855,space,15.6345,space,8.0917,space,3.5928,"[0.23920000000000008,0.2704,0.16060000000000008]",twofour,"[-0.4902000000000001,0.2704,-0.45899999999999996]",3,6.0873,92,30.66665649,1,0,0,response1disk_5,4,0.666656494,1,0,0,rectangle_8,76.66668701,28,1,0,0,response1disk_7,6,3,5.333374023,-0.666687012,1,0,0,rectangle_4,0,0,0,0,1,,,,,,,,,,,,,,,,,,,,,,,,,,,,,,,,,,,,,,,,,,,,,,,,,,,,,,,,,,,,,,,,,,,,,,,,,,,,,,,,,,,,,,,,,,,,,,,,,,,,,,,,
,,,,,,5c472ac67379d8000112983d,62bbfa94b6566e598f2acc8b,2022-06-29_08h09.20.550,Colour_Asymmetry_Pilot,2022.1.3,Win32,59.52735282,62bbe60bf3d75ef465d3e404,,,,,,,,,,,,,,,,,,,"[-0.6235999999999999,-0.6786,-0.08239999999999992]",threefour,"[0.9842,0.7409999999999999,-0.6628000000000001]",-4,7.6492,-32,49.33331299,1,0,0,response7disk_5,6,-4.666687012,1,0,0,rectangle_8,78.66668701,16.66665649,1,0,0,response1disk_7,6,3,6.666687012,1.333312988,1,0,0,rectangle_4,1,0,1,0,1,,,,,,,,,,,,,,,,,,,,,,,,,,,,,,,,,,,,,,,,,,,,,,,,,,,,,,,,,,,,,,,,,,,,,,,,,,,,,,,,,,,,,,,,,,,,,,,,,,,,,,,,
,,,,,,5c472ac67379d8000112983d,62bbfa94b6566e598f2acc8b,2022-06-29_08h09.20.550,Colour_Asymmetry_Pilot,2022.1.3,Win32,59.52735282,62bbe60bf3d75ef465d3e404,,,,,,,,,,,,,,,,,,,"[-0.24719999999999998,-0.0354000000000001,0.3175999999999999]",threefour,"[-0.17659999999999998,0.3253999999999999,0.19999999999999996]",3,2.9645,47.33337402,28.66665649,1,0,0,response1disk_5,-2.666625977,-4.666687012,1,0,0,rectangle_8,-2.666625977,-4.666687012,1,0,0,,,3,-2.666625977,-4.666687012,1,0,0,,2,0,2,0,1,,,,,,,,,,,,,,,,,,,,,,,,,,,,,,,,,,,,,,,,,,,,,,,,,,,,,,,,,,,,,,,,,,,,,,,,,,,,,,,,,,,,,,,,,,,,,,,,,,,,,,,,
,,,,,,5c472ac67379d8000112983d,62bbfa94b6566e598f2acc8b,2022-06-29_08h09.20.550,Colour_Asymmetry_Pilot,2022.1.3,Win32,59.52735282,62bbe60bf3d75ef465d3e404,,,,,,,,,,,,,,,,,,,"[-0.9688,-0.4902000000000001,-0.12159999999999993]",fourthree,"[0.11359999999999992,0.6312,0.5213999999999999]",-2,6.7615,-59.33331299,-43.33334351,1,0,0,response5disk_5,6,-3.333343506,1,0,0,rectangle_8,6,-3.333343506,1,0,0,,,3,6,-3.333343506,1,0,0,,3,0,3,0,1,,,,,,,,,,,,,,,,,,,,,,,,,,,,,,,,,,,,,,,,,,,,,,,,,,,,,,,,,,,,,,,,,,,,,,,,,,,,,,,,,,,,,,,,,,,,,,,,,,,,,,,,
,,,,,,5c472ac67379d8000112983d,62bbfa94b6566e598f2acc8b,2022-06-29_08h09.20.550,Colour_Asymmetry_Pilot,2022.1.3,Win32,59.52735282,62bbe60bf3d75ef465d3e404,,,,,,,,,,,,,,,,,,,"[0.3802000000000001,0.19199999999999995,-0.6394]",fourthree,"[-0.9138,-0.5296000000000001,-0.5529999999999999]",-4,4.9127,-32.66662598,60.66665649,1,0,0,response7disk_5,-5.333312988,-6,1,0,0,rectangle_8,-5.333312988,-6,1,0,0,,,3,-5.333312988,-6,1,0,0,,4,0,4,0,1,,,,,,,,,,,,,,,,,,,,,,,,,,,,,,,,,,,,,,,,,,,,,,,,,,,,,,,,,,,,,,,,,,,,,,,,,,,,,,,,,,,,,,,,,,,,,,,,,,,,,,,,
,,,,,,5c472ac67379d8000112983d,62bbfa94b6566e598f2acc8b,2022-06-29_08h09.20.550,Colour_Asymmetry_Pilot,2022.1.3,Win32,59.52735282,62bbe60bf3d75ef465d3e404,,,,,,,,,,,,,,,,,,,"[-0.26280000000000003,-0.4746,-0.2158]",fourthree,"[-0.5452,-0.608,0.2470000000000001]",-4,4.5631,-30.66662598,68.66665649,1,0,0,response7disk_5,3.333374023,0,1,0,0,rectangle_8,3.333374023,0,1,0,0,,,3,3.333374023,0,1,0,0,,5,0,5,0,1,,,,,,,,,,,,,,,,,,,,,,,,,,,,,,,,,,,,,,,,,,,,,,,,,,,,,,,,,,,,,,,,,,,,,,,,,,,,,,,,,,,,,,,,,,,,,,,,,,,,,,,,
,,,,,,5c472ac67379d8000112983d,62bbfa94b6566e598f2acc8b,2022-06-29_08h09.20.550,Colour_Asymmetry_Pilot,2022.1.3,Win32,59.52735282,62bbe60bf3d75ef465d3e404,,,,,,,,,,,,,,,,,,,"[-0.6706000000000001,-0.6157999999999999,-0.6786]",threeone,"[-0.8982,-0.37259999999999993,0.2784]",-4,1.9653,-25.33331299,57.33331299,1,0,0,response7disk_5,-2,5.333312988,1,0,0,rectangle_8,-2,5.333312988,1,0,0,,,3,-2,5.333312988,1,0,0,,6,0,6,0,1,,,,,,,,,,,,,,,,,,,,,,,,,,,,,,,,,,,,,,,,,,,,,,,,,,,,,,,,,,,,,,,,,,,,,,,,,,,,,,,,,,,,,,,,,,,,,,,,,,,,,,,,
,,,,,,5c472ac67379d8000112983d,62bbfa94b6566e598f2acc8b,2022-06-29_08h09.20.550,Colour_Asymmetry_Pilot,2022.1.3,Win32,59.52735282,62bbe60bf3d75ef465d3e404,,,,,,,,,,,,,,,,,,,,twofour,,-4,1.8825,,,,,,,,,,,,,,,,,,,,,,,,,,,,,,,,space,6.1534,"[-0.2942,-0.24719999999999998,-0.357]","[0.0351999999999999,0.41159999999999997,0.0038000000000000256]",-44,70,1,0,0,response7disk,2,-2.666687012,1,0,0,rectangle,2,-2.666687012,1,0,0,,1,0.0029,0,2,-2.666687012,1,0,0,0,0,0,134,1,53,second,,,,,,,,,,,,,,,,,,,,,,,,,,,,,,,,,,,,,,,,,,,,,,,,,,,,,,,,,,,,,,,,,,,
,,,,,,5c472ac67379d8000112983d,62bbfa94b6566e598f2acc8b,2022-06-29_08h09.20.550,Colour_Asymmetry_Pilot,2022.1.3,Win32,59.52735282,62bbe60bf3d75ef465d3e404,,,,,,,,,,,,,,,,,,,,fourthree,,-4,3.0309,,,,,,,,,,,,,,,,,,,,,,,,,,,,,,,,,,"[0.3881999999999999,-0.23939999999999995,-0.05040000000000011]","[-0.4902000000000001,0.2704,-0.45899999999999996]",-38,62.66665649,1,0,0,response7disk,-12,2,1,0,0,rectangle,-12,2,1,0,0,,3,0.0032,0,-12,2,1,0,0,0,1,1,125,1,44,second,,,,,,,,,,,,,,,,,,,,,,,,,,,,,,,,,,,,,,,,,,,,,,,,,,,,,,,,,,,,,,,,,,,
,,,,,,5c472ac67379d8000112983d,62bbfa94b6566e598f2acc8b,2022-06-29_08h09.20.550,Colour_Asymmetry_Pilot,2022.1.3,Win32,59.52735282,62bbe60bf3d75ef465d3e404,,,,,,,,,,,,,,,,,,,,onethree,,-3,1.4487,,,,,,,,,,,,,,,,,,,,,,,,,,,,,,,,,,"[0.37240000000000006,0.4980000000000002,-0.2864]","[0.9842,0.7409999999999999,-0.6628000000000001]",-51.33331299,18.66665649,1,0,0,response7disk,-6.666625977,2.666656494,1,0,0,rectangle,-6.666625977,2.666656494,1,0,0,,1,0.0044,0,-6.666625977,2.666656494,1,0,0,0,2,2,63,1,63,first,,,,,,,,,,,,,,,,,,,,,,,,,,,,,,,,,,,,,,,,,,,,,,,,,,,,,,,,,,,,,,,,,,,
,,,,,,5c472ac67379d8000112983d,62bbfa94b6566e598f2acc8b,2022-06-29_08h09.20.550,Colour_Asymmetry_Pilot,2022.1.3,Win32,59.52735282,62bbe60bf3d75ef465d3e404,,,,,,,,,,,,,,,,,,,,fourthree,,-4,1.2323,,,,,,,,,,,,,,,,,,,,,,,,,,,,,,,,,,"[0.30180000000000007,-0.7884,-0.9844]","[0.2862,0.7802,0.3568]",-28,54,1,0,0,response7disk,-10,6.666656494,1,0,0,rectangle,-10,6.666656494,1,0,0,,2,0.0039,0,-10,6.666656494,1,0,0,0,3,3,139,1,58,second,,,,,,,,,,,,,,,,,,,,,,,,,,,,,,,,,,,,,,,,,,,,,,,,,,,,,,,,,,,,,,,,,,,
,,,,,,5c472ac67379d8000112983d,62bbfa94b6566e598f2acc8b,2022-06-29_08h09.20.550,Colour_Asymmetry_Pilot,2022.1.3,Win32,59.52735282,62bbe60bf3d75ef465d3e404,,,,,,,,,,,,,,,,,,,,onethree,,-4,1.4984,,,,,,,,,,,,,,,,,,,,,,,,,,,,,,,,,,"[-0.8118,-0.8198,-0.5452]","[-0.4276,0.0038000000000000256,-0.3256]",-26.66662598,51.33331299,1,0,0,response7disk,-5.333312988,2,1,0,0,rectangle,-5.333312988,2,1,0,0,,2,0.0005,0,-5.333312988,2,1,0,0,0,4,4,103,1,22,second,,,,,,,,,,,,,,,,,,,,,,,,,,,,,,,,,,,,,,,,,,,,,,,,,,,,,,,,,,,,,,,,,,,
,,,,,,5c472ac67379d8000112983d,62bbfa94b6566e598f2acc8b,2022-06-29_08h09.20.550,Colour_Asymmetry_Pilot,2022.1.3,Win32,59.52735282,62bbe60bf3d75ef465d3e404,,,,,,,,,,,,,,,,,,,,threeone,,-4,2.4308,,,,,,,,,,,,,,,,,,,,,,,,,,,,,,,,,,"[-0.48240000000000005,0.3175999999999999,0.2156]","[-0.01980000000000004,-0.5138,-0.38039999999999996]",-30,56.66665649,1,0,0,response7disk,-6,3.333312988,1,0,0,rectangle,-6,3.333312988,1,0,0,,1,0.0034,0,-6,3.333312988,1,0,0,0,5,5,124,1,43,second,,,,,,,,,,,,,,,,,,,,,,,,,,,,,,,,,,,,,,,,,,,,,,,,,,,,,,,,,,,,,,,,,,,
,,,,,,5c472ac67379d8000112983d,62bbfa94b6566e598f2acc8b,2022-06-29_08h09.20.550,Colour_Asymmetry_Pilot,2022.1.3,Win32,59.52735282,62bbe60bf3d75ef465d3e404,,,,,,,,,,,,,,,,,,,,fourtwo,,3,3.4969,,,,,,,,,,,,,,,,,,,,,,,,,,,,,,,,,,"[0.09799999999999986,-0.24719999999999998,0.15280000000000005]","[0.19199999999999995,0.18419999999999992,0.5136000000000001]",54.66668701,30,1,0,0,response1disk,10,-2,1,0,0,rectangle,10,-2,1,0,0,,2,0.0034,0,10,-2,1,0,0,0,6,6,59,1,59,first,,,,,,,,,,,,,,,,,,,,,,,,,,,,,,,,,,,,,,,,,,,,,,,,,,,,,,,,,,,,,,,,,,,
,,,,,,5c472ac67379d8000112983d,62bbfa94b6566e598f2acc8b,2022-06-29_08h09.20.550,Colour_Asymmetry_Pilot,2022.1.3,Win32,59.52735282,62bbe60bf3d75ef465d3e404,,,,,,,,,,,,,,,,,,,,threeone,,-3,1.2527,,,,,,,,,,,,,,,,,,,,,,,,,,,,,,,,,,"[0.3802000000000001,0.19199999999999995,-0.6394]","[0.18419999999999992,-0.4276,-0.404]",-62,24.66665649,1,0,0,response7disk,-4,0,1,0,0,rectangle,-4,0,1,0,0,,3,0.0028,0,-4,0,1,0,0,0,7,7,147,1,66,second,,,,,,,,,,,,,,,,,,,,,,,,,,,,,,,,,,,,,,,,,,,,,,,,,,,,,,,,,,,,,,,,,,,
,,,,,,5c472ac67379d8000112983d,62bbfa94b6566e598f2acc8b,2022-06-29_08h09.20.550,Colour_Asymmetry_Pilot,2022.1.3,Win32,59.52735282,62bbe60bf3d75ef465d3e404,,,,,,,,,,,,,,,,,,,,onethree,,-4,1.0494,,,,,,,,,,,,,,,,,,,,,,,,,,,,,,,,,,"[0.8274000000000001,-0.5844,-0.9452]","[-0.9766,-0.6472,0.07440000000000002]",-26.66662598,54,1,0,0,response7disk,-8.666625977,2.666656494,1,0,0,rectangle,-8.666625977,2.666656494,1,0,0,,3,0.0003,0,-8.666625977,2.666656494,1,0,0,0,8,8,28,1,28,first,,,,,,,,,,,,,,,,,,,,,,,,,,,,,,,,,,,,,,,,,,,,,,,,,,,,,,,,,,,,,,,,,,,
,,,,,,5c472ac67379d8000112983d,62bbfa94b6566e598f2acc8b,2022-06-29_08h09.20.550,Colour_Asymmetry_Pilot,2022.1.3,Win32,59.52735282,62bbe60bf3d75ef465d3e404,,,,,,,,,,,,,,,,,,,,twoone,,2,6.1782,,,,,,,,,,,,,,,,,,,,,,,,,,,,,,,,,,"[-0.45899999999999996,-0.3256,-0.9374]","[0.11359999999999992,0.6312,0.5213999999999999]",56,-27.33334351,1,0,0,response3disk,6,3.333312988,1,0,0,rectangle,6,3.333312988,1,0,0,,1,0.0046,0,6,3.333312988,1,0,0,0,9,9,13,1,13,first,,,,,,,,,,,,,,,,,,,,,,,,,,,,,,,,,,,,,,,,,,,,,,,,,,,,,,,,,,,,,,,,,,,
,,,,,,5c472ac67379d8000112983d,62bbfa94b6566e598f2acc8b,2022-06-29_08h09.20.550,Colour_Asymmetry_Pilot,2022.1.3,Win32,59.52735282,62bbe60bf3d75ef465d3e404,,,,,,,,,,,,,,,,,,,,threefour,,2,4.6634,,,,,,,,,,,,,,,,,,,,,,,,,,,,,,,,,,"[0.9372,0.20779999999999998,0.2704]","[0.796,0.2156,-0.27859999999999996]",63.33337402,-47.33334351,1,0,0,response3disk,-4,-3.333343506,1,0,0,rectangle,-4,-3.333343506,1,0,0,,2,0.0023,0,-4,-3.333343506,1,0,0,0,10,10,42,1,42,first,,,,,,,,,,,,,,,,,,,,,,,,,,,,,,,,,,,,,,,,,,,,,,,,,,,,,,,,,,,,,,,,,,,
,,,,,,5c472ac67379d8000112983d,62bbfa94b6566e598f2acc8b,2022-06-29_08h09.20.550,Colour_Asymmetry_Pilot,2022.1.3,Win32,59.52735282,62bbe60bf3d75ef465d3e404,,,,,,,,,,,,,,,,,,,,onethree,,-3,1.3992,,,,,,,,,,,,,,,,,,,,,,,,,,,,,,,,,,"[0.12939999999999996,-0.2864,0.3253999999999999]","[-0.9766,-0.6472,0.07440000000000002]",-43.33331299,24,1,0,0,response7disk,-8,-2,1,0,0,rectangle,-8,-2,1,0,0,,1,0.004,0,-8,-2,1,0,0,0,11,11,113,1,32,second,,,,,,,,,,,,,,,,,,,,,,,,,,,,,,,,,,,,,,,,,,,,,,,,,,,,,,,,,,,,,,,,,,,
,,,,,,5c472ac67379d8000112983d,62bbfa94b6566e598f2acc8b,2022-06-29_08h09.20.550,Colour_Asymmetry_Pilot,2022.1.3,Win32,59.52735282,62bbe60bf3d75ef465d3e404,,,,,,,,,,,,,,,,,,,,twoone,,2,9.7918,,,,,,,,,,,,,,,,,,,,,,,,,,,,,,,,,,"[-0.0040000000000000036,0.02739999999999987,-0.08239999999999992]","[0.9763999999999999,-0.1137999999999999,-0.6314]",40.66668701,-25.33334351,1,0,0,response3disk,-8,-4,1,0,0,rectangle,-8,-4,1,0,0,,1,0.0003,0,-8,-4,1,0,0,0,12,12,6,1,6,first,,,,,,,,,,,,,,,,,,,,,,,,,,,,,,,,,,,,,,,,,,,,,,,,,,,,,,,,,,,,,,,,,,,
,,,,,,5c472ac67379d8000112983d,62bbfa94b6566e598f2acc8b,2022-06-29_08h09.20.550,Colour_Asymmetry_Pilot,2022.1.3,Win32,59.52735282,62bbe60bf3d75ef465d3e404,,,,,,,,,,,,,,,,,,,,threeone,,-3,4.2798,,,,,,,,,,,,,,,,,,,,,,,,,,,,,,,,,,"[0.23920000000000008,0.2704,0.16060000000000008]","[-0.4982,-0.2942,-0.0354000000000001]",-69.33331299,24.66665649,1,0,0,response7disk,-9.333312988,2.666656494,1,0,0,rectangle,66.66668701,28.66665649,1,0,0,3,3,3.5493,1,-4,1.333312988,1,0,0,0,13,13,136,1,55,second,response1disk_3,rectangle,,,,,,,,,,,,,,,,,,,,,,,,,,,,,,,,,,,,,,,,,,,,,,,,,,,,,,,,,,,,,,,,,
,,,,,,5c472ac67379d8000112983d,62bbfa94b6566e598f2acc8b,2022-06-29_08h09.20.550,Colour_Asymmetry_Pilot,2022.1.3,Win32,59.52735282,62bbe60bf3d75ef465d3e404,,,,,,,,,,,,,,,,,,,,fourtwo,,-3,3.5504,,,,,,,,,,,,,,,,,,,,,,,,,,,,,,,,,,"[-0.5452,-0.608,0.2470000000000001]","[0.18419999999999992,-0.4276,-0.404]",-69.33331299,25.33331299,1,0,0,response7disk,4.666687012,-4,1,0,0,rectangle,4.666687012,-4,1,0,0,3,1,0.0054,0,4.666687012,-4,1,0,0,0,14,14,73,1,73,first,,,,,,,,,,,,,,,,,,,,,,,,,,,,,,,,,,,,,,,,,,,,,,,,,,,,,,,,,,,,,,,,,,,
,,,,,,5c472ac67379d8000112983d,62bbfa94b6566e598f2acc8b,2022-06-29_08h09.20.550,Colour_Asymmetry_Pilot,2022.1.3,Win32,59.52735282,62bbe60bf3d75ef465d3e404,,,,,,,,,,,,,,,,,,,,onethree,,-4,1.3492,,,,,,,,,,,,,,,,,,,,,,,,,,,,,,,,,,"[-0.5922000000000001,-0.7492000000000001,-0.5296000000000001]","[0.7018,0.7176,0.6155999999999999]",-23.33331299,41.33331299,1,0,0,response7disk,-12.66662598,4.666656494,1,0,0,rectangle,-12.66662598,4.666656494,1,0,0,3,2,0.005,0,-12.66662598,4.666656494,1,0,0,0,15,15,84,1,3,second,,,,,,,,,,,,,,,,,,,,,,,,,,,,,,,,,,,,,,,,,,,,,,,,,,,,,,,,,,,,,,,,,,,
,,,,,,5c472ac67379d8000112983d,62bbfa94b6566e598f2acc8b,2022-06-29_08h09.20.550,Colour_Asymmetry_Pilot,2022.1.3,Win32,59.52735282,62bbe60bf3d75ef465d3e404,,,,,,,,,,,,,,,,,,,,twofour,,-4,1.366,,,,,,,,,,,,,,,,,,,,,,,,,,,,,,,,,,"[0.2862,0.7802,0.3568]","[0.23120000000000007,-0.7726,-0.34120000000000006]",-32.66662598,55.33331299,1,0,0,response7disk,-6,-2.666687012,1,0,0,rectangle,-6,-2.666687012,1,0,0,3,1,0.0022,0,-6,-2.666687012,1,0,0,0,16,16,4,1,4,first,,,,,,,,,,,,,,,,,,,,,,,,,,,,,,,,,,,,,,,,,,,,,,,,,,,,,,,,,,,,,,,,,,,
,,,,,,5c472ac67379d8000112983d,62bbfa94b6566e598f2acc8b,2022-06-29_08h09.20.550,Colour_Asymmetry_Pilot,2022.1.3,Win32,59.52735282,62bbe60bf3d75ef465d3e404,,,,,,,,,,,,,,,,,,,,threeone,,-3,1.3654,,,,,,,,,,,,,,,,,,,,,,,,,,,,,,,,,,"[0.19199999999999995,0.18419999999999992,0.5136000000000001]","[0.09799999999999986,-0.24719999999999998,0.15280000000000005]",-69.33331299,21.33331299,1,0,0,response7disk,-0.666625977,-2,1,0,0,rectangle,-0.666625977,-2,1,0,0,3,3,0.0066,0,-0.666625977,-2,1,0,0,0,17,17,140,1,59,second,,,,,,,,,,,,,,,,,,,,,,,,,,,,,,,,,,,,,,,,,,,,,,,,,,,,,,,,,,,,,,,,,,,
