trials.thisRepN,trials.thisTrialN,trials.thisN,trials.thisIndex,trials.ran,Colourcodes,participant,session,date,expName,psychopyVersion,OS,frameRate,study_id,trials_4.thisRepN,trials_4.thisTrialN,trials_4.thisN,trials_4.thisIndex,trials_4.ran,StimulusPos,key_resp.keys,key_resp.rt,key_resp_2.keys,key_resp_2.rt,key_resp_15.keys,key_resp_15.rt,key_resp_17.keys,key_resp_17.rt,key_resp_9.keys,key_resp_9.rt,key_resp_10.keys,key_resp_10.rt,Circle1_col,Ecc,Circle2_col,similarity,response_time,mouse_5.x,mouse_5.y,mouse_5.leftButton,mouse_5.midButton,mouse_5.rightButton,mouse_5.clicked_name,mouse_10.x,mouse_10.y,mouse_10.leftButton,mouse_10.midButton,mouse_10.rightButton,mouse_10.clicked_name,mouse_7.x,mouse_7.y,mouse_7.leftButton,mouse_7.midButton,mouse_7.rightButton,catchnumberprac,mouse_6.x,mouse_6.y,mouse_6.leftButton,mouse_6.midButton,mouse_6.rightButton,duringprac.thisRepN,duringprac.thisTrialN,duringprac.thisN,duringprac.thisIndex,duringprac.ran,mouse_7.clicked_name,catchprac,mouse_6.clicked_name,key_resp_22.keys,key_resp_22.rt,Circle1_colour,Circle2_colour,mouse.x,mouse.y,mouse.leftButton,mouse.midButton,mouse.rightButton,mouse.clicked_name,mouse_2.x,mouse_2.y,mouse_2.leftButton,mouse_2.midButton,mouse_2.rightButton,mouse_2.clicked_name,mouse_3.x,mouse_3.y,mouse_3.leftButton,mouse_3.midButton,mouse_3.rightButton,catchresponse,catchnumber,response_time_catch,Catch,mouse_11.x,mouse_11.y,mouse_11.leftButton,mouse_11.midButton,mouse_11.rightButton,trials_2.thisRepN,trials_2.thisTrialN,trials_2.thisN,trials_2.thisIndex,trials_2.ran,Colourpair,Temporder,mouse_3.clicked_name,mouse_11.clicked_name,trials_3.thisRepN,trials_3.thisTrialN,trials_3.thisN,trials_3.thisIndex,trials_3.ran,key_resp_instr_Ishi.keys,key_resp_instr_Ishi.rt,Ishi_trial_keyresp.keys,Ishi_trial_keyresp.rt,Ishi_textbox.text,Ishi_loop.thisRepN,Ishi_loop.thisTrialN,Ishi_loop.thisN,Ishi_loop.thisIndex,Ishi_loop.ran,imageaddress,textbox.text,mouse_4.x,mouse_4.y,mouse_4.leftButton,mouse_4.midButton,mouse_4.rightButton,mouse_4.clicked_name,textbox_2.text,mouse_8.x,mouse_8.y,mouse_8.leftButton,mouse_8.midButton,mouse_8.rightButton,mouse_8.clicked_name,textbox_3.text,mouse_9.x,mouse_9.y,mouse_9.leftButton,mouse_9.midButton,mouse_9.rightButton,mouse_9.clicked_name,textbox_4.text,mouse_12.x,mouse_12.y,mouse_12.leftButton,mouse_12.midButton,mouse_12.rightButton,mouse_12.clicked_name,textbox_5.text,mouse_13.x,mouse_13.y,mouse_13.leftButton,mouse_13.midButton,mouse_13.rightButton,mouse_13.clicked_name,textbox_6.text,mouse_14.x,mouse_14.y,mouse_14.leftButton,mouse_14.midButton,mouse_14.rightButton,mouse_14.clicked_name,textbox_7.text,mouse_15.x,mouse_15.y,mouse_15.leftButton,mouse_15.midButton,mouse_15.rightButton,mouse_15.clicked_name
0,0,0,66,1,,6070b67d921b68125705efd6,62bbfb8a6e16f86e54766a03,2022-06-29_09h20.54.418,Colour_Asymmetry_Pilot,2022.1.3,Win32,60.86427267,62bbe60bf3d75ef465d3e404,,,,,,,,,,,,,,,,,,,,,,,,,,,,,,,,,,,,,,,,,,,,,,,,,,,,,,,,,,,,,,,,,,,,,,,,,,,,,,,,,,,,,,,,,,,,,,,,,,,,,,,,,,,,,,,,,,,,,,,,,,,,,,,,,,,,,,,,,,,,,,,,,,,,,,,,,,,,,,
0,1,1,16,1,,6070b67d921b68125705efd6,62bbfb8a6e16f86e54766a03,2022-06-29_09h20.54.418,Colour_Asymmetry_Pilot,2022.1.3,Win32,60.86427267,62bbe60bf3d75ef465d3e404,,,,,,,,,,,,,,,,,,,,,,,,,,,,,,,,,,,,,,,,,,,,,,,,,,,,,,,,,,,,,,,,,,,,,,,,,,,,,,,,,,,,,,,,,,,,,,,,,,,,,,,,,,,,,,,,,,,,,,,,,,,,,,,,,,,,,,,,,,,,,,,,,,,,,,,,,,,,,,
0,2,2,24,1,,6070b67d921b68125705efd6,62bbfb8a6e16f86e54766a03,2022-06-29_09h20.54.418,Colour_Asymmetry_Pilot,2022.1.3,Win32,60.86427267,62bbe60bf3d75ef465d3e404,,,,,,,,,,,,,,,,,,,,,,,,,,,,,,,,,,,,,,,,,,,,,,,,,,,,,,,,,,,,,,,,,,,,,,,,,,,,,,,,,,,,,,,,,,,,,,,,,,,,,,,,,,,,,,,,,,,,,,,,,,,,,,,,,,,,,,,,,,,,,,,,,,,,,,,,,,,,,,
0,3,3,25,1,,6070b67d921b68125705efd6,62bbfb8a6e16f86e54766a03,2022-06-29_09h20.54.418,Colour_Asymmetry_Pilot,2022.1.3,Win32,60.86427267,62bbe60bf3d75ef465d3e404,,,,,,,,,,,,,,,,,,,,,,,,,,,,,,,,,,,,,,,,,,,,,,,,,,,,,,,,,,,,,,,,,,,,,,,,,,,,,,,,,,,,,,,,,,,,,,,,,,,,,,,,,,,,,,,,,,,,,,,,,,,,,,,,,,,,,,,,,,,,,,,,,,,,,,,,,,,,,,
0,4,4,13,1,,6070b67d921b68125705efd6,62bbfb8a6e16f86e54766a03,2022-06-29_09h20.54.418,Colour_Asymmetry_Pilot,2022.1.3,Win32,60.86427267,62bbe60bf3d75ef465d3e404,,,,,,,,,,,,,,,,,,,,,,,,,,,,,,,,,,,,,,,,,,,,,,,,,,,,,,,,,,,,,,,,,,,,,,,,,,,,,,,,,,,,,,,,,,,,,,,,,,,,,,,,,,,,,,,,,,,,,,,,,,,,,,,,,,,,,,,,,,,,,,,,,,,,,,,,,,,,,,
0,5,5,26,1,,6070b67d921b68125705efd6,62bbfb8a6e16f86e54766a03,2022-06-29_09h20.54.418,Colour_Asymmetry_Pilot,2022.1.3,Win32,60.86427267,62bbe60bf3d75ef465d3e404,,,,,,,,,,,,,,,,,,,,,,,,,,,,,,,,,,,,,,,,,,,,,,,,,,,,,,,,,,,,,,,,,,,,,,,,,,,,,,,,,,,,,,,,,,,,,,,,,,,,,,,,,,,,,,,,,,,,,,,,,,,,,,,,,,,,,,,,,,,,,,,,,,,,,,,,,,,,,,
0,6,6,33,1,,6070b67d921b68125705efd6,62bbfb8a6e16f86e54766a03,2022-06-29_09h20.54.418,Colour_Asymmetry_Pilot,2022.1.3,Win32,60.86427267,62bbe60bf3d75ef465d3e404,,,,,,,,,,,,,,,,,,,,,,,,,,,,,,,,,,,,,,,,,,,,,,,,,,,,,,,,,,,,,,,,,,,,,,,,,,,,,,,,,,,,,,,,,,,,,,,,,,,,,,,,,,,,,,,,,,,,,,,,,,,,,,,,,,,,,,,,,,,,,,,,,,,,,,,,,,,,,,
0,7,7,44,1,,6070b67d921b68125705efd6,62bbfb8a6e16f86e54766a03,2022-06-29_09h20.54.418,Colour_Asymmetry_Pilot,2022.1.3,Win32,60.86427267,62bbe60bf3d75ef465d3e404,,,,,,,,,,,,,,,,,,,,,,,,,,,,,,,,,,,,,,,,,,,,,,,,,,,,,,,,,,,,,,,,,,,,,,,,,,,,,,,,,,,,,,,,,,,,,,,,,,,,,,,,,,,,,,,,,,,,,,,,,,,,,,,,,,,,,,,,,,,,,,,,,,,,,,,,,,,,,,
0,8,8,89,1,,6070b67d921b68125705efd6,62bbfb8a6e16f86e54766a03,2022-06-29_09h20.54.418,Colour_Asymmetry_Pilot,2022.1.3,Win32,60.86427267,62bbe60bf3d75ef465d3e404,,,,,,,,,,,,,,,,,,,,,,,,,,,,,,,,,,,,,,,,,,,,,,,,,,,,,,,,,,,,,,,,,,,,,,,,,,,,,,,,,,,,,,,,,,,,,,,,,,,,,,,,,,,,,,,,,,,,,,,,,,,,,,,,,,,,,,,,,,,,,,,,,,,,,,,,,,,,,,
0,9,9,92,1,,6070b67d921b68125705efd6,62bbfb8a6e16f86e54766a03,2022-06-29_09h20.54.418,Colour_Asymmetry_Pilot,2022.1.3,Win32,60.86427267,62bbe60bf3d75ef465d3e404,,,,,,,,,,,,,,,,,,,,,,,,,,,,,,,,,,,,,,,,,,,,,,,,,,,,,,,,,,,,,,,,,,,,,,,,,,,,,,,,,,,,,,,,,,,,,,,,,,,,,,,,,,,,,,,,,,,,,,,,,,,,,,,,,,,,,,,,,,,,,,,,,,,,,,,,,,,,,,
0,10,10,77,1,,6070b67d921b68125705efd6,62bbfb8a6e16f86e54766a03,2022-06-29_09h20.54.418,Colour_Asymmetry_Pilot,2022.1.3,Win32,60.86427267,62bbe60bf3d75ef465d3e404,,,,,,,,,,,,,,,,,,,,,,,,,,,,,,,,,,,,,,,,,,,,,,,,,,,,,,,,,,,,,,,,,,,,,,,,,,,,,,,,,,,,,,,,,,,,,,,,,,,,,,,,,,,,,,,,,,,,,,,,,,,,,,,,,,,,,,,,,,,,,,,,,,,,,,,,,,,,,,
0,11,11,32,1,,6070b67d921b68125705efd6,62bbfb8a6e16f86e54766a03,2022-06-29_09h20.54.418,Colour_Asymmetry_Pilot,2022.1.3,Win32,60.86427267,62bbe60bf3d75ef465d3e404,,,,,,,,,,,,,,,,,,,,,,,,,,,,,,,,,,,,,,,,,,,,,,,,,,,,,,,,,,,,,,,,,,,,,,,,,,,,,,,,,,,,,,,,,,,,,,,,,,,,,,,,,,,,,,,,,,,,,,,,,,,,,,,,,,,,,,,,,,,,,,,,,,,,,,,,,,,,,,
0,12,12,48,1,,6070b67d921b68125705efd6,62bbfb8a6e16f86e54766a03,2022-06-29_09h20.54.418,Colour_Asymmetry_Pilot,2022.1.3,Win32,60.86427267,62bbe60bf3d75ef465d3e404,,,,,,,,,,,,,,,,,,,,,,,,,,,,,,,,,,,,,,,,,,,,,,,,,,,,,,,,,,,,,,,,,,,,,,,,,,,,,,,,,,,,,,,,,,,,,,,,,,,,,,,,,,,,,,,,,,,,,,,,,,,,,,,,,,,,,,,,,,,,,,,,,,,,,,,,,,,,,,
0,13,13,27,1,,6070b67d921b68125705efd6,62bbfb8a6e16f86e54766a03,2022-06-29_09h20.54.418,Colour_Asymmetry_Pilot,2022.1.3,Win32,60.86427267,62bbe60bf3d75ef465d3e404,,,,,,,,,,,,,,,,,,,,,,,,,,,,,,,,,,,,,,,,,,,,,,,,,,,,,,,,,,,,,,,,,,,,,,,,,,,,,,,,,,,,,,,,,,,,,,,,,,,,,,,,,,,,,,,,,,,,,,,,,,,,,,,,,,,,,,,,,,,,,,,,,,,,,,,,,,,,,,
0,14,14,79,1,,6070b67d921b68125705efd6,62bbfb8a6e16f86e54766a03,2022-06-29_09h20.54.418,Colour_Asymmetry_Pilot,2022.1.3,Win32,60.86427267,62bbe60bf3d75ef465d3e404,,,,,,,,,,,,,,,,,,,,,,,,,,,,,,,,,,,,,,,,,,,,,,,,,,,,,,,,,,,,,,,,,,,,,,,,,,,,,,,,,,,,,,,,,,,,,,,,,,,,,,,,,,,,,,,,,,,,,,,,,,,,,,,,,,,,,,,,,,,,,,,,,,,,,,,,,,,,,,
0,15,15,15,1,,6070b67d921b68125705efd6,62bbfb8a6e16f86e54766a03,2022-06-29_09h20.54.418,Colour_Asymmetry_Pilot,2022.1.3,Win32,60.86427267,62bbe60bf3d75ef465d3e404,,,,,,,,,,,,,,,,,,,,,,,,,,,,,,,,,,,,,,,,,,,,,,,,,,,,,,,,,,,,,,,,,,,,,,,,,,,,,,,,,,,,,,,,,,,,,,,,,,,,,,,,,,,,,,,,,,,,,,,,,,,,,,,,,,,,,,,,,,,,,,,,,,,,,,,,,,,,,,
0,16,16,64,1,,6070b67d921b68125705efd6,62bbfb8a6e16f86e54766a03,2022-06-29_09h20.54.418,Colour_Asymmetry_Pilot,2022.1.3,Win32,60.86427267,62bbe60bf3d75ef465d3e404,,,,,,,,,,,,,,,,,,,,,,,,,,,,,,,,,,,,,,,,,,,,,,,,,,,,,,,,,,,,,,,,,,,,,,,,,,,,,,,,,,,,,,,,,,,,,,,,,,,,,,,,,,,,,,,,,,,,,,,,,,,,,,,,,,,,,,,,,,,,,,,,,,,,,,,,,,,,,,
0,17,17,76,1,,6070b67d921b68125705efd6,62bbfb8a6e16f86e54766a03,2022-06-29_09h20.54.418,Colour_Asymmetry_Pilot,2022.1.3,Win32,60.86427267,62bbe60bf3d75ef465d3e404,,,,,,,,,,,,,,,,,,,,,,,,,,,,,,,,,,,,,,,,,,,,,,,,,,,,,,,,,,,,,,,,,,,,,,,,,,,,,,,,,,,,,,,,,,,,,,,,,,,,,,,,,,,,,,,,,,,,,,,,,,,,,,,,,,,,,,,,,,,,,,,,,,,,,,,,,,,,,,
0,18,18,88,1,,6070b67d921b68125705efd6,62bbfb8a6e16f86e54766a03,2022-06-29_09h20.54.418,Colour_Asymmetry_Pilot,2022.1.3,Win32,60.86427267,62bbe60bf3d75ef465d3e404,,,,,,,,,,,,,,,,,,,,,,,,,,,,,,,,,,,,,,,,,,,,,,,,,,,,,,,,,,,,,,,,,,,,,,,,,,,,,,,,,,,,,,,,,,,,,,,,,,,,,,,,,,,,,,,,,,,,,,,,,,,,,,,,,,,,,,,,,,,,,,,,,,,,,,,,,,,,,,
0,19,19,62,1,,6070b67d921b68125705efd6,62bbfb8a6e16f86e54766a03,2022-06-29_09h20.54.418,Colour_Asymmetry_Pilot,2022.1.3,Win32,60.86427267,62bbe60bf3d75ef465d3e404,,,,,,,,,,,,,,,,,,,,,,,,,,,,,,,,,,,,,,,,,,,,,,,,,,,,,,,,,,,,,,,,,,,,,,,,,,,,,,,,,,,,,,,,,,,,,,,,,,,,,,,,,,,,,,,,,,,,,,,,,,,,,,,,,,,,,,,,,,,,,,,,,,,,,,,,,,,,,,
0,20,20,55,1,,6070b67d921b68125705efd6,62bbfb8a6e16f86e54766a03,2022-06-29_09h20.54.418,Colour_Asymmetry_Pilot,2022.1.3,Win32,60.86427267,62bbe60bf3d75ef465d3e404,,,,,,,,,,,,,,,,,,,,,,,,,,,,,,,,,,,,,,,,,,,,,,,,,,,,,,,,,,,,,,,,,,,,,,,,,,,,,,,,,,,,,,,,,,,,,,,,,,,,,,,,,,,,,,,,,,,,,,,,,,,,,,,,,,,,,,,,,,,,,,,,,,,,,,,,,,,,,,
0,21,21,4,1,,6070b67d921b68125705efd6,62bbfb8a6e16f86e54766a03,2022-06-29_09h20.54.418,Colour_Asymmetry_Pilot,2022.1.3,Win32,60.86427267,62bbe60bf3d75ef465d3e404,,,,,,,,,,,,,,,,,,,,,,,,,,,,,,,,,,,,,,,,,,,,,,,,,,,,,,,,,,,,,,,,,,,,,,,,,,,,,,,,,,,,,,,,,,,,,,,,,,,,,,,,,,,,,,,,,,,,,,,,,,,,,,,,,,,,,,,,,,,,,,,,,,,,,,,,,,,,,,
0,22,22,72,1,,6070b67d921b68125705efd6,62bbfb8a6e16f86e54766a03,2022-06-29_09h20.54.418,Colour_Asymmetry_Pilot,2022.1.3,Win32,60.86427267,62bbe60bf3d75ef465d3e404,,,,,,,,,,,,,,,,,,,,,,,,,,,,,,,,,,,,,,,,,,,,,,,,,,,,,,,,,,,,,,,,,,,,,,,,,,,,,,,,,,,,,,,,,,,,,,,,,,,,,,,,,,,,,,,,,,,,,,,,,,,,,,,,,,,,,,,,,,,,,,,,,,,,,,,,,,,,,,
0,23,23,29,1,,6070b67d921b68125705efd6,62bbfb8a6e16f86e54766a03,2022-06-29_09h20.54.418,Colour_Asymmetry_Pilot,2022.1.3,Win32,60.86427267,62bbe60bf3d75ef465d3e404,,,,,,,,,,,,,,,,,,,,,,,,,,,,,,,,,,,,,,,,,,,,,,,,,,,,,,,,,,,,,,,,,,,,,,,,,,,,,,,,,,,,,,,,,,,,,,,,,,,,,,,,,,,,,,,,,,,,,,,,,,,,,,,,,,,,,,,,,,,,,,,,,,,,,,,,,,,,,,
0,24,24,37,1,,6070b67d921b68125705efd6,62bbfb8a6e16f86e54766a03,2022-06-29_09h20.54.418,Colour_Asymmetry_Pilot,2022.1.3,Win32,60.86427267,62bbe60bf3d75ef465d3e404,,,,,,,,,,,,,,,,,,,,,,,,,,,,,,,,,,,,,,,,,,,,,,,,,,,,,,,,,,,,,,,,,,,,,,,,,,,,,,,,,,,,,,,,,,,,,,,,,,,,,,,,,,,,,,,,,,,,,,,,,,,,,,,,,,,,,,,,,,,,,,,,,,,,,,,,,,,,,,
0,25,25,80,1,,6070b67d921b68125705efd6,62bbfb8a6e16f86e54766a03,2022-06-29_09h20.54.418,Colour_Asymmetry_Pilot,2022.1.3,Win32,60.86427267,62bbe60bf3d75ef465d3e404,,,,,,,,,,,,,,,,,,,,,,,,,,,,,,,,,,,,,,,,,,,,,,,,,,,,,,,,,,,,,,,,,,,,,,,,,,,,,,,,,,,,,,,,,,,,,,,,,,,,,,,,,,,,,,,,,,,,,,,,,,,,,,,,,,,,,,,,,,,,,,,,,,,,,,,,,,,,,,
0,26,26,41,1,,6070b67d921b68125705efd6,62bbfb8a6e16f86e54766a03,2022-06-29_09h20.54.418,Colour_Asymmetry_Pilot,2022.1.3,Win32,60.86427267,62bbe60bf3d75ef465d3e404,,,,,,,,,,,,,,,,,,,,,,,,,,,,,,,,,,,,,,,,,,,,,,,,,,,,,,,,,,,,,,,,,,,,,,,,,,,,,,,,,,,,,,,,,,,,,,,,,,,,,,,,,,,,,,,,,,,,,,,,,,,,,,,,,,,,,,,,,,,,,,,,,,,,,,,,,,,,,,
0,27,27,28,1,,6070b67d921b68125705efd6,62bbfb8a6e16f86e54766a03,2022-06-29_09h20.54.418,Colour_Asymmetry_Pilot,2022.1.3,Win32,60.86427267,62bbe60bf3d75ef465d3e404,,,,,,,,,,,,,,,,,,,,,,,,,,,,,,,,,,,,,,,,,,,,,,,,,,,,,,,,,,,,,,,,,,,,,,,,,,,,,,,,,,,,,,,,,,,,,,,,,,,,,,,,,,,,,,,,,,,,,,,,,,,,,,,,,,,,,,,,,,,,,,,,,,,,,,,,,,,,,,
0,28,28,7,1,,6070b67d921b68125705efd6,62bbfb8a6e16f86e54766a03,2022-06-29_09h20.54.418,Colour_Asymmetry_Pilot,2022.1.3,Win32,60.86427267,62bbe60bf3d75ef465d3e404,,,,,,,,,,,,,,,,,,,,,,,,,,,,,,,,,,,,,,,,,,,,,,,,,,,,,,,,,,,,,,,,,,,,,,,,,,,,,,,,,,,,,,,,,,,,,,,,,,,,,,,,,,,,,,,,,,,,,,,,,,,,,,,,,,,,,,,,,,,,,,,,,,,,,,,,,,,,,,
0,29,29,86,1,,6070b67d921b68125705efd6,62bbfb8a6e16f86e54766a03,2022-06-29_09h20.54.418,Colour_Asymmetry_Pilot,2022.1.3,Win32,60.86427267,62bbe60bf3d75ef465d3e404,,,,,,,,,,,,,,,,,,,,,,,,,,,,,,,,,,,,,,,,,,,,,,,,,,,,,,,,,,,,,,,,,,,,,,,,,,,,,,,,,,,,,,,,,,,,,,,,,,,,,,,,,,,,,,,,,,,,,,,,,,,,,,,,,,,,,,,,,,,,,,,,,,,,,,,,,,,,,,
0,30,30,42,1,,6070b67d921b68125705efd6,62bbfb8a6e16f86e54766a03,2022-06-29_09h20.54.418,Colour_Asymmetry_Pilot,2022.1.3,Win32,60.86427267,62bbe60bf3d75ef465d3e404,,,,,,,,,,,,,,,,,,,,,,,,,,,,,,,,,,,,,,,,,,,,,,,,,,,,,,,,,,,,,,,,,,,,,,,,,,,,,,,,,,,,,,,,,,,,,,,,,,,,,,,,,,,,,,,,,,,,,,,,,,,,,,,,,,,,,,,,,,,,,,,,,,,,,,,,,,,,,,
0,31,31,36,1,,6070b67d921b68125705efd6,62bbfb8a6e16f86e54766a03,2022-06-29_09h20.54.418,Colour_Asymmetry_Pilot,2022.1.3,Win32,60.86427267,62bbe60bf3d75ef465d3e404,,,,,,,,,,,,,,,,,,,,,,,,,,,,,,,,,,,,,,,,,,,,,,,,,,,,,,,,,,,,,,,,,,,,,,,,,,,,,,,,,,,,,,,,,,,,,,,,,,,,,,,,,,,,,,,,,,,,,,,,,,,,,,,,,,,,,,,,,,,,,,,,,,,,,,,,,,,,,,
0,32,32,73,1,,6070b67d921b68125705efd6,62bbfb8a6e16f86e54766a03,2022-06-29_09h20.54.418,Colour_Asymmetry_Pilot,2022.1.3,Win32,60.86427267,62bbe60bf3d75ef465d3e404,,,,,,,,,,,,,,,,,,,,,,,,,,,,,,,,,,,,,,,,,,,,,,,,,,,,,,,,,,,,,,,,,,,,,,,,,,,,,,,,,,,,,,,,,,,,,,,,,,,,,,,,,,,,,,,,,,,,,,,,,,,,,,,,,,,,,,,,,,,,,,,,,,,,,,,,,,,,,,
0,33,33,45,1,,6070b67d921b68125705efd6,62bbfb8a6e16f86e54766a03,2022-06-29_09h20.54.418,Colour_Asymmetry_Pilot,2022.1.3,Win32,60.86427267,62bbe60bf3d75ef465d3e404,,,,,,,,,,,,,,,,,,,,,,,,,,,,,,,,,,,,,,,,,,,,,,,,,,,,,,,,,,,,,,,,,,,,,,,,,,,,,,,,,,,,,,,,,,,,,,,,,,,,,,,,,,,,,,,,,,,,,,,,,,,,,,,,,,,,,,,,,,,,,,,,,,,,,,,,,,,,,,
0,34,34,40,1,,6070b67d921b68125705efd6,62bbfb8a6e16f86e54766a03,2022-06-29_09h20.54.418,Colour_Asymmetry_Pilot,2022.1.3,Win32,60.86427267,62bbe60bf3d75ef465d3e404,,,,,,,,,,,,,,,,,,,,,,,,,,,,,,,,,,,,,,,,,,,,,,,,,,,,,,,,,,,,,,,,,,,,,,,,,,,,,,,,,,,,,,,,,,,,,,,,,,,,,,,,,,,,,,,,,,,,,,,,,,,,,,,,,,,,,,,,,,,,,,,,,,,,,,,,,,,,,,
0,35,35,51,1,,6070b67d921b68125705efd6,62bbfb8a6e16f86e54766a03,2022-06-29_09h20.54.418,Colour_Asymmetry_Pilot,2022.1.3,Win32,60.86427267,62bbe60bf3d75ef465d3e404,,,,,,,,,,,,,,,,,,,,,,,,,,,,,,,,,,,,,,,,,,,,,,,,,,,,,,,,,,,,,,,,,,,,,,,,,,,,,,,,,,,,,,,,,,,,,,,,,,,,,,,,,,,,,,,,,,,,,,,,,,,,,,,,,,,,,,,,,,,,,,,,,,,,,,,,,,,,,,
0,36,36,61,1,,6070b67d921b68125705efd6,62bbfb8a6e16f86e54766a03,2022-06-29_09h20.54.418,Colour_Asymmetry_Pilot,2022.1.3,Win32,60.86427267,62bbe60bf3d75ef465d3e404,,,,,,,,,,,,,,,,,,,,,,,,,,,,,,,,,,,,,,,,,,,,,,,,,,,,,,,,,,,,,,,,,,,,,,,,,,,,,,,,,,,,,,,,,,,,,,,,,,,,,,,,,,,,,,,,,,,,,,,,,,,,,,,,,,,,,,,,,,,,,,,,,,,,,,,,,,,,,,
0,37,37,68,1,,6070b67d921b68125705efd6,62bbfb8a6e16f86e54766a03,2022-06-29_09h20.54.418,Colour_Asymmetry_Pilot,2022.1.3,Win32,60.86427267,62bbe60bf3d75ef465d3e404,,,,,,,,,,,,,,,,,,,,,,,,,,,,,,,,,,,,,,,,,,,,,,,,,,,,,,,,,,,,,,,,,,,,,,,,,,,,,,,,,,,,,,,,,,,,,,,,,,,,,,,,,,,,,,,,,,,,,,,,,,,,,,,,,,,,,,,,,,,,,,,,,,,,,,,,,,,,,,
0,38,38,65,1,,6070b67d921b68125705efd6,62bbfb8a6e16f86e54766a03,2022-06-29_09h20.54.418,Colour_Asymmetry_Pilot,2022.1.3,Win32,60.86427267,62bbe60bf3d75ef465d3e404,,,,,,,,,,,,,,,,,,,,,,,,,,,,,,,,,,,,,,,,,,,,,,,,,,,,,,,,,,,,,,,,,,,,,,,,,,,,,,,,,,,,,,,,,,,,,,,,,,,,,,,,,,,,,,,,,,,,,,,,,,,,,,,,,,,,,,,,,,,,,,,,,,,,,,,,,,,,,,
0,39,39,85,1,,6070b67d921b68125705efd6,62bbfb8a6e16f86e54766a03,2022-06-29_09h20.54.418,Colour_Asymmetry_Pilot,2022.1.3,Win32,60.86427267,62bbe60bf3d75ef465d3e404,,,,,,,,,,,,,,,,,,,,,,,,,,,,,,,,,,,,,,,,,,,,,,,,,,,,,,,,,,,,,,,,,,,,,,,,,,,,,,,,,,,,,,,,,,,,,,,,,,,,,,,,,,,,,,,,,,,,,,,,,,,,,,,,,,,,,,,,,,,,,,,,,,,,,,,,,,,,,,
0,40,40,17,1,,6070b67d921b68125705efd6,62bbfb8a6e16f86e54766a03,2022-06-29_09h20.54.418,Colour_Asymmetry_Pilot,2022.1.3,Win32,60.86427267,62bbe60bf3d75ef465d3e404,,,,,,,,,,,,,,,,,,,,,,,,,,,,,,,,,,,,,,,,,,,,,,,,,,,,,,,,,,,,,,,,,,,,,,,,,,,,,,,,,,,,,,,,,,,,,,,,,,,,,,,,,,,,,,,,,,,,,,,,,,,,,,,,,,,,,,,,,,,,,,,,,,,,,,,,,,,,,,
0,41,41,49,1,,6070b67d921b68125705efd6,62bbfb8a6e16f86e54766a03,2022-06-29_09h20.54.418,Colour_Asymmetry_Pilot,2022.1.3,Win32,60.86427267,62bbe60bf3d75ef465d3e404,,,,,,,,,,,,,,,,,,,,,,,,,,,,,,,,,,,,,,,,,,,,,,,,,,,,,,,,,,,,,,,,,,,,,,,,,,,,,,,,,,,,,,,,,,,,,,,,,,,,,,,,,,,,,,,,,,,,,,,,,,,,,,,,,,,,,,,,,,,,,,,,,,,,,,,,,,,,,,
0,42,42,59,1,,6070b67d921b68125705efd6,62bbfb8a6e16f86e54766a03,2022-06-29_09h20.54.418,Colour_Asymmetry_Pilot,2022.1.3,Win32,60.86427267,62bbe60bf3d75ef465d3e404,,,,,,,,,,,,,,,,,,,,,,,,,,,,,,,,,,,,,,,,,,,,,,,,,,,,,,,,,,,,,,,,,,,,,,,,,,,,,,,,,,,,,,,,,,,,,,,,,,,,,,,,,,,,,,,,,,,,,,,,,,,,,,,,,,,,,,,,,,,,,,,,,,,,,,,,,,,,,,
0,43,43,18,1,,6070b67d921b68125705efd6,62bbfb8a6e16f86e54766a03,2022-06-29_09h20.54.418,Colour_Asymmetry_Pilot,2022.1.3,Win32,60.86427267,62bbe60bf3d75ef465d3e404,,,,,,,,,,,,,,,,,,,,,,,,,,,,,,,,,,,,,,,,,,,,,,,,,,,,,,,,,,,,,,,,,,,,,,,,,,,,,,,,,,,,,,,,,,,,,,,,,,,,,,,,,,,,,,,,,,,,,,,,,,,,,,,,,,,,,,,,,,,,,,,,,,,,,,,,,,,,,,
0,44,44,20,1,,6070b67d921b68125705efd6,62bbfb8a6e16f86e54766a03,2022-06-29_09h20.54.418,Colour_Asymmetry_Pilot,2022.1.3,Win32,60.86427267,62bbe60bf3d75ef465d3e404,,,,,,,,,,,,,,,,,,,,,,,,,,,,,,,,,,,,,,,,,,,,,,,,,,,,,,,,,,,,,,,,,,,,,,,,,,,,,,,,,,,,,,,,,,,,,,,,,,,,,,,,,,,,,,,,,,,,,,,,,,,,,,,,,,,,,,,,,,,,,,,,,,,,,,,,,,,,,,
0,45,45,14,1,,6070b67d921b68125705efd6,62bbfb8a6e16f86e54766a03,2022-06-29_09h20.54.418,Colour_Asymmetry_Pilot,2022.1.3,Win32,60.86427267,62bbe60bf3d75ef465d3e404,,,,,,,,,,,,,,,,,,,,,,,,,,,,,,,,,,,,,,,,,,,,,,,,,,,,,,,,,,,,,,,,,,,,,,,,,,,,,,,,,,,,,,,,,,,,,,,,,,,,,,,,,,,,,,,,,,,,,,,,,,,,,,,,,,,,,,,,,,,,,,,,,,,,,,,,,,,,,,
0,46,46,60,1,,6070b67d921b68125705efd6,62bbfb8a6e16f86e54766a03,2022-06-29_09h20.54.418,Colour_Asymmetry_Pilot,2022.1.3,Win32,60.86427267,62bbe60bf3d75ef465d3e404,,,,,,,,,,,,,,,,,,,,,,,,,,,,,,,,,,,,,,,,,,,,,,,,,,,,,,,,,,,,,,,,,,,,,,,,,,,,,,,,,,,,,,,,,,,,,,,,,,,,,,,,,,,,,,,,,,,,,,,,,,,,,,,,,,,,,,,,,,,,,,,,,,,,,,,,,,,,,,
0,47,47,43,1,,6070b67d921b68125705efd6,62bbfb8a6e16f86e54766a03,2022-06-29_09h20.54.418,Colour_Asymmetry_Pilot,2022.1.3,Win32,60.86427267,62bbe60bf3d75ef465d3e404,,,,,,,,,,,,,,,,,,,,,,,,,,,,,,,,,,,,,,,,,,,,,,,,,,,,,,,,,,,,,,,,,,,,,,,,,,,,,,,,,,,,,,,,,,,,,,,,,,,,,,,,,,,,,,,,,,,,,,,,,,,,,,,,,,,,,,,,,,,,,,,,,,,,,,,,,,,,,,
0,48,48,63,1,,6070b67d921b68125705efd6,62bbfb8a6e16f86e54766a03,2022-06-29_09h20.54.418,Colour_Asymmetry_Pilot,2022.1.3,Win32,60.86427267,62bbe60bf3d75ef465d3e404,,,,,,,,,,,,,,,,,,,,,,,,,,,,,,,,,,,,,,,,,,,,,,,,,,,,,,,,,,,,,,,,,,,,,,,,,,,,,,,,,,,,,,,,,,,,,,,,,,,,,,,,,,,,,,,,,,,,,,,,,,,,,,,,,,,,,,,,,,,,,,,,,,,,,,,,,,,,,,
0,49,49,81,1,,6070b67d921b68125705efd6,62bbfb8a6e16f86e54766a03,2022-06-29_09h20.54.418,Colour_Asymmetry_Pilot,2022.1.3,Win32,60.86427267,62bbe60bf3d75ef465d3e404,,,,,,,,,,,,,,,,,,,,,,,,,,,,,,,,,,,,,,,,,,,,,,,,,,,,,,,,,,,,,,,,,,,,,,,,,,,,,,,,,,,,,,,,,,,,,,,,,,,,,,,,,,,,,,,,,,,,,,,,,,,,,,,,,,,,,,,,,,,,,,,,,,,,,,,,,,,,,,
0,50,50,10,1,,6070b67d921b68125705efd6,62bbfb8a6e16f86e54766a03,2022-06-29_09h20.54.418,Colour_Asymmetry_Pilot,2022.1.3,Win32,60.86427267,62bbe60bf3d75ef465d3e404,,,,,,,,,,,,,,,,,,,,,,,,,,,,,,,,,,,,,,,,,,,,,,,,,,,,,,,,,,,,,,,,,,,,,,,,,,,,,,,,,,,,,,,,,,,,,,,,,,,,,,,,,,,,,,,,,,,,,,,,,,,,,,,,,,,,,,,,,,,,,,,,,,,,,,,,,,,,,,
0,51,51,1,1,,6070b67d921b68125705efd6,62bbfb8a6e16f86e54766a03,2022-06-29_09h20.54.418,Colour_Asymmetry_Pilot,2022.1.3,Win32,60.86427267,62bbe60bf3d75ef465d3e404,,,,,,,,,,,,,,,,,,,,,,,,,,,,,,,,,,,,,,,,,,,,,,,,,,,,,,,,,,,,,,,,,,,,,,,,,,,,,,,,,,,,,,,,,,,,,,,,,,,,,,,,,,,,,,,,,,,,,,,,,,,,,,,,,,,,,,,,,,,,,,,,,,,,,,,,,,,,,,
0,52,52,34,1,,6070b67d921b68125705efd6,62bbfb8a6e16f86e54766a03,2022-06-29_09h20.54.418,Colour_Asymmetry_Pilot,2022.1.3,Win32,60.86427267,62bbe60bf3d75ef465d3e404,,,,,,,,,,,,,,,,,,,,,,,,,,,,,,,,,,,,,,,,,,,,,,,,,,,,,,,,,,,,,,,,,,,,,,,,,,,,,,,,,,,,,,,,,,,,,,,,,,,,,,,,,,,,,,,,,,,,,,,,,,,,,,,,,,,,,,,,,,,,,,,,,,,,,,,,,,,,,,
0,53,53,39,1,,6070b67d921b68125705efd6,62bbfb8a6e16f86e54766a03,2022-06-29_09h20.54.418,Colour_Asymmetry_Pilot,2022.1.3,Win32,60.86427267,62bbe60bf3d75ef465d3e404,,,,,,,,,,,,,,,,,,,,,,,,,,,,,,,,,,,,,,,,,,,,,,,,,,,,,,,,,,,,,,,,,,,,,,,,,,,,,,,,,,,,,,,,,,,,,,,,,,,,,,,,,,,,,,,,,,,,,,,,,,,,,,,,,,,,,,,,,,,,,,,,,,,,,,,,,,,,,,
0,54,54,56,1,,6070b67d921b68125705efd6,62bbfb8a6e16f86e54766a03,2022-06-29_09h20.54.418,Colour_Asymmetry_Pilot,2022.1.3,Win32,60.86427267,62bbe60bf3d75ef465d3e404,,,,,,,,,,,,,,,,,,,,,,,,,,,,,,,,,,,,,,,,,,,,,,,,,,,,,,,,,,,,,,,,,,,,,,,,,,,,,,,,,,,,,,,,,,,,,,,,,,,,,,,,,,,,,,,,,,,,,,,,,,,,,,,,,,,,,,,,,,,,,,,,,,,,,,,,,,,,,,
0,55,55,83,1,,6070b67d921b68125705efd6,62bbfb8a6e16f86e54766a03,2022-06-29_09h20.54.418,Colour_Asymmetry_Pilot,2022.1.3,Win32,60.86427267,62bbe60bf3d75ef465d3e404,,,,,,,,,,,,,,,,,,,,,,,,,,,,,,,,,,,,,,,,,,,,,,,,,,,,,,,,,,,,,,,,,,,,,,,,,,,,,,,,,,,,,,,,,,,,,,,,,,,,,,,,,,,,,,,,,,,,,,,,,,,,,,,,,,,,,,,,,,,,,,,,,,,,,,,,,,,,,,
0,56,56,11,1,,6070b67d921b68125705efd6,62bbfb8a6e16f86e54766a03,2022-06-29_09h20.54.418,Colour_Asymmetry_Pilot,2022.1.3,Win32,60.86427267,62bbe60bf3d75ef465d3e404,,,,,,,,,,,,,,,,,,,,,,,,,,,,,,,,,,,,,,,,,,,,,,,,,,,,,,,,,,,,,,,,,,,,,,,,,,,,,,,,,,,,,,,,,,,,,,,,,,,,,,,,,,,,,,,,,,,,,,,,,,,,,,,,,,,,,,,,,,,,,,,,,,,,,,,,,,,,,,
0,57,57,12,1,,6070b67d921b68125705efd6,62bbfb8a6e16f86e54766a03,2022-06-29_09h20.54.418,Colour_Asymmetry_Pilot,2022.1.3,Win32,60.86427267,62bbe60bf3d75ef465d3e404,,,,,,,,,,,,,,,,,,,,,,,,,,,,,,,,,,,,,,,,,,,,,,,,,,,,,,,,,,,,,,,,,,,,,,,,,,,,,,,,,,,,,,,,,,,,,,,,,,,,,,,,,,,,,,,,,,,,,,,,,,,,,,,,,,,,,,,,,,,,,,,,,,,,,,,,,,,,,,
0,58,58,70,1,,6070b67d921b68125705efd6,62bbfb8a6e16f86e54766a03,2022-06-29_09h20.54.418,Colour_Asymmetry_Pilot,2022.1.3,Win32,60.86427267,62bbe60bf3d75ef465d3e404,,,,,,,,,,,,,,,,,,,,,,,,,,,,,,,,,,,,,,,,,,,,,,,,,,,,,,,,,,,,,,,,,,,,,,,,,,,,,,,,,,,,,,,,,,,,,,,,,,,,,,,,,,,,,,,,,,,,,,,,,,,,,,,,,,,,,,,,,,,,,,,,,,,,,,,,,,,,,,
0,59,59,78,1,,6070b67d921b68125705efd6,62bbfb8a6e16f86e54766a03,2022-06-29_09h20.54.418,Colour_Asymmetry_Pilot,2022.1.3,Win32,60.86427267,62bbe60bf3d75ef465d3e404,,,,,,,,,,,,,,,,,,,,,,,,,,,,,,,,,,,,,,,,,,,,,,,,,,,,,,,,,,,,,,,,,,,,,,,,,,,,,,,,,,,,,,,,,,,,,,,,,,,,,,,,,,,,,,,,,,,,,,,,,,,,,,,,,,,,,,,,,,,,,,,,,,,,,,,,,,,,,,
0,60,60,71,1,,6070b67d921b68125705efd6,62bbfb8a6e16f86e54766a03,2022-06-29_09h20.54.418,Colour_Asymmetry_Pilot,2022.1.3,Win32,60.86427267,62bbe60bf3d75ef465d3e404,,,,,,,,,,,,,,,,,,,,,,,,,,,,,,,,,,,,,,,,,,,,,,,,,,,,,,,,,,,,,,,,,,,,,,,,,,,,,,,,,,,,,,,,,,,,,,,,,,,,,,,,,,,,,,,,,,,,,,,,,,,,,,,,,,,,,,,,,,,,,,,,,,,,,,,,,,,,,,
0,61,61,2,1,,6070b67d921b68125705efd6,62bbfb8a6e16f86e54766a03,2022-06-29_09h20.54.418,Colour_Asymmetry_Pilot,2022.1.3,Win32,60.86427267,62bbe60bf3d75ef465d3e404,,,,,,,,,,,,,,,,,,,,,,,,,,,,,,,,,,,,,,,,,,,,,,,,,,,,,,,,,,,,,,,,,,,,,,,,,,,,,,,,,,,,,,,,,,,,,,,,,,,,,,,,,,,,,,,,,,,,,,,,,,,,,,,,,,,,,,,,,,,,,,,,,,,,,,,,,,,,,,
0,62,62,21,1,,6070b67d921b68125705efd6,62bbfb8a6e16f86e54766a03,2022-06-29_09h20.54.418,Colour_Asymmetry_Pilot,2022.1.3,Win32,60.86427267,62bbe60bf3d75ef465d3e404,,,,,,,,,,,,,,,,,,,,,,,,,,,,,,,,,,,,,,,,,,,,,,,,,,,,,,,,,,,,,,,,,,,,,,,,,,,,,,,,,,,,,,,,,,,,,,,,,,,,,,,,,,,,,,,,,,,,,,,,,,,,,,,,,,,,,,,,,,,,,,,,,,,,,,,,,,,,,,
0,63,63,31,1,,6070b67d921b68125705efd6,62bbfb8a6e16f86e54766a03,2022-06-29_09h20.54.418,Colour_Asymmetry_Pilot,2022.1.3,Win32,60.86427267,62bbe60bf3d75ef465d3e404,,,,,,,,,,,,,,,,,,,,,,,,,,,,,,,,,,,,,,,,,,,,,,,,,,,,,,,,,,,,,,,,,,,,,,,,,,,,,,,,,,,,,,,,,,,,,,,,,,,,,,,,,,,,,,,,,,,,,,,,,,,,,,,,,,,,,,,,,,,,,,,,,,,,,,,,,,,,,,
0,64,64,22,1,,6070b67d921b68125705efd6,62bbfb8a6e16f86e54766a03,2022-06-29_09h20.54.418,Colour_Asymmetry_Pilot,2022.1.3,Win32,60.86427267,62bbe60bf3d75ef465d3e404,,,,,,,,,,,,,,,,,,,,,,,,,,,,,,,,,,,,,,,,,,,,,,,,,,,,,,,,,,,,,,,,,,,,,,,,,,,,,,,,,,,,,,,,,,,,,,,,,,,,,,,,,,,,,,,,,,,,,,,,,,,,,,,,,,,,,,,,,,,,,,,,,,,,,,,,,,,,,,
0,65,65,91,1,,6070b67d921b68125705efd6,62bbfb8a6e16f86e54766a03,2022-06-29_09h20.54.418,Colour_Asymmetry_Pilot,2022.1.3,Win32,60.86427267,62bbe60bf3d75ef465d3e404,,,,,,,,,,,,,,,,,,,,,,,,,,,,,,,,,,,,,,,,,,,,,,,,,,,,,,,,,,,,,,,,,,,,,,,,,,,,,,,,,,,,,,,,,,,,,,,,,,,,,,,,,,,,,,,,,,,,,,,,,,,,,,,,,,,,,,,,,,,,,,,,,,,,,,,,,,,,,,
0,66,66,69,1,,6070b67d921b68125705efd6,62bbfb8a6e16f86e54766a03,2022-06-29_09h20.54.418,Colour_Asymmetry_Pilot,2022.1.3,Win32,60.86427267,62bbe60bf3d75ef465d3e404,,,,,,,,,,,,,,,,,,,,,,,,,,,,,,,,,,,,,,,,,,,,,,,,,,,,,,,,,,,,,,,,,,,,,,,,,,,,,,,,,,,,,,,,,,,,,,,,,,,,,,,,,,,,,,,,,,,,,,,,,,,,,,,,,,,,,,,,,,,,,,,,,,,,,,,,,,,,,,
0,67,67,6,1,,6070b67d921b68125705efd6,62bbfb8a6e16f86e54766a03,2022-06-29_09h20.54.418,Colour_Asymmetry_Pilot,2022.1.3,Win32,60.86427267,62bbe60bf3d75ef465d3e404,,,,,,,,,,,,,,,,,,,,,,,,,,,,,,,,,,,,,,,,,,,,,,,,,,,,,,,,,,,,,,,,,,,,,,,,,,,,,,,,,,,,,,,,,,,,,,,,,,,,,,,,,,,,,,,,,,,,,,,,,,,,,,,,,,,,,,,,,,,,,,,,,,,,,,,,,,,,,,
0,68,68,50,1,,6070b67d921b68125705efd6,62bbfb8a6e16f86e54766a03,2022-06-29_09h20.54.418,Colour_Asymmetry_Pilot,2022.1.3,Win32,60.86427267,62bbe60bf3d75ef465d3e404,,,,,,,,,,,,,,,,,,,,,,,,,,,,,,,,,,,,,,,,,,,,,,,,,,,,,,,,,,,,,,,,,,,,,,,,,,,,,,,,,,,,,,,,,,,,,,,,,,,,,,,,,,,,,,,,,,,,,,,,,,,,,,,,,,,,,,,,,,,,,,,,,,,,,,,,,,,,,,
0,69,69,84,1,,6070b67d921b68125705efd6,62bbfb8a6e16f86e54766a03,2022-06-29_09h20.54.418,Colour_Asymmetry_Pilot,2022.1.3,Win32,60.86427267,62bbe60bf3d75ef465d3e404,,,,,,,,,,,,,,,,,,,,,,,,,,,,,,,,,,,,,,,,,,,,,,,,,,,,,,,,,,,,,,,,,,,,,,,,,,,,,,,,,,,,,,,,,,,,,,,,,,,,,,,,,,,,,,,,,,,,,,,,,,,,,,,,,,,,,,,,,,,,,,,,,,,,,,,,,,,,,,
0,70,70,5,1,,6070b67d921b68125705efd6,62bbfb8a6e16f86e54766a03,2022-06-29_09h20.54.418,Colour_Asymmetry_Pilot,2022.1.3,Win32,60.86427267,62bbe60bf3d75ef465d3e404,,,,,,,,,,,,,,,,,,,,,,,,,,,,,,,,,,,,,,,,,,,,,,,,,,,,,,,,,,,,,,,,,,,,,,,,,,,,,,,,,,,,,,,,,,,,,,,,,,,,,,,,,,,,,,,,,,,,,,,,,,,,,,,,,,,,,,,,,,,,,,,,,,,,,,,,,,,,,,
0,71,71,19,1,,6070b67d921b68125705efd6,62bbfb8a6e16f86e54766a03,2022-06-29_09h20.54.418,Colour_Asymmetry_Pilot,2022.1.3,Win32,60.86427267,62bbe60bf3d75ef465d3e404,,,,,,,,,,,,,,,,,,,,,,,,,,,,,,,,,,,,,,,,,,,,,,,,,,,,,,,,,,,,,,,,,,,,,,,,,,,,,,,,,,,,,,,,,,,,,,,,,,,,,,,,,,,,,,,,,,,,,,,,,,,,,,,,,,,,,,,,,,,,,,,,,,,,,,,,,,,,,,
0,72,72,52,1,,6070b67d921b68125705efd6,62bbfb8a6e16f86e54766a03,2022-06-29_09h20.54.418,Colour_Asymmetry_Pilot,2022.1.3,Win32,60.86427267,62bbe60bf3d75ef465d3e404,,,,,,,,,,,,,,,,,,,,,,,,,,,,,,,,,,,,,,,,,,,,,,,,,,,,,,,,,,,,,,,,,,,,,,,,,,,,,,,,,,,,,,,,,,,,,,,,,,,,,,,,,,,,,,,,,,,,,,,,,,,,,,,,,,,,,,,,,,,,,,,,,,,,,,,,,,,,,,
0,73,73,82,1,,6070b67d921b68125705efd6,62bbfb8a6e16f86e54766a03,2022-06-29_09h20.54.418,Colour_Asymmetry_Pilot,2022.1.3,Win32,60.86427267,62bbe60bf3d75ef465d3e404,,,,,,,,,,,,,,,,,,,,,,,,,,,,,,,,,,,,,,,,,,,,,,,,,,,,,,,,,,,,,,,,,,,,,,,,,,,,,,,,,,,,,,,,,,,,,,,,,,,,,,,,,,,,,,,,,,,,,,,,,,,,,,,,,,,,,,,,,,,,,,,,,,,,,,,,,,,,,,
0,74,74,90,1,,6070b67d921b68125705efd6,62bbfb8a6e16f86e54766a03,2022-06-29_09h20.54.418,Colour_Asymmetry_Pilot,2022.1.3,Win32,60.86427267,62bbe60bf3d75ef465d3e404,,,,,,,,,,,,,,,,,,,,,,,,,,,,,,,,,,,,,,,,,,,,,,,,,,,,,,,,,,,,,,,,,,,,,,,,,,,,,,,,,,,,,,,,,,,,,,,,,,,,,,,,,,,,,,,,,,,,,,,,,,,,,,,,,,,,,,,,,,,,,,,,,,,,,,,,,,,,,,
0,75,75,57,1,,6070b67d921b68125705efd6,62bbfb8a6e16f86e54766a03,2022-06-29_09h20.54.418,Colour_Asymmetry_Pilot,2022.1.3,Win32,60.86427267,62bbe60bf3d75ef465d3e404,,,,,,,,,,,,,,,,,,,,,,,,,,,,,,,,,,,,,,,,,,,,,,,,,,,,,,,,,,,,,,,,,,,,,,,,,,,,,,,,,,,,,,,,,,,,,,,,,,,,,,,,,,,,,,,,,,,,,,,,,,,,,,,,,,,,,,,,,,,,,,,,,,,,,,,,,,,,,,
0,76,76,3,1,,6070b67d921b68125705efd6,62bbfb8a6e16f86e54766a03,2022-06-29_09h20.54.418,Colour_Asymmetry_Pilot,2022.1.3,Win32,60.86427267,62bbe60bf3d75ef465d3e404,,,,,,,,,,,,,,,,,,,,,,,,,,,,,,,,,,,,,,,,,,,,,,,,,,,,,,,,,,,,,,,,,,,,,,,,,,,,,,,,,,,,,,,,,,,,,,,,,,,,,,,,,,,,,,,,,,,,,,,,,,,,,,,,,,,,,,,,,,,,,,,,,,,,,,,,,,,,,,
0,77,77,53,1,,6070b67d921b68125705efd6,62bbfb8a6e16f86e54766a03,2022-06-29_09h20.54.418,Colour_Asymmetry_Pilot,2022.1.3,Win32,60.86427267,62bbe60bf3d75ef465d3e404,,,,,,,,,,,,,,,,,,,,,,,,,,,,,,,,,,,,,,,,,,,,,,,,,,,,,,,,,,,,,,,,,,,,,,,,,,,,,,,,,,,,,,,,,,,,,,,,,,,,,,,,,,,,,,,,,,,,,,,,,,,,,,,,,,,,,,,,,,,,,,,,,,,,,,,,,,,,,,
0,78,78,54,1,,6070b67d921b68125705efd6,62bbfb8a6e16f86e54766a03,2022-06-29_09h20.54.418,Colour_Asymmetry_Pilot,2022.1.3,Win32,60.86427267,62bbe60bf3d75ef465d3e404,,,,,,,,,,,,,,,,,,,,,,,,,,,,,,,,,,,,,,,,,,,,,,,,,,,,,,,,,,,,,,,,,,,,,,,,,,,,,,,,,,,,,,,,,,,,,,,,,,,,,,,,,,,,,,,,,,,,,,,,,,,,,,,,,,,,,,,,,,,,,,,,,,,,,,,,,,,,,,
0,79,79,87,1,,6070b67d921b68125705efd6,62bbfb8a6e16f86e54766a03,2022-06-29_09h20.54.418,Colour_Asymmetry_Pilot,2022.1.3,Win32,60.86427267,62bbe60bf3d75ef465d3e404,,,,,,,,,,,,,,,,,,,,,,,,,,,,,,,,,,,,,,,,,,,,,,,,,,,,,,,,,,,,,,,,,,,,,,,,,,,,,,,,,,,,,,,,,,,,,,,,,,,,,,,,,,,,,,,,,,,,,,,,,,,,,,,,,,,,,,,,,,,,,,,,,,,,,,,,,,,,,,
0,80,80,35,1,,6070b67d921b68125705efd6,62bbfb8a6e16f86e54766a03,2022-06-29_09h20.54.418,Colour_Asymmetry_Pilot,2022.1.3,Win32,60.86427267,62bbe60bf3d75ef465d3e404,,,,,,,,,,,,,,,,,,,,,,,,,,,,,,,,,,,,,,,,,,,,,,,,,,,,,,,,,,,,,,,,,,,,,,,,,,,,,,,,,,,,,,,,,,,,,,,,,,,,,,,,,,,,,,,,,,,,,,,,,,,,,,,,,,,,,,,,,,,,,,,,,,,,,,,,,,,,,,
0,81,81,9,1,,6070b67d921b68125705efd6,62bbfb8a6e16f86e54766a03,2022-06-29_09h20.54.418,Colour_Asymmetry_Pilot,2022.1.3,Win32,60.86427267,62bbe60bf3d75ef465d3e404,,,,,,,,,,,,,,,,,,,,,,,,,,,,,,,,,,,,,,,,,,,,,,,,,,,,,,,,,,,,,,,,,,,,,,,,,,,,,,,,,,,,,,,,,,,,,,,,,,,,,,,,,,,,,,,,,,,,,,,,,,,,,,,,,,,,,,,,,,,,,,,,,,,,,,,,,,,,,,
0,82,82,23,1,,6070b67d921b68125705efd6,62bbfb8a6e16f86e54766a03,2022-06-29_09h20.54.418,Colour_Asymmetry_Pilot,2022.1.3,Win32,60.86427267,62bbe60bf3d75ef465d3e404,,,,,,,,,,,,,,,,,,,,,,,,,,,,,,,,,,,,,,,,,,,,,,,,,,,,,,,,,,,,,,,,,,,,,,,,,,,,,,,,,,,,,,,,,,,,,,,,,,,,,,,,,,,,,,,,,,,,,,,,,,,,,,,,,,,,,,,,,,,,,,,,,,,,,,,,,,,,,,
0,83,83,75,1,,6070b67d921b68125705efd6,62bbfb8a6e16f86e54766a03,2022-06-29_09h20.54.418,Colour_Asymmetry_Pilot,2022.1.3,Win32,60.86427267,62bbe60bf3d75ef465d3e404,,,,,,,,,,,,,,,,,,,,,,,,,,,,,,,,,,,,,,,,,,,,,,,,,,,,,,,,,,,,,,,,,,,,,,,,,,,,,,,,,,,,,,,,,,,,,,,,,,,,,,,,,,,,,,,,,,,,,,,,,,,,,,,,,,,,,,,,,,,,,,,,,,,,,,,,,,,,,,
0,84,84,67,1,,6070b67d921b68125705efd6,62bbfb8a6e16f86e54766a03,2022-06-29_09h20.54.418,Colour_Asymmetry_Pilot,2022.1.3,Win32,60.86427267,62bbe60bf3d75ef465d3e404,,,,,,,,,,,,,,,,,,,,,,,,,,,,,,,,,,,,,,,,,,,,,,,,,,,,,,,,,,,,,,,,,,,,,,,,,,,,,,,,,,,,,,,,,,,,,,,,,,,,,,,,,,,,,,,,,,,,,,,,,,,,,,,,,,,,,,,,,,,,,,,,,,,,,,,,,,,,,,
0,85,85,0,1,,6070b67d921b68125705efd6,62bbfb8a6e16f86e54766a03,2022-06-29_09h20.54.418,Colour_Asymmetry_Pilot,2022.1.3,Win32,60.86427267,62bbe60bf3d75ef465d3e404,,,,,,,,,,,,,,,,,,,,,,,,,,,,,,,,,,,,,,,,,,,,,,,,,,,,,,,,,,,,,,,,,,,,,,,,,,,,,,,,,,,,,,,,,,,,,,,,,,,,,,,,,,,,,,,,,,,,,,,,,,,,,,,,,,,,,,,,,,,,,,,,,,,,,,,,,,,,,,
0,86,86,74,1,,6070b67d921b68125705efd6,62bbfb8a6e16f86e54766a03,2022-06-29_09h20.54.418,Colour_Asymmetry_Pilot,2022.1.3,Win32,60.86427267,62bbe60bf3d75ef465d3e404,,,,,,,,,,,,,,,,,,,,,,,,,,,,,,,,,,,,,,,,,,,,,,,,,,,,,,,,,,,,,,,,,,,,,,,,,,,,,,,,,,,,,,,,,,,,,,,,,,,,,,,,,,,,,,,,,,,,,,,,,,,,,,,,,,,,,,,,,,,,,,,,,,,,,,,,,,,,,,
0,87,87,8,1,,6070b67d921b68125705efd6,62bbfb8a6e16f86e54766a03,2022-06-29_09h20.54.418,Colour_Asymmetry_Pilot,2022.1.3,Win32,60.86427267,62bbe60bf3d75ef465d3e404,,,,,,,,,,,,,,,,,,,,,,,,,,,,,,,,,,,,,,,,,,,,,,,,,,,,,,,,,,,,,,,,,,,,,,,,,,,,,,,,,,,,,,,,,,,,,,,,,,,,,,,,,,,,,,,,,,,,,,,,,,,,,,,,,,,,,,,,,,,,,,,,,,,,,,,,,,,,,,
0,88,88,38,1,,6070b67d921b68125705efd6,62bbfb8a6e16f86e54766a03,2022-06-29_09h20.54.418,Colour_Asymmetry_Pilot,2022.1.3,Win32,60.86427267,62bbe60bf3d75ef465d3e404,,,,,,,,,,,,,,,,,,,,,,,,,,,,,,,,,,,,,,,,,,,,,,,,,,,,,,,,,,,,,,,,,,,,,,,,,,,,,,,,,,,,,,,,,,,,,,,,,,,,,,,,,,,,,,,,,,,,,,,,,,,,,,,,,,,,,,,,,,,,,,,,,,,,,,,,,,,,,,
0,89,89,46,1,,6070b67d921b68125705efd6,62bbfb8a6e16f86e54766a03,2022-06-29_09h20.54.418,Colour_Asymmetry_Pilot,2022.1.3,Win32,60.86427267,62bbe60bf3d75ef465d3e404,,,,,,,,,,,,,,,,,,,,,,,,,,,,,,,,,,,,,,,,,,,,,,,,,,,,,,,,,,,,,,,,,,,,,,,,,,,,,,,,,,,,,,,,,,,,,,,,,,,,,,,,,,,,,,,,,,,,,,,,,,,,,,,,,,,,,,,,,,,,,,,,,,,,,,,,,,,,,,
0,90,90,47,1,,6070b67d921b68125705efd6,62bbfb8a6e16f86e54766a03,2022-06-29_09h20.54.418,Colour_Asymmetry_Pilot,2022.1.3,Win32,60.86427267,62bbe60bf3d75ef465d3e404,,,,,,,,,,,,,,,,,,,,,,,,,,,,,,,,,,,,,,,,,,,,,,,,,,,,,,,,,,,,,,,,,,,,,,,,,,,,,,,,,,,,,,,,,,,,,,,,,,,,,,,,,,,,,,,,,,,,,,,,,,,,,,,,,,,,,,,,,,,,,,,,,,,,,,,,,,,,,,
0,91,91,30,1,,6070b67d921b68125705efd6,62bbfb8a6e16f86e54766a03,2022-06-29_09h20.54.418,Colour_Asymmetry_Pilot,2022.1.3,Win32,60.86427267,62bbe60bf3d75ef465d3e404,,,,,,,,,,,,,,,,,,,,,,,,,,,,,,,,,,,,,,,,,,,,,,,,,,,,,,,,,,,,,,,,,,,,,,,,,,,,,,,,,,,,,,,,,,,,,,,,,,,,,,,,,,,,,,,,,,,,,,,,,,,,,,,,,,,,,,,,,,,,,,,,,,,,,,,,,,,,,,
0,92,92,58,1,,6070b67d921b68125705efd6,62bbfb8a6e16f86e54766a03,2022-06-29_09h20.54.418,Colour_Asymmetry_Pilot,2022.1.3,Win32,60.86427267,62bbe60bf3d75ef465d3e404,,,,,,,,,,,,,,,,,,,,,,,,,,,,,,,,,,,,,,,,,,,,,,,,,,,,,,,,,,,,,,,,,,,,,,,,,,,,,,,,,,,,,,,,,,,,,,,,,,,,,,,,,,,,,,,,,,,,,,,,,,,,,,,,,,,,,,,,,,,,,,,,,,,,,,,,,,,,,,
,,,,,,6070b67d921b68125705efd6,62bbfb8a6e16f86e54766a03,2022-06-29_09h20.54.418,Colour_Asymmetry_Pilot,2022.1.3,Win32,60.86427267,62bbe60bf3d75ef465d3e404,0,0,0,156,1,threeone,,,,,,,,,,,,,,,,,,,,,,,,,,,,,,,,,,,,,,,,,,,,,,,,,,,,,,,,,,,,,,,,,,,,,,,,,,,,,,,,,,,,,,,,,,,,,,,,,,,,,,,,,,,,,,,,,,,,,,,,,,,,,,,,,,,,,,,,,,,,,,,,,,,,,,,,
,,,,,,6070b67d921b68125705efd6,62bbfb8a6e16f86e54766a03,2022-06-29_09h20.54.418,Colour_Asymmetry_Pilot,2022.1.3,Win32,60.86427267,62bbe60bf3d75ef465d3e404,0,1,1,150,1,fourtwo,,,,,,,,,,,,,,,,,,,,,,,,,,,,,,,,,,,,,,,,,,,,,,,,,,,,,,,,,,,,,,,,,,,,,,,,,,,,,,,,,,,,,,,,,,,,,,,,,,,,,,,,,,,,,,,,,,,,,,,,,,,,,,,,,,,,,,,,,,,,,,,,,,,,,,,,
,,,,,,6070b67d921b68125705efd6,62bbfb8a6e16f86e54766a03,2022-06-29_09h20.54.418,Colour_Asymmetry_Pilot,2022.1.3,Win32,60.86427267,62bbe60bf3d75ef465d3e404,0,2,2,36,1,threeone,,,,,,,,,,,,,,,,,,,,,,,,,,,,,,,,,,,,,,,,,,,,,,,,,,,,,,,,,,,,,,,,,,,,,,,,,,,,,,,,,,,,,,,,,,,,,,,,,,,,,,,,,,,,,,,,,,,,,,,,,,,,,,,,,,,,,,,,,,,,,,,,,,,,,,,,
,,,,,,6070b67d921b68125705efd6,62bbfb8a6e16f86e54766a03,2022-06-29_09h20.54.418,Colour_Asymmetry_Pilot,2022.1.3,Win32,60.86427267,62bbe60bf3d75ef465d3e404,0,3,3,148,1,threeone,,,,,,,,,,,,,,,,,,,,,,,,,,,,,,,,,,,,,,,,,,,,,,,,,,,,,,,,,,,,,,,,,,,,,,,,,,,,,,,,,,,,,,,,,,,,,,,,,,,,,,,,,,,,,,,,,,,,,,,,,,,,,,,,,,,,,,,,,,,,,,,,,,,,,,,,
,,,,,,6070b67d921b68125705efd6,62bbfb8a6e16f86e54766a03,2022-06-29_09h20.54.418,Colour_Asymmetry_Pilot,2022.1.3,Win32,60.86427267,62bbe60bf3d75ef465d3e404,0,4,4,40,1,onetwo,,,,,,,,,,,,,,,,,,,,,,,,,,,,,,,,,,,,,,,,,,,,,,,,,,,,,,,,,,,,,,,,,,,,,,,,,,,,,,,,,,,,,,,,,,,,,,,,,,,,,,,,,,,,,,,,,,,,,,,,,,,,,,,,,,,,,,,,,,,,,,,,,,,,,,,,
,,,,,,6070b67d921b68125705efd6,62bbfb8a6e16f86e54766a03,2022-06-29_09h20.54.418,Colour_Asymmetry_Pilot,2022.1.3,Win32,60.86427267,62bbe60bf3d75ef465d3e404,0,5,5,140,1,threeone,,,,,,,,,,,,,,,,,,,,,,,,,,,,,,,,,,,,,,,,,,,,,,,,,,,,,,,,,,,,,,,,,,,,,,,,,,,,,,,,,,,,,,,,,,,,,,,,,,,,,,,,,,,,,,,,,,,,,,,,,,,,,,,,,,,,,,,,,,,,,,,,,,,,,,,,
,,,,,,6070b67d921b68125705efd6,62bbfb8a6e16f86e54766a03,2022-06-29_09h20.54.418,Colour_Asymmetry_Pilot,2022.1.3,Win32,60.86427267,62bbe60bf3d75ef465d3e404,0,6,6,32,1,onetwo,,,,,,,,,,,,,,,,,,,,,,,,,,,,,,,,,,,,,,,,,,,,,,,,,,,,,,,,,,,,,,,,,,,,,,,,,,,,,,,,,,,,,,,,,,,,,,,,,,,,,,,,,,,,,,,,,,,,,,,,,,,,,,,,,,,,,,,,,,,,,,,,,,,,,,,,
,,,,,,6070b67d921b68125705efd6,62bbfb8a6e16f86e54766a03,2022-06-29_09h20.54.418,Colour_Asymmetry_Pilot,2022.1.3,Win32,60.86427267,62bbe60bf3d75ef465d3e404,0,7,7,92,1,threeone,,,,,,,,,,,,,,,,,,,,,,,,,,,,,,,,,,,,,,,,,,,,,,,,,,,,,,,,,,,,,,,,,,,,,,,,,,,,,,,,,,,,,,,,,,,,,,,,,,,,,,,,,,,,,,,,,,,,,,,,,,,,,,,,,,,,,,,,,,,,,,,,,,,,,,,,
,,,,,,6070b67d921b68125705efd6,62bbfb8a6e16f86e54766a03,2022-06-29_09h20.54.418,Colour_Asymmetry_Pilot,2022.1.3,Win32,60.86427267,62bbe60bf3d75ef465d3e404,0,8,8,142,1,fourtwo,,,,,,,,,,,,,,,,,,,,,,,,,,,,,,,,,,,,,,,,,,,,,,,,,,,,,,,,,,,,,,,,,,,,,,,,,,,,,,,,,,,,,,,,,,,,,,,,,,,,,,,,,,,,,,,,,,,,,,,,,,,,,,,,,,,,,,,,,,,,,,,,,,,,,,,,
,,,,,,6070b67d921b68125705efd6,62bbfb8a6e16f86e54766a03,2022-06-29_09h20.54.418,Colour_Asymmetry_Pilot,2022.1.3,Win32,60.86427267,62bbe60bf3d75ef465d3e404,0,9,9,135,1,fourthree,,,,,,,,,,,,,,,,,,,,,,,,,,,,,,,,,,,,,,,,,,,,,,,,,,,,,,,,,,,,,,,,,,,,,,,,,,,,,,,,,,,,,,,,,,,,,,,,,,,,,,,,,,,,,,,,,,,,,,,,,,,,,,,,,,,,,,,,,,,,,,,,,,,,,,,,
,,,,,,6070b67d921b68125705efd6,62bbfb8a6e16f86e54766a03,2022-06-29_09h20.54.418,Colour_Asymmetry_Pilot,2022.1.3,Win32,60.86427267,62bbe60bf3d75ef465d3e404,0,10,10,39,1,fourthree,,,,,,,,,,,,,,,,,,,,,,,,,,,,,,,,,,,,,,,,,,,,,,,,,,,,,,,,,,,,,,,,,,,,,,,,,,,,,,,,,,,,,,,,,,,,,,,,,,,,,,,,,,,,,,,,,,,,,,,,,,,,,,,,,,,,,,,,,,,,,,,,,,,,,,,,
,,,,,,6070b67d921b68125705efd6,62bbfb8a6e16f86e54766a03,2022-06-29_09h20.54.418,Colour_Asymmetry_Pilot,2022.1.3,Win32,60.86427267,62bbe60bf3d75ef465d3e404,0,11,11,22,1,fourtwo,,,,,,,,,,,,,,,,,,,,,,,,,,,,,,,,,,,,,,,,,,,,,,,,,,,,,,,,,,,,,,,,,,,,,,,,,,,,,,,,,,,,,,,,,,,,,,,,,,,,,,,,,,,,,,,,,,,,,,,,,,,,,,,,,,,,,,,,,,,,,,,,,,,,,,,,
,,,,,,6070b67d921b68125705efd6,62bbfb8a6e16f86e54766a03,2022-06-29_09h20.54.418,Colour_Asymmetry_Pilot,2022.1.3,Win32,60.86427267,62bbe60bf3d75ef465d3e404,0,12,12,141,1,threefour,,,,,,,,,,,,,,,,,,,,,,,,,,,,,,,,,,,,,,,,,,,,,,,,,,,,,,,,,,,,,,,,,,,,,,,,,,,,,,,,,,,,,,,,,,,,,,,,,,,,,,,,,,,,,,,,,,,,,,,,,,,,,,,,,,,,,,,,,,,,,,,,,,,,,,,,
,,,,,,6070b67d921b68125705efd6,62bbfb8a6e16f86e54766a03,2022-06-29_09h20.54.418,Colour_Asymmetry_Pilot,2022.1.3,Win32,60.86427267,62bbe60bf3d75ef465d3e404,0,13,13,58,1,twoone,,,,,,,,,,,,,,,,,,,,,,,,,,,,,,,,,,,,,,,,,,,,,,,,,,,,,,,,,,,,,,,,,,,,,,,,,,,,,,,,,,,,,,,,,,,,,,,,,,,,,,,,,,,,,,,,,,,,,,,,,,,,,,,,,,,,,,,,,,,,,,,,,,,,,,,,
,,,,,,6070b67d921b68125705efd6,62bbfb8a6e16f86e54766a03,2022-06-29_09h20.54.418,Colour_Asymmetry_Pilot,2022.1.3,Win32,60.86427267,62bbe60bf3d75ef465d3e404,0,14,14,5,1,threefour,,,,,,,,,,,,,,,,,,,,,,,,,,,,,,,,,,,,,,,,,,,,,,,,,,,,,,,,,,,,,,,,,,,,,,,,,,,,,,,,,,,,,,,,,,,,,,,,,,,,,,,,,,,,,,,,,,,,,,,,,,,,,,,,,,,,,,,,,,,,,,,,,,,,,,,,
,,,,,,6070b67d921b68125705efd6,62bbfb8a6e16f86e54766a03,2022-06-29_09h20.54.418,Colour_Asymmetry_Pilot,2022.1.3,Win32,60.86427267,62bbe60bf3d75ef465d3e404,0,15,15,160,1,onetwo,,,,,,,,,,,,,,,,,,,,,,,,,,,,,,,,,,,,,,,,,,,,,,,,,,,,,,,,,,,,,,,,,,,,,,,,,,,,,,,,,,,,,,,,,,,,,,,,,,,,,,,,,,,,,,,,,,,,,,,,,,,,,,,,,,,,,,,,,,,,,,,,,,,,,,,,
,,,,,,6070b67d921b68125705efd6,62bbfb8a6e16f86e54766a03,2022-06-29_09h20.54.418,Colour_Asymmetry_Pilot,2022.1.3,Win32,60.86427267,62bbe60bf3d75ef465d3e404,0,16,16,7,1,fourthree,,,,,,,,,,,,,,,,,,,,,,,,,,,,,,,,,,,,,,,,,,,,,,,,,,,,,,,,,,,,,,,,,,,,,,,,,,,,,,,,,,,,,,,,,,,,,,,,,,,,,,,,,,,,,,,,,,,,,,,,,,,,,,,,,,,,,,,,,,,,,,,,,,,,,,,,
,,,,,,6070b67d921b68125705efd6,62bbfb8a6e16f86e54766a03,2022-06-29_09h20.54.418,Colour_Asymmetry_Pilot,2022.1.3,Win32,60.86427267,62bbe60bf3d75ef465d3e404,0,17,17,64,1,onetwo,,,,,,,,,,,,,,,,,,,,,,,,,,,,,,,,,,,,,,,,,,,,,,,,,,,,,,,,,,,,,,,,,,,,,,,,,,,,,,,,,,,,,,,,,,,,,,,,,,,,,,,,,,,,,,,,,,,,,,,,,,,,,,,,,,,,,,,,,,,,,,,,,,,,,,,,
,,,,,,6070b67d921b68125705efd6,62bbfb8a6e16f86e54766a03,2022-06-29_09h20.54.418,Colour_Asymmetry_Pilot,2022.1.3,Win32,60.86427267,62bbe60bf3d75ef465d3e404,0,18,18,15,1,fourthree,,,,,,,,,,,,,,,,,,,,,,,,,,,,,,,,,,,,,,,,,,,,,,,,,,,,,,,,,,,,,,,,,,,,,,,,,,,,,,,,,,,,,,,,,,,,,,,,,,,,,,,,,,,,,,,,,,,,,,,,,,,,,,,,,,,,,,,,,,,,,,,,,,,,,,,,
,,,,,,6070b67d921b68125705efd6,62bbfb8a6e16f86e54766a03,2022-06-29_09h20.54.418,Colour_Asymmetry_Pilot,2022.1.3,Win32,60.86427267,62bbe60bf3d75ef465d3e404,0,19,19,11,1,twofour,,,,,,,,,,,,,,,,,,,,,,,,,,,,,,,,,,,,,,,,,,,,,,,,,,,,,,,,,,,,,,,,,,,,,,,,,,,,,,,,,,,,,,,,,,,,,,,,,,,,,,,,,,,,,,,,,,,,,,,,,,,,,,,,,,,,,,,,,,,,,,,,,,,,,,,,
,,,,,,6070b67d921b68125705efd6,62bbfb8a6e16f86e54766a03,2022-06-29_09h20.54.418,Colour_Asymmetry_Pilot,2022.1.3,Win32,60.86427267,62bbe60bf3d75ef465d3e404,0,20,20,110,1,fourtwo,,,,,,,,,,,,,,,,,,,,,,,,,,,,,,,,,,,,,,,,,,,,,,,,,,,,,,,,,,,,,,,,,,,,,,,,,,,,,,,,,,,,,,,,,,,,,,,,,,,,,,,,,,,,,,,,,,,,,,,,,,,,,,,,,,,,,,,,,,,,,,,,,,,,,,,,
,,,,,,6070b67d921b68125705efd6,62bbfb8a6e16f86e54766a03,2022-06-29_09h20.54.418,Colour_Asymmetry_Pilot,2022.1.3,Win32,60.86427267,62bbe60bf3d75ef465d3e404,0,21,21,102,1,fourtwo,,,,,,,,,,,,,,,,,,,,,,,,,,,,,,,,,,,,,,,,,,,,,,,,,,,,,,,,,,,,,,,,,,,,,,,,,,,,,,,,,,,,,,,,,,,,,,,,,,,,,,,,,,,,,,,,,,,,,,,,,,,,,,,,,,,,,,,,,,,,,,,,,,,,,,,,
,,,,,,6070b67d921b68125705efd6,62bbfb8a6e16f86e54766a03,2022-06-29_09h20.54.418,Colour_Asymmetry_Pilot,2022.1.3,Win32,60.86427267,62bbe60bf3d75ef465d3e404,0,22,22,112,1,onetwo,,,,,,,,,,,,,,,,,,,,,,,,,,,,,,,,,,,,,,,,,,,,,,,,,,,,,,,,,,,,,,,,,,,,,,,,,,,,,,,,,,,,,,,,,,,,,,,,,,,,,,,,,,,,,,,,,,,,,,,,,,,,,,,,,,,,,,,,,,,,,,,,,,,,,,,,
,,,,,,6070b67d921b68125705efd6,62bbfb8a6e16f86e54766a03,2022-06-29_09h20.54.418,Colour_Asymmetry_Pilot,2022.1.3,Win32,60.86427267,62bbe60bf3d75ef465d3e404,0,23,23,132,1,threeone,,,,,,,,,,,,,,,,,,,,,,,,,,,,,,,,,,,,,,,,,,,,,,,,,,,,,,,,,,,,,,,,,,,,,,,,,,,,,,,,,,,,,,,,,,,,,,,,,,,,,,,,,,,,,,,,,,,,,,,,,,,,,,,,,,,,,,,,,,,,,,,,,,,,,,,,
,,,,,,6070b67d921b68125705efd6,62bbfb8a6e16f86e54766a03,2022-06-29_09h20.54.418,Colour_Asymmetry_Pilot,2022.1.3,Win32,60.86427267,62bbe60bf3d75ef465d3e404,0,24,24,113,1,onethree,,,,,,,,,,,,,,,,,,,,,,,,,,,,,,,,,,,,,,,,,,,,,,,,,,,,,,,,,,,,,,,,,,,,,,,,,,,,,,,,,,,,,,,,,,,,,,,,,,,,,,,,,,,,,,,,,,,,,,,,,,,,,,,,,,,,,,,,,,,,,,,,,,,,,,,,
,,,,,,6070b67d921b68125705efd6,62bbfb8a6e16f86e54766a03,2022-06-29_09h20.54.418,Colour_Asymmetry_Pilot,2022.1.3,Win32,60.86427267,62bbe60bf3d75ef465d3e404,0,25,25,83,1,twofour,,,,,,,,,,,,,,,,,,,,,,,,,,,,,,,,,,,,,,,,,,,,,,,,,,,,,,,,,,,,,,,,,,,,,,,,,,,,,,,,,,,,,,,,,,,,,,,,,,,,,,,,,,,,,,,,,,,,,,,,,,,,,,,,,,,,,,,,,,,,,,,,,,,,,,,,
,,,,,,6070b67d921b68125705efd6,62bbfb8a6e16f86e54766a03,2022-06-29_09h20.54.418,Colour_Asymmetry_Pilot,2022.1.3,Win32,60.86427267,62bbe60bf3d75ef465d3e404,0,26,26,143,1,fourthree,,,,,,,,,,,,,,,,,,,,,,,,,,,,,,,,,,,,,,,,,,,,,,,,,,,,,,,,,,,,,,,,,,,,,,,,,,,,,,,,,,,,,,,,,,,,,,,,,,,,,,,,,,,,,,,,,,,,,,,,,,,,,,,,,,,,,,,,,,,,,,,,,,,,,,,,
,,,,,,6070b67d921b68125705efd6,62bbfb8a6e16f86e54766a03,2022-06-29_09h20.54.418,Colour_Asymmetry_Pilot,2022.1.3,Win32,60.86427267,62bbe60bf3d75ef465d3e404,0,27,27,128,1,onetwo,,,,,,,,,,,,,,,,,,,,,,,,,,,,,,,,,,,,,,,,,,,,,,,,,,,,,,,,,,,,,,,,,,,,,,,,,,,,,,,,,,,,,,,,,,,,,,,,,,,,,,,,,,,,,,,,,,,,,,,,,,,,,,,,,,,,,,,,,,,,,,,,,,,,,,,,
,,,,,,6070b67d921b68125705efd6,62bbfb8a6e16f86e54766a03,2022-06-29_09h20.54.418,Colour_Asymmetry_Pilot,2022.1.3,Win32,60.86427267,62bbe60bf3d75ef465d3e404,0,28,28,97,1,onethree,,,,,,,,,,,,,,,,,,,,,,,,,,,,,,,,,,,,,,,,,,,,,,,,,,,,,,,,,,,,,,,,,,,,,,,,,,,,,,,,,,,,,,,,,,,,,,,,,,,,,,,,,,,,,,,,,,,,,,,,,,,,,,,,,,,,,,,,,,,,,,,,,,,,,,,,
,,,,,,6070b67d921b68125705efd6,62bbfb8a6e16f86e54766a03,2022-06-29_09h20.54.418,Colour_Asymmetry_Pilot,2022.1.3,Win32,60.86427267,62bbe60bf3d75ef465d3e404,0,29,29,119,1,fourthree,,,,,,,,,,,,,,,,,,,,,,,,,,,,,,,,,,,,,,,,,,,,,,,,,,,,,,,,,,,,,,,,,,,,,,,,,,,,,,,,,,,,,,,,,,,,,,,,,,,,,,,,,,,,,,,,,,,,,,,,,,,,,,,,,,,,,,,,,,,,,,,,,,,,,,,,
,,,,,,6070b67d921b68125705efd6,62bbfb8a6e16f86e54766a03,2022-06-29_09h20.54.418,Colour_Asymmetry_Pilot,2022.1.3,Win32,60.86427267,62bbe60bf3d75ef465d3e404,0,30,30,13,1,threefour,,,,,,,,,,,,,,,,,,,,,,,,,,,,,,,,,,,,,,,,,,,,,,,,,,,,,,,,,,,,,,,,,,,,,,,,,,,,,,,,,,,,,,,,,,,,,,,,,,,,,,,,,,,,,,,,,,,,,,,,,,,,,,,,,,,,,,,,,,,,,,,,,,,,,,,,
,,,,,,6070b67d921b68125705efd6,62bbfb8a6e16f86e54766a03,2022-06-29_09h20.54.418,Colour_Asymmetry_Pilot,2022.1.3,Win32,60.86427267,62bbe60bf3d75ef465d3e404,0,31,31,94,1,fourtwo,,,,,,,,,,,,,,,,,,,,,,,,,,,,,,,,,,,,,,,,,,,,,,,,,,,,,,,,,,,,,,,,,,,,,,,,,,,,,,,,,,,,,,,,,,,,,,,,,,,,,,,,,,,,,,,,,,,,,,,,,,,,,,,,,,,,,,,,,,,,,,,,,,,,,,,,
,,,,,,6070b67d921b68125705efd6,62bbfb8a6e16f86e54766a03,2022-06-29_09h20.54.418,Colour_Asymmetry_Pilot,2022.1.3,Win32,60.86427267,62bbe60bf3d75ef465d3e404,0,32,32,56,1,onetwo,,,,,,,,,,,,,,,,,,,,,,,,,,,,,,,,,,,,,,,,,,,,,,,,,,,,,,,,,,,,,,,,,,,,,,,,,,,,,,,,,,,,,,,,,,,,,,,,,,,,,,,,,,,,,,,,,,,,,,,,,,,,,,,,,,,,,,,,,,,,,,,,,,,,,,,,
,,,,,,6070b67d921b68125705efd6,62bbfb8a6e16f86e54766a03,2022-06-29_09h20.54.418,Colour_Asymmetry_Pilot,2022.1.3,Win32,60.86427267,62bbe60bf3d75ef465d3e404,0,33,33,43,1,twofour,,,,,,,,,,,,,,,,,,,,,,,,,,,,,,,,,,,,,,,,,,,,,,,,,,,,,,,,,,,,,,,,,,,,,,,,,,,,,,,,,,,,,,,,,,,,,,,,,,,,,,,,,,,,,,,,,,,,,,,,,,,,,,,,,,,,,,,,,,,,,,,,,,,,,,,,
,,,,,,6070b67d921b68125705efd6,62bbfb8a6e16f86e54766a03,2022-06-29_09h20.54.418,Colour_Asymmetry_Pilot,2022.1.3,Win32,60.86427267,62bbe60bf3d75ef465d3e404,0,34,34,88,1,onetwo,,,,,,,,,,,,,,,,,,,,,,,,,,,,,,,,,,,,,,,,,,,,,,,,,,,,,,,,,,,,,,,,,,,,,,,,,,,,,,,,,,,,,,,,,,,,,,,,,,,,,,,,,,,,,,,,,,,,,,,,,,,,,,,,,,,,,,,,,,,,,,,,,,,,,,,,
,,,,,,6070b67d921b68125705efd6,62bbfb8a6e16f86e54766a03,2022-06-29_09h20.54.418,Colour_Asymmetry_Pilot,2022.1.3,Win32,60.86427267,62bbe60bf3d75ef465d3e404,0,35,35,89,1,onethree,,,,,,,,,,,,,,,,,,,,,,,,,,,,,,,,,,,,,,,,,,,,,,,,,,,,,,,,,,,,,,,,,,,,,,,,,,,,,,,,,,,,,,,,,,,,,,,,,,,,,,,,,,,,,,,,,,,,,,,,,,,,,,,,,,,,,,,,,,,,,,,,,,,,,,,,
,,,,,,6070b67d921b68125705efd6,62bbfb8a6e16f86e54766a03,2022-06-29_09h20.54.418,Colour_Asymmetry_Pilot,2022.1.3,Win32,60.86427267,62bbe60bf3d75ef465d3e404,0,36,36,115,1,twofour,,,,,,,,,,,,,,,,,,,,,,,,,,,,,,,,,,,,,,,,,,,,,,,,,,,,,,,,,,,,,,,,,,,,,,,,,,,,,,,,,,,,,,,,,,,,,,,,,,,,,,,,,,,,,,,,,,,,,,,,,,,,,,,,,,,,,,,,,,,,,,,,,,,,,,,,
,,,,,,6070b67d921b68125705efd6,62bbfb8a6e16f86e54766a03,2022-06-29_09h20.54.418,Colour_Asymmetry_Pilot,2022.1.3,Win32,60.86427267,62bbe60bf3d75ef465d3e404,0,37,37,26,1,twoone,,,,,,,,,,,,,,,,,,,,,,,,,,,,,,,,,,,,,,,,,,,,,,,,,,,,,,,,,,,,,,,,,,,,,,,,,,,,,,,,,,,,,,,,,,,,,,,,,,,,,,,,,,,,,,,,,,,,,,,,,,,,,,,,,,,,,,,,,,,,,,,,,,,,,,,,
,,,,,,6070b67d921b68125705efd6,62bbfb8a6e16f86e54766a03,2022-06-29_09h20.54.418,Colour_Asymmetry_Pilot,2022.1.3,Win32,60.86427267,62bbe60bf3d75ef465d3e404,0,38,38,27,1,twofour,,,,,,,,,,,,,,,,,,,,,,,,,,,,,,,,,,,,,,,,,,,,,,,,,,,,,,,,,,,,,,,,,,,,,,,,,,,,,,,,,,,,,,,,,,,,,,,,,,,,,,,,,,,,,,,,,,,,,,,,,,,,,,,,,,,,,,,,,,,,,,,,,,,,,,,,
,,,,,,6070b67d921b68125705efd6,62bbfb8a6e16f86e54766a03,2022-06-29_09h20.54.418,Colour_Asymmetry_Pilot,2022.1.3,Win32,60.86427267,62bbe60bf3d75ef465d3e404,0,39,39,107,1,twofour,,,,,,,,,,,,,,,,,,,,,,,,,,,,,,,,,,,,,,,,,,,,,,,,,,,,,,,,,,,,,,,,,,,,,,,,,,,,,,,,,,,,,,,,,,,,,,,,,,,,,,,,,,,,,,,,,,,,,,,,,,,,,,,,,,,,,,,,,,,,,,,,,,,,,,,,
,,,,,,6070b67d921b68125705efd6,62bbfb8a6e16f86e54766a03,2022-06-29_09h20.54.418,Colour_Asymmetry_Pilot,2022.1.3,Win32,60.86427267,62bbe60bf3d75ef465d3e404,0,40,40,103,1,fourthree,,,,,,,,,,,,,,,,,,,,,,,,,,,,,,,,,,,,,,,,,,,,,,,,,,,,,,,,,,,,,,,,,,,,,,,,,,,,,,,,,,,,,,,,,,,,,,,,,,,,,,,,,,,,,,,,,,,,,,,,,,,,,,,,,,,,,,,,,,,,,,,,,,,,,,,,
,,,,,,6070b67d921b68125705efd6,62bbfb8a6e16f86e54766a03,2022-06-29_09h20.54.418,Colour_Asymmetry_Pilot,2022.1.3,Win32,60.86427267,62bbe60bf3d75ef465d3e404,0,41,41,122,1,twoone,,,,,,,,,,,,,,,,,,,,,,,,,,,,,,,,,,,,,,,,,,,,,,,,,,,,,,,,,,,,,,,,,,,,,,,,,,,,,,,,,,,,,,,,,,,,,,,,,,,,,,,,,,,,,,,,,,,,,,,,,,,,,,,,,,,,,,,,,,,,,,,,,,,,,,,,
,,,,,,6070b67d921b68125705efd6,62bbfb8a6e16f86e54766a03,2022-06-29_09h20.54.418,Colour_Asymmetry_Pilot,2022.1.3,Win32,60.86427267,62bbe60bf3d75ef465d3e404,0,42,42,104,1,onetwo,,,,,,,,,,,,,,,,,,,,,,,,,,,,,,,,,,,,,,,,,,,,,,,,,,,,,,,,,,,,,,,,,,,,,,,,,,,,,,,,,,,,,,,,,,,,,,,,,,,,,,,,,,,,,,,,,,,,,,,,,,,,,,,,,,,,,,,,,,,,,,,,,,,,,,,,
,,,,,,6070b67d921b68125705efd6,62bbfb8a6e16f86e54766a03,2022-06-29_09h20.54.418,Colour_Asymmetry_Pilot,2022.1.3,Win32,60.86427267,62bbe60bf3d75ef465d3e404,0,43,43,49,1,onethree,,,,,,,,,,,,,,,,,,,,,,,,,,,,,,,,,,,,,,,,,,,,,,,,,,,,,,,,,,,,,,,,,,,,,,,,,,,,,,,,,,,,,,,,,,,,,,,,,,,,,,,,,,,,,,,,,,,,,,,,,,,,,,,,,,,,,,,,,,,,,,,,,,,,,,,,
,,,,,,6070b67d921b68125705efd6,62bbfb8a6e16f86e54766a03,2022-06-29_09h20.54.418,Colour_Asymmetry_Pilot,2022.1.3,Win32,60.86427267,62bbe60bf3d75ef465d3e404,0,44,44,155,1,twofour,,,,,,,,,,,,,,,,,,,,,,,,,,,,,,,,,,,,,,,,,,,,,,,,,,,,,,,,,,,,,,,,,,,,,,,,,,,,,,,,,,,,,,,,,,,,,,,,,,,,,,,,,,,,,,,,,,,,,,,,,,,,,,,,,,,,,,,,,,,,,,,,,,,,,,,,
,,,,,,6070b67d921b68125705efd6,62bbfb8a6e16f86e54766a03,2022-06-29_09h20.54.418,Colour_Asymmetry_Pilot,2022.1.3,Win32,60.86427267,62bbe60bf3d75ef465d3e404,0,45,45,125,1,threefour,,,,,,,,,,,,,,,,,,,,,,,,,,,,,,,,,,,,,,,,,,,,,,,,,,,,,,,,,,,,,,,,,,,,,,,,,,,,,,,,,,,,,,,,,,,,,,,,,,,,,,,,,,,,,,,,,,,,,,,,,,,,,,,,,,,,,,,,,,,,,,,,,,,,,,,,
,,,,,,6070b67d921b68125705efd6,62bbfb8a6e16f86e54766a03,2022-06-29_09h20.54.418,Colour_Asymmetry_Pilot,2022.1.3,Win32,60.86427267,62bbe60bf3d75ef465d3e404,0,46,46,126,1,fourtwo,,,,,,,,,,,,,,,,,,,,,,,,,,,,,,,,,,,,,,,,,,,,,,,,,,,,,,,,,,,,,,,,,,,,,,,,,,,,,,,,,,,,,,,,,,,,,,,,,,,,,,,,,,,,,,,,,,,,,,,,,,,,,,,,,,,,,,,,,,,,,,,,,,,,,,,,
,,,,,,6070b67d921b68125705efd6,62bbfb8a6e16f86e54766a03,2022-06-29_09h20.54.418,Colour_Asymmetry_Pilot,2022.1.3,Win32,60.86427267,62bbe60bf3d75ef465d3e404,0,47,47,18,1,twoone,,,,,,,,,,,,,,,,,,,,,,,,,,,,,,,,,,,,,,,,,,,,,,,,,,,,,,,,,,,,,,,,,,,,,,,,,,,,,,,,,,,,,,,,,,,,,,,,,,,,,,,,,,,,,,,,,,,,,,,,,,,,,,,,,,,,,,,,,,,,,,,,,,,,,,,,
,,,,,,6070b67d921b68125705efd6,62bbfb8a6e16f86e54766a03,2022-06-29_09h20.54.418,Colour_Asymmetry_Pilot,2022.1.3,Win32,60.86427267,62bbe60bf3d75ef465d3e404,0,48,48,16,1,onetwo,,,,,,,,,,,,,,,,,,,,,,,,,,,,,,,,,,,,,,,,,,,,,,,,,,,,,,,,,,,,,,,,,,,,,,,,,,,,,,,,,,,,,,,,,,,,,,,,,,,,,,,,,,,,,,,,,,,,,,,,,,,,,,,,,,,,,,,,,,,,,,,,,,,,,,,,
,,,,,,6070b67d921b68125705efd6,62bbfb8a6e16f86e54766a03,2022-06-29_09h20.54.418,Colour_Asymmetry_Pilot,2022.1.3,Win32,60.86427267,62bbe60bf3d75ef465d3e404,0,49,49,157,1,threefour,,,,,,,,,,,,,,,,,,,,,,,,,,,,,,,,,,,,,,,,,,,,,,,,,,,,,,,,,,,,,,,,,,,,,,,,,,,,,,,,,,,,,,,,,,,,,,,,,,,,,,,,,,,,,,,,,,,,,,,,,,,,,,,,,,,,,,,,,,,,,,,,,,,,,,,,
,,,,,,6070b67d921b68125705efd6,62bbfb8a6e16f86e54766a03,2022-06-29_09h20.54.418,Colour_Asymmetry_Pilot,2022.1.3,Win32,60.86427267,62bbe60bf3d75ef465d3e404,0,50,50,42,1,twoone,,,,,,,,,,,,,,,,,,,,,,,,,,,,,,,,,,,,,,,,,,,,,,,,,,,,,,,,,,,,,,,,,,,,,,,,,,,,,,,,,,,,,,,,,,,,,,,,,,,,,,,,,,,,,,,,,,,,,,,,,,,,,,,,,,,,,,,,,,,,,,,,,,,,,,,,
,,,,,,6070b67d921b68125705efd6,62bbfb8a6e16f86e54766a03,2022-06-29_09h20.54.418,Colour_Asymmetry_Pilot,2022.1.3,Win32,60.86427267,62bbe60bf3d75ef465d3e404,0,51,51,10,1,twoone,,,,,,,,,,,,,,,,,,,,,,,,,,,,,,,,,,,,,,,,,,,,,,,,,,,,,,,,,,,,,,,,,,,,,,,,,,,,,,,,,,,,,,,,,,,,,,,,,,,,,,,,,,,,,,,,,,,,,,,,,,,,,,,,,,,,,,,,,,,,,,,,,,,,,,,,
,,,,,,6070b67d921b68125705efd6,62bbfb8a6e16f86e54766a03,2022-06-29_09h20.54.418,Colour_Asymmetry_Pilot,2022.1.3,Win32,60.86427267,62bbe60bf3d75ef465d3e404,0,52,52,44,1,threeone,,,,,,,,,,,,,,,,,,,,,,,,,,,,,,,,,,,,,,,,,,,,,,,,,,,,,,,,,,,,,,,,,,,,,,,,,,,,,,,,,,,,,,,,,,,,,,,,,,,,,,,,,,,,,,,,,,,,,,,,,,,,,,,,,,,,,,,,,,,,,,,,,,,,,,,,
,,,,,,6070b67d921b68125705efd6,62bbfb8a6e16f86e54766a03,2022-06-29_09h20.54.418,Colour_Asymmetry_Pilot,2022.1.3,Win32,60.86427267,62bbe60bf3d75ef465d3e404,0,53,53,153,1,onethree,,,,,,,,,,,,,,,,,,,,,,,,,,,,,,,,,,,,,,,,,,,,,,,,,,,,,,,,,,,,,,,,,,,,,,,,,,,,,,,,,,,,,,,,,,,,,,,,,,,,,,,,,,,,,,,,,,,,,,,,,,,,,,,,,,,,,,,,,,,,,,,,,,,,,,,,
,,,,,,6070b67d921b68125705efd6,62bbfb8a6e16f86e54766a03,2022-06-29_09h20.54.418,Colour_Asymmetry_Pilot,2022.1.3,Win32,60.86427267,62bbe60bf3d75ef465d3e404,0,54,54,12,1,threeone,,,,,,,,,,,,,,,,,,,,,,,,,,,,,,,,,,,,,,,,,,,,,,,,,,,,,,,,,,,,,,,,,,,,,,,,,,,,,,,,,,,,,,,,,,,,,,,,,,,,,,,,,,,,,,,,,,,,,,,,,,,,,,,,,,,,,,,,,,,,,,,,,,,,,,,,
,,,,,,6070b67d921b68125705efd6,62bbfb8a6e16f86e54766a03,2022-06-29_09h20.54.418,Colour_Asymmetry_Pilot,2022.1.3,Win32,60.86427267,62bbe60bf3d75ef465d3e404,0,55,55,48,1,onetwo,,,,,,,,,,,,,,,,,,,,,,,,,,,,,,,,,,,,,,,,,,,,,,,,,,,,,,,,,,,,,,,,,,,,,,,,,,,,,,,,,,,,,,,,,,,,,,,,,,,,,,,,,,,,,,,,,,,,,,,,,,,,,,,,,,,,,,,,,,,,,,,,,,,,,,,,
,,,,,,6070b67d921b68125705efd6,62bbfb8a6e16f86e54766a03,2022-06-29_09h20.54.418,Colour_Asymmetry_Pilot,2022.1.3,Win32,60.86427267,62bbe60bf3d75ef465d3e404,0,56,56,65,1,onethree,,,,,,,,,,,,,,,,,,,,,,,,,,,,,,,,,,,,,,,,,,,,,,,,,,,,,,,,,,,,,,,,,,,,,,,,,,,,,,,,,,,,,,,,,,,,,,,,,,,,,,,,,,,,,,,,,,,,,,,,,,,,,,,,,,,,,,,,,,,,,,,,,,,,,,,,
,,,,,,6070b67d921b68125705efd6,62bbfb8a6e16f86e54766a03,2022-06-29_09h20.54.418,Colour_Asymmetry_Pilot,2022.1.3,Win32,60.86427267,62bbe60bf3d75ef465d3e404,0,57,57,24,1,onetwo,,,,,,,,,,,,,,,,,,,,,,,,,,,,,,,,,,,,,,,,,,,,,,,,,,,,,,,,,,,,,,,,,,,,,,,,,,,,,,,,,,,,,,,,,,,,,,,,,,,,,,,,,,,,,,,,,,,,,,,,,,,,,,,,,,,,,,,,,,,,,,,,,,,,,,,,
,,,,,,6070b67d921b68125705efd6,62bbfb8a6e16f86e54766a03,2022-06-29_09h20.54.418,Colour_Asymmetry_Pilot,2022.1.3,Win32,60.86427267,62bbe60bf3d75ef465d3e404,0,58,58,80,1,onetwo,,,,,,,,,,,,,,,,,,,,,,,,,,,,,,,,,,,,,,,,,,,,,,,,,,,,,,,,,,,,,,,,,,,,,,,,,,,,,,,,,,,,,,,,,,,,,,,,,,,,,,,,,,,,,,,,,,,,,,,,,,,,,,,,,,,,,,,,,,,,,,,,,,,,,,,,
,,,,,,6070b67d921b68125705efd6,62bbfb8a6e16f86e54766a03,2022-06-29_09h20.54.418,Colour_Asymmetry_Pilot,2022.1.3,Win32,60.86427267,62bbe60bf3d75ef465d3e404,0,59,59,117,1,threefour,,,,,,,,,,,,,,,,,,,,,,,,,,,,,,,,,,,,,,,,,,,,,,,,,,,,,,,,,,,,,,,,,,,,,,,,,,,,,,,,,,,,,,,,,,,,,,,,,,,,,,,,,,,,,,,,,,,,,,,,,,,,,,,,,,,,,,,,,,,,,,,,,,,,,,,,
,,,,,,6070b67d921b68125705efd6,62bbfb8a6e16f86e54766a03,2022-06-29_09h20.54.418,Colour_Asymmetry_Pilot,2022.1.3,Win32,60.86427267,62bbe60bf3d75ef465d3e404,0,60,60,105,1,onethree,,,,,,,,,,,,,,,,,,,,,,,,,,,,,,,,,,,,,,,,,,,,,,,,,,,,,,,,,,,,,,,,,,,,,,,,,,,,,,,,,,,,,,,,,,,,,,,,,,,,,,,,,,,,,,,,,,,,,,,,,,,,,,,,,,,,,,,,,,,,,,,,,,,,,,,,
,,,,,,6070b67d921b68125705efd6,62bbfb8a6e16f86e54766a03,2022-06-29_09h20.54.418,Colour_Asymmetry_Pilot,2022.1.3,Win32,60.86427267,62bbe60bf3d75ef465d3e404,0,61,61,6,1,fourtwo,,,,,,,,,,,,,,,,,,,,,,,,,,,,,,,,,,,,,,,,,,,,,,,,,,,,,,,,,,,,,,,,,,,,,,,,,,,,,,,,,,,,,,,,,,,,,,,,,,,,,,,,,,,,,,,,,,,,,,,,,,,,,,,,,,,,,,,,,,,,,,,,,,,,,,,,
,,,,,,6070b67d921b68125705efd6,62bbfb8a6e16f86e54766a03,2022-06-29_09h20.54.418,Colour_Asymmetry_Pilot,2022.1.3,Win32,60.86427267,62bbe60bf3d75ef465d3e404,0,62,62,69,1,threefour,,,,,,,,,,,,,,,,,,,,,,,,,,,,,,,,,,,,,,,,,,,,,,,,,,,,,,,,,,,,,,,,,,,,,,,,,,,,,,,,,,,,,,,,,,,,,,,,,,,,,,,,,,,,,,,,,,,,,,,,,,,,,,,,,,,,,,,,,,,,,,,,,,,,,,,,
,,,,,,6070b67d921b68125705efd6,62bbfb8a6e16f86e54766a03,2022-06-29_09h20.54.418,Colour_Asymmetry_Pilot,2022.1.3,Win32,60.86427267,62bbe60bf3d75ef465d3e404,0,63,63,23,1,fourthree,,,,,,,,,,,,,,,,,,,,,,,,,,,,,,,,,,,,,,,,,,,,,,,,,,,,,,,,,,,,,,,,,,,,,,,,,,,,,,,,,,,,,,,,,,,,,,,,,,,,,,,,,,,,,,,,,,,,,,,,,,,,,,,,,,,,,,,,,,,,,,,,,,,,,,,,
,,,,,,6070b67d921b68125705efd6,62bbfb8a6e16f86e54766a03,2022-06-29_09h20.54.418,Colour_Asymmetry_Pilot,2022.1.3,Win32,60.86427267,62bbe60bf3d75ef465d3e404,0,64,64,87,1,fourthree,,,,,,,,,,,,,,,,,,,,,,,,,,,,,,,,,,,,,,,,,,,,,,,,,,,,,,,,,,,,,,,,,,,,,,,,,,,,,,,,,,,,,,,,,,,,,,,,,,,,,,,,,,,,,,,,,,,,,,,,,,,,,,,,,,,,,,,,,,,,,,,,,,,,,,,,
,,,,,,6070b67d921b68125705efd6,62bbfb8a6e16f86e54766a03,2022-06-29_09h20.54.418,Colour_Asymmetry_Pilot,2022.1.3,Win32,60.86427267,62bbe60bf3d75ef465d3e404,0,65,65,25,1,onethree,,,,,,,,,,,,,,,,,,,,,,,,,,,,,,,,,,,,,,,,,,,,,,,,,,,,,,,,,,,,,,,,,,,,,,,,,,,,,,,,,,,,,,,,,,,,,,,,,,,,,,,,,,,,,,,,,,,,,,,,,,,,,,,,,,,,,,,,,,,,,,,,,,,,,,,,
,,,,,,6070b67d921b68125705efd6,62bbfb8a6e16f86e54766a03,2022-06-29_09h20.54.418,Colour_Asymmetry_Pilot,2022.1.3,Win32,60.86427267,62bbe60bf3d75ef465d3e404,0,66,66,154,1,twoone,,,,,,,,,,,,,,,,,,,,,,,,,,,,,,,,,,,,,,,,,,,,,,,,,,,,,,,,,,,,,,,,,,,,,,,,,,,,,,,,,,,,,,,,,,,,,,,,,,,,,,,,,,,,,,,,,,,,,,,,,,,,,,,,,,,,,,,,,,,,,,,,,,,,,,,,
,,,,,,6070b67d921b68125705efd6,62bbfb8a6e16f86e54766a03,2022-06-29_09h20.54.418,Colour_Asymmetry_Pilot,2022.1.3,Win32,60.86427267,62bbe60bf3d75ef465d3e404,0,67,67,133,1,threefour,,,,,,,,,,,,,,,,,,,,,,,,,,,,,,,,,,,,,,,,,,,,,,,,,,,,,,,,,,,,,,,,,,,,,,,,,,,,,,,,,,,,,,,,,,,,,,,,,,,,,,,,,,,,,,,,,,,,,,,,,,,,,,,,,,,,,,,,,,,,,,,,,,,,,,,,
,,,,,,6070b67d921b68125705efd6,62bbfb8a6e16f86e54766a03,2022-06-29_09h20.54.418,Colour_Asymmetry_Pilot,2022.1.3,Win32,60.86427267,62bbe60bf3d75ef465d3e404,0,68,68,158,1,fourtwo,,,,,,,,,,,,,,,,,,,,,,,,,,,,,,,,,,,,,,,,,,,,,,,,,,,,,,,,,,,,,,,,,,,,,,,,,,,,,,,,,,,,,,,,,,,,,,,,,,,,,,,,,,,,,,,,,,,,,,,,,,,,,,,,,,,,,,,,,,,,,,,,,,,,,,,,
,,,,,,6070b67d921b68125705efd6,62bbfb8a6e16f86e54766a03,2022-06-29_09h20.54.418,Colour_Asymmetry_Pilot,2022.1.3,Win32,60.86427267,62bbe60bf3d75ef465d3e404,0,69,69,145,1,onethree,,,,,,,,,,,,,,,,,,,,,,,,,,,,,,,,,,,,,,,,,,,,,,,,,,,,,,,,,,,,,,,,,,,,,,,,,,,,,,,,,,,,,,,,,,,,,,,,,,,,,,,,,,,,,,,,,,,,,,,,,,,,,,,,,,,,,,,,,,,,,,,,,,,,,,,,
,,,,,,6070b67d921b68125705efd6,62bbfb8a6e16f86e54766a03,2022-06-29_09h20.54.418,Colour_Asymmetry_Pilot,2022.1.3,Win32,60.86427267,62bbe60bf3d75ef465d3e404,0,70,70,57,1,onethree,,,,,,,,,,,,,,,,,,,,,,,,,,,,,,,,,,,,,,,,,,,,,,,,,,,,,,,,,,,,,,,,,,,,,,,,,,,,,,,,,,,,,,,,,,,,,,,,,,,,,,,,,,,,,,,,,,,,,,,,,,,,,,,,,,,,,,,,,,,,,,,,,,,,,,,,
,,,,,,6070b67d921b68125705efd6,62bbfb8a6e16f86e54766a03,2022-06-29_09h20.54.418,Colour_Asymmetry_Pilot,2022.1.3,Win32,60.86427267,62bbe60bf3d75ef465d3e404,0,71,71,114,1,twoone,,,,,,,,,,,,,,,,,,,,,,,,,,,,,,,,,,,,,,,,,,,,,,,,,,,,,,,,,,,,,,,,,,,,,,,,,,,,,,,,,,,,,,,,,,,,,,,,,,,,,,,,,,,,,,,,,,,,,,,,,,,,,,,,,,,,,,,,,,,,,,,,,,,,,,,,
,,,,,,6070b67d921b68125705efd6,62bbfb8a6e16f86e54766a03,2022-06-29_09h20.54.418,Colour_Asymmetry_Pilot,2022.1.3,Win32,60.86427267,62bbe60bf3d75ef465d3e404,0,72,72,28,1,threeone,,,,,,,,,,,,,,,,,,,,,,,,,,,,,,,,,,,,,,,,,,,,,,,,,,,,,,,,,,,,,,,,,,,,,,,,,,,,,,,,,,,,,,,,,,,,,,,,,,,,,,,,,,,,,,,,,,,,,,,,,,,,,,,,,,,,,,,,,,,,,,,,,,,,,,,,
,,,,,,6070b67d921b68125705efd6,62bbfb8a6e16f86e54766a03,2022-06-29_09h20.54.418,Colour_Asymmetry_Pilot,2022.1.3,Win32,60.86427267,62bbe60bf3d75ef465d3e404,0,73,73,31,1,fourthree,,,,,,,,,,,,,,,,,,,,,,,,,,,,,,,,,,,,,,,,,,,,,,,,,,,,,,,,,,,,,,,,,,,,,,,,,,,,,,,,,,,,,,,,,,,,,,,,,,,,,,,,,,,,,,,,,,,,,,,,,,,,,,,,,,,,,,,,,,,,,,,,,,,,,,,,
,,,,,,6070b67d921b68125705efd6,62bbfb8a6e16f86e54766a03,2022-06-29_09h20.54.418,Colour_Asymmetry_Pilot,2022.1.3,Win32,60.86427267,62bbe60bf3d75ef465d3e404,0,74,74,93,1,threefour,,,,,,,,,,,,,,,,,,,,,,,,,,,,,,,,,,,,,,,,,,,,,,,,,,,,,,,,,,,,,,,,,,,,,,,,,,,,,,,,,,,,,,,,,,,,,,,,,,,,,,,,,,,,,,,,,,,,,,,,,,,,,,,,,,,,,,,,,,,,,,,,,,,,,,,,
,,,,,,6070b67d921b68125705efd6,62bbfb8a6e16f86e54766a03,2022-06-29_09h20.54.418,Colour_Asymmetry_Pilot,2022.1.3,Win32,60.86427267,62bbe60bf3d75ef465d3e404,0,75,75,2,1,twoone,,,,,,,,,,,,,,,,,,,,,,,,,,,,,,,,,,,,,,,,,,,,,,,,,,,,,,,,,,,,,,,,,,,,,,,,,,,,,,,,,,,,,,,,,,,,,,,,,,,,,,,,,,,,,,,,,,,,,,,,,,,,,,,,,,,,,,,,,,,,,,,,,,,,,,,,
,,,,,,6070b67d921b68125705efd6,62bbfb8a6e16f86e54766a03,2022-06-29_09h20.54.418,Colour_Asymmetry_Pilot,2022.1.3,Win32,60.86427267,62bbe60bf3d75ef465d3e404,0,76,76,0,1,onetwo,,,,,,,,,,,,,,,,,,,,,,,,,,,,,,,,,,,,,,,,,,,,,,,,,,,,,,,,,,,,,,,,,,,,,,,,,,,,,,,,,,,,,,,,,,,,,,,,,,,,,,,,,,,,,,,,,,,,,,,,,,,,,,,,,,,,,,,,,,,,,,,,,,,,,,,,
,,,,,,6070b67d921b68125705efd6,62bbfb8a6e16f86e54766a03,2022-06-29_09h20.54.418,Colour_Asymmetry_Pilot,2022.1.3,Win32,60.86427267,62bbe60bf3d75ef465d3e404,0,77,77,147,1,twofour,,,,,,,,,,,,,,,,,,,,,,,,,,,,,,,,,,,,,,,,,,,,,,,,,,,,,,,,,,,,,,,,,,,,,,,,,,,,,,,,,,,,,,,,,,,,,,,,,,,,,,,,,,,,,,,,,,,,,,,,,,,,,,,,,,,,,,,,,,,,,,,,,,,,,,,,
,,,,,,6070b67d921b68125705efd6,62bbfb8a6e16f86e54766a03,2022-06-29_09h20.54.418,Colour_Asymmetry_Pilot,2022.1.3,Win32,60.86427267,62bbe60bf3d75ef465d3e404,0,78,78,131,1,twofour,,,,,,,,,,,,,,,,,,,,,,,,,,,,,,,,,,,,,,,,,,,,,,,,,,,,,,,,,,,,,,,,,,,,,,,,,,,,,,,,,,,,,,,,,,,,,,,,,,,,,,,,,,,,,,,,,,,,,,,,,,,,,,,,,,,,,,,,,,,,,,,,,,,,,,,,
,,,,,,6070b67d921b68125705efd6,62bbfb8a6e16f86e54766a03,2022-06-29_09h20.54.418,Colour_Asymmetry_Pilot,2022.1.3,Win32,60.86427267,62bbe60bf3d75ef465d3e404,0,79,79,96,1,onetwo,,,,,,,,,,,,,,,,,,,,,,,,,,,,,,,,,,,,,,,,,,,,,,,,,,,,,,,,,,,,,,,,,,,,,,,,,,,,,,,,,,,,,,,,,,,,,,,,,,,,,,,,,,,,,,,,,,,,,,,,,,,,,,,,,,,,,,,,,,,,,,,,,,,,,,,,
,,,,,,6070b67d921b68125705efd6,62bbfb8a6e16f86e54766a03,2022-06-29_09h20.54.418,Colour_Asymmetry_Pilot,2022.1.3,Win32,60.86427267,62bbe60bf3d75ef465d3e404,0,80,80,98,1,twoone,,,,,,,,,,,,,,,,,,,,,,,,,,,,,,,,,,,,,,,,,,,,,,,,,,,,,,,,,,,,,,,,,,,,,,,,,,,,,,,,,,,,,,,,,,,,,,,,,,,,,,,,,,,,,,,,,,,,,,,,,,,,,,,,,,,,,,,,,,,,,,,,,,,,,,,,
,,,,,,6070b67d921b68125705efd6,62bbfb8a6e16f86e54766a03,2022-06-29_09h20.54.418,Colour_Asymmetry_Pilot,2022.1.3,Win32,60.86427267,62bbe60bf3d75ef465d3e404,0,81,81,106,1,twoone,,,,,,,,,,,,,,,,,,,,,,,,,,,,,,,,,,,,,,,,,,,,,,,,,,,,,,,,,,,,,,,,,,,,,,,,,,,,,,,,,,,,,,,,,,,,,,,,,,,,,,,,,,,,,,,,,,,,,,,,,,,,,,,,,,,,,,,,,,,,,,,,,,,,,,,,
,,,,,,6070b67d921b68125705efd6,62bbfb8a6e16f86e54766a03,2022-06-29_09h20.54.418,Colour_Asymmetry_Pilot,2022.1.3,Win32,60.86427267,62bbe60bf3d75ef465d3e404,0,82,82,127,1,fourthree,,,,,,,,,,,,,,,,,,,,,,,,,,,,,,,,,,,,,,,,,,,,,,,,,,,,,,,,,,,,,,,,,,,,,,,,,,,,,,,,,,,,,,,,,,,,,,,,,,,,,,,,,,,,,,,,,,,,,,,,,,,,,,,,,,,,,,,,,,,,,,,,,,,,,,,,
,,,,,,6070b67d921b68125705efd6,62bbfb8a6e16f86e54766a03,2022-06-29_09h20.54.418,Colour_Asymmetry_Pilot,2022.1.3,Win32,60.86427267,62bbe60bf3d75ef465d3e404,0,83,83,46,1,fourtwo,,,,,,,,,,,,,,,,,,,,,,,,,,,,,,,,,,,,,,,,,,,,,,,,,,,,,,,,,,,,,,,,,,,,,,,,,,,,,,,,,,,,,,,,,,,,,,,,,,,,,,,,,,,,,,,,,,,,,,,,,,,,,,,,,,,,,,,,,,,,,,,,,,,,,,,,
,,,,,,6070b67d921b68125705efd6,62bbfb8a6e16f86e54766a03,2022-06-29_09h20.54.418,Colour_Asymmetry_Pilot,2022.1.3,Win32,60.86427267,62bbe60bf3d75ef465d3e404,0,84,84,59,1,twofour,,,,,,,,,,,,,,,,,,,,,,,,,,,,,,,,,,,,,,,,,,,,,,,,,,,,,,,,,,,,,,,,,,,,,,,,,,,,,,,,,,,,,,,,,,,,,,,,,,,,,,,,,,,,,,,,,,,,,,,,,,,,,,,,,,,,,,,,,,,,,,,,,,,,,,,,
,,,,,,6070b67d921b68125705efd6,62bbfb8a6e16f86e54766a03,2022-06-29_09h20.54.418,Colour_Asymmetry_Pilot,2022.1.3,Win32,60.86427267,62bbe60bf3d75ef465d3e404,0,85,85,70,1,fourtwo,,,,,,,,,,,,,,,,,,,,,,,,,,,,,,,,,,,,,,,,,,,,,,,,,,,,,,,,,,,,,,,,,,,,,,,,,,,,,,,,,,,,,,,,,,,,,,,,,,,,,,,,,,,,,,,,,,,,,,,,,,,,,,,,,,,,,,,,,,,,,,,,,,,,,,,,
,,,,,,6070b67d921b68125705efd6,62bbfb8a6e16f86e54766a03,2022-06-29_09h20.54.418,Colour_Asymmetry_Pilot,2022.1.3,Win32,60.86427267,62bbe60bf3d75ef465d3e404,0,86,86,137,1,onethree,,,,,,,,,,,,,,,,,,,,,,,,,,,,,,,,,,,,,,,,,,,,,,,,,,,,,,,,,,,,,,,,,,,,,,,,,,,,,,,,,,,,,,,,,,,,,,,,,,,,,,,,,,,,,,,,,,,,,,,,,,,,,,,,,,,,,,,,,,,,,,,,,,,,,,,,
,,,,,,6070b67d921b68125705efd6,62bbfb8a6e16f86e54766a03,2022-06-29_09h20.54.418,Colour_Asymmetry_Pilot,2022.1.3,Win32,60.86427267,62bbe60bf3d75ef465d3e404,0,87,87,159,1,fourthree,,,,,,,,,,,,,,,,,,,,,,,,,,,,,,,,,,,,,,,,,,,,,,,,,,,,,,,,,,,,,,,,,,,,,,,,,,,,,,,,,,,,,,,,,,,,,,,,,,,,,,,,,,,,,,,,,,,,,,,,,,,,,,,,,,,,,,,,,,,,,,,,,,,,,,,,
,,,,,,6070b67d921b68125705efd6,62bbfb8a6e16f86e54766a03,2022-06-29_09h20.54.418,Colour_Asymmetry_Pilot,2022.1.3,Win32,60.86427267,62bbe60bf3d75ef465d3e404,0,88,88,60,1,threeone,,,,,,,,,,,,,,,,,,,,,,,,,,,,,,,,,,,,,,,,,,,,,,,,,,,,,,,,,,,,,,,,,,,,,,,,,,,,,,,,,,,,,,,,,,,,,,,,,,,,,,,,,,,,,,,,,,,,,,,,,,,,,,,,,,,,,,,,,,,,,,,,,,,,,,,,
,,,,,,6070b67d921b68125705efd6,62bbfb8a6e16f86e54766a03,2022-06-29_09h20.54.418,Colour_Asymmetry_Pilot,2022.1.3,Win32,60.86427267,62bbe60bf3d75ef465d3e404,0,89,89,67,1,twofour,,,,,,,,,,,,,,,,,,,,,,,,,,,,,,,,,,,,,,,,,,,,,,,,,,,,,,,,,,,,,,,,,,,,,,,,,,,,,,,,,,,,,,,,,,,,,,,,,,,,,,,,,,,,,,,,,,,,,,,,,,,,,,,,,,,,,,,,,,,,,,,,,,,,,,,,
,,,,,,6070b67d921b68125705efd6,62bbfb8a6e16f86e54766a03,2022-06-29_09h20.54.418,Colour_Asymmetry_Pilot,2022.1.3,Win32,60.86427267,62bbe60bf3d75ef465d3e404,0,90,90,82,1,twoone,,,,,,,,,,,,,,,,,,,,,,,,,,,,,,,,,,,,,,,,,,,,,,,,,,,,,,,,,,,,,,,,,,,,,,,,,,,,,,,,,,,,,,,,,,,,,,,,,,,,,,,,,,,,,,,,,,,,,,,,,,,,,,,,,,,,,,,,,,,,,,,,,,,,,,,,
,,,,,,6070b67d921b68125705efd6,62bbfb8a6e16f86e54766a03,2022-06-29_09h20.54.418,Colour_Asymmetry_Pilot,2022.1.3,Win32,60.86427267,62bbe60bf3d75ef465d3e404,0,91,91,78,1,fourtwo,,,,,,,,,,,,,,,,,,,,,,,,,,,,,,,,,,,,,,,,,,,,,,,,,,,,,,,,,,,,,,,,,,,,,,,,,,,,,,,,,,,,,,,,,,,,,,,,,,,,,,,,,,,,,,,,,,,,,,,,,,,,,,,,,,,,,,,,,,,,,,,,,,,,,,,,
,,,,,,6070b67d921b68125705efd6,62bbfb8a6e16f86e54766a03,2022-06-29_09h20.54.418,Colour_Asymmetry_Pilot,2022.1.3,Win32,60.86427267,62bbe60bf3d75ef465d3e404,0,92,92,47,1,fourthree,,,,,,,,,,,,,,,,,,,,,,,,,,,,,,,,,,,,,,,,,,,,,,,,,,,,,,,,,,,,,,,,,,,,,,,,,,,,,,,,,,,,,,,,,,,,,,,,,,,,,,,,,,,,,,,,,,,,,,,,,,,,,,,,,,,,,,,,,,,,,,,,,,,,,,,,
,,,,,,6070b67d921b68125705efd6,62bbfb8a6e16f86e54766a03,2022-06-29_09h20.54.418,Colour_Asymmetry_Pilot,2022.1.3,Win32,60.86427267,62bbe60bf3d75ef465d3e404,0,93,93,21,1,threefour,,,,,,,,,,,,,,,,,,,,,,,,,,,,,,,,,,,,,,,,,,,,,,,,,,,,,,,,,,,,,,,,,,,,,,,,,,,,,,,,,,,,,,,,,,,,,,,,,,,,,,,,,,,,,,,,,,,,,,,,,,,,,,,,,,,,,,,,,,,,,,,,,,,,,,,,
,,,,,,6070b67d921b68125705efd6,62bbfb8a6e16f86e54766a03,2022-06-29_09h20.54.418,Colour_Asymmetry_Pilot,2022.1.3,Win32,60.86427267,62bbe60bf3d75ef465d3e404,0,94,94,74,1,twoone,,,,,,,,,,,,,,,,,,,,,,,,,,,,,,,,,,,,,,,,,,,,,,,,,,,,,,,,,,,,,,,,,,,,,,,,,,,,,,,,,,,,,,,,,,,,,,,,,,,,,,,,,,,,,,,,,,,,,,,,,,,,,,,,,,,,,,,,,,,,,,,,,,,,,,,,
,,,,,,6070b67d921b68125705efd6,62bbfb8a6e16f86e54766a03,2022-06-29_09h20.54.418,Colour_Asymmetry_Pilot,2022.1.3,Win32,60.86427267,62bbe60bf3d75ef465d3e404,0,95,95,144,1,onetwo,,,,,,,,,,,,,,,,,,,,,,,,,,,,,,,,,,,,,,,,,,,,,,,,,,,,,,,,,,,,,,,,,,,,,,,,,,,,,,,,,,,,,,,,,,,,,,,,,,,,,,,,,,,,,,,,,,,,,,,,,,,,,,,,,,,,,,,,,,,,,,,,,,,,,,,,
,,,,,,6070b67d921b68125705efd6,62bbfb8a6e16f86e54766a03,2022-06-29_09h20.54.418,Colour_Asymmetry_Pilot,2022.1.3,Win32,60.86427267,62bbe60bf3d75ef465d3e404,0,96,96,138,1,twoone,,,,,,,,,,,,,,,,,,,,,,,,,,,,,,,,,,,,,,,,,,,,,,,,,,,,,,,,,,,,,,,,,,,,,,,,,,,,,,,,,,,,,,,,,,,,,,,,,,,,,,,,,,,,,,,,,,,,,,,,,,,,,,,,,,,,,,,,,,,,,,,,,,,,,,,,
,,,,,,6070b67d921b68125705efd6,62bbfb8a6e16f86e54766a03,2022-06-29_09h20.54.418,Colour_Asymmetry_Pilot,2022.1.3,Win32,60.86427267,62bbe60bf3d75ef465d3e404,0,97,97,99,1,twofour,,,,,,,,,,,,,,,,,,,,,,,,,,,,,,,,,,,,,,,,,,,,,,,,,,,,,,,,,,,,,,,,,,,,,,,,,,,,,,,,,,,,,,,,,,,,,,,,,,,,,,,,,,,,,,,,,,,,,,,,,,,,,,,,,,,,,,,,,,,,,,,,,,,,,,,,
,,,,,,6070b67d921b68125705efd6,62bbfb8a6e16f86e54766a03,2022-06-29_09h20.54.418,Colour_Asymmetry_Pilot,2022.1.3,Win32,60.86427267,62bbe60bf3d75ef465d3e404,0,98,98,50,1,twoone,,,,,,,,,,,,,,,,,,,,,,,,,,,,,,,,,,,,,,,,,,,,,,,,,,,,,,,,,,,,,,,,,,,,,,,,,,,,,,,,,,,,,,,,,,,,,,,,,,,,,,,,,,,,,,,,,,,,,,,,,,,,,,,,,,,,,,,,,,,,,,,,,,,,,,,,
,,,,,,6070b67d921b68125705efd6,62bbfb8a6e16f86e54766a03,2022-06-29_09h20.54.418,Colour_Asymmetry_Pilot,2022.1.3,Win32,60.86427267,62bbe60bf3d75ef465d3e404,0,99,99,63,1,fourthree,,,,,,,,,,,,,,,,,,,,,,,,,,,,,,,,,,,,,,,,,,,,,,,,,,,,,,,,,,,,,,,,,,,,,,,,,,,,,,,,,,,,,,,,,,,,,,,,,,,,,,,,,,,,,,,,,,,,,,,,,,,,,,,,,,,,,,,,,,,,,,,,,,,,,,,,
,,,,,,6070b67d921b68125705efd6,62bbfb8a6e16f86e54766a03,2022-06-29_09h20.54.418,Colour_Asymmetry_Pilot,2022.1.3,Win32,60.86427267,62bbe60bf3d75ef465d3e404,0,100,100,161,1,onethree,,,,,,,,,,,,,,,,,,,,,,,,,,,,,,,,,,,,,,,,,,,,,,,,,,,,,,,,,,,,,,,,,,,,,,,,,,,,,,,,,,,,,,,,,,,,,,,,,,,,,,,,,,,,,,,,,,,,,,,,,,,,,,,,,,,,,,,,,,,,,,,,,,,,,,,,
,,,,,,6070b67d921b68125705efd6,62bbfb8a6e16f86e54766a03,2022-06-29_09h20.54.418,Colour_Asymmetry_Pilot,2022.1.3,Win32,60.86427267,62bbe60bf3d75ef465d3e404,0,101,101,95,1,fourthree,,,,,,,,,,,,,,,,,,,,,,,,,,,,,,,,,,,,,,,,,,,,,,,,,,,,,,,,,,,,,,,,,,,,,,,,,,,,,,,,,,,,,,,,,,,,,,,,,,,,,,,,,,,,,,,,,,,,,,,,,,,,,,,,,,,,,,,,,,,,,,,,,,,,,,,,
,,,,,,6070b67d921b68125705efd6,62bbfb8a6e16f86e54766a03,2022-06-29_09h20.54.418,Colour_Asymmetry_Pilot,2022.1.3,Win32,60.86427267,62bbe60bf3d75ef465d3e404,0,102,102,51,1,twofour,,,,,,,,,,,,,,,,,,,,,,,,,,,,,,,,,,,,,,,,,,,,,,,,,,,,,,,,,,,,,,,,,,,,,,,,,,,,,,,,,,,,,,,,,,,,,,,,,,,,,,,,,,,,,,,,,,,,,,,,,,,,,,,,,,,,,,,,,,,,,,,,,,,,,,,,
,,,,,,6070b67d921b68125705efd6,62bbfb8a6e16f86e54766a03,2022-06-29_09h20.54.418,Colour_Asymmetry_Pilot,2022.1.3,Win32,60.86427267,62bbe60bf3d75ef465d3e404,0,103,103,130,1,twoone,,,,,,,,,,,,,,,,,,,,,,,,,,,,,,,,,,,,,,,,,,,,,,,,,,,,,,,,,,,,,,,,,,,,,,,,,,,,,,,,,,,,,,,,,,,,,,,,,,,,,,,,,,,,,,,,,,,,,,,,,,,,,,,,,,,,,,,,,,,,,,,,,,,,,,,,
,,,,,,6070b67d921b68125705efd6,62bbfb8a6e16f86e54766a03,2022-06-29_09h20.54.418,Colour_Asymmetry_Pilot,2022.1.3,Win32,60.86427267,62bbe60bf3d75ef465d3e404,0,104,104,19,1,twofour,,,,,,,,,,,,,,,,,,,,,,,,,,,,,,,,,,,,,,,,,,,,,,,,,,,,,,,,,,,,,,,,,,,,,,,,,,,,,,,,,,,,,,,,,,,,,,,,,,,,,,,,,,,,,,,,,,,,,,,,,,,,,,,,,,,,,,,,,,,,,,,,,,,,,,,,
,,,,,,6070b67d921b68125705efd6,62bbfb8a6e16f86e54766a03,2022-06-29_09h20.54.418,Colour_Asymmetry_Pilot,2022.1.3,Win32,60.86427267,62bbe60bf3d75ef465d3e404,0,105,105,85,1,threefour,,,,,,,,,,,,,,,,,,,,,,,,,,,,,,,,,,,,,,,,,,,,,,,,,,,,,,,,,,,,,,,,,,,,,,,,,,,,,,,,,,,,,,,,,,,,,,,,,,,,,,,,,,,,,,,,,,,,,,,,,,,,,,,,,,,,,,,,,,,,,,,,,,,,,,,,
,,,,,,6070b67d921b68125705efd6,62bbfb8a6e16f86e54766a03,2022-06-29_09h20.54.418,Colour_Asymmetry_Pilot,2022.1.3,Win32,60.86427267,62bbe60bf3d75ef465d3e404,0,106,106,9,1,onethree,,,,,,,,,,,,,,,,,,,,,,,,,,,,,,,,,,,,,,,,,,,,,,,,,,,,,,,,,,,,,,,,,,,,,,,,,,,,,,,,,,,,,,,,,,,,,,,,,,,,,,,,,,,,,,,,,,,,,,,,,,,,,,,,,,,,,,,,,,,,,,,,,,,,,,,,
,,,,,,6070b67d921b68125705efd6,62bbfb8a6e16f86e54766a03,2022-06-29_09h20.54.418,Colour_Asymmetry_Pilot,2022.1.3,Win32,60.86427267,62bbe60bf3d75ef465d3e404,0,107,107,55,1,fourthree,,,,,,,,,,,,,,,,,,,,,,,,,,,,,,,,,,,,,,,,,,,,,,,,,,,,,,,,,,,,,,,,,,,,,,,,,,,,,,,,,,,,,,,,,,,,,,,,,,,,,,,,,,,,,,,,,,,,,,,,,,,,,,,,,,,,,,,,,,,,,,,,,,,,,,,,
,,,,,,6070b67d921b68125705efd6,62bbfb8a6e16f86e54766a03,2022-06-29_09h20.54.418,Colour_Asymmetry_Pilot,2022.1.3,Win32,60.86427267,62bbe60bf3d75ef465d3e404,0,108,108,84,1,threeone,,,,,,,,,,,,,,,,,,,,,,,,,,,,,,,,,,,,,,,,,,,,,,,,,,,,,,,,,,,,,,,,,,,,,,,,,,,,,,,,,,,,,,,,,,,,,,,,,,,,,,,,,,,,,,,,,,,,,,,,,,,,,,,,,,,,,,,,,,,,,,,,,,,,,,,,
,,,,,,6070b67d921b68125705efd6,62bbfb8a6e16f86e54766a03,2022-06-29_09h20.54.418,Colour_Asymmetry_Pilot,2022.1.3,Win32,60.86427267,62bbe60bf3d75ef465d3e404,0,109,109,123,1,twofour,,,,,,,,,,,,,,,,,,,,,,,,,,,,,,,,,,,,,,,,,,,,,,,,,,,,,,,,,,,,,,,,,,,,,,,,,,,,,,,,,,,,,,,,,,,,,,,,,,,,,,,,,,,,,,,,,,,,,,,,,,,,,,,,,,,,,,,,,,,,,,,,,,,,,,,,
,,,,,,6070b67d921b68125705efd6,62bbfb8a6e16f86e54766a03,2022-06-29_09h20.54.418,Colour_Asymmetry_Pilot,2022.1.3,Win32,60.86427267,62bbe60bf3d75ef465d3e404,0,110,110,134,1,fourtwo,,,,,,,,,,,,,,,,,,,,,,,,,,,,,,,,,,,,,,,,,,,,,,,,,,,,,,,,,,,,,,,,,,,,,,,,,,,,,,,,,,,,,,,,,,,,,,,,,,,,,,,,,,,,,,,,,,,,,,,,,,,,,,,,,,,,,,,,,,,,,,,,,,,,,,,,
,,,,,,6070b67d921b68125705efd6,62bbfb8a6e16f86e54766a03,2022-06-29_09h20.54.418,Colour_Asymmetry_Pilot,2022.1.3,Win32,60.86427267,62bbe60bf3d75ef465d3e404,0,111,111,33,1,onethree,,,,,,,,,,,,,,,,,,,,,,,,,,,,,,,,,,,,,,,,,,,,,,,,,,,,,,,,,,,,,,,,,,,,,,,,,,,,,,,,,,,,,,,,,,,,,,,,,,,,,,,,,,,,,,,,,,,,,,,,,,,,,,,,,,,,,,,,,,,,,,,,,,,,,,,,
,,,,,,6070b67d921b68125705efd6,62bbfb8a6e16f86e54766a03,2022-06-29_09h20.54.418,Colour_Asymmetry_Pilot,2022.1.3,Win32,60.86427267,62bbe60bf3d75ef465d3e404,0,112,112,37,1,threefour,,,,,,,,,,,,,,,,,,,,,,,,,,,,,,,,,,,,,,,,,,,,,,,,,,,,,,,,,,,,,,,,,,,,,,,,,,,,,,,,,,,,,,,,,,,,,,,,,,,,,,,,,,,,,,,,,,,,,,,,,,,,,,,,,,,,,,,,,,,,,,,,,,,,,,,,
,,,,,,6070b67d921b68125705efd6,62bbfb8a6e16f86e54766a03,2022-06-29_09h20.54.418,Colour_Asymmetry_Pilot,2022.1.3,Win32,60.86427267,62bbe60bf3d75ef465d3e404,0,113,113,152,1,onetwo,,,,,,,,,,,,,,,,,,,,,,,,,,,,,,,,,,,,,,,,,,,,,,,,,,,,,,,,,,,,,,,,,,,,,,,,,,,,,,,,,,,,,,,,,,,,,,,,,,,,,,,,,,,,,,,,,,,,,,,,,,,,,,,,,,,,,,,,,,,,,,,,,,,,,,,,
,,,,,,6070b67d921b68125705efd6,62bbfb8a6e16f86e54766a03,2022-06-29_09h20.54.418,Colour_Asymmetry_Pilot,2022.1.3,Win32,60.86427267,62bbe60bf3d75ef465d3e404,0,114,114,3,1,twofour,,,,,,,,,,,,,,,,,,,,,,,,,,,,,,,,,,,,,,,,,,,,,,,,,,,,,,,,,,,,,,,,,,,,,,,,,,,,,,,,,,,,,,,,,,,,,,,,,,,,,,,,,,,,,,,,,,,,,,,,,,,,,,,,,,,,,,,,,,,,,,,,,,,,,,,,
,,,,,,6070b67d921b68125705efd6,62bbfb8a6e16f86e54766a03,2022-06-29_09h20.54.418,Colour_Asymmetry_Pilot,2022.1.3,Win32,60.86427267,62bbe60bf3d75ef465d3e404,0,115,115,75,1,twofour,,,,,,,,,,,,,,,,,,,,,,,,,,,,,,,,,,,,,,,,,,,,,,,,,,,,,,,,,,,,,,,,,,,,,,,,,,,,,,,,,,,,,,,,,,,,,,,,,,,,,,,,,,,,,,,,,,,,,,,,,,,,,,,,,,,,,,,,,,,,,,,,,,,,,,,,
,,,,,,6070b67d921b68125705efd6,62bbfb8a6e16f86e54766a03,2022-06-29_09h20.54.418,Colour_Asymmetry_Pilot,2022.1.3,Win32,60.86427267,62bbe60bf3d75ef465d3e404,0,116,116,146,1,twoone,,,,,,,,,,,,,,,,,,,,,,,,,,,,,,,,,,,,,,,,,,,,,,,,,,,,,,,,,,,,,,,,,,,,,,,,,,,,,,,,,,,,,,,,,,,,,,,,,,,,,,,,,,,,,,,,,,,,,,,,,,,,,,,,,,,,,,,,,,,,,,,,,,,,,,,,
,,,,,,6070b67d921b68125705efd6,62bbfb8a6e16f86e54766a03,2022-06-29_09h20.54.418,Colour_Asymmetry_Pilot,2022.1.3,Win32,60.86427267,62bbe60bf3d75ef465d3e404,0,117,117,72,1,onetwo,,,,,,,,,,,,,,,,,,,,,,,,,,,,,,,,,,,,,,,,,,,,,,,,,,,,,,,,,,,,,,,,,,,,,,,,,,,,,,,,,,,,,,,,,,,,,,,,,,,,,,,,,,,,,,,,,,,,,,,,,,,,,,,,,,,,,,,,,,,,,,,,,,,,,,,,
,,,,,,6070b67d921b68125705efd6,62bbfb8a6e16f86e54766a03,2022-06-29_09h20.54.418,Colour_Asymmetry_Pilot,2022.1.3,Win32,60.86427267,62bbe60bf3d75ef465d3e404,0,118,118,121,1,onethree,,,,,,,,,,,,,,,,,,,,,,,,,,,,,,,,,,,,,,,,,,,,,,,,,,,,,,,,,,,,,,,,,,,,,,,,,,,,,,,,,,,,,,,,,,,,,,,,,,,,,,,,,,,,,,,,,,,,,,,,,,,,,,,,,,,,,,,,,,,,,,,,,,,,,,,,
,,,,,,6070b67d921b68125705efd6,62bbfb8a6e16f86e54766a03,2022-06-29_09h20.54.418,Colour_Asymmetry_Pilot,2022.1.3,Win32,60.86427267,62bbe60bf3d75ef465d3e404,0,119,119,29,1,threefour,,,,,,,,,,,,,,,,,,,,,,,,,,,,,,,,,,,,,,,,,,,,,,,,,,,,,,,,,,,,,,,,,,,,,,,,,,,,,,,,,,,,,,,,,,,,,,,,,,,,,,,,,,,,,,,,,,,,,,,,,,,,,,,,,,,,,,,,,,,,,,,,,,,,,,,,
,,,,,,6070b67d921b68125705efd6,62bbfb8a6e16f86e54766a03,2022-06-29_09h20.54.418,Colour_Asymmetry_Pilot,2022.1.3,Win32,60.86427267,62bbe60bf3d75ef465d3e404,0,120,120,68,1,threeone,,,,,,,,,,,,,,,,,,,,,,,,,,,,,,,,,,,,,,,,,,,,,,,,,,,,,,,,,,,,,,,,,,,,,,,,,,,,,,,,,,,,,,,,,,,,,,,,,,,,,,,,,,,,,,,,,,,,,,,,,,,,,,,,,,,,,,,,,,,,,,,,,,,,,,,,
,,,,,,6070b67d921b68125705efd6,62bbfb8a6e16f86e54766a03,2022-06-29_09h20.54.418,Colour_Asymmetry_Pilot,2022.1.3,Win32,60.86427267,62bbe60bf3d75ef465d3e404,0,121,121,136,1,onetwo,,,,,,,,,,,,,,,,,,,,,,,,,,,,,,,,,,,,,,,,,,,,,,,,,,,,,,,,,,,,,,,,,,,,,,,,,,,,,,,,,,,,,,,,,,,,,,,,,,,,,,,,,,,,,,,,,,,,,,,,,,,,,,,,,,,,,,,,,,,,,,,,,,,,,,,,
,,,,,,6070b67d921b68125705efd6,62bbfb8a6e16f86e54766a03,2022-06-29_09h20.54.418,Colour_Asymmetry_Pilot,2022.1.3,Win32,60.86427267,62bbe60bf3d75ef465d3e404,0,122,122,149,1,threefour,,,,,,,,,,,,,,,,,,,,,,,,,,,,,,,,,,,,,,,,,,,,,,,,,,,,,,,,,,,,,,,,,,,,,,,,,,,,,,,,,,,,,,,,,,,,,,,,,,,,,,,,,,,,,,,,,,,,,,,,,,,,,,,,,,,,,,,,,,,,,,,,,,,,,,,,
,,,,,,6070b67d921b68125705efd6,62bbfb8a6e16f86e54766a03,2022-06-29_09h20.54.418,Colour_Asymmetry_Pilot,2022.1.3,Win32,60.86427267,62bbe60bf3d75ef465d3e404,0,123,123,34,1,twoone,,,,,,,,,,,,,,,,,,,,,,,,,,,,,,,,,,,,,,,,,,,,,,,,,,,,,,,,,,,,,,,,,,,,,,,,,,,,,,,,,,,,,,,,,,,,,,,,,,,,,,,,,,,,,,,,,,,,,,,,,,,,,,,,,,,,,,,,,,,,,,,,,,,,,,,,
,,,,,,6070b67d921b68125705efd6,62bbfb8a6e16f86e54766a03,2022-06-29_09h20.54.418,Colour_Asymmetry_Pilot,2022.1.3,Win32,60.86427267,62bbe60bf3d75ef465d3e404,0,124,124,111,1,fourthree,,,,,,,,,,,,,,,,,,,,,,,,,,,,,,,,,,,,,,,,,,,,,,,,,,,,,,,,,,,,,,,,,,,,,,,,,,,,,,,,,,,,,,,,,,,,,,,,,,,,,,,,,,,,,,,,,,,,,,,,,,,,,,,,,,,,,,,,,,,,,,,,,,,,,,,,
,,,,,,6070b67d921b68125705efd6,62bbfb8a6e16f86e54766a03,2022-06-29_09h20.54.418,Colour_Asymmetry_Pilot,2022.1.3,Win32,60.86427267,62bbe60bf3d75ef465d3e404,0,125,125,61,1,threefour,,,,,,,,,,,,,,,,,,,,,,,,,,,,,,,,,,,,,,,,,,,,,,,,,,,,,,,,,,,,,,,,,,,,,,,,,,,,,,,,,,,,,,,,,,,,,,,,,,,,,,,,,,,,,,,,,,,,,,,,,,,,,,,,,,,,,,,,,,,,,,,,,,,,,,,,
,,,,,,6070b67d921b68125705efd6,62bbfb8a6e16f86e54766a03,2022-06-29_09h20.54.418,Colour_Asymmetry_Pilot,2022.1.3,Win32,60.86427267,62bbe60bf3d75ef465d3e404,0,126,126,53,1,threefour,,,,,,,,,,,,,,,,,,,,,,,,,,,,,,,,,,,,,,,,,,,,,,,,,,,,,,,,,,,,,,,,,,,,,,,,,,,,,,,,,,,,,,,,,,,,,,,,,,,,,,,,,,,,,,,,,,,,,,,,,,,,,,,,,,,,,,,,,,,,,,,,,,,,,,,,
,,,,,,6070b67d921b68125705efd6,62bbfb8a6e16f86e54766a03,2022-06-29_09h20.54.418,Colour_Asymmetry_Pilot,2022.1.3,Win32,60.86427267,62bbe60bf3d75ef465d3e404,0,127,127,54,1,fourtwo,,,,,,,,,,,,,,,,,,,,,,,,,,,,,,,,,,,,,,,,,,,,,,,,,,,,,,,,,,,,,,,,,,,,,,,,,,,,,,,,,,,,,,,,,,,,,,,,,,,,,,,,,,,,,,,,,,,,,,,,,,,,,,,,,,,,,,,,,,,,,,,,,,,,,,,,
,,,,,,6070b67d921b68125705efd6,62bbfb8a6e16f86e54766a03,2022-06-29_09h20.54.418,Colour_Asymmetry_Pilot,2022.1.3,Win32,60.86427267,62bbe60bf3d75ef465d3e404,0,128,128,4,1,threeone,,,,,,,,,,,,,,,,,,,,,,,,,,,,,,,,,,,,,,,,,,,,,,,,,,,,,,,,,,,,,,,,,,,,,,,,,,,,,,,,,,,,,,,,,,,,,,,,,,,,,,,,,,,,,,,,,,,,,,,,,,,,,,,,,,,,,,,,,,,,,,,,,,,,,,,,
,,,,,,6070b67d921b68125705efd6,62bbfb8a6e16f86e54766a03,2022-06-29_09h20.54.418,Colour_Asymmetry_Pilot,2022.1.3,Win32,60.86427267,62bbe60bf3d75ef465d3e404,0,129,129,73,1,onethree,,,,,,,,,,,,,,,,,,,,,,,,,,,,,,,,,,,,,,,,,,,,,,,,,,,,,,,,,,,,,,,,,,,,,,,,,,,,,,,,,,,,,,,,,,,,,,,,,,,,,,,,,,,,,,,,,,,,,,,,,,,,,,,,,,,,,,,,,,,,,,,,,,,,,,,,
,,,,,,6070b67d921b68125705efd6,62bbfb8a6e16f86e54766a03,2022-06-29_09h20.54.418,Colour_Asymmetry_Pilot,2022.1.3,Win32,60.86427267,62bbe60bf3d75ef465d3e404,0,130,130,101,1,threefour,,,,,,,,,,,,,,,,,,,,,,,,,,,,,,,,,,,,,,,,,,,,,,,,,,,,,,,,,,,,,,,,,,,,,,,,,,,,,,,,,,,,,,,,,,,,,,,,,,,,,,,,,,,,,,,,,,,,,,,,,,,,,,,,,,,,,,,,,,,,,,,,,,,,,,,,
,,,,,,6070b67d921b68125705efd6,62bbfb8a6e16f86e54766a03,2022-06-29_09h20.54.418,Colour_Asymmetry_Pilot,2022.1.3,Win32,60.86427267,62bbe60bf3d75ef465d3e404,0,131,131,45,1,threefour,,,,,,,,,,,,,,,,,,,,,,,,,,,,,,,,,,,,,,,,,,,,,,,,,,,,,,,,,,,,,,,,,,,,,,,,,,,,,,,,,,,,,,,,,,,,,,,,,,,,,,,,,,,,,,,,,,,,,,,,,,,,,,,,,,,,,,,,,,,,,,,,,,,,,,,,
,,,,,,6070b67d921b68125705efd6,62bbfb8a6e16f86e54766a03,2022-06-29_09h20.54.418,Colour_Asymmetry_Pilot,2022.1.3,Win32,60.86427267,62bbe60bf3d75ef465d3e404,0,132,132,86,1,fourtwo,,,,,,,,,,,,,,,,,,,,,,,,,,,,,,,,,,,,,,,,,,,,,,,,,,,,,,,,,,,,,,,,,,,,,,,,,,,,,,,,,,,,,,,,,,,,,,,,,,,,,,,,,,,,,,,,,,,,,,,,,,,,,,,,,,,,,,,,,,,,,,,,,,,,,,,,
,,,,,,6070b67d921b68125705efd6,62bbfb8a6e16f86e54766a03,2022-06-29_09h20.54.418,Colour_Asymmetry_Pilot,2022.1.3,Win32,60.86427267,62bbe60bf3d75ef465d3e404,0,133,133,76,1,threeone,,,,,,,,,,,,,,,,,,,,,,,,,,,,,,,,,,,,,,,,,,,,,,,,,,,,,,,,,,,,,,,,,,,,,,,,,,,,,,,,,,,,,,,,,,,,,,,,,,,,,,,,,,,,,,,,,,,,,,,,,,,,,,,,,,,,,,,,,,,,,,,,,,,,,,,,
,,,,,,6070b67d921b68125705efd6,62bbfb8a6e16f86e54766a03,2022-06-29_09h20.54.418,Colour_Asymmetry_Pilot,2022.1.3,Win32,60.86427267,62bbe60bf3d75ef465d3e404,0,134,134,108,1,threeone,,,,,,,,,,,,,,,,,,,,,,,,,,,,,,,,,,,,,,,,,,,,,,,,,,,,,,,,,,,,,,,,,,,,,,,,,,,,,,,,,,,,,,,,,,,,,,,,,,,,,,,,,,,,,,,,,,,,,,,,,,,,,,,,,,,,,,,,,,,,,,,,,,,,,,,,
,,,,,,6070b67d921b68125705efd6,62bbfb8a6e16f86e54766a03,2022-06-29_09h20.54.418,Colour_Asymmetry_Pilot,2022.1.3,Win32,60.86427267,62bbe60bf3d75ef465d3e404,0,135,135,66,1,twoone,,,,,,,,,,,,,,,,,,,,,,,,,,,,,,,,,,,,,,,,,,,,,,,,,,,,,,,,,,,,,,,,,,,,,,,,,,,,,,,,,,,,,,,,,,,,,,,,,,,,,,,,,,,,,,,,,,,,,,,,,,,,,,,,,,,,,,,,,,,,,,,,,,,,,,,,
,,,,,,6070b67d921b68125705efd6,62bbfb8a6e16f86e54766a03,2022-06-29_09h20.54.418,Colour_Asymmetry_Pilot,2022.1.3,Win32,60.86427267,62bbe60bf3d75ef465d3e404,0,136,136,35,1,twofour,,,,,,,,,,,,,,,,,,,,,,,,,,,,,,,,,,,,,,,,,,,,,,,,,,,,,,,,,,,,,,,,,,,,,,,,,,,,,,,,,,,,,,,,,,,,,,,,,,,,,,,,,,,,,,,,,,,,,,,,,,,,,,,,,,,,,,,,,,,,,,,,,,,,,,,,
,,,,,,6070b67d921b68125705efd6,62bbfb8a6e16f86e54766a03,2022-06-29_09h20.54.418,Colour_Asymmetry_Pilot,2022.1.3,Win32,60.86427267,62bbe60bf3d75ef465d3e404,0,137,137,100,1,threeone,,,,,,,,,,,,,,,,,,,,,,,,,,,,,,,,,,,,,,,,,,,,,,,,,,,,,,,,,,,,,,,,,,,,,,,,,,,,,,,,,,,,,,,,,,,,,,,,,,,,,,,,,,,,,,,,,,,,,,,,,,,,,,,,,,,,,,,,,,,,,,,,,,,,,,,,
,,,,,,6070b67d921b68125705efd6,62bbfb8a6e16f86e54766a03,2022-06-29_09h20.54.418,Colour_Asymmetry_Pilot,2022.1.3,Win32,60.86427267,62bbe60bf3d75ef465d3e404,0,138,138,30,1,fourtwo,,,,,,,,,,,,,,,,,,,,,,,,,,,,,,,,,,,,,,,,,,,,,,,,,,,,,,,,,,,,,,,,,,,,,,,,,,,,,,,,,,,,,,,,,,,,,,,,,,,,,,,,,,,,,,,,,,,,,,,,,,,,,,,,,,,,,,,,,,,,,,,,,,,,,,,,
,,,,,,6070b67d921b68125705efd6,62bbfb8a6e16f86e54766a03,2022-06-29_09h20.54.418,Colour_Asymmetry_Pilot,2022.1.3,Win32,60.86427267,62bbe60bf3d75ef465d3e404,0,139,139,38,1,fourtwo,,,,,,,,,,,,,,,,,,,,,,,,,,,,,,,,,,,,,,,,,,,,,,,,,,,,,,,,,,,,,,,,,,,,,,,,,,,,,,,,,,,,,,,,,,,,,,,,,,,,,,,,,,,,,,,,,,,,,,,,,,,,,,,,,,,,,,,,,,,,,,,,,,,,,,,,
,,,,,,6070b67d921b68125705efd6,62bbfb8a6e16f86e54766a03,2022-06-29_09h20.54.418,Colour_Asymmetry_Pilot,2022.1.3,Win32,60.86427267,62bbe60bf3d75ef465d3e404,0,140,140,151,1,fourthree,,,,,,,,,,,,,,,,,,,,,,,,,,,,,,,,,,,,,,,,,,,,,,,,,,,,,,,,,,,,,,,,,,,,,,,,,,,,,,,,,,,,,,,,,,,,,,,,,,,,,,,,,,,,,,,,,,,,,,,,,,,,,,,,,,,,,,,,,,,,,,,,,,,,,,,,
,,,,,,6070b67d921b68125705efd6,62bbfb8a6e16f86e54766a03,2022-06-29_09h20.54.418,Colour_Asymmetry_Pilot,2022.1.3,Win32,60.86427267,62bbe60bf3d75ef465d3e404,0,141,141,81,1,onethree,,,,,,,,,,,,,,,,,,,,,,,,,,,,,,,,,,,,,,,,,,,,,,,,,,,,,,,,,,,,,,,,,,,,,,,,,,,,,,,,,,,,,,,,,,,,,,,,,,,,,,,,,,,,,,,,,,,,,,,,,,,,,,,,,,,,,,,,,,,,,,,,,,,,,,,,
,,,,,,6070b67d921b68125705efd6,62bbfb8a6e16f86e54766a03,2022-06-29_09h20.54.418,Colour_Asymmetry_Pilot,2022.1.3,Win32,60.86427267,62bbe60bf3d75ef465d3e404,0,142,142,91,1,twofour,,,,,,,,,,,,,,,,,,,,,,,,,,,,,,,,,,,,,,,,,,,,,,,,,,,,,,,,,,,,,,,,,,,,,,,,,,,,,,,,,,,,,,,,,,,,,,,,,,,,,,,,,,,,,,,,,,,,,,,,,,,,,,,,,,,,,,,,,,,,,,,,,,,,,,,,
,,,,,,6070b67d921b68125705efd6,62bbfb8a6e16f86e54766a03,2022-06-29_09h20.54.418,Colour_Asymmetry_Pilot,2022.1.3,Win32,60.86427267,62bbe60bf3d75ef465d3e404,0,143,143,52,1,threeone,,,,,,,,,,,,,,,,,,,,,,,,,,,,,,,,,,,,,,,,,,,,,,,,,,,,,,,,,,,,,,,,,,,,,,,,,,,,,,,,,,,,,,,,,,,,,,,,,,,,,,,,,,,,,,,,,,,,,,,,,,,,,,,,,,,,,,,,,,,,,,,,,,,,,,,,
,,,,,,6070b67d921b68125705efd6,62bbfb8a6e16f86e54766a03,2022-06-29_09h20.54.418,Colour_Asymmetry_Pilot,2022.1.3,Win32,60.86427267,62bbe60bf3d75ef465d3e404,0,144,144,77,1,threefour,,,,,,,,,,,,,,,,,,,,,,,,,,,,,,,,,,,,,,,,,,,,,,,,,,,,,,,,,,,,,,,,,,,,,,,,,,,,,,,,,,,,,,,,,,,,,,,,,,,,,,,,,,,,,,,,,,,,,,,,,,,,,,,,,,,,,,,,,,,,,,,,,,,,,,,,
,,,,,,6070b67d921b68125705efd6,62bbfb8a6e16f86e54766a03,2022-06-29_09h20.54.418,Colour_Asymmetry_Pilot,2022.1.3,Win32,60.86427267,62bbe60bf3d75ef465d3e404,0,145,145,14,1,fourtwo,,,,,,,,,,,,,,,,,,,,,,,,,,,,,,,,,,,,,,,,,,,,,,,,,,,,,,,,,,,,,,,,,,,,,,,,,,,,,,,,,,,,,,,,,,,,,,,,,,,,,,,,,,,,,,,,,,,,,,,,,,,,,,,,,,,,,,,,,,,,,,,,,,,,,,,,
,,,,,,6070b67d921b68125705efd6,62bbfb8a6e16f86e54766a03,2022-06-29_09h20.54.418,Colour_Asymmetry_Pilot,2022.1.3,Win32,60.86427267,62bbe60bf3d75ef465d3e404,0,146,146,120,1,onetwo,,,,,,,,,,,,,,,,,,,,,,,,,,,,,,,,,,,,,,,,,,,,,,,,,,,,,,,,,,,,,,,,,,,,,,,,,,,,,,,,,,,,,,,,,,,,,,,,,,,,,,,,,,,,,,,,,,,,,,,,,,,,,,,,,,,,,,,,,,,,,,,,,,,,,,,,
,,,,,,6070b67d921b68125705efd6,62bbfb8a6e16f86e54766a03,2022-06-29_09h20.54.418,Colour_Asymmetry_Pilot,2022.1.3,Win32,60.86427267,62bbe60bf3d75ef465d3e404,0,147,147,41,1,onethree,,,,,,,,,,,,,,,,,,,,,,,,,,,,,,,,,,,,,,,,,,,,,,,,,,,,,,,,,,,,,,,,,,,,,,,,,,,,,,,,,,,,,,,,,,,,,,,,,,,,,,,,,,,,,,,,,,,,,,,,,,,,,,,,,,,,,,,,,,,,,,,,,,,,,,,,
,,,,,,6070b67d921b68125705efd6,62bbfb8a6e16f86e54766a03,2022-06-29_09h20.54.418,Colour_Asymmetry_Pilot,2022.1.3,Win32,60.86427267,62bbe60bf3d75ef465d3e404,0,148,148,79,1,fourthree,,,,,,,,,,,,,,,,,,,,,,,,,,,,,,,,,,,,,,,,,,,,,,,,,,,,,,,,,,,,,,,,,,,,,,,,,,,,,,,,,,,,,,,,,,,,,,,,,,,,,,,,,,,,,,,,,,,,,,,,,,,,,,,,,,,,,,,,,,,,,,,,,,,,,,,,
,,,,,,6070b67d921b68125705efd6,62bbfb8a6e16f86e54766a03,2022-06-29_09h20.54.418,Colour_Asymmetry_Pilot,2022.1.3,Win32,60.86427267,62bbe60bf3d75ef465d3e404,0,149,149,118,1,fourtwo,,,,,,,,,,,,,,,,,,,,,,,,,,,,,,,,,,,,,,,,,,,,,,,,,,,,,,,,,,,,,,,,,,,,,,,,,,,,,,,,,,,,,,,,,,,,,,,,,,,,,,,,,,,,,,,,,,,,,,,,,,,,,,,,,,,,,,,,,,,,,,,,,,,,,,,,
,,,,,,6070b67d921b68125705efd6,62bbfb8a6e16f86e54766a03,2022-06-29_09h20.54.418,Colour_Asymmetry_Pilot,2022.1.3,Win32,60.86427267,62bbe60bf3d75ef465d3e404,0,150,150,20,1,threeone,,,,,,,,,,,,,,,,,,,,,,,,,,,,,,,,,,,,,,,,,,,,,,,,,,,,,,,,,,,,,,,,,,,,,,,,,,,,,,,,,,,,,,,,,,,,,,,,,,,,,,,,,,,,,,,,,,,,,,,,,,,,,,,,,,,,,,,,,,,,,,,,,,,,,,,,
,,,,,,6070b67d921b68125705efd6,62bbfb8a6e16f86e54766a03,2022-06-29_09h20.54.418,Colour_Asymmetry_Pilot,2022.1.3,Win32,60.86427267,62bbe60bf3d75ef465d3e404,0,151,151,17,1,onethree,,,,,,,,,,,,,,,,,,,,,,,,,,,,,,,,,,,,,,,,,,,,,,,,,,,,,,,,,,,,,,,,,,,,,,,,,,,,,,,,,,,,,,,,,,,,,,,,,,,,,,,,,,,,,,,,,,,,,,,,,,,,,,,,,,,,,,,,,,,,,,,,,,,,,,,,
,,,,,,6070b67d921b68125705efd6,62bbfb8a6e16f86e54766a03,2022-06-29_09h20.54.418,Colour_Asymmetry_Pilot,2022.1.3,Win32,60.86427267,62bbe60bf3d75ef465d3e404,0,152,152,124,1,threeone,,,,,,,,,,,,,,,,,,,,,,,,,,,,,,,,,,,,,,,,,,,,,,,,,,,,,,,,,,,,,,,,,,,,,,,,,,,,,,,,,,,,,,,,,,,,,,,,,,,,,,,,,,,,,,,,,,,,,,,,,,,,,,,,,,,,,,,,,,,,,,,,,,,,,,,,
,,,,,,6070b67d921b68125705efd6,62bbfb8a6e16f86e54766a03,2022-06-29_09h20.54.418,Colour_Asymmetry_Pilot,2022.1.3,Win32,60.86427267,62bbe60bf3d75ef465d3e404,0,153,153,116,1,threeone,,,,,,,,,,,,,,,,,,,,,,,,,,,,,,,,,,,,,,,,,,,,,,,,,,,,,,,,,,,,,,,,,,,,,,,,,,,,,,,,,,,,,,,,,,,,,,,,,,,,,,,,,,,,,,,,,,,,,,,,,,,,,,,,,,,,,,,,,,,,,,,,,,,,,,,,
,,,,,,6070b67d921b68125705efd6,62bbfb8a6e16f86e54766a03,2022-06-29_09h20.54.418,Colour_Asymmetry_Pilot,2022.1.3,Win32,60.86427267,62bbe60bf3d75ef465d3e404,0,154,154,109,1,threefour,,,,,,,,,,,,,,,,,,,,,,,,,,,,,,,,,,,,,,,,,,,,,,,,,,,,,,,,,,,,,,,,,,,,,,,,,,,,,,,,,,,,,,,,,,,,,,,,,,,,,,,,,,,,,,,,,,,,,,,,,,,,,,,,,,,,,,,,,,,,,,,,,,,,,,,,
,,,,,,6070b67d921b68125705efd6,62bbfb8a6e16f86e54766a03,2022-06-29_09h20.54.418,Colour_Asymmetry_Pilot,2022.1.3,Win32,60.86427267,62bbe60bf3d75ef465d3e404,0,155,155,129,1,onethree,,,,,,,,,,,,,,,,,,,,,,,,,,,,,,,,,,,,,,,,,,,,,,,,,,,,,,,,,,,,,,,,,,,,,,,,,,,,,,,,,,,,,,,,,,,,,,,,,,,,,,,,,,,,,,,,,,,,,,,,,,,,,,,,,,,,,,,,,,,,,,,,,,,,,,,,
,,,,,,6070b67d921b68125705efd6,62bbfb8a6e16f86e54766a03,2022-06-29_09h20.54.418,Colour_Asymmetry_Pilot,2022.1.3,Win32,60.86427267,62bbe60bf3d75ef465d3e404,0,156,156,90,1,twoone,,,,,,,,,,,,,,,,,,,,,,,,,,,,,,,,,,,,,,,,,,,,,,,,,,,,,,,,,,,,,,,,,,,,,,,,,,,,,,,,,,,,,,,,,,,,,,,,,,,,,,,,,,,,,,,,,,,,,,,,,,,,,,,,,,,,,,,,,,,,,,,,,,,,,,,,
,,,,,,6070b67d921b68125705efd6,62bbfb8a6e16f86e54766a03,2022-06-29_09h20.54.418,Colour_Asymmetry_Pilot,2022.1.3,Win32,60.86427267,62bbe60bf3d75ef465d3e404,0,157,157,139,1,twofour,,,,,,,,,,,,,,,,,,,,,,,,,,,,,,,,,,,,,,,,,,,,,,,,,,,,,,,,,,,,,,,,,,,,,,,,,,,,,,,,,,,,,,,,,,,,,,,,,,,,,,,,,,,,,,,,,,,,,,,,,,,,,,,,,,,,,,,,,,,,,,,,,,,,,,,,
,,,,,,6070b67d921b68125705efd6,62bbfb8a6e16f86e54766a03,2022-06-29_09h20.54.418,Colour_Asymmetry_Pilot,2022.1.3,Win32,60.86427267,62bbe60bf3d75ef465d3e404,0,158,158,62,1,fourtwo,,,,,,,,,,,,,,,,,,,,,,,,,,,,,,,,,,,,,,,,,,,,,,,,,,,,,,,,,,,,,,,,,,,,,,,,,,,,,,,,,,,,,,,,,,,,,,,,,,,,,,,,,,,,,,,,,,,,,,,,,,,,,,,,,,,,,,,,,,,,,,,,,,,,,,,,
,,,,,,6070b67d921b68125705efd6,62bbfb8a6e16f86e54766a03,2022-06-29_09h20.54.418,Colour_Asymmetry_Pilot,2022.1.3,Win32,60.86427267,62bbe60bf3d75ef465d3e404,0,159,159,71,1,fourthree,,,,,,,,,,,,,,,,,,,,,,,,,,,,,,,,,,,,,,,,,,,,,,,,,,,,,,,,,,,,,,,,,,,,,,,,,,,,,,,,,,,,,,,,,,,,,,,,,,,,,,,,,,,,,,,,,,,,,,,,,,,,,,,,,,,,,,,,,,,,,,,,,,,,,,,,
,,,,,,6070b67d921b68125705efd6,62bbfb8a6e16f86e54766a03,2022-06-29_09h20.54.418,Colour_Asymmetry_Pilot,2022.1.3,Win32,60.86427267,62bbe60bf3d75ef465d3e404,0,160,160,8,1,onetwo,,,,,,,,,,,,,,,,,,,,,,,,,,,,,,,,,,,,,,,,,,,,,,,,,,,,,,,,,,,,,,,,,,,,,,,,,,,,,,,,,,,,,,,,,,,,,,,,,,,,,,,,,,,,,,,,,,,,,,,,,,,,,,,,,,,,,,,,,,,,,,,,,,,,,,,,
,,,,,,6070b67d921b68125705efd6,62bbfb8a6e16f86e54766a03,2022-06-29_09h20.54.418,Colour_Asymmetry_Pilot,2022.1.3,Win32,60.86427267,62bbe60bf3d75ef465d3e404,0,161,161,1,1,onethree,,,,,,,,,,,,,,,,,,,,,,,,,,,,,,,,,,,,,,,,,,,,,,,,,,,,,,,,,,,,,,,,,,,,,,,,,,,,,,,,,,,,,,,,,,,,,,,,,,,,,,,,,,,,,,,,,,,,,,,,,,,,,,,,,,,,,,,,,,,,,,,,,,,,,,,,
,,,,,,6070b67d921b68125705efd6,62bbfb8a6e16f86e54766a03,2022-06-29_09h20.54.418,Colour_Asymmetry_Pilot,2022.1.3,Win32,60.86427267,62bbe60bf3d75ef465d3e404,,,,,,,space,5.6935,space,3.9033,space,42.5767,space,145.4746,space,15.7119,space,11.8022,"[-0.6942,-0.7648,-0.12959999999999994]",fourthree,"[0.5449999999999999,-0.31000000000000005,-0.0354000000000001]",-4,27.595,-49,78,1,0,0,response7disk_5,8,2,1,0,0,rectangle_8,8,2,1,0,0,2,8,2,1,0,0,0,0,0,0,1,,,,,,,,,,,,,,,,,,,,,,,,,,,,,,,,,,,,,,,,,,,,,,,,,,,,,,,,,,,,,,,,,,,,,,,,,,,,,,,,,,,,,,,,,,,,,,,,,,,,,,,,,,,
,,,,,,6070b67d921b68125705efd6,62bbfb8a6e16f86e54766a03,2022-06-29_09h20.54.418,Colour_Asymmetry_Pilot,2022.1.3,Win32,60.86427267,62bbe60bf3d75ef465d3e404,,,,,,,,,,,,,,,,,,,"[-0.10599999999999998,-0.10599999999999998,0.5841999999999998]",twofour,"[0.7646000000000002,0.07440000000000002,0.2704]",4,1.251,43,86,1,0,0,response1disk_5,1,13,1,0,0,rectangle_8,1,13,1,0,0,2,1,13,1,0,0,1,0,1,0,1,,,,,,,,,,,,,,,,,,,,,,,,,,,,,,,,,,,,,,,,,,,,,,,,,,,,,,,,,,,,,,,,,,,,,,,,,,,,,,,,,,,,,,,,,,,,,,,,,,,,,,,,,,,
,,,,,,6070b67d921b68125705efd6,62bbfb8a6e16f86e54766a03,2022-06-29_09h20.54.418,Colour_Asymmetry_Pilot,2022.1.3,Win32,60.86427267,62bbe60bf3d75ef465d3e404,,,,,,,,,,,,,,,,,,,"[0.9763999999999999,0.30979999999999985,-0.6786]",onethree,"[-0.011800000000000033,-0.906,-0.45100000000000007]",4,0.7344,48,92,1,0,0,response1disk_5,11,3,1,0,0,rectangle_8,39,-90,1,0,0,2,9,2,1,0,0,2,0,2,0,1,response3disk_7,4,rectangle_4,,,,,,,,,,,,,,,,,,,,,,,,,,,,,,,,,,,,,,,,,,,,,,,,,,,,,,,,,,,,,,,,,,,,,,,,,,,,,,,,,,,,,,,,,,,,,,,,,,,,,,,,
,,,,,,6070b67d921b68125705efd6,62bbfb8a6e16f86e54766a03,2022-06-29_09h20.54.418,Colour_Asymmetry_Pilot,2022.1.3,Win32,60.86427267,62bbe60bf3d75ef465d3e404,,,,,,,,,,,,,,,,,,,"[-0.26280000000000003,-0.2158,-0.3256]",fourtwo,"[-0.050999999999999934,-0.6706000000000001,-0.804]",1,0.5832,52,-89,1,0,0,response3disk_5,-16,-6,1,0,0,rectangle_8,-39,-75,1,0,0,2,-4,5,1,0,0,3,0,3,0,1,response5disk_7,3,rectangle_4,,,,,,,,,,,,,,,,,,,,,,,,,,,,,,,,,,,,,,,,,,,,,,,,,,,,,,,,,,,,,,,,,,,,,,,,,,,,,,,,,,,,,,,,,,,,,,,,,,,,,,,,
,,,,,,6070b67d921b68125705efd6,62bbfb8a6e16f86e54766a03,2022-06-29_09h20.54.418,Colour_Asymmetry_Pilot,2022.1.3,Win32,60.86427267,62bbe60bf3d75ef465d3e404,,,,,,,,,,,,,,,,,,,"[-0.4902000000000001,0.2704,-0.45899999999999996]",twofour,"[0.18419999999999992,-0.4276,-0.404]",-1,0.9324,-43,-74,1,0,0,response5disk_5,-6,4,1,0,0,rectangle_8,-6,4,1,0,0,2,-6,4,1,0,0,4,0,4,0,1,,,,,,,,,,,,,,,,,,,,,,,,,,,,,,,,,,,,,,,,,,,,,,,,,,,,,,,,,,,,,,,,,,,,,,,,,,,,,,,,,,,,,,,,,,,,,,,,,,,,,,,,,,,
,,,,,,6070b67d921b68125705efd6,62bbfb8a6e16f86e54766a03,2022-06-29_09h20.54.418,Colour_Asymmetry_Pilot,2022.1.3,Win32,60.86427267,62bbe60bf3d75ef465d3e404,,,,,,,,,,,,,,,,,,,"[0.9842,0.7409999999999999,-0.6628000000000001]",threeone,"[-0.06680000000000008,-0.45100000000000007,-0.906]",-4,3.338,-40,93,1,0,0,response7disk_5,-11,6,1,0,0,rectangle_8,-11,6,1,0,0,2,-11,6,1,0,0,5,0,5,0,1,,,,,,,,,,,,,,,,,,,,,,,,,,,,,,,,,,,,,,,,,,,,,,,,,,,,,,,,,,,,,,,,,,,,,,,,,,,,,,,,,,,,,,,,,,,,,,,,,,,,,,,,,,,
,,,,,,6070b67d921b68125705efd6,62bbfb8a6e16f86e54766a03,2022-06-29_09h20.54.418,Colour_Asymmetry_Pilot,2022.1.3,Win32,60.86427267,62bbe60bf3d75ef465d3e404,,,,,,,,,,,,,,,,,,,"[-0.17659999999999998,-0.2864,-0.8354]",threeone,"[0.8274000000000001,-0.5844,-0.9452]",-4,1.2808,-45,80,1,0,0,response7disk_5,5,0,1,0,0,rectangle_8,5,0,1,0,0,2,5,0,1,0,0,6,0,6,0,1,,,,,,,,,,,,,,,,,,,,,,,,,,,,,,,,,,,,,,,,,,,,,,,,,,,,,,,,,,,,,,,,,,,,,,,,,,,,,,,,,,,,,,,,,,,,,,,,,,,,,,,,,,,
,,,,,,6070b67d921b68125705efd6,62bbfb8a6e16f86e54766a03,2022-06-29_09h20.54.418,Colour_Asymmetry_Pilot,2022.1.3,Win32,60.86427267,62bbe60bf3d75ef465d3e404,,,,,,,,,,,,,,,,,,,,threeone,,-4,1.2954,,,,,,,,,,,,,,,,,,,,,,,,,,,,,,,,space,3.8299,"[-0.5452,-0.608,0.2470000000000001]","[-0.01980000000000004,-0.5138,-0.38039999999999996]",-40,96,1,0,0,response7disk,-10,6,1,0,0,rectangle,-10,6,1,0,0,,3,0.0057,0,-10,6,1,0,0,0,0,0,3,1,3,first,,,,,,,,,,,,,,,,,,,,,,,,,,,,,,,,,,,,,,,,,,,,,,,,,,,,,,,,,,,,,,,,,,,
,,,,,,6070b67d921b68125705efd6,62bbfb8a6e16f86e54766a03,2022-06-29_09h20.54.418,Colour_Asymmetry_Pilot,2022.1.3,Win32,60.86427267,62bbe60bf3d75ef465d3e404,,,,,,,,,,,,,,,,,,,,fourtwo,,-4,0.6579,,,,,,,,,,,,,,,,,,,,,,,,,,,,,,,,,,"[0.7018,0.7802,-0.16079999999999994]","[-0.9138,-0.5296000000000001,-0.5529999999999999]",-34,86,1,0,0,response7disk,-12,9,1,0,0,rectangle,-12,9,1,0,0,,1,0.0063,0,-12,9,1,0,0,0,1,1,47,1,47,first,,,,,,,,,,,,,,,,,,,,,,,,,,,,,,,,,,,,,,,,,,,,,,,,,,,,,,,,,,,,,,,,,,,
,,,,,,6070b67d921b68125705efd6,62bbfb8a6e16f86e54766a03,2022-06-29_09h20.54.418,Colour_Asymmetry_Pilot,2022.1.3,Win32,60.86427267,62bbe60bf3d75ef465d3e404,,,,,,,,,,,,,,,,,,,,threeone,,-4,0.6689,,,,,,,,,,,,,,,,,,,,,,,,,,,,,,,,,,"[0.8115999999999999,-0.0040000000000000036,-0.09819999999999995]","[-0.17659999999999998,-0.2864,-0.8354]",-47,94,1,0,0,response7disk,-7,2,1,0,0,rectangle,-7,2,1,0,0,,2,0.0031,0,-7,2,1,0,0,0,2,2,67,1,67,first,,,,,,,,,,,,,,,,,,,,,,,,,,,,,,,,,,,,,,,,,,,,,,,,,,,,,,,,,,,,,,,,,,,
,,,,,,6070b67d921b68125705efd6,62bbfb8a6e16f86e54766a03,2022-06-29_09h20.54.418,Colour_Asymmetry_Pilot,2022.1.3,Win32,60.86427267,62bbe60bf3d75ef465d3e404,,,,,,,,,,,,,,,,,,,,threeone,,4,1.3144,,,,,,,,,,,,,,,,,,,,,,,,,,,,,,,,,,"[-0.10599999999999998,-0.15300000000000002,0.15280000000000005]","[-0.01980000000000004,-0.5138,-0.38039999999999996]",49,84,1,0,0,response1disk,2,-7,1,0,0,rectangle,2,-7,1,0,0,,1,0.0052,0,2,-7,1,0,0,0,3,3,81,1,0,second,,,,,,,,,,,,,,,,,,,,,,,,,,,,,,,,,,,,,,,,,,,,,,,,,,,,,,,,,,,,,,,,,,,
,,,,,,6070b67d921b68125705efd6,62bbfb8a6e16f86e54766a03,2022-06-29_09h20.54.418,Colour_Asymmetry_Pilot,2022.1.3,Win32,60.86427267,62bbe60bf3d75ef465d3e404,,,,,,,,,,,,,,,,,,,,onetwo,,-4,0.6488,,,,,,,,,,,,,,,,,,,,,,,,,,,,,,,,,,"[-0.10599999999999998,-0.10599999999999998,0.5841999999999998]","[-0.06680000000000008,-0.45100000000000007,-0.906]",-44,81,1,0,0,response7disk,-4,7,1,0,0,rectangle,-4,7,1,0,0,,2,0.0028,0,-4,7,1,0,0,0,4,4,94,1,13,second,,,,,,,,,,,,,,,,,,,,,,,,,,,,,,,,,,,,,,,,,,,,,,,,,,,,,,,,,,,,,,,,,,,
,,,,,,6070b67d921b68125705efd6,62bbfb8a6e16f86e54766a03,2022-06-29_09h20.54.418,Colour_Asymmetry_Pilot,2022.1.3,Win32,60.86427267,62bbe60bf3d75ef465d3e404,,,,,,,,,,,,,,,,,,,,threeone,,-4,1.1392,,,,,,,,,,,,,,,,,,,,,,,,,,,,,,,,,,"[-0.06680000000000008,-0.45100000000000007,-0.906]","[-0.10599999999999998,-0.10599999999999998,0.5841999999999998]",-49,82,1,0,0,response7disk,-3,3,1,0,0,rectangle,-3,3,1,0,0,,3,0.0034,0,-3,3,1,0,0,0,5,5,118,1,37,second,,,,,,,,,,,,,,,,,,,,,,,,,,,,,,,,,,,,,,,,,,,,,,,,,,,,,,,,,,,,,,,,,,,
,,,,,,6070b67d921b68125705efd6,62bbfb8a6e16f86e54766a03,2022-06-29_09h20.54.418,Colour_Asymmetry_Pilot,2022.1.3,Win32,60.86427267,62bbe60bf3d75ef465d3e404,,,,,,,,,,,,,,,,,,,,onetwo,,-4,0.7505,,,,,,,,,,,,,,,,,,,,,,,,,,,,,,,,,,"[0.9763999999999999,0.8588,-0.05900000000000005]","[0.6625999999999999,0.4980000000000002,-0.357]",-24,64,1,0,0,response7disk,0,0,1,0,0,rectangle,0,0,1,0,0,,1,0.0026,0,0,0,1,0,0,0,6,6,52,1,52,first,,,,,,,,,,,,,,,,,,,,,,,,,,,,,,,,,,,,,,,,,,,,,,,,,,,,,,,,,,,,,,,,,,,
,,,,,,6070b67d921b68125705efd6,62bbfb8a6e16f86e54766a03,2022-06-29_09h20.54.418,Colour_Asymmetry_Pilot,2022.1.3,Win32,60.86427267,62bbe60bf3d75ef465d3e404,,,,,,,,,,,,,,,,,,,,threeone,,-4,0.5348,,,,,,,,,,,,,,,,,,,,,,,,,,,,,,,,,,"[-0.01980000000000004,-0.5138,-0.38039999999999996]","[-0.10599999999999998,-0.15300000000000002,0.15280000000000005]",-44,66,1,0,0,response7disk,-9,-1,1,0,0,rectangle,-9,-1,1,0,0,,3,0.0056,0,-9,-1,1,0,0,0,7,7,0,1,0,first,,,,,,,,,,,,,,,,,,,,,,,,,,,,,,,,,,,,,,,,,,,,,,,,,,,,,,,,,,,,,,,,,,,
,,,,,,6070b67d921b68125705efd6,62bbfb8a6e16f86e54766a03,2022-06-29_09h20.54.418,Colour_Asymmetry_Pilot,2022.1.3,Win32,60.86427267,62bbe60bf3d75ef465d3e404,,,,,,,,,,,,,,,,,,,,fourtwo,,-4,1.9505,,,,,,,,,,,,,,,,,,,,,,,,,,,,,,,,,,"[0.9763999999999999,0.8588,-0.05900000000000005]","[-0.4276,0.0038000000000000256,-0.3256]",-41,90,1,0,0,response7disk,4,-13,1,0,0,rectangle,4,-13,1,0,0,,1,0.0029,0,4,-13,1,0,0,0,8,8,101,1,20,second,,,,,,,,,,,,,,,,,,,,,,,,,,,,,,,,,,,,,,,,,,,,,,,,,,,,,,,,,,,,,,,,,,,
,,,,,,6070b67d921b68125705efd6,62bbfb8a6e16f86e54766a03,2022-06-29_09h20.54.418,Colour_Asymmetry_Pilot,2022.1.3,Win32,60.86427267,62bbe60bf3d75ef465d3e404,,,,,,,,,,,,,,,,,,,,fourthree,,-4,0.6739,,,,,,,,,,,,,,,,,,,,,,,,,,,,,,,,,,"[0.9213999999999998,0.6391999999999998,-0.9922]","[-0.7412000000000001,-0.08239999999999992,-0.6864]",-40,74,1,0,0,response7disk,-6,5,1,0,0,rectangle,-6,5,1,0,0,,2,0.0031,0,-6,5,1,0,0,0,9,9,45,1,45,first,,,,,,,,,,,,,,,,,,,,,,,,,,,,,,,,,,,,,,,,,,,,,,,,,,,,,,,,,,,,,,,,,,,
,,,,,,6070b67d921b68125705efd6,62bbfb8a6e16f86e54766a03,2022-06-29_09h20.54.418,Colour_Asymmetry_Pilot,2022.1.3,Win32,60.86427267,62bbe60bf3d75ef465d3e404,,,,,,,,,,,,,,,,,,,,fourthree,,-1,1.5305,,,,,,,,,,,,,,,,,,,,,,,,,,,,,,,,,,"[0.18419999999999992,-0.4276,-0.404]","[0.8115999999999999,-0.0040000000000000036,-0.09819999999999995]",-30,-83,1,0,0,response5disk,1,-6,1,0,0,rectangle,1,-6,1,0,0,,3,0.0069,0,1,-6,1,0,0,0,10,10,54,1,54,first,,,,,,,,,,,,,,,,,,,,,,,,,,,,,,,,,,,,,,,,,,,,,,,,,,,,,,,,,,,,,,,,,,,
,,,,,,6070b67d921b68125705efd6,62bbfb8a6e16f86e54766a03,2022-06-29_09h20.54.418,Colour_Asymmetry_Pilot,2022.1.3,Win32,60.86427267,62bbe60bf3d75ef465d3e404,,,,,,,,,,,,,,,,,,,,fourtwo,,1,2.9427,,,,,,,,,,,,,,,,,,,,,,,,,,,,,,,,,,"[-0.8118,-0.8198,-0.5452]","[-0.10599999999999998,-0.10599999999999998,0.5841999999999998]",22,-88,1,0,0,response3disk,-16,11,1,0,0,rectangle,-16,11,1,0,0,,2,0.0026,0,-16,11,1,0,0,0,11,11,9,1,9,first,,,,,,,,,,,,,,,,,,,,,,,,,,,,,,,,,,,,,,,,,,,,,,,,,,,,,,,,,,,,,,,,,,,
,,,,,,6070b67d921b68125705efd6,62bbfb8a6e16f86e54766a03,2022-06-29_09h20.54.418,Colour_Asymmetry_Pilot,2022.1.3,Win32,60.86427267,62bbe60bf3d75ef465d3e404,,,,,,,,,,,,,,,,,,,,threefour,,-4,0.8369,,,,,,,,,,,,,,,,,,,,,,,,,,,,,,,,,,"[-0.5452,-0.608,0.2470000000000001]","[-0.9138,-0.5296000000000001,-0.5529999999999999]",-48,80,1,0,0,response7disk,-4,2,1,0,0,rectangle,-4,2,1,0,0,,1,0.0026,0,-4,2,1,0,0,0,12,12,86,1,5,second,,,,,,,,,,,,,,,,,,,,,,,,,,,,,,,,,,,,,,,,,,,,,,,,,,,,,,,,,,,,,,,,,,,
,,,,,,6070b67d921b68125705efd6,62bbfb8a6e16f86e54766a03,2022-06-29_09h20.54.418,Colour_Asymmetry_Pilot,2022.1.3,Win32,60.86427267,62bbe60bf3d75ef465d3e404,,,,,,,,,,,,,,,,,,,,twoone,,-4,0.7305,,,,,,,,,,,,,,,,,,,,,,,,,,,,,,,,,,"[-0.38039999999999996,-0.4276,-0.1452]","[0.9842,0.7409999999999999,-0.6628000000000001]",-32,72,1,0,0,response7disk,-10,14,1,0,0,rectangle,-10,14,1,0,0,,3,0.0029,0,-10,14,1,0,0,0,13,13,44,1,44,first,,,,,,,,,,,,,,,,,,,,,,,,,,,,,,,,,,,,,,,,,,,,,,,,,,,,,,,,,,,,,,,,,,,
,,,,,,6070b67d921b68125705efd6,62bbfb8a6e16f86e54766a03,2022-06-29_09h20.54.418,Colour_Asymmetry_Pilot,2022.1.3,Win32,60.86427267,62bbe60bf3d75ef465d3e404,,,,,,,,,,,,,,,,,,,,threefour,,-2,1.0835,,,,,,,,,,,,,,,,,,,,,,,,,,,,,,,,,,"[-0.10599999999999998,-0.10599999999999998,0.5841999999999998]","[-0.8118,-0.8198,-0.5452]",-80,-41,1,0,0,response5disk,-2,4,1,0,0,rectangle,-2,4,1,0,0,,2,0.0031,0,-2,4,1,0,0,0,14,14,90,1,9,second,,,,,,,,,,,,,,,,,,,,,,,,,,,,,,,,,,,,,,,,,,,,,,,,,,,,,,,,,,,,,,,,,,,
,,,,,,6070b67d921b68125705efd6,62bbfb8a6e16f86e54766a03,2022-06-29_09h20.54.418,Colour_Asymmetry_Pilot,2022.1.3,Win32,60.86427267,62bbe60bf3d75ef465d3e404,,,,,,,,,,,,,,,,,,,,onetwo,,4,0.9012,,,,,,,,,,,,,,,,,,,,,,,,,,,,,,,,,,"[0.7018,0.7802,-0.16079999999999994]","[0.9213999999999998,0.6391999999999998,-0.9922]",34,87,1,0,0,response1disk,6,12,1,0,0,rectangle,6,12,1,0,0,,1,0.004,0,6,12,1,0,0,0,15,15,111,1,30,second,,,,,,,,,,,,,,,,,,,,,,,,,,,,,,,,,,,,,,,,,,,,,,,,,,,,,,,,,,,,,,,,,,,
,,,,,,6070b67d921b68125705efd6,62bbfb8a6e16f86e54766a03,2022-06-29_09h20.54.418,Colour_Asymmetry_Pilot,2022.1.3,Win32,60.86427267,62bbe60bf3d75ef465d3e404,,,,,,,,,,,,,,,,,,,,fourthree,,-4,0.5044,,,,,,,,,,,,,,,,,,,,,,,,,,,,,,,,,,"[0.2784,-0.31000000000000005,-0.5452]","[0.19199999999999995,0.18419999999999992,0.5136000000000001]",-41,66,1,0,0,response7disk,-18,0,1,0,0,rectangle,-18,0,1,0,0,,2,0.0025,0,-18,0,1,0,0,0,16,16,34,1,34,first,,,,,,,,,,,,,,,,,,,,,,,,,,,,,,,,,,,,,,,,,,,,,,,,,,,,,,,,,,,,,,,,,,,
,,,,,,6070b67d921b68125705efd6,62bbfb8a6e16f86e54766a03,2022-06-29_09h20.54.418,Colour_Asymmetry_Pilot,2022.1.3,Win32,60.86427267,62bbe60bf3d75ef465d3e404,,,,,,,,,,,,,,,,,,,,onetwo,,3,1.7574,,,,,,,,,,,,,,,,,,,,,,,,,,,,,,,,,,"[-0.4276,0.0038000000000000256,-0.3256]","[0.04299999999999993,0.16060000000000008,-0.6628000000000001]",108,68,1,0,0,response1disk,0,-2,1,0,0,rectangle,0,-2,1,0,0,,2,0.0005,0,0,-2,1,0,0,0,17,17,16,1,16,first,,,,,,,,,,,,,,,,,,,,,,,,,,,,,,,,,,,,,,,,,,,,,,,,,,,,,,,,,,,,,,,,,,,
,,,,,,6070b67d921b68125705efd6,62bbfb8a6e16f86e54766a03,2022-06-29_09h20.54.418,Colour_Asymmetry_Pilot,2022.1.3,Win32,60.86427267,62bbe60bf3d75ef465d3e404,,,,,,,,,,,,,,,,,,,,fourthree,,-4,1.3515,,,,,,,,,,,,,,,,,,,,,,,,,,,,,,,,,,"[0.7646000000000002,0.07440000000000002,0.2704]","[-0.07459999999999989,0.12139999999999995,-0.9922]",-32,91,1,0,0,response7disk,-4,6,1,0,0,rectangle,-4,6,1,0,0,,3,0.0029,0,-4,6,1,0,0,0,18,18,120,1,39,second,,,,,,,,,,,,,,,,,,,,,,,,,,,,,,,,,,,,,,,,,,,,,,,,,,,,,,,,,,,,,,,,,,,
,,,,,,6070b67d921b68125705efd6,62bbfb8a6e16f86e54766a03,2022-06-29_09h20.54.418,Colour_Asymmetry_Pilot,2022.1.3,Win32,60.86427267,62bbe60bf3d75ef465d3e404,,,,,,,,,,,,,,,,,,,,twofour,,-4,0.6348,,,,,,,,,,,,,,,,,,,,,,,,,,,,,,,,,,"[-0.10599999999999998,-0.10599999999999998,0.5841999999999998]","[-0.06680000000000008,-0.45100000000000007,-0.906]",-45,88,1,0,0,response7disk,0,2,1,0,0,rectangle,0,2,1,0,0,,1,0.0026,0,0,2,1,0,0,0,19,19,37,1,37,first,,,,,,,,,,,,,,,,,,,,,,,,,,,,,,,,,,,,,,,,,,,,,,,,,,,,,,,,,,,,,,,,,,,
,,,,,,6070b67d921b68125705efd6,62bbfb8a6e16f86e54766a03,2022-06-29_09h20.54.418,Colour_Asymmetry_Pilot,2022.1.3,Win32,60.86427267,62bbe60bf3d75ef465d3e404,,,,,,,,,,,,,,,,,,,,fourtwo,,-4,0.3433,,,,,,,,,,,,,,,,,,,,,,,,,,,,,,,,,,"[-0.45899999999999996,-0.3256,-0.9374]","[0.3568,-0.20799999999999996,-0.9844]",-32,69,1,0,0,response7disk,-15,12,1,0,0,rectangle,-15,12,1,0,0,,1,0.0006,0,-15,12,1,0,0,0,20,20,116,1,35,second,,,,,,,,,,,,,,,,,,,,,,,,,,,,,,,,,,,,,,,,,,,,,,,,,,,,,,,,,,,,,,,,,,,
