trials.thisRepN,trials.thisTrialN,trials.thisN,trials.thisIndex,trials.ran,Colourcodes,participant,session,date,expName,psychopyVersion,OS,frameRate,study_id,trials_4.thisRepN,trials_4.thisTrialN,trials_4.thisN,trials_4.thisIndex,trials_4.ran,StimulusPos,key_resp.keys,key_resp.rt,key_resp_2.keys,key_resp_2.rt,key_resp_15.keys,key_resp_15.rt,key_resp_17.keys,key_resp_17.rt,key_resp_9.keys,key_resp_9.rt,key_resp_10.keys,key_resp_10.rt,Circle1_col,Ecc,Circle2_col,similarity,response_time,mouse_5.x,mouse_5.y,mouse_5.leftButton,mouse_5.midButton,mouse_5.rightButton,mouse_5.clicked_name,mouse_10.x,mouse_10.y,mouse_10.leftButton,mouse_10.midButton,mouse_10.rightButton,mouse_10.clicked_name,mouse_7.x,mouse_7.y,mouse_7.leftButton,mouse_7.midButton,mouse_7.rightButton,catchnumberprac,mouse_6.x,mouse_6.y,mouse_6.leftButton,mouse_6.midButton,mouse_6.rightButton,duringprac.thisRepN,duringprac.thisTrialN,duringprac.thisN,duringprac.thisIndex,duringprac.ran,mouse_7.clicked_name,catchprac,mouse_6.clicked_name,key_resp_22.keys,key_resp_22.rt,Circle1_colour,Circle2_colour,mouse.x,mouse.y,mouse.leftButton,mouse.midButton,mouse.rightButton,mouse.clicked_name,mouse_2.x,mouse_2.y,mouse_2.leftButton,mouse_2.midButton,mouse_2.rightButton,mouse_2.clicked_name,mouse_3.x,mouse_3.y,mouse_3.leftButton,mouse_3.midButton,mouse_3.rightButton,catchresponse,catchnumber,response_time_catch,Catch,mouse_11.x,mouse_11.y,mouse_11.leftButton,mouse_11.midButton,mouse_11.rightButton,trials_2.thisRepN,trials_2.thisTrialN,trials_2.thisN,trials_2.thisIndex,trials_2.ran,Colourpair,Temporder,mouse_3.clicked_name,mouse_11.clicked_name,trials_3.thisRepN,trials_3.thisTrialN,trials_3.thisN,trials_3.thisIndex,trials_3.ran,key_resp_instr_Ishi.keys,key_resp_instr_Ishi.rt,Ishi_trial_keyresp.keys,Ishi_trial_keyresp.rt,Ishi_textbox.text,Ishi_loop.thisRepN,Ishi_loop.thisTrialN,Ishi_loop.thisN,Ishi_loop.thisIndex,Ishi_loop.ran,imageaddress,textbox.text,mouse_4.x,mouse_4.y,mouse_4.leftButton,mouse_4.midButton,mouse_4.rightButton,mouse_4.clicked_name,textbox_2.text,mouse_8.x,mouse_8.y,mouse_8.leftButton,mouse_8.midButton,mouse_8.rightButton,mouse_8.clicked_name,textbox_3.text,mouse_9.x,mouse_9.y,mouse_9.leftButton,mouse_9.midButton,mouse_9.rightButton,mouse_9.clicked_name,textbox_4.text,mouse_12.x,mouse_12.y,mouse_12.leftButton,mouse_12.midButton,mouse_12.rightButton,mouse_12.clicked_name,textbox_5.text,mouse_13.x,mouse_13.y,mouse_13.leftButton,mouse_13.midButton,mouse_13.rightButton,mouse_13.clicked_name,textbox_6.text,mouse_14.x,mouse_14.y,mouse_14.leftButton,mouse_14.midButton,mouse_14.rightButton,mouse_14.clicked_name,textbox_7.text,mouse_15.x,mouse_15.y,mouse_15.leftButton,mouse_15.midButton,mouse_15.rightButton,mouse_15.clicked_name
0,0,0,22,1,,5df924a11e2e586a0fa62643,62bbfb700876361cf282601c,2022-06-29_09h13.05.599,Colour_Asymmetry_Pilot,2022.1.3,Win32,75.00187505,62bbe60bf3d75ef465d3e404,,,,,,,,,,,,,,,,,,,,,,,,,,,,,,,,,,,,,,,,,,,,,,,,,,,,,,,,,,,,,,,,,,,,,,,,,,,,,,,,,,,,,,,,,,,,,,,,,,,,,,,,,,,,,,,,,,,,,,,,,,,,,,,,,,,,,,,,,,,,,,,,,,,,,,,,,,,,,,
0,1,1,70,1,,5df924a11e2e586a0fa62643,62bbfb700876361cf282601c,2022-06-29_09h13.05.599,Colour_Asymmetry_Pilot,2022.1.3,Win32,75.00187505,62bbe60bf3d75ef465d3e404,,,,,,,,,,,,,,,,,,,,,,,,,,,,,,,,,,,,,,,,,,,,,,,,,,,,,,,,,,,,,,,,,,,,,,,,,,,,,,,,,,,,,,,,,,,,,,,,,,,,,,,,,,,,,,,,,,,,,,,,,,,,,,,,,,,,,,,,,,,,,,,,,,,,,,,,,,,,,,
0,2,2,44,1,,5df924a11e2e586a0fa62643,62bbfb700876361cf282601c,2022-06-29_09h13.05.599,Colour_Asymmetry_Pilot,2022.1.3,Win32,75.00187505,62bbe60bf3d75ef465d3e404,,,,,,,,,,,,,,,,,,,,,,,,,,,,,,,,,,,,,,,,,,,,,,,,,,,,,,,,,,,,,,,,,,,,,,,,,,,,,,,,,,,,,,,,,,,,,,,,,,,,,,,,,,,,,,,,,,,,,,,,,,,,,,,,,,,,,,,,,,,,,,,,,,,,,,,,,,,,,,
0,3,3,81,1,,5df924a11e2e586a0fa62643,62bbfb700876361cf282601c,2022-06-29_09h13.05.599,Colour_Asymmetry_Pilot,2022.1.3,Win32,75.00187505,62bbe60bf3d75ef465d3e404,,,,,,,,,,,,,,,,,,,,,,,,,,,,,,,,,,,,,,,,,,,,,,,,,,,,,,,,,,,,,,,,,,,,,,,,,,,,,,,,,,,,,,,,,,,,,,,,,,,,,,,,,,,,,,,,,,,,,,,,,,,,,,,,,,,,,,,,,,,,,,,,,,,,,,,,,,,,,,
0,4,4,25,1,,5df924a11e2e586a0fa62643,62bbfb700876361cf282601c,2022-06-29_09h13.05.599,Colour_Asymmetry_Pilot,2022.1.3,Win32,75.00187505,62bbe60bf3d75ef465d3e404,,,,,,,,,,,,,,,,,,,,,,,,,,,,,,,,,,,,,,,,,,,,,,,,,,,,,,,,,,,,,,,,,,,,,,,,,,,,,,,,,,,,,,,,,,,,,,,,,,,,,,,,,,,,,,,,,,,,,,,,,,,,,,,,,,,,,,,,,,,,,,,,,,,,,,,,,,,,,,
0,5,5,84,1,,5df924a11e2e586a0fa62643,62bbfb700876361cf282601c,2022-06-29_09h13.05.599,Colour_Asymmetry_Pilot,2022.1.3,Win32,75.00187505,62bbe60bf3d75ef465d3e404,,,,,,,,,,,,,,,,,,,,,,,,,,,,,,,,,,,,,,,,,,,,,,,,,,,,,,,,,,,,,,,,,,,,,,,,,,,,,,,,,,,,,,,,,,,,,,,,,,,,,,,,,,,,,,,,,,,,,,,,,,,,,,,,,,,,,,,,,,,,,,,,,,,,,,,,,,,,,,
0,6,6,90,1,,5df924a11e2e586a0fa62643,62bbfb700876361cf282601c,2022-06-29_09h13.05.599,Colour_Asymmetry_Pilot,2022.1.3,Win32,75.00187505,62bbe60bf3d75ef465d3e404,,,,,,,,,,,,,,,,,,,,,,,,,,,,,,,,,,,,,,,,,,,,,,,,,,,,,,,,,,,,,,,,,,,,,,,,,,,,,,,,,,,,,,,,,,,,,,,,,,,,,,,,,,,,,,,,,,,,,,,,,,,,,,,,,,,,,,,,,,,,,,,,,,,,,,,,,,,,,,
0,7,7,48,1,,5df924a11e2e586a0fa62643,62bbfb700876361cf282601c,2022-06-29_09h13.05.599,Colour_Asymmetry_Pilot,2022.1.3,Win32,75.00187505,62bbe60bf3d75ef465d3e404,,,,,,,,,,,,,,,,,,,,,,,,,,,,,,,,,,,,,,,,,,,,,,,,,,,,,,,,,,,,,,,,,,,,,,,,,,,,,,,,,,,,,,,,,,,,,,,,,,,,,,,,,,,,,,,,,,,,,,,,,,,,,,,,,,,,,,,,,,,,,,,,,,,,,,,,,,,,,,
0,8,8,0,1,,5df924a11e2e586a0fa62643,62bbfb700876361cf282601c,2022-06-29_09h13.05.599,Colour_Asymmetry_Pilot,2022.1.3,Win32,75.00187505,62bbe60bf3d75ef465d3e404,,,,,,,,,,,,,,,,,,,,,,,,,,,,,,,,,,,,,,,,,,,,,,,,,,,,,,,,,,,,,,,,,,,,,,,,,,,,,,,,,,,,,,,,,,,,,,,,,,,,,,,,,,,,,,,,,,,,,,,,,,,,,,,,,,,,,,,,,,,,,,,,,,,,,,,,,,,,,,
0,9,9,31,1,,5df924a11e2e586a0fa62643,62bbfb700876361cf282601c,2022-06-29_09h13.05.599,Colour_Asymmetry_Pilot,2022.1.3,Win32,75.00187505,62bbe60bf3d75ef465d3e404,,,,,,,,,,,,,,,,,,,,,,,,,,,,,,,,,,,,,,,,,,,,,,,,,,,,,,,,,,,,,,,,,,,,,,,,,,,,,,,,,,,,,,,,,,,,,,,,,,,,,,,,,,,,,,,,,,,,,,,,,,,,,,,,,,,,,,,,,,,,,,,,,,,,,,,,,,,,,,
0,10,10,49,1,,5df924a11e2e586a0fa62643,62bbfb700876361cf282601c,2022-06-29_09h13.05.599,Colour_Asymmetry_Pilot,2022.1.3,Win32,75.00187505,62bbe60bf3d75ef465d3e404,,,,,,,,,,,,,,,,,,,,,,,,,,,,,,,,,,,,,,,,,,,,,,,,,,,,,,,,,,,,,,,,,,,,,,,,,,,,,,,,,,,,,,,,,,,,,,,,,,,,,,,,,,,,,,,,,,,,,,,,,,,,,,,,,,,,,,,,,,,,,,,,,,,,,,,,,,,,,,
0,11,11,51,1,,5df924a11e2e586a0fa62643,62bbfb700876361cf282601c,2022-06-29_09h13.05.599,Colour_Asymmetry_Pilot,2022.1.3,Win32,75.00187505,62bbe60bf3d75ef465d3e404,,,,,,,,,,,,,,,,,,,,,,,,,,,,,,,,,,,,,,,,,,,,,,,,,,,,,,,,,,,,,,,,,,,,,,,,,,,,,,,,,,,,,,,,,,,,,,,,,,,,,,,,,,,,,,,,,,,,,,,,,,,,,,,,,,,,,,,,,,,,,,,,,,,,,,,,,,,,,,
0,12,12,17,1,,5df924a11e2e586a0fa62643,62bbfb700876361cf282601c,2022-06-29_09h13.05.599,Colour_Asymmetry_Pilot,2022.1.3,Win32,75.00187505,62bbe60bf3d75ef465d3e404,,,,,,,,,,,,,,,,,,,,,,,,,,,,,,,,,,,,,,,,,,,,,,,,,,,,,,,,,,,,,,,,,,,,,,,,,,,,,,,,,,,,,,,,,,,,,,,,,,,,,,,,,,,,,,,,,,,,,,,,,,,,,,,,,,,,,,,,,,,,,,,,,,,,,,,,,,,,,,
0,13,13,8,1,,5df924a11e2e586a0fa62643,62bbfb700876361cf282601c,2022-06-29_09h13.05.599,Colour_Asymmetry_Pilot,2022.1.3,Win32,75.00187505,62bbe60bf3d75ef465d3e404,,,,,,,,,,,,,,,,,,,,,,,,,,,,,,,,,,,,,,,,,,,,,,,,,,,,,,,,,,,,,,,,,,,,,,,,,,,,,,,,,,,,,,,,,,,,,,,,,,,,,,,,,,,,,,,,,,,,,,,,,,,,,,,,,,,,,,,,,,,,,,,,,,,,,,,,,,,,,,
0,14,14,26,1,,5df924a11e2e586a0fa62643,62bbfb700876361cf282601c,2022-06-29_09h13.05.599,Colour_Asymmetry_Pilot,2022.1.3,Win32,75.00187505,62bbe60bf3d75ef465d3e404,,,,,,,,,,,,,,,,,,,,,,,,,,,,,,,,,,,,,,,,,,,,,,,,,,,,,,,,,,,,,,,,,,,,,,,,,,,,,,,,,,,,,,,,,,,,,,,,,,,,,,,,,,,,,,,,,,,,,,,,,,,,,,,,,,,,,,,,,,,,,,,,,,,,,,,,,,,,,,
0,15,15,53,1,,5df924a11e2e586a0fa62643,62bbfb700876361cf282601c,2022-06-29_09h13.05.599,Colour_Asymmetry_Pilot,2022.1.3,Win32,75.00187505,62bbe60bf3d75ef465d3e404,,,,,,,,,,,,,,,,,,,,,,,,,,,,,,,,,,,,,,,,,,,,,,,,,,,,,,,,,,,,,,,,,,,,,,,,,,,,,,,,,,,,,,,,,,,,,,,,,,,,,,,,,,,,,,,,,,,,,,,,,,,,,,,,,,,,,,,,,,,,,,,,,,,,,,,,,,,,,,
0,16,16,59,1,,5df924a11e2e586a0fa62643,62bbfb700876361cf282601c,2022-06-29_09h13.05.599,Colour_Asymmetry_Pilot,2022.1.3,Win32,75.00187505,62bbe60bf3d75ef465d3e404,,,,,,,,,,,,,,,,,,,,,,,,,,,,,,,,,,,,,,,,,,,,,,,,,,,,,,,,,,,,,,,,,,,,,,,,,,,,,,,,,,,,,,,,,,,,,,,,,,,,,,,,,,,,,,,,,,,,,,,,,,,,,,,,,,,,,,,,,,,,,,,,,,,,,,,,,,,,,,
0,17,17,47,1,,5df924a11e2e586a0fa62643,62bbfb700876361cf282601c,2022-06-29_09h13.05.599,Colour_Asymmetry_Pilot,2022.1.3,Win32,75.00187505,62bbe60bf3d75ef465d3e404,,,,,,,,,,,,,,,,,,,,,,,,,,,,,,,,,,,,,,,,,,,,,,,,,,,,,,,,,,,,,,,,,,,,,,,,,,,,,,,,,,,,,,,,,,,,,,,,,,,,,,,,,,,,,,,,,,,,,,,,,,,,,,,,,,,,,,,,,,,,,,,,,,,,,,,,,,,,,,
0,18,18,64,1,,5df924a11e2e586a0fa62643,62bbfb700876361cf282601c,2022-06-29_09h13.05.599,Colour_Asymmetry_Pilot,2022.1.3,Win32,75.00187505,62bbe60bf3d75ef465d3e404,,,,,,,,,,,,,,,,,,,,,,,,,,,,,,,,,,,,,,,,,,,,,,,,,,,,,,,,,,,,,,,,,,,,,,,,,,,,,,,,,,,,,,,,,,,,,,,,,,,,,,,,,,,,,,,,,,,,,,,,,,,,,,,,,,,,,,,,,,,,,,,,,,,,,,,,,,,,,,
0,19,19,9,1,,5df924a11e2e586a0fa62643,62bbfb700876361cf282601c,2022-06-29_09h13.05.599,Colour_Asymmetry_Pilot,2022.1.3,Win32,75.00187505,62bbe60bf3d75ef465d3e404,,,,,,,,,,,,,,,,,,,,,,,,,,,,,,,,,,,,,,,,,,,,,,,,,,,,,,,,,,,,,,,,,,,,,,,,,,,,,,,,,,,,,,,,,,,,,,,,,,,,,,,,,,,,,,,,,,,,,,,,,,,,,,,,,,,,,,,,,,,,,,,,,,,,,,,,,,,,,,
0,20,20,83,1,,5df924a11e2e586a0fa62643,62bbfb700876361cf282601c,2022-06-29_09h13.05.599,Colour_Asymmetry_Pilot,2022.1.3,Win32,75.00187505,62bbe60bf3d75ef465d3e404,,,,,,,,,,,,,,,,,,,,,,,,,,,,,,,,,,,,,,,,,,,,,,,,,,,,,,,,,,,,,,,,,,,,,,,,,,,,,,,,,,,,,,,,,,,,,,,,,,,,,,,,,,,,,,,,,,,,,,,,,,,,,,,,,,,,,,,,,,,,,,,,,,,,,,,,,,,,,,
0,21,21,72,1,,5df924a11e2e586a0fa62643,62bbfb700876361cf282601c,2022-06-29_09h13.05.599,Colour_Asymmetry_Pilot,2022.1.3,Win32,75.00187505,62bbe60bf3d75ef465d3e404,,,,,,,,,,,,,,,,,,,,,,,,,,,,,,,,,,,,,,,,,,,,,,,,,,,,,,,,,,,,,,,,,,,,,,,,,,,,,,,,,,,,,,,,,,,,,,,,,,,,,,,,,,,,,,,,,,,,,,,,,,,,,,,,,,,,,,,,,,,,,,,,,,,,,,,,,,,,,,
0,22,22,19,1,,5df924a11e2e586a0fa62643,62bbfb700876361cf282601c,2022-06-29_09h13.05.599,Colour_Asymmetry_Pilot,2022.1.3,Win32,75.00187505,62bbe60bf3d75ef465d3e404,,,,,,,,,,,,,,,,,,,,,,,,,,,,,,,,,,,,,,,,,,,,,,,,,,,,,,,,,,,,,,,,,,,,,,,,,,,,,,,,,,,,,,,,,,,,,,,,,,,,,,,,,,,,,,,,,,,,,,,,,,,,,,,,,,,,,,,,,,,,,,,,,,,,,,,,,,,,,,
0,23,23,63,1,,5df924a11e2e586a0fa62643,62bbfb700876361cf282601c,2022-06-29_09h13.05.599,Colour_Asymmetry_Pilot,2022.1.3,Win32,75.00187505,62bbe60bf3d75ef465d3e404,,,,,,,,,,,,,,,,,,,,,,,,,,,,,,,,,,,,,,,,,,,,,,,,,,,,,,,,,,,,,,,,,,,,,,,,,,,,,,,,,,,,,,,,,,,,,,,,,,,,,,,,,,,,,,,,,,,,,,,,,,,,,,,,,,,,,,,,,,,,,,,,,,,,,,,,,,,,,,
0,24,24,85,1,,5df924a11e2e586a0fa62643,62bbfb700876361cf282601c,2022-06-29_09h13.05.599,Colour_Asymmetry_Pilot,2022.1.3,Win32,75.00187505,62bbe60bf3d75ef465d3e404,,,,,,,,,,,,,,,,,,,,,,,,,,,,,,,,,,,,,,,,,,,,,,,,,,,,,,,,,,,,,,,,,,,,,,,,,,,,,,,,,,,,,,,,,,,,,,,,,,,,,,,,,,,,,,,,,,,,,,,,,,,,,,,,,,,,,,,,,,,,,,,,,,,,,,,,,,,,,,
0,25,25,39,1,,5df924a11e2e586a0fa62643,62bbfb700876361cf282601c,2022-06-29_09h13.05.599,Colour_Asymmetry_Pilot,2022.1.3,Win32,75.00187505,62bbe60bf3d75ef465d3e404,,,,,,,,,,,,,,,,,,,,,,,,,,,,,,,,,,,,,,,,,,,,,,,,,,,,,,,,,,,,,,,,,,,,,,,,,,,,,,,,,,,,,,,,,,,,,,,,,,,,,,,,,,,,,,,,,,,,,,,,,,,,,,,,,,,,,,,,,,,,,,,,,,,,,,,,,,,,,,
0,26,26,11,1,,5df924a11e2e586a0fa62643,62bbfb700876361cf282601c,2022-06-29_09h13.05.599,Colour_Asymmetry_Pilot,2022.1.3,Win32,75.00187505,62bbe60bf3d75ef465d3e404,,,,,,,,,,,,,,,,,,,,,,,,,,,,,,,,,,,,,,,,,,,,,,,,,,,,,,,,,,,,,,,,,,,,,,,,,,,,,,,,,,,,,,,,,,,,,,,,,,,,,,,,,,,,,,,,,,,,,,,,,,,,,,,,,,,,,,,,,,,,,,,,,,,,,,,,,,,,,,
0,27,27,61,1,,5df924a11e2e586a0fa62643,62bbfb700876361cf282601c,2022-06-29_09h13.05.599,Colour_Asymmetry_Pilot,2022.1.3,Win32,75.00187505,62bbe60bf3d75ef465d3e404,,,,,,,,,,,,,,,,,,,,,,,,,,,,,,,,,,,,,,,,,,,,,,,,,,,,,,,,,,,,,,,,,,,,,,,,,,,,,,,,,,,,,,,,,,,,,,,,,,,,,,,,,,,,,,,,,,,,,,,,,,,,,,,,,,,,,,,,,,,,,,,,,,,,,,,,,,,,,,
0,28,28,16,1,,5df924a11e2e586a0fa62643,62bbfb700876361cf282601c,2022-06-29_09h13.05.599,Colour_Asymmetry_Pilot,2022.1.3,Win32,75.00187505,62bbe60bf3d75ef465d3e404,,,,,,,,,,,,,,,,,,,,,,,,,,,,,,,,,,,,,,,,,,,,,,,,,,,,,,,,,,,,,,,,,,,,,,,,,,,,,,,,,,,,,,,,,,,,,,,,,,,,,,,,,,,,,,,,,,,,,,,,,,,,,,,,,,,,,,,,,,,,,,,,,,,,,,,,,,,,,,
0,29,29,7,1,,5df924a11e2e586a0fa62643,62bbfb700876361cf282601c,2022-06-29_09h13.05.599,Colour_Asymmetry_Pilot,2022.1.3,Win32,75.00187505,62bbe60bf3d75ef465d3e404,,,,,,,,,,,,,,,,,,,,,,,,,,,,,,,,,,,,,,,,,,,,,,,,,,,,,,,,,,,,,,,,,,,,,,,,,,,,,,,,,,,,,,,,,,,,,,,,,,,,,,,,,,,,,,,,,,,,,,,,,,,,,,,,,,,,,,,,,,,,,,,,,,,,,,,,,,,,,,
0,30,30,15,1,,5df924a11e2e586a0fa62643,62bbfb700876361cf282601c,2022-06-29_09h13.05.599,Colour_Asymmetry_Pilot,2022.1.3,Win32,75.00187505,62bbe60bf3d75ef465d3e404,,,,,,,,,,,,,,,,,,,,,,,,,,,,,,,,,,,,,,,,,,,,,,,,,,,,,,,,,,,,,,,,,,,,,,,,,,,,,,,,,,,,,,,,,,,,,,,,,,,,,,,,,,,,,,,,,,,,,,,,,,,,,,,,,,,,,,,,,,,,,,,,,,,,,,,,,,,,,,
0,31,31,33,1,,5df924a11e2e586a0fa62643,62bbfb700876361cf282601c,2022-06-29_09h13.05.599,Colour_Asymmetry_Pilot,2022.1.3,Win32,75.00187505,62bbe60bf3d75ef465d3e404,,,,,,,,,,,,,,,,,,,,,,,,,,,,,,,,,,,,,,,,,,,,,,,,,,,,,,,,,,,,,,,,,,,,,,,,,,,,,,,,,,,,,,,,,,,,,,,,,,,,,,,,,,,,,,,,,,,,,,,,,,,,,,,,,,,,,,,,,,,,,,,,,,,,,,,,,,,,,,
0,32,32,2,1,,5df924a11e2e586a0fa62643,62bbfb700876361cf282601c,2022-06-29_09h13.05.599,Colour_Asymmetry_Pilot,2022.1.3,Win32,75.00187505,62bbe60bf3d75ef465d3e404,,,,,,,,,,,,,,,,,,,,,,,,,,,,,,,,,,,,,,,,,,,,,,,,,,,,,,,,,,,,,,,,,,,,,,,,,,,,,,,,,,,,,,,,,,,,,,,,,,,,,,,,,,,,,,,,,,,,,,,,,,,,,,,,,,,,,,,,,,,,,,,,,,,,,,,,,,,,,,
0,33,33,56,1,,5df924a11e2e586a0fa62643,62bbfb700876361cf282601c,2022-06-29_09h13.05.599,Colour_Asymmetry_Pilot,2022.1.3,Win32,75.00187505,62bbe60bf3d75ef465d3e404,,,,,,,,,,,,,,,,,,,,,,,,,,,,,,,,,,,,,,,,,,,,,,,,,,,,,,,,,,,,,,,,,,,,,,,,,,,,,,,,,,,,,,,,,,,,,,,,,,,,,,,,,,,,,,,,,,,,,,,,,,,,,,,,,,,,,,,,,,,,,,,,,,,,,,,,,,,,,,
0,34,34,66,1,,5df924a11e2e586a0fa62643,62bbfb700876361cf282601c,2022-06-29_09h13.05.599,Colour_Asymmetry_Pilot,2022.1.3,Win32,75.00187505,62bbe60bf3d75ef465d3e404,,,,,,,,,,,,,,,,,,,,,,,,,,,,,,,,,,,,,,,,,,,,,,,,,,,,,,,,,,,,,,,,,,,,,,,,,,,,,,,,,,,,,,,,,,,,,,,,,,,,,,,,,,,,,,,,,,,,,,,,,,,,,,,,,,,,,,,,,,,,,,,,,,,,,,,,,,,,,,
0,35,35,69,1,,5df924a11e2e586a0fa62643,62bbfb700876361cf282601c,2022-06-29_09h13.05.599,Colour_Asymmetry_Pilot,2022.1.3,Win32,75.00187505,62bbe60bf3d75ef465d3e404,,,,,,,,,,,,,,,,,,,,,,,,,,,,,,,,,,,,,,,,,,,,,,,,,,,,,,,,,,,,,,,,,,,,,,,,,,,,,,,,,,,,,,,,,,,,,,,,,,,,,,,,,,,,,,,,,,,,,,,,,,,,,,,,,,,,,,,,,,,,,,,,,,,,,,,,,,,,,,
0,36,36,74,1,,5df924a11e2e586a0fa62643,62bbfb700876361cf282601c,2022-06-29_09h13.05.599,Colour_Asymmetry_Pilot,2022.1.3,Win32,75.00187505,62bbe60bf3d75ef465d3e404,,,,,,,,,,,,,,,,,,,,,,,,,,,,,,,,,,,,,,,,,,,,,,,,,,,,,,,,,,,,,,,,,,,,,,,,,,,,,,,,,,,,,,,,,,,,,,,,,,,,,,,,,,,,,,,,,,,,,,,,,,,,,,,,,,,,,,,,,,,,,,,,,,,,,,,,,,,,,,
0,37,37,5,1,,5df924a11e2e586a0fa62643,62bbfb700876361cf282601c,2022-06-29_09h13.05.599,Colour_Asymmetry_Pilot,2022.1.3,Win32,75.00187505,62bbe60bf3d75ef465d3e404,,,,,,,,,,,,,,,,,,,,,,,,,,,,,,,,,,,,,,,,,,,,,,,,,,,,,,,,,,,,,,,,,,,,,,,,,,,,,,,,,,,,,,,,,,,,,,,,,,,,,,,,,,,,,,,,,,,,,,,,,,,,,,,,,,,,,,,,,,,,,,,,,,,,,,,,,,,,,,
0,38,38,18,1,,5df924a11e2e586a0fa62643,62bbfb700876361cf282601c,2022-06-29_09h13.05.599,Colour_Asymmetry_Pilot,2022.1.3,Win32,75.00187505,62bbe60bf3d75ef465d3e404,,,,,,,,,,,,,,,,,,,,,,,,,,,,,,,,,,,,,,,,,,,,,,,,,,,,,,,,,,,,,,,,,,,,,,,,,,,,,,,,,,,,,,,,,,,,,,,,,,,,,,,,,,,,,,,,,,,,,,,,,,,,,,,,,,,,,,,,,,,,,,,,,,,,,,,,,,,,,,
0,39,39,24,1,,5df924a11e2e586a0fa62643,62bbfb700876361cf282601c,2022-06-29_09h13.05.599,Colour_Asymmetry_Pilot,2022.1.3,Win32,75.00187505,62bbe60bf3d75ef465d3e404,,,,,,,,,,,,,,,,,,,,,,,,,,,,,,,,,,,,,,,,,,,,,,,,,,,,,,,,,,,,,,,,,,,,,,,,,,,,,,,,,,,,,,,,,,,,,,,,,,,,,,,,,,,,,,,,,,,,,,,,,,,,,,,,,,,,,,,,,,,,,,,,,,,,,,,,,,,,,,
0,40,40,73,1,,5df924a11e2e586a0fa62643,62bbfb700876361cf282601c,2022-06-29_09h13.05.599,Colour_Asymmetry_Pilot,2022.1.3,Win32,75.00187505,62bbe60bf3d75ef465d3e404,,,,,,,,,,,,,,,,,,,,,,,,,,,,,,,,,,,,,,,,,,,,,,,,,,,,,,,,,,,,,,,,,,,,,,,,,,,,,,,,,,,,,,,,,,,,,,,,,,,,,,,,,,,,,,,,,,,,,,,,,,,,,,,,,,,,,,,,,,,,,,,,,,,,,,,,,,,,,,
0,41,41,46,1,,5df924a11e2e586a0fa62643,62bbfb700876361cf282601c,2022-06-29_09h13.05.599,Colour_Asymmetry_Pilot,2022.1.3,Win32,75.00187505,62bbe60bf3d75ef465d3e404,,,,,,,,,,,,,,,,,,,,,,,,,,,,,,,,,,,,,,,,,,,,,,,,,,,,,,,,,,,,,,,,,,,,,,,,,,,,,,,,,,,,,,,,,,,,,,,,,,,,,,,,,,,,,,,,,,,,,,,,,,,,,,,,,,,,,,,,,,,,,,,,,,,,,,,,,,,,,,
0,42,42,38,1,,5df924a11e2e586a0fa62643,62bbfb700876361cf282601c,2022-06-29_09h13.05.599,Colour_Asymmetry_Pilot,2022.1.3,Win32,75.00187505,62bbe60bf3d75ef465d3e404,,,,,,,,,,,,,,,,,,,,,,,,,,,,,,,,,,,,,,,,,,,,,,,,,,,,,,,,,,,,,,,,,,,,,,,,,,,,,,,,,,,,,,,,,,,,,,,,,,,,,,,,,,,,,,,,,,,,,,,,,,,,,,,,,,,,,,,,,,,,,,,,,,,,,,,,,,,,,,
0,43,43,42,1,,5df924a11e2e586a0fa62643,62bbfb700876361cf282601c,2022-06-29_09h13.05.599,Colour_Asymmetry_Pilot,2022.1.3,Win32,75.00187505,62bbe60bf3d75ef465d3e404,,,,,,,,,,,,,,,,,,,,,,,,,,,,,,,,,,,,,,,,,,,,,,,,,,,,,,,,,,,,,,,,,,,,,,,,,,,,,,,,,,,,,,,,,,,,,,,,,,,,,,,,,,,,,,,,,,,,,,,,,,,,,,,,,,,,,,,,,,,,,,,,,,,,,,,,,,,,,,
0,44,44,60,1,,5df924a11e2e586a0fa62643,62bbfb700876361cf282601c,2022-06-29_09h13.05.599,Colour_Asymmetry_Pilot,2022.1.3,Win32,75.00187505,62bbe60bf3d75ef465d3e404,,,,,,,,,,,,,,,,,,,,,,,,,,,,,,,,,,,,,,,,,,,,,,,,,,,,,,,,,,,,,,,,,,,,,,,,,,,,,,,,,,,,,,,,,,,,,,,,,,,,,,,,,,,,,,,,,,,,,,,,,,,,,,,,,,,,,,,,,,,,,,,,,,,,,,,,,,,,,,
0,45,45,29,1,,5df924a11e2e586a0fa62643,62bbfb700876361cf282601c,2022-06-29_09h13.05.599,Colour_Asymmetry_Pilot,2022.1.3,Win32,75.00187505,62bbe60bf3d75ef465d3e404,,,,,,,,,,,,,,,,,,,,,,,,,,,,,,,,,,,,,,,,,,,,,,,,,,,,,,,,,,,,,,,,,,,,,,,,,,,,,,,,,,,,,,,,,,,,,,,,,,,,,,,,,,,,,,,,,,,,,,,,,,,,,,,,,,,,,,,,,,,,,,,,,,,,,,,,,,,,,,
0,46,46,4,1,,5df924a11e2e586a0fa62643,62bbfb700876361cf282601c,2022-06-29_09h13.05.599,Colour_Asymmetry_Pilot,2022.1.3,Win32,75.00187505,62bbe60bf3d75ef465d3e404,,,,,,,,,,,,,,,,,,,,,,,,,,,,,,,,,,,,,,,,,,,,,,,,,,,,,,,,,,,,,,,,,,,,,,,,,,,,,,,,,,,,,,,,,,,,,,,,,,,,,,,,,,,,,,,,,,,,,,,,,,,,,,,,,,,,,,,,,,,,,,,,,,,,,,,,,,,,,,
0,47,47,12,1,,5df924a11e2e586a0fa62643,62bbfb700876361cf282601c,2022-06-29_09h13.05.599,Colour_Asymmetry_Pilot,2022.1.3,Win32,75.00187505,62bbe60bf3d75ef465d3e404,,,,,,,,,,,,,,,,,,,,,,,,,,,,,,,,,,,,,,,,,,,,,,,,,,,,,,,,,,,,,,,,,,,,,,,,,,,,,,,,,,,,,,,,,,,,,,,,,,,,,,,,,,,,,,,,,,,,,,,,,,,,,,,,,,,,,,,,,,,,,,,,,,,,,,,,,,,,,,
0,48,48,86,1,,5df924a11e2e586a0fa62643,62bbfb700876361cf282601c,2022-06-29_09h13.05.599,Colour_Asymmetry_Pilot,2022.1.3,Win32,75.00187505,62bbe60bf3d75ef465d3e404,,,,,,,,,,,,,,,,,,,,,,,,,,,,,,,,,,,,,,,,,,,,,,,,,,,,,,,,,,,,,,,,,,,,,,,,,,,,,,,,,,,,,,,,,,,,,,,,,,,,,,,,,,,,,,,,,,,,,,,,,,,,,,,,,,,,,,,,,,,,,,,,,,,,,,,,,,,,,,
0,49,49,36,1,,5df924a11e2e586a0fa62643,62bbfb700876361cf282601c,2022-06-29_09h13.05.599,Colour_Asymmetry_Pilot,2022.1.3,Win32,75.00187505,62bbe60bf3d75ef465d3e404,,,,,,,,,,,,,,,,,,,,,,,,,,,,,,,,,,,,,,,,,,,,,,,,,,,,,,,,,,,,,,,,,,,,,,,,,,,,,,,,,,,,,,,,,,,,,,,,,,,,,,,,,,,,,,,,,,,,,,,,,,,,,,,,,,,,,,,,,,,,,,,,,,,,,,,,,,,,,,
0,50,50,82,1,,5df924a11e2e586a0fa62643,62bbfb700876361cf282601c,2022-06-29_09h13.05.599,Colour_Asymmetry_Pilot,2022.1.3,Win32,75.00187505,62bbe60bf3d75ef465d3e404,,,,,,,,,,,,,,,,,,,,,,,,,,,,,,,,,,,,,,,,,,,,,,,,,,,,,,,,,,,,,,,,,,,,,,,,,,,,,,,,,,,,,,,,,,,,,,,,,,,,,,,,,,,,,,,,,,,,,,,,,,,,,,,,,,,,,,,,,,,,,,,,,,,,,,,,,,,,,,
0,51,51,57,1,,5df924a11e2e586a0fa62643,62bbfb700876361cf282601c,2022-06-29_09h13.05.599,Colour_Asymmetry_Pilot,2022.1.3,Win32,75.00187505,62bbe60bf3d75ef465d3e404,,,,,,,,,,,,,,,,,,,,,,,,,,,,,,,,,,,,,,,,,,,,,,,,,,,,,,,,,,,,,,,,,,,,,,,,,,,,,,,,,,,,,,,,,,,,,,,,,,,,,,,,,,,,,,,,,,,,,,,,,,,,,,,,,,,,,,,,,,,,,,,,,,,,,,,,,,,,,,
0,52,52,34,1,,5df924a11e2e586a0fa62643,62bbfb700876361cf282601c,2022-06-29_09h13.05.599,Colour_Asymmetry_Pilot,2022.1.3,Win32,75.00187505,62bbe60bf3d75ef465d3e404,,,,,,,,,,,,,,,,,,,,,,,,,,,,,,,,,,,,,,,,,,,,,,,,,,,,,,,,,,,,,,,,,,,,,,,,,,,,,,,,,,,,,,,,,,,,,,,,,,,,,,,,,,,,,,,,,,,,,,,,,,,,,,,,,,,,,,,,,,,,,,,,,,,,,,,,,,,,,,
0,53,53,28,1,,5df924a11e2e586a0fa62643,62bbfb700876361cf282601c,2022-06-29_09h13.05.599,Colour_Asymmetry_Pilot,2022.1.3,Win32,75.00187505,62bbe60bf3d75ef465d3e404,,,,,,,,,,,,,,,,,,,,,,,,,,,,,,,,,,,,,,,,,,,,,,,,,,,,,,,,,,,,,,,,,,,,,,,,,,,,,,,,,,,,,,,,,,,,,,,,,,,,,,,,,,,,,,,,,,,,,,,,,,,,,,,,,,,,,,,,,,,,,,,,,,,,,,,,,,,,,,
0,54,54,27,1,,5df924a11e2e586a0fa62643,62bbfb700876361cf282601c,2022-06-29_09h13.05.599,Colour_Asymmetry_Pilot,2022.1.3,Win32,75.00187505,62bbe60bf3d75ef465d3e404,,,,,,,,,,,,,,,,,,,,,,,,,,,,,,,,,,,,,,,,,,,,,,,,,,,,,,,,,,,,,,,,,,,,,,,,,,,,,,,,,,,,,,,,,,,,,,,,,,,,,,,,,,,,,,,,,,,,,,,,,,,,,,,,,,,,,,,,,,,,,,,,,,,,,,,,,,,,,,
0,55,55,30,1,,5df924a11e2e586a0fa62643,62bbfb700876361cf282601c,2022-06-29_09h13.05.599,Colour_Asymmetry_Pilot,2022.1.3,Win32,75.00187505,62bbe60bf3d75ef465d3e404,,,,,,,,,,,,,,,,,,,,,,,,,,,,,,,,,,,,,,,,,,,,,,,,,,,,,,,,,,,,,,,,,,,,,,,,,,,,,,,,,,,,,,,,,,,,,,,,,,,,,,,,,,,,,,,,,,,,,,,,,,,,,,,,,,,,,,,,,,,,,,,,,,,,,,,,,,,,,,
0,56,56,71,1,,5df924a11e2e586a0fa62643,62bbfb700876361cf282601c,2022-06-29_09h13.05.599,Colour_Asymmetry_Pilot,2022.1.3,Win32,75.00187505,62bbe60bf3d75ef465d3e404,,,,,,,,,,,,,,,,,,,,,,,,,,,,,,,,,,,,,,,,,,,,,,,,,,,,,,,,,,,,,,,,,,,,,,,,,,,,,,,,,,,,,,,,,,,,,,,,,,,,,,,,,,,,,,,,,,,,,,,,,,,,,,,,,,,,,,,,,,,,,,,,,,,,,,,,,,,,,,
0,57,57,32,1,,5df924a11e2e586a0fa62643,62bbfb700876361cf282601c,2022-06-29_09h13.05.599,Colour_Asymmetry_Pilot,2022.1.3,Win32,75.00187505,62bbe60bf3d75ef465d3e404,,,,,,,,,,,,,,,,,,,,,,,,,,,,,,,,,,,,,,,,,,,,,,,,,,,,,,,,,,,,,,,,,,,,,,,,,,,,,,,,,,,,,,,,,,,,,,,,,,,,,,,,,,,,,,,,,,,,,,,,,,,,,,,,,,,,,,,,,,,,,,,,,,,,,,,,,,,,,,
0,58,58,35,1,,5df924a11e2e586a0fa62643,62bbfb700876361cf282601c,2022-06-29_09h13.05.599,Colour_Asymmetry_Pilot,2022.1.3,Win32,75.00187505,62bbe60bf3d75ef465d3e404,,,,,,,,,,,,,,,,,,,,,,,,,,,,,,,,,,,,,,,,,,,,,,,,,,,,,,,,,,,,,,,,,,,,,,,,,,,,,,,,,,,,,,,,,,,,,,,,,,,,,,,,,,,,,,,,,,,,,,,,,,,,,,,,,,,,,,,,,,,,,,,,,,,,,,,,,,,,,,
0,59,59,62,1,,5df924a11e2e586a0fa62643,62bbfb700876361cf282601c,2022-06-29_09h13.05.599,Colour_Asymmetry_Pilot,2022.1.3,Win32,75.00187505,62bbe60bf3d75ef465d3e404,,,,,,,,,,,,,,,,,,,,,,,,,,,,,,,,,,,,,,,,,,,,,,,,,,,,,,,,,,,,,,,,,,,,,,,,,,,,,,,,,,,,,,,,,,,,,,,,,,,,,,,,,,,,,,,,,,,,,,,,,,,,,,,,,,,,,,,,,,,,,,,,,,,,,,,,,,,,,,
0,60,60,67,1,,5df924a11e2e586a0fa62643,62bbfb700876361cf282601c,2022-06-29_09h13.05.599,Colour_Asymmetry_Pilot,2022.1.3,Win32,75.00187505,62bbe60bf3d75ef465d3e404,,,,,,,,,,,,,,,,,,,,,,,,,,,,,,,,,,,,,,,,,,,,,,,,,,,,,,,,,,,,,,,,,,,,,,,,,,,,,,,,,,,,,,,,,,,,,,,,,,,,,,,,,,,,,,,,,,,,,,,,,,,,,,,,,,,,,,,,,,,,,,,,,,,,,,,,,,,,,,
0,61,61,87,1,,5df924a11e2e586a0fa62643,62bbfb700876361cf282601c,2022-06-29_09h13.05.599,Colour_Asymmetry_Pilot,2022.1.3,Win32,75.00187505,62bbe60bf3d75ef465d3e404,,,,,,,,,,,,,,,,,,,,,,,,,,,,,,,,,,,,,,,,,,,,,,,,,,,,,,,,,,,,,,,,,,,,,,,,,,,,,,,,,,,,,,,,,,,,,,,,,,,,,,,,,,,,,,,,,,,,,,,,,,,,,,,,,,,,,,,,,,,,,,,,,,,,,,,,,,,,,,
0,62,62,77,1,,5df924a11e2e586a0fa62643,62bbfb700876361cf282601c,2022-06-29_09h13.05.599,Colour_Asymmetry_Pilot,2022.1.3,Win32,75.00187505,62bbe60bf3d75ef465d3e404,,,,,,,,,,,,,,,,,,,,,,,,,,,,,,,,,,,,,,,,,,,,,,,,,,,,,,,,,,,,,,,,,,,,,,,,,,,,,,,,,,,,,,,,,,,,,,,,,,,,,,,,,,,,,,,,,,,,,,,,,,,,,,,,,,,,,,,,,,,,,,,,,,,,,,,,,,,,,,
0,63,63,3,1,,5df924a11e2e586a0fa62643,62bbfb700876361cf282601c,2022-06-29_09h13.05.599,Colour_Asymmetry_Pilot,2022.1.3,Win32,75.00187505,62bbe60bf3d75ef465d3e404,,,,,,,,,,,,,,,,,,,,,,,,,,,,,,,,,,,,,,,,,,,,,,,,,,,,,,,,,,,,,,,,,,,,,,,,,,,,,,,,,,,,,,,,,,,,,,,,,,,,,,,,,,,,,,,,,,,,,,,,,,,,,,,,,,,,,,,,,,,,,,,,,,,,,,,,,,,,,,
0,64,64,65,1,,5df924a11e2e586a0fa62643,62bbfb700876361cf282601c,2022-06-29_09h13.05.599,Colour_Asymmetry_Pilot,2022.1.3,Win32,75.00187505,62bbe60bf3d75ef465d3e404,,,,,,,,,,,,,,,,,,,,,,,,,,,,,,,,,,,,,,,,,,,,,,,,,,,,,,,,,,,,,,,,,,,,,,,,,,,,,,,,,,,,,,,,,,,,,,,,,,,,,,,,,,,,,,,,,,,,,,,,,,,,,,,,,,,,,,,,,,,,,,,,,,,,,,,,,,,,,,
0,65,65,80,1,,5df924a11e2e586a0fa62643,62bbfb700876361cf282601c,2022-06-29_09h13.05.599,Colour_Asymmetry_Pilot,2022.1.3,Win32,75.00187505,62bbe60bf3d75ef465d3e404,,,,,,,,,,,,,,,,,,,,,,,,,,,,,,,,,,,,,,,,,,,,,,,,,,,,,,,,,,,,,,,,,,,,,,,,,,,,,,,,,,,,,,,,,,,,,,,,,,,,,,,,,,,,,,,,,,,,,,,,,,,,,,,,,,,,,,,,,,,,,,,,,,,,,,,,,,,,,,
0,66,66,13,1,,5df924a11e2e586a0fa62643,62bbfb700876361cf282601c,2022-06-29_09h13.05.599,Colour_Asymmetry_Pilot,2022.1.3,Win32,75.00187505,62bbe60bf3d75ef465d3e404,,,,,,,,,,,,,,,,,,,,,,,,,,,,,,,,,,,,,,,,,,,,,,,,,,,,,,,,,,,,,,,,,,,,,,,,,,,,,,,,,,,,,,,,,,,,,,,,,,,,,,,,,,,,,,,,,,,,,,,,,,,,,,,,,,,,,,,,,,,,,,,,,,,,,,,,,,,,,,
0,67,67,92,1,,5df924a11e2e586a0fa62643,62bbfb700876361cf282601c,2022-06-29_09h13.05.599,Colour_Asymmetry_Pilot,2022.1.3,Win32,75.00187505,62bbe60bf3d75ef465d3e404,,,,,,,,,,,,,,,,,,,,,,,,,,,,,,,,,,,,,,,,,,,,,,,,,,,,,,,,,,,,,,,,,,,,,,,,,,,,,,,,,,,,,,,,,,,,,,,,,,,,,,,,,,,,,,,,,,,,,,,,,,,,,,,,,,,,,,,,,,,,,,,,,,,,,,,,,,,,,,
0,68,68,6,1,,5df924a11e2e586a0fa62643,62bbfb700876361cf282601c,2022-06-29_09h13.05.599,Colour_Asymmetry_Pilot,2022.1.3,Win32,75.00187505,62bbe60bf3d75ef465d3e404,,,,,,,,,,,,,,,,,,,,,,,,,,,,,,,,,,,,,,,,,,,,,,,,,,,,,,,,,,,,,,,,,,,,,,,,,,,,,,,,,,,,,,,,,,,,,,,,,,,,,,,,,,,,,,,,,,,,,,,,,,,,,,,,,,,,,,,,,,,,,,,,,,,,,,,,,,,,,,
0,69,69,91,1,,5df924a11e2e586a0fa62643,62bbfb700876361cf282601c,2022-06-29_09h13.05.599,Colour_Asymmetry_Pilot,2022.1.3,Win32,75.00187505,62bbe60bf3d75ef465d3e404,,,,,,,,,,,,,,,,,,,,,,,,,,,,,,,,,,,,,,,,,,,,,,,,,,,,,,,,,,,,,,,,,,,,,,,,,,,,,,,,,,,,,,,,,,,,,,,,,,,,,,,,,,,,,,,,,,,,,,,,,,,,,,,,,,,,,,,,,,,,,,,,,,,,,,,,,,,,,,
0,70,70,1,1,,5df924a11e2e586a0fa62643,62bbfb700876361cf282601c,2022-06-29_09h13.05.599,Colour_Asymmetry_Pilot,2022.1.3,Win32,75.00187505,62bbe60bf3d75ef465d3e404,,,,,,,,,,,,,,,,,,,,,,,,,,,,,,,,,,,,,,,,,,,,,,,,,,,,,,,,,,,,,,,,,,,,,,,,,,,,,,,,,,,,,,,,,,,,,,,,,,,,,,,,,,,,,,,,,,,,,,,,,,,,,,,,,,,,,,,,,,,,,,,,,,,,,,,,,,,,,,
0,71,71,10,1,,5df924a11e2e586a0fa62643,62bbfb700876361cf282601c,2022-06-29_09h13.05.599,Colour_Asymmetry_Pilot,2022.1.3,Win32,75.00187505,62bbe60bf3d75ef465d3e404,,,,,,,,,,,,,,,,,,,,,,,,,,,,,,,,,,,,,,,,,,,,,,,,,,,,,,,,,,,,,,,,,,,,,,,,,,,,,,,,,,,,,,,,,,,,,,,,,,,,,,,,,,,,,,,,,,,,,,,,,,,,,,,,,,,,,,,,,,,,,,,,,,,,,,,,,,,,,,
0,72,72,88,1,,5df924a11e2e586a0fa62643,62bbfb700876361cf282601c,2022-06-29_09h13.05.599,Colour_Asymmetry_Pilot,2022.1.3,Win32,75.00187505,62bbe60bf3d75ef465d3e404,,,,,,,,,,,,,,,,,,,,,,,,,,,,,,,,,,,,,,,,,,,,,,,,,,,,,,,,,,,,,,,,,,,,,,,,,,,,,,,,,,,,,,,,,,,,,,,,,,,,,,,,,,,,,,,,,,,,,,,,,,,,,,,,,,,,,,,,,,,,,,,,,,,,,,,,,,,,,,
0,73,73,52,1,,5df924a11e2e586a0fa62643,62bbfb700876361cf282601c,2022-06-29_09h13.05.599,Colour_Asymmetry_Pilot,2022.1.3,Win32,75.00187505,62bbe60bf3d75ef465d3e404,,,,,,,,,,,,,,,,,,,,,,,,,,,,,,,,,,,,,,,,,,,,,,,,,,,,,,,,,,,,,,,,,,,,,,,,,,,,,,,,,,,,,,,,,,,,,,,,,,,,,,,,,,,,,,,,,,,,,,,,,,,,,,,,,,,,,,,,,,,,,,,,,,,,,,,,,,,,,,
0,74,74,79,1,,5df924a11e2e586a0fa62643,62bbfb700876361cf282601c,2022-06-29_09h13.05.599,Colour_Asymmetry_Pilot,2022.1.3,Win32,75.00187505,62bbe60bf3d75ef465d3e404,,,,,,,,,,,,,,,,,,,,,,,,,,,,,,,,,,,,,,,,,,,,,,,,,,,,,,,,,,,,,,,,,,,,,,,,,,,,,,,,,,,,,,,,,,,,,,,,,,,,,,,,,,,,,,,,,,,,,,,,,,,,,,,,,,,,,,,,,,,,,,,,,,,,,,,,,,,,,,
0,75,75,45,1,,5df924a11e2e586a0fa62643,62bbfb700876361cf282601c,2022-06-29_09h13.05.599,Colour_Asymmetry_Pilot,2022.1.3,Win32,75.00187505,62bbe60bf3d75ef465d3e404,,,,,,,,,,,,,,,,,,,,,,,,,,,,,,,,,,,,,,,,,,,,,,,,,,,,,,,,,,,,,,,,,,,,,,,,,,,,,,,,,,,,,,,,,,,,,,,,,,,,,,,,,,,,,,,,,,,,,,,,,,,,,,,,,,,,,,,,,,,,,,,,,,,,,,,,,,,,,,
0,76,76,50,1,,5df924a11e2e586a0fa62643,62bbfb700876361cf282601c,2022-06-29_09h13.05.599,Colour_Asymmetry_Pilot,2022.1.3,Win32,75.00187505,62bbe60bf3d75ef465d3e404,,,,,,,,,,,,,,,,,,,,,,,,,,,,,,,,,,,,,,,,,,,,,,,,,,,,,,,,,,,,,,,,,,,,,,,,,,,,,,,,,,,,,,,,,,,,,,,,,,,,,,,,,,,,,,,,,,,,,,,,,,,,,,,,,,,,,,,,,,,,,,,,,,,,,,,,,,,,,,
0,77,77,21,1,,5df924a11e2e586a0fa62643,62bbfb700876361cf282601c,2022-06-29_09h13.05.599,Colour_Asymmetry_Pilot,2022.1.3,Win32,75.00187505,62bbe60bf3d75ef465d3e404,,,,,,,,,,,,,,,,,,,,,,,,,,,,,,,,,,,,,,,,,,,,,,,,,,,,,,,,,,,,,,,,,,,,,,,,,,,,,,,,,,,,,,,,,,,,,,,,,,,,,,,,,,,,,,,,,,,,,,,,,,,,,,,,,,,,,,,,,,,,,,,,,,,,,,,,,,,,,,
0,78,78,58,1,,5df924a11e2e586a0fa62643,62bbfb700876361cf282601c,2022-06-29_09h13.05.599,Colour_Asymmetry_Pilot,2022.1.3,Win32,75.00187505,62bbe60bf3d75ef465d3e404,,,,,,,,,,,,,,,,,,,,,,,,,,,,,,,,,,,,,,,,,,,,,,,,,,,,,,,,,,,,,,,,,,,,,,,,,,,,,,,,,,,,,,,,,,,,,,,,,,,,,,,,,,,,,,,,,,,,,,,,,,,,,,,,,,,,,,,,,,,,,,,,,,,,,,,,,,,,,,
0,79,79,14,1,,5df924a11e2e586a0fa62643,62bbfb700876361cf282601c,2022-06-29_09h13.05.599,Colour_Asymmetry_Pilot,2022.1.3,Win32,75.00187505,62bbe60bf3d75ef465d3e404,,,,,,,,,,,,,,,,,,,,,,,,,,,,,,,,,,,,,,,,,,,,,,,,,,,,,,,,,,,,,,,,,,,,,,,,,,,,,,,,,,,,,,,,,,,,,,,,,,,,,,,,,,,,,,,,,,,,,,,,,,,,,,,,,,,,,,,,,,,,,,,,,,,,,,,,,,,,,,
0,80,80,55,1,,5df924a11e2e586a0fa62643,62bbfb700876361cf282601c,2022-06-29_09h13.05.599,Colour_Asymmetry_Pilot,2022.1.3,Win32,75.00187505,62bbe60bf3d75ef465d3e404,,,,,,,,,,,,,,,,,,,,,,,,,,,,,,,,,,,,,,,,,,,,,,,,,,,,,,,,,,,,,,,,,,,,,,,,,,,,,,,,,,,,,,,,,,,,,,,,,,,,,,,,,,,,,,,,,,,,,,,,,,,,,,,,,,,,,,,,,,,,,,,,,,,,,,,,,,,,,,
0,81,81,41,1,,5df924a11e2e586a0fa62643,62bbfb700876361cf282601c,2022-06-29_09h13.05.599,Colour_Asymmetry_Pilot,2022.1.3,Win32,75.00187505,62bbe60bf3d75ef465d3e404,,,,,,,,,,,,,,,,,,,,,,,,,,,,,,,,,,,,,,,,,,,,,,,,,,,,,,,,,,,,,,,,,,,,,,,,,,,,,,,,,,,,,,,,,,,,,,,,,,,,,,,,,,,,,,,,,,,,,,,,,,,,,,,,,,,,,,,,,,,,,,,,,,,,,,,,,,,,,,
0,82,82,37,1,,5df924a11e2e586a0fa62643,62bbfb700876361cf282601c,2022-06-29_09h13.05.599,Colour_Asymmetry_Pilot,2022.1.3,Win32,75.00187505,62bbe60bf3d75ef465d3e404,,,,,,,,,,,,,,,,,,,,,,,,,,,,,,,,,,,,,,,,,,,,,,,,,,,,,,,,,,,,,,,,,,,,,,,,,,,,,,,,,,,,,,,,,,,,,,,,,,,,,,,,,,,,,,,,,,,,,,,,,,,,,,,,,,,,,,,,,,,,,,,,,,,,,,,,,,,,,,
0,83,83,54,1,,5df924a11e2e586a0fa62643,62bbfb700876361cf282601c,2022-06-29_09h13.05.599,Colour_Asymmetry_Pilot,2022.1.3,Win32,75.00187505,62bbe60bf3d75ef465d3e404,,,,,,,,,,,,,,,,,,,,,,,,,,,,,,,,,,,,,,,,,,,,,,,,,,,,,,,,,,,,,,,,,,,,,,,,,,,,,,,,,,,,,,,,,,,,,,,,,,,,,,,,,,,,,,,,,,,,,,,,,,,,,,,,,,,,,,,,,,,,,,,,,,,,,,,,,,,,,,
0,84,84,78,1,,5df924a11e2e586a0fa62643,62bbfb700876361cf282601c,2022-06-29_09h13.05.599,Colour_Asymmetry_Pilot,2022.1.3,Win32,75.00187505,62bbe60bf3d75ef465d3e404,,,,,,,,,,,,,,,,,,,,,,,,,,,,,,,,,,,,,,,,,,,,,,,,,,,,,,,,,,,,,,,,,,,,,,,,,,,,,,,,,,,,,,,,,,,,,,,,,,,,,,,,,,,,,,,,,,,,,,,,,,,,,,,,,,,,,,,,,,,,,,,,,,,,,,,,,,,,,,
0,85,85,75,1,,5df924a11e2e586a0fa62643,62bbfb700876361cf282601c,2022-06-29_09h13.05.599,Colour_Asymmetry_Pilot,2022.1.3,Win32,75.00187505,62bbe60bf3d75ef465d3e404,,,,,,,,,,,,,,,,,,,,,,,,,,,,,,,,,,,,,,,,,,,,,,,,,,,,,,,,,,,,,,,,,,,,,,,,,,,,,,,,,,,,,,,,,,,,,,,,,,,,,,,,,,,,,,,,,,,,,,,,,,,,,,,,,,,,,,,,,,,,,,,,,,,,,,,,,,,,,,
0,86,86,43,1,,5df924a11e2e586a0fa62643,62bbfb700876361cf282601c,2022-06-29_09h13.05.599,Colour_Asymmetry_Pilot,2022.1.3,Win32,75.00187505,62bbe60bf3d75ef465d3e404,,,,,,,,,,,,,,,,,,,,,,,,,,,,,,,,,,,,,,,,,,,,,,,,,,,,,,,,,,,,,,,,,,,,,,,,,,,,,,,,,,,,,,,,,,,,,,,,,,,,,,,,,,,,,,,,,,,,,,,,,,,,,,,,,,,,,,,,,,,,,,,,,,,,,,,,,,,,,,
0,87,87,20,1,,5df924a11e2e586a0fa62643,62bbfb700876361cf282601c,2022-06-29_09h13.05.599,Colour_Asymmetry_Pilot,2022.1.3,Win32,75.00187505,62bbe60bf3d75ef465d3e404,,,,,,,,,,,,,,,,,,,,,,,,,,,,,,,,,,,,,,,,,,,,,,,,,,,,,,,,,,,,,,,,,,,,,,,,,,,,,,,,,,,,,,,,,,,,,,,,,,,,,,,,,,,,,,,,,,,,,,,,,,,,,,,,,,,,,,,,,,,,,,,,,,,,,,,,,,,,,,
0,88,88,76,1,,5df924a11e2e586a0fa62643,62bbfb700876361cf282601c,2022-06-29_09h13.05.599,Colour_Asymmetry_Pilot,2022.1.3,Win32,75.00187505,62bbe60bf3d75ef465d3e404,,,,,,,,,,,,,,,,,,,,,,,,,,,,,,,,,,,,,,,,,,,,,,,,,,,,,,,,,,,,,,,,,,,,,,,,,,,,,,,,,,,,,,,,,,,,,,,,,,,,,,,,,,,,,,,,,,,,,,,,,,,,,,,,,,,,,,,,,,,,,,,,,,,,,,,,,,,,,,
0,89,89,68,1,,5df924a11e2e586a0fa62643,62bbfb700876361cf282601c,2022-06-29_09h13.05.599,Colour_Asymmetry_Pilot,2022.1.3,Win32,75.00187505,62bbe60bf3d75ef465d3e404,,,,,,,,,,,,,,,,,,,,,,,,,,,,,,,,,,,,,,,,,,,,,,,,,,,,,,,,,,,,,,,,,,,,,,,,,,,,,,,,,,,,,,,,,,,,,,,,,,,,,,,,,,,,,,,,,,,,,,,,,,,,,,,,,,,,,,,,,,,,,,,,,,,,,,,,,,,,,,
0,90,90,23,1,,5df924a11e2e586a0fa62643,62bbfb700876361cf282601c,2022-06-29_09h13.05.599,Colour_Asymmetry_Pilot,2022.1.3,Win32,75.00187505,62bbe60bf3d75ef465d3e404,,,,,,,,,,,,,,,,,,,,,,,,,,,,,,,,,,,,,,,,,,,,,,,,,,,,,,,,,,,,,,,,,,,,,,,,,,,,,,,,,,,,,,,,,,,,,,,,,,,,,,,,,,,,,,,,,,,,,,,,,,,,,,,,,,,,,,,,,,,,,,,,,,,,,,,,,,,,,,
0,91,91,40,1,,5df924a11e2e586a0fa62643,62bbfb700876361cf282601c,2022-06-29_09h13.05.599,Colour_Asymmetry_Pilot,2022.1.3,Win32,75.00187505,62bbe60bf3d75ef465d3e404,,,,,,,,,,,,,,,,,,,,,,,,,,,,,,,,,,,,,,,,,,,,,,,,,,,,,,,,,,,,,,,,,,,,,,,,,,,,,,,,,,,,,,,,,,,,,,,,,,,,,,,,,,,,,,,,,,,,,,,,,,,,,,,,,,,,,,,,,,,,,,,,,,,,,,,,,,,,,,
0,92,92,89,1,,5df924a11e2e586a0fa62643,62bbfb700876361cf282601c,2022-06-29_09h13.05.599,Colour_Asymmetry_Pilot,2022.1.3,Win32,75.00187505,62bbe60bf3d75ef465d3e404,,,,,,,,,,,,,,,,,,,,,,,,,,,,,,,,,,,,,,,,,,,,,,,,,,,,,,,,,,,,,,,,,,,,,,,,,,,,,,,,,,,,,,,,,,,,,,,,,,,,,,,,,,,,,,,,,,,,,,,,,,,,,,,,,,,,,,,,,,,,,,,,,,,,,,,,,,,,,,
,,,,,,5df924a11e2e586a0fa62643,62bbfb700876361cf282601c,2022-06-29_09h13.05.599,Colour_Asymmetry_Pilot,2022.1.3,Win32,75.00187505,62bbe60bf3d75ef465d3e404,0,0,0,65,1,onethree,,,,,,,,,,,,,,,,,,,,,,,,,,,,,,,,,,,,,,,,,,,,,,,,,,,,,,,,,,,,,,,,,,,,,,,,,,,,,,,,,,,,,,,,,,,,,,,,,,,,,,,,,,,,,,,,,,,,,,,,,,,,,,,,,,,,,,,,,,,,,,,,,,,,,,,,
,,,,,,5df924a11e2e586a0fa62643,62bbfb700876361cf282601c,2022-06-29_09h13.05.599,Colour_Asymmetry_Pilot,2022.1.3,Win32,75.00187505,62bbe60bf3d75ef465d3e404,0,1,1,159,1,fourthree,,,,,,,,,,,,,,,,,,,,,,,,,,,,,,,,,,,,,,,,,,,,,,,,,,,,,,,,,,,,,,,,,,,,,,,,,,,,,,,,,,,,,,,,,,,,,,,,,,,,,,,,,,,,,,,,,,,,,,,,,,,,,,,,,,,,,,,,,,,,,,,,,,,,,,,,
,,,,,,5df924a11e2e586a0fa62643,62bbfb700876361cf282601c,2022-06-29_09h13.05.599,Colour_Asymmetry_Pilot,2022.1.3,Win32,75.00187505,62bbe60bf3d75ef465d3e404,0,2,2,29,1,threefour,,,,,,,,,,,,,,,,,,,,,,,,,,,,,,,,,,,,,,,,,,,,,,,,,,,,,,,,,,,,,,,,,,,,,,,,,,,,,,,,,,,,,,,,,,,,,,,,,,,,,,,,,,,,,,,,,,,,,,,,,,,,,,,,,,,,,,,,,,,,,,,,,,,,,,,,
,,,,,,5df924a11e2e586a0fa62643,62bbfb700876361cf282601c,2022-06-29_09h13.05.599,Colour_Asymmetry_Pilot,2022.1.3,Win32,75.00187505,62bbe60bf3d75ef465d3e404,0,3,3,25,1,onethree,,,,,,,,,,,,,,,,,,,,,,,,,,,,,,,,,,,,,,,,,,,,,,,,,,,,,,,,,,,,,,,,,,,,,,,,,,,,,,,,,,,,,,,,,,,,,,,,,,,,,,,,,,,,,,,,,,,,,,,,,,,,,,,,,,,,,,,,,,,,,,,,,,,,,,,,
,,,,,,5df924a11e2e586a0fa62643,62bbfb700876361cf282601c,2022-06-29_09h13.05.599,Colour_Asymmetry_Pilot,2022.1.3,Win32,75.00187505,62bbe60bf3d75ef465d3e404,0,4,4,42,1,twoone,,,,,,,,,,,,,,,,,,,,,,,,,,,,,,,,,,,,,,,,,,,,,,,,,,,,,,,,,,,,,,,,,,,,,,,,,,,,,,,,,,,,,,,,,,,,,,,,,,,,,,,,,,,,,,,,,,,,,,,,,,,,,,,,,,,,,,,,,,,,,,,,,,,,,,,,
,,,,,,5df924a11e2e586a0fa62643,62bbfb700876361cf282601c,2022-06-29_09h13.05.599,Colour_Asymmetry_Pilot,2022.1.3,Win32,75.00187505,62bbe60bf3d75ef465d3e404,0,5,5,142,1,fourtwo,,,,,,,,,,,,,,,,,,,,,,,,,,,,,,,,,,,,,,,,,,,,,,,,,,,,,,,,,,,,,,,,,,,,,,,,,,,,,,,,,,,,,,,,,,,,,,,,,,,,,,,,,,,,,,,,,,,,,,,,,,,,,,,,,,,,,,,,,,,,,,,,,,,,,,,,
,,,,,,5df924a11e2e586a0fa62643,62bbfb700876361cf282601c,2022-06-29_09h13.05.599,Colour_Asymmetry_Pilot,2022.1.3,Win32,75.00187505,62bbe60bf3d75ef465d3e404,0,6,6,36,1,threeone,,,,,,,,,,,,,,,,,,,,,,,,,,,,,,,,,,,,,,,,,,,,,,,,,,,,,,,,,,,,,,,,,,,,,,,,,,,,,,,,,,,,,,,,,,,,,,,,,,,,,,,,,,,,,,,,,,,,,,,,,,,,,,,,,,,,,,,,,,,,,,,,,,,,,,,,
,,,,,,5df924a11e2e586a0fa62643,62bbfb700876361cf282601c,2022-06-29_09h13.05.599,Colour_Asymmetry_Pilot,2022.1.3,Win32,75.00187505,62bbe60bf3d75ef465d3e404,0,7,7,112,1,onetwo,,,,,,,,,,,,,,,,,,,,,,,,,,,,,,,,,,,,,,,,,,,,,,,,,,,,,,,,,,,,,,,,,,,,,,,,,,,,,,,,,,,,,,,,,,,,,,,,,,,,,,,,,,,,,,,,,,,,,,,,,,,,,,,,,,,,,,,,,,,,,,,,,,,,,,,,
,,,,,,5df924a11e2e586a0fa62643,62bbfb700876361cf282601c,2022-06-29_09h13.05.599,Colour_Asymmetry_Pilot,2022.1.3,Win32,75.00187505,62bbe60bf3d75ef465d3e404,0,8,8,32,1,onetwo,,,,,,,,,,,,,,,,,,,,,,,,,,,,,,,,,,,,,,,,,,,,,,,,,,,,,,,,,,,,,,,,,,,,,,,,,,,,,,,,,,,,,,,,,,,,,,,,,,,,,,,,,,,,,,,,,,,,,,,,,,,,,,,,,,,,,,,,,,,,,,,,,,,,,,,,
,,,,,,5df924a11e2e586a0fa62643,62bbfb700876361cf282601c,2022-06-29_09h13.05.599,Colour_Asymmetry_Pilot,2022.1.3,Win32,75.00187505,62bbe60bf3d75ef465d3e404,0,9,9,26,1,twoone,,,,,,,,,,,,,,,,,,,,,,,,,,,,,,,,,,,,,,,,,,,,,,,,,,,,,,,,,,,,,,,,,,,,,,,,,,,,,,,,,,,,,,,,,,,,,,,,,,,,,,,,,,,,,,,,,,,,,,,,,,,,,,,,,,,,,,,,,,,,,,,,,,,,,,,,
,,,,,,5df924a11e2e586a0fa62643,62bbfb700876361cf282601c,2022-06-29_09h13.05.599,Colour_Asymmetry_Pilot,2022.1.3,Win32,75.00187505,62bbe60bf3d75ef465d3e404,0,10,10,125,1,threefour,,,,,,,,,,,,,,,,,,,,,,,,,,,,,,,,,,,,,,,,,,,,,,,,,,,,,,,,,,,,,,,,,,,,,,,,,,,,,,,,,,,,,,,,,,,,,,,,,,,,,,,,,,,,,,,,,,,,,,,,,,,,,,,,,,,,,,,,,,,,,,,,,,,,,,,,
,,,,,,5df924a11e2e586a0fa62643,62bbfb700876361cf282601c,2022-06-29_09h13.05.599,Colour_Asymmetry_Pilot,2022.1.3,Win32,75.00187505,62bbe60bf3d75ef465d3e404,0,11,11,19,1,twofour,,,,,,,,,,,,,,,,,,,,,,,,,,,,,,,,,,,,,,,,,,,,,,,,,,,,,,,,,,,,,,,,,,,,,,,,,,,,,,,,,,,,,,,,,,,,,,,,,,,,,,,,,,,,,,,,,,,,,,,,,,,,,,,,,,,,,,,,,,,,,,,,,,,,,,,,
,,,,,,5df924a11e2e586a0fa62643,62bbfb700876361cf282601c,2022-06-29_09h13.05.599,Colour_Asymmetry_Pilot,2022.1.3,Win32,75.00187505,62bbe60bf3d75ef465d3e404,0,12,12,99,1,twofour,,,,,,,,,,,,,,,,,,,,,,,,,,,,,,,,,,,,,,,,,,,,,,,,,,,,,,,,,,,,,,,,,,,,,,,,,,,,,,,,,,,,,,,,,,,,,,,,,,,,,,,,,,,,,,,,,,,,,,,,,,,,,,,,,,,,,,,,,,,,,,,,,,,,,,,,
,,,,,,5df924a11e2e586a0fa62643,62bbfb700876361cf282601c,2022-06-29_09h13.05.599,Colour_Asymmetry_Pilot,2022.1.3,Win32,75.00187505,62bbe60bf3d75ef465d3e404,0,13,13,144,1,onetwo,,,,,,,,,,,,,,,,,,,,,,,,,,,,,,,,,,,,,,,,,,,,,,,,,,,,,,,,,,,,,,,,,,,,,,,,,,,,,,,,,,,,,,,,,,,,,,,,,,,,,,,,,,,,,,,,,,,,,,,,,,,,,,,,,,,,,,,,,,,,,,,,,,,,,,,,
,,,,,,5df924a11e2e586a0fa62643,62bbfb700876361cf282601c,2022-06-29_09h13.05.599,Colour_Asymmetry_Pilot,2022.1.3,Win32,75.00187505,62bbe60bf3d75ef465d3e404,0,14,14,34,1,twoone,,,,,,,,,,,,,,,,,,,,,,,,,,,,,,,,,,,,,,,,,,,,,,,,,,,,,,,,,,,,,,,,,,,,,,,,,,,,,,,,,,,,,,,,,,,,,,,,,,,,,,,,,,,,,,,,,,,,,,,,,,,,,,,,,,,,,,,,,,,,,,,,,,,,,,,,
,,,,,,5df924a11e2e586a0fa62643,62bbfb700876361cf282601c,2022-06-29_09h13.05.599,Colour_Asymmetry_Pilot,2022.1.3,Win32,75.00187505,62bbe60bf3d75ef465d3e404,0,15,15,64,1,onetwo,,,,,,,,,,,,,,,,,,,,,,,,,,,,,,,,,,,,,,,,,,,,,,,,,,,,,,,,,,,,,,,,,,,,,,,,,,,,,,,,,,,,,,,,,,,,,,,,,,,,,,,,,,,,,,,,,,,,,,,,,,,,,,,,,,,,,,,,,,,,,,,,,,,,,,,,
,,,,,,5df924a11e2e586a0fa62643,62bbfb700876361cf282601c,2022-06-29_09h13.05.599,Colour_Asymmetry_Pilot,2022.1.3,Win32,75.00187505,62bbe60bf3d75ef465d3e404,0,16,16,138,1,twoone,,,,,,,,,,,,,,,,,,,,,,,,,,,,,,,,,,,,,,,,,,,,,,,,,,,,,,,,,,,,,,,,,,,,,,,,,,,,,,,,,,,,,,,,,,,,,,,,,,,,,,,,,,,,,,,,,,,,,,,,,,,,,,,,,,,,,,,,,,,,,,,,,,,,,,,,
,,,,,,5df924a11e2e586a0fa62643,62bbfb700876361cf282601c,2022-06-29_09h13.05.599,Colour_Asymmetry_Pilot,2022.1.3,Win32,75.00187505,62bbe60bf3d75ef465d3e404,0,17,17,130,1,twoone,,,,,,,,,,,,,,,,,,,,,,,,,,,,,,,,,,,,,,,,,,,,,,,,,,,,,,,,,,,,,,,,,,,,,,,,,,,,,,,,,,,,,,,,,,,,,,,,,,,,,,,,,,,,,,,,,,,,,,,,,,,,,,,,,,,,,,,,,,,,,,,,,,,,,,,,
,,,,,,5df924a11e2e586a0fa62643,62bbfb700876361cf282601c,2022-06-29_09h13.05.599,Colour_Asymmetry_Pilot,2022.1.3,Win32,75.00187505,62bbe60bf3d75ef465d3e404,0,18,18,106,1,twoone,,,,,,,,,,,,,,,,,,,,,,,,,,,,,,,,,,,,,,,,,,,,,,,,,,,,,,,,,,,,,,,,,,,,,,,,,,,,,,,,,,,,,,,,,,,,,,,,,,,,,,,,,,,,,,,,,,,,,,,,,,,,,,,,,,,,,,,,,,,,,,,,,,,,,,,,
,,,,,,5df924a11e2e586a0fa62643,62bbfb700876361cf282601c,2022-06-29_09h13.05.599,Colour_Asymmetry_Pilot,2022.1.3,Win32,75.00187505,62bbe60bf3d75ef465d3e404,0,19,19,7,1,fourthree,,,,,,,,,,,,,,,,,,,,,,,,,,,,,,,,,,,,,,,,,,,,,,,,,,,,,,,,,,,,,,,,,,,,,,,,,,,,,,,,,,,,,,,,,,,,,,,,,,,,,,,,,,,,,,,,,,,,,,,,,,,,,,,,,,,,,,,,,,,,,,,,,,,,,,,,
,,,,,,5df924a11e2e586a0fa62643,62bbfb700876361cf282601c,2022-06-29_09h13.05.599,Colour_Asymmetry_Pilot,2022.1.3,Win32,75.00187505,62bbe60bf3d75ef465d3e404,0,20,20,128,1,onetwo,,,,,,,,,,,,,,,,,,,,,,,,,,,,,,,,,,,,,,,,,,,,,,,,,,,,,,,,,,,,,,,,,,,,,,,,,,,,,,,,,,,,,,,,,,,,,,,,,,,,,,,,,,,,,,,,,,,,,,,,,,,,,,,,,,,,,,,,,,,,,,,,,,,,,,,,
,,,,,,5df924a11e2e586a0fa62643,62bbfb700876361cf282601c,2022-06-29_09h13.05.599,Colour_Asymmetry_Pilot,2022.1.3,Win32,75.00187505,62bbe60bf3d75ef465d3e404,0,21,21,161,1,onethree,,,,,,,,,,,,,,,,,,,,,,,,,,,,,,,,,,,,,,,,,,,,,,,,,,,,,,,,,,,,,,,,,,,,,,,,,,,,,,,,,,,,,,,,,,,,,,,,,,,,,,,,,,,,,,,,,,,,,,,,,,,,,,,,,,,,,,,,,,,,,,,,,,,,,,,,
,,,,,,5df924a11e2e586a0fa62643,62bbfb700876361cf282601c,2022-06-29_09h13.05.599,Colour_Asymmetry_Pilot,2022.1.3,Win32,75.00187505,62bbe60bf3d75ef465d3e404,0,22,22,62,1,fourtwo,,,,,,,,,,,,,,,,,,,,,,,,,,,,,,,,,,,,,,,,,,,,,,,,,,,,,,,,,,,,,,,,,,,,,,,,,,,,,,,,,,,,,,,,,,,,,,,,,,,,,,,,,,,,,,,,,,,,,,,,,,,,,,,,,,,,,,,,,,,,,,,,,,,,,,,,
,,,,,,5df924a11e2e586a0fa62643,62bbfb700876361cf282601c,2022-06-29_09h13.05.599,Colour_Asymmetry_Pilot,2022.1.3,Win32,75.00187505,62bbe60bf3d75ef465d3e404,0,23,23,75,1,twofour,,,,,,,,,,,,,,,,,,,,,,,,,,,,,,,,,,,,,,,,,,,,,,,,,,,,,,,,,,,,,,,,,,,,,,,,,,,,,,,,,,,,,,,,,,,,,,,,,,,,,,,,,,,,,,,,,,,,,,,,,,,,,,,,,,,,,,,,,,,,,,,,,,,,,,,,
,,,,,,5df924a11e2e586a0fa62643,62bbfb700876361cf282601c,2022-06-29_09h13.05.599,Colour_Asymmetry_Pilot,2022.1.3,Win32,75.00187505,62bbe60bf3d75ef465d3e404,0,24,24,5,1,threefour,,,,,,,,,,,,,,,,,,,,,,,,,,,,,,,,,,,,,,,,,,,,,,,,,,,,,,,,,,,,,,,,,,,,,,,,,,,,,,,,,,,,,,,,,,,,,,,,,,,,,,,,,,,,,,,,,,,,,,,,,,,,,,,,,,,,,,,,,,,,,,,,,,,,,,,,
,,,,,,5df924a11e2e586a0fa62643,62bbfb700876361cf282601c,2022-06-29_09h13.05.599,Colour_Asymmetry_Pilot,2022.1.3,Win32,75.00187505,62bbe60bf3d75ef465d3e404,0,25,25,46,1,fourtwo,,,,,,,,,,,,,,,,,,,,,,,,,,,,,,,,,,,,,,,,,,,,,,,,,,,,,,,,,,,,,,,,,,,,,,,,,,,,,,,,,,,,,,,,,,,,,,,,,,,,,,,,,,,,,,,,,,,,,,,,,,,,,,,,,,,,,,,,,,,,,,,,,,,,,,,,
,,,,,,5df924a11e2e586a0fa62643,62bbfb700876361cf282601c,2022-06-29_09h13.05.599,Colour_Asymmetry_Pilot,2022.1.3,Win32,75.00187505,62bbe60bf3d75ef465d3e404,0,26,26,33,1,onethree,,,,,,,,,,,,,,,,,,,,,,,,,,,,,,,,,,,,,,,,,,,,,,,,,,,,,,,,,,,,,,,,,,,,,,,,,,,,,,,,,,,,,,,,,,,,,,,,,,,,,,,,,,,,,,,,,,,,,,,,,,,,,,,,,,,,,,,,,,,,,,,,,,,,,,,,
,,,,,,5df924a11e2e586a0fa62643,62bbfb700876361cf282601c,2022-06-29_09h13.05.599,Colour_Asymmetry_Pilot,2022.1.3,Win32,75.00187505,62bbe60bf3d75ef465d3e404,0,27,27,133,1,threefour,,,,,,,,,,,,,,,,,,,,,,,,,,,,,,,,,,,,,,,,,,,,,,,,,,,,,,,,,,,,,,,,,,,,,,,,,,,,,,,,,,,,,,,,,,,,,,,,,,,,,,,,,,,,,,,,,,,,,,,,,,,,,,,,,,,,,,,,,,,,,,,,,,,,,,,,
,,,,,,5df924a11e2e586a0fa62643,62bbfb700876361cf282601c,2022-06-29_09h13.05.599,Colour_Asymmetry_Pilot,2022.1.3,Win32,75.00187505,62bbe60bf3d75ef465d3e404,0,28,28,91,1,twofour,,,,,,,,,,,,,,,,,,,,,,,,,,,,,,,,,,,,,,,,,,,,,,,,,,,,,,,,,,,,,,,,,,,,,,,,,,,,,,,,,,,,,,,,,,,,,,,,,,,,,,,,,,,,,,,,,,,,,,,,,,,,,,,,,,,,,,,,,,,,,,,,,,,,,,,,
,,,,,,5df924a11e2e586a0fa62643,62bbfb700876361cf282601c,2022-06-29_09h13.05.599,Colour_Asymmetry_Pilot,2022.1.3,Win32,75.00187505,62bbe60bf3d75ef465d3e404,0,29,29,79,1,fourthree,,,,,,,,,,,,,,,,,,,,,,,,,,,,,,,,,,,,,,,,,,,,,,,,,,,,,,,,,,,,,,,,,,,,,,,,,,,,,,,,,,,,,,,,,,,,,,,,,,,,,,,,,,,,,,,,,,,,,,,,,,,,,,,,,,,,,,,,,,,,,,,,,,,,,,,,
,,,,,,5df924a11e2e586a0fa62643,62bbfb700876361cf282601c,2022-06-29_09h13.05.599,Colour_Asymmetry_Pilot,2022.1.3,Win32,75.00187505,62bbe60bf3d75ef465d3e404,0,30,30,147,1,twofour,,,,,,,,,,,,,,,,,,,,,,,,,,,,,,,,,,,,,,,,,,,,,,,,,,,,,,,,,,,,,,,,,,,,,,,,,,,,,,,,,,,,,,,,,,,,,,,,,,,,,,,,,,,,,,,,,,,,,,,,,,,,,,,,,,,,,,,,,,,,,,,,,,,,,,,,
,,,,,,5df924a11e2e586a0fa62643,62bbfb700876361cf282601c,2022-06-29_09h13.05.599,Colour_Asymmetry_Pilot,2022.1.3,Win32,75.00187505,62bbe60bf3d75ef465d3e404,0,31,31,17,1,onethree,,,,,,,,,,,,,,,,,,,,,,,,,,,,,,,,,,,,,,,,,,,,,,,,,,,,,,,,,,,,,,,,,,,,,,,,,,,,,,,,,,,,,,,,,,,,,,,,,,,,,,,,,,,,,,,,,,,,,,,,,,,,,,,,,,,,,,,,,,,,,,,,,,,,,,,,
,,,,,,5df924a11e2e586a0fa62643,62bbfb700876361cf282601c,2022-06-29_09h13.05.599,Colour_Asymmetry_Pilot,2022.1.3,Win32,75.00187505,62bbe60bf3d75ef465d3e404,0,32,32,84,1,threeone,,,,,,,,,,,,,,,,,,,,,,,,,,,,,,,,,,,,,,,,,,,,,,,,,,,,,,,,,,,,,,,,,,,,,,,,,,,,,,,,,,,,,,,,,,,,,,,,,,,,,,,,,,,,,,,,,,,,,,,,,,,,,,,,,,,,,,,,,,,,,,,,,,,,,,,,
,,,,,,5df924a11e2e586a0fa62643,62bbfb700876361cf282601c,2022-06-29_09h13.05.599,Colour_Asymmetry_Pilot,2022.1.3,Win32,75.00187505,62bbe60bf3d75ef465d3e404,0,33,33,68,1,threeone,,,,,,,,,,,,,,,,,,,,,,,,,,,,,,,,,,,,,,,,,,,,,,,,,,,,,,,,,,,,,,,,,,,,,,,,,,,,,,,,,,,,,,,,,,,,,,,,,,,,,,,,,,,,,,,,,,,,,,,,,,,,,,,,,,,,,,,,,,,,,,,,,,,,,,,,
,,,,,,5df924a11e2e586a0fa62643,62bbfb700876361cf282601c,2022-06-29_09h13.05.599,Colour_Asymmetry_Pilot,2022.1.3,Win32,75.00187505,62bbe60bf3d75ef465d3e404,0,34,34,107,1,twofour,,,,,,,,,,,,,,,,,,,,,,,,,,,,,,,,,,,,,,,,,,,,,,,,,,,,,,,,,,,,,,,,,,,,,,,,,,,,,,,,,,,,,,,,,,,,,,,,,,,,,,,,,,,,,,,,,,,,,,,,,,,,,,,,,,,,,,,,,,,,,,,,,,,,,,,,
,,,,,,5df924a11e2e586a0fa62643,62bbfb700876361cf282601c,2022-06-29_09h13.05.599,Colour_Asymmetry_Pilot,2022.1.3,Win32,75.00187505,62bbe60bf3d75ef465d3e404,0,35,35,71,1,fourthree,,,,,,,,,,,,,,,,,,,,,,,,,,,,,,,,,,,,,,,,,,,,,,,,,,,,,,,,,,,,,,,,,,,,,,,,,,,,,,,,,,,,,,,,,,,,,,,,,,,,,,,,,,,,,,,,,,,,,,,,,,,,,,,,,,,,,,,,,,,,,,,,,,,,,,,,
,,,,,,5df924a11e2e586a0fa62643,62bbfb700876361cf282601c,2022-06-29_09h13.05.599,Colour_Asymmetry_Pilot,2022.1.3,Win32,75.00187505,62bbe60bf3d75ef465d3e404,0,36,36,72,1,onetwo,,,,,,,,,,,,,,,,,,,,,,,,,,,,,,,,,,,,,,,,,,,,,,,,,,,,,,,,,,,,,,,,,,,,,,,,,,,,,,,,,,,,,,,,,,,,,,,,,,,,,,,,,,,,,,,,,,,,,,,,,,,,,,,,,,,,,,,,,,,,,,,,,,,,,,,,
,,,,,,5df924a11e2e586a0fa62643,62bbfb700876361cf282601c,2022-06-29_09h13.05.599,Colour_Asymmetry_Pilot,2022.1.3,Win32,75.00187505,62bbe60bf3d75ef465d3e404,0,37,37,101,1,threefour,,,,,,,,,,,,,,,,,,,,,,,,,,,,,,,,,,,,,,,,,,,,,,,,,,,,,,,,,,,,,,,,,,,,,,,,,,,,,,,,,,,,,,,,,,,,,,,,,,,,,,,,,,,,,,,,,,,,,,,,,,,,,,,,,,,,,,,,,,,,,,,,,,,,,,,,
,,,,,,5df924a11e2e586a0fa62643,62bbfb700876361cf282601c,2022-06-29_09h13.05.599,Colour_Asymmetry_Pilot,2022.1.3,Win32,75.00187505,62bbe60bf3d75ef465d3e404,0,38,38,45,1,threefour,,,,,,,,,,,,,,,,,,,,,,,,,,,,,,,,,,,,,,,,,,,,,,,,,,,,,,,,,,,,,,,,,,,,,,,,,,,,,,,,,,,,,,,,,,,,,,,,,,,,,,,,,,,,,,,,,,,,,,,,,,,,,,,,,,,,,,,,,,,,,,,,,,,,,,,,
,,,,,,5df924a11e2e586a0fa62643,62bbfb700876361cf282601c,2022-06-29_09h13.05.599,Colour_Asymmetry_Pilot,2022.1.3,Win32,75.00187505,62bbe60bf3d75ef465d3e404,0,39,39,97,1,onethree,,,,,,,,,,,,,,,,,,,,,,,,,,,,,,,,,,,,,,,,,,,,,,,,,,,,,,,,,,,,,,,,,,,,,,,,,,,,,,,,,,,,,,,,,,,,,,,,,,,,,,,,,,,,,,,,,,,,,,,,,,,,,,,,,,,,,,,,,,,,,,,,,,,,,,,,
,,,,,,5df924a11e2e586a0fa62643,62bbfb700876361cf282601c,2022-06-29_09h13.05.599,Colour_Asymmetry_Pilot,2022.1.3,Win32,75.00187505,62bbe60bf3d75ef465d3e404,0,40,40,86,1,fourtwo,,,,,,,,,,,,,,,,,,,,,,,,,,,,,,,,,,,,,,,,,,,,,,,,,,,,,,,,,,,,,,,,,,,,,,,,,,,,,,,,,,,,,,,,,,,,,,,,,,,,,,,,,,,,,,,,,,,,,,,,,,,,,,,,,,,,,,,,,,,,,,,,,,,,,,,,
,,,,,,5df924a11e2e586a0fa62643,62bbfb700876361cf282601c,2022-06-29_09h13.05.599,Colour_Asymmetry_Pilot,2022.1.3,Win32,75.00187505,62bbe60bf3d75ef465d3e404,0,41,41,58,1,twoone,,,,,,,,,,,,,,,,,,,,,,,,,,,,,,,,,,,,,,,,,,,,,,,,,,,,,,,,,,,,,,,,,,,,,,,,,,,,,,,,,,,,,,,,,,,,,,,,,,,,,,,,,,,,,,,,,,,,,,,,,,,,,,,,,,,,,,,,,,,,,,,,,,,,,,,,
,,,,,,5df924a11e2e586a0fa62643,62bbfb700876361cf282601c,2022-06-29_09h13.05.599,Colour_Asymmetry_Pilot,2022.1.3,Win32,75.00187505,62bbe60bf3d75ef465d3e404,0,42,42,41,1,onethree,,,,,,,,,,,,,,,,,,,,,,,,,,,,,,,,,,,,,,,,,,,,,,,,,,,,,,,,,,,,,,,,,,,,,,,,,,,,,,,,,,,,,,,,,,,,,,,,,,,,,,,,,,,,,,,,,,,,,,,,,,,,,,,,,,,,,,,,,,,,,,,,,,,,,,,,
,,,,,,5df924a11e2e586a0fa62643,62bbfb700876361cf282601c,2022-06-29_09h13.05.599,Colour_Asymmetry_Pilot,2022.1.3,Win32,75.00187505,62bbe60bf3d75ef465d3e404,0,43,43,77,1,threefour,,,,,,,,,,,,,,,,,,,,,,,,,,,,,,,,,,,,,,,,,,,,,,,,,,,,,,,,,,,,,,,,,,,,,,,,,,,,,,,,,,,,,,,,,,,,,,,,,,,,,,,,,,,,,,,,,,,,,,,,,,,,,,,,,,,,,,,,,,,,,,,,,,,,,,,,
,,,,,,5df924a11e2e586a0fa62643,62bbfb700876361cf282601c,2022-06-29_09h13.05.599,Colour_Asymmetry_Pilot,2022.1.3,Win32,75.00187505,62bbe60bf3d75ef465d3e404,0,44,44,152,1,onetwo,,,,,,,,,,,,,,,,,,,,,,,,,,,,,,,,,,,,,,,,,,,,,,,,,,,,,,,,,,,,,,,,,,,,,,,,,,,,,,,,,,,,,,,,,,,,,,,,,,,,,,,,,,,,,,,,,,,,,,,,,,,,,,,,,,,,,,,,,,,,,,,,,,,,,,,,
,,,,,,5df924a11e2e586a0fa62643,62bbfb700876361cf282601c,2022-06-29_09h13.05.599,Colour_Asymmetry_Pilot,2022.1.3,Win32,75.00187505,62bbe60bf3d75ef465d3e404,0,45,45,31,1,fourthree,,,,,,,,,,,,,,,,,,,,,,,,,,,,,,,,,,,,,,,,,,,,,,,,,,,,,,,,,,,,,,,,,,,,,,,,,,,,,,,,,,,,,,,,,,,,,,,,,,,,,,,,,,,,,,,,,,,,,,,,,,,,,,,,,,,,,,,,,,,,,,,,,,,,,,,,
,,,,,,5df924a11e2e586a0fa62643,62bbfb700876361cf282601c,2022-06-29_09h13.05.599,Colour_Asymmetry_Pilot,2022.1.3,Win32,75.00187505,62bbe60bf3d75ef465d3e404,0,46,46,155,1,twofour,,,,,,,,,,,,,,,,,,,,,,,,,,,,,,,,,,,,,,,,,,,,,,,,,,,,,,,,,,,,,,,,,,,,,,,,,,,,,,,,,,,,,,,,,,,,,,,,,,,,,,,,,,,,,,,,,,,,,,,,,,,,,,,,,,,,,,,,,,,,,,,,,,,,,,,,
,,,,,,5df924a11e2e586a0fa62643,62bbfb700876361cf282601c,2022-06-29_09h13.05.599,Colour_Asymmetry_Pilot,2022.1.3,Win32,75.00187505,62bbe60bf3d75ef465d3e404,0,47,47,160,1,onetwo,,,,,,,,,,,,,,,,,,,,,,,,,,,,,,,,,,,,,,,,,,,,,,,,,,,,,,,,,,,,,,,,,,,,,,,,,,,,,,,,,,,,,,,,,,,,,,,,,,,,,,,,,,,,,,,,,,,,,,,,,,,,,,,,,,,,,,,,,,,,,,,,,,,,,,,,
,,,,,,5df924a11e2e586a0fa62643,62bbfb700876361cf282601c,2022-06-29_09h13.05.599,Colour_Asymmetry_Pilot,2022.1.3,Win32,75.00187505,62bbe60bf3d75ef465d3e404,0,48,48,139,1,twofour,,,,,,,,,,,,,,,,,,,,,,,,,,,,,,,,,,,,,,,,,,,,,,,,,,,,,,,,,,,,,,,,,,,,,,,,,,,,,,,,,,,,,,,,,,,,,,,,,,,,,,,,,,,,,,,,,,,,,,,,,,,,,,,,,,,,,,,,,,,,,,,,,,,,,,,,
,,,,,,5df924a11e2e586a0fa62643,62bbfb700876361cf282601c,2022-06-29_09h13.05.599,Colour_Asymmetry_Pilot,2022.1.3,Win32,75.00187505,62bbe60bf3d75ef465d3e404,0,49,49,140,1,threeone,,,,,,,,,,,,,,,,,,,,,,,,,,,,,,,,,,,,,,,,,,,,,,,,,,,,,,,,,,,,,,,,,,,,,,,,,,,,,,,,,,,,,,,,,,,,,,,,,,,,,,,,,,,,,,,,,,,,,,,,,,,,,,,,,,,,,,,,,,,,,,,,,,,,,,,,
,,,,,,5df924a11e2e586a0fa62643,62bbfb700876361cf282601c,2022-06-29_09h13.05.599,Colour_Asymmetry_Pilot,2022.1.3,Win32,75.00187505,62bbe60bf3d75ef465d3e404,0,50,50,116,1,threeone,,,,,,,,,,,,,,,,,,,,,,,,,,,,,,,,,,,,,,,,,,,,,,,,,,,,,,,,,,,,,,,,,,,,,,,,,,,,,,,,,,,,,,,,,,,,,,,,,,,,,,,,,,,,,,,,,,,,,,,,,,,,,,,,,,,,,,,,,,,,,,,,,,,,,,,,
,,,,,,5df924a11e2e586a0fa62643,62bbfb700876361cf282601c,2022-06-29_09h13.05.599,Colour_Asymmetry_Pilot,2022.1.3,Win32,75.00187505,62bbe60bf3d75ef465d3e404,0,51,51,146,1,twoone,,,,,,,,,,,,,,,,,,,,,,,,,,,,,,,,,,,,,,,,,,,,,,,,,,,,,,,,,,,,,,,,,,,,,,,,,,,,,,,,,,,,,,,,,,,,,,,,,,,,,,,,,,,,,,,,,,,,,,,,,,,,,,,,,,,,,,,,,,,,,,,,,,,,,,,,
,,,,,,5df924a11e2e586a0fa62643,62bbfb700876361cf282601c,2022-06-29_09h13.05.599,Colour_Asymmetry_Pilot,2022.1.3,Win32,75.00187505,62bbe60bf3d75ef465d3e404,0,52,52,22,1,fourtwo,,,,,,,,,,,,,,,,,,,,,,,,,,,,,,,,,,,,,,,,,,,,,,,,,,,,,,,,,,,,,,,,,,,,,,,,,,,,,,,,,,,,,,,,,,,,,,,,,,,,,,,,,,,,,,,,,,,,,,,,,,,,,,,,,,,,,,,,,,,,,,,,,,,,,,,,
,,,,,,5df924a11e2e586a0fa62643,62bbfb700876361cf282601c,2022-06-29_09h13.05.599,Colour_Asymmetry_Pilot,2022.1.3,Win32,75.00187505,62bbe60bf3d75ef465d3e404,0,53,53,136,1,onetwo,,,,,,,,,,,,,,,,,,,,,,,,,,,,,,,,,,,,,,,,,,,,,,,,,,,,,,,,,,,,,,,,,,,,,,,,,,,,,,,,,,,,,,,,,,,,,,,,,,,,,,,,,,,,,,,,,,,,,,,,,,,,,,,,,,,,,,,,,,,,,,,,,,,,,,,,
,,,,,,5df924a11e2e586a0fa62643,62bbfb700876361cf282601c,2022-06-29_09h13.05.599,Colour_Asymmetry_Pilot,2022.1.3,Win32,75.00187505,62bbe60bf3d75ef465d3e404,0,54,54,54,1,fourtwo,,,,,,,,,,,,,,,,,,,,,,,,,,,,,,,,,,,,,,,,,,,,,,,,,,,,,,,,,,,,,,,,,,,,,,,,,,,,,,,,,,,,,,,,,,,,,,,,,,,,,,,,,,,,,,,,,,,,,,,,,,,,,,,,,,,,,,,,,,,,,,,,,,,,,,,,
,,,,,,5df924a11e2e586a0fa62643,62bbfb700876361cf282601c,2022-06-29_09h13.05.599,Colour_Asymmetry_Pilot,2022.1.3,Win32,75.00187505,62bbe60bf3d75ef465d3e404,0,55,55,2,1,twoone,,,,,,,,,,,,,,,,,,,,,,,,,,,,,,,,,,,,,,,,,,,,,,,,,,,,,,,,,,,,,,,,,,,,,,,,,,,,,,,,,,,,,,,,,,,,,,,,,,,,,,,,,,,,,,,,,,,,,,,,,,,,,,,,,,,,,,,,,,,,,,,,,,,,,,,,
,,,,,,5df924a11e2e586a0fa62643,62bbfb700876361cf282601c,2022-06-29_09h13.05.599,Colour_Asymmetry_Pilot,2022.1.3,Win32,75.00187505,62bbe60bf3d75ef465d3e404,0,56,56,110,1,fourtwo,,,,,,,,,,,,,,,,,,,,,,,,,,,,,,,,,,,,,,,,,,,,,,,,,,,,,,,,,,,,,,,,,,,,,,,,,,,,,,,,,,,,,,,,,,,,,,,,,,,,,,,,,,,,,,,,,,,,,,,,,,,,,,,,,,,,,,,,,,,,,,,,,,,,,,,,
,,,,,,5df924a11e2e586a0fa62643,62bbfb700876361cf282601c,2022-06-29_09h13.05.599,Colour_Asymmetry_Pilot,2022.1.3,Win32,75.00187505,62bbe60bf3d75ef465d3e404,0,57,57,24,1,onetwo,,,,,,,,,,,,,,,,,,,,,,,,,,,,,,,,,,,,,,,,,,,,,,,,,,,,,,,,,,,,,,,,,,,,,,,,,,,,,,,,,,,,,,,,,,,,,,,,,,,,,,,,,,,,,,,,,,,,,,,,,,,,,,,,,,,,,,,,,,,,,,,,,,,,,,,,
,,,,,,5df924a11e2e586a0fa62643,62bbfb700876361cf282601c,2022-06-29_09h13.05.599,Colour_Asymmetry_Pilot,2022.1.3,Win32,75.00187505,62bbe60bf3d75ef465d3e404,0,58,58,37,1,threefour,,,,,,,,,,,,,,,,,,,,,,,,,,,,,,,,,,,,,,,,,,,,,,,,,,,,,,,,,,,,,,,,,,,,,,,,,,,,,,,,,,,,,,,,,,,,,,,,,,,,,,,,,,,,,,,,,,,,,,,,,,,,,,,,,,,,,,,,,,,,,,,,,,,,,,,,
,,,,,,5df924a11e2e586a0fa62643,62bbfb700876361cf282601c,2022-06-29_09h13.05.599,Colour_Asymmetry_Pilot,2022.1.3,Win32,75.00187505,62bbe60bf3d75ef465d3e404,0,59,59,127,1,fourthree,,,,,,,,,,,,,,,,,,,,,,,,,,,,,,,,,,,,,,,,,,,,,,,,,,,,,,,,,,,,,,,,,,,,,,,,,,,,,,,,,,,,,,,,,,,,,,,,,,,,,,,,,,,,,,,,,,,,,,,,,,,,,,,,,,,,,,,,,,,,,,,,,,,,,,,,
,,,,,,5df924a11e2e586a0fa62643,62bbfb700876361cf282601c,2022-06-29_09h13.05.599,Colour_Asymmetry_Pilot,2022.1.3,Win32,75.00187505,62bbe60bf3d75ef465d3e404,0,60,60,35,1,twofour,,,,,,,,,,,,,,,,,,,,,,,,,,,,,,,,,,,,,,,,,,,,,,,,,,,,,,,,,,,,,,,,,,,,,,,,,,,,,,,,,,,,,,,,,,,,,,,,,,,,,,,,,,,,,,,,,,,,,,,,,,,,,,,,,,,,,,,,,,,,,,,,,,,,,,,,
,,,,,,5df924a11e2e586a0fa62643,62bbfb700876361cf282601c,2022-06-29_09h13.05.599,Colour_Asymmetry_Pilot,2022.1.3,Win32,75.00187505,62bbe60bf3d75ef465d3e404,0,61,61,12,1,threeone,,,,,,,,,,,,,,,,,,,,,,,,,,,,,,,,,,,,,,,,,,,,,,,,,,,,,,,,,,,,,,,,,,,,,,,,,,,,,,,,,,,,,,,,,,,,,,,,,,,,,,,,,,,,,,,,,,,,,,,,,,,,,,,,,,,,,,,,,,,,,,,,,,,,,,,,
,,,,,,5df924a11e2e586a0fa62643,62bbfb700876361cf282601c,2022-06-29_09h13.05.599,Colour_Asymmetry_Pilot,2022.1.3,Win32,75.00187505,62bbe60bf3d75ef465d3e404,0,62,62,70,1,fourtwo,,,,,,,,,,,,,,,,,,,,,,,,,,,,,,,,,,,,,,,,,,,,,,,,,,,,,,,,,,,,,,,,,,,,,,,,,,,,,,,,,,,,,,,,,,,,,,,,,,,,,,,,,,,,,,,,,,,,,,,,,,,,,,,,,,,,,,,,,,,,,,,,,,,,,,,,
,,,,,,5df924a11e2e586a0fa62643,62bbfb700876361cf282601c,2022-06-29_09h13.05.599,Colour_Asymmetry_Pilot,2022.1.3,Win32,75.00187505,62bbe60bf3d75ef465d3e404,0,63,63,57,1,onethree,,,,,,,,,,,,,,,,,,,,,,,,,,,,,,,,,,,,,,,,,,,,,,,,,,,,,,,,,,,,,,,,,,,,,,,,,,,,,,,,,,,,,,,,,,,,,,,,,,,,,,,,,,,,,,,,,,,,,,,,,,,,,,,,,,,,,,,,,,,,,,,,,,,,,,,,
,,,,,,5df924a11e2e586a0fa62643,62bbfb700876361cf282601c,2022-06-29_09h13.05.599,Colour_Asymmetry_Pilot,2022.1.3,Win32,75.00187505,62bbe60bf3d75ef465d3e404,0,64,64,120,1,onetwo,,,,,,,,,,,,,,,,,,,,,,,,,,,,,,,,,,,,,,,,,,,,,,,,,,,,,,,,,,,,,,,,,,,,,,,,,,,,,,,,,,,,,,,,,,,,,,,,,,,,,,,,,,,,,,,,,,,,,,,,,,,,,,,,,,,,,,,,,,,,,,,,,,,,,,,,
,,,,,,5df924a11e2e586a0fa62643,62bbfb700876361cf282601c,2022-06-29_09h13.05.599,Colour_Asymmetry_Pilot,2022.1.3,Win32,75.00187505,62bbe60bf3d75ef465d3e404,0,65,65,69,1,threefour,,,,,,,,,,,,,,,,,,,,,,,,,,,,,,,,,,,,,,,,,,,,,,,,,,,,,,,,,,,,,,,,,,,,,,,,,,,,,,,,,,,,,,,,,,,,,,,,,,,,,,,,,,,,,,,,,,,,,,,,,,,,,,,,,,,,,,,,,,,,,,,,,,,,,,,,
,,,,,,5df924a11e2e586a0fa62643,62bbfb700876361cf282601c,2022-06-29_09h13.05.599,Colour_Asymmetry_Pilot,2022.1.3,Win32,75.00187505,62bbe60bf3d75ef465d3e404,0,66,66,119,1,fourthree,,,,,,,,,,,,,,,,,,,,,,,,,,,,,,,,,,,,,,,,,,,,,,,,,,,,,,,,,,,,,,,,,,,,,,,,,,,,,,,,,,,,,,,,,,,,,,,,,,,,,,,,,,,,,,,,,,,,,,,,,,,,,,,,,,,,,,,,,,,,,,,,,,,,,,,,
,,,,,,5df924a11e2e586a0fa62643,62bbfb700876361cf282601c,2022-06-29_09h13.05.599,Colour_Asymmetry_Pilot,2022.1.3,Win32,75.00187505,62bbe60bf3d75ef465d3e404,0,67,67,148,1,threeone,,,,,,,,,,,,,,,,,,,,,,,,,,,,,,,,,,,,,,,,,,,,,,,,,,,,,,,,,,,,,,,,,,,,,,,,,,,,,,,,,,,,,,,,,,,,,,,,,,,,,,,,,,,,,,,,,,,,,,,,,,,,,,,,,,,,,,,,,,,,,,,,,,,,,,,,
,,,,,,5df924a11e2e586a0fa62643,62bbfb700876361cf282601c,2022-06-29_09h13.05.599,Colour_Asymmetry_Pilot,2022.1.3,Win32,75.00187505,62bbe60bf3d75ef465d3e404,0,68,68,137,1,onethree,,,,,,,,,,,,,,,,,,,,,,,,,,,,,,,,,,,,,,,,,,,,,,,,,,,,,,,,,,,,,,,,,,,,,,,,,,,,,,,,,,,,,,,,,,,,,,,,,,,,,,,,,,,,,,,,,,,,,,,,,,,,,,,,,,,,,,,,,,,,,,,,,,,,,,,,
,,,,,,5df924a11e2e586a0fa62643,62bbfb700876361cf282601c,2022-06-29_09h13.05.599,Colour_Asymmetry_Pilot,2022.1.3,Win32,75.00187505,62bbe60bf3d75ef465d3e404,0,69,69,157,1,threefour,,,,,,,,,,,,,,,,,,,,,,,,,,,,,,,,,,,,,,,,,,,,,,,,,,,,,,,,,,,,,,,,,,,,,,,,,,,,,,,,,,,,,,,,,,,,,,,,,,,,,,,,,,,,,,,,,,,,,,,,,,,,,,,,,,,,,,,,,,,,,,,,,,,,,,,,
,,,,,,5df924a11e2e586a0fa62643,62bbfb700876361cf282601c,2022-06-29_09h13.05.599,Colour_Asymmetry_Pilot,2022.1.3,Win32,75.00187505,62bbe60bf3d75ef465d3e404,0,70,70,67,1,twofour,,,,,,,,,,,,,,,,,,,,,,,,,,,,,,,,,,,,,,,,,,,,,,,,,,,,,,,,,,,,,,,,,,,,,,,,,,,,,,,,,,,,,,,,,,,,,,,,,,,,,,,,,,,,,,,,,,,,,,,,,,,,,,,,,,,,,,,,,,,,,,,,,,,,,,,,
,,,,,,5df924a11e2e586a0fa62643,62bbfb700876361cf282601c,2022-06-29_09h13.05.599,Colour_Asymmetry_Pilot,2022.1.3,Win32,75.00187505,62bbe60bf3d75ef465d3e404,0,71,71,73,1,onethree,,,,,,,,,,,,,,,,,,,,,,,,,,,,,,,,,,,,,,,,,,,,,,,,,,,,,,,,,,,,,,,,,,,,,,,,,,,,,,,,,,,,,,,,,,,,,,,,,,,,,,,,,,,,,,,,,,,,,,,,,,,,,,,,,,,,,,,,,,,,,,,,,,,,,,,,
,,,,,,5df924a11e2e586a0fa62643,62bbfb700876361cf282601c,2022-06-29_09h13.05.599,Colour_Asymmetry_Pilot,2022.1.3,Win32,75.00187505,62bbe60bf3d75ef465d3e404,0,72,72,3,1,twofour,,,,,,,,,,,,,,,,,,,,,,,,,,,,,,,,,,,,,,,,,,,,,,,,,,,,,,,,,,,,,,,,,,,,,,,,,,,,,,,,,,,,,,,,,,,,,,,,,,,,,,,,,,,,,,,,,,,,,,,,,,,,,,,,,,,,,,,,,,,,,,,,,,,,,,,,
,,,,,,5df924a11e2e586a0fa62643,62bbfb700876361cf282601c,2022-06-29_09h13.05.599,Colour_Asymmetry_Pilot,2022.1.3,Win32,75.00187505,62bbe60bf3d75ef465d3e404,0,73,73,150,1,fourtwo,,,,,,,,,,,,,,,,,,,,,,,,,,,,,,,,,,,,,,,,,,,,,,,,,,,,,,,,,,,,,,,,,,,,,,,,,,,,,,,,,,,,,,,,,,,,,,,,,,,,,,,,,,,,,,,,,,,,,,,,,,,,,,,,,,,,,,,,,,,,,,,,,,,,,,,,
,,,,,,5df924a11e2e586a0fa62643,62bbfb700876361cf282601c,2022-06-29_09h13.05.599,Colour_Asymmetry_Pilot,2022.1.3,Win32,75.00187505,62bbe60bf3d75ef465d3e404,0,74,74,108,1,threeone,,,,,,,,,,,,,,,,,,,,,,,,,,,,,,,,,,,,,,,,,,,,,,,,,,,,,,,,,,,,,,,,,,,,,,,,,,,,,,,,,,,,,,,,,,,,,,,,,,,,,,,,,,,,,,,,,,,,,,,,,,,,,,,,,,,,,,,,,,,,,,,,,,,,,,,,
,,,,,,5df924a11e2e586a0fa62643,62bbfb700876361cf282601c,2022-06-29_09h13.05.599,Colour_Asymmetry_Pilot,2022.1.3,Win32,75.00187505,62bbe60bf3d75ef465d3e404,0,75,75,63,1,fourthree,,,,,,,,,,,,,,,,,,,,,,,,,,,,,,,,,,,,,,,,,,,,,,,,,,,,,,,,,,,,,,,,,,,,,,,,,,,,,,,,,,,,,,,,,,,,,,,,,,,,,,,,,,,,,,,,,,,,,,,,,,,,,,,,,,,,,,,,,,,,,,,,,,,,,,,,
,,,,,,5df924a11e2e586a0fa62643,62bbfb700876361cf282601c,2022-06-29_09h13.05.599,Colour_Asymmetry_Pilot,2022.1.3,Win32,75.00187505,62bbe60bf3d75ef465d3e404,0,76,76,60,1,threeone,,,,,,,,,,,,,,,,,,,,,,,,,,,,,,,,,,,,,,,,,,,,,,,,,,,,,,,,,,,,,,,,,,,,,,,,,,,,,,,,,,,,,,,,,,,,,,,,,,,,,,,,,,,,,,,,,,,,,,,,,,,,,,,,,,,,,,,,,,,,,,,,,,,,,,,,
,,,,,,5df924a11e2e586a0fa62643,62bbfb700876361cf282601c,2022-06-29_09h13.05.599,Colour_Asymmetry_Pilot,2022.1.3,Win32,75.00187505,62bbe60bf3d75ef465d3e404,0,77,77,114,1,twoone,,,,,,,,,,,,,,,,,,,,,,,,,,,,,,,,,,,,,,,,,,,,,,,,,,,,,,,,,,,,,,,,,,,,,,,,,,,,,,,,,,,,,,,,,,,,,,,,,,,,,,,,,,,,,,,,,,,,,,,,,,,,,,,,,,,,,,,,,,,,,,,,,,,,,,,,
,,,,,,5df924a11e2e586a0fa62643,62bbfb700876361cf282601c,2022-06-29_09h13.05.599,Colour_Asymmetry_Pilot,2022.1.3,Win32,75.00187505,62bbe60bf3d75ef465d3e404,0,78,78,104,1,onetwo,,,,,,,,,,,,,,,,,,,,,,,,,,,,,,,,,,,,,,,,,,,,,,,,,,,,,,,,,,,,,,,,,,,,,,,,,,,,,,,,,,,,,,,,,,,,,,,,,,,,,,,,,,,,,,,,,,,,,,,,,,,,,,,,,,,,,,,,,,,,,,,,,,,,,,,,
,,,,,,5df924a11e2e586a0fa62643,62bbfb700876361cf282601c,2022-06-29_09h13.05.599,Colour_Asymmetry_Pilot,2022.1.3,Win32,75.00187505,62bbe60bf3d75ef465d3e404,0,79,79,111,1,fourthree,,,,,,,,,,,,,,,,,,,,,,,,,,,,,,,,,,,,,,,,,,,,,,,,,,,,,,,,,,,,,,,,,,,,,,,,,,,,,,,,,,,,,,,,,,,,,,,,,,,,,,,,,,,,,,,,,,,,,,,,,,,,,,,,,,,,,,,,,,,,,,,,,,,,,,,,
,,,,,,5df924a11e2e586a0fa62643,62bbfb700876361cf282601c,2022-06-29_09h13.05.599,Colour_Asymmetry_Pilot,2022.1.3,Win32,75.00187505,62bbe60bf3d75ef465d3e404,0,80,80,93,1,threefour,,,,,,,,,,,,,,,,,,,,,,,,,,,,,,,,,,,,,,,,,,,,,,,,,,,,,,,,,,,,,,,,,,,,,,,,,,,,,,,,,,,,,,,,,,,,,,,,,,,,,,,,,,,,,,,,,,,,,,,,,,,,,,,,,,,,,,,,,,,,,,,,,,,,,,,,
,,,,,,5df924a11e2e586a0fa62643,62bbfb700876361cf282601c,2022-06-29_09h13.05.599,Colour_Asymmetry_Pilot,2022.1.3,Win32,75.00187505,62bbe60bf3d75ef465d3e404,0,81,81,8,1,onetwo,,,,,,,,,,,,,,,,,,,,,,,,,,,,,,,,,,,,,,,,,,,,,,,,,,,,,,,,,,,,,,,,,,,,,,,,,,,,,,,,,,,,,,,,,,,,,,,,,,,,,,,,,,,,,,,,,,,,,,,,,,,,,,,,,,,,,,,,,,,,,,,,,,,,,,,,
,,,,,,5df924a11e2e586a0fa62643,62bbfb700876361cf282601c,2022-06-29_09h13.05.599,Colour_Asymmetry_Pilot,2022.1.3,Win32,75.00187505,62bbe60bf3d75ef465d3e404,0,82,82,92,1,threeone,,,,,,,,,,,,,,,,,,,,,,,,,,,,,,,,,,,,,,,,,,,,,,,,,,,,,,,,,,,,,,,,,,,,,,,,,,,,,,,,,,,,,,,,,,,,,,,,,,,,,,,,,,,,,,,,,,,,,,,,,,,,,,,,,,,,,,,,,,,,,,,,,,,,,,,,
,,,,,,5df924a11e2e586a0fa62643,62bbfb700876361cf282601c,2022-06-29_09h13.05.599,Colour_Asymmetry_Pilot,2022.1.3,Win32,75.00187505,62bbe60bf3d75ef465d3e404,0,83,83,132,1,threeone,,,,,,,,,,,,,,,,,,,,,,,,,,,,,,,,,,,,,,,,,,,,,,,,,,,,,,,,,,,,,,,,,,,,,,,,,,,,,,,,,,,,,,,,,,,,,,,,,,,,,,,,,,,,,,,,,,,,,,,,,,,,,,,,,,,,,,,,,,,,,,,,,,,,,,,,
,,,,,,5df924a11e2e586a0fa62643,62bbfb700876361cf282601c,2022-06-29_09h13.05.599,Colour_Asymmetry_Pilot,2022.1.3,Win32,75.00187505,62bbe60bf3d75ef465d3e404,0,84,84,50,1,twoone,,,,,,,,,,,,,,,,,,,,,,,,,,,,,,,,,,,,,,,,,,,,,,,,,,,,,,,,,,,,,,,,,,,,,,,,,,,,,,,,,,,,,,,,,,,,,,,,,,,,,,,,,,,,,,,,,,,,,,,,,,,,,,,,,,,,,,,,,,,,,,,,,,,,,,,,
,,,,,,5df924a11e2e586a0fa62643,62bbfb700876361cf282601c,2022-06-29_09h13.05.599,Colour_Asymmetry_Pilot,2022.1.3,Win32,75.00187505,62bbe60bf3d75ef465d3e404,0,85,85,90,1,twoone,,,,,,,,,,,,,,,,,,,,,,,,,,,,,,,,,,,,,,,,,,,,,,,,,,,,,,,,,,,,,,,,,,,,,,,,,,,,,,,,,,,,,,,,,,,,,,,,,,,,,,,,,,,,,,,,,,,,,,,,,,,,,,,,,,,,,,,,,,,,,,,,,,,,,,,,
,,,,,,5df924a11e2e586a0fa62643,62bbfb700876361cf282601c,2022-06-29_09h13.05.599,Colour_Asymmetry_Pilot,2022.1.3,Win32,75.00187505,62bbe60bf3d75ef465d3e404,0,86,86,23,1,fourthree,,,,,,,,,,,,,,,,,,,,,,,,,,,,,,,,,,,,,,,,,,,,,,,,,,,,,,,,,,,,,,,,,,,,,,,,,,,,,,,,,,,,,,,,,,,,,,,,,,,,,,,,,,,,,,,,,,,,,,,,,,,,,,,,,,,,,,,,,,,,,,,,,,,,,,,,
,,,,,,5df924a11e2e586a0fa62643,62bbfb700876361cf282601c,2022-06-29_09h13.05.599,Colour_Asymmetry_Pilot,2022.1.3,Win32,75.00187505,62bbe60bf3d75ef465d3e404,0,87,87,82,1,twoone,,,,,,,,,,,,,,,,,,,,,,,,,,,,,,,,,,,,,,,,,,,,,,,,,,,,,,,,,,,,,,,,,,,,,,,,,,,,,,,,,,,,,,,,,,,,,,,,,,,,,,,,,,,,,,,,,,,,,,,,,,,,,,,,,,,,,,,,,,,,,,,,,,,,,,,,
,,,,,,5df924a11e2e586a0fa62643,62bbfb700876361cf282601c,2022-06-29_09h13.05.599,Colour_Asymmetry_Pilot,2022.1.3,Win32,75.00187505,62bbe60bf3d75ef465d3e404,0,88,88,59,1,twofour,,,,,,,,,,,,,,,,,,,,,,,,,,,,,,,,,,,,,,,,,,,,,,,,,,,,,,,,,,,,,,,,,,,,,,,,,,,,,,,,,,,,,,,,,,,,,,,,,,,,,,,,,,,,,,,,,,,,,,,,,,,,,,,,,,,,,,,,,,,,,,,,,,,,,,,,
,,,,,,5df924a11e2e586a0fa62643,62bbfb700876361cf282601c,2022-06-29_09h13.05.599,Colour_Asymmetry_Pilot,2022.1.3,Win32,75.00187505,62bbe60bf3d75ef465d3e404,0,89,89,56,1,onetwo,,,,,,,,,,,,,,,,,,,,,,,,,,,,,,,,,,,,,,,,,,,,,,,,,,,,,,,,,,,,,,,,,,,,,,,,,,,,,,,,,,,,,,,,,,,,,,,,,,,,,,,,,,,,,,,,,,,,,,,,,,,,,,,,,,,,,,,,,,,,,,,,,,,,,,,,
,,,,,,5df924a11e2e586a0fa62643,62bbfb700876361cf282601c,2022-06-29_09h13.05.599,Colour_Asymmetry_Pilot,2022.1.3,Win32,75.00187505,62bbe60bf3d75ef465d3e404,0,90,90,20,1,threeone,,,,,,,,,,,,,,,,,,,,,,,,,,,,,,,,,,,,,,,,,,,,,,,,,,,,,,,,,,,,,,,,,,,,,,,,,,,,,,,,,,,,,,,,,,,,,,,,,,,,,,,,,,,,,,,,,,,,,,,,,,,,,,,,,,,,,,,,,,,,,,,,,,,,,,,,
,,,,,,5df924a11e2e586a0fa62643,62bbfb700876361cf282601c,2022-06-29_09h13.05.599,Colour_Asymmetry_Pilot,2022.1.3,Win32,75.00187505,62bbe60bf3d75ef465d3e404,0,91,91,158,1,fourtwo,,,,,,,,,,,,,,,,,,,,,,,,,,,,,,,,,,,,,,,,,,,,,,,,,,,,,,,,,,,,,,,,,,,,,,,,,,,,,,,,,,,,,,,,,,,,,,,,,,,,,,,,,,,,,,,,,,,,,,,,,,,,,,,,,,,,,,,,,,,,,,,,,,,,,,,,
,,,,,,5df924a11e2e586a0fa62643,62bbfb700876361cf282601c,2022-06-29_09h13.05.599,Colour_Asymmetry_Pilot,2022.1.3,Win32,75.00187505,62bbe60bf3d75ef465d3e404,0,92,92,98,1,twoone,,,,,,,,,,,,,,,,,,,,,,,,,,,,,,,,,,,,,,,,,,,,,,,,,,,,,,,,,,,,,,,,,,,,,,,,,,,,,,,,,,,,,,,,,,,,,,,,,,,,,,,,,,,,,,,,,,,,,,,,,,,,,,,,,,,,,,,,,,,,,,,,,,,,,,,,
,,,,,,5df924a11e2e586a0fa62643,62bbfb700876361cf282601c,2022-06-29_09h13.05.599,Colour_Asymmetry_Pilot,2022.1.3,Win32,75.00187505,62bbe60bf3d75ef465d3e404,0,93,93,94,1,fourtwo,,,,,,,,,,,,,,,,,,,,,,,,,,,,,,,,,,,,,,,,,,,,,,,,,,,,,,,,,,,,,,,,,,,,,,,,,,,,,,,,,,,,,,,,,,,,,,,,,,,,,,,,,,,,,,,,,,,,,,,,,,,,,,,,,,,,,,,,,,,,,,,,,,,,,,,,
,,,,,,5df924a11e2e586a0fa62643,62bbfb700876361cf282601c,2022-06-29_09h13.05.599,Colour_Asymmetry_Pilot,2022.1.3,Win32,75.00187505,62bbe60bf3d75ef465d3e404,0,94,94,118,1,fourtwo,,,,,,,,,,,,,,,,,,,,,,,,,,,,,,,,,,,,,,,,,,,,,,,,,,,,,,,,,,,,,,,,,,,,,,,,,,,,,,,,,,,,,,,,,,,,,,,,,,,,,,,,,,,,,,,,,,,,,,,,,,,,,,,,,,,,,,,,,,,,,,,,,,,,,,,,
,,,,,,5df924a11e2e586a0fa62643,62bbfb700876361cf282601c,2022-06-29_09h13.05.599,Colour_Asymmetry_Pilot,2022.1.3,Win32,75.00187505,62bbe60bf3d75ef465d3e404,0,95,95,102,1,fourtwo,,,,,,,,,,,,,,,,,,,,,,,,,,,,,,,,,,,,,,,,,,,,,,,,,,,,,,,,,,,,,,,,,,,,,,,,,,,,,,,,,,,,,,,,,,,,,,,,,,,,,,,,,,,,,,,,,,,,,,,,,,,,,,,,,,,,,,,,,,,,,,,,,,,,,,,,
,,,,,,5df924a11e2e586a0fa62643,62bbfb700876361cf282601c,2022-06-29_09h13.05.599,Colour_Asymmetry_Pilot,2022.1.3,Win32,75.00187505,62bbe60bf3d75ef465d3e404,0,96,96,121,1,onethree,,,,,,,,,,,,,,,,,,,,,,,,,,,,,,,,,,,,,,,,,,,,,,,,,,,,,,,,,,,,,,,,,,,,,,,,,,,,,,,,,,,,,,,,,,,,,,,,,,,,,,,,,,,,,,,,,,,,,,,,,,,,,,,,,,,,,,,,,,,,,,,,,,,,,,,,
,,,,,,5df924a11e2e586a0fa62643,62bbfb700876361cf282601c,2022-06-29_09h13.05.599,Colour_Asymmetry_Pilot,2022.1.3,Win32,75.00187505,62bbe60bf3d75ef465d3e404,0,97,97,39,1,fourthree,,,,,,,,,,,,,,,,,,,,,,,,,,,,,,,,,,,,,,,,,,,,,,,,,,,,,,,,,,,,,,,,,,,,,,,,,,,,,,,,,,,,,,,,,,,,,,,,,,,,,,,,,,,,,,,,,,,,,,,,,,,,,,,,,,,,,,,,,,,,,,,,,,,,,,,,
,,,,,,5df924a11e2e586a0fa62643,62bbfb700876361cf282601c,2022-06-29_09h13.05.599,Colour_Asymmetry_Pilot,2022.1.3,Win32,75.00187505,62bbe60bf3d75ef465d3e404,0,98,98,135,1,fourthree,,,,,,,,,,,,,,,,,,,,,,,,,,,,,,,,,,,,,,,,,,,,,,,,,,,,,,,,,,,,,,,,,,,,,,,,,,,,,,,,,,,,,,,,,,,,,,,,,,,,,,,,,,,,,,,,,,,,,,,,,,,,,,,,,,,,,,,,,,,,,,,,,,,,,,,,
,,,,,,5df924a11e2e586a0fa62643,62bbfb700876361cf282601c,2022-06-29_09h13.05.599,Colour_Asymmetry_Pilot,2022.1.3,Win32,75.00187505,62bbe60bf3d75ef465d3e404,0,99,99,153,1,onethree,,,,,,,,,,,,,,,,,,,,,,,,,,,,,,,,,,,,,,,,,,,,,,,,,,,,,,,,,,,,,,,,,,,,,,,,,,,,,,,,,,,,,,,,,,,,,,,,,,,,,,,,,,,,,,,,,,,,,,,,,,,,,,,,,,,,,,,,,,,,,,,,,,,,,,,,
,,,,,,5df924a11e2e586a0fa62643,62bbfb700876361cf282601c,2022-06-29_09h13.05.599,Colour_Asymmetry_Pilot,2022.1.3,Win32,75.00187505,62bbe60bf3d75ef465d3e404,0,100,100,11,1,twofour,,,,,,,,,,,,,,,,,,,,,,,,,,,,,,,,,,,,,,,,,,,,,,,,,,,,,,,,,,,,,,,,,,,,,,,,,,,,,,,,,,,,,,,,,,,,,,,,,,,,,,,,,,,,,,,,,,,,,,,,,,,,,,,,,,,,,,,,,,,,,,,,,,,,,,,,
,,,,,,5df924a11e2e586a0fa62643,62bbfb700876361cf282601c,2022-06-29_09h13.05.599,Colour_Asymmetry_Pilot,2022.1.3,Win32,75.00187505,62bbe60bf3d75ef465d3e404,0,101,101,105,1,onethree,,,,,,,,,,,,,,,,,,,,,,,,,,,,,,,,,,,,,,,,,,,,,,,,,,,,,,,,,,,,,,,,,,,,,,,,,,,,,,,,,,,,,,,,,,,,,,,,,,,,,,,,,,,,,,,,,,,,,,,,,,,,,,,,,,,,,,,,,,,,,,,,,,,,,,,,
,,,,,,5df924a11e2e586a0fa62643,62bbfb700876361cf282601c,2022-06-29_09h13.05.599,Colour_Asymmetry_Pilot,2022.1.3,Win32,75.00187505,62bbe60bf3d75ef465d3e404,0,102,102,38,1,fourtwo,,,,,,,,,,,,,,,,,,,,,,,,,,,,,,,,,,,,,,,,,,,,,,,,,,,,,,,,,,,,,,,,,,,,,,,,,,,,,,,,,,,,,,,,,,,,,,,,,,,,,,,,,,,,,,,,,,,,,,,,,,,,,,,,,,,,,,,,,,,,,,,,,,,,,,,,
,,,,,,5df924a11e2e586a0fa62643,62bbfb700876361cf282601c,2022-06-29_09h13.05.599,Colour_Asymmetry_Pilot,2022.1.3,Win32,75.00187505,62bbe60bf3d75ef465d3e404,0,103,103,145,1,onethree,,,,,,,,,,,,,,,,,,,,,,,,,,,,,,,,,,,,,,,,,,,,,,,,,,,,,,,,,,,,,,,,,,,,,,,,,,,,,,,,,,,,,,,,,,,,,,,,,,,,,,,,,,,,,,,,,,,,,,,,,,,,,,,,,,,,,,,,,,,,,,,,,,,,,,,,
,,,,,,5df924a11e2e586a0fa62643,62bbfb700876361cf282601c,2022-06-29_09h13.05.599,Colour_Asymmetry_Pilot,2022.1.3,Win32,75.00187505,62bbe60bf3d75ef465d3e404,0,104,104,113,1,onethree,,,,,,,,,,,,,,,,,,,,,,,,,,,,,,,,,,,,,,,,,,,,,,,,,,,,,,,,,,,,,,,,,,,,,,,,,,,,,,,,,,,,,,,,,,,,,,,,,,,,,,,,,,,,,,,,,,,,,,,,,,,,,,,,,,,,,,,,,,,,,,,,,,,,,,,,
,,,,,,5df924a11e2e586a0fa62643,62bbfb700876361cf282601c,2022-06-29_09h13.05.599,Colour_Asymmetry_Pilot,2022.1.3,Win32,75.00187505,62bbe60bf3d75ef465d3e404,0,105,105,149,1,threefour,,,,,,,,,,,,,,,,,,,,,,,,,,,,,,,,,,,,,,,,,,,,,,,,,,,,,,,,,,,,,,,,,,,,,,,,,,,,,,,,,,,,,,,,,,,,,,,,,,,,,,,,,,,,,,,,,,,,,,,,,,,,,,,,,,,,,,,,,,,,,,,,,,,,,,,,
,,,,,,5df924a11e2e586a0fa62643,62bbfb700876361cf282601c,2022-06-29_09h13.05.599,Colour_Asymmetry_Pilot,2022.1.3,Win32,75.00187505,62bbe60bf3d75ef465d3e404,0,106,106,131,1,twofour,,,,,,,,,,,,,,,,,,,,,,,,,,,,,,,,,,,,,,,,,,,,,,,,,,,,,,,,,,,,,,,,,,,,,,,,,,,,,,,,,,,,,,,,,,,,,,,,,,,,,,,,,,,,,,,,,,,,,,,,,,,,,,,,,,,,,,,,,,,,,,,,,,,,,,,,
,,,,,,5df924a11e2e586a0fa62643,62bbfb700876361cf282601c,2022-06-29_09h13.05.599,Colour_Asymmetry_Pilot,2022.1.3,Win32,75.00187505,62bbe60bf3d75ef465d3e404,0,107,107,9,1,onethree,,,,,,,,,,,,,,,,,,,,,,,,,,,,,,,,,,,,,,,,,,,,,,,,,,,,,,,,,,,,,,,,,,,,,,,,,,,,,,,,,,,,,,,,,,,,,,,,,,,,,,,,,,,,,,,,,,,,,,,,,,,,,,,,,,,,,,,,,,,,,,,,,,,,,,,,
,,,,,,5df924a11e2e586a0fa62643,62bbfb700876361cf282601c,2022-06-29_09h13.05.599,Colour_Asymmetry_Pilot,2022.1.3,Win32,75.00187505,62bbe60bf3d75ef465d3e404,0,108,108,151,1,fourthree,,,,,,,,,,,,,,,,,,,,,,,,,,,,,,,,,,,,,,,,,,,,,,,,,,,,,,,,,,,,,,,,,,,,,,,,,,,,,,,,,,,,,,,,,,,,,,,,,,,,,,,,,,,,,,,,,,,,,,,,,,,,,,,,,,,,,,,,,,,,,,,,,,,,,,,,
,,,,,,5df924a11e2e586a0fa62643,62bbfb700876361cf282601c,2022-06-29_09h13.05.599,Colour_Asymmetry_Pilot,2022.1.3,Win32,75.00187505,62bbe60bf3d75ef465d3e404,0,109,109,88,1,onetwo,,,,,,,,,,,,,,,,,,,,,,,,,,,,,,,,,,,,,,,,,,,,,,,,,,,,,,,,,,,,,,,,,,,,,,,,,,,,,,,,,,,,,,,,,,,,,,,,,,,,,,,,,,,,,,,,,,,,,,,,,,,,,,,,,,,,,,,,,,,,,,,,,,,,,,,,
,,,,,,5df924a11e2e586a0fa62643,62bbfb700876361cf282601c,2022-06-29_09h13.05.599,Colour_Asymmetry_Pilot,2022.1.3,Win32,75.00187505,62bbe60bf3d75ef465d3e404,0,110,110,14,1,fourtwo,,,,,,,,,,,,,,,,,,,,,,,,,,,,,,,,,,,,,,,,,,,,,,,,,,,,,,,,,,,,,,,,,,,,,,,,,,,,,,,,,,,,,,,,,,,,,,,,,,,,,,,,,,,,,,,,,,,,,,,,,,,,,,,,,,,,,,,,,,,,,,,,,,,,,,,,
,,,,,,5df924a11e2e586a0fa62643,62bbfb700876361cf282601c,2022-06-29_09h13.05.599,Colour_Asymmetry_Pilot,2022.1.3,Win32,75.00187505,62bbe60bf3d75ef465d3e404,0,111,111,74,1,twoone,,,,,,,,,,,,,,,,,,,,,,,,,,,,,,,,,,,,,,,,,,,,,,,,,,,,,,,,,,,,,,,,,,,,,,,,,,,,,,,,,,,,,,,,,,,,,,,,,,,,,,,,,,,,,,,,,,,,,,,,,,,,,,,,,,,,,,,,,,,,,,,,,,,,,,,,
,,,,,,5df924a11e2e586a0fa62643,62bbfb700876361cf282601c,2022-06-29_09h13.05.599,Colour_Asymmetry_Pilot,2022.1.3,Win32,75.00187505,62bbe60bf3d75ef465d3e404,0,112,112,141,1,threefour,,,,,,,,,,,,,,,,,,,,,,,,,,,,,,,,,,,,,,,,,,,,,,,,,,,,,,,,,,,,,,,,,,,,,,,,,,,,,,,,,,,,,,,,,,,,,,,,,,,,,,,,,,,,,,,,,,,,,,,,,,,,,,,,,,,,,,,,,,,,,,,,,,,,,,,,
,,,,,,5df924a11e2e586a0fa62643,62bbfb700876361cf282601c,2022-06-29_09h13.05.599,Colour_Asymmetry_Pilot,2022.1.3,Win32,75.00187505,62bbe60bf3d75ef465d3e404,0,113,113,115,1,twofour,,,,,,,,,,,,,,,,,,,,,,,,,,,,,,,,,,,,,,,,,,,,,,,,,,,,,,,,,,,,,,,,,,,,,,,,,,,,,,,,,,,,,,,,,,,,,,,,,,,,,,,,,,,,,,,,,,,,,,,,,,,,,,,,,,,,,,,,,,,,,,,,,,,,,,,,
,,,,,,5df924a11e2e586a0fa62643,62bbfb700876361cf282601c,2022-06-29_09h13.05.599,Colour_Asymmetry_Pilot,2022.1.3,Win32,75.00187505,62bbe60bf3d75ef465d3e404,0,114,114,122,1,twoone,,,,,,,,,,,,,,,,,,,,,,,,,,,,,,,,,,,,,,,,,,,,,,,,,,,,,,,,,,,,,,,,,,,,,,,,,,,,,,,,,,,,,,,,,,,,,,,,,,,,,,,,,,,,,,,,,,,,,,,,,,,,,,,,,,,,,,,,,,,,,,,,,,,,,,,,
,,,,,,5df924a11e2e586a0fa62643,62bbfb700876361cf282601c,2022-06-29_09h13.05.599,Colour_Asymmetry_Pilot,2022.1.3,Win32,75.00187505,62bbe60bf3d75ef465d3e404,0,115,115,85,1,threefour,,,,,,,,,,,,,,,,,,,,,,,,,,,,,,,,,,,,,,,,,,,,,,,,,,,,,,,,,,,,,,,,,,,,,,,,,,,,,,,,,,,,,,,,,,,,,,,,,,,,,,,,,,,,,,,,,,,,,,,,,,,,,,,,,,,,,,,,,,,,,,,,,,,,,,,,
,,,,,,5df924a11e2e586a0fa62643,62bbfb700876361cf282601c,2022-06-29_09h13.05.599,Colour_Asymmetry_Pilot,2022.1.3,Win32,75.00187505,62bbe60bf3d75ef465d3e404,0,116,116,1,1,onethree,,,,,,,,,,,,,,,,,,,,,,,,,,,,,,,,,,,,,,,,,,,,,,,,,,,,,,,,,,,,,,,,,,,,,,,,,,,,,,,,,,,,,,,,,,,,,,,,,,,,,,,,,,,,,,,,,,,,,,,,,,,,,,,,,,,,,,,,,,,,,,,,,,,,,,,,
,,,,,,5df924a11e2e586a0fa62643,62bbfb700876361cf282601c,2022-06-29_09h13.05.599,Colour_Asymmetry_Pilot,2022.1.3,Win32,75.00187505,62bbe60bf3d75ef465d3e404,0,117,117,76,1,threeone,,,,,,,,,,,,,,,,,,,,,,,,,,,,,,,,,,,,,,,,,,,,,,,,,,,,,,,,,,,,,,,,,,,,,,,,,,,,,,,,,,,,,,,,,,,,,,,,,,,,,,,,,,,,,,,,,,,,,,,,,,,,,,,,,,,,,,,,,,,,,,,,,,,,,,,,
,,,,,,5df924a11e2e586a0fa62643,62bbfb700876361cf282601c,2022-06-29_09h13.05.599,Colour_Asymmetry_Pilot,2022.1.3,Win32,75.00187505,62bbe60bf3d75ef465d3e404,0,118,118,123,1,twofour,,,,,,,,,,,,,,,,,,,,,,,,,,,,,,,,,,,,,,,,,,,,,,,,,,,,,,,,,,,,,,,,,,,,,,,,,,,,,,,,,,,,,,,,,,,,,,,,,,,,,,,,,,,,,,,,,,,,,,,,,,,,,,,,,,,,,,,,,,,,,,,,,,,,,,,,
,,,,,,5df924a11e2e586a0fa62643,62bbfb700876361cf282601c,2022-06-29_09h13.05.599,Colour_Asymmetry_Pilot,2022.1.3,Win32,75.00187505,62bbe60bf3d75ef465d3e404,0,119,119,80,1,onetwo,,,,,,,,,,,,,,,,,,,,,,,,,,,,,,,,,,,,,,,,,,,,,,,,,,,,,,,,,,,,,,,,,,,,,,,,,,,,,,,,,,,,,,,,,,,,,,,,,,,,,,,,,,,,,,,,,,,,,,,,,,,,,,,,,,,,,,,,,,,,,,,,,,,,,,,,
,,,,,,5df924a11e2e586a0fa62643,62bbfb700876361cf282601c,2022-06-29_09h13.05.599,Colour_Asymmetry_Pilot,2022.1.3,Win32,75.00187505,62bbe60bf3d75ef465d3e404,0,120,120,124,1,threeone,,,,,,,,,,,,,,,,,,,,,,,,,,,,,,,,,,,,,,,,,,,,,,,,,,,,,,,,,,,,,,,,,,,,,,,,,,,,,,,,,,,,,,,,,,,,,,,,,,,,,,,,,,,,,,,,,,,,,,,,,,,,,,,,,,,,,,,,,,,,,,,,,,,,,,,,
,,,,,,5df924a11e2e586a0fa62643,62bbfb700876361cf282601c,2022-06-29_09h13.05.599,Colour_Asymmetry_Pilot,2022.1.3,Win32,75.00187505,62bbe60bf3d75ef465d3e404,0,121,121,156,1,threeone,,,,,,,,,,,,,,,,,,,,,,,,,,,,,,,,,,,,,,,,,,,,,,,,,,,,,,,,,,,,,,,,,,,,,,,,,,,,,,,,,,,,,,,,,,,,,,,,,,,,,,,,,,,,,,,,,,,,,,,,,,,,,,,,,,,,,,,,,,,,,,,,,,,,,,,,
,,,,,,5df924a11e2e586a0fa62643,62bbfb700876361cf282601c,2022-06-29_09h13.05.599,Colour_Asymmetry_Pilot,2022.1.3,Win32,75.00187505,62bbe60bf3d75ef465d3e404,0,122,122,89,1,onethree,,,,,,,,,,,,,,,,,,,,,,,,,,,,,,,,,,,,,,,,,,,,,,,,,,,,,,,,,,,,,,,,,,,,,,,,,,,,,,,,,,,,,,,,,,,,,,,,,,,,,,,,,,,,,,,,,,,,,,,,,,,,,,,,,,,,,,,,,,,,,,,,,,,,,,,,
,,,,,,5df924a11e2e586a0fa62643,62bbfb700876361cf282601c,2022-06-29_09h13.05.599,Colour_Asymmetry_Pilot,2022.1.3,Win32,75.00187505,62bbe60bf3d75ef465d3e404,0,123,123,81,1,onethree,,,,,,,,,,,,,,,,,,,,,,,,,,,,,,,,,,,,,,,,,,,,,,,,,,,,,,,,,,,,,,,,,,,,,,,,,,,,,,,,,,,,,,,,,,,,,,,,,,,,,,,,,,,,,,,,,,,,,,,,,,,,,,,,,,,,,,,,,,,,,,,,,,,,,,,,
,,,,,,5df924a11e2e586a0fa62643,62bbfb700876361cf282601c,2022-06-29_09h13.05.599,Colour_Asymmetry_Pilot,2022.1.3,Win32,75.00187505,62bbe60bf3d75ef465d3e404,0,124,124,83,1,twofour,,,,,,,,,,,,,,,,,,,,,,,,,,,,,,,,,,,,,,,,,,,,,,,,,,,,,,,,,,,,,,,,,,,,,,,,,,,,,,,,,,,,,,,,,,,,,,,,,,,,,,,,,,,,,,,,,,,,,,,,,,,,,,,,,,,,,,,,,,,,,,,,,,,,,,,,
,,,,,,5df924a11e2e586a0fa62643,62bbfb700876361cf282601c,2022-06-29_09h13.05.599,Colour_Asymmetry_Pilot,2022.1.3,Win32,75.00187505,62bbe60bf3d75ef465d3e404,0,125,125,13,1,threefour,,,,,,,,,,,,,,,,,,,,,,,,,,,,,,,,,,,,,,,,,,,,,,,,,,,,,,,,,,,,,,,,,,,,,,,,,,,,,,,,,,,,,,,,,,,,,,,,,,,,,,,,,,,,,,,,,,,,,,,,,,,,,,,,,,,,,,,,,,,,,,,,,,,,,,,,
,,,,,,5df924a11e2e586a0fa62643,62bbfb700876361cf282601c,2022-06-29_09h13.05.599,Colour_Asymmetry_Pilot,2022.1.3,Win32,75.00187505,62bbe60bf3d75ef465d3e404,0,126,126,28,1,threeone,,,,,,,,,,,,,,,,,,,,,,,,,,,,,,,,,,,,,,,,,,,,,,,,,,,,,,,,,,,,,,,,,,,,,,,,,,,,,,,,,,,,,,,,,,,,,,,,,,,,,,,,,,,,,,,,,,,,,,,,,,,,,,,,,,,,,,,,,,,,,,,,,,,,,,,,
,,,,,,5df924a11e2e586a0fa62643,62bbfb700876361cf282601c,2022-06-29_09h13.05.599,Colour_Asymmetry_Pilot,2022.1.3,Win32,75.00187505,62bbe60bf3d75ef465d3e404,0,127,127,27,1,twofour,,,,,,,,,,,,,,,,,,,,,,,,,,,,,,,,,,,,,,,,,,,,,,,,,,,,,,,,,,,,,,,,,,,,,,,,,,,,,,,,,,,,,,,,,,,,,,,,,,,,,,,,,,,,,,,,,,,,,,,,,,,,,,,,,,,,,,,,,,,,,,,,,,,,,,,,
,,,,,,5df924a11e2e586a0fa62643,62bbfb700876361cf282601c,2022-06-29_09h13.05.599,Colour_Asymmetry_Pilot,2022.1.3,Win32,75.00187505,62bbe60bf3d75ef465d3e404,0,128,128,40,1,onetwo,,,,,,,,,,,,,,,,,,,,,,,,,,,,,,,,,,,,,,,,,,,,,,,,,,,,,,,,,,,,,,,,,,,,,,,,,,,,,,,,,,,,,,,,,,,,,,,,,,,,,,,,,,,,,,,,,,,,,,,,,,,,,,,,,,,,,,,,,,,,,,,,,,,,,,,,
,,,,,,5df924a11e2e586a0fa62643,62bbfb700876361cf282601c,2022-06-29_09h13.05.599,Colour_Asymmetry_Pilot,2022.1.3,Win32,75.00187505,62bbe60bf3d75ef465d3e404,0,129,129,126,1,fourtwo,,,,,,,,,,,,,,,,,,,,,,,,,,,,,,,,,,,,,,,,,,,,,,,,,,,,,,,,,,,,,,,,,,,,,,,,,,,,,,,,,,,,,,,,,,,,,,,,,,,,,,,,,,,,,,,,,,,,,,,,,,,,,,,,,,,,,,,,,,,,,,,,,,,,,,,,
,,,,,,5df924a11e2e586a0fa62643,62bbfb700876361cf282601c,2022-06-29_09h13.05.599,Colour_Asymmetry_Pilot,2022.1.3,Win32,75.00187505,62bbe60bf3d75ef465d3e404,0,130,130,117,1,threefour,,,,,,,,,,,,,,,,,,,,,,,,,,,,,,,,,,,,,,,,,,,,,,,,,,,,,,,,,,,,,,,,,,,,,,,,,,,,,,,,,,,,,,,,,,,,,,,,,,,,,,,,,,,,,,,,,,,,,,,,,,,,,,,,,,,,,,,,,,,,,,,,,,,,,,,,
,,,,,,5df924a11e2e586a0fa62643,62bbfb700876361cf282601c,2022-06-29_09h13.05.599,Colour_Asymmetry_Pilot,2022.1.3,Win32,75.00187505,62bbe60bf3d75ef465d3e404,0,131,131,95,1,fourthree,,,,,,,,,,,,,,,,,,,,,,,,,,,,,,,,,,,,,,,,,,,,,,,,,,,,,,,,,,,,,,,,,,,,,,,,,,,,,,,,,,,,,,,,,,,,,,,,,,,,,,,,,,,,,,,,,,,,,,,,,,,,,,,,,,,,,,,,,,,,,,,,,,,,,,,,
,,,,,,5df924a11e2e586a0fa62643,62bbfb700876361cf282601c,2022-06-29_09h13.05.599,Colour_Asymmetry_Pilot,2022.1.3,Win32,75.00187505,62bbe60bf3d75ef465d3e404,0,132,132,103,1,fourthree,,,,,,,,,,,,,,,,,,,,,,,,,,,,,,,,,,,,,,,,,,,,,,,,,,,,,,,,,,,,,,,,,,,,,,,,,,,,,,,,,,,,,,,,,,,,,,,,,,,,,,,,,,,,,,,,,,,,,,,,,,,,,,,,,,,,,,,,,,,,,,,,,,,,,,,,
,,,,,,5df924a11e2e586a0fa62643,62bbfb700876361cf282601c,2022-06-29_09h13.05.599,Colour_Asymmetry_Pilot,2022.1.3,Win32,75.00187505,62bbe60bf3d75ef465d3e404,0,133,133,16,1,onetwo,,,,,,,,,,,,,,,,,,,,,,,,,,,,,,,,,,,,,,,,,,,,,,,,,,,,,,,,,,,,,,,,,,,,,,,,,,,,,,,,,,,,,,,,,,,,,,,,,,,,,,,,,,,,,,,,,,,,,,,,,,,,,,,,,,,,,,,,,,,,,,,,,,,,,,,,
,,,,,,5df924a11e2e586a0fa62643,62bbfb700876361cf282601c,2022-06-29_09h13.05.599,Colour_Asymmetry_Pilot,2022.1.3,Win32,75.00187505,62bbe60bf3d75ef465d3e404,0,134,134,48,1,onetwo,,,,,,,,,,,,,,,,,,,,,,,,,,,,,,,,,,,,,,,,,,,,,,,,,,,,,,,,,,,,,,,,,,,,,,,,,,,,,,,,,,,,,,,,,,,,,,,,,,,,,,,,,,,,,,,,,,,,,,,,,,,,,,,,,,,,,,,,,,,,,,,,,,,,,,,,
,,,,,,5df924a11e2e586a0fa62643,62bbfb700876361cf282601c,2022-06-29_09h13.05.599,Colour_Asymmetry_Pilot,2022.1.3,Win32,75.00187505,62bbe60bf3d75ef465d3e404,0,135,135,30,1,fourtwo,,,,,,,,,,,,,,,,,,,,,,,,,,,,,,,,,,,,,,,,,,,,,,,,,,,,,,,,,,,,,,,,,,,,,,,,,,,,,,,,,,,,,,,,,,,,,,,,,,,,,,,,,,,,,,,,,,,,,,,,,,,,,,,,,,,,,,,,,,,,,,,,,,,,,,,,
,,,,,,5df924a11e2e586a0fa62643,62bbfb700876361cf282601c,2022-06-29_09h13.05.599,Colour_Asymmetry_Pilot,2022.1.3,Win32,75.00187505,62bbe60bf3d75ef465d3e404,0,136,136,18,1,twoone,,,,,,,,,,,,,,,,,,,,,,,,,,,,,,,,,,,,,,,,,,,,,,,,,,,,,,,,,,,,,,,,,,,,,,,,,,,,,,,,,,,,,,,,,,,,,,,,,,,,,,,,,,,,,,,,,,,,,,,,,,,,,,,,,,,,,,,,,,,,,,,,,,,,,,,,
,,,,,,5df924a11e2e586a0fa62643,62bbfb700876361cf282601c,2022-06-29_09h13.05.599,Colour_Asymmetry_Pilot,2022.1.3,Win32,75.00187505,62bbe60bf3d75ef465d3e404,0,137,137,109,1,threefour,,,,,,,,,,,,,,,,,,,,,,,,,,,,,,,,,,,,,,,,,,,,,,,,,,,,,,,,,,,,,,,,,,,,,,,,,,,,,,,,,,,,,,,,,,,,,,,,,,,,,,,,,,,,,,,,,,,,,,,,,,,,,,,,,,,,,,,,,,,,,,,,,,,,,,,,
,,,,,,5df924a11e2e586a0fa62643,62bbfb700876361cf282601c,2022-06-29_09h13.05.599,Colour_Asymmetry_Pilot,2022.1.3,Win32,75.00187505,62bbe60bf3d75ef465d3e404,0,138,138,134,1,fourtwo,,,,,,,,,,,,,,,,,,,,,,,,,,,,,,,,,,,,,,,,,,,,,,,,,,,,,,,,,,,,,,,,,,,,,,,,,,,,,,,,,,,,,,,,,,,,,,,,,,,,,,,,,,,,,,,,,,,,,,,,,,,,,,,,,,,,,,,,,,,,,,,,,,,,,,,,
,,,,,,5df924a11e2e586a0fa62643,62bbfb700876361cf282601c,2022-06-29_09h13.05.599,Colour_Asymmetry_Pilot,2022.1.3,Win32,75.00187505,62bbe60bf3d75ef465d3e404,0,139,139,154,1,twoone,,,,,,,,,,,,,,,,,,,,,,,,,,,,,,,,,,,,,,,,,,,,,,,,,,,,,,,,,,,,,,,,,,,,,,,,,,,,,,,,,,,,,,,,,,,,,,,,,,,,,,,,,,,,,,,,,,,,,,,,,,,,,,,,,,,,,,,,,,,,,,,,,,,,,,,,
,,,,,,5df924a11e2e586a0fa62643,62bbfb700876361cf282601c,2022-06-29_09h13.05.599,Colour_Asymmetry_Pilot,2022.1.3,Win32,75.00187505,62bbe60bf3d75ef465d3e404,0,140,140,47,1,fourthree,,,,,,,,,,,,,,,,,,,,,,,,,,,,,,,,,,,,,,,,,,,,,,,,,,,,,,,,,,,,,,,,,,,,,,,,,,,,,,,,,,,,,,,,,,,,,,,,,,,,,,,,,,,,,,,,,,,,,,,,,,,,,,,,,,,,,,,,,,,,,,,,,,,,,,,,
,,,,,,5df924a11e2e586a0fa62643,62bbfb700876361cf282601c,2022-06-29_09h13.05.599,Colour_Asymmetry_Pilot,2022.1.3,Win32,75.00187505,62bbe60bf3d75ef465d3e404,0,141,141,61,1,threefour,,,,,,,,,,,,,,,,,,,,,,,,,,,,,,,,,,,,,,,,,,,,,,,,,,,,,,,,,,,,,,,,,,,,,,,,,,,,,,,,,,,,,,,,,,,,,,,,,,,,,,,,,,,,,,,,,,,,,,,,,,,,,,,,,,,,,,,,,,,,,,,,,,,,,,,,
,,,,,,5df924a11e2e586a0fa62643,62bbfb700876361cf282601c,2022-06-29_09h13.05.599,Colour_Asymmetry_Pilot,2022.1.3,Win32,75.00187505,62bbe60bf3d75ef465d3e404,0,142,142,43,1,twofour,,,,,,,,,,,,,,,,,,,,,,,,,,,,,,,,,,,,,,,,,,,,,,,,,,,,,,,,,,,,,,,,,,,,,,,,,,,,,,,,,,,,,,,,,,,,,,,,,,,,,,,,,,,,,,,,,,,,,,,,,,,,,,,,,,,,,,,,,,,,,,,,,,,,,,,,
,,,,,,5df924a11e2e586a0fa62643,62bbfb700876361cf282601c,2022-06-29_09h13.05.599,Colour_Asymmetry_Pilot,2022.1.3,Win32,75.00187505,62bbe60bf3d75ef465d3e404,0,143,143,143,1,fourthree,,,,,,,,,,,,,,,,,,,,,,,,,,,,,,,,,,,,,,,,,,,,,,,,,,,,,,,,,,,,,,,,,,,,,,,,,,,,,,,,,,,,,,,,,,,,,,,,,,,,,,,,,,,,,,,,,,,,,,,,,,,,,,,,,,,,,,,,,,,,,,,,,,,,,,,,
,,,,,,5df924a11e2e586a0fa62643,62bbfb700876361cf282601c,2022-06-29_09h13.05.599,Colour_Asymmetry_Pilot,2022.1.3,Win32,75.00187505,62bbe60bf3d75ef465d3e404,0,144,144,87,1,fourthree,,,,,,,,,,,,,,,,,,,,,,,,,,,,,,,,,,,,,,,,,,,,,,,,,,,,,,,,,,,,,,,,,,,,,,,,,,,,,,,,,,,,,,,,,,,,,,,,,,,,,,,,,,,,,,,,,,,,,,,,,,,,,,,,,,,,,,,,,,,,,,,,,,,,,,,,
,,,,,,5df924a11e2e586a0fa62643,62bbfb700876361cf282601c,2022-06-29_09h13.05.599,Colour_Asymmetry_Pilot,2022.1.3,Win32,75.00187505,62bbe60bf3d75ef465d3e404,0,145,145,53,1,threefour,,,,,,,,,,,,,,,,,,,,,,,,,,,,,,,,,,,,,,,,,,,,,,,,,,,,,,,,,,,,,,,,,,,,,,,,,,,,,,,,,,,,,,,,,,,,,,,,,,,,,,,,,,,,,,,,,,,,,,,,,,,,,,,,,,,,,,,,,,,,,,,,,,,,,,,,
,,,,,,5df924a11e2e586a0fa62643,62bbfb700876361cf282601c,2022-06-29_09h13.05.599,Colour_Asymmetry_Pilot,2022.1.3,Win32,75.00187505,62bbe60bf3d75ef465d3e404,0,146,146,51,1,twofour,,,,,,,,,,,,,,,,,,,,,,,,,,,,,,,,,,,,,,,,,,,,,,,,,,,,,,,,,,,,,,,,,,,,,,,,,,,,,,,,,,,,,,,,,,,,,,,,,,,,,,,,,,,,,,,,,,,,,,,,,,,,,,,,,,,,,,,,,,,,,,,,,,,,,,,,
,,,,,,5df924a11e2e586a0fa62643,62bbfb700876361cf282601c,2022-06-29_09h13.05.599,Colour_Asymmetry_Pilot,2022.1.3,Win32,75.00187505,62bbe60bf3d75ef465d3e404,0,147,147,44,1,threeone,,,,,,,,,,,,,,,,,,,,,,,,,,,,,,,,,,,,,,,,,,,,,,,,,,,,,,,,,,,,,,,,,,,,,,,,,,,,,,,,,,,,,,,,,,,,,,,,,,,,,,,,,,,,,,,,,,,,,,,,,,,,,,,,,,,,,,,,,,,,,,,,,,,,,,,,
,,,,,,5df924a11e2e586a0fa62643,62bbfb700876361cf282601c,2022-06-29_09h13.05.599,Colour_Asymmetry_Pilot,2022.1.3,Win32,75.00187505,62bbe60bf3d75ef465d3e404,0,148,148,21,1,threefour,,,,,,,,,,,,,,,,,,,,,,,,,,,,,,,,,,,,,,,,,,,,,,,,,,,,,,,,,,,,,,,,,,,,,,,,,,,,,,,,,,,,,,,,,,,,,,,,,,,,,,,,,,,,,,,,,,,,,,,,,,,,,,,,,,,,,,,,,,,,,,,,,,,,,,,,
,,,,,,5df924a11e2e586a0fa62643,62bbfb700876361cf282601c,2022-06-29_09h13.05.599,Colour_Asymmetry_Pilot,2022.1.3,Win32,75.00187505,62bbe60bf3d75ef465d3e404,0,149,149,52,1,threeone,,,,,,,,,,,,,,,,,,,,,,,,,,,,,,,,,,,,,,,,,,,,,,,,,,,,,,,,,,,,,,,,,,,,,,,,,,,,,,,,,,,,,,,,,,,,,,,,,,,,,,,,,,,,,,,,,,,,,,,,,,,,,,,,,,,,,,,,,,,,,,,,,,,,,,,,
,,,,,,5df924a11e2e586a0fa62643,62bbfb700876361cf282601c,2022-06-29_09h13.05.599,Colour_Asymmetry_Pilot,2022.1.3,Win32,75.00187505,62bbe60bf3d75ef465d3e404,0,150,150,0,1,onetwo,,,,,,,,,,,,,,,,,,,,,,,,,,,,,,,,,,,,,,,,,,,,,,,,,,,,,,,,,,,,,,,,,,,,,,,,,,,,,,,,,,,,,,,,,,,,,,,,,,,,,,,,,,,,,,,,,,,,,,,,,,,,,,,,,,,,,,,,,,,,,,,,,,,,,,,,
,,,,,,5df924a11e2e586a0fa62643,62bbfb700876361cf282601c,2022-06-29_09h13.05.599,Colour_Asymmetry_Pilot,2022.1.3,Win32,75.00187505,62bbe60bf3d75ef465d3e404,0,151,151,10,1,twoone,,,,,,,,,,,,,,,,,,,,,,,,,,,,,,,,,,,,,,,,,,,,,,,,,,,,,,,,,,,,,,,,,,,,,,,,,,,,,,,,,,,,,,,,,,,,,,,,,,,,,,,,,,,,,,,,,,,,,,,,,,,,,,,,,,,,,,,,,,,,,,,,,,,,,,,,
,,,,,,5df924a11e2e586a0fa62643,62bbfb700876361cf282601c,2022-06-29_09h13.05.599,Colour_Asymmetry_Pilot,2022.1.3,Win32,75.00187505,62bbe60bf3d75ef465d3e404,0,152,152,129,1,onethree,,,,,,,,,,,,,,,,,,,,,,,,,,,,,,,,,,,,,,,,,,,,,,,,,,,,,,,,,,,,,,,,,,,,,,,,,,,,,,,,,,,,,,,,,,,,,,,,,,,,,,,,,,,,,,,,,,,,,,,,,,,,,,,,,,,,,,,,,,,,,,,,,,,,,,,,
,,,,,,5df924a11e2e586a0fa62643,62bbfb700876361cf282601c,2022-06-29_09h13.05.599,Colour_Asymmetry_Pilot,2022.1.3,Win32,75.00187505,62bbe60bf3d75ef465d3e404,0,153,153,4,1,threeone,,,,,,,,,,,,,,,,,,,,,,,,,,,,,,,,,,,,,,,,,,,,,,,,,,,,,,,,,,,,,,,,,,,,,,,,,,,,,,,,,,,,,,,,,,,,,,,,,,,,,,,,,,,,,,,,,,,,,,,,,,,,,,,,,,,,,,,,,,,,,,,,,,,,,,,,
,,,,,,5df924a11e2e586a0fa62643,62bbfb700876361cf282601c,2022-06-29_09h13.05.599,Colour_Asymmetry_Pilot,2022.1.3,Win32,75.00187505,62bbe60bf3d75ef465d3e404,0,154,154,49,1,onethree,,,,,,,,,,,,,,,,,,,,,,,,,,,,,,,,,,,,,,,,,,,,,,,,,,,,,,,,,,,,,,,,,,,,,,,,,,,,,,,,,,,,,,,,,,,,,,,,,,,,,,,,,,,,,,,,,,,,,,,,,,,,,,,,,,,,,,,,,,,,,,,,,,,,,,,,
,,,,,,5df924a11e2e586a0fa62643,62bbfb700876361cf282601c,2022-06-29_09h13.05.599,Colour_Asymmetry_Pilot,2022.1.3,Win32,75.00187505,62bbe60bf3d75ef465d3e404,0,155,155,66,1,twoone,,,,,,,,,,,,,,,,,,,,,,,,,,,,,,,,,,,,,,,,,,,,,,,,,,,,,,,,,,,,,,,,,,,,,,,,,,,,,,,,,,,,,,,,,,,,,,,,,,,,,,,,,,,,,,,,,,,,,,,,,,,,,,,,,,,,,,,,,,,,,,,,,,,,,,,,
,,,,,,5df924a11e2e586a0fa62643,62bbfb700876361cf282601c,2022-06-29_09h13.05.599,Colour_Asymmetry_Pilot,2022.1.3,Win32,75.00187505,62bbe60bf3d75ef465d3e404,0,156,156,55,1,fourthree,,,,,,,,,,,,,,,,,,,,,,,,,,,,,,,,,,,,,,,,,,,,,,,,,,,,,,,,,,,,,,,,,,,,,,,,,,,,,,,,,,,,,,,,,,,,,,,,,,,,,,,,,,,,,,,,,,,,,,,,,,,,,,,,,,,,,,,,,,,,,,,,,,,,,,,,
,,,,,,5df924a11e2e586a0fa62643,62bbfb700876361cf282601c,2022-06-29_09h13.05.599,Colour_Asymmetry_Pilot,2022.1.3,Win32,75.00187505,62bbe60bf3d75ef465d3e404,0,157,157,6,1,fourtwo,,,,,,,,,,,,,,,,,,,,,,,,,,,,,,,,,,,,,,,,,,,,,,,,,,,,,,,,,,,,,,,,,,,,,,,,,,,,,,,,,,,,,,,,,,,,,,,,,,,,,,,,,,,,,,,,,,,,,,,,,,,,,,,,,,,,,,,,,,,,,,,,,,,,,,,,
,,,,,,5df924a11e2e586a0fa62643,62bbfb700876361cf282601c,2022-06-29_09h13.05.599,Colour_Asymmetry_Pilot,2022.1.3,Win32,75.00187505,62bbe60bf3d75ef465d3e404,0,158,158,100,1,threeone,,,,,,,,,,,,,,,,,,,,,,,,,,,,,,,,,,,,,,,,,,,,,,,,,,,,,,,,,,,,,,,,,,,,,,,,,,,,,,,,,,,,,,,,,,,,,,,,,,,,,,,,,,,,,,,,,,,,,,,,,,,,,,,,,,,,,,,,,,,,,,,,,,,,,,,,
,,,,,,5df924a11e2e586a0fa62643,62bbfb700876361cf282601c,2022-06-29_09h13.05.599,Colour_Asymmetry_Pilot,2022.1.3,Win32,75.00187505,62bbe60bf3d75ef465d3e404,0,159,159,78,1,fourtwo,,,,,,,,,,,,,,,,,,,,,,,,,,,,,,,,,,,,,,,,,,,,,,,,,,,,,,,,,,,,,,,,,,,,,,,,,,,,,,,,,,,,,,,,,,,,,,,,,,,,,,,,,,,,,,,,,,,,,,,,,,,,,,,,,,,,,,,,,,,,,,,,,,,,,,,,
,,,,,,5df924a11e2e586a0fa62643,62bbfb700876361cf282601c,2022-06-29_09h13.05.599,Colour_Asymmetry_Pilot,2022.1.3,Win32,75.00187505,62bbe60bf3d75ef465d3e404,0,160,160,15,1,fourthree,,,,,,,,,,,,,,,,,,,,,,,,,,,,,,,,,,,,,,,,,,,,,,,,,,,,,,,,,,,,,,,,,,,,,,,,,,,,,,,,,,,,,,,,,,,,,,,,,,,,,,,,,,,,,,,,,,,,,,,,,,,,,,,,,,,,,,,,,,,,,,,,,,,,,,,,
,,,,,,5df924a11e2e586a0fa62643,62bbfb700876361cf282601c,2022-06-29_09h13.05.599,Colour_Asymmetry_Pilot,2022.1.3,Win32,75.00187505,62bbe60bf3d75ef465d3e404,0,161,161,96,1,onetwo,,,,,,,,,,,,,,,,,,,,,,,,,,,,,,,,,,,,,,,,,,,,,,,,,,,,,,,,,,,,,,,,,,,,,,,,,,,,,,,,,,,,,,,,,,,,,,,,,,,,,,,,,,,,,,,,,,,,,,,,,,,,,,,,,,,,,,,,,,,,,,,,,,,,,,,,
,,,,,,5df924a11e2e586a0fa62643,62bbfb700876361cf282601c,2022-06-29_09h13.05.599,Colour_Asymmetry_Pilot,2022.1.3,Win32,75.00187505,62bbe60bf3d75ef465d3e404,,,,,,,space,9.6121,space,41.7531,space,38.5694,space,12.4712,space,1.6644,space,4.372,"[0.40379999999999994,0.09000000000000008,0.44300000000000006]",threefour,"[-0.0040000000000000036,0.02739999999999987,-0.08239999999999992]",-1,9.2311,-71,-115,1,0,0,response5disk_5,-4,5,1,0,0,rectangle_8,-4,5,1,0,0,1,-4,5,1,0,0,0,0,0,0,1,,,,,,,,,,,,,,,,,,,,,,,,,,,,,,,,,,,,,,,,,,,,,,,,,,,,,,,,,,,,,,,,,,,,,,,,,,,,,,,,,,,,,,,,,,,,,,,,,,,,,,,,,,,
,,,,,,5df924a11e2e586a0fa62643,62bbfb700876361cf282601c,2022-06-29_09h13.05.599,Colour_Asymmetry_Pilot,2022.1.3,Win32,75.00187505,62bbe60bf3d75ef465d3e404,,,,,,,,,,,,,,,,,,,"[0.8115999999999999,-0.0040000000000000036,-0.09819999999999995]",fourtwo,"[-0.4276,0.0038000000000000256,-0.3256]",-2,5.4957,-120,-38,1,0,0,response5disk_5,6,-1,1,0,0,rectangle_8,6,-1,1,0,0,1,6,-1,1,0,0,1,0,1,0,1,,,,,,,,,,,,,,,,,,,,,,,,,,,,,,,,,,,,,,,,,,,,,,,,,,,,,,,,,,,,,,,,,,,,,,,,,,,,,,,,,,,,,,,,,,,,,,,,,,,,,,,,,,,
,,,,,,5df924a11e2e586a0fa62643,62bbfb700876361cf282601c,2022-06-29_09h13.05.599,Colour_Asymmetry_Pilot,2022.1.3,Win32,75.00187505,62bbe60bf3d75ef465d3e404,,,,,,,,,,,,,,,,,,,"[0.11359999999999992,0.6312,0.5213999999999999]",threeone,"[-0.0040000000000000036,0.02739999999999987,-0.08239999999999992]",-1,2.8546,-54,-129,1,0,0,response5disk_5,-8,3,1,0,0,rectangle_8,-8,3,1,0,0,1,-8,3,1,0,0,2,0,2,0,1,,,,,,,,,,,,,,,,,,,,,,,,,,,,,,,,,,,,,,,,,,,,,,,,,,,,,,,,,,,,,,,,,,,,,,,,,,,,,,,,,,,,,,,,,,,,,,,,,,,,,,,,,,,
,,,,,,5df924a11e2e586a0fa62643,62bbfb700876361cf282601c,2022-06-29_09h13.05.599,Colour_Asymmetry_Pilot,2022.1.3,Win32,75.00187505,62bbe60bf3d75ef465d3e404,,,,,,,,,,,,,,,,,,,"[-0.5922000000000001,-0.7492000000000001,-0.5296000000000001]",threeone,"[1,0.12939999999999996,-1]",-4,1.0406,-50,118,1,0,0,response7disk_5,5,7,1,0,0,rectangle_8,53,-135,1,0,0,1,-8,3,1,0,0,3,0,3,0,1,response3disk_7,4,rectangle_4,,,,,,,,,,,,,,,,,,,,,,,,,,,,,,,,,,,,,,,,,,,,,,,,,,,,,,,,,,,,,,,,,,,,,,,,,,,,,,,,,,,,,,,,,,,,,,,,,,,,,,,,
,,,,,,5df924a11e2e586a0fa62643,62bbfb700876361cf282601c,2022-06-29_09h13.05.599,Colour_Asymmetry_Pilot,2022.1.3,Win32,75.00187505,62bbe60bf3d75ef465d3e404,,,,,,,,,,,,,,,,,,,"[-0.26280000000000003,-0.2158,-0.3256]",onethree,"[0.9372,0.9450000000000001,0.8980000000000001]",-2,1.4406,-146,-67,1,0,0,response5disk_5,-11,5,1,0,0,rectangle_8,-11,5,1,0,0,1,-11,5,1,0,0,4,0,4,0,1,,,,,,,,,,,,,,,,,,,,,,,,,,,,,,,,,,,,,,,,,,,,,,,,,,,,,,,,,,,,,,,,,,,,,,,,,,,,,,,,,,,,,,,,,,,,,,,,,,,,,,,,,,,
,,,,,,5df924a11e2e586a0fa62643,62bbfb700876361cf282601c,2022-06-29_09h13.05.599,Colour_Asymmetry_Pilot,2022.1.3,Win32,75.00187505,62bbe60bf3d75ef465d3e404,,,,,,,,,,,,,,,,,,,"[0.796,0.2156,-0.27859999999999996]",threeone,"[-0.4746,-0.0354000000000001,0.5449999999999999]",-4,0.8137,-44,113,1,0,0,response7disk_5,6,-1,1,0,0,rectangle_8,6,-1,1,0,0,1,6,-1,1,0,0,5,0,5,0,1,,,,,,,,,,,,,,,,,,,,,,,,,,,,,,,,,,,,,,,,,,,,,,,,,,,,,,,,,,,,,,,,,,,,,,,,,,,,,,,,,,,,,,,,,,,,,,,,,,,,,,,,,,,
,,,,,,5df924a11e2e586a0fa62643,62bbfb700876361cf282601c,2022-06-29_09h13.05.599,Colour_Asymmetry_Pilot,2022.1.3,Win32,75.00187505,62bbe60bf3d75ef465d3e404,,,,,,,,,,,,,,,,,,,"[0.5528,0.7409999999999999,-0.71]",fourthree,"[-0.4668,-0.8746,-0.2942]",-4,0.7068,-63,133,1,0,0,response7disk_5,-5,6,1,0,0,rectangle_8,-5,6,1,0,0,1,-5,6,1,0,0,6,0,6,0,1,,,,,,,,,,,,,,,,,,,,,,,,,,,,,,,,,,,,,,,,,,,,,,,,,,,,,,,,,,,,,,,,,,,,,,,,,,,,,,,,,,,,,,,,,,,,,,,,,,,,,,,,,,,
,,,,,,5df924a11e2e586a0fa62643,62bbfb700876361cf282601c,2022-06-29_09h13.05.599,Colour_Asymmetry_Pilot,2022.1.3,Win32,75.00187505,62bbe60bf3d75ef465d3e404,,,,,,,,,,,,,,,,,,,,onethree,,-3,3.0417,,,,,,,,,,,,,,,,,,,,,,,,,,,,,,,,space,10.8444,"[-0.7412000000000001,-0.08239999999999992,-0.6864]","[-0.20799999999999996,-0.655,-0.01980000000000004]",-123,64,1,0,0,response7disk,-3,7,1,0,0,rectangle,-3,7,1,0,0,,1,0.0008,0,-3,7,1,0,0,0,0,0,31,1,31,first,,,,,,,,,,,,,,,,,,,,,,,,,,,,,,,,,,,,,,,,,,,,,,,,,,,,,,,,,,,,,,,,,,,
,,,,,,5df924a11e2e586a0fa62643,62bbfb700876361cf282601c,2022-06-29_09h13.05.599,Colour_Asymmetry_Pilot,2022.1.3,Win32,75.00187505,62bbe60bf3d75ef465d3e404,,,,,,,,,,,,,,,,,,,,fourthree,,-3,1.3608,,,,,,,,,,,,,,,,,,,,,,,,,,,,,,,,,,"[-0.6,0.16860000000000008,0.44300000000000006]","[0.6547999999999998,-0.043199999999999905,-0.011800000000000033]",-106,57,1,0,0,response7disk,-2,3,1,0,0,rectangle,-2,3,1,0,0,,3,0.0005,0,-2,3,1,0,0,0,1,1,110,1,29,second,,,,,,,,,,,,,,,,,,,,,,,,,,,,,,,,,,,,,,,,,,,,,,,,,,,,,,,,,,,,,,,,,,,
,,,,,,5df924a11e2e586a0fa62643,62bbfb700876361cf282601c,2022-06-29_09h13.05.599,Colour_Asymmetry_Pilot,2022.1.3,Win32,75.00187505,62bbe60bf3d75ef465d3e404,,,,,,,,,,,,,,,,,,,,threefour,,-1,1.8809,,,,,,,,,,,,,,,,,,,,,,,,,,,,,,,,,,"[-0.17659999999999998,0.3253999999999999,0.19999999999999996]","[-0.9688,-0.4902000000000001,-0.12159999999999993]",-59,-141,1,0,0,response5disk,1,6,1,0,0,rectangle,1,6,1,0,0,,2,0.0005,0,1,6,1,0,0,0,2,2,39,1,39,first,,,,,,,,,,,,,,,,,,,,,,,,,,,,,,,,,,,,,,,,,,,,,,,,,,,,,,,,,,,,,,,,,,,
,,,,,,5df924a11e2e586a0fa62643,62bbfb700876361cf282601c,2022-06-29_09h13.05.599,Colour_Asymmetry_Pilot,2022.1.3,Win32,75.00187505,62bbe60bf3d75ef465d3e404,,,,,,,,,,,,,,,,,,,,onethree,,-1,0.7604,,,,,,,,,,,,,,,,,,,,,,,,,,,,,,,,,,"[0.04299999999999993,0.16060000000000008,-0.6628000000000001]","[-0.30200000000000005,0.14500000000000002,0.2784]",-42,-118,1,0,0,response5disk,-7,1,1,0,0,rectangle,-7,1,1,0,0,,2,0.0002,0,-7,1,1,0,0,0,3,3,20,1,20,first,,,,,,,,,,,,,,,,,,,,,,,,,,,,,,,,,,,,,,,,,,,,,,,,,,,,,,,,,,,,,,,,,,,
,,,,,,5df924a11e2e586a0fa62643,62bbfb700876361cf282601c,2022-06-29_09h13.05.599,Colour_Asymmetry_Pilot,2022.1.3,Win32,75.00187505,62bbe60bf3d75ef465d3e404,,,,,,,,,,,,,,,,,,,,twoone,,-4,0.5336,,,,,,,,,,,,,,,,,,,,,,,,,,,,,,,,,,"[0.11359999999999992,0.6312,0.5213999999999999]","[-0.4668,-0.8746,-0.2942]",-50,148,1,0,0,response7disk,6,1,1,0,0,rectangle,6,1,1,0,0,,2,0.0002,0,6,1,1,0,0,0,4,4,14,1,14,first,,,,,,,,,,,,,,,,,,,,,,,,,,,,,,,,,,,,,,,,,,,,,,,,,,,,,,,,,,,,,,,,,,,
,,,,,,5df924a11e2e586a0fa62643,62bbfb700876361cf282601c,2022-06-29_09h13.05.599,Colour_Asymmetry_Pilot,2022.1.3,Win32,75.00187505,62bbe60bf3d75ef465d3e404,,,,,,,,,,,,,,,,,,,,fourtwo,,-3,0.6004,,,,,,,,,,,,,,,,,,,,,,,,,,,,,,,,,,"[-0.20799999999999996,-0.655,-0.01980000000000004]","[0.37240000000000006,-0.050999999999999934,-0.5216]",-112,55,1,0,0,response7disk,6,4,1,0,0,rectangle,6,4,1,0,0,,3,0.0005,0,6,4,1,0,0,0,5,5,153,1,72,second,,,,,,,,,,,,,,,,,,,,,,,,,,,,,,,,,,,,,,,,,,,,,,,,,,,,,,,,,,,,,,,,,,,
,,,,,,5df924a11e2e586a0fa62643,62bbfb700876361cf282601c,2022-06-29_09h13.05.599,Colour_Asymmetry_Pilot,2022.1.3,Win32,75.00187505,62bbe60bf3d75ef465d3e404,,,,,,,,,,,,,,,,,,,,threeone,,3,1.9342,,,,,,,,,,,,,,,,,,,,,,,,,,,,,,,,,,"[0.7018,0.7802,-0.16079999999999994]","[0.5528,0.7409999999999999,-0.71]",112,64,1,0,0,response1disk,-5,1,1,0,0,rectangle,-5,1,1,0,0,,1,0.0005,0,-5,1,1,0,0,0,6,6,109,1,28,second,,,,,,,,,,,,,,,,,,,,,,,,,,,,,,,,,,,,,,,,,,,,,,,,,,,,,,,,,,,,,,,,,,,
,,,,,,5df924a11e2e586a0fa62643,62bbfb700876361cf282601c,2022-06-29_09h13.05.599,Colour_Asymmetry_Pilot,2022.1.3,Win32,75.00187505,62bbe60bf3d75ef465d3e404,,,,,,,,,,,,,,,,,,,,onetwo,,-1,0.827,,,,,,,,,,,,,,,,,,,,,,,,,,,,,,,,,,"[-0.6942,-0.7648,-0.12959999999999994]","[0.2862,0.7802,0.3568]",-51,-120,1,0,0,response5disk,4,8,1,0,0,rectangle,4,8,1,0,0,,3,0.0008,0,4,8,1,0,0,0,7,7,13,1,13,first,,,,,,,,,,,,,,,,,,,,,,,,,,,,,,,,,,,,,,,,,,,,,,,,,,,,,,,,,,,,,,,,,,,
,,,,,,5df924a11e2e586a0fa62643,62bbfb700876361cf282601c,2022-06-29_09h13.05.599,Colour_Asymmetry_Pilot,2022.1.3,Win32,75.00187505,62bbe60bf3d75ef465d3e404,,,,,,,,,,,,,,,,,,,,onetwo,,-4,0.6003,,,,,,,,,,,,,,,,,,,,,,,,,,,,,,,,,,"[0.9372,0.20779999999999998,0.2704]","[-0.9688,-0.38039999999999996,-0.41979999999999995]",-53,118,1,0,0,response7disk,-2,-1,1,0,0,rectangle,-2,-1,1,0,0,,3,0.0002,0,-2,-1,1,0,0,0,8,8,114,1,33,second,,,,,,,,,,,,,,,,,,,,,,,,,,,,,,,,,,,,,,,,,,,,,,,,,,,,,,,,,,,,,,,,,,,
,,,,,,5df924a11e2e586a0fa62643,62bbfb700876361cf282601c,2022-06-29_09h13.05.599,Colour_Asymmetry_Pilot,2022.1.3,Win32,75.00187505,62bbe60bf3d75ef465d3e404,,,,,,,,,,,,,,,,,,,,twoone,,-2,1.027,,,,,,,,,,,,,,,,,,,,,,,,,,,,,,,,,,"[-0.2942,-0.24719999999999998,-0.357]","[0.19199999999999995,0.18419999999999992,0.5136000000000001]",-100,-57,1,0,0,response5disk,-7,1,1,0,0,rectangle,-7,1,1,0,0,,3,0.0001,0,-7,1,1,0,0,0,9,9,154,1,73,second,,,,,,,,,,,,,,,,,,,,,,,,,,,,,,,,,,,,,,,,,,,,,,,,,,,,,,,,,,,,,,,,,,,
,,,,,,5df924a11e2e586a0fa62643,62bbfb700876361cf282601c,2022-06-29_09h13.05.599,Colour_Asymmetry_Pilot,2022.1.3,Win32,75.00187505,62bbe60bf3d75ef465d3e404,,,,,,,,,,,,,,,,,,,,threefour,,2,2.6145,,,,,,,,,,,,,,,,,,,,,,,,,,,,,,,,,,"[0.40379999999999994,0.09000000000000008,0.44300000000000006]","[0.7646000000000002,0.07440000000000002,0.2704]",98,-47,1,0,0,response3disk,-8,12,1,0,0,rectangle,-8,12,1,0,0,,3,0.0001,0,-8,12,1,0,0,0,10,10,67,1,67,first,,,,,,,,,,,,,,,,,,,,,,,,,,,,,,,,,,,,,,,,,,,,,,,,,,,,,,,,,,,,,,,,,,,
,,,,,,5df924a11e2e586a0fa62643,62bbfb700876361cf282601c,2022-06-29_09h13.05.599,Colour_Asymmetry_Pilot,2022.1.3,Win32,75.00187505,62bbe60bf3d75ef465d3e404,,,,,,,,,,,,,,,,,,,,twofour,,-1,0.6803,,,,,,,,,,,,,,,,,,,,,,,,,,,,,,,,,,"[-0.48240000000000005,0.3175999999999999,0.2156]","[-0.0040000000000000036,0.02739999999999987,-0.08239999999999992]",-57,-121,1,0,0,response5disk,-1,2,1,0,0,rectangle,-1,2,1,0,0,,3,0,0,-1,2,1,0,0,0,11,11,57,1,57,first,,,,,,,,,,,,,,,,,,,,,,,,,,,,,,,,,,,,,,,,,,,,,,,,,,,,,,,,,,,,,,,,,,,
,,,,,,5df924a11e2e586a0fa62643,62bbfb700876361cf282601c,2022-06-29_09h13.05.599,Colour_Asymmetry_Pilot,2022.1.3,Win32,75.00187505,62bbe60bf3d75ef465d3e404,,,,,,,,,,,,,,,,,,,,twofour,,1,0.6936,,,,,,,,,,,,,,,,,,,,,,,,,,,,,,,,,,"[-0.26280000000000003,-0.2158,-0.3256]","[0.04299999999999993,0.16060000000000008,-0.6628000000000001]",60,-130,1,0,0,response3disk,-1,3,1,0,0,rectangle,-1,3,1,0,0,,1,0.0004,0,-1,3,1,0,0,0,12,12,158,1,77,second,,,,,,,,,,,,,,,,,,,,,,,,,,,,,,,,,,,,,,,,,,,,,,,,,,,,,,,,,,,,,,,,,,,
,,,,,,5df924a11e2e586a0fa62643,62bbfb700876361cf282601c,2022-06-29_09h13.05.599,Colour_Asymmetry_Pilot,2022.1.3,Win32,75.00187505,62bbe60bf3d75ef465d3e404,,,,,,,,,,,,,,,,,,,,onetwo,,1,3.7615,,,,,,,,,,,,,,,,,,,,,,,,,,,,,,,,,,"[0.9842,0.7409999999999999,-0.6628000000000001]","[0.23120000000000007,-0.7726,-0.34120000000000006]",36,-136,1,0,0,response3disk,-9,6,1,0,0,rectangle,-9,6,1,0,0,,3,0.0006,0,-9,6,1,0,0,0,13,13,146,1,65,second,,,,,,,,,,,,,,,,,,,,,,,,,,,,,,,,,,,,,,,,,,,,,,,,,,,,,,,,,,,,,,,,,,,
,,,,,,5df924a11e2e586a0fa62643,62bbfb700876361cf282601c,2022-06-29_09h13.05.599,Colour_Asymmetry_Pilot,2022.1.3,Win32,75.00187505,62bbe60bf3d75ef465d3e404,,,,,,,,,,,,,,,,,,,,twoone,,1,2.0141,,,,,,,,,,,,,,,,,,,,,,,,,,,,,,,,,,"[0.04299999999999993,0.16060000000000008,-0.6628000000000001]","[-0.26280000000000003,-0.2158,-0.3256]",60,-124,1,0,0,response3disk,12,-1,1,0,0,rectangle,12,-1,1,0,0,,2,0.0005,0,12,-1,1,0,0,0,14,14,77,1,77,first,,,,,,,,,,,,,,,,,,,,,,,,,,,,,,,,,,,,,,,,,,,,,,,,,,,,,,,,,,,,,,,,,,,
,,,,,,5df924a11e2e586a0fa62643,62bbfb700876361cf282601c,2022-06-29_09h13.05.599,Colour_Asymmetry_Pilot,2022.1.3,Win32,75.00187505,62bbe60bf3d75ef465d3e404,,,,,,,,,,,,,,,,,,,,onetwo,,-1,2.0943,,,,,,,,,,,,,,,,,,,,,,,,,,,,,,,,,,"[-0.9688,-0.38039999999999996,-0.41979999999999995]","[-0.4668,-0.8746,-0.2942]",-64,-120,1,0,0,response5disk,6,5,1,0,0,rectangle,6,5,1,0,0,,2,0.0001,0,6,5,1,0,0,0,15,15,18,1,18,first,,,,,,,,,,,,,,,,,,,,,,,,,,,,,,,,,,,,,,,,,,,,,,,,,,,,,,,,,,,,,,,,,,,
,,,,,,5df924a11e2e586a0fa62643,62bbfb700876361cf282601c,2022-06-29_09h13.05.599,Colour_Asymmetry_Pilot,2022.1.3,Win32,75.00187505,62bbe60bf3d75ef465d3e404,,,,,,,,,,,,,,,,,,,,twoone,,-3,0.7205,,,,,,,,,,,,,,,,,,,,,,,,,,,,,,,,,,"[0.37240000000000006,-0.050999999999999934,-0.5216]","[-0.20799999999999996,-0.655,-0.01980000000000004]",-111,45,1,0,0,response7disk,9,9,1,0,0,rectangle,9,9,1,0,0,,2,0.0001,0,9,9,1,0,0,0,16,16,72,1,72,first,,,,,,,,,,,,,,,,,,,,,,,,,,,,,,,,,,,,,,,,,,,,,,,,,,,,,,,,,,,,,,,,,,,
,,,,,,5df924a11e2e586a0fa62643,62bbfb700876361cf282601c,2022-06-29_09h13.05.599,Colour_Asymmetry_Pilot,2022.1.3,Win32,75.00187505,62bbe60bf3d75ef465d3e404,,,,,,,,,,,,,,,,,,,,twoone,,-3,1.7208,,,,,,,,,,,,,,,,,,,,,,,,,,,,,,,,,,"[0.6547999999999998,-0.043199999999999905,-0.011800000000000033]","[-0.6,0.16860000000000008,0.44300000000000006]",-138,63,1,0,0,response7disk,2,-1,1,0,0,rectangle,2,-1,1,0,0,,3,0.0005,0,2,-1,1,0,0,0,17,17,29,1,29,first,,,,,,,,,,,,,,,,,,,,,,,,,,,,,,,,,,,,,,,,,,,,,,,,,,,,,,,,,,,,,,,,,,,
,,,,,,5df924a11e2e586a0fa62643,62bbfb700876361cf282601c,2022-06-29_09h13.05.599,Colour_Asymmetry_Pilot,2022.1.3,Win32,75.00187505,62bbe60bf3d75ef465d3e404,,,,,,,,,,,,,,,,,,,,twoone,,-2,5.7222,,,,,,,,,,,,,,,,,,,,,,,,,,,,,,,,,,"[0.40379999999999994,0.09000000000000008,0.44300000000000006]","[-0.7412000000000001,-0.08239999999999992,-0.6864]",-140,-68,1,0,0,response5disk,-7,0,1,0,0,rectangle,-7,0,1,0,0,,3,0,0,-7,0,1,0,0,0,18,18,83,1,2,second,,,,,,,,,,,,,,,,,,,,,,,,,,,,,,,,,,,,,,,,,,,,,,,,,,,,,,,,,,,,,,,,,,,
,,,,,,5df924a11e2e586a0fa62643,62bbfb700876361cf282601c,2022-06-29_09h13.05.599,Colour_Asymmetry_Pilot,2022.1.3,Win32,75.00187505,62bbe60bf3d75ef465d3e404,,,,,,,,,,,,,,,,,,,,fourthree,,2,1.2406,,,,,,,,,,,,,,,,,,,,,,,,,,,,,,,,,,"[0.8274000000000001,-0.5844,-0.9452]","[0.8115999999999999,-0.0040000000000000036,-0.09819999999999995]",118,-82,1,0,0,response3disk,-11,-7,1,0,0,rectangle,-11,-7,1,0,0,,1,0.0005,0,-11,-7,1,0,0,0,19,19,150,1,69,second,,,,,,,,,,,,,,,,,,,,,,,,,,,,,,,,,,,,,,,,,,,,,,,,,,,,,,,,,,,,,,,,,,,
,,,,,,5df924a11e2e586a0fa62643,62bbfb700876361cf282601c,2022-06-29_09h13.05.599,Colour_Asymmetry_Pilot,2022.1.3,Win32,75.00187505,62bbe60bf3d75ef465d3e404,,,,,,,,,,,,,,,,,,,,onetwo,,-4,0.7204,,,,,,,,,,,,,,,,,,,,,,,,,,,,,,,,,,"[0.4196,0.4665999999999999,0.3568]","[-0.050999999999999934,-0.6706000000000001,-0.804]",-52,128,1,0,0,response7disk,4,5,1,0,0,rectangle,4,5,1,0,0,,3,0.0005,0,4,5,1,0,0,0,20,20,68,1,68,first,,,,,,,,,,,,,,,,,,,,,,,,,,,,,,,,,,,,,,,,,,,,,,,,,,,,,,,,,,,,,,,,,,,
