trials.thisRepN,trials.thisTrialN,trials.thisN,trials.thisIndex,trials.ran,Colourcodes,participant,session,date,expName,psychopyVersion,OS,frameRate,study_id,trials_4.thisRepN,trials_4.thisTrialN,trials_4.thisN,trials_4.thisIndex,trials_4.ran,StimulusPos,key_resp.keys,key_resp.rt,key_resp_2.keys,key_resp_2.rt,key_resp_15.keys,key_resp_15.rt,key_resp_17.keys,key_resp_17.rt,key_resp_9.keys,key_resp_9.rt,key_resp_10.keys,key_resp_10.rt,Circle1_col,Ecc,Circle2_col,similarity,response_time,mouse_5.x,mouse_5.y,mouse_5.leftButton,mouse_5.midButton,mouse_5.rightButton,mouse_5.clicked_name,mouse_10.x,mouse_10.y,mouse_10.leftButton,mouse_10.midButton,mouse_10.rightButton,mouse_10.clicked_name,mouse_7.x,mouse_7.y,mouse_7.leftButton,mouse_7.midButton,mouse_7.rightButton,catchnumberprac,mouse_6.x,mouse_6.y,mouse_6.leftButton,mouse_6.midButton,mouse_6.rightButton,duringprac.thisRepN,duringprac.thisTrialN,duringprac.thisN,duringprac.thisIndex,duringprac.ran,mouse_7.clicked_name,catchprac,mouse_6.clicked_name,key_resp_22.keys,key_resp_22.rt,Circle1_colour,Circle2_colour,mouse.x,mouse.y,mouse.leftButton,mouse.midButton,mouse.rightButton,mouse.clicked_name,mouse_2.x,mouse_2.y,mouse_2.leftButton,mouse_2.midButton,mouse_2.rightButton,mouse_2.clicked_name,mouse_3.x,mouse_3.y,mouse_3.leftButton,mouse_3.midButton,mouse_3.rightButton,catchresponse,catchnumber,response_time_catch,Catch,mouse_11.x,mouse_11.y,mouse_11.leftButton,mouse_11.midButton,mouse_11.rightButton,trials_2.thisRepN,trials_2.thisTrialN,trials_2.thisN,trials_2.thisIndex,trials_2.ran,Colourpair,Temporder,mouse_3.clicked_name,mouse_11.clicked_name,trials_3.thisRepN,trials_3.thisTrialN,trials_3.thisN,trials_3.thisIndex,trials_3.ran,key_resp_instr_Ishi.keys,key_resp_instr_Ishi.rt,Ishi_trial_keyresp.keys,Ishi_trial_keyresp.rt,Ishi_textbox.text,Ishi_loop.thisRepN,Ishi_loop.thisTrialN,Ishi_loop.thisN,Ishi_loop.thisIndex,Ishi_loop.ran,imageaddress,textbox.text,mouse_4.x,mouse_4.y,mouse_4.leftButton,mouse_4.midButton,mouse_4.rightButton,mouse_4.clicked_name,textbox_2.text,mouse_8.x,mouse_8.y,mouse_8.leftButton,mouse_8.midButton,mouse_8.rightButton,mouse_8.clicked_name,textbox_3.text,mouse_9.x,mouse_9.y,mouse_9.leftButton,mouse_9.midButton,mouse_9.rightButton,mouse_9.clicked_name,textbox_4.text,mouse_12.x,mouse_12.y,mouse_12.leftButton,mouse_12.midButton,mouse_12.rightButton,mouse_12.clicked_name,textbox_5.text,mouse_13.x,mouse_13.y,mouse_13.leftButton,mouse_13.midButton,mouse_13.rightButton,mouse_13.clicked_name,textbox_6.text,mouse_14.x,mouse_14.y,mouse_14.leftButton,mouse_14.midButton,mouse_14.rightButton,mouse_14.clicked_name,textbox_7.text,mouse_15.x,mouse_15.y,mouse_15.leftButton,mouse_15.midButton,mouse_15.rightButton,mouse_15.clicked_name
0,0,0,38,1,,6167e5b21fe4bb7b2579fa56,62bbf9cc78b360e771dcb992,2022-06-29_09h06.42.135,Colour_Asymmetry_Pilot,2022.1.3,Win32,59.19261276,62bbe60bf3d75ef465d3e404,,,,,,,,,,,,,,,,,,,,,,,,,,,,,,,,,,,,,,,,,,,,,,,,,,,,,,,,,,,,,,,,,,,,,,,,,,,,,,,,,,,,,,,,,,,,,,,,,,,,,,,,,,,,,,,,,,,,,,,,,,,,,,,,,,,,,,,,,,,,,,,,,,,,,,,,,,,,,,
0,1,1,59,1,,6167e5b21fe4bb7b2579fa56,62bbf9cc78b360e771dcb992,2022-06-29_09h06.42.135,Colour_Asymmetry_Pilot,2022.1.3,Win32,59.19261276,62bbe60bf3d75ef465d3e404,,,,,,,,,,,,,,,,,,,,,,,,,,,,,,,,,,,,,,,,,,,,,,,,,,,,,,,,,,,,,,,,,,,,,,,,,,,,,,,,,,,,,,,,,,,,,,,,,,,,,,,,,,,,,,,,,,,,,,,,,,,,,,,,,,,,,,,,,,,,,,,,,,,,,,,,,,,,,,
0,2,2,0,1,,6167e5b21fe4bb7b2579fa56,62bbf9cc78b360e771dcb992,2022-06-29_09h06.42.135,Colour_Asymmetry_Pilot,2022.1.3,Win32,59.19261276,62bbe60bf3d75ef465d3e404,,,,,,,,,,,,,,,,,,,,,,,,,,,,,,,,,,,,,,,,,,,,,,,,,,,,,,,,,,,,,,,,,,,,,,,,,,,,,,,,,,,,,,,,,,,,,,,,,,,,,,,,,,,,,,,,,,,,,,,,,,,,,,,,,,,,,,,,,,,,,,,,,,,,,,,,,,,,,,
0,3,3,60,1,,6167e5b21fe4bb7b2579fa56,62bbf9cc78b360e771dcb992,2022-06-29_09h06.42.135,Colour_Asymmetry_Pilot,2022.1.3,Win32,59.19261276,62bbe60bf3d75ef465d3e404,,,,,,,,,,,,,,,,,,,,,,,,,,,,,,,,,,,,,,,,,,,,,,,,,,,,,,,,,,,,,,,,,,,,,,,,,,,,,,,,,,,,,,,,,,,,,,,,,,,,,,,,,,,,,,,,,,,,,,,,,,,,,,,,,,,,,,,,,,,,,,,,,,,,,,,,,,,,,,
0,4,4,79,1,,6167e5b21fe4bb7b2579fa56,62bbf9cc78b360e771dcb992,2022-06-29_09h06.42.135,Colour_Asymmetry_Pilot,2022.1.3,Win32,59.19261276,62bbe60bf3d75ef465d3e404,,,,,,,,,,,,,,,,,,,,,,,,,,,,,,,,,,,,,,,,,,,,,,,,,,,,,,,,,,,,,,,,,,,,,,,,,,,,,,,,,,,,,,,,,,,,,,,,,,,,,,,,,,,,,,,,,,,,,,,,,,,,,,,,,,,,,,,,,,,,,,,,,,,,,,,,,,,,,,
0,5,5,87,1,,6167e5b21fe4bb7b2579fa56,62bbf9cc78b360e771dcb992,2022-06-29_09h06.42.135,Colour_Asymmetry_Pilot,2022.1.3,Win32,59.19261276,62bbe60bf3d75ef465d3e404,,,,,,,,,,,,,,,,,,,,,,,,,,,,,,,,,,,,,,,,,,,,,,,,,,,,,,,,,,,,,,,,,,,,,,,,,,,,,,,,,,,,,,,,,,,,,,,,,,,,,,,,,,,,,,,,,,,,,,,,,,,,,,,,,,,,,,,,,,,,,,,,,,,,,,,,,,,,,,
0,6,6,85,1,,6167e5b21fe4bb7b2579fa56,62bbf9cc78b360e771dcb992,2022-06-29_09h06.42.135,Colour_Asymmetry_Pilot,2022.1.3,Win32,59.19261276,62bbe60bf3d75ef465d3e404,,,,,,,,,,,,,,,,,,,,,,,,,,,,,,,,,,,,,,,,,,,,,,,,,,,,,,,,,,,,,,,,,,,,,,,,,,,,,,,,,,,,,,,,,,,,,,,,,,,,,,,,,,,,,,,,,,,,,,,,,,,,,,,,,,,,,,,,,,,,,,,,,,,,,,,,,,,,,,
0,7,7,46,1,,6167e5b21fe4bb7b2579fa56,62bbf9cc78b360e771dcb992,2022-06-29_09h06.42.135,Colour_Asymmetry_Pilot,2022.1.3,Win32,59.19261276,62bbe60bf3d75ef465d3e404,,,,,,,,,,,,,,,,,,,,,,,,,,,,,,,,,,,,,,,,,,,,,,,,,,,,,,,,,,,,,,,,,,,,,,,,,,,,,,,,,,,,,,,,,,,,,,,,,,,,,,,,,,,,,,,,,,,,,,,,,,,,,,,,,,,,,,,,,,,,,,,,,,,,,,,,,,,,,,
0,8,8,36,1,,6167e5b21fe4bb7b2579fa56,62bbf9cc78b360e771dcb992,2022-06-29_09h06.42.135,Colour_Asymmetry_Pilot,2022.1.3,Win32,59.19261276,62bbe60bf3d75ef465d3e404,,,,,,,,,,,,,,,,,,,,,,,,,,,,,,,,,,,,,,,,,,,,,,,,,,,,,,,,,,,,,,,,,,,,,,,,,,,,,,,,,,,,,,,,,,,,,,,,,,,,,,,,,,,,,,,,,,,,,,,,,,,,,,,,,,,,,,,,,,,,,,,,,,,,,,,,,,,,,,
0,9,9,58,1,,6167e5b21fe4bb7b2579fa56,62bbf9cc78b360e771dcb992,2022-06-29_09h06.42.135,Colour_Asymmetry_Pilot,2022.1.3,Win32,59.19261276,62bbe60bf3d75ef465d3e404,,,,,,,,,,,,,,,,,,,,,,,,,,,,,,,,,,,,,,,,,,,,,,,,,,,,,,,,,,,,,,,,,,,,,,,,,,,,,,,,,,,,,,,,,,,,,,,,,,,,,,,,,,,,,,,,,,,,,,,,,,,,,,,,,,,,,,,,,,,,,,,,,,,,,,,,,,,,,,
0,10,10,88,1,,6167e5b21fe4bb7b2579fa56,62bbf9cc78b360e771dcb992,2022-06-29_09h06.42.135,Colour_Asymmetry_Pilot,2022.1.3,Win32,59.19261276,62bbe60bf3d75ef465d3e404,,,,,,,,,,,,,,,,,,,,,,,,,,,,,,,,,,,,,,,,,,,,,,,,,,,,,,,,,,,,,,,,,,,,,,,,,,,,,,,,,,,,,,,,,,,,,,,,,,,,,,,,,,,,,,,,,,,,,,,,,,,,,,,,,,,,,,,,,,,,,,,,,,,,,,,,,,,,,,
0,11,11,74,1,,6167e5b21fe4bb7b2579fa56,62bbf9cc78b360e771dcb992,2022-06-29_09h06.42.135,Colour_Asymmetry_Pilot,2022.1.3,Win32,59.19261276,62bbe60bf3d75ef465d3e404,,,,,,,,,,,,,,,,,,,,,,,,,,,,,,,,,,,,,,,,,,,,,,,,,,,,,,,,,,,,,,,,,,,,,,,,,,,,,,,,,,,,,,,,,,,,,,,,,,,,,,,,,,,,,,,,,,,,,,,,,,,,,,,,,,,,,,,,,,,,,,,,,,,,,,,,,,,,,,
0,12,12,40,1,,6167e5b21fe4bb7b2579fa56,62bbf9cc78b360e771dcb992,2022-06-29_09h06.42.135,Colour_Asymmetry_Pilot,2022.1.3,Win32,59.19261276,62bbe60bf3d75ef465d3e404,,,,,,,,,,,,,,,,,,,,,,,,,,,,,,,,,,,,,,,,,,,,,,,,,,,,,,,,,,,,,,,,,,,,,,,,,,,,,,,,,,,,,,,,,,,,,,,,,,,,,,,,,,,,,,,,,,,,,,,,,,,,,,,,,,,,,,,,,,,,,,,,,,,,,,,,,,,,,,
0,13,13,50,1,,6167e5b21fe4bb7b2579fa56,62bbf9cc78b360e771dcb992,2022-06-29_09h06.42.135,Colour_Asymmetry_Pilot,2022.1.3,Win32,59.19261276,62bbe60bf3d75ef465d3e404,,,,,,,,,,,,,,,,,,,,,,,,,,,,,,,,,,,,,,,,,,,,,,,,,,,,,,,,,,,,,,,,,,,,,,,,,,,,,,,,,,,,,,,,,,,,,,,,,,,,,,,,,,,,,,,,,,,,,,,,,,,,,,,,,,,,,,,,,,,,,,,,,,,,,,,,,,,,,,
0,14,14,30,1,,6167e5b21fe4bb7b2579fa56,62bbf9cc78b360e771dcb992,2022-06-29_09h06.42.135,Colour_Asymmetry_Pilot,2022.1.3,Win32,59.19261276,62bbe60bf3d75ef465d3e404,,,,,,,,,,,,,,,,,,,,,,,,,,,,,,,,,,,,,,,,,,,,,,,,,,,,,,,,,,,,,,,,,,,,,,,,,,,,,,,,,,,,,,,,,,,,,,,,,,,,,,,,,,,,,,,,,,,,,,,,,,,,,,,,,,,,,,,,,,,,,,,,,,,,,,,,,,,,,,
0,15,15,24,1,,6167e5b21fe4bb7b2579fa56,62bbf9cc78b360e771dcb992,2022-06-29_09h06.42.135,Colour_Asymmetry_Pilot,2022.1.3,Win32,59.19261276,62bbe60bf3d75ef465d3e404,,,,,,,,,,,,,,,,,,,,,,,,,,,,,,,,,,,,,,,,,,,,,,,,,,,,,,,,,,,,,,,,,,,,,,,,,,,,,,,,,,,,,,,,,,,,,,,,,,,,,,,,,,,,,,,,,,,,,,,,,,,,,,,,,,,,,,,,,,,,,,,,,,,,,,,,,,,,,,
0,16,16,5,1,,6167e5b21fe4bb7b2579fa56,62bbf9cc78b360e771dcb992,2022-06-29_09h06.42.135,Colour_Asymmetry_Pilot,2022.1.3,Win32,59.19261276,62bbe60bf3d75ef465d3e404,,,,,,,,,,,,,,,,,,,,,,,,,,,,,,,,,,,,,,,,,,,,,,,,,,,,,,,,,,,,,,,,,,,,,,,,,,,,,,,,,,,,,,,,,,,,,,,,,,,,,,,,,,,,,,,,,,,,,,,,,,,,,,,,,,,,,,,,,,,,,,,,,,,,,,,,,,,,,,
0,17,17,64,1,,6167e5b21fe4bb7b2579fa56,62bbf9cc78b360e771dcb992,2022-06-29_09h06.42.135,Colour_Asymmetry_Pilot,2022.1.3,Win32,59.19261276,62bbe60bf3d75ef465d3e404,,,,,,,,,,,,,,,,,,,,,,,,,,,,,,,,,,,,,,,,,,,,,,,,,,,,,,,,,,,,,,,,,,,,,,,,,,,,,,,,,,,,,,,,,,,,,,,,,,,,,,,,,,,,,,,,,,,,,,,,,,,,,,,,,,,,,,,,,,,,,,,,,,,,,,,,,,,,,,
0,18,18,69,1,,6167e5b21fe4bb7b2579fa56,62bbf9cc78b360e771dcb992,2022-06-29_09h06.42.135,Colour_Asymmetry_Pilot,2022.1.3,Win32,59.19261276,62bbe60bf3d75ef465d3e404,,,,,,,,,,,,,,,,,,,,,,,,,,,,,,,,,,,,,,,,,,,,,,,,,,,,,,,,,,,,,,,,,,,,,,,,,,,,,,,,,,,,,,,,,,,,,,,,,,,,,,,,,,,,,,,,,,,,,,,,,,,,,,,,,,,,,,,,,,,,,,,,,,,,,,,,,,,,,,
0,19,19,11,1,,6167e5b21fe4bb7b2579fa56,62bbf9cc78b360e771dcb992,2022-06-29_09h06.42.135,Colour_Asymmetry_Pilot,2022.1.3,Win32,59.19261276,62bbe60bf3d75ef465d3e404,,,,,,,,,,,,,,,,,,,,,,,,,,,,,,,,,,,,,,,,,,,,,,,,,,,,,,,,,,,,,,,,,,,,,,,,,,,,,,,,,,,,,,,,,,,,,,,,,,,,,,,,,,,,,,,,,,,,,,,,,,,,,,,,,,,,,,,,,,,,,,,,,,,,,,,,,,,,,,
0,20,20,75,1,,6167e5b21fe4bb7b2579fa56,62bbf9cc78b360e771dcb992,2022-06-29_09h06.42.135,Colour_Asymmetry_Pilot,2022.1.3,Win32,59.19261276,62bbe60bf3d75ef465d3e404,,,,,,,,,,,,,,,,,,,,,,,,,,,,,,,,,,,,,,,,,,,,,,,,,,,,,,,,,,,,,,,,,,,,,,,,,,,,,,,,,,,,,,,,,,,,,,,,,,,,,,,,,,,,,,,,,,,,,,,,,,,,,,,,,,,,,,,,,,,,,,,,,,,,,,,,,,,,,,
0,21,21,44,1,,6167e5b21fe4bb7b2579fa56,62bbf9cc78b360e771dcb992,2022-06-29_09h06.42.135,Colour_Asymmetry_Pilot,2022.1.3,Win32,59.19261276,62bbe60bf3d75ef465d3e404,,,,,,,,,,,,,,,,,,,,,,,,,,,,,,,,,,,,,,,,,,,,,,,,,,,,,,,,,,,,,,,,,,,,,,,,,,,,,,,,,,,,,,,,,,,,,,,,,,,,,,,,,,,,,,,,,,,,,,,,,,,,,,,,,,,,,,,,,,,,,,,,,,,,,,,,,,,,,,
0,22,22,42,1,,6167e5b21fe4bb7b2579fa56,62bbf9cc78b360e771dcb992,2022-06-29_09h06.42.135,Colour_Asymmetry_Pilot,2022.1.3,Win32,59.19261276,62bbe60bf3d75ef465d3e404,,,,,,,,,,,,,,,,,,,,,,,,,,,,,,,,,,,,,,,,,,,,,,,,,,,,,,,,,,,,,,,,,,,,,,,,,,,,,,,,,,,,,,,,,,,,,,,,,,,,,,,,,,,,,,,,,,,,,,,,,,,,,,,,,,,,,,,,,,,,,,,,,,,,,,,,,,,,,,
0,23,23,37,1,,6167e5b21fe4bb7b2579fa56,62bbf9cc78b360e771dcb992,2022-06-29_09h06.42.135,Colour_Asymmetry_Pilot,2022.1.3,Win32,59.19261276,62bbe60bf3d75ef465d3e404,,,,,,,,,,,,,,,,,,,,,,,,,,,,,,,,,,,,,,,,,,,,,,,,,,,,,,,,,,,,,,,,,,,,,,,,,,,,,,,,,,,,,,,,,,,,,,,,,,,,,,,,,,,,,,,,,,,,,,,,,,,,,,,,,,,,,,,,,,,,,,,,,,,,,,,,,,,,,,
0,24,24,52,1,,6167e5b21fe4bb7b2579fa56,62bbf9cc78b360e771dcb992,2022-06-29_09h06.42.135,Colour_Asymmetry_Pilot,2022.1.3,Win32,59.19261276,62bbe60bf3d75ef465d3e404,,,,,,,,,,,,,,,,,,,,,,,,,,,,,,,,,,,,,,,,,,,,,,,,,,,,,,,,,,,,,,,,,,,,,,,,,,,,,,,,,,,,,,,,,,,,,,,,,,,,,,,,,,,,,,,,,,,,,,,,,,,,,,,,,,,,,,,,,,,,,,,,,,,,,,,,,,,,,,
0,25,25,53,1,,6167e5b21fe4bb7b2579fa56,62bbf9cc78b360e771dcb992,2022-06-29_09h06.42.135,Colour_Asymmetry_Pilot,2022.1.3,Win32,59.19261276,62bbe60bf3d75ef465d3e404,,,,,,,,,,,,,,,,,,,,,,,,,,,,,,,,,,,,,,,,,,,,,,,,,,,,,,,,,,,,,,,,,,,,,,,,,,,,,,,,,,,,,,,,,,,,,,,,,,,,,,,,,,,,,,,,,,,,,,,,,,,,,,,,,,,,,,,,,,,,,,,,,,,,,,,,,,,,,,
0,26,26,22,1,,6167e5b21fe4bb7b2579fa56,62bbf9cc78b360e771dcb992,2022-06-29_09h06.42.135,Colour_Asymmetry_Pilot,2022.1.3,Win32,59.19261276,62bbe60bf3d75ef465d3e404,,,,,,,,,,,,,,,,,,,,,,,,,,,,,,,,,,,,,,,,,,,,,,,,,,,,,,,,,,,,,,,,,,,,,,,,,,,,,,,,,,,,,,,,,,,,,,,,,,,,,,,,,,,,,,,,,,,,,,,,,,,,,,,,,,,,,,,,,,,,,,,,,,,,,,,,,,,,,,
0,27,27,48,1,,6167e5b21fe4bb7b2579fa56,62bbf9cc78b360e771dcb992,2022-06-29_09h06.42.135,Colour_Asymmetry_Pilot,2022.1.3,Win32,59.19261276,62bbe60bf3d75ef465d3e404,,,,,,,,,,,,,,,,,,,,,,,,,,,,,,,,,,,,,,,,,,,,,,,,,,,,,,,,,,,,,,,,,,,,,,,,,,,,,,,,,,,,,,,,,,,,,,,,,,,,,,,,,,,,,,,,,,,,,,,,,,,,,,,,,,,,,,,,,,,,,,,,,,,,,,,,,,,,,,
0,28,28,16,1,,6167e5b21fe4bb7b2579fa56,62bbf9cc78b360e771dcb992,2022-06-29_09h06.42.135,Colour_Asymmetry_Pilot,2022.1.3,Win32,59.19261276,62bbe60bf3d75ef465d3e404,,,,,,,,,,,,,,,,,,,,,,,,,,,,,,,,,,,,,,,,,,,,,,,,,,,,,,,,,,,,,,,,,,,,,,,,,,,,,,,,,,,,,,,,,,,,,,,,,,,,,,,,,,,,,,,,,,,,,,,,,,,,,,,,,,,,,,,,,,,,,,,,,,,,,,,,,,,,,,
0,29,29,12,1,,6167e5b21fe4bb7b2579fa56,62bbf9cc78b360e771dcb992,2022-06-29_09h06.42.135,Colour_Asymmetry_Pilot,2022.1.3,Win32,59.19261276,62bbe60bf3d75ef465d3e404,,,,,,,,,,,,,,,,,,,,,,,,,,,,,,,,,,,,,,,,,,,,,,,,,,,,,,,,,,,,,,,,,,,,,,,,,,,,,,,,,,,,,,,,,,,,,,,,,,,,,,,,,,,,,,,,,,,,,,,,,,,,,,,,,,,,,,,,,,,,,,,,,,,,,,,,,,,,,,
0,30,30,8,1,,6167e5b21fe4bb7b2579fa56,62bbf9cc78b360e771dcb992,2022-06-29_09h06.42.135,Colour_Asymmetry_Pilot,2022.1.3,Win32,59.19261276,62bbe60bf3d75ef465d3e404,,,,,,,,,,,,,,,,,,,,,,,,,,,,,,,,,,,,,,,,,,,,,,,,,,,,,,,,,,,,,,,,,,,,,,,,,,,,,,,,,,,,,,,,,,,,,,,,,,,,,,,,,,,,,,,,,,,,,,,,,,,,,,,,,,,,,,,,,,,,,,,,,,,,,,,,,,,,,,
0,31,31,49,1,,6167e5b21fe4bb7b2579fa56,62bbf9cc78b360e771dcb992,2022-06-29_09h06.42.135,Colour_Asymmetry_Pilot,2022.1.3,Win32,59.19261276,62bbe60bf3d75ef465d3e404,,,,,,,,,,,,,,,,,,,,,,,,,,,,,,,,,,,,,,,,,,,,,,,,,,,,,,,,,,,,,,,,,,,,,,,,,,,,,,,,,,,,,,,,,,,,,,,,,,,,,,,,,,,,,,,,,,,,,,,,,,,,,,,,,,,,,,,,,,,,,,,,,,,,,,,,,,,,,,
0,32,32,83,1,,6167e5b21fe4bb7b2579fa56,62bbf9cc78b360e771dcb992,2022-06-29_09h06.42.135,Colour_Asymmetry_Pilot,2022.1.3,Win32,59.19261276,62bbe60bf3d75ef465d3e404,,,,,,,,,,,,,,,,,,,,,,,,,,,,,,,,,,,,,,,,,,,,,,,,,,,,,,,,,,,,,,,,,,,,,,,,,,,,,,,,,,,,,,,,,,,,,,,,,,,,,,,,,,,,,,,,,,,,,,,,,,,,,,,,,,,,,,,,,,,,,,,,,,,,,,,,,,,,,,
0,33,33,1,1,,6167e5b21fe4bb7b2579fa56,62bbf9cc78b360e771dcb992,2022-06-29_09h06.42.135,Colour_Asymmetry_Pilot,2022.1.3,Win32,59.19261276,62bbe60bf3d75ef465d3e404,,,,,,,,,,,,,,,,,,,,,,,,,,,,,,,,,,,,,,,,,,,,,,,,,,,,,,,,,,,,,,,,,,,,,,,,,,,,,,,,,,,,,,,,,,,,,,,,,,,,,,,,,,,,,,,,,,,,,,,,,,,,,,,,,,,,,,,,,,,,,,,,,,,,,,,,,,,,,,
0,34,34,39,1,,6167e5b21fe4bb7b2579fa56,62bbf9cc78b360e771dcb992,2022-06-29_09h06.42.135,Colour_Asymmetry_Pilot,2022.1.3,Win32,59.19261276,62bbe60bf3d75ef465d3e404,,,,,,,,,,,,,,,,,,,,,,,,,,,,,,,,,,,,,,,,,,,,,,,,,,,,,,,,,,,,,,,,,,,,,,,,,,,,,,,,,,,,,,,,,,,,,,,,,,,,,,,,,,,,,,,,,,,,,,,,,,,,,,,,,,,,,,,,,,,,,,,,,,,,,,,,,,,,,,
0,35,35,91,1,,6167e5b21fe4bb7b2579fa56,62bbf9cc78b360e771dcb992,2022-06-29_09h06.42.135,Colour_Asymmetry_Pilot,2022.1.3,Win32,59.19261276,62bbe60bf3d75ef465d3e404,,,,,,,,,,,,,,,,,,,,,,,,,,,,,,,,,,,,,,,,,,,,,,,,,,,,,,,,,,,,,,,,,,,,,,,,,,,,,,,,,,,,,,,,,,,,,,,,,,,,,,,,,,,,,,,,,,,,,,,,,,,,,,,,,,,,,,,,,,,,,,,,,,,,,,,,,,,,,,
0,36,36,32,1,,6167e5b21fe4bb7b2579fa56,62bbf9cc78b360e771dcb992,2022-06-29_09h06.42.135,Colour_Asymmetry_Pilot,2022.1.3,Win32,59.19261276,62bbe60bf3d75ef465d3e404,,,,,,,,,,,,,,,,,,,,,,,,,,,,,,,,,,,,,,,,,,,,,,,,,,,,,,,,,,,,,,,,,,,,,,,,,,,,,,,,,,,,,,,,,,,,,,,,,,,,,,,,,,,,,,,,,,,,,,,,,,,,,,,,,,,,,,,,,,,,,,,,,,,,,,,,,,,,,,
0,37,37,63,1,,6167e5b21fe4bb7b2579fa56,62bbf9cc78b360e771dcb992,2022-06-29_09h06.42.135,Colour_Asymmetry_Pilot,2022.1.3,Win32,59.19261276,62bbe60bf3d75ef465d3e404,,,,,,,,,,,,,,,,,,,,,,,,,,,,,,,,,,,,,,,,,,,,,,,,,,,,,,,,,,,,,,,,,,,,,,,,,,,,,,,,,,,,,,,,,,,,,,,,,,,,,,,,,,,,,,,,,,,,,,,,,,,,,,,,,,,,,,,,,,,,,,,,,,,,,,,,,,,,,,
0,38,38,70,1,,6167e5b21fe4bb7b2579fa56,62bbf9cc78b360e771dcb992,2022-06-29_09h06.42.135,Colour_Asymmetry_Pilot,2022.1.3,Win32,59.19261276,62bbe60bf3d75ef465d3e404,,,,,,,,,,,,,,,,,,,,,,,,,,,,,,,,,,,,,,,,,,,,,,,,,,,,,,,,,,,,,,,,,,,,,,,,,,,,,,,,,,,,,,,,,,,,,,,,,,,,,,,,,,,,,,,,,,,,,,,,,,,,,,,,,,,,,,,,,,,,,,,,,,,,,,,,,,,,,,
0,39,39,2,1,,6167e5b21fe4bb7b2579fa56,62bbf9cc78b360e771dcb992,2022-06-29_09h06.42.135,Colour_Asymmetry_Pilot,2022.1.3,Win32,59.19261276,62bbe60bf3d75ef465d3e404,,,,,,,,,,,,,,,,,,,,,,,,,,,,,,,,,,,,,,,,,,,,,,,,,,,,,,,,,,,,,,,,,,,,,,,,,,,,,,,,,,,,,,,,,,,,,,,,,,,,,,,,,,,,,,,,,,,,,,,,,,,,,,,,,,,,,,,,,,,,,,,,,,,,,,,,,,,,,,
0,40,40,15,1,,6167e5b21fe4bb7b2579fa56,62bbf9cc78b360e771dcb992,2022-06-29_09h06.42.135,Colour_Asymmetry_Pilot,2022.1.3,Win32,59.19261276,62bbe60bf3d75ef465d3e404,,,,,,,,,,,,,,,,,,,,,,,,,,,,,,,,,,,,,,,,,,,,,,,,,,,,,,,,,,,,,,,,,,,,,,,,,,,,,,,,,,,,,,,,,,,,,,,,,,,,,,,,,,,,,,,,,,,,,,,,,,,,,,,,,,,,,,,,,,,,,,,,,,,,,,,,,,,,,,
0,41,41,62,1,,6167e5b21fe4bb7b2579fa56,62bbf9cc78b360e771dcb992,2022-06-29_09h06.42.135,Colour_Asymmetry_Pilot,2022.1.3,Win32,59.19261276,62bbe60bf3d75ef465d3e404,,,,,,,,,,,,,,,,,,,,,,,,,,,,,,,,,,,,,,,,,,,,,,,,,,,,,,,,,,,,,,,,,,,,,,,,,,,,,,,,,,,,,,,,,,,,,,,,,,,,,,,,,,,,,,,,,,,,,,,,,,,,,,,,,,,,,,,,,,,,,,,,,,,,,,,,,,,,,,
0,42,42,28,1,,6167e5b21fe4bb7b2579fa56,62bbf9cc78b360e771dcb992,2022-06-29_09h06.42.135,Colour_Asymmetry_Pilot,2022.1.3,Win32,59.19261276,62bbe60bf3d75ef465d3e404,,,,,,,,,,,,,,,,,,,,,,,,,,,,,,,,,,,,,,,,,,,,,,,,,,,,,,,,,,,,,,,,,,,,,,,,,,,,,,,,,,,,,,,,,,,,,,,,,,,,,,,,,,,,,,,,,,,,,,,,,,,,,,,,,,,,,,,,,,,,,,,,,,,,,,,,,,,,,,
0,43,43,78,1,,6167e5b21fe4bb7b2579fa56,62bbf9cc78b360e771dcb992,2022-06-29_09h06.42.135,Colour_Asymmetry_Pilot,2022.1.3,Win32,59.19261276,62bbe60bf3d75ef465d3e404,,,,,,,,,,,,,,,,,,,,,,,,,,,,,,,,,,,,,,,,,,,,,,,,,,,,,,,,,,,,,,,,,,,,,,,,,,,,,,,,,,,,,,,,,,,,,,,,,,,,,,,,,,,,,,,,,,,,,,,,,,,,,,,,,,,,,,,,,,,,,,,,,,,,,,,,,,,,,,
0,44,44,14,1,,6167e5b21fe4bb7b2579fa56,62bbf9cc78b360e771dcb992,2022-06-29_09h06.42.135,Colour_Asymmetry_Pilot,2022.1.3,Win32,59.19261276,62bbe60bf3d75ef465d3e404,,,,,,,,,,,,,,,,,,,,,,,,,,,,,,,,,,,,,,,,,,,,,,,,,,,,,,,,,,,,,,,,,,,,,,,,,,,,,,,,,,,,,,,,,,,,,,,,,,,,,,,,,,,,,,,,,,,,,,,,,,,,,,,,,,,,,,,,,,,,,,,,,,,,,,,,,,,,,,
0,45,45,7,1,,6167e5b21fe4bb7b2579fa56,62bbf9cc78b360e771dcb992,2022-06-29_09h06.42.135,Colour_Asymmetry_Pilot,2022.1.3,Win32,59.19261276,62bbe60bf3d75ef465d3e404,,,,,,,,,,,,,,,,,,,,,,,,,,,,,,,,,,,,,,,,,,,,,,,,,,,,,,,,,,,,,,,,,,,,,,,,,,,,,,,,,,,,,,,,,,,,,,,,,,,,,,,,,,,,,,,,,,,,,,,,,,,,,,,,,,,,,,,,,,,,,,,,,,,,,,,,,,,,,,
0,46,46,9,1,,6167e5b21fe4bb7b2579fa56,62bbf9cc78b360e771dcb992,2022-06-29_09h06.42.135,Colour_Asymmetry_Pilot,2022.1.3,Win32,59.19261276,62bbe60bf3d75ef465d3e404,,,,,,,,,,,,,,,,,,,,,,,,,,,,,,,,,,,,,,,,,,,,,,,,,,,,,,,,,,,,,,,,,,,,,,,,,,,,,,,,,,,,,,,,,,,,,,,,,,,,,,,,,,,,,,,,,,,,,,,,,,,,,,,,,,,,,,,,,,,,,,,,,,,,,,,,,,,,,,
0,47,47,6,1,,6167e5b21fe4bb7b2579fa56,62bbf9cc78b360e771dcb992,2022-06-29_09h06.42.135,Colour_Asymmetry_Pilot,2022.1.3,Win32,59.19261276,62bbe60bf3d75ef465d3e404,,,,,,,,,,,,,,,,,,,,,,,,,,,,,,,,,,,,,,,,,,,,,,,,,,,,,,,,,,,,,,,,,,,,,,,,,,,,,,,,,,,,,,,,,,,,,,,,,,,,,,,,,,,,,,,,,,,,,,,,,,,,,,,,,,,,,,,,,,,,,,,,,,,,,,,,,,,,,,
0,48,48,61,1,,6167e5b21fe4bb7b2579fa56,62bbf9cc78b360e771dcb992,2022-06-29_09h06.42.135,Colour_Asymmetry_Pilot,2022.1.3,Win32,59.19261276,62bbe60bf3d75ef465d3e404,,,,,,,,,,,,,,,,,,,,,,,,,,,,,,,,,,,,,,,,,,,,,,,,,,,,,,,,,,,,,,,,,,,,,,,,,,,,,,,,,,,,,,,,,,,,,,,,,,,,,,,,,,,,,,,,,,,,,,,,,,,,,,,,,,,,,,,,,,,,,,,,,,,,,,,,,,,,,,
0,49,49,43,1,,6167e5b21fe4bb7b2579fa56,62bbf9cc78b360e771dcb992,2022-06-29_09h06.42.135,Colour_Asymmetry_Pilot,2022.1.3,Win32,59.19261276,62bbe60bf3d75ef465d3e404,,,,,,,,,,,,,,,,,,,,,,,,,,,,,,,,,,,,,,,,,,,,,,,,,,,,,,,,,,,,,,,,,,,,,,,,,,,,,,,,,,,,,,,,,,,,,,,,,,,,,,,,,,,,,,,,,,,,,,,,,,,,,,,,,,,,,,,,,,,,,,,,,,,,,,,,,,,,,,
0,50,50,68,1,,6167e5b21fe4bb7b2579fa56,62bbf9cc78b360e771dcb992,2022-06-29_09h06.42.135,Colour_Asymmetry_Pilot,2022.1.3,Win32,59.19261276,62bbe60bf3d75ef465d3e404,,,,,,,,,,,,,,,,,,,,,,,,,,,,,,,,,,,,,,,,,,,,,,,,,,,,,,,,,,,,,,,,,,,,,,,,,,,,,,,,,,,,,,,,,,,,,,,,,,,,,,,,,,,,,,,,,,,,,,,,,,,,,,,,,,,,,,,,,,,,,,,,,,,,,,,,,,,,,,
0,51,51,77,1,,6167e5b21fe4bb7b2579fa56,62bbf9cc78b360e771dcb992,2022-06-29_09h06.42.135,Colour_Asymmetry_Pilot,2022.1.3,Win32,59.19261276,62bbe60bf3d75ef465d3e404,,,,,,,,,,,,,,,,,,,,,,,,,,,,,,,,,,,,,,,,,,,,,,,,,,,,,,,,,,,,,,,,,,,,,,,,,,,,,,,,,,,,,,,,,,,,,,,,,,,,,,,,,,,,,,,,,,,,,,,,,,,,,,,,,,,,,,,,,,,,,,,,,,,,,,,,,,,,,,
0,52,52,57,1,,6167e5b21fe4bb7b2579fa56,62bbf9cc78b360e771dcb992,2022-06-29_09h06.42.135,Colour_Asymmetry_Pilot,2022.1.3,Win32,59.19261276,62bbe60bf3d75ef465d3e404,,,,,,,,,,,,,,,,,,,,,,,,,,,,,,,,,,,,,,,,,,,,,,,,,,,,,,,,,,,,,,,,,,,,,,,,,,,,,,,,,,,,,,,,,,,,,,,,,,,,,,,,,,,,,,,,,,,,,,,,,,,,,,,,,,,,,,,,,,,,,,,,,,,,,,,,,,,,,,
0,53,53,10,1,,6167e5b21fe4bb7b2579fa56,62bbf9cc78b360e771dcb992,2022-06-29_09h06.42.135,Colour_Asymmetry_Pilot,2022.1.3,Win32,59.19261276,62bbe60bf3d75ef465d3e404,,,,,,,,,,,,,,,,,,,,,,,,,,,,,,,,,,,,,,,,,,,,,,,,,,,,,,,,,,,,,,,,,,,,,,,,,,,,,,,,,,,,,,,,,,,,,,,,,,,,,,,,,,,,,,,,,,,,,,,,,,,,,,,,,,,,,,,,,,,,,,,,,,,,,,,,,,,,,,
0,54,54,92,1,,6167e5b21fe4bb7b2579fa56,62bbf9cc78b360e771dcb992,2022-06-29_09h06.42.135,Colour_Asymmetry_Pilot,2022.1.3,Win32,59.19261276,62bbe60bf3d75ef465d3e404,,,,,,,,,,,,,,,,,,,,,,,,,,,,,,,,,,,,,,,,,,,,,,,,,,,,,,,,,,,,,,,,,,,,,,,,,,,,,,,,,,,,,,,,,,,,,,,,,,,,,,,,,,,,,,,,,,,,,,,,,,,,,,,,,,,,,,,,,,,,,,,,,,,,,,,,,,,,,,
0,55,55,51,1,,6167e5b21fe4bb7b2579fa56,62bbf9cc78b360e771dcb992,2022-06-29_09h06.42.135,Colour_Asymmetry_Pilot,2022.1.3,Win32,59.19261276,62bbe60bf3d75ef465d3e404,,,,,,,,,,,,,,,,,,,,,,,,,,,,,,,,,,,,,,,,,,,,,,,,,,,,,,,,,,,,,,,,,,,,,,,,,,,,,,,,,,,,,,,,,,,,,,,,,,,,,,,,,,,,,,,,,,,,,,,,,,,,,,,,,,,,,,,,,,,,,,,,,,,,,,,,,,,,,,
0,56,56,31,1,,6167e5b21fe4bb7b2579fa56,62bbf9cc78b360e771dcb992,2022-06-29_09h06.42.135,Colour_Asymmetry_Pilot,2022.1.3,Win32,59.19261276,62bbe60bf3d75ef465d3e404,,,,,,,,,,,,,,,,,,,,,,,,,,,,,,,,,,,,,,,,,,,,,,,,,,,,,,,,,,,,,,,,,,,,,,,,,,,,,,,,,,,,,,,,,,,,,,,,,,,,,,,,,,,,,,,,,,,,,,,,,,,,,,,,,,,,,,,,,,,,,,,,,,,,,,,,,,,,,,
0,57,57,34,1,,6167e5b21fe4bb7b2579fa56,62bbf9cc78b360e771dcb992,2022-06-29_09h06.42.135,Colour_Asymmetry_Pilot,2022.1.3,Win32,59.19261276,62bbe60bf3d75ef465d3e404,,,,,,,,,,,,,,,,,,,,,,,,,,,,,,,,,,,,,,,,,,,,,,,,,,,,,,,,,,,,,,,,,,,,,,,,,,,,,,,,,,,,,,,,,,,,,,,,,,,,,,,,,,,,,,,,,,,,,,,,,,,,,,,,,,,,,,,,,,,,,,,,,,,,,,,,,,,,,,
0,58,58,29,1,,6167e5b21fe4bb7b2579fa56,62bbf9cc78b360e771dcb992,2022-06-29_09h06.42.135,Colour_Asymmetry_Pilot,2022.1.3,Win32,59.19261276,62bbe60bf3d75ef465d3e404,,,,,,,,,,,,,,,,,,,,,,,,,,,,,,,,,,,,,,,,,,,,,,,,,,,,,,,,,,,,,,,,,,,,,,,,,,,,,,,,,,,,,,,,,,,,,,,,,,,,,,,,,,,,,,,,,,,,,,,,,,,,,,,,,,,,,,,,,,,,,,,,,,,,,,,,,,,,,,
0,59,59,47,1,,6167e5b21fe4bb7b2579fa56,62bbf9cc78b360e771dcb992,2022-06-29_09h06.42.135,Colour_Asymmetry_Pilot,2022.1.3,Win32,59.19261276,62bbe60bf3d75ef465d3e404,,,,,,,,,,,,,,,,,,,,,,,,,,,,,,,,,,,,,,,,,,,,,,,,,,,,,,,,,,,,,,,,,,,,,,,,,,,,,,,,,,,,,,,,,,,,,,,,,,,,,,,,,,,,,,,,,,,,,,,,,,,,,,,,,,,,,,,,,,,,,,,,,,,,,,,,,,,,,,
0,60,60,17,1,,6167e5b21fe4bb7b2579fa56,62bbf9cc78b360e771dcb992,2022-06-29_09h06.42.135,Colour_Asymmetry_Pilot,2022.1.3,Win32,59.19261276,62bbe60bf3d75ef465d3e404,,,,,,,,,,,,,,,,,,,,,,,,,,,,,,,,,,,,,,,,,,,,,,,,,,,,,,,,,,,,,,,,,,,,,,,,,,,,,,,,,,,,,,,,,,,,,,,,,,,,,,,,,,,,,,,,,,,,,,,,,,,,,,,,,,,,,,,,,,,,,,,,,,,,,,,,,,,,,,
0,61,61,3,1,,6167e5b21fe4bb7b2579fa56,62bbf9cc78b360e771dcb992,2022-06-29_09h06.42.135,Colour_Asymmetry_Pilot,2022.1.3,Win32,59.19261276,62bbe60bf3d75ef465d3e404,,,,,,,,,,,,,,,,,,,,,,,,,,,,,,,,,,,,,,,,,,,,,,,,,,,,,,,,,,,,,,,,,,,,,,,,,,,,,,,,,,,,,,,,,,,,,,,,,,,,,,,,,,,,,,,,,,,,,,,,,,,,,,,,,,,,,,,,,,,,,,,,,,,,,,,,,,,,,,
0,62,62,26,1,,6167e5b21fe4bb7b2579fa56,62bbf9cc78b360e771dcb992,2022-06-29_09h06.42.135,Colour_Asymmetry_Pilot,2022.1.3,Win32,59.19261276,62bbe60bf3d75ef465d3e404,,,,,,,,,,,,,,,,,,,,,,,,,,,,,,,,,,,,,,,,,,,,,,,,,,,,,,,,,,,,,,,,,,,,,,,,,,,,,,,,,,,,,,,,,,,,,,,,,,,,,,,,,,,,,,,,,,,,,,,,,,,,,,,,,,,,,,,,,,,,,,,,,,,,,,,,,,,,,,
0,63,63,90,1,,6167e5b21fe4bb7b2579fa56,62bbf9cc78b360e771dcb992,2022-06-29_09h06.42.135,Colour_Asymmetry_Pilot,2022.1.3,Win32,59.19261276,62bbe60bf3d75ef465d3e404,,,,,,,,,,,,,,,,,,,,,,,,,,,,,,,,,,,,,,,,,,,,,,,,,,,,,,,,,,,,,,,,,,,,,,,,,,,,,,,,,,,,,,,,,,,,,,,,,,,,,,,,,,,,,,,,,,,,,,,,,,,,,,,,,,,,,,,,,,,,,,,,,,,,,,,,,,,,,,
0,64,64,82,1,,6167e5b21fe4bb7b2579fa56,62bbf9cc78b360e771dcb992,2022-06-29_09h06.42.135,Colour_Asymmetry_Pilot,2022.1.3,Win32,59.19261276,62bbe60bf3d75ef465d3e404,,,,,,,,,,,,,,,,,,,,,,,,,,,,,,,,,,,,,,,,,,,,,,,,,,,,,,,,,,,,,,,,,,,,,,,,,,,,,,,,,,,,,,,,,,,,,,,,,,,,,,,,,,,,,,,,,,,,,,,,,,,,,,,,,,,,,,,,,,,,,,,,,,,,,,,,,,,,,,
0,65,65,89,1,,6167e5b21fe4bb7b2579fa56,62bbf9cc78b360e771dcb992,2022-06-29_09h06.42.135,Colour_Asymmetry_Pilot,2022.1.3,Win32,59.19261276,62bbe60bf3d75ef465d3e404,,,,,,,,,,,,,,,,,,,,,,,,,,,,,,,,,,,,,,,,,,,,,,,,,,,,,,,,,,,,,,,,,,,,,,,,,,,,,,,,,,,,,,,,,,,,,,,,,,,,,,,,,,,,,,,,,,,,,,,,,,,,,,,,,,,,,,,,,,,,,,,,,,,,,,,,,,,,,,
0,66,66,20,1,,6167e5b21fe4bb7b2579fa56,62bbf9cc78b360e771dcb992,2022-06-29_09h06.42.135,Colour_Asymmetry_Pilot,2022.1.3,Win32,59.19261276,62bbe60bf3d75ef465d3e404,,,,,,,,,,,,,,,,,,,,,,,,,,,,,,,,,,,,,,,,,,,,,,,,,,,,,,,,,,,,,,,,,,,,,,,,,,,,,,,,,,,,,,,,,,,,,,,,,,,,,,,,,,,,,,,,,,,,,,,,,,,,,,,,,,,,,,,,,,,,,,,,,,,,,,,,,,,,,,
0,67,67,35,1,,6167e5b21fe4bb7b2579fa56,62bbf9cc78b360e771dcb992,2022-06-29_09h06.42.135,Colour_Asymmetry_Pilot,2022.1.3,Win32,59.19261276,62bbe60bf3d75ef465d3e404,,,,,,,,,,,,,,,,,,,,,,,,,,,,,,,,,,,,,,,,,,,,,,,,,,,,,,,,,,,,,,,,,,,,,,,,,,,,,,,,,,,,,,,,,,,,,,,,,,,,,,,,,,,,,,,,,,,,,,,,,,,,,,,,,,,,,,,,,,,,,,,,,,,,,,,,,,,,,,
0,68,68,4,1,,6167e5b21fe4bb7b2579fa56,62bbf9cc78b360e771dcb992,2022-06-29_09h06.42.135,Colour_Asymmetry_Pilot,2022.1.3,Win32,59.19261276,62bbe60bf3d75ef465d3e404,,,,,,,,,,,,,,,,,,,,,,,,,,,,,,,,,,,,,,,,,,,,,,,,,,,,,,,,,,,,,,,,,,,,,,,,,,,,,,,,,,,,,,,,,,,,,,,,,,,,,,,,,,,,,,,,,,,,,,,,,,,,,,,,,,,,,,,,,,,,,,,,,,,,,,,,,,,,,,
0,69,69,71,1,,6167e5b21fe4bb7b2579fa56,62bbf9cc78b360e771dcb992,2022-06-29_09h06.42.135,Colour_Asymmetry_Pilot,2022.1.3,Win32,59.19261276,62bbe60bf3d75ef465d3e404,,,,,,,,,,,,,,,,,,,,,,,,,,,,,,,,,,,,,,,,,,,,,,,,,,,,,,,,,,,,,,,,,,,,,,,,,,,,,,,,,,,,,,,,,,,,,,,,,,,,,,,,,,,,,,,,,,,,,,,,,,,,,,,,,,,,,,,,,,,,,,,,,,,,,,,,,,,,,,
0,70,70,80,1,,6167e5b21fe4bb7b2579fa56,62bbf9cc78b360e771dcb992,2022-06-29_09h06.42.135,Colour_Asymmetry_Pilot,2022.1.3,Win32,59.19261276,62bbe60bf3d75ef465d3e404,,,,,,,,,,,,,,,,,,,,,,,,,,,,,,,,,,,,,,,,,,,,,,,,,,,,,,,,,,,,,,,,,,,,,,,,,,,,,,,,,,,,,,,,,,,,,,,,,,,,,,,,,,,,,,,,,,,,,,,,,,,,,,,,,,,,,,,,,,,,,,,,,,,,,,,,,,,,,,
0,71,71,86,1,,6167e5b21fe4bb7b2579fa56,62bbf9cc78b360e771dcb992,2022-06-29_09h06.42.135,Colour_Asymmetry_Pilot,2022.1.3,Win32,59.19261276,62bbe60bf3d75ef465d3e404,,,,,,,,,,,,,,,,,,,,,,,,,,,,,,,,,,,,,,,,,,,,,,,,,,,,,,,,,,,,,,,,,,,,,,,,,,,,,,,,,,,,,,,,,,,,,,,,,,,,,,,,,,,,,,,,,,,,,,,,,,,,,,,,,,,,,,,,,,,,,,,,,,,,,,,,,,,,,,
0,72,72,56,1,,6167e5b21fe4bb7b2579fa56,62bbf9cc78b360e771dcb992,2022-06-29_09h06.42.135,Colour_Asymmetry_Pilot,2022.1.3,Win32,59.19261276,62bbe60bf3d75ef465d3e404,,,,,,,,,,,,,,,,,,,,,,,,,,,,,,,,,,,,,,,,,,,,,,,,,,,,,,,,,,,,,,,,,,,,,,,,,,,,,,,,,,,,,,,,,,,,,,,,,,,,,,,,,,,,,,,,,,,,,,,,,,,,,,,,,,,,,,,,,,,,,,,,,,,,,,,,,,,,,,
0,73,73,73,1,,6167e5b21fe4bb7b2579fa56,62bbf9cc78b360e771dcb992,2022-06-29_09h06.42.135,Colour_Asymmetry_Pilot,2022.1.3,Win32,59.19261276,62bbe60bf3d75ef465d3e404,,,,,,,,,,,,,,,,,,,,,,,,,,,,,,,,,,,,,,,,,,,,,,,,,,,,,,,,,,,,,,,,,,,,,,,,,,,,,,,,,,,,,,,,,,,,,,,,,,,,,,,,,,,,,,,,,,,,,,,,,,,,,,,,,,,,,,,,,,,,,,,,,,,,,,,,,,,,,,
0,74,74,13,1,,6167e5b21fe4bb7b2579fa56,62bbf9cc78b360e771dcb992,2022-06-29_09h06.42.135,Colour_Asymmetry_Pilot,2022.1.3,Win32,59.19261276,62bbe60bf3d75ef465d3e404,,,,,,,,,,,,,,,,,,,,,,,,,,,,,,,,,,,,,,,,,,,,,,,,,,,,,,,,,,,,,,,,,,,,,,,,,,,,,,,,,,,,,,,,,,,,,,,,,,,,,,,,,,,,,,,,,,,,,,,,,,,,,,,,,,,,,,,,,,,,,,,,,,,,,,,,,,,,,,
0,75,75,21,1,,6167e5b21fe4bb7b2579fa56,62bbf9cc78b360e771dcb992,2022-06-29_09h06.42.135,Colour_Asymmetry_Pilot,2022.1.3,Win32,59.19261276,62bbe60bf3d75ef465d3e404,,,,,,,,,,,,,,,,,,,,,,,,,,,,,,,,,,,,,,,,,,,,,,,,,,,,,,,,,,,,,,,,,,,,,,,,,,,,,,,,,,,,,,,,,,,,,,,,,,,,,,,,,,,,,,,,,,,,,,,,,,,,,,,,,,,,,,,,,,,,,,,,,,,,,,,,,,,,,,
0,76,76,66,1,,6167e5b21fe4bb7b2579fa56,62bbf9cc78b360e771dcb992,2022-06-29_09h06.42.135,Colour_Asymmetry_Pilot,2022.1.3,Win32,59.19261276,62bbe60bf3d75ef465d3e404,,,,,,,,,,,,,,,,,,,,,,,,,,,,,,,,,,,,,,,,,,,,,,,,,,,,,,,,,,,,,,,,,,,,,,,,,,,,,,,,,,,,,,,,,,,,,,,,,,,,,,,,,,,,,,,,,,,,,,,,,,,,,,,,,,,,,,,,,,,,,,,,,,,,,,,,,,,,,,
0,77,77,55,1,,6167e5b21fe4bb7b2579fa56,62bbf9cc78b360e771dcb992,2022-06-29_09h06.42.135,Colour_Asymmetry_Pilot,2022.1.3,Win32,59.19261276,62bbe60bf3d75ef465d3e404,,,,,,,,,,,,,,,,,,,,,,,,,,,,,,,,,,,,,,,,,,,,,,,,,,,,,,,,,,,,,,,,,,,,,,,,,,,,,,,,,,,,,,,,,,,,,,,,,,,,,,,,,,,,,,,,,,,,,,,,,,,,,,,,,,,,,,,,,,,,,,,,,,,,,,,,,,,,,,
0,78,78,76,1,,6167e5b21fe4bb7b2579fa56,62bbf9cc78b360e771dcb992,2022-06-29_09h06.42.135,Colour_Asymmetry_Pilot,2022.1.3,Win32,59.19261276,62bbe60bf3d75ef465d3e404,,,,,,,,,,,,,,,,,,,,,,,,,,,,,,,,,,,,,,,,,,,,,,,,,,,,,,,,,,,,,,,,,,,,,,,,,,,,,,,,,,,,,,,,,,,,,,,,,,,,,,,,,,,,,,,,,,,,,,,,,,,,,,,,,,,,,,,,,,,,,,,,,,,,,,,,,,,,,,
0,79,79,33,1,,6167e5b21fe4bb7b2579fa56,62bbf9cc78b360e771dcb992,2022-06-29_09h06.42.135,Colour_Asymmetry_Pilot,2022.1.3,Win32,59.19261276,62bbe60bf3d75ef465d3e404,,,,,,,,,,,,,,,,,,,,,,,,,,,,,,,,,,,,,,,,,,,,,,,,,,,,,,,,,,,,,,,,,,,,,,,,,,,,,,,,,,,,,,,,,,,,,,,,,,,,,,,,,,,,,,,,,,,,,,,,,,,,,,,,,,,,,,,,,,,,,,,,,,,,,,,,,,,,,,
0,80,80,84,1,,6167e5b21fe4bb7b2579fa56,62bbf9cc78b360e771dcb992,2022-06-29_09h06.42.135,Colour_Asymmetry_Pilot,2022.1.3,Win32,59.19261276,62bbe60bf3d75ef465d3e404,,,,,,,,,,,,,,,,,,,,,,,,,,,,,,,,,,,,,,,,,,,,,,,,,,,,,,,,,,,,,,,,,,,,,,,,,,,,,,,,,,,,,,,,,,,,,,,,,,,,,,,,,,,,,,,,,,,,,,,,,,,,,,,,,,,,,,,,,,,,,,,,,,,,,,,,,,,,,,
0,81,81,67,1,,6167e5b21fe4bb7b2579fa56,62bbf9cc78b360e771dcb992,2022-06-29_09h06.42.135,Colour_Asymmetry_Pilot,2022.1.3,Win32,59.19261276,62bbe60bf3d75ef465d3e404,,,,,,,,,,,,,,,,,,,,,,,,,,,,,,,,,,,,,,,,,,,,,,,,,,,,,,,,,,,,,,,,,,,,,,,,,,,,,,,,,,,,,,,,,,,,,,,,,,,,,,,,,,,,,,,,,,,,,,,,,,,,,,,,,,,,,,,,,,,,,,,,,,,,,,,,,,,,,,
0,82,82,72,1,,6167e5b21fe4bb7b2579fa56,62bbf9cc78b360e771dcb992,2022-06-29_09h06.42.135,Colour_Asymmetry_Pilot,2022.1.3,Win32,59.19261276,62bbe60bf3d75ef465d3e404,,,,,,,,,,,,,,,,,,,,,,,,,,,,,,,,,,,,,,,,,,,,,,,,,,,,,,,,,,,,,,,,,,,,,,,,,,,,,,,,,,,,,,,,,,,,,,,,,,,,,,,,,,,,,,,,,,,,,,,,,,,,,,,,,,,,,,,,,,,,,,,,,,,,,,,,,,,,,,
0,83,83,25,1,,6167e5b21fe4bb7b2579fa56,62bbf9cc78b360e771dcb992,2022-06-29_09h06.42.135,Colour_Asymmetry_Pilot,2022.1.3,Win32,59.19261276,62bbe60bf3d75ef465d3e404,,,,,,,,,,,,,,,,,,,,,,,,,,,,,,,,,,,,,,,,,,,,,,,,,,,,,,,,,,,,,,,,,,,,,,,,,,,,,,,,,,,,,,,,,,,,,,,,,,,,,,,,,,,,,,,,,,,,,,,,,,,,,,,,,,,,,,,,,,,,,,,,,,,,,,,,,,,,,,
0,84,84,18,1,,6167e5b21fe4bb7b2579fa56,62bbf9cc78b360e771dcb992,2022-06-29_09h06.42.135,Colour_Asymmetry_Pilot,2022.1.3,Win32,59.19261276,62bbe60bf3d75ef465d3e404,,,,,,,,,,,,,,,,,,,,,,,,,,,,,,,,,,,,,,,,,,,,,,,,,,,,,,,,,,,,,,,,,,,,,,,,,,,,,,,,,,,,,,,,,,,,,,,,,,,,,,,,,,,,,,,,,,,,,,,,,,,,,,,,,,,,,,,,,,,,,,,,,,,,,,,,,,,,,,
0,85,85,54,1,,6167e5b21fe4bb7b2579fa56,62bbf9cc78b360e771dcb992,2022-06-29_09h06.42.135,Colour_Asymmetry_Pilot,2022.1.3,Win32,59.19261276,62bbe60bf3d75ef465d3e404,,,,,,,,,,,,,,,,,,,,,,,,,,,,,,,,,,,,,,,,,,,,,,,,,,,,,,,,,,,,,,,,,,,,,,,,,,,,,,,,,,,,,,,,,,,,,,,,,,,,,,,,,,,,,,,,,,,,,,,,,,,,,,,,,,,,,,,,,,,,,,,,,,,,,,,,,,,,,,
0,86,86,41,1,,6167e5b21fe4bb7b2579fa56,62bbf9cc78b360e771dcb992,2022-06-29_09h06.42.135,Colour_Asymmetry_Pilot,2022.1.3,Win32,59.19261276,62bbe60bf3d75ef465d3e404,,,,,,,,,,,,,,,,,,,,,,,,,,,,,,,,,,,,,,,,,,,,,,,,,,,,,,,,,,,,,,,,,,,,,,,,,,,,,,,,,,,,,,,,,,,,,,,,,,,,,,,,,,,,,,,,,,,,,,,,,,,,,,,,,,,,,,,,,,,,,,,,,,,,,,,,,,,,,,
0,87,87,45,1,,6167e5b21fe4bb7b2579fa56,62bbf9cc78b360e771dcb992,2022-06-29_09h06.42.135,Colour_Asymmetry_Pilot,2022.1.3,Win32,59.19261276,62bbe60bf3d75ef465d3e404,,,,,,,,,,,,,,,,,,,,,,,,,,,,,,,,,,,,,,,,,,,,,,,,,,,,,,,,,,,,,,,,,,,,,,,,,,,,,,,,,,,,,,,,,,,,,,,,,,,,,,,,,,,,,,,,,,,,,,,,,,,,,,,,,,,,,,,,,,,,,,,,,,,,,,,,,,,,,,
0,88,88,81,1,,6167e5b21fe4bb7b2579fa56,62bbf9cc78b360e771dcb992,2022-06-29_09h06.42.135,Colour_Asymmetry_Pilot,2022.1.3,Win32,59.19261276,62bbe60bf3d75ef465d3e404,,,,,,,,,,,,,,,,,,,,,,,,,,,,,,,,,,,,,,,,,,,,,,,,,,,,,,,,,,,,,,,,,,,,,,,,,,,,,,,,,,,,,,,,,,,,,,,,,,,,,,,,,,,,,,,,,,,,,,,,,,,,,,,,,,,,,,,,,,,,,,,,,,,,,,,,,,,,,,
0,89,89,65,1,,6167e5b21fe4bb7b2579fa56,62bbf9cc78b360e771dcb992,2022-06-29_09h06.42.135,Colour_Asymmetry_Pilot,2022.1.3,Win32,59.19261276,62bbe60bf3d75ef465d3e404,,,,,,,,,,,,,,,,,,,,,,,,,,,,,,,,,,,,,,,,,,,,,,,,,,,,,,,,,,,,,,,,,,,,,,,,,,,,,,,,,,,,,,,,,,,,,,,,,,,,,,,,,,,,,,,,,,,,,,,,,,,,,,,,,,,,,,,,,,,,,,,,,,,,,,,,,,,,,,
0,90,90,27,1,,6167e5b21fe4bb7b2579fa56,62bbf9cc78b360e771dcb992,2022-06-29_09h06.42.135,Colour_Asymmetry_Pilot,2022.1.3,Win32,59.19261276,62bbe60bf3d75ef465d3e404,,,,,,,,,,,,,,,,,,,,,,,,,,,,,,,,,,,,,,,,,,,,,,,,,,,,,,,,,,,,,,,,,,,,,,,,,,,,,,,,,,,,,,,,,,,,,,,,,,,,,,,,,,,,,,,,,,,,,,,,,,,,,,,,,,,,,,,,,,,,,,,,,,,,,,,,,,,,,,
0,91,91,23,1,,6167e5b21fe4bb7b2579fa56,62bbf9cc78b360e771dcb992,2022-06-29_09h06.42.135,Colour_Asymmetry_Pilot,2022.1.3,Win32,59.19261276,62bbe60bf3d75ef465d3e404,,,,,,,,,,,,,,,,,,,,,,,,,,,,,,,,,,,,,,,,,,,,,,,,,,,,,,,,,,,,,,,,,,,,,,,,,,,,,,,,,,,,,,,,,,,,,,,,,,,,,,,,,,,,,,,,,,,,,,,,,,,,,,,,,,,,,,,,,,,,,,,,,,,,,,,,,,,,,,
0,92,92,19,1,,6167e5b21fe4bb7b2579fa56,62bbf9cc78b360e771dcb992,2022-06-29_09h06.42.135,Colour_Asymmetry_Pilot,2022.1.3,Win32,59.19261276,62bbe60bf3d75ef465d3e404,,,,,,,,,,,,,,,,,,,,,,,,,,,,,,,,,,,,,,,,,,,,,,,,,,,,,,,,,,,,,,,,,,,,,,,,,,,,,,,,,,,,,,,,,,,,,,,,,,,,,,,,,,,,,,,,,,,,,,,,,,,,,,,,,,,,,,,,,,,,,,,,,,,,,,,,,,,,,,
,,,,,,6167e5b21fe4bb7b2579fa56,62bbf9cc78b360e771dcb992,2022-06-29_09h06.42.135,Colour_Asymmetry_Pilot,2022.1.3,Win32,59.19261276,62bbe60bf3d75ef465d3e404,0,0,0,135,1,fourthree,,,,,,,,,,,,,,,,,,,,,,,,,,,,,,,,,,,,,,,,,,,,,,,,,,,,,,,,,,,,,,,,,,,,,,,,,,,,,,,,,,,,,,,,,,,,,,,,,,,,,,,,,,,,,,,,,,,,,,,,,,,,,,,,,,,,,,,,,,,,,,,,,,,,,,,,
,,,,,,6167e5b21fe4bb7b2579fa56,62bbf9cc78b360e771dcb992,2022-06-29_09h06.42.135,Colour_Asymmetry_Pilot,2022.1.3,Win32,59.19261276,62bbe60bf3d75ef465d3e404,0,1,1,79,1,fourthree,,,,,,,,,,,,,,,,,,,,,,,,,,,,,,,,,,,,,,,,,,,,,,,,,,,,,,,,,,,,,,,,,,,,,,,,,,,,,,,,,,,,,,,,,,,,,,,,,,,,,,,,,,,,,,,,,,,,,,,,,,,,,,,,,,,,,,,,,,,,,,,,,,,,,,,,
,,,,,,6167e5b21fe4bb7b2579fa56,62bbf9cc78b360e771dcb992,2022-06-29_09h06.42.135,Colour_Asymmetry_Pilot,2022.1.3,Win32,59.19261276,62bbe60bf3d75ef465d3e404,0,2,2,128,1,onetwo,,,,,,,,,,,,,,,,,,,,,,,,,,,,,,,,,,,,,,,,,,,,,,,,,,,,,,,,,,,,,,,,,,,,,,,,,,,,,,,,,,,,,,,,,,,,,,,,,,,,,,,,,,,,,,,,,,,,,,,,,,,,,,,,,,,,,,,,,,,,,,,,,,,,,,,,
,,,,,,6167e5b21fe4bb7b2579fa56,62bbf9cc78b360e771dcb992,2022-06-29_09h06.42.135,Colour_Asymmetry_Pilot,2022.1.3,Win32,59.19261276,62bbe60bf3d75ef465d3e404,0,3,3,134,1,fourtwo,,,,,,,,,,,,,,,,,,,,,,,,,,,,,,,,,,,,,,,,,,,,,,,,,,,,,,,,,,,,,,,,,,,,,,,,,,,,,,,,,,,,,,,,,,,,,,,,,,,,,,,,,,,,,,,,,,,,,,,,,,,,,,,,,,,,,,,,,,,,,,,,,,,,,,,,
,,,,,,6167e5b21fe4bb7b2579fa56,62bbf9cc78b360e771dcb992,2022-06-29_09h06.42.135,Colour_Asymmetry_Pilot,2022.1.3,Win32,59.19261276,62bbe60bf3d75ef465d3e404,0,4,4,151,1,fourthree,,,,,,,,,,,,,,,,,,,,,,,,,,,,,,,,,,,,,,,,,,,,,,,,,,,,,,,,,,,,,,,,,,,,,,,,,,,,,,,,,,,,,,,,,,,,,,,,,,,,,,,,,,,,,,,,,,,,,,,,,,,,,,,,,,,,,,,,,,,,,,,,,,,,,,,,
,,,,,,6167e5b21fe4bb7b2579fa56,62bbf9cc78b360e771dcb992,2022-06-29_09h06.42.135,Colour_Asymmetry_Pilot,2022.1.3,Win32,59.19261276,62bbe60bf3d75ef465d3e404,0,5,5,35,1,twofour,,,,,,,,,,,,,,,,,,,,,,,,,,,,,,,,,,,,,,,,,,,,,,,,,,,,,,,,,,,,,,,,,,,,,,,,,,,,,,,,,,,,,,,,,,,,,,,,,,,,,,,,,,,,,,,,,,,,,,,,,,,,,,,,,,,,,,,,,,,,,,,,,,,,,,,,
,,,,,,6167e5b21fe4bb7b2579fa56,62bbf9cc78b360e771dcb992,2022-06-29_09h06.42.135,Colour_Asymmetry_Pilot,2022.1.3,Win32,59.19261276,62bbe60bf3d75ef465d3e404,0,6,6,130,1,twoone,,,,,,,,,,,,,,,,,,,,,,,,,,,,,,,,,,,,,,,,,,,,,,,,,,,,,,,,,,,,,,,,,,,,,,,,,,,,,,,,,,,,,,,,,,,,,,,,,,,,,,,,,,,,,,,,,,,,,,,,,,,,,,,,,,,,,,,,,,,,,,,,,,,,,,,,
,,,,,,6167e5b21fe4bb7b2579fa56,62bbf9cc78b360e771dcb992,2022-06-29_09h06.42.135,Colour_Asymmetry_Pilot,2022.1.3,Win32,59.19261276,62bbe60bf3d75ef465d3e404,0,7,7,158,1,fourtwo,,,,,,,,,,,,,,,,,,,,,,,,,,,,,,,,,,,,,,,,,,,,,,,,,,,,,,,,,,,,,,,,,,,,,,,,,,,,,,,,,,,,,,,,,,,,,,,,,,,,,,,,,,,,,,,,,,,,,,,,,,,,,,,,,,,,,,,,,,,,,,,,,,,,,,,,
,,,,,,6167e5b21fe4bb7b2579fa56,62bbf9cc78b360e771dcb992,2022-06-29_09h06.42.135,Colour_Asymmetry_Pilot,2022.1.3,Win32,59.19261276,62bbe60bf3d75ef465d3e404,0,8,8,101,1,threefour,,,,,,,,,,,,,,,,,,,,,,,,,,,,,,,,,,,,,,,,,,,,,,,,,,,,,,,,,,,,,,,,,,,,,,,,,,,,,,,,,,,,,,,,,,,,,,,,,,,,,,,,,,,,,,,,,,,,,,,,,,,,,,,,,,,,,,,,,,,,,,,,,,,,,,,,
,,,,,,6167e5b21fe4bb7b2579fa56,62bbf9cc78b360e771dcb992,2022-06-29_09h06.42.135,Colour_Asymmetry_Pilot,2022.1.3,Win32,59.19261276,62bbe60bf3d75ef465d3e404,0,9,9,3,1,twofour,,,,,,,,,,,,,,,,,,,,,,,,,,,,,,,,,,,,,,,,,,,,,,,,,,,,,,,,,,,,,,,,,,,,,,,,,,,,,,,,,,,,,,,,,,,,,,,,,,,,,,,,,,,,,,,,,,,,,,,,,,,,,,,,,,,,,,,,,,,,,,,,,,,,,,,,
,,,,,,6167e5b21fe4bb7b2579fa56,62bbf9cc78b360e771dcb992,2022-06-29_09h06.42.135,Colour_Asymmetry_Pilot,2022.1.3,Win32,59.19261276,62bbe60bf3d75ef465d3e404,0,10,10,100,1,threeone,,,,,,,,,,,,,,,,,,,,,,,,,,,,,,,,,,,,,,,,,,,,,,,,,,,,,,,,,,,,,,,,,,,,,,,,,,,,,,,,,,,,,,,,,,,,,,,,,,,,,,,,,,,,,,,,,,,,,,,,,,,,,,,,,,,,,,,,,,,,,,,,,,,,,,,,
,,,,,,6167e5b21fe4bb7b2579fa56,62bbf9cc78b360e771dcb992,2022-06-29_09h06.42.135,Colour_Asymmetry_Pilot,2022.1.3,Win32,59.19261276,62bbe60bf3d75ef465d3e404,0,11,11,9,1,onethree,,,,,,,,,,,,,,,,,,,,,,,,,,,,,,,,,,,,,,,,,,,,,,,,,,,,,,,,,,,,,,,,,,,,,,,,,,,,,,,,,,,,,,,,,,,,,,,,,,,,,,,,,,,,,,,,,,,,,,,,,,,,,,,,,,,,,,,,,,,,,,,,,,,,,,,,
,,,,,,6167e5b21fe4bb7b2579fa56,62bbf9cc78b360e771dcb992,2022-06-29_09h06.42.135,Colour_Asymmetry_Pilot,2022.1.3,Win32,59.19261276,62bbe60bf3d75ef465d3e404,0,12,12,105,1,onethree,,,,,,,,,,,,,,,,,,,,,,,,,,,,,,,,,,,,,,,,,,,,,,,,,,,,,,,,,,,,,,,,,,,,,,,,,,,,,,,,,,,,,,,,,,,,,,,,,,,,,,,,,,,,,,,,,,,,,,,,,,,,,,,,,,,,,,,,,,,,,,,,,,,,,,,,
,,,,,,6167e5b21fe4bb7b2579fa56,62bbf9cc78b360e771dcb992,2022-06-29_09h06.42.135,Colour_Asymmetry_Pilot,2022.1.3,Win32,59.19261276,62bbe60bf3d75ef465d3e404,0,13,13,86,1,fourtwo,,,,,,,,,,,,,,,,,,,,,,,,,,,,,,,,,,,,,,,,,,,,,,,,,,,,,,,,,,,,,,,,,,,,,,,,,,,,,,,,,,,,,,,,,,,,,,,,,,,,,,,,,,,,,,,,,,,,,,,,,,,,,,,,,,,,,,,,,,,,,,,,,,,,,,,,
,,,,,,6167e5b21fe4bb7b2579fa56,62bbf9cc78b360e771dcb992,2022-06-29_09h06.42.135,Colour_Asymmetry_Pilot,2022.1.3,Win32,59.19261276,62bbe60bf3d75ef465d3e404,0,14,14,0,1,onetwo,,,,,,,,,,,,,,,,,,,,,,,,,,,,,,,,,,,,,,,,,,,,,,,,,,,,,,,,,,,,,,,,,,,,,,,,,,,,,,,,,,,,,,,,,,,,,,,,,,,,,,,,,,,,,,,,,,,,,,,,,,,,,,,,,,,,,,,,,,,,,,,,,,,,,,,,
,,,,,,6167e5b21fe4bb7b2579fa56,62bbf9cc78b360e771dcb992,2022-06-29_09h06.42.135,Colour_Asymmetry_Pilot,2022.1.3,Win32,59.19261276,62bbe60bf3d75ef465d3e404,0,15,15,27,1,twofour,,,,,,,,,,,,,,,,,,,,,,,,,,,,,,,,,,,,,,,,,,,,,,,,,,,,,,,,,,,,,,,,,,,,,,,,,,,,,,,,,,,,,,,,,,,,,,,,,,,,,,,,,,,,,,,,,,,,,,,,,,,,,,,,,,,,,,,,,,,,,,,,,,,,,,,,
,,,,,,6167e5b21fe4bb7b2579fa56,62bbf9cc78b360e771dcb992,2022-06-29_09h06.42.135,Colour_Asymmetry_Pilot,2022.1.3,Win32,59.19261276,62bbe60bf3d75ef465d3e404,0,16,16,140,1,threeone,,,,,,,,,,,,,,,,,,,,,,,,,,,,,,,,,,,,,,,,,,,,,,,,,,,,,,,,,,,,,,,,,,,,,,,,,,,,,,,,,,,,,,,,,,,,,,,,,,,,,,,,,,,,,,,,,,,,,,,,,,,,,,,,,,,,,,,,,,,,,,,,,,,,,,,,
,,,,,,6167e5b21fe4bb7b2579fa56,62bbf9cc78b360e771dcb992,2022-06-29_09h06.42.135,Colour_Asymmetry_Pilot,2022.1.3,Win32,59.19261276,62bbe60bf3d75ef465d3e404,0,17,17,144,1,onetwo,,,,,,,,,,,,,,,,,,,,,,,,,,,,,,,,,,,,,,,,,,,,,,,,,,,,,,,,,,,,,,,,,,,,,,,,,,,,,,,,,,,,,,,,,,,,,,,,,,,,,,,,,,,,,,,,,,,,,,,,,,,,,,,,,,,,,,,,,,,,,,,,,,,,,,,,
,,,,,,6167e5b21fe4bb7b2579fa56,62bbf9cc78b360e771dcb992,2022-06-29_09h06.42.135,Colour_Asymmetry_Pilot,2022.1.3,Win32,59.19261276,62bbe60bf3d75ef465d3e404,0,18,18,91,1,twofour,,,,,,,,,,,,,,,,,,,,,,,,,,,,,,,,,,,,,,,,,,,,,,,,,,,,,,,,,,,,,,,,,,,,,,,,,,,,,,,,,,,,,,,,,,,,,,,,,,,,,,,,,,,,,,,,,,,,,,,,,,,,,,,,,,,,,,,,,,,,,,,,,,,,,,,,
,,,,,,6167e5b21fe4bb7b2579fa56,62bbf9cc78b360e771dcb992,2022-06-29_09h06.42.135,Colour_Asymmetry_Pilot,2022.1.3,Win32,59.19261276,62bbe60bf3d75ef465d3e404,0,19,19,116,1,threeone,,,,,,,,,,,,,,,,,,,,,,,,,,,,,,,,,,,,,,,,,,,,,,,,,,,,,,,,,,,,,,,,,,,,,,,,,,,,,,,,,,,,,,,,,,,,,,,,,,,,,,,,,,,,,,,,,,,,,,,,,,,,,,,,,,,,,,,,,,,,,,,,,,,,,,,,
,,,,,,6167e5b21fe4bb7b2579fa56,62bbf9cc78b360e771dcb992,2022-06-29_09h06.42.135,Colour_Asymmetry_Pilot,2022.1.3,Win32,59.19261276,62bbe60bf3d75ef465d3e404,0,20,20,45,1,threefour,,,,,,,,,,,,,,,,,,,,,,,,,,,,,,,,,,,,,,,,,,,,,,,,,,,,,,,,,,,,,,,,,,,,,,,,,,,,,,,,,,,,,,,,,,,,,,,,,,,,,,,,,,,,,,,,,,,,,,,,,,,,,,,,,,,,,,,,,,,,,,,,,,,,,,,,
,,,,,,6167e5b21fe4bb7b2579fa56,62bbf9cc78b360e771dcb992,2022-06-29_09h06.42.135,Colour_Asymmetry_Pilot,2022.1.3,Win32,59.19261276,62bbe60bf3d75ef465d3e404,0,21,21,139,1,twofour,,,,,,,,,,,,,,,,,,,,,,,,,,,,,,,,,,,,,,,,,,,,,,,,,,,,,,,,,,,,,,,,,,,,,,,,,,,,,,,,,,,,,,,,,,,,,,,,,,,,,,,,,,,,,,,,,,,,,,,,,,,,,,,,,,,,,,,,,,,,,,,,,,,,,,,,
,,,,,,6167e5b21fe4bb7b2579fa56,62bbf9cc78b360e771dcb992,2022-06-29_09h06.42.135,Colour_Asymmetry_Pilot,2022.1.3,Win32,59.19261276,62bbe60bf3d75ef465d3e404,0,22,22,7,1,fourthree,,,,,,,,,,,,,,,,,,,,,,,,,,,,,,,,,,,,,,,,,,,,,,,,,,,,,,,,,,,,,,,,,,,,,,,,,,,,,,,,,,,,,,,,,,,,,,,,,,,,,,,,,,,,,,,,,,,,,,,,,,,,,,,,,,,,,,,,,,,,,,,,,,,,,,,,
,,,,,,6167e5b21fe4bb7b2579fa56,62bbf9cc78b360e771dcb992,2022-06-29_09h06.42.135,Colour_Asymmetry_Pilot,2022.1.3,Win32,59.19261276,62bbe60bf3d75ef465d3e404,0,23,23,80,1,onetwo,,,,,,,,,,,,,,,,,,,,,,,,,,,,,,,,,,,,,,,,,,,,,,,,,,,,,,,,,,,,,,,,,,,,,,,,,,,,,,,,,,,,,,,,,,,,,,,,,,,,,,,,,,,,,,,,,,,,,,,,,,,,,,,,,,,,,,,,,,,,,,,,,,,,,,,,
,,,,,,6167e5b21fe4bb7b2579fa56,62bbf9cc78b360e771dcb992,2022-06-29_09h06.42.135,Colour_Asymmetry_Pilot,2022.1.3,Win32,59.19261276,62bbe60bf3d75ef465d3e404,0,24,24,70,1,fourtwo,,,,,,,,,,,,,,,,,,,,,,,,,,,,,,,,,,,,,,,,,,,,,,,,,,,,,,,,,,,,,,,,,,,,,,,,,,,,,,,,,,,,,,,,,,,,,,,,,,,,,,,,,,,,,,,,,,,,,,,,,,,,,,,,,,,,,,,,,,,,,,,,,,,,,,,,
,,,,,,6167e5b21fe4bb7b2579fa56,62bbf9cc78b360e771dcb992,2022-06-29_09h06.42.135,Colour_Asymmetry_Pilot,2022.1.3,Win32,59.19261276,62bbe60bf3d75ef465d3e404,0,25,25,32,1,onetwo,,,,,,,,,,,,,,,,,,,,,,,,,,,,,,,,,,,,,,,,,,,,,,,,,,,,,,,,,,,,,,,,,,,,,,,,,,,,,,,,,,,,,,,,,,,,,,,,,,,,,,,,,,,,,,,,,,,,,,,,,,,,,,,,,,,,,,,,,,,,,,,,,,,,,,,,
,,,,,,6167e5b21fe4bb7b2579fa56,62bbf9cc78b360e771dcb992,2022-06-29_09h06.42.135,Colour_Asymmetry_Pilot,2022.1.3,Win32,59.19261276,62bbe60bf3d75ef465d3e404,0,26,26,137,1,onethree,,,,,,,,,,,,,,,,,,,,,,,,,,,,,,,,,,,,,,,,,,,,,,,,,,,,,,,,,,,,,,,,,,,,,,,,,,,,,,,,,,,,,,,,,,,,,,,,,,,,,,,,,,,,,,,,,,,,,,,,,,,,,,,,,,,,,,,,,,,,,,,,,,,,,,,,
,,,,,,6167e5b21fe4bb7b2579fa56,62bbf9cc78b360e771dcb992,2022-06-29_09h06.42.135,Colour_Asymmetry_Pilot,2022.1.3,Win32,59.19261276,62bbe60bf3d75ef465d3e404,0,27,27,159,1,fourthree,,,,,,,,,,,,,,,,,,,,,,,,,,,,,,,,,,,,,,,,,,,,,,,,,,,,,,,,,,,,,,,,,,,,,,,,,,,,,,,,,,,,,,,,,,,,,,,,,,,,,,,,,,,,,,,,,,,,,,,,,,,,,,,,,,,,,,,,,,,,,,,,,,,,,,,,
,,,,,,6167e5b21fe4bb7b2579fa56,62bbf9cc78b360e771dcb992,2022-06-29_09h06.42.135,Colour_Asymmetry_Pilot,2022.1.3,Win32,59.19261276,62bbe60bf3d75ef465d3e404,0,28,28,147,1,twofour,,,,,,,,,,,,,,,,,,,,,,,,,,,,,,,,,,,,,,,,,,,,,,,,,,,,,,,,,,,,,,,,,,,,,,,,,,,,,,,,,,,,,,,,,,,,,,,,,,,,,,,,,,,,,,,,,,,,,,,,,,,,,,,,,,,,,,,,,,,,,,,,,,,,,,,,
,,,,,,6167e5b21fe4bb7b2579fa56,62bbf9cc78b360e771dcb992,2022-06-29_09h06.42.135,Colour_Asymmetry_Pilot,2022.1.3,Win32,59.19261276,62bbe60bf3d75ef465d3e404,0,29,29,43,1,twofour,,,,,,,,,,,,,,,,,,,,,,,,,,,,,,,,,,,,,,,,,,,,,,,,,,,,,,,,,,,,,,,,,,,,,,,,,,,,,,,,,,,,,,,,,,,,,,,,,,,,,,,,,,,,,,,,,,,,,,,,,,,,,,,,,,,,,,,,,,,,,,,,,,,,,,,,
,,,,,,6167e5b21fe4bb7b2579fa56,62bbf9cc78b360e771dcb992,2022-06-29_09h06.42.135,Colour_Asymmetry_Pilot,2022.1.3,Win32,59.19261276,62bbe60bf3d75ef465d3e404,0,30,30,57,1,onethree,,,,,,,,,,,,,,,,,,,,,,,,,,,,,,,,,,,,,,,,,,,,,,,,,,,,,,,,,,,,,,,,,,,,,,,,,,,,,,,,,,,,,,,,,,,,,,,,,,,,,,,,,,,,,,,,,,,,,,,,,,,,,,,,,,,,,,,,,,,,,,,,,,,,,,,,
,,,,,,6167e5b21fe4bb7b2579fa56,62bbf9cc78b360e771dcb992,2022-06-29_09h06.42.135,Colour_Asymmetry_Pilot,2022.1.3,Win32,59.19261276,62bbe60bf3d75ef465d3e404,0,31,31,19,1,twofour,,,,,,,,,,,,,,,,,,,,,,,,,,,,,,,,,,,,,,,,,,,,,,,,,,,,,,,,,,,,,,,,,,,,,,,,,,,,,,,,,,,,,,,,,,,,,,,,,,,,,,,,,,,,,,,,,,,,,,,,,,,,,,,,,,,,,,,,,,,,,,,,,,,,,,,,
,,,,,,6167e5b21fe4bb7b2579fa56,62bbf9cc78b360e771dcb992,2022-06-29_09h06.42.135,Colour_Asymmetry_Pilot,2022.1.3,Win32,59.19261276,62bbe60bf3d75ef465d3e404,0,32,32,92,1,threeone,,,,,,,,,,,,,,,,,,,,,,,,,,,,,,,,,,,,,,,,,,,,,,,,,,,,,,,,,,,,,,,,,,,,,,,,,,,,,,,,,,,,,,,,,,,,,,,,,,,,,,,,,,,,,,,,,,,,,,,,,,,,,,,,,,,,,,,,,,,,,,,,,,,,,,,,
,,,,,,6167e5b21fe4bb7b2579fa56,62bbf9cc78b360e771dcb992,2022-06-29_09h06.42.135,Colour_Asymmetry_Pilot,2022.1.3,Win32,59.19261276,62bbe60bf3d75ef465d3e404,0,33,33,89,1,onethree,,,,,,,,,,,,,,,,,,,,,,,,,,,,,,,,,,,,,,,,,,,,,,,,,,,,,,,,,,,,,,,,,,,,,,,,,,,,,,,,,,,,,,,,,,,,,,,,,,,,,,,,,,,,,,,,,,,,,,,,,,,,,,,,,,,,,,,,,,,,,,,,,,,,,,,,
,,,,,,6167e5b21fe4bb7b2579fa56,62bbf9cc78b360e771dcb992,2022-06-29_09h06.42.135,Colour_Asymmetry_Pilot,2022.1.3,Win32,59.19261276,62bbe60bf3d75ef465d3e404,0,34,34,71,1,fourthree,,,,,,,,,,,,,,,,,,,,,,,,,,,,,,,,,,,,,,,,,,,,,,,,,,,,,,,,,,,,,,,,,,,,,,,,,,,,,,,,,,,,,,,,,,,,,,,,,,,,,,,,,,,,,,,,,,,,,,,,,,,,,,,,,,,,,,,,,,,,,,,,,,,,,,,,
,,,,,,6167e5b21fe4bb7b2579fa56,62bbf9cc78b360e771dcb992,2022-06-29_09h06.42.135,Colour_Asymmetry_Pilot,2022.1.3,Win32,59.19261276,62bbe60bf3d75ef465d3e404,0,35,35,23,1,fourthree,,,,,,,,,,,,,,,,,,,,,,,,,,,,,,,,,,,,,,,,,,,,,,,,,,,,,,,,,,,,,,,,,,,,,,,,,,,,,,,,,,,,,,,,,,,,,,,,,,,,,,,,,,,,,,,,,,,,,,,,,,,,,,,,,,,,,,,,,,,,,,,,,,,,,,,,
,,,,,,6167e5b21fe4bb7b2579fa56,62bbf9cc78b360e771dcb992,2022-06-29_09h06.42.135,Colour_Asymmetry_Pilot,2022.1.3,Win32,59.19261276,62bbe60bf3d75ef465d3e404,0,36,36,44,1,threeone,,,,,,,,,,,,,,,,,,,,,,,,,,,,,,,,,,,,,,,,,,,,,,,,,,,,,,,,,,,,,,,,,,,,,,,,,,,,,,,,,,,,,,,,,,,,,,,,,,,,,,,,,,,,,,,,,,,,,,,,,,,,,,,,,,,,,,,,,,,,,,,,,,,,,,,,
,,,,,,6167e5b21fe4bb7b2579fa56,62bbf9cc78b360e771dcb992,2022-06-29_09h06.42.135,Colour_Asymmetry_Pilot,2022.1.3,Win32,59.19261276,62bbe60bf3d75ef465d3e404,0,37,37,95,1,fourthree,,,,,,,,,,,,,,,,,,,,,,,,,,,,,,,,,,,,,,,,,,,,,,,,,,,,,,,,,,,,,,,,,,,,,,,,,,,,,,,,,,,,,,,,,,,,,,,,,,,,,,,,,,,,,,,,,,,,,,,,,,,,,,,,,,,,,,,,,,,,,,,,,,,,,,,,
,,,,,,6167e5b21fe4bb7b2579fa56,62bbf9cc78b360e771dcb992,2022-06-29_09h06.42.135,Colour_Asymmetry_Pilot,2022.1.3,Win32,59.19261276,62bbe60bf3d75ef465d3e404,0,38,38,6,1,fourtwo,,,,,,,,,,,,,,,,,,,,,,,,,,,,,,,,,,,,,,,,,,,,,,,,,,,,,,,,,,,,,,,,,,,,,,,,,,,,,,,,,,,,,,,,,,,,,,,,,,,,,,,,,,,,,,,,,,,,,,,,,,,,,,,,,,,,,,,,,,,,,,,,,,,,,,,,
,,,,,,6167e5b21fe4bb7b2579fa56,62bbf9cc78b360e771dcb992,2022-06-29_09h06.42.135,Colour_Asymmetry_Pilot,2022.1.3,Win32,59.19261276,62bbe60bf3d75ef465d3e404,0,39,39,102,1,fourtwo,,,,,,,,,,,,,,,,,,,,,,,,,,,,,,,,,,,,,,,,,,,,,,,,,,,,,,,,,,,,,,,,,,,,,,,,,,,,,,,,,,,,,,,,,,,,,,,,,,,,,,,,,,,,,,,,,,,,,,,,,,,,,,,,,,,,,,,,,,,,,,,,,,,,,,,,
,,,,,,6167e5b21fe4bb7b2579fa56,62bbf9cc78b360e771dcb992,2022-06-29_09h06.42.135,Colour_Asymmetry_Pilot,2022.1.3,Win32,59.19261276,62bbe60bf3d75ef465d3e404,0,40,40,58,1,twoone,,,,,,,,,,,,,,,,,,,,,,,,,,,,,,,,,,,,,,,,,,,,,,,,,,,,,,,,,,,,,,,,,,,,,,,,,,,,,,,,,,,,,,,,,,,,,,,,,,,,,,,,,,,,,,,,,,,,,,,,,,,,,,,,,,,,,,,,,,,,,,,,,,,,,,,,
,,,,,,6167e5b21fe4bb7b2579fa56,62bbf9cc78b360e771dcb992,2022-06-29_09h06.42.135,Colour_Asymmetry_Pilot,2022.1.3,Win32,59.19261276,62bbe60bf3d75ef465d3e404,0,41,41,53,1,threefour,,,,,,,,,,,,,,,,,,,,,,,,,,,,,,,,,,,,,,,,,,,,,,,,,,,,,,,,,,,,,,,,,,,,,,,,,,,,,,,,,,,,,,,,,,,,,,,,,,,,,,,,,,,,,,,,,,,,,,,,,,,,,,,,,,,,,,,,,,,,,,,,,,,,,,,,
,,,,,,6167e5b21fe4bb7b2579fa56,62bbf9cc78b360e771dcb992,2022-06-29_09h06.42.135,Colour_Asymmetry_Pilot,2022.1.3,Win32,59.19261276,62bbe60bf3d75ef465d3e404,0,42,42,67,1,twofour,,,,,,,,,,,,,,,,,,,,,,,,,,,,,,,,,,,,,,,,,,,,,,,,,,,,,,,,,,,,,,,,,,,,,,,,,,,,,,,,,,,,,,,,,,,,,,,,,,,,,,,,,,,,,,,,,,,,,,,,,,,,,,,,,,,,,,,,,,,,,,,,,,,,,,,,
,,,,,,6167e5b21fe4bb7b2579fa56,62bbf9cc78b360e771dcb992,2022-06-29_09h06.42.135,Colour_Asymmetry_Pilot,2022.1.3,Win32,59.19261276,62bbe60bf3d75ef465d3e404,0,43,43,122,1,twoone,,,,,,,,,,,,,,,,,,,,,,,,,,,,,,,,,,,,,,,,,,,,,,,,,,,,,,,,,,,,,,,,,,,,,,,,,,,,,,,,,,,,,,,,,,,,,,,,,,,,,,,,,,,,,,,,,,,,,,,,,,,,,,,,,,,,,,,,,,,,,,,,,,,,,,,,
,,,,,,6167e5b21fe4bb7b2579fa56,62bbf9cc78b360e771dcb992,2022-06-29_09h06.42.135,Colour_Asymmetry_Pilot,2022.1.3,Win32,59.19261276,62bbe60bf3d75ef465d3e404,0,44,44,68,1,threeone,,,,,,,,,,,,,,,,,,,,,,,,,,,,,,,,,,,,,,,,,,,,,,,,,,,,,,,,,,,,,,,,,,,,,,,,,,,,,,,,,,,,,,,,,,,,,,,,,,,,,,,,,,,,,,,,,,,,,,,,,,,,,,,,,,,,,,,,,,,,,,,,,,,,,,,,
,,,,,,6167e5b21fe4bb7b2579fa56,62bbf9cc78b360e771dcb992,2022-06-29_09h06.42.135,Colour_Asymmetry_Pilot,2022.1.3,Win32,59.19261276,62bbe60bf3d75ef465d3e404,0,45,45,48,1,onetwo,,,,,,,,,,,,,,,,,,,,,,,,,,,,,,,,,,,,,,,,,,,,,,,,,,,,,,,,,,,,,,,,,,,,,,,,,,,,,,,,,,,,,,,,,,,,,,,,,,,,,,,,,,,,,,,,,,,,,,,,,,,,,,,,,,,,,,,,,,,,,,,,,,,,,,,,
,,,,,,6167e5b21fe4bb7b2579fa56,62bbf9cc78b360e771dcb992,2022-06-29_09h06.42.135,Colour_Asymmetry_Pilot,2022.1.3,Win32,59.19261276,62bbe60bf3d75ef465d3e404,0,46,46,161,1,onethree,,,,,,,,,,,,,,,,,,,,,,,,,,,,,,,,,,,,,,,,,,,,,,,,,,,,,,,,,,,,,,,,,,,,,,,,,,,,,,,,,,,,,,,,,,,,,,,,,,,,,,,,,,,,,,,,,,,,,,,,,,,,,,,,,,,,,,,,,,,,,,,,,,,,,,,,
,,,,,,6167e5b21fe4bb7b2579fa56,62bbf9cc78b360e771dcb992,2022-06-29_09h06.42.135,Colour_Asymmetry_Pilot,2022.1.3,Win32,59.19261276,62bbe60bf3d75ef465d3e404,0,47,47,73,1,onethree,,,,,,,,,,,,,,,,,,,,,,,,,,,,,,,,,,,,,,,,,,,,,,,,,,,,,,,,,,,,,,,,,,,,,,,,,,,,,,,,,,,,,,,,,,,,,,,,,,,,,,,,,,,,,,,,,,,,,,,,,,,,,,,,,,,,,,,,,,,,,,,,,,,,,,,,
,,,,,,6167e5b21fe4bb7b2579fa56,62bbf9cc78b360e771dcb992,2022-06-29_09h06.42.135,Colour_Asymmetry_Pilot,2022.1.3,Win32,59.19261276,62bbe60bf3d75ef465d3e404,0,48,48,62,1,fourtwo,,,,,,,,,,,,,,,,,,,,,,,,,,,,,,,,,,,,,,,,,,,,,,,,,,,,,,,,,,,,,,,,,,,,,,,,,,,,,,,,,,,,,,,,,,,,,,,,,,,,,,,,,,,,,,,,,,,,,,,,,,,,,,,,,,,,,,,,,,,,,,,,,,,,,,,,
,,,,,,6167e5b21fe4bb7b2579fa56,62bbf9cc78b360e771dcb992,2022-06-29_09h06.42.135,Colour_Asymmetry_Pilot,2022.1.3,Win32,59.19261276,62bbe60bf3d75ef465d3e404,0,49,49,112,1,onetwo,,,,,,,,,,,,,,,,,,,,,,,,,,,,,,,,,,,,,,,,,,,,,,,,,,,,,,,,,,,,,,,,,,,,,,,,,,,,,,,,,,,,,,,,,,,,,,,,,,,,,,,,,,,,,,,,,,,,,,,,,,,,,,,,,,,,,,,,,,,,,,,,,,,,,,,,
,,,,,,6167e5b21fe4bb7b2579fa56,62bbf9cc78b360e771dcb992,2022-06-29_09h06.42.135,Colour_Asymmetry_Pilot,2022.1.3,Win32,59.19261276,62bbe60bf3d75ef465d3e404,0,50,50,149,1,threefour,,,,,,,,,,,,,,,,,,,,,,,,,,,,,,,,,,,,,,,,,,,,,,,,,,,,,,,,,,,,,,,,,,,,,,,,,,,,,,,,,,,,,,,,,,,,,,,,,,,,,,,,,,,,,,,,,,,,,,,,,,,,,,,,,,,,,,,,,,,,,,,,,,,,,,,,
,,,,,,6167e5b21fe4bb7b2579fa56,62bbf9cc78b360e771dcb992,2022-06-29_09h06.42.135,Colour_Asymmetry_Pilot,2022.1.3,Win32,59.19261276,62bbe60bf3d75ef465d3e404,0,51,51,132,1,threeone,,,,,,,,,,,,,,,,,,,,,,,,,,,,,,,,,,,,,,,,,,,,,,,,,,,,,,,,,,,,,,,,,,,,,,,,,,,,,,,,,,,,,,,,,,,,,,,,,,,,,,,,,,,,,,,,,,,,,,,,,,,,,,,,,,,,,,,,,,,,,,,,,,,,,,,,
,,,,,,6167e5b21fe4bb7b2579fa56,62bbf9cc78b360e771dcb992,2022-06-29_09h06.42.135,Colour_Asymmetry_Pilot,2022.1.3,Win32,59.19261276,62bbe60bf3d75ef465d3e404,0,52,52,88,1,onetwo,,,,,,,,,,,,,,,,,,,,,,,,,,,,,,,,,,,,,,,,,,,,,,,,,,,,,,,,,,,,,,,,,,,,,,,,,,,,,,,,,,,,,,,,,,,,,,,,,,,,,,,,,,,,,,,,,,,,,,,,,,,,,,,,,,,,,,,,,,,,,,,,,,,,,,,,
,,,,,,6167e5b21fe4bb7b2579fa56,62bbf9cc78b360e771dcb992,2022-06-29_09h06.42.135,Colour_Asymmetry_Pilot,2022.1.3,Win32,59.19261276,62bbe60bf3d75ef465d3e404,0,53,53,108,1,threeone,,,,,,,,,,,,,,,,,,,,,,,,,,,,,,,,,,,,,,,,,,,,,,,,,,,,,,,,,,,,,,,,,,,,,,,,,,,,,,,,,,,,,,,,,,,,,,,,,,,,,,,,,,,,,,,,,,,,,,,,,,,,,,,,,,,,,,,,,,,,,,,,,,,,,,,,
,,,,,,6167e5b21fe4bb7b2579fa56,62bbf9cc78b360e771dcb992,2022-06-29_09h06.42.135,Colour_Asymmetry_Pilot,2022.1.3,Win32,59.19261276,62bbe60bf3d75ef465d3e404,0,54,54,42,1,twoone,,,,,,,,,,,,,,,,,,,,,,,,,,,,,,,,,,,,,,,,,,,,,,,,,,,,,,,,,,,,,,,,,,,,,,,,,,,,,,,,,,,,,,,,,,,,,,,,,,,,,,,,,,,,,,,,,,,,,,,,,,,,,,,,,,,,,,,,,,,,,,,,,,,,,,,,
,,,,,,6167e5b21fe4bb7b2579fa56,62bbf9cc78b360e771dcb992,2022-06-29_09h06.42.135,Colour_Asymmetry_Pilot,2022.1.3,Win32,59.19261276,62bbe60bf3d75ef465d3e404,0,55,55,29,1,threefour,,,,,,,,,,,,,,,,,,,,,,,,,,,,,,,,,,,,,,,,,,,,,,,,,,,,,,,,,,,,,,,,,,,,,,,,,,,,,,,,,,,,,,,,,,,,,,,,,,,,,,,,,,,,,,,,,,,,,,,,,,,,,,,,,,,,,,,,,,,,,,,,,,,,,,,,
,,,,,,6167e5b21fe4bb7b2579fa56,62bbf9cc78b360e771dcb992,2022-06-29_09h06.42.135,Colour_Asymmetry_Pilot,2022.1.3,Win32,59.19261276,62bbe60bf3d75ef465d3e404,0,56,56,94,1,fourtwo,,,,,,,,,,,,,,,,,,,,,,,,,,,,,,,,,,,,,,,,,,,,,,,,,,,,,,,,,,,,,,,,,,,,,,,,,,,,,,,,,,,,,,,,,,,,,,,,,,,,,,,,,,,,,,,,,,,,,,,,,,,,,,,,,,,,,,,,,,,,,,,,,,,,,,,,
,,,,,,6167e5b21fe4bb7b2579fa56,62bbf9cc78b360e771dcb992,2022-06-29_09h06.42.135,Colour_Asymmetry_Pilot,2022.1.3,Win32,59.19261276,62bbe60bf3d75ef465d3e404,0,57,57,133,1,threefour,,,,,,,,,,,,,,,,,,,,,,,,,,,,,,,,,,,,,,,,,,,,,,,,,,,,,,,,,,,,,,,,,,,,,,,,,,,,,,,,,,,,,,,,,,,,,,,,,,,,,,,,,,,,,,,,,,,,,,,,,,,,,,,,,,,,,,,,,,,,,,,,,,,,,,,,
,,,,,,6167e5b21fe4bb7b2579fa56,62bbf9cc78b360e771dcb992,2022-06-29_09h06.42.135,Colour_Asymmetry_Pilot,2022.1.3,Win32,59.19261276,62bbe60bf3d75ef465d3e404,0,58,58,109,1,threefour,,,,,,,,,,,,,,,,,,,,,,,,,,,,,,,,,,,,,,,,,,,,,,,,,,,,,,,,,,,,,,,,,,,,,,,,,,,,,,,,,,,,,,,,,,,,,,,,,,,,,,,,,,,,,,,,,,,,,,,,,,,,,,,,,,,,,,,,,,,,,,,,,,,,,,,,
,,,,,,6167e5b21fe4bb7b2579fa56,62bbf9cc78b360e771dcb992,2022-06-29_09h06.42.135,Colour_Asymmetry_Pilot,2022.1.3,Win32,59.19261276,62bbe60bf3d75ef465d3e404,0,59,59,118,1,fourtwo,,,,,,,,,,,,,,,,,,,,,,,,,,,,,,,,,,,,,,,,,,,,,,,,,,,,,,,,,,,,,,,,,,,,,,,,,,,,,,,,,,,,,,,,,,,,,,,,,,,,,,,,,,,,,,,,,,,,,,,,,,,,,,,,,,,,,,,,,,,,,,,,,,,,,,,,
,,,,,,6167e5b21fe4bb7b2579fa56,62bbf9cc78b360e771dcb992,2022-06-29_09h06.42.135,Colour_Asymmetry_Pilot,2022.1.3,Win32,59.19261276,62bbe60bf3d75ef465d3e404,0,60,60,115,1,twofour,,,,,,,,,,,,,,,,,,,,,,,,,,,,,,,,,,,,,,,,,,,,,,,,,,,,,,,,,,,,,,,,,,,,,,,,,,,,,,,,,,,,,,,,,,,,,,,,,,,,,,,,,,,,,,,,,,,,,,,,,,,,,,,,,,,,,,,,,,,,,,,,,,,,,,,,
,,,,,,6167e5b21fe4bb7b2579fa56,62bbf9cc78b360e771dcb992,2022-06-29_09h06.42.135,Colour_Asymmetry_Pilot,2022.1.3,Win32,59.19261276,62bbe60bf3d75ef465d3e404,0,61,61,21,1,threefour,,,,,,,,,,,,,,,,,,,,,,,,,,,,,,,,,,,,,,,,,,,,,,,,,,,,,,,,,,,,,,,,,,,,,,,,,,,,,,,,,,,,,,,,,,,,,,,,,,,,,,,,,,,,,,,,,,,,,,,,,,,,,,,,,,,,,,,,,,,,,,,,,,,,,,,,
,,,,,,6167e5b21fe4bb7b2579fa56,62bbf9cc78b360e771dcb992,2022-06-29_09h06.42.135,Colour_Asymmetry_Pilot,2022.1.3,Win32,59.19261276,62bbe60bf3d75ef465d3e404,0,62,62,69,1,threefour,,,,,,,,,,,,,,,,,,,,,,,,,,,,,,,,,,,,,,,,,,,,,,,,,,,,,,,,,,,,,,,,,,,,,,,,,,,,,,,,,,,,,,,,,,,,,,,,,,,,,,,,,,,,,,,,,,,,,,,,,,,,,,,,,,,,,,,,,,,,,,,,,,,,,,,,
,,,,,,6167e5b21fe4bb7b2579fa56,62bbf9cc78b360e771dcb992,2022-06-29_09h06.42.135,Colour_Asymmetry_Pilot,2022.1.3,Win32,59.19261276,62bbe60bf3d75ef465d3e404,0,63,63,83,1,twofour,,,,,,,,,,,,,,,,,,,,,,,,,,,,,,,,,,,,,,,,,,,,,,,,,,,,,,,,,,,,,,,,,,,,,,,,,,,,,,,,,,,,,,,,,,,,,,,,,,,,,,,,,,,,,,,,,,,,,,,,,,,,,,,,,,,,,,,,,,,,,,,,,,,,,,,,
,,,,,,6167e5b21fe4bb7b2579fa56,62bbf9cc78b360e771dcb992,2022-06-29_09h06.42.135,Colour_Asymmetry_Pilot,2022.1.3,Win32,59.19261276,62bbe60bf3d75ef465d3e404,0,64,64,99,1,twofour,,,,,,,,,,,,,,,,,,,,,,,,,,,,,,,,,,,,,,,,,,,,,,,,,,,,,,,,,,,,,,,,,,,,,,,,,,,,,,,,,,,,,,,,,,,,,,,,,,,,,,,,,,,,,,,,,,,,,,,,,,,,,,,,,,,,,,,,,,,,,,,,,,,,,,,,
,,,,,,6167e5b21fe4bb7b2579fa56,62bbf9cc78b360e771dcb992,2022-06-29_09h06.42.135,Colour_Asymmetry_Pilot,2022.1.3,Win32,59.19261276,62bbe60bf3d75ef465d3e404,0,65,65,4,1,threeone,,,,,,,,,,,,,,,,,,,,,,,,,,,,,,,,,,,,,,,,,,,,,,,,,,,,,,,,,,,,,,,,,,,,,,,,,,,,,,,,,,,,,,,,,,,,,,,,,,,,,,,,,,,,,,,,,,,,,,,,,,,,,,,,,,,,,,,,,,,,,,,,,,,,,,,,
,,,,,,6167e5b21fe4bb7b2579fa56,62bbf9cc78b360e771dcb992,2022-06-29_09h06.42.135,Colour_Asymmetry_Pilot,2022.1.3,Win32,59.19261276,62bbe60bf3d75ef465d3e404,0,66,66,33,1,onethree,,,,,,,,,,,,,,,,,,,,,,,,,,,,,,,,,,,,,,,,,,,,,,,,,,,,,,,,,,,,,,,,,,,,,,,,,,,,,,,,,,,,,,,,,,,,,,,,,,,,,,,,,,,,,,,,,,,,,,,,,,,,,,,,,,,,,,,,,,,,,,,,,,,,,,,,
,,,,,,6167e5b21fe4bb7b2579fa56,62bbf9cc78b360e771dcb992,2022-06-29_09h06.42.135,Colour_Asymmetry_Pilot,2022.1.3,Win32,59.19261276,62bbe60bf3d75ef465d3e404,0,67,67,111,1,fourthree,,,,,,,,,,,,,,,,,,,,,,,,,,,,,,,,,,,,,,,,,,,,,,,,,,,,,,,,,,,,,,,,,,,,,,,,,,,,,,,,,,,,,,,,,,,,,,,,,,,,,,,,,,,,,,,,,,,,,,,,,,,,,,,,,,,,,,,,,,,,,,,,,,,,,,,,
,,,,,,6167e5b21fe4bb7b2579fa56,62bbf9cc78b360e771dcb992,2022-06-29_09h06.42.135,Colour_Asymmetry_Pilot,2022.1.3,Win32,59.19261276,62bbe60bf3d75ef465d3e404,0,68,68,60,1,threeone,,,,,,,,,,,,,,,,,,,,,,,,,,,,,,,,,,,,,,,,,,,,,,,,,,,,,,,,,,,,,,,,,,,,,,,,,,,,,,,,,,,,,,,,,,,,,,,,,,,,,,,,,,,,,,,,,,,,,,,,,,,,,,,,,,,,,,,,,,,,,,,,,,,,,,,,
,,,,,,6167e5b21fe4bb7b2579fa56,62bbf9cc78b360e771dcb992,2022-06-29_09h06.42.135,Colour_Asymmetry_Pilot,2022.1.3,Win32,59.19261276,62bbe60bf3d75ef465d3e404,0,69,69,90,1,twoone,,,,,,,,,,,,,,,,,,,,,,,,,,,,,,,,,,,,,,,,,,,,,,,,,,,,,,,,,,,,,,,,,,,,,,,,,,,,,,,,,,,,,,,,,,,,,,,,,,,,,,,,,,,,,,,,,,,,,,,,,,,,,,,,,,,,,,,,,,,,,,,,,,,,,,,,
,,,,,,6167e5b21fe4bb7b2579fa56,62bbf9cc78b360e771dcb992,2022-06-29_09h06.42.135,Colour_Asymmetry_Pilot,2022.1.3,Win32,59.19261276,62bbe60bf3d75ef465d3e404,0,70,70,24,1,onetwo,,,,,,,,,,,,,,,,,,,,,,,,,,,,,,,,,,,,,,,,,,,,,,,,,,,,,,,,,,,,,,,,,,,,,,,,,,,,,,,,,,,,,,,,,,,,,,,,,,,,,,,,,,,,,,,,,,,,,,,,,,,,,,,,,,,,,,,,,,,,,,,,,,,,,,,,
,,,,,,6167e5b21fe4bb7b2579fa56,62bbf9cc78b360e771dcb992,2022-06-29_09h06.42.135,Colour_Asymmetry_Pilot,2022.1.3,Win32,59.19261276,62bbe60bf3d75ef465d3e404,0,71,71,17,1,onethree,,,,,,,,,,,,,,,,,,,,,,,,,,,,,,,,,,,,,,,,,,,,,,,,,,,,,,,,,,,,,,,,,,,,,,,,,,,,,,,,,,,,,,,,,,,,,,,,,,,,,,,,,,,,,,,,,,,,,,,,,,,,,,,,,,,,,,,,,,,,,,,,,,,,,,,,
,,,,,,6167e5b21fe4bb7b2579fa56,62bbf9cc78b360e771dcb992,2022-06-29_09h06.42.135,Colour_Asymmetry_Pilot,2022.1.3,Win32,59.19261276,62bbe60bf3d75ef465d3e404,0,72,72,124,1,threeone,,,,,,,,,,,,,,,,,,,,,,,,,,,,,,,,,,,,,,,,,,,,,,,,,,,,,,,,,,,,,,,,,,,,,,,,,,,,,,,,,,,,,,,,,,,,,,,,,,,,,,,,,,,,,,,,,,,,,,,,,,,,,,,,,,,,,,,,,,,,,,,,,,,,,,,,
,,,,,,6167e5b21fe4bb7b2579fa56,62bbf9cc78b360e771dcb992,2022-06-29_09h06.42.135,Colour_Asymmetry_Pilot,2022.1.3,Win32,59.19261276,62bbe60bf3d75ef465d3e404,0,73,73,155,1,twofour,,,,,,,,,,,,,,,,,,,,,,,,,,,,,,,,,,,,,,,,,,,,,,,,,,,,,,,,,,,,,,,,,,,,,,,,,,,,,,,,,,,,,,,,,,,,,,,,,,,,,,,,,,,,,,,,,,,,,,,,,,,,,,,,,,,,,,,,,,,,,,,,,,,,,,,,
,,,,,,6167e5b21fe4bb7b2579fa56,62bbf9cc78b360e771dcb992,2022-06-29_09h06.42.135,Colour_Asymmetry_Pilot,2022.1.3,Win32,59.19261276,62bbe60bf3d75ef465d3e404,0,74,74,26,1,twoone,,,,,,,,,,,,,,,,,,,,,,,,,,,,,,,,,,,,,,,,,,,,,,,,,,,,,,,,,,,,,,,,,,,,,,,,,,,,,,,,,,,,,,,,,,,,,,,,,,,,,,,,,,,,,,,,,,,,,,,,,,,,,,,,,,,,,,,,,,,,,,,,,,,,,,,,
,,,,,,6167e5b21fe4bb7b2579fa56,62bbf9cc78b360e771dcb992,2022-06-29_09h06.42.135,Colour_Asymmetry_Pilot,2022.1.3,Win32,59.19261276,62bbe60bf3d75ef465d3e404,0,75,75,156,1,threeone,,,,,,,,,,,,,,,,,,,,,,,,,,,,,,,,,,,,,,,,,,,,,,,,,,,,,,,,,,,,,,,,,,,,,,,,,,,,,,,,,,,,,,,,,,,,,,,,,,,,,,,,,,,,,,,,,,,,,,,,,,,,,,,,,,,,,,,,,,,,,,,,,,,,,,,,
,,,,,,6167e5b21fe4bb7b2579fa56,62bbf9cc78b360e771dcb992,2022-06-29_09h06.42.135,Colour_Asymmetry_Pilot,2022.1.3,Win32,59.19261276,62bbe60bf3d75ef465d3e404,0,76,76,31,1,fourthree,,,,,,,,,,,,,,,,,,,,,,,,,,,,,,,,,,,,,,,,,,,,,,,,,,,,,,,,,,,,,,,,,,,,,,,,,,,,,,,,,,,,,,,,,,,,,,,,,,,,,,,,,,,,,,,,,,,,,,,,,,,,,,,,,,,,,,,,,,,,,,,,,,,,,,,,
,,,,,,6167e5b21fe4bb7b2579fa56,62bbf9cc78b360e771dcb992,2022-06-29_09h06.42.135,Colour_Asymmetry_Pilot,2022.1.3,Win32,59.19261276,62bbe60bf3d75ef465d3e404,0,77,77,52,1,threeone,,,,,,,,,,,,,,,,,,,,,,,,,,,,,,,,,,,,,,,,,,,,,,,,,,,,,,,,,,,,,,,,,,,,,,,,,,,,,,,,,,,,,,,,,,,,,,,,,,,,,,,,,,,,,,,,,,,,,,,,,,,,,,,,,,,,,,,,,,,,,,,,,,,,,,,,
,,,,,,6167e5b21fe4bb7b2579fa56,62bbf9cc78b360e771dcb992,2022-06-29_09h06.42.135,Colour_Asymmetry_Pilot,2022.1.3,Win32,59.19261276,62bbe60bf3d75ef465d3e404,0,78,78,146,1,twoone,,,,,,,,,,,,,,,,,,,,,,,,,,,,,,,,,,,,,,,,,,,,,,,,,,,,,,,,,,,,,,,,,,,,,,,,,,,,,,,,,,,,,,,,,,,,,,,,,,,,,,,,,,,,,,,,,,,,,,,,,,,,,,,,,,,,,,,,,,,,,,,,,,,,,,,,
,,,,,,6167e5b21fe4bb7b2579fa56,62bbf9cc78b360e771dcb992,2022-06-29_09h06.42.135,Colour_Asymmetry_Pilot,2022.1.3,Win32,59.19261276,62bbe60bf3d75ef465d3e404,0,79,79,65,1,onethree,,,,,,,,,,,,,,,,,,,,,,,,,,,,,,,,,,,,,,,,,,,,,,,,,,,,,,,,,,,,,,,,,,,,,,,,,,,,,,,,,,,,,,,,,,,,,,,,,,,,,,,,,,,,,,,,,,,,,,,,,,,,,,,,,,,,,,,,,,,,,,,,,,,,,,,,
,,,,,,6167e5b21fe4bb7b2579fa56,62bbf9cc78b360e771dcb992,2022-06-29_09h06.42.135,Colour_Asymmetry_Pilot,2022.1.3,Win32,59.19261276,62bbe60bf3d75ef465d3e404,0,80,80,2,1,twoone,,,,,,,,,,,,,,,,,,,,,,,,,,,,,,,,,,,,,,,,,,,,,,,,,,,,,,,,,,,,,,,,,,,,,,,,,,,,,,,,,,,,,,,,,,,,,,,,,,,,,,,,,,,,,,,,,,,,,,,,,,,,,,,,,,,,,,,,,,,,,,,,,,,,,,,,
,,,,,,6167e5b21fe4bb7b2579fa56,62bbf9cc78b360e771dcb992,2022-06-29_09h06.42.135,Colour_Asymmetry_Pilot,2022.1.3,Win32,59.19261276,62bbe60bf3d75ef465d3e404,0,81,81,150,1,fourtwo,,,,,,,,,,,,,,,,,,,,,,,,,,,,,,,,,,,,,,,,,,,,,,,,,,,,,,,,,,,,,,,,,,,,,,,,,,,,,,,,,,,,,,,,,,,,,,,,,,,,,,,,,,,,,,,,,,,,,,,,,,,,,,,,,,,,,,,,,,,,,,,,,,,,,,,,
,,,,,,6167e5b21fe4bb7b2579fa56,62bbf9cc78b360e771dcb992,2022-06-29_09h06.42.135,Colour_Asymmetry_Pilot,2022.1.3,Win32,59.19261276,62bbe60bf3d75ef465d3e404,0,82,82,25,1,onethree,,,,,,,,,,,,,,,,,,,,,,,,,,,,,,,,,,,,,,,,,,,,,,,,,,,,,,,,,,,,,,,,,,,,,,,,,,,,,,,,,,,,,,,,,,,,,,,,,,,,,,,,,,,,,,,,,,,,,,,,,,,,,,,,,,,,,,,,,,,,,,,,,,,,,,,,
,,,,,,6167e5b21fe4bb7b2579fa56,62bbf9cc78b360e771dcb992,2022-06-29_09h06.42.135,Colour_Asymmetry_Pilot,2022.1.3,Win32,59.19261276,62bbe60bf3d75ef465d3e404,0,83,83,143,1,fourthree,,,,,,,,,,,,,,,,,,,,,,,,,,,,,,,,,,,,,,,,,,,,,,,,,,,,,,,,,,,,,,,,,,,,,,,,,,,,,,,,,,,,,,,,,,,,,,,,,,,,,,,,,,,,,,,,,,,,,,,,,,,,,,,,,,,,,,,,,,,,,,,,,,,,,,,,
,,,,,,6167e5b21fe4bb7b2579fa56,62bbf9cc78b360e771dcb992,2022-06-29_09h06.42.135,Colour_Asymmetry_Pilot,2022.1.3,Win32,59.19261276,62bbe60bf3d75ef465d3e404,0,84,84,15,1,fourthree,,,,,,,,,,,,,,,,,,,,,,,,,,,,,,,,,,,,,,,,,,,,,,,,,,,,,,,,,,,,,,,,,,,,,,,,,,,,,,,,,,,,,,,,,,,,,,,,,,,,,,,,,,,,,,,,,,,,,,,,,,,,,,,,,,,,,,,,,,,,,,,,,,,,,,,,
,,,,,,6167e5b21fe4bb7b2579fa56,62bbf9cc78b360e771dcb992,2022-06-29_09h06.42.135,Colour_Asymmetry_Pilot,2022.1.3,Win32,59.19261276,62bbe60bf3d75ef465d3e404,0,85,85,129,1,onethree,,,,,,,,,,,,,,,,,,,,,,,,,,,,,,,,,,,,,,,,,,,,,,,,,,,,,,,,,,,,,,,,,,,,,,,,,,,,,,,,,,,,,,,,,,,,,,,,,,,,,,,,,,,,,,,,,,,,,,,,,,,,,,,,,,,,,,,,,,,,,,,,,,,,,,,,
,,,,,,6167e5b21fe4bb7b2579fa56,62bbf9cc78b360e771dcb992,2022-06-29_09h06.42.135,Colour_Asymmetry_Pilot,2022.1.3,Win32,59.19261276,62bbe60bf3d75ef465d3e404,0,86,86,77,1,threefour,,,,,,,,,,,,,,,,,,,,,,,,,,,,,,,,,,,,,,,,,,,,,,,,,,,,,,,,,,,,,,,,,,,,,,,,,,,,,,,,,,,,,,,,,,,,,,,,,,,,,,,,,,,,,,,,,,,,,,,,,,,,,,,,,,,,,,,,,,,,,,,,,,,,,,,,
,,,,,,6167e5b21fe4bb7b2579fa56,62bbf9cc78b360e771dcb992,2022-06-29_09h06.42.135,Colour_Asymmetry_Pilot,2022.1.3,Win32,59.19261276,62bbe60bf3d75ef465d3e404,0,87,87,84,1,threeone,,,,,,,,,,,,,,,,,,,,,,,,,,,,,,,,,,,,,,,,,,,,,,,,,,,,,,,,,,,,,,,,,,,,,,,,,,,,,,,,,,,,,,,,,,,,,,,,,,,,,,,,,,,,,,,,,,,,,,,,,,,,,,,,,,,,,,,,,,,,,,,,,,,,,,,,
,,,,,,6167e5b21fe4bb7b2579fa56,62bbf9cc78b360e771dcb992,2022-06-29_09h06.42.135,Colour_Asymmetry_Pilot,2022.1.3,Win32,59.19261276,62bbe60bf3d75ef465d3e404,0,88,88,64,1,onetwo,,,,,,,,,,,,,,,,,,,,,,,,,,,,,,,,,,,,,,,,,,,,,,,,,,,,,,,,,,,,,,,,,,,,,,,,,,,,,,,,,,,,,,,,,,,,,,,,,,,,,,,,,,,,,,,,,,,,,,,,,,,,,,,,,,,,,,,,,,,,,,,,,,,,,,,,
,,,,,,6167e5b21fe4bb7b2579fa56,62bbf9cc78b360e771dcb992,2022-06-29_09h06.42.135,Colour_Asymmetry_Pilot,2022.1.3,Win32,59.19261276,62bbe60bf3d75ef465d3e404,0,89,89,54,1,fourtwo,,,,,,,,,,,,,,,,,,,,,,,,,,,,,,,,,,,,,,,,,,,,,,,,,,,,,,,,,,,,,,,,,,,,,,,,,,,,,,,,,,,,,,,,,,,,,,,,,,,,,,,,,,,,,,,,,,,,,,,,,,,,,,,,,,,,,,,,,,,,,,,,,,,,,,,,
,,,,,,6167e5b21fe4bb7b2579fa56,62bbf9cc78b360e771dcb992,2022-06-29_09h06.42.135,Colour_Asymmetry_Pilot,2022.1.3,Win32,59.19261276,62bbe60bf3d75ef465d3e404,0,90,90,22,1,fourtwo,,,,,,,,,,,,,,,,,,,,,,,,,,,,,,,,,,,,,,,,,,,,,,,,,,,,,,,,,,,,,,,,,,,,,,,,,,,,,,,,,,,,,,,,,,,,,,,,,,,,,,,,,,,,,,,,,,,,,,,,,,,,,,,,,,,,,,,,,,,,,,,,,,,,,,,,
,,,,,,6167e5b21fe4bb7b2579fa56,62bbf9cc78b360e771dcb992,2022-06-29_09h06.42.135,Colour_Asymmetry_Pilot,2022.1.3,Win32,59.19261276,62bbe60bf3d75ef465d3e404,0,91,91,98,1,twoone,,,,,,,,,,,,,,,,,,,,,,,,,,,,,,,,,,,,,,,,,,,,,,,,,,,,,,,,,,,,,,,,,,,,,,,,,,,,,,,,,,,,,,,,,,,,,,,,,,,,,,,,,,,,,,,,,,,,,,,,,,,,,,,,,,,,,,,,,,,,,,,,,,,,,,,,
,,,,,,6167e5b21fe4bb7b2579fa56,62bbf9cc78b360e771dcb992,2022-06-29_09h06.42.135,Colour_Asymmetry_Pilot,2022.1.3,Win32,59.19261276,62bbe60bf3d75ef465d3e404,0,92,92,51,1,twofour,,,,,,,,,,,,,,,,,,,,,,,,,,,,,,,,,,,,,,,,,,,,,,,,,,,,,,,,,,,,,,,,,,,,,,,,,,,,,,,,,,,,,,,,,,,,,,,,,,,,,,,,,,,,,,,,,,,,,,,,,,,,,,,,,,,,,,,,,,,,,,,,,,,,,,,,
,,,,,,6167e5b21fe4bb7b2579fa56,62bbf9cc78b360e771dcb992,2022-06-29_09h06.42.135,Colour_Asymmetry_Pilot,2022.1.3,Win32,59.19261276,62bbe60bf3d75ef465d3e404,0,93,93,153,1,onethree,,,,,,,,,,,,,,,,,,,,,,,,,,,,,,,,,,,,,,,,,,,,,,,,,,,,,,,,,,,,,,,,,,,,,,,,,,,,,,,,,,,,,,,,,,,,,,,,,,,,,,,,,,,,,,,,,,,,,,,,,,,,,,,,,,,,,,,,,,,,,,,,,,,,,,,,
,,,,,,6167e5b21fe4bb7b2579fa56,62bbf9cc78b360e771dcb992,2022-06-29_09h06.42.135,Colour_Asymmetry_Pilot,2022.1.3,Win32,59.19261276,62bbe60bf3d75ef465d3e404,0,94,94,14,1,fourtwo,,,,,,,,,,,,,,,,,,,,,,,,,,,,,,,,,,,,,,,,,,,,,,,,,,,,,,,,,,,,,,,,,,,,,,,,,,,,,,,,,,,,,,,,,,,,,,,,,,,,,,,,,,,,,,,,,,,,,,,,,,,,,,,,,,,,,,,,,,,,,,,,,,,,,,,,
,,,,,,6167e5b21fe4bb7b2579fa56,62bbf9cc78b360e771dcb992,2022-06-29_09h06.42.135,Colour_Asymmetry_Pilot,2022.1.3,Win32,59.19261276,62bbe60bf3d75ef465d3e404,0,95,95,41,1,onethree,,,,,,,,,,,,,,,,,,,,,,,,,,,,,,,,,,,,,,,,,,,,,,,,,,,,,,,,,,,,,,,,,,,,,,,,,,,,,,,,,,,,,,,,,,,,,,,,,,,,,,,,,,,,,,,,,,,,,,,,,,,,,,,,,,,,,,,,,,,,,,,,,,,,,,,,
,,,,,,6167e5b21fe4bb7b2579fa56,62bbf9cc78b360e771dcb992,2022-06-29_09h06.42.135,Colour_Asymmetry_Pilot,2022.1.3,Win32,59.19261276,62bbe60bf3d75ef465d3e404,0,96,96,131,1,twofour,,,,,,,,,,,,,,,,,,,,,,,,,,,,,,,,,,,,,,,,,,,,,,,,,,,,,,,,,,,,,,,,,,,,,,,,,,,,,,,,,,,,,,,,,,,,,,,,,,,,,,,,,,,,,,,,,,,,,,,,,,,,,,,,,,,,,,,,,,,,,,,,,,,,,,,,
,,,,,,6167e5b21fe4bb7b2579fa56,62bbf9cc78b360e771dcb992,2022-06-29_09h06.42.135,Colour_Asymmetry_Pilot,2022.1.3,Win32,59.19261276,62bbe60bf3d75ef465d3e404,0,97,97,13,1,threefour,,,,,,,,,,,,,,,,,,,,,,,,,,,,,,,,,,,,,,,,,,,,,,,,,,,,,,,,,,,,,,,,,,,,,,,,,,,,,,,,,,,,,,,,,,,,,,,,,,,,,,,,,,,,,,,,,,,,,,,,,,,,,,,,,,,,,,,,,,,,,,,,,,,,,,,,
,,,,,,6167e5b21fe4bb7b2579fa56,62bbf9cc78b360e771dcb992,2022-06-29_09h06.42.135,Colour_Asymmetry_Pilot,2022.1.3,Win32,59.19261276,62bbe60bf3d75ef465d3e404,0,98,98,37,1,threefour,,,,,,,,,,,,,,,,,,,,,,,,,,,,,,,,,,,,,,,,,,,,,,,,,,,,,,,,,,,,,,,,,,,,,,,,,,,,,,,,,,,,,,,,,,,,,,,,,,,,,,,,,,,,,,,,,,,,,,,,,,,,,,,,,,,,,,,,,,,,,,,,,,,,,,,,
,,,,,,6167e5b21fe4bb7b2579fa56,62bbf9cc78b360e771dcb992,2022-06-29_09h06.42.135,Colour_Asymmetry_Pilot,2022.1.3,Win32,59.19261276,62bbe60bf3d75ef465d3e404,0,99,99,141,1,threefour,,,,,,,,,,,,,,,,,,,,,,,,,,,,,,,,,,,,,,,,,,,,,,,,,,,,,,,,,,,,,,,,,,,,,,,,,,,,,,,,,,,,,,,,,,,,,,,,,,,,,,,,,,,,,,,,,,,,,,,,,,,,,,,,,,,,,,,,,,,,,,,,,,,,,,,,
,,,,,,6167e5b21fe4bb7b2579fa56,62bbf9cc78b360e771dcb992,2022-06-29_09h06.42.135,Colour_Asymmetry_Pilot,2022.1.3,Win32,59.19261276,62bbe60bf3d75ef465d3e404,0,100,100,125,1,threefour,,,,,,,,,,,,,,,,,,,,,,,,,,,,,,,,,,,,,,,,,,,,,,,,,,,,,,,,,,,,,,,,,,,,,,,,,,,,,,,,,,,,,,,,,,,,,,,,,,,,,,,,,,,,,,,,,,,,,,,,,,,,,,,,,,,,,,,,,,,,,,,,,,,,,,,,
,,,,,,6167e5b21fe4bb7b2579fa56,62bbf9cc78b360e771dcb992,2022-06-29_09h06.42.135,Colour_Asymmetry_Pilot,2022.1.3,Win32,59.19261276,62bbe60bf3d75ef465d3e404,0,101,101,145,1,onethree,,,,,,,,,,,,,,,,,,,,,,,,,,,,,,,,,,,,,,,,,,,,,,,,,,,,,,,,,,,,,,,,,,,,,,,,,,,,,,,,,,,,,,,,,,,,,,,,,,,,,,,,,,,,,,,,,,,,,,,,,,,,,,,,,,,,,,,,,,,,,,,,,,,,,,,,
,,,,,,6167e5b21fe4bb7b2579fa56,62bbf9cc78b360e771dcb992,2022-06-29_09h06.42.135,Colour_Asymmetry_Pilot,2022.1.3,Win32,59.19261276,62bbe60bf3d75ef465d3e404,0,102,102,121,1,onethree,,,,,,,,,,,,,,,,,,,,,,,,,,,,,,,,,,,,,,,,,,,,,,,,,,,,,,,,,,,,,,,,,,,,,,,,,,,,,,,,,,,,,,,,,,,,,,,,,,,,,,,,,,,,,,,,,,,,,,,,,,,,,,,,,,,,,,,,,,,,,,,,,,,,,,,,
,,,,,,6167e5b21fe4bb7b2579fa56,62bbf9cc78b360e771dcb992,2022-06-29_09h06.42.135,Colour_Asymmetry_Pilot,2022.1.3,Win32,59.19261276,62bbe60bf3d75ef465d3e404,0,103,103,81,1,onethree,,,,,,,,,,,,,,,,,,,,,,,,,,,,,,,,,,,,,,,,,,,,,,,,,,,,,,,,,,,,,,,,,,,,,,,,,,,,,,,,,,,,,,,,,,,,,,,,,,,,,,,,,,,,,,,,,,,,,,,,,,,,,,,,,,,,,,,,,,,,,,,,,,,,,,,,
,,,,,,6167e5b21fe4bb7b2579fa56,62bbf9cc78b360e771dcb992,2022-06-29_09h06.42.135,Colour_Asymmetry_Pilot,2022.1.3,Win32,59.19261276,62bbe60bf3d75ef465d3e404,0,104,104,104,1,onetwo,,,,,,,,,,,,,,,,,,,,,,,,,,,,,,,,,,,,,,,,,,,,,,,,,,,,,,,,,,,,,,,,,,,,,,,,,,,,,,,,,,,,,,,,,,,,,,,,,,,,,,,,,,,,,,,,,,,,,,,,,,,,,,,,,,,,,,,,,,,,,,,,,,,,,,,,
,,,,,,6167e5b21fe4bb7b2579fa56,62bbf9cc78b360e771dcb992,2022-06-29_09h06.42.135,Colour_Asymmetry_Pilot,2022.1.3,Win32,59.19261276,62bbe60bf3d75ef465d3e404,0,105,105,110,1,fourtwo,,,,,,,,,,,,,,,,,,,,,,,,,,,,,,,,,,,,,,,,,,,,,,,,,,,,,,,,,,,,,,,,,,,,,,,,,,,,,,,,,,,,,,,,,,,,,,,,,,,,,,,,,,,,,,,,,,,,,,,,,,,,,,,,,,,,,,,,,,,,,,,,,,,,,,,,
,,,,,,6167e5b21fe4bb7b2579fa56,62bbf9cc78b360e771dcb992,2022-06-29_09h06.42.135,Colour_Asymmetry_Pilot,2022.1.3,Win32,59.19261276,62bbe60bf3d75ef465d3e404,0,106,106,39,1,fourthree,,,,,,,,,,,,,,,,,,,,,,,,,,,,,,,,,,,,,,,,,,,,,,,,,,,,,,,,,,,,,,,,,,,,,,,,,,,,,,,,,,,,,,,,,,,,,,,,,,,,,,,,,,,,,,,,,,,,,,,,,,,,,,,,,,,,,,,,,,,,,,,,,,,,,,,,
,,,,,,6167e5b21fe4bb7b2579fa56,62bbf9cc78b360e771dcb992,2022-06-29_09h06.42.135,Colour_Asymmetry_Pilot,2022.1.3,Win32,59.19261276,62bbe60bf3d75ef465d3e404,0,107,107,82,1,twoone,,,,,,,,,,,,,,,,,,,,,,,,,,,,,,,,,,,,,,,,,,,,,,,,,,,,,,,,,,,,,,,,,,,,,,,,,,,,,,,,,,,,,,,,,,,,,,,,,,,,,,,,,,,,,,,,,,,,,,,,,,,,,,,,,,,,,,,,,,,,,,,,,,,,,,,,
,,,,,,6167e5b21fe4bb7b2579fa56,62bbf9cc78b360e771dcb992,2022-06-29_09h06.42.135,Colour_Asymmetry_Pilot,2022.1.3,Win32,59.19261276,62bbe60bf3d75ef465d3e404,0,108,108,76,1,threeone,,,,,,,,,,,,,,,,,,,,,,,,,,,,,,,,,,,,,,,,,,,,,,,,,,,,,,,,,,,,,,,,,,,,,,,,,,,,,,,,,,,,,,,,,,,,,,,,,,,,,,,,,,,,,,,,,,,,,,,,,,,,,,,,,,,,,,,,,,,,,,,,,,,,,,,,
,,,,,,6167e5b21fe4bb7b2579fa56,62bbf9cc78b360e771dcb992,2022-06-29_09h06.42.135,Colour_Asymmetry_Pilot,2022.1.3,Win32,59.19261276,62bbe60bf3d75ef465d3e404,0,109,109,113,1,onethree,,,,,,,,,,,,,,,,,,,,,,,,,,,,,,,,,,,,,,,,,,,,,,,,,,,,,,,,,,,,,,,,,,,,,,,,,,,,,,,,,,,,,,,,,,,,,,,,,,,,,,,,,,,,,,,,,,,,,,,,,,,,,,,,,,,,,,,,,,,,,,,,,,,,,,,,
,,,,,,6167e5b21fe4bb7b2579fa56,62bbf9cc78b360e771dcb992,2022-06-29_09h06.42.135,Colour_Asymmetry_Pilot,2022.1.3,Win32,59.19261276,62bbe60bf3d75ef465d3e404,0,110,110,127,1,fourthree,,,,,,,,,,,,,,,,,,,,,,,,,,,,,,,,,,,,,,,,,,,,,,,,,,,,,,,,,,,,,,,,,,,,,,,,,,,,,,,,,,,,,,,,,,,,,,,,,,,,,,,,,,,,,,,,,,,,,,,,,,,,,,,,,,,,,,,,,,,,,,,,,,,,,,,,
,,,,,,6167e5b21fe4bb7b2579fa56,62bbf9cc78b360e771dcb992,2022-06-29_09h06.42.135,Colour_Asymmetry_Pilot,2022.1.3,Win32,59.19261276,62bbe60bf3d75ef465d3e404,0,111,111,34,1,twoone,,,,,,,,,,,,,,,,,,,,,,,,,,,,,,,,,,,,,,,,,,,,,,,,,,,,,,,,,,,,,,,,,,,,,,,,,,,,,,,,,,,,,,,,,,,,,,,,,,,,,,,,,,,,,,,,,,,,,,,,,,,,,,,,,,,,,,,,,,,,,,,,,,,,,,,,
,,,,,,6167e5b21fe4bb7b2579fa56,62bbf9cc78b360e771dcb992,2022-06-29_09h06.42.135,Colour_Asymmetry_Pilot,2022.1.3,Win32,59.19261276,62bbe60bf3d75ef465d3e404,0,112,112,152,1,onetwo,,,,,,,,,,,,,,,,,,,,,,,,,,,,,,,,,,,,,,,,,,,,,,,,,,,,,,,,,,,,,,,,,,,,,,,,,,,,,,,,,,,,,,,,,,,,,,,,,,,,,,,,,,,,,,,,,,,,,,,,,,,,,,,,,,,,,,,,,,,,,,,,,,,,,,,,
,,,,,,6167e5b21fe4bb7b2579fa56,62bbf9cc78b360e771dcb992,2022-06-29_09h06.42.135,Colour_Asymmetry_Pilot,2022.1.3,Win32,59.19261276,62bbe60bf3d75ef465d3e404,0,113,113,74,1,twoone,,,,,,,,,,,,,,,,,,,,,,,,,,,,,,,,,,,,,,,,,,,,,,,,,,,,,,,,,,,,,,,,,,,,,,,,,,,,,,,,,,,,,,,,,,,,,,,,,,,,,,,,,,,,,,,,,,,,,,,,,,,,,,,,,,,,,,,,,,,,,,,,,,,,,,,,
,,,,,,6167e5b21fe4bb7b2579fa56,62bbf9cc78b360e771dcb992,2022-06-29_09h06.42.135,Colour_Asymmetry_Pilot,2022.1.3,Win32,59.19261276,62bbe60bf3d75ef465d3e404,0,114,114,85,1,threefour,,,,,,,,,,,,,,,,,,,,,,,,,,,,,,,,,,,,,,,,,,,,,,,,,,,,,,,,,,,,,,,,,,,,,,,,,,,,,,,,,,,,,,,,,,,,,,,,,,,,,,,,,,,,,,,,,,,,,,,,,,,,,,,,,,,,,,,,,,,,,,,,,,,,,,,,
,,,,,,6167e5b21fe4bb7b2579fa56,62bbf9cc78b360e771dcb992,2022-06-29_09h06.42.135,Colour_Asymmetry_Pilot,2022.1.3,Win32,59.19261276,62bbe60bf3d75ef465d3e404,0,115,115,117,1,threefour,,,,,,,,,,,,,,,,,,,,,,,,,,,,,,,,,,,,,,,,,,,,,,,,,,,,,,,,,,,,,,,,,,,,,,,,,,,,,,,,,,,,,,,,,,,,,,,,,,,,,,,,,,,,,,,,,,,,,,,,,,,,,,,,,,,,,,,,,,,,,,,,,,,,,,,,
,,,,,,6167e5b21fe4bb7b2579fa56,62bbf9cc78b360e771dcb992,2022-06-29_09h06.42.135,Colour_Asymmetry_Pilot,2022.1.3,Win32,59.19261276,62bbe60bf3d75ef465d3e404,0,116,116,47,1,fourthree,,,,,,,,,,,,,,,,,,,,,,,,,,,,,,,,,,,,,,,,,,,,,,,,,,,,,,,,,,,,,,,,,,,,,,,,,,,,,,,,,,,,,,,,,,,,,,,,,,,,,,,,,,,,,,,,,,,,,,,,,,,,,,,,,,,,,,,,,,,,,,,,,,,,,,,,
,,,,,,6167e5b21fe4bb7b2579fa56,62bbf9cc78b360e771dcb992,2022-06-29_09h06.42.135,Colour_Asymmetry_Pilot,2022.1.3,Win32,59.19261276,62bbe60bf3d75ef465d3e404,0,117,117,157,1,threefour,,,,,,,,,,,,,,,,,,,,,,,,,,,,,,,,,,,,,,,,,,,,,,,,,,,,,,,,,,,,,,,,,,,,,,,,,,,,,,,,,,,,,,,,,,,,,,,,,,,,,,,,,,,,,,,,,,,,,,,,,,,,,,,,,,,,,,,,,,,,,,,,,,,,,,,,
,,,,,,6167e5b21fe4bb7b2579fa56,62bbf9cc78b360e771dcb992,2022-06-29_09h06.42.135,Colour_Asymmetry_Pilot,2022.1.3,Win32,59.19261276,62bbe60bf3d75ef465d3e404,0,118,118,30,1,fourtwo,,,,,,,,,,,,,,,,,,,,,,,,,,,,,,,,,,,,,,,,,,,,,,,,,,,,,,,,,,,,,,,,,,,,,,,,,,,,,,,,,,,,,,,,,,,,,,,,,,,,,,,,,,,,,,,,,,,,,,,,,,,,,,,,,,,,,,,,,,,,,,,,,,,,,,,,
,,,,,,6167e5b21fe4bb7b2579fa56,62bbf9cc78b360e771dcb992,2022-06-29_09h06.42.135,Colour_Asymmetry_Pilot,2022.1.3,Win32,59.19261276,62bbe60bf3d75ef465d3e404,0,119,119,148,1,threeone,,,,,,,,,,,,,,,,,,,,,,,,,,,,,,,,,,,,,,,,,,,,,,,,,,,,,,,,,,,,,,,,,,,,,,,,,,,,,,,,,,,,,,,,,,,,,,,,,,,,,,,,,,,,,,,,,,,,,,,,,,,,,,,,,,,,,,,,,,,,,,,,,,,,,,,,
,,,,,,6167e5b21fe4bb7b2579fa56,62bbf9cc78b360e771dcb992,2022-06-29_09h06.42.135,Colour_Asymmetry_Pilot,2022.1.3,Win32,59.19261276,62bbe60bf3d75ef465d3e404,0,120,120,61,1,threefour,,,,,,,,,,,,,,,,,,,,,,,,,,,,,,,,,,,,,,,,,,,,,,,,,,,,,,,,,,,,,,,,,,,,,,,,,,,,,,,,,,,,,,,,,,,,,,,,,,,,,,,,,,,,,,,,,,,,,,,,,,,,,,,,,,,,,,,,,,,,,,,,,,,,,,,,
,,,,,,6167e5b21fe4bb7b2579fa56,62bbf9cc78b360e771dcb992,2022-06-29_09h06.42.135,Colour_Asymmetry_Pilot,2022.1.3,Win32,59.19261276,62bbe60bf3d75ef465d3e404,0,121,121,75,1,twofour,,,,,,,,,,,,,,,,,,,,,,,,,,,,,,,,,,,,,,,,,,,,,,,,,,,,,,,,,,,,,,,,,,,,,,,,,,,,,,,,,,,,,,,,,,,,,,,,,,,,,,,,,,,,,,,,,,,,,,,,,,,,,,,,,,,,,,,,,,,,,,,,,,,,,,,,
,,,,,,6167e5b21fe4bb7b2579fa56,62bbf9cc78b360e771dcb992,2022-06-29_09h06.42.135,Colour_Asymmetry_Pilot,2022.1.3,Win32,59.19261276,62bbe60bf3d75ef465d3e404,0,122,122,87,1,fourthree,,,,,,,,,,,,,,,,,,,,,,,,,,,,,,,,,,,,,,,,,,,,,,,,,,,,,,,,,,,,,,,,,,,,,,,,,,,,,,,,,,,,,,,,,,,,,,,,,,,,,,,,,,,,,,,,,,,,,,,,,,,,,,,,,,,,,,,,,,,,,,,,,,,,,,,,
,,,,,,6167e5b21fe4bb7b2579fa56,62bbf9cc78b360e771dcb992,2022-06-29_09h06.42.135,Colour_Asymmetry_Pilot,2022.1.3,Win32,59.19261276,62bbe60bf3d75ef465d3e404,0,123,123,16,1,onetwo,,,,,,,,,,,,,,,,,,,,,,,,,,,,,,,,,,,,,,,,,,,,,,,,,,,,,,,,,,,,,,,,,,,,,,,,,,,,,,,,,,,,,,,,,,,,,,,,,,,,,,,,,,,,,,,,,,,,,,,,,,,,,,,,,,,,,,,,,,,,,,,,,,,,,,,,
,,,,,,6167e5b21fe4bb7b2579fa56,62bbf9cc78b360e771dcb992,2022-06-29_09h06.42.135,Colour_Asymmetry_Pilot,2022.1.3,Win32,59.19261276,62bbe60bf3d75ef465d3e404,0,124,124,160,1,onetwo,,,,,,,,,,,,,,,,,,,,,,,,,,,,,,,,,,,,,,,,,,,,,,,,,,,,,,,,,,,,,,,,,,,,,,,,,,,,,,,,,,,,,,,,,,,,,,,,,,,,,,,,,,,,,,,,,,,,,,,,,,,,,,,,,,,,,,,,,,,,,,,,,,,,,,,,
,,,,,,6167e5b21fe4bb7b2579fa56,62bbf9cc78b360e771dcb992,2022-06-29_09h06.42.135,Colour_Asymmetry_Pilot,2022.1.3,Win32,59.19261276,62bbe60bf3d75ef465d3e404,0,125,125,106,1,twoone,,,,,,,,,,,,,,,,,,,,,,,,,,,,,,,,,,,,,,,,,,,,,,,,,,,,,,,,,,,,,,,,,,,,,,,,,,,,,,,,,,,,,,,,,,,,,,,,,,,,,,,,,,,,,,,,,,,,,,,,,,,,,,,,,,,,,,,,,,,,,,,,,,,,,,,,
,,,,,,6167e5b21fe4bb7b2579fa56,62bbf9cc78b360e771dcb992,2022-06-29_09h06.42.135,Colour_Asymmetry_Pilot,2022.1.3,Win32,59.19261276,62bbe60bf3d75ef465d3e404,0,126,126,126,1,fourtwo,,,,,,,,,,,,,,,,,,,,,,,,,,,,,,,,,,,,,,,,,,,,,,,,,,,,,,,,,,,,,,,,,,,,,,,,,,,,,,,,,,,,,,,,,,,,,,,,,,,,,,,,,,,,,,,,,,,,,,,,,,,,,,,,,,,,,,,,,,,,,,,,,,,,,,,,
,,,,,,6167e5b21fe4bb7b2579fa56,62bbf9cc78b360e771dcb992,2022-06-29_09h06.42.135,Colour_Asymmetry_Pilot,2022.1.3,Win32,59.19261276,62bbe60bf3d75ef465d3e404,0,127,127,55,1,fourthree,,,,,,,,,,,,,,,,,,,,,,,,,,,,,,,,,,,,,,,,,,,,,,,,,,,,,,,,,,,,,,,,,,,,,,,,,,,,,,,,,,,,,,,,,,,,,,,,,,,,,,,,,,,,,,,,,,,,,,,,,,,,,,,,,,,,,,,,,,,,,,,,,,,,,,,,
,,,,,,6167e5b21fe4bb7b2579fa56,62bbf9cc78b360e771dcb992,2022-06-29_09h06.42.135,Colour_Asymmetry_Pilot,2022.1.3,Win32,59.19261276,62bbe60bf3d75ef465d3e404,0,128,128,20,1,threeone,,,,,,,,,,,,,,,,,,,,,,,,,,,,,,,,,,,,,,,,,,,,,,,,,,,,,,,,,,,,,,,,,,,,,,,,,,,,,,,,,,,,,,,,,,,,,,,,,,,,,,,,,,,,,,,,,,,,,,,,,,,,,,,,,,,,,,,,,,,,,,,,,,,,,,,,
,,,,,,6167e5b21fe4bb7b2579fa56,62bbf9cc78b360e771dcb992,2022-06-29_09h06.42.135,Colour_Asymmetry_Pilot,2022.1.3,Win32,59.19261276,62bbe60bf3d75ef465d3e404,0,129,129,120,1,onetwo,,,,,,,,,,,,,,,,,,,,,,,,,,,,,,,,,,,,,,,,,,,,,,,,,,,,,,,,,,,,,,,,,,,,,,,,,,,,,,,,,,,,,,,,,,,,,,,,,,,,,,,,,,,,,,,,,,,,,,,,,,,,,,,,,,,,,,,,,,,,,,,,,,,,,,,,
,,,,,,6167e5b21fe4bb7b2579fa56,62bbf9cc78b360e771dcb992,2022-06-29_09h06.42.135,Colour_Asymmetry_Pilot,2022.1.3,Win32,59.19261276,62bbe60bf3d75ef465d3e404,0,130,130,50,1,twoone,,,,,,,,,,,,,,,,,,,,,,,,,,,,,,,,,,,,,,,,,,,,,,,,,,,,,,,,,,,,,,,,,,,,,,,,,,,,,,,,,,,,,,,,,,,,,,,,,,,,,,,,,,,,,,,,,,,,,,,,,,,,,,,,,,,,,,,,,,,,,,,,,,,,,,,,
,,,,,,6167e5b21fe4bb7b2579fa56,62bbf9cc78b360e771dcb992,2022-06-29_09h06.42.135,Colour_Asymmetry_Pilot,2022.1.3,Win32,59.19261276,62bbe60bf3d75ef465d3e404,0,131,131,66,1,twoone,,,,,,,,,,,,,,,,,,,,,,,,,,,,,,,,,,,,,,,,,,,,,,,,,,,,,,,,,,,,,,,,,,,,,,,,,,,,,,,,,,,,,,,,,,,,,,,,,,,,,,,,,,,,,,,,,,,,,,,,,,,,,,,,,,,,,,,,,,,,,,,,,,,,,,,,
,,,,,,6167e5b21fe4bb7b2579fa56,62bbf9cc78b360e771dcb992,2022-06-29_09h06.42.135,Colour_Asymmetry_Pilot,2022.1.3,Win32,59.19261276,62bbe60bf3d75ef465d3e404,0,132,132,12,1,threeone,,,,,,,,,,,,,,,,,,,,,,,,,,,,,,,,,,,,,,,,,,,,,,,,,,,,,,,,,,,,,,,,,,,,,,,,,,,,,,,,,,,,,,,,,,,,,,,,,,,,,,,,,,,,,,,,,,,,,,,,,,,,,,,,,,,,,,,,,,,,,,,,,,,,,,,,
,,,,,,6167e5b21fe4bb7b2579fa56,62bbf9cc78b360e771dcb992,2022-06-29_09h06.42.135,Colour_Asymmetry_Pilot,2022.1.3,Win32,59.19261276,62bbe60bf3d75ef465d3e404,0,133,133,59,1,twofour,,,,,,,,,,,,,,,,,,,,,,,,,,,,,,,,,,,,,,,,,,,,,,,,,,,,,,,,,,,,,,,,,,,,,,,,,,,,,,,,,,,,,,,,,,,,,,,,,,,,,,,,,,,,,,,,,,,,,,,,,,,,,,,,,,,,,,,,,,,,,,,,,,,,,,,,
,,,,,,6167e5b21fe4bb7b2579fa56,62bbf9cc78b360e771dcb992,2022-06-29_09h06.42.135,Colour_Asymmetry_Pilot,2022.1.3,Win32,59.19261276,62bbe60bf3d75ef465d3e404,0,134,134,8,1,onetwo,,,,,,,,,,,,,,,,,,,,,,,,,,,,,,,,,,,,,,,,,,,,,,,,,,,,,,,,,,,,,,,,,,,,,,,,,,,,,,,,,,,,,,,,,,,,,,,,,,,,,,,,,,,,,,,,,,,,,,,,,,,,,,,,,,,,,,,,,,,,,,,,,,,,,,,,
,,,,,,6167e5b21fe4bb7b2579fa56,62bbf9cc78b360e771dcb992,2022-06-29_09h06.42.135,Colour_Asymmetry_Pilot,2022.1.3,Win32,59.19261276,62bbe60bf3d75ef465d3e404,0,135,135,78,1,fourtwo,,,,,,,,,,,,,,,,,,,,,,,,,,,,,,,,,,,,,,,,,,,,,,,,,,,,,,,,,,,,,,,,,,,,,,,,,,,,,,,,,,,,,,,,,,,,,,,,,,,,,,,,,,,,,,,,,,,,,,,,,,,,,,,,,,,,,,,,,,,,,,,,,,,,,,,,
,,,,,,6167e5b21fe4bb7b2579fa56,62bbf9cc78b360e771dcb992,2022-06-29_09h06.42.135,Colour_Asymmetry_Pilot,2022.1.3,Win32,59.19261276,62bbe60bf3d75ef465d3e404,0,136,136,46,1,fourtwo,,,,,,,,,,,,,,,,,,,,,,,,,,,,,,,,,,,,,,,,,,,,,,,,,,,,,,,,,,,,,,,,,,,,,,,,,,,,,,,,,,,,,,,,,,,,,,,,,,,,,,,,,,,,,,,,,,,,,,,,,,,,,,,,,,,,,,,,,,,,,,,,,,,,,,,,
,,,,,,6167e5b21fe4bb7b2579fa56,62bbf9cc78b360e771dcb992,2022-06-29_09h06.42.135,Colour_Asymmetry_Pilot,2022.1.3,Win32,59.19261276,62bbe60bf3d75ef465d3e404,0,137,137,107,1,twofour,,,,,,,,,,,,,,,,,,,,,,,,,,,,,,,,,,,,,,,,,,,,,,,,,,,,,,,,,,,,,,,,,,,,,,,,,,,,,,,,,,,,,,,,,,,,,,,,,,,,,,,,,,,,,,,,,,,,,,,,,,,,,,,,,,,,,,,,,,,,,,,,,,,,,,,,
,,,,,,6167e5b21fe4bb7b2579fa56,62bbf9cc78b360e771dcb992,2022-06-29_09h06.42.135,Colour_Asymmetry_Pilot,2022.1.3,Win32,59.19261276,62bbe60bf3d75ef465d3e404,0,138,138,38,1,fourtwo,,,,,,,,,,,,,,,,,,,,,,,,,,,,,,,,,,,,,,,,,,,,,,,,,,,,,,,,,,,,,,,,,,,,,,,,,,,,,,,,,,,,,,,,,,,,,,,,,,,,,,,,,,,,,,,,,,,,,,,,,,,,,,,,,,,,,,,,,,,,,,,,,,,,,,,,
,,,,,,6167e5b21fe4bb7b2579fa56,62bbf9cc78b360e771dcb992,2022-06-29_09h06.42.135,Colour_Asymmetry_Pilot,2022.1.3,Win32,59.19261276,62bbe60bf3d75ef465d3e404,0,139,139,114,1,twoone,,,,,,,,,,,,,,,,,,,,,,,,,,,,,,,,,,,,,,,,,,,,,,,,,,,,,,,,,,,,,,,,,,,,,,,,,,,,,,,,,,,,,,,,,,,,,,,,,,,,,,,,,,,,,,,,,,,,,,,,,,,,,,,,,,,,,,,,,,,,,,,,,,,,,,,,
,,,,,,6167e5b21fe4bb7b2579fa56,62bbf9cc78b360e771dcb992,2022-06-29_09h06.42.135,Colour_Asymmetry_Pilot,2022.1.3,Win32,59.19261276,62bbe60bf3d75ef465d3e404,0,140,140,136,1,onetwo,,,,,,,,,,,,,,,,,,,,,,,,,,,,,,,,,,,,,,,,,,,,,,,,,,,,,,,,,,,,,,,,,,,,,,,,,,,,,,,,,,,,,,,,,,,,,,,,,,,,,,,,,,,,,,,,,,,,,,,,,,,,,,,,,,,,,,,,,,,,,,,,,,,,,,,,
,,,,,,6167e5b21fe4bb7b2579fa56,62bbf9cc78b360e771dcb992,2022-06-29_09h06.42.135,Colour_Asymmetry_Pilot,2022.1.3,Win32,59.19261276,62bbe60bf3d75ef465d3e404,0,141,141,103,1,fourthree,,,,,,,,,,,,,,,,,,,,,,,,,,,,,,,,,,,,,,,,,,,,,,,,,,,,,,,,,,,,,,,,,,,,,,,,,,,,,,,,,,,,,,,,,,,,,,,,,,,,,,,,,,,,,,,,,,,,,,,,,,,,,,,,,,,,,,,,,,,,,,,,,,,,,,,,
,,,,,,6167e5b21fe4bb7b2579fa56,62bbf9cc78b360e771dcb992,2022-06-29_09h06.42.135,Colour_Asymmetry_Pilot,2022.1.3,Win32,59.19261276,62bbe60bf3d75ef465d3e404,0,142,142,72,1,onetwo,,,,,,,,,,,,,,,,,,,,,,,,,,,,,,,,,,,,,,,,,,,,,,,,,,,,,,,,,,,,,,,,,,,,,,,,,,,,,,,,,,,,,,,,,,,,,,,,,,,,,,,,,,,,,,,,,,,,,,,,,,,,,,,,,,,,,,,,,,,,,,,,,,,,,,,,
,,,,,,6167e5b21fe4bb7b2579fa56,62bbf9cc78b360e771dcb992,2022-06-29_09h06.42.135,Colour_Asymmetry_Pilot,2022.1.3,Win32,59.19261276,62bbe60bf3d75ef465d3e404,0,143,143,123,1,twofour,,,,,,,,,,,,,,,,,,,,,,,,,,,,,,,,,,,,,,,,,,,,,,,,,,,,,,,,,,,,,,,,,,,,,,,,,,,,,,,,,,,,,,,,,,,,,,,,,,,,,,,,,,,,,,,,,,,,,,,,,,,,,,,,,,,,,,,,,,,,,,,,,,,,,,,,
,,,,,,6167e5b21fe4bb7b2579fa56,62bbf9cc78b360e771dcb992,2022-06-29_09h06.42.135,Colour_Asymmetry_Pilot,2022.1.3,Win32,59.19261276,62bbe60bf3d75ef465d3e404,0,144,144,93,1,threefour,,,,,,,,,,,,,,,,,,,,,,,,,,,,,,,,,,,,,,,,,,,,,,,,,,,,,,,,,,,,,,,,,,,,,,,,,,,,,,,,,,,,,,,,,,,,,,,,,,,,,,,,,,,,,,,,,,,,,,,,,,,,,,,,,,,,,,,,,,,,,,,,,,,,,,,,
,,,,,,6167e5b21fe4bb7b2579fa56,62bbf9cc78b360e771dcb992,2022-06-29_09h06.42.135,Colour_Asymmetry_Pilot,2022.1.3,Win32,59.19261276,62bbe60bf3d75ef465d3e404,0,145,145,142,1,fourtwo,,,,,,,,,,,,,,,,,,,,,,,,,,,,,,,,,,,,,,,,,,,,,,,,,,,,,,,,,,,,,,,,,,,,,,,,,,,,,,,,,,,,,,,,,,,,,,,,,,,,,,,,,,,,,,,,,,,,,,,,,,,,,,,,,,,,,,,,,,,,,,,,,,,,,,,,
,,,,,,6167e5b21fe4bb7b2579fa56,62bbf9cc78b360e771dcb992,2022-06-29_09h06.42.135,Colour_Asymmetry_Pilot,2022.1.3,Win32,59.19261276,62bbe60bf3d75ef465d3e404,0,146,146,97,1,onethree,,,,,,,,,,,,,,,,,,,,,,,,,,,,,,,,,,,,,,,,,,,,,,,,,,,,,,,,,,,,,,,,,,,,,,,,,,,,,,,,,,,,,,,,,,,,,,,,,,,,,,,,,,,,,,,,,,,,,,,,,,,,,,,,,,,,,,,,,,,,,,,,,,,,,,,,
,,,,,,6167e5b21fe4bb7b2579fa56,62bbf9cc78b360e771dcb992,2022-06-29_09h06.42.135,Colour_Asymmetry_Pilot,2022.1.3,Win32,59.19261276,62bbe60bf3d75ef465d3e404,0,147,147,56,1,onetwo,,,,,,,,,,,,,,,,,,,,,,,,,,,,,,,,,,,,,,,,,,,,,,,,,,,,,,,,,,,,,,,,,,,,,,,,,,,,,,,,,,,,,,,,,,,,,,,,,,,,,,,,,,,,,,,,,,,,,,,,,,,,,,,,,,,,,,,,,,,,,,,,,,,,,,,,
,,,,,,6167e5b21fe4bb7b2579fa56,62bbf9cc78b360e771dcb992,2022-06-29_09h06.42.135,Colour_Asymmetry_Pilot,2022.1.3,Win32,59.19261276,62bbe60bf3d75ef465d3e404,0,148,148,18,1,twoone,,,,,,,,,,,,,,,,,,,,,,,,,,,,,,,,,,,,,,,,,,,,,,,,,,,,,,,,,,,,,,,,,,,,,,,,,,,,,,,,,,,,,,,,,,,,,,,,,,,,,,,,,,,,,,,,,,,,,,,,,,,,,,,,,,,,,,,,,,,,,,,,,,,,,,,,
,,,,,,6167e5b21fe4bb7b2579fa56,62bbf9cc78b360e771dcb992,2022-06-29_09h06.42.135,Colour_Asymmetry_Pilot,2022.1.3,Win32,59.19261276,62bbe60bf3d75ef465d3e404,0,149,149,138,1,twoone,,,,,,,,,,,,,,,,,,,,,,,,,,,,,,,,,,,,,,,,,,,,,,,,,,,,,,,,,,,,,,,,,,,,,,,,,,,,,,,,,,,,,,,,,,,,,,,,,,,,,,,,,,,,,,,,,,,,,,,,,,,,,,,,,,,,,,,,,,,,,,,,,,,,,,,,
,,,,,,6167e5b21fe4bb7b2579fa56,62bbf9cc78b360e771dcb992,2022-06-29_09h06.42.135,Colour_Asymmetry_Pilot,2022.1.3,Win32,59.19261276,62bbe60bf3d75ef465d3e404,0,150,150,119,1,fourthree,,,,,,,,,,,,,,,,,,,,,,,,,,,,,,,,,,,,,,,,,,,,,,,,,,,,,,,,,,,,,,,,,,,,,,,,,,,,,,,,,,,,,,,,,,,,,,,,,,,,,,,,,,,,,,,,,,,,,,,,,,,,,,,,,,,,,,,,,,,,,,,,,,,,,,,,
,,,,,,6167e5b21fe4bb7b2579fa56,62bbf9cc78b360e771dcb992,2022-06-29_09h06.42.135,Colour_Asymmetry_Pilot,2022.1.3,Win32,59.19261276,62bbe60bf3d75ef465d3e404,0,151,151,11,1,twofour,,,,,,,,,,,,,,,,,,,,,,,,,,,,,,,,,,,,,,,,,,,,,,,,,,,,,,,,,,,,,,,,,,,,,,,,,,,,,,,,,,,,,,,,,,,,,,,,,,,,,,,,,,,,,,,,,,,,,,,,,,,,,,,,,,,,,,,,,,,,,,,,,,,,,,,,
,,,,,,6167e5b21fe4bb7b2579fa56,62bbf9cc78b360e771dcb992,2022-06-29_09h06.42.135,Colour_Asymmetry_Pilot,2022.1.3,Win32,59.19261276,62bbe60bf3d75ef465d3e404,0,152,152,96,1,onetwo,,,,,,,,,,,,,,,,,,,,,,,,,,,,,,,,,,,,,,,,,,,,,,,,,,,,,,,,,,,,,,,,,,,,,,,,,,,,,,,,,,,,,,,,,,,,,,,,,,,,,,,,,,,,,,,,,,,,,,,,,,,,,,,,,,,,,,,,,,,,,,,,,,,,,,,,
,,,,,,6167e5b21fe4bb7b2579fa56,62bbf9cc78b360e771dcb992,2022-06-29_09h06.42.135,Colour_Asymmetry_Pilot,2022.1.3,Win32,59.19261276,62bbe60bf3d75ef465d3e404,0,153,153,63,1,fourthree,,,,,,,,,,,,,,,,,,,,,,,,,,,,,,,,,,,,,,,,,,,,,,,,,,,,,,,,,,,,,,,,,,,,,,,,,,,,,,,,,,,,,,,,,,,,,,,,,,,,,,,,,,,,,,,,,,,,,,,,,,,,,,,,,,,,,,,,,,,,,,,,,,,,,,,,
,,,,,,6167e5b21fe4bb7b2579fa56,62bbf9cc78b360e771dcb992,2022-06-29_09h06.42.135,Colour_Asymmetry_Pilot,2022.1.3,Win32,59.19261276,62bbe60bf3d75ef465d3e404,0,154,154,10,1,twoone,,,,,,,,,,,,,,,,,,,,,,,,,,,,,,,,,,,,,,,,,,,,,,,,,,,,,,,,,,,,,,,,,,,,,,,,,,,,,,,,,,,,,,,,,,,,,,,,,,,,,,,,,,,,,,,,,,,,,,,,,,,,,,,,,,,,,,,,,,,,,,,,,,,,,,,,
,,,,,,6167e5b21fe4bb7b2579fa56,62bbf9cc78b360e771dcb992,2022-06-29_09h06.42.135,Colour_Asymmetry_Pilot,2022.1.3,Win32,59.19261276,62bbe60bf3d75ef465d3e404,0,155,155,5,1,threefour,,,,,,,,,,,,,,,,,,,,,,,,,,,,,,,,,,,,,,,,,,,,,,,,,,,,,,,,,,,,,,,,,,,,,,,,,,,,,,,,,,,,,,,,,,,,,,,,,,,,,,,,,,,,,,,,,,,,,,,,,,,,,,,,,,,,,,,,,,,,,,,,,,,,,,,,
,,,,,,6167e5b21fe4bb7b2579fa56,62bbf9cc78b360e771dcb992,2022-06-29_09h06.42.135,Colour_Asymmetry_Pilot,2022.1.3,Win32,59.19261276,62bbe60bf3d75ef465d3e404,0,156,156,28,1,threeone,,,,,,,,,,,,,,,,,,,,,,,,,,,,,,,,,,,,,,,,,,,,,,,,,,,,,,,,,,,,,,,,,,,,,,,,,,,,,,,,,,,,,,,,,,,,,,,,,,,,,,,,,,,,,,,,,,,,,,,,,,,,,,,,,,,,,,,,,,,,,,,,,,,,,,,,
,,,,,,6167e5b21fe4bb7b2579fa56,62bbf9cc78b360e771dcb992,2022-06-29_09h06.42.135,Colour_Asymmetry_Pilot,2022.1.3,Win32,59.19261276,62bbe60bf3d75ef465d3e404,0,157,157,36,1,threeone,,,,,,,,,,,,,,,,,,,,,,,,,,,,,,,,,,,,,,,,,,,,,,,,,,,,,,,,,,,,,,,,,,,,,,,,,,,,,,,,,,,,,,,,,,,,,,,,,,,,,,,,,,,,,,,,,,,,,,,,,,,,,,,,,,,,,,,,,,,,,,,,,,,,,,,,
,,,,,,6167e5b21fe4bb7b2579fa56,62bbf9cc78b360e771dcb992,2022-06-29_09h06.42.135,Colour_Asymmetry_Pilot,2022.1.3,Win32,59.19261276,62bbe60bf3d75ef465d3e404,0,158,158,154,1,twoone,,,,,,,,,,,,,,,,,,,,,,,,,,,,,,,,,,,,,,,,,,,,,,,,,,,,,,,,,,,,,,,,,,,,,,,,,,,,,,,,,,,,,,,,,,,,,,,,,,,,,,,,,,,,,,,,,,,,,,,,,,,,,,,,,,,,,,,,,,,,,,,,,,,,,,,,
,,,,,,6167e5b21fe4bb7b2579fa56,62bbf9cc78b360e771dcb992,2022-06-29_09h06.42.135,Colour_Asymmetry_Pilot,2022.1.3,Win32,59.19261276,62bbe60bf3d75ef465d3e404,0,159,159,40,1,onetwo,,,,,,,,,,,,,,,,,,,,,,,,,,,,,,,,,,,,,,,,,,,,,,,,,,,,,,,,,,,,,,,,,,,,,,,,,,,,,,,,,,,,,,,,,,,,,,,,,,,,,,,,,,,,,,,,,,,,,,,,,,,,,,,,,,,,,,,,,,,,,,,,,,,,,,,,
,,,,,,6167e5b21fe4bb7b2579fa56,62bbf9cc78b360e771dcb992,2022-06-29_09h06.42.135,Colour_Asymmetry_Pilot,2022.1.3,Win32,59.19261276,62bbe60bf3d75ef465d3e404,0,160,160,1,1,onethree,,,,,,,,,,,,,,,,,,,,,,,,,,,,,,,,,,,,,,,,,,,,,,,,,,,,,,,,,,,,,,,,,,,,,,,,,,,,,,,,,,,,,,,,,,,,,,,,,,,,,,,,,,,,,,,,,,,,,,,,,,,,,,,,,,,,,,,,,,,,,,,,,,,,,,,,
,,,,,,6167e5b21fe4bb7b2579fa56,62bbf9cc78b360e771dcb992,2022-06-29_09h06.42.135,Colour_Asymmetry_Pilot,2022.1.3,Win32,59.19261276,62bbe60bf3d75ef465d3e404,0,161,161,49,1,onethree,,,,,,,,,,,,,,,,,,,,,,,,,,,,,,,,,,,,,,,,,,,,,,,,,,,,,,,,,,,,,,,,,,,,,,,,,,,,,,,,,,,,,,,,,,,,,,,,,,,,,,,,,,,,,,,,,,,,,,,,,,,,,,,,,,,,,,,,,,,,,,,,,,,,,,,,
,,,,,,6167e5b21fe4bb7b2579fa56,62bbf9cc78b360e771dcb992,2022-06-29_09h06.42.135,Colour_Asymmetry_Pilot,2022.1.3,Win32,59.19261276,62bbe60bf3d75ef465d3e404,,,,,,,space,2.4103,space,18.1333,space,45.0697,space,26.7294,space,8.761,space,6.3617,"[-0.45899999999999996,-0.3256,-0.9374]",onetwo,"[-0.8982,-0.37259999999999993,0.2784]",-4,16.5268,-52.79998779,113.6000061,1,0,0,response7disk_5,-8.799987793,2.399993896,1,0,0,rectangle_8,-8.799987793,2.399993896,1,0,0,3,-8.799987793,2.399993896,1,0,0,0,0,0,0,1,,,,,,,,,,,,,,,,,,,,,,,,,,,,,,,,,,,,,,,,,,,,,,,,,,,,,,,,,,,,,,,,,,,,,,,,,,,,,,,,,,,,,,,,,,,,,,,,,,,,,,,,,,,
,,,,,,6167e5b21fe4bb7b2579fa56,62bbf9cc78b360e771dcb992,2022-06-29_09h06.42.135,Colour_Asymmetry_Pilot,2022.1.3,Win32,59.19261276,62bbe60bf3d75ef465d3e404,,,,,,,,,,,,,,,,,,,"[0.6625999999999999,0.4980000000000002,-0.357]",threeone,"[0.9686000000000001,0.3802000000000001,0.19999999999999996]",-3,14.6744,-99.20001221,32.79998779,1,0,0,response7disk_5,-18.39996338,-8,1,0,0,rectangle_8,-18.39996338,-8,1,0,0,3,-18.39996338,-8,1,0,0,1,0,1,0,1,,,,,,,,,,,,,,,,,,,,,,,,,,,,,,,,,,,,,,,,,,,,,,,,,,,,,,,,,,,,,,,,,,,,,,,,,,,,,,,,,,,,,,,,,,,,,,,,,,,,,,,,,,,
,,,,,,6167e5b21fe4bb7b2579fa56,62bbf9cc78b360e771dcb992,2022-06-29_09h06.42.135,Colour_Asymmetry_Pilot,2022.1.3,Win32,59.19261276,62bbe60bf3d75ef465d3e404,,,,,,,,,,,,,,,,,,,"[-0.5452,-0.608,0.2470000000000001]",onethree,"[0.5449999999999999,-0.31000000000000005,-0.0354000000000001]",-4,1.4006,-55.20001221,82.3999939,1,0,0,response7disk_5,-2.399963379,-1.600006104,1,0,0,rectangle_8,-2.399963379,-1.600006104,1,0,0,3,-2.399963379,-1.600006104,1,0,0,2,0,2,0,1,,,,,,,,,,,,,,,,,,,,,,,,,,,,,,,,,,,,,,,,,,,,,,,,,,,,,,,,,,,,,,,,,,,,,,,,,,,,,,,,,,,,,,,,,,,,,,,,,,,,,,,,,,,
,,,,,,6167e5b21fe4bb7b2579fa56,62bbf9cc78b360e771dcb992,2022-06-29_09h06.42.135,Colour_Asymmetry_Pilot,2022.1.3,Win32,59.19261276,62bbe60bf3d75ef465d3e404,,,,,,,,,,,,,,,,,,,"[0.23120000000000007,-0.7726,-0.34120000000000006]",fourtwo,"[-0.48240000000000005,0.3175999999999999,0.2156]",-4,1.3999,-62.39996338,107.1999817,1,0,0,response7disk_5,-8,-2.399993896,1,0,0,rectangle_8,-8,-2.399993896,1,0,0,3,-8,-2.399993896,1,0,0,3,0,3,0,1,,,,,,,,,,,,,,,,,,,,,,,,,,,,,,,,,,,,,,,,,,,,,,,,,,,,,,,,,,,,,,,,,,,,,,,,,,,,,,,,,,,,,,,,,,,,,,,,,,,,,,,,,,,
,,,,,,6167e5b21fe4bb7b2579fa56,62bbf9cc78b360e771dcb992,2022-06-29_09h06.42.135,Colour_Asymmetry_Pilot,2022.1.3,Win32,59.19261276,62bbe60bf3d75ef465d3e404,,,,,,,,,,,,,,,,,,,"[-0.050999999999999934,-0.6706000000000001,-0.804]",onethree,"[-0.4982,-0.2942,-0.0354000000000001]",-4,1.2836,-51.20001221,86.3999939,1,0,0,response7disk_5,9.600036621,2.399993896,1,0,0,rectangle_8,57.60003662,27.19998169,1,0,0,3,8,9.600006104,1,0,0,4,0,4,0,1,response1disk_7,6,rectangle_4,,,,,,,,,,,,,,,,,,,,,,,,,,,,,,,,,,,,,,,,,,,,,,,,,,,,,,,,,,,,,,,,,,,,,,,,,,,,,,,,,,,,,,,,,,,,,,,,,,,,,,,,
,,,,,,6167e5b21fe4bb7b2579fa56,62bbf9cc78b360e771dcb992,2022-06-29_09h06.42.135,Colour_Asymmetry_Pilot,2022.1.3,Win32,59.19261276,62bbe60bf3d75ef465d3e404,,,,,,,,,,,,,,,,,,,"[0.12939999999999996,-0.2864,0.3253999999999999]",threefour,"[-0.17659999999999998,-0.2864,-0.8354]",-4,1.9836,-37.59997559,71.19998169,1,0,0,response7disk_5,-1.599975586,-4.800018311,1,0,0,rectangle_8,-60.79998779,31.19998169,1,0,0,3,0,2.399993896,1,0,0,5,0,5,0,1,response7disk_7,1,rectangle_4,,,,,,,,,,,,,,,,,,,,,,,,,,,,,,,,,,,,,,,,,,,,,,,,,,,,,,,,,,,,,,,,,,,,,,,,,,,,,,,,,,,,,,,,,,,,,,,,,,,,,,,,
,,,,,,6167e5b21fe4bb7b2579fa56,62bbf9cc78b360e771dcb992,2022-06-29_09h06.42.135,Colour_Asymmetry_Pilot,2022.1.3,Win32,59.19261276,62bbe60bf3d75ef465d3e404,,,,,,,,,,,,,,,,,,,"[0.30180000000000007,-0.7884,-0.9844]",fourtwo,"[0.37240000000000006,0.4980000000000002,-0.2864]",-4,1.8675,-48,100.7999878,1,0,0,response7disk_5,-8.799987793,0.799987793,1,0,0,rectangle_8,-8.799987793,0.799987793,1,0,0,3,-8.799987793,0.799987793,1,0,0,6,0,6,0,1,,,,,,,,,,,,,,,,,,,,,,,,,,,,,,,,,,,,,,,,,,,,,,,,,,,,,,,,,,,,,,,,,,,,,,,,,,,,,,,,,,,,,,,,,,,,,,,,,,,,,,,,,,,
,,,,,,6167e5b21fe4bb7b2579fa56,62bbf9cc78b360e771dcb992,2022-06-29_09h06.42.135,Colour_Asymmetry_Pilot,2022.1.3,Win32,59.19261276,62bbe60bf3d75ef465d3e404,,,,,,,,,,,,,,,,,,,,fourthree,,-2,5.481,,,,,,,,,,,,,,,,,,,,,,,,,,,,,,,,space,3.8974,"[-0.30200000000000005,0.14500000000000002,0.2784]","[0.19199999999999995,0.18419999999999992,0.5136000000000001]",-95.20001221,-60.80001831,1,0,0,response5disk,-20,-0.800018311,1,0,0,rectangle,-20,-0.800018311,1,0,0,,1,0.0016,0,-20,-0.800018311,1,0,0,0,0,0,141,1,60,second,,,,,,,,,,,,,,,,,,,,,,,,,,,,,,,,,,,,,,,,,,,,,,,,,,,,,,,,,,,,,,,,,,,
,,,,,,6167e5b21fe4bb7b2579fa56,62bbf9cc78b360e771dcb992,2022-06-29_09h06.42.135,Colour_Asymmetry_Pilot,2022.1.3,Win32,59.19261276,62bbe60bf3d75ef465d3e404,,,,,,,,,,,,,,,,,,,,fourthree,,-4,0.9472,,,,,,,,,,,,,,,,,,,,,,,,,,,,,,,,,,"[0.9213999999999998,0.6391999999999998,-0.9922]","[-0.9844,-0.9688,-0.9922]",-43.20001221,91.19998169,1,0,0,response7disk,0,-7.200012207,1,0,0,rectangle,0,-7.200012207,1,0,0,,3,0.0029,0,0,-7.200012207,1,0,0,0,1,1,27,1,27,first,,,,,,,,,,,,,,,,,,,,,,,,,,,,,,,,,,,,,,,,,,,,,,,,,,,,,,,,,,,,,,,,,,,
,,,,,,6167e5b21fe4bb7b2579fa56,62bbf9cc78b360e771dcb992,2022-06-29_09h06.42.135,Colour_Asymmetry_Pilot,2022.1.3,Win32,59.19261276,62bbe60bf3d75ef465d3e404,,,,,,,,,,,,,,,,,,,,onetwo,,-2,3.5134,,,,,,,,,,,,,,,,,,,,,,,,,,,,,,,,,,"[-0.6,0.16860000000000008,0.44300000000000006]","[-0.48240000000000005,0.3175999999999999,0.2156]",-95.20001221,-64.80001831,1,0,0,response5disk,-24,-4,1,0,0,rectangle,-24,-4,1,0,0,,3,0.0006,0,-24,-4,1,0,0,0,2,2,115,1,34,second,,,,,,,,,,,,,,,,,,,,,,,,,,,,,,,,,,,,,,,,,,,,,,,,,,,,,,,,,,,,,,,,,,,
,,,,,,6167e5b21fe4bb7b2579fa56,62bbf9cc78b360e771dcb992,2022-06-29_09h06.42.135,Colour_Asymmetry_Pilot,2022.1.3,Win32,59.19261276,62bbe60bf3d75ef465d3e404,,,,,,,,,,,,,,,,,,,,fourtwo,,-3,1.615,,,,,,,,,,,,,,,,,,,,,,,,,,,,,,,,,,"[0.11359999999999992,0.6312,0.5213999999999999]","[-0.24719999999999998,-0.0354000000000001,0.3175999999999999]",-83.20001221,44.79998779,1,0,0,response7disk,-10.39996338,-8,1,0,0,rectangle,-10.39996338,-8,1,0,0,,2,0.0023,0,-10.39996338,-8,1,0,0,0,3,3,22,1,22,first,,,,,,,,,,,,,,,,,,,,,,,,,,,,,,,,,,,,,,,,,,,,,,,,,,,,,,,,,,,,,,,,,,,
,,,,,,6167e5b21fe4bb7b2579fa56,62bbf9cc78b360e771dcb992,2022-06-29_09h06.42.135,Colour_Asymmetry_Pilot,2022.1.3,Win32,59.19261276,62bbe60bf3d75ef465d3e404,,,,,,,,,,,,,,,,,,,,fourthree,,-4,1.0516,,,,,,,,,,,,,,,,,,,,,,,,,,,,,,,,,,"[0.7646000000000002,0.07440000000000002,0.2704]","[0.3568,-0.20799999999999996,-0.9844]",-33.59997559,60.79998779,1,0,0,response7disk,-8.799987793,-6.399993896,1,0,0,rectangle,44.79998779,-78.3999939,1,0,0,1,1,5.2776,1,-4,-1.600006104,1,0,0,0,4,4,159,1,78,second,response3disk_3,rectangle,,,,,,,,,,,,,,,,,,,,,,,,,,,,,,,,,,,,,,,,,,,,,,,,,,,,,,,,,,,,,,,,,
,,,,,,6167e5b21fe4bb7b2579fa56,62bbf9cc78b360e771dcb992,2022-06-29_09h06.42.135,Colour_Asymmetry_Pilot,2022.1.3,Win32,59.19261276,62bbe60bf3d75ef465d3e404,,,,,,,,,,,,,,,,,,,,twofour,,-4,4.8473,,,,,,,,,,,,,,,,,,,,,,,,,,,,,,,,,,"[-0.0040000000000000036,0.02739999999999987,-0.08239999999999992]","[-0.10599999999999998,-0.15300000000000002,0.15280000000000005]",-43.20001221,76,1,0,0,response7disk,-11.20001221,1.600006104,1,0,0,rectangle,-11.20001221,1.600006104,1,0,0,1,3,0.0011,0,-11.20001221,1.600006104,1,0,0,0,5,5,90,1,9,second,,,,,,,,,,,,,,,,,,,,,,,,,,,,,,,,,,,,,,,,,,,,,,,,,,,,,,,,,,,,,,,,,,,
,,,,,,6167e5b21fe4bb7b2579fa56,62bbf9cc78b360e771dcb992,2022-06-29_09h06.42.135,Colour_Asymmetry_Pilot,2022.1.3,Win32,59.19261276,62bbe60bf3d75ef465d3e404,,,,,,,,,,,,,,,,,,,,twoone,,-4,0.9917,,,,,,,,,,,,,,,,,,,,,,,,,,,,,,,,,,"[-0.4276,0.0038000000000000256,-0.3256]","[0.40379999999999994,0.09000000000000008,0.44300000000000006]",-50.39996338,76.79998779,1,0,0,response7disk,-22.39996338,-7.200012207,1,0,0,rectangle,-22.39996338,-7.200012207,1,0,0,1,3,0.0007,0,-22.39996338,-7.200012207,1,0,0,0,6,6,68,1,68,first,,,,,,,,,,,,,,,,,,,,,,,,,,,,,,,,,,,,,,,,,,,,,,,,,,,,,,,,,,,,,,,,,,,
,,,,,,6167e5b21fe4bb7b2579fa56,62bbf9cc78b360e771dcb992,2022-06-29_09h06.42.135,Colour_Asymmetry_Pilot,2022.1.3,Win32,59.19261276,62bbe60bf3d75ef465d3e404,,,,,,,,,,,,,,,,,,,,fourtwo,,-4,1.798,,,,,,,,,,,,,,,,,,,,,,,,,,,,,,,,,,"[-0.9688,-0.7412000000000001,-0.4902000000000001]","[-0.09019999999999995,0.44300000000000006,0.5371999999999999]",-33.59997559,67.19998169,1,0,0,response7disk,-13.59997559,-2.399993896,1,0,0,rectangle,-13.59997559,-2.399993896,1,0,0,1,2,0.0028,0,-13.59997559,-2.399993896,1,0,0,0,7,7,79,1,79,first,,,,,,,,,,,,,,,,,,,,,,,,,,,,,,,,,,,,,,,,,,,,,,,,,,,,,,,,,,,,,,,,,,,
,,,,,,6167e5b21fe4bb7b2579fa56,62bbf9cc78b360e771dcb992,2022-06-29_09h06.42.135,Colour_Asymmetry_Pilot,2022.1.3,Win32,59.19261276,62bbe60bf3d75ef465d3e404,,,,,,,,,,,,,,,,,,,,threefour,,-4,1.6489,,,,,,,,,,,,,,,,,,,,,,,,,,,,,,,,,,"[-0.9216,-0.5529999999999999,-0.3962]","[0.23920000000000008,0.2704,0.16060000000000008]",-48.79998779,106.3999939,1,0,0,response7disk,-5.599975586,4,1,0,0,rectangle,-5.599975586,4,1,0,0,1,3,0.0014,0,-5.599975586,4,1,0,0,0,8,8,93,1,12,second,,,,,,,,,,,,,,,,,,,,,,,,,,,,,,,,,,,,,,,,,,,,,,,,,,,,,,,,,,,,,,,,,,,
,,,,,,6167e5b21fe4bb7b2579fa56,62bbf9cc78b360e771dcb992,2022-06-29_09h06.42.135,Colour_Asymmetry_Pilot,2022.1.3,Win32,59.19261276,62bbe60bf3d75ef465d3e404,,,,,,,,,,,,,,,,,,,,twofour,,-3,2.7149,,,,,,,,,,,,,,,,,,,,,,,,,,,,,,,,,,"[-0.9688,-0.7412000000000001,-0.4902000000000001]","[-0.24719999999999998,-0.0354000000000001,0.3175999999999999]",-88.79998779,41.6000061,1,0,0,response7disk,-1.599975586,-2.399993896,1,0,0,rectangle,76,-36.80001831,1,0,0,2,2,4.7768,1,0,12,1,0,0,0,9,9,161,1,80,second,response3disk_3,rectangle,,,,,,,,,,,,,,,,,,,,,,,,,,,,,,,,,,,,,,,,,,,,,,,,,,,,,,,,,,,,,,,,,
,,,,,,6167e5b21fe4bb7b2579fa56,62bbf9cc78b360e771dcb992,2022-06-29_09h06.42.135,Colour_Asymmetry_Pilot,2022.1.3,Win32,59.19261276,62bbe60bf3d75ef465d3e404,,,,,,,,,,,,,,,,,,,,threeone,,-4,0.9665,,,,,,,,,,,,,,,,,,,,,,,,,,,,,,,,,,"[0.796,0.2156,-0.27859999999999996]","[-0.17659999999999998,0.3253999999999999,0.19999999999999996]",-40.79998779,80.79998779,1,0,0,response7disk,0,-1.600006104,1,0,0,rectangle,0,-1.600006104,1,0,0,2,1,0.0038,0,0,-1.600006104,1,0,0,0,10,10,106,1,25,second,,,,,,,,,,,,,,,,,,,,,,,,,,,,,,,,,,,,,,,,,,,,,,,,,,,,,,,,,,,,,,,,,,,
,,,,,,6167e5b21fe4bb7b2579fa56,62bbf9cc78b360e771dcb992,2022-06-29_09h06.42.135,Colour_Asymmetry_Pilot,2022.1.3,Win32,59.19261276,62bbe60bf3d75ef465d3e404,,,,,,,,,,,,,,,,,,,,onethree,,-4,0.9822,,,,,,,,,,,,,,,,,,,,,,,,,,,,,,,,,,"[-0.6706000000000001,-0.6157999999999999,-0.6786]","[0.9686000000000001,0.5763999999999998,0.11359999999999992]",-32,66.3999939,1,0,0,response7disk,-23.20001221,-3.200012207,1,0,0,rectangle,-23.20001221,-3.200012207,1,0,0,2,1,0.0003,0,-23.20001221,-3.200012207,1,0,0,0,11,11,147,1,66,second,,,,,,,,,,,,,,,,,,,,,,,,,,,,,,,,,,,,,,,,,,,,,,,,,,,,,,,,,,,,,,,,,,,
,,,,,,6167e5b21fe4bb7b2579fa56,62bbf9cc78b360e771dcb992,2022-06-29_09h06.42.135,Colour_Asymmetry_Pilot,2022.1.3,Win32,59.19261276,62bbe60bf3d75ef465d3e404,,,,,,,,,,,,,,,,,,,,onethree,,-4,0.8154,,,,,,,,,,,,,,,,,,,,,,,,,,,,,,,,,,"[0.9372,0.9450000000000001,0.8980000000000001]","[-0.34920000000000007,-0.702,-0.5216]",-40.79998779,86.3999939,1,0,0,response7disk,-16,-1.600006104,1,0,0,rectangle,-16,-1.600006104,1,0,0,2,1,0.0007,0,-16,-1.600006104,1,0,0,0,12,12,51,1,51,first,,,,,,,,,,,,,,,,,,,,,,,,,,,,,,,,,,,,,,,,,,,,,,,,,,,,,,,,,,,,,,,,,,,
,,,,,,6167e5b21fe4bb7b2579fa56,62bbf9cc78b360e771dcb992,2022-06-29_09h06.42.135,Colour_Asymmetry_Pilot,2022.1.3,Win32,59.19261276,62bbe60bf3d75ef465d3e404,,,,,,,,,,,,,,,,,,,,fourtwo,,-4,0.783,,,,,,,,,,,,,,,,,,,,,,,,,,,,,,,,,,"[0.09799999999999986,-0.24719999999999998,0.15280000000000005]","[-0.24719999999999998,0.5213999999999999,-0.12959999999999994]",-49.59997559,80,1,0,0,response7disk,-17.59997559,2.399993896,1,0,0,rectangle,-17.59997559,2.399993896,1,0,0,2,1,0.0004,0,-17.59997559,2.399993896,1,0,0,0,13,13,101,1,20,second,,,,,,,,,,,,,,,,,,,,,,,,,,,,,,,,,,,,,,,,,,,,,,,,,,,,,,,,,,,,,,,,,,,
,,,,,,6167e5b21fe4bb7b2579fa56,62bbf9cc78b360e771dcb992,2022-06-29_09h06.42.135,Colour_Asymmetry_Pilot,2022.1.3,Win32,59.19261276,62bbe60bf3d75ef465d3e404,,,,,,,,,,,,,,,,,,,,onetwo,,-4,0.7496,,,,,,,,,,,,,,,,,,,,,,,,,,,,,,,,,,"[0.7018,0.7802,-0.16079999999999994]","[-0.9766,-0.34920000000000007,0.2156]",-50.39996338,75.19998169,1,0,0,response7disk,-22.39996338,8,1,0,0,rectangle,-22.39996338,8,1,0,0,2,1,0.0005,0,-22.39996338,8,1,0,0,0,14,14,156,1,75,second,,,,,,,,,,,,,,,,,,,,,,,,,,,,,,,,,,,,,,,,,,,,,,,,,,,,,,,,,,,,,,,,,,,
,,,,,,6167e5b21fe4bb7b2579fa56,62bbf9cc78b360e771dcb992,2022-06-29_09h06.42.135,Colour_Asymmetry_Pilot,2022.1.3,Win32,59.19261276,62bbe60bf3d75ef465d3e404,,,,,,,,,,,,,,,,,,,,twofour,,-4,2.1486,,,,,,,,,,,,,,,,,,,,,,,,,,,,,,,,,,"[0.796,0.2156,-0.27859999999999996]","[-0.6235999999999999,-0.6786,-0.08239999999999992]",-47.20001221,92,1,0,0,response7disk,-14.39996338,8,1,0,0,rectangle,-14.39996338,8,1,0,0,2,2,0.0032,0,-14.39996338,8,1,0,0,0,15,15,31,1,31,first,,,,,,,,,,,,,,,,,,,,,,,,,,,,,,,,,,,,,,,,,,,,,,,,,,,,,,,,,,,,,,,,,,,
,,,,,,6167e5b21fe4bb7b2579fa56,62bbf9cc78b360e771dcb992,2022-06-29_09h06.42.135,Colour_Asymmetry_Pilot,2022.1.3,Win32,59.19261276,62bbe60bf3d75ef465d3e404,,,,,,,,,,,,,,,,,,,,threeone,,-2,1.2824,,,,,,,,,,,,,,,,,,,,,,,,,,,,,,,,,,"[0.2862,0.7802,0.3568]","[0.05879999999999996,0.2784,0.5841999999999998]",-58.39996338,-44,1,0,0,response5disk,-9.599975586,6.399993896,1,0,0,rectangle,-9.599975586,6.399993896,1,0,0,2,3,0.0038,0,-9.599975586,6.399993896,1,0,0,0,16,16,58,1,58,first,,,,,,,,,,,,,,,,,,,,,,,,,,,,,,,,,,,,,,,,,,,,,,,,,,,,,,,,,,,,,,,,,,,
,,,,,,6167e5b21fe4bb7b2579fa56,62bbf9cc78b360e771dcb992,2022-06-29_09h06.42.135,Colour_Asymmetry_Pilot,2022.1.3,Win32,59.19261276,62bbe60bf3d75ef465d3e404,,,,,,,,,,,,,,,,,,,,onetwo,,-4,0.7497,,,,,,,,,,,,,,,,,,,,,,,,,,,,,,,,,,"[-0.34920000000000007,-0.702,-0.5216]","[0.9372,0.9450000000000001,0.8980000000000001]",-42.39996338,73.6000061,1,0,0,response7disk,-20.79998779,3.199981689,1,0,0,rectangle,-20.79998779,3.199981689,1,0,0,2,2,0.0025,0,-20.79998779,3.199981689,1,0,0,0,17,17,132,1,51,second,,,,,,,,,,,,,,,,,,,,,,,,,,,,,,,,,,,,,,,,,,,,,,,,,,,,,,,,,,,,,,,,,,,
