trials.thisRepN,trials.thisTrialN,trials.thisN,trials.thisIndex,trials.ran,Colourcodes,participant,session,date,expName,psychopyVersion,OS,frameRate,study_id,trials_4.thisRepN,trials_4.thisTrialN,trials_4.thisN,trials_4.thisIndex,trials_4.ran,StimulusPos,key_resp.keys,key_resp.rt,key_resp_2.keys,key_resp_2.rt,key_resp_15.keys,key_resp_15.rt,key_resp_17.keys,key_resp_17.rt,key_resp_9.keys,key_resp_9.rt,key_resp_10.keys,key_resp_10.rt,Circle1_col,Ecc,Circle2_col,similarity,response_time,mouse_5.x,mouse_5.y,mouse_5.leftButton,mouse_5.midButton,mouse_5.rightButton,mouse_5.clicked_name,mouse_10.x,mouse_10.y,mouse_10.leftButton,mouse_10.midButton,mouse_10.rightButton,mouse_10.clicked_name,mouse_7.x,mouse_7.y,mouse_7.leftButton,mouse_7.midButton,mouse_7.rightButton,catchnumberprac,mouse_6.x,mouse_6.y,mouse_6.leftButton,mouse_6.midButton,mouse_6.rightButton,duringprac.thisRepN,duringprac.thisTrialN,duringprac.thisN,duringprac.thisIndex,duringprac.ran,mouse_7.clicked_name,catchprac,mouse_6.clicked_name,key_resp_22.keys,key_resp_22.rt,Circle1_colour,Circle2_colour,mouse.x,mouse.y,mouse.leftButton,mouse.midButton,mouse.rightButton,mouse.clicked_name,mouse_2.x,mouse_2.y,mouse_2.leftButton,mouse_2.midButton,mouse_2.rightButton,mouse_2.clicked_name,mouse_3.x,mouse_3.y,mouse_3.leftButton,mouse_3.midButton,mouse_3.rightButton,catchresponse,catchnumber,response_time_catch,Catch,mouse_11.x,mouse_11.y,mouse_11.leftButton,mouse_11.midButton,mouse_11.rightButton,trials_2.thisRepN,trials_2.thisTrialN,trials_2.thisN,trials_2.thisIndex,trials_2.ran,Colourpair,Temporder,mouse_3.clicked_name,mouse_11.clicked_name,trials_3.thisRepN,trials_3.thisTrialN,trials_3.thisN,trials_3.thisIndex,trials_3.ran,key_resp_instr_Ishi.keys,key_resp_instr_Ishi.rt,Ishi_trial_keyresp.keys,Ishi_trial_keyresp.rt,Ishi_textbox.text,Ishi_loop.thisRepN,Ishi_loop.thisTrialN,Ishi_loop.thisN,Ishi_loop.thisIndex,Ishi_loop.ran,imageaddress,textbox.text,mouse_4.x,mouse_4.y,mouse_4.leftButton,mouse_4.midButton,mouse_4.rightButton,mouse_4.clicked_name,textbox_2.text,mouse_8.x,mouse_8.y,mouse_8.leftButton,mouse_8.midButton,mouse_8.rightButton,mouse_8.clicked_name,textbox_3.text,mouse_9.x,mouse_9.y,mouse_9.leftButton,mouse_9.midButton,mouse_9.rightButton,mouse_9.clicked_name,textbox_4.text,mouse_12.x,mouse_12.y,mouse_12.leftButton,mouse_12.midButton,mouse_12.rightButton,mouse_12.clicked_name,textbox_5.text,mouse_13.x,mouse_13.y,mouse_13.leftButton,mouse_13.midButton,mouse_13.rightButton,mouse_13.clicked_name,textbox_6.text,mouse_14.x,mouse_14.y,mouse_14.leftButton,mouse_14.midButton,mouse_14.rightButton,mouse_14.clicked_name,textbox_7.text,mouse_15.x,mouse_15.y,mouse_15.leftButton,mouse_15.midButton,mouse_15.rightButton,mouse_15.clicked_name
0,0,0,23,1,,6097ec1a8c0b4df21cbb9024,62bbf989ffe1009c36dcb9a3,2022-06-29_09h05.35.792,Colour_Asymmetry_Pilot,2022.1.3,Win32,30.00120005,62bbe60bf3d75ef465d3e404,,,,,,,,,,,,,,,,,,,,,,,,,,,,,,,,,,,,,,,,,,,,,,,,,,,,,,,,,,,,,,,,,,,,,,,,,,,,,,,,,,,,,,,,,,,,,,,,,,,,,,,,,,,,,,,,,,,,,,,,,,,,,,,,,,,,,,,,,,,,,,,,,,,,,,,,,,,,,,
0,1,1,73,1,,6097ec1a8c0b4df21cbb9024,62bbf989ffe1009c36dcb9a3,2022-06-29_09h05.35.792,Colour_Asymmetry_Pilot,2022.1.3,Win32,30.00120005,62bbe60bf3d75ef465d3e404,,,,,,,,,,,,,,,,,,,,,,,,,,,,,,,,,,,,,,,,,,,,,,,,,,,,,,,,,,,,,,,,,,,,,,,,,,,,,,,,,,,,,,,,,,,,,,,,,,,,,,,,,,,,,,,,,,,,,,,,,,,,,,,,,,,,,,,,,,,,,,,,,,,,,,,,,,,,,,
0,2,2,59,1,,6097ec1a8c0b4df21cbb9024,62bbf989ffe1009c36dcb9a3,2022-06-29_09h05.35.792,Colour_Asymmetry_Pilot,2022.1.3,Win32,30.00120005,62bbe60bf3d75ef465d3e404,,,,,,,,,,,,,,,,,,,,,,,,,,,,,,,,,,,,,,,,,,,,,,,,,,,,,,,,,,,,,,,,,,,,,,,,,,,,,,,,,,,,,,,,,,,,,,,,,,,,,,,,,,,,,,,,,,,,,,,,,,,,,,,,,,,,,,,,,,,,,,,,,,,,,,,,,,,,,,
0,3,3,58,1,,6097ec1a8c0b4df21cbb9024,62bbf989ffe1009c36dcb9a3,2022-06-29_09h05.35.792,Colour_Asymmetry_Pilot,2022.1.3,Win32,30.00120005,62bbe60bf3d75ef465d3e404,,,,,,,,,,,,,,,,,,,,,,,,,,,,,,,,,,,,,,,,,,,,,,,,,,,,,,,,,,,,,,,,,,,,,,,,,,,,,,,,,,,,,,,,,,,,,,,,,,,,,,,,,,,,,,,,,,,,,,,,,,,,,,,,,,,,,,,,,,,,,,,,,,,,,,,,,,,,,,
0,4,4,25,1,,6097ec1a8c0b4df21cbb9024,62bbf989ffe1009c36dcb9a3,2022-06-29_09h05.35.792,Colour_Asymmetry_Pilot,2022.1.3,Win32,30.00120005,62bbe60bf3d75ef465d3e404,,,,,,,,,,,,,,,,,,,,,,,,,,,,,,,,,,,,,,,,,,,,,,,,,,,,,,,,,,,,,,,,,,,,,,,,,,,,,,,,,,,,,,,,,,,,,,,,,,,,,,,,,,,,,,,,,,,,,,,,,,,,,,,,,,,,,,,,,,,,,,,,,,,,,,,,,,,,,,
0,5,5,29,1,,6097ec1a8c0b4df21cbb9024,62bbf989ffe1009c36dcb9a3,2022-06-29_09h05.35.792,Colour_Asymmetry_Pilot,2022.1.3,Win32,30.00120005,62bbe60bf3d75ef465d3e404,,,,,,,,,,,,,,,,,,,,,,,,,,,,,,,,,,,,,,,,,,,,,,,,,,,,,,,,,,,,,,,,,,,,,,,,,,,,,,,,,,,,,,,,,,,,,,,,,,,,,,,,,,,,,,,,,,,,,,,,,,,,,,,,,,,,,,,,,,,,,,,,,,,,,,,,,,,,,,
0,6,6,63,1,,6097ec1a8c0b4df21cbb9024,62bbf989ffe1009c36dcb9a3,2022-06-29_09h05.35.792,Colour_Asymmetry_Pilot,2022.1.3,Win32,30.00120005,62bbe60bf3d75ef465d3e404,,,,,,,,,,,,,,,,,,,,,,,,,,,,,,,,,,,,,,,,,,,,,,,,,,,,,,,,,,,,,,,,,,,,,,,,,,,,,,,,,,,,,,,,,,,,,,,,,,,,,,,,,,,,,,,,,,,,,,,,,,,,,,,,,,,,,,,,,,,,,,,,,,,,,,,,,,,,,,
0,7,7,89,1,,6097ec1a8c0b4df21cbb9024,62bbf989ffe1009c36dcb9a3,2022-06-29_09h05.35.792,Colour_Asymmetry_Pilot,2022.1.3,Win32,30.00120005,62bbe60bf3d75ef465d3e404,,,,,,,,,,,,,,,,,,,,,,,,,,,,,,,,,,,,,,,,,,,,,,,,,,,,,,,,,,,,,,,,,,,,,,,,,,,,,,,,,,,,,,,,,,,,,,,,,,,,,,,,,,,,,,,,,,,,,,,,,,,,,,,,,,,,,,,,,,,,,,,,,,,,,,,,,,,,,,
0,8,8,79,1,,6097ec1a8c0b4df21cbb9024,62bbf989ffe1009c36dcb9a3,2022-06-29_09h05.35.792,Colour_Asymmetry_Pilot,2022.1.3,Win32,30.00120005,62bbe60bf3d75ef465d3e404,,,,,,,,,,,,,,,,,,,,,,,,,,,,,,,,,,,,,,,,,,,,,,,,,,,,,,,,,,,,,,,,,,,,,,,,,,,,,,,,,,,,,,,,,,,,,,,,,,,,,,,,,,,,,,,,,,,,,,,,,,,,,,,,,,,,,,,,,,,,,,,,,,,,,,,,,,,,,,
0,9,9,82,1,,6097ec1a8c0b4df21cbb9024,62bbf989ffe1009c36dcb9a3,2022-06-29_09h05.35.792,Colour_Asymmetry_Pilot,2022.1.3,Win32,30.00120005,62bbe60bf3d75ef465d3e404,,,,,,,,,,,,,,,,,,,,,,,,,,,,,,,,,,,,,,,,,,,,,,,,,,,,,,,,,,,,,,,,,,,,,,,,,,,,,,,,,,,,,,,,,,,,,,,,,,,,,,,,,,,,,,,,,,,,,,,,,,,,,,,,,,,,,,,,,,,,,,,,,,,,,,,,,,,,,,
0,10,10,60,1,,6097ec1a8c0b4df21cbb9024,62bbf989ffe1009c36dcb9a3,2022-06-29_09h05.35.792,Colour_Asymmetry_Pilot,2022.1.3,Win32,30.00120005,62bbe60bf3d75ef465d3e404,,,,,,,,,,,,,,,,,,,,,,,,,,,,,,,,,,,,,,,,,,,,,,,,,,,,,,,,,,,,,,,,,,,,,,,,,,,,,,,,,,,,,,,,,,,,,,,,,,,,,,,,,,,,,,,,,,,,,,,,,,,,,,,,,,,,,,,,,,,,,,,,,,,,,,,,,,,,,,
0,11,11,46,1,,6097ec1a8c0b4df21cbb9024,62bbf989ffe1009c36dcb9a3,2022-06-29_09h05.35.792,Colour_Asymmetry_Pilot,2022.1.3,Win32,30.00120005,62bbe60bf3d75ef465d3e404,,,,,,,,,,,,,,,,,,,,,,,,,,,,,,,,,,,,,,,,,,,,,,,,,,,,,,,,,,,,,,,,,,,,,,,,,,,,,,,,,,,,,,,,,,,,,,,,,,,,,,,,,,,,,,,,,,,,,,,,,,,,,,,,,,,,,,,,,,,,,,,,,,,,,,,,,,,,,,
0,12,12,38,1,,6097ec1a8c0b4df21cbb9024,62bbf989ffe1009c36dcb9a3,2022-06-29_09h05.35.792,Colour_Asymmetry_Pilot,2022.1.3,Win32,30.00120005,62bbe60bf3d75ef465d3e404,,,,,,,,,,,,,,,,,,,,,,,,,,,,,,,,,,,,,,,,,,,,,,,,,,,,,,,,,,,,,,,,,,,,,,,,,,,,,,,,,,,,,,,,,,,,,,,,,,,,,,,,,,,,,,,,,,,,,,,,,,,,,,,,,,,,,,,,,,,,,,,,,,,,,,,,,,,,,,
0,13,13,24,1,,6097ec1a8c0b4df21cbb9024,62bbf989ffe1009c36dcb9a3,2022-06-29_09h05.35.792,Colour_Asymmetry_Pilot,2022.1.3,Win32,30.00120005,62bbe60bf3d75ef465d3e404,,,,,,,,,,,,,,,,,,,,,,,,,,,,,,,,,,,,,,,,,,,,,,,,,,,,,,,,,,,,,,,,,,,,,,,,,,,,,,,,,,,,,,,,,,,,,,,,,,,,,,,,,,,,,,,,,,,,,,,,,,,,,,,,,,,,,,,,,,,,,,,,,,,,,,,,,,,,,,
0,14,14,33,1,,6097ec1a8c0b4df21cbb9024,62bbf989ffe1009c36dcb9a3,2022-06-29_09h05.35.792,Colour_Asymmetry_Pilot,2022.1.3,Win32,30.00120005,62bbe60bf3d75ef465d3e404,,,,,,,,,,,,,,,,,,,,,,,,,,,,,,,,,,,,,,,,,,,,,,,,,,,,,,,,,,,,,,,,,,,,,,,,,,,,,,,,,,,,,,,,,,,,,,,,,,,,,,,,,,,,,,,,,,,,,,,,,,,,,,,,,,,,,,,,,,,,,,,,,,,,,,,,,,,,,,
0,15,15,9,1,,6097ec1a8c0b4df21cbb9024,62bbf989ffe1009c36dcb9a3,2022-06-29_09h05.35.792,Colour_Asymmetry_Pilot,2022.1.3,Win32,30.00120005,62bbe60bf3d75ef465d3e404,,,,,,,,,,,,,,,,,,,,,,,,,,,,,,,,,,,,,,,,,,,,,,,,,,,,,,,,,,,,,,,,,,,,,,,,,,,,,,,,,,,,,,,,,,,,,,,,,,,,,,,,,,,,,,,,,,,,,,,,,,,,,,,,,,,,,,,,,,,,,,,,,,,,,,,,,,,,,,
0,16,16,18,1,,6097ec1a8c0b4df21cbb9024,62bbf989ffe1009c36dcb9a3,2022-06-29_09h05.35.792,Colour_Asymmetry_Pilot,2022.1.3,Win32,30.00120005,62bbe60bf3d75ef465d3e404,,,,,,,,,,,,,,,,,,,,,,,,,,,,,,,,,,,,,,,,,,,,,,,,,,,,,,,,,,,,,,,,,,,,,,,,,,,,,,,,,,,,,,,,,,,,,,,,,,,,,,,,,,,,,,,,,,,,,,,,,,,,,,,,,,,,,,,,,,,,,,,,,,,,,,,,,,,,,,
0,17,17,87,1,,6097ec1a8c0b4df21cbb9024,62bbf989ffe1009c36dcb9a3,2022-06-29_09h05.35.792,Colour_Asymmetry_Pilot,2022.1.3,Win32,30.00120005,62bbe60bf3d75ef465d3e404,,,,,,,,,,,,,,,,,,,,,,,,,,,,,,,,,,,,,,,,,,,,,,,,,,,,,,,,,,,,,,,,,,,,,,,,,,,,,,,,,,,,,,,,,,,,,,,,,,,,,,,,,,,,,,,,,,,,,,,,,,,,,,,,,,,,,,,,,,,,,,,,,,,,,,,,,,,,,,
0,18,18,8,1,,6097ec1a8c0b4df21cbb9024,62bbf989ffe1009c36dcb9a3,2022-06-29_09h05.35.792,Colour_Asymmetry_Pilot,2022.1.3,Win32,30.00120005,62bbe60bf3d75ef465d3e404,,,,,,,,,,,,,,,,,,,,,,,,,,,,,,,,,,,,,,,,,,,,,,,,,,,,,,,,,,,,,,,,,,,,,,,,,,,,,,,,,,,,,,,,,,,,,,,,,,,,,,,,,,,,,,,,,,,,,,,,,,,,,,,,,,,,,,,,,,,,,,,,,,,,,,,,,,,,,,
0,19,19,30,1,,6097ec1a8c0b4df21cbb9024,62bbf989ffe1009c36dcb9a3,2022-06-29_09h05.35.792,Colour_Asymmetry_Pilot,2022.1.3,Win32,30.00120005,62bbe60bf3d75ef465d3e404,,,,,,,,,,,,,,,,,,,,,,,,,,,,,,,,,,,,,,,,,,,,,,,,,,,,,,,,,,,,,,,,,,,,,,,,,,,,,,,,,,,,,,,,,,,,,,,,,,,,,,,,,,,,,,,,,,,,,,,,,,,,,,,,,,,,,,,,,,,,,,,,,,,,,,,,,,,,,,
0,20,20,83,1,,6097ec1a8c0b4df21cbb9024,62bbf989ffe1009c36dcb9a3,2022-06-29_09h05.35.792,Colour_Asymmetry_Pilot,2022.1.3,Win32,30.00120005,62bbe60bf3d75ef465d3e404,,,,,,,,,,,,,,,,,,,,,,,,,,,,,,,,,,,,,,,,,,,,,,,,,,,,,,,,,,,,,,,,,,,,,,,,,,,,,,,,,,,,,,,,,,,,,,,,,,,,,,,,,,,,,,,,,,,,,,,,,,,,,,,,,,,,,,,,,,,,,,,,,,,,,,,,,,,,,,
0,21,21,51,1,,6097ec1a8c0b4df21cbb9024,62bbf989ffe1009c36dcb9a3,2022-06-29_09h05.35.792,Colour_Asymmetry_Pilot,2022.1.3,Win32,30.00120005,62bbe60bf3d75ef465d3e404,,,,,,,,,,,,,,,,,,,,,,,,,,,,,,,,,,,,,,,,,,,,,,,,,,,,,,,,,,,,,,,,,,,,,,,,,,,,,,,,,,,,,,,,,,,,,,,,,,,,,,,,,,,,,,,,,,,,,,,,,,,,,,,,,,,,,,,,,,,,,,,,,,,,,,,,,,,,,,
0,22,22,48,1,,6097ec1a8c0b4df21cbb9024,62bbf989ffe1009c36dcb9a3,2022-06-29_09h05.35.792,Colour_Asymmetry_Pilot,2022.1.3,Win32,30.00120005,62bbe60bf3d75ef465d3e404,,,,,,,,,,,,,,,,,,,,,,,,,,,,,,,,,,,,,,,,,,,,,,,,,,,,,,,,,,,,,,,,,,,,,,,,,,,,,,,,,,,,,,,,,,,,,,,,,,,,,,,,,,,,,,,,,,,,,,,,,,,,,,,,,,,,,,,,,,,,,,,,,,,,,,,,,,,,,,
0,23,23,70,1,,6097ec1a8c0b4df21cbb9024,62bbf989ffe1009c36dcb9a3,2022-06-29_09h05.35.792,Colour_Asymmetry_Pilot,2022.1.3,Win32,30.00120005,62bbe60bf3d75ef465d3e404,,,,,,,,,,,,,,,,,,,,,,,,,,,,,,,,,,,,,,,,,,,,,,,,,,,,,,,,,,,,,,,,,,,,,,,,,,,,,,,,,,,,,,,,,,,,,,,,,,,,,,,,,,,,,,,,,,,,,,,,,,,,,,,,,,,,,,,,,,,,,,,,,,,,,,,,,,,,,,
0,24,24,53,1,,6097ec1a8c0b4df21cbb9024,62bbf989ffe1009c36dcb9a3,2022-06-29_09h05.35.792,Colour_Asymmetry_Pilot,2022.1.3,Win32,30.00120005,62bbe60bf3d75ef465d3e404,,,,,,,,,,,,,,,,,,,,,,,,,,,,,,,,,,,,,,,,,,,,,,,,,,,,,,,,,,,,,,,,,,,,,,,,,,,,,,,,,,,,,,,,,,,,,,,,,,,,,,,,,,,,,,,,,,,,,,,,,,,,,,,,,,,,,,,,,,,,,,,,,,,,,,,,,,,,,,
0,25,25,4,1,,6097ec1a8c0b4df21cbb9024,62bbf989ffe1009c36dcb9a3,2022-06-29_09h05.35.792,Colour_Asymmetry_Pilot,2022.1.3,Win32,30.00120005,62bbe60bf3d75ef465d3e404,,,,,,,,,,,,,,,,,,,,,,,,,,,,,,,,,,,,,,,,,,,,,,,,,,,,,,,,,,,,,,,,,,,,,,,,,,,,,,,,,,,,,,,,,,,,,,,,,,,,,,,,,,,,,,,,,,,,,,,,,,,,,,,,,,,,,,,,,,,,,,,,,,,,,,,,,,,,,,
0,26,26,16,1,,6097ec1a8c0b4df21cbb9024,62bbf989ffe1009c36dcb9a3,2022-06-29_09h05.35.792,Colour_Asymmetry_Pilot,2022.1.3,Win32,30.00120005,62bbe60bf3d75ef465d3e404,,,,,,,,,,,,,,,,,,,,,,,,,,,,,,,,,,,,,,,,,,,,,,,,,,,,,,,,,,,,,,,,,,,,,,,,,,,,,,,,,,,,,,,,,,,,,,,,,,,,,,,,,,,,,,,,,,,,,,,,,,,,,,,,,,,,,,,,,,,,,,,,,,,,,,,,,,,,,,
0,27,27,80,1,,6097ec1a8c0b4df21cbb9024,62bbf989ffe1009c36dcb9a3,2022-06-29_09h05.35.792,Colour_Asymmetry_Pilot,2022.1.3,Win32,30.00120005,62bbe60bf3d75ef465d3e404,,,,,,,,,,,,,,,,,,,,,,,,,,,,,,,,,,,,,,,,,,,,,,,,,,,,,,,,,,,,,,,,,,,,,,,,,,,,,,,,,,,,,,,,,,,,,,,,,,,,,,,,,,,,,,,,,,,,,,,,,,,,,,,,,,,,,,,,,,,,,,,,,,,,,,,,,,,,,,
0,28,28,66,1,,6097ec1a8c0b4df21cbb9024,62bbf989ffe1009c36dcb9a3,2022-06-29_09h05.35.792,Colour_Asymmetry_Pilot,2022.1.3,Win32,30.00120005,62bbe60bf3d75ef465d3e404,,,,,,,,,,,,,,,,,,,,,,,,,,,,,,,,,,,,,,,,,,,,,,,,,,,,,,,,,,,,,,,,,,,,,,,,,,,,,,,,,,,,,,,,,,,,,,,,,,,,,,,,,,,,,,,,,,,,,,,,,,,,,,,,,,,,,,,,,,,,,,,,,,,,,,,,,,,,,,
0,29,29,35,1,,6097ec1a8c0b4df21cbb9024,62bbf989ffe1009c36dcb9a3,2022-06-29_09h05.35.792,Colour_Asymmetry_Pilot,2022.1.3,Win32,30.00120005,62bbe60bf3d75ef465d3e404,,,,,,,,,,,,,,,,,,,,,,,,,,,,,,,,,,,,,,,,,,,,,,,,,,,,,,,,,,,,,,,,,,,,,,,,,,,,,,,,,,,,,,,,,,,,,,,,,,,,,,,,,,,,,,,,,,,,,,,,,,,,,,,,,,,,,,,,,,,,,,,,,,,,,,,,,,,,,,
0,30,30,90,1,,6097ec1a8c0b4df21cbb9024,62bbf989ffe1009c36dcb9a3,2022-06-29_09h05.35.792,Colour_Asymmetry_Pilot,2022.1.3,Win32,30.00120005,62bbe60bf3d75ef465d3e404,,,,,,,,,,,,,,,,,,,,,,,,,,,,,,,,,,,,,,,,,,,,,,,,,,,,,,,,,,,,,,,,,,,,,,,,,,,,,,,,,,,,,,,,,,,,,,,,,,,,,,,,,,,,,,,,,,,,,,,,,,,,,,,,,,,,,,,,,,,,,,,,,,,,,,,,,,,,,,
0,31,31,12,1,,6097ec1a8c0b4df21cbb9024,62bbf989ffe1009c36dcb9a3,2022-06-29_09h05.35.792,Colour_Asymmetry_Pilot,2022.1.3,Win32,30.00120005,62bbe60bf3d75ef465d3e404,,,,,,,,,,,,,,,,,,,,,,,,,,,,,,,,,,,,,,,,,,,,,,,,,,,,,,,,,,,,,,,,,,,,,,,,,,,,,,,,,,,,,,,,,,,,,,,,,,,,,,,,,,,,,,,,,,,,,,,,,,,,,,,,,,,,,,,,,,,,,,,,,,,,,,,,,,,,,,
0,32,32,74,1,,6097ec1a8c0b4df21cbb9024,62bbf989ffe1009c36dcb9a3,2022-06-29_09h05.35.792,Colour_Asymmetry_Pilot,2022.1.3,Win32,30.00120005,62bbe60bf3d75ef465d3e404,,,,,,,,,,,,,,,,,,,,,,,,,,,,,,,,,,,,,,,,,,,,,,,,,,,,,,,,,,,,,,,,,,,,,,,,,,,,,,,,,,,,,,,,,,,,,,,,,,,,,,,,,,,,,,,,,,,,,,,,,,,,,,,,,,,,,,,,,,,,,,,,,,,,,,,,,,,,,,
0,33,33,2,1,,6097ec1a8c0b4df21cbb9024,62bbf989ffe1009c36dcb9a3,2022-06-29_09h05.35.792,Colour_Asymmetry_Pilot,2022.1.3,Win32,30.00120005,62bbe60bf3d75ef465d3e404,,,,,,,,,,,,,,,,,,,,,,,,,,,,,,,,,,,,,,,,,,,,,,,,,,,,,,,,,,,,,,,,,,,,,,,,,,,,,,,,,,,,,,,,,,,,,,,,,,,,,,,,,,,,,,,,,,,,,,,,,,,,,,,,,,,,,,,,,,,,,,,,,,,,,,,,,,,,,,
0,34,34,5,1,,6097ec1a8c0b4df21cbb9024,62bbf989ffe1009c36dcb9a3,2022-06-29_09h05.35.792,Colour_Asymmetry_Pilot,2022.1.3,Win32,30.00120005,62bbe60bf3d75ef465d3e404,,,,,,,,,,,,,,,,,,,,,,,,,,,,,,,,,,,,,,,,,,,,,,,,,,,,,,,,,,,,,,,,,,,,,,,,,,,,,,,,,,,,,,,,,,,,,,,,,,,,,,,,,,,,,,,,,,,,,,,,,,,,,,,,,,,,,,,,,,,,,,,,,,,,,,,,,,,,,,
0,35,35,26,1,,6097ec1a8c0b4df21cbb9024,62bbf989ffe1009c36dcb9a3,2022-06-29_09h05.35.792,Colour_Asymmetry_Pilot,2022.1.3,Win32,30.00120005,62bbe60bf3d75ef465d3e404,,,,,,,,,,,,,,,,,,,,,,,,,,,,,,,,,,,,,,,,,,,,,,,,,,,,,,,,,,,,,,,,,,,,,,,,,,,,,,,,,,,,,,,,,,,,,,,,,,,,,,,,,,,,,,,,,,,,,,,,,,,,,,,,,,,,,,,,,,,,,,,,,,,,,,,,,,,,,,
0,36,36,22,1,,6097ec1a8c0b4df21cbb9024,62bbf989ffe1009c36dcb9a3,2022-06-29_09h05.35.792,Colour_Asymmetry_Pilot,2022.1.3,Win32,30.00120005,62bbe60bf3d75ef465d3e404,,,,,,,,,,,,,,,,,,,,,,,,,,,,,,,,,,,,,,,,,,,,,,,,,,,,,,,,,,,,,,,,,,,,,,,,,,,,,,,,,,,,,,,,,,,,,,,,,,,,,,,,,,,,,,,,,,,,,,,,,,,,,,,,,,,,,,,,,,,,,,,,,,,,,,,,,,,,,,
0,37,37,10,1,,6097ec1a8c0b4df21cbb9024,62bbf989ffe1009c36dcb9a3,2022-06-29_09h05.35.792,Colour_Asymmetry_Pilot,2022.1.3,Win32,30.00120005,62bbe60bf3d75ef465d3e404,,,,,,,,,,,,,,,,,,,,,,,,,,,,,,,,,,,,,,,,,,,,,,,,,,,,,,,,,,,,,,,,,,,,,,,,,,,,,,,,,,,,,,,,,,,,,,,,,,,,,,,,,,,,,,,,,,,,,,,,,,,,,,,,,,,,,,,,,,,,,,,,,,,,,,,,,,,,,,
0,38,38,61,1,,6097ec1a8c0b4df21cbb9024,62bbf989ffe1009c36dcb9a3,2022-06-29_09h05.35.792,Colour_Asymmetry_Pilot,2022.1.3,Win32,30.00120005,62bbe60bf3d75ef465d3e404,,,,,,,,,,,,,,,,,,,,,,,,,,,,,,,,,,,,,,,,,,,,,,,,,,,,,,,,,,,,,,,,,,,,,,,,,,,,,,,,,,,,,,,,,,,,,,,,,,,,,,,,,,,,,,,,,,,,,,,,,,,,,,,,,,,,,,,,,,,,,,,,,,,,,,,,,,,,,,
0,39,39,71,1,,6097ec1a8c0b4df21cbb9024,62bbf989ffe1009c36dcb9a3,2022-06-29_09h05.35.792,Colour_Asymmetry_Pilot,2022.1.3,Win32,30.00120005,62bbe60bf3d75ef465d3e404,,,,,,,,,,,,,,,,,,,,,,,,,,,,,,,,,,,,,,,,,,,,,,,,,,,,,,,,,,,,,,,,,,,,,,,,,,,,,,,,,,,,,,,,,,,,,,,,,,,,,,,,,,,,,,,,,,,,,,,,,,,,,,,,,,,,,,,,,,,,,,,,,,,,,,,,,,,,,,
0,40,40,77,1,,6097ec1a8c0b4df21cbb9024,62bbf989ffe1009c36dcb9a3,2022-06-29_09h05.35.792,Colour_Asymmetry_Pilot,2022.1.3,Win32,30.00120005,62bbe60bf3d75ef465d3e404,,,,,,,,,,,,,,,,,,,,,,,,,,,,,,,,,,,,,,,,,,,,,,,,,,,,,,,,,,,,,,,,,,,,,,,,,,,,,,,,,,,,,,,,,,,,,,,,,,,,,,,,,,,,,,,,,,,,,,,,,,,,,,,,,,,,,,,,,,,,,,,,,,,,,,,,,,,,,,
0,41,41,43,1,,6097ec1a8c0b4df21cbb9024,62bbf989ffe1009c36dcb9a3,2022-06-29_09h05.35.792,Colour_Asymmetry_Pilot,2022.1.3,Win32,30.00120005,62bbe60bf3d75ef465d3e404,,,,,,,,,,,,,,,,,,,,,,,,,,,,,,,,,,,,,,,,,,,,,,,,,,,,,,,,,,,,,,,,,,,,,,,,,,,,,,,,,,,,,,,,,,,,,,,,,,,,,,,,,,,,,,,,,,,,,,,,,,,,,,,,,,,,,,,,,,,,,,,,,,,,,,,,,,,,,,
0,42,42,88,1,,6097ec1a8c0b4df21cbb9024,62bbf989ffe1009c36dcb9a3,2022-06-29_09h05.35.792,Colour_Asymmetry_Pilot,2022.1.3,Win32,30.00120005,62bbe60bf3d75ef465d3e404,,,,,,,,,,,,,,,,,,,,,,,,,,,,,,,,,,,,,,,,,,,,,,,,,,,,,,,,,,,,,,,,,,,,,,,,,,,,,,,,,,,,,,,,,,,,,,,,,,,,,,,,,,,,,,,,,,,,,,,,,,,,,,,,,,,,,,,,,,,,,,,,,,,,,,,,,,,,,,
0,43,43,91,1,,6097ec1a8c0b4df21cbb9024,62bbf989ffe1009c36dcb9a3,2022-06-29_09h05.35.792,Colour_Asymmetry_Pilot,2022.1.3,Win32,30.00120005,62bbe60bf3d75ef465d3e404,,,,,,,,,,,,,,,,,,,,,,,,,,,,,,,,,,,,,,,,,,,,,,,,,,,,,,,,,,,,,,,,,,,,,,,,,,,,,,,,,,,,,,,,,,,,,,,,,,,,,,,,,,,,,,,,,,,,,,,,,,,,,,,,,,,,,,,,,,,,,,,,,,,,,,,,,,,,,,
0,44,44,54,1,,6097ec1a8c0b4df21cbb9024,62bbf989ffe1009c36dcb9a3,2022-06-29_09h05.35.792,Colour_Asymmetry_Pilot,2022.1.3,Win32,30.00120005,62bbe60bf3d75ef465d3e404,,,,,,,,,,,,,,,,,,,,,,,,,,,,,,,,,,,,,,,,,,,,,,,,,,,,,,,,,,,,,,,,,,,,,,,,,,,,,,,,,,,,,,,,,,,,,,,,,,,,,,,,,,,,,,,,,,,,,,,,,,,,,,,,,,,,,,,,,,,,,,,,,,,,,,,,,,,,,,
0,45,45,0,1,,6097ec1a8c0b4df21cbb9024,62bbf989ffe1009c36dcb9a3,2022-06-29_09h05.35.792,Colour_Asymmetry_Pilot,2022.1.3,Win32,30.00120005,62bbe60bf3d75ef465d3e404,,,,,,,,,,,,,,,,,,,,,,,,,,,,,,,,,,,,,,,,,,,,,,,,,,,,,,,,,,,,,,,,,,,,,,,,,,,,,,,,,,,,,,,,,,,,,,,,,,,,,,,,,,,,,,,,,,,,,,,,,,,,,,,,,,,,,,,,,,,,,,,,,,,,,,,,,,,,,,
0,46,46,47,1,,6097ec1a8c0b4df21cbb9024,62bbf989ffe1009c36dcb9a3,2022-06-29_09h05.35.792,Colour_Asymmetry_Pilot,2022.1.3,Win32,30.00120005,62bbe60bf3d75ef465d3e404,,,,,,,,,,,,,,,,,,,,,,,,,,,,,,,,,,,,,,,,,,,,,,,,,,,,,,,,,,,,,,,,,,,,,,,,,,,,,,,,,,,,,,,,,,,,,,,,,,,,,,,,,,,,,,,,,,,,,,,,,,,,,,,,,,,,,,,,,,,,,,,,,,,,,,,,,,,,,,
0,47,47,76,1,,6097ec1a8c0b4df21cbb9024,62bbf989ffe1009c36dcb9a3,2022-06-29_09h05.35.792,Colour_Asymmetry_Pilot,2022.1.3,Win32,30.00120005,62bbe60bf3d75ef465d3e404,,,,,,,,,,,,,,,,,,,,,,,,,,,,,,,,,,,,,,,,,,,,,,,,,,,,,,,,,,,,,,,,,,,,,,,,,,,,,,,,,,,,,,,,,,,,,,,,,,,,,,,,,,,,,,,,,,,,,,,,,,,,,,,,,,,,,,,,,,,,,,,,,,,,,,,,,,,,,,
0,48,48,20,1,,6097ec1a8c0b4df21cbb9024,62bbf989ffe1009c36dcb9a3,2022-06-29_09h05.35.792,Colour_Asymmetry_Pilot,2022.1.3,Win32,30.00120005,62bbe60bf3d75ef465d3e404,,,,,,,,,,,,,,,,,,,,,,,,,,,,,,,,,,,,,,,,,,,,,,,,,,,,,,,,,,,,,,,,,,,,,,,,,,,,,,,,,,,,,,,,,,,,,,,,,,,,,,,,,,,,,,,,,,,,,,,,,,,,,,,,,,,,,,,,,,,,,,,,,,,,,,,,,,,,,,
0,49,49,40,1,,6097ec1a8c0b4df21cbb9024,62bbf989ffe1009c36dcb9a3,2022-06-29_09h05.35.792,Colour_Asymmetry_Pilot,2022.1.3,Win32,30.00120005,62bbe60bf3d75ef465d3e404,,,,,,,,,,,,,,,,,,,,,,,,,,,,,,,,,,,,,,,,,,,,,,,,,,,,,,,,,,,,,,,,,,,,,,,,,,,,,,,,,,,,,,,,,,,,,,,,,,,,,,,,,,,,,,,,,,,,,,,,,,,,,,,,,,,,,,,,,,,,,,,,,,,,,,,,,,,,,,
0,50,50,11,1,,6097ec1a8c0b4df21cbb9024,62bbf989ffe1009c36dcb9a3,2022-06-29_09h05.35.792,Colour_Asymmetry_Pilot,2022.1.3,Win32,30.00120005,62bbe60bf3d75ef465d3e404,,,,,,,,,,,,,,,,,,,,,,,,,,,,,,,,,,,,,,,,,,,,,,,,,,,,,,,,,,,,,,,,,,,,,,,,,,,,,,,,,,,,,,,,,,,,,,,,,,,,,,,,,,,,,,,,,,,,,,,,,,,,,,,,,,,,,,,,,,,,,,,,,,,,,,,,,,,,,,
0,51,51,49,1,,6097ec1a8c0b4df21cbb9024,62bbf989ffe1009c36dcb9a3,2022-06-29_09h05.35.792,Colour_Asymmetry_Pilot,2022.1.3,Win32,30.00120005,62bbe60bf3d75ef465d3e404,,,,,,,,,,,,,,,,,,,,,,,,,,,,,,,,,,,,,,,,,,,,,,,,,,,,,,,,,,,,,,,,,,,,,,,,,,,,,,,,,,,,,,,,,,,,,,,,,,,,,,,,,,,,,,,,,,,,,,,,,,,,,,,,,,,,,,,,,,,,,,,,,,,,,,,,,,,,,,
0,52,52,65,1,,6097ec1a8c0b4df21cbb9024,62bbf989ffe1009c36dcb9a3,2022-06-29_09h05.35.792,Colour_Asymmetry_Pilot,2022.1.3,Win32,30.00120005,62bbe60bf3d75ef465d3e404,,,,,,,,,,,,,,,,,,,,,,,,,,,,,,,,,,,,,,,,,,,,,,,,,,,,,,,,,,,,,,,,,,,,,,,,,,,,,,,,,,,,,,,,,,,,,,,,,,,,,,,,,,,,,,,,,,,,,,,,,,,,,,,,,,,,,,,,,,,,,,,,,,,,,,,,,,,,,,
0,53,53,27,1,,6097ec1a8c0b4df21cbb9024,62bbf989ffe1009c36dcb9a3,2022-06-29_09h05.35.792,Colour_Asymmetry_Pilot,2022.1.3,Win32,30.00120005,62bbe60bf3d75ef465d3e404,,,,,,,,,,,,,,,,,,,,,,,,,,,,,,,,,,,,,,,,,,,,,,,,,,,,,,,,,,,,,,,,,,,,,,,,,,,,,,,,,,,,,,,,,,,,,,,,,,,,,,,,,,,,,,,,,,,,,,,,,,,,,,,,,,,,,,,,,,,,,,,,,,,,,,,,,,,,,,
0,54,54,13,1,,6097ec1a8c0b4df21cbb9024,62bbf989ffe1009c36dcb9a3,2022-06-29_09h05.35.792,Colour_Asymmetry_Pilot,2022.1.3,Win32,30.00120005,62bbe60bf3d75ef465d3e404,,,,,,,,,,,,,,,,,,,,,,,,,,,,,,,,,,,,,,,,,,,,,,,,,,,,,,,,,,,,,,,,,,,,,,,,,,,,,,,,,,,,,,,,,,,,,,,,,,,,,,,,,,,,,,,,,,,,,,,,,,,,,,,,,,,,,,,,,,,,,,,,,,,,,,,,,,,,,,
0,55,55,62,1,,6097ec1a8c0b4df21cbb9024,62bbf989ffe1009c36dcb9a3,2022-06-29_09h05.35.792,Colour_Asymmetry_Pilot,2022.1.3,Win32,30.00120005,62bbe60bf3d75ef465d3e404,,,,,,,,,,,,,,,,,,,,,,,,,,,,,,,,,,,,,,,,,,,,,,,,,,,,,,,,,,,,,,,,,,,,,,,,,,,,,,,,,,,,,,,,,,,,,,,,,,,,,,,,,,,,,,,,,,,,,,,,,,,,,,,,,,,,,,,,,,,,,,,,,,,,,,,,,,,,,,
0,56,56,81,1,,6097ec1a8c0b4df21cbb9024,62bbf989ffe1009c36dcb9a3,2022-06-29_09h05.35.792,Colour_Asymmetry_Pilot,2022.1.3,Win32,30.00120005,62bbe60bf3d75ef465d3e404,,,,,,,,,,,,,,,,,,,,,,,,,,,,,,,,,,,,,,,,,,,,,,,,,,,,,,,,,,,,,,,,,,,,,,,,,,,,,,,,,,,,,,,,,,,,,,,,,,,,,,,,,,,,,,,,,,,,,,,,,,,,,,,,,,,,,,,,,,,,,,,,,,,,,,,,,,,,,,
0,57,57,92,1,,6097ec1a8c0b4df21cbb9024,62bbf989ffe1009c36dcb9a3,2022-06-29_09h05.35.792,Colour_Asymmetry_Pilot,2022.1.3,Win32,30.00120005,62bbe60bf3d75ef465d3e404,,,,,,,,,,,,,,,,,,,,,,,,,,,,,,,,,,,,,,,,,,,,,,,,,,,,,,,,,,,,,,,,,,,,,,,,,,,,,,,,,,,,,,,,,,,,,,,,,,,,,,,,,,,,,,,,,,,,,,,,,,,,,,,,,,,,,,,,,,,,,,,,,,,,,,,,,,,,,,
0,58,58,1,1,,6097ec1a8c0b4df21cbb9024,62bbf989ffe1009c36dcb9a3,2022-06-29_09h05.35.792,Colour_Asymmetry_Pilot,2022.1.3,Win32,30.00120005,62bbe60bf3d75ef465d3e404,,,,,,,,,,,,,,,,,,,,,,,,,,,,,,,,,,,,,,,,,,,,,,,,,,,,,,,,,,,,,,,,,,,,,,,,,,,,,,,,,,,,,,,,,,,,,,,,,,,,,,,,,,,,,,,,,,,,,,,,,,,,,,,,,,,,,,,,,,,,,,,,,,,,,,,,,,,,,,
0,59,59,85,1,,6097ec1a8c0b4df21cbb9024,62bbf989ffe1009c36dcb9a3,2022-06-29_09h05.35.792,Colour_Asymmetry_Pilot,2022.1.3,Win32,30.00120005,62bbe60bf3d75ef465d3e404,,,,,,,,,,,,,,,,,,,,,,,,,,,,,,,,,,,,,,,,,,,,,,,,,,,,,,,,,,,,,,,,,,,,,,,,,,,,,,,,,,,,,,,,,,,,,,,,,,,,,,,,,,,,,,,,,,,,,,,,,,,,,,,,,,,,,,,,,,,,,,,,,,,,,,,,,,,,,,
0,60,60,55,1,,6097ec1a8c0b4df21cbb9024,62bbf989ffe1009c36dcb9a3,2022-06-29_09h05.35.792,Colour_Asymmetry_Pilot,2022.1.3,Win32,30.00120005,62bbe60bf3d75ef465d3e404,,,,,,,,,,,,,,,,,,,,,,,,,,,,,,,,,,,,,,,,,,,,,,,,,,,,,,,,,,,,,,,,,,,,,,,,,,,,,,,,,,,,,,,,,,,,,,,,,,,,,,,,,,,,,,,,,,,,,,,,,,,,,,,,,,,,,,,,,,,,,,,,,,,,,,,,,,,,,,
0,61,61,68,1,,6097ec1a8c0b4df21cbb9024,62bbf989ffe1009c36dcb9a3,2022-06-29_09h05.35.792,Colour_Asymmetry_Pilot,2022.1.3,Win32,30.00120005,62bbe60bf3d75ef465d3e404,,,,,,,,,,,,,,,,,,,,,,,,,,,,,,,,,,,,,,,,,,,,,,,,,,,,,,,,,,,,,,,,,,,,,,,,,,,,,,,,,,,,,,,,,,,,,,,,,,,,,,,,,,,,,,,,,,,,,,,,,,,,,,,,,,,,,,,,,,,,,,,,,,,,,,,,,,,,,,
0,62,62,41,1,,6097ec1a8c0b4df21cbb9024,62bbf989ffe1009c36dcb9a3,2022-06-29_09h05.35.792,Colour_Asymmetry_Pilot,2022.1.3,Win32,30.00120005,62bbe60bf3d75ef465d3e404,,,,,,,,,,,,,,,,,,,,,,,,,,,,,,,,,,,,,,,,,,,,,,,,,,,,,,,,,,,,,,,,,,,,,,,,,,,,,,,,,,,,,,,,,,,,,,,,,,,,,,,,,,,,,,,,,,,,,,,,,,,,,,,,,,,,,,,,,,,,,,,,,,,,,,,,,,,,,,
0,63,63,32,1,,6097ec1a8c0b4df21cbb9024,62bbf989ffe1009c36dcb9a3,2022-06-29_09h05.35.792,Colour_Asymmetry_Pilot,2022.1.3,Win32,30.00120005,62bbe60bf3d75ef465d3e404,,,,,,,,,,,,,,,,,,,,,,,,,,,,,,,,,,,,,,,,,,,,,,,,,,,,,,,,,,,,,,,,,,,,,,,,,,,,,,,,,,,,,,,,,,,,,,,,,,,,,,,,,,,,,,,,,,,,,,,,,,,,,,,,,,,,,,,,,,,,,,,,,,,,,,,,,,,,,,
0,64,64,78,1,,6097ec1a8c0b4df21cbb9024,62bbf989ffe1009c36dcb9a3,2022-06-29_09h05.35.792,Colour_Asymmetry_Pilot,2022.1.3,Win32,30.00120005,62bbe60bf3d75ef465d3e404,,,,,,,,,,,,,,,,,,,,,,,,,,,,,,,,,,,,,,,,,,,,,,,,,,,,,,,,,,,,,,,,,,,,,,,,,,,,,,,,,,,,,,,,,,,,,,,,,,,,,,,,,,,,,,,,,,,,,,,,,,,,,,,,,,,,,,,,,,,,,,,,,,,,,,,,,,,,,,
0,65,65,57,1,,6097ec1a8c0b4df21cbb9024,62bbf989ffe1009c36dcb9a3,2022-06-29_09h05.35.792,Colour_Asymmetry_Pilot,2022.1.3,Win32,30.00120005,62bbe60bf3d75ef465d3e404,,,,,,,,,,,,,,,,,,,,,,,,,,,,,,,,,,,,,,,,,,,,,,,,,,,,,,,,,,,,,,,,,,,,,,,,,,,,,,,,,,,,,,,,,,,,,,,,,,,,,,,,,,,,,,,,,,,,,,,,,,,,,,,,,,,,,,,,,,,,,,,,,,,,,,,,,,,,,,
0,66,66,69,1,,6097ec1a8c0b4df21cbb9024,62bbf989ffe1009c36dcb9a3,2022-06-29_09h05.35.792,Colour_Asymmetry_Pilot,2022.1.3,Win32,30.00120005,62bbe60bf3d75ef465d3e404,,,,,,,,,,,,,,,,,,,,,,,,,,,,,,,,,,,,,,,,,,,,,,,,,,,,,,,,,,,,,,,,,,,,,,,,,,,,,,,,,,,,,,,,,,,,,,,,,,,,,,,,,,,,,,,,,,,,,,,,,,,,,,,,,,,,,,,,,,,,,,,,,,,,,,,,,,,,,,
0,67,67,6,1,,6097ec1a8c0b4df21cbb9024,62bbf989ffe1009c36dcb9a3,2022-06-29_09h05.35.792,Colour_Asymmetry_Pilot,2022.1.3,Win32,30.00120005,62bbe60bf3d75ef465d3e404,,,,,,,,,,,,,,,,,,,,,,,,,,,,,,,,,,,,,,,,,,,,,,,,,,,,,,,,,,,,,,,,,,,,,,,,,,,,,,,,,,,,,,,,,,,,,,,,,,,,,,,,,,,,,,,,,,,,,,,,,,,,,,,,,,,,,,,,,,,,,,,,,,,,,,,,,,,,,,
0,68,68,21,1,,6097ec1a8c0b4df21cbb9024,62bbf989ffe1009c36dcb9a3,2022-06-29_09h05.35.792,Colour_Asymmetry_Pilot,2022.1.3,Win32,30.00120005,62bbe60bf3d75ef465d3e404,,,,,,,,,,,,,,,,,,,,,,,,,,,,,,,,,,,,,,,,,,,,,,,,,,,,,,,,,,,,,,,,,,,,,,,,,,,,,,,,,,,,,,,,,,,,,,,,,,,,,,,,,,,,,,,,,,,,,,,,,,,,,,,,,,,,,,,,,,,,,,,,,,,,,,,,,,,,,,
0,69,69,56,1,,6097ec1a8c0b4df21cbb9024,62bbf989ffe1009c36dcb9a3,2022-06-29_09h05.35.792,Colour_Asymmetry_Pilot,2022.1.3,Win32,30.00120005,62bbe60bf3d75ef465d3e404,,,,,,,,,,,,,,,,,,,,,,,,,,,,,,,,,,,,,,,,,,,,,,,,,,,,,,,,,,,,,,,,,,,,,,,,,,,,,,,,,,,,,,,,,,,,,,,,,,,,,,,,,,,,,,,,,,,,,,,,,,,,,,,,,,,,,,,,,,,,,,,,,,,,,,,,,,,,,,
0,70,70,36,1,,6097ec1a8c0b4df21cbb9024,62bbf989ffe1009c36dcb9a3,2022-06-29_09h05.35.792,Colour_Asymmetry_Pilot,2022.1.3,Win32,30.00120005,62bbe60bf3d75ef465d3e404,,,,,,,,,,,,,,,,,,,,,,,,,,,,,,,,,,,,,,,,,,,,,,,,,,,,,,,,,,,,,,,,,,,,,,,,,,,,,,,,,,,,,,,,,,,,,,,,,,,,,,,,,,,,,,,,,,,,,,,,,,,,,,,,,,,,,,,,,,,,,,,,,,,,,,,,,,,,,,
0,71,71,45,1,,6097ec1a8c0b4df21cbb9024,62bbf989ffe1009c36dcb9a3,2022-06-29_09h05.35.792,Colour_Asymmetry_Pilot,2022.1.3,Win32,30.00120005,62bbe60bf3d75ef465d3e404,,,,,,,,,,,,,,,,,,,,,,,,,,,,,,,,,,,,,,,,,,,,,,,,,,,,,,,,,,,,,,,,,,,,,,,,,,,,,,,,,,,,,,,,,,,,,,,,,,,,,,,,,,,,,,,,,,,,,,,,,,,,,,,,,,,,,,,,,,,,,,,,,,,,,,,,,,,,,,
0,72,72,19,1,,6097ec1a8c0b4df21cbb9024,62bbf989ffe1009c36dcb9a3,2022-06-29_09h05.35.792,Colour_Asymmetry_Pilot,2022.1.3,Win32,30.00120005,62bbe60bf3d75ef465d3e404,,,,,,,,,,,,,,,,,,,,,,,,,,,,,,,,,,,,,,,,,,,,,,,,,,,,,,,,,,,,,,,,,,,,,,,,,,,,,,,,,,,,,,,,,,,,,,,,,,,,,,,,,,,,,,,,,,,,,,,,,,,,,,,,,,,,,,,,,,,,,,,,,,,,,,,,,,,,,,
0,73,73,84,1,,6097ec1a8c0b4df21cbb9024,62bbf989ffe1009c36dcb9a3,2022-06-29_09h05.35.792,Colour_Asymmetry_Pilot,2022.1.3,Win32,30.00120005,62bbe60bf3d75ef465d3e404,,,,,,,,,,,,,,,,,,,,,,,,,,,,,,,,,,,,,,,,,,,,,,,,,,,,,,,,,,,,,,,,,,,,,,,,,,,,,,,,,,,,,,,,,,,,,,,,,,,,,,,,,,,,,,,,,,,,,,,,,,,,,,,,,,,,,,,,,,,,,,,,,,,,,,,,,,,,,,
0,74,74,37,1,,6097ec1a8c0b4df21cbb9024,62bbf989ffe1009c36dcb9a3,2022-06-29_09h05.35.792,Colour_Asymmetry_Pilot,2022.1.3,Win32,30.00120005,62bbe60bf3d75ef465d3e404,,,,,,,,,,,,,,,,,,,,,,,,,,,,,,,,,,,,,,,,,,,,,,,,,,,,,,,,,,,,,,,,,,,,,,,,,,,,,,,,,,,,,,,,,,,,,,,,,,,,,,,,,,,,,,,,,,,,,,,,,,,,,,,,,,,,,,,,,,,,,,,,,,,,,,,,,,,,,,
0,75,75,72,1,,6097ec1a8c0b4df21cbb9024,62bbf989ffe1009c36dcb9a3,2022-06-29_09h05.35.792,Colour_Asymmetry_Pilot,2022.1.3,Win32,30.00120005,62bbe60bf3d75ef465d3e404,,,,,,,,,,,,,,,,,,,,,,,,,,,,,,,,,,,,,,,,,,,,,,,,,,,,,,,,,,,,,,,,,,,,,,,,,,,,,,,,,,,,,,,,,,,,,,,,,,,,,,,,,,,,,,,,,,,,,,,,,,,,,,,,,,,,,,,,,,,,,,,,,,,,,,,,,,,,,,
0,76,76,15,1,,6097ec1a8c0b4df21cbb9024,62bbf989ffe1009c36dcb9a3,2022-06-29_09h05.35.792,Colour_Asymmetry_Pilot,2022.1.3,Win32,30.00120005,62bbe60bf3d75ef465d3e404,,,,,,,,,,,,,,,,,,,,,,,,,,,,,,,,,,,,,,,,,,,,,,,,,,,,,,,,,,,,,,,,,,,,,,,,,,,,,,,,,,,,,,,,,,,,,,,,,,,,,,,,,,,,,,,,,,,,,,,,,,,,,,,,,,,,,,,,,,,,,,,,,,,,,,,,,,,,,,
0,77,77,7,1,,6097ec1a8c0b4df21cbb9024,62bbf989ffe1009c36dcb9a3,2022-06-29_09h05.35.792,Colour_Asymmetry_Pilot,2022.1.3,Win32,30.00120005,62bbe60bf3d75ef465d3e404,,,,,,,,,,,,,,,,,,,,,,,,,,,,,,,,,,,,,,,,,,,,,,,,,,,,,,,,,,,,,,,,,,,,,,,,,,,,,,,,,,,,,,,,,,,,,,,,,,,,,,,,,,,,,,,,,,,,,,,,,,,,,,,,,,,,,,,,,,,,,,,,,,,,,,,,,,,,,,
0,78,78,39,1,,6097ec1a8c0b4df21cbb9024,62bbf989ffe1009c36dcb9a3,2022-06-29_09h05.35.792,Colour_Asymmetry_Pilot,2022.1.3,Win32,30.00120005,62bbe60bf3d75ef465d3e404,,,,,,,,,,,,,,,,,,,,,,,,,,,,,,,,,,,,,,,,,,,,,,,,,,,,,,,,,,,,,,,,,,,,,,,,,,,,,,,,,,,,,,,,,,,,,,,,,,,,,,,,,,,,,,,,,,,,,,,,,,,,,,,,,,,,,,,,,,,,,,,,,,,,,,,,,,,,,,
0,79,79,64,1,,6097ec1a8c0b4df21cbb9024,62bbf989ffe1009c36dcb9a3,2022-06-29_09h05.35.792,Colour_Asymmetry_Pilot,2022.1.3,Win32,30.00120005,62bbe60bf3d75ef465d3e404,,,,,,,,,,,,,,,,,,,,,,,,,,,,,,,,,,,,,,,,,,,,,,,,,,,,,,,,,,,,,,,,,,,,,,,,,,,,,,,,,,,,,,,,,,,,,,,,,,,,,,,,,,,,,,,,,,,,,,,,,,,,,,,,,,,,,,,,,,,,,,,,,,,,,,,,,,,,,,
0,80,80,31,1,,6097ec1a8c0b4df21cbb9024,62bbf989ffe1009c36dcb9a3,2022-06-29_09h05.35.792,Colour_Asymmetry_Pilot,2022.1.3,Win32,30.00120005,62bbe60bf3d75ef465d3e404,,,,,,,,,,,,,,,,,,,,,,,,,,,,,,,,,,,,,,,,,,,,,,,,,,,,,,,,,,,,,,,,,,,,,,,,,,,,,,,,,,,,,,,,,,,,,,,,,,,,,,,,,,,,,,,,,,,,,,,,,,,,,,,,,,,,,,,,,,,,,,,,,,,,,,,,,,,,,,
0,81,81,67,1,,6097ec1a8c0b4df21cbb9024,62bbf989ffe1009c36dcb9a3,2022-06-29_09h05.35.792,Colour_Asymmetry_Pilot,2022.1.3,Win32,30.00120005,62bbe60bf3d75ef465d3e404,,,,,,,,,,,,,,,,,,,,,,,,,,,,,,,,,,,,,,,,,,,,,,,,,,,,,,,,,,,,,,,,,,,,,,,,,,,,,,,,,,,,,,,,,,,,,,,,,,,,,,,,,,,,,,,,,,,,,,,,,,,,,,,,,,,,,,,,,,,,,,,,,,,,,,,,,,,,,,
0,82,82,42,1,,6097ec1a8c0b4df21cbb9024,62bbf989ffe1009c36dcb9a3,2022-06-29_09h05.35.792,Colour_Asymmetry_Pilot,2022.1.3,Win32,30.00120005,62bbe60bf3d75ef465d3e404,,,,,,,,,,,,,,,,,,,,,,,,,,,,,,,,,,,,,,,,,,,,,,,,,,,,,,,,,,,,,,,,,,,,,,,,,,,,,,,,,,,,,,,,,,,,,,,,,,,,,,,,,,,,,,,,,,,,,,,,,,,,,,,,,,,,,,,,,,,,,,,,,,,,,,,,,,,,,,
0,83,83,14,1,,6097ec1a8c0b4df21cbb9024,62bbf989ffe1009c36dcb9a3,2022-06-29_09h05.35.792,Colour_Asymmetry_Pilot,2022.1.3,Win32,30.00120005,62bbe60bf3d75ef465d3e404,,,,,,,,,,,,,,,,,,,,,,,,,,,,,,,,,,,,,,,,,,,,,,,,,,,,,,,,,,,,,,,,,,,,,,,,,,,,,,,,,,,,,,,,,,,,,,,,,,,,,,,,,,,,,,,,,,,,,,,,,,,,,,,,,,,,,,,,,,,,,,,,,,,,,,,,,,,,,,
0,84,84,52,1,,6097ec1a8c0b4df21cbb9024,62bbf989ffe1009c36dcb9a3,2022-06-29_09h05.35.792,Colour_Asymmetry_Pilot,2022.1.3,Win32,30.00120005,62bbe60bf3d75ef465d3e404,,,,,,,,,,,,,,,,,,,,,,,,,,,,,,,,,,,,,,,,,,,,,,,,,,,,,,,,,,,,,,,,,,,,,,,,,,,,,,,,,,,,,,,,,,,,,,,,,,,,,,,,,,,,,,,,,,,,,,,,,,,,,,,,,,,,,,,,,,,,,,,,,,,,,,,,,,,,,,
0,85,85,3,1,,6097ec1a8c0b4df21cbb9024,62bbf989ffe1009c36dcb9a3,2022-06-29_09h05.35.792,Colour_Asymmetry_Pilot,2022.1.3,Win32,30.00120005,62bbe60bf3d75ef465d3e404,,,,,,,,,,,,,,,,,,,,,,,,,,,,,,,,,,,,,,,,,,,,,,,,,,,,,,,,,,,,,,,,,,,,,,,,,,,,,,,,,,,,,,,,,,,,,,,,,,,,,,,,,,,,,,,,,,,,,,,,,,,,,,,,,,,,,,,,,,,,,,,,,,,,,,,,,,,,,,
0,86,86,44,1,,6097ec1a8c0b4df21cbb9024,62bbf989ffe1009c36dcb9a3,2022-06-29_09h05.35.792,Colour_Asymmetry_Pilot,2022.1.3,Win32,30.00120005,62bbe60bf3d75ef465d3e404,,,,,,,,,,,,,,,,,,,,,,,,,,,,,,,,,,,,,,,,,,,,,,,,,,,,,,,,,,,,,,,,,,,,,,,,,,,,,,,,,,,,,,,,,,,,,,,,,,,,,,,,,,,,,,,,,,,,,,,,,,,,,,,,,,,,,,,,,,,,,,,,,,,,,,,,,,,,,,
0,87,87,86,1,,6097ec1a8c0b4df21cbb9024,62bbf989ffe1009c36dcb9a3,2022-06-29_09h05.35.792,Colour_Asymmetry_Pilot,2022.1.3,Win32,30.00120005,62bbe60bf3d75ef465d3e404,,,,,,,,,,,,,,,,,,,,,,,,,,,,,,,,,,,,,,,,,,,,,,,,,,,,,,,,,,,,,,,,,,,,,,,,,,,,,,,,,,,,,,,,,,,,,,,,,,,,,,,,,,,,,,,,,,,,,,,,,,,,,,,,,,,,,,,,,,,,,,,,,,,,,,,,,,,,,,
0,88,88,50,1,,6097ec1a8c0b4df21cbb9024,62bbf989ffe1009c36dcb9a3,2022-06-29_09h05.35.792,Colour_Asymmetry_Pilot,2022.1.3,Win32,30.00120005,62bbe60bf3d75ef465d3e404,,,,,,,,,,,,,,,,,,,,,,,,,,,,,,,,,,,,,,,,,,,,,,,,,,,,,,,,,,,,,,,,,,,,,,,,,,,,,,,,,,,,,,,,,,,,,,,,,,,,,,,,,,,,,,,,,,,,,,,,,,,,,,,,,,,,,,,,,,,,,,,,,,,,,,,,,,,,,,
0,89,89,34,1,,6097ec1a8c0b4df21cbb9024,62bbf989ffe1009c36dcb9a3,2022-06-29_09h05.35.792,Colour_Asymmetry_Pilot,2022.1.3,Win32,30.00120005,62bbe60bf3d75ef465d3e404,,,,,,,,,,,,,,,,,,,,,,,,,,,,,,,,,,,,,,,,,,,,,,,,,,,,,,,,,,,,,,,,,,,,,,,,,,,,,,,,,,,,,,,,,,,,,,,,,,,,,,,,,,,,,,,,,,,,,,,,,,,,,,,,,,,,,,,,,,,,,,,,,,,,,,,,,,,,,,
0,90,90,75,1,,6097ec1a8c0b4df21cbb9024,62bbf989ffe1009c36dcb9a3,2022-06-29_09h05.35.792,Colour_Asymmetry_Pilot,2022.1.3,Win32,30.00120005,62bbe60bf3d75ef465d3e404,,,,,,,,,,,,,,,,,,,,,,,,,,,,,,,,,,,,,,,,,,,,,,,,,,,,,,,,,,,,,,,,,,,,,,,,,,,,,,,,,,,,,,,,,,,,,,,,,,,,,,,,,,,,,,,,,,,,,,,,,,,,,,,,,,,,,,,,,,,,,,,,,,,,,,,,,,,,,,
0,91,91,17,1,,6097ec1a8c0b4df21cbb9024,62bbf989ffe1009c36dcb9a3,2022-06-29_09h05.35.792,Colour_Asymmetry_Pilot,2022.1.3,Win32,30.00120005,62bbe60bf3d75ef465d3e404,,,,,,,,,,,,,,,,,,,,,,,,,,,,,,,,,,,,,,,,,,,,,,,,,,,,,,,,,,,,,,,,,,,,,,,,,,,,,,,,,,,,,,,,,,,,,,,,,,,,,,,,,,,,,,,,,,,,,,,,,,,,,,,,,,,,,,,,,,,,,,,,,,,,,,,,,,,,,,
0,92,92,28,1,,6097ec1a8c0b4df21cbb9024,62bbf989ffe1009c36dcb9a3,2022-06-29_09h05.35.792,Colour_Asymmetry_Pilot,2022.1.3,Win32,30.00120005,62bbe60bf3d75ef465d3e404,,,,,,,,,,,,,,,,,,,,,,,,,,,,,,,,,,,,,,,,,,,,,,,,,,,,,,,,,,,,,,,,,,,,,,,,,,,,,,,,,,,,,,,,,,,,,,,,,,,,,,,,,,,,,,,,,,,,,,,,,,,,,,,,,,,,,,,,,,,,,,,,,,,,,,,,,,,,,,
,,,,,,6097ec1a8c0b4df21cbb9024,62bbf989ffe1009c36dcb9a3,2022-06-29_09h05.35.792,Colour_Asymmetry_Pilot,2022.1.3,Win32,30.00120005,62bbe60bf3d75ef465d3e404,0,0,0,54,1,fourtwo,,,,,,,,,,,,,,,,,,,,,,,,,,,,,,,,,,,,,,,,,,,,,,,,,,,,,,,,,,,,,,,,,,,,,,,,,,,,,,,,,,,,,,,,,,,,,,,,,,,,,,,,,,,,,,,,,,,,,,,,,,,,,,,,,,,,,,,,,,,,,,,,,,,,,,,,
,,,,,,6097ec1a8c0b4df21cbb9024,62bbf989ffe1009c36dcb9a3,2022-06-29_09h05.35.792,Colour_Asymmetry_Pilot,2022.1.3,Win32,30.00120005,62bbe60bf3d75ef465d3e404,0,1,1,2,1,twoone,,,,,,,,,,,,,,,,,,,,,,,,,,,,,,,,,,,,,,,,,,,,,,,,,,,,,,,,,,,,,,,,,,,,,,,,,,,,,,,,,,,,,,,,,,,,,,,,,,,,,,,,,,,,,,,,,,,,,,,,,,,,,,,,,,,,,,,,,,,,,,,,,,,,,,,,
,,,,,,6097ec1a8c0b4df21cbb9024,62bbf989ffe1009c36dcb9a3,2022-06-29_09h05.35.792,Colour_Asymmetry_Pilot,2022.1.3,Win32,30.00120005,62bbe60bf3d75ef465d3e404,0,2,2,124,1,threeone,,,,,,,,,,,,,,,,,,,,,,,,,,,,,,,,,,,,,,,,,,,,,,,,,,,,,,,,,,,,,,,,,,,,,,,,,,,,,,,,,,,,,,,,,,,,,,,,,,,,,,,,,,,,,,,,,,,,,,,,,,,,,,,,,,,,,,,,,,,,,,,,,,,,,,,,
,,,,,,6097ec1a8c0b4df21cbb9024,62bbf989ffe1009c36dcb9a3,2022-06-29_09h05.35.792,Colour_Asymmetry_Pilot,2022.1.3,Win32,30.00120005,62bbe60bf3d75ef465d3e404,0,3,3,39,1,fourthree,,,,,,,,,,,,,,,,,,,,,,,,,,,,,,,,,,,,,,,,,,,,,,,,,,,,,,,,,,,,,,,,,,,,,,,,,,,,,,,,,,,,,,,,,,,,,,,,,,,,,,,,,,,,,,,,,,,,,,,,,,,,,,,,,,,,,,,,,,,,,,,,,,,,,,,,
,,,,,,6097ec1a8c0b4df21cbb9024,62bbf989ffe1009c36dcb9a3,2022-06-29_09h05.35.792,Colour_Asymmetry_Pilot,2022.1.3,Win32,30.00120005,62bbe60bf3d75ef465d3e404,0,4,4,159,1,fourthree,,,,,,,,,,,,,,,,,,,,,,,,,,,,,,,,,,,,,,,,,,,,,,,,,,,,,,,,,,,,,,,,,,,,,,,,,,,,,,,,,,,,,,,,,,,,,,,,,,,,,,,,,,,,,,,,,,,,,,,,,,,,,,,,,,,,,,,,,,,,,,,,,,,,,,,,
,,,,,,6097ec1a8c0b4df21cbb9024,62bbf989ffe1009c36dcb9a3,2022-06-29_09h05.35.792,Colour_Asymmetry_Pilot,2022.1.3,Win32,30.00120005,62bbe60bf3d75ef465d3e404,0,5,5,155,1,twofour,,,,,,,,,,,,,,,,,,,,,,,,,,,,,,,,,,,,,,,,,,,,,,,,,,,,,,,,,,,,,,,,,,,,,,,,,,,,,,,,,,,,,,,,,,,,,,,,,,,,,,,,,,,,,,,,,,,,,,,,,,,,,,,,,,,,,,,,,,,,,,,,,,,,,,,,
,,,,,,6097ec1a8c0b4df21cbb9024,62bbf989ffe1009c36dcb9a3,2022-06-29_09h05.35.792,Colour_Asymmetry_Pilot,2022.1.3,Win32,30.00120005,62bbe60bf3d75ef465d3e404,0,6,6,60,1,threeone,,,,,,,,,,,,,,,,,,,,,,,,,,,,,,,,,,,,,,,,,,,,,,,,,,,,,,,,,,,,,,,,,,,,,,,,,,,,,,,,,,,,,,,,,,,,,,,,,,,,,,,,,,,,,,,,,,,,,,,,,,,,,,,,,,,,,,,,,,,,,,,,,,,,,,,,
,,,,,,6097ec1a8c0b4df21cbb9024,62bbf989ffe1009c36dcb9a3,2022-06-29_09h05.35.792,Colour_Asymmetry_Pilot,2022.1.3,Win32,30.00120005,62bbe60bf3d75ef465d3e404,0,7,7,45,1,threefour,,,,,,,,,,,,,,,,,,,,,,,,,,,,,,,,,,,,,,,,,,,,,,,,,,,,,,,,,,,,,,,,,,,,,,,,,,,,,,,,,,,,,,,,,,,,,,,,,,,,,,,,,,,,,,,,,,,,,,,,,,,,,,,,,,,,,,,,,,,,,,,,,,,,,,,,
,,,,,,6097ec1a8c0b4df21cbb9024,62bbf989ffe1009c36dcb9a3,2022-06-29_09h05.35.792,Colour_Asymmetry_Pilot,2022.1.3,Win32,30.00120005,62bbe60bf3d75ef465d3e404,0,8,8,37,1,threefour,,,,,,,,,,,,,,,,,,,,,,,,,,,,,,,,,,,,,,,,,,,,,,,,,,,,,,,,,,,,,,,,,,,,,,,,,,,,,,,,,,,,,,,,,,,,,,,,,,,,,,,,,,,,,,,,,,,,,,,,,,,,,,,,,,,,,,,,,,,,,,,,,,,,,,,,
,,,,,,6097ec1a8c0b4df21cbb9024,62bbf989ffe1009c36dcb9a3,2022-06-29_09h05.35.792,Colour_Asymmetry_Pilot,2022.1.3,Win32,30.00120005,62bbe60bf3d75ef465d3e404,0,9,9,103,1,fourthree,,,,,,,,,,,,,,,,,,,,,,,,,,,,,,,,,,,,,,,,,,,,,,,,,,,,,,,,,,,,,,,,,,,,,,,,,,,,,,,,,,,,,,,,,,,,,,,,,,,,,,,,,,,,,,,,,,,,,,,,,,,,,,,,,,,,,,,,,,,,,,,,,,,,,,,,
,,,,,,6097ec1a8c0b4df21cbb9024,62bbf989ffe1009c36dcb9a3,2022-06-29_09h05.35.792,Colour_Asymmetry_Pilot,2022.1.3,Win32,30.00120005,62bbe60bf3d75ef465d3e404,0,10,10,79,1,fourthree,,,,,,,,,,,,,,,,,,,,,,,,,,,,,,,,,,,,,,,,,,,,,,,,,,,,,,,,,,,,,,,,,,,,,,,,,,,,,,,,,,,,,,,,,,,,,,,,,,,,,,,,,,,,,,,,,,,,,,,,,,,,,,,,,,,,,,,,,,,,,,,,,,,,,,,,
,,,,,,6097ec1a8c0b4df21cbb9024,62bbf989ffe1009c36dcb9a3,2022-06-29_09h05.35.792,Colour_Asymmetry_Pilot,2022.1.3,Win32,30.00120005,62bbe60bf3d75ef465d3e404,0,11,11,104,1,onetwo,,,,,,,,,,,,,,,,,,,,,,,,,,,,,,,,,,,,,,,,,,,,,,,,,,,,,,,,,,,,,,,,,,,,,,,,,,,,,,,,,,,,,,,,,,,,,,,,,,,,,,,,,,,,,,,,,,,,,,,,,,,,,,,,,,,,,,,,,,,,,,,,,,,,,,,,
,,,,,,6097ec1a8c0b4df21cbb9024,62bbf989ffe1009c36dcb9a3,2022-06-29_09h05.35.792,Colour_Asymmetry_Pilot,2022.1.3,Win32,30.00120005,62bbe60bf3d75ef465d3e404,0,12,12,38,1,fourtwo,,,,,,,,,,,,,,,,,,,,,,,,,,,,,,,,,,,,,,,,,,,,,,,,,,,,,,,,,,,,,,,,,,,,,,,,,,,,,,,,,,,,,,,,,,,,,,,,,,,,,,,,,,,,,,,,,,,,,,,,,,,,,,,,,,,,,,,,,,,,,,,,,,,,,,,,
,,,,,,6097ec1a8c0b4df21cbb9024,62bbf989ffe1009c36dcb9a3,2022-06-29_09h05.35.792,Colour_Asymmetry_Pilot,2022.1.3,Win32,30.00120005,62bbe60bf3d75ef465d3e404,0,13,13,111,1,fourthree,,,,,,,,,,,,,,,,,,,,,,,,,,,,,,,,,,,,,,,,,,,,,,,,,,,,,,,,,,,,,,,,,,,,,,,,,,,,,,,,,,,,,,,,,,,,,,,,,,,,,,,,,,,,,,,,,,,,,,,,,,,,,,,,,,,,,,,,,,,,,,,,,,,,,,,,
,,,,,,6097ec1a8c0b4df21cbb9024,62bbf989ffe1009c36dcb9a3,2022-06-29_09h05.35.792,Colour_Asymmetry_Pilot,2022.1.3,Win32,30.00120005,62bbe60bf3d75ef465d3e404,0,14,14,6,1,fourtwo,,,,,,,,,,,,,,,,,,,,,,,,,,,,,,,,,,,,,,,,,,,,,,,,,,,,,,,,,,,,,,,,,,,,,,,,,,,,,,,,,,,,,,,,,,,,,,,,,,,,,,,,,,,,,,,,,,,,,,,,,,,,,,,,,,,,,,,,,,,,,,,,,,,,,,,,
,,,,,,6097ec1a8c0b4df21cbb9024,62bbf989ffe1009c36dcb9a3,2022-06-29_09h05.35.792,Colour_Asymmetry_Pilot,2022.1.3,Win32,30.00120005,62bbe60bf3d75ef465d3e404,0,15,15,17,1,onethree,,,,,,,,,,,,,,,,,,,,,,,,,,,,,,,,,,,,,,,,,,,,,,,,,,,,,,,,,,,,,,,,,,,,,,,,,,,,,,,,,,,,,,,,,,,,,,,,,,,,,,,,,,,,,,,,,,,,,,,,,,,,,,,,,,,,,,,,,,,,,,,,,,,,,,,,
,,,,,,6097ec1a8c0b4df21cbb9024,62bbf989ffe1009c36dcb9a3,2022-06-29_09h05.35.792,Colour_Asymmetry_Pilot,2022.1.3,Win32,30.00120005,62bbe60bf3d75ef465d3e404,0,16,16,130,1,twoone,,,,,,,,,,,,,,,,,,,,,,,,,,,,,,,,,,,,,,,,,,,,,,,,,,,,,,,,,,,,,,,,,,,,,,,,,,,,,,,,,,,,,,,,,,,,,,,,,,,,,,,,,,,,,,,,,,,,,,,,,,,,,,,,,,,,,,,,,,,,,,,,,,,,,,,,
,,,,,,6097ec1a8c0b4df21cbb9024,62bbf989ffe1009c36dcb9a3,2022-06-29_09h05.35.792,Colour_Asymmetry_Pilot,2022.1.3,Win32,30.00120005,62bbe60bf3d75ef465d3e404,0,17,17,62,1,fourtwo,,,,,,,,,,,,,,,,,,,,,,,,,,,,,,,,,,,,,,,,,,,,,,,,,,,,,,,,,,,,,,,,,,,,,,,,,,,,,,,,,,,,,,,,,,,,,,,,,,,,,,,,,,,,,,,,,,,,,,,,,,,,,,,,,,,,,,,,,,,,,,,,,,,,,,,,
,,,,,,6097ec1a8c0b4df21cbb9024,62bbf989ffe1009c36dcb9a3,2022-06-29_09h05.35.792,Colour_Asymmetry_Pilot,2022.1.3,Win32,30.00120005,62bbe60bf3d75ef465d3e404,0,18,18,108,1,threeone,,,,,,,,,,,,,,,,,,,,,,,,,,,,,,,,,,,,,,,,,,,,,,,,,,,,,,,,,,,,,,,,,,,,,,,,,,,,,,,,,,,,,,,,,,,,,,,,,,,,,,,,,,,,,,,,,,,,,,,,,,,,,,,,,,,,,,,,,,,,,,,,,,,,,,,,
,,,,,,6097ec1a8c0b4df21cbb9024,62bbf989ffe1009c36dcb9a3,2022-06-29_09h05.35.792,Colour_Asymmetry_Pilot,2022.1.3,Win32,30.00120005,62bbe60bf3d75ef465d3e404,0,19,19,80,1,onetwo,,,,,,,,,,,,,,,,,,,,,,,,,,,,,,,,,,,,,,,,,,,,,,,,,,,,,,,,,,,,,,,,,,,,,,,,,,,,,,,,,,,,,,,,,,,,,,,,,,,,,,,,,,,,,,,,,,,,,,,,,,,,,,,,,,,,,,,,,,,,,,,,,,,,,,,,
,,,,,,6097ec1a8c0b4df21cbb9024,62bbf989ffe1009c36dcb9a3,2022-06-29_09h05.35.792,Colour_Asymmetry_Pilot,2022.1.3,Win32,30.00120005,62bbe60bf3d75ef465d3e404,0,20,20,125,1,threefour,,,,,,,,,,,,,,,,,,,,,,,,,,,,,,,,,,,,,,,,,,,,,,,,,,,,,,,,,,,,,,,,,,,,,,,,,,,,,,,,,,,,,,,,,,,,,,,,,,,,,,,,,,,,,,,,,,,,,,,,,,,,,,,,,,,,,,,,,,,,,,,,,,,,,,,,
,,,,,,6097ec1a8c0b4df21cbb9024,62bbf989ffe1009c36dcb9a3,2022-06-29_09h05.35.792,Colour_Asymmetry_Pilot,2022.1.3,Win32,30.00120005,62bbe60bf3d75ef465d3e404,0,21,21,93,1,threefour,,,,,,,,,,,,,,,,,,,,,,,,,,,,,,,,,,,,,,,,,,,,,,,,,,,,,,,,,,,,,,,,,,,,,,,,,,,,,,,,,,,,,,,,,,,,,,,,,,,,,,,,,,,,,,,,,,,,,,,,,,,,,,,,,,,,,,,,,,,,,,,,,,,,,,,,
,,,,,,6097ec1a8c0b4df21cbb9024,62bbf989ffe1009c36dcb9a3,2022-06-29_09h05.35.792,Colour_Asymmetry_Pilot,2022.1.3,Win32,30.00120005,62bbe60bf3d75ef465d3e404,0,22,22,31,1,fourthree,,,,,,,,,,,,,,,,,,,,,,,,,,,,,,,,,,,,,,,,,,,,,,,,,,,,,,,,,,,,,,,,,,,,,,,,,,,,,,,,,,,,,,,,,,,,,,,,,,,,,,,,,,,,,,,,,,,,,,,,,,,,,,,,,,,,,,,,,,,,,,,,,,,,,,,,
,,,,,,6097ec1a8c0b4df21cbb9024,62bbf989ffe1009c36dcb9a3,2022-06-29_09h05.35.792,Colour_Asymmetry_Pilot,2022.1.3,Win32,30.00120005,62bbe60bf3d75ef465d3e404,0,23,23,0,1,onetwo,,,,,,,,,,,,,,,,,,,,,,,,,,,,,,,,,,,,,,,,,,,,,,,,,,,,,,,,,,,,,,,,,,,,,,,,,,,,,,,,,,,,,,,,,,,,,,,,,,,,,,,,,,,,,,,,,,,,,,,,,,,,,,,,,,,,,,,,,,,,,,,,,,,,,,,,
,,,,,,6097ec1a8c0b4df21cbb9024,62bbf989ffe1009c36dcb9a3,2022-06-29_09h05.35.792,Colour_Asymmetry_Pilot,2022.1.3,Win32,30.00120005,62bbe60bf3d75ef465d3e404,0,24,24,127,1,fourthree,,,,,,,,,,,,,,,,,,,,,,,,,,,,,,,,,,,,,,,,,,,,,,,,,,,,,,,,,,,,,,,,,,,,,,,,,,,,,,,,,,,,,,,,,,,,,,,,,,,,,,,,,,,,,,,,,,,,,,,,,,,,,,,,,,,,,,,,,,,,,,,,,,,,,,,,
,,,,,,6097ec1a8c0b4df21cbb9024,62bbf989ffe1009c36dcb9a3,2022-06-29_09h05.35.792,Colour_Asymmetry_Pilot,2022.1.3,Win32,30.00120005,62bbe60bf3d75ef465d3e404,0,25,25,135,1,fourthree,,,,,,,,,,,,,,,,,,,,,,,,,,,,,,,,,,,,,,,,,,,,,,,,,,,,,,,,,,,,,,,,,,,,,,,,,,,,,,,,,,,,,,,,,,,,,,,,,,,,,,,,,,,,,,,,,,,,,,,,,,,,,,,,,,,,,,,,,,,,,,,,,,,,,,,,
,,,,,,6097ec1a8c0b4df21cbb9024,62bbf989ffe1009c36dcb9a3,2022-06-29_09h05.35.792,Colour_Asymmetry_Pilot,2022.1.3,Win32,30.00120005,62bbe60bf3d75ef465d3e404,0,26,26,53,1,threefour,,,,,,,,,,,,,,,,,,,,,,,,,,,,,,,,,,,,,,,,,,,,,,,,,,,,,,,,,,,,,,,,,,,,,,,,,,,,,,,,,,,,,,,,,,,,,,,,,,,,,,,,,,,,,,,,,,,,,,,,,,,,,,,,,,,,,,,,,,,,,,,,,,,,,,,,
,,,,,,6097ec1a8c0b4df21cbb9024,62bbf989ffe1009c36dcb9a3,2022-06-29_09h05.35.792,Colour_Asymmetry_Pilot,2022.1.3,Win32,30.00120005,62bbe60bf3d75ef465d3e404,0,27,27,118,1,fourtwo,,,,,,,,,,,,,,,,,,,,,,,,,,,,,,,,,,,,,,,,,,,,,,,,,,,,,,,,,,,,,,,,,,,,,,,,,,,,,,,,,,,,,,,,,,,,,,,,,,,,,,,,,,,,,,,,,,,,,,,,,,,,,,,,,,,,,,,,,,,,,,,,,,,,,,,,
,,,,,,6097ec1a8c0b4df21cbb9024,62bbf989ffe1009c36dcb9a3,2022-06-29_09h05.35.792,Colour_Asymmetry_Pilot,2022.1.3,Win32,30.00120005,62bbe60bf3d75ef465d3e404,0,28,28,114,1,twoone,,,,,,,,,,,,,,,,,,,,,,,,,,,,,,,,,,,,,,,,,,,,,,,,,,,,,,,,,,,,,,,,,,,,,,,,,,,,,,,,,,,,,,,,,,,,,,,,,,,,,,,,,,,,,,,,,,,,,,,,,,,,,,,,,,,,,,,,,,,,,,,,,,,,,,,,
,,,,,,6097ec1a8c0b4df21cbb9024,62bbf989ffe1009c36dcb9a3,2022-06-29_09h05.35.792,Colour_Asymmetry_Pilot,2022.1.3,Win32,30.00120005,62bbe60bf3d75ef465d3e404,0,29,29,10,1,twoone,,,,,,,,,,,,,,,,,,,,,,,,,,,,,,,,,,,,,,,,,,,,,,,,,,,,,,,,,,,,,,,,,,,,,,,,,,,,,,,,,,,,,,,,,,,,,,,,,,,,,,,,,,,,,,,,,,,,,,,,,,,,,,,,,,,,,,,,,,,,,,,,,,,,,,,,
,,,,,,6097ec1a8c0b4df21cbb9024,62bbf989ffe1009c36dcb9a3,2022-06-29_09h05.35.792,Colour_Asymmetry_Pilot,2022.1.3,Win32,30.00120005,62bbe60bf3d75ef465d3e404,0,30,30,101,1,threefour,,,,,,,,,,,,,,,,,,,,,,,,,,,,,,,,,,,,,,,,,,,,,,,,,,,,,,,,,,,,,,,,,,,,,,,,,,,,,,,,,,,,,,,,,,,,,,,,,,,,,,,,,,,,,,,,,,,,,,,,,,,,,,,,,,,,,,,,,,,,,,,,,,,,,,,,
,,,,,,6097ec1a8c0b4df21cbb9024,62bbf989ffe1009c36dcb9a3,2022-06-29_09h05.35.792,Colour_Asymmetry_Pilot,2022.1.3,Win32,30.00120005,62bbe60bf3d75ef465d3e404,0,31,31,47,1,fourthree,,,,,,,,,,,,,,,,,,,,,,,,,,,,,,,,,,,,,,,,,,,,,,,,,,,,,,,,,,,,,,,,,,,,,,,,,,,,,,,,,,,,,,,,,,,,,,,,,,,,,,,,,,,,,,,,,,,,,,,,,,,,,,,,,,,,,,,,,,,,,,,,,,,,,,,,
,,,,,,6097ec1a8c0b4df21cbb9024,62bbf989ffe1009c36dcb9a3,2022-06-29_09h05.35.792,Colour_Asymmetry_Pilot,2022.1.3,Win32,30.00120005,62bbe60bf3d75ef465d3e404,0,32,32,75,1,twofour,,,,,,,,,,,,,,,,,,,,,,,,,,,,,,,,,,,,,,,,,,,,,,,,,,,,,,,,,,,,,,,,,,,,,,,,,,,,,,,,,,,,,,,,,,,,,,,,,,,,,,,,,,,,,,,,,,,,,,,,,,,,,,,,,,,,,,,,,,,,,,,,,,,,,,,,
,,,,,,6097ec1a8c0b4df21cbb9024,62bbf989ffe1009c36dcb9a3,2022-06-29_09h05.35.792,Colour_Asymmetry_Pilot,2022.1.3,Win32,30.00120005,62bbe60bf3d75ef465d3e404,0,33,33,71,1,fourthree,,,,,,,,,,,,,,,,,,,,,,,,,,,,,,,,,,,,,,,,,,,,,,,,,,,,,,,,,,,,,,,,,,,,,,,,,,,,,,,,,,,,,,,,,,,,,,,,,,,,,,,,,,,,,,,,,,,,,,,,,,,,,,,,,,,,,,,,,,,,,,,,,,,,,,,,
,,,,,,6097ec1a8c0b4df21cbb9024,62bbf989ffe1009c36dcb9a3,2022-06-29_09h05.35.792,Colour_Asymmetry_Pilot,2022.1.3,Win32,30.00120005,62bbe60bf3d75ef465d3e404,0,34,34,33,1,onethree,,,,,,,,,,,,,,,,,,,,,,,,,,,,,,,,,,,,,,,,,,,,,,,,,,,,,,,,,,,,,,,,,,,,,,,,,,,,,,,,,,,,,,,,,,,,,,,,,,,,,,,,,,,,,,,,,,,,,,,,,,,,,,,,,,,,,,,,,,,,,,,,,,,,,,,,
,,,,,,6097ec1a8c0b4df21cbb9024,62bbf989ffe1009c36dcb9a3,2022-06-29_09h05.35.792,Colour_Asymmetry_Pilot,2022.1.3,Win32,30.00120005,62bbe60bf3d75ef465d3e404,0,35,35,19,1,twofour,,,,,,,,,,,,,,,,,,,,,,,,,,,,,,,,,,,,,,,,,,,,,,,,,,,,,,,,,,,,,,,,,,,,,,,,,,,,,,,,,,,,,,,,,,,,,,,,,,,,,,,,,,,,,,,,,,,,,,,,,,,,,,,,,,,,,,,,,,,,,,,,,,,,,,,,
,,,,,,6097ec1a8c0b4df21cbb9024,62bbf989ffe1009c36dcb9a3,2022-06-29_09h05.35.792,Colour_Asymmetry_Pilot,2022.1.3,Win32,30.00120005,62bbe60bf3d75ef465d3e404,0,36,36,5,1,threefour,,,,,,,,,,,,,,,,,,,,,,,,,,,,,,,,,,,,,,,,,,,,,,,,,,,,,,,,,,,,,,,,,,,,,,,,,,,,,,,,,,,,,,,,,,,,,,,,,,,,,,,,,,,,,,,,,,,,,,,,,,,,,,,,,,,,,,,,,,,,,,,,,,,,,,,,
,,,,,,6097ec1a8c0b4df21cbb9024,62bbf989ffe1009c36dcb9a3,2022-06-29_09h05.35.792,Colour_Asymmetry_Pilot,2022.1.3,Win32,30.00120005,62bbe60bf3d75ef465d3e404,0,37,37,55,1,fourthree,,,,,,,,,,,,,,,,,,,,,,,,,,,,,,,,,,,,,,,,,,,,,,,,,,,,,,,,,,,,,,,,,,,,,,,,,,,,,,,,,,,,,,,,,,,,,,,,,,,,,,,,,,,,,,,,,,,,,,,,,,,,,,,,,,,,,,,,,,,,,,,,,,,,,,,,
,,,,,,6097ec1a8c0b4df21cbb9024,62bbf989ffe1009c36dcb9a3,2022-06-29_09h05.35.792,Colour_Asymmetry_Pilot,2022.1.3,Win32,30.00120005,62bbe60bf3d75ef465d3e404,0,38,38,136,1,onetwo,,,,,,,,,,,,,,,,,,,,,,,,,,,,,,,,,,,,,,,,,,,,,,,,,,,,,,,,,,,,,,,,,,,,,,,,,,,,,,,,,,,,,,,,,,,,,,,,,,,,,,,,,,,,,,,,,,,,,,,,,,,,,,,,,,,,,,,,,,,,,,,,,,,,,,,,
,,,,,,6097ec1a8c0b4df21cbb9024,62bbf989ffe1009c36dcb9a3,2022-06-29_09h05.35.792,Colour_Asymmetry_Pilot,2022.1.3,Win32,30.00120005,62bbe60bf3d75ef465d3e404,0,39,39,58,1,twoone,,,,,,,,,,,,,,,,,,,,,,,,,,,,,,,,,,,,,,,,,,,,,,,,,,,,,,,,,,,,,,,,,,,,,,,,,,,,,,,,,,,,,,,,,,,,,,,,,,,,,,,,,,,,,,,,,,,,,,,,,,,,,,,,,,,,,,,,,,,,,,,,,,,,,,,,
,,,,,,6097ec1a8c0b4df21cbb9024,62bbf989ffe1009c36dcb9a3,2022-06-29_09h05.35.792,Colour_Asymmetry_Pilot,2022.1.3,Win32,30.00120005,62bbe60bf3d75ef465d3e404,0,40,40,119,1,fourthree,,,,,,,,,,,,,,,,,,,,,,,,,,,,,,,,,,,,,,,,,,,,,,,,,,,,,,,,,,,,,,,,,,,,,,,,,,,,,,,,,,,,,,,,,,,,,,,,,,,,,,,,,,,,,,,,,,,,,,,,,,,,,,,,,,,,,,,,,,,,,,,,,,,,,,,,
,,,,,,6097ec1a8c0b4df21cbb9024,62bbf989ffe1009c36dcb9a3,2022-06-29_09h05.35.792,Colour_Asymmetry_Pilot,2022.1.3,Win32,30.00120005,62bbe60bf3d75ef465d3e404,0,41,41,3,1,twofour,,,,,,,,,,,,,,,,,,,,,,,,,,,,,,,,,,,,,,,,,,,,,,,,,,,,,,,,,,,,,,,,,,,,,,,,,,,,,,,,,,,,,,,,,,,,,,,,,,,,,,,,,,,,,,,,,,,,,,,,,,,,,,,,,,,,,,,,,,,,,,,,,,,,,,,,
,,,,,,6097ec1a8c0b4df21cbb9024,62bbf989ffe1009c36dcb9a3,2022-06-29_09h05.35.792,Colour_Asymmetry_Pilot,2022.1.3,Win32,30.00120005,62bbe60bf3d75ef465d3e404,0,42,42,88,1,onetwo,,,,,,,,,,,,,,,,,,,,,,,,,,,,,,,,,,,,,,,,,,,,,,,,,,,,,,,,,,,,,,,,,,,,,,,,,,,,,,,,,,,,,,,,,,,,,,,,,,,,,,,,,,,,,,,,,,,,,,,,,,,,,,,,,,,,,,,,,,,,,,,,,,,,,,,,
,,,,,,6097ec1a8c0b4df21cbb9024,62bbf989ffe1009c36dcb9a3,2022-06-29_09h05.35.792,Colour_Asymmetry_Pilot,2022.1.3,Win32,30.00120005,62bbe60bf3d75ef465d3e404,0,43,43,22,1,fourtwo,,,,,,,,,,,,,,,,,,,,,,,,,,,,,,,,,,,,,,,,,,,,,,,,,,,,,,,,,,,,,,,,,,,,,,,,,,,,,,,,,,,,,,,,,,,,,,,,,,,,,,,,,,,,,,,,,,,,,,,,,,,,,,,,,,,,,,,,,,,,,,,,,,,,,,,,
,,,,,,6097ec1a8c0b4df21cbb9024,62bbf989ffe1009c36dcb9a3,2022-06-29_09h05.35.792,Colour_Asymmetry_Pilot,2022.1.3,Win32,30.00120005,62bbe60bf3d75ef465d3e404,0,44,44,74,1,twoone,,,,,,,,,,,,,,,,,,,,,,,,,,,,,,,,,,,,,,,,,,,,,,,,,,,,,,,,,,,,,,,,,,,,,,,,,,,,,,,,,,,,,,,,,,,,,,,,,,,,,,,,,,,,,,,,,,,,,,,,,,,,,,,,,,,,,,,,,,,,,,,,,,,,,,,,
,,,,,,6097ec1a8c0b4df21cbb9024,62bbf989ffe1009c36dcb9a3,2022-06-29_09h05.35.792,Colour_Asymmetry_Pilot,2022.1.3,Win32,30.00120005,62bbe60bf3d75ef465d3e404,0,45,45,158,1,fourtwo,,,,,,,,,,,,,,,,,,,,,,,,,,,,,,,,,,,,,,,,,,,,,,,,,,,,,,,,,,,,,,,,,,,,,,,,,,,,,,,,,,,,,,,,,,,,,,,,,,,,,,,,,,,,,,,,,,,,,,,,,,,,,,,,,,,,,,,,,,,,,,,,,,,,,,,,
,,,,,,6097ec1a8c0b4df21cbb9024,62bbf989ffe1009c36dcb9a3,2022-06-29_09h05.35.792,Colour_Asymmetry_Pilot,2022.1.3,Win32,30.00120005,62bbe60bf3d75ef465d3e404,0,46,46,154,1,twoone,,,,,,,,,,,,,,,,,,,,,,,,,,,,,,,,,,,,,,,,,,,,,,,,,,,,,,,,,,,,,,,,,,,,,,,,,,,,,,,,,,,,,,,,,,,,,,,,,,,,,,,,,,,,,,,,,,,,,,,,,,,,,,,,,,,,,,,,,,,,,,,,,,,,,,,,
,,,,,,6097ec1a8c0b4df21cbb9024,62bbf989ffe1009c36dcb9a3,2022-06-29_09h05.35.792,Colour_Asymmetry_Pilot,2022.1.3,Win32,30.00120005,62bbe60bf3d75ef465d3e404,0,47,47,68,1,threeone,,,,,,,,,,,,,,,,,,,,,,,,,,,,,,,,,,,,,,,,,,,,,,,,,,,,,,,,,,,,,,,,,,,,,,,,,,,,,,,,,,,,,,,,,,,,,,,,,,,,,,,,,,,,,,,,,,,,,,,,,,,,,,,,,,,,,,,,,,,,,,,,,,,,,,,,
,,,,,,6097ec1a8c0b4df21cbb9024,62bbf989ffe1009c36dcb9a3,2022-06-29_09h05.35.792,Colour_Asymmetry_Pilot,2022.1.3,Win32,30.00120005,62bbe60bf3d75ef465d3e404,0,48,48,99,1,twofour,,,,,,,,,,,,,,,,,,,,,,,,,,,,,,,,,,,,,,,,,,,,,,,,,,,,,,,,,,,,,,,,,,,,,,,,,,,,,,,,,,,,,,,,,,,,,,,,,,,,,,,,,,,,,,,,,,,,,,,,,,,,,,,,,,,,,,,,,,,,,,,,,,,,,,,,
,,,,,,6097ec1a8c0b4df21cbb9024,62bbf989ffe1009c36dcb9a3,2022-06-29_09h05.35.792,Colour_Asymmetry_Pilot,2022.1.3,Win32,30.00120005,62bbe60bf3d75ef465d3e404,0,49,49,44,1,threeone,,,,,,,,,,,,,,,,,,,,,,,,,,,,,,,,,,,,,,,,,,,,,,,,,,,,,,,,,,,,,,,,,,,,,,,,,,,,,,,,,,,,,,,,,,,,,,,,,,,,,,,,,,,,,,,,,,,,,,,,,,,,,,,,,,,,,,,,,,,,,,,,,,,,,,,,
,,,,,,6097ec1a8c0b4df21cbb9024,62bbf989ffe1009c36dcb9a3,2022-06-29_09h05.35.792,Colour_Asymmetry_Pilot,2022.1.3,Win32,30.00120005,62bbe60bf3d75ef465d3e404,0,50,50,12,1,threeone,,,,,,,,,,,,,,,,,,,,,,,,,,,,,,,,,,,,,,,,,,,,,,,,,,,,,,,,,,,,,,,,,,,,,,,,,,,,,,,,,,,,,,,,,,,,,,,,,,,,,,,,,,,,,,,,,,,,,,,,,,,,,,,,,,,,,,,,,,,,,,,,,,,,,,,,
,,,,,,6097ec1a8c0b4df21cbb9024,62bbf989ffe1009c36dcb9a3,2022-06-29_09h05.35.792,Colour_Asymmetry_Pilot,2022.1.3,Win32,30.00120005,62bbe60bf3d75ef465d3e404,0,51,51,157,1,threefour,,,,,,,,,,,,,,,,,,,,,,,,,,,,,,,,,,,,,,,,,,,,,,,,,,,,,,,,,,,,,,,,,,,,,,,,,,,,,,,,,,,,,,,,,,,,,,,,,,,,,,,,,,,,,,,,,,,,,,,,,,,,,,,,,,,,,,,,,,,,,,,,,,,,,,,,
,,,,,,6097ec1a8c0b4df21cbb9024,62bbf989ffe1009c36dcb9a3,2022-06-29_09h05.35.792,Colour_Asymmetry_Pilot,2022.1.3,Win32,30.00120005,62bbe60bf3d75ef465d3e404,0,52,52,137,1,onethree,,,,,,,,,,,,,,,,,,,,,,,,,,,,,,,,,,,,,,,,,,,,,,,,,,,,,,,,,,,,,,,,,,,,,,,,,,,,,,,,,,,,,,,,,,,,,,,,,,,,,,,,,,,,,,,,,,,,,,,,,,,,,,,,,,,,,,,,,,,,,,,,,,,,,,,,
,,,,,,6097ec1a8c0b4df21cbb9024,62bbf989ffe1009c36dcb9a3,2022-06-29_09h05.35.792,Colour_Asymmetry_Pilot,2022.1.3,Win32,30.00120005,62bbe60bf3d75ef465d3e404,0,53,53,9,1,onethree,,,,,,,,,,,,,,,,,,,,,,,,,,,,,,,,,,,,,,,,,,,,,,,,,,,,,,,,,,,,,,,,,,,,,,,,,,,,,,,,,,,,,,,,,,,,,,,,,,,,,,,,,,,,,,,,,,,,,,,,,,,,,,,,,,,,,,,,,,,,,,,,,,,,,,,,
,,,,,,6097ec1a8c0b4df21cbb9024,62bbf989ffe1009c36dcb9a3,2022-06-29_09h05.35.792,Colour_Asymmetry_Pilot,2022.1.3,Win32,30.00120005,62bbe60bf3d75ef465d3e404,0,54,54,139,1,twofour,,,,,,,,,,,,,,,,,,,,,,,,,,,,,,,,,,,,,,,,,,,,,,,,,,,,,,,,,,,,,,,,,,,,,,,,,,,,,,,,,,,,,,,,,,,,,,,,,,,,,,,,,,,,,,,,,,,,,,,,,,,,,,,,,,,,,,,,,,,,,,,,,,,,,,,,
,,,,,,6097ec1a8c0b4df21cbb9024,62bbf989ffe1009c36dcb9a3,2022-06-29_09h05.35.792,Colour_Asymmetry_Pilot,2022.1.3,Win32,30.00120005,62bbe60bf3d75ef465d3e404,0,55,55,32,1,onetwo,,,,,,,,,,,,,,,,,,,,,,,,,,,,,,,,,,,,,,,,,,,,,,,,,,,,,,,,,,,,,,,,,,,,,,,,,,,,,,,,,,,,,,,,,,,,,,,,,,,,,,,,,,,,,,,,,,,,,,,,,,,,,,,,,,,,,,,,,,,,,,,,,,,,,,,,
,,,,,,6097ec1a8c0b4df21cbb9024,62bbf989ffe1009c36dcb9a3,2022-06-29_09h05.35.792,Colour_Asymmetry_Pilot,2022.1.3,Win32,30.00120005,62bbe60bf3d75ef465d3e404,0,56,56,73,1,onethree,,,,,,,,,,,,,,,,,,,,,,,,,,,,,,,,,,,,,,,,,,,,,,,,,,,,,,,,,,,,,,,,,,,,,,,,,,,,,,,,,,,,,,,,,,,,,,,,,,,,,,,,,,,,,,,,,,,,,,,,,,,,,,,,,,,,,,,,,,,,,,,,,,,,,,,,
,,,,,,6097ec1a8c0b4df21cbb9024,62bbf989ffe1009c36dcb9a3,2022-06-29_09h05.35.792,Colour_Asymmetry_Pilot,2022.1.3,Win32,30.00120005,62bbe60bf3d75ef465d3e404,0,57,57,126,1,fourtwo,,,,,,,,,,,,,,,,,,,,,,,,,,,,,,,,,,,,,,,,,,,,,,,,,,,,,,,,,,,,,,,,,,,,,,,,,,,,,,,,,,,,,,,,,,,,,,,,,,,,,,,,,,,,,,,,,,,,,,,,,,,,,,,,,,,,,,,,,,,,,,,,,,,,,,,,
,,,,,,6097ec1a8c0b4df21cbb9024,62bbf989ffe1009c36dcb9a3,2022-06-29_09h05.35.792,Colour_Asymmetry_Pilot,2022.1.3,Win32,30.00120005,62bbe60bf3d75ef465d3e404,0,58,58,14,1,fourtwo,,,,,,,,,,,,,,,,,,,,,,,,,,,,,,,,,,,,,,,,,,,,,,,,,,,,,,,,,,,,,,,,,,,,,,,,,,,,,,,,,,,,,,,,,,,,,,,,,,,,,,,,,,,,,,,,,,,,,,,,,,,,,,,,,,,,,,,,,,,,,,,,,,,,,,,,
,,,,,,6097ec1a8c0b4df21cbb9024,62bbf989ffe1009c36dcb9a3,2022-06-29_09h05.35.792,Colour_Asymmetry_Pilot,2022.1.3,Win32,30.00120005,62bbe60bf3d75ef465d3e404,0,59,59,141,1,threefour,,,,,,,,,,,,,,,,,,,,,,,,,,,,,,,,,,,,,,,,,,,,,,,,,,,,,,,,,,,,,,,,,,,,,,,,,,,,,,,,,,,,,,,,,,,,,,,,,,,,,,,,,,,,,,,,,,,,,,,,,,,,,,,,,,,,,,,,,,,,,,,,,,,,,,,,
,,,,,,6097ec1a8c0b4df21cbb9024,62bbf989ffe1009c36dcb9a3,2022-06-29_09h05.35.792,Colour_Asymmetry_Pilot,2022.1.3,Win32,30.00120005,62bbe60bf3d75ef465d3e404,0,60,60,147,1,twofour,,,,,,,,,,,,,,,,,,,,,,,,,,,,,,,,,,,,,,,,,,,,,,,,,,,,,,,,,,,,,,,,,,,,,,,,,,,,,,,,,,,,,,,,,,,,,,,,,,,,,,,,,,,,,,,,,,,,,,,,,,,,,,,,,,,,,,,,,,,,,,,,,,,,,,,,
,,,,,,6097ec1a8c0b4df21cbb9024,62bbf989ffe1009c36dcb9a3,2022-06-29_09h05.35.792,Colour_Asymmetry_Pilot,2022.1.3,Win32,30.00120005,62bbe60bf3d75ef465d3e404,0,61,61,43,1,twofour,,,,,,,,,,,,,,,,,,,,,,,,,,,,,,,,,,,,,,,,,,,,,,,,,,,,,,,,,,,,,,,,,,,,,,,,,,,,,,,,,,,,,,,,,,,,,,,,,,,,,,,,,,,,,,,,,,,,,,,,,,,,,,,,,,,,,,,,,,,,,,,,,,,,,,,,
,,,,,,6097ec1a8c0b4df21cbb9024,62bbf989ffe1009c36dcb9a3,2022-06-29_09h05.35.792,Colour_Asymmetry_Pilot,2022.1.3,Win32,30.00120005,62bbe60bf3d75ef465d3e404,0,62,62,27,1,twofour,,,,,,,,,,,,,,,,,,,,,,,,,,,,,,,,,,,,,,,,,,,,,,,,,,,,,,,,,,,,,,,,,,,,,,,,,,,,,,,,,,,,,,,,,,,,,,,,,,,,,,,,,,,,,,,,,,,,,,,,,,,,,,,,,,,,,,,,,,,,,,,,,,,,,,,,
,,,,,,6097ec1a8c0b4df21cbb9024,62bbf989ffe1009c36dcb9a3,2022-06-29_09h05.35.792,Colour_Asymmetry_Pilot,2022.1.3,Win32,30.00120005,62bbe60bf3d75ef465d3e404,0,63,63,49,1,onethree,,,,,,,,,,,,,,,,,,,,,,,,,,,,,,,,,,,,,,,,,,,,,,,,,,,,,,,,,,,,,,,,,,,,,,,,,,,,,,,,,,,,,,,,,,,,,,,,,,,,,,,,,,,,,,,,,,,,,,,,,,,,,,,,,,,,,,,,,,,,,,,,,,,,,,,,
,,,,,,6097ec1a8c0b4df21cbb9024,62bbf989ffe1009c36dcb9a3,2022-06-29_09h05.35.792,Colour_Asymmetry_Pilot,2022.1.3,Win32,30.00120005,62bbe60bf3d75ef465d3e404,0,64,64,41,1,onethree,,,,,,,,,,,,,,,,,,,,,,,,,,,,,,,,,,,,,,,,,,,,,,,,,,,,,,,,,,,,,,,,,,,,,,,,,,,,,,,,,,,,,,,,,,,,,,,,,,,,,,,,,,,,,,,,,,,,,,,,,,,,,,,,,,,,,,,,,,,,,,,,,,,,,,,,
,,,,,,6097ec1a8c0b4df21cbb9024,62bbf989ffe1009c36dcb9a3,2022-06-29_09h05.35.792,Colour_Asymmetry_Pilot,2022.1.3,Win32,30.00120005,62bbe60bf3d75ef465d3e404,0,65,65,143,1,fourthree,,,,,,,,,,,,,,,,,,,,,,,,,,,,,,,,,,,,,,,,,,,,,,,,,,,,,,,,,,,,,,,,,,,,,,,,,,,,,,,,,,,,,,,,,,,,,,,,,,,,,,,,,,,,,,,,,,,,,,,,,,,,,,,,,,,,,,,,,,,,,,,,,,,,,,,,
,,,,,,6097ec1a8c0b4df21cbb9024,62bbf989ffe1009c36dcb9a3,2022-06-29_09h05.35.792,Colour_Asymmetry_Pilot,2022.1.3,Win32,30.00120005,62bbe60bf3d75ef465d3e404,0,66,66,156,1,threeone,,,,,,,,,,,,,,,,,,,,,,,,,,,,,,,,,,,,,,,,,,,,,,,,,,,,,,,,,,,,,,,,,,,,,,,,,,,,,,,,,,,,,,,,,,,,,,,,,,,,,,,,,,,,,,,,,,,,,,,,,,,,,,,,,,,,,,,,,,,,,,,,,,,,,,,,
,,,,,,6097ec1a8c0b4df21cbb9024,62bbf989ffe1009c36dcb9a3,2022-06-29_09h05.35.792,Colour_Asymmetry_Pilot,2022.1.3,Win32,30.00120005,62bbe60bf3d75ef465d3e404,0,67,67,50,1,twoone,,,,,,,,,,,,,,,,,,,,,,,,,,,,,,,,,,,,,,,,,,,,,,,,,,,,,,,,,,,,,,,,,,,,,,,,,,,,,,,,,,,,,,,,,,,,,,,,,,,,,,,,,,,,,,,,,,,,,,,,,,,,,,,,,,,,,,,,,,,,,,,,,,,,,,,,
,,,,,,6097ec1a8c0b4df21cbb9024,62bbf989ffe1009c36dcb9a3,2022-06-29_09h05.35.792,Colour_Asymmetry_Pilot,2022.1.3,Win32,30.00120005,62bbe60bf3d75ef465d3e404,0,68,68,4,1,threeone,,,,,,,,,,,,,,,,,,,,,,,,,,,,,,,,,,,,,,,,,,,,,,,,,,,,,,,,,,,,,,,,,,,,,,,,,,,,,,,,,,,,,,,,,,,,,,,,,,,,,,,,,,,,,,,,,,,,,,,,,,,,,,,,,,,,,,,,,,,,,,,,,,,,,,,,
,,,,,,6097ec1a8c0b4df21cbb9024,62bbf989ffe1009c36dcb9a3,2022-06-29_09h05.35.792,Colour_Asymmetry_Pilot,2022.1.3,Win32,30.00120005,62bbe60bf3d75ef465d3e404,0,69,69,61,1,threefour,,,,,,,,,,,,,,,,,,,,,,,,,,,,,,,,,,,,,,,,,,,,,,,,,,,,,,,,,,,,,,,,,,,,,,,,,,,,,,,,,,,,,,,,,,,,,,,,,,,,,,,,,,,,,,,,,,,,,,,,,,,,,,,,,,,,,,,,,,,,,,,,,,,,,,,,
,,,,,,6097ec1a8c0b4df21cbb9024,62bbf989ffe1009c36dcb9a3,2022-06-29_09h05.35.792,Colour_Asymmetry_Pilot,2022.1.3,Win32,30.00120005,62bbe60bf3d75ef465d3e404,0,70,70,133,1,threefour,,,,,,,,,,,,,,,,,,,,,,,,,,,,,,,,,,,,,,,,,,,,,,,,,,,,,,,,,,,,,,,,,,,,,,,,,,,,,,,,,,,,,,,,,,,,,,,,,,,,,,,,,,,,,,,,,,,,,,,,,,,,,,,,,,,,,,,,,,,,,,,,,,,,,,,,
,,,,,,6097ec1a8c0b4df21cbb9024,62bbf989ffe1009c36dcb9a3,2022-06-29_09h05.35.792,Colour_Asymmetry_Pilot,2022.1.3,Win32,30.00120005,62bbe60bf3d75ef465d3e404,0,71,71,161,1,onethree,,,,,,,,,,,,,,,,,,,,,,,,,,,,,,,,,,,,,,,,,,,,,,,,,,,,,,,,,,,,,,,,,,,,,,,,,,,,,,,,,,,,,,,,,,,,,,,,,,,,,,,,,,,,,,,,,,,,,,,,,,,,,,,,,,,,,,,,,,,,,,,,,,,,,,,,
,,,,,,6097ec1a8c0b4df21cbb9024,62bbf989ffe1009c36dcb9a3,2022-06-29_09h05.35.792,Colour_Asymmetry_Pilot,2022.1.3,Win32,30.00120005,62bbe60bf3d75ef465d3e404,0,72,72,113,1,onethree,,,,,,,,,,,,,,,,,,,,,,,,,,,,,,,,,,,,,,,,,,,,,,,,,,,,,,,,,,,,,,,,,,,,,,,,,,,,,,,,,,,,,,,,,,,,,,,,,,,,,,,,,,,,,,,,,,,,,,,,,,,,,,,,,,,,,,,,,,,,,,,,,,,,,,,,
,,,,,,6097ec1a8c0b4df21cbb9024,62bbf989ffe1009c36dcb9a3,2022-06-29_09h05.35.792,Colour_Asymmetry_Pilot,2022.1.3,Win32,30.00120005,62bbe60bf3d75ef465d3e404,0,73,73,140,1,threeone,,,,,,,,,,,,,,,,,,,,,,,,,,,,,,,,,,,,,,,,,,,,,,,,,,,,,,,,,,,,,,,,,,,,,,,,,,,,,,,,,,,,,,,,,,,,,,,,,,,,,,,,,,,,,,,,,,,,,,,,,,,,,,,,,,,,,,,,,,,,,,,,,,,,,,,,
,,,,,,6097ec1a8c0b4df21cbb9024,62bbf989ffe1009c36dcb9a3,2022-06-29_09h05.35.792,Colour_Asymmetry_Pilot,2022.1.3,Win32,30.00120005,62bbe60bf3d75ef465d3e404,0,74,74,7,1,fourthree,,,,,,,,,,,,,,,,,,,,,,,,,,,,,,,,,,,,,,,,,,,,,,,,,,,,,,,,,,,,,,,,,,,,,,,,,,,,,,,,,,,,,,,,,,,,,,,,,,,,,,,,,,,,,,,,,,,,,,,,,,,,,,,,,,,,,,,,,,,,,,,,,,,,,,,,
,,,,,,6097ec1a8c0b4df21cbb9024,62bbf989ffe1009c36dcb9a3,2022-06-29_09h05.35.792,Colour_Asymmetry_Pilot,2022.1.3,Win32,30.00120005,62bbe60bf3d75ef465d3e404,0,75,75,52,1,threeone,,,,,,,,,,,,,,,,,,,,,,,,,,,,,,,,,,,,,,,,,,,,,,,,,,,,,,,,,,,,,,,,,,,,,,,,,,,,,,,,,,,,,,,,,,,,,,,,,,,,,,,,,,,,,,,,,,,,,,,,,,,,,,,,,,,,,,,,,,,,,,,,,,,,,,,,
,,,,,,6097ec1a8c0b4df21cbb9024,62bbf989ffe1009c36dcb9a3,2022-06-29_09h05.35.792,Colour_Asymmetry_Pilot,2022.1.3,Win32,30.00120005,62bbe60bf3d75ef465d3e404,0,76,76,16,1,onetwo,,,,,,,,,,,,,,,,,,,,,,,,,,,,,,,,,,,,,,,,,,,,,,,,,,,,,,,,,,,,,,,,,,,,,,,,,,,,,,,,,,,,,,,,,,,,,,,,,,,,,,,,,,,,,,,,,,,,,,,,,,,,,,,,,,,,,,,,,,,,,,,,,,,,,,,,
,,,,,,6097ec1a8c0b4df21cbb9024,62bbf989ffe1009c36dcb9a3,2022-06-29_09h05.35.792,Colour_Asymmetry_Pilot,2022.1.3,Win32,30.00120005,62bbe60bf3d75ef465d3e404,0,77,77,128,1,onetwo,,,,,,,,,,,,,,,,,,,,,,,,,,,,,,,,,,,,,,,,,,,,,,,,,,,,,,,,,,,,,,,,,,,,,,,,,,,,,,,,,,,,,,,,,,,,,,,,,,,,,,,,,,,,,,,,,,,,,,,,,,,,,,,,,,,,,,,,,,,,,,,,,,,,,,,,
,,,,,,6097ec1a8c0b4df21cbb9024,62bbf989ffe1009c36dcb9a3,2022-06-29_09h05.35.792,Colour_Asymmetry_Pilot,2022.1.3,Win32,30.00120005,62bbe60bf3d75ef465d3e404,0,78,78,110,1,fourtwo,,,,,,,,,,,,,,,,,,,,,,,,,,,,,,,,,,,,,,,,,,,,,,,,,,,,,,,,,,,,,,,,,,,,,,,,,,,,,,,,,,,,,,,,,,,,,,,,,,,,,,,,,,,,,,,,,,,,,,,,,,,,,,,,,,,,,,,,,,,,,,,,,,,,,,,,
,,,,,,6097ec1a8c0b4df21cbb9024,62bbf989ffe1009c36dcb9a3,2022-06-29_09h05.35.792,Colour_Asymmetry_Pilot,2022.1.3,Win32,30.00120005,62bbe60bf3d75ef465d3e404,0,79,79,123,1,twofour,,,,,,,,,,,,,,,,,,,,,,,,,,,,,,,,,,,,,,,,,,,,,,,,,,,,,,,,,,,,,,,,,,,,,,,,,,,,,,,,,,,,,,,,,,,,,,,,,,,,,,,,,,,,,,,,,,,,,,,,,,,,,,,,,,,,,,,,,,,,,,,,,,,,,,,,
,,,,,,6097ec1a8c0b4df21cbb9024,62bbf989ffe1009c36dcb9a3,2022-06-29_09h05.35.792,Colour_Asymmetry_Pilot,2022.1.3,Win32,30.00120005,62bbe60bf3d75ef465d3e404,0,80,80,142,1,fourtwo,,,,,,,,,,,,,,,,,,,,,,,,,,,,,,,,,,,,,,,,,,,,,,,,,,,,,,,,,,,,,,,,,,,,,,,,,,,,,,,,,,,,,,,,,,,,,,,,,,,,,,,,,,,,,,,,,,,,,,,,,,,,,,,,,,,,,,,,,,,,,,,,,,,,,,,,
,,,,,,6097ec1a8c0b4df21cbb9024,62bbf989ffe1009c36dcb9a3,2022-06-29_09h05.35.792,Colour_Asymmetry_Pilot,2022.1.3,Win32,30.00120005,62bbe60bf3d75ef465d3e404,0,81,81,70,1,fourtwo,,,,,,,,,,,,,,,,,,,,,,,,,,,,,,,,,,,,,,,,,,,,,,,,,,,,,,,,,,,,,,,,,,,,,,,,,,,,,,,,,,,,,,,,,,,,,,,,,,,,,,,,,,,,,,,,,,,,,,,,,,,,,,,,,,,,,,,,,,,,,,,,,,,,,,,,
,,,,,,6097ec1a8c0b4df21cbb9024,62bbf989ffe1009c36dcb9a3,2022-06-29_09h05.35.792,Colour_Asymmetry_Pilot,2022.1.3,Win32,30.00120005,62bbe60bf3d75ef465d3e404,0,82,82,72,1,onetwo,,,,,,,,,,,,,,,,,,,,,,,,,,,,,,,,,,,,,,,,,,,,,,,,,,,,,,,,,,,,,,,,,,,,,,,,,,,,,,,,,,,,,,,,,,,,,,,,,,,,,,,,,,,,,,,,,,,,,,,,,,,,,,,,,,,,,,,,,,,,,,,,,,,,,,,,
,,,,,,6097ec1a8c0b4df21cbb9024,62bbf989ffe1009c36dcb9a3,2022-06-29_09h05.35.792,Colour_Asymmetry_Pilot,2022.1.3,Win32,30.00120005,62bbe60bf3d75ef465d3e404,0,83,83,89,1,onethree,,,,,,,,,,,,,,,,,,,,,,,,,,,,,,,,,,,,,,,,,,,,,,,,,,,,,,,,,,,,,,,,,,,,,,,,,,,,,,,,,,,,,,,,,,,,,,,,,,,,,,,,,,,,,,,,,,,,,,,,,,,,,,,,,,,,,,,,,,,,,,,,,,,,,,,,
,,,,,,6097ec1a8c0b4df21cbb9024,62bbf989ffe1009c36dcb9a3,2022-06-29_09h05.35.792,Colour_Asymmetry_Pilot,2022.1.3,Win32,30.00120005,62bbe60bf3d75ef465d3e404,0,84,84,129,1,onethree,,,,,,,,,,,,,,,,,,,,,,,,,,,,,,,,,,,,,,,,,,,,,,,,,,,,,,,,,,,,,,,,,,,,,,,,,,,,,,,,,,,,,,,,,,,,,,,,,,,,,,,,,,,,,,,,,,,,,,,,,,,,,,,,,,,,,,,,,,,,,,,,,,,,,,,,
,,,,,,6097ec1a8c0b4df21cbb9024,62bbf989ffe1009c36dcb9a3,2022-06-29_09h05.35.792,Colour_Asymmetry_Pilot,2022.1.3,Win32,30.00120005,62bbe60bf3d75ef465d3e404,0,85,85,65,1,onethree,,,,,,,,,,,,,,,,,,,,,,,,,,,,,,,,,,,,,,,,,,,,,,,,,,,,,,,,,,,,,,,,,,,,,,,,,,,,,,,,,,,,,,,,,,,,,,,,,,,,,,,,,,,,,,,,,,,,,,,,,,,,,,,,,,,,,,,,,,,,,,,,,,,,,,,,
,,,,,,6097ec1a8c0b4df21cbb9024,62bbf989ffe1009c36dcb9a3,2022-06-29_09h05.35.792,Colour_Asymmetry_Pilot,2022.1.3,Win32,30.00120005,62bbe60bf3d75ef465d3e404,0,86,86,30,1,fourtwo,,,,,,,,,,,,,,,,,,,,,,,,,,,,,,,,,,,,,,,,,,,,,,,,,,,,,,,,,,,,,,,,,,,,,,,,,,,,,,,,,,,,,,,,,,,,,,,,,,,,,,,,,,,,,,,,,,,,,,,,,,,,,,,,,,,,,,,,,,,,,,,,,,,,,,,,
,,,,,,6097ec1a8c0b4df21cbb9024,62bbf989ffe1009c36dcb9a3,2022-06-29_09h05.35.792,Colour_Asymmetry_Pilot,2022.1.3,Win32,30.00120005,62bbe60bf3d75ef465d3e404,0,87,87,59,1,twofour,,,,,,,,,,,,,,,,,,,,,,,,,,,,,,,,,,,,,,,,,,,,,,,,,,,,,,,,,,,,,,,,,,,,,,,,,,,,,,,,,,,,,,,,,,,,,,,,,,,,,,,,,,,,,,,,,,,,,,,,,,,,,,,,,,,,,,,,,,,,,,,,,,,,,,,,
,,,,,,6097ec1a8c0b4df21cbb9024,62bbf989ffe1009c36dcb9a3,2022-06-29_09h05.35.792,Colour_Asymmetry_Pilot,2022.1.3,Win32,30.00120005,62bbe60bf3d75ef465d3e404,0,88,88,51,1,twofour,,,,,,,,,,,,,,,,,,,,,,,,,,,,,,,,,,,,,,,,,,,,,,,,,,,,,,,,,,,,,,,,,,,,,,,,,,,,,,,,,,,,,,,,,,,,,,,,,,,,,,,,,,,,,,,,,,,,,,,,,,,,,,,,,,,,,,,,,,,,,,,,,,,,,,,,
,,,,,,6097ec1a8c0b4df21cbb9024,62bbf989ffe1009c36dcb9a3,2022-06-29_09h05.35.792,Colour_Asymmetry_Pilot,2022.1.3,Win32,30.00120005,62bbe60bf3d75ef465d3e404,0,89,89,109,1,threefour,,,,,,,,,,,,,,,,,,,,,,,,,,,,,,,,,,,,,,,,,,,,,,,,,,,,,,,,,,,,,,,,,,,,,,,,,,,,,,,,,,,,,,,,,,,,,,,,,,,,,,,,,,,,,,,,,,,,,,,,,,,,,,,,,,,,,,,,,,,,,,,,,,,,,,,,
,,,,,,6097ec1a8c0b4df21cbb9024,62bbf989ffe1009c36dcb9a3,2022-06-29_09h05.35.792,Colour_Asymmetry_Pilot,2022.1.3,Win32,30.00120005,62bbe60bf3d75ef465d3e404,0,90,90,102,1,fourtwo,,,,,,,,,,,,,,,,,,,,,,,,,,,,,,,,,,,,,,,,,,,,,,,,,,,,,,,,,,,,,,,,,,,,,,,,,,,,,,,,,,,,,,,,,,,,,,,,,,,,,,,,,,,,,,,,,,,,,,,,,,,,,,,,,,,,,,,,,,,,,,,,,,,,,,,,
,,,,,,6097ec1a8c0b4df21cbb9024,62bbf989ffe1009c36dcb9a3,2022-06-29_09h05.35.792,Colour_Asymmetry_Pilot,2022.1.3,Win32,30.00120005,62bbe60bf3d75ef465d3e404,0,91,91,20,1,threeone,,,,,,,,,,,,,,,,,,,,,,,,,,,,,,,,,,,,,,,,,,,,,,,,,,,,,,,,,,,,,,,,,,,,,,,,,,,,,,,,,,,,,,,,,,,,,,,,,,,,,,,,,,,,,,,,,,,,,,,,,,,,,,,,,,,,,,,,,,,,,,,,,,,,,,,,
,,,,,,6097ec1a8c0b4df21cbb9024,62bbf989ffe1009c36dcb9a3,2022-06-29_09h05.35.792,Colour_Asymmetry_Pilot,2022.1.3,Win32,30.00120005,62bbe60bf3d75ef465d3e404,0,92,92,87,1,fourthree,,,,,,,,,,,,,,,,,,,,,,,,,,,,,,,,,,,,,,,,,,,,,,,,,,,,,,,,,,,,,,,,,,,,,,,,,,,,,,,,,,,,,,,,,,,,,,,,,,,,,,,,,,,,,,,,,,,,,,,,,,,,,,,,,,,,,,,,,,,,,,,,,,,,,,,,
,,,,,,6097ec1a8c0b4df21cbb9024,62bbf989ffe1009c36dcb9a3,2022-06-29_09h05.35.792,Colour_Asymmetry_Pilot,2022.1.3,Win32,30.00120005,62bbe60bf3d75ef465d3e404,0,93,93,97,1,onethree,,,,,,,,,,,,,,,,,,,,,,,,,,,,,,,,,,,,,,,,,,,,,,,,,,,,,,,,,,,,,,,,,,,,,,,,,,,,,,,,,,,,,,,,,,,,,,,,,,,,,,,,,,,,,,,,,,,,,,,,,,,,,,,,,,,,,,,,,,,,,,,,,,,,,,,,
,,,,,,6097ec1a8c0b4df21cbb9024,62bbf989ffe1009c36dcb9a3,2022-06-29_09h05.35.792,Colour_Asymmetry_Pilot,2022.1.3,Win32,30.00120005,62bbe60bf3d75ef465d3e404,0,94,94,82,1,twoone,,,,,,,,,,,,,,,,,,,,,,,,,,,,,,,,,,,,,,,,,,,,,,,,,,,,,,,,,,,,,,,,,,,,,,,,,,,,,,,,,,,,,,,,,,,,,,,,,,,,,,,,,,,,,,,,,,,,,,,,,,,,,,,,,,,,,,,,,,,,,,,,,,,,,,,,
,,,,,,6097ec1a8c0b4df21cbb9024,62bbf989ffe1009c36dcb9a3,2022-06-29_09h05.35.792,Colour_Asymmetry_Pilot,2022.1.3,Win32,30.00120005,62bbe60bf3d75ef465d3e404,0,95,95,34,1,twoone,,,,,,,,,,,,,,,,,,,,,,,,,,,,,,,,,,,,,,,,,,,,,,,,,,,,,,,,,,,,,,,,,,,,,,,,,,,,,,,,,,,,,,,,,,,,,,,,,,,,,,,,,,,,,,,,,,,,,,,,,,,,,,,,,,,,,,,,,,,,,,,,,,,,,,,,
,,,,,,6097ec1a8c0b4df21cbb9024,62bbf989ffe1009c36dcb9a3,2022-06-29_09h05.35.792,Colour_Asymmetry_Pilot,2022.1.3,Win32,30.00120005,62bbe60bf3d75ef465d3e404,0,96,96,131,1,twofour,,,,,,,,,,,,,,,,,,,,,,,,,,,,,,,,,,,,,,,,,,,,,,,,,,,,,,,,,,,,,,,,,,,,,,,,,,,,,,,,,,,,,,,,,,,,,,,,,,,,,,,,,,,,,,,,,,,,,,,,,,,,,,,,,,,,,,,,,,,,,,,,,,,,,,,,
,,,,,,6097ec1a8c0b4df21cbb9024,62bbf989ffe1009c36dcb9a3,2022-06-29_09h05.35.792,Colour_Asymmetry_Pilot,2022.1.3,Win32,30.00120005,62bbe60bf3d75ef465d3e404,0,97,97,134,1,fourtwo,,,,,,,,,,,,,,,,,,,,,,,,,,,,,,,,,,,,,,,,,,,,,,,,,,,,,,,,,,,,,,,,,,,,,,,,,,,,,,,,,,,,,,,,,,,,,,,,,,,,,,,,,,,,,,,,,,,,,,,,,,,,,,,,,,,,,,,,,,,,,,,,,,,,,,,,
,,,,,,6097ec1a8c0b4df21cbb9024,62bbf989ffe1009c36dcb9a3,2022-06-29_09h05.35.792,Colour_Asymmetry_Pilot,2022.1.3,Win32,30.00120005,62bbe60bf3d75ef465d3e404,0,98,98,40,1,onetwo,,,,,,,,,,,,,,,,,,,,,,,,,,,,,,,,,,,,,,,,,,,,,,,,,,,,,,,,,,,,,,,,,,,,,,,,,,,,,,,,,,,,,,,,,,,,,,,,,,,,,,,,,,,,,,,,,,,,,,,,,,,,,,,,,,,,,,,,,,,,,,,,,,,,,,,,
,,,,,,6097ec1a8c0b4df21cbb9024,62bbf989ffe1009c36dcb9a3,2022-06-29_09h05.35.792,Colour_Asymmetry_Pilot,2022.1.3,Win32,30.00120005,62bbe60bf3d75ef465d3e404,0,99,99,148,1,threeone,,,,,,,,,,,,,,,,,,,,,,,,,,,,,,,,,,,,,,,,,,,,,,,,,,,,,,,,,,,,,,,,,,,,,,,,,,,,,,,,,,,,,,,,,,,,,,,,,,,,,,,,,,,,,,,,,,,,,,,,,,,,,,,,,,,,,,,,,,,,,,,,,,,,,,,,
,,,,,,6097ec1a8c0b4df21cbb9024,62bbf989ffe1009c36dcb9a3,2022-06-29_09h05.35.792,Colour_Asymmetry_Pilot,2022.1.3,Win32,30.00120005,62bbe60bf3d75ef465d3e404,0,100,100,1,1,onethree,,,,,,,,,,,,,,,,,,,,,,,,,,,,,,,,,,,,,,,,,,,,,,,,,,,,,,,,,,,,,,,,,,,,,,,,,,,,,,,,,,,,,,,,,,,,,,,,,,,,,,,,,,,,,,,,,,,,,,,,,,,,,,,,,,,,,,,,,,,,,,,,,,,,,,,,
,,,,,,6097ec1a8c0b4df21cbb9024,62bbf989ffe1009c36dcb9a3,2022-06-29_09h05.35.792,Colour_Asymmetry_Pilot,2022.1.3,Win32,30.00120005,62bbe60bf3d75ef465d3e404,0,101,101,13,1,threefour,,,,,,,,,,,,,,,,,,,,,,,,,,,,,,,,,,,,,,,,,,,,,,,,,,,,,,,,,,,,,,,,,,,,,,,,,,,,,,,,,,,,,,,,,,,,,,,,,,,,,,,,,,,,,,,,,,,,,,,,,,,,,,,,,,,,,,,,,,,,,,,,,,,,,,,,
,,,,,,6097ec1a8c0b4df21cbb9024,62bbf989ffe1009c36dcb9a3,2022-06-29_09h05.35.792,Colour_Asymmetry_Pilot,2022.1.3,Win32,30.00120005,62bbe60bf3d75ef465d3e404,0,102,102,11,1,twofour,,,,,,,,,,,,,,,,,,,,,,,,,,,,,,,,,,,,,,,,,,,,,,,,,,,,,,,,,,,,,,,,,,,,,,,,,,,,,,,,,,,,,,,,,,,,,,,,,,,,,,,,,,,,,,,,,,,,,,,,,,,,,,,,,,,,,,,,,,,,,,,,,,,,,,,,
,,,,,,6097ec1a8c0b4df21cbb9024,62bbf989ffe1009c36dcb9a3,2022-06-29_09h05.35.792,Colour_Asymmetry_Pilot,2022.1.3,Win32,30.00120005,62bbe60bf3d75ef465d3e404,0,103,103,18,1,twoone,,,,,,,,,,,,,,,,,,,,,,,,,,,,,,,,,,,,,,,,,,,,,,,,,,,,,,,,,,,,,,,,,,,,,,,,,,,,,,,,,,,,,,,,,,,,,,,,,,,,,,,,,,,,,,,,,,,,,,,,,,,,,,,,,,,,,,,,,,,,,,,,,,,,,,,,
,,,,,,6097ec1a8c0b4df21cbb9024,62bbf989ffe1009c36dcb9a3,2022-06-29_09h05.35.792,Colour_Asymmetry_Pilot,2022.1.3,Win32,30.00120005,62bbe60bf3d75ef465d3e404,0,104,104,36,1,threeone,,,,,,,,,,,,,,,,,,,,,,,,,,,,,,,,,,,,,,,,,,,,,,,,,,,,,,,,,,,,,,,,,,,,,,,,,,,,,,,,,,,,,,,,,,,,,,,,,,,,,,,,,,,,,,,,,,,,,,,,,,,,,,,,,,,,,,,,,,,,,,,,,,,,,,,,
,,,,,,6097ec1a8c0b4df21cbb9024,62bbf989ffe1009c36dcb9a3,2022-06-29_09h05.35.792,Colour_Asymmetry_Pilot,2022.1.3,Win32,30.00120005,62bbe60bf3d75ef465d3e404,0,105,105,76,1,threeone,,,,,,,,,,,,,,,,,,,,,,,,,,,,,,,,,,,,,,,,,,,,,,,,,,,,,,,,,,,,,,,,,,,,,,,,,,,,,,,,,,,,,,,,,,,,,,,,,,,,,,,,,,,,,,,,,,,,,,,,,,,,,,,,,,,,,,,,,,,,,,,,,,,,,,,,
,,,,,,6097ec1a8c0b4df21cbb9024,62bbf989ffe1009c36dcb9a3,2022-06-29_09h05.35.792,Colour_Asymmetry_Pilot,2022.1.3,Win32,30.00120005,62bbe60bf3d75ef465d3e404,0,106,106,35,1,twofour,,,,,,,,,,,,,,,,,,,,,,,,,,,,,,,,,,,,,,,,,,,,,,,,,,,,,,,,,,,,,,,,,,,,,,,,,,,,,,,,,,,,,,,,,,,,,,,,,,,,,,,,,,,,,,,,,,,,,,,,,,,,,,,,,,,,,,,,,,,,,,,,,,,,,,,,
,,,,,,6097ec1a8c0b4df21cbb9024,62bbf989ffe1009c36dcb9a3,2022-06-29_09h05.35.792,Colour_Asymmetry_Pilot,2022.1.3,Win32,30.00120005,62bbe60bf3d75ef465d3e404,0,107,107,8,1,onetwo,,,,,,,,,,,,,,,,,,,,,,,,,,,,,,,,,,,,,,,,,,,,,,,,,,,,,,,,,,,,,,,,,,,,,,,,,,,,,,,,,,,,,,,,,,,,,,,,,,,,,,,,,,,,,,,,,,,,,,,,,,,,,,,,,,,,,,,,,,,,,,,,,,,,,,,,
,,,,,,6097ec1a8c0b4df21cbb9024,62bbf989ffe1009c36dcb9a3,2022-06-29_09h05.35.792,Colour_Asymmetry_Pilot,2022.1.3,Win32,30.00120005,62bbe60bf3d75ef465d3e404,0,108,108,149,1,threefour,,,,,,,,,,,,,,,,,,,,,,,,,,,,,,,,,,,,,,,,,,,,,,,,,,,,,,,,,,,,,,,,,,,,,,,,,,,,,,,,,,,,,,,,,,,,,,,,,,,,,,,,,,,,,,,,,,,,,,,,,,,,,,,,,,,,,,,,,,,,,,,,,,,,,,,,
,,,,,,6097ec1a8c0b4df21cbb9024,62bbf989ffe1009c36dcb9a3,2022-06-29_09h05.35.792,Colour_Asymmetry_Pilot,2022.1.3,Win32,30.00120005,62bbe60bf3d75ef465d3e404,0,109,109,105,1,onethree,,,,,,,,,,,,,,,,,,,,,,,,,,,,,,,,,,,,,,,,,,,,,,,,,,,,,,,,,,,,,,,,,,,,,,,,,,,,,,,,,,,,,,,,,,,,,,,,,,,,,,,,,,,,,,,,,,,,,,,,,,,,,,,,,,,,,,,,,,,,,,,,,,,,,,,,
,,,,,,6097ec1a8c0b4df21cbb9024,62bbf989ffe1009c36dcb9a3,2022-06-29_09h05.35.792,Colour_Asymmetry_Pilot,2022.1.3,Win32,30.00120005,62bbe60bf3d75ef465d3e404,0,110,110,56,1,onetwo,,,,,,,,,,,,,,,,,,,,,,,,,,,,,,,,,,,,,,,,,,,,,,,,,,,,,,,,,,,,,,,,,,,,,,,,,,,,,,,,,,,,,,,,,,,,,,,,,,,,,,,,,,,,,,,,,,,,,,,,,,,,,,,,,,,,,,,,,,,,,,,,,,,,,,,,
,,,,,,6097ec1a8c0b4df21cbb9024,62bbf989ffe1009c36dcb9a3,2022-06-29_09h05.35.792,Colour_Asymmetry_Pilot,2022.1.3,Win32,30.00120005,62bbe60bf3d75ef465d3e404,0,111,111,107,1,twofour,,,,,,,,,,,,,,,,,,,,,,,,,,,,,,,,,,,,,,,,,,,,,,,,,,,,,,,,,,,,,,,,,,,,,,,,,,,,,,,,,,,,,,,,,,,,,,,,,,,,,,,,,,,,,,,,,,,,,,,,,,,,,,,,,,,,,,,,,,,,,,,,,,,,,,,,
,,,,,,6097ec1a8c0b4df21cbb9024,62bbf989ffe1009c36dcb9a3,2022-06-29_09h05.35.792,Colour_Asymmetry_Pilot,2022.1.3,Win32,30.00120005,62bbe60bf3d75ef465d3e404,0,112,112,78,1,fourtwo,,,,,,,,,,,,,,,,,,,,,,,,,,,,,,,,,,,,,,,,,,,,,,,,,,,,,,,,,,,,,,,,,,,,,,,,,,,,,,,,,,,,,,,,,,,,,,,,,,,,,,,,,,,,,,,,,,,,,,,,,,,,,,,,,,,,,,,,,,,,,,,,,,,,,,,,
,,,,,,6097ec1a8c0b4df21cbb9024,62bbf989ffe1009c36dcb9a3,2022-06-29_09h05.35.792,Colour_Asymmetry_Pilot,2022.1.3,Win32,30.00120005,62bbe60bf3d75ef465d3e404,0,113,113,28,1,threeone,,,,,,,,,,,,,,,,,,,,,,,,,,,,,,,,,,,,,,,,,,,,,,,,,,,,,,,,,,,,,,,,,,,,,,,,,,,,,,,,,,,,,,,,,,,,,,,,,,,,,,,,,,,,,,,,,,,,,,,,,,,,,,,,,,,,,,,,,,,,,,,,,,,,,,,,
,,,,,,6097ec1a8c0b4df21cbb9024,62bbf989ffe1009c36dcb9a3,2022-06-29_09h05.35.792,Colour_Asymmetry_Pilot,2022.1.3,Win32,30.00120005,62bbe60bf3d75ef465d3e404,0,114,114,152,1,onetwo,,,,,,,,,,,,,,,,,,,,,,,,,,,,,,,,,,,,,,,,,,,,,,,,,,,,,,,,,,,,,,,,,,,,,,,,,,,,,,,,,,,,,,,,,,,,,,,,,,,,,,,,,,,,,,,,,,,,,,,,,,,,,,,,,,,,,,,,,,,,,,,,,,,,,,,,
,,,,,,6097ec1a8c0b4df21cbb9024,62bbf989ffe1009c36dcb9a3,2022-06-29_09h05.35.792,Colour_Asymmetry_Pilot,2022.1.3,Win32,30.00120005,62bbe60bf3d75ef465d3e404,0,115,115,21,1,threefour,,,,,,,,,,,,,,,,,,,,,,,,,,,,,,,,,,,,,,,,,,,,,,,,,,,,,,,,,,,,,,,,,,,,,,,,,,,,,,,,,,,,,,,,,,,,,,,,,,,,,,,,,,,,,,,,,,,,,,,,,,,,,,,,,,,,,,,,,,,,,,,,,,,,,,,,
,,,,,,6097ec1a8c0b4df21cbb9024,62bbf989ffe1009c36dcb9a3,2022-06-29_09h05.35.792,Colour_Asymmetry_Pilot,2022.1.3,Win32,30.00120005,62bbe60bf3d75ef465d3e404,0,116,116,160,1,onetwo,,,,,,,,,,,,,,,,,,,,,,,,,,,,,,,,,,,,,,,,,,,,,,,,,,,,,,,,,,,,,,,,,,,,,,,,,,,,,,,,,,,,,,,,,,,,,,,,,,,,,,,,,,,,,,,,,,,,,,,,,,,,,,,,,,,,,,,,,,,,,,,,,,,,,,,,
,,,,,,6097ec1a8c0b4df21cbb9024,62bbf989ffe1009c36dcb9a3,2022-06-29_09h05.35.792,Colour_Asymmetry_Pilot,2022.1.3,Win32,30.00120005,62bbe60bf3d75ef465d3e404,0,117,117,64,1,onetwo,,,,,,,,,,,,,,,,,,,,,,,,,,,,,,,,,,,,,,,,,,,,,,,,,,,,,,,,,,,,,,,,,,,,,,,,,,,,,,,,,,,,,,,,,,,,,,,,,,,,,,,,,,,,,,,,,,,,,,,,,,,,,,,,,,,,,,,,,,,,,,,,,,,,,,,,
,,,,,,6097ec1a8c0b4df21cbb9024,62bbf989ffe1009c36dcb9a3,2022-06-29_09h05.35.792,Colour_Asymmetry_Pilot,2022.1.3,Win32,30.00120005,62bbe60bf3d75ef465d3e404,0,118,118,138,1,twoone,,,,,,,,,,,,,,,,,,,,,,,,,,,,,,,,,,,,,,,,,,,,,,,,,,,,,,,,,,,,,,,,,,,,,,,,,,,,,,,,,,,,,,,,,,,,,,,,,,,,,,,,,,,,,,,,,,,,,,,,,,,,,,,,,,,,,,,,,,,,,,,,,,,,,,,,
,,,,,,6097ec1a8c0b4df21cbb9024,62bbf989ffe1009c36dcb9a3,2022-06-29_09h05.35.792,Colour_Asymmetry_Pilot,2022.1.3,Win32,30.00120005,62bbe60bf3d75ef465d3e404,0,119,119,106,1,twoone,,,,,,,,,,,,,,,,,,,,,,,,,,,,,,,,,,,,,,,,,,,,,,,,,,,,,,,,,,,,,,,,,,,,,,,,,,,,,,,,,,,,,,,,,,,,,,,,,,,,,,,,,,,,,,,,,,,,,,,,,,,,,,,,,,,,,,,,,,,,,,,,,,,,,,,,
,,,,,,6097ec1a8c0b4df21cbb9024,62bbf989ffe1009c36dcb9a3,2022-06-29_09h05.35.792,Colour_Asymmetry_Pilot,2022.1.3,Win32,30.00120005,62bbe60bf3d75ef465d3e404,0,120,120,69,1,threefour,,,,,,,,,,,,,,,,,,,,,,,,,,,,,,,,,,,,,,,,,,,,,,,,,,,,,,,,,,,,,,,,,,,,,,,,,,,,,,,,,,,,,,,,,,,,,,,,,,,,,,,,,,,,,,,,,,,,,,,,,,,,,,,,,,,,,,,,,,,,,,,,,,,,,,,,
,,,,,,6097ec1a8c0b4df21cbb9024,62bbf989ffe1009c36dcb9a3,2022-06-29_09h05.35.792,Colour_Asymmetry_Pilot,2022.1.3,Win32,30.00120005,62bbe60bf3d75ef465d3e404,0,121,121,86,1,fourtwo,,,,,,,,,,,,,,,,,,,,,,,,,,,,,,,,,,,,,,,,,,,,,,,,,,,,,,,,,,,,,,,,,,,,,,,,,,,,,,,,,,,,,,,,,,,,,,,,,,,,,,,,,,,,,,,,,,,,,,,,,,,,,,,,,,,,,,,,,,,,,,,,,,,,,,,,
,,,,,,6097ec1a8c0b4df21cbb9024,62bbf989ffe1009c36dcb9a3,2022-06-29_09h05.35.792,Colour_Asymmetry_Pilot,2022.1.3,Win32,30.00120005,62bbe60bf3d75ef465d3e404,0,122,122,150,1,fourtwo,,,,,,,,,,,,,,,,,,,,,,,,,,,,,,,,,,,,,,,,,,,,,,,,,,,,,,,,,,,,,,,,,,,,,,,,,,,,,,,,,,,,,,,,,,,,,,,,,,,,,,,,,,,,,,,,,,,,,,,,,,,,,,,,,,,,,,,,,,,,,,,,,,,,,,,,
,,,,,,6097ec1a8c0b4df21cbb9024,62bbf989ffe1009c36dcb9a3,2022-06-29_09h05.35.792,Colour_Asymmetry_Pilot,2022.1.3,Win32,30.00120005,62bbe60bf3d75ef465d3e404,0,123,123,15,1,fourthree,,,,,,,,,,,,,,,,,,,,,,,,,,,,,,,,,,,,,,,,,,,,,,,,,,,,,,,,,,,,,,,,,,,,,,,,,,,,,,,,,,,,,,,,,,,,,,,,,,,,,,,,,,,,,,,,,,,,,,,,,,,,,,,,,,,,,,,,,,,,,,,,,,,,,,,,
,,,,,,6097ec1a8c0b4df21cbb9024,62bbf989ffe1009c36dcb9a3,2022-06-29_09h05.35.792,Colour_Asymmetry_Pilot,2022.1.3,Win32,30.00120005,62bbe60bf3d75ef465d3e404,0,124,124,81,1,onethree,,,,,,,,,,,,,,,,,,,,,,,,,,,,,,,,,,,,,,,,,,,,,,,,,,,,,,,,,,,,,,,,,,,,,,,,,,,,,,,,,,,,,,,,,,,,,,,,,,,,,,,,,,,,,,,,,,,,,,,,,,,,,,,,,,,,,,,,,,,,,,,,,,,,,,,,
,,,,,,6097ec1a8c0b4df21cbb9024,62bbf989ffe1009c36dcb9a3,2022-06-29_09h05.35.792,Colour_Asymmetry_Pilot,2022.1.3,Win32,30.00120005,62bbe60bf3d75ef465d3e404,0,125,125,95,1,fourthree,,,,,,,,,,,,,,,,,,,,,,,,,,,,,,,,,,,,,,,,,,,,,,,,,,,,,,,,,,,,,,,,,,,,,,,,,,,,,,,,,,,,,,,,,,,,,,,,,,,,,,,,,,,,,,,,,,,,,,,,,,,,,,,,,,,,,,,,,,,,,,,,,,,,,,,,
,,,,,,6097ec1a8c0b4df21cbb9024,62bbf989ffe1009c36dcb9a3,2022-06-29_09h05.35.792,Colour_Asymmetry_Pilot,2022.1.3,Win32,30.00120005,62bbe60bf3d75ef465d3e404,0,126,126,91,1,twofour,,,,,,,,,,,,,,,,,,,,,,,,,,,,,,,,,,,,,,,,,,,,,,,,,,,,,,,,,,,,,,,,,,,,,,,,,,,,,,,,,,,,,,,,,,,,,,,,,,,,,,,,,,,,,,,,,,,,,,,,,,,,,,,,,,,,,,,,,,,,,,,,,,,,,,,,
,,,,,,6097ec1a8c0b4df21cbb9024,62bbf989ffe1009c36dcb9a3,2022-06-29_09h05.35.792,Colour_Asymmetry_Pilot,2022.1.3,Win32,30.00120005,62bbe60bf3d75ef465d3e404,0,127,127,77,1,threefour,,,,,,,,,,,,,,,,,,,,,,,,,,,,,,,,,,,,,,,,,,,,,,,,,,,,,,,,,,,,,,,,,,,,,,,,,,,,,,,,,,,,,,,,,,,,,,,,,,,,,,,,,,,,,,,,,,,,,,,,,,,,,,,,,,,,,,,,,,,,,,,,,,,,,,,,
,,,,,,6097ec1a8c0b4df21cbb9024,62bbf989ffe1009c36dcb9a3,2022-06-29_09h05.35.792,Colour_Asymmetry_Pilot,2022.1.3,Win32,30.00120005,62bbe60bf3d75ef465d3e404,0,128,128,112,1,onetwo,,,,,,,,,,,,,,,,,,,,,,,,,,,,,,,,,,,,,,,,,,,,,,,,,,,,,,,,,,,,,,,,,,,,,,,,,,,,,,,,,,,,,,,,,,,,,,,,,,,,,,,,,,,,,,,,,,,,,,,,,,,,,,,,,,,,,,,,,,,,,,,,,,,,,,,,
,,,,,,6097ec1a8c0b4df21cbb9024,62bbf989ffe1009c36dcb9a3,2022-06-29_09h05.35.792,Colour_Asymmetry_Pilot,2022.1.3,Win32,30.00120005,62bbe60bf3d75ef465d3e404,0,129,129,92,1,threeone,,,,,,,,,,,,,,,,,,,,,,,,,,,,,,,,,,,,,,,,,,,,,,,,,,,,,,,,,,,,,,,,,,,,,,,,,,,,,,,,,,,,,,,,,,,,,,,,,,,,,,,,,,,,,,,,,,,,,,,,,,,,,,,,,,,,,,,,,,,,,,,,,,,,,,,,
,,,,,,6097ec1a8c0b4df21cbb9024,62bbf989ffe1009c36dcb9a3,2022-06-29_09h05.35.792,Colour_Asymmetry_Pilot,2022.1.3,Win32,30.00120005,62bbe60bf3d75ef465d3e404,0,130,130,117,1,threefour,,,,,,,,,,,,,,,,,,,,,,,,,,,,,,,,,,,,,,,,,,,,,,,,,,,,,,,,,,,,,,,,,,,,,,,,,,,,,,,,,,,,,,,,,,,,,,,,,,,,,,,,,,,,,,,,,,,,,,,,,,,,,,,,,,,,,,,,,,,,,,,,,,,,,,,,
,,,,,,6097ec1a8c0b4df21cbb9024,62bbf989ffe1009c36dcb9a3,2022-06-29_09h05.35.792,Colour_Asymmetry_Pilot,2022.1.3,Win32,30.00120005,62bbe60bf3d75ef465d3e404,0,131,131,48,1,onetwo,,,,,,,,,,,,,,,,,,,,,,,,,,,,,,,,,,,,,,,,,,,,,,,,,,,,,,,,,,,,,,,,,,,,,,,,,,,,,,,,,,,,,,,,,,,,,,,,,,,,,,,,,,,,,,,,,,,,,,,,,,,,,,,,,,,,,,,,,,,,,,,,,,,,,,,,
,,,,,,6097ec1a8c0b4df21cbb9024,62bbf989ffe1009c36dcb9a3,2022-06-29_09h05.35.792,Colour_Asymmetry_Pilot,2022.1.3,Win32,30.00120005,62bbe60bf3d75ef465d3e404,0,132,132,146,1,twoone,,,,,,,,,,,,,,,,,,,,,,,,,,,,,,,,,,,,,,,,,,,,,,,,,,,,,,,,,,,,,,,,,,,,,,,,,,,,,,,,,,,,,,,,,,,,,,,,,,,,,,,,,,,,,,,,,,,,,,,,,,,,,,,,,,,,,,,,,,,,,,,,,,,,,,,,
,,,,,,6097ec1a8c0b4df21cbb9024,62bbf989ffe1009c36dcb9a3,2022-06-29_09h05.35.792,Colour_Asymmetry_Pilot,2022.1.3,Win32,30.00120005,62bbe60bf3d75ef465d3e404,0,133,133,98,1,twoone,,,,,,,,,,,,,,,,,,,,,,,,,,,,,,,,,,,,,,,,,,,,,,,,,,,,,,,,,,,,,,,,,,,,,,,,,,,,,,,,,,,,,,,,,,,,,,,,,,,,,,,,,,,,,,,,,,,,,,,,,,,,,,,,,,,,,,,,,,,,,,,,,,,,,,,,
,,,,,,6097ec1a8c0b4df21cbb9024,62bbf989ffe1009c36dcb9a3,2022-06-29_09h05.35.792,Colour_Asymmetry_Pilot,2022.1.3,Win32,30.00120005,62bbe60bf3d75ef465d3e404,0,134,134,96,1,onetwo,,,,,,,,,,,,,,,,,,,,,,,,,,,,,,,,,,,,,,,,,,,,,,,,,,,,,,,,,,,,,,,,,,,,,,,,,,,,,,,,,,,,,,,,,,,,,,,,,,,,,,,,,,,,,,,,,,,,,,,,,,,,,,,,,,,,,,,,,,,,,,,,,,,,,,,,
,,,,,,6097ec1a8c0b4df21cbb9024,62bbf989ffe1009c36dcb9a3,2022-06-29_09h05.35.792,Colour_Asymmetry_Pilot,2022.1.3,Win32,30.00120005,62bbe60bf3d75ef465d3e404,0,135,135,144,1,onetwo,,,,,,,,,,,,,,,,,,,,,,,,,,,,,,,,,,,,,,,,,,,,,,,,,,,,,,,,,,,,,,,,,,,,,,,,,,,,,,,,,,,,,,,,,,,,,,,,,,,,,,,,,,,,,,,,,,,,,,,,,,,,,,,,,,,,,,,,,,,,,,,,,,,,,,,,
,,,,,,6097ec1a8c0b4df21cbb9024,62bbf989ffe1009c36dcb9a3,2022-06-29_09h05.35.792,Colour_Asymmetry_Pilot,2022.1.3,Win32,30.00120005,62bbe60bf3d75ef465d3e404,0,136,136,120,1,onetwo,,,,,,,,,,,,,,,,,,,,,,,,,,,,,,,,,,,,,,,,,,,,,,,,,,,,,,,,,,,,,,,,,,,,,,,,,,,,,,,,,,,,,,,,,,,,,,,,,,,,,,,,,,,,,,,,,,,,,,,,,,,,,,,,,,,,,,,,,,,,,,,,,,,,,,,,
,,,,,,6097ec1a8c0b4df21cbb9024,62bbf989ffe1009c36dcb9a3,2022-06-29_09h05.35.792,Colour_Asymmetry_Pilot,2022.1.3,Win32,30.00120005,62bbe60bf3d75ef465d3e404,0,137,137,94,1,fourtwo,,,,,,,,,,,,,,,,,,,,,,,,,,,,,,,,,,,,,,,,,,,,,,,,,,,,,,,,,,,,,,,,,,,,,,,,,,,,,,,,,,,,,,,,,,,,,,,,,,,,,,,,,,,,,,,,,,,,,,,,,,,,,,,,,,,,,,,,,,,,,,,,,,,,,,,,
,,,,,,6097ec1a8c0b4df21cbb9024,62bbf989ffe1009c36dcb9a3,2022-06-29_09h05.35.792,Colour_Asymmetry_Pilot,2022.1.3,Win32,30.00120005,62bbe60bf3d75ef465d3e404,0,138,138,116,1,threeone,,,,,,,,,,,,,,,,,,,,,,,,,,,,,,,,,,,,,,,,,,,,,,,,,,,,,,,,,,,,,,,,,,,,,,,,,,,,,,,,,,,,,,,,,,,,,,,,,,,,,,,,,,,,,,,,,,,,,,,,,,,,,,,,,,,,,,,,,,,,,,,,,,,,,,,,
,,,,,,6097ec1a8c0b4df21cbb9024,62bbf989ffe1009c36dcb9a3,2022-06-29_09h05.35.792,Colour_Asymmetry_Pilot,2022.1.3,Win32,30.00120005,62bbe60bf3d75ef465d3e404,0,139,139,115,1,twofour,,,,,,,,,,,,,,,,,,,,,,,,,,,,,,,,,,,,,,,,,,,,,,,,,,,,,,,,,,,,,,,,,,,,,,,,,,,,,,,,,,,,,,,,,,,,,,,,,,,,,,,,,,,,,,,,,,,,,,,,,,,,,,,,,,,,,,,,,,,,,,,,,,,,,,,,
,,,,,,6097ec1a8c0b4df21cbb9024,62bbf989ffe1009c36dcb9a3,2022-06-29_09h05.35.792,Colour_Asymmetry_Pilot,2022.1.3,Win32,30.00120005,62bbe60bf3d75ef465d3e404,0,140,140,151,1,fourthree,,,,,,,,,,,,,,,,,,,,,,,,,,,,,,,,,,,,,,,,,,,,,,,,,,,,,,,,,,,,,,,,,,,,,,,,,,,,,,,,,,,,,,,,,,,,,,,,,,,,,,,,,,,,,,,,,,,,,,,,,,,,,,,,,,,,,,,,,,,,,,,,,,,,,,,,
,,,,,,6097ec1a8c0b4df21cbb9024,62bbf989ffe1009c36dcb9a3,2022-06-29_09h05.35.792,Colour_Asymmetry_Pilot,2022.1.3,Win32,30.00120005,62bbe60bf3d75ef465d3e404,0,141,141,85,1,threefour,,,,,,,,,,,,,,,,,,,,,,,,,,,,,,,,,,,,,,,,,,,,,,,,,,,,,,,,,,,,,,,,,,,,,,,,,,,,,,,,,,,,,,,,,,,,,,,,,,,,,,,,,,,,,,,,,,,,,,,,,,,,,,,,,,,,,,,,,,,,,,,,,,,,,,,,
,,,,,,6097ec1a8c0b4df21cbb9024,62bbf989ffe1009c36dcb9a3,2022-06-29_09h05.35.792,Colour_Asymmetry_Pilot,2022.1.3,Win32,30.00120005,62bbe60bf3d75ef465d3e404,0,142,142,23,1,fourthree,,,,,,,,,,,,,,,,,,,,,,,,,,,,,,,,,,,,,,,,,,,,,,,,,,,,,,,,,,,,,,,,,,,,,,,,,,,,,,,,,,,,,,,,,,,,,,,,,,,,,,,,,,,,,,,,,,,,,,,,,,,,,,,,,,,,,,,,,,,,,,,,,,,,,,,,
,,,,,,6097ec1a8c0b4df21cbb9024,62bbf989ffe1009c36dcb9a3,2022-06-29_09h05.35.792,Colour_Asymmetry_Pilot,2022.1.3,Win32,30.00120005,62bbe60bf3d75ef465d3e404,0,143,143,67,1,twofour,,,,,,,,,,,,,,,,,,,,,,,,,,,,,,,,,,,,,,,,,,,,,,,,,,,,,,,,,,,,,,,,,,,,,,,,,,,,,,,,,,,,,,,,,,,,,,,,,,,,,,,,,,,,,,,,,,,,,,,,,,,,,,,,,,,,,,,,,,,,,,,,,,,,,,,,
,,,,,,6097ec1a8c0b4df21cbb9024,62bbf989ffe1009c36dcb9a3,2022-06-29_09h05.35.792,Colour_Asymmetry_Pilot,2022.1.3,Win32,30.00120005,62bbe60bf3d75ef465d3e404,0,144,144,122,1,twoone,,,,,,,,,,,,,,,,,,,,,,,,,,,,,,,,,,,,,,,,,,,,,,,,,,,,,,,,,,,,,,,,,,,,,,,,,,,,,,,,,,,,,,,,,,,,,,,,,,,,,,,,,,,,,,,,,,,,,,,,,,,,,,,,,,,,,,,,,,,,,,,,,,,,,,,,
,,,,,,6097ec1a8c0b4df21cbb9024,62bbf989ffe1009c36dcb9a3,2022-06-29_09h05.35.792,Colour_Asymmetry_Pilot,2022.1.3,Win32,30.00120005,62bbe60bf3d75ef465d3e404,0,145,145,63,1,fourthree,,,,,,,,,,,,,,,,,,,,,,,,,,,,,,,,,,,,,,,,,,,,,,,,,,,,,,,,,,,,,,,,,,,,,,,,,,,,,,,,,,,,,,,,,,,,,,,,,,,,,,,,,,,,,,,,,,,,,,,,,,,,,,,,,,,,,,,,,,,,,,,,,,,,,,,,
,,,,,,6097ec1a8c0b4df21cbb9024,62bbf989ffe1009c36dcb9a3,2022-06-29_09h05.35.792,Colour_Asymmetry_Pilot,2022.1.3,Win32,30.00120005,62bbe60bf3d75ef465d3e404,0,146,146,25,1,onethree,,,,,,,,,,,,,,,,,,,,,,,,,,,,,,,,,,,,,,,,,,,,,,,,,,,,,,,,,,,,,,,,,,,,,,,,,,,,,,,,,,,,,,,,,,,,,,,,,,,,,,,,,,,,,,,,,,,,,,,,,,,,,,,,,,,,,,,,,,,,,,,,,,,,,,,,
,,,,,,6097ec1a8c0b4df21cbb9024,62bbf989ffe1009c36dcb9a3,2022-06-29_09h05.35.792,Colour_Asymmetry_Pilot,2022.1.3,Win32,30.00120005,62bbe60bf3d75ef465d3e404,0,147,147,153,1,onethree,,,,,,,,,,,,,,,,,,,,,,,,,,,,,,,,,,,,,,,,,,,,,,,,,,,,,,,,,,,,,,,,,,,,,,,,,,,,,,,,,,,,,,,,,,,,,,,,,,,,,,,,,,,,,,,,,,,,,,,,,,,,,,,,,,,,,,,,,,,,,,,,,,,,,,,,
,,,,,,6097ec1a8c0b4df21cbb9024,62bbf989ffe1009c36dcb9a3,2022-06-29_09h05.35.792,Colour_Asymmetry_Pilot,2022.1.3,Win32,30.00120005,62bbe60bf3d75ef465d3e404,0,148,148,42,1,twoone,,,,,,,,,,,,,,,,,,,,,,,,,,,,,,,,,,,,,,,,,,,,,,,,,,,,,,,,,,,,,,,,,,,,,,,,,,,,,,,,,,,,,,,,,,,,,,,,,,,,,,,,,,,,,,,,,,,,,,,,,,,,,,,,,,,,,,,,,,,,,,,,,,,,,,,,
,,,,,,6097ec1a8c0b4df21cbb9024,62bbf989ffe1009c36dcb9a3,2022-06-29_09h05.35.792,Colour_Asymmetry_Pilot,2022.1.3,Win32,30.00120005,62bbe60bf3d75ef465d3e404,0,149,149,132,1,threeone,,,,,,,,,,,,,,,,,,,,,,,,,,,,,,,,,,,,,,,,,,,,,,,,,,,,,,,,,,,,,,,,,,,,,,,,,,,,,,,,,,,,,,,,,,,,,,,,,,,,,,,,,,,,,,,,,,,,,,,,,,,,,,,,,,,,,,,,,,,,,,,,,,,,,,,,
,,,,,,6097ec1a8c0b4df21cbb9024,62bbf989ffe1009c36dcb9a3,2022-06-29_09h05.35.792,Colour_Asymmetry_Pilot,2022.1.3,Win32,30.00120005,62bbe60bf3d75ef465d3e404,0,150,150,90,1,twoone,,,,,,,,,,,,,,,,,,,,,,,,,,,,,,,,,,,,,,,,,,,,,,,,,,,,,,,,,,,,,,,,,,,,,,,,,,,,,,,,,,,,,,,,,,,,,,,,,,,,,,,,,,,,,,,,,,,,,,,,,,,,,,,,,,,,,,,,,,,,,,,,,,,,,,,,
,,,,,,6097ec1a8c0b4df21cbb9024,62bbf989ffe1009c36dcb9a3,2022-06-29_09h05.35.792,Colour_Asymmetry_Pilot,2022.1.3,Win32,30.00120005,62bbe60bf3d75ef465d3e404,0,151,151,84,1,threeone,,,,,,,,,,,,,,,,,,,,,,,,,,,,,,,,,,,,,,,,,,,,,,,,,,,,,,,,,,,,,,,,,,,,,,,,,,,,,,,,,,,,,,,,,,,,,,,,,,,,,,,,,,,,,,,,,,,,,,,,,,,,,,,,,,,,,,,,,,,,,,,,,,,,,,,,
,,,,,,6097ec1a8c0b4df21cbb9024,62bbf989ffe1009c36dcb9a3,2022-06-29_09h05.35.792,Colour_Asymmetry_Pilot,2022.1.3,Win32,30.00120005,62bbe60bf3d75ef465d3e404,0,152,152,26,1,twoone,,,,,,,,,,,,,,,,,,,,,,,,,,,,,,,,,,,,,,,,,,,,,,,,,,,,,,,,,,,,,,,,,,,,,,,,,,,,,,,,,,,,,,,,,,,,,,,,,,,,,,,,,,,,,,,,,,,,,,,,,,,,,,,,,,,,,,,,,,,,,,,,,,,,,,,,
,,,,,,6097ec1a8c0b4df21cbb9024,62bbf989ffe1009c36dcb9a3,2022-06-29_09h05.35.792,Colour_Asymmetry_Pilot,2022.1.3,Win32,30.00120005,62bbe60bf3d75ef465d3e404,0,153,153,57,1,onethree,,,,,,,,,,,,,,,,,,,,,,,,,,,,,,,,,,,,,,,,,,,,,,,,,,,,,,,,,,,,,,,,,,,,,,,,,,,,,,,,,,,,,,,,,,,,,,,,,,,,,,,,,,,,,,,,,,,,,,,,,,,,,,,,,,,,,,,,,,,,,,,,,,,,,,,,
,,,,,,6097ec1a8c0b4df21cbb9024,62bbf989ffe1009c36dcb9a3,2022-06-29_09h05.35.792,Colour_Asymmetry_Pilot,2022.1.3,Win32,30.00120005,62bbe60bf3d75ef465d3e404,0,154,154,29,1,threefour,,,,,,,,,,,,,,,,,,,,,,,,,,,,,,,,,,,,,,,,,,,,,,,,,,,,,,,,,,,,,,,,,,,,,,,,,,,,,,,,,,,,,,,,,,,,,,,,,,,,,,,,,,,,,,,,,,,,,,,,,,,,,,,,,,,,,,,,,,,,,,,,,,,,,,,,
,,,,,,6097ec1a8c0b4df21cbb9024,62bbf989ffe1009c36dcb9a3,2022-06-29_09h05.35.792,Colour_Asymmetry_Pilot,2022.1.3,Win32,30.00120005,62bbe60bf3d75ef465d3e404,0,155,155,24,1,onetwo,,,,,,,,,,,,,,,,,,,,,,,,,,,,,,,,,,,,,,,,,,,,,,,,,,,,,,,,,,,,,,,,,,,,,,,,,,,,,,,,,,,,,,,,,,,,,,,,,,,,,,,,,,,,,,,,,,,,,,,,,,,,,,,,,,,,,,,,,,,,,,,,,,,,,,,,
,,,,,,6097ec1a8c0b4df21cbb9024,62bbf989ffe1009c36dcb9a3,2022-06-29_09h05.35.792,Colour_Asymmetry_Pilot,2022.1.3,Win32,30.00120005,62bbe60bf3d75ef465d3e404,0,156,156,145,1,onethree,,,,,,,,,,,,,,,,,,,,,,,,,,,,,,,,,,,,,,,,,,,,,,,,,,,,,,,,,,,,,,,,,,,,,,,,,,,,,,,,,,,,,,,,,,,,,,,,,,,,,,,,,,,,,,,,,,,,,,,,,,,,,,,,,,,,,,,,,,,,,,,,,,,,,,,,
,,,,,,6097ec1a8c0b4df21cbb9024,62bbf989ffe1009c36dcb9a3,2022-06-29_09h05.35.792,Colour_Asymmetry_Pilot,2022.1.3,Win32,30.00120005,62bbe60bf3d75ef465d3e404,0,157,157,46,1,fourtwo,,,,,,,,,,,,,,,,,,,,,,,,,,,,,,,,,,,,,,,,,,,,,,,,,,,,,,,,,,,,,,,,,,,,,,,,,,,,,,,,,,,,,,,,,,,,,,,,,,,,,,,,,,,,,,,,,,,,,,,,,,,,,,,,,,,,,,,,,,,,,,,,,,,,,,,,
,,,,,,6097ec1a8c0b4df21cbb9024,62bbf989ffe1009c36dcb9a3,2022-06-29_09h05.35.792,Colour_Asymmetry_Pilot,2022.1.3,Win32,30.00120005,62bbe60bf3d75ef465d3e404,0,158,158,121,1,onethree,,,,,,,,,,,,,,,,,,,,,,,,,,,,,,,,,,,,,,,,,,,,,,,,,,,,,,,,,,,,,,,,,,,,,,,,,,,,,,,,,,,,,,,,,,,,,,,,,,,,,,,,,,,,,,,,,,,,,,,,,,,,,,,,,,,,,,,,,,,,,,,,,,,,,,,,
,,,,,,6097ec1a8c0b4df21cbb9024,62bbf989ffe1009c36dcb9a3,2022-06-29_09h05.35.792,Colour_Asymmetry_Pilot,2022.1.3,Win32,30.00120005,62bbe60bf3d75ef465d3e404,0,159,159,100,1,threeone,,,,,,,,,,,,,,,,,,,,,,,,,,,,,,,,,,,,,,,,,,,,,,,,,,,,,,,,,,,,,,,,,,,,,,,,,,,,,,,,,,,,,,,,,,,,,,,,,,,,,,,,,,,,,,,,,,,,,,,,,,,,,,,,,,,,,,,,,,,,,,,,,,,,,,,,
,,,,,,6097ec1a8c0b4df21cbb9024,62bbf989ffe1009c36dcb9a3,2022-06-29_09h05.35.792,Colour_Asymmetry_Pilot,2022.1.3,Win32,30.00120005,62bbe60bf3d75ef465d3e404,0,160,160,66,1,twoone,,,,,,,,,,,,,,,,,,,,,,,,,,,,,,,,,,,,,,,,,,,,,,,,,,,,,,,,,,,,,,,,,,,,,,,,,,,,,,,,,,,,,,,,,,,,,,,,,,,,,,,,,,,,,,,,,,,,,,,,,,,,,,,,,,,,,,,,,,,,,,,,,,,,,,,,
,,,,,,6097ec1a8c0b4df21cbb9024,62bbf989ffe1009c36dcb9a3,2022-06-29_09h05.35.792,Colour_Asymmetry_Pilot,2022.1.3,Win32,30.00120005,62bbe60bf3d75ef465d3e404,0,161,161,83,1,twofour,,,,,,,,,,,,,,,,,,,,,,,,,,,,,,,,,,,,,,,,,,,,,,,,,,,,,,,,,,,,,,,,,,,,,,,,,,,,,,,,,,,,,,,,,,,,,,,,,,,,,,,,,,,,,,,,,,,,,,,,,,,,,,,,,,,,,,,,,,,,,,,,,,,,,,,,
,,,,,,6097ec1a8c0b4df21cbb9024,62bbf989ffe1009c36dcb9a3,2022-06-29_09h05.35.792,Colour_Asymmetry_Pilot,2022.1.3,Win32,30.00120005,62bbe60bf3d75ef465d3e404,,,,,,,space,17.7166,space,36.0994,space,133.4823,space,48.441,space,5.5606,space,11.8208,"[-0.9766,-0.34920000000000007,0.2156]",fourtwo,"[-0.26280000000000003,-0.2158,-0.3256]",-1,19.3958,-44,-91,1,0,0,response5disk_5,-1,0,1,0,0,rectangle_8,-1,0,1,0,0,3,-1,0,1,0,0,0,0,0,0,1,,,,,,,,,,,,,,,,,,,,,,,,,,,,,,,,,,,,,,,,,,,,,,,,,,,,,,,,,,,,,,,,,,,,,,,,,,,,,,,,,,,,,,,,,,,,,,,,,,,,,,,,,,,
,,,,,,6097ec1a8c0b4df21cbb9024,62bbf989ffe1009c36dcb9a3,2022-06-29_09h05.35.792,Colour_Asymmetry_Pilot,2022.1.3,Win32,30.00120005,62bbe60bf3d75ef465d3e404,,,,,,,,,,,,,,,,,,,"[-0.4902000000000001,0.2704,-0.45899999999999996]",twofour,"[0.9213999999999998,0.6391999999999998,-0.9922]",1,10.8056,43,-87,1,0,0,response3disk_5,11,-2,1,0,0,rectangle_8,95,37,1,0,0,3,-4,7,1,0,0,1,0,1,0,1,response1disk_7,6,rectangle_4,,,,,,,,,,,,,,,,,,,,,,,,,,,,,,,,,,,,,,,,,,,,,,,,,,,,,,,,,,,,,,,,,,,,,,,,,,,,,,,,,,,,,,,,,,,,,,,,,,,,,,,,
,,,,,,6097ec1a8c0b4df21cbb9024,62bbf989ffe1009c36dcb9a3,2022-06-29_09h05.35.792,Colour_Asymmetry_Pilot,2022.1.3,Win32,30.00120005,62bbe60bf3d75ef465d3e404,,,,,,,,,,,,,,,,,,,"[0.30180000000000007,-0.7884,-0.9844]",onethree,"[-0.5922000000000001,-0.7492000000000001,-0.5296000000000001]",-1,1.6475,-39,-71,1,0,0,response5disk_5,-2,2,1,0,0,rectangle_8,-2,2,1,0,0,3,-2,2,1,0,0,2,0,2,0,1,,,,,,,,,,,,,,,,,,,,,,,,,,,,,,,,,,,,,,,,,,,,,,,,,,,,,,,,,,,,,,,,,,,,,,,,,,,,,,,,,,,,,,,,,,,,,,,,,,,,,,,,,,,
,,,,,,6097ec1a8c0b4df21cbb9024,62bbf989ffe1009c36dcb9a3,2022-06-29_09h05.35.792,Colour_Asymmetry_Pilot,2022.1.3,Win32,30.00120005,62bbe60bf3d75ef465d3e404,,,,,,,,,,,,,,,,,,,"[-0.050999999999999934,-0.6706000000000001,-0.804]",fourtwo,"[0.18419999999999992,-0.4276,-0.404]",2,4.2856,83,-26,1,0,0,response3disk_5,1,-3,1,0,0,rectangle_8,1,-3,1,0,0,3,1,-3,1,0,0,3,0,3,0,1,,,,,,,,,,,,,,,,,,,,,,,,,,,,,,,,,,,,,,,,,,,,,,,,,,,,,,,,,,,,,,,,,,,,,,,,,,,,,,,,,,,,,,,,,,,,,,,,,,,,,,,,,,,
,,,,,,6097ec1a8c0b4df21cbb9024,62bbf989ffe1009c36dcb9a3,2022-06-29_09h05.35.792,Colour_Asymmetry_Pilot,2022.1.3,Win32,30.00120005,62bbe60bf3d75ef465d3e404,,,,,,,,,,,,,,,,,,,"[0.04299999999999993,0.16060000000000008,-0.6628000000000001]",threeone,"[0.30180000000000007,-0.7884,-0.9844]",-3,26.4087,-78,36,1,0,0,response7disk_5,2,6,1,0,0,rectangle_8,2,6,1,0,0,3,2,6,1,0,0,4,0,4,0,1,,,,,,,,,,,,,,,,,,,,,,,,,,,,,,,,,,,,,,,,,,,,,,,,,,,,,,,,,,,,,,,,,,,,,,,,,,,,,,,,,,,,,,,,,,,,,,,,,,,,,,,,,,,
,,,,,,6097ec1a8c0b4df21cbb9024,62bbf989ffe1009c36dcb9a3,2022-06-29_09h05.35.792,Colour_Asymmetry_Pilot,2022.1.3,Win32,30.00120005,62bbe60bf3d75ef465d3e404,,,,,,,,,,,,,,,,,,,"[-0.01980000000000004,-0.5138,-0.38039999999999996]",twofour,"[-0.9296,-0.12959999999999994,-0.043199999999999905]",-2,4.2755,-76,-43,1,0,0,response5disk_5,-1,4,1,0,0,rectangle_8,89,41,1,0,0,3,0,4,1,0,0,5,0,5,0,1,response1disk_7,6,rectangle_4,,,,,,,,,,,,,,,,,,,,,,,,,,,,,,,,,,,,,,,,,,,,,,,,,,,,,,,,,,,,,,,,,,,,,,,,,,,,,,,,,,,,,,,,,,,,,,,,,,,,,,,,
,,,,,,6097ec1a8c0b4df21cbb9024,62bbf989ffe1009c36dcb9a3,2022-06-29_09h05.35.792,Colour_Asymmetry_Pilot,2022.1.3,Win32,30.00120005,62bbe60bf3d75ef465d3e404,,,,,,,,,,,,,,,,,,,"[-0.20799999999999996,-0.655,-0.01980000000000004]",onethree,"[-0.0040000000000000036,0.02739999999999987,-0.08239999999999992]",-2,3.2982,-67,-30,1,0,0,response5disk_5,-4,-3,1,0,0,rectangle_8,-4,-3,1,0,0,3,-4,-3,1,0,0,6,0,6,0,1,,,,,,,,,,,,,,,,,,,,,,,,,,,,,,,,,,,,,,,,,,,,,,,,,,,,,,,,,,,,,,,,,,,,,,,,,,,,,,,,,,,,,,,,,,,,,,,,,,,,,,,,,,,
,,,,,,6097ec1a8c0b4df21cbb9024,62bbf989ffe1009c36dcb9a3,2022-06-29_09h05.35.792,Colour_Asymmetry_Pilot,2022.1.3,Win32,30.00120005,62bbe60bf3d75ef465d3e404,,,,,,,,,,,,,,,,,,,,fourtwo,,-1,4.8138,,,,,,,,,,,,,,,,,,,,,,,,,,,,,,,,space,8.3826,"[-0.011800000000000033,-0.906,-0.45100000000000007]","[-0.26280000000000003,-0.2158,-0.3256]",-45,-83,1,0,0,response5disk,-10,1,1,0,0,rectangle,-10,1,1,0,0,,2,0.0062,0,-10,1,1,0,0,0,0,0,124,1,43,second,,,,,,,,,,,,,,,,,,,,,,,,,,,,,,,,,,,,,,,,,,,,,,,,,,,,,,,,,,,,,,,,,,,
,,,,,,6097ec1a8c0b4df21cbb9024,62bbf989ffe1009c36dcb9a3,2022-06-29_09h05.35.792,Colour_Asymmetry_Pilot,2022.1.3,Win32,30.00120005,62bbe60bf3d75ef465d3e404,,,,,,,,,,,,,,,,,,,,twoone,,-1,8.3322,,,,,,,,,,,,,,,,,,,,,,,,,,,,,,,,,,"[0.9763999999999999,-0.1137999999999999,-0.6314]","[-0.011800000000000033,-0.906,-0.45100000000000007]",-43,-91,1,0,0,response5disk,-9,4,1,0,0,rectangle,-9,4,1,0,0,,3,0.0038,0,-9,4,1,0,0,0,1,1,99,1,18,second,,,,,,,,,,,,,,,,,,,,,,,,,,,,,,,,,,,,,,,,,,,,,,,,,,,,,,,,,,,,,,,,,,,
,,,,,,6097ec1a8c0b4df21cbb9024,62bbf989ffe1009c36dcb9a3,2022-06-29_09h05.35.792,Colour_Asymmetry_Pilot,2022.1.3,Win32,30.00120005,62bbe60bf3d75ef465d3e404,,,,,,,,,,,,,,,,,,,,threeone,,4,1.8962,,,,,,,,,,,,,,,,,,,,,,,,,,,,,,,,,,"[-0.30200000000000005,0.14500000000000002,0.2784]","[-0.09019999999999995,0.44300000000000006,0.5371999999999999]",30,72,1,0,0,response1disk,4,-4,1,0,0,rectangle,4,-4,1,0,0,,1,0.004,0,4,-4,1,0,0,0,2,2,142,1,61,second,,,,,,,,,,,,,,,,,,,,,,,,,,,,,,,,,,,,,,,,,,,,,,,,,,,,,,,,,,,,,,,,,,,
,,,,,,6097ec1a8c0b4df21cbb9024,62bbf989ffe1009c36dcb9a3,2022-06-29_09h05.35.792,Colour_Asymmetry_Pilot,2022.1.3,Win32,30.00120005,62bbe60bf3d75ef465d3e404,,,,,,,,,,,,,,,,,,,,fourthree,,-1,1.1276,,,,,,,,,,,,,,,,,,,,,,,,,,,,,,,,,,"[-0.050999999999999934,-0.6706000000000001,-0.804]","[-0.26280000000000003,-0.4746,-0.2158]",-40,-76,1,0,0,response5disk,-8,4,1,0,0,rectangle,-8,4,1,0,0,,2,0.0052,0,-8,4,1,0,0,0,3,3,73,1,73,first,,,,,,,,,,,,,,,,,,,,,,,,,,,,,,,,,,,,,,,,,,,,,,,,,,,,,,,,,,,,,,,,,,,
,,,,,,6097ec1a8c0b4df21cbb9024,62bbf989ffe1009c36dcb9a3,2022-06-29_09h05.35.792,Colour_Asymmetry_Pilot,2022.1.3,Win32,30.00120005,62bbe60bf3d75ef465d3e404,,,,,,,,,,,,,,,,,,,,fourthree,,1,8.6595,,,,,,,,,,,,,,,,,,,,,,,,,,,,,,,,,,"[-0.8118,-0.8198,-0.5452]","[0.11359999999999992,0.6312,0.5213999999999999]",36,-81,1,0,0,response3disk,-2,6,1,0,0,rectangle,43,-91,1,0,0,1,1,3.9997,1,-2,4,1,0,0,0,4,4,161,1,80,second,response3disk_3,rectangle,,,,,,,,,,,,,,,,,,,,,,,,,,,,,,,,,,,,,,,,,,,,,,,,,,,,,,,,,,,,,,,,,
,,,,,,6097ec1a8c0b4df21cbb9024,62bbf989ffe1009c36dcb9a3,2022-06-29_09h05.35.792,Colour_Asymmetry_Pilot,2022.1.3,Win32,30.00120005,62bbe60bf3d75ef465d3e404,,,,,,,,,,,,,,,,,,,,twofour,,-2,2.4323,,,,,,,,,,,,,,,,,,,,,,,,,,,,,,,,,,"[-0.07459999999999989,0.12139999999999995,-0.9922]","[0.8274000000000001,-0.5844,-0.9452]",-83,-51,1,0,0,response5disk,-12,4,1,0,0,rectangle,83,-36,1,0,0,2,2,3.1856,1,2,-2,1,0,0,0,5,5,159,1,78,second,response3disk_3,rectangle,,,,,,,,,,,,,,,,,,,,,,,,,,,,,,,,,,,,,,,,,,,,,,,,,,,,,,,,,,,,,,,,,
,,,,,,6097ec1a8c0b4df21cbb9024,62bbf989ffe1009c36dcb9a3,2022-06-29_09h05.35.792,Colour_Asymmetry_Pilot,2022.1.3,Win32,30.00120005,62bbe60bf3d75ef465d3e404,,,,,,,,,,,,,,,,,,,,threeone,,-1,5.0646,,,,,,,,,,,,,,,,,,,,,,,,,,,,,,,,,,"[-0.17659999999999998,0.3253999999999999,0.19999999999999996]","[-0.9138,-0.5296000000000001,-0.5529999999999999]",-33,-66,1,0,0,response5disk,6,9,1,0,0,rectangle,6,9,1,0,0,2,3,0.0044,0,6,9,1,0,0,0,6,6,75,1,75,first,,,,,,,,,,,,,,,,,,,,,,,,,,,,,,,,,,,,,,,,,,,,,,,,,,,,,,,,,,,,,,,,,,,
,,,,,,6097ec1a8c0b4df21cbb9024,62bbf989ffe1009c36dcb9a3,2022-06-29_09h05.35.792,Colour_Asymmetry_Pilot,2022.1.3,Win32,30.00120005,62bbe60bf3d75ef465d3e404,,,,,,,,,,,,,,,,,,,,threefour,,-4,3.0069,,,,,,,,,,,,,,,,,,,,,,,,,,,,,,,,,,"[0.9213999999999998,0.6391999999999998,-0.9922]","[-0.8118,-0.8198,-0.5452]",-49,77,1,0,0,response7disk,-5,-4,1,0,0,rectangle,-5,-4,1,0,0,2,2,0.0029,0,-5,-4,1,0,0,0,7,7,101,1,20,second,,,,,,,,,,,,,,,,,,,,,,,,,,,,,,,,,,,,,,,,,,,,,,,,,,,,,,,,,,,,,,,,,,,
,,,,,,6097ec1a8c0b4df21cbb9024,62bbf989ffe1009c36dcb9a3,2022-06-29_09h05.35.792,Colour_Asymmetry_Pilot,2022.1.3,Win32,30.00120005,62bbe60bf3d75ef465d3e404,,,,,,,,,,,,,,,,,,,,threefour,,-2,1.6915,,,,,,,,,,,,,,,,,,,,,,,,,,,,,,,,,,"[-0.17659999999999998,-0.2864,-0.8354]","[0.40379999999999994,0.09000000000000008,0.44300000000000006]",-78,-40,1,0,0,response5disk,-15,-2,1,0,0,rectangle,-15,-2,1,0,0,2,3,0.0028,0,-15,-2,1,0,0,0,8,8,64,1,64,first,,,,,,,,,,,,,,,,,,,,,,,,,,,,,,,,,,,,,,,,,,,,,,,,,,,,,,,,,,,,,,,,,,,
,,,,,,6097ec1a8c0b4df21cbb9024,62bbf989ffe1009c36dcb9a3,2022-06-29_09h05.35.792,Colour_Asymmetry_Pilot,2022.1.3,Win32,30.00120005,62bbe60bf3d75ef465d3e404,,,,,,,,,,,,,,,,,,,,fourthree,,-4,1.8513,,,,,,,,,,,,,,,,,,,,,,,,,,,,,,,,,,"[0.5449999999999999,-0.31000000000000005,-0.0354000000000001]","[0.05879999999999996,0.2784,0.5841999999999998]",-36,77,1,0,0,response7disk,-8,4,1,0,0,rectangle,-8,4,1,0,0,2,2,0.003,0,-8,4,1,0,0,0,9,9,126,1,45,second,,,,,,,,,,,,,,,,,,,,,,,,,,,,,,,,,,,,,,,,,,,,,,,,,,,,,,,,,,,,,,,,,,,
,,,,,,6097ec1a8c0b4df21cbb9024,62bbf989ffe1009c36dcb9a3,2022-06-29_09h05.35.792,Colour_Asymmetry_Pilot,2022.1.3,Win32,30.00120005,62bbe60bf3d75ef465d3e404,,,,,,,,,,,,,,,,,,,,fourthree,,-2,2.3928,,,,,,,,,,,,,,,,,,,,,,,,,,,,,,,,,,"[-0.6,0.16860000000000008,0.44300000000000006]","[0.6625999999999999,0.4980000000000002,-0.357]",-84,-29,1,0,0,response5disk,-20,-3,1,0,0,rectangle,-20,-3,1,0,0,2,1,0.0031,0,-20,-3,1,0,0,0,10,10,23,1,23,first,,,,,,,,,,,,,,,,,,,,,,,,,,,,,,,,,,,,,,,,,,,,,,,,,,,,,,,,,,,,,,,,,,,
,,,,,,6097ec1a8c0b4df21cbb9024,62bbf989ffe1009c36dcb9a3,2022-06-29_09h05.35.792,Colour_Asymmetry_Pilot,2022.1.3,Win32,30.00120005,62bbe60bf3d75ef465d3e404,,,,,,,,,,,,,,,,,,,,onetwo,,-1,1.4895,,,,,,,,,,,,,,,,,,,,,,,,,,,,,,,,,,"[-0.6235999999999999,-0.6786,-0.08239999999999992]","[-0.011800000000000033,-0.906,-0.45100000000000007]",-33,-60,1,0,0,response5disk,5,2,1,0,0,rectangle,5,2,1,0,0,2,3,0.0037,0,5,2,1,0,0,0,11,11,109,1,28,second,,,,,,,,,,,,,,,,,,,,,,,,,,,,,,,,,,,,,,,,,,,,,,,,,,,,,,,,,,,,,,,,,,,
,,,,,,6097ec1a8c0b4df21cbb9024,62bbf989ffe1009c36dcb9a3,2022-06-29_09h05.35.792,Colour_Asymmetry_Pilot,2022.1.3,Win32,30.00120005,62bbe60bf3d75ef465d3e404,,,,,,,,,,,,,,,,,,,,fourtwo,,-1,2.5915,,,,,,,,,,,,,,,,,,,,,,,,,,,,,,,,,,"[0.9372,0.9450000000000001,0.8980000000000001]","[0.9686000000000001,0.3802000000000001,0.19999999999999996]",-36,-75,1,0,0,response5disk,10,2,1,0,0,rectangle,10,2,1,0,0,2,2,0.0027,0,10,2,1,0,0,0,12,12,6,1,6,first,,,,,,,,,,,,,,,,,,,,,,,,,,,,,,,,,,,,,,,,,,,,,,,,,,,,,,,,,,,,,,,,,,,
,,,,,,6097ec1a8c0b4df21cbb9024,62bbf989ffe1009c36dcb9a3,2022-06-29_09h05.35.792,Colour_Asymmetry_Pilot,2022.1.3,Win32,30.00120005,62bbe60bf3d75ef465d3e404,,,,,,,,,,,,,,,,,,,,fourthree,,1,4.4899,,,,,,,,,,,,,,,,,,,,,,,,,,,,,,,,,,"[-0.24719999999999998,-0.0354000000000001,0.3175999999999999]","[0.34099999999999997,0.12939999999999996,-0.9766]",37,-77,1,0,0,response3disk,-7,-2,1,0,0,rectangle,-7,-2,1,0,0,2,1,0.0027,0,-7,-2,1,0,0,0,13,13,38,1,38,first,,,,,,,,,,,,,,,,,,,,,,,,,,,,,,,,,,,,,,,,,,,,,,,,,,,,,,,,,,,,,,,,,,,
,,,,,,6097ec1a8c0b4df21cbb9024,62bbf989ffe1009c36dcb9a3,2022-06-29_09h05.35.792,Colour_Asymmetry_Pilot,2022.1.3,Win32,30.00120005,62bbe60bf3d75ef465d3e404,,,,,,,,,,,,,,,,,,,,fourtwo,,-2,2.4466,,,,,,,,,,,,,,,,,,,,,,,,,,,,,,,,,,"[0.8115999999999999,-0.0040000000000000036,-0.09819999999999995]","[0.2862,0.7802,0.3568]",-86,-52,1,0,0,response5disk,0,10,1,0,0,rectangle,0,10,1,0,0,2,2,0.0029,0,0,10,1,0,0,0,14,14,158,1,77,second,,,,,,,,,,,,,,,,,,,,,,,,,,,,,,,,,,,,,,,,,,,,,,,,,,,,,,,,,,,,,,,,,,,
,,,,,,6097ec1a8c0b4df21cbb9024,62bbf989ffe1009c36dcb9a3,2022-06-29_09h05.35.792,Colour_Asymmetry_Pilot,2022.1.3,Win32,30.00120005,62bbe60bf3d75ef465d3e404,,,,,,,,,,,,,,,,,,,,onethree,,-2,1.1585,,,,,,,,,,,,,,,,,,,,,,,,,,,,,,,,,,"[0.3881999999999999,-0.23939999999999995,-0.05040000000000011]","[0.3568,-0.20799999999999996,-0.9844]",-86,-42,1,0,0,response5disk,-11,-4,1,0,0,rectangle,-11,-4,1,0,0,2,2,0.0009,0,-11,-4,1,0,0,0,15,15,144,1,63,second,,,,,,,,,,,,,,,,,,,,,,,,,,,,,,,,,,,,,,,,,,,,,,,,,,,,,,,,,,,,,,,,,,,
,,,,,,6097ec1a8c0b4df21cbb9024,62bbf989ffe1009c36dcb9a3,2022-06-29_09h05.35.792,Colour_Asymmetry_Pilot,2022.1.3,Win32,30.00120005,62bbe60bf3d75ef465d3e404,,,,,,,,,,,,,,,,,,,,twoone,,-3,2.4106,,,,,,,,,,,,,,,,,,,,,,,,,,,,,,,,,,"[0.6625999999999999,0.4980000000000002,-0.357]","[-0.6,0.16860000000000008,0.44300000000000006]",-69,35,1,0,0,response7disk,14,5,1,0,0,rectangle,95,39,1,0,0,3,3,3.0793,1,5,7,1,0,0,0,16,16,104,1,23,second,response1disk_3,rectangle,,,,,,,,,,,,,,,,,,,,,,,,,,,,,,,,,,,,,,,,,,,,,,,,,,,,,,,,,,,,,,,,,
,,,,,,6097ec1a8c0b4df21cbb9024,62bbf989ffe1009c36dcb9a3,2022-06-29_09h05.35.792,Colour_Asymmetry_Pilot,2022.1.3,Win32,30.00120005,62bbe60bf3d75ef465d3e404,,,,,,,,,,,,,,,,,,,,fourtwo,,-2,1.3167,,,,,,,,,,,,,,,,,,,,,,,,,,,,,,,,,,"[0.2862,0.7802,0.3568]","[0.34099999999999997,0.5841999999999998,-0.9844]",-65,-28,1,0,0,response5disk,-13,0,1,0,0,rectangle,-13,0,1,0,0,3,2,0.0027,0,-13,0,1,0,0,0,17,17,4,1,4,first,,,,,,,,,,,,,,,,,,,,,,,,,,,,,,,,,,,,,,,,,,,,,,,,,,,,,,,,,,,,,,,,,,,
,,,,,,6097ec1a8c0b4df21cbb9024,62bbf989ffe1009c36dcb9a3,2022-06-29_09h05.35.792,Colour_Asymmetry_Pilot,2022.1.3,Win32,30.00120005,62bbe60bf3d75ef465d3e404,,,,,,,,,,,,,,,,,,,,threeone,,-3,2.6042,,,,,,,,,,,,,,,,,,,,,,,,,,,,,,,,,,"[0.9372,0.9450000000000001,0.8980000000000001]","[0.04299999999999993,0.16060000000000008,-0.6628000000000001]",-82,57,1,0,0,response7disk,3,-1,1,0,0,rectangle,3,-1,1,0,0,3,2,0.0008,0,3,-1,1,0,0,0,18,18,123,1,42,second,,,,,,,,,,,,,,,,,,,,,,,,,,,,,,,,,,,,,,,,,,,,,,,,,,,,,,,,,,,,,,,,,,,
,,,,,,6097ec1a8c0b4df21cbb9024,62bbf989ffe1009c36dcb9a3,2022-06-29_09h05.35.792,Colour_Asymmetry_Pilot,2022.1.3,Win32,30.00120005,62bbe60bf3d75ef465d3e404,,,,,,,,,,,,,,,,,,,,onetwo,,-1,2.4558,,,,,,,,,,,,,,,,,,,,,,,,,,,,,,,,,,"[-0.6,0.16860000000000008,0.44300000000000006]","[-0.10599999999999998,-0.15300000000000002,0.15280000000000005]",-38,-96,1,0,0,response5disk,8,11,1,0,0,rectangle,8,11,1,0,0,3,1,0.0027,0,8,11,1,0,0,0,19,19,148,1,67,second,,,,,,,,,,,,,,,,,,,,,,,,,,,,,,,,,,,,,,,,,,,,,,,,,,,,,,,,,,,,,,,,,,,
