trials.thisRepN,trials.thisTrialN,trials.thisN,trials.thisIndex,trials.ran,Colourcodes,participant,session,date,expName,psychopyVersion,OS,frameRate,study_id,trials_4.thisRepN,trials_4.thisTrialN,trials_4.thisN,trials_4.thisIndex,trials_4.ran,StimulusPos,key_resp.keys,key_resp.rt,key_resp_2.keys,key_resp_2.rt,key_resp_15.keys,key_resp_15.rt,key_resp_17.keys,key_resp_17.rt,key_resp_9.keys,key_resp_9.rt,key_resp_10.keys,key_resp_10.rt,Circle1_col,Ecc,Circle2_col,similarity,response_time,mouse_5.x,mouse_5.y,mouse_5.leftButton,mouse_5.midButton,mouse_5.rightButton,mouse_5.clicked_name,mouse_10.x,mouse_10.y,mouse_10.leftButton,mouse_10.midButton,mouse_10.rightButton,mouse_10.clicked_name,mouse_7.x,mouse_7.y,mouse_7.leftButton,mouse_7.midButton,mouse_7.rightButton,catchnumberprac,mouse_6.x,mouse_6.y,mouse_6.leftButton,mouse_6.midButton,mouse_6.rightButton,duringprac.thisRepN,duringprac.thisTrialN,duringprac.thisN,duringprac.thisIndex,duringprac.ran,mouse_7.clicked_name,catchprac,mouse_6.clicked_name,key_resp_22.keys,key_resp_22.rt,Circle1_colour,Circle2_colour,mouse.x,mouse.y,mouse.leftButton,mouse.midButton,mouse.rightButton,mouse.clicked_name,mouse_2.x,mouse_2.y,mouse_2.leftButton,mouse_2.midButton,mouse_2.rightButton,mouse_2.clicked_name,mouse_3.x,mouse_3.y,mouse_3.leftButton,mouse_3.midButton,mouse_3.rightButton,catchresponse,catchnumber,response_time_catch,Catch,mouse_11.x,mouse_11.y,mouse_11.leftButton,mouse_11.midButton,mouse_11.rightButton,trials_2.thisRepN,trials_2.thisTrialN,trials_2.thisN,trials_2.thisIndex,trials_2.ran,Colourpair,Temporder,mouse_3.clicked_name,mouse_11.clicked_name,trials_3.thisRepN,trials_3.thisTrialN,trials_3.thisN,trials_3.thisIndex,trials_3.ran,key_resp_instr_Ishi.keys,key_resp_instr_Ishi.rt,Ishi_trial_keyresp.keys,Ishi_trial_keyresp.rt,Ishi_textbox.text,Ishi_loop.thisRepN,Ishi_loop.thisTrialN,Ishi_loop.thisN,Ishi_loop.thisIndex,Ishi_loop.ran,imageaddress,textbox.text,mouse_4.x,mouse_4.y,mouse_4.leftButton,mouse_4.midButton,mouse_4.rightButton,mouse_4.clicked_name,textbox_2.text,mouse_8.x,mouse_8.y,mouse_8.leftButton,mouse_8.midButton,mouse_8.rightButton,mouse_8.clicked_name,textbox_3.text,mouse_9.x,mouse_9.y,mouse_9.leftButton,mouse_9.midButton,mouse_9.rightButton,mouse_9.clicked_name,textbox_4.text,mouse_12.x,mouse_12.y,mouse_12.leftButton,mouse_12.midButton,mouse_12.rightButton,mouse_12.clicked_name,textbox_5.text,mouse_13.x,mouse_13.y,mouse_13.leftButton,mouse_13.midButton,mouse_13.rightButton,mouse_13.clicked_name,textbox_6.text,mouse_14.x,mouse_14.y,mouse_14.leftButton,mouse_14.midButton,mouse_14.rightButton,mouse_14.clicked_name,textbox_7.text,mouse_15.x,mouse_15.y,mouse_15.leftButton,mouse_15.midButton,mouse_15.rightButton,mouse_15.clicked_name
0,0,0,26,1,,611eb4cfb28943e584e11af0,62bbf9d58c9c0877dc5cb4a6,2022-06-29_09h13.11.367,Colour_Asymmetry_Pilot,2022.1.3,Win32,59.82292414,62bbe60bf3d75ef465d3e404,,,,,,,,,,,,,,,,,,,,,,,,,,,,,,,,,,,,,,,,,,,,,,,,,,,,,,,,,,,,,,,,,,,,,,,,,,,,,,,,,,,,,,,,,,,,,,,,,,,,,,,,,,,,,,,,,,,,,,,,,,,,,,,,,,,,,,,,,,,,,,,,,,,,,,,,,,,,,,
0,1,1,42,1,,611eb4cfb28943e584e11af0,62bbf9d58c9c0877dc5cb4a6,2022-06-29_09h13.11.367,Colour_Asymmetry_Pilot,2022.1.3,Win32,59.82292414,62bbe60bf3d75ef465d3e404,,,,,,,,,,,,,,,,,,,,,,,,,,,,,,,,,,,,,,,,,,,,,,,,,,,,,,,,,,,,,,,,,,,,,,,,,,,,,,,,,,,,,,,,,,,,,,,,,,,,,,,,,,,,,,,,,,,,,,,,,,,,,,,,,,,,,,,,,,,,,,,,,,,,,,,,,,,,,,
0,2,2,75,1,,611eb4cfb28943e584e11af0,62bbf9d58c9c0877dc5cb4a6,2022-06-29_09h13.11.367,Colour_Asymmetry_Pilot,2022.1.3,Win32,59.82292414,62bbe60bf3d75ef465d3e404,,,,,,,,,,,,,,,,,,,,,,,,,,,,,,,,,,,,,,,,,,,,,,,,,,,,,,,,,,,,,,,,,,,,,,,,,,,,,,,,,,,,,,,,,,,,,,,,,,,,,,,,,,,,,,,,,,,,,,,,,,,,,,,,,,,,,,,,,,,,,,,,,,,,,,,,,,,,,,
0,3,3,24,1,,611eb4cfb28943e584e11af0,62bbf9d58c9c0877dc5cb4a6,2022-06-29_09h13.11.367,Colour_Asymmetry_Pilot,2022.1.3,Win32,59.82292414,62bbe60bf3d75ef465d3e404,,,,,,,,,,,,,,,,,,,,,,,,,,,,,,,,,,,,,,,,,,,,,,,,,,,,,,,,,,,,,,,,,,,,,,,,,,,,,,,,,,,,,,,,,,,,,,,,,,,,,,,,,,,,,,,,,,,,,,,,,,,,,,,,,,,,,,,,,,,,,,,,,,,,,,,,,,,,,,
0,4,4,56,1,,611eb4cfb28943e584e11af0,62bbf9d58c9c0877dc5cb4a6,2022-06-29_09h13.11.367,Colour_Asymmetry_Pilot,2022.1.3,Win32,59.82292414,62bbe60bf3d75ef465d3e404,,,,,,,,,,,,,,,,,,,,,,,,,,,,,,,,,,,,,,,,,,,,,,,,,,,,,,,,,,,,,,,,,,,,,,,,,,,,,,,,,,,,,,,,,,,,,,,,,,,,,,,,,,,,,,,,,,,,,,,,,,,,,,,,,,,,,,,,,,,,,,,,,,,,,,,,,,,,,,
0,5,5,40,1,,611eb4cfb28943e584e11af0,62bbf9d58c9c0877dc5cb4a6,2022-06-29_09h13.11.367,Colour_Asymmetry_Pilot,2022.1.3,Win32,59.82292414,62bbe60bf3d75ef465d3e404,,,,,,,,,,,,,,,,,,,,,,,,,,,,,,,,,,,,,,,,,,,,,,,,,,,,,,,,,,,,,,,,,,,,,,,,,,,,,,,,,,,,,,,,,,,,,,,,,,,,,,,,,,,,,,,,,,,,,,,,,,,,,,,,,,,,,,,,,,,,,,,,,,,,,,,,,,,,,,
0,6,6,51,1,,611eb4cfb28943e584e11af0,62bbf9d58c9c0877dc5cb4a6,2022-06-29_09h13.11.367,Colour_Asymmetry_Pilot,2022.1.3,Win32,59.82292414,62bbe60bf3d75ef465d3e404,,,,,,,,,,,,,,,,,,,,,,,,,,,,,,,,,,,,,,,,,,,,,,,,,,,,,,,,,,,,,,,,,,,,,,,,,,,,,,,,,,,,,,,,,,,,,,,,,,,,,,,,,,,,,,,,,,,,,,,,,,,,,,,,,,,,,,,,,,,,,,,,,,,,,,,,,,,,,,
0,7,7,47,1,,611eb4cfb28943e584e11af0,62bbf9d58c9c0877dc5cb4a6,2022-06-29_09h13.11.367,Colour_Asymmetry_Pilot,2022.1.3,Win32,59.82292414,62bbe60bf3d75ef465d3e404,,,,,,,,,,,,,,,,,,,,,,,,,,,,,,,,,,,,,,,,,,,,,,,,,,,,,,,,,,,,,,,,,,,,,,,,,,,,,,,,,,,,,,,,,,,,,,,,,,,,,,,,,,,,,,,,,,,,,,,,,,,,,,,,,,,,,,,,,,,,,,,,,,,,,,,,,,,,,,
0,8,8,39,1,,611eb4cfb28943e584e11af0,62bbf9d58c9c0877dc5cb4a6,2022-06-29_09h13.11.367,Colour_Asymmetry_Pilot,2022.1.3,Win32,59.82292414,62bbe60bf3d75ef465d3e404,,,,,,,,,,,,,,,,,,,,,,,,,,,,,,,,,,,,,,,,,,,,,,,,,,,,,,,,,,,,,,,,,,,,,,,,,,,,,,,,,,,,,,,,,,,,,,,,,,,,,,,,,,,,,,,,,,,,,,,,,,,,,,,,,,,,,,,,,,,,,,,,,,,,,,,,,,,,,,
0,9,9,84,1,,611eb4cfb28943e584e11af0,62bbf9d58c9c0877dc5cb4a6,2022-06-29_09h13.11.367,Colour_Asymmetry_Pilot,2022.1.3,Win32,59.82292414,62bbe60bf3d75ef465d3e404,,,,,,,,,,,,,,,,,,,,,,,,,,,,,,,,,,,,,,,,,,,,,,,,,,,,,,,,,,,,,,,,,,,,,,,,,,,,,,,,,,,,,,,,,,,,,,,,,,,,,,,,,,,,,,,,,,,,,,,,,,,,,,,,,,,,,,,,,,,,,,,,,,,,,,,,,,,,,,
0,10,10,30,1,,611eb4cfb28943e584e11af0,62bbf9d58c9c0877dc5cb4a6,2022-06-29_09h13.11.367,Colour_Asymmetry_Pilot,2022.1.3,Win32,59.82292414,62bbe60bf3d75ef465d3e404,,,,,,,,,,,,,,,,,,,,,,,,,,,,,,,,,,,,,,,,,,,,,,,,,,,,,,,,,,,,,,,,,,,,,,,,,,,,,,,,,,,,,,,,,,,,,,,,,,,,,,,,,,,,,,,,,,,,,,,,,,,,,,,,,,,,,,,,,,,,,,,,,,,,,,,,,,,,,,
0,11,11,92,1,,611eb4cfb28943e584e11af0,62bbf9d58c9c0877dc5cb4a6,2022-06-29_09h13.11.367,Colour_Asymmetry_Pilot,2022.1.3,Win32,59.82292414,62bbe60bf3d75ef465d3e404,,,,,,,,,,,,,,,,,,,,,,,,,,,,,,,,,,,,,,,,,,,,,,,,,,,,,,,,,,,,,,,,,,,,,,,,,,,,,,,,,,,,,,,,,,,,,,,,,,,,,,,,,,,,,,,,,,,,,,,,,,,,,,,,,,,,,,,,,,,,,,,,,,,,,,,,,,,,,,
0,12,12,23,1,,611eb4cfb28943e584e11af0,62bbf9d58c9c0877dc5cb4a6,2022-06-29_09h13.11.367,Colour_Asymmetry_Pilot,2022.1.3,Win32,59.82292414,62bbe60bf3d75ef465d3e404,,,,,,,,,,,,,,,,,,,,,,,,,,,,,,,,,,,,,,,,,,,,,,,,,,,,,,,,,,,,,,,,,,,,,,,,,,,,,,,,,,,,,,,,,,,,,,,,,,,,,,,,,,,,,,,,,,,,,,,,,,,,,,,,,,,,,,,,,,,,,,,,,,,,,,,,,,,,,,
0,13,13,4,1,,611eb4cfb28943e584e11af0,62bbf9d58c9c0877dc5cb4a6,2022-06-29_09h13.11.367,Colour_Asymmetry_Pilot,2022.1.3,Win32,59.82292414,62bbe60bf3d75ef465d3e404,,,,,,,,,,,,,,,,,,,,,,,,,,,,,,,,,,,,,,,,,,,,,,,,,,,,,,,,,,,,,,,,,,,,,,,,,,,,,,,,,,,,,,,,,,,,,,,,,,,,,,,,,,,,,,,,,,,,,,,,,,,,,,,,,,,,,,,,,,,,,,,,,,,,,,,,,,,,,,
0,14,14,67,1,,611eb4cfb28943e584e11af0,62bbf9d58c9c0877dc5cb4a6,2022-06-29_09h13.11.367,Colour_Asymmetry_Pilot,2022.1.3,Win32,59.82292414,62bbe60bf3d75ef465d3e404,,,,,,,,,,,,,,,,,,,,,,,,,,,,,,,,,,,,,,,,,,,,,,,,,,,,,,,,,,,,,,,,,,,,,,,,,,,,,,,,,,,,,,,,,,,,,,,,,,,,,,,,,,,,,,,,,,,,,,,,,,,,,,,,,,,,,,,,,,,,,,,,,,,,,,,,,,,,,,
0,15,15,59,1,,611eb4cfb28943e584e11af0,62bbf9d58c9c0877dc5cb4a6,2022-06-29_09h13.11.367,Colour_Asymmetry_Pilot,2022.1.3,Win32,59.82292414,62bbe60bf3d75ef465d3e404,,,,,,,,,,,,,,,,,,,,,,,,,,,,,,,,,,,,,,,,,,,,,,,,,,,,,,,,,,,,,,,,,,,,,,,,,,,,,,,,,,,,,,,,,,,,,,,,,,,,,,,,,,,,,,,,,,,,,,,,,,,,,,,,,,,,,,,,,,,,,,,,,,,,,,,,,,,,,,
0,16,16,57,1,,611eb4cfb28943e584e11af0,62bbf9d58c9c0877dc5cb4a6,2022-06-29_09h13.11.367,Colour_Asymmetry_Pilot,2022.1.3,Win32,59.82292414,62bbe60bf3d75ef465d3e404,,,,,,,,,,,,,,,,,,,,,,,,,,,,,,,,,,,,,,,,,,,,,,,,,,,,,,,,,,,,,,,,,,,,,,,,,,,,,,,,,,,,,,,,,,,,,,,,,,,,,,,,,,,,,,,,,,,,,,,,,,,,,,,,,,,,,,,,,,,,,,,,,,,,,,,,,,,,,,
0,17,17,55,1,,611eb4cfb28943e584e11af0,62bbf9d58c9c0877dc5cb4a6,2022-06-29_09h13.11.367,Colour_Asymmetry_Pilot,2022.1.3,Win32,59.82292414,62bbe60bf3d75ef465d3e404,,,,,,,,,,,,,,,,,,,,,,,,,,,,,,,,,,,,,,,,,,,,,,,,,,,,,,,,,,,,,,,,,,,,,,,,,,,,,,,,,,,,,,,,,,,,,,,,,,,,,,,,,,,,,,,,,,,,,,,,,,,,,,,,,,,,,,,,,,,,,,,,,,,,,,,,,,,,,,
0,18,18,11,1,,611eb4cfb28943e584e11af0,62bbf9d58c9c0877dc5cb4a6,2022-06-29_09h13.11.367,Colour_Asymmetry_Pilot,2022.1.3,Win32,59.82292414,62bbe60bf3d75ef465d3e404,,,,,,,,,,,,,,,,,,,,,,,,,,,,,,,,,,,,,,,,,,,,,,,,,,,,,,,,,,,,,,,,,,,,,,,,,,,,,,,,,,,,,,,,,,,,,,,,,,,,,,,,,,,,,,,,,,,,,,,,,,,,,,,,,,,,,,,,,,,,,,,,,,,,,,,,,,,,,,
0,19,19,44,1,,611eb4cfb28943e584e11af0,62bbf9d58c9c0877dc5cb4a6,2022-06-29_09h13.11.367,Colour_Asymmetry_Pilot,2022.1.3,Win32,59.82292414,62bbe60bf3d75ef465d3e404,,,,,,,,,,,,,,,,,,,,,,,,,,,,,,,,,,,,,,,,,,,,,,,,,,,,,,,,,,,,,,,,,,,,,,,,,,,,,,,,,,,,,,,,,,,,,,,,,,,,,,,,,,,,,,,,,,,,,,,,,,,,,,,,,,,,,,,,,,,,,,,,,,,,,,,,,,,,,,
0,20,20,1,1,,611eb4cfb28943e584e11af0,62bbf9d58c9c0877dc5cb4a6,2022-06-29_09h13.11.367,Colour_Asymmetry_Pilot,2022.1.3,Win32,59.82292414,62bbe60bf3d75ef465d3e404,,,,,,,,,,,,,,,,,,,,,,,,,,,,,,,,,,,,,,,,,,,,,,,,,,,,,,,,,,,,,,,,,,,,,,,,,,,,,,,,,,,,,,,,,,,,,,,,,,,,,,,,,,,,,,,,,,,,,,,,,,,,,,,,,,,,,,,,,,,,,,,,,,,,,,,,,,,,,,
0,21,21,35,1,,611eb4cfb28943e584e11af0,62bbf9d58c9c0877dc5cb4a6,2022-06-29_09h13.11.367,Colour_Asymmetry_Pilot,2022.1.3,Win32,59.82292414,62bbe60bf3d75ef465d3e404,,,,,,,,,,,,,,,,,,,,,,,,,,,,,,,,,,,,,,,,,,,,,,,,,,,,,,,,,,,,,,,,,,,,,,,,,,,,,,,,,,,,,,,,,,,,,,,,,,,,,,,,,,,,,,,,,,,,,,,,,,,,,,,,,,,,,,,,,,,,,,,,,,,,,,,,,,,,,,
0,22,22,80,1,,611eb4cfb28943e584e11af0,62bbf9d58c9c0877dc5cb4a6,2022-06-29_09h13.11.367,Colour_Asymmetry_Pilot,2022.1.3,Win32,59.82292414,62bbe60bf3d75ef465d3e404,,,,,,,,,,,,,,,,,,,,,,,,,,,,,,,,,,,,,,,,,,,,,,,,,,,,,,,,,,,,,,,,,,,,,,,,,,,,,,,,,,,,,,,,,,,,,,,,,,,,,,,,,,,,,,,,,,,,,,,,,,,,,,,,,,,,,,,,,,,,,,,,,,,,,,,,,,,,,,
0,23,23,61,1,,611eb4cfb28943e584e11af0,62bbf9d58c9c0877dc5cb4a6,2022-06-29_09h13.11.367,Colour_Asymmetry_Pilot,2022.1.3,Win32,59.82292414,62bbe60bf3d75ef465d3e404,,,,,,,,,,,,,,,,,,,,,,,,,,,,,,,,,,,,,,,,,,,,,,,,,,,,,,,,,,,,,,,,,,,,,,,,,,,,,,,,,,,,,,,,,,,,,,,,,,,,,,,,,,,,,,,,,,,,,,,,,,,,,,,,,,,,,,,,,,,,,,,,,,,,,,,,,,,,,,
0,24,24,86,1,,611eb4cfb28943e584e11af0,62bbf9d58c9c0877dc5cb4a6,2022-06-29_09h13.11.367,Colour_Asymmetry_Pilot,2022.1.3,Win32,59.82292414,62bbe60bf3d75ef465d3e404,,,,,,,,,,,,,,,,,,,,,,,,,,,,,,,,,,,,,,,,,,,,,,,,,,,,,,,,,,,,,,,,,,,,,,,,,,,,,,,,,,,,,,,,,,,,,,,,,,,,,,,,,,,,,,,,,,,,,,,,,,,,,,,,,,,,,,,,,,,,,,,,,,,,,,,,,,,,,,
0,25,25,25,1,,611eb4cfb28943e584e11af0,62bbf9d58c9c0877dc5cb4a6,2022-06-29_09h13.11.367,Colour_Asymmetry_Pilot,2022.1.3,Win32,59.82292414,62bbe60bf3d75ef465d3e404,,,,,,,,,,,,,,,,,,,,,,,,,,,,,,,,,,,,,,,,,,,,,,,,,,,,,,,,,,,,,,,,,,,,,,,,,,,,,,,,,,,,,,,,,,,,,,,,,,,,,,,,,,,,,,,,,,,,,,,,,,,,,,,,,,,,,,,,,,,,,,,,,,,,,,,,,,,,,,
0,26,26,82,1,,611eb4cfb28943e584e11af0,62bbf9d58c9c0877dc5cb4a6,2022-06-29_09h13.11.367,Colour_Asymmetry_Pilot,2022.1.3,Win32,59.82292414,62bbe60bf3d75ef465d3e404,,,,,,,,,,,,,,,,,,,,,,,,,,,,,,,,,,,,,,,,,,,,,,,,,,,,,,,,,,,,,,,,,,,,,,,,,,,,,,,,,,,,,,,,,,,,,,,,,,,,,,,,,,,,,,,,,,,,,,,,,,,,,,,,,,,,,,,,,,,,,,,,,,,,,,,,,,,,,,
0,27,27,88,1,,611eb4cfb28943e584e11af0,62bbf9d58c9c0877dc5cb4a6,2022-06-29_09h13.11.367,Colour_Asymmetry_Pilot,2022.1.3,Win32,59.82292414,62bbe60bf3d75ef465d3e404,,,,,,,,,,,,,,,,,,,,,,,,,,,,,,,,,,,,,,,,,,,,,,,,,,,,,,,,,,,,,,,,,,,,,,,,,,,,,,,,,,,,,,,,,,,,,,,,,,,,,,,,,,,,,,,,,,,,,,,,,,,,,,,,,,,,,,,,,,,,,,,,,,,,,,,,,,,,,,
0,28,28,52,1,,611eb4cfb28943e584e11af0,62bbf9d58c9c0877dc5cb4a6,2022-06-29_09h13.11.367,Colour_Asymmetry_Pilot,2022.1.3,Win32,59.82292414,62bbe60bf3d75ef465d3e404,,,,,,,,,,,,,,,,,,,,,,,,,,,,,,,,,,,,,,,,,,,,,,,,,,,,,,,,,,,,,,,,,,,,,,,,,,,,,,,,,,,,,,,,,,,,,,,,,,,,,,,,,,,,,,,,,,,,,,,,,,,,,,,,,,,,,,,,,,,,,,,,,,,,,,,,,,,,,,
0,29,29,28,1,,611eb4cfb28943e584e11af0,62bbf9d58c9c0877dc5cb4a6,2022-06-29_09h13.11.367,Colour_Asymmetry_Pilot,2022.1.3,Win32,59.82292414,62bbe60bf3d75ef465d3e404,,,,,,,,,,,,,,,,,,,,,,,,,,,,,,,,,,,,,,,,,,,,,,,,,,,,,,,,,,,,,,,,,,,,,,,,,,,,,,,,,,,,,,,,,,,,,,,,,,,,,,,,,,,,,,,,,,,,,,,,,,,,,,,,,,,,,,,,,,,,,,,,,,,,,,,,,,,,,,
0,30,30,79,1,,611eb4cfb28943e584e11af0,62bbf9d58c9c0877dc5cb4a6,2022-06-29_09h13.11.367,Colour_Asymmetry_Pilot,2022.1.3,Win32,59.82292414,62bbe60bf3d75ef465d3e404,,,,,,,,,,,,,,,,,,,,,,,,,,,,,,,,,,,,,,,,,,,,,,,,,,,,,,,,,,,,,,,,,,,,,,,,,,,,,,,,,,,,,,,,,,,,,,,,,,,,,,,,,,,,,,,,,,,,,,,,,,,,,,,,,,,,,,,,,,,,,,,,,,,,,,,,,,,,,,
0,31,31,18,1,,611eb4cfb28943e584e11af0,62bbf9d58c9c0877dc5cb4a6,2022-06-29_09h13.11.367,Colour_Asymmetry_Pilot,2022.1.3,Win32,59.82292414,62bbe60bf3d75ef465d3e404,,,,,,,,,,,,,,,,,,,,,,,,,,,,,,,,,,,,,,,,,,,,,,,,,,,,,,,,,,,,,,,,,,,,,,,,,,,,,,,,,,,,,,,,,,,,,,,,,,,,,,,,,,,,,,,,,,,,,,,,,,,,,,,,,,,,,,,,,,,,,,,,,,,,,,,,,,,,,,
0,32,32,36,1,,611eb4cfb28943e584e11af0,62bbf9d58c9c0877dc5cb4a6,2022-06-29_09h13.11.367,Colour_Asymmetry_Pilot,2022.1.3,Win32,59.82292414,62bbe60bf3d75ef465d3e404,,,,,,,,,,,,,,,,,,,,,,,,,,,,,,,,,,,,,,,,,,,,,,,,,,,,,,,,,,,,,,,,,,,,,,,,,,,,,,,,,,,,,,,,,,,,,,,,,,,,,,,,,,,,,,,,,,,,,,,,,,,,,,,,,,,,,,,,,,,,,,,,,,,,,,,,,,,,,,
0,33,33,64,1,,611eb4cfb28943e584e11af0,62bbf9d58c9c0877dc5cb4a6,2022-06-29_09h13.11.367,Colour_Asymmetry_Pilot,2022.1.3,Win32,59.82292414,62bbe60bf3d75ef465d3e404,,,,,,,,,,,,,,,,,,,,,,,,,,,,,,,,,,,,,,,,,,,,,,,,,,,,,,,,,,,,,,,,,,,,,,,,,,,,,,,,,,,,,,,,,,,,,,,,,,,,,,,,,,,,,,,,,,,,,,,,,,,,,,,,,,,,,,,,,,,,,,,,,,,,,,,,,,,,,,
0,34,34,74,1,,611eb4cfb28943e584e11af0,62bbf9d58c9c0877dc5cb4a6,2022-06-29_09h13.11.367,Colour_Asymmetry_Pilot,2022.1.3,Win32,59.82292414,62bbe60bf3d75ef465d3e404,,,,,,,,,,,,,,,,,,,,,,,,,,,,,,,,,,,,,,,,,,,,,,,,,,,,,,,,,,,,,,,,,,,,,,,,,,,,,,,,,,,,,,,,,,,,,,,,,,,,,,,,,,,,,,,,,,,,,,,,,,,,,,,,,,,,,,,,,,,,,,,,,,,,,,,,,,,,,,
0,35,35,62,1,,611eb4cfb28943e584e11af0,62bbf9d58c9c0877dc5cb4a6,2022-06-29_09h13.11.367,Colour_Asymmetry_Pilot,2022.1.3,Win32,59.82292414,62bbe60bf3d75ef465d3e404,,,,,,,,,,,,,,,,,,,,,,,,,,,,,,,,,,,,,,,,,,,,,,,,,,,,,,,,,,,,,,,,,,,,,,,,,,,,,,,,,,,,,,,,,,,,,,,,,,,,,,,,,,,,,,,,,,,,,,,,,,,,,,,,,,,,,,,,,,,,,,,,,,,,,,,,,,,,,,
0,36,36,63,1,,611eb4cfb28943e584e11af0,62bbf9d58c9c0877dc5cb4a6,2022-06-29_09h13.11.367,Colour_Asymmetry_Pilot,2022.1.3,Win32,59.82292414,62bbe60bf3d75ef465d3e404,,,,,,,,,,,,,,,,,,,,,,,,,,,,,,,,,,,,,,,,,,,,,,,,,,,,,,,,,,,,,,,,,,,,,,,,,,,,,,,,,,,,,,,,,,,,,,,,,,,,,,,,,,,,,,,,,,,,,,,,,,,,,,,,,,,,,,,,,,,,,,,,,,,,,,,,,,,,,,
0,37,37,53,1,,611eb4cfb28943e584e11af0,62bbf9d58c9c0877dc5cb4a6,2022-06-29_09h13.11.367,Colour_Asymmetry_Pilot,2022.1.3,Win32,59.82292414,62bbe60bf3d75ef465d3e404,,,,,,,,,,,,,,,,,,,,,,,,,,,,,,,,,,,,,,,,,,,,,,,,,,,,,,,,,,,,,,,,,,,,,,,,,,,,,,,,,,,,,,,,,,,,,,,,,,,,,,,,,,,,,,,,,,,,,,,,,,,,,,,,,,,,,,,,,,,,,,,,,,,,,,,,,,,,,,
0,38,38,85,1,,611eb4cfb28943e584e11af0,62bbf9d58c9c0877dc5cb4a6,2022-06-29_09h13.11.367,Colour_Asymmetry_Pilot,2022.1.3,Win32,59.82292414,62bbe60bf3d75ef465d3e404,,,,,,,,,,,,,,,,,,,,,,,,,,,,,,,,,,,,,,,,,,,,,,,,,,,,,,,,,,,,,,,,,,,,,,,,,,,,,,,,,,,,,,,,,,,,,,,,,,,,,,,,,,,,,,,,,,,,,,,,,,,,,,,,,,,,,,,,,,,,,,,,,,,,,,,,,,,,,,
0,39,39,43,1,,611eb4cfb28943e584e11af0,62bbf9d58c9c0877dc5cb4a6,2022-06-29_09h13.11.367,Colour_Asymmetry_Pilot,2022.1.3,Win32,59.82292414,62bbe60bf3d75ef465d3e404,,,,,,,,,,,,,,,,,,,,,,,,,,,,,,,,,,,,,,,,,,,,,,,,,,,,,,,,,,,,,,,,,,,,,,,,,,,,,,,,,,,,,,,,,,,,,,,,,,,,,,,,,,,,,,,,,,,,,,,,,,,,,,,,,,,,,,,,,,,,,,,,,,,,,,,,,,,,,,
0,40,40,2,1,,611eb4cfb28943e584e11af0,62bbf9d58c9c0877dc5cb4a6,2022-06-29_09h13.11.367,Colour_Asymmetry_Pilot,2022.1.3,Win32,59.82292414,62bbe60bf3d75ef465d3e404,,,,,,,,,,,,,,,,,,,,,,,,,,,,,,,,,,,,,,,,,,,,,,,,,,,,,,,,,,,,,,,,,,,,,,,,,,,,,,,,,,,,,,,,,,,,,,,,,,,,,,,,,,,,,,,,,,,,,,,,,,,,,,,,,,,,,,,,,,,,,,,,,,,,,,,,,,,,,,
0,41,41,15,1,,611eb4cfb28943e584e11af0,62bbf9d58c9c0877dc5cb4a6,2022-06-29_09h13.11.367,Colour_Asymmetry_Pilot,2022.1.3,Win32,59.82292414,62bbe60bf3d75ef465d3e404,,,,,,,,,,,,,,,,,,,,,,,,,,,,,,,,,,,,,,,,,,,,,,,,,,,,,,,,,,,,,,,,,,,,,,,,,,,,,,,,,,,,,,,,,,,,,,,,,,,,,,,,,,,,,,,,,,,,,,,,,,,,,,,,,,,,,,,,,,,,,,,,,,,,,,,,,,,,,,
0,42,42,16,1,,611eb4cfb28943e584e11af0,62bbf9d58c9c0877dc5cb4a6,2022-06-29_09h13.11.367,Colour_Asymmetry_Pilot,2022.1.3,Win32,59.82292414,62bbe60bf3d75ef465d3e404,,,,,,,,,,,,,,,,,,,,,,,,,,,,,,,,,,,,,,,,,,,,,,,,,,,,,,,,,,,,,,,,,,,,,,,,,,,,,,,,,,,,,,,,,,,,,,,,,,,,,,,,,,,,,,,,,,,,,,,,,,,,,,,,,,,,,,,,,,,,,,,,,,,,,,,,,,,,,,
0,43,43,20,1,,611eb4cfb28943e584e11af0,62bbf9d58c9c0877dc5cb4a6,2022-06-29_09h13.11.367,Colour_Asymmetry_Pilot,2022.1.3,Win32,59.82292414,62bbe60bf3d75ef465d3e404,,,,,,,,,,,,,,,,,,,,,,,,,,,,,,,,,,,,,,,,,,,,,,,,,,,,,,,,,,,,,,,,,,,,,,,,,,,,,,,,,,,,,,,,,,,,,,,,,,,,,,,,,,,,,,,,,,,,,,,,,,,,,,,,,,,,,,,,,,,,,,,,,,,,,,,,,,,,,,
0,44,44,29,1,,611eb4cfb28943e584e11af0,62bbf9d58c9c0877dc5cb4a6,2022-06-29_09h13.11.367,Colour_Asymmetry_Pilot,2022.1.3,Win32,59.82292414,62bbe60bf3d75ef465d3e404,,,,,,,,,,,,,,,,,,,,,,,,,,,,,,,,,,,,,,,,,,,,,,,,,,,,,,,,,,,,,,,,,,,,,,,,,,,,,,,,,,,,,,,,,,,,,,,,,,,,,,,,,,,,,,,,,,,,,,,,,,,,,,,,,,,,,,,,,,,,,,,,,,,,,,,,,,,,,,
0,45,45,14,1,,611eb4cfb28943e584e11af0,62bbf9d58c9c0877dc5cb4a6,2022-06-29_09h13.11.367,Colour_Asymmetry_Pilot,2022.1.3,Win32,59.82292414,62bbe60bf3d75ef465d3e404,,,,,,,,,,,,,,,,,,,,,,,,,,,,,,,,,,,,,,,,,,,,,,,,,,,,,,,,,,,,,,,,,,,,,,,,,,,,,,,,,,,,,,,,,,,,,,,,,,,,,,,,,,,,,,,,,,,,,,,,,,,,,,,,,,,,,,,,,,,,,,,,,,,,,,,,,,,,,,
0,46,46,46,1,,611eb4cfb28943e584e11af0,62bbf9d58c9c0877dc5cb4a6,2022-06-29_09h13.11.367,Colour_Asymmetry_Pilot,2022.1.3,Win32,59.82292414,62bbe60bf3d75ef465d3e404,,,,,,,,,,,,,,,,,,,,,,,,,,,,,,,,,,,,,,,,,,,,,,,,,,,,,,,,,,,,,,,,,,,,,,,,,,,,,,,,,,,,,,,,,,,,,,,,,,,,,,,,,,,,,,,,,,,,,,,,,,,,,,,,,,,,,,,,,,,,,,,,,,,,,,,,,,,,,,
0,47,47,7,1,,611eb4cfb28943e584e11af0,62bbf9d58c9c0877dc5cb4a6,2022-06-29_09h13.11.367,Colour_Asymmetry_Pilot,2022.1.3,Win32,59.82292414,62bbe60bf3d75ef465d3e404,,,,,,,,,,,,,,,,,,,,,,,,,,,,,,,,,,,,,,,,,,,,,,,,,,,,,,,,,,,,,,,,,,,,,,,,,,,,,,,,,,,,,,,,,,,,,,,,,,,,,,,,,,,,,,,,,,,,,,,,,,,,,,,,,,,,,,,,,,,,,,,,,,,,,,,,,,,,,,
0,48,48,19,1,,611eb4cfb28943e584e11af0,62bbf9d58c9c0877dc5cb4a6,2022-06-29_09h13.11.367,Colour_Asymmetry_Pilot,2022.1.3,Win32,59.82292414,62bbe60bf3d75ef465d3e404,,,,,,,,,,,,,,,,,,,,,,,,,,,,,,,,,,,,,,,,,,,,,,,,,,,,,,,,,,,,,,,,,,,,,,,,,,,,,,,,,,,,,,,,,,,,,,,,,,,,,,,,,,,,,,,,,,,,,,,,,,,,,,,,,,,,,,,,,,,,,,,,,,,,,,,,,,,,,,
0,49,49,33,1,,611eb4cfb28943e584e11af0,62bbf9d58c9c0877dc5cb4a6,2022-06-29_09h13.11.367,Colour_Asymmetry_Pilot,2022.1.3,Win32,59.82292414,62bbe60bf3d75ef465d3e404,,,,,,,,,,,,,,,,,,,,,,,,,,,,,,,,,,,,,,,,,,,,,,,,,,,,,,,,,,,,,,,,,,,,,,,,,,,,,,,,,,,,,,,,,,,,,,,,,,,,,,,,,,,,,,,,,,,,,,,,,,,,,,,,,,,,,,,,,,,,,,,,,,,,,,,,,,,,,,
0,50,50,9,1,,611eb4cfb28943e584e11af0,62bbf9d58c9c0877dc5cb4a6,2022-06-29_09h13.11.367,Colour_Asymmetry_Pilot,2022.1.3,Win32,59.82292414,62bbe60bf3d75ef465d3e404,,,,,,,,,,,,,,,,,,,,,,,,,,,,,,,,,,,,,,,,,,,,,,,,,,,,,,,,,,,,,,,,,,,,,,,,,,,,,,,,,,,,,,,,,,,,,,,,,,,,,,,,,,,,,,,,,,,,,,,,,,,,,,,,,,,,,,,,,,,,,,,,,,,,,,,,,,,,,,
0,51,51,68,1,,611eb4cfb28943e584e11af0,62bbf9d58c9c0877dc5cb4a6,2022-06-29_09h13.11.367,Colour_Asymmetry_Pilot,2022.1.3,Win32,59.82292414,62bbe60bf3d75ef465d3e404,,,,,,,,,,,,,,,,,,,,,,,,,,,,,,,,,,,,,,,,,,,,,,,,,,,,,,,,,,,,,,,,,,,,,,,,,,,,,,,,,,,,,,,,,,,,,,,,,,,,,,,,,,,,,,,,,,,,,,,,,,,,,,,,,,,,,,,,,,,,,,,,,,,,,,,,,,,,,,
0,52,52,5,1,,611eb4cfb28943e584e11af0,62bbf9d58c9c0877dc5cb4a6,2022-06-29_09h13.11.367,Colour_Asymmetry_Pilot,2022.1.3,Win32,59.82292414,62bbe60bf3d75ef465d3e404,,,,,,,,,,,,,,,,,,,,,,,,,,,,,,,,,,,,,,,,,,,,,,,,,,,,,,,,,,,,,,,,,,,,,,,,,,,,,,,,,,,,,,,,,,,,,,,,,,,,,,,,,,,,,,,,,,,,,,,,,,,,,,,,,,,,,,,,,,,,,,,,,,,,,,,,,,,,,,
0,53,53,90,1,,611eb4cfb28943e584e11af0,62bbf9d58c9c0877dc5cb4a6,2022-06-29_09h13.11.367,Colour_Asymmetry_Pilot,2022.1.3,Win32,59.82292414,62bbe60bf3d75ef465d3e404,,,,,,,,,,,,,,,,,,,,,,,,,,,,,,,,,,,,,,,,,,,,,,,,,,,,,,,,,,,,,,,,,,,,,,,,,,,,,,,,,,,,,,,,,,,,,,,,,,,,,,,,,,,,,,,,,,,,,,,,,,,,,,,,,,,,,,,,,,,,,,,,,,,,,,,,,,,,,,
0,54,54,22,1,,611eb4cfb28943e584e11af0,62bbf9d58c9c0877dc5cb4a6,2022-06-29_09h13.11.367,Colour_Asymmetry_Pilot,2022.1.3,Win32,59.82292414,62bbe60bf3d75ef465d3e404,,,,,,,,,,,,,,,,,,,,,,,,,,,,,,,,,,,,,,,,,,,,,,,,,,,,,,,,,,,,,,,,,,,,,,,,,,,,,,,,,,,,,,,,,,,,,,,,,,,,,,,,,,,,,,,,,,,,,,,,,,,,,,,,,,,,,,,,,,,,,,,,,,,,,,,,,,,,,,
0,55,55,66,1,,611eb4cfb28943e584e11af0,62bbf9d58c9c0877dc5cb4a6,2022-06-29_09h13.11.367,Colour_Asymmetry_Pilot,2022.1.3,Win32,59.82292414,62bbe60bf3d75ef465d3e404,,,,,,,,,,,,,,,,,,,,,,,,,,,,,,,,,,,,,,,,,,,,,,,,,,,,,,,,,,,,,,,,,,,,,,,,,,,,,,,,,,,,,,,,,,,,,,,,,,,,,,,,,,,,,,,,,,,,,,,,,,,,,,,,,,,,,,,,,,,,,,,,,,,,,,,,,,,,,,
0,56,56,31,1,,611eb4cfb28943e584e11af0,62bbf9d58c9c0877dc5cb4a6,2022-06-29_09h13.11.367,Colour_Asymmetry_Pilot,2022.1.3,Win32,59.82292414,62bbe60bf3d75ef465d3e404,,,,,,,,,,,,,,,,,,,,,,,,,,,,,,,,,,,,,,,,,,,,,,,,,,,,,,,,,,,,,,,,,,,,,,,,,,,,,,,,,,,,,,,,,,,,,,,,,,,,,,,,,,,,,,,,,,,,,,,,,,,,,,,,,,,,,,,,,,,,,,,,,,,,,,,,,,,,,,
0,57,57,41,1,,611eb4cfb28943e584e11af0,62bbf9d58c9c0877dc5cb4a6,2022-06-29_09h13.11.367,Colour_Asymmetry_Pilot,2022.1.3,Win32,59.82292414,62bbe60bf3d75ef465d3e404,,,,,,,,,,,,,,,,,,,,,,,,,,,,,,,,,,,,,,,,,,,,,,,,,,,,,,,,,,,,,,,,,,,,,,,,,,,,,,,,,,,,,,,,,,,,,,,,,,,,,,,,,,,,,,,,,,,,,,,,,,,,,,,,,,,,,,,,,,,,,,,,,,,,,,,,,,,,,,
0,58,58,38,1,,611eb4cfb28943e584e11af0,62bbf9d58c9c0877dc5cb4a6,2022-06-29_09h13.11.367,Colour_Asymmetry_Pilot,2022.1.3,Win32,59.82292414,62bbe60bf3d75ef465d3e404,,,,,,,,,,,,,,,,,,,,,,,,,,,,,,,,,,,,,,,,,,,,,,,,,,,,,,,,,,,,,,,,,,,,,,,,,,,,,,,,,,,,,,,,,,,,,,,,,,,,,,,,,,,,,,,,,,,,,,,,,,,,,,,,,,,,,,,,,,,,,,,,,,,,,,,,,,,,,,
0,59,59,54,1,,611eb4cfb28943e584e11af0,62bbf9d58c9c0877dc5cb4a6,2022-06-29_09h13.11.367,Colour_Asymmetry_Pilot,2022.1.3,Win32,59.82292414,62bbe60bf3d75ef465d3e404,,,,,,,,,,,,,,,,,,,,,,,,,,,,,,,,,,,,,,,,,,,,,,,,,,,,,,,,,,,,,,,,,,,,,,,,,,,,,,,,,,,,,,,,,,,,,,,,,,,,,,,,,,,,,,,,,,,,,,,,,,,,,,,,,,,,,,,,,,,,,,,,,,,,,,,,,,,,,,
0,60,60,3,1,,611eb4cfb28943e584e11af0,62bbf9d58c9c0877dc5cb4a6,2022-06-29_09h13.11.367,Colour_Asymmetry_Pilot,2022.1.3,Win32,59.82292414,62bbe60bf3d75ef465d3e404,,,,,,,,,,,,,,,,,,,,,,,,,,,,,,,,,,,,,,,,,,,,,,,,,,,,,,,,,,,,,,,,,,,,,,,,,,,,,,,,,,,,,,,,,,,,,,,,,,,,,,,,,,,,,,,,,,,,,,,,,,,,,,,,,,,,,,,,,,,,,,,,,,,,,,,,,,,,,,
0,61,61,78,1,,611eb4cfb28943e584e11af0,62bbf9d58c9c0877dc5cb4a6,2022-06-29_09h13.11.367,Colour_Asymmetry_Pilot,2022.1.3,Win32,59.82292414,62bbe60bf3d75ef465d3e404,,,,,,,,,,,,,,,,,,,,,,,,,,,,,,,,,,,,,,,,,,,,,,,,,,,,,,,,,,,,,,,,,,,,,,,,,,,,,,,,,,,,,,,,,,,,,,,,,,,,,,,,,,,,,,,,,,,,,,,,,,,,,,,,,,,,,,,,,,,,,,,,,,,,,,,,,,,,,,
0,62,62,34,1,,611eb4cfb28943e584e11af0,62bbf9d58c9c0877dc5cb4a6,2022-06-29_09h13.11.367,Colour_Asymmetry_Pilot,2022.1.3,Win32,59.82292414,62bbe60bf3d75ef465d3e404,,,,,,,,,,,,,,,,,,,,,,,,,,,,,,,,,,,,,,,,,,,,,,,,,,,,,,,,,,,,,,,,,,,,,,,,,,,,,,,,,,,,,,,,,,,,,,,,,,,,,,,,,,,,,,,,,,,,,,,,,,,,,,,,,,,,,,,,,,,,,,,,,,,,,,,,,,,,,,
0,63,63,12,1,,611eb4cfb28943e584e11af0,62bbf9d58c9c0877dc5cb4a6,2022-06-29_09h13.11.367,Colour_Asymmetry_Pilot,2022.1.3,Win32,59.82292414,62bbe60bf3d75ef465d3e404,,,,,,,,,,,,,,,,,,,,,,,,,,,,,,,,,,,,,,,,,,,,,,,,,,,,,,,,,,,,,,,,,,,,,,,,,,,,,,,,,,,,,,,,,,,,,,,,,,,,,,,,,,,,,,,,,,,,,,,,,,,,,,,,,,,,,,,,,,,,,,,,,,,,,,,,,,,,,,
0,64,64,21,1,,611eb4cfb28943e584e11af0,62bbf9d58c9c0877dc5cb4a6,2022-06-29_09h13.11.367,Colour_Asymmetry_Pilot,2022.1.3,Win32,59.82292414,62bbe60bf3d75ef465d3e404,,,,,,,,,,,,,,,,,,,,,,,,,,,,,,,,,,,,,,,,,,,,,,,,,,,,,,,,,,,,,,,,,,,,,,,,,,,,,,,,,,,,,,,,,,,,,,,,,,,,,,,,,,,,,,,,,,,,,,,,,,,,,,,,,,,,,,,,,,,,,,,,,,,,,,,,,,,,,,
0,65,65,60,1,,611eb4cfb28943e584e11af0,62bbf9d58c9c0877dc5cb4a6,2022-06-29_09h13.11.367,Colour_Asymmetry_Pilot,2022.1.3,Win32,59.82292414,62bbe60bf3d75ef465d3e404,,,,,,,,,,,,,,,,,,,,,,,,,,,,,,,,,,,,,,,,,,,,,,,,,,,,,,,,,,,,,,,,,,,,,,,,,,,,,,,,,,,,,,,,,,,,,,,,,,,,,,,,,,,,,,,,,,,,,,,,,,,,,,,,,,,,,,,,,,,,,,,,,,,,,,,,,,,,,,
0,66,66,8,1,,611eb4cfb28943e584e11af0,62bbf9d58c9c0877dc5cb4a6,2022-06-29_09h13.11.367,Colour_Asymmetry_Pilot,2022.1.3,Win32,59.82292414,62bbe60bf3d75ef465d3e404,,,,,,,,,,,,,,,,,,,,,,,,,,,,,,,,,,,,,,,,,,,,,,,,,,,,,,,,,,,,,,,,,,,,,,,,,,,,,,,,,,,,,,,,,,,,,,,,,,,,,,,,,,,,,,,,,,,,,,,,,,,,,,,,,,,,,,,,,,,,,,,,,,,,,,,,,,,,,,
0,67,67,72,1,,611eb4cfb28943e584e11af0,62bbf9d58c9c0877dc5cb4a6,2022-06-29_09h13.11.367,Colour_Asymmetry_Pilot,2022.1.3,Win32,59.82292414,62bbe60bf3d75ef465d3e404,,,,,,,,,,,,,,,,,,,,,,,,,,,,,,,,,,,,,,,,,,,,,,,,,,,,,,,,,,,,,,,,,,,,,,,,,,,,,,,,,,,,,,,,,,,,,,,,,,,,,,,,,,,,,,,,,,,,,,,,,,,,,,,,,,,,,,,,,,,,,,,,,,,,,,,,,,,,,,
0,68,68,65,1,,611eb4cfb28943e584e11af0,62bbf9d58c9c0877dc5cb4a6,2022-06-29_09h13.11.367,Colour_Asymmetry_Pilot,2022.1.3,Win32,59.82292414,62bbe60bf3d75ef465d3e404,,,,,,,,,,,,,,,,,,,,,,,,,,,,,,,,,,,,,,,,,,,,,,,,,,,,,,,,,,,,,,,,,,,,,,,,,,,,,,,,,,,,,,,,,,,,,,,,,,,,,,,,,,,,,,,,,,,,,,,,,,,,,,,,,,,,,,,,,,,,,,,,,,,,,,,,,,,,,,
0,69,69,83,1,,611eb4cfb28943e584e11af0,62bbf9d58c9c0877dc5cb4a6,2022-06-29_09h13.11.367,Colour_Asymmetry_Pilot,2022.1.3,Win32,59.82292414,62bbe60bf3d75ef465d3e404,,,,,,,,,,,,,,,,,,,,,,,,,,,,,,,,,,,,,,,,,,,,,,,,,,,,,,,,,,,,,,,,,,,,,,,,,,,,,,,,,,,,,,,,,,,,,,,,,,,,,,,,,,,,,,,,,,,,,,,,,,,,,,,,,,,,,,,,,,,,,,,,,,,,,,,,,,,,,,
0,70,70,73,1,,611eb4cfb28943e584e11af0,62bbf9d58c9c0877dc5cb4a6,2022-06-29_09h13.11.367,Colour_Asymmetry_Pilot,2022.1.3,Win32,59.82292414,62bbe60bf3d75ef465d3e404,,,,,,,,,,,,,,,,,,,,,,,,,,,,,,,,,,,,,,,,,,,,,,,,,,,,,,,,,,,,,,,,,,,,,,,,,,,,,,,,,,,,,,,,,,,,,,,,,,,,,,,,,,,,,,,,,,,,,,,,,,,,,,,,,,,,,,,,,,,,,,,,,,,,,,,,,,,,,,
0,71,71,87,1,,611eb4cfb28943e584e11af0,62bbf9d58c9c0877dc5cb4a6,2022-06-29_09h13.11.367,Colour_Asymmetry_Pilot,2022.1.3,Win32,59.82292414,62bbe60bf3d75ef465d3e404,,,,,,,,,,,,,,,,,,,,,,,,,,,,,,,,,,,,,,,,,,,,,,,,,,,,,,,,,,,,,,,,,,,,,,,,,,,,,,,,,,,,,,,,,,,,,,,,,,,,,,,,,,,,,,,,,,,,,,,,,,,,,,,,,,,,,,,,,,,,,,,,,,,,,,,,,,,,,,
0,72,72,17,1,,611eb4cfb28943e584e11af0,62bbf9d58c9c0877dc5cb4a6,2022-06-29_09h13.11.367,Colour_Asymmetry_Pilot,2022.1.3,Win32,59.82292414,62bbe60bf3d75ef465d3e404,,,,,,,,,,,,,,,,,,,,,,,,,,,,,,,,,,,,,,,,,,,,,,,,,,,,,,,,,,,,,,,,,,,,,,,,,,,,,,,,,,,,,,,,,,,,,,,,,,,,,,,,,,,,,,,,,,,,,,,,,,,,,,,,,,,,,,,,,,,,,,,,,,,,,,,,,,,,,,
0,73,73,58,1,,611eb4cfb28943e584e11af0,62bbf9d58c9c0877dc5cb4a6,2022-06-29_09h13.11.367,Colour_Asymmetry_Pilot,2022.1.3,Win32,59.82292414,62bbe60bf3d75ef465d3e404,,,,,,,,,,,,,,,,,,,,,,,,,,,,,,,,,,,,,,,,,,,,,,,,,,,,,,,,,,,,,,,,,,,,,,,,,,,,,,,,,,,,,,,,,,,,,,,,,,,,,,,,,,,,,,,,,,,,,,,,,,,,,,,,,,,,,,,,,,,,,,,,,,,,,,,,,,,,,,
0,74,74,89,1,,611eb4cfb28943e584e11af0,62bbf9d58c9c0877dc5cb4a6,2022-06-29_09h13.11.367,Colour_Asymmetry_Pilot,2022.1.3,Win32,59.82292414,62bbe60bf3d75ef465d3e404,,,,,,,,,,,,,,,,,,,,,,,,,,,,,,,,,,,,,,,,,,,,,,,,,,,,,,,,,,,,,,,,,,,,,,,,,,,,,,,,,,,,,,,,,,,,,,,,,,,,,,,,,,,,,,,,,,,,,,,,,,,,,,,,,,,,,,,,,,,,,,,,,,,,,,,,,,,,,,
0,75,75,32,1,,611eb4cfb28943e584e11af0,62bbf9d58c9c0877dc5cb4a6,2022-06-29_09h13.11.367,Colour_Asymmetry_Pilot,2022.1.3,Win32,59.82292414,62bbe60bf3d75ef465d3e404,,,,,,,,,,,,,,,,,,,,,,,,,,,,,,,,,,,,,,,,,,,,,,,,,,,,,,,,,,,,,,,,,,,,,,,,,,,,,,,,,,,,,,,,,,,,,,,,,,,,,,,,,,,,,,,,,,,,,,,,,,,,,,,,,,,,,,,,,,,,,,,,,,,,,,,,,,,,,,
0,76,76,71,1,,611eb4cfb28943e584e11af0,62bbf9d58c9c0877dc5cb4a6,2022-06-29_09h13.11.367,Colour_Asymmetry_Pilot,2022.1.3,Win32,59.82292414,62bbe60bf3d75ef465d3e404,,,,,,,,,,,,,,,,,,,,,,,,,,,,,,,,,,,,,,,,,,,,,,,,,,,,,,,,,,,,,,,,,,,,,,,,,,,,,,,,,,,,,,,,,,,,,,,,,,,,,,,,,,,,,,,,,,,,,,,,,,,,,,,,,,,,,,,,,,,,,,,,,,,,,,,,,,,,,,
0,77,77,70,1,,611eb4cfb28943e584e11af0,62bbf9d58c9c0877dc5cb4a6,2022-06-29_09h13.11.367,Colour_Asymmetry_Pilot,2022.1.3,Win32,59.82292414,62bbe60bf3d75ef465d3e404,,,,,,,,,,,,,,,,,,,,,,,,,,,,,,,,,,,,,,,,,,,,,,,,,,,,,,,,,,,,,,,,,,,,,,,,,,,,,,,,,,,,,,,,,,,,,,,,,,,,,,,,,,,,,,,,,,,,,,,,,,,,,,,,,,,,,,,,,,,,,,,,,,,,,,,,,,,,,,
0,78,78,50,1,,611eb4cfb28943e584e11af0,62bbf9d58c9c0877dc5cb4a6,2022-06-29_09h13.11.367,Colour_Asymmetry_Pilot,2022.1.3,Win32,59.82292414,62bbe60bf3d75ef465d3e404,,,,,,,,,,,,,,,,,,,,,,,,,,,,,,,,,,,,,,,,,,,,,,,,,,,,,,,,,,,,,,,,,,,,,,,,,,,,,,,,,,,,,,,,,,,,,,,,,,,,,,,,,,,,,,,,,,,,,,,,,,,,,,,,,,,,,,,,,,,,,,,,,,,,,,,,,,,,,,
0,79,79,77,1,,611eb4cfb28943e584e11af0,62bbf9d58c9c0877dc5cb4a6,2022-06-29_09h13.11.367,Colour_Asymmetry_Pilot,2022.1.3,Win32,59.82292414,62bbe60bf3d75ef465d3e404,,,,,,,,,,,,,,,,,,,,,,,,,,,,,,,,,,,,,,,,,,,,,,,,,,,,,,,,,,,,,,,,,,,,,,,,,,,,,,,,,,,,,,,,,,,,,,,,,,,,,,,,,,,,,,,,,,,,,,,,,,,,,,,,,,,,,,,,,,,,,,,,,,,,,,,,,,,,,,
0,80,80,48,1,,611eb4cfb28943e584e11af0,62bbf9d58c9c0877dc5cb4a6,2022-06-29_09h13.11.367,Colour_Asymmetry_Pilot,2022.1.3,Win32,59.82292414,62bbe60bf3d75ef465d3e404,,,,,,,,,,,,,,,,,,,,,,,,,,,,,,,,,,,,,,,,,,,,,,,,,,,,,,,,,,,,,,,,,,,,,,,,,,,,,,,,,,,,,,,,,,,,,,,,,,,,,,,,,,,,,,,,,,,,,,,,,,,,,,,,,,,,,,,,,,,,,,,,,,,,,,,,,,,,,,
0,81,81,45,1,,611eb4cfb28943e584e11af0,62bbf9d58c9c0877dc5cb4a6,2022-06-29_09h13.11.367,Colour_Asymmetry_Pilot,2022.1.3,Win32,59.82292414,62bbe60bf3d75ef465d3e404,,,,,,,,,,,,,,,,,,,,,,,,,,,,,,,,,,,,,,,,,,,,,,,,,,,,,,,,,,,,,,,,,,,,,,,,,,,,,,,,,,,,,,,,,,,,,,,,,,,,,,,,,,,,,,,,,,,,,,,,,,,,,,,,,,,,,,,,,,,,,,,,,,,,,,,,,,,,,,
0,82,82,49,1,,611eb4cfb28943e584e11af0,62bbf9d58c9c0877dc5cb4a6,2022-06-29_09h13.11.367,Colour_Asymmetry_Pilot,2022.1.3,Win32,59.82292414,62bbe60bf3d75ef465d3e404,,,,,,,,,,,,,,,,,,,,,,,,,,,,,,,,,,,,,,,,,,,,,,,,,,,,,,,,,,,,,,,,,,,,,,,,,,,,,,,,,,,,,,,,,,,,,,,,,,,,,,,,,,,,,,,,,,,,,,,,,,,,,,,,,,,,,,,,,,,,,,,,,,,,,,,,,,,,,,
0,83,83,69,1,,611eb4cfb28943e584e11af0,62bbf9d58c9c0877dc5cb4a6,2022-06-29_09h13.11.367,Colour_Asymmetry_Pilot,2022.1.3,Win32,59.82292414,62bbe60bf3d75ef465d3e404,,,,,,,,,,,,,,,,,,,,,,,,,,,,,,,,,,,,,,,,,,,,,,,,,,,,,,,,,,,,,,,,,,,,,,,,,,,,,,,,,,,,,,,,,,,,,,,,,,,,,,,,,,,,,,,,,,,,,,,,,,,,,,,,,,,,,,,,,,,,,,,,,,,,,,,,,,,,,,
0,84,84,10,1,,611eb4cfb28943e584e11af0,62bbf9d58c9c0877dc5cb4a6,2022-06-29_09h13.11.367,Colour_Asymmetry_Pilot,2022.1.3,Win32,59.82292414,62bbe60bf3d75ef465d3e404,,,,,,,,,,,,,,,,,,,,,,,,,,,,,,,,,,,,,,,,,,,,,,,,,,,,,,,,,,,,,,,,,,,,,,,,,,,,,,,,,,,,,,,,,,,,,,,,,,,,,,,,,,,,,,,,,,,,,,,,,,,,,,,,,,,,,,,,,,,,,,,,,,,,,,,,,,,,,,
0,85,85,91,1,,611eb4cfb28943e584e11af0,62bbf9d58c9c0877dc5cb4a6,2022-06-29_09h13.11.367,Colour_Asymmetry_Pilot,2022.1.3,Win32,59.82292414,62bbe60bf3d75ef465d3e404,,,,,,,,,,,,,,,,,,,,,,,,,,,,,,,,,,,,,,,,,,,,,,,,,,,,,,,,,,,,,,,,,,,,,,,,,,,,,,,,,,,,,,,,,,,,,,,,,,,,,,,,,,,,,,,,,,,,,,,,,,,,,,,,,,,,,,,,,,,,,,,,,,,,,,,,,,,,,,
0,86,86,37,1,,611eb4cfb28943e584e11af0,62bbf9d58c9c0877dc5cb4a6,2022-06-29_09h13.11.367,Colour_Asymmetry_Pilot,2022.1.3,Win32,59.82292414,62bbe60bf3d75ef465d3e404,,,,,,,,,,,,,,,,,,,,,,,,,,,,,,,,,,,,,,,,,,,,,,,,,,,,,,,,,,,,,,,,,,,,,,,,,,,,,,,,,,,,,,,,,,,,,,,,,,,,,,,,,,,,,,,,,,,,,,,,,,,,,,,,,,,,,,,,,,,,,,,,,,,,,,,,,,,,,,
0,87,87,27,1,,611eb4cfb28943e584e11af0,62bbf9d58c9c0877dc5cb4a6,2022-06-29_09h13.11.367,Colour_Asymmetry_Pilot,2022.1.3,Win32,59.82292414,62bbe60bf3d75ef465d3e404,,,,,,,,,,,,,,,,,,,,,,,,,,,,,,,,,,,,,,,,,,,,,,,,,,,,,,,,,,,,,,,,,,,,,,,,,,,,,,,,,,,,,,,,,,,,,,,,,,,,,,,,,,,,,,,,,,,,,,,,,,,,,,,,,,,,,,,,,,,,,,,,,,,,,,,,,,,,,,
0,88,88,81,1,,611eb4cfb28943e584e11af0,62bbf9d58c9c0877dc5cb4a6,2022-06-29_09h13.11.367,Colour_Asymmetry_Pilot,2022.1.3,Win32,59.82292414,62bbe60bf3d75ef465d3e404,,,,,,,,,,,,,,,,,,,,,,,,,,,,,,,,,,,,,,,,,,,,,,,,,,,,,,,,,,,,,,,,,,,,,,,,,,,,,,,,,,,,,,,,,,,,,,,,,,,,,,,,,,,,,,,,,,,,,,,,,,,,,,,,,,,,,,,,,,,,,,,,,,,,,,,,,,,,,,
0,89,89,6,1,,611eb4cfb28943e584e11af0,62bbf9d58c9c0877dc5cb4a6,2022-06-29_09h13.11.367,Colour_Asymmetry_Pilot,2022.1.3,Win32,59.82292414,62bbe60bf3d75ef465d3e404,,,,,,,,,,,,,,,,,,,,,,,,,,,,,,,,,,,,,,,,,,,,,,,,,,,,,,,,,,,,,,,,,,,,,,,,,,,,,,,,,,,,,,,,,,,,,,,,,,,,,,,,,,,,,,,,,,,,,,,,,,,,,,,,,,,,,,,,,,,,,,,,,,,,,,,,,,,,,,
0,90,90,13,1,,611eb4cfb28943e584e11af0,62bbf9d58c9c0877dc5cb4a6,2022-06-29_09h13.11.367,Colour_Asymmetry_Pilot,2022.1.3,Win32,59.82292414,62bbe60bf3d75ef465d3e404,,,,,,,,,,,,,,,,,,,,,,,,,,,,,,,,,,,,,,,,,,,,,,,,,,,,,,,,,,,,,,,,,,,,,,,,,,,,,,,,,,,,,,,,,,,,,,,,,,,,,,,,,,,,,,,,,,,,,,,,,,,,,,,,,,,,,,,,,,,,,,,,,,,,,,,,,,,,,,
0,91,91,0,1,,611eb4cfb28943e584e11af0,62bbf9d58c9c0877dc5cb4a6,2022-06-29_09h13.11.367,Colour_Asymmetry_Pilot,2022.1.3,Win32,59.82292414,62bbe60bf3d75ef465d3e404,,,,,,,,,,,,,,,,,,,,,,,,,,,,,,,,,,,,,,,,,,,,,,,,,,,,,,,,,,,,,,,,,,,,,,,,,,,,,,,,,,,,,,,,,,,,,,,,,,,,,,,,,,,,,,,,,,,,,,,,,,,,,,,,,,,,,,,,,,,,,,,,,,,,,,,,,,,,,,
0,92,92,76,1,,611eb4cfb28943e584e11af0,62bbf9d58c9c0877dc5cb4a6,2022-06-29_09h13.11.367,Colour_Asymmetry_Pilot,2022.1.3,Win32,59.82292414,62bbe60bf3d75ef465d3e404,,,,,,,,,,,,,,,,,,,,,,,,,,,,,,,,,,,,,,,,,,,,,,,,,,,,,,,,,,,,,,,,,,,,,,,,,,,,,,,,,,,,,,,,,,,,,,,,,,,,,,,,,,,,,,,,,,,,,,,,,,,,,,,,,,,,,,,,,,,,,,,,,,,,,,,,,,,,,,
,,,,,,611eb4cfb28943e584e11af0,62bbf9d58c9c0877dc5cb4a6,2022-06-29_09h13.11.367,Colour_Asymmetry_Pilot,2022.1.3,Win32,59.82292414,62bbe60bf3d75ef465d3e404,0,0,0,39,1,fourthree,,,,,,,,,,,,,,,,,,,,,,,,,,,,,,,,,,,,,,,,,,,,,,,,,,,,,,,,,,,,,,,,,,,,,,,,,,,,,,,,,,,,,,,,,,,,,,,,,,,,,,,,,,,,,,,,,,,,,,,,,,,,,,,,,,,,,,,,,,,,,,,,,,,,,,,,
,,,,,,611eb4cfb28943e584e11af0,62bbf9d58c9c0877dc5cb4a6,2022-06-29_09h13.11.367,Colour_Asymmetry_Pilot,2022.1.3,Win32,59.82292414,62bbe60bf3d75ef465d3e404,0,1,1,42,1,twoone,,,,,,,,,,,,,,,,,,,,,,,,,,,,,,,,,,,,,,,,,,,,,,,,,,,,,,,,,,,,,,,,,,,,,,,,,,,,,,,,,,,,,,,,,,,,,,,,,,,,,,,,,,,,,,,,,,,,,,,,,,,,,,,,,,,,,,,,,,,,,,,,,,,,,,,,
,,,,,,611eb4cfb28943e584e11af0,62bbf9d58c9c0877dc5cb4a6,2022-06-29_09h13.11.367,Colour_Asymmetry_Pilot,2022.1.3,Win32,59.82292414,62bbe60bf3d75ef465d3e404,0,2,2,53,1,threefour,,,,,,,,,,,,,,,,,,,,,,,,,,,,,,,,,,,,,,,,,,,,,,,,,,,,,,,,,,,,,,,,,,,,,,,,,,,,,,,,,,,,,,,,,,,,,,,,,,,,,,,,,,,,,,,,,,,,,,,,,,,,,,,,,,,,,,,,,,,,,,,,,,,,,,,,
,,,,,,611eb4cfb28943e584e11af0,62bbf9d58c9c0877dc5cb4a6,2022-06-29_09h13.11.367,Colour_Asymmetry_Pilot,2022.1.3,Win32,59.82292414,62bbe60bf3d75ef465d3e404,0,3,3,108,1,threeone,,,,,,,,,,,,,,,,,,,,,,,,,,,,,,,,,,,,,,,,,,,,,,,,,,,,,,,,,,,,,,,,,,,,,,,,,,,,,,,,,,,,,,,,,,,,,,,,,,,,,,,,,,,,,,,,,,,,,,,,,,,,,,,,,,,,,,,,,,,,,,,,,,,,,,,,
,,,,,,611eb4cfb28943e584e11af0,62bbf9d58c9c0877dc5cb4a6,2022-06-29_09h13.11.367,Colour_Asymmetry_Pilot,2022.1.3,Win32,59.82292414,62bbe60bf3d75ef465d3e404,0,4,4,74,1,twoone,,,,,,,,,,,,,,,,,,,,,,,,,,,,,,,,,,,,,,,,,,,,,,,,,,,,,,,,,,,,,,,,,,,,,,,,,,,,,,,,,,,,,,,,,,,,,,,,,,,,,,,,,,,,,,,,,,,,,,,,,,,,,,,,,,,,,,,,,,,,,,,,,,,,,,,,
,,,,,,611eb4cfb28943e584e11af0,62bbf9d58c9c0877dc5cb4a6,2022-06-29_09h13.11.367,Colour_Asymmetry_Pilot,2022.1.3,Win32,59.82292414,62bbe60bf3d75ef465d3e404,0,5,5,8,1,onetwo,,,,,,,,,,,,,,,,,,,,,,,,,,,,,,,,,,,,,,,,,,,,,,,,,,,,,,,,,,,,,,,,,,,,,,,,,,,,,,,,,,,,,,,,,,,,,,,,,,,,,,,,,,,,,,,,,,,,,,,,,,,,,,,,,,,,,,,,,,,,,,,,,,,,,,,,
,,,,,,611eb4cfb28943e584e11af0,62bbf9d58c9c0877dc5cb4a6,2022-06-29_09h13.11.367,Colour_Asymmetry_Pilot,2022.1.3,Win32,59.82292414,62bbe60bf3d75ef465d3e404,0,6,6,67,1,twofour,,,,,,,,,,,,,,,,,,,,,,,,,,,,,,,,,,,,,,,,,,,,,,,,,,,,,,,,,,,,,,,,,,,,,,,,,,,,,,,,,,,,,,,,,,,,,,,,,,,,,,,,,,,,,,,,,,,,,,,,,,,,,,,,,,,,,,,,,,,,,,,,,,,,,,,,
,,,,,,611eb4cfb28943e584e11af0,62bbf9d58c9c0877dc5cb4a6,2022-06-29_09h13.11.367,Colour_Asymmetry_Pilot,2022.1.3,Win32,59.82292414,62bbe60bf3d75ef465d3e404,0,7,7,17,1,onethree,,,,,,,,,,,,,,,,,,,,,,,,,,,,,,,,,,,,,,,,,,,,,,,,,,,,,,,,,,,,,,,,,,,,,,,,,,,,,,,,,,,,,,,,,,,,,,,,,,,,,,,,,,,,,,,,,,,,,,,,,,,,,,,,,,,,,,,,,,,,,,,,,,,,,,,,
,,,,,,611eb4cfb28943e584e11af0,62bbf9d58c9c0877dc5cb4a6,2022-06-29_09h13.11.367,Colour_Asymmetry_Pilot,2022.1.3,Win32,59.82292414,62bbe60bf3d75ef465d3e404,0,8,8,54,1,fourtwo,,,,,,,,,,,,,,,,,,,,,,,,,,,,,,,,,,,,,,,,,,,,,,,,,,,,,,,,,,,,,,,,,,,,,,,,,,,,,,,,,,,,,,,,,,,,,,,,,,,,,,,,,,,,,,,,,,,,,,,,,,,,,,,,,,,,,,,,,,,,,,,,,,,,,,,,
,,,,,,611eb4cfb28943e584e11af0,62bbf9d58c9c0877dc5cb4a6,2022-06-29_09h13.11.367,Colour_Asymmetry_Pilot,2022.1.3,Win32,59.82292414,62bbe60bf3d75ef465d3e404,0,9,9,55,1,fourthree,,,,,,,,,,,,,,,,,,,,,,,,,,,,,,,,,,,,,,,,,,,,,,,,,,,,,,,,,,,,,,,,,,,,,,,,,,,,,,,,,,,,,,,,,,,,,,,,,,,,,,,,,,,,,,,,,,,,,,,,,,,,,,,,,,,,,,,,,,,,,,,,,,,,,,,,
,,,,,,611eb4cfb28943e584e11af0,62bbf9d58c9c0877dc5cb4a6,2022-06-29_09h13.11.367,Colour_Asymmetry_Pilot,2022.1.3,Win32,59.82292414,62bbe60bf3d75ef465d3e404,0,10,10,134,1,fourtwo,,,,,,,,,,,,,,,,,,,,,,,,,,,,,,,,,,,,,,,,,,,,,,,,,,,,,,,,,,,,,,,,,,,,,,,,,,,,,,,,,,,,,,,,,,,,,,,,,,,,,,,,,,,,,,,,,,,,,,,,,,,,,,,,,,,,,,,,,,,,,,,,,,,,,,,,
,,,,,,611eb4cfb28943e584e11af0,62bbf9d58c9c0877dc5cb4a6,2022-06-29_09h13.11.367,Colour_Asymmetry_Pilot,2022.1.3,Win32,59.82292414,62bbe60bf3d75ef465d3e404,0,11,11,57,1,onethree,,,,,,,,,,,,,,,,,,,,,,,,,,,,,,,,,,,,,,,,,,,,,,,,,,,,,,,,,,,,,,,,,,,,,,,,,,,,,,,,,,,,,,,,,,,,,,,,,,,,,,,,,,,,,,,,,,,,,,,,,,,,,,,,,,,,,,,,,,,,,,,,,,,,,,,,
,,,,,,611eb4cfb28943e584e11af0,62bbf9d58c9c0877dc5cb4a6,2022-06-29_09h13.11.367,Colour_Asymmetry_Pilot,2022.1.3,Win32,59.82292414,62bbe60bf3d75ef465d3e404,0,12,12,84,1,threeone,,,,,,,,,,,,,,,,,,,,,,,,,,,,,,,,,,,,,,,,,,,,,,,,,,,,,,,,,,,,,,,,,,,,,,,,,,,,,,,,,,,,,,,,,,,,,,,,,,,,,,,,,,,,,,,,,,,,,,,,,,,,,,,,,,,,,,,,,,,,,,,,,,,,,,,,
,,,,,,611eb4cfb28943e584e11af0,62bbf9d58c9c0877dc5cb4a6,2022-06-29_09h13.11.367,Colour_Asymmetry_Pilot,2022.1.3,Win32,59.82292414,62bbe60bf3d75ef465d3e404,0,13,13,113,1,onethree,,,,,,,,,,,,,,,,,,,,,,,,,,,,,,,,,,,,,,,,,,,,,,,,,,,,,,,,,,,,,,,,,,,,,,,,,,,,,,,,,,,,,,,,,,,,,,,,,,,,,,,,,,,,,,,,,,,,,,,,,,,,,,,,,,,,,,,,,,,,,,,,,,,,,,,,
,,,,,,611eb4cfb28943e584e11af0,62bbf9d58c9c0877dc5cb4a6,2022-06-29_09h13.11.367,Colour_Asymmetry_Pilot,2022.1.3,Win32,59.82292414,62bbe60bf3d75ef465d3e404,0,14,14,63,1,fourthree,,,,,,,,,,,,,,,,,,,,,,,,,,,,,,,,,,,,,,,,,,,,,,,,,,,,,,,,,,,,,,,,,,,,,,,,,,,,,,,,,,,,,,,,,,,,,,,,,,,,,,,,,,,,,,,,,,,,,,,,,,,,,,,,,,,,,,,,,,,,,,,,,,,,,,,,
,,,,,,611eb4cfb28943e584e11af0,62bbf9d58c9c0877dc5cb4a6,2022-06-29_09h13.11.367,Colour_Asymmetry_Pilot,2022.1.3,Win32,59.82292414,62bbe60bf3d75ef465d3e404,0,15,15,133,1,threefour,,,,,,,,,,,,,,,,,,,,,,,,,,,,,,,,,,,,,,,,,,,,,,,,,,,,,,,,,,,,,,,,,,,,,,,,,,,,,,,,,,,,,,,,,,,,,,,,,,,,,,,,,,,,,,,,,,,,,,,,,,,,,,,,,,,,,,,,,,,,,,,,,,,,,,,,
,,,,,,611eb4cfb28943e584e11af0,62bbf9d58c9c0877dc5cb4a6,2022-06-29_09h13.11.367,Colour_Asymmetry_Pilot,2022.1.3,Win32,59.82292414,62bbe60bf3d75ef465d3e404,0,16,16,160,1,onetwo,,,,,,,,,,,,,,,,,,,,,,,,,,,,,,,,,,,,,,,,,,,,,,,,,,,,,,,,,,,,,,,,,,,,,,,,,,,,,,,,,,,,,,,,,,,,,,,,,,,,,,,,,,,,,,,,,,,,,,,,,,,,,,,,,,,,,,,,,,,,,,,,,,,,,,,,
,,,,,,611eb4cfb28943e584e11af0,62bbf9d58c9c0877dc5cb4a6,2022-06-29_09h13.11.367,Colour_Asymmetry_Pilot,2022.1.3,Win32,59.82292414,62bbe60bf3d75ef465d3e404,0,17,17,107,1,twofour,,,,,,,,,,,,,,,,,,,,,,,,,,,,,,,,,,,,,,,,,,,,,,,,,,,,,,,,,,,,,,,,,,,,,,,,,,,,,,,,,,,,,,,,,,,,,,,,,,,,,,,,,,,,,,,,,,,,,,,,,,,,,,,,,,,,,,,,,,,,,,,,,,,,,,,,
,,,,,,611eb4cfb28943e584e11af0,62bbf9d58c9c0877dc5cb4a6,2022-06-29_09h13.11.367,Colour_Asymmetry_Pilot,2022.1.3,Win32,59.82292414,62bbe60bf3d75ef465d3e404,0,18,18,2,1,twoone,,,,,,,,,,,,,,,,,,,,,,,,,,,,,,,,,,,,,,,,,,,,,,,,,,,,,,,,,,,,,,,,,,,,,,,,,,,,,,,,,,,,,,,,,,,,,,,,,,,,,,,,,,,,,,,,,,,,,,,,,,,,,,,,,,,,,,,,,,,,,,,,,,,,,,,,
,,,,,,611eb4cfb28943e584e11af0,62bbf9d58c9c0877dc5cb4a6,2022-06-29_09h13.11.367,Colour_Asymmetry_Pilot,2022.1.3,Win32,59.82292414,62bbe60bf3d75ef465d3e404,0,19,19,112,1,onetwo,,,,,,,,,,,,,,,,,,,,,,,,,,,,,,,,,,,,,,,,,,,,,,,,,,,,,,,,,,,,,,,,,,,,,,,,,,,,,,,,,,,,,,,,,,,,,,,,,,,,,,,,,,,,,,,,,,,,,,,,,,,,,,,,,,,,,,,,,,,,,,,,,,,,,,,,
,,,,,,611eb4cfb28943e584e11af0,62bbf9d58c9c0877dc5cb4a6,2022-06-29_09h13.11.367,Colour_Asymmetry_Pilot,2022.1.3,Win32,59.82292414,62bbe60bf3d75ef465d3e404,0,20,20,50,1,twoone,,,,,,,,,,,,,,,,,,,,,,,,,,,,,,,,,,,,,,,,,,,,,,,,,,,,,,,,,,,,,,,,,,,,,,,,,,,,,,,,,,,,,,,,,,,,,,,,,,,,,,,,,,,,,,,,,,,,,,,,,,,,,,,,,,,,,,,,,,,,,,,,,,,,,,,,
,,,,,,611eb4cfb28943e584e11af0,62bbf9d58c9c0877dc5cb4a6,2022-06-29_09h13.11.367,Colour_Asymmetry_Pilot,2022.1.3,Win32,59.82292414,62bbe60bf3d75ef465d3e404,0,21,21,45,1,threefour,,,,,,,,,,,,,,,,,,,,,,,,,,,,,,,,,,,,,,,,,,,,,,,,,,,,,,,,,,,,,,,,,,,,,,,,,,,,,,,,,,,,,,,,,,,,,,,,,,,,,,,,,,,,,,,,,,,,,,,,,,,,,,,,,,,,,,,,,,,,,,,,,,,,,,,,
,,,,,,611eb4cfb28943e584e11af0,62bbf9d58c9c0877dc5cb4a6,2022-06-29_09h13.11.367,Colour_Asymmetry_Pilot,2022.1.3,Win32,59.82292414,62bbe60bf3d75ef465d3e404,0,22,22,114,1,twoone,,,,,,,,,,,,,,,,,,,,,,,,,,,,,,,,,,,,,,,,,,,,,,,,,,,,,,,,,,,,,,,,,,,,,,,,,,,,,,,,,,,,,,,,,,,,,,,,,,,,,,,,,,,,,,,,,,,,,,,,,,,,,,,,,,,,,,,,,,,,,,,,,,,,,,,,
,,,,,,611eb4cfb28943e584e11af0,62bbf9d58c9c0877dc5cb4a6,2022-06-29_09h13.11.367,Colour_Asymmetry_Pilot,2022.1.3,Win32,59.82292414,62bbe60bf3d75ef465d3e404,0,23,23,79,1,fourthree,,,,,,,,,,,,,,,,,,,,,,,,,,,,,,,,,,,,,,,,,,,,,,,,,,,,,,,,,,,,,,,,,,,,,,,,,,,,,,,,,,,,,,,,,,,,,,,,,,,,,,,,,,,,,,,,,,,,,,,,,,,,,,,,,,,,,,,,,,,,,,,,,,,,,,,,
,,,,,,611eb4cfb28943e584e11af0,62bbf9d58c9c0877dc5cb4a6,2022-06-29_09h13.11.367,Colour_Asymmetry_Pilot,2022.1.3,Win32,59.82292414,62bbe60bf3d75ef465d3e404,0,24,24,6,1,fourtwo,,,,,,,,,,,,,,,,,,,,,,,,,,,,,,,,,,,,,,,,,,,,,,,,,,,,,,,,,,,,,,,,,,,,,,,,,,,,,,,,,,,,,,,,,,,,,,,,,,,,,,,,,,,,,,,,,,,,,,,,,,,,,,,,,,,,,,,,,,,,,,,,,,,,,,,,
,,,,,,611eb4cfb28943e584e11af0,62bbf9d58c9c0877dc5cb4a6,2022-06-29_09h13.11.367,Colour_Asymmetry_Pilot,2022.1.3,Win32,59.82292414,62bbe60bf3d75ef465d3e404,0,25,25,129,1,onethree,,,,,,,,,,,,,,,,,,,,,,,,,,,,,,,,,,,,,,,,,,,,,,,,,,,,,,,,,,,,,,,,,,,,,,,,,,,,,,,,,,,,,,,,,,,,,,,,,,,,,,,,,,,,,,,,,,,,,,,,,,,,,,,,,,,,,,,,,,,,,,,,,,,,,,,,
,,,,,,611eb4cfb28943e584e11af0,62bbf9d58c9c0877dc5cb4a6,2022-06-29_09h13.11.367,Colour_Asymmetry_Pilot,2022.1.3,Win32,59.82292414,62bbe60bf3d75ef465d3e404,0,26,26,3,1,twofour,,,,,,,,,,,,,,,,,,,,,,,,,,,,,,,,,,,,,,,,,,,,,,,,,,,,,,,,,,,,,,,,,,,,,,,,,,,,,,,,,,,,,,,,,,,,,,,,,,,,,,,,,,,,,,,,,,,,,,,,,,,,,,,,,,,,,,,,,,,,,,,,,,,,,,,,
,,,,,,611eb4cfb28943e584e11af0,62bbf9d58c9c0877dc5cb4a6,2022-06-29_09h13.11.367,Colour_Asymmetry_Pilot,2022.1.3,Win32,59.82292414,62bbe60bf3d75ef465d3e404,0,27,27,61,1,threefour,,,,,,,,,,,,,,,,,,,,,,,,,,,,,,,,,,,,,,,,,,,,,,,,,,,,,,,,,,,,,,,,,,,,,,,,,,,,,,,,,,,,,,,,,,,,,,,,,,,,,,,,,,,,,,,,,,,,,,,,,,,,,,,,,,,,,,,,,,,,,,,,,,,,,,,,
,,,,,,611eb4cfb28943e584e11af0,62bbf9d58c9c0877dc5cb4a6,2022-06-29_09h13.11.367,Colour_Asymmetry_Pilot,2022.1.3,Win32,59.82292414,62bbe60bf3d75ef465d3e404,0,28,28,127,1,fourthree,,,,,,,,,,,,,,,,,,,,,,,,,,,,,,,,,,,,,,,,,,,,,,,,,,,,,,,,,,,,,,,,,,,,,,,,,,,,,,,,,,,,,,,,,,,,,,,,,,,,,,,,,,,,,,,,,,,,,,,,,,,,,,,,,,,,,,,,,,,,,,,,,,,,,,,,
,,,,,,611eb4cfb28943e584e11af0,62bbf9d58c9c0877dc5cb4a6,2022-06-29_09h13.11.367,Colour_Asymmetry_Pilot,2022.1.3,Win32,59.82292414,62bbe60bf3d75ef465d3e404,0,29,29,83,1,twofour,,,,,,,,,,,,,,,,,,,,,,,,,,,,,,,,,,,,,,,,,,,,,,,,,,,,,,,,,,,,,,,,,,,,,,,,,,,,,,,,,,,,,,,,,,,,,,,,,,,,,,,,,,,,,,,,,,,,,,,,,,,,,,,,,,,,,,,,,,,,,,,,,,,,,,,,
,,,,,,611eb4cfb28943e584e11af0,62bbf9d58c9c0877dc5cb4a6,2022-06-29_09h13.11.367,Colour_Asymmetry_Pilot,2022.1.3,Win32,59.82292414,62bbe60bf3d75ef465d3e404,0,30,30,71,1,fourthree,,,,,,,,,,,,,,,,,,,,,,,,,,,,,,,,,,,,,,,,,,,,,,,,,,,,,,,,,,,,,,,,,,,,,,,,,,,,,,,,,,,,,,,,,,,,,,,,,,,,,,,,,,,,,,,,,,,,,,,,,,,,,,,,,,,,,,,,,,,,,,,,,,,,,,,,
,,,,,,611eb4cfb28943e584e11af0,62bbf9d58c9c0877dc5cb4a6,2022-06-29_09h13.11.367,Colour_Asymmetry_Pilot,2022.1.3,Win32,59.82292414,62bbe60bf3d75ef465d3e404,0,31,31,49,1,onethree,,,,,,,,,,,,,,,,,,,,,,,,,,,,,,,,,,,,,,,,,,,,,,,,,,,,,,,,,,,,,,,,,,,,,,,,,,,,,,,,,,,,,,,,,,,,,,,,,,,,,,,,,,,,,,,,,,,,,,,,,,,,,,,,,,,,,,,,,,,,,,,,,,,,,,,,
,,,,,,611eb4cfb28943e584e11af0,62bbf9d58c9c0877dc5cb4a6,2022-06-29_09h13.11.367,Colour_Asymmetry_Pilot,2022.1.3,Win32,59.82292414,62bbe60bf3d75ef465d3e404,0,32,32,130,1,twoone,,,,,,,,,,,,,,,,,,,,,,,,,,,,,,,,,,,,,,,,,,,,,,,,,,,,,,,,,,,,,,,,,,,,,,,,,,,,,,,,,,,,,,,,,,,,,,,,,,,,,,,,,,,,,,,,,,,,,,,,,,,,,,,,,,,,,,,,,,,,,,,,,,,,,,,,
,,,,,,611eb4cfb28943e584e11af0,62bbf9d58c9c0877dc5cb4a6,2022-06-29_09h13.11.367,Colour_Asymmetry_Pilot,2022.1.3,Win32,59.82292414,62bbe60bf3d75ef465d3e404,0,33,33,128,1,onetwo,,,,,,,,,,,,,,,,,,,,,,,,,,,,,,,,,,,,,,,,,,,,,,,,,,,,,,,,,,,,,,,,,,,,,,,,,,,,,,,,,,,,,,,,,,,,,,,,,,,,,,,,,,,,,,,,,,,,,,,,,,,,,,,,,,,,,,,,,,,,,,,,,,,,,,,,
,,,,,,611eb4cfb28943e584e11af0,62bbf9d58c9c0877dc5cb4a6,2022-06-29_09h13.11.367,Colour_Asymmetry_Pilot,2022.1.3,Win32,59.82292414,62bbe60bf3d75ef465d3e404,0,34,34,119,1,fourthree,,,,,,,,,,,,,,,,,,,,,,,,,,,,,,,,,,,,,,,,,,,,,,,,,,,,,,,,,,,,,,,,,,,,,,,,,,,,,,,,,,,,,,,,,,,,,,,,,,,,,,,,,,,,,,,,,,,,,,,,,,,,,,,,,,,,,,,,,,,,,,,,,,,,,,,,
,,,,,,611eb4cfb28943e584e11af0,62bbf9d58c9c0877dc5cb4a6,2022-06-29_09h13.11.367,Colour_Asymmetry_Pilot,2022.1.3,Win32,59.82292414,62bbe60bf3d75ef465d3e404,0,35,35,27,1,twofour,,,,,,,,,,,,,,,,,,,,,,,,,,,,,,,,,,,,,,,,,,,,,,,,,,,,,,,,,,,,,,,,,,,,,,,,,,,,,,,,,,,,,,,,,,,,,,,,,,,,,,,,,,,,,,,,,,,,,,,,,,,,,,,,,,,,,,,,,,,,,,,,,,,,,,,,
,,,,,,611eb4cfb28943e584e11af0,62bbf9d58c9c0877dc5cb4a6,2022-06-29_09h13.11.367,Colour_Asymmetry_Pilot,2022.1.3,Win32,59.82292414,62bbe60bf3d75ef465d3e404,0,36,36,37,1,threefour,,,,,,,,,,,,,,,,,,,,,,,,,,,,,,,,,,,,,,,,,,,,,,,,,,,,,,,,,,,,,,,,,,,,,,,,,,,,,,,,,,,,,,,,,,,,,,,,,,,,,,,,,,,,,,,,,,,,,,,,,,,,,,,,,,,,,,,,,,,,,,,,,,,,,,,,
,,,,,,611eb4cfb28943e584e11af0,62bbf9d58c9c0877dc5cb4a6,2022-06-29_09h13.11.367,Colour_Asymmetry_Pilot,2022.1.3,Win32,59.82292414,62bbe60bf3d75ef465d3e404,0,37,37,93,1,threefour,,,,,,,,,,,,,,,,,,,,,,,,,,,,,,,,,,,,,,,,,,,,,,,,,,,,,,,,,,,,,,,,,,,,,,,,,,,,,,,,,,,,,,,,,,,,,,,,,,,,,,,,,,,,,,,,,,,,,,,,,,,,,,,,,,,,,,,,,,,,,,,,,,,,,,,,
,,,,,,611eb4cfb28943e584e11af0,62bbf9d58c9c0877dc5cb4a6,2022-06-29_09h13.11.367,Colour_Asymmetry_Pilot,2022.1.3,Win32,59.82292414,62bbe60bf3d75ef465d3e404,0,38,38,86,1,fourtwo,,,,,,,,,,,,,,,,,,,,,,,,,,,,,,,,,,,,,,,,,,,,,,,,,,,,,,,,,,,,,,,,,,,,,,,,,,,,,,,,,,,,,,,,,,,,,,,,,,,,,,,,,,,,,,,,,,,,,,,,,,,,,,,,,,,,,,,,,,,,,,,,,,,,,,,,
,,,,,,611eb4cfb28943e584e11af0,62bbf9d58c9c0877dc5cb4a6,2022-06-29_09h13.11.367,Colour_Asymmetry_Pilot,2022.1.3,Win32,59.82292414,62bbe60bf3d75ef465d3e404,0,39,39,73,1,onethree,,,,,,,,,,,,,,,,,,,,,,,,,,,,,,,,,,,,,,,,,,,,,,,,,,,,,,,,,,,,,,,,,,,,,,,,,,,,,,,,,,,,,,,,,,,,,,,,,,,,,,,,,,,,,,,,,,,,,,,,,,,,,,,,,,,,,,,,,,,,,,,,,,,,,,,,
,,,,,,611eb4cfb28943e584e11af0,62bbf9d58c9c0877dc5cb4a6,2022-06-29_09h13.11.367,Colour_Asymmetry_Pilot,2022.1.3,Win32,59.82292414,62bbe60bf3d75ef465d3e404,0,40,40,13,1,threefour,,,,,,,,,,,,,,,,,,,,,,,,,,,,,,,,,,,,,,,,,,,,,,,,,,,,,,,,,,,,,,,,,,,,,,,,,,,,,,,,,,,,,,,,,,,,,,,,,,,,,,,,,,,,,,,,,,,,,,,,,,,,,,,,,,,,,,,,,,,,,,,,,,,,,,,,
,,,,,,611eb4cfb28943e584e11af0,62bbf9d58c9c0877dc5cb4a6,2022-06-29_09h13.11.367,Colour_Asymmetry_Pilot,2022.1.3,Win32,59.82292414,62bbe60bf3d75ef465d3e404,0,41,41,158,1,fourtwo,,,,,,,,,,,,,,,,,,,,,,,,,,,,,,,,,,,,,,,,,,,,,,,,,,,,,,,,,,,,,,,,,,,,,,,,,,,,,,,,,,,,,,,,,,,,,,,,,,,,,,,,,,,,,,,,,,,,,,,,,,,,,,,,,,,,,,,,,,,,,,,,,,,,,,,,
,,,,,,611eb4cfb28943e584e11af0,62bbf9d58c9c0877dc5cb4a6,2022-06-29_09h13.11.367,Colour_Asymmetry_Pilot,2022.1.3,Win32,59.82292414,62bbe60bf3d75ef465d3e404,0,42,42,141,1,threefour,,,,,,,,,,,,,,,,,,,,,,,,,,,,,,,,,,,,,,,,,,,,,,,,,,,,,,,,,,,,,,,,,,,,,,,,,,,,,,,,,,,,,,,,,,,,,,,,,,,,,,,,,,,,,,,,,,,,,,,,,,,,,,,,,,,,,,,,,,,,,,,,,,,,,,,,
,,,,,,611eb4cfb28943e584e11af0,62bbf9d58c9c0877dc5cb4a6,2022-06-29_09h13.11.367,Colour_Asymmetry_Pilot,2022.1.3,Win32,59.82292414,62bbe60bf3d75ef465d3e404,0,43,43,121,1,onethree,,,,,,,,,,,,,,,,,,,,,,,,,,,,,,,,,,,,,,,,,,,,,,,,,,,,,,,,,,,,,,,,,,,,,,,,,,,,,,,,,,,,,,,,,,,,,,,,,,,,,,,,,,,,,,,,,,,,,,,,,,,,,,,,,,,,,,,,,,,,,,,,,,,,,,,,
,,,,,,611eb4cfb28943e584e11af0,62bbf9d58c9c0877dc5cb4a6,2022-06-29_09h13.11.367,Colour_Asymmetry_Pilot,2022.1.3,Win32,59.82292414,62bbe60bf3d75ef465d3e404,0,44,44,101,1,threefour,,,,,,,,,,,,,,,,,,,,,,,,,,,,,,,,,,,,,,,,,,,,,,,,,,,,,,,,,,,,,,,,,,,,,,,,,,,,,,,,,,,,,,,,,,,,,,,,,,,,,,,,,,,,,,,,,,,,,,,,,,,,,,,,,,,,,,,,,,,,,,,,,,,,,,,,
,,,,,,611eb4cfb28943e584e11af0,62bbf9d58c9c0877dc5cb4a6,2022-06-29_09h13.11.367,Colour_Asymmetry_Pilot,2022.1.3,Win32,59.82292414,62bbe60bf3d75ef465d3e404,0,45,45,0,1,onetwo,,,,,,,,,,,,,,,,,,,,,,,,,,,,,,,,,,,,,,,,,,,,,,,,,,,,,,,,,,,,,,,,,,,,,,,,,,,,,,,,,,,,,,,,,,,,,,,,,,,,,,,,,,,,,,,,,,,,,,,,,,,,,,,,,,,,,,,,,,,,,,,,,,,,,,,,
,,,,,,611eb4cfb28943e584e11af0,62bbf9d58c9c0877dc5cb4a6,2022-06-29_09h13.11.367,Colour_Asymmetry_Pilot,2022.1.3,Win32,59.82292414,62bbe60bf3d75ef465d3e404,0,46,46,60,1,threeone,,,,,,,,,,,,,,,,,,,,,,,,,,,,,,,,,,,,,,,,,,,,,,,,,,,,,,,,,,,,,,,,,,,,,,,,,,,,,,,,,,,,,,,,,,,,,,,,,,,,,,,,,,,,,,,,,,,,,,,,,,,,,,,,,,,,,,,,,,,,,,,,,,,,,,,,
,,,,,,611eb4cfb28943e584e11af0,62bbf9d58c9c0877dc5cb4a6,2022-06-29_09h13.11.367,Colour_Asymmetry_Pilot,2022.1.3,Win32,59.82292414,62bbe60bf3d75ef465d3e404,0,47,47,116,1,threeone,,,,,,,,,,,,,,,,,,,,,,,,,,,,,,,,,,,,,,,,,,,,,,,,,,,,,,,,,,,,,,,,,,,,,,,,,,,,,,,,,,,,,,,,,,,,,,,,,,,,,,,,,,,,,,,,,,,,,,,,,,,,,,,,,,,,,,,,,,,,,,,,,,,,,,,,
,,,,,,611eb4cfb28943e584e11af0,62bbf9d58c9c0877dc5cb4a6,2022-06-29_09h13.11.367,Colour_Asymmetry_Pilot,2022.1.3,Win32,59.82292414,62bbe60bf3d75ef465d3e404,0,48,48,102,1,fourtwo,,,,,,,,,,,,,,,,,,,,,,,,,,,,,,,,,,,,,,,,,,,,,,,,,,,,,,,,,,,,,,,,,,,,,,,,,,,,,,,,,,,,,,,,,,,,,,,,,,,,,,,,,,,,,,,,,,,,,,,,,,,,,,,,,,,,,,,,,,,,,,,,,,,,,,,,
,,,,,,611eb4cfb28943e584e11af0,62bbf9d58c9c0877dc5cb4a6,2022-06-29_09h13.11.367,Colour_Asymmetry_Pilot,2022.1.3,Win32,59.82292414,62bbe60bf3d75ef465d3e404,0,49,49,94,1,fourtwo,,,,,,,,,,,,,,,,,,,,,,,,,,,,,,,,,,,,,,,,,,,,,,,,,,,,,,,,,,,,,,,,,,,,,,,,,,,,,,,,,,,,,,,,,,,,,,,,,,,,,,,,,,,,,,,,,,,,,,,,,,,,,,,,,,,,,,,,,,,,,,,,,,,,,,,,
,,,,,,611eb4cfb28943e584e11af0,62bbf9d58c9c0877dc5cb4a6,2022-06-29_09h13.11.367,Colour_Asymmetry_Pilot,2022.1.3,Win32,59.82292414,62bbe60bf3d75ef465d3e404,0,50,50,122,1,twoone,,,,,,,,,,,,,,,,,,,,,,,,,,,,,,,,,,,,,,,,,,,,,,,,,,,,,,,,,,,,,,,,,,,,,,,,,,,,,,,,,,,,,,,,,,,,,,,,,,,,,,,,,,,,,,,,,,,,,,,,,,,,,,,,,,,,,,,,,,,,,,,,,,,,,,,,
,,,,,,611eb4cfb28943e584e11af0,62bbf9d58c9c0877dc5cb4a6,2022-06-29_09h13.11.367,Colour_Asymmetry_Pilot,2022.1.3,Win32,59.82292414,62bbe60bf3d75ef465d3e404,0,51,51,43,1,twofour,,,,,,,,,,,,,,,,,,,,,,,,,,,,,,,,,,,,,,,,,,,,,,,,,,,,,,,,,,,,,,,,,,,,,,,,,,,,,,,,,,,,,,,,,,,,,,,,,,,,,,,,,,,,,,,,,,,,,,,,,,,,,,,,,,,,,,,,,,,,,,,,,,,,,,,,
,,,,,,611eb4cfb28943e584e11af0,62bbf9d58c9c0877dc5cb4a6,2022-06-29_09h13.11.367,Colour_Asymmetry_Pilot,2022.1.3,Win32,59.82292414,62bbe60bf3d75ef465d3e404,0,52,52,1,1,onethree,,,,,,,,,,,,,,,,,,,,,,,,,,,,,,,,,,,,,,,,,,,,,,,,,,,,,,,,,,,,,,,,,,,,,,,,,,,,,,,,,,,,,,,,,,,,,,,,,,,,,,,,,,,,,,,,,,,,,,,,,,,,,,,,,,,,,,,,,,,,,,,,,,,,,,,,
,,,,,,611eb4cfb28943e584e11af0,62bbf9d58c9c0877dc5cb4a6,2022-06-29_09h13.11.367,Colour_Asymmetry_Pilot,2022.1.3,Win32,59.82292414,62bbe60bf3d75ef465d3e404,0,53,53,96,1,onetwo,,,,,,,,,,,,,,,,,,,,,,,,,,,,,,,,,,,,,,,,,,,,,,,,,,,,,,,,,,,,,,,,,,,,,,,,,,,,,,,,,,,,,,,,,,,,,,,,,,,,,,,,,,,,,,,,,,,,,,,,,,,,,,,,,,,,,,,,,,,,,,,,,,,,,,,,
,,,,,,611eb4cfb28943e584e11af0,62bbf9d58c9c0877dc5cb4a6,2022-06-29_09h13.11.367,Colour_Asymmetry_Pilot,2022.1.3,Win32,59.82292414,62bbe60bf3d75ef465d3e404,0,54,54,30,1,fourtwo,,,,,,,,,,,,,,,,,,,,,,,,,,,,,,,,,,,,,,,,,,,,,,,,,,,,,,,,,,,,,,,,,,,,,,,,,,,,,,,,,,,,,,,,,,,,,,,,,,,,,,,,,,,,,,,,,,,,,,,,,,,,,,,,,,,,,,,,,,,,,,,,,,,,,,,,
,,,,,,611eb4cfb28943e584e11af0,62bbf9d58c9c0877dc5cb4a6,2022-06-29_09h13.11.367,Colour_Asymmetry_Pilot,2022.1.3,Win32,59.82292414,62bbe60bf3d75ef465d3e404,0,55,55,72,1,onetwo,,,,,,,,,,,,,,,,,,,,,,,,,,,,,,,,,,,,,,,,,,,,,,,,,,,,,,,,,,,,,,,,,,,,,,,,,,,,,,,,,,,,,,,,,,,,,,,,,,,,,,,,,,,,,,,,,,,,,,,,,,,,,,,,,,,,,,,,,,,,,,,,,,,,,,,,
,,,,,,611eb4cfb28943e584e11af0,62bbf9d58c9c0877dc5cb4a6,2022-06-29_09h13.11.367,Colour_Asymmetry_Pilot,2022.1.3,Win32,59.82292414,62bbe60bf3d75ef465d3e404,0,56,56,149,1,threefour,,,,,,,,,,,,,,,,,,,,,,,,,,,,,,,,,,,,,,,,,,,,,,,,,,,,,,,,,,,,,,,,,,,,,,,,,,,,,,,,,,,,,,,,,,,,,,,,,,,,,,,,,,,,,,,,,,,,,,,,,,,,,,,,,,,,,,,,,,,,,,,,,,,,,,,,
,,,,,,611eb4cfb28943e584e11af0,62bbf9d58c9c0877dc5cb4a6,2022-06-29_09h13.11.367,Colour_Asymmetry_Pilot,2022.1.3,Win32,59.82292414,62bbe60bf3d75ef465d3e404,0,57,57,87,1,fourthree,,,,,,,,,,,,,,,,,,,,,,,,,,,,,,,,,,,,,,,,,,,,,,,,,,,,,,,,,,,,,,,,,,,,,,,,,,,,,,,,,,,,,,,,,,,,,,,,,,,,,,,,,,,,,,,,,,,,,,,,,,,,,,,,,,,,,,,,,,,,,,,,,,,,,,,,
,,,,,,611eb4cfb28943e584e11af0,62bbf9d58c9c0877dc5cb4a6,2022-06-29_09h13.11.367,Colour_Asymmetry_Pilot,2022.1.3,Win32,59.82292414,62bbe60bf3d75ef465d3e404,0,58,58,56,1,onetwo,,,,,,,,,,,,,,,,,,,,,,,,,,,,,,,,,,,,,,,,,,,,,,,,,,,,,,,,,,,,,,,,,,,,,,,,,,,,,,,,,,,,,,,,,,,,,,,,,,,,,,,,,,,,,,,,,,,,,,,,,,,,,,,,,,,,,,,,,,,,,,,,,,,,,,,,
,,,,,,611eb4cfb28943e584e11af0,62bbf9d58c9c0877dc5cb4a6,2022-06-29_09h13.11.367,Colour_Asymmetry_Pilot,2022.1.3,Win32,59.82292414,62bbe60bf3d75ef465d3e404,0,59,59,62,1,fourtwo,,,,,,,,,,,,,,,,,,,,,,,,,,,,,,,,,,,,,,,,,,,,,,,,,,,,,,,,,,,,,,,,,,,,,,,,,,,,,,,,,,,,,,,,,,,,,,,,,,,,,,,,,,,,,,,,,,,,,,,,,,,,,,,,,,,,,,,,,,,,,,,,,,,,,,,,
,,,,,,611eb4cfb28943e584e11af0,62bbf9d58c9c0877dc5cb4a6,2022-06-29_09h13.11.367,Colour_Asymmetry_Pilot,2022.1.3,Win32,59.82292414,62bbe60bf3d75ef465d3e404,0,60,60,68,1,threeone,,,,,,,,,,,,,,,,,,,,,,,,,,,,,,,,,,,,,,,,,,,,,,,,,,,,,,,,,,,,,,,,,,,,,,,,,,,,,,,,,,,,,,,,,,,,,,,,,,,,,,,,,,,,,,,,,,,,,,,,,,,,,,,,,,,,,,,,,,,,,,,,,,,,,,,,
,,,,,,611eb4cfb28943e584e11af0,62bbf9d58c9c0877dc5cb4a6,2022-06-29_09h13.11.367,Colour_Asymmetry_Pilot,2022.1.3,Win32,59.82292414,62bbe60bf3d75ef465d3e404,0,61,61,92,1,threeone,,,,,,,,,,,,,,,,,,,,,,,,,,,,,,,,,,,,,,,,,,,,,,,,,,,,,,,,,,,,,,,,,,,,,,,,,,,,,,,,,,,,,,,,,,,,,,,,,,,,,,,,,,,,,,,,,,,,,,,,,,,,,,,,,,,,,,,,,,,,,,,,,,,,,,,,
,,,,,,611eb4cfb28943e584e11af0,62bbf9d58c9c0877dc5cb4a6,2022-06-29_09h13.11.367,Colour_Asymmetry_Pilot,2022.1.3,Win32,59.82292414,62bbe60bf3d75ef465d3e404,0,62,62,124,1,threeone,,,,,,,,,,,,,,,,,,,,,,,,,,,,,,,,,,,,,,,,,,,,,,,,,,,,,,,,,,,,,,,,,,,,,,,,,,,,,,,,,,,,,,,,,,,,,,,,,,,,,,,,,,,,,,,,,,,,,,,,,,,,,,,,,,,,,,,,,,,,,,,,,,,,,,,,
,,,,,,611eb4cfb28943e584e11af0,62bbf9d58c9c0877dc5cb4a6,2022-06-29_09h13.11.367,Colour_Asymmetry_Pilot,2022.1.3,Win32,59.82292414,62bbe60bf3d75ef465d3e404,0,63,63,4,1,threeone,,,,,,,,,,,,,,,,,,,,,,,,,,,,,,,,,,,,,,,,,,,,,,,,,,,,,,,,,,,,,,,,,,,,,,,,,,,,,,,,,,,,,,,,,,,,,,,,,,,,,,,,,,,,,,,,,,,,,,,,,,,,,,,,,,,,,,,,,,,,,,,,,,,,,,,,
,,,,,,611eb4cfb28943e584e11af0,62bbf9d58c9c0877dc5cb4a6,2022-06-29_09h13.11.367,Colour_Asymmetry_Pilot,2022.1.3,Win32,59.82292414,62bbe60bf3d75ef465d3e404,0,64,64,28,1,threeone,,,,,,,,,,,,,,,,,,,,,,,,,,,,,,,,,,,,,,,,,,,,,,,,,,,,,,,,,,,,,,,,,,,,,,,,,,,,,,,,,,,,,,,,,,,,,,,,,,,,,,,,,,,,,,,,,,,,,,,,,,,,,,,,,,,,,,,,,,,,,,,,,,,,,,,,
,,,,,,611eb4cfb28943e584e11af0,62bbf9d58c9c0877dc5cb4a6,2022-06-29_09h13.11.367,Colour_Asymmetry_Pilot,2022.1.3,Win32,59.82292414,62bbe60bf3d75ef465d3e404,0,65,65,80,1,onetwo,,,,,,,,,,,,,,,,,,,,,,,,,,,,,,,,,,,,,,,,,,,,,,,,,,,,,,,,,,,,,,,,,,,,,,,,,,,,,,,,,,,,,,,,,,,,,,,,,,,,,,,,,,,,,,,,,,,,,,,,,,,,,,,,,,,,,,,,,,,,,,,,,,,,,,,,
,,,,,,611eb4cfb28943e584e11af0,62bbf9d58c9c0877dc5cb4a6,2022-06-29_09h13.11.367,Colour_Asymmetry_Pilot,2022.1.3,Win32,59.82292414,62bbe60bf3d75ef465d3e404,0,66,66,47,1,fourthree,,,,,,,,,,,,,,,,,,,,,,,,,,,,,,,,,,,,,,,,,,,,,,,,,,,,,,,,,,,,,,,,,,,,,,,,,,,,,,,,,,,,,,,,,,,,,,,,,,,,,,,,,,,,,,,,,,,,,,,,,,,,,,,,,,,,,,,,,,,,,,,,,,,,,,,,
,,,,,,611eb4cfb28943e584e11af0,62bbf9d58c9c0877dc5cb4a6,2022-06-29_09h13.11.367,Colour_Asymmetry_Pilot,2022.1.3,Win32,59.82292414,62bbe60bf3d75ef465d3e404,0,67,67,24,1,onetwo,,,,,,,,,,,,,,,,,,,,,,,,,,,,,,,,,,,,,,,,,,,,,,,,,,,,,,,,,,,,,,,,,,,,,,,,,,,,,,,,,,,,,,,,,,,,,,,,,,,,,,,,,,,,,,,,,,,,,,,,,,,,,,,,,,,,,,,,,,,,,,,,,,,,,,,,
,,,,,,611eb4cfb28943e584e11af0,62bbf9d58c9c0877dc5cb4a6,2022-06-29_09h13.11.367,Colour_Asymmetry_Pilot,2022.1.3,Win32,59.82292414,62bbe60bf3d75ef465d3e404,0,68,68,34,1,twoone,,,,,,,,,,,,,,,,,,,,,,,,,,,,,,,,,,,,,,,,,,,,,,,,,,,,,,,,,,,,,,,,,,,,,,,,,,,,,,,,,,,,,,,,,,,,,,,,,,,,,,,,,,,,,,,,,,,,,,,,,,,,,,,,,,,,,,,,,,,,,,,,,,,,,,,,
,,,,,,611eb4cfb28943e584e11af0,62bbf9d58c9c0877dc5cb4a6,2022-06-29_09h13.11.367,Colour_Asymmetry_Pilot,2022.1.3,Win32,59.82292414,62bbe60bf3d75ef465d3e404,0,69,69,100,1,threeone,,,,,,,,,,,,,,,,,,,,,,,,,,,,,,,,,,,,,,,,,,,,,,,,,,,,,,,,,,,,,,,,,,,,,,,,,,,,,,,,,,,,,,,,,,,,,,,,,,,,,,,,,,,,,,,,,,,,,,,,,,,,,,,,,,,,,,,,,,,,,,,,,,,,,,,,
,,,,,,611eb4cfb28943e584e11af0,62bbf9d58c9c0877dc5cb4a6,2022-06-29_09h13.11.367,Colour_Asymmetry_Pilot,2022.1.3,Win32,59.82292414,62bbe60bf3d75ef465d3e404,0,70,70,146,1,twoone,,,,,,,,,,,,,,,,,,,,,,,,,,,,,,,,,,,,,,,,,,,,,,,,,,,,,,,,,,,,,,,,,,,,,,,,,,,,,,,,,,,,,,,,,,,,,,,,,,,,,,,,,,,,,,,,,,,,,,,,,,,,,,,,,,,,,,,,,,,,,,,,,,,,,,,,
,,,,,,611eb4cfb28943e584e11af0,62bbf9d58c9c0877dc5cb4a6,2022-06-29_09h13.11.367,Colour_Asymmetry_Pilot,2022.1.3,Win32,59.82292414,62bbe60bf3d75ef465d3e404,0,71,71,135,1,fourthree,,,,,,,,,,,,,,,,,,,,,,,,,,,,,,,,,,,,,,,,,,,,,,,,,,,,,,,,,,,,,,,,,,,,,,,,,,,,,,,,,,,,,,,,,,,,,,,,,,,,,,,,,,,,,,,,,,,,,,,,,,,,,,,,,,,,,,,,,,,,,,,,,,,,,,,,
,,,,,,611eb4cfb28943e584e11af0,62bbf9d58c9c0877dc5cb4a6,2022-06-29_09h13.11.367,Colour_Asymmetry_Pilot,2022.1.3,Win32,59.82292414,62bbe60bf3d75ef465d3e404,0,72,72,105,1,onethree,,,,,,,,,,,,,,,,,,,,,,,,,,,,,,,,,,,,,,,,,,,,,,,,,,,,,,,,,,,,,,,,,,,,,,,,,,,,,,,,,,,,,,,,,,,,,,,,,,,,,,,,,,,,,,,,,,,,,,,,,,,,,,,,,,,,,,,,,,,,,,,,,,,,,,,,
,,,,,,611eb4cfb28943e584e11af0,62bbf9d58c9c0877dc5cb4a6,2022-06-29_09h13.11.367,Colour_Asymmetry_Pilot,2022.1.3,Win32,59.82292414,62bbe60bf3d75ef465d3e404,0,73,73,9,1,onethree,,,,,,,,,,,,,,,,,,,,,,,,,,,,,,,,,,,,,,,,,,,,,,,,,,,,,,,,,,,,,,,,,,,,,,,,,,,,,,,,,,,,,,,,,,,,,,,,,,,,,,,,,,,,,,,,,,,,,,,,,,,,,,,,,,,,,,,,,,,,,,,,,,,,,,,,
,,,,,,611eb4cfb28943e584e11af0,62bbf9d58c9c0877dc5cb4a6,2022-06-29_09h13.11.367,Colour_Asymmetry_Pilot,2022.1.3,Win32,59.82292414,62bbe60bf3d75ef465d3e404,0,74,74,152,1,onetwo,,,,,,,,,,,,,,,,,,,,,,,,,,,,,,,,,,,,,,,,,,,,,,,,,,,,,,,,,,,,,,,,,,,,,,,,,,,,,,,,,,,,,,,,,,,,,,,,,,,,,,,,,,,,,,,,,,,,,,,,,,,,,,,,,,,,,,,,,,,,,,,,,,,,,,,,
,,,,,,611eb4cfb28943e584e11af0,62bbf9d58c9c0877dc5cb4a6,2022-06-29_09h13.11.367,Colour_Asymmetry_Pilot,2022.1.3,Win32,59.82292414,62bbe60bf3d75ef465d3e404,0,75,75,118,1,fourtwo,,,,,,,,,,,,,,,,,,,,,,,,,,,,,,,,,,,,,,,,,,,,,,,,,,,,,,,,,,,,,,,,,,,,,,,,,,,,,,,,,,,,,,,,,,,,,,,,,,,,,,,,,,,,,,,,,,,,,,,,,,,,,,,,,,,,,,,,,,,,,,,,,,,,,,,,
,,,,,,611eb4cfb28943e584e11af0,62bbf9d58c9c0877dc5cb4a6,2022-06-29_09h13.11.367,Colour_Asymmetry_Pilot,2022.1.3,Win32,59.82292414,62bbe60bf3d75ef465d3e404,0,76,76,98,1,twoone,,,,,,,,,,,,,,,,,,,,,,,,,,,,,,,,,,,,,,,,,,,,,,,,,,,,,,,,,,,,,,,,,,,,,,,,,,,,,,,,,,,,,,,,,,,,,,,,,,,,,,,,,,,,,,,,,,,,,,,,,,,,,,,,,,,,,,,,,,,,,,,,,,,,,,,,
,,,,,,611eb4cfb28943e584e11af0,62bbf9d58c9c0877dc5cb4a6,2022-06-29_09h13.11.367,Colour_Asymmetry_Pilot,2022.1.3,Win32,59.82292414,62bbe60bf3d75ef465d3e404,0,77,77,157,1,threefour,,,,,,,,,,,,,,,,,,,,,,,,,,,,,,,,,,,,,,,,,,,,,,,,,,,,,,,,,,,,,,,,,,,,,,,,,,,,,,,,,,,,,,,,,,,,,,,,,,,,,,,,,,,,,,,,,,,,,,,,,,,,,,,,,,,,,,,,,,,,,,,,,,,,,,,,
,,,,,,611eb4cfb28943e584e11af0,62bbf9d58c9c0877dc5cb4a6,2022-06-29_09h13.11.367,Colour_Asymmetry_Pilot,2022.1.3,Win32,59.82292414,62bbe60bf3d75ef465d3e404,0,78,78,145,1,onethree,,,,,,,,,,,,,,,,,,,,,,,,,,,,,,,,,,,,,,,,,,,,,,,,,,,,,,,,,,,,,,,,,,,,,,,,,,,,,,,,,,,,,,,,,,,,,,,,,,,,,,,,,,,,,,,,,,,,,,,,,,,,,,,,,,,,,,,,,,,,,,,,,,,,,,,,
,,,,,,611eb4cfb28943e584e11af0,62bbf9d58c9c0877dc5cb4a6,2022-06-29_09h13.11.367,Colour_Asymmetry_Pilot,2022.1.3,Win32,59.82292414,62bbe60bf3d75ef465d3e404,0,79,79,21,1,threefour,,,,,,,,,,,,,,,,,,,,,,,,,,,,,,,,,,,,,,,,,,,,,,,,,,,,,,,,,,,,,,,,,,,,,,,,,,,,,,,,,,,,,,,,,,,,,,,,,,,,,,,,,,,,,,,,,,,,,,,,,,,,,,,,,,,,,,,,,,,,,,,,,,,,,,,,
,,,,,,611eb4cfb28943e584e11af0,62bbf9d58c9c0877dc5cb4a6,2022-06-29_09h13.11.367,Colour_Asymmetry_Pilot,2022.1.3,Win32,59.82292414,62bbe60bf3d75ef465d3e404,0,80,80,46,1,fourtwo,,,,,,,,,,,,,,,,,,,,,,,,,,,,,,,,,,,,,,,,,,,,,,,,,,,,,,,,,,,,,,,,,,,,,,,,,,,,,,,,,,,,,,,,,,,,,,,,,,,,,,,,,,,,,,,,,,,,,,,,,,,,,,,,,,,,,,,,,,,,,,,,,,,,,,,,
,,,,,,611eb4cfb28943e584e11af0,62bbf9d58c9c0877dc5cb4a6,2022-06-29_09h13.11.367,Colour_Asymmetry_Pilot,2022.1.3,Win32,59.82292414,62bbe60bf3d75ef465d3e404,0,81,81,150,1,fourtwo,,,,,,,,,,,,,,,,,,,,,,,,,,,,,,,,,,,,,,,,,,,,,,,,,,,,,,,,,,,,,,,,,,,,,,,,,,,,,,,,,,,,,,,,,,,,,,,,,,,,,,,,,,,,,,,,,,,,,,,,,,,,,,,,,,,,,,,,,,,,,,,,,,,,,,,,
,,,,,,611eb4cfb28943e584e11af0,62bbf9d58c9c0877dc5cb4a6,2022-06-29_09h13.11.367,Colour_Asymmetry_Pilot,2022.1.3,Win32,59.82292414,62bbe60bf3d75ef465d3e404,0,82,82,64,1,onetwo,,,,,,,,,,,,,,,,,,,,,,,,,,,,,,,,,,,,,,,,,,,,,,,,,,,,,,,,,,,,,,,,,,,,,,,,,,,,,,,,,,,,,,,,,,,,,,,,,,,,,,,,,,,,,,,,,,,,,,,,,,,,,,,,,,,,,,,,,,,,,,,,,,,,,,,,
,,,,,,611eb4cfb28943e584e11af0,62bbf9d58c9c0877dc5cb4a6,2022-06-29_09h13.11.367,Colour_Asymmetry_Pilot,2022.1.3,Win32,59.82292414,62bbe60bf3d75ef465d3e404,0,83,83,97,1,onethree,,,,,,,,,,,,,,,,,,,,,,,,,,,,,,,,,,,,,,,,,,,,,,,,,,,,,,,,,,,,,,,,,,,,,,,,,,,,,,,,,,,,,,,,,,,,,,,,,,,,,,,,,,,,,,,,,,,,,,,,,,,,,,,,,,,,,,,,,,,,,,,,,,,,,,,,
,,,,,,611eb4cfb28943e584e11af0,62bbf9d58c9c0877dc5cb4a6,2022-06-29_09h13.11.367,Colour_Asymmetry_Pilot,2022.1.3,Win32,59.82292414,62bbe60bf3d75ef465d3e404,0,84,84,91,1,twofour,,,,,,,,,,,,,,,,,,,,,,,,,,,,,,,,,,,,,,,,,,,,,,,,,,,,,,,,,,,,,,,,,,,,,,,,,,,,,,,,,,,,,,,,,,,,,,,,,,,,,,,,,,,,,,,,,,,,,,,,,,,,,,,,,,,,,,,,,,,,,,,,,,,,,,,,
,,,,,,611eb4cfb28943e584e11af0,62bbf9d58c9c0877dc5cb4a6,2022-06-29_09h13.11.367,Colour_Asymmetry_Pilot,2022.1.3,Win32,59.82292414,62bbe60bf3d75ef465d3e404,0,85,85,20,1,threeone,,,,,,,,,,,,,,,,,,,,,,,,,,,,,,,,,,,,,,,,,,,,,,,,,,,,,,,,,,,,,,,,,,,,,,,,,,,,,,,,,,,,,,,,,,,,,,,,,,,,,,,,,,,,,,,,,,,,,,,,,,,,,,,,,,,,,,,,,,,,,,,,,,,,,,,,
,,,,,,611eb4cfb28943e584e11af0,62bbf9d58c9c0877dc5cb4a6,2022-06-29_09h13.11.367,Colour_Asymmetry_Pilot,2022.1.3,Win32,59.82292414,62bbe60bf3d75ef465d3e404,0,86,86,136,1,onetwo,,,,,,,,,,,,,,,,,,,,,,,,,,,,,,,,,,,,,,,,,,,,,,,,,,,,,,,,,,,,,,,,,,,,,,,,,,,,,,,,,,,,,,,,,,,,,,,,,,,,,,,,,,,,,,,,,,,,,,,,,,,,,,,,,,,,,,,,,,,,,,,,,,,,,,,,
,,,,,,611eb4cfb28943e584e11af0,62bbf9d58c9c0877dc5cb4a6,2022-06-29_09h13.11.367,Colour_Asymmetry_Pilot,2022.1.3,Win32,59.82292414,62bbe60bf3d75ef465d3e404,0,87,87,16,1,onetwo,,,,,,,,,,,,,,,,,,,,,,,,,,,,,,,,,,,,,,,,,,,,,,,,,,,,,,,,,,,,,,,,,,,,,,,,,,,,,,,,,,,,,,,,,,,,,,,,,,,,,,,,,,,,,,,,,,,,,,,,,,,,,,,,,,,,,,,,,,,,,,,,,,,,,,,,
,,,,,,611eb4cfb28943e584e11af0,62bbf9d58c9c0877dc5cb4a6,2022-06-29_09h13.11.367,Colour_Asymmetry_Pilot,2022.1.3,Win32,59.82292414,62bbe60bf3d75ef465d3e404,0,88,88,14,1,fourtwo,,,,,,,,,,,,,,,,,,,,,,,,,,,,,,,,,,,,,,,,,,,,,,,,,,,,,,,,,,,,,,,,,,,,,,,,,,,,,,,,,,,,,,,,,,,,,,,,,,,,,,,,,,,,,,,,,,,,,,,,,,,,,,,,,,,,,,,,,,,,,,,,,,,,,,,,
,,,,,,611eb4cfb28943e584e11af0,62bbf9d58c9c0877dc5cb4a6,2022-06-29_09h13.11.367,Colour_Asymmetry_Pilot,2022.1.3,Win32,59.82292414,62bbe60bf3d75ef465d3e404,0,89,89,143,1,fourthree,,,,,,,,,,,,,,,,,,,,,,,,,,,,,,,,,,,,,,,,,,,,,,,,,,,,,,,,,,,,,,,,,,,,,,,,,,,,,,,,,,,,,,,,,,,,,,,,,,,,,,,,,,,,,,,,,,,,,,,,,,,,,,,,,,,,,,,,,,,,,,,,,,,,,,,,
,,,,,,611eb4cfb28943e584e11af0,62bbf9d58c9c0877dc5cb4a6,2022-06-29_09h13.11.367,Colour_Asymmetry_Pilot,2022.1.3,Win32,59.82292414,62bbe60bf3d75ef465d3e404,0,90,90,155,1,twofour,,,,,,,,,,,,,,,,,,,,,,,,,,,,,,,,,,,,,,,,,,,,,,,,,,,,,,,,,,,,,,,,,,,,,,,,,,,,,,,,,,,,,,,,,,,,,,,,,,,,,,,,,,,,,,,,,,,,,,,,,,,,,,,,,,,,,,,,,,,,,,,,,,,,,,,,
,,,,,,611eb4cfb28943e584e11af0,62bbf9d58c9c0877dc5cb4a6,2022-06-29_09h13.11.367,Colour_Asymmetry_Pilot,2022.1.3,Win32,59.82292414,62bbe60bf3d75ef465d3e404,0,91,91,70,1,fourtwo,,,,,,,,,,,,,,,,,,,,,,,,,,,,,,,,,,,,,,,,,,,,,,,,,,,,,,,,,,,,,,,,,,,,,,,,,,,,,,,,,,,,,,,,,,,,,,,,,,,,,,,,,,,,,,,,,,,,,,,,,,,,,,,,,,,,,,,,,,,,,,,,,,,,,,,,
,,,,,,611eb4cfb28943e584e11af0,62bbf9d58c9c0877dc5cb4a6,2022-06-29_09h13.11.367,Colour_Asymmetry_Pilot,2022.1.3,Win32,59.82292414,62bbe60bf3d75ef465d3e404,0,92,92,10,1,twoone,,,,,,,,,,,,,,,,,,,,,,,,,,,,,,,,,,,,,,,,,,,,,,,,,,,,,,,,,,,,,,,,,,,,,,,,,,,,,,,,,,,,,,,,,,,,,,,,,,,,,,,,,,,,,,,,,,,,,,,,,,,,,,,,,,,,,,,,,,,,,,,,,,,,,,,,
,,,,,,611eb4cfb28943e584e11af0,62bbf9d58c9c0877dc5cb4a6,2022-06-29_09h13.11.367,Colour_Asymmetry_Pilot,2022.1.3,Win32,59.82292414,62bbe60bf3d75ef465d3e404,0,93,93,40,1,onetwo,,,,,,,,,,,,,,,,,,,,,,,,,,,,,,,,,,,,,,,,,,,,,,,,,,,,,,,,,,,,,,,,,,,,,,,,,,,,,,,,,,,,,,,,,,,,,,,,,,,,,,,,,,,,,,,,,,,,,,,,,,,,,,,,,,,,,,,,,,,,,,,,,,,,,,,,
,,,,,,611eb4cfb28943e584e11af0,62bbf9d58c9c0877dc5cb4a6,2022-06-29_09h13.11.367,Colour_Asymmetry_Pilot,2022.1.3,Win32,59.82292414,62bbe60bf3d75ef465d3e404,0,94,94,147,1,twofour,,,,,,,,,,,,,,,,,,,,,,,,,,,,,,,,,,,,,,,,,,,,,,,,,,,,,,,,,,,,,,,,,,,,,,,,,,,,,,,,,,,,,,,,,,,,,,,,,,,,,,,,,,,,,,,,,,,,,,,,,,,,,,,,,,,,,,,,,,,,,,,,,,,,,,,,
,,,,,,611eb4cfb28943e584e11af0,62bbf9d58c9c0877dc5cb4a6,2022-06-29_09h13.11.367,Colour_Asymmetry_Pilot,2022.1.3,Win32,59.82292414,62bbe60bf3d75ef465d3e404,0,95,95,33,1,onethree,,,,,,,,,,,,,,,,,,,,,,,,,,,,,,,,,,,,,,,,,,,,,,,,,,,,,,,,,,,,,,,,,,,,,,,,,,,,,,,,,,,,,,,,,,,,,,,,,,,,,,,,,,,,,,,,,,,,,,,,,,,,,,,,,,,,,,,,,,,,,,,,,,,,,,,,
,,,,,,611eb4cfb28943e584e11af0,62bbf9d58c9c0877dc5cb4a6,2022-06-29_09h13.11.367,Colour_Asymmetry_Pilot,2022.1.3,Win32,59.82292414,62bbe60bf3d75ef465d3e404,0,96,96,103,1,fourthree,,,,,,,,,,,,,,,,,,,,,,,,,,,,,,,,,,,,,,,,,,,,,,,,,,,,,,,,,,,,,,,,,,,,,,,,,,,,,,,,,,,,,,,,,,,,,,,,,,,,,,,,,,,,,,,,,,,,,,,,,,,,,,,,,,,,,,,,,,,,,,,,,,,,,,,,
,,,,,,611eb4cfb28943e584e11af0,62bbf9d58c9c0877dc5cb4a6,2022-06-29_09h13.11.367,Colour_Asymmetry_Pilot,2022.1.3,Win32,59.82292414,62bbe60bf3d75ef465d3e404,0,97,97,148,1,threeone,,,,,,,,,,,,,,,,,,,,,,,,,,,,,,,,,,,,,,,,,,,,,,,,,,,,,,,,,,,,,,,,,,,,,,,,,,,,,,,,,,,,,,,,,,,,,,,,,,,,,,,,,,,,,,,,,,,,,,,,,,,,,,,,,,,,,,,,,,,,,,,,,,,,,,,,
,,,,,,611eb4cfb28943e584e11af0,62bbf9d58c9c0877dc5cb4a6,2022-06-29_09h13.11.367,Colour_Asymmetry_Pilot,2022.1.3,Win32,59.82292414,62bbe60bf3d75ef465d3e404,0,98,98,139,1,twofour,,,,,,,,,,,,,,,,,,,,,,,,,,,,,,,,,,,,,,,,,,,,,,,,,,,,,,,,,,,,,,,,,,,,,,,,,,,,,,,,,,,,,,,,,,,,,,,,,,,,,,,,,,,,,,,,,,,,,,,,,,,,,,,,,,,,,,,,,,,,,,,,,,,,,,,,
,,,,,,611eb4cfb28943e584e11af0,62bbf9d58c9c0877dc5cb4a6,2022-06-29_09h13.11.367,Colour_Asymmetry_Pilot,2022.1.3,Win32,59.82292414,62bbe60bf3d75ef465d3e404,0,99,99,36,1,threeone,,,,,,,,,,,,,,,,,,,,,,,,,,,,,,,,,,,,,,,,,,,,,,,,,,,,,,,,,,,,,,,,,,,,,,,,,,,,,,,,,,,,,,,,,,,,,,,,,,,,,,,,,,,,,,,,,,,,,,,,,,,,,,,,,,,,,,,,,,,,,,,,,,,,,,,,
,,,,,,611eb4cfb28943e584e11af0,62bbf9d58c9c0877dc5cb4a6,2022-06-29_09h13.11.367,Colour_Asymmetry_Pilot,2022.1.3,Win32,59.82292414,62bbe60bf3d75ef465d3e404,0,100,100,89,1,onethree,,,,,,,,,,,,,,,,,,,,,,,,,,,,,,,,,,,,,,,,,,,,,,,,,,,,,,,,,,,,,,,,,,,,,,,,,,,,,,,,,,,,,,,,,,,,,,,,,,,,,,,,,,,,,,,,,,,,,,,,,,,,,,,,,,,,,,,,,,,,,,,,,,,,,,,,
,,,,,,611eb4cfb28943e584e11af0,62bbf9d58c9c0877dc5cb4a6,2022-06-29_09h13.11.367,Colour_Asymmetry_Pilot,2022.1.3,Win32,59.82292414,62bbe60bf3d75ef465d3e404,0,101,101,75,1,twofour,,,,,,,,,,,,,,,,,,,,,,,,,,,,,,,,,,,,,,,,,,,,,,,,,,,,,,,,,,,,,,,,,,,,,,,,,,,,,,,,,,,,,,,,,,,,,,,,,,,,,,,,,,,,,,,,,,,,,,,,,,,,,,,,,,,,,,,,,,,,,,,,,,,,,,,,
,,,,,,611eb4cfb28943e584e11af0,62bbf9d58c9c0877dc5cb4a6,2022-06-29_09h13.11.367,Colour_Asymmetry_Pilot,2022.1.3,Win32,59.82292414,62bbe60bf3d75ef465d3e404,0,102,102,19,1,twofour,,,,,,,,,,,,,,,,,,,,,,,,,,,,,,,,,,,,,,,,,,,,,,,,,,,,,,,,,,,,,,,,,,,,,,,,,,,,,,,,,,,,,,,,,,,,,,,,,,,,,,,,,,,,,,,,,,,,,,,,,,,,,,,,,,,,,,,,,,,,,,,,,,,,,,,,
,,,,,,611eb4cfb28943e584e11af0,62bbf9d58c9c0877dc5cb4a6,2022-06-29_09h13.11.367,Colour_Asymmetry_Pilot,2022.1.3,Win32,59.82292414,62bbe60bf3d75ef465d3e404,0,103,103,137,1,onethree,,,,,,,,,,,,,,,,,,,,,,,,,,,,,,,,,,,,,,,,,,,,,,,,,,,,,,,,,,,,,,,,,,,,,,,,,,,,,,,,,,,,,,,,,,,,,,,,,,,,,,,,,,,,,,,,,,,,,,,,,,,,,,,,,,,,,,,,,,,,,,,,,,,,,,,,
,,,,,,611eb4cfb28943e584e11af0,62bbf9d58c9c0877dc5cb4a6,2022-06-29_09h13.11.367,Colour_Asymmetry_Pilot,2022.1.3,Win32,59.82292414,62bbe60bf3d75ef465d3e404,0,104,104,161,1,onethree,,,,,,,,,,,,,,,,,,,,,,,,,,,,,,,,,,,,,,,,,,,,,,,,,,,,,,,,,,,,,,,,,,,,,,,,,,,,,,,,,,,,,,,,,,,,,,,,,,,,,,,,,,,,,,,,,,,,,,,,,,,,,,,,,,,,,,,,,,,,,,,,,,,,,,,,
,,,,,,611eb4cfb28943e584e11af0,62bbf9d58c9c0877dc5cb4a6,2022-06-29_09h13.11.367,Colour_Asymmetry_Pilot,2022.1.3,Win32,59.82292414,62bbe60bf3d75ef465d3e404,0,105,105,106,1,twoone,,,,,,,,,,,,,,,,,,,,,,,,,,,,,,,,,,,,,,,,,,,,,,,,,,,,,,,,,,,,,,,,,,,,,,,,,,,,,,,,,,,,,,,,,,,,,,,,,,,,,,,,,,,,,,,,,,,,,,,,,,,,,,,,,,,,,,,,,,,,,,,,,,,,,,,,
,,,,,,611eb4cfb28943e584e11af0,62bbf9d58c9c0877dc5cb4a6,2022-06-29_09h13.11.367,Colour_Asymmetry_Pilot,2022.1.3,Win32,59.82292414,62bbe60bf3d75ef465d3e404,0,106,106,142,1,fourtwo,,,,,,,,,,,,,,,,,,,,,,,,,,,,,,,,,,,,,,,,,,,,,,,,,,,,,,,,,,,,,,,,,,,,,,,,,,,,,,,,,,,,,,,,,,,,,,,,,,,,,,,,,,,,,,,,,,,,,,,,,,,,,,,,,,,,,,,,,,,,,,,,,,,,,,,,
,,,,,,611eb4cfb28943e584e11af0,62bbf9d58c9c0877dc5cb4a6,2022-06-29_09h13.11.367,Colour_Asymmetry_Pilot,2022.1.3,Win32,59.82292414,62bbe60bf3d75ef465d3e404,0,107,107,76,1,threeone,,,,,,,,,,,,,,,,,,,,,,,,,,,,,,,,,,,,,,,,,,,,,,,,,,,,,,,,,,,,,,,,,,,,,,,,,,,,,,,,,,,,,,,,,,,,,,,,,,,,,,,,,,,,,,,,,,,,,,,,,,,,,,,,,,,,,,,,,,,,,,,,,,,,,,,,
,,,,,,611eb4cfb28943e584e11af0,62bbf9d58c9c0877dc5cb4a6,2022-06-29_09h13.11.367,Colour_Asymmetry_Pilot,2022.1.3,Win32,59.82292414,62bbe60bf3d75ef465d3e404,0,108,108,32,1,onetwo,,,,,,,,,,,,,,,,,,,,,,,,,,,,,,,,,,,,,,,,,,,,,,,,,,,,,,,,,,,,,,,,,,,,,,,,,,,,,,,,,,,,,,,,,,,,,,,,,,,,,,,,,,,,,,,,,,,,,,,,,,,,,,,,,,,,,,,,,,,,,,,,,,,,,,,,
,,,,,,611eb4cfb28943e584e11af0,62bbf9d58c9c0877dc5cb4a6,2022-06-29_09h13.11.367,Colour_Asymmetry_Pilot,2022.1.3,Win32,59.82292414,62bbe60bf3d75ef465d3e404,0,109,109,18,1,twoone,,,,,,,,,,,,,,,,,,,,,,,,,,,,,,,,,,,,,,,,,,,,,,,,,,,,,,,,,,,,,,,,,,,,,,,,,,,,,,,,,,,,,,,,,,,,,,,,,,,,,,,,,,,,,,,,,,,,,,,,,,,,,,,,,,,,,,,,,,,,,,,,,,,,,,,,
,,,,,,611eb4cfb28943e584e11af0,62bbf9d58c9c0877dc5cb4a6,2022-06-29_09h13.11.367,Colour_Asymmetry_Pilot,2022.1.3,Win32,59.82292414,62bbe60bf3d75ef465d3e404,0,110,110,48,1,onetwo,,,,,,,,,,,,,,,,,,,,,,,,,,,,,,,,,,,,,,,,,,,,,,,,,,,,,,,,,,,,,,,,,,,,,,,,,,,,,,,,,,,,,,,,,,,,,,,,,,,,,,,,,,,,,,,,,,,,,,,,,,,,,,,,,,,,,,,,,,,,,,,,,,,,,,,,
,,,,,,611eb4cfb28943e584e11af0,62bbf9d58c9c0877dc5cb4a6,2022-06-29_09h13.11.367,Colour_Asymmetry_Pilot,2022.1.3,Win32,59.82292414,62bbe60bf3d75ef465d3e404,0,111,111,78,1,fourtwo,,,,,,,,,,,,,,,,,,,,,,,,,,,,,,,,,,,,,,,,,,,,,,,,,,,,,,,,,,,,,,,,,,,,,,,,,,,,,,,,,,,,,,,,,,,,,,,,,,,,,,,,,,,,,,,,,,,,,,,,,,,,,,,,,,,,,,,,,,,,,,,,,,,,,,,,
,,,,,,611eb4cfb28943e584e11af0,62bbf9d58c9c0877dc5cb4a6,2022-06-29_09h13.11.367,Colour_Asymmetry_Pilot,2022.1.3,Win32,59.82292414,62bbe60bf3d75ef465d3e404,0,112,112,153,1,onethree,,,,,,,,,,,,,,,,,,,,,,,,,,,,,,,,,,,,,,,,,,,,,,,,,,,,,,,,,,,,,,,,,,,,,,,,,,,,,,,,,,,,,,,,,,,,,,,,,,,,,,,,,,,,,,,,,,,,,,,,,,,,,,,,,,,,,,,,,,,,,,,,,,,,,,,,
,,,,,,611eb4cfb28943e584e11af0,62bbf9d58c9c0877dc5cb4a6,2022-06-29_09h13.11.367,Colour_Asymmetry_Pilot,2022.1.3,Win32,59.82292414,62bbe60bf3d75ef465d3e404,0,113,113,159,1,fourthree,,,,,,,,,,,,,,,,,,,,,,,,,,,,,,,,,,,,,,,,,,,,,,,,,,,,,,,,,,,,,,,,,,,,,,,,,,,,,,,,,,,,,,,,,,,,,,,,,,,,,,,,,,,,,,,,,,,,,,,,,,,,,,,,,,,,,,,,,,,,,,,,,,,,,,,,
,,,,,,611eb4cfb28943e584e11af0,62bbf9d58c9c0877dc5cb4a6,2022-06-29_09h13.11.367,Colour_Asymmetry_Pilot,2022.1.3,Win32,59.82292414,62bbe60bf3d75ef465d3e404,0,114,114,58,1,twoone,,,,,,,,,,,,,,,,,,,,,,,,,,,,,,,,,,,,,,,,,,,,,,,,,,,,,,,,,,,,,,,,,,,,,,,,,,,,,,,,,,,,,,,,,,,,,,,,,,,,,,,,,,,,,,,,,,,,,,,,,,,,,,,,,,,,,,,,,,,,,,,,,,,,,,,,
,,,,,,611eb4cfb28943e584e11af0,62bbf9d58c9c0877dc5cb4a6,2022-06-29_09h13.11.367,Colour_Asymmetry_Pilot,2022.1.3,Win32,59.82292414,62bbe60bf3d75ef465d3e404,0,115,115,11,1,twofour,,,,,,,,,,,,,,,,,,,,,,,,,,,,,,,,,,,,,,,,,,,,,,,,,,,,,,,,,,,,,,,,,,,,,,,,,,,,,,,,,,,,,,,,,,,,,,,,,,,,,,,,,,,,,,,,,,,,,,,,,,,,,,,,,,,,,,,,,,,,,,,,,,,,,,,,
,,,,,,611eb4cfb28943e584e11af0,62bbf9d58c9c0877dc5cb4a6,2022-06-29_09h13.11.367,Colour_Asymmetry_Pilot,2022.1.3,Win32,59.82292414,62bbe60bf3d75ef465d3e404,0,116,116,126,1,fourtwo,,,,,,,,,,,,,,,,,,,,,,,,,,,,,,,,,,,,,,,,,,,,,,,,,,,,,,,,,,,,,,,,,,,,,,,,,,,,,,,,,,,,,,,,,,,,,,,,,,,,,,,,,,,,,,,,,,,,,,,,,,,,,,,,,,,,,,,,,,,,,,,,,,,,,,,,
,,,,,,611eb4cfb28943e584e11af0,62bbf9d58c9c0877dc5cb4a6,2022-06-29_09h13.11.367,Colour_Asymmetry_Pilot,2022.1.3,Win32,59.82292414,62bbe60bf3d75ef465d3e404,0,117,117,81,1,onethree,,,,,,,,,,,,,,,,,,,,,,,,,,,,,,,,,,,,,,,,,,,,,,,,,,,,,,,,,,,,,,,,,,,,,,,,,,,,,,,,,,,,,,,,,,,,,,,,,,,,,,,,,,,,,,,,,,,,,,,,,,,,,,,,,,,,,,,,,,,,,,,,,,,,,,,,
,,,,,,611eb4cfb28943e584e11af0,62bbf9d58c9c0877dc5cb4a6,2022-06-29_09h13.11.367,Colour_Asymmetry_Pilot,2022.1.3,Win32,59.82292414,62bbe60bf3d75ef465d3e404,0,118,118,41,1,onethree,,,,,,,,,,,,,,,,,,,,,,,,,,,,,,,,,,,,,,,,,,,,,,,,,,,,,,,,,,,,,,,,,,,,,,,,,,,,,,,,,,,,,,,,,,,,,,,,,,,,,,,,,,,,,,,,,,,,,,,,,,,,,,,,,,,,,,,,,,,,,,,,,,,,,,,,
,,,,,,611eb4cfb28943e584e11af0,62bbf9d58c9c0877dc5cb4a6,2022-06-29_09h13.11.367,Colour_Asymmetry_Pilot,2022.1.3,Win32,59.82292414,62bbe60bf3d75ef465d3e404,0,119,119,140,1,threeone,,,,,,,,,,,,,,,,,,,,,,,,,,,,,,,,,,,,,,,,,,,,,,,,,,,,,,,,,,,,,,,,,,,,,,,,,,,,,,,,,,,,,,,,,,,,,,,,,,,,,,,,,,,,,,,,,,,,,,,,,,,,,,,,,,,,,,,,,,,,,,,,,,,,,,,,
,,,,,,611eb4cfb28943e584e11af0,62bbf9d58c9c0877dc5cb4a6,2022-06-29_09h13.11.367,Colour_Asymmetry_Pilot,2022.1.3,Win32,59.82292414,62bbe60bf3d75ef465d3e404,0,120,120,109,1,threefour,,,,,,,,,,,,,,,,,,,,,,,,,,,,,,,,,,,,,,,,,,,,,,,,,,,,,,,,,,,,,,,,,,,,,,,,,,,,,,,,,,,,,,,,,,,,,,,,,,,,,,,,,,,,,,,,,,,,,,,,,,,,,,,,,,,,,,,,,,,,,,,,,,,,,,,,
,,,,,,611eb4cfb28943e584e11af0,62bbf9d58c9c0877dc5cb4a6,2022-06-29_09h13.11.367,Colour_Asymmetry_Pilot,2022.1.3,Win32,59.82292414,62bbe60bf3d75ef465d3e404,0,121,121,131,1,twofour,,,,,,,,,,,,,,,,,,,,,,,,,,,,,,,,,,,,,,,,,,,,,,,,,,,,,,,,,,,,,,,,,,,,,,,,,,,,,,,,,,,,,,,,,,,,,,,,,,,,,,,,,,,,,,,,,,,,,,,,,,,,,,,,,,,,,,,,,,,,,,,,,,,,,,,,
,,,,,,611eb4cfb28943e584e11af0,62bbf9d58c9c0877dc5cb4a6,2022-06-29_09h13.11.367,Colour_Asymmetry_Pilot,2022.1.3,Win32,59.82292414,62bbe60bf3d75ef465d3e404,0,122,122,111,1,fourthree,,,,,,,,,,,,,,,,,,,,,,,,,,,,,,,,,,,,,,,,,,,,,,,,,,,,,,,,,,,,,,,,,,,,,,,,,,,,,,,,,,,,,,,,,,,,,,,,,,,,,,,,,,,,,,,,,,,,,,,,,,,,,,,,,,,,,,,,,,,,,,,,,,,,,,,,
,,,,,,611eb4cfb28943e584e11af0,62bbf9d58c9c0877dc5cb4a6,2022-06-29_09h13.11.367,Colour_Asymmetry_Pilot,2022.1.3,Win32,59.82292414,62bbe60bf3d75ef465d3e404,0,123,123,31,1,fourthree,,,,,,,,,,,,,,,,,,,,,,,,,,,,,,,,,,,,,,,,,,,,,,,,,,,,,,,,,,,,,,,,,,,,,,,,,,,,,,,,,,,,,,,,,,,,,,,,,,,,,,,,,,,,,,,,,,,,,,,,,,,,,,,,,,,,,,,,,,,,,,,,,,,,,,,,
,,,,,,611eb4cfb28943e584e11af0,62bbf9d58c9c0877dc5cb4a6,2022-06-29_09h13.11.367,Colour_Asymmetry_Pilot,2022.1.3,Win32,59.82292414,62bbe60bf3d75ef465d3e404,0,124,124,66,1,twoone,,,,,,,,,,,,,,,,,,,,,,,,,,,,,,,,,,,,,,,,,,,,,,,,,,,,,,,,,,,,,,,,,,,,,,,,,,,,,,,,,,,,,,,,,,,,,,,,,,,,,,,,,,,,,,,,,,,,,,,,,,,,,,,,,,,,,,,,,,,,,,,,,,,,,,,,
,,,,,,611eb4cfb28943e584e11af0,62bbf9d58c9c0877dc5cb4a6,2022-06-29_09h13.11.367,Colour_Asymmetry_Pilot,2022.1.3,Win32,59.82292414,62bbe60bf3d75ef465d3e404,0,125,125,52,1,threeone,,,,,,,,,,,,,,,,,,,,,,,,,,,,,,,,,,,,,,,,,,,,,,,,,,,,,,,,,,,,,,,,,,,,,,,,,,,,,,,,,,,,,,,,,,,,,,,,,,,,,,,,,,,,,,,,,,,,,,,,,,,,,,,,,,,,,,,,,,,,,,,,,,,,,,,,
,,,,,,611eb4cfb28943e584e11af0,62bbf9d58c9c0877dc5cb4a6,2022-06-29_09h13.11.367,Colour_Asymmetry_Pilot,2022.1.3,Win32,59.82292414,62bbe60bf3d75ef465d3e404,0,126,126,65,1,onethree,,,,,,,,,,,,,,,,,,,,,,,,,,,,,,,,,,,,,,,,,,,,,,,,,,,,,,,,,,,,,,,,,,,,,,,,,,,,,,,,,,,,,,,,,,,,,,,,,,,,,,,,,,,,,,,,,,,,,,,,,,,,,,,,,,,,,,,,,,,,,,,,,,,,,,,,
,,,,,,611eb4cfb28943e584e11af0,62bbf9d58c9c0877dc5cb4a6,2022-06-29_09h13.11.367,Colour_Asymmetry_Pilot,2022.1.3,Win32,59.82292414,62bbe60bf3d75ef465d3e404,0,127,127,85,1,threefour,,,,,,,,,,,,,,,,,,,,,,,,,,,,,,,,,,,,,,,,,,,,,,,,,,,,,,,,,,,,,,,,,,,,,,,,,,,,,,,,,,,,,,,,,,,,,,,,,,,,,,,,,,,,,,,,,,,,,,,,,,,,,,,,,,,,,,,,,,,,,,,,,,,,,,,,
,,,,,,611eb4cfb28943e584e11af0,62bbf9d58c9c0877dc5cb4a6,2022-06-29_09h13.11.367,Colour_Asymmetry_Pilot,2022.1.3,Win32,59.82292414,62bbe60bf3d75ef465d3e404,0,128,128,154,1,twoone,,,,,,,,,,,,,,,,,,,,,,,,,,,,,,,,,,,,,,,,,,,,,,,,,,,,,,,,,,,,,,,,,,,,,,,,,,,,,,,,,,,,,,,,,,,,,,,,,,,,,,,,,,,,,,,,,,,,,,,,,,,,,,,,,,,,,,,,,,,,,,,,,,,,,,,,
,,,,,,611eb4cfb28943e584e11af0,62bbf9d58c9c0877dc5cb4a6,2022-06-29_09h13.11.367,Colour_Asymmetry_Pilot,2022.1.3,Win32,59.82292414,62bbe60bf3d75ef465d3e404,0,129,129,44,1,threeone,,,,,,,,,,,,,,,,,,,,,,,,,,,,,,,,,,,,,,,,,,,,,,,,,,,,,,,,,,,,,,,,,,,,,,,,,,,,,,,,,,,,,,,,,,,,,,,,,,,,,,,,,,,,,,,,,,,,,,,,,,,,,,,,,,,,,,,,,,,,,,,,,,,,,,,,
,,,,,,611eb4cfb28943e584e11af0,62bbf9d58c9c0877dc5cb4a6,2022-06-29_09h13.11.367,Colour_Asymmetry_Pilot,2022.1.3,Win32,59.82292414,62bbe60bf3d75ef465d3e404,0,130,130,12,1,threeone,,,,,,,,,,,,,,,,,,,,,,,,,,,,,,,,,,,,,,,,,,,,,,,,,,,,,,,,,,,,,,,,,,,,,,,,,,,,,,,,,,,,,,,,,,,,,,,,,,,,,,,,,,,,,,,,,,,,,,,,,,,,,,,,,,,,,,,,,,,,,,,,,,,,,,,,
,,,,,,611eb4cfb28943e584e11af0,62bbf9d58c9c0877dc5cb4a6,2022-06-29_09h13.11.367,Colour_Asymmetry_Pilot,2022.1.3,Win32,59.82292414,62bbe60bf3d75ef465d3e404,0,131,131,59,1,twofour,,,,,,,,,,,,,,,,,,,,,,,,,,,,,,,,,,,,,,,,,,,,,,,,,,,,,,,,,,,,,,,,,,,,,,,,,,,,,,,,,,,,,,,,,,,,,,,,,,,,,,,,,,,,,,,,,,,,,,,,,,,,,,,,,,,,,,,,,,,,,,,,,,,,,,,,
,,,,,,611eb4cfb28943e584e11af0,62bbf9d58c9c0877dc5cb4a6,2022-06-29_09h13.11.367,Colour_Asymmetry_Pilot,2022.1.3,Win32,59.82292414,62bbe60bf3d75ef465d3e404,0,132,132,88,1,onetwo,,,,,,,,,,,,,,,,,,,,,,,,,,,,,,,,,,,,,,,,,,,,,,,,,,,,,,,,,,,,,,,,,,,,,,,,,,,,,,,,,,,,,,,,,,,,,,,,,,,,,,,,,,,,,,,,,,,,,,,,,,,,,,,,,,,,,,,,,,,,,,,,,,,,,,,,
,,,,,,611eb4cfb28943e584e11af0,62bbf9d58c9c0877dc5cb4a6,2022-06-29_09h13.11.367,Colour_Asymmetry_Pilot,2022.1.3,Win32,59.82292414,62bbe60bf3d75ef465d3e404,0,133,133,25,1,onethree,,,,,,,,,,,,,,,,,,,,,,,,,,,,,,,,,,,,,,,,,,,,,,,,,,,,,,,,,,,,,,,,,,,,,,,,,,,,,,,,,,,,,,,,,,,,,,,,,,,,,,,,,,,,,,,,,,,,,,,,,,,,,,,,,,,,,,,,,,,,,,,,,,,,,,,,
,,,,,,611eb4cfb28943e584e11af0,62bbf9d58c9c0877dc5cb4a6,2022-06-29_09h13.11.367,Colour_Asymmetry_Pilot,2022.1.3,Win32,59.82292414,62bbe60bf3d75ef465d3e404,0,134,134,23,1,fourthree,,,,,,,,,,,,,,,,,,,,,,,,,,,,,,,,,,,,,,,,,,,,,,,,,,,,,,,,,,,,,,,,,,,,,,,,,,,,,,,,,,,,,,,,,,,,,,,,,,,,,,,,,,,,,,,,,,,,,,,,,,,,,,,,,,,,,,,,,,,,,,,,,,,,,,,,
,,,,,,611eb4cfb28943e584e11af0,62bbf9d58c9c0877dc5cb4a6,2022-06-29_09h13.11.367,Colour_Asymmetry_Pilot,2022.1.3,Win32,59.82292414,62bbe60bf3d75ef465d3e404,0,135,135,104,1,onetwo,,,,,,,,,,,,,,,,,,,,,,,,,,,,,,,,,,,,,,,,,,,,,,,,,,,,,,,,,,,,,,,,,,,,,,,,,,,,,,,,,,,,,,,,,,,,,,,,,,,,,,,,,,,,,,,,,,,,,,,,,,,,,,,,,,,,,,,,,,,,,,,,,,,,,,,,
,,,,,,611eb4cfb28943e584e11af0,62bbf9d58c9c0877dc5cb4a6,2022-06-29_09h13.11.367,Colour_Asymmetry_Pilot,2022.1.3,Win32,59.82292414,62bbe60bf3d75ef465d3e404,0,136,136,99,1,twofour,,,,,,,,,,,,,,,,,,,,,,,,,,,,,,,,,,,,,,,,,,,,,,,,,,,,,,,,,,,,,,,,,,,,,,,,,,,,,,,,,,,,,,,,,,,,,,,,,,,,,,,,,,,,,,,,,,,,,,,,,,,,,,,,,,,,,,,,,,,,,,,,,,,,,,,,
,,,,,,611eb4cfb28943e584e11af0,62bbf9d58c9c0877dc5cb4a6,2022-06-29_09h13.11.367,Colour_Asymmetry_Pilot,2022.1.3,Win32,59.82292414,62bbe60bf3d75ef465d3e404,0,137,137,82,1,twoone,,,,,,,,,,,,,,,,,,,,,,,,,,,,,,,,,,,,,,,,,,,,,,,,,,,,,,,,,,,,,,,,,,,,,,,,,,,,,,,,,,,,,,,,,,,,,,,,,,,,,,,,,,,,,,,,,,,,,,,,,,,,,,,,,,,,,,,,,,,,,,,,,,,,,,,,
,,,,,,611eb4cfb28943e584e11af0,62bbf9d58c9c0877dc5cb4a6,2022-06-29_09h13.11.367,Colour_Asymmetry_Pilot,2022.1.3,Win32,59.82292414,62bbe60bf3d75ef465d3e404,0,138,138,35,1,twofour,,,,,,,,,,,,,,,,,,,,,,,,,,,,,,,,,,,,,,,,,,,,,,,,,,,,,,,,,,,,,,,,,,,,,,,,,,,,,,,,,,,,,,,,,,,,,,,,,,,,,,,,,,,,,,,,,,,,,,,,,,,,,,,,,,,,,,,,,,,,,,,,,,,,,,,,
,,,,,,611eb4cfb28943e584e11af0,62bbf9d58c9c0877dc5cb4a6,2022-06-29_09h13.11.367,Colour_Asymmetry_Pilot,2022.1.3,Win32,59.82292414,62bbe60bf3d75ef465d3e404,0,139,139,156,1,threeone,,,,,,,,,,,,,,,,,,,,,,,,,,,,,,,,,,,,,,,,,,,,,,,,,,,,,,,,,,,,,,,,,,,,,,,,,,,,,,,,,,,,,,,,,,,,,,,,,,,,,,,,,,,,,,,,,,,,,,,,,,,,,,,,,,,,,,,,,,,,,,,,,,,,,,,,
,,,,,,611eb4cfb28943e584e11af0,62bbf9d58c9c0877dc5cb4a6,2022-06-29_09h13.11.367,Colour_Asymmetry_Pilot,2022.1.3,Win32,59.82292414,62bbe60bf3d75ef465d3e404,0,140,140,110,1,fourtwo,,,,,,,,,,,,,,,,,,,,,,,,,,,,,,,,,,,,,,,,,,,,,,,,,,,,,,,,,,,,,,,,,,,,,,,,,,,,,,,,,,,,,,,,,,,,,,,,,,,,,,,,,,,,,,,,,,,,,,,,,,,,,,,,,,,,,,,,,,,,,,,,,,,,,,,,
,,,,,,611eb4cfb28943e584e11af0,62bbf9d58c9c0877dc5cb4a6,2022-06-29_09h13.11.367,Colour_Asymmetry_Pilot,2022.1.3,Win32,59.82292414,62bbe60bf3d75ef465d3e404,0,141,141,26,1,twoone,,,,,,,,,,,,,,,,,,,,,,,,,,,,,,,,,,,,,,,,,,,,,,,,,,,,,,,,,,,,,,,,,,,,,,,,,,,,,,,,,,,,,,,,,,,,,,,,,,,,,,,,,,,,,,,,,,,,,,,,,,,,,,,,,,,,,,,,,,,,,,,,,,,,,,,,
,,,,,,611eb4cfb28943e584e11af0,62bbf9d58c9c0877dc5cb4a6,2022-06-29_09h13.11.367,Colour_Asymmetry_Pilot,2022.1.3,Win32,59.82292414,62bbe60bf3d75ef465d3e404,0,142,142,132,1,threeone,,,,,,,,,,,,,,,,,,,,,,,,,,,,,,,,,,,,,,,,,,,,,,,,,,,,,,,,,,,,,,,,,,,,,,,,,,,,,,,,,,,,,,,,,,,,,,,,,,,,,,,,,,,,,,,,,,,,,,,,,,,,,,,,,,,,,,,,,,,,,,,,,,,,,,,,
,,,,,,611eb4cfb28943e584e11af0,62bbf9d58c9c0877dc5cb4a6,2022-06-29_09h13.11.367,Colour_Asymmetry_Pilot,2022.1.3,Win32,59.82292414,62bbe60bf3d75ef465d3e404,0,143,143,138,1,twoone,,,,,,,,,,,,,,,,,,,,,,,,,,,,,,,,,,,,,,,,,,,,,,,,,,,,,,,,,,,,,,,,,,,,,,,,,,,,,,,,,,,,,,,,,,,,,,,,,,,,,,,,,,,,,,,,,,,,,,,,,,,,,,,,,,,,,,,,,,,,,,,,,,,,,,,,
,,,,,,611eb4cfb28943e584e11af0,62bbf9d58c9c0877dc5cb4a6,2022-06-29_09h13.11.367,Colour_Asymmetry_Pilot,2022.1.3,Win32,59.82292414,62bbe60bf3d75ef465d3e404,0,144,144,144,1,onetwo,,,,,,,,,,,,,,,,,,,,,,,,,,,,,,,,,,,,,,,,,,,,,,,,,,,,,,,,,,,,,,,,,,,,,,,,,,,,,,,,,,,,,,,,,,,,,,,,,,,,,,,,,,,,,,,,,,,,,,,,,,,,,,,,,,,,,,,,,,,,,,,,,,,,,,,,
,,,,,,611eb4cfb28943e584e11af0,62bbf9d58c9c0877dc5cb4a6,2022-06-29_09h13.11.367,Colour_Asymmetry_Pilot,2022.1.3,Win32,59.82292414,62bbe60bf3d75ef465d3e404,0,145,145,115,1,twofour,,,,,,,,,,,,,,,,,,,,,,,,,,,,,,,,,,,,,,,,,,,,,,,,,,,,,,,,,,,,,,,,,,,,,,,,,,,,,,,,,,,,,,,,,,,,,,,,,,,,,,,,,,,,,,,,,,,,,,,,,,,,,,,,,,,,,,,,,,,,,,,,,,,,,,,,
,,,,,,611eb4cfb28943e584e11af0,62bbf9d58c9c0877dc5cb4a6,2022-06-29_09h13.11.367,Colour_Asymmetry_Pilot,2022.1.3,Win32,59.82292414,62bbe60bf3d75ef465d3e404,0,146,146,125,1,threefour,,,,,,,,,,,,,,,,,,,,,,,,,,,,,,,,,,,,,,,,,,,,,,,,,,,,,,,,,,,,,,,,,,,,,,,,,,,,,,,,,,,,,,,,,,,,,,,,,,,,,,,,,,,,,,,,,,,,,,,,,,,,,,,,,,,,,,,,,,,,,,,,,,,,,,,,
,,,,,,611eb4cfb28943e584e11af0,62bbf9d58c9c0877dc5cb4a6,2022-06-29_09h13.11.367,Colour_Asymmetry_Pilot,2022.1.3,Win32,59.82292414,62bbe60bf3d75ef465d3e404,0,147,147,5,1,threefour,,,,,,,,,,,,,,,,,,,,,,,,,,,,,,,,,,,,,,,,,,,,,,,,,,,,,,,,,,,,,,,,,,,,,,,,,,,,,,,,,,,,,,,,,,,,,,,,,,,,,,,,,,,,,,,,,,,,,,,,,,,,,,,,,,,,,,,,,,,,,,,,,,,,,,,,
,,,,,,611eb4cfb28943e584e11af0,62bbf9d58c9c0877dc5cb4a6,2022-06-29_09h13.11.367,Colour_Asymmetry_Pilot,2022.1.3,Win32,59.82292414,62bbe60bf3d75ef465d3e404,0,148,148,22,1,fourtwo,,,,,,,,,,,,,,,,,,,,,,,,,,,,,,,,,,,,,,,,,,,,,,,,,,,,,,,,,,,,,,,,,,,,,,,,,,,,,,,,,,,,,,,,,,,,,,,,,,,,,,,,,,,,,,,,,,,,,,,,,,,,,,,,,,,,,,,,,,,,,,,,,,,,,,,,
,,,,,,611eb4cfb28943e584e11af0,62bbf9d58c9c0877dc5cb4a6,2022-06-29_09h13.11.367,Colour_Asymmetry_Pilot,2022.1.3,Win32,59.82292414,62bbe60bf3d75ef465d3e404,0,149,149,123,1,twofour,,,,,,,,,,,,,,,,,,,,,,,,,,,,,,,,,,,,,,,,,,,,,,,,,,,,,,,,,,,,,,,,,,,,,,,,,,,,,,,,,,,,,,,,,,,,,,,,,,,,,,,,,,,,,,,,,,,,,,,,,,,,,,,,,,,,,,,,,,,,,,,,,,,,,,,,
,,,,,,611eb4cfb28943e584e11af0,62bbf9d58c9c0877dc5cb4a6,2022-06-29_09h13.11.367,Colour_Asymmetry_Pilot,2022.1.3,Win32,59.82292414,62bbe60bf3d75ef465d3e404,0,150,150,90,1,twoone,,,,,,,,,,,,,,,,,,,,,,,,,,,,,,,,,,,,,,,,,,,,,,,,,,,,,,,,,,,,,,,,,,,,,,,,,,,,,,,,,,,,,,,,,,,,,,,,,,,,,,,,,,,,,,,,,,,,,,,,,,,,,,,,,,,,,,,,,,,,,,,,,,,,,,,,
,,,,,,611eb4cfb28943e584e11af0,62bbf9d58c9c0877dc5cb4a6,2022-06-29_09h13.11.367,Colour_Asymmetry_Pilot,2022.1.3,Win32,59.82292414,62bbe60bf3d75ef465d3e404,0,151,151,95,1,fourthree,,,,,,,,,,,,,,,,,,,,,,,,,,,,,,,,,,,,,,,,,,,,,,,,,,,,,,,,,,,,,,,,,,,,,,,,,,,,,,,,,,,,,,,,,,,,,,,,,,,,,,,,,,,,,,,,,,,,,,,,,,,,,,,,,,,,,,,,,,,,,,,,,,,,,,,,
,,,,,,611eb4cfb28943e584e11af0,62bbf9d58c9c0877dc5cb4a6,2022-06-29_09h13.11.367,Colour_Asymmetry_Pilot,2022.1.3,Win32,59.82292414,62bbe60bf3d75ef465d3e404,0,152,152,117,1,threefour,,,,,,,,,,,,,,,,,,,,,,,,,,,,,,,,,,,,,,,,,,,,,,,,,,,,,,,,,,,,,,,,,,,,,,,,,,,,,,,,,,,,,,,,,,,,,,,,,,,,,,,,,,,,,,,,,,,,,,,,,,,,,,,,,,,,,,,,,,,,,,,,,,,,,,,,
,,,,,,611eb4cfb28943e584e11af0,62bbf9d58c9c0877dc5cb4a6,2022-06-29_09h13.11.367,Colour_Asymmetry_Pilot,2022.1.3,Win32,59.82292414,62bbe60bf3d75ef465d3e404,0,153,153,29,1,threefour,,,,,,,,,,,,,,,,,,,,,,,,,,,,,,,,,,,,,,,,,,,,,,,,,,,,,,,,,,,,,,,,,,,,,,,,,,,,,,,,,,,,,,,,,,,,,,,,,,,,,,,,,,,,,,,,,,,,,,,,,,,,,,,,,,,,,,,,,,,,,,,,,,,,,,,,
,,,,,,611eb4cfb28943e584e11af0,62bbf9d58c9c0877dc5cb4a6,2022-06-29_09h13.11.367,Colour_Asymmetry_Pilot,2022.1.3,Win32,59.82292414,62bbe60bf3d75ef465d3e404,0,154,154,69,1,threefour,,,,,,,,,,,,,,,,,,,,,,,,,,,,,,,,,,,,,,,,,,,,,,,,,,,,,,,,,,,,,,,,,,,,,,,,,,,,,,,,,,,,,,,,,,,,,,,,,,,,,,,,,,,,,,,,,,,,,,,,,,,,,,,,,,,,,,,,,,,,,,,,,,,,,,,,
,,,,,,611eb4cfb28943e584e11af0,62bbf9d58c9c0877dc5cb4a6,2022-06-29_09h13.11.367,Colour_Asymmetry_Pilot,2022.1.3,Win32,59.82292414,62bbe60bf3d75ef465d3e404,0,155,155,51,1,twofour,,,,,,,,,,,,,,,,,,,,,,,,,,,,,,,,,,,,,,,,,,,,,,,,,,,,,,,,,,,,,,,,,,,,,,,,,,,,,,,,,,,,,,,,,,,,,,,,,,,,,,,,,,,,,,,,,,,,,,,,,,,,,,,,,,,,,,,,,,,,,,,,,,,,,,,,
,,,,,,611eb4cfb28943e584e11af0,62bbf9d58c9c0877dc5cb4a6,2022-06-29_09h13.11.367,Colour_Asymmetry_Pilot,2022.1.3,Win32,59.82292414,62bbe60bf3d75ef465d3e404,0,156,156,7,1,fourthree,,,,,,,,,,,,,,,,,,,,,,,,,,,,,,,,,,,,,,,,,,,,,,,,,,,,,,,,,,,,,,,,,,,,,,,,,,,,,,,,,,,,,,,,,,,,,,,,,,,,,,,,,,,,,,,,,,,,,,,,,,,,,,,,,,,,,,,,,,,,,,,,,,,,,,,,
,,,,,,611eb4cfb28943e584e11af0,62bbf9d58c9c0877dc5cb4a6,2022-06-29_09h13.11.367,Colour_Asymmetry_Pilot,2022.1.3,Win32,59.82292414,62bbe60bf3d75ef465d3e404,0,157,157,38,1,fourtwo,,,,,,,,,,,,,,,,,,,,,,,,,,,,,,,,,,,,,,,,,,,,,,,,,,,,,,,,,,,,,,,,,,,,,,,,,,,,,,,,,,,,,,,,,,,,,,,,,,,,,,,,,,,,,,,,,,,,,,,,,,,,,,,,,,,,,,,,,,,,,,,,,,,,,,,,
,,,,,,611eb4cfb28943e584e11af0,62bbf9d58c9c0877dc5cb4a6,2022-06-29_09h13.11.367,Colour_Asymmetry_Pilot,2022.1.3,Win32,59.82292414,62bbe60bf3d75ef465d3e404,0,158,158,77,1,threefour,,,,,,,,,,,,,,,,,,,,,,,,,,,,,,,,,,,,,,,,,,,,,,,,,,,,,,,,,,,,,,,,,,,,,,,,,,,,,,,,,,,,,,,,,,,,,,,,,,,,,,,,,,,,,,,,,,,,,,,,,,,,,,,,,,,,,,,,,,,,,,,,,,,,,,,,
,,,,,,611eb4cfb28943e584e11af0,62bbf9d58c9c0877dc5cb4a6,2022-06-29_09h13.11.367,Colour_Asymmetry_Pilot,2022.1.3,Win32,59.82292414,62bbe60bf3d75ef465d3e404,0,159,159,151,1,fourthree,,,,,,,,,,,,,,,,,,,,,,,,,,,,,,,,,,,,,,,,,,,,,,,,,,,,,,,,,,,,,,,,,,,,,,,,,,,,,,,,,,,,,,,,,,,,,,,,,,,,,,,,,,,,,,,,,,,,,,,,,,,,,,,,,,,,,,,,,,,,,,,,,,,,,,,,
,,,,,,611eb4cfb28943e584e11af0,62bbf9d58c9c0877dc5cb4a6,2022-06-29_09h13.11.367,Colour_Asymmetry_Pilot,2022.1.3,Win32,59.82292414,62bbe60bf3d75ef465d3e404,0,160,160,15,1,fourthree,,,,,,,,,,,,,,,,,,,,,,,,,,,,,,,,,,,,,,,,,,,,,,,,,,,,,,,,,,,,,,,,,,,,,,,,,,,,,,,,,,,,,,,,,,,,,,,,,,,,,,,,,,,,,,,,,,,,,,,,,,,,,,,,,,,,,,,,,,,,,,,,,,,,,,,,
,,,,,,611eb4cfb28943e584e11af0,62bbf9d58c9c0877dc5cb4a6,2022-06-29_09h13.11.367,Colour_Asymmetry_Pilot,2022.1.3,Win32,59.82292414,62bbe60bf3d75ef465d3e404,0,161,161,120,1,onetwo,,,,,,,,,,,,,,,,,,,,,,,,,,,,,,,,,,,,,,,,,,,,,,,,,,,,,,,,,,,,,,,,,,,,,,,,,,,,,,,,,,,,,,,,,,,,,,,,,,,,,,,,,,,,,,,,,,,,,,,,,,,,,,,,,,,,,,,,,,,,,,,,,,,,,,,,
,,,,,,611eb4cfb28943e584e11af0,62bbf9d58c9c0877dc5cb4a6,2022-06-29_09h13.11.367,Colour_Asymmetry_Pilot,2022.1.3,Win32,59.82292414,62bbe60bf3d75ef465d3e404,,,,,,,space,3.0968,space,24.5385,space,32.5498,space,20.7055,space,7.5912,space,5.0228,"[-0.01980000000000004,-0.5138,-0.38039999999999996]",twofour,"[-0.01980000000000004,-0.5138,-0.38039999999999996]",4,6.6226,54.66668701,90,1,0,0,response1disk_5,-6.666625977,2,1,0,0,rectangle_8,-6.666625977,2,1,0,0,3,-6.666625977,2,1,0,0,0,0,0,0,1,,,,,,,,,,,,,,,,,,,,,,,,,,,,,,,,,,,,,,,,,,,,,,,,,,,,,,,,,,,,,,,,,,,,,,,,,,,,,,,,,,,,,,,,,,,,,,,,,,,,,,,,,,,
,,,,,,611eb4cfb28943e584e11af0,62bbf9d58c9c0877dc5cb4a6,2022-06-29_09h13.11.367,Colour_Asymmetry_Pilot,2022.1.3,Win32,59.82292414,62bbe60bf3d75ef465d3e404,,,,,,,,,,,,,,,,,,,"[0.12939999999999996,-0.2864,0.3253999999999999]",fourthree,"[0.9763999999999999,-0.1137999999999999,-0.6314]",-4,3.6142,-30,82,1,0,0,response7disk_5,0.666687012,2,1,0,0,rectangle_8,0.666687012,2,1,0,0,3,0.666687012,2,1,0,0,1,0,1,0,1,,,,,,,,,,,,,,,,,,,,,,,,,,,,,,,,,,,,,,,,,,,,,,,,,,,,,,,,,,,,,,,,,,,,,,,,,,,,,,,,,,,,,,,,,,,,,,,,,,,,,,,,,,,
,,,,,,611eb4cfb28943e584e11af0,62bbf9d58c9c0877dc5cb4a6,2022-06-29_09h13.11.367,Colour_Asymmetry_Pilot,2022.1.3,Win32,59.82292414,62bbe60bf3d75ef465d3e404,,,,,,,,,,,,,,,,,,,"[-0.6942,-0.7648,-0.12959999999999994]",onetwo,"[-0.8198,-0.5138,-0.7492000000000001]",1,4.0229,32.66668701,-54.66668701,1,0,0,response3disk_5,-5.333312988,-4.666687012,1,0,0,rectangle_8,-5.333312988,-4.666687012,1,0,0,3,-5.333312988,-4.666687012,1,0,0,2,0,2,0,1,,,,,,,,,,,,,,,,,,,,,,,,,,,,,,,,,,,,,,,,,,,,,,,,,,,,,,,,,,,,,,,,,,,,,,,,,,,,,,,,,,,,,,,,,,,,,,,,,,,,,,,,,,,
,,,,,,611eb4cfb28943e584e11af0,62bbf9d58c9c0877dc5cb4a6,2022-06-29_09h13.11.367,Colour_Asymmetry_Pilot,2022.1.3,Win32,59.82292414,62bbe60bf3d75ef465d3e404,,,,,,,,,,,,,,,,,,,"[-0.09019999999999995,0.44300000000000006,0.5371999999999999]",threefour,"[-0.34920000000000007,-0.702,-0.5216]",-4,1.3494,-35.33331299,92,1,0,0,response7disk_5,-1.333312988,-2.666687012,1,0,0,rectangle_8,-1.333312988,-2.666687012,1,0,0,3,-1.333312988,-2.666687012,1,0,0,3,0,3,0,1,,,,,,,,,,,,,,,,,,,,,,,,,,,,,,,,,,,,,,,,,,,,,,,,,,,,,,,,,,,,,,,,,,,,,,,,,,,,,,,,,,,,,,,,,,,,,,,,,,,,,,,,,,,
,,,,,,611eb4cfb28943e584e11af0,62bbf9d58c9c0877dc5cb4a6,2022-06-29_09h13.11.367,Colour_Asymmetry_Pilot,2022.1.3,Win32,59.82292414,62bbe60bf3d75ef465d3e404,,,,,,,,,,,,,,,,,,,"[0.18419999999999992,-0.4276,-0.404]",fourtwo,"[-0.9766,-0.6472,0.07440000000000002]",-4,1.3663,-29.33331299,51.33331299,1,0,0,response7disk_5,1.333374023,-0.666687012,1,0,0,rectangle_8,95.33337402,32.66665649,1,0,0,3,-16.66662598,-0.666687012,1,0,0,4,0,4,0,1,response1disk_7,6,rectangle_4,,,,,,,,,,,,,,,,,,,,,,,,,,,,,,,,,,,,,,,,,,,,,,,,,,,,,,,,,,,,,,,,,,,,,,,,,,,,,,,,,,,,,,,,,,,,,,,,,,,,,,,,
,,,,,,611eb4cfb28943e584e11af0,62bbf9d58c9c0877dc5cb4a6,2022-06-29_09h13.11.367,Colour_Asymmetry_Pilot,2022.1.3,Win32,59.82292414,62bbe60bf3d75ef465d3e404,,,,,,,,,,,,,,,,,,,"[-0.26280000000000003,-0.2158,-0.3256]",fourthree,"[-0.9766,-0.34920000000000007,0.2156]",-2,3.0983,-100.666626,-16,1,0,0,response5disk_5,-4.666625977,-3.333343506,1,0,0,rectangle_8,71.33337402,23.33331299,1,0,0,3,-18.66662598,-2,1,0,0,5,0,5,0,1,response1disk_7,6,rectangle_4,,,,,,,,,,,,,,,,,,,,,,,,,,,,,,,,,,,,,,,,,,,,,,,,,,,,,,,,,,,,,,,,,,,,,,,,,,,,,,,,,,,,,,,,,,,,,,,,,,,,,,,,
,,,,,,611eb4cfb28943e584e11af0,62bbf9d58c9c0877dc5cb4a6,2022-06-29_09h13.11.367,Colour_Asymmetry_Pilot,2022.1.3,Win32,59.82292414,62bbe60bf3d75ef465d3e404,,,,,,,,,,,,,,,,,,,"[-0.26280000000000003,-0.4746,-0.2158]",fourthree,"[-0.6942,-0.7648,-0.12959999999999994]",2,2.9392,59.33337402,-35.33334351,1,0,0,response3disk_5,2.666687012,3.333312988,1,0,0,rectangle_8,2.666687012,3.333312988,1,0,0,3,2.666687012,3.333312988,1,0,0,6,0,6,0,1,,,,,,,,,,,,,,,,,,,,,,,,,,,,,,,,,,,,,,,,,,,,,,,,,,,,,,,,,,,,,,,,,,,,,,,,,,,,,,,,,,,,,,,,,,,,,,,,,,,,,,,,,,,
,,,,,,611eb4cfb28943e584e11af0,62bbf9d58c9c0877dc5cb4a6,2022-06-29_09h13.11.367,Colour_Asymmetry_Pilot,2022.1.3,Win32,59.82292414,62bbe60bf3d75ef465d3e404,,,,,,,,,,,,,,,,,,,,fourthree,,-4,2.0828,,,,,,,,,,,,,,,,,,,,,,,,,,,,,,,,space,5.7744,"[-0.06680000000000008,-0.45100000000000007,-0.906]","[0.9372,0.20779999999999998,0.2704]",-31.33331299,85.33331299,1,0,0,response7disk,1.333374023,-1.333343506,1,0,0,rectangle,1.333374023,-1.333343506,1,0,0,,1,0.0037,0,1.333374023,-1.333343506,1,0,0,0,0,0,18,1,18,first,,,,,,,,,,,,,,,,,,,,,,,,,,,,,,,,,,,,,,,,,,,,,,,,,,,,,,,,,,,,,,,,,,,
,,,,,,611eb4cfb28943e584e11af0,62bbf9d58c9c0877dc5cb4a6,2022-06-29_09h13.11.367,Colour_Asymmetry_Pilot,2022.1.3,Win32,59.82292414,62bbe60bf3d75ef465d3e404,,,,,,,,,,,,,,,,,,,,twoone,,3,43.3932,,,,,,,,,,,,,,,,,,,,,,,,,,,,,,,,,,"[0.3881999999999999,-0.23939999999999995,-0.05040000000000011]","[0.8274000000000001,-0.5844,-0.9452]",60.66668701,36.66665649,1,0,0,response1disk,-5.333312988,-0.666687012,1,0,0,rectangle,-5.333312988,-0.666687012,1,0,0,,3,0.0023,0,-5.333312988,-0.666687012,1,0,0,0,1,1,100,1,19,second,,,,,,,,,,,,,,,,,,,,,,,,,,,,,,,,,,,,,,,,,,,,,,,,,,,,,,,,,,,,,,,,,,,
,,,,,,611eb4cfb28943e584e11af0,62bbf9d58c9c0877dc5cb4a6,2022-06-29_09h13.11.367,Colour_Asymmetry_Pilot,2022.1.3,Win32,59.82292414,62bbe60bf3d75ef465d3e404,,,,,,,,,,,,,,,,,,,,threefour,,-4,0.7165,,,,,,,,,,,,,,,,,,,,,,,,,,,,,,,,,,"[0.796,0.2156,-0.27859999999999996]","[-0.09019999999999995,0.44300000000000006,0.5371999999999999]",-46.66662598,100.6666565,1,0,0,response7disk,-0.666625977,-0.666687012,1,0,0,rectangle,-0.666625977,-0.666687012,1,0,0,,2,0.0023,0,-0.666625977,-0.666687012,1,0,0,0,2,2,33,1,33,first,,,,,,,,,,,,,,,,,,,,,,,,,,,,,,,,,,,,,,,,,,,,,,,,,,,,,,,,,,,,,,,,,,,
,,,,,,611eb4cfb28943e584e11af0,62bbf9d58c9c0877dc5cb4a6,2022-06-29_09h13.11.367,Colour_Asymmetry_Pilot,2022.1.3,Win32,59.82292414,62bbe60bf3d75ef465d3e404,,,,,,,,,,,,,,,,,,,,threeone,,1,1.5755,,,,,,,,,,,,,,,,,,,,,,,,,,,,,,,,,,"[0.8274000000000001,-0.5844,-0.9452]","[1,0.12939999999999996,-1]",46,-78.66668701,1,0,0,response3disk,10,2.666656494,1,0,0,rectangle,10,2.666656494,1,0,0,,2,0.0007,0,10,2.666656494,1,0,0,0,3,3,82,1,1,second,,,,,,,,,,,,,,,,,,,,,,,,,,,,,,,,,,,,,,,,,,,,,,,,,,,,,,,,,,,,,,,,,,,
,,,,,,611eb4cfb28943e584e11af0,62bbf9d58c9c0877dc5cb4a6,2022-06-29_09h13.11.367,Colour_Asymmetry_Pilot,2022.1.3,Win32,59.82292414,62bbe60bf3d75ef465d3e404,,,,,,,,,,,,,,,,,,,,twoone,,-4,1.1141,,,,,,,,,,,,,,,,,,,,,,,,,,,,,,,,,,"[0.30180000000000007,-0.7884,-0.9844]","[-0.9216,-0.5529999999999999,-0.3962]",-32,80,1,0,0,response7disk,10,-2,1,0,0,rectangle,10,-2,1,0,0,,3,0.0022,0,10,-2,1,0,0,0,4,4,47,1,47,first,,,,,,,,,,,,,,,,,,,,,,,,,,,,,,,,,,,,,,,,,,,,,,,,,,,,,,,,,,,,,,,,,,,
,,,,,,611eb4cfb28943e584e11af0,62bbf9d58c9c0877dc5cb4a6,2022-06-29_09h13.11.367,Colour_Asymmetry_Pilot,2022.1.3,Win32,59.82292414,62bbe60bf3d75ef465d3e404,,,,,,,,,,,,,,,,,,,,onetwo,,-1,2.6322,,,,,,,,,,,,,,,,,,,,,,,,,,,,,,,,,,"[0.05879999999999996,0.2784,0.5841999999999998]","[-0.26280000000000003,-0.2158,-0.3256]",-30,-74.66668701,1,0,0,response5disk,4,4,1,0,0,rectangle,4,4,1,0,0,,3,0.001,0,4,4,1,0,0,0,5,5,14,1,14,first,,,,,,,,,,,,,,,,,,,,,,,,,,,,,,,,,,,,,,,,,,,,,,,,,,,,,,,,,,,,,,,,,,,
,,,,,,611eb4cfb28943e584e11af0,62bbf9d58c9c0877dc5cb4a6,2022-06-29_09h13.11.367,Colour_Asymmetry_Pilot,2022.1.3,Win32,59.82292414,62bbe60bf3d75ef465d3e404,,,,,,,,,,,,,,,,,,,,twofour,,-4,1.4257,,,,,,,,,,,,,,,,,,,,,,,,,,,,,,,,,,"[-0.09019999999999995,0.44300000000000006,0.5371999999999999]","[-0.9844,-0.9688,-0.9922]",-56.66662598,85.33331299,1,0,0,response7disk,-1.333312988,0,1,0,0,rectangle,-1.333312988,0,1,0,0,,2,0.0019,0,-1.333312988,0,1,0,0,0,6,6,59,1,59,first,,,,,,,,,,,,,,,,,,,,,,,,,,,,,,,,,,,,,,,,,,,,,,,,,,,,,,,,,,,,,,,,,,,
,,,,,,611eb4cfb28943e584e11af0,62bbf9d58c9c0877dc5cb4a6,2022-06-29_09h13.11.367,Colour_Asymmetry_Pilot,2022.1.3,Win32,59.82292414,62bbe60bf3d75ef465d3e404,,,,,,,,,,,,,,,,,,,,onethree,,-4,0.792,,,,,,,,,,,,,,,,,,,,,,,,,,,,,,,,,,"[0.6547999999999998,-0.043199999999999905,-0.011800000000000033]","[-0.8118,-0.8198,-0.5452]",-44,78,1,0,0,response7disk,-2.666625977,7.333312988,1,0,0,rectangle,-2.666625977,7.333312988,1,0,0,,3,0.0024,0,-2.666625977,7.333312988,1,0,0,0,7,7,68,1,68,first,,,,,,,,,,,,,,,,,,,,,,,,,,,,,,,,,,,,,,,,,,,,,,,,,,,,,,,,,,,,,,,,,,,
,,,,,,611eb4cfb28943e584e11af0,62bbf9d58c9c0877dc5cb4a6,2022-06-29_09h13.11.367,Colour_Asymmetry_Pilot,2022.1.3,Win32,59.82292414,62bbe60bf3d75ef465d3e404,,,,,,,,,,,,,,,,,,,,fourtwo,,-4,1.0663,,,,,,,,,,,,,,,,,,,,,,,,,,,,,,,,,,"[0.7646000000000002,0.07440000000000002,0.2704]","[-0.7412000000000001,-0.08239999999999992,-0.6864]",-40,84.66665649,1,0,0,response7disk,-6.666625977,9.333312988,1,0,0,rectangle,-6.666625977,9.333312988,1,0,0,,3,0.0008,0,-6.666625977,9.333312988,1,0,0,0,8,8,32,1,32,first,,,,,,,,,,,,,,,,,,,,,,,,,,,,,,,,,,,,,,,,,,,,,,,,,,,,,,,,,,,,,,,,,,,
,,,,,,611eb4cfb28943e584e11af0,62bbf9d58c9c0877dc5cb4a6,2022-06-29_09h13.11.367,Colour_Asymmetry_Pilot,2022.1.3,Win32,59.82292414,62bbe60bf3d75ef465d3e404,,,,,,,,,,,,,,,,,,,,fourthree,,-3,2.6908,,,,,,,,,,,,,,,,,,,,,,,,,,,,,,,,,,"[-0.6,0.16860000000000008,0.44300000000000006]","[0.7802,-0.23140000000000005,-0.20799999999999996]",-70.66662598,37.33331299,1,0,0,response7disk,12,-3.333343506,1,0,0,rectangle,12,-3.333343506,1,0,0,,3,0.0006,0,12,-3.333343506,1,0,0,0,9,9,37,1,37,first,,,,,,,,,,,,,,,,,,,,,,,,,,,,,,,,,,,,,,,,,,,,,,,,,,,,,,,,,,,,,,,,,,,
,,,,,,611eb4cfb28943e584e11af0,62bbf9d58c9c0877dc5cb4a6,2022-06-29_09h13.11.367,Colour_Asymmetry_Pilot,2022.1.3,Win32,59.82292414,62bbe60bf3d75ef465d3e404,,,,,,,,,,,,,,,,,,,,fourtwo,,-4,0.8664,,,,,,,,,,,,,,,,,,,,,,,,,,,,,,,,,,"[-0.17659999999999998,0.3253999999999999,0.19999999999999996]","[1,0.12939999999999996,-1]",-50,83.33331299,1,0,0,response7disk,2.666687012,2,1,0,0,rectangle,2.666687012,2,1,0,0,,2,0.0023,0,2.666687012,2,1,0,0,0,10,10,53,1,53,first,,,,,,,,,,,,,,,,,,,,,,,,,,,,,,,,,,,,,,,,,,,,,,,,,,,,,,,,,,,,,,,,,,,
,,,,,,611eb4cfb28943e584e11af0,62bbf9d58c9c0877dc5cb4a6,2022-06-29_09h13.11.367,Colour_Asymmetry_Pilot,2022.1.3,Win32,59.82292414,62bbe60bf3d75ef465d3e404,,,,,,,,,,,,,,,,,,,,onethree,,-4,0.883,,,,,,,,,,,,,,,,,,,,,,,,,,,,,,,,,,"[0.3802000000000001,0.19199999999999995,-0.6394]","[-0.38039999999999996,-0.4276,-0.1452]",-35.33331299,64.66665649,1,0,0,response7disk,-2.666625977,3.333312988,1,0,0,rectangle,-2.666625977,3.333312988,1,0,0,,3,0.0025,0,-2.666625977,3.333312988,1,0,0,0,11,11,24,1,24,first,,,,,,,,,,,,,,,,,,,,,,,,,,,,,,,,,,,,,,,,,,,,,,,,,,,,,,,,,,,,,,,,,,,
,,,,,,611eb4cfb28943e584e11af0,62bbf9d58c9c0877dc5cb4a6,2022-06-29_09h13.11.367,Colour_Asymmetry_Pilot,2022.1.3,Win32,59.82292414,62bbe60bf3d75ef465d3e404,,,,,,,,,,,,,,,,,,,,threeone,,1,1.4333,,,,,,,,,,,,,,,,,,,,,,,,,,,,,,,,,,"[0.37240000000000006,-0.050999999999999934,-0.5216]","[0.04299999999999993,0.16060000000000008,-0.6628000000000001]",46,-76,1,0,0,response3disk,-1.333312988,0.666656494,1,0,0,rectangle,42.66668701,-75.33334351,1,0,0,1,1,2.2467,1,0,0.666656494,1,0,0,0,12,12,161,1,80,second,response3disk_3,rectangle,,,,,,,,,,,,,,,,,,,,,,,,,,,,,,,,,,,,,,,,,,,,,,,,,,,,,,,,,,,,,,,,,
,,,,,,611eb4cfb28943e584e11af0,62bbf9d58c9c0877dc5cb4a6,2022-06-29_09h13.11.367,Colour_Asymmetry_Pilot,2022.1.3,Win32,59.82292414,62bbe60bf3d75ef465d3e404,,,,,,,,,,,,,,,,,,,,onethree,,2,2.4158,,,,,,,,,,,,,,,,,,,,,,,,,,,,,,,,,,"[-0.0040000000000000036,0.02739999999999987,-0.08239999999999992]","[0.9686000000000001,0.5763999999999998,0.11359999999999992]",64,-46.66668701,1,0,0,response3disk,-0.666625977,5.333312988,1,0,0,rectangle,-0.666625977,5.333312988,1,0,0,1,3,0.0032,0,-0.666625977,5.333312988,1,0,0,0,13,13,137,1,56,second,,,,,,,,,,,,,,,,,,,,,,,,,,,,,,,,,,,,,,,,,,,,,,,,,,,,,,,,,,,,,,,,,,,
,,,,,,611eb4cfb28943e584e11af0,62bbf9d58c9c0877dc5cb4a6,2022-06-29_09h13.11.367,Colour_Asymmetry_Pilot,2022.1.3,Win32,59.82292414,62bbe60bf3d75ef465d3e404,,,,,,,,,,,,,,,,,,,,fourthree,,-3,3.7818,,,,,,,,,,,,,,,,,,,,,,,,,,,,,,,,,,"[-0.0040000000000000036,0.02739999999999987,-0.08239999999999992]","[0.9372,0.20779999999999998,0.2704]",-69.33331299,28.66665649,1,0,0,response7disk,-2.666625977,0.666656494,1,0,0,rectangle,-2.666625977,0.666656494,1,0,0,1,3,0.0005,0,-2.666625977,0.666656494,1,0,0,0,14,14,62,1,62,first,,,,,,,,,,,,,,,,,,,,,,,,,,,,,,,,,,,,,,,,,,,,,,,,,,,,,,,,,,,,,,,,,,,
,,,,,,611eb4cfb28943e584e11af0,62bbf9d58c9c0877dc5cb4a6,2022-06-29_09h13.11.367,Colour_Asymmetry_Pilot,2022.1.3,Win32,59.82292414,62bbe60bf3d75ef465d3e404,,,,,,,,,,,,,,,,,,,,threefour,,-2,3.4564,,,,,,,,,,,,,,,,,,,,,,,,,,,,,,,,,,"[0.7646000000000002,0.07440000000000002,0.2704]","[0.9763999999999999,0.8588,-0.05900000000000005]",-109.333313,-48,1,0,0,response5disk,5.333374023,-2.666687012,1,0,0,rectangle,5.333374023,-2.666687012,1,0,0,1,3,0.0004,0,5.333374023,-2.666687012,1,0,0,0,15,15,81,1,0,second,,,,,,,,,,,,,,,,,,,,,,,,,,,,,,,,,,,,,,,,,,,,,,,,,,,,,,,,,,,,,,,,,,,
,,,,,,611eb4cfb28943e584e11af0,62bbf9d58c9c0877dc5cb4a6,2022-06-29_09h13.11.367,Colour_Asymmetry_Pilot,2022.1.3,Win32,59.82292414,62bbe60bf3d75ef465d3e404,,,,,,,,,,,,,,,,,,,,onetwo,,-4,1.0332,,,,,,,,,,,,,,,,,,,,,,,,,,,,,,,,,,"[0.9372,0.9450000000000001,0.8980000000000001]","[-0.6235999999999999,-0.6786,-0.08239999999999992]",-23.33331299,66.66665649,1,0,0,response7disk,4,-4,1,0,0,rectangle,4,-4,1,0,0,1,2,0.0028,0,4,-4,1,0,0,0,16,16,8,1,8,first,,,,,,,,,,,,,,,,,,,,,,,,,,,,,,,,,,,,,,,,,,,,,,,,,,,,,,,,,,,,,,,,,,,
,,,,,,611eb4cfb28943e584e11af0,62bbf9d58c9c0877dc5cb4a6,2022-06-29_09h13.11.367,Colour_Asymmetry_Pilot,2022.1.3,Win32,59.82292414,62bbe60bf3d75ef465d3e404,,,,,,,,,,,,,,,,,,,,twofour,,2,1.1241,,,,,,,,,,,,,,,,,,,,,,,,,,,,,,,,,,"[0.04299999999999993,0.16060000000000008,-0.6628000000000001]","[-0.17659999999999998,0.3253999999999999,0.19999999999999996]",66.66668701,-38.66668701,1,0,0,response3disk,7.333374023,2,1,0,0,rectangle,7.333374023,2,1,0,0,1,1,0.0021,0,7.333374023,2,1,0,0,0,17,17,139,1,58,second,,,,,,,,,,,,,,,,,,,,,,,,,,,,,,,,,,,,,,,,,,,,,,,,,,,,,,,,,,,,,,,,,,,
