trials.thisRepN,trials.thisTrialN,trials.thisN,trials.thisIndex,trials.ran,Colourcodes,participant,session,date,expName,psychopyVersion,OS,frameRate,study_id,trials_4.thisRepN,trials_4.thisTrialN,trials_4.thisN,trials_4.thisIndex,trials_4.ran,StimulusPos,key_resp.keys,key_resp.rt,key_resp_2.keys,key_resp_2.rt,key_resp_15.keys,key_resp_15.rt,key_resp_17.keys,key_resp_17.rt,key_resp_9.keys,key_resp_9.rt,key_resp_10.keys,key_resp_10.rt,Circle1_col,Ecc,Circle2_col,similarity,response_time,mouse_5.x,mouse_5.y,mouse_5.leftButton,mouse_5.midButton,mouse_5.rightButton,mouse_5.clicked_name,mouse_10.x,mouse_10.y,mouse_10.leftButton,mouse_10.midButton,mouse_10.rightButton,mouse_10.clicked_name,mouse_7.x,mouse_7.y,mouse_7.leftButton,mouse_7.midButton,mouse_7.rightButton,catchnumberprac,mouse_6.x,mouse_6.y,mouse_6.leftButton,mouse_6.midButton,mouse_6.rightButton,duringprac.thisRepN,duringprac.thisTrialN,duringprac.thisN,duringprac.thisIndex,duringprac.ran,mouse_7.clicked_name,catchprac,mouse_6.clicked_name,key_resp_22.keys,key_resp_22.rt,Circle1_colour,Circle2_colour,mouse.x,mouse.y,mouse.leftButton,mouse.midButton,mouse.rightButton,mouse.clicked_name,mouse_2.x,mouse_2.y,mouse_2.leftButton,mouse_2.midButton,mouse_2.rightButton,mouse_2.clicked_name,mouse_3.x,mouse_3.y,mouse_3.leftButton,mouse_3.midButton,mouse_3.rightButton,catchresponse,catchnumber,response_time_catch,Catch,mouse_11.x,mouse_11.y,mouse_11.leftButton,mouse_11.midButton,mouse_11.rightButton,trials_2.thisRepN,trials_2.thisTrialN,trials_2.thisN,trials_2.thisIndex,trials_2.ran,Colourpair,Temporder,mouse_3.clicked_name,mouse_11.clicked_name,trials_3.thisRepN,trials_3.thisTrialN,trials_3.thisN,trials_3.thisIndex,trials_3.ran,key_resp_instr_Ishi.keys,key_resp_instr_Ishi.rt,Ishi_trial_keyresp.keys,Ishi_trial_keyresp.rt,Ishi_textbox.text,Ishi_loop.thisRepN,Ishi_loop.thisTrialN,Ishi_loop.thisN,Ishi_loop.thisIndex,Ishi_loop.ran,imageaddress,textbox.text,mouse_4.x,mouse_4.y,mouse_4.leftButton,mouse_4.midButton,mouse_4.rightButton,mouse_4.clicked_name,textbox_2.text,mouse_8.x,mouse_8.y,mouse_8.leftButton,mouse_8.midButton,mouse_8.rightButton,mouse_8.clicked_name,textbox_3.text,mouse_9.x,mouse_9.y,mouse_9.leftButton,mouse_9.midButton,mouse_9.rightButton,mouse_9.clicked_name,textbox_4.text,mouse_12.x,mouse_12.y,mouse_12.leftButton,mouse_12.midButton,mouse_12.rightButton,mouse_12.clicked_name,textbox_5.text,mouse_13.x,mouse_13.y,mouse_13.leftButton,mouse_13.midButton,mouse_13.rightButton,mouse_13.clicked_name,textbox_6.text,mouse_14.x,mouse_14.y,mouse_14.leftButton,mouse_14.midButton,mouse_14.rightButton,mouse_14.clicked_name,textbox_7.text,mouse_15.x,mouse_15.y,mouse_15.leftButton,mouse_15.midButton,mouse_15.rightButton,mouse_15.clicked_name
0,0,0,53,1,,5fe24f4dcb7697decd41db77,62bbfc731293aa7ae4dc47f9,2022-06-29_09h25.38.278,Colour_Asymmetry_Pilot,2022.1.3,Win32,60.0240096,62bbe60bf3d75ef465d3e404,,,,,,,,,,,,,,,,,,,,,,,,,,,,,,,,,,,,,,,,,,,,,,,,,,,,,,,,,,,,,,,,,,,,,,,,,,,,,,,,,,,,,,,,,,,,,,,,,,,,,,,,,,,,,,,,,,,,,,,,,,,,,,,,,,,,,,,,,,,,,,,,,,,,,,,,,,,,,,
0,1,1,25,1,,5fe24f4dcb7697decd41db77,62bbfc731293aa7ae4dc47f9,2022-06-29_09h25.38.278,Colour_Asymmetry_Pilot,2022.1.3,Win32,60.0240096,62bbe60bf3d75ef465d3e404,,,,,,,,,,,,,,,,,,,,,,,,,,,,,,,,,,,,,,,,,,,,,,,,,,,,,,,,,,,,,,,,,,,,,,,,,,,,,,,,,,,,,,,,,,,,,,,,,,,,,,,,,,,,,,,,,,,,,,,,,,,,,,,,,,,,,,,,,,,,,,,,,,,,,,,,,,,,,,
0,2,2,78,1,,5fe24f4dcb7697decd41db77,62bbfc731293aa7ae4dc47f9,2022-06-29_09h25.38.278,Colour_Asymmetry_Pilot,2022.1.3,Win32,60.0240096,62bbe60bf3d75ef465d3e404,,,,,,,,,,,,,,,,,,,,,,,,,,,,,,,,,,,,,,,,,,,,,,,,,,,,,,,,,,,,,,,,,,,,,,,,,,,,,,,,,,,,,,,,,,,,,,,,,,,,,,,,,,,,,,,,,,,,,,,,,,,,,,,,,,,,,,,,,,,,,,,,,,,,,,,,,,,,,,
0,3,3,64,1,,5fe24f4dcb7697decd41db77,62bbfc731293aa7ae4dc47f9,2022-06-29_09h25.38.278,Colour_Asymmetry_Pilot,2022.1.3,Win32,60.0240096,62bbe60bf3d75ef465d3e404,,,,,,,,,,,,,,,,,,,,,,,,,,,,,,,,,,,,,,,,,,,,,,,,,,,,,,,,,,,,,,,,,,,,,,,,,,,,,,,,,,,,,,,,,,,,,,,,,,,,,,,,,,,,,,,,,,,,,,,,,,,,,,,,,,,,,,,,,,,,,,,,,,,,,,,,,,,,,,
0,4,4,76,1,,5fe24f4dcb7697decd41db77,62bbfc731293aa7ae4dc47f9,2022-06-29_09h25.38.278,Colour_Asymmetry_Pilot,2022.1.3,Win32,60.0240096,62bbe60bf3d75ef465d3e404,,,,,,,,,,,,,,,,,,,,,,,,,,,,,,,,,,,,,,,,,,,,,,,,,,,,,,,,,,,,,,,,,,,,,,,,,,,,,,,,,,,,,,,,,,,,,,,,,,,,,,,,,,,,,,,,,,,,,,,,,,,,,,,,,,,,,,,,,,,,,,,,,,,,,,,,,,,,,,
0,5,5,56,1,,5fe24f4dcb7697decd41db77,62bbfc731293aa7ae4dc47f9,2022-06-29_09h25.38.278,Colour_Asymmetry_Pilot,2022.1.3,Win32,60.0240096,62bbe60bf3d75ef465d3e404,,,,,,,,,,,,,,,,,,,,,,,,,,,,,,,,,,,,,,,,,,,,,,,,,,,,,,,,,,,,,,,,,,,,,,,,,,,,,,,,,,,,,,,,,,,,,,,,,,,,,,,,,,,,,,,,,,,,,,,,,,,,,,,,,,,,,,,,,,,,,,,,,,,,,,,,,,,,,,
0,6,6,18,1,,5fe24f4dcb7697decd41db77,62bbfc731293aa7ae4dc47f9,2022-06-29_09h25.38.278,Colour_Asymmetry_Pilot,2022.1.3,Win32,60.0240096,62bbe60bf3d75ef465d3e404,,,,,,,,,,,,,,,,,,,,,,,,,,,,,,,,,,,,,,,,,,,,,,,,,,,,,,,,,,,,,,,,,,,,,,,,,,,,,,,,,,,,,,,,,,,,,,,,,,,,,,,,,,,,,,,,,,,,,,,,,,,,,,,,,,,,,,,,,,,,,,,,,,,,,,,,,,,,,,
0,7,7,73,1,,5fe24f4dcb7697decd41db77,62bbfc731293aa7ae4dc47f9,2022-06-29_09h25.38.278,Colour_Asymmetry_Pilot,2022.1.3,Win32,60.0240096,62bbe60bf3d75ef465d3e404,,,,,,,,,,,,,,,,,,,,,,,,,,,,,,,,,,,,,,,,,,,,,,,,,,,,,,,,,,,,,,,,,,,,,,,,,,,,,,,,,,,,,,,,,,,,,,,,,,,,,,,,,,,,,,,,,,,,,,,,,,,,,,,,,,,,,,,,,,,,,,,,,,,,,,,,,,,,,,
0,8,8,77,1,,5fe24f4dcb7697decd41db77,62bbfc731293aa7ae4dc47f9,2022-06-29_09h25.38.278,Colour_Asymmetry_Pilot,2022.1.3,Win32,60.0240096,62bbe60bf3d75ef465d3e404,,,,,,,,,,,,,,,,,,,,,,,,,,,,,,,,,,,,,,,,,,,,,,,,,,,,,,,,,,,,,,,,,,,,,,,,,,,,,,,,,,,,,,,,,,,,,,,,,,,,,,,,,,,,,,,,,,,,,,,,,,,,,,,,,,,,,,,,,,,,,,,,,,,,,,,,,,,,,,
0,9,9,9,1,,5fe24f4dcb7697decd41db77,62bbfc731293aa7ae4dc47f9,2022-06-29_09h25.38.278,Colour_Asymmetry_Pilot,2022.1.3,Win32,60.0240096,62bbe60bf3d75ef465d3e404,,,,,,,,,,,,,,,,,,,,,,,,,,,,,,,,,,,,,,,,,,,,,,,,,,,,,,,,,,,,,,,,,,,,,,,,,,,,,,,,,,,,,,,,,,,,,,,,,,,,,,,,,,,,,,,,,,,,,,,,,,,,,,,,,,,,,,,,,,,,,,,,,,,,,,,,,,,,,,
0,10,10,72,1,,5fe24f4dcb7697decd41db77,62bbfc731293aa7ae4dc47f9,2022-06-29_09h25.38.278,Colour_Asymmetry_Pilot,2022.1.3,Win32,60.0240096,62bbe60bf3d75ef465d3e404,,,,,,,,,,,,,,,,,,,,,,,,,,,,,,,,,,,,,,,,,,,,,,,,,,,,,,,,,,,,,,,,,,,,,,,,,,,,,,,,,,,,,,,,,,,,,,,,,,,,,,,,,,,,,,,,,,,,,,,,,,,,,,,,,,,,,,,,,,,,,,,,,,,,,,,,,,,,,,
0,11,11,37,1,,5fe24f4dcb7697decd41db77,62bbfc731293aa7ae4dc47f9,2022-06-29_09h25.38.278,Colour_Asymmetry_Pilot,2022.1.3,Win32,60.0240096,62bbe60bf3d75ef465d3e404,,,,,,,,,,,,,,,,,,,,,,,,,,,,,,,,,,,,,,,,,,,,,,,,,,,,,,,,,,,,,,,,,,,,,,,,,,,,,,,,,,,,,,,,,,,,,,,,,,,,,,,,,,,,,,,,,,,,,,,,,,,,,,,,,,,,,,,,,,,,,,,,,,,,,,,,,,,,,,
0,12,12,69,1,,5fe24f4dcb7697decd41db77,62bbfc731293aa7ae4dc47f9,2022-06-29_09h25.38.278,Colour_Asymmetry_Pilot,2022.1.3,Win32,60.0240096,62bbe60bf3d75ef465d3e404,,,,,,,,,,,,,,,,,,,,,,,,,,,,,,,,,,,,,,,,,,,,,,,,,,,,,,,,,,,,,,,,,,,,,,,,,,,,,,,,,,,,,,,,,,,,,,,,,,,,,,,,,,,,,,,,,,,,,,,,,,,,,,,,,,,,,,,,,,,,,,,,,,,,,,,,,,,,,,
0,13,13,4,1,,5fe24f4dcb7697decd41db77,62bbfc731293aa7ae4dc47f9,2022-06-29_09h25.38.278,Colour_Asymmetry_Pilot,2022.1.3,Win32,60.0240096,62bbe60bf3d75ef465d3e404,,,,,,,,,,,,,,,,,,,,,,,,,,,,,,,,,,,,,,,,,,,,,,,,,,,,,,,,,,,,,,,,,,,,,,,,,,,,,,,,,,,,,,,,,,,,,,,,,,,,,,,,,,,,,,,,,,,,,,,,,,,,,,,,,,,,,,,,,,,,,,,,,,,,,,,,,,,,,,
0,14,14,92,1,,5fe24f4dcb7697decd41db77,62bbfc731293aa7ae4dc47f9,2022-06-29_09h25.38.278,Colour_Asymmetry_Pilot,2022.1.3,Win32,60.0240096,62bbe60bf3d75ef465d3e404,,,,,,,,,,,,,,,,,,,,,,,,,,,,,,,,,,,,,,,,,,,,,,,,,,,,,,,,,,,,,,,,,,,,,,,,,,,,,,,,,,,,,,,,,,,,,,,,,,,,,,,,,,,,,,,,,,,,,,,,,,,,,,,,,,,,,,,,,,,,,,,,,,,,,,,,,,,,,,
0,15,15,79,1,,5fe24f4dcb7697decd41db77,62bbfc731293aa7ae4dc47f9,2022-06-29_09h25.38.278,Colour_Asymmetry_Pilot,2022.1.3,Win32,60.0240096,62bbe60bf3d75ef465d3e404,,,,,,,,,,,,,,,,,,,,,,,,,,,,,,,,,,,,,,,,,,,,,,,,,,,,,,,,,,,,,,,,,,,,,,,,,,,,,,,,,,,,,,,,,,,,,,,,,,,,,,,,,,,,,,,,,,,,,,,,,,,,,,,,,,,,,,,,,,,,,,,,,,,,,,,,,,,,,,
0,16,16,14,1,,5fe24f4dcb7697decd41db77,62bbfc731293aa7ae4dc47f9,2022-06-29_09h25.38.278,Colour_Asymmetry_Pilot,2022.1.3,Win32,60.0240096,62bbe60bf3d75ef465d3e404,,,,,,,,,,,,,,,,,,,,,,,,,,,,,,,,,,,,,,,,,,,,,,,,,,,,,,,,,,,,,,,,,,,,,,,,,,,,,,,,,,,,,,,,,,,,,,,,,,,,,,,,,,,,,,,,,,,,,,,,,,,,,,,,,,,,,,,,,,,,,,,,,,,,,,,,,,,,,,
0,17,17,67,1,,5fe24f4dcb7697decd41db77,62bbfc731293aa7ae4dc47f9,2022-06-29_09h25.38.278,Colour_Asymmetry_Pilot,2022.1.3,Win32,60.0240096,62bbe60bf3d75ef465d3e404,,,,,,,,,,,,,,,,,,,,,,,,,,,,,,,,,,,,,,,,,,,,,,,,,,,,,,,,,,,,,,,,,,,,,,,,,,,,,,,,,,,,,,,,,,,,,,,,,,,,,,,,,,,,,,,,,,,,,,,,,,,,,,,,,,,,,,,,,,,,,,,,,,,,,,,,,,,,,,
0,18,18,70,1,,5fe24f4dcb7697decd41db77,62bbfc731293aa7ae4dc47f9,2022-06-29_09h25.38.278,Colour_Asymmetry_Pilot,2022.1.3,Win32,60.0240096,62bbe60bf3d75ef465d3e404,,,,,,,,,,,,,,,,,,,,,,,,,,,,,,,,,,,,,,,,,,,,,,,,,,,,,,,,,,,,,,,,,,,,,,,,,,,,,,,,,,,,,,,,,,,,,,,,,,,,,,,,,,,,,,,,,,,,,,,,,,,,,,,,,,,,,,,,,,,,,,,,,,,,,,,,,,,,,,
0,19,19,57,1,,5fe24f4dcb7697decd41db77,62bbfc731293aa7ae4dc47f9,2022-06-29_09h25.38.278,Colour_Asymmetry_Pilot,2022.1.3,Win32,60.0240096,62bbe60bf3d75ef465d3e404,,,,,,,,,,,,,,,,,,,,,,,,,,,,,,,,,,,,,,,,,,,,,,,,,,,,,,,,,,,,,,,,,,,,,,,,,,,,,,,,,,,,,,,,,,,,,,,,,,,,,,,,,,,,,,,,,,,,,,,,,,,,,,,,,,,,,,,,,,,,,,,,,,,,,,,,,,,,,,
0,20,20,91,1,,5fe24f4dcb7697decd41db77,62bbfc731293aa7ae4dc47f9,2022-06-29_09h25.38.278,Colour_Asymmetry_Pilot,2022.1.3,Win32,60.0240096,62bbe60bf3d75ef465d3e404,,,,,,,,,,,,,,,,,,,,,,,,,,,,,,,,,,,,,,,,,,,,,,,,,,,,,,,,,,,,,,,,,,,,,,,,,,,,,,,,,,,,,,,,,,,,,,,,,,,,,,,,,,,,,,,,,,,,,,,,,,,,,,,,,,,,,,,,,,,,,,,,,,,,,,,,,,,,,,
0,21,21,21,1,,5fe24f4dcb7697decd41db77,62bbfc731293aa7ae4dc47f9,2022-06-29_09h25.38.278,Colour_Asymmetry_Pilot,2022.1.3,Win32,60.0240096,62bbe60bf3d75ef465d3e404,,,,,,,,,,,,,,,,,,,,,,,,,,,,,,,,,,,,,,,,,,,,,,,,,,,,,,,,,,,,,,,,,,,,,,,,,,,,,,,,,,,,,,,,,,,,,,,,,,,,,,,,,,,,,,,,,,,,,,,,,,,,,,,,,,,,,,,,,,,,,,,,,,,,,,,,,,,,,,
0,22,22,43,1,,5fe24f4dcb7697decd41db77,62bbfc731293aa7ae4dc47f9,2022-06-29_09h25.38.278,Colour_Asymmetry_Pilot,2022.1.3,Win32,60.0240096,62bbe60bf3d75ef465d3e404,,,,,,,,,,,,,,,,,,,,,,,,,,,,,,,,,,,,,,,,,,,,,,,,,,,,,,,,,,,,,,,,,,,,,,,,,,,,,,,,,,,,,,,,,,,,,,,,,,,,,,,,,,,,,,,,,,,,,,,,,,,,,,,,,,,,,,,,,,,,,,,,,,,,,,,,,,,,,,
0,23,23,41,1,,5fe24f4dcb7697decd41db77,62bbfc731293aa7ae4dc47f9,2022-06-29_09h25.38.278,Colour_Asymmetry_Pilot,2022.1.3,Win32,60.0240096,62bbe60bf3d75ef465d3e404,,,,,,,,,,,,,,,,,,,,,,,,,,,,,,,,,,,,,,,,,,,,,,,,,,,,,,,,,,,,,,,,,,,,,,,,,,,,,,,,,,,,,,,,,,,,,,,,,,,,,,,,,,,,,,,,,,,,,,,,,,,,,,,,,,,,,,,,,,,,,,,,,,,,,,,,,,,,,,
0,24,24,84,1,,5fe24f4dcb7697decd41db77,62bbfc731293aa7ae4dc47f9,2022-06-29_09h25.38.278,Colour_Asymmetry_Pilot,2022.1.3,Win32,60.0240096,62bbe60bf3d75ef465d3e404,,,,,,,,,,,,,,,,,,,,,,,,,,,,,,,,,,,,,,,,,,,,,,,,,,,,,,,,,,,,,,,,,,,,,,,,,,,,,,,,,,,,,,,,,,,,,,,,,,,,,,,,,,,,,,,,,,,,,,,,,,,,,,,,,,,,,,,,,,,,,,,,,,,,,,,,,,,,,,
0,25,25,24,1,,5fe24f4dcb7697decd41db77,62bbfc731293aa7ae4dc47f9,2022-06-29_09h25.38.278,Colour_Asymmetry_Pilot,2022.1.3,Win32,60.0240096,62bbe60bf3d75ef465d3e404,,,,,,,,,,,,,,,,,,,,,,,,,,,,,,,,,,,,,,,,,,,,,,,,,,,,,,,,,,,,,,,,,,,,,,,,,,,,,,,,,,,,,,,,,,,,,,,,,,,,,,,,,,,,,,,,,,,,,,,,,,,,,,,,,,,,,,,,,,,,,,,,,,,,,,,,,,,,,,
0,26,26,27,1,,5fe24f4dcb7697decd41db77,62bbfc731293aa7ae4dc47f9,2022-06-29_09h25.38.278,Colour_Asymmetry_Pilot,2022.1.3,Win32,60.0240096,62bbe60bf3d75ef465d3e404,,,,,,,,,,,,,,,,,,,,,,,,,,,,,,,,,,,,,,,,,,,,,,,,,,,,,,,,,,,,,,,,,,,,,,,,,,,,,,,,,,,,,,,,,,,,,,,,,,,,,,,,,,,,,,,,,,,,,,,,,,,,,,,,,,,,,,,,,,,,,,,,,,,,,,,,,,,,,,
0,27,27,62,1,,5fe24f4dcb7697decd41db77,62bbfc731293aa7ae4dc47f9,2022-06-29_09h25.38.278,Colour_Asymmetry_Pilot,2022.1.3,Win32,60.0240096,62bbe60bf3d75ef465d3e404,,,,,,,,,,,,,,,,,,,,,,,,,,,,,,,,,,,,,,,,,,,,,,,,,,,,,,,,,,,,,,,,,,,,,,,,,,,,,,,,,,,,,,,,,,,,,,,,,,,,,,,,,,,,,,,,,,,,,,,,,,,,,,,,,,,,,,,,,,,,,,,,,,,,,,,,,,,,,,
0,28,28,7,1,,5fe24f4dcb7697decd41db77,62bbfc731293aa7ae4dc47f9,2022-06-29_09h25.38.278,Colour_Asymmetry_Pilot,2022.1.3,Win32,60.0240096,62bbe60bf3d75ef465d3e404,,,,,,,,,,,,,,,,,,,,,,,,,,,,,,,,,,,,,,,,,,,,,,,,,,,,,,,,,,,,,,,,,,,,,,,,,,,,,,,,,,,,,,,,,,,,,,,,,,,,,,,,,,,,,,,,,,,,,,,,,,,,,,,,,,,,,,,,,,,,,,,,,,,,,,,,,,,,,,
0,29,29,20,1,,5fe24f4dcb7697decd41db77,62bbfc731293aa7ae4dc47f9,2022-06-29_09h25.38.278,Colour_Asymmetry_Pilot,2022.1.3,Win32,60.0240096,62bbe60bf3d75ef465d3e404,,,,,,,,,,,,,,,,,,,,,,,,,,,,,,,,,,,,,,,,,,,,,,,,,,,,,,,,,,,,,,,,,,,,,,,,,,,,,,,,,,,,,,,,,,,,,,,,,,,,,,,,,,,,,,,,,,,,,,,,,,,,,,,,,,,,,,,,,,,,,,,,,,,,,,,,,,,,,,
0,30,30,50,1,,5fe24f4dcb7697decd41db77,62bbfc731293aa7ae4dc47f9,2022-06-29_09h25.38.278,Colour_Asymmetry_Pilot,2022.1.3,Win32,60.0240096,62bbe60bf3d75ef465d3e404,,,,,,,,,,,,,,,,,,,,,,,,,,,,,,,,,,,,,,,,,,,,,,,,,,,,,,,,,,,,,,,,,,,,,,,,,,,,,,,,,,,,,,,,,,,,,,,,,,,,,,,,,,,,,,,,,,,,,,,,,,,,,,,,,,,,,,,,,,,,,,,,,,,,,,,,,,,,,,
0,31,31,81,1,,5fe24f4dcb7697decd41db77,62bbfc731293aa7ae4dc47f9,2022-06-29_09h25.38.278,Colour_Asymmetry_Pilot,2022.1.3,Win32,60.0240096,62bbe60bf3d75ef465d3e404,,,,,,,,,,,,,,,,,,,,,,,,,,,,,,,,,,,,,,,,,,,,,,,,,,,,,,,,,,,,,,,,,,,,,,,,,,,,,,,,,,,,,,,,,,,,,,,,,,,,,,,,,,,,,,,,,,,,,,,,,,,,,,,,,,,,,,,,,,,,,,,,,,,,,,,,,,,,,,
0,32,32,88,1,,5fe24f4dcb7697decd41db77,62bbfc731293aa7ae4dc47f9,2022-06-29_09h25.38.278,Colour_Asymmetry_Pilot,2022.1.3,Win32,60.0240096,62bbe60bf3d75ef465d3e404,,,,,,,,,,,,,,,,,,,,,,,,,,,,,,,,,,,,,,,,,,,,,,,,,,,,,,,,,,,,,,,,,,,,,,,,,,,,,,,,,,,,,,,,,,,,,,,,,,,,,,,,,,,,,,,,,,,,,,,,,,,,,,,,,,,,,,,,,,,,,,,,,,,,,,,,,,,,,,
0,33,33,61,1,,5fe24f4dcb7697decd41db77,62bbfc731293aa7ae4dc47f9,2022-06-29_09h25.38.278,Colour_Asymmetry_Pilot,2022.1.3,Win32,60.0240096,62bbe60bf3d75ef465d3e404,,,,,,,,,,,,,,,,,,,,,,,,,,,,,,,,,,,,,,,,,,,,,,,,,,,,,,,,,,,,,,,,,,,,,,,,,,,,,,,,,,,,,,,,,,,,,,,,,,,,,,,,,,,,,,,,,,,,,,,,,,,,,,,,,,,,,,,,,,,,,,,,,,,,,,,,,,,,,,
0,34,34,83,1,,5fe24f4dcb7697decd41db77,62bbfc731293aa7ae4dc47f9,2022-06-29_09h25.38.278,Colour_Asymmetry_Pilot,2022.1.3,Win32,60.0240096,62bbe60bf3d75ef465d3e404,,,,,,,,,,,,,,,,,,,,,,,,,,,,,,,,,,,,,,,,,,,,,,,,,,,,,,,,,,,,,,,,,,,,,,,,,,,,,,,,,,,,,,,,,,,,,,,,,,,,,,,,,,,,,,,,,,,,,,,,,,,,,,,,,,,,,,,,,,,,,,,,,,,,,,,,,,,,,,
0,35,35,22,1,,5fe24f4dcb7697decd41db77,62bbfc731293aa7ae4dc47f9,2022-06-29_09h25.38.278,Colour_Asymmetry_Pilot,2022.1.3,Win32,60.0240096,62bbe60bf3d75ef465d3e404,,,,,,,,,,,,,,,,,,,,,,,,,,,,,,,,,,,,,,,,,,,,,,,,,,,,,,,,,,,,,,,,,,,,,,,,,,,,,,,,,,,,,,,,,,,,,,,,,,,,,,,,,,,,,,,,,,,,,,,,,,,,,,,,,,,,,,,,,,,,,,,,,,,,,,,,,,,,,,
0,36,36,51,1,,5fe24f4dcb7697decd41db77,62bbfc731293aa7ae4dc47f9,2022-06-29_09h25.38.278,Colour_Asymmetry_Pilot,2022.1.3,Win32,60.0240096,62bbe60bf3d75ef465d3e404,,,,,,,,,,,,,,,,,,,,,,,,,,,,,,,,,,,,,,,,,,,,,,,,,,,,,,,,,,,,,,,,,,,,,,,,,,,,,,,,,,,,,,,,,,,,,,,,,,,,,,,,,,,,,,,,,,,,,,,,,,,,,,,,,,,,,,,,,,,,,,,,,,,,,,,,,,,,,,
0,37,37,35,1,,5fe24f4dcb7697decd41db77,62bbfc731293aa7ae4dc47f9,2022-06-29_09h25.38.278,Colour_Asymmetry_Pilot,2022.1.3,Win32,60.0240096,62bbe60bf3d75ef465d3e404,,,,,,,,,,,,,,,,,,,,,,,,,,,,,,,,,,,,,,,,,,,,,,,,,,,,,,,,,,,,,,,,,,,,,,,,,,,,,,,,,,,,,,,,,,,,,,,,,,,,,,,,,,,,,,,,,,,,,,,,,,,,,,,,,,,,,,,,,,,,,,,,,,,,,,,,,,,,,,
0,38,38,11,1,,5fe24f4dcb7697decd41db77,62bbfc731293aa7ae4dc47f9,2022-06-29_09h25.38.278,Colour_Asymmetry_Pilot,2022.1.3,Win32,60.0240096,62bbe60bf3d75ef465d3e404,,,,,,,,,,,,,,,,,,,,,,,,,,,,,,,,,,,,,,,,,,,,,,,,,,,,,,,,,,,,,,,,,,,,,,,,,,,,,,,,,,,,,,,,,,,,,,,,,,,,,,,,,,,,,,,,,,,,,,,,,,,,,,,,,,,,,,,,,,,,,,,,,,,,,,,,,,,,,,
0,39,39,63,1,,5fe24f4dcb7697decd41db77,62bbfc731293aa7ae4dc47f9,2022-06-29_09h25.38.278,Colour_Asymmetry_Pilot,2022.1.3,Win32,60.0240096,62bbe60bf3d75ef465d3e404,,,,,,,,,,,,,,,,,,,,,,,,,,,,,,,,,,,,,,,,,,,,,,,,,,,,,,,,,,,,,,,,,,,,,,,,,,,,,,,,,,,,,,,,,,,,,,,,,,,,,,,,,,,,,,,,,,,,,,,,,,,,,,,,,,,,,,,,,,,,,,,,,,,,,,,,,,,,,,
0,40,40,75,1,,5fe24f4dcb7697decd41db77,62bbfc731293aa7ae4dc47f9,2022-06-29_09h25.38.278,Colour_Asymmetry_Pilot,2022.1.3,Win32,60.0240096,62bbe60bf3d75ef465d3e404,,,,,,,,,,,,,,,,,,,,,,,,,,,,,,,,,,,,,,,,,,,,,,,,,,,,,,,,,,,,,,,,,,,,,,,,,,,,,,,,,,,,,,,,,,,,,,,,,,,,,,,,,,,,,,,,,,,,,,,,,,,,,,,,,,,,,,,,,,,,,,,,,,,,,,,,,,,,,,
0,41,41,26,1,,5fe24f4dcb7697decd41db77,62bbfc731293aa7ae4dc47f9,2022-06-29_09h25.38.278,Colour_Asymmetry_Pilot,2022.1.3,Win32,60.0240096,62bbe60bf3d75ef465d3e404,,,,,,,,,,,,,,,,,,,,,,,,,,,,,,,,,,,,,,,,,,,,,,,,,,,,,,,,,,,,,,,,,,,,,,,,,,,,,,,,,,,,,,,,,,,,,,,,,,,,,,,,,,,,,,,,,,,,,,,,,,,,,,,,,,,,,,,,,,,,,,,,,,,,,,,,,,,,,,
0,42,42,31,1,,5fe24f4dcb7697decd41db77,62bbfc731293aa7ae4dc47f9,2022-06-29_09h25.38.278,Colour_Asymmetry_Pilot,2022.1.3,Win32,60.0240096,62bbe60bf3d75ef465d3e404,,,,,,,,,,,,,,,,,,,,,,,,,,,,,,,,,,,,,,,,,,,,,,,,,,,,,,,,,,,,,,,,,,,,,,,,,,,,,,,,,,,,,,,,,,,,,,,,,,,,,,,,,,,,,,,,,,,,,,,,,,,,,,,,,,,,,,,,,,,,,,,,,,,,,,,,,,,,,,
0,43,43,3,1,,5fe24f4dcb7697decd41db77,62bbfc731293aa7ae4dc47f9,2022-06-29_09h25.38.278,Colour_Asymmetry_Pilot,2022.1.3,Win32,60.0240096,62bbe60bf3d75ef465d3e404,,,,,,,,,,,,,,,,,,,,,,,,,,,,,,,,,,,,,,,,,,,,,,,,,,,,,,,,,,,,,,,,,,,,,,,,,,,,,,,,,,,,,,,,,,,,,,,,,,,,,,,,,,,,,,,,,,,,,,,,,,,,,,,,,,,,,,,,,,,,,,,,,,,,,,,,,,,,,,
0,44,44,5,1,,5fe24f4dcb7697decd41db77,62bbfc731293aa7ae4dc47f9,2022-06-29_09h25.38.278,Colour_Asymmetry_Pilot,2022.1.3,Win32,60.0240096,62bbe60bf3d75ef465d3e404,,,,,,,,,,,,,,,,,,,,,,,,,,,,,,,,,,,,,,,,,,,,,,,,,,,,,,,,,,,,,,,,,,,,,,,,,,,,,,,,,,,,,,,,,,,,,,,,,,,,,,,,,,,,,,,,,,,,,,,,,,,,,,,,,,,,,,,,,,,,,,,,,,,,,,,,,,,,,,
0,45,45,55,1,,5fe24f4dcb7697decd41db77,62bbfc731293aa7ae4dc47f9,2022-06-29_09h25.38.278,Colour_Asymmetry_Pilot,2022.1.3,Win32,60.0240096,62bbe60bf3d75ef465d3e404,,,,,,,,,,,,,,,,,,,,,,,,,,,,,,,,,,,,,,,,,,,,,,,,,,,,,,,,,,,,,,,,,,,,,,,,,,,,,,,,,,,,,,,,,,,,,,,,,,,,,,,,,,,,,,,,,,,,,,,,,,,,,,,,,,,,,,,,,,,,,,,,,,,,,,,,,,,,,,
0,46,46,80,1,,5fe24f4dcb7697decd41db77,62bbfc731293aa7ae4dc47f9,2022-06-29_09h25.38.278,Colour_Asymmetry_Pilot,2022.1.3,Win32,60.0240096,62bbe60bf3d75ef465d3e404,,,,,,,,,,,,,,,,,,,,,,,,,,,,,,,,,,,,,,,,,,,,,,,,,,,,,,,,,,,,,,,,,,,,,,,,,,,,,,,,,,,,,,,,,,,,,,,,,,,,,,,,,,,,,,,,,,,,,,,,,,,,,,,,,,,,,,,,,,,,,,,,,,,,,,,,,,,,,,
0,47,47,54,1,,5fe24f4dcb7697decd41db77,62bbfc731293aa7ae4dc47f9,2022-06-29_09h25.38.278,Colour_Asymmetry_Pilot,2022.1.3,Win32,60.0240096,62bbe60bf3d75ef465d3e404,,,,,,,,,,,,,,,,,,,,,,,,,,,,,,,,,,,,,,,,,,,,,,,,,,,,,,,,,,,,,,,,,,,,,,,,,,,,,,,,,,,,,,,,,,,,,,,,,,,,,,,,,,,,,,,,,,,,,,,,,,,,,,,,,,,,,,,,,,,,,,,,,,,,,,,,,,,,,,
0,48,48,10,1,,5fe24f4dcb7697decd41db77,62bbfc731293aa7ae4dc47f9,2022-06-29_09h25.38.278,Colour_Asymmetry_Pilot,2022.1.3,Win32,60.0240096,62bbe60bf3d75ef465d3e404,,,,,,,,,,,,,,,,,,,,,,,,,,,,,,,,,,,,,,,,,,,,,,,,,,,,,,,,,,,,,,,,,,,,,,,,,,,,,,,,,,,,,,,,,,,,,,,,,,,,,,,,,,,,,,,,,,,,,,,,,,,,,,,,,,,,,,,,,,,,,,,,,,,,,,,,,,,,,,
0,49,49,45,1,,5fe24f4dcb7697decd41db77,62bbfc731293aa7ae4dc47f9,2022-06-29_09h25.38.278,Colour_Asymmetry_Pilot,2022.1.3,Win32,60.0240096,62bbe60bf3d75ef465d3e404,,,,,,,,,,,,,,,,,,,,,,,,,,,,,,,,,,,,,,,,,,,,,,,,,,,,,,,,,,,,,,,,,,,,,,,,,,,,,,,,,,,,,,,,,,,,,,,,,,,,,,,,,,,,,,,,,,,,,,,,,,,,,,,,,,,,,,,,,,,,,,,,,,,,,,,,,,,,,,
0,50,50,36,1,,5fe24f4dcb7697decd41db77,62bbfc731293aa7ae4dc47f9,2022-06-29_09h25.38.278,Colour_Asymmetry_Pilot,2022.1.3,Win32,60.0240096,62bbe60bf3d75ef465d3e404,,,,,,,,,,,,,,,,,,,,,,,,,,,,,,,,,,,,,,,,,,,,,,,,,,,,,,,,,,,,,,,,,,,,,,,,,,,,,,,,,,,,,,,,,,,,,,,,,,,,,,,,,,,,,,,,,,,,,,,,,,,,,,,,,,,,,,,,,,,,,,,,,,,,,,,,,,,,,,
0,51,51,33,1,,5fe24f4dcb7697decd41db77,62bbfc731293aa7ae4dc47f9,2022-06-29_09h25.38.278,Colour_Asymmetry_Pilot,2022.1.3,Win32,60.0240096,62bbe60bf3d75ef465d3e404,,,,,,,,,,,,,,,,,,,,,,,,,,,,,,,,,,,,,,,,,,,,,,,,,,,,,,,,,,,,,,,,,,,,,,,,,,,,,,,,,,,,,,,,,,,,,,,,,,,,,,,,,,,,,,,,,,,,,,,,,,,,,,,,,,,,,,,,,,,,,,,,,,,,,,,,,,,,,,
0,52,52,42,1,,5fe24f4dcb7697decd41db77,62bbfc731293aa7ae4dc47f9,2022-06-29_09h25.38.278,Colour_Asymmetry_Pilot,2022.1.3,Win32,60.0240096,62bbe60bf3d75ef465d3e404,,,,,,,,,,,,,,,,,,,,,,,,,,,,,,,,,,,,,,,,,,,,,,,,,,,,,,,,,,,,,,,,,,,,,,,,,,,,,,,,,,,,,,,,,,,,,,,,,,,,,,,,,,,,,,,,,,,,,,,,,,,,,,,,,,,,,,,,,,,,,,,,,,,,,,,,,,,,,,
0,53,53,71,1,,5fe24f4dcb7697decd41db77,62bbfc731293aa7ae4dc47f9,2022-06-29_09h25.38.278,Colour_Asymmetry_Pilot,2022.1.3,Win32,60.0240096,62bbe60bf3d75ef465d3e404,,,,,,,,,,,,,,,,,,,,,,,,,,,,,,,,,,,,,,,,,,,,,,,,,,,,,,,,,,,,,,,,,,,,,,,,,,,,,,,,,,,,,,,,,,,,,,,,,,,,,,,,,,,,,,,,,,,,,,,,,,,,,,,,,,,,,,,,,,,,,,,,,,,,,,,,,,,,,,
0,54,54,47,1,,5fe24f4dcb7697decd41db77,62bbfc731293aa7ae4dc47f9,2022-06-29_09h25.38.278,Colour_Asymmetry_Pilot,2022.1.3,Win32,60.0240096,62bbe60bf3d75ef465d3e404,,,,,,,,,,,,,,,,,,,,,,,,,,,,,,,,,,,,,,,,,,,,,,,,,,,,,,,,,,,,,,,,,,,,,,,,,,,,,,,,,,,,,,,,,,,,,,,,,,,,,,,,,,,,,,,,,,,,,,,,,,,,,,,,,,,,,,,,,,,,,,,,,,,,,,,,,,,,,,
0,55,55,86,1,,5fe24f4dcb7697decd41db77,62bbfc731293aa7ae4dc47f9,2022-06-29_09h25.38.278,Colour_Asymmetry_Pilot,2022.1.3,Win32,60.0240096,62bbe60bf3d75ef465d3e404,,,,,,,,,,,,,,,,,,,,,,,,,,,,,,,,,,,,,,,,,,,,,,,,,,,,,,,,,,,,,,,,,,,,,,,,,,,,,,,,,,,,,,,,,,,,,,,,,,,,,,,,,,,,,,,,,,,,,,,,,,,,,,,,,,,,,,,,,,,,,,,,,,,,,,,,,,,,,,
0,56,56,40,1,,5fe24f4dcb7697decd41db77,62bbfc731293aa7ae4dc47f9,2022-06-29_09h25.38.278,Colour_Asymmetry_Pilot,2022.1.3,Win32,60.0240096,62bbe60bf3d75ef465d3e404,,,,,,,,,,,,,,,,,,,,,,,,,,,,,,,,,,,,,,,,,,,,,,,,,,,,,,,,,,,,,,,,,,,,,,,,,,,,,,,,,,,,,,,,,,,,,,,,,,,,,,,,,,,,,,,,,,,,,,,,,,,,,,,,,,,,,,,,,,,,,,,,,,,,,,,,,,,,,,
0,57,57,58,1,,5fe24f4dcb7697decd41db77,62bbfc731293aa7ae4dc47f9,2022-06-29_09h25.38.278,Colour_Asymmetry_Pilot,2022.1.3,Win32,60.0240096,62bbe60bf3d75ef465d3e404,,,,,,,,,,,,,,,,,,,,,,,,,,,,,,,,,,,,,,,,,,,,,,,,,,,,,,,,,,,,,,,,,,,,,,,,,,,,,,,,,,,,,,,,,,,,,,,,,,,,,,,,,,,,,,,,,,,,,,,,,,,,,,,,,,,,,,,,,,,,,,,,,,,,,,,,,,,,,,
0,58,58,1,1,,5fe24f4dcb7697decd41db77,62bbfc731293aa7ae4dc47f9,2022-06-29_09h25.38.278,Colour_Asymmetry_Pilot,2022.1.3,Win32,60.0240096,62bbe60bf3d75ef465d3e404,,,,,,,,,,,,,,,,,,,,,,,,,,,,,,,,,,,,,,,,,,,,,,,,,,,,,,,,,,,,,,,,,,,,,,,,,,,,,,,,,,,,,,,,,,,,,,,,,,,,,,,,,,,,,,,,,,,,,,,,,,,,,,,,,,,,,,,,,,,,,,,,,,,,,,,,,,,,,,
0,59,59,68,1,,5fe24f4dcb7697decd41db77,62bbfc731293aa7ae4dc47f9,2022-06-29_09h25.38.278,Colour_Asymmetry_Pilot,2022.1.3,Win32,60.0240096,62bbe60bf3d75ef465d3e404,,,,,,,,,,,,,,,,,,,,,,,,,,,,,,,,,,,,,,,,,,,,,,,,,,,,,,,,,,,,,,,,,,,,,,,,,,,,,,,,,,,,,,,,,,,,,,,,,,,,,,,,,,,,,,,,,,,,,,,,,,,,,,,,,,,,,,,,,,,,,,,,,,,,,,,,,,,,,,
0,60,60,34,1,,5fe24f4dcb7697decd41db77,62bbfc731293aa7ae4dc47f9,2022-06-29_09h25.38.278,Colour_Asymmetry_Pilot,2022.1.3,Win32,60.0240096,62bbe60bf3d75ef465d3e404,,,,,,,,,,,,,,,,,,,,,,,,,,,,,,,,,,,,,,,,,,,,,,,,,,,,,,,,,,,,,,,,,,,,,,,,,,,,,,,,,,,,,,,,,,,,,,,,,,,,,,,,,,,,,,,,,,,,,,,,,,,,,,,,,,,,,,,,,,,,,,,,,,,,,,,,,,,,,,
0,61,61,30,1,,5fe24f4dcb7697decd41db77,62bbfc731293aa7ae4dc47f9,2022-06-29_09h25.38.278,Colour_Asymmetry_Pilot,2022.1.3,Win32,60.0240096,62bbe60bf3d75ef465d3e404,,,,,,,,,,,,,,,,,,,,,,,,,,,,,,,,,,,,,,,,,,,,,,,,,,,,,,,,,,,,,,,,,,,,,,,,,,,,,,,,,,,,,,,,,,,,,,,,,,,,,,,,,,,,,,,,,,,,,,,,,,,,,,,,,,,,,,,,,,,,,,,,,,,,,,,,,,,,,,
0,62,62,6,1,,5fe24f4dcb7697decd41db77,62bbfc731293aa7ae4dc47f9,2022-06-29_09h25.38.278,Colour_Asymmetry_Pilot,2022.1.3,Win32,60.0240096,62bbe60bf3d75ef465d3e404,,,,,,,,,,,,,,,,,,,,,,,,,,,,,,,,,,,,,,,,,,,,,,,,,,,,,,,,,,,,,,,,,,,,,,,,,,,,,,,,,,,,,,,,,,,,,,,,,,,,,,,,,,,,,,,,,,,,,,,,,,,,,,,,,,,,,,,,,,,,,,,,,,,,,,,,,,,,,,
0,63,63,29,1,,5fe24f4dcb7697decd41db77,62bbfc731293aa7ae4dc47f9,2022-06-29_09h25.38.278,Colour_Asymmetry_Pilot,2022.1.3,Win32,60.0240096,62bbe60bf3d75ef465d3e404,,,,,,,,,,,,,,,,,,,,,,,,,,,,,,,,,,,,,,,,,,,,,,,,,,,,,,,,,,,,,,,,,,,,,,,,,,,,,,,,,,,,,,,,,,,,,,,,,,,,,,,,,,,,,,,,,,,,,,,,,,,,,,,,,,,,,,,,,,,,,,,,,,,,,,,,,,,,,,
0,64,64,32,1,,5fe24f4dcb7697decd41db77,62bbfc731293aa7ae4dc47f9,2022-06-29_09h25.38.278,Colour_Asymmetry_Pilot,2022.1.3,Win32,60.0240096,62bbe60bf3d75ef465d3e404,,,,,,,,,,,,,,,,,,,,,,,,,,,,,,,,,,,,,,,,,,,,,,,,,,,,,,,,,,,,,,,,,,,,,,,,,,,,,,,,,,,,,,,,,,,,,,,,,,,,,,,,,,,,,,,,,,,,,,,,,,,,,,,,,,,,,,,,,,,,,,,,,,,,,,,,,,,,,,
0,65,65,60,1,,5fe24f4dcb7697decd41db77,62bbfc731293aa7ae4dc47f9,2022-06-29_09h25.38.278,Colour_Asymmetry_Pilot,2022.1.3,Win32,60.0240096,62bbe60bf3d75ef465d3e404,,,,,,,,,,,,,,,,,,,,,,,,,,,,,,,,,,,,,,,,,,,,,,,,,,,,,,,,,,,,,,,,,,,,,,,,,,,,,,,,,,,,,,,,,,,,,,,,,,,,,,,,,,,,,,,,,,,,,,,,,,,,,,,,,,,,,,,,,,,,,,,,,,,,,,,,,,,,,,
0,66,66,16,1,,5fe24f4dcb7697decd41db77,62bbfc731293aa7ae4dc47f9,2022-06-29_09h25.38.278,Colour_Asymmetry_Pilot,2022.1.3,Win32,60.0240096,62bbe60bf3d75ef465d3e404,,,,,,,,,,,,,,,,,,,,,,,,,,,,,,,,,,,,,,,,,,,,,,,,,,,,,,,,,,,,,,,,,,,,,,,,,,,,,,,,,,,,,,,,,,,,,,,,,,,,,,,,,,,,,,,,,,,,,,,,,,,,,,,,,,,,,,,,,,,,,,,,,,,,,,,,,,,,,,
0,67,67,19,1,,5fe24f4dcb7697decd41db77,62bbfc731293aa7ae4dc47f9,2022-06-29_09h25.38.278,Colour_Asymmetry_Pilot,2022.1.3,Win32,60.0240096,62bbe60bf3d75ef465d3e404,,,,,,,,,,,,,,,,,,,,,,,,,,,,,,,,,,,,,,,,,,,,,,,,,,,,,,,,,,,,,,,,,,,,,,,,,,,,,,,,,,,,,,,,,,,,,,,,,,,,,,,,,,,,,,,,,,,,,,,,,,,,,,,,,,,,,,,,,,,,,,,,,,,,,,,,,,,,,,
0,68,68,44,1,,5fe24f4dcb7697decd41db77,62bbfc731293aa7ae4dc47f9,2022-06-29_09h25.38.278,Colour_Asymmetry_Pilot,2022.1.3,Win32,60.0240096,62bbe60bf3d75ef465d3e404,,,,,,,,,,,,,,,,,,,,,,,,,,,,,,,,,,,,,,,,,,,,,,,,,,,,,,,,,,,,,,,,,,,,,,,,,,,,,,,,,,,,,,,,,,,,,,,,,,,,,,,,,,,,,,,,,,,,,,,,,,,,,,,,,,,,,,,,,,,,,,,,,,,,,,,,,,,,,,
0,69,69,17,1,,5fe24f4dcb7697decd41db77,62bbfc731293aa7ae4dc47f9,2022-06-29_09h25.38.278,Colour_Asymmetry_Pilot,2022.1.3,Win32,60.0240096,62bbe60bf3d75ef465d3e404,,,,,,,,,,,,,,,,,,,,,,,,,,,,,,,,,,,,,,,,,,,,,,,,,,,,,,,,,,,,,,,,,,,,,,,,,,,,,,,,,,,,,,,,,,,,,,,,,,,,,,,,,,,,,,,,,,,,,,,,,,,,,,,,,,,,,,,,,,,,,,,,,,,,,,,,,,,,,,
0,70,70,23,1,,5fe24f4dcb7697decd41db77,62bbfc731293aa7ae4dc47f9,2022-06-29_09h25.38.278,Colour_Asymmetry_Pilot,2022.1.3,Win32,60.0240096,62bbe60bf3d75ef465d3e404,,,,,,,,,,,,,,,,,,,,,,,,,,,,,,,,,,,,,,,,,,,,,,,,,,,,,,,,,,,,,,,,,,,,,,,,,,,,,,,,,,,,,,,,,,,,,,,,,,,,,,,,,,,,,,,,,,,,,,,,,,,,,,,,,,,,,,,,,,,,,,,,,,,,,,,,,,,,,,
0,71,71,8,1,,5fe24f4dcb7697decd41db77,62bbfc731293aa7ae4dc47f9,2022-06-29_09h25.38.278,Colour_Asymmetry_Pilot,2022.1.3,Win32,60.0240096,62bbe60bf3d75ef465d3e404,,,,,,,,,,,,,,,,,,,,,,,,,,,,,,,,,,,,,,,,,,,,,,,,,,,,,,,,,,,,,,,,,,,,,,,,,,,,,,,,,,,,,,,,,,,,,,,,,,,,,,,,,,,,,,,,,,,,,,,,,,,,,,,,,,,,,,,,,,,,,,,,,,,,,,,,,,,,,,
0,72,72,46,1,,5fe24f4dcb7697decd41db77,62bbfc731293aa7ae4dc47f9,2022-06-29_09h25.38.278,Colour_Asymmetry_Pilot,2022.1.3,Win32,60.0240096,62bbe60bf3d75ef465d3e404,,,,,,,,,,,,,,,,,,,,,,,,,,,,,,,,,,,,,,,,,,,,,,,,,,,,,,,,,,,,,,,,,,,,,,,,,,,,,,,,,,,,,,,,,,,,,,,,,,,,,,,,,,,,,,,,,,,,,,,,,,,,,,,,,,,,,,,,,,,,,,,,,,,,,,,,,,,,,,
0,73,73,74,1,,5fe24f4dcb7697decd41db77,62bbfc731293aa7ae4dc47f9,2022-06-29_09h25.38.278,Colour_Asymmetry_Pilot,2022.1.3,Win32,60.0240096,62bbe60bf3d75ef465d3e404,,,,,,,,,,,,,,,,,,,,,,,,,,,,,,,,,,,,,,,,,,,,,,,,,,,,,,,,,,,,,,,,,,,,,,,,,,,,,,,,,,,,,,,,,,,,,,,,,,,,,,,,,,,,,,,,,,,,,,,,,,,,,,,,,,,,,,,,,,,,,,,,,,,,,,,,,,,,,,
0,74,74,87,1,,5fe24f4dcb7697decd41db77,62bbfc731293aa7ae4dc47f9,2022-06-29_09h25.38.278,Colour_Asymmetry_Pilot,2022.1.3,Win32,60.0240096,62bbe60bf3d75ef465d3e404,,,,,,,,,,,,,,,,,,,,,,,,,,,,,,,,,,,,,,,,,,,,,,,,,,,,,,,,,,,,,,,,,,,,,,,,,,,,,,,,,,,,,,,,,,,,,,,,,,,,,,,,,,,,,,,,,,,,,,,,,,,,,,,,,,,,,,,,,,,,,,,,,,,,,,,,,,,,,,
0,75,75,15,1,,5fe24f4dcb7697decd41db77,62bbfc731293aa7ae4dc47f9,2022-06-29_09h25.38.278,Colour_Asymmetry_Pilot,2022.1.3,Win32,60.0240096,62bbe60bf3d75ef465d3e404,,,,,,,,,,,,,,,,,,,,,,,,,,,,,,,,,,,,,,,,,,,,,,,,,,,,,,,,,,,,,,,,,,,,,,,,,,,,,,,,,,,,,,,,,,,,,,,,,,,,,,,,,,,,,,,,,,,,,,,,,,,,,,,,,,,,,,,,,,,,,,,,,,,,,,,,,,,,,,
0,76,76,48,1,,5fe24f4dcb7697decd41db77,62bbfc731293aa7ae4dc47f9,2022-06-29_09h25.38.278,Colour_Asymmetry_Pilot,2022.1.3,Win32,60.0240096,62bbe60bf3d75ef465d3e404,,,,,,,,,,,,,,,,,,,,,,,,,,,,,,,,,,,,,,,,,,,,,,,,,,,,,,,,,,,,,,,,,,,,,,,,,,,,,,,,,,,,,,,,,,,,,,,,,,,,,,,,,,,,,,,,,,,,,,,,,,,,,,,,,,,,,,,,,,,,,,,,,,,,,,,,,,,,,,
0,77,77,82,1,,5fe24f4dcb7697decd41db77,62bbfc731293aa7ae4dc47f9,2022-06-29_09h25.38.278,Colour_Asymmetry_Pilot,2022.1.3,Win32,60.0240096,62bbe60bf3d75ef465d3e404,,,,,,,,,,,,,,,,,,,,,,,,,,,,,,,,,,,,,,,,,,,,,,,,,,,,,,,,,,,,,,,,,,,,,,,,,,,,,,,,,,,,,,,,,,,,,,,,,,,,,,,,,,,,,,,,,,,,,,,,,,,,,,,,,,,,,,,,,,,,,,,,,,,,,,,,,,,,,,
0,78,78,38,1,,5fe24f4dcb7697decd41db77,62bbfc731293aa7ae4dc47f9,2022-06-29_09h25.38.278,Colour_Asymmetry_Pilot,2022.1.3,Win32,60.0240096,62bbe60bf3d75ef465d3e404,,,,,,,,,,,,,,,,,,,,,,,,,,,,,,,,,,,,,,,,,,,,,,,,,,,,,,,,,,,,,,,,,,,,,,,,,,,,,,,,,,,,,,,,,,,,,,,,,,,,,,,,,,,,,,,,,,,,,,,,,,,,,,,,,,,,,,,,,,,,,,,,,,,,,,,,,,,,,,
0,79,79,39,1,,5fe24f4dcb7697decd41db77,62bbfc731293aa7ae4dc47f9,2022-06-29_09h25.38.278,Colour_Asymmetry_Pilot,2022.1.3,Win32,60.0240096,62bbe60bf3d75ef465d3e404,,,,,,,,,,,,,,,,,,,,,,,,,,,,,,,,,,,,,,,,,,,,,,,,,,,,,,,,,,,,,,,,,,,,,,,,,,,,,,,,,,,,,,,,,,,,,,,,,,,,,,,,,,,,,,,,,,,,,,,,,,,,,,,,,,,,,,,,,,,,,,,,,,,,,,,,,,,,,,
0,80,80,85,1,,5fe24f4dcb7697decd41db77,62bbfc731293aa7ae4dc47f9,2022-06-29_09h25.38.278,Colour_Asymmetry_Pilot,2022.1.3,Win32,60.0240096,62bbe60bf3d75ef465d3e404,,,,,,,,,,,,,,,,,,,,,,,,,,,,,,,,,,,,,,,,,,,,,,,,,,,,,,,,,,,,,,,,,,,,,,,,,,,,,,,,,,,,,,,,,,,,,,,,,,,,,,,,,,,,,,,,,,,,,,,,,,,,,,,,,,,,,,,,,,,,,,,,,,,,,,,,,,,,,,
0,81,81,59,1,,5fe24f4dcb7697decd41db77,62bbfc731293aa7ae4dc47f9,2022-06-29_09h25.38.278,Colour_Asymmetry_Pilot,2022.1.3,Win32,60.0240096,62bbe60bf3d75ef465d3e404,,,,,,,,,,,,,,,,,,,,,,,,,,,,,,,,,,,,,,,,,,,,,,,,,,,,,,,,,,,,,,,,,,,,,,,,,,,,,,,,,,,,,,,,,,,,,,,,,,,,,,,,,,,,,,,,,,,,,,,,,,,,,,,,,,,,,,,,,,,,,,,,,,,,,,,,,,,,,,
0,82,82,13,1,,5fe24f4dcb7697decd41db77,62bbfc731293aa7ae4dc47f9,2022-06-29_09h25.38.278,Colour_Asymmetry_Pilot,2022.1.3,Win32,60.0240096,62bbe60bf3d75ef465d3e404,,,,,,,,,,,,,,,,,,,,,,,,,,,,,,,,,,,,,,,,,,,,,,,,,,,,,,,,,,,,,,,,,,,,,,,,,,,,,,,,,,,,,,,,,,,,,,,,,,,,,,,,,,,,,,,,,,,,,,,,,,,,,,,,,,,,,,,,,,,,,,,,,,,,,,,,,,,,,,
0,83,83,66,1,,5fe24f4dcb7697decd41db77,62bbfc731293aa7ae4dc47f9,2022-06-29_09h25.38.278,Colour_Asymmetry_Pilot,2022.1.3,Win32,60.0240096,62bbe60bf3d75ef465d3e404,,,,,,,,,,,,,,,,,,,,,,,,,,,,,,,,,,,,,,,,,,,,,,,,,,,,,,,,,,,,,,,,,,,,,,,,,,,,,,,,,,,,,,,,,,,,,,,,,,,,,,,,,,,,,,,,,,,,,,,,,,,,,,,,,,,,,,,,,,,,,,,,,,,,,,,,,,,,,,
0,84,84,90,1,,5fe24f4dcb7697decd41db77,62bbfc731293aa7ae4dc47f9,2022-06-29_09h25.38.278,Colour_Asymmetry_Pilot,2022.1.3,Win32,60.0240096,62bbe60bf3d75ef465d3e404,,,,,,,,,,,,,,,,,,,,,,,,,,,,,,,,,,,,,,,,,,,,,,,,,,,,,,,,,,,,,,,,,,,,,,,,,,,,,,,,,,,,,,,,,,,,,,,,,,,,,,,,,,,,,,,,,,,,,,,,,,,,,,,,,,,,,,,,,,,,,,,,,,,,,,,,,,,,,,
0,85,85,65,1,,5fe24f4dcb7697decd41db77,62bbfc731293aa7ae4dc47f9,2022-06-29_09h25.38.278,Colour_Asymmetry_Pilot,2022.1.3,Win32,60.0240096,62bbe60bf3d75ef465d3e404,,,,,,,,,,,,,,,,,,,,,,,,,,,,,,,,,,,,,,,,,,,,,,,,,,,,,,,,,,,,,,,,,,,,,,,,,,,,,,,,,,,,,,,,,,,,,,,,,,,,,,,,,,,,,,,,,,,,,,,,,,,,,,,,,,,,,,,,,,,,,,,,,,,,,,,,,,,,,,
0,86,86,28,1,,5fe24f4dcb7697decd41db77,62bbfc731293aa7ae4dc47f9,2022-06-29_09h25.38.278,Colour_Asymmetry_Pilot,2022.1.3,Win32,60.0240096,62bbe60bf3d75ef465d3e404,,,,,,,,,,,,,,,,,,,,,,,,,,,,,,,,,,,,,,,,,,,,,,,,,,,,,,,,,,,,,,,,,,,,,,,,,,,,,,,,,,,,,,,,,,,,,,,,,,,,,,,,,,,,,,,,,,,,,,,,,,,,,,,,,,,,,,,,,,,,,,,,,,,,,,,,,,,,,,
0,87,87,52,1,,5fe24f4dcb7697decd41db77,62bbfc731293aa7ae4dc47f9,2022-06-29_09h25.38.278,Colour_Asymmetry_Pilot,2022.1.3,Win32,60.0240096,62bbe60bf3d75ef465d3e404,,,,,,,,,,,,,,,,,,,,,,,,,,,,,,,,,,,,,,,,,,,,,,,,,,,,,,,,,,,,,,,,,,,,,,,,,,,,,,,,,,,,,,,,,,,,,,,,,,,,,,,,,,,,,,,,,,,,,,,,,,,,,,,,,,,,,,,,,,,,,,,,,,,,,,,,,,,,,,
0,88,88,49,1,,5fe24f4dcb7697decd41db77,62bbfc731293aa7ae4dc47f9,2022-06-29_09h25.38.278,Colour_Asymmetry_Pilot,2022.1.3,Win32,60.0240096,62bbe60bf3d75ef465d3e404,,,,,,,,,,,,,,,,,,,,,,,,,,,,,,,,,,,,,,,,,,,,,,,,,,,,,,,,,,,,,,,,,,,,,,,,,,,,,,,,,,,,,,,,,,,,,,,,,,,,,,,,,,,,,,,,,,,,,,,,,,,,,,,,,,,,,,,,,,,,,,,,,,,,,,,,,,,,,,
0,89,89,2,1,,5fe24f4dcb7697decd41db77,62bbfc731293aa7ae4dc47f9,2022-06-29_09h25.38.278,Colour_Asymmetry_Pilot,2022.1.3,Win32,60.0240096,62bbe60bf3d75ef465d3e404,,,,,,,,,,,,,,,,,,,,,,,,,,,,,,,,,,,,,,,,,,,,,,,,,,,,,,,,,,,,,,,,,,,,,,,,,,,,,,,,,,,,,,,,,,,,,,,,,,,,,,,,,,,,,,,,,,,,,,,,,,,,,,,,,,,,,,,,,,,,,,,,,,,,,,,,,,,,,,
0,90,90,12,1,,5fe24f4dcb7697decd41db77,62bbfc731293aa7ae4dc47f9,2022-06-29_09h25.38.278,Colour_Asymmetry_Pilot,2022.1.3,Win32,60.0240096,62bbe60bf3d75ef465d3e404,,,,,,,,,,,,,,,,,,,,,,,,,,,,,,,,,,,,,,,,,,,,,,,,,,,,,,,,,,,,,,,,,,,,,,,,,,,,,,,,,,,,,,,,,,,,,,,,,,,,,,,,,,,,,,,,,,,,,,,,,,,,,,,,,,,,,,,,,,,,,,,,,,,,,,,,,,,,,,
0,91,91,89,1,,5fe24f4dcb7697decd41db77,62bbfc731293aa7ae4dc47f9,2022-06-29_09h25.38.278,Colour_Asymmetry_Pilot,2022.1.3,Win32,60.0240096,62bbe60bf3d75ef465d3e404,,,,,,,,,,,,,,,,,,,,,,,,,,,,,,,,,,,,,,,,,,,,,,,,,,,,,,,,,,,,,,,,,,,,,,,,,,,,,,,,,,,,,,,,,,,,,,,,,,,,,,,,,,,,,,,,,,,,,,,,,,,,,,,,,,,,,,,,,,,,,,,,,,,,,,,,,,,,,,
0,92,92,0,1,,5fe24f4dcb7697decd41db77,62bbfc731293aa7ae4dc47f9,2022-06-29_09h25.38.278,Colour_Asymmetry_Pilot,2022.1.3,Win32,60.0240096,62bbe60bf3d75ef465d3e404,,,,,,,,,,,,,,,,,,,,,,,,,,,,,,,,,,,,,,,,,,,,,,,,,,,,,,,,,,,,,,,,,,,,,,,,,,,,,,,,,,,,,,,,,,,,,,,,,,,,,,,,,,,,,,,,,,,,,,,,,,,,,,,,,,,,,,,,,,,,,,,,,,,,,,,,,,,,,,
,,,,,,5fe24f4dcb7697decd41db77,62bbfc731293aa7ae4dc47f9,2022-06-29_09h25.38.278,Colour_Asymmetry_Pilot,2022.1.3,Win32,60.0240096,62bbe60bf3d75ef465d3e404,0,0,0,161,1,onethree,,,,,,,,,,,,,,,,,,,,,,,,,,,,,,,,,,,,,,,,,,,,,,,,,,,,,,,,,,,,,,,,,,,,,,,,,,,,,,,,,,,,,,,,,,,,,,,,,,,,,,,,,,,,,,,,,,,,,,,,,,,,,,,,,,,,,,,,,,,,,,,,,,,,,,,,
,,,,,,5fe24f4dcb7697decd41db77,62bbfc731293aa7ae4dc47f9,2022-06-29_09h25.38.278,Colour_Asymmetry_Pilot,2022.1.3,Win32,60.0240096,62bbe60bf3d75ef465d3e404,0,1,1,80,1,onetwo,,,,,,,,,,,,,,,,,,,,,,,,,,,,,,,,,,,,,,,,,,,,,,,,,,,,,,,,,,,,,,,,,,,,,,,,,,,,,,,,,,,,,,,,,,,,,,,,,,,,,,,,,,,,,,,,,,,,,,,,,,,,,,,,,,,,,,,,,,,,,,,,,,,,,,,,
,,,,,,5fe24f4dcb7697decd41db77,62bbfc731293aa7ae4dc47f9,2022-06-29_09h25.38.278,Colour_Asymmetry_Pilot,2022.1.3,Win32,60.0240096,62bbe60bf3d75ef465d3e404,0,2,2,65,1,onethree,,,,,,,,,,,,,,,,,,,,,,,,,,,,,,,,,,,,,,,,,,,,,,,,,,,,,,,,,,,,,,,,,,,,,,,,,,,,,,,,,,,,,,,,,,,,,,,,,,,,,,,,,,,,,,,,,,,,,,,,,,,,,,,,,,,,,,,,,,,,,,,,,,,,,,,,
,,,,,,5fe24f4dcb7697decd41db77,62bbfc731293aa7ae4dc47f9,2022-06-29_09h25.38.278,Colour_Asymmetry_Pilot,2022.1.3,Win32,60.0240096,62bbe60bf3d75ef465d3e404,0,3,3,102,1,fourtwo,,,,,,,,,,,,,,,,,,,,,,,,,,,,,,,,,,,,,,,,,,,,,,,,,,,,,,,,,,,,,,,,,,,,,,,,,,,,,,,,,,,,,,,,,,,,,,,,,,,,,,,,,,,,,,,,,,,,,,,,,,,,,,,,,,,,,,,,,,,,,,,,,,,,,,,,
,,,,,,5fe24f4dcb7697decd41db77,62bbfc731293aa7ae4dc47f9,2022-06-29_09h25.38.278,Colour_Asymmetry_Pilot,2022.1.3,Win32,60.0240096,62bbe60bf3d75ef465d3e404,0,4,4,57,1,onethree,,,,,,,,,,,,,,,,,,,,,,,,,,,,,,,,,,,,,,,,,,,,,,,,,,,,,,,,,,,,,,,,,,,,,,,,,,,,,,,,,,,,,,,,,,,,,,,,,,,,,,,,,,,,,,,,,,,,,,,,,,,,,,,,,,,,,,,,,,,,,,,,,,,,,,,,
,,,,,,5fe24f4dcb7697decd41db77,62bbfc731293aa7ae4dc47f9,2022-06-29_09h25.38.278,Colour_Asymmetry_Pilot,2022.1.3,Win32,60.0240096,62bbe60bf3d75ef465d3e404,0,5,5,93,1,threefour,,,,,,,,,,,,,,,,,,,,,,,,,,,,,,,,,,,,,,,,,,,,,,,,,,,,,,,,,,,,,,,,,,,,,,,,,,,,,,,,,,,,,,,,,,,,,,,,,,,,,,,,,,,,,,,,,,,,,,,,,,,,,,,,,,,,,,,,,,,,,,,,,,,,,,,,
,,,,,,5fe24f4dcb7697decd41db77,62bbfc731293aa7ae4dc47f9,2022-06-29_09h25.38.278,Colour_Asymmetry_Pilot,2022.1.3,Win32,60.0240096,62bbe60bf3d75ef465d3e404,0,6,6,98,1,twoone,,,,,,,,,,,,,,,,,,,,,,,,,,,,,,,,,,,,,,,,,,,,,,,,,,,,,,,,,,,,,,,,,,,,,,,,,,,,,,,,,,,,,,,,,,,,,,,,,,,,,,,,,,,,,,,,,,,,,,,,,,,,,,,,,,,,,,,,,,,,,,,,,,,,,,,,
,,,,,,5fe24f4dcb7697decd41db77,62bbfc731293aa7ae4dc47f9,2022-06-29_09h25.38.278,Colour_Asymmetry_Pilot,2022.1.3,Win32,60.0240096,62bbe60bf3d75ef465d3e404,0,7,7,81,1,onethree,,,,,,,,,,,,,,,,,,,,,,,,,,,,,,,,,,,,,,,,,,,,,,,,,,,,,,,,,,,,,,,,,,,,,,,,,,,,,,,,,,,,,,,,,,,,,,,,,,,,,,,,,,,,,,,,,,,,,,,,,,,,,,,,,,,,,,,,,,,,,,,,,,,,,,,,
,,,,,,5fe24f4dcb7697decd41db77,62bbfc731293aa7ae4dc47f9,2022-06-29_09h25.38.278,Colour_Asymmetry_Pilot,2022.1.3,Win32,60.0240096,62bbe60bf3d75ef465d3e404,0,8,8,107,1,twofour,,,,,,,,,,,,,,,,,,,,,,,,,,,,,,,,,,,,,,,,,,,,,,,,,,,,,,,,,,,,,,,,,,,,,,,,,,,,,,,,,,,,,,,,,,,,,,,,,,,,,,,,,,,,,,,,,,,,,,,,,,,,,,,,,,,,,,,,,,,,,,,,,,,,,,,,
,,,,,,5fe24f4dcb7697decd41db77,62bbfc731293aa7ae4dc47f9,2022-06-29_09h25.38.278,Colour_Asymmetry_Pilot,2022.1.3,Win32,60.0240096,62bbe60bf3d75ef465d3e404,0,9,9,91,1,twofour,,,,,,,,,,,,,,,,,,,,,,,,,,,,,,,,,,,,,,,,,,,,,,,,,,,,,,,,,,,,,,,,,,,,,,,,,,,,,,,,,,,,,,,,,,,,,,,,,,,,,,,,,,,,,,,,,,,,,,,,,,,,,,,,,,,,,,,,,,,,,,,,,,,,,,,,
,,,,,,5fe24f4dcb7697decd41db77,62bbfc731293aa7ae4dc47f9,2022-06-29_09h25.38.278,Colour_Asymmetry_Pilot,2022.1.3,Win32,60.0240096,62bbe60bf3d75ef465d3e404,0,10,10,77,1,threefour,,,,,,,,,,,,,,,,,,,,,,,,,,,,,,,,,,,,,,,,,,,,,,,,,,,,,,,,,,,,,,,,,,,,,,,,,,,,,,,,,,,,,,,,,,,,,,,,,,,,,,,,,,,,,,,,,,,,,,,,,,,,,,,,,,,,,,,,,,,,,,,,,,,,,,,,
,,,,,,5fe24f4dcb7697decd41db77,62bbfc731293aa7ae4dc47f9,2022-06-29_09h25.38.278,Colour_Asymmetry_Pilot,2022.1.3,Win32,60.0240096,62bbe60bf3d75ef465d3e404,0,11,11,55,1,fourthree,,,,,,,,,,,,,,,,,,,,,,,,,,,,,,,,,,,,,,,,,,,,,,,,,,,,,,,,,,,,,,,,,,,,,,,,,,,,,,,,,,,,,,,,,,,,,,,,,,,,,,,,,,,,,,,,,,,,,,,,,,,,,,,,,,,,,,,,,,,,,,,,,,,,,,,,
,,,,,,5fe24f4dcb7697decd41db77,62bbfc731293aa7ae4dc47f9,2022-06-29_09h25.38.278,Colour_Asymmetry_Pilot,2022.1.3,Win32,60.0240096,62bbe60bf3d75ef465d3e404,0,12,12,106,1,twoone,,,,,,,,,,,,,,,,,,,,,,,,,,,,,,,,,,,,,,,,,,,,,,,,,,,,,,,,,,,,,,,,,,,,,,,,,,,,,,,,,,,,,,,,,,,,,,,,,,,,,,,,,,,,,,,,,,,,,,,,,,,,,,,,,,,,,,,,,,,,,,,,,,,,,,,,
,,,,,,5fe24f4dcb7697decd41db77,62bbfc731293aa7ae4dc47f9,2022-06-29_09h25.38.278,Colour_Asymmetry_Pilot,2022.1.3,Win32,60.0240096,62bbe60bf3d75ef465d3e404,0,13,13,160,1,onetwo,,,,,,,,,,,,,,,,,,,,,,,,,,,,,,,,,,,,,,,,,,,,,,,,,,,,,,,,,,,,,,,,,,,,,,,,,,,,,,,,,,,,,,,,,,,,,,,,,,,,,,,,,,,,,,,,,,,,,,,,,,,,,,,,,,,,,,,,,,,,,,,,,,,,,,,,
,,,,,,5fe24f4dcb7697decd41db77,62bbfc731293aa7ae4dc47f9,2022-06-29_09h25.38.278,Colour_Asymmetry_Pilot,2022.1.3,Win32,60.0240096,62bbe60bf3d75ef465d3e404,0,14,14,76,1,threeone,,,,,,,,,,,,,,,,,,,,,,,,,,,,,,,,,,,,,,,,,,,,,,,,,,,,,,,,,,,,,,,,,,,,,,,,,,,,,,,,,,,,,,,,,,,,,,,,,,,,,,,,,,,,,,,,,,,,,,,,,,,,,,,,,,,,,,,,,,,,,,,,,,,,,,,,
,,,,,,5fe24f4dcb7697decd41db77,62bbfc731293aa7ae4dc47f9,2022-06-29_09h25.38.278,Colour_Asymmetry_Pilot,2022.1.3,Win32,60.0240096,62bbe60bf3d75ef465d3e404,0,15,15,79,1,fourthree,,,,,,,,,,,,,,,,,,,,,,,,,,,,,,,,,,,,,,,,,,,,,,,,,,,,,,,,,,,,,,,,,,,,,,,,,,,,,,,,,,,,,,,,,,,,,,,,,,,,,,,,,,,,,,,,,,,,,,,,,,,,,,,,,,,,,,,,,,,,,,,,,,,,,,,,
,,,,,,5fe24f4dcb7697decd41db77,62bbfc731293aa7ae4dc47f9,2022-06-29_09h25.38.278,Colour_Asymmetry_Pilot,2022.1.3,Win32,60.0240096,62bbe60bf3d75ef465d3e404,0,16,16,54,1,fourtwo,,,,,,,,,,,,,,,,,,,,,,,,,,,,,,,,,,,,,,,,,,,,,,,,,,,,,,,,,,,,,,,,,,,,,,,,,,,,,,,,,,,,,,,,,,,,,,,,,,,,,,,,,,,,,,,,,,,,,,,,,,,,,,,,,,,,,,,,,,,,,,,,,,,,,,,,
,,,,,,5fe24f4dcb7697decd41db77,62bbfc731293aa7ae4dc47f9,2022-06-29_09h25.38.278,Colour_Asymmetry_Pilot,2022.1.3,Win32,60.0240096,62bbe60bf3d75ef465d3e404,0,17,17,154,1,twoone,,,,,,,,,,,,,,,,,,,,,,,,,,,,,,,,,,,,,,,,,,,,,,,,,,,,,,,,,,,,,,,,,,,,,,,,,,,,,,,,,,,,,,,,,,,,,,,,,,,,,,,,,,,,,,,,,,,,,,,,,,,,,,,,,,,,,,,,,,,,,,,,,,,,,,,,
,,,,,,5fe24f4dcb7697decd41db77,62bbfc731293aa7ae4dc47f9,2022-06-29_09h25.38.278,Colour_Asymmetry_Pilot,2022.1.3,Win32,60.0240096,62bbe60bf3d75ef465d3e404,0,18,18,64,1,onetwo,,,,,,,,,,,,,,,,,,,,,,,,,,,,,,,,,,,,,,,,,,,,,,,,,,,,,,,,,,,,,,,,,,,,,,,,,,,,,,,,,,,,,,,,,,,,,,,,,,,,,,,,,,,,,,,,,,,,,,,,,,,,,,,,,,,,,,,,,,,,,,,,,,,,,,,,
,,,,,,5fe24f4dcb7697decd41db77,62bbfc731293aa7ae4dc47f9,2022-06-29_09h25.38.278,Colour_Asymmetry_Pilot,2022.1.3,Win32,60.0240096,62bbe60bf3d75ef465d3e404,0,19,19,49,1,onethree,,,,,,,,,,,,,,,,,,,,,,,,,,,,,,,,,,,,,,,,,,,,,,,,,,,,,,,,,,,,,,,,,,,,,,,,,,,,,,,,,,,,,,,,,,,,,,,,,,,,,,,,,,,,,,,,,,,,,,,,,,,,,,,,,,,,,,,,,,,,,,,,,,,,,,,,
,,,,,,5fe24f4dcb7697decd41db77,62bbfc731293aa7ae4dc47f9,2022-06-29_09h25.38.278,Colour_Asymmetry_Pilot,2022.1.3,Win32,60.0240096,62bbe60bf3d75ef465d3e404,0,20,20,97,1,onethree,,,,,,,,,,,,,,,,,,,,,,,,,,,,,,,,,,,,,,,,,,,,,,,,,,,,,,,,,,,,,,,,,,,,,,,,,,,,,,,,,,,,,,,,,,,,,,,,,,,,,,,,,,,,,,,,,,,,,,,,,,,,,,,,,,,,,,,,,,,,,,,,,,,,,,,,
,,,,,,5fe24f4dcb7697decd41db77,62bbfc731293aa7ae4dc47f9,2022-06-29_09h25.38.278,Colour_Asymmetry_Pilot,2022.1.3,Win32,60.0240096,62bbe60bf3d75ef465d3e404,0,21,21,52,1,threeone,,,,,,,,,,,,,,,,,,,,,,,,,,,,,,,,,,,,,,,,,,,,,,,,,,,,,,,,,,,,,,,,,,,,,,,,,,,,,,,,,,,,,,,,,,,,,,,,,,,,,,,,,,,,,,,,,,,,,,,,,,,,,,,,,,,,,,,,,,,,,,,,,,,,,,,,
,,,,,,5fe24f4dcb7697decd41db77,62bbfc731293aa7ae4dc47f9,2022-06-29_09h25.38.278,Colour_Asymmetry_Pilot,2022.1.3,Win32,60.0240096,62bbe60bf3d75ef465d3e404,0,22,22,72,1,onetwo,,,,,,,,,,,,,,,,,,,,,,,,,,,,,,,,,,,,,,,,,,,,,,,,,,,,,,,,,,,,,,,,,,,,,,,,,,,,,,,,,,,,,,,,,,,,,,,,,,,,,,,,,,,,,,,,,,,,,,,,,,,,,,,,,,,,,,,,,,,,,,,,,,,,,,,,
,,,,,,5fe24f4dcb7697decd41db77,62bbfc731293aa7ae4dc47f9,2022-06-29_09h25.38.278,Colour_Asymmetry_Pilot,2022.1.3,Win32,60.0240096,62bbe60bf3d75ef465d3e404,0,23,23,117,1,threefour,,,,,,,,,,,,,,,,,,,,,,,,,,,,,,,,,,,,,,,,,,,,,,,,,,,,,,,,,,,,,,,,,,,,,,,,,,,,,,,,,,,,,,,,,,,,,,,,,,,,,,,,,,,,,,,,,,,,,,,,,,,,,,,,,,,,,,,,,,,,,,,,,,,,,,,,
,,,,,,5fe24f4dcb7697decd41db77,62bbfc731293aa7ae4dc47f9,2022-06-29_09h25.38.278,Colour_Asymmetry_Pilot,2022.1.3,Win32,60.0240096,62bbe60bf3d75ef465d3e404,0,24,24,109,1,threefour,,,,,,,,,,,,,,,,,,,,,,,,,,,,,,,,,,,,,,,,,,,,,,,,,,,,,,,,,,,,,,,,,,,,,,,,,,,,,,,,,,,,,,,,,,,,,,,,,,,,,,,,,,,,,,,,,,,,,,,,,,,,,,,,,,,,,,,,,,,,,,,,,,,,,,,,
,,,,,,5fe24f4dcb7697decd41db77,62bbfc731293aa7ae4dc47f9,2022-06-29_09h25.38.278,Colour_Asymmetry_Pilot,2022.1.3,Win32,60.0240096,62bbe60bf3d75ef465d3e404,0,25,25,63,1,fourthree,,,,,,,,,,,,,,,,,,,,,,,,,,,,,,,,,,,,,,,,,,,,,,,,,,,,,,,,,,,,,,,,,,,,,,,,,,,,,,,,,,,,,,,,,,,,,,,,,,,,,,,,,,,,,,,,,,,,,,,,,,,,,,,,,,,,,,,,,,,,,,,,,,,,,,,,
,,,,,,5fe24f4dcb7697decd41db77,62bbfc731293aa7ae4dc47f9,2022-06-29_09h25.38.278,Colour_Asymmetry_Pilot,2022.1.3,Win32,60.0240096,62bbe60bf3d75ef465d3e404,0,26,26,89,1,onethree,,,,,,,,,,,,,,,,,,,,,,,,,,,,,,,,,,,,,,,,,,,,,,,,,,,,,,,,,,,,,,,,,,,,,,,,,,,,,,,,,,,,,,,,,,,,,,,,,,,,,,,,,,,,,,,,,,,,,,,,,,,,,,,,,,,,,,,,,,,,,,,,,,,,,,,,
,,,,,,5fe24f4dcb7697decd41db77,62bbfc731293aa7ae4dc47f9,2022-06-29_09h25.38.278,Colour_Asymmetry_Pilot,2022.1.3,Win32,60.0240096,62bbe60bf3d75ef465d3e404,0,27,27,13,1,threefour,,,,,,,,,,,,,,,,,,,,,,,,,,,,,,,,,,,,,,,,,,,,,,,,,,,,,,,,,,,,,,,,,,,,,,,,,,,,,,,,,,,,,,,,,,,,,,,,,,,,,,,,,,,,,,,,,,,,,,,,,,,,,,,,,,,,,,,,,,,,,,,,,,,,,,,,
,,,,,,5fe24f4dcb7697decd41db77,62bbfc731293aa7ae4dc47f9,2022-06-29_09h25.38.278,Colour_Asymmetry_Pilot,2022.1.3,Win32,60.0240096,62bbe60bf3d75ef465d3e404,0,28,28,121,1,onethree,,,,,,,,,,,,,,,,,,,,,,,,,,,,,,,,,,,,,,,,,,,,,,,,,,,,,,,,,,,,,,,,,,,,,,,,,,,,,,,,,,,,,,,,,,,,,,,,,,,,,,,,,,,,,,,,,,,,,,,,,,,,,,,,,,,,,,,,,,,,,,,,,,,,,,,,
,,,,,,5fe24f4dcb7697decd41db77,62bbfc731293aa7ae4dc47f9,2022-06-29_09h25.38.278,Colour_Asymmetry_Pilot,2022.1.3,Win32,60.0240096,62bbe60bf3d75ef465d3e404,0,29,29,34,1,twoone,,,,,,,,,,,,,,,,,,,,,,,,,,,,,,,,,,,,,,,,,,,,,,,,,,,,,,,,,,,,,,,,,,,,,,,,,,,,,,,,,,,,,,,,,,,,,,,,,,,,,,,,,,,,,,,,,,,,,,,,,,,,,,,,,,,,,,,,,,,,,,,,,,,,,,,,
,,,,,,5fe24f4dcb7697decd41db77,62bbfc731293aa7ae4dc47f9,2022-06-29_09h25.38.278,Colour_Asymmetry_Pilot,2022.1.3,Win32,60.0240096,62bbe60bf3d75ef465d3e404,0,30,30,111,1,fourthree,,,,,,,,,,,,,,,,,,,,,,,,,,,,,,,,,,,,,,,,,,,,,,,,,,,,,,,,,,,,,,,,,,,,,,,,,,,,,,,,,,,,,,,,,,,,,,,,,,,,,,,,,,,,,,,,,,,,,,,,,,,,,,,,,,,,,,,,,,,,,,,,,,,,,,,,
,,,,,,5fe24f4dcb7697decd41db77,62bbfc731293aa7ae4dc47f9,2022-06-29_09h25.38.278,Colour_Asymmetry_Pilot,2022.1.3,Win32,60.0240096,62bbe60bf3d75ef465d3e404,0,31,31,44,1,threeone,,,,,,,,,,,,,,,,,,,,,,,,,,,,,,,,,,,,,,,,,,,,,,,,,,,,,,,,,,,,,,,,,,,,,,,,,,,,,,,,,,,,,,,,,,,,,,,,,,,,,,,,,,,,,,,,,,,,,,,,,,,,,,,,,,,,,,,,,,,,,,,,,,,,,,,,
,,,,,,5fe24f4dcb7697decd41db77,62bbfc731293aa7ae4dc47f9,2022-06-29_09h25.38.278,Colour_Asymmetry_Pilot,2022.1.3,Win32,60.0240096,62bbe60bf3d75ef465d3e404,0,32,32,101,1,threefour,,,,,,,,,,,,,,,,,,,,,,,,,,,,,,,,,,,,,,,,,,,,,,,,,,,,,,,,,,,,,,,,,,,,,,,,,,,,,,,,,,,,,,,,,,,,,,,,,,,,,,,,,,,,,,,,,,,,,,,,,,,,,,,,,,,,,,,,,,,,,,,,,,,,,,,,
,,,,,,5fe24f4dcb7697decd41db77,62bbfc731293aa7ae4dc47f9,2022-06-29_09h25.38.278,Colour_Asymmetry_Pilot,2022.1.3,Win32,60.0240096,62bbe60bf3d75ef465d3e404,0,33,33,112,1,onetwo,,,,,,,,,,,,,,,,,,,,,,,,,,,,,,,,,,,,,,,,,,,,,,,,,,,,,,,,,,,,,,,,,,,,,,,,,,,,,,,,,,,,,,,,,,,,,,,,,,,,,,,,,,,,,,,,,,,,,,,,,,,,,,,,,,,,,,,,,,,,,,,,,,,,,,,,
,,,,,,5fe24f4dcb7697decd41db77,62bbfc731293aa7ae4dc47f9,2022-06-29_09h25.38.278,Colour_Asymmetry_Pilot,2022.1.3,Win32,60.0240096,62bbe60bf3d75ef465d3e404,0,34,34,7,1,fourthree,,,,,,,,,,,,,,,,,,,,,,,,,,,,,,,,,,,,,,,,,,,,,,,,,,,,,,,,,,,,,,,,,,,,,,,,,,,,,,,,,,,,,,,,,,,,,,,,,,,,,,,,,,,,,,,,,,,,,,,,,,,,,,,,,,,,,,,,,,,,,,,,,,,,,,,,
,,,,,,5fe24f4dcb7697decd41db77,62bbfc731293aa7ae4dc47f9,2022-06-29_09h25.38.278,Colour_Asymmetry_Pilot,2022.1.3,Win32,60.0240096,62bbe60bf3d75ef465d3e404,0,35,35,9,1,onethree,,,,,,,,,,,,,,,,,,,,,,,,,,,,,,,,,,,,,,,,,,,,,,,,,,,,,,,,,,,,,,,,,,,,,,,,,,,,,,,,,,,,,,,,,,,,,,,,,,,,,,,,,,,,,,,,,,,,,,,,,,,,,,,,,,,,,,,,,,,,,,,,,,,,,,,,
,,,,,,5fe24f4dcb7697decd41db77,62bbfc731293aa7ae4dc47f9,2022-06-29_09h25.38.278,Colour_Asymmetry_Pilot,2022.1.3,Win32,60.0240096,62bbe60bf3d75ef465d3e404,0,36,36,94,1,fourtwo,,,,,,,,,,,,,,,,,,,,,,,,,,,,,,,,,,,,,,,,,,,,,,,,,,,,,,,,,,,,,,,,,,,,,,,,,,,,,,,,,,,,,,,,,,,,,,,,,,,,,,,,,,,,,,,,,,,,,,,,,,,,,,,,,,,,,,,,,,,,,,,,,,,,,,,,
,,,,,,5fe24f4dcb7697decd41db77,62bbfc731293aa7ae4dc47f9,2022-06-29_09h25.38.278,Colour_Asymmetry_Pilot,2022.1.3,Win32,60.0240096,62bbe60bf3d75ef465d3e404,0,37,37,123,1,twofour,,,,,,,,,,,,,,,,,,,,,,,,,,,,,,,,,,,,,,,,,,,,,,,,,,,,,,,,,,,,,,,,,,,,,,,,,,,,,,,,,,,,,,,,,,,,,,,,,,,,,,,,,,,,,,,,,,,,,,,,,,,,,,,,,,,,,,,,,,,,,,,,,,,,,,,,
,,,,,,5fe24f4dcb7697decd41db77,62bbfc731293aa7ae4dc47f9,2022-06-29_09h25.38.278,Colour_Asymmetry_Pilot,2022.1.3,Win32,60.0240096,62bbe60bf3d75ef465d3e404,0,38,38,33,1,onethree,,,,,,,,,,,,,,,,,,,,,,,,,,,,,,,,,,,,,,,,,,,,,,,,,,,,,,,,,,,,,,,,,,,,,,,,,,,,,,,,,,,,,,,,,,,,,,,,,,,,,,,,,,,,,,,,,,,,,,,,,,,,,,,,,,,,,,,,,,,,,,,,,,,,,,,,
,,,,,,5fe24f4dcb7697decd41db77,62bbfc731293aa7ae4dc47f9,2022-06-29_09h25.38.278,Colour_Asymmetry_Pilot,2022.1.3,Win32,60.0240096,62bbe60bf3d75ef465d3e404,0,39,39,148,1,threeone,,,,,,,,,,,,,,,,,,,,,,,,,,,,,,,,,,,,,,,,,,,,,,,,,,,,,,,,,,,,,,,,,,,,,,,,,,,,,,,,,,,,,,,,,,,,,,,,,,,,,,,,,,,,,,,,,,,,,,,,,,,,,,,,,,,,,,,,,,,,,,,,,,,,,,,,
,,,,,,5fe24f4dcb7697decd41db77,62bbfc731293aa7ae4dc47f9,2022-06-29_09h25.38.278,Colour_Asymmetry_Pilot,2022.1.3,Win32,60.0240096,62bbe60bf3d75ef465d3e404,0,40,40,22,1,fourtwo,,,,,,,,,,,,,,,,,,,,,,,,,,,,,,,,,,,,,,,,,,,,,,,,,,,,,,,,,,,,,,,,,,,,,,,,,,,,,,,,,,,,,,,,,,,,,,,,,,,,,,,,,,,,,,,,,,,,,,,,,,,,,,,,,,,,,,,,,,,,,,,,,,,,,,,,
,,,,,,5fe24f4dcb7697decd41db77,62bbfc731293aa7ae4dc47f9,2022-06-29_09h25.38.278,Colour_Asymmetry_Pilot,2022.1.3,Win32,60.0240096,62bbe60bf3d75ef465d3e404,0,41,41,30,1,fourtwo,,,,,,,,,,,,,,,,,,,,,,,,,,,,,,,,,,,,,,,,,,,,,,,,,,,,,,,,,,,,,,,,,,,,,,,,,,,,,,,,,,,,,,,,,,,,,,,,,,,,,,,,,,,,,,,,,,,,,,,,,,,,,,,,,,,,,,,,,,,,,,,,,,,,,,,,
,,,,,,5fe24f4dcb7697decd41db77,62bbfc731293aa7ae4dc47f9,2022-06-29_09h25.38.278,Colour_Asymmetry_Pilot,2022.1.3,Win32,60.0240096,62bbe60bf3d75ef465d3e404,0,42,42,151,1,fourthree,,,,,,,,,,,,,,,,,,,,,,,,,,,,,,,,,,,,,,,,,,,,,,,,,,,,,,,,,,,,,,,,,,,,,,,,,,,,,,,,,,,,,,,,,,,,,,,,,,,,,,,,,,,,,,,,,,,,,,,,,,,,,,,,,,,,,,,,,,,,,,,,,,,,,,,,
,,,,,,5fe24f4dcb7697decd41db77,62bbfc731293aa7ae4dc47f9,2022-06-29_09h25.38.278,Colour_Asymmetry_Pilot,2022.1.3,Win32,60.0240096,62bbe60bf3d75ef465d3e404,0,43,43,17,1,onethree,,,,,,,,,,,,,,,,,,,,,,,,,,,,,,,,,,,,,,,,,,,,,,,,,,,,,,,,,,,,,,,,,,,,,,,,,,,,,,,,,,,,,,,,,,,,,,,,,,,,,,,,,,,,,,,,,,,,,,,,,,,,,,,,,,,,,,,,,,,,,,,,,,,,,,,,
,,,,,,5fe24f4dcb7697decd41db77,62bbfc731293aa7ae4dc47f9,2022-06-29_09h25.38.278,Colour_Asymmetry_Pilot,2022.1.3,Win32,60.0240096,62bbe60bf3d75ef465d3e404,0,44,44,159,1,fourthree,,,,,,,,,,,,,,,,,,,,,,,,,,,,,,,,,,,,,,,,,,,,,,,,,,,,,,,,,,,,,,,,,,,,,,,,,,,,,,,,,,,,,,,,,,,,,,,,,,,,,,,,,,,,,,,,,,,,,,,,,,,,,,,,,,,,,,,,,,,,,,,,,,,,,,,,
,,,,,,5fe24f4dcb7697decd41db77,62bbfc731293aa7ae4dc47f9,2022-06-29_09h25.38.278,Colour_Asymmetry_Pilot,2022.1.3,Win32,60.0240096,62bbe60bf3d75ef465d3e404,0,45,45,153,1,onethree,,,,,,,,,,,,,,,,,,,,,,,,,,,,,,,,,,,,,,,,,,,,,,,,,,,,,,,,,,,,,,,,,,,,,,,,,,,,,,,,,,,,,,,,,,,,,,,,,,,,,,,,,,,,,,,,,,,,,,,,,,,,,,,,,,,,,,,,,,,,,,,,,,,,,,,,
,,,,,,5fe24f4dcb7697decd41db77,62bbfc731293aa7ae4dc47f9,2022-06-29_09h25.38.278,Colour_Asymmetry_Pilot,2022.1.3,Win32,60.0240096,62bbe60bf3d75ef465d3e404,0,46,46,70,1,fourtwo,,,,,,,,,,,,,,,,,,,,,,,,,,,,,,,,,,,,,,,,,,,,,,,,,,,,,,,,,,,,,,,,,,,,,,,,,,,,,,,,,,,,,,,,,,,,,,,,,,,,,,,,,,,,,,,,,,,,,,,,,,,,,,,,,,,,,,,,,,,,,,,,,,,,,,,,
,,,,,,5fe24f4dcb7697decd41db77,62bbfc731293aa7ae4dc47f9,2022-06-29_09h25.38.278,Colour_Asymmetry_Pilot,2022.1.3,Win32,60.0240096,62bbe60bf3d75ef465d3e404,0,47,47,19,1,twofour,,,,,,,,,,,,,,,,,,,,,,,,,,,,,,,,,,,,,,,,,,,,,,,,,,,,,,,,,,,,,,,,,,,,,,,,,,,,,,,,,,,,,,,,,,,,,,,,,,,,,,,,,,,,,,,,,,,,,,,,,,,,,,,,,,,,,,,,,,,,,,,,,,,,,,,,
,,,,,,5fe24f4dcb7697decd41db77,62bbfc731293aa7ae4dc47f9,2022-06-29_09h25.38.278,Colour_Asymmetry_Pilot,2022.1.3,Win32,60.0240096,62bbe60bf3d75ef465d3e404,0,48,48,126,1,fourtwo,,,,,,,,,,,,,,,,,,,,,,,,,,,,,,,,,,,,,,,,,,,,,,,,,,,,,,,,,,,,,,,,,,,,,,,,,,,,,,,,,,,,,,,,,,,,,,,,,,,,,,,,,,,,,,,,,,,,,,,,,,,,,,,,,,,,,,,,,,,,,,,,,,,,,,,,
,,,,,,5fe24f4dcb7697decd41db77,62bbfc731293aa7ae4dc47f9,2022-06-29_09h25.38.278,Colour_Asymmetry_Pilot,2022.1.3,Win32,60.0240096,62bbe60bf3d75ef465d3e404,0,49,49,21,1,threefour,,,,,,,,,,,,,,,,,,,,,,,,,,,,,,,,,,,,,,,,,,,,,,,,,,,,,,,,,,,,,,,,,,,,,,,,,,,,,,,,,,,,,,,,,,,,,,,,,,,,,,,,,,,,,,,,,,,,,,,,,,,,,,,,,,,,,,,,,,,,,,,,,,,,,,,,
,,,,,,5fe24f4dcb7697decd41db77,62bbfc731293aa7ae4dc47f9,2022-06-29_09h25.38.278,Colour_Asymmetry_Pilot,2022.1.3,Win32,60.0240096,62bbe60bf3d75ef465d3e404,0,50,50,11,1,twofour,,,,,,,,,,,,,,,,,,,,,,,,,,,,,,,,,,,,,,,,,,,,,,,,,,,,,,,,,,,,,,,,,,,,,,,,,,,,,,,,,,,,,,,,,,,,,,,,,,,,,,,,,,,,,,,,,,,,,,,,,,,,,,,,,,,,,,,,,,,,,,,,,,,,,,,,
,,,,,,5fe24f4dcb7697decd41db77,62bbfc731293aa7ae4dc47f9,2022-06-29_09h25.38.278,Colour_Asymmetry_Pilot,2022.1.3,Win32,60.0240096,62bbe60bf3d75ef465d3e404,0,51,51,100,1,threeone,,,,,,,,,,,,,,,,,,,,,,,,,,,,,,,,,,,,,,,,,,,,,,,,,,,,,,,,,,,,,,,,,,,,,,,,,,,,,,,,,,,,,,,,,,,,,,,,,,,,,,,,,,,,,,,,,,,,,,,,,,,,,,,,,,,,,,,,,,,,,,,,,,,,,,,,
,,,,,,5fe24f4dcb7697decd41db77,62bbfc731293aa7ae4dc47f9,2022-06-29_09h25.38.278,Colour_Asymmetry_Pilot,2022.1.3,Win32,60.0240096,62bbe60bf3d75ef465d3e404,0,52,52,114,1,twoone,,,,,,,,,,,,,,,,,,,,,,,,,,,,,,,,,,,,,,,,,,,,,,,,,,,,,,,,,,,,,,,,,,,,,,,,,,,,,,,,,,,,,,,,,,,,,,,,,,,,,,,,,,,,,,,,,,,,,,,,,,,,,,,,,,,,,,,,,,,,,,,,,,,,,,,,
,,,,,,5fe24f4dcb7697decd41db77,62bbfc731293aa7ae4dc47f9,2022-06-29_09h25.38.278,Colour_Asymmetry_Pilot,2022.1.3,Win32,60.0240096,62bbe60bf3d75ef465d3e404,0,53,53,41,1,onethree,,,,,,,,,,,,,,,,,,,,,,,,,,,,,,,,,,,,,,,,,,,,,,,,,,,,,,,,,,,,,,,,,,,,,,,,,,,,,,,,,,,,,,,,,,,,,,,,,,,,,,,,,,,,,,,,,,,,,,,,,,,,,,,,,,,,,,,,,,,,,,,,,,,,,,,,
,,,,,,5fe24f4dcb7697decd41db77,62bbfc731293aa7ae4dc47f9,2022-06-29_09h25.38.278,Colour_Asymmetry_Pilot,2022.1.3,Win32,60.0240096,62bbe60bf3d75ef465d3e404,0,54,54,158,1,fourtwo,,,,,,,,,,,,,,,,,,,,,,,,,,,,,,,,,,,,,,,,,,,,,,,,,,,,,,,,,,,,,,,,,,,,,,,,,,,,,,,,,,,,,,,,,,,,,,,,,,,,,,,,,,,,,,,,,,,,,,,,,,,,,,,,,,,,,,,,,,,,,,,,,,,,,,,,
,,,,,,5fe24f4dcb7697decd41db77,62bbfc731293aa7ae4dc47f9,2022-06-29_09h25.38.278,Colour_Asymmetry_Pilot,2022.1.3,Win32,60.0240096,62bbe60bf3d75ef465d3e404,0,55,55,71,1,fourthree,,,,,,,,,,,,,,,,,,,,,,,,,,,,,,,,,,,,,,,,,,,,,,,,,,,,,,,,,,,,,,,,,,,,,,,,,,,,,,,,,,,,,,,,,,,,,,,,,,,,,,,,,,,,,,,,,,,,,,,,,,,,,,,,,,,,,,,,,,,,,,,,,,,,,,,,
,,,,,,5fe24f4dcb7697decd41db77,62bbfc731293aa7ae4dc47f9,2022-06-29_09h25.38.278,Colour_Asymmetry_Pilot,2022.1.3,Win32,60.0240096,62bbe60bf3d75ef465d3e404,0,56,56,43,1,twofour,,,,,,,,,,,,,,,,,,,,,,,,,,,,,,,,,,,,,,,,,,,,,,,,,,,,,,,,,,,,,,,,,,,,,,,,,,,,,,,,,,,,,,,,,,,,,,,,,,,,,,,,,,,,,,,,,,,,,,,,,,,,,,,,,,,,,,,,,,,,,,,,,,,,,,,,
,,,,,,5fe24f4dcb7697decd41db77,62bbfc731293aa7ae4dc47f9,2022-06-29_09h25.38.278,Colour_Asymmetry_Pilot,2022.1.3,Win32,60.0240096,62bbe60bf3d75ef465d3e404,0,57,57,8,1,onetwo,,,,,,,,,,,,,,,,,,,,,,,,,,,,,,,,,,,,,,,,,,,,,,,,,,,,,,,,,,,,,,,,,,,,,,,,,,,,,,,,,,,,,,,,,,,,,,,,,,,,,,,,,,,,,,,,,,,,,,,,,,,,,,,,,,,,,,,,,,,,,,,,,,,,,,,,
,,,,,,5fe24f4dcb7697decd41db77,62bbfc731293aa7ae4dc47f9,2022-06-29_09h25.38.278,Colour_Asymmetry_Pilot,2022.1.3,Win32,60.0240096,62bbe60bf3d75ef465d3e404,0,58,58,92,1,threeone,,,,,,,,,,,,,,,,,,,,,,,,,,,,,,,,,,,,,,,,,,,,,,,,,,,,,,,,,,,,,,,,,,,,,,,,,,,,,,,,,,,,,,,,,,,,,,,,,,,,,,,,,,,,,,,,,,,,,,,,,,,,,,,,,,,,,,,,,,,,,,,,,,,,,,,,
,,,,,,5fe24f4dcb7697decd41db77,62bbfc731293aa7ae4dc47f9,2022-06-29_09h25.38.278,Colour_Asymmetry_Pilot,2022.1.3,Win32,60.0240096,62bbe60bf3d75ef465d3e404,0,59,59,96,1,onetwo,,,,,,,,,,,,,,,,,,,,,,,,,,,,,,,,,,,,,,,,,,,,,,,,,,,,,,,,,,,,,,,,,,,,,,,,,,,,,,,,,,,,,,,,,,,,,,,,,,,,,,,,,,,,,,,,,,,,,,,,,,,,,,,,,,,,,,,,,,,,,,,,,,,,,,,,
,,,,,,5fe24f4dcb7697decd41db77,62bbfc731293aa7ae4dc47f9,2022-06-29_09h25.38.278,Colour_Asymmetry_Pilot,2022.1.3,Win32,60.0240096,62bbe60bf3d75ef465d3e404,0,60,60,115,1,twofour,,,,,,,,,,,,,,,,,,,,,,,,,,,,,,,,,,,,,,,,,,,,,,,,,,,,,,,,,,,,,,,,,,,,,,,,,,,,,,,,,,,,,,,,,,,,,,,,,,,,,,,,,,,,,,,,,,,,,,,,,,,,,,,,,,,,,,,,,,,,,,,,,,,,,,,,
,,,,,,5fe24f4dcb7697decd41db77,62bbfc731293aa7ae4dc47f9,2022-06-29_09h25.38.278,Colour_Asymmetry_Pilot,2022.1.3,Win32,60.0240096,62bbe60bf3d75ef465d3e404,0,61,61,45,1,threefour,,,,,,,,,,,,,,,,,,,,,,,,,,,,,,,,,,,,,,,,,,,,,,,,,,,,,,,,,,,,,,,,,,,,,,,,,,,,,,,,,,,,,,,,,,,,,,,,,,,,,,,,,,,,,,,,,,,,,,,,,,,,,,,,,,,,,,,,,,,,,,,,,,,,,,,,
,,,,,,5fe24f4dcb7697decd41db77,62bbfc731293aa7ae4dc47f9,2022-06-29_09h25.38.278,Colour_Asymmetry_Pilot,2022.1.3,Win32,60.0240096,62bbe60bf3d75ef465d3e404,0,62,62,32,1,onetwo,,,,,,,,,,,,,,,,,,,,,,,,,,,,,,,,,,,,,,,,,,,,,,,,,,,,,,,,,,,,,,,,,,,,,,,,,,,,,,,,,,,,,,,,,,,,,,,,,,,,,,,,,,,,,,,,,,,,,,,,,,,,,,,,,,,,,,,,,,,,,,,,,,,,,,,,
,,,,,,5fe24f4dcb7697decd41db77,62bbfc731293aa7ae4dc47f9,2022-06-29_09h25.38.278,Colour_Asymmetry_Pilot,2022.1.3,Win32,60.0240096,62bbe60bf3d75ef465d3e404,0,63,63,135,1,fourthree,,,,,,,,,,,,,,,,,,,,,,,,,,,,,,,,,,,,,,,,,,,,,,,,,,,,,,,,,,,,,,,,,,,,,,,,,,,,,,,,,,,,,,,,,,,,,,,,,,,,,,,,,,,,,,,,,,,,,,,,,,,,,,,,,,,,,,,,,,,,,,,,,,,,,,,,
,,,,,,5fe24f4dcb7697decd41db77,62bbfc731293aa7ae4dc47f9,2022-06-29_09h25.38.278,Colour_Asymmetry_Pilot,2022.1.3,Win32,60.0240096,62bbe60bf3d75ef465d3e404,0,64,64,31,1,fourthree,,,,,,,,,,,,,,,,,,,,,,,,,,,,,,,,,,,,,,,,,,,,,,,,,,,,,,,,,,,,,,,,,,,,,,,,,,,,,,,,,,,,,,,,,,,,,,,,,,,,,,,,,,,,,,,,,,,,,,,,,,,,,,,,,,,,,,,,,,,,,,,,,,,,,,,,
,,,,,,5fe24f4dcb7697decd41db77,62bbfc731293aa7ae4dc47f9,2022-06-29_09h25.38.278,Colour_Asymmetry_Pilot,2022.1.3,Win32,60.0240096,62bbe60bf3d75ef465d3e404,0,65,65,47,1,fourthree,,,,,,,,,,,,,,,,,,,,,,,,,,,,,,,,,,,,,,,,,,,,,,,,,,,,,,,,,,,,,,,,,,,,,,,,,,,,,,,,,,,,,,,,,,,,,,,,,,,,,,,,,,,,,,,,,,,,,,,,,,,,,,,,,,,,,,,,,,,,,,,,,,,,,,,,
,,,,,,5fe24f4dcb7697decd41db77,62bbfc731293aa7ae4dc47f9,2022-06-29_09h25.38.278,Colour_Asymmetry_Pilot,2022.1.3,Win32,60.0240096,62bbe60bf3d75ef465d3e404,0,66,66,118,1,fourtwo,,,,,,,,,,,,,,,,,,,,,,,,,,,,,,,,,,,,,,,,,,,,,,,,,,,,,,,,,,,,,,,,,,,,,,,,,,,,,,,,,,,,,,,,,,,,,,,,,,,,,,,,,,,,,,,,,,,,,,,,,,,,,,,,,,,,,,,,,,,,,,,,,,,,,,,,
,,,,,,5fe24f4dcb7697decd41db77,62bbfc731293aa7ae4dc47f9,2022-06-29_09h25.38.278,Colour_Asymmetry_Pilot,2022.1.3,Win32,60.0240096,62bbe60bf3d75ef465d3e404,0,67,67,108,1,threeone,,,,,,,,,,,,,,,,,,,,,,,,,,,,,,,,,,,,,,,,,,,,,,,,,,,,,,,,,,,,,,,,,,,,,,,,,,,,,,,,,,,,,,,,,,,,,,,,,,,,,,,,,,,,,,,,,,,,,,,,,,,,,,,,,,,,,,,,,,,,,,,,,,,,,,,,
,,,,,,5fe24f4dcb7697decd41db77,62bbfc731293aa7ae4dc47f9,2022-06-29_09h25.38.278,Colour_Asymmetry_Pilot,2022.1.3,Win32,60.0240096,62bbe60bf3d75ef465d3e404,0,68,68,145,1,onethree,,,,,,,,,,,,,,,,,,,,,,,,,,,,,,,,,,,,,,,,,,,,,,,,,,,,,,,,,,,,,,,,,,,,,,,,,,,,,,,,,,,,,,,,,,,,,,,,,,,,,,,,,,,,,,,,,,,,,,,,,,,,,,,,,,,,,,,,,,,,,,,,,,,,,,,,
,,,,,,5fe24f4dcb7697decd41db77,62bbfc731293aa7ae4dc47f9,2022-06-29_09h25.38.278,Colour_Asymmetry_Pilot,2022.1.3,Win32,60.0240096,62bbe60bf3d75ef465d3e404,0,69,69,143,1,fourthree,,,,,,,,,,,,,,,,,,,,,,,,,,,,,,,,,,,,,,,,,,,,,,,,,,,,,,,,,,,,,,,,,,,,,,,,,,,,,,,,,,,,,,,,,,,,,,,,,,,,,,,,,,,,,,,,,,,,,,,,,,,,,,,,,,,,,,,,,,,,,,,,,,,,,,,,
,,,,,,5fe24f4dcb7697decd41db77,62bbfc731293aa7ae4dc47f9,2022-06-29_09h25.38.278,Colour_Asymmetry_Pilot,2022.1.3,Win32,60.0240096,62bbe60bf3d75ef465d3e404,0,70,70,82,1,twoone,,,,,,,,,,,,,,,,,,,,,,,,,,,,,,,,,,,,,,,,,,,,,,,,,,,,,,,,,,,,,,,,,,,,,,,,,,,,,,,,,,,,,,,,,,,,,,,,,,,,,,,,,,,,,,,,,,,,,,,,,,,,,,,,,,,,,,,,,,,,,,,,,,,,,,,,
,,,,,,5fe24f4dcb7697decd41db77,62bbfc731293aa7ae4dc47f9,2022-06-29_09h25.38.278,Colour_Asymmetry_Pilot,2022.1.3,Win32,60.0240096,62bbe60bf3d75ef465d3e404,0,71,71,62,1,fourtwo,,,,,,,,,,,,,,,,,,,,,,,,,,,,,,,,,,,,,,,,,,,,,,,,,,,,,,,,,,,,,,,,,,,,,,,,,,,,,,,,,,,,,,,,,,,,,,,,,,,,,,,,,,,,,,,,,,,,,,,,,,,,,,,,,,,,,,,,,,,,,,,,,,,,,,,,
,,,,,,5fe24f4dcb7697decd41db77,62bbfc731293aa7ae4dc47f9,2022-06-29_09h25.38.278,Colour_Asymmetry_Pilot,2022.1.3,Win32,60.0240096,62bbe60bf3d75ef465d3e404,0,72,72,42,1,twoone,,,,,,,,,,,,,,,,,,,,,,,,,,,,,,,,,,,,,,,,,,,,,,,,,,,,,,,,,,,,,,,,,,,,,,,,,,,,,,,,,,,,,,,,,,,,,,,,,,,,,,,,,,,,,,,,,,,,,,,,,,,,,,,,,,,,,,,,,,,,,,,,,,,,,,,,
,,,,,,5fe24f4dcb7697decd41db77,62bbfc731293aa7ae4dc47f9,2022-06-29_09h25.38.278,Colour_Asymmetry_Pilot,2022.1.3,Win32,60.0240096,62bbe60bf3d75ef465d3e404,0,73,73,10,1,twoone,,,,,,,,,,,,,,,,,,,,,,,,,,,,,,,,,,,,,,,,,,,,,,,,,,,,,,,,,,,,,,,,,,,,,,,,,,,,,,,,,,,,,,,,,,,,,,,,,,,,,,,,,,,,,,,,,,,,,,,,,,,,,,,,,,,,,,,,,,,,,,,,,,,,,,,,
,,,,,,5fe24f4dcb7697decd41db77,62bbfc731293aa7ae4dc47f9,2022-06-29_09h25.38.278,Colour_Asymmetry_Pilot,2022.1.3,Win32,60.0240096,62bbe60bf3d75ef465d3e404,0,74,74,110,1,fourtwo,,,,,,,,,,,,,,,,,,,,,,,,,,,,,,,,,,,,,,,,,,,,,,,,,,,,,,,,,,,,,,,,,,,,,,,,,,,,,,,,,,,,,,,,,,,,,,,,,,,,,,,,,,,,,,,,,,,,,,,,,,,,,,,,,,,,,,,,,,,,,,,,,,,,,,,,
,,,,,,5fe24f4dcb7697decd41db77,62bbfc731293aa7ae4dc47f9,2022-06-29_09h25.38.278,Colour_Asymmetry_Pilot,2022.1.3,Win32,60.0240096,62bbe60bf3d75ef465d3e404,0,75,75,25,1,onethree,,,,,,,,,,,,,,,,,,,,,,,,,,,,,,,,,,,,,,,,,,,,,,,,,,,,,,,,,,,,,,,,,,,,,,,,,,,,,,,,,,,,,,,,,,,,,,,,,,,,,,,,,,,,,,,,,,,,,,,,,,,,,,,,,,,,,,,,,,,,,,,,,,,,,,,,
,,,,,,5fe24f4dcb7697decd41db77,62bbfc731293aa7ae4dc47f9,2022-06-29_09h25.38.278,Colour_Asymmetry_Pilot,2022.1.3,Win32,60.0240096,62bbe60bf3d75ef465d3e404,0,76,76,95,1,fourthree,,,,,,,,,,,,,,,,,,,,,,,,,,,,,,,,,,,,,,,,,,,,,,,,,,,,,,,,,,,,,,,,,,,,,,,,,,,,,,,,,,,,,,,,,,,,,,,,,,,,,,,,,,,,,,,,,,,,,,,,,,,,,,,,,,,,,,,,,,,,,,,,,,,,,,,,
,,,,,,5fe24f4dcb7697decd41db77,62bbfc731293aa7ae4dc47f9,2022-06-29_09h25.38.278,Colour_Asymmetry_Pilot,2022.1.3,Win32,60.0240096,62bbe60bf3d75ef465d3e404,0,77,77,144,1,onetwo,,,,,,,,,,,,,,,,,,,,,,,,,,,,,,,,,,,,,,,,,,,,,,,,,,,,,,,,,,,,,,,,,,,,,,,,,,,,,,,,,,,,,,,,,,,,,,,,,,,,,,,,,,,,,,,,,,,,,,,,,,,,,,,,,,,,,,,,,,,,,,,,,,,,,,,,
,,,,,,5fe24f4dcb7697decd41db77,62bbfc731293aa7ae4dc47f9,2022-06-29_09h25.38.278,Colour_Asymmetry_Pilot,2022.1.3,Win32,60.0240096,62bbe60bf3d75ef465d3e404,0,78,78,156,1,threeone,,,,,,,,,,,,,,,,,,,,,,,,,,,,,,,,,,,,,,,,,,,,,,,,,,,,,,,,,,,,,,,,,,,,,,,,,,,,,,,,,,,,,,,,,,,,,,,,,,,,,,,,,,,,,,,,,,,,,,,,,,,,,,,,,,,,,,,,,,,,,,,,,,,,,,,,
,,,,,,5fe24f4dcb7697decd41db77,62bbfc731293aa7ae4dc47f9,2022-06-29_09h25.38.278,Colour_Asymmetry_Pilot,2022.1.3,Win32,60.0240096,62bbe60bf3d75ef465d3e404,0,79,79,87,1,fourthree,,,,,,,,,,,,,,,,,,,,,,,,,,,,,,,,,,,,,,,,,,,,,,,,,,,,,,,,,,,,,,,,,,,,,,,,,,,,,,,,,,,,,,,,,,,,,,,,,,,,,,,,,,,,,,,,,,,,,,,,,,,,,,,,,,,,,,,,,,,,,,,,,,,,,,,,
,,,,,,5fe24f4dcb7697decd41db77,62bbfc731293aa7ae4dc47f9,2022-06-29_09h25.38.278,Colour_Asymmetry_Pilot,2022.1.3,Win32,60.0240096,62bbe60bf3d75ef465d3e404,0,80,80,23,1,fourthree,,,,,,,,,,,,,,,,,,,,,,,,,,,,,,,,,,,,,,,,,,,,,,,,,,,,,,,,,,,,,,,,,,,,,,,,,,,,,,,,,,,,,,,,,,,,,,,,,,,,,,,,,,,,,,,,,,,,,,,,,,,,,,,,,,,,,,,,,,,,,,,,,,,,,,,,
,,,,,,5fe24f4dcb7697decd41db77,62bbfc731293aa7ae4dc47f9,2022-06-29_09h25.38.278,Colour_Asymmetry_Pilot,2022.1.3,Win32,60.0240096,62bbe60bf3d75ef465d3e404,0,81,81,5,1,threefour,,,,,,,,,,,,,,,,,,,,,,,,,,,,,,,,,,,,,,,,,,,,,,,,,,,,,,,,,,,,,,,,,,,,,,,,,,,,,,,,,,,,,,,,,,,,,,,,,,,,,,,,,,,,,,,,,,,,,,,,,,,,,,,,,,,,,,,,,,,,,,,,,,,,,,,,
,,,,,,5fe24f4dcb7697decd41db77,62bbfc731293aa7ae4dc47f9,2022-06-29_09h25.38.278,Colour_Asymmetry_Pilot,2022.1.3,Win32,60.0240096,62bbe60bf3d75ef465d3e404,0,82,82,152,1,onetwo,,,,,,,,,,,,,,,,,,,,,,,,,,,,,,,,,,,,,,,,,,,,,,,,,,,,,,,,,,,,,,,,,,,,,,,,,,,,,,,,,,,,,,,,,,,,,,,,,,,,,,,,,,,,,,,,,,,,,,,,,,,,,,,,,,,,,,,,,,,,,,,,,,,,,,,,
,,,,,,5fe24f4dcb7697decd41db77,62bbfc731293aa7ae4dc47f9,2022-06-29_09h25.38.278,Colour_Asymmetry_Pilot,2022.1.3,Win32,60.0240096,62bbe60bf3d75ef465d3e404,0,83,83,59,1,twofour,,,,,,,,,,,,,,,,,,,,,,,,,,,,,,,,,,,,,,,,,,,,,,,,,,,,,,,,,,,,,,,,,,,,,,,,,,,,,,,,,,,,,,,,,,,,,,,,,,,,,,,,,,,,,,,,,,,,,,,,,,,,,,,,,,,,,,,,,,,,,,,,,,,,,,,,
,,,,,,5fe24f4dcb7697decd41db77,62bbfc731293aa7ae4dc47f9,2022-06-29_09h25.38.278,Colour_Asymmetry_Pilot,2022.1.3,Win32,60.0240096,62bbe60bf3d75ef465d3e404,0,84,84,88,1,onetwo,,,,,,,,,,,,,,,,,,,,,,,,,,,,,,,,,,,,,,,,,,,,,,,,,,,,,,,,,,,,,,,,,,,,,,,,,,,,,,,,,,,,,,,,,,,,,,,,,,,,,,,,,,,,,,,,,,,,,,,,,,,,,,,,,,,,,,,,,,,,,,,,,,,,,,,,
,,,,,,5fe24f4dcb7697decd41db77,62bbfc731293aa7ae4dc47f9,2022-06-29_09h25.38.278,Colour_Asymmetry_Pilot,2022.1.3,Win32,60.0240096,62bbe60bf3d75ef465d3e404,0,85,85,134,1,fourtwo,,,,,,,,,,,,,,,,,,,,,,,,,,,,,,,,,,,,,,,,,,,,,,,,,,,,,,,,,,,,,,,,,,,,,,,,,,,,,,,,,,,,,,,,,,,,,,,,,,,,,,,,,,,,,,,,,,,,,,,,,,,,,,,,,,,,,,,,,,,,,,,,,,,,,,,,
,,,,,,5fe24f4dcb7697decd41db77,62bbfc731293aa7ae4dc47f9,2022-06-29_09h25.38.278,Colour_Asymmetry_Pilot,2022.1.3,Win32,60.0240096,62bbe60bf3d75ef465d3e404,0,86,86,132,1,threeone,,,,,,,,,,,,,,,,,,,,,,,,,,,,,,,,,,,,,,,,,,,,,,,,,,,,,,,,,,,,,,,,,,,,,,,,,,,,,,,,,,,,,,,,,,,,,,,,,,,,,,,,,,,,,,,,,,,,,,,,,,,,,,,,,,,,,,,,,,,,,,,,,,,,,,,,
,,,,,,5fe24f4dcb7697decd41db77,62bbfc731293aa7ae4dc47f9,2022-06-29_09h25.38.278,Colour_Asymmetry_Pilot,2022.1.3,Win32,60.0240096,62bbe60bf3d75ef465d3e404,0,87,87,29,1,threefour,,,,,,,,,,,,,,,,,,,,,,,,,,,,,,,,,,,,,,,,,,,,,,,,,,,,,,,,,,,,,,,,,,,,,,,,,,,,,,,,,,,,,,,,,,,,,,,,,,,,,,,,,,,,,,,,,,,,,,,,,,,,,,,,,,,,,,,,,,,,,,,,,,,,,,,,
,,,,,,5fe24f4dcb7697decd41db77,62bbfc731293aa7ae4dc47f9,2022-06-29_09h25.38.278,Colour_Asymmetry_Pilot,2022.1.3,Win32,60.0240096,62bbe60bf3d75ef465d3e404,0,88,88,131,1,twofour,,,,,,,,,,,,,,,,,,,,,,,,,,,,,,,,,,,,,,,,,,,,,,,,,,,,,,,,,,,,,,,,,,,,,,,,,,,,,,,,,,,,,,,,,,,,,,,,,,,,,,,,,,,,,,,,,,,,,,,,,,,,,,,,,,,,,,,,,,,,,,,,,,,,,,,,
,,,,,,5fe24f4dcb7697decd41db77,62bbfc731293aa7ae4dc47f9,2022-06-29_09h25.38.278,Colour_Asymmetry_Pilot,2022.1.3,Win32,60.0240096,62bbe60bf3d75ef465d3e404,0,89,89,40,1,onetwo,,,,,,,,,,,,,,,,,,,,,,,,,,,,,,,,,,,,,,,,,,,,,,,,,,,,,,,,,,,,,,,,,,,,,,,,,,,,,,,,,,,,,,,,,,,,,,,,,,,,,,,,,,,,,,,,,,,,,,,,,,,,,,,,,,,,,,,,,,,,,,,,,,,,,,,,
,,,,,,5fe24f4dcb7697decd41db77,62bbfc731293aa7ae4dc47f9,2022-06-29_09h25.38.278,Colour_Asymmetry_Pilot,2022.1.3,Win32,60.0240096,62bbe60bf3d75ef465d3e404,0,90,90,99,1,twofour,,,,,,,,,,,,,,,,,,,,,,,,,,,,,,,,,,,,,,,,,,,,,,,,,,,,,,,,,,,,,,,,,,,,,,,,,,,,,,,,,,,,,,,,,,,,,,,,,,,,,,,,,,,,,,,,,,,,,,,,,,,,,,,,,,,,,,,,,,,,,,,,,,,,,,,,
,,,,,,5fe24f4dcb7697decd41db77,62bbfc731293aa7ae4dc47f9,2022-06-29_09h25.38.278,Colour_Asymmetry_Pilot,2022.1.3,Win32,60.0240096,62bbe60bf3d75ef465d3e404,0,91,91,116,1,threeone,,,,,,,,,,,,,,,,,,,,,,,,,,,,,,,,,,,,,,,,,,,,,,,,,,,,,,,,,,,,,,,,,,,,,,,,,,,,,,,,,,,,,,,,,,,,,,,,,,,,,,,,,,,,,,,,,,,,,,,,,,,,,,,,,,,,,,,,,,,,,,,,,,,,,,,,
,,,,,,5fe24f4dcb7697decd41db77,62bbfc731293aa7ae4dc47f9,2022-06-29_09h25.38.278,Colour_Asymmetry_Pilot,2022.1.3,Win32,60.0240096,62bbe60bf3d75ef465d3e404,0,92,92,6,1,fourtwo,,,,,,,,,,,,,,,,,,,,,,,,,,,,,,,,,,,,,,,,,,,,,,,,,,,,,,,,,,,,,,,,,,,,,,,,,,,,,,,,,,,,,,,,,,,,,,,,,,,,,,,,,,,,,,,,,,,,,,,,,,,,,,,,,,,,,,,,,,,,,,,,,,,,,,,,
,,,,,,5fe24f4dcb7697decd41db77,62bbfc731293aa7ae4dc47f9,2022-06-29_09h25.38.278,Colour_Asymmetry_Pilot,2022.1.3,Win32,60.0240096,62bbe60bf3d75ef465d3e404,0,93,93,15,1,fourthree,,,,,,,,,,,,,,,,,,,,,,,,,,,,,,,,,,,,,,,,,,,,,,,,,,,,,,,,,,,,,,,,,,,,,,,,,,,,,,,,,,,,,,,,,,,,,,,,,,,,,,,,,,,,,,,,,,,,,,,,,,,,,,,,,,,,,,,,,,,,,,,,,,,,,,,,
,,,,,,5fe24f4dcb7697decd41db77,62bbfc731293aa7ae4dc47f9,2022-06-29_09h25.38.278,Colour_Asymmetry_Pilot,2022.1.3,Win32,60.0240096,62bbe60bf3d75ef465d3e404,0,94,94,133,1,threefour,,,,,,,,,,,,,,,,,,,,,,,,,,,,,,,,,,,,,,,,,,,,,,,,,,,,,,,,,,,,,,,,,,,,,,,,,,,,,,,,,,,,,,,,,,,,,,,,,,,,,,,,,,,,,,,,,,,,,,,,,,,,,,,,,,,,,,,,,,,,,,,,,,,,,,,,
,,,,,,5fe24f4dcb7697decd41db77,62bbfc731293aa7ae4dc47f9,2022-06-29_09h25.38.278,Colour_Asymmetry_Pilot,2022.1.3,Win32,60.0240096,62bbe60bf3d75ef465d3e404,0,95,95,138,1,twoone,,,,,,,,,,,,,,,,,,,,,,,,,,,,,,,,,,,,,,,,,,,,,,,,,,,,,,,,,,,,,,,,,,,,,,,,,,,,,,,,,,,,,,,,,,,,,,,,,,,,,,,,,,,,,,,,,,,,,,,,,,,,,,,,,,,,,,,,,,,,,,,,,,,,,,,,
,,,,,,5fe24f4dcb7697decd41db77,62bbfc731293aa7ae4dc47f9,2022-06-29_09h25.38.278,Colour_Asymmetry_Pilot,2022.1.3,Win32,60.0240096,62bbe60bf3d75ef465d3e404,0,96,96,66,1,twoone,,,,,,,,,,,,,,,,,,,,,,,,,,,,,,,,,,,,,,,,,,,,,,,,,,,,,,,,,,,,,,,,,,,,,,,,,,,,,,,,,,,,,,,,,,,,,,,,,,,,,,,,,,,,,,,,,,,,,,,,,,,,,,,,,,,,,,,,,,,,,,,,,,,,,,,,
,,,,,,5fe24f4dcb7697decd41db77,62bbfc731293aa7ae4dc47f9,2022-06-29_09h25.38.278,Colour_Asymmetry_Pilot,2022.1.3,Win32,60.0240096,62bbe60bf3d75ef465d3e404,0,97,97,122,1,twoone,,,,,,,,,,,,,,,,,,,,,,,,,,,,,,,,,,,,,,,,,,,,,,,,,,,,,,,,,,,,,,,,,,,,,,,,,,,,,,,,,,,,,,,,,,,,,,,,,,,,,,,,,,,,,,,,,,,,,,,,,,,,,,,,,,,,,,,,,,,,,,,,,,,,,,,,
,,,,,,5fe24f4dcb7697decd41db77,62bbfc731293aa7ae4dc47f9,2022-06-29_09h25.38.278,Colour_Asymmetry_Pilot,2022.1.3,Win32,60.0240096,62bbe60bf3d75ef465d3e404,0,98,98,27,1,twofour,,,,,,,,,,,,,,,,,,,,,,,,,,,,,,,,,,,,,,,,,,,,,,,,,,,,,,,,,,,,,,,,,,,,,,,,,,,,,,,,,,,,,,,,,,,,,,,,,,,,,,,,,,,,,,,,,,,,,,,,,,,,,,,,,,,,,,,,,,,,,,,,,,,,,,,,
,,,,,,5fe24f4dcb7697decd41db77,62bbfc731293aa7ae4dc47f9,2022-06-29_09h25.38.278,Colour_Asymmetry_Pilot,2022.1.3,Win32,60.0240096,62bbe60bf3d75ef465d3e404,0,99,99,73,1,onethree,,,,,,,,,,,,,,,,,,,,,,,,,,,,,,,,,,,,,,,,,,,,,,,,,,,,,,,,,,,,,,,,,,,,,,,,,,,,,,,,,,,,,,,,,,,,,,,,,,,,,,,,,,,,,,,,,,,,,,,,,,,,,,,,,,,,,,,,,,,,,,,,,,,,,,,,
,,,,,,5fe24f4dcb7697decd41db77,62bbfc731293aa7ae4dc47f9,2022-06-29_09h25.38.278,Colour_Asymmetry_Pilot,2022.1.3,Win32,60.0240096,62bbe60bf3d75ef465d3e404,0,100,100,139,1,twofour,,,,,,,,,,,,,,,,,,,,,,,,,,,,,,,,,,,,,,,,,,,,,,,,,,,,,,,,,,,,,,,,,,,,,,,,,,,,,,,,,,,,,,,,,,,,,,,,,,,,,,,,,,,,,,,,,,,,,,,,,,,,,,,,,,,,,,,,,,,,,,,,,,,,,,,,
,,,,,,5fe24f4dcb7697decd41db77,62bbfc731293aa7ae4dc47f9,2022-06-29_09h25.38.278,Colour_Asymmetry_Pilot,2022.1.3,Win32,60.0240096,62bbe60bf3d75ef465d3e404,0,101,101,127,1,fourthree,,,,,,,,,,,,,,,,,,,,,,,,,,,,,,,,,,,,,,,,,,,,,,,,,,,,,,,,,,,,,,,,,,,,,,,,,,,,,,,,,,,,,,,,,,,,,,,,,,,,,,,,,,,,,,,,,,,,,,,,,,,,,,,,,,,,,,,,,,,,,,,,,,,,,,,,
,,,,,,5fe24f4dcb7697decd41db77,62bbfc731293aa7ae4dc47f9,2022-06-29_09h25.38.278,Colour_Asymmetry_Pilot,2022.1.3,Win32,60.0240096,62bbe60bf3d75ef465d3e404,0,102,102,60,1,threeone,,,,,,,,,,,,,,,,,,,,,,,,,,,,,,,,,,,,,,,,,,,,,,,,,,,,,,,,,,,,,,,,,,,,,,,,,,,,,,,,,,,,,,,,,,,,,,,,,,,,,,,,,,,,,,,,,,,,,,,,,,,,,,,,,,,,,,,,,,,,,,,,,,,,,,,,
,,,,,,5fe24f4dcb7697decd41db77,62bbfc731293aa7ae4dc47f9,2022-06-29_09h25.38.278,Colour_Asymmetry_Pilot,2022.1.3,Win32,60.0240096,62bbe60bf3d75ef465d3e404,0,103,103,18,1,twoone,,,,,,,,,,,,,,,,,,,,,,,,,,,,,,,,,,,,,,,,,,,,,,,,,,,,,,,,,,,,,,,,,,,,,,,,,,,,,,,,,,,,,,,,,,,,,,,,,,,,,,,,,,,,,,,,,,,,,,,,,,,,,,,,,,,,,,,,,,,,,,,,,,,,,,,,
,,,,,,5fe24f4dcb7697decd41db77,62bbfc731293aa7ae4dc47f9,2022-06-29_09h25.38.278,Colour_Asymmetry_Pilot,2022.1.3,Win32,60.0240096,62bbe60bf3d75ef465d3e404,0,104,104,136,1,onetwo,,,,,,,,,,,,,,,,,,,,,,,,,,,,,,,,,,,,,,,,,,,,,,,,,,,,,,,,,,,,,,,,,,,,,,,,,,,,,,,,,,,,,,,,,,,,,,,,,,,,,,,,,,,,,,,,,,,,,,,,,,,,,,,,,,,,,,,,,,,,,,,,,,,,,,,,
,,,,,,5fe24f4dcb7697decd41db77,62bbfc731293aa7ae4dc47f9,2022-06-29_09h25.38.278,Colour_Asymmetry_Pilot,2022.1.3,Win32,60.0240096,62bbe60bf3d75ef465d3e404,0,105,105,85,1,threefour,,,,,,,,,,,,,,,,,,,,,,,,,,,,,,,,,,,,,,,,,,,,,,,,,,,,,,,,,,,,,,,,,,,,,,,,,,,,,,,,,,,,,,,,,,,,,,,,,,,,,,,,,,,,,,,,,,,,,,,,,,,,,,,,,,,,,,,,,,,,,,,,,,,,,,,,
,,,,,,5fe24f4dcb7697decd41db77,62bbfc731293aa7ae4dc47f9,2022-06-29_09h25.38.278,Colour_Asymmetry_Pilot,2022.1.3,Win32,60.0240096,62bbe60bf3d75ef465d3e404,0,106,106,124,1,threeone,,,,,,,,,,,,,,,,,,,,,,,,,,,,,,,,,,,,,,,,,,,,,,,,,,,,,,,,,,,,,,,,,,,,,,,,,,,,,,,,,,,,,,,,,,,,,,,,,,,,,,,,,,,,,,,,,,,,,,,,,,,,,,,,,,,,,,,,,,,,,,,,,,,,,,,,
,,,,,,5fe24f4dcb7697decd41db77,62bbfc731293aa7ae4dc47f9,2022-06-29_09h25.38.278,Colour_Asymmetry_Pilot,2022.1.3,Win32,60.0240096,62bbe60bf3d75ef465d3e404,0,107,107,69,1,threefour,,,,,,,,,,,,,,,,,,,,,,,,,,,,,,,,,,,,,,,,,,,,,,,,,,,,,,,,,,,,,,,,,,,,,,,,,,,,,,,,,,,,,,,,,,,,,,,,,,,,,,,,,,,,,,,,,,,,,,,,,,,,,,,,,,,,,,,,,,,,,,,,,,,,,,,,
,,,,,,5fe24f4dcb7697decd41db77,62bbfc731293aa7ae4dc47f9,2022-06-29_09h25.38.278,Colour_Asymmetry_Pilot,2022.1.3,Win32,60.0240096,62bbe60bf3d75ef465d3e404,0,108,108,3,1,twofour,,,,,,,,,,,,,,,,,,,,,,,,,,,,,,,,,,,,,,,,,,,,,,,,,,,,,,,,,,,,,,,,,,,,,,,,,,,,,,,,,,,,,,,,,,,,,,,,,,,,,,,,,,,,,,,,,,,,,,,,,,,,,,,,,,,,,,,,,,,,,,,,,,,,,,,,
,,,,,,5fe24f4dcb7697decd41db77,62bbfc731293aa7ae4dc47f9,2022-06-29_09h25.38.278,Colour_Asymmetry_Pilot,2022.1.3,Win32,60.0240096,62bbe60bf3d75ef465d3e404,0,109,109,16,1,onetwo,,,,,,,,,,,,,,,,,,,,,,,,,,,,,,,,,,,,,,,,,,,,,,,,,,,,,,,,,,,,,,,,,,,,,,,,,,,,,,,,,,,,,,,,,,,,,,,,,,,,,,,,,,,,,,,,,,,,,,,,,,,,,,,,,,,,,,,,,,,,,,,,,,,,,,,,
,,,,,,5fe24f4dcb7697decd41db77,62bbfc731293aa7ae4dc47f9,2022-06-29_09h25.38.278,Colour_Asymmetry_Pilot,2022.1.3,Win32,60.0240096,62bbe60bf3d75ef465d3e404,0,110,110,155,1,twofour,,,,,,,,,,,,,,,,,,,,,,,,,,,,,,,,,,,,,,,,,,,,,,,,,,,,,,,,,,,,,,,,,,,,,,,,,,,,,,,,,,,,,,,,,,,,,,,,,,,,,,,,,,,,,,,,,,,,,,,,,,,,,,,,,,,,,,,,,,,,,,,,,,,,,,,,
,,,,,,5fe24f4dcb7697decd41db77,62bbfc731293aa7ae4dc47f9,2022-06-29_09h25.38.278,Colour_Asymmetry_Pilot,2022.1.3,Win32,60.0240096,62bbe60bf3d75ef465d3e404,0,111,111,28,1,threeone,,,,,,,,,,,,,,,,,,,,,,,,,,,,,,,,,,,,,,,,,,,,,,,,,,,,,,,,,,,,,,,,,,,,,,,,,,,,,,,,,,,,,,,,,,,,,,,,,,,,,,,,,,,,,,,,,,,,,,,,,,,,,,,,,,,,,,,,,,,,,,,,,,,,,,,,
,,,,,,5fe24f4dcb7697decd41db77,62bbfc731293aa7ae4dc47f9,2022-06-29_09h25.38.278,Colour_Asymmetry_Pilot,2022.1.3,Win32,60.0240096,62bbe60bf3d75ef465d3e404,0,112,112,46,1,fourtwo,,,,,,,,,,,,,,,,,,,,,,,,,,,,,,,,,,,,,,,,,,,,,,,,,,,,,,,,,,,,,,,,,,,,,,,,,,,,,,,,,,,,,,,,,,,,,,,,,,,,,,,,,,,,,,,,,,,,,,,,,,,,,,,,,,,,,,,,,,,,,,,,,,,,,,,,
,,,,,,5fe24f4dcb7697decd41db77,62bbfc731293aa7ae4dc47f9,2022-06-29_09h25.38.278,Colour_Asymmetry_Pilot,2022.1.3,Win32,60.0240096,62bbe60bf3d75ef465d3e404,0,113,113,125,1,threefour,,,,,,,,,,,,,,,,,,,,,,,,,,,,,,,,,,,,,,,,,,,,,,,,,,,,,,,,,,,,,,,,,,,,,,,,,,,,,,,,,,,,,,,,,,,,,,,,,,,,,,,,,,,,,,,,,,,,,,,,,,,,,,,,,,,,,,,,,,,,,,,,,,,,,,,,
,,,,,,5fe24f4dcb7697decd41db77,62bbfc731293aa7ae4dc47f9,2022-06-29_09h25.38.278,Colour_Asymmetry_Pilot,2022.1.3,Win32,60.0240096,62bbe60bf3d75ef465d3e404,0,114,114,24,1,onetwo,,,,,,,,,,,,,,,,,,,,,,,,,,,,,,,,,,,,,,,,,,,,,,,,,,,,,,,,,,,,,,,,,,,,,,,,,,,,,,,,,,,,,,,,,,,,,,,,,,,,,,,,,,,,,,,,,,,,,,,,,,,,,,,,,,,,,,,,,,,,,,,,,,,,,,,,
,,,,,,5fe24f4dcb7697decd41db77,62bbfc731293aa7ae4dc47f9,2022-06-29_09h25.38.278,Colour_Asymmetry_Pilot,2022.1.3,Win32,60.0240096,62bbe60bf3d75ef465d3e404,0,115,115,61,1,threefour,,,,,,,,,,,,,,,,,,,,,,,,,,,,,,,,,,,,,,,,,,,,,,,,,,,,,,,,,,,,,,,,,,,,,,,,,,,,,,,,,,,,,,,,,,,,,,,,,,,,,,,,,,,,,,,,,,,,,,,,,,,,,,,,,,,,,,,,,,,,,,,,,,,,,,,,
,,,,,,5fe24f4dcb7697decd41db77,62bbfc731293aa7ae4dc47f9,2022-06-29_09h25.38.278,Colour_Asymmetry_Pilot,2022.1.3,Win32,60.0240096,62bbe60bf3d75ef465d3e404,0,116,116,146,1,twoone,,,,,,,,,,,,,,,,,,,,,,,,,,,,,,,,,,,,,,,,,,,,,,,,,,,,,,,,,,,,,,,,,,,,,,,,,,,,,,,,,,,,,,,,,,,,,,,,,,,,,,,,,,,,,,,,,,,,,,,,,,,,,,,,,,,,,,,,,,,,,,,,,,,,,,,,
,,,,,,5fe24f4dcb7697decd41db77,62bbfc731293aa7ae4dc47f9,2022-06-29_09h25.38.278,Colour_Asymmetry_Pilot,2022.1.3,Win32,60.0240096,62bbe60bf3d75ef465d3e404,0,117,117,83,1,twofour,,,,,,,,,,,,,,,,,,,,,,,,,,,,,,,,,,,,,,,,,,,,,,,,,,,,,,,,,,,,,,,,,,,,,,,,,,,,,,,,,,,,,,,,,,,,,,,,,,,,,,,,,,,,,,,,,,,,,,,,,,,,,,,,,,,,,,,,,,,,,,,,,,,,,,,,
,,,,,,5fe24f4dcb7697decd41db77,62bbfc731293aa7ae4dc47f9,2022-06-29_09h25.38.278,Colour_Asymmetry_Pilot,2022.1.3,Win32,60.0240096,62bbe60bf3d75ef465d3e404,0,118,118,86,1,fourtwo,,,,,,,,,,,,,,,,,,,,,,,,,,,,,,,,,,,,,,,,,,,,,,,,,,,,,,,,,,,,,,,,,,,,,,,,,,,,,,,,,,,,,,,,,,,,,,,,,,,,,,,,,,,,,,,,,,,,,,,,,,,,,,,,,,,,,,,,,,,,,,,,,,,,,,,,
,,,,,,5fe24f4dcb7697decd41db77,62bbfc731293aa7ae4dc47f9,2022-06-29_09h25.38.278,Colour_Asymmetry_Pilot,2022.1.3,Win32,60.0240096,62bbe60bf3d75ef465d3e404,0,119,119,119,1,fourthree,,,,,,,,,,,,,,,,,,,,,,,,,,,,,,,,,,,,,,,,,,,,,,,,,,,,,,,,,,,,,,,,,,,,,,,,,,,,,,,,,,,,,,,,,,,,,,,,,,,,,,,,,,,,,,,,,,,,,,,,,,,,,,,,,,,,,,,,,,,,,,,,,,,,,,,,
,,,,,,5fe24f4dcb7697decd41db77,62bbfc731293aa7ae4dc47f9,2022-06-29_09h25.38.278,Colour_Asymmetry_Pilot,2022.1.3,Win32,60.0240096,62bbe60bf3d75ef465d3e404,0,120,120,68,1,threeone,,,,,,,,,,,,,,,,,,,,,,,,,,,,,,,,,,,,,,,,,,,,,,,,,,,,,,,,,,,,,,,,,,,,,,,,,,,,,,,,,,,,,,,,,,,,,,,,,,,,,,,,,,,,,,,,,,,,,,,,,,,,,,,,,,,,,,,,,,,,,,,,,,,,,,,,
,,,,,,5fe24f4dcb7697decd41db77,62bbfc731293aa7ae4dc47f9,2022-06-29_09h25.38.278,Colour_Asymmetry_Pilot,2022.1.3,Win32,60.0240096,62bbe60bf3d75ef465d3e404,0,121,121,2,1,twoone,,,,,,,,,,,,,,,,,,,,,,,,,,,,,,,,,,,,,,,,,,,,,,,,,,,,,,,,,,,,,,,,,,,,,,,,,,,,,,,,,,,,,,,,,,,,,,,,,,,,,,,,,,,,,,,,,,,,,,,,,,,,,,,,,,,,,,,,,,,,,,,,,,,,,,,,
,,,,,,5fe24f4dcb7697decd41db77,62bbfc731293aa7ae4dc47f9,2022-06-29_09h25.38.278,Colour_Asymmetry_Pilot,2022.1.3,Win32,60.0240096,62bbe60bf3d75ef465d3e404,0,122,122,37,1,threefour,,,,,,,,,,,,,,,,,,,,,,,,,,,,,,,,,,,,,,,,,,,,,,,,,,,,,,,,,,,,,,,,,,,,,,,,,,,,,,,,,,,,,,,,,,,,,,,,,,,,,,,,,,,,,,,,,,,,,,,,,,,,,,,,,,,,,,,,,,,,,,,,,,,,,,,,
,,,,,,5fe24f4dcb7697decd41db77,62bbfc731293aa7ae4dc47f9,2022-06-29_09h25.38.278,Colour_Asymmetry_Pilot,2022.1.3,Win32,60.0240096,62bbe60bf3d75ef465d3e404,0,123,123,149,1,threefour,,,,,,,,,,,,,,,,,,,,,,,,,,,,,,,,,,,,,,,,,,,,,,,,,,,,,,,,,,,,,,,,,,,,,,,,,,,,,,,,,,,,,,,,,,,,,,,,,,,,,,,,,,,,,,,,,,,,,,,,,,,,,,,,,,,,,,,,,,,,,,,,,,,,,,,,
,,,,,,5fe24f4dcb7697decd41db77,62bbfc731293aa7ae4dc47f9,2022-06-29_09h25.38.278,Colour_Asymmetry_Pilot,2022.1.3,Win32,60.0240096,62bbe60bf3d75ef465d3e404,0,124,124,105,1,onethree,,,,,,,,,,,,,,,,,,,,,,,,,,,,,,,,,,,,,,,,,,,,,,,,,,,,,,,,,,,,,,,,,,,,,,,,,,,,,,,,,,,,,,,,,,,,,,,,,,,,,,,,,,,,,,,,,,,,,,,,,,,,,,,,,,,,,,,,,,,,,,,,,,,,,,,,
,,,,,,5fe24f4dcb7697decd41db77,62bbfc731293aa7ae4dc47f9,2022-06-29_09h25.38.278,Colour_Asymmetry_Pilot,2022.1.3,Win32,60.0240096,62bbe60bf3d75ef465d3e404,0,125,125,67,1,twofour,,,,,,,,,,,,,,,,,,,,,,,,,,,,,,,,,,,,,,,,,,,,,,,,,,,,,,,,,,,,,,,,,,,,,,,,,,,,,,,,,,,,,,,,,,,,,,,,,,,,,,,,,,,,,,,,,,,,,,,,,,,,,,,,,,,,,,,,,,,,,,,,,,,,,,,,
,,,,,,5fe24f4dcb7697decd41db77,62bbfc731293aa7ae4dc47f9,2022-06-29_09h25.38.278,Colour_Asymmetry_Pilot,2022.1.3,Win32,60.0240096,62bbe60bf3d75ef465d3e404,0,126,126,1,1,onethree,,,,,,,,,,,,,,,,,,,,,,,,,,,,,,,,,,,,,,,,,,,,,,,,,,,,,,,,,,,,,,,,,,,,,,,,,,,,,,,,,,,,,,,,,,,,,,,,,,,,,,,,,,,,,,,,,,,,,,,,,,,,,,,,,,,,,,,,,,,,,,,,,,,,,,,,
,,,,,,5fe24f4dcb7697decd41db77,62bbfc731293aa7ae4dc47f9,2022-06-29_09h25.38.278,Colour_Asymmetry_Pilot,2022.1.3,Win32,60.0240096,62bbe60bf3d75ef465d3e404,0,127,127,20,1,threeone,,,,,,,,,,,,,,,,,,,,,,,,,,,,,,,,,,,,,,,,,,,,,,,,,,,,,,,,,,,,,,,,,,,,,,,,,,,,,,,,,,,,,,,,,,,,,,,,,,,,,,,,,,,,,,,,,,,,,,,,,,,,,,,,,,,,,,,,,,,,,,,,,,,,,,,,
,,,,,,5fe24f4dcb7697decd41db77,62bbfc731293aa7ae4dc47f9,2022-06-29_09h25.38.278,Colour_Asymmetry_Pilot,2022.1.3,Win32,60.0240096,62bbe60bf3d75ef465d3e404,0,128,128,35,1,twofour,,,,,,,,,,,,,,,,,,,,,,,,,,,,,,,,,,,,,,,,,,,,,,,,,,,,,,,,,,,,,,,,,,,,,,,,,,,,,,,,,,,,,,,,,,,,,,,,,,,,,,,,,,,,,,,,,,,,,,,,,,,,,,,,,,,,,,,,,,,,,,,,,,,,,,,,
,,,,,,5fe24f4dcb7697decd41db77,62bbfc731293aa7ae4dc47f9,2022-06-29_09h25.38.278,Colour_Asymmetry_Pilot,2022.1.3,Win32,60.0240096,62bbe60bf3d75ef465d3e404,0,129,129,113,1,onethree,,,,,,,,,,,,,,,,,,,,,,,,,,,,,,,,,,,,,,,,,,,,,,,,,,,,,,,,,,,,,,,,,,,,,,,,,,,,,,,,,,,,,,,,,,,,,,,,,,,,,,,,,,,,,,,,,,,,,,,,,,,,,,,,,,,,,,,,,,,,,,,,,,,,,,,,
,,,,,,5fe24f4dcb7697decd41db77,62bbfc731293aa7ae4dc47f9,2022-06-29_09h25.38.278,Colour_Asymmetry_Pilot,2022.1.3,Win32,60.0240096,62bbe60bf3d75ef465d3e404,0,130,130,104,1,onetwo,,,,,,,,,,,,,,,,,,,,,,,,,,,,,,,,,,,,,,,,,,,,,,,,,,,,,,,,,,,,,,,,,,,,,,,,,,,,,,,,,,,,,,,,,,,,,,,,,,,,,,,,,,,,,,,,,,,,,,,,,,,,,,,,,,,,,,,,,,,,,,,,,,,,,,,,
,,,,,,5fe24f4dcb7697decd41db77,62bbfc731293aa7ae4dc47f9,2022-06-29_09h25.38.278,Colour_Asymmetry_Pilot,2022.1.3,Win32,60.0240096,62bbe60bf3d75ef465d3e404,0,131,131,74,1,twoone,,,,,,,,,,,,,,,,,,,,,,,,,,,,,,,,,,,,,,,,,,,,,,,,,,,,,,,,,,,,,,,,,,,,,,,,,,,,,,,,,,,,,,,,,,,,,,,,,,,,,,,,,,,,,,,,,,,,,,,,,,,,,,,,,,,,,,,,,,,,,,,,,,,,,,,,
,,,,,,5fe24f4dcb7697decd41db77,62bbfc731293aa7ae4dc47f9,2022-06-29_09h25.38.278,Colour_Asymmetry_Pilot,2022.1.3,Win32,60.0240096,62bbe60bf3d75ef465d3e404,0,132,132,137,1,onethree,,,,,,,,,,,,,,,,,,,,,,,,,,,,,,,,,,,,,,,,,,,,,,,,,,,,,,,,,,,,,,,,,,,,,,,,,,,,,,,,,,,,,,,,,,,,,,,,,,,,,,,,,,,,,,,,,,,,,,,,,,,,,,,,,,,,,,,,,,,,,,,,,,,,,,,,
,,,,,,5fe24f4dcb7697decd41db77,62bbfc731293aa7ae4dc47f9,2022-06-29_09h25.38.278,Colour_Asymmetry_Pilot,2022.1.3,Win32,60.0240096,62bbe60bf3d75ef465d3e404,0,133,133,75,1,twofour,,,,,,,,,,,,,,,,,,,,,,,,,,,,,,,,,,,,,,,,,,,,,,,,,,,,,,,,,,,,,,,,,,,,,,,,,,,,,,,,,,,,,,,,,,,,,,,,,,,,,,,,,,,,,,,,,,,,,,,,,,,,,,,,,,,,,,,,,,,,,,,,,,,,,,,,
,,,,,,5fe24f4dcb7697decd41db77,62bbfc731293aa7ae4dc47f9,2022-06-29_09h25.38.278,Colour_Asymmetry_Pilot,2022.1.3,Win32,60.0240096,62bbe60bf3d75ef465d3e404,0,134,134,150,1,fourtwo,,,,,,,,,,,,,,,,,,,,,,,,,,,,,,,,,,,,,,,,,,,,,,,,,,,,,,,,,,,,,,,,,,,,,,,,,,,,,,,,,,,,,,,,,,,,,,,,,,,,,,,,,,,,,,,,,,,,,,,,,,,,,,,,,,,,,,,,,,,,,,,,,,,,,,,,
,,,,,,5fe24f4dcb7697decd41db77,62bbfc731293aa7ae4dc47f9,2022-06-29_09h25.38.278,Colour_Asymmetry_Pilot,2022.1.3,Win32,60.0240096,62bbe60bf3d75ef465d3e404,0,135,135,147,1,twofour,,,,,,,,,,,,,,,,,,,,,,,,,,,,,,,,,,,,,,,,,,,,,,,,,,,,,,,,,,,,,,,,,,,,,,,,,,,,,,,,,,,,,,,,,,,,,,,,,,,,,,,,,,,,,,,,,,,,,,,,,,,,,,,,,,,,,,,,,,,,,,,,,,,,,,,,
,,,,,,5fe24f4dcb7697decd41db77,62bbfc731293aa7ae4dc47f9,2022-06-29_09h25.38.278,Colour_Asymmetry_Pilot,2022.1.3,Win32,60.0240096,62bbe60bf3d75ef465d3e404,0,136,136,56,1,onetwo,,,,,,,,,,,,,,,,,,,,,,,,,,,,,,,,,,,,,,,,,,,,,,,,,,,,,,,,,,,,,,,,,,,,,,,,,,,,,,,,,,,,,,,,,,,,,,,,,,,,,,,,,,,,,,,,,,,,,,,,,,,,,,,,,,,,,,,,,,,,,,,,,,,,,,,,
,,,,,,5fe24f4dcb7697decd41db77,62bbfc731293aa7ae4dc47f9,2022-06-29_09h25.38.278,Colour_Asymmetry_Pilot,2022.1.3,Win32,60.0240096,62bbe60bf3d75ef465d3e404,0,137,137,128,1,onetwo,,,,,,,,,,,,,,,,,,,,,,,,,,,,,,,,,,,,,,,,,,,,,,,,,,,,,,,,,,,,,,,,,,,,,,,,,,,,,,,,,,,,,,,,,,,,,,,,,,,,,,,,,,,,,,,,,,,,,,,,,,,,,,,,,,,,,,,,,,,,,,,,,,,,,,,,
,,,,,,5fe24f4dcb7697decd41db77,62bbfc731293aa7ae4dc47f9,2022-06-29_09h25.38.278,Colour_Asymmetry_Pilot,2022.1.3,Win32,60.0240096,62bbe60bf3d75ef465d3e404,0,138,138,141,1,threefour,,,,,,,,,,,,,,,,,,,,,,,,,,,,,,,,,,,,,,,,,,,,,,,,,,,,,,,,,,,,,,,,,,,,,,,,,,,,,,,,,,,,,,,,,,,,,,,,,,,,,,,,,,,,,,,,,,,,,,,,,,,,,,,,,,,,,,,,,,,,,,,,,,,,,,,,
,,,,,,5fe24f4dcb7697decd41db77,62bbfc731293aa7ae4dc47f9,2022-06-29_09h25.38.278,Colour_Asymmetry_Pilot,2022.1.3,Win32,60.0240096,62bbe60bf3d75ef465d3e404,0,139,139,12,1,threeone,,,,,,,,,,,,,,,,,,,,,,,,,,,,,,,,,,,,,,,,,,,,,,,,,,,,,,,,,,,,,,,,,,,,,,,,,,,,,,,,,,,,,,,,,,,,,,,,,,,,,,,,,,,,,,,,,,,,,,,,,,,,,,,,,,,,,,,,,,,,,,,,,,,,,,,,
,,,,,,5fe24f4dcb7697decd41db77,62bbfc731293aa7ae4dc47f9,2022-06-29_09h25.38.278,Colour_Asymmetry_Pilot,2022.1.3,Win32,60.0240096,62bbe60bf3d75ef465d3e404,0,140,140,142,1,fourtwo,,,,,,,,,,,,,,,,,,,,,,,,,,,,,,,,,,,,,,,,,,,,,,,,,,,,,,,,,,,,,,,,,,,,,,,,,,,,,,,,,,,,,,,,,,,,,,,,,,,,,,,,,,,,,,,,,,,,,,,,,,,,,,,,,,,,,,,,,,,,,,,,,,,,,,,,
,,,,,,5fe24f4dcb7697decd41db77,62bbfc731293aa7ae4dc47f9,2022-06-29_09h25.38.278,Colour_Asymmetry_Pilot,2022.1.3,Win32,60.0240096,62bbe60bf3d75ef465d3e404,0,141,141,157,1,threefour,,,,,,,,,,,,,,,,,,,,,,,,,,,,,,,,,,,,,,,,,,,,,,,,,,,,,,,,,,,,,,,,,,,,,,,,,,,,,,,,,,,,,,,,,,,,,,,,,,,,,,,,,,,,,,,,,,,,,,,,,,,,,,,,,,,,,,,,,,,,,,,,,,,,,,,,
,,,,,,5fe24f4dcb7697decd41db77,62bbfc731293aa7ae4dc47f9,2022-06-29_09h25.38.278,Colour_Asymmetry_Pilot,2022.1.3,Win32,60.0240096,62bbe60bf3d75ef465d3e404,0,142,142,103,1,fourthree,,,,,,,,,,,,,,,,,,,,,,,,,,,,,,,,,,,,,,,,,,,,,,,,,,,,,,,,,,,,,,,,,,,,,,,,,,,,,,,,,,,,,,,,,,,,,,,,,,,,,,,,,,,,,,,,,,,,,,,,,,,,,,,,,,,,,,,,,,,,,,,,,,,,,,,,
,,,,,,5fe24f4dcb7697decd41db77,62bbfc731293aa7ae4dc47f9,2022-06-29_09h25.38.278,Colour_Asymmetry_Pilot,2022.1.3,Win32,60.0240096,62bbe60bf3d75ef465d3e404,0,143,143,14,1,fourtwo,,,,,,,,,,,,,,,,,,,,,,,,,,,,,,,,,,,,,,,,,,,,,,,,,,,,,,,,,,,,,,,,,,,,,,,,,,,,,,,,,,,,,,,,,,,,,,,,,,,,,,,,,,,,,,,,,,,,,,,,,,,,,,,,,,,,,,,,,,,,,,,,,,,,,,,,
,,,,,,5fe24f4dcb7697decd41db77,62bbfc731293aa7ae4dc47f9,2022-06-29_09h25.38.278,Colour_Asymmetry_Pilot,2022.1.3,Win32,60.0240096,62bbe60bf3d75ef465d3e404,0,144,144,53,1,threefour,,,,,,,,,,,,,,,,,,,,,,,,,,,,,,,,,,,,,,,,,,,,,,,,,,,,,,,,,,,,,,,,,,,,,,,,,,,,,,,,,,,,,,,,,,,,,,,,,,,,,,,,,,,,,,,,,,,,,,,,,,,,,,,,,,,,,,,,,,,,,,,,,,,,,,,,
,,,,,,5fe24f4dcb7697decd41db77,62bbfc731293aa7ae4dc47f9,2022-06-29_09h25.38.278,Colour_Asymmetry_Pilot,2022.1.3,Win32,60.0240096,62bbe60bf3d75ef465d3e404,0,145,145,51,1,twofour,,,,,,,,,,,,,,,,,,,,,,,,,,,,,,,,,,,,,,,,,,,,,,,,,,,,,,,,,,,,,,,,,,,,,,,,,,,,,,,,,,,,,,,,,,,,,,,,,,,,,,,,,,,,,,,,,,,,,,,,,,,,,,,,,,,,,,,,,,,,,,,,,,,,,,,,
,,,,,,5fe24f4dcb7697decd41db77,62bbfc731293aa7ae4dc47f9,2022-06-29_09h25.38.278,Colour_Asymmetry_Pilot,2022.1.3,Win32,60.0240096,62bbe60bf3d75ef465d3e404,0,146,146,90,1,twoone,,,,,,,,,,,,,,,,,,,,,,,,,,,,,,,,,,,,,,,,,,,,,,,,,,,,,,,,,,,,,,,,,,,,,,,,,,,,,,,,,,,,,,,,,,,,,,,,,,,,,,,,,,,,,,,,,,,,,,,,,,,,,,,,,,,,,,,,,,,,,,,,,,,,,,,,
,,,,,,5fe24f4dcb7697decd41db77,62bbfc731293aa7ae4dc47f9,2022-06-29_09h25.38.278,Colour_Asymmetry_Pilot,2022.1.3,Win32,60.0240096,62bbe60bf3d75ef465d3e404,0,147,147,140,1,threeone,,,,,,,,,,,,,,,,,,,,,,,,,,,,,,,,,,,,,,,,,,,,,,,,,,,,,,,,,,,,,,,,,,,,,,,,,,,,,,,,,,,,,,,,,,,,,,,,,,,,,,,,,,,,,,,,,,,,,,,,,,,,,,,,,,,,,,,,,,,,,,,,,,,,,,,,
,,,,,,5fe24f4dcb7697decd41db77,62bbfc731293aa7ae4dc47f9,2022-06-29_09h25.38.278,Colour_Asymmetry_Pilot,2022.1.3,Win32,60.0240096,62bbe60bf3d75ef465d3e404,0,148,148,58,1,twoone,,,,,,,,,,,,,,,,,,,,,,,,,,,,,,,,,,,,,,,,,,,,,,,,,,,,,,,,,,,,,,,,,,,,,,,,,,,,,,,,,,,,,,,,,,,,,,,,,,,,,,,,,,,,,,,,,,,,,,,,,,,,,,,,,,,,,,,,,,,,,,,,,,,,,,,,
,,,,,,5fe24f4dcb7697decd41db77,62bbfc731293aa7ae4dc47f9,2022-06-29_09h25.38.278,Colour_Asymmetry_Pilot,2022.1.3,Win32,60.0240096,62bbe60bf3d75ef465d3e404,0,149,149,84,1,threeone,,,,,,,,,,,,,,,,,,,,,,,,,,,,,,,,,,,,,,,,,,,,,,,,,,,,,,,,,,,,,,,,,,,,,,,,,,,,,,,,,,,,,,,,,,,,,,,,,,,,,,,,,,,,,,,,,,,,,,,,,,,,,,,,,,,,,,,,,,,,,,,,,,,,,,,,
,,,,,,5fe24f4dcb7697decd41db77,62bbfc731293aa7ae4dc47f9,2022-06-29_09h25.38.278,Colour_Asymmetry_Pilot,2022.1.3,Win32,60.0240096,62bbe60bf3d75ef465d3e404,0,150,150,36,1,threeone,,,,,,,,,,,,,,,,,,,,,,,,,,,,,,,,,,,,,,,,,,,,,,,,,,,,,,,,,,,,,,,,,,,,,,,,,,,,,,,,,,,,,,,,,,,,,,,,,,,,,,,,,,,,,,,,,,,,,,,,,,,,,,,,,,,,,,,,,,,,,,,,,,,,,,,,
,,,,,,5fe24f4dcb7697decd41db77,62bbfc731293aa7ae4dc47f9,2022-06-29_09h25.38.278,Colour_Asymmetry_Pilot,2022.1.3,Win32,60.0240096,62bbe60bf3d75ef465d3e404,0,151,151,130,1,twoone,,,,,,,,,,,,,,,,,,,,,,,,,,,,,,,,,,,,,,,,,,,,,,,,,,,,,,,,,,,,,,,,,,,,,,,,,,,,,,,,,,,,,,,,,,,,,,,,,,,,,,,,,,,,,,,,,,,,,,,,,,,,,,,,,,,,,,,,,,,,,,,,,,,,,,,,
,,,,,,5fe24f4dcb7697decd41db77,62bbfc731293aa7ae4dc47f9,2022-06-29_09h25.38.278,Colour_Asymmetry_Pilot,2022.1.3,Win32,60.0240096,62bbe60bf3d75ef465d3e404,0,152,152,78,1,fourtwo,,,,,,,,,,,,,,,,,,,,,,,,,,,,,,,,,,,,,,,,,,,,,,,,,,,,,,,,,,,,,,,,,,,,,,,,,,,,,,,,,,,,,,,,,,,,,,,,,,,,,,,,,,,,,,,,,,,,,,,,,,,,,,,,,,,,,,,,,,,,,,,,,,,,,,,,
,,,,,,5fe24f4dcb7697decd41db77,62bbfc731293aa7ae4dc47f9,2022-06-29_09h25.38.278,Colour_Asymmetry_Pilot,2022.1.3,Win32,60.0240096,62bbe60bf3d75ef465d3e404,0,153,153,129,1,onethree,,,,,,,,,,,,,,,,,,,,,,,,,,,,,,,,,,,,,,,,,,,,,,,,,,,,,,,,,,,,,,,,,,,,,,,,,,,,,,,,,,,,,,,,,,,,,,,,,,,,,,,,,,,,,,,,,,,,,,,,,,,,,,,,,,,,,,,,,,,,,,,,,,,,,,,,
,,,,,,5fe24f4dcb7697decd41db77,62bbfc731293aa7ae4dc47f9,2022-06-29_09h25.38.278,Colour_Asymmetry_Pilot,2022.1.3,Win32,60.0240096,62bbe60bf3d75ef465d3e404,0,154,154,39,1,fourthree,,,,,,,,,,,,,,,,,,,,,,,,,,,,,,,,,,,,,,,,,,,,,,,,,,,,,,,,,,,,,,,,,,,,,,,,,,,,,,,,,,,,,,,,,,,,,,,,,,,,,,,,,,,,,,,,,,,,,,,,,,,,,,,,,,,,,,,,,,,,,,,,,,,,,,,,
,,,,,,5fe24f4dcb7697decd41db77,62bbfc731293aa7ae4dc47f9,2022-06-29_09h25.38.278,Colour_Asymmetry_Pilot,2022.1.3,Win32,60.0240096,62bbe60bf3d75ef465d3e404,0,155,155,26,1,twoone,,,,,,,,,,,,,,,,,,,,,,,,,,,,,,,,,,,,,,,,,,,,,,,,,,,,,,,,,,,,,,,,,,,,,,,,,,,,,,,,,,,,,,,,,,,,,,,,,,,,,,,,,,,,,,,,,,,,,,,,,,,,,,,,,,,,,,,,,,,,,,,,,,,,,,,,
,,,,,,5fe24f4dcb7697decd41db77,62bbfc731293aa7ae4dc47f9,2022-06-29_09h25.38.278,Colour_Asymmetry_Pilot,2022.1.3,Win32,60.0240096,62bbe60bf3d75ef465d3e404,0,156,156,120,1,onetwo,,,,,,,,,,,,,,,,,,,,,,,,,,,,,,,,,,,,,,,,,,,,,,,,,,,,,,,,,,,,,,,,,,,,,,,,,,,,,,,,,,,,,,,,,,,,,,,,,,,,,,,,,,,,,,,,,,,,,,,,,,,,,,,,,,,,,,,,,,,,,,,,,,,,,,,,
,,,,,,5fe24f4dcb7697decd41db77,62bbfc731293aa7ae4dc47f9,2022-06-29_09h25.38.278,Colour_Asymmetry_Pilot,2022.1.3,Win32,60.0240096,62bbe60bf3d75ef465d3e404,0,157,157,38,1,fourtwo,,,,,,,,,,,,,,,,,,,,,,,,,,,,,,,,,,,,,,,,,,,,,,,,,,,,,,,,,,,,,,,,,,,,,,,,,,,,,,,,,,,,,,,,,,,,,,,,,,,,,,,,,,,,,,,,,,,,,,,,,,,,,,,,,,,,,,,,,,,,,,,,,,,,,,,,
,,,,,,5fe24f4dcb7697decd41db77,62bbfc731293aa7ae4dc47f9,2022-06-29_09h25.38.278,Colour_Asymmetry_Pilot,2022.1.3,Win32,60.0240096,62bbe60bf3d75ef465d3e404,0,158,158,48,1,onetwo,,,,,,,,,,,,,,,,,,,,,,,,,,,,,,,,,,,,,,,,,,,,,,,,,,,,,,,,,,,,,,,,,,,,,,,,,,,,,,,,,,,,,,,,,,,,,,,,,,,,,,,,,,,,,,,,,,,,,,,,,,,,,,,,,,,,,,,,,,,,,,,,,,,,,,,,
,,,,,,5fe24f4dcb7697decd41db77,62bbfc731293aa7ae4dc47f9,2022-06-29_09h25.38.278,Colour_Asymmetry_Pilot,2022.1.3,Win32,60.0240096,62bbe60bf3d75ef465d3e404,0,159,159,4,1,threeone,,,,,,,,,,,,,,,,,,,,,,,,,,,,,,,,,,,,,,,,,,,,,,,,,,,,,,,,,,,,,,,,,,,,,,,,,,,,,,,,,,,,,,,,,,,,,,,,,,,,,,,,,,,,,,,,,,,,,,,,,,,,,,,,,,,,,,,,,,,,,,,,,,,,,,,,
,,,,,,5fe24f4dcb7697decd41db77,62bbfc731293aa7ae4dc47f9,2022-06-29_09h25.38.278,Colour_Asymmetry_Pilot,2022.1.3,Win32,60.0240096,62bbe60bf3d75ef465d3e404,0,160,160,0,1,onetwo,,,,,,,,,,,,,,,,,,,,,,,,,,,,,,,,,,,,,,,,,,,,,,,,,,,,,,,,,,,,,,,,,,,,,,,,,,,,,,,,,,,,,,,,,,,,,,,,,,,,,,,,,,,,,,,,,,,,,,,,,,,,,,,,,,,,,,,,,,,,,,,,,,,,,,,,
,,,,,,5fe24f4dcb7697decd41db77,62bbfc731293aa7ae4dc47f9,2022-06-29_09h25.38.278,Colour_Asymmetry_Pilot,2022.1.3,Win32,60.0240096,62bbe60bf3d75ef465d3e404,0,161,161,50,1,twoone,,,,,,,,,,,,,,,,,,,,,,,,,,,,,,,,,,,,,,,,,,,,,,,,,,,,,,,,,,,,,,,,,,,,,,,,,,,,,,,,,,,,,,,,,,,,,,,,,,,,,,,,,,,,,,,,,,,,,,,,,,,,,,,,,,,,,,,,,,,,,,,,,,,,,,,,
,,,,,,5fe24f4dcb7697decd41db77,62bbfc731293aa7ae4dc47f9,2022-06-29_09h25.38.278,Colour_Asymmetry_Pilot,2022.1.3,Win32,60.0240096,62bbe60bf3d75ef465d3e404,,,,,,,space,220.581,space,5.356,space,41.882,space,8.665,space,4.98,space,5.17,"[0.9686000000000001,0.3802000000000001,0.19999999999999996]",fourtwo,"[-0.07459999999999989,0.12139999999999995,-0.9922]",-4,3.851,-45,100,1,0,0,response7disk_5,-6,11,1,0,0,rectangle_8,-6,11,1,0,0,1,-6,11,1,0,0,0,0,0,0,1,,,,,,,,,,,,,,,,,,,,,,,,,,,,,,,,,,,,,,,,,,,,,,,,,,,,,,,,,,,,,,,,,,,,,,,,,,,,,,,,,,,,,,,,,,,,,,,,,,,,,,,,,,,
,,,,,,5fe24f4dcb7697decd41db77,62bbfc731293aa7ae4dc47f9,2022-06-29_09h25.38.278,Colour_Asymmetry_Pilot,2022.1.3,Win32,60.0240096,62bbe60bf3d75ef465d3e404,,,,,,,,,,,,,,,,,,,"[0.37240000000000006,0.4980000000000002,-0.2864]",threefour,"[-0.10599999999999998,-0.15300000000000002,0.15280000000000005]",-4,5.831,-35,68,1,0,0,response7disk_5,-3,-9,1,0,0,rectangle_8,-3,-9,1,0,0,1,-3,-9,1,0,0,1,0,1,0,1,,,,,,,,,,,,,,,,,,,,,,,,,,,,,,,,,,,,,,,,,,,,,,,,,,,,,,,,,,,,,,,,,,,,,,,,,,,,,,,,,,,,,,,,,,,,,,,,,,,,,,,,,,,
,,,,,,5fe24f4dcb7697decd41db77,62bbfc731293aa7ae4dc47f9,2022-06-29_09h25.38.278,Colour_Asymmetry_Pilot,2022.1.3,Win32,60.0240096,62bbe60bf3d75ef465d3e404,,,,,,,,,,,,,,,,,,,"[-0.2942,-0.24719999999999998,-0.357]",fourtwo,"[-0.17659999999999998,-0.2864,-0.8354]",-4,3.215,-48,114,1,0,0,response7disk_5,-6,2,1,0,0,rectangle_8,-6,2,1,0,0,1,-6,2,1,0,0,2,0,2,0,1,,,,,,,,,,,,,,,,,,,,,,,,,,,,,,,,,,,,,,,,,,,,,,,,,,,,,,,,,,,,,,,,,,,,,,,,,,,,,,,,,,,,,,,,,,,,,,,,,,,,,,,,,,,
,,,,,,5fe24f4dcb7697decd41db77,62bbfc731293aa7ae4dc47f9,2022-06-29_09h25.38.278,Colour_Asymmetry_Pilot,2022.1.3,Win32,60.0240096,62bbe60bf3d75ef465d3e404,,,,,,,,,,,,,,,,,,,"[-0.10599999999999998,-0.10599999999999998,0.5841999999999998]",twofour,"[-0.4746,-0.0354000000000001,0.5449999999999999]",4,2.338,43,86,1,0,0,response1disk_5,-14,-2,1,0,0,rectangle_8,33,-101,1,0,0,1,-6,-6,1,0,0,3,0,3,0,1,response3disk_7,4,rectangle_4,,,,,,,,,,,,,,,,,,,,,,,,,,,,,,,,,,,,,,,,,,,,,,,,,,,,,,,,,,,,,,,,,,,,,,,,,,,,,,,,,,,,,,,,,,,,,,,,,,,,,,,,
,,,,,,5fe24f4dcb7697decd41db77,62bbfc731293aa7ae4dc47f9,2022-06-29_09h25.38.278,Colour_Asymmetry_Pilot,2022.1.3,Win32,60.0240096,62bbe60bf3d75ef465d3e404,,,,,,,,,,,,,,,,,,,"[0.19199999999999995,0.18419999999999992,0.5136000000000001]",threefour,"[0.6547999999999998,-0.043199999999999905,-0.011800000000000033]",-4,2.449,-26,66,1,0,0,response7disk_5,-11,-1,1,0,0,rectangle_8,-11,-1,1,0,0,1,-11,-1,1,0,0,4,0,4,0,1,,,,,,,,,,,,,,,,,,,,,,,,,,,,,,,,,,,,,,,,,,,,,,,,,,,,,,,,,,,,,,,,,,,,,,,,,,,,,,,,,,,,,,,,,,,,,,,,,,,,,,,,,,,
,,,,,,5fe24f4dcb7697decd41db77,62bbfc731293aa7ae4dc47f9,2022-06-29_09h25.38.278,Colour_Asymmetry_Pilot,2022.1.3,Win32,60.0240096,62bbe60bf3d75ef465d3e404,,,,,,,,,,,,,,,,,,,"[0.23920000000000008,0.2704,0.16060000000000008]",twofour,"[0.8115999999999999,-0.0040000000000000036,-0.09819999999999995]",-4,1.184,-25,50,1,0,0,response7disk_5,-6,-6,1,0,0,rectangle_8,46,-105,1,0,0,1,23,-12,1,0,0,5,0,5,0,1,response3disk_7,4,rectangle_4,,,,,,,,,,,,,,,,,,,,,,,,,,,,,,,,,,,,,,,,,,,,,,,,,,,,,,,,,,,,,,,,,,,,,,,,,,,,,,,,,,,,,,,,,,,,,,,,,,,,,,,,
,,,,,,5fe24f4dcb7697decd41db77,62bbfc731293aa7ae4dc47f9,2022-06-29_09h25.38.278,Colour_Asymmetry_Pilot,2022.1.3,Win32,60.0240096,62bbe60bf3d75ef465d3e404,,,,,,,,,,,,,,,,,,,"[-0.6235999999999999,-0.6786,-0.08239999999999992]",onetwo,"[-0.30200000000000005,0.14500000000000002,0.2784]",1,4.233,45,-102,1,0,0,response3disk_5,14,-5,1,0,0,rectangle_8,14,-5,1,0,0,1,14,-5,1,0,0,6,0,6,0,1,,,,,,,,,,,,,,,,,,,,,,,,,,,,,,,,,,,,,,,,,,,,,,,,,,,,,,,,,,,,,,,,,,,,,,,,,,,,,,,,,,,,,,,,,,,,,,,,,,,,,,,,,,,
,,,,,,5fe24f4dcb7697decd41db77,62bbfc731293aa7ae4dc47f9,2022-06-29_09h25.38.278,Colour_Asymmetry_Pilot,2022.1.3,Win32,60.0240096,62bbe60bf3d75ef465d3e404,,,,,,,,,,,,,,,,,,,,onethree,,-4,1.385,,,,,,,,,,,,,,,,,,,,,,,,,,,,,,,,space,2.935,"[0.9763999999999999,0.8588,-0.05900000000000005]","[0.8115999999999999,-0.0040000000000000036,-0.09819999999999995]",-42,92,1,0,0,response7disk,-31,-2,1,0,0,rectangle,-31,-2,1,0,0,,3,0.002,0,-31,-2,1,0,0,0,0,0,69,1,69,first,,,,,,,,,,,,,,,,,,,,,,,,,,,,,,,,,,,,,,,,,,,,,,,,,,,,,,,,,,,,,,,,,,,
,,,,,,5fe24f4dcb7697decd41db77,62bbfc731293aa7ae4dc47f9,2022-06-29_09h25.38.278,Colour_Asymmetry_Pilot,2022.1.3,Win32,60.0240096,62bbe60bf3d75ef465d3e404,,,,,,,,,,,,,,,,,,,,onetwo,,-3,2.057,,,,,,,,,,,,,,,,,,,,,,,,,,,,,,,,,,"[-0.38039999999999996,-0.4276,-0.1452]","[-0.0040000000000000036,0.02739999999999987,-0.08239999999999992]",-66,43,1,0,0,response7disk,-10,12,1,0,0,rectangle,-10,12,1,0,0,,3,0.001,0,-10,12,1,0,0,0,1,1,75,1,75,first,,,,,,,,,,,,,,,,,,,,,,,,,,,,,,,,,,,,,,,,,,,,,,,,,,,,,,,,,,,,,,,,,,,
,,,,,,5fe24f4dcb7697decd41db77,62bbfc731293aa7ae4dc47f9,2022-06-29_09h25.38.278,Colour_Asymmetry_Pilot,2022.1.3,Win32,60.0240096,62bbe60bf3d75ef465d3e404,,,,,,,,,,,,,,,,,,,,onethree,,-4,1.024,,,,,,,,,,,,,,,,,,,,,,,,,,,,,,,,,,"[0.3568,-0.20799999999999996,-0.9844]","[0.7646000000000002,0.07440000000000002,0.2704]",-50,73,1,0,0,response7disk,9,1,1,0,0,rectangle,9,1,1,0,0,,1,0.003,0,9,1,1,0,0,0,2,2,20,1,20,first,,,,,,,,,,,,,,,,,,,,,,,,,,,,,,,,,,,,,,,,,,,,,,,,,,,,,,,,,,,,,,,,,,,
,,,,,,5fe24f4dcb7697decd41db77,62bbfc731293aa7ae4dc47f9,2022-06-29_09h25.38.278,Colour_Asymmetry_Pilot,2022.1.3,Win32,60.0240096,62bbe60bf3d75ef465d3e404,,,,,,,,,,,,,,,,,,,,fourtwo,,-4,1.421,,,,,,,,,,,,,,,,,,,,,,,,,,,,,,,,,,"[-0.6706000000000001,-0.6157999999999999,-0.6786]","[0.05879999999999996,0.2784,0.5841999999999998]",-49,84,1,0,0,response7disk,-13,2,1,0,0,rectangle,81,51,1,0,0,3,3,1.681,1,-1,-5,1,0,0,0,3,3,104,1,23,second,response1disk_3,rectangle,,,,,,,,,,,,,,,,,,,,,,,,,,,,,,,,,,,,,,,,,,,,,,,,,,,,,,,,,,,,,,,,,
,,,,,,5fe24f4dcb7697decd41db77,62bbfc731293aa7ae4dc47f9,2022-06-29_09h25.38.278,Colour_Asymmetry_Pilot,2022.1.3,Win32,60.0240096,62bbe60bf3d75ef465d3e404,,,,,,,,,,,,,,,,,,,,onethree,,-1,3.483,,,,,,,,,,,,,,,,,,,,,,,,,,,,,,,,,,"[-0.0040000000000000036,0.02739999999999987,-0.08239999999999992]","[0.04299999999999993,0.16060000000000008,-0.6628000000000001]",-22,-43,1,0,0,response5disk,1,-2,1,0,0,rectangle,1,-2,1,0,0,3,2,0.002,0,1,-2,1,0,0,0,4,4,37,1,37,first,,,,,,,,,,,,,,,,,,,,,,,,,,,,,,,,,,,,,,,,,,,,,,,,,,,,,,,,,,,,,,,,,,,
,,,,,,5fe24f4dcb7697decd41db77,62bbfc731293aa7ae4dc47f9,2022-06-29_09h25.38.278,Colour_Asymmetry_Pilot,2022.1.3,Win32,60.0240096,62bbe60bf3d75ef465d3e404,,,,,,,,,,,,,,,,,,,,threefour,,-4,1.215,,,,,,,,,,,,,,,,,,,,,,,,,,,,,,,,,,"[0.7646000000000002,0.07440000000000002,0.2704]","[0.9842,0.7409999999999999,-0.6628000000000001]",-56,78,1,0,0,response7disk,-7,8,1,0,0,rectangle,-7,8,1,0,0,3,3,0.001,0,-7,8,1,0,0,0,5,5,137,1,56,second,,,,,,,,,,,,,,,,,,,,,,,,,,,,,,,,,,,,,,,,,,,,,,,,,,,,,,,,,,,,,,,,,,,
,,,,,,5fe24f4dcb7697decd41db77,62bbfc731293aa7ae4dc47f9,2022-06-29_09h25.38.278,Colour_Asymmetry_Pilot,2022.1.3,Win32,60.0240096,62bbe60bf3d75ef465d3e404,,,,,,,,,,,,,,,,,,,,twoone,,-4,0.397,,,,,,,,,,,,,,,,,,,,,,,,,,,,,,,,,,"[-0.2942,-0.24719999999999998,-0.357]","[0.37240000000000006,0.4980000000000002,-0.2864]",-34,66,1,0,0,response7disk,9,11,1,0,0,rectangle,9,11,1,0,0,3,2,0.002,0,9,11,1,0,0,0,6,6,38,1,38,first,,,,,,,,,,,,,,,,,,,,,,,,,,,,,,,,,,,,,,,,,,,,,,,,,,,,,,,,,,,,,,,,,,,
,,,,,,5fe24f4dcb7697decd41db77,62bbfc731293aa7ae4dc47f9,2022-06-29_09h25.38.278,Colour_Asymmetry_Pilot,2022.1.3,Win32,60.0240096,62bbe60bf3d75ef465d3e404,,,,,,,,,,,,,,,,,,,,onethree,,-4,0.392,,,,,,,,,,,,,,,,,,,,,,,,,,,,,,,,,,"[-0.8982,-0.37259999999999993,0.2784]","[0.30180000000000007,-0.7884,-0.9844]",-32,73,1,0,0,response7disk,-9,10,1,0,0,rectangle,46,-84,1,0,0,1,1,1.295,1,7,6,1,0,0,0,7,7,97,1,16,second,response3disk_3,rectangle,,,,,,,,,,,,,,,,,,,,,,,,,,,,,,,,,,,,,,,,,,,,,,,,,,,,,,,,,,,,,,,,,
,,,,,,5fe24f4dcb7697decd41db77,62bbfc731293aa7ae4dc47f9,2022-06-29_09h25.38.278,Colour_Asymmetry_Pilot,2022.1.3,Win32,60.0240096,62bbe60bf3d75ef465d3e404,,,,,,,,,,,,,,,,,,,,twofour,,4,0.8,,,,,,,,,,,,,,,,,,,,,,,,,,,,,,,,,,"[-0.6235999999999999,-0.6786,-0.08239999999999992]","[-0.9216,-0.5529999999999999,-0.3962]",30,75,1,0,0,response1disk,1,0,1,0,0,rectangle,1,0,1,0,0,1,1,0,0,1,0,1,0,0,0,8,8,60,1,60,first,,,,,,,,,,,,,,,,,,,,,,,,,,,,,,,,,,,,,,,,,,,,,,,,,,,,,,,,,,,,,,,,,,,
,,,,,,5fe24f4dcb7697decd41db77,62bbfc731293aa7ae4dc47f9,2022-06-29_09h25.38.278,Colour_Asymmetry_Pilot,2022.1.3,Win32,60.0240096,62bbe60bf3d75ef465d3e404,,,,,,,,,,,,,,,,,,,,twofour,,1,1.056,,,,,,,,,,,,,,,,,,,,,,,,,,,,,,,,,,"[-0.01980000000000004,-0.5138,-0.38039999999999996]","[-0.17659999999999998,-0.2864,-0.8354]",43,-93,1,0,0,response3disk,-12,-12,1,0,0,rectangle,-12,-12,1,0,0,1,2,0.005,0,-12,-12,1,0,0,0,9,9,10,1,10,first,,,,,,,,,,,,,,,,,,,,,,,,,,,,,,,,,,,,,,,,,,,,,,,,,,,,,,,,,,,,,,,,,,,
,,,,,,5fe24f4dcb7697decd41db77,62bbfc731293aa7ae4dc47f9,2022-06-29_09h25.38.278,Colour_Asymmetry_Pilot,2022.1.3,Win32,60.0240096,62bbe60bf3d75ef465d3e404,,,,,,,,,,,,,,,,,,,,threefour,,2,1.017,,,,,,,,,,,,,,,,,,,,,,,,,,,,,,,,,,"[0.37240000000000006,0.4980000000000002,-0.2864]","[-0.07459999999999989,0.12139999999999995,-0.9922]",104,-50,1,0,0,response3disk,2,3,1,0,0,rectangle,2,3,1,0,0,1,3,0.002,0,2,3,1,0,0,0,10,10,24,1,24,first,,,,,,,,,,,,,,,,,,,,,,,,,,,,,,,,,,,,,,,,,,,,,,,,,,,,,,,,,,,,,,,,,,,
,,,,,,5fe24f4dcb7697decd41db77,62bbfc731293aa7ae4dc47f9,2022-06-29_09h25.38.278,Colour_Asymmetry_Pilot,2022.1.3,Win32,60.0240096,62bbe60bf3d75ef465d3e404,,,,,,,,,,,,,,,,,,,,fourthree,,-4,1.149,,,,,,,,,,,,,,,,,,,,,,,,,,,,,,,,,,"[-0.9216,-0.5529999999999999,-0.3962]","[-0.06680000000000008,-0.45100000000000007,-0.906]",-45,82,1,0,0,response7disk,-8,-11,1,0,0,rectangle,-8,-11,1,0,0,1,1,0.004,0,-8,-11,1,0,0,0,11,11,93,1,12,second,,,,,,,,,,,,,,,,,,,,,,,,,,,,,,,,,,,,,,,,,,,,,,,,,,,,,,,,,,,,,,,,,,,
,,,,,,5fe24f4dcb7697decd41db77,62bbfc731293aa7ae4dc47f9,2022-06-29_09h25.38.278,Colour_Asymmetry_Pilot,2022.1.3,Win32,60.0240096,62bbe60bf3d75ef465d3e404,,,,,,,,,,,,,,,,,,,,twoone,,-3,0.74,,,,,,,,,,,,,,,,,,,,,,,,,,,,,,,,,,"[-0.17659999999999998,-0.2864,-0.8354]","[0.796,0.2156,-0.27859999999999996]",-51,26,1,0,0,response7disk,-9,1,1,0,0,rectangle,-9,1,1,0,0,1,2,0.002,0,-9,1,1,0,0,0,12,12,139,1,58,second,,,,,,,,,,,,,,,,,,,,,,,,,,,,,,,,,,,,,,,,,,,,,,,,,,,,,,,,,,,,,,,,,,,
,,,,,,5fe24f4dcb7697decd41db77,62bbfc731293aa7ae4dc47f9,2022-06-29_09h25.38.278,Colour_Asymmetry_Pilot,2022.1.3,Win32,60.0240096,62bbe60bf3d75ef465d3e404,,,,,,,,,,,,,,,,,,,,onetwo,,2,1.383,,,,,,,,,,,,,,,,,,,,,,,,,,,,,,,,,,"[-0.6942,-0.7648,-0.12959999999999994]","[-0.5452,-0.608,0.2470000000000001]",74,-28,1,0,0,response3disk,15,6,1,0,0,rectangle,15,6,1,0,0,1,1,0.006,0,15,6,1,0,0,0,13,13,115,1,34,second,,,,,,,,,,,,,,,,,,,,,,,,,,,,,,,,,,,,,,,,,,,,,,,,,,,,,,,,,,,,,,,,,,,
,,,,,,5fe24f4dcb7697decd41db77,62bbfc731293aa7ae4dc47f9,2022-06-29_09h25.38.278,Colour_Asymmetry_Pilot,2022.1.3,Win32,60.0240096,62bbe60bf3d75ef465d3e404,,,,,,,,,,,,,,,,,,,,threeone,,-1,1.419,,,,,,,,,,,,,,,,,,,,,,,,,,,,,,,,,,"[-0.2942,-0.24719999999999998,-0.357]","[-0.9688,-0.7412000000000001,-0.4902000000000001]",-24,-74,1,0,0,response5disk,-2,0,1,0,0,rectangle,40,-66,1,0,0,1,1,1.2,1,-2,0,1,0,0,0,14,14,161,1,80,second,response3disk_3,rectangle,,,,,,,,,,,,,,,,,,,,,,,,,,,,,,,,,,,,,,,,,,,,,,,,,,,,,,,,,,,,,,,,,
,,,,,,5fe24f4dcb7697decd41db77,62bbfc731293aa7ae4dc47f9,2022-06-29_09h25.38.278,Colour_Asymmetry_Pilot,2022.1.3,Win32,60.0240096,62bbe60bf3d75ef465d3e404,,,,,,,,,,,,,,,,,,,,fourthree,,1,0.916,,,,,,,,,,,,,,,,,,,,,,,,,,,,,,,,,,"[-0.07459999999999989,0.12139999999999995,-0.9922]","[0.37240000000000006,0.4980000000000002,-0.2864]",35,-80,1,0,0,response3disk,-18,-12,1,0,0,rectangle,-18,-12,1,0,0,1,3,0.004,0,-18,-12,1,0,0,0,15,15,105,1,24,second,,,,,,,,,,,,,,,,,,,,,,,,,,,,,,,,,,,,,,,,,,,,,,,,,,,,,,,,,,,,,,,,,,,
,,,,,,5fe24f4dcb7697decd41db77,62bbfc731293aa7ae4dc47f9,2022-06-29_09h25.38.278,Colour_Asymmetry_Pilot,2022.1.3,Win32,60.0240096,62bbe60bf3d75ef465d3e404,,,,,,,,,,,,,,,,,,,,fourtwo,,-2,1.466,,,,,,,,,,,,,,,,,,,,,,,,,,,,,,,,,,"[0.796,0.2156,-0.27859999999999996]","[0.22340000000000004,-0.9296,-0.7884]",-59,-43,1,0,0,response5disk,22,-3,1,0,0,rectangle,22,-3,1,0,0,1,2,0.006,0,22,-3,1,0,0,0,16,16,99,1,18,second,,,,,,,,,,,,,,,,,,,,,,,,,,,,,,,,,,,,,,,,,,,,,,,,,,,,,,,,,,,,,,,,,,,
,,,,,,5fe24f4dcb7697decd41db77,62bbfc731293aa7ae4dc47f9,2022-06-29_09h25.38.278,Colour_Asymmetry_Pilot,2022.1.3,Win32,60.0240096,62bbe60bf3d75ef465d3e404,,,,,,,,,,,,,,,,,,,,twoone,,-3,0.555,,,,,,,,,,,,,,,,,,,,,,,,,,,,,,,,,,"[0.796,0.2156,-0.27859999999999996]","[-0.17659999999999998,-0.2864,-0.8354]",-68,32,1,0,0,response7disk,-6,5,1,0,0,rectangle,-6,5,1,0,0,1,3,0.004,0,-6,5,1,0,0,0,17,17,58,1,58,first,,,,,,,,,,,,,,,,,,,,,,,,,,,,,,,,,,,,,,,,,,,,,,,,,,,,,,,,,,,,,,,,,,,
,,,,,,5fe24f4dcb7697decd41db77,62bbfc731293aa7ae4dc47f9,2022-06-29_09h25.38.278,Colour_Asymmetry_Pilot,2022.1.3,Win32,60.0240096,62bbe60bf3d75ef465d3e404,,,,,,,,,,,,,,,,,,,,onetwo,,-4,0.478,,,,,,,,,,,,,,,,,,,,,,,,,,,,,,,,,,"[0.8115999999999999,-0.0040000000000000036,-0.09819999999999995]","[0.9763999999999999,0.8588,-0.05900000000000005]",-35,58,1,0,0,response7disk,-5,-7,1,0,0,rectangle,-5,-7,1,0,0,1,1,0.002,0,-5,-7,1,0,0,0,18,18,150,1,69,second,,,,,,,,,,,,,,,,,,,,,,,,,,,,,,,,,,,,,,,,,,,,,,,,,,,,,,,,,,,,,,,,,,,
,,,,,,5fe24f4dcb7697decd41db77,62bbfc731293aa7ae4dc47f9,2022-06-29_09h25.38.278,Colour_Asymmetry_Pilot,2022.1.3,Win32,60.0240096,62bbe60bf3d75ef465d3e404,,,,,,,,,,,,,,,,,,,,onethree,,-4,0.433,,,,,,,,,,,,,,,,,,,,,,,,,,,,,,,,,,"[0.8115999999999999,-0.0040000000000000036,-0.09819999999999995]","[-0.8118,-0.8198,-0.5452]",-41,68,1,0,0,response7disk,-14,-6,1,0,0,rectangle,-14,-6,1,0,0,1,2,0,0,-14,-6,1,0,0,0,19,19,50,1,50,first,,,,,,,,,,,,,,,,,,,,,,,,,,,,,,,,,,,,,,,,,,,,,,,,,,,,,,,,,,,,,,,,,,,
,,,,,,5fe24f4dcb7697decd41db77,62bbfc731293aa7ae4dc47f9,2022-06-29_09h25.38.278,Colour_Asymmetry_Pilot,2022.1.3,Win32,60.0240096,62bbe60bf3d75ef465d3e404,,,,,,,,,,,,,,,,,,,,onethree,,-1,0.591,,,,,,,,,,,,,,,,,,,,,,,,,,,,,,,,,,"[0.9763999999999999,0.30979999999999985,-0.6786]","[0.5528,0.7409999999999999,-0.71]",-45,-62,1,0,0,response5disk,-9,-1,1,0,0,rectangle,-9,-1,1,0,0,1,1,0.002,0,-9,-1,1,0,0,0,20,20,6,1,6,first,,,,,,,,,,,,,,,,,,,,,,,,,,,,,,,,,,,,,,,,,,,,,,,,,,,,,,,,,,,,,,,,,,,
