trials.thisRepN,trials.thisTrialN,trials.thisN,trials.thisIndex,trials.ran,Colourcodes,participant,session,date,expName,psychopyVersion,OS,frameRate,study_id,trials_4.thisRepN,trials_4.thisTrialN,trials_4.thisN,trials_4.thisIndex,trials_4.ran,StimulusPos,key_resp.keys,key_resp.rt,key_resp_2.keys,key_resp_2.rt,key_resp_15.keys,key_resp_15.rt,key_resp_17.keys,key_resp_17.rt,key_resp_9.keys,key_resp_9.rt,key_resp_10.keys,key_resp_10.rt,Circle1_col,Ecc,Circle2_col,similarity,response_time,mouse_5.x,mouse_5.y,mouse_5.leftButton,mouse_5.midButton,mouse_5.rightButton,mouse_5.clicked_name,mouse_10.x,mouse_10.y,mouse_10.leftButton,mouse_10.midButton,mouse_10.rightButton,mouse_10.clicked_name,mouse_7.x,mouse_7.y,mouse_7.leftButton,mouse_7.midButton,mouse_7.rightButton,catchnumberprac,mouse_6.x,mouse_6.y,mouse_6.leftButton,mouse_6.midButton,mouse_6.rightButton,duringprac.thisRepN,duringprac.thisTrialN,duringprac.thisN,duringprac.thisIndex,duringprac.ran,mouse_7.clicked_name,catchprac,mouse_6.clicked_name,key_resp_22.keys,key_resp_22.rt,Circle1_colour,Circle2_colour,mouse.x,mouse.y,mouse.leftButton,mouse.midButton,mouse.rightButton,mouse.clicked_name,mouse_2.x,mouse_2.y,mouse_2.leftButton,mouse_2.midButton,mouse_2.rightButton,mouse_2.clicked_name,mouse_3.x,mouse_3.y,mouse_3.leftButton,mouse_3.midButton,mouse_3.rightButton,catchresponse,catchnumber,response_time_catch,Catch,mouse_11.x,mouse_11.y,mouse_11.leftButton,mouse_11.midButton,mouse_11.rightButton,trials_2.thisRepN,trials_2.thisTrialN,trials_2.thisN,trials_2.thisIndex,trials_2.ran,Colourpair,Temporder,mouse_3.clicked_name,mouse_11.clicked_name,trials_3.thisRepN,trials_3.thisTrialN,trials_3.thisN,trials_3.thisIndex,trials_3.ran,key_resp_instr_Ishi.keys,key_resp_instr_Ishi.rt,Ishi_trial_keyresp.keys,Ishi_trial_keyresp.rt,Ishi_textbox.text,Ishi_loop.thisRepN,Ishi_loop.thisTrialN,Ishi_loop.thisN,Ishi_loop.thisIndex,Ishi_loop.ran,imageaddress,textbox.text,mouse_4.x,mouse_4.y,mouse_4.leftButton,mouse_4.midButton,mouse_4.rightButton,mouse_4.clicked_name,textbox_2.text,mouse_8.x,mouse_8.y,mouse_8.leftButton,mouse_8.midButton,mouse_8.rightButton,mouse_8.clicked_name,textbox_3.text,mouse_9.x,mouse_9.y,mouse_9.leftButton,mouse_9.midButton,mouse_9.rightButton,mouse_9.clicked_name,textbox_4.text,mouse_12.x,mouse_12.y,mouse_12.leftButton,mouse_12.midButton,mouse_12.rightButton,mouse_12.clicked_name,textbox_5.text,mouse_13.x,mouse_13.y,mouse_13.leftButton,mouse_13.midButton,mouse_13.rightButton,mouse_13.clicked_name,textbox_6.text,mouse_14.x,mouse_14.y,mouse_14.leftButton,mouse_14.midButton,mouse_14.rightButton,mouse_14.clicked_name,textbox_7.text,mouse_15.x,mouse_15.y,mouse_15.leftButton,mouse_15.midButton,mouse_15.rightButton,mouse_15.clicked_name
0,0,0,22,1,,60df2618cedb346e436a28cf,62bbf96d6f5790797999c19e,2022-06-29_09h04.40.368,Colour_Asymmetry_Pilot,2022.1.3,Win32,59.92329818,62bbe60bf3d75ef465d3e404,,,,,,,,,,,,,,,,,,,,,,,,,,,,,,,,,,,,,,,,,,,,,,,,,,,,,,,,,,,,,,,,,,,,,,,,,,,,,,,,,,,,,,,,,,,,,,,,,,,,,,,,,,,,,,,,,,,,,,,,,,,,,,,,,,,,,,,,,,,,,,,,,,,,,,,,,,,,,,
0,1,1,6,1,,60df2618cedb346e436a28cf,62bbf96d6f5790797999c19e,2022-06-29_09h04.40.368,Colour_Asymmetry_Pilot,2022.1.3,Win32,59.92329818,62bbe60bf3d75ef465d3e404,,,,,,,,,,,,,,,,,,,,,,,,,,,,,,,,,,,,,,,,,,,,,,,,,,,,,,,,,,,,,,,,,,,,,,,,,,,,,,,,,,,,,,,,,,,,,,,,,,,,,,,,,,,,,,,,,,,,,,,,,,,,,,,,,,,,,,,,,,,,,,,,,,,,,,,,,,,,,,
0,2,2,88,1,,60df2618cedb346e436a28cf,62bbf96d6f5790797999c19e,2022-06-29_09h04.40.368,Colour_Asymmetry_Pilot,2022.1.3,Win32,59.92329818,62bbe60bf3d75ef465d3e404,,,,,,,,,,,,,,,,,,,,,,,,,,,,,,,,,,,,,,,,,,,,,,,,,,,,,,,,,,,,,,,,,,,,,,,,,,,,,,,,,,,,,,,,,,,,,,,,,,,,,,,,,,,,,,,,,,,,,,,,,,,,,,,,,,,,,,,,,,,,,,,,,,,,,,,,,,,,,,
0,3,3,58,1,,60df2618cedb346e436a28cf,62bbf96d6f5790797999c19e,2022-06-29_09h04.40.368,Colour_Asymmetry_Pilot,2022.1.3,Win32,59.92329818,62bbe60bf3d75ef465d3e404,,,,,,,,,,,,,,,,,,,,,,,,,,,,,,,,,,,,,,,,,,,,,,,,,,,,,,,,,,,,,,,,,,,,,,,,,,,,,,,,,,,,,,,,,,,,,,,,,,,,,,,,,,,,,,,,,,,,,,,,,,,,,,,,,,,,,,,,,,,,,,,,,,,,,,,,,,,,,,
0,4,4,47,1,,60df2618cedb346e436a28cf,62bbf96d6f5790797999c19e,2022-06-29_09h04.40.368,Colour_Asymmetry_Pilot,2022.1.3,Win32,59.92329818,62bbe60bf3d75ef465d3e404,,,,,,,,,,,,,,,,,,,,,,,,,,,,,,,,,,,,,,,,,,,,,,,,,,,,,,,,,,,,,,,,,,,,,,,,,,,,,,,,,,,,,,,,,,,,,,,,,,,,,,,,,,,,,,,,,,,,,,,,,,,,,,,,,,,,,,,,,,,,,,,,,,,,,,,,,,,,,,
0,5,5,39,1,,60df2618cedb346e436a28cf,62bbf96d6f5790797999c19e,2022-06-29_09h04.40.368,Colour_Asymmetry_Pilot,2022.1.3,Win32,59.92329818,62bbe60bf3d75ef465d3e404,,,,,,,,,,,,,,,,,,,,,,,,,,,,,,,,,,,,,,,,,,,,,,,,,,,,,,,,,,,,,,,,,,,,,,,,,,,,,,,,,,,,,,,,,,,,,,,,,,,,,,,,,,,,,,,,,,,,,,,,,,,,,,,,,,,,,,,,,,,,,,,,,,,,,,,,,,,,,,
0,6,6,28,1,,60df2618cedb346e436a28cf,62bbf96d6f5790797999c19e,2022-06-29_09h04.40.368,Colour_Asymmetry_Pilot,2022.1.3,Win32,59.92329818,62bbe60bf3d75ef465d3e404,,,,,,,,,,,,,,,,,,,,,,,,,,,,,,,,,,,,,,,,,,,,,,,,,,,,,,,,,,,,,,,,,,,,,,,,,,,,,,,,,,,,,,,,,,,,,,,,,,,,,,,,,,,,,,,,,,,,,,,,,,,,,,,,,,,,,,,,,,,,,,,,,,,,,,,,,,,,,,
0,7,7,4,1,,60df2618cedb346e436a28cf,62bbf96d6f5790797999c19e,2022-06-29_09h04.40.368,Colour_Asymmetry_Pilot,2022.1.3,Win32,59.92329818,62bbe60bf3d75ef465d3e404,,,,,,,,,,,,,,,,,,,,,,,,,,,,,,,,,,,,,,,,,,,,,,,,,,,,,,,,,,,,,,,,,,,,,,,,,,,,,,,,,,,,,,,,,,,,,,,,,,,,,,,,,,,,,,,,,,,,,,,,,,,,,,,,,,,,,,,,,,,,,,,,,,,,,,,,,,,,,,
0,8,8,66,1,,60df2618cedb346e436a28cf,62bbf96d6f5790797999c19e,2022-06-29_09h04.40.368,Colour_Asymmetry_Pilot,2022.1.3,Win32,59.92329818,62bbe60bf3d75ef465d3e404,,,,,,,,,,,,,,,,,,,,,,,,,,,,,,,,,,,,,,,,,,,,,,,,,,,,,,,,,,,,,,,,,,,,,,,,,,,,,,,,,,,,,,,,,,,,,,,,,,,,,,,,,,,,,,,,,,,,,,,,,,,,,,,,,,,,,,,,,,,,,,,,,,,,,,,,,,,,,,
0,9,9,74,1,,60df2618cedb346e436a28cf,62bbf96d6f5790797999c19e,2022-06-29_09h04.40.368,Colour_Asymmetry_Pilot,2022.1.3,Win32,59.92329818,62bbe60bf3d75ef465d3e404,,,,,,,,,,,,,,,,,,,,,,,,,,,,,,,,,,,,,,,,,,,,,,,,,,,,,,,,,,,,,,,,,,,,,,,,,,,,,,,,,,,,,,,,,,,,,,,,,,,,,,,,,,,,,,,,,,,,,,,,,,,,,,,,,,,,,,,,,,,,,,,,,,,,,,,,,,,,,,
0,10,10,81,1,,60df2618cedb346e436a28cf,62bbf96d6f5790797999c19e,2022-06-29_09h04.40.368,Colour_Asymmetry_Pilot,2022.1.3,Win32,59.92329818,62bbe60bf3d75ef465d3e404,,,,,,,,,,,,,,,,,,,,,,,,,,,,,,,,,,,,,,,,,,,,,,,,,,,,,,,,,,,,,,,,,,,,,,,,,,,,,,,,,,,,,,,,,,,,,,,,,,,,,,,,,,,,,,,,,,,,,,,,,,,,,,,,,,,,,,,,,,,,,,,,,,,,,,,,,,,,,,
0,11,11,79,1,,60df2618cedb346e436a28cf,62bbf96d6f5790797999c19e,2022-06-29_09h04.40.368,Colour_Asymmetry_Pilot,2022.1.3,Win32,59.92329818,62bbe60bf3d75ef465d3e404,,,,,,,,,,,,,,,,,,,,,,,,,,,,,,,,,,,,,,,,,,,,,,,,,,,,,,,,,,,,,,,,,,,,,,,,,,,,,,,,,,,,,,,,,,,,,,,,,,,,,,,,,,,,,,,,,,,,,,,,,,,,,,,,,,,,,,,,,,,,,,,,,,,,,,,,,,,,,,
0,12,12,86,1,,60df2618cedb346e436a28cf,62bbf96d6f5790797999c19e,2022-06-29_09h04.40.368,Colour_Asymmetry_Pilot,2022.1.3,Win32,59.92329818,62bbe60bf3d75ef465d3e404,,,,,,,,,,,,,,,,,,,,,,,,,,,,,,,,,,,,,,,,,,,,,,,,,,,,,,,,,,,,,,,,,,,,,,,,,,,,,,,,,,,,,,,,,,,,,,,,,,,,,,,,,,,,,,,,,,,,,,,,,,,,,,,,,,,,,,,,,,,,,,,,,,,,,,,,,,,,,,
0,13,13,37,1,,60df2618cedb346e436a28cf,62bbf96d6f5790797999c19e,2022-06-29_09h04.40.368,Colour_Asymmetry_Pilot,2022.1.3,Win32,59.92329818,62bbe60bf3d75ef465d3e404,,,,,,,,,,,,,,,,,,,,,,,,,,,,,,,,,,,,,,,,,,,,,,,,,,,,,,,,,,,,,,,,,,,,,,,,,,,,,,,,,,,,,,,,,,,,,,,,,,,,,,,,,,,,,,,,,,,,,,,,,,,,,,,,,,,,,,,,,,,,,,,,,,,,,,,,,,,,,,
0,14,14,91,1,,60df2618cedb346e436a28cf,62bbf96d6f5790797999c19e,2022-06-29_09h04.40.368,Colour_Asymmetry_Pilot,2022.1.3,Win32,59.92329818,62bbe60bf3d75ef465d3e404,,,,,,,,,,,,,,,,,,,,,,,,,,,,,,,,,,,,,,,,,,,,,,,,,,,,,,,,,,,,,,,,,,,,,,,,,,,,,,,,,,,,,,,,,,,,,,,,,,,,,,,,,,,,,,,,,,,,,,,,,,,,,,,,,,,,,,,,,,,,,,,,,,,,,,,,,,,,,,
0,15,15,61,1,,60df2618cedb346e436a28cf,62bbf96d6f5790797999c19e,2022-06-29_09h04.40.368,Colour_Asymmetry_Pilot,2022.1.3,Win32,59.92329818,62bbe60bf3d75ef465d3e404,,,,,,,,,,,,,,,,,,,,,,,,,,,,,,,,,,,,,,,,,,,,,,,,,,,,,,,,,,,,,,,,,,,,,,,,,,,,,,,,,,,,,,,,,,,,,,,,,,,,,,,,,,,,,,,,,,,,,,,,,,,,,,,,,,,,,,,,,,,,,,,,,,,,,,,,,,,,,,
0,16,16,73,1,,60df2618cedb346e436a28cf,62bbf96d6f5790797999c19e,2022-06-29_09h04.40.368,Colour_Asymmetry_Pilot,2022.1.3,Win32,59.92329818,62bbe60bf3d75ef465d3e404,,,,,,,,,,,,,,,,,,,,,,,,,,,,,,,,,,,,,,,,,,,,,,,,,,,,,,,,,,,,,,,,,,,,,,,,,,,,,,,,,,,,,,,,,,,,,,,,,,,,,,,,,,,,,,,,,,,,,,,,,,,,,,,,,,,,,,,,,,,,,,,,,,,,,,,,,,,,,,
0,17,17,21,1,,60df2618cedb346e436a28cf,62bbf96d6f5790797999c19e,2022-06-29_09h04.40.368,Colour_Asymmetry_Pilot,2022.1.3,Win32,59.92329818,62bbe60bf3d75ef465d3e404,,,,,,,,,,,,,,,,,,,,,,,,,,,,,,,,,,,,,,,,,,,,,,,,,,,,,,,,,,,,,,,,,,,,,,,,,,,,,,,,,,,,,,,,,,,,,,,,,,,,,,,,,,,,,,,,,,,,,,,,,,,,,,,,,,,,,,,,,,,,,,,,,,,,,,,,,,,,,,
0,18,18,34,1,,60df2618cedb346e436a28cf,62bbf96d6f5790797999c19e,2022-06-29_09h04.40.368,Colour_Asymmetry_Pilot,2022.1.3,Win32,59.92329818,62bbe60bf3d75ef465d3e404,,,,,,,,,,,,,,,,,,,,,,,,,,,,,,,,,,,,,,,,,,,,,,,,,,,,,,,,,,,,,,,,,,,,,,,,,,,,,,,,,,,,,,,,,,,,,,,,,,,,,,,,,,,,,,,,,,,,,,,,,,,,,,,,,,,,,,,,,,,,,,,,,,,,,,,,,,,,,,
0,19,19,0,1,,60df2618cedb346e436a28cf,62bbf96d6f5790797999c19e,2022-06-29_09h04.40.368,Colour_Asymmetry_Pilot,2022.1.3,Win32,59.92329818,62bbe60bf3d75ef465d3e404,,,,,,,,,,,,,,,,,,,,,,,,,,,,,,,,,,,,,,,,,,,,,,,,,,,,,,,,,,,,,,,,,,,,,,,,,,,,,,,,,,,,,,,,,,,,,,,,,,,,,,,,,,,,,,,,,,,,,,,,,,,,,,,,,,,,,,,,,,,,,,,,,,,,,,,,,,,,,,
0,20,20,57,1,,60df2618cedb346e436a28cf,62bbf96d6f5790797999c19e,2022-06-29_09h04.40.368,Colour_Asymmetry_Pilot,2022.1.3,Win32,59.92329818,62bbe60bf3d75ef465d3e404,,,,,,,,,,,,,,,,,,,,,,,,,,,,,,,,,,,,,,,,,,,,,,,,,,,,,,,,,,,,,,,,,,,,,,,,,,,,,,,,,,,,,,,,,,,,,,,,,,,,,,,,,,,,,,,,,,,,,,,,,,,,,,,,,,,,,,,,,,,,,,,,,,,,,,,,,,,,,,
0,21,21,68,1,,60df2618cedb346e436a28cf,62bbf96d6f5790797999c19e,2022-06-29_09h04.40.368,Colour_Asymmetry_Pilot,2022.1.3,Win32,59.92329818,62bbe60bf3d75ef465d3e404,,,,,,,,,,,,,,,,,,,,,,,,,,,,,,,,,,,,,,,,,,,,,,,,,,,,,,,,,,,,,,,,,,,,,,,,,,,,,,,,,,,,,,,,,,,,,,,,,,,,,,,,,,,,,,,,,,,,,,,,,,,,,,,,,,,,,,,,,,,,,,,,,,,,,,,,,,,,,,
0,22,22,27,1,,60df2618cedb346e436a28cf,62bbf96d6f5790797999c19e,2022-06-29_09h04.40.368,Colour_Asymmetry_Pilot,2022.1.3,Win32,59.92329818,62bbe60bf3d75ef465d3e404,,,,,,,,,,,,,,,,,,,,,,,,,,,,,,,,,,,,,,,,,,,,,,,,,,,,,,,,,,,,,,,,,,,,,,,,,,,,,,,,,,,,,,,,,,,,,,,,,,,,,,,,,,,,,,,,,,,,,,,,,,,,,,,,,,,,,,,,,,,,,,,,,,,,,,,,,,,,,,
0,23,23,82,1,,60df2618cedb346e436a28cf,62bbf96d6f5790797999c19e,2022-06-29_09h04.40.368,Colour_Asymmetry_Pilot,2022.1.3,Win32,59.92329818,62bbe60bf3d75ef465d3e404,,,,,,,,,,,,,,,,,,,,,,,,,,,,,,,,,,,,,,,,,,,,,,,,,,,,,,,,,,,,,,,,,,,,,,,,,,,,,,,,,,,,,,,,,,,,,,,,,,,,,,,,,,,,,,,,,,,,,,,,,,,,,,,,,,,,,,,,,,,,,,,,,,,,,,,,,,,,,,
0,24,24,71,1,,60df2618cedb346e436a28cf,62bbf96d6f5790797999c19e,2022-06-29_09h04.40.368,Colour_Asymmetry_Pilot,2022.1.3,Win32,59.92329818,62bbe60bf3d75ef465d3e404,,,,,,,,,,,,,,,,,,,,,,,,,,,,,,,,,,,,,,,,,,,,,,,,,,,,,,,,,,,,,,,,,,,,,,,,,,,,,,,,,,,,,,,,,,,,,,,,,,,,,,,,,,,,,,,,,,,,,,,,,,,,,,,,,,,,,,,,,,,,,,,,,,,,,,,,,,,,,,
0,25,25,42,1,,60df2618cedb346e436a28cf,62bbf96d6f5790797999c19e,2022-06-29_09h04.40.368,Colour_Asymmetry_Pilot,2022.1.3,Win32,59.92329818,62bbe60bf3d75ef465d3e404,,,,,,,,,,,,,,,,,,,,,,,,,,,,,,,,,,,,,,,,,,,,,,,,,,,,,,,,,,,,,,,,,,,,,,,,,,,,,,,,,,,,,,,,,,,,,,,,,,,,,,,,,,,,,,,,,,,,,,,,,,,,,,,,,,,,,,,,,,,,,,,,,,,,,,,,,,,,,,
0,26,26,75,1,,60df2618cedb346e436a28cf,62bbf96d6f5790797999c19e,2022-06-29_09h04.40.368,Colour_Asymmetry_Pilot,2022.1.3,Win32,59.92329818,62bbe60bf3d75ef465d3e404,,,,,,,,,,,,,,,,,,,,,,,,,,,,,,,,,,,,,,,,,,,,,,,,,,,,,,,,,,,,,,,,,,,,,,,,,,,,,,,,,,,,,,,,,,,,,,,,,,,,,,,,,,,,,,,,,,,,,,,,,,,,,,,,,,,,,,,,,,,,,,,,,,,,,,,,,,,,,,
0,27,27,19,1,,60df2618cedb346e436a28cf,62bbf96d6f5790797999c19e,2022-06-29_09h04.40.368,Colour_Asymmetry_Pilot,2022.1.3,Win32,59.92329818,62bbe60bf3d75ef465d3e404,,,,,,,,,,,,,,,,,,,,,,,,,,,,,,,,,,,,,,,,,,,,,,,,,,,,,,,,,,,,,,,,,,,,,,,,,,,,,,,,,,,,,,,,,,,,,,,,,,,,,,,,,,,,,,,,,,,,,,,,,,,,,,,,,,,,,,,,,,,,,,,,,,,,,,,,,,,,,,
0,28,28,10,1,,60df2618cedb346e436a28cf,62bbf96d6f5790797999c19e,2022-06-29_09h04.40.368,Colour_Asymmetry_Pilot,2022.1.3,Win32,59.92329818,62bbe60bf3d75ef465d3e404,,,,,,,,,,,,,,,,,,,,,,,,,,,,,,,,,,,,,,,,,,,,,,,,,,,,,,,,,,,,,,,,,,,,,,,,,,,,,,,,,,,,,,,,,,,,,,,,,,,,,,,,,,,,,,,,,,,,,,,,,,,,,,,,,,,,,,,,,,,,,,,,,,,,,,,,,,,,,,
0,29,29,38,1,,60df2618cedb346e436a28cf,62bbf96d6f5790797999c19e,2022-06-29_09h04.40.368,Colour_Asymmetry_Pilot,2022.1.3,Win32,59.92329818,62bbe60bf3d75ef465d3e404,,,,,,,,,,,,,,,,,,,,,,,,,,,,,,,,,,,,,,,,,,,,,,,,,,,,,,,,,,,,,,,,,,,,,,,,,,,,,,,,,,,,,,,,,,,,,,,,,,,,,,,,,,,,,,,,,,,,,,,,,,,,,,,,,,,,,,,,,,,,,,,,,,,,,,,,,,,,,,
0,30,30,41,1,,60df2618cedb346e436a28cf,62bbf96d6f5790797999c19e,2022-06-29_09h04.40.368,Colour_Asymmetry_Pilot,2022.1.3,Win32,59.92329818,62bbe60bf3d75ef465d3e404,,,,,,,,,,,,,,,,,,,,,,,,,,,,,,,,,,,,,,,,,,,,,,,,,,,,,,,,,,,,,,,,,,,,,,,,,,,,,,,,,,,,,,,,,,,,,,,,,,,,,,,,,,,,,,,,,,,,,,,,,,,,,,,,,,,,,,,,,,,,,,,,,,,,,,,,,,,,,,
0,31,31,48,1,,60df2618cedb346e436a28cf,62bbf96d6f5790797999c19e,2022-06-29_09h04.40.368,Colour_Asymmetry_Pilot,2022.1.3,Win32,59.92329818,62bbe60bf3d75ef465d3e404,,,,,,,,,,,,,,,,,,,,,,,,,,,,,,,,,,,,,,,,,,,,,,,,,,,,,,,,,,,,,,,,,,,,,,,,,,,,,,,,,,,,,,,,,,,,,,,,,,,,,,,,,,,,,,,,,,,,,,,,,,,,,,,,,,,,,,,,,,,,,,,,,,,,,,,,,,,,,,
0,32,32,63,1,,60df2618cedb346e436a28cf,62bbf96d6f5790797999c19e,2022-06-29_09h04.40.368,Colour_Asymmetry_Pilot,2022.1.3,Win32,59.92329818,62bbe60bf3d75ef465d3e404,,,,,,,,,,,,,,,,,,,,,,,,,,,,,,,,,,,,,,,,,,,,,,,,,,,,,,,,,,,,,,,,,,,,,,,,,,,,,,,,,,,,,,,,,,,,,,,,,,,,,,,,,,,,,,,,,,,,,,,,,,,,,,,,,,,,,,,,,,,,,,,,,,,,,,,,,,,,,,
0,33,33,62,1,,60df2618cedb346e436a28cf,62bbf96d6f5790797999c19e,2022-06-29_09h04.40.368,Colour_Asymmetry_Pilot,2022.1.3,Win32,59.92329818,62bbe60bf3d75ef465d3e404,,,,,,,,,,,,,,,,,,,,,,,,,,,,,,,,,,,,,,,,,,,,,,,,,,,,,,,,,,,,,,,,,,,,,,,,,,,,,,,,,,,,,,,,,,,,,,,,,,,,,,,,,,,,,,,,,,,,,,,,,,,,,,,,,,,,,,,,,,,,,,,,,,,,,,,,,,,,,,
0,34,34,24,1,,60df2618cedb346e436a28cf,62bbf96d6f5790797999c19e,2022-06-29_09h04.40.368,Colour_Asymmetry_Pilot,2022.1.3,Win32,59.92329818,62bbe60bf3d75ef465d3e404,,,,,,,,,,,,,,,,,,,,,,,,,,,,,,,,,,,,,,,,,,,,,,,,,,,,,,,,,,,,,,,,,,,,,,,,,,,,,,,,,,,,,,,,,,,,,,,,,,,,,,,,,,,,,,,,,,,,,,,,,,,,,,,,,,,,,,,,,,,,,,,,,,,,,,,,,,,,,,
0,35,35,84,1,,60df2618cedb346e436a28cf,62bbf96d6f5790797999c19e,2022-06-29_09h04.40.368,Colour_Asymmetry_Pilot,2022.1.3,Win32,59.92329818,62bbe60bf3d75ef465d3e404,,,,,,,,,,,,,,,,,,,,,,,,,,,,,,,,,,,,,,,,,,,,,,,,,,,,,,,,,,,,,,,,,,,,,,,,,,,,,,,,,,,,,,,,,,,,,,,,,,,,,,,,,,,,,,,,,,,,,,,,,,,,,,,,,,,,,,,,,,,,,,,,,,,,,,,,,,,,,,
0,36,36,8,1,,60df2618cedb346e436a28cf,62bbf96d6f5790797999c19e,2022-06-29_09h04.40.368,Colour_Asymmetry_Pilot,2022.1.3,Win32,59.92329818,62bbe60bf3d75ef465d3e404,,,,,,,,,,,,,,,,,,,,,,,,,,,,,,,,,,,,,,,,,,,,,,,,,,,,,,,,,,,,,,,,,,,,,,,,,,,,,,,,,,,,,,,,,,,,,,,,,,,,,,,,,,,,,,,,,,,,,,,,,,,,,,,,,,,,,,,,,,,,,,,,,,,,,,,,,,,,,,
0,37,37,70,1,,60df2618cedb346e436a28cf,62bbf96d6f5790797999c19e,2022-06-29_09h04.40.368,Colour_Asymmetry_Pilot,2022.1.3,Win32,59.92329818,62bbe60bf3d75ef465d3e404,,,,,,,,,,,,,,,,,,,,,,,,,,,,,,,,,,,,,,,,,,,,,,,,,,,,,,,,,,,,,,,,,,,,,,,,,,,,,,,,,,,,,,,,,,,,,,,,,,,,,,,,,,,,,,,,,,,,,,,,,,,,,,,,,,,,,,,,,,,,,,,,,,,,,,,,,,,,,,
0,38,38,54,1,,60df2618cedb346e436a28cf,62bbf96d6f5790797999c19e,2022-06-29_09h04.40.368,Colour_Asymmetry_Pilot,2022.1.3,Win32,59.92329818,62bbe60bf3d75ef465d3e404,,,,,,,,,,,,,,,,,,,,,,,,,,,,,,,,,,,,,,,,,,,,,,,,,,,,,,,,,,,,,,,,,,,,,,,,,,,,,,,,,,,,,,,,,,,,,,,,,,,,,,,,,,,,,,,,,,,,,,,,,,,,,,,,,,,,,,,,,,,,,,,,,,,,,,,,,,,,,,
0,39,39,30,1,,60df2618cedb346e436a28cf,62bbf96d6f5790797999c19e,2022-06-29_09h04.40.368,Colour_Asymmetry_Pilot,2022.1.3,Win32,59.92329818,62bbe60bf3d75ef465d3e404,,,,,,,,,,,,,,,,,,,,,,,,,,,,,,,,,,,,,,,,,,,,,,,,,,,,,,,,,,,,,,,,,,,,,,,,,,,,,,,,,,,,,,,,,,,,,,,,,,,,,,,,,,,,,,,,,,,,,,,,,,,,,,,,,,,,,,,,,,,,,,,,,,,,,,,,,,,,,,
0,40,40,53,1,,60df2618cedb346e436a28cf,62bbf96d6f5790797999c19e,2022-06-29_09h04.40.368,Colour_Asymmetry_Pilot,2022.1.3,Win32,59.92329818,62bbe60bf3d75ef465d3e404,,,,,,,,,,,,,,,,,,,,,,,,,,,,,,,,,,,,,,,,,,,,,,,,,,,,,,,,,,,,,,,,,,,,,,,,,,,,,,,,,,,,,,,,,,,,,,,,,,,,,,,,,,,,,,,,,,,,,,,,,,,,,,,,,,,,,,,,,,,,,,,,,,,,,,,,,,,,,,
0,41,41,89,1,,60df2618cedb346e436a28cf,62bbf96d6f5790797999c19e,2022-06-29_09h04.40.368,Colour_Asymmetry_Pilot,2022.1.3,Win32,59.92329818,62bbe60bf3d75ef465d3e404,,,,,,,,,,,,,,,,,,,,,,,,,,,,,,,,,,,,,,,,,,,,,,,,,,,,,,,,,,,,,,,,,,,,,,,,,,,,,,,,,,,,,,,,,,,,,,,,,,,,,,,,,,,,,,,,,,,,,,,,,,,,,,,,,,,,,,,,,,,,,,,,,,,,,,,,,,,,,,
0,42,42,15,1,,60df2618cedb346e436a28cf,62bbf96d6f5790797999c19e,2022-06-29_09h04.40.368,Colour_Asymmetry_Pilot,2022.1.3,Win32,59.92329818,62bbe60bf3d75ef465d3e404,,,,,,,,,,,,,,,,,,,,,,,,,,,,,,,,,,,,,,,,,,,,,,,,,,,,,,,,,,,,,,,,,,,,,,,,,,,,,,,,,,,,,,,,,,,,,,,,,,,,,,,,,,,,,,,,,,,,,,,,,,,,,,,,,,,,,,,,,,,,,,,,,,,,,,,,,,,,,,
0,43,43,18,1,,60df2618cedb346e436a28cf,62bbf96d6f5790797999c19e,2022-06-29_09h04.40.368,Colour_Asymmetry_Pilot,2022.1.3,Win32,59.92329818,62bbe60bf3d75ef465d3e404,,,,,,,,,,,,,,,,,,,,,,,,,,,,,,,,,,,,,,,,,,,,,,,,,,,,,,,,,,,,,,,,,,,,,,,,,,,,,,,,,,,,,,,,,,,,,,,,,,,,,,,,,,,,,,,,,,,,,,,,,,,,,,,,,,,,,,,,,,,,,,,,,,,,,,,,,,,,,,
0,44,44,69,1,,60df2618cedb346e436a28cf,62bbf96d6f5790797999c19e,2022-06-29_09h04.40.368,Colour_Asymmetry_Pilot,2022.1.3,Win32,59.92329818,62bbe60bf3d75ef465d3e404,,,,,,,,,,,,,,,,,,,,,,,,,,,,,,,,,,,,,,,,,,,,,,,,,,,,,,,,,,,,,,,,,,,,,,,,,,,,,,,,,,,,,,,,,,,,,,,,,,,,,,,,,,,,,,,,,,,,,,,,,,,,,,,,,,,,,,,,,,,,,,,,,,,,,,,,,,,,,,
0,45,45,35,1,,60df2618cedb346e436a28cf,62bbf96d6f5790797999c19e,2022-06-29_09h04.40.368,Colour_Asymmetry_Pilot,2022.1.3,Win32,59.92329818,62bbe60bf3d75ef465d3e404,,,,,,,,,,,,,,,,,,,,,,,,,,,,,,,,,,,,,,,,,,,,,,,,,,,,,,,,,,,,,,,,,,,,,,,,,,,,,,,,,,,,,,,,,,,,,,,,,,,,,,,,,,,,,,,,,,,,,,,,,,,,,,,,,,,,,,,,,,,,,,,,,,,,,,,,,,,,,,
0,46,46,31,1,,60df2618cedb346e436a28cf,62bbf96d6f5790797999c19e,2022-06-29_09h04.40.368,Colour_Asymmetry_Pilot,2022.1.3,Win32,59.92329818,62bbe60bf3d75ef465d3e404,,,,,,,,,,,,,,,,,,,,,,,,,,,,,,,,,,,,,,,,,,,,,,,,,,,,,,,,,,,,,,,,,,,,,,,,,,,,,,,,,,,,,,,,,,,,,,,,,,,,,,,,,,,,,,,,,,,,,,,,,,,,,,,,,,,,,,,,,,,,,,,,,,,,,,,,,,,,,,
0,47,47,11,1,,60df2618cedb346e436a28cf,62bbf96d6f5790797999c19e,2022-06-29_09h04.40.368,Colour_Asymmetry_Pilot,2022.1.3,Win32,59.92329818,62bbe60bf3d75ef465d3e404,,,,,,,,,,,,,,,,,,,,,,,,,,,,,,,,,,,,,,,,,,,,,,,,,,,,,,,,,,,,,,,,,,,,,,,,,,,,,,,,,,,,,,,,,,,,,,,,,,,,,,,,,,,,,,,,,,,,,,,,,,,,,,,,,,,,,,,,,,,,,,,,,,,,,,,,,,,,,,
0,48,48,92,1,,60df2618cedb346e436a28cf,62bbf96d6f5790797999c19e,2022-06-29_09h04.40.368,Colour_Asymmetry_Pilot,2022.1.3,Win32,59.92329818,62bbe60bf3d75ef465d3e404,,,,,,,,,,,,,,,,,,,,,,,,,,,,,,,,,,,,,,,,,,,,,,,,,,,,,,,,,,,,,,,,,,,,,,,,,,,,,,,,,,,,,,,,,,,,,,,,,,,,,,,,,,,,,,,,,,,,,,,,,,,,,,,,,,,,,,,,,,,,,,,,,,,,,,,,,,,,,,
0,49,49,9,1,,60df2618cedb346e436a28cf,62bbf96d6f5790797999c19e,2022-06-29_09h04.40.368,Colour_Asymmetry_Pilot,2022.1.3,Win32,59.92329818,62bbe60bf3d75ef465d3e404,,,,,,,,,,,,,,,,,,,,,,,,,,,,,,,,,,,,,,,,,,,,,,,,,,,,,,,,,,,,,,,,,,,,,,,,,,,,,,,,,,,,,,,,,,,,,,,,,,,,,,,,,,,,,,,,,,,,,,,,,,,,,,,,,,,,,,,,,,,,,,,,,,,,,,,,,,,,,,
0,50,50,78,1,,60df2618cedb346e436a28cf,62bbf96d6f5790797999c19e,2022-06-29_09h04.40.368,Colour_Asymmetry_Pilot,2022.1.3,Win32,59.92329818,62bbe60bf3d75ef465d3e404,,,,,,,,,,,,,,,,,,,,,,,,,,,,,,,,,,,,,,,,,,,,,,,,,,,,,,,,,,,,,,,,,,,,,,,,,,,,,,,,,,,,,,,,,,,,,,,,,,,,,,,,,,,,,,,,,,,,,,,,,,,,,,,,,,,,,,,,,,,,,,,,,,,,,,,,,,,,,,
0,51,51,55,1,,60df2618cedb346e436a28cf,62bbf96d6f5790797999c19e,2022-06-29_09h04.40.368,Colour_Asymmetry_Pilot,2022.1.3,Win32,59.92329818,62bbe60bf3d75ef465d3e404,,,,,,,,,,,,,,,,,,,,,,,,,,,,,,,,,,,,,,,,,,,,,,,,,,,,,,,,,,,,,,,,,,,,,,,,,,,,,,,,,,,,,,,,,,,,,,,,,,,,,,,,,,,,,,,,,,,,,,,,,,,,,,,,,,,,,,,,,,,,,,,,,,,,,,,,,,,,,,
0,52,52,67,1,,60df2618cedb346e436a28cf,62bbf96d6f5790797999c19e,2022-06-29_09h04.40.368,Colour_Asymmetry_Pilot,2022.1.3,Win32,59.92329818,62bbe60bf3d75ef465d3e404,,,,,,,,,,,,,,,,,,,,,,,,,,,,,,,,,,,,,,,,,,,,,,,,,,,,,,,,,,,,,,,,,,,,,,,,,,,,,,,,,,,,,,,,,,,,,,,,,,,,,,,,,,,,,,,,,,,,,,,,,,,,,,,,,,,,,,,,,,,,,,,,,,,,,,,,,,,,,,
0,53,53,45,1,,60df2618cedb346e436a28cf,62bbf96d6f5790797999c19e,2022-06-29_09h04.40.368,Colour_Asymmetry_Pilot,2022.1.3,Win32,59.92329818,62bbe60bf3d75ef465d3e404,,,,,,,,,,,,,,,,,,,,,,,,,,,,,,,,,,,,,,,,,,,,,,,,,,,,,,,,,,,,,,,,,,,,,,,,,,,,,,,,,,,,,,,,,,,,,,,,,,,,,,,,,,,,,,,,,,,,,,,,,,,,,,,,,,,,,,,,,,,,,,,,,,,,,,,,,,,,,,
0,54,54,5,1,,60df2618cedb346e436a28cf,62bbf96d6f5790797999c19e,2022-06-29_09h04.40.368,Colour_Asymmetry_Pilot,2022.1.3,Win32,59.92329818,62bbe60bf3d75ef465d3e404,,,,,,,,,,,,,,,,,,,,,,,,,,,,,,,,,,,,,,,,,,,,,,,,,,,,,,,,,,,,,,,,,,,,,,,,,,,,,,,,,,,,,,,,,,,,,,,,,,,,,,,,,,,,,,,,,,,,,,,,,,,,,,,,,,,,,,,,,,,,,,,,,,,,,,,,,,,,,,
0,55,55,44,1,,60df2618cedb346e436a28cf,62bbf96d6f5790797999c19e,2022-06-29_09h04.40.368,Colour_Asymmetry_Pilot,2022.1.3,Win32,59.92329818,62bbe60bf3d75ef465d3e404,,,,,,,,,,,,,,,,,,,,,,,,,,,,,,,,,,,,,,,,,,,,,,,,,,,,,,,,,,,,,,,,,,,,,,,,,,,,,,,,,,,,,,,,,,,,,,,,,,,,,,,,,,,,,,,,,,,,,,,,,,,,,,,,,,,,,,,,,,,,,,,,,,,,,,,,,,,,,,
0,56,56,23,1,,60df2618cedb346e436a28cf,62bbf96d6f5790797999c19e,2022-06-29_09h04.40.368,Colour_Asymmetry_Pilot,2022.1.3,Win32,59.92329818,62bbe60bf3d75ef465d3e404,,,,,,,,,,,,,,,,,,,,,,,,,,,,,,,,,,,,,,,,,,,,,,,,,,,,,,,,,,,,,,,,,,,,,,,,,,,,,,,,,,,,,,,,,,,,,,,,,,,,,,,,,,,,,,,,,,,,,,,,,,,,,,,,,,,,,,,,,,,,,,,,,,,,,,,,,,,,,,
0,57,57,52,1,,60df2618cedb346e436a28cf,62bbf96d6f5790797999c19e,2022-06-29_09h04.40.368,Colour_Asymmetry_Pilot,2022.1.3,Win32,59.92329818,62bbe60bf3d75ef465d3e404,,,,,,,,,,,,,,,,,,,,,,,,,,,,,,,,,,,,,,,,,,,,,,,,,,,,,,,,,,,,,,,,,,,,,,,,,,,,,,,,,,,,,,,,,,,,,,,,,,,,,,,,,,,,,,,,,,,,,,,,,,,,,,,,,,,,,,,,,,,,,,,,,,,,,,,,,,,,,,
0,58,58,51,1,,60df2618cedb346e436a28cf,62bbf96d6f5790797999c19e,2022-06-29_09h04.40.368,Colour_Asymmetry_Pilot,2022.1.3,Win32,59.92329818,62bbe60bf3d75ef465d3e404,,,,,,,,,,,,,,,,,,,,,,,,,,,,,,,,,,,,,,,,,,,,,,,,,,,,,,,,,,,,,,,,,,,,,,,,,,,,,,,,,,,,,,,,,,,,,,,,,,,,,,,,,,,,,,,,,,,,,,,,,,,,,,,,,,,,,,,,,,,,,,,,,,,,,,,,,,,,,,
0,59,59,26,1,,60df2618cedb346e436a28cf,62bbf96d6f5790797999c19e,2022-06-29_09h04.40.368,Colour_Asymmetry_Pilot,2022.1.3,Win32,59.92329818,62bbe60bf3d75ef465d3e404,,,,,,,,,,,,,,,,,,,,,,,,,,,,,,,,,,,,,,,,,,,,,,,,,,,,,,,,,,,,,,,,,,,,,,,,,,,,,,,,,,,,,,,,,,,,,,,,,,,,,,,,,,,,,,,,,,,,,,,,,,,,,,,,,,,,,,,,,,,,,,,,,,,,,,,,,,,,,,
0,60,60,12,1,,60df2618cedb346e436a28cf,62bbf96d6f5790797999c19e,2022-06-29_09h04.40.368,Colour_Asymmetry_Pilot,2022.1.3,Win32,59.92329818,62bbe60bf3d75ef465d3e404,,,,,,,,,,,,,,,,,,,,,,,,,,,,,,,,,,,,,,,,,,,,,,,,,,,,,,,,,,,,,,,,,,,,,,,,,,,,,,,,,,,,,,,,,,,,,,,,,,,,,,,,,,,,,,,,,,,,,,,,,,,,,,,,,,,,,,,,,,,,,,,,,,,,,,,,,,,,,,
0,61,61,17,1,,60df2618cedb346e436a28cf,62bbf96d6f5790797999c19e,2022-06-29_09h04.40.368,Colour_Asymmetry_Pilot,2022.1.3,Win32,59.92329818,62bbe60bf3d75ef465d3e404,,,,,,,,,,,,,,,,,,,,,,,,,,,,,,,,,,,,,,,,,,,,,,,,,,,,,,,,,,,,,,,,,,,,,,,,,,,,,,,,,,,,,,,,,,,,,,,,,,,,,,,,,,,,,,,,,,,,,,,,,,,,,,,,,,,,,,,,,,,,,,,,,,,,,,,,,,,,,,
0,62,62,59,1,,60df2618cedb346e436a28cf,62bbf96d6f5790797999c19e,2022-06-29_09h04.40.368,Colour_Asymmetry_Pilot,2022.1.3,Win32,59.92329818,62bbe60bf3d75ef465d3e404,,,,,,,,,,,,,,,,,,,,,,,,,,,,,,,,,,,,,,,,,,,,,,,,,,,,,,,,,,,,,,,,,,,,,,,,,,,,,,,,,,,,,,,,,,,,,,,,,,,,,,,,,,,,,,,,,,,,,,,,,,,,,,,,,,,,,,,,,,,,,,,,,,,,,,,,,,,,,,
0,63,63,40,1,,60df2618cedb346e436a28cf,62bbf96d6f5790797999c19e,2022-06-29_09h04.40.368,Colour_Asymmetry_Pilot,2022.1.3,Win32,59.92329818,62bbe60bf3d75ef465d3e404,,,,,,,,,,,,,,,,,,,,,,,,,,,,,,,,,,,,,,,,,,,,,,,,,,,,,,,,,,,,,,,,,,,,,,,,,,,,,,,,,,,,,,,,,,,,,,,,,,,,,,,,,,,,,,,,,,,,,,,,,,,,,,,,,,,,,,,,,,,,,,,,,,,,,,,,,,,,,,
0,64,64,56,1,,60df2618cedb346e436a28cf,62bbf96d6f5790797999c19e,2022-06-29_09h04.40.368,Colour_Asymmetry_Pilot,2022.1.3,Win32,59.92329818,62bbe60bf3d75ef465d3e404,,,,,,,,,,,,,,,,,,,,,,,,,,,,,,,,,,,,,,,,,,,,,,,,,,,,,,,,,,,,,,,,,,,,,,,,,,,,,,,,,,,,,,,,,,,,,,,,,,,,,,,,,,,,,,,,,,,,,,,,,,,,,,,,,,,,,,,,,,,,,,,,,,,,,,,,,,,,,,
0,65,65,72,1,,60df2618cedb346e436a28cf,62bbf96d6f5790797999c19e,2022-06-29_09h04.40.368,Colour_Asymmetry_Pilot,2022.1.3,Win32,59.92329818,62bbe60bf3d75ef465d3e404,,,,,,,,,,,,,,,,,,,,,,,,,,,,,,,,,,,,,,,,,,,,,,,,,,,,,,,,,,,,,,,,,,,,,,,,,,,,,,,,,,,,,,,,,,,,,,,,,,,,,,,,,,,,,,,,,,,,,,,,,,,,,,,,,,,,,,,,,,,,,,,,,,,,,,,,,,,,,,
0,66,66,2,1,,60df2618cedb346e436a28cf,62bbf96d6f5790797999c19e,2022-06-29_09h04.40.368,Colour_Asymmetry_Pilot,2022.1.3,Win32,59.92329818,62bbe60bf3d75ef465d3e404,,,,,,,,,,,,,,,,,,,,,,,,,,,,,,,,,,,,,,,,,,,,,,,,,,,,,,,,,,,,,,,,,,,,,,,,,,,,,,,,,,,,,,,,,,,,,,,,,,,,,,,,,,,,,,,,,,,,,,,,,,,,,,,,,,,,,,,,,,,,,,,,,,,,,,,,,,,,,,
0,67,67,60,1,,60df2618cedb346e436a28cf,62bbf96d6f5790797999c19e,2022-06-29_09h04.40.368,Colour_Asymmetry_Pilot,2022.1.3,Win32,59.92329818,62bbe60bf3d75ef465d3e404,,,,,,,,,,,,,,,,,,,,,,,,,,,,,,,,,,,,,,,,,,,,,,,,,,,,,,,,,,,,,,,,,,,,,,,,,,,,,,,,,,,,,,,,,,,,,,,,,,,,,,,,,,,,,,,,,,,,,,,,,,,,,,,,,,,,,,,,,,,,,,,,,,,,,,,,,,,,,,
0,68,68,16,1,,60df2618cedb346e436a28cf,62bbf96d6f5790797999c19e,2022-06-29_09h04.40.368,Colour_Asymmetry_Pilot,2022.1.3,Win32,59.92329818,62bbe60bf3d75ef465d3e404,,,,,,,,,,,,,,,,,,,,,,,,,,,,,,,,,,,,,,,,,,,,,,,,,,,,,,,,,,,,,,,,,,,,,,,,,,,,,,,,,,,,,,,,,,,,,,,,,,,,,,,,,,,,,,,,,,,,,,,,,,,,,,,,,,,,,,,,,,,,,,,,,,,,,,,,,,,,,,
0,69,69,49,1,,60df2618cedb346e436a28cf,62bbf96d6f5790797999c19e,2022-06-29_09h04.40.368,Colour_Asymmetry_Pilot,2022.1.3,Win32,59.92329818,62bbe60bf3d75ef465d3e404,,,,,,,,,,,,,,,,,,,,,,,,,,,,,,,,,,,,,,,,,,,,,,,,,,,,,,,,,,,,,,,,,,,,,,,,,,,,,,,,,,,,,,,,,,,,,,,,,,,,,,,,,,,,,,,,,,,,,,,,,,,,,,,,,,,,,,,,,,,,,,,,,,,,,,,,,,,,,,
0,70,70,25,1,,60df2618cedb346e436a28cf,62bbf96d6f5790797999c19e,2022-06-29_09h04.40.368,Colour_Asymmetry_Pilot,2022.1.3,Win32,59.92329818,62bbe60bf3d75ef465d3e404,,,,,,,,,,,,,,,,,,,,,,,,,,,,,,,,,,,,,,,,,,,,,,,,,,,,,,,,,,,,,,,,,,,,,,,,,,,,,,,,,,,,,,,,,,,,,,,,,,,,,,,,,,,,,,,,,,,,,,,,,,,,,,,,,,,,,,,,,,,,,,,,,,,,,,,,,,,,,,
0,71,71,3,1,,60df2618cedb346e436a28cf,62bbf96d6f5790797999c19e,2022-06-29_09h04.40.368,Colour_Asymmetry_Pilot,2022.1.3,Win32,59.92329818,62bbe60bf3d75ef465d3e404,,,,,,,,,,,,,,,,,,,,,,,,,,,,,,,,,,,,,,,,,,,,,,,,,,,,,,,,,,,,,,,,,,,,,,,,,,,,,,,,,,,,,,,,,,,,,,,,,,,,,,,,,,,,,,,,,,,,,,,,,,,,,,,,,,,,,,,,,,,,,,,,,,,,,,,,,,,,,,
0,72,72,13,1,,60df2618cedb346e436a28cf,62bbf96d6f5790797999c19e,2022-06-29_09h04.40.368,Colour_Asymmetry_Pilot,2022.1.3,Win32,59.92329818,62bbe60bf3d75ef465d3e404,,,,,,,,,,,,,,,,,,,,,,,,,,,,,,,,,,,,,,,,,,,,,,,,,,,,,,,,,,,,,,,,,,,,,,,,,,,,,,,,,,,,,,,,,,,,,,,,,,,,,,,,,,,,,,,,,,,,,,,,,,,,,,,,,,,,,,,,,,,,,,,,,,,,,,,,,,,,,,
0,73,73,64,1,,60df2618cedb346e436a28cf,62bbf96d6f5790797999c19e,2022-06-29_09h04.40.368,Colour_Asymmetry_Pilot,2022.1.3,Win32,59.92329818,62bbe60bf3d75ef465d3e404,,,,,,,,,,,,,,,,,,,,,,,,,,,,,,,,,,,,,,,,,,,,,,,,,,,,,,,,,,,,,,,,,,,,,,,,,,,,,,,,,,,,,,,,,,,,,,,,,,,,,,,,,,,,,,,,,,,,,,,,,,,,,,,,,,,,,,,,,,,,,,,,,,,,,,,,,,,,,,
0,74,74,46,1,,60df2618cedb346e436a28cf,62bbf96d6f5790797999c19e,2022-06-29_09h04.40.368,Colour_Asymmetry_Pilot,2022.1.3,Win32,59.92329818,62bbe60bf3d75ef465d3e404,,,,,,,,,,,,,,,,,,,,,,,,,,,,,,,,,,,,,,,,,,,,,,,,,,,,,,,,,,,,,,,,,,,,,,,,,,,,,,,,,,,,,,,,,,,,,,,,,,,,,,,,,,,,,,,,,,,,,,,,,,,,,,,,,,,,,,,,,,,,,,,,,,,,,,,,,,,,,,
0,75,75,76,1,,60df2618cedb346e436a28cf,62bbf96d6f5790797999c19e,2022-06-29_09h04.40.368,Colour_Asymmetry_Pilot,2022.1.3,Win32,59.92329818,62bbe60bf3d75ef465d3e404,,,,,,,,,,,,,,,,,,,,,,,,,,,,,,,,,,,,,,,,,,,,,,,,,,,,,,,,,,,,,,,,,,,,,,,,,,,,,,,,,,,,,,,,,,,,,,,,,,,,,,,,,,,,,,,,,,,,,,,,,,,,,,,,,,,,,,,,,,,,,,,,,,,,,,,,,,,,,,
0,76,76,36,1,,60df2618cedb346e436a28cf,62bbf96d6f5790797999c19e,2022-06-29_09h04.40.368,Colour_Asymmetry_Pilot,2022.1.3,Win32,59.92329818,62bbe60bf3d75ef465d3e404,,,,,,,,,,,,,,,,,,,,,,,,,,,,,,,,,,,,,,,,,,,,,,,,,,,,,,,,,,,,,,,,,,,,,,,,,,,,,,,,,,,,,,,,,,,,,,,,,,,,,,,,,,,,,,,,,,,,,,,,,,,,,,,,,,,,,,,,,,,,,,,,,,,,,,,,,,,,,,
0,77,77,20,1,,60df2618cedb346e436a28cf,62bbf96d6f5790797999c19e,2022-06-29_09h04.40.368,Colour_Asymmetry_Pilot,2022.1.3,Win32,59.92329818,62bbe60bf3d75ef465d3e404,,,,,,,,,,,,,,,,,,,,,,,,,,,,,,,,,,,,,,,,,,,,,,,,,,,,,,,,,,,,,,,,,,,,,,,,,,,,,,,,,,,,,,,,,,,,,,,,,,,,,,,,,,,,,,,,,,,,,,,,,,,,,,,,,,,,,,,,,,,,,,,,,,,,,,,,,,,,,,
0,78,78,87,1,,60df2618cedb346e436a28cf,62bbf96d6f5790797999c19e,2022-06-29_09h04.40.368,Colour_Asymmetry_Pilot,2022.1.3,Win32,59.92329818,62bbe60bf3d75ef465d3e404,,,,,,,,,,,,,,,,,,,,,,,,,,,,,,,,,,,,,,,,,,,,,,,,,,,,,,,,,,,,,,,,,,,,,,,,,,,,,,,,,,,,,,,,,,,,,,,,,,,,,,,,,,,,,,,,,,,,,,,,,,,,,,,,,,,,,,,,,,,,,,,,,,,,,,,,,,,,,,
0,79,79,33,1,,60df2618cedb346e436a28cf,62bbf96d6f5790797999c19e,2022-06-29_09h04.40.368,Colour_Asymmetry_Pilot,2022.1.3,Win32,59.92329818,62bbe60bf3d75ef465d3e404,,,,,,,,,,,,,,,,,,,,,,,,,,,,,,,,,,,,,,,,,,,,,,,,,,,,,,,,,,,,,,,,,,,,,,,,,,,,,,,,,,,,,,,,,,,,,,,,,,,,,,,,,,,,,,,,,,,,,,,,,,,,,,,,,,,,,,,,,,,,,,,,,,,,,,,,,,,,,,
0,80,80,43,1,,60df2618cedb346e436a28cf,62bbf96d6f5790797999c19e,2022-06-29_09h04.40.368,Colour_Asymmetry_Pilot,2022.1.3,Win32,59.92329818,62bbe60bf3d75ef465d3e404,,,,,,,,,,,,,,,,,,,,,,,,,,,,,,,,,,,,,,,,,,,,,,,,,,,,,,,,,,,,,,,,,,,,,,,,,,,,,,,,,,,,,,,,,,,,,,,,,,,,,,,,,,,,,,,,,,,,,,,,,,,,,,,,,,,,,,,,,,,,,,,,,,,,,,,,,,,,,,
0,81,81,65,1,,60df2618cedb346e436a28cf,62bbf96d6f5790797999c19e,2022-06-29_09h04.40.368,Colour_Asymmetry_Pilot,2022.1.3,Win32,59.92329818,62bbe60bf3d75ef465d3e404,,,,,,,,,,,,,,,,,,,,,,,,,,,,,,,,,,,,,,,,,,,,,,,,,,,,,,,,,,,,,,,,,,,,,,,,,,,,,,,,,,,,,,,,,,,,,,,,,,,,,,,,,,,,,,,,,,,,,,,,,,,,,,,,,,,,,,,,,,,,,,,,,,,,,,,,,,,,,,
0,82,82,83,1,,60df2618cedb346e436a28cf,62bbf96d6f5790797999c19e,2022-06-29_09h04.40.368,Colour_Asymmetry_Pilot,2022.1.3,Win32,59.92329818,62bbe60bf3d75ef465d3e404,,,,,,,,,,,,,,,,,,,,,,,,,,,,,,,,,,,,,,,,,,,,,,,,,,,,,,,,,,,,,,,,,,,,,,,,,,,,,,,,,,,,,,,,,,,,,,,,,,,,,,,,,,,,,,,,,,,,,,,,,,,,,,,,,,,,,,,,,,,,,,,,,,,,,,,,,,,,,,
0,83,83,90,1,,60df2618cedb346e436a28cf,62bbf96d6f5790797999c19e,2022-06-29_09h04.40.368,Colour_Asymmetry_Pilot,2022.1.3,Win32,59.92329818,62bbe60bf3d75ef465d3e404,,,,,,,,,,,,,,,,,,,,,,,,,,,,,,,,,,,,,,,,,,,,,,,,,,,,,,,,,,,,,,,,,,,,,,,,,,,,,,,,,,,,,,,,,,,,,,,,,,,,,,,,,,,,,,,,,,,,,,,,,,,,,,,,,,,,,,,,,,,,,,,,,,,,,,,,,,,,,,
0,84,84,80,1,,60df2618cedb346e436a28cf,62bbf96d6f5790797999c19e,2022-06-29_09h04.40.368,Colour_Asymmetry_Pilot,2022.1.3,Win32,59.92329818,62bbe60bf3d75ef465d3e404,,,,,,,,,,,,,,,,,,,,,,,,,,,,,,,,,,,,,,,,,,,,,,,,,,,,,,,,,,,,,,,,,,,,,,,,,,,,,,,,,,,,,,,,,,,,,,,,,,,,,,,,,,,,,,,,,,,,,,,,,,,,,,,,,,,,,,,,,,,,,,,,,,,,,,,,,,,,,,
0,85,85,1,1,,60df2618cedb346e436a28cf,62bbf96d6f5790797999c19e,2022-06-29_09h04.40.368,Colour_Asymmetry_Pilot,2022.1.3,Win32,59.92329818,62bbe60bf3d75ef465d3e404,,,,,,,,,,,,,,,,,,,,,,,,,,,,,,,,,,,,,,,,,,,,,,,,,,,,,,,,,,,,,,,,,,,,,,,,,,,,,,,,,,,,,,,,,,,,,,,,,,,,,,,,,,,,,,,,,,,,,,,,,,,,,,,,,,,,,,,,,,,,,,,,,,,,,,,,,,,,,,
0,86,86,85,1,,60df2618cedb346e436a28cf,62bbf96d6f5790797999c19e,2022-06-29_09h04.40.368,Colour_Asymmetry_Pilot,2022.1.3,Win32,59.92329818,62bbe60bf3d75ef465d3e404,,,,,,,,,,,,,,,,,,,,,,,,,,,,,,,,,,,,,,,,,,,,,,,,,,,,,,,,,,,,,,,,,,,,,,,,,,,,,,,,,,,,,,,,,,,,,,,,,,,,,,,,,,,,,,,,,,,,,,,,,,,,,,,,,,,,,,,,,,,,,,,,,,,,,,,,,,,,,,
0,87,87,14,1,,60df2618cedb346e436a28cf,62bbf96d6f5790797999c19e,2022-06-29_09h04.40.368,Colour_Asymmetry_Pilot,2022.1.3,Win32,59.92329818,62bbe60bf3d75ef465d3e404,,,,,,,,,,,,,,,,,,,,,,,,,,,,,,,,,,,,,,,,,,,,,,,,,,,,,,,,,,,,,,,,,,,,,,,,,,,,,,,,,,,,,,,,,,,,,,,,,,,,,,,,,,,,,,,,,,,,,,,,,,,,,,,,,,,,,,,,,,,,,,,,,,,,,,,,,,,,,,
0,88,88,32,1,,60df2618cedb346e436a28cf,62bbf96d6f5790797999c19e,2022-06-29_09h04.40.368,Colour_Asymmetry_Pilot,2022.1.3,Win32,59.92329818,62bbe60bf3d75ef465d3e404,,,,,,,,,,,,,,,,,,,,,,,,,,,,,,,,,,,,,,,,,,,,,,,,,,,,,,,,,,,,,,,,,,,,,,,,,,,,,,,,,,,,,,,,,,,,,,,,,,,,,,,,,,,,,,,,,,,,,,,,,,,,,,,,,,,,,,,,,,,,,,,,,,,,,,,,,,,,,,
0,89,89,77,1,,60df2618cedb346e436a28cf,62bbf96d6f5790797999c19e,2022-06-29_09h04.40.368,Colour_Asymmetry_Pilot,2022.1.3,Win32,59.92329818,62bbe60bf3d75ef465d3e404,,,,,,,,,,,,,,,,,,,,,,,,,,,,,,,,,,,,,,,,,,,,,,,,,,,,,,,,,,,,,,,,,,,,,,,,,,,,,,,,,,,,,,,,,,,,,,,,,,,,,,,,,,,,,,,,,,,,,,,,,,,,,,,,,,,,,,,,,,,,,,,,,,,,,,,,,,,,,,
0,90,90,7,1,,60df2618cedb346e436a28cf,62bbf96d6f5790797999c19e,2022-06-29_09h04.40.368,Colour_Asymmetry_Pilot,2022.1.3,Win32,59.92329818,62bbe60bf3d75ef465d3e404,,,,,,,,,,,,,,,,,,,,,,,,,,,,,,,,,,,,,,,,,,,,,,,,,,,,,,,,,,,,,,,,,,,,,,,,,,,,,,,,,,,,,,,,,,,,,,,,,,,,,,,,,,,,,,,,,,,,,,,,,,,,,,,,,,,,,,,,,,,,,,,,,,,,,,,,,,,,,,
0,91,91,50,1,,60df2618cedb346e436a28cf,62bbf96d6f5790797999c19e,2022-06-29_09h04.40.368,Colour_Asymmetry_Pilot,2022.1.3,Win32,59.92329818,62bbe60bf3d75ef465d3e404,,,,,,,,,,,,,,,,,,,,,,,,,,,,,,,,,,,,,,,,,,,,,,,,,,,,,,,,,,,,,,,,,,,,,,,,,,,,,,,,,,,,,,,,,,,,,,,,,,,,,,,,,,,,,,,,,,,,,,,,,,,,,,,,,,,,,,,,,,,,,,,,,,,,,,,,,,,,,,
0,92,92,29,1,,60df2618cedb346e436a28cf,62bbf96d6f5790797999c19e,2022-06-29_09h04.40.368,Colour_Asymmetry_Pilot,2022.1.3,Win32,59.92329818,62bbe60bf3d75ef465d3e404,,,,,,,,,,,,,,,,,,,,,,,,,,,,,,,,,,,,,,,,,,,,,,,,,,,,,,,,,,,,,,,,,,,,,,,,,,,,,,,,,,,,,,,,,,,,,,,,,,,,,,,,,,,,,,,,,,,,,,,,,,,,,,,,,,,,,,,,,,,,,,,,,,,,,,,,,,,,,,
,,,,,,60df2618cedb346e436a28cf,62bbf96d6f5790797999c19e,2022-06-29_09h04.40.368,Colour_Asymmetry_Pilot,2022.1.3,Win32,59.92329818,62bbe60bf3d75ef465d3e404,0,0,0,34,1,twoone,,,,,,,,,,,,,,,,,,,,,,,,,,,,,,,,,,,,,,,,,,,,,,,,,,,,,,,,,,,,,,,,,,,,,,,,,,,,,,,,,,,,,,,,,,,,,,,,,,,,,,,,,,,,,,,,,,,,,,,,,,,,,,,,,,,,,,,,,,,,,,,,,,,,,,,,
,,,,,,60df2618cedb346e436a28cf,62bbf96d6f5790797999c19e,2022-06-29_09h04.40.368,Colour_Asymmetry_Pilot,2022.1.3,Win32,59.92329818,62bbe60bf3d75ef465d3e404,0,1,1,48,1,onetwo,,,,,,,,,,,,,,,,,,,,,,,,,,,,,,,,,,,,,,,,,,,,,,,,,,,,,,,,,,,,,,,,,,,,,,,,,,,,,,,,,,,,,,,,,,,,,,,,,,,,,,,,,,,,,,,,,,,,,,,,,,,,,,,,,,,,,,,,,,,,,,,,,,,,,,,,
,,,,,,60df2618cedb346e436a28cf,62bbf96d6f5790797999c19e,2022-06-29_09h04.40.368,Colour_Asymmetry_Pilot,2022.1.3,Win32,59.92329818,62bbe60bf3d75ef465d3e404,0,2,2,33,1,onethree,,,,,,,,,,,,,,,,,,,,,,,,,,,,,,,,,,,,,,,,,,,,,,,,,,,,,,,,,,,,,,,,,,,,,,,,,,,,,,,,,,,,,,,,,,,,,,,,,,,,,,,,,,,,,,,,,,,,,,,,,,,,,,,,,,,,,,,,,,,,,,,,,,,,,,,,
,,,,,,60df2618cedb346e436a28cf,62bbf96d6f5790797999c19e,2022-06-29_09h04.40.368,Colour_Asymmetry_Pilot,2022.1.3,Win32,59.92329818,62bbe60bf3d75ef465d3e404,0,3,3,15,1,fourthree,,,,,,,,,,,,,,,,,,,,,,,,,,,,,,,,,,,,,,,,,,,,,,,,,,,,,,,,,,,,,,,,,,,,,,,,,,,,,,,,,,,,,,,,,,,,,,,,,,,,,,,,,,,,,,,,,,,,,,,,,,,,,,,,,,,,,,,,,,,,,,,,,,,,,,,,
,,,,,,60df2618cedb346e436a28cf,62bbf96d6f5790797999c19e,2022-06-29_09h04.40.368,Colour_Asymmetry_Pilot,2022.1.3,Win32,59.92329818,62bbe60bf3d75ef465d3e404,0,4,4,88,1,onetwo,,,,,,,,,,,,,,,,,,,,,,,,,,,,,,,,,,,,,,,,,,,,,,,,,,,,,,,,,,,,,,,,,,,,,,,,,,,,,,,,,,,,,,,,,,,,,,,,,,,,,,,,,,,,,,,,,,,,,,,,,,,,,,,,,,,,,,,,,,,,,,,,,,,,,,,,
,,,,,,60df2618cedb346e436a28cf,62bbf96d6f5790797999c19e,2022-06-29_09h04.40.368,Colour_Asymmetry_Pilot,2022.1.3,Win32,59.92329818,62bbe60bf3d75ef465d3e404,0,5,5,77,1,threefour,,,,,,,,,,,,,,,,,,,,,,,,,,,,,,,,,,,,,,,,,,,,,,,,,,,,,,,,,,,,,,,,,,,,,,,,,,,,,,,,,,,,,,,,,,,,,,,,,,,,,,,,,,,,,,,,,,,,,,,,,,,,,,,,,,,,,,,,,,,,,,,,,,,,,,,,
,,,,,,60df2618cedb346e436a28cf,62bbf96d6f5790797999c19e,2022-06-29_09h04.40.368,Colour_Asymmetry_Pilot,2022.1.3,Win32,59.92329818,62bbe60bf3d75ef465d3e404,0,6,6,47,1,fourthree,,,,,,,,,,,,,,,,,,,,,,,,,,,,,,,,,,,,,,,,,,,,,,,,,,,,,,,,,,,,,,,,,,,,,,,,,,,,,,,,,,,,,,,,,,,,,,,,,,,,,,,,,,,,,,,,,,,,,,,,,,,,,,,,,,,,,,,,,,,,,,,,,,,,,,,,
,,,,,,60df2618cedb346e436a28cf,62bbf96d6f5790797999c19e,2022-06-29_09h04.40.368,Colour_Asymmetry_Pilot,2022.1.3,Win32,59.92329818,62bbe60bf3d75ef465d3e404,0,7,7,17,1,onethree,,,,,,,,,,,,,,,,,,,,,,,,,,,,,,,,,,,,,,,,,,,,,,,,,,,,,,,,,,,,,,,,,,,,,,,,,,,,,,,,,,,,,,,,,,,,,,,,,,,,,,,,,,,,,,,,,,,,,,,,,,,,,,,,,,,,,,,,,,,,,,,,,,,,,,,,
,,,,,,60df2618cedb346e436a28cf,62bbf96d6f5790797999c19e,2022-06-29_09h04.40.368,Colour_Asymmetry_Pilot,2022.1.3,Win32,59.92329818,62bbe60bf3d75ef465d3e404,0,8,8,43,1,twofour,,,,,,,,,,,,,,,,,,,,,,,,,,,,,,,,,,,,,,,,,,,,,,,,,,,,,,,,,,,,,,,,,,,,,,,,,,,,,,,,,,,,,,,,,,,,,,,,,,,,,,,,,,,,,,,,,,,,,,,,,,,,,,,,,,,,,,,,,,,,,,,,,,,,,,,,
,,,,,,60df2618cedb346e436a28cf,62bbf96d6f5790797999c19e,2022-06-29_09h04.40.368,Colour_Asymmetry_Pilot,2022.1.3,Win32,59.92329818,62bbe60bf3d75ef465d3e404,0,9,9,102,1,fourtwo,,,,,,,,,,,,,,,,,,,,,,,,,,,,,,,,,,,,,,,,,,,,,,,,,,,,,,,,,,,,,,,,,,,,,,,,,,,,,,,,,,,,,,,,,,,,,,,,,,,,,,,,,,,,,,,,,,,,,,,,,,,,,,,,,,,,,,,,,,,,,,,,,,,,,,,,
,,,,,,60df2618cedb346e436a28cf,62bbf96d6f5790797999c19e,2022-06-29_09h04.40.368,Colour_Asymmetry_Pilot,2022.1.3,Win32,59.92329818,62bbe60bf3d75ef465d3e404,0,10,10,32,1,onetwo,,,,,,,,,,,,,,,,,,,,,,,,,,,,,,,,,,,,,,,,,,,,,,,,,,,,,,,,,,,,,,,,,,,,,,,,,,,,,,,,,,,,,,,,,,,,,,,,,,,,,,,,,,,,,,,,,,,,,,,,,,,,,,,,,,,,,,,,,,,,,,,,,,,,,,,,
,,,,,,60df2618cedb346e436a28cf,62bbf96d6f5790797999c19e,2022-06-29_09h04.40.368,Colour_Asymmetry_Pilot,2022.1.3,Win32,59.92329818,62bbe60bf3d75ef465d3e404,0,11,11,69,1,threefour,,,,,,,,,,,,,,,,,,,,,,,,,,,,,,,,,,,,,,,,,,,,,,,,,,,,,,,,,,,,,,,,,,,,,,,,,,,,,,,,,,,,,,,,,,,,,,,,,,,,,,,,,,,,,,,,,,,,,,,,,,,,,,,,,,,,,,,,,,,,,,,,,,,,,,,,
,,,,,,60df2618cedb346e436a28cf,62bbf96d6f5790797999c19e,2022-06-29_09h04.40.368,Colour_Asymmetry_Pilot,2022.1.3,Win32,59.92329818,62bbe60bf3d75ef465d3e404,0,12,12,138,1,twoone,,,,,,,,,,,,,,,,,,,,,,,,,,,,,,,,,,,,,,,,,,,,,,,,,,,,,,,,,,,,,,,,,,,,,,,,,,,,,,,,,,,,,,,,,,,,,,,,,,,,,,,,,,,,,,,,,,,,,,,,,,,,,,,,,,,,,,,,,,,,,,,,,,,,,,,,
,,,,,,60df2618cedb346e436a28cf,62bbf96d6f5790797999c19e,2022-06-29_09h04.40.368,Colour_Asymmetry_Pilot,2022.1.3,Win32,59.92329818,62bbe60bf3d75ef465d3e404,0,13,13,161,1,onethree,,,,,,,,,,,,,,,,,,,,,,,,,,,,,,,,,,,,,,,,,,,,,,,,,,,,,,,,,,,,,,,,,,,,,,,,,,,,,,,,,,,,,,,,,,,,,,,,,,,,,,,,,,,,,,,,,,,,,,,,,,,,,,,,,,,,,,,,,,,,,,,,,,,,,,,,
,,,,,,60df2618cedb346e436a28cf,62bbf96d6f5790797999c19e,2022-06-29_09h04.40.368,Colour_Asymmetry_Pilot,2022.1.3,Win32,59.92329818,62bbe60bf3d75ef465d3e404,0,14,14,24,1,onetwo,,,,,,,,,,,,,,,,,,,,,,,,,,,,,,,,,,,,,,,,,,,,,,,,,,,,,,,,,,,,,,,,,,,,,,,,,,,,,,,,,,,,,,,,,,,,,,,,,,,,,,,,,,,,,,,,,,,,,,,,,,,,,,,,,,,,,,,,,,,,,,,,,,,,,,,,
,,,,,,60df2618cedb346e436a28cf,62bbf96d6f5790797999c19e,2022-06-29_09h04.40.368,Colour_Asymmetry_Pilot,2022.1.3,Win32,59.92329818,62bbe60bf3d75ef465d3e404,0,15,15,79,1,fourthree,,,,,,,,,,,,,,,,,,,,,,,,,,,,,,,,,,,,,,,,,,,,,,,,,,,,,,,,,,,,,,,,,,,,,,,,,,,,,,,,,,,,,,,,,,,,,,,,,,,,,,,,,,,,,,,,,,,,,,,,,,,,,,,,,,,,,,,,,,,,,,,,,,,,,,,,
,,,,,,60df2618cedb346e436a28cf,62bbf96d6f5790797999c19e,2022-06-29_09h04.40.368,Colour_Asymmetry_Pilot,2022.1.3,Win32,59.92329818,62bbe60bf3d75ef465d3e404,0,16,16,157,1,threefour,,,,,,,,,,,,,,,,,,,,,,,,,,,,,,,,,,,,,,,,,,,,,,,,,,,,,,,,,,,,,,,,,,,,,,,,,,,,,,,,,,,,,,,,,,,,,,,,,,,,,,,,,,,,,,,,,,,,,,,,,,,,,,,,,,,,,,,,,,,,,,,,,,,,,,,,
,,,,,,60df2618cedb346e436a28cf,62bbf96d6f5790797999c19e,2022-06-29_09h04.40.368,Colour_Asymmetry_Pilot,2022.1.3,Win32,59.92329818,62bbe60bf3d75ef465d3e404,0,17,17,22,1,fourtwo,,,,,,,,,,,,,,,,,,,,,,,,,,,,,,,,,,,,,,,,,,,,,,,,,,,,,,,,,,,,,,,,,,,,,,,,,,,,,,,,,,,,,,,,,,,,,,,,,,,,,,,,,,,,,,,,,,,,,,,,,,,,,,,,,,,,,,,,,,,,,,,,,,,,,,,,
,,,,,,60df2618cedb346e436a28cf,62bbf96d6f5790797999c19e,2022-06-29_09h04.40.368,Colour_Asymmetry_Pilot,2022.1.3,Win32,59.92329818,62bbe60bf3d75ef465d3e404,0,18,18,53,1,threefour,,,,,,,,,,,,,,,,,,,,,,,,,,,,,,,,,,,,,,,,,,,,,,,,,,,,,,,,,,,,,,,,,,,,,,,,,,,,,,,,,,,,,,,,,,,,,,,,,,,,,,,,,,,,,,,,,,,,,,,,,,,,,,,,,,,,,,,,,,,,,,,,,,,,,,,,
,,,,,,60df2618cedb346e436a28cf,62bbf96d6f5790797999c19e,2022-06-29_09h04.40.368,Colour_Asymmetry_Pilot,2022.1.3,Win32,59.92329818,62bbe60bf3d75ef465d3e404,0,19,19,86,1,fourtwo,,,,,,,,,,,,,,,,,,,,,,,,,,,,,,,,,,,,,,,,,,,,,,,,,,,,,,,,,,,,,,,,,,,,,,,,,,,,,,,,,,,,,,,,,,,,,,,,,,,,,,,,,,,,,,,,,,,,,,,,,,,,,,,,,,,,,,,,,,,,,,,,,,,,,,,,
,,,,,,60df2618cedb346e436a28cf,62bbf96d6f5790797999c19e,2022-06-29_09h04.40.368,Colour_Asymmetry_Pilot,2022.1.3,Win32,59.92329818,62bbe60bf3d75ef465d3e404,0,20,20,45,1,threefour,,,,,,,,,,,,,,,,,,,,,,,,,,,,,,,,,,,,,,,,,,,,,,,,,,,,,,,,,,,,,,,,,,,,,,,,,,,,,,,,,,,,,,,,,,,,,,,,,,,,,,,,,,,,,,,,,,,,,,,,,,,,,,,,,,,,,,,,,,,,,,,,,,,,,,,,
,,,,,,60df2618cedb346e436a28cf,62bbf96d6f5790797999c19e,2022-06-29_09h04.40.368,Colour_Asymmetry_Pilot,2022.1.3,Win32,59.92329818,62bbe60bf3d75ef465d3e404,0,21,21,110,1,fourtwo,,,,,,,,,,,,,,,,,,,,,,,,,,,,,,,,,,,,,,,,,,,,,,,,,,,,,,,,,,,,,,,,,,,,,,,,,,,,,,,,,,,,,,,,,,,,,,,,,,,,,,,,,,,,,,,,,,,,,,,,,,,,,,,,,,,,,,,,,,,,,,,,,,,,,,,,
,,,,,,60df2618cedb346e436a28cf,62bbf96d6f5790797999c19e,2022-06-29_09h04.40.368,Colour_Asymmetry_Pilot,2022.1.3,Win32,59.92329818,62bbe60bf3d75ef465d3e404,0,22,22,8,1,onetwo,,,,,,,,,,,,,,,,,,,,,,,,,,,,,,,,,,,,,,,,,,,,,,,,,,,,,,,,,,,,,,,,,,,,,,,,,,,,,,,,,,,,,,,,,,,,,,,,,,,,,,,,,,,,,,,,,,,,,,,,,,,,,,,,,,,,,,,,,,,,,,,,,,,,,,,,
,,,,,,60df2618cedb346e436a28cf,62bbf96d6f5790797999c19e,2022-06-29_09h04.40.368,Colour_Asymmetry_Pilot,2022.1.3,Win32,59.92329818,62bbe60bf3d75ef465d3e404,0,23,23,65,1,onethree,,,,,,,,,,,,,,,,,,,,,,,,,,,,,,,,,,,,,,,,,,,,,,,,,,,,,,,,,,,,,,,,,,,,,,,,,,,,,,,,,,,,,,,,,,,,,,,,,,,,,,,,,,,,,,,,,,,,,,,,,,,,,,,,,,,,,,,,,,,,,,,,,,,,,,,,
,,,,,,60df2618cedb346e436a28cf,62bbf96d6f5790797999c19e,2022-06-29_09h04.40.368,Colour_Asymmetry_Pilot,2022.1.3,Win32,59.92329818,62bbe60bf3d75ef465d3e404,0,24,24,61,1,threefour,,,,,,,,,,,,,,,,,,,,,,,,,,,,,,,,,,,,,,,,,,,,,,,,,,,,,,,,,,,,,,,,,,,,,,,,,,,,,,,,,,,,,,,,,,,,,,,,,,,,,,,,,,,,,,,,,,,,,,,,,,,,,,,,,,,,,,,,,,,,,,,,,,,,,,,,
,,,,,,60df2618cedb346e436a28cf,62bbf96d6f5790797999c19e,2022-06-29_09h04.40.368,Colour_Asymmetry_Pilot,2022.1.3,Win32,59.92329818,62bbe60bf3d75ef465d3e404,0,25,25,84,1,threeone,,,,,,,,,,,,,,,,,,,,,,,,,,,,,,,,,,,,,,,,,,,,,,,,,,,,,,,,,,,,,,,,,,,,,,,,,,,,,,,,,,,,,,,,,,,,,,,,,,,,,,,,,,,,,,,,,,,,,,,,,,,,,,,,,,,,,,,,,,,,,,,,,,,,,,,,
,,,,,,60df2618cedb346e436a28cf,62bbf96d6f5790797999c19e,2022-06-29_09h04.40.368,Colour_Asymmetry_Pilot,2022.1.3,Win32,59.92329818,62bbe60bf3d75ef465d3e404,0,26,26,11,1,twofour,,,,,,,,,,,,,,,,,,,,,,,,,,,,,,,,,,,,,,,,,,,,,,,,,,,,,,,,,,,,,,,,,,,,,,,,,,,,,,,,,,,,,,,,,,,,,,,,,,,,,,,,,,,,,,,,,,,,,,,,,,,,,,,,,,,,,,,,,,,,,,,,,,,,,,,,
,,,,,,60df2618cedb346e436a28cf,62bbf96d6f5790797999c19e,2022-06-29_09h04.40.368,Colour_Asymmetry_Pilot,2022.1.3,Win32,59.92329818,62bbe60bf3d75ef465d3e404,0,27,27,103,1,fourthree,,,,,,,,,,,,,,,,,,,,,,,,,,,,,,,,,,,,,,,,,,,,,,,,,,,,,,,,,,,,,,,,,,,,,,,,,,,,,,,,,,,,,,,,,,,,,,,,,,,,,,,,,,,,,,,,,,,,,,,,,,,,,,,,,,,,,,,,,,,,,,,,,,,,,,,,
,,,,,,60df2618cedb346e436a28cf,62bbf96d6f5790797999c19e,2022-06-29_09h04.40.368,Colour_Asymmetry_Pilot,2022.1.3,Win32,59.92329818,62bbe60bf3d75ef465d3e404,0,28,28,120,1,onetwo,,,,,,,,,,,,,,,,,,,,,,,,,,,,,,,,,,,,,,,,,,,,,,,,,,,,,,,,,,,,,,,,,,,,,,,,,,,,,,,,,,,,,,,,,,,,,,,,,,,,,,,,,,,,,,,,,,,,,,,,,,,,,,,,,,,,,,,,,,,,,,,,,,,,,,,,
,,,,,,60df2618cedb346e436a28cf,62bbf96d6f5790797999c19e,2022-06-29_09h04.40.368,Colour_Asymmetry_Pilot,2022.1.3,Win32,59.92329818,62bbe60bf3d75ef465d3e404,0,29,29,113,1,onethree,,,,,,,,,,,,,,,,,,,,,,,,,,,,,,,,,,,,,,,,,,,,,,,,,,,,,,,,,,,,,,,,,,,,,,,,,,,,,,,,,,,,,,,,,,,,,,,,,,,,,,,,,,,,,,,,,,,,,,,,,,,,,,,,,,,,,,,,,,,,,,,,,,,,,,,,
,,,,,,60df2618cedb346e436a28cf,62bbf96d6f5790797999c19e,2022-06-29_09h04.40.368,Colour_Asymmetry_Pilot,2022.1.3,Win32,59.92329818,62bbe60bf3d75ef465d3e404,0,30,30,135,1,fourthree,,,,,,,,,,,,,,,,,,,,,,,,,,,,,,,,,,,,,,,,,,,,,,,,,,,,,,,,,,,,,,,,,,,,,,,,,,,,,,,,,,,,,,,,,,,,,,,,,,,,,,,,,,,,,,,,,,,,,,,,,,,,,,,,,,,,,,,,,,,,,,,,,,,,,,,,
,,,,,,60df2618cedb346e436a28cf,62bbf96d6f5790797999c19e,2022-06-29_09h04.40.368,Colour_Asymmetry_Pilot,2022.1.3,Win32,59.92329818,62bbe60bf3d75ef465d3e404,0,31,31,81,1,onethree,,,,,,,,,,,,,,,,,,,,,,,,,,,,,,,,,,,,,,,,,,,,,,,,,,,,,,,,,,,,,,,,,,,,,,,,,,,,,,,,,,,,,,,,,,,,,,,,,,,,,,,,,,,,,,,,,,,,,,,,,,,,,,,,,,,,,,,,,,,,,,,,,,,,,,,,
,,,,,,60df2618cedb346e436a28cf,62bbf96d6f5790797999c19e,2022-06-29_09h04.40.368,Colour_Asymmetry_Pilot,2022.1.3,Win32,59.92329818,62bbe60bf3d75ef465d3e404,0,32,32,150,1,fourtwo,,,,,,,,,,,,,,,,,,,,,,,,,,,,,,,,,,,,,,,,,,,,,,,,,,,,,,,,,,,,,,,,,,,,,,,,,,,,,,,,,,,,,,,,,,,,,,,,,,,,,,,,,,,,,,,,,,,,,,,,,,,,,,,,,,,,,,,,,,,,,,,,,,,,,,,,
,,,,,,60df2618cedb346e436a28cf,62bbf96d6f5790797999c19e,2022-06-29_09h04.40.368,Colour_Asymmetry_Pilot,2022.1.3,Win32,59.92329818,62bbe60bf3d75ef465d3e404,0,33,33,27,1,twofour,,,,,,,,,,,,,,,,,,,,,,,,,,,,,,,,,,,,,,,,,,,,,,,,,,,,,,,,,,,,,,,,,,,,,,,,,,,,,,,,,,,,,,,,,,,,,,,,,,,,,,,,,,,,,,,,,,,,,,,,,,,,,,,,,,,,,,,,,,,,,,,,,,,,,,,,
,,,,,,60df2618cedb346e436a28cf,62bbf96d6f5790797999c19e,2022-06-29_09h04.40.368,Colour_Asymmetry_Pilot,2022.1.3,Win32,59.92329818,62bbe60bf3d75ef465d3e404,0,34,34,5,1,threefour,,,,,,,,,,,,,,,,,,,,,,,,,,,,,,,,,,,,,,,,,,,,,,,,,,,,,,,,,,,,,,,,,,,,,,,,,,,,,,,,,,,,,,,,,,,,,,,,,,,,,,,,,,,,,,,,,,,,,,,,,,,,,,,,,,,,,,,,,,,,,,,,,,,,,,,,
,,,,,,60df2618cedb346e436a28cf,62bbf96d6f5790797999c19e,2022-06-29_09h04.40.368,Colour_Asymmetry_Pilot,2022.1.3,Win32,59.92329818,62bbe60bf3d75ef465d3e404,0,35,35,87,1,fourthree,,,,,,,,,,,,,,,,,,,,,,,,,,,,,,,,,,,,,,,,,,,,,,,,,,,,,,,,,,,,,,,,,,,,,,,,,,,,,,,,,,,,,,,,,,,,,,,,,,,,,,,,,,,,,,,,,,,,,,,,,,,,,,,,,,,,,,,,,,,,,,,,,,,,,,,,
,,,,,,60df2618cedb346e436a28cf,62bbf96d6f5790797999c19e,2022-06-29_09h04.40.368,Colour_Asymmetry_Pilot,2022.1.3,Win32,59.92329818,62bbe60bf3d75ef465d3e404,0,36,36,59,1,twofour,,,,,,,,,,,,,,,,,,,,,,,,,,,,,,,,,,,,,,,,,,,,,,,,,,,,,,,,,,,,,,,,,,,,,,,,,,,,,,,,,,,,,,,,,,,,,,,,,,,,,,,,,,,,,,,,,,,,,,,,,,,,,,,,,,,,,,,,,,,,,,,,,,,,,,,,
,,,,,,60df2618cedb346e436a28cf,62bbf96d6f5790797999c19e,2022-06-29_09h04.40.368,Colour_Asymmetry_Pilot,2022.1.3,Win32,59.92329818,62bbe60bf3d75ef465d3e404,0,37,37,101,1,threefour,,,,,,,,,,,,,,,,,,,,,,,,,,,,,,,,,,,,,,,,,,,,,,,,,,,,,,,,,,,,,,,,,,,,,,,,,,,,,,,,,,,,,,,,,,,,,,,,,,,,,,,,,,,,,,,,,,,,,,,,,,,,,,,,,,,,,,,,,,,,,,,,,,,,,,,,
,,,,,,60df2618cedb346e436a28cf,62bbf96d6f5790797999c19e,2022-06-29_09h04.40.368,Colour_Asymmetry_Pilot,2022.1.3,Win32,59.92329818,62bbe60bf3d75ef465d3e404,0,38,38,111,1,fourthree,,,,,,,,,,,,,,,,,,,,,,,,,,,,,,,,,,,,,,,,,,,,,,,,,,,,,,,,,,,,,,,,,,,,,,,,,,,,,,,,,,,,,,,,,,,,,,,,,,,,,,,,,,,,,,,,,,,,,,,,,,,,,,,,,,,,,,,,,,,,,,,,,,,,,,,,
,,,,,,60df2618cedb346e436a28cf,62bbf96d6f5790797999c19e,2022-06-29_09h04.40.368,Colour_Asymmetry_Pilot,2022.1.3,Win32,59.92329818,62bbe60bf3d75ef465d3e404,0,39,39,68,1,threeone,,,,,,,,,,,,,,,,,,,,,,,,,,,,,,,,,,,,,,,,,,,,,,,,,,,,,,,,,,,,,,,,,,,,,,,,,,,,,,,,,,,,,,,,,,,,,,,,,,,,,,,,,,,,,,,,,,,,,,,,,,,,,,,,,,,,,,,,,,,,,,,,,,,,,,,,
,,,,,,60df2618cedb346e436a28cf,62bbf96d6f5790797999c19e,2022-06-29_09h04.40.368,Colour_Asymmetry_Pilot,2022.1.3,Win32,59.92329818,62bbe60bf3d75ef465d3e404,0,40,40,100,1,threeone,,,,,,,,,,,,,,,,,,,,,,,,,,,,,,,,,,,,,,,,,,,,,,,,,,,,,,,,,,,,,,,,,,,,,,,,,,,,,,,,,,,,,,,,,,,,,,,,,,,,,,,,,,,,,,,,,,,,,,,,,,,,,,,,,,,,,,,,,,,,,,,,,,,,,,,,
,,,,,,60df2618cedb346e436a28cf,62bbf96d6f5790797999c19e,2022-06-29_09h04.40.368,Colour_Asymmetry_Pilot,2022.1.3,Win32,59.92329818,62bbe60bf3d75ef465d3e404,0,41,41,49,1,onethree,,,,,,,,,,,,,,,,,,,,,,,,,,,,,,,,,,,,,,,,,,,,,,,,,,,,,,,,,,,,,,,,,,,,,,,,,,,,,,,,,,,,,,,,,,,,,,,,,,,,,,,,,,,,,,,,,,,,,,,,,,,,,,,,,,,,,,,,,,,,,,,,,,,,,,,,
,,,,,,60df2618cedb346e436a28cf,62bbf96d6f5790797999c19e,2022-06-29_09h04.40.368,Colour_Asymmetry_Pilot,2022.1.3,Win32,59.92329818,62bbe60bf3d75ef465d3e404,0,42,42,41,1,onethree,,,,,,,,,,,,,,,,,,,,,,,,,,,,,,,,,,,,,,,,,,,,,,,,,,,,,,,,,,,,,,,,,,,,,,,,,,,,,,,,,,,,,,,,,,,,,,,,,,,,,,,,,,,,,,,,,,,,,,,,,,,,,,,,,,,,,,,,,,,,,,,,,,,,,,,,
,,,,,,60df2618cedb346e436a28cf,62bbf96d6f5790797999c19e,2022-06-29_09h04.40.368,Colour_Asymmetry_Pilot,2022.1.3,Win32,59.92329818,62bbe60bf3d75ef465d3e404,0,43,43,44,1,threeone,,,,,,,,,,,,,,,,,,,,,,,,,,,,,,,,,,,,,,,,,,,,,,,,,,,,,,,,,,,,,,,,,,,,,,,,,,,,,,,,,,,,,,,,,,,,,,,,,,,,,,,,,,,,,,,,,,,,,,,,,,,,,,,,,,,,,,,,,,,,,,,,,,,,,,,,
,,,,,,60df2618cedb346e436a28cf,62bbf96d6f5790797999c19e,2022-06-29_09h04.40.368,Colour_Asymmetry_Pilot,2022.1.3,Win32,59.92329818,62bbe60bf3d75ef465d3e404,0,44,44,20,1,threeone,,,,,,,,,,,,,,,,,,,,,,,,,,,,,,,,,,,,,,,,,,,,,,,,,,,,,,,,,,,,,,,,,,,,,,,,,,,,,,,,,,,,,,,,,,,,,,,,,,,,,,,,,,,,,,,,,,,,,,,,,,,,,,,,,,,,,,,,,,,,,,,,,,,,,,,,
,,,,,,60df2618cedb346e436a28cf,62bbf96d6f5790797999c19e,2022-06-29_09h04.40.368,Colour_Asymmetry_Pilot,2022.1.3,Win32,59.92329818,62bbe60bf3d75ef465d3e404,0,45,45,64,1,onetwo,,,,,,,,,,,,,,,,,,,,,,,,,,,,,,,,,,,,,,,,,,,,,,,,,,,,,,,,,,,,,,,,,,,,,,,,,,,,,,,,,,,,,,,,,,,,,,,,,,,,,,,,,,,,,,,,,,,,,,,,,,,,,,,,,,,,,,,,,,,,,,,,,,,,,,,,
,,,,,,60df2618cedb346e436a28cf,62bbf96d6f5790797999c19e,2022-06-29_09h04.40.368,Colour_Asymmetry_Pilot,2022.1.3,Win32,59.92329818,62bbe60bf3d75ef465d3e404,0,46,46,40,1,onetwo,,,,,,,,,,,,,,,,,,,,,,,,,,,,,,,,,,,,,,,,,,,,,,,,,,,,,,,,,,,,,,,,,,,,,,,,,,,,,,,,,,,,,,,,,,,,,,,,,,,,,,,,,,,,,,,,,,,,,,,,,,,,,,,,,,,,,,,,,,,,,,,,,,,,,,,,
,,,,,,60df2618cedb346e436a28cf,62bbf96d6f5790797999c19e,2022-06-29_09h04.40.368,Colour_Asymmetry_Pilot,2022.1.3,Win32,59.92329818,62bbe60bf3d75ef465d3e404,0,47,47,51,1,twofour,,,,,,,,,,,,,,,,,,,,,,,,,,,,,,,,,,,,,,,,,,,,,,,,,,,,,,,,,,,,,,,,,,,,,,,,,,,,,,,,,,,,,,,,,,,,,,,,,,,,,,,,,,,,,,,,,,,,,,,,,,,,,,,,,,,,,,,,,,,,,,,,,,,,,,,,
,,,,,,60df2618cedb346e436a28cf,62bbf96d6f5790797999c19e,2022-06-29_09h04.40.368,Colour_Asymmetry_Pilot,2022.1.3,Win32,59.92329818,62bbe60bf3d75ef465d3e404,0,48,48,6,1,fourtwo,,,,,,,,,,,,,,,,,,,,,,,,,,,,,,,,,,,,,,,,,,,,,,,,,,,,,,,,,,,,,,,,,,,,,,,,,,,,,,,,,,,,,,,,,,,,,,,,,,,,,,,,,,,,,,,,,,,,,,,,,,,,,,,,,,,,,,,,,,,,,,,,,,,,,,,,
,,,,,,60df2618cedb346e436a28cf,62bbf96d6f5790797999c19e,2022-06-29_09h04.40.368,Colour_Asymmetry_Pilot,2022.1.3,Win32,59.92329818,62bbe60bf3d75ef465d3e404,0,49,49,94,1,fourtwo,,,,,,,,,,,,,,,,,,,,,,,,,,,,,,,,,,,,,,,,,,,,,,,,,,,,,,,,,,,,,,,,,,,,,,,,,,,,,,,,,,,,,,,,,,,,,,,,,,,,,,,,,,,,,,,,,,,,,,,,,,,,,,,,,,,,,,,,,,,,,,,,,,,,,,,,
,,,,,,60df2618cedb346e436a28cf,62bbf96d6f5790797999c19e,2022-06-29_09h04.40.368,Colour_Asymmetry_Pilot,2022.1.3,Win32,59.92329818,62bbe60bf3d75ef465d3e404,0,50,50,19,1,twofour,,,,,,,,,,,,,,,,,,,,,,,,,,,,,,,,,,,,,,,,,,,,,,,,,,,,,,,,,,,,,,,,,,,,,,,,,,,,,,,,,,,,,,,,,,,,,,,,,,,,,,,,,,,,,,,,,,,,,,,,,,,,,,,,,,,,,,,,,,,,,,,,,,,,,,,,
,,,,,,60df2618cedb346e436a28cf,62bbf96d6f5790797999c19e,2022-06-29_09h04.40.368,Colour_Asymmetry_Pilot,2022.1.3,Win32,59.92329818,62bbe60bf3d75ef465d3e404,0,51,51,151,1,fourthree,,,,,,,,,,,,,,,,,,,,,,,,,,,,,,,,,,,,,,,,,,,,,,,,,,,,,,,,,,,,,,,,,,,,,,,,,,,,,,,,,,,,,,,,,,,,,,,,,,,,,,,,,,,,,,,,,,,,,,,,,,,,,,,,,,,,,,,,,,,,,,,,,,,,,,,,
,,,,,,60df2618cedb346e436a28cf,62bbf96d6f5790797999c19e,2022-06-29_09h04.40.368,Colour_Asymmetry_Pilot,2022.1.3,Win32,59.92329818,62bbe60bf3d75ef465d3e404,0,52,52,147,1,twofour,,,,,,,,,,,,,,,,,,,,,,,,,,,,,,,,,,,,,,,,,,,,,,,,,,,,,,,,,,,,,,,,,,,,,,,,,,,,,,,,,,,,,,,,,,,,,,,,,,,,,,,,,,,,,,,,,,,,,,,,,,,,,,,,,,,,,,,,,,,,,,,,,,,,,,,,
,,,,,,60df2618cedb346e436a28cf,62bbf96d6f5790797999c19e,2022-06-29_09h04.40.368,Colour_Asymmetry_Pilot,2022.1.3,Win32,59.92329818,62bbe60bf3d75ef465d3e404,0,53,53,3,1,twofour,,,,,,,,,,,,,,,,,,,,,,,,,,,,,,,,,,,,,,,,,,,,,,,,,,,,,,,,,,,,,,,,,,,,,,,,,,,,,,,,,,,,,,,,,,,,,,,,,,,,,,,,,,,,,,,,,,,,,,,,,,,,,,,,,,,,,,,,,,,,,,,,,,,,,,,,
,,,,,,60df2618cedb346e436a28cf,62bbf96d6f5790797999c19e,2022-06-29_09h04.40.368,Colour_Asymmetry_Pilot,2022.1.3,Win32,59.92329818,62bbe60bf3d75ef465d3e404,0,54,54,158,1,fourtwo,,,,,,,,,,,,,,,,,,,,,,,,,,,,,,,,,,,,,,,,,,,,,,,,,,,,,,,,,,,,,,,,,,,,,,,,,,,,,,,,,,,,,,,,,,,,,,,,,,,,,,,,,,,,,,,,,,,,,,,,,,,,,,,,,,,,,,,,,,,,,,,,,,,,,,,,
,,,,,,60df2618cedb346e436a28cf,62bbf96d6f5790797999c19e,2022-06-29_09h04.40.368,Colour_Asymmetry_Pilot,2022.1.3,Win32,59.92329818,62bbe60bf3d75ef465d3e404,0,55,55,1,1,onethree,,,,,,,,,,,,,,,,,,,,,,,,,,,,,,,,,,,,,,,,,,,,,,,,,,,,,,,,,,,,,,,,,,,,,,,,,,,,,,,,,,,,,,,,,,,,,,,,,,,,,,,,,,,,,,,,,,,,,,,,,,,,,,,,,,,,,,,,,,,,,,,,,,,,,,,,
,,,,,,60df2618cedb346e436a28cf,62bbf96d6f5790797999c19e,2022-06-29_09h04.40.368,Colour_Asymmetry_Pilot,2022.1.3,Win32,59.92329818,62bbe60bf3d75ef465d3e404,0,56,56,67,1,twofour,,,,,,,,,,,,,,,,,,,,,,,,,,,,,,,,,,,,,,,,,,,,,,,,,,,,,,,,,,,,,,,,,,,,,,,,,,,,,,,,,,,,,,,,,,,,,,,,,,,,,,,,,,,,,,,,,,,,,,,,,,,,,,,,,,,,,,,,,,,,,,,,,,,,,,,,
,,,,,,60df2618cedb346e436a28cf,62bbf96d6f5790797999c19e,2022-06-29_09h04.40.368,Colour_Asymmetry_Pilot,2022.1.3,Win32,59.92329818,62bbe60bf3d75ef465d3e404,0,57,57,156,1,threeone,,,,,,,,,,,,,,,,,,,,,,,,,,,,,,,,,,,,,,,,,,,,,,,,,,,,,,,,,,,,,,,,,,,,,,,,,,,,,,,,,,,,,,,,,,,,,,,,,,,,,,,,,,,,,,,,,,,,,,,,,,,,,,,,,,,,,,,,,,,,,,,,,,,,,,,,
,,,,,,60df2618cedb346e436a28cf,62bbf96d6f5790797999c19e,2022-06-29_09h04.40.368,Colour_Asymmetry_Pilot,2022.1.3,Win32,59.92329818,62bbe60bf3d75ef465d3e404,0,58,58,66,1,twoone,,,,,,,,,,,,,,,,,,,,,,,,,,,,,,,,,,,,,,,,,,,,,,,,,,,,,,,,,,,,,,,,,,,,,,,,,,,,,,,,,,,,,,,,,,,,,,,,,,,,,,,,,,,,,,,,,,,,,,,,,,,,,,,,,,,,,,,,,,,,,,,,,,,,,,,,
,,,,,,60df2618cedb346e436a28cf,62bbf96d6f5790797999c19e,2022-06-29_09h04.40.368,Colour_Asymmetry_Pilot,2022.1.3,Win32,59.92329818,62bbe60bf3d75ef465d3e404,0,59,59,140,1,threeone,,,,,,,,,,,,,,,,,,,,,,,,,,,,,,,,,,,,,,,,,,,,,,,,,,,,,,,,,,,,,,,,,,,,,,,,,,,,,,,,,,,,,,,,,,,,,,,,,,,,,,,,,,,,,,,,,,,,,,,,,,,,,,,,,,,,,,,,,,,,,,,,,,,,,,,,
,,,,,,60df2618cedb346e436a28cf,62bbf96d6f5790797999c19e,2022-06-29_09h04.40.368,Colour_Asymmetry_Pilot,2022.1.3,Win32,59.92329818,62bbe60bf3d75ef465d3e404,0,60,60,134,1,fourtwo,,,,,,,,,,,,,,,,,,,,,,,,,,,,,,,,,,,,,,,,,,,,,,,,,,,,,,,,,,,,,,,,,,,,,,,,,,,,,,,,,,,,,,,,,,,,,,,,,,,,,,,,,,,,,,,,,,,,,,,,,,,,,,,,,,,,,,,,,,,,,,,,,,,,,,,,
,,,,,,60df2618cedb346e436a28cf,62bbf96d6f5790797999c19e,2022-06-29_09h04.40.368,Colour_Asymmetry_Pilot,2022.1.3,Win32,59.92329818,62bbe60bf3d75ef465d3e404,0,61,61,89,1,onethree,,,,,,,,,,,,,,,,,,,,,,,,,,,,,,,,,,,,,,,,,,,,,,,,,,,,,,,,,,,,,,,,,,,,,,,,,,,,,,,,,,,,,,,,,,,,,,,,,,,,,,,,,,,,,,,,,,,,,,,,,,,,,,,,,,,,,,,,,,,,,,,,,,,,,,,,
,,,,,,60df2618cedb346e436a28cf,62bbf96d6f5790797999c19e,2022-06-29_09h04.40.368,Colour_Asymmetry_Pilot,2022.1.3,Win32,59.92329818,62bbe60bf3d75ef465d3e404,0,62,62,38,1,fourtwo,,,,,,,,,,,,,,,,,,,,,,,,,,,,,,,,,,,,,,,,,,,,,,,,,,,,,,,,,,,,,,,,,,,,,,,,,,,,,,,,,,,,,,,,,,,,,,,,,,,,,,,,,,,,,,,,,,,,,,,,,,,,,,,,,,,,,,,,,,,,,,,,,,,,,,,,
,,,,,,60df2618cedb346e436a28cf,62bbf96d6f5790797999c19e,2022-06-29_09h04.40.368,Colour_Asymmetry_Pilot,2022.1.3,Win32,59.92329818,62bbe60bf3d75ef465d3e404,0,63,63,30,1,fourtwo,,,,,,,,,,,,,,,,,,,,,,,,,,,,,,,,,,,,,,,,,,,,,,,,,,,,,,,,,,,,,,,,,,,,,,,,,,,,,,,,,,,,,,,,,,,,,,,,,,,,,,,,,,,,,,,,,,,,,,,,,,,,,,,,,,,,,,,,,,,,,,,,,,,,,,,,
,,,,,,60df2618cedb346e436a28cf,62bbf96d6f5790797999c19e,2022-06-29_09h04.40.368,Colour_Asymmetry_Pilot,2022.1.3,Win32,59.92329818,62bbe60bf3d75ef465d3e404,0,64,64,72,1,onetwo,,,,,,,,,,,,,,,,,,,,,,,,,,,,,,,,,,,,,,,,,,,,,,,,,,,,,,,,,,,,,,,,,,,,,,,,,,,,,,,,,,,,,,,,,,,,,,,,,,,,,,,,,,,,,,,,,,,,,,,,,,,,,,,,,,,,,,,,,,,,,,,,,,,,,,,,
,,,,,,60df2618cedb346e436a28cf,62bbf96d6f5790797999c19e,2022-06-29_09h04.40.368,Colour_Asymmetry_Pilot,2022.1.3,Win32,59.92329818,62bbe60bf3d75ef465d3e404,0,65,65,57,1,onethree,,,,,,,,,,,,,,,,,,,,,,,,,,,,,,,,,,,,,,,,,,,,,,,,,,,,,,,,,,,,,,,,,,,,,,,,,,,,,,,,,,,,,,,,,,,,,,,,,,,,,,,,,,,,,,,,,,,,,,,,,,,,,,,,,,,,,,,,,,,,,,,,,,,,,,,,
,,,,,,60df2618cedb346e436a28cf,62bbf96d6f5790797999c19e,2022-06-29_09h04.40.368,Colour_Asymmetry_Pilot,2022.1.3,Win32,59.92329818,62bbe60bf3d75ef465d3e404,0,66,66,97,1,onethree,,,,,,,,,,,,,,,,,,,,,,,,,,,,,,,,,,,,,,,,,,,,,,,,,,,,,,,,,,,,,,,,,,,,,,,,,,,,,,,,,,,,,,,,,,,,,,,,,,,,,,,,,,,,,,,,,,,,,,,,,,,,,,,,,,,,,,,,,,,,,,,,,,,,,,,,
,,,,,,60df2618cedb346e436a28cf,62bbf96d6f5790797999c19e,2022-06-29_09h04.40.368,Colour_Asymmetry_Pilot,2022.1.3,Win32,59.92329818,62bbe60bf3d75ef465d3e404,0,67,67,91,1,twofour,,,,,,,,,,,,,,,,,,,,,,,,,,,,,,,,,,,,,,,,,,,,,,,,,,,,,,,,,,,,,,,,,,,,,,,,,,,,,,,,,,,,,,,,,,,,,,,,,,,,,,,,,,,,,,,,,,,,,,,,,,,,,,,,,,,,,,,,,,,,,,,,,,,,,,,,
,,,,,,60df2618cedb346e436a28cf,62bbf96d6f5790797999c19e,2022-06-29_09h04.40.368,Colour_Asymmetry_Pilot,2022.1.3,Win32,59.92329818,62bbe60bf3d75ef465d3e404,0,68,68,90,1,twoone,,,,,,,,,,,,,,,,,,,,,,,,,,,,,,,,,,,,,,,,,,,,,,,,,,,,,,,,,,,,,,,,,,,,,,,,,,,,,,,,,,,,,,,,,,,,,,,,,,,,,,,,,,,,,,,,,,,,,,,,,,,,,,,,,,,,,,,,,,,,,,,,,,,,,,,,
,,,,,,60df2618cedb346e436a28cf,62bbf96d6f5790797999c19e,2022-06-29_09h04.40.368,Colour_Asymmetry_Pilot,2022.1.3,Win32,59.92329818,62bbe60bf3d75ef465d3e404,0,69,69,74,1,twoone,,,,,,,,,,,,,,,,,,,,,,,,,,,,,,,,,,,,,,,,,,,,,,,,,,,,,,,,,,,,,,,,,,,,,,,,,,,,,,,,,,,,,,,,,,,,,,,,,,,,,,,,,,,,,,,,,,,,,,,,,,,,,,,,,,,,,,,,,,,,,,,,,,,,,,,,
,,,,,,60df2618cedb346e436a28cf,62bbf96d6f5790797999c19e,2022-06-29_09h04.40.368,Colour_Asymmetry_Pilot,2022.1.3,Win32,59.92329818,62bbe60bf3d75ef465d3e404,0,70,70,144,1,onetwo,,,,,,,,,,,,,,,,,,,,,,,,,,,,,,,,,,,,,,,,,,,,,,,,,,,,,,,,,,,,,,,,,,,,,,,,,,,,,,,,,,,,,,,,,,,,,,,,,,,,,,,,,,,,,,,,,,,,,,,,,,,,,,,,,,,,,,,,,,,,,,,,,,,,,,,,
,,,,,,60df2618cedb346e436a28cf,62bbf96d6f5790797999c19e,2022-06-29_09h04.40.368,Colour_Asymmetry_Pilot,2022.1.3,Win32,59.92329818,62bbe60bf3d75ef465d3e404,0,71,71,142,1,fourtwo,,,,,,,,,,,,,,,,,,,,,,,,,,,,,,,,,,,,,,,,,,,,,,,,,,,,,,,,,,,,,,,,,,,,,,,,,,,,,,,,,,,,,,,,,,,,,,,,,,,,,,,,,,,,,,,,,,,,,,,,,,,,,,,,,,,,,,,,,,,,,,,,,,,,,,,,
,,,,,,60df2618cedb346e436a28cf,62bbf96d6f5790797999c19e,2022-06-29_09h04.40.368,Colour_Asymmetry_Pilot,2022.1.3,Win32,59.92329818,62bbe60bf3d75ef465d3e404,0,72,72,131,1,twofour,,,,,,,,,,,,,,,,,,,,,,,,,,,,,,,,,,,,,,,,,,,,,,,,,,,,,,,,,,,,,,,,,,,,,,,,,,,,,,,,,,,,,,,,,,,,,,,,,,,,,,,,,,,,,,,,,,,,,,,,,,,,,,,,,,,,,,,,,,,,,,,,,,,,,,,,
,,,,,,60df2618cedb346e436a28cf,62bbf96d6f5790797999c19e,2022-06-29_09h04.40.368,Colour_Asymmetry_Pilot,2022.1.3,Win32,59.92329818,62bbe60bf3d75ef465d3e404,0,73,73,146,1,twoone,,,,,,,,,,,,,,,,,,,,,,,,,,,,,,,,,,,,,,,,,,,,,,,,,,,,,,,,,,,,,,,,,,,,,,,,,,,,,,,,,,,,,,,,,,,,,,,,,,,,,,,,,,,,,,,,,,,,,,,,,,,,,,,,,,,,,,,,,,,,,,,,,,,,,,,,
,,,,,,60df2618cedb346e436a28cf,62bbf96d6f5790797999c19e,2022-06-29_09h04.40.368,Colour_Asymmetry_Pilot,2022.1.3,Win32,59.92329818,62bbe60bf3d75ef465d3e404,0,74,74,145,1,onethree,,,,,,,,,,,,,,,,,,,,,,,,,,,,,,,,,,,,,,,,,,,,,,,,,,,,,,,,,,,,,,,,,,,,,,,,,,,,,,,,,,,,,,,,,,,,,,,,,,,,,,,,,,,,,,,,,,,,,,,,,,,,,,,,,,,,,,,,,,,,,,,,,,,,,,,,
,,,,,,60df2618cedb346e436a28cf,62bbf96d6f5790797999c19e,2022-06-29_09h04.40.368,Colour_Asymmetry_Pilot,2022.1.3,Win32,59.92329818,62bbe60bf3d75ef465d3e404,0,75,75,130,1,twoone,,,,,,,,,,,,,,,,,,,,,,,,,,,,,,,,,,,,,,,,,,,,,,,,,,,,,,,,,,,,,,,,,,,,,,,,,,,,,,,,,,,,,,,,,,,,,,,,,,,,,,,,,,,,,,,,,,,,,,,,,,,,,,,,,,,,,,,,,,,,,,,,,,,,,,,,
,,,,,,60df2618cedb346e436a28cf,62bbf96d6f5790797999c19e,2022-06-29_09h04.40.368,Colour_Asymmetry_Pilot,2022.1.3,Win32,59.92329818,62bbe60bf3d75ef465d3e404,0,76,76,153,1,onethree,,,,,,,,,,,,,,,,,,,,,,,,,,,,,,,,,,,,,,,,,,,,,,,,,,,,,,,,,,,,,,,,,,,,,,,,,,,,,,,,,,,,,,,,,,,,,,,,,,,,,,,,,,,,,,,,,,,,,,,,,,,,,,,,,,,,,,,,,,,,,,,,,,,,,,,,
,,,,,,60df2618cedb346e436a28cf,62bbf96d6f5790797999c19e,2022-06-29_09h04.40.368,Colour_Asymmetry_Pilot,2022.1.3,Win32,59.92329818,62bbe60bf3d75ef465d3e404,0,77,77,7,1,fourthree,,,,,,,,,,,,,,,,,,,,,,,,,,,,,,,,,,,,,,,,,,,,,,,,,,,,,,,,,,,,,,,,,,,,,,,,,,,,,,,,,,,,,,,,,,,,,,,,,,,,,,,,,,,,,,,,,,,,,,,,,,,,,,,,,,,,,,,,,,,,,,,,,,,,,,,,
,,,,,,60df2618cedb346e436a28cf,62bbf96d6f5790797999c19e,2022-06-29_09h04.40.368,Colour_Asymmetry_Pilot,2022.1.3,Win32,59.92329818,62bbe60bf3d75ef465d3e404,0,78,78,122,1,twoone,,,,,,,,,,,,,,,,,,,,,,,,,,,,,,,,,,,,,,,,,,,,,,,,,,,,,,,,,,,,,,,,,,,,,,,,,,,,,,,,,,,,,,,,,,,,,,,,,,,,,,,,,,,,,,,,,,,,,,,,,,,,,,,,,,,,,,,,,,,,,,,,,,,,,,,,
,,,,,,60df2618cedb346e436a28cf,62bbf96d6f5790797999c19e,2022-06-29_09h04.40.368,Colour_Asymmetry_Pilot,2022.1.3,Win32,59.92329818,62bbe60bf3d75ef465d3e404,0,79,79,128,1,onetwo,,,,,,,,,,,,,,,,,,,,,,,,,,,,,,,,,,,,,,,,,,,,,,,,,,,,,,,,,,,,,,,,,,,,,,,,,,,,,,,,,,,,,,,,,,,,,,,,,,,,,,,,,,,,,,,,,,,,,,,,,,,,,,,,,,,,,,,,,,,,,,,,,,,,,,,,
,,,,,,60df2618cedb346e436a28cf,62bbf96d6f5790797999c19e,2022-06-29_09h04.40.368,Colour_Asymmetry_Pilot,2022.1.3,Win32,59.92329818,62bbe60bf3d75ef465d3e404,0,80,80,92,1,threeone,,,,,,,,,,,,,,,,,,,,,,,,,,,,,,,,,,,,,,,,,,,,,,,,,,,,,,,,,,,,,,,,,,,,,,,,,,,,,,,,,,,,,,,,,,,,,,,,,,,,,,,,,,,,,,,,,,,,,,,,,,,,,,,,,,,,,,,,,,,,,,,,,,,,,,,,
,,,,,,60df2618cedb346e436a28cf,62bbf96d6f5790797999c19e,2022-06-29_09h04.40.368,Colour_Asymmetry_Pilot,2022.1.3,Win32,59.92329818,62bbe60bf3d75ef465d3e404,0,81,81,26,1,twoone,,,,,,,,,,,,,,,,,,,,,,,,,,,,,,,,,,,,,,,,,,,,,,,,,,,,,,,,,,,,,,,,,,,,,,,,,,,,,,,,,,,,,,,,,,,,,,,,,,,,,,,,,,,,,,,,,,,,,,,,,,,,,,,,,,,,,,,,,,,,,,,,,,,,,,,,
,,,,,,60df2618cedb346e436a28cf,62bbf96d6f5790797999c19e,2022-06-29_09h04.40.368,Colour_Asymmetry_Pilot,2022.1.3,Win32,59.92329818,62bbe60bf3d75ef465d3e404,0,82,82,58,1,twoone,,,,,,,,,,,,,,,,,,,,,,,,,,,,,,,,,,,,,,,,,,,,,,,,,,,,,,,,,,,,,,,,,,,,,,,,,,,,,,,,,,,,,,,,,,,,,,,,,,,,,,,,,,,,,,,,,,,,,,,,,,,,,,,,,,,,,,,,,,,,,,,,,,,,,,,,
,,,,,,60df2618cedb346e436a28cf,62bbf96d6f5790797999c19e,2022-06-29_09h04.40.368,Colour_Asymmetry_Pilot,2022.1.3,Win32,59.92329818,62bbe60bf3d75ef465d3e404,0,83,83,160,1,onetwo,,,,,,,,,,,,,,,,,,,,,,,,,,,,,,,,,,,,,,,,,,,,,,,,,,,,,,,,,,,,,,,,,,,,,,,,,,,,,,,,,,,,,,,,,,,,,,,,,,,,,,,,,,,,,,,,,,,,,,,,,,,,,,,,,,,,,,,,,,,,,,,,,,,,,,,,
,,,,,,60df2618cedb346e436a28cf,62bbf96d6f5790797999c19e,2022-06-29_09h04.40.368,Colour_Asymmetry_Pilot,2022.1.3,Win32,59.92329818,62bbe60bf3d75ef465d3e404,0,84,84,2,1,twoone,,,,,,,,,,,,,,,,,,,,,,,,,,,,,,,,,,,,,,,,,,,,,,,,,,,,,,,,,,,,,,,,,,,,,,,,,,,,,,,,,,,,,,,,,,,,,,,,,,,,,,,,,,,,,,,,,,,,,,,,,,,,,,,,,,,,,,,,,,,,,,,,,,,,,,,,
,,,,,,60df2618cedb346e436a28cf,62bbf96d6f5790797999c19e,2022-06-29_09h04.40.368,Colour_Asymmetry_Pilot,2022.1.3,Win32,59.92329818,62bbe60bf3d75ef465d3e404,0,85,85,4,1,threeone,,,,,,,,,,,,,,,,,,,,,,,,,,,,,,,,,,,,,,,,,,,,,,,,,,,,,,,,,,,,,,,,,,,,,,,,,,,,,,,,,,,,,,,,,,,,,,,,,,,,,,,,,,,,,,,,,,,,,,,,,,,,,,,,,,,,,,,,,,,,,,,,,,,,,,,,
,,,,,,60df2618cedb346e436a28cf,62bbf96d6f5790797999c19e,2022-06-29_09h04.40.368,Colour_Asymmetry_Pilot,2022.1.3,Win32,59.92329818,62bbe60bf3d75ef465d3e404,0,86,86,132,1,threeone,,,,,,,,,,,,,,,,,,,,,,,,,,,,,,,,,,,,,,,,,,,,,,,,,,,,,,,,,,,,,,,,,,,,,,,,,,,,,,,,,,,,,,,,,,,,,,,,,,,,,,,,,,,,,,,,,,,,,,,,,,,,,,,,,,,,,,,,,,,,,,,,,,,,,,,,
,,,,,,60df2618cedb346e436a28cf,62bbf96d6f5790797999c19e,2022-06-29_09h04.40.368,Colour_Asymmetry_Pilot,2022.1.3,Win32,59.92329818,62bbe60bf3d75ef465d3e404,0,87,87,98,1,twoone,,,,,,,,,,,,,,,,,,,,,,,,,,,,,,,,,,,,,,,,,,,,,,,,,,,,,,,,,,,,,,,,,,,,,,,,,,,,,,,,,,,,,,,,,,,,,,,,,,,,,,,,,,,,,,,,,,,,,,,,,,,,,,,,,,,,,,,,,,,,,,,,,,,,,,,,
,,,,,,60df2618cedb346e436a28cf,62bbf96d6f5790797999c19e,2022-06-29_09h04.40.368,Colour_Asymmetry_Pilot,2022.1.3,Win32,59.92329818,62bbe60bf3d75ef465d3e404,0,88,88,137,1,onethree,,,,,,,,,,,,,,,,,,,,,,,,,,,,,,,,,,,,,,,,,,,,,,,,,,,,,,,,,,,,,,,,,,,,,,,,,,,,,,,,,,,,,,,,,,,,,,,,,,,,,,,,,,,,,,,,,,,,,,,,,,,,,,,,,,,,,,,,,,,,,,,,,,,,,,,,
,,,,,,60df2618cedb346e436a28cf,62bbf96d6f5790797999c19e,2022-06-29_09h04.40.368,Colour_Asymmetry_Pilot,2022.1.3,Win32,59.92329818,62bbe60bf3d75ef465d3e404,0,89,89,63,1,fourthree,,,,,,,,,,,,,,,,,,,,,,,,,,,,,,,,,,,,,,,,,,,,,,,,,,,,,,,,,,,,,,,,,,,,,,,,,,,,,,,,,,,,,,,,,,,,,,,,,,,,,,,,,,,,,,,,,,,,,,,,,,,,,,,,,,,,,,,,,,,,,,,,,,,,,,,,
,,,,,,60df2618cedb346e436a28cf,62bbf96d6f5790797999c19e,2022-06-29_09h04.40.368,Colour_Asymmetry_Pilot,2022.1.3,Win32,59.92329818,62bbe60bf3d75ef465d3e404,0,90,90,10,1,twoone,,,,,,,,,,,,,,,,,,,,,,,,,,,,,,,,,,,,,,,,,,,,,,,,,,,,,,,,,,,,,,,,,,,,,,,,,,,,,,,,,,,,,,,,,,,,,,,,,,,,,,,,,,,,,,,,,,,,,,,,,,,,,,,,,,,,,,,,,,,,,,,,,,,,,,,,
,,,,,,60df2618cedb346e436a28cf,62bbf96d6f5790797999c19e,2022-06-29_09h04.40.368,Colour_Asymmetry_Pilot,2022.1.3,Win32,59.92329818,62bbe60bf3d75ef465d3e404,0,91,91,9,1,onethree,,,,,,,,,,,,,,,,,,,,,,,,,,,,,,,,,,,,,,,,,,,,,,,,,,,,,,,,,,,,,,,,,,,,,,,,,,,,,,,,,,,,,,,,,,,,,,,,,,,,,,,,,,,,,,,,,,,,,,,,,,,,,,,,,,,,,,,,,,,,,,,,,,,,,,,,
,,,,,,60df2618cedb346e436a28cf,62bbf96d6f5790797999c19e,2022-06-29_09h04.40.368,Colour_Asymmetry_Pilot,2022.1.3,Win32,59.92329818,62bbe60bf3d75ef465d3e404,0,92,92,76,1,threeone,,,,,,,,,,,,,,,,,,,,,,,,,,,,,,,,,,,,,,,,,,,,,,,,,,,,,,,,,,,,,,,,,,,,,,,,,,,,,,,,,,,,,,,,,,,,,,,,,,,,,,,,,,,,,,,,,,,,,,,,,,,,,,,,,,,,,,,,,,,,,,,,,,,,,,,,
,,,,,,60df2618cedb346e436a28cf,62bbf96d6f5790797999c19e,2022-06-29_09h04.40.368,Colour_Asymmetry_Pilot,2022.1.3,Win32,59.92329818,62bbe60bf3d75ef465d3e404,0,93,93,70,1,fourtwo,,,,,,,,,,,,,,,,,,,,,,,,,,,,,,,,,,,,,,,,,,,,,,,,,,,,,,,,,,,,,,,,,,,,,,,,,,,,,,,,,,,,,,,,,,,,,,,,,,,,,,,,,,,,,,,,,,,,,,,,,,,,,,,,,,,,,,,,,,,,,,,,,,,,,,,,
,,,,,,60df2618cedb346e436a28cf,62bbf96d6f5790797999c19e,2022-06-29_09h04.40.368,Colour_Asymmetry_Pilot,2022.1.3,Win32,59.92329818,62bbe60bf3d75ef465d3e404,0,94,94,152,1,onetwo,,,,,,,,,,,,,,,,,,,,,,,,,,,,,,,,,,,,,,,,,,,,,,,,,,,,,,,,,,,,,,,,,,,,,,,,,,,,,,,,,,,,,,,,,,,,,,,,,,,,,,,,,,,,,,,,,,,,,,,,,,,,,,,,,,,,,,,,,,,,,,,,,,,,,,,,
,,,,,,60df2618cedb346e436a28cf,62bbf96d6f5790797999c19e,2022-06-29_09h04.40.368,Colour_Asymmetry_Pilot,2022.1.3,Win32,59.92329818,62bbe60bf3d75ef465d3e404,0,95,95,82,1,twoone,,,,,,,,,,,,,,,,,,,,,,,,,,,,,,,,,,,,,,,,,,,,,,,,,,,,,,,,,,,,,,,,,,,,,,,,,,,,,,,,,,,,,,,,,,,,,,,,,,,,,,,,,,,,,,,,,,,,,,,,,,,,,,,,,,,,,,,,,,,,,,,,,,,,,,,,
,,,,,,60df2618cedb346e436a28cf,62bbf96d6f5790797999c19e,2022-06-29_09h04.40.368,Colour_Asymmetry_Pilot,2022.1.3,Win32,59.92329818,62bbe60bf3d75ef465d3e404,0,96,96,123,1,twofour,,,,,,,,,,,,,,,,,,,,,,,,,,,,,,,,,,,,,,,,,,,,,,,,,,,,,,,,,,,,,,,,,,,,,,,,,,,,,,,,,,,,,,,,,,,,,,,,,,,,,,,,,,,,,,,,,,,,,,,,,,,,,,,,,,,,,,,,,,,,,,,,,,,,,,,,
,,,,,,60df2618cedb346e436a28cf,62bbf96d6f5790797999c19e,2022-06-29_09h04.40.368,Colour_Asymmetry_Pilot,2022.1.3,Win32,59.92329818,62bbe60bf3d75ef465d3e404,0,97,97,141,1,threefour,,,,,,,,,,,,,,,,,,,,,,,,,,,,,,,,,,,,,,,,,,,,,,,,,,,,,,,,,,,,,,,,,,,,,,,,,,,,,,,,,,,,,,,,,,,,,,,,,,,,,,,,,,,,,,,,,,,,,,,,,,,,,,,,,,,,,,,,,,,,,,,,,,,,,,,,
,,,,,,60df2618cedb346e436a28cf,62bbf96d6f5790797999c19e,2022-06-29_09h04.40.368,Colour_Asymmetry_Pilot,2022.1.3,Win32,59.92329818,62bbe60bf3d75ef465d3e404,0,98,98,36,1,threeone,,,,,,,,,,,,,,,,,,,,,,,,,,,,,,,,,,,,,,,,,,,,,,,,,,,,,,,,,,,,,,,,,,,,,,,,,,,,,,,,,,,,,,,,,,,,,,,,,,,,,,,,,,,,,,,,,,,,,,,,,,,,,,,,,,,,,,,,,,,,,,,,,,,,,,,,
,,,,,,60df2618cedb346e436a28cf,62bbf96d6f5790797999c19e,2022-06-29_09h04.40.368,Colour_Asymmetry_Pilot,2022.1.3,Win32,59.92329818,62bbe60bf3d75ef465d3e404,0,99,99,75,1,twofour,,,,,,,,,,,,,,,,,,,,,,,,,,,,,,,,,,,,,,,,,,,,,,,,,,,,,,,,,,,,,,,,,,,,,,,,,,,,,,,,,,,,,,,,,,,,,,,,,,,,,,,,,,,,,,,,,,,,,,,,,,,,,,,,,,,,,,,,,,,,,,,,,,,,,,,,
,,,,,,60df2618cedb346e436a28cf,62bbf96d6f5790797999c19e,2022-06-29_09h04.40.368,Colour_Asymmetry_Pilot,2022.1.3,Win32,59.92329818,62bbe60bf3d75ef465d3e404,0,100,100,56,1,onetwo,,,,,,,,,,,,,,,,,,,,,,,,,,,,,,,,,,,,,,,,,,,,,,,,,,,,,,,,,,,,,,,,,,,,,,,,,,,,,,,,,,,,,,,,,,,,,,,,,,,,,,,,,,,,,,,,,,,,,,,,,,,,,,,,,,,,,,,,,,,,,,,,,,,,,,,,
,,,,,,60df2618cedb346e436a28cf,62bbf96d6f5790797999c19e,2022-06-29_09h04.40.368,Colour_Asymmetry_Pilot,2022.1.3,Win32,59.92329818,62bbe60bf3d75ef465d3e404,0,101,101,62,1,fourtwo,,,,,,,,,,,,,,,,,,,,,,,,,,,,,,,,,,,,,,,,,,,,,,,,,,,,,,,,,,,,,,,,,,,,,,,,,,,,,,,,,,,,,,,,,,,,,,,,,,,,,,,,,,,,,,,,,,,,,,,,,,,,,,,,,,,,,,,,,,,,,,,,,,,,,,,,
,,,,,,60df2618cedb346e436a28cf,62bbf96d6f5790797999c19e,2022-06-29_09h04.40.368,Colour_Asymmetry_Pilot,2022.1.3,Win32,59.92329818,62bbe60bf3d75ef465d3e404,0,102,102,154,1,twoone,,,,,,,,,,,,,,,,,,,,,,,,,,,,,,,,,,,,,,,,,,,,,,,,,,,,,,,,,,,,,,,,,,,,,,,,,,,,,,,,,,,,,,,,,,,,,,,,,,,,,,,,,,,,,,,,,,,,,,,,,,,,,,,,,,,,,,,,,,,,,,,,,,,,,,,,
,,,,,,60df2618cedb346e436a28cf,62bbf96d6f5790797999c19e,2022-06-29_09h04.40.368,Colour_Asymmetry_Pilot,2022.1.3,Win32,59.92329818,62bbe60bf3d75ef465d3e404,0,103,103,105,1,onethree,,,,,,,,,,,,,,,,,,,,,,,,,,,,,,,,,,,,,,,,,,,,,,,,,,,,,,,,,,,,,,,,,,,,,,,,,,,,,,,,,,,,,,,,,,,,,,,,,,,,,,,,,,,,,,,,,,,,,,,,,,,,,,,,,,,,,,,,,,,,,,,,,,,,,,,,
,,,,,,60df2618cedb346e436a28cf,62bbf96d6f5790797999c19e,2022-06-29_09h04.40.368,Colour_Asymmetry_Pilot,2022.1.3,Win32,59.92329818,62bbe60bf3d75ef465d3e404,0,104,104,127,1,fourthree,,,,,,,,,,,,,,,,,,,,,,,,,,,,,,,,,,,,,,,,,,,,,,,,,,,,,,,,,,,,,,,,,,,,,,,,,,,,,,,,,,,,,,,,,,,,,,,,,,,,,,,,,,,,,,,,,,,,,,,,,,,,,,,,,,,,,,,,,,,,,,,,,,,,,,,,
,,,,,,60df2618cedb346e436a28cf,62bbf96d6f5790797999c19e,2022-06-29_09h04.40.368,Colour_Asymmetry_Pilot,2022.1.3,Win32,59.92329818,62bbe60bf3d75ef465d3e404,0,105,105,95,1,fourthree,,,,,,,,,,,,,,,,,,,,,,,,,,,,,,,,,,,,,,,,,,,,,,,,,,,,,,,,,,,,,,,,,,,,,,,,,,,,,,,,,,,,,,,,,,,,,,,,,,,,,,,,,,,,,,,,,,,,,,,,,,,,,,,,,,,,,,,,,,,,,,,,,,,,,,,,
,,,,,,60df2618cedb346e436a28cf,62bbf96d6f5790797999c19e,2022-06-29_09h04.40.368,Colour_Asymmetry_Pilot,2022.1.3,Win32,59.92329818,62bbe60bf3d75ef465d3e404,0,106,106,114,1,twoone,,,,,,,,,,,,,,,,,,,,,,,,,,,,,,,,,,,,,,,,,,,,,,,,,,,,,,,,,,,,,,,,,,,,,,,,,,,,,,,,,,,,,,,,,,,,,,,,,,,,,,,,,,,,,,,,,,,,,,,,,,,,,,,,,,,,,,,,,,,,,,,,,,,,,,,,
,,,,,,60df2618cedb346e436a28cf,62bbf96d6f5790797999c19e,2022-06-29_09h04.40.368,Colour_Asymmetry_Pilot,2022.1.3,Win32,59.92329818,62bbe60bf3d75ef465d3e404,0,107,107,121,1,onethree,,,,,,,,,,,,,,,,,,,,,,,,,,,,,,,,,,,,,,,,,,,,,,,,,,,,,,,,,,,,,,,,,,,,,,,,,,,,,,,,,,,,,,,,,,,,,,,,,,,,,,,,,,,,,,,,,,,,,,,,,,,,,,,,,,,,,,,,,,,,,,,,,,,,,,,,
,,,,,,60df2618cedb346e436a28cf,62bbf96d6f5790797999c19e,2022-06-29_09h04.40.368,Colour_Asymmetry_Pilot,2022.1.3,Win32,59.92329818,62bbe60bf3d75ef465d3e404,0,108,108,124,1,threeone,,,,,,,,,,,,,,,,,,,,,,,,,,,,,,,,,,,,,,,,,,,,,,,,,,,,,,,,,,,,,,,,,,,,,,,,,,,,,,,,,,,,,,,,,,,,,,,,,,,,,,,,,,,,,,,,,,,,,,,,,,,,,,,,,,,,,,,,,,,,,,,,,,,,,,,,
,,,,,,60df2618cedb346e436a28cf,62bbf96d6f5790797999c19e,2022-06-29_09h04.40.368,Colour_Asymmetry_Pilot,2022.1.3,Win32,59.92329818,62bbe60bf3d75ef465d3e404,0,109,109,133,1,threefour,,,,,,,,,,,,,,,,,,,,,,,,,,,,,,,,,,,,,,,,,,,,,,,,,,,,,,,,,,,,,,,,,,,,,,,,,,,,,,,,,,,,,,,,,,,,,,,,,,,,,,,,,,,,,,,,,,,,,,,,,,,,,,,,,,,,,,,,,,,,,,,,,,,,,,,,
,,,,,,60df2618cedb346e436a28cf,62bbf96d6f5790797999c19e,2022-06-29_09h04.40.368,Colour_Asymmetry_Pilot,2022.1.3,Win32,59.92329818,62bbe60bf3d75ef465d3e404,0,110,110,73,1,onethree,,,,,,,,,,,,,,,,,,,,,,,,,,,,,,,,,,,,,,,,,,,,,,,,,,,,,,,,,,,,,,,,,,,,,,,,,,,,,,,,,,,,,,,,,,,,,,,,,,,,,,,,,,,,,,,,,,,,,,,,,,,,,,,,,,,,,,,,,,,,,,,,,,,,,,,,
,,,,,,60df2618cedb346e436a28cf,62bbf96d6f5790797999c19e,2022-06-29_09h04.40.368,Colour_Asymmetry_Pilot,2022.1.3,Win32,59.92329818,62bbe60bf3d75ef465d3e404,0,111,111,115,1,twofour,,,,,,,,,,,,,,,,,,,,,,,,,,,,,,,,,,,,,,,,,,,,,,,,,,,,,,,,,,,,,,,,,,,,,,,,,,,,,,,,,,,,,,,,,,,,,,,,,,,,,,,,,,,,,,,,,,,,,,,,,,,,,,,,,,,,,,,,,,,,,,,,,,,,,,,,
,,,,,,60df2618cedb346e436a28cf,62bbf96d6f5790797999c19e,2022-06-29_09h04.40.368,Colour_Asymmetry_Pilot,2022.1.3,Win32,59.92329818,62bbe60bf3d75ef465d3e404,0,112,112,96,1,onetwo,,,,,,,,,,,,,,,,,,,,,,,,,,,,,,,,,,,,,,,,,,,,,,,,,,,,,,,,,,,,,,,,,,,,,,,,,,,,,,,,,,,,,,,,,,,,,,,,,,,,,,,,,,,,,,,,,,,,,,,,,,,,,,,,,,,,,,,,,,,,,,,,,,,,,,,,
,,,,,,60df2618cedb346e436a28cf,62bbf96d6f5790797999c19e,2022-06-29_09h04.40.368,Colour_Asymmetry_Pilot,2022.1.3,Win32,59.92329818,62bbe60bf3d75ef465d3e404,0,113,113,93,1,threefour,,,,,,,,,,,,,,,,,,,,,,,,,,,,,,,,,,,,,,,,,,,,,,,,,,,,,,,,,,,,,,,,,,,,,,,,,,,,,,,,,,,,,,,,,,,,,,,,,,,,,,,,,,,,,,,,,,,,,,,,,,,,,,,,,,,,,,,,,,,,,,,,,,,,,,,,
,,,,,,60df2618cedb346e436a28cf,62bbf96d6f5790797999c19e,2022-06-29_09h04.40.368,Colour_Asymmetry_Pilot,2022.1.3,Win32,59.92329818,62bbe60bf3d75ef465d3e404,0,114,114,112,1,onetwo,,,,,,,,,,,,,,,,,,,,,,,,,,,,,,,,,,,,,,,,,,,,,,,,,,,,,,,,,,,,,,,,,,,,,,,,,,,,,,,,,,,,,,,,,,,,,,,,,,,,,,,,,,,,,,,,,,,,,,,,,,,,,,,,,,,,,,,,,,,,,,,,,,,,,,,,
,,,,,,60df2618cedb346e436a28cf,62bbf96d6f5790797999c19e,2022-06-29_09h04.40.368,Colour_Asymmetry_Pilot,2022.1.3,Win32,59.92329818,62bbe60bf3d75ef465d3e404,0,115,115,119,1,fourthree,,,,,,,,,,,,,,,,,,,,,,,,,,,,,,,,,,,,,,,,,,,,,,,,,,,,,,,,,,,,,,,,,,,,,,,,,,,,,,,,,,,,,,,,,,,,,,,,,,,,,,,,,,,,,,,,,,,,,,,,,,,,,,,,,,,,,,,,,,,,,,,,,,,,,,,,
,,,,,,60df2618cedb346e436a28cf,62bbf96d6f5790797999c19e,2022-06-29_09h04.40.368,Colour_Asymmetry_Pilot,2022.1.3,Win32,59.92329818,62bbe60bf3d75ef465d3e404,0,116,116,42,1,twoone,,,,,,,,,,,,,,,,,,,,,,,,,,,,,,,,,,,,,,,,,,,,,,,,,,,,,,,,,,,,,,,,,,,,,,,,,,,,,,,,,,,,,,,,,,,,,,,,,,,,,,,,,,,,,,,,,,,,,,,,,,,,,,,,,,,,,,,,,,,,,,,,,,,,,,,,
,,,,,,60df2618cedb346e436a28cf,62bbf96d6f5790797999c19e,2022-06-29_09h04.40.368,Colour_Asymmetry_Pilot,2022.1.3,Win32,59.92329818,62bbe60bf3d75ef465d3e404,0,117,117,28,1,threeone,,,,,,,,,,,,,,,,,,,,,,,,,,,,,,,,,,,,,,,,,,,,,,,,,,,,,,,,,,,,,,,,,,,,,,,,,,,,,,,,,,,,,,,,,,,,,,,,,,,,,,,,,,,,,,,,,,,,,,,,,,,,,,,,,,,,,,,,,,,,,,,,,,,,,,,,
,,,,,,60df2618cedb346e436a28cf,62bbf96d6f5790797999c19e,2022-06-29_09h04.40.368,Colour_Asymmetry_Pilot,2022.1.3,Win32,59.92329818,62bbe60bf3d75ef465d3e404,0,118,118,139,1,twofour,,,,,,,,,,,,,,,,,,,,,,,,,,,,,,,,,,,,,,,,,,,,,,,,,,,,,,,,,,,,,,,,,,,,,,,,,,,,,,,,,,,,,,,,,,,,,,,,,,,,,,,,,,,,,,,,,,,,,,,,,,,,,,,,,,,,,,,,,,,,,,,,,,,,,,,,
,,,,,,60df2618cedb346e436a28cf,62bbf96d6f5790797999c19e,2022-06-29_09h04.40.368,Colour_Asymmetry_Pilot,2022.1.3,Win32,59.92329818,62bbe60bf3d75ef465d3e404,0,119,119,12,1,threeone,,,,,,,,,,,,,,,,,,,,,,,,,,,,,,,,,,,,,,,,,,,,,,,,,,,,,,,,,,,,,,,,,,,,,,,,,,,,,,,,,,,,,,,,,,,,,,,,,,,,,,,,,,,,,,,,,,,,,,,,,,,,,,,,,,,,,,,,,,,,,,,,,,,,,,,,
,,,,,,60df2618cedb346e436a28cf,62bbf96d6f5790797999c19e,2022-06-29_09h04.40.368,Colour_Asymmetry_Pilot,2022.1.3,Win32,59.92329818,62bbe60bf3d75ef465d3e404,0,120,120,125,1,threefour,,,,,,,,,,,,,,,,,,,,,,,,,,,,,,,,,,,,,,,,,,,,,,,,,,,,,,,,,,,,,,,,,,,,,,,,,,,,,,,,,,,,,,,,,,,,,,,,,,,,,,,,,,,,,,,,,,,,,,,,,,,,,,,,,,,,,,,,,,,,,,,,,,,,,,,,
,,,,,,60df2618cedb346e436a28cf,62bbf96d6f5790797999c19e,2022-06-29_09h04.40.368,Colour_Asymmetry_Pilot,2022.1.3,Win32,59.92329818,62bbe60bf3d75ef465d3e404,0,121,121,18,1,twoone,,,,,,,,,,,,,,,,,,,,,,,,,,,,,,,,,,,,,,,,,,,,,,,,,,,,,,,,,,,,,,,,,,,,,,,,,,,,,,,,,,,,,,,,,,,,,,,,,,,,,,,,,,,,,,,,,,,,,,,,,,,,,,,,,,,,,,,,,,,,,,,,,,,,,,,,
,,,,,,60df2618cedb346e436a28cf,62bbf96d6f5790797999c19e,2022-06-29_09h04.40.368,Colour_Asymmetry_Pilot,2022.1.3,Win32,59.92329818,62bbe60bf3d75ef465d3e404,0,122,122,143,1,fourthree,,,,,,,,,,,,,,,,,,,,,,,,,,,,,,,,,,,,,,,,,,,,,,,,,,,,,,,,,,,,,,,,,,,,,,,,,,,,,,,,,,,,,,,,,,,,,,,,,,,,,,,,,,,,,,,,,,,,,,,,,,,,,,,,,,,,,,,,,,,,,,,,,,,,,,,,
,,,,,,60df2618cedb346e436a28cf,62bbf96d6f5790797999c19e,2022-06-29_09h04.40.368,Colour_Asymmetry_Pilot,2022.1.3,Win32,59.92329818,62bbe60bf3d75ef465d3e404,0,123,123,83,1,twofour,,,,,,,,,,,,,,,,,,,,,,,,,,,,,,,,,,,,,,,,,,,,,,,,,,,,,,,,,,,,,,,,,,,,,,,,,,,,,,,,,,,,,,,,,,,,,,,,,,,,,,,,,,,,,,,,,,,,,,,,,,,,,,,,,,,,,,,,,,,,,,,,,,,,,,,,
,,,,,,60df2618cedb346e436a28cf,62bbf96d6f5790797999c19e,2022-06-29_09h04.40.368,Colour_Asymmetry_Pilot,2022.1.3,Win32,59.92329818,62bbe60bf3d75ef465d3e404,0,124,124,13,1,threefour,,,,,,,,,,,,,,,,,,,,,,,,,,,,,,,,,,,,,,,,,,,,,,,,,,,,,,,,,,,,,,,,,,,,,,,,,,,,,,,,,,,,,,,,,,,,,,,,,,,,,,,,,,,,,,,,,,,,,,,,,,,,,,,,,,,,,,,,,,,,,,,,,,,,,,,,
,,,,,,60df2618cedb346e436a28cf,62bbf96d6f5790797999c19e,2022-06-29_09h04.40.368,Colour_Asymmetry_Pilot,2022.1.3,Win32,59.92329818,62bbe60bf3d75ef465d3e404,0,125,125,107,1,twofour,,,,,,,,,,,,,,,,,,,,,,,,,,,,,,,,,,,,,,,,,,,,,,,,,,,,,,,,,,,,,,,,,,,,,,,,,,,,,,,,,,,,,,,,,,,,,,,,,,,,,,,,,,,,,,,,,,,,,,,,,,,,,,,,,,,,,,,,,,,,,,,,,,,,,,,,
,,,,,,60df2618cedb346e436a28cf,62bbf96d6f5790797999c19e,2022-06-29_09h04.40.368,Colour_Asymmetry_Pilot,2022.1.3,Win32,59.92329818,62bbe60bf3d75ef465d3e404,0,126,126,71,1,fourthree,,,,,,,,,,,,,,,,,,,,,,,,,,,,,,,,,,,,,,,,,,,,,,,,,,,,,,,,,,,,,,,,,,,,,,,,,,,,,,,,,,,,,,,,,,,,,,,,,,,,,,,,,,,,,,,,,,,,,,,,,,,,,,,,,,,,,,,,,,,,,,,,,,,,,,,,
,,,,,,60df2618cedb346e436a28cf,62bbf96d6f5790797999c19e,2022-06-29_09h04.40.368,Colour_Asymmetry_Pilot,2022.1.3,Win32,59.92329818,62bbe60bf3d75ef465d3e404,0,127,127,148,1,threeone,,,,,,,,,,,,,,,,,,,,,,,,,,,,,,,,,,,,,,,,,,,,,,,,,,,,,,,,,,,,,,,,,,,,,,,,,,,,,,,,,,,,,,,,,,,,,,,,,,,,,,,,,,,,,,,,,,,,,,,,,,,,,,,,,,,,,,,,,,,,,,,,,,,,,,,,
,,,,,,60df2618cedb346e436a28cf,62bbf96d6f5790797999c19e,2022-06-29_09h04.40.368,Colour_Asymmetry_Pilot,2022.1.3,Win32,59.92329818,62bbe60bf3d75ef465d3e404,0,128,128,46,1,fourtwo,,,,,,,,,,,,,,,,,,,,,,,,,,,,,,,,,,,,,,,,,,,,,,,,,,,,,,,,,,,,,,,,,,,,,,,,,,,,,,,,,,,,,,,,,,,,,,,,,,,,,,,,,,,,,,,,,,,,,,,,,,,,,,,,,,,,,,,,,,,,,,,,,,,,,,,,
,,,,,,60df2618cedb346e436a28cf,62bbf96d6f5790797999c19e,2022-06-29_09h04.40.368,Colour_Asymmetry_Pilot,2022.1.3,Win32,59.92329818,62bbe60bf3d75ef465d3e404,0,129,129,16,1,onetwo,,,,,,,,,,,,,,,,,,,,,,,,,,,,,,,,,,,,,,,,,,,,,,,,,,,,,,,,,,,,,,,,,,,,,,,,,,,,,,,,,,,,,,,,,,,,,,,,,,,,,,,,,,,,,,,,,,,,,,,,,,,,,,,,,,,,,,,,,,,,,,,,,,,,,,,,
,,,,,,60df2618cedb346e436a28cf,62bbf96d6f5790797999c19e,2022-06-29_09h04.40.368,Colour_Asymmetry_Pilot,2022.1.3,Win32,59.92329818,62bbe60bf3d75ef465d3e404,0,130,130,52,1,threeone,,,,,,,,,,,,,,,,,,,,,,,,,,,,,,,,,,,,,,,,,,,,,,,,,,,,,,,,,,,,,,,,,,,,,,,,,,,,,,,,,,,,,,,,,,,,,,,,,,,,,,,,,,,,,,,,,,,,,,,,,,,,,,,,,,,,,,,,,,,,,,,,,,,,,,,,
,,,,,,60df2618cedb346e436a28cf,62bbf96d6f5790797999c19e,2022-06-29_09h04.40.368,Colour_Asymmetry_Pilot,2022.1.3,Win32,59.92329818,62bbe60bf3d75ef465d3e404,0,131,131,159,1,fourthree,,,,,,,,,,,,,,,,,,,,,,,,,,,,,,,,,,,,,,,,,,,,,,,,,,,,,,,,,,,,,,,,,,,,,,,,,,,,,,,,,,,,,,,,,,,,,,,,,,,,,,,,,,,,,,,,,,,,,,,,,,,,,,,,,,,,,,,,,,,,,,,,,,,,,,,,
,,,,,,60df2618cedb346e436a28cf,62bbf96d6f5790797999c19e,2022-06-29_09h04.40.368,Colour_Asymmetry_Pilot,2022.1.3,Win32,59.92329818,62bbe60bf3d75ef465d3e404,0,132,132,104,1,onetwo,,,,,,,,,,,,,,,,,,,,,,,,,,,,,,,,,,,,,,,,,,,,,,,,,,,,,,,,,,,,,,,,,,,,,,,,,,,,,,,,,,,,,,,,,,,,,,,,,,,,,,,,,,,,,,,,,,,,,,,,,,,,,,,,,,,,,,,,,,,,,,,,,,,,,,,,
,,,,,,60df2618cedb346e436a28cf,62bbf96d6f5790797999c19e,2022-06-29_09h04.40.368,Colour_Asymmetry_Pilot,2022.1.3,Win32,59.92329818,62bbe60bf3d75ef465d3e404,0,133,133,37,1,threefour,,,,,,,,,,,,,,,,,,,,,,,,,,,,,,,,,,,,,,,,,,,,,,,,,,,,,,,,,,,,,,,,,,,,,,,,,,,,,,,,,,,,,,,,,,,,,,,,,,,,,,,,,,,,,,,,,,,,,,,,,,,,,,,,,,,,,,,,,,,,,,,,,,,,,,,,
,,,,,,60df2618cedb346e436a28cf,62bbf96d6f5790797999c19e,2022-06-29_09h04.40.368,Colour_Asymmetry_Pilot,2022.1.3,Win32,59.92329818,62bbe60bf3d75ef465d3e404,0,134,134,54,1,fourtwo,,,,,,,,,,,,,,,,,,,,,,,,,,,,,,,,,,,,,,,,,,,,,,,,,,,,,,,,,,,,,,,,,,,,,,,,,,,,,,,,,,,,,,,,,,,,,,,,,,,,,,,,,,,,,,,,,,,,,,,,,,,,,,,,,,,,,,,,,,,,,,,,,,,,,,,,
,,,,,,60df2618cedb346e436a28cf,62bbf96d6f5790797999c19e,2022-06-29_09h04.40.368,Colour_Asymmetry_Pilot,2022.1.3,Win32,59.92329818,62bbe60bf3d75ef465d3e404,0,135,135,21,1,threefour,,,,,,,,,,,,,,,,,,,,,,,,,,,,,,,,,,,,,,,,,,,,,,,,,,,,,,,,,,,,,,,,,,,,,,,,,,,,,,,,,,,,,,,,,,,,,,,,,,,,,,,,,,,,,,,,,,,,,,,,,,,,,,,,,,,,,,,,,,,,,,,,,,,,,,,,
,,,,,,60df2618cedb346e436a28cf,62bbf96d6f5790797999c19e,2022-06-29_09h04.40.368,Colour_Asymmetry_Pilot,2022.1.3,Win32,59.92329818,62bbe60bf3d75ef465d3e404,0,136,136,23,1,fourthree,,,,,,,,,,,,,,,,,,,,,,,,,,,,,,,,,,,,,,,,,,,,,,,,,,,,,,,,,,,,,,,,,,,,,,,,,,,,,,,,,,,,,,,,,,,,,,,,,,,,,,,,,,,,,,,,,,,,,,,,,,,,,,,,,,,,,,,,,,,,,,,,,,,,,,,,
,,,,,,60df2618cedb346e436a28cf,62bbf96d6f5790797999c19e,2022-06-29_09h04.40.368,Colour_Asymmetry_Pilot,2022.1.3,Win32,59.92329818,62bbe60bf3d75ef465d3e404,0,137,137,14,1,fourtwo,,,,,,,,,,,,,,,,,,,,,,,,,,,,,,,,,,,,,,,,,,,,,,,,,,,,,,,,,,,,,,,,,,,,,,,,,,,,,,,,,,,,,,,,,,,,,,,,,,,,,,,,,,,,,,,,,,,,,,,,,,,,,,,,,,,,,,,,,,,,,,,,,,,,,,,,
,,,,,,60df2618cedb346e436a28cf,62bbf96d6f5790797999c19e,2022-06-29_09h04.40.368,Colour_Asymmetry_Pilot,2022.1.3,Win32,59.92329818,62bbe60bf3d75ef465d3e404,0,138,138,55,1,fourthree,,,,,,,,,,,,,,,,,,,,,,,,,,,,,,,,,,,,,,,,,,,,,,,,,,,,,,,,,,,,,,,,,,,,,,,,,,,,,,,,,,,,,,,,,,,,,,,,,,,,,,,,,,,,,,,,,,,,,,,,,,,,,,,,,,,,,,,,,,,,,,,,,,,,,,,,
,,,,,,60df2618cedb346e436a28cf,62bbf96d6f5790797999c19e,2022-06-29_09h04.40.368,Colour_Asymmetry_Pilot,2022.1.3,Win32,59.92329818,62bbe60bf3d75ef465d3e404,0,139,139,60,1,threeone,,,,,,,,,,,,,,,,,,,,,,,,,,,,,,,,,,,,,,,,,,,,,,,,,,,,,,,,,,,,,,,,,,,,,,,,,,,,,,,,,,,,,,,,,,,,,,,,,,,,,,,,,,,,,,,,,,,,,,,,,,,,,,,,,,,,,,,,,,,,,,,,,,,,,,,,
,,,,,,60df2618cedb346e436a28cf,62bbf96d6f5790797999c19e,2022-06-29_09h04.40.368,Colour_Asymmetry_Pilot,2022.1.3,Win32,59.92329818,62bbe60bf3d75ef465d3e404,0,140,140,136,1,onetwo,,,,,,,,,,,,,,,,,,,,,,,,,,,,,,,,,,,,,,,,,,,,,,,,,,,,,,,,,,,,,,,,,,,,,,,,,,,,,,,,,,,,,,,,,,,,,,,,,,,,,,,,,,,,,,,,,,,,,,,,,,,,,,,,,,,,,,,,,,,,,,,,,,,,,,,,
,,,,,,60df2618cedb346e436a28cf,62bbf96d6f5790797999c19e,2022-06-29_09h04.40.368,Colour_Asymmetry_Pilot,2022.1.3,Win32,59.92329818,62bbe60bf3d75ef465d3e404,0,141,141,25,1,onethree,,,,,,,,,,,,,,,,,,,,,,,,,,,,,,,,,,,,,,,,,,,,,,,,,,,,,,,,,,,,,,,,,,,,,,,,,,,,,,,,,,,,,,,,,,,,,,,,,,,,,,,,,,,,,,,,,,,,,,,,,,,,,,,,,,,,,,,,,,,,,,,,,,,,,,,,
,,,,,,60df2618cedb346e436a28cf,62bbf96d6f5790797999c19e,2022-06-29_09h04.40.368,Colour_Asymmetry_Pilot,2022.1.3,Win32,59.92329818,62bbe60bf3d75ef465d3e404,0,142,142,29,1,threefour,,,,,,,,,,,,,,,,,,,,,,,,,,,,,,,,,,,,,,,,,,,,,,,,,,,,,,,,,,,,,,,,,,,,,,,,,,,,,,,,,,,,,,,,,,,,,,,,,,,,,,,,,,,,,,,,,,,,,,,,,,,,,,,,,,,,,,,,,,,,,,,,,,,,,,,,
,,,,,,60df2618cedb346e436a28cf,62bbf96d6f5790797999c19e,2022-06-29_09h04.40.368,Colour_Asymmetry_Pilot,2022.1.3,Win32,59.92329818,62bbe60bf3d75ef465d3e404,0,143,143,35,1,twofour,,,,,,,,,,,,,,,,,,,,,,,,,,,,,,,,,,,,,,,,,,,,,,,,,,,,,,,,,,,,,,,,,,,,,,,,,,,,,,,,,,,,,,,,,,,,,,,,,,,,,,,,,,,,,,,,,,,,,,,,,,,,,,,,,,,,,,,,,,,,,,,,,,,,,,,,
,,,,,,60df2618cedb346e436a28cf,62bbf96d6f5790797999c19e,2022-06-29_09h04.40.368,Colour_Asymmetry_Pilot,2022.1.3,Win32,59.92329818,62bbe60bf3d75ef465d3e404,0,144,144,80,1,onetwo,,,,,,,,,,,,,,,,,,,,,,,,,,,,,,,,,,,,,,,,,,,,,,,,,,,,,,,,,,,,,,,,,,,,,,,,,,,,,,,,,,,,,,,,,,,,,,,,,,,,,,,,,,,,,,,,,,,,,,,,,,,,,,,,,,,,,,,,,,,,,,,,,,,,,,,,
,,,,,,60df2618cedb346e436a28cf,62bbf96d6f5790797999c19e,2022-06-29_09h04.40.368,Colour_Asymmetry_Pilot,2022.1.3,Win32,59.92329818,62bbe60bf3d75ef465d3e404,0,145,145,31,1,fourthree,,,,,,,,,,,,,,,,,,,,,,,,,,,,,,,,,,,,,,,,,,,,,,,,,,,,,,,,,,,,,,,,,,,,,,,,,,,,,,,,,,,,,,,,,,,,,,,,,,,,,,,,,,,,,,,,,,,,,,,,,,,,,,,,,,,,,,,,,,,,,,,,,,,,,,,,
,,,,,,60df2618cedb346e436a28cf,62bbf96d6f5790797999c19e,2022-06-29_09h04.40.368,Colour_Asymmetry_Pilot,2022.1.3,Win32,59.92329818,62bbe60bf3d75ef465d3e404,0,146,146,85,1,threefour,,,,,,,,,,,,,,,,,,,,,,,,,,,,,,,,,,,,,,,,,,,,,,,,,,,,,,,,,,,,,,,,,,,,,,,,,,,,,,,,,,,,,,,,,,,,,,,,,,,,,,,,,,,,,,,,,,,,,,,,,,,,,,,,,,,,,,,,,,,,,,,,,,,,,,,,
,,,,,,60df2618cedb346e436a28cf,62bbf96d6f5790797999c19e,2022-06-29_09h04.40.368,Colour_Asymmetry_Pilot,2022.1.3,Win32,59.92329818,62bbe60bf3d75ef465d3e404,0,147,147,129,1,onethree,,,,,,,,,,,,,,,,,,,,,,,,,,,,,,,,,,,,,,,,,,,,,,,,,,,,,,,,,,,,,,,,,,,,,,,,,,,,,,,,,,,,,,,,,,,,,,,,,,,,,,,,,,,,,,,,,,,,,,,,,,,,,,,,,,,,,,,,,,,,,,,,,,,,,,,,
,,,,,,60df2618cedb346e436a28cf,62bbf96d6f5790797999c19e,2022-06-29_09h04.40.368,Colour_Asymmetry_Pilot,2022.1.3,Win32,59.92329818,62bbe60bf3d75ef465d3e404,0,148,148,126,1,fourtwo,,,,,,,,,,,,,,,,,,,,,,,,,,,,,,,,,,,,,,,,,,,,,,,,,,,,,,,,,,,,,,,,,,,,,,,,,,,,,,,,,,,,,,,,,,,,,,,,,,,,,,,,,,,,,,,,,,,,,,,,,,,,,,,,,,,,,,,,,,,,,,,,,,,,,,,,
,,,,,,60df2618cedb346e436a28cf,62bbf96d6f5790797999c19e,2022-06-29_09h04.40.368,Colour_Asymmetry_Pilot,2022.1.3,Win32,59.92329818,62bbe60bf3d75ef465d3e404,0,149,149,116,1,threeone,,,,,,,,,,,,,,,,,,,,,,,,,,,,,,,,,,,,,,,,,,,,,,,,,,,,,,,,,,,,,,,,,,,,,,,,,,,,,,,,,,,,,,,,,,,,,,,,,,,,,,,,,,,,,,,,,,,,,,,,,,,,,,,,,,,,,,,,,,,,,,,,,,,,,,,,
,,,,,,60df2618cedb346e436a28cf,62bbf96d6f5790797999c19e,2022-06-29_09h04.40.368,Colour_Asymmetry_Pilot,2022.1.3,Win32,59.92329818,62bbe60bf3d75ef465d3e404,0,150,150,50,1,twoone,,,,,,,,,,,,,,,,,,,,,,,,,,,,,,,,,,,,,,,,,,,,,,,,,,,,,,,,,,,,,,,,,,,,,,,,,,,,,,,,,,,,,,,,,,,,,,,,,,,,,,,,,,,,,,,,,,,,,,,,,,,,,,,,,,,,,,,,,,,,,,,,,,,,,,,,
,,,,,,60df2618cedb346e436a28cf,62bbf96d6f5790797999c19e,2022-06-29_09h04.40.368,Colour_Asymmetry_Pilot,2022.1.3,Win32,59.92329818,62bbe60bf3d75ef465d3e404,0,151,151,108,1,threeone,,,,,,,,,,,,,,,,,,,,,,,,,,,,,,,,,,,,,,,,,,,,,,,,,,,,,,,,,,,,,,,,,,,,,,,,,,,,,,,,,,,,,,,,,,,,,,,,,,,,,,,,,,,,,,,,,,,,,,,,,,,,,,,,,,,,,,,,,,,,,,,,,,,,,,,,
,,,,,,60df2618cedb346e436a28cf,62bbf96d6f5790797999c19e,2022-06-29_09h04.40.368,Colour_Asymmetry_Pilot,2022.1.3,Win32,59.92329818,62bbe60bf3d75ef465d3e404,0,152,152,117,1,threefour,,,,,,,,,,,,,,,,,,,,,,,,,,,,,,,,,,,,,,,,,,,,,,,,,,,,,,,,,,,,,,,,,,,,,,,,,,,,,,,,,,,,,,,,,,,,,,,,,,,,,,,,,,,,,,,,,,,,,,,,,,,,,,,,,,,,,,,,,,,,,,,,,,,,,,,,
,,,,,,60df2618cedb346e436a28cf,62bbf96d6f5790797999c19e,2022-06-29_09h04.40.368,Colour_Asymmetry_Pilot,2022.1.3,Win32,59.92329818,62bbe60bf3d75ef465d3e404,0,153,153,39,1,fourthree,,,,,,,,,,,,,,,,,,,,,,,,,,,,,,,,,,,,,,,,,,,,,,,,,,,,,,,,,,,,,,,,,,,,,,,,,,,,,,,,,,,,,,,,,,,,,,,,,,,,,,,,,,,,,,,,,,,,,,,,,,,,,,,,,,,,,,,,,,,,,,,,,,,,,,,,
,,,,,,60df2618cedb346e436a28cf,62bbf96d6f5790797999c19e,2022-06-29_09h04.40.368,Colour_Asymmetry_Pilot,2022.1.3,Win32,59.92329818,62bbe60bf3d75ef465d3e404,0,154,154,0,1,onetwo,,,,,,,,,,,,,,,,,,,,,,,,,,,,,,,,,,,,,,,,,,,,,,,,,,,,,,,,,,,,,,,,,,,,,,,,,,,,,,,,,,,,,,,,,,,,,,,,,,,,,,,,,,,,,,,,,,,,,,,,,,,,,,,,,,,,,,,,,,,,,,,,,,,,,,,,
,,,,,,60df2618cedb346e436a28cf,62bbf96d6f5790797999c19e,2022-06-29_09h04.40.368,Colour_Asymmetry_Pilot,2022.1.3,Win32,59.92329818,62bbe60bf3d75ef465d3e404,0,155,155,118,1,fourtwo,,,,,,,,,,,,,,,,,,,,,,,,,,,,,,,,,,,,,,,,,,,,,,,,,,,,,,,,,,,,,,,,,,,,,,,,,,,,,,,,,,,,,,,,,,,,,,,,,,,,,,,,,,,,,,,,,,,,,,,,,,,,,,,,,,,,,,,,,,,,,,,,,,,,,,,,
,,,,,,60df2618cedb346e436a28cf,62bbf96d6f5790797999c19e,2022-06-29_09h04.40.368,Colour_Asymmetry_Pilot,2022.1.3,Win32,59.92329818,62bbe60bf3d75ef465d3e404,0,156,156,109,1,threefour,,,,,,,,,,,,,,,,,,,,,,,,,,,,,,,,,,,,,,,,,,,,,,,,,,,,,,,,,,,,,,,,,,,,,,,,,,,,,,,,,,,,,,,,,,,,,,,,,,,,,,,,,,,,,,,,,,,,,,,,,,,,,,,,,,,,,,,,,,,,,,,,,,,,,,,,
,,,,,,60df2618cedb346e436a28cf,62bbf96d6f5790797999c19e,2022-06-29_09h04.40.368,Colour_Asymmetry_Pilot,2022.1.3,Win32,59.92329818,62bbe60bf3d75ef465d3e404,0,157,157,99,1,twofour,,,,,,,,,,,,,,,,,,,,,,,,,,,,,,,,,,,,,,,,,,,,,,,,,,,,,,,,,,,,,,,,,,,,,,,,,,,,,,,,,,,,,,,,,,,,,,,,,,,,,,,,,,,,,,,,,,,,,,,,,,,,,,,,,,,,,,,,,,,,,,,,,,,,,,,,
,,,,,,60df2618cedb346e436a28cf,62bbf96d6f5790797999c19e,2022-06-29_09h04.40.368,Colour_Asymmetry_Pilot,2022.1.3,Win32,59.92329818,62bbe60bf3d75ef465d3e404,0,158,158,155,1,twofour,,,,,,,,,,,,,,,,,,,,,,,,,,,,,,,,,,,,,,,,,,,,,,,,,,,,,,,,,,,,,,,,,,,,,,,,,,,,,,,,,,,,,,,,,,,,,,,,,,,,,,,,,,,,,,,,,,,,,,,,,,,,,,,,,,,,,,,,,,,,,,,,,,,,,,,,
,,,,,,60df2618cedb346e436a28cf,62bbf96d6f5790797999c19e,2022-06-29_09h04.40.368,Colour_Asymmetry_Pilot,2022.1.3,Win32,59.92329818,62bbe60bf3d75ef465d3e404,0,159,159,106,1,twoone,,,,,,,,,,,,,,,,,,,,,,,,,,,,,,,,,,,,,,,,,,,,,,,,,,,,,,,,,,,,,,,,,,,,,,,,,,,,,,,,,,,,,,,,,,,,,,,,,,,,,,,,,,,,,,,,,,,,,,,,,,,,,,,,,,,,,,,,,,,,,,,,,,,,,,,,
,,,,,,60df2618cedb346e436a28cf,62bbf96d6f5790797999c19e,2022-06-29_09h04.40.368,Colour_Asymmetry_Pilot,2022.1.3,Win32,59.92329818,62bbe60bf3d75ef465d3e404,0,160,160,78,1,fourtwo,,,,,,,,,,,,,,,,,,,,,,,,,,,,,,,,,,,,,,,,,,,,,,,,,,,,,,,,,,,,,,,,,,,,,,,,,,,,,,,,,,,,,,,,,,,,,,,,,,,,,,,,,,,,,,,,,,,,,,,,,,,,,,,,,,,,,,,,,,,,,,,,,,,,,,,,
,,,,,,60df2618cedb346e436a28cf,62bbf96d6f5790797999c19e,2022-06-29_09h04.40.368,Colour_Asymmetry_Pilot,2022.1.3,Win32,59.92329818,62bbe60bf3d75ef465d3e404,0,161,161,149,1,threefour,,,,,,,,,,,,,,,,,,,,,,,,,,,,,,,,,,,,,,,,,,,,,,,,,,,,,,,,,,,,,,,,,,,,,,,,,,,,,,,,,,,,,,,,,,,,,,,,,,,,,,,,,,,,,,,,,,,,,,,,,,,,,,,,,,,,,,,,,,,,,,,,,,,,,,,,
,,,,,,60df2618cedb346e436a28cf,62bbf96d6f5790797999c19e,2022-06-29_09h04.40.368,Colour_Asymmetry_Pilot,2022.1.3,Win32,59.92329818,62bbe60bf3d75ef465d3e404,,,,,,,space,3.1814,space,12.2035,space,38.2561,space,7.7932,space,4.233,space,8.5586,"[0.9213999999999998,0.6391999999999998,-0.9922]",fourtwo,"[-0.24719999999999998,0.5213999999999999,-0.12959999999999994]",-3,22.1051,-68,62,1,0,0,response7disk_5,4,5,1,0,0,rectangle_8,4,5,1,0,0,4,4,5,1,0,0,0,0,0,0,1,,,,,,,,,,,,,,,,,,,,,,,,,,,,,,,,,,,,,,,,,,,,,,,,,,,,,,,,,,,,,,,,,,,,,,,,,,,,,,,,,,,,,,,,,,,,,,,,,,,,,,,,,,,
,,,,,,60df2618cedb346e436a28cf,62bbf96d6f5790797999c19e,2022-06-29_09h04.40.368,Colour_Asymmetry_Pilot,2022.1.3,Win32,59.92329818,62bbe60bf3d75ef465d3e404,,,,,,,,,,,,,,,,,,,"[-0.4276,0.0038000000000000256,-0.3256]",fourtwo,"[0.11359999999999992,0.6312,0.5213999999999999]",-3,6.2019,-82,61,1,0,0,response7disk_5,3,2,1,0,0,rectangle_8,3,2,1,0,0,4,3,2,1,0,0,1,0,1,0,1,,,,,,,,,,,,,,,,,,,,,,,,,,,,,,,,,,,,,,,,,,,,,,,,,,,,,,,,,,,,,,,,,,,,,,,,,,,,,,,,,,,,,,,,,,,,,,,,,,,,,,,,,,,
,,,,,,60df2618cedb346e436a28cf,62bbf96d6f5790797999c19e,2022-06-29_09h04.40.368,Colour_Asymmetry_Pilot,2022.1.3,Win32,59.92329818,62bbe60bf3d75ef465d3e404,,,,,,,,,,,,,,,,,,,"[0.5528,0.7409999999999999,-0.71]",twofour,"[0.8274000000000001,-0.5844,-0.9452]",-4,5.0953,-82,108,1,0,0,response7disk_5,0,7,1,0,0,rectangle_8,0,7,1,0,0,4,0,7,1,0,0,2,0,2,0,1,,,,,,,,,,,,,,,,,,,,,,,,,,,,,,,,,,,,,,,,,,,,,,,,,,,,,,,,,,,,,,,,,,,,,,,,,,,,,,,,,,,,,,,,,,,,,,,,,,,,,,,,,,,
,,,,,,60df2618cedb346e436a28cf,62bbf96d6f5790797999c19e,2022-06-29_09h04.40.368,Colour_Asymmetry_Pilot,2022.1.3,Win32,59.92329818,62bbe60bf3d75ef465d3e404,,,,,,,,,,,,,,,,,,,"[-0.7412000000000001,-0.08239999999999992,-0.6864]",threeone,"[0.23120000000000007,-0.7726,-0.34120000000000006]",-4,1.5664,-54,86,1,0,0,response7disk_5,10,-12,1,0,0,rectangle_8,10,-12,1,0,0,4,10,-12,1,0,0,3,0,3,0,1,,,,,,,,,,,,,,,,,,,,,,,,,,,,,,,,,,,,,,,,,,,,,,,,,,,,,,,,,,,,,,,,,,,,,,,,,,,,,,,,,,,,,,,,,,,,,,,,,,,,,,,,,,,
,,,,,,60df2618cedb346e436a28cf,62bbf96d6f5790797999c19e,2022-06-29_09h04.40.368,Colour_Asymmetry_Pilot,2022.1.3,Win32,59.92329818,62bbe60bf3d75ef465d3e404,,,,,,,,,,,,,,,,,,,"[-0.9844,-0.9688,-0.9922]",threefour,"[-0.5922000000000001,-0.7492000000000001,-0.5296000000000001]",3,3.1835,121,78,1,0,0,response1disk_5,-1,2,1,0,0,rectangle_8,59,105,1,0,0,4,2,-1,1,0,0,4,0,4,0,1,response1disk_7,7,rectangle_4,,,,,,,,,,,,,,,,,,,,,,,,,,,,,,,,,,,,,,,,,,,,,,,,,,,,,,,,,,,,,,,,,,,,,,,,,,,,,,,,,,,,,,,,,,,,,,,,,,,,,,,,
,,,,,,60df2618cedb346e436a28cf,62bbf96d6f5790797999c19e,2022-06-29_09h04.40.368,Colour_Asymmetry_Pilot,2022.1.3,Win32,59.92329818,62bbe60bf3d75ef465d3e404,,,,,,,,,,,,,,,,,,,"[-0.9688,-0.38039999999999996,-0.41979999999999995]",twofour,"[0.5528,0.7409999999999999,-0.71]",2,3.5155,88,-51,1,0,0,response3disk_5,9,2,1,0,0,rectangle_8,60,88,1,0,0,4,1,7,1,0,0,5,0,5,0,1,response1disk_7,7,rectangle_4,,,,,,,,,,,,,,,,,,,,,,,,,,,,,,,,,,,,,,,,,,,,,,,,,,,,,,,,,,,,,,,,,,,,,,,,,,,,,,,,,,,,,,,,,,,,,,,,,,,,,,,,
,,,,,,60df2618cedb346e436a28cf,62bbf96d6f5790797999c19e,2022-06-29_09h04.40.368,Colour_Asymmetry_Pilot,2022.1.3,Win32,59.92329818,62bbe60bf3d75ef465d3e404,,,,,,,,,,,,,,,,,,,"[0.34099999999999997,0.12939999999999996,-0.9766]",threeone,"[0.30180000000000007,-0.7884,-0.9844]",-2,2.6992,-105,-30,1,0,0,response5disk_5,3,6,1,0,0,rectangle_8,3,6,1,0,0,4,3,6,1,0,0,6,0,6,0,1,,,,,,,,,,,,,,,,,,,,,,,,,,,,,,,,,,,,,,,,,,,,,,,,,,,,,,,,,,,,,,,,,,,,,,,,,,,,,,,,,,,,,,,,,,,,,,,,,,,,,,,,,,,
,,,,,,60df2618cedb346e436a28cf,62bbf96d6f5790797999c19e,2022-06-29_09h04.40.368,Colour_Asymmetry_Pilot,2022.1.3,Win32,59.92329818,62bbe60bf3d75ef465d3e404,,,,,,,,,,,,,,,,,,,,twoone,,-3,2.2336,,,,,,,,,,,,,,,,,,,,,,,,,,,,,,,,space,2.5939,"[-0.45899999999999996,-0.3256,-0.9374]","[0.5449999999999999,-0.31000000000000005,-0.0354000000000001]",-97,30,1,0,0,response7disk,-6,-2,1,0,0,rectangle,-6,-2,1,0,0,,3,0.0022,0,-6,-2,1,0,0,0,0,0,23,1,23,first,,,,,,,,,,,,,,,,,,,,,,,,,,,,,,,,,,,,,,,,,,,,,,,,,,,,,,,,,,,,,,,,,,,
,,,,,,60df2618cedb346e436a28cf,62bbf96d6f5790797999c19e,2022-06-29_09h04.40.368,Colour_Asymmetry_Pilot,2022.1.3,Win32,59.92329818,62bbe60bf3d75ef465d3e404,,,,,,,,,,,,,,,,,,,,onetwo,,-3,1.3028,,,,,,,,,,,,,,,,,,,,,,,,,,,,,,,,,,"[0.9372,0.9450000000000001,0.8980000000000001]","[0.6625999999999999,0.4980000000000002,-0.357]",-69,30,1,0,0,response7disk,-20,3,1,0,0,rectangle,-20,3,1,0,0,,1,0.0033,0,-20,3,1,0,0,0,1,1,130,1,49,second,,,,,,,,,,,,,,,,,,,,,,,,,,,,,,,,,,,,,,,,,,,,,,,,,,,,,,,,,,,,,,,,,,,
,,,,,,60df2618cedb346e436a28cf,62bbf96d6f5790797999c19e,2022-06-29_09h04.40.368,Colour_Asymmetry_Pilot,2022.1.3,Win32,59.92329818,62bbe60bf3d75ef465d3e404,,,,,,,,,,,,,,,,,,,,onethree,,-3,0.8499,,,,,,,,,,,,,,,,,,,,,,,,,,,,,,,,,,"[0.5449999999999999,-0.31000000000000005,-0.0354000000000001]","[0.19199999999999995,0.18419999999999992,0.5136000000000001]",-145,46,1,0,0,response7disk,-28,2,1,0,0,rectangle,-28,2,1,0,0,,2,0.0028,0,-28,2,1,0,0,0,2,2,14,1,14,first,,,,,,,,,,,,,,,,,,,,,,,,,,,,,,,,,,,,,,,,,,,,,,,,,,,,,,,,,,,,,,,,,,,
,,,,,,60df2618cedb346e436a28cf,62bbf96d6f5790797999c19e,2022-06-29_09h04.40.368,Colour_Asymmetry_Pilot,2022.1.3,Win32,59.92329818,62bbe60bf3d75ef465d3e404,,,,,,,,,,,,,,,,,,,,fourthree,,2,1.1662,,,,,,,,,,,,,,,,,,,,,,,,,,,,,,,,,,"[-0.24719999999999998,0.5213999999999999,-0.12959999999999994]","[0.2862,0.7802,0.3568]",107,-43,1,0,0,response3disk,9,11,1,0,0,rectangle,96,-55,1,0,0,2,2,3.4659,1,-3,-7,1,0,0,0,3,3,55,1,55,first,response3disk_3,rectangle,,,,,,,,,,,,,,,,,,,,,,,,,,,,,,,,,,,,,,,,,,,,,,,,,,,,,,,,,,,,,,,,,
,,,,,,60df2618cedb346e436a28cf,62bbf96d6f5790797999c19e,2022-06-29_09h04.40.368,Colour_Asymmetry_Pilot,2022.1.3,Win32,59.92329818,62bbe60bf3d75ef465d3e404,,,,,,,,,,,,,,,,,,,,onetwo,,-4,1.683,,,,,,,,,,,,,,,,,,,,,,,,,,,,,,,,,,"[0.5528,0.7409999999999999,-0.71]","[0.5449999999999999,-0.31000000000000005,-0.0354000000000001]",-48,65,1,0,0,response7disk,-16,9,1,0,0,rectangle,-16,9,1,0,0,2,1,0.0039,0,-16,9,1,0,0,0,4,4,60,1,60,first,,,,,,,,,,,,,,,,,,,,,,,,,,,,,,,,,,,,,,,,,,,,,,,,,,,,,,,,,,,,,,,,,,,
,,,,,,60df2618cedb346e436a28cf,62bbf96d6f5790797999c19e,2022-06-29_09h04.40.368,Colour_Asymmetry_Pilot,2022.1.3,Win32,59.92329818,62bbe60bf3d75ef465d3e404,,,,,,,,,,,,,,,,,,,,threefour,,-4,0.6331,,,,,,,,,,,,,,,,,,,,,,,,,,,,,,,,,,"[-0.30200000000000005,0.14500000000000002,0.2784]","[0.9842,0.7409999999999999,-0.6628000000000001]",-79,96,1,0,0,response7disk,-15,7,1,0,0,rectangle,-15,7,1,0,0,2,3,0.0039,0,-15,7,1,0,0,0,5,5,93,1,12,second,,,,,,,,,,,,,,,,,,,,,,,,,,,,,,,,,,,,,,,,,,,,,,,,,,,,,,,,,,,,,,,,,,,
,,,,,,60df2618cedb346e436a28cf,62bbf96d6f5790797999c19e,2022-06-29_09h04.40.368,Colour_Asymmetry_Pilot,2022.1.3,Win32,59.92329818,62bbe60bf3d75ef465d3e404,,,,,,,,,,,,,,,,,,,,fourthree,,-3,0.8668,,,,,,,,,,,,,,,,,,,,,,,,,,,,,,,,,,"[-0.06680000000000008,-0.45100000000000007,-0.906]","[0.9686000000000001,0.5763999999999998,0.11359999999999992]",-89,38,1,0,0,response7disk,-2,-6,1,0,0,rectangle,-2,-6,1,0,0,2,3,0.001,0,-2,-6,1,0,0,0,6,6,16,1,16,first,,,,,,,,,,,,,,,,,,,,,,,,,,,,,,,,,,,,,,,,,,,,,,,,,,,,,,,,,,,,,,,,,,,
,,,,,,60df2618cedb346e436a28cf,62bbf96d6f5790797999c19e,2022-06-29_09h04.40.368,Colour_Asymmetry_Pilot,2022.1.3,Win32,59.92329818,62bbe60bf3d75ef465d3e404,,,,,,,,,,,,,,,,,,,,onethree,,-4,2.0826,,,,,,,,,,,,,,,,,,,,,,,,,,,,,,,,,,"[-0.20799999999999996,-0.655,-0.01980000000000004]","[0.3802000000000001,0.19199999999999995,-0.6394]",-29,122,1,0,0,response7disk,3,7,1,0,0,rectangle,3,7,1,0,0,2,1,0.0035,0,3,7,1,0,0,0,7,7,156,1,75,second,,,,,,,,,,,,,,,,,,,,,,,,,,,,,,,,,,,,,,,,,,,,,,,,,,,,,,,,,,,,,,,,,,,
,,,,,,60df2618cedb346e436a28cf,62bbf96d6f5790797999c19e,2022-06-29_09h04.40.368,Colour_Asymmetry_Pilot,2022.1.3,Win32,59.92329818,62bbe60bf3d75ef465d3e404,,,,,,,,,,,,,,,,,,,,twofour,,-4,0.6502,,,,,,,,,,,,,,,,,,,,,,,,,,,,,,,,,,"[0.7018,0.7176,0.6155999999999999]","[-0.8198,-0.5138,-0.7492000000000001]",-67,90,1,0,0,response7disk,-14,4,1,0,0,rectangle,-14,4,1,0,0,2,1,0.0003,0,-14,4,1,0,0,0,8,8,81,1,0,second,,,,,,,,,,,,,,,,,,,,,,,,,,,,,,,,,,,,,,,,,,,,,,,,,,,,,,,,,,,,,,,,,,,
,,,,,,60df2618cedb346e436a28cf,62bbf96d6f5790797999c19e,2022-06-29_09h04.40.368,Colour_Asymmetry_Pilot,2022.1.3,Win32,59.92329818,62bbe60bf3d75ef465d3e404,,,,,,,,,,,,,,,,,,,,fourtwo,,-4,0.5168,,,,,,,,,,,,,,,,,,,,,,,,,,,,,,,,,,"[-0.4902000000000001,0.2704,-0.45899999999999996]","[-0.4746,-0.0354000000000001,0.5449999999999999]",-59,94,1,0,0,response7disk,-14,7,1,0,0,rectangle,-14,7,1,0,0,2,2,0.0045,0,-14,7,1,0,0,0,9,9,88,1,7,second,,,,,,,,,,,,,,,,,,,,,,,,,,,,,,,,,,,,,,,,,,,,,,,,,,,,,,,,,,,,,,,,,,,
,,,,,,60df2618cedb346e436a28cf,62bbf96d6f5790797999c19e,2022-06-29_09h04.40.368,Colour_Asymmetry_Pilot,2022.1.3,Win32,59.92329818,62bbe60bf3d75ef465d3e404,,,,,,,,,,,,,,,,,,,,onetwo,,-4,0.8166,,,,,,,,,,,,,,,,,,,,,,,,,,,,,,,,,,"[0.34099999999999997,0.5841999999999998,-0.9844]","[0.37240000000000006,-0.050999999999999934,-0.5216]",-40,76,1,0,0,response7disk,-6,4,1,0,0,rectangle,-6,4,1,0,0,2,1,0.002,0,-6,4,1,0,0,0,10,10,108,1,27,second,,,,,,,,,,,,,,,,,,,,,,,,,,,,,,,,,,,,,,,,,,,,,,,,,,,,,,,,,,,,,,,,,,,
,,,,,,60df2618cedb346e436a28cf,62bbf96d6f5790797999c19e,2022-06-29_09h04.40.368,Colour_Asymmetry_Pilot,2022.1.3,Win32,59.92329818,62bbe60bf3d75ef465d3e404,,,,,,,,,,,,,,,,,,,,threefour,,-3,0.983,,,,,,,,,,,,,,,,,,,,,,,,,,,,,,,,,,"[-0.45899999999999996,-0.3256,-0.9374]","[-0.050999999999999934,-0.6706000000000001,-0.804]",-75,41,1,0,0,response7disk,3,-8,1,0,0,rectangle,3,-8,1,0,0,2,3,0.0023,0,3,-8,1,0,0,0,11,11,120,1,39,second,,,,,,,,,,,,,,,,,,,,,,,,,,,,,,,,,,,,,,,,,,,,,,,,,,,,,,,,,,,,,,,,,,,
,,,,,,60df2618cedb346e436a28cf,62bbf96d6f5790797999c19e,2022-06-29_09h04.40.368,Colour_Asymmetry_Pilot,2022.1.3,Win32,59.92329818,62bbe60bf3d75ef465d3e404,,,,,,,,,,,,,,,,,,,,twoone,,-1,2.8992,,,,,,,,,,,,,,,,,,,,,,,,,,,,,,,,,,"[-0.38039999999999996,-0.4276,-0.1452]","[-0.9688,-0.38039999999999996,-0.41979999999999995]",-53,-90,1,0,0,response5disk,-7,-12,1,0,0,rectangle,-7,-12,1,0,0,2,3,0.0001,0,-7,-12,1,0,0,0,12,12,138,1,57,second,,,,,,,,,,,,,,,,,,,,,,,,,,,,,,,,,,,,,,,,,,,,,,,,,,,,,,,,,,,,,,,,,,,
,,,,,,60df2618cedb346e436a28cf,62bbf96d6f5790797999c19e,2022-06-29_09h04.40.368,Colour_Asymmetry_Pilot,2022.1.3,Win32,59.92329818,62bbe60bf3d75ef465d3e404,,,,,,,,,,,,,,,,,,,,onethree,,-3,1.4996,,,,,,,,,,,,,,,,,,,,,,,,,,,,,,,,,,"[0.37240000000000006,-0.050999999999999934,-0.5216]","[0.8115999999999999,-0.0040000000000000036,-0.09819999999999995]",-102,52,1,0,0,response7disk,-10,-7,1,0,0,rectangle,-10,-7,1,0,0,2,2,0.0044,0,-10,-7,1,0,0,0,13,13,31,1,31,first,,,,,,,,,,,,,,,,,,,,,,,,,,,,,,,,,,,,,,,,,,,,,,,,,,,,,,,,,,,,,,,,,,,
,,,,,,60df2618cedb346e436a28cf,62bbf96d6f5790797999c19e,2022-06-29_09h04.40.368,Colour_Asymmetry_Pilot,2022.1.3,Win32,59.92329818,62bbe60bf3d75ef465d3e404,,,,,,,,,,,,,,,,,,,,onetwo,,1,2.5493,,,,,,,,,,,,,,,,,,,,,,,,,,,,,,,,,,"[-0.9766,-0.34920000000000007,0.2156]","[-0.5452,-0.608,0.2470000000000001]",50,-114,1,0,0,response3disk,2,-4,1,0,0,rectangle,2,-4,1,0,0,2,1,0.0034,0,2,-4,1,0,0,0,14,14,83,1,2,second,,,,,,,,,,,,,,,,,,,,,,,,,,,,,,,,,,,,,,,,,,,,,,,,,,,,,,,,,,,,,,,,,,,
,,,,,,60df2618cedb346e436a28cf,62bbf96d6f5790797999c19e,2022-06-29_09h04.40.368,Colour_Asymmetry_Pilot,2022.1.3,Win32,59.92329818,62bbe60bf3d75ef465d3e404,,,,,,,,,,,,,,,,,,,,fourthree,,-2,1.6159,,,,,,,,,,,,,,,,,,,,,,,,,,,,,,,,,,"[0.7018,0.7176,0.6155999999999999]","[-0.24719999999999998,0.5213999999999999,-0.12959999999999994]",-88,-40,1,0,0,response5disk,-3,7,1,0,0,rectangle,-3,7,1,0,0,2,2,0.0037,0,-3,7,1,0,0,0,15,15,103,1,22,second,,,,,,,,,,,,,,,,,,,,,,,,,,,,,,,,,,,,,,,,,,,,,,,,,,,,,,,,,,,,,,,,,,,
,,,,,,60df2618cedb346e436a28cf,62bbf96d6f5790797999c19e,2022-06-29_09h04.40.368,Colour_Asymmetry_Pilot,2022.1.3,Win32,59.92329818,62bbe60bf3d75ef465d3e404,,,,,,,,,,,,,,,,,,,,threefour,,-1,1.8828,,,,,,,,,,,,,,,,,,,,,,,,,,,,,,,,,,"[-0.17659999999999998,-0.2864,-0.8354]","[0.9763999999999999,-0.1137999999999999,-0.6314]",-38,-125,1,0,0,response5disk,-3,4,1,0,0,rectangle,119,-63,1,0,0,2,2,2.9335,1,10,11,1,0,0,0,16,16,36,1,36,first,response3disk_3,rectangle,,,,,,,,,,,,,,,,,,,,,,,,,,,,,,,,,,,,,,,,,,,,,,,,,,,,,,,,,,,,,,,,,
,,,,,,60df2618cedb346e436a28cf,62bbf96d6f5790797999c19e,2022-06-29_09h04.40.368,Colour_Asymmetry_Pilot,2022.1.3,Win32,59.92329818,62bbe60bf3d75ef465d3e404,,,,,,,,,,,,,,,,,,,,fourtwo,,-1,1.4664,,,,,,,,,,,,,,,,,,,,,,,,,,,,,,,,,,"[0.18419999999999992,-0.4276,-0.404]","[-0.9688,-0.7412000000000001,-0.4902000000000001]",-49,-69,1,0,0,response5disk,-6,9,1,0,0,rectangle,-6,9,1,0,0,2,1,0.0035,0,-6,9,1,0,0,0,17,17,51,1,51,first,,,,,,,,,,,,,,,,,,,,,,,,,,,,,,,,,,,,,,,,,,,,,,,,,,,,,,,,,,,,,,,,,,,
,,,,,,60df2618cedb346e436a28cf,62bbf96d6f5790797999c19e,2022-06-29_09h04.40.368,Colour_Asymmetry_Pilot,2022.1.3,Win32,59.92329818,62bbe60bf3d75ef465d3e404,,,,,,,,,,,,,,,,,,,,threefour,,-2,0.7998,,,,,,,,,,,,,,,,,,,,,,,,,,,,,,,,,,"[0.3568,-0.20799999999999996,-0.9844]","[-0.45899999999999996,-0.3256,-0.9374]",-62,-38,1,0,0,response5disk,7,-1,1,0,0,rectangle,7,-1,1,0,0,2,2,0.0051,0,7,-1,1,0,0,0,18,18,140,1,59,second,,,,,,,,,,,,,,,,,,,,,,,,,,,,,,,,,,,,,,,,,,,,,,,,,,,,,,,,,,,,,,,,,,,
,,,,,,60df2618cedb346e436a28cf,62bbf96d6f5790797999c19e,2022-06-29_09h04.40.368,Colour_Asymmetry_Pilot,2022.1.3,Win32,59.92329818,62bbe60bf3d75ef465d3e404,,,,,,,,,,,,,,,,,,,,fourtwo,,-2,0.8499,,,,,,,,,,,,,,,,,,,,,,,,,,,,,,,,,,"[0.37240000000000006,0.4980000000000002,-0.2864]","[0.18419999999999992,-0.4276,-0.404]",-61,-26,1,0,0,response5disk,-4,9,1,0,0,rectangle,-4,9,1,0,0,2,1,0.005,0,-4,9,1,0,0,0,19,19,142,1,61,second,,,,,,,,,,,,,,,,,,,,,,,,,,,,,,,,,,,,,,,,,,,,,,,,,,,,,,,,,,,,,,,,,,,
,,,,,,60df2618cedb346e436a28cf,62bbf96d6f5790797999c19e,2022-06-29_09h04.40.368,Colour_Asymmetry_Pilot,2022.1.3,Win32,59.92329818,62bbe60bf3d75ef465d3e404,,,,,,,,,,,,,,,,,,,,threefour,,-3,1.3496,,,,,,,,,,,,,,,,,,,,,,,,,,,,,,,,,,"[0.37240000000000006,-0.050999999999999934,-0.5216]","[-0.2942,-0.24719999999999998,-0.357]",-97,33,1,0,0,response7disk,-9,-13,1,0,0,rectangle,-9,-13,1,0,0,2,2,0.0039,0,-9,-13,1,0,0,0,20,20,8,1,8,first,,,,,,,,,,,,,,,,,,,,,,,,,,,,,,,,,,,,,,,,,,,,,,,,,,,,,,,,,,,,,,,,,,,
