trials.thisRepN,trials.thisTrialN,trials.thisN,trials.thisIndex,trials.ran,Colourcodes,participant,session,date,expName,psychopyVersion,OS,frameRate,study_id,trials_4.thisRepN,trials_4.thisTrialN,trials_4.thisN,trials_4.thisIndex,trials_4.ran,StimulusPos,key_resp.keys,key_resp.rt,key_resp_2.keys,key_resp_2.rt,key_resp_15.keys,key_resp_15.rt,key_resp_17.keys,key_resp_17.rt,key_resp_9.keys,key_resp_9.rt,key_resp_10.keys,key_resp_10.rt,Circle1_col,Ecc,Circle2_col,similarity,response_time,mouse_5.x,mouse_5.y,mouse_5.leftButton,mouse_5.midButton,mouse_5.rightButton,mouse_5.clicked_name,mouse_10.x,mouse_10.y,mouse_10.leftButton,mouse_10.midButton,mouse_10.rightButton,mouse_10.clicked_name,mouse_7.x,mouse_7.y,mouse_7.leftButton,mouse_7.midButton,mouse_7.rightButton,mouse_7.clicked_name,catchprac,catchnumberprac,mouse_6.x,mouse_6.y,mouse_6.leftButton,mouse_6.midButton,mouse_6.rightButton,mouse_6.clicked_name,duringprac.thisRepN,duringprac.thisTrialN,duringprac.thisN,duringprac.thisIndex,duringprac.ran,key_resp_22.keys,key_resp_22.rt,Circle1_colour,Circle2_colour,mouse.x,mouse.y,mouse.leftButton,mouse.midButton,mouse.rightButton,mouse.clicked_name,mouse_2.x,mouse_2.y,mouse_2.leftButton,mouse_2.midButton,mouse_2.rightButton,mouse_2.clicked_name,mouse_3.x,mouse_3.y,mouse_3.leftButton,mouse_3.midButton,mouse_3.rightButton,mouse_3.clicked_name,catchresponse,catchnumber,response_time_catch,Catch,mouse_11.x,mouse_11.y,mouse_11.leftButton,mouse_11.midButton,mouse_11.rightButton,mouse_11.clicked_name,trials_2.thisRepN,trials_2.thisTrialN,trials_2.thisN,trials_2.thisIndex,trials_2.ran,Colourpair,Temporder,trials_3.thisRepN,trials_3.thisTrialN,trials_3.thisN,trials_3.thisIndex,trials_3.ran,key_resp_instr_Ishi.keys,key_resp_instr_Ishi.rt,Ishi_trial_keyresp.keys,Ishi_trial_keyresp.rt,Ishi_textbox.text,Ishi_loop.thisRepN,Ishi_loop.thisTrialN,Ishi_loop.thisN,Ishi_loop.thisIndex,Ishi_loop.ran,imageaddress,textbox.text,mouse_4.x,mouse_4.y,mouse_4.leftButton,mouse_4.midButton,mouse_4.rightButton,mouse_4.clicked_name,textbox_2.text,mouse_8.x,mouse_8.y,mouse_8.leftButton,mouse_8.midButton,mouse_8.rightButton,mouse_8.clicked_name,textbox_3.text,mouse_9.x,mouse_9.y,mouse_9.leftButton,mouse_9.midButton,mouse_9.rightButton,mouse_9.clicked_name,textbox_4.text,mouse_12.x,mouse_12.y,mouse_12.leftButton,mouse_12.midButton,mouse_12.rightButton,mouse_12.clicked_name,textbox_5.text,mouse_13.x,mouse_13.y,mouse_13.leftButton,mouse_13.midButton,mouse_13.rightButton,mouse_13.clicked_name,textbox_6.text,mouse_14.x,mouse_14.y,mouse_14.leftButton,mouse_14.midButton,mouse_14.rightButton,mouse_14.clicked_name,textbox_7.text,mouse_15.x,mouse_15.y,mouse_15.leftButton,mouse_15.midButton,mouse_15.rightButton,mouse_15.clicked_name
0,0,0,34,1,,611d1134bcc4eda812acf219,62bbf921c31ea8925dd3e40f,2022-06-29_09h03.17.778,Colour_Asymmetry_Pilot,2022.1.3,Win32,30.00840235,62bbe60bf3d75ef465d3e404,,,,,,,,,,,,,,,,,,,,,,,,,,,,,,,,,,,,,,,,,,,,,,,,,,,,,,,,,,,,,,,,,,,,,,,,,,,,,,,,,,,,,,,,,,,,,,,,,,,,,,,,,,,,,,,,,,,,,,,,,,,,,,,,,,,,,,,,,,,,,,,,,,,,,,,,,,,,,,
0,1,1,83,1,,611d1134bcc4eda812acf219,62bbf921c31ea8925dd3e40f,2022-06-29_09h03.17.778,Colour_Asymmetry_Pilot,2022.1.3,Win32,30.00840235,62bbe60bf3d75ef465d3e404,,,,,,,,,,,,,,,,,,,,,,,,,,,,,,,,,,,,,,,,,,,,,,,,,,,,,,,,,,,,,,,,,,,,,,,,,,,,,,,,,,,,,,,,,,,,,,,,,,,,,,,,,,,,,,,,,,,,,,,,,,,,,,,,,,,,,,,,,,,,,,,,,,,,,,,,,,,,,,
0,2,2,63,1,,611d1134bcc4eda812acf219,62bbf921c31ea8925dd3e40f,2022-06-29_09h03.17.778,Colour_Asymmetry_Pilot,2022.1.3,Win32,30.00840235,62bbe60bf3d75ef465d3e404,,,,,,,,,,,,,,,,,,,,,,,,,,,,,,,,,,,,,,,,,,,,,,,,,,,,,,,,,,,,,,,,,,,,,,,,,,,,,,,,,,,,,,,,,,,,,,,,,,,,,,,,,,,,,,,,,,,,,,,,,,,,,,,,,,,,,,,,,,,,,,,,,,,,,,,,,,,,,,
0,3,3,17,1,,611d1134bcc4eda812acf219,62bbf921c31ea8925dd3e40f,2022-06-29_09h03.17.778,Colour_Asymmetry_Pilot,2022.1.3,Win32,30.00840235,62bbe60bf3d75ef465d3e404,,,,,,,,,,,,,,,,,,,,,,,,,,,,,,,,,,,,,,,,,,,,,,,,,,,,,,,,,,,,,,,,,,,,,,,,,,,,,,,,,,,,,,,,,,,,,,,,,,,,,,,,,,,,,,,,,,,,,,,,,,,,,,,,,,,,,,,,,,,,,,,,,,,,,,,,,,,,,,
0,4,4,21,1,,611d1134bcc4eda812acf219,62bbf921c31ea8925dd3e40f,2022-06-29_09h03.17.778,Colour_Asymmetry_Pilot,2022.1.3,Win32,30.00840235,62bbe60bf3d75ef465d3e404,,,,,,,,,,,,,,,,,,,,,,,,,,,,,,,,,,,,,,,,,,,,,,,,,,,,,,,,,,,,,,,,,,,,,,,,,,,,,,,,,,,,,,,,,,,,,,,,,,,,,,,,,,,,,,,,,,,,,,,,,,,,,,,,,,,,,,,,,,,,,,,,,,,,,,,,,,,,,,
0,5,5,80,1,,611d1134bcc4eda812acf219,62bbf921c31ea8925dd3e40f,2022-06-29_09h03.17.778,Colour_Asymmetry_Pilot,2022.1.3,Win32,30.00840235,62bbe60bf3d75ef465d3e404,,,,,,,,,,,,,,,,,,,,,,,,,,,,,,,,,,,,,,,,,,,,,,,,,,,,,,,,,,,,,,,,,,,,,,,,,,,,,,,,,,,,,,,,,,,,,,,,,,,,,,,,,,,,,,,,,,,,,,,,,,,,,,,,,,,,,,,,,,,,,,,,,,,,,,,,,,,,,,
0,6,6,53,1,,611d1134bcc4eda812acf219,62bbf921c31ea8925dd3e40f,2022-06-29_09h03.17.778,Colour_Asymmetry_Pilot,2022.1.3,Win32,30.00840235,62bbe60bf3d75ef465d3e404,,,,,,,,,,,,,,,,,,,,,,,,,,,,,,,,,,,,,,,,,,,,,,,,,,,,,,,,,,,,,,,,,,,,,,,,,,,,,,,,,,,,,,,,,,,,,,,,,,,,,,,,,,,,,,,,,,,,,,,,,,,,,,,,,,,,,,,,,,,,,,,,,,,,,,,,,,,,,,
0,7,7,92,1,,611d1134bcc4eda812acf219,62bbf921c31ea8925dd3e40f,2022-06-29_09h03.17.778,Colour_Asymmetry_Pilot,2022.1.3,Win32,30.00840235,62bbe60bf3d75ef465d3e404,,,,,,,,,,,,,,,,,,,,,,,,,,,,,,,,,,,,,,,,,,,,,,,,,,,,,,,,,,,,,,,,,,,,,,,,,,,,,,,,,,,,,,,,,,,,,,,,,,,,,,,,,,,,,,,,,,,,,,,,,,,,,,,,,,,,,,,,,,,,,,,,,,,,,,,,,,,,,,
0,8,8,68,1,,611d1134bcc4eda812acf219,62bbf921c31ea8925dd3e40f,2022-06-29_09h03.17.778,Colour_Asymmetry_Pilot,2022.1.3,Win32,30.00840235,62bbe60bf3d75ef465d3e404,,,,,,,,,,,,,,,,,,,,,,,,,,,,,,,,,,,,,,,,,,,,,,,,,,,,,,,,,,,,,,,,,,,,,,,,,,,,,,,,,,,,,,,,,,,,,,,,,,,,,,,,,,,,,,,,,,,,,,,,,,,,,,,,,,,,,,,,,,,,,,,,,,,,,,,,,,,,,,
0,9,9,69,1,,611d1134bcc4eda812acf219,62bbf921c31ea8925dd3e40f,2022-06-29_09h03.17.778,Colour_Asymmetry_Pilot,2022.1.3,Win32,30.00840235,62bbe60bf3d75ef465d3e404,,,,,,,,,,,,,,,,,,,,,,,,,,,,,,,,,,,,,,,,,,,,,,,,,,,,,,,,,,,,,,,,,,,,,,,,,,,,,,,,,,,,,,,,,,,,,,,,,,,,,,,,,,,,,,,,,,,,,,,,,,,,,,,,,,,,,,,,,,,,,,,,,,,,,,,,,,,,,,
0,10,10,50,1,,611d1134bcc4eda812acf219,62bbf921c31ea8925dd3e40f,2022-06-29_09h03.17.778,Colour_Asymmetry_Pilot,2022.1.3,Win32,30.00840235,62bbe60bf3d75ef465d3e404,,,,,,,,,,,,,,,,,,,,,,,,,,,,,,,,,,,,,,,,,,,,,,,,,,,,,,,,,,,,,,,,,,,,,,,,,,,,,,,,,,,,,,,,,,,,,,,,,,,,,,,,,,,,,,,,,,,,,,,,,,,,,,,,,,,,,,,,,,,,,,,,,,,,,,,,,,,,,,
0,11,11,74,1,,611d1134bcc4eda812acf219,62bbf921c31ea8925dd3e40f,2022-06-29_09h03.17.778,Colour_Asymmetry_Pilot,2022.1.3,Win32,30.00840235,62bbe60bf3d75ef465d3e404,,,,,,,,,,,,,,,,,,,,,,,,,,,,,,,,,,,,,,,,,,,,,,,,,,,,,,,,,,,,,,,,,,,,,,,,,,,,,,,,,,,,,,,,,,,,,,,,,,,,,,,,,,,,,,,,,,,,,,,,,,,,,,,,,,,,,,,,,,,,,,,,,,,,,,,,,,,,,,
0,12,12,61,1,,611d1134bcc4eda812acf219,62bbf921c31ea8925dd3e40f,2022-06-29_09h03.17.778,Colour_Asymmetry_Pilot,2022.1.3,Win32,30.00840235,62bbe60bf3d75ef465d3e404,,,,,,,,,,,,,,,,,,,,,,,,,,,,,,,,,,,,,,,,,,,,,,,,,,,,,,,,,,,,,,,,,,,,,,,,,,,,,,,,,,,,,,,,,,,,,,,,,,,,,,,,,,,,,,,,,,,,,,,,,,,,,,,,,,,,,,,,,,,,,,,,,,,,,,,,,,,,,,
0,13,13,22,1,,611d1134bcc4eda812acf219,62bbf921c31ea8925dd3e40f,2022-06-29_09h03.17.778,Colour_Asymmetry_Pilot,2022.1.3,Win32,30.00840235,62bbe60bf3d75ef465d3e404,,,,,,,,,,,,,,,,,,,,,,,,,,,,,,,,,,,,,,,,,,,,,,,,,,,,,,,,,,,,,,,,,,,,,,,,,,,,,,,,,,,,,,,,,,,,,,,,,,,,,,,,,,,,,,,,,,,,,,,,,,,,,,,,,,,,,,,,,,,,,,,,,,,,,,,,,,,,,,
0,14,14,32,1,,611d1134bcc4eda812acf219,62bbf921c31ea8925dd3e40f,2022-06-29_09h03.17.778,Colour_Asymmetry_Pilot,2022.1.3,Win32,30.00840235,62bbe60bf3d75ef465d3e404,,,,,,,,,,,,,,,,,,,,,,,,,,,,,,,,,,,,,,,,,,,,,,,,,,,,,,,,,,,,,,,,,,,,,,,,,,,,,,,,,,,,,,,,,,,,,,,,,,,,,,,,,,,,,,,,,,,,,,,,,,,,,,,,,,,,,,,,,,,,,,,,,,,,,,,,,,,,,,
0,15,15,43,1,,611d1134bcc4eda812acf219,62bbf921c31ea8925dd3e40f,2022-06-29_09h03.17.778,Colour_Asymmetry_Pilot,2022.1.3,Win32,30.00840235,62bbe60bf3d75ef465d3e404,,,,,,,,,,,,,,,,,,,,,,,,,,,,,,,,,,,,,,,,,,,,,,,,,,,,,,,,,,,,,,,,,,,,,,,,,,,,,,,,,,,,,,,,,,,,,,,,,,,,,,,,,,,,,,,,,,,,,,,,,,,,,,,,,,,,,,,,,,,,,,,,,,,,,,,,,,,,,,
0,16,16,29,1,,611d1134bcc4eda812acf219,62bbf921c31ea8925dd3e40f,2022-06-29_09h03.17.778,Colour_Asymmetry_Pilot,2022.1.3,Win32,30.00840235,62bbe60bf3d75ef465d3e404,,,,,,,,,,,,,,,,,,,,,,,,,,,,,,,,,,,,,,,,,,,,,,,,,,,,,,,,,,,,,,,,,,,,,,,,,,,,,,,,,,,,,,,,,,,,,,,,,,,,,,,,,,,,,,,,,,,,,,,,,,,,,,,,,,,,,,,,,,,,,,,,,,,,,,,,,,,,,,
0,17,17,89,1,,611d1134bcc4eda812acf219,62bbf921c31ea8925dd3e40f,2022-06-29_09h03.17.778,Colour_Asymmetry_Pilot,2022.1.3,Win32,30.00840235,62bbe60bf3d75ef465d3e404,,,,,,,,,,,,,,,,,,,,,,,,,,,,,,,,,,,,,,,,,,,,,,,,,,,,,,,,,,,,,,,,,,,,,,,,,,,,,,,,,,,,,,,,,,,,,,,,,,,,,,,,,,,,,,,,,,,,,,,,,,,,,,,,,,,,,,,,,,,,,,,,,,,,,,,,,,,,,,
0,18,18,13,1,,611d1134bcc4eda812acf219,62bbf921c31ea8925dd3e40f,2022-06-29_09h03.17.778,Colour_Asymmetry_Pilot,2022.1.3,Win32,30.00840235,62bbe60bf3d75ef465d3e404,,,,,,,,,,,,,,,,,,,,,,,,,,,,,,,,,,,,,,,,,,,,,,,,,,,,,,,,,,,,,,,,,,,,,,,,,,,,,,,,,,,,,,,,,,,,,,,,,,,,,,,,,,,,,,,,,,,,,,,,,,,,,,,,,,,,,,,,,,,,,,,,,,,,,,,,,,,,,,
0,19,19,85,1,,611d1134bcc4eda812acf219,62bbf921c31ea8925dd3e40f,2022-06-29_09h03.17.778,Colour_Asymmetry_Pilot,2022.1.3,Win32,30.00840235,62bbe60bf3d75ef465d3e404,,,,,,,,,,,,,,,,,,,,,,,,,,,,,,,,,,,,,,,,,,,,,,,,,,,,,,,,,,,,,,,,,,,,,,,,,,,,,,,,,,,,,,,,,,,,,,,,,,,,,,,,,,,,,,,,,,,,,,,,,,,,,,,,,,,,,,,,,,,,,,,,,,,,,,,,,,,,,,
0,20,20,77,1,,611d1134bcc4eda812acf219,62bbf921c31ea8925dd3e40f,2022-06-29_09h03.17.778,Colour_Asymmetry_Pilot,2022.1.3,Win32,30.00840235,62bbe60bf3d75ef465d3e404,,,,,,,,,,,,,,,,,,,,,,,,,,,,,,,,,,,,,,,,,,,,,,,,,,,,,,,,,,,,,,,,,,,,,,,,,,,,,,,,,,,,,,,,,,,,,,,,,,,,,,,,,,,,,,,,,,,,,,,,,,,,,,,,,,,,,,,,,,,,,,,,,,,,,,,,,,,,,,
0,21,21,38,1,,611d1134bcc4eda812acf219,62bbf921c31ea8925dd3e40f,2022-06-29_09h03.17.778,Colour_Asymmetry_Pilot,2022.1.3,Win32,30.00840235,62bbe60bf3d75ef465d3e404,,,,,,,,,,,,,,,,,,,,,,,,,,,,,,,,,,,,,,,,,,,,,,,,,,,,,,,,,,,,,,,,,,,,,,,,,,,,,,,,,,,,,,,,,,,,,,,,,,,,,,,,,,,,,,,,,,,,,,,,,,,,,,,,,,,,,,,,,,,,,,,,,,,,,,,,,,,,,,
0,22,22,20,1,,611d1134bcc4eda812acf219,62bbf921c31ea8925dd3e40f,2022-06-29_09h03.17.778,Colour_Asymmetry_Pilot,2022.1.3,Win32,30.00840235,62bbe60bf3d75ef465d3e404,,,,,,,,,,,,,,,,,,,,,,,,,,,,,,,,,,,,,,,,,,,,,,,,,,,,,,,,,,,,,,,,,,,,,,,,,,,,,,,,,,,,,,,,,,,,,,,,,,,,,,,,,,,,,,,,,,,,,,,,,,,,,,,,,,,,,,,,,,,,,,,,,,,,,,,,,,,,,,
0,23,23,5,1,,611d1134bcc4eda812acf219,62bbf921c31ea8925dd3e40f,2022-06-29_09h03.17.778,Colour_Asymmetry_Pilot,2022.1.3,Win32,30.00840235,62bbe60bf3d75ef465d3e404,,,,,,,,,,,,,,,,,,,,,,,,,,,,,,,,,,,,,,,,,,,,,,,,,,,,,,,,,,,,,,,,,,,,,,,,,,,,,,,,,,,,,,,,,,,,,,,,,,,,,,,,,,,,,,,,,,,,,,,,,,,,,,,,,,,,,,,,,,,,,,,,,,,,,,,,,,,,,,
0,24,24,59,1,,611d1134bcc4eda812acf219,62bbf921c31ea8925dd3e40f,2022-06-29_09h03.17.778,Colour_Asymmetry_Pilot,2022.1.3,Win32,30.00840235,62bbe60bf3d75ef465d3e404,,,,,,,,,,,,,,,,,,,,,,,,,,,,,,,,,,,,,,,,,,,,,,,,,,,,,,,,,,,,,,,,,,,,,,,,,,,,,,,,,,,,,,,,,,,,,,,,,,,,,,,,,,,,,,,,,,,,,,,,,,,,,,,,,,,,,,,,,,,,,,,,,,,,,,,,,,,,,,
0,25,25,88,1,,611d1134bcc4eda812acf219,62bbf921c31ea8925dd3e40f,2022-06-29_09h03.17.778,Colour_Asymmetry_Pilot,2022.1.3,Win32,30.00840235,62bbe60bf3d75ef465d3e404,,,,,,,,,,,,,,,,,,,,,,,,,,,,,,,,,,,,,,,,,,,,,,,,,,,,,,,,,,,,,,,,,,,,,,,,,,,,,,,,,,,,,,,,,,,,,,,,,,,,,,,,,,,,,,,,,,,,,,,,,,,,,,,,,,,,,,,,,,,,,,,,,,,,,,,,,,,,,,
0,26,26,64,1,,611d1134bcc4eda812acf219,62bbf921c31ea8925dd3e40f,2022-06-29_09h03.17.778,Colour_Asymmetry_Pilot,2022.1.3,Win32,30.00840235,62bbe60bf3d75ef465d3e404,,,,,,,,,,,,,,,,,,,,,,,,,,,,,,,,,,,,,,,,,,,,,,,,,,,,,,,,,,,,,,,,,,,,,,,,,,,,,,,,,,,,,,,,,,,,,,,,,,,,,,,,,,,,,,,,,,,,,,,,,,,,,,,,,,,,,,,,,,,,,,,,,,,,,,,,,,,,,,
0,27,27,2,1,,611d1134bcc4eda812acf219,62bbf921c31ea8925dd3e40f,2022-06-29_09h03.17.778,Colour_Asymmetry_Pilot,2022.1.3,Win32,30.00840235,62bbe60bf3d75ef465d3e404,,,,,,,,,,,,,,,,,,,,,,,,,,,,,,,,,,,,,,,,,,,,,,,,,,,,,,,,,,,,,,,,,,,,,,,,,,,,,,,,,,,,,,,,,,,,,,,,,,,,,,,,,,,,,,,,,,,,,,,,,,,,,,,,,,,,,,,,,,,,,,,,,,,,,,,,,,,,,,
0,28,28,79,1,,611d1134bcc4eda812acf219,62bbf921c31ea8925dd3e40f,2022-06-29_09h03.17.778,Colour_Asymmetry_Pilot,2022.1.3,Win32,30.00840235,62bbe60bf3d75ef465d3e404,,,,,,,,,,,,,,,,,,,,,,,,,,,,,,,,,,,,,,,,,,,,,,,,,,,,,,,,,,,,,,,,,,,,,,,,,,,,,,,,,,,,,,,,,,,,,,,,,,,,,,,,,,,,,,,,,,,,,,,,,,,,,,,,,,,,,,,,,,,,,,,,,,,,,,,,,,,,,,
0,29,29,42,1,,611d1134bcc4eda812acf219,62bbf921c31ea8925dd3e40f,2022-06-29_09h03.17.778,Colour_Asymmetry_Pilot,2022.1.3,Win32,30.00840235,62bbe60bf3d75ef465d3e404,,,,,,,,,,,,,,,,,,,,,,,,,,,,,,,,,,,,,,,,,,,,,,,,,,,,,,,,,,,,,,,,,,,,,,,,,,,,,,,,,,,,,,,,,,,,,,,,,,,,,,,,,,,,,,,,,,,,,,,,,,,,,,,,,,,,,,,,,,,,,,,,,,,,,,,,,,,,,,
0,30,30,31,1,,611d1134bcc4eda812acf219,62bbf921c31ea8925dd3e40f,2022-06-29_09h03.17.778,Colour_Asymmetry_Pilot,2022.1.3,Win32,30.00840235,62bbe60bf3d75ef465d3e404,,,,,,,,,,,,,,,,,,,,,,,,,,,,,,,,,,,,,,,,,,,,,,,,,,,,,,,,,,,,,,,,,,,,,,,,,,,,,,,,,,,,,,,,,,,,,,,,,,,,,,,,,,,,,,,,,,,,,,,,,,,,,,,,,,,,,,,,,,,,,,,,,,,,,,,,,,,,,,
0,31,31,75,1,,611d1134bcc4eda812acf219,62bbf921c31ea8925dd3e40f,2022-06-29_09h03.17.778,Colour_Asymmetry_Pilot,2022.1.3,Win32,30.00840235,62bbe60bf3d75ef465d3e404,,,,,,,,,,,,,,,,,,,,,,,,,,,,,,,,,,,,,,,,,,,,,,,,,,,,,,,,,,,,,,,,,,,,,,,,,,,,,,,,,,,,,,,,,,,,,,,,,,,,,,,,,,,,,,,,,,,,,,,,,,,,,,,,,,,,,,,,,,,,,,,,,,,,,,,,,,,,,,
0,32,32,25,1,,611d1134bcc4eda812acf219,62bbf921c31ea8925dd3e40f,2022-06-29_09h03.17.778,Colour_Asymmetry_Pilot,2022.1.3,Win32,30.00840235,62bbe60bf3d75ef465d3e404,,,,,,,,,,,,,,,,,,,,,,,,,,,,,,,,,,,,,,,,,,,,,,,,,,,,,,,,,,,,,,,,,,,,,,,,,,,,,,,,,,,,,,,,,,,,,,,,,,,,,,,,,,,,,,,,,,,,,,,,,,,,,,,,,,,,,,,,,,,,,,,,,,,,,,,,,,,,,,
0,33,33,54,1,,611d1134bcc4eda812acf219,62bbf921c31ea8925dd3e40f,2022-06-29_09h03.17.778,Colour_Asymmetry_Pilot,2022.1.3,Win32,30.00840235,62bbe60bf3d75ef465d3e404,,,,,,,,,,,,,,,,,,,,,,,,,,,,,,,,,,,,,,,,,,,,,,,,,,,,,,,,,,,,,,,,,,,,,,,,,,,,,,,,,,,,,,,,,,,,,,,,,,,,,,,,,,,,,,,,,,,,,,,,,,,,,,,,,,,,,,,,,,,,,,,,,,,,,,,,,,,,,,
0,34,34,27,1,,611d1134bcc4eda812acf219,62bbf921c31ea8925dd3e40f,2022-06-29_09h03.17.778,Colour_Asymmetry_Pilot,2022.1.3,Win32,30.00840235,62bbe60bf3d75ef465d3e404,,,,,,,,,,,,,,,,,,,,,,,,,,,,,,,,,,,,,,,,,,,,,,,,,,,,,,,,,,,,,,,,,,,,,,,,,,,,,,,,,,,,,,,,,,,,,,,,,,,,,,,,,,,,,,,,,,,,,,,,,,,,,,,,,,,,,,,,,,,,,,,,,,,,,,,,,,,,,,
0,35,35,65,1,,611d1134bcc4eda812acf219,62bbf921c31ea8925dd3e40f,2022-06-29_09h03.17.778,Colour_Asymmetry_Pilot,2022.1.3,Win32,30.00840235,62bbe60bf3d75ef465d3e404,,,,,,,,,,,,,,,,,,,,,,,,,,,,,,,,,,,,,,,,,,,,,,,,,,,,,,,,,,,,,,,,,,,,,,,,,,,,,,,,,,,,,,,,,,,,,,,,,,,,,,,,,,,,,,,,,,,,,,,,,,,,,,,,,,,,,,,,,,,,,,,,,,,,,,,,,,,,,,
0,36,36,90,1,,611d1134bcc4eda812acf219,62bbf921c31ea8925dd3e40f,2022-06-29_09h03.17.778,Colour_Asymmetry_Pilot,2022.1.3,Win32,30.00840235,62bbe60bf3d75ef465d3e404,,,,,,,,,,,,,,,,,,,,,,,,,,,,,,,,,,,,,,,,,,,,,,,,,,,,,,,,,,,,,,,,,,,,,,,,,,,,,,,,,,,,,,,,,,,,,,,,,,,,,,,,,,,,,,,,,,,,,,,,,,,,,,,,,,,,,,,,,,,,,,,,,,,,,,,,,,,,,,
0,37,37,76,1,,611d1134bcc4eda812acf219,62bbf921c31ea8925dd3e40f,2022-06-29_09h03.17.778,Colour_Asymmetry_Pilot,2022.1.3,Win32,30.00840235,62bbe60bf3d75ef465d3e404,,,,,,,,,,,,,,,,,,,,,,,,,,,,,,,,,,,,,,,,,,,,,,,,,,,,,,,,,,,,,,,,,,,,,,,,,,,,,,,,,,,,,,,,,,,,,,,,,,,,,,,,,,,,,,,,,,,,,,,,,,,,,,,,,,,,,,,,,,,,,,,,,,,,,,,,,,,,,,
0,38,38,7,1,,611d1134bcc4eda812acf219,62bbf921c31ea8925dd3e40f,2022-06-29_09h03.17.778,Colour_Asymmetry_Pilot,2022.1.3,Win32,30.00840235,62bbe60bf3d75ef465d3e404,,,,,,,,,,,,,,,,,,,,,,,,,,,,,,,,,,,,,,,,,,,,,,,,,,,,,,,,,,,,,,,,,,,,,,,,,,,,,,,,,,,,,,,,,,,,,,,,,,,,,,,,,,,,,,,,,,,,,,,,,,,,,,,,,,,,,,,,,,,,,,,,,,,,,,,,,,,,,,
0,39,39,81,1,,611d1134bcc4eda812acf219,62bbf921c31ea8925dd3e40f,2022-06-29_09h03.17.778,Colour_Asymmetry_Pilot,2022.1.3,Win32,30.00840235,62bbe60bf3d75ef465d3e404,,,,,,,,,,,,,,,,,,,,,,,,,,,,,,,,,,,,,,,,,,,,,,,,,,,,,,,,,,,,,,,,,,,,,,,,,,,,,,,,,,,,,,,,,,,,,,,,,,,,,,,,,,,,,,,,,,,,,,,,,,,,,,,,,,,,,,,,,,,,,,,,,,,,,,,,,,,,,,
0,40,40,9,1,,611d1134bcc4eda812acf219,62bbf921c31ea8925dd3e40f,2022-06-29_09h03.17.778,Colour_Asymmetry_Pilot,2022.1.3,Win32,30.00840235,62bbe60bf3d75ef465d3e404,,,,,,,,,,,,,,,,,,,,,,,,,,,,,,,,,,,,,,,,,,,,,,,,,,,,,,,,,,,,,,,,,,,,,,,,,,,,,,,,,,,,,,,,,,,,,,,,,,,,,,,,,,,,,,,,,,,,,,,,,,,,,,,,,,,,,,,,,,,,,,,,,,,,,,,,,,,,,,
0,41,41,49,1,,611d1134bcc4eda812acf219,62bbf921c31ea8925dd3e40f,2022-06-29_09h03.17.778,Colour_Asymmetry_Pilot,2022.1.3,Win32,30.00840235,62bbe60bf3d75ef465d3e404,,,,,,,,,,,,,,,,,,,,,,,,,,,,,,,,,,,,,,,,,,,,,,,,,,,,,,,,,,,,,,,,,,,,,,,,,,,,,,,,,,,,,,,,,,,,,,,,,,,,,,,,,,,,,,,,,,,,,,,,,,,,,,,,,,,,,,,,,,,,,,,,,,,,,,,,,,,,,,
0,42,42,18,1,,611d1134bcc4eda812acf219,62bbf921c31ea8925dd3e40f,2022-06-29_09h03.17.778,Colour_Asymmetry_Pilot,2022.1.3,Win32,30.00840235,62bbe60bf3d75ef465d3e404,,,,,,,,,,,,,,,,,,,,,,,,,,,,,,,,,,,,,,,,,,,,,,,,,,,,,,,,,,,,,,,,,,,,,,,,,,,,,,,,,,,,,,,,,,,,,,,,,,,,,,,,,,,,,,,,,,,,,,,,,,,,,,,,,,,,,,,,,,,,,,,,,,,,,,,,,,,,,,
0,43,43,15,1,,611d1134bcc4eda812acf219,62bbf921c31ea8925dd3e40f,2022-06-29_09h03.17.778,Colour_Asymmetry_Pilot,2022.1.3,Win32,30.00840235,62bbe60bf3d75ef465d3e404,,,,,,,,,,,,,,,,,,,,,,,,,,,,,,,,,,,,,,,,,,,,,,,,,,,,,,,,,,,,,,,,,,,,,,,,,,,,,,,,,,,,,,,,,,,,,,,,,,,,,,,,,,,,,,,,,,,,,,,,,,,,,,,,,,,,,,,,,,,,,,,,,,,,,,,,,,,,,,
0,44,44,73,1,,611d1134bcc4eda812acf219,62bbf921c31ea8925dd3e40f,2022-06-29_09h03.17.778,Colour_Asymmetry_Pilot,2022.1.3,Win32,30.00840235,62bbe60bf3d75ef465d3e404,,,,,,,,,,,,,,,,,,,,,,,,,,,,,,,,,,,,,,,,,,,,,,,,,,,,,,,,,,,,,,,,,,,,,,,,,,,,,,,,,,,,,,,,,,,,,,,,,,,,,,,,,,,,,,,,,,,,,,,,,,,,,,,,,,,,,,,,,,,,,,,,,,,,,,,,,,,,,,
0,45,45,60,1,,611d1134bcc4eda812acf219,62bbf921c31ea8925dd3e40f,2022-06-29_09h03.17.778,Colour_Asymmetry_Pilot,2022.1.3,Win32,30.00840235,62bbe60bf3d75ef465d3e404,,,,,,,,,,,,,,,,,,,,,,,,,,,,,,,,,,,,,,,,,,,,,,,,,,,,,,,,,,,,,,,,,,,,,,,,,,,,,,,,,,,,,,,,,,,,,,,,,,,,,,,,,,,,,,,,,,,,,,,,,,,,,,,,,,,,,,,,,,,,,,,,,,,,,,,,,,,,,,
0,46,46,8,1,,611d1134bcc4eda812acf219,62bbf921c31ea8925dd3e40f,2022-06-29_09h03.17.778,Colour_Asymmetry_Pilot,2022.1.3,Win32,30.00840235,62bbe60bf3d75ef465d3e404,,,,,,,,,,,,,,,,,,,,,,,,,,,,,,,,,,,,,,,,,,,,,,,,,,,,,,,,,,,,,,,,,,,,,,,,,,,,,,,,,,,,,,,,,,,,,,,,,,,,,,,,,,,,,,,,,,,,,,,,,,,,,,,,,,,,,,,,,,,,,,,,,,,,,,,,,,,,,,
0,47,47,70,1,,611d1134bcc4eda812acf219,62bbf921c31ea8925dd3e40f,2022-06-29_09h03.17.778,Colour_Asymmetry_Pilot,2022.1.3,Win32,30.00840235,62bbe60bf3d75ef465d3e404,,,,,,,,,,,,,,,,,,,,,,,,,,,,,,,,,,,,,,,,,,,,,,,,,,,,,,,,,,,,,,,,,,,,,,,,,,,,,,,,,,,,,,,,,,,,,,,,,,,,,,,,,,,,,,,,,,,,,,,,,,,,,,,,,,,,,,,,,,,,,,,,,,,,,,,,,,,,,,
0,48,48,10,1,,611d1134bcc4eda812acf219,62bbf921c31ea8925dd3e40f,2022-06-29_09h03.17.778,Colour_Asymmetry_Pilot,2022.1.3,Win32,30.00840235,62bbe60bf3d75ef465d3e404,,,,,,,,,,,,,,,,,,,,,,,,,,,,,,,,,,,,,,,,,,,,,,,,,,,,,,,,,,,,,,,,,,,,,,,,,,,,,,,,,,,,,,,,,,,,,,,,,,,,,,,,,,,,,,,,,,,,,,,,,,,,,,,,,,,,,,,,,,,,,,,,,,,,,,,,,,,,,,
0,49,49,26,1,,611d1134bcc4eda812acf219,62bbf921c31ea8925dd3e40f,2022-06-29_09h03.17.778,Colour_Asymmetry_Pilot,2022.1.3,Win32,30.00840235,62bbe60bf3d75ef465d3e404,,,,,,,,,,,,,,,,,,,,,,,,,,,,,,,,,,,,,,,,,,,,,,,,,,,,,,,,,,,,,,,,,,,,,,,,,,,,,,,,,,,,,,,,,,,,,,,,,,,,,,,,,,,,,,,,,,,,,,,,,,,,,,,,,,,,,,,,,,,,,,,,,,,,,,,,,,,,,,
0,50,50,19,1,,611d1134bcc4eda812acf219,62bbf921c31ea8925dd3e40f,2022-06-29_09h03.17.778,Colour_Asymmetry_Pilot,2022.1.3,Win32,30.00840235,62bbe60bf3d75ef465d3e404,,,,,,,,,,,,,,,,,,,,,,,,,,,,,,,,,,,,,,,,,,,,,,,,,,,,,,,,,,,,,,,,,,,,,,,,,,,,,,,,,,,,,,,,,,,,,,,,,,,,,,,,,,,,,,,,,,,,,,,,,,,,,,,,,,,,,,,,,,,,,,,,,,,,,,,,,,,,,,
0,51,51,24,1,,611d1134bcc4eda812acf219,62bbf921c31ea8925dd3e40f,2022-06-29_09h03.17.778,Colour_Asymmetry_Pilot,2022.1.3,Win32,30.00840235,62bbe60bf3d75ef465d3e404,,,,,,,,,,,,,,,,,,,,,,,,,,,,,,,,,,,,,,,,,,,,,,,,,,,,,,,,,,,,,,,,,,,,,,,,,,,,,,,,,,,,,,,,,,,,,,,,,,,,,,,,,,,,,,,,,,,,,,,,,,,,,,,,,,,,,,,,,,,,,,,,,,,,,,,,,,,,,,
0,52,52,48,1,,611d1134bcc4eda812acf219,62bbf921c31ea8925dd3e40f,2022-06-29_09h03.17.778,Colour_Asymmetry_Pilot,2022.1.3,Win32,30.00840235,62bbe60bf3d75ef465d3e404,,,,,,,,,,,,,,,,,,,,,,,,,,,,,,,,,,,,,,,,,,,,,,,,,,,,,,,,,,,,,,,,,,,,,,,,,,,,,,,,,,,,,,,,,,,,,,,,,,,,,,,,,,,,,,,,,,,,,,,,,,,,,,,,,,,,,,,,,,,,,,,,,,,,,,,,,,,,,,
0,53,53,87,1,,611d1134bcc4eda812acf219,62bbf921c31ea8925dd3e40f,2022-06-29_09h03.17.778,Colour_Asymmetry_Pilot,2022.1.3,Win32,30.00840235,62bbe60bf3d75ef465d3e404,,,,,,,,,,,,,,,,,,,,,,,,,,,,,,,,,,,,,,,,,,,,,,,,,,,,,,,,,,,,,,,,,,,,,,,,,,,,,,,,,,,,,,,,,,,,,,,,,,,,,,,,,,,,,,,,,,,,,,,,,,,,,,,,,,,,,,,,,,,,,,,,,,,,,,,,,,,,,,
0,54,54,51,1,,611d1134bcc4eda812acf219,62bbf921c31ea8925dd3e40f,2022-06-29_09h03.17.778,Colour_Asymmetry_Pilot,2022.1.3,Win32,30.00840235,62bbe60bf3d75ef465d3e404,,,,,,,,,,,,,,,,,,,,,,,,,,,,,,,,,,,,,,,,,,,,,,,,,,,,,,,,,,,,,,,,,,,,,,,,,,,,,,,,,,,,,,,,,,,,,,,,,,,,,,,,,,,,,,,,,,,,,,,,,,,,,,,,,,,,,,,,,,,,,,,,,,,,,,,,,,,,,,
0,55,55,30,1,,611d1134bcc4eda812acf219,62bbf921c31ea8925dd3e40f,2022-06-29_09h03.17.778,Colour_Asymmetry_Pilot,2022.1.3,Win32,30.00840235,62bbe60bf3d75ef465d3e404,,,,,,,,,,,,,,,,,,,,,,,,,,,,,,,,,,,,,,,,,,,,,,,,,,,,,,,,,,,,,,,,,,,,,,,,,,,,,,,,,,,,,,,,,,,,,,,,,,,,,,,,,,,,,,,,,,,,,,,,,,,,,,,,,,,,,,,,,,,,,,,,,,,,,,,,,,,,,,
0,56,56,86,1,,611d1134bcc4eda812acf219,62bbf921c31ea8925dd3e40f,2022-06-29_09h03.17.778,Colour_Asymmetry_Pilot,2022.1.3,Win32,30.00840235,62bbe60bf3d75ef465d3e404,,,,,,,,,,,,,,,,,,,,,,,,,,,,,,,,,,,,,,,,,,,,,,,,,,,,,,,,,,,,,,,,,,,,,,,,,,,,,,,,,,,,,,,,,,,,,,,,,,,,,,,,,,,,,,,,,,,,,,,,,,,,,,,,,,,,,,,,,,,,,,,,,,,,,,,,,,,,,,
0,57,57,1,1,,611d1134bcc4eda812acf219,62bbf921c31ea8925dd3e40f,2022-06-29_09h03.17.778,Colour_Asymmetry_Pilot,2022.1.3,Win32,30.00840235,62bbe60bf3d75ef465d3e404,,,,,,,,,,,,,,,,,,,,,,,,,,,,,,,,,,,,,,,,,,,,,,,,,,,,,,,,,,,,,,,,,,,,,,,,,,,,,,,,,,,,,,,,,,,,,,,,,,,,,,,,,,,,,,,,,,,,,,,,,,,,,,,,,,,,,,,,,,,,,,,,,,,,,,,,,,,,,,
0,58,58,55,1,,611d1134bcc4eda812acf219,62bbf921c31ea8925dd3e40f,2022-06-29_09h03.17.778,Colour_Asymmetry_Pilot,2022.1.3,Win32,30.00840235,62bbe60bf3d75ef465d3e404,,,,,,,,,,,,,,,,,,,,,,,,,,,,,,,,,,,,,,,,,,,,,,,,,,,,,,,,,,,,,,,,,,,,,,,,,,,,,,,,,,,,,,,,,,,,,,,,,,,,,,,,,,,,,,,,,,,,,,,,,,,,,,,,,,,,,,,,,,,,,,,,,,,,,,,,,,,,,,
0,59,59,52,1,,611d1134bcc4eda812acf219,62bbf921c31ea8925dd3e40f,2022-06-29_09h03.17.778,Colour_Asymmetry_Pilot,2022.1.3,Win32,30.00840235,62bbe60bf3d75ef465d3e404,,,,,,,,,,,,,,,,,,,,,,,,,,,,,,,,,,,,,,,,,,,,,,,,,,,,,,,,,,,,,,,,,,,,,,,,,,,,,,,,,,,,,,,,,,,,,,,,,,,,,,,,,,,,,,,,,,,,,,,,,,,,,,,,,,,,,,,,,,,,,,,,,,,,,,,,,,,,,,
0,60,60,35,1,,611d1134bcc4eda812acf219,62bbf921c31ea8925dd3e40f,2022-06-29_09h03.17.778,Colour_Asymmetry_Pilot,2022.1.3,Win32,30.00840235,62bbe60bf3d75ef465d3e404,,,,,,,,,,,,,,,,,,,,,,,,,,,,,,,,,,,,,,,,,,,,,,,,,,,,,,,,,,,,,,,,,,,,,,,,,,,,,,,,,,,,,,,,,,,,,,,,,,,,,,,,,,,,,,,,,,,,,,,,,,,,,,,,,,,,,,,,,,,,,,,,,,,,,,,,,,,,,,
0,61,61,78,1,,611d1134bcc4eda812acf219,62bbf921c31ea8925dd3e40f,2022-06-29_09h03.17.778,Colour_Asymmetry_Pilot,2022.1.3,Win32,30.00840235,62bbe60bf3d75ef465d3e404,,,,,,,,,,,,,,,,,,,,,,,,,,,,,,,,,,,,,,,,,,,,,,,,,,,,,,,,,,,,,,,,,,,,,,,,,,,,,,,,,,,,,,,,,,,,,,,,,,,,,,,,,,,,,,,,,,,,,,,,,,,,,,,,,,,,,,,,,,,,,,,,,,,,,,,,,,,,,,
0,62,62,84,1,,611d1134bcc4eda812acf219,62bbf921c31ea8925dd3e40f,2022-06-29_09h03.17.778,Colour_Asymmetry_Pilot,2022.1.3,Win32,30.00840235,62bbe60bf3d75ef465d3e404,,,,,,,,,,,,,,,,,,,,,,,,,,,,,,,,,,,,,,,,,,,,,,,,,,,,,,,,,,,,,,,,,,,,,,,,,,,,,,,,,,,,,,,,,,,,,,,,,,,,,,,,,,,,,,,,,,,,,,,,,,,,,,,,,,,,,,,,,,,,,,,,,,,,,,,,,,,,,,
0,63,63,44,1,,611d1134bcc4eda812acf219,62bbf921c31ea8925dd3e40f,2022-06-29_09h03.17.778,Colour_Asymmetry_Pilot,2022.1.3,Win32,30.00840235,62bbe60bf3d75ef465d3e404,,,,,,,,,,,,,,,,,,,,,,,,,,,,,,,,,,,,,,,,,,,,,,,,,,,,,,,,,,,,,,,,,,,,,,,,,,,,,,,,,,,,,,,,,,,,,,,,,,,,,,,,,,,,,,,,,,,,,,,,,,,,,,,,,,,,,,,,,,,,,,,,,,,,,,,,,,,,,,
0,64,64,46,1,,611d1134bcc4eda812acf219,62bbf921c31ea8925dd3e40f,2022-06-29_09h03.17.778,Colour_Asymmetry_Pilot,2022.1.3,Win32,30.00840235,62bbe60bf3d75ef465d3e404,,,,,,,,,,,,,,,,,,,,,,,,,,,,,,,,,,,,,,,,,,,,,,,,,,,,,,,,,,,,,,,,,,,,,,,,,,,,,,,,,,,,,,,,,,,,,,,,,,,,,,,,,,,,,,,,,,,,,,,,,,,,,,,,,,,,,,,,,,,,,,,,,,,,,,,,,,,,,,
0,65,65,56,1,,611d1134bcc4eda812acf219,62bbf921c31ea8925dd3e40f,2022-06-29_09h03.17.778,Colour_Asymmetry_Pilot,2022.1.3,Win32,30.00840235,62bbe60bf3d75ef465d3e404,,,,,,,,,,,,,,,,,,,,,,,,,,,,,,,,,,,,,,,,,,,,,,,,,,,,,,,,,,,,,,,,,,,,,,,,,,,,,,,,,,,,,,,,,,,,,,,,,,,,,,,,,,,,,,,,,,,,,,,,,,,,,,,,,,,,,,,,,,,,,,,,,,,,,,,,,,,,,,
0,66,66,11,1,,611d1134bcc4eda812acf219,62bbf921c31ea8925dd3e40f,2022-06-29_09h03.17.778,Colour_Asymmetry_Pilot,2022.1.3,Win32,30.00840235,62bbe60bf3d75ef465d3e404,,,,,,,,,,,,,,,,,,,,,,,,,,,,,,,,,,,,,,,,,,,,,,,,,,,,,,,,,,,,,,,,,,,,,,,,,,,,,,,,,,,,,,,,,,,,,,,,,,,,,,,,,,,,,,,,,,,,,,,,,,,,,,,,,,,,,,,,,,,,,,,,,,,,,,,,,,,,,,
0,67,67,58,1,,611d1134bcc4eda812acf219,62bbf921c31ea8925dd3e40f,2022-06-29_09h03.17.778,Colour_Asymmetry_Pilot,2022.1.3,Win32,30.00840235,62bbe60bf3d75ef465d3e404,,,,,,,,,,,,,,,,,,,,,,,,,,,,,,,,,,,,,,,,,,,,,,,,,,,,,,,,,,,,,,,,,,,,,,,,,,,,,,,,,,,,,,,,,,,,,,,,,,,,,,,,,,,,,,,,,,,,,,,,,,,,,,,,,,,,,,,,,,,,,,,,,,,,,,,,,,,,,,
0,68,68,40,1,,611d1134bcc4eda812acf219,62bbf921c31ea8925dd3e40f,2022-06-29_09h03.17.778,Colour_Asymmetry_Pilot,2022.1.3,Win32,30.00840235,62bbe60bf3d75ef465d3e404,,,,,,,,,,,,,,,,,,,,,,,,,,,,,,,,,,,,,,,,,,,,,,,,,,,,,,,,,,,,,,,,,,,,,,,,,,,,,,,,,,,,,,,,,,,,,,,,,,,,,,,,,,,,,,,,,,,,,,,,,,,,,,,,,,,,,,,,,,,,,,,,,,,,,,,,,,,,,,
0,69,69,36,1,,611d1134bcc4eda812acf219,62bbf921c31ea8925dd3e40f,2022-06-29_09h03.17.778,Colour_Asymmetry_Pilot,2022.1.3,Win32,30.00840235,62bbe60bf3d75ef465d3e404,,,,,,,,,,,,,,,,,,,,,,,,,,,,,,,,,,,,,,,,,,,,,,,,,,,,,,,,,,,,,,,,,,,,,,,,,,,,,,,,,,,,,,,,,,,,,,,,,,,,,,,,,,,,,,,,,,,,,,,,,,,,,,,,,,,,,,,,,,,,,,,,,,,,,,,,,,,,,,
0,70,70,91,1,,611d1134bcc4eda812acf219,62bbf921c31ea8925dd3e40f,2022-06-29_09h03.17.778,Colour_Asymmetry_Pilot,2022.1.3,Win32,30.00840235,62bbe60bf3d75ef465d3e404,,,,,,,,,,,,,,,,,,,,,,,,,,,,,,,,,,,,,,,,,,,,,,,,,,,,,,,,,,,,,,,,,,,,,,,,,,,,,,,,,,,,,,,,,,,,,,,,,,,,,,,,,,,,,,,,,,,,,,,,,,,,,,,,,,,,,,,,,,,,,,,,,,,,,,,,,,,,,,
0,71,71,28,1,,611d1134bcc4eda812acf219,62bbf921c31ea8925dd3e40f,2022-06-29_09h03.17.778,Colour_Asymmetry_Pilot,2022.1.3,Win32,30.00840235,62bbe60bf3d75ef465d3e404,,,,,,,,,,,,,,,,,,,,,,,,,,,,,,,,,,,,,,,,,,,,,,,,,,,,,,,,,,,,,,,,,,,,,,,,,,,,,,,,,,,,,,,,,,,,,,,,,,,,,,,,,,,,,,,,,,,,,,,,,,,,,,,,,,,,,,,,,,,,,,,,,,,,,,,,,,,,,,
0,72,72,67,1,,611d1134bcc4eda812acf219,62bbf921c31ea8925dd3e40f,2022-06-29_09h03.17.778,Colour_Asymmetry_Pilot,2022.1.3,Win32,30.00840235,62bbe60bf3d75ef465d3e404,,,,,,,,,,,,,,,,,,,,,,,,,,,,,,,,,,,,,,,,,,,,,,,,,,,,,,,,,,,,,,,,,,,,,,,,,,,,,,,,,,,,,,,,,,,,,,,,,,,,,,,,,,,,,,,,,,,,,,,,,,,,,,,,,,,,,,,,,,,,,,,,,,,,,,,,,,,,,,
0,73,73,45,1,,611d1134bcc4eda812acf219,62bbf921c31ea8925dd3e40f,2022-06-29_09h03.17.778,Colour_Asymmetry_Pilot,2022.1.3,Win32,30.00840235,62bbe60bf3d75ef465d3e404,,,,,,,,,,,,,,,,,,,,,,,,,,,,,,,,,,,,,,,,,,,,,,,,,,,,,,,,,,,,,,,,,,,,,,,,,,,,,,,,,,,,,,,,,,,,,,,,,,,,,,,,,,,,,,,,,,,,,,,,,,,,,,,,,,,,,,,,,,,,,,,,,,,,,,,,,,,,,,
0,74,74,82,1,,611d1134bcc4eda812acf219,62bbf921c31ea8925dd3e40f,2022-06-29_09h03.17.778,Colour_Asymmetry_Pilot,2022.1.3,Win32,30.00840235,62bbe60bf3d75ef465d3e404,,,,,,,,,,,,,,,,,,,,,,,,,,,,,,,,,,,,,,,,,,,,,,,,,,,,,,,,,,,,,,,,,,,,,,,,,,,,,,,,,,,,,,,,,,,,,,,,,,,,,,,,,,,,,,,,,,,,,,,,,,,,,,,,,,,,,,,,,,,,,,,,,,,,,,,,,,,,,,
0,75,75,23,1,,611d1134bcc4eda812acf219,62bbf921c31ea8925dd3e40f,2022-06-29_09h03.17.778,Colour_Asymmetry_Pilot,2022.1.3,Win32,30.00840235,62bbe60bf3d75ef465d3e404,,,,,,,,,,,,,,,,,,,,,,,,,,,,,,,,,,,,,,,,,,,,,,,,,,,,,,,,,,,,,,,,,,,,,,,,,,,,,,,,,,,,,,,,,,,,,,,,,,,,,,,,,,,,,,,,,,,,,,,,,,,,,,,,,,,,,,,,,,,,,,,,,,,,,,,,,,,,,,
0,76,76,57,1,,611d1134bcc4eda812acf219,62bbf921c31ea8925dd3e40f,2022-06-29_09h03.17.778,Colour_Asymmetry_Pilot,2022.1.3,Win32,30.00840235,62bbe60bf3d75ef465d3e404,,,,,,,,,,,,,,,,,,,,,,,,,,,,,,,,,,,,,,,,,,,,,,,,,,,,,,,,,,,,,,,,,,,,,,,,,,,,,,,,,,,,,,,,,,,,,,,,,,,,,,,,,,,,,,,,,,,,,,,,,,,,,,,,,,,,,,,,,,,,,,,,,,,,,,,,,,,,,,
0,77,77,12,1,,611d1134bcc4eda812acf219,62bbf921c31ea8925dd3e40f,2022-06-29_09h03.17.778,Colour_Asymmetry_Pilot,2022.1.3,Win32,30.00840235,62bbe60bf3d75ef465d3e404,,,,,,,,,,,,,,,,,,,,,,,,,,,,,,,,,,,,,,,,,,,,,,,,,,,,,,,,,,,,,,,,,,,,,,,,,,,,,,,,,,,,,,,,,,,,,,,,,,,,,,,,,,,,,,,,,,,,,,,,,,,,,,,,,,,,,,,,,,,,,,,,,,,,,,,,,,,,,,
0,78,78,41,1,,611d1134bcc4eda812acf219,62bbf921c31ea8925dd3e40f,2022-06-29_09h03.17.778,Colour_Asymmetry_Pilot,2022.1.3,Win32,30.00840235,62bbe60bf3d75ef465d3e404,,,,,,,,,,,,,,,,,,,,,,,,,,,,,,,,,,,,,,,,,,,,,,,,,,,,,,,,,,,,,,,,,,,,,,,,,,,,,,,,,,,,,,,,,,,,,,,,,,,,,,,,,,,,,,,,,,,,,,,,,,,,,,,,,,,,,,,,,,,,,,,,,,,,,,,,,,,,,,
0,79,79,14,1,,611d1134bcc4eda812acf219,62bbf921c31ea8925dd3e40f,2022-06-29_09h03.17.778,Colour_Asymmetry_Pilot,2022.1.3,Win32,30.00840235,62bbe60bf3d75ef465d3e404,,,,,,,,,,,,,,,,,,,,,,,,,,,,,,,,,,,,,,,,,,,,,,,,,,,,,,,,,,,,,,,,,,,,,,,,,,,,,,,,,,,,,,,,,,,,,,,,,,,,,,,,,,,,,,,,,,,,,,,,,,,,,,,,,,,,,,,,,,,,,,,,,,,,,,,,,,,,,,
0,80,80,33,1,,611d1134bcc4eda812acf219,62bbf921c31ea8925dd3e40f,2022-06-29_09h03.17.778,Colour_Asymmetry_Pilot,2022.1.3,Win32,30.00840235,62bbe60bf3d75ef465d3e404,,,,,,,,,,,,,,,,,,,,,,,,,,,,,,,,,,,,,,,,,,,,,,,,,,,,,,,,,,,,,,,,,,,,,,,,,,,,,,,,,,,,,,,,,,,,,,,,,,,,,,,,,,,,,,,,,,,,,,,,,,,,,,,,,,,,,,,,,,,,,,,,,,,,,,,,,,,,,,
0,81,81,16,1,,611d1134bcc4eda812acf219,62bbf921c31ea8925dd3e40f,2022-06-29_09h03.17.778,Colour_Asymmetry_Pilot,2022.1.3,Win32,30.00840235,62bbe60bf3d75ef465d3e404,,,,,,,,,,,,,,,,,,,,,,,,,,,,,,,,,,,,,,,,,,,,,,,,,,,,,,,,,,,,,,,,,,,,,,,,,,,,,,,,,,,,,,,,,,,,,,,,,,,,,,,,,,,,,,,,,,,,,,,,,,,,,,,,,,,,,,,,,,,,,,,,,,,,,,,,,,,,,,
0,82,82,71,1,,611d1134bcc4eda812acf219,62bbf921c31ea8925dd3e40f,2022-06-29_09h03.17.778,Colour_Asymmetry_Pilot,2022.1.3,Win32,30.00840235,62bbe60bf3d75ef465d3e404,,,,,,,,,,,,,,,,,,,,,,,,,,,,,,,,,,,,,,,,,,,,,,,,,,,,,,,,,,,,,,,,,,,,,,,,,,,,,,,,,,,,,,,,,,,,,,,,,,,,,,,,,,,,,,,,,,,,,,,,,,,,,,,,,,,,,,,,,,,,,,,,,,,,,,,,,,,,,,
0,83,83,39,1,,611d1134bcc4eda812acf219,62bbf921c31ea8925dd3e40f,2022-06-29_09h03.17.778,Colour_Asymmetry_Pilot,2022.1.3,Win32,30.00840235,62bbe60bf3d75ef465d3e404,,,,,,,,,,,,,,,,,,,,,,,,,,,,,,,,,,,,,,,,,,,,,,,,,,,,,,,,,,,,,,,,,,,,,,,,,,,,,,,,,,,,,,,,,,,,,,,,,,,,,,,,,,,,,,,,,,,,,,,,,,,,,,,,,,,,,,,,,,,,,,,,,,,,,,,,,,,,,,
0,84,84,6,1,,611d1134bcc4eda812acf219,62bbf921c31ea8925dd3e40f,2022-06-29_09h03.17.778,Colour_Asymmetry_Pilot,2022.1.3,Win32,30.00840235,62bbe60bf3d75ef465d3e404,,,,,,,,,,,,,,,,,,,,,,,,,,,,,,,,,,,,,,,,,,,,,,,,,,,,,,,,,,,,,,,,,,,,,,,,,,,,,,,,,,,,,,,,,,,,,,,,,,,,,,,,,,,,,,,,,,,,,,,,,,,,,,,,,,,,,,,,,,,,,,,,,,,,,,,,,,,,,,
0,85,85,66,1,,611d1134bcc4eda812acf219,62bbf921c31ea8925dd3e40f,2022-06-29_09h03.17.778,Colour_Asymmetry_Pilot,2022.1.3,Win32,30.00840235,62bbe60bf3d75ef465d3e404,,,,,,,,,,,,,,,,,,,,,,,,,,,,,,,,,,,,,,,,,,,,,,,,,,,,,,,,,,,,,,,,,,,,,,,,,,,,,,,,,,,,,,,,,,,,,,,,,,,,,,,,,,,,,,,,,,,,,,,,,,,,,,,,,,,,,,,,,,,,,,,,,,,,,,,,,,,,,,
0,86,86,3,1,,611d1134bcc4eda812acf219,62bbf921c31ea8925dd3e40f,2022-06-29_09h03.17.778,Colour_Asymmetry_Pilot,2022.1.3,Win32,30.00840235,62bbe60bf3d75ef465d3e404,,,,,,,,,,,,,,,,,,,,,,,,,,,,,,,,,,,,,,,,,,,,,,,,,,,,,,,,,,,,,,,,,,,,,,,,,,,,,,,,,,,,,,,,,,,,,,,,,,,,,,,,,,,,,,,,,,,,,,,,,,,,,,,,,,,,,,,,,,,,,,,,,,,,,,,,,,,,,,
0,87,87,47,1,,611d1134bcc4eda812acf219,62bbf921c31ea8925dd3e40f,2022-06-29_09h03.17.778,Colour_Asymmetry_Pilot,2022.1.3,Win32,30.00840235,62bbe60bf3d75ef465d3e404,,,,,,,,,,,,,,,,,,,,,,,,,,,,,,,,,,,,,,,,,,,,,,,,,,,,,,,,,,,,,,,,,,,,,,,,,,,,,,,,,,,,,,,,,,,,,,,,,,,,,,,,,,,,,,,,,,,,,,,,,,,,,,,,,,,,,,,,,,,,,,,,,,,,,,,,,,,,,,
0,88,88,0,1,,611d1134bcc4eda812acf219,62bbf921c31ea8925dd3e40f,2022-06-29_09h03.17.778,Colour_Asymmetry_Pilot,2022.1.3,Win32,30.00840235,62bbe60bf3d75ef465d3e404,,,,,,,,,,,,,,,,,,,,,,,,,,,,,,,,,,,,,,,,,,,,,,,,,,,,,,,,,,,,,,,,,,,,,,,,,,,,,,,,,,,,,,,,,,,,,,,,,,,,,,,,,,,,,,,,,,,,,,,,,,,,,,,,,,,,,,,,,,,,,,,,,,,,,,,,,,,,,,
0,89,89,37,1,,611d1134bcc4eda812acf219,62bbf921c31ea8925dd3e40f,2022-06-29_09h03.17.778,Colour_Asymmetry_Pilot,2022.1.3,Win32,30.00840235,62bbe60bf3d75ef465d3e404,,,,,,,,,,,,,,,,,,,,,,,,,,,,,,,,,,,,,,,,,,,,,,,,,,,,,,,,,,,,,,,,,,,,,,,,,,,,,,,,,,,,,,,,,,,,,,,,,,,,,,,,,,,,,,,,,,,,,,,,,,,,,,,,,,,,,,,,,,,,,,,,,,,,,,,,,,,,,,
0,90,90,4,1,,611d1134bcc4eda812acf219,62bbf921c31ea8925dd3e40f,2022-06-29_09h03.17.778,Colour_Asymmetry_Pilot,2022.1.3,Win32,30.00840235,62bbe60bf3d75ef465d3e404,,,,,,,,,,,,,,,,,,,,,,,,,,,,,,,,,,,,,,,,,,,,,,,,,,,,,,,,,,,,,,,,,,,,,,,,,,,,,,,,,,,,,,,,,,,,,,,,,,,,,,,,,,,,,,,,,,,,,,,,,,,,,,,,,,,,,,,,,,,,,,,,,,,,,,,,,,,,,,
0,91,91,72,1,,611d1134bcc4eda812acf219,62bbf921c31ea8925dd3e40f,2022-06-29_09h03.17.778,Colour_Asymmetry_Pilot,2022.1.3,Win32,30.00840235,62bbe60bf3d75ef465d3e404,,,,,,,,,,,,,,,,,,,,,,,,,,,,,,,,,,,,,,,,,,,,,,,,,,,,,,,,,,,,,,,,,,,,,,,,,,,,,,,,,,,,,,,,,,,,,,,,,,,,,,,,,,,,,,,,,,,,,,,,,,,,,,,,,,,,,,,,,,,,,,,,,,,,,,,,,,,,,,
0,92,92,62,1,,611d1134bcc4eda812acf219,62bbf921c31ea8925dd3e40f,2022-06-29_09h03.17.778,Colour_Asymmetry_Pilot,2022.1.3,Win32,30.00840235,62bbe60bf3d75ef465d3e404,,,,,,,,,,,,,,,,,,,,,,,,,,,,,,,,,,,,,,,,,,,,,,,,,,,,,,,,,,,,,,,,,,,,,,,,,,,,,,,,,,,,,,,,,,,,,,,,,,,,,,,,,,,,,,,,,,,,,,,,,,,,,,,,,,,,,,,,,,,,,,,,,,,,,,,,,,,,,,
,,,,,,611d1134bcc4eda812acf219,62bbf921c31ea8925dd3e40f,2022-06-29_09h03.17.778,Colour_Asymmetry_Pilot,2022.1.3,Win32,30.00840235,62bbe60bf3d75ef465d3e404,0,0,0,100,1,threeone,,,,,,,,,,,,,,,,,,,,,,,,,,,,,,,,,,,,,,,,,,,,,,,,,,,,,,,,,,,,,,,,,,,,,,,,,,,,,,,,,,,,,,,,,,,,,,,,,,,,,,,,,,,,,,,,,,,,,,,,,,,,,,,,,,,,,,,,,,,,,,,,,,,,,,,,
,,,,,,611d1134bcc4eda812acf219,62bbf921c31ea8925dd3e40f,2022-06-29_09h03.17.778,Colour_Asymmetry_Pilot,2022.1.3,Win32,30.00840235,62bbe60bf3d75ef465d3e404,0,1,1,106,1,twoone,,,,,,,,,,,,,,,,,,,,,,,,,,,,,,,,,,,,,,,,,,,,,,,,,,,,,,,,,,,,,,,,,,,,,,,,,,,,,,,,,,,,,,,,,,,,,,,,,,,,,,,,,,,,,,,,,,,,,,,,,,,,,,,,,,,,,,,,,,,,,,,,,,,,,,,,
,,,,,,611d1134bcc4eda812acf219,62bbf921c31ea8925dd3e40f,2022-06-29_09h03.17.778,Colour_Asymmetry_Pilot,2022.1.3,Win32,30.00840235,62bbe60bf3d75ef465d3e404,0,2,2,145,1,onethree,,,,,,,,,,,,,,,,,,,,,,,,,,,,,,,,,,,,,,,,,,,,,,,,,,,,,,,,,,,,,,,,,,,,,,,,,,,,,,,,,,,,,,,,,,,,,,,,,,,,,,,,,,,,,,,,,,,,,,,,,,,,,,,,,,,,,,,,,,,,,,,,,,,,,,,,
,,,,,,611d1134bcc4eda812acf219,62bbf921c31ea8925dd3e40f,2022-06-29_09h03.17.778,Colour_Asymmetry_Pilot,2022.1.3,Win32,30.00840235,62bbe60bf3d75ef465d3e404,0,3,3,133,1,threefour,,,,,,,,,,,,,,,,,,,,,,,,,,,,,,,,,,,,,,,,,,,,,,,,,,,,,,,,,,,,,,,,,,,,,,,,,,,,,,,,,,,,,,,,,,,,,,,,,,,,,,,,,,,,,,,,,,,,,,,,,,,,,,,,,,,,,,,,,,,,,,,,,,,,,,,,
,,,,,,611d1134bcc4eda812acf219,62bbf921c31ea8925dd3e40f,2022-06-29_09h03.17.778,Colour_Asymmetry_Pilot,2022.1.3,Win32,30.00840235,62bbe60bf3d75ef465d3e404,0,4,4,114,1,twoone,,,,,,,,,,,,,,,,,,,,,,,,,,,,,,,,,,,,,,,,,,,,,,,,,,,,,,,,,,,,,,,,,,,,,,,,,,,,,,,,,,,,,,,,,,,,,,,,,,,,,,,,,,,,,,,,,,,,,,,,,,,,,,,,,,,,,,,,,,,,,,,,,,,,,,,,
,,,,,,611d1134bcc4eda812acf219,62bbf921c31ea8925dd3e40f,2022-06-29_09h03.17.778,Colour_Asymmetry_Pilot,2022.1.3,Win32,30.00840235,62bbe60bf3d75ef465d3e404,0,5,5,74,1,twoone,,,,,,,,,,,,,,,,,,,,,,,,,,,,,,,,,,,,,,,,,,,,,,,,,,,,,,,,,,,,,,,,,,,,,,,,,,,,,,,,,,,,,,,,,,,,,,,,,,,,,,,,,,,,,,,,,,,,,,,,,,,,,,,,,,,,,,,,,,,,,,,,,,,,,,,,
,,,,,,611d1134bcc4eda812acf219,62bbf921c31ea8925dd3e40f,2022-06-29_09h03.17.778,Colour_Asymmetry_Pilot,2022.1.3,Win32,30.00840235,62bbe60bf3d75ef465d3e404,0,6,6,139,1,twofour,,,,,,,,,,,,,,,,,,,,,,,,,,,,,,,,,,,,,,,,,,,,,,,,,,,,,,,,,,,,,,,,,,,,,,,,,,,,,,,,,,,,,,,,,,,,,,,,,,,,,,,,,,,,,,,,,,,,,,,,,,,,,,,,,,,,,,,,,,,,,,,,,,,,,,,,
,,,,,,611d1134bcc4eda812acf219,62bbf921c31ea8925dd3e40f,2022-06-29_09h03.17.778,Colour_Asymmetry_Pilot,2022.1.3,Win32,30.00840235,62bbe60bf3d75ef465d3e404,0,7,7,0,1,onetwo,,,,,,,,,,,,,,,,,,,,,,,,,,,,,,,,,,,,,,,,,,,,,,,,,,,,,,,,,,,,,,,,,,,,,,,,,,,,,,,,,,,,,,,,,,,,,,,,,,,,,,,,,,,,,,,,,,,,,,,,,,,,,,,,,,,,,,,,,,,,,,,,,,,,,,,,
,,,,,,611d1134bcc4eda812acf219,62bbf921c31ea8925dd3e40f,2022-06-29_09h03.17.778,Colour_Asymmetry_Pilot,2022.1.3,Win32,30.00840235,62bbe60bf3d75ef465d3e404,0,8,8,157,1,threefour,,,,,,,,,,,,,,,,,,,,,,,,,,,,,,,,,,,,,,,,,,,,,,,,,,,,,,,,,,,,,,,,,,,,,,,,,,,,,,,,,,,,,,,,,,,,,,,,,,,,,,,,,,,,,,,,,,,,,,,,,,,,,,,,,,,,,,,,,,,,,,,,,,,,,,,,
,,,,,,611d1134bcc4eda812acf219,62bbf921c31ea8925dd3e40f,2022-06-29_09h03.17.778,Colour_Asymmetry_Pilot,2022.1.3,Win32,30.00840235,62bbe60bf3d75ef465d3e404,0,9,9,79,1,fourthree,,,,,,,,,,,,,,,,,,,,,,,,,,,,,,,,,,,,,,,,,,,,,,,,,,,,,,,,,,,,,,,,,,,,,,,,,,,,,,,,,,,,,,,,,,,,,,,,,,,,,,,,,,,,,,,,,,,,,,,,,,,,,,,,,,,,,,,,,,,,,,,,,,,,,,,,
,,,,,,611d1134bcc4eda812acf219,62bbf921c31ea8925dd3e40f,2022-06-29_09h03.17.778,Colour_Asymmetry_Pilot,2022.1.3,Win32,30.00840235,62bbe60bf3d75ef465d3e404,0,10,10,121,1,onethree,,,,,,,,,,,,,,,,,,,,,,,,,,,,,,,,,,,,,,,,,,,,,,,,,,,,,,,,,,,,,,,,,,,,,,,,,,,,,,,,,,,,,,,,,,,,,,,,,,,,,,,,,,,,,,,,,,,,,,,,,,,,,,,,,,,,,,,,,,,,,,,,,,,,,,,,
,,,,,,611d1134bcc4eda812acf219,62bbf921c31ea8925dd3e40f,2022-06-29_09h03.17.778,Colour_Asymmetry_Pilot,2022.1.3,Win32,30.00840235,62bbe60bf3d75ef465d3e404,0,11,11,147,1,twofour,,,,,,,,,,,,,,,,,,,,,,,,,,,,,,,,,,,,,,,,,,,,,,,,,,,,,,,,,,,,,,,,,,,,,,,,,,,,,,,,,,,,,,,,,,,,,,,,,,,,,,,,,,,,,,,,,,,,,,,,,,,,,,,,,,,,,,,,,,,,,,,,,,,,,,,,
,,,,,,611d1134bcc4eda812acf219,62bbf921c31ea8925dd3e40f,2022-06-29_09h03.17.778,Colour_Asymmetry_Pilot,2022.1.3,Win32,30.00840235,62bbe60bf3d75ef465d3e404,0,12,12,6,1,fourtwo,,,,,,,,,,,,,,,,,,,,,,,,,,,,,,,,,,,,,,,,,,,,,,,,,,,,,,,,,,,,,,,,,,,,,,,,,,,,,,,,,,,,,,,,,,,,,,,,,,,,,,,,,,,,,,,,,,,,,,,,,,,,,,,,,,,,,,,,,,,,,,,,,,,,,,,,
,,,,,,611d1134bcc4eda812acf219,62bbf921c31ea8925dd3e40f,2022-06-29_09h03.17.778,Colour_Asymmetry_Pilot,2022.1.3,Win32,30.00840235,62bbe60bf3d75ef465d3e404,0,13,13,108,1,threeone,,,,,,,,,,,,,,,,,,,,,,,,,,,,,,,,,,,,,,,,,,,,,,,,,,,,,,,,,,,,,,,,,,,,,,,,,,,,,,,,,,,,,,,,,,,,,,,,,,,,,,,,,,,,,,,,,,,,,,,,,,,,,,,,,,,,,,,,,,,,,,,,,,,,,,,,
,,,,,,611d1134bcc4eda812acf219,62bbf921c31ea8925dd3e40f,2022-06-29_09h03.17.778,Colour_Asymmetry_Pilot,2022.1.3,Win32,30.00840235,62bbe60bf3d75ef465d3e404,0,14,14,24,1,onetwo,,,,,,,,,,,,,,,,,,,,,,,,,,,,,,,,,,,,,,,,,,,,,,,,,,,,,,,,,,,,,,,,,,,,,,,,,,,,,,,,,,,,,,,,,,,,,,,,,,,,,,,,,,,,,,,,,,,,,,,,,,,,,,,,,,,,,,,,,,,,,,,,,,,,,,,,
,,,,,,611d1134bcc4eda812acf219,62bbf921c31ea8925dd3e40f,2022-06-29_09h03.17.778,Colour_Asymmetry_Pilot,2022.1.3,Win32,30.00840235,62bbe60bf3d75ef465d3e404,0,15,15,41,1,onethree,,,,,,,,,,,,,,,,,,,,,,,,,,,,,,,,,,,,,,,,,,,,,,,,,,,,,,,,,,,,,,,,,,,,,,,,,,,,,,,,,,,,,,,,,,,,,,,,,,,,,,,,,,,,,,,,,,,,,,,,,,,,,,,,,,,,,,,,,,,,,,,,,,,,,,,,
,,,,,,611d1134bcc4eda812acf219,62bbf921c31ea8925dd3e40f,2022-06-29_09h03.17.778,Colour_Asymmetry_Pilot,2022.1.3,Win32,30.00840235,62bbe60bf3d75ef465d3e404,0,16,16,77,1,threefour,,,,,,,,,,,,,,,,,,,,,,,,,,,,,,,,,,,,,,,,,,,,,,,,,,,,,,,,,,,,,,,,,,,,,,,,,,,,,,,,,,,,,,,,,,,,,,,,,,,,,,,,,,,,,,,,,,,,,,,,,,,,,,,,,,,,,,,,,,,,,,,,,,,,,,,,
,,,,,,611d1134bcc4eda812acf219,62bbf921c31ea8925dd3e40f,2022-06-29_09h03.17.778,Colour_Asymmetry_Pilot,2022.1.3,Win32,30.00840235,62bbe60bf3d75ef465d3e404,0,17,17,15,1,fourthree,,,,,,,,,,,,,,,,,,,,,,,,,,,,,,,,,,,,,,,,,,,,,,,,,,,,,,,,,,,,,,,,,,,,,,,,,,,,,,,,,,,,,,,,,,,,,,,,,,,,,,,,,,,,,,,,,,,,,,,,,,,,,,,,,,,,,,,,,,,,,,,,,,,,,,,,
,,,,,,611d1134bcc4eda812acf219,62bbf921c31ea8925dd3e40f,2022-06-29_09h03.17.778,Colour_Asymmetry_Pilot,2022.1.3,Win32,30.00840235,62bbe60bf3d75ef465d3e404,0,18,18,69,1,threefour,,,,,,,,,,,,,,,,,,,,,,,,,,,,,,,,,,,,,,,,,,,,,,,,,,,,,,,,,,,,,,,,,,,,,,,,,,,,,,,,,,,,,,,,,,,,,,,,,,,,,,,,,,,,,,,,,,,,,,,,,,,,,,,,,,,,,,,,,,,,,,,,,,,,,,,,
,,,,,,611d1134bcc4eda812acf219,62bbf921c31ea8925dd3e40f,2022-06-29_09h03.17.778,Colour_Asymmetry_Pilot,2022.1.3,Win32,30.00840235,62bbe60bf3d75ef465d3e404,0,19,19,155,1,twofour,,,,,,,,,,,,,,,,,,,,,,,,,,,,,,,,,,,,,,,,,,,,,,,,,,,,,,,,,,,,,,,,,,,,,,,,,,,,,,,,,,,,,,,,,,,,,,,,,,,,,,,,,,,,,,,,,,,,,,,,,,,,,,,,,,,,,,,,,,,,,,,,,,,,,,,,
,,,,,,611d1134bcc4eda812acf219,62bbf921c31ea8925dd3e40f,2022-06-29_09h03.17.778,Colour_Asymmetry_Pilot,2022.1.3,Win32,30.00840235,62bbe60bf3d75ef465d3e404,0,20,20,50,1,twoone,,,,,,,,,,,,,,,,,,,,,,,,,,,,,,,,,,,,,,,,,,,,,,,,,,,,,,,,,,,,,,,,,,,,,,,,,,,,,,,,,,,,,,,,,,,,,,,,,,,,,,,,,,,,,,,,,,,,,,,,,,,,,,,,,,,,,,,,,,,,,,,,,,,,,,,,
,,,,,,611d1134bcc4eda812acf219,62bbf921c31ea8925dd3e40f,2022-06-29_09h03.17.778,Colour_Asymmetry_Pilot,2022.1.3,Win32,30.00840235,62bbe60bf3d75ef465d3e404,0,21,21,115,1,twofour,,,,,,,,,,,,,,,,,,,,,,,,,,,,,,,,,,,,,,,,,,,,,,,,,,,,,,,,,,,,,,,,,,,,,,,,,,,,,,,,,,,,,,,,,,,,,,,,,,,,,,,,,,,,,,,,,,,,,,,,,,,,,,,,,,,,,,,,,,,,,,,,,,,,,,,,
,,,,,,611d1134bcc4eda812acf219,62bbf921c31ea8925dd3e40f,2022-06-29_09h03.17.778,Colour_Asymmetry_Pilot,2022.1.3,Win32,30.00840235,62bbe60bf3d75ef465d3e404,0,22,22,136,1,onetwo,,,,,,,,,,,,,,,,,,,,,,,,,,,,,,,,,,,,,,,,,,,,,,,,,,,,,,,,,,,,,,,,,,,,,,,,,,,,,,,,,,,,,,,,,,,,,,,,,,,,,,,,,,,,,,,,,,,,,,,,,,,,,,,,,,,,,,,,,,,,,,,,,,,,,,,,
,,,,,,611d1134bcc4eda812acf219,62bbf921c31ea8925dd3e40f,2022-06-29_09h03.17.778,Colour_Asymmetry_Pilot,2022.1.3,Win32,30.00840235,62bbe60bf3d75ef465d3e404,0,23,23,144,1,onetwo,,,,,,,,,,,,,,,,,,,,,,,,,,,,,,,,,,,,,,,,,,,,,,,,,,,,,,,,,,,,,,,,,,,,,,,,,,,,,,,,,,,,,,,,,,,,,,,,,,,,,,,,,,,,,,,,,,,,,,,,,,,,,,,,,,,,,,,,,,,,,,,,,,,,,,,,
,,,,,,611d1134bcc4eda812acf219,62bbf921c31ea8925dd3e40f,2022-06-29_09h03.17.778,Colour_Asymmetry_Pilot,2022.1.3,Win32,30.00840235,62bbe60bf3d75ef465d3e404,0,24,24,123,1,twofour,,,,,,,,,,,,,,,,,,,,,,,,,,,,,,,,,,,,,,,,,,,,,,,,,,,,,,,,,,,,,,,,,,,,,,,,,,,,,,,,,,,,,,,,,,,,,,,,,,,,,,,,,,,,,,,,,,,,,,,,,,,,,,,,,,,,,,,,,,,,,,,,,,,,,,,,
,,,,,,611d1134bcc4eda812acf219,62bbf921c31ea8925dd3e40f,2022-06-29_09h03.17.778,Colour_Asymmetry_Pilot,2022.1.3,Win32,30.00840235,62bbe60bf3d75ef465d3e404,0,25,25,25,1,onethree,,,,,,,,,,,,,,,,,,,,,,,,,,,,,,,,,,,,,,,,,,,,,,,,,,,,,,,,,,,,,,,,,,,,,,,,,,,,,,,,,,,,,,,,,,,,,,,,,,,,,,,,,,,,,,,,,,,,,,,,,,,,,,,,,,,,,,,,,,,,,,,,,,,,,,,,
,,,,,,611d1134bcc4eda812acf219,62bbf921c31ea8925dd3e40f,2022-06-29_09h03.17.778,Colour_Asymmetry_Pilot,2022.1.3,Win32,30.00840235,62bbe60bf3d75ef465d3e404,0,26,26,128,1,onetwo,,,,,,,,,,,,,,,,,,,,,,,,,,,,,,,,,,,,,,,,,,,,,,,,,,,,,,,,,,,,,,,,,,,,,,,,,,,,,,,,,,,,,,,,,,,,,,,,,,,,,,,,,,,,,,,,,,,,,,,,,,,,,,,,,,,,,,,,,,,,,,,,,,,,,,,,
,,,,,,611d1134bcc4eda812acf219,62bbf921c31ea8925dd3e40f,2022-06-29_09h03.17.778,Colour_Asymmetry_Pilot,2022.1.3,Win32,30.00840235,62bbe60bf3d75ef465d3e404,0,27,27,21,1,threefour,,,,,,,,,,,,,,,,,,,,,,,,,,,,,,,,,,,,,,,,,,,,,,,,,,,,,,,,,,,,,,,,,,,,,,,,,,,,,,,,,,,,,,,,,,,,,,,,,,,,,,,,,,,,,,,,,,,,,,,,,,,,,,,,,,,,,,,,,,,,,,,,,,,,,,,,
,,,,,,611d1134bcc4eda812acf219,62bbf921c31ea8925dd3e40f,2022-06-29_09h03.17.778,Colour_Asymmetry_Pilot,2022.1.3,Win32,30.00840235,62bbe60bf3d75ef465d3e404,0,28,28,146,1,twoone,,,,,,,,,,,,,,,,,,,,,,,,,,,,,,,,,,,,,,,,,,,,,,,,,,,,,,,,,,,,,,,,,,,,,,,,,,,,,,,,,,,,,,,,,,,,,,,,,,,,,,,,,,,,,,,,,,,,,,,,,,,,,,,,,,,,,,,,,,,,,,,,,,,,,,,,
,,,,,,611d1134bcc4eda812acf219,62bbf921c31ea8925dd3e40f,2022-06-29_09h03.17.778,Colour_Asymmetry_Pilot,2022.1.3,Win32,30.00840235,62bbe60bf3d75ef465d3e404,0,29,29,109,1,threefour,,,,,,,,,,,,,,,,,,,,,,,,,,,,,,,,,,,,,,,,,,,,,,,,,,,,,,,,,,,,,,,,,,,,,,,,,,,,,,,,,,,,,,,,,,,,,,,,,,,,,,,,,,,,,,,,,,,,,,,,,,,,,,,,,,,,,,,,,,,,,,,,,,,,,,,,
,,,,,,611d1134bcc4eda812acf219,62bbf921c31ea8925dd3e40f,2022-06-29_09h03.17.778,Colour_Asymmetry_Pilot,2022.1.3,Win32,30.00840235,62bbe60bf3d75ef465d3e404,0,30,30,83,1,twofour,,,,,,,,,,,,,,,,,,,,,,,,,,,,,,,,,,,,,,,,,,,,,,,,,,,,,,,,,,,,,,,,,,,,,,,,,,,,,,,,,,,,,,,,,,,,,,,,,,,,,,,,,,,,,,,,,,,,,,,,,,,,,,,,,,,,,,,,,,,,,,,,,,,,,,,,
,,,,,,611d1134bcc4eda812acf219,62bbf921c31ea8925dd3e40f,2022-06-29_09h03.17.778,Colour_Asymmetry_Pilot,2022.1.3,Win32,30.00840235,62bbe60bf3d75ef465d3e404,0,31,31,38,1,fourtwo,,,,,,,,,,,,,,,,,,,,,,,,,,,,,,,,,,,,,,,,,,,,,,,,,,,,,,,,,,,,,,,,,,,,,,,,,,,,,,,,,,,,,,,,,,,,,,,,,,,,,,,,,,,,,,,,,,,,,,,,,,,,,,,,,,,,,,,,,,,,,,,,,,,,,,,,
,,,,,,611d1134bcc4eda812acf219,62bbf921c31ea8925dd3e40f,2022-06-29_09h03.17.778,Colour_Asymmetry_Pilot,2022.1.3,Win32,30.00840235,62bbe60bf3d75ef465d3e404,0,32,32,18,1,twoone,,,,,,,,,,,,,,,,,,,,,,,,,,,,,,,,,,,,,,,,,,,,,,,,,,,,,,,,,,,,,,,,,,,,,,,,,,,,,,,,,,,,,,,,,,,,,,,,,,,,,,,,,,,,,,,,,,,,,,,,,,,,,,,,,,,,,,,,,,,,,,,,,,,,,,,,
,,,,,,611d1134bcc4eda812acf219,62bbf921c31ea8925dd3e40f,2022-06-29_09h03.17.778,Colour_Asymmetry_Pilot,2022.1.3,Win32,30.00840235,62bbe60bf3d75ef465d3e404,0,33,33,32,1,onetwo,,,,,,,,,,,,,,,,,,,,,,,,,,,,,,,,,,,,,,,,,,,,,,,,,,,,,,,,,,,,,,,,,,,,,,,,,,,,,,,,,,,,,,,,,,,,,,,,,,,,,,,,,,,,,,,,,,,,,,,,,,,,,,,,,,,,,,,,,,,,,,,,,,,,,,,,
,,,,,,611d1134bcc4eda812acf219,62bbf921c31ea8925dd3e40f,2022-06-29_09h03.17.778,Colour_Asymmetry_Pilot,2022.1.3,Win32,30.00840235,62bbe60bf3d75ef465d3e404,0,34,34,82,1,twoone,,,,,,,,,,,,,,,,,,,,,,,,,,,,,,,,,,,,,,,,,,,,,,,,,,,,,,,,,,,,,,,,,,,,,,,,,,,,,,,,,,,,,,,,,,,,,,,,,,,,,,,,,,,,,,,,,,,,,,,,,,,,,,,,,,,,,,,,,,,,,,,,,,,,,,,,
,,,,,,611d1134bcc4eda812acf219,62bbf921c31ea8925dd3e40f,2022-06-29_09h03.17.778,Colour_Asymmetry_Pilot,2022.1.3,Win32,30.00840235,62bbe60bf3d75ef465d3e404,0,35,35,99,1,twofour,,,,,,,,,,,,,,,,,,,,,,,,,,,,,,,,,,,,,,,,,,,,,,,,,,,,,,,,,,,,,,,,,,,,,,,,,,,,,,,,,,,,,,,,,,,,,,,,,,,,,,,,,,,,,,,,,,,,,,,,,,,,,,,,,,,,,,,,,,,,,,,,,,,,,,,,
,,,,,,611d1134bcc4eda812acf219,62bbf921c31ea8925dd3e40f,2022-06-29_09h03.17.778,Colour_Asymmetry_Pilot,2022.1.3,Win32,30.00840235,62bbe60bf3d75ef465d3e404,0,36,36,58,1,twoone,,,,,,,,,,,,,,,,,,,,,,,,,,,,,,,,,,,,,,,,,,,,,,,,,,,,,,,,,,,,,,,,,,,,,,,,,,,,,,,,,,,,,,,,,,,,,,,,,,,,,,,,,,,,,,,,,,,,,,,,,,,,,,,,,,,,,,,,,,,,,,,,,,,,,,,,
,,,,,,611d1134bcc4eda812acf219,62bbf921c31ea8925dd3e40f,2022-06-29_09h03.17.778,Colour_Asymmetry_Pilot,2022.1.3,Win32,30.00840235,62bbe60bf3d75ef465d3e404,0,37,37,161,1,onethree,,,,,,,,,,,,,,,,,,,,,,,,,,,,,,,,,,,,,,,,,,,,,,,,,,,,,,,,,,,,,,,,,,,,,,,,,,,,,,,,,,,,,,,,,,,,,,,,,,,,,,,,,,,,,,,,,,,,,,,,,,,,,,,,,,,,,,,,,,,,,,,,,,,,,,,,
,,,,,,611d1134bcc4eda812acf219,62bbf921c31ea8925dd3e40f,2022-06-29_09h03.17.778,Colour_Asymmetry_Pilot,2022.1.3,Win32,30.00840235,62bbe60bf3d75ef465d3e404,0,38,38,37,1,threefour,,,,,,,,,,,,,,,,,,,,,,,,,,,,,,,,,,,,,,,,,,,,,,,,,,,,,,,,,,,,,,,,,,,,,,,,,,,,,,,,,,,,,,,,,,,,,,,,,,,,,,,,,,,,,,,,,,,,,,,,,,,,,,,,,,,,,,,,,,,,,,,,,,,,,,,,
,,,,,,611d1134bcc4eda812acf219,62bbf921c31ea8925dd3e40f,2022-06-29_09h03.17.778,Colour_Asymmetry_Pilot,2022.1.3,Win32,30.00840235,62bbe60bf3d75ef465d3e404,0,39,39,14,1,fourtwo,,,,,,,,,,,,,,,,,,,,,,,,,,,,,,,,,,,,,,,,,,,,,,,,,,,,,,,,,,,,,,,,,,,,,,,,,,,,,,,,,,,,,,,,,,,,,,,,,,,,,,,,,,,,,,,,,,,,,,,,,,,,,,,,,,,,,,,,,,,,,,,,,,,,,,,,
,,,,,,611d1134bcc4eda812acf219,62bbf921c31ea8925dd3e40f,2022-06-29_09h03.17.778,Colour_Asymmetry_Pilot,2022.1.3,Win32,30.00840235,62bbe60bf3d75ef465d3e404,0,40,40,20,1,threeone,,,,,,,,,,,,,,,,,,,,,,,,,,,,,,,,,,,,,,,,,,,,,,,,,,,,,,,,,,,,,,,,,,,,,,,,,,,,,,,,,,,,,,,,,,,,,,,,,,,,,,,,,,,,,,,,,,,,,,,,,,,,,,,,,,,,,,,,,,,,,,,,,,,,,,,,
,,,,,,611d1134bcc4eda812acf219,62bbf921c31ea8925dd3e40f,2022-06-29_09h03.17.778,Colour_Asymmetry_Pilot,2022.1.3,Win32,30.00840235,62bbe60bf3d75ef465d3e404,0,41,41,29,1,threefour,,,,,,,,,,,,,,,,,,,,,,,,,,,,,,,,,,,,,,,,,,,,,,,,,,,,,,,,,,,,,,,,,,,,,,,,,,,,,,,,,,,,,,,,,,,,,,,,,,,,,,,,,,,,,,,,,,,,,,,,,,,,,,,,,,,,,,,,,,,,,,,,,,,,,,,,
,,,,,,611d1134bcc4eda812acf219,62bbf921c31ea8925dd3e40f,2022-06-29_09h03.17.778,Colour_Asymmetry_Pilot,2022.1.3,Win32,30.00840235,62bbe60bf3d75ef465d3e404,0,42,42,141,1,threefour,,,,,,,,,,,,,,,,,,,,,,,,,,,,,,,,,,,,,,,,,,,,,,,,,,,,,,,,,,,,,,,,,,,,,,,,,,,,,,,,,,,,,,,,,,,,,,,,,,,,,,,,,,,,,,,,,,,,,,,,,,,,,,,,,,,,,,,,,,,,,,,,,,,,,,,,
,,,,,,611d1134bcc4eda812acf219,62bbf921c31ea8925dd3e40f,2022-06-29_09h03.17.778,Colour_Asymmetry_Pilot,2022.1.3,Win32,30.00840235,62bbe60bf3d75ef465d3e404,0,43,43,84,1,threeone,,,,,,,,,,,,,,,,,,,,,,,,,,,,,,,,,,,,,,,,,,,,,,,,,,,,,,,,,,,,,,,,,,,,,,,,,,,,,,,,,,,,,,,,,,,,,,,,,,,,,,,,,,,,,,,,,,,,,,,,,,,,,,,,,,,,,,,,,,,,,,,,,,,,,,,,
,,,,,,611d1134bcc4eda812acf219,62bbf921c31ea8925dd3e40f,2022-06-29_09h03.17.778,Colour_Asymmetry_Pilot,2022.1.3,Win32,30.00840235,62bbe60bf3d75ef465d3e404,0,44,44,156,1,threeone,,,,,,,,,,,,,,,,,,,,,,,,,,,,,,,,,,,,,,,,,,,,,,,,,,,,,,,,,,,,,,,,,,,,,,,,,,,,,,,,,,,,,,,,,,,,,,,,,,,,,,,,,,,,,,,,,,,,,,,,,,,,,,,,,,,,,,,,,,,,,,,,,,,,,,,,
,,,,,,611d1134bcc4eda812acf219,62bbf921c31ea8925dd3e40f,2022-06-29_09h03.17.778,Colour_Asymmetry_Pilot,2022.1.3,Win32,30.00840235,62bbe60bf3d75ef465d3e404,0,45,45,46,1,fourtwo,,,,,,,,,,,,,,,,,,,,,,,,,,,,,,,,,,,,,,,,,,,,,,,,,,,,,,,,,,,,,,,,,,,,,,,,,,,,,,,,,,,,,,,,,,,,,,,,,,,,,,,,,,,,,,,,,,,,,,,,,,,,,,,,,,,,,,,,,,,,,,,,,,,,,,,,
,,,,,,611d1134bcc4eda812acf219,62bbf921c31ea8925dd3e40f,2022-06-29_09h03.17.778,Colour_Asymmetry_Pilot,2022.1.3,Win32,30.00840235,62bbe60bf3d75ef465d3e404,0,46,46,42,1,twoone,,,,,,,,,,,,,,,,,,,,,,,,,,,,,,,,,,,,,,,,,,,,,,,,,,,,,,,,,,,,,,,,,,,,,,,,,,,,,,,,,,,,,,,,,,,,,,,,,,,,,,,,,,,,,,,,,,,,,,,,,,,,,,,,,,,,,,,,,,,,,,,,,,,,,,,,
,,,,,,611d1134bcc4eda812acf219,62bbf921c31ea8925dd3e40f,2022-06-29_09h03.17.778,Colour_Asymmetry_Pilot,2022.1.3,Win32,30.00840235,62bbe60bf3d75ef465d3e404,0,47,47,43,1,twofour,,,,,,,,,,,,,,,,,,,,,,,,,,,,,,,,,,,,,,,,,,,,,,,,,,,,,,,,,,,,,,,,,,,,,,,,,,,,,,,,,,,,,,,,,,,,,,,,,,,,,,,,,,,,,,,,,,,,,,,,,,,,,,,,,,,,,,,,,,,,,,,,,,,,,,,,
,,,,,,611d1134bcc4eda812acf219,62bbf921c31ea8925dd3e40f,2022-06-29_09h03.17.778,Colour_Asymmetry_Pilot,2022.1.3,Win32,30.00840235,62bbe60bf3d75ef465d3e404,0,48,48,126,1,fourtwo,,,,,,,,,,,,,,,,,,,,,,,,,,,,,,,,,,,,,,,,,,,,,,,,,,,,,,,,,,,,,,,,,,,,,,,,,,,,,,,,,,,,,,,,,,,,,,,,,,,,,,,,,,,,,,,,,,,,,,,,,,,,,,,,,,,,,,,,,,,,,,,,,,,,,,,,
,,,,,,611d1134bcc4eda812acf219,62bbf921c31ea8925dd3e40f,2022-06-29_09h03.17.778,Colour_Asymmetry_Pilot,2022.1.3,Win32,30.00840235,62bbe60bf3d75ef465d3e404,0,49,49,93,1,threefour,,,,,,,,,,,,,,,,,,,,,,,,,,,,,,,,,,,,,,,,,,,,,,,,,,,,,,,,,,,,,,,,,,,,,,,,,,,,,,,,,,,,,,,,,,,,,,,,,,,,,,,,,,,,,,,,,,,,,,,,,,,,,,,,,,,,,,,,,,,,,,,,,,,,,,,,
,,,,,,611d1134bcc4eda812acf219,62bbf921c31ea8925dd3e40f,2022-06-29_09h03.17.778,Colour_Asymmetry_Pilot,2022.1.3,Win32,30.00840235,62bbe60bf3d75ef465d3e404,0,50,50,151,1,fourthree,,,,,,,,,,,,,,,,,,,,,,,,,,,,,,,,,,,,,,,,,,,,,,,,,,,,,,,,,,,,,,,,,,,,,,,,,,,,,,,,,,,,,,,,,,,,,,,,,,,,,,,,,,,,,,,,,,,,,,,,,,,,,,,,,,,,,,,,,,,,,,,,,,,,,,,,
,,,,,,611d1134bcc4eda812acf219,62bbf921c31ea8925dd3e40f,2022-06-29_09h03.17.778,Colour_Asymmetry_Pilot,2022.1.3,Win32,30.00840235,62bbe60bf3d75ef465d3e404,0,51,51,124,1,threeone,,,,,,,,,,,,,,,,,,,,,,,,,,,,,,,,,,,,,,,,,,,,,,,,,,,,,,,,,,,,,,,,,,,,,,,,,,,,,,,,,,,,,,,,,,,,,,,,,,,,,,,,,,,,,,,,,,,,,,,,,,,,,,,,,,,,,,,,,,,,,,,,,,,,,,,,
,,,,,,611d1134bcc4eda812acf219,62bbf921c31ea8925dd3e40f,2022-06-29_09h03.17.778,Colour_Asymmetry_Pilot,2022.1.3,Win32,30.00840235,62bbe60bf3d75ef465d3e404,0,52,52,102,1,fourtwo,,,,,,,,,,,,,,,,,,,,,,,,,,,,,,,,,,,,,,,,,,,,,,,,,,,,,,,,,,,,,,,,,,,,,,,,,,,,,,,,,,,,,,,,,,,,,,,,,,,,,,,,,,,,,,,,,,,,,,,,,,,,,,,,,,,,,,,,,,,,,,,,,,,,,,,,
,,,,,,611d1134bcc4eda812acf219,62bbf921c31ea8925dd3e40f,2022-06-29_09h03.17.778,Colour_Asymmetry_Pilot,2022.1.3,Win32,30.00840235,62bbe60bf3d75ef465d3e404,0,53,53,127,1,fourthree,,,,,,,,,,,,,,,,,,,,,,,,,,,,,,,,,,,,,,,,,,,,,,,,,,,,,,,,,,,,,,,,,,,,,,,,,,,,,,,,,,,,,,,,,,,,,,,,,,,,,,,,,,,,,,,,,,,,,,,,,,,,,,,,,,,,,,,,,,,,,,,,,,,,,,,,
,,,,,,611d1134bcc4eda812acf219,62bbf921c31ea8925dd3e40f,2022-06-29_09h03.17.778,Colour_Asymmetry_Pilot,2022.1.3,Win32,30.00840235,62bbe60bf3d75ef465d3e404,0,54,54,52,1,threeone,,,,,,,,,,,,,,,,,,,,,,,,,,,,,,,,,,,,,,,,,,,,,,,,,,,,,,,,,,,,,,,,,,,,,,,,,,,,,,,,,,,,,,,,,,,,,,,,,,,,,,,,,,,,,,,,,,,,,,,,,,,,,,,,,,,,,,,,,,,,,,,,,,,,,,,,
,,,,,,611d1134bcc4eda812acf219,62bbf921c31ea8925dd3e40f,2022-06-29_09h03.17.778,Colour_Asymmetry_Pilot,2022.1.3,Win32,30.00840235,62bbe60bf3d75ef465d3e404,0,55,55,118,1,fourtwo,,,,,,,,,,,,,,,,,,,,,,,,,,,,,,,,,,,,,,,,,,,,,,,,,,,,,,,,,,,,,,,,,,,,,,,,,,,,,,,,,,,,,,,,,,,,,,,,,,,,,,,,,,,,,,,,,,,,,,,,,,,,,,,,,,,,,,,,,,,,,,,,,,,,,,,,
,,,,,,611d1134bcc4eda812acf219,62bbf921c31ea8925dd3e40f,2022-06-29_09h03.17.778,Colour_Asymmetry_Pilot,2022.1.3,Win32,30.00840235,62bbe60bf3d75ef465d3e404,0,56,56,44,1,threeone,,,,,,,,,,,,,,,,,,,,,,,,,,,,,,,,,,,,,,,,,,,,,,,,,,,,,,,,,,,,,,,,,,,,,,,,,,,,,,,,,,,,,,,,,,,,,,,,,,,,,,,,,,,,,,,,,,,,,,,,,,,,,,,,,,,,,,,,,,,,,,,,,,,,,,,,
,,,,,,611d1134bcc4eda812acf219,62bbf921c31ea8925dd3e40f,2022-06-29_09h03.17.778,Colour_Asymmetry_Pilot,2022.1.3,Win32,30.00840235,62bbe60bf3d75ef465d3e404,0,57,57,4,1,threeone,,,,,,,,,,,,,,,,,,,,,,,,,,,,,,,,,,,,,,,,,,,,,,,,,,,,,,,,,,,,,,,,,,,,,,,,,,,,,,,,,,,,,,,,,,,,,,,,,,,,,,,,,,,,,,,,,,,,,,,,,,,,,,,,,,,,,,,,,,,,,,,,,,,,,,,,
,,,,,,611d1134bcc4eda812acf219,62bbf921c31ea8925dd3e40f,2022-06-29_09h03.17.778,Colour_Asymmetry_Pilot,2022.1.3,Win32,30.00840235,62bbe60bf3d75ef465d3e404,0,58,58,22,1,fourtwo,,,,,,,,,,,,,,,,,,,,,,,,,,,,,,,,,,,,,,,,,,,,,,,,,,,,,,,,,,,,,,,,,,,,,,,,,,,,,,,,,,,,,,,,,,,,,,,,,,,,,,,,,,,,,,,,,,,,,,,,,,,,,,,,,,,,,,,,,,,,,,,,,,,,,,,,
,,,,,,611d1134bcc4eda812acf219,62bbf921c31ea8925dd3e40f,2022-06-29_09h03.17.778,Colour_Asymmetry_Pilot,2022.1.3,Win32,30.00840235,62bbe60bf3d75ef465d3e404,0,59,59,71,1,fourthree,,,,,,,,,,,,,,,,,,,,,,,,,,,,,,,,,,,,,,,,,,,,,,,,,,,,,,,,,,,,,,,,,,,,,,,,,,,,,,,,,,,,,,,,,,,,,,,,,,,,,,,,,,,,,,,,,,,,,,,,,,,,,,,,,,,,,,,,,,,,,,,,,,,,,,,,
,,,,,,611d1134bcc4eda812acf219,62bbf921c31ea8925dd3e40f,2022-06-29_09h03.17.778,Colour_Asymmetry_Pilot,2022.1.3,Win32,30.00840235,62bbe60bf3d75ef465d3e404,0,60,60,132,1,threeone,,,,,,,,,,,,,,,,,,,,,,,,,,,,,,,,,,,,,,,,,,,,,,,,,,,,,,,,,,,,,,,,,,,,,,,,,,,,,,,,,,,,,,,,,,,,,,,,,,,,,,,,,,,,,,,,,,,,,,,,,,,,,,,,,,,,,,,,,,,,,,,,,,,,,,,,
,,,,,,611d1134bcc4eda812acf219,62bbf921c31ea8925dd3e40f,2022-06-29_09h03.17.778,Colour_Asymmetry_Pilot,2022.1.3,Win32,30.00840235,62bbe60bf3d75ef465d3e404,0,61,61,113,1,onethree,,,,,,,,,,,,,,,,,,,,,,,,,,,,,,,,,,,,,,,,,,,,,,,,,,,,,,,,,,,,,,,,,,,,,,,,,,,,,,,,,,,,,,,,,,,,,,,,,,,,,,,,,,,,,,,,,,,,,,,,,,,,,,,,,,,,,,,,,,,,,,,,,,,,,,,,
,,,,,,611d1134bcc4eda812acf219,62bbf921c31ea8925dd3e40f,2022-06-29_09h03.17.778,Colour_Asymmetry_Pilot,2022.1.3,Win32,30.00840235,62bbe60bf3d75ef465d3e404,0,62,62,81,1,onethree,,,,,,,,,,,,,,,,,,,,,,,,,,,,,,,,,,,,,,,,,,,,,,,,,,,,,,,,,,,,,,,,,,,,,,,,,,,,,,,,,,,,,,,,,,,,,,,,,,,,,,,,,,,,,,,,,,,,,,,,,,,,,,,,,,,,,,,,,,,,,,,,,,,,,,,,
,,,,,,611d1134bcc4eda812acf219,62bbf921c31ea8925dd3e40f,2022-06-29_09h03.17.778,Colour_Asymmetry_Pilot,2022.1.3,Win32,30.00840235,62bbe60bf3d75ef465d3e404,0,63,63,96,1,onetwo,,,,,,,,,,,,,,,,,,,,,,,,,,,,,,,,,,,,,,,,,,,,,,,,,,,,,,,,,,,,,,,,,,,,,,,,,,,,,,,,,,,,,,,,,,,,,,,,,,,,,,,,,,,,,,,,,,,,,,,,,,,,,,,,,,,,,,,,,,,,,,,,,,,,,,,,
,,,,,,611d1134bcc4eda812acf219,62bbf921c31ea8925dd3e40f,2022-06-29_09h03.17.778,Colour_Asymmetry_Pilot,2022.1.3,Win32,30.00840235,62bbe60bf3d75ef465d3e404,0,64,64,30,1,fourtwo,,,,,,,,,,,,,,,,,,,,,,,,,,,,,,,,,,,,,,,,,,,,,,,,,,,,,,,,,,,,,,,,,,,,,,,,,,,,,,,,,,,,,,,,,,,,,,,,,,,,,,,,,,,,,,,,,,,,,,,,,,,,,,,,,,,,,,,,,,,,,,,,,,,,,,,,
,,,,,,611d1134bcc4eda812acf219,62bbf921c31ea8925dd3e40f,2022-06-29_09h03.17.778,Colour_Asymmetry_Pilot,2022.1.3,Win32,30.00840235,62bbe60bf3d75ef465d3e404,0,65,65,153,1,onethree,,,,,,,,,,,,,,,,,,,,,,,,,,,,,,,,,,,,,,,,,,,,,,,,,,,,,,,,,,,,,,,,,,,,,,,,,,,,,,,,,,,,,,,,,,,,,,,,,,,,,,,,,,,,,,,,,,,,,,,,,,,,,,,,,,,,,,,,,,,,,,,,,,,,,,,,
,,,,,,611d1134bcc4eda812acf219,62bbf921c31ea8925dd3e40f,2022-06-29_09h03.17.778,Colour_Asymmetry_Pilot,2022.1.3,Win32,30.00840235,62bbe60bf3d75ef465d3e404,0,66,66,150,1,fourtwo,,,,,,,,,,,,,,,,,,,,,,,,,,,,,,,,,,,,,,,,,,,,,,,,,,,,,,,,,,,,,,,,,,,,,,,,,,,,,,,,,,,,,,,,,,,,,,,,,,,,,,,,,,,,,,,,,,,,,,,,,,,,,,,,,,,,,,,,,,,,,,,,,,,,,,,,
,,,,,,611d1134bcc4eda812acf219,62bbf921c31ea8925dd3e40f,2022-06-29_09h03.17.778,Colour_Asymmetry_Pilot,2022.1.3,Win32,30.00840235,62bbe60bf3d75ef465d3e404,0,67,67,116,1,threeone,,,,,,,,,,,,,,,,,,,,,,,,,,,,,,,,,,,,,,,,,,,,,,,,,,,,,,,,,,,,,,,,,,,,,,,,,,,,,,,,,,,,,,,,,,,,,,,,,,,,,,,,,,,,,,,,,,,,,,,,,,,,,,,,,,,,,,,,,,,,,,,,,,,,,,,,
,,,,,,611d1134bcc4eda812acf219,62bbf921c31ea8925dd3e40f,2022-06-29_09h03.17.778,Colour_Asymmetry_Pilot,2022.1.3,Win32,30.00840235,62bbe60bf3d75ef465d3e404,0,68,68,122,1,twoone,,,,,,,,,,,,,,,,,,,,,,,,,,,,,,,,,,,,,,,,,,,,,,,,,,,,,,,,,,,,,,,,,,,,,,,,,,,,,,,,,,,,,,,,,,,,,,,,,,,,,,,,,,,,,,,,,,,,,,,,,,,,,,,,,,,,,,,,,,,,,,,,,,,,,,,,
,,,,,,611d1134bcc4eda812acf219,62bbf921c31ea8925dd3e40f,2022-06-29_09h03.17.778,Colour_Asymmetry_Pilot,2022.1.3,Win32,30.00840235,62bbe60bf3d75ef465d3e404,0,69,69,64,1,onetwo,,,,,,,,,,,,,,,,,,,,,,,,,,,,,,,,,,,,,,,,,,,,,,,,,,,,,,,,,,,,,,,,,,,,,,,,,,,,,,,,,,,,,,,,,,,,,,,,,,,,,,,,,,,,,,,,,,,,,,,,,,,,,,,,,,,,,,,,,,,,,,,,,,,,,,,,
,,,,,,611d1134bcc4eda812acf219,62bbf921c31ea8925dd3e40f,2022-06-29_09h03.17.778,Colour_Asymmetry_Pilot,2022.1.3,Win32,30.00840235,62bbe60bf3d75ef465d3e404,0,70,70,158,1,fourtwo,,,,,,,,,,,,,,,,,,,,,,,,,,,,,,,,,,,,,,,,,,,,,,,,,,,,,,,,,,,,,,,,,,,,,,,,,,,,,,,,,,,,,,,,,,,,,,,,,,,,,,,,,,,,,,,,,,,,,,,,,,,,,,,,,,,,,,,,,,,,,,,,,,,,,,,,
,,,,,,611d1134bcc4eda812acf219,62bbf921c31ea8925dd3e40f,2022-06-29_09h03.17.778,Colour_Asymmetry_Pilot,2022.1.3,Win32,30.00840235,62bbe60bf3d75ef465d3e404,0,71,71,135,1,fourthree,,,,,,,,,,,,,,,,,,,,,,,,,,,,,,,,,,,,,,,,,,,,,,,,,,,,,,,,,,,,,,,,,,,,,,,,,,,,,,,,,,,,,,,,,,,,,,,,,,,,,,,,,,,,,,,,,,,,,,,,,,,,,,,,,,,,,,,,,,,,,,,,,,,,,,,,
,,,,,,611d1134bcc4eda812acf219,62bbf921c31ea8925dd3e40f,2022-06-29_09h03.17.778,Colour_Asymmetry_Pilot,2022.1.3,Win32,30.00840235,62bbe60bf3d75ef465d3e404,0,72,72,53,1,threefour,,,,,,,,,,,,,,,,,,,,,,,,,,,,,,,,,,,,,,,,,,,,,,,,,,,,,,,,,,,,,,,,,,,,,,,,,,,,,,,,,,,,,,,,,,,,,,,,,,,,,,,,,,,,,,,,,,,,,,,,,,,,,,,,,,,,,,,,,,,,,,,,,,,,,,,,
,,,,,,611d1134bcc4eda812acf219,62bbf921c31ea8925dd3e40f,2022-06-29_09h03.17.778,Colour_Asymmetry_Pilot,2022.1.3,Win32,30.00840235,62bbe60bf3d75ef465d3e404,0,73,73,3,1,twofour,,,,,,,,,,,,,,,,,,,,,,,,,,,,,,,,,,,,,,,,,,,,,,,,,,,,,,,,,,,,,,,,,,,,,,,,,,,,,,,,,,,,,,,,,,,,,,,,,,,,,,,,,,,,,,,,,,,,,,,,,,,,,,,,,,,,,,,,,,,,,,,,,,,,,,,,
,,,,,,611d1134bcc4eda812acf219,62bbf921c31ea8925dd3e40f,2022-06-29_09h03.17.778,Colour_Asymmetry_Pilot,2022.1.3,Win32,30.00840235,62bbe60bf3d75ef465d3e404,0,74,74,154,1,twoone,,,,,,,,,,,,,,,,,,,,,,,,,,,,,,,,,,,,,,,,,,,,,,,,,,,,,,,,,,,,,,,,,,,,,,,,,,,,,,,,,,,,,,,,,,,,,,,,,,,,,,,,,,,,,,,,,,,,,,,,,,,,,,,,,,,,,,,,,,,,,,,,,,,,,,,,
,,,,,,611d1134bcc4eda812acf219,62bbf921c31ea8925dd3e40f,2022-06-29_09h03.17.778,Colour_Asymmetry_Pilot,2022.1.3,Win32,30.00840235,62bbe60bf3d75ef465d3e404,0,75,75,159,1,fourthree,,,,,,,,,,,,,,,,,,,,,,,,,,,,,,,,,,,,,,,,,,,,,,,,,,,,,,,,,,,,,,,,,,,,,,,,,,,,,,,,,,,,,,,,,,,,,,,,,,,,,,,,,,,,,,,,,,,,,,,,,,,,,,,,,,,,,,,,,,,,,,,,,,,,,,,,
,,,,,,611d1134bcc4eda812acf219,62bbf921c31ea8925dd3e40f,2022-06-29_09h03.17.778,Colour_Asymmetry_Pilot,2022.1.3,Win32,30.00840235,62bbe60bf3d75ef465d3e404,0,76,76,49,1,onethree,,,,,,,,,,,,,,,,,,,,,,,,,,,,,,,,,,,,,,,,,,,,,,,,,,,,,,,,,,,,,,,,,,,,,,,,,,,,,,,,,,,,,,,,,,,,,,,,,,,,,,,,,,,,,,,,,,,,,,,,,,,,,,,,,,,,,,,,,,,,,,,,,,,,,,,,
,,,,,,611d1134bcc4eda812acf219,62bbf921c31ea8925dd3e40f,2022-06-29_09h03.17.778,Colour_Asymmetry_Pilot,2022.1.3,Win32,30.00840235,62bbe60bf3d75ef465d3e404,0,77,77,48,1,onetwo,,,,,,,,,,,,,,,,,,,,,,,,,,,,,,,,,,,,,,,,,,,,,,,,,,,,,,,,,,,,,,,,,,,,,,,,,,,,,,,,,,,,,,,,,,,,,,,,,,,,,,,,,,,,,,,,,,,,,,,,,,,,,,,,,,,,,,,,,,,,,,,,,,,,,,,,
,,,,,,611d1134bcc4eda812acf219,62bbf921c31ea8925dd3e40f,2022-06-29_09h03.17.778,Colour_Asymmetry_Pilot,2022.1.3,Win32,30.00840235,62bbe60bf3d75ef465d3e404,0,78,78,61,1,threefour,,,,,,,,,,,,,,,,,,,,,,,,,,,,,,,,,,,,,,,,,,,,,,,,,,,,,,,,,,,,,,,,,,,,,,,,,,,,,,,,,,,,,,,,,,,,,,,,,,,,,,,,,,,,,,,,,,,,,,,,,,,,,,,,,,,,,,,,,,,,,,,,,,,,,,,,
,,,,,,611d1134bcc4eda812acf219,62bbf921c31ea8925dd3e40f,2022-06-29_09h03.17.778,Colour_Asymmetry_Pilot,2022.1.3,Win32,30.00840235,62bbe60bf3d75ef465d3e404,0,79,79,129,1,onethree,,,,,,,,,,,,,,,,,,,,,,,,,,,,,,,,,,,,,,,,,,,,,,,,,,,,,,,,,,,,,,,,,,,,,,,,,,,,,,,,,,,,,,,,,,,,,,,,,,,,,,,,,,,,,,,,,,,,,,,,,,,,,,,,,,,,,,,,,,,,,,,,,,,,,,,,
,,,,,,611d1134bcc4eda812acf219,62bbf921c31ea8925dd3e40f,2022-06-29_09h03.17.778,Colour_Asymmetry_Pilot,2022.1.3,Win32,30.00840235,62bbe60bf3d75ef465d3e404,0,80,80,134,1,fourtwo,,,,,,,,,,,,,,,,,,,,,,,,,,,,,,,,,,,,,,,,,,,,,,,,,,,,,,,,,,,,,,,,,,,,,,,,,,,,,,,,,,,,,,,,,,,,,,,,,,,,,,,,,,,,,,,,,,,,,,,,,,,,,,,,,,,,,,,,,,,,,,,,,,,,,,,,
,,,,,,611d1134bcc4eda812acf219,62bbf921c31ea8925dd3e40f,2022-06-29_09h03.17.778,Colour_Asymmetry_Pilot,2022.1.3,Win32,30.00840235,62bbe60bf3d75ef465d3e404,0,81,81,10,1,twoone,,,,,,,,,,,,,,,,,,,,,,,,,,,,,,,,,,,,,,,,,,,,,,,,,,,,,,,,,,,,,,,,,,,,,,,,,,,,,,,,,,,,,,,,,,,,,,,,,,,,,,,,,,,,,,,,,,,,,,,,,,,,,,,,,,,,,,,,,,,,,,,,,,,,,,,,
,,,,,,611d1134bcc4eda812acf219,62bbf921c31ea8925dd3e40f,2022-06-29_09h03.17.778,Colour_Asymmetry_Pilot,2022.1.3,Win32,30.00840235,62bbe60bf3d75ef465d3e404,0,82,82,28,1,threeone,,,,,,,,,,,,,,,,,,,,,,,,,,,,,,,,,,,,,,,,,,,,,,,,,,,,,,,,,,,,,,,,,,,,,,,,,,,,,,,,,,,,,,,,,,,,,,,,,,,,,,,,,,,,,,,,,,,,,,,,,,,,,,,,,,,,,,,,,,,,,,,,,,,,,,,,
,,,,,,611d1134bcc4eda812acf219,62bbf921c31ea8925dd3e40f,2022-06-29_09h03.17.778,Colour_Asymmetry_Pilot,2022.1.3,Win32,30.00840235,62bbe60bf3d75ef465d3e404,0,83,83,45,1,threefour,,,,,,,,,,,,,,,,,,,,,,,,,,,,,,,,,,,,,,,,,,,,,,,,,,,,,,,,,,,,,,,,,,,,,,,,,,,,,,,,,,,,,,,,,,,,,,,,,,,,,,,,,,,,,,,,,,,,,,,,,,,,,,,,,,,,,,,,,,,,,,,,,,,,,,,,
,,,,,,611d1134bcc4eda812acf219,62bbf921c31ea8925dd3e40f,2022-06-29_09h03.17.778,Colour_Asymmetry_Pilot,2022.1.3,Win32,30.00840235,62bbe60bf3d75ef465d3e404,0,84,84,152,1,onetwo,,,,,,,,,,,,,,,,,,,,,,,,,,,,,,,,,,,,,,,,,,,,,,,,,,,,,,,,,,,,,,,,,,,,,,,,,,,,,,,,,,,,,,,,,,,,,,,,,,,,,,,,,,,,,,,,,,,,,,,,,,,,,,,,,,,,,,,,,,,,,,,,,,,,,,,,
,,,,,,611d1134bcc4eda812acf219,62bbf921c31ea8925dd3e40f,2022-06-29_09h03.17.778,Colour_Asymmetry_Pilot,2022.1.3,Win32,30.00840235,62bbe60bf3d75ef465d3e404,0,85,85,35,1,twofour,,,,,,,,,,,,,,,,,,,,,,,,,,,,,,,,,,,,,,,,,,,,,,,,,,,,,,,,,,,,,,,,,,,,,,,,,,,,,,,,,,,,,,,,,,,,,,,,,,,,,,,,,,,,,,,,,,,,,,,,,,,,,,,,,,,,,,,,,,,,,,,,,,,,,,,,
,,,,,,611d1134bcc4eda812acf219,62bbf921c31ea8925dd3e40f,2022-06-29_09h03.17.778,Colour_Asymmetry_Pilot,2022.1.3,Win32,30.00840235,62bbe60bf3d75ef465d3e404,0,86,86,110,1,fourtwo,,,,,,,,,,,,,,,,,,,,,,,,,,,,,,,,,,,,,,,,,,,,,,,,,,,,,,,,,,,,,,,,,,,,,,,,,,,,,,,,,,,,,,,,,,,,,,,,,,,,,,,,,,,,,,,,,,,,,,,,,,,,,,,,,,,,,,,,,,,,,,,,,,,,,,,,
,,,,,,611d1134bcc4eda812acf219,62bbf921c31ea8925dd3e40f,2022-06-29_09h03.17.778,Colour_Asymmetry_Pilot,2022.1.3,Win32,30.00840235,62bbe60bf3d75ef465d3e404,0,87,87,54,1,fourtwo,,,,,,,,,,,,,,,,,,,,,,,,,,,,,,,,,,,,,,,,,,,,,,,,,,,,,,,,,,,,,,,,,,,,,,,,,,,,,,,,,,,,,,,,,,,,,,,,,,,,,,,,,,,,,,,,,,,,,,,,,,,,,,,,,,,,,,,,,,,,,,,,,,,,,,,,
,,,,,,611d1134bcc4eda812acf219,62bbf921c31ea8925dd3e40f,2022-06-29_09h03.17.778,Colour_Asymmetry_Pilot,2022.1.3,Win32,30.00840235,62bbe60bf3d75ef465d3e404,0,88,88,16,1,onetwo,,,,,,,,,,,,,,,,,,,,,,,,,,,,,,,,,,,,,,,,,,,,,,,,,,,,,,,,,,,,,,,,,,,,,,,,,,,,,,,,,,,,,,,,,,,,,,,,,,,,,,,,,,,,,,,,,,,,,,,,,,,,,,,,,,,,,,,,,,,,,,,,,,,,,,,,
,,,,,,611d1134bcc4eda812acf219,62bbf921c31ea8925dd3e40f,2022-06-29_09h03.17.778,Colour_Asymmetry_Pilot,2022.1.3,Win32,30.00840235,62bbe60bf3d75ef465d3e404,0,89,89,59,1,twofour,,,,,,,,,,,,,,,,,,,,,,,,,,,,,,,,,,,,,,,,,,,,,,,,,,,,,,,,,,,,,,,,,,,,,,,,,,,,,,,,,,,,,,,,,,,,,,,,,,,,,,,,,,,,,,,,,,,,,,,,,,,,,,,,,,,,,,,,,,,,,,,,,,,,,,,,
,,,,,,611d1134bcc4eda812acf219,62bbf921c31ea8925dd3e40f,2022-06-29_09h03.17.778,Colour_Asymmetry_Pilot,2022.1.3,Win32,30.00840235,62bbe60bf3d75ef465d3e404,0,90,90,78,1,fourtwo,,,,,,,,,,,,,,,,,,,,,,,,,,,,,,,,,,,,,,,,,,,,,,,,,,,,,,,,,,,,,,,,,,,,,,,,,,,,,,,,,,,,,,,,,,,,,,,,,,,,,,,,,,,,,,,,,,,,,,,,,,,,,,,,,,,,,,,,,,,,,,,,,,,,,,,,
,,,,,,611d1134bcc4eda812acf219,62bbf921c31ea8925dd3e40f,2022-06-29_09h03.17.778,Colour_Asymmetry_Pilot,2022.1.3,Win32,30.00840235,62bbe60bf3d75ef465d3e404,0,91,91,26,1,twoone,,,,,,,,,,,,,,,,,,,,,,,,,,,,,,,,,,,,,,,,,,,,,,,,,,,,,,,,,,,,,,,,,,,,,,,,,,,,,,,,,,,,,,,,,,,,,,,,,,,,,,,,,,,,,,,,,,,,,,,,,,,,,,,,,,,,,,,,,,,,,,,,,,,,,,,,
,,,,,,611d1134bcc4eda812acf219,62bbf921c31ea8925dd3e40f,2022-06-29_09h03.17.778,Colour_Asymmetry_Pilot,2022.1.3,Win32,30.00840235,62bbe60bf3d75ef465d3e404,0,92,92,98,1,twoone,,,,,,,,,,,,,,,,,,,,,,,,,,,,,,,,,,,,,,,,,,,,,,,,,,,,,,,,,,,,,,,,,,,,,,,,,,,,,,,,,,,,,,,,,,,,,,,,,,,,,,,,,,,,,,,,,,,,,,,,,,,,,,,,,,,,,,,,,,,,,,,,,,,,,,,,
,,,,,,611d1134bcc4eda812acf219,62bbf921c31ea8925dd3e40f,2022-06-29_09h03.17.778,Colour_Asymmetry_Pilot,2022.1.3,Win32,30.00840235,62bbe60bf3d75ef465d3e404,0,93,93,17,1,onethree,,,,,,,,,,,,,,,,,,,,,,,,,,,,,,,,,,,,,,,,,,,,,,,,,,,,,,,,,,,,,,,,,,,,,,,,,,,,,,,,,,,,,,,,,,,,,,,,,,,,,,,,,,,,,,,,,,,,,,,,,,,,,,,,,,,,,,,,,,,,,,,,,,,,,,,,
,,,,,,611d1134bcc4eda812acf219,62bbf921c31ea8925dd3e40f,2022-06-29_09h03.17.778,Colour_Asymmetry_Pilot,2022.1.3,Win32,30.00840235,62bbe60bf3d75ef465d3e404,0,94,94,97,1,onethree,,,,,,,,,,,,,,,,,,,,,,,,,,,,,,,,,,,,,,,,,,,,,,,,,,,,,,,,,,,,,,,,,,,,,,,,,,,,,,,,,,,,,,,,,,,,,,,,,,,,,,,,,,,,,,,,,,,,,,,,,,,,,,,,,,,,,,,,,,,,,,,,,,,,,,,,
,,,,,,611d1134bcc4eda812acf219,62bbf921c31ea8925dd3e40f,2022-06-29_09h03.17.778,Colour_Asymmetry_Pilot,2022.1.3,Win32,30.00840235,62bbe60bf3d75ef465d3e404,0,95,95,23,1,fourthree,,,,,,,,,,,,,,,,,,,,,,,,,,,,,,,,,,,,,,,,,,,,,,,,,,,,,,,,,,,,,,,,,,,,,,,,,,,,,,,,,,,,,,,,,,,,,,,,,,,,,,,,,,,,,,,,,,,,,,,,,,,,,,,,,,,,,,,,,,,,,,,,,,,,,,,,
,,,,,,611d1134bcc4eda812acf219,62bbf921c31ea8925dd3e40f,2022-06-29_09h03.17.778,Colour_Asymmetry_Pilot,2022.1.3,Win32,30.00840235,62bbe60bf3d75ef465d3e404,0,96,96,80,1,onetwo,,,,,,,,,,,,,,,,,,,,,,,,,,,,,,,,,,,,,,,,,,,,,,,,,,,,,,,,,,,,,,,,,,,,,,,,,,,,,,,,,,,,,,,,,,,,,,,,,,,,,,,,,,,,,,,,,,,,,,,,,,,,,,,,,,,,,,,,,,,,,,,,,,,,,,,,
,,,,,,611d1134bcc4eda812acf219,62bbf921c31ea8925dd3e40f,2022-06-29_09h03.17.778,Colour_Asymmetry_Pilot,2022.1.3,Win32,30.00840235,62bbe60bf3d75ef465d3e404,0,97,97,34,1,twoone,,,,,,,,,,,,,,,,,,,,,,,,,,,,,,,,,,,,,,,,,,,,,,,,,,,,,,,,,,,,,,,,,,,,,,,,,,,,,,,,,,,,,,,,,,,,,,,,,,,,,,,,,,,,,,,,,,,,,,,,,,,,,,,,,,,,,,,,,,,,,,,,,,,,,,,,
,,,,,,611d1134bcc4eda812acf219,62bbf921c31ea8925dd3e40f,2022-06-29_09h03.17.778,Colour_Asymmetry_Pilot,2022.1.3,Win32,30.00840235,62bbe60bf3d75ef465d3e404,0,98,98,76,1,threeone,,,,,,,,,,,,,,,,,,,,,,,,,,,,,,,,,,,,,,,,,,,,,,,,,,,,,,,,,,,,,,,,,,,,,,,,,,,,,,,,,,,,,,,,,,,,,,,,,,,,,,,,,,,,,,,,,,,,,,,,,,,,,,,,,,,,,,,,,,,,,,,,,,,,,,,,
,,,,,,611d1134bcc4eda812acf219,62bbf921c31ea8925dd3e40f,2022-06-29_09h03.17.778,Colour_Asymmetry_Pilot,2022.1.3,Win32,30.00840235,62bbe60bf3d75ef465d3e404,0,99,99,47,1,fourthree,,,,,,,,,,,,,,,,,,,,,,,,,,,,,,,,,,,,,,,,,,,,,,,,,,,,,,,,,,,,,,,,,,,,,,,,,,,,,,,,,,,,,,,,,,,,,,,,,,,,,,,,,,,,,,,,,,,,,,,,,,,,,,,,,,,,,,,,,,,,,,,,,,,,,,,,
,,,,,,611d1134bcc4eda812acf219,62bbf921c31ea8925dd3e40f,2022-06-29_09h03.17.778,Colour_Asymmetry_Pilot,2022.1.3,Win32,30.00840235,62bbe60bf3d75ef465d3e404,0,100,100,56,1,onetwo,,,,,,,,,,,,,,,,,,,,,,,,,,,,,,,,,,,,,,,,,,,,,,,,,,,,,,,,,,,,,,,,,,,,,,,,,,,,,,,,,,,,,,,,,,,,,,,,,,,,,,,,,,,,,,,,,,,,,,,,,,,,,,,,,,,,,,,,,,,,,,,,,,,,,,,,
,,,,,,611d1134bcc4eda812acf219,62bbf921c31ea8925dd3e40f,2022-06-29_09h03.17.778,Colour_Asymmetry_Pilot,2022.1.3,Win32,30.00840235,62bbe60bf3d75ef465d3e404,0,101,101,105,1,onethree,,,,,,,,,,,,,,,,,,,,,,,,,,,,,,,,,,,,,,,,,,,,,,,,,,,,,,,,,,,,,,,,,,,,,,,,,,,,,,,,,,,,,,,,,,,,,,,,,,,,,,,,,,,,,,,,,,,,,,,,,,,,,,,,,,,,,,,,,,,,,,,,,,,,,,,,
,,,,,,611d1134bcc4eda812acf219,62bbf921c31ea8925dd3e40f,2022-06-29_09h03.17.778,Colour_Asymmetry_Pilot,2022.1.3,Win32,30.00840235,62bbe60bf3d75ef465d3e404,0,102,102,94,1,fourtwo,,,,,,,,,,,,,,,,,,,,,,,,,,,,,,,,,,,,,,,,,,,,,,,,,,,,,,,,,,,,,,,,,,,,,,,,,,,,,,,,,,,,,,,,,,,,,,,,,,,,,,,,,,,,,,,,,,,,,,,,,,,,,,,,,,,,,,,,,,,,,,,,,,,,,,,,
,,,,,,611d1134bcc4eda812acf219,62bbf921c31ea8925dd3e40f,2022-06-29_09h03.17.778,Colour_Asymmetry_Pilot,2022.1.3,Win32,30.00840235,62bbe60bf3d75ef465d3e404,0,103,103,2,1,twoone,,,,,,,,,,,,,,,,,,,,,,,,,,,,,,,,,,,,,,,,,,,,,,,,,,,,,,,,,,,,,,,,,,,,,,,,,,,,,,,,,,,,,,,,,,,,,,,,,,,,,,,,,,,,,,,,,,,,,,,,,,,,,,,,,,,,,,,,,,,,,,,,,,,,,,,,
,,,,,,611d1134bcc4eda812acf219,62bbf921c31ea8925dd3e40f,2022-06-29_09h03.17.778,Colour_Asymmetry_Pilot,2022.1.3,Win32,30.00840235,62bbe60bf3d75ef465d3e404,0,104,104,67,1,twofour,,,,,,,,,,,,,,,,,,,,,,,,,,,,,,,,,,,,,,,,,,,,,,,,,,,,,,,,,,,,,,,,,,,,,,,,,,,,,,,,,,,,,,,,,,,,,,,,,,,,,,,,,,,,,,,,,,,,,,,,,,,,,,,,,,,,,,,,,,,,,,,,,,,,,,,,
,,,,,,611d1134bcc4eda812acf219,62bbf921c31ea8925dd3e40f,2022-06-29_09h03.17.778,Colour_Asymmetry_Pilot,2022.1.3,Win32,30.00840235,62bbe60bf3d75ef465d3e404,0,105,105,55,1,fourthree,,,,,,,,,,,,,,,,,,,,,,,,,,,,,,,,,,,,,,,,,,,,,,,,,,,,,,,,,,,,,,,,,,,,,,,,,,,,,,,,,,,,,,,,,,,,,,,,,,,,,,,,,,,,,,,,,,,,,,,,,,,,,,,,,,,,,,,,,,,,,,,,,,,,,,,,
,,,,,,611d1134bcc4eda812acf219,62bbf921c31ea8925dd3e40f,2022-06-29_09h03.17.778,Colour_Asymmetry_Pilot,2022.1.3,Win32,30.00840235,62bbe60bf3d75ef465d3e404,0,106,106,90,1,twoone,,,,,,,,,,,,,,,,,,,,,,,,,,,,,,,,,,,,,,,,,,,,,,,,,,,,,,,,,,,,,,,,,,,,,,,,,,,,,,,,,,,,,,,,,,,,,,,,,,,,,,,,,,,,,,,,,,,,,,,,,,,,,,,,,,,,,,,,,,,,,,,,,,,,,,,,
,,,,,,611d1134bcc4eda812acf219,62bbf921c31ea8925dd3e40f,2022-06-29_09h03.17.778,Colour_Asymmetry_Pilot,2022.1.3,Win32,30.00840235,62bbe60bf3d75ef465d3e404,0,107,107,62,1,fourtwo,,,,,,,,,,,,,,,,,,,,,,,,,,,,,,,,,,,,,,,,,,,,,,,,,,,,,,,,,,,,,,,,,,,,,,,,,,,,,,,,,,,,,,,,,,,,,,,,,,,,,,,,,,,,,,,,,,,,,,,,,,,,,,,,,,,,,,,,,,,,,,,,,,,,,,,,
,,,,,,611d1134bcc4eda812acf219,62bbf921c31ea8925dd3e40f,2022-06-29_09h03.17.778,Colour_Asymmetry_Pilot,2022.1.3,Win32,30.00840235,62bbe60bf3d75ef465d3e404,0,108,108,130,1,twoone,,,,,,,,,,,,,,,,,,,,,,,,,,,,,,,,,,,,,,,,,,,,,,,,,,,,,,,,,,,,,,,,,,,,,,,,,,,,,,,,,,,,,,,,,,,,,,,,,,,,,,,,,,,,,,,,,,,,,,,,,,,,,,,,,,,,,,,,,,,,,,,,,,,,,,,,
,,,,,,611d1134bcc4eda812acf219,62bbf921c31ea8925dd3e40f,2022-06-29_09h03.17.778,Colour_Asymmetry_Pilot,2022.1.3,Win32,30.00840235,62bbe60bf3d75ef465d3e404,0,109,109,5,1,threefour,,,,,,,,,,,,,,,,,,,,,,,,,,,,,,,,,,,,,,,,,,,,,,,,,,,,,,,,,,,,,,,,,,,,,,,,,,,,,,,,,,,,,,,,,,,,,,,,,,,,,,,,,,,,,,,,,,,,,,,,,,,,,,,,,,,,,,,,,,,,,,,,,,,,,,,,
,,,,,,611d1134bcc4eda812acf219,62bbf921c31ea8925dd3e40f,2022-06-29_09h03.17.778,Colour_Asymmetry_Pilot,2022.1.3,Win32,30.00840235,62bbe60bf3d75ef465d3e404,0,110,110,19,1,twofour,,,,,,,,,,,,,,,,,,,,,,,,,,,,,,,,,,,,,,,,,,,,,,,,,,,,,,,,,,,,,,,,,,,,,,,,,,,,,,,,,,,,,,,,,,,,,,,,,,,,,,,,,,,,,,,,,,,,,,,,,,,,,,,,,,,,,,,,,,,,,,,,,,,,,,,,
,,,,,,611d1134bcc4eda812acf219,62bbf921c31ea8925dd3e40f,2022-06-29_09h03.17.778,Colour_Asymmetry_Pilot,2022.1.3,Win32,30.00840235,62bbe60bf3d75ef465d3e404,0,111,111,140,1,threeone,,,,,,,,,,,,,,,,,,,,,,,,,,,,,,,,,,,,,,,,,,,,,,,,,,,,,,,,,,,,,,,,,,,,,,,,,,,,,,,,,,,,,,,,,,,,,,,,,,,,,,,,,,,,,,,,,,,,,,,,,,,,,,,,,,,,,,,,,,,,,,,,,,,,,,,,
,,,,,,611d1134bcc4eda812acf219,62bbf921c31ea8925dd3e40f,2022-06-29_09h03.17.778,Colour_Asymmetry_Pilot,2022.1.3,Win32,30.00840235,62bbe60bf3d75ef465d3e404,0,112,112,91,1,twofour,,,,,,,,,,,,,,,,,,,,,,,,,,,,,,,,,,,,,,,,,,,,,,,,,,,,,,,,,,,,,,,,,,,,,,,,,,,,,,,,,,,,,,,,,,,,,,,,,,,,,,,,,,,,,,,,,,,,,,,,,,,,,,,,,,,,,,,,,,,,,,,,,,,,,,,,
,,,,,,611d1134bcc4eda812acf219,62bbf921c31ea8925dd3e40f,2022-06-29_09h03.17.778,Colour_Asymmetry_Pilot,2022.1.3,Win32,30.00840235,62bbe60bf3d75ef465d3e404,0,113,113,101,1,threefour,,,,,,,,,,,,,,,,,,,,,,,,,,,,,,,,,,,,,,,,,,,,,,,,,,,,,,,,,,,,,,,,,,,,,,,,,,,,,,,,,,,,,,,,,,,,,,,,,,,,,,,,,,,,,,,,,,,,,,,,,,,,,,,,,,,,,,,,,,,,,,,,,,,,,,,,
,,,,,,611d1134bcc4eda812acf219,62bbf921c31ea8925dd3e40f,2022-06-29_09h03.17.778,Colour_Asymmetry_Pilot,2022.1.3,Win32,30.00840235,62bbe60bf3d75ef465d3e404,0,114,114,51,1,twofour,,,,,,,,,,,,,,,,,,,,,,,,,,,,,,,,,,,,,,,,,,,,,,,,,,,,,,,,,,,,,,,,,,,,,,,,,,,,,,,,,,,,,,,,,,,,,,,,,,,,,,,,,,,,,,,,,,,,,,,,,,,,,,,,,,,,,,,,,,,,,,,,,,,,,,,,
,,,,,,611d1134bcc4eda812acf219,62bbf921c31ea8925dd3e40f,2022-06-29_09h03.17.778,Colour_Asymmetry_Pilot,2022.1.3,Win32,30.00840235,62bbe60bf3d75ef465d3e404,0,115,115,1,1,onethree,,,,,,,,,,,,,,,,,,,,,,,,,,,,,,,,,,,,,,,,,,,,,,,,,,,,,,,,,,,,,,,,,,,,,,,,,,,,,,,,,,,,,,,,,,,,,,,,,,,,,,,,,,,,,,,,,,,,,,,,,,,,,,,,,,,,,,,,,,,,,,,,,,,,,,,,
,,,,,,611d1134bcc4eda812acf219,62bbf921c31ea8925dd3e40f,2022-06-29_09h03.17.778,Colour_Asymmetry_Pilot,2022.1.3,Win32,30.00840235,62bbe60bf3d75ef465d3e404,0,116,116,125,1,threefour,,,,,,,,,,,,,,,,,,,,,,,,,,,,,,,,,,,,,,,,,,,,,,,,,,,,,,,,,,,,,,,,,,,,,,,,,,,,,,,,,,,,,,,,,,,,,,,,,,,,,,,,,,,,,,,,,,,,,,,,,,,,,,,,,,,,,,,,,,,,,,,,,,,,,,,,
,,,,,,611d1134bcc4eda812acf219,62bbf921c31ea8925dd3e40f,2022-06-29_09h03.17.778,Colour_Asymmetry_Pilot,2022.1.3,Win32,30.00840235,62bbe60bf3d75ef465d3e404,0,117,117,8,1,onetwo,,,,,,,,,,,,,,,,,,,,,,,,,,,,,,,,,,,,,,,,,,,,,,,,,,,,,,,,,,,,,,,,,,,,,,,,,,,,,,,,,,,,,,,,,,,,,,,,,,,,,,,,,,,,,,,,,,,,,,,,,,,,,,,,,,,,,,,,,,,,,,,,,,,,,,,,
,,,,,,611d1134bcc4eda812acf219,62bbf921c31ea8925dd3e40f,2022-06-29_09h03.17.778,Colour_Asymmetry_Pilot,2022.1.3,Win32,30.00840235,62bbe60bf3d75ef465d3e404,0,118,118,33,1,onethree,,,,,,,,,,,,,,,,,,,,,,,,,,,,,,,,,,,,,,,,,,,,,,,,,,,,,,,,,,,,,,,,,,,,,,,,,,,,,,,,,,,,,,,,,,,,,,,,,,,,,,,,,,,,,,,,,,,,,,,,,,,,,,,,,,,,,,,,,,,,,,,,,,,,,,,,
,,,,,,611d1134bcc4eda812acf219,62bbf921c31ea8925dd3e40f,2022-06-29_09h03.17.778,Colour_Asymmetry_Pilot,2022.1.3,Win32,30.00840235,62bbe60bf3d75ef465d3e404,0,119,119,72,1,onetwo,,,,,,,,,,,,,,,,,,,,,,,,,,,,,,,,,,,,,,,,,,,,,,,,,,,,,,,,,,,,,,,,,,,,,,,,,,,,,,,,,,,,,,,,,,,,,,,,,,,,,,,,,,,,,,,,,,,,,,,,,,,,,,,,,,,,,,,,,,,,,,,,,,,,,,,,
,,,,,,611d1134bcc4eda812acf219,62bbf921c31ea8925dd3e40f,2022-06-29_09h03.17.778,Colour_Asymmetry_Pilot,2022.1.3,Win32,30.00840235,62bbe60bf3d75ef465d3e404,0,120,120,39,1,fourthree,,,,,,,,,,,,,,,,,,,,,,,,,,,,,,,,,,,,,,,,,,,,,,,,,,,,,,,,,,,,,,,,,,,,,,,,,,,,,,,,,,,,,,,,,,,,,,,,,,,,,,,,,,,,,,,,,,,,,,,,,,,,,,,,,,,,,,,,,,,,,,,,,,,,,,,,
,,,,,,611d1134bcc4eda812acf219,62bbf921c31ea8925dd3e40f,2022-06-29_09h03.17.778,Colour_Asymmetry_Pilot,2022.1.3,Win32,30.00840235,62bbe60bf3d75ef465d3e404,0,121,121,27,1,twofour,,,,,,,,,,,,,,,,,,,,,,,,,,,,,,,,,,,,,,,,,,,,,,,,,,,,,,,,,,,,,,,,,,,,,,,,,,,,,,,,,,,,,,,,,,,,,,,,,,,,,,,,,,,,,,,,,,,,,,,,,,,,,,,,,,,,,,,,,,,,,,,,,,,,,,,,
,,,,,,611d1134bcc4eda812acf219,62bbf921c31ea8925dd3e40f,2022-06-29_09h03.17.778,Colour_Asymmetry_Pilot,2022.1.3,Win32,30.00840235,62bbe60bf3d75ef465d3e404,0,122,122,89,1,onethree,,,,,,,,,,,,,,,,,,,,,,,,,,,,,,,,,,,,,,,,,,,,,,,,,,,,,,,,,,,,,,,,,,,,,,,,,,,,,,,,,,,,,,,,,,,,,,,,,,,,,,,,,,,,,,,,,,,,,,,,,,,,,,,,,,,,,,,,,,,,,,,,,,,,,,,,
,,,,,,611d1134bcc4eda812acf219,62bbf921c31ea8925dd3e40f,2022-06-29_09h03.17.778,Colour_Asymmetry_Pilot,2022.1.3,Win32,30.00840235,62bbe60bf3d75ef465d3e404,0,123,123,73,1,onethree,,,,,,,,,,,,,,,,,,,,,,,,,,,,,,,,,,,,,,,,,,,,,,,,,,,,,,,,,,,,,,,,,,,,,,,,,,,,,,,,,,,,,,,,,,,,,,,,,,,,,,,,,,,,,,,,,,,,,,,,,,,,,,,,,,,,,,,,,,,,,,,,,,,,,,,,
,,,,,,611d1134bcc4eda812acf219,62bbf921c31ea8925dd3e40f,2022-06-29_09h03.17.778,Colour_Asymmetry_Pilot,2022.1.3,Win32,30.00840235,62bbe60bf3d75ef465d3e404,0,124,124,148,1,threeone,,,,,,,,,,,,,,,,,,,,,,,,,,,,,,,,,,,,,,,,,,,,,,,,,,,,,,,,,,,,,,,,,,,,,,,,,,,,,,,,,,,,,,,,,,,,,,,,,,,,,,,,,,,,,,,,,,,,,,,,,,,,,,,,,,,,,,,,,,,,,,,,,,,,,,,,
,,,,,,611d1134bcc4eda812acf219,62bbf921c31ea8925dd3e40f,2022-06-29_09h03.17.778,Colour_Asymmetry_Pilot,2022.1.3,Win32,30.00840235,62bbe60bf3d75ef465d3e404,0,125,125,160,1,onetwo,,,,,,,,,,,,,,,,,,,,,,,,,,,,,,,,,,,,,,,,,,,,,,,,,,,,,,,,,,,,,,,,,,,,,,,,,,,,,,,,,,,,,,,,,,,,,,,,,,,,,,,,,,,,,,,,,,,,,,,,,,,,,,,,,,,,,,,,,,,,,,,,,,,,,,,,
,,,,,,611d1134bcc4eda812acf219,62bbf921c31ea8925dd3e40f,2022-06-29_09h03.17.778,Colour_Asymmetry_Pilot,2022.1.3,Win32,30.00840235,62bbe60bf3d75ef465d3e404,0,126,126,137,1,onethree,,,,,,,,,,,,,,,,,,,,,,,,,,,,,,,,,,,,,,,,,,,,,,,,,,,,,,,,,,,,,,,,,,,,,,,,,,,,,,,,,,,,,,,,,,,,,,,,,,,,,,,,,,,,,,,,,,,,,,,,,,,,,,,,,,,,,,,,,,,,,,,,,,,,,,,,
,,,,,,611d1134bcc4eda812acf219,62bbf921c31ea8925dd3e40f,2022-06-29_09h03.17.778,Colour_Asymmetry_Pilot,2022.1.3,Win32,30.00840235,62bbe60bf3d75ef465d3e404,0,127,127,95,1,fourthree,,,,,,,,,,,,,,,,,,,,,,,,,,,,,,,,,,,,,,,,,,,,,,,,,,,,,,,,,,,,,,,,,,,,,,,,,,,,,,,,,,,,,,,,,,,,,,,,,,,,,,,,,,,,,,,,,,,,,,,,,,,,,,,,,,,,,,,,,,,,,,,,,,,,,,,,
,,,,,,611d1134bcc4eda812acf219,62bbf921c31ea8925dd3e40f,2022-06-29_09h03.17.778,Colour_Asymmetry_Pilot,2022.1.3,Win32,30.00840235,62bbe60bf3d75ef465d3e404,0,128,128,87,1,fourthree,,,,,,,,,,,,,,,,,,,,,,,,,,,,,,,,,,,,,,,,,,,,,,,,,,,,,,,,,,,,,,,,,,,,,,,,,,,,,,,,,,,,,,,,,,,,,,,,,,,,,,,,,,,,,,,,,,,,,,,,,,,,,,,,,,,,,,,,,,,,,,,,,,,,,,,,
,,,,,,611d1134bcc4eda812acf219,62bbf921c31ea8925dd3e40f,2022-06-29_09h03.17.778,Colour_Asymmetry_Pilot,2022.1.3,Win32,30.00840235,62bbe60bf3d75ef465d3e404,0,129,129,107,1,twofour,,,,,,,,,,,,,,,,,,,,,,,,,,,,,,,,,,,,,,,,,,,,,,,,,,,,,,,,,,,,,,,,,,,,,,,,,,,,,,,,,,,,,,,,,,,,,,,,,,,,,,,,,,,,,,,,,,,,,,,,,,,,,,,,,,,,,,,,,,,,,,,,,,,,,,,,
,,,,,,611d1134bcc4eda812acf219,62bbf921c31ea8925dd3e40f,2022-06-29_09h03.17.778,Colour_Asymmetry_Pilot,2022.1.3,Win32,30.00840235,62bbe60bf3d75ef465d3e404,0,130,130,68,1,threeone,,,,,,,,,,,,,,,,,,,,,,,,,,,,,,,,,,,,,,,,,,,,,,,,,,,,,,,,,,,,,,,,,,,,,,,,,,,,,,,,,,,,,,,,,,,,,,,,,,,,,,,,,,,,,,,,,,,,,,,,,,,,,,,,,,,,,,,,,,,,,,,,,,,,,,,,
,,,,,,611d1134bcc4eda812acf219,62bbf921c31ea8925dd3e40f,2022-06-29_09h03.17.778,Colour_Asymmetry_Pilot,2022.1.3,Win32,30.00840235,62bbe60bf3d75ef465d3e404,0,131,131,11,1,twofour,,,,,,,,,,,,,,,,,,,,,,,,,,,,,,,,,,,,,,,,,,,,,,,,,,,,,,,,,,,,,,,,,,,,,,,,,,,,,,,,,,,,,,,,,,,,,,,,,,,,,,,,,,,,,,,,,,,,,,,,,,,,,,,,,,,,,,,,,,,,,,,,,,,,,,,,
,,,,,,611d1134bcc4eda812acf219,62bbf921c31ea8925dd3e40f,2022-06-29_09h03.17.778,Colour_Asymmetry_Pilot,2022.1.3,Win32,30.00840235,62bbe60bf3d75ef465d3e404,0,132,132,70,1,fourtwo,,,,,,,,,,,,,,,,,,,,,,,,,,,,,,,,,,,,,,,,,,,,,,,,,,,,,,,,,,,,,,,,,,,,,,,,,,,,,,,,,,,,,,,,,,,,,,,,,,,,,,,,,,,,,,,,,,,,,,,,,,,,,,,,,,,,,,,,,,,,,,,,,,,,,,,,
,,,,,,611d1134bcc4eda812acf219,62bbf921c31ea8925dd3e40f,2022-06-29_09h03.17.778,Colour_Asymmetry_Pilot,2022.1.3,Win32,30.00840235,62bbe60bf3d75ef465d3e404,0,133,133,86,1,fourtwo,,,,,,,,,,,,,,,,,,,,,,,,,,,,,,,,,,,,,,,,,,,,,,,,,,,,,,,,,,,,,,,,,,,,,,,,,,,,,,,,,,,,,,,,,,,,,,,,,,,,,,,,,,,,,,,,,,,,,,,,,,,,,,,,,,,,,,,,,,,,,,,,,,,,,,,,
,,,,,,611d1134bcc4eda812acf219,62bbf921c31ea8925dd3e40f,2022-06-29_09h03.17.778,Colour_Asymmetry_Pilot,2022.1.3,Win32,30.00840235,62bbe60bf3d75ef465d3e404,0,134,134,138,1,twoone,,,,,,,,,,,,,,,,,,,,,,,,,,,,,,,,,,,,,,,,,,,,,,,,,,,,,,,,,,,,,,,,,,,,,,,,,,,,,,,,,,,,,,,,,,,,,,,,,,,,,,,,,,,,,,,,,,,,,,,,,,,,,,,,,,,,,,,,,,,,,,,,,,,,,,,,
,,,,,,611d1134bcc4eda812acf219,62bbf921c31ea8925dd3e40f,2022-06-29_09h03.17.778,Colour_Asymmetry_Pilot,2022.1.3,Win32,30.00840235,62bbe60bf3d75ef465d3e404,0,135,135,36,1,threeone,,,,,,,,,,,,,,,,,,,,,,,,,,,,,,,,,,,,,,,,,,,,,,,,,,,,,,,,,,,,,,,,,,,,,,,,,,,,,,,,,,,,,,,,,,,,,,,,,,,,,,,,,,,,,,,,,,,,,,,,,,,,,,,,,,,,,,,,,,,,,,,,,,,,,,,,
,,,,,,611d1134bcc4eda812acf219,62bbf921c31ea8925dd3e40f,2022-06-29_09h03.17.778,Colour_Asymmetry_Pilot,2022.1.3,Win32,30.00840235,62bbe60bf3d75ef465d3e404,0,136,136,104,1,onetwo,,,,,,,,,,,,,,,,,,,,,,,,,,,,,,,,,,,,,,,,,,,,,,,,,,,,,,,,,,,,,,,,,,,,,,,,,,,,,,,,,,,,,,,,,,,,,,,,,,,,,,,,,,,,,,,,,,,,,,,,,,,,,,,,,,,,,,,,,,,,,,,,,,,,,,,,
,,,,,,611d1134bcc4eda812acf219,62bbf921c31ea8925dd3e40f,2022-06-29_09h03.17.778,Colour_Asymmetry_Pilot,2022.1.3,Win32,30.00840235,62bbe60bf3d75ef465d3e404,0,137,137,142,1,fourtwo,,,,,,,,,,,,,,,,,,,,,,,,,,,,,,,,,,,,,,,,,,,,,,,,,,,,,,,,,,,,,,,,,,,,,,,,,,,,,,,,,,,,,,,,,,,,,,,,,,,,,,,,,,,,,,,,,,,,,,,,,,,,,,,,,,,,,,,,,,,,,,,,,,,,,,,,
,,,,,,611d1134bcc4eda812acf219,62bbf921c31ea8925dd3e40f,2022-06-29_09h03.17.778,Colour_Asymmetry_Pilot,2022.1.3,Win32,30.00840235,62bbe60bf3d75ef465d3e404,0,138,138,66,1,twoone,,,,,,,,,,,,,,,,,,,,,,,,,,,,,,,,,,,,,,,,,,,,,,,,,,,,,,,,,,,,,,,,,,,,,,,,,,,,,,,,,,,,,,,,,,,,,,,,,,,,,,,,,,,,,,,,,,,,,,,,,,,,,,,,,,,,,,,,,,,,,,,,,,,,,,,,
,,,,,,611d1134bcc4eda812acf219,62bbf921c31ea8925dd3e40f,2022-06-29_09h03.17.778,Colour_Asymmetry_Pilot,2022.1.3,Win32,30.00840235,62bbe60bf3d75ef465d3e404,0,139,139,119,1,fourthree,,,,,,,,,,,,,,,,,,,,,,,,,,,,,,,,,,,,,,,,,,,,,,,,,,,,,,,,,,,,,,,,,,,,,,,,,,,,,,,,,,,,,,,,,,,,,,,,,,,,,,,,,,,,,,,,,,,,,,,,,,,,,,,,,,,,,,,,,,,,,,,,,,,,,,,,
,,,,,,611d1134bcc4eda812acf219,62bbf921c31ea8925dd3e40f,2022-06-29_09h03.17.778,Colour_Asymmetry_Pilot,2022.1.3,Win32,30.00840235,62bbe60bf3d75ef465d3e404,0,140,140,85,1,threefour,,,,,,,,,,,,,,,,,,,,,,,,,,,,,,,,,,,,,,,,,,,,,,,,,,,,,,,,,,,,,,,,,,,,,,,,,,,,,,,,,,,,,,,,,,,,,,,,,,,,,,,,,,,,,,,,,,,,,,,,,,,,,,,,,,,,,,,,,,,,,,,,,,,,,,,,
,,,,,,611d1134bcc4eda812acf219,62bbf921c31ea8925dd3e40f,2022-06-29_09h03.17.778,Colour_Asymmetry_Pilot,2022.1.3,Win32,30.00840235,62bbe60bf3d75ef465d3e404,0,141,141,112,1,onetwo,,,,,,,,,,,,,,,,,,,,,,,,,,,,,,,,,,,,,,,,,,,,,,,,,,,,,,,,,,,,,,,,,,,,,,,,,,,,,,,,,,,,,,,,,,,,,,,,,,,,,,,,,,,,,,,,,,,,,,,,,,,,,,,,,,,,,,,,,,,,,,,,,,,,,,,,
,,,,,,611d1134bcc4eda812acf219,62bbf921c31ea8925dd3e40f,2022-06-29_09h03.17.778,Colour_Asymmetry_Pilot,2022.1.3,Win32,30.00840235,62bbe60bf3d75ef465d3e404,0,142,142,103,1,fourthree,,,,,,,,,,,,,,,,,,,,,,,,,,,,,,,,,,,,,,,,,,,,,,,,,,,,,,,,,,,,,,,,,,,,,,,,,,,,,,,,,,,,,,,,,,,,,,,,,,,,,,,,,,,,,,,,,,,,,,,,,,,,,,,,,,,,,,,,,,,,,,,,,,,,,,,,
,,,,,,611d1134bcc4eda812acf219,62bbf921c31ea8925dd3e40f,2022-06-29_09h03.17.778,Colour_Asymmetry_Pilot,2022.1.3,Win32,30.00840235,62bbe60bf3d75ef465d3e404,0,143,143,75,1,twofour,,,,,,,,,,,,,,,,,,,,,,,,,,,,,,,,,,,,,,,,,,,,,,,,,,,,,,,,,,,,,,,,,,,,,,,,,,,,,,,,,,,,,,,,,,,,,,,,,,,,,,,,,,,,,,,,,,,,,,,,,,,,,,,,,,,,,,,,,,,,,,,,,,,,,,,,
,,,,,,611d1134bcc4eda812acf219,62bbf921c31ea8925dd3e40f,2022-06-29_09h03.17.778,Colour_Asymmetry_Pilot,2022.1.3,Win32,30.00840235,62bbe60bf3d75ef465d3e404,0,144,144,9,1,onethree,,,,,,,,,,,,,,,,,,,,,,,,,,,,,,,,,,,,,,,,,,,,,,,,,,,,,,,,,,,,,,,,,,,,,,,,,,,,,,,,,,,,,,,,,,,,,,,,,,,,,,,,,,,,,,,,,,,,,,,,,,,,,,,,,,,,,,,,,,,,,,,,,,,,,,,,
,,,,,,611d1134bcc4eda812acf219,62bbf921c31ea8925dd3e40f,2022-06-29_09h03.17.778,Colour_Asymmetry_Pilot,2022.1.3,Win32,30.00840235,62bbe60bf3d75ef465d3e404,0,145,145,7,1,fourthree,,,,,,,,,,,,,,,,,,,,,,,,,,,,,,,,,,,,,,,,,,,,,,,,,,,,,,,,,,,,,,,,,,,,,,,,,,,,,,,,,,,,,,,,,,,,,,,,,,,,,,,,,,,,,,,,,,,,,,,,,,,,,,,,,,,,,,,,,,,,,,,,,,,,,,,,
,,,,,,611d1134bcc4eda812acf219,62bbf921c31ea8925dd3e40f,2022-06-29_09h03.17.778,Colour_Asymmetry_Pilot,2022.1.3,Win32,30.00840235,62bbe60bf3d75ef465d3e404,0,146,146,12,1,threeone,,,,,,,,,,,,,,,,,,,,,,,,,,,,,,,,,,,,,,,,,,,,,,,,,,,,,,,,,,,,,,,,,,,,,,,,,,,,,,,,,,,,,,,,,,,,,,,,,,,,,,,,,,,,,,,,,,,,,,,,,,,,,,,,,,,,,,,,,,,,,,,,,,,,,,,,
,,,,,,611d1134bcc4eda812acf219,62bbf921c31ea8925dd3e40f,2022-06-29_09h03.17.778,Colour_Asymmetry_Pilot,2022.1.3,Win32,30.00840235,62bbe60bf3d75ef465d3e404,0,147,147,131,1,twofour,,,,,,,,,,,,,,,,,,,,,,,,,,,,,,,,,,,,,,,,,,,,,,,,,,,,,,,,,,,,,,,,,,,,,,,,,,,,,,,,,,,,,,,,,,,,,,,,,,,,,,,,,,,,,,,,,,,,,,,,,,,,,,,,,,,,,,,,,,,,,,,,,,,,,,,,
,,,,,,611d1134bcc4eda812acf219,62bbf921c31ea8925dd3e40f,2022-06-29_09h03.17.778,Colour_Asymmetry_Pilot,2022.1.3,Win32,30.00840235,62bbe60bf3d75ef465d3e404,0,148,148,57,1,onethree,,,,,,,,,,,,,,,,,,,,,,,,,,,,,,,,,,,,,,,,,,,,,,,,,,,,,,,,,,,,,,,,,,,,,,,,,,,,,,,,,,,,,,,,,,,,,,,,,,,,,,,,,,,,,,,,,,,,,,,,,,,,,,,,,,,,,,,,,,,,,,,,,,,,,,,,
,,,,,,611d1134bcc4eda812acf219,62bbf921c31ea8925dd3e40f,2022-06-29_09h03.17.778,Colour_Asymmetry_Pilot,2022.1.3,Win32,30.00840235,62bbe60bf3d75ef465d3e404,0,149,149,92,1,threeone,,,,,,,,,,,,,,,,,,,,,,,,,,,,,,,,,,,,,,,,,,,,,,,,,,,,,,,,,,,,,,,,,,,,,,,,,,,,,,,,,,,,,,,,,,,,,,,,,,,,,,,,,,,,,,,,,,,,,,,,,,,,,,,,,,,,,,,,,,,,,,,,,,,,,,,,
,,,,,,611d1134bcc4eda812acf219,62bbf921c31ea8925dd3e40f,2022-06-29_09h03.17.778,Colour_Asymmetry_Pilot,2022.1.3,Win32,30.00840235,62bbe60bf3d75ef465d3e404,0,150,150,111,1,fourthree,,,,,,,,,,,,,,,,,,,,,,,,,,,,,,,,,,,,,,,,,,,,,,,,,,,,,,,,,,,,,,,,,,,,,,,,,,,,,,,,,,,,,,,,,,,,,,,,,,,,,,,,,,,,,,,,,,,,,,,,,,,,,,,,,,,,,,,,,,,,,,,,,,,,,,,,
,,,,,,611d1134bcc4eda812acf219,62bbf921c31ea8925dd3e40f,2022-06-29_09h03.17.778,Colour_Asymmetry_Pilot,2022.1.3,Win32,30.00840235,62bbe60bf3d75ef465d3e404,0,151,151,13,1,threefour,,,,,,,,,,,,,,,,,,,,,,,,,,,,,,,,,,,,,,,,,,,,,,,,,,,,,,,,,,,,,,,,,,,,,,,,,,,,,,,,,,,,,,,,,,,,,,,,,,,,,,,,,,,,,,,,,,,,,,,,,,,,,,,,,,,,,,,,,,,,,,,,,,,,,,,,
,,,,,,611d1134bcc4eda812acf219,62bbf921c31ea8925dd3e40f,2022-06-29_09h03.17.778,Colour_Asymmetry_Pilot,2022.1.3,Win32,30.00840235,62bbe60bf3d75ef465d3e404,0,152,152,65,1,onethree,,,,,,,,,,,,,,,,,,,,,,,,,,,,,,,,,,,,,,,,,,,,,,,,,,,,,,,,,,,,,,,,,,,,,,,,,,,,,,,,,,,,,,,,,,,,,,,,,,,,,,,,,,,,,,,,,,,,,,,,,,,,,,,,,,,,,,,,,,,,,,,,,,,,,,,,
,,,,,,611d1134bcc4eda812acf219,62bbf921c31ea8925dd3e40f,2022-06-29_09h03.17.778,Colour_Asymmetry_Pilot,2022.1.3,Win32,30.00840235,62bbe60bf3d75ef465d3e404,0,153,153,60,1,threeone,,,,,,,,,,,,,,,,,,,,,,,,,,,,,,,,,,,,,,,,,,,,,,,,,,,,,,,,,,,,,,,,,,,,,,,,,,,,,,,,,,,,,,,,,,,,,,,,,,,,,,,,,,,,,,,,,,,,,,,,,,,,,,,,,,,,,,,,,,,,,,,,,,,,,,,,
,,,,,,611d1134bcc4eda812acf219,62bbf921c31ea8925dd3e40f,2022-06-29_09h03.17.778,Colour_Asymmetry_Pilot,2022.1.3,Win32,30.00840235,62bbe60bf3d75ef465d3e404,0,154,154,40,1,onetwo,,,,,,,,,,,,,,,,,,,,,,,,,,,,,,,,,,,,,,,,,,,,,,,,,,,,,,,,,,,,,,,,,,,,,,,,,,,,,,,,,,,,,,,,,,,,,,,,,,,,,,,,,,,,,,,,,,,,,,,,,,,,,,,,,,,,,,,,,,,,,,,,,,,,,,,,
,,,,,,611d1134bcc4eda812acf219,62bbf921c31ea8925dd3e40f,2022-06-29_09h03.17.778,Colour_Asymmetry_Pilot,2022.1.3,Win32,30.00840235,62bbe60bf3d75ef465d3e404,0,155,155,117,1,threefour,,,,,,,,,,,,,,,,,,,,,,,,,,,,,,,,,,,,,,,,,,,,,,,,,,,,,,,,,,,,,,,,,,,,,,,,,,,,,,,,,,,,,,,,,,,,,,,,,,,,,,,,,,,,,,,,,,,,,,,,,,,,,,,,,,,,,,,,,,,,,,,,,,,,,,,,
,,,,,,611d1134bcc4eda812acf219,62bbf921c31ea8925dd3e40f,2022-06-29_09h03.17.778,Colour_Asymmetry_Pilot,2022.1.3,Win32,30.00840235,62bbe60bf3d75ef465d3e404,0,156,156,143,1,fourthree,,,,,,,,,,,,,,,,,,,,,,,,,,,,,,,,,,,,,,,,,,,,,,,,,,,,,,,,,,,,,,,,,,,,,,,,,,,,,,,,,,,,,,,,,,,,,,,,,,,,,,,,,,,,,,,,,,,,,,,,,,,,,,,,,,,,,,,,,,,,,,,,,,,,,,,,
,,,,,,611d1134bcc4eda812acf219,62bbf921c31ea8925dd3e40f,2022-06-29_09h03.17.778,Colour_Asymmetry_Pilot,2022.1.3,Win32,30.00840235,62bbe60bf3d75ef465d3e404,0,157,157,120,1,onetwo,,,,,,,,,,,,,,,,,,,,,,,,,,,,,,,,,,,,,,,,,,,,,,,,,,,,,,,,,,,,,,,,,,,,,,,,,,,,,,,,,,,,,,,,,,,,,,,,,,,,,,,,,,,,,,,,,,,,,,,,,,,,,,,,,,,,,,,,,,,,,,,,,,,,,,,,
,,,,,,611d1134bcc4eda812acf219,62bbf921c31ea8925dd3e40f,2022-06-29_09h03.17.778,Colour_Asymmetry_Pilot,2022.1.3,Win32,30.00840235,62bbe60bf3d75ef465d3e404,0,158,158,31,1,fourthree,,,,,,,,,,,,,,,,,,,,,,,,,,,,,,,,,,,,,,,,,,,,,,,,,,,,,,,,,,,,,,,,,,,,,,,,,,,,,,,,,,,,,,,,,,,,,,,,,,,,,,,,,,,,,,,,,,,,,,,,,,,,,,,,,,,,,,,,,,,,,,,,,,,,,,,,
,,,,,,611d1134bcc4eda812acf219,62bbf921c31ea8925dd3e40f,2022-06-29_09h03.17.778,Colour_Asymmetry_Pilot,2022.1.3,Win32,30.00840235,62bbe60bf3d75ef465d3e404,0,159,159,149,1,threefour,,,,,,,,,,,,,,,,,,,,,,,,,,,,,,,,,,,,,,,,,,,,,,,,,,,,,,,,,,,,,,,,,,,,,,,,,,,,,,,,,,,,,,,,,,,,,,,,,,,,,,,,,,,,,,,,,,,,,,,,,,,,,,,,,,,,,,,,,,,,,,,,,,,,,,,,
,,,,,,611d1134bcc4eda812acf219,62bbf921c31ea8925dd3e40f,2022-06-29_09h03.17.778,Colour_Asymmetry_Pilot,2022.1.3,Win32,30.00840235,62bbe60bf3d75ef465d3e404,0,160,160,88,1,onetwo,,,,,,,,,,,,,,,,,,,,,,,,,,,,,,,,,,,,,,,,,,,,,,,,,,,,,,,,,,,,,,,,,,,,,,,,,,,,,,,,,,,,,,,,,,,,,,,,,,,,,,,,,,,,,,,,,,,,,,,,,,,,,,,,,,,,,,,,,,,,,,,,,,,,,,,,
,,,,,,611d1134bcc4eda812acf219,62bbf921c31ea8925dd3e40f,2022-06-29_09h03.17.778,Colour_Asymmetry_Pilot,2022.1.3,Win32,30.00840235,62bbe60bf3d75ef465d3e404,0,161,161,63,1,fourthree,,,,,,,,,,,,,,,,,,,,,,,,,,,,,,,,,,,,,,,,,,,,,,,,,,,,,,,,,,,,,,,,,,,,,,,,,,,,,,,,,,,,,,,,,,,,,,,,,,,,,,,,,,,,,,,,,,,,,,,,,,,,,,,,,,,,,,,,,,,,,,,,,,,,,,,,
,,,,,,611d1134bcc4eda812acf219,62bbf921c31ea8925dd3e40f,2022-06-29_09h03.17.778,Colour_Asymmetry_Pilot,2022.1.3,Win32,30.00840235,62bbe60bf3d75ef465d3e404,,,,,,,space,5.295,space,15.879,space,48.478,space,252.326,space,4.314,space,10.383,"[0.8274000000000001,-0.5844,-0.9452]",onethree,"[-0.9844,-0.9688,-0.9922]",-4,14.883,-71,94,1,0,0,response7disk_5,-9,-3,1,0,0,rectangle_8,-86,-48,1,0,0,response5disk_7,2,2,-1,1,1,0,0,rectangle_4,0,0,0,0,1,,,,,,,,,,,,,,,,,,,,,,,,,,,,,,,,,,,,,,,,,,,,,,,,,,,,,,,,,,,,,,,,,,,,,,,,,,,,,,,,,,,,,,,,,,,,,,,,,,,,,,,,
,,,,,,611d1134bcc4eda812acf219,62bbf921c31ea8925dd3e40f,2022-06-29_09h03.17.778,Colour_Asymmetry_Pilot,2022.1.3,Win32,30.00840235,62bbe60bf3d75ef465d3e404,,,,,,,,,,,,,,,,,,,"[0.09799999999999986,-0.24719999999999998,0.15280000000000005]",threeone,"[-0.06680000000000008,-0.45100000000000007,-0.906]",4,6.586,36,78,1,0,0,response1disk_5,2,-3,1,0,0,rectangle_8,2,-3,1,0,0,,,2,2,-3,1,0,0,,1,0,1,0,1,,,,,,,,,,,,,,,,,,,,,,,,,,,,,,,,,,,,,,,,,,,,,,,,,,,,,,,,,,,,,,,,,,,,,,,,,,,,,,,,,,,,,,,,,,,,,,,,,,,,,,,,
,,,,,,611d1134bcc4eda812acf219,62bbf921c31ea8925dd3e40f,2022-06-29_09h03.17.778,Colour_Asymmetry_Pilot,2022.1.3,Win32,30.00840235,62bbe60bf3d75ef465d3e404,,,,,,,,,,,,,,,,,,,"[-0.7412000000000001,-0.08239999999999992,-0.6864]",fourtwo,"[-0.38039999999999996,-0.4276,-0.1452]",-4,5.736,-34,81,1,0,0,response7disk_5,-10,-4,1,0,0,rectangle_8,-10,-4,1,0,0,,,2,-10,-4,1,0,0,,2,0,2,0,1,,,,,,,,,,,,,,,,,,,,,,,,,,,,,,,,,,,,,,,,,,,,,,,,,,,,,,,,,,,,,,,,,,,,,,,,,,,,,,,,,,,,,,,,,,,,,,,,,,,,,,,,
,,,,,,611d1134bcc4eda812acf219,62bbf921c31ea8925dd3e40f,2022-06-29_09h03.17.778,Colour_Asymmetry_Pilot,2022.1.3,Win32,30.00840235,62bbe60bf3d75ef465d3e404,,,,,,,,,,,,,,,,,,,"[0.6625999999999999,0.4980000000000002,-0.357]",fourtwo,"[0.9213999999999998,0.6391999999999998,-0.9922]",4,2.688,44,103,1,0,0,response1disk_5,1,-2,1,0,0,rectangle_8,1,-2,1,0,0,,,2,1,-2,1,0,0,,3,0,3,0,1,,,,,,,,,,,,,,,,,,,,,,,,,,,,,,,,,,,,,,,,,,,,,,,,,,,,,,,,,,,,,,,,,,,,,,,,,,,,,,,,,,,,,,,,,,,,,,,,,,,,,,,,
,,,,,,611d1134bcc4eda812acf219,62bbf921c31ea8925dd3e40f,2022-06-29_09h03.17.778,Colour_Asymmetry_Pilot,2022.1.3,Win32,30.00840235,62bbe60bf3d75ef465d3e404,,,,,,,,,,,,,,,,,,,"[0.34099999999999997,0.5841999999999998,-0.9844]",threefour,"[0.5449999999999999,-0.31000000000000005,-0.0354000000000001]",-1,6.979,-44,-81,1,0,0,response5disk_5,12,5,1,0,0,rectangle_8,12,5,1,0,0,,,2,12,5,1,0,0,,4,0,4,0,1,,,,,,,,,,,,,,,,,,,,,,,,,,,,,,,,,,,,,,,,,,,,,,,,,,,,,,,,,,,,,,,,,,,,,,,,,,,,,,,,,,,,,,,,,,,,,,,,,,,,,,,,
,,,,,,611d1134bcc4eda812acf219,62bbf921c31ea8925dd3e40f,2022-06-29_09h03.17.778,Colour_Asymmetry_Pilot,2022.1.3,Win32,30.00840235,62bbe60bf3d75ef465d3e404,,,,,,,,,,,,,,,,,,,"[-0.9688,-0.7412000000000001,-0.4902000000000001]",fourtwo,"[0.9763999999999999,0.8588,-0.05900000000000005]",-4,5.283,-56,106,1,0,0,response7disk_5,-12,-3,1,0,0,rectangle_8,-12,-3,1,0,0,,,2,-12,-3,1,0,0,,5,0,5,0,1,,,,,,,,,,,,,,,,,,,,,,,,,,,,,,,,,,,,,,,,,,,,,,,,,,,,,,,,,,,,,,,,,,,,,,,,,,,,,,,,,,,,,,,,,,,,,,,,,,,,,,,,
,,,,,,611d1134bcc4eda812acf219,62bbf921c31ea8925dd3e40f,2022-06-29_09h03.17.778,Colour_Asymmetry_Pilot,2022.1.3,Win32,30.00840235,62bbe60bf3d75ef465d3e404,,,,,,,,,,,,,,,,,,,"[0.37240000000000006,-0.050999999999999934,-0.5216]",twoone,"[-0.011800000000000033,-0.906,-0.45100000000000007]",-3,4.086,-79,33,1,0,0,response7disk_5,14,-9,1,0,0,rectangle_8,14,-9,1,0,0,,,2,14,-9,1,0,0,,6,0,6,0,1,,,,,,,,,,,,,,,,,,,,,,,,,,,,,,,,,,,,,,,,,,,,,,,,,,,,,,,,,,,,,,,,,,,,,,,,,,,,,,,,,,,,,,,,,,,,,,,,,,,,,,,,
,,,,,,611d1134bcc4eda812acf219,62bbf921c31ea8925dd3e40f,2022-06-29_09h03.17.778,Colour_Asymmetry_Pilot,2022.1.3,Win32,30.00840235,62bbe60bf3d75ef465d3e404,,,,,,,,,,,,,,,,,,,,threeone,,4,2.833,,,,,,,,,,,,,,,,,,,,,,,,,,,,,,,,space,5.892,"[0.3802000000000001,0.19199999999999995,-0.6394]","[0.3802000000000001,0.19199999999999995,-0.6394]",46,100,1,0,0,response1disk,6,-7,1,0,0,rectangle,75,-38,1,0,0,response3disk_3,2,2,5.757,1,6,-5,1,0,0,rectangle,0,0,0,36,1,36,first,,,,,,,,,,,,,,,,,,,,,,,,,,,,,,,,,,,,,,,,,,,,,,,,,,,,,,,,,,,,,,,,,
,,,,,,611d1134bcc4eda812acf219,62bbf921c31ea8925dd3e40f,2022-06-29_09h03.17.778,Colour_Asymmetry_Pilot,2022.1.3,Win32,30.00840235,62bbe60bf3d75ef465d3e404,,,,,,,,,,,,,,,,,,,,twoone,,3,5.203,,,,,,,,,,,,,,,,,,,,,,,,,,,,,,,,,,"[-0.8198,-0.5138,-0.7492000000000001]","[0.23920000000000008,0.2704,0.16060000000000008]",88,41,1,0,0,response1disk,-6,-1,1,0,0,rectangle,-6,-1,1,0,0,,2,2,0,0,-6,-1,1,0,0,,0,1,1,102,1,21,second,,,,,,,,,,,,,,,,,,,,,,,,,,,,,,,,,,,,,,,,,,,,,,,,,,,,,,,,,,,,,,,,,
,,,,,,611d1134bcc4eda812acf219,62bbf921c31ea8925dd3e40f,2022-06-29_09h03.17.778,Colour_Asymmetry_Pilot,2022.1.3,Win32,30.00840235,62bbe60bf3d75ef465d3e404,,,,,,,,,,,,,,,,,,,,onethree,,4,3.115,,,,,,,,,,,,,,,,,,,,,,,,,,,,,,,,,,"[0.2862,0.7802,0.3568]","[-0.48240000000000005,0.3175999999999999,0.2156]",47,98,1,0,0,response1disk,-4,8,1,0,0,rectangle,-4,8,1,0,0,,2,1,0.002,0,-4,8,1,0,0,,0,2,2,46,1,46,first,,,,,,,,,,,,,,,,,,,,,,,,,,,,,,,,,,,,,,,,,,,,,,,,,,,,,,,,,,,,,,,,,
,,,,,,611d1134bcc4eda812acf219,62bbf921c31ea8925dd3e40f,2022-06-29_09h03.17.778,Colour_Asymmetry_Pilot,2022.1.3,Win32,30.00840235,62bbe60bf3d75ef465d3e404,,,,,,,,,,,,,,,,,,,,threefour,,4,2.3,,,,,,,,,,,,,,,,,,,,,,,,,,,,,,,,,,"[-0.09019999999999995,0.44300000000000006,0.5371999999999999]","[-0.30200000000000005,0.14500000000000002,0.2784]",50,95,1,0,0,response1disk,-16,-4,1,0,0,rectangle,-16,-4,1,0,0,,2,3,0.001,0,-16,-4,1,0,0,,0,3,3,113,1,32,second,,,,,,,,,,,,,,,,,,,,,,,,,,,,,,,,,,,,,,,,,,,,,,,,,,,,,,,,,,,,,,,,,
,,,,,,611d1134bcc4eda812acf219,62bbf921c31ea8925dd3e40f,2022-06-29_09h03.17.778,Colour_Asymmetry_Pilot,2022.1.3,Win32,30.00840235,62bbe60bf3d75ef465d3e404,,,,,,,,,,,,,,,,,,,,twoone,,3,1.531,,,,,,,,,,,,,,,,,,,,,,,,,,,,,,,,,,"[-0.5452,-0.608,0.2470000000000001]","[-0.10599999999999998,-0.10599999999999998,0.5841999999999998]",86,34,1,0,0,response1disk,-4,-6,1,0,0,rectangle,-4,-6,1,0,0,,2,2,0.001,0,-4,-6,1,0,0,,0,4,4,4,1,4,first,,,,,,,,,,,,,,,,,,,,,,,,,,,,,,,,,,,,,,,,,,,,,,,,,,,,,,,,,,,,,,,,,
,,,,,,611d1134bcc4eda812acf219,62bbf921c31ea8925dd3e40f,2022-06-29_09h03.17.778,Colour_Asymmetry_Pilot,2022.1.3,Win32,30.00840235,62bbe60bf3d75ef465d3e404,,,,,,,,,,,,,,,,,,,,twoone,,-1,3.872,,,,,,,,,,,,,,,,,,,,,,,,,,,,,,,,,,"[-0.48240000000000005,0.3175999999999999,0.2156]","[0.8115999999999999,-0.0040000000000000036,-0.09819999999999995]",-51,-82,1,0,0,response5disk,15,-4,1,0,0,rectangle,15,-4,1,0,0,,2,1,0.001,0,15,-4,1,0,0,,0,5,5,51,1,51,first,,,,,,,,,,,,,,,,,,,,,,,,,,,,,,,,,,,,,,,,,,,,,,,,,,,,,,,,,,,,,,,,,
,,,,,,611d1134bcc4eda812acf219,62bbf921c31ea8925dd3e40f,2022-06-29_09h03.17.778,Colour_Asymmetry_Pilot,2022.1.3,Win32,30.00840235,62bbe60bf3d75ef465d3e404,,,,,,,,,,,,,,,,,,,,twofour,,-4,3.232,,,,,,,,,,,,,,,,,,,,,,,,,,,,,,,,,,"[0.05879999999999996,0.2784,0.5841999999999998]","[0.9763999999999999,-0.1137999999999999,-0.6314]",-33,82,1,0,0,response7disk,9,-6,1,0,0,rectangle,9,-6,1,0,0,,2,3,0.001,0,9,-6,1,0,0,,0,6,6,95,1,14,second,,,,,,,,,,,,,,,,,,,,,,,,,,,,,,,,,,,,,,,,,,,,,,,,,,,,,,,,,,,,,,,,,
,,,,,,611d1134bcc4eda812acf219,62bbf921c31ea8925dd3e40f,2022-06-29_09h03.17.778,Colour_Asymmetry_Pilot,2022.1.3,Win32,30.00840235,62bbe60bf3d75ef465d3e404,,,,,,,,,,,,,,,,,,,,onetwo,,4,3.012,,,,,,,,,,,,,,,,,,,,,,,,,,,,,,,,,,"[0.3568,-0.20799999999999996,-0.9844]","[0.2784,-0.31000000000000005,-0.5452]",43,91,1,0,0,response1disk,-12,-8,1,0,0,rectangle,-12,-8,1,0,0,,2,1,0.001,0,-12,-8,1,0,0,,0,7,7,149,1,68,second,,,,,,,,,,,,,,,,,,,,,,,,,,,,,,,,,,,,,,,,,,,,,,,,,,,,,,,,,,,,,,,,,
,,,,,,611d1134bcc4eda812acf219,62bbf921c31ea8925dd3e40f,2022-06-29_09h03.17.778,Colour_Asymmetry_Pilot,2022.1.3,Win32,30.00840235,62bbe60bf3d75ef465d3e404,,,,,,,,,,,,,,,,,,,,threefour,,-3,15.07,,,,,,,,,,,,,,,,,,,,,,,,,,,,,,,,,,"[0.9686000000000001,0.3802000000000001,0.19999999999999996]","[-0.0040000000000000036,0.02739999999999987,-0.08239999999999992]",-99,33,1,0,0,response7disk,11,0,1,0,0,rectangle,11,0,1,0,0,,2,1,0.001,0,11,0,1,0,0,,0,8,8,45,1,45,first,,,,,,,,,,,,,,,,,,,,,,,,,,,,,,,,,,,,,,,,,,,,,,,,,,,,,,,,,,,,,,,,,
,,,,,,611d1134bcc4eda812acf219,62bbf921c31ea8925dd3e40f,2022-06-29_09h03.17.778,Colour_Asymmetry_Pilot,2022.1.3,Win32,30.00840235,62bbe60bf3d75ef465d3e404,,,,,,,,,,,,,,,,,,,,fourthree,,2,1.638,,,,,,,,,,,,,,,,,,,,,,,,,,,,,,,,,,"[0.5528,0.7409999999999999,-0.71]","[1,0.12939999999999996,-1]",88,-45,1,0,0,response3disk,-13,-3,1,0,0,rectangle,-13,-3,1,0,0,,2,3,0.001,0,-13,-3,1,0,0,,0,9,9,109,1,28,second,,,,,,,,,,,,,,,,,,,,,,,,,,,,,,,,,,,,,,,,,,,,,,,,,,,,,,,,,,,,,,,,,
,,,,,,611d1134bcc4eda812acf219,62bbf921c31ea8925dd3e40f,2022-06-29_09h03.17.778,Colour_Asymmetry_Pilot,2022.1.3,Win32,30.00840235,62bbe60bf3d75ef465d3e404,,,,,,,,,,,,,,,,,,,,onethree,,4,414.444,,,,,,,,,,,,,,,,,,,,,,,,,,,,,,,,,,"[-0.6942,-0.7648,-0.12959999999999994]","[0.19199999999999995,0.18419999999999992,0.5136000000000001]",29,86,1,0,0,response1disk,-8,-8,1,0,0,rectangle,-8,-8,1,0,0,,2,3,0,0,-8,-8,1,0,0,,0,10,10,15,1,15,first,,,,,,,,,,,,,,,,,,,,,,,,,,,,,,,,,,,,,,,,,,,,,,,,,,,,,,,,,,,,,,,,,
,,,,,,611d1134bcc4eda812acf219,62bbf921c31ea8925dd3e40f,2022-06-29_09h03.17.778,Colour_Asymmetry_Pilot,2022.1.3,Win32,30.00840235,62bbe60bf3d75ef465d3e404,,,,,,,,,,,,,,,,,,,,twofour,,-3,1.102,,,,,,,,,,,,,,,,,,,,,,,,,,,,,,,,,,"[0.7176,-0.906,-0.6864]","[-0.10599999999999998,-0.10599999999999998,0.5841999999999998]",-96,34,1,0,0,response7disk,11,2,1,0,0,rectangle,11,2,1,0,0,,2,1,0.001,0,11,2,1,0,0,,0,11,11,17,1,17,first,,,,,,,,,,,,,,,,,,,,,,,,,,,,,,,,,,,,,,,,,,,,,,,,,,,,,,,,,,,,,,,,,
,,,,,,611d1134bcc4eda812acf219,62bbf921c31ea8925dd3e40f,2022-06-29_09h03.17.778,Colour_Asymmetry_Pilot,2022.1.3,Win32,30.00840235,62bbe60bf3d75ef465d3e404,,,,,,,,,,,,,,,,,,,,fourtwo,,1,1.11,,,,,,,,,,,,,,,,,,,,,,,,,,,,,,,,,,"[0.3881999999999999,-0.23939999999999995,-0.05040000000000011]","[0.37240000000000006,0.4980000000000002,-0.2864]",52,-108,1,0,0,response3disk,-7,8,1,0,0,rectangle,-7,8,1,0,0,,2,1,0,0,-7,8,1,0,0,,0,12,12,100,1,19,second,,,,,,,,,,,,,,,,,,,,,,,,,,,,,,,,,,,,,,,,,,,,,,,,,,,,,,,,,,,,,,,,,
,,,,,,611d1134bcc4eda812acf219,62bbf921c31ea8925dd3e40f,2022-06-29_09h03.17.778,Colour_Asymmetry_Pilot,2022.1.3,Win32,30.00840235,62bbe60bf3d75ef465d3e404,,,,,,,,,,,,,,,,,,,,threeone,,4,2.041,,,,,,,,,,,,,,,,,,,,,,,,,,,,,,,,,,"[0.22340000000000004,-0.9296,-0.7884]","[0.30180000000000007,-0.7884,-0.9844]",30,101,1,0,0,response1disk,8,0,1,0,0,rectangle,8,0,1,0,0,,2,3,0.001,0,8,0,1,0,0,,0,13,13,33,1,33,first,,,,,,,,,,,,,,,,,,,,,,,,,,,,,,,,,,,,,,,,,,,,,,,,,,,,,,,,,,,,,,,,,
,,,,,,611d1134bcc4eda812acf219,62bbf921c31ea8925dd3e40f,2022-06-29_09h03.17.778,Colour_Asymmetry_Pilot,2022.1.3,Win32,30.00840235,62bbe60bf3d75ef465d3e404,,,,,,,,,,,,,,,,,,,,onetwo,,-4,3.61,,,,,,,,,,,,,,,,,,,,,,,,,,,,,,,,,,"[-0.8982,-0.37259999999999993,0.2784]","[0.2862,0.7802,0.3568]",-47,95,1,0,0,response7disk,2,10,1,0,0,rectangle,2,10,1,0,0,,2,3,0.001,0,2,10,1,0,0,,0,14,14,148,1,67,second,,,,,,,,,,,,,,,,,,,,,,,,,,,,,,,,,,,,,,,,,,,,,,,,,,,,,,,,,,,,,,,,,
,,,,,,611d1134bcc4eda812acf219,62bbf921c31ea8925dd3e40f,2022-06-29_09h03.17.778,Colour_Asymmetry_Pilot,2022.1.3,Win32,30.00840235,62bbe60bf3d75ef465d3e404,,,,,,,,,,,,,,,,,,,,onethree,,-4,3.341,,,,,,,,,,,,,,,,,,,,,,,,,,,,,,,,,,"[0.9372,0.20779999999999998,0.2704]","[0.9213999999999998,0.6391999999999998,-0.9922]",-33,54,1,0,0,response7disk,3,2,1,0,0,rectangle,3,2,1,0,0,,2,2,0.001,0,3,2,1,0,0,,0,15,15,64,1,64,first,,,,,,,,,,,,,,,,,,,,,,,,,,,,,,,,,,,,,,,,,,,,,,,,,,,,,,,,,,,,,,,,,
,,,,,,611d1134bcc4eda812acf219,62bbf921c31ea8925dd3e40f,2022-06-29_09h03.17.778,Colour_Asymmetry_Pilot,2022.1.3,Win32,30.00840235,62bbe60bf3d75ef465d3e404,,,,,,,,,,,,,,,,,,,,threefour,,1,1.056,,,,,,,,,,,,,,,,,,,,,,,,,,,,,,,,,,"[-0.4276,0.0038000000000000256,-0.3256]","[-0.4746,-0.0354000000000001,0.5449999999999999]",48,-95,1,0,0,response3disk,-13,-1,1,0,0,rectangle,-13,-1,1,0,0,,2,3,0.001,0,-13,-1,1,0,0,,0,16,16,125,1,44,second,,,,,,,,,,,,,,,,,,,,,,,,,,,,,,,,,,,,,,,,,,,,,,,,,,,,,,,,,,,,,,,,,
,,,,,,611d1134bcc4eda812acf219,62bbf921c31ea8925dd3e40f,2022-06-29_09h03.17.778,Colour_Asymmetry_Pilot,2022.1.3,Win32,30.00840235,62bbe60bf3d75ef465d3e404,,,,,,,,,,,,,,,,,,,,fourthree,,2,2.294,,,,,,,,,,,,,,,,,,,,,,,,,,,,,,,,,,"[0.23920000000000008,0.2704,0.16060000000000008]","[-0.07459999999999989,0.12139999999999995,-0.9922]",79,-39,1,0,0,response3disk,-6,-3,1,0,0,rectangle,-6,-3,1,0,0,,2,3,0.001,0,-6,-3,1,0,0,,0,17,17,88,1,7,second,,,,,,,,,,,,,,,,,,,,,,,,,,,,,,,,,,,,,,,,,,,,,,,,,,,,,,,,,,,,,,,,,
,,,,,,611d1134bcc4eda812acf219,62bbf921c31ea8925dd3e40f,2022-06-29_09h03.17.778,Colour_Asymmetry_Pilot,2022.1.3,Win32,30.00840235,62bbe60bf3d75ef465d3e404,,,,,,,,,,,,,,,,,,,,threefour,,-3,3.511,,,,,,,,,,,,,,,,,,,,,,,,,,,,,,,,,,"[-0.48240000000000005,0.3175999999999999,0.2156]","[0.9372,0.9450000000000001,0.8980000000000001]",-95,35,1,0,0,response7disk,14,3,1,0,0,rectangle,14,3,1,0,0,,2,3,0,0,14,3,1,0,0,,0,18,18,146,1,65,second,,,,,,,,,,,,,,,,,,,,,,,,,,,,,,,,,,,,,,,,,,,,,,,,,,,,,,,,,,,,,,,,,
,,,,,,611d1134bcc4eda812acf219,62bbf921c31ea8925dd3e40f,2022-06-29_09h03.17.778,Colour_Asymmetry_Pilot,2022.1.3,Win32,30.00840235,62bbe60bf3d75ef465d3e404,,,,,,,,,,,,,,,,,,,,twofour,,-4,6.975,,,,,,,,,,,,,,,,,,,,,,,,,,,,,,,,,,"[-0.26280000000000003,-0.4746,-0.2158]","[-0.7412000000000001,-0.08239999999999992,-0.6864]",-64,94,1,0,0,response7disk,17,2,1,0,0,rectangle,44,-87,1,0,0,response3disk_3,1,1,9.707,1,0,3,1,0,0,rectangle,0,19,19,11,1,11,first,,,,,,,,,,,,,,,,,,,,,,,,,,,,,,,,,,,,,,,,,,,,,,,,,,,,,,,,,,,,,,,,,
,,,,,,611d1134bcc4eda812acf219,62bbf921c31ea8925dd3e40f,2022-06-29_09h03.17.778,Colour_Asymmetry_Pilot,2022.1.3,Win32,30.00840235,62bbe60bf3d75ef465d3e404,,,,,,,,,,,,,,,,,,,,twoone,,-3,3.213,,,,,,,,,,,,,,,,,,,,,,,,,,,,,,,,,,"[0.37240000000000006,0.4980000000000002,-0.2864]","[0.3881999999999999,-0.23939999999999995,-0.05040000000000011]",-101,25,1,0,0,response7disk,-16,5,1,0,0,rectangle,-16,5,1,0,0,,1,1,0,0,-16,5,1,0,0,,0,20,20,19,1,19,first,,,,,,,,,,,,,,,,,,,,,,,,,,,,,,,,,,,,,,,,,,,,,,,,,,,,,,,,,,,,,,,,,
