trials.thisRepN,trials.thisTrialN,trials.thisN,trials.thisIndex,trials.ran,Colourcodes,participant,session,date,expName,psychopyVersion,OS,frameRate,study_id,trials_4.thisRepN,trials_4.thisTrialN,trials_4.thisN,trials_4.thisIndex,trials_4.ran,StimulusPos,key_resp.keys,key_resp.rt,key_resp_2.keys,key_resp_2.rt,key_resp_15.keys,key_resp_15.rt,key_resp_17.keys,key_resp_17.rt,key_resp_9.keys,key_resp_9.rt,key_resp_10.keys,key_resp_10.rt,Circle1_col,Ecc,Circle2_col,similarity,response_time,mouse_5.x,mouse_5.y,mouse_5.leftButton,mouse_5.midButton,mouse_5.rightButton,mouse_5.clicked_name,mouse_10.x,mouse_10.y,mouse_10.leftButton,mouse_10.midButton,mouse_10.rightButton,mouse_10.clicked_name,mouse_7.x,mouse_7.y,mouse_7.leftButton,mouse_7.midButton,mouse_7.rightButton,catchnumberprac,mouse_6.x,mouse_6.y,mouse_6.leftButton,mouse_6.midButton,mouse_6.rightButton,duringprac.thisRepN,duringprac.thisTrialN,duringprac.thisN,duringprac.thisIndex,duringprac.ran,mouse_7.clicked_name,catchprac,mouse_6.clicked_name,key_resp_22.keys,key_resp_22.rt,Circle1_colour,Circle2_colour,mouse.x,mouse.y,mouse.leftButton,mouse.midButton,mouse.rightButton,mouse.clicked_name,mouse_2.x,mouse_2.y,mouse_2.leftButton,mouse_2.midButton,mouse_2.rightButton,mouse_2.clicked_name,mouse_3.x,mouse_3.y,mouse_3.leftButton,mouse_3.midButton,mouse_3.rightButton,catchresponse,catchnumber,response_time_catch,Catch,mouse_11.x,mouse_11.y,mouse_11.leftButton,mouse_11.midButton,mouse_11.rightButton,trials_2.thisRepN,trials_2.thisTrialN,trials_2.thisN,trials_2.thisIndex,trials_2.ran,Colourpair,Temporder,mouse_3.clicked_name,mouse_11.clicked_name,trials_3.thisRepN,trials_3.thisTrialN,trials_3.thisN,trials_3.thisIndex,trials_3.ran,key_resp_instr_Ishi.keys,key_resp_instr_Ishi.rt,Ishi_trial_keyresp.keys,Ishi_trial_keyresp.rt,Ishi_textbox.text,Ishi_loop.thisRepN,Ishi_loop.thisTrialN,Ishi_loop.thisN,Ishi_loop.thisIndex,Ishi_loop.ran,imageaddress,textbox.text,mouse_4.x,mouse_4.y,mouse_4.leftButton,mouse_4.midButton,mouse_4.rightButton,mouse_4.clicked_name,textbox_2.text,mouse_8.x,mouse_8.y,mouse_8.leftButton,mouse_8.midButton,mouse_8.rightButton,mouse_8.clicked_name,textbox_3.text,mouse_9.x,mouse_9.y,mouse_9.leftButton,mouse_9.midButton,mouse_9.rightButton,mouse_9.clicked_name,textbox_4.text,mouse_12.x,mouse_12.y,mouse_12.leftButton,mouse_12.midButton,mouse_12.rightButton,mouse_12.clicked_name,textbox_5.text,mouse_13.x,mouse_13.y,mouse_13.leftButton,mouse_13.midButton,mouse_13.rightButton,mouse_13.clicked_name,textbox_6.text,mouse_14.x,mouse_14.y,mouse_14.leftButton,mouse_14.midButton,mouse_14.rightButton,mouse_14.clicked_name,textbox_7.text,mouse_15.x,mouse_15.y,mouse_15.leftButton,mouse_15.midButton,mouse_15.rightButton,mouse_15.clicked_name
0,0,0,14,1,,5e9f1f0a0de35f056a5ff749,62bbf99a7c64c9c732101e07,2022-06-29_09h24.23.596,Colour_Asymmetry_Pilot,2022.1.3,Win32,144.092219,62bbe60bf3d75ef465d3e404,,,,,,,,,,,,,,,,,,,,,,,,,,,,,,,,,,,,,,,,,,,,,,,,,,,,,,,,,,,,,,,,,,,,,,,,,,,,,,,,,,,,,,,,,,,,,,,,,,,,,,,,,,,,,,,,,,,,,,,,,,,,,,,,,,,,,,,,,,,,,,,,,,,,,,,,,,,,,,
0,1,1,71,1,,5e9f1f0a0de35f056a5ff749,62bbf99a7c64c9c732101e07,2022-06-29_09h24.23.596,Colour_Asymmetry_Pilot,2022.1.3,Win32,144.092219,62bbe60bf3d75ef465d3e404,,,,,,,,,,,,,,,,,,,,,,,,,,,,,,,,,,,,,,,,,,,,,,,,,,,,,,,,,,,,,,,,,,,,,,,,,,,,,,,,,,,,,,,,,,,,,,,,,,,,,,,,,,,,,,,,,,,,,,,,,,,,,,,,,,,,,,,,,,,,,,,,,,,,,,,,,,,,,,
0,2,2,69,1,,5e9f1f0a0de35f056a5ff749,62bbf99a7c64c9c732101e07,2022-06-29_09h24.23.596,Colour_Asymmetry_Pilot,2022.1.3,Win32,144.092219,62bbe60bf3d75ef465d3e404,,,,,,,,,,,,,,,,,,,,,,,,,,,,,,,,,,,,,,,,,,,,,,,,,,,,,,,,,,,,,,,,,,,,,,,,,,,,,,,,,,,,,,,,,,,,,,,,,,,,,,,,,,,,,,,,,,,,,,,,,,,,,,,,,,,,,,,,,,,,,,,,,,,,,,,,,,,,,,
0,3,3,55,1,,5e9f1f0a0de35f056a5ff749,62bbf99a7c64c9c732101e07,2022-06-29_09h24.23.596,Colour_Asymmetry_Pilot,2022.1.3,Win32,144.092219,62bbe60bf3d75ef465d3e404,,,,,,,,,,,,,,,,,,,,,,,,,,,,,,,,,,,,,,,,,,,,,,,,,,,,,,,,,,,,,,,,,,,,,,,,,,,,,,,,,,,,,,,,,,,,,,,,,,,,,,,,,,,,,,,,,,,,,,,,,,,,,,,,,,,,,,,,,,,,,,,,,,,,,,,,,,,,,,
0,4,4,1,1,,5e9f1f0a0de35f056a5ff749,62bbf99a7c64c9c732101e07,2022-06-29_09h24.23.596,Colour_Asymmetry_Pilot,2022.1.3,Win32,144.092219,62bbe60bf3d75ef465d3e404,,,,,,,,,,,,,,,,,,,,,,,,,,,,,,,,,,,,,,,,,,,,,,,,,,,,,,,,,,,,,,,,,,,,,,,,,,,,,,,,,,,,,,,,,,,,,,,,,,,,,,,,,,,,,,,,,,,,,,,,,,,,,,,,,,,,,,,,,,,,,,,,,,,,,,,,,,,,,,
0,5,5,47,1,,5e9f1f0a0de35f056a5ff749,62bbf99a7c64c9c732101e07,2022-06-29_09h24.23.596,Colour_Asymmetry_Pilot,2022.1.3,Win32,144.092219,62bbe60bf3d75ef465d3e404,,,,,,,,,,,,,,,,,,,,,,,,,,,,,,,,,,,,,,,,,,,,,,,,,,,,,,,,,,,,,,,,,,,,,,,,,,,,,,,,,,,,,,,,,,,,,,,,,,,,,,,,,,,,,,,,,,,,,,,,,,,,,,,,,,,,,,,,,,,,,,,,,,,,,,,,,,,,,,
0,6,6,82,1,,5e9f1f0a0de35f056a5ff749,62bbf99a7c64c9c732101e07,2022-06-29_09h24.23.596,Colour_Asymmetry_Pilot,2022.1.3,Win32,144.092219,62bbe60bf3d75ef465d3e404,,,,,,,,,,,,,,,,,,,,,,,,,,,,,,,,,,,,,,,,,,,,,,,,,,,,,,,,,,,,,,,,,,,,,,,,,,,,,,,,,,,,,,,,,,,,,,,,,,,,,,,,,,,,,,,,,,,,,,,,,,,,,,,,,,,,,,,,,,,,,,,,,,,,,,,,,,,,,,
0,7,7,64,1,,5e9f1f0a0de35f056a5ff749,62bbf99a7c64c9c732101e07,2022-06-29_09h24.23.596,Colour_Asymmetry_Pilot,2022.1.3,Win32,144.092219,62bbe60bf3d75ef465d3e404,,,,,,,,,,,,,,,,,,,,,,,,,,,,,,,,,,,,,,,,,,,,,,,,,,,,,,,,,,,,,,,,,,,,,,,,,,,,,,,,,,,,,,,,,,,,,,,,,,,,,,,,,,,,,,,,,,,,,,,,,,,,,,,,,,,,,,,,,,,,,,,,,,,,,,,,,,,,,,
0,8,8,88,1,,5e9f1f0a0de35f056a5ff749,62bbf99a7c64c9c732101e07,2022-06-29_09h24.23.596,Colour_Asymmetry_Pilot,2022.1.3,Win32,144.092219,62bbe60bf3d75ef465d3e404,,,,,,,,,,,,,,,,,,,,,,,,,,,,,,,,,,,,,,,,,,,,,,,,,,,,,,,,,,,,,,,,,,,,,,,,,,,,,,,,,,,,,,,,,,,,,,,,,,,,,,,,,,,,,,,,,,,,,,,,,,,,,,,,,,,,,,,,,,,,,,,,,,,,,,,,,,,,,,
0,9,9,77,1,,5e9f1f0a0de35f056a5ff749,62bbf99a7c64c9c732101e07,2022-06-29_09h24.23.596,Colour_Asymmetry_Pilot,2022.1.3,Win32,144.092219,62bbe60bf3d75ef465d3e404,,,,,,,,,,,,,,,,,,,,,,,,,,,,,,,,,,,,,,,,,,,,,,,,,,,,,,,,,,,,,,,,,,,,,,,,,,,,,,,,,,,,,,,,,,,,,,,,,,,,,,,,,,,,,,,,,,,,,,,,,,,,,,,,,,,,,,,,,,,,,,,,,,,,,,,,,,,,,,
0,10,10,65,1,,5e9f1f0a0de35f056a5ff749,62bbf99a7c64c9c732101e07,2022-06-29_09h24.23.596,Colour_Asymmetry_Pilot,2022.1.3,Win32,144.092219,62bbe60bf3d75ef465d3e404,,,,,,,,,,,,,,,,,,,,,,,,,,,,,,,,,,,,,,,,,,,,,,,,,,,,,,,,,,,,,,,,,,,,,,,,,,,,,,,,,,,,,,,,,,,,,,,,,,,,,,,,,,,,,,,,,,,,,,,,,,,,,,,,,,,,,,,,,,,,,,,,,,,,,,,,,,,,,,
0,11,11,50,1,,5e9f1f0a0de35f056a5ff749,62bbf99a7c64c9c732101e07,2022-06-29_09h24.23.596,Colour_Asymmetry_Pilot,2022.1.3,Win32,144.092219,62bbe60bf3d75ef465d3e404,,,,,,,,,,,,,,,,,,,,,,,,,,,,,,,,,,,,,,,,,,,,,,,,,,,,,,,,,,,,,,,,,,,,,,,,,,,,,,,,,,,,,,,,,,,,,,,,,,,,,,,,,,,,,,,,,,,,,,,,,,,,,,,,,,,,,,,,,,,,,,,,,,,,,,,,,,,,,,
0,12,12,16,1,,5e9f1f0a0de35f056a5ff749,62bbf99a7c64c9c732101e07,2022-06-29_09h24.23.596,Colour_Asymmetry_Pilot,2022.1.3,Win32,144.092219,62bbe60bf3d75ef465d3e404,,,,,,,,,,,,,,,,,,,,,,,,,,,,,,,,,,,,,,,,,,,,,,,,,,,,,,,,,,,,,,,,,,,,,,,,,,,,,,,,,,,,,,,,,,,,,,,,,,,,,,,,,,,,,,,,,,,,,,,,,,,,,,,,,,,,,,,,,,,,,,,,,,,,,,,,,,,,,,
0,13,13,68,1,,5e9f1f0a0de35f056a5ff749,62bbf99a7c64c9c732101e07,2022-06-29_09h24.23.596,Colour_Asymmetry_Pilot,2022.1.3,Win32,144.092219,62bbe60bf3d75ef465d3e404,,,,,,,,,,,,,,,,,,,,,,,,,,,,,,,,,,,,,,,,,,,,,,,,,,,,,,,,,,,,,,,,,,,,,,,,,,,,,,,,,,,,,,,,,,,,,,,,,,,,,,,,,,,,,,,,,,,,,,,,,,,,,,,,,,,,,,,,,,,,,,,,,,,,,,,,,,,,,,
0,14,14,57,1,,5e9f1f0a0de35f056a5ff749,62bbf99a7c64c9c732101e07,2022-06-29_09h24.23.596,Colour_Asymmetry_Pilot,2022.1.3,Win32,144.092219,62bbe60bf3d75ef465d3e404,,,,,,,,,,,,,,,,,,,,,,,,,,,,,,,,,,,,,,,,,,,,,,,,,,,,,,,,,,,,,,,,,,,,,,,,,,,,,,,,,,,,,,,,,,,,,,,,,,,,,,,,,,,,,,,,,,,,,,,,,,,,,,,,,,,,,,,,,,,,,,,,,,,,,,,,,,,,,,
0,15,15,21,1,,5e9f1f0a0de35f056a5ff749,62bbf99a7c64c9c732101e07,2022-06-29_09h24.23.596,Colour_Asymmetry_Pilot,2022.1.3,Win32,144.092219,62bbe60bf3d75ef465d3e404,,,,,,,,,,,,,,,,,,,,,,,,,,,,,,,,,,,,,,,,,,,,,,,,,,,,,,,,,,,,,,,,,,,,,,,,,,,,,,,,,,,,,,,,,,,,,,,,,,,,,,,,,,,,,,,,,,,,,,,,,,,,,,,,,,,,,,,,,,,,,,,,,,,,,,,,,,,,,,
0,16,16,19,1,,5e9f1f0a0de35f056a5ff749,62bbf99a7c64c9c732101e07,2022-06-29_09h24.23.596,Colour_Asymmetry_Pilot,2022.1.3,Win32,144.092219,62bbe60bf3d75ef465d3e404,,,,,,,,,,,,,,,,,,,,,,,,,,,,,,,,,,,,,,,,,,,,,,,,,,,,,,,,,,,,,,,,,,,,,,,,,,,,,,,,,,,,,,,,,,,,,,,,,,,,,,,,,,,,,,,,,,,,,,,,,,,,,,,,,,,,,,,,,,,,,,,,,,,,,,,,,,,,,,
0,17,17,33,1,,5e9f1f0a0de35f056a5ff749,62bbf99a7c64c9c732101e07,2022-06-29_09h24.23.596,Colour_Asymmetry_Pilot,2022.1.3,Win32,144.092219,62bbe60bf3d75ef465d3e404,,,,,,,,,,,,,,,,,,,,,,,,,,,,,,,,,,,,,,,,,,,,,,,,,,,,,,,,,,,,,,,,,,,,,,,,,,,,,,,,,,,,,,,,,,,,,,,,,,,,,,,,,,,,,,,,,,,,,,,,,,,,,,,,,,,,,,,,,,,,,,,,,,,,,,,,,,,,,,
0,18,18,38,1,,5e9f1f0a0de35f056a5ff749,62bbf99a7c64c9c732101e07,2022-06-29_09h24.23.596,Colour_Asymmetry_Pilot,2022.1.3,Win32,144.092219,62bbe60bf3d75ef465d3e404,,,,,,,,,,,,,,,,,,,,,,,,,,,,,,,,,,,,,,,,,,,,,,,,,,,,,,,,,,,,,,,,,,,,,,,,,,,,,,,,,,,,,,,,,,,,,,,,,,,,,,,,,,,,,,,,,,,,,,,,,,,,,,,,,,,,,,,,,,,,,,,,,,,,,,,,,,,,,,
0,19,19,29,1,,5e9f1f0a0de35f056a5ff749,62bbf99a7c64c9c732101e07,2022-06-29_09h24.23.596,Colour_Asymmetry_Pilot,2022.1.3,Win32,144.092219,62bbe60bf3d75ef465d3e404,,,,,,,,,,,,,,,,,,,,,,,,,,,,,,,,,,,,,,,,,,,,,,,,,,,,,,,,,,,,,,,,,,,,,,,,,,,,,,,,,,,,,,,,,,,,,,,,,,,,,,,,,,,,,,,,,,,,,,,,,,,,,,,,,,,,,,,,,,,,,,,,,,,,,,,,,,,,,,
0,20,20,0,1,,5e9f1f0a0de35f056a5ff749,62bbf99a7c64c9c732101e07,2022-06-29_09h24.23.596,Colour_Asymmetry_Pilot,2022.1.3,Win32,144.092219,62bbe60bf3d75ef465d3e404,,,,,,,,,,,,,,,,,,,,,,,,,,,,,,,,,,,,,,,,,,,,,,,,,,,,,,,,,,,,,,,,,,,,,,,,,,,,,,,,,,,,,,,,,,,,,,,,,,,,,,,,,,,,,,,,,,,,,,,,,,,,,,,,,,,,,,,,,,,,,,,,,,,,,,,,,,,,,,
0,21,21,76,1,,5e9f1f0a0de35f056a5ff749,62bbf99a7c64c9c732101e07,2022-06-29_09h24.23.596,Colour_Asymmetry_Pilot,2022.1.3,Win32,144.092219,62bbe60bf3d75ef465d3e404,,,,,,,,,,,,,,,,,,,,,,,,,,,,,,,,,,,,,,,,,,,,,,,,,,,,,,,,,,,,,,,,,,,,,,,,,,,,,,,,,,,,,,,,,,,,,,,,,,,,,,,,,,,,,,,,,,,,,,,,,,,,,,,,,,,,,,,,,,,,,,,,,,,,,,,,,,,,,,
0,22,22,34,1,,5e9f1f0a0de35f056a5ff749,62bbf99a7c64c9c732101e07,2022-06-29_09h24.23.596,Colour_Asymmetry_Pilot,2022.1.3,Win32,144.092219,62bbe60bf3d75ef465d3e404,,,,,,,,,,,,,,,,,,,,,,,,,,,,,,,,,,,,,,,,,,,,,,,,,,,,,,,,,,,,,,,,,,,,,,,,,,,,,,,,,,,,,,,,,,,,,,,,,,,,,,,,,,,,,,,,,,,,,,,,,,,,,,,,,,,,,,,,,,,,,,,,,,,,,,,,,,,,,,
0,23,23,30,1,,5e9f1f0a0de35f056a5ff749,62bbf99a7c64c9c732101e07,2022-06-29_09h24.23.596,Colour_Asymmetry_Pilot,2022.1.3,Win32,144.092219,62bbe60bf3d75ef465d3e404,,,,,,,,,,,,,,,,,,,,,,,,,,,,,,,,,,,,,,,,,,,,,,,,,,,,,,,,,,,,,,,,,,,,,,,,,,,,,,,,,,,,,,,,,,,,,,,,,,,,,,,,,,,,,,,,,,,,,,,,,,,,,,,,,,,,,,,,,,,,,,,,,,,,,,,,,,,,,,
0,24,24,78,1,,5e9f1f0a0de35f056a5ff749,62bbf99a7c64c9c732101e07,2022-06-29_09h24.23.596,Colour_Asymmetry_Pilot,2022.1.3,Win32,144.092219,62bbe60bf3d75ef465d3e404,,,,,,,,,,,,,,,,,,,,,,,,,,,,,,,,,,,,,,,,,,,,,,,,,,,,,,,,,,,,,,,,,,,,,,,,,,,,,,,,,,,,,,,,,,,,,,,,,,,,,,,,,,,,,,,,,,,,,,,,,,,,,,,,,,,,,,,,,,,,,,,,,,,,,,,,,,,,,,
0,25,25,61,1,,5e9f1f0a0de35f056a5ff749,62bbf99a7c64c9c732101e07,2022-06-29_09h24.23.596,Colour_Asymmetry_Pilot,2022.1.3,Win32,144.092219,62bbe60bf3d75ef465d3e404,,,,,,,,,,,,,,,,,,,,,,,,,,,,,,,,,,,,,,,,,,,,,,,,,,,,,,,,,,,,,,,,,,,,,,,,,,,,,,,,,,,,,,,,,,,,,,,,,,,,,,,,,,,,,,,,,,,,,,,,,,,,,,,,,,,,,,,,,,,,,,,,,,,,,,,,,,,,,,
0,26,26,72,1,,5e9f1f0a0de35f056a5ff749,62bbf99a7c64c9c732101e07,2022-06-29_09h24.23.596,Colour_Asymmetry_Pilot,2022.1.3,Win32,144.092219,62bbe60bf3d75ef465d3e404,,,,,,,,,,,,,,,,,,,,,,,,,,,,,,,,,,,,,,,,,,,,,,,,,,,,,,,,,,,,,,,,,,,,,,,,,,,,,,,,,,,,,,,,,,,,,,,,,,,,,,,,,,,,,,,,,,,,,,,,,,,,,,,,,,,,,,,,,,,,,,,,,,,,,,,,,,,,,,
0,27,27,9,1,,5e9f1f0a0de35f056a5ff749,62bbf99a7c64c9c732101e07,2022-06-29_09h24.23.596,Colour_Asymmetry_Pilot,2022.1.3,Win32,144.092219,62bbe60bf3d75ef465d3e404,,,,,,,,,,,,,,,,,,,,,,,,,,,,,,,,,,,,,,,,,,,,,,,,,,,,,,,,,,,,,,,,,,,,,,,,,,,,,,,,,,,,,,,,,,,,,,,,,,,,,,,,,,,,,,,,,,,,,,,,,,,,,,,,,,,,,,,,,,,,,,,,,,,,,,,,,,,,,,
0,28,28,92,1,,5e9f1f0a0de35f056a5ff749,62bbf99a7c64c9c732101e07,2022-06-29_09h24.23.596,Colour_Asymmetry_Pilot,2022.1.3,Win32,144.092219,62bbe60bf3d75ef465d3e404,,,,,,,,,,,,,,,,,,,,,,,,,,,,,,,,,,,,,,,,,,,,,,,,,,,,,,,,,,,,,,,,,,,,,,,,,,,,,,,,,,,,,,,,,,,,,,,,,,,,,,,,,,,,,,,,,,,,,,,,,,,,,,,,,,,,,,,,,,,,,,,,,,,,,,,,,,,,,,
0,29,29,27,1,,5e9f1f0a0de35f056a5ff749,62bbf99a7c64c9c732101e07,2022-06-29_09h24.23.596,Colour_Asymmetry_Pilot,2022.1.3,Win32,144.092219,62bbe60bf3d75ef465d3e404,,,,,,,,,,,,,,,,,,,,,,,,,,,,,,,,,,,,,,,,,,,,,,,,,,,,,,,,,,,,,,,,,,,,,,,,,,,,,,,,,,,,,,,,,,,,,,,,,,,,,,,,,,,,,,,,,,,,,,,,,,,,,,,,,,,,,,,,,,,,,,,,,,,,,,,,,,,,,,
0,30,30,5,1,,5e9f1f0a0de35f056a5ff749,62bbf99a7c64c9c732101e07,2022-06-29_09h24.23.596,Colour_Asymmetry_Pilot,2022.1.3,Win32,144.092219,62bbe60bf3d75ef465d3e404,,,,,,,,,,,,,,,,,,,,,,,,,,,,,,,,,,,,,,,,,,,,,,,,,,,,,,,,,,,,,,,,,,,,,,,,,,,,,,,,,,,,,,,,,,,,,,,,,,,,,,,,,,,,,,,,,,,,,,,,,,,,,,,,,,,,,,,,,,,,,,,,,,,,,,,,,,,,,,
0,31,31,6,1,,5e9f1f0a0de35f056a5ff749,62bbf99a7c64c9c732101e07,2022-06-29_09h24.23.596,Colour_Asymmetry_Pilot,2022.1.3,Win32,144.092219,62bbe60bf3d75ef465d3e404,,,,,,,,,,,,,,,,,,,,,,,,,,,,,,,,,,,,,,,,,,,,,,,,,,,,,,,,,,,,,,,,,,,,,,,,,,,,,,,,,,,,,,,,,,,,,,,,,,,,,,,,,,,,,,,,,,,,,,,,,,,,,,,,,,,,,,,,,,,,,,,,,,,,,,,,,,,,,,
0,32,32,85,1,,5e9f1f0a0de35f056a5ff749,62bbf99a7c64c9c732101e07,2022-06-29_09h24.23.596,Colour_Asymmetry_Pilot,2022.1.3,Win32,144.092219,62bbe60bf3d75ef465d3e404,,,,,,,,,,,,,,,,,,,,,,,,,,,,,,,,,,,,,,,,,,,,,,,,,,,,,,,,,,,,,,,,,,,,,,,,,,,,,,,,,,,,,,,,,,,,,,,,,,,,,,,,,,,,,,,,,,,,,,,,,,,,,,,,,,,,,,,,,,,,,,,,,,,,,,,,,,,,,,
0,33,33,42,1,,5e9f1f0a0de35f056a5ff749,62bbf99a7c64c9c732101e07,2022-06-29_09h24.23.596,Colour_Asymmetry_Pilot,2022.1.3,Win32,144.092219,62bbe60bf3d75ef465d3e404,,,,,,,,,,,,,,,,,,,,,,,,,,,,,,,,,,,,,,,,,,,,,,,,,,,,,,,,,,,,,,,,,,,,,,,,,,,,,,,,,,,,,,,,,,,,,,,,,,,,,,,,,,,,,,,,,,,,,,,,,,,,,,,,,,,,,,,,,,,,,,,,,,,,,,,,,,,,,,
0,34,34,70,1,,5e9f1f0a0de35f056a5ff749,62bbf99a7c64c9c732101e07,2022-06-29_09h24.23.596,Colour_Asymmetry_Pilot,2022.1.3,Win32,144.092219,62bbe60bf3d75ef465d3e404,,,,,,,,,,,,,,,,,,,,,,,,,,,,,,,,,,,,,,,,,,,,,,,,,,,,,,,,,,,,,,,,,,,,,,,,,,,,,,,,,,,,,,,,,,,,,,,,,,,,,,,,,,,,,,,,,,,,,,,,,,,,,,,,,,,,,,,,,,,,,,,,,,,,,,,,,,,,,,
0,35,35,32,1,,5e9f1f0a0de35f056a5ff749,62bbf99a7c64c9c732101e07,2022-06-29_09h24.23.596,Colour_Asymmetry_Pilot,2022.1.3,Win32,144.092219,62bbe60bf3d75ef465d3e404,,,,,,,,,,,,,,,,,,,,,,,,,,,,,,,,,,,,,,,,,,,,,,,,,,,,,,,,,,,,,,,,,,,,,,,,,,,,,,,,,,,,,,,,,,,,,,,,,,,,,,,,,,,,,,,,,,,,,,,,,,,,,,,,,,,,,,,,,,,,,,,,,,,,,,,,,,,,,,
0,36,36,12,1,,5e9f1f0a0de35f056a5ff749,62bbf99a7c64c9c732101e07,2022-06-29_09h24.23.596,Colour_Asymmetry_Pilot,2022.1.3,Win32,144.092219,62bbe60bf3d75ef465d3e404,,,,,,,,,,,,,,,,,,,,,,,,,,,,,,,,,,,,,,,,,,,,,,,,,,,,,,,,,,,,,,,,,,,,,,,,,,,,,,,,,,,,,,,,,,,,,,,,,,,,,,,,,,,,,,,,,,,,,,,,,,,,,,,,,,,,,,,,,,,,,,,,,,,,,,,,,,,,,,
0,37,37,2,1,,5e9f1f0a0de35f056a5ff749,62bbf99a7c64c9c732101e07,2022-06-29_09h24.23.596,Colour_Asymmetry_Pilot,2022.1.3,Win32,144.092219,62bbe60bf3d75ef465d3e404,,,,,,,,,,,,,,,,,,,,,,,,,,,,,,,,,,,,,,,,,,,,,,,,,,,,,,,,,,,,,,,,,,,,,,,,,,,,,,,,,,,,,,,,,,,,,,,,,,,,,,,,,,,,,,,,,,,,,,,,,,,,,,,,,,,,,,,,,,,,,,,,,,,,,,,,,,,,,,
0,38,38,89,1,,5e9f1f0a0de35f056a5ff749,62bbf99a7c64c9c732101e07,2022-06-29_09h24.23.596,Colour_Asymmetry_Pilot,2022.1.3,Win32,144.092219,62bbe60bf3d75ef465d3e404,,,,,,,,,,,,,,,,,,,,,,,,,,,,,,,,,,,,,,,,,,,,,,,,,,,,,,,,,,,,,,,,,,,,,,,,,,,,,,,,,,,,,,,,,,,,,,,,,,,,,,,,,,,,,,,,,,,,,,,,,,,,,,,,,,,,,,,,,,,,,,,,,,,,,,,,,,,,,,
0,39,39,86,1,,5e9f1f0a0de35f056a5ff749,62bbf99a7c64c9c732101e07,2022-06-29_09h24.23.596,Colour_Asymmetry_Pilot,2022.1.3,Win32,144.092219,62bbe60bf3d75ef465d3e404,,,,,,,,,,,,,,,,,,,,,,,,,,,,,,,,,,,,,,,,,,,,,,,,,,,,,,,,,,,,,,,,,,,,,,,,,,,,,,,,,,,,,,,,,,,,,,,,,,,,,,,,,,,,,,,,,,,,,,,,,,,,,,,,,,,,,,,,,,,,,,,,,,,,,,,,,,,,,,
0,40,40,36,1,,5e9f1f0a0de35f056a5ff749,62bbf99a7c64c9c732101e07,2022-06-29_09h24.23.596,Colour_Asymmetry_Pilot,2022.1.3,Win32,144.092219,62bbe60bf3d75ef465d3e404,,,,,,,,,,,,,,,,,,,,,,,,,,,,,,,,,,,,,,,,,,,,,,,,,,,,,,,,,,,,,,,,,,,,,,,,,,,,,,,,,,,,,,,,,,,,,,,,,,,,,,,,,,,,,,,,,,,,,,,,,,,,,,,,,,,,,,,,,,,,,,,,,,,,,,,,,,,,,,
0,41,41,48,1,,5e9f1f0a0de35f056a5ff749,62bbf99a7c64c9c732101e07,2022-06-29_09h24.23.596,Colour_Asymmetry_Pilot,2022.1.3,Win32,144.092219,62bbe60bf3d75ef465d3e404,,,,,,,,,,,,,,,,,,,,,,,,,,,,,,,,,,,,,,,,,,,,,,,,,,,,,,,,,,,,,,,,,,,,,,,,,,,,,,,,,,,,,,,,,,,,,,,,,,,,,,,,,,,,,,,,,,,,,,,,,,,,,,,,,,,,,,,,,,,,,,,,,,,,,,,,,,,,,,
0,42,42,22,1,,5e9f1f0a0de35f056a5ff749,62bbf99a7c64c9c732101e07,2022-06-29_09h24.23.596,Colour_Asymmetry_Pilot,2022.1.3,Win32,144.092219,62bbe60bf3d75ef465d3e404,,,,,,,,,,,,,,,,,,,,,,,,,,,,,,,,,,,,,,,,,,,,,,,,,,,,,,,,,,,,,,,,,,,,,,,,,,,,,,,,,,,,,,,,,,,,,,,,,,,,,,,,,,,,,,,,,,,,,,,,,,,,,,,,,,,,,,,,,,,,,,,,,,,,,,,,,,,,,,
0,43,43,23,1,,5e9f1f0a0de35f056a5ff749,62bbf99a7c64c9c732101e07,2022-06-29_09h24.23.596,Colour_Asymmetry_Pilot,2022.1.3,Win32,144.092219,62bbe60bf3d75ef465d3e404,,,,,,,,,,,,,,,,,,,,,,,,,,,,,,,,,,,,,,,,,,,,,,,,,,,,,,,,,,,,,,,,,,,,,,,,,,,,,,,,,,,,,,,,,,,,,,,,,,,,,,,,,,,,,,,,,,,,,,,,,,,,,,,,,,,,,,,,,,,,,,,,,,,,,,,,,,,,,,
0,44,44,37,1,,5e9f1f0a0de35f056a5ff749,62bbf99a7c64c9c732101e07,2022-06-29_09h24.23.596,Colour_Asymmetry_Pilot,2022.1.3,Win32,144.092219,62bbe60bf3d75ef465d3e404,,,,,,,,,,,,,,,,,,,,,,,,,,,,,,,,,,,,,,,,,,,,,,,,,,,,,,,,,,,,,,,,,,,,,,,,,,,,,,,,,,,,,,,,,,,,,,,,,,,,,,,,,,,,,,,,,,,,,,,,,,,,,,,,,,,,,,,,,,,,,,,,,,,,,,,,,,,,,,
0,45,45,52,1,,5e9f1f0a0de35f056a5ff749,62bbf99a7c64c9c732101e07,2022-06-29_09h24.23.596,Colour_Asymmetry_Pilot,2022.1.3,Win32,144.092219,62bbe60bf3d75ef465d3e404,,,,,,,,,,,,,,,,,,,,,,,,,,,,,,,,,,,,,,,,,,,,,,,,,,,,,,,,,,,,,,,,,,,,,,,,,,,,,,,,,,,,,,,,,,,,,,,,,,,,,,,,,,,,,,,,,,,,,,,,,,,,,,,,,,,,,,,,,,,,,,,,,,,,,,,,,,,,,,
0,46,46,60,1,,5e9f1f0a0de35f056a5ff749,62bbf99a7c64c9c732101e07,2022-06-29_09h24.23.596,Colour_Asymmetry_Pilot,2022.1.3,Win32,144.092219,62bbe60bf3d75ef465d3e404,,,,,,,,,,,,,,,,,,,,,,,,,,,,,,,,,,,,,,,,,,,,,,,,,,,,,,,,,,,,,,,,,,,,,,,,,,,,,,,,,,,,,,,,,,,,,,,,,,,,,,,,,,,,,,,,,,,,,,,,,,,,,,,,,,,,,,,,,,,,,,,,,,,,,,,,,,,,,,
0,47,47,84,1,,5e9f1f0a0de35f056a5ff749,62bbf99a7c64c9c732101e07,2022-06-29_09h24.23.596,Colour_Asymmetry_Pilot,2022.1.3,Win32,144.092219,62bbe60bf3d75ef465d3e404,,,,,,,,,,,,,,,,,,,,,,,,,,,,,,,,,,,,,,,,,,,,,,,,,,,,,,,,,,,,,,,,,,,,,,,,,,,,,,,,,,,,,,,,,,,,,,,,,,,,,,,,,,,,,,,,,,,,,,,,,,,,,,,,,,,,,,,,,,,,,,,,,,,,,,,,,,,,,,
0,48,48,8,1,,5e9f1f0a0de35f056a5ff749,62bbf99a7c64c9c732101e07,2022-06-29_09h24.23.596,Colour_Asymmetry_Pilot,2022.1.3,Win32,144.092219,62bbe60bf3d75ef465d3e404,,,,,,,,,,,,,,,,,,,,,,,,,,,,,,,,,,,,,,,,,,,,,,,,,,,,,,,,,,,,,,,,,,,,,,,,,,,,,,,,,,,,,,,,,,,,,,,,,,,,,,,,,,,,,,,,,,,,,,,,,,,,,,,,,,,,,,,,,,,,,,,,,,,,,,,,,,,,,,
0,49,49,43,1,,5e9f1f0a0de35f056a5ff749,62bbf99a7c64c9c732101e07,2022-06-29_09h24.23.596,Colour_Asymmetry_Pilot,2022.1.3,Win32,144.092219,62bbe60bf3d75ef465d3e404,,,,,,,,,,,,,,,,,,,,,,,,,,,,,,,,,,,,,,,,,,,,,,,,,,,,,,,,,,,,,,,,,,,,,,,,,,,,,,,,,,,,,,,,,,,,,,,,,,,,,,,,,,,,,,,,,,,,,,,,,,,,,,,,,,,,,,,,,,,,,,,,,,,,,,,,,,,,,,
0,50,50,46,1,,5e9f1f0a0de35f056a5ff749,62bbf99a7c64c9c732101e07,2022-06-29_09h24.23.596,Colour_Asymmetry_Pilot,2022.1.3,Win32,144.092219,62bbe60bf3d75ef465d3e404,,,,,,,,,,,,,,,,,,,,,,,,,,,,,,,,,,,,,,,,,,,,,,,,,,,,,,,,,,,,,,,,,,,,,,,,,,,,,,,,,,,,,,,,,,,,,,,,,,,,,,,,,,,,,,,,,,,,,,,,,,,,,,,,,,,,,,,,,,,,,,,,,,,,,,,,,,,,,,
0,51,51,74,1,,5e9f1f0a0de35f056a5ff749,62bbf99a7c64c9c732101e07,2022-06-29_09h24.23.596,Colour_Asymmetry_Pilot,2022.1.3,Win32,144.092219,62bbe60bf3d75ef465d3e404,,,,,,,,,,,,,,,,,,,,,,,,,,,,,,,,,,,,,,,,,,,,,,,,,,,,,,,,,,,,,,,,,,,,,,,,,,,,,,,,,,,,,,,,,,,,,,,,,,,,,,,,,,,,,,,,,,,,,,,,,,,,,,,,,,,,,,,,,,,,,,,,,,,,,,,,,,,,,,
0,52,52,41,1,,5e9f1f0a0de35f056a5ff749,62bbf99a7c64c9c732101e07,2022-06-29_09h24.23.596,Colour_Asymmetry_Pilot,2022.1.3,Win32,144.092219,62bbe60bf3d75ef465d3e404,,,,,,,,,,,,,,,,,,,,,,,,,,,,,,,,,,,,,,,,,,,,,,,,,,,,,,,,,,,,,,,,,,,,,,,,,,,,,,,,,,,,,,,,,,,,,,,,,,,,,,,,,,,,,,,,,,,,,,,,,,,,,,,,,,,,,,,,,,,,,,,,,,,,,,,,,,,,,,
0,53,53,4,1,,5e9f1f0a0de35f056a5ff749,62bbf99a7c64c9c732101e07,2022-06-29_09h24.23.596,Colour_Asymmetry_Pilot,2022.1.3,Win32,144.092219,62bbe60bf3d75ef465d3e404,,,,,,,,,,,,,,,,,,,,,,,,,,,,,,,,,,,,,,,,,,,,,,,,,,,,,,,,,,,,,,,,,,,,,,,,,,,,,,,,,,,,,,,,,,,,,,,,,,,,,,,,,,,,,,,,,,,,,,,,,,,,,,,,,,,,,,,,,,,,,,,,,,,,,,,,,,,,,,
0,54,54,26,1,,5e9f1f0a0de35f056a5ff749,62bbf99a7c64c9c732101e07,2022-06-29_09h24.23.596,Colour_Asymmetry_Pilot,2022.1.3,Win32,144.092219,62bbe60bf3d75ef465d3e404,,,,,,,,,,,,,,,,,,,,,,,,,,,,,,,,,,,,,,,,,,,,,,,,,,,,,,,,,,,,,,,,,,,,,,,,,,,,,,,,,,,,,,,,,,,,,,,,,,,,,,,,,,,,,,,,,,,,,,,,,,,,,,,,,,,,,,,,,,,,,,,,,,,,,,,,,,,,,,
0,55,55,66,1,,5e9f1f0a0de35f056a5ff749,62bbf99a7c64c9c732101e07,2022-06-29_09h24.23.596,Colour_Asymmetry_Pilot,2022.1.3,Win32,144.092219,62bbe60bf3d75ef465d3e404,,,,,,,,,,,,,,,,,,,,,,,,,,,,,,,,,,,,,,,,,,,,,,,,,,,,,,,,,,,,,,,,,,,,,,,,,,,,,,,,,,,,,,,,,,,,,,,,,,,,,,,,,,,,,,,,,,,,,,,,,,,,,,,,,,,,,,,,,,,,,,,,,,,,,,,,,,,,,,
0,56,56,90,1,,5e9f1f0a0de35f056a5ff749,62bbf99a7c64c9c732101e07,2022-06-29_09h24.23.596,Colour_Asymmetry_Pilot,2022.1.3,Win32,144.092219,62bbe60bf3d75ef465d3e404,,,,,,,,,,,,,,,,,,,,,,,,,,,,,,,,,,,,,,,,,,,,,,,,,,,,,,,,,,,,,,,,,,,,,,,,,,,,,,,,,,,,,,,,,,,,,,,,,,,,,,,,,,,,,,,,,,,,,,,,,,,,,,,,,,,,,,,,,,,,,,,,,,,,,,,,,,,,,,
0,57,57,81,1,,5e9f1f0a0de35f056a5ff749,62bbf99a7c64c9c732101e07,2022-06-29_09h24.23.596,Colour_Asymmetry_Pilot,2022.1.3,Win32,144.092219,62bbe60bf3d75ef465d3e404,,,,,,,,,,,,,,,,,,,,,,,,,,,,,,,,,,,,,,,,,,,,,,,,,,,,,,,,,,,,,,,,,,,,,,,,,,,,,,,,,,,,,,,,,,,,,,,,,,,,,,,,,,,,,,,,,,,,,,,,,,,,,,,,,,,,,,,,,,,,,,,,,,,,,,,,,,,,,,
0,58,58,80,1,,5e9f1f0a0de35f056a5ff749,62bbf99a7c64c9c732101e07,2022-06-29_09h24.23.596,Colour_Asymmetry_Pilot,2022.1.3,Win32,144.092219,62bbe60bf3d75ef465d3e404,,,,,,,,,,,,,,,,,,,,,,,,,,,,,,,,,,,,,,,,,,,,,,,,,,,,,,,,,,,,,,,,,,,,,,,,,,,,,,,,,,,,,,,,,,,,,,,,,,,,,,,,,,,,,,,,,,,,,,,,,,,,,,,,,,,,,,,,,,,,,,,,,,,,,,,,,,,,,,
0,59,59,58,1,,5e9f1f0a0de35f056a5ff749,62bbf99a7c64c9c732101e07,2022-06-29_09h24.23.596,Colour_Asymmetry_Pilot,2022.1.3,Win32,144.092219,62bbe60bf3d75ef465d3e404,,,,,,,,,,,,,,,,,,,,,,,,,,,,,,,,,,,,,,,,,,,,,,,,,,,,,,,,,,,,,,,,,,,,,,,,,,,,,,,,,,,,,,,,,,,,,,,,,,,,,,,,,,,,,,,,,,,,,,,,,,,,,,,,,,,,,,,,,,,,,,,,,,,,,,,,,,,,,,
0,60,60,83,1,,5e9f1f0a0de35f056a5ff749,62bbf99a7c64c9c732101e07,2022-06-29_09h24.23.596,Colour_Asymmetry_Pilot,2022.1.3,Win32,144.092219,62bbe60bf3d75ef465d3e404,,,,,,,,,,,,,,,,,,,,,,,,,,,,,,,,,,,,,,,,,,,,,,,,,,,,,,,,,,,,,,,,,,,,,,,,,,,,,,,,,,,,,,,,,,,,,,,,,,,,,,,,,,,,,,,,,,,,,,,,,,,,,,,,,,,,,,,,,,,,,,,,,,,,,,,,,,,,,,
0,61,61,15,1,,5e9f1f0a0de35f056a5ff749,62bbf99a7c64c9c732101e07,2022-06-29_09h24.23.596,Colour_Asymmetry_Pilot,2022.1.3,Win32,144.092219,62bbe60bf3d75ef465d3e404,,,,,,,,,,,,,,,,,,,,,,,,,,,,,,,,,,,,,,,,,,,,,,,,,,,,,,,,,,,,,,,,,,,,,,,,,,,,,,,,,,,,,,,,,,,,,,,,,,,,,,,,,,,,,,,,,,,,,,,,,,,,,,,,,,,,,,,,,,,,,,,,,,,,,,,,,,,,,,
0,62,62,54,1,,5e9f1f0a0de35f056a5ff749,62bbf99a7c64c9c732101e07,2022-06-29_09h24.23.596,Colour_Asymmetry_Pilot,2022.1.3,Win32,144.092219,62bbe60bf3d75ef465d3e404,,,,,,,,,,,,,,,,,,,,,,,,,,,,,,,,,,,,,,,,,,,,,,,,,,,,,,,,,,,,,,,,,,,,,,,,,,,,,,,,,,,,,,,,,,,,,,,,,,,,,,,,,,,,,,,,,,,,,,,,,,,,,,,,,,,,,,,,,,,,,,,,,,,,,,,,,,,,,,
0,63,63,39,1,,5e9f1f0a0de35f056a5ff749,62bbf99a7c64c9c732101e07,2022-06-29_09h24.23.596,Colour_Asymmetry_Pilot,2022.1.3,Win32,144.092219,62bbe60bf3d75ef465d3e404,,,,,,,,,,,,,,,,,,,,,,,,,,,,,,,,,,,,,,,,,,,,,,,,,,,,,,,,,,,,,,,,,,,,,,,,,,,,,,,,,,,,,,,,,,,,,,,,,,,,,,,,,,,,,,,,,,,,,,,,,,,,,,,,,,,,,,,,,,,,,,,,,,,,,,,,,,,,,,
0,64,64,18,1,,5e9f1f0a0de35f056a5ff749,62bbf99a7c64c9c732101e07,2022-06-29_09h24.23.596,Colour_Asymmetry_Pilot,2022.1.3,Win32,144.092219,62bbe60bf3d75ef465d3e404,,,,,,,,,,,,,,,,,,,,,,,,,,,,,,,,,,,,,,,,,,,,,,,,,,,,,,,,,,,,,,,,,,,,,,,,,,,,,,,,,,,,,,,,,,,,,,,,,,,,,,,,,,,,,,,,,,,,,,,,,,,,,,,,,,,,,,,,,,,,,,,,,,,,,,,,,,,,,,
0,65,65,20,1,,5e9f1f0a0de35f056a5ff749,62bbf99a7c64c9c732101e07,2022-06-29_09h24.23.596,Colour_Asymmetry_Pilot,2022.1.3,Win32,144.092219,62bbe60bf3d75ef465d3e404,,,,,,,,,,,,,,,,,,,,,,,,,,,,,,,,,,,,,,,,,,,,,,,,,,,,,,,,,,,,,,,,,,,,,,,,,,,,,,,,,,,,,,,,,,,,,,,,,,,,,,,,,,,,,,,,,,,,,,,,,,,,,,,,,,,,,,,,,,,,,,,,,,,,,,,,,,,,,,
0,66,66,62,1,,5e9f1f0a0de35f056a5ff749,62bbf99a7c64c9c732101e07,2022-06-29_09h24.23.596,Colour_Asymmetry_Pilot,2022.1.3,Win32,144.092219,62bbe60bf3d75ef465d3e404,,,,,,,,,,,,,,,,,,,,,,,,,,,,,,,,,,,,,,,,,,,,,,,,,,,,,,,,,,,,,,,,,,,,,,,,,,,,,,,,,,,,,,,,,,,,,,,,,,,,,,,,,,,,,,,,,,,,,,,,,,,,,,,,,,,,,,,,,,,,,,,,,,,,,,,,,,,,,,
0,67,67,28,1,,5e9f1f0a0de35f056a5ff749,62bbf99a7c64c9c732101e07,2022-06-29_09h24.23.596,Colour_Asymmetry_Pilot,2022.1.3,Win32,144.092219,62bbe60bf3d75ef465d3e404,,,,,,,,,,,,,,,,,,,,,,,,,,,,,,,,,,,,,,,,,,,,,,,,,,,,,,,,,,,,,,,,,,,,,,,,,,,,,,,,,,,,,,,,,,,,,,,,,,,,,,,,,,,,,,,,,,,,,,,,,,,,,,,,,,,,,,,,,,,,,,,,,,,,,,,,,,,,,,
0,68,68,49,1,,5e9f1f0a0de35f056a5ff749,62bbf99a7c64c9c732101e07,2022-06-29_09h24.23.596,Colour_Asymmetry_Pilot,2022.1.3,Win32,144.092219,62bbe60bf3d75ef465d3e404,,,,,,,,,,,,,,,,,,,,,,,,,,,,,,,,,,,,,,,,,,,,,,,,,,,,,,,,,,,,,,,,,,,,,,,,,,,,,,,,,,,,,,,,,,,,,,,,,,,,,,,,,,,,,,,,,,,,,,,,,,,,,,,,,,,,,,,,,,,,,,,,,,,,,,,,,,,,,,
0,69,69,51,1,,5e9f1f0a0de35f056a5ff749,62bbf99a7c64c9c732101e07,2022-06-29_09h24.23.596,Colour_Asymmetry_Pilot,2022.1.3,Win32,144.092219,62bbe60bf3d75ef465d3e404,,,,,,,,,,,,,,,,,,,,,,,,,,,,,,,,,,,,,,,,,,,,,,,,,,,,,,,,,,,,,,,,,,,,,,,,,,,,,,,,,,,,,,,,,,,,,,,,,,,,,,,,,,,,,,,,,,,,,,,,,,,,,,,,,,,,,,,,,,,,,,,,,,,,,,,,,,,,,,
0,70,70,79,1,,5e9f1f0a0de35f056a5ff749,62bbf99a7c64c9c732101e07,2022-06-29_09h24.23.596,Colour_Asymmetry_Pilot,2022.1.3,Win32,144.092219,62bbe60bf3d75ef465d3e404,,,,,,,,,,,,,,,,,,,,,,,,,,,,,,,,,,,,,,,,,,,,,,,,,,,,,,,,,,,,,,,,,,,,,,,,,,,,,,,,,,,,,,,,,,,,,,,,,,,,,,,,,,,,,,,,,,,,,,,,,,,,,,,,,,,,,,,,,,,,,,,,,,,,,,,,,,,,,,
0,71,71,67,1,,5e9f1f0a0de35f056a5ff749,62bbf99a7c64c9c732101e07,2022-06-29_09h24.23.596,Colour_Asymmetry_Pilot,2022.1.3,Win32,144.092219,62bbe60bf3d75ef465d3e404,,,,,,,,,,,,,,,,,,,,,,,,,,,,,,,,,,,,,,,,,,,,,,,,,,,,,,,,,,,,,,,,,,,,,,,,,,,,,,,,,,,,,,,,,,,,,,,,,,,,,,,,,,,,,,,,,,,,,,,,,,,,,,,,,,,,,,,,,,,,,,,,,,,,,,,,,,,,,,
0,72,72,73,1,,5e9f1f0a0de35f056a5ff749,62bbf99a7c64c9c732101e07,2022-06-29_09h24.23.596,Colour_Asymmetry_Pilot,2022.1.3,Win32,144.092219,62bbe60bf3d75ef465d3e404,,,,,,,,,,,,,,,,,,,,,,,,,,,,,,,,,,,,,,,,,,,,,,,,,,,,,,,,,,,,,,,,,,,,,,,,,,,,,,,,,,,,,,,,,,,,,,,,,,,,,,,,,,,,,,,,,,,,,,,,,,,,,,,,,,,,,,,,,,,,,,,,,,,,,,,,,,,,,,
0,73,73,44,1,,5e9f1f0a0de35f056a5ff749,62bbf99a7c64c9c732101e07,2022-06-29_09h24.23.596,Colour_Asymmetry_Pilot,2022.1.3,Win32,144.092219,62bbe60bf3d75ef465d3e404,,,,,,,,,,,,,,,,,,,,,,,,,,,,,,,,,,,,,,,,,,,,,,,,,,,,,,,,,,,,,,,,,,,,,,,,,,,,,,,,,,,,,,,,,,,,,,,,,,,,,,,,,,,,,,,,,,,,,,,,,,,,,,,,,,,,,,,,,,,,,,,,,,,,,,,,,,,,,,
0,74,74,31,1,,5e9f1f0a0de35f056a5ff749,62bbf99a7c64c9c732101e07,2022-06-29_09h24.23.596,Colour_Asymmetry_Pilot,2022.1.3,Win32,144.092219,62bbe60bf3d75ef465d3e404,,,,,,,,,,,,,,,,,,,,,,,,,,,,,,,,,,,,,,,,,,,,,,,,,,,,,,,,,,,,,,,,,,,,,,,,,,,,,,,,,,,,,,,,,,,,,,,,,,,,,,,,,,,,,,,,,,,,,,,,,,,,,,,,,,,,,,,,,,,,,,,,,,,,,,,,,,,,,,
0,75,75,17,1,,5e9f1f0a0de35f056a5ff749,62bbf99a7c64c9c732101e07,2022-06-29_09h24.23.596,Colour_Asymmetry_Pilot,2022.1.3,Win32,144.092219,62bbe60bf3d75ef465d3e404,,,,,,,,,,,,,,,,,,,,,,,,,,,,,,,,,,,,,,,,,,,,,,,,,,,,,,,,,,,,,,,,,,,,,,,,,,,,,,,,,,,,,,,,,,,,,,,,,,,,,,,,,,,,,,,,,,,,,,,,,,,,,,,,,,,,,,,,,,,,,,,,,,,,,,,,,,,,,,
0,76,76,75,1,,5e9f1f0a0de35f056a5ff749,62bbf99a7c64c9c732101e07,2022-06-29_09h24.23.596,Colour_Asymmetry_Pilot,2022.1.3,Win32,144.092219,62bbe60bf3d75ef465d3e404,,,,,,,,,,,,,,,,,,,,,,,,,,,,,,,,,,,,,,,,,,,,,,,,,,,,,,,,,,,,,,,,,,,,,,,,,,,,,,,,,,,,,,,,,,,,,,,,,,,,,,,,,,,,,,,,,,,,,,,,,,,,,,,,,,,,,,,,,,,,,,,,,,,,,,,,,,,,,,
0,77,77,24,1,,5e9f1f0a0de35f056a5ff749,62bbf99a7c64c9c732101e07,2022-06-29_09h24.23.596,Colour_Asymmetry_Pilot,2022.1.3,Win32,144.092219,62bbe60bf3d75ef465d3e404,,,,,,,,,,,,,,,,,,,,,,,,,,,,,,,,,,,,,,,,,,,,,,,,,,,,,,,,,,,,,,,,,,,,,,,,,,,,,,,,,,,,,,,,,,,,,,,,,,,,,,,,,,,,,,,,,,,,,,,,,,,,,,,,,,,,,,,,,,,,,,,,,,,,,,,,,,,,,,
0,78,78,35,1,,5e9f1f0a0de35f056a5ff749,62bbf99a7c64c9c732101e07,2022-06-29_09h24.23.596,Colour_Asymmetry_Pilot,2022.1.3,Win32,144.092219,62bbe60bf3d75ef465d3e404,,,,,,,,,,,,,,,,,,,,,,,,,,,,,,,,,,,,,,,,,,,,,,,,,,,,,,,,,,,,,,,,,,,,,,,,,,,,,,,,,,,,,,,,,,,,,,,,,,,,,,,,,,,,,,,,,,,,,,,,,,,,,,,,,,,,,,,,,,,,,,,,,,,,,,,,,,,,,,
0,79,79,45,1,,5e9f1f0a0de35f056a5ff749,62bbf99a7c64c9c732101e07,2022-06-29_09h24.23.596,Colour_Asymmetry_Pilot,2022.1.3,Win32,144.092219,62bbe60bf3d75ef465d3e404,,,,,,,,,,,,,,,,,,,,,,,,,,,,,,,,,,,,,,,,,,,,,,,,,,,,,,,,,,,,,,,,,,,,,,,,,,,,,,,,,,,,,,,,,,,,,,,,,,,,,,,,,,,,,,,,,,,,,,,,,,,,,,,,,,,,,,,,,,,,,,,,,,,,,,,,,,,,,,
0,80,80,7,1,,5e9f1f0a0de35f056a5ff749,62bbf99a7c64c9c732101e07,2022-06-29_09h24.23.596,Colour_Asymmetry_Pilot,2022.1.3,Win32,144.092219,62bbe60bf3d75ef465d3e404,,,,,,,,,,,,,,,,,,,,,,,,,,,,,,,,,,,,,,,,,,,,,,,,,,,,,,,,,,,,,,,,,,,,,,,,,,,,,,,,,,,,,,,,,,,,,,,,,,,,,,,,,,,,,,,,,,,,,,,,,,,,,,,,,,,,,,,,,,,,,,,,,,,,,,,,,,,,,,
0,81,81,63,1,,5e9f1f0a0de35f056a5ff749,62bbf99a7c64c9c732101e07,2022-06-29_09h24.23.596,Colour_Asymmetry_Pilot,2022.1.3,Win32,144.092219,62bbe60bf3d75ef465d3e404,,,,,,,,,,,,,,,,,,,,,,,,,,,,,,,,,,,,,,,,,,,,,,,,,,,,,,,,,,,,,,,,,,,,,,,,,,,,,,,,,,,,,,,,,,,,,,,,,,,,,,,,,,,,,,,,,,,,,,,,,,,,,,,,,,,,,,,,,,,,,,,,,,,,,,,,,,,,,,
0,82,82,53,1,,5e9f1f0a0de35f056a5ff749,62bbf99a7c64c9c732101e07,2022-06-29_09h24.23.596,Colour_Asymmetry_Pilot,2022.1.3,Win32,144.092219,62bbe60bf3d75ef465d3e404,,,,,,,,,,,,,,,,,,,,,,,,,,,,,,,,,,,,,,,,,,,,,,,,,,,,,,,,,,,,,,,,,,,,,,,,,,,,,,,,,,,,,,,,,,,,,,,,,,,,,,,,,,,,,,,,,,,,,,,,,,,,,,,,,,,,,,,,,,,,,,,,,,,,,,,,,,,,,,
0,83,83,40,1,,5e9f1f0a0de35f056a5ff749,62bbf99a7c64c9c732101e07,2022-06-29_09h24.23.596,Colour_Asymmetry_Pilot,2022.1.3,Win32,144.092219,62bbe60bf3d75ef465d3e404,,,,,,,,,,,,,,,,,,,,,,,,,,,,,,,,,,,,,,,,,,,,,,,,,,,,,,,,,,,,,,,,,,,,,,,,,,,,,,,,,,,,,,,,,,,,,,,,,,,,,,,,,,,,,,,,,,,,,,,,,,,,,,,,,,,,,,,,,,,,,,,,,,,,,,,,,,,,,,
0,84,84,10,1,,5e9f1f0a0de35f056a5ff749,62bbf99a7c64c9c732101e07,2022-06-29_09h24.23.596,Colour_Asymmetry_Pilot,2022.1.3,Win32,144.092219,62bbe60bf3d75ef465d3e404,,,,,,,,,,,,,,,,,,,,,,,,,,,,,,,,,,,,,,,,,,,,,,,,,,,,,,,,,,,,,,,,,,,,,,,,,,,,,,,,,,,,,,,,,,,,,,,,,,,,,,,,,,,,,,,,,,,,,,,,,,,,,,,,,,,,,,,,,,,,,,,,,,,,,,,,,,,,,,
0,85,85,11,1,,5e9f1f0a0de35f056a5ff749,62bbf99a7c64c9c732101e07,2022-06-29_09h24.23.596,Colour_Asymmetry_Pilot,2022.1.3,Win32,144.092219,62bbe60bf3d75ef465d3e404,,,,,,,,,,,,,,,,,,,,,,,,,,,,,,,,,,,,,,,,,,,,,,,,,,,,,,,,,,,,,,,,,,,,,,,,,,,,,,,,,,,,,,,,,,,,,,,,,,,,,,,,,,,,,,,,,,,,,,,,,,,,,,,,,,,,,,,,,,,,,,,,,,,,,,,,,,,,,,
0,86,86,91,1,,5e9f1f0a0de35f056a5ff749,62bbf99a7c64c9c732101e07,2022-06-29_09h24.23.596,Colour_Asymmetry_Pilot,2022.1.3,Win32,144.092219,62bbe60bf3d75ef465d3e404,,,,,,,,,,,,,,,,,,,,,,,,,,,,,,,,,,,,,,,,,,,,,,,,,,,,,,,,,,,,,,,,,,,,,,,,,,,,,,,,,,,,,,,,,,,,,,,,,,,,,,,,,,,,,,,,,,,,,,,,,,,,,,,,,,,,,,,,,,,,,,,,,,,,,,,,,,,,,,
0,87,87,59,1,,5e9f1f0a0de35f056a5ff749,62bbf99a7c64c9c732101e07,2022-06-29_09h24.23.596,Colour_Asymmetry_Pilot,2022.1.3,Win32,144.092219,62bbe60bf3d75ef465d3e404,,,,,,,,,,,,,,,,,,,,,,,,,,,,,,,,,,,,,,,,,,,,,,,,,,,,,,,,,,,,,,,,,,,,,,,,,,,,,,,,,,,,,,,,,,,,,,,,,,,,,,,,,,,,,,,,,,,,,,,,,,,,,,,,,,,,,,,,,,,,,,,,,,,,,,,,,,,,,,
0,88,88,13,1,,5e9f1f0a0de35f056a5ff749,62bbf99a7c64c9c732101e07,2022-06-29_09h24.23.596,Colour_Asymmetry_Pilot,2022.1.3,Win32,144.092219,62bbe60bf3d75ef465d3e404,,,,,,,,,,,,,,,,,,,,,,,,,,,,,,,,,,,,,,,,,,,,,,,,,,,,,,,,,,,,,,,,,,,,,,,,,,,,,,,,,,,,,,,,,,,,,,,,,,,,,,,,,,,,,,,,,,,,,,,,,,,,,,,,,,,,,,,,,,,,,,,,,,,,,,,,,,,,,,
0,89,89,56,1,,5e9f1f0a0de35f056a5ff749,62bbf99a7c64c9c732101e07,2022-06-29_09h24.23.596,Colour_Asymmetry_Pilot,2022.1.3,Win32,144.092219,62bbe60bf3d75ef465d3e404,,,,,,,,,,,,,,,,,,,,,,,,,,,,,,,,,,,,,,,,,,,,,,,,,,,,,,,,,,,,,,,,,,,,,,,,,,,,,,,,,,,,,,,,,,,,,,,,,,,,,,,,,,,,,,,,,,,,,,,,,,,,,,,,,,,,,,,,,,,,,,,,,,,,,,,,,,,,,,
0,90,90,3,1,,5e9f1f0a0de35f056a5ff749,62bbf99a7c64c9c732101e07,2022-06-29_09h24.23.596,Colour_Asymmetry_Pilot,2022.1.3,Win32,144.092219,62bbe60bf3d75ef465d3e404,,,,,,,,,,,,,,,,,,,,,,,,,,,,,,,,,,,,,,,,,,,,,,,,,,,,,,,,,,,,,,,,,,,,,,,,,,,,,,,,,,,,,,,,,,,,,,,,,,,,,,,,,,,,,,,,,,,,,,,,,,,,,,,,,,,,,,,,,,,,,,,,,,,,,,,,,,,,,,
0,91,91,87,1,,5e9f1f0a0de35f056a5ff749,62bbf99a7c64c9c732101e07,2022-06-29_09h24.23.596,Colour_Asymmetry_Pilot,2022.1.3,Win32,144.092219,62bbe60bf3d75ef465d3e404,,,,,,,,,,,,,,,,,,,,,,,,,,,,,,,,,,,,,,,,,,,,,,,,,,,,,,,,,,,,,,,,,,,,,,,,,,,,,,,,,,,,,,,,,,,,,,,,,,,,,,,,,,,,,,,,,,,,,,,,,,,,,,,,,,,,,,,,,,,,,,,,,,,,,,,,,,,,,,
0,92,92,25,1,,5e9f1f0a0de35f056a5ff749,62bbf99a7c64c9c732101e07,2022-06-29_09h24.23.596,Colour_Asymmetry_Pilot,2022.1.3,Win32,144.092219,62bbe60bf3d75ef465d3e404,,,,,,,,,,,,,,,,,,,,,,,,,,,,,,,,,,,,,,,,,,,,,,,,,,,,,,,,,,,,,,,,,,,,,,,,,,,,,,,,,,,,,,,,,,,,,,,,,,,,,,,,,,,,,,,,,,,,,,,,,,,,,,,,,,,,,,,,,,,,,,,,,,,,,,,,,,,,,,
,,,,,,5e9f1f0a0de35f056a5ff749,62bbf99a7c64c9c732101e07,2022-06-29_09h24.23.596,Colour_Asymmetry_Pilot,2022.1.3,Win32,144.092219,62bbe60bf3d75ef465d3e404,0,0,0,127,1,fourthree,,,,,,,,,,,,,,,,,,,,,,,,,,,,,,,,,,,,,,,,,,,,,,,,,,,,,,,,,,,,,,,,,,,,,,,,,,,,,,,,,,,,,,,,,,,,,,,,,,,,,,,,,,,,,,,,,,,,,,,,,,,,,,,,,,,,,,,,,,,,,,,,,,,,,,,,
,,,,,,5e9f1f0a0de35f056a5ff749,62bbf99a7c64c9c732101e07,2022-06-29_09h24.23.596,Colour_Asymmetry_Pilot,2022.1.3,Win32,144.092219,62bbe60bf3d75ef465d3e404,0,1,1,142,1,fourtwo,,,,,,,,,,,,,,,,,,,,,,,,,,,,,,,,,,,,,,,,,,,,,,,,,,,,,,,,,,,,,,,,,,,,,,,,,,,,,,,,,,,,,,,,,,,,,,,,,,,,,,,,,,,,,,,,,,,,,,,,,,,,,,,,,,,,,,,,,,,,,,,,,,,,,,,,
,,,,,,5e9f1f0a0de35f056a5ff749,62bbf99a7c64c9c732101e07,2022-06-29_09h24.23.596,Colour_Asymmetry_Pilot,2022.1.3,Win32,144.092219,62bbe60bf3d75ef465d3e404,0,2,2,66,1,twoone,,,,,,,,,,,,,,,,,,,,,,,,,,,,,,,,,,,,,,,,,,,,,,,,,,,,,,,,,,,,,,,,,,,,,,,,,,,,,,,,,,,,,,,,,,,,,,,,,,,,,,,,,,,,,,,,,,,,,,,,,,,,,,,,,,,,,,,,,,,,,,,,,,,,,,,,
,,,,,,5e9f1f0a0de35f056a5ff749,62bbf99a7c64c9c732101e07,2022-06-29_09h24.23.596,Colour_Asymmetry_Pilot,2022.1.3,Win32,144.092219,62bbe60bf3d75ef465d3e404,0,3,3,94,1,fourtwo,,,,,,,,,,,,,,,,,,,,,,,,,,,,,,,,,,,,,,,,,,,,,,,,,,,,,,,,,,,,,,,,,,,,,,,,,,,,,,,,,,,,,,,,,,,,,,,,,,,,,,,,,,,,,,,,,,,,,,,,,,,,,,,,,,,,,,,,,,,,,,,,,,,,,,,,
,,,,,,5e9f1f0a0de35f056a5ff749,62bbf99a7c64c9c732101e07,2022-06-29_09h24.23.596,Colour_Asymmetry_Pilot,2022.1.3,Win32,144.092219,62bbe60bf3d75ef465d3e404,0,4,4,151,1,fourthree,,,,,,,,,,,,,,,,,,,,,,,,,,,,,,,,,,,,,,,,,,,,,,,,,,,,,,,,,,,,,,,,,,,,,,,,,,,,,,,,,,,,,,,,,,,,,,,,,,,,,,,,,,,,,,,,,,,,,,,,,,,,,,,,,,,,,,,,,,,,,,,,,,,,,,,,
,,,,,,5e9f1f0a0de35f056a5ff749,62bbf99a7c64c9c732101e07,2022-06-29_09h24.23.596,Colour_Asymmetry_Pilot,2022.1.3,Win32,144.092219,62bbe60bf3d75ef465d3e404,0,5,5,53,1,threefour,,,,,,,,,,,,,,,,,,,,,,,,,,,,,,,,,,,,,,,,,,,,,,,,,,,,,,,,,,,,,,,,,,,,,,,,,,,,,,,,,,,,,,,,,,,,,,,,,,,,,,,,,,,,,,,,,,,,,,,,,,,,,,,,,,,,,,,,,,,,,,,,,,,,,,,,
,,,,,,5e9f1f0a0de35f056a5ff749,62bbf99a7c64c9c732101e07,2022-06-29_09h24.23.596,Colour_Asymmetry_Pilot,2022.1.3,Win32,144.092219,62bbe60bf3d75ef465d3e404,0,6,6,71,1,fourthree,,,,,,,,,,,,,,,,,,,,,,,,,,,,,,,,,,,,,,,,,,,,,,,,,,,,,,,,,,,,,,,,,,,,,,,,,,,,,,,,,,,,,,,,,,,,,,,,,,,,,,,,,,,,,,,,,,,,,,,,,,,,,,,,,,,,,,,,,,,,,,,,,,,,,,,,
,,,,,,5e9f1f0a0de35f056a5ff749,62bbf99a7c64c9c732101e07,2022-06-29_09h24.23.596,Colour_Asymmetry_Pilot,2022.1.3,Win32,144.092219,62bbe60bf3d75ef465d3e404,0,7,7,39,1,fourthree,,,,,,,,,,,,,,,,,,,,,,,,,,,,,,,,,,,,,,,,,,,,,,,,,,,,,,,,,,,,,,,,,,,,,,,,,,,,,,,,,,,,,,,,,,,,,,,,,,,,,,,,,,,,,,,,,,,,,,,,,,,,,,,,,,,,,,,,,,,,,,,,,,,,,,,,
,,,,,,5e9f1f0a0de35f056a5ff749,62bbf99a7c64c9c732101e07,2022-06-29_09h24.23.596,Colour_Asymmetry_Pilot,2022.1.3,Win32,144.092219,62bbe60bf3d75ef465d3e404,0,8,8,7,1,fourthree,,,,,,,,,,,,,,,,,,,,,,,,,,,,,,,,,,,,,,,,,,,,,,,,,,,,,,,,,,,,,,,,,,,,,,,,,,,,,,,,,,,,,,,,,,,,,,,,,,,,,,,,,,,,,,,,,,,,,,,,,,,,,,,,,,,,,,,,,,,,,,,,,,,,,,,,
,,,,,,5e9f1f0a0de35f056a5ff749,62bbf99a7c64c9c732101e07,2022-06-29_09h24.23.596,Colour_Asymmetry_Pilot,2022.1.3,Win32,144.092219,62bbe60bf3d75ef465d3e404,0,9,9,27,1,twofour,,,,,,,,,,,,,,,,,,,,,,,,,,,,,,,,,,,,,,,,,,,,,,,,,,,,,,,,,,,,,,,,,,,,,,,,,,,,,,,,,,,,,,,,,,,,,,,,,,,,,,,,,,,,,,,,,,,,,,,,,,,,,,,,,,,,,,,,,,,,,,,,,,,,,,,,
,,,,,,5e9f1f0a0de35f056a5ff749,62bbf99a7c64c9c732101e07,2022-06-29_09h24.23.596,Colour_Asymmetry_Pilot,2022.1.3,Win32,144.092219,62bbe60bf3d75ef465d3e404,0,10,10,118,1,fourtwo,,,,,,,,,,,,,,,,,,,,,,,,,,,,,,,,,,,,,,,,,,,,,,,,,,,,,,,,,,,,,,,,,,,,,,,,,,,,,,,,,,,,,,,,,,,,,,,,,,,,,,,,,,,,,,,,,,,,,,,,,,,,,,,,,,,,,,,,,,,,,,,,,,,,,,,,
,,,,,,5e9f1f0a0de35f056a5ff749,62bbf99a7c64c9c732101e07,2022-06-29_09h24.23.596,Colour_Asymmetry_Pilot,2022.1.3,Win32,144.092219,62bbe60bf3d75ef465d3e404,0,11,11,80,1,onetwo,,,,,,,,,,,,,,,,,,,,,,,,,,,,,,,,,,,,,,,,,,,,,,,,,,,,,,,,,,,,,,,,,,,,,,,,,,,,,,,,,,,,,,,,,,,,,,,,,,,,,,,,,,,,,,,,,,,,,,,,,,,,,,,,,,,,,,,,,,,,,,,,,,,,,,,,
,,,,,,5e9f1f0a0de35f056a5ff749,62bbf99a7c64c9c732101e07,2022-06-29_09h24.23.596,Colour_Asymmetry_Pilot,2022.1.3,Win32,144.092219,62bbe60bf3d75ef465d3e404,0,12,12,79,1,fourthree,,,,,,,,,,,,,,,,,,,,,,,,,,,,,,,,,,,,,,,,,,,,,,,,,,,,,,,,,,,,,,,,,,,,,,,,,,,,,,,,,,,,,,,,,,,,,,,,,,,,,,,,,,,,,,,,,,,,,,,,,,,,,,,,,,,,,,,,,,,,,,,,,,,,,,,,
,,,,,,5e9f1f0a0de35f056a5ff749,62bbf99a7c64c9c732101e07,2022-06-29_09h24.23.596,Colour_Asymmetry_Pilot,2022.1.3,Win32,144.092219,62bbe60bf3d75ef465d3e404,0,13,13,72,1,onetwo,,,,,,,,,,,,,,,,,,,,,,,,,,,,,,,,,,,,,,,,,,,,,,,,,,,,,,,,,,,,,,,,,,,,,,,,,,,,,,,,,,,,,,,,,,,,,,,,,,,,,,,,,,,,,,,,,,,,,,,,,,,,,,,,,,,,,,,,,,,,,,,,,,,,,,,,
,,,,,,5e9f1f0a0de35f056a5ff749,62bbf99a7c64c9c732101e07,2022-06-29_09h24.23.596,Colour_Asymmetry_Pilot,2022.1.3,Win32,144.092219,62bbe60bf3d75ef465d3e404,0,14,14,16,1,onetwo,,,,,,,,,,,,,,,,,,,,,,,,,,,,,,,,,,,,,,,,,,,,,,,,,,,,,,,,,,,,,,,,,,,,,,,,,,,,,,,,,,,,,,,,,,,,,,,,,,,,,,,,,,,,,,,,,,,,,,,,,,,,,,,,,,,,,,,,,,,,,,,,,,,,,,,,
,,,,,,5e9f1f0a0de35f056a5ff749,62bbf99a7c64c9c732101e07,2022-06-29_09h24.23.596,Colour_Asymmetry_Pilot,2022.1.3,Win32,144.092219,62bbe60bf3d75ef465d3e404,0,15,15,141,1,threefour,,,,,,,,,,,,,,,,,,,,,,,,,,,,,,,,,,,,,,,,,,,,,,,,,,,,,,,,,,,,,,,,,,,,,,,,,,,,,,,,,,,,,,,,,,,,,,,,,,,,,,,,,,,,,,,,,,,,,,,,,,,,,,,,,,,,,,,,,,,,,,,,,,,,,,,,
,,,,,,5e9f1f0a0de35f056a5ff749,62bbf99a7c64c9c732101e07,2022-06-29_09h24.23.596,Colour_Asymmetry_Pilot,2022.1.3,Win32,144.092219,62bbe60bf3d75ef465d3e404,0,16,16,20,1,threeone,,,,,,,,,,,,,,,,,,,,,,,,,,,,,,,,,,,,,,,,,,,,,,,,,,,,,,,,,,,,,,,,,,,,,,,,,,,,,,,,,,,,,,,,,,,,,,,,,,,,,,,,,,,,,,,,,,,,,,,,,,,,,,,,,,,,,,,,,,,,,,,,,,,,,,,,
,,,,,,5e9f1f0a0de35f056a5ff749,62bbf99a7c64c9c732101e07,2022-06-29_09h24.23.596,Colour_Asymmetry_Pilot,2022.1.3,Win32,144.092219,62bbe60bf3d75ef465d3e404,0,17,17,84,1,threeone,,,,,,,,,,,,,,,,,,,,,,,,,,,,,,,,,,,,,,,,,,,,,,,,,,,,,,,,,,,,,,,,,,,,,,,,,,,,,,,,,,,,,,,,,,,,,,,,,,,,,,,,,,,,,,,,,,,,,,,,,,,,,,,,,,,,,,,,,,,,,,,,,,,,,,,,
,,,,,,5e9f1f0a0de35f056a5ff749,62bbf99a7c64c9c732101e07,2022-06-29_09h24.23.596,Colour_Asymmetry_Pilot,2022.1.3,Win32,144.092219,62bbe60bf3d75ef465d3e404,0,18,18,23,1,fourthree,,,,,,,,,,,,,,,,,,,,,,,,,,,,,,,,,,,,,,,,,,,,,,,,,,,,,,,,,,,,,,,,,,,,,,,,,,,,,,,,,,,,,,,,,,,,,,,,,,,,,,,,,,,,,,,,,,,,,,,,,,,,,,,,,,,,,,,,,,,,,,,,,,,,,,,,
,,,,,,5e9f1f0a0de35f056a5ff749,62bbf99a7c64c9c732101e07,2022-06-29_09h24.23.596,Colour_Asymmetry_Pilot,2022.1.3,Win32,144.092219,62bbe60bf3d75ef465d3e404,0,19,19,113,1,onethree,,,,,,,,,,,,,,,,,,,,,,,,,,,,,,,,,,,,,,,,,,,,,,,,,,,,,,,,,,,,,,,,,,,,,,,,,,,,,,,,,,,,,,,,,,,,,,,,,,,,,,,,,,,,,,,,,,,,,,,,,,,,,,,,,,,,,,,,,,,,,,,,,,,,,,,,
,,,,,,5e9f1f0a0de35f056a5ff749,62bbf99a7c64c9c732101e07,2022-06-29_09h24.23.596,Colour_Asymmetry_Pilot,2022.1.3,Win32,144.092219,62bbe60bf3d75ef465d3e404,0,20,20,8,1,onetwo,,,,,,,,,,,,,,,,,,,,,,,,,,,,,,,,,,,,,,,,,,,,,,,,,,,,,,,,,,,,,,,,,,,,,,,,,,,,,,,,,,,,,,,,,,,,,,,,,,,,,,,,,,,,,,,,,,,,,,,,,,,,,,,,,,,,,,,,,,,,,,,,,,,,,,,,
,,,,,,5e9f1f0a0de35f056a5ff749,62bbf99a7c64c9c732101e07,2022-06-29_09h24.23.596,Colour_Asymmetry_Pilot,2022.1.3,Win32,144.092219,62bbe60bf3d75ef465d3e404,0,21,21,138,1,twoone,,,,,,,,,,,,,,,,,,,,,,,,,,,,,,,,,,,,,,,,,,,,,,,,,,,,,,,,,,,,,,,,,,,,,,,,,,,,,,,,,,,,,,,,,,,,,,,,,,,,,,,,,,,,,,,,,,,,,,,,,,,,,,,,,,,,,,,,,,,,,,,,,,,,,,,,
,,,,,,5e9f1f0a0de35f056a5ff749,62bbf99a7c64c9c732101e07,2022-06-29_09h24.23.596,Colour_Asymmetry_Pilot,2022.1.3,Win32,144.092219,62bbe60bf3d75ef465d3e404,0,22,22,156,1,threeone,,,,,,,,,,,,,,,,,,,,,,,,,,,,,,,,,,,,,,,,,,,,,,,,,,,,,,,,,,,,,,,,,,,,,,,,,,,,,,,,,,,,,,,,,,,,,,,,,,,,,,,,,,,,,,,,,,,,,,,,,,,,,,,,,,,,,,,,,,,,,,,,,,,,,,,,
,,,,,,5e9f1f0a0de35f056a5ff749,62bbf99a7c64c9c732101e07,2022-06-29_09h24.23.596,Colour_Asymmetry_Pilot,2022.1.3,Win32,144.092219,62bbe60bf3d75ef465d3e404,0,23,23,14,1,fourtwo,,,,,,,,,,,,,,,,,,,,,,,,,,,,,,,,,,,,,,,,,,,,,,,,,,,,,,,,,,,,,,,,,,,,,,,,,,,,,,,,,,,,,,,,,,,,,,,,,,,,,,,,,,,,,,,,,,,,,,,,,,,,,,,,,,,,,,,,,,,,,,,,,,,,,,,,
,,,,,,5e9f1f0a0de35f056a5ff749,62bbf99a7c64c9c732101e07,2022-06-29_09h24.23.596,Colour_Asymmetry_Pilot,2022.1.3,Win32,144.092219,62bbe60bf3d75ef465d3e404,0,24,24,37,1,threefour,,,,,,,,,,,,,,,,,,,,,,,,,,,,,,,,,,,,,,,,,,,,,,,,,,,,,,,,,,,,,,,,,,,,,,,,,,,,,,,,,,,,,,,,,,,,,,,,,,,,,,,,,,,,,,,,,,,,,,,,,,,,,,,,,,,,,,,,,,,,,,,,,,,,,,,,
,,,,,,5e9f1f0a0de35f056a5ff749,62bbf99a7c64c9c732101e07,2022-06-29_09h24.23.596,Colour_Asymmetry_Pilot,2022.1.3,Win32,144.092219,62bbe60bf3d75ef465d3e404,0,25,25,49,1,onethree,,,,,,,,,,,,,,,,,,,,,,,,,,,,,,,,,,,,,,,,,,,,,,,,,,,,,,,,,,,,,,,,,,,,,,,,,,,,,,,,,,,,,,,,,,,,,,,,,,,,,,,,,,,,,,,,,,,,,,,,,,,,,,,,,,,,,,,,,,,,,,,,,,,,,,,,
,,,,,,5e9f1f0a0de35f056a5ff749,62bbf99a7c64c9c732101e07,2022-06-29_09h24.23.596,Colour_Asymmetry_Pilot,2022.1.3,Win32,144.092219,62bbe60bf3d75ef465d3e404,0,26,26,28,1,threeone,,,,,,,,,,,,,,,,,,,,,,,,,,,,,,,,,,,,,,,,,,,,,,,,,,,,,,,,,,,,,,,,,,,,,,,,,,,,,,,,,,,,,,,,,,,,,,,,,,,,,,,,,,,,,,,,,,,,,,,,,,,,,,,,,,,,,,,,,,,,,,,,,,,,,,,,
,,,,,,5e9f1f0a0de35f056a5ff749,62bbf99a7c64c9c732101e07,2022-06-29_09h24.23.596,Colour_Asymmetry_Pilot,2022.1.3,Win32,144.092219,62bbe60bf3d75ef465d3e404,0,27,27,69,1,threefour,,,,,,,,,,,,,,,,,,,,,,,,,,,,,,,,,,,,,,,,,,,,,,,,,,,,,,,,,,,,,,,,,,,,,,,,,,,,,,,,,,,,,,,,,,,,,,,,,,,,,,,,,,,,,,,,,,,,,,,,,,,,,,,,,,,,,,,,,,,,,,,,,,,,,,,,
,,,,,,5e9f1f0a0de35f056a5ff749,62bbf99a7c64c9c732101e07,2022-06-29_09h24.23.596,Colour_Asymmetry_Pilot,2022.1.3,Win32,144.092219,62bbe60bf3d75ef465d3e404,0,28,28,0,1,onetwo,,,,,,,,,,,,,,,,,,,,,,,,,,,,,,,,,,,,,,,,,,,,,,,,,,,,,,,,,,,,,,,,,,,,,,,,,,,,,,,,,,,,,,,,,,,,,,,,,,,,,,,,,,,,,,,,,,,,,,,,,,,,,,,,,,,,,,,,,,,,,,,,,,,,,,,,
,,,,,,5e9f1f0a0de35f056a5ff749,62bbf99a7c64c9c732101e07,2022-06-29_09h24.23.596,Colour_Asymmetry_Pilot,2022.1.3,Win32,144.092219,62bbe60bf3d75ef465d3e404,0,29,29,78,1,fourtwo,,,,,,,,,,,,,,,,,,,,,,,,,,,,,,,,,,,,,,,,,,,,,,,,,,,,,,,,,,,,,,,,,,,,,,,,,,,,,,,,,,,,,,,,,,,,,,,,,,,,,,,,,,,,,,,,,,,,,,,,,,,,,,,,,,,,,,,,,,,,,,,,,,,,,,,,
,,,,,,5e9f1f0a0de35f056a5ff749,62bbf99a7c64c9c732101e07,2022-06-29_09h24.23.596,Colour_Asymmetry_Pilot,2022.1.3,Win32,144.092219,62bbe60bf3d75ef465d3e404,0,30,30,157,1,threefour,,,,,,,,,,,,,,,,,,,,,,,,,,,,,,,,,,,,,,,,,,,,,,,,,,,,,,,,,,,,,,,,,,,,,,,,,,,,,,,,,,,,,,,,,,,,,,,,,,,,,,,,,,,,,,,,,,,,,,,,,,,,,,,,,,,,,,,,,,,,,,,,,,,,,,,,
,,,,,,5e9f1f0a0de35f056a5ff749,62bbf99a7c64c9c732101e07,2022-06-29_09h24.23.596,Colour_Asymmetry_Pilot,2022.1.3,Win32,144.092219,62bbe60bf3d75ef465d3e404,0,31,31,42,1,twoone,,,,,,,,,,,,,,,,,,,,,,,,,,,,,,,,,,,,,,,,,,,,,,,,,,,,,,,,,,,,,,,,,,,,,,,,,,,,,,,,,,,,,,,,,,,,,,,,,,,,,,,,,,,,,,,,,,,,,,,,,,,,,,,,,,,,,,,,,,,,,,,,,,,,,,,,
,,,,,,5e9f1f0a0de35f056a5ff749,62bbf99a7c64c9c732101e07,2022-06-29_09h24.23.596,Colour_Asymmetry_Pilot,2022.1.3,Win32,144.092219,62bbe60bf3d75ef465d3e404,0,32,32,100,1,threeone,,,,,,,,,,,,,,,,,,,,,,,,,,,,,,,,,,,,,,,,,,,,,,,,,,,,,,,,,,,,,,,,,,,,,,,,,,,,,,,,,,,,,,,,,,,,,,,,,,,,,,,,,,,,,,,,,,,,,,,,,,,,,,,,,,,,,,,,,,,,,,,,,,,,,,,,
,,,,,,5e9f1f0a0de35f056a5ff749,62bbf99a7c64c9c732101e07,2022-06-29_09h24.23.596,Colour_Asymmetry_Pilot,2022.1.3,Win32,144.092219,62bbe60bf3d75ef465d3e404,0,33,33,52,1,threeone,,,,,,,,,,,,,,,,,,,,,,,,,,,,,,,,,,,,,,,,,,,,,,,,,,,,,,,,,,,,,,,,,,,,,,,,,,,,,,,,,,,,,,,,,,,,,,,,,,,,,,,,,,,,,,,,,,,,,,,,,,,,,,,,,,,,,,,,,,,,,,,,,,,,,,,,
,,,,,,5e9f1f0a0de35f056a5ff749,62bbf99a7c64c9c732101e07,2022-06-29_09h24.23.596,Colour_Asymmetry_Pilot,2022.1.3,Win32,144.092219,62bbe60bf3d75ef465d3e404,0,34,34,47,1,fourthree,,,,,,,,,,,,,,,,,,,,,,,,,,,,,,,,,,,,,,,,,,,,,,,,,,,,,,,,,,,,,,,,,,,,,,,,,,,,,,,,,,,,,,,,,,,,,,,,,,,,,,,,,,,,,,,,,,,,,,,,,,,,,,,,,,,,,,,,,,,,,,,,,,,,,,,,
,,,,,,5e9f1f0a0de35f056a5ff749,62bbf99a7c64c9c732101e07,2022-06-29_09h24.23.596,Colour_Asymmetry_Pilot,2022.1.3,Win32,144.092219,62bbe60bf3d75ef465d3e404,0,35,35,36,1,threeone,,,,,,,,,,,,,,,,,,,,,,,,,,,,,,,,,,,,,,,,,,,,,,,,,,,,,,,,,,,,,,,,,,,,,,,,,,,,,,,,,,,,,,,,,,,,,,,,,,,,,,,,,,,,,,,,,,,,,,,,,,,,,,,,,,,,,,,,,,,,,,,,,,,,,,,,
,,,,,,5e9f1f0a0de35f056a5ff749,62bbf99a7c64c9c732101e07,2022-06-29_09h24.23.596,Colour_Asymmetry_Pilot,2022.1.3,Win32,144.092219,62bbe60bf3d75ef465d3e404,0,36,36,150,1,fourtwo,,,,,,,,,,,,,,,,,,,,,,,,,,,,,,,,,,,,,,,,,,,,,,,,,,,,,,,,,,,,,,,,,,,,,,,,,,,,,,,,,,,,,,,,,,,,,,,,,,,,,,,,,,,,,,,,,,,,,,,,,,,,,,,,,,,,,,,,,,,,,,,,,,,,,,,,
,,,,,,5e9f1f0a0de35f056a5ff749,62bbf99a7c64c9c732101e07,2022-06-29_09h24.23.596,Colour_Asymmetry_Pilot,2022.1.3,Win32,144.092219,62bbe60bf3d75ef465d3e404,0,37,37,50,1,twoone,,,,,,,,,,,,,,,,,,,,,,,,,,,,,,,,,,,,,,,,,,,,,,,,,,,,,,,,,,,,,,,,,,,,,,,,,,,,,,,,,,,,,,,,,,,,,,,,,,,,,,,,,,,,,,,,,,,,,,,,,,,,,,,,,,,,,,,,,,,,,,,,,,,,,,,,
,,,,,,5e9f1f0a0de35f056a5ff749,62bbf99a7c64c9c732101e07,2022-06-29_09h24.23.596,Colour_Asymmetry_Pilot,2022.1.3,Win32,144.092219,62bbe60bf3d75ef465d3e404,0,38,38,129,1,onethree,,,,,,,,,,,,,,,,,,,,,,,,,,,,,,,,,,,,,,,,,,,,,,,,,,,,,,,,,,,,,,,,,,,,,,,,,,,,,,,,,,,,,,,,,,,,,,,,,,,,,,,,,,,,,,,,,,,,,,,,,,,,,,,,,,,,,,,,,,,,,,,,,,,,,,,,
,,,,,,5e9f1f0a0de35f056a5ff749,62bbf99a7c64c9c732101e07,2022-06-29_09h24.23.596,Colour_Asymmetry_Pilot,2022.1.3,Win32,144.092219,62bbe60bf3d75ef465d3e404,0,39,39,114,1,twoone,,,,,,,,,,,,,,,,,,,,,,,,,,,,,,,,,,,,,,,,,,,,,,,,,,,,,,,,,,,,,,,,,,,,,,,,,,,,,,,,,,,,,,,,,,,,,,,,,,,,,,,,,,,,,,,,,,,,,,,,,,,,,,,,,,,,,,,,,,,,,,,,,,,,,,,,
,,,,,,5e9f1f0a0de35f056a5ff749,62bbf99a7c64c9c732101e07,2022-06-29_09h24.23.596,Colour_Asymmetry_Pilot,2022.1.3,Win32,144.092219,62bbe60bf3d75ef465d3e404,0,40,40,145,1,onethree,,,,,,,,,,,,,,,,,,,,,,,,,,,,,,,,,,,,,,,,,,,,,,,,,,,,,,,,,,,,,,,,,,,,,,,,,,,,,,,,,,,,,,,,,,,,,,,,,,,,,,,,,,,,,,,,,,,,,,,,,,,,,,,,,,,,,,,,,,,,,,,,,,,,,,,,
,,,,,,5e9f1f0a0de35f056a5ff749,62bbf99a7c64c9c732101e07,2022-06-29_09h24.23.596,Colour_Asymmetry_Pilot,2022.1.3,Win32,144.092219,62bbe60bf3d75ef465d3e404,0,41,41,95,1,fourthree,,,,,,,,,,,,,,,,,,,,,,,,,,,,,,,,,,,,,,,,,,,,,,,,,,,,,,,,,,,,,,,,,,,,,,,,,,,,,,,,,,,,,,,,,,,,,,,,,,,,,,,,,,,,,,,,,,,,,,,,,,,,,,,,,,,,,,,,,,,,,,,,,,,,,,,,
,,,,,,5e9f1f0a0de35f056a5ff749,62bbf99a7c64c9c732101e07,2022-06-29_09h24.23.596,Colour_Asymmetry_Pilot,2022.1.3,Win32,144.092219,62bbe60bf3d75ef465d3e404,0,42,42,131,1,twofour,,,,,,,,,,,,,,,,,,,,,,,,,,,,,,,,,,,,,,,,,,,,,,,,,,,,,,,,,,,,,,,,,,,,,,,,,,,,,,,,,,,,,,,,,,,,,,,,,,,,,,,,,,,,,,,,,,,,,,,,,,,,,,,,,,,,,,,,,,,,,,,,,,,,,,,,
,,,,,,5e9f1f0a0de35f056a5ff749,62bbf99a7c64c9c732101e07,2022-06-29_09h24.23.596,Colour_Asymmetry_Pilot,2022.1.3,Win32,144.092219,62bbe60bf3d75ef465d3e404,0,43,43,6,1,fourtwo,,,,,,,,,,,,,,,,,,,,,,,,,,,,,,,,,,,,,,,,,,,,,,,,,,,,,,,,,,,,,,,,,,,,,,,,,,,,,,,,,,,,,,,,,,,,,,,,,,,,,,,,,,,,,,,,,,,,,,,,,,,,,,,,,,,,,,,,,,,,,,,,,,,,,,,,
,,,,,,5e9f1f0a0de35f056a5ff749,62bbf99a7c64c9c732101e07,2022-06-29_09h24.23.596,Colour_Asymmetry_Pilot,2022.1.3,Win32,144.092219,62bbe60bf3d75ef465d3e404,0,44,44,109,1,threefour,,,,,,,,,,,,,,,,,,,,,,,,,,,,,,,,,,,,,,,,,,,,,,,,,,,,,,,,,,,,,,,,,,,,,,,,,,,,,,,,,,,,,,,,,,,,,,,,,,,,,,,,,,,,,,,,,,,,,,,,,,,,,,,,,,,,,,,,,,,,,,,,,,,,,,,,
,,,,,,5e9f1f0a0de35f056a5ff749,62bbf99a7c64c9c732101e07,2022-06-29_09h24.23.596,Colour_Asymmetry_Pilot,2022.1.3,Win32,144.092219,62bbe60bf3d75ef465d3e404,0,45,45,55,1,fourthree,,,,,,,,,,,,,,,,,,,,,,,,,,,,,,,,,,,,,,,,,,,,,,,,,,,,,,,,,,,,,,,,,,,,,,,,,,,,,,,,,,,,,,,,,,,,,,,,,,,,,,,,,,,,,,,,,,,,,,,,,,,,,,,,,,,,,,,,,,,,,,,,,,,,,,,,
,,,,,,5e9f1f0a0de35f056a5ff749,62bbf99a7c64c9c732101e07,2022-06-29_09h24.23.596,Colour_Asymmetry_Pilot,2022.1.3,Win32,144.092219,62bbe60bf3d75ef465d3e404,0,46,46,158,1,fourtwo,,,,,,,,,,,,,,,,,,,,,,,,,,,,,,,,,,,,,,,,,,,,,,,,,,,,,,,,,,,,,,,,,,,,,,,,,,,,,,,,,,,,,,,,,,,,,,,,,,,,,,,,,,,,,,,,,,,,,,,,,,,,,,,,,,,,,,,,,,,,,,,,,,,,,,,,
,,,,,,5e9f1f0a0de35f056a5ff749,62bbf99a7c64c9c732101e07,2022-06-29_09h24.23.596,Colour_Asymmetry_Pilot,2022.1.3,Win32,144.092219,62bbe60bf3d75ef465d3e404,0,47,47,44,1,threeone,,,,,,,,,,,,,,,,,,,,,,,,,,,,,,,,,,,,,,,,,,,,,,,,,,,,,,,,,,,,,,,,,,,,,,,,,,,,,,,,,,,,,,,,,,,,,,,,,,,,,,,,,,,,,,,,,,,,,,,,,,,,,,,,,,,,,,,,,,,,,,,,,,,,,,,,
,,,,,,5e9f1f0a0de35f056a5ff749,62bbf99a7c64c9c732101e07,2022-06-29_09h24.23.596,Colour_Asymmetry_Pilot,2022.1.3,Win32,144.092219,62bbe60bf3d75ef465d3e404,0,48,48,115,1,twofour,,,,,,,,,,,,,,,,,,,,,,,,,,,,,,,,,,,,,,,,,,,,,,,,,,,,,,,,,,,,,,,,,,,,,,,,,,,,,,,,,,,,,,,,,,,,,,,,,,,,,,,,,,,,,,,,,,,,,,,,,,,,,,,,,,,,,,,,,,,,,,,,,,,,,,,,
,,,,,,5e9f1f0a0de35f056a5ff749,62bbf99a7c64c9c732101e07,2022-06-29_09h24.23.596,Colour_Asymmetry_Pilot,2022.1.3,Win32,144.092219,62bbe60bf3d75ef465d3e404,0,49,49,43,1,twofour,,,,,,,,,,,,,,,,,,,,,,,,,,,,,,,,,,,,,,,,,,,,,,,,,,,,,,,,,,,,,,,,,,,,,,,,,,,,,,,,,,,,,,,,,,,,,,,,,,,,,,,,,,,,,,,,,,,,,,,,,,,,,,,,,,,,,,,,,,,,,,,,,,,,,,,,
,,,,,,5e9f1f0a0de35f056a5ff749,62bbf99a7c64c9c732101e07,2022-06-29_09h24.23.596,Colour_Asymmetry_Pilot,2022.1.3,Win32,144.092219,62bbe60bf3d75ef465d3e404,0,50,50,146,1,twoone,,,,,,,,,,,,,,,,,,,,,,,,,,,,,,,,,,,,,,,,,,,,,,,,,,,,,,,,,,,,,,,,,,,,,,,,,,,,,,,,,,,,,,,,,,,,,,,,,,,,,,,,,,,,,,,,,,,,,,,,,,,,,,,,,,,,,,,,,,,,,,,,,,,,,,,,
,,,,,,5e9f1f0a0de35f056a5ff749,62bbf99a7c64c9c732101e07,2022-06-29_09h24.23.596,Colour_Asymmetry_Pilot,2022.1.3,Win32,144.092219,62bbe60bf3d75ef465d3e404,0,51,51,2,1,twoone,,,,,,,,,,,,,,,,,,,,,,,,,,,,,,,,,,,,,,,,,,,,,,,,,,,,,,,,,,,,,,,,,,,,,,,,,,,,,,,,,,,,,,,,,,,,,,,,,,,,,,,,,,,,,,,,,,,,,,,,,,,,,,,,,,,,,,,,,,,,,,,,,,,,,,,,
,,,,,,5e9f1f0a0de35f056a5ff749,62bbf99a7c64c9c732101e07,2022-06-29_09h24.23.596,Colour_Asymmetry_Pilot,2022.1.3,Win32,144.092219,62bbe60bf3d75ef465d3e404,0,52,52,75,1,twofour,,,,,,,,,,,,,,,,,,,,,,,,,,,,,,,,,,,,,,,,,,,,,,,,,,,,,,,,,,,,,,,,,,,,,,,,,,,,,,,,,,,,,,,,,,,,,,,,,,,,,,,,,,,,,,,,,,,,,,,,,,,,,,,,,,,,,,,,,,,,,,,,,,,,,,,,
,,,,,,5e9f1f0a0de35f056a5ff749,62bbf99a7c64c9c732101e07,2022-06-29_09h24.23.596,Colour_Asymmetry_Pilot,2022.1.3,Win32,144.092219,62bbe60bf3d75ef465d3e404,0,53,53,93,1,threefour,,,,,,,,,,,,,,,,,,,,,,,,,,,,,,,,,,,,,,,,,,,,,,,,,,,,,,,,,,,,,,,,,,,,,,,,,,,,,,,,,,,,,,,,,,,,,,,,,,,,,,,,,,,,,,,,,,,,,,,,,,,,,,,,,,,,,,,,,,,,,,,,,,,,,,,,
,,,,,,5e9f1f0a0de35f056a5ff749,62bbf99a7c64c9c732101e07,2022-06-29_09h24.23.596,Colour_Asymmetry_Pilot,2022.1.3,Win32,144.092219,62bbe60bf3d75ef465d3e404,0,54,54,31,1,fourthree,,,,,,,,,,,,,,,,,,,,,,,,,,,,,,,,,,,,,,,,,,,,,,,,,,,,,,,,,,,,,,,,,,,,,,,,,,,,,,,,,,,,,,,,,,,,,,,,,,,,,,,,,,,,,,,,,,,,,,,,,,,,,,,,,,,,,,,,,,,,,,,,,,,,,,,,
,,,,,,5e9f1f0a0de35f056a5ff749,62bbf99a7c64c9c732101e07,2022-06-29_09h24.23.596,Colour_Asymmetry_Pilot,2022.1.3,Win32,144.092219,62bbe60bf3d75ef465d3e404,0,55,55,103,1,fourthree,,,,,,,,,,,,,,,,,,,,,,,,,,,,,,,,,,,,,,,,,,,,,,,,,,,,,,,,,,,,,,,,,,,,,,,,,,,,,,,,,,,,,,,,,,,,,,,,,,,,,,,,,,,,,,,,,,,,,,,,,,,,,,,,,,,,,,,,,,,,,,,,,,,,,,,,
,,,,,,5e9f1f0a0de35f056a5ff749,62bbf99a7c64c9c732101e07,2022-06-29_09h24.23.596,Colour_Asymmetry_Pilot,2022.1.3,Win32,144.092219,62bbe60bf3d75ef465d3e404,0,56,56,24,1,onetwo,,,,,,,,,,,,,,,,,,,,,,,,,,,,,,,,,,,,,,,,,,,,,,,,,,,,,,,,,,,,,,,,,,,,,,,,,,,,,,,,,,,,,,,,,,,,,,,,,,,,,,,,,,,,,,,,,,,,,,,,,,,,,,,,,,,,,,,,,,,,,,,,,,,,,,,,
,,,,,,5e9f1f0a0de35f056a5ff749,62bbf99a7c64c9c732101e07,2022-06-29_09h24.23.596,Colour_Asymmetry_Pilot,2022.1.3,Win32,144.092219,62bbe60bf3d75ef465d3e404,0,57,57,120,1,onetwo,,,,,,,,,,,,,,,,,,,,,,,,,,,,,,,,,,,,,,,,,,,,,,,,,,,,,,,,,,,,,,,,,,,,,,,,,,,,,,,,,,,,,,,,,,,,,,,,,,,,,,,,,,,,,,,,,,,,,,,,,,,,,,,,,,,,,,,,,,,,,,,,,,,,,,,,
,,,,,,5e9f1f0a0de35f056a5ff749,62bbf99a7c64c9c732101e07,2022-06-29_09h24.23.596,Colour_Asymmetry_Pilot,2022.1.3,Win32,144.092219,62bbe60bf3d75ef465d3e404,0,58,58,133,1,threefour,,,,,,,,,,,,,,,,,,,,,,,,,,,,,,,,,,,,,,,,,,,,,,,,,,,,,,,,,,,,,,,,,,,,,,,,,,,,,,,,,,,,,,,,,,,,,,,,,,,,,,,,,,,,,,,,,,,,,,,,,,,,,,,,,,,,,,,,,,,,,,,,,,,,,,,,
,,,,,,5e9f1f0a0de35f056a5ff749,62bbf99a7c64c9c732101e07,2022-06-29_09h24.23.596,Colour_Asymmetry_Pilot,2022.1.3,Win32,144.092219,62bbe60bf3d75ef465d3e404,0,59,59,40,1,onetwo,,,,,,,,,,,,,,,,,,,,,,,,,,,,,,,,,,,,,,,,,,,,,,,,,,,,,,,,,,,,,,,,,,,,,,,,,,,,,,,,,,,,,,,,,,,,,,,,,,,,,,,,,,,,,,,,,,,,,,,,,,,,,,,,,,,,,,,,,,,,,,,,,,,,,,,,
,,,,,,5e9f1f0a0de35f056a5ff749,62bbf99a7c64c9c732101e07,2022-06-29_09h24.23.596,Colour_Asymmetry_Pilot,2022.1.3,Win32,144.092219,62bbe60bf3d75ef465d3e404,0,60,60,117,1,threefour,,,,,,,,,,,,,,,,,,,,,,,,,,,,,,,,,,,,,,,,,,,,,,,,,,,,,,,,,,,,,,,,,,,,,,,,,,,,,,,,,,,,,,,,,,,,,,,,,,,,,,,,,,,,,,,,,,,,,,,,,,,,,,,,,,,,,,,,,,,,,,,,,,,,,,,,
,,,,,,5e9f1f0a0de35f056a5ff749,62bbf99a7c64c9c732101e07,2022-06-29_09h24.23.596,Colour_Asymmetry_Pilot,2022.1.3,Win32,144.092219,62bbe60bf3d75ef465d3e404,0,61,61,26,1,twoone,,,,,,,,,,,,,,,,,,,,,,,,,,,,,,,,,,,,,,,,,,,,,,,,,,,,,,,,,,,,,,,,,,,,,,,,,,,,,,,,,,,,,,,,,,,,,,,,,,,,,,,,,,,,,,,,,,,,,,,,,,,,,,,,,,,,,,,,,,,,,,,,,,,,,,,,
,,,,,,5e9f1f0a0de35f056a5ff749,62bbf99a7c64c9c732101e07,2022-06-29_09h24.23.596,Colour_Asymmetry_Pilot,2022.1.3,Win32,144.092219,62bbe60bf3d75ef465d3e404,0,62,62,137,1,onethree,,,,,,,,,,,,,,,,,,,,,,,,,,,,,,,,,,,,,,,,,,,,,,,,,,,,,,,,,,,,,,,,,,,,,,,,,,,,,,,,,,,,,,,,,,,,,,,,,,,,,,,,,,,,,,,,,,,,,,,,,,,,,,,,,,,,,,,,,,,,,,,,,,,,,,,,
,,,,,,5e9f1f0a0de35f056a5ff749,62bbf99a7c64c9c732101e07,2022-06-29_09h24.23.596,Colour_Asymmetry_Pilot,2022.1.3,Win32,144.092219,62bbe60bf3d75ef465d3e404,0,63,63,96,1,onetwo,,,,,,,,,,,,,,,,,,,,,,,,,,,,,,,,,,,,,,,,,,,,,,,,,,,,,,,,,,,,,,,,,,,,,,,,,,,,,,,,,,,,,,,,,,,,,,,,,,,,,,,,,,,,,,,,,,,,,,,,,,,,,,,,,,,,,,,,,,,,,,,,,,,,,,,,
,,,,,,5e9f1f0a0de35f056a5ff749,62bbf99a7c64c9c732101e07,2022-06-29_09h24.23.596,Colour_Asymmetry_Pilot,2022.1.3,Win32,144.092219,62bbe60bf3d75ef465d3e404,0,64,64,82,1,twoone,,,,,,,,,,,,,,,,,,,,,,,,,,,,,,,,,,,,,,,,,,,,,,,,,,,,,,,,,,,,,,,,,,,,,,,,,,,,,,,,,,,,,,,,,,,,,,,,,,,,,,,,,,,,,,,,,,,,,,,,,,,,,,,,,,,,,,,,,,,,,,,,,,,,,,,,
,,,,,,5e9f1f0a0de35f056a5ff749,62bbf99a7c64c9c732101e07,2022-06-29_09h24.23.596,Colour_Asymmetry_Pilot,2022.1.3,Win32,144.092219,62bbe60bf3d75ef465d3e404,0,65,65,1,1,onethree,,,,,,,,,,,,,,,,,,,,,,,,,,,,,,,,,,,,,,,,,,,,,,,,,,,,,,,,,,,,,,,,,,,,,,,,,,,,,,,,,,,,,,,,,,,,,,,,,,,,,,,,,,,,,,,,,,,,,,,,,,,,,,,,,,,,,,,,,,,,,,,,,,,,,,,,
,,,,,,5e9f1f0a0de35f056a5ff749,62bbf99a7c64c9c732101e07,2022-06-29_09h24.23.596,Colour_Asymmetry_Pilot,2022.1.3,Win32,144.092219,62bbe60bf3d75ef465d3e404,0,66,66,11,1,twofour,,,,,,,,,,,,,,,,,,,,,,,,,,,,,,,,,,,,,,,,,,,,,,,,,,,,,,,,,,,,,,,,,,,,,,,,,,,,,,,,,,,,,,,,,,,,,,,,,,,,,,,,,,,,,,,,,,,,,,,,,,,,,,,,,,,,,,,,,,,,,,,,,,,,,,,,
,,,,,,5e9f1f0a0de35f056a5ff749,62bbf99a7c64c9c732101e07,2022-06-29_09h24.23.596,Colour_Asymmetry_Pilot,2022.1.3,Win32,144.092219,62bbe60bf3d75ef465d3e404,0,67,67,22,1,fourtwo,,,,,,,,,,,,,,,,,,,,,,,,,,,,,,,,,,,,,,,,,,,,,,,,,,,,,,,,,,,,,,,,,,,,,,,,,,,,,,,,,,,,,,,,,,,,,,,,,,,,,,,,,,,,,,,,,,,,,,,,,,,,,,,,,,,,,,,,,,,,,,,,,,,,,,,,
,,,,,,5e9f1f0a0de35f056a5ff749,62bbf99a7c64c9c732101e07,2022-06-29_09h24.23.596,Colour_Asymmetry_Pilot,2022.1.3,Win32,144.092219,62bbe60bf3d75ef465d3e404,0,68,68,57,1,onethree,,,,,,,,,,,,,,,,,,,,,,,,,,,,,,,,,,,,,,,,,,,,,,,,,,,,,,,,,,,,,,,,,,,,,,,,,,,,,,,,,,,,,,,,,,,,,,,,,,,,,,,,,,,,,,,,,,,,,,,,,,,,,,,,,,,,,,,,,,,,,,,,,,,,,,,,
,,,,,,5e9f1f0a0de35f056a5ff749,62bbf99a7c64c9c732101e07,2022-06-29_09h24.23.596,Colour_Asymmetry_Pilot,2022.1.3,Win32,144.092219,62bbe60bf3d75ef465d3e404,0,69,69,112,1,onetwo,,,,,,,,,,,,,,,,,,,,,,,,,,,,,,,,,,,,,,,,,,,,,,,,,,,,,,,,,,,,,,,,,,,,,,,,,,,,,,,,,,,,,,,,,,,,,,,,,,,,,,,,,,,,,,,,,,,,,,,,,,,,,,,,,,,,,,,,,,,,,,,,,,,,,,,,
,,,,,,5e9f1f0a0de35f056a5ff749,62bbf99a7c64c9c732101e07,2022-06-29_09h24.23.596,Colour_Asymmetry_Pilot,2022.1.3,Win32,144.092219,62bbe60bf3d75ef465d3e404,0,70,70,29,1,threefour,,,,,,,,,,,,,,,,,,,,,,,,,,,,,,,,,,,,,,,,,,,,,,,,,,,,,,,,,,,,,,,,,,,,,,,,,,,,,,,,,,,,,,,,,,,,,,,,,,,,,,,,,,,,,,,,,,,,,,,,,,,,,,,,,,,,,,,,,,,,,,,,,,,,,,,,
,,,,,,5e9f1f0a0de35f056a5ff749,62bbf99a7c64c9c732101e07,2022-06-29_09h24.23.596,Colour_Asymmetry_Pilot,2022.1.3,Win32,144.092219,62bbe60bf3d75ef465d3e404,0,71,71,140,1,threeone,,,,,,,,,,,,,,,,,,,,,,,,,,,,,,,,,,,,,,,,,,,,,,,,,,,,,,,,,,,,,,,,,,,,,,,,,,,,,,,,,,,,,,,,,,,,,,,,,,,,,,,,,,,,,,,,,,,,,,,,,,,,,,,,,,,,,,,,,,,,,,,,,,,,,,,,
,,,,,,5e9f1f0a0de35f056a5ff749,62bbf99a7c64c9c732101e07,2022-06-29_09h24.23.596,Colour_Asymmetry_Pilot,2022.1.3,Win32,144.092219,62bbe60bf3d75ef465d3e404,0,72,72,159,1,fourthree,,,,,,,,,,,,,,,,,,,,,,,,,,,,,,,,,,,,,,,,,,,,,,,,,,,,,,,,,,,,,,,,,,,,,,,,,,,,,,,,,,,,,,,,,,,,,,,,,,,,,,,,,,,,,,,,,,,,,,,,,,,,,,,,,,,,,,,,,,,,,,,,,,,,,,,,
,,,,,,5e9f1f0a0de35f056a5ff749,62bbf99a7c64c9c732101e07,2022-06-29_09h24.23.596,Colour_Asymmetry_Pilot,2022.1.3,Win32,144.092219,62bbe60bf3d75ef465d3e404,0,73,73,85,1,threefour,,,,,,,,,,,,,,,,,,,,,,,,,,,,,,,,,,,,,,,,,,,,,,,,,,,,,,,,,,,,,,,,,,,,,,,,,,,,,,,,,,,,,,,,,,,,,,,,,,,,,,,,,,,,,,,,,,,,,,,,,,,,,,,,,,,,,,,,,,,,,,,,,,,,,,,,
,,,,,,5e9f1f0a0de35f056a5ff749,62bbf99a7c64c9c732101e07,2022-06-29_09h24.23.596,Colour_Asymmetry_Pilot,2022.1.3,Win32,144.092219,62bbe60bf3d75ef465d3e404,0,74,74,86,1,fourtwo,,,,,,,,,,,,,,,,,,,,,,,,,,,,,,,,,,,,,,,,,,,,,,,,,,,,,,,,,,,,,,,,,,,,,,,,,,,,,,,,,,,,,,,,,,,,,,,,,,,,,,,,,,,,,,,,,,,,,,,,,,,,,,,,,,,,,,,,,,,,,,,,,,,,,,,,
,,,,,,5e9f1f0a0de35f056a5ff749,62bbf99a7c64c9c732101e07,2022-06-29_09h24.23.596,Colour_Asymmetry_Pilot,2022.1.3,Win32,144.092219,62bbe60bf3d75ef465d3e404,0,75,75,104,1,onetwo,,,,,,,,,,,,,,,,,,,,,,,,,,,,,,,,,,,,,,,,,,,,,,,,,,,,,,,,,,,,,,,,,,,,,,,,,,,,,,,,,,,,,,,,,,,,,,,,,,,,,,,,,,,,,,,,,,,,,,,,,,,,,,,,,,,,,,,,,,,,,,,,,,,,,,,,
,,,,,,5e9f1f0a0de35f056a5ff749,62bbf99a7c64c9c732101e07,2022-06-29_09h24.23.596,Colour_Asymmetry_Pilot,2022.1.3,Win32,144.092219,62bbe60bf3d75ef465d3e404,0,76,76,155,1,twofour,,,,,,,,,,,,,,,,,,,,,,,,,,,,,,,,,,,,,,,,,,,,,,,,,,,,,,,,,,,,,,,,,,,,,,,,,,,,,,,,,,,,,,,,,,,,,,,,,,,,,,,,,,,,,,,,,,,,,,,,,,,,,,,,,,,,,,,,,,,,,,,,,,,,,,,,
,,,,,,5e9f1f0a0de35f056a5ff749,62bbf99a7c64c9c732101e07,2022-06-29_09h24.23.596,Colour_Asymmetry_Pilot,2022.1.3,Win32,144.092219,62bbe60bf3d75ef465d3e404,0,77,77,92,1,threeone,,,,,,,,,,,,,,,,,,,,,,,,,,,,,,,,,,,,,,,,,,,,,,,,,,,,,,,,,,,,,,,,,,,,,,,,,,,,,,,,,,,,,,,,,,,,,,,,,,,,,,,,,,,,,,,,,,,,,,,,,,,,,,,,,,,,,,,,,,,,,,,,,,,,,,,,
,,,,,,5e9f1f0a0de35f056a5ff749,62bbf99a7c64c9c732101e07,2022-06-29_09h24.23.596,Colour_Asymmetry_Pilot,2022.1.3,Win32,144.092219,62bbe60bf3d75ef465d3e404,0,78,78,148,1,threeone,,,,,,,,,,,,,,,,,,,,,,,,,,,,,,,,,,,,,,,,,,,,,,,,,,,,,,,,,,,,,,,,,,,,,,,,,,,,,,,,,,,,,,,,,,,,,,,,,,,,,,,,,,,,,,,,,,,,,,,,,,,,,,,,,,,,,,,,,,,,,,,,,,,,,,,,
,,,,,,5e9f1f0a0de35f056a5ff749,62bbf99a7c64c9c732101e07,2022-06-29_09h24.23.596,Colour_Asymmetry_Pilot,2022.1.3,Win32,144.092219,62bbe60bf3d75ef465d3e404,0,79,79,32,1,onetwo,,,,,,,,,,,,,,,,,,,,,,,,,,,,,,,,,,,,,,,,,,,,,,,,,,,,,,,,,,,,,,,,,,,,,,,,,,,,,,,,,,,,,,,,,,,,,,,,,,,,,,,,,,,,,,,,,,,,,,,,,,,,,,,,,,,,,,,,,,,,,,,,,,,,,,,,
,,,,,,5e9f1f0a0de35f056a5ff749,62bbf99a7c64c9c732101e07,2022-06-29_09h24.23.596,Colour_Asymmetry_Pilot,2022.1.3,Win32,144.092219,62bbe60bf3d75ef465d3e404,0,80,80,147,1,twofour,,,,,,,,,,,,,,,,,,,,,,,,,,,,,,,,,,,,,,,,,,,,,,,,,,,,,,,,,,,,,,,,,,,,,,,,,,,,,,,,,,,,,,,,,,,,,,,,,,,,,,,,,,,,,,,,,,,,,,,,,,,,,,,,,,,,,,,,,,,,,,,,,,,,,,,,
,,,,,,5e9f1f0a0de35f056a5ff749,62bbf99a7c64c9c732101e07,2022-06-29_09h24.23.596,Colour_Asymmetry_Pilot,2022.1.3,Win32,144.092219,62bbe60bf3d75ef465d3e404,0,81,81,3,1,twofour,,,,,,,,,,,,,,,,,,,,,,,,,,,,,,,,,,,,,,,,,,,,,,,,,,,,,,,,,,,,,,,,,,,,,,,,,,,,,,,,,,,,,,,,,,,,,,,,,,,,,,,,,,,,,,,,,,,,,,,,,,,,,,,,,,,,,,,,,,,,,,,,,,,,,,,,
,,,,,,5e9f1f0a0de35f056a5ff749,62bbf99a7c64c9c732101e07,2022-06-29_09h24.23.596,Colour_Asymmetry_Pilot,2022.1.3,Win32,144.092219,62bbe60bf3d75ef465d3e404,0,82,82,65,1,onethree,,,,,,,,,,,,,,,,,,,,,,,,,,,,,,,,,,,,,,,,,,,,,,,,,,,,,,,,,,,,,,,,,,,,,,,,,,,,,,,,,,,,,,,,,,,,,,,,,,,,,,,,,,,,,,,,,,,,,,,,,,,,,,,,,,,,,,,,,,,,,,,,,,,,,,,,
,,,,,,5e9f1f0a0de35f056a5ff749,62bbf99a7c64c9c732101e07,2022-06-29_09h24.23.596,Colour_Asymmetry_Pilot,2022.1.3,Win32,144.092219,62bbe60bf3d75ef465d3e404,0,83,83,144,1,onetwo,,,,,,,,,,,,,,,,,,,,,,,,,,,,,,,,,,,,,,,,,,,,,,,,,,,,,,,,,,,,,,,,,,,,,,,,,,,,,,,,,,,,,,,,,,,,,,,,,,,,,,,,,,,,,,,,,,,,,,,,,,,,,,,,,,,,,,,,,,,,,,,,,,,,,,,,
,,,,,,5e9f1f0a0de35f056a5ff749,62bbf99a7c64c9c732101e07,2022-06-29_09h24.23.596,Colour_Asymmetry_Pilot,2022.1.3,Win32,144.092219,62bbe60bf3d75ef465d3e404,0,84,84,161,1,onethree,,,,,,,,,,,,,,,,,,,,,,,,,,,,,,,,,,,,,,,,,,,,,,,,,,,,,,,,,,,,,,,,,,,,,,,,,,,,,,,,,,,,,,,,,,,,,,,,,,,,,,,,,,,,,,,,,,,,,,,,,,,,,,,,,,,,,,,,,,,,,,,,,,,,,,,,
,,,,,,5e9f1f0a0de35f056a5ff749,62bbf99a7c64c9c732101e07,2022-06-29_09h24.23.596,Colour_Asymmetry_Pilot,2022.1.3,Win32,144.092219,62bbe60bf3d75ef465d3e404,0,85,85,89,1,onethree,,,,,,,,,,,,,,,,,,,,,,,,,,,,,,,,,,,,,,,,,,,,,,,,,,,,,,,,,,,,,,,,,,,,,,,,,,,,,,,,,,,,,,,,,,,,,,,,,,,,,,,,,,,,,,,,,,,,,,,,,,,,,,,,,,,,,,,,,,,,,,,,,,,,,,,,
,,,,,,5e9f1f0a0de35f056a5ff749,62bbf99a7c64c9c732101e07,2022-06-29_09h24.23.596,Colour_Asymmetry_Pilot,2022.1.3,Win32,144.092219,62bbe60bf3d75ef465d3e404,0,86,86,154,1,twoone,,,,,,,,,,,,,,,,,,,,,,,,,,,,,,,,,,,,,,,,,,,,,,,,,,,,,,,,,,,,,,,,,,,,,,,,,,,,,,,,,,,,,,,,,,,,,,,,,,,,,,,,,,,,,,,,,,,,,,,,,,,,,,,,,,,,,,,,,,,,,,,,,,,,,,,,
,,,,,,5e9f1f0a0de35f056a5ff749,62bbf99a7c64c9c732101e07,2022-06-29_09h24.23.596,Colour_Asymmetry_Pilot,2022.1.3,Win32,144.092219,62bbe60bf3d75ef465d3e404,0,87,87,130,1,twoone,,,,,,,,,,,,,,,,,,,,,,,,,,,,,,,,,,,,,,,,,,,,,,,,,,,,,,,,,,,,,,,,,,,,,,,,,,,,,,,,,,,,,,,,,,,,,,,,,,,,,,,,,,,,,,,,,,,,,,,,,,,,,,,,,,,,,,,,,,,,,,,,,,,,,,,,
,,,,,,5e9f1f0a0de35f056a5ff749,62bbf99a7c64c9c732101e07,2022-06-29_09h24.23.596,Colour_Asymmetry_Pilot,2022.1.3,Win32,144.092219,62bbe60bf3d75ef465d3e404,0,88,88,33,1,onethree,,,,,,,,,,,,,,,,,,,,,,,,,,,,,,,,,,,,,,,,,,,,,,,,,,,,,,,,,,,,,,,,,,,,,,,,,,,,,,,,,,,,,,,,,,,,,,,,,,,,,,,,,,,,,,,,,,,,,,,,,,,,,,,,,,,,,,,,,,,,,,,,,,,,,,,,
,,,,,,5e9f1f0a0de35f056a5ff749,62bbf99a7c64c9c732101e07,2022-06-29_09h24.23.596,Colour_Asymmetry_Pilot,2022.1.3,Win32,144.092219,62bbe60bf3d75ef465d3e404,0,89,89,35,1,twofour,,,,,,,,,,,,,,,,,,,,,,,,,,,,,,,,,,,,,,,,,,,,,,,,,,,,,,,,,,,,,,,,,,,,,,,,,,,,,,,,,,,,,,,,,,,,,,,,,,,,,,,,,,,,,,,,,,,,,,,,,,,,,,,,,,,,,,,,,,,,,,,,,,,,,,,,
,,,,,,5e9f1f0a0de35f056a5ff749,62bbf99a7c64c9c732101e07,2022-06-29_09h24.23.596,Colour_Asymmetry_Pilot,2022.1.3,Win32,144.092219,62bbe60bf3d75ef465d3e404,0,90,90,149,1,threefour,,,,,,,,,,,,,,,,,,,,,,,,,,,,,,,,,,,,,,,,,,,,,,,,,,,,,,,,,,,,,,,,,,,,,,,,,,,,,,,,,,,,,,,,,,,,,,,,,,,,,,,,,,,,,,,,,,,,,,,,,,,,,,,,,,,,,,,,,,,,,,,,,,,,,,,,
,,,,,,5e9f1f0a0de35f056a5ff749,62bbf99a7c64c9c732101e07,2022-06-29_09h24.23.596,Colour_Asymmetry_Pilot,2022.1.3,Win32,144.092219,62bbe60bf3d75ef465d3e404,0,91,91,54,1,fourtwo,,,,,,,,,,,,,,,,,,,,,,,,,,,,,,,,,,,,,,,,,,,,,,,,,,,,,,,,,,,,,,,,,,,,,,,,,,,,,,,,,,,,,,,,,,,,,,,,,,,,,,,,,,,,,,,,,,,,,,,,,,,,,,,,,,,,,,,,,,,,,,,,,,,,,,,,
,,,,,,5e9f1f0a0de35f056a5ff749,62bbf99a7c64c9c732101e07,2022-06-29_09h24.23.596,Colour_Asymmetry_Pilot,2022.1.3,Win32,144.092219,62bbe60bf3d75ef465d3e404,0,92,92,76,1,threeone,,,,,,,,,,,,,,,,,,,,,,,,,,,,,,,,,,,,,,,,,,,,,,,,,,,,,,,,,,,,,,,,,,,,,,,,,,,,,,,,,,,,,,,,,,,,,,,,,,,,,,,,,,,,,,,,,,,,,,,,,,,,,,,,,,,,,,,,,,,,,,,,,,,,,,,,
,,,,,,5e9f1f0a0de35f056a5ff749,62bbf99a7c64c9c732101e07,2022-06-29_09h24.23.596,Colour_Asymmetry_Pilot,2022.1.3,Win32,144.092219,62bbe60bf3d75ef465d3e404,0,93,93,34,1,twoone,,,,,,,,,,,,,,,,,,,,,,,,,,,,,,,,,,,,,,,,,,,,,,,,,,,,,,,,,,,,,,,,,,,,,,,,,,,,,,,,,,,,,,,,,,,,,,,,,,,,,,,,,,,,,,,,,,,,,,,,,,,,,,,,,,,,,,,,,,,,,,,,,,,,,,,,
,,,,,,5e9f1f0a0de35f056a5ff749,62bbf99a7c64c9c732101e07,2022-06-29_09h24.23.596,Colour_Asymmetry_Pilot,2022.1.3,Win32,144.092219,62bbe60bf3d75ef465d3e404,0,94,94,101,1,threefour,,,,,,,,,,,,,,,,,,,,,,,,,,,,,,,,,,,,,,,,,,,,,,,,,,,,,,,,,,,,,,,,,,,,,,,,,,,,,,,,,,,,,,,,,,,,,,,,,,,,,,,,,,,,,,,,,,,,,,,,,,,,,,,,,,,,,,,,,,,,,,,,,,,,,,,,
,,,,,,5e9f1f0a0de35f056a5ff749,62bbf99a7c64c9c732101e07,2022-06-29_09h24.23.596,Colour_Asymmetry_Pilot,2022.1.3,Win32,144.092219,62bbe60bf3d75ef465d3e404,0,95,95,102,1,fourtwo,,,,,,,,,,,,,,,,,,,,,,,,,,,,,,,,,,,,,,,,,,,,,,,,,,,,,,,,,,,,,,,,,,,,,,,,,,,,,,,,,,,,,,,,,,,,,,,,,,,,,,,,,,,,,,,,,,,,,,,,,,,,,,,,,,,,,,,,,,,,,,,,,,,,,,,,
,,,,,,5e9f1f0a0de35f056a5ff749,62bbf99a7c64c9c732101e07,2022-06-29_09h24.23.596,Colour_Asymmetry_Pilot,2022.1.3,Win32,144.092219,62bbe60bf3d75ef465d3e404,0,96,96,58,1,twoone,,,,,,,,,,,,,,,,,,,,,,,,,,,,,,,,,,,,,,,,,,,,,,,,,,,,,,,,,,,,,,,,,,,,,,,,,,,,,,,,,,,,,,,,,,,,,,,,,,,,,,,,,,,,,,,,,,,,,,,,,,,,,,,,,,,,,,,,,,,,,,,,,,,,,,,,
,,,,,,5e9f1f0a0de35f056a5ff749,62bbf99a7c64c9c732101e07,2022-06-29_09h24.23.596,Colour_Asymmetry_Pilot,2022.1.3,Win32,144.092219,62bbe60bf3d75ef465d3e404,0,97,97,17,1,onethree,,,,,,,,,,,,,,,,,,,,,,,,,,,,,,,,,,,,,,,,,,,,,,,,,,,,,,,,,,,,,,,,,,,,,,,,,,,,,,,,,,,,,,,,,,,,,,,,,,,,,,,,,,,,,,,,,,,,,,,,,,,,,,,,,,,,,,,,,,,,,,,,,,,,,,,,
,,,,,,5e9f1f0a0de35f056a5ff749,62bbf99a7c64c9c732101e07,2022-06-29_09h24.23.596,Colour_Asymmetry_Pilot,2022.1.3,Win32,144.092219,62bbe60bf3d75ef465d3e404,0,98,98,108,1,threeone,,,,,,,,,,,,,,,,,,,,,,,,,,,,,,,,,,,,,,,,,,,,,,,,,,,,,,,,,,,,,,,,,,,,,,,,,,,,,,,,,,,,,,,,,,,,,,,,,,,,,,,,,,,,,,,,,,,,,,,,,,,,,,,,,,,,,,,,,,,,,,,,,,,,,,,,
,,,,,,5e9f1f0a0de35f056a5ff749,62bbf99a7c64c9c732101e07,2022-06-29_09h24.23.596,Colour_Asymmetry_Pilot,2022.1.3,Win32,144.092219,62bbe60bf3d75ef465d3e404,0,99,99,41,1,onethree,,,,,,,,,,,,,,,,,,,,,,,,,,,,,,,,,,,,,,,,,,,,,,,,,,,,,,,,,,,,,,,,,,,,,,,,,,,,,,,,,,,,,,,,,,,,,,,,,,,,,,,,,,,,,,,,,,,,,,,,,,,,,,,,,,,,,,,,,,,,,,,,,,,,,,,,
,,,,,,5e9f1f0a0de35f056a5ff749,62bbf99a7c64c9c732101e07,2022-06-29_09h24.23.596,Colour_Asymmetry_Pilot,2022.1.3,Win32,144.092219,62bbe60bf3d75ef465d3e404,0,100,100,9,1,onethree,,,,,,,,,,,,,,,,,,,,,,,,,,,,,,,,,,,,,,,,,,,,,,,,,,,,,,,,,,,,,,,,,,,,,,,,,,,,,,,,,,,,,,,,,,,,,,,,,,,,,,,,,,,,,,,,,,,,,,,,,,,,,,,,,,,,,,,,,,,,,,,,,,,,,,,,
,,,,,,5e9f1f0a0de35f056a5ff749,62bbf99a7c64c9c732101e07,2022-06-29_09h24.23.596,Colour_Asymmetry_Pilot,2022.1.3,Win32,144.092219,62bbe60bf3d75ef465d3e404,0,101,101,152,1,onetwo,,,,,,,,,,,,,,,,,,,,,,,,,,,,,,,,,,,,,,,,,,,,,,,,,,,,,,,,,,,,,,,,,,,,,,,,,,,,,,,,,,,,,,,,,,,,,,,,,,,,,,,,,,,,,,,,,,,,,,,,,,,,,,,,,,,,,,,,,,,,,,,,,,,,,,,,
,,,,,,5e9f1f0a0de35f056a5ff749,62bbf99a7c64c9c732101e07,2022-06-29_09h24.23.596,Colour_Asymmetry_Pilot,2022.1.3,Win32,144.092219,62bbe60bf3d75ef465d3e404,0,102,102,111,1,fourthree,,,,,,,,,,,,,,,,,,,,,,,,,,,,,,,,,,,,,,,,,,,,,,,,,,,,,,,,,,,,,,,,,,,,,,,,,,,,,,,,,,,,,,,,,,,,,,,,,,,,,,,,,,,,,,,,,,,,,,,,,,,,,,,,,,,,,,,,,,,,,,,,,,,,,,,,
,,,,,,5e9f1f0a0de35f056a5ff749,62bbf99a7c64c9c732101e07,2022-06-29_09h24.23.596,Colour_Asymmetry_Pilot,2022.1.3,Win32,144.092219,62bbe60bf3d75ef465d3e404,0,103,103,107,1,twofour,,,,,,,,,,,,,,,,,,,,,,,,,,,,,,,,,,,,,,,,,,,,,,,,,,,,,,,,,,,,,,,,,,,,,,,,,,,,,,,,,,,,,,,,,,,,,,,,,,,,,,,,,,,,,,,,,,,,,,,,,,,,,,,,,,,,,,,,,,,,,,,,,,,,,,,,
,,,,,,5e9f1f0a0de35f056a5ff749,62bbf99a7c64c9c732101e07,2022-06-29_09h24.23.596,Colour_Asymmetry_Pilot,2022.1.3,Win32,144.092219,62bbe60bf3d75ef465d3e404,0,104,104,13,1,threefour,,,,,,,,,,,,,,,,,,,,,,,,,,,,,,,,,,,,,,,,,,,,,,,,,,,,,,,,,,,,,,,,,,,,,,,,,,,,,,,,,,,,,,,,,,,,,,,,,,,,,,,,,,,,,,,,,,,,,,,,,,,,,,,,,,,,,,,,,,,,,,,,,,,,,,,,
,,,,,,5e9f1f0a0de35f056a5ff749,62bbf99a7c64c9c732101e07,2022-06-29_09h24.23.596,Colour_Asymmetry_Pilot,2022.1.3,Win32,144.092219,62bbe60bf3d75ef465d3e404,0,105,105,70,1,fourtwo,,,,,,,,,,,,,,,,,,,,,,,,,,,,,,,,,,,,,,,,,,,,,,,,,,,,,,,,,,,,,,,,,,,,,,,,,,,,,,,,,,,,,,,,,,,,,,,,,,,,,,,,,,,,,,,,,,,,,,,,,,,,,,,,,,,,,,,,,,,,,,,,,,,,,,,,
,,,,,,5e9f1f0a0de35f056a5ff749,62bbf99a7c64c9c732101e07,2022-06-29_09h24.23.596,Colour_Asymmetry_Pilot,2022.1.3,Win32,144.092219,62bbe60bf3d75ef465d3e404,0,106,106,132,1,threeone,,,,,,,,,,,,,,,,,,,,,,,,,,,,,,,,,,,,,,,,,,,,,,,,,,,,,,,,,,,,,,,,,,,,,,,,,,,,,,,,,,,,,,,,,,,,,,,,,,,,,,,,,,,,,,,,,,,,,,,,,,,,,,,,,,,,,,,,,,,,,,,,,,,,,,,,
,,,,,,5e9f1f0a0de35f056a5ff749,62bbf99a7c64c9c732101e07,2022-06-29_09h24.23.596,Colour_Asymmetry_Pilot,2022.1.3,Win32,144.092219,62bbe60bf3d75ef465d3e404,0,107,107,19,1,twofour,,,,,,,,,,,,,,,,,,,,,,,,,,,,,,,,,,,,,,,,,,,,,,,,,,,,,,,,,,,,,,,,,,,,,,,,,,,,,,,,,,,,,,,,,,,,,,,,,,,,,,,,,,,,,,,,,,,,,,,,,,,,,,,,,,,,,,,,,,,,,,,,,,,,,,,,
,,,,,,5e9f1f0a0de35f056a5ff749,62bbf99a7c64c9c732101e07,2022-06-29_09h24.23.596,Colour_Asymmetry_Pilot,2022.1.3,Win32,144.092219,62bbe60bf3d75ef465d3e404,0,108,108,124,1,threeone,,,,,,,,,,,,,,,,,,,,,,,,,,,,,,,,,,,,,,,,,,,,,,,,,,,,,,,,,,,,,,,,,,,,,,,,,,,,,,,,,,,,,,,,,,,,,,,,,,,,,,,,,,,,,,,,,,,,,,,,,,,,,,,,,,,,,,,,,,,,,,,,,,,,,,,,
,,,,,,5e9f1f0a0de35f056a5ff749,62bbf99a7c64c9c732101e07,2022-06-29_09h24.23.596,Colour_Asymmetry_Pilot,2022.1.3,Win32,144.092219,62bbe60bf3d75ef465d3e404,0,109,109,62,1,fourtwo,,,,,,,,,,,,,,,,,,,,,,,,,,,,,,,,,,,,,,,,,,,,,,,,,,,,,,,,,,,,,,,,,,,,,,,,,,,,,,,,,,,,,,,,,,,,,,,,,,,,,,,,,,,,,,,,,,,,,,,,,,,,,,,,,,,,,,,,,,,,,,,,,,,,,,,,
,,,,,,5e9f1f0a0de35f056a5ff749,62bbf99a7c64c9c732101e07,2022-06-29_09h24.23.596,Colour_Asymmetry_Pilot,2022.1.3,Win32,144.092219,62bbe60bf3d75ef465d3e404,0,110,110,63,1,fourthree,,,,,,,,,,,,,,,,,,,,,,,,,,,,,,,,,,,,,,,,,,,,,,,,,,,,,,,,,,,,,,,,,,,,,,,,,,,,,,,,,,,,,,,,,,,,,,,,,,,,,,,,,,,,,,,,,,,,,,,,,,,,,,,,,,,,,,,,,,,,,,,,,,,,,,,,
,,,,,,5e9f1f0a0de35f056a5ff749,62bbf99a7c64c9c732101e07,2022-06-29_09h24.23.596,Colour_Asymmetry_Pilot,2022.1.3,Win32,144.092219,62bbe60bf3d75ef465d3e404,0,111,111,4,1,threeone,,,,,,,,,,,,,,,,,,,,,,,,,,,,,,,,,,,,,,,,,,,,,,,,,,,,,,,,,,,,,,,,,,,,,,,,,,,,,,,,,,,,,,,,,,,,,,,,,,,,,,,,,,,,,,,,,,,,,,,,,,,,,,,,,,,,,,,,,,,,,,,,,,,,,,,,
,,,,,,5e9f1f0a0de35f056a5ff749,62bbf99a7c64c9c732101e07,2022-06-29_09h24.23.596,Colour_Asymmetry_Pilot,2022.1.3,Win32,144.092219,62bbe60bf3d75ef465d3e404,0,112,112,30,1,fourtwo,,,,,,,,,,,,,,,,,,,,,,,,,,,,,,,,,,,,,,,,,,,,,,,,,,,,,,,,,,,,,,,,,,,,,,,,,,,,,,,,,,,,,,,,,,,,,,,,,,,,,,,,,,,,,,,,,,,,,,,,,,,,,,,,,,,,,,,,,,,,,,,,,,,,,,,,
,,,,,,5e9f1f0a0de35f056a5ff749,62bbf99a7c64c9c732101e07,2022-06-29_09h24.23.596,Colour_Asymmetry_Pilot,2022.1.3,Win32,144.092219,62bbe60bf3d75ef465d3e404,0,113,113,99,1,twofour,,,,,,,,,,,,,,,,,,,,,,,,,,,,,,,,,,,,,,,,,,,,,,,,,,,,,,,,,,,,,,,,,,,,,,,,,,,,,,,,,,,,,,,,,,,,,,,,,,,,,,,,,,,,,,,,,,,,,,,,,,,,,,,,,,,,,,,,,,,,,,,,,,,,,,,,
,,,,,,5e9f1f0a0de35f056a5ff749,62bbf99a7c64c9c732101e07,2022-06-29_09h24.23.596,Colour_Asymmetry_Pilot,2022.1.3,Win32,144.092219,62bbe60bf3d75ef465d3e404,0,114,114,125,1,threefour,,,,,,,,,,,,,,,,,,,,,,,,,,,,,,,,,,,,,,,,,,,,,,,,,,,,,,,,,,,,,,,,,,,,,,,,,,,,,,,,,,,,,,,,,,,,,,,,,,,,,,,,,,,,,,,,,,,,,,,,,,,,,,,,,,,,,,,,,,,,,,,,,,,,,,,,
,,,,,,5e9f1f0a0de35f056a5ff749,62bbf99a7c64c9c732101e07,2022-06-29_09h24.23.596,Colour_Asymmetry_Pilot,2022.1.3,Win32,144.092219,62bbe60bf3d75ef465d3e404,0,115,115,48,1,onetwo,,,,,,,,,,,,,,,,,,,,,,,,,,,,,,,,,,,,,,,,,,,,,,,,,,,,,,,,,,,,,,,,,,,,,,,,,,,,,,,,,,,,,,,,,,,,,,,,,,,,,,,,,,,,,,,,,,,,,,,,,,,,,,,,,,,,,,,,,,,,,,,,,,,,,,,,
,,,,,,5e9f1f0a0de35f056a5ff749,62bbf99a7c64c9c732101e07,2022-06-29_09h24.23.596,Colour_Asymmetry_Pilot,2022.1.3,Win32,144.092219,62bbe60bf3d75ef465d3e404,0,116,116,68,1,threeone,,,,,,,,,,,,,,,,,,,,,,,,,,,,,,,,,,,,,,,,,,,,,,,,,,,,,,,,,,,,,,,,,,,,,,,,,,,,,,,,,,,,,,,,,,,,,,,,,,,,,,,,,,,,,,,,,,,,,,,,,,,,,,,,,,,,,,,,,,,,,,,,,,,,,,,,
,,,,,,5e9f1f0a0de35f056a5ff749,62bbf99a7c64c9c732101e07,2022-06-29_09h24.23.596,Colour_Asymmetry_Pilot,2022.1.3,Win32,144.092219,62bbe60bf3d75ef465d3e404,0,117,117,128,1,onetwo,,,,,,,,,,,,,,,,,,,,,,,,,,,,,,,,,,,,,,,,,,,,,,,,,,,,,,,,,,,,,,,,,,,,,,,,,,,,,,,,,,,,,,,,,,,,,,,,,,,,,,,,,,,,,,,,,,,,,,,,,,,,,,,,,,,,,,,,,,,,,,,,,,,,,,,,
,,,,,,5e9f1f0a0de35f056a5ff749,62bbf99a7c64c9c732101e07,2022-06-29_09h24.23.596,Colour_Asymmetry_Pilot,2022.1.3,Win32,144.092219,62bbe60bf3d75ef465d3e404,0,118,118,105,1,onethree,,,,,,,,,,,,,,,,,,,,,,,,,,,,,,,,,,,,,,,,,,,,,,,,,,,,,,,,,,,,,,,,,,,,,,,,,,,,,,,,,,,,,,,,,,,,,,,,,,,,,,,,,,,,,,,,,,,,,,,,,,,,,,,,,,,,,,,,,,,,,,,,,,,,,,,,
,,,,,,5e9f1f0a0de35f056a5ff749,62bbf99a7c64c9c732101e07,2022-06-29_09h24.23.596,Colour_Asymmetry_Pilot,2022.1.3,Win32,144.092219,62bbe60bf3d75ef465d3e404,0,119,119,74,1,twoone,,,,,,,,,,,,,,,,,,,,,,,,,,,,,,,,,,,,,,,,,,,,,,,,,,,,,,,,,,,,,,,,,,,,,,,,,,,,,,,,,,,,,,,,,,,,,,,,,,,,,,,,,,,,,,,,,,,,,,,,,,,,,,,,,,,,,,,,,,,,,,,,,,,,,,,,
,,,,,,5e9f1f0a0de35f056a5ff749,62bbf99a7c64c9c732101e07,2022-06-29_09h24.23.596,Colour_Asymmetry_Pilot,2022.1.3,Win32,144.092219,62bbe60bf3d75ef465d3e404,0,120,120,153,1,onethree,,,,,,,,,,,,,,,,,,,,,,,,,,,,,,,,,,,,,,,,,,,,,,,,,,,,,,,,,,,,,,,,,,,,,,,,,,,,,,,,,,,,,,,,,,,,,,,,,,,,,,,,,,,,,,,,,,,,,,,,,,,,,,,,,,,,,,,,,,,,,,,,,,,,,,,,
,,,,,,5e9f1f0a0de35f056a5ff749,62bbf99a7c64c9c732101e07,2022-06-29_09h24.23.596,Colour_Asymmetry_Pilot,2022.1.3,Win32,144.092219,62bbe60bf3d75ef465d3e404,0,121,121,97,1,onethree,,,,,,,,,,,,,,,,,,,,,,,,,,,,,,,,,,,,,,,,,,,,,,,,,,,,,,,,,,,,,,,,,,,,,,,,,,,,,,,,,,,,,,,,,,,,,,,,,,,,,,,,,,,,,,,,,,,,,,,,,,,,,,,,,,,,,,,,,,,,,,,,,,,,,,,,
,,,,,,5e9f1f0a0de35f056a5ff749,62bbf99a7c64c9c732101e07,2022-06-29_09h24.23.596,Colour_Asymmetry_Pilot,2022.1.3,Win32,144.092219,62bbe60bf3d75ef465d3e404,0,122,122,139,1,twofour,,,,,,,,,,,,,,,,,,,,,,,,,,,,,,,,,,,,,,,,,,,,,,,,,,,,,,,,,,,,,,,,,,,,,,,,,,,,,,,,,,,,,,,,,,,,,,,,,,,,,,,,,,,,,,,,,,,,,,,,,,,,,,,,,,,,,,,,,,,,,,,,,,,,,,,,
,,,,,,5e9f1f0a0de35f056a5ff749,62bbf99a7c64c9c732101e07,2022-06-29_09h24.23.596,Colour_Asymmetry_Pilot,2022.1.3,Win32,144.092219,62bbe60bf3d75ef465d3e404,0,123,123,135,1,fourthree,,,,,,,,,,,,,,,,,,,,,,,,,,,,,,,,,,,,,,,,,,,,,,,,,,,,,,,,,,,,,,,,,,,,,,,,,,,,,,,,,,,,,,,,,,,,,,,,,,,,,,,,,,,,,,,,,,,,,,,,,,,,,,,,,,,,,,,,,,,,,,,,,,,,,,,,
,,,,,,5e9f1f0a0de35f056a5ff749,62bbf99a7c64c9c732101e07,2022-06-29_09h24.23.596,Colour_Asymmetry_Pilot,2022.1.3,Win32,144.092219,62bbe60bf3d75ef465d3e404,0,124,124,134,1,fourtwo,,,,,,,,,,,,,,,,,,,,,,,,,,,,,,,,,,,,,,,,,,,,,,,,,,,,,,,,,,,,,,,,,,,,,,,,,,,,,,,,,,,,,,,,,,,,,,,,,,,,,,,,,,,,,,,,,,,,,,,,,,,,,,,,,,,,,,,,,,,,,,,,,,,,,,,,
,,,,,,5e9f1f0a0de35f056a5ff749,62bbf99a7c64c9c732101e07,2022-06-29_09h24.23.596,Colour_Asymmetry_Pilot,2022.1.3,Win32,144.092219,62bbe60bf3d75ef465d3e404,0,125,125,98,1,twoone,,,,,,,,,,,,,,,,,,,,,,,,,,,,,,,,,,,,,,,,,,,,,,,,,,,,,,,,,,,,,,,,,,,,,,,,,,,,,,,,,,,,,,,,,,,,,,,,,,,,,,,,,,,,,,,,,,,,,,,,,,,,,,,,,,,,,,,,,,,,,,,,,,,,,,,,
,,,,,,5e9f1f0a0de35f056a5ff749,62bbf99a7c64c9c732101e07,2022-06-29_09h24.23.596,Colour_Asymmetry_Pilot,2022.1.3,Win32,144.092219,62bbe60bf3d75ef465d3e404,0,126,126,106,1,twoone,,,,,,,,,,,,,,,,,,,,,,,,,,,,,,,,,,,,,,,,,,,,,,,,,,,,,,,,,,,,,,,,,,,,,,,,,,,,,,,,,,,,,,,,,,,,,,,,,,,,,,,,,,,,,,,,,,,,,,,,,,,,,,,,,,,,,,,,,,,,,,,,,,,,,,,,
,,,,,,5e9f1f0a0de35f056a5ff749,62bbf99a7c64c9c732101e07,2022-06-29_09h24.23.596,Colour_Asymmetry_Pilot,2022.1.3,Win32,144.092219,62bbe60bf3d75ef465d3e404,0,127,127,61,1,threefour,,,,,,,,,,,,,,,,,,,,,,,,,,,,,,,,,,,,,,,,,,,,,,,,,,,,,,,,,,,,,,,,,,,,,,,,,,,,,,,,,,,,,,,,,,,,,,,,,,,,,,,,,,,,,,,,,,,,,,,,,,,,,,,,,,,,,,,,,,,,,,,,,,,,,,,,
,,,,,,5e9f1f0a0de35f056a5ff749,62bbf99a7c64c9c732101e07,2022-06-29_09h24.23.596,Colour_Asymmetry_Pilot,2022.1.3,Win32,144.092219,62bbe60bf3d75ef465d3e404,0,128,128,38,1,fourtwo,,,,,,,,,,,,,,,,,,,,,,,,,,,,,,,,,,,,,,,,,,,,,,,,,,,,,,,,,,,,,,,,,,,,,,,,,,,,,,,,,,,,,,,,,,,,,,,,,,,,,,,,,,,,,,,,,,,,,,,,,,,,,,,,,,,,,,,,,,,,,,,,,,,,,,,,
,,,,,,5e9f1f0a0de35f056a5ff749,62bbf99a7c64c9c732101e07,2022-06-29_09h24.23.596,Colour_Asymmetry_Pilot,2022.1.3,Win32,144.092219,62bbe60bf3d75ef465d3e404,0,129,129,90,1,twoone,,,,,,,,,,,,,,,,,,,,,,,,,,,,,,,,,,,,,,,,,,,,,,,,,,,,,,,,,,,,,,,,,,,,,,,,,,,,,,,,,,,,,,,,,,,,,,,,,,,,,,,,,,,,,,,,,,,,,,,,,,,,,,,,,,,,,,,,,,,,,,,,,,,,,,,,
,,,,,,5e9f1f0a0de35f056a5ff749,62bbf99a7c64c9c732101e07,2022-06-29_09h24.23.596,Colour_Asymmetry_Pilot,2022.1.3,Win32,144.092219,62bbe60bf3d75ef465d3e404,0,130,130,88,1,onetwo,,,,,,,,,,,,,,,,,,,,,,,,,,,,,,,,,,,,,,,,,,,,,,,,,,,,,,,,,,,,,,,,,,,,,,,,,,,,,,,,,,,,,,,,,,,,,,,,,,,,,,,,,,,,,,,,,,,,,,,,,,,,,,,,,,,,,,,,,,,,,,,,,,,,,,,,
,,,,,,5e9f1f0a0de35f056a5ff749,62bbf99a7c64c9c732101e07,2022-06-29_09h24.23.596,Colour_Asymmetry_Pilot,2022.1.3,Win32,144.092219,62bbe60bf3d75ef465d3e404,0,131,131,110,1,fourtwo,,,,,,,,,,,,,,,,,,,,,,,,,,,,,,,,,,,,,,,,,,,,,,,,,,,,,,,,,,,,,,,,,,,,,,,,,,,,,,,,,,,,,,,,,,,,,,,,,,,,,,,,,,,,,,,,,,,,,,,,,,,,,,,,,,,,,,,,,,,,,,,,,,,,,,,,
,,,,,,5e9f1f0a0de35f056a5ff749,62bbf99a7c64c9c732101e07,2022-06-29_09h24.23.596,Colour_Asymmetry_Pilot,2022.1.3,Win32,144.092219,62bbe60bf3d75ef465d3e404,0,132,132,122,1,twoone,,,,,,,,,,,,,,,,,,,,,,,,,,,,,,,,,,,,,,,,,,,,,,,,,,,,,,,,,,,,,,,,,,,,,,,,,,,,,,,,,,,,,,,,,,,,,,,,,,,,,,,,,,,,,,,,,,,,,,,,,,,,,,,,,,,,,,,,,,,,,,,,,,,,,,,,
,,,,,,5e9f1f0a0de35f056a5ff749,62bbf99a7c64c9c732101e07,2022-06-29_09h24.23.596,Colour_Asymmetry_Pilot,2022.1.3,Win32,144.092219,62bbe60bf3d75ef465d3e404,0,133,133,121,1,onethree,,,,,,,,,,,,,,,,,,,,,,,,,,,,,,,,,,,,,,,,,,,,,,,,,,,,,,,,,,,,,,,,,,,,,,,,,,,,,,,,,,,,,,,,,,,,,,,,,,,,,,,,,,,,,,,,,,,,,,,,,,,,,,,,,,,,,,,,,,,,,,,,,,,,,,,,
,,,,,,5e9f1f0a0de35f056a5ff749,62bbf99a7c64c9c732101e07,2022-06-29_09h24.23.596,Colour_Asymmetry_Pilot,2022.1.3,Win32,144.092219,62bbe60bf3d75ef465d3e404,0,134,134,45,1,threefour,,,,,,,,,,,,,,,,,,,,,,,,,,,,,,,,,,,,,,,,,,,,,,,,,,,,,,,,,,,,,,,,,,,,,,,,,,,,,,,,,,,,,,,,,,,,,,,,,,,,,,,,,,,,,,,,,,,,,,,,,,,,,,,,,,,,,,,,,,,,,,,,,,,,,,,,
,,,,,,5e9f1f0a0de35f056a5ff749,62bbf99a7c64c9c732101e07,2022-06-29_09h24.23.596,Colour_Asymmetry_Pilot,2022.1.3,Win32,144.092219,62bbe60bf3d75ef465d3e404,0,135,135,87,1,fourthree,,,,,,,,,,,,,,,,,,,,,,,,,,,,,,,,,,,,,,,,,,,,,,,,,,,,,,,,,,,,,,,,,,,,,,,,,,,,,,,,,,,,,,,,,,,,,,,,,,,,,,,,,,,,,,,,,,,,,,,,,,,,,,,,,,,,,,,,,,,,,,,,,,,,,,,,
,,,,,,5e9f1f0a0de35f056a5ff749,62bbf99a7c64c9c732101e07,2022-06-29_09h24.23.596,Colour_Asymmetry_Pilot,2022.1.3,Win32,144.092219,62bbe60bf3d75ef465d3e404,0,136,136,25,1,onethree,,,,,,,,,,,,,,,,,,,,,,,,,,,,,,,,,,,,,,,,,,,,,,,,,,,,,,,,,,,,,,,,,,,,,,,,,,,,,,,,,,,,,,,,,,,,,,,,,,,,,,,,,,,,,,,,,,,,,,,,,,,,,,,,,,,,,,,,,,,,,,,,,,,,,,,,
,,,,,,5e9f1f0a0de35f056a5ff749,62bbf99a7c64c9c732101e07,2022-06-29_09h24.23.596,Colour_Asymmetry_Pilot,2022.1.3,Win32,144.092219,62bbe60bf3d75ef465d3e404,0,137,137,77,1,threefour,,,,,,,,,,,,,,,,,,,,,,,,,,,,,,,,,,,,,,,,,,,,,,,,,,,,,,,,,,,,,,,,,,,,,,,,,,,,,,,,,,,,,,,,,,,,,,,,,,,,,,,,,,,,,,,,,,,,,,,,,,,,,,,,,,,,,,,,,,,,,,,,,,,,,,,,
,,,,,,5e9f1f0a0de35f056a5ff749,62bbf99a7c64c9c732101e07,2022-06-29_09h24.23.596,Colour_Asymmetry_Pilot,2022.1.3,Win32,144.092219,62bbe60bf3d75ef465d3e404,0,138,138,116,1,threeone,,,,,,,,,,,,,,,,,,,,,,,,,,,,,,,,,,,,,,,,,,,,,,,,,,,,,,,,,,,,,,,,,,,,,,,,,,,,,,,,,,,,,,,,,,,,,,,,,,,,,,,,,,,,,,,,,,,,,,,,,,,,,,,,,,,,,,,,,,,,,,,,,,,,,,,,
,,,,,,5e9f1f0a0de35f056a5ff749,62bbf99a7c64c9c732101e07,2022-06-29_09h24.23.596,Colour_Asymmetry_Pilot,2022.1.3,Win32,144.092219,62bbe60bf3d75ef465d3e404,0,139,139,12,1,threeone,,,,,,,,,,,,,,,,,,,,,,,,,,,,,,,,,,,,,,,,,,,,,,,,,,,,,,,,,,,,,,,,,,,,,,,,,,,,,,,,,,,,,,,,,,,,,,,,,,,,,,,,,,,,,,,,,,,,,,,,,,,,,,,,,,,,,,,,,,,,,,,,,,,,,,,,
,,,,,,5e9f1f0a0de35f056a5ff749,62bbf99a7c64c9c732101e07,2022-06-29_09h24.23.596,Colour_Asymmetry_Pilot,2022.1.3,Win32,144.092219,62bbe60bf3d75ef465d3e404,0,140,140,59,1,twofour,,,,,,,,,,,,,,,,,,,,,,,,,,,,,,,,,,,,,,,,,,,,,,,,,,,,,,,,,,,,,,,,,,,,,,,,,,,,,,,,,,,,,,,,,,,,,,,,,,,,,,,,,,,,,,,,,,,,,,,,,,,,,,,,,,,,,,,,,,,,,,,,,,,,,,,,
,,,,,,5e9f1f0a0de35f056a5ff749,62bbf99a7c64c9c732101e07,2022-06-29_09h24.23.596,Colour_Asymmetry_Pilot,2022.1.3,Win32,144.092219,62bbe60bf3d75ef465d3e404,0,141,141,60,1,threeone,,,,,,,,,,,,,,,,,,,,,,,,,,,,,,,,,,,,,,,,,,,,,,,,,,,,,,,,,,,,,,,,,,,,,,,,,,,,,,,,,,,,,,,,,,,,,,,,,,,,,,,,,,,,,,,,,,,,,,,,,,,,,,,,,,,,,,,,,,,,,,,,,,,,,,,,
,,,,,,5e9f1f0a0de35f056a5ff749,62bbf99a7c64c9c732101e07,2022-06-29_09h24.23.596,Colour_Asymmetry_Pilot,2022.1.3,Win32,144.092219,62bbe60bf3d75ef465d3e404,0,142,142,21,1,threefour,,,,,,,,,,,,,,,,,,,,,,,,,,,,,,,,,,,,,,,,,,,,,,,,,,,,,,,,,,,,,,,,,,,,,,,,,,,,,,,,,,,,,,,,,,,,,,,,,,,,,,,,,,,,,,,,,,,,,,,,,,,,,,,,,,,,,,,,,,,,,,,,,,,,,,,,
,,,,,,5e9f1f0a0de35f056a5ff749,62bbf99a7c64c9c732101e07,2022-06-29_09h24.23.596,Colour_Asymmetry_Pilot,2022.1.3,Win32,144.092219,62bbe60bf3d75ef465d3e404,0,143,143,123,1,twofour,,,,,,,,,,,,,,,,,,,,,,,,,,,,,,,,,,,,,,,,,,,,,,,,,,,,,,,,,,,,,,,,,,,,,,,,,,,,,,,,,,,,,,,,,,,,,,,,,,,,,,,,,,,,,,,,,,,,,,,,,,,,,,,,,,,,,,,,,,,,,,,,,,,,,,,,
,,,,,,5e9f1f0a0de35f056a5ff749,62bbf99a7c64c9c732101e07,2022-06-29_09h24.23.596,Colour_Asymmetry_Pilot,2022.1.3,Win32,144.092219,62bbe60bf3d75ef465d3e404,0,144,144,67,1,twofour,,,,,,,,,,,,,,,,,,,,,,,,,,,,,,,,,,,,,,,,,,,,,,,,,,,,,,,,,,,,,,,,,,,,,,,,,,,,,,,,,,,,,,,,,,,,,,,,,,,,,,,,,,,,,,,,,,,,,,,,,,,,,,,,,,,,,,,,,,,,,,,,,,,,,,,,
,,,,,,5e9f1f0a0de35f056a5ff749,62bbf99a7c64c9c732101e07,2022-06-29_09h24.23.596,Colour_Asymmetry_Pilot,2022.1.3,Win32,144.092219,62bbe60bf3d75ef465d3e404,0,145,145,5,1,threefour,,,,,,,,,,,,,,,,,,,,,,,,,,,,,,,,,,,,,,,,,,,,,,,,,,,,,,,,,,,,,,,,,,,,,,,,,,,,,,,,,,,,,,,,,,,,,,,,,,,,,,,,,,,,,,,,,,,,,,,,,,,,,,,,,,,,,,,,,,,,,,,,,,,,,,,,
,,,,,,5e9f1f0a0de35f056a5ff749,62bbf99a7c64c9c732101e07,2022-06-29_09h24.23.596,Colour_Asymmetry_Pilot,2022.1.3,Win32,144.092219,62bbe60bf3d75ef465d3e404,0,146,146,56,1,onetwo,,,,,,,,,,,,,,,,,,,,,,,,,,,,,,,,,,,,,,,,,,,,,,,,,,,,,,,,,,,,,,,,,,,,,,,,,,,,,,,,,,,,,,,,,,,,,,,,,,,,,,,,,,,,,,,,,,,,,,,,,,,,,,,,,,,,,,,,,,,,,,,,,,,,,,,,
,,,,,,5e9f1f0a0de35f056a5ff749,62bbf99a7c64c9c732101e07,2022-06-29_09h24.23.596,Colour_Asymmetry_Pilot,2022.1.3,Win32,144.092219,62bbe60bf3d75ef465d3e404,0,147,147,160,1,onetwo,,,,,,,,,,,,,,,,,,,,,,,,,,,,,,,,,,,,,,,,,,,,,,,,,,,,,,,,,,,,,,,,,,,,,,,,,,,,,,,,,,,,,,,,,,,,,,,,,,,,,,,,,,,,,,,,,,,,,,,,,,,,,,,,,,,,,,,,,,,,,,,,,,,,,,,,
,,,,,,5e9f1f0a0de35f056a5ff749,62bbf99a7c64c9c732101e07,2022-06-29_09h24.23.596,Colour_Asymmetry_Pilot,2022.1.3,Win32,144.092219,62bbe60bf3d75ef465d3e404,0,148,148,91,1,twofour,,,,,,,,,,,,,,,,,,,,,,,,,,,,,,,,,,,,,,,,,,,,,,,,,,,,,,,,,,,,,,,,,,,,,,,,,,,,,,,,,,,,,,,,,,,,,,,,,,,,,,,,,,,,,,,,,,,,,,,,,,,,,,,,,,,,,,,,,,,,,,,,,,,,,,,,
,,,,,,5e9f1f0a0de35f056a5ff749,62bbf99a7c64c9c732101e07,2022-06-29_09h24.23.596,Colour_Asymmetry_Pilot,2022.1.3,Win32,144.092219,62bbe60bf3d75ef465d3e404,0,149,149,18,1,twoone,,,,,,,,,,,,,,,,,,,,,,,,,,,,,,,,,,,,,,,,,,,,,,,,,,,,,,,,,,,,,,,,,,,,,,,,,,,,,,,,,,,,,,,,,,,,,,,,,,,,,,,,,,,,,,,,,,,,,,,,,,,,,,,,,,,,,,,,,,,,,,,,,,,,,,,,
,,,,,,5e9f1f0a0de35f056a5ff749,62bbf99a7c64c9c732101e07,2022-06-29_09h24.23.596,Colour_Asymmetry_Pilot,2022.1.3,Win32,144.092219,62bbe60bf3d75ef465d3e404,0,150,150,73,1,onethree,,,,,,,,,,,,,,,,,,,,,,,,,,,,,,,,,,,,,,,,,,,,,,,,,,,,,,,,,,,,,,,,,,,,,,,,,,,,,,,,,,,,,,,,,,,,,,,,,,,,,,,,,,,,,,,,,,,,,,,,,,,,,,,,,,,,,,,,,,,,,,,,,,,,,,,,
,,,,,,5e9f1f0a0de35f056a5ff749,62bbf99a7c64c9c732101e07,2022-06-29_09h24.23.596,Colour_Asymmetry_Pilot,2022.1.3,Win32,144.092219,62bbe60bf3d75ef465d3e404,0,151,151,46,1,fourtwo,,,,,,,,,,,,,,,,,,,,,,,,,,,,,,,,,,,,,,,,,,,,,,,,,,,,,,,,,,,,,,,,,,,,,,,,,,,,,,,,,,,,,,,,,,,,,,,,,,,,,,,,,,,,,,,,,,,,,,,,,,,,,,,,,,,,,,,,,,,,,,,,,,,,,,,,
,,,,,,5e9f1f0a0de35f056a5ff749,62bbf99a7c64c9c732101e07,2022-06-29_09h24.23.596,Colour_Asymmetry_Pilot,2022.1.3,Win32,144.092219,62bbe60bf3d75ef465d3e404,0,152,152,51,1,twofour,,,,,,,,,,,,,,,,,,,,,,,,,,,,,,,,,,,,,,,,,,,,,,,,,,,,,,,,,,,,,,,,,,,,,,,,,,,,,,,,,,,,,,,,,,,,,,,,,,,,,,,,,,,,,,,,,,,,,,,,,,,,,,,,,,,,,,,,,,,,,,,,,,,,,,,,
,,,,,,5e9f1f0a0de35f056a5ff749,62bbf99a7c64c9c732101e07,2022-06-29_09h24.23.596,Colour_Asymmetry_Pilot,2022.1.3,Win32,144.092219,62bbe60bf3d75ef465d3e404,0,153,153,119,1,fourthree,,,,,,,,,,,,,,,,,,,,,,,,,,,,,,,,,,,,,,,,,,,,,,,,,,,,,,,,,,,,,,,,,,,,,,,,,,,,,,,,,,,,,,,,,,,,,,,,,,,,,,,,,,,,,,,,,,,,,,,,,,,,,,,,,,,,,,,,,,,,,,,,,,,,,,,,
,,,,,,5e9f1f0a0de35f056a5ff749,62bbf99a7c64c9c732101e07,2022-06-29_09h24.23.596,Colour_Asymmetry_Pilot,2022.1.3,Win32,144.092219,62bbe60bf3d75ef465d3e404,0,154,154,64,1,onetwo,,,,,,,,,,,,,,,,,,,,,,,,,,,,,,,,,,,,,,,,,,,,,,,,,,,,,,,,,,,,,,,,,,,,,,,,,,,,,,,,,,,,,,,,,,,,,,,,,,,,,,,,,,,,,,,,,,,,,,,,,,,,,,,,,,,,,,,,,,,,,,,,,,,,,,,,
,,,,,,5e9f1f0a0de35f056a5ff749,62bbf99a7c64c9c732101e07,2022-06-29_09h24.23.596,Colour_Asymmetry_Pilot,2022.1.3,Win32,144.092219,62bbe60bf3d75ef465d3e404,0,155,155,126,1,fourtwo,,,,,,,,,,,,,,,,,,,,,,,,,,,,,,,,,,,,,,,,,,,,,,,,,,,,,,,,,,,,,,,,,,,,,,,,,,,,,,,,,,,,,,,,,,,,,,,,,,,,,,,,,,,,,,,,,,,,,,,,,,,,,,,,,,,,,,,,,,,,,,,,,,,,,,,,
,,,,,,5e9f1f0a0de35f056a5ff749,62bbf99a7c64c9c732101e07,2022-06-29_09h24.23.596,Colour_Asymmetry_Pilot,2022.1.3,Win32,144.092219,62bbe60bf3d75ef465d3e404,0,156,156,143,1,fourthree,,,,,,,,,,,,,,,,,,,,,,,,,,,,,,,,,,,,,,,,,,,,,,,,,,,,,,,,,,,,,,,,,,,,,,,,,,,,,,,,,,,,,,,,,,,,,,,,,,,,,,,,,,,,,,,,,,,,,,,,,,,,,,,,,,,,,,,,,,,,,,,,,,,,,,,,
,,,,,,5e9f1f0a0de35f056a5ff749,62bbf99a7c64c9c732101e07,2022-06-29_09h24.23.596,Colour_Asymmetry_Pilot,2022.1.3,Win32,144.092219,62bbe60bf3d75ef465d3e404,0,157,157,81,1,onethree,,,,,,,,,,,,,,,,,,,,,,,,,,,,,,,,,,,,,,,,,,,,,,,,,,,,,,,,,,,,,,,,,,,,,,,,,,,,,,,,,,,,,,,,,,,,,,,,,,,,,,,,,,,,,,,,,,,,,,,,,,,,,,,,,,,,,,,,,,,,,,,,,,,,,,,,
,,,,,,5e9f1f0a0de35f056a5ff749,62bbf99a7c64c9c732101e07,2022-06-29_09h24.23.596,Colour_Asymmetry_Pilot,2022.1.3,Win32,144.092219,62bbe60bf3d75ef465d3e404,0,158,158,10,1,twoone,,,,,,,,,,,,,,,,,,,,,,,,,,,,,,,,,,,,,,,,,,,,,,,,,,,,,,,,,,,,,,,,,,,,,,,,,,,,,,,,,,,,,,,,,,,,,,,,,,,,,,,,,,,,,,,,,,,,,,,,,,,,,,,,,,,,,,,,,,,,,,,,,,,,,,,,
,,,,,,5e9f1f0a0de35f056a5ff749,62bbf99a7c64c9c732101e07,2022-06-29_09h24.23.596,Colour_Asymmetry_Pilot,2022.1.3,Win32,144.092219,62bbe60bf3d75ef465d3e404,0,159,159,136,1,onetwo,,,,,,,,,,,,,,,,,,,,,,,,,,,,,,,,,,,,,,,,,,,,,,,,,,,,,,,,,,,,,,,,,,,,,,,,,,,,,,,,,,,,,,,,,,,,,,,,,,,,,,,,,,,,,,,,,,,,,,,,,,,,,,,,,,,,,,,,,,,,,,,,,,,,,,,,
,,,,,,5e9f1f0a0de35f056a5ff749,62bbf99a7c64c9c732101e07,2022-06-29_09h24.23.596,Colour_Asymmetry_Pilot,2022.1.3,Win32,144.092219,62bbe60bf3d75ef465d3e404,0,160,160,83,1,twofour,,,,,,,,,,,,,,,,,,,,,,,,,,,,,,,,,,,,,,,,,,,,,,,,,,,,,,,,,,,,,,,,,,,,,,,,,,,,,,,,,,,,,,,,,,,,,,,,,,,,,,,,,,,,,,,,,,,,,,,,,,,,,,,,,,,,,,,,,,,,,,,,,,,,,,,,
,,,,,,5e9f1f0a0de35f056a5ff749,62bbf99a7c64c9c732101e07,2022-06-29_09h24.23.596,Colour_Asymmetry_Pilot,2022.1.3,Win32,144.092219,62bbe60bf3d75ef465d3e404,0,161,161,15,1,fourthree,,,,,,,,,,,,,,,,,,,,,,,,,,,,,,,,,,,,,,,,,,,,,,,,,,,,,,,,,,,,,,,,,,,,,,,,,,,,,,,,,,,,,,,,,,,,,,,,,,,,,,,,,,,,,,,,,,,,,,,,,,,,,,,,,,,,,,,,,,,,,,,,,,,,,,,,
,,,,,,5e9f1f0a0de35f056a5ff749,62bbf99a7c64c9c732101e07,2022-06-29_09h24.23.596,Colour_Asymmetry_Pilot,2022.1.3,Win32,144.092219,62bbe60bf3d75ef465d3e404,,,,,,,space,148.093,space,5.339,space,20.333,space,17.074,space,1.821,space,3.767,"[0.11359999999999992,0.6312,0.5213999999999999]",twoone,"[0.4196,0.4665999999999999,0.3568]",1,6.452,73,-159,1,0,0,response3disk_5,-3,6,1,0,0,rectangle_8,-3,6,1,0,0,3,-3,6,1,0,0,0,0,0,0,1,,,,,,,,,,,,,,,,,,,,,,,,,,,,,,,,,,,,,,,,,,,,,,,,,,,,,,,,,,,,,,,,,,,,,,,,,,,,,,,,,,,,,,,,,,,,,,,,,,,,,,,,,,,
,,,,,,5e9f1f0a0de35f056a5ff749,62bbf99a7c64c9c732101e07,2022-06-29_09h24.23.596,Colour_Asymmetry_Pilot,2022.1.3,Win32,144.092219,62bbe60bf3d75ef465d3e404,,,,,,,,,,,,,,,,,,,"[-0.9216,-0.5529999999999999,-0.3962]",twoone,"[-0.4668,-0.8746,-0.2942]",-2,2.313,-122,-64,1,0,0,response5disk_5,-50,5,1,0,0,rectangle_8,152,41,1,0,0,3,15,-11,1,0,0,1,0,1,0,1,response1disk_7,6,rectangle_4,,,,,,,,,,,,,,,,,,,,,,,,,,,,,,,,,,,,,,,,,,,,,,,,,,,,,,,,,,,,,,,,,,,,,,,,,,,,,,,,,,,,,,,,,,,,,,,,,,,,,,,,
,,,,,,5e9f1f0a0de35f056a5ff749,62bbf99a7c64c9c732101e07,2022-06-29_09h24.23.596,Colour_Asymmetry_Pilot,2022.1.3,Win32,144.092219,62bbe60bf3d75ef465d3e404,,,,,,,,,,,,,,,,,,,"[-0.10599999999999998,-0.10599999999999998,0.5841999999999998]",fourtwo,"[0.7176,-0.906,-0.6864]",-4,1.132,-42,142,1,0,0,response7disk_5,-22,9,1,0,0,rectangle_8,-22,9,1,0,0,3,-22,9,1,0,0,2,0,2,0,1,,,,,,,,,,,,,,,,,,,,,,,,,,,,,,,,,,,,,,,,,,,,,,,,,,,,,,,,,,,,,,,,,,,,,,,,,,,,,,,,,,,,,,,,,,,,,,,,,,,,,,,,,,,
,,,,,,5e9f1f0a0de35f056a5ff749,62bbf99a7c64c9c732101e07,2022-06-29_09h24.23.596,Colour_Asymmetry_Pilot,2022.1.3,Win32,144.092219,62bbe60bf3d75ef465d3e404,,,,,,,,,,,,,,,,,,,"[-0.10599999999999998,-0.15300000000000002,0.15280000000000005]",fourthree,"[-0.45899999999999996,-0.3256,-0.9374]",-4,0.798,-72,134,1,0,0,response7disk_5,-8,-4,1,0,0,rectangle_8,-8,-4,1,0,0,3,-8,-4,1,0,0,3,0,3,0,1,,,,,,,,,,,,,,,,,,,,,,,,,,,,,,,,,,,,,,,,,,,,,,,,,,,,,,,,,,,,,,,,,,,,,,,,,,,,,,,,,,,,,,,,,,,,,,,,,,,,,,,,,,,
,,,,,,5e9f1f0a0de35f056a5ff749,62bbf99a7c64c9c732101e07,2022-06-29_09h24.23.596,Colour_Asymmetry_Pilot,2022.1.3,Win32,144.092219,62bbe60bf3d75ef465d3e404,,,,,,,,,,,,,,,,,,,"[-0.06680000000000008,-0.45100000000000007,-0.906]",twoone,"[-0.10599999999999998,-0.15300000000000002,0.15280000000000005]",-4,0.925,-35,163,1,0,0,response7disk_5,-1,-15,1,0,0,rectangle_8,119,69,1,0,0,3,7,-14,1,0,0,4,0,4,0,1,response1disk_7,6,rectangle_4,,,,,,,,,,,,,,,,,,,,,,,,,,,,,,,,,,,,,,,,,,,,,,,,,,,,,,,,,,,,,,,,,,,,,,,,,,,,,,,,,,,,,,,,,,,,,,,,,,,,,,,,
,,,,,,5e9f1f0a0de35f056a5ff749,62bbf99a7c64c9c732101e07,2022-06-29_09h24.23.596,Colour_Asymmetry_Pilot,2022.1.3,Win32,144.092219,62bbe60bf3d75ef465d3e404,,,,,,,,,,,,,,,,,,,"[-0.45899999999999996,-0.3256,-0.9374]",threeone,"[-0.2942,-0.24719999999999998,-0.357]",1,1.563,89,-154,1,0,0,response3disk_5,-31,-4,1,0,0,rectangle_8,-31,-4,1,0,0,3,-31,-4,1,0,0,5,0,5,0,1,,,,,,,,,,,,,,,,,,,,,,,,,,,,,,,,,,,,,,,,,,,,,,,,,,,,,,,,,,,,,,,,,,,,,,,,,,,,,,,,,,,,,,,,,,,,,,,,,,,,,,,,,,,
,,,,,,5e9f1f0a0de35f056a5ff749,62bbf99a7c64c9c732101e07,2022-06-29_09h24.23.596,Colour_Asymmetry_Pilot,2022.1.3,Win32,144.092219,62bbe60bf3d75ef465d3e404,,,,,,,,,,,,,,,,,,,"[-0.9688,-0.4902000000000001,-0.12159999999999993]",onetwo,"[0.23920000000000008,0.2704,0.16060000000000008]",-4,0.812,-69,194,1,0,0,response7disk_5,23,-21,1,0,0,rectangle_8,23,-21,1,0,0,3,23,-21,1,0,0,6,0,6,0,1,,,,,,,,,,,,,,,,,,,,,,,,,,,,,,,,,,,,,,,,,,,,,,,,,,,,,,,,,,,,,,,,,,,,,,,,,,,,,,,,,,,,,,,,,,,,,,,,,,,,,,,,,,,
,,,,,,5e9f1f0a0de35f056a5ff749,62bbf99a7c64c9c732101e07,2022-06-29_09h24.23.596,Colour_Asymmetry_Pilot,2022.1.3,Win32,144.092219,62bbe60bf3d75ef465d3e404,,,,,,,,,,,,,,,,,,,,fourthree,,-4,0.528,,,,,,,,,,,,,,,,,,,,,,,,,,,,,,,,space,2.801,"[0.37240000000000006,0.4980000000000002,-0.2864]","[-0.9844,-0.9688,-0.9922]",-77,151,1,0,0,response7disk,6,11,1,0,0,rectangle,6,11,1,0,0,,1,0,0,6,11,1,0,0,0,0,0,141,1,60,second,,,,,,,,,,,,,,,,,,,,,,,,,,,,,,,,,,,,,,,,,,,,,,,,,,,,,,,,,,,,,,,,,,,
,,,,,,5e9f1f0a0de35f056a5ff749,62bbf99a7c64c9c732101e07,2022-06-29_09h24.23.596,Colour_Asymmetry_Pilot,2022.1.3,Win32,144.092219,62bbe60bf3d75ef465d3e404,,,,,,,,,,,,,,,,,,,,fourtwo,,1,1.133,,,,,,,,,,,,,,,,,,,,,,,,,,,,,,,,,,"[0.12939999999999996,-0.2864,0.3253999999999999]","[-0.9688,-0.7412000000000001,-0.4902000000000001]",41,-141,1,0,0,response3disk,12,10,1,0,0,rectangle,12,10,1,0,0,,3,0,0,12,10,1,0,0,0,1,1,27,1,27,first,,,,,,,,,,,,,,,,,,,,,,,,,,,,,,,,,,,,,,,,,,,,,,,,,,,,,,,,,,,,,,,,,,,
,,,,,,5e9f1f0a0de35f056a5ff749,62bbf99a7c64c9c732101e07,2022-06-29_09h24.23.596,Colour_Asymmetry_Pilot,2022.1.3,Win32,144.092219,62bbe60bf3d75ef465d3e404,,,,,,,,,,,,,,,,,,,,twoone,,-4,0.375,,,,,,,,,,,,,,,,,,,,,,,,,,,,,,,,,,"[-0.01980000000000004,-0.5138,-0.38039999999999996]","[0.9686000000000001,0.5763999999999998,0.11359999999999992]",-101,153,1,0,0,response7disk,5,-3,1,0,0,rectangle,5,-3,1,0,0,,1,0.001,0,5,-3,1,0,0,0,2,2,115,1,34,second,,,,,,,,,,,,,,,,,,,,,,,,,,,,,,,,,,,,,,,,,,,,,,,,,,,,,,,,,,,,,,,,,,,
,,,,,,5e9f1f0a0de35f056a5ff749,62bbf99a7c64c9c732101e07,2022-06-29_09h24.23.596,Colour_Asymmetry_Pilot,2022.1.3,Win32,144.092219,62bbe60bf3d75ef465d3e404,,,,,,,,,,,,,,,,,,,,fourtwo,,-4,0.347,,,,,,,,,,,,,,,,,,,,,,,,,,,,,,,,,,"[0.2784,-0.31000000000000005,-0.5452]","[0.34099999999999997,0.5841999999999998,-0.9844]",-85,162,1,0,0,response7disk,-3,-15,1,0,0,rectangle,-3,-15,1,0,0,,3,0.001,0,-3,-15,1,0,0,0,3,3,22,1,22,first,,,,,,,,,,,,,,,,,,,,,,,,,,,,,,,,,,,,,,,,,,,,,,,,,,,,,,,,,,,,,,,,,,,
,,,,,,5e9f1f0a0de35f056a5ff749,62bbf99a7c64c9c732101e07,2022-06-29_09h24.23.596,Colour_Asymmetry_Pilot,2022.1.3,Win32,144.092219,62bbe60bf3d75ef465d3e404,,,,,,,,,,,,,,,,,,,,fourthree,,-4,0.473,,,,,,,,,,,,,,,,,,,,,,,,,,,,,,,,,,"[-0.9296,-0.12959999999999994,-0.043199999999999905]","[0.3802000000000001,0.19199999999999995,-0.6394]",-44,143,1,0,0,response7disk,6,-11,1,0,0,rectangle,118,86,1,0,0,3,3,1.382,1,15,-2,1,0,0,0,4,4,159,1,78,second,response1disk_3,rectangle,,,,,,,,,,,,,,,,,,,,,,,,,,,,,,,,,,,,,,,,,,,,,,,,,,,,,,,,,,,,,,,,,
,,,,,,5e9f1f0a0de35f056a5ff749,62bbf99a7c64c9c732101e07,2022-06-29_09h24.23.596,Colour_Asymmetry_Pilot,2022.1.3,Win32,144.092219,62bbe60bf3d75ef465d3e404,,,,,,,,,,,,,,,,,,,,threefour,,-4,0.52,,,,,,,,,,,,,,,,,,,,,,,,,,,,,,,,,,"[-0.2942,-0.24719999999999998,-0.357]","[0.7646000000000002,0.07440000000000002,0.2704]",-80,163,1,0,0,response7disk,21,8,1,0,0,rectangle,21,8,1,0,0,3,1,0,0,21,8,1,0,0,0,5,5,90,1,9,second,,,,,,,,,,,,,,,,,,,,,,,,,,,,,,,,,,,,,,,,,,,,,,,,,,,,,,,,,,,,,,,,,,,
,,,,,,5e9f1f0a0de35f056a5ff749,62bbf99a7c64c9c732101e07,2022-06-29_09h24.23.596,Colour_Asymmetry_Pilot,2022.1.3,Win32,144.092219,62bbe60bf3d75ef465d3e404,,,,,,,,,,,,,,,,,,,,fourthree,,-2,1.362,,,,,,,,,,,,,,,,,,,,,,,,,,,,,,,,,,"[0.3568,-0.20799999999999996,-0.9844]","[0.6547999999999998,-0.043199999999999905,-0.011800000000000033]",-133,-101,1,0,0,response5disk,-18,-2,1,0,0,rectangle,-18,-2,1,0,0,3,2,0.001,0,-18,-2,1,0,0,0,6,6,68,1,68,first,,,,,,,,,,,,,,,,,,,,,,,,,,,,,,,,,,,,,,,,,,,,,,,,,,,,,,,,,,,,,,,,,,,
,,,,,,5e9f1f0a0de35f056a5ff749,62bbf99a7c64c9c732101e07,2022-06-29_09h24.23.596,Colour_Asymmetry_Pilot,2022.1.3,Win32,144.092219,62bbe60bf3d75ef465d3e404,,,,,,,,,,,,,,,,,,,,fourthree,,-4,0.681,,,,,,,,,,,,,,,,,,,,,,,,,,,,,,,,,,"[0.3802000000000001,0.19199999999999995,-0.6394]","[-0.38039999999999996,-0.4276,-0.1452]",-57,118,1,0,0,response7disk,-7,9,1,0,0,rectangle,-7,9,1,0,0,3,3,0,0,-7,9,1,0,0,0,7,7,79,1,79,first,,,,,,,,,,,,,,,,,,,,,,,,,,,,,,,,,,,,,,,,,,,,,,,,,,,,,,,,,,,,,,,,,,,
,,,,,,5e9f1f0a0de35f056a5ff749,62bbf99a7c64c9c732101e07,2022-06-29_09h24.23.596,Colour_Asymmetry_Pilot,2022.1.3,Win32,144.092219,62bbe60bf3d75ef465d3e404,,,,,,,,,,,,,,,,,,,,fourthree,,-3,1.34,,,,,,,,,,,,,,,,,,,,,,,,,,,,,,,,,,"[0.11359999999999992,0.6312,0.5213999999999999]","[-0.07459999999999989,0.12139999999999995,-0.9922]",-109,52,1,0,0,response7disk,-16,-12,1,0,0,rectangle,-16,-12,1,0,0,3,2,0.001,0,-16,-12,1,0,0,0,8,8,93,1,12,second,,,,,,,,,,,,,,,,,,,,,,,,,,,,,,,,,,,,,,,,,,,,,,,,,,,,,,,,,,,,,,,,,,,
,,,,,,5e9f1f0a0de35f056a5ff749,62bbf99a7c64c9c732101e07,2022-06-29_09h24.23.596,Colour_Asymmetry_Pilot,2022.1.3,Win32,144.092219,62bbe60bf3d75ef465d3e404,,,,,,,,,,,,,,,,,,,,twofour,,-4,0.424,,,,,,,,,,,,,,,,,,,,,,,,,,,,,,,,,,"[0.30180000000000007,-0.7884,-0.9844]","[0.34099999999999997,0.5841999999999998,-0.9844]",-66,160,1,0,0,response7disk,11,-18,1,0,0,rectangle,53,-111,1,0,0,1,1,1.2,1,27,-15,1,0,0,0,9,9,161,1,80,second,response3disk_3,rectangle,,,,,,,,,,,,,,,,,,,,,,,,,,,,,,,,,,,,,,,,,,,,,,,,,,,,,,,,,,,,,,,,,
,,,,,,5e9f1f0a0de35f056a5ff749,62bbf99a7c64c9c732101e07,2022-06-29_09h24.23.596,Colour_Asymmetry_Pilot,2022.1.3,Win32,144.092219,62bbe60bf3d75ef465d3e404,,,,,,,,,,,,,,,,,,,,fourtwo,,-4,0.299,,,,,,,,,,,,,,,,,,,,,,,,,,,,,,,,,,"[0.9842,0.7409999999999999,-0.6628000000000001]","[-0.9688,-0.38039999999999996,-0.41979999999999995]",-57,121,1,0,0,response7disk,-8,5,1,0,0,rectangle,-8,5,1,0,0,1,1,0,0,-8,5,1,0,0,0,10,10,106,1,25,second,,,,,,,,,,,,,,,,,,,,,,,,,,,,,,,,,,,,,,,,,,,,,,,,,,,,,,,,,,,,,,,,,,,
,,,,,,5e9f1f0a0de35f056a5ff749,62bbf99a7c64c9c732101e07,2022-06-29_09h24.23.596,Colour_Asymmetry_Pilot,2022.1.3,Win32,144.092219,62bbe60bf3d75ef465d3e404,,,,,,,,,,,,,,,,,,,,onetwo,,-2,1.021,,,,,,,,,,,,,,,,,,,,,,,,,,,,,,,,,,"[0.9686000000000001,0.5763999999999998,0.11359999999999992]","[0.3881999999999999,-0.23939999999999995,-0.05040000000000011]",-155,-52,1,0,0,response5disk,-6,-17,1,0,0,rectangle,-6,-17,1,0,0,1,1,0.001,0,-6,-17,1,0,0,0,11,11,147,1,66,second,,,,,,,,,,,,,,,,,,,,,,,,,,,,,,,,,,,,,,,,,,,,,,,,,,,,,,,,,,,,,,,,,,,
,,,,,,5e9f1f0a0de35f056a5ff749,62bbf99a7c64c9c732101e07,2022-06-29_09h24.23.596,Colour_Asymmetry_Pilot,2022.1.3,Win32,144.092219,62bbe60bf3d75ef465d3e404,,,,,,,,,,,,,,,,,,,,fourthree,,3,1.035,,,,,,,,,,,,,,,,,,,,,,,,,,,,,,,,,,"[-0.09019999999999995,0.44300000000000006,0.5371999999999999]","[-0.9296,-0.12959999999999994,-0.043199999999999905]",175,58,1,0,0,response1disk,10,3,1,0,0,rectangle,10,3,1,0,0,1,3,0.001,0,10,3,1,0,0,0,12,12,51,1,51,first,,,,,,,,,,,,,,,,,,,,,,,,,,,,,,,,,,,,,,,,,,,,,,,,,,,,,,,,,,,,,,,,,,,
,,,,,,5e9f1f0a0de35f056a5ff749,62bbf99a7c64c9c732101e07,2022-06-29_09h24.23.596,Colour_Asymmetry_Pilot,2022.1.3,Win32,144.092219,62bbe60bf3d75ef465d3e404,,,,,,,,,,,,,,,,,,,,onetwo,,-4,0.438,,,,,,,,,,,,,,,,,,,,,,,,,,,,,,,,,,"[-0.6942,-0.7648,-0.12959999999999994]","[-0.17659999999999998,0.3253999999999999,0.19999999999999996]",-32,143,1,0,0,response7disk,22,-6,1,0,0,rectangle,22,-6,1,0,0,1,3,0,0,22,-6,1,0,0,0,13,13,101,1,20,second,,,,,,,,,,,,,,,,,,,,,,,,,,,,,,,,,,,,,,,,,,,,,,,,,,,,,,,,,,,,,,,,,,,
,,,,,,5e9f1f0a0de35f056a5ff749,62bbf99a7c64c9c732101e07,2022-06-29_09h24.23.596,Colour_Asymmetry_Pilot,2022.1.3,Win32,144.092219,62bbe60bf3d75ef465d3e404,,,,,,,,,,,,,,,,,,,,onetwo,,-4,0.327,,,,,,,,,,,,,,,,,,,,,,,,,,,,,,,,,,"[0.9686000000000001,0.5763999999999998,0.11359999999999992]","[0.09799999999999986,-0.24719999999999998,0.15280000000000005]",-62,143,1,0,0,response7disk,19,-12,1,0,0,rectangle,19,-12,1,0,0,1,2,0,0,19,-12,1,0,0,0,14,14,156,1,75,second,,,,,,,,,,,,,,,,,,,,,,,,,,,,,,,,,,,,,,,,,,,,,,,,,,,,,,,,,,,,,,,,,,,
,,,,,,5e9f1f0a0de35f056a5ff749,62bbf99a7c64c9c732101e07,2022-06-29_09h24.23.596,Colour_Asymmetry_Pilot,2022.1.3,Win32,144.092219,62bbe60bf3d75ef465d3e404,,,,,,,,,,,,,,,,,,,,threefour,,-3,1.354,,,,,,,,,,,,,,,,,,,,,,,,,,,,,,,,,,"[-0.20799999999999996,-0.655,-0.01980000000000004]","[-0.2942,-0.7648,-0.7492000000000001]",-147,49,1,0,0,response7disk,21,4,1,0,0,rectangle,21,4,1,0,0,1,2,0,0,21,4,1,0,0,0,15,15,31,1,31,first,,,,,,,,,,,,,,,,,,,,,,,,,,,,,,,,,,,,,,,,,,,,,,,,,,,,,,,,,,,,,,,,,,,
,,,,,,5e9f1f0a0de35f056a5ff749,62bbf99a7c64c9c732101e07,2022-06-29_09h24.23.596,Colour_Asymmetry_Pilot,2022.1.3,Win32,144.092219,62bbe60bf3d75ef465d3e404,,,,,,,,,,,,,,,,,,,,threeone,,-4,0.278,,,,,,,,,,,,,,,,,,,,,,,,,,,,,,,,,,"[0.6625999999999999,0.4980000000000002,-0.357]","[-0.9688,-0.7412000000000001,-0.4902000000000001]",-61,156,1,0,0,response7disk,13,16,1,0,0,rectangle,13,16,1,0,0,1,1,0,0,13,16,1,0,0,0,16,16,58,1,58,first,,,,,,,,,,,,,,,,,,,,,,,,,,,,,,,,,,,,,,,,,,,,,,,,,,,,,,,,,,,,,,,,,,,
,,,,,,5e9f1f0a0de35f056a5ff749,62bbf99a7c64c9c732101e07,2022-06-29_09h24.23.596,Colour_Asymmetry_Pilot,2022.1.3,Win32,144.092219,62bbe60bf3d75ef465d3e404,,,,,,,,,,,,,,,,,,,,threeone,,3,0.785,,,,,,,,,,,,,,,,,,,,,,,,,,,,,,,,,,"[-0.9296,-0.12959999999999994,-0.043199999999999905]","[-0.09019999999999995,0.44300000000000006,0.5371999999999999]",143,58,1,0,0,response1disk,36,5,1,0,0,rectangle,36,5,1,0,0,1,3,0,0,36,5,1,0,0,0,17,17,132,1,51,second,,,,,,,,,,,,,,,,,,,,,,,,,,,,,,,,,,,,,,,,,,,,,,,,,,,,,,,,,,,,,,,,,,,
,,,,,,5e9f1f0a0de35f056a5ff749,62bbf99a7c64c9c732101e07,2022-06-29_09h24.23.596,Colour_Asymmetry_Pilot,2022.1.3,Win32,144.092219,62bbe60bf3d75ef465d3e404,,,,,,,,,,,,,,,,,,,,fourthree,,1,1.236,,,,,,,,,,,,,,,,,,,,,,,,,,,,,,,,,,"[-0.45899999999999996,-0.3256,-0.9374]","[-0.9216,-0.5529999999999999,-0.3962]",81,-164,1,0,0,response3disk,-8,-18,1,0,0,rectangle,-8,-18,1,0,0,1,2,0.001,0,-8,-18,1,0,0,0,18,18,56,1,56,first,,,,,,,,,,,,,,,,,,,,,,,,,,,,,,,,,,,,,,,,,,,,,,,,,,,,,,,,,,,,,,,,,,,
,,,,,,5e9f1f0a0de35f056a5ff749,62bbf99a7c64c9c732101e07,2022-06-29_09h24.23.596,Colour_Asymmetry_Pilot,2022.1.3,Win32,144.092219,62bbe60bf3d75ef465d3e404,,,,,,,,,,,,,,,,,,,,onethree,,-3,1.235,,,,,,,,,,,,,,,,,,,,,,,,,,,,,,,,,,"[0.9763999999999999,0.30979999999999985,-0.6786]","[0.7646000000000002,0.07440000000000002,0.2704]",-135,55,1,0,0,response7disk,-11,-8,1,0,0,rectangle,-11,-8,1,0,0,1,3,0.001,0,-11,-8,1,0,0,0,19,19,69,1,69,first,,,,,,,,,,,,,,,,,,,,,,,,,,,,,,,,,,,,,,,,,,,,,,,,,,,,,,,,,,,,,,,,,,,
,,,,,,5e9f1f0a0de35f056a5ff749,62bbf99a7c64c9c732101e07,2022-06-29_09h24.23.596,Colour_Asymmetry_Pilot,2022.1.3,Win32,144.092219,62bbe60bf3d75ef465d3e404,,,,,,,,,,,,,,,,,,,,onetwo,,-4,0.292,,,,,,,,,,,,,,,,,,,,,,,,,,,,,,,,,,"[0.9763999999999999,0.30979999999999985,-0.6786]","[-0.5688,-0.08239999999999992,-0.1844]",-58,161,1,0,0,response7disk,1,-14,1,0,0,rectangle,1,-14,1,0,0,1,1,0.001,0,1,-14,1,0,0,0,20,20,107,1,26,second,,,,,,,,,,,,,,,,,,,,,,,,,,,,,,,,,,,,,,,,,,,,,,,,,,,,,,,,,,,,,,,,,,,
