trials.thisRepN,trials.thisTrialN,trials.thisN,trials.thisIndex,trials.ran,Colourcodes,participant,session,date,expName,psychopyVersion,OS,frameRate,study_id,trials_4.thisRepN,trials_4.thisTrialN,trials_4.thisN,trials_4.thisIndex,trials_4.ran,StimulusPos,key_resp.keys,key_resp.rt,key_resp_2.keys,key_resp_2.rt,key_resp_15.keys,key_resp_15.rt,key_resp_17.keys,key_resp_17.rt,key_resp_9.keys,key_resp_9.rt,key_resp_10.keys,key_resp_10.rt,Circle1_col,Ecc,Circle2_col,similarity,response_time,mouse_5.x,mouse_5.y,mouse_5.leftButton,mouse_5.midButton,mouse_5.rightButton,mouse_5.clicked_name,mouse_10.x,mouse_10.y,mouse_10.leftButton,mouse_10.midButton,mouse_10.rightButton,mouse_10.clicked_name,mouse_7.x,mouse_7.y,mouse_7.leftButton,mouse_7.midButton,mouse_7.rightButton,mouse_7.clicked_name,catchprac,catchnumberprac,mouse_6.x,mouse_6.y,mouse_6.leftButton,mouse_6.midButton,mouse_6.rightButton,mouse_6.clicked_name,duringprac.thisRepN,duringprac.thisTrialN,duringprac.thisN,duringprac.thisIndex,duringprac.ran,key_resp_22.keys,key_resp_22.rt,Circle1_colour,Circle2_colour,mouse.x,mouse.y,mouse.leftButton,mouse.midButton,mouse.rightButton,mouse.clicked_name,mouse_2.x,mouse_2.y,mouse_2.leftButton,mouse_2.midButton,mouse_2.rightButton,mouse_2.clicked_name,mouse_3.x,mouse_3.y,mouse_3.leftButton,mouse_3.midButton,mouse_3.rightButton,mouse_3.clicked_name,catchresponse,catchnumber,response_time_catch,Catch,mouse_11.x,mouse_11.y,mouse_11.leftButton,mouse_11.midButton,mouse_11.rightButton,mouse_11.clicked_name,trials_2.thisRepN,trials_2.thisTrialN,trials_2.thisN,trials_2.thisIndex,trials_2.ran,Colourpair,Temporder,trials_3.thisRepN,trials_3.thisTrialN,trials_3.thisN,trials_3.thisIndex,trials_3.ran,key_resp_instr_Ishi.keys,key_resp_instr_Ishi.rt,Ishi_trial_keyresp.keys,Ishi_trial_keyresp.rt,Ishi_textbox.text,Ishi_loop.thisRepN,Ishi_loop.thisTrialN,Ishi_loop.thisN,Ishi_loop.thisIndex,Ishi_loop.ran,imageaddress,textbox.text,mouse_4.x,mouse_4.y,mouse_4.leftButton,mouse_4.midButton,mouse_4.rightButton,mouse_4.clicked_name,textbox_2.text,mouse_8.x,mouse_8.y,mouse_8.leftButton,mouse_8.midButton,mouse_8.rightButton,mouse_8.clicked_name,textbox_3.text,mouse_9.x,mouse_9.y,mouse_9.leftButton,mouse_9.midButton,mouse_9.rightButton,mouse_9.clicked_name,textbox_4.text,mouse_12.x,mouse_12.y,mouse_12.leftButton,mouse_12.midButton,mouse_12.rightButton,mouse_12.clicked_name,textbox_5.text,mouse_13.x,mouse_13.y,mouse_13.leftButton,mouse_13.midButton,mouse_13.rightButton,mouse_13.clicked_name,textbox_6.text,mouse_14.x,mouse_14.y,mouse_14.leftButton,mouse_14.midButton,mouse_14.rightButton,mouse_14.clicked_name,textbox_7.text,mouse_15.x,mouse_15.y,mouse_15.leftButton,mouse_15.midButton,mouse_15.rightButton,mouse_15.clicked_name
0,0,0,62,1,,5ea8bea5a6081b141edb65ba,62bbf922b17330df12859376,2022-06-29_24h03.33.132,Colour_Asymmetry_Pilot,2022.1.3,MacIntel,59.97361161,62bbe60bf3d75ef465d3e404,,,,,,,,,,,,,,,,,,,,,,,,,,,,,,,,,,,,,,,,,,,,,,,,,,,,,,,,,,,,,,,,,,,,,,,,,,,,,,,,,,,,,,,,,,,,,,,,,,,,,,,,,,,,,,,,,,,,,,,,,,,,,,,,,,,,,,,,,,,,,,,,,,,,,,,,,,,,,,
0,1,1,11,1,,5ea8bea5a6081b141edb65ba,62bbf922b17330df12859376,2022-06-29_24h03.33.132,Colour_Asymmetry_Pilot,2022.1.3,MacIntel,59.97361161,62bbe60bf3d75ef465d3e404,,,,,,,,,,,,,,,,,,,,,,,,,,,,,,,,,,,,,,,,,,,,,,,,,,,,,,,,,,,,,,,,,,,,,,,,,,,,,,,,,,,,,,,,,,,,,,,,,,,,,,,,,,,,,,,,,,,,,,,,,,,,,,,,,,,,,,,,,,,,,,,,,,,,,,,,,,,,,,
0,2,2,24,1,,5ea8bea5a6081b141edb65ba,62bbf922b17330df12859376,2022-06-29_24h03.33.132,Colour_Asymmetry_Pilot,2022.1.3,MacIntel,59.97361161,62bbe60bf3d75ef465d3e404,,,,,,,,,,,,,,,,,,,,,,,,,,,,,,,,,,,,,,,,,,,,,,,,,,,,,,,,,,,,,,,,,,,,,,,,,,,,,,,,,,,,,,,,,,,,,,,,,,,,,,,,,,,,,,,,,,,,,,,,,,,,,,,,,,,,,,,,,,,,,,,,,,,,,,,,,,,,,,
0,3,3,51,1,,5ea8bea5a6081b141edb65ba,62bbf922b17330df12859376,2022-06-29_24h03.33.132,Colour_Asymmetry_Pilot,2022.1.3,MacIntel,59.97361161,62bbe60bf3d75ef465d3e404,,,,,,,,,,,,,,,,,,,,,,,,,,,,,,,,,,,,,,,,,,,,,,,,,,,,,,,,,,,,,,,,,,,,,,,,,,,,,,,,,,,,,,,,,,,,,,,,,,,,,,,,,,,,,,,,,,,,,,,,,,,,,,,,,,,,,,,,,,,,,,,,,,,,,,,,,,,,,,
0,4,4,70,1,,5ea8bea5a6081b141edb65ba,62bbf922b17330df12859376,2022-06-29_24h03.33.132,Colour_Asymmetry_Pilot,2022.1.3,MacIntel,59.97361161,62bbe60bf3d75ef465d3e404,,,,,,,,,,,,,,,,,,,,,,,,,,,,,,,,,,,,,,,,,,,,,,,,,,,,,,,,,,,,,,,,,,,,,,,,,,,,,,,,,,,,,,,,,,,,,,,,,,,,,,,,,,,,,,,,,,,,,,,,,,,,,,,,,,,,,,,,,,,,,,,,,,,,,,,,,,,,,,
0,5,5,6,1,,5ea8bea5a6081b141edb65ba,62bbf922b17330df12859376,2022-06-29_24h03.33.132,Colour_Asymmetry_Pilot,2022.1.3,MacIntel,59.97361161,62bbe60bf3d75ef465d3e404,,,,,,,,,,,,,,,,,,,,,,,,,,,,,,,,,,,,,,,,,,,,,,,,,,,,,,,,,,,,,,,,,,,,,,,,,,,,,,,,,,,,,,,,,,,,,,,,,,,,,,,,,,,,,,,,,,,,,,,,,,,,,,,,,,,,,,,,,,,,,,,,,,,,,,,,,,,,,,
0,6,6,38,1,,5ea8bea5a6081b141edb65ba,62bbf922b17330df12859376,2022-06-29_24h03.33.132,Colour_Asymmetry_Pilot,2022.1.3,MacIntel,59.97361161,62bbe60bf3d75ef465d3e404,,,,,,,,,,,,,,,,,,,,,,,,,,,,,,,,,,,,,,,,,,,,,,,,,,,,,,,,,,,,,,,,,,,,,,,,,,,,,,,,,,,,,,,,,,,,,,,,,,,,,,,,,,,,,,,,,,,,,,,,,,,,,,,,,,,,,,,,,,,,,,,,,,,,,,,,,,,,,,
0,7,7,39,1,,5ea8bea5a6081b141edb65ba,62bbf922b17330df12859376,2022-06-29_24h03.33.132,Colour_Asymmetry_Pilot,2022.1.3,MacIntel,59.97361161,62bbe60bf3d75ef465d3e404,,,,,,,,,,,,,,,,,,,,,,,,,,,,,,,,,,,,,,,,,,,,,,,,,,,,,,,,,,,,,,,,,,,,,,,,,,,,,,,,,,,,,,,,,,,,,,,,,,,,,,,,,,,,,,,,,,,,,,,,,,,,,,,,,,,,,,,,,,,,,,,,,,,,,,,,,,,,,,
0,8,8,87,1,,5ea8bea5a6081b141edb65ba,62bbf922b17330df12859376,2022-06-29_24h03.33.132,Colour_Asymmetry_Pilot,2022.1.3,MacIntel,59.97361161,62bbe60bf3d75ef465d3e404,,,,,,,,,,,,,,,,,,,,,,,,,,,,,,,,,,,,,,,,,,,,,,,,,,,,,,,,,,,,,,,,,,,,,,,,,,,,,,,,,,,,,,,,,,,,,,,,,,,,,,,,,,,,,,,,,,,,,,,,,,,,,,,,,,,,,,,,,,,,,,,,,,,,,,,,,,,,,,
0,9,9,77,1,,5ea8bea5a6081b141edb65ba,62bbf922b17330df12859376,2022-06-29_24h03.33.132,Colour_Asymmetry_Pilot,2022.1.3,MacIntel,59.97361161,62bbe60bf3d75ef465d3e404,,,,,,,,,,,,,,,,,,,,,,,,,,,,,,,,,,,,,,,,,,,,,,,,,,,,,,,,,,,,,,,,,,,,,,,,,,,,,,,,,,,,,,,,,,,,,,,,,,,,,,,,,,,,,,,,,,,,,,,,,,,,,,,,,,,,,,,,,,,,,,,,,,,,,,,,,,,,,,
0,10,10,34,1,,5ea8bea5a6081b141edb65ba,62bbf922b17330df12859376,2022-06-29_24h03.33.132,Colour_Asymmetry_Pilot,2022.1.3,MacIntel,59.97361161,62bbe60bf3d75ef465d3e404,,,,,,,,,,,,,,,,,,,,,,,,,,,,,,,,,,,,,,,,,,,,,,,,,,,,,,,,,,,,,,,,,,,,,,,,,,,,,,,,,,,,,,,,,,,,,,,,,,,,,,,,,,,,,,,,,,,,,,,,,,,,,,,,,,,,,,,,,,,,,,,,,,,,,,,,,,,,,,
0,11,11,92,1,,5ea8bea5a6081b141edb65ba,62bbf922b17330df12859376,2022-06-29_24h03.33.132,Colour_Asymmetry_Pilot,2022.1.3,MacIntel,59.97361161,62bbe60bf3d75ef465d3e404,,,,,,,,,,,,,,,,,,,,,,,,,,,,,,,,,,,,,,,,,,,,,,,,,,,,,,,,,,,,,,,,,,,,,,,,,,,,,,,,,,,,,,,,,,,,,,,,,,,,,,,,,,,,,,,,,,,,,,,,,,,,,,,,,,,,,,,,,,,,,,,,,,,,,,,,,,,,,,
0,12,12,46,1,,5ea8bea5a6081b141edb65ba,62bbf922b17330df12859376,2022-06-29_24h03.33.132,Colour_Asymmetry_Pilot,2022.1.3,MacIntel,59.97361161,62bbe60bf3d75ef465d3e404,,,,,,,,,,,,,,,,,,,,,,,,,,,,,,,,,,,,,,,,,,,,,,,,,,,,,,,,,,,,,,,,,,,,,,,,,,,,,,,,,,,,,,,,,,,,,,,,,,,,,,,,,,,,,,,,,,,,,,,,,,,,,,,,,,,,,,,,,,,,,,,,,,,,,,,,,,,,,,
0,13,13,58,1,,5ea8bea5a6081b141edb65ba,62bbf922b17330df12859376,2022-06-29_24h03.33.132,Colour_Asymmetry_Pilot,2022.1.3,MacIntel,59.97361161,62bbe60bf3d75ef465d3e404,,,,,,,,,,,,,,,,,,,,,,,,,,,,,,,,,,,,,,,,,,,,,,,,,,,,,,,,,,,,,,,,,,,,,,,,,,,,,,,,,,,,,,,,,,,,,,,,,,,,,,,,,,,,,,,,,,,,,,,,,,,,,,,,,,,,,,,,,,,,,,,,,,,,,,,,,,,,,,
0,14,14,86,1,,5ea8bea5a6081b141edb65ba,62bbf922b17330df12859376,2022-06-29_24h03.33.132,Colour_Asymmetry_Pilot,2022.1.3,MacIntel,59.97361161,62bbe60bf3d75ef465d3e404,,,,,,,,,,,,,,,,,,,,,,,,,,,,,,,,,,,,,,,,,,,,,,,,,,,,,,,,,,,,,,,,,,,,,,,,,,,,,,,,,,,,,,,,,,,,,,,,,,,,,,,,,,,,,,,,,,,,,,,,,,,,,,,,,,,,,,,,,,,,,,,,,,,,,,,,,,,,,,
0,15,15,57,1,,5ea8bea5a6081b141edb65ba,62bbf922b17330df12859376,2022-06-29_24h03.33.132,Colour_Asymmetry_Pilot,2022.1.3,MacIntel,59.97361161,62bbe60bf3d75ef465d3e404,,,,,,,,,,,,,,,,,,,,,,,,,,,,,,,,,,,,,,,,,,,,,,,,,,,,,,,,,,,,,,,,,,,,,,,,,,,,,,,,,,,,,,,,,,,,,,,,,,,,,,,,,,,,,,,,,,,,,,,,,,,,,,,,,,,,,,,,,,,,,,,,,,,,,,,,,,,,,,
0,16,16,59,1,,5ea8bea5a6081b141edb65ba,62bbf922b17330df12859376,2022-06-29_24h03.33.132,Colour_Asymmetry_Pilot,2022.1.3,MacIntel,59.97361161,62bbe60bf3d75ef465d3e404,,,,,,,,,,,,,,,,,,,,,,,,,,,,,,,,,,,,,,,,,,,,,,,,,,,,,,,,,,,,,,,,,,,,,,,,,,,,,,,,,,,,,,,,,,,,,,,,,,,,,,,,,,,,,,,,,,,,,,,,,,,,,,,,,,,,,,,,,,,,,,,,,,,,,,,,,,,,,,
0,17,17,27,1,,5ea8bea5a6081b141edb65ba,62bbf922b17330df12859376,2022-06-29_24h03.33.132,Colour_Asymmetry_Pilot,2022.1.3,MacIntel,59.97361161,62bbe60bf3d75ef465d3e404,,,,,,,,,,,,,,,,,,,,,,,,,,,,,,,,,,,,,,,,,,,,,,,,,,,,,,,,,,,,,,,,,,,,,,,,,,,,,,,,,,,,,,,,,,,,,,,,,,,,,,,,,,,,,,,,,,,,,,,,,,,,,,,,,,,,,,,,,,,,,,,,,,,,,,,,,,,,,,
0,18,18,49,1,,5ea8bea5a6081b141edb65ba,62bbf922b17330df12859376,2022-06-29_24h03.33.132,Colour_Asymmetry_Pilot,2022.1.3,MacIntel,59.97361161,62bbe60bf3d75ef465d3e404,,,,,,,,,,,,,,,,,,,,,,,,,,,,,,,,,,,,,,,,,,,,,,,,,,,,,,,,,,,,,,,,,,,,,,,,,,,,,,,,,,,,,,,,,,,,,,,,,,,,,,,,,,,,,,,,,,,,,,,,,,,,,,,,,,,,,,,,,,,,,,,,,,,,,,,,,,,,,,
0,19,19,8,1,,5ea8bea5a6081b141edb65ba,62bbf922b17330df12859376,2022-06-29_24h03.33.132,Colour_Asymmetry_Pilot,2022.1.3,MacIntel,59.97361161,62bbe60bf3d75ef465d3e404,,,,,,,,,,,,,,,,,,,,,,,,,,,,,,,,,,,,,,,,,,,,,,,,,,,,,,,,,,,,,,,,,,,,,,,,,,,,,,,,,,,,,,,,,,,,,,,,,,,,,,,,,,,,,,,,,,,,,,,,,,,,,,,,,,,,,,,,,,,,,,,,,,,,,,,,,,,,,,
0,20,20,72,1,,5ea8bea5a6081b141edb65ba,62bbf922b17330df12859376,2022-06-29_24h03.33.132,Colour_Asymmetry_Pilot,2022.1.3,MacIntel,59.97361161,62bbe60bf3d75ef465d3e404,,,,,,,,,,,,,,,,,,,,,,,,,,,,,,,,,,,,,,,,,,,,,,,,,,,,,,,,,,,,,,,,,,,,,,,,,,,,,,,,,,,,,,,,,,,,,,,,,,,,,,,,,,,,,,,,,,,,,,,,,,,,,,,,,,,,,,,,,,,,,,,,,,,,,,,,,,,,,,
0,21,21,3,1,,5ea8bea5a6081b141edb65ba,62bbf922b17330df12859376,2022-06-29_24h03.33.132,Colour_Asymmetry_Pilot,2022.1.3,MacIntel,59.97361161,62bbe60bf3d75ef465d3e404,,,,,,,,,,,,,,,,,,,,,,,,,,,,,,,,,,,,,,,,,,,,,,,,,,,,,,,,,,,,,,,,,,,,,,,,,,,,,,,,,,,,,,,,,,,,,,,,,,,,,,,,,,,,,,,,,,,,,,,,,,,,,,,,,,,,,,,,,,,,,,,,,,,,,,,,,,,,,,
0,22,22,56,1,,5ea8bea5a6081b141edb65ba,62bbf922b17330df12859376,2022-06-29_24h03.33.132,Colour_Asymmetry_Pilot,2022.1.3,MacIntel,59.97361161,62bbe60bf3d75ef465d3e404,,,,,,,,,,,,,,,,,,,,,,,,,,,,,,,,,,,,,,,,,,,,,,,,,,,,,,,,,,,,,,,,,,,,,,,,,,,,,,,,,,,,,,,,,,,,,,,,,,,,,,,,,,,,,,,,,,,,,,,,,,,,,,,,,,,,,,,,,,,,,,,,,,,,,,,,,,,,,,
0,23,23,1,1,,5ea8bea5a6081b141edb65ba,62bbf922b17330df12859376,2022-06-29_24h03.33.132,Colour_Asymmetry_Pilot,2022.1.3,MacIntel,59.97361161,62bbe60bf3d75ef465d3e404,,,,,,,,,,,,,,,,,,,,,,,,,,,,,,,,,,,,,,,,,,,,,,,,,,,,,,,,,,,,,,,,,,,,,,,,,,,,,,,,,,,,,,,,,,,,,,,,,,,,,,,,,,,,,,,,,,,,,,,,,,,,,,,,,,,,,,,,,,,,,,,,,,,,,,,,,,,,,,
0,24,24,45,1,,5ea8bea5a6081b141edb65ba,62bbf922b17330df12859376,2022-06-29_24h03.33.132,Colour_Asymmetry_Pilot,2022.1.3,MacIntel,59.97361161,62bbe60bf3d75ef465d3e404,,,,,,,,,,,,,,,,,,,,,,,,,,,,,,,,,,,,,,,,,,,,,,,,,,,,,,,,,,,,,,,,,,,,,,,,,,,,,,,,,,,,,,,,,,,,,,,,,,,,,,,,,,,,,,,,,,,,,,,,,,,,,,,,,,,,,,,,,,,,,,,,,,,,,,,,,,,,,,
0,25,25,79,1,,5ea8bea5a6081b141edb65ba,62bbf922b17330df12859376,2022-06-29_24h03.33.132,Colour_Asymmetry_Pilot,2022.1.3,MacIntel,59.97361161,62bbe60bf3d75ef465d3e404,,,,,,,,,,,,,,,,,,,,,,,,,,,,,,,,,,,,,,,,,,,,,,,,,,,,,,,,,,,,,,,,,,,,,,,,,,,,,,,,,,,,,,,,,,,,,,,,,,,,,,,,,,,,,,,,,,,,,,,,,,,,,,,,,,,,,,,,,,,,,,,,,,,,,,,,,,,,,,
0,26,26,68,1,,5ea8bea5a6081b141edb65ba,62bbf922b17330df12859376,2022-06-29_24h03.33.132,Colour_Asymmetry_Pilot,2022.1.3,MacIntel,59.97361161,62bbe60bf3d75ef465d3e404,,,,,,,,,,,,,,,,,,,,,,,,,,,,,,,,,,,,,,,,,,,,,,,,,,,,,,,,,,,,,,,,,,,,,,,,,,,,,,,,,,,,,,,,,,,,,,,,,,,,,,,,,,,,,,,,,,,,,,,,,,,,,,,,,,,,,,,,,,,,,,,,,,,,,,,,,,,,,,
0,27,27,52,1,,5ea8bea5a6081b141edb65ba,62bbf922b17330df12859376,2022-06-29_24h03.33.132,Colour_Asymmetry_Pilot,2022.1.3,MacIntel,59.97361161,62bbe60bf3d75ef465d3e404,,,,,,,,,,,,,,,,,,,,,,,,,,,,,,,,,,,,,,,,,,,,,,,,,,,,,,,,,,,,,,,,,,,,,,,,,,,,,,,,,,,,,,,,,,,,,,,,,,,,,,,,,,,,,,,,,,,,,,,,,,,,,,,,,,,,,,,,,,,,,,,,,,,,,,,,,,,,,,
0,28,28,81,1,,5ea8bea5a6081b141edb65ba,62bbf922b17330df12859376,2022-06-29_24h03.33.132,Colour_Asymmetry_Pilot,2022.1.3,MacIntel,59.97361161,62bbe60bf3d75ef465d3e404,,,,,,,,,,,,,,,,,,,,,,,,,,,,,,,,,,,,,,,,,,,,,,,,,,,,,,,,,,,,,,,,,,,,,,,,,,,,,,,,,,,,,,,,,,,,,,,,,,,,,,,,,,,,,,,,,,,,,,,,,,,,,,,,,,,,,,,,,,,,,,,,,,,,,,,,,,,,,,
0,29,29,78,1,,5ea8bea5a6081b141edb65ba,62bbf922b17330df12859376,2022-06-29_24h03.33.132,Colour_Asymmetry_Pilot,2022.1.3,MacIntel,59.97361161,62bbe60bf3d75ef465d3e404,,,,,,,,,,,,,,,,,,,,,,,,,,,,,,,,,,,,,,,,,,,,,,,,,,,,,,,,,,,,,,,,,,,,,,,,,,,,,,,,,,,,,,,,,,,,,,,,,,,,,,,,,,,,,,,,,,,,,,,,,,,,,,,,,,,,,,,,,,,,,,,,,,,,,,,,,,,,,,
0,30,30,90,1,,5ea8bea5a6081b141edb65ba,62bbf922b17330df12859376,2022-06-29_24h03.33.132,Colour_Asymmetry_Pilot,2022.1.3,MacIntel,59.97361161,62bbe60bf3d75ef465d3e404,,,,,,,,,,,,,,,,,,,,,,,,,,,,,,,,,,,,,,,,,,,,,,,,,,,,,,,,,,,,,,,,,,,,,,,,,,,,,,,,,,,,,,,,,,,,,,,,,,,,,,,,,,,,,,,,,,,,,,,,,,,,,,,,,,,,,,,,,,,,,,,,,,,,,,,,,,,,,,
0,31,31,82,1,,5ea8bea5a6081b141edb65ba,62bbf922b17330df12859376,2022-06-29_24h03.33.132,Colour_Asymmetry_Pilot,2022.1.3,MacIntel,59.97361161,62bbe60bf3d75ef465d3e404,,,,,,,,,,,,,,,,,,,,,,,,,,,,,,,,,,,,,,,,,,,,,,,,,,,,,,,,,,,,,,,,,,,,,,,,,,,,,,,,,,,,,,,,,,,,,,,,,,,,,,,,,,,,,,,,,,,,,,,,,,,,,,,,,,,,,,,,,,,,,,,,,,,,,,,,,,,,,,
0,32,32,66,1,,5ea8bea5a6081b141edb65ba,62bbf922b17330df12859376,2022-06-29_24h03.33.132,Colour_Asymmetry_Pilot,2022.1.3,MacIntel,59.97361161,62bbe60bf3d75ef465d3e404,,,,,,,,,,,,,,,,,,,,,,,,,,,,,,,,,,,,,,,,,,,,,,,,,,,,,,,,,,,,,,,,,,,,,,,,,,,,,,,,,,,,,,,,,,,,,,,,,,,,,,,,,,,,,,,,,,,,,,,,,,,,,,,,,,,,,,,,,,,,,,,,,,,,,,,,,,,,,,
0,33,33,80,1,,5ea8bea5a6081b141edb65ba,62bbf922b17330df12859376,2022-06-29_24h03.33.132,Colour_Asymmetry_Pilot,2022.1.3,MacIntel,59.97361161,62bbe60bf3d75ef465d3e404,,,,,,,,,,,,,,,,,,,,,,,,,,,,,,,,,,,,,,,,,,,,,,,,,,,,,,,,,,,,,,,,,,,,,,,,,,,,,,,,,,,,,,,,,,,,,,,,,,,,,,,,,,,,,,,,,,,,,,,,,,,,,,,,,,,,,,,,,,,,,,,,,,,,,,,,,,,,,,
0,34,34,19,1,,5ea8bea5a6081b141edb65ba,62bbf922b17330df12859376,2022-06-29_24h03.33.132,Colour_Asymmetry_Pilot,2022.1.3,MacIntel,59.97361161,62bbe60bf3d75ef465d3e404,,,,,,,,,,,,,,,,,,,,,,,,,,,,,,,,,,,,,,,,,,,,,,,,,,,,,,,,,,,,,,,,,,,,,,,,,,,,,,,,,,,,,,,,,,,,,,,,,,,,,,,,,,,,,,,,,,,,,,,,,,,,,,,,,,,,,,,,,,,,,,,,,,,,,,,,,,,,,,
0,35,35,36,1,,5ea8bea5a6081b141edb65ba,62bbf922b17330df12859376,2022-06-29_24h03.33.132,Colour_Asymmetry_Pilot,2022.1.3,MacIntel,59.97361161,62bbe60bf3d75ef465d3e404,,,,,,,,,,,,,,,,,,,,,,,,,,,,,,,,,,,,,,,,,,,,,,,,,,,,,,,,,,,,,,,,,,,,,,,,,,,,,,,,,,,,,,,,,,,,,,,,,,,,,,,,,,,,,,,,,,,,,,,,,,,,,,,,,,,,,,,,,,,,,,,,,,,,,,,,,,,,,,
0,36,36,18,1,,5ea8bea5a6081b141edb65ba,62bbf922b17330df12859376,2022-06-29_24h03.33.132,Colour_Asymmetry_Pilot,2022.1.3,MacIntel,59.97361161,62bbe60bf3d75ef465d3e404,,,,,,,,,,,,,,,,,,,,,,,,,,,,,,,,,,,,,,,,,,,,,,,,,,,,,,,,,,,,,,,,,,,,,,,,,,,,,,,,,,,,,,,,,,,,,,,,,,,,,,,,,,,,,,,,,,,,,,,,,,,,,,,,,,,,,,,,,,,,,,,,,,,,,,,,,,,,,,
0,37,37,31,1,,5ea8bea5a6081b141edb65ba,62bbf922b17330df12859376,2022-06-29_24h03.33.132,Colour_Asymmetry_Pilot,2022.1.3,MacIntel,59.97361161,62bbe60bf3d75ef465d3e404,,,,,,,,,,,,,,,,,,,,,,,,,,,,,,,,,,,,,,,,,,,,,,,,,,,,,,,,,,,,,,,,,,,,,,,,,,,,,,,,,,,,,,,,,,,,,,,,,,,,,,,,,,,,,,,,,,,,,,,,,,,,,,,,,,,,,,,,,,,,,,,,,,,,,,,,,,,,,,
0,38,38,5,1,,5ea8bea5a6081b141edb65ba,62bbf922b17330df12859376,2022-06-29_24h03.33.132,Colour_Asymmetry_Pilot,2022.1.3,MacIntel,59.97361161,62bbe60bf3d75ef465d3e404,,,,,,,,,,,,,,,,,,,,,,,,,,,,,,,,,,,,,,,,,,,,,,,,,,,,,,,,,,,,,,,,,,,,,,,,,,,,,,,,,,,,,,,,,,,,,,,,,,,,,,,,,,,,,,,,,,,,,,,,,,,,,,,,,,,,,,,,,,,,,,,,,,,,,,,,,,,,,,
0,39,39,76,1,,5ea8bea5a6081b141edb65ba,62bbf922b17330df12859376,2022-06-29_24h03.33.132,Colour_Asymmetry_Pilot,2022.1.3,MacIntel,59.97361161,62bbe60bf3d75ef465d3e404,,,,,,,,,,,,,,,,,,,,,,,,,,,,,,,,,,,,,,,,,,,,,,,,,,,,,,,,,,,,,,,,,,,,,,,,,,,,,,,,,,,,,,,,,,,,,,,,,,,,,,,,,,,,,,,,,,,,,,,,,,,,,,,,,,,,,,,,,,,,,,,,,,,,,,,,,,,,,,
0,40,40,43,1,,5ea8bea5a6081b141edb65ba,62bbf922b17330df12859376,2022-06-29_24h03.33.132,Colour_Asymmetry_Pilot,2022.1.3,MacIntel,59.97361161,62bbe60bf3d75ef465d3e404,,,,,,,,,,,,,,,,,,,,,,,,,,,,,,,,,,,,,,,,,,,,,,,,,,,,,,,,,,,,,,,,,,,,,,,,,,,,,,,,,,,,,,,,,,,,,,,,,,,,,,,,,,,,,,,,,,,,,,,,,,,,,,,,,,,,,,,,,,,,,,,,,,,,,,,,,,,,,,
0,41,41,15,1,,5ea8bea5a6081b141edb65ba,62bbf922b17330df12859376,2022-06-29_24h03.33.132,Colour_Asymmetry_Pilot,2022.1.3,MacIntel,59.97361161,62bbe60bf3d75ef465d3e404,,,,,,,,,,,,,,,,,,,,,,,,,,,,,,,,,,,,,,,,,,,,,,,,,,,,,,,,,,,,,,,,,,,,,,,,,,,,,,,,,,,,,,,,,,,,,,,,,,,,,,,,,,,,,,,,,,,,,,,,,,,,,,,,,,,,,,,,,,,,,,,,,,,,,,,,,,,,,,
0,42,42,88,1,,5ea8bea5a6081b141edb65ba,62bbf922b17330df12859376,2022-06-29_24h03.33.132,Colour_Asymmetry_Pilot,2022.1.3,MacIntel,59.97361161,62bbe60bf3d75ef465d3e404,,,,,,,,,,,,,,,,,,,,,,,,,,,,,,,,,,,,,,,,,,,,,,,,,,,,,,,,,,,,,,,,,,,,,,,,,,,,,,,,,,,,,,,,,,,,,,,,,,,,,,,,,,,,,,,,,,,,,,,,,,,,,,,,,,,,,,,,,,,,,,,,,,,,,,,,,,,,,,
0,43,43,26,1,,5ea8bea5a6081b141edb65ba,62bbf922b17330df12859376,2022-06-29_24h03.33.132,Colour_Asymmetry_Pilot,2022.1.3,MacIntel,59.97361161,62bbe60bf3d75ef465d3e404,,,,,,,,,,,,,,,,,,,,,,,,,,,,,,,,,,,,,,,,,,,,,,,,,,,,,,,,,,,,,,,,,,,,,,,,,,,,,,,,,,,,,,,,,,,,,,,,,,,,,,,,,,,,,,,,,,,,,,,,,,,,,,,,,,,,,,,,,,,,,,,,,,,,,,,,,,,,,,
0,44,44,75,1,,5ea8bea5a6081b141edb65ba,62bbf922b17330df12859376,2022-06-29_24h03.33.132,Colour_Asymmetry_Pilot,2022.1.3,MacIntel,59.97361161,62bbe60bf3d75ef465d3e404,,,,,,,,,,,,,,,,,,,,,,,,,,,,,,,,,,,,,,,,,,,,,,,,,,,,,,,,,,,,,,,,,,,,,,,,,,,,,,,,,,,,,,,,,,,,,,,,,,,,,,,,,,,,,,,,,,,,,,,,,,,,,,,,,,,,,,,,,,,,,,,,,,,,,,,,,,,,,,
0,45,45,17,1,,5ea8bea5a6081b141edb65ba,62bbf922b17330df12859376,2022-06-29_24h03.33.132,Colour_Asymmetry_Pilot,2022.1.3,MacIntel,59.97361161,62bbe60bf3d75ef465d3e404,,,,,,,,,,,,,,,,,,,,,,,,,,,,,,,,,,,,,,,,,,,,,,,,,,,,,,,,,,,,,,,,,,,,,,,,,,,,,,,,,,,,,,,,,,,,,,,,,,,,,,,,,,,,,,,,,,,,,,,,,,,,,,,,,,,,,,,,,,,,,,,,,,,,,,,,,,,,,,
0,46,46,71,1,,5ea8bea5a6081b141edb65ba,62bbf922b17330df12859376,2022-06-29_24h03.33.132,Colour_Asymmetry_Pilot,2022.1.3,MacIntel,59.97361161,62bbe60bf3d75ef465d3e404,,,,,,,,,,,,,,,,,,,,,,,,,,,,,,,,,,,,,,,,,,,,,,,,,,,,,,,,,,,,,,,,,,,,,,,,,,,,,,,,,,,,,,,,,,,,,,,,,,,,,,,,,,,,,,,,,,,,,,,,,,,,,,,,,,,,,,,,,,,,,,,,,,,,,,,,,,,,,,
0,47,47,20,1,,5ea8bea5a6081b141edb65ba,62bbf922b17330df12859376,2022-06-29_24h03.33.132,Colour_Asymmetry_Pilot,2022.1.3,MacIntel,59.97361161,62bbe60bf3d75ef465d3e404,,,,,,,,,,,,,,,,,,,,,,,,,,,,,,,,,,,,,,,,,,,,,,,,,,,,,,,,,,,,,,,,,,,,,,,,,,,,,,,,,,,,,,,,,,,,,,,,,,,,,,,,,,,,,,,,,,,,,,,,,,,,,,,,,,,,,,,,,,,,,,,,,,,,,,,,,,,,,,
0,48,48,21,1,,5ea8bea5a6081b141edb65ba,62bbf922b17330df12859376,2022-06-29_24h03.33.132,Colour_Asymmetry_Pilot,2022.1.3,MacIntel,59.97361161,62bbe60bf3d75ef465d3e404,,,,,,,,,,,,,,,,,,,,,,,,,,,,,,,,,,,,,,,,,,,,,,,,,,,,,,,,,,,,,,,,,,,,,,,,,,,,,,,,,,,,,,,,,,,,,,,,,,,,,,,,,,,,,,,,,,,,,,,,,,,,,,,,,,,,,,,,,,,,,,,,,,,,,,,,,,,,,,
0,49,49,89,1,,5ea8bea5a6081b141edb65ba,62bbf922b17330df12859376,2022-06-29_24h03.33.132,Colour_Asymmetry_Pilot,2022.1.3,MacIntel,59.97361161,62bbe60bf3d75ef465d3e404,,,,,,,,,,,,,,,,,,,,,,,,,,,,,,,,,,,,,,,,,,,,,,,,,,,,,,,,,,,,,,,,,,,,,,,,,,,,,,,,,,,,,,,,,,,,,,,,,,,,,,,,,,,,,,,,,,,,,,,,,,,,,,,,,,,,,,,,,,,,,,,,,,,,,,,,,,,,,,
0,50,50,32,1,,5ea8bea5a6081b141edb65ba,62bbf922b17330df12859376,2022-06-29_24h03.33.132,Colour_Asymmetry_Pilot,2022.1.3,MacIntel,59.97361161,62bbe60bf3d75ef465d3e404,,,,,,,,,,,,,,,,,,,,,,,,,,,,,,,,,,,,,,,,,,,,,,,,,,,,,,,,,,,,,,,,,,,,,,,,,,,,,,,,,,,,,,,,,,,,,,,,,,,,,,,,,,,,,,,,,,,,,,,,,,,,,,,,,,,,,,,,,,,,,,,,,,,,,,,,,,,,,,
0,51,51,2,1,,5ea8bea5a6081b141edb65ba,62bbf922b17330df12859376,2022-06-29_24h03.33.132,Colour_Asymmetry_Pilot,2022.1.3,MacIntel,59.97361161,62bbe60bf3d75ef465d3e404,,,,,,,,,,,,,,,,,,,,,,,,,,,,,,,,,,,,,,,,,,,,,,,,,,,,,,,,,,,,,,,,,,,,,,,,,,,,,,,,,,,,,,,,,,,,,,,,,,,,,,,,,,,,,,,,,,,,,,,,,,,,,,,,,,,,,,,,,,,,,,,,,,,,,,,,,,,,,,
0,52,52,69,1,,5ea8bea5a6081b141edb65ba,62bbf922b17330df12859376,2022-06-29_24h03.33.132,Colour_Asymmetry_Pilot,2022.1.3,MacIntel,59.97361161,62bbe60bf3d75ef465d3e404,,,,,,,,,,,,,,,,,,,,,,,,,,,,,,,,,,,,,,,,,,,,,,,,,,,,,,,,,,,,,,,,,,,,,,,,,,,,,,,,,,,,,,,,,,,,,,,,,,,,,,,,,,,,,,,,,,,,,,,,,,,,,,,,,,,,,,,,,,,,,,,,,,,,,,,,,,,,,,
0,53,53,47,1,,5ea8bea5a6081b141edb65ba,62bbf922b17330df12859376,2022-06-29_24h03.33.132,Colour_Asymmetry_Pilot,2022.1.3,MacIntel,59.97361161,62bbe60bf3d75ef465d3e404,,,,,,,,,,,,,,,,,,,,,,,,,,,,,,,,,,,,,,,,,,,,,,,,,,,,,,,,,,,,,,,,,,,,,,,,,,,,,,,,,,,,,,,,,,,,,,,,,,,,,,,,,,,,,,,,,,,,,,,,,,,,,,,,,,,,,,,,,,,,,,,,,,,,,,,,,,,,,,
0,54,54,12,1,,5ea8bea5a6081b141edb65ba,62bbf922b17330df12859376,2022-06-29_24h03.33.132,Colour_Asymmetry_Pilot,2022.1.3,MacIntel,59.97361161,62bbe60bf3d75ef465d3e404,,,,,,,,,,,,,,,,,,,,,,,,,,,,,,,,,,,,,,,,,,,,,,,,,,,,,,,,,,,,,,,,,,,,,,,,,,,,,,,,,,,,,,,,,,,,,,,,,,,,,,,,,,,,,,,,,,,,,,,,,,,,,,,,,,,,,,,,,,,,,,,,,,,,,,,,,,,,,,
0,55,55,14,1,,5ea8bea5a6081b141edb65ba,62bbf922b17330df12859376,2022-06-29_24h03.33.132,Colour_Asymmetry_Pilot,2022.1.3,MacIntel,59.97361161,62bbe60bf3d75ef465d3e404,,,,,,,,,,,,,,,,,,,,,,,,,,,,,,,,,,,,,,,,,,,,,,,,,,,,,,,,,,,,,,,,,,,,,,,,,,,,,,,,,,,,,,,,,,,,,,,,,,,,,,,,,,,,,,,,,,,,,,,,,,,,,,,,,,,,,,,,,,,,,,,,,,,,,,,,,,,,,,
0,56,56,44,1,,5ea8bea5a6081b141edb65ba,62bbf922b17330df12859376,2022-06-29_24h03.33.132,Colour_Asymmetry_Pilot,2022.1.3,MacIntel,59.97361161,62bbe60bf3d75ef465d3e404,,,,,,,,,,,,,,,,,,,,,,,,,,,,,,,,,,,,,,,,,,,,,,,,,,,,,,,,,,,,,,,,,,,,,,,,,,,,,,,,,,,,,,,,,,,,,,,,,,,,,,,,,,,,,,,,,,,,,,,,,,,,,,,,,,,,,,,,,,,,,,,,,,,,,,,,,,,,,,
0,57,57,22,1,,5ea8bea5a6081b141edb65ba,62bbf922b17330df12859376,2022-06-29_24h03.33.132,Colour_Asymmetry_Pilot,2022.1.3,MacIntel,59.97361161,62bbe60bf3d75ef465d3e404,,,,,,,,,,,,,,,,,,,,,,,,,,,,,,,,,,,,,,,,,,,,,,,,,,,,,,,,,,,,,,,,,,,,,,,,,,,,,,,,,,,,,,,,,,,,,,,,,,,,,,,,,,,,,,,,,,,,,,,,,,,,,,,,,,,,,,,,,,,,,,,,,,,,,,,,,,,,,,
0,58,58,13,1,,5ea8bea5a6081b141edb65ba,62bbf922b17330df12859376,2022-06-29_24h03.33.132,Colour_Asymmetry_Pilot,2022.1.3,MacIntel,59.97361161,62bbe60bf3d75ef465d3e404,,,,,,,,,,,,,,,,,,,,,,,,,,,,,,,,,,,,,,,,,,,,,,,,,,,,,,,,,,,,,,,,,,,,,,,,,,,,,,,,,,,,,,,,,,,,,,,,,,,,,,,,,,,,,,,,,,,,,,,,,,,,,,,,,,,,,,,,,,,,,,,,,,,,,,,,,,,,,,
0,59,59,54,1,,5ea8bea5a6081b141edb65ba,62bbf922b17330df12859376,2022-06-29_24h03.33.132,Colour_Asymmetry_Pilot,2022.1.3,MacIntel,59.97361161,62bbe60bf3d75ef465d3e404,,,,,,,,,,,,,,,,,,,,,,,,,,,,,,,,,,,,,,,,,,,,,,,,,,,,,,,,,,,,,,,,,,,,,,,,,,,,,,,,,,,,,,,,,,,,,,,,,,,,,,,,,,,,,,,,,,,,,,,,,,,,,,,,,,,,,,,,,,,,,,,,,,,,,,,,,,,,,,
0,60,60,74,1,,5ea8bea5a6081b141edb65ba,62bbf922b17330df12859376,2022-06-29_24h03.33.132,Colour_Asymmetry_Pilot,2022.1.3,MacIntel,59.97361161,62bbe60bf3d75ef465d3e404,,,,,,,,,,,,,,,,,,,,,,,,,,,,,,,,,,,,,,,,,,,,,,,,,,,,,,,,,,,,,,,,,,,,,,,,,,,,,,,,,,,,,,,,,,,,,,,,,,,,,,,,,,,,,,,,,,,,,,,,,,,,,,,,,,,,,,,,,,,,,,,,,,,,,,,,,,,,,,
0,61,61,85,1,,5ea8bea5a6081b141edb65ba,62bbf922b17330df12859376,2022-06-29_24h03.33.132,Colour_Asymmetry_Pilot,2022.1.3,MacIntel,59.97361161,62bbe60bf3d75ef465d3e404,,,,,,,,,,,,,,,,,,,,,,,,,,,,,,,,,,,,,,,,,,,,,,,,,,,,,,,,,,,,,,,,,,,,,,,,,,,,,,,,,,,,,,,,,,,,,,,,,,,,,,,,,,,,,,,,,,,,,,,,,,,,,,,,,,,,,,,,,,,,,,,,,,,,,,,,,,,,,,
0,62,62,40,1,,5ea8bea5a6081b141edb65ba,62bbf922b17330df12859376,2022-06-29_24h03.33.132,Colour_Asymmetry_Pilot,2022.1.3,MacIntel,59.97361161,62bbe60bf3d75ef465d3e404,,,,,,,,,,,,,,,,,,,,,,,,,,,,,,,,,,,,,,,,,,,,,,,,,,,,,,,,,,,,,,,,,,,,,,,,,,,,,,,,,,,,,,,,,,,,,,,,,,,,,,,,,,,,,,,,,,,,,,,,,,,,,,,,,,,,,,,,,,,,,,,,,,,,,,,,,,,,,,
0,63,63,65,1,,5ea8bea5a6081b141edb65ba,62bbf922b17330df12859376,2022-06-29_24h03.33.132,Colour_Asymmetry_Pilot,2022.1.3,MacIntel,59.97361161,62bbe60bf3d75ef465d3e404,,,,,,,,,,,,,,,,,,,,,,,,,,,,,,,,,,,,,,,,,,,,,,,,,,,,,,,,,,,,,,,,,,,,,,,,,,,,,,,,,,,,,,,,,,,,,,,,,,,,,,,,,,,,,,,,,,,,,,,,,,,,,,,,,,,,,,,,,,,,,,,,,,,,,,,,,,,,,,
0,64,64,73,1,,5ea8bea5a6081b141edb65ba,62bbf922b17330df12859376,2022-06-29_24h03.33.132,Colour_Asymmetry_Pilot,2022.1.3,MacIntel,59.97361161,62bbe60bf3d75ef465d3e404,,,,,,,,,,,,,,,,,,,,,,,,,,,,,,,,,,,,,,,,,,,,,,,,,,,,,,,,,,,,,,,,,,,,,,,,,,,,,,,,,,,,,,,,,,,,,,,,,,,,,,,,,,,,,,,,,,,,,,,,,,,,,,,,,,,,,,,,,,,,,,,,,,,,,,,,,,,,,,
0,65,65,67,1,,5ea8bea5a6081b141edb65ba,62bbf922b17330df12859376,2022-06-29_24h03.33.132,Colour_Asymmetry_Pilot,2022.1.3,MacIntel,59.97361161,62bbe60bf3d75ef465d3e404,,,,,,,,,,,,,,,,,,,,,,,,,,,,,,,,,,,,,,,,,,,,,,,,,,,,,,,,,,,,,,,,,,,,,,,,,,,,,,,,,,,,,,,,,,,,,,,,,,,,,,,,,,,,,,,,,,,,,,,,,,,,,,,,,,,,,,,,,,,,,,,,,,,,,,,,,,,,,,
0,66,66,25,1,,5ea8bea5a6081b141edb65ba,62bbf922b17330df12859376,2022-06-29_24h03.33.132,Colour_Asymmetry_Pilot,2022.1.3,MacIntel,59.97361161,62bbe60bf3d75ef465d3e404,,,,,,,,,,,,,,,,,,,,,,,,,,,,,,,,,,,,,,,,,,,,,,,,,,,,,,,,,,,,,,,,,,,,,,,,,,,,,,,,,,,,,,,,,,,,,,,,,,,,,,,,,,,,,,,,,,,,,,,,,,,,,,,,,,,,,,,,,,,,,,,,,,,,,,,,,,,,,,
0,67,67,30,1,,5ea8bea5a6081b141edb65ba,62bbf922b17330df12859376,2022-06-29_24h03.33.132,Colour_Asymmetry_Pilot,2022.1.3,MacIntel,59.97361161,62bbe60bf3d75ef465d3e404,,,,,,,,,,,,,,,,,,,,,,,,,,,,,,,,,,,,,,,,,,,,,,,,,,,,,,,,,,,,,,,,,,,,,,,,,,,,,,,,,,,,,,,,,,,,,,,,,,,,,,,,,,,,,,,,,,,,,,,,,,,,,,,,,,,,,,,,,,,,,,,,,,,,,,,,,,,,,,
0,68,68,84,1,,5ea8bea5a6081b141edb65ba,62bbf922b17330df12859376,2022-06-29_24h03.33.132,Colour_Asymmetry_Pilot,2022.1.3,MacIntel,59.97361161,62bbe60bf3d75ef465d3e404,,,,,,,,,,,,,,,,,,,,,,,,,,,,,,,,,,,,,,,,,,,,,,,,,,,,,,,,,,,,,,,,,,,,,,,,,,,,,,,,,,,,,,,,,,,,,,,,,,,,,,,,,,,,,,,,,,,,,,,,,,,,,,,,,,,,,,,,,,,,,,,,,,,,,,,,,,,,,,
0,69,69,16,1,,5ea8bea5a6081b141edb65ba,62bbf922b17330df12859376,2022-06-29_24h03.33.132,Colour_Asymmetry_Pilot,2022.1.3,MacIntel,59.97361161,62bbe60bf3d75ef465d3e404,,,,,,,,,,,,,,,,,,,,,,,,,,,,,,,,,,,,,,,,,,,,,,,,,,,,,,,,,,,,,,,,,,,,,,,,,,,,,,,,,,,,,,,,,,,,,,,,,,,,,,,,,,,,,,,,,,,,,,,,,,,,,,,,,,,,,,,,,,,,,,,,,,,,,,,,,,,,,,
0,70,70,42,1,,5ea8bea5a6081b141edb65ba,62bbf922b17330df12859376,2022-06-29_24h03.33.132,Colour_Asymmetry_Pilot,2022.1.3,MacIntel,59.97361161,62bbe60bf3d75ef465d3e404,,,,,,,,,,,,,,,,,,,,,,,,,,,,,,,,,,,,,,,,,,,,,,,,,,,,,,,,,,,,,,,,,,,,,,,,,,,,,,,,,,,,,,,,,,,,,,,,,,,,,,,,,,,,,,,,,,,,,,,,,,,,,,,,,,,,,,,,,,,,,,,,,,,,,,,,,,,,,,
0,71,71,55,1,,5ea8bea5a6081b141edb65ba,62bbf922b17330df12859376,2022-06-29_24h03.33.132,Colour_Asymmetry_Pilot,2022.1.3,MacIntel,59.97361161,62bbe60bf3d75ef465d3e404,,,,,,,,,,,,,,,,,,,,,,,,,,,,,,,,,,,,,,,,,,,,,,,,,,,,,,,,,,,,,,,,,,,,,,,,,,,,,,,,,,,,,,,,,,,,,,,,,,,,,,,,,,,,,,,,,,,,,,,,,,,,,,,,,,,,,,,,,,,,,,,,,,,,,,,,,,,,,,
0,72,72,61,1,,5ea8bea5a6081b141edb65ba,62bbf922b17330df12859376,2022-06-29_24h03.33.132,Colour_Asymmetry_Pilot,2022.1.3,MacIntel,59.97361161,62bbe60bf3d75ef465d3e404,,,,,,,,,,,,,,,,,,,,,,,,,,,,,,,,,,,,,,,,,,,,,,,,,,,,,,,,,,,,,,,,,,,,,,,,,,,,,,,,,,,,,,,,,,,,,,,,,,,,,,,,,,,,,,,,,,,,,,,,,,,,,,,,,,,,,,,,,,,,,,,,,,,,,,,,,,,,,,
0,73,73,35,1,,5ea8bea5a6081b141edb65ba,62bbf922b17330df12859376,2022-06-29_24h03.33.132,Colour_Asymmetry_Pilot,2022.1.3,MacIntel,59.97361161,62bbe60bf3d75ef465d3e404,,,,,,,,,,,,,,,,,,,,,,,,,,,,,,,,,,,,,,,,,,,,,,,,,,,,,,,,,,,,,,,,,,,,,,,,,,,,,,,,,,,,,,,,,,,,,,,,,,,,,,,,,,,,,,,,,,,,,,,,,,,,,,,,,,,,,,,,,,,,,,,,,,,,,,,,,,,,,,
0,74,74,7,1,,5ea8bea5a6081b141edb65ba,62bbf922b17330df12859376,2022-06-29_24h03.33.132,Colour_Asymmetry_Pilot,2022.1.3,MacIntel,59.97361161,62bbe60bf3d75ef465d3e404,,,,,,,,,,,,,,,,,,,,,,,,,,,,,,,,,,,,,,,,,,,,,,,,,,,,,,,,,,,,,,,,,,,,,,,,,,,,,,,,,,,,,,,,,,,,,,,,,,,,,,,,,,,,,,,,,,,,,,,,,,,,,,,,,,,,,,,,,,,,,,,,,,,,,,,,,,,,,,
0,75,75,50,1,,5ea8bea5a6081b141edb65ba,62bbf922b17330df12859376,2022-06-29_24h03.33.132,Colour_Asymmetry_Pilot,2022.1.3,MacIntel,59.97361161,62bbe60bf3d75ef465d3e404,,,,,,,,,,,,,,,,,,,,,,,,,,,,,,,,,,,,,,,,,,,,,,,,,,,,,,,,,,,,,,,,,,,,,,,,,,,,,,,,,,,,,,,,,,,,,,,,,,,,,,,,,,,,,,,,,,,,,,,,,,,,,,,,,,,,,,,,,,,,,,,,,,,,,,,,,,,,,,
0,76,76,63,1,,5ea8bea5a6081b141edb65ba,62bbf922b17330df12859376,2022-06-29_24h03.33.132,Colour_Asymmetry_Pilot,2022.1.3,MacIntel,59.97361161,62bbe60bf3d75ef465d3e404,,,,,,,,,,,,,,,,,,,,,,,,,,,,,,,,,,,,,,,,,,,,,,,,,,,,,,,,,,,,,,,,,,,,,,,,,,,,,,,,,,,,,,,,,,,,,,,,,,,,,,,,,,,,,,,,,,,,,,,,,,,,,,,,,,,,,,,,,,,,,,,,,,,,,,,,,,,,,,
0,77,77,0,1,,5ea8bea5a6081b141edb65ba,62bbf922b17330df12859376,2022-06-29_24h03.33.132,Colour_Asymmetry_Pilot,2022.1.3,MacIntel,59.97361161,62bbe60bf3d75ef465d3e404,,,,,,,,,,,,,,,,,,,,,,,,,,,,,,,,,,,,,,,,,,,,,,,,,,,,,,,,,,,,,,,,,,,,,,,,,,,,,,,,,,,,,,,,,,,,,,,,,,,,,,,,,,,,,,,,,,,,,,,,,,,,,,,,,,,,,,,,,,,,,,,,,,,,,,,,,,,,,,
0,78,78,29,1,,5ea8bea5a6081b141edb65ba,62bbf922b17330df12859376,2022-06-29_24h03.33.132,Colour_Asymmetry_Pilot,2022.1.3,MacIntel,59.97361161,62bbe60bf3d75ef465d3e404,,,,,,,,,,,,,,,,,,,,,,,,,,,,,,,,,,,,,,,,,,,,,,,,,,,,,,,,,,,,,,,,,,,,,,,,,,,,,,,,,,,,,,,,,,,,,,,,,,,,,,,,,,,,,,,,,,,,,,,,,,,,,,,,,,,,,,,,,,,,,,,,,,,,,,,,,,,,,,
0,79,79,64,1,,5ea8bea5a6081b141edb65ba,62bbf922b17330df12859376,2022-06-29_24h03.33.132,Colour_Asymmetry_Pilot,2022.1.3,MacIntel,59.97361161,62bbe60bf3d75ef465d3e404,,,,,,,,,,,,,,,,,,,,,,,,,,,,,,,,,,,,,,,,,,,,,,,,,,,,,,,,,,,,,,,,,,,,,,,,,,,,,,,,,,,,,,,,,,,,,,,,,,,,,,,,,,,,,,,,,,,,,,,,,,,,,,,,,,,,,,,,,,,,,,,,,,,,,,,,,,,,,,
0,80,80,48,1,,5ea8bea5a6081b141edb65ba,62bbf922b17330df12859376,2022-06-29_24h03.33.132,Colour_Asymmetry_Pilot,2022.1.3,MacIntel,59.97361161,62bbe60bf3d75ef465d3e404,,,,,,,,,,,,,,,,,,,,,,,,,,,,,,,,,,,,,,,,,,,,,,,,,,,,,,,,,,,,,,,,,,,,,,,,,,,,,,,,,,,,,,,,,,,,,,,,,,,,,,,,,,,,,,,,,,,,,,,,,,,,,,,,,,,,,,,,,,,,,,,,,,,,,,,,,,,,,,
0,81,81,91,1,,5ea8bea5a6081b141edb65ba,62bbf922b17330df12859376,2022-06-29_24h03.33.132,Colour_Asymmetry_Pilot,2022.1.3,MacIntel,59.97361161,62bbe60bf3d75ef465d3e404,,,,,,,,,,,,,,,,,,,,,,,,,,,,,,,,,,,,,,,,,,,,,,,,,,,,,,,,,,,,,,,,,,,,,,,,,,,,,,,,,,,,,,,,,,,,,,,,,,,,,,,,,,,,,,,,,,,,,,,,,,,,,,,,,,,,,,,,,,,,,,,,,,,,,,,,,,,,,,
0,82,82,9,1,,5ea8bea5a6081b141edb65ba,62bbf922b17330df12859376,2022-06-29_24h03.33.132,Colour_Asymmetry_Pilot,2022.1.3,MacIntel,59.97361161,62bbe60bf3d75ef465d3e404,,,,,,,,,,,,,,,,,,,,,,,,,,,,,,,,,,,,,,,,,,,,,,,,,,,,,,,,,,,,,,,,,,,,,,,,,,,,,,,,,,,,,,,,,,,,,,,,,,,,,,,,,,,,,,,,,,,,,,,,,,,,,,,,,,,,,,,,,,,,,,,,,,,,,,,,,,,,,,
0,83,83,33,1,,5ea8bea5a6081b141edb65ba,62bbf922b17330df12859376,2022-06-29_24h03.33.132,Colour_Asymmetry_Pilot,2022.1.3,MacIntel,59.97361161,62bbe60bf3d75ef465d3e404,,,,,,,,,,,,,,,,,,,,,,,,,,,,,,,,,,,,,,,,,,,,,,,,,,,,,,,,,,,,,,,,,,,,,,,,,,,,,,,,,,,,,,,,,,,,,,,,,,,,,,,,,,,,,,,,,,,,,,,,,,,,,,,,,,,,,,,,,,,,,,,,,,,,,,,,,,,,,,
0,84,84,83,1,,5ea8bea5a6081b141edb65ba,62bbf922b17330df12859376,2022-06-29_24h03.33.132,Colour_Asymmetry_Pilot,2022.1.3,MacIntel,59.97361161,62bbe60bf3d75ef465d3e404,,,,,,,,,,,,,,,,,,,,,,,,,,,,,,,,,,,,,,,,,,,,,,,,,,,,,,,,,,,,,,,,,,,,,,,,,,,,,,,,,,,,,,,,,,,,,,,,,,,,,,,,,,,,,,,,,,,,,,,,,,,,,,,,,,,,,,,,,,,,,,,,,,,,,,,,,,,,,,
0,85,85,41,1,,5ea8bea5a6081b141edb65ba,62bbf922b17330df12859376,2022-06-29_24h03.33.132,Colour_Asymmetry_Pilot,2022.1.3,MacIntel,59.97361161,62bbe60bf3d75ef465d3e404,,,,,,,,,,,,,,,,,,,,,,,,,,,,,,,,,,,,,,,,,,,,,,,,,,,,,,,,,,,,,,,,,,,,,,,,,,,,,,,,,,,,,,,,,,,,,,,,,,,,,,,,,,,,,,,,,,,,,,,,,,,,,,,,,,,,,,,,,,,,,,,,,,,,,,,,,,,,,,
0,86,86,53,1,,5ea8bea5a6081b141edb65ba,62bbf922b17330df12859376,2022-06-29_24h03.33.132,Colour_Asymmetry_Pilot,2022.1.3,MacIntel,59.97361161,62bbe60bf3d75ef465d3e404,,,,,,,,,,,,,,,,,,,,,,,,,,,,,,,,,,,,,,,,,,,,,,,,,,,,,,,,,,,,,,,,,,,,,,,,,,,,,,,,,,,,,,,,,,,,,,,,,,,,,,,,,,,,,,,,,,,,,,,,,,,,,,,,,,,,,,,,,,,,,,,,,,,,,,,,,,,,,,
0,87,87,4,1,,5ea8bea5a6081b141edb65ba,62bbf922b17330df12859376,2022-06-29_24h03.33.132,Colour_Asymmetry_Pilot,2022.1.3,MacIntel,59.97361161,62bbe60bf3d75ef465d3e404,,,,,,,,,,,,,,,,,,,,,,,,,,,,,,,,,,,,,,,,,,,,,,,,,,,,,,,,,,,,,,,,,,,,,,,,,,,,,,,,,,,,,,,,,,,,,,,,,,,,,,,,,,,,,,,,,,,,,,,,,,,,,,,,,,,,,,,,,,,,,,,,,,,,,,,,,,,,,,
0,88,88,28,1,,5ea8bea5a6081b141edb65ba,62bbf922b17330df12859376,2022-06-29_24h03.33.132,Colour_Asymmetry_Pilot,2022.1.3,MacIntel,59.97361161,62bbe60bf3d75ef465d3e404,,,,,,,,,,,,,,,,,,,,,,,,,,,,,,,,,,,,,,,,,,,,,,,,,,,,,,,,,,,,,,,,,,,,,,,,,,,,,,,,,,,,,,,,,,,,,,,,,,,,,,,,,,,,,,,,,,,,,,,,,,,,,,,,,,,,,,,,,,,,,,,,,,,,,,,,,,,,,,
0,89,89,23,1,,5ea8bea5a6081b141edb65ba,62bbf922b17330df12859376,2022-06-29_24h03.33.132,Colour_Asymmetry_Pilot,2022.1.3,MacIntel,59.97361161,62bbe60bf3d75ef465d3e404,,,,,,,,,,,,,,,,,,,,,,,,,,,,,,,,,,,,,,,,,,,,,,,,,,,,,,,,,,,,,,,,,,,,,,,,,,,,,,,,,,,,,,,,,,,,,,,,,,,,,,,,,,,,,,,,,,,,,,,,,,,,,,,,,,,,,,,,,,,,,,,,,,,,,,,,,,,,,,
0,90,90,10,1,,5ea8bea5a6081b141edb65ba,62bbf922b17330df12859376,2022-06-29_24h03.33.132,Colour_Asymmetry_Pilot,2022.1.3,MacIntel,59.97361161,62bbe60bf3d75ef465d3e404,,,,,,,,,,,,,,,,,,,,,,,,,,,,,,,,,,,,,,,,,,,,,,,,,,,,,,,,,,,,,,,,,,,,,,,,,,,,,,,,,,,,,,,,,,,,,,,,,,,,,,,,,,,,,,,,,,,,,,,,,,,,,,,,,,,,,,,,,,,,,,,,,,,,,,,,,,,,,,
0,91,91,60,1,,5ea8bea5a6081b141edb65ba,62bbf922b17330df12859376,2022-06-29_24h03.33.132,Colour_Asymmetry_Pilot,2022.1.3,MacIntel,59.97361161,62bbe60bf3d75ef465d3e404,,,,,,,,,,,,,,,,,,,,,,,,,,,,,,,,,,,,,,,,,,,,,,,,,,,,,,,,,,,,,,,,,,,,,,,,,,,,,,,,,,,,,,,,,,,,,,,,,,,,,,,,,,,,,,,,,,,,,,,,,,,,,,,,,,,,,,,,,,,,,,,,,,,,,,,,,,,,,,
0,92,92,37,1,,5ea8bea5a6081b141edb65ba,62bbf922b17330df12859376,2022-06-29_24h03.33.132,Colour_Asymmetry_Pilot,2022.1.3,MacIntel,59.97361161,62bbe60bf3d75ef465d3e404,,,,,,,,,,,,,,,,,,,,,,,,,,,,,,,,,,,,,,,,,,,,,,,,,,,,,,,,,,,,,,,,,,,,,,,,,,,,,,,,,,,,,,,,,,,,,,,,,,,,,,,,,,,,,,,,,,,,,,,,,,,,,,,,,,,,,,,,,,,,,,,,,,,,,,,,,,,,,,
,,,,,,5ea8bea5a6081b141edb65ba,62bbf922b17330df12859376,2022-06-29_24h03.33.132,Colour_Asymmetry_Pilot,2022.1.3,MacIntel,59.97361161,62bbe60bf3d75ef465d3e404,0,0,0,0,1,onetwo,,,,,,,,,,,,,,,,,,,,,,,,,,,,,,,,,,,,,,,,,,,,,,,,,,,,,,,,,,,,,,,,,,,,,,,,,,,,,,,,,,,,,,,,,,,,,,,,,,,,,,,,,,,,,,,,,,,,,,,,,,,,,,,,,,,,,,,,,,,,,,,,,,,,,,,,
,,,,,,5ea8bea5a6081b141edb65ba,62bbf922b17330df12859376,2022-06-29_24h03.33.132,Colour_Asymmetry_Pilot,2022.1.3,MacIntel,59.97361161,62bbe60bf3d75ef465d3e404,0,1,1,68,1,threeone,,,,,,,,,,,,,,,,,,,,,,,,,,,,,,,,,,,,,,,,,,,,,,,,,,,,,,,,,,,,,,,,,,,,,,,,,,,,,,,,,,,,,,,,,,,,,,,,,,,,,,,,,,,,,,,,,,,,,,,,,,,,,,,,,,,,,,,,,,,,,,,,,,,,,,,,
,,,,,,5ea8bea5a6081b141edb65ba,62bbf922b17330df12859376,2022-06-29_24h03.33.132,Colour_Asymmetry_Pilot,2022.1.3,MacIntel,59.97361161,62bbe60bf3d75ef465d3e404,0,2,2,72,1,onetwo,,,,,,,,,,,,,,,,,,,,,,,,,,,,,,,,,,,,,,,,,,,,,,,,,,,,,,,,,,,,,,,,,,,,,,,,,,,,,,,,,,,,,,,,,,,,,,,,,,,,,,,,,,,,,,,,,,,,,,,,,,,,,,,,,,,,,,,,,,,,,,,,,,,,,,,,
,,,,,,5ea8bea5a6081b141edb65ba,62bbf922b17330df12859376,2022-06-29_24h03.33.132,Colour_Asymmetry_Pilot,2022.1.3,MacIntel,59.97361161,62bbe60bf3d75ef465d3e404,0,3,3,105,1,onethree,,,,,,,,,,,,,,,,,,,,,,,,,,,,,,,,,,,,,,,,,,,,,,,,,,,,,,,,,,,,,,,,,,,,,,,,,,,,,,,,,,,,,,,,,,,,,,,,,,,,,,,,,,,,,,,,,,,,,,,,,,,,,,,,,,,,,,,,,,,,,,,,,,,,,,,,
,,,,,,5ea8bea5a6081b141edb65ba,62bbf922b17330df12859376,2022-06-29_24h03.33.132,Colour_Asymmetry_Pilot,2022.1.3,MacIntel,59.97361161,62bbe60bf3d75ef465d3e404,0,4,4,99,1,twofour,,,,,,,,,,,,,,,,,,,,,,,,,,,,,,,,,,,,,,,,,,,,,,,,,,,,,,,,,,,,,,,,,,,,,,,,,,,,,,,,,,,,,,,,,,,,,,,,,,,,,,,,,,,,,,,,,,,,,,,,,,,,,,,,,,,,,,,,,,,,,,,,,,,,,,,,
,,,,,,5ea8bea5a6081b141edb65ba,62bbf922b17330df12859376,2022-06-29_24h03.33.132,Colour_Asymmetry_Pilot,2022.1.3,MacIntel,59.97361161,62bbe60bf3d75ef465d3e404,0,5,5,110,1,fourtwo,,,,,,,,,,,,,,,,,,,,,,,,,,,,,,,,,,,,,,,,,,,,,,,,,,,,,,,,,,,,,,,,,,,,,,,,,,,,,,,,,,,,,,,,,,,,,,,,,,,,,,,,,,,,,,,,,,,,,,,,,,,,,,,,,,,,,,,,,,,,,,,,,,,,,,,,
,,,,,,5ea8bea5a6081b141edb65ba,62bbf922b17330df12859376,2022-06-29_24h03.33.132,Colour_Asymmetry_Pilot,2022.1.3,MacIntel,59.97361161,62bbe60bf3d75ef465d3e404,0,6,6,49,1,onethree,,,,,,,,,,,,,,,,,,,,,,,,,,,,,,,,,,,,,,,,,,,,,,,,,,,,,,,,,,,,,,,,,,,,,,,,,,,,,,,,,,,,,,,,,,,,,,,,,,,,,,,,,,,,,,,,,,,,,,,,,,,,,,,,,,,,,,,,,,,,,,,,,,,,,,,,
,,,,,,5ea8bea5a6081b141edb65ba,62bbf922b17330df12859376,2022-06-29_24h03.33.132,Colour_Asymmetry_Pilot,2022.1.3,MacIntel,59.97361161,62bbe60bf3d75ef465d3e404,0,7,7,70,1,fourtwo,,,,,,,,,,,,,,,,,,,,,,,,,,,,,,,,,,,,,,,,,,,,,,,,,,,,,,,,,,,,,,,,,,,,,,,,,,,,,,,,,,,,,,,,,,,,,,,,,,,,,,,,,,,,,,,,,,,,,,,,,,,,,,,,,,,,,,,,,,,,,,,,,,,,,,,,
,,,,,,5ea8bea5a6081b141edb65ba,62bbf922b17330df12859376,2022-06-29_24h03.33.132,Colour_Asymmetry_Pilot,2022.1.3,MacIntel,59.97361161,62bbe60bf3d75ef465d3e404,0,8,8,119,1,fourthree,,,,,,,,,,,,,,,,,,,,,,,,,,,,,,,,,,,,,,,,,,,,,,,,,,,,,,,,,,,,,,,,,,,,,,,,,,,,,,,,,,,,,,,,,,,,,,,,,,,,,,,,,,,,,,,,,,,,,,,,,,,,,,,,,,,,,,,,,,,,,,,,,,,,,,,,
,,,,,,5ea8bea5a6081b141edb65ba,62bbf922b17330df12859376,2022-06-29_24h03.33.132,Colour_Asymmetry_Pilot,2022.1.3,MacIntel,59.97361161,62bbe60bf3d75ef465d3e404,0,9,9,25,1,onethree,,,,,,,,,,,,,,,,,,,,,,,,,,,,,,,,,,,,,,,,,,,,,,,,,,,,,,,,,,,,,,,,,,,,,,,,,,,,,,,,,,,,,,,,,,,,,,,,,,,,,,,,,,,,,,,,,,,,,,,,,,,,,,,,,,,,,,,,,,,,,,,,,,,,,,,,
,,,,,,5ea8bea5a6081b141edb65ba,62bbf922b17330df12859376,2022-06-29_24h03.33.132,Colour_Asymmetry_Pilot,2022.1.3,MacIntel,59.97361161,62bbe60bf3d75ef465d3e404,0,10,10,22,1,fourtwo,,,,,,,,,,,,,,,,,,,,,,,,,,,,,,,,,,,,,,,,,,,,,,,,,,,,,,,,,,,,,,,,,,,,,,,,,,,,,,,,,,,,,,,,,,,,,,,,,,,,,,,,,,,,,,,,,,,,,,,,,,,,,,,,,,,,,,,,,,,,,,,,,,,,,,,,
,,,,,,5ea8bea5a6081b141edb65ba,62bbf922b17330df12859376,2022-06-29_24h03.33.132,Colour_Asymmetry_Pilot,2022.1.3,MacIntel,59.97361161,62bbe60bf3d75ef465d3e404,0,11,11,71,1,fourthree,,,,,,,,,,,,,,,,,,,,,,,,,,,,,,,,,,,,,,,,,,,,,,,,,,,,,,,,,,,,,,,,,,,,,,,,,,,,,,,,,,,,,,,,,,,,,,,,,,,,,,,,,,,,,,,,,,,,,,,,,,,,,,,,,,,,,,,,,,,,,,,,,,,,,,,,
,,,,,,5ea8bea5a6081b141edb65ba,62bbf922b17330df12859376,2022-06-29_24h03.33.132,Colour_Asymmetry_Pilot,2022.1.3,MacIntel,59.97361161,62bbe60bf3d75ef465d3e404,0,12,12,1,1,onethree,,,,,,,,,,,,,,,,,,,,,,,,,,,,,,,,,,,,,,,,,,,,,,,,,,,,,,,,,,,,,,,,,,,,,,,,,,,,,,,,,,,,,,,,,,,,,,,,,,,,,,,,,,,,,,,,,,,,,,,,,,,,,,,,,,,,,,,,,,,,,,,,,,,,,,,,
,,,,,,5ea8bea5a6081b141edb65ba,62bbf922b17330df12859376,2022-06-29_24h03.33.132,Colour_Asymmetry_Pilot,2022.1.3,MacIntel,59.97361161,62bbe60bf3d75ef465d3e404,0,13,13,100,1,threeone,,,,,,,,,,,,,,,,,,,,,,,,,,,,,,,,,,,,,,,,,,,,,,,,,,,,,,,,,,,,,,,,,,,,,,,,,,,,,,,,,,,,,,,,,,,,,,,,,,,,,,,,,,,,,,,,,,,,,,,,,,,,,,,,,,,,,,,,,,,,,,,,,,,,,,,,
,,,,,,5ea8bea5a6081b141edb65ba,62bbf922b17330df12859376,2022-06-29_24h03.33.132,Colour_Asymmetry_Pilot,2022.1.3,MacIntel,59.97361161,62bbe60bf3d75ef465d3e404,0,14,14,134,1,fourtwo,,,,,,,,,,,,,,,,,,,,,,,,,,,,,,,,,,,,,,,,,,,,,,,,,,,,,,,,,,,,,,,,,,,,,,,,,,,,,,,,,,,,,,,,,,,,,,,,,,,,,,,,,,,,,,,,,,,,,,,,,,,,,,,,,,,,,,,,,,,,,,,,,,,,,,,,
,,,,,,5ea8bea5a6081b141edb65ba,62bbf922b17330df12859376,2022-06-29_24h03.33.132,Colour_Asymmetry_Pilot,2022.1.3,MacIntel,59.97361161,62bbe60bf3d75ef465d3e404,0,15,15,148,1,threeone,,,,,,,,,,,,,,,,,,,,,,,,,,,,,,,,,,,,,,,,,,,,,,,,,,,,,,,,,,,,,,,,,,,,,,,,,,,,,,,,,,,,,,,,,,,,,,,,,,,,,,,,,,,,,,,,,,,,,,,,,,,,,,,,,,,,,,,,,,,,,,,,,,,,,,,,
,,,,,,5ea8bea5a6081b141edb65ba,62bbf922b17330df12859376,2022-06-29_24h03.33.132,Colour_Asymmetry_Pilot,2022.1.3,MacIntel,59.97361161,62bbe60bf3d75ef465d3e404,0,16,16,46,1,fourtwo,,,,,,,,,,,,,,,,,,,,,,,,,,,,,,,,,,,,,,,,,,,,,,,,,,,,,,,,,,,,,,,,,,,,,,,,,,,,,,,,,,,,,,,,,,,,,,,,,,,,,,,,,,,,,,,,,,,,,,,,,,,,,,,,,,,,,,,,,,,,,,,,,,,,,,,,
,,,,,,5ea8bea5a6081b141edb65ba,62bbf922b17330df12859376,2022-06-29_24h03.33.132,Colour_Asymmetry_Pilot,2022.1.3,MacIntel,59.97361161,62bbe60bf3d75ef465d3e404,0,17,17,92,1,threeone,,,,,,,,,,,,,,,,,,,,,,,,,,,,,,,,,,,,,,,,,,,,,,,,,,,,,,,,,,,,,,,,,,,,,,,,,,,,,,,,,,,,,,,,,,,,,,,,,,,,,,,,,,,,,,,,,,,,,,,,,,,,,,,,,,,,,,,,,,,,,,,,,,,,,,,,
,,,,,,5ea8bea5a6081b141edb65ba,62bbf922b17330df12859376,2022-06-29_24h03.33.132,Colour_Asymmetry_Pilot,2022.1.3,MacIntel,59.97361161,62bbe60bf3d75ef465d3e404,0,18,18,52,1,threeone,,,,,,,,,,,,,,,,,,,,,,,,,,,,,,,,,,,,,,,,,,,,,,,,,,,,,,,,,,,,,,,,,,,,,,,,,,,,,,,,,,,,,,,,,,,,,,,,,,,,,,,,,,,,,,,,,,,,,,,,,,,,,,,,,,,,,,,,,,,,,,,,,,,,,,,,
,,,,,,5ea8bea5a6081b141edb65ba,62bbf922b17330df12859376,2022-06-29_24h03.33.132,Colour_Asymmetry_Pilot,2022.1.3,MacIntel,59.97361161,62bbe60bf3d75ef465d3e404,0,19,19,127,1,fourthree,,,,,,,,,,,,,,,,,,,,,,,,,,,,,,,,,,,,,,,,,,,,,,,,,,,,,,,,,,,,,,,,,,,,,,,,,,,,,,,,,,,,,,,,,,,,,,,,,,,,,,,,,,,,,,,,,,,,,,,,,,,,,,,,,,,,,,,,,,,,,,,,,,,,,,,,
,,,,,,5ea8bea5a6081b141edb65ba,62bbf922b17330df12859376,2022-06-29_24h03.33.132,Colour_Asymmetry_Pilot,2022.1.3,MacIntel,59.97361161,62bbe60bf3d75ef465d3e404,0,20,20,156,1,threeone,,,,,,,,,,,,,,,,,,,,,,,,,,,,,,,,,,,,,,,,,,,,,,,,,,,,,,,,,,,,,,,,,,,,,,,,,,,,,,,,,,,,,,,,,,,,,,,,,,,,,,,,,,,,,,,,,,,,,,,,,,,,,,,,,,,,,,,,,,,,,,,,,,,,,,,,
,,,,,,5ea8bea5a6081b141edb65ba,62bbf922b17330df12859376,2022-06-29_24h03.33.132,Colour_Asymmetry_Pilot,2022.1.3,MacIntel,59.97361161,62bbe60bf3d75ef465d3e404,0,21,21,58,1,twoone,,,,,,,,,,,,,,,,,,,,,,,,,,,,,,,,,,,,,,,,,,,,,,,,,,,,,,,,,,,,,,,,,,,,,,,,,,,,,,,,,,,,,,,,,,,,,,,,,,,,,,,,,,,,,,,,,,,,,,,,,,,,,,,,,,,,,,,,,,,,,,,,,,,,,,,,
,,,,,,5ea8bea5a6081b141edb65ba,62bbf922b17330df12859376,2022-06-29_24h03.33.132,Colour_Asymmetry_Pilot,2022.1.3,MacIntel,59.97361161,62bbe60bf3d75ef465d3e404,0,22,22,153,1,onethree,,,,,,,,,,,,,,,,,,,,,,,,,,,,,,,,,,,,,,,,,,,,,,,,,,,,,,,,,,,,,,,,,,,,,,,,,,,,,,,,,,,,,,,,,,,,,,,,,,,,,,,,,,,,,,,,,,,,,,,,,,,,,,,,,,,,,,,,,,,,,,,,,,,,,,,,
,,,,,,5ea8bea5a6081b141edb65ba,62bbf922b17330df12859376,2022-06-29_24h03.33.132,Colour_Asymmetry_Pilot,2022.1.3,MacIntel,59.97361161,62bbe60bf3d75ef465d3e404,0,23,23,64,1,onetwo,,,,,,,,,,,,,,,,,,,,,,,,,,,,,,,,,,,,,,,,,,,,,,,,,,,,,,,,,,,,,,,,,,,,,,,,,,,,,,,,,,,,,,,,,,,,,,,,,,,,,,,,,,,,,,,,,,,,,,,,,,,,,,,,,,,,,,,,,,,,,,,,,,,,,,,,
,,,,,,5ea8bea5a6081b141edb65ba,62bbf922b17330df12859376,2022-06-29_24h03.33.132,Colour_Asymmetry_Pilot,2022.1.3,MacIntel,59.97361161,62bbe60bf3d75ef465d3e404,0,24,24,144,1,onetwo,,,,,,,,,,,,,,,,,,,,,,,,,,,,,,,,,,,,,,,,,,,,,,,,,,,,,,,,,,,,,,,,,,,,,,,,,,,,,,,,,,,,,,,,,,,,,,,,,,,,,,,,,,,,,,,,,,,,,,,,,,,,,,,,,,,,,,,,,,,,,,,,,,,,,,,,
,,,,,,5ea8bea5a6081b141edb65ba,62bbf922b17330df12859376,2022-06-29_24h03.33.132,Colour_Asymmetry_Pilot,2022.1.3,MacIntel,59.97361161,62bbe60bf3d75ef465d3e404,0,25,25,51,1,twofour,,,,,,,,,,,,,,,,,,,,,,,,,,,,,,,,,,,,,,,,,,,,,,,,,,,,,,,,,,,,,,,,,,,,,,,,,,,,,,,,,,,,,,,,,,,,,,,,,,,,,,,,,,,,,,,,,,,,,,,,,,,,,,,,,,,,,,,,,,,,,,,,,,,,,,,,
,,,,,,5ea8bea5a6081b141edb65ba,62bbf922b17330df12859376,2022-06-29_24h03.33.132,Colour_Asymmetry_Pilot,2022.1.3,MacIntel,59.97361161,62bbe60bf3d75ef465d3e404,0,26,26,146,1,twoone,,,,,,,,,,,,,,,,,,,,,,,,,,,,,,,,,,,,,,,,,,,,,,,,,,,,,,,,,,,,,,,,,,,,,,,,,,,,,,,,,,,,,,,,,,,,,,,,,,,,,,,,,,,,,,,,,,,,,,,,,,,,,,,,,,,,,,,,,,,,,,,,,,,,,,,,
,,,,,,5ea8bea5a6081b141edb65ba,62bbf922b17330df12859376,2022-06-29_24h03.33.132,Colour_Asymmetry_Pilot,2022.1.3,MacIntel,59.97361161,62bbe60bf3d75ef465d3e404,0,27,27,106,1,twoone,,,,,,,,,,,,,,,,,,,,,,,,,,,,,,,,,,,,,,,,,,,,,,,,,,,,,,,,,,,,,,,,,,,,,,,,,,,,,,,,,,,,,,,,,,,,,,,,,,,,,,,,,,,,,,,,,,,,,,,,,,,,,,,,,,,,,,,,,,,,,,,,,,,,,,,,
,,,,,,5ea8bea5a6081b141edb65ba,62bbf922b17330df12859376,2022-06-29_24h03.33.132,Colour_Asymmetry_Pilot,2022.1.3,MacIntel,59.97361161,62bbe60bf3d75ef465d3e404,0,28,28,149,1,threefour,,,,,,,,,,,,,,,,,,,,,,,,,,,,,,,,,,,,,,,,,,,,,,,,,,,,,,,,,,,,,,,,,,,,,,,,,,,,,,,,,,,,,,,,,,,,,,,,,,,,,,,,,,,,,,,,,,,,,,,,,,,,,,,,,,,,,,,,,,,,,,,,,,,,,,,,
,,,,,,5ea8bea5a6081b141edb65ba,62bbf922b17330df12859376,2022-06-29_24h03.33.132,Colour_Asymmetry_Pilot,2022.1.3,MacIntel,59.97361161,62bbe60bf3d75ef465d3e404,0,29,29,88,1,onetwo,,,,,,,,,,,,,,,,,,,,,,,,,,,,,,,,,,,,,,,,,,,,,,,,,,,,,,,,,,,,,,,,,,,,,,,,,,,,,,,,,,,,,,,,,,,,,,,,,,,,,,,,,,,,,,,,,,,,,,,,,,,,,,,,,,,,,,,,,,,,,,,,,,,,,,,,
,,,,,,5ea8bea5a6081b141edb65ba,62bbf922b17330df12859376,2022-06-29_24h03.33.132,Colour_Asymmetry_Pilot,2022.1.3,MacIntel,59.97361161,62bbe60bf3d75ef465d3e404,0,30,30,40,1,onetwo,,,,,,,,,,,,,,,,,,,,,,,,,,,,,,,,,,,,,,,,,,,,,,,,,,,,,,,,,,,,,,,,,,,,,,,,,,,,,,,,,,,,,,,,,,,,,,,,,,,,,,,,,,,,,,,,,,,,,,,,,,,,,,,,,,,,,,,,,,,,,,,,,,,,,,,,
,,,,,,5ea8bea5a6081b141edb65ba,62bbf922b17330df12859376,2022-06-29_24h03.33.132,Colour_Asymmetry_Pilot,2022.1.3,MacIntel,59.97361161,62bbe60bf3d75ef465d3e404,0,31,31,50,1,twoone,,,,,,,,,,,,,,,,,,,,,,,,,,,,,,,,,,,,,,,,,,,,,,,,,,,,,,,,,,,,,,,,,,,,,,,,,,,,,,,,,,,,,,,,,,,,,,,,,,,,,,,,,,,,,,,,,,,,,,,,,,,,,,,,,,,,,,,,,,,,,,,,,,,,,,,,
,,,,,,5ea8bea5a6081b141edb65ba,62bbf922b17330df12859376,2022-06-29_24h03.33.132,Colour_Asymmetry_Pilot,2022.1.3,MacIntel,59.97361161,62bbe60bf3d75ef465d3e404,0,32,32,35,1,twofour,,,,,,,,,,,,,,,,,,,,,,,,,,,,,,,,,,,,,,,,,,,,,,,,,,,,,,,,,,,,,,,,,,,,,,,,,,,,,,,,,,,,,,,,,,,,,,,,,,,,,,,,,,,,,,,,,,,,,,,,,,,,,,,,,,,,,,,,,,,,,,,,,,,,,,,,
,,,,,,5ea8bea5a6081b141edb65ba,62bbf922b17330df12859376,2022-06-29_24h03.33.132,Colour_Asymmetry_Pilot,2022.1.3,MacIntel,59.97361161,62bbe60bf3d75ef465d3e404,0,33,33,151,1,fourthree,,,,,,,,,,,,,,,,,,,,,,,,,,,,,,,,,,,,,,,,,,,,,,,,,,,,,,,,,,,,,,,,,,,,,,,,,,,,,,,,,,,,,,,,,,,,,,,,,,,,,,,,,,,,,,,,,,,,,,,,,,,,,,,,,,,,,,,,,,,,,,,,,,,,,,,,
,,,,,,5ea8bea5a6081b141edb65ba,62bbf922b17330df12859376,2022-06-29_24h03.33.132,Colour_Asymmetry_Pilot,2022.1.3,MacIntel,59.97361161,62bbe60bf3d75ef465d3e404,0,34,34,145,1,onethree,,,,,,,,,,,,,,,,,,,,,,,,,,,,,,,,,,,,,,,,,,,,,,,,,,,,,,,,,,,,,,,,,,,,,,,,,,,,,,,,,,,,,,,,,,,,,,,,,,,,,,,,,,,,,,,,,,,,,,,,,,,,,,,,,,,,,,,,,,,,,,,,,,,,,,,,
,,,,,,5ea8bea5a6081b141edb65ba,62bbf922b17330df12859376,2022-06-29_24h03.33.132,Colour_Asymmetry_Pilot,2022.1.3,MacIntel,59.97361161,62bbe60bf3d75ef465d3e404,0,35,35,45,1,threefour,,,,,,,,,,,,,,,,,,,,,,,,,,,,,,,,,,,,,,,,,,,,,,,,,,,,,,,,,,,,,,,,,,,,,,,,,,,,,,,,,,,,,,,,,,,,,,,,,,,,,,,,,,,,,,,,,,,,,,,,,,,,,,,,,,,,,,,,,,,,,,,,,,,,,,,,
,,,,,,5ea8bea5a6081b141edb65ba,62bbf922b17330df12859376,2022-06-29_24h03.33.132,Colour_Asymmetry_Pilot,2022.1.3,MacIntel,59.97361161,62bbe60bf3d75ef465d3e404,0,36,36,86,1,fourtwo,,,,,,,,,,,,,,,,,,,,,,,,,,,,,,,,,,,,,,,,,,,,,,,,,,,,,,,,,,,,,,,,,,,,,,,,,,,,,,,,,,,,,,,,,,,,,,,,,,,,,,,,,,,,,,,,,,,,,,,,,,,,,,,,,,,,,,,,,,,,,,,,,,,,,,,,
,,,,,,5ea8bea5a6081b141edb65ba,62bbf922b17330df12859376,2022-06-29_24h03.33.132,Colour_Asymmetry_Pilot,2022.1.3,MacIntel,59.97361161,62bbe60bf3d75ef465d3e404,0,37,37,138,1,twoone,,,,,,,,,,,,,,,,,,,,,,,,,,,,,,,,,,,,,,,,,,,,,,,,,,,,,,,,,,,,,,,,,,,,,,,,,,,,,,,,,,,,,,,,,,,,,,,,,,,,,,,,,,,,,,,,,,,,,,,,,,,,,,,,,,,,,,,,,,,,,,,,,,,,,,,,
,,,,,,5ea8bea5a6081b141edb65ba,62bbf922b17330df12859376,2022-06-29_24h03.33.132,Colour_Asymmetry_Pilot,2022.1.3,MacIntel,59.97361161,62bbe60bf3d75ef465d3e404,0,38,38,66,1,twoone,,,,,,,,,,,,,,,,,,,,,,,,,,,,,,,,,,,,,,,,,,,,,,,,,,,,,,,,,,,,,,,,,,,,,,,,,,,,,,,,,,,,,,,,,,,,,,,,,,,,,,,,,,,,,,,,,,,,,,,,,,,,,,,,,,,,,,,,,,,,,,,,,,,,,,,,
,,,,,,5ea8bea5a6081b141edb65ba,62bbf922b17330df12859376,2022-06-29_24h03.33.132,Colour_Asymmetry_Pilot,2022.1.3,MacIntel,59.97361161,62bbe60bf3d75ef465d3e404,0,39,39,38,1,fourtwo,,,,,,,,,,,,,,,,,,,,,,,,,,,,,,,,,,,,,,,,,,,,,,,,,,,,,,,,,,,,,,,,,,,,,,,,,,,,,,,,,,,,,,,,,,,,,,,,,,,,,,,,,,,,,,,,,,,,,,,,,,,,,,,,,,,,,,,,,,,,,,,,,,,,,,,,
,,,,,,5ea8bea5a6081b141edb65ba,62bbf922b17330df12859376,2022-06-29_24h03.33.132,Colour_Asymmetry_Pilot,2022.1.3,MacIntel,59.97361161,62bbe60bf3d75ef465d3e404,0,40,40,154,1,twoone,,,,,,,,,,,,,,,,,,,,,,,,,,,,,,,,,,,,,,,,,,,,,,,,,,,,,,,,,,,,,,,,,,,,,,,,,,,,,,,,,,,,,,,,,,,,,,,,,,,,,,,,,,,,,,,,,,,,,,,,,,,,,,,,,,,,,,,,,,,,,,,,,,,,,,,,
,,,,,,5ea8bea5a6081b141edb65ba,62bbf922b17330df12859376,2022-06-29_24h03.33.132,Colour_Asymmetry_Pilot,2022.1.3,MacIntel,59.97361161,62bbe60bf3d75ef465d3e404,0,41,41,18,1,twoone,,,,,,,,,,,,,,,,,,,,,,,,,,,,,,,,,,,,,,,,,,,,,,,,,,,,,,,,,,,,,,,,,,,,,,,,,,,,,,,,,,,,,,,,,,,,,,,,,,,,,,,,,,,,,,,,,,,,,,,,,,,,,,,,,,,,,,,,,,,,,,,,,,,,,,,,
,,,,,,5ea8bea5a6081b141edb65ba,62bbf922b17330df12859376,2022-06-29_24h03.33.132,Colour_Asymmetry_Pilot,2022.1.3,MacIntel,59.97361161,62bbe60bf3d75ef465d3e404,0,42,42,118,1,fourtwo,,,,,,,,,,,,,,,,,,,,,,,,,,,,,,,,,,,,,,,,,,,,,,,,,,,,,,,,,,,,,,,,,,,,,,,,,,,,,,,,,,,,,,,,,,,,,,,,,,,,,,,,,,,,,,,,,,,,,,,,,,,,,,,,,,,,,,,,,,,,,,,,,,,,,,,,
,,,,,,5ea8bea5a6081b141edb65ba,62bbf922b17330df12859376,2022-06-29_24h03.33.132,Colour_Asymmetry_Pilot,2022.1.3,MacIntel,59.97361161,62bbe60bf3d75ef465d3e404,0,43,43,13,1,threefour,,,,,,,,,,,,,,,,,,,,,,,,,,,,,,,,,,,,,,,,,,,,,,,,,,,,,,,,,,,,,,,,,,,,,,,,,,,,,,,,,,,,,,,,,,,,,,,,,,,,,,,,,,,,,,,,,,,,,,,,,,,,,,,,,,,,,,,,,,,,,,,,,,,,,,,,
,,,,,,5ea8bea5a6081b141edb65ba,62bbf922b17330df12859376,2022-06-29_24h03.33.132,Colour_Asymmetry_Pilot,2022.1.3,MacIntel,59.97361161,62bbe60bf3d75ef465d3e404,0,44,44,98,1,twoone,,,,,,,,,,,,,,,,,,,,,,,,,,,,,,,,,,,,,,,,,,,,,,,,,,,,,,,,,,,,,,,,,,,,,,,,,,,,,,,,,,,,,,,,,,,,,,,,,,,,,,,,,,,,,,,,,,,,,,,,,,,,,,,,,,,,,,,,,,,,,,,,,,,,,,,,
,,,,,,5ea8bea5a6081b141edb65ba,62bbf922b17330df12859376,2022-06-29_24h03.33.132,Colour_Asymmetry_Pilot,2022.1.3,MacIntel,59.97361161,62bbe60bf3d75ef465d3e404,0,45,45,34,1,twoone,,,,,,,,,,,,,,,,,,,,,,,,,,,,,,,,,,,,,,,,,,,,,,,,,,,,,,,,,,,,,,,,,,,,,,,,,,,,,,,,,,,,,,,,,,,,,,,,,,,,,,,,,,,,,,,,,,,,,,,,,,,,,,,,,,,,,,,,,,,,,,,,,,,,,,,,
,,,,,,5ea8bea5a6081b141edb65ba,62bbf922b17330df12859376,2022-06-29_24h03.33.132,Colour_Asymmetry_Pilot,2022.1.3,MacIntel,59.97361161,62bbe60bf3d75ef465d3e404,0,46,46,63,1,fourthree,,,,,,,,,,,,,,,,,,,,,,,,,,,,,,,,,,,,,,,,,,,,,,,,,,,,,,,,,,,,,,,,,,,,,,,,,,,,,,,,,,,,,,,,,,,,,,,,,,,,,,,,,,,,,,,,,,,,,,,,,,,,,,,,,,,,,,,,,,,,,,,,,,,,,,,,
,,,,,,5ea8bea5a6081b141edb65ba,62bbf922b17330df12859376,2022-06-29_24h03.33.132,Colour_Asymmetry_Pilot,2022.1.3,MacIntel,59.97361161,62bbe60bf3d75ef465d3e404,0,47,47,87,1,fourthree,,,,,,,,,,,,,,,,,,,,,,,,,,,,,,,,,,,,,,,,,,,,,,,,,,,,,,,,,,,,,,,,,,,,,,,,,,,,,,,,,,,,,,,,,,,,,,,,,,,,,,,,,,,,,,,,,,,,,,,,,,,,,,,,,,,,,,,,,,,,,,,,,,,,,,,,
,,,,,,5ea8bea5a6081b141edb65ba,62bbf922b17330df12859376,2022-06-29_24h03.33.132,Colour_Asymmetry_Pilot,2022.1.3,MacIntel,59.97361161,62bbe60bf3d75ef465d3e404,0,48,48,67,1,twofour,,,,,,,,,,,,,,,,,,,,,,,,,,,,,,,,,,,,,,,,,,,,,,,,,,,,,,,,,,,,,,,,,,,,,,,,,,,,,,,,,,,,,,,,,,,,,,,,,,,,,,,,,,,,,,,,,,,,,,,,,,,,,,,,,,,,,,,,,,,,,,,,,,,,,,,,
,,,,,,5ea8bea5a6081b141edb65ba,62bbf922b17330df12859376,2022-06-29_24h03.33.132,Colour_Asymmetry_Pilot,2022.1.3,MacIntel,59.97361161,62bbe60bf3d75ef465d3e404,0,49,49,6,1,fourtwo,,,,,,,,,,,,,,,,,,,,,,,,,,,,,,,,,,,,,,,,,,,,,,,,,,,,,,,,,,,,,,,,,,,,,,,,,,,,,,,,,,,,,,,,,,,,,,,,,,,,,,,,,,,,,,,,,,,,,,,,,,,,,,,,,,,,,,,,,,,,,,,,,,,,,,,,
,,,,,,5ea8bea5a6081b141edb65ba,62bbf922b17330df12859376,2022-06-29_24h03.33.132,Colour_Asymmetry_Pilot,2022.1.3,MacIntel,59.97361161,62bbe60bf3d75ef465d3e404,0,50,50,95,1,fourthree,,,,,,,,,,,,,,,,,,,,,,,,,,,,,,,,,,,,,,,,,,,,,,,,,,,,,,,,,,,,,,,,,,,,,,,,,,,,,,,,,,,,,,,,,,,,,,,,,,,,,,,,,,,,,,,,,,,,,,,,,,,,,,,,,,,,,,,,,,,,,,,,,,,,,,,,
,,,,,,5ea8bea5a6081b141edb65ba,62bbf922b17330df12859376,2022-06-29_24h03.33.132,Colour_Asymmetry_Pilot,2022.1.3,MacIntel,59.97361161,62bbe60bf3d75ef465d3e404,0,51,51,69,1,threefour,,,,,,,,,,,,,,,,,,,,,,,,,,,,,,,,,,,,,,,,,,,,,,,,,,,,,,,,,,,,,,,,,,,,,,,,,,,,,,,,,,,,,,,,,,,,,,,,,,,,,,,,,,,,,,,,,,,,,,,,,,,,,,,,,,,,,,,,,,,,,,,,,,,,,,,,
,,,,,,5ea8bea5a6081b141edb65ba,62bbf922b17330df12859376,2022-06-29_24h03.33.132,Colour_Asymmetry_Pilot,2022.1.3,MacIntel,59.97361161,62bbe60bf3d75ef465d3e404,0,52,52,114,1,twoone,,,,,,,,,,,,,,,,,,,,,,,,,,,,,,,,,,,,,,,,,,,,,,,,,,,,,,,,,,,,,,,,,,,,,,,,,,,,,,,,,,,,,,,,,,,,,,,,,,,,,,,,,,,,,,,,,,,,,,,,,,,,,,,,,,,,,,,,,,,,,,,,,,,,,,,,
,,,,,,5ea8bea5a6081b141edb65ba,62bbf922b17330df12859376,2022-06-29_24h03.33.132,Colour_Asymmetry_Pilot,2022.1.3,MacIntel,59.97361161,62bbe60bf3d75ef465d3e404,0,53,53,17,1,onethree,,,,,,,,,,,,,,,,,,,,,,,,,,,,,,,,,,,,,,,,,,,,,,,,,,,,,,,,,,,,,,,,,,,,,,,,,,,,,,,,,,,,,,,,,,,,,,,,,,,,,,,,,,,,,,,,,,,,,,,,,,,,,,,,,,,,,,,,,,,,,,,,,,,,,,,,
,,,,,,5ea8bea5a6081b141edb65ba,62bbf922b17330df12859376,2022-06-29_24h03.33.132,Colour_Asymmetry_Pilot,2022.1.3,MacIntel,59.97361161,62bbe60bf3d75ef465d3e404,0,54,54,131,1,twofour,,,,,,,,,,,,,,,,,,,,,,,,,,,,,,,,,,,,,,,,,,,,,,,,,,,,,,,,,,,,,,,,,,,,,,,,,,,,,,,,,,,,,,,,,,,,,,,,,,,,,,,,,,,,,,,,,,,,,,,,,,,,,,,,,,,,,,,,,,,,,,,,,,,,,,,,
,,,,,,5ea8bea5a6081b141edb65ba,62bbf922b17330df12859376,2022-06-29_24h03.33.132,Colour_Asymmetry_Pilot,2022.1.3,MacIntel,59.97361161,62bbe60bf3d75ef465d3e404,0,55,55,123,1,twofour,,,,,,,,,,,,,,,,,,,,,,,,,,,,,,,,,,,,,,,,,,,,,,,,,,,,,,,,,,,,,,,,,,,,,,,,,,,,,,,,,,,,,,,,,,,,,,,,,,,,,,,,,,,,,,,,,,,,,,,,,,,,,,,,,,,,,,,,,,,,,,,,,,,,,,,,
,,,,,,5ea8bea5a6081b141edb65ba,62bbf922b17330df12859376,2022-06-29_24h03.33.132,Colour_Asymmetry_Pilot,2022.1.3,MacIntel,59.97361161,62bbe60bf3d75ef465d3e404,0,56,56,81,1,onethree,,,,,,,,,,,,,,,,,,,,,,,,,,,,,,,,,,,,,,,,,,,,,,,,,,,,,,,,,,,,,,,,,,,,,,,,,,,,,,,,,,,,,,,,,,,,,,,,,,,,,,,,,,,,,,,,,,,,,,,,,,,,,,,,,,,,,,,,,,,,,,,,,,,,,,,,
,,,,,,5ea8bea5a6081b141edb65ba,62bbf922b17330df12859376,2022-06-29_24h03.33.132,Colour_Asymmetry_Pilot,2022.1.3,MacIntel,59.97361161,62bbe60bf3d75ef465d3e404,0,57,57,135,1,fourthree,,,,,,,,,,,,,,,,,,,,,,,,,,,,,,,,,,,,,,,,,,,,,,,,,,,,,,,,,,,,,,,,,,,,,,,,,,,,,,,,,,,,,,,,,,,,,,,,,,,,,,,,,,,,,,,,,,,,,,,,,,,,,,,,,,,,,,,,,,,,,,,,,,,,,,,,
,,,,,,5ea8bea5a6081b141edb65ba,62bbf922b17330df12859376,2022-06-29_24h03.33.132,Colour_Asymmetry_Pilot,2022.1.3,MacIntel,59.97361161,62bbe60bf3d75ef465d3e404,0,58,58,161,1,onethree,,,,,,,,,,,,,,,,,,,,,,,,,,,,,,,,,,,,,,,,,,,,,,,,,,,,,,,,,,,,,,,,,,,,,,,,,,,,,,,,,,,,,,,,,,,,,,,,,,,,,,,,,,,,,,,,,,,,,,,,,,,,,,,,,,,,,,,,,,,,,,,,,,,,,,,,
,,,,,,5ea8bea5a6081b141edb65ba,62bbf922b17330df12859376,2022-06-29_24h03.33.132,Colour_Asymmetry_Pilot,2022.1.3,MacIntel,59.97361161,62bbe60bf3d75ef465d3e404,0,59,59,84,1,threeone,,,,,,,,,,,,,,,,,,,,,,,,,,,,,,,,,,,,,,,,,,,,,,,,,,,,,,,,,,,,,,,,,,,,,,,,,,,,,,,,,,,,,,,,,,,,,,,,,,,,,,,,,,,,,,,,,,,,,,,,,,,,,,,,,,,,,,,,,,,,,,,,,,,,,,,,
,,,,,,5ea8bea5a6081b141edb65ba,62bbf922b17330df12859376,2022-06-29_24h03.33.132,Colour_Asymmetry_Pilot,2022.1.3,MacIntel,59.97361161,62bbe60bf3d75ef465d3e404,0,60,60,80,1,onetwo,,,,,,,,,,,,,,,,,,,,,,,,,,,,,,,,,,,,,,,,,,,,,,,,,,,,,,,,,,,,,,,,,,,,,,,,,,,,,,,,,,,,,,,,,,,,,,,,,,,,,,,,,,,,,,,,,,,,,,,,,,,,,,,,,,,,,,,,,,,,,,,,,,,,,,,,
,,,,,,5ea8bea5a6081b141edb65ba,62bbf922b17330df12859376,2022-06-29_24h03.33.132,Colour_Asymmetry_Pilot,2022.1.3,MacIntel,59.97361161,62bbe60bf3d75ef465d3e404,0,61,61,130,1,twoone,,,,,,,,,,,,,,,,,,,,,,,,,,,,,,,,,,,,,,,,,,,,,,,,,,,,,,,,,,,,,,,,,,,,,,,,,,,,,,,,,,,,,,,,,,,,,,,,,,,,,,,,,,,,,,,,,,,,,,,,,,,,,,,,,,,,,,,,,,,,,,,,,,,,,,,,
,,,,,,5ea8bea5a6081b141edb65ba,62bbf922b17330df12859376,2022-06-29_24h03.33.132,Colour_Asymmetry_Pilot,2022.1.3,MacIntel,59.97361161,62bbe60bf3d75ef465d3e404,0,62,62,42,1,twoone,,,,,,,,,,,,,,,,,,,,,,,,,,,,,,,,,,,,,,,,,,,,,,,,,,,,,,,,,,,,,,,,,,,,,,,,,,,,,,,,,,,,,,,,,,,,,,,,,,,,,,,,,,,,,,,,,,,,,,,,,,,,,,,,,,,,,,,,,,,,,,,,,,,,,,,,
,,,,,,5ea8bea5a6081b141edb65ba,62bbf922b17330df12859376,2022-06-29_24h03.33.132,Colour_Asymmetry_Pilot,2022.1.3,MacIntel,59.97361161,62bbe60bf3d75ef465d3e404,0,63,63,136,1,onetwo,,,,,,,,,,,,,,,,,,,,,,,,,,,,,,,,,,,,,,,,,,,,,,,,,,,,,,,,,,,,,,,,,,,,,,,,,,,,,,,,,,,,,,,,,,,,,,,,,,,,,,,,,,,,,,,,,,,,,,,,,,,,,,,,,,,,,,,,,,,,,,,,,,,,,,,,
,,,,,,5ea8bea5a6081b141edb65ba,62bbf922b17330df12859376,2022-06-29_24h03.33.132,Colour_Asymmetry_Pilot,2022.1.3,MacIntel,59.97361161,62bbe60bf3d75ef465d3e404,0,64,64,139,1,twofour,,,,,,,,,,,,,,,,,,,,,,,,,,,,,,,,,,,,,,,,,,,,,,,,,,,,,,,,,,,,,,,,,,,,,,,,,,,,,,,,,,,,,,,,,,,,,,,,,,,,,,,,,,,,,,,,,,,,,,,,,,,,,,,,,,,,,,,,,,,,,,,,,,,,,,,,
,,,,,,5ea8bea5a6081b141edb65ba,62bbf922b17330df12859376,2022-06-29_24h03.33.132,Colour_Asymmetry_Pilot,2022.1.3,MacIntel,59.97361161,62bbe60bf3d75ef465d3e404,0,65,65,159,1,fourthree,,,,,,,,,,,,,,,,,,,,,,,,,,,,,,,,,,,,,,,,,,,,,,,,,,,,,,,,,,,,,,,,,,,,,,,,,,,,,,,,,,,,,,,,,,,,,,,,,,,,,,,,,,,,,,,,,,,,,,,,,,,,,,,,,,,,,,,,,,,,,,,,,,,,,,,,
,,,,,,5ea8bea5a6081b141edb65ba,62bbf922b17330df12859376,2022-06-29_24h03.33.132,Colour_Asymmetry_Pilot,2022.1.3,MacIntel,59.97361161,62bbe60bf3d75ef465d3e404,0,66,66,28,1,threeone,,,,,,,,,,,,,,,,,,,,,,,,,,,,,,,,,,,,,,,,,,,,,,,,,,,,,,,,,,,,,,,,,,,,,,,,,,,,,,,,,,,,,,,,,,,,,,,,,,,,,,,,,,,,,,,,,,,,,,,,,,,,,,,,,,,,,,,,,,,,,,,,,,,,,,,,
,,,,,,5ea8bea5a6081b141edb65ba,62bbf922b17330df12859376,2022-06-29_24h03.33.132,Colour_Asymmetry_Pilot,2022.1.3,MacIntel,59.97361161,62bbe60bf3d75ef465d3e404,0,67,67,41,1,onethree,,,,,,,,,,,,,,,,,,,,,,,,,,,,,,,,,,,,,,,,,,,,,,,,,,,,,,,,,,,,,,,,,,,,,,,,,,,,,,,,,,,,,,,,,,,,,,,,,,,,,,,,,,,,,,,,,,,,,,,,,,,,,,,,,,,,,,,,,,,,,,,,,,,,,,,,
,,,,,,5ea8bea5a6081b141edb65ba,62bbf922b17330df12859376,2022-06-29_24h03.33.132,Colour_Asymmetry_Pilot,2022.1.3,MacIntel,59.97361161,62bbe60bf3d75ef465d3e404,0,68,68,152,1,onetwo,,,,,,,,,,,,,,,,,,,,,,,,,,,,,,,,,,,,,,,,,,,,,,,,,,,,,,,,,,,,,,,,,,,,,,,,,,,,,,,,,,,,,,,,,,,,,,,,,,,,,,,,,,,,,,,,,,,,,,,,,,,,,,,,,,,,,,,,,,,,,,,,,,,,,,,,
,,,,,,5ea8bea5a6081b141edb65ba,62bbf922b17330df12859376,2022-06-29_24h03.33.132,Colour_Asymmetry_Pilot,2022.1.3,MacIntel,59.97361161,62bbe60bf3d75ef465d3e404,0,69,69,11,1,twofour,,,,,,,,,,,,,,,,,,,,,,,,,,,,,,,,,,,,,,,,,,,,,,,,,,,,,,,,,,,,,,,,,,,,,,,,,,,,,,,,,,,,,,,,,,,,,,,,,,,,,,,,,,,,,,,,,,,,,,,,,,,,,,,,,,,,,,,,,,,,,,,,,,,,,,,,
,,,,,,5ea8bea5a6081b141edb65ba,62bbf922b17330df12859376,2022-06-29_24h03.33.132,Colour_Asymmetry_Pilot,2022.1.3,MacIntel,59.97361161,62bbe60bf3d75ef465d3e404,0,70,70,9,1,onethree,,,,,,,,,,,,,,,,,,,,,,,,,,,,,,,,,,,,,,,,,,,,,,,,,,,,,,,,,,,,,,,,,,,,,,,,,,,,,,,,,,,,,,,,,,,,,,,,,,,,,,,,,,,,,,,,,,,,,,,,,,,,,,,,,,,,,,,,,,,,,,,,,,,,,,,,
,,,,,,5ea8bea5a6081b141edb65ba,62bbf922b17330df12859376,2022-06-29_24h03.33.132,Colour_Asymmetry_Pilot,2022.1.3,MacIntel,59.97361161,62bbe60bf3d75ef465d3e404,0,71,71,31,1,fourthree,,,,,,,,,,,,,,,,,,,,,,,,,,,,,,,,,,,,,,,,,,,,,,,,,,,,,,,,,,,,,,,,,,,,,,,,,,,,,,,,,,,,,,,,,,,,,,,,,,,,,,,,,,,,,,,,,,,,,,,,,,,,,,,,,,,,,,,,,,,,,,,,,,,,,,,,
,,,,,,5ea8bea5a6081b141edb65ba,62bbf922b17330df12859376,2022-06-29_24h03.33.132,Colour_Asymmetry_Pilot,2022.1.3,MacIntel,59.97361161,62bbe60bf3d75ef465d3e404,0,72,72,56,1,onetwo,,,,,,,,,,,,,,,,,,,,,,,,,,,,,,,,,,,,,,,,,,,,,,,,,,,,,,,,,,,,,,,,,,,,,,,,,,,,,,,,,,,,,,,,,,,,,,,,,,,,,,,,,,,,,,,,,,,,,,,,,,,,,,,,,,,,,,,,,,,,,,,,,,,,,,,,
,,,,,,5ea8bea5a6081b141edb65ba,62bbf922b17330df12859376,2022-06-29_24h03.33.132,Colour_Asymmetry_Pilot,2022.1.3,MacIntel,59.97361161,62bbe60bf3d75ef465d3e404,0,73,73,73,1,onethree,,,,,,,,,,,,,,,,,,,,,,,,,,,,,,,,,,,,,,,,,,,,,,,,,,,,,,,,,,,,,,,,,,,,,,,,,,,,,,,,,,,,,,,,,,,,,,,,,,,,,,,,,,,,,,,,,,,,,,,,,,,,,,,,,,,,,,,,,,,,,,,,,,,,,,,,
,,,,,,5ea8bea5a6081b141edb65ba,62bbf922b17330df12859376,2022-06-29_24h03.33.132,Colour_Asymmetry_Pilot,2022.1.3,MacIntel,59.97361161,62bbe60bf3d75ef465d3e404,0,74,74,15,1,fourthree,,,,,,,,,,,,,,,,,,,,,,,,,,,,,,,,,,,,,,,,,,,,,,,,,,,,,,,,,,,,,,,,,,,,,,,,,,,,,,,,,,,,,,,,,,,,,,,,,,,,,,,,,,,,,,,,,,,,,,,,,,,,,,,,,,,,,,,,,,,,,,,,,,,,,,,,
,,,,,,5ea8bea5a6081b141edb65ba,62bbf922b17330df12859376,2022-06-29_24h03.33.132,Colour_Asymmetry_Pilot,2022.1.3,MacIntel,59.97361161,62bbe60bf3d75ef465d3e404,0,75,75,121,1,onethree,,,,,,,,,,,,,,,,,,,,,,,,,,,,,,,,,,,,,,,,,,,,,,,,,,,,,,,,,,,,,,,,,,,,,,,,,,,,,,,,,,,,,,,,,,,,,,,,,,,,,,,,,,,,,,,,,,,,,,,,,,,,,,,,,,,,,,,,,,,,,,,,,,,,,,,,
,,,,,,5ea8bea5a6081b141edb65ba,62bbf922b17330df12859376,2022-06-29_24h03.33.132,Colour_Asymmetry_Pilot,2022.1.3,MacIntel,59.97361161,62bbe60bf3d75ef465d3e404,0,76,76,117,1,threefour,,,,,,,,,,,,,,,,,,,,,,,,,,,,,,,,,,,,,,,,,,,,,,,,,,,,,,,,,,,,,,,,,,,,,,,,,,,,,,,,,,,,,,,,,,,,,,,,,,,,,,,,,,,,,,,,,,,,,,,,,,,,,,,,,,,,,,,,,,,,,,,,,,,,,,,,
,,,,,,5ea8bea5a6081b141edb65ba,62bbf922b17330df12859376,2022-06-29_24h03.33.132,Colour_Asymmetry_Pilot,2022.1.3,MacIntel,59.97361161,62bbe60bf3d75ef465d3e404,0,77,77,39,1,fourthree,,,,,,,,,,,,,,,,,,,,,,,,,,,,,,,,,,,,,,,,,,,,,,,,,,,,,,,,,,,,,,,,,,,,,,,,,,,,,,,,,,,,,,,,,,,,,,,,,,,,,,,,,,,,,,,,,,,,,,,,,,,,,,,,,,,,,,,,,,,,,,,,,,,,,,,,
,,,,,,5ea8bea5a6081b141edb65ba,62bbf922b17330df12859376,2022-06-29_24h03.33.132,Colour_Asymmetry_Pilot,2022.1.3,MacIntel,59.97361161,62bbe60bf3d75ef465d3e404,0,78,78,160,1,onetwo,,,,,,,,,,,,,,,,,,,,,,,,,,,,,,,,,,,,,,,,,,,,,,,,,,,,,,,,,,,,,,,,,,,,,,,,,,,,,,,,,,,,,,,,,,,,,,,,,,,,,,,,,,,,,,,,,,,,,,,,,,,,,,,,,,,,,,,,,,,,,,,,,,,,,,,,
,,,,,,5ea8bea5a6081b141edb65ba,62bbf922b17330df12859376,2022-06-29_24h03.33.132,Colour_Asymmetry_Pilot,2022.1.3,MacIntel,59.97361161,62bbe60bf3d75ef465d3e404,0,79,79,14,1,fourtwo,,,,,,,,,,,,,,,,,,,,,,,,,,,,,,,,,,,,,,,,,,,,,,,,,,,,,,,,,,,,,,,,,,,,,,,,,,,,,,,,,,,,,,,,,,,,,,,,,,,,,,,,,,,,,,,,,,,,,,,,,,,,,,,,,,,,,,,,,,,,,,,,,,,,,,,,
,,,,,,5ea8bea5a6081b141edb65ba,62bbf922b17330df12859376,2022-06-29_24h03.33.132,Colour_Asymmetry_Pilot,2022.1.3,MacIntel,59.97361161,62bbe60bf3d75ef465d3e404,0,80,80,23,1,fourthree,,,,,,,,,,,,,,,,,,,,,,,,,,,,,,,,,,,,,,,,,,,,,,,,,,,,,,,,,,,,,,,,,,,,,,,,,,,,,,,,,,,,,,,,,,,,,,,,,,,,,,,,,,,,,,,,,,,,,,,,,,,,,,,,,,,,,,,,,,,,,,,,,,,,,,,,
,,,,,,5ea8bea5a6081b141edb65ba,62bbf922b17330df12859376,2022-06-29_24h03.33.132,Colour_Asymmetry_Pilot,2022.1.3,MacIntel,59.97361161,62bbe60bf3d75ef465d3e404,0,81,81,150,1,fourtwo,,,,,,,,,,,,,,,,,,,,,,,,,,,,,,,,,,,,,,,,,,,,,,,,,,,,,,,,,,,,,,,,,,,,,,,,,,,,,,,,,,,,,,,,,,,,,,,,,,,,,,,,,,,,,,,,,,,,,,,,,,,,,,,,,,,,,,,,,,,,,,,,,,,,,,,,
,,,,,,5ea8bea5a6081b141edb65ba,62bbf922b17330df12859376,2022-06-29_24h03.33.132,Colour_Asymmetry_Pilot,2022.1.3,MacIntel,59.97361161,62bbe60bf3d75ef465d3e404,0,82,82,78,1,fourtwo,,,,,,,,,,,,,,,,,,,,,,,,,,,,,,,,,,,,,,,,,,,,,,,,,,,,,,,,,,,,,,,,,,,,,,,,,,,,,,,,,,,,,,,,,,,,,,,,,,,,,,,,,,,,,,,,,,,,,,,,,,,,,,,,,,,,,,,,,,,,,,,,,,,,,,,,
,,,,,,5ea8bea5a6081b141edb65ba,62bbf922b17330df12859376,2022-06-29_24h03.33.132,Colour_Asymmetry_Pilot,2022.1.3,MacIntel,59.97361161,62bbe60bf3d75ef465d3e404,0,83,83,124,1,threeone,,,,,,,,,,,,,,,,,,,,,,,,,,,,,,,,,,,,,,,,,,,,,,,,,,,,,,,,,,,,,,,,,,,,,,,,,,,,,,,,,,,,,,,,,,,,,,,,,,,,,,,,,,,,,,,,,,,,,,,,,,,,,,,,,,,,,,,,,,,,,,,,,,,,,,,,
,,,,,,5ea8bea5a6081b141edb65ba,62bbf922b17330df12859376,2022-06-29_24h03.33.132,Colour_Asymmetry_Pilot,2022.1.3,MacIntel,59.97361161,62bbe60bf3d75ef465d3e404,0,84,84,5,1,threefour,,,,,,,,,,,,,,,,,,,,,,,,,,,,,,,,,,,,,,,,,,,,,,,,,,,,,,,,,,,,,,,,,,,,,,,,,,,,,,,,,,,,,,,,,,,,,,,,,,,,,,,,,,,,,,,,,,,,,,,,,,,,,,,,,,,,,,,,,,,,,,,,,,,,,,,,
,,,,,,5ea8bea5a6081b141edb65ba,62bbf922b17330df12859376,2022-06-29_24h03.33.132,Colour_Asymmetry_Pilot,2022.1.3,MacIntel,59.97361161,62bbe60bf3d75ef465d3e404,0,85,85,143,1,fourthree,,,,,,,,,,,,,,,,,,,,,,,,,,,,,,,,,,,,,,,,,,,,,,,,,,,,,,,,,,,,,,,,,,,,,,,,,,,,,,,,,,,,,,,,,,,,,,,,,,,,,,,,,,,,,,,,,,,,,,,,,,,,,,,,,,,,,,,,,,,,,,,,,,,,,,,,
,,,,,,5ea8bea5a6081b141edb65ba,62bbf922b17330df12859376,2022-06-29_24h03.33.132,Colour_Asymmetry_Pilot,2022.1.3,MacIntel,59.97361161,62bbe60bf3d75ef465d3e404,0,86,86,137,1,onethree,,,,,,,,,,,,,,,,,,,,,,,,,,,,,,,,,,,,,,,,,,,,,,,,,,,,,,,,,,,,,,,,,,,,,,,,,,,,,,,,,,,,,,,,,,,,,,,,,,,,,,,,,,,,,,,,,,,,,,,,,,,,,,,,,,,,,,,,,,,,,,,,,,,,,,,,
,,,,,,5ea8bea5a6081b141edb65ba,62bbf922b17330df12859376,2022-06-29_24h03.33.132,Colour_Asymmetry_Pilot,2022.1.3,MacIntel,59.97361161,62bbe60bf3d75ef465d3e404,0,87,87,36,1,threeone,,,,,,,,,,,,,,,,,,,,,,,,,,,,,,,,,,,,,,,,,,,,,,,,,,,,,,,,,,,,,,,,,,,,,,,,,,,,,,,,,,,,,,,,,,,,,,,,,,,,,,,,,,,,,,,,,,,,,,,,,,,,,,,,,,,,,,,,,,,,,,,,,,,,,,,,
,,,,,,5ea8bea5a6081b141edb65ba,62bbf922b17330df12859376,2022-06-29_24h03.33.132,Colour_Asymmetry_Pilot,2022.1.3,MacIntel,59.97361161,62bbe60bf3d75ef465d3e404,0,88,88,82,1,twoone,,,,,,,,,,,,,,,,,,,,,,,,,,,,,,,,,,,,,,,,,,,,,,,,,,,,,,,,,,,,,,,,,,,,,,,,,,,,,,,,,,,,,,,,,,,,,,,,,,,,,,,,,,,,,,,,,,,,,,,,,,,,,,,,,,,,,,,,,,,,,,,,,,,,,,,,
,,,,,,5ea8bea5a6081b141edb65ba,62bbf922b17330df12859376,2022-06-29_24h03.33.132,Colour_Asymmetry_Pilot,2022.1.3,MacIntel,59.97361161,62bbe60bf3d75ef465d3e404,0,89,89,122,1,twoone,,,,,,,,,,,,,,,,,,,,,,,,,,,,,,,,,,,,,,,,,,,,,,,,,,,,,,,,,,,,,,,,,,,,,,,,,,,,,,,,,,,,,,,,,,,,,,,,,,,,,,,,,,,,,,,,,,,,,,,,,,,,,,,,,,,,,,,,,,,,,,,,,,,,,,,,
,,,,,,5ea8bea5a6081b141edb65ba,62bbf922b17330df12859376,2022-06-29_24h03.33.132,Colour_Asymmetry_Pilot,2022.1.3,MacIntel,59.97361161,62bbe60bf3d75ef465d3e404,0,90,90,103,1,fourthree,,,,,,,,,,,,,,,,,,,,,,,,,,,,,,,,,,,,,,,,,,,,,,,,,,,,,,,,,,,,,,,,,,,,,,,,,,,,,,,,,,,,,,,,,,,,,,,,,,,,,,,,,,,,,,,,,,,,,,,,,,,,,,,,,,,,,,,,,,,,,,,,,,,,,,,,
,,,,,,5ea8bea5a6081b141edb65ba,62bbf922b17330df12859376,2022-06-29_24h03.33.132,Colour_Asymmetry_Pilot,2022.1.3,MacIntel,59.97361161,62bbe60bf3d75ef465d3e404,0,91,91,53,1,threefour,,,,,,,,,,,,,,,,,,,,,,,,,,,,,,,,,,,,,,,,,,,,,,,,,,,,,,,,,,,,,,,,,,,,,,,,,,,,,,,,,,,,,,,,,,,,,,,,,,,,,,,,,,,,,,,,,,,,,,,,,,,,,,,,,,,,,,,,,,,,,,,,,,,,,,,,
,,,,,,5ea8bea5a6081b141edb65ba,62bbf922b17330df12859376,2022-06-29_24h03.33.132,Colour_Asymmetry_Pilot,2022.1.3,MacIntel,59.97361161,62bbe60bf3d75ef465d3e404,0,92,92,116,1,threeone,,,,,,,,,,,,,,,,,,,,,,,,,,,,,,,,,,,,,,,,,,,,,,,,,,,,,,,,,,,,,,,,,,,,,,,,,,,,,,,,,,,,,,,,,,,,,,,,,,,,,,,,,,,,,,,,,,,,,,,,,,,,,,,,,,,,,,,,,,,,,,,,,,,,,,,,
,,,,,,5ea8bea5a6081b141edb65ba,62bbf922b17330df12859376,2022-06-29_24h03.33.132,Colour_Asymmetry_Pilot,2022.1.3,MacIntel,59.97361161,62bbe60bf3d75ef465d3e404,0,93,93,147,1,twofour,,,,,,,,,,,,,,,,,,,,,,,,,,,,,,,,,,,,,,,,,,,,,,,,,,,,,,,,,,,,,,,,,,,,,,,,,,,,,,,,,,,,,,,,,,,,,,,,,,,,,,,,,,,,,,,,,,,,,,,,,,,,,,,,,,,,,,,,,,,,,,,,,,,,,,,,
,,,,,,5ea8bea5a6081b141edb65ba,62bbf922b17330df12859376,2022-06-29_24h03.33.132,Colour_Asymmetry_Pilot,2022.1.3,MacIntel,59.97361161,62bbe60bf3d75ef465d3e404,0,94,94,59,1,twofour,,,,,,,,,,,,,,,,,,,,,,,,,,,,,,,,,,,,,,,,,,,,,,,,,,,,,,,,,,,,,,,,,,,,,,,,,,,,,,,,,,,,,,,,,,,,,,,,,,,,,,,,,,,,,,,,,,,,,,,,,,,,,,,,,,,,,,,,,,,,,,,,,,,,,,,,
,,,,,,5ea8bea5a6081b141edb65ba,62bbf922b17330df12859376,2022-06-29_24h03.33.132,Colour_Asymmetry_Pilot,2022.1.3,MacIntel,59.97361161,62bbe60bf3d75ef465d3e404,0,95,95,76,1,threeone,,,,,,,,,,,,,,,,,,,,,,,,,,,,,,,,,,,,,,,,,,,,,,,,,,,,,,,,,,,,,,,,,,,,,,,,,,,,,,,,,,,,,,,,,,,,,,,,,,,,,,,,,,,,,,,,,,,,,,,,,,,,,,,,,,,,,,,,,,,,,,,,,,,,,,,,
,,,,,,5ea8bea5a6081b141edb65ba,62bbf922b17330df12859376,2022-06-29_24h03.33.132,Colour_Asymmetry_Pilot,2022.1.3,MacIntel,59.97361161,62bbe60bf3d75ef465d3e404,0,96,96,26,1,twoone,,,,,,,,,,,,,,,,,,,,,,,,,,,,,,,,,,,,,,,,,,,,,,,,,,,,,,,,,,,,,,,,,,,,,,,,,,,,,,,,,,,,,,,,,,,,,,,,,,,,,,,,,,,,,,,,,,,,,,,,,,,,,,,,,,,,,,,,,,,,,,,,,,,,,,,,
,,,,,,5ea8bea5a6081b141edb65ba,62bbf922b17330df12859376,2022-06-29_24h03.33.132,Colour_Asymmetry_Pilot,2022.1.3,MacIntel,59.97361161,62bbe60bf3d75ef465d3e404,0,97,97,108,1,threeone,,,,,,,,,,,,,,,,,,,,,,,,,,,,,,,,,,,,,,,,,,,,,,,,,,,,,,,,,,,,,,,,,,,,,,,,,,,,,,,,,,,,,,,,,,,,,,,,,,,,,,,,,,,,,,,,,,,,,,,,,,,,,,,,,,,,,,,,,,,,,,,,,,,,,,,,
,,,,,,5ea8bea5a6081b141edb65ba,62bbf922b17330df12859376,2022-06-29_24h03.33.132,Colour_Asymmetry_Pilot,2022.1.3,MacIntel,59.97361161,62bbe60bf3d75ef465d3e404,0,98,98,61,1,threefour,,,,,,,,,,,,,,,,,,,,,,,,,,,,,,,,,,,,,,,,,,,,,,,,,,,,,,,,,,,,,,,,,,,,,,,,,,,,,,,,,,,,,,,,,,,,,,,,,,,,,,,,,,,,,,,,,,,,,,,,,,,,,,,,,,,,,,,,,,,,,,,,,,,,,,,,
,,,,,,5ea8bea5a6081b141edb65ba,62bbf922b17330df12859376,2022-06-29_24h03.33.132,Colour_Asymmetry_Pilot,2022.1.3,MacIntel,59.97361161,62bbe60bf3d75ef465d3e404,0,99,99,141,1,threefour,,,,,,,,,,,,,,,,,,,,,,,,,,,,,,,,,,,,,,,,,,,,,,,,,,,,,,,,,,,,,,,,,,,,,,,,,,,,,,,,,,,,,,,,,,,,,,,,,,,,,,,,,,,,,,,,,,,,,,,,,,,,,,,,,,,,,,,,,,,,,,,,,,,,,,,,
,,,,,,5ea8bea5a6081b141edb65ba,62bbf922b17330df12859376,2022-06-29_24h03.33.132,Colour_Asymmetry_Pilot,2022.1.3,MacIntel,59.97361161,62bbe60bf3d75ef465d3e404,0,100,100,133,1,threefour,,,,,,,,,,,,,,,,,,,,,,,,,,,,,,,,,,,,,,,,,,,,,,,,,,,,,,,,,,,,,,,,,,,,,,,,,,,,,,,,,,,,,,,,,,,,,,,,,,,,,,,,,,,,,,,,,,,,,,,,,,,,,,,,,,,,,,,,,,,,,,,,,,,,,,,,
,,,,,,5ea8bea5a6081b141edb65ba,62bbf922b17330df12859376,2022-06-29_24h03.33.132,Colour_Asymmetry_Pilot,2022.1.3,MacIntel,59.97361161,62bbe60bf3d75ef465d3e404,0,101,101,4,1,threeone,,,,,,,,,,,,,,,,,,,,,,,,,,,,,,,,,,,,,,,,,,,,,,,,,,,,,,,,,,,,,,,,,,,,,,,,,,,,,,,,,,,,,,,,,,,,,,,,,,,,,,,,,,,,,,,,,,,,,,,,,,,,,,,,,,,,,,,,,,,,,,,,,,,,,,,,
,,,,,,5ea8bea5a6081b141edb65ba,62bbf922b17330df12859376,2022-06-29_24h03.33.132,Colour_Asymmetry_Pilot,2022.1.3,MacIntel,59.97361161,62bbe60bf3d75ef465d3e404,0,102,102,85,1,threefour,,,,,,,,,,,,,,,,,,,,,,,,,,,,,,,,,,,,,,,,,,,,,,,,,,,,,,,,,,,,,,,,,,,,,,,,,,,,,,,,,,,,,,,,,,,,,,,,,,,,,,,,,,,,,,,,,,,,,,,,,,,,,,,,,,,,,,,,,,,,,,,,,,,,,,,,
,,,,,,5ea8bea5a6081b141edb65ba,62bbf922b17330df12859376,2022-06-29_24h03.33.132,Colour_Asymmetry_Pilot,2022.1.3,MacIntel,59.97361161,62bbe60bf3d75ef465d3e404,0,103,103,16,1,onetwo,,,,,,,,,,,,,,,,,,,,,,,,,,,,,,,,,,,,,,,,,,,,,,,,,,,,,,,,,,,,,,,,,,,,,,,,,,,,,,,,,,,,,,,,,,,,,,,,,,,,,,,,,,,,,,,,,,,,,,,,,,,,,,,,,,,,,,,,,,,,,,,,,,,,,,,,
,,,,,,5ea8bea5a6081b141edb65ba,62bbf922b17330df12859376,2022-06-29_24h03.33.132,Colour_Asymmetry_Pilot,2022.1.3,MacIntel,59.97361161,62bbe60bf3d75ef465d3e404,0,104,104,62,1,fourtwo,,,,,,,,,,,,,,,,,,,,,,,,,,,,,,,,,,,,,,,,,,,,,,,,,,,,,,,,,,,,,,,,,,,,,,,,,,,,,,,,,,,,,,,,,,,,,,,,,,,,,,,,,,,,,,,,,,,,,,,,,,,,,,,,,,,,,,,,,,,,,,,,,,,,,,,,
,,,,,,5ea8bea5a6081b141edb65ba,62bbf922b17330df12859376,2022-06-29_24h03.33.132,Colour_Asymmetry_Pilot,2022.1.3,MacIntel,59.97361161,62bbe60bf3d75ef465d3e404,0,105,105,157,1,threefour,,,,,,,,,,,,,,,,,,,,,,,,,,,,,,,,,,,,,,,,,,,,,,,,,,,,,,,,,,,,,,,,,,,,,,,,,,,,,,,,,,,,,,,,,,,,,,,,,,,,,,,,,,,,,,,,,,,,,,,,,,,,,,,,,,,,,,,,,,,,,,,,,,,,,,,,
,,,,,,5ea8bea5a6081b141edb65ba,62bbf922b17330df12859376,2022-06-29_24h03.33.132,Colour_Asymmetry_Pilot,2022.1.3,MacIntel,59.97361161,62bbe60bf3d75ef465d3e404,0,106,106,129,1,onethree,,,,,,,,,,,,,,,,,,,,,,,,,,,,,,,,,,,,,,,,,,,,,,,,,,,,,,,,,,,,,,,,,,,,,,,,,,,,,,,,,,,,,,,,,,,,,,,,,,,,,,,,,,,,,,,,,,,,,,,,,,,,,,,,,,,,,,,,,,,,,,,,,,,,,,,,
,,,,,,5ea8bea5a6081b141edb65ba,62bbf922b17330df12859376,2022-06-29_24h03.33.132,Colour_Asymmetry_Pilot,2022.1.3,MacIntel,59.97361161,62bbe60bf3d75ef465d3e404,0,107,107,128,1,onetwo,,,,,,,,,,,,,,,,,,,,,,,,,,,,,,,,,,,,,,,,,,,,,,,,,,,,,,,,,,,,,,,,,,,,,,,,,,,,,,,,,,,,,,,,,,,,,,,,,,,,,,,,,,,,,,,,,,,,,,,,,,,,,,,,,,,,,,,,,,,,,,,,,,,,,,,,
,,,,,,5ea8bea5a6081b141edb65ba,62bbf922b17330df12859376,2022-06-29_24h03.33.132,Colour_Asymmetry_Pilot,2022.1.3,MacIntel,59.97361161,62bbe60bf3d75ef465d3e404,0,108,108,74,1,twoone,,,,,,,,,,,,,,,,,,,,,,,,,,,,,,,,,,,,,,,,,,,,,,,,,,,,,,,,,,,,,,,,,,,,,,,,,,,,,,,,,,,,,,,,,,,,,,,,,,,,,,,,,,,,,,,,,,,,,,,,,,,,,,,,,,,,,,,,,,,,,,,,,,,,,,,,
,,,,,,5ea8bea5a6081b141edb65ba,62bbf922b17330df12859376,2022-06-29_24h03.33.132,Colour_Asymmetry_Pilot,2022.1.3,MacIntel,59.97361161,62bbe60bf3d75ef465d3e404,0,109,109,20,1,threeone,,,,,,,,,,,,,,,,,,,,,,,,,,,,,,,,,,,,,,,,,,,,,,,,,,,,,,,,,,,,,,,,,,,,,,,,,,,,,,,,,,,,,,,,,,,,,,,,,,,,,,,,,,,,,,,,,,,,,,,,,,,,,,,,,,,,,,,,,,,,,,,,,,,,,,,,
,,,,,,5ea8bea5a6081b141edb65ba,62bbf922b17330df12859376,2022-06-29_24h03.33.132,Colour_Asymmetry_Pilot,2022.1.3,MacIntel,59.97361161,62bbe60bf3d75ef465d3e404,0,110,110,47,1,fourthree,,,,,,,,,,,,,,,,,,,,,,,,,,,,,,,,,,,,,,,,,,,,,,,,,,,,,,,,,,,,,,,,,,,,,,,,,,,,,,,,,,,,,,,,,,,,,,,,,,,,,,,,,,,,,,,,,,,,,,,,,,,,,,,,,,,,,,,,,,,,,,,,,,,,,,,,
,,,,,,5ea8bea5a6081b141edb65ba,62bbf922b17330df12859376,2022-06-29_24h03.33.132,Colour_Asymmetry_Pilot,2022.1.3,MacIntel,59.97361161,62bbe60bf3d75ef465d3e404,0,111,111,8,1,onetwo,,,,,,,,,,,,,,,,,,,,,,,,,,,,,,,,,,,,,,,,,,,,,,,,,,,,,,,,,,,,,,,,,,,,,,,,,,,,,,,,,,,,,,,,,,,,,,,,,,,,,,,,,,,,,,,,,,,,,,,,,,,,,,,,,,,,,,,,,,,,,,,,,,,,,,,,
,,,,,,5ea8bea5a6081b141edb65ba,62bbf922b17330df12859376,2022-06-29_24h03.33.132,Colour_Asymmetry_Pilot,2022.1.3,MacIntel,59.97361161,62bbe60bf3d75ef465d3e404,0,112,112,30,1,fourtwo,,,,,,,,,,,,,,,,,,,,,,,,,,,,,,,,,,,,,,,,,,,,,,,,,,,,,,,,,,,,,,,,,,,,,,,,,,,,,,,,,,,,,,,,,,,,,,,,,,,,,,,,,,,,,,,,,,,,,,,,,,,,,,,,,,,,,,,,,,,,,,,,,,,,,,,,
,,,,,,5ea8bea5a6081b141edb65ba,62bbf922b17330df12859376,2022-06-29_24h03.33.132,Colour_Asymmetry_Pilot,2022.1.3,MacIntel,59.97361161,62bbe60bf3d75ef465d3e404,0,113,113,158,1,fourtwo,,,,,,,,,,,,,,,,,,,,,,,,,,,,,,,,,,,,,,,,,,,,,,,,,,,,,,,,,,,,,,,,,,,,,,,,,,,,,,,,,,,,,,,,,,,,,,,,,,,,,,,,,,,,,,,,,,,,,,,,,,,,,,,,,,,,,,,,,,,,,,,,,,,,,,,,
,,,,,,5ea8bea5a6081b141edb65ba,62bbf922b17330df12859376,2022-06-29_24h03.33.132,Colour_Asymmetry_Pilot,2022.1.3,MacIntel,59.97361161,62bbe60bf3d75ef465d3e404,0,114,114,60,1,threeone,,,,,,,,,,,,,,,,,,,,,,,,,,,,,,,,,,,,,,,,,,,,,,,,,,,,,,,,,,,,,,,,,,,,,,,,,,,,,,,,,,,,,,,,,,,,,,,,,,,,,,,,,,,,,,,,,,,,,,,,,,,,,,,,,,,,,,,,,,,,,,,,,,,,,,,,
,,,,,,5ea8bea5a6081b141edb65ba,62bbf922b17330df12859376,2022-06-29_24h03.33.132,Colour_Asymmetry_Pilot,2022.1.3,MacIntel,59.97361161,62bbe60bf3d75ef465d3e404,0,115,115,132,1,threeone,,,,,,,,,,,,,,,,,,,,,,,,,,,,,,,,,,,,,,,,,,,,,,,,,,,,,,,,,,,,,,,,,,,,,,,,,,,,,,,,,,,,,,,,,,,,,,,,,,,,,,,,,,,,,,,,,,,,,,,,,,,,,,,,,,,,,,,,,,,,,,,,,,,,,,,,
,,,,,,5ea8bea5a6081b141edb65ba,62bbf922b17330df12859376,2022-06-29_24h03.33.132,Colour_Asymmetry_Pilot,2022.1.3,MacIntel,59.97361161,62bbe60bf3d75ef465d3e404,0,116,116,96,1,onetwo,,,,,,,,,,,,,,,,,,,,,,,,,,,,,,,,,,,,,,,,,,,,,,,,,,,,,,,,,,,,,,,,,,,,,,,,,,,,,,,,,,,,,,,,,,,,,,,,,,,,,,,,,,,,,,,,,,,,,,,,,,,,,,,,,,,,,,,,,,,,,,,,,,,,,,,,
,,,,,,5ea8bea5a6081b141edb65ba,62bbf922b17330df12859376,2022-06-29_24h03.33.132,Colour_Asymmetry_Pilot,2022.1.3,MacIntel,59.97361161,62bbe60bf3d75ef465d3e404,0,117,117,44,1,threeone,,,,,,,,,,,,,,,,,,,,,,,,,,,,,,,,,,,,,,,,,,,,,,,,,,,,,,,,,,,,,,,,,,,,,,,,,,,,,,,,,,,,,,,,,,,,,,,,,,,,,,,,,,,,,,,,,,,,,,,,,,,,,,,,,,,,,,,,,,,,,,,,,,,,,,,,
,,,,,,5ea8bea5a6081b141edb65ba,62bbf922b17330df12859376,2022-06-29_24h03.33.132,Colour_Asymmetry_Pilot,2022.1.3,MacIntel,59.97361161,62bbe60bf3d75ef465d3e404,0,118,118,48,1,onetwo,,,,,,,,,,,,,,,,,,,,,,,,,,,,,,,,,,,,,,,,,,,,,,,,,,,,,,,,,,,,,,,,,,,,,,,,,,,,,,,,,,,,,,,,,,,,,,,,,,,,,,,,,,,,,,,,,,,,,,,,,,,,,,,,,,,,,,,,,,,,,,,,,,,,,,,,
,,,,,,5ea8bea5a6081b141edb65ba,62bbf922b17330df12859376,2022-06-29_24h03.33.132,Colour_Asymmetry_Pilot,2022.1.3,MacIntel,59.97361161,62bbe60bf3d75ef465d3e404,0,119,119,102,1,fourtwo,,,,,,,,,,,,,,,,,,,,,,,,,,,,,,,,,,,,,,,,,,,,,,,,,,,,,,,,,,,,,,,,,,,,,,,,,,,,,,,,,,,,,,,,,,,,,,,,,,,,,,,,,,,,,,,,,,,,,,,,,,,,,,,,,,,,,,,,,,,,,,,,,,,,,,,,
,,,,,,5ea8bea5a6081b141edb65ba,62bbf922b17330df12859376,2022-06-29_24h03.33.132,Colour_Asymmetry_Pilot,2022.1.3,MacIntel,59.97361161,62bbe60bf3d75ef465d3e404,0,120,120,54,1,fourtwo,,,,,,,,,,,,,,,,,,,,,,,,,,,,,,,,,,,,,,,,,,,,,,,,,,,,,,,,,,,,,,,,,,,,,,,,,,,,,,,,,,,,,,,,,,,,,,,,,,,,,,,,,,,,,,,,,,,,,,,,,,,,,,,,,,,,,,,,,,,,,,,,,,,,,,,,
,,,,,,5ea8bea5a6081b141edb65ba,62bbf922b17330df12859376,2022-06-29_24h03.33.132,Colour_Asymmetry_Pilot,2022.1.3,MacIntel,59.97361161,62bbe60bf3d75ef465d3e404,0,121,121,91,1,twofour,,,,,,,,,,,,,,,,,,,,,,,,,,,,,,,,,,,,,,,,,,,,,,,,,,,,,,,,,,,,,,,,,,,,,,,,,,,,,,,,,,,,,,,,,,,,,,,,,,,,,,,,,,,,,,,,,,,,,,,,,,,,,,,,,,,,,,,,,,,,,,,,,,,,,,,,
,,,,,,5ea8bea5a6081b141edb65ba,62bbf922b17330df12859376,2022-06-29_24h03.33.132,Colour_Asymmetry_Pilot,2022.1.3,MacIntel,59.97361161,62bbe60bf3d75ef465d3e404,0,122,122,126,1,fourtwo,,,,,,,,,,,,,,,,,,,,,,,,,,,,,,,,,,,,,,,,,,,,,,,,,,,,,,,,,,,,,,,,,,,,,,,,,,,,,,,,,,,,,,,,,,,,,,,,,,,,,,,,,,,,,,,,,,,,,,,,,,,,,,,,,,,,,,,,,,,,,,,,,,,,,,,,
,,,,,,5ea8bea5a6081b141edb65ba,62bbf922b17330df12859376,2022-06-29_24h03.33.132,Colour_Asymmetry_Pilot,2022.1.3,MacIntel,59.97361161,62bbe60bf3d75ef465d3e404,0,123,123,93,1,threefour,,,,,,,,,,,,,,,,,,,,,,,,,,,,,,,,,,,,,,,,,,,,,,,,,,,,,,,,,,,,,,,,,,,,,,,,,,,,,,,,,,,,,,,,,,,,,,,,,,,,,,,,,,,,,,,,,,,,,,,,,,,,,,,,,,,,,,,,,,,,,,,,,,,,,,,,
,,,,,,5ea8bea5a6081b141edb65ba,62bbf922b17330df12859376,2022-06-29_24h03.33.132,Colour_Asymmetry_Pilot,2022.1.3,MacIntel,59.97361161,62bbe60bf3d75ef465d3e404,0,124,124,55,1,fourthree,,,,,,,,,,,,,,,,,,,,,,,,,,,,,,,,,,,,,,,,,,,,,,,,,,,,,,,,,,,,,,,,,,,,,,,,,,,,,,,,,,,,,,,,,,,,,,,,,,,,,,,,,,,,,,,,,,,,,,,,,,,,,,,,,,,,,,,,,,,,,,,,,,,,,,,,
,,,,,,5ea8bea5a6081b141edb65ba,62bbf922b17330df12859376,2022-06-29_24h03.33.132,Colour_Asymmetry_Pilot,2022.1.3,MacIntel,59.97361161,62bbe60bf3d75ef465d3e404,0,125,125,12,1,threeone,,,,,,,,,,,,,,,,,,,,,,,,,,,,,,,,,,,,,,,,,,,,,,,,,,,,,,,,,,,,,,,,,,,,,,,,,,,,,,,,,,,,,,,,,,,,,,,,,,,,,,,,,,,,,,,,,,,,,,,,,,,,,,,,,,,,,,,,,,,,,,,,,,,,,,,,
,,,,,,5ea8bea5a6081b141edb65ba,62bbf922b17330df12859376,2022-06-29_24h03.33.132,Colour_Asymmetry_Pilot,2022.1.3,MacIntel,59.97361161,62bbe60bf3d75ef465d3e404,0,126,126,104,1,onetwo,,,,,,,,,,,,,,,,,,,,,,,,,,,,,,,,,,,,,,,,,,,,,,,,,,,,,,,,,,,,,,,,,,,,,,,,,,,,,,,,,,,,,,,,,,,,,,,,,,,,,,,,,,,,,,,,,,,,,,,,,,,,,,,,,,,,,,,,,,,,,,,,,,,,,,,,
,,,,,,5ea8bea5a6081b141edb65ba,62bbf922b17330df12859376,2022-06-29_24h03.33.132,Colour_Asymmetry_Pilot,2022.1.3,MacIntel,59.97361161,62bbe60bf3d75ef465d3e404,0,127,127,125,1,threefour,,,,,,,,,,,,,,,,,,,,,,,,,,,,,,,,,,,,,,,,,,,,,,,,,,,,,,,,,,,,,,,,,,,,,,,,,,,,,,,,,,,,,,,,,,,,,,,,,,,,,,,,,,,,,,,,,,,,,,,,,,,,,,,,,,,,,,,,,,,,,,,,,,,,,,,,
,,,,,,5ea8bea5a6081b141edb65ba,62bbf922b17330df12859376,2022-06-29_24h03.33.132,Colour_Asymmetry_Pilot,2022.1.3,MacIntel,59.97361161,62bbe60bf3d75ef465d3e404,0,128,128,142,1,fourtwo,,,,,,,,,,,,,,,,,,,,,,,,,,,,,,,,,,,,,,,,,,,,,,,,,,,,,,,,,,,,,,,,,,,,,,,,,,,,,,,,,,,,,,,,,,,,,,,,,,,,,,,,,,,,,,,,,,,,,,,,,,,,,,,,,,,,,,,,,,,,,,,,,,,,,,,,
,,,,,,5ea8bea5a6081b141edb65ba,62bbf922b17330df12859376,2022-06-29_24h03.33.132,Colour_Asymmetry_Pilot,2022.1.3,MacIntel,59.97361161,62bbe60bf3d75ef465d3e404,0,129,129,83,1,twofour,,,,,,,,,,,,,,,,,,,,,,,,,,,,,,,,,,,,,,,,,,,,,,,,,,,,,,,,,,,,,,,,,,,,,,,,,,,,,,,,,,,,,,,,,,,,,,,,,,,,,,,,,,,,,,,,,,,,,,,,,,,,,,,,,,,,,,,,,,,,,,,,,,,,,,,,
,,,,,,5ea8bea5a6081b141edb65ba,62bbf922b17330df12859376,2022-06-29_24h03.33.132,Colour_Asymmetry_Pilot,2022.1.3,MacIntel,59.97361161,62bbe60bf3d75ef465d3e404,0,130,130,111,1,fourthree,,,,,,,,,,,,,,,,,,,,,,,,,,,,,,,,,,,,,,,,,,,,,,,,,,,,,,,,,,,,,,,,,,,,,,,,,,,,,,,,,,,,,,,,,,,,,,,,,,,,,,,,,,,,,,,,,,,,,,,,,,,,,,,,,,,,,,,,,,,,,,,,,,,,,,,,
,,,,,,5ea8bea5a6081b141edb65ba,62bbf922b17330df12859376,2022-06-29_24h03.33.132,Colour_Asymmetry_Pilot,2022.1.3,MacIntel,59.97361161,62bbe60bf3d75ef465d3e404,0,131,131,155,1,twofour,,,,,,,,,,,,,,,,,,,,,,,,,,,,,,,,,,,,,,,,,,,,,,,,,,,,,,,,,,,,,,,,,,,,,,,,,,,,,,,,,,,,,,,,,,,,,,,,,,,,,,,,,,,,,,,,,,,,,,,,,,,,,,,,,,,,,,,,,,,,,,,,,,,,,,,,
,,,,,,5ea8bea5a6081b141edb65ba,62bbf922b17330df12859376,2022-06-29_24h03.33.132,Colour_Asymmetry_Pilot,2022.1.3,MacIntel,59.97361161,62bbe60bf3d75ef465d3e404,0,132,132,2,1,twoone,,,,,,,,,,,,,,,,,,,,,,,,,,,,,,,,,,,,,,,,,,,,,,,,,,,,,,,,,,,,,,,,,,,,,,,,,,,,,,,,,,,,,,,,,,,,,,,,,,,,,,,,,,,,,,,,,,,,,,,,,,,,,,,,,,,,,,,,,,,,,,,,,,,,,,,,
,,,,,,5ea8bea5a6081b141edb65ba,62bbf922b17330df12859376,2022-06-29_24h03.33.132,Colour_Asymmetry_Pilot,2022.1.3,MacIntel,59.97361161,62bbe60bf3d75ef465d3e404,0,133,133,32,1,onetwo,,,,,,,,,,,,,,,,,,,,,,,,,,,,,,,,,,,,,,,,,,,,,,,,,,,,,,,,,,,,,,,,,,,,,,,,,,,,,,,,,,,,,,,,,,,,,,,,,,,,,,,,,,,,,,,,,,,,,,,,,,,,,,,,,,,,,,,,,,,,,,,,,,,,,,,,
,,,,,,5ea8bea5a6081b141edb65ba,62bbf922b17330df12859376,2022-06-29_24h03.33.132,Colour_Asymmetry_Pilot,2022.1.3,MacIntel,59.97361161,62bbe60bf3d75ef465d3e404,0,134,134,90,1,twoone,,,,,,,,,,,,,,,,,,,,,,,,,,,,,,,,,,,,,,,,,,,,,,,,,,,,,,,,,,,,,,,,,,,,,,,,,,,,,,,,,,,,,,,,,,,,,,,,,,,,,,,,,,,,,,,,,,,,,,,,,,,,,,,,,,,,,,,,,,,,,,,,,,,,,,,,
,,,,,,5ea8bea5a6081b141edb65ba,62bbf922b17330df12859376,2022-06-29_24h03.33.132,Colour_Asymmetry_Pilot,2022.1.3,MacIntel,59.97361161,62bbe60bf3d75ef465d3e404,0,135,135,94,1,fourtwo,,,,,,,,,,,,,,,,,,,,,,,,,,,,,,,,,,,,,,,,,,,,,,,,,,,,,,,,,,,,,,,,,,,,,,,,,,,,,,,,,,,,,,,,,,,,,,,,,,,,,,,,,,,,,,,,,,,,,,,,,,,,,,,,,,,,,,,,,,,,,,,,,,,,,,,,
,,,,,,5ea8bea5a6081b141edb65ba,62bbf922b17330df12859376,2022-06-29_24h03.33.132,Colour_Asymmetry_Pilot,2022.1.3,MacIntel,59.97361161,62bbe60bf3d75ef465d3e404,0,136,136,29,1,threefour,,,,,,,,,,,,,,,,,,,,,,,,,,,,,,,,,,,,,,,,,,,,,,,,,,,,,,,,,,,,,,,,,,,,,,,,,,,,,,,,,,,,,,,,,,,,,,,,,,,,,,,,,,,,,,,,,,,,,,,,,,,,,,,,,,,,,,,,,,,,,,,,,,,,,,,,
,,,,,,5ea8bea5a6081b141edb65ba,62bbf922b17330df12859376,2022-06-29_24h03.33.132,Colour_Asymmetry_Pilot,2022.1.3,MacIntel,59.97361161,62bbe60bf3d75ef465d3e404,0,137,137,57,1,onethree,,,,,,,,,,,,,,,,,,,,,,,,,,,,,,,,,,,,,,,,,,,,,,,,,,,,,,,,,,,,,,,,,,,,,,,,,,,,,,,,,,,,,,,,,,,,,,,,,,,,,,,,,,,,,,,,,,,,,,,,,,,,,,,,,,,,,,,,,,,,,,,,,,,,,,,,
,,,,,,5ea8bea5a6081b141edb65ba,62bbf922b17330df12859376,2022-06-29_24h03.33.132,Colour_Asymmetry_Pilot,2022.1.3,MacIntel,59.97361161,62bbe60bf3d75ef465d3e404,0,138,138,120,1,onetwo,,,,,,,,,,,,,,,,,,,,,,,,,,,,,,,,,,,,,,,,,,,,,,,,,,,,,,,,,,,,,,,,,,,,,,,,,,,,,,,,,,,,,,,,,,,,,,,,,,,,,,,,,,,,,,,,,,,,,,,,,,,,,,,,,,,,,,,,,,,,,,,,,,,,,,,,
,,,,,,5ea8bea5a6081b141edb65ba,62bbf922b17330df12859376,2022-06-29_24h03.33.132,Colour_Asymmetry_Pilot,2022.1.3,MacIntel,59.97361161,62bbe60bf3d75ef465d3e404,0,139,139,109,1,threefour,,,,,,,,,,,,,,,,,,,,,,,,,,,,,,,,,,,,,,,,,,,,,,,,,,,,,,,,,,,,,,,,,,,,,,,,,,,,,,,,,,,,,,,,,,,,,,,,,,,,,,,,,,,,,,,,,,,,,,,,,,,,,,,,,,,,,,,,,,,,,,,,,,,,,,,,
,,,,,,5ea8bea5a6081b141edb65ba,62bbf922b17330df12859376,2022-06-29_24h03.33.132,Colour_Asymmetry_Pilot,2022.1.3,MacIntel,59.97361161,62bbe60bf3d75ef465d3e404,0,140,140,65,1,onethree,,,,,,,,,,,,,,,,,,,,,,,,,,,,,,,,,,,,,,,,,,,,,,,,,,,,,,,,,,,,,,,,,,,,,,,,,,,,,,,,,,,,,,,,,,,,,,,,,,,,,,,,,,,,,,,,,,,,,,,,,,,,,,,,,,,,,,,,,,,,,,,,,,,,,,,,
,,,,,,5ea8bea5a6081b141edb65ba,62bbf922b17330df12859376,2022-06-29_24h03.33.132,Colour_Asymmetry_Pilot,2022.1.3,MacIntel,59.97361161,62bbe60bf3d75ef465d3e404,0,141,141,3,1,twofour,,,,,,,,,,,,,,,,,,,,,,,,,,,,,,,,,,,,,,,,,,,,,,,,,,,,,,,,,,,,,,,,,,,,,,,,,,,,,,,,,,,,,,,,,,,,,,,,,,,,,,,,,,,,,,,,,,,,,,,,,,,,,,,,,,,,,,,,,,,,,,,,,,,,,,,,
,,,,,,5ea8bea5a6081b141edb65ba,62bbf922b17330df12859376,2022-06-29_24h03.33.132,Colour_Asymmetry_Pilot,2022.1.3,MacIntel,59.97361161,62bbe60bf3d75ef465d3e404,0,142,142,97,1,onethree,,,,,,,,,,,,,,,,,,,,,,,,,,,,,,,,,,,,,,,,,,,,,,,,,,,,,,,,,,,,,,,,,,,,,,,,,,,,,,,,,,,,,,,,,,,,,,,,,,,,,,,,,,,,,,,,,,,,,,,,,,,,,,,,,,,,,,,,,,,,,,,,,,,,,,,,
,,,,,,5ea8bea5a6081b141edb65ba,62bbf922b17330df12859376,2022-06-29_24h03.33.132,Colour_Asymmetry_Pilot,2022.1.3,MacIntel,59.97361161,62bbe60bf3d75ef465d3e404,0,143,143,101,1,threefour,,,,,,,,,,,,,,,,,,,,,,,,,,,,,,,,,,,,,,,,,,,,,,,,,,,,,,,,,,,,,,,,,,,,,,,,,,,,,,,,,,,,,,,,,,,,,,,,,,,,,,,,,,,,,,,,,,,,,,,,,,,,,,,,,,,,,,,,,,,,,,,,,,,,,,,,
,,,,,,5ea8bea5a6081b141edb65ba,62bbf922b17330df12859376,2022-06-29_24h03.33.132,Colour_Asymmetry_Pilot,2022.1.3,MacIntel,59.97361161,62bbe60bf3d75ef465d3e404,0,144,144,115,1,twofour,,,,,,,,,,,,,,,,,,,,,,,,,,,,,,,,,,,,,,,,,,,,,,,,,,,,,,,,,,,,,,,,,,,,,,,,,,,,,,,,,,,,,,,,,,,,,,,,,,,,,,,,,,,,,,,,,,,,,,,,,,,,,,,,,,,,,,,,,,,,,,,,,,,,,,,,
,,,,,,5ea8bea5a6081b141edb65ba,62bbf922b17330df12859376,2022-06-29_24h03.33.132,Colour_Asymmetry_Pilot,2022.1.3,MacIntel,59.97361161,62bbe60bf3d75ef465d3e404,0,145,145,37,1,threefour,,,,,,,,,,,,,,,,,,,,,,,,,,,,,,,,,,,,,,,,,,,,,,,,,,,,,,,,,,,,,,,,,,,,,,,,,,,,,,,,,,,,,,,,,,,,,,,,,,,,,,,,,,,,,,,,,,,,,,,,,,,,,,,,,,,,,,,,,,,,,,,,,,,,,,,,
,,,,,,5ea8bea5a6081b141edb65ba,62bbf922b17330df12859376,2022-06-29_24h03.33.132,Colour_Asymmetry_Pilot,2022.1.3,MacIntel,59.97361161,62bbe60bf3d75ef465d3e404,0,146,146,79,1,fourthree,,,,,,,,,,,,,,,,,,,,,,,,,,,,,,,,,,,,,,,,,,,,,,,,,,,,,,,,,,,,,,,,,,,,,,,,,,,,,,,,,,,,,,,,,,,,,,,,,,,,,,,,,,,,,,,,,,,,,,,,,,,,,,,,,,,,,,,,,,,,,,,,,,,,,,,,
,,,,,,5ea8bea5a6081b141edb65ba,62bbf922b17330df12859376,2022-06-29_24h03.33.132,Colour_Asymmetry_Pilot,2022.1.3,MacIntel,59.97361161,62bbe60bf3d75ef465d3e404,0,147,147,7,1,fourthree,,,,,,,,,,,,,,,,,,,,,,,,,,,,,,,,,,,,,,,,,,,,,,,,,,,,,,,,,,,,,,,,,,,,,,,,,,,,,,,,,,,,,,,,,,,,,,,,,,,,,,,,,,,,,,,,,,,,,,,,,,,,,,,,,,,,,,,,,,,,,,,,,,,,,,,,
,,,,,,5ea8bea5a6081b141edb65ba,62bbf922b17330df12859376,2022-06-29_24h03.33.132,Colour_Asymmetry_Pilot,2022.1.3,MacIntel,59.97361161,62bbe60bf3d75ef465d3e404,0,148,148,21,1,threefour,,,,,,,,,,,,,,,,,,,,,,,,,,,,,,,,,,,,,,,,,,,,,,,,,,,,,,,,,,,,,,,,,,,,,,,,,,,,,,,,,,,,,,,,,,,,,,,,,,,,,,,,,,,,,,,,,,,,,,,,,,,,,,,,,,,,,,,,,,,,,,,,,,,,,,,,
,,,,,,5ea8bea5a6081b141edb65ba,62bbf922b17330df12859376,2022-06-29_24h03.33.132,Colour_Asymmetry_Pilot,2022.1.3,MacIntel,59.97361161,62bbe60bf3d75ef465d3e404,0,149,149,113,1,onethree,,,,,,,,,,,,,,,,,,,,,,,,,,,,,,,,,,,,,,,,,,,,,,,,,,,,,,,,,,,,,,,,,,,,,,,,,,,,,,,,,,,,,,,,,,,,,,,,,,,,,,,,,,,,,,,,,,,,,,,,,,,,,,,,,,,,,,,,,,,,,,,,,,,,,,,,
,,,,,,5ea8bea5a6081b141edb65ba,62bbf922b17330df12859376,2022-06-29_24h03.33.132,Colour_Asymmetry_Pilot,2022.1.3,MacIntel,59.97361161,62bbe60bf3d75ef465d3e404,0,150,150,43,1,twofour,,,,,,,,,,,,,,,,,,,,,,,,,,,,,,,,,,,,,,,,,,,,,,,,,,,,,,,,,,,,,,,,,,,,,,,,,,,,,,,,,,,,,,,,,,,,,,,,,,,,,,,,,,,,,,,,,,,,,,,,,,,,,,,,,,,,,,,,,,,,,,,,,,,,,,,,
,,,,,,5ea8bea5a6081b141edb65ba,62bbf922b17330df12859376,2022-06-29_24h03.33.132,Colour_Asymmetry_Pilot,2022.1.3,MacIntel,59.97361161,62bbe60bf3d75ef465d3e404,0,151,151,24,1,onetwo,,,,,,,,,,,,,,,,,,,,,,,,,,,,,,,,,,,,,,,,,,,,,,,,,,,,,,,,,,,,,,,,,,,,,,,,,,,,,,,,,,,,,,,,,,,,,,,,,,,,,,,,,,,,,,,,,,,,,,,,,,,,,,,,,,,,,,,,,,,,,,,,,,,,,,,,
,,,,,,5ea8bea5a6081b141edb65ba,62bbf922b17330df12859376,2022-06-29_24h03.33.132,Colour_Asymmetry_Pilot,2022.1.3,MacIntel,59.97361161,62bbe60bf3d75ef465d3e404,0,152,152,107,1,twofour,,,,,,,,,,,,,,,,,,,,,,,,,,,,,,,,,,,,,,,,,,,,,,,,,,,,,,,,,,,,,,,,,,,,,,,,,,,,,,,,,,,,,,,,,,,,,,,,,,,,,,,,,,,,,,,,,,,,,,,,,,,,,,,,,,,,,,,,,,,,,,,,,,,,,,,,
,,,,,,5ea8bea5a6081b141edb65ba,62bbf922b17330df12859376,2022-06-29_24h03.33.132,Colour_Asymmetry_Pilot,2022.1.3,MacIntel,59.97361161,62bbe60bf3d75ef465d3e404,0,153,153,89,1,onethree,,,,,,,,,,,,,,,,,,,,,,,,,,,,,,,,,,,,,,,,,,,,,,,,,,,,,,,,,,,,,,,,,,,,,,,,,,,,,,,,,,,,,,,,,,,,,,,,,,,,,,,,,,,,,,,,,,,,,,,,,,,,,,,,,,,,,,,,,,,,,,,,,,,,,,,,
,,,,,,5ea8bea5a6081b141edb65ba,62bbf922b17330df12859376,2022-06-29_24h03.33.132,Colour_Asymmetry_Pilot,2022.1.3,MacIntel,59.97361161,62bbe60bf3d75ef465d3e404,0,154,154,112,1,onetwo,,,,,,,,,,,,,,,,,,,,,,,,,,,,,,,,,,,,,,,,,,,,,,,,,,,,,,,,,,,,,,,,,,,,,,,,,,,,,,,,,,,,,,,,,,,,,,,,,,,,,,,,,,,,,,,,,,,,,,,,,,,,,,,,,,,,,,,,,,,,,,,,,,,,,,,,
,,,,,,5ea8bea5a6081b141edb65ba,62bbf922b17330df12859376,2022-06-29_24h03.33.132,Colour_Asymmetry_Pilot,2022.1.3,MacIntel,59.97361161,62bbe60bf3d75ef465d3e404,0,155,155,77,1,threefour,,,,,,,,,,,,,,,,,,,,,,,,,,,,,,,,,,,,,,,,,,,,,,,,,,,,,,,,,,,,,,,,,,,,,,,,,,,,,,,,,,,,,,,,,,,,,,,,,,,,,,,,,,,,,,,,,,,,,,,,,,,,,,,,,,,,,,,,,,,,,,,,,,,,,,,,
,,,,,,5ea8bea5a6081b141edb65ba,62bbf922b17330df12859376,2022-06-29_24h03.33.132,Colour_Asymmetry_Pilot,2022.1.3,MacIntel,59.97361161,62bbe60bf3d75ef465d3e404,0,156,156,27,1,twofour,,,,,,,,,,,,,,,,,,,,,,,,,,,,,,,,,,,,,,,,,,,,,,,,,,,,,,,,,,,,,,,,,,,,,,,,,,,,,,,,,,,,,,,,,,,,,,,,,,,,,,,,,,,,,,,,,,,,,,,,,,,,,,,,,,,,,,,,,,,,,,,,,,,,,,,,
,,,,,,5ea8bea5a6081b141edb65ba,62bbf922b17330df12859376,2022-06-29_24h03.33.132,Colour_Asymmetry_Pilot,2022.1.3,MacIntel,59.97361161,62bbe60bf3d75ef465d3e404,0,157,157,33,1,onethree,,,,,,,,,,,,,,,,,,,,,,,,,,,,,,,,,,,,,,,,,,,,,,,,,,,,,,,,,,,,,,,,,,,,,,,,,,,,,,,,,,,,,,,,,,,,,,,,,,,,,,,,,,,,,,,,,,,,,,,,,,,,,,,,,,,,,,,,,,,,,,,,,,,,,,,,
,,,,,,5ea8bea5a6081b141edb65ba,62bbf922b17330df12859376,2022-06-29_24h03.33.132,Colour_Asymmetry_Pilot,2022.1.3,MacIntel,59.97361161,62bbe60bf3d75ef465d3e404,0,158,158,75,1,twofour,,,,,,,,,,,,,,,,,,,,,,,,,,,,,,,,,,,,,,,,,,,,,,,,,,,,,,,,,,,,,,,,,,,,,,,,,,,,,,,,,,,,,,,,,,,,,,,,,,,,,,,,,,,,,,,,,,,,,,,,,,,,,,,,,,,,,,,,,,,,,,,,,,,,,,,,
,,,,,,5ea8bea5a6081b141edb65ba,62bbf922b17330df12859376,2022-06-29_24h03.33.132,Colour_Asymmetry_Pilot,2022.1.3,MacIntel,59.97361161,62bbe60bf3d75ef465d3e404,0,159,159,19,1,twofour,,,,,,,,,,,,,,,,,,,,,,,,,,,,,,,,,,,,,,,,,,,,,,,,,,,,,,,,,,,,,,,,,,,,,,,,,,,,,,,,,,,,,,,,,,,,,,,,,,,,,,,,,,,,,,,,,,,,,,,,,,,,,,,,,,,,,,,,,,,,,,,,,,,,,,,,
,,,,,,5ea8bea5a6081b141edb65ba,62bbf922b17330df12859376,2022-06-29_24h03.33.132,Colour_Asymmetry_Pilot,2022.1.3,MacIntel,59.97361161,62bbe60bf3d75ef465d3e404,0,160,160,140,1,threeone,,,,,,,,,,,,,,,,,,,,,,,,,,,,,,,,,,,,,,,,,,,,,,,,,,,,,,,,,,,,,,,,,,,,,,,,,,,,,,,,,,,,,,,,,,,,,,,,,,,,,,,,,,,,,,,,,,,,,,,,,,,,,,,,,,,,,,,,,,,,,,,,,,,,,,,,
,,,,,,5ea8bea5a6081b141edb65ba,62bbf922b17330df12859376,2022-06-29_24h03.33.132,Colour_Asymmetry_Pilot,2022.1.3,MacIntel,59.97361161,62bbe60bf3d75ef465d3e404,0,161,161,10,1,twoone,,,,,,,,,,,,,,,,,,,,,,,,,,,,,,,,,,,,,,,,,,,,,,,,,,,,,,,,,,,,,,,,,,,,,,,,,,,,,,,,,,,,,,,,,,,,,,,,,,,,,,,,,,,,,,,,,,,,,,,,,,,,,,,,,,,,,,,,,,,,,,,,,,,,,,,,
,,,,,,5ea8bea5a6081b141edb65ba,62bbf922b17330df12859376,2022-06-29_24h03.33.132,Colour_Asymmetry_Pilot,2022.1.3,MacIntel,59.97361161,62bbe60bf3d75ef465d3e404,,,,,,,space,4.7875,space,14.1767,space,43.8777,space,32.1578,space,2.7882,space,5.7678,"[0.9842,0.7409999999999999,-0.6628000000000001]",onetwo,"[0.6625999999999999,0.4980000000000002,-0.357]",4,10.4904,34.89733887,84.99493408,1,0,0,response1disk_5,-1.264465332,-2.238342285,1,0,0,rectangle_8,81.41973877,33.86755371,1,0,0,response1disk_7,6,3,4.127197266,-2.909301758,1,0,0,rectangle_4,0,0,0,0,1,,,,,,,,,,,,,,,,,,,,,,,,,,,,,,,,,,,,,,,,,,,,,,,,,,,,,,,,,,,,,,,,,,,,,,,,,,,,,,,,,,,,,,,,,,,,,,,,,,,,,,,,
,,,,,,5ea8bea5a6081b141edb65ba,62bbf922b17330df12859376,2022-06-29_24h03.33.132,Colour_Asymmetry_Pilot,2022.1.3,MacIntel,59.97361161,62bbe60bf3d75ef465d3e404,,,,,,,,,,,,,,,,,,,"[0.4196,0.4665999999999999,0.3568]",onethree,"[-0.9688,-0.38039999999999996,-0.41979999999999995]",-2,7.786,-63.66040039,-32.18981934,1,0,0,response5disk_5,7.436279297,-6.202209473,1,0,0,rectangle_8,78.71813965,34.9083252,1,0,0,response1disk_7,6,3,9.692138672,-5.909301758,1,0,0,rectangle_4,1,0,1,0,1,,,,,,,,,,,,,,,,,,,,,,,,,,,,,,,,,,,,,,,,,,,,,,,,,,,,,,,,,,,,,,,,,,,,,,,,,,,,,,,,,,,,,,,,,,,,,,,,,,,,,,,,
,,,,,,5ea8bea5a6081b141edb65ba,62bbf922b17330df12859376,2022-06-29_24h03.33.132,Colour_Asymmetry_Pilot,2022.1.3,MacIntel,59.97361161,62bbe60bf3d75ef465d3e404,,,,,,,,,,,,,,,,,,,"[-0.45899999999999996,-0.3256,-0.9374]",twofour,"[-0.4276,0.0038000000000000256,-0.3256]",-1,7.0695,-32.13586426,-76.90222168,1,0,0,response5disk_5,8.258178711,-1.623840332,1,0,0,rectangle_8,8.258178711,-1.623840332,1,0,0,,,3,8.258178711,-1.623840332,1,0,0,,2,0,2,0,1,,,,,,,,,,,,,,,,,,,,,,,,,,,,,,,,,,,,,,,,,,,,,,,,,,,,,,,,,,,,,,,,,,,,,,,,,,,,,,,,,,,,,,,,,,,,,,,,,,,,,,,,
,,,,,,5ea8bea5a6081b141edb65ba,62bbf922b17330df12859376,2022-06-29_24h03.33.132,Colour_Asymmetry_Pilot,2022.1.3,MacIntel,59.97361161,62bbe60bf3d75ef465d3e404,,,,,,,,,,,,,,,,,,,"[-0.9766,-0.34920000000000007,0.2156]",twoone,"[0.23120000000000007,-0.7726,-0.34120000000000006]",-4,5.0037,-35.16925049,71.6918335,1,0,0,response7disk_5,3.596435547,-0.139068604,1,0,0,rectangle_8,3.596435547,-0.139068604,1,0,0,,,3,3.596435547,-0.139068604,1,0,0,,3,0,3,0,1,,,,,,,,,,,,,,,,,,,,,,,,,,,,,,,,,,,,,,,,,,,,,,,,,,,,,,,,,,,,,,,,,,,,,,,,,,,,,,,,,,,,,,,,,,,,,,,,,,,,,,,,
,,,,,,5ea8bea5a6081b141edb65ba,62bbf922b17330df12859376,2022-06-29_24h03.33.132,Colour_Asymmetry_Pilot,2022.1.3,MacIntel,59.97361161,62bbe60bf3d75ef465d3e404,,,,,,,,,,,,,,,,,,,"[1,0.12939999999999996,-1]",threeone,"[0.9686000000000001,0.3802000000000001,0.19999999999999996]",-2,7.8031,-67.06634521,-42.38342285,1,0,0,response5disk_5,4.399230957,5.221740723,1,0,0,rectangle_8,4.399230957,5.221740723,1,0,0,,,3,4.399230957,5.221740723,1,0,0,,4,0,4,0,1,,,,,,,,,,,,,,,,,,,,,,,,,,,,,,,,,,,,,,,,,,,,,,,,,,,,,,,,,,,,,,,,,,,,,,,,,,,,,,,,,,,,,,,,,,,,,,,,,,,,,,,,
,,,,,,5ea8bea5a6081b141edb65ba,62bbf922b17330df12859376,2022-06-29_24h03.33.132,Colour_Asymmetry_Pilot,2022.1.3,MacIntel,59.97361161,62bbe60bf3d75ef465d3e404,,,,,,,,,,,,,,,,,,,"[0.22340000000000004,-0.9296,-0.7884]",fourthree,"[0.7018,0.7802,-0.16079999999999994]",-4,5.6863,-37.49798584,75.55419922,1,0,0,response7disk_5,2.783813477,1.463317871,1,0,0,rectangle_8,2.783813477,1.463317871,1,0,0,,,3,2.783813477,1.463317871,1,0,0,,5,0,5,0,1,,,,,,,,,,,,,,,,,,,,,,,,,,,,,,,,,,,,,,,,,,,,,,,,,,,,,,,,,,,,,,,,,,,,,,,,,,,,,,,,,,,,,,,,,,,,,,,,,,,,,,,,
,,,,,,5ea8bea5a6081b141edb65ba,62bbf922b17330df12859376,2022-06-29_24h03.33.132,Colour_Asymmetry_Pilot,2022.1.3,MacIntel,59.97361161,62bbe60bf3d75ef465d3e404,,,,,,,,,,,,,,,,,,,"[-0.011800000000000033,-0.906,-0.45100000000000007]",twoone,"[0.12939999999999996,-0.2864,0.3253999999999999]",-2,2.7175,-68.57373047,-50.06634521,1,0,0,response5disk_5,6.366149902,6.234619141,1,0,0,rectangle_8,6.366149902,6.234619141,1,0,0,,,3,6.366149902,6.234619141,1,0,0,,6,0,6,0,1,,,,,,,,,,,,,,,,,,,,,,,,,,,,,,,,,,,,,,,,,,,,,,,,,,,,,,,,,,,,,,,,,,,,,,,,,,,,,,,,,,,,,,,,,,,,,,,,,,,,,,,,
,,,,,,5ea8bea5a6081b141edb65ba,62bbf922b17330df12859376,2022-06-29_24h03.33.132,Colour_Asymmetry_Pilot,2022.1.3,MacIntel,59.97361161,62bbe60bf3d75ef465d3e404,,,,,,,,,,,,,,,,,,,,onetwo,,-3,5.856,,,,,,,,,,,,,,,,,,,,,,,,,,,,,,,,space,10.4427,"[0.5449999999999999,-0.31000000000000005,-0.0354000000000001]","[-0.6942,-0.7648,-0.12959999999999994]",-76.93920898,38.58813477,1,0,0,response7disk,4.70690918,-12.03759766,1,0,0,rectangle,86.99645996,-47.21414185,1,0,0,response3disk_3,2,2,5.2225,1,0.528198242,1.152587891,1,0,0,rectangle,0,0,0,36,1,36,first,,,,,,,,,,,,,,,,,,,,,,,,,,,,,,,,,,,,,,,,,,,,,,,,,,,,,,,,,,,,,,,,,
,,,,,,5ea8bea5a6081b141edb65ba,62bbf922b17330df12859376,2022-06-29_24h03.33.132,Colour_Asymmetry_Pilot,2022.1.3,MacIntel,59.97361161,62bbe60bf3d75ef465d3e404,,,,,,,,,,,,,,,,,,,,threeone,,-2,6.7688,,,,,,,,,,,,,,,,,,,,,,,,,,,,,,,,,,"[0.9372,0.20779999999999998,0.2704]","[-0.30200000000000005,0.14500000000000002,0.2784]",-60.04388428,-21.55401611,1,0,0,response5disk,4.814819336,-2.201293945,1,0,0,rectangle,4.814819336,-2.201293945,1,0,0,,2,1,0.0076,0,4.814819336,-2.201293945,1,0,0,,0,1,1,149,1,68,second,,,,,,,,,,,,,,,,,,,,,,,,,,,,,,,,,,,,,,,,,,,,,,,,,,,,,,,,,,,,,,,,,
,,,,,,5ea8bea5a6081b141edb65ba,62bbf922b17330df12859376,2022-06-29_24h03.33.132,Colour_Asymmetry_Pilot,2022.1.3,MacIntel,59.97361161,62bbe60bf3d75ef465d3e404,,,,,,,,,,,,,,,,,,,,onetwo,,-4,4.3522,,,,,,,,,,,,,,,,,,,,,,,,,,,,,,,,,,"[0.7176,-0.906,-0.6864]","[-0.10599999999999998,-0.10599999999999998,0.5841999999999998]",-28.65045166,82.67272949,1,0,0,response7disk,2.77734375,-4.201477051,1,0,0,rectangle,2.77734375,-4.201477051,1,0,0,,2,3,0.0023,0,2.77734375,-4.201477051,1,0,0,,0,2,2,78,1,78,first,,,,,,,,,,,,,,,,,,,,,,,,,,,,,,,,,,,,,,,,,,,,,,,,,,,,,,,,,,,,,,,,,
,,,,,,5ea8bea5a6081b141edb65ba,62bbf922b17330df12859376,2022-06-29_24h03.33.132,Colour_Asymmetry_Pilot,2022.1.3,MacIntel,59.97361161,62bbe60bf3d75ef465d3e404,,,,,,,,,,,,,,,,,,,,onethree,,-3,2.5844,,,,,,,,,,,,,,,,,,,,,,,,,,,,,,,,,,"[-0.38039999999999996,-0.4276,-0.1452]","[0.2862,0.7802,0.3568]",-75.97406006,37.93453979,1,0,0,response7disk,4.599243164,2.824432373,1,0,0,rectangle,4.599243164,2.824432373,1,0,0,,2,3,1E-04,0,4.599243164,2.824432373,1,0,0,,0,3,3,37,1,37,first,,,,,,,,,,,,,,,,,,,,,,,,,,,,,,,,,,,,,,,,,,,,,,,,,,,,,,,,,,,,,,,,,
,,,,,,5ea8bea5a6081b141edb65ba,62bbf922b17330df12859376,2022-06-29_24h03.33.132,Colour_Asymmetry_Pilot,2022.1.3,MacIntel,59.97361161,62bbe60bf3d75ef465d3e404,,,,,,,,,,,,,,,,,,,,twofour,,2,4.3218,,,,,,,,,,,,,,,,,,,,,,,,,,,,,,,,,,"[0.7176,-0.906,-0.6864]","[-0.01980000000000004,-0.5138,-0.38039999999999996]",55.8081665,-30.49499512,1,0,0,response3disk,-5.178344727,-2.165039063,1,0,0,rectangle,-5.178344727,-2.165039063,1,0,0,,2,3,0.0002,0,-5.178344727,-2.165039063,1,0,0,,0,4,4,38,1,38,first,,,,,,,,,,,,,,,,,,,,,,,,,,,,,,,,,,,,,,,,,,,,,,,,,,,,,,,,,,,,,,,,,
,,,,,,5ea8bea5a6081b141edb65ba,62bbf922b17330df12859376,2022-06-29_24h03.33.132,Colour_Asymmetry_Pilot,2022.1.3,MacIntel,59.97361161,62bbe60bf3d75ef465d3e404,,,,,,,,,,,,,,,,,,,,fourtwo,,-2,4.4354,,,,,,,,,,,,,,,,,,,,,,,,,,,,,,,,,,"[-0.30200000000000005,0.14500000000000002,0.2784]","[0.6547999999999998,-0.043199999999999905,-0.011800000000000033]",-60.53271484,-41.45672607,1,0,0,response5disk,4.846374512,0.765563965,1,0,0,rectangle,4.846374512,0.765563965,1,0,0,,2,1,0.0026,0,4.846374512,0.765563965,1,0,0,,0,5,5,111,1,30,second,,,,,,,,,,,,,,,,,,,,,,,,,,,,,,,,,,,,,,,,,,,,,,,,,,,,,,,,,,,,,,,,,
,,,,,,5ea8bea5a6081b141edb65ba,62bbf922b17330df12859376,2022-06-29_24h03.33.132,Colour_Asymmetry_Pilot,2022.1.3,MacIntel,59.97361161,62bbe60bf3d75ef465d3e404,,,,,,,,,,,,,,,,,,,,onethree,,-4,5.1026,,,,,,,,,,,,,,,,,,,,,,,,,,,,,,,,,,"[-0.4902000000000001,0.2704,-0.45899999999999996]","[0.9686000000000001,0.5763999999999998,0.11359999999999992]",-31.84545898,78.93069458,1,0,0,response7disk,4.119262695,-3.579162598,1,0,0,rectangle,4.119262695,-3.579162598,1,0,0,,2,2,0.0028,0,4.119262695,-3.579162598,1,0,0,,0,6,6,89,1,8,second,,,,,,,,,,,,,,,,,,,,,,,,,,,,,,,,,,,,,,,,,,,,,,,,,,,,,,,,,,,,,,,,,
,,,,,,5ea8bea5a6081b141edb65ba,62bbf922b17330df12859376,2022-06-29_24h03.33.132,Colour_Asymmetry_Pilot,2022.1.3,MacIntel,59.97361161,62bbe60bf3d75ef465d3e404,,,,,,,,,,,,,,,,,,,,fourtwo,,-2,2.0681,,,,,,,,,,,,,,,,,,,,,,,,,,,,,,,,,,"[-0.26280000000000003,-0.4746,-0.2158]","[-0.26280000000000003,-0.2158,-0.3256]",-51.08081055,-32.37213135,1,0,0,response5disk,5.113464355,3.886749268,1,0,0,rectangle,5.113464355,3.886749268,1,0,0,,2,2,0.0002,0,5.113464355,3.886749268,1,0,0,,0,7,7,16,1,16,first,,,,,,,,,,,,,,,,,,,,,,,,,,,,,,,,,,,,,,,,,,,,,,,,,,,,,,,,,,,,,,,,,
,,,,,,5ea8bea5a6081b141edb65ba,62bbf922b17330df12859376,2022-06-29_24h03.33.132,Colour_Asymmetry_Pilot,2022.1.3,MacIntel,59.97361161,62bbe60bf3d75ef465d3e404,,,,,,,,,,,,,,,,,,,,fourthree,,-1,4.4188,,,,,,,,,,,,,,,,,,,,,,,,,,,,,,,,,,"[-0.24719999999999998,0.5213999999999999,-0.12959999999999994]","[-0.9688,-0.38039999999999996,-0.41979999999999995]",-28.91662598,-69.67242432,1,0,0,response5disk,-3.69519043,3.701049805,1,0,0,rectangle,-3.69519043,3.701049805,1,0,0,,2,2,1E-04,0,-3.69519043,3.701049805,1,0,0,,0,8,8,148,1,67,second,,,,,,,,,,,,,,,,,,,,,,,,,,,,,,,,,,,,,,,,,,,,,,,,,,,,,,,,,,,,,,,,,
,,,,,,5ea8bea5a6081b141edb65ba,62bbf922b17330df12859376,2022-06-29_24h03.33.132,Colour_Asymmetry_Pilot,2022.1.3,MacIntel,59.97361161,62bbe60bf3d75ef465d3e404,,,,,,,,,,,,,,,,,,,,onethree,,-4,3.3673,,,,,,,,,,,,,,,,,,,,,,,,,,,,,,,,,,"[0.9763999999999999,0.8588,-0.05900000000000005]","[0.3881999999999999,-0.23939999999999995,-0.05040000000000011]",-34.92919922,85.99252319,1,0,0,response7disk,-2.261108398,-1.770629883,1,0,0,rectangle,-2.261108398,-1.770629883,1,0,0,,2,2,0.0002,0,-2.261108398,-1.770629883,1,0,0,,0,9,9,123,1,42,second,,,,,,,,,,,,,,,,,,,,,,,,,,,,,,,,,,,,,,,,,,,,,,,,,,,,,,,,,,,,,,,,,
,,,,,,5ea8bea5a6081b141edb65ba,62bbf922b17330df12859376,2022-06-29_24h03.33.132,Colour_Asymmetry_Pilot,2022.1.3,MacIntel,59.97361161,62bbe60bf3d75ef465d3e404,,,,,,,,,,,,,,,,,,,,fourtwo,,-4,1.1348,,,,,,,,,,,,,,,,,,,,,,,,,,,,,,,,,,"[-0.20799999999999996,-0.655,-0.01980000000000004]","[0.37240000000000006,-0.050999999999999934,-0.5216]",-30.94885254,64.08789063,1,0,0,response7disk,4.767578125,-10.8145752,1,0,0,rectangle,4.767578125,-10.8145752,1,0,0,,2,3,0.002,0,4.767578125,-10.8145752,1,0,0,,0,10,10,7,1,7,first,,,,,,,,,,,,,,,,,,,,,,,,,,,,,,,,,,,,,,,,,,,,,,,,,,,,,,,,,,,,,,,,,
,,,,,,5ea8bea5a6081b141edb65ba,62bbf922b17330df12859376,2022-06-29_24h03.33.132,Colour_Asymmetry_Pilot,2022.1.3,MacIntel,59.97361161,62bbe60bf3d75ef465d3e404,,,,,,,,,,,,,,,,,,,,fourthree,,4,1.3325,,,,,,,,,,,,,,,,,,,,,,,,,,,,,,,,,,"[0.9213999999999998,0.6391999999999998,-0.9922]","[0.6625999999999999,0.4980000000000002,-0.357]",50.15246582,83.73895264,1,0,0,response1disk,-4.702026367,1.988952637,1,0,0,rectangle,-4.702026367,1.988952637,1,0,0,,2,3,0.0003,0,-4.702026367,1.988952637,1,0,0,,0,11,11,107,1,26,second,,,,,,,,,,,,,,,,,,,,,,,,,,,,,,,,,,,,,,,,,,,,,,,,,,,,,,,,,,,,,,,,,
,,,,,,5ea8bea5a6081b141edb65ba,62bbf922b17330df12859376,2022-06-29_24h03.33.132,Colour_Asymmetry_Pilot,2022.1.3,MacIntel,59.97361161,62bbe60bf3d75ef465d3e404,,,,,,,,,,,,,,,,,,,,onethree,,-2,1.8343,,,,,,,,,,,,,,,,,,,,,,,,,,,,,,,,,,"[0.12939999999999996,-0.2864,0.3253999999999999]","[0.5449999999999999,-0.31000000000000005,-0.0354000000000001]",-58.60046387,-35.71734619,1,0,0,response5disk,7.488098145,1.058288574,1,0,0,rectangle,7.488098145,1.058288574,1,0,0,,2,1,0.0014,0,7.488098145,1.058288574,1,0,0,,0,12,12,145,1,64,second,,,,,,,,,,,,,,,,,,,,,,,,,,,,,,,,,,,,,,,,,,,,,,,,,,,,,,,,,,,,,,,,,
,,,,,,5ea8bea5a6081b141edb65ba,62bbf922b17330df12859376,2022-06-29_24h03.33.132,Colour_Asymmetry_Pilot,2022.1.3,MacIntel,59.97361161,62bbe60bf3d75ef465d3e404,,,,,,,,,,,,,,,,,,,,threeone,,2,1.2997,,,,,,,,,,,,,,,,,,,,,,,,,,,,,,,,,,"[-0.9688,-0.38039999999999996,-0.41979999999999995]","[-0.5922000000000001,-0.7492000000000001,-0.5296000000000001]",75.18658447,-38.45480347,1,0,0,response3disk,-1.405517578,-1.18572998,1,0,0,rectangle,-1.405517578,-1.18572998,1,0,0,,2,2,0.0007,0,-1.405517578,-1.18572998,1,0,0,,0,13,13,141,1,60,second,,,,,,,,,,,,,,,,,,,,,,,,,,,,,,,,,,,,,,,,,,,,,,,,,,,,,,,,,,,,,,,,,
,,,,,,5ea8bea5a6081b141edb65ba,62bbf922b17330df12859376,2022-06-29_24h03.33.132,Colour_Asymmetry_Pilot,2022.1.3,MacIntel,59.97361161,62bbe60bf3d75ef465d3e404,,,,,,,,,,,,,,,,,,,,fourtwo,,-2,1.1844,,,,,,,,,,,,,,,,,,,,,,,,,,,,,,,,,,"[0.22340000000000004,-0.9296,-0.7884]","[-0.26280000000000003,-0.2158,-0.3256]",-46.85205078,-25.72460938,1,0,0,response5disk,1.365783691,0.54385376,1,0,0,rectangle,1.365783691,0.54385376,1,0,0,,2,2,0.0002,0,1.365783691,0.54385376,1,0,0,,0,14,14,13,1,13,first,,,,,,,,,,,,,,,,,,,,,,,,,,,,,,,,,,,,,,,,,,,,,,,,,,,,,,,,,,,,,,,,,
,,,,,,5ea8bea5a6081b141edb65ba,62bbf922b17330df12859376,2022-06-29_24h03.33.132,Colour_Asymmetry_Pilot,2022.1.3,MacIntel,59.97361161,62bbe60bf3d75ef465d3e404,,,,,,,,,,,,,,,,,,,,threeone,,-3,1.2178,,,,,,,,,,,,,,,,,,,,,,,,,,,,,,,,,,"[0.12939999999999996,-0.2864,0.3253999999999999]","[0.11359999999999992,0.6312,0.5213999999999999]",-71.34216309,47.46954346,1,0,0,response7disk,-0.341552734,-10.01293945,1,0,0,rectangle,-0.341552734,-10.01293945,1,0,0,,2,1,0.0024,0,-0.341552734,-10.01293945,1,0,0,,0,15,15,121,1,40,second,,,,,,,,,,,,,,,,,,,,,,,,,,,,,,,,,,,,,,,,,,,,,,,,,,,,,,,,,,,,,,,,,
