trials.thisRepN,trials.thisTrialN,trials.thisN,trials.thisIndex,trials.ran,Colourcodes,participant,session,date,expName,psychopyVersion,OS,frameRate,study_id,trials_4.thisRepN,trials_4.thisTrialN,trials_4.thisN,trials_4.thisIndex,trials_4.ran,StimulusPos,key_resp.keys,key_resp.rt,key_resp_2.keys,key_resp_2.rt,key_resp_15.keys,key_resp_15.rt,key_resp_17.keys,key_resp_17.rt,key_resp_9.keys,key_resp_9.rt,key_resp_10.keys,key_resp_10.rt,Circle1_col,Ecc,Circle2_col,similarity,response_time,mouse_5.x,mouse_5.y,mouse_5.leftButton,mouse_5.midButton,mouse_5.rightButton,mouse_5.clicked_name,mouse_10.x,mouse_10.y,mouse_10.leftButton,mouse_10.midButton,mouse_10.rightButton,mouse_10.clicked_name,mouse_7.x,mouse_7.y,mouse_7.leftButton,mouse_7.midButton,mouse_7.rightButton,catchnumberprac,mouse_6.x,mouse_6.y,mouse_6.leftButton,mouse_6.midButton,mouse_6.rightButton,duringprac.thisRepN,duringprac.thisTrialN,duringprac.thisN,duringprac.thisIndex,duringprac.ran,mouse_7.clicked_name,catchprac,mouse_6.clicked_name,key_resp_22.keys,key_resp_22.rt,Circle1_colour,Circle2_colour,mouse.x,mouse.y,mouse.leftButton,mouse.midButton,mouse.rightButton,mouse.clicked_name,mouse_2.x,mouse_2.y,mouse_2.leftButton,mouse_2.midButton,mouse_2.rightButton,mouse_2.clicked_name,mouse_3.x,mouse_3.y,mouse_3.leftButton,mouse_3.midButton,mouse_3.rightButton,catchresponse,catchnumber,response_time_catch,Catch,mouse_11.x,mouse_11.y,mouse_11.leftButton,mouse_11.midButton,mouse_11.rightButton,trials_2.thisRepN,trials_2.thisTrialN,trials_2.thisN,trials_2.thisIndex,trials_2.ran,Colourpair,Temporder,mouse_3.clicked_name,mouse_11.clicked_name,trials_3.thisRepN,trials_3.thisTrialN,trials_3.thisN,trials_3.thisIndex,trials_3.ran,key_resp_instr_Ishi.keys,key_resp_instr_Ishi.rt,Ishi_trial_keyresp.keys,Ishi_trial_keyresp.rt,Ishi_textbox.text,Ishi_loop.thisRepN,Ishi_loop.thisTrialN,Ishi_loop.thisN,Ishi_loop.thisIndex,Ishi_loop.ran,imageaddress,textbox.text,mouse_4.x,mouse_4.y,mouse_4.leftButton,mouse_4.midButton,mouse_4.rightButton,mouse_4.clicked_name,textbox_2.text,mouse_8.x,mouse_8.y,mouse_8.leftButton,mouse_8.midButton,mouse_8.rightButton,mouse_8.clicked_name,textbox_3.text,mouse_9.x,mouse_9.y,mouse_9.leftButton,mouse_9.midButton,mouse_9.rightButton,mouse_9.clicked_name,textbox_4.text,mouse_12.x,mouse_12.y,mouse_12.leftButton,mouse_12.midButton,mouse_12.rightButton,mouse_12.clicked_name,textbox_5.text,mouse_13.x,mouse_13.y,mouse_13.leftButton,mouse_13.midButton,mouse_13.rightButton,mouse_13.clicked_name,textbox_6.text,mouse_14.x,mouse_14.y,mouse_14.leftButton,mouse_14.midButton,mouse_14.rightButton,mouse_14.clicked_name,textbox_7.text,mouse_15.x,mouse_15.y,mouse_15.leftButton,mouse_15.midButton,mouse_15.rightButton,mouse_15.clicked_name
0,0,0,72,1,,613a50aa648466f836cb696f,62b2ac39afe45ccc6007968c,2022-06-22_24h45.00.255,Colour_Asymmetry_Pilot,2022.1.3,MacIntel,59.99880002,62b2a6a25f2ba72662469a01,,,,,,,,,,,,,,,,,,,,,,,,,,,,,,,,,,,,,,,,,,,,,,,,,,,,,,,,,,,,,,,,,,,,,,,,,,,,,,,,,,,,,,,,,,,,,,,,,,,,,,,,,,,,,,,,,,,,,,,,,,,,,,,,,,,,,,,,,,,,,,,,,,,,,,,,,,,,,,
0,1,1,71,1,,613a50aa648466f836cb696f,62b2ac39afe45ccc6007968c,2022-06-22_24h45.00.255,Colour_Asymmetry_Pilot,2022.1.3,MacIntel,59.99880002,62b2a6a25f2ba72662469a01,,,,,,,,,,,,,,,,,,,,,,,,,,,,,,,,,,,,,,,,,,,,,,,,,,,,,,,,,,,,,,,,,,,,,,,,,,,,,,,,,,,,,,,,,,,,,,,,,,,,,,,,,,,,,,,,,,,,,,,,,,,,,,,,,,,,,,,,,,,,,,,,,,,,,,,,,,,,,,
0,2,2,40,1,,613a50aa648466f836cb696f,62b2ac39afe45ccc6007968c,2022-06-22_24h45.00.255,Colour_Asymmetry_Pilot,2022.1.3,MacIntel,59.99880002,62b2a6a25f2ba72662469a01,,,,,,,,,,,,,,,,,,,,,,,,,,,,,,,,,,,,,,,,,,,,,,,,,,,,,,,,,,,,,,,,,,,,,,,,,,,,,,,,,,,,,,,,,,,,,,,,,,,,,,,,,,,,,,,,,,,,,,,,,,,,,,,,,,,,,,,,,,,,,,,,,,,,,,,,,,,,,,
0,3,3,64,1,,613a50aa648466f836cb696f,62b2ac39afe45ccc6007968c,2022-06-22_24h45.00.255,Colour_Asymmetry_Pilot,2022.1.3,MacIntel,59.99880002,62b2a6a25f2ba72662469a01,,,,,,,,,,,,,,,,,,,,,,,,,,,,,,,,,,,,,,,,,,,,,,,,,,,,,,,,,,,,,,,,,,,,,,,,,,,,,,,,,,,,,,,,,,,,,,,,,,,,,,,,,,,,,,,,,,,,,,,,,,,,,,,,,,,,,,,,,,,,,,,,,,,,,,,,,,,,,,
0,4,4,18,1,,613a50aa648466f836cb696f,62b2ac39afe45ccc6007968c,2022-06-22_24h45.00.255,Colour_Asymmetry_Pilot,2022.1.3,MacIntel,59.99880002,62b2a6a25f2ba72662469a01,,,,,,,,,,,,,,,,,,,,,,,,,,,,,,,,,,,,,,,,,,,,,,,,,,,,,,,,,,,,,,,,,,,,,,,,,,,,,,,,,,,,,,,,,,,,,,,,,,,,,,,,,,,,,,,,,,,,,,,,,,,,,,,,,,,,,,,,,,,,,,,,,,,,,,,,,,,,,,
0,5,5,70,1,,613a50aa648466f836cb696f,62b2ac39afe45ccc6007968c,2022-06-22_24h45.00.255,Colour_Asymmetry_Pilot,2022.1.3,MacIntel,59.99880002,62b2a6a25f2ba72662469a01,,,,,,,,,,,,,,,,,,,,,,,,,,,,,,,,,,,,,,,,,,,,,,,,,,,,,,,,,,,,,,,,,,,,,,,,,,,,,,,,,,,,,,,,,,,,,,,,,,,,,,,,,,,,,,,,,,,,,,,,,,,,,,,,,,,,,,,,,,,,,,,,,,,,,,,,,,,,,,
0,6,6,28,1,,613a50aa648466f836cb696f,62b2ac39afe45ccc6007968c,2022-06-22_24h45.00.255,Colour_Asymmetry_Pilot,2022.1.3,MacIntel,59.99880002,62b2a6a25f2ba72662469a01,,,,,,,,,,,,,,,,,,,,,,,,,,,,,,,,,,,,,,,,,,,,,,,,,,,,,,,,,,,,,,,,,,,,,,,,,,,,,,,,,,,,,,,,,,,,,,,,,,,,,,,,,,,,,,,,,,,,,,,,,,,,,,,,,,,,,,,,,,,,,,,,,,,,,,,,,,,,,,
0,7,7,66,1,,613a50aa648466f836cb696f,62b2ac39afe45ccc6007968c,2022-06-22_24h45.00.255,Colour_Asymmetry_Pilot,2022.1.3,MacIntel,59.99880002,62b2a6a25f2ba72662469a01,,,,,,,,,,,,,,,,,,,,,,,,,,,,,,,,,,,,,,,,,,,,,,,,,,,,,,,,,,,,,,,,,,,,,,,,,,,,,,,,,,,,,,,,,,,,,,,,,,,,,,,,,,,,,,,,,,,,,,,,,,,,,,,,,,,,,,,,,,,,,,,,,,,,,,,,,,,,,,
0,8,8,22,1,,613a50aa648466f836cb696f,62b2ac39afe45ccc6007968c,2022-06-22_24h45.00.255,Colour_Asymmetry_Pilot,2022.1.3,MacIntel,59.99880002,62b2a6a25f2ba72662469a01,,,,,,,,,,,,,,,,,,,,,,,,,,,,,,,,,,,,,,,,,,,,,,,,,,,,,,,,,,,,,,,,,,,,,,,,,,,,,,,,,,,,,,,,,,,,,,,,,,,,,,,,,,,,,,,,,,,,,,,,,,,,,,,,,,,,,,,,,,,,,,,,,,,,,,,,,,,,,,
0,9,9,78,1,,613a50aa648466f836cb696f,62b2ac39afe45ccc6007968c,2022-06-22_24h45.00.255,Colour_Asymmetry_Pilot,2022.1.3,MacIntel,59.99880002,62b2a6a25f2ba72662469a01,,,,,,,,,,,,,,,,,,,,,,,,,,,,,,,,,,,,,,,,,,,,,,,,,,,,,,,,,,,,,,,,,,,,,,,,,,,,,,,,,,,,,,,,,,,,,,,,,,,,,,,,,,,,,,,,,,,,,,,,,,,,,,,,,,,,,,,,,,,,,,,,,,,,,,,,,,,,,,
0,10,10,38,1,,613a50aa648466f836cb696f,62b2ac39afe45ccc6007968c,2022-06-22_24h45.00.255,Colour_Asymmetry_Pilot,2022.1.3,MacIntel,59.99880002,62b2a6a25f2ba72662469a01,,,,,,,,,,,,,,,,,,,,,,,,,,,,,,,,,,,,,,,,,,,,,,,,,,,,,,,,,,,,,,,,,,,,,,,,,,,,,,,,,,,,,,,,,,,,,,,,,,,,,,,,,,,,,,,,,,,,,,,,,,,,,,,,,,,,,,,,,,,,,,,,,,,,,,,,,,,,,,
0,11,11,41,1,,613a50aa648466f836cb696f,62b2ac39afe45ccc6007968c,2022-06-22_24h45.00.255,Colour_Asymmetry_Pilot,2022.1.3,MacIntel,59.99880002,62b2a6a25f2ba72662469a01,,,,,,,,,,,,,,,,,,,,,,,,,,,,,,,,,,,,,,,,,,,,,,,,,,,,,,,,,,,,,,,,,,,,,,,,,,,,,,,,,,,,,,,,,,,,,,,,,,,,,,,,,,,,,,,,,,,,,,,,,,,,,,,,,,,,,,,,,,,,,,,,,,,,,,,,,,,,,,
0,12,12,21,1,,613a50aa648466f836cb696f,62b2ac39afe45ccc6007968c,2022-06-22_24h45.00.255,Colour_Asymmetry_Pilot,2022.1.3,MacIntel,59.99880002,62b2a6a25f2ba72662469a01,,,,,,,,,,,,,,,,,,,,,,,,,,,,,,,,,,,,,,,,,,,,,,,,,,,,,,,,,,,,,,,,,,,,,,,,,,,,,,,,,,,,,,,,,,,,,,,,,,,,,,,,,,,,,,,,,,,,,,,,,,,,,,,,,,,,,,,,,,,,,,,,,,,,,,,,,,,,,,
0,13,13,47,1,,613a50aa648466f836cb696f,62b2ac39afe45ccc6007968c,2022-06-22_24h45.00.255,Colour_Asymmetry_Pilot,2022.1.3,MacIntel,59.99880002,62b2a6a25f2ba72662469a01,,,,,,,,,,,,,,,,,,,,,,,,,,,,,,,,,,,,,,,,,,,,,,,,,,,,,,,,,,,,,,,,,,,,,,,,,,,,,,,,,,,,,,,,,,,,,,,,,,,,,,,,,,,,,,,,,,,,,,,,,,,,,,,,,,,,,,,,,,,,,,,,,,,,,,,,,,,,,,
0,14,14,25,1,,613a50aa648466f836cb696f,62b2ac39afe45ccc6007968c,2022-06-22_24h45.00.255,Colour_Asymmetry_Pilot,2022.1.3,MacIntel,59.99880002,62b2a6a25f2ba72662469a01,,,,,,,,,,,,,,,,,,,,,,,,,,,,,,,,,,,,,,,,,,,,,,,,,,,,,,,,,,,,,,,,,,,,,,,,,,,,,,,,,,,,,,,,,,,,,,,,,,,,,,,,,,,,,,,,,,,,,,,,,,,,,,,,,,,,,,,,,,,,,,,,,,,,,,,,,,,,,,
0,15,15,69,1,,613a50aa648466f836cb696f,62b2ac39afe45ccc6007968c,2022-06-22_24h45.00.255,Colour_Asymmetry_Pilot,2022.1.3,MacIntel,59.99880002,62b2a6a25f2ba72662469a01,,,,,,,,,,,,,,,,,,,,,,,,,,,,,,,,,,,,,,,,,,,,,,,,,,,,,,,,,,,,,,,,,,,,,,,,,,,,,,,,,,,,,,,,,,,,,,,,,,,,,,,,,,,,,,,,,,,,,,,,,,,,,,,,,,,,,,,,,,,,,,,,,,,,,,,,,,,,,,
0,16,16,8,1,,613a50aa648466f836cb696f,62b2ac39afe45ccc6007968c,2022-06-22_24h45.00.255,Colour_Asymmetry_Pilot,2022.1.3,MacIntel,59.99880002,62b2a6a25f2ba72662469a01,,,,,,,,,,,,,,,,,,,,,,,,,,,,,,,,,,,,,,,,,,,,,,,,,,,,,,,,,,,,,,,,,,,,,,,,,,,,,,,,,,,,,,,,,,,,,,,,,,,,,,,,,,,,,,,,,,,,,,,,,,,,,,,,,,,,,,,,,,,,,,,,,,,,,,,,,,,,,,
0,17,17,68,1,,613a50aa648466f836cb696f,62b2ac39afe45ccc6007968c,2022-06-22_24h45.00.255,Colour_Asymmetry_Pilot,2022.1.3,MacIntel,59.99880002,62b2a6a25f2ba72662469a01,,,,,,,,,,,,,,,,,,,,,,,,,,,,,,,,,,,,,,,,,,,,,,,,,,,,,,,,,,,,,,,,,,,,,,,,,,,,,,,,,,,,,,,,,,,,,,,,,,,,,,,,,,,,,,,,,,,,,,,,,,,,,,,,,,,,,,,,,,,,,,,,,,,,,,,,,,,,,,
0,18,18,77,1,,613a50aa648466f836cb696f,62b2ac39afe45ccc6007968c,2022-06-22_24h45.00.255,Colour_Asymmetry_Pilot,2022.1.3,MacIntel,59.99880002,62b2a6a25f2ba72662469a01,,,,,,,,,,,,,,,,,,,,,,,,,,,,,,,,,,,,,,,,,,,,,,,,,,,,,,,,,,,,,,,,,,,,,,,,,,,,,,,,,,,,,,,,,,,,,,,,,,,,,,,,,,,,,,,,,,,,,,,,,,,,,,,,,,,,,,,,,,,,,,,,,,,,,,,,,,,,,,
0,19,19,24,1,,613a50aa648466f836cb696f,62b2ac39afe45ccc6007968c,2022-06-22_24h45.00.255,Colour_Asymmetry_Pilot,2022.1.3,MacIntel,59.99880002,62b2a6a25f2ba72662469a01,,,,,,,,,,,,,,,,,,,,,,,,,,,,,,,,,,,,,,,,,,,,,,,,,,,,,,,,,,,,,,,,,,,,,,,,,,,,,,,,,,,,,,,,,,,,,,,,,,,,,,,,,,,,,,,,,,,,,,,,,,,,,,,,,,,,,,,,,,,,,,,,,,,,,,,,,,,,,,
0,20,20,88,1,,613a50aa648466f836cb696f,62b2ac39afe45ccc6007968c,2022-06-22_24h45.00.255,Colour_Asymmetry_Pilot,2022.1.3,MacIntel,59.99880002,62b2a6a25f2ba72662469a01,,,,,,,,,,,,,,,,,,,,,,,,,,,,,,,,,,,,,,,,,,,,,,,,,,,,,,,,,,,,,,,,,,,,,,,,,,,,,,,,,,,,,,,,,,,,,,,,,,,,,,,,,,,,,,,,,,,,,,,,,,,,,,,,,,,,,,,,,,,,,,,,,,,,,,,,,,,,,,
0,21,21,27,1,,613a50aa648466f836cb696f,62b2ac39afe45ccc6007968c,2022-06-22_24h45.00.255,Colour_Asymmetry_Pilot,2022.1.3,MacIntel,59.99880002,62b2a6a25f2ba72662469a01,,,,,,,,,,,,,,,,,,,,,,,,,,,,,,,,,,,,,,,,,,,,,,,,,,,,,,,,,,,,,,,,,,,,,,,,,,,,,,,,,,,,,,,,,,,,,,,,,,,,,,,,,,,,,,,,,,,,,,,,,,,,,,,,,,,,,,,,,,,,,,,,,,,,,,,,,,,,,,
0,22,22,0,1,,613a50aa648466f836cb696f,62b2ac39afe45ccc6007968c,2022-06-22_24h45.00.255,Colour_Asymmetry_Pilot,2022.1.3,MacIntel,59.99880002,62b2a6a25f2ba72662469a01,,,,,,,,,,,,,,,,,,,,,,,,,,,,,,,,,,,,,,,,,,,,,,,,,,,,,,,,,,,,,,,,,,,,,,,,,,,,,,,,,,,,,,,,,,,,,,,,,,,,,,,,,,,,,,,,,,,,,,,,,,,,,,,,,,,,,,,,,,,,,,,,,,,,,,,,,,,,,,
0,23,23,76,1,,613a50aa648466f836cb696f,62b2ac39afe45ccc6007968c,2022-06-22_24h45.00.255,Colour_Asymmetry_Pilot,2022.1.3,MacIntel,59.99880002,62b2a6a25f2ba72662469a01,,,,,,,,,,,,,,,,,,,,,,,,,,,,,,,,,,,,,,,,,,,,,,,,,,,,,,,,,,,,,,,,,,,,,,,,,,,,,,,,,,,,,,,,,,,,,,,,,,,,,,,,,,,,,,,,,,,,,,,,,,,,,,,,,,,,,,,,,,,,,,,,,,,,,,,,,,,,,,
0,24,24,56,1,,613a50aa648466f836cb696f,62b2ac39afe45ccc6007968c,2022-06-22_24h45.00.255,Colour_Asymmetry_Pilot,2022.1.3,MacIntel,59.99880002,62b2a6a25f2ba72662469a01,,,,,,,,,,,,,,,,,,,,,,,,,,,,,,,,,,,,,,,,,,,,,,,,,,,,,,,,,,,,,,,,,,,,,,,,,,,,,,,,,,,,,,,,,,,,,,,,,,,,,,,,,,,,,,,,,,,,,,,,,,,,,,,,,,,,,,,,,,,,,,,,,,,,,,,,,,,,,,
0,25,25,48,1,,613a50aa648466f836cb696f,62b2ac39afe45ccc6007968c,2022-06-22_24h45.00.255,Colour_Asymmetry_Pilot,2022.1.3,MacIntel,59.99880002,62b2a6a25f2ba72662469a01,,,,,,,,,,,,,,,,,,,,,,,,,,,,,,,,,,,,,,,,,,,,,,,,,,,,,,,,,,,,,,,,,,,,,,,,,,,,,,,,,,,,,,,,,,,,,,,,,,,,,,,,,,,,,,,,,,,,,,,,,,,,,,,,,,,,,,,,,,,,,,,,,,,,,,,,,,,,,,
0,26,26,11,1,,613a50aa648466f836cb696f,62b2ac39afe45ccc6007968c,2022-06-22_24h45.00.255,Colour_Asymmetry_Pilot,2022.1.3,MacIntel,59.99880002,62b2a6a25f2ba72662469a01,,,,,,,,,,,,,,,,,,,,,,,,,,,,,,,,,,,,,,,,,,,,,,,,,,,,,,,,,,,,,,,,,,,,,,,,,,,,,,,,,,,,,,,,,,,,,,,,,,,,,,,,,,,,,,,,,,,,,,,,,,,,,,,,,,,,,,,,,,,,,,,,,,,,,,,,,,,,,,
0,27,27,10,1,,613a50aa648466f836cb696f,62b2ac39afe45ccc6007968c,2022-06-22_24h45.00.255,Colour_Asymmetry_Pilot,2022.1.3,MacIntel,59.99880002,62b2a6a25f2ba72662469a01,,,,,,,,,,,,,,,,,,,,,,,,,,,,,,,,,,,,,,,,,,,,,,,,,,,,,,,,,,,,,,,,,,,,,,,,,,,,,,,,,,,,,,,,,,,,,,,,,,,,,,,,,,,,,,,,,,,,,,,,,,,,,,,,,,,,,,,,,,,,,,,,,,,,,,,,,,,,,,
0,28,28,80,1,,613a50aa648466f836cb696f,62b2ac39afe45ccc6007968c,2022-06-22_24h45.00.255,Colour_Asymmetry_Pilot,2022.1.3,MacIntel,59.99880002,62b2a6a25f2ba72662469a01,,,,,,,,,,,,,,,,,,,,,,,,,,,,,,,,,,,,,,,,,,,,,,,,,,,,,,,,,,,,,,,,,,,,,,,,,,,,,,,,,,,,,,,,,,,,,,,,,,,,,,,,,,,,,,,,,,,,,,,,,,,,,,,,,,,,,,,,,,,,,,,,,,,,,,,,,,,,,,
0,29,29,79,1,,613a50aa648466f836cb696f,62b2ac39afe45ccc6007968c,2022-06-22_24h45.00.255,Colour_Asymmetry_Pilot,2022.1.3,MacIntel,59.99880002,62b2a6a25f2ba72662469a01,,,,,,,,,,,,,,,,,,,,,,,,,,,,,,,,,,,,,,,,,,,,,,,,,,,,,,,,,,,,,,,,,,,,,,,,,,,,,,,,,,,,,,,,,,,,,,,,,,,,,,,,,,,,,,,,,,,,,,,,,,,,,,,,,,,,,,,,,,,,,,,,,,,,,,,,,,,,,,
0,30,30,46,1,,613a50aa648466f836cb696f,62b2ac39afe45ccc6007968c,2022-06-22_24h45.00.255,Colour_Asymmetry_Pilot,2022.1.3,MacIntel,59.99880002,62b2a6a25f2ba72662469a01,,,,,,,,,,,,,,,,,,,,,,,,,,,,,,,,,,,,,,,,,,,,,,,,,,,,,,,,,,,,,,,,,,,,,,,,,,,,,,,,,,,,,,,,,,,,,,,,,,,,,,,,,,,,,,,,,,,,,,,,,,,,,,,,,,,,,,,,,,,,,,,,,,,,,,,,,,,,,,
0,31,31,75,1,,613a50aa648466f836cb696f,62b2ac39afe45ccc6007968c,2022-06-22_24h45.00.255,Colour_Asymmetry_Pilot,2022.1.3,MacIntel,59.99880002,62b2a6a25f2ba72662469a01,,,,,,,,,,,,,,,,,,,,,,,,,,,,,,,,,,,,,,,,,,,,,,,,,,,,,,,,,,,,,,,,,,,,,,,,,,,,,,,,,,,,,,,,,,,,,,,,,,,,,,,,,,,,,,,,,,,,,,,,,,,,,,,,,,,,,,,,,,,,,,,,,,,,,,,,,,,,,,
0,32,32,31,1,,613a50aa648466f836cb696f,62b2ac39afe45ccc6007968c,2022-06-22_24h45.00.255,Colour_Asymmetry_Pilot,2022.1.3,MacIntel,59.99880002,62b2a6a25f2ba72662469a01,,,,,,,,,,,,,,,,,,,,,,,,,,,,,,,,,,,,,,,,,,,,,,,,,,,,,,,,,,,,,,,,,,,,,,,,,,,,,,,,,,,,,,,,,,,,,,,,,,,,,,,,,,,,,,,,,,,,,,,,,,,,,,,,,,,,,,,,,,,,,,,,,,,,,,,,,,,,,,
0,33,33,15,1,,613a50aa648466f836cb696f,62b2ac39afe45ccc6007968c,2022-06-22_24h45.00.255,Colour_Asymmetry_Pilot,2022.1.3,MacIntel,59.99880002,62b2a6a25f2ba72662469a01,,,,,,,,,,,,,,,,,,,,,,,,,,,,,,,,,,,,,,,,,,,,,,,,,,,,,,,,,,,,,,,,,,,,,,,,,,,,,,,,,,,,,,,,,,,,,,,,,,,,,,,,,,,,,,,,,,,,,,,,,,,,,,,,,,,,,,,,,,,,,,,,,,,,,,,,,,,,,,
0,34,34,58,1,,613a50aa648466f836cb696f,62b2ac39afe45ccc6007968c,2022-06-22_24h45.00.255,Colour_Asymmetry_Pilot,2022.1.3,MacIntel,59.99880002,62b2a6a25f2ba72662469a01,,,,,,,,,,,,,,,,,,,,,,,,,,,,,,,,,,,,,,,,,,,,,,,,,,,,,,,,,,,,,,,,,,,,,,,,,,,,,,,,,,,,,,,,,,,,,,,,,,,,,,,,,,,,,,,,,,,,,,,,,,,,,,,,,,,,,,,,,,,,,,,,,,,,,,,,,,,,,,
0,35,35,92,1,,613a50aa648466f836cb696f,62b2ac39afe45ccc6007968c,2022-06-22_24h45.00.255,Colour_Asymmetry_Pilot,2022.1.3,MacIntel,59.99880002,62b2a6a25f2ba72662469a01,,,,,,,,,,,,,,,,,,,,,,,,,,,,,,,,,,,,,,,,,,,,,,,,,,,,,,,,,,,,,,,,,,,,,,,,,,,,,,,,,,,,,,,,,,,,,,,,,,,,,,,,,,,,,,,,,,,,,,,,,,,,,,,,,,,,,,,,,,,,,,,,,,,,,,,,,,,,,,
0,36,36,53,1,,613a50aa648466f836cb696f,62b2ac39afe45ccc6007968c,2022-06-22_24h45.00.255,Colour_Asymmetry_Pilot,2022.1.3,MacIntel,59.99880002,62b2a6a25f2ba72662469a01,,,,,,,,,,,,,,,,,,,,,,,,,,,,,,,,,,,,,,,,,,,,,,,,,,,,,,,,,,,,,,,,,,,,,,,,,,,,,,,,,,,,,,,,,,,,,,,,,,,,,,,,,,,,,,,,,,,,,,,,,,,,,,,,,,,,,,,,,,,,,,,,,,,,,,,,,,,,,,
0,37,37,32,1,,613a50aa648466f836cb696f,62b2ac39afe45ccc6007968c,2022-06-22_24h45.00.255,Colour_Asymmetry_Pilot,2022.1.3,MacIntel,59.99880002,62b2a6a25f2ba72662469a01,,,,,,,,,,,,,,,,,,,,,,,,,,,,,,,,,,,,,,,,,,,,,,,,,,,,,,,,,,,,,,,,,,,,,,,,,,,,,,,,,,,,,,,,,,,,,,,,,,,,,,,,,,,,,,,,,,,,,,,,,,,,,,,,,,,,,,,,,,,,,,,,,,,,,,,,,,,,,,
0,38,38,61,1,,613a50aa648466f836cb696f,62b2ac39afe45ccc6007968c,2022-06-22_24h45.00.255,Colour_Asymmetry_Pilot,2022.1.3,MacIntel,59.99880002,62b2a6a25f2ba72662469a01,,,,,,,,,,,,,,,,,,,,,,,,,,,,,,,,,,,,,,,,,,,,,,,,,,,,,,,,,,,,,,,,,,,,,,,,,,,,,,,,,,,,,,,,,,,,,,,,,,,,,,,,,,,,,,,,,,,,,,,,,,,,,,,,,,,,,,,,,,,,,,,,,,,,,,,,,,,,,,
0,39,39,90,1,,613a50aa648466f836cb696f,62b2ac39afe45ccc6007968c,2022-06-22_24h45.00.255,Colour_Asymmetry_Pilot,2022.1.3,MacIntel,59.99880002,62b2a6a25f2ba72662469a01,,,,,,,,,,,,,,,,,,,,,,,,,,,,,,,,,,,,,,,,,,,,,,,,,,,,,,,,,,,,,,,,,,,,,,,,,,,,,,,,,,,,,,,,,,,,,,,,,,,,,,,,,,,,,,,,,,,,,,,,,,,,,,,,,,,,,,,,,,,,,,,,,,,,,,,,,,,,,,
0,40,40,4,1,,613a50aa648466f836cb696f,62b2ac39afe45ccc6007968c,2022-06-22_24h45.00.255,Colour_Asymmetry_Pilot,2022.1.3,MacIntel,59.99880002,62b2a6a25f2ba72662469a01,,,,,,,,,,,,,,,,,,,,,,,,,,,,,,,,,,,,,,,,,,,,,,,,,,,,,,,,,,,,,,,,,,,,,,,,,,,,,,,,,,,,,,,,,,,,,,,,,,,,,,,,,,,,,,,,,,,,,,,,,,,,,,,,,,,,,,,,,,,,,,,,,,,,,,,,,,,,,,
0,41,41,60,1,,613a50aa648466f836cb696f,62b2ac39afe45ccc6007968c,2022-06-22_24h45.00.255,Colour_Asymmetry_Pilot,2022.1.3,MacIntel,59.99880002,62b2a6a25f2ba72662469a01,,,,,,,,,,,,,,,,,,,,,,,,,,,,,,,,,,,,,,,,,,,,,,,,,,,,,,,,,,,,,,,,,,,,,,,,,,,,,,,,,,,,,,,,,,,,,,,,,,,,,,,,,,,,,,,,,,,,,,,,,,,,,,,,,,,,,,,,,,,,,,,,,,,,,,,,,,,,,,
0,42,42,87,1,,613a50aa648466f836cb696f,62b2ac39afe45ccc6007968c,2022-06-22_24h45.00.255,Colour_Asymmetry_Pilot,2022.1.3,MacIntel,59.99880002,62b2a6a25f2ba72662469a01,,,,,,,,,,,,,,,,,,,,,,,,,,,,,,,,,,,,,,,,,,,,,,,,,,,,,,,,,,,,,,,,,,,,,,,,,,,,,,,,,,,,,,,,,,,,,,,,,,,,,,,,,,,,,,,,,,,,,,,,,,,,,,,,,,,,,,,,,,,,,,,,,,,,,,,,,,,,,,
0,43,43,44,1,,613a50aa648466f836cb696f,62b2ac39afe45ccc6007968c,2022-06-22_24h45.00.255,Colour_Asymmetry_Pilot,2022.1.3,MacIntel,59.99880002,62b2a6a25f2ba72662469a01,,,,,,,,,,,,,,,,,,,,,,,,,,,,,,,,,,,,,,,,,,,,,,,,,,,,,,,,,,,,,,,,,,,,,,,,,,,,,,,,,,,,,,,,,,,,,,,,,,,,,,,,,,,,,,,,,,,,,,,,,,,,,,,,,,,,,,,,,,,,,,,,,,,,,,,,,,,,,,
0,44,44,86,1,,613a50aa648466f836cb696f,62b2ac39afe45ccc6007968c,2022-06-22_24h45.00.255,Colour_Asymmetry_Pilot,2022.1.3,MacIntel,59.99880002,62b2a6a25f2ba72662469a01,,,,,,,,,,,,,,,,,,,,,,,,,,,,,,,,,,,,,,,,,,,,,,,,,,,,,,,,,,,,,,,,,,,,,,,,,,,,,,,,,,,,,,,,,,,,,,,,,,,,,,,,,,,,,,,,,,,,,,,,,,,,,,,,,,,,,,,,,,,,,,,,,,,,,,,,,,,,,,
0,45,45,7,1,,613a50aa648466f836cb696f,62b2ac39afe45ccc6007968c,2022-06-22_24h45.00.255,Colour_Asymmetry_Pilot,2022.1.3,MacIntel,59.99880002,62b2a6a25f2ba72662469a01,,,,,,,,,,,,,,,,,,,,,,,,,,,,,,,,,,,,,,,,,,,,,,,,,,,,,,,,,,,,,,,,,,,,,,,,,,,,,,,,,,,,,,,,,,,,,,,,,,,,,,,,,,,,,,,,,,,,,,,,,,,,,,,,,,,,,,,,,,,,,,,,,,,,,,,,,,,,,,
0,46,46,65,1,,613a50aa648466f836cb696f,62b2ac39afe45ccc6007968c,2022-06-22_24h45.00.255,Colour_Asymmetry_Pilot,2022.1.3,MacIntel,59.99880002,62b2a6a25f2ba72662469a01,,,,,,,,,,,,,,,,,,,,,,,,,,,,,,,,,,,,,,,,,,,,,,,,,,,,,,,,,,,,,,,,,,,,,,,,,,,,,,,,,,,,,,,,,,,,,,,,,,,,,,,,,,,,,,,,,,,,,,,,,,,,,,,,,,,,,,,,,,,,,,,,,,,,,,,,,,,,,,
0,47,47,34,1,,613a50aa648466f836cb696f,62b2ac39afe45ccc6007968c,2022-06-22_24h45.00.255,Colour_Asymmetry_Pilot,2022.1.3,MacIntel,59.99880002,62b2a6a25f2ba72662469a01,,,,,,,,,,,,,,,,,,,,,,,,,,,,,,,,,,,,,,,,,,,,,,,,,,,,,,,,,,,,,,,,,,,,,,,,,,,,,,,,,,,,,,,,,,,,,,,,,,,,,,,,,,,,,,,,,,,,,,,,,,,,,,,,,,,,,,,,,,,,,,,,,,,,,,,,,,,,,,
0,48,48,33,1,,613a50aa648466f836cb696f,62b2ac39afe45ccc6007968c,2022-06-22_24h45.00.255,Colour_Asymmetry_Pilot,2022.1.3,MacIntel,59.99880002,62b2a6a25f2ba72662469a01,,,,,,,,,,,,,,,,,,,,,,,,,,,,,,,,,,,,,,,,,,,,,,,,,,,,,,,,,,,,,,,,,,,,,,,,,,,,,,,,,,,,,,,,,,,,,,,,,,,,,,,,,,,,,,,,,,,,,,,,,,,,,,,,,,,,,,,,,,,,,,,,,,,,,,,,,,,,,,
0,49,49,63,1,,613a50aa648466f836cb696f,62b2ac39afe45ccc6007968c,2022-06-22_24h45.00.255,Colour_Asymmetry_Pilot,2022.1.3,MacIntel,59.99880002,62b2a6a25f2ba72662469a01,,,,,,,,,,,,,,,,,,,,,,,,,,,,,,,,,,,,,,,,,,,,,,,,,,,,,,,,,,,,,,,,,,,,,,,,,,,,,,,,,,,,,,,,,,,,,,,,,,,,,,,,,,,,,,,,,,,,,,,,,,,,,,,,,,,,,,,,,,,,,,,,,,,,,,,,,,,,,,
0,50,50,2,1,,613a50aa648466f836cb696f,62b2ac39afe45ccc6007968c,2022-06-22_24h45.00.255,Colour_Asymmetry_Pilot,2022.1.3,MacIntel,59.99880002,62b2a6a25f2ba72662469a01,,,,,,,,,,,,,,,,,,,,,,,,,,,,,,,,,,,,,,,,,,,,,,,,,,,,,,,,,,,,,,,,,,,,,,,,,,,,,,,,,,,,,,,,,,,,,,,,,,,,,,,,,,,,,,,,,,,,,,,,,,,,,,,,,,,,,,,,,,,,,,,,,,,,,,,,,,,,,,
0,51,51,1,1,,613a50aa648466f836cb696f,62b2ac39afe45ccc6007968c,2022-06-22_24h45.00.255,Colour_Asymmetry_Pilot,2022.1.3,MacIntel,59.99880002,62b2a6a25f2ba72662469a01,,,,,,,,,,,,,,,,,,,,,,,,,,,,,,,,,,,,,,,,,,,,,,,,,,,,,,,,,,,,,,,,,,,,,,,,,,,,,,,,,,,,,,,,,,,,,,,,,,,,,,,,,,,,,,,,,,,,,,,,,,,,,,,,,,,,,,,,,,,,,,,,,,,,,,,,,,,,,,
0,52,52,45,1,,613a50aa648466f836cb696f,62b2ac39afe45ccc6007968c,2022-06-22_24h45.00.255,Colour_Asymmetry_Pilot,2022.1.3,MacIntel,59.99880002,62b2a6a25f2ba72662469a01,,,,,,,,,,,,,,,,,,,,,,,,,,,,,,,,,,,,,,,,,,,,,,,,,,,,,,,,,,,,,,,,,,,,,,,,,,,,,,,,,,,,,,,,,,,,,,,,,,,,,,,,,,,,,,,,,,,,,,,,,,,,,,,,,,,,,,,,,,,,,,,,,,,,,,,,,,,,,,
0,53,53,54,1,,613a50aa648466f836cb696f,62b2ac39afe45ccc6007968c,2022-06-22_24h45.00.255,Colour_Asymmetry_Pilot,2022.1.3,MacIntel,59.99880002,62b2a6a25f2ba72662469a01,,,,,,,,,,,,,,,,,,,,,,,,,,,,,,,,,,,,,,,,,,,,,,,,,,,,,,,,,,,,,,,,,,,,,,,,,,,,,,,,,,,,,,,,,,,,,,,,,,,,,,,,,,,,,,,,,,,,,,,,,,,,,,,,,,,,,,,,,,,,,,,,,,,,,,,,,,,,,,
0,54,54,3,1,,613a50aa648466f836cb696f,62b2ac39afe45ccc6007968c,2022-06-22_24h45.00.255,Colour_Asymmetry_Pilot,2022.1.3,MacIntel,59.99880002,62b2a6a25f2ba72662469a01,,,,,,,,,,,,,,,,,,,,,,,,,,,,,,,,,,,,,,,,,,,,,,,,,,,,,,,,,,,,,,,,,,,,,,,,,,,,,,,,,,,,,,,,,,,,,,,,,,,,,,,,,,,,,,,,,,,,,,,,,,,,,,,,,,,,,,,,,,,,,,,,,,,,,,,,,,,,,,
0,55,55,51,1,,613a50aa648466f836cb696f,62b2ac39afe45ccc6007968c,2022-06-22_24h45.00.255,Colour_Asymmetry_Pilot,2022.1.3,MacIntel,59.99880002,62b2a6a25f2ba72662469a01,,,,,,,,,,,,,,,,,,,,,,,,,,,,,,,,,,,,,,,,,,,,,,,,,,,,,,,,,,,,,,,,,,,,,,,,,,,,,,,,,,,,,,,,,,,,,,,,,,,,,,,,,,,,,,,,,,,,,,,,,,,,,,,,,,,,,,,,,,,,,,,,,,,,,,,,,,,,,,
0,56,56,9,1,,613a50aa648466f836cb696f,62b2ac39afe45ccc6007968c,2022-06-22_24h45.00.255,Colour_Asymmetry_Pilot,2022.1.3,MacIntel,59.99880002,62b2a6a25f2ba72662469a01,,,,,,,,,,,,,,,,,,,,,,,,,,,,,,,,,,,,,,,,,,,,,,,,,,,,,,,,,,,,,,,,,,,,,,,,,,,,,,,,,,,,,,,,,,,,,,,,,,,,,,,,,,,,,,,,,,,,,,,,,,,,,,,,,,,,,,,,,,,,,,,,,,,,,,,,,,,,,,
0,57,57,16,1,,613a50aa648466f836cb696f,62b2ac39afe45ccc6007968c,2022-06-22_24h45.00.255,Colour_Asymmetry_Pilot,2022.1.3,MacIntel,59.99880002,62b2a6a25f2ba72662469a01,,,,,,,,,,,,,,,,,,,,,,,,,,,,,,,,,,,,,,,,,,,,,,,,,,,,,,,,,,,,,,,,,,,,,,,,,,,,,,,,,,,,,,,,,,,,,,,,,,,,,,,,,,,,,,,,,,,,,,,,,,,,,,,,,,,,,,,,,,,,,,,,,,,,,,,,,,,,,,
0,58,58,55,1,,613a50aa648466f836cb696f,62b2ac39afe45ccc6007968c,2022-06-22_24h45.00.255,Colour_Asymmetry_Pilot,2022.1.3,MacIntel,59.99880002,62b2a6a25f2ba72662469a01,,,,,,,,,,,,,,,,,,,,,,,,,,,,,,,,,,,,,,,,,,,,,,,,,,,,,,,,,,,,,,,,,,,,,,,,,,,,,,,,,,,,,,,,,,,,,,,,,,,,,,,,,,,,,,,,,,,,,,,,,,,,,,,,,,,,,,,,,,,,,,,,,,,,,,,,,,,,,,
0,59,59,5,1,,613a50aa648466f836cb696f,62b2ac39afe45ccc6007968c,2022-06-22_24h45.00.255,Colour_Asymmetry_Pilot,2022.1.3,MacIntel,59.99880002,62b2a6a25f2ba72662469a01,,,,,,,,,,,,,,,,,,,,,,,,,,,,,,,,,,,,,,,,,,,,,,,,,,,,,,,,,,,,,,,,,,,,,,,,,,,,,,,,,,,,,,,,,,,,,,,,,,,,,,,,,,,,,,,,,,,,,,,,,,,,,,,,,,,,,,,,,,,,,,,,,,,,,,,,,,,,,,
0,60,60,17,1,,613a50aa648466f836cb696f,62b2ac39afe45ccc6007968c,2022-06-22_24h45.00.255,Colour_Asymmetry_Pilot,2022.1.3,MacIntel,59.99880002,62b2a6a25f2ba72662469a01,,,,,,,,,,,,,,,,,,,,,,,,,,,,,,,,,,,,,,,,,,,,,,,,,,,,,,,,,,,,,,,,,,,,,,,,,,,,,,,,,,,,,,,,,,,,,,,,,,,,,,,,,,,,,,,,,,,,,,,,,,,,,,,,,,,,,,,,,,,,,,,,,,,,,,,,,,,,,,
0,61,61,6,1,,613a50aa648466f836cb696f,62b2ac39afe45ccc6007968c,2022-06-22_24h45.00.255,Colour_Asymmetry_Pilot,2022.1.3,MacIntel,59.99880002,62b2a6a25f2ba72662469a01,,,,,,,,,,,,,,,,,,,,,,,,,,,,,,,,,,,,,,,,,,,,,,,,,,,,,,,,,,,,,,,,,,,,,,,,,,,,,,,,,,,,,,,,,,,,,,,,,,,,,,,,,,,,,,,,,,,,,,,,,,,,,,,,,,,,,,,,,,,,,,,,,,,,,,,,,,,,,,
0,62,62,37,1,,613a50aa648466f836cb696f,62b2ac39afe45ccc6007968c,2022-06-22_24h45.00.255,Colour_Asymmetry_Pilot,2022.1.3,MacIntel,59.99880002,62b2a6a25f2ba72662469a01,,,,,,,,,,,,,,,,,,,,,,,,,,,,,,,,,,,,,,,,,,,,,,,,,,,,,,,,,,,,,,,,,,,,,,,,,,,,,,,,,,,,,,,,,,,,,,,,,,,,,,,,,,,,,,,,,,,,,,,,,,,,,,,,,,,,,,,,,,,,,,,,,,,,,,,,,,,,,,
0,63,63,83,1,,613a50aa648466f836cb696f,62b2ac39afe45ccc6007968c,2022-06-22_24h45.00.255,Colour_Asymmetry_Pilot,2022.1.3,MacIntel,59.99880002,62b2a6a25f2ba72662469a01,,,,,,,,,,,,,,,,,,,,,,,,,,,,,,,,,,,,,,,,,,,,,,,,,,,,,,,,,,,,,,,,,,,,,,,,,,,,,,,,,,,,,,,,,,,,,,,,,,,,,,,,,,,,,,,,,,,,,,,,,,,,,,,,,,,,,,,,,,,,,,,,,,,,,,,,,,,,,,
0,64,64,89,1,,613a50aa648466f836cb696f,62b2ac39afe45ccc6007968c,2022-06-22_24h45.00.255,Colour_Asymmetry_Pilot,2022.1.3,MacIntel,59.99880002,62b2a6a25f2ba72662469a01,,,,,,,,,,,,,,,,,,,,,,,,,,,,,,,,,,,,,,,,,,,,,,,,,,,,,,,,,,,,,,,,,,,,,,,,,,,,,,,,,,,,,,,,,,,,,,,,,,,,,,,,,,,,,,,,,,,,,,,,,,,,,,,,,,,,,,,,,,,,,,,,,,,,,,,,,,,,,,
0,65,65,84,1,,613a50aa648466f836cb696f,62b2ac39afe45ccc6007968c,2022-06-22_24h45.00.255,Colour_Asymmetry_Pilot,2022.1.3,MacIntel,59.99880002,62b2a6a25f2ba72662469a01,,,,,,,,,,,,,,,,,,,,,,,,,,,,,,,,,,,,,,,,,,,,,,,,,,,,,,,,,,,,,,,,,,,,,,,,,,,,,,,,,,,,,,,,,,,,,,,,,,,,,,,,,,,,,,,,,,,,,,,,,,,,,,,,,,,,,,,,,,,,,,,,,,,,,,,,,,,,,,
0,66,66,42,1,,613a50aa648466f836cb696f,62b2ac39afe45ccc6007968c,2022-06-22_24h45.00.255,Colour_Asymmetry_Pilot,2022.1.3,MacIntel,59.99880002,62b2a6a25f2ba72662469a01,,,,,,,,,,,,,,,,,,,,,,,,,,,,,,,,,,,,,,,,,,,,,,,,,,,,,,,,,,,,,,,,,,,,,,,,,,,,,,,,,,,,,,,,,,,,,,,,,,,,,,,,,,,,,,,,,,,,,,,,,,,,,,,,,,,,,,,,,,,,,,,,,,,,,,,,,,,,,,
0,67,67,43,1,,613a50aa648466f836cb696f,62b2ac39afe45ccc6007968c,2022-06-22_24h45.00.255,Colour_Asymmetry_Pilot,2022.1.3,MacIntel,59.99880002,62b2a6a25f2ba72662469a01,,,,,,,,,,,,,,,,,,,,,,,,,,,,,,,,,,,,,,,,,,,,,,,,,,,,,,,,,,,,,,,,,,,,,,,,,,,,,,,,,,,,,,,,,,,,,,,,,,,,,,,,,,,,,,,,,,,,,,,,,,,,,,,,,,,,,,,,,,,,,,,,,,,,,,,,,,,,,,
0,68,68,36,1,,613a50aa648466f836cb696f,62b2ac39afe45ccc6007968c,2022-06-22_24h45.00.255,Colour_Asymmetry_Pilot,2022.1.3,MacIntel,59.99880002,62b2a6a25f2ba72662469a01,,,,,,,,,,,,,,,,,,,,,,,,,,,,,,,,,,,,,,,,,,,,,,,,,,,,,,,,,,,,,,,,,,,,,,,,,,,,,,,,,,,,,,,,,,,,,,,,,,,,,,,,,,,,,,,,,,,,,,,,,,,,,,,,,,,,,,,,,,,,,,,,,,,,,,,,,,,,,,
0,69,69,74,1,,613a50aa648466f836cb696f,62b2ac39afe45ccc6007968c,2022-06-22_24h45.00.255,Colour_Asymmetry_Pilot,2022.1.3,MacIntel,59.99880002,62b2a6a25f2ba72662469a01,,,,,,,,,,,,,,,,,,,,,,,,,,,,,,,,,,,,,,,,,,,,,,,,,,,,,,,,,,,,,,,,,,,,,,,,,,,,,,,,,,,,,,,,,,,,,,,,,,,,,,,,,,,,,,,,,,,,,,,,,,,,,,,,,,,,,,,,,,,,,,,,,,,,,,,,,,,,,,
0,70,70,12,1,,613a50aa648466f836cb696f,62b2ac39afe45ccc6007968c,2022-06-22_24h45.00.255,Colour_Asymmetry_Pilot,2022.1.3,MacIntel,59.99880002,62b2a6a25f2ba72662469a01,,,,,,,,,,,,,,,,,,,,,,,,,,,,,,,,,,,,,,,,,,,,,,,,,,,,,,,,,,,,,,,,,,,,,,,,,,,,,,,,,,,,,,,,,,,,,,,,,,,,,,,,,,,,,,,,,,,,,,,,,,,,,,,,,,,,,,,,,,,,,,,,,,,,,,,,,,,,,,
0,71,71,20,1,,613a50aa648466f836cb696f,62b2ac39afe45ccc6007968c,2022-06-22_24h45.00.255,Colour_Asymmetry_Pilot,2022.1.3,MacIntel,59.99880002,62b2a6a25f2ba72662469a01,,,,,,,,,,,,,,,,,,,,,,,,,,,,,,,,,,,,,,,,,,,,,,,,,,,,,,,,,,,,,,,,,,,,,,,,,,,,,,,,,,,,,,,,,,,,,,,,,,,,,,,,,,,,,,,,,,,,,,,,,,,,,,,,,,,,,,,,,,,,,,,,,,,,,,,,,,,,,,
0,72,72,62,1,,613a50aa648466f836cb696f,62b2ac39afe45ccc6007968c,2022-06-22_24h45.00.255,Colour_Asymmetry_Pilot,2022.1.3,MacIntel,59.99880002,62b2a6a25f2ba72662469a01,,,,,,,,,,,,,,,,,,,,,,,,,,,,,,,,,,,,,,,,,,,,,,,,,,,,,,,,,,,,,,,,,,,,,,,,,,,,,,,,,,,,,,,,,,,,,,,,,,,,,,,,,,,,,,,,,,,,,,,,,,,,,,,,,,,,,,,,,,,,,,,,,,,,,,,,,,,,,,
0,73,73,52,1,,613a50aa648466f836cb696f,62b2ac39afe45ccc6007968c,2022-06-22_24h45.00.255,Colour_Asymmetry_Pilot,2022.1.3,MacIntel,59.99880002,62b2a6a25f2ba72662469a01,,,,,,,,,,,,,,,,,,,,,,,,,,,,,,,,,,,,,,,,,,,,,,,,,,,,,,,,,,,,,,,,,,,,,,,,,,,,,,,,,,,,,,,,,,,,,,,,,,,,,,,,,,,,,,,,,,,,,,,,,,,,,,,,,,,,,,,,,,,,,,,,,,,,,,,,,,,,,,
0,74,74,26,1,,613a50aa648466f836cb696f,62b2ac39afe45ccc6007968c,2022-06-22_24h45.00.255,Colour_Asymmetry_Pilot,2022.1.3,MacIntel,59.99880002,62b2a6a25f2ba72662469a01,,,,,,,,,,,,,,,,,,,,,,,,,,,,,,,,,,,,,,,,,,,,,,,,,,,,,,,,,,,,,,,,,,,,,,,,,,,,,,,,,,,,,,,,,,,,,,,,,,,,,,,,,,,,,,,,,,,,,,,,,,,,,,,,,,,,,,,,,,,,,,,,,,,,,,,,,,,,,,
0,75,75,91,1,,613a50aa648466f836cb696f,62b2ac39afe45ccc6007968c,2022-06-22_24h45.00.255,Colour_Asymmetry_Pilot,2022.1.3,MacIntel,59.99880002,62b2a6a25f2ba72662469a01,,,,,,,,,,,,,,,,,,,,,,,,,,,,,,,,,,,,,,,,,,,,,,,,,,,,,,,,,,,,,,,,,,,,,,,,,,,,,,,,,,,,,,,,,,,,,,,,,,,,,,,,,,,,,,,,,,,,,,,,,,,,,,,,,,,,,,,,,,,,,,,,,,,,,,,,,,,,,,
0,76,76,35,1,,613a50aa648466f836cb696f,62b2ac39afe45ccc6007968c,2022-06-22_24h45.00.255,Colour_Asymmetry_Pilot,2022.1.3,MacIntel,59.99880002,62b2a6a25f2ba72662469a01,,,,,,,,,,,,,,,,,,,,,,,,,,,,,,,,,,,,,,,,,,,,,,,,,,,,,,,,,,,,,,,,,,,,,,,,,,,,,,,,,,,,,,,,,,,,,,,,,,,,,,,,,,,,,,,,,,,,,,,,,,,,,,,,,,,,,,,,,,,,,,,,,,,,,,,,,,,,,,
0,77,77,85,1,,613a50aa648466f836cb696f,62b2ac39afe45ccc6007968c,2022-06-22_24h45.00.255,Colour_Asymmetry_Pilot,2022.1.3,MacIntel,59.99880002,62b2a6a25f2ba72662469a01,,,,,,,,,,,,,,,,,,,,,,,,,,,,,,,,,,,,,,,,,,,,,,,,,,,,,,,,,,,,,,,,,,,,,,,,,,,,,,,,,,,,,,,,,,,,,,,,,,,,,,,,,,,,,,,,,,,,,,,,,,,,,,,,,,,,,,,,,,,,,,,,,,,,,,,,,,,,,,
0,78,78,81,1,,613a50aa648466f836cb696f,62b2ac39afe45ccc6007968c,2022-06-22_24h45.00.255,Colour_Asymmetry_Pilot,2022.1.3,MacIntel,59.99880002,62b2a6a25f2ba72662469a01,,,,,,,,,,,,,,,,,,,,,,,,,,,,,,,,,,,,,,,,,,,,,,,,,,,,,,,,,,,,,,,,,,,,,,,,,,,,,,,,,,,,,,,,,,,,,,,,,,,,,,,,,,,,,,,,,,,,,,,,,,,,,,,,,,,,,,,,,,,,,,,,,,,,,,,,,,,,,,
0,79,79,57,1,,613a50aa648466f836cb696f,62b2ac39afe45ccc6007968c,2022-06-22_24h45.00.255,Colour_Asymmetry_Pilot,2022.1.3,MacIntel,59.99880002,62b2a6a25f2ba72662469a01,,,,,,,,,,,,,,,,,,,,,,,,,,,,,,,,,,,,,,,,,,,,,,,,,,,,,,,,,,,,,,,,,,,,,,,,,,,,,,,,,,,,,,,,,,,,,,,,,,,,,,,,,,,,,,,,,,,,,,,,,,,,,,,,,,,,,,,,,,,,,,,,,,,,,,,,,,,,,,
0,80,80,23,1,,613a50aa648466f836cb696f,62b2ac39afe45ccc6007968c,2022-06-22_24h45.00.255,Colour_Asymmetry_Pilot,2022.1.3,MacIntel,59.99880002,62b2a6a25f2ba72662469a01,,,,,,,,,,,,,,,,,,,,,,,,,,,,,,,,,,,,,,,,,,,,,,,,,,,,,,,,,,,,,,,,,,,,,,,,,,,,,,,,,,,,,,,,,,,,,,,,,,,,,,,,,,,,,,,,,,,,,,,,,,,,,,,,,,,,,,,,,,,,,,,,,,,,,,,,,,,,,,
0,81,81,39,1,,613a50aa648466f836cb696f,62b2ac39afe45ccc6007968c,2022-06-22_24h45.00.255,Colour_Asymmetry_Pilot,2022.1.3,MacIntel,59.99880002,62b2a6a25f2ba72662469a01,,,,,,,,,,,,,,,,,,,,,,,,,,,,,,,,,,,,,,,,,,,,,,,,,,,,,,,,,,,,,,,,,,,,,,,,,,,,,,,,,,,,,,,,,,,,,,,,,,,,,,,,,,,,,,,,,,,,,,,,,,,,,,,,,,,,,,,,,,,,,,,,,,,,,,,,,,,,,,
0,82,82,50,1,,613a50aa648466f836cb696f,62b2ac39afe45ccc6007968c,2022-06-22_24h45.00.255,Colour_Asymmetry_Pilot,2022.1.3,MacIntel,59.99880002,62b2a6a25f2ba72662469a01,,,,,,,,,,,,,,,,,,,,,,,,,,,,,,,,,,,,,,,,,,,,,,,,,,,,,,,,,,,,,,,,,,,,,,,,,,,,,,,,,,,,,,,,,,,,,,,,,,,,,,,,,,,,,,,,,,,,,,,,,,,,,,,,,,,,,,,,,,,,,,,,,,,,,,,,,,,,,,
0,83,83,14,1,,613a50aa648466f836cb696f,62b2ac39afe45ccc6007968c,2022-06-22_24h45.00.255,Colour_Asymmetry_Pilot,2022.1.3,MacIntel,59.99880002,62b2a6a25f2ba72662469a01,,,,,,,,,,,,,,,,,,,,,,,,,,,,,,,,,,,,,,,,,,,,,,,,,,,,,,,,,,,,,,,,,,,,,,,,,,,,,,,,,,,,,,,,,,,,,,,,,,,,,,,,,,,,,,,,,,,,,,,,,,,,,,,,,,,,,,,,,,,,,,,,,,,,,,,,,,,,,,
0,84,84,82,1,,613a50aa648466f836cb696f,62b2ac39afe45ccc6007968c,2022-06-22_24h45.00.255,Colour_Asymmetry_Pilot,2022.1.3,MacIntel,59.99880002,62b2a6a25f2ba72662469a01,,,,,,,,,,,,,,,,,,,,,,,,,,,,,,,,,,,,,,,,,,,,,,,,,,,,,,,,,,,,,,,,,,,,,,,,,,,,,,,,,,,,,,,,,,,,,,,,,,,,,,,,,,,,,,,,,,,,,,,,,,,,,,,,,,,,,,,,,,,,,,,,,,,,,,,,,,,,,,
0,85,85,29,1,,613a50aa648466f836cb696f,62b2ac39afe45ccc6007968c,2022-06-22_24h45.00.255,Colour_Asymmetry_Pilot,2022.1.3,MacIntel,59.99880002,62b2a6a25f2ba72662469a01,,,,,,,,,,,,,,,,,,,,,,,,,,,,,,,,,,,,,,,,,,,,,,,,,,,,,,,,,,,,,,,,,,,,,,,,,,,,,,,,,,,,,,,,,,,,,,,,,,,,,,,,,,,,,,,,,,,,,,,,,,,,,,,,,,,,,,,,,,,,,,,,,,,,,,,,,,,,,,
0,86,86,13,1,,613a50aa648466f836cb696f,62b2ac39afe45ccc6007968c,2022-06-22_24h45.00.255,Colour_Asymmetry_Pilot,2022.1.3,MacIntel,59.99880002,62b2a6a25f2ba72662469a01,,,,,,,,,,,,,,,,,,,,,,,,,,,,,,,,,,,,,,,,,,,,,,,,,,,,,,,,,,,,,,,,,,,,,,,,,,,,,,,,,,,,,,,,,,,,,,,,,,,,,,,,,,,,,,,,,,,,,,,,,,,,,,,,,,,,,,,,,,,,,,,,,,,,,,,,,,,,,,
0,87,87,30,1,,613a50aa648466f836cb696f,62b2ac39afe45ccc6007968c,2022-06-22_24h45.00.255,Colour_Asymmetry_Pilot,2022.1.3,MacIntel,59.99880002,62b2a6a25f2ba72662469a01,,,,,,,,,,,,,,,,,,,,,,,,,,,,,,,,,,,,,,,,,,,,,,,,,,,,,,,,,,,,,,,,,,,,,,,,,,,,,,,,,,,,,,,,,,,,,,,,,,,,,,,,,,,,,,,,,,,,,,,,,,,,,,,,,,,,,,,,,,,,,,,,,,,,,,,,,,,,,,
0,88,88,49,1,,613a50aa648466f836cb696f,62b2ac39afe45ccc6007968c,2022-06-22_24h45.00.255,Colour_Asymmetry_Pilot,2022.1.3,MacIntel,59.99880002,62b2a6a25f2ba72662469a01,,,,,,,,,,,,,,,,,,,,,,,,,,,,,,,,,,,,,,,,,,,,,,,,,,,,,,,,,,,,,,,,,,,,,,,,,,,,,,,,,,,,,,,,,,,,,,,,,,,,,,,,,,,,,,,,,,,,,,,,,,,,,,,,,,,,,,,,,,,,,,,,,,,,,,,,,,,,,,
0,89,89,59,1,,613a50aa648466f836cb696f,62b2ac39afe45ccc6007968c,2022-06-22_24h45.00.255,Colour_Asymmetry_Pilot,2022.1.3,MacIntel,59.99880002,62b2a6a25f2ba72662469a01,,,,,,,,,,,,,,,,,,,,,,,,,,,,,,,,,,,,,,,,,,,,,,,,,,,,,,,,,,,,,,,,,,,,,,,,,,,,,,,,,,,,,,,,,,,,,,,,,,,,,,,,,,,,,,,,,,,,,,,,,,,,,,,,,,,,,,,,,,,,,,,,,,,,,,,,,,,,,,
0,90,90,73,1,,613a50aa648466f836cb696f,62b2ac39afe45ccc6007968c,2022-06-22_24h45.00.255,Colour_Asymmetry_Pilot,2022.1.3,MacIntel,59.99880002,62b2a6a25f2ba72662469a01,,,,,,,,,,,,,,,,,,,,,,,,,,,,,,,,,,,,,,,,,,,,,,,,,,,,,,,,,,,,,,,,,,,,,,,,,,,,,,,,,,,,,,,,,,,,,,,,,,,,,,,,,,,,,,,,,,,,,,,,,,,,,,,,,,,,,,,,,,,,,,,,,,,,,,,,,,,,,,
0,91,91,19,1,,613a50aa648466f836cb696f,62b2ac39afe45ccc6007968c,2022-06-22_24h45.00.255,Colour_Asymmetry_Pilot,2022.1.3,MacIntel,59.99880002,62b2a6a25f2ba72662469a01,,,,,,,,,,,,,,,,,,,,,,,,,,,,,,,,,,,,,,,,,,,,,,,,,,,,,,,,,,,,,,,,,,,,,,,,,,,,,,,,,,,,,,,,,,,,,,,,,,,,,,,,,,,,,,,,,,,,,,,,,,,,,,,,,,,,,,,,,,,,,,,,,,,,,,,,,,,,,,
0,92,92,67,1,,613a50aa648466f836cb696f,62b2ac39afe45ccc6007968c,2022-06-22_24h45.00.255,Colour_Asymmetry_Pilot,2022.1.3,MacIntel,59.99880002,62b2a6a25f2ba72662469a01,,,,,,,,,,,,,,,,,,,,,,,,,,,,,,,,,,,,,,,,,,,,,,,,,,,,,,,,,,,,,,,,,,,,,,,,,,,,,,,,,,,,,,,,,,,,,,,,,,,,,,,,,,,,,,,,,,,,,,,,,,,,,,,,,,,,,,,,,,,,,,,,,,,,,,,,,,,,,,
,,,,,,613a50aa648466f836cb696f,62b2ac39afe45ccc6007968c,2022-06-22_24h45.00.255,Colour_Asymmetry_Pilot,2022.1.3,MacIntel,59.99880002,62b2a6a25f2ba72662469a01,0,0,0,90,1,twoone,,,,,,,,,,,,,,,,,,,,,,,,,,,,,,,,,,,,,,,,,,,,,,,,,,,,,,,,,,,,,,,,,,,,,,,,,,,,,,,,,,,,,,,,,,,,,,,,,,,,,,,,,,,,,,,,,,,,,,,,,,,,,,,,,,,,,,,,,,,,,,,,,,,,,,,,
,,,,,,613a50aa648466f836cb696f,62b2ac39afe45ccc6007968c,2022-06-22_24h45.00.255,Colour_Asymmetry_Pilot,2022.1.3,MacIntel,59.99880002,62b2a6a25f2ba72662469a01,0,1,1,6,1,fourtwo,,,,,,,,,,,,,,,,,,,,,,,,,,,,,,,,,,,,,,,,,,,,,,,,,,,,,,,,,,,,,,,,,,,,,,,,,,,,,,,,,,,,,,,,,,,,,,,,,,,,,,,,,,,,,,,,,,,,,,,,,,,,,,,,,,,,,,,,,,,,,,,,,,,,,,,,
,,,,,,613a50aa648466f836cb696f,62b2ac39afe45ccc6007968c,2022-06-22_24h45.00.255,Colour_Asymmetry_Pilot,2022.1.3,MacIntel,59.99880002,62b2a6a25f2ba72662469a01,0,2,2,15,1,fourthree,,,,,,,,,,,,,,,,,,,,,,,,,,,,,,,,,,,,,,,,,,,,,,,,,,,,,,,,,,,,,,,,,,,,,,,,,,,,,,,,,,,,,,,,,,,,,,,,,,,,,,,,,,,,,,,,,,,,,,,,,,,,,,,,,,,,,,,,,,,,,,,,,,,,,,,,
,,,,,,613a50aa648466f836cb696f,62b2ac39afe45ccc6007968c,2022-06-22_24h45.00.255,Colour_Asymmetry_Pilot,2022.1.3,MacIntel,59.99880002,62b2a6a25f2ba72662469a01,0,3,3,81,1,onethree,,,,,,,,,,,,,,,,,,,,,,,,,,,,,,,,,,,,,,,,,,,,,,,,,,,,,,,,,,,,,,,,,,,,,,,,,,,,,,,,,,,,,,,,,,,,,,,,,,,,,,,,,,,,,,,,,,,,,,,,,,,,,,,,,,,,,,,,,,,,,,,,,,,,,,,,
,,,,,,613a50aa648466f836cb696f,62b2ac39afe45ccc6007968c,2022-06-22_24h45.00.255,Colour_Asymmetry_Pilot,2022.1.3,MacIntel,59.99880002,62b2a6a25f2ba72662469a01,0,4,4,55,1,fourthree,,,,,,,,,,,,,,,,,,,,,,,,,,,,,,,,,,,,,,,,,,,,,,,,,,,,,,,,,,,,,,,,,,,,,,,,,,,,,,,,,,,,,,,,,,,,,,,,,,,,,,,,,,,,,,,,,,,,,,,,,,,,,,,,,,,,,,,,,,,,,,,,,,,,,,,,
,,,,,,613a50aa648466f836cb696f,62b2ac39afe45ccc6007968c,2022-06-22_24h45.00.255,Colour_Asymmetry_Pilot,2022.1.3,MacIntel,59.99880002,62b2a6a25f2ba72662469a01,0,5,5,138,1,twoone,,,,,,,,,,,,,,,,,,,,,,,,,,,,,,,,,,,,,,,,,,,,,,,,,,,,,,,,,,,,,,,,,,,,,,,,,,,,,,,,,,,,,,,,,,,,,,,,,,,,,,,,,,,,,,,,,,,,,,,,,,,,,,,,,,,,,,,,,,,,,,,,,,,,,,,,
,,,,,,613a50aa648466f836cb696f,62b2ac39afe45ccc6007968c,2022-06-22_24h45.00.255,Colour_Asymmetry_Pilot,2022.1.3,MacIntel,59.99880002,62b2a6a25f2ba72662469a01,0,6,6,50,1,twoone,,,,,,,,,,,,,,,,,,,,,,,,,,,,,,,,,,,,,,,,,,,,,,,,,,,,,,,,,,,,,,,,,,,,,,,,,,,,,,,,,,,,,,,,,,,,,,,,,,,,,,,,,,,,,,,,,,,,,,,,,,,,,,,,,,,,,,,,,,,,,,,,,,,,,,,,
,,,,,,613a50aa648466f836cb696f,62b2ac39afe45ccc6007968c,2022-06-22_24h45.00.255,Colour_Asymmetry_Pilot,2022.1.3,MacIntel,59.99880002,62b2a6a25f2ba72662469a01,0,7,7,159,1,fourthree,,,,,,,,,,,,,,,,,,,,,,,,,,,,,,,,,,,,,,,,,,,,,,,,,,,,,,,,,,,,,,,,,,,,,,,,,,,,,,,,,,,,,,,,,,,,,,,,,,,,,,,,,,,,,,,,,,,,,,,,,,,,,,,,,,,,,,,,,,,,,,,,,,,,,,,,
,,,,,,613a50aa648466f836cb696f,62b2ac39afe45ccc6007968c,2022-06-22_24h45.00.255,Colour_Asymmetry_Pilot,2022.1.3,MacIntel,59.99880002,62b2a6a25f2ba72662469a01,0,8,8,88,1,onetwo,,,,,,,,,,,,,,,,,,,,,,,,,,,,,,,,,,,,,,,,,,,,,,,,,,,,,,,,,,,,,,,,,,,,,,,,,,,,,,,,,,,,,,,,,,,,,,,,,,,,,,,,,,,,,,,,,,,,,,,,,,,,,,,,,,,,,,,,,,,,,,,,,,,,,,,,
,,,,,,613a50aa648466f836cb696f,62b2ac39afe45ccc6007968c,2022-06-22_24h45.00.255,Colour_Asymmetry_Pilot,2022.1.3,MacIntel,59.99880002,62b2a6a25f2ba72662469a01,0,9,9,77,1,threefour,,,,,,,,,,,,,,,,,,,,,,,,,,,,,,,,,,,,,,,,,,,,,,,,,,,,,,,,,,,,,,,,,,,,,,,,,,,,,,,,,,,,,,,,,,,,,,,,,,,,,,,,,,,,,,,,,,,,,,,,,,,,,,,,,,,,,,,,,,,,,,,,,,,,,,,,
,,,,,,613a50aa648466f836cb696f,62b2ac39afe45ccc6007968c,2022-06-22_24h45.00.255,Colour_Asymmetry_Pilot,2022.1.3,MacIntel,59.99880002,62b2a6a25f2ba72662469a01,0,10,10,122,1,twoone,,,,,,,,,,,,,,,,,,,,,,,,,,,,,,,,,,,,,,,,,,,,,,,,,,,,,,,,,,,,,,,,,,,,,,,,,,,,,,,,,,,,,,,,,,,,,,,,,,,,,,,,,,,,,,,,,,,,,,,,,,,,,,,,,,,,,,,,,,,,,,,,,,,,,,,,
,,,,,,613a50aa648466f836cb696f,62b2ac39afe45ccc6007968c,2022-06-22_24h45.00.255,Colour_Asymmetry_Pilot,2022.1.3,MacIntel,59.99880002,62b2a6a25f2ba72662469a01,0,11,11,128,1,onetwo,,,,,,,,,,,,,,,,,,,,,,,,,,,,,,,,,,,,,,,,,,,,,,,,,,,,,,,,,,,,,,,,,,,,,,,,,,,,,,,,,,,,,,,,,,,,,,,,,,,,,,,,,,,,,,,,,,,,,,,,,,,,,,,,,,,,,,,,,,,,,,,,,,,,,,,,
,,,,,,613a50aa648466f836cb696f,62b2ac39afe45ccc6007968c,2022-06-22_24h45.00.255,Colour_Asymmetry_Pilot,2022.1.3,MacIntel,59.99880002,62b2a6a25f2ba72662469a01,0,12,12,3,1,twofour,,,,,,,,,,,,,,,,,,,,,,,,,,,,,,,,,,,,,,,,,,,,,,,,,,,,,,,,,,,,,,,,,,,,,,,,,,,,,,,,,,,,,,,,,,,,,,,,,,,,,,,,,,,,,,,,,,,,,,,,,,,,,,,,,,,,,,,,,,,,,,,,,,,,,,,,
,,,,,,613a50aa648466f836cb696f,62b2ac39afe45ccc6007968c,2022-06-22_24h45.00.255,Colour_Asymmetry_Pilot,2022.1.3,MacIntel,59.99880002,62b2a6a25f2ba72662469a01,0,13,13,22,1,fourtwo,,,,,,,,,,,,,,,,,,,,,,,,,,,,,,,,,,,,,,,,,,,,,,,,,,,,,,,,,,,,,,,,,,,,,,,,,,,,,,,,,,,,,,,,,,,,,,,,,,,,,,,,,,,,,,,,,,,,,,,,,,,,,,,,,,,,,,,,,,,,,,,,,,,,,,,,
,,,,,,613a50aa648466f836cb696f,62b2ac39afe45ccc6007968c,2022-06-22_24h45.00.255,Colour_Asymmetry_Pilot,2022.1.3,MacIntel,59.99880002,62b2a6a25f2ba72662469a01,0,14,14,126,1,fourtwo,,,,,,,,,,,,,,,,,,,,,,,,,,,,,,,,,,,,,,,,,,,,,,,,,,,,,,,,,,,,,,,,,,,,,,,,,,,,,,,,,,,,,,,,,,,,,,,,,,,,,,,,,,,,,,,,,,,,,,,,,,,,,,,,,,,,,,,,,,,,,,,,,,,,,,,,
,,,,,,613a50aa648466f836cb696f,62b2ac39afe45ccc6007968c,2022-06-22_24h45.00.255,Colour_Asymmetry_Pilot,2022.1.3,MacIntel,59.99880002,62b2a6a25f2ba72662469a01,0,15,15,109,1,threefour,,,,,,,,,,,,,,,,,,,,,,,,,,,,,,,,,,,,,,,,,,,,,,,,,,,,,,,,,,,,,,,,,,,,,,,,,,,,,,,,,,,,,,,,,,,,,,,,,,,,,,,,,,,,,,,,,,,,,,,,,,,,,,,,,,,,,,,,,,,,,,,,,,,,,,,,
,,,,,,613a50aa648466f836cb696f,62b2ac39afe45ccc6007968c,2022-06-22_24h45.00.255,Colour_Asymmetry_Pilot,2022.1.3,MacIntel,59.99880002,62b2a6a25f2ba72662469a01,0,16,16,105,1,onethree,,,,,,,,,,,,,,,,,,,,,,,,,,,,,,,,,,,,,,,,,,,,,,,,,,,,,,,,,,,,,,,,,,,,,,,,,,,,,,,,,,,,,,,,,,,,,,,,,,,,,,,,,,,,,,,,,,,,,,,,,,,,,,,,,,,,,,,,,,,,,,,,,,,,,,,,
,,,,,,613a50aa648466f836cb696f,62b2ac39afe45ccc6007968c,2022-06-22_24h45.00.255,Colour_Asymmetry_Pilot,2022.1.3,MacIntel,59.99880002,62b2a6a25f2ba72662469a01,0,17,17,10,1,twoone,,,,,,,,,,,,,,,,,,,,,,,,,,,,,,,,,,,,,,,,,,,,,,,,,,,,,,,,,,,,,,,,,,,,,,,,,,,,,,,,,,,,,,,,,,,,,,,,,,,,,,,,,,,,,,,,,,,,,,,,,,,,,,,,,,,,,,,,,,,,,,,,,,,,,,,,
,,,,,,613a50aa648466f836cb696f,62b2ac39afe45ccc6007968c,2022-06-22_24h45.00.255,Colour_Asymmetry_Pilot,2022.1.3,MacIntel,59.99880002,62b2a6a25f2ba72662469a01,0,18,18,155,1,twofour,,,,,,,,,,,,,,,,,,,,,,,,,,,,,,,,,,,,,,,,,,,,,,,,,,,,,,,,,,,,,,,,,,,,,,,,,,,,,,,,,,,,,,,,,,,,,,,,,,,,,,,,,,,,,,,,,,,,,,,,,,,,,,,,,,,,,,,,,,,,,,,,,,,,,,,,
,,,,,,613a50aa648466f836cb696f,62b2ac39afe45ccc6007968c,2022-06-22_24h45.00.255,Colour_Asymmetry_Pilot,2022.1.3,MacIntel,59.99880002,62b2a6a25f2ba72662469a01,0,19,19,49,1,onethree,,,,,,,,,,,,,,,,,,,,,,,,,,,,,,,,,,,,,,,,,,,,,,,,,,,,,,,,,,,,,,,,,,,,,,,,,,,,,,,,,,,,,,,,,,,,,,,,,,,,,,,,,,,,,,,,,,,,,,,,,,,,,,,,,,,,,,,,,,,,,,,,,,,,,,,,
,,,,,,613a50aa648466f836cb696f,62b2ac39afe45ccc6007968c,2022-06-22_24h45.00.255,Colour_Asymmetry_Pilot,2022.1.3,MacIntel,59.99880002,62b2a6a25f2ba72662469a01,0,20,20,9,1,onethree,,,,,,,,,,,,,,,,,,,,,,,,,,,,,,,,,,,,,,,,,,,,,,,,,,,,,,,,,,,,,,,,,,,,,,,,,,,,,,,,,,,,,,,,,,,,,,,,,,,,,,,,,,,,,,,,,,,,,,,,,,,,,,,,,,,,,,,,,,,,,,,,,,,,,,,,
,,,,,,613a50aa648466f836cb696f,62b2ac39afe45ccc6007968c,2022-06-22_24h45.00.255,Colour_Asymmetry_Pilot,2022.1.3,MacIntel,59.99880002,62b2a6a25f2ba72662469a01,0,21,21,19,1,twofour,,,,,,,,,,,,,,,,,,,,,,,,,,,,,,,,,,,,,,,,,,,,,,,,,,,,,,,,,,,,,,,,,,,,,,,,,,,,,,,,,,,,,,,,,,,,,,,,,,,,,,,,,,,,,,,,,,,,,,,,,,,,,,,,,,,,,,,,,,,,,,,,,,,,,,,,
,,,,,,613a50aa648466f836cb696f,62b2ac39afe45ccc6007968c,2022-06-22_24h45.00.255,Colour_Asymmetry_Pilot,2022.1.3,MacIntel,59.99880002,62b2a6a25f2ba72662469a01,0,22,22,72,1,onetwo,,,,,,,,,,,,,,,,,,,,,,,,,,,,,,,,,,,,,,,,,,,,,,,,,,,,,,,,,,,,,,,,,,,,,,,,,,,,,,,,,,,,,,,,,,,,,,,,,,,,,,,,,,,,,,,,,,,,,,,,,,,,,,,,,,,,,,,,,,,,,,,,,,,,,,,,
,,,,,,613a50aa648466f836cb696f,62b2ac39afe45ccc6007968c,2022-06-22_24h45.00.255,Colour_Asymmetry_Pilot,2022.1.3,MacIntel,59.99880002,62b2a6a25f2ba72662469a01,0,23,23,145,1,onethree,,,,,,,,,,,,,,,,,,,,,,,,,,,,,,,,,,,,,,,,,,,,,,,,,,,,,,,,,,,,,,,,,,,,,,,,,,,,,,,,,,,,,,,,,,,,,,,,,,,,,,,,,,,,,,,,,,,,,,,,,,,,,,,,,,,,,,,,,,,,,,,,,,,,,,,,
,,,,,,613a50aa648466f836cb696f,62b2ac39afe45ccc6007968c,2022-06-22_24h45.00.255,Colour_Asymmetry_Pilot,2022.1.3,MacIntel,59.99880002,62b2a6a25f2ba72662469a01,0,24,24,135,1,fourthree,,,,,,,,,,,,,,,,,,,,,,,,,,,,,,,,,,,,,,,,,,,,,,,,,,,,,,,,,,,,,,,,,,,,,,,,,,,,,,,,,,,,,,,,,,,,,,,,,,,,,,,,,,,,,,,,,,,,,,,,,,,,,,,,,,,,,,,,,,,,,,,,,,,,,,,,
,,,,,,613a50aa648466f836cb696f,62b2ac39afe45ccc6007968c,2022-06-22_24h45.00.255,Colour_Asymmetry_Pilot,2022.1.3,MacIntel,59.99880002,62b2a6a25f2ba72662469a01,0,25,25,84,1,threeone,,,,,,,,,,,,,,,,,,,,,,,,,,,,,,,,,,,,,,,,,,,,,,,,,,,,,,,,,,,,,,,,,,,,,,,,,,,,,,,,,,,,,,,,,,,,,,,,,,,,,,,,,,,,,,,,,,,,,,,,,,,,,,,,,,,,,,,,,,,,,,,,,,,,,,,,
,,,,,,613a50aa648466f836cb696f,62b2ac39afe45ccc6007968c,2022-06-22_24h45.00.255,Colour_Asymmetry_Pilot,2022.1.3,MacIntel,59.99880002,62b2a6a25f2ba72662469a01,0,26,26,132,1,threeone,,,,,,,,,,,,,,,,,,,,,,,,,,,,,,,,,,,,,,,,,,,,,,,,,,,,,,,,,,,,,,,,,,,,,,,,,,,,,,,,,,,,,,,,,,,,,,,,,,,,,,,,,,,,,,,,,,,,,,,,,,,,,,,,,,,,,,,,,,,,,,,,,,,,,,,,
,,,,,,613a50aa648466f836cb696f,62b2ac39afe45ccc6007968c,2022-06-22_24h45.00.255,Colour_Asymmetry_Pilot,2022.1.3,MacIntel,59.99880002,62b2a6a25f2ba72662469a01,0,27,27,127,1,fourthree,,,,,,,,,,,,,,,,,,,,,,,,,,,,,,,,,,,,,,,,,,,,,,,,,,,,,,,,,,,,,,,,,,,,,,,,,,,,,,,,,,,,,,,,,,,,,,,,,,,,,,,,,,,,,,,,,,,,,,,,,,,,,,,,,,,,,,,,,,,,,,,,,,,,,,,,
,,,,,,613a50aa648466f836cb696f,62b2ac39afe45ccc6007968c,2022-06-22_24h45.00.255,Colour_Asymmetry_Pilot,2022.1.3,MacIntel,59.99880002,62b2a6a25f2ba72662469a01,0,28,28,61,1,threefour,,,,,,,,,,,,,,,,,,,,,,,,,,,,,,,,,,,,,,,,,,,,,,,,,,,,,,,,,,,,,,,,,,,,,,,,,,,,,,,,,,,,,,,,,,,,,,,,,,,,,,,,,,,,,,,,,,,,,,,,,,,,,,,,,,,,,,,,,,,,,,,,,,,,,,,,
,,,,,,613a50aa648466f836cb696f,62b2ac39afe45ccc6007968c,2022-06-22_24h45.00.255,Colour_Asymmetry_Pilot,2022.1.3,MacIntel,59.99880002,62b2a6a25f2ba72662469a01,0,29,29,18,1,twoone,,,,,,,,,,,,,,,,,,,,,,,,,,,,,,,,,,,,,,,,,,,,,,,,,,,,,,,,,,,,,,,,,,,,,,,,,,,,,,,,,,,,,,,,,,,,,,,,,,,,,,,,,,,,,,,,,,,,,,,,,,,,,,,,,,,,,,,,,,,,,,,,,,,,,,,,
,,,,,,613a50aa648466f836cb696f,62b2ac39afe45ccc6007968c,2022-06-22_24h45.00.255,Colour_Asymmetry_Pilot,2022.1.3,MacIntel,59.99880002,62b2a6a25f2ba72662469a01,0,30,30,100,1,threeone,,,,,,,,,,,,,,,,,,,,,,,,,,,,,,,,,,,,,,,,,,,,,,,,,,,,,,,,,,,,,,,,,,,,,,,,,,,,,,,,,,,,,,,,,,,,,,,,,,,,,,,,,,,,,,,,,,,,,,,,,,,,,,,,,,,,,,,,,,,,,,,,,,,,,,,,
,,,,,,613a50aa648466f836cb696f,62b2ac39afe45ccc6007968c,2022-06-22_24h45.00.255,Colour_Asymmetry_Pilot,2022.1.3,MacIntel,59.99880002,62b2a6a25f2ba72662469a01,0,31,31,153,1,onethree,,,,,,,,,,,,,,,,,,,,,,,,,,,,,,,,,,,,,,,,,,,,,,,,,,,,,,,,,,,,,,,,,,,,,,,,,,,,,,,,,,,,,,,,,,,,,,,,,,,,,,,,,,,,,,,,,,,,,,,,,,,,,,,,,,,,,,,,,,,,,,,,,,,,,,,,
,,,,,,613a50aa648466f836cb696f,62b2ac39afe45ccc6007968c,2022-06-22_24h45.00.255,Colour_Asymmetry_Pilot,2022.1.3,MacIntel,59.99880002,62b2a6a25f2ba72662469a01,0,32,32,56,1,onetwo,,,,,,,,,,,,,,,,,,,,,,,,,,,,,,,,,,,,,,,,,,,,,,,,,,,,,,,,,,,,,,,,,,,,,,,,,,,,,,,,,,,,,,,,,,,,,,,,,,,,,,,,,,,,,,,,,,,,,,,,,,,,,,,,,,,,,,,,,,,,,,,,,,,,,,,,
,,,,,,613a50aa648466f836cb696f,62b2ac39afe45ccc6007968c,2022-06-22_24h45.00.255,Colour_Asymmetry_Pilot,2022.1.3,MacIntel,59.99880002,62b2a6a25f2ba72662469a01,0,33,33,68,1,threeone,,,,,,,,,,,,,,,,,,,,,,,,,,,,,,,,,,,,,,,,,,,,,,,,,,,,,,,,,,,,,,,,,,,,,,,,,,,,,,,,,,,,,,,,,,,,,,,,,,,,,,,,,,,,,,,,,,,,,,,,,,,,,,,,,,,,,,,,,,,,,,,,,,,,,,,,
,,,,,,613a50aa648466f836cb696f,62b2ac39afe45ccc6007968c,2022-06-22_24h45.00.255,Colour_Asymmetry_Pilot,2022.1.3,MacIntel,59.99880002,62b2a6a25f2ba72662469a01,0,34,34,79,1,fourthree,,,,,,,,,,,,,,,,,,,,,,,,,,,,,,,,,,,,,,,,,,,,,,,,,,,,,,,,,,,,,,,,,,,,,,,,,,,,,,,,,,,,,,,,,,,,,,,,,,,,,,,,,,,,,,,,,,,,,,,,,,,,,,,,,,,,,,,,,,,,,,,,,,,,,,,,
,,,,,,613a50aa648466f836cb696f,62b2ac39afe45ccc6007968c,2022-06-22_24h45.00.255,Colour_Asymmetry_Pilot,2022.1.3,MacIntel,59.99880002,62b2a6a25f2ba72662469a01,0,35,35,85,1,threefour,,,,,,,,,,,,,,,,,,,,,,,,,,,,,,,,,,,,,,,,,,,,,,,,,,,,,,,,,,,,,,,,,,,,,,,,,,,,,,,,,,,,,,,,,,,,,,,,,,,,,,,,,,,,,,,,,,,,,,,,,,,,,,,,,,,,,,,,,,,,,,,,,,,,,,,,
,,,,,,613a50aa648466f836cb696f,62b2ac39afe45ccc6007968c,2022-06-22_24h45.00.255,Colour_Asymmetry_Pilot,2022.1.3,MacIntel,59.99880002,62b2a6a25f2ba72662469a01,0,36,36,136,1,onetwo,,,,,,,,,,,,,,,,,,,,,,,,,,,,,,,,,,,,,,,,,,,,,,,,,,,,,,,,,,,,,,,,,,,,,,,,,,,,,,,,,,,,,,,,,,,,,,,,,,,,,,,,,,,,,,,,,,,,,,,,,,,,,,,,,,,,,,,,,,,,,,,,,,,,,,,,
,,,,,,613a50aa648466f836cb696f,62b2ac39afe45ccc6007968c,2022-06-22_24h45.00.255,Colour_Asymmetry_Pilot,2022.1.3,MacIntel,59.99880002,62b2a6a25f2ba72662469a01,0,37,37,123,1,twofour,,,,,,,,,,,,,,,,,,,,,,,,,,,,,,,,,,,,,,,,,,,,,,,,,,,,,,,,,,,,,,,,,,,,,,,,,,,,,,,,,,,,,,,,,,,,,,,,,,,,,,,,,,,,,,,,,,,,,,,,,,,,,,,,,,,,,,,,,,,,,,,,,,,,,,,,
,,,,,,613a50aa648466f836cb696f,62b2ac39afe45ccc6007968c,2022-06-22_24h45.00.255,Colour_Asymmetry_Pilot,2022.1.3,MacIntel,59.99880002,62b2a6a25f2ba72662469a01,0,38,38,42,1,twoone,,,,,,,,,,,,,,,,,,,,,,,,,,,,,,,,,,,,,,,,,,,,,,,,,,,,,,,,,,,,,,,,,,,,,,,,,,,,,,,,,,,,,,,,,,,,,,,,,,,,,,,,,,,,,,,,,,,,,,,,,,,,,,,,,,,,,,,,,,,,,,,,,,,,,,,,
,,,,,,613a50aa648466f836cb696f,62b2ac39afe45ccc6007968c,2022-06-22_24h45.00.255,Colour_Asymmetry_Pilot,2022.1.3,MacIntel,59.99880002,62b2a6a25f2ba72662469a01,0,39,39,52,1,threeone,,,,,,,,,,,,,,,,,,,,,,,,,,,,,,,,,,,,,,,,,,,,,,,,,,,,,,,,,,,,,,,,,,,,,,,,,,,,,,,,,,,,,,,,,,,,,,,,,,,,,,,,,,,,,,,,,,,,,,,,,,,,,,,,,,,,,,,,,,,,,,,,,,,,,,,,
,,,,,,613a50aa648466f836cb696f,62b2ac39afe45ccc6007968c,2022-06-22_24h45.00.255,Colour_Asymmetry_Pilot,2022.1.3,MacIntel,59.99880002,62b2a6a25f2ba72662469a01,0,40,40,27,1,twofour,,,,,,,,,,,,,,,,,,,,,,,,,,,,,,,,,,,,,,,,,,,,,,,,,,,,,,,,,,,,,,,,,,,,,,,,,,,,,,,,,,,,,,,,,,,,,,,,,,,,,,,,,,,,,,,,,,,,,,,,,,,,,,,,,,,,,,,,,,,,,,,,,,,,,,,,
,,,,,,613a50aa648466f836cb696f,62b2ac39afe45ccc6007968c,2022-06-22_24h45.00.255,Colour_Asymmetry_Pilot,2022.1.3,MacIntel,59.99880002,62b2a6a25f2ba72662469a01,0,41,41,118,1,fourtwo,,,,,,,,,,,,,,,,,,,,,,,,,,,,,,,,,,,,,,,,,,,,,,,,,,,,,,,,,,,,,,,,,,,,,,,,,,,,,,,,,,,,,,,,,,,,,,,,,,,,,,,,,,,,,,,,,,,,,,,,,,,,,,,,,,,,,,,,,,,,,,,,,,,,,,,,
,,,,,,613a50aa648466f836cb696f,62b2ac39afe45ccc6007968c,2022-06-22_24h45.00.255,Colour_Asymmetry_Pilot,2022.1.3,MacIntel,59.99880002,62b2a6a25f2ba72662469a01,0,42,42,152,1,onetwo,,,,,,,,,,,,,,,,,,,,,,,,,,,,,,,,,,,,,,,,,,,,,,,,,,,,,,,,,,,,,,,,,,,,,,,,,,,,,,,,,,,,,,,,,,,,,,,,,,,,,,,,,,,,,,,,,,,,,,,,,,,,,,,,,,,,,,,,,,,,,,,,,,,,,,,,
,,,,,,613a50aa648466f836cb696f,62b2ac39afe45ccc6007968c,2022-06-22_24h45.00.255,Colour_Asymmetry_Pilot,2022.1.3,MacIntel,59.99880002,62b2a6a25f2ba72662469a01,0,43,43,87,1,fourthree,,,,,,,,,,,,,,,,,,,,,,,,,,,,,,,,,,,,,,,,,,,,,,,,,,,,,,,,,,,,,,,,,,,,,,,,,,,,,,,,,,,,,,,,,,,,,,,,,,,,,,,,,,,,,,,,,,,,,,,,,,,,,,,,,,,,,,,,,,,,,,,,,,,,,,,,
,,,,,,613a50aa648466f836cb696f,62b2ac39afe45ccc6007968c,2022-06-22_24h45.00.255,Colour_Asymmetry_Pilot,2022.1.3,MacIntel,59.99880002,62b2a6a25f2ba72662469a01,0,44,44,71,1,fourthree,,,,,,,,,,,,,,,,,,,,,,,,,,,,,,,,,,,,,,,,,,,,,,,,,,,,,,,,,,,,,,,,,,,,,,,,,,,,,,,,,,,,,,,,,,,,,,,,,,,,,,,,,,,,,,,,,,,,,,,,,,,,,,,,,,,,,,,,,,,,,,,,,,,,,,,,
,,,,,,613a50aa648466f836cb696f,62b2ac39afe45ccc6007968c,2022-06-22_24h45.00.255,Colour_Asymmetry_Pilot,2022.1.3,MacIntel,59.99880002,62b2a6a25f2ba72662469a01,0,45,45,67,1,twofour,,,,,,,,,,,,,,,,,,,,,,,,,,,,,,,,,,,,,,,,,,,,,,,,,,,,,,,,,,,,,,,,,,,,,,,,,,,,,,,,,,,,,,,,,,,,,,,,,,,,,,,,,,,,,,,,,,,,,,,,,,,,,,,,,,,,,,,,,,,,,,,,,,,,,,,,
,,,,,,613a50aa648466f836cb696f,62b2ac39afe45ccc6007968c,2022-06-22_24h45.00.255,Colour_Asymmetry_Pilot,2022.1.3,MacIntel,59.99880002,62b2a6a25f2ba72662469a01,0,46,46,62,1,fourtwo,,,,,,,,,,,,,,,,,,,,,,,,,,,,,,,,,,,,,,,,,,,,,,,,,,,,,,,,,,,,,,,,,,,,,,,,,,,,,,,,,,,,,,,,,,,,,,,,,,,,,,,,,,,,,,,,,,,,,,,,,,,,,,,,,,,,,,,,,,,,,,,,,,,,,,,,
,,,,,,613a50aa648466f836cb696f,62b2ac39afe45ccc6007968c,2022-06-22_24h45.00.255,Colour_Asymmetry_Pilot,2022.1.3,MacIntel,59.99880002,62b2a6a25f2ba72662469a01,0,47,47,147,1,twofour,,,,,,,,,,,,,,,,,,,,,,,,,,,,,,,,,,,,,,,,,,,,,,,,,,,,,,,,,,,,,,,,,,,,,,,,,,,,,,,,,,,,,,,,,,,,,,,,,,,,,,,,,,,,,,,,,,,,,,,,,,,,,,,,,,,,,,,,,,,,,,,,,,,,,,,,
,,,,,,613a50aa648466f836cb696f,62b2ac39afe45ccc6007968c,2022-06-22_24h45.00.255,Colour_Asymmetry_Pilot,2022.1.3,MacIntel,59.99880002,62b2a6a25f2ba72662469a01,0,48,48,131,1,twofour,,,,,,,,,,,,,,,,,,,,,,,,,,,,,,,,,,,,,,,,,,,,,,,,,,,,,,,,,,,,,,,,,,,,,,,,,,,,,,,,,,,,,,,,,,,,,,,,,,,,,,,,,,,,,,,,,,,,,,,,,,,,,,,,,,,,,,,,,,,,,,,,,,,,,,,,
,,,,,,613a50aa648466f836cb696f,62b2ac39afe45ccc6007968c,2022-06-22_24h45.00.255,Colour_Asymmetry_Pilot,2022.1.3,MacIntel,59.99880002,62b2a6a25f2ba72662469a01,0,49,49,146,1,twoone,,,,,,,,,,,,,,,,,,,,,,,,,,,,,,,,,,,,,,,,,,,,,,,,,,,,,,,,,,,,,,,,,,,,,,,,,,,,,,,,,,,,,,,,,,,,,,,,,,,,,,,,,,,,,,,,,,,,,,,,,,,,,,,,,,,,,,,,,,,,,,,,,,,,,,,,
,,,,,,613a50aa648466f836cb696f,62b2ac39afe45ccc6007968c,2022-06-22_24h45.00.255,Colour_Asymmetry_Pilot,2022.1.3,MacIntel,59.99880002,62b2a6a25f2ba72662469a01,0,50,50,101,1,threefour,,,,,,,,,,,,,,,,,,,,,,,,,,,,,,,,,,,,,,,,,,,,,,,,,,,,,,,,,,,,,,,,,,,,,,,,,,,,,,,,,,,,,,,,,,,,,,,,,,,,,,,,,,,,,,,,,,,,,,,,,,,,,,,,,,,,,,,,,,,,,,,,,,,,,,,,
,,,,,,613a50aa648466f836cb696f,62b2ac39afe45ccc6007968c,2022-06-22_24h45.00.255,Colour_Asymmetry_Pilot,2022.1.3,MacIntel,59.99880002,62b2a6a25f2ba72662469a01,0,51,51,151,1,fourthree,,,,,,,,,,,,,,,,,,,,,,,,,,,,,,,,,,,,,,,,,,,,,,,,,,,,,,,,,,,,,,,,,,,,,,,,,,,,,,,,,,,,,,,,,,,,,,,,,,,,,,,,,,,,,,,,,,,,,,,,,,,,,,,,,,,,,,,,,,,,,,,,,,,,,,,,
,,,,,,613a50aa648466f836cb696f,62b2ac39afe45ccc6007968c,2022-06-22_24h45.00.255,Colour_Asymmetry_Pilot,2022.1.3,MacIntel,59.99880002,62b2a6a25f2ba72662469a01,0,52,52,30,1,fourtwo,,,,,,,,,,,,,,,,,,,,,,,,,,,,,,,,,,,,,,,,,,,,,,,,,,,,,,,,,,,,,,,,,,,,,,,,,,,,,,,,,,,,,,,,,,,,,,,,,,,,,,,,,,,,,,,,,,,,,,,,,,,,,,,,,,,,,,,,,,,,,,,,,,,,,,,,
,,,,,,613a50aa648466f836cb696f,62b2ac39afe45ccc6007968c,2022-06-22_24h45.00.255,Colour_Asymmetry_Pilot,2022.1.3,MacIntel,59.99880002,62b2a6a25f2ba72662469a01,0,53,53,143,1,fourthree,,,,,,,,,,,,,,,,,,,,,,,,,,,,,,,,,,,,,,,,,,,,,,,,,,,,,,,,,,,,,,,,,,,,,,,,,,,,,,,,,,,,,,,,,,,,,,,,,,,,,,,,,,,,,,,,,,,,,,,,,,,,,,,,,,,,,,,,,,,,,,,,,,,,,,,,
,,,,,,613a50aa648466f836cb696f,62b2ac39afe45ccc6007968c,2022-06-22_24h45.00.255,Colour_Asymmetry_Pilot,2022.1.3,MacIntel,59.99880002,62b2a6a25f2ba72662469a01,0,54,54,34,1,twoone,,,,,,,,,,,,,,,,,,,,,,,,,,,,,,,,,,,,,,,,,,,,,,,,,,,,,,,,,,,,,,,,,,,,,,,,,,,,,,,,,,,,,,,,,,,,,,,,,,,,,,,,,,,,,,,,,,,,,,,,,,,,,,,,,,,,,,,,,,,,,,,,,,,,,,,,
,,,,,,613a50aa648466f836cb696f,62b2ac39afe45ccc6007968c,2022-06-22_24h45.00.255,Colour_Asymmetry_Pilot,2022.1.3,MacIntel,59.99880002,62b2a6a25f2ba72662469a01,0,55,55,11,1,twofour,,,,,,,,,,,,,,,,,,,,,,,,,,,,,,,,,,,,,,,,,,,,,,,,,,,,,,,,,,,,,,,,,,,,,,,,,,,,,,,,,,,,,,,,,,,,,,,,,,,,,,,,,,,,,,,,,,,,,,,,,,,,,,,,,,,,,,,,,,,,,,,,,,,,,,,,
,,,,,,613a50aa648466f836cb696f,62b2ac39afe45ccc6007968c,2022-06-22_24h45.00.255,Colour_Asymmetry_Pilot,2022.1.3,MacIntel,59.99880002,62b2a6a25f2ba72662469a01,0,56,56,120,1,onetwo,,,,,,,,,,,,,,,,,,,,,,,,,,,,,,,,,,,,,,,,,,,,,,,,,,,,,,,,,,,,,,,,,,,,,,,,,,,,,,,,,,,,,,,,,,,,,,,,,,,,,,,,,,,,,,,,,,,,,,,,,,,,,,,,,,,,,,,,,,,,,,,,,,,,,,,,
,,,,,,613a50aa648466f836cb696f,62b2ac39afe45ccc6007968c,2022-06-22_24h45.00.255,Colour_Asymmetry_Pilot,2022.1.3,MacIntel,59.99880002,62b2a6a25f2ba72662469a01,0,57,57,133,1,threefour,,,,,,,,,,,,,,,,,,,,,,,,,,,,,,,,,,,,,,,,,,,,,,,,,,,,,,,,,,,,,,,,,,,,,,,,,,,,,,,,,,,,,,,,,,,,,,,,,,,,,,,,,,,,,,,,,,,,,,,,,,,,,,,,,,,,,,,,,,,,,,,,,,,,,,,,
,,,,,,613a50aa648466f836cb696f,62b2ac39afe45ccc6007968c,2022-06-22_24h45.00.255,Colour_Asymmetry_Pilot,2022.1.3,MacIntel,59.99880002,62b2a6a25f2ba72662469a01,0,58,58,2,1,twoone,,,,,,,,,,,,,,,,,,,,,,,,,,,,,,,,,,,,,,,,,,,,,,,,,,,,,,,,,,,,,,,,,,,,,,,,,,,,,,,,,,,,,,,,,,,,,,,,,,,,,,,,,,,,,,,,,,,,,,,,,,,,,,,,,,,,,,,,,,,,,,,,,,,,,,,,
,,,,,,613a50aa648466f836cb696f,62b2ac39afe45ccc6007968c,2022-06-22_24h45.00.255,Colour_Asymmetry_Pilot,2022.1.3,MacIntel,59.99880002,62b2a6a25f2ba72662469a01,0,59,59,115,1,twofour,,,,,,,,,,,,,,,,,,,,,,,,,,,,,,,,,,,,,,,,,,,,,,,,,,,,,,,,,,,,,,,,,,,,,,,,,,,,,,,,,,,,,,,,,,,,,,,,,,,,,,,,,,,,,,,,,,,,,,,,,,,,,,,,,,,,,,,,,,,,,,,,,,,,,,,,
,,,,,,613a50aa648466f836cb696f,62b2ac39afe45ccc6007968c,2022-06-22_24h45.00.255,Colour_Asymmetry_Pilot,2022.1.3,MacIntel,59.99880002,62b2a6a25f2ba72662469a01,0,60,60,156,1,threeone,,,,,,,,,,,,,,,,,,,,,,,,,,,,,,,,,,,,,,,,,,,,,,,,,,,,,,,,,,,,,,,,,,,,,,,,,,,,,,,,,,,,,,,,,,,,,,,,,,,,,,,,,,,,,,,,,,,,,,,,,,,,,,,,,,,,,,,,,,,,,,,,,,,,,,,,
,,,,,,613a50aa648466f836cb696f,62b2ac39afe45ccc6007968c,2022-06-22_24h45.00.255,Colour_Asymmetry_Pilot,2022.1.3,MacIntel,59.99880002,62b2a6a25f2ba72662469a01,0,61,61,125,1,threefour,,,,,,,,,,,,,,,,,,,,,,,,,,,,,,,,,,,,,,,,,,,,,,,,,,,,,,,,,,,,,,,,,,,,,,,,,,,,,,,,,,,,,,,,,,,,,,,,,,,,,,,,,,,,,,,,,,,,,,,,,,,,,,,,,,,,,,,,,,,,,,,,,,,,,,,,
,,,,,,613a50aa648466f836cb696f,62b2ac39afe45ccc6007968c,2022-06-22_24h45.00.255,Colour_Asymmetry_Pilot,2022.1.3,MacIntel,59.99880002,62b2a6a25f2ba72662469a01,0,62,62,64,1,onetwo,,,,,,,,,,,,,,,,,,,,,,,,,,,,,,,,,,,,,,,,,,,,,,,,,,,,,,,,,,,,,,,,,,,,,,,,,,,,,,,,,,,,,,,,,,,,,,,,,,,,,,,,,,,,,,,,,,,,,,,,,,,,,,,,,,,,,,,,,,,,,,,,,,,,,,,,
,,,,,,613a50aa648466f836cb696f,62b2ac39afe45ccc6007968c,2022-06-22_24h45.00.255,Colour_Asymmetry_Pilot,2022.1.3,MacIntel,59.99880002,62b2a6a25f2ba72662469a01,0,63,63,31,1,fourthree,,,,,,,,,,,,,,,,,,,,,,,,,,,,,,,,,,,,,,,,,,,,,,,,,,,,,,,,,,,,,,,,,,,,,,,,,,,,,,,,,,,,,,,,,,,,,,,,,,,,,,,,,,,,,,,,,,,,,,,,,,,,,,,,,,,,,,,,,,,,,,,,,,,,,,,,
,,,,,,613a50aa648466f836cb696f,62b2ac39afe45ccc6007968c,2022-06-22_24h45.00.255,Colour_Asymmetry_Pilot,2022.1.3,MacIntel,59.99880002,62b2a6a25f2ba72662469a01,0,64,64,54,1,fourtwo,,,,,,,,,,,,,,,,,,,,,,,,,,,,,,,,,,,,,,,,,,,,,,,,,,,,,,,,,,,,,,,,,,,,,,,,,,,,,,,,,,,,,,,,,,,,,,,,,,,,,,,,,,,,,,,,,,,,,,,,,,,,,,,,,,,,,,,,,,,,,,,,,,,,,,,,
,,,,,,613a50aa648466f836cb696f,62b2ac39afe45ccc6007968c,2022-06-22_24h45.00.255,Colour_Asymmetry_Pilot,2022.1.3,MacIntel,59.99880002,62b2a6a25f2ba72662469a01,0,65,65,80,1,onetwo,,,,,,,,,,,,,,,,,,,,,,,,,,,,,,,,,,,,,,,,,,,,,,,,,,,,,,,,,,,,,,,,,,,,,,,,,,,,,,,,,,,,,,,,,,,,,,,,,,,,,,,,,,,,,,,,,,,,,,,,,,,,,,,,,,,,,,,,,,,,,,,,,,,,,,,,
,,,,,,613a50aa648466f836cb696f,62b2ac39afe45ccc6007968c,2022-06-22_24h45.00.255,Colour_Asymmetry_Pilot,2022.1.3,MacIntel,59.99880002,62b2a6a25f2ba72662469a01,0,66,66,148,1,threeone,,,,,,,,,,,,,,,,,,,,,,,,,,,,,,,,,,,,,,,,,,,,,,,,,,,,,,,,,,,,,,,,,,,,,,,,,,,,,,,,,,,,,,,,,,,,,,,,,,,,,,,,,,,,,,,,,,,,,,,,,,,,,,,,,,,,,,,,,,,,,,,,,,,,,,,,
,,,,,,613a50aa648466f836cb696f,62b2ac39afe45ccc6007968c,2022-06-22_24h45.00.255,Colour_Asymmetry_Pilot,2022.1.3,MacIntel,59.99880002,62b2a6a25f2ba72662469a01,0,67,67,150,1,fourtwo,,,,,,,,,,,,,,,,,,,,,,,,,,,,,,,,,,,,,,,,,,,,,,,,,,,,,,,,,,,,,,,,,,,,,,,,,,,,,,,,,,,,,,,,,,,,,,,,,,,,,,,,,,,,,,,,,,,,,,,,,,,,,,,,,,,,,,,,,,,,,,,,,,,,,,,,
,,,,,,613a50aa648466f836cb696f,62b2ac39afe45ccc6007968c,2022-06-22_24h45.00.255,Colour_Asymmetry_Pilot,2022.1.3,MacIntel,59.99880002,62b2a6a25f2ba72662469a01,0,68,68,51,1,twofour,,,,,,,,,,,,,,,,,,,,,,,,,,,,,,,,,,,,,,,,,,,,,,,,,,,,,,,,,,,,,,,,,,,,,,,,,,,,,,,,,,,,,,,,,,,,,,,,,,,,,,,,,,,,,,,,,,,,,,,,,,,,,,,,,,,,,,,,,,,,,,,,,,,,,,,,
,,,,,,613a50aa648466f836cb696f,62b2ac39afe45ccc6007968c,2022-06-22_24h45.00.255,Colour_Asymmetry_Pilot,2022.1.3,MacIntel,59.99880002,62b2a6a25f2ba72662469a01,0,69,69,102,1,fourtwo,,,,,,,,,,,,,,,,,,,,,,,,,,,,,,,,,,,,,,,,,,,,,,,,,,,,,,,,,,,,,,,,,,,,,,,,,,,,,,,,,,,,,,,,,,,,,,,,,,,,,,,,,,,,,,,,,,,,,,,,,,,,,,,,,,,,,,,,,,,,,,,,,,,,,,,,
,,,,,,613a50aa648466f836cb696f,62b2ac39afe45ccc6007968c,2022-06-22_24h45.00.255,Colour_Asymmetry_Pilot,2022.1.3,MacIntel,59.99880002,62b2a6a25f2ba72662469a01,0,70,70,23,1,fourthree,,,,,,,,,,,,,,,,,,,,,,,,,,,,,,,,,,,,,,,,,,,,,,,,,,,,,,,,,,,,,,,,,,,,,,,,,,,,,,,,,,,,,,,,,,,,,,,,,,,,,,,,,,,,,,,,,,,,,,,,,,,,,,,,,,,,,,,,,,,,,,,,,,,,,,,,
,,,,,,613a50aa648466f836cb696f,62b2ac39afe45ccc6007968c,2022-06-22_24h45.00.255,Colour_Asymmetry_Pilot,2022.1.3,MacIntel,59.99880002,62b2a6a25f2ba72662469a01,0,71,71,1,1,onethree,,,,,,,,,,,,,,,,,,,,,,,,,,,,,,,,,,,,,,,,,,,,,,,,,,,,,,,,,,,,,,,,,,,,,,,,,,,,,,,,,,,,,,,,,,,,,,,,,,,,,,,,,,,,,,,,,,,,,,,,,,,,,,,,,,,,,,,,,,,,,,,,,,,,,,,,
,,,,,,613a50aa648466f836cb696f,62b2ac39afe45ccc6007968c,2022-06-22_24h45.00.255,Colour_Asymmetry_Pilot,2022.1.3,MacIntel,59.99880002,62b2a6a25f2ba72662469a01,0,72,72,8,1,onetwo,,,,,,,,,,,,,,,,,,,,,,,,,,,,,,,,,,,,,,,,,,,,,,,,,,,,,,,,,,,,,,,,,,,,,,,,,,,,,,,,,,,,,,,,,,,,,,,,,,,,,,,,,,,,,,,,,,,,,,,,,,,,,,,,,,,,,,,,,,,,,,,,,,,,,,,,
,,,,,,613a50aa648466f836cb696f,62b2ac39afe45ccc6007968c,2022-06-22_24h45.00.255,Colour_Asymmetry_Pilot,2022.1.3,MacIntel,59.99880002,62b2a6a25f2ba72662469a01,0,73,73,48,1,onetwo,,,,,,,,,,,,,,,,,,,,,,,,,,,,,,,,,,,,,,,,,,,,,,,,,,,,,,,,,,,,,,,,,,,,,,,,,,,,,,,,,,,,,,,,,,,,,,,,,,,,,,,,,,,,,,,,,,,,,,,,,,,,,,,,,,,,,,,,,,,,,,,,,,,,,,,,
,,,,,,613a50aa648466f836cb696f,62b2ac39afe45ccc6007968c,2022-06-22_24h45.00.255,Colour_Asymmetry_Pilot,2022.1.3,MacIntel,59.99880002,62b2a6a25f2ba72662469a01,0,74,74,92,1,threeone,,,,,,,,,,,,,,,,,,,,,,,,,,,,,,,,,,,,,,,,,,,,,,,,,,,,,,,,,,,,,,,,,,,,,,,,,,,,,,,,,,,,,,,,,,,,,,,,,,,,,,,,,,,,,,,,,,,,,,,,,,,,,,,,,,,,,,,,,,,,,,,,,,,,,,,,
,,,,,,613a50aa648466f836cb696f,62b2ac39afe45ccc6007968c,2022-06-22_24h45.00.255,Colour_Asymmetry_Pilot,2022.1.3,MacIntel,59.99880002,62b2a6a25f2ba72662469a01,0,75,75,98,1,twoone,,,,,,,,,,,,,,,,,,,,,,,,,,,,,,,,,,,,,,,,,,,,,,,,,,,,,,,,,,,,,,,,,,,,,,,,,,,,,,,,,,,,,,,,,,,,,,,,,,,,,,,,,,,,,,,,,,,,,,,,,,,,,,,,,,,,,,,,,,,,,,,,,,,,,,,,
,,,,,,613a50aa648466f836cb696f,62b2ac39afe45ccc6007968c,2022-06-22_24h45.00.255,Colour_Asymmetry_Pilot,2022.1.3,MacIntel,59.99880002,62b2a6a25f2ba72662469a01,0,76,76,70,1,fourtwo,,,,,,,,,,,,,,,,,,,,,,,,,,,,,,,,,,,,,,,,,,,,,,,,,,,,,,,,,,,,,,,,,,,,,,,,,,,,,,,,,,,,,,,,,,,,,,,,,,,,,,,,,,,,,,,,,,,,,,,,,,,,,,,,,,,,,,,,,,,,,,,,,,,,,,,,
,,,,,,613a50aa648466f836cb696f,62b2ac39afe45ccc6007968c,2022-06-22_24h45.00.255,Colour_Asymmetry_Pilot,2022.1.3,MacIntel,59.99880002,62b2a6a25f2ba72662469a01,0,77,77,83,1,twofour,,,,,,,,,,,,,,,,,,,,,,,,,,,,,,,,,,,,,,,,,,,,,,,,,,,,,,,,,,,,,,,,,,,,,,,,,,,,,,,,,,,,,,,,,,,,,,,,,,,,,,,,,,,,,,,,,,,,,,,,,,,,,,,,,,,,,,,,,,,,,,,,,,,,,,,,
,,,,,,613a50aa648466f836cb696f,62b2ac39afe45ccc6007968c,2022-06-22_24h45.00.255,Colour_Asymmetry_Pilot,2022.1.3,MacIntel,59.99880002,62b2a6a25f2ba72662469a01,0,78,78,17,1,onethree,,,,,,,,,,,,,,,,,,,,,,,,,,,,,,,,,,,,,,,,,,,,,,,,,,,,,,,,,,,,,,,,,,,,,,,,,,,,,,,,,,,,,,,,,,,,,,,,,,,,,,,,,,,,,,,,,,,,,,,,,,,,,,,,,,,,,,,,,,,,,,,,,,,,,,,,
,,,,,,613a50aa648466f836cb696f,62b2ac39afe45ccc6007968c,2022-06-22_24h45.00.255,Colour_Asymmetry_Pilot,2022.1.3,MacIntel,59.99880002,62b2a6a25f2ba72662469a01,0,79,79,117,1,threefour,,,,,,,,,,,,,,,,,,,,,,,,,,,,,,,,,,,,,,,,,,,,,,,,,,,,,,,,,,,,,,,,,,,,,,,,,,,,,,,,,,,,,,,,,,,,,,,,,,,,,,,,,,,,,,,,,,,,,,,,,,,,,,,,,,,,,,,,,,,,,,,,,,,,,,,,
,,,,,,613a50aa648466f836cb696f,62b2ac39afe45ccc6007968c,2022-06-22_24h45.00.255,Colour_Asymmetry_Pilot,2022.1.3,MacIntel,59.99880002,62b2a6a25f2ba72662469a01,0,80,80,82,1,twoone,,,,,,,,,,,,,,,,,,,,,,,,,,,,,,,,,,,,,,,,,,,,,,,,,,,,,,,,,,,,,,,,,,,,,,,,,,,,,,,,,,,,,,,,,,,,,,,,,,,,,,,,,,,,,,,,,,,,,,,,,,,,,,,,,,,,,,,,,,,,,,,,,,,,,,,,
,,,,,,613a50aa648466f836cb696f,62b2ac39afe45ccc6007968c,2022-06-22_24h45.00.255,Colour_Asymmetry_Pilot,2022.1.3,MacIntel,59.99880002,62b2a6a25f2ba72662469a01,0,81,81,46,1,fourtwo,,,,,,,,,,,,,,,,,,,,,,,,,,,,,,,,,,,,,,,,,,,,,,,,,,,,,,,,,,,,,,,,,,,,,,,,,,,,,,,,,,,,,,,,,,,,,,,,,,,,,,,,,,,,,,,,,,,,,,,,,,,,,,,,,,,,,,,,,,,,,,,,,,,,,,,,
,,,,,,613a50aa648466f836cb696f,62b2ac39afe45ccc6007968c,2022-06-22_24h45.00.255,Colour_Asymmetry_Pilot,2022.1.3,MacIntel,59.99880002,62b2a6a25f2ba72662469a01,0,82,82,97,1,onethree,,,,,,,,,,,,,,,,,,,,,,,,,,,,,,,,,,,,,,,,,,,,,,,,,,,,,,,,,,,,,,,,,,,,,,,,,,,,,,,,,,,,,,,,,,,,,,,,,,,,,,,,,,,,,,,,,,,,,,,,,,,,,,,,,,,,,,,,,,,,,,,,,,,,,,,,
,,,,,,613a50aa648466f836cb696f,62b2ac39afe45ccc6007968c,2022-06-22_24h45.00.255,Colour_Asymmetry_Pilot,2022.1.3,MacIntel,59.99880002,62b2a6a25f2ba72662469a01,0,83,83,33,1,onethree,,,,,,,,,,,,,,,,,,,,,,,,,,,,,,,,,,,,,,,,,,,,,,,,,,,,,,,,,,,,,,,,,,,,,,,,,,,,,,,,,,,,,,,,,,,,,,,,,,,,,,,,,,,,,,,,,,,,,,,,,,,,,,,,,,,,,,,,,,,,,,,,,,,,,,,,
,,,,,,613a50aa648466f836cb696f,62b2ac39afe45ccc6007968c,2022-06-22_24h45.00.255,Colour_Asymmetry_Pilot,2022.1.3,MacIntel,59.99880002,62b2a6a25f2ba72662469a01,0,84,84,66,1,twoone,,,,,,,,,,,,,,,,,,,,,,,,,,,,,,,,,,,,,,,,,,,,,,,,,,,,,,,,,,,,,,,,,,,,,,,,,,,,,,,,,,,,,,,,,,,,,,,,,,,,,,,,,,,,,,,,,,,,,,,,,,,,,,,,,,,,,,,,,,,,,,,,,,,,,,,,
,,,,,,613a50aa648466f836cb696f,62b2ac39afe45ccc6007968c,2022-06-22_24h45.00.255,Colour_Asymmetry_Pilot,2022.1.3,MacIntel,59.99880002,62b2a6a25f2ba72662469a01,0,85,85,60,1,threeone,,,,,,,,,,,,,,,,,,,,,,,,,,,,,,,,,,,,,,,,,,,,,,,,,,,,,,,,,,,,,,,,,,,,,,,,,,,,,,,,,,,,,,,,,,,,,,,,,,,,,,,,,,,,,,,,,,,,,,,,,,,,,,,,,,,,,,,,,,,,,,,,,,,,,,,,
,,,,,,613a50aa648466f836cb696f,62b2ac39afe45ccc6007968c,2022-06-22_24h45.00.255,Colour_Asymmetry_Pilot,2022.1.3,MacIntel,59.99880002,62b2a6a25f2ba72662469a01,0,86,86,45,1,threefour,,,,,,,,,,,,,,,,,,,,,,,,,,,,,,,,,,,,,,,,,,,,,,,,,,,,,,,,,,,,,,,,,,,,,,,,,,,,,,,,,,,,,,,,,,,,,,,,,,,,,,,,,,,,,,,,,,,,,,,,,,,,,,,,,,,,,,,,,,,,,,,,,,,,,,,,
,,,,,,613a50aa648466f836cb696f,62b2ac39afe45ccc6007968c,2022-06-22_24h45.00.255,Colour_Asymmetry_Pilot,2022.1.3,MacIntel,59.99880002,62b2a6a25f2ba72662469a01,0,87,87,104,1,onetwo,,,,,,,,,,,,,,,,,,,,,,,,,,,,,,,,,,,,,,,,,,,,,,,,,,,,,,,,,,,,,,,,,,,,,,,,,,,,,,,,,,,,,,,,,,,,,,,,,,,,,,,,,,,,,,,,,,,,,,,,,,,,,,,,,,,,,,,,,,,,,,,,,,,,,,,,
,,,,,,613a50aa648466f836cb696f,62b2ac39afe45ccc6007968c,2022-06-22_24h45.00.255,Colour_Asymmetry_Pilot,2022.1.3,MacIntel,59.99880002,62b2a6a25f2ba72662469a01,0,88,88,35,1,twofour,,,,,,,,,,,,,,,,,,,,,,,,,,,,,,,,,,,,,,,,,,,,,,,,,,,,,,,,,,,,,,,,,,,,,,,,,,,,,,,,,,,,,,,,,,,,,,,,,,,,,,,,,,,,,,,,,,,,,,,,,,,,,,,,,,,,,,,,,,,,,,,,,,,,,,,,
,,,,,,613a50aa648466f836cb696f,62b2ac39afe45ccc6007968c,2022-06-22_24h45.00.255,Colour_Asymmetry_Pilot,2022.1.3,MacIntel,59.99880002,62b2a6a25f2ba72662469a01,0,89,89,14,1,fourtwo,,,,,,,,,,,,,,,,,,,,,,,,,,,,,,,,,,,,,,,,,,,,,,,,,,,,,,,,,,,,,,,,,,,,,,,,,,,,,,,,,,,,,,,,,,,,,,,,,,,,,,,,,,,,,,,,,,,,,,,,,,,,,,,,,,,,,,,,,,,,,,,,,,,,,,,,
,,,,,,613a50aa648466f836cb696f,62b2ac39afe45ccc6007968c,2022-06-22_24h45.00.255,Colour_Asymmetry_Pilot,2022.1.3,MacIntel,59.99880002,62b2a6a25f2ba72662469a01,0,90,90,142,1,fourtwo,,,,,,,,,,,,,,,,,,,,,,,,,,,,,,,,,,,,,,,,,,,,,,,,,,,,,,,,,,,,,,,,,,,,,,,,,,,,,,,,,,,,,,,,,,,,,,,,,,,,,,,,,,,,,,,,,,,,,,,,,,,,,,,,,,,,,,,,,,,,,,,,,,,,,,,,
,,,,,,613a50aa648466f836cb696f,62b2ac39afe45ccc6007968c,2022-06-22_24h45.00.255,Colour_Asymmetry_Pilot,2022.1.3,MacIntel,59.99880002,62b2a6a25f2ba72662469a01,0,91,91,144,1,onetwo,,,,,,,,,,,,,,,,,,,,,,,,,,,,,,,,,,,,,,,,,,,,,,,,,,,,,,,,,,,,,,,,,,,,,,,,,,,,,,,,,,,,,,,,,,,,,,,,,,,,,,,,,,,,,,,,,,,,,,,,,,,,,,,,,,,,,,,,,,,,,,,,,,,,,,,,
,,,,,,613a50aa648466f836cb696f,62b2ac39afe45ccc6007968c,2022-06-22_24h45.00.255,Colour_Asymmetry_Pilot,2022.1.3,MacIntel,59.99880002,62b2a6a25f2ba72662469a01,0,92,92,103,1,fourthree,,,,,,,,,,,,,,,,,,,,,,,,,,,,,,,,,,,,,,,,,,,,,,,,,,,,,,,,,,,,,,,,,,,,,,,,,,,,,,,,,,,,,,,,,,,,,,,,,,,,,,,,,,,,,,,,,,,,,,,,,,,,,,,,,,,,,,,,,,,,,,,,,,,,,,,,
,,,,,,613a50aa648466f836cb696f,62b2ac39afe45ccc6007968c,2022-06-22_24h45.00.255,Colour_Asymmetry_Pilot,2022.1.3,MacIntel,59.99880002,62b2a6a25f2ba72662469a01,0,93,93,29,1,threefour,,,,,,,,,,,,,,,,,,,,,,,,,,,,,,,,,,,,,,,,,,,,,,,,,,,,,,,,,,,,,,,,,,,,,,,,,,,,,,,,,,,,,,,,,,,,,,,,,,,,,,,,,,,,,,,,,,,,,,,,,,,,,,,,,,,,,,,,,,,,,,,,,,,,,,,,
,,,,,,613a50aa648466f836cb696f,62b2ac39afe45ccc6007968c,2022-06-22_24h45.00.255,Colour_Asymmetry_Pilot,2022.1.3,MacIntel,59.99880002,62b2a6a25f2ba72662469a01,0,94,94,78,1,fourtwo,,,,,,,,,,,,,,,,,,,,,,,,,,,,,,,,,,,,,,,,,,,,,,,,,,,,,,,,,,,,,,,,,,,,,,,,,,,,,,,,,,,,,,,,,,,,,,,,,,,,,,,,,,,,,,,,,,,,,,,,,,,,,,,,,,,,,,,,,,,,,,,,,,,,,,,,
,,,,,,613a50aa648466f836cb696f,62b2ac39afe45ccc6007968c,2022-06-22_24h45.00.255,Colour_Asymmetry_Pilot,2022.1.3,MacIntel,59.99880002,62b2a6a25f2ba72662469a01,0,95,95,160,1,onetwo,,,,,,,,,,,,,,,,,,,,,,,,,,,,,,,,,,,,,,,,,,,,,,,,,,,,,,,,,,,,,,,,,,,,,,,,,,,,,,,,,,,,,,,,,,,,,,,,,,,,,,,,,,,,,,,,,,,,,,,,,,,,,,,,,,,,,,,,,,,,,,,,,,,,,,,,
,,,,,,613a50aa648466f836cb696f,62b2ac39afe45ccc6007968c,2022-06-22_24h45.00.255,Colour_Asymmetry_Pilot,2022.1.3,MacIntel,59.99880002,62b2a6a25f2ba72662469a01,0,96,96,149,1,threefour,,,,,,,,,,,,,,,,,,,,,,,,,,,,,,,,,,,,,,,,,,,,,,,,,,,,,,,,,,,,,,,,,,,,,,,,,,,,,,,,,,,,,,,,,,,,,,,,,,,,,,,,,,,,,,,,,,,,,,,,,,,,,,,,,,,,,,,,,,,,,,,,,,,,,,,,
,,,,,,613a50aa648466f836cb696f,62b2ac39afe45ccc6007968c,2022-06-22_24h45.00.255,Colour_Asymmetry_Pilot,2022.1.3,MacIntel,59.99880002,62b2a6a25f2ba72662469a01,0,97,97,75,1,twofour,,,,,,,,,,,,,,,,,,,,,,,,,,,,,,,,,,,,,,,,,,,,,,,,,,,,,,,,,,,,,,,,,,,,,,,,,,,,,,,,,,,,,,,,,,,,,,,,,,,,,,,,,,,,,,,,,,,,,,,,,,,,,,,,,,,,,,,,,,,,,,,,,,,,,,,,
,,,,,,613a50aa648466f836cb696f,62b2ac39afe45ccc6007968c,2022-06-22_24h45.00.255,Colour_Asymmetry_Pilot,2022.1.3,MacIntel,59.99880002,62b2a6a25f2ba72662469a01,0,98,98,37,1,threefour,,,,,,,,,,,,,,,,,,,,,,,,,,,,,,,,,,,,,,,,,,,,,,,,,,,,,,,,,,,,,,,,,,,,,,,,,,,,,,,,,,,,,,,,,,,,,,,,,,,,,,,,,,,,,,,,,,,,,,,,,,,,,,,,,,,,,,,,,,,,,,,,,,,,,,,,
,,,,,,613a50aa648466f836cb696f,62b2ac39afe45ccc6007968c,2022-06-22_24h45.00.255,Colour_Asymmetry_Pilot,2022.1.3,MacIntel,59.99880002,62b2a6a25f2ba72662469a01,0,99,99,116,1,threeone,,,,,,,,,,,,,,,,,,,,,,,,,,,,,,,,,,,,,,,,,,,,,,,,,,,,,,,,,,,,,,,,,,,,,,,,,,,,,,,,,,,,,,,,,,,,,,,,,,,,,,,,,,,,,,,,,,,,,,,,,,,,,,,,,,,,,,,,,,,,,,,,,,,,,,,,
,,,,,,613a50aa648466f836cb696f,62b2ac39afe45ccc6007968c,2022-06-22_24h45.00.255,Colour_Asymmetry_Pilot,2022.1.3,MacIntel,59.99880002,62b2a6a25f2ba72662469a01,0,100,100,129,1,onethree,,,,,,,,,,,,,,,,,,,,,,,,,,,,,,,,,,,,,,,,,,,,,,,,,,,,,,,,,,,,,,,,,,,,,,,,,,,,,,,,,,,,,,,,,,,,,,,,,,,,,,,,,,,,,,,,,,,,,,,,,,,,,,,,,,,,,,,,,,,,,,,,,,,,,,,,
,,,,,,613a50aa648466f836cb696f,62b2ac39afe45ccc6007968c,2022-06-22_24h45.00.255,Colour_Asymmetry_Pilot,2022.1.3,MacIntel,59.99880002,62b2a6a25f2ba72662469a01,0,101,101,112,1,onetwo,,,,,,,,,,,,,,,,,,,,,,,,,,,,,,,,,,,,,,,,,,,,,,,,,,,,,,,,,,,,,,,,,,,,,,,,,,,,,,,,,,,,,,,,,,,,,,,,,,,,,,,,,,,,,,,,,,,,,,,,,,,,,,,,,,,,,,,,,,,,,,,,,,,,,,,,
,,,,,,613a50aa648466f836cb696f,62b2ac39afe45ccc6007968c,2022-06-22_24h45.00.255,Colour_Asymmetry_Pilot,2022.1.3,MacIntel,59.99880002,62b2a6a25f2ba72662469a01,0,102,102,99,1,twofour,,,,,,,,,,,,,,,,,,,,,,,,,,,,,,,,,,,,,,,,,,,,,,,,,,,,,,,,,,,,,,,,,,,,,,,,,,,,,,,,,,,,,,,,,,,,,,,,,,,,,,,,,,,,,,,,,,,,,,,,,,,,,,,,,,,,,,,,,,,,,,,,,,,,,,,,
,,,,,,613a50aa648466f836cb696f,62b2ac39afe45ccc6007968c,2022-06-22_24h45.00.255,Colour_Asymmetry_Pilot,2022.1.3,MacIntel,59.99880002,62b2a6a25f2ba72662469a01,0,103,103,139,1,twofour,,,,,,,,,,,,,,,,,,,,,,,,,,,,,,,,,,,,,,,,,,,,,,,,,,,,,,,,,,,,,,,,,,,,,,,,,,,,,,,,,,,,,,,,,,,,,,,,,,,,,,,,,,,,,,,,,,,,,,,,,,,,,,,,,,,,,,,,,,,,,,,,,,,,,,,,
,,,,,,613a50aa648466f836cb696f,62b2ac39afe45ccc6007968c,2022-06-22_24h45.00.255,Colour_Asymmetry_Pilot,2022.1.3,MacIntel,59.99880002,62b2a6a25f2ba72662469a01,0,104,104,24,1,onetwo,,,,,,,,,,,,,,,,,,,,,,,,,,,,,,,,,,,,,,,,,,,,,,,,,,,,,,,,,,,,,,,,,,,,,,,,,,,,,,,,,,,,,,,,,,,,,,,,,,,,,,,,,,,,,,,,,,,,,,,,,,,,,,,,,,,,,,,,,,,,,,,,,,,,,,,,
,,,,,,613a50aa648466f836cb696f,62b2ac39afe45ccc6007968c,2022-06-22_24h45.00.255,Colour_Asymmetry_Pilot,2022.1.3,MacIntel,59.99880002,62b2a6a25f2ba72662469a01,0,105,105,114,1,twoone,,,,,,,,,,,,,,,,,,,,,,,,,,,,,,,,,,,,,,,,,,,,,,,,,,,,,,,,,,,,,,,,,,,,,,,,,,,,,,,,,,,,,,,,,,,,,,,,,,,,,,,,,,,,,,,,,,,,,,,,,,,,,,,,,,,,,,,,,,,,,,,,,,,,,,,,
,,,,,,613a50aa648466f836cb696f,62b2ac39afe45ccc6007968c,2022-06-22_24h45.00.255,Colour_Asymmetry_Pilot,2022.1.3,MacIntel,59.99880002,62b2a6a25f2ba72662469a01,0,106,106,69,1,threefour,,,,,,,,,,,,,,,,,,,,,,,,,,,,,,,,,,,,,,,,,,,,,,,,,,,,,,,,,,,,,,,,,,,,,,,,,,,,,,,,,,,,,,,,,,,,,,,,,,,,,,,,,,,,,,,,,,,,,,,,,,,,,,,,,,,,,,,,,,,,,,,,,,,,,,,,
,,,,,,613a50aa648466f836cb696f,62b2ac39afe45ccc6007968c,2022-06-22_24h45.00.255,Colour_Asymmetry_Pilot,2022.1.3,MacIntel,59.99880002,62b2a6a25f2ba72662469a01,0,107,107,43,1,twofour,,,,,,,,,,,,,,,,,,,,,,,,,,,,,,,,,,,,,,,,,,,,,,,,,,,,,,,,,,,,,,,,,,,,,,,,,,,,,,,,,,,,,,,,,,,,,,,,,,,,,,,,,,,,,,,,,,,,,,,,,,,,,,,,,,,,,,,,,,,,,,,,,,,,,,,,
,,,,,,613a50aa648466f836cb696f,62b2ac39afe45ccc6007968c,2022-06-22_24h45.00.255,Colour_Asymmetry_Pilot,2022.1.3,MacIntel,59.99880002,62b2a6a25f2ba72662469a01,0,108,108,154,1,twoone,,,,,,,,,,,,,,,,,,,,,,,,,,,,,,,,,,,,,,,,,,,,,,,,,,,,,,,,,,,,,,,,,,,,,,,,,,,,,,,,,,,,,,,,,,,,,,,,,,,,,,,,,,,,,,,,,,,,,,,,,,,,,,,,,,,,,,,,,,,,,,,,,,,,,,,,
,,,,,,613a50aa648466f836cb696f,62b2ac39afe45ccc6007968c,2022-06-22_24h45.00.255,Colour_Asymmetry_Pilot,2022.1.3,MacIntel,59.99880002,62b2a6a25f2ba72662469a01,0,109,109,95,1,fourthree,,,,,,,,,,,,,,,,,,,,,,,,,,,,,,,,,,,,,,,,,,,,,,,,,,,,,,,,,,,,,,,,,,,,,,,,,,,,,,,,,,,,,,,,,,,,,,,,,,,,,,,,,,,,,,,,,,,,,,,,,,,,,,,,,,,,,,,,,,,,,,,,,,,,,,,,
,,,,,,613a50aa648466f836cb696f,62b2ac39afe45ccc6007968c,2022-06-22_24h45.00.255,Colour_Asymmetry_Pilot,2022.1.3,MacIntel,59.99880002,62b2a6a25f2ba72662469a01,0,110,110,141,1,threefour,,,,,,,,,,,,,,,,,,,,,,,,,,,,,,,,,,,,,,,,,,,,,,,,,,,,,,,,,,,,,,,,,,,,,,,,,,,,,,,,,,,,,,,,,,,,,,,,,,,,,,,,,,,,,,,,,,,,,,,,,,,,,,,,,,,,,,,,,,,,,,,,,,,,,,,,
,,,,,,613a50aa648466f836cb696f,62b2ac39afe45ccc6007968c,2022-06-22_24h45.00.255,Colour_Asymmetry_Pilot,2022.1.3,MacIntel,59.99880002,62b2a6a25f2ba72662469a01,0,111,111,158,1,fourtwo,,,,,,,,,,,,,,,,,,,,,,,,,,,,,,,,,,,,,,,,,,,,,,,,,,,,,,,,,,,,,,,,,,,,,,,,,,,,,,,,,,,,,,,,,,,,,,,,,,,,,,,,,,,,,,,,,,,,,,,,,,,,,,,,,,,,,,,,,,,,,,,,,,,,,,,,
,,,,,,613a50aa648466f836cb696f,62b2ac39afe45ccc6007968c,2022-06-22_24h45.00.255,Colour_Asymmetry_Pilot,2022.1.3,MacIntel,59.99880002,62b2a6a25f2ba72662469a01,0,112,112,25,1,onethree,,,,,,,,,,,,,,,,,,,,,,,,,,,,,,,,,,,,,,,,,,,,,,,,,,,,,,,,,,,,,,,,,,,,,,,,,,,,,,,,,,,,,,,,,,,,,,,,,,,,,,,,,,,,,,,,,,,,,,,,,,,,,,,,,,,,,,,,,,,,,,,,,,,,,,,,
,,,,,,613a50aa648466f836cb696f,62b2ac39afe45ccc6007968c,2022-06-22_24h45.00.255,Colour_Asymmetry_Pilot,2022.1.3,MacIntel,59.99880002,62b2a6a25f2ba72662469a01,0,113,113,73,1,onethree,,,,,,,,,,,,,,,,,,,,,,,,,,,,,,,,,,,,,,,,,,,,,,,,,,,,,,,,,,,,,,,,,,,,,,,,,,,,,,,,,,,,,,,,,,,,,,,,,,,,,,,,,,,,,,,,,,,,,,,,,,,,,,,,,,,,,,,,,,,,,,,,,,,,,,,,
,,,,,,613a50aa648466f836cb696f,62b2ac39afe45ccc6007968c,2022-06-22_24h45.00.255,Colour_Asymmetry_Pilot,2022.1.3,MacIntel,59.99880002,62b2a6a25f2ba72662469a01,0,114,114,161,1,onethree,,,,,,,,,,,,,,,,,,,,,,,,,,,,,,,,,,,,,,,,,,,,,,,,,,,,,,,,,,,,,,,,,,,,,,,,,,,,,,,,,,,,,,,,,,,,,,,,,,,,,,,,,,,,,,,,,,,,,,,,,,,,,,,,,,,,,,,,,,,,,,,,,,,,,,,,
,,,,,,613a50aa648466f836cb696f,62b2ac39afe45ccc6007968c,2022-06-22_24h45.00.255,Colour_Asymmetry_Pilot,2022.1.3,MacIntel,59.99880002,62b2a6a25f2ba72662469a01,0,115,115,28,1,threeone,,,,,,,,,,,,,,,,,,,,,,,,,,,,,,,,,,,,,,,,,,,,,,,,,,,,,,,,,,,,,,,,,,,,,,,,,,,,,,,,,,,,,,,,,,,,,,,,,,,,,,,,,,,,,,,,,,,,,,,,,,,,,,,,,,,,,,,,,,,,,,,,,,,,,,,,
,,,,,,613a50aa648466f836cb696f,62b2ac39afe45ccc6007968c,2022-06-22_24h45.00.255,Colour_Asymmetry_Pilot,2022.1.3,MacIntel,59.99880002,62b2a6a25f2ba72662469a01,0,116,116,38,1,fourtwo,,,,,,,,,,,,,,,,,,,,,,,,,,,,,,,,,,,,,,,,,,,,,,,,,,,,,,,,,,,,,,,,,,,,,,,,,,,,,,,,,,,,,,,,,,,,,,,,,,,,,,,,,,,,,,,,,,,,,,,,,,,,,,,,,,,,,,,,,,,,,,,,,,,,,,,,
,,,,,,613a50aa648466f836cb696f,62b2ac39afe45ccc6007968c,2022-06-22_24h45.00.255,Colour_Asymmetry_Pilot,2022.1.3,MacIntel,59.99880002,62b2a6a25f2ba72662469a01,0,117,117,89,1,onethree,,,,,,,,,,,,,,,,,,,,,,,,,,,,,,,,,,,,,,,,,,,,,,,,,,,,,,,,,,,,,,,,,,,,,,,,,,,,,,,,,,,,,,,,,,,,,,,,,,,,,,,,,,,,,,,,,,,,,,,,,,,,,,,,,,,,,,,,,,,,,,,,,,,,,,,,
,,,,,,613a50aa648466f836cb696f,62b2ac39afe45ccc6007968c,2022-06-22_24h45.00.255,Colour_Asymmetry_Pilot,2022.1.3,MacIntel,59.99880002,62b2a6a25f2ba72662469a01,0,118,118,44,1,threeone,,,,,,,,,,,,,,,,,,,,,,,,,,,,,,,,,,,,,,,,,,,,,,,,,,,,,,,,,,,,,,,,,,,,,,,,,,,,,,,,,,,,,,,,,,,,,,,,,,,,,,,,,,,,,,,,,,,,,,,,,,,,,,,,,,,,,,,,,,,,,,,,,,,,,,,,
,,,,,,613a50aa648466f836cb696f,62b2ac39afe45ccc6007968c,2022-06-22_24h45.00.255,Colour_Asymmetry_Pilot,2022.1.3,MacIntel,59.99880002,62b2a6a25f2ba72662469a01,0,119,119,111,1,fourthree,,,,,,,,,,,,,,,,,,,,,,,,,,,,,,,,,,,,,,,,,,,,,,,,,,,,,,,,,,,,,,,,,,,,,,,,,,,,,,,,,,,,,,,,,,,,,,,,,,,,,,,,,,,,,,,,,,,,,,,,,,,,,,,,,,,,,,,,,,,,,,,,,,,,,,,,
,,,,,,613a50aa648466f836cb696f,62b2ac39afe45ccc6007968c,2022-06-22_24h45.00.255,Colour_Asymmetry_Pilot,2022.1.3,MacIntel,59.99880002,62b2a6a25f2ba72662469a01,0,120,120,124,1,threeone,,,,,,,,,,,,,,,,,,,,,,,,,,,,,,,,,,,,,,,,,,,,,,,,,,,,,,,,,,,,,,,,,,,,,,,,,,,,,,,,,,,,,,,,,,,,,,,,,,,,,,,,,,,,,,,,,,,,,,,,,,,,,,,,,,,,,,,,,,,,,,,,,,,,,,,,
,,,,,,613a50aa648466f836cb696f,62b2ac39afe45ccc6007968c,2022-06-22_24h45.00.255,Colour_Asymmetry_Pilot,2022.1.3,MacIntel,59.99880002,62b2a6a25f2ba72662469a01,0,121,121,113,1,onethree,,,,,,,,,,,,,,,,,,,,,,,,,,,,,,,,,,,,,,,,,,,,,,,,,,,,,,,,,,,,,,,,,,,,,,,,,,,,,,,,,,,,,,,,,,,,,,,,,,,,,,,,,,,,,,,,,,,,,,,,,,,,,,,,,,,,,,,,,,,,,,,,,,,,,,,,
,,,,,,613a50aa648466f836cb696f,62b2ac39afe45ccc6007968c,2022-06-22_24h45.00.255,Colour_Asymmetry_Pilot,2022.1.3,MacIntel,59.99880002,62b2a6a25f2ba72662469a01,0,122,122,26,1,twoone,,,,,,,,,,,,,,,,,,,,,,,,,,,,,,,,,,,,,,,,,,,,,,,,,,,,,,,,,,,,,,,,,,,,,,,,,,,,,,,,,,,,,,,,,,,,,,,,,,,,,,,,,,,,,,,,,,,,,,,,,,,,,,,,,,,,,,,,,,,,,,,,,,,,,,,,
,,,,,,613a50aa648466f836cb696f,62b2ac39afe45ccc6007968c,2022-06-22_24h45.00.255,Colour_Asymmetry_Pilot,2022.1.3,MacIntel,59.99880002,62b2a6a25f2ba72662469a01,0,123,123,74,1,twoone,,,,,,,,,,,,,,,,,,,,,,,,,,,,,,,,,,,,,,,,,,,,,,,,,,,,,,,,,,,,,,,,,,,,,,,,,,,,,,,,,,,,,,,,,,,,,,,,,,,,,,,,,,,,,,,,,,,,,,,,,,,,,,,,,,,,,,,,,,,,,,,,,,,,,,,,
,,,,,,613a50aa648466f836cb696f,62b2ac39afe45ccc6007968c,2022-06-22_24h45.00.255,Colour_Asymmetry_Pilot,2022.1.3,MacIntel,59.99880002,62b2a6a25f2ba72662469a01,0,124,124,130,1,twoone,,,,,,,,,,,,,,,,,,,,,,,,,,,,,,,,,,,,,,,,,,,,,,,,,,,,,,,,,,,,,,,,,,,,,,,,,,,,,,,,,,,,,,,,,,,,,,,,,,,,,,,,,,,,,,,,,,,,,,,,,,,,,,,,,,,,,,,,,,,,,,,,,,,,,,,,
,,,,,,613a50aa648466f836cb696f,62b2ac39afe45ccc6007968c,2022-06-22_24h45.00.255,Colour_Asymmetry_Pilot,2022.1.3,MacIntel,59.99880002,62b2a6a25f2ba72662469a01,0,125,125,121,1,onethree,,,,,,,,,,,,,,,,,,,,,,,,,,,,,,,,,,,,,,,,,,,,,,,,,,,,,,,,,,,,,,,,,,,,,,,,,,,,,,,,,,,,,,,,,,,,,,,,,,,,,,,,,,,,,,,,,,,,,,,,,,,,,,,,,,,,,,,,,,,,,,,,,,,,,,,,
,,,,,,613a50aa648466f836cb696f,62b2ac39afe45ccc6007968c,2022-06-22_24h45.00.255,Colour_Asymmetry_Pilot,2022.1.3,MacIntel,59.99880002,62b2a6a25f2ba72662469a01,0,126,126,57,1,onethree,,,,,,,,,,,,,,,,,,,,,,,,,,,,,,,,,,,,,,,,,,,,,,,,,,,,,,,,,,,,,,,,,,,,,,,,,,,,,,,,,,,,,,,,,,,,,,,,,,,,,,,,,,,,,,,,,,,,,,,,,,,,,,,,,,,,,,,,,,,,,,,,,,,,,,,,
,,,,,,613a50aa648466f836cb696f,62b2ac39afe45ccc6007968c,2022-06-22_24h45.00.255,Colour_Asymmetry_Pilot,2022.1.3,MacIntel,59.99880002,62b2a6a25f2ba72662469a01,0,127,127,96,1,onetwo,,,,,,,,,,,,,,,,,,,,,,,,,,,,,,,,,,,,,,,,,,,,,,,,,,,,,,,,,,,,,,,,,,,,,,,,,,,,,,,,,,,,,,,,,,,,,,,,,,,,,,,,,,,,,,,,,,,,,,,,,,,,,,,,,,,,,,,,,,,,,,,,,,,,,,,,
,,,,,,613a50aa648466f836cb696f,62b2ac39afe45ccc6007968c,2022-06-22_24h45.00.255,Colour_Asymmetry_Pilot,2022.1.3,MacIntel,59.99880002,62b2a6a25f2ba72662469a01,0,128,128,21,1,threefour,,,,,,,,,,,,,,,,,,,,,,,,,,,,,,,,,,,,,,,,,,,,,,,,,,,,,,,,,,,,,,,,,,,,,,,,,,,,,,,,,,,,,,,,,,,,,,,,,,,,,,,,,,,,,,,,,,,,,,,,,,,,,,,,,,,,,,,,,,,,,,,,,,,,,,,,
,,,,,,613a50aa648466f836cb696f,62b2ac39afe45ccc6007968c,2022-06-22_24h45.00.255,Colour_Asymmetry_Pilot,2022.1.3,MacIntel,59.99880002,62b2a6a25f2ba72662469a01,0,129,129,65,1,onethree,,,,,,,,,,,,,,,,,,,,,,,,,,,,,,,,,,,,,,,,,,,,,,,,,,,,,,,,,,,,,,,,,,,,,,,,,,,,,,,,,,,,,,,,,,,,,,,,,,,,,,,,,,,,,,,,,,,,,,,,,,,,,,,,,,,,,,,,,,,,,,,,,,,,,,,,
,,,,,,613a50aa648466f836cb696f,62b2ac39afe45ccc6007968c,2022-06-22_24h45.00.255,Colour_Asymmetry_Pilot,2022.1.3,MacIntel,59.99880002,62b2a6a25f2ba72662469a01,0,130,130,39,1,fourthree,,,,,,,,,,,,,,,,,,,,,,,,,,,,,,,,,,,,,,,,,,,,,,,,,,,,,,,,,,,,,,,,,,,,,,,,,,,,,,,,,,,,,,,,,,,,,,,,,,,,,,,,,,,,,,,,,,,,,,,,,,,,,,,,,,,,,,,,,,,,,,,,,,,,,,,,
,,,,,,613a50aa648466f836cb696f,62b2ac39afe45ccc6007968c,2022-06-22_24h45.00.255,Colour_Asymmetry_Pilot,2022.1.3,MacIntel,59.99880002,62b2a6a25f2ba72662469a01,0,131,131,106,1,twoone,,,,,,,,,,,,,,,,,,,,,,,,,,,,,,,,,,,,,,,,,,,,,,,,,,,,,,,,,,,,,,,,,,,,,,,,,,,,,,,,,,,,,,,,,,,,,,,,,,,,,,,,,,,,,,,,,,,,,,,,,,,,,,,,,,,,,,,,,,,,,,,,,,,,,,,,
,,,,,,613a50aa648466f836cb696f,62b2ac39afe45ccc6007968c,2022-06-22_24h45.00.255,Colour_Asymmetry_Pilot,2022.1.3,MacIntel,59.99880002,62b2a6a25f2ba72662469a01,0,132,132,0,1,onetwo,,,,,,,,,,,,,,,,,,,,,,,,,,,,,,,,,,,,,,,,,,,,,,,,,,,,,,,,,,,,,,,,,,,,,,,,,,,,,,,,,,,,,,,,,,,,,,,,,,,,,,,,,,,,,,,,,,,,,,,,,,,,,,,,,,,,,,,,,,,,,,,,,,,,,,,,
,,,,,,613a50aa648466f836cb696f,62b2ac39afe45ccc6007968c,2022-06-22_24h45.00.255,Colour_Asymmetry_Pilot,2022.1.3,MacIntel,59.99880002,62b2a6a25f2ba72662469a01,0,133,133,20,1,threeone,,,,,,,,,,,,,,,,,,,,,,,,,,,,,,,,,,,,,,,,,,,,,,,,,,,,,,,,,,,,,,,,,,,,,,,,,,,,,,,,,,,,,,,,,,,,,,,,,,,,,,,,,,,,,,,,,,,,,,,,,,,,,,,,,,,,,,,,,,,,,,,,,,,,,,,,
,,,,,,613a50aa648466f836cb696f,62b2ac39afe45ccc6007968c,2022-06-22_24h45.00.255,Colour_Asymmetry_Pilot,2022.1.3,MacIntel,59.99880002,62b2a6a25f2ba72662469a01,0,134,134,110,1,fourtwo,,,,,,,,,,,,,,,,,,,,,,,,,,,,,,,,,,,,,,,,,,,,,,,,,,,,,,,,,,,,,,,,,,,,,,,,,,,,,,,,,,,,,,,,,,,,,,,,,,,,,,,,,,,,,,,,,,,,,,,,,,,,,,,,,,,,,,,,,,,,,,,,,,,,,,,,
,,,,,,613a50aa648466f836cb696f,62b2ac39afe45ccc6007968c,2022-06-22_24h45.00.255,Colour_Asymmetry_Pilot,2022.1.3,MacIntel,59.99880002,62b2a6a25f2ba72662469a01,0,135,135,5,1,threefour,,,,,,,,,,,,,,,,,,,,,,,,,,,,,,,,,,,,,,,,,,,,,,,,,,,,,,,,,,,,,,,,,,,,,,,,,,,,,,,,,,,,,,,,,,,,,,,,,,,,,,,,,,,,,,,,,,,,,,,,,,,,,,,,,,,,,,,,,,,,,,,,,,,,,,,,
,,,,,,613a50aa648466f836cb696f,62b2ac39afe45ccc6007968c,2022-06-22_24h45.00.255,Colour_Asymmetry_Pilot,2022.1.3,MacIntel,59.99880002,62b2a6a25f2ba72662469a01,0,136,136,93,1,threefour,,,,,,,,,,,,,,,,,,,,,,,,,,,,,,,,,,,,,,,,,,,,,,,,,,,,,,,,,,,,,,,,,,,,,,,,,,,,,,,,,,,,,,,,,,,,,,,,,,,,,,,,,,,,,,,,,,,,,,,,,,,,,,,,,,,,,,,,,,,,,,,,,,,,,,,,
,,,,,,613a50aa648466f836cb696f,62b2ac39afe45ccc6007968c,2022-06-22_24h45.00.255,Colour_Asymmetry_Pilot,2022.1.3,MacIntel,59.99880002,62b2a6a25f2ba72662469a01,0,137,137,47,1,fourthree,,,,,,,,,,,,,,,,,,,,,,,,,,,,,,,,,,,,,,,,,,,,,,,,,,,,,,,,,,,,,,,,,,,,,,,,,,,,,,,,,,,,,,,,,,,,,,,,,,,,,,,,,,,,,,,,,,,,,,,,,,,,,,,,,,,,,,,,,,,,,,,,,,,,,,,,
,,,,,,613a50aa648466f836cb696f,62b2ac39afe45ccc6007968c,2022-06-22_24h45.00.255,Colour_Asymmetry_Pilot,2022.1.3,MacIntel,59.99880002,62b2a6a25f2ba72662469a01,0,138,138,7,1,fourthree,,,,,,,,,,,,,,,,,,,,,,,,,,,,,,,,,,,,,,,,,,,,,,,,,,,,,,,,,,,,,,,,,,,,,,,,,,,,,,,,,,,,,,,,,,,,,,,,,,,,,,,,,,,,,,,,,,,,,,,,,,,,,,,,,,,,,,,,,,,,,,,,,,,,,,,,
,,,,,,613a50aa648466f836cb696f,62b2ac39afe45ccc6007968c,2022-06-22_24h45.00.255,Colour_Asymmetry_Pilot,2022.1.3,MacIntel,59.99880002,62b2a6a25f2ba72662469a01,0,139,139,137,1,onethree,,,,,,,,,,,,,,,,,,,,,,,,,,,,,,,,,,,,,,,,,,,,,,,,,,,,,,,,,,,,,,,,,,,,,,,,,,,,,,,,,,,,,,,,,,,,,,,,,,,,,,,,,,,,,,,,,,,,,,,,,,,,,,,,,,,,,,,,,,,,,,,,,,,,,,,,
,,,,,,613a50aa648466f836cb696f,62b2ac39afe45ccc6007968c,2022-06-22_24h45.00.255,Colour_Asymmetry_Pilot,2022.1.3,MacIntel,59.99880002,62b2a6a25f2ba72662469a01,0,140,140,157,1,threefour,,,,,,,,,,,,,,,,,,,,,,,,,,,,,,,,,,,,,,,,,,,,,,,,,,,,,,,,,,,,,,,,,,,,,,,,,,,,,,,,,,,,,,,,,,,,,,,,,,,,,,,,,,,,,,,,,,,,,,,,,,,,,,,,,,,,,,,,,,,,,,,,,,,,,,,,
,,,,,,613a50aa648466f836cb696f,62b2ac39afe45ccc6007968c,2022-06-22_24h45.00.255,Colour_Asymmetry_Pilot,2022.1.3,MacIntel,59.99880002,62b2a6a25f2ba72662469a01,0,141,141,4,1,threeone,,,,,,,,,,,,,,,,,,,,,,,,,,,,,,,,,,,,,,,,,,,,,,,,,,,,,,,,,,,,,,,,,,,,,,,,,,,,,,,,,,,,,,,,,,,,,,,,,,,,,,,,,,,,,,,,,,,,,,,,,,,,,,,,,,,,,,,,,,,,,,,,,,,,,,,,
,,,,,,613a50aa648466f836cb696f,62b2ac39afe45ccc6007968c,2022-06-22_24h45.00.255,Colour_Asymmetry_Pilot,2022.1.3,MacIntel,59.99880002,62b2a6a25f2ba72662469a01,0,142,142,41,1,onethree,,,,,,,,,,,,,,,,,,,,,,,,,,,,,,,,,,,,,,,,,,,,,,,,,,,,,,,,,,,,,,,,,,,,,,,,,,,,,,,,,,,,,,,,,,,,,,,,,,,,,,,,,,,,,,,,,,,,,,,,,,,,,,,,,,,,,,,,,,,,,,,,,,,,,,,,
,,,,,,613a50aa648466f836cb696f,62b2ac39afe45ccc6007968c,2022-06-22_24h45.00.255,Colour_Asymmetry_Pilot,2022.1.3,MacIntel,59.99880002,62b2a6a25f2ba72662469a01,0,143,143,40,1,onetwo,,,,,,,,,,,,,,,,,,,,,,,,,,,,,,,,,,,,,,,,,,,,,,,,,,,,,,,,,,,,,,,,,,,,,,,,,,,,,,,,,,,,,,,,,,,,,,,,,,,,,,,,,,,,,,,,,,,,,,,,,,,,,,,,,,,,,,,,,,,,,,,,,,,,,,,,
,,,,,,613a50aa648466f836cb696f,62b2ac39afe45ccc6007968c,2022-06-22_24h45.00.255,Colour_Asymmetry_Pilot,2022.1.3,MacIntel,59.99880002,62b2a6a25f2ba72662469a01,0,144,144,13,1,threefour,,,,,,,,,,,,,,,,,,,,,,,,,,,,,,,,,,,,,,,,,,,,,,,,,,,,,,,,,,,,,,,,,,,,,,,,,,,,,,,,,,,,,,,,,,,,,,,,,,,,,,,,,,,,,,,,,,,,,,,,,,,,,,,,,,,,,,,,,,,,,,,,,,,,,,,,
,,,,,,613a50aa648466f836cb696f,62b2ac39afe45ccc6007968c,2022-06-22_24h45.00.255,Colour_Asymmetry_Pilot,2022.1.3,MacIntel,59.99880002,62b2a6a25f2ba72662469a01,0,145,145,140,1,threeone,,,,,,,,,,,,,,,,,,,,,,,,,,,,,,,,,,,,,,,,,,,,,,,,,,,,,,,,,,,,,,,,,,,,,,,,,,,,,,,,,,,,,,,,,,,,,,,,,,,,,,,,,,,,,,,,,,,,,,,,,,,,,,,,,,,,,,,,,,,,,,,,,,,,,,,,
,,,,,,613a50aa648466f836cb696f,62b2ac39afe45ccc6007968c,2022-06-22_24h45.00.255,Colour_Asymmetry_Pilot,2022.1.3,MacIntel,59.99880002,62b2a6a25f2ba72662469a01,0,146,146,107,1,twofour,,,,,,,,,,,,,,,,,,,,,,,,,,,,,,,,,,,,,,,,,,,,,,,,,,,,,,,,,,,,,,,,,,,,,,,,,,,,,,,,,,,,,,,,,,,,,,,,,,,,,,,,,,,,,,,,,,,,,,,,,,,,,,,,,,,,,,,,,,,,,,,,,,,,,,,,
,,,,,,613a50aa648466f836cb696f,62b2ac39afe45ccc6007968c,2022-06-22_24h45.00.255,Colour_Asymmetry_Pilot,2022.1.3,MacIntel,59.99880002,62b2a6a25f2ba72662469a01,0,147,147,36,1,threeone,,,,,,,,,,,,,,,,,,,,,,,,,,,,,,,,,,,,,,,,,,,,,,,,,,,,,,,,,,,,,,,,,,,,,,,,,,,,,,,,,,,,,,,,,,,,,,,,,,,,,,,,,,,,,,,,,,,,,,,,,,,,,,,,,,,,,,,,,,,,,,,,,,,,,,,,
,,,,,,613a50aa648466f836cb696f,62b2ac39afe45ccc6007968c,2022-06-22_24h45.00.255,Colour_Asymmetry_Pilot,2022.1.3,MacIntel,59.99880002,62b2a6a25f2ba72662469a01,0,148,148,53,1,threefour,,,,,,,,,,,,,,,,,,,,,,,,,,,,,,,,,,,,,,,,,,,,,,,,,,,,,,,,,,,,,,,,,,,,,,,,,,,,,,,,,,,,,,,,,,,,,,,,,,,,,,,,,,,,,,,,,,,,,,,,,,,,,,,,,,,,,,,,,,,,,,,,,,,,,,,,
,,,,,,613a50aa648466f836cb696f,62b2ac39afe45ccc6007968c,2022-06-22_24h45.00.255,Colour_Asymmetry_Pilot,2022.1.3,MacIntel,59.99880002,62b2a6a25f2ba72662469a01,0,149,149,32,1,onetwo,,,,,,,,,,,,,,,,,,,,,,,,,,,,,,,,,,,,,,,,,,,,,,,,,,,,,,,,,,,,,,,,,,,,,,,,,,,,,,,,,,,,,,,,,,,,,,,,,,,,,,,,,,,,,,,,,,,,,,,,,,,,,,,,,,,,,,,,,,,,,,,,,,,,,,,,
,,,,,,613a50aa648466f836cb696f,62b2ac39afe45ccc6007968c,2022-06-22_24h45.00.255,Colour_Asymmetry_Pilot,2022.1.3,MacIntel,59.99880002,62b2a6a25f2ba72662469a01,0,150,150,59,1,twofour,,,,,,,,,,,,,,,,,,,,,,,,,,,,,,,,,,,,,,,,,,,,,,,,,,,,,,,,,,,,,,,,,,,,,,,,,,,,,,,,,,,,,,,,,,,,,,,,,,,,,,,,,,,,,,,,,,,,,,,,,,,,,,,,,,,,,,,,,,,,,,,,,,,,,,,,
,,,,,,613a50aa648466f836cb696f,62b2ac39afe45ccc6007968c,2022-06-22_24h45.00.255,Colour_Asymmetry_Pilot,2022.1.3,MacIntel,59.99880002,62b2a6a25f2ba72662469a01,0,151,151,119,1,fourthree,,,,,,,,,,,,,,,,,,,,,,,,,,,,,,,,,,,,,,,,,,,,,,,,,,,,,,,,,,,,,,,,,,,,,,,,,,,,,,,,,,,,,,,,,,,,,,,,,,,,,,,,,,,,,,,,,,,,,,,,,,,,,,,,,,,,,,,,,,,,,,,,,,,,,,,,
,,,,,,613a50aa648466f836cb696f,62b2ac39afe45ccc6007968c,2022-06-22_24h45.00.255,Colour_Asymmetry_Pilot,2022.1.3,MacIntel,59.99880002,62b2a6a25f2ba72662469a01,0,152,152,58,1,twoone,,,,,,,,,,,,,,,,,,,,,,,,,,,,,,,,,,,,,,,,,,,,,,,,,,,,,,,,,,,,,,,,,,,,,,,,,,,,,,,,,,,,,,,,,,,,,,,,,,,,,,,,,,,,,,,,,,,,,,,,,,,,,,,,,,,,,,,,,,,,,,,,,,,,,,,,
,,,,,,613a50aa648466f836cb696f,62b2ac39afe45ccc6007968c,2022-06-22_24h45.00.255,Colour_Asymmetry_Pilot,2022.1.3,MacIntel,59.99880002,62b2a6a25f2ba72662469a01,0,153,153,94,1,fourtwo,,,,,,,,,,,,,,,,,,,,,,,,,,,,,,,,,,,,,,,,,,,,,,,,,,,,,,,,,,,,,,,,,,,,,,,,,,,,,,,,,,,,,,,,,,,,,,,,,,,,,,,,,,,,,,,,,,,,,,,,,,,,,,,,,,,,,,,,,,,,,,,,,,,,,,,,
,,,,,,613a50aa648466f836cb696f,62b2ac39afe45ccc6007968c,2022-06-22_24h45.00.255,Colour_Asymmetry_Pilot,2022.1.3,MacIntel,59.99880002,62b2a6a25f2ba72662469a01,0,154,154,86,1,fourtwo,,,,,,,,,,,,,,,,,,,,,,,,,,,,,,,,,,,,,,,,,,,,,,,,,,,,,,,,,,,,,,,,,,,,,,,,,,,,,,,,,,,,,,,,,,,,,,,,,,,,,,,,,,,,,,,,,,,,,,,,,,,,,,,,,,,,,,,,,,,,,,,,,,,,,,,,
,,,,,,613a50aa648466f836cb696f,62b2ac39afe45ccc6007968c,2022-06-22_24h45.00.255,Colour_Asymmetry_Pilot,2022.1.3,MacIntel,59.99880002,62b2a6a25f2ba72662469a01,0,155,155,63,1,fourthree,,,,,,,,,,,,,,,,,,,,,,,,,,,,,,,,,,,,,,,,,,,,,,,,,,,,,,,,,,,,,,,,,,,,,,,,,,,,,,,,,,,,,,,,,,,,,,,,,,,,,,,,,,,,,,,,,,,,,,,,,,,,,,,,,,,,,,,,,,,,,,,,,,,,,,,,
,,,,,,613a50aa648466f836cb696f,62b2ac39afe45ccc6007968c,2022-06-22_24h45.00.255,Colour_Asymmetry_Pilot,2022.1.3,MacIntel,59.99880002,62b2a6a25f2ba72662469a01,0,156,156,91,1,twofour,,,,,,,,,,,,,,,,,,,,,,,,,,,,,,,,,,,,,,,,,,,,,,,,,,,,,,,,,,,,,,,,,,,,,,,,,,,,,,,,,,,,,,,,,,,,,,,,,,,,,,,,,,,,,,,,,,,,,,,,,,,,,,,,,,,,,,,,,,,,,,,,,,,,,,,,
,,,,,,613a50aa648466f836cb696f,62b2ac39afe45ccc6007968c,2022-06-22_24h45.00.255,Colour_Asymmetry_Pilot,2022.1.3,MacIntel,59.99880002,62b2a6a25f2ba72662469a01,0,157,157,16,1,onetwo,,,,,,,,,,,,,,,,,,,,,,,,,,,,,,,,,,,,,,,,,,,,,,,,,,,,,,,,,,,,,,,,,,,,,,,,,,,,,,,,,,,,,,,,,,,,,,,,,,,,,,,,,,,,,,,,,,,,,,,,,,,,,,,,,,,,,,,,,,,,,,,,,,,,,,,,
,,,,,,613a50aa648466f836cb696f,62b2ac39afe45ccc6007968c,2022-06-22_24h45.00.255,Colour_Asymmetry_Pilot,2022.1.3,MacIntel,59.99880002,62b2a6a25f2ba72662469a01,0,158,158,108,1,threeone,,,,,,,,,,,,,,,,,,,,,,,,,,,,,,,,,,,,,,,,,,,,,,,,,,,,,,,,,,,,,,,,,,,,,,,,,,,,,,,,,,,,,,,,,,,,,,,,,,,,,,,,,,,,,,,,,,,,,,,,,,,,,,,,,,,,,,,,,,,,,,,,,,,,,,,,
,,,,,,613a50aa648466f836cb696f,62b2ac39afe45ccc6007968c,2022-06-22_24h45.00.255,Colour_Asymmetry_Pilot,2022.1.3,MacIntel,59.99880002,62b2a6a25f2ba72662469a01,0,159,159,76,1,threeone,,,,,,,,,,,,,,,,,,,,,,,,,,,,,,,,,,,,,,,,,,,,,,,,,,,,,,,,,,,,,,,,,,,,,,,,,,,,,,,,,,,,,,,,,,,,,,,,,,,,,,,,,,,,,,,,,,,,,,,,,,,,,,,,,,,,,,,,,,,,,,,,,,,,,,,,
,,,,,,613a50aa648466f836cb696f,62b2ac39afe45ccc6007968c,2022-06-22_24h45.00.255,Colour_Asymmetry_Pilot,2022.1.3,MacIntel,59.99880002,62b2a6a25f2ba72662469a01,0,160,160,134,1,fourtwo,,,,,,,,,,,,,,,,,,,,,,,,,,,,,,,,,,,,,,,,,,,,,,,,,,,,,,,,,,,,,,,,,,,,,,,,,,,,,,,,,,,,,,,,,,,,,,,,,,,,,,,,,,,,,,,,,,,,,,,,,,,,,,,,,,,,,,,,,,,,,,,,,,,,,,,,
,,,,,,613a50aa648466f836cb696f,62b2ac39afe45ccc6007968c,2022-06-22_24h45.00.255,Colour_Asymmetry_Pilot,2022.1.3,MacIntel,59.99880002,62b2a6a25f2ba72662469a01,0,161,161,12,1,threeone,,,,,,,,,,,,,,,,,,,,,,,,,,,,,,,,,,,,,,,,,,,,,,,,,,,,,,,,,,,,,,,,,,,,,,,,,,,,,,,,,,,,,,,,,,,,,,,,,,,,,,,,,,,,,,,,,,,,,,,,,,,,,,,,,,,,,,,,,,,,,,,,,,,,,,,,
,,,,,,613a50aa648466f836cb696f,62b2ac39afe45ccc6007968c,2022-06-22_24h45.00.255,Colour_Asymmetry_Pilot,2022.1.3,MacIntel,59.99880002,62b2a6a25f2ba72662469a01,,,,,,,space,3.1392,space,2.4243,space,17.0693,space,3007.9891,space,1.8641,space,4.2037,"[-0.0040000000000000036,0.02739999999999987,-0.08239999999999992]",onethree,"[0.09799999999999986,-0.24719999999999998,0.15280000000000005]",4,35.6144,41.19140625,114.7304688,1,0,0,response1disk_5,-2.3515625,-1.30859375,1,0,0,rectangle_8,-2.3515625,-1.30859375,1,0,0,3,-2.3515625,-1.30859375,1,0,0,0,0,0,0,1,,,,,,,,,,,,,,,,,,,,,,,,,,,,,,,,,,,,,,,,,,,,,,,,,,,,,,,,,,,,,,,,,,,,,,,,,,,,,,,,,,,,,,,,,,,,,,,,,,,,,,,,,,,
,,,,,,613a50aa648466f836cb696f,62b2ac39afe45ccc6007968c,2022-06-22_24h45.00.255,Colour_Asymmetry_Pilot,2022.1.3,MacIntel,59.99880002,62b2a6a25f2ba72662469a01,,,,,,,,,,,,,,,,,,,"[-0.45899999999999996,-0.3256,-0.9374]",twoone,"[-0.2942,-0.24719999999999998,-0.357]",4,42.7364,36.7109375,104.90625,1,0,0,response1disk_5,1.75390625,0.625,1,0,0,rectangle_8,98.35546875,34.37890625,1,0,0,3,-11.90625,-12.53515625,1,0,0,1,0,1,0,1,response1disk_7,6,rectangle_4,,,,,,,,,,,,,,,,,,,,,,,,,,,,,,,,,,,,,,,,,,,,,,,,,,,,,,,,,,,,,,,,,,,,,,,,,,,,,,,,,,,,,,,,,,,,,,,,,,,,,,,,
,,,,,,613a50aa648466f836cb696f,62b2ac39afe45ccc6007968c,2022-06-22_24h45.00.255,Colour_Asymmetry_Pilot,2022.1.3,MacIntel,59.99880002,62b2a6a25f2ba72662469a01,,,,,,,,,,,,,,,,,,,"[-0.6706000000000001,-0.6157999999999999,-0.6786]",threeone,"[0.3568,-0.20799999999999996,-0.9844]",-4,4.5326,-50.8671875,107.6875,1,0,0,response7disk_5,-16.97265625,-13.0234375,1,0,0,rectangle_8,111.5390625,36.171875,1,0,0,3,8.53125,2.4453125,1,0,0,2,0,2,0,1,response1disk_7,6,rectangle_4,,,,,,,,,,,,,,,,,,,,,,,,,,,,,,,,,,,,,,,,,,,,,,,,,,,,,,,,,,,,,,,,,,,,,,,,,,,,,,,,,,,,,,,,,,,,,,,,,,,,,,,,
,,,,,,613a50aa648466f836cb696f,62b2ac39afe45ccc6007968c,2022-06-22_24h45.00.255,Colour_Asymmetry_Pilot,2022.1.3,MacIntel,59.99880002,62b2a6a25f2ba72662469a01,,,,,,,,,,,,,,,,,,,"[0.19199999999999995,0.18419999999999992,0.5136000000000001]",twofour,"[0.3568,-0.20799999999999996,-0.9844]",-4,7.2329,-56.8046875,93.3671875,1,0,0,response7disk_5,8.17578125,8.38671875,1,0,0,rectangle_8,8.17578125,8.38671875,1,0,0,3,8.17578125,8.38671875,1,0,0,3,0,3,0,1,,,,,,,,,,,,,,,,,,,,,,,,,,,,,,,,,,,,,,,,,,,,,,,,,,,,,,,,,,,,,,,,,,,,,,,,,,,,,,,,,,,,,,,,,,,,,,,,,,,,,,,,,,,
,,,,,,613a50aa648466f836cb696f,62b2ac39afe45ccc6007968c,2022-06-22_24h45.00.255,Colour_Asymmetry_Pilot,2022.1.3,MacIntel,59.99880002,62b2a6a25f2ba72662469a01,,,,,,,,,,,,,,,,,,,"[0.23120000000000007,-0.7726,-0.34120000000000006]",onetwo,"[-0.5452,-0.608,0.2470000000000001]",-4,4.1506,-45.296875,91.22265625,1,0,0,response7disk_5,8.609375,-0.09375,1,0,0,rectangle_8,8.609375,-0.09375,1,0,0,3,8.609375,-0.09375,1,0,0,4,0,4,0,1,,,,,,,,,,,,,,,,,,,,,,,,,,,,,,,,,,,,,,,,,,,,,,,,,,,,,,,,,,,,,,,,,,,,,,,,,,,,,,,,,,,,,,,,,,,,,,,,,,,,,,,,,,,
,,,,,,613a50aa648466f836cb696f,62b2ac39afe45ccc6007968c,2022-06-22_24h45.00.255,Colour_Asymmetry_Pilot,2022.1.3,MacIntel,59.99880002,62b2a6a25f2ba72662469a01,,,,,,,,,,,,,,,,,,,"[0.05879999999999996,0.2784,0.5841999999999998]",fourtwo,"[-0.4902000000000001,0.2704,-0.45899999999999996]",-4,2.7014,-34.265625,94.64453125,1,0,0,response7disk_5,3.296875,7.59375,1,0,0,rectangle_8,3.296875,7.59375,1,0,0,3,3.296875,7.59375,1,0,0,5,0,5,0,1,,,,,,,,,,,,,,,,,,,,,,,,,,,,,,,,,,,,,,,,,,,,,,,,,,,,,,,,,,,,,,,,,,,,,,,,,,,,,,,,,,,,,,,,,,,,,,,,,,,,,,,,,,,
,,,,,,613a50aa648466f836cb696f,62b2ac39afe45ccc6007968c,2022-06-22_24h45.00.255,Colour_Asymmetry_Pilot,2022.1.3,MacIntel,59.99880002,62b2a6a25f2ba72662469a01,,,,,,,,,,,,,,,,,,,"[-0.4746,-0.0354000000000001,0.5449999999999999]",twofour,"[0.3802000000000001,0.19199999999999995,-0.6394]",-4,1.6668,-31.03125,81.25,1,0,0,response7disk_5,-5.9453125,3.546875,1,0,0,rectangle_8,-5.9453125,3.546875,1,0,0,3,-5.9453125,3.546875,1,0,0,6,0,6,0,1,,,,,,,,,,,,,,,,,,,,,,,,,,,,,,,,,,,,,,,,,,,,,,,,,,,,,,,,,,,,,,,,,,,,,,,,,,,,,,,,,,,,,,,,,,,,,,,,,,,,,,,,,,,
,,,,,,613a50aa648466f836cb696f,62b2ac39afe45ccc6007968c,2022-06-22_24h45.00.255,Colour_Asymmetry_Pilot,2022.1.3,MacIntel,59.99880002,62b2a6a25f2ba72662469a01,,,,,,,,,,,,,,,,,,,,twoone,,-3,3.7685,,,,,,,,,,,,,,,,,,,,,,,,,,,,,,,,space,3.0651,"[0.3881999999999999,-0.23939999999999995,-0.05040000000000011]","[0.9372,0.9450000000000001,0.8980000000000001]",-86.94140625,38.6796875,1,0,0,response7disk,-17.76171875,2.80859375,1,0,0,rectangle,-17.76171875,2.80859375,1,0,0,,1,0.0021,0,-17.76171875,2.80859375,1,0,0,0,0,0,122,1,41,second,,,,,,,,,,,,,,,,,,,,,,,,,,,,,,,,,,,,,,,,,,,,,,,,,,,,,,,,,,,,,,,,,,,
,,,,,,613a50aa648466f836cb696f,62b2ac39afe45ccc6007968c,2022-06-22_24h45.00.255,Colour_Asymmetry_Pilot,2022.1.3,MacIntel,59.99880002,62b2a6a25f2ba72662469a01,,,,,,,,,,,,,,,,,,,,fourtwo,,-4,3.7837,,,,,,,,,,,,,,,,,,,,,,,,,,,,,,,,,,"[-0.24719999999999998,0.5213999999999999,-0.12959999999999994]","[0.9686000000000001,0.3802000000000001,0.19999999999999996]",-37,93.69921875,1,0,0,response7disk,-0.08203125,-7.58984375,1,0,0,rectangle,-0.08203125,-7.58984375,1,0,0,,3,0.0021,0,-0.08203125,-7.58984375,1,0,0,0,1,1,29,1,29,first,,,,,,,,,,,,,,,,,,,,,,,,,,,,,,,,,,,,,,,,,,,,,,,,,,,,,,,,,,,,,,,,,,,
,,,,,,613a50aa648466f836cb696f,62b2ac39afe45ccc6007968c,2022-06-22_24h45.00.255,Colour_Asymmetry_Pilot,2022.1.3,MacIntel,59.99880002,62b2a6a25f2ba72662469a01,,,,,,,,,,,,,,,,,,,,fourthree,,-4,2.3995,,,,,,,,,,,,,,,,,,,,,,,,,,,,,,,,,,"[-0.10599999999999998,-0.15300000000000002,0.15280000000000005]","[0.5528,0.7409999999999999,-0.71]",-51.48046875,100.84375,1,0,0,response7disk,-2.69921875,1.29296875,1,0,0,rectangle,-2.69921875,1.29296875,1,0,0,,3,0.0001,0,-2.69921875,1.29296875,1,0,0,0,2,2,88,1,7,second,,,,,,,,,,,,,,,,,,,,,,,,,,,,,,,,,,,,,,,,,,,,,,,,,,,,,,,,,,,,,,,,,,,
,,,,,,613a50aa648466f836cb696f,62b2ac39afe45ccc6007968c,2022-06-22_24h45.00.255,Colour_Asymmetry_Pilot,2022.1.3,MacIntel,59.99880002,62b2a6a25f2ba72662469a01,,,,,,,,,,,,,,,,,,,,onethree,,-4,0.6995,,,,,,,,,,,,,,,,,,,,,,,,,,,,,,,,,,"[-0.9688,-0.4902000000000001,-0.12159999999999993]","[0.23120000000000007,-0.7726,-0.34120000000000006]",-32.140625,84.95703125,1,0,0,response7disk,14.1171875,-4.109375,1,0,0,rectangle,14.1171875,-4.109375,1,0,0,,2,0.0018,0,14.1171875,-4.109375,1,0,0,0,3,3,60,1,60,first,,,,,,,,,,,,,,,,,,,,,,,,,,,,,,,,,,,,,,,,,,,,,,,,,,,,,,,,,,,,,,,,,,,
,,,,,,613a50aa648466f836cb696f,62b2ac39afe45ccc6007968c,2022-06-22_24h45.00.255,Colour_Asymmetry_Pilot,2022.1.3,MacIntel,59.99880002,62b2a6a25f2ba72662469a01,,,,,,,,,,,,,,,,,,,,fourthree,,-3,1.5511,,,,,,,,,,,,,,,,,,,,,,,,,,,,,,,,,,"[-0.07459999999999989,0.12139999999999995,-0.9922]","[-0.30200000000000005,0.14500000000000002,0.2784]",-82.27734375,30.59765625,1,0,0,response7disk,1.0703125,-3.84375,1,0,0,rectangle,1.0703125,-3.84375,1,0,0,,1,0.0019,0,1.0703125,-3.84375,1,0,0,0,4,4,20,1,20,first,,,,,,,,,,,,,,,,,,,,,,,,,,,,,,,,,,,,,,,,,,,,,,,,,,,,,,,,,,,,,,,,,,,
,,,,,,613a50aa648466f836cb696f,62b2ac39afe45ccc6007968c,2022-06-22_24h45.00.255,Colour_Asymmetry_Pilot,2022.1.3,MacIntel,59.99880002,62b2a6a25f2ba72662469a01,,,,,,,,,,,,,,,,,,,,twoone,,-3,1.1154,,,,,,,,,,,,,,,,,,,,,,,,,,,,,,,,,,"[-0.17659999999999998,-0.2864,-0.8354]","[0.7018,0.7176,0.6155999999999999]",-75.08203125,49.86328125,1,0,0,response7disk,-0.5234375,-5.1171875,1,0,0,rectangle,-0.5234375,-5.1171875,1,0,0,,1,0.0002,0,-0.5234375,-5.1171875,1,0,0,0,5,5,25,1,25,first,,,,,,,,,,,,,,,,,,,,,,,,,,,,,,,,,,,,,,,,,,,,,,,,,,,,,,,,,,,,,,,,,,,
,,,,,,613a50aa648466f836cb696f,62b2ac39afe45ccc6007968c,2022-06-22_24h45.00.255,Colour_Asymmetry_Pilot,2022.1.3,MacIntel,59.99880002,62b2a6a25f2ba72662469a01,,,,,,,,,,,,,,,,,,,,twoone,,-4,0.5665,,,,,,,,,,,,,,,,,,,,,,,,,,,,,,,,,,"[0.796,0.2156,-0.27859999999999996]","[-0.24719999999999998,-0.0354000000000001,0.3175999999999999]",-43.1640625,109.5820313,1,0,0,response7disk,-1.80859375,-11.6875,1,0,0,rectangle,-1.80859375,-11.6875,1,0,0,,2,0.0019,0,-1.80859375,-11.6875,1,0,0,0,6,6,6,1,6,first,,,,,,,,,,,,,,,,,,,,,,,,,,,,,,,,,,,,,,,,,,,,,,,,,,,,,,,,,,,,,,,,,,,
,,,,,,613a50aa648466f836cb696f,62b2ac39afe45ccc6007968c,2022-06-22_24h45.00.255,Colour_Asymmetry_Pilot,2022.1.3,MacIntel,59.99880002,62b2a6a25f2ba72662469a01,,,,,,,,,,,,,,,,,,,,fourthree,,1,3.3352,,,,,,,,,,,,,,,,,,,,,,,,,,,,,,,,,,"[-0.011800000000000033,-0.906,-0.45100000000000007]","[-0.34920000000000007,-0.702,-0.5216]",40.828125,-80.16015625,1,0,0,response3disk,-0.6640625,6.95703125,1,0,0,rectangle,-0.6640625,6.95703125,1,0,0,,1,0.0014,0,-0.6640625,6.95703125,1,0,0,0,7,7,3,1,3,first,,,,,,,,,,,,,,,,,,,,,,,,,,,,,,,,,,,,,,,,,,,,,,,,,,,,,,,,,,,,,,,,,,,
,,,,,,613a50aa648466f836cb696f,62b2ac39afe45ccc6007968c,2022-06-22_24h45.00.255,Colour_Asymmetry_Pilot,2022.1.3,MacIntel,59.99880002,62b2a6a25f2ba72662469a01,,,,,,,,,,,,,,,,,,,,onetwo,,-4,0.7501,,,,,,,,,,,,,,,,,,,,,,,,,,,,,,,,,,"[-0.5922000000000001,-0.7492000000000001,-0.5296000000000001]","[0.3568,-0.20799999999999996,-0.9844]",-62.55859375,91.25390625,1,0,0,response7disk,-7.0859375,-5.62109375,1,0,0,rectangle,-7.0859375,-5.62109375,1,0,0,,1,0.0021,0,-7.0859375,-5.62109375,1,0,0,0,8,8,99,1,18,second,,,,,,,,,,,,,,,,,,,,,,,,,,,,,,,,,,,,,,,,,,,,,,,,,,,,,,,,,,,,,,,,,,,
,,,,,,613a50aa648466f836cb696f,62b2ac39afe45ccc6007968c,2022-06-22_24h45.00.255,Colour_Asymmetry_Pilot,2022.1.3,MacIntel,59.99880002,62b2a6a25f2ba72662469a01,,,,,,,,,,,,,,,,,,,,threefour,,1,2.8166,,,,,,,,,,,,,,,,,,,,,,,,,,,,,,,,,,"[1,0.12939999999999996,-1]","[-0.7412000000000001,-0.08239999999999992,-0.6864]",39.421875,-76.6015625,1,0,0,response3disk,-3.29296875,1.7734375,1,0,0,rectangle,-3.29296875,1.7734375,1,0,0,,3,0.0015,0,-3.29296875,1.7734375,1,0,0,0,9,9,74,1,74,first,,,,,,,,,,,,,,,,,,,,,,,,,,,,,,,,,,,,,,,,,,,,,,,,,,,,,,,,,,,,,,,,,,,
,,,,,,613a50aa648466f836cb696f,62b2ac39afe45ccc6007968c,2022-06-22_24h45.00.255,Colour_Asymmetry_Pilot,2022.1.3,MacIntel,59.99880002,62b2a6a25f2ba72662469a01,,,,,,,,,,,,,,,,,,,,twoone,,-4,1.3664,,,,,,,,,,,,,,,,,,,,,,,,,,,,,,,,,,"[-0.4902000000000001,0.2704,-0.45899999999999996]","[0.9842,0.7409999999999999,-0.6628000000000001]",-43.140625,102.1875,1,0,0,response7disk,2.47265625,1.28515625,1,0,0,rectangle,2.47265625,1.28515625,1,0,0,,3,0.0002,0,2.47265625,1.28515625,1,0,0,0,10,10,108,1,27,second,,,,,,,,,,,,,,,,,,,,,,,,,,,,,,,,,,,,,,,,,,,,,,,,,,,,,,,,,,,,,,,,,,,
,,,,,,613a50aa648466f836cb696f,62b2ac39afe45ccc6007968c,2022-06-22_24h45.00.255,Colour_Asymmetry_Pilot,2022.1.3,MacIntel,59.99880002,62b2a6a25f2ba72662469a01,,,,,,,,,,,,,,,,,,,,onetwo,,-4,0.5989,,,,,,,,,,,,,,,,,,,,,,,,,,,,,,,,,,"[0.0351999999999999,0.41159999999999997,0.0038000000000000256]","[-0.9844,-0.9688,-0.9922]",-23.671875,100.3242188,1,0,0,response7disk,1.48828125,0.296875,1,0,0,rectangle,1.48828125,0.296875,1,0,0,,1,0.0011,0,1.48828125,0.296875,1,0,0,0,11,11,62,1,62,first,,,,,,,,,,,,,,,,,,,,,,,,,,,,,,,,,,,,,,,,,,,,,,,,,,,,,,,,,,,,,,,,,,,
,,,,,,613a50aa648466f836cb696f,62b2ac39afe45ccc6007968c,2022-06-22_24h45.00.255,Colour_Asymmetry_Pilot,2022.1.3,MacIntel,59.99880002,62b2a6a25f2ba72662469a01,,,,,,,,,,,,,,,,,,,,twofour,,-1,6.3324,,,,,,,,,,,,,,,,,,,,,,,,,,,,,,,,,,"[-0.17659999999999998,0.3253999999999999,0.19999999999999996]","[-0.7412000000000001,-0.08239999999999992,-0.6864]",-42.43359375,-103.6953125,1,0,0,response5disk,-0.05078125,5.8046875,1,0,0,rectangle,-0.05078125,5.8046875,1,0,0,,1,0,0,-0.05078125,5.8046875,1,0,0,0,12,12,19,1,19,first,,,,,,,,,,,,,,,,,,,,,,,,,,,,,,,,,,,,,,,,,,,,,,,,,,,,,,,,,,,,,,,,,,,
,,,,,,613a50aa648466f836cb696f,62b2ac39afe45ccc6007968c,2022-06-22_24h45.00.255,Colour_Asymmetry_Pilot,2022.1.3,MacIntel,59.99880002,62b2a6a25f2ba72662469a01,,,,,,,,,,,,,,,,,,,,fourtwo,,-4,0.8175,,,,,,,,,,,,,,,,,,,,,,,,,,,,,,,,,,"[0.5449999999999999,-0.31000000000000005,-0.0354000000000001]","[-0.48240000000000005,0.3175999999999999,0.2156]",-53.01171875,78.984375,1,0,0,response7disk,5.11328125,0.109375,1,0,0,rectangle,5.11328125,0.109375,1,0,0,,3,0.0015,0,5.11328125,0.109375,1,0,0,0,13,13,66,1,66,first,,,,,,,,,,,,,,,,,,,,,,,,,,,,,,,,,,,,,,,,,,,,,,,,,,,,,,,,,,,,,,,,,,,
,,,,,,613a50aa648466f836cb696f,62b2ac39afe45ccc6007968c,2022-06-22_24h45.00.255,Colour_Asymmetry_Pilot,2022.1.3,MacIntel,59.99880002,62b2a6a25f2ba72662469a01,,,,,,,,,,,,,,,,,,,,fourtwo,,-1,3.767,,,,,,,,,,,,,,,,,,,,,,,,,,,,,,,,,,"[0.4196,0.4665999999999999,0.3568]","[-0.6235999999999999,-0.6786,-0.08239999999999992]",-43.6328125,-73.83203125,1,0,0,response5disk,-4.38671875,2.33203125,1,0,0,rectangle,-4.38671875,2.33203125,1,0,0,,1,0.0019,0,-4.38671875,2.33203125,1,0,0,0,14,14,24,1,24,first,,,,,,,,,,,,,,,,,,,,,,,,,,,,,,,,,,,,,,,,,,,,,,,,,,,,,,,,,,,,,,,,,,,
,,,,,,613a50aa648466f836cb696f,62b2ac39afe45ccc6007968c,2022-06-22_24h45.00.255,Colour_Asymmetry_Pilot,2022.1.3,MacIntel,59.99880002,62b2a6a25f2ba72662469a01,,,,,,,,,,,,,,,,,,,,threefour,,-4,0.6519,,,,,,,,,,,,,,,,,,,,,,,,,,,,,,,,,,"[-0.9296,-0.12959999999999994,-0.043199999999999905]","[0.5528,0.7409999999999999,-0.71]",-41.8515625,79.27734375,1,0,0,response7disk,3.44921875,-7.14453125,1,0,0,rectangle,3.44921875,-7.14453125,1,0,0,,2,0.0012,0,3.44921875,-7.14453125,1,0,0,0,15,15,39,1,39,first,,,,,,,,,,,,,,,,,,,,,,,,,,,,,,,,,,,,,,,,,,,,,,,,,,,,,,,,,,,,,,,,,,,
