trials.thisRepN,trials.thisTrialN,trials.thisN,trials.thisIndex,trials.ran,Colourcodes,participant,session,date,expName,psychopyVersion,OS,frameRate,study_id,trials_4.thisRepN,trials_4.thisTrialN,trials_4.thisN,trials_4.thisIndex,trials_4.ran,StimulusPos,key_resp.keys,key_resp.rt,key_resp_2.keys,key_resp_2.rt,key_resp_15.keys,key_resp_15.rt,key_resp_17.keys,key_resp_17.rt,key_resp_9.keys,key_resp_9.rt,key_resp_10.keys,key_resp_10.rt,Circle1_col,Ecc,Circle2_col,similarity,response_time,mouse_5.x,mouse_5.y,mouse_5.leftButton,mouse_5.midButton,mouse_5.rightButton,mouse_5.clicked_name,mouse_10.x,mouse_10.y,mouse_10.leftButton,mouse_10.midButton,mouse_10.rightButton,mouse_10.clicked_name,mouse_7.x,mouse_7.y,mouse_7.leftButton,mouse_7.midButton,mouse_7.rightButton,catchnumberprac,mouse_6.x,mouse_6.y,mouse_6.leftButton,mouse_6.midButton,mouse_6.rightButton,duringprac.thisRepN,duringprac.thisTrialN,duringprac.thisN,duringprac.thisIndex,duringprac.ran,mouse_7.clicked_name,catchprac,mouse_6.clicked_name,key_resp_22.keys,key_resp_22.rt,Circle1_colour,Circle2_colour,mouse.x,mouse.y,mouse.leftButton,mouse.midButton,mouse.rightButton,mouse.clicked_name,mouse_2.x,mouse_2.y,mouse_2.leftButton,mouse_2.midButton,mouse_2.rightButton,mouse_2.clicked_name,mouse_3.x,mouse_3.y,mouse_3.leftButton,mouse_3.midButton,mouse_3.rightButton,catchresponse,catchnumber,response_time_catch,Catch,mouse_11.x,mouse_11.y,mouse_11.leftButton,mouse_11.midButton,mouse_11.rightButton,trials_2.thisRepN,trials_2.thisTrialN,trials_2.thisN,trials_2.thisIndex,trials_2.ran,Colourpair,Temporder,mouse_3.clicked_name,mouse_11.clicked_name,trials_3.thisRepN,trials_3.thisTrialN,trials_3.thisN,trials_3.thisIndex,trials_3.ran,key_resp_instr_Ishi.keys,key_resp_instr_Ishi.rt,Ishi_trial_keyresp.keys,Ishi_trial_keyresp.rt,Ishi_textbox.text,Ishi_loop.thisRepN,Ishi_loop.thisTrialN,Ishi_loop.thisN,Ishi_loop.thisIndex,Ishi_loop.ran,imageaddress,textbox.text,mouse_4.x,mouse_4.y,mouse_4.leftButton,mouse_4.midButton,mouse_4.rightButton,mouse_4.clicked_name,textbox_2.text,mouse_8.x,mouse_8.y,mouse_8.leftButton,mouse_8.midButton,mouse_8.rightButton,mouse_8.clicked_name,textbox_3.text,mouse_9.x,mouse_9.y,mouse_9.leftButton,mouse_9.midButton,mouse_9.rightButton,mouse_9.clicked_name,textbox_4.text,mouse_12.x,mouse_12.y,mouse_12.leftButton,mouse_12.midButton,mouse_12.rightButton,mouse_12.clicked_name,textbox_5.text,mouse_13.x,mouse_13.y,mouse_13.leftButton,mouse_13.midButton,mouse_13.rightButton,mouse_13.clicked_name,textbox_6.text,mouse_14.x,mouse_14.y,mouse_14.leftButton,mouse_14.midButton,mouse_14.rightButton,mouse_14.clicked_name,textbox_7.text,mouse_15.x,mouse_15.y,mouse_15.leftButton,mouse_15.midButton,mouse_15.rightButton,mouse_15.clicked_name
0,0,0,14,1,,612f7826436df8fb008c4f0d,62bbfaa76ef624f4e415c7ad,2022-06-29_09h10.45.880,Colour_Asymmetry_Pilot,2022.1.3,Win32,59.91252771,62bbe60bf3d75ef465d3e404,,,,,,,,,,,,,,,,,,,,,,,,,,,,,,,,,,,,,,,,,,,,,,,,,,,,,,,,,,,,,,,,,,,,,,,,,,,,,,,,,,,,,,,,,,,,,,,,,,,,,,,,,,,,,,,,,,,,,,,,,,,,,,,,,,,,,,,,,,,,,,,,,,,,,,,,,,,,,,
0,1,1,1,1,,612f7826436df8fb008c4f0d,62bbfaa76ef624f4e415c7ad,2022-06-29_09h10.45.880,Colour_Asymmetry_Pilot,2022.1.3,Win32,59.91252771,62bbe60bf3d75ef465d3e404,,,,,,,,,,,,,,,,,,,,,,,,,,,,,,,,,,,,,,,,,,,,,,,,,,,,,,,,,,,,,,,,,,,,,,,,,,,,,,,,,,,,,,,,,,,,,,,,,,,,,,,,,,,,,,,,,,,,,,,,,,,,,,,,,,,,,,,,,,,,,,,,,,,,,,,,,,,,,,
0,2,2,82,1,,612f7826436df8fb008c4f0d,62bbfaa76ef624f4e415c7ad,2022-06-29_09h10.45.880,Colour_Asymmetry_Pilot,2022.1.3,Win32,59.91252771,62bbe60bf3d75ef465d3e404,,,,,,,,,,,,,,,,,,,,,,,,,,,,,,,,,,,,,,,,,,,,,,,,,,,,,,,,,,,,,,,,,,,,,,,,,,,,,,,,,,,,,,,,,,,,,,,,,,,,,,,,,,,,,,,,,,,,,,,,,,,,,,,,,,,,,,,,,,,,,,,,,,,,,,,,,,,,,,
0,3,3,28,1,,612f7826436df8fb008c4f0d,62bbfaa76ef624f4e415c7ad,2022-06-29_09h10.45.880,Colour_Asymmetry_Pilot,2022.1.3,Win32,59.91252771,62bbe60bf3d75ef465d3e404,,,,,,,,,,,,,,,,,,,,,,,,,,,,,,,,,,,,,,,,,,,,,,,,,,,,,,,,,,,,,,,,,,,,,,,,,,,,,,,,,,,,,,,,,,,,,,,,,,,,,,,,,,,,,,,,,,,,,,,,,,,,,,,,,,,,,,,,,,,,,,,,,,,,,,,,,,,,,,
0,4,4,54,1,,612f7826436df8fb008c4f0d,62bbfaa76ef624f4e415c7ad,2022-06-29_09h10.45.880,Colour_Asymmetry_Pilot,2022.1.3,Win32,59.91252771,62bbe60bf3d75ef465d3e404,,,,,,,,,,,,,,,,,,,,,,,,,,,,,,,,,,,,,,,,,,,,,,,,,,,,,,,,,,,,,,,,,,,,,,,,,,,,,,,,,,,,,,,,,,,,,,,,,,,,,,,,,,,,,,,,,,,,,,,,,,,,,,,,,,,,,,,,,,,,,,,,,,,,,,,,,,,,,,
0,5,5,47,1,,612f7826436df8fb008c4f0d,62bbfaa76ef624f4e415c7ad,2022-06-29_09h10.45.880,Colour_Asymmetry_Pilot,2022.1.3,Win32,59.91252771,62bbe60bf3d75ef465d3e404,,,,,,,,,,,,,,,,,,,,,,,,,,,,,,,,,,,,,,,,,,,,,,,,,,,,,,,,,,,,,,,,,,,,,,,,,,,,,,,,,,,,,,,,,,,,,,,,,,,,,,,,,,,,,,,,,,,,,,,,,,,,,,,,,,,,,,,,,,,,,,,,,,,,,,,,,,,,,,
0,6,6,42,1,,612f7826436df8fb008c4f0d,62bbfaa76ef624f4e415c7ad,2022-06-29_09h10.45.880,Colour_Asymmetry_Pilot,2022.1.3,Win32,59.91252771,62bbe60bf3d75ef465d3e404,,,,,,,,,,,,,,,,,,,,,,,,,,,,,,,,,,,,,,,,,,,,,,,,,,,,,,,,,,,,,,,,,,,,,,,,,,,,,,,,,,,,,,,,,,,,,,,,,,,,,,,,,,,,,,,,,,,,,,,,,,,,,,,,,,,,,,,,,,,,,,,,,,,,,,,,,,,,,,
0,7,7,79,1,,612f7826436df8fb008c4f0d,62bbfaa76ef624f4e415c7ad,2022-06-29_09h10.45.880,Colour_Asymmetry_Pilot,2022.1.3,Win32,59.91252771,62bbe60bf3d75ef465d3e404,,,,,,,,,,,,,,,,,,,,,,,,,,,,,,,,,,,,,,,,,,,,,,,,,,,,,,,,,,,,,,,,,,,,,,,,,,,,,,,,,,,,,,,,,,,,,,,,,,,,,,,,,,,,,,,,,,,,,,,,,,,,,,,,,,,,,,,,,,,,,,,,,,,,,,,,,,,,,,
0,8,8,27,1,,612f7826436df8fb008c4f0d,62bbfaa76ef624f4e415c7ad,2022-06-29_09h10.45.880,Colour_Asymmetry_Pilot,2022.1.3,Win32,59.91252771,62bbe60bf3d75ef465d3e404,,,,,,,,,,,,,,,,,,,,,,,,,,,,,,,,,,,,,,,,,,,,,,,,,,,,,,,,,,,,,,,,,,,,,,,,,,,,,,,,,,,,,,,,,,,,,,,,,,,,,,,,,,,,,,,,,,,,,,,,,,,,,,,,,,,,,,,,,,,,,,,,,,,,,,,,,,,,,,
0,9,9,81,1,,612f7826436df8fb008c4f0d,62bbfaa76ef624f4e415c7ad,2022-06-29_09h10.45.880,Colour_Asymmetry_Pilot,2022.1.3,Win32,59.91252771,62bbe60bf3d75ef465d3e404,,,,,,,,,,,,,,,,,,,,,,,,,,,,,,,,,,,,,,,,,,,,,,,,,,,,,,,,,,,,,,,,,,,,,,,,,,,,,,,,,,,,,,,,,,,,,,,,,,,,,,,,,,,,,,,,,,,,,,,,,,,,,,,,,,,,,,,,,,,,,,,,,,,,,,,,,,,,,,
0,10,10,68,1,,612f7826436df8fb008c4f0d,62bbfaa76ef624f4e415c7ad,2022-06-29_09h10.45.880,Colour_Asymmetry_Pilot,2022.1.3,Win32,59.91252771,62bbe60bf3d75ef465d3e404,,,,,,,,,,,,,,,,,,,,,,,,,,,,,,,,,,,,,,,,,,,,,,,,,,,,,,,,,,,,,,,,,,,,,,,,,,,,,,,,,,,,,,,,,,,,,,,,,,,,,,,,,,,,,,,,,,,,,,,,,,,,,,,,,,,,,,,,,,,,,,,,,,,,,,,,,,,,,,
0,11,11,6,1,,612f7826436df8fb008c4f0d,62bbfaa76ef624f4e415c7ad,2022-06-29_09h10.45.880,Colour_Asymmetry_Pilot,2022.1.3,Win32,59.91252771,62bbe60bf3d75ef465d3e404,,,,,,,,,,,,,,,,,,,,,,,,,,,,,,,,,,,,,,,,,,,,,,,,,,,,,,,,,,,,,,,,,,,,,,,,,,,,,,,,,,,,,,,,,,,,,,,,,,,,,,,,,,,,,,,,,,,,,,,,,,,,,,,,,,,,,,,,,,,,,,,,,,,,,,,,,,,,,,
0,12,12,21,1,,612f7826436df8fb008c4f0d,62bbfaa76ef624f4e415c7ad,2022-06-29_09h10.45.880,Colour_Asymmetry_Pilot,2022.1.3,Win32,59.91252771,62bbe60bf3d75ef465d3e404,,,,,,,,,,,,,,,,,,,,,,,,,,,,,,,,,,,,,,,,,,,,,,,,,,,,,,,,,,,,,,,,,,,,,,,,,,,,,,,,,,,,,,,,,,,,,,,,,,,,,,,,,,,,,,,,,,,,,,,,,,,,,,,,,,,,,,,,,,,,,,,,,,,,,,,,,,,,,,
0,13,13,30,1,,612f7826436df8fb008c4f0d,62bbfaa76ef624f4e415c7ad,2022-06-29_09h10.45.880,Colour_Asymmetry_Pilot,2022.1.3,Win32,59.91252771,62bbe60bf3d75ef465d3e404,,,,,,,,,,,,,,,,,,,,,,,,,,,,,,,,,,,,,,,,,,,,,,,,,,,,,,,,,,,,,,,,,,,,,,,,,,,,,,,,,,,,,,,,,,,,,,,,,,,,,,,,,,,,,,,,,,,,,,,,,,,,,,,,,,,,,,,,,,,,,,,,,,,,,,,,,,,,,,
0,14,14,34,1,,612f7826436df8fb008c4f0d,62bbfaa76ef624f4e415c7ad,2022-06-29_09h10.45.880,Colour_Asymmetry_Pilot,2022.1.3,Win32,59.91252771,62bbe60bf3d75ef465d3e404,,,,,,,,,,,,,,,,,,,,,,,,,,,,,,,,,,,,,,,,,,,,,,,,,,,,,,,,,,,,,,,,,,,,,,,,,,,,,,,,,,,,,,,,,,,,,,,,,,,,,,,,,,,,,,,,,,,,,,,,,,,,,,,,,,,,,,,,,,,,,,,,,,,,,,,,,,,,,,
0,15,15,80,1,,612f7826436df8fb008c4f0d,62bbfaa76ef624f4e415c7ad,2022-06-29_09h10.45.880,Colour_Asymmetry_Pilot,2022.1.3,Win32,59.91252771,62bbe60bf3d75ef465d3e404,,,,,,,,,,,,,,,,,,,,,,,,,,,,,,,,,,,,,,,,,,,,,,,,,,,,,,,,,,,,,,,,,,,,,,,,,,,,,,,,,,,,,,,,,,,,,,,,,,,,,,,,,,,,,,,,,,,,,,,,,,,,,,,,,,,,,,,,,,,,,,,,,,,,,,,,,,,,,,
0,16,16,89,1,,612f7826436df8fb008c4f0d,62bbfaa76ef624f4e415c7ad,2022-06-29_09h10.45.880,Colour_Asymmetry_Pilot,2022.1.3,Win32,59.91252771,62bbe60bf3d75ef465d3e404,,,,,,,,,,,,,,,,,,,,,,,,,,,,,,,,,,,,,,,,,,,,,,,,,,,,,,,,,,,,,,,,,,,,,,,,,,,,,,,,,,,,,,,,,,,,,,,,,,,,,,,,,,,,,,,,,,,,,,,,,,,,,,,,,,,,,,,,,,,,,,,,,,,,,,,,,,,,,,
0,17,17,11,1,,612f7826436df8fb008c4f0d,62bbfaa76ef624f4e415c7ad,2022-06-29_09h10.45.880,Colour_Asymmetry_Pilot,2022.1.3,Win32,59.91252771,62bbe60bf3d75ef465d3e404,,,,,,,,,,,,,,,,,,,,,,,,,,,,,,,,,,,,,,,,,,,,,,,,,,,,,,,,,,,,,,,,,,,,,,,,,,,,,,,,,,,,,,,,,,,,,,,,,,,,,,,,,,,,,,,,,,,,,,,,,,,,,,,,,,,,,,,,,,,,,,,,,,,,,,,,,,,,,,
0,18,18,36,1,,612f7826436df8fb008c4f0d,62bbfaa76ef624f4e415c7ad,2022-06-29_09h10.45.880,Colour_Asymmetry_Pilot,2022.1.3,Win32,59.91252771,62bbe60bf3d75ef465d3e404,,,,,,,,,,,,,,,,,,,,,,,,,,,,,,,,,,,,,,,,,,,,,,,,,,,,,,,,,,,,,,,,,,,,,,,,,,,,,,,,,,,,,,,,,,,,,,,,,,,,,,,,,,,,,,,,,,,,,,,,,,,,,,,,,,,,,,,,,,,,,,,,,,,,,,,,,,,,,,
0,19,19,57,1,,612f7826436df8fb008c4f0d,62bbfaa76ef624f4e415c7ad,2022-06-29_09h10.45.880,Colour_Asymmetry_Pilot,2022.1.3,Win32,59.91252771,62bbe60bf3d75ef465d3e404,,,,,,,,,,,,,,,,,,,,,,,,,,,,,,,,,,,,,,,,,,,,,,,,,,,,,,,,,,,,,,,,,,,,,,,,,,,,,,,,,,,,,,,,,,,,,,,,,,,,,,,,,,,,,,,,,,,,,,,,,,,,,,,,,,,,,,,,,,,,,,,,,,,,,,,,,,,,,,
0,20,20,41,1,,612f7826436df8fb008c4f0d,62bbfaa76ef624f4e415c7ad,2022-06-29_09h10.45.880,Colour_Asymmetry_Pilot,2022.1.3,Win32,59.91252771,62bbe60bf3d75ef465d3e404,,,,,,,,,,,,,,,,,,,,,,,,,,,,,,,,,,,,,,,,,,,,,,,,,,,,,,,,,,,,,,,,,,,,,,,,,,,,,,,,,,,,,,,,,,,,,,,,,,,,,,,,,,,,,,,,,,,,,,,,,,,,,,,,,,,,,,,,,,,,,,,,,,,,,,,,,,,,,,
0,21,21,33,1,,612f7826436df8fb008c4f0d,62bbfaa76ef624f4e415c7ad,2022-06-29_09h10.45.880,Colour_Asymmetry_Pilot,2022.1.3,Win32,59.91252771,62bbe60bf3d75ef465d3e404,,,,,,,,,,,,,,,,,,,,,,,,,,,,,,,,,,,,,,,,,,,,,,,,,,,,,,,,,,,,,,,,,,,,,,,,,,,,,,,,,,,,,,,,,,,,,,,,,,,,,,,,,,,,,,,,,,,,,,,,,,,,,,,,,,,,,,,,,,,,,,,,,,,,,,,,,,,,,,
0,22,22,65,1,,612f7826436df8fb008c4f0d,62bbfaa76ef624f4e415c7ad,2022-06-29_09h10.45.880,Colour_Asymmetry_Pilot,2022.1.3,Win32,59.91252771,62bbe60bf3d75ef465d3e404,,,,,,,,,,,,,,,,,,,,,,,,,,,,,,,,,,,,,,,,,,,,,,,,,,,,,,,,,,,,,,,,,,,,,,,,,,,,,,,,,,,,,,,,,,,,,,,,,,,,,,,,,,,,,,,,,,,,,,,,,,,,,,,,,,,,,,,,,,,,,,,,,,,,,,,,,,,,,,
0,23,23,31,1,,612f7826436df8fb008c4f0d,62bbfaa76ef624f4e415c7ad,2022-06-29_09h10.45.880,Colour_Asymmetry_Pilot,2022.1.3,Win32,59.91252771,62bbe60bf3d75ef465d3e404,,,,,,,,,,,,,,,,,,,,,,,,,,,,,,,,,,,,,,,,,,,,,,,,,,,,,,,,,,,,,,,,,,,,,,,,,,,,,,,,,,,,,,,,,,,,,,,,,,,,,,,,,,,,,,,,,,,,,,,,,,,,,,,,,,,,,,,,,,,,,,,,,,,,,,,,,,,,,,
0,24,24,10,1,,612f7826436df8fb008c4f0d,62bbfaa76ef624f4e415c7ad,2022-06-29_09h10.45.880,Colour_Asymmetry_Pilot,2022.1.3,Win32,59.91252771,62bbe60bf3d75ef465d3e404,,,,,,,,,,,,,,,,,,,,,,,,,,,,,,,,,,,,,,,,,,,,,,,,,,,,,,,,,,,,,,,,,,,,,,,,,,,,,,,,,,,,,,,,,,,,,,,,,,,,,,,,,,,,,,,,,,,,,,,,,,,,,,,,,,,,,,,,,,,,,,,,,,,,,,,,,,,,,,
0,25,25,66,1,,612f7826436df8fb008c4f0d,62bbfaa76ef624f4e415c7ad,2022-06-29_09h10.45.880,Colour_Asymmetry_Pilot,2022.1.3,Win32,59.91252771,62bbe60bf3d75ef465d3e404,,,,,,,,,,,,,,,,,,,,,,,,,,,,,,,,,,,,,,,,,,,,,,,,,,,,,,,,,,,,,,,,,,,,,,,,,,,,,,,,,,,,,,,,,,,,,,,,,,,,,,,,,,,,,,,,,,,,,,,,,,,,,,,,,,,,,,,,,,,,,,,,,,,,,,,,,,,,,,
0,26,26,5,1,,612f7826436df8fb008c4f0d,62bbfaa76ef624f4e415c7ad,2022-06-29_09h10.45.880,Colour_Asymmetry_Pilot,2022.1.3,Win32,59.91252771,62bbe60bf3d75ef465d3e404,,,,,,,,,,,,,,,,,,,,,,,,,,,,,,,,,,,,,,,,,,,,,,,,,,,,,,,,,,,,,,,,,,,,,,,,,,,,,,,,,,,,,,,,,,,,,,,,,,,,,,,,,,,,,,,,,,,,,,,,,,,,,,,,,,,,,,,,,,,,,,,,,,,,,,,,,,,,,,
0,27,27,3,1,,612f7826436df8fb008c4f0d,62bbfaa76ef624f4e415c7ad,2022-06-29_09h10.45.880,Colour_Asymmetry_Pilot,2022.1.3,Win32,59.91252771,62bbe60bf3d75ef465d3e404,,,,,,,,,,,,,,,,,,,,,,,,,,,,,,,,,,,,,,,,,,,,,,,,,,,,,,,,,,,,,,,,,,,,,,,,,,,,,,,,,,,,,,,,,,,,,,,,,,,,,,,,,,,,,,,,,,,,,,,,,,,,,,,,,,,,,,,,,,,,,,,,,,,,,,,,,,,,,,
0,28,28,4,1,,612f7826436df8fb008c4f0d,62bbfaa76ef624f4e415c7ad,2022-06-29_09h10.45.880,Colour_Asymmetry_Pilot,2022.1.3,Win32,59.91252771,62bbe60bf3d75ef465d3e404,,,,,,,,,,,,,,,,,,,,,,,,,,,,,,,,,,,,,,,,,,,,,,,,,,,,,,,,,,,,,,,,,,,,,,,,,,,,,,,,,,,,,,,,,,,,,,,,,,,,,,,,,,,,,,,,,,,,,,,,,,,,,,,,,,,,,,,,,,,,,,,,,,,,,,,,,,,,,,
0,29,29,76,1,,612f7826436df8fb008c4f0d,62bbfaa76ef624f4e415c7ad,2022-06-29_09h10.45.880,Colour_Asymmetry_Pilot,2022.1.3,Win32,59.91252771,62bbe60bf3d75ef465d3e404,,,,,,,,,,,,,,,,,,,,,,,,,,,,,,,,,,,,,,,,,,,,,,,,,,,,,,,,,,,,,,,,,,,,,,,,,,,,,,,,,,,,,,,,,,,,,,,,,,,,,,,,,,,,,,,,,,,,,,,,,,,,,,,,,,,,,,,,,,,,,,,,,,,,,,,,,,,,,,
0,30,30,48,1,,612f7826436df8fb008c4f0d,62bbfaa76ef624f4e415c7ad,2022-06-29_09h10.45.880,Colour_Asymmetry_Pilot,2022.1.3,Win32,59.91252771,62bbe60bf3d75ef465d3e404,,,,,,,,,,,,,,,,,,,,,,,,,,,,,,,,,,,,,,,,,,,,,,,,,,,,,,,,,,,,,,,,,,,,,,,,,,,,,,,,,,,,,,,,,,,,,,,,,,,,,,,,,,,,,,,,,,,,,,,,,,,,,,,,,,,,,,,,,,,,,,,,,,,,,,,,,,,,,,
0,31,31,74,1,,612f7826436df8fb008c4f0d,62bbfaa76ef624f4e415c7ad,2022-06-29_09h10.45.880,Colour_Asymmetry_Pilot,2022.1.3,Win32,59.91252771,62bbe60bf3d75ef465d3e404,,,,,,,,,,,,,,,,,,,,,,,,,,,,,,,,,,,,,,,,,,,,,,,,,,,,,,,,,,,,,,,,,,,,,,,,,,,,,,,,,,,,,,,,,,,,,,,,,,,,,,,,,,,,,,,,,,,,,,,,,,,,,,,,,,,,,,,,,,,,,,,,,,,,,,,,,,,,,,
0,32,32,16,1,,612f7826436df8fb008c4f0d,62bbfaa76ef624f4e415c7ad,2022-06-29_09h10.45.880,Colour_Asymmetry_Pilot,2022.1.3,Win32,59.91252771,62bbe60bf3d75ef465d3e404,,,,,,,,,,,,,,,,,,,,,,,,,,,,,,,,,,,,,,,,,,,,,,,,,,,,,,,,,,,,,,,,,,,,,,,,,,,,,,,,,,,,,,,,,,,,,,,,,,,,,,,,,,,,,,,,,,,,,,,,,,,,,,,,,,,,,,,,,,,,,,,,,,,,,,,,,,,,,,
0,33,33,15,1,,612f7826436df8fb008c4f0d,62bbfaa76ef624f4e415c7ad,2022-06-29_09h10.45.880,Colour_Asymmetry_Pilot,2022.1.3,Win32,59.91252771,62bbe60bf3d75ef465d3e404,,,,,,,,,,,,,,,,,,,,,,,,,,,,,,,,,,,,,,,,,,,,,,,,,,,,,,,,,,,,,,,,,,,,,,,,,,,,,,,,,,,,,,,,,,,,,,,,,,,,,,,,,,,,,,,,,,,,,,,,,,,,,,,,,,,,,,,,,,,,,,,,,,,,,,,,,,,,,,
0,34,34,25,1,,612f7826436df8fb008c4f0d,62bbfaa76ef624f4e415c7ad,2022-06-29_09h10.45.880,Colour_Asymmetry_Pilot,2022.1.3,Win32,59.91252771,62bbe60bf3d75ef465d3e404,,,,,,,,,,,,,,,,,,,,,,,,,,,,,,,,,,,,,,,,,,,,,,,,,,,,,,,,,,,,,,,,,,,,,,,,,,,,,,,,,,,,,,,,,,,,,,,,,,,,,,,,,,,,,,,,,,,,,,,,,,,,,,,,,,,,,,,,,,,,,,,,,,,,,,,,,,,,,,
0,35,35,61,1,,612f7826436df8fb008c4f0d,62bbfaa76ef624f4e415c7ad,2022-06-29_09h10.45.880,Colour_Asymmetry_Pilot,2022.1.3,Win32,59.91252771,62bbe60bf3d75ef465d3e404,,,,,,,,,,,,,,,,,,,,,,,,,,,,,,,,,,,,,,,,,,,,,,,,,,,,,,,,,,,,,,,,,,,,,,,,,,,,,,,,,,,,,,,,,,,,,,,,,,,,,,,,,,,,,,,,,,,,,,,,,,,,,,,,,,,,,,,,,,,,,,,,,,,,,,,,,,,,,,
0,36,36,84,1,,612f7826436df8fb008c4f0d,62bbfaa76ef624f4e415c7ad,2022-06-29_09h10.45.880,Colour_Asymmetry_Pilot,2022.1.3,Win32,59.91252771,62bbe60bf3d75ef465d3e404,,,,,,,,,,,,,,,,,,,,,,,,,,,,,,,,,,,,,,,,,,,,,,,,,,,,,,,,,,,,,,,,,,,,,,,,,,,,,,,,,,,,,,,,,,,,,,,,,,,,,,,,,,,,,,,,,,,,,,,,,,,,,,,,,,,,,,,,,,,,,,,,,,,,,,,,,,,,,,
0,37,37,59,1,,612f7826436df8fb008c4f0d,62bbfaa76ef624f4e415c7ad,2022-06-29_09h10.45.880,Colour_Asymmetry_Pilot,2022.1.3,Win32,59.91252771,62bbe60bf3d75ef465d3e404,,,,,,,,,,,,,,,,,,,,,,,,,,,,,,,,,,,,,,,,,,,,,,,,,,,,,,,,,,,,,,,,,,,,,,,,,,,,,,,,,,,,,,,,,,,,,,,,,,,,,,,,,,,,,,,,,,,,,,,,,,,,,,,,,,,,,,,,,,,,,,,,,,,,,,,,,,,,,,
0,38,38,43,1,,612f7826436df8fb008c4f0d,62bbfaa76ef624f4e415c7ad,2022-06-29_09h10.45.880,Colour_Asymmetry_Pilot,2022.1.3,Win32,59.91252771,62bbe60bf3d75ef465d3e404,,,,,,,,,,,,,,,,,,,,,,,,,,,,,,,,,,,,,,,,,,,,,,,,,,,,,,,,,,,,,,,,,,,,,,,,,,,,,,,,,,,,,,,,,,,,,,,,,,,,,,,,,,,,,,,,,,,,,,,,,,,,,,,,,,,,,,,,,,,,,,,,,,,,,,,,,,,,,,
0,39,39,72,1,,612f7826436df8fb008c4f0d,62bbfaa76ef624f4e415c7ad,2022-06-29_09h10.45.880,Colour_Asymmetry_Pilot,2022.1.3,Win32,59.91252771,62bbe60bf3d75ef465d3e404,,,,,,,,,,,,,,,,,,,,,,,,,,,,,,,,,,,,,,,,,,,,,,,,,,,,,,,,,,,,,,,,,,,,,,,,,,,,,,,,,,,,,,,,,,,,,,,,,,,,,,,,,,,,,,,,,,,,,,,,,,,,,,,,,,,,,,,,,,,,,,,,,,,,,,,,,,,,,,
0,40,40,63,1,,612f7826436df8fb008c4f0d,62bbfaa76ef624f4e415c7ad,2022-06-29_09h10.45.880,Colour_Asymmetry_Pilot,2022.1.3,Win32,59.91252771,62bbe60bf3d75ef465d3e404,,,,,,,,,,,,,,,,,,,,,,,,,,,,,,,,,,,,,,,,,,,,,,,,,,,,,,,,,,,,,,,,,,,,,,,,,,,,,,,,,,,,,,,,,,,,,,,,,,,,,,,,,,,,,,,,,,,,,,,,,,,,,,,,,,,,,,,,,,,,,,,,,,,,,,,,,,,,,,
0,41,41,52,1,,612f7826436df8fb008c4f0d,62bbfaa76ef624f4e415c7ad,2022-06-29_09h10.45.880,Colour_Asymmetry_Pilot,2022.1.3,Win32,59.91252771,62bbe60bf3d75ef465d3e404,,,,,,,,,,,,,,,,,,,,,,,,,,,,,,,,,,,,,,,,,,,,,,,,,,,,,,,,,,,,,,,,,,,,,,,,,,,,,,,,,,,,,,,,,,,,,,,,,,,,,,,,,,,,,,,,,,,,,,,,,,,,,,,,,,,,,,,,,,,,,,,,,,,,,,,,,,,,,,
0,42,42,22,1,,612f7826436df8fb008c4f0d,62bbfaa76ef624f4e415c7ad,2022-06-29_09h10.45.880,Colour_Asymmetry_Pilot,2022.1.3,Win32,59.91252771,62bbe60bf3d75ef465d3e404,,,,,,,,,,,,,,,,,,,,,,,,,,,,,,,,,,,,,,,,,,,,,,,,,,,,,,,,,,,,,,,,,,,,,,,,,,,,,,,,,,,,,,,,,,,,,,,,,,,,,,,,,,,,,,,,,,,,,,,,,,,,,,,,,,,,,,,,,,,,,,,,,,,,,,,,,,,,,,
0,43,43,60,1,,612f7826436df8fb008c4f0d,62bbfaa76ef624f4e415c7ad,2022-06-29_09h10.45.880,Colour_Asymmetry_Pilot,2022.1.3,Win32,59.91252771,62bbe60bf3d75ef465d3e404,,,,,,,,,,,,,,,,,,,,,,,,,,,,,,,,,,,,,,,,,,,,,,,,,,,,,,,,,,,,,,,,,,,,,,,,,,,,,,,,,,,,,,,,,,,,,,,,,,,,,,,,,,,,,,,,,,,,,,,,,,,,,,,,,,,,,,,,,,,,,,,,,,,,,,,,,,,,,,
0,44,44,24,1,,612f7826436df8fb008c4f0d,62bbfaa76ef624f4e415c7ad,2022-06-29_09h10.45.880,Colour_Asymmetry_Pilot,2022.1.3,Win32,59.91252771,62bbe60bf3d75ef465d3e404,,,,,,,,,,,,,,,,,,,,,,,,,,,,,,,,,,,,,,,,,,,,,,,,,,,,,,,,,,,,,,,,,,,,,,,,,,,,,,,,,,,,,,,,,,,,,,,,,,,,,,,,,,,,,,,,,,,,,,,,,,,,,,,,,,,,,,,,,,,,,,,,,,,,,,,,,,,,,,
0,45,45,64,1,,612f7826436df8fb008c4f0d,62bbfaa76ef624f4e415c7ad,2022-06-29_09h10.45.880,Colour_Asymmetry_Pilot,2022.1.3,Win32,59.91252771,62bbe60bf3d75ef465d3e404,,,,,,,,,,,,,,,,,,,,,,,,,,,,,,,,,,,,,,,,,,,,,,,,,,,,,,,,,,,,,,,,,,,,,,,,,,,,,,,,,,,,,,,,,,,,,,,,,,,,,,,,,,,,,,,,,,,,,,,,,,,,,,,,,,,,,,,,,,,,,,,,,,,,,,,,,,,,,,
0,46,46,69,1,,612f7826436df8fb008c4f0d,62bbfaa76ef624f4e415c7ad,2022-06-29_09h10.45.880,Colour_Asymmetry_Pilot,2022.1.3,Win32,59.91252771,62bbe60bf3d75ef465d3e404,,,,,,,,,,,,,,,,,,,,,,,,,,,,,,,,,,,,,,,,,,,,,,,,,,,,,,,,,,,,,,,,,,,,,,,,,,,,,,,,,,,,,,,,,,,,,,,,,,,,,,,,,,,,,,,,,,,,,,,,,,,,,,,,,,,,,,,,,,,,,,,,,,,,,,,,,,,,,,
0,47,47,75,1,,612f7826436df8fb008c4f0d,62bbfaa76ef624f4e415c7ad,2022-06-29_09h10.45.880,Colour_Asymmetry_Pilot,2022.1.3,Win32,59.91252771,62bbe60bf3d75ef465d3e404,,,,,,,,,,,,,,,,,,,,,,,,,,,,,,,,,,,,,,,,,,,,,,,,,,,,,,,,,,,,,,,,,,,,,,,,,,,,,,,,,,,,,,,,,,,,,,,,,,,,,,,,,,,,,,,,,,,,,,,,,,,,,,,,,,,,,,,,,,,,,,,,,,,,,,,,,,,,,,
0,48,48,17,1,,612f7826436df8fb008c4f0d,62bbfaa76ef624f4e415c7ad,2022-06-29_09h10.45.880,Colour_Asymmetry_Pilot,2022.1.3,Win32,59.91252771,62bbe60bf3d75ef465d3e404,,,,,,,,,,,,,,,,,,,,,,,,,,,,,,,,,,,,,,,,,,,,,,,,,,,,,,,,,,,,,,,,,,,,,,,,,,,,,,,,,,,,,,,,,,,,,,,,,,,,,,,,,,,,,,,,,,,,,,,,,,,,,,,,,,,,,,,,,,,,,,,,,,,,,,,,,,,,,,
0,49,49,55,1,,612f7826436df8fb008c4f0d,62bbfaa76ef624f4e415c7ad,2022-06-29_09h10.45.880,Colour_Asymmetry_Pilot,2022.1.3,Win32,59.91252771,62bbe60bf3d75ef465d3e404,,,,,,,,,,,,,,,,,,,,,,,,,,,,,,,,,,,,,,,,,,,,,,,,,,,,,,,,,,,,,,,,,,,,,,,,,,,,,,,,,,,,,,,,,,,,,,,,,,,,,,,,,,,,,,,,,,,,,,,,,,,,,,,,,,,,,,,,,,,,,,,,,,,,,,,,,,,,,,
0,50,50,49,1,,612f7826436df8fb008c4f0d,62bbfaa76ef624f4e415c7ad,2022-06-29_09h10.45.880,Colour_Asymmetry_Pilot,2022.1.3,Win32,59.91252771,62bbe60bf3d75ef465d3e404,,,,,,,,,,,,,,,,,,,,,,,,,,,,,,,,,,,,,,,,,,,,,,,,,,,,,,,,,,,,,,,,,,,,,,,,,,,,,,,,,,,,,,,,,,,,,,,,,,,,,,,,,,,,,,,,,,,,,,,,,,,,,,,,,,,,,,,,,,,,,,,,,,,,,,,,,,,,,,
0,51,51,62,1,,612f7826436df8fb008c4f0d,62bbfaa76ef624f4e415c7ad,2022-06-29_09h10.45.880,Colour_Asymmetry_Pilot,2022.1.3,Win32,59.91252771,62bbe60bf3d75ef465d3e404,,,,,,,,,,,,,,,,,,,,,,,,,,,,,,,,,,,,,,,,,,,,,,,,,,,,,,,,,,,,,,,,,,,,,,,,,,,,,,,,,,,,,,,,,,,,,,,,,,,,,,,,,,,,,,,,,,,,,,,,,,,,,,,,,,,,,,,,,,,,,,,,,,,,,,,,,,,,,,
0,52,52,87,1,,612f7826436df8fb008c4f0d,62bbfaa76ef624f4e415c7ad,2022-06-29_09h10.45.880,Colour_Asymmetry_Pilot,2022.1.3,Win32,59.91252771,62bbe60bf3d75ef465d3e404,,,,,,,,,,,,,,,,,,,,,,,,,,,,,,,,,,,,,,,,,,,,,,,,,,,,,,,,,,,,,,,,,,,,,,,,,,,,,,,,,,,,,,,,,,,,,,,,,,,,,,,,,,,,,,,,,,,,,,,,,,,,,,,,,,,,,,,,,,,,,,,,,,,,,,,,,,,,,,
0,53,53,83,1,,612f7826436df8fb008c4f0d,62bbfaa76ef624f4e415c7ad,2022-06-29_09h10.45.880,Colour_Asymmetry_Pilot,2022.1.3,Win32,59.91252771,62bbe60bf3d75ef465d3e404,,,,,,,,,,,,,,,,,,,,,,,,,,,,,,,,,,,,,,,,,,,,,,,,,,,,,,,,,,,,,,,,,,,,,,,,,,,,,,,,,,,,,,,,,,,,,,,,,,,,,,,,,,,,,,,,,,,,,,,,,,,,,,,,,,,,,,,,,,,,,,,,,,,,,,,,,,,,,,
0,54,54,29,1,,612f7826436df8fb008c4f0d,62bbfaa76ef624f4e415c7ad,2022-06-29_09h10.45.880,Colour_Asymmetry_Pilot,2022.1.3,Win32,59.91252771,62bbe60bf3d75ef465d3e404,,,,,,,,,,,,,,,,,,,,,,,,,,,,,,,,,,,,,,,,,,,,,,,,,,,,,,,,,,,,,,,,,,,,,,,,,,,,,,,,,,,,,,,,,,,,,,,,,,,,,,,,,,,,,,,,,,,,,,,,,,,,,,,,,,,,,,,,,,,,,,,,,,,,,,,,,,,,,,
0,55,55,37,1,,612f7826436df8fb008c4f0d,62bbfaa76ef624f4e415c7ad,2022-06-29_09h10.45.880,Colour_Asymmetry_Pilot,2022.1.3,Win32,59.91252771,62bbe60bf3d75ef465d3e404,,,,,,,,,,,,,,,,,,,,,,,,,,,,,,,,,,,,,,,,,,,,,,,,,,,,,,,,,,,,,,,,,,,,,,,,,,,,,,,,,,,,,,,,,,,,,,,,,,,,,,,,,,,,,,,,,,,,,,,,,,,,,,,,,,,,,,,,,,,,,,,,,,,,,,,,,,,,,,
0,56,56,13,1,,612f7826436df8fb008c4f0d,62bbfaa76ef624f4e415c7ad,2022-06-29_09h10.45.880,Colour_Asymmetry_Pilot,2022.1.3,Win32,59.91252771,62bbe60bf3d75ef465d3e404,,,,,,,,,,,,,,,,,,,,,,,,,,,,,,,,,,,,,,,,,,,,,,,,,,,,,,,,,,,,,,,,,,,,,,,,,,,,,,,,,,,,,,,,,,,,,,,,,,,,,,,,,,,,,,,,,,,,,,,,,,,,,,,,,,,,,,,,,,,,,,,,,,,,,,,,,,,,,,
0,57,57,91,1,,612f7826436df8fb008c4f0d,62bbfaa76ef624f4e415c7ad,2022-06-29_09h10.45.880,Colour_Asymmetry_Pilot,2022.1.3,Win32,59.91252771,62bbe60bf3d75ef465d3e404,,,,,,,,,,,,,,,,,,,,,,,,,,,,,,,,,,,,,,,,,,,,,,,,,,,,,,,,,,,,,,,,,,,,,,,,,,,,,,,,,,,,,,,,,,,,,,,,,,,,,,,,,,,,,,,,,,,,,,,,,,,,,,,,,,,,,,,,,,,,,,,,,,,,,,,,,,,,,,
0,58,58,35,1,,612f7826436df8fb008c4f0d,62bbfaa76ef624f4e415c7ad,2022-06-29_09h10.45.880,Colour_Asymmetry_Pilot,2022.1.3,Win32,59.91252771,62bbe60bf3d75ef465d3e404,,,,,,,,,,,,,,,,,,,,,,,,,,,,,,,,,,,,,,,,,,,,,,,,,,,,,,,,,,,,,,,,,,,,,,,,,,,,,,,,,,,,,,,,,,,,,,,,,,,,,,,,,,,,,,,,,,,,,,,,,,,,,,,,,,,,,,,,,,,,,,,,,,,,,,,,,,,,,,
0,59,59,7,1,,612f7826436df8fb008c4f0d,62bbfaa76ef624f4e415c7ad,2022-06-29_09h10.45.880,Colour_Asymmetry_Pilot,2022.1.3,Win32,59.91252771,62bbe60bf3d75ef465d3e404,,,,,,,,,,,,,,,,,,,,,,,,,,,,,,,,,,,,,,,,,,,,,,,,,,,,,,,,,,,,,,,,,,,,,,,,,,,,,,,,,,,,,,,,,,,,,,,,,,,,,,,,,,,,,,,,,,,,,,,,,,,,,,,,,,,,,,,,,,,,,,,,,,,,,,,,,,,,,,
0,60,60,8,1,,612f7826436df8fb008c4f0d,62bbfaa76ef624f4e415c7ad,2022-06-29_09h10.45.880,Colour_Asymmetry_Pilot,2022.1.3,Win32,59.91252771,62bbe60bf3d75ef465d3e404,,,,,,,,,,,,,,,,,,,,,,,,,,,,,,,,,,,,,,,,,,,,,,,,,,,,,,,,,,,,,,,,,,,,,,,,,,,,,,,,,,,,,,,,,,,,,,,,,,,,,,,,,,,,,,,,,,,,,,,,,,,,,,,,,,,,,,,,,,,,,,,,,,,,,,,,,,,,,,
0,61,61,92,1,,612f7826436df8fb008c4f0d,62bbfaa76ef624f4e415c7ad,2022-06-29_09h10.45.880,Colour_Asymmetry_Pilot,2022.1.3,Win32,59.91252771,62bbe60bf3d75ef465d3e404,,,,,,,,,,,,,,,,,,,,,,,,,,,,,,,,,,,,,,,,,,,,,,,,,,,,,,,,,,,,,,,,,,,,,,,,,,,,,,,,,,,,,,,,,,,,,,,,,,,,,,,,,,,,,,,,,,,,,,,,,,,,,,,,,,,,,,,,,,,,,,,,,,,,,,,,,,,,,,
0,62,62,73,1,,612f7826436df8fb008c4f0d,62bbfaa76ef624f4e415c7ad,2022-06-29_09h10.45.880,Colour_Asymmetry_Pilot,2022.1.3,Win32,59.91252771,62bbe60bf3d75ef465d3e404,,,,,,,,,,,,,,,,,,,,,,,,,,,,,,,,,,,,,,,,,,,,,,,,,,,,,,,,,,,,,,,,,,,,,,,,,,,,,,,,,,,,,,,,,,,,,,,,,,,,,,,,,,,,,,,,,,,,,,,,,,,,,,,,,,,,,,,,,,,,,,,,,,,,,,,,,,,,,,
0,63,63,38,1,,612f7826436df8fb008c4f0d,62bbfaa76ef624f4e415c7ad,2022-06-29_09h10.45.880,Colour_Asymmetry_Pilot,2022.1.3,Win32,59.91252771,62bbe60bf3d75ef465d3e404,,,,,,,,,,,,,,,,,,,,,,,,,,,,,,,,,,,,,,,,,,,,,,,,,,,,,,,,,,,,,,,,,,,,,,,,,,,,,,,,,,,,,,,,,,,,,,,,,,,,,,,,,,,,,,,,,,,,,,,,,,,,,,,,,,,,,,,,,,,,,,,,,,,,,,,,,,,,,,
0,64,64,67,1,,612f7826436df8fb008c4f0d,62bbfaa76ef624f4e415c7ad,2022-06-29_09h10.45.880,Colour_Asymmetry_Pilot,2022.1.3,Win32,59.91252771,62bbe60bf3d75ef465d3e404,,,,,,,,,,,,,,,,,,,,,,,,,,,,,,,,,,,,,,,,,,,,,,,,,,,,,,,,,,,,,,,,,,,,,,,,,,,,,,,,,,,,,,,,,,,,,,,,,,,,,,,,,,,,,,,,,,,,,,,,,,,,,,,,,,,,,,,,,,,,,,,,,,,,,,,,,,,,,,
0,65,65,51,1,,612f7826436df8fb008c4f0d,62bbfaa76ef624f4e415c7ad,2022-06-29_09h10.45.880,Colour_Asymmetry_Pilot,2022.1.3,Win32,59.91252771,62bbe60bf3d75ef465d3e404,,,,,,,,,,,,,,,,,,,,,,,,,,,,,,,,,,,,,,,,,,,,,,,,,,,,,,,,,,,,,,,,,,,,,,,,,,,,,,,,,,,,,,,,,,,,,,,,,,,,,,,,,,,,,,,,,,,,,,,,,,,,,,,,,,,,,,,,,,,,,,,,,,,,,,,,,,,,,,
0,66,66,20,1,,612f7826436df8fb008c4f0d,62bbfaa76ef624f4e415c7ad,2022-06-29_09h10.45.880,Colour_Asymmetry_Pilot,2022.1.3,Win32,59.91252771,62bbe60bf3d75ef465d3e404,,,,,,,,,,,,,,,,,,,,,,,,,,,,,,,,,,,,,,,,,,,,,,,,,,,,,,,,,,,,,,,,,,,,,,,,,,,,,,,,,,,,,,,,,,,,,,,,,,,,,,,,,,,,,,,,,,,,,,,,,,,,,,,,,,,,,,,,,,,,,,,,,,,,,,,,,,,,,,
0,67,67,40,1,,612f7826436df8fb008c4f0d,62bbfaa76ef624f4e415c7ad,2022-06-29_09h10.45.880,Colour_Asymmetry_Pilot,2022.1.3,Win32,59.91252771,62bbe60bf3d75ef465d3e404,,,,,,,,,,,,,,,,,,,,,,,,,,,,,,,,,,,,,,,,,,,,,,,,,,,,,,,,,,,,,,,,,,,,,,,,,,,,,,,,,,,,,,,,,,,,,,,,,,,,,,,,,,,,,,,,,,,,,,,,,,,,,,,,,,,,,,,,,,,,,,,,,,,,,,,,,,,,,,
0,68,68,56,1,,612f7826436df8fb008c4f0d,62bbfaa76ef624f4e415c7ad,2022-06-29_09h10.45.880,Colour_Asymmetry_Pilot,2022.1.3,Win32,59.91252771,62bbe60bf3d75ef465d3e404,,,,,,,,,,,,,,,,,,,,,,,,,,,,,,,,,,,,,,,,,,,,,,,,,,,,,,,,,,,,,,,,,,,,,,,,,,,,,,,,,,,,,,,,,,,,,,,,,,,,,,,,,,,,,,,,,,,,,,,,,,,,,,,,,,,,,,,,,,,,,,,,,,,,,,,,,,,,,,
0,69,69,78,1,,612f7826436df8fb008c4f0d,62bbfaa76ef624f4e415c7ad,2022-06-29_09h10.45.880,Colour_Asymmetry_Pilot,2022.1.3,Win32,59.91252771,62bbe60bf3d75ef465d3e404,,,,,,,,,,,,,,,,,,,,,,,,,,,,,,,,,,,,,,,,,,,,,,,,,,,,,,,,,,,,,,,,,,,,,,,,,,,,,,,,,,,,,,,,,,,,,,,,,,,,,,,,,,,,,,,,,,,,,,,,,,,,,,,,,,,,,,,,,,,,,,,,,,,,,,,,,,,,,,
0,70,70,23,1,,612f7826436df8fb008c4f0d,62bbfaa76ef624f4e415c7ad,2022-06-29_09h10.45.880,Colour_Asymmetry_Pilot,2022.1.3,Win32,59.91252771,62bbe60bf3d75ef465d3e404,,,,,,,,,,,,,,,,,,,,,,,,,,,,,,,,,,,,,,,,,,,,,,,,,,,,,,,,,,,,,,,,,,,,,,,,,,,,,,,,,,,,,,,,,,,,,,,,,,,,,,,,,,,,,,,,,,,,,,,,,,,,,,,,,,,,,,,,,,,,,,,,,,,,,,,,,,,,,,
0,71,71,46,1,,612f7826436df8fb008c4f0d,62bbfaa76ef624f4e415c7ad,2022-06-29_09h10.45.880,Colour_Asymmetry_Pilot,2022.1.3,Win32,59.91252771,62bbe60bf3d75ef465d3e404,,,,,,,,,,,,,,,,,,,,,,,,,,,,,,,,,,,,,,,,,,,,,,,,,,,,,,,,,,,,,,,,,,,,,,,,,,,,,,,,,,,,,,,,,,,,,,,,,,,,,,,,,,,,,,,,,,,,,,,,,,,,,,,,,,,,,,,,,,,,,,,,,,,,,,,,,,,,,,
0,72,72,44,1,,612f7826436df8fb008c4f0d,62bbfaa76ef624f4e415c7ad,2022-06-29_09h10.45.880,Colour_Asymmetry_Pilot,2022.1.3,Win32,59.91252771,62bbe60bf3d75ef465d3e404,,,,,,,,,,,,,,,,,,,,,,,,,,,,,,,,,,,,,,,,,,,,,,,,,,,,,,,,,,,,,,,,,,,,,,,,,,,,,,,,,,,,,,,,,,,,,,,,,,,,,,,,,,,,,,,,,,,,,,,,,,,,,,,,,,,,,,,,,,,,,,,,,,,,,,,,,,,,,,
0,73,73,90,1,,612f7826436df8fb008c4f0d,62bbfaa76ef624f4e415c7ad,2022-06-29_09h10.45.880,Colour_Asymmetry_Pilot,2022.1.3,Win32,59.91252771,62bbe60bf3d75ef465d3e404,,,,,,,,,,,,,,,,,,,,,,,,,,,,,,,,,,,,,,,,,,,,,,,,,,,,,,,,,,,,,,,,,,,,,,,,,,,,,,,,,,,,,,,,,,,,,,,,,,,,,,,,,,,,,,,,,,,,,,,,,,,,,,,,,,,,,,,,,,,,,,,,,,,,,,,,,,,,,,
0,74,74,70,1,,612f7826436df8fb008c4f0d,62bbfaa76ef624f4e415c7ad,2022-06-29_09h10.45.880,Colour_Asymmetry_Pilot,2022.1.3,Win32,59.91252771,62bbe60bf3d75ef465d3e404,,,,,,,,,,,,,,,,,,,,,,,,,,,,,,,,,,,,,,,,,,,,,,,,,,,,,,,,,,,,,,,,,,,,,,,,,,,,,,,,,,,,,,,,,,,,,,,,,,,,,,,,,,,,,,,,,,,,,,,,,,,,,,,,,,,,,,,,,,,,,,,,,,,,,,,,,,,,,,
0,75,75,58,1,,612f7826436df8fb008c4f0d,62bbfaa76ef624f4e415c7ad,2022-06-29_09h10.45.880,Colour_Asymmetry_Pilot,2022.1.3,Win32,59.91252771,62bbe60bf3d75ef465d3e404,,,,,,,,,,,,,,,,,,,,,,,,,,,,,,,,,,,,,,,,,,,,,,,,,,,,,,,,,,,,,,,,,,,,,,,,,,,,,,,,,,,,,,,,,,,,,,,,,,,,,,,,,,,,,,,,,,,,,,,,,,,,,,,,,,,,,,,,,,,,,,,,,,,,,,,,,,,,,,
0,76,76,2,1,,612f7826436df8fb008c4f0d,62bbfaa76ef624f4e415c7ad,2022-06-29_09h10.45.880,Colour_Asymmetry_Pilot,2022.1.3,Win32,59.91252771,62bbe60bf3d75ef465d3e404,,,,,,,,,,,,,,,,,,,,,,,,,,,,,,,,,,,,,,,,,,,,,,,,,,,,,,,,,,,,,,,,,,,,,,,,,,,,,,,,,,,,,,,,,,,,,,,,,,,,,,,,,,,,,,,,,,,,,,,,,,,,,,,,,,,,,,,,,,,,,,,,,,,,,,,,,,,,,,
0,77,77,32,1,,612f7826436df8fb008c4f0d,62bbfaa76ef624f4e415c7ad,2022-06-29_09h10.45.880,Colour_Asymmetry_Pilot,2022.1.3,Win32,59.91252771,62bbe60bf3d75ef465d3e404,,,,,,,,,,,,,,,,,,,,,,,,,,,,,,,,,,,,,,,,,,,,,,,,,,,,,,,,,,,,,,,,,,,,,,,,,,,,,,,,,,,,,,,,,,,,,,,,,,,,,,,,,,,,,,,,,,,,,,,,,,,,,,,,,,,,,,,,,,,,,,,,,,,,,,,,,,,,,,
0,78,78,18,1,,612f7826436df8fb008c4f0d,62bbfaa76ef624f4e415c7ad,2022-06-29_09h10.45.880,Colour_Asymmetry_Pilot,2022.1.3,Win32,59.91252771,62bbe60bf3d75ef465d3e404,,,,,,,,,,,,,,,,,,,,,,,,,,,,,,,,,,,,,,,,,,,,,,,,,,,,,,,,,,,,,,,,,,,,,,,,,,,,,,,,,,,,,,,,,,,,,,,,,,,,,,,,,,,,,,,,,,,,,,,,,,,,,,,,,,,,,,,,,,,,,,,,,,,,,,,,,,,,,,
0,79,79,50,1,,612f7826436df8fb008c4f0d,62bbfaa76ef624f4e415c7ad,2022-06-29_09h10.45.880,Colour_Asymmetry_Pilot,2022.1.3,Win32,59.91252771,62bbe60bf3d75ef465d3e404,,,,,,,,,,,,,,,,,,,,,,,,,,,,,,,,,,,,,,,,,,,,,,,,,,,,,,,,,,,,,,,,,,,,,,,,,,,,,,,,,,,,,,,,,,,,,,,,,,,,,,,,,,,,,,,,,,,,,,,,,,,,,,,,,,,,,,,,,,,,,,,,,,,,,,,,,,,,,,
0,80,80,39,1,,612f7826436df8fb008c4f0d,62bbfaa76ef624f4e415c7ad,2022-06-29_09h10.45.880,Colour_Asymmetry_Pilot,2022.1.3,Win32,59.91252771,62bbe60bf3d75ef465d3e404,,,,,,,,,,,,,,,,,,,,,,,,,,,,,,,,,,,,,,,,,,,,,,,,,,,,,,,,,,,,,,,,,,,,,,,,,,,,,,,,,,,,,,,,,,,,,,,,,,,,,,,,,,,,,,,,,,,,,,,,,,,,,,,,,,,,,,,,,,,,,,,,,,,,,,,,,,,,,,
0,81,81,19,1,,612f7826436df8fb008c4f0d,62bbfaa76ef624f4e415c7ad,2022-06-29_09h10.45.880,Colour_Asymmetry_Pilot,2022.1.3,Win32,59.91252771,62bbe60bf3d75ef465d3e404,,,,,,,,,,,,,,,,,,,,,,,,,,,,,,,,,,,,,,,,,,,,,,,,,,,,,,,,,,,,,,,,,,,,,,,,,,,,,,,,,,,,,,,,,,,,,,,,,,,,,,,,,,,,,,,,,,,,,,,,,,,,,,,,,,,,,,,,,,,,,,,,,,,,,,,,,,,,,,
0,82,82,9,1,,612f7826436df8fb008c4f0d,62bbfaa76ef624f4e415c7ad,2022-06-29_09h10.45.880,Colour_Asymmetry_Pilot,2022.1.3,Win32,59.91252771,62bbe60bf3d75ef465d3e404,,,,,,,,,,,,,,,,,,,,,,,,,,,,,,,,,,,,,,,,,,,,,,,,,,,,,,,,,,,,,,,,,,,,,,,,,,,,,,,,,,,,,,,,,,,,,,,,,,,,,,,,,,,,,,,,,,,,,,,,,,,,,,,,,,,,,,,,,,,,,,,,,,,,,,,,,,,,,,
0,83,83,26,1,,612f7826436df8fb008c4f0d,62bbfaa76ef624f4e415c7ad,2022-06-29_09h10.45.880,Colour_Asymmetry_Pilot,2022.1.3,Win32,59.91252771,62bbe60bf3d75ef465d3e404,,,,,,,,,,,,,,,,,,,,,,,,,,,,,,,,,,,,,,,,,,,,,,,,,,,,,,,,,,,,,,,,,,,,,,,,,,,,,,,,,,,,,,,,,,,,,,,,,,,,,,,,,,,,,,,,,,,,,,,,,,,,,,,,,,,,,,,,,,,,,,,,,,,,,,,,,,,,,,
0,84,84,45,1,,612f7826436df8fb008c4f0d,62bbfaa76ef624f4e415c7ad,2022-06-29_09h10.45.880,Colour_Asymmetry_Pilot,2022.1.3,Win32,59.91252771,62bbe60bf3d75ef465d3e404,,,,,,,,,,,,,,,,,,,,,,,,,,,,,,,,,,,,,,,,,,,,,,,,,,,,,,,,,,,,,,,,,,,,,,,,,,,,,,,,,,,,,,,,,,,,,,,,,,,,,,,,,,,,,,,,,,,,,,,,,,,,,,,,,,,,,,,,,,,,,,,,,,,,,,,,,,,,,,
0,85,85,12,1,,612f7826436df8fb008c4f0d,62bbfaa76ef624f4e415c7ad,2022-06-29_09h10.45.880,Colour_Asymmetry_Pilot,2022.1.3,Win32,59.91252771,62bbe60bf3d75ef465d3e404,,,,,,,,,,,,,,,,,,,,,,,,,,,,,,,,,,,,,,,,,,,,,,,,,,,,,,,,,,,,,,,,,,,,,,,,,,,,,,,,,,,,,,,,,,,,,,,,,,,,,,,,,,,,,,,,,,,,,,,,,,,,,,,,,,,,,,,,,,,,,,,,,,,,,,,,,,,,,,
0,86,86,77,1,,612f7826436df8fb008c4f0d,62bbfaa76ef624f4e415c7ad,2022-06-29_09h10.45.880,Colour_Asymmetry_Pilot,2022.1.3,Win32,59.91252771,62bbe60bf3d75ef465d3e404,,,,,,,,,,,,,,,,,,,,,,,,,,,,,,,,,,,,,,,,,,,,,,,,,,,,,,,,,,,,,,,,,,,,,,,,,,,,,,,,,,,,,,,,,,,,,,,,,,,,,,,,,,,,,,,,,,,,,,,,,,,,,,,,,,,,,,,,,,,,,,,,,,,,,,,,,,,,,,
0,87,87,85,1,,612f7826436df8fb008c4f0d,62bbfaa76ef624f4e415c7ad,2022-06-29_09h10.45.880,Colour_Asymmetry_Pilot,2022.1.3,Win32,59.91252771,62bbe60bf3d75ef465d3e404,,,,,,,,,,,,,,,,,,,,,,,,,,,,,,,,,,,,,,,,,,,,,,,,,,,,,,,,,,,,,,,,,,,,,,,,,,,,,,,,,,,,,,,,,,,,,,,,,,,,,,,,,,,,,,,,,,,,,,,,,,,,,,,,,,,,,,,,,,,,,,,,,,,,,,,,,,,,,,
0,88,88,71,1,,612f7826436df8fb008c4f0d,62bbfaa76ef624f4e415c7ad,2022-06-29_09h10.45.880,Colour_Asymmetry_Pilot,2022.1.3,Win32,59.91252771,62bbe60bf3d75ef465d3e404,,,,,,,,,,,,,,,,,,,,,,,,,,,,,,,,,,,,,,,,,,,,,,,,,,,,,,,,,,,,,,,,,,,,,,,,,,,,,,,,,,,,,,,,,,,,,,,,,,,,,,,,,,,,,,,,,,,,,,,,,,,,,,,,,,,,,,,,,,,,,,,,,,,,,,,,,,,,,,
0,89,89,88,1,,612f7826436df8fb008c4f0d,62bbfaa76ef624f4e415c7ad,2022-06-29_09h10.45.880,Colour_Asymmetry_Pilot,2022.1.3,Win32,59.91252771,62bbe60bf3d75ef465d3e404,,,,,,,,,,,,,,,,,,,,,,,,,,,,,,,,,,,,,,,,,,,,,,,,,,,,,,,,,,,,,,,,,,,,,,,,,,,,,,,,,,,,,,,,,,,,,,,,,,,,,,,,,,,,,,,,,,,,,,,,,,,,,,,,,,,,,,,,,,,,,,,,,,,,,,,,,,,,,,
0,90,90,0,1,,612f7826436df8fb008c4f0d,62bbfaa76ef624f4e415c7ad,2022-06-29_09h10.45.880,Colour_Asymmetry_Pilot,2022.1.3,Win32,59.91252771,62bbe60bf3d75ef465d3e404,,,,,,,,,,,,,,,,,,,,,,,,,,,,,,,,,,,,,,,,,,,,,,,,,,,,,,,,,,,,,,,,,,,,,,,,,,,,,,,,,,,,,,,,,,,,,,,,,,,,,,,,,,,,,,,,,,,,,,,,,,,,,,,,,,,,,,,,,,,,,,,,,,,,,,,,,,,,,,
0,91,91,86,1,,612f7826436df8fb008c4f0d,62bbfaa76ef624f4e415c7ad,2022-06-29_09h10.45.880,Colour_Asymmetry_Pilot,2022.1.3,Win32,59.91252771,62bbe60bf3d75ef465d3e404,,,,,,,,,,,,,,,,,,,,,,,,,,,,,,,,,,,,,,,,,,,,,,,,,,,,,,,,,,,,,,,,,,,,,,,,,,,,,,,,,,,,,,,,,,,,,,,,,,,,,,,,,,,,,,,,,,,,,,,,,,,,,,,,,,,,,,,,,,,,,,,,,,,,,,,,,,,,,,
0,92,92,53,1,,612f7826436df8fb008c4f0d,62bbfaa76ef624f4e415c7ad,2022-06-29_09h10.45.880,Colour_Asymmetry_Pilot,2022.1.3,Win32,59.91252771,62bbe60bf3d75ef465d3e404,,,,,,,,,,,,,,,,,,,,,,,,,,,,,,,,,,,,,,,,,,,,,,,,,,,,,,,,,,,,,,,,,,,,,,,,,,,,,,,,,,,,,,,,,,,,,,,,,,,,,,,,,,,,,,,,,,,,,,,,,,,,,,,,,,,,,,,,,,,,,,,,,,,,,,,,,,,,,,
,,,,,,612f7826436df8fb008c4f0d,62bbfaa76ef624f4e415c7ad,2022-06-29_09h10.45.880,Colour_Asymmetry_Pilot,2022.1.3,Win32,59.91252771,62bbe60bf3d75ef465d3e404,0,0,0,77,1,threefour,,,,,,,,,,,,,,,,,,,,,,,,,,,,,,,,,,,,,,,,,,,,,,,,,,,,,,,,,,,,,,,,,,,,,,,,,,,,,,,,,,,,,,,,,,,,,,,,,,,,,,,,,,,,,,,,,,,,,,,,,,,,,,,,,,,,,,,,,,,,,,,,,,,,,,,,
,,,,,,612f7826436df8fb008c4f0d,62bbfaa76ef624f4e415c7ad,2022-06-29_09h10.45.880,Colour_Asymmetry_Pilot,2022.1.3,Win32,59.91252771,62bbe60bf3d75ef465d3e404,0,1,1,155,1,twofour,,,,,,,,,,,,,,,,,,,,,,,,,,,,,,,,,,,,,,,,,,,,,,,,,,,,,,,,,,,,,,,,,,,,,,,,,,,,,,,,,,,,,,,,,,,,,,,,,,,,,,,,,,,,,,,,,,,,,,,,,,,,,,,,,,,,,,,,,,,,,,,,,,,,,,,,
,,,,,,612f7826436df8fb008c4f0d,62bbfaa76ef624f4e415c7ad,2022-06-29_09h10.45.880,Colour_Asymmetry_Pilot,2022.1.3,Win32,59.91252771,62bbe60bf3d75ef465d3e404,0,2,2,160,1,onetwo,,,,,,,,,,,,,,,,,,,,,,,,,,,,,,,,,,,,,,,,,,,,,,,,,,,,,,,,,,,,,,,,,,,,,,,,,,,,,,,,,,,,,,,,,,,,,,,,,,,,,,,,,,,,,,,,,,,,,,,,,,,,,,,,,,,,,,,,,,,,,,,,,,,,,,,,
,,,,,,612f7826436df8fb008c4f0d,62bbfaa76ef624f4e415c7ad,2022-06-29_09h10.45.880,Colour_Asymmetry_Pilot,2022.1.3,Win32,59.91252771,62bbe60bf3d75ef465d3e404,0,3,3,136,1,onetwo,,,,,,,,,,,,,,,,,,,,,,,,,,,,,,,,,,,,,,,,,,,,,,,,,,,,,,,,,,,,,,,,,,,,,,,,,,,,,,,,,,,,,,,,,,,,,,,,,,,,,,,,,,,,,,,,,,,,,,,,,,,,,,,,,,,,,,,,,,,,,,,,,,,,,,,,
,,,,,,612f7826436df8fb008c4f0d,62bbfaa76ef624f4e415c7ad,2022-06-29_09h10.45.880,Colour_Asymmetry_Pilot,2022.1.3,Win32,59.91252771,62bbe60bf3d75ef465d3e404,0,4,4,57,1,onethree,,,,,,,,,,,,,,,,,,,,,,,,,,,,,,,,,,,,,,,,,,,,,,,,,,,,,,,,,,,,,,,,,,,,,,,,,,,,,,,,,,,,,,,,,,,,,,,,,,,,,,,,,,,,,,,,,,,,,,,,,,,,,,,,,,,,,,,,,,,,,,,,,,,,,,,,
,,,,,,612f7826436df8fb008c4f0d,62bbfaa76ef624f4e415c7ad,2022-06-29_09h10.45.880,Colour_Asymmetry_Pilot,2022.1.3,Win32,59.91252771,62bbe60bf3d75ef465d3e404,0,5,5,2,1,twoone,,,,,,,,,,,,,,,,,,,,,,,,,,,,,,,,,,,,,,,,,,,,,,,,,,,,,,,,,,,,,,,,,,,,,,,,,,,,,,,,,,,,,,,,,,,,,,,,,,,,,,,,,,,,,,,,,,,,,,,,,,,,,,,,,,,,,,,,,,,,,,,,,,,,,,,,
,,,,,,612f7826436df8fb008c4f0d,62bbfaa76ef624f4e415c7ad,2022-06-29_09h10.45.880,Colour_Asymmetry_Pilot,2022.1.3,Win32,59.91252771,62bbe60bf3d75ef465d3e404,0,6,6,110,1,fourtwo,,,,,,,,,,,,,,,,,,,,,,,,,,,,,,,,,,,,,,,,,,,,,,,,,,,,,,,,,,,,,,,,,,,,,,,,,,,,,,,,,,,,,,,,,,,,,,,,,,,,,,,,,,,,,,,,,,,,,,,,,,,,,,,,,,,,,,,,,,,,,,,,,,,,,,,,
,,,,,,612f7826436df8fb008c4f0d,62bbfaa76ef624f4e415c7ad,2022-06-29_09h10.45.880,Colour_Asymmetry_Pilot,2022.1.3,Win32,59.91252771,62bbe60bf3d75ef465d3e404,0,7,7,51,1,twofour,,,,,,,,,,,,,,,,,,,,,,,,,,,,,,,,,,,,,,,,,,,,,,,,,,,,,,,,,,,,,,,,,,,,,,,,,,,,,,,,,,,,,,,,,,,,,,,,,,,,,,,,,,,,,,,,,,,,,,,,,,,,,,,,,,,,,,,,,,,,,,,,,,,,,,,,
,,,,,,612f7826436df8fb008c4f0d,62bbfaa76ef624f4e415c7ad,2022-06-29_09h10.45.880,Colour_Asymmetry_Pilot,2022.1.3,Win32,59.91252771,62bbe60bf3d75ef465d3e404,0,8,8,141,1,threefour,,,,,,,,,,,,,,,,,,,,,,,,,,,,,,,,,,,,,,,,,,,,,,,,,,,,,,,,,,,,,,,,,,,,,,,,,,,,,,,,,,,,,,,,,,,,,,,,,,,,,,,,,,,,,,,,,,,,,,,,,,,,,,,,,,,,,,,,,,,,,,,,,,,,,,,,
,,,,,,612f7826436df8fb008c4f0d,62bbfaa76ef624f4e415c7ad,2022-06-29_09h10.45.880,Colour_Asymmetry_Pilot,2022.1.3,Win32,59.91252771,62bbe60bf3d75ef465d3e404,0,9,9,4,1,threeone,,,,,,,,,,,,,,,,,,,,,,,,,,,,,,,,,,,,,,,,,,,,,,,,,,,,,,,,,,,,,,,,,,,,,,,,,,,,,,,,,,,,,,,,,,,,,,,,,,,,,,,,,,,,,,,,,,,,,,,,,,,,,,,,,,,,,,,,,,,,,,,,,,,,,,,,
,,,,,,612f7826436df8fb008c4f0d,62bbfaa76ef624f4e415c7ad,2022-06-29_09h10.45.880,Colour_Asymmetry_Pilot,2022.1.3,Win32,59.91252771,62bbe60bf3d75ef465d3e404,0,10,10,16,1,onetwo,,,,,,,,,,,,,,,,,,,,,,,,,,,,,,,,,,,,,,,,,,,,,,,,,,,,,,,,,,,,,,,,,,,,,,,,,,,,,,,,,,,,,,,,,,,,,,,,,,,,,,,,,,,,,,,,,,,,,,,,,,,,,,,,,,,,,,,,,,,,,,,,,,,,,,,,
,,,,,,612f7826436df8fb008c4f0d,62bbfaa76ef624f4e415c7ad,2022-06-29_09h10.45.880,Colour_Asymmetry_Pilot,2022.1.3,Win32,59.91252771,62bbe60bf3d75ef465d3e404,0,11,11,92,1,threeone,,,,,,,,,,,,,,,,,,,,,,,,,,,,,,,,,,,,,,,,,,,,,,,,,,,,,,,,,,,,,,,,,,,,,,,,,,,,,,,,,,,,,,,,,,,,,,,,,,,,,,,,,,,,,,,,,,,,,,,,,,,,,,,,,,,,,,,,,,,,,,,,,,,,,,,,
,,,,,,612f7826436df8fb008c4f0d,62bbfaa76ef624f4e415c7ad,2022-06-29_09h10.45.880,Colour_Asymmetry_Pilot,2022.1.3,Win32,59.91252771,62bbe60bf3d75ef465d3e404,0,12,12,109,1,threefour,,,,,,,,,,,,,,,,,,,,,,,,,,,,,,,,,,,,,,,,,,,,,,,,,,,,,,,,,,,,,,,,,,,,,,,,,,,,,,,,,,,,,,,,,,,,,,,,,,,,,,,,,,,,,,,,,,,,,,,,,,,,,,,,,,,,,,,,,,,,,,,,,,,,,,,,
,,,,,,612f7826436df8fb008c4f0d,62bbfaa76ef624f4e415c7ad,2022-06-29_09h10.45.880,Colour_Asymmetry_Pilot,2022.1.3,Win32,59.91252771,62bbe60bf3d75ef465d3e404,0,13,13,100,1,threeone,,,,,,,,,,,,,,,,,,,,,,,,,,,,,,,,,,,,,,,,,,,,,,,,,,,,,,,,,,,,,,,,,,,,,,,,,,,,,,,,,,,,,,,,,,,,,,,,,,,,,,,,,,,,,,,,,,,,,,,,,,,,,,,,,,,,,,,,,,,,,,,,,,,,,,,,
,,,,,,612f7826436df8fb008c4f0d,62bbfaa76ef624f4e415c7ad,2022-06-29_09h10.45.880,Colour_Asymmetry_Pilot,2022.1.3,Win32,59.91252771,62bbe60bf3d75ef465d3e404,0,14,14,11,1,twofour,,,,,,,,,,,,,,,,,,,,,,,,,,,,,,,,,,,,,,,,,,,,,,,,,,,,,,,,,,,,,,,,,,,,,,,,,,,,,,,,,,,,,,,,,,,,,,,,,,,,,,,,,,,,,,,,,,,,,,,,,,,,,,,,,,,,,,,,,,,,,,,,,,,,,,,,
,,,,,,612f7826436df8fb008c4f0d,62bbfaa76ef624f4e415c7ad,2022-06-29_09h10.45.880,Colour_Asymmetry_Pilot,2022.1.3,Win32,59.91252771,62bbe60bf3d75ef465d3e404,0,15,15,59,1,twofour,,,,,,,,,,,,,,,,,,,,,,,,,,,,,,,,,,,,,,,,,,,,,,,,,,,,,,,,,,,,,,,,,,,,,,,,,,,,,,,,,,,,,,,,,,,,,,,,,,,,,,,,,,,,,,,,,,,,,,,,,,,,,,,,,,,,,,,,,,,,,,,,,,,,,,,,
,,,,,,612f7826436df8fb008c4f0d,62bbfaa76ef624f4e415c7ad,2022-06-29_09h10.45.880,Colour_Asymmetry_Pilot,2022.1.3,Win32,59.91252771,62bbe60bf3d75ef465d3e404,0,16,16,29,1,threefour,,,,,,,,,,,,,,,,,,,,,,,,,,,,,,,,,,,,,,,,,,,,,,,,,,,,,,,,,,,,,,,,,,,,,,,,,,,,,,,,,,,,,,,,,,,,,,,,,,,,,,,,,,,,,,,,,,,,,,,,,,,,,,,,,,,,,,,,,,,,,,,,,,,,,,,,
,,,,,,612f7826436df8fb008c4f0d,62bbfaa76ef624f4e415c7ad,2022-06-29_09h10.45.880,Colour_Asymmetry_Pilot,2022.1.3,Win32,59.91252771,62bbe60bf3d75ef465d3e404,0,17,17,129,1,onethree,,,,,,,,,,,,,,,,,,,,,,,,,,,,,,,,,,,,,,,,,,,,,,,,,,,,,,,,,,,,,,,,,,,,,,,,,,,,,,,,,,,,,,,,,,,,,,,,,,,,,,,,,,,,,,,,,,,,,,,,,,,,,,,,,,,,,,,,,,,,,,,,,,,,,,,,
,,,,,,612f7826436df8fb008c4f0d,62bbfaa76ef624f4e415c7ad,2022-06-29_09h10.45.880,Colour_Asymmetry_Pilot,2022.1.3,Win32,59.91252771,62bbe60bf3d75ef465d3e404,0,18,18,15,1,fourthree,,,,,,,,,,,,,,,,,,,,,,,,,,,,,,,,,,,,,,,,,,,,,,,,,,,,,,,,,,,,,,,,,,,,,,,,,,,,,,,,,,,,,,,,,,,,,,,,,,,,,,,,,,,,,,,,,,,,,,,,,,,,,,,,,,,,,,,,,,,,,,,,,,,,,,,,
,,,,,,612f7826436df8fb008c4f0d,62bbfaa76ef624f4e415c7ad,2022-06-29_09h10.45.880,Colour_Asymmetry_Pilot,2022.1.3,Win32,59.91252771,62bbe60bf3d75ef465d3e404,0,19,19,96,1,onetwo,,,,,,,,,,,,,,,,,,,,,,,,,,,,,,,,,,,,,,,,,,,,,,,,,,,,,,,,,,,,,,,,,,,,,,,,,,,,,,,,,,,,,,,,,,,,,,,,,,,,,,,,,,,,,,,,,,,,,,,,,,,,,,,,,,,,,,,,,,,,,,,,,,,,,,,,
,,,,,,612f7826436df8fb008c4f0d,62bbfaa76ef624f4e415c7ad,2022-06-29_09h10.45.880,Colour_Asymmetry_Pilot,2022.1.3,Win32,59.91252771,62bbe60bf3d75ef465d3e404,0,20,20,78,1,fourtwo,,,,,,,,,,,,,,,,,,,,,,,,,,,,,,,,,,,,,,,,,,,,,,,,,,,,,,,,,,,,,,,,,,,,,,,,,,,,,,,,,,,,,,,,,,,,,,,,,,,,,,,,,,,,,,,,,,,,,,,,,,,,,,,,,,,,,,,,,,,,,,,,,,,,,,,,
,,,,,,612f7826436df8fb008c4f0d,62bbfaa76ef624f4e415c7ad,2022-06-29_09h10.45.880,Colour_Asymmetry_Pilot,2022.1.3,Win32,59.91252771,62bbe60bf3d75ef465d3e404,0,21,21,0,1,onetwo,,,,,,,,,,,,,,,,,,,,,,,,,,,,,,,,,,,,,,,,,,,,,,,,,,,,,,,,,,,,,,,,,,,,,,,,,,,,,,,,,,,,,,,,,,,,,,,,,,,,,,,,,,,,,,,,,,,,,,,,,,,,,,,,,,,,,,,,,,,,,,,,,,,,,,,,
,,,,,,612f7826436df8fb008c4f0d,62bbfaa76ef624f4e415c7ad,2022-06-29_09h10.45.880,Colour_Asymmetry_Pilot,2022.1.3,Win32,59.91252771,62bbe60bf3d75ef465d3e404,0,22,22,150,1,fourtwo,,,,,,,,,,,,,,,,,,,,,,,,,,,,,,,,,,,,,,,,,,,,,,,,,,,,,,,,,,,,,,,,,,,,,,,,,,,,,,,,,,,,,,,,,,,,,,,,,,,,,,,,,,,,,,,,,,,,,,,,,,,,,,,,,,,,,,,,,,,,,,,,,,,,,,,,
,,,,,,612f7826436df8fb008c4f0d,62bbfaa76ef624f4e415c7ad,2022-06-29_09h10.45.880,Colour_Asymmetry_Pilot,2022.1.3,Win32,59.91252771,62bbe60bf3d75ef465d3e404,0,23,23,50,1,twoone,,,,,,,,,,,,,,,,,,,,,,,,,,,,,,,,,,,,,,,,,,,,,,,,,,,,,,,,,,,,,,,,,,,,,,,,,,,,,,,,,,,,,,,,,,,,,,,,,,,,,,,,,,,,,,,,,,,,,,,,,,,,,,,,,,,,,,,,,,,,,,,,,,,,,,,,
,,,,,,612f7826436df8fb008c4f0d,62bbfaa76ef624f4e415c7ad,2022-06-29_09h10.45.880,Colour_Asymmetry_Pilot,2022.1.3,Win32,59.91252771,62bbe60bf3d75ef465d3e404,0,24,24,75,1,twofour,,,,,,,,,,,,,,,,,,,,,,,,,,,,,,,,,,,,,,,,,,,,,,,,,,,,,,,,,,,,,,,,,,,,,,,,,,,,,,,,,,,,,,,,,,,,,,,,,,,,,,,,,,,,,,,,,,,,,,,,,,,,,,,,,,,,,,,,,,,,,,,,,,,,,,,,
,,,,,,612f7826436df8fb008c4f0d,62bbfaa76ef624f4e415c7ad,2022-06-29_09h10.45.880,Colour_Asymmetry_Pilot,2022.1.3,Win32,59.91252771,62bbe60bf3d75ef465d3e404,0,25,25,139,1,twofour,,,,,,,,,,,,,,,,,,,,,,,,,,,,,,,,,,,,,,,,,,,,,,,,,,,,,,,,,,,,,,,,,,,,,,,,,,,,,,,,,,,,,,,,,,,,,,,,,,,,,,,,,,,,,,,,,,,,,,,,,,,,,,,,,,,,,,,,,,,,,,,,,,,,,,,,
,,,,,,612f7826436df8fb008c4f0d,62bbfaa76ef624f4e415c7ad,2022-06-29_09h10.45.880,Colour_Asymmetry_Pilot,2022.1.3,Win32,59.91252771,62bbe60bf3d75ef465d3e404,0,26,26,73,1,onethree,,,,,,,,,,,,,,,,,,,,,,,,,,,,,,,,,,,,,,,,,,,,,,,,,,,,,,,,,,,,,,,,,,,,,,,,,,,,,,,,,,,,,,,,,,,,,,,,,,,,,,,,,,,,,,,,,,,,,,,,,,,,,,,,,,,,,,,,,,,,,,,,,,,,,,,,
,,,,,,612f7826436df8fb008c4f0d,62bbfaa76ef624f4e415c7ad,2022-06-29_09h10.45.880,Colour_Asymmetry_Pilot,2022.1.3,Win32,59.91252771,62bbe60bf3d75ef465d3e404,0,27,27,99,1,twofour,,,,,,,,,,,,,,,,,,,,,,,,,,,,,,,,,,,,,,,,,,,,,,,,,,,,,,,,,,,,,,,,,,,,,,,,,,,,,,,,,,,,,,,,,,,,,,,,,,,,,,,,,,,,,,,,,,,,,,,,,,,,,,,,,,,,,,,,,,,,,,,,,,,,,,,,
,,,,,,612f7826436df8fb008c4f0d,62bbfaa76ef624f4e415c7ad,2022-06-29_09h10.45.880,Colour_Asymmetry_Pilot,2022.1.3,Win32,59.91252771,62bbe60bf3d75ef465d3e404,0,28,28,143,1,fourthree,,,,,,,,,,,,,,,,,,,,,,,,,,,,,,,,,,,,,,,,,,,,,,,,,,,,,,,,,,,,,,,,,,,,,,,,,,,,,,,,,,,,,,,,,,,,,,,,,,,,,,,,,,,,,,,,,,,,,,,,,,,,,,,,,,,,,,,,,,,,,,,,,,,,,,,,
,,,,,,612f7826436df8fb008c4f0d,62bbfaa76ef624f4e415c7ad,2022-06-29_09h10.45.880,Colour_Asymmetry_Pilot,2022.1.3,Win32,59.91252771,62bbe60bf3d75ef465d3e404,0,29,29,41,1,onethree,,,,,,,,,,,,,,,,,,,,,,,,,,,,,,,,,,,,,,,,,,,,,,,,,,,,,,,,,,,,,,,,,,,,,,,,,,,,,,,,,,,,,,,,,,,,,,,,,,,,,,,,,,,,,,,,,,,,,,,,,,,,,,,,,,,,,,,,,,,,,,,,,,,,,,,,
,,,,,,612f7826436df8fb008c4f0d,62bbfaa76ef624f4e415c7ad,2022-06-29_09h10.45.880,Colour_Asymmetry_Pilot,2022.1.3,Win32,59.91252771,62bbe60bf3d75ef465d3e404,0,30,30,65,1,onethree,,,,,,,,,,,,,,,,,,,,,,,,,,,,,,,,,,,,,,,,,,,,,,,,,,,,,,,,,,,,,,,,,,,,,,,,,,,,,,,,,,,,,,,,,,,,,,,,,,,,,,,,,,,,,,,,,,,,,,,,,,,,,,,,,,,,,,,,,,,,,,,,,,,,,,,,
,,,,,,612f7826436df8fb008c4f0d,62bbfaa76ef624f4e415c7ad,2022-06-29_09h10.45.880,Colour_Asymmetry_Pilot,2022.1.3,Win32,59.91252771,62bbe60bf3d75ef465d3e404,0,31,31,70,1,fourtwo,,,,,,,,,,,,,,,,,,,,,,,,,,,,,,,,,,,,,,,,,,,,,,,,,,,,,,,,,,,,,,,,,,,,,,,,,,,,,,,,,,,,,,,,,,,,,,,,,,,,,,,,,,,,,,,,,,,,,,,,,,,,,,,,,,,,,,,,,,,,,,,,,,,,,,,,
,,,,,,612f7826436df8fb008c4f0d,62bbfaa76ef624f4e415c7ad,2022-06-29_09h10.45.880,Colour_Asymmetry_Pilot,2022.1.3,Win32,59.91252771,62bbe60bf3d75ef465d3e404,0,32,32,20,1,threeone,,,,,,,,,,,,,,,,,,,,,,,,,,,,,,,,,,,,,,,,,,,,,,,,,,,,,,,,,,,,,,,,,,,,,,,,,,,,,,,,,,,,,,,,,,,,,,,,,,,,,,,,,,,,,,,,,,,,,,,,,,,,,,,,,,,,,,,,,,,,,,,,,,,,,,,,
,,,,,,612f7826436df8fb008c4f0d,62bbfaa76ef624f4e415c7ad,2022-06-29_09h10.45.880,Colour_Asymmetry_Pilot,2022.1.3,Win32,59.91252771,62bbe60bf3d75ef465d3e404,0,33,33,89,1,onethree,,,,,,,,,,,,,,,,,,,,,,,,,,,,,,,,,,,,,,,,,,,,,,,,,,,,,,,,,,,,,,,,,,,,,,,,,,,,,,,,,,,,,,,,,,,,,,,,,,,,,,,,,,,,,,,,,,,,,,,,,,,,,,,,,,,,,,,,,,,,,,,,,,,,,,,,
,,,,,,612f7826436df8fb008c4f0d,62bbfaa76ef624f4e415c7ad,2022-06-29_09h10.45.880,Colour_Asymmetry_Pilot,2022.1.3,Win32,59.91252771,62bbe60bf3d75ef465d3e404,0,34,34,147,1,twofour,,,,,,,,,,,,,,,,,,,,,,,,,,,,,,,,,,,,,,,,,,,,,,,,,,,,,,,,,,,,,,,,,,,,,,,,,,,,,,,,,,,,,,,,,,,,,,,,,,,,,,,,,,,,,,,,,,,,,,,,,,,,,,,,,,,,,,,,,,,,,,,,,,,,,,,,
,,,,,,612f7826436df8fb008c4f0d,62bbfaa76ef624f4e415c7ad,2022-06-29_09h10.45.880,Colour_Asymmetry_Pilot,2022.1.3,Win32,59.91252771,62bbe60bf3d75ef465d3e404,0,35,35,48,1,onetwo,,,,,,,,,,,,,,,,,,,,,,,,,,,,,,,,,,,,,,,,,,,,,,,,,,,,,,,,,,,,,,,,,,,,,,,,,,,,,,,,,,,,,,,,,,,,,,,,,,,,,,,,,,,,,,,,,,,,,,,,,,,,,,,,,,,,,,,,,,,,,,,,,,,,,,,,
,,,,,,612f7826436df8fb008c4f0d,62bbfaa76ef624f4e415c7ad,2022-06-29_09h10.45.880,Colour_Asymmetry_Pilot,2022.1.3,Win32,59.91252771,62bbe60bf3d75ef465d3e404,0,36,36,102,1,fourtwo,,,,,,,,,,,,,,,,,,,,,,,,,,,,,,,,,,,,,,,,,,,,,,,,,,,,,,,,,,,,,,,,,,,,,,,,,,,,,,,,,,,,,,,,,,,,,,,,,,,,,,,,,,,,,,,,,,,,,,,,,,,,,,,,,,,,,,,,,,,,,,,,,,,,,,,,
,,,,,,612f7826436df8fb008c4f0d,62bbfaa76ef624f4e415c7ad,2022-06-29_09h10.45.880,Colour_Asymmetry_Pilot,2022.1.3,Win32,59.91252771,62bbe60bf3d75ef465d3e404,0,37,37,114,1,twoone,,,,,,,,,,,,,,,,,,,,,,,,,,,,,,,,,,,,,,,,,,,,,,,,,,,,,,,,,,,,,,,,,,,,,,,,,,,,,,,,,,,,,,,,,,,,,,,,,,,,,,,,,,,,,,,,,,,,,,,,,,,,,,,,,,,,,,,,,,,,,,,,,,,,,,,,
,,,,,,612f7826436df8fb008c4f0d,62bbfaa76ef624f4e415c7ad,2022-06-29_09h10.45.880,Colour_Asymmetry_Pilot,2022.1.3,Win32,59.91252771,62bbe60bf3d75ef465d3e404,0,38,38,128,1,onetwo,,,,,,,,,,,,,,,,,,,,,,,,,,,,,,,,,,,,,,,,,,,,,,,,,,,,,,,,,,,,,,,,,,,,,,,,,,,,,,,,,,,,,,,,,,,,,,,,,,,,,,,,,,,,,,,,,,,,,,,,,,,,,,,,,,,,,,,,,,,,,,,,,,,,,,,,
,,,,,,612f7826436df8fb008c4f0d,62bbfaa76ef624f4e415c7ad,2022-06-29_09h10.45.880,Colour_Asymmetry_Pilot,2022.1.3,Win32,59.91252771,62bbe60bf3d75ef465d3e404,0,39,39,69,1,threefour,,,,,,,,,,,,,,,,,,,,,,,,,,,,,,,,,,,,,,,,,,,,,,,,,,,,,,,,,,,,,,,,,,,,,,,,,,,,,,,,,,,,,,,,,,,,,,,,,,,,,,,,,,,,,,,,,,,,,,,,,,,,,,,,,,,,,,,,,,,,,,,,,,,,,,,,
,,,,,,612f7826436df8fb008c4f0d,62bbfaa76ef624f4e415c7ad,2022-06-29_09h10.45.880,Colour_Asymmetry_Pilot,2022.1.3,Win32,59.91252771,62bbe60bf3d75ef465d3e404,0,40,40,24,1,onetwo,,,,,,,,,,,,,,,,,,,,,,,,,,,,,,,,,,,,,,,,,,,,,,,,,,,,,,,,,,,,,,,,,,,,,,,,,,,,,,,,,,,,,,,,,,,,,,,,,,,,,,,,,,,,,,,,,,,,,,,,,,,,,,,,,,,,,,,,,,,,,,,,,,,,,,,,
,,,,,,612f7826436df8fb008c4f0d,62bbfaa76ef624f4e415c7ad,2022-06-29_09h10.45.880,Colour_Asymmetry_Pilot,2022.1.3,Win32,59.91252771,62bbe60bf3d75ef465d3e404,0,41,41,25,1,onethree,,,,,,,,,,,,,,,,,,,,,,,,,,,,,,,,,,,,,,,,,,,,,,,,,,,,,,,,,,,,,,,,,,,,,,,,,,,,,,,,,,,,,,,,,,,,,,,,,,,,,,,,,,,,,,,,,,,,,,,,,,,,,,,,,,,,,,,,,,,,,,,,,,,,,,,,
,,,,,,612f7826436df8fb008c4f0d,62bbfaa76ef624f4e415c7ad,2022-06-29_09h10.45.880,Colour_Asymmetry_Pilot,2022.1.3,Win32,59.91252771,62bbe60bf3d75ef465d3e404,0,42,42,56,1,onetwo,,,,,,,,,,,,,,,,,,,,,,,,,,,,,,,,,,,,,,,,,,,,,,,,,,,,,,,,,,,,,,,,,,,,,,,,,,,,,,,,,,,,,,,,,,,,,,,,,,,,,,,,,,,,,,,,,,,,,,,,,,,,,,,,,,,,,,,,,,,,,,,,,,,,,,,,
,,,,,,612f7826436df8fb008c4f0d,62bbfaa76ef624f4e415c7ad,2022-06-29_09h10.45.880,Colour_Asymmetry_Pilot,2022.1.3,Win32,59.91252771,62bbe60bf3d75ef465d3e404,0,43,43,37,1,threefour,,,,,,,,,,,,,,,,,,,,,,,,,,,,,,,,,,,,,,,,,,,,,,,,,,,,,,,,,,,,,,,,,,,,,,,,,,,,,,,,,,,,,,,,,,,,,,,,,,,,,,,,,,,,,,,,,,,,,,,,,,,,,,,,,,,,,,,,,,,,,,,,,,,,,,,,
,,,,,,612f7826436df8fb008c4f0d,62bbfaa76ef624f4e415c7ad,2022-06-29_09h10.45.880,Colour_Asymmetry_Pilot,2022.1.3,Win32,59.91252771,62bbe60bf3d75ef465d3e404,0,44,44,119,1,fourthree,,,,,,,,,,,,,,,,,,,,,,,,,,,,,,,,,,,,,,,,,,,,,,,,,,,,,,,,,,,,,,,,,,,,,,,,,,,,,,,,,,,,,,,,,,,,,,,,,,,,,,,,,,,,,,,,,,,,,,,,,,,,,,,,,,,,,,,,,,,,,,,,,,,,,,,,
,,,,,,612f7826436df8fb008c4f0d,62bbfaa76ef624f4e415c7ad,2022-06-29_09h10.45.880,Colour_Asymmetry_Pilot,2022.1.3,Win32,59.91252771,62bbe60bf3d75ef465d3e404,0,45,45,81,1,onethree,,,,,,,,,,,,,,,,,,,,,,,,,,,,,,,,,,,,,,,,,,,,,,,,,,,,,,,,,,,,,,,,,,,,,,,,,,,,,,,,,,,,,,,,,,,,,,,,,,,,,,,,,,,,,,,,,,,,,,,,,,,,,,,,,,,,,,,,,,,,,,,,,,,,,,,,
,,,,,,612f7826436df8fb008c4f0d,62bbfaa76ef624f4e415c7ad,2022-06-29_09h10.45.880,Colour_Asymmetry_Pilot,2022.1.3,Win32,59.91252771,62bbe60bf3d75ef465d3e404,0,46,46,95,1,fourthree,,,,,,,,,,,,,,,,,,,,,,,,,,,,,,,,,,,,,,,,,,,,,,,,,,,,,,,,,,,,,,,,,,,,,,,,,,,,,,,,,,,,,,,,,,,,,,,,,,,,,,,,,,,,,,,,,,,,,,,,,,,,,,,,,,,,,,,,,,,,,,,,,,,,,,,,
,,,,,,612f7826436df8fb008c4f0d,62bbfaa76ef624f4e415c7ad,2022-06-29_09h10.45.880,Colour_Asymmetry_Pilot,2022.1.3,Win32,59.91252771,62bbe60bf3d75ef465d3e404,0,47,47,9,1,onethree,,,,,,,,,,,,,,,,,,,,,,,,,,,,,,,,,,,,,,,,,,,,,,,,,,,,,,,,,,,,,,,,,,,,,,,,,,,,,,,,,,,,,,,,,,,,,,,,,,,,,,,,,,,,,,,,,,,,,,,,,,,,,,,,,,,,,,,,,,,,,,,,,,,,,,,,
,,,,,,612f7826436df8fb008c4f0d,62bbfaa76ef624f4e415c7ad,2022-06-29_09h10.45.880,Colour_Asymmetry_Pilot,2022.1.3,Win32,59.91252771,62bbe60bf3d75ef465d3e404,0,48,48,49,1,onethree,,,,,,,,,,,,,,,,,,,,,,,,,,,,,,,,,,,,,,,,,,,,,,,,,,,,,,,,,,,,,,,,,,,,,,,,,,,,,,,,,,,,,,,,,,,,,,,,,,,,,,,,,,,,,,,,,,,,,,,,,,,,,,,,,,,,,,,,,,,,,,,,,,,,,,,,
,,,,,,612f7826436df8fb008c4f0d,62bbfaa76ef624f4e415c7ad,2022-06-29_09h10.45.880,Colour_Asymmetry_Pilot,2022.1.3,Win32,59.91252771,62bbe60bf3d75ef465d3e404,0,49,49,7,1,fourthree,,,,,,,,,,,,,,,,,,,,,,,,,,,,,,,,,,,,,,,,,,,,,,,,,,,,,,,,,,,,,,,,,,,,,,,,,,,,,,,,,,,,,,,,,,,,,,,,,,,,,,,,,,,,,,,,,,,,,,,,,,,,,,,,,,,,,,,,,,,,,,,,,,,,,,,,
,,,,,,612f7826436df8fb008c4f0d,62bbfaa76ef624f4e415c7ad,2022-06-29_09h10.45.880,Colour_Asymmetry_Pilot,2022.1.3,Win32,59.91252771,62bbe60bf3d75ef465d3e404,0,50,50,152,1,onetwo,,,,,,,,,,,,,,,,,,,,,,,,,,,,,,,,,,,,,,,,,,,,,,,,,,,,,,,,,,,,,,,,,,,,,,,,,,,,,,,,,,,,,,,,,,,,,,,,,,,,,,,,,,,,,,,,,,,,,,,,,,,,,,,,,,,,,,,,,,,,,,,,,,,,,,,,
,,,,,,612f7826436df8fb008c4f0d,62bbfaa76ef624f4e415c7ad,2022-06-29_09h10.45.880,Colour_Asymmetry_Pilot,2022.1.3,Win32,59.91252771,62bbe60bf3d75ef465d3e404,0,51,51,87,1,fourthree,,,,,,,,,,,,,,,,,,,,,,,,,,,,,,,,,,,,,,,,,,,,,,,,,,,,,,,,,,,,,,,,,,,,,,,,,,,,,,,,,,,,,,,,,,,,,,,,,,,,,,,,,,,,,,,,,,,,,,,,,,,,,,,,,,,,,,,,,,,,,,,,,,,,,,,,
,,,,,,612f7826436df8fb008c4f0d,62bbfaa76ef624f4e415c7ad,2022-06-29_09h10.45.880,Colour_Asymmetry_Pilot,2022.1.3,Win32,59.91252771,62bbe60bf3d75ef465d3e404,0,52,52,134,1,fourtwo,,,,,,,,,,,,,,,,,,,,,,,,,,,,,,,,,,,,,,,,,,,,,,,,,,,,,,,,,,,,,,,,,,,,,,,,,,,,,,,,,,,,,,,,,,,,,,,,,,,,,,,,,,,,,,,,,,,,,,,,,,,,,,,,,,,,,,,,,,,,,,,,,,,,,,,,
,,,,,,612f7826436df8fb008c4f0d,62bbfaa76ef624f4e415c7ad,2022-06-29_09h10.45.880,Colour_Asymmetry_Pilot,2022.1.3,Win32,59.91252771,62bbe60bf3d75ef465d3e404,0,53,53,58,1,twoone,,,,,,,,,,,,,,,,,,,,,,,,,,,,,,,,,,,,,,,,,,,,,,,,,,,,,,,,,,,,,,,,,,,,,,,,,,,,,,,,,,,,,,,,,,,,,,,,,,,,,,,,,,,,,,,,,,,,,,,,,,,,,,,,,,,,,,,,,,,,,,,,,,,,,,,,
,,,,,,612f7826436df8fb008c4f0d,62bbfaa76ef624f4e415c7ad,2022-06-29_09h10.45.880,Colour_Asymmetry_Pilot,2022.1.3,Win32,59.91252771,62bbe60bf3d75ef465d3e404,0,54,54,120,1,onetwo,,,,,,,,,,,,,,,,,,,,,,,,,,,,,,,,,,,,,,,,,,,,,,,,,,,,,,,,,,,,,,,,,,,,,,,,,,,,,,,,,,,,,,,,,,,,,,,,,,,,,,,,,,,,,,,,,,,,,,,,,,,,,,,,,,,,,,,,,,,,,,,,,,,,,,,,
,,,,,,612f7826436df8fb008c4f0d,62bbfaa76ef624f4e415c7ad,2022-06-29_09h10.45.880,Colour_Asymmetry_Pilot,2022.1.3,Win32,59.91252771,62bbe60bf3d75ef465d3e404,0,55,55,32,1,onetwo,,,,,,,,,,,,,,,,,,,,,,,,,,,,,,,,,,,,,,,,,,,,,,,,,,,,,,,,,,,,,,,,,,,,,,,,,,,,,,,,,,,,,,,,,,,,,,,,,,,,,,,,,,,,,,,,,,,,,,,,,,,,,,,,,,,,,,,,,,,,,,,,,,,,,,,,
,,,,,,612f7826436df8fb008c4f0d,62bbfaa76ef624f4e415c7ad,2022-06-29_09h10.45.880,Colour_Asymmetry_Pilot,2022.1.3,Win32,59.91252771,62bbe60bf3d75ef465d3e404,0,56,56,55,1,fourthree,,,,,,,,,,,,,,,,,,,,,,,,,,,,,,,,,,,,,,,,,,,,,,,,,,,,,,,,,,,,,,,,,,,,,,,,,,,,,,,,,,,,,,,,,,,,,,,,,,,,,,,,,,,,,,,,,,,,,,,,,,,,,,,,,,,,,,,,,,,,,,,,,,,,,,,,
,,,,,,612f7826436df8fb008c4f0d,62bbfaa76ef624f4e415c7ad,2022-06-29_09h10.45.880,Colour_Asymmetry_Pilot,2022.1.3,Win32,59.91252771,62bbe60bf3d75ef465d3e404,0,57,57,18,1,twoone,,,,,,,,,,,,,,,,,,,,,,,,,,,,,,,,,,,,,,,,,,,,,,,,,,,,,,,,,,,,,,,,,,,,,,,,,,,,,,,,,,,,,,,,,,,,,,,,,,,,,,,,,,,,,,,,,,,,,,,,,,,,,,,,,,,,,,,,,,,,,,,,,,,,,,,,
,,,,,,612f7826436df8fb008c4f0d,62bbfaa76ef624f4e415c7ad,2022-06-29_09h10.45.880,Colour_Asymmetry_Pilot,2022.1.3,Win32,59.91252771,62bbe60bf3d75ef465d3e404,0,58,58,125,1,threefour,,,,,,,,,,,,,,,,,,,,,,,,,,,,,,,,,,,,,,,,,,,,,,,,,,,,,,,,,,,,,,,,,,,,,,,,,,,,,,,,,,,,,,,,,,,,,,,,,,,,,,,,,,,,,,,,,,,,,,,,,,,,,,,,,,,,,,,,,,,,,,,,,,,,,,,,
,,,,,,612f7826436df8fb008c4f0d,62bbfaa76ef624f4e415c7ad,2022-06-29_09h10.45.880,Colour_Asymmetry_Pilot,2022.1.3,Win32,59.91252771,62bbe60bf3d75ef465d3e404,0,59,59,26,1,twoone,,,,,,,,,,,,,,,,,,,,,,,,,,,,,,,,,,,,,,,,,,,,,,,,,,,,,,,,,,,,,,,,,,,,,,,,,,,,,,,,,,,,,,,,,,,,,,,,,,,,,,,,,,,,,,,,,,,,,,,,,,,,,,,,,,,,,,,,,,,,,,,,,,,,,,,,
,,,,,,612f7826436df8fb008c4f0d,62bbfaa76ef624f4e415c7ad,2022-06-29_09h10.45.880,Colour_Asymmetry_Pilot,2022.1.3,Win32,59.91252771,62bbe60bf3d75ef465d3e404,0,60,60,22,1,fourtwo,,,,,,,,,,,,,,,,,,,,,,,,,,,,,,,,,,,,,,,,,,,,,,,,,,,,,,,,,,,,,,,,,,,,,,,,,,,,,,,,,,,,,,,,,,,,,,,,,,,,,,,,,,,,,,,,,,,,,,,,,,,,,,,,,,,,,,,,,,,,,,,,,,,,,,,,
,,,,,,612f7826436df8fb008c4f0d,62bbfaa76ef624f4e415c7ad,2022-06-29_09h10.45.880,Colour_Asymmetry_Pilot,2022.1.3,Win32,59.91252771,62bbe60bf3d75ef465d3e404,0,61,61,19,1,twofour,,,,,,,,,,,,,,,,,,,,,,,,,,,,,,,,,,,,,,,,,,,,,,,,,,,,,,,,,,,,,,,,,,,,,,,,,,,,,,,,,,,,,,,,,,,,,,,,,,,,,,,,,,,,,,,,,,,,,,,,,,,,,,,,,,,,,,,,,,,,,,,,,,,,,,,,
,,,,,,612f7826436df8fb008c4f0d,62bbfaa76ef624f4e415c7ad,2022-06-29_09h10.45.880,Colour_Asymmetry_Pilot,2022.1.3,Win32,59.91252771,62bbe60bf3d75ef465d3e404,0,62,62,45,1,threefour,,,,,,,,,,,,,,,,,,,,,,,,,,,,,,,,,,,,,,,,,,,,,,,,,,,,,,,,,,,,,,,,,,,,,,,,,,,,,,,,,,,,,,,,,,,,,,,,,,,,,,,,,,,,,,,,,,,,,,,,,,,,,,,,,,,,,,,,,,,,,,,,,,,,,,,,
,,,,,,612f7826436df8fb008c4f0d,62bbfaa76ef624f4e415c7ad,2022-06-29_09h10.45.880,Colour_Asymmetry_Pilot,2022.1.3,Win32,59.91252771,62bbe60bf3d75ef465d3e404,0,63,63,86,1,fourtwo,,,,,,,,,,,,,,,,,,,,,,,,,,,,,,,,,,,,,,,,,,,,,,,,,,,,,,,,,,,,,,,,,,,,,,,,,,,,,,,,,,,,,,,,,,,,,,,,,,,,,,,,,,,,,,,,,,,,,,,,,,,,,,,,,,,,,,,,,,,,,,,,,,,,,,,,
,,,,,,612f7826436df8fb008c4f0d,62bbfaa76ef624f4e415c7ad,2022-06-29_09h10.45.880,Colour_Asymmetry_Pilot,2022.1.3,Win32,59.91252771,62bbe60bf3d75ef465d3e404,0,64,64,103,1,fourthree,,,,,,,,,,,,,,,,,,,,,,,,,,,,,,,,,,,,,,,,,,,,,,,,,,,,,,,,,,,,,,,,,,,,,,,,,,,,,,,,,,,,,,,,,,,,,,,,,,,,,,,,,,,,,,,,,,,,,,,,,,,,,,,,,,,,,,,,,,,,,,,,,,,,,,,,
,,,,,,612f7826436df8fb008c4f0d,62bbfaa76ef624f4e415c7ad,2022-06-29_09h10.45.880,Colour_Asymmetry_Pilot,2022.1.3,Win32,59.91252771,62bbe60bf3d75ef465d3e404,0,65,65,113,1,onethree,,,,,,,,,,,,,,,,,,,,,,,,,,,,,,,,,,,,,,,,,,,,,,,,,,,,,,,,,,,,,,,,,,,,,,,,,,,,,,,,,,,,,,,,,,,,,,,,,,,,,,,,,,,,,,,,,,,,,,,,,,,,,,,,,,,,,,,,,,,,,,,,,,,,,,,,
,,,,,,612f7826436df8fb008c4f0d,62bbfaa76ef624f4e415c7ad,2022-06-29_09h10.45.880,Colour_Asymmetry_Pilot,2022.1.3,Win32,59.91252771,62bbe60bf3d75ef465d3e404,0,66,66,82,1,twoone,,,,,,,,,,,,,,,,,,,,,,,,,,,,,,,,,,,,,,,,,,,,,,,,,,,,,,,,,,,,,,,,,,,,,,,,,,,,,,,,,,,,,,,,,,,,,,,,,,,,,,,,,,,,,,,,,,,,,,,,,,,,,,,,,,,,,,,,,,,,,,,,,,,,,,,,
,,,,,,612f7826436df8fb008c4f0d,62bbfaa76ef624f4e415c7ad,2022-06-29_09h10.45.880,Colour_Asymmetry_Pilot,2022.1.3,Win32,59.91252771,62bbe60bf3d75ef465d3e404,0,67,67,148,1,threeone,,,,,,,,,,,,,,,,,,,,,,,,,,,,,,,,,,,,,,,,,,,,,,,,,,,,,,,,,,,,,,,,,,,,,,,,,,,,,,,,,,,,,,,,,,,,,,,,,,,,,,,,,,,,,,,,,,,,,,,,,,,,,,,,,,,,,,,,,,,,,,,,,,,,,,,,
,,,,,,612f7826436df8fb008c4f0d,62bbfaa76ef624f4e415c7ad,2022-06-29_09h10.45.880,Colour_Asymmetry_Pilot,2022.1.3,Win32,59.91252771,62bbe60bf3d75ef465d3e404,0,68,68,64,1,onetwo,,,,,,,,,,,,,,,,,,,,,,,,,,,,,,,,,,,,,,,,,,,,,,,,,,,,,,,,,,,,,,,,,,,,,,,,,,,,,,,,,,,,,,,,,,,,,,,,,,,,,,,,,,,,,,,,,,,,,,,,,,,,,,,,,,,,,,,,,,,,,,,,,,,,,,,,
,,,,,,612f7826436df8fb008c4f0d,62bbfaa76ef624f4e415c7ad,2022-06-29_09h10.45.880,Colour_Asymmetry_Pilot,2022.1.3,Win32,59.91252771,62bbe60bf3d75ef465d3e404,0,69,69,46,1,fourtwo,,,,,,,,,,,,,,,,,,,,,,,,,,,,,,,,,,,,,,,,,,,,,,,,,,,,,,,,,,,,,,,,,,,,,,,,,,,,,,,,,,,,,,,,,,,,,,,,,,,,,,,,,,,,,,,,,,,,,,,,,,,,,,,,,,,,,,,,,,,,,,,,,,,,,,,,
,,,,,,612f7826436df8fb008c4f0d,62bbfaa76ef624f4e415c7ad,2022-06-29_09h10.45.880,Colour_Asymmetry_Pilot,2022.1.3,Win32,59.91252771,62bbe60bf3d75ef465d3e404,0,70,70,44,1,threeone,,,,,,,,,,,,,,,,,,,,,,,,,,,,,,,,,,,,,,,,,,,,,,,,,,,,,,,,,,,,,,,,,,,,,,,,,,,,,,,,,,,,,,,,,,,,,,,,,,,,,,,,,,,,,,,,,,,,,,,,,,,,,,,,,,,,,,,,,,,,,,,,,,,,,,,,
,,,,,,612f7826436df8fb008c4f0d,62bbfaa76ef624f4e415c7ad,2022-06-29_09h10.45.880,Colour_Asymmetry_Pilot,2022.1.3,Win32,59.91252771,62bbe60bf3d75ef465d3e404,0,71,71,126,1,fourtwo,,,,,,,,,,,,,,,,,,,,,,,,,,,,,,,,,,,,,,,,,,,,,,,,,,,,,,,,,,,,,,,,,,,,,,,,,,,,,,,,,,,,,,,,,,,,,,,,,,,,,,,,,,,,,,,,,,,,,,,,,,,,,,,,,,,,,,,,,,,,,,,,,,,,,,,,
,,,,,,612f7826436df8fb008c4f0d,62bbfaa76ef624f4e415c7ad,2022-06-29_09h10.45.880,Colour_Asymmetry_Pilot,2022.1.3,Win32,59.91252771,62bbe60bf3d75ef465d3e404,0,72,72,132,1,threeone,,,,,,,,,,,,,,,,,,,,,,,,,,,,,,,,,,,,,,,,,,,,,,,,,,,,,,,,,,,,,,,,,,,,,,,,,,,,,,,,,,,,,,,,,,,,,,,,,,,,,,,,,,,,,,,,,,,,,,,,,,,,,,,,,,,,,,,,,,,,,,,,,,,,,,,,
,,,,,,612f7826436df8fb008c4f0d,62bbfaa76ef624f4e415c7ad,2022-06-29_09h10.45.880,Colour_Asymmetry_Pilot,2022.1.3,Win32,59.91252771,62bbe60bf3d75ef465d3e404,0,73,73,130,1,twoone,,,,,,,,,,,,,,,,,,,,,,,,,,,,,,,,,,,,,,,,,,,,,,,,,,,,,,,,,,,,,,,,,,,,,,,,,,,,,,,,,,,,,,,,,,,,,,,,,,,,,,,,,,,,,,,,,,,,,,,,,,,,,,,,,,,,,,,,,,,,,,,,,,,,,,,,
,,,,,,612f7826436df8fb008c4f0d,62bbfaa76ef624f4e415c7ad,2022-06-29_09h10.45.880,Colour_Asymmetry_Pilot,2022.1.3,Win32,59.91252771,62bbe60bf3d75ef465d3e404,0,74,74,101,1,threefour,,,,,,,,,,,,,,,,,,,,,,,,,,,,,,,,,,,,,,,,,,,,,,,,,,,,,,,,,,,,,,,,,,,,,,,,,,,,,,,,,,,,,,,,,,,,,,,,,,,,,,,,,,,,,,,,,,,,,,,,,,,,,,,,,,,,,,,,,,,,,,,,,,,,,,,,
,,,,,,612f7826436df8fb008c4f0d,62bbfaa76ef624f4e415c7ad,2022-06-29_09h10.45.880,Colour_Asymmetry_Pilot,2022.1.3,Win32,59.91252771,62bbe60bf3d75ef465d3e404,0,75,75,8,1,onetwo,,,,,,,,,,,,,,,,,,,,,,,,,,,,,,,,,,,,,,,,,,,,,,,,,,,,,,,,,,,,,,,,,,,,,,,,,,,,,,,,,,,,,,,,,,,,,,,,,,,,,,,,,,,,,,,,,,,,,,,,,,,,,,,,,,,,,,,,,,,,,,,,,,,,,,,,
,,,,,,612f7826436df8fb008c4f0d,62bbfaa76ef624f4e415c7ad,2022-06-29_09h10.45.880,Colour_Asymmetry_Pilot,2022.1.3,Win32,59.91252771,62bbe60bf3d75ef465d3e404,0,76,76,107,1,twofour,,,,,,,,,,,,,,,,,,,,,,,,,,,,,,,,,,,,,,,,,,,,,,,,,,,,,,,,,,,,,,,,,,,,,,,,,,,,,,,,,,,,,,,,,,,,,,,,,,,,,,,,,,,,,,,,,,,,,,,,,,,,,,,,,,,,,,,,,,,,,,,,,,,,,,,,
,,,,,,612f7826436df8fb008c4f0d,62bbfaa76ef624f4e415c7ad,2022-06-29_09h10.45.880,Colour_Asymmetry_Pilot,2022.1.3,Win32,59.91252771,62bbe60bf3d75ef465d3e404,0,77,77,13,1,threefour,,,,,,,,,,,,,,,,,,,,,,,,,,,,,,,,,,,,,,,,,,,,,,,,,,,,,,,,,,,,,,,,,,,,,,,,,,,,,,,,,,,,,,,,,,,,,,,,,,,,,,,,,,,,,,,,,,,,,,,,,,,,,,,,,,,,,,,,,,,,,,,,,,,,,,,,
,,,,,,612f7826436df8fb008c4f0d,62bbfaa76ef624f4e415c7ad,2022-06-29_09h10.45.880,Colour_Asymmetry_Pilot,2022.1.3,Win32,59.91252771,62bbe60bf3d75ef465d3e404,0,78,78,111,1,fourthree,,,,,,,,,,,,,,,,,,,,,,,,,,,,,,,,,,,,,,,,,,,,,,,,,,,,,,,,,,,,,,,,,,,,,,,,,,,,,,,,,,,,,,,,,,,,,,,,,,,,,,,,,,,,,,,,,,,,,,,,,,,,,,,,,,,,,,,,,,,,,,,,,,,,,,,,
,,,,,,612f7826436df8fb008c4f0d,62bbfaa76ef624f4e415c7ad,2022-06-29_09h10.45.880,Colour_Asymmetry_Pilot,2022.1.3,Win32,59.91252771,62bbe60bf3d75ef465d3e404,0,79,79,30,1,fourtwo,,,,,,,,,,,,,,,,,,,,,,,,,,,,,,,,,,,,,,,,,,,,,,,,,,,,,,,,,,,,,,,,,,,,,,,,,,,,,,,,,,,,,,,,,,,,,,,,,,,,,,,,,,,,,,,,,,,,,,,,,,,,,,,,,,,,,,,,,,,,,,,,,,,,,,,,
,,,,,,612f7826436df8fb008c4f0d,62bbfaa76ef624f4e415c7ad,2022-06-29_09h10.45.880,Colour_Asymmetry_Pilot,2022.1.3,Win32,59.91252771,62bbe60bf3d75ef465d3e404,0,80,80,144,1,onetwo,,,,,,,,,,,,,,,,,,,,,,,,,,,,,,,,,,,,,,,,,,,,,,,,,,,,,,,,,,,,,,,,,,,,,,,,,,,,,,,,,,,,,,,,,,,,,,,,,,,,,,,,,,,,,,,,,,,,,,,,,,,,,,,,,,,,,,,,,,,,,,,,,,,,,,,,
,,,,,,612f7826436df8fb008c4f0d,62bbfaa76ef624f4e415c7ad,2022-06-29_09h10.45.880,Colour_Asymmetry_Pilot,2022.1.3,Win32,59.91252771,62bbe60bf3d75ef465d3e404,0,81,81,131,1,twofour,,,,,,,,,,,,,,,,,,,,,,,,,,,,,,,,,,,,,,,,,,,,,,,,,,,,,,,,,,,,,,,,,,,,,,,,,,,,,,,,,,,,,,,,,,,,,,,,,,,,,,,,,,,,,,,,,,,,,,,,,,,,,,,,,,,,,,,,,,,,,,,,,,,,,,,,
,,,,,,612f7826436df8fb008c4f0d,62bbfaa76ef624f4e415c7ad,2022-06-29_09h10.45.880,Colour_Asymmetry_Pilot,2022.1.3,Win32,59.91252771,62bbe60bf3d75ef465d3e404,0,82,82,61,1,threefour,,,,,,,,,,,,,,,,,,,,,,,,,,,,,,,,,,,,,,,,,,,,,,,,,,,,,,,,,,,,,,,,,,,,,,,,,,,,,,,,,,,,,,,,,,,,,,,,,,,,,,,,,,,,,,,,,,,,,,,,,,,,,,,,,,,,,,,,,,,,,,,,,,,,,,,,
,,,,,,612f7826436df8fb008c4f0d,62bbfaa76ef624f4e415c7ad,2022-06-29_09h10.45.880,Colour_Asymmetry_Pilot,2022.1.3,Win32,59.91252771,62bbe60bf3d75ef465d3e404,0,83,83,94,1,fourtwo,,,,,,,,,,,,,,,,,,,,,,,,,,,,,,,,,,,,,,,,,,,,,,,,,,,,,,,,,,,,,,,,,,,,,,,,,,,,,,,,,,,,,,,,,,,,,,,,,,,,,,,,,,,,,,,,,,,,,,,,,,,,,,,,,,,,,,,,,,,,,,,,,,,,,,,,
,,,,,,612f7826436df8fb008c4f0d,62bbfaa76ef624f4e415c7ad,2022-06-29_09h10.45.880,Colour_Asymmetry_Pilot,2022.1.3,Win32,59.91252771,62bbe60bf3d75ef465d3e404,0,84,84,43,1,twofour,,,,,,,,,,,,,,,,,,,,,,,,,,,,,,,,,,,,,,,,,,,,,,,,,,,,,,,,,,,,,,,,,,,,,,,,,,,,,,,,,,,,,,,,,,,,,,,,,,,,,,,,,,,,,,,,,,,,,,,,,,,,,,,,,,,,,,,,,,,,,,,,,,,,,,,,
,,,,,,612f7826436df8fb008c4f0d,62bbfaa76ef624f4e415c7ad,2022-06-29_09h10.45.880,Colour_Asymmetry_Pilot,2022.1.3,Win32,59.91252771,62bbe60bf3d75ef465d3e404,0,85,85,21,1,threefour,,,,,,,,,,,,,,,,,,,,,,,,,,,,,,,,,,,,,,,,,,,,,,,,,,,,,,,,,,,,,,,,,,,,,,,,,,,,,,,,,,,,,,,,,,,,,,,,,,,,,,,,,,,,,,,,,,,,,,,,,,,,,,,,,,,,,,,,,,,,,,,,,,,,,,,,
,,,,,,612f7826436df8fb008c4f0d,62bbfaa76ef624f4e415c7ad,2022-06-29_09h10.45.880,Colour_Asymmetry_Pilot,2022.1.3,Win32,59.91252771,62bbe60bf3d75ef465d3e404,0,86,86,28,1,threeone,,,,,,,,,,,,,,,,,,,,,,,,,,,,,,,,,,,,,,,,,,,,,,,,,,,,,,,,,,,,,,,,,,,,,,,,,,,,,,,,,,,,,,,,,,,,,,,,,,,,,,,,,,,,,,,,,,,,,,,,,,,,,,,,,,,,,,,,,,,,,,,,,,,,,,,,
,,,,,,612f7826436df8fb008c4f0d,62bbfaa76ef624f4e415c7ad,2022-06-29_09h10.45.880,Colour_Asymmetry_Pilot,2022.1.3,Win32,59.91252771,62bbe60bf3d75ef465d3e404,0,87,87,133,1,threefour,,,,,,,,,,,,,,,,,,,,,,,,,,,,,,,,,,,,,,,,,,,,,,,,,,,,,,,,,,,,,,,,,,,,,,,,,,,,,,,,,,,,,,,,,,,,,,,,,,,,,,,,,,,,,,,,,,,,,,,,,,,,,,,,,,,,,,,,,,,,,,,,,,,,,,,,
,,,,,,612f7826436df8fb008c4f0d,62bbfaa76ef624f4e415c7ad,2022-06-29_09h10.45.880,Colour_Asymmetry_Pilot,2022.1.3,Win32,59.91252771,62bbe60bf3d75ef465d3e404,0,88,88,123,1,twofour,,,,,,,,,,,,,,,,,,,,,,,,,,,,,,,,,,,,,,,,,,,,,,,,,,,,,,,,,,,,,,,,,,,,,,,,,,,,,,,,,,,,,,,,,,,,,,,,,,,,,,,,,,,,,,,,,,,,,,,,,,,,,,,,,,,,,,,,,,,,,,,,,,,,,,,,
,,,,,,612f7826436df8fb008c4f0d,62bbfaa76ef624f4e415c7ad,2022-06-29_09h10.45.880,Colour_Asymmetry_Pilot,2022.1.3,Win32,59.91252771,62bbe60bf3d75ef465d3e404,0,89,89,91,1,twofour,,,,,,,,,,,,,,,,,,,,,,,,,,,,,,,,,,,,,,,,,,,,,,,,,,,,,,,,,,,,,,,,,,,,,,,,,,,,,,,,,,,,,,,,,,,,,,,,,,,,,,,,,,,,,,,,,,,,,,,,,,,,,,,,,,,,,,,,,,,,,,,,,,,,,,,,
,,,,,,612f7826436df8fb008c4f0d,62bbfaa76ef624f4e415c7ad,2022-06-29_09h10.45.880,Colour_Asymmetry_Pilot,2022.1.3,Win32,59.91252771,62bbe60bf3d75ef465d3e404,0,90,90,153,1,onethree,,,,,,,,,,,,,,,,,,,,,,,,,,,,,,,,,,,,,,,,,,,,,,,,,,,,,,,,,,,,,,,,,,,,,,,,,,,,,,,,,,,,,,,,,,,,,,,,,,,,,,,,,,,,,,,,,,,,,,,,,,,,,,,,,,,,,,,,,,,,,,,,,,,,,,,,
,,,,,,612f7826436df8fb008c4f0d,62bbfaa76ef624f4e415c7ad,2022-06-29_09h10.45.880,Colour_Asymmetry_Pilot,2022.1.3,Win32,59.91252771,62bbe60bf3d75ef465d3e404,0,91,91,63,1,fourthree,,,,,,,,,,,,,,,,,,,,,,,,,,,,,,,,,,,,,,,,,,,,,,,,,,,,,,,,,,,,,,,,,,,,,,,,,,,,,,,,,,,,,,,,,,,,,,,,,,,,,,,,,,,,,,,,,,,,,,,,,,,,,,,,,,,,,,,,,,,,,,,,,,,,,,,,
,,,,,,612f7826436df8fb008c4f0d,62bbfaa76ef624f4e415c7ad,2022-06-29_09h10.45.880,Colour_Asymmetry_Pilot,2022.1.3,Win32,59.91252771,62bbe60bf3d75ef465d3e404,0,92,92,145,1,onethree,,,,,,,,,,,,,,,,,,,,,,,,,,,,,,,,,,,,,,,,,,,,,,,,,,,,,,,,,,,,,,,,,,,,,,,,,,,,,,,,,,,,,,,,,,,,,,,,,,,,,,,,,,,,,,,,,,,,,,,,,,,,,,,,,,,,,,,,,,,,,,,,,,,,,,,,
,,,,,,612f7826436df8fb008c4f0d,62bbfaa76ef624f4e415c7ad,2022-06-29_09h10.45.880,Colour_Asymmetry_Pilot,2022.1.3,Win32,59.91252771,62bbe60bf3d75ef465d3e404,0,93,93,85,1,threefour,,,,,,,,,,,,,,,,,,,,,,,,,,,,,,,,,,,,,,,,,,,,,,,,,,,,,,,,,,,,,,,,,,,,,,,,,,,,,,,,,,,,,,,,,,,,,,,,,,,,,,,,,,,,,,,,,,,,,,,,,,,,,,,,,,,,,,,,,,,,,,,,,,,,,,,,
,,,,,,612f7826436df8fb008c4f0d,62bbfaa76ef624f4e415c7ad,2022-06-29_09h10.45.880,Colour_Asymmetry_Pilot,2022.1.3,Win32,59.91252771,62bbe60bf3d75ef465d3e404,0,94,94,149,1,threefour,,,,,,,,,,,,,,,,,,,,,,,,,,,,,,,,,,,,,,,,,,,,,,,,,,,,,,,,,,,,,,,,,,,,,,,,,,,,,,,,,,,,,,,,,,,,,,,,,,,,,,,,,,,,,,,,,,,,,,,,,,,,,,,,,,,,,,,,,,,,,,,,,,,,,,,,
,,,,,,612f7826436df8fb008c4f0d,62bbfaa76ef624f4e415c7ad,2022-06-29_09h10.45.880,Colour_Asymmetry_Pilot,2022.1.3,Win32,59.91252771,62bbe60bf3d75ef465d3e404,0,95,95,35,1,twofour,,,,,,,,,,,,,,,,,,,,,,,,,,,,,,,,,,,,,,,,,,,,,,,,,,,,,,,,,,,,,,,,,,,,,,,,,,,,,,,,,,,,,,,,,,,,,,,,,,,,,,,,,,,,,,,,,,,,,,,,,,,,,,,,,,,,,,,,,,,,,,,,,,,,,,,,
,,,,,,612f7826436df8fb008c4f0d,62bbfaa76ef624f4e415c7ad,2022-06-29_09h10.45.880,Colour_Asymmetry_Pilot,2022.1.3,Win32,59.91252771,62bbe60bf3d75ef465d3e404,0,96,96,90,1,twoone,,,,,,,,,,,,,,,,,,,,,,,,,,,,,,,,,,,,,,,,,,,,,,,,,,,,,,,,,,,,,,,,,,,,,,,,,,,,,,,,,,,,,,,,,,,,,,,,,,,,,,,,,,,,,,,,,,,,,,,,,,,,,,,,,,,,,,,,,,,,,,,,,,,,,,,,
,,,,,,612f7826436df8fb008c4f0d,62bbfaa76ef624f4e415c7ad,2022-06-29_09h10.45.880,Colour_Asymmetry_Pilot,2022.1.3,Win32,59.91252771,62bbe60bf3d75ef465d3e404,0,97,97,52,1,threeone,,,,,,,,,,,,,,,,,,,,,,,,,,,,,,,,,,,,,,,,,,,,,,,,,,,,,,,,,,,,,,,,,,,,,,,,,,,,,,,,,,,,,,,,,,,,,,,,,,,,,,,,,,,,,,,,,,,,,,,,,,,,,,,,,,,,,,,,,,,,,,,,,,,,,,,,
,,,,,,612f7826436df8fb008c4f0d,62bbfaa76ef624f4e415c7ad,2022-06-29_09h10.45.880,Colour_Asymmetry_Pilot,2022.1.3,Win32,59.91252771,62bbe60bf3d75ef465d3e404,0,98,98,127,1,fourthree,,,,,,,,,,,,,,,,,,,,,,,,,,,,,,,,,,,,,,,,,,,,,,,,,,,,,,,,,,,,,,,,,,,,,,,,,,,,,,,,,,,,,,,,,,,,,,,,,,,,,,,,,,,,,,,,,,,,,,,,,,,,,,,,,,,,,,,,,,,,,,,,,,,,,,,,
,,,,,,612f7826436df8fb008c4f0d,62bbfaa76ef624f4e415c7ad,2022-06-29_09h10.45.880,Colour_Asymmetry_Pilot,2022.1.3,Win32,59.91252771,62bbe60bf3d75ef465d3e404,0,99,99,17,1,onethree,,,,,,,,,,,,,,,,,,,,,,,,,,,,,,,,,,,,,,,,,,,,,,,,,,,,,,,,,,,,,,,,,,,,,,,,,,,,,,,,,,,,,,,,,,,,,,,,,,,,,,,,,,,,,,,,,,,,,,,,,,,,,,,,,,,,,,,,,,,,,,,,,,,,,,,,
,,,,,,612f7826436df8fb008c4f0d,62bbfaa76ef624f4e415c7ad,2022-06-29_09h10.45.880,Colour_Asymmetry_Pilot,2022.1.3,Win32,59.91252771,62bbe60bf3d75ef465d3e404,0,100,100,161,1,onethree,,,,,,,,,,,,,,,,,,,,,,,,,,,,,,,,,,,,,,,,,,,,,,,,,,,,,,,,,,,,,,,,,,,,,,,,,,,,,,,,,,,,,,,,,,,,,,,,,,,,,,,,,,,,,,,,,,,,,,,,,,,,,,,,,,,,,,,,,,,,,,,,,,,,,,,,
,,,,,,612f7826436df8fb008c4f0d,62bbfaa76ef624f4e415c7ad,2022-06-29_09h10.45.880,Colour_Asymmetry_Pilot,2022.1.3,Win32,59.91252771,62bbe60bf3d75ef465d3e404,0,101,101,142,1,fourtwo,,,,,,,,,,,,,,,,,,,,,,,,,,,,,,,,,,,,,,,,,,,,,,,,,,,,,,,,,,,,,,,,,,,,,,,,,,,,,,,,,,,,,,,,,,,,,,,,,,,,,,,,,,,,,,,,,,,,,,,,,,,,,,,,,,,,,,,,,,,,,,,,,,,,,,,,
,,,,,,612f7826436df8fb008c4f0d,62bbfaa76ef624f4e415c7ad,2022-06-29_09h10.45.880,Colour_Asymmetry_Pilot,2022.1.3,Win32,59.91252771,62bbe60bf3d75ef465d3e404,0,102,102,83,1,twofour,,,,,,,,,,,,,,,,,,,,,,,,,,,,,,,,,,,,,,,,,,,,,,,,,,,,,,,,,,,,,,,,,,,,,,,,,,,,,,,,,,,,,,,,,,,,,,,,,,,,,,,,,,,,,,,,,,,,,,,,,,,,,,,,,,,,,,,,,,,,,,,,,,,,,,,,
,,,,,,612f7826436df8fb008c4f0d,62bbfaa76ef624f4e415c7ad,2022-06-29_09h10.45.880,Colour_Asymmetry_Pilot,2022.1.3,Win32,59.91252771,62bbe60bf3d75ef465d3e404,0,103,103,72,1,onetwo,,,,,,,,,,,,,,,,,,,,,,,,,,,,,,,,,,,,,,,,,,,,,,,,,,,,,,,,,,,,,,,,,,,,,,,,,,,,,,,,,,,,,,,,,,,,,,,,,,,,,,,,,,,,,,,,,,,,,,,,,,,,,,,,,,,,,,,,,,,,,,,,,,,,,,,,
,,,,,,612f7826436df8fb008c4f0d,62bbfaa76ef624f4e415c7ad,2022-06-29_09h10.45.880,Colour_Asymmetry_Pilot,2022.1.3,Win32,59.91252771,62bbe60bf3d75ef465d3e404,0,104,104,158,1,fourtwo,,,,,,,,,,,,,,,,,,,,,,,,,,,,,,,,,,,,,,,,,,,,,,,,,,,,,,,,,,,,,,,,,,,,,,,,,,,,,,,,,,,,,,,,,,,,,,,,,,,,,,,,,,,,,,,,,,,,,,,,,,,,,,,,,,,,,,,,,,,,,,,,,,,,,,,,
,,,,,,612f7826436df8fb008c4f0d,62bbfaa76ef624f4e415c7ad,2022-06-29_09h10.45.880,Colour_Asymmetry_Pilot,2022.1.3,Win32,59.91252771,62bbe60bf3d75ef465d3e404,0,105,105,6,1,fourtwo,,,,,,,,,,,,,,,,,,,,,,,,,,,,,,,,,,,,,,,,,,,,,,,,,,,,,,,,,,,,,,,,,,,,,,,,,,,,,,,,,,,,,,,,,,,,,,,,,,,,,,,,,,,,,,,,,,,,,,,,,,,,,,,,,,,,,,,,,,,,,,,,,,,,,,,,
,,,,,,612f7826436df8fb008c4f0d,62bbfaa76ef624f4e415c7ad,2022-06-29_09h10.45.880,Colour_Asymmetry_Pilot,2022.1.3,Win32,59.91252771,62bbe60bf3d75ef465d3e404,0,106,106,71,1,fourthree,,,,,,,,,,,,,,,,,,,,,,,,,,,,,,,,,,,,,,,,,,,,,,,,,,,,,,,,,,,,,,,,,,,,,,,,,,,,,,,,,,,,,,,,,,,,,,,,,,,,,,,,,,,,,,,,,,,,,,,,,,,,,,,,,,,,,,,,,,,,,,,,,,,,,,,,
,,,,,,612f7826436df8fb008c4f0d,62bbfaa76ef624f4e415c7ad,2022-06-29_09h10.45.880,Colour_Asymmetry_Pilot,2022.1.3,Win32,59.91252771,62bbe60bf3d75ef465d3e404,0,107,107,93,1,threefour,,,,,,,,,,,,,,,,,,,,,,,,,,,,,,,,,,,,,,,,,,,,,,,,,,,,,,,,,,,,,,,,,,,,,,,,,,,,,,,,,,,,,,,,,,,,,,,,,,,,,,,,,,,,,,,,,,,,,,,,,,,,,,,,,,,,,,,,,,,,,,,,,,,,,,,,
,,,,,,612f7826436df8fb008c4f0d,62bbfaa76ef624f4e415c7ad,2022-06-29_09h10.45.880,Colour_Asymmetry_Pilot,2022.1.3,Win32,59.91252771,62bbe60bf3d75ef465d3e404,0,108,108,62,1,fourtwo,,,,,,,,,,,,,,,,,,,,,,,,,,,,,,,,,,,,,,,,,,,,,,,,,,,,,,,,,,,,,,,,,,,,,,,,,,,,,,,,,,,,,,,,,,,,,,,,,,,,,,,,,,,,,,,,,,,,,,,,,,,,,,,,,,,,,,,,,,,,,,,,,,,,,,,,
,,,,,,612f7826436df8fb008c4f0d,62bbfaa76ef624f4e415c7ad,2022-06-29_09h10.45.880,Colour_Asymmetry_Pilot,2022.1.3,Win32,59.91252771,62bbe60bf3d75ef465d3e404,0,109,109,38,1,fourtwo,,,,,,,,,,,,,,,,,,,,,,,,,,,,,,,,,,,,,,,,,,,,,,,,,,,,,,,,,,,,,,,,,,,,,,,,,,,,,,,,,,,,,,,,,,,,,,,,,,,,,,,,,,,,,,,,,,,,,,,,,,,,,,,,,,,,,,,,,,,,,,,,,,,,,,,,
,,,,,,612f7826436df8fb008c4f0d,62bbfaa76ef624f4e415c7ad,2022-06-29_09h10.45.880,Colour_Asymmetry_Pilot,2022.1.3,Win32,59.91252771,62bbe60bf3d75ef465d3e404,0,110,110,116,1,threeone,,,,,,,,,,,,,,,,,,,,,,,,,,,,,,,,,,,,,,,,,,,,,,,,,,,,,,,,,,,,,,,,,,,,,,,,,,,,,,,,,,,,,,,,,,,,,,,,,,,,,,,,,,,,,,,,,,,,,,,,,,,,,,,,,,,,,,,,,,,,,,,,,,,,,,,,
,,,,,,612f7826436df8fb008c4f0d,62bbfaa76ef624f4e415c7ad,2022-06-29_09h10.45.880,Colour_Asymmetry_Pilot,2022.1.3,Win32,59.91252771,62bbe60bf3d75ef465d3e404,0,111,111,33,1,onethree,,,,,,,,,,,,,,,,,,,,,,,,,,,,,,,,,,,,,,,,,,,,,,,,,,,,,,,,,,,,,,,,,,,,,,,,,,,,,,,,,,,,,,,,,,,,,,,,,,,,,,,,,,,,,,,,,,,,,,,,,,,,,,,,,,,,,,,,,,,,,,,,,,,,,,,,
,,,,,,612f7826436df8fb008c4f0d,62bbfaa76ef624f4e415c7ad,2022-06-29_09h10.45.880,Colour_Asymmetry_Pilot,2022.1.3,Win32,59.91252771,62bbe60bf3d75ef465d3e404,0,112,112,79,1,fourthree,,,,,,,,,,,,,,,,,,,,,,,,,,,,,,,,,,,,,,,,,,,,,,,,,,,,,,,,,,,,,,,,,,,,,,,,,,,,,,,,,,,,,,,,,,,,,,,,,,,,,,,,,,,,,,,,,,,,,,,,,,,,,,,,,,,,,,,,,,,,,,,,,,,,,,,,
,,,,,,612f7826436df8fb008c4f0d,62bbfaa76ef624f4e415c7ad,2022-06-29_09h10.45.880,Colour_Asymmetry_Pilot,2022.1.3,Win32,59.91252771,62bbe60bf3d75ef465d3e404,0,113,113,42,1,twoone,,,,,,,,,,,,,,,,,,,,,,,,,,,,,,,,,,,,,,,,,,,,,,,,,,,,,,,,,,,,,,,,,,,,,,,,,,,,,,,,,,,,,,,,,,,,,,,,,,,,,,,,,,,,,,,,,,,,,,,,,,,,,,,,,,,,,,,,,,,,,,,,,,,,,,,,
,,,,,,612f7826436df8fb008c4f0d,62bbfaa76ef624f4e415c7ad,2022-06-29_09h10.45.880,Colour_Asymmetry_Pilot,2022.1.3,Win32,59.91252771,62bbe60bf3d75ef465d3e404,0,114,114,67,1,twofour,,,,,,,,,,,,,,,,,,,,,,,,,,,,,,,,,,,,,,,,,,,,,,,,,,,,,,,,,,,,,,,,,,,,,,,,,,,,,,,,,,,,,,,,,,,,,,,,,,,,,,,,,,,,,,,,,,,,,,,,,,,,,,,,,,,,,,,,,,,,,,,,,,,,,,,,
,,,,,,612f7826436df8fb008c4f0d,62bbfaa76ef624f4e415c7ad,2022-06-29_09h10.45.880,Colour_Asymmetry_Pilot,2022.1.3,Win32,59.91252771,62bbe60bf3d75ef465d3e404,0,115,115,40,1,onetwo,,,,,,,,,,,,,,,,,,,,,,,,,,,,,,,,,,,,,,,,,,,,,,,,,,,,,,,,,,,,,,,,,,,,,,,,,,,,,,,,,,,,,,,,,,,,,,,,,,,,,,,,,,,,,,,,,,,,,,,,,,,,,,,,,,,,,,,,,,,,,,,,,,,,,,,,
,,,,,,612f7826436df8fb008c4f0d,62bbfaa76ef624f4e415c7ad,2022-06-29_09h10.45.880,Colour_Asymmetry_Pilot,2022.1.3,Win32,59.91252771,62bbe60bf3d75ef465d3e404,0,116,116,106,1,twoone,,,,,,,,,,,,,,,,,,,,,,,,,,,,,,,,,,,,,,,,,,,,,,,,,,,,,,,,,,,,,,,,,,,,,,,,,,,,,,,,,,,,,,,,,,,,,,,,,,,,,,,,,,,,,,,,,,,,,,,,,,,,,,,,,,,,,,,,,,,,,,,,,,,,,,,,
,,,,,,612f7826436df8fb008c4f0d,62bbfaa76ef624f4e415c7ad,2022-06-29_09h10.45.880,Colour_Asymmetry_Pilot,2022.1.3,Win32,59.91252771,62bbe60bf3d75ef465d3e404,0,117,117,159,1,fourthree,,,,,,,,,,,,,,,,,,,,,,,,,,,,,,,,,,,,,,,,,,,,,,,,,,,,,,,,,,,,,,,,,,,,,,,,,,,,,,,,,,,,,,,,,,,,,,,,,,,,,,,,,,,,,,,,,,,,,,,,,,,,,,,,,,,,,,,,,,,,,,,,,,,,,,,,
,,,,,,612f7826436df8fb008c4f0d,62bbfaa76ef624f4e415c7ad,2022-06-29_09h10.45.880,Colour_Asymmetry_Pilot,2022.1.3,Win32,59.91252771,62bbe60bf3d75ef465d3e404,0,118,118,115,1,twofour,,,,,,,,,,,,,,,,,,,,,,,,,,,,,,,,,,,,,,,,,,,,,,,,,,,,,,,,,,,,,,,,,,,,,,,,,,,,,,,,,,,,,,,,,,,,,,,,,,,,,,,,,,,,,,,,,,,,,,,,,,,,,,,,,,,,,,,,,,,,,,,,,,,,,,,,
,,,,,,612f7826436df8fb008c4f0d,62bbfaa76ef624f4e415c7ad,2022-06-29_09h10.45.880,Colour_Asymmetry_Pilot,2022.1.3,Win32,59.91252771,62bbe60bf3d75ef465d3e404,0,119,119,151,1,fourthree,,,,,,,,,,,,,,,,,,,,,,,,,,,,,,,,,,,,,,,,,,,,,,,,,,,,,,,,,,,,,,,,,,,,,,,,,,,,,,,,,,,,,,,,,,,,,,,,,,,,,,,,,,,,,,,,,,,,,,,,,,,,,,,,,,,,,,,,,,,,,,,,,,,,,,,,
,,,,,,612f7826436df8fb008c4f0d,62bbfaa76ef624f4e415c7ad,2022-06-29_09h10.45.880,Colour_Asymmetry_Pilot,2022.1.3,Win32,59.91252771,62bbe60bf3d75ef465d3e404,0,120,120,97,1,onethree,,,,,,,,,,,,,,,,,,,,,,,,,,,,,,,,,,,,,,,,,,,,,,,,,,,,,,,,,,,,,,,,,,,,,,,,,,,,,,,,,,,,,,,,,,,,,,,,,,,,,,,,,,,,,,,,,,,,,,,,,,,,,,,,,,,,,,,,,,,,,,,,,,,,,,,,
,,,,,,612f7826436df8fb008c4f0d,62bbfaa76ef624f4e415c7ad,2022-06-29_09h10.45.880,Colour_Asymmetry_Pilot,2022.1.3,Win32,59.91252771,62bbe60bf3d75ef465d3e404,0,121,121,60,1,threeone,,,,,,,,,,,,,,,,,,,,,,,,,,,,,,,,,,,,,,,,,,,,,,,,,,,,,,,,,,,,,,,,,,,,,,,,,,,,,,,,,,,,,,,,,,,,,,,,,,,,,,,,,,,,,,,,,,,,,,,,,,,,,,,,,,,,,,,,,,,,,,,,,,,,,,,,
,,,,,,612f7826436df8fb008c4f0d,62bbfaa76ef624f4e415c7ad,2022-06-29_09h10.45.880,Colour_Asymmetry_Pilot,2022.1.3,Win32,59.91252771,62bbe60bf3d75ef465d3e404,0,122,122,66,1,twoone,,,,,,,,,,,,,,,,,,,,,,,,,,,,,,,,,,,,,,,,,,,,,,,,,,,,,,,,,,,,,,,,,,,,,,,,,,,,,,,,,,,,,,,,,,,,,,,,,,,,,,,,,,,,,,,,,,,,,,,,,,,,,,,,,,,,,,,,,,,,,,,,,,,,,,,,
,,,,,,612f7826436df8fb008c4f0d,62bbfaa76ef624f4e415c7ad,2022-06-29_09h10.45.880,Colour_Asymmetry_Pilot,2022.1.3,Win32,59.91252771,62bbe60bf3d75ef465d3e404,0,123,123,53,1,threefour,,,,,,,,,,,,,,,,,,,,,,,,,,,,,,,,,,,,,,,,,,,,,,,,,,,,,,,,,,,,,,,,,,,,,,,,,,,,,,,,,,,,,,,,,,,,,,,,,,,,,,,,,,,,,,,,,,,,,,,,,,,,,,,,,,,,,,,,,,,,,,,,,,,,,,,,
,,,,,,612f7826436df8fb008c4f0d,62bbfaa76ef624f4e415c7ad,2022-06-29_09h10.45.880,Colour_Asymmetry_Pilot,2022.1.3,Win32,59.91252771,62bbe60bf3d75ef465d3e404,0,124,124,98,1,twoone,,,,,,,,,,,,,,,,,,,,,,,,,,,,,,,,,,,,,,,,,,,,,,,,,,,,,,,,,,,,,,,,,,,,,,,,,,,,,,,,,,,,,,,,,,,,,,,,,,,,,,,,,,,,,,,,,,,,,,,,,,,,,,,,,,,,,,,,,,,,,,,,,,,,,,,,
,,,,,,612f7826436df8fb008c4f0d,62bbfaa76ef624f4e415c7ad,2022-06-29_09h10.45.880,Colour_Asymmetry_Pilot,2022.1.3,Win32,59.91252771,62bbe60bf3d75ef465d3e404,0,125,125,5,1,threefour,,,,,,,,,,,,,,,,,,,,,,,,,,,,,,,,,,,,,,,,,,,,,,,,,,,,,,,,,,,,,,,,,,,,,,,,,,,,,,,,,,,,,,,,,,,,,,,,,,,,,,,,,,,,,,,,,,,,,,,,,,,,,,,,,,,,,,,,,,,,,,,,,,,,,,,,
,,,,,,612f7826436df8fb008c4f0d,62bbfaa76ef624f4e415c7ad,2022-06-29_09h10.45.880,Colour_Asymmetry_Pilot,2022.1.3,Win32,59.91252771,62bbe60bf3d75ef465d3e404,0,126,126,54,1,fourtwo,,,,,,,,,,,,,,,,,,,,,,,,,,,,,,,,,,,,,,,,,,,,,,,,,,,,,,,,,,,,,,,,,,,,,,,,,,,,,,,,,,,,,,,,,,,,,,,,,,,,,,,,,,,,,,,,,,,,,,,,,,,,,,,,,,,,,,,,,,,,,,,,,,,,,,,,
,,,,,,612f7826436df8fb008c4f0d,62bbfaa76ef624f4e415c7ad,2022-06-29_09h10.45.880,Colour_Asymmetry_Pilot,2022.1.3,Win32,59.91252771,62bbe60bf3d75ef465d3e404,0,127,127,138,1,twoone,,,,,,,,,,,,,,,,,,,,,,,,,,,,,,,,,,,,,,,,,,,,,,,,,,,,,,,,,,,,,,,,,,,,,,,,,,,,,,,,,,,,,,,,,,,,,,,,,,,,,,,,,,,,,,,,,,,,,,,,,,,,,,,,,,,,,,,,,,,,,,,,,,,,,,,,
,,,,,,612f7826436df8fb008c4f0d,62bbfaa76ef624f4e415c7ad,2022-06-29_09h10.45.880,Colour_Asymmetry_Pilot,2022.1.3,Win32,59.91252771,62bbe60bf3d75ef465d3e404,0,128,128,122,1,twoone,,,,,,,,,,,,,,,,,,,,,,,,,,,,,,,,,,,,,,,,,,,,,,,,,,,,,,,,,,,,,,,,,,,,,,,,,,,,,,,,,,,,,,,,,,,,,,,,,,,,,,,,,,,,,,,,,,,,,,,,,,,,,,,,,,,,,,,,,,,,,,,,,,,,,,,,
,,,,,,612f7826436df8fb008c4f0d,62bbfaa76ef624f4e415c7ad,2022-06-29_09h10.45.880,Colour_Asymmetry_Pilot,2022.1.3,Win32,59.91252771,62bbe60bf3d75ef465d3e404,0,129,129,108,1,threeone,,,,,,,,,,,,,,,,,,,,,,,,,,,,,,,,,,,,,,,,,,,,,,,,,,,,,,,,,,,,,,,,,,,,,,,,,,,,,,,,,,,,,,,,,,,,,,,,,,,,,,,,,,,,,,,,,,,,,,,,,,,,,,,,,,,,,,,,,,,,,,,,,,,,,,,,
,,,,,,612f7826436df8fb008c4f0d,62bbfaa76ef624f4e415c7ad,2022-06-29_09h10.45.880,Colour_Asymmetry_Pilot,2022.1.3,Win32,59.91252771,62bbe60bf3d75ef465d3e404,0,130,130,23,1,fourthree,,,,,,,,,,,,,,,,,,,,,,,,,,,,,,,,,,,,,,,,,,,,,,,,,,,,,,,,,,,,,,,,,,,,,,,,,,,,,,,,,,,,,,,,,,,,,,,,,,,,,,,,,,,,,,,,,,,,,,,,,,,,,,,,,,,,,,,,,,,,,,,,,,,,,,,,
,,,,,,612f7826436df8fb008c4f0d,62bbfaa76ef624f4e415c7ad,2022-06-29_09h10.45.880,Colour_Asymmetry_Pilot,2022.1.3,Win32,59.91252771,62bbe60bf3d75ef465d3e404,0,131,131,117,1,threefour,,,,,,,,,,,,,,,,,,,,,,,,,,,,,,,,,,,,,,,,,,,,,,,,,,,,,,,,,,,,,,,,,,,,,,,,,,,,,,,,,,,,,,,,,,,,,,,,,,,,,,,,,,,,,,,,,,,,,,,,,,,,,,,,,,,,,,,,,,,,,,,,,,,,,,,,
,,,,,,612f7826436df8fb008c4f0d,62bbfaa76ef624f4e415c7ad,2022-06-29_09h10.45.880,Colour_Asymmetry_Pilot,2022.1.3,Win32,59.91252771,62bbe60bf3d75ef465d3e404,0,132,132,84,1,threeone,,,,,,,,,,,,,,,,,,,,,,,,,,,,,,,,,,,,,,,,,,,,,,,,,,,,,,,,,,,,,,,,,,,,,,,,,,,,,,,,,,,,,,,,,,,,,,,,,,,,,,,,,,,,,,,,,,,,,,,,,,,,,,,,,,,,,,,,,,,,,,,,,,,,,,,,
,,,,,,612f7826436df8fb008c4f0d,62bbfaa76ef624f4e415c7ad,2022-06-29_09h10.45.880,Colour_Asymmetry_Pilot,2022.1.3,Win32,59.91252771,62bbe60bf3d75ef465d3e404,0,133,133,140,1,threeone,,,,,,,,,,,,,,,,,,,,,,,,,,,,,,,,,,,,,,,,,,,,,,,,,,,,,,,,,,,,,,,,,,,,,,,,,,,,,,,,,,,,,,,,,,,,,,,,,,,,,,,,,,,,,,,,,,,,,,,,,,,,,,,,,,,,,,,,,,,,,,,,,,,,,,,,
,,,,,,612f7826436df8fb008c4f0d,62bbfaa76ef624f4e415c7ad,2022-06-29_09h10.45.880,Colour_Asymmetry_Pilot,2022.1.3,Win32,59.91252771,62bbe60bf3d75ef465d3e404,0,134,134,118,1,fourtwo,,,,,,,,,,,,,,,,,,,,,,,,,,,,,,,,,,,,,,,,,,,,,,,,,,,,,,,,,,,,,,,,,,,,,,,,,,,,,,,,,,,,,,,,,,,,,,,,,,,,,,,,,,,,,,,,,,,,,,,,,,,,,,,,,,,,,,,,,,,,,,,,,,,,,,,,
,,,,,,612f7826436df8fb008c4f0d,62bbfaa76ef624f4e415c7ad,2022-06-29_09h10.45.880,Colour_Asymmetry_Pilot,2022.1.3,Win32,59.91252771,62bbe60bf3d75ef465d3e404,0,135,135,156,1,threeone,,,,,,,,,,,,,,,,,,,,,,,,,,,,,,,,,,,,,,,,,,,,,,,,,,,,,,,,,,,,,,,,,,,,,,,,,,,,,,,,,,,,,,,,,,,,,,,,,,,,,,,,,,,,,,,,,,,,,,,,,,,,,,,,,,,,,,,,,,,,,,,,,,,,,,,,
,,,,,,612f7826436df8fb008c4f0d,62bbfaa76ef624f4e415c7ad,2022-06-29_09h10.45.880,Colour_Asymmetry_Pilot,2022.1.3,Win32,59.91252771,62bbe60bf3d75ef465d3e404,0,136,136,80,1,onetwo,,,,,,,,,,,,,,,,,,,,,,,,,,,,,,,,,,,,,,,,,,,,,,,,,,,,,,,,,,,,,,,,,,,,,,,,,,,,,,,,,,,,,,,,,,,,,,,,,,,,,,,,,,,,,,,,,,,,,,,,,,,,,,,,,,,,,,,,,,,,,,,,,,,,,,,,
,,,,,,612f7826436df8fb008c4f0d,62bbfaa76ef624f4e415c7ad,2022-06-29_09h10.45.880,Colour_Asymmetry_Pilot,2022.1.3,Win32,59.91252771,62bbe60bf3d75ef465d3e404,0,137,137,88,1,onetwo,,,,,,,,,,,,,,,,,,,,,,,,,,,,,,,,,,,,,,,,,,,,,,,,,,,,,,,,,,,,,,,,,,,,,,,,,,,,,,,,,,,,,,,,,,,,,,,,,,,,,,,,,,,,,,,,,,,,,,,,,,,,,,,,,,,,,,,,,,,,,,,,,,,,,,,,
,,,,,,612f7826436df8fb008c4f0d,62bbfaa76ef624f4e415c7ad,2022-06-29_09h10.45.880,Colour_Asymmetry_Pilot,2022.1.3,Win32,59.91252771,62bbe60bf3d75ef465d3e404,0,138,138,137,1,onethree,,,,,,,,,,,,,,,,,,,,,,,,,,,,,,,,,,,,,,,,,,,,,,,,,,,,,,,,,,,,,,,,,,,,,,,,,,,,,,,,,,,,,,,,,,,,,,,,,,,,,,,,,,,,,,,,,,,,,,,,,,,,,,,,,,,,,,,,,,,,,,,,,,,,,,,,
,,,,,,612f7826436df8fb008c4f0d,62bbfaa76ef624f4e415c7ad,2022-06-29_09h10.45.880,Colour_Asymmetry_Pilot,2022.1.3,Win32,59.91252771,62bbe60bf3d75ef465d3e404,0,139,139,104,1,onetwo,,,,,,,,,,,,,,,,,,,,,,,,,,,,,,,,,,,,,,,,,,,,,,,,,,,,,,,,,,,,,,,,,,,,,,,,,,,,,,,,,,,,,,,,,,,,,,,,,,,,,,,,,,,,,,,,,,,,,,,,,,,,,,,,,,,,,,,,,,,,,,,,,,,,,,,,
,,,,,,612f7826436df8fb008c4f0d,62bbfaa76ef624f4e415c7ad,2022-06-29_09h10.45.880,Colour_Asymmetry_Pilot,2022.1.3,Win32,59.91252771,62bbe60bf3d75ef465d3e404,0,140,140,27,1,twofour,,,,,,,,,,,,,,,,,,,,,,,,,,,,,,,,,,,,,,,,,,,,,,,,,,,,,,,,,,,,,,,,,,,,,,,,,,,,,,,,,,,,,,,,,,,,,,,,,,,,,,,,,,,,,,,,,,,,,,,,,,,,,,,,,,,,,,,,,,,,,,,,,,,,,,,,
,,,,,,612f7826436df8fb008c4f0d,62bbfaa76ef624f4e415c7ad,2022-06-29_09h10.45.880,Colour_Asymmetry_Pilot,2022.1.3,Win32,59.91252771,62bbe60bf3d75ef465d3e404,0,141,141,157,1,threefour,,,,,,,,,,,,,,,,,,,,,,,,,,,,,,,,,,,,,,,,,,,,,,,,,,,,,,,,,,,,,,,,,,,,,,,,,,,,,,,,,,,,,,,,,,,,,,,,,,,,,,,,,,,,,,,,,,,,,,,,,,,,,,,,,,,,,,,,,,,,,,,,,,,,,,,,
,,,,,,612f7826436df8fb008c4f0d,62bbfaa76ef624f4e415c7ad,2022-06-29_09h10.45.880,Colour_Asymmetry_Pilot,2022.1.3,Win32,59.91252771,62bbe60bf3d75ef465d3e404,0,142,142,154,1,twoone,,,,,,,,,,,,,,,,,,,,,,,,,,,,,,,,,,,,,,,,,,,,,,,,,,,,,,,,,,,,,,,,,,,,,,,,,,,,,,,,,,,,,,,,,,,,,,,,,,,,,,,,,,,,,,,,,,,,,,,,,,,,,,,,,,,,,,,,,,,,,,,,,,,,,,,,
,,,,,,612f7826436df8fb008c4f0d,62bbfaa76ef624f4e415c7ad,2022-06-29_09h10.45.880,Colour_Asymmetry_Pilot,2022.1.3,Win32,59.91252771,62bbe60bf3d75ef465d3e404,0,143,143,14,1,fourtwo,,,,,,,,,,,,,,,,,,,,,,,,,,,,,,,,,,,,,,,,,,,,,,,,,,,,,,,,,,,,,,,,,,,,,,,,,,,,,,,,,,,,,,,,,,,,,,,,,,,,,,,,,,,,,,,,,,,,,,,,,,,,,,,,,,,,,,,,,,,,,,,,,,,,,,,,
,,,,,,612f7826436df8fb008c4f0d,62bbfaa76ef624f4e415c7ad,2022-06-29_09h10.45.880,Colour_Asymmetry_Pilot,2022.1.3,Win32,59.91252771,62bbe60bf3d75ef465d3e404,0,144,144,105,1,onethree,,,,,,,,,,,,,,,,,,,,,,,,,,,,,,,,,,,,,,,,,,,,,,,,,,,,,,,,,,,,,,,,,,,,,,,,,,,,,,,,,,,,,,,,,,,,,,,,,,,,,,,,,,,,,,,,,,,,,,,,,,,,,,,,,,,,,,,,,,,,,,,,,,,,,,,,
,,,,,,612f7826436df8fb008c4f0d,62bbfaa76ef624f4e415c7ad,2022-06-29_09h10.45.880,Colour_Asymmetry_Pilot,2022.1.3,Win32,59.91252771,62bbe60bf3d75ef465d3e404,0,145,145,34,1,twoone,,,,,,,,,,,,,,,,,,,,,,,,,,,,,,,,,,,,,,,,,,,,,,,,,,,,,,,,,,,,,,,,,,,,,,,,,,,,,,,,,,,,,,,,,,,,,,,,,,,,,,,,,,,,,,,,,,,,,,,,,,,,,,,,,,,,,,,,,,,,,,,,,,,,,,,,
,,,,,,612f7826436df8fb008c4f0d,62bbfaa76ef624f4e415c7ad,2022-06-29_09h10.45.880,Colour_Asymmetry_Pilot,2022.1.3,Win32,59.91252771,62bbe60bf3d75ef465d3e404,0,146,146,74,1,twoone,,,,,,,,,,,,,,,,,,,,,,,,,,,,,,,,,,,,,,,,,,,,,,,,,,,,,,,,,,,,,,,,,,,,,,,,,,,,,,,,,,,,,,,,,,,,,,,,,,,,,,,,,,,,,,,,,,,,,,,,,,,,,,,,,,,,,,,,,,,,,,,,,,,,,,,,
,,,,,,612f7826436df8fb008c4f0d,62bbfaa76ef624f4e415c7ad,2022-06-29_09h10.45.880,Colour_Asymmetry_Pilot,2022.1.3,Win32,59.91252771,62bbe60bf3d75ef465d3e404,0,147,147,1,1,onethree,,,,,,,,,,,,,,,,,,,,,,,,,,,,,,,,,,,,,,,,,,,,,,,,,,,,,,,,,,,,,,,,,,,,,,,,,,,,,,,,,,,,,,,,,,,,,,,,,,,,,,,,,,,,,,,,,,,,,,,,,,,,,,,,,,,,,,,,,,,,,,,,,,,,,,,,
,,,,,,612f7826436df8fb008c4f0d,62bbfaa76ef624f4e415c7ad,2022-06-29_09h10.45.880,Colour_Asymmetry_Pilot,2022.1.3,Win32,59.91252771,62bbe60bf3d75ef465d3e404,0,148,148,76,1,threeone,,,,,,,,,,,,,,,,,,,,,,,,,,,,,,,,,,,,,,,,,,,,,,,,,,,,,,,,,,,,,,,,,,,,,,,,,,,,,,,,,,,,,,,,,,,,,,,,,,,,,,,,,,,,,,,,,,,,,,,,,,,,,,,,,,,,,,,,,,,,,,,,,,,,,,,,
,,,,,,612f7826436df8fb008c4f0d,62bbfaa76ef624f4e415c7ad,2022-06-29_09h10.45.880,Colour_Asymmetry_Pilot,2022.1.3,Win32,59.91252771,62bbe60bf3d75ef465d3e404,0,149,149,124,1,threeone,,,,,,,,,,,,,,,,,,,,,,,,,,,,,,,,,,,,,,,,,,,,,,,,,,,,,,,,,,,,,,,,,,,,,,,,,,,,,,,,,,,,,,,,,,,,,,,,,,,,,,,,,,,,,,,,,,,,,,,,,,,,,,,,,,,,,,,,,,,,,,,,,,,,,,,,
,,,,,,612f7826436df8fb008c4f0d,62bbfaa76ef624f4e415c7ad,2022-06-29_09h10.45.880,Colour_Asymmetry_Pilot,2022.1.3,Win32,59.91252771,62bbe60bf3d75ef465d3e404,0,150,150,68,1,threeone,,,,,,,,,,,,,,,,,,,,,,,,,,,,,,,,,,,,,,,,,,,,,,,,,,,,,,,,,,,,,,,,,,,,,,,,,,,,,,,,,,,,,,,,,,,,,,,,,,,,,,,,,,,,,,,,,,,,,,,,,,,,,,,,,,,,,,,,,,,,,,,,,,,,,,,,
,,,,,,612f7826436df8fb008c4f0d,62bbfaa76ef624f4e415c7ad,2022-06-29_09h10.45.880,Colour_Asymmetry_Pilot,2022.1.3,Win32,59.91252771,62bbe60bf3d75ef465d3e404,0,151,151,47,1,fourthree,,,,,,,,,,,,,,,,,,,,,,,,,,,,,,,,,,,,,,,,,,,,,,,,,,,,,,,,,,,,,,,,,,,,,,,,,,,,,,,,,,,,,,,,,,,,,,,,,,,,,,,,,,,,,,,,,,,,,,,,,,,,,,,,,,,,,,,,,,,,,,,,,,,,,,,,
,,,,,,612f7826436df8fb008c4f0d,62bbfaa76ef624f4e415c7ad,2022-06-29_09h10.45.880,Colour_Asymmetry_Pilot,2022.1.3,Win32,59.91252771,62bbe60bf3d75ef465d3e404,0,152,152,36,1,threeone,,,,,,,,,,,,,,,,,,,,,,,,,,,,,,,,,,,,,,,,,,,,,,,,,,,,,,,,,,,,,,,,,,,,,,,,,,,,,,,,,,,,,,,,,,,,,,,,,,,,,,,,,,,,,,,,,,,,,,,,,,,,,,,,,,,,,,,,,,,,,,,,,,,,,,,,
,,,,,,612f7826436df8fb008c4f0d,62bbfaa76ef624f4e415c7ad,2022-06-29_09h10.45.880,Colour_Asymmetry_Pilot,2022.1.3,Win32,59.91252771,62bbe60bf3d75ef465d3e404,0,153,153,39,1,fourthree,,,,,,,,,,,,,,,,,,,,,,,,,,,,,,,,,,,,,,,,,,,,,,,,,,,,,,,,,,,,,,,,,,,,,,,,,,,,,,,,,,,,,,,,,,,,,,,,,,,,,,,,,,,,,,,,,,,,,,,,,,,,,,,,,,,,,,,,,,,,,,,,,,,,,,,,
,,,,,,612f7826436df8fb008c4f0d,62bbfaa76ef624f4e415c7ad,2022-06-29_09h10.45.880,Colour_Asymmetry_Pilot,2022.1.3,Win32,59.91252771,62bbe60bf3d75ef465d3e404,0,154,154,10,1,twoone,,,,,,,,,,,,,,,,,,,,,,,,,,,,,,,,,,,,,,,,,,,,,,,,,,,,,,,,,,,,,,,,,,,,,,,,,,,,,,,,,,,,,,,,,,,,,,,,,,,,,,,,,,,,,,,,,,,,,,,,,,,,,,,,,,,,,,,,,,,,,,,,,,,,,,,,
,,,,,,612f7826436df8fb008c4f0d,62bbfaa76ef624f4e415c7ad,2022-06-29_09h10.45.880,Colour_Asymmetry_Pilot,2022.1.3,Win32,59.91252771,62bbe60bf3d75ef465d3e404,0,155,155,135,1,fourthree,,,,,,,,,,,,,,,,,,,,,,,,,,,,,,,,,,,,,,,,,,,,,,,,,,,,,,,,,,,,,,,,,,,,,,,,,,,,,,,,,,,,,,,,,,,,,,,,,,,,,,,,,,,,,,,,,,,,,,,,,,,,,,,,,,,,,,,,,,,,,,,,,,,,,,,,
,,,,,,612f7826436df8fb008c4f0d,62bbfaa76ef624f4e415c7ad,2022-06-29_09h10.45.880,Colour_Asymmetry_Pilot,2022.1.3,Win32,59.91252771,62bbe60bf3d75ef465d3e404,0,156,156,12,1,threeone,,,,,,,,,,,,,,,,,,,,,,,,,,,,,,,,,,,,,,,,,,,,,,,,,,,,,,,,,,,,,,,,,,,,,,,,,,,,,,,,,,,,,,,,,,,,,,,,,,,,,,,,,,,,,,,,,,,,,,,,,,,,,,,,,,,,,,,,,,,,,,,,,,,,,,,,
,,,,,,612f7826436df8fb008c4f0d,62bbfaa76ef624f4e415c7ad,2022-06-29_09h10.45.880,Colour_Asymmetry_Pilot,2022.1.3,Win32,59.91252771,62bbe60bf3d75ef465d3e404,0,157,157,146,1,twoone,,,,,,,,,,,,,,,,,,,,,,,,,,,,,,,,,,,,,,,,,,,,,,,,,,,,,,,,,,,,,,,,,,,,,,,,,,,,,,,,,,,,,,,,,,,,,,,,,,,,,,,,,,,,,,,,,,,,,,,,,,,,,,,,,,,,,,,,,,,,,,,,,,,,,,,,
,,,,,,612f7826436df8fb008c4f0d,62bbfaa76ef624f4e415c7ad,2022-06-29_09h10.45.880,Colour_Asymmetry_Pilot,2022.1.3,Win32,59.91252771,62bbe60bf3d75ef465d3e404,0,158,158,31,1,fourthree,,,,,,,,,,,,,,,,,,,,,,,,,,,,,,,,,,,,,,,,,,,,,,,,,,,,,,,,,,,,,,,,,,,,,,,,,,,,,,,,,,,,,,,,,,,,,,,,,,,,,,,,,,,,,,,,,,,,,,,,,,,,,,,,,,,,,,,,,,,,,,,,,,,,,,,,
,,,,,,612f7826436df8fb008c4f0d,62bbfaa76ef624f4e415c7ad,2022-06-29_09h10.45.880,Colour_Asymmetry_Pilot,2022.1.3,Win32,59.91252771,62bbe60bf3d75ef465d3e404,0,159,159,112,1,onetwo,,,,,,,,,,,,,,,,,,,,,,,,,,,,,,,,,,,,,,,,,,,,,,,,,,,,,,,,,,,,,,,,,,,,,,,,,,,,,,,,,,,,,,,,,,,,,,,,,,,,,,,,,,,,,,,,,,,,,,,,,,,,,,,,,,,,,,,,,,,,,,,,,,,,,,,,
,,,,,,612f7826436df8fb008c4f0d,62bbfaa76ef624f4e415c7ad,2022-06-29_09h10.45.880,Colour_Asymmetry_Pilot,2022.1.3,Win32,59.91252771,62bbe60bf3d75ef465d3e404,0,160,160,3,1,twofour,,,,,,,,,,,,,,,,,,,,,,,,,,,,,,,,,,,,,,,,,,,,,,,,,,,,,,,,,,,,,,,,,,,,,,,,,,,,,,,,,,,,,,,,,,,,,,,,,,,,,,,,,,,,,,,,,,,,,,,,,,,,,,,,,,,,,,,,,,,,,,,,,,,,,,,,
,,,,,,612f7826436df8fb008c4f0d,62bbfaa76ef624f4e415c7ad,2022-06-29_09h10.45.880,Colour_Asymmetry_Pilot,2022.1.3,Win32,59.91252771,62bbe60bf3d75ef465d3e404,0,161,161,121,1,onethree,,,,,,,,,,,,,,,,,,,,,,,,,,,,,,,,,,,,,,,,,,,,,,,,,,,,,,,,,,,,,,,,,,,,,,,,,,,,,,,,,,,,,,,,,,,,,,,,,,,,,,,,,,,,,,,,,,,,,,,,,,,,,,,,,,,,,,,,,,,,,,,,,,,,,,,,
,,,,,,612f7826436df8fb008c4f0d,62bbfaa76ef624f4e415c7ad,2022-06-29_09h10.45.880,Colour_Asymmetry_Pilot,2022.1.3,Win32,59.91252771,62bbe60bf3d75ef465d3e404,,,,,,,space,7.2328,space,16.7367,space,65.0911,space,73.7211,space,6.7075,space,29.608,"[0.9372,0.9450000000000001,0.8980000000000001]",onetwo,"[-0.30200000000000005,0.14500000000000002,0.2784]",-4,12.0392,-59,93,1,0,0,response7disk_5,-1,-2,1,0,0,rectangle_8,-1,-2,1,0,0,2,-1,-2,1,0,0,0,0,0,0,1,,,,,,,,,,,,,,,,,,,,,,,,,,,,,,,,,,,,,,,,,,,,,,,,,,,,,,,,,,,,,,,,,,,,,,,,,,,,,,,,,,,,,,,,,,,,,,,,,,,,,,,,,,,
,,,,,,612f7826436df8fb008c4f0d,62bbfaa76ef624f4e415c7ad,2022-06-29_09h10.45.880,Colour_Asymmetry_Pilot,2022.1.3,Win32,59.91252771,62bbe60bf3d75ef465d3e404,,,,,,,,,,,,,,,,,,,"[0.9372,0.9450000000000001,0.8980000000000001]",threefour,"[0.7802,-0.23140000000000005,-0.20799999999999996]",-4,10.3534,-43,88,1,0,0,response7disk_5,5,-3,1,0,0,rectangle_8,5,-3,1,0,0,2,5,-3,1,0,0,1,0,1,0,1,,,,,,,,,,,,,,,,,,,,,,,,,,,,,,,,,,,,,,,,,,,,,,,,,,,,,,,,,,,,,,,,,,,,,,,,,,,,,,,,,,,,,,,,,,,,,,,,,,,,,,,,,,,
,,,,,,612f7826436df8fb008c4f0d,62bbfaa76ef624f4e415c7ad,2022-06-29_09h10.45.880,Colour_Asymmetry_Pilot,2022.1.3,Win32,59.91252771,62bbe60bf3d75ef465d3e404,,,,,,,,,,,,,,,,,,,"[-0.30200000000000005,0.14500000000000002,0.2784]",onethree,"[-0.9844,-0.9688,-0.9922]",-4,4.0602,-30,84,1,0,0,response7disk_5,0,-3,1,0,0,rectangle_8,0,-3,1,0,0,2,0,-3,1,0,0,2,0,2,0,1,,,,,,,,,,,,,,,,,,,,,,,,,,,,,,,,,,,,,,,,,,,,,,,,,,,,,,,,,,,,,,,,,,,,,,,,,,,,,,,,,,,,,,,,,,,,,,,,,,,,,,,,,,,
,,,,,,612f7826436df8fb008c4f0d,62bbfaa76ef624f4e415c7ad,2022-06-29_09h10.45.880,Colour_Asymmetry_Pilot,2022.1.3,Win32,59.91252771,62bbe60bf3d75ef465d3e404,,,,,,,,,,,,,,,,,,,"[0.22340000000000004,-0.9296,-0.7884]",onethree,"[-0.34920000000000007,-0.702,-0.5216]",-4,2.6856,-33,81,1,0,0,response7disk_5,10,-2,1,0,0,rectangle_8,10,-2,1,0,0,2,10,-2,1,0,0,3,0,3,0,1,,,,,,,,,,,,,,,,,,,,,,,,,,,,,,,,,,,,,,,,,,,,,,,,,,,,,,,,,,,,,,,,,,,,,,,,,,,,,,,,,,,,,,,,,,,,,,,,,,,,,,,,,,,
,,,,,,612f7826436df8fb008c4f0d,62bbfaa76ef624f4e415c7ad,2022-06-29_09h10.45.880,Colour_Asymmetry_Pilot,2022.1.3,Win32,59.91252771,62bbe60bf3d75ef465d3e404,,,,,,,,,,,,,,,,,,,"[-0.2942,-0.7648,-0.7492000000000001]",twoone,"[0.09799999999999986,-0.24719999999999998,0.15280000000000005]",-4,5.5156,-28,85,1,0,0,response7disk_5,-8,5,1,0,0,rectangle_8,-8,5,1,0,0,2,-8,5,1,0,0,4,0,4,0,1,,,,,,,,,,,,,,,,,,,,,,,,,,,,,,,,,,,,,,,,,,,,,,,,,,,,,,,,,,,,,,,,,,,,,,,,,,,,,,,,,,,,,,,,,,,,,,,,,,,,,,,,,,,
,,,,,,612f7826436df8fb008c4f0d,62bbfaa76ef624f4e415c7ad,2022-06-29_09h10.45.880,Colour_Asymmetry_Pilot,2022.1.3,Win32,59.91252771,62bbe60bf3d75ef465d3e404,,,,,,,,,,,,,,,,,,,"[-0.9138,-0.5296000000000001,-0.5529999999999999]",onethree,"[-0.9138,-0.5296000000000001,-0.5529999999999999]",4,5.7653,43,76,1,0,0,response1disk_5,-5,3,1,0,0,rectangle_8,75,-48,1,0,0,2,11,12,1,0,0,5,0,5,0,1,response3disk_7,5,rectangle_4,,,,,,,,,,,,,,,,,,,,,,,,,,,,,,,,,,,,,,,,,,,,,,,,,,,,,,,,,,,,,,,,,,,,,,,,,,,,,,,,,,,,,,,,,,,,,,,,,,,,,,,,
,,,,,,612f7826436df8fb008c4f0d,62bbfaa76ef624f4e415c7ad,2022-06-29_09h10.45.880,Colour_Asymmetry_Pilot,2022.1.3,Win32,59.91252771,62bbe60bf3d75ef465d3e404,,,,,,,,,,,,,,,,,,,"[0.7018,0.7802,-0.16079999999999994]",onetwo,"[-0.4902000000000001,0.2704,-0.45899999999999996]",-4,3.7043,-25,71,1,0,0,response7disk_5,0,-1,1,0,0,rectangle_8,0,-1,1,0,0,2,0,-1,1,0,0,6,0,6,0,1,,,,,,,,,,,,,,,,,,,,,,,,,,,,,,,,,,,,,,,,,,,,,,,,,,,,,,,,,,,,,,,,,,,,,,,,,,,,,,,,,,,,,,,,,,,,,,,,,,,,,,,,,,,
,,,,,,612f7826436df8fb008c4f0d,62bbfaa76ef624f4e415c7ad,2022-06-29_09h10.45.880,Colour_Asymmetry_Pilot,2022.1.3,Win32,59.91252771,62bbe60bf3d75ef465d3e404,,,,,,,,,,,,,,,,,,,,threefour,,-4,5.2044,,,,,,,,,,,,,,,,,,,,,,,,,,,,,,,,space,210.3495,"[0.7646000000000002,0.07440000000000002,0.2704]","[0.3568,-0.20799999999999996,-0.9844]",-45,87,1,0,0,response7disk,7,1,1,0,0,rectangle,7,1,1,0,0,,1,0.0027,0,7,1,1,0,0,0,0,0,7,1,7,first,,,,,,,,,,,,,,,,,,,,,,,,,,,,,,,,,,,,,,,,,,,,,,,,,,,,,,,,,,,,,,,,,,,
,,,,,,612f7826436df8fb008c4f0d,62bbfaa76ef624f4e415c7ad,2022-06-29_09h10.45.880,Colour_Asymmetry_Pilot,2022.1.3,Win32,59.91252771,62bbe60bf3d75ef465d3e404,,,,,,,,,,,,,,,,,,,,twofour,,-4,2.6803,,,,,,,,,,,,,,,,,,,,,,,,,,,,,,,,,,"[-0.07459999999999989,0.12139999999999995,-0.9922]","[0.5449999999999999,-0.31000000000000005,-0.0354000000000001]",-59,93,1,0,0,response7disk,-10,6,1,0,0,rectangle,-10,6,1,0,0,,3,0.0019,0,-10,6,1,0,0,0,1,1,129,1,48,second,,,,,,,,,,,,,,,,,,,,,,,,,,,,,,,,,,,,,,,,,,,,,,,,,,,,,,,,,,,,,,,,,,,
,,,,,,612f7826436df8fb008c4f0d,62bbfaa76ef624f4e415c7ad,2022-06-29_09h10.45.880,Colour_Asymmetry_Pilot,2022.1.3,Win32,59.91252771,62bbe60bf3d75ef465d3e404,,,,,,,,,,,,,,,,,,,,onetwo,,4,4.5345,,,,,,,,,,,,,,,,,,,,,,,,,,,,,,,,,,"[-0.9766,-0.6472,0.07440000000000002]","[-0.48240000000000005,0.3175999999999999,0.2156]",44,102,1,0,0,response1disk,15,9,1,0,0,rectangle,15,9,1,0,0,,3,0.0014,0,15,9,1,0,0,0,2,2,30,1,30,first,,,,,,,,,,,,,,,,,,,,,,,,,,,,,,,,,,,,,,,,,,,,,,,,,,,,,,,,,,,,,,,,,,,
,,,,,,612f7826436df8fb008c4f0d,62bbfaa76ef624f4e415c7ad,2022-06-29_09h10.45.880,Colour_Asymmetry_Pilot,2022.1.3,Win32,59.91252771,62bbe60bf3d75ef465d3e404,,,,,,,,,,,,,,,,,,,,onetwo,,-4,2.9225,,,,,,,,,,,,,,,,,,,,,,,,,,,,,,,,,,"[0.9842,0.7409999999999999,-0.6628000000000001]","[-0.26280000000000003,-0.2158,-0.3256]",-45,93,1,0,0,response7disk,6,-8,1,0,0,rectangle,6,-8,1,0,0,,3,0.0003,0,6,-8,1,0,0,0,3,3,106,1,25,second,,,,,,,,,,,,,,,,,,,,,,,,,,,,,,,,,,,,,,,,,,,,,,,,,,,,,,,,,,,,,,,,,,,
,,,,,,612f7826436df8fb008c4f0d,62bbfaa76ef624f4e415c7ad,2022-06-29_09h10.45.880,Colour_Asymmetry_Pilot,2022.1.3,Win32,59.91252771,62bbe60bf3d75ef465d3e404,,,,,,,,,,,,,,,,,,,,onethree,,-4,2.168,,,,,,,,,,,,,,,,,,,,,,,,,,,,,,,,,,"[-0.5452,-0.608,0.2470000000000001]","[-0.01980000000000004,-0.5138,-0.38039999999999996]",-47,93,1,0,0,response7disk,-4,-1,1,0,0,rectangle,-4,-1,1,0,0,,2,0.0016,0,-4,-1,1,0,0,0,4,4,118,1,37,second,,,,,,,,,,,,,,,,,,,,,,,,,,,,,,,,,,,,,,,,,,,,,,,,,,,,,,,,,,,,,,,,,,,
,,,,,,612f7826436df8fb008c4f0d,62bbfaa76ef624f4e415c7ad,2022-06-29_09h10.45.880,Colour_Asymmetry_Pilot,2022.1.3,Win32,59.91252771,62bbe60bf3d75ef465d3e404,,,,,,,,,,,,,,,,,,,,twoone,,-4,5.2998,,,,,,,,,,,,,,,,,,,,,,,,,,,,,,,,,,"[-0.9766,-0.6472,0.07440000000000002]","[-0.38039999999999996,-0.4276,-0.1452]",-25,68,1,0,0,response7disk,-4,1,1,0,0,rectangle,-4,1,1,0,0,,1,0.0015,0,-4,1,1,0,0,0,5,5,53,1,53,first,,,,,,,,,,,,,,,,,,,,,,,,,,,,,,,,,,,,,,,,,,,,,,,,,,,,,,,,,,,,,,,,,,,
,,,,,,612f7826436df8fb008c4f0d,62bbfaa76ef624f4e415c7ad,2022-06-29_09h10.45.880,Colour_Asymmetry_Pilot,2022.1.3,Win32,59.91252771,62bbe60bf3d75ef465d3e404,,,,,,,,,,,,,,,,,,,,fourtwo,,-4,4.235,,,,,,,,,,,,,,,,,,,,,,,,,,,,,,,,,,"[0.12939999999999996,-0.2864,0.3253999999999999]","[0.23920000000000008,0.2704,0.16060000000000008]",-37,103,1,0,0,response7disk,8,8,1,0,0,rectangle,8,8,1,0,0,,1,0.0002,0,8,8,1,0,0,0,6,6,158,1,77,second,,,,,,,,,,,,,,,,,,,,,,,,,,,,,,,,,,,,,,,,,,,,,,,,,,,,,,,,,,,,,,,,,,,
,,,,,,612f7826436df8fb008c4f0d,62bbfaa76ef624f4e415c7ad,2022-06-29_09h10.45.880,Colour_Asymmetry_Pilot,2022.1.3,Win32,59.91252771,62bbe60bf3d75ef465d3e404,,,,,,,,,,,,,,,,,,,,twofour,,-4,0.8009,,,,,,,,,,,,,,,,,,,,,,,,,,,,,,,,,,"[0.7018,0.7176,0.6155999999999999]","[-0.4902000000000001,0.2704,-0.45899999999999996]",-37,60,1,0,0,response7disk,-8,7,1,0,0,rectangle,-8,7,1,0,0,,3,0.0015,0,-8,7,1,0,0,0,7,7,150,1,69,second,,,,,,,,,,,,,,,,,,,,,,,,,,,,,,,,,,,,,,,,,,,,,,,,,,,,,,,,,,,,,,,,,,,
,,,,,,612f7826436df8fb008c4f0d,62bbfaa76ef624f4e415c7ad,2022-06-29_09h10.45.880,Colour_Asymmetry_Pilot,2022.1.3,Win32,59.91252771,62bbe60bf3d75ef465d3e404,,,,,,,,,,,,,,,,,,,,threefour,,-4,2.335,,,,,,,,,,,,,,,,,,,,,,,,,,,,,,,,,,"[0.8115999999999999,-0.0040000000000000036,-0.09819999999999995]","[-0.20799999999999996,-0.655,-0.01980000000000004]",-46,70,1,0,0,response7disk,-12,4,1,0,0,rectangle,-12,4,1,0,0,,1,0.0016,0,-12,4,1,0,0,0,8,8,85,1,4,second,,,,,,,,,,,,,,,,,,,,,,,,,,,,,,,,,,,,,,,,,,,,,,,,,,,,,,,,,,,,,,,,,,,
,,,,,,612f7826436df8fb008c4f0d,62bbfaa76ef624f4e415c7ad,2022-06-29_09h10.45.880,Colour_Asymmetry_Pilot,2022.1.3,Win32,59.91252771,62bbe60bf3d75ef465d3e404,,,,,,,,,,,,,,,,,,,,threeone,,-4,3.5108,,,,,,,,,,,,,,,,,,,,,,,,,,,,,,,,,,"[0.7176,-0.906,-0.6864]","[0.37240000000000006,0.4980000000000002,-0.2864]",-47,96,1,0,0,response7disk,-5,-3,1,0,0,rectangle,-5,-3,1,0,0,,2,0.0036,0,-5,-3,1,0,0,0,9,9,79,1,79,first,,,,,,,,,,,,,,,,,,,,,,,,,,,,,,,,,,,,,,,,,,,,,,,,,,,,,,,,,,,,,,,,,,,
,,,,,,612f7826436df8fb008c4f0d,62bbfaa76ef624f4e415c7ad,2022-06-29_09h10.45.880,Colour_Asymmetry_Pilot,2022.1.3,Win32,59.91252771,62bbe60bf3d75ef465d3e404,,,,,,,,,,,,,,,,,,,,onetwo,,-4,0.8622,,,,,,,,,,,,,,,,,,,,,,,,,,,,,,,,,,"[-0.17659999999999998,-0.2864,-0.8354]","[0.9763999999999999,0.8588,-0.05900000000000005]",-46,89,1,0,0,response7disk,-2,-6,1,0,0,rectangle,71,-43,1,0,0,2,2,5.5132,1,15,-1,1,0,0,0,10,10,104,1,23,second,response3disk_3,rectangle,,,,,,,,,,,,,,,,,,,,,,,,,,,,,,,,,,,,,,,,,,,,,,,,,,,,,,,,,,,,,,,,,
,,,,,,612f7826436df8fb008c4f0d,62bbfaa76ef624f4e415c7ad,2022-06-29_09h10.45.880,Colour_Asymmetry_Pilot,2022.1.3,Win32,59.91252771,62bbe60bf3d75ef465d3e404,,,,,,,,,,,,,,,,,,,,threeone,,-4,1.5838,,,,,,,,,,,,,,,,,,,,,,,,,,,,,,,,,,"[-0.4902000000000001,0.2704,-0.45899999999999996]","[0.7018,0.7176,0.6155999999999999]",-40,70,1,0,0,response7disk,2,-6,1,0,0,rectangle,2,-6,1,0,0,2,2,0.0002,0,2,-6,1,0,0,0,11,11,69,1,69,first,,,,,,,,,,,,,,,,,,,,,,,,,,,,,,,,,,,,,,,,,,,,,,,,,,,,,,,,,,,,,,,,,,,
,,,,,,612f7826436df8fb008c4f0d,62bbfaa76ef624f4e415c7ad,2022-06-29_09h10.45.880,Colour_Asymmetry_Pilot,2022.1.3,Win32,59.91252771,62bbe60bf3d75ef465d3e404,,,,,,,,,,,,,,,,,,,,threefour,,-4,0.6371,,,,,,,,,,,,,,,,,,,,,,,,,,,,,,,,,,"[-0.17659999999999998,0.3253999999999999,0.19999999999999996]","[0.9763999999999999,0.30979999999999985,-0.6786]",-38,83,1,0,0,response7disk,8,9,1,0,0,rectangle,8,9,1,0,0,2,1,0.0019,0,8,9,1,0,0,0,12,12,103,1,22,second,,,,,,,,,,,,,,,,,,,,,,,,,,,,,,,,,,,,,,,,,,,,,,,,,,,,,,,,,,,,,,,,,,,
,,,,,,612f7826436df8fb008c4f0d,62bbfaa76ef624f4e415c7ad,2022-06-29_09h10.45.880,Colour_Asymmetry_Pilot,2022.1.3,Win32,59.91252771,62bbe60bf3d75ef465d3e404,,,,,,,,,,,,,,,,,,,,threeone,,4,6.2457,,,,,,,,,,,,,,,,,,,,,,,,,,,,,,,,,,"[-0.9766,-0.34920000000000007,0.2156]","[0.0351999999999999,0.41159999999999997,0.0038000000000000256]",32,72,1,0,0,response1disk,6,-9,1,0,0,rectangle,6,-9,1,0,0,2,1,0.0002,0,6,-9,1,0,0,0,13,13,80,1,80,first,,,,,,,,,,,,,,,,,,,,,,,,,,,,,,,,,,,,,,,,,,,,,,,,,,,,,,,,,,,,,,,,,,,
,,,,,,612f7826436df8fb008c4f0d,62bbfaa76ef624f4e415c7ad,2022-06-29_09h10.45.880,Colour_Asymmetry_Pilot,2022.1.3,Win32,59.91252771,62bbe60bf3d75ef465d3e404,,,,,,,,,,,,,,,,,,,,twofour,,-4,0.6367,,,,,,,,,,,,,,,,,,,,,,,,,,,,,,,,,,"[-0.8982,-0.37259999999999993,0.2784]","[0.7018,0.7802,-0.16079999999999994]",-39,101,1,0,0,response7disk,-3,0,1,0,0,rectangle,-3,0,1,0,0,2,3,0.0015,0,-3,0,1,0,0,0,14,14,27,1,27,first,,,,,,,,,,,,,,,,,,,,,,,,,,,,,,,,,,,,,,,,,,,,,,,,,,,,,,,,,,,,,,,,,,,
,,,,,,612f7826436df8fb008c4f0d,62bbfaa76ef624f4e415c7ad,2022-06-29_09h10.45.880,Colour_Asymmetry_Pilot,2022.1.3,Win32,59.91252771,62bbe60bf3d75ef465d3e404,,,,,,,,,,,,,,,,,,,,twofour,,-4,0.4874,,,,,,,,,,,,,,,,,,,,,,,,,,,,,,,,,,"[-0.6942,-0.7648,-0.12959999999999994]","[0.9686000000000001,0.3802000000000001,0.19999999999999996]",-39,107,1,0,0,response7disk,6,4,1,0,0,rectangle,6,4,1,0,0,2,1,0.0035,0,6,4,1,0,0,0,15,15,78,1,78,first,,,,,,,,,,,,,,,,,,,,,,,,,,,,,,,,,,,,,,,,,,,,,,,,,,,,,,,,,,,,,,,,,,,
,,,,,,612f7826436df8fb008c4f0d,62bbfaa76ef624f4e415c7ad,2022-06-29_09h10.45.880,Colour_Asymmetry_Pilot,2022.1.3,Win32,59.91252771,62bbe60bf3d75ef465d3e404,,,,,,,,,,,,,,,,,,,,threefour,,-4,2.8117,,,,,,,,,,,,,,,,,,,,,,,,,,,,,,,,,,"[0.12939999999999996,-0.2864,0.3253999999999999]","[0.7018,0.7802,-0.16079999999999994]",-38,86,1,0,0,response7disk,-8,6,1,0,0,rectangle,-8,6,1,0,0,2,1,0.0003,0,-8,6,1,0,0,0,16,16,92,1,11,second,,,,,,,,,,,,,,,,,,,,,,,,,,,,,,,,,,,,,,,,,,,,,,,,,,,,,,,,,,,,,,,,,,,
,,,,,,612f7826436df8fb008c4f0d,62bbfaa76ef624f4e415c7ad,2022-06-29_09h10.45.880,Colour_Asymmetry_Pilot,2022.1.3,Win32,59.91252771,62bbe60bf3d75ef465d3e404,,,,,,,,,,,,,,,,,,,,onethree,,-4,1.2705,,,,,,,,,,,,,,,,,,,,,,,,,,,,,,,,,,"[-0.20799999999999996,-0.655,-0.01980000000000004]","[0.8115999999999999,-0.0040000000000000036,-0.09819999999999995]",-38,66,1,0,0,response7disk,-6,1,1,0,0,rectangle,-6,1,1,0,0,2,3,0.0017,0,-6,1,1,0,0,0,17,17,4,1,4,first,,,,,,,,,,,,,,,,,,,,,,,,,,,,,,,,,,,,,,,,,,,,,,,,,,,,,,,,,,,,,,,,,,,
,,,,,,612f7826436df8fb008c4f0d,62bbfaa76ef624f4e415c7ad,2022-06-29_09h10.45.880,Colour_Asymmetry_Pilot,2022.1.3,Win32,59.91252771,62bbe60bf3d75ef465d3e404,,,,,,,,,,,,,,,,,,,,fourthree,,-4,13.6721,,,,,,,,,,,,,,,,,,,,,,,,,,,,,,,,,,"[0.40379999999999994,0.09000000000000008,0.44300000000000006]","[-0.6235999999999999,-0.6786,-0.08239999999999992]",-51,80,1,0,0,response7disk,-8,-4,1,0,0,rectangle,-8,-4,1,0,0,2,2,0.0024,0,-8,-4,1,0,0,0,18,18,110,1,29,second,,,,,,,,,,,,,,,,,,,,,,,,,,,,,,,,,,,,,,,,,,,,,,,,,,,,,,,,,,,,,,,,,,,
,,,,,,612f7826436df8fb008c4f0d,62bbfaa76ef624f4e415c7ad,2022-06-29_09h10.45.880,Colour_Asymmetry_Pilot,2022.1.3,Win32,59.91252771,62bbe60bf3d75ef465d3e404,,,,,,,,,,,,,,,,,,,,onetwo,,-4,0.8978,,,,,,,,,,,,,,,,,,,,,,,,,,,,,,,,,,"[0.3881999999999999,-0.23939999999999995,-0.05040000000000011]","[0.05879999999999996,0.2784,0.5841999999999998]",-46,104,1,0,0,response7disk,-1,2,1,0,0,rectangle,-1,2,1,0,0,2,2,0.0003,0,-1,2,1,0,0,0,19,19,135,1,54,second,,,,,,,,,,,,,,,,,,,,,,,,,,,,,,,,,,,,,,,,,,,,,,,,,,,,,,,,,,,,,,,,,,,
,,,,,,612f7826436df8fb008c4f0d,62bbfaa76ef624f4e415c7ad,2022-06-29_09h10.45.880,Colour_Asymmetry_Pilot,2022.1.3,Win32,59.91252771,62bbe60bf3d75ef465d3e404,,,,,,,,,,,,,,,,,,,,fourtwo,,-4,0.6991,,,,,,,,,,,,,,,,,,,,,,,,,,,,,,,,,,"[0.8274000000000001,-0.5844,-0.9452]","[-0.45899999999999996,-0.3256,-0.9374]",-38,117,1,0,0,response7disk,-16,-5,1,0,0,rectangle,-16,-5,1,0,0,2,2,0.0006,0,-16,-5,1,0,0,0,20,20,117,1,36,second,,,,,,,,,,,,,,,,,,,,,,,,,,,,,,,,,,,,,,,,,,,,,,,,,,,,,,,,,,,,,,,,,,,
