trials.thisRepN,trials.thisTrialN,trials.thisN,trials.thisIndex,trials.ran,Colourcodes,participant,session,date,expName,psychopyVersion,OS,frameRate,study_id,trials_4.thisRepN,trials_4.thisTrialN,trials_4.thisN,trials_4.thisIndex,trials_4.ran,StimulusPos,key_resp.keys,key_resp.rt,key_resp_2.keys,key_resp_2.rt,key_resp_15.keys,key_resp_15.rt,key_resp_17.keys,key_resp_17.rt,key_resp_9.keys,key_resp_9.rt,key_resp_10.keys,key_resp_10.rt,Circle1_col,Ecc,Circle2_col,similarity,response_time,mouse_5.x,mouse_5.y,mouse_5.leftButton,mouse_5.midButton,mouse_5.rightButton,mouse_5.clicked_name,mouse_10.x,mouse_10.y,mouse_10.leftButton,mouse_10.midButton,mouse_10.rightButton,mouse_10.clicked_name,mouse_7.x,mouse_7.y,mouse_7.leftButton,mouse_7.midButton,mouse_7.rightButton,mouse_7.clicked_name,catchprac,catchnumberprac,mouse_6.x,mouse_6.y,mouse_6.leftButton,mouse_6.midButton,mouse_6.rightButton,mouse_6.clicked_name,duringprac.thisRepN,duringprac.thisTrialN,duringprac.thisN,duringprac.thisIndex,duringprac.ran,key_resp_22.keys,key_resp_22.rt,Circle1_colour,Circle2_colour,mouse.x,mouse.y,mouse.leftButton,mouse.midButton,mouse.rightButton,mouse.clicked_name,mouse_2.x,mouse_2.y,mouse_2.leftButton,mouse_2.midButton,mouse_2.rightButton,mouse_2.clicked_name,mouse_3.x,mouse_3.y,mouse_3.leftButton,mouse_3.midButton,mouse_3.rightButton,catchresponse,catchnumber,response_time_catch,Catch,mouse_11.x,mouse_11.y,mouse_11.leftButton,mouse_11.midButton,mouse_11.rightButton,trials_2.thisRepN,trials_2.thisTrialN,trials_2.thisN,trials_2.thisIndex,trials_2.ran,Colourpair,Temporder,mouse_3.clicked_name,mouse_11.clicked_name,trials_3.thisRepN,trials_3.thisTrialN,trials_3.thisN,trials_3.thisIndex,trials_3.ran,key_resp_instr_Ishi.keys,key_resp_instr_Ishi.rt,Ishi_trial_keyresp.keys,Ishi_trial_keyresp.rt,Ishi_textbox.text,Ishi_loop.thisRepN,Ishi_loop.thisTrialN,Ishi_loop.thisN,Ishi_loop.thisIndex,Ishi_loop.ran,imageaddress,textbox.text,mouse_4.x,mouse_4.y,mouse_4.leftButton,mouse_4.midButton,mouse_4.rightButton,mouse_4.clicked_name,textbox_2.text,mouse_8.x,mouse_8.y,mouse_8.leftButton,mouse_8.midButton,mouse_8.rightButton,mouse_8.clicked_name,textbox_3.text,mouse_9.x,mouse_9.y,mouse_9.leftButton,mouse_9.midButton,mouse_9.rightButton,mouse_9.clicked_name,textbox_4.text,mouse_12.x,mouse_12.y,mouse_12.leftButton,mouse_12.midButton,mouse_12.rightButton,mouse_12.clicked_name,textbox_5.text,mouse_13.x,mouse_13.y,mouse_13.leftButton,mouse_13.midButton,mouse_13.rightButton,mouse_13.clicked_name,textbox_6.text,mouse_14.x,mouse_14.y,mouse_14.leftButton,mouse_14.midButton,mouse_14.rightButton,mouse_14.clicked_name,textbox_7.text,mouse_15.x,mouse_15.y,mouse_15.leftButton,mouse_15.midButton,mouse_15.rightButton,mouse_15.clicked_name
0,0,0,25,1,,5d596938a0c0940001a47291,62bbfaa97d44554892e31c9c,2022-06-29_10h10.41.740,Colour_Asymmetry_Pilot,2022.1.3,Win32,71.94244604,62bbe60bf3d75ef465d3e404,,,,,,,,,,,,,,,,,,,,,,,,,,,,,,,,,,,,,,,,,,,,,,,,,,,,,,,,,,,,,,,,,,,,,,,,,,,,,,,,,,,,,,,,,,,,,,,,,,,,,,,,,,,,,,,,,,,,,,,,,,,,,,,,,,,,,,,,,,,,,,,,,,,,,,,,,,,,,,
0,1,1,11,1,,5d596938a0c0940001a47291,62bbfaa97d44554892e31c9c,2022-06-29_10h10.41.740,Colour_Asymmetry_Pilot,2022.1.3,Win32,71.94244604,62bbe60bf3d75ef465d3e404,,,,,,,,,,,,,,,,,,,,,,,,,,,,,,,,,,,,,,,,,,,,,,,,,,,,,,,,,,,,,,,,,,,,,,,,,,,,,,,,,,,,,,,,,,,,,,,,,,,,,,,,,,,,,,,,,,,,,,,,,,,,,,,,,,,,,,,,,,,,,,,,,,,,,,,,,,,,,,
0,2,2,26,1,,5d596938a0c0940001a47291,62bbfaa97d44554892e31c9c,2022-06-29_10h10.41.740,Colour_Asymmetry_Pilot,2022.1.3,Win32,71.94244604,62bbe60bf3d75ef465d3e404,,,,,,,,,,,,,,,,,,,,,,,,,,,,,,,,,,,,,,,,,,,,,,,,,,,,,,,,,,,,,,,,,,,,,,,,,,,,,,,,,,,,,,,,,,,,,,,,,,,,,,,,,,,,,,,,,,,,,,,,,,,,,,,,,,,,,,,,,,,,,,,,,,,,,,,,,,,,,,
0,3,3,3,1,,5d596938a0c0940001a47291,62bbfaa97d44554892e31c9c,2022-06-29_10h10.41.740,Colour_Asymmetry_Pilot,2022.1.3,Win32,71.94244604,62bbe60bf3d75ef465d3e404,,,,,,,,,,,,,,,,,,,,,,,,,,,,,,,,,,,,,,,,,,,,,,,,,,,,,,,,,,,,,,,,,,,,,,,,,,,,,,,,,,,,,,,,,,,,,,,,,,,,,,,,,,,,,,,,,,,,,,,,,,,,,,,,,,,,,,,,,,,,,,,,,,,,,,,,,,,,,,
0,4,4,87,1,,5d596938a0c0940001a47291,62bbfaa97d44554892e31c9c,2022-06-29_10h10.41.740,Colour_Asymmetry_Pilot,2022.1.3,Win32,71.94244604,62bbe60bf3d75ef465d3e404,,,,,,,,,,,,,,,,,,,,,,,,,,,,,,,,,,,,,,,,,,,,,,,,,,,,,,,,,,,,,,,,,,,,,,,,,,,,,,,,,,,,,,,,,,,,,,,,,,,,,,,,,,,,,,,,,,,,,,,,,,,,,,,,,,,,,,,,,,,,,,,,,,,,,,,,,,,,,,
0,5,5,19,1,,5d596938a0c0940001a47291,62bbfaa97d44554892e31c9c,2022-06-29_10h10.41.740,Colour_Asymmetry_Pilot,2022.1.3,Win32,71.94244604,62bbe60bf3d75ef465d3e404,,,,,,,,,,,,,,,,,,,,,,,,,,,,,,,,,,,,,,,,,,,,,,,,,,,,,,,,,,,,,,,,,,,,,,,,,,,,,,,,,,,,,,,,,,,,,,,,,,,,,,,,,,,,,,,,,,,,,,,,,,,,,,,,,,,,,,,,,,,,,,,,,,,,,,,,,,,,,,
0,6,6,33,1,,5d596938a0c0940001a47291,62bbfaa97d44554892e31c9c,2022-06-29_10h10.41.740,Colour_Asymmetry_Pilot,2022.1.3,Win32,71.94244604,62bbe60bf3d75ef465d3e404,,,,,,,,,,,,,,,,,,,,,,,,,,,,,,,,,,,,,,,,,,,,,,,,,,,,,,,,,,,,,,,,,,,,,,,,,,,,,,,,,,,,,,,,,,,,,,,,,,,,,,,,,,,,,,,,,,,,,,,,,,,,,,,,,,,,,,,,,,,,,,,,,,,,,,,,,,,,,,
0,7,7,16,1,,5d596938a0c0940001a47291,62bbfaa97d44554892e31c9c,2022-06-29_10h10.41.740,Colour_Asymmetry_Pilot,2022.1.3,Win32,71.94244604,62bbe60bf3d75ef465d3e404,,,,,,,,,,,,,,,,,,,,,,,,,,,,,,,,,,,,,,,,,,,,,,,,,,,,,,,,,,,,,,,,,,,,,,,,,,,,,,,,,,,,,,,,,,,,,,,,,,,,,,,,,,,,,,,,,,,,,,,,,,,,,,,,,,,,,,,,,,,,,,,,,,,,,,,,,,,,,,
0,8,8,20,1,,5d596938a0c0940001a47291,62bbfaa97d44554892e31c9c,2022-06-29_10h10.41.740,Colour_Asymmetry_Pilot,2022.1.3,Win32,71.94244604,62bbe60bf3d75ef465d3e404,,,,,,,,,,,,,,,,,,,,,,,,,,,,,,,,,,,,,,,,,,,,,,,,,,,,,,,,,,,,,,,,,,,,,,,,,,,,,,,,,,,,,,,,,,,,,,,,,,,,,,,,,,,,,,,,,,,,,,,,,,,,,,,,,,,,,,,,,,,,,,,,,,,,,,,,,,,,,,
0,9,9,86,1,,5d596938a0c0940001a47291,62bbfaa97d44554892e31c9c,2022-06-29_10h10.41.740,Colour_Asymmetry_Pilot,2022.1.3,Win32,71.94244604,62bbe60bf3d75ef465d3e404,,,,,,,,,,,,,,,,,,,,,,,,,,,,,,,,,,,,,,,,,,,,,,,,,,,,,,,,,,,,,,,,,,,,,,,,,,,,,,,,,,,,,,,,,,,,,,,,,,,,,,,,,,,,,,,,,,,,,,,,,,,,,,,,,,,,,,,,,,,,,,,,,,,,,,,,,,,,,,
0,10,10,55,1,,5d596938a0c0940001a47291,62bbfaa97d44554892e31c9c,2022-06-29_10h10.41.740,Colour_Asymmetry_Pilot,2022.1.3,Win32,71.94244604,62bbe60bf3d75ef465d3e404,,,,,,,,,,,,,,,,,,,,,,,,,,,,,,,,,,,,,,,,,,,,,,,,,,,,,,,,,,,,,,,,,,,,,,,,,,,,,,,,,,,,,,,,,,,,,,,,,,,,,,,,,,,,,,,,,,,,,,,,,,,,,,,,,,,,,,,,,,,,,,,,,,,,,,,,,,,,,,
0,11,11,54,1,,5d596938a0c0940001a47291,62bbfaa97d44554892e31c9c,2022-06-29_10h10.41.740,Colour_Asymmetry_Pilot,2022.1.3,Win32,71.94244604,62bbe60bf3d75ef465d3e404,,,,,,,,,,,,,,,,,,,,,,,,,,,,,,,,,,,,,,,,,,,,,,,,,,,,,,,,,,,,,,,,,,,,,,,,,,,,,,,,,,,,,,,,,,,,,,,,,,,,,,,,,,,,,,,,,,,,,,,,,,,,,,,,,,,,,,,,,,,,,,,,,,,,,,,,,,,,,,
0,12,12,22,1,,5d596938a0c0940001a47291,62bbfaa97d44554892e31c9c,2022-06-29_10h10.41.740,Colour_Asymmetry_Pilot,2022.1.3,Win32,71.94244604,62bbe60bf3d75ef465d3e404,,,,,,,,,,,,,,,,,,,,,,,,,,,,,,,,,,,,,,,,,,,,,,,,,,,,,,,,,,,,,,,,,,,,,,,,,,,,,,,,,,,,,,,,,,,,,,,,,,,,,,,,,,,,,,,,,,,,,,,,,,,,,,,,,,,,,,,,,,,,,,,,,,,,,,,,,,,,,,
0,13,13,65,1,,5d596938a0c0940001a47291,62bbfaa97d44554892e31c9c,2022-06-29_10h10.41.740,Colour_Asymmetry_Pilot,2022.1.3,Win32,71.94244604,62bbe60bf3d75ef465d3e404,,,,,,,,,,,,,,,,,,,,,,,,,,,,,,,,,,,,,,,,,,,,,,,,,,,,,,,,,,,,,,,,,,,,,,,,,,,,,,,,,,,,,,,,,,,,,,,,,,,,,,,,,,,,,,,,,,,,,,,,,,,,,,,,,,,,,,,,,,,,,,,,,,,,,,,,,,,,,,
0,14,14,0,1,,5d596938a0c0940001a47291,62bbfaa97d44554892e31c9c,2022-06-29_10h10.41.740,Colour_Asymmetry_Pilot,2022.1.3,Win32,71.94244604,62bbe60bf3d75ef465d3e404,,,,,,,,,,,,,,,,,,,,,,,,,,,,,,,,,,,,,,,,,,,,,,,,,,,,,,,,,,,,,,,,,,,,,,,,,,,,,,,,,,,,,,,,,,,,,,,,,,,,,,,,,,,,,,,,,,,,,,,,,,,,,,,,,,,,,,,,,,,,,,,,,,,,,,,,,,,,,,
0,15,15,68,1,,5d596938a0c0940001a47291,62bbfaa97d44554892e31c9c,2022-06-29_10h10.41.740,Colour_Asymmetry_Pilot,2022.1.3,Win32,71.94244604,62bbe60bf3d75ef465d3e404,,,,,,,,,,,,,,,,,,,,,,,,,,,,,,,,,,,,,,,,,,,,,,,,,,,,,,,,,,,,,,,,,,,,,,,,,,,,,,,,,,,,,,,,,,,,,,,,,,,,,,,,,,,,,,,,,,,,,,,,,,,,,,,,,,,,,,,,,,,,,,,,,,,,,,,,,,,,,,
0,16,16,9,1,,5d596938a0c0940001a47291,62bbfaa97d44554892e31c9c,2022-06-29_10h10.41.740,Colour_Asymmetry_Pilot,2022.1.3,Win32,71.94244604,62bbe60bf3d75ef465d3e404,,,,,,,,,,,,,,,,,,,,,,,,,,,,,,,,,,,,,,,,,,,,,,,,,,,,,,,,,,,,,,,,,,,,,,,,,,,,,,,,,,,,,,,,,,,,,,,,,,,,,,,,,,,,,,,,,,,,,,,,,,,,,,,,,,,,,,,,,,,,,,,,,,,,,,,,,,,,,,
0,17,17,52,1,,5d596938a0c0940001a47291,62bbfaa97d44554892e31c9c,2022-06-29_10h10.41.740,Colour_Asymmetry_Pilot,2022.1.3,Win32,71.94244604,62bbe60bf3d75ef465d3e404,,,,,,,,,,,,,,,,,,,,,,,,,,,,,,,,,,,,,,,,,,,,,,,,,,,,,,,,,,,,,,,,,,,,,,,,,,,,,,,,,,,,,,,,,,,,,,,,,,,,,,,,,,,,,,,,,,,,,,,,,,,,,,,,,,,,,,,,,,,,,,,,,,,,,,,,,,,,,,
0,18,18,49,1,,5d596938a0c0940001a47291,62bbfaa97d44554892e31c9c,2022-06-29_10h10.41.740,Colour_Asymmetry_Pilot,2022.1.3,Win32,71.94244604,62bbe60bf3d75ef465d3e404,,,,,,,,,,,,,,,,,,,,,,,,,,,,,,,,,,,,,,,,,,,,,,,,,,,,,,,,,,,,,,,,,,,,,,,,,,,,,,,,,,,,,,,,,,,,,,,,,,,,,,,,,,,,,,,,,,,,,,,,,,,,,,,,,,,,,,,,,,,,,,,,,,,,,,,,,,,,,,
0,19,19,21,1,,5d596938a0c0940001a47291,62bbfaa97d44554892e31c9c,2022-06-29_10h10.41.740,Colour_Asymmetry_Pilot,2022.1.3,Win32,71.94244604,62bbe60bf3d75ef465d3e404,,,,,,,,,,,,,,,,,,,,,,,,,,,,,,,,,,,,,,,,,,,,,,,,,,,,,,,,,,,,,,,,,,,,,,,,,,,,,,,,,,,,,,,,,,,,,,,,,,,,,,,,,,,,,,,,,,,,,,,,,,,,,,,,,,,,,,,,,,,,,,,,,,,,,,,,,,,,,,
0,20,20,89,1,,5d596938a0c0940001a47291,62bbfaa97d44554892e31c9c,2022-06-29_10h10.41.740,Colour_Asymmetry_Pilot,2022.1.3,Win32,71.94244604,62bbe60bf3d75ef465d3e404,,,,,,,,,,,,,,,,,,,,,,,,,,,,,,,,,,,,,,,,,,,,,,,,,,,,,,,,,,,,,,,,,,,,,,,,,,,,,,,,,,,,,,,,,,,,,,,,,,,,,,,,,,,,,,,,,,,,,,,,,,,,,,,,,,,,,,,,,,,,,,,,,,,,,,,,,,,,,,
0,21,21,1,1,,5d596938a0c0940001a47291,62bbfaa97d44554892e31c9c,2022-06-29_10h10.41.740,Colour_Asymmetry_Pilot,2022.1.3,Win32,71.94244604,62bbe60bf3d75ef465d3e404,,,,,,,,,,,,,,,,,,,,,,,,,,,,,,,,,,,,,,,,,,,,,,,,,,,,,,,,,,,,,,,,,,,,,,,,,,,,,,,,,,,,,,,,,,,,,,,,,,,,,,,,,,,,,,,,,,,,,,,,,,,,,,,,,,,,,,,,,,,,,,,,,,,,,,,,,,,,,,
0,22,22,71,1,,5d596938a0c0940001a47291,62bbfaa97d44554892e31c9c,2022-06-29_10h10.41.740,Colour_Asymmetry_Pilot,2022.1.3,Win32,71.94244604,62bbe60bf3d75ef465d3e404,,,,,,,,,,,,,,,,,,,,,,,,,,,,,,,,,,,,,,,,,,,,,,,,,,,,,,,,,,,,,,,,,,,,,,,,,,,,,,,,,,,,,,,,,,,,,,,,,,,,,,,,,,,,,,,,,,,,,,,,,,,,,,,,,,,,,,,,,,,,,,,,,,,,,,,,,,,,,,
0,23,23,75,1,,5d596938a0c0940001a47291,62bbfaa97d44554892e31c9c,2022-06-29_10h10.41.740,Colour_Asymmetry_Pilot,2022.1.3,Win32,71.94244604,62bbe60bf3d75ef465d3e404,,,,,,,,,,,,,,,,,,,,,,,,,,,,,,,,,,,,,,,,,,,,,,,,,,,,,,,,,,,,,,,,,,,,,,,,,,,,,,,,,,,,,,,,,,,,,,,,,,,,,,,,,,,,,,,,,,,,,,,,,,,,,,,,,,,,,,,,,,,,,,,,,,,,,,,,,,,,,,
0,24,24,90,1,,5d596938a0c0940001a47291,62bbfaa97d44554892e31c9c,2022-06-29_10h10.41.740,Colour_Asymmetry_Pilot,2022.1.3,Win32,71.94244604,62bbe60bf3d75ef465d3e404,,,,,,,,,,,,,,,,,,,,,,,,,,,,,,,,,,,,,,,,,,,,,,,,,,,,,,,,,,,,,,,,,,,,,,,,,,,,,,,,,,,,,,,,,,,,,,,,,,,,,,,,,,,,,,,,,,,,,,,,,,,,,,,,,,,,,,,,,,,,,,,,,,,,,,,,,,,,,,
0,25,25,7,1,,5d596938a0c0940001a47291,62bbfaa97d44554892e31c9c,2022-06-29_10h10.41.740,Colour_Asymmetry_Pilot,2022.1.3,Win32,71.94244604,62bbe60bf3d75ef465d3e404,,,,,,,,,,,,,,,,,,,,,,,,,,,,,,,,,,,,,,,,,,,,,,,,,,,,,,,,,,,,,,,,,,,,,,,,,,,,,,,,,,,,,,,,,,,,,,,,,,,,,,,,,,,,,,,,,,,,,,,,,,,,,,,,,,,,,,,,,,,,,,,,,,,,,,,,,,,,,,
0,26,26,24,1,,5d596938a0c0940001a47291,62bbfaa97d44554892e31c9c,2022-06-29_10h10.41.740,Colour_Asymmetry_Pilot,2022.1.3,Win32,71.94244604,62bbe60bf3d75ef465d3e404,,,,,,,,,,,,,,,,,,,,,,,,,,,,,,,,,,,,,,,,,,,,,,,,,,,,,,,,,,,,,,,,,,,,,,,,,,,,,,,,,,,,,,,,,,,,,,,,,,,,,,,,,,,,,,,,,,,,,,,,,,,,,,,,,,,,,,,,,,,,,,,,,,,,,,,,,,,,,,
0,27,27,30,1,,5d596938a0c0940001a47291,62bbfaa97d44554892e31c9c,2022-06-29_10h10.41.740,Colour_Asymmetry_Pilot,2022.1.3,Win32,71.94244604,62bbe60bf3d75ef465d3e404,,,,,,,,,,,,,,,,,,,,,,,,,,,,,,,,,,,,,,,,,,,,,,,,,,,,,,,,,,,,,,,,,,,,,,,,,,,,,,,,,,,,,,,,,,,,,,,,,,,,,,,,,,,,,,,,,,,,,,,,,,,,,,,,,,,,,,,,,,,,,,,,,,,,,,,,,,,,,,
0,28,28,29,1,,5d596938a0c0940001a47291,62bbfaa97d44554892e31c9c,2022-06-29_10h10.41.740,Colour_Asymmetry_Pilot,2022.1.3,Win32,71.94244604,62bbe60bf3d75ef465d3e404,,,,,,,,,,,,,,,,,,,,,,,,,,,,,,,,,,,,,,,,,,,,,,,,,,,,,,,,,,,,,,,,,,,,,,,,,,,,,,,,,,,,,,,,,,,,,,,,,,,,,,,,,,,,,,,,,,,,,,,,,,,,,,,,,,,,,,,,,,,,,,,,,,,,,,,,,,,,,,
0,29,29,32,1,,5d596938a0c0940001a47291,62bbfaa97d44554892e31c9c,2022-06-29_10h10.41.740,Colour_Asymmetry_Pilot,2022.1.3,Win32,71.94244604,62bbe60bf3d75ef465d3e404,,,,,,,,,,,,,,,,,,,,,,,,,,,,,,,,,,,,,,,,,,,,,,,,,,,,,,,,,,,,,,,,,,,,,,,,,,,,,,,,,,,,,,,,,,,,,,,,,,,,,,,,,,,,,,,,,,,,,,,,,,,,,,,,,,,,,,,,,,,,,,,,,,,,,,,,,,,,,,
0,30,30,35,1,,5d596938a0c0940001a47291,62bbfaa97d44554892e31c9c,2022-06-29_10h10.41.740,Colour_Asymmetry_Pilot,2022.1.3,Win32,71.94244604,62bbe60bf3d75ef465d3e404,,,,,,,,,,,,,,,,,,,,,,,,,,,,,,,,,,,,,,,,,,,,,,,,,,,,,,,,,,,,,,,,,,,,,,,,,,,,,,,,,,,,,,,,,,,,,,,,,,,,,,,,,,,,,,,,,,,,,,,,,,,,,,,,,,,,,,,,,,,,,,,,,,,,,,,,,,,,,,
0,31,31,47,1,,5d596938a0c0940001a47291,62bbfaa97d44554892e31c9c,2022-06-29_10h10.41.740,Colour_Asymmetry_Pilot,2022.1.3,Win32,71.94244604,62bbe60bf3d75ef465d3e404,,,,,,,,,,,,,,,,,,,,,,,,,,,,,,,,,,,,,,,,,,,,,,,,,,,,,,,,,,,,,,,,,,,,,,,,,,,,,,,,,,,,,,,,,,,,,,,,,,,,,,,,,,,,,,,,,,,,,,,,,,,,,,,,,,,,,,,,,,,,,,,,,,,,,,,,,,,,,,
0,32,32,62,1,,5d596938a0c0940001a47291,62bbfaa97d44554892e31c9c,2022-06-29_10h10.41.740,Colour_Asymmetry_Pilot,2022.1.3,Win32,71.94244604,62bbe60bf3d75ef465d3e404,,,,,,,,,,,,,,,,,,,,,,,,,,,,,,,,,,,,,,,,,,,,,,,,,,,,,,,,,,,,,,,,,,,,,,,,,,,,,,,,,,,,,,,,,,,,,,,,,,,,,,,,,,,,,,,,,,,,,,,,,,,,,,,,,,,,,,,,,,,,,,,,,,,,,,,,,,,,,,
0,33,33,23,1,,5d596938a0c0940001a47291,62bbfaa97d44554892e31c9c,2022-06-29_10h10.41.740,Colour_Asymmetry_Pilot,2022.1.3,Win32,71.94244604,62bbe60bf3d75ef465d3e404,,,,,,,,,,,,,,,,,,,,,,,,,,,,,,,,,,,,,,,,,,,,,,,,,,,,,,,,,,,,,,,,,,,,,,,,,,,,,,,,,,,,,,,,,,,,,,,,,,,,,,,,,,,,,,,,,,,,,,,,,,,,,,,,,,,,,,,,,,,,,,,,,,,,,,,,,,,,,,
0,34,34,4,1,,5d596938a0c0940001a47291,62bbfaa97d44554892e31c9c,2022-06-29_10h10.41.740,Colour_Asymmetry_Pilot,2022.1.3,Win32,71.94244604,62bbe60bf3d75ef465d3e404,,,,,,,,,,,,,,,,,,,,,,,,,,,,,,,,,,,,,,,,,,,,,,,,,,,,,,,,,,,,,,,,,,,,,,,,,,,,,,,,,,,,,,,,,,,,,,,,,,,,,,,,,,,,,,,,,,,,,,,,,,,,,,,,,,,,,,,,,,,,,,,,,,,,,,,,,,,,,,
0,35,35,12,1,,5d596938a0c0940001a47291,62bbfaa97d44554892e31c9c,2022-06-29_10h10.41.740,Colour_Asymmetry_Pilot,2022.1.3,Win32,71.94244604,62bbe60bf3d75ef465d3e404,,,,,,,,,,,,,,,,,,,,,,,,,,,,,,,,,,,,,,,,,,,,,,,,,,,,,,,,,,,,,,,,,,,,,,,,,,,,,,,,,,,,,,,,,,,,,,,,,,,,,,,,,,,,,,,,,,,,,,,,,,,,,,,,,,,,,,,,,,,,,,,,,,,,,,,,,,,,,,
0,36,36,15,1,,5d596938a0c0940001a47291,62bbfaa97d44554892e31c9c,2022-06-29_10h10.41.740,Colour_Asymmetry_Pilot,2022.1.3,Win32,71.94244604,62bbe60bf3d75ef465d3e404,,,,,,,,,,,,,,,,,,,,,,,,,,,,,,,,,,,,,,,,,,,,,,,,,,,,,,,,,,,,,,,,,,,,,,,,,,,,,,,,,,,,,,,,,,,,,,,,,,,,,,,,,,,,,,,,,,,,,,,,,,,,,,,,,,,,,,,,,,,,,,,,,,,,,,,,,,,,,,
0,37,37,78,1,,5d596938a0c0940001a47291,62bbfaa97d44554892e31c9c,2022-06-29_10h10.41.740,Colour_Asymmetry_Pilot,2022.1.3,Win32,71.94244604,62bbe60bf3d75ef465d3e404,,,,,,,,,,,,,,,,,,,,,,,,,,,,,,,,,,,,,,,,,,,,,,,,,,,,,,,,,,,,,,,,,,,,,,,,,,,,,,,,,,,,,,,,,,,,,,,,,,,,,,,,,,,,,,,,,,,,,,,,,,,,,,,,,,,,,,,,,,,,,,,,,,,,,,,,,,,,,,
0,38,38,51,1,,5d596938a0c0940001a47291,62bbfaa97d44554892e31c9c,2022-06-29_10h10.41.740,Colour_Asymmetry_Pilot,2022.1.3,Win32,71.94244604,62bbe60bf3d75ef465d3e404,,,,,,,,,,,,,,,,,,,,,,,,,,,,,,,,,,,,,,,,,,,,,,,,,,,,,,,,,,,,,,,,,,,,,,,,,,,,,,,,,,,,,,,,,,,,,,,,,,,,,,,,,,,,,,,,,,,,,,,,,,,,,,,,,,,,,,,,,,,,,,,,,,,,,,,,,,,,,,
0,39,39,85,1,,5d596938a0c0940001a47291,62bbfaa97d44554892e31c9c,2022-06-29_10h10.41.740,Colour_Asymmetry_Pilot,2022.1.3,Win32,71.94244604,62bbe60bf3d75ef465d3e404,,,,,,,,,,,,,,,,,,,,,,,,,,,,,,,,,,,,,,,,,,,,,,,,,,,,,,,,,,,,,,,,,,,,,,,,,,,,,,,,,,,,,,,,,,,,,,,,,,,,,,,,,,,,,,,,,,,,,,,,,,,,,,,,,,,,,,,,,,,,,,,,,,,,,,,,,,,,,,
0,40,40,13,1,,5d596938a0c0940001a47291,62bbfaa97d44554892e31c9c,2022-06-29_10h10.41.740,Colour_Asymmetry_Pilot,2022.1.3,Win32,71.94244604,62bbe60bf3d75ef465d3e404,,,,,,,,,,,,,,,,,,,,,,,,,,,,,,,,,,,,,,,,,,,,,,,,,,,,,,,,,,,,,,,,,,,,,,,,,,,,,,,,,,,,,,,,,,,,,,,,,,,,,,,,,,,,,,,,,,,,,,,,,,,,,,,,,,,,,,,,,,,,,,,,,,,,,,,,,,,,,,
0,41,41,42,1,,5d596938a0c0940001a47291,62bbfaa97d44554892e31c9c,2022-06-29_10h10.41.740,Colour_Asymmetry_Pilot,2022.1.3,Win32,71.94244604,62bbe60bf3d75ef465d3e404,,,,,,,,,,,,,,,,,,,,,,,,,,,,,,,,,,,,,,,,,,,,,,,,,,,,,,,,,,,,,,,,,,,,,,,,,,,,,,,,,,,,,,,,,,,,,,,,,,,,,,,,,,,,,,,,,,,,,,,,,,,,,,,,,,,,,,,,,,,,,,,,,,,,,,,,,,,,,,
0,42,42,74,1,,5d596938a0c0940001a47291,62bbfaa97d44554892e31c9c,2022-06-29_10h10.41.740,Colour_Asymmetry_Pilot,2022.1.3,Win32,71.94244604,62bbe60bf3d75ef465d3e404,,,,,,,,,,,,,,,,,,,,,,,,,,,,,,,,,,,,,,,,,,,,,,,,,,,,,,,,,,,,,,,,,,,,,,,,,,,,,,,,,,,,,,,,,,,,,,,,,,,,,,,,,,,,,,,,,,,,,,,,,,,,,,,,,,,,,,,,,,,,,,,,,,,,,,,,,,,,,,
0,43,43,28,1,,5d596938a0c0940001a47291,62bbfaa97d44554892e31c9c,2022-06-29_10h10.41.740,Colour_Asymmetry_Pilot,2022.1.3,Win32,71.94244604,62bbe60bf3d75ef465d3e404,,,,,,,,,,,,,,,,,,,,,,,,,,,,,,,,,,,,,,,,,,,,,,,,,,,,,,,,,,,,,,,,,,,,,,,,,,,,,,,,,,,,,,,,,,,,,,,,,,,,,,,,,,,,,,,,,,,,,,,,,,,,,,,,,,,,,,,,,,,,,,,,,,,,,,,,,,,,,,
0,44,44,31,1,,5d596938a0c0940001a47291,62bbfaa97d44554892e31c9c,2022-06-29_10h10.41.740,Colour_Asymmetry_Pilot,2022.1.3,Win32,71.94244604,62bbe60bf3d75ef465d3e404,,,,,,,,,,,,,,,,,,,,,,,,,,,,,,,,,,,,,,,,,,,,,,,,,,,,,,,,,,,,,,,,,,,,,,,,,,,,,,,,,,,,,,,,,,,,,,,,,,,,,,,,,,,,,,,,,,,,,,,,,,,,,,,,,,,,,,,,,,,,,,,,,,,,,,,,,,,,,,
0,45,45,38,1,,5d596938a0c0940001a47291,62bbfaa97d44554892e31c9c,2022-06-29_10h10.41.740,Colour_Asymmetry_Pilot,2022.1.3,Win32,71.94244604,62bbe60bf3d75ef465d3e404,,,,,,,,,,,,,,,,,,,,,,,,,,,,,,,,,,,,,,,,,,,,,,,,,,,,,,,,,,,,,,,,,,,,,,,,,,,,,,,,,,,,,,,,,,,,,,,,,,,,,,,,,,,,,,,,,,,,,,,,,,,,,,,,,,,,,,,,,,,,,,,,,,,,,,,,,,,,,,
0,46,46,18,1,,5d596938a0c0940001a47291,62bbfaa97d44554892e31c9c,2022-06-29_10h10.41.740,Colour_Asymmetry_Pilot,2022.1.3,Win32,71.94244604,62bbe60bf3d75ef465d3e404,,,,,,,,,,,,,,,,,,,,,,,,,,,,,,,,,,,,,,,,,,,,,,,,,,,,,,,,,,,,,,,,,,,,,,,,,,,,,,,,,,,,,,,,,,,,,,,,,,,,,,,,,,,,,,,,,,,,,,,,,,,,,,,,,,,,,,,,,,,,,,,,,,,,,,,,,,,,,,
0,47,47,92,1,,5d596938a0c0940001a47291,62bbfaa97d44554892e31c9c,2022-06-29_10h10.41.740,Colour_Asymmetry_Pilot,2022.1.3,Win32,71.94244604,62bbe60bf3d75ef465d3e404,,,,,,,,,,,,,,,,,,,,,,,,,,,,,,,,,,,,,,,,,,,,,,,,,,,,,,,,,,,,,,,,,,,,,,,,,,,,,,,,,,,,,,,,,,,,,,,,,,,,,,,,,,,,,,,,,,,,,,,,,,,,,,,,,,,,,,,,,,,,,,,,,,,,,,,,,,,,,,
0,48,48,63,1,,5d596938a0c0940001a47291,62bbfaa97d44554892e31c9c,2022-06-29_10h10.41.740,Colour_Asymmetry_Pilot,2022.1.3,Win32,71.94244604,62bbe60bf3d75ef465d3e404,,,,,,,,,,,,,,,,,,,,,,,,,,,,,,,,,,,,,,,,,,,,,,,,,,,,,,,,,,,,,,,,,,,,,,,,,,,,,,,,,,,,,,,,,,,,,,,,,,,,,,,,,,,,,,,,,,,,,,,,,,,,,,,,,,,,,,,,,,,,,,,,,,,,,,,,,,,,,,
0,49,49,72,1,,5d596938a0c0940001a47291,62bbfaa97d44554892e31c9c,2022-06-29_10h10.41.740,Colour_Asymmetry_Pilot,2022.1.3,Win32,71.94244604,62bbe60bf3d75ef465d3e404,,,,,,,,,,,,,,,,,,,,,,,,,,,,,,,,,,,,,,,,,,,,,,,,,,,,,,,,,,,,,,,,,,,,,,,,,,,,,,,,,,,,,,,,,,,,,,,,,,,,,,,,,,,,,,,,,,,,,,,,,,,,,,,,,,,,,,,,,,,,,,,,,,,,,,,,,,,,,,
0,50,50,36,1,,5d596938a0c0940001a47291,62bbfaa97d44554892e31c9c,2022-06-29_10h10.41.740,Colour_Asymmetry_Pilot,2022.1.3,Win32,71.94244604,62bbe60bf3d75ef465d3e404,,,,,,,,,,,,,,,,,,,,,,,,,,,,,,,,,,,,,,,,,,,,,,,,,,,,,,,,,,,,,,,,,,,,,,,,,,,,,,,,,,,,,,,,,,,,,,,,,,,,,,,,,,,,,,,,,,,,,,,,,,,,,,,,,,,,,,,,,,,,,,,,,,,,,,,,,,,,,,
0,51,51,2,1,,5d596938a0c0940001a47291,62bbfaa97d44554892e31c9c,2022-06-29_10h10.41.740,Colour_Asymmetry_Pilot,2022.1.3,Win32,71.94244604,62bbe60bf3d75ef465d3e404,,,,,,,,,,,,,,,,,,,,,,,,,,,,,,,,,,,,,,,,,,,,,,,,,,,,,,,,,,,,,,,,,,,,,,,,,,,,,,,,,,,,,,,,,,,,,,,,,,,,,,,,,,,,,,,,,,,,,,,,,,,,,,,,,,,,,,,,,,,,,,,,,,,,,,,,,,,,,,
0,52,52,34,1,,5d596938a0c0940001a47291,62bbfaa97d44554892e31c9c,2022-06-29_10h10.41.740,Colour_Asymmetry_Pilot,2022.1.3,Win32,71.94244604,62bbe60bf3d75ef465d3e404,,,,,,,,,,,,,,,,,,,,,,,,,,,,,,,,,,,,,,,,,,,,,,,,,,,,,,,,,,,,,,,,,,,,,,,,,,,,,,,,,,,,,,,,,,,,,,,,,,,,,,,,,,,,,,,,,,,,,,,,,,,,,,,,,,,,,,,,,,,,,,,,,,,,,,,,,,,,,,
0,53,53,58,1,,5d596938a0c0940001a47291,62bbfaa97d44554892e31c9c,2022-06-29_10h10.41.740,Colour_Asymmetry_Pilot,2022.1.3,Win32,71.94244604,62bbe60bf3d75ef465d3e404,,,,,,,,,,,,,,,,,,,,,,,,,,,,,,,,,,,,,,,,,,,,,,,,,,,,,,,,,,,,,,,,,,,,,,,,,,,,,,,,,,,,,,,,,,,,,,,,,,,,,,,,,,,,,,,,,,,,,,,,,,,,,,,,,,,,,,,,,,,,,,,,,,,,,,,,,,,,,,
0,54,54,40,1,,5d596938a0c0940001a47291,62bbfaa97d44554892e31c9c,2022-06-29_10h10.41.740,Colour_Asymmetry_Pilot,2022.1.3,Win32,71.94244604,62bbe60bf3d75ef465d3e404,,,,,,,,,,,,,,,,,,,,,,,,,,,,,,,,,,,,,,,,,,,,,,,,,,,,,,,,,,,,,,,,,,,,,,,,,,,,,,,,,,,,,,,,,,,,,,,,,,,,,,,,,,,,,,,,,,,,,,,,,,,,,,,,,,,,,,,,,,,,,,,,,,,,,,,,,,,,,,
0,55,55,82,1,,5d596938a0c0940001a47291,62bbfaa97d44554892e31c9c,2022-06-29_10h10.41.740,Colour_Asymmetry_Pilot,2022.1.3,Win32,71.94244604,62bbe60bf3d75ef465d3e404,,,,,,,,,,,,,,,,,,,,,,,,,,,,,,,,,,,,,,,,,,,,,,,,,,,,,,,,,,,,,,,,,,,,,,,,,,,,,,,,,,,,,,,,,,,,,,,,,,,,,,,,,,,,,,,,,,,,,,,,,,,,,,,,,,,,,,,,,,,,,,,,,,,,,,,,,,,,,,
0,56,56,43,1,,5d596938a0c0940001a47291,62bbfaa97d44554892e31c9c,2022-06-29_10h10.41.740,Colour_Asymmetry_Pilot,2022.1.3,Win32,71.94244604,62bbe60bf3d75ef465d3e404,,,,,,,,,,,,,,,,,,,,,,,,,,,,,,,,,,,,,,,,,,,,,,,,,,,,,,,,,,,,,,,,,,,,,,,,,,,,,,,,,,,,,,,,,,,,,,,,,,,,,,,,,,,,,,,,,,,,,,,,,,,,,,,,,,,,,,,,,,,,,,,,,,,,,,,,,,,,,,
0,57,57,66,1,,5d596938a0c0940001a47291,62bbfaa97d44554892e31c9c,2022-06-29_10h10.41.740,Colour_Asymmetry_Pilot,2022.1.3,Win32,71.94244604,62bbe60bf3d75ef465d3e404,,,,,,,,,,,,,,,,,,,,,,,,,,,,,,,,,,,,,,,,,,,,,,,,,,,,,,,,,,,,,,,,,,,,,,,,,,,,,,,,,,,,,,,,,,,,,,,,,,,,,,,,,,,,,,,,,,,,,,,,,,,,,,,,,,,,,,,,,,,,,,,,,,,,,,,,,,,,,,
0,58,58,77,1,,5d596938a0c0940001a47291,62bbfaa97d44554892e31c9c,2022-06-29_10h10.41.740,Colour_Asymmetry_Pilot,2022.1.3,Win32,71.94244604,62bbe60bf3d75ef465d3e404,,,,,,,,,,,,,,,,,,,,,,,,,,,,,,,,,,,,,,,,,,,,,,,,,,,,,,,,,,,,,,,,,,,,,,,,,,,,,,,,,,,,,,,,,,,,,,,,,,,,,,,,,,,,,,,,,,,,,,,,,,,,,,,,,,,,,,,,,,,,,,,,,,,,,,,,,,,,,,
0,59,59,60,1,,5d596938a0c0940001a47291,62bbfaa97d44554892e31c9c,2022-06-29_10h10.41.740,Colour_Asymmetry_Pilot,2022.1.3,Win32,71.94244604,62bbe60bf3d75ef465d3e404,,,,,,,,,,,,,,,,,,,,,,,,,,,,,,,,,,,,,,,,,,,,,,,,,,,,,,,,,,,,,,,,,,,,,,,,,,,,,,,,,,,,,,,,,,,,,,,,,,,,,,,,,,,,,,,,,,,,,,,,,,,,,,,,,,,,,,,,,,,,,,,,,,,,,,,,,,,,,,
0,60,60,27,1,,5d596938a0c0940001a47291,62bbfaa97d44554892e31c9c,2022-06-29_10h10.41.740,Colour_Asymmetry_Pilot,2022.1.3,Win32,71.94244604,62bbe60bf3d75ef465d3e404,,,,,,,,,,,,,,,,,,,,,,,,,,,,,,,,,,,,,,,,,,,,,,,,,,,,,,,,,,,,,,,,,,,,,,,,,,,,,,,,,,,,,,,,,,,,,,,,,,,,,,,,,,,,,,,,,,,,,,,,,,,,,,,,,,,,,,,,,,,,,,,,,,,,,,,,,,,,,,
0,61,61,88,1,,5d596938a0c0940001a47291,62bbfaa97d44554892e31c9c,2022-06-29_10h10.41.740,Colour_Asymmetry_Pilot,2022.1.3,Win32,71.94244604,62bbe60bf3d75ef465d3e404,,,,,,,,,,,,,,,,,,,,,,,,,,,,,,,,,,,,,,,,,,,,,,,,,,,,,,,,,,,,,,,,,,,,,,,,,,,,,,,,,,,,,,,,,,,,,,,,,,,,,,,,,,,,,,,,,,,,,,,,,,,,,,,,,,,,,,,,,,,,,,,,,,,,,,,,,,,,,,
0,62,62,91,1,,5d596938a0c0940001a47291,62bbfaa97d44554892e31c9c,2022-06-29_10h10.41.740,Colour_Asymmetry_Pilot,2022.1.3,Win32,71.94244604,62bbe60bf3d75ef465d3e404,,,,,,,,,,,,,,,,,,,,,,,,,,,,,,,,,,,,,,,,,,,,,,,,,,,,,,,,,,,,,,,,,,,,,,,,,,,,,,,,,,,,,,,,,,,,,,,,,,,,,,,,,,,,,,,,,,,,,,,,,,,,,,,,,,,,,,,,,,,,,,,,,,,,,,,,,,,,,,
0,63,63,8,1,,5d596938a0c0940001a47291,62bbfaa97d44554892e31c9c,2022-06-29_10h10.41.740,Colour_Asymmetry_Pilot,2022.1.3,Win32,71.94244604,62bbe60bf3d75ef465d3e404,,,,,,,,,,,,,,,,,,,,,,,,,,,,,,,,,,,,,,,,,,,,,,,,,,,,,,,,,,,,,,,,,,,,,,,,,,,,,,,,,,,,,,,,,,,,,,,,,,,,,,,,,,,,,,,,,,,,,,,,,,,,,,,,,,,,,,,,,,,,,,,,,,,,,,,,,,,,,,
0,64,64,41,1,,5d596938a0c0940001a47291,62bbfaa97d44554892e31c9c,2022-06-29_10h10.41.740,Colour_Asymmetry_Pilot,2022.1.3,Win32,71.94244604,62bbe60bf3d75ef465d3e404,,,,,,,,,,,,,,,,,,,,,,,,,,,,,,,,,,,,,,,,,,,,,,,,,,,,,,,,,,,,,,,,,,,,,,,,,,,,,,,,,,,,,,,,,,,,,,,,,,,,,,,,,,,,,,,,,,,,,,,,,,,,,,,,,,,,,,,,,,,,,,,,,,,,,,,,,,,,,,
0,65,65,59,1,,5d596938a0c0940001a47291,62bbfaa97d44554892e31c9c,2022-06-29_10h10.41.740,Colour_Asymmetry_Pilot,2022.1.3,Win32,71.94244604,62bbe60bf3d75ef465d3e404,,,,,,,,,,,,,,,,,,,,,,,,,,,,,,,,,,,,,,,,,,,,,,,,,,,,,,,,,,,,,,,,,,,,,,,,,,,,,,,,,,,,,,,,,,,,,,,,,,,,,,,,,,,,,,,,,,,,,,,,,,,,,,,,,,,,,,,,,,,,,,,,,,,,,,,,,,,,,,
0,66,66,17,1,,5d596938a0c0940001a47291,62bbfaa97d44554892e31c9c,2022-06-29_10h10.41.740,Colour_Asymmetry_Pilot,2022.1.3,Win32,71.94244604,62bbe60bf3d75ef465d3e404,,,,,,,,,,,,,,,,,,,,,,,,,,,,,,,,,,,,,,,,,,,,,,,,,,,,,,,,,,,,,,,,,,,,,,,,,,,,,,,,,,,,,,,,,,,,,,,,,,,,,,,,,,,,,,,,,,,,,,,,,,,,,,,,,,,,,,,,,,,,,,,,,,,,,,,,,,,,,,
0,67,67,79,1,,5d596938a0c0940001a47291,62bbfaa97d44554892e31c9c,2022-06-29_10h10.41.740,Colour_Asymmetry_Pilot,2022.1.3,Win32,71.94244604,62bbe60bf3d75ef465d3e404,,,,,,,,,,,,,,,,,,,,,,,,,,,,,,,,,,,,,,,,,,,,,,,,,,,,,,,,,,,,,,,,,,,,,,,,,,,,,,,,,,,,,,,,,,,,,,,,,,,,,,,,,,,,,,,,,,,,,,,,,,,,,,,,,,,,,,,,,,,,,,,,,,,,,,,,,,,,,,
0,68,68,37,1,,5d596938a0c0940001a47291,62bbfaa97d44554892e31c9c,2022-06-29_10h10.41.740,Colour_Asymmetry_Pilot,2022.1.3,Win32,71.94244604,62bbe60bf3d75ef465d3e404,,,,,,,,,,,,,,,,,,,,,,,,,,,,,,,,,,,,,,,,,,,,,,,,,,,,,,,,,,,,,,,,,,,,,,,,,,,,,,,,,,,,,,,,,,,,,,,,,,,,,,,,,,,,,,,,,,,,,,,,,,,,,,,,,,,,,,,,,,,,,,,,,,,,,,,,,,,,,,
0,69,69,67,1,,5d596938a0c0940001a47291,62bbfaa97d44554892e31c9c,2022-06-29_10h10.41.740,Colour_Asymmetry_Pilot,2022.1.3,Win32,71.94244604,62bbe60bf3d75ef465d3e404,,,,,,,,,,,,,,,,,,,,,,,,,,,,,,,,,,,,,,,,,,,,,,,,,,,,,,,,,,,,,,,,,,,,,,,,,,,,,,,,,,,,,,,,,,,,,,,,,,,,,,,,,,,,,,,,,,,,,,,,,,,,,,,,,,,,,,,,,,,,,,,,,,,,,,,,,,,,,,
0,70,70,61,1,,5d596938a0c0940001a47291,62bbfaa97d44554892e31c9c,2022-06-29_10h10.41.740,Colour_Asymmetry_Pilot,2022.1.3,Win32,71.94244604,62bbe60bf3d75ef465d3e404,,,,,,,,,,,,,,,,,,,,,,,,,,,,,,,,,,,,,,,,,,,,,,,,,,,,,,,,,,,,,,,,,,,,,,,,,,,,,,,,,,,,,,,,,,,,,,,,,,,,,,,,,,,,,,,,,,,,,,,,,,,,,,,,,,,,,,,,,,,,,,,,,,,,,,,,,,,,,,
0,71,71,44,1,,5d596938a0c0940001a47291,62bbfaa97d44554892e31c9c,2022-06-29_10h10.41.740,Colour_Asymmetry_Pilot,2022.1.3,Win32,71.94244604,62bbe60bf3d75ef465d3e404,,,,,,,,,,,,,,,,,,,,,,,,,,,,,,,,,,,,,,,,,,,,,,,,,,,,,,,,,,,,,,,,,,,,,,,,,,,,,,,,,,,,,,,,,,,,,,,,,,,,,,,,,,,,,,,,,,,,,,,,,,,,,,,,,,,,,,,,,,,,,,,,,,,,,,,,,,,,,,
0,72,72,53,1,,5d596938a0c0940001a47291,62bbfaa97d44554892e31c9c,2022-06-29_10h10.41.740,Colour_Asymmetry_Pilot,2022.1.3,Win32,71.94244604,62bbe60bf3d75ef465d3e404,,,,,,,,,,,,,,,,,,,,,,,,,,,,,,,,,,,,,,,,,,,,,,,,,,,,,,,,,,,,,,,,,,,,,,,,,,,,,,,,,,,,,,,,,,,,,,,,,,,,,,,,,,,,,,,,,,,,,,,,,,,,,,,,,,,,,,,,,,,,,,,,,,,,,,,,,,,,,,
0,73,73,57,1,,5d596938a0c0940001a47291,62bbfaa97d44554892e31c9c,2022-06-29_10h10.41.740,Colour_Asymmetry_Pilot,2022.1.3,Win32,71.94244604,62bbe60bf3d75ef465d3e404,,,,,,,,,,,,,,,,,,,,,,,,,,,,,,,,,,,,,,,,,,,,,,,,,,,,,,,,,,,,,,,,,,,,,,,,,,,,,,,,,,,,,,,,,,,,,,,,,,,,,,,,,,,,,,,,,,,,,,,,,,,,,,,,,,,,,,,,,,,,,,,,,,,,,,,,,,,,,,
0,74,74,76,1,,5d596938a0c0940001a47291,62bbfaa97d44554892e31c9c,2022-06-29_10h10.41.740,Colour_Asymmetry_Pilot,2022.1.3,Win32,71.94244604,62bbe60bf3d75ef465d3e404,,,,,,,,,,,,,,,,,,,,,,,,,,,,,,,,,,,,,,,,,,,,,,,,,,,,,,,,,,,,,,,,,,,,,,,,,,,,,,,,,,,,,,,,,,,,,,,,,,,,,,,,,,,,,,,,,,,,,,,,,,,,,,,,,,,,,,,,,,,,,,,,,,,,,,,,,,,,,,
0,75,75,39,1,,5d596938a0c0940001a47291,62bbfaa97d44554892e31c9c,2022-06-29_10h10.41.740,Colour_Asymmetry_Pilot,2022.1.3,Win32,71.94244604,62bbe60bf3d75ef465d3e404,,,,,,,,,,,,,,,,,,,,,,,,,,,,,,,,,,,,,,,,,,,,,,,,,,,,,,,,,,,,,,,,,,,,,,,,,,,,,,,,,,,,,,,,,,,,,,,,,,,,,,,,,,,,,,,,,,,,,,,,,,,,,,,,,,,,,,,,,,,,,,,,,,,,,,,,,,,,,,
0,76,76,84,1,,5d596938a0c0940001a47291,62bbfaa97d44554892e31c9c,2022-06-29_10h10.41.740,Colour_Asymmetry_Pilot,2022.1.3,Win32,71.94244604,62bbe60bf3d75ef465d3e404,,,,,,,,,,,,,,,,,,,,,,,,,,,,,,,,,,,,,,,,,,,,,,,,,,,,,,,,,,,,,,,,,,,,,,,,,,,,,,,,,,,,,,,,,,,,,,,,,,,,,,,,,,,,,,,,,,,,,,,,,,,,,,,,,,,,,,,,,,,,,,,,,,,,,,,,,,,,,,
0,77,77,50,1,,5d596938a0c0940001a47291,62bbfaa97d44554892e31c9c,2022-06-29_10h10.41.740,Colour_Asymmetry_Pilot,2022.1.3,Win32,71.94244604,62bbe60bf3d75ef465d3e404,,,,,,,,,,,,,,,,,,,,,,,,,,,,,,,,,,,,,,,,,,,,,,,,,,,,,,,,,,,,,,,,,,,,,,,,,,,,,,,,,,,,,,,,,,,,,,,,,,,,,,,,,,,,,,,,,,,,,,,,,,,,,,,,,,,,,,,,,,,,,,,,,,,,,,,,,,,,,,
0,78,78,73,1,,5d596938a0c0940001a47291,62bbfaa97d44554892e31c9c,2022-06-29_10h10.41.740,Colour_Asymmetry_Pilot,2022.1.3,Win32,71.94244604,62bbe60bf3d75ef465d3e404,,,,,,,,,,,,,,,,,,,,,,,,,,,,,,,,,,,,,,,,,,,,,,,,,,,,,,,,,,,,,,,,,,,,,,,,,,,,,,,,,,,,,,,,,,,,,,,,,,,,,,,,,,,,,,,,,,,,,,,,,,,,,,,,,,,,,,,,,,,,,,,,,,,,,,,,,,,,,,
0,79,79,80,1,,5d596938a0c0940001a47291,62bbfaa97d44554892e31c9c,2022-06-29_10h10.41.740,Colour_Asymmetry_Pilot,2022.1.3,Win32,71.94244604,62bbe60bf3d75ef465d3e404,,,,,,,,,,,,,,,,,,,,,,,,,,,,,,,,,,,,,,,,,,,,,,,,,,,,,,,,,,,,,,,,,,,,,,,,,,,,,,,,,,,,,,,,,,,,,,,,,,,,,,,,,,,,,,,,,,,,,,,,,,,,,,,,,,,,,,,,,,,,,,,,,,,,,,,,,,,,,,
0,80,80,83,1,,5d596938a0c0940001a47291,62bbfaa97d44554892e31c9c,2022-06-29_10h10.41.740,Colour_Asymmetry_Pilot,2022.1.3,Win32,71.94244604,62bbe60bf3d75ef465d3e404,,,,,,,,,,,,,,,,,,,,,,,,,,,,,,,,,,,,,,,,,,,,,,,,,,,,,,,,,,,,,,,,,,,,,,,,,,,,,,,,,,,,,,,,,,,,,,,,,,,,,,,,,,,,,,,,,,,,,,,,,,,,,,,,,,,,,,,,,,,,,,,,,,,,,,,,,,,,,,
0,81,81,48,1,,5d596938a0c0940001a47291,62bbfaa97d44554892e31c9c,2022-06-29_10h10.41.740,Colour_Asymmetry_Pilot,2022.1.3,Win32,71.94244604,62bbe60bf3d75ef465d3e404,,,,,,,,,,,,,,,,,,,,,,,,,,,,,,,,,,,,,,,,,,,,,,,,,,,,,,,,,,,,,,,,,,,,,,,,,,,,,,,,,,,,,,,,,,,,,,,,,,,,,,,,,,,,,,,,,,,,,,,,,,,,,,,,,,,,,,,,,,,,,,,,,,,,,,,,,,,,,,
0,82,82,14,1,,5d596938a0c0940001a47291,62bbfaa97d44554892e31c9c,2022-06-29_10h10.41.740,Colour_Asymmetry_Pilot,2022.1.3,Win32,71.94244604,62bbe60bf3d75ef465d3e404,,,,,,,,,,,,,,,,,,,,,,,,,,,,,,,,,,,,,,,,,,,,,,,,,,,,,,,,,,,,,,,,,,,,,,,,,,,,,,,,,,,,,,,,,,,,,,,,,,,,,,,,,,,,,,,,,,,,,,,,,,,,,,,,,,,,,,,,,,,,,,,,,,,,,,,,,,,,,,
0,83,83,64,1,,5d596938a0c0940001a47291,62bbfaa97d44554892e31c9c,2022-06-29_10h10.41.740,Colour_Asymmetry_Pilot,2022.1.3,Win32,71.94244604,62bbe60bf3d75ef465d3e404,,,,,,,,,,,,,,,,,,,,,,,,,,,,,,,,,,,,,,,,,,,,,,,,,,,,,,,,,,,,,,,,,,,,,,,,,,,,,,,,,,,,,,,,,,,,,,,,,,,,,,,,,,,,,,,,,,,,,,,,,,,,,,,,,,,,,,,,,,,,,,,,,,,,,,,,,,,,,,
0,84,84,10,1,,5d596938a0c0940001a47291,62bbfaa97d44554892e31c9c,2022-06-29_10h10.41.740,Colour_Asymmetry_Pilot,2022.1.3,Win32,71.94244604,62bbe60bf3d75ef465d3e404,,,,,,,,,,,,,,,,,,,,,,,,,,,,,,,,,,,,,,,,,,,,,,,,,,,,,,,,,,,,,,,,,,,,,,,,,,,,,,,,,,,,,,,,,,,,,,,,,,,,,,,,,,,,,,,,,,,,,,,,,,,,,,,,,,,,,,,,,,,,,,,,,,,,,,,,,,,,,,
0,85,85,70,1,,5d596938a0c0940001a47291,62bbfaa97d44554892e31c9c,2022-06-29_10h10.41.740,Colour_Asymmetry_Pilot,2022.1.3,Win32,71.94244604,62bbe60bf3d75ef465d3e404,,,,,,,,,,,,,,,,,,,,,,,,,,,,,,,,,,,,,,,,,,,,,,,,,,,,,,,,,,,,,,,,,,,,,,,,,,,,,,,,,,,,,,,,,,,,,,,,,,,,,,,,,,,,,,,,,,,,,,,,,,,,,,,,,,,,,,,,,,,,,,,,,,,,,,,,,,,,,,
0,86,86,45,1,,5d596938a0c0940001a47291,62bbfaa97d44554892e31c9c,2022-06-29_10h10.41.740,Colour_Asymmetry_Pilot,2022.1.3,Win32,71.94244604,62bbe60bf3d75ef465d3e404,,,,,,,,,,,,,,,,,,,,,,,,,,,,,,,,,,,,,,,,,,,,,,,,,,,,,,,,,,,,,,,,,,,,,,,,,,,,,,,,,,,,,,,,,,,,,,,,,,,,,,,,,,,,,,,,,,,,,,,,,,,,,,,,,,,,,,,,,,,,,,,,,,,,,,,,,,,,,,
0,87,87,56,1,,5d596938a0c0940001a47291,62bbfaa97d44554892e31c9c,2022-06-29_10h10.41.740,Colour_Asymmetry_Pilot,2022.1.3,Win32,71.94244604,62bbe60bf3d75ef465d3e404,,,,,,,,,,,,,,,,,,,,,,,,,,,,,,,,,,,,,,,,,,,,,,,,,,,,,,,,,,,,,,,,,,,,,,,,,,,,,,,,,,,,,,,,,,,,,,,,,,,,,,,,,,,,,,,,,,,,,,,,,,,,,,,,,,,,,,,,,,,,,,,,,,,,,,,,,,,,,,
0,88,88,69,1,,5d596938a0c0940001a47291,62bbfaa97d44554892e31c9c,2022-06-29_10h10.41.740,Colour_Asymmetry_Pilot,2022.1.3,Win32,71.94244604,62bbe60bf3d75ef465d3e404,,,,,,,,,,,,,,,,,,,,,,,,,,,,,,,,,,,,,,,,,,,,,,,,,,,,,,,,,,,,,,,,,,,,,,,,,,,,,,,,,,,,,,,,,,,,,,,,,,,,,,,,,,,,,,,,,,,,,,,,,,,,,,,,,,,,,,,,,,,,,,,,,,,,,,,,,,,,,,
0,89,89,81,1,,5d596938a0c0940001a47291,62bbfaa97d44554892e31c9c,2022-06-29_10h10.41.740,Colour_Asymmetry_Pilot,2022.1.3,Win32,71.94244604,62bbe60bf3d75ef465d3e404,,,,,,,,,,,,,,,,,,,,,,,,,,,,,,,,,,,,,,,,,,,,,,,,,,,,,,,,,,,,,,,,,,,,,,,,,,,,,,,,,,,,,,,,,,,,,,,,,,,,,,,,,,,,,,,,,,,,,,,,,,,,,,,,,,,,,,,,,,,,,,,,,,,,,,,,,,,,,,
0,90,90,5,1,,5d596938a0c0940001a47291,62bbfaa97d44554892e31c9c,2022-06-29_10h10.41.740,Colour_Asymmetry_Pilot,2022.1.3,Win32,71.94244604,62bbe60bf3d75ef465d3e404,,,,,,,,,,,,,,,,,,,,,,,,,,,,,,,,,,,,,,,,,,,,,,,,,,,,,,,,,,,,,,,,,,,,,,,,,,,,,,,,,,,,,,,,,,,,,,,,,,,,,,,,,,,,,,,,,,,,,,,,,,,,,,,,,,,,,,,,,,,,,,,,,,,,,,,,,,,,,,
0,91,91,6,1,,5d596938a0c0940001a47291,62bbfaa97d44554892e31c9c,2022-06-29_10h10.41.740,Colour_Asymmetry_Pilot,2022.1.3,Win32,71.94244604,62bbe60bf3d75ef465d3e404,,,,,,,,,,,,,,,,,,,,,,,,,,,,,,,,,,,,,,,,,,,,,,,,,,,,,,,,,,,,,,,,,,,,,,,,,,,,,,,,,,,,,,,,,,,,,,,,,,,,,,,,,,,,,,,,,,,,,,,,,,,,,,,,,,,,,,,,,,,,,,,,,,,,,,,,,,,,,,
0,92,92,46,1,,5d596938a0c0940001a47291,62bbfaa97d44554892e31c9c,2022-06-29_10h10.41.740,Colour_Asymmetry_Pilot,2022.1.3,Win32,71.94244604,62bbe60bf3d75ef465d3e404,,,,,,,,,,,,,,,,,,,,,,,,,,,,,,,,,,,,,,,,,,,,,,,,,,,,,,,,,,,,,,,,,,,,,,,,,,,,,,,,,,,,,,,,,,,,,,,,,,,,,,,,,,,,,,,,,,,,,,,,,,,,,,,,,,,,,,,,,,,,,,,,,,,,,,,,,,,,,,
,,,,,,5d596938a0c0940001a47291,62bbfaa97d44554892e31c9c,2022-06-29_10h10.41.740,Colour_Asymmetry_Pilot,2022.1.3,Win32,71.94244604,62bbe60bf3d75ef465d3e404,0,0,0,119,1,fourthree,,,,,,,,,,,,,,,,,,,,,,,,,,,,,,,,,,,,,,,,,,,,,,,,,,,,,,,,,,,,,,,,,,,,,,,,,,,,,,,,,,,,,,,,,,,,,,,,,,,,,,,,,,,,,,,,,,,,,,,,,,,,,,,,,,,,,,,,,,,,,,,,,,,,,,,,
,,,,,,5d596938a0c0940001a47291,62bbfaa97d44554892e31c9c,2022-06-29_10h10.41.740,Colour_Asymmetry_Pilot,2022.1.3,Win32,71.94244604,62bbe60bf3d75ef465d3e404,0,1,1,155,1,twofour,,,,,,,,,,,,,,,,,,,,,,,,,,,,,,,,,,,,,,,,,,,,,,,,,,,,,,,,,,,,,,,,,,,,,,,,,,,,,,,,,,,,,,,,,,,,,,,,,,,,,,,,,,,,,,,,,,,,,,,,,,,,,,,,,,,,,,,,,,,,,,,,,,,,,,,,
,,,,,,5d596938a0c0940001a47291,62bbfaa97d44554892e31c9c,2022-06-29_10h10.41.740,Colour_Asymmetry_Pilot,2022.1.3,Win32,71.94244604,62bbe60bf3d75ef465d3e404,0,2,2,118,1,fourtwo,,,,,,,,,,,,,,,,,,,,,,,,,,,,,,,,,,,,,,,,,,,,,,,,,,,,,,,,,,,,,,,,,,,,,,,,,,,,,,,,,,,,,,,,,,,,,,,,,,,,,,,,,,,,,,,,,,,,,,,,,,,,,,,,,,,,,,,,,,,,,,,,,,,,,,,,
,,,,,,5d596938a0c0940001a47291,62bbfaa97d44554892e31c9c,2022-06-29_10h10.41.740,Colour_Asymmetry_Pilot,2022.1.3,Win32,71.94244604,62bbe60bf3d75ef465d3e404,0,3,3,88,1,onetwo,,,,,,,,,,,,,,,,,,,,,,,,,,,,,,,,,,,,,,,,,,,,,,,,,,,,,,,,,,,,,,,,,,,,,,,,,,,,,,,,,,,,,,,,,,,,,,,,,,,,,,,,,,,,,,,,,,,,,,,,,,,,,,,,,,,,,,,,,,,,,,,,,,,,,,,,
,,,,,,5d596938a0c0940001a47291,62bbfaa97d44554892e31c9c,2022-06-29_10h10.41.740,Colour_Asymmetry_Pilot,2022.1.3,Win32,71.94244604,62bbe60bf3d75ef465d3e404,0,4,4,56,1,onetwo,,,,,,,,,,,,,,,,,,,,,,,,,,,,,,,,,,,,,,,,,,,,,,,,,,,,,,,,,,,,,,,,,,,,,,,,,,,,,,,,,,,,,,,,,,,,,,,,,,,,,,,,,,,,,,,,,,,,,,,,,,,,,,,,,,,,,,,,,,,,,,,,,,,,,,,,
,,,,,,5d596938a0c0940001a47291,62bbfaa97d44554892e31c9c,2022-06-29_10h10.41.740,Colour_Asymmetry_Pilot,2022.1.3,Win32,71.94244604,62bbe60bf3d75ef465d3e404,0,5,5,93,1,threefour,,,,,,,,,,,,,,,,,,,,,,,,,,,,,,,,,,,,,,,,,,,,,,,,,,,,,,,,,,,,,,,,,,,,,,,,,,,,,,,,,,,,,,,,,,,,,,,,,,,,,,,,,,,,,,,,,,,,,,,,,,,,,,,,,,,,,,,,,,,,,,,,,,,,,,,,
,,,,,,5d596938a0c0940001a47291,62bbfaa97d44554892e31c9c,2022-06-29_10h10.41.740,Colour_Asymmetry_Pilot,2022.1.3,Win32,71.94244604,62bbe60bf3d75ef465d3e404,0,6,6,154,1,twoone,,,,,,,,,,,,,,,,,,,,,,,,,,,,,,,,,,,,,,,,,,,,,,,,,,,,,,,,,,,,,,,,,,,,,,,,,,,,,,,,,,,,,,,,,,,,,,,,,,,,,,,,,,,,,,,,,,,,,,,,,,,,,,,,,,,,,,,,,,,,,,,,,,,,,,,,
,,,,,,5d596938a0c0940001a47291,62bbfaa97d44554892e31c9c,2022-06-29_10h10.41.740,Colour_Asymmetry_Pilot,2022.1.3,Win32,71.94244604,62bbe60bf3d75ef465d3e404,0,7,7,3,1,twofour,,,,,,,,,,,,,,,,,,,,,,,,,,,,,,,,,,,,,,,,,,,,,,,,,,,,,,,,,,,,,,,,,,,,,,,,,,,,,,,,,,,,,,,,,,,,,,,,,,,,,,,,,,,,,,,,,,,,,,,,,,,,,,,,,,,,,,,,,,,,,,,,,,,,,,,,
,,,,,,5d596938a0c0940001a47291,62bbfaa97d44554892e31c9c,2022-06-29_10h10.41.740,Colour_Asymmetry_Pilot,2022.1.3,Win32,71.94244604,62bbe60bf3d75ef465d3e404,0,8,8,38,1,fourtwo,,,,,,,,,,,,,,,,,,,,,,,,,,,,,,,,,,,,,,,,,,,,,,,,,,,,,,,,,,,,,,,,,,,,,,,,,,,,,,,,,,,,,,,,,,,,,,,,,,,,,,,,,,,,,,,,,,,,,,,,,,,,,,,,,,,,,,,,,,,,,,,,,,,,,,,,
,,,,,,5d596938a0c0940001a47291,62bbfaa97d44554892e31c9c,2022-06-29_10h10.41.740,Colour_Asymmetry_Pilot,2022.1.3,Win32,71.94244604,62bbe60bf3d75ef465d3e404,0,9,9,144,1,onetwo,,,,,,,,,,,,,,,,,,,,,,,,,,,,,,,,,,,,,,,,,,,,,,,,,,,,,,,,,,,,,,,,,,,,,,,,,,,,,,,,,,,,,,,,,,,,,,,,,,,,,,,,,,,,,,,,,,,,,,,,,,,,,,,,,,,,,,,,,,,,,,,,,,,,,,,,
,,,,,,5d596938a0c0940001a47291,62bbfaa97d44554892e31c9c,2022-06-29_10h10.41.740,Colour_Asymmetry_Pilot,2022.1.3,Win32,71.94244604,62bbe60bf3d75ef465d3e404,0,10,10,160,1,onetwo,,,,,,,,,,,,,,,,,,,,,,,,,,,,,,,,,,,,,,,,,,,,,,,,,,,,,,,,,,,,,,,,,,,,,,,,,,,,,,,,,,,,,,,,,,,,,,,,,,,,,,,,,,,,,,,,,,,,,,,,,,,,,,,,,,,,,,,,,,,,,,,,,,,,,,,,
,,,,,,5d596938a0c0940001a47291,62bbfaa97d44554892e31c9c,2022-06-29_10h10.41.740,Colour_Asymmetry_Pilot,2022.1.3,Win32,71.94244604,62bbe60bf3d75ef465d3e404,0,11,11,17,1,onethree,,,,,,,,,,,,,,,,,,,,,,,,,,,,,,,,,,,,,,,,,,,,,,,,,,,,,,,,,,,,,,,,,,,,,,,,,,,,,,,,,,,,,,,,,,,,,,,,,,,,,,,,,,,,,,,,,,,,,,,,,,,,,,,,,,,,,,,,,,,,,,,,,,,,,,,,
,,,,,,5d596938a0c0940001a47291,62bbfaa97d44554892e31c9c,2022-06-29_10h10.41.740,Colour_Asymmetry_Pilot,2022.1.3,Win32,71.94244604,62bbe60bf3d75ef465d3e404,0,12,12,65,1,onethree,,,,,,,,,,,,,,,,,,,,,,,,,,,,,,,,,,,,,,,,,,,,,,,,,,,,,,,,,,,,,,,,,,,,,,,,,,,,,,,,,,,,,,,,,,,,,,,,,,,,,,,,,,,,,,,,,,,,,,,,,,,,,,,,,,,,,,,,,,,,,,,,,,,,,,,,
,,,,,,5d596938a0c0940001a47291,62bbfaa97d44554892e31c9c,2022-06-29_10h10.41.740,Colour_Asymmetry_Pilot,2022.1.3,Win32,71.94244604,62bbe60bf3d75ef465d3e404,0,13,13,70,1,fourtwo,,,,,,,,,,,,,,,,,,,,,,,,,,,,,,,,,,,,,,,,,,,,,,,,,,,,,,,,,,,,,,,,,,,,,,,,,,,,,,,,,,,,,,,,,,,,,,,,,,,,,,,,,,,,,,,,,,,,,,,,,,,,,,,,,,,,,,,,,,,,,,,,,,,,,,,,
,,,,,,5d596938a0c0940001a47291,62bbfaa97d44554892e31c9c,2022-06-29_10h10.41.740,Colour_Asymmetry_Pilot,2022.1.3,Win32,71.94244604,62bbe60bf3d75ef465d3e404,0,14,14,105,1,onethree,,,,,,,,,,,,,,,,,,,,,,,,,,,,,,,,,,,,,,,,,,,,,,,,,,,,,,,,,,,,,,,,,,,,,,,,,,,,,,,,,,,,,,,,,,,,,,,,,,,,,,,,,,,,,,,,,,,,,,,,,,,,,,,,,,,,,,,,,,,,,,,,,,,,,,,,
,,,,,,5d596938a0c0940001a47291,62bbfaa97d44554892e31c9c,2022-06-29_10h10.41.740,Colour_Asymmetry_Pilot,2022.1.3,Win32,71.94244604,62bbe60bf3d75ef465d3e404,0,15,15,86,1,fourtwo,,,,,,,,,,,,,,,,,,,,,,,,,,,,,,,,,,,,,,,,,,,,,,,,,,,,,,,,,,,,,,,,,,,,,,,,,,,,,,,,,,,,,,,,,,,,,,,,,,,,,,,,,,,,,,,,,,,,,,,,,,,,,,,,,,,,,,,,,,,,,,,,,,,,,,,,
,,,,,,5d596938a0c0940001a47291,62bbfaa97d44554892e31c9c,2022-06-29_10h10.41.740,Colour_Asymmetry_Pilot,2022.1.3,Win32,71.94244604,62bbe60bf3d75ef465d3e404,0,16,16,58,1,twoone,,,,,,,,,,,,,,,,,,,,,,,,,,,,,,,,,,,,,,,,,,,,,,,,,,,,,,,,,,,,,,,,,,,,,,,,,,,,,,,,,,,,,,,,,,,,,,,,,,,,,,,,,,,,,,,,,,,,,,,,,,,,,,,,,,,,,,,,,,,,,,,,,,,,,,,,
,,,,,,5d596938a0c0940001a47291,62bbfaa97d44554892e31c9c,2022-06-29_10h10.41.740,Colour_Asymmetry_Pilot,2022.1.3,Win32,71.94244604,62bbe60bf3d75ef465d3e404,0,17,17,140,1,threeone,,,,,,,,,,,,,,,,,,,,,,,,,,,,,,,,,,,,,,,,,,,,,,,,,,,,,,,,,,,,,,,,,,,,,,,,,,,,,,,,,,,,,,,,,,,,,,,,,,,,,,,,,,,,,,,,,,,,,,,,,,,,,,,,,,,,,,,,,,,,,,,,,,,,,,,,
,,,,,,5d596938a0c0940001a47291,62bbfaa97d44554892e31c9c,2022-06-29_10h10.41.740,Colour_Asymmetry_Pilot,2022.1.3,Win32,71.94244604,62bbe60bf3d75ef465d3e404,0,18,18,25,1,onethree,,,,,,,,,,,,,,,,,,,,,,,,,,,,,,,,,,,,,,,,,,,,,,,,,,,,,,,,,,,,,,,,,,,,,,,,,,,,,,,,,,,,,,,,,,,,,,,,,,,,,,,,,,,,,,,,,,,,,,,,,,,,,,,,,,,,,,,,,,,,,,,,,,,,,,,,
,,,,,,5d596938a0c0940001a47291,62bbfaa97d44554892e31c9c,2022-06-29_10h10.41.740,Colour_Asymmetry_Pilot,2022.1.3,Win32,71.94244604,62bbe60bf3d75ef465d3e404,0,19,19,1,1,onethree,,,,,,,,,,,,,,,,,,,,,,,,,,,,,,,,,,,,,,,,,,,,,,,,,,,,,,,,,,,,,,,,,,,,,,,,,,,,,,,,,,,,,,,,,,,,,,,,,,,,,,,,,,,,,,,,,,,,,,,,,,,,,,,,,,,,,,,,,,,,,,,,,,,,,,,,
,,,,,,5d596938a0c0940001a47291,62bbfaa97d44554892e31c9c,2022-06-29_10h10.41.740,Colour_Asymmetry_Pilot,2022.1.3,Win32,71.94244604,62bbe60bf3d75ef465d3e404,0,20,20,73,1,onethree,,,,,,,,,,,,,,,,,,,,,,,,,,,,,,,,,,,,,,,,,,,,,,,,,,,,,,,,,,,,,,,,,,,,,,,,,,,,,,,,,,,,,,,,,,,,,,,,,,,,,,,,,,,,,,,,,,,,,,,,,,,,,,,,,,,,,,,,,,,,,,,,,,,,,,,,
,,,,,,5d596938a0c0940001a47291,62bbfaa97d44554892e31c9c,2022-06-29_10h10.41.740,Colour_Asymmetry_Pilot,2022.1.3,Win32,71.94244604,62bbe60bf3d75ef465d3e404,0,21,21,108,1,threeone,,,,,,,,,,,,,,,,,,,,,,,,,,,,,,,,,,,,,,,,,,,,,,,,,,,,,,,,,,,,,,,,,,,,,,,,,,,,,,,,,,,,,,,,,,,,,,,,,,,,,,,,,,,,,,,,,,,,,,,,,,,,,,,,,,,,,,,,,,,,,,,,,,,,,,,,
,,,,,,5d596938a0c0940001a47291,62bbfaa97d44554892e31c9c,2022-06-29_10h10.41.740,Colour_Asymmetry_Pilot,2022.1.3,Win32,71.94244604,62bbe60bf3d75ef465d3e404,0,22,22,18,1,twoone,,,,,,,,,,,,,,,,,,,,,,,,,,,,,,,,,,,,,,,,,,,,,,,,,,,,,,,,,,,,,,,,,,,,,,,,,,,,,,,,,,,,,,,,,,,,,,,,,,,,,,,,,,,,,,,,,,,,,,,,,,,,,,,,,,,,,,,,,,,,,,,,,,,,,,,,
,,,,,,5d596938a0c0940001a47291,62bbfaa97d44554892e31c9c,2022-06-29_10h10.41.740,Colour_Asymmetry_Pilot,2022.1.3,Win32,71.94244604,62bbe60bf3d75ef465d3e404,0,23,23,150,1,fourtwo,,,,,,,,,,,,,,,,,,,,,,,,,,,,,,,,,,,,,,,,,,,,,,,,,,,,,,,,,,,,,,,,,,,,,,,,,,,,,,,,,,,,,,,,,,,,,,,,,,,,,,,,,,,,,,,,,,,,,,,,,,,,,,,,,,,,,,,,,,,,,,,,,,,,,,,,
,,,,,,5d596938a0c0940001a47291,62bbfaa97d44554892e31c9c,2022-06-29_10h10.41.740,Colour_Asymmetry_Pilot,2022.1.3,Win32,71.94244604,62bbe60bf3d75ef465d3e404,0,24,24,55,1,fourthree,,,,,,,,,,,,,,,,,,,,,,,,,,,,,,,,,,,,,,,,,,,,,,,,,,,,,,,,,,,,,,,,,,,,,,,,,,,,,,,,,,,,,,,,,,,,,,,,,,,,,,,,,,,,,,,,,,,,,,,,,,,,,,,,,,,,,,,,,,,,,,,,,,,,,,,,
,,,,,,5d596938a0c0940001a47291,62bbfaa97d44554892e31c9c,2022-06-29_10h10.41.740,Colour_Asymmetry_Pilot,2022.1.3,Win32,71.94244604,62bbe60bf3d75ef465d3e404,0,25,25,11,1,twofour,,,,,,,,,,,,,,,,,,,,,,,,,,,,,,,,,,,,,,,,,,,,,,,,,,,,,,,,,,,,,,,,,,,,,,,,,,,,,,,,,,,,,,,,,,,,,,,,,,,,,,,,,,,,,,,,,,,,,,,,,,,,,,,,,,,,,,,,,,,,,,,,,,,,,,,,
,,,,,,5d596938a0c0940001a47291,62bbfaa97d44554892e31c9c,2022-06-29_10h10.41.740,Colour_Asymmetry_Pilot,2022.1.3,Win32,71.94244604,62bbe60bf3d75ef465d3e404,0,26,26,107,1,twofour,,,,,,,,,,,,,,,,,,,,,,,,,,,,,,,,,,,,,,,,,,,,,,,,,,,,,,,,,,,,,,,,,,,,,,,,,,,,,,,,,,,,,,,,,,,,,,,,,,,,,,,,,,,,,,,,,,,,,,,,,,,,,,,,,,,,,,,,,,,,,,,,,,,,,,,,
,,,,,,5d596938a0c0940001a47291,62bbfaa97d44554892e31c9c,2022-06-29_10h10.41.740,Colour_Asymmetry_Pilot,2022.1.3,Win32,71.94244604,62bbe60bf3d75ef465d3e404,0,27,27,94,1,fourtwo,,,,,,,,,,,,,,,,,,,,,,,,,,,,,,,,,,,,,,,,,,,,,,,,,,,,,,,,,,,,,,,,,,,,,,,,,,,,,,,,,,,,,,,,,,,,,,,,,,,,,,,,,,,,,,,,,,,,,,,,,,,,,,,,,,,,,,,,,,,,,,,,,,,,,,,,
,,,,,,5d596938a0c0940001a47291,62bbfaa97d44554892e31c9c,2022-06-29_10h10.41.740,Colour_Asymmetry_Pilot,2022.1.3,Win32,71.94244604,62bbe60bf3d75ef465d3e404,0,28,28,63,1,fourthree,,,,,,,,,,,,,,,,,,,,,,,,,,,,,,,,,,,,,,,,,,,,,,,,,,,,,,,,,,,,,,,,,,,,,,,,,,,,,,,,,,,,,,,,,,,,,,,,,,,,,,,,,,,,,,,,,,,,,,,,,,,,,,,,,,,,,,,,,,,,,,,,,,,,,,,,
,,,,,,5d596938a0c0940001a47291,62bbfaa97d44554892e31c9c,2022-06-29_10h10.41.740,Colour_Asymmetry_Pilot,2022.1.3,Win32,71.94244604,62bbe60bf3d75ef465d3e404,0,29,29,132,1,threeone,,,,,,,,,,,,,,,,,,,,,,,,,,,,,,,,,,,,,,,,,,,,,,,,,,,,,,,,,,,,,,,,,,,,,,,,,,,,,,,,,,,,,,,,,,,,,,,,,,,,,,,,,,,,,,,,,,,,,,,,,,,,,,,,,,,,,,,,,,,,,,,,,,,,,,,,
,,,,,,5d596938a0c0940001a47291,62bbfaa97d44554892e31c9c,2022-06-29_10h10.41.740,Colour_Asymmetry_Pilot,2022.1.3,Win32,71.94244604,62bbe60bf3d75ef465d3e404,0,30,30,27,1,twofour,,,,,,,,,,,,,,,,,,,,,,,,,,,,,,,,,,,,,,,,,,,,,,,,,,,,,,,,,,,,,,,,,,,,,,,,,,,,,,,,,,,,,,,,,,,,,,,,,,,,,,,,,,,,,,,,,,,,,,,,,,,,,,,,,,,,,,,,,,,,,,,,,,,,,,,,
,,,,,,5d596938a0c0940001a47291,62bbfaa97d44554892e31c9c,2022-06-29_10h10.41.740,Colour_Asymmetry_Pilot,2022.1.3,Win32,71.94244604,62bbe60bf3d75ef465d3e404,0,31,31,48,1,onetwo,,,,,,,,,,,,,,,,,,,,,,,,,,,,,,,,,,,,,,,,,,,,,,,,,,,,,,,,,,,,,,,,,,,,,,,,,,,,,,,,,,,,,,,,,,,,,,,,,,,,,,,,,,,,,,,,,,,,,,,,,,,,,,,,,,,,,,,,,,,,,,,,,,,,,,,,
,,,,,,5d596938a0c0940001a47291,62bbfaa97d44554892e31c9c,2022-06-29_10h10.41.740,Colour_Asymmetry_Pilot,2022.1.3,Win32,71.94244604,62bbe60bf3d75ef465d3e404,0,32,32,112,1,onetwo,,,,,,,,,,,,,,,,,,,,,,,,,,,,,,,,,,,,,,,,,,,,,,,,,,,,,,,,,,,,,,,,,,,,,,,,,,,,,,,,,,,,,,,,,,,,,,,,,,,,,,,,,,,,,,,,,,,,,,,,,,,,,,,,,,,,,,,,,,,,,,,,,,,,,,,,
,,,,,,5d596938a0c0940001a47291,62bbfaa97d44554892e31c9c,2022-06-29_10h10.41.740,Colour_Asymmetry_Pilot,2022.1.3,Win32,71.94244604,62bbe60bf3d75ef465d3e404,0,33,33,96,1,onetwo,,,,,,,,,,,,,,,,,,,,,,,,,,,,,,,,,,,,,,,,,,,,,,,,,,,,,,,,,,,,,,,,,,,,,,,,,,,,,,,,,,,,,,,,,,,,,,,,,,,,,,,,,,,,,,,,,,,,,,,,,,,,,,,,,,,,,,,,,,,,,,,,,,,,,,,,
,,,,,,5d596938a0c0940001a47291,62bbfaa97d44554892e31c9c,2022-06-29_10h10.41.740,Colour_Asymmetry_Pilot,2022.1.3,Win32,71.94244604,62bbe60bf3d75ef465d3e404,0,34,34,157,1,threefour,,,,,,,,,,,,,,,,,,,,,,,,,,,,,,,,,,,,,,,,,,,,,,,,,,,,,,,,,,,,,,,,,,,,,,,,,,,,,,,,,,,,,,,,,,,,,,,,,,,,,,,,,,,,,,,,,,,,,,,,,,,,,,,,,,,,,,,,,,,,,,,,,,,,,,,,
,,,,,,5d596938a0c0940001a47291,62bbfaa97d44554892e31c9c,2022-06-29_10h10.41.740,Colour_Asymmetry_Pilot,2022.1.3,Win32,71.94244604,62bbe60bf3d75ef465d3e404,0,35,35,72,1,onetwo,,,,,,,,,,,,,,,,,,,,,,,,,,,,,,,,,,,,,,,,,,,,,,,,,,,,,,,,,,,,,,,,,,,,,,,,,,,,,,,,,,,,,,,,,,,,,,,,,,,,,,,,,,,,,,,,,,,,,,,,,,,,,,,,,,,,,,,,,,,,,,,,,,,,,,,,
,,,,,,5d596938a0c0940001a47291,62bbfaa97d44554892e31c9c,2022-06-29_10h10.41.740,Colour_Asymmetry_Pilot,2022.1.3,Win32,71.94244604,62bbe60bf3d75ef465d3e404,0,36,36,114,1,twoone,,,,,,,,,,,,,,,,,,,,,,,,,,,,,,,,,,,,,,,,,,,,,,,,,,,,,,,,,,,,,,,,,,,,,,,,,,,,,,,,,,,,,,,,,,,,,,,,,,,,,,,,,,,,,,,,,,,,,,,,,,,,,,,,,,,,,,,,,,,,,,,,,,,,,,,,
,,,,,,5d596938a0c0940001a47291,62bbfaa97d44554892e31c9c,2022-06-29_10h10.41.740,Colour_Asymmetry_Pilot,2022.1.3,Win32,71.94244604,62bbe60bf3d75ef465d3e404,0,37,37,90,1,twoone,,,,,,,,,,,,,,,,,,,,,,,,,,,,,,,,,,,,,,,,,,,,,,,,,,,,,,,,,,,,,,,,,,,,,,,,,,,,,,,,,,,,,,,,,,,,,,,,,,,,,,,,,,,,,,,,,,,,,,,,,,,,,,,,,,,,,,,,,,,,,,,,,,,,,,,,
,,,,,,5d596938a0c0940001a47291,62bbfaa97d44554892e31c9c,2022-06-29_10h10.41.740,Colour_Asymmetry_Pilot,2022.1.3,Win32,71.94244604,62bbe60bf3d75ef465d3e404,0,38,38,116,1,threeone,,,,,,,,,,,,,,,,,,,,,,,,,,,,,,,,,,,,,,,,,,,,,,,,,,,,,,,,,,,,,,,,,,,,,,,,,,,,,,,,,,,,,,,,,,,,,,,,,,,,,,,,,,,,,,,,,,,,,,,,,,,,,,,,,,,,,,,,,,,,,,,,,,,,,,,,
,,,,,,5d596938a0c0940001a47291,62bbfaa97d44554892e31c9c,2022-06-29_10h10.41.740,Colour_Asymmetry_Pilot,2022.1.3,Win32,71.94244604,62bbe60bf3d75ef465d3e404,0,39,39,21,1,threefour,,,,,,,,,,,,,,,,,,,,,,,,,,,,,,,,,,,,,,,,,,,,,,,,,,,,,,,,,,,,,,,,,,,,,,,,,,,,,,,,,,,,,,,,,,,,,,,,,,,,,,,,,,,,,,,,,,,,,,,,,,,,,,,,,,,,,,,,,,,,,,,,,,,,,,,,
,,,,,,5d596938a0c0940001a47291,62bbfaa97d44554892e31c9c,2022-06-29_10h10.41.740,Colour_Asymmetry_Pilot,2022.1.3,Win32,71.94244604,62bbe60bf3d75ef465d3e404,0,40,40,110,1,fourtwo,,,,,,,,,,,,,,,,,,,,,,,,,,,,,,,,,,,,,,,,,,,,,,,,,,,,,,,,,,,,,,,,,,,,,,,,,,,,,,,,,,,,,,,,,,,,,,,,,,,,,,,,,,,,,,,,,,,,,,,,,,,,,,,,,,,,,,,,,,,,,,,,,,,,,,,,
,,,,,,5d596938a0c0940001a47291,62bbfaa97d44554892e31c9c,2022-06-29_10h10.41.740,Colour_Asymmetry_Pilot,2022.1.3,Win32,71.94244604,62bbe60bf3d75ef465d3e404,0,41,41,5,1,threefour,,,,,,,,,,,,,,,,,,,,,,,,,,,,,,,,,,,,,,,,,,,,,,,,,,,,,,,,,,,,,,,,,,,,,,,,,,,,,,,,,,,,,,,,,,,,,,,,,,,,,,,,,,,,,,,,,,,,,,,,,,,,,,,,,,,,,,,,,,,,,,,,,,,,,,,,
,,,,,,5d596938a0c0940001a47291,62bbfaa97d44554892e31c9c,2022-06-29_10h10.41.740,Colour_Asymmetry_Pilot,2022.1.3,Win32,71.94244604,62bbe60bf3d75ef465d3e404,0,42,42,2,1,twoone,,,,,,,,,,,,,,,,,,,,,,,,,,,,,,,,,,,,,,,,,,,,,,,,,,,,,,,,,,,,,,,,,,,,,,,,,,,,,,,,,,,,,,,,,,,,,,,,,,,,,,,,,,,,,,,,,,,,,,,,,,,,,,,,,,,,,,,,,,,,,,,,,,,,,,,,
,,,,,,5d596938a0c0940001a47291,62bbfaa97d44554892e31c9c,2022-06-29_10h10.41.740,Colour_Asymmetry_Pilot,2022.1.3,Win32,71.94244604,62bbe60bf3d75ef465d3e404,0,43,43,14,1,fourtwo,,,,,,,,,,,,,,,,,,,,,,,,,,,,,,,,,,,,,,,,,,,,,,,,,,,,,,,,,,,,,,,,,,,,,,,,,,,,,,,,,,,,,,,,,,,,,,,,,,,,,,,,,,,,,,,,,,,,,,,,,,,,,,,,,,,,,,,,,,,,,,,,,,,,,,,,
,,,,,,5d596938a0c0940001a47291,62bbfaa97d44554892e31c9c,2022-06-29_10h10.41.740,Colour_Asymmetry_Pilot,2022.1.3,Win32,71.94244604,62bbe60bf3d75ef465d3e404,0,44,44,109,1,threefour,,,,,,,,,,,,,,,,,,,,,,,,,,,,,,,,,,,,,,,,,,,,,,,,,,,,,,,,,,,,,,,,,,,,,,,,,,,,,,,,,,,,,,,,,,,,,,,,,,,,,,,,,,,,,,,,,,,,,,,,,,,,,,,,,,,,,,,,,,,,,,,,,,,,,,,,
,,,,,,5d596938a0c0940001a47291,62bbfaa97d44554892e31c9c,2022-06-29_10h10.41.740,Colour_Asymmetry_Pilot,2022.1.3,Win32,71.94244604,62bbe60bf3d75ef465d3e404,0,45,45,123,1,twofour,,,,,,,,,,,,,,,,,,,,,,,,,,,,,,,,,,,,,,,,,,,,,,,,,,,,,,,,,,,,,,,,,,,,,,,,,,,,,,,,,,,,,,,,,,,,,,,,,,,,,,,,,,,,,,,,,,,,,,,,,,,,,,,,,,,,,,,,,,,,,,,,,,,,,,,,
,,,,,,5d596938a0c0940001a47291,62bbfaa97d44554892e31c9c,2022-06-29_10h10.41.740,Colour_Asymmetry_Pilot,2022.1.3,Win32,71.94244604,62bbe60bf3d75ef465d3e404,0,46,46,136,1,onetwo,,,,,,,,,,,,,,,,,,,,,,,,,,,,,,,,,,,,,,,,,,,,,,,,,,,,,,,,,,,,,,,,,,,,,,,,,,,,,,,,,,,,,,,,,,,,,,,,,,,,,,,,,,,,,,,,,,,,,,,,,,,,,,,,,,,,,,,,,,,,,,,,,,,,,,,,
,,,,,,5d596938a0c0940001a47291,62bbfaa97d44554892e31c9c,2022-06-29_10h10.41.740,Colour_Asymmetry_Pilot,2022.1.3,Win32,71.94244604,62bbe60bf3d75ef465d3e404,0,47,47,99,1,twofour,,,,,,,,,,,,,,,,,,,,,,,,,,,,,,,,,,,,,,,,,,,,,,,,,,,,,,,,,,,,,,,,,,,,,,,,,,,,,,,,,,,,,,,,,,,,,,,,,,,,,,,,,,,,,,,,,,,,,,,,,,,,,,,,,,,,,,,,,,,,,,,,,,,,,,,,
,,,,,,5d596938a0c0940001a47291,62bbfaa97d44554892e31c9c,2022-06-29_10h10.41.740,Colour_Asymmetry_Pilot,2022.1.3,Win32,71.94244604,62bbe60bf3d75ef465d3e404,0,48,48,91,1,twofour,,,,,,,,,,,,,,,,,,,,,,,,,,,,,,,,,,,,,,,,,,,,,,,,,,,,,,,,,,,,,,,,,,,,,,,,,,,,,,,,,,,,,,,,,,,,,,,,,,,,,,,,,,,,,,,,,,,,,,,,,,,,,,,,,,,,,,,,,,,,,,,,,,,,,,,,
,,,,,,5d596938a0c0940001a47291,62bbfaa97d44554892e31c9c,2022-06-29_10h10.41.740,Colour_Asymmetry_Pilot,2022.1.3,Win32,71.94244604,62bbe60bf3d75ef465d3e404,0,49,49,49,1,onethree,,,,,,,,,,,,,,,,,,,,,,,,,,,,,,,,,,,,,,,,,,,,,,,,,,,,,,,,,,,,,,,,,,,,,,,,,,,,,,,,,,,,,,,,,,,,,,,,,,,,,,,,,,,,,,,,,,,,,,,,,,,,,,,,,,,,,,,,,,,,,,,,,,,,,,,,
,,,,,,5d596938a0c0940001a47291,62bbfaa97d44554892e31c9c,2022-06-29_10h10.41.740,Colour_Asymmetry_Pilot,2022.1.3,Win32,71.94244604,62bbe60bf3d75ef465d3e404,0,50,50,16,1,onetwo,,,,,,,,,,,,,,,,,,,,,,,,,,,,,,,,,,,,,,,,,,,,,,,,,,,,,,,,,,,,,,,,,,,,,,,,,,,,,,,,,,,,,,,,,,,,,,,,,,,,,,,,,,,,,,,,,,,,,,,,,,,,,,,,,,,,,,,,,,,,,,,,,,,,,,,,
,,,,,,5d596938a0c0940001a47291,62bbfaa97d44554892e31c9c,2022-06-29_10h10.41.740,Colour_Asymmetry_Pilot,2022.1.3,Win32,71.94244604,62bbe60bf3d75ef465d3e404,0,51,51,34,1,twoone,,,,,,,,,,,,,,,,,,,,,,,,,,,,,,,,,,,,,,,,,,,,,,,,,,,,,,,,,,,,,,,,,,,,,,,,,,,,,,,,,,,,,,,,,,,,,,,,,,,,,,,,,,,,,,,,,,,,,,,,,,,,,,,,,,,,,,,,,,,,,,,,,,,,,,,,
,,,,,,5d596938a0c0940001a47291,62bbfaa97d44554892e31c9c,2022-06-29_10h10.41.740,Colour_Asymmetry_Pilot,2022.1.3,Win32,71.94244604,62bbe60bf3d75ef465d3e404,0,52,52,59,1,twofour,,,,,,,,,,,,,,,,,,,,,,,,,,,,,,,,,,,,,,,,,,,,,,,,,,,,,,,,,,,,,,,,,,,,,,,,,,,,,,,,,,,,,,,,,,,,,,,,,,,,,,,,,,,,,,,,,,,,,,,,,,,,,,,,,,,,,,,,,,,,,,,,,,,,,,,,
,,,,,,5d596938a0c0940001a47291,62bbfaa97d44554892e31c9c,2022-06-29_10h10.41.740,Colour_Asymmetry_Pilot,2022.1.3,Win32,71.94244604,62bbe60bf3d75ef465d3e404,0,53,53,137,1,onethree,,,,,,,,,,,,,,,,,,,,,,,,,,,,,,,,,,,,,,,,,,,,,,,,,,,,,,,,,,,,,,,,,,,,,,,,,,,,,,,,,,,,,,,,,,,,,,,,,,,,,,,,,,,,,,,,,,,,,,,,,,,,,,,,,,,,,,,,,,,,,,,,,,,,,,,,
,,,,,,5d596938a0c0940001a47291,62bbfaa97d44554892e31c9c,2022-06-29_10h10.41.740,Colour_Asymmetry_Pilot,2022.1.3,Win32,71.94244604,62bbe60bf3d75ef465d3e404,0,54,54,67,1,twofour,,,,,,,,,,,,,,,,,,,,,,,,,,,,,,,,,,,,,,,,,,,,,,,,,,,,,,,,,,,,,,,,,,,,,,,,,,,,,,,,,,,,,,,,,,,,,,,,,,,,,,,,,,,,,,,,,,,,,,,,,,,,,,,,,,,,,,,,,,,,,,,,,,,,,,,,
,,,,,,5d596938a0c0940001a47291,62bbfaa97d44554892e31c9c,2022-06-29_10h10.41.740,Colour_Asymmetry_Pilot,2022.1.3,Win32,71.94244604,62bbe60bf3d75ef465d3e404,0,55,55,13,1,threefour,,,,,,,,,,,,,,,,,,,,,,,,,,,,,,,,,,,,,,,,,,,,,,,,,,,,,,,,,,,,,,,,,,,,,,,,,,,,,,,,,,,,,,,,,,,,,,,,,,,,,,,,,,,,,,,,,,,,,,,,,,,,,,,,,,,,,,,,,,,,,,,,,,,,,,,,
,,,,,,5d596938a0c0940001a47291,62bbfaa97d44554892e31c9c,2022-06-29_10h10.41.740,Colour_Asymmetry_Pilot,2022.1.3,Win32,71.94244604,62bbe60bf3d75ef465d3e404,0,56,56,103,1,fourthree,,,,,,,,,,,,,,,,,,,,,,,,,,,,,,,,,,,,,,,,,,,,,,,,,,,,,,,,,,,,,,,,,,,,,,,,,,,,,,,,,,,,,,,,,,,,,,,,,,,,,,,,,,,,,,,,,,,,,,,,,,,,,,,,,,,,,,,,,,,,,,,,,,,,,,,,
,,,,,,5d596938a0c0940001a47291,62bbfaa97d44554892e31c9c,2022-06-29_10h10.41.740,Colour_Asymmetry_Pilot,2022.1.3,Win32,71.94244604,62bbe60bf3d75ef465d3e404,0,57,57,71,1,fourthree,,,,,,,,,,,,,,,,,,,,,,,,,,,,,,,,,,,,,,,,,,,,,,,,,,,,,,,,,,,,,,,,,,,,,,,,,,,,,,,,,,,,,,,,,,,,,,,,,,,,,,,,,,,,,,,,,,,,,,,,,,,,,,,,,,,,,,,,,,,,,,,,,,,,,,,,
,,,,,,5d596938a0c0940001a47291,62bbfaa97d44554892e31c9c,2022-06-29_10h10.41.740,Colour_Asymmetry_Pilot,2022.1.3,Win32,71.94244604,62bbe60bf3d75ef465d3e404,0,58,58,134,1,fourtwo,,,,,,,,,,,,,,,,,,,,,,,,,,,,,,,,,,,,,,,,,,,,,,,,,,,,,,,,,,,,,,,,,,,,,,,,,,,,,,,,,,,,,,,,,,,,,,,,,,,,,,,,,,,,,,,,,,,,,,,,,,,,,,,,,,,,,,,,,,,,,,,,,,,,,,,,
,,,,,,5d596938a0c0940001a47291,62bbfaa97d44554892e31c9c,2022-06-29_10h10.41.740,Colour_Asymmetry_Pilot,2022.1.3,Win32,71.94244604,62bbe60bf3d75ef465d3e404,0,59,59,141,1,threefour,,,,,,,,,,,,,,,,,,,,,,,,,,,,,,,,,,,,,,,,,,,,,,,,,,,,,,,,,,,,,,,,,,,,,,,,,,,,,,,,,,,,,,,,,,,,,,,,,,,,,,,,,,,,,,,,,,,,,,,,,,,,,,,,,,,,,,,,,,,,,,,,,,,,,,,,
,,,,,,5d596938a0c0940001a47291,62bbfaa97d44554892e31c9c,2022-06-29_10h10.41.740,Colour_Asymmetry_Pilot,2022.1.3,Win32,71.94244604,62bbe60bf3d75ef465d3e404,0,60,60,43,1,twofour,,,,,,,,,,,,,,,,,,,,,,,,,,,,,,,,,,,,,,,,,,,,,,,,,,,,,,,,,,,,,,,,,,,,,,,,,,,,,,,,,,,,,,,,,,,,,,,,,,,,,,,,,,,,,,,,,,,,,,,,,,,,,,,,,,,,,,,,,,,,,,,,,,,,,,,,
,,,,,,5d596938a0c0940001a47291,62bbfaa97d44554892e31c9c,2022-06-29_10h10.41.740,Colour_Asymmetry_Pilot,2022.1.3,Win32,71.94244604,62bbe60bf3d75ef465d3e404,0,61,61,87,1,fourthree,,,,,,,,,,,,,,,,,,,,,,,,,,,,,,,,,,,,,,,,,,,,,,,,,,,,,,,,,,,,,,,,,,,,,,,,,,,,,,,,,,,,,,,,,,,,,,,,,,,,,,,,,,,,,,,,,,,,,,,,,,,,,,,,,,,,,,,,,,,,,,,,,,,,,,,,
,,,,,,5d596938a0c0940001a47291,62bbfaa97d44554892e31c9c,2022-06-29_10h10.41.740,Colour_Asymmetry_Pilot,2022.1.3,Win32,71.94244604,62bbe60bf3d75ef465d3e404,0,62,62,147,1,twofour,,,,,,,,,,,,,,,,,,,,,,,,,,,,,,,,,,,,,,,,,,,,,,,,,,,,,,,,,,,,,,,,,,,,,,,,,,,,,,,,,,,,,,,,,,,,,,,,,,,,,,,,,,,,,,,,,,,,,,,,,,,,,,,,,,,,,,,,,,,,,,,,,,,,,,,,
,,,,,,5d596938a0c0940001a47291,62bbfaa97d44554892e31c9c,2022-06-29_10h10.41.740,Colour_Asymmetry_Pilot,2022.1.3,Win32,71.94244604,62bbe60bf3d75ef465d3e404,0,63,63,9,1,onethree,,,,,,,,,,,,,,,,,,,,,,,,,,,,,,,,,,,,,,,,,,,,,,,,,,,,,,,,,,,,,,,,,,,,,,,,,,,,,,,,,,,,,,,,,,,,,,,,,,,,,,,,,,,,,,,,,,,,,,,,,,,,,,,,,,,,,,,,,,,,,,,,,,,,,,,,
,,,,,,5d596938a0c0940001a47291,62bbfaa97d44554892e31c9c,2022-06-29_10h10.41.740,Colour_Asymmetry_Pilot,2022.1.3,Win32,71.94244604,62bbe60bf3d75ef465d3e404,0,64,64,40,1,onetwo,,,,,,,,,,,,,,,,,,,,,,,,,,,,,,,,,,,,,,,,,,,,,,,,,,,,,,,,,,,,,,,,,,,,,,,,,,,,,,,,,,,,,,,,,,,,,,,,,,,,,,,,,,,,,,,,,,,,,,,,,,,,,,,,,,,,,,,,,,,,,,,,,,,,,,,,
,,,,,,5d596938a0c0940001a47291,62bbfaa97d44554892e31c9c,2022-06-29_10h10.41.740,Colour_Asymmetry_Pilot,2022.1.3,Win32,71.94244604,62bbe60bf3d75ef465d3e404,0,65,65,15,1,fourthree,,,,,,,,,,,,,,,,,,,,,,,,,,,,,,,,,,,,,,,,,,,,,,,,,,,,,,,,,,,,,,,,,,,,,,,,,,,,,,,,,,,,,,,,,,,,,,,,,,,,,,,,,,,,,,,,,,,,,,,,,,,,,,,,,,,,,,,,,,,,,,,,,,,,,,,,
,,,,,,5d596938a0c0940001a47291,62bbfaa97d44554892e31c9c,2022-06-29_10h10.41.740,Colour_Asymmetry_Pilot,2022.1.3,Win32,71.94244604,62bbe60bf3d75ef465d3e404,0,66,66,100,1,threeone,,,,,,,,,,,,,,,,,,,,,,,,,,,,,,,,,,,,,,,,,,,,,,,,,,,,,,,,,,,,,,,,,,,,,,,,,,,,,,,,,,,,,,,,,,,,,,,,,,,,,,,,,,,,,,,,,,,,,,,,,,,,,,,,,,,,,,,,,,,,,,,,,,,,,,,,
,,,,,,5d596938a0c0940001a47291,62bbfaa97d44554892e31c9c,2022-06-29_10h10.41.740,Colour_Asymmetry_Pilot,2022.1.3,Win32,71.94244604,62bbe60bf3d75ef465d3e404,0,67,67,64,1,onetwo,,,,,,,,,,,,,,,,,,,,,,,,,,,,,,,,,,,,,,,,,,,,,,,,,,,,,,,,,,,,,,,,,,,,,,,,,,,,,,,,,,,,,,,,,,,,,,,,,,,,,,,,,,,,,,,,,,,,,,,,,,,,,,,,,,,,,,,,,,,,,,,,,,,,,,,,
,,,,,,5d596938a0c0940001a47291,62bbfaa97d44554892e31c9c,2022-06-29_10h10.41.740,Colour_Asymmetry_Pilot,2022.1.3,Win32,71.94244604,62bbe60bf3d75ef465d3e404,0,68,68,45,1,threefour,,,,,,,,,,,,,,,,,,,,,,,,,,,,,,,,,,,,,,,,,,,,,,,,,,,,,,,,,,,,,,,,,,,,,,,,,,,,,,,,,,,,,,,,,,,,,,,,,,,,,,,,,,,,,,,,,,,,,,,,,,,,,,,,,,,,,,,,,,,,,,,,,,,,,,,,
,,,,,,5d596938a0c0940001a47291,62bbfaa97d44554892e31c9c,2022-06-29_10h10.41.740,Colour_Asymmetry_Pilot,2022.1.3,Win32,71.94244604,62bbe60bf3d75ef465d3e404,0,69,69,92,1,threeone,,,,,,,,,,,,,,,,,,,,,,,,,,,,,,,,,,,,,,,,,,,,,,,,,,,,,,,,,,,,,,,,,,,,,,,,,,,,,,,,,,,,,,,,,,,,,,,,,,,,,,,,,,,,,,,,,,,,,,,,,,,,,,,,,,,,,,,,,,,,,,,,,,,,,,,,
,,,,,,5d596938a0c0940001a47291,62bbfaa97d44554892e31c9c,2022-06-29_10h10.41.740,Colour_Asymmetry_Pilot,2022.1.3,Win32,71.94244604,62bbe60bf3d75ef465d3e404,0,70,70,42,1,twoone,,,,,,,,,,,,,,,,,,,,,,,,,,,,,,,,,,,,,,,,,,,,,,,,,,,,,,,,,,,,,,,,,,,,,,,,,,,,,,,,,,,,,,,,,,,,,,,,,,,,,,,,,,,,,,,,,,,,,,,,,,,,,,,,,,,,,,,,,,,,,,,,,,,,,,,,
,,,,,,5d596938a0c0940001a47291,62bbfaa97d44554892e31c9c,2022-06-29_10h10.41.740,Colour_Asymmetry_Pilot,2022.1.3,Win32,71.94244604,62bbe60bf3d75ef465d3e404,0,71,71,111,1,fourthree,,,,,,,,,,,,,,,,,,,,,,,,,,,,,,,,,,,,,,,,,,,,,,,,,,,,,,,,,,,,,,,,,,,,,,,,,,,,,,,,,,,,,,,,,,,,,,,,,,,,,,,,,,,,,,,,,,,,,,,,,,,,,,,,,,,,,,,,,,,,,,,,,,,,,,,,
,,,,,,5d596938a0c0940001a47291,62bbfaa97d44554892e31c9c,2022-06-29_10h10.41.740,Colour_Asymmetry_Pilot,2022.1.3,Win32,71.94244604,62bbe60bf3d75ef465d3e404,0,72,72,153,1,onethree,,,,,,,,,,,,,,,,,,,,,,,,,,,,,,,,,,,,,,,,,,,,,,,,,,,,,,,,,,,,,,,,,,,,,,,,,,,,,,,,,,,,,,,,,,,,,,,,,,,,,,,,,,,,,,,,,,,,,,,,,,,,,,,,,,,,,,,,,,,,,,,,,,,,,,,,
,,,,,,5d596938a0c0940001a47291,62bbfaa97d44554892e31c9c,2022-06-29_10h10.41.740,Colour_Asymmetry_Pilot,2022.1.3,Win32,71.94244604,62bbe60bf3d75ef465d3e404,0,73,73,39,1,fourthree,,,,,,,,,,,,,,,,,,,,,,,,,,,,,,,,,,,,,,,,,,,,,,,,,,,,,,,,,,,,,,,,,,,,,,,,,,,,,,,,,,,,,,,,,,,,,,,,,,,,,,,,,,,,,,,,,,,,,,,,,,,,,,,,,,,,,,,,,,,,,,,,,,,,,,,,
,,,,,,5d596938a0c0940001a47291,62bbfaa97d44554892e31c9c,2022-06-29_10h10.41.740,Colour_Asymmetry_Pilot,2022.1.3,Win32,71.94244604,62bbe60bf3d75ef465d3e404,0,74,74,161,1,onethree,,,,,,,,,,,,,,,,,,,,,,,,,,,,,,,,,,,,,,,,,,,,,,,,,,,,,,,,,,,,,,,,,,,,,,,,,,,,,,,,,,,,,,,,,,,,,,,,,,,,,,,,,,,,,,,,,,,,,,,,,,,,,,,,,,,,,,,,,,,,,,,,,,,,,,,,
,,,,,,5d596938a0c0940001a47291,62bbfaa97d44554892e31c9c,2022-06-29_10h10.41.740,Colour_Asymmetry_Pilot,2022.1.3,Win32,71.94244604,62bbe60bf3d75ef465d3e404,0,75,75,151,1,fourthree,,,,,,,,,,,,,,,,,,,,,,,,,,,,,,,,,,,,,,,,,,,,,,,,,,,,,,,,,,,,,,,,,,,,,,,,,,,,,,,,,,,,,,,,,,,,,,,,,,,,,,,,,,,,,,,,,,,,,,,,,,,,,,,,,,,,,,,,,,,,,,,,,,,,,,,,
,,,,,,5d596938a0c0940001a47291,62bbfaa97d44554892e31c9c,2022-06-29_10h10.41.740,Colour_Asymmetry_Pilot,2022.1.3,Win32,71.94244604,62bbe60bf3d75ef465d3e404,0,76,76,95,1,fourthree,,,,,,,,,,,,,,,,,,,,,,,,,,,,,,,,,,,,,,,,,,,,,,,,,,,,,,,,,,,,,,,,,,,,,,,,,,,,,,,,,,,,,,,,,,,,,,,,,,,,,,,,,,,,,,,,,,,,,,,,,,,,,,,,,,,,,,,,,,,,,,,,,,,,,,,,
,,,,,,5d596938a0c0940001a47291,62bbfaa97d44554892e31c9c,2022-06-29_10h10.41.740,Colour_Asymmetry_Pilot,2022.1.3,Win32,71.94244604,62bbe60bf3d75ef465d3e404,0,77,77,51,1,twofour,,,,,,,,,,,,,,,,,,,,,,,,,,,,,,,,,,,,,,,,,,,,,,,,,,,,,,,,,,,,,,,,,,,,,,,,,,,,,,,,,,,,,,,,,,,,,,,,,,,,,,,,,,,,,,,,,,,,,,,,,,,,,,,,,,,,,,,,,,,,,,,,,,,,,,,,
,,,,,,5d596938a0c0940001a47291,62bbfaa97d44554892e31c9c,2022-06-29_10h10.41.740,Colour_Asymmetry_Pilot,2022.1.3,Win32,71.94244604,62bbe60bf3d75ef465d3e404,0,78,78,113,1,onethree,,,,,,,,,,,,,,,,,,,,,,,,,,,,,,,,,,,,,,,,,,,,,,,,,,,,,,,,,,,,,,,,,,,,,,,,,,,,,,,,,,,,,,,,,,,,,,,,,,,,,,,,,,,,,,,,,,,,,,,,,,,,,,,,,,,,,,,,,,,,,,,,,,,,,,,,
,,,,,,5d596938a0c0940001a47291,62bbfaa97d44554892e31c9c,2022-06-29_10h10.41.740,Colour_Asymmetry_Pilot,2022.1.3,Win32,71.94244604,62bbe60bf3d75ef465d3e404,0,79,79,133,1,threefour,,,,,,,,,,,,,,,,,,,,,,,,,,,,,,,,,,,,,,,,,,,,,,,,,,,,,,,,,,,,,,,,,,,,,,,,,,,,,,,,,,,,,,,,,,,,,,,,,,,,,,,,,,,,,,,,,,,,,,,,,,,,,,,,,,,,,,,,,,,,,,,,,,,,,,,,
,,,,,,5d596938a0c0940001a47291,62bbfaa97d44554892e31c9c,2022-06-29_10h10.41.740,Colour_Asymmetry_Pilot,2022.1.3,Win32,71.94244604,62bbe60bf3d75ef465d3e404,0,80,80,98,1,twoone,,,,,,,,,,,,,,,,,,,,,,,,,,,,,,,,,,,,,,,,,,,,,,,,,,,,,,,,,,,,,,,,,,,,,,,,,,,,,,,,,,,,,,,,,,,,,,,,,,,,,,,,,,,,,,,,,,,,,,,,,,,,,,,,,,,,,,,,,,,,,,,,,,,,,,,,
,,,,,,5d596938a0c0940001a47291,62bbfaa97d44554892e31c9c,2022-06-29_10h10.41.740,Colour_Asymmetry_Pilot,2022.1.3,Win32,71.94244604,62bbe60bf3d75ef465d3e404,0,81,81,74,1,twoone,,,,,,,,,,,,,,,,,,,,,,,,,,,,,,,,,,,,,,,,,,,,,,,,,,,,,,,,,,,,,,,,,,,,,,,,,,,,,,,,,,,,,,,,,,,,,,,,,,,,,,,,,,,,,,,,,,,,,,,,,,,,,,,,,,,,,,,,,,,,,,,,,,,,,,,,
,,,,,,5d596938a0c0940001a47291,62bbfaa97d44554892e31c9c,2022-06-29_10h10.41.740,Colour_Asymmetry_Pilot,2022.1.3,Win32,71.94244604,62bbe60bf3d75ef465d3e404,0,82,82,76,1,threeone,,,,,,,,,,,,,,,,,,,,,,,,,,,,,,,,,,,,,,,,,,,,,,,,,,,,,,,,,,,,,,,,,,,,,,,,,,,,,,,,,,,,,,,,,,,,,,,,,,,,,,,,,,,,,,,,,,,,,,,,,,,,,,,,,,,,,,,,,,,,,,,,,,,,,,,,
,,,,,,5d596938a0c0940001a47291,62bbfaa97d44554892e31c9c,2022-06-29_10h10.41.740,Colour_Asymmetry_Pilot,2022.1.3,Win32,71.94244604,62bbe60bf3d75ef465d3e404,0,83,83,61,1,threefour,,,,,,,,,,,,,,,,,,,,,,,,,,,,,,,,,,,,,,,,,,,,,,,,,,,,,,,,,,,,,,,,,,,,,,,,,,,,,,,,,,,,,,,,,,,,,,,,,,,,,,,,,,,,,,,,,,,,,,,,,,,,,,,,,,,,,,,,,,,,,,,,,,,,,,,,
,,,,,,5d596938a0c0940001a47291,62bbfaa97d44554892e31c9c,2022-06-29_10h10.41.740,Colour_Asymmetry_Pilot,2022.1.3,Win32,71.94244604,62bbe60bf3d75ef465d3e404,0,84,84,126,1,fourtwo,,,,,,,,,,,,,,,,,,,,,,,,,,,,,,,,,,,,,,,,,,,,,,,,,,,,,,,,,,,,,,,,,,,,,,,,,,,,,,,,,,,,,,,,,,,,,,,,,,,,,,,,,,,,,,,,,,,,,,,,,,,,,,,,,,,,,,,,,,,,,,,,,,,,,,,,
,,,,,,5d596938a0c0940001a47291,62bbfaa97d44554892e31c9c,2022-06-29_10h10.41.740,Colour_Asymmetry_Pilot,2022.1.3,Win32,71.94244604,62bbe60bf3d75ef465d3e404,0,85,85,66,1,twoone,,,,,,,,,,,,,,,,,,,,,,,,,,,,,,,,,,,,,,,,,,,,,,,,,,,,,,,,,,,,,,,,,,,,,,,,,,,,,,,,,,,,,,,,,,,,,,,,,,,,,,,,,,,,,,,,,,,,,,,,,,,,,,,,,,,,,,,,,,,,,,,,,,,,,,,,
,,,,,,5d596938a0c0940001a47291,62bbfaa97d44554892e31c9c,2022-06-29_10h10.41.740,Colour_Asymmetry_Pilot,2022.1.3,Win32,71.94244604,62bbe60bf3d75ef465d3e404,0,86,86,20,1,threeone,,,,,,,,,,,,,,,,,,,,,,,,,,,,,,,,,,,,,,,,,,,,,,,,,,,,,,,,,,,,,,,,,,,,,,,,,,,,,,,,,,,,,,,,,,,,,,,,,,,,,,,,,,,,,,,,,,,,,,,,,,,,,,,,,,,,,,,,,,,,,,,,,,,,,,,,
,,,,,,5d596938a0c0940001a47291,62bbfaa97d44554892e31c9c,2022-06-29_10h10.41.740,Colour_Asymmetry_Pilot,2022.1.3,Win32,71.94244604,62bbe60bf3d75ef465d3e404,0,87,87,149,1,threefour,,,,,,,,,,,,,,,,,,,,,,,,,,,,,,,,,,,,,,,,,,,,,,,,,,,,,,,,,,,,,,,,,,,,,,,,,,,,,,,,,,,,,,,,,,,,,,,,,,,,,,,,,,,,,,,,,,,,,,,,,,,,,,,,,,,,,,,,,,,,,,,,,,,,,,,,
,,,,,,5d596938a0c0940001a47291,62bbfaa97d44554892e31c9c,2022-06-29_10h10.41.740,Colour_Asymmetry_Pilot,2022.1.3,Win32,71.94244604,62bbe60bf3d75ef465d3e404,0,88,88,148,1,threeone,,,,,,,,,,,,,,,,,,,,,,,,,,,,,,,,,,,,,,,,,,,,,,,,,,,,,,,,,,,,,,,,,,,,,,,,,,,,,,,,,,,,,,,,,,,,,,,,,,,,,,,,,,,,,,,,,,,,,,,,,,,,,,,,,,,,,,,,,,,,,,,,,,,,,,,,
,,,,,,5d596938a0c0940001a47291,62bbfaa97d44554892e31c9c,2022-06-29_10h10.41.740,Colour_Asymmetry_Pilot,2022.1.3,Win32,71.94244604,62bbe60bf3d75ef465d3e404,0,89,89,68,1,threeone,,,,,,,,,,,,,,,,,,,,,,,,,,,,,,,,,,,,,,,,,,,,,,,,,,,,,,,,,,,,,,,,,,,,,,,,,,,,,,,,,,,,,,,,,,,,,,,,,,,,,,,,,,,,,,,,,,,,,,,,,,,,,,,,,,,,,,,,,,,,,,,,,,,,,,,,
,,,,,,5d596938a0c0940001a47291,62bbfaa97d44554892e31c9c,2022-06-29_10h10.41.740,Colour_Asymmetry_Pilot,2022.1.3,Win32,71.94244604,62bbe60bf3d75ef465d3e404,0,90,90,130,1,twoone,,,,,,,,,,,,,,,,,,,,,,,,,,,,,,,,,,,,,,,,,,,,,,,,,,,,,,,,,,,,,,,,,,,,,,,,,,,,,,,,,,,,,,,,,,,,,,,,,,,,,,,,,,,,,,,,,,,,,,,,,,,,,,,,,,,,,,,,,,,,,,,,,,,,,,,,
,,,,,,5d596938a0c0940001a47291,62bbfaa97d44554892e31c9c,2022-06-29_10h10.41.740,Colour_Asymmetry_Pilot,2022.1.3,Win32,71.94244604,62bbe60bf3d75ef465d3e404,0,91,91,122,1,twoone,,,,,,,,,,,,,,,,,,,,,,,,,,,,,,,,,,,,,,,,,,,,,,,,,,,,,,,,,,,,,,,,,,,,,,,,,,,,,,,,,,,,,,,,,,,,,,,,,,,,,,,,,,,,,,,,,,,,,,,,,,,,,,,,,,,,,,,,,,,,,,,,,,,,,,,,
,,,,,,5d596938a0c0940001a47291,62bbfaa97d44554892e31c9c,2022-06-29_10h10.41.740,Colour_Asymmetry_Pilot,2022.1.3,Win32,71.94244604,62bbe60bf3d75ef465d3e404,0,92,92,4,1,threeone,,,,,,,,,,,,,,,,,,,,,,,,,,,,,,,,,,,,,,,,,,,,,,,,,,,,,,,,,,,,,,,,,,,,,,,,,,,,,,,,,,,,,,,,,,,,,,,,,,,,,,,,,,,,,,,,,,,,,,,,,,,,,,,,,,,,,,,,,,,,,,,,,,,,,,,,
,,,,,,5d596938a0c0940001a47291,62bbfaa97d44554892e31c9c,2022-06-29_10h10.41.740,Colour_Asymmetry_Pilot,2022.1.3,Win32,71.94244604,62bbe60bf3d75ef465d3e404,0,93,93,84,1,threeone,,,,,,,,,,,,,,,,,,,,,,,,,,,,,,,,,,,,,,,,,,,,,,,,,,,,,,,,,,,,,,,,,,,,,,,,,,,,,,,,,,,,,,,,,,,,,,,,,,,,,,,,,,,,,,,,,,,,,,,,,,,,,,,,,,,,,,,,,,,,,,,,,,,,,,,,
,,,,,,5d596938a0c0940001a47291,62bbfaa97d44554892e31c9c,2022-06-29_10h10.41.740,Colour_Asymmetry_Pilot,2022.1.3,Win32,71.94244604,62bbe60bf3d75ef465d3e404,0,94,94,53,1,threefour,,,,,,,,,,,,,,,,,,,,,,,,,,,,,,,,,,,,,,,,,,,,,,,,,,,,,,,,,,,,,,,,,,,,,,,,,,,,,,,,,,,,,,,,,,,,,,,,,,,,,,,,,,,,,,,,,,,,,,,,,,,,,,,,,,,,,,,,,,,,,,,,,,,,,,,,
,,,,,,5d596938a0c0940001a47291,62bbfaa97d44554892e31c9c,2022-06-29_10h10.41.740,Colour_Asymmetry_Pilot,2022.1.3,Win32,71.94244604,62bbe60bf3d75ef465d3e404,0,95,95,32,1,onetwo,,,,,,,,,,,,,,,,,,,,,,,,,,,,,,,,,,,,,,,,,,,,,,,,,,,,,,,,,,,,,,,,,,,,,,,,,,,,,,,,,,,,,,,,,,,,,,,,,,,,,,,,,,,,,,,,,,,,,,,,,,,,,,,,,,,,,,,,,,,,,,,,,,,,,,,,
,,,,,,5d596938a0c0940001a47291,62bbfaa97d44554892e31c9c,2022-06-29_10h10.41.740,Colour_Asymmetry_Pilot,2022.1.3,Win32,71.94244604,62bbe60bf3d75ef465d3e404,0,96,96,19,1,twofour,,,,,,,,,,,,,,,,,,,,,,,,,,,,,,,,,,,,,,,,,,,,,,,,,,,,,,,,,,,,,,,,,,,,,,,,,,,,,,,,,,,,,,,,,,,,,,,,,,,,,,,,,,,,,,,,,,,,,,,,,,,,,,,,,,,,,,,,,,,,,,,,,,,,,,,,
,,,,,,5d596938a0c0940001a47291,62bbfaa97d44554892e31c9c,2022-06-29_10h10.41.740,Colour_Asymmetry_Pilot,2022.1.3,Win32,71.94244604,62bbe60bf3d75ef465d3e404,0,97,97,60,1,threeone,,,,,,,,,,,,,,,,,,,,,,,,,,,,,,,,,,,,,,,,,,,,,,,,,,,,,,,,,,,,,,,,,,,,,,,,,,,,,,,,,,,,,,,,,,,,,,,,,,,,,,,,,,,,,,,,,,,,,,,,,,,,,,,,,,,,,,,,,,,,,,,,,,,,,,,,
,,,,,,5d596938a0c0940001a47291,62bbfaa97d44554892e31c9c,2022-06-29_10h10.41.740,Colour_Asymmetry_Pilot,2022.1.3,Win32,71.94244604,62bbe60bf3d75ef465d3e404,0,98,98,124,1,threeone,,,,,,,,,,,,,,,,,,,,,,,,,,,,,,,,,,,,,,,,,,,,,,,,,,,,,,,,,,,,,,,,,,,,,,,,,,,,,,,,,,,,,,,,,,,,,,,,,,,,,,,,,,,,,,,,,,,,,,,,,,,,,,,,,,,,,,,,,,,,,,,,,,,,,,,,
,,,,,,5d596938a0c0940001a47291,62bbfaa97d44554892e31c9c,2022-06-29_10h10.41.740,Colour_Asymmetry_Pilot,2022.1.3,Win32,71.94244604,62bbe60bf3d75ef465d3e404,0,99,99,101,1,threefour,,,,,,,,,,,,,,,,,,,,,,,,,,,,,,,,,,,,,,,,,,,,,,,,,,,,,,,,,,,,,,,,,,,,,,,,,,,,,,,,,,,,,,,,,,,,,,,,,,,,,,,,,,,,,,,,,,,,,,,,,,,,,,,,,,,,,,,,,,,,,,,,,,,,,,,,
,,,,,,5d596938a0c0940001a47291,62bbfaa97d44554892e31c9c,2022-06-29_10h10.41.740,Colour_Asymmetry_Pilot,2022.1.3,Win32,71.94244604,62bbe60bf3d75ef465d3e404,0,100,100,6,1,fourtwo,,,,,,,,,,,,,,,,,,,,,,,,,,,,,,,,,,,,,,,,,,,,,,,,,,,,,,,,,,,,,,,,,,,,,,,,,,,,,,,,,,,,,,,,,,,,,,,,,,,,,,,,,,,,,,,,,,,,,,,,,,,,,,,,,,,,,,,,,,,,,,,,,,,,,,,,
,,,,,,5d596938a0c0940001a47291,62bbfaa97d44554892e31c9c,2022-06-29_10h10.41.740,Colour_Asymmetry_Pilot,2022.1.3,Win32,71.94244604,62bbe60bf3d75ef465d3e404,0,101,101,120,1,onetwo,,,,,,,,,,,,,,,,,,,,,,,,,,,,,,,,,,,,,,,,,,,,,,,,,,,,,,,,,,,,,,,,,,,,,,,,,,,,,,,,,,,,,,,,,,,,,,,,,,,,,,,,,,,,,,,,,,,,,,,,,,,,,,,,,,,,,,,,,,,,,,,,,,,,,,,,
,,,,,,5d596938a0c0940001a47291,62bbfaa97d44554892e31c9c,2022-06-29_10h10.41.740,Colour_Asymmetry_Pilot,2022.1.3,Win32,71.94244604,62bbe60bf3d75ef465d3e404,0,102,102,41,1,onethree,,,,,,,,,,,,,,,,,,,,,,,,,,,,,,,,,,,,,,,,,,,,,,,,,,,,,,,,,,,,,,,,,,,,,,,,,,,,,,,,,,,,,,,,,,,,,,,,,,,,,,,,,,,,,,,,,,,,,,,,,,,,,,,,,,,,,,,,,,,,,,,,,,,,,,,,
,,,,,,5d596938a0c0940001a47291,62bbfaa97d44554892e31c9c,2022-06-29_10h10.41.740,Colour_Asymmetry_Pilot,2022.1.3,Win32,71.94244604,62bbe60bf3d75ef465d3e404,0,103,103,115,1,twofour,,,,,,,,,,,,,,,,,,,,,,,,,,,,,,,,,,,,,,,,,,,,,,,,,,,,,,,,,,,,,,,,,,,,,,,,,,,,,,,,,,,,,,,,,,,,,,,,,,,,,,,,,,,,,,,,,,,,,,,,,,,,,,,,,,,,,,,,,,,,,,,,,,,,,,,,
,,,,,,5d596938a0c0940001a47291,62bbfaa97d44554892e31c9c,2022-06-29_10h10.41.740,Colour_Asymmetry_Pilot,2022.1.3,Win32,71.94244604,62bbe60bf3d75ef465d3e404,0,104,104,83,1,twofour,,,,,,,,,,,,,,,,,,,,,,,,,,,,,,,,,,,,,,,,,,,,,,,,,,,,,,,,,,,,,,,,,,,,,,,,,,,,,,,,,,,,,,,,,,,,,,,,,,,,,,,,,,,,,,,,,,,,,,,,,,,,,,,,,,,,,,,,,,,,,,,,,,,,,,,,
,,,,,,5d596938a0c0940001a47291,62bbfaa97d44554892e31c9c,2022-06-29_10h10.41.740,Colour_Asymmetry_Pilot,2022.1.3,Win32,71.94244604,62bbe60bf3d75ef465d3e404,0,105,105,104,1,onetwo,,,,,,,,,,,,,,,,,,,,,,,,,,,,,,,,,,,,,,,,,,,,,,,,,,,,,,,,,,,,,,,,,,,,,,,,,,,,,,,,,,,,,,,,,,,,,,,,,,,,,,,,,,,,,,,,,,,,,,,,,,,,,,,,,,,,,,,,,,,,,,,,,,,,,,,,
,,,,,,5d596938a0c0940001a47291,62bbfaa97d44554892e31c9c,2022-06-29_10h10.41.740,Colour_Asymmetry_Pilot,2022.1.3,Win32,71.94244604,62bbe60bf3d75ef465d3e404,0,106,106,22,1,fourtwo,,,,,,,,,,,,,,,,,,,,,,,,,,,,,,,,,,,,,,,,,,,,,,,,,,,,,,,,,,,,,,,,,,,,,,,,,,,,,,,,,,,,,,,,,,,,,,,,,,,,,,,,,,,,,,,,,,,,,,,,,,,,,,,,,,,,,,,,,,,,,,,,,,,,,,,,
,,,,,,5d596938a0c0940001a47291,62bbfaa97d44554892e31c9c,2022-06-29_10h10.41.740,Colour_Asymmetry_Pilot,2022.1.3,Win32,71.94244604,62bbe60bf3d75ef465d3e404,0,107,107,44,1,threeone,,,,,,,,,,,,,,,,,,,,,,,,,,,,,,,,,,,,,,,,,,,,,,,,,,,,,,,,,,,,,,,,,,,,,,,,,,,,,,,,,,,,,,,,,,,,,,,,,,,,,,,,,,,,,,,,,,,,,,,,,,,,,,,,,,,,,,,,,,,,,,,,,,,,,,,,
,,,,,,5d596938a0c0940001a47291,62bbfaa97d44554892e31c9c,2022-06-29_10h10.41.740,Colour_Asymmetry_Pilot,2022.1.3,Win32,71.94244604,62bbe60bf3d75ef465d3e404,0,108,108,31,1,fourthree,,,,,,,,,,,,,,,,,,,,,,,,,,,,,,,,,,,,,,,,,,,,,,,,,,,,,,,,,,,,,,,,,,,,,,,,,,,,,,,,,,,,,,,,,,,,,,,,,,,,,,,,,,,,,,,,,,,,,,,,,,,,,,,,,,,,,,,,,,,,,,,,,,,,,,,,
,,,,,,5d596938a0c0940001a47291,62bbfaa97d44554892e31c9c,2022-06-29_10h10.41.740,Colour_Asymmetry_Pilot,2022.1.3,Win32,71.94244604,62bbe60bf3d75ef465d3e404,0,109,109,75,1,twofour,,,,,,,,,,,,,,,,,,,,,,,,,,,,,,,,,,,,,,,,,,,,,,,,,,,,,,,,,,,,,,,,,,,,,,,,,,,,,,,,,,,,,,,,,,,,,,,,,,,,,,,,,,,,,,,,,,,,,,,,,,,,,,,,,,,,,,,,,,,,,,,,,,,,,,,,
,,,,,,5d596938a0c0940001a47291,62bbfaa97d44554892e31c9c,2022-06-29_10h10.41.740,Colour_Asymmetry_Pilot,2022.1.3,Win32,71.94244604,62bbe60bf3d75ef465d3e404,0,110,110,128,1,onetwo,,,,,,,,,,,,,,,,,,,,,,,,,,,,,,,,,,,,,,,,,,,,,,,,,,,,,,,,,,,,,,,,,,,,,,,,,,,,,,,,,,,,,,,,,,,,,,,,,,,,,,,,,,,,,,,,,,,,,,,,,,,,,,,,,,,,,,,,,,,,,,,,,,,,,,,,
,,,,,,5d596938a0c0940001a47291,62bbfaa97d44554892e31c9c,2022-06-29_10h10.41.740,Colour_Asymmetry_Pilot,2022.1.3,Win32,71.94244604,62bbe60bf3d75ef465d3e404,0,111,111,52,1,threeone,,,,,,,,,,,,,,,,,,,,,,,,,,,,,,,,,,,,,,,,,,,,,,,,,,,,,,,,,,,,,,,,,,,,,,,,,,,,,,,,,,,,,,,,,,,,,,,,,,,,,,,,,,,,,,,,,,,,,,,,,,,,,,,,,,,,,,,,,,,,,,,,,,,,,,,,
,,,,,,5d596938a0c0940001a47291,62bbfaa97d44554892e31c9c,2022-06-29_10h10.41.740,Colour_Asymmetry_Pilot,2022.1.3,Win32,71.94244604,62bbe60bf3d75ef465d3e404,0,112,112,85,1,threefour,,,,,,,,,,,,,,,,,,,,,,,,,,,,,,,,,,,,,,,,,,,,,,,,,,,,,,,,,,,,,,,,,,,,,,,,,,,,,,,,,,,,,,,,,,,,,,,,,,,,,,,,,,,,,,,,,,,,,,,,,,,,,,,,,,,,,,,,,,,,,,,,,,,,,,,,
,,,,,,5d596938a0c0940001a47291,62bbfaa97d44554892e31c9c,2022-06-29_10h10.41.740,Colour_Asymmetry_Pilot,2022.1.3,Win32,71.94244604,62bbe60bf3d75ef465d3e404,0,113,113,33,1,onethree,,,,,,,,,,,,,,,,,,,,,,,,,,,,,,,,,,,,,,,,,,,,,,,,,,,,,,,,,,,,,,,,,,,,,,,,,,,,,,,,,,,,,,,,,,,,,,,,,,,,,,,,,,,,,,,,,,,,,,,,,,,,,,,,,,,,,,,,,,,,,,,,,,,,,,,,
,,,,,,5d596938a0c0940001a47291,62bbfaa97d44554892e31c9c,2022-06-29_10h10.41.740,Colour_Asymmetry_Pilot,2022.1.3,Win32,71.94244604,62bbe60bf3d75ef465d3e404,0,114,114,146,1,twoone,,,,,,,,,,,,,,,,,,,,,,,,,,,,,,,,,,,,,,,,,,,,,,,,,,,,,,,,,,,,,,,,,,,,,,,,,,,,,,,,,,,,,,,,,,,,,,,,,,,,,,,,,,,,,,,,,,,,,,,,,,,,,,,,,,,,,,,,,,,,,,,,,,,,,,,,
,,,,,,5d596938a0c0940001a47291,62bbfaa97d44554892e31c9c,2022-06-29_10h10.41.740,Colour_Asymmetry_Pilot,2022.1.3,Win32,71.94244604,62bbe60bf3d75ef465d3e404,0,115,115,80,1,onetwo,,,,,,,,,,,,,,,,,,,,,,,,,,,,,,,,,,,,,,,,,,,,,,,,,,,,,,,,,,,,,,,,,,,,,,,,,,,,,,,,,,,,,,,,,,,,,,,,,,,,,,,,,,,,,,,,,,,,,,,,,,,,,,,,,,,,,,,,,,,,,,,,,,,,,,,,
,,,,,,5d596938a0c0940001a47291,62bbfaa97d44554892e31c9c,2022-06-29_10h10.41.740,Colour_Asymmetry_Pilot,2022.1.3,Win32,71.94244604,62bbe60bf3d75ef465d3e404,0,116,116,35,1,twofour,,,,,,,,,,,,,,,,,,,,,,,,,,,,,,,,,,,,,,,,,,,,,,,,,,,,,,,,,,,,,,,,,,,,,,,,,,,,,,,,,,,,,,,,,,,,,,,,,,,,,,,,,,,,,,,,,,,,,,,,,,,,,,,,,,,,,,,,,,,,,,,,,,,,,,,,
,,,,,,5d596938a0c0940001a47291,62bbfaa97d44554892e31c9c,2022-06-29_10h10.41.740,Colour_Asymmetry_Pilot,2022.1.3,Win32,71.94244604,62bbe60bf3d75ef465d3e404,0,117,117,131,1,twofour,,,,,,,,,,,,,,,,,,,,,,,,,,,,,,,,,,,,,,,,,,,,,,,,,,,,,,,,,,,,,,,,,,,,,,,,,,,,,,,,,,,,,,,,,,,,,,,,,,,,,,,,,,,,,,,,,,,,,,,,,,,,,,,,,,,,,,,,,,,,,,,,,,,,,,,,
,,,,,,5d596938a0c0940001a47291,62bbfaa97d44554892e31c9c,2022-06-29_10h10.41.740,Colour_Asymmetry_Pilot,2022.1.3,Win32,71.94244604,62bbe60bf3d75ef465d3e404,0,118,118,139,1,twofour,,,,,,,,,,,,,,,,,,,,,,,,,,,,,,,,,,,,,,,,,,,,,,,,,,,,,,,,,,,,,,,,,,,,,,,,,,,,,,,,,,,,,,,,,,,,,,,,,,,,,,,,,,,,,,,,,,,,,,,,,,,,,,,,,,,,,,,,,,,,,,,,,,,,,,,,
,,,,,,5d596938a0c0940001a47291,62bbfaa97d44554892e31c9c,2022-06-29_10h10.41.740,Colour_Asymmetry_Pilot,2022.1.3,Win32,71.94244604,62bbe60bf3d75ef465d3e404,0,119,119,23,1,fourthree,,,,,,,,,,,,,,,,,,,,,,,,,,,,,,,,,,,,,,,,,,,,,,,,,,,,,,,,,,,,,,,,,,,,,,,,,,,,,,,,,,,,,,,,,,,,,,,,,,,,,,,,,,,,,,,,,,,,,,,,,,,,,,,,,,,,,,,,,,,,,,,,,,,,,,,,
,,,,,,5d596938a0c0940001a47291,62bbfaa97d44554892e31c9c,2022-06-29_10h10.41.740,Colour_Asymmetry_Pilot,2022.1.3,Win32,71.94244604,62bbe60bf3d75ef465d3e404,0,120,120,0,1,onetwo,,,,,,,,,,,,,,,,,,,,,,,,,,,,,,,,,,,,,,,,,,,,,,,,,,,,,,,,,,,,,,,,,,,,,,,,,,,,,,,,,,,,,,,,,,,,,,,,,,,,,,,,,,,,,,,,,,,,,,,,,,,,,,,,,,,,,,,,,,,,,,,,,,,,,,,,
,,,,,,5d596938a0c0940001a47291,62bbfaa97d44554892e31c9c,2022-06-29_10h10.41.740,Colour_Asymmetry_Pilot,2022.1.3,Win32,71.94244604,62bbe60bf3d75ef465d3e404,0,121,121,54,1,fourtwo,,,,,,,,,,,,,,,,,,,,,,,,,,,,,,,,,,,,,,,,,,,,,,,,,,,,,,,,,,,,,,,,,,,,,,,,,,,,,,,,,,,,,,,,,,,,,,,,,,,,,,,,,,,,,,,,,,,,,,,,,,,,,,,,,,,,,,,,,,,,,,,,,,,,,,,,
,,,,,,5d596938a0c0940001a47291,62bbfaa97d44554892e31c9c,2022-06-29_10h10.41.740,Colour_Asymmetry_Pilot,2022.1.3,Win32,71.94244604,62bbe60bf3d75ef465d3e404,0,122,122,28,1,threeone,,,,,,,,,,,,,,,,,,,,,,,,,,,,,,,,,,,,,,,,,,,,,,,,,,,,,,,,,,,,,,,,,,,,,,,,,,,,,,,,,,,,,,,,,,,,,,,,,,,,,,,,,,,,,,,,,,,,,,,,,,,,,,,,,,,,,,,,,,,,,,,,,,,,,,,,
,,,,,,5d596938a0c0940001a47291,62bbfaa97d44554892e31c9c,2022-06-29_10h10.41.740,Colour_Asymmetry_Pilot,2022.1.3,Win32,71.94244604,62bbe60bf3d75ef465d3e404,0,123,123,97,1,onethree,,,,,,,,,,,,,,,,,,,,,,,,,,,,,,,,,,,,,,,,,,,,,,,,,,,,,,,,,,,,,,,,,,,,,,,,,,,,,,,,,,,,,,,,,,,,,,,,,,,,,,,,,,,,,,,,,,,,,,,,,,,,,,,,,,,,,,,,,,,,,,,,,,,,,,,,
,,,,,,5d596938a0c0940001a47291,62bbfaa97d44554892e31c9c,2022-06-29_10h10.41.740,Colour_Asymmetry_Pilot,2022.1.3,Win32,71.94244604,62bbe60bf3d75ef465d3e404,0,124,124,143,1,fourthree,,,,,,,,,,,,,,,,,,,,,,,,,,,,,,,,,,,,,,,,,,,,,,,,,,,,,,,,,,,,,,,,,,,,,,,,,,,,,,,,,,,,,,,,,,,,,,,,,,,,,,,,,,,,,,,,,,,,,,,,,,,,,,,,,,,,,,,,,,,,,,,,,,,,,,,,
,,,,,,5d596938a0c0940001a47291,62bbfaa97d44554892e31c9c,2022-06-29_10h10.41.740,Colour_Asymmetry_Pilot,2022.1.3,Win32,71.94244604,62bbe60bf3d75ef465d3e404,0,125,125,12,1,threeone,,,,,,,,,,,,,,,,,,,,,,,,,,,,,,,,,,,,,,,,,,,,,,,,,,,,,,,,,,,,,,,,,,,,,,,,,,,,,,,,,,,,,,,,,,,,,,,,,,,,,,,,,,,,,,,,,,,,,,,,,,,,,,,,,,,,,,,,,,,,,,,,,,,,,,,,
,,,,,,5d596938a0c0940001a47291,62bbfaa97d44554892e31c9c,2022-06-29_10h10.41.740,Colour_Asymmetry_Pilot,2022.1.3,Win32,71.94244604,62bbe60bf3d75ef465d3e404,0,126,126,89,1,onethree,,,,,,,,,,,,,,,,,,,,,,,,,,,,,,,,,,,,,,,,,,,,,,,,,,,,,,,,,,,,,,,,,,,,,,,,,,,,,,,,,,,,,,,,,,,,,,,,,,,,,,,,,,,,,,,,,,,,,,,,,,,,,,,,,,,,,,,,,,,,,,,,,,,,,,,,
,,,,,,5d596938a0c0940001a47291,62bbfaa97d44554892e31c9c,2022-06-29_10h10.41.740,Colour_Asymmetry_Pilot,2022.1.3,Win32,71.94244604,62bbe60bf3d75ef465d3e404,0,127,127,47,1,fourthree,,,,,,,,,,,,,,,,,,,,,,,,,,,,,,,,,,,,,,,,,,,,,,,,,,,,,,,,,,,,,,,,,,,,,,,,,,,,,,,,,,,,,,,,,,,,,,,,,,,,,,,,,,,,,,,,,,,,,,,,,,,,,,,,,,,,,,,,,,,,,,,,,,,,,,,,
,,,,,,5d596938a0c0940001a47291,62bbfaa97d44554892e31c9c,2022-06-29_10h10.41.740,Colour_Asymmetry_Pilot,2022.1.3,Win32,71.94244604,62bbe60bf3d75ef465d3e404,0,128,128,46,1,fourtwo,,,,,,,,,,,,,,,,,,,,,,,,,,,,,,,,,,,,,,,,,,,,,,,,,,,,,,,,,,,,,,,,,,,,,,,,,,,,,,,,,,,,,,,,,,,,,,,,,,,,,,,,,,,,,,,,,,,,,,,,,,,,,,,,,,,,,,,,,,,,,,,,,,,,,,,,
,,,,,,5d596938a0c0940001a47291,62bbfaa97d44554892e31c9c,2022-06-29_10h10.41.740,Colour_Asymmetry_Pilot,2022.1.3,Win32,71.94244604,62bbe60bf3d75ef465d3e404,0,129,129,127,1,fourthree,,,,,,,,,,,,,,,,,,,,,,,,,,,,,,,,,,,,,,,,,,,,,,,,,,,,,,,,,,,,,,,,,,,,,,,,,,,,,,,,,,,,,,,,,,,,,,,,,,,,,,,,,,,,,,,,,,,,,,,,,,,,,,,,,,,,,,,,,,,,,,,,,,,,,,,,
,,,,,,5d596938a0c0940001a47291,62bbfaa97d44554892e31c9c,2022-06-29_10h10.41.740,Colour_Asymmetry_Pilot,2022.1.3,Win32,71.94244604,62bbe60bf3d75ef465d3e404,0,130,130,82,1,twoone,,,,,,,,,,,,,,,,,,,,,,,,,,,,,,,,,,,,,,,,,,,,,,,,,,,,,,,,,,,,,,,,,,,,,,,,,,,,,,,,,,,,,,,,,,,,,,,,,,,,,,,,,,,,,,,,,,,,,,,,,,,,,,,,,,,,,,,,,,,,,,,,,,,,,,,,
,,,,,,5d596938a0c0940001a47291,62bbfaa97d44554892e31c9c,2022-06-29_10h10.41.740,Colour_Asymmetry_Pilot,2022.1.3,Win32,71.94244604,62bbe60bf3d75ef465d3e404,0,131,131,57,1,onethree,,,,,,,,,,,,,,,,,,,,,,,,,,,,,,,,,,,,,,,,,,,,,,,,,,,,,,,,,,,,,,,,,,,,,,,,,,,,,,,,,,,,,,,,,,,,,,,,,,,,,,,,,,,,,,,,,,,,,,,,,,,,,,,,,,,,,,,,,,,,,,,,,,,,,,,,
,,,,,,5d596938a0c0940001a47291,62bbfaa97d44554892e31c9c,2022-06-29_10h10.41.740,Colour_Asymmetry_Pilot,2022.1.3,Win32,71.94244604,62bbe60bf3d75ef465d3e404,0,132,132,129,1,onethree,,,,,,,,,,,,,,,,,,,,,,,,,,,,,,,,,,,,,,,,,,,,,,,,,,,,,,,,,,,,,,,,,,,,,,,,,,,,,,,,,,,,,,,,,,,,,,,,,,,,,,,,,,,,,,,,,,,,,,,,,,,,,,,,,,,,,,,,,,,,,,,,,,,,,,,,
,,,,,,5d596938a0c0940001a47291,62bbfaa97d44554892e31c9c,2022-06-29_10h10.41.740,Colour_Asymmetry_Pilot,2022.1.3,Win32,71.94244604,62bbe60bf3d75ef465d3e404,0,133,133,106,1,twoone,,,,,,,,,,,,,,,,,,,,,,,,,,,,,,,,,,,,,,,,,,,,,,,,,,,,,,,,,,,,,,,,,,,,,,,,,,,,,,,,,,,,,,,,,,,,,,,,,,,,,,,,,,,,,,,,,,,,,,,,,,,,,,,,,,,,,,,,,,,,,,,,,,,,,,,,
,,,,,,5d596938a0c0940001a47291,62bbfaa97d44554892e31c9c,2022-06-29_10h10.41.740,Colour_Asymmetry_Pilot,2022.1.3,Win32,71.94244604,62bbe60bf3d75ef465d3e404,0,134,134,125,1,threefour,,,,,,,,,,,,,,,,,,,,,,,,,,,,,,,,,,,,,,,,,,,,,,,,,,,,,,,,,,,,,,,,,,,,,,,,,,,,,,,,,,,,,,,,,,,,,,,,,,,,,,,,,,,,,,,,,,,,,,,,,,,,,,,,,,,,,,,,,,,,,,,,,,,,,,,,
,,,,,,5d596938a0c0940001a47291,62bbfaa97d44554892e31c9c,2022-06-29_10h10.41.740,Colour_Asymmetry_Pilot,2022.1.3,Win32,71.94244604,62bbe60bf3d75ef465d3e404,0,135,135,135,1,fourthree,,,,,,,,,,,,,,,,,,,,,,,,,,,,,,,,,,,,,,,,,,,,,,,,,,,,,,,,,,,,,,,,,,,,,,,,,,,,,,,,,,,,,,,,,,,,,,,,,,,,,,,,,,,,,,,,,,,,,,,,,,,,,,,,,,,,,,,,,,,,,,,,,,,,,,,,
,,,,,,5d596938a0c0940001a47291,62bbfaa97d44554892e31c9c,2022-06-29_10h10.41.740,Colour_Asymmetry_Pilot,2022.1.3,Win32,71.94244604,62bbe60bf3d75ef465d3e404,0,136,136,7,1,fourthree,,,,,,,,,,,,,,,,,,,,,,,,,,,,,,,,,,,,,,,,,,,,,,,,,,,,,,,,,,,,,,,,,,,,,,,,,,,,,,,,,,,,,,,,,,,,,,,,,,,,,,,,,,,,,,,,,,,,,,,,,,,,,,,,,,,,,,,,,,,,,,,,,,,,,,,,
,,,,,,5d596938a0c0940001a47291,62bbfaa97d44554892e31c9c,2022-06-29_10h10.41.740,Colour_Asymmetry_Pilot,2022.1.3,Win32,71.94244604,62bbe60bf3d75ef465d3e404,0,137,137,138,1,twoone,,,,,,,,,,,,,,,,,,,,,,,,,,,,,,,,,,,,,,,,,,,,,,,,,,,,,,,,,,,,,,,,,,,,,,,,,,,,,,,,,,,,,,,,,,,,,,,,,,,,,,,,,,,,,,,,,,,,,,,,,,,,,,,,,,,,,,,,,,,,,,,,,,,,,,,,
,,,,,,5d596938a0c0940001a47291,62bbfaa97d44554892e31c9c,2022-06-29_10h10.41.740,Colour_Asymmetry_Pilot,2022.1.3,Win32,71.94244604,62bbe60bf3d75ef465d3e404,0,138,138,37,1,threefour,,,,,,,,,,,,,,,,,,,,,,,,,,,,,,,,,,,,,,,,,,,,,,,,,,,,,,,,,,,,,,,,,,,,,,,,,,,,,,,,,,,,,,,,,,,,,,,,,,,,,,,,,,,,,,,,,,,,,,,,,,,,,,,,,,,,,,,,,,,,,,,,,,,,,,,,
,,,,,,5d596938a0c0940001a47291,62bbfaa97d44554892e31c9c,2022-06-29_10h10.41.740,Colour_Asymmetry_Pilot,2022.1.3,Win32,71.94244604,62bbe60bf3d75ef465d3e404,0,139,139,62,1,fourtwo,,,,,,,,,,,,,,,,,,,,,,,,,,,,,,,,,,,,,,,,,,,,,,,,,,,,,,,,,,,,,,,,,,,,,,,,,,,,,,,,,,,,,,,,,,,,,,,,,,,,,,,,,,,,,,,,,,,,,,,,,,,,,,,,,,,,,,,,,,,,,,,,,,,,,,,,
,,,,,,5d596938a0c0940001a47291,62bbfaa97d44554892e31c9c,2022-06-29_10h10.41.740,Colour_Asymmetry_Pilot,2022.1.3,Win32,71.94244604,62bbe60bf3d75ef465d3e404,0,140,140,142,1,fourtwo,,,,,,,,,,,,,,,,,,,,,,,,,,,,,,,,,,,,,,,,,,,,,,,,,,,,,,,,,,,,,,,,,,,,,,,,,,,,,,,,,,,,,,,,,,,,,,,,,,,,,,,,,,,,,,,,,,,,,,,,,,,,,,,,,,,,,,,,,,,,,,,,,,,,,,,,
,,,,,,5d596938a0c0940001a47291,62bbfaa97d44554892e31c9c,2022-06-29_10h10.41.740,Colour_Asymmetry_Pilot,2022.1.3,Win32,71.94244604,62bbe60bf3d75ef465d3e404,0,141,141,152,1,onetwo,,,,,,,,,,,,,,,,,,,,,,,,,,,,,,,,,,,,,,,,,,,,,,,,,,,,,,,,,,,,,,,,,,,,,,,,,,,,,,,,,,,,,,,,,,,,,,,,,,,,,,,,,,,,,,,,,,,,,,,,,,,,,,,,,,,,,,,,,,,,,,,,,,,,,,,,
,,,,,,5d596938a0c0940001a47291,62bbfaa97d44554892e31c9c,2022-06-29_10h10.41.740,Colour_Asymmetry_Pilot,2022.1.3,Win32,71.94244604,62bbe60bf3d75ef465d3e404,0,142,142,117,1,threefour,,,,,,,,,,,,,,,,,,,,,,,,,,,,,,,,,,,,,,,,,,,,,,,,,,,,,,,,,,,,,,,,,,,,,,,,,,,,,,,,,,,,,,,,,,,,,,,,,,,,,,,,,,,,,,,,,,,,,,,,,,,,,,,,,,,,,,,,,,,,,,,,,,,,,,,,
,,,,,,5d596938a0c0940001a47291,62bbfaa97d44554892e31c9c,2022-06-29_10h10.41.740,Colour_Asymmetry_Pilot,2022.1.3,Win32,71.94244604,62bbe60bf3d75ef465d3e404,0,143,143,10,1,twoone,,,,,,,,,,,,,,,,,,,,,,,,,,,,,,,,,,,,,,,,,,,,,,,,,,,,,,,,,,,,,,,,,,,,,,,,,,,,,,,,,,,,,,,,,,,,,,,,,,,,,,,,,,,,,,,,,,,,,,,,,,,,,,,,,,,,,,,,,,,,,,,,,,,,,,,,
,,,,,,5d596938a0c0940001a47291,62bbfaa97d44554892e31c9c,2022-06-29_10h10.41.740,Colour_Asymmetry_Pilot,2022.1.3,Win32,71.94244604,62bbe60bf3d75ef465d3e404,0,144,144,8,1,onetwo,,,,,,,,,,,,,,,,,,,,,,,,,,,,,,,,,,,,,,,,,,,,,,,,,,,,,,,,,,,,,,,,,,,,,,,,,,,,,,,,,,,,,,,,,,,,,,,,,,,,,,,,,,,,,,,,,,,,,,,,,,,,,,,,,,,,,,,,,,,,,,,,,,,,,,,,
,,,,,,5d596938a0c0940001a47291,62bbfaa97d44554892e31c9c,2022-06-29_10h10.41.740,Colour_Asymmetry_Pilot,2022.1.3,Win32,71.94244604,62bbe60bf3d75ef465d3e404,0,145,145,29,1,threefour,,,,,,,,,,,,,,,,,,,,,,,,,,,,,,,,,,,,,,,,,,,,,,,,,,,,,,,,,,,,,,,,,,,,,,,,,,,,,,,,,,,,,,,,,,,,,,,,,,,,,,,,,,,,,,,,,,,,,,,,,,,,,,,,,,,,,,,,,,,,,,,,,,,,,,,,
,,,,,,5d596938a0c0940001a47291,62bbfaa97d44554892e31c9c,2022-06-29_10h10.41.740,Colour_Asymmetry_Pilot,2022.1.3,Win32,71.94244604,62bbe60bf3d75ef465d3e404,0,146,146,121,1,onethree,,,,,,,,,,,,,,,,,,,,,,,,,,,,,,,,,,,,,,,,,,,,,,,,,,,,,,,,,,,,,,,,,,,,,,,,,,,,,,,,,,,,,,,,,,,,,,,,,,,,,,,,,,,,,,,,,,,,,,,,,,,,,,,,,,,,,,,,,,,,,,,,,,,,,,,,
,,,,,,5d596938a0c0940001a47291,62bbfaa97d44554892e31c9c,2022-06-29_10h10.41.740,Colour_Asymmetry_Pilot,2022.1.3,Win32,71.94244604,62bbe60bf3d75ef465d3e404,0,147,147,26,1,twoone,,,,,,,,,,,,,,,,,,,,,,,,,,,,,,,,,,,,,,,,,,,,,,,,,,,,,,,,,,,,,,,,,,,,,,,,,,,,,,,,,,,,,,,,,,,,,,,,,,,,,,,,,,,,,,,,,,,,,,,,,,,,,,,,,,,,,,,,,,,,,,,,,,,,,,,,
,,,,,,5d596938a0c0940001a47291,62bbfaa97d44554892e31c9c,2022-06-29_10h10.41.740,Colour_Asymmetry_Pilot,2022.1.3,Win32,71.94244604,62bbe60bf3d75ef465d3e404,0,148,148,102,1,fourtwo,,,,,,,,,,,,,,,,,,,,,,,,,,,,,,,,,,,,,,,,,,,,,,,,,,,,,,,,,,,,,,,,,,,,,,,,,,,,,,,,,,,,,,,,,,,,,,,,,,,,,,,,,,,,,,,,,,,,,,,,,,,,,,,,,,,,,,,,,,,,,,,,,,,,,,,,
,,,,,,5d596938a0c0940001a47291,62bbfaa97d44554892e31c9c,2022-06-29_10h10.41.740,Colour_Asymmetry_Pilot,2022.1.3,Win32,71.94244604,62bbe60bf3d75ef465d3e404,0,149,149,145,1,onethree,,,,,,,,,,,,,,,,,,,,,,,,,,,,,,,,,,,,,,,,,,,,,,,,,,,,,,,,,,,,,,,,,,,,,,,,,,,,,,,,,,,,,,,,,,,,,,,,,,,,,,,,,,,,,,,,,,,,,,,,,,,,,,,,,,,,,,,,,,,,,,,,,,,,,,,,
,,,,,,5d596938a0c0940001a47291,62bbfaa97d44554892e31c9c,2022-06-29_10h10.41.740,Colour_Asymmetry_Pilot,2022.1.3,Win32,71.94244604,62bbe60bf3d75ef465d3e404,0,150,150,156,1,threeone,,,,,,,,,,,,,,,,,,,,,,,,,,,,,,,,,,,,,,,,,,,,,,,,,,,,,,,,,,,,,,,,,,,,,,,,,,,,,,,,,,,,,,,,,,,,,,,,,,,,,,,,,,,,,,,,,,,,,,,,,,,,,,,,,,,,,,,,,,,,,,,,,,,,,,,,
,,,,,,5d596938a0c0940001a47291,62bbfaa97d44554892e31c9c,2022-06-29_10h10.41.740,Colour_Asymmetry_Pilot,2022.1.3,Win32,71.94244604,62bbe60bf3d75ef465d3e404,0,151,151,79,1,fourthree,,,,,,,,,,,,,,,,,,,,,,,,,,,,,,,,,,,,,,,,,,,,,,,,,,,,,,,,,,,,,,,,,,,,,,,,,,,,,,,,,,,,,,,,,,,,,,,,,,,,,,,,,,,,,,,,,,,,,,,,,,,,,,,,,,,,,,,,,,,,,,,,,,,,,,,,
,,,,,,5d596938a0c0940001a47291,62bbfaa97d44554892e31c9c,2022-06-29_10h10.41.740,Colour_Asymmetry_Pilot,2022.1.3,Win32,71.94244604,62bbe60bf3d75ef465d3e404,0,152,152,36,1,threeone,,,,,,,,,,,,,,,,,,,,,,,,,,,,,,,,,,,,,,,,,,,,,,,,,,,,,,,,,,,,,,,,,,,,,,,,,,,,,,,,,,,,,,,,,,,,,,,,,,,,,,,,,,,,,,,,,,,,,,,,,,,,,,,,,,,,,,,,,,,,,,,,,,,,,,,,
,,,,,,5d596938a0c0940001a47291,62bbfaa97d44554892e31c9c,2022-06-29_10h10.41.740,Colour_Asymmetry_Pilot,2022.1.3,Win32,71.94244604,62bbe60bf3d75ef465d3e404,0,153,153,159,1,fourthree,,,,,,,,,,,,,,,,,,,,,,,,,,,,,,,,,,,,,,,,,,,,,,,,,,,,,,,,,,,,,,,,,,,,,,,,,,,,,,,,,,,,,,,,,,,,,,,,,,,,,,,,,,,,,,,,,,,,,,,,,,,,,,,,,,,,,,,,,,,,,,,,,,,,,,,,
,,,,,,5d596938a0c0940001a47291,62bbfaa97d44554892e31c9c,2022-06-29_10h10.41.740,Colour_Asymmetry_Pilot,2022.1.3,Win32,71.94244604,62bbe60bf3d75ef465d3e404,0,154,154,30,1,fourtwo,,,,,,,,,,,,,,,,,,,,,,,,,,,,,,,,,,,,,,,,,,,,,,,,,,,,,,,,,,,,,,,,,,,,,,,,,,,,,,,,,,,,,,,,,,,,,,,,,,,,,,,,,,,,,,,,,,,,,,,,,,,,,,,,,,,,,,,,,,,,,,,,,,,,,,,,
,,,,,,5d596938a0c0940001a47291,62bbfaa97d44554892e31c9c,2022-06-29_10h10.41.740,Colour_Asymmetry_Pilot,2022.1.3,Win32,71.94244604,62bbe60bf3d75ef465d3e404,0,155,155,50,1,twoone,,,,,,,,,,,,,,,,,,,,,,,,,,,,,,,,,,,,,,,,,,,,,,,,,,,,,,,,,,,,,,,,,,,,,,,,,,,,,,,,,,,,,,,,,,,,,,,,,,,,,,,,,,,,,,,,,,,,,,,,,,,,,,,,,,,,,,,,,,,,,,,,,,,,,,,,
,,,,,,5d596938a0c0940001a47291,62bbfaa97d44554892e31c9c,2022-06-29_10h10.41.740,Colour_Asymmetry_Pilot,2022.1.3,Win32,71.94244604,62bbe60bf3d75ef465d3e404,0,156,156,81,1,onethree,,,,,,,,,,,,,,,,,,,,,,,,,,,,,,,,,,,,,,,,,,,,,,,,,,,,,,,,,,,,,,,,,,,,,,,,,,,,,,,,,,,,,,,,,,,,,,,,,,,,,,,,,,,,,,,,,,,,,,,,,,,,,,,,,,,,,,,,,,,,,,,,,,,,,,,,
,,,,,,5d596938a0c0940001a47291,62bbfaa97d44554892e31c9c,2022-06-29_10h10.41.740,Colour_Asymmetry_Pilot,2022.1.3,Win32,71.94244604,62bbe60bf3d75ef465d3e404,0,157,157,24,1,onetwo,,,,,,,,,,,,,,,,,,,,,,,,,,,,,,,,,,,,,,,,,,,,,,,,,,,,,,,,,,,,,,,,,,,,,,,,,,,,,,,,,,,,,,,,,,,,,,,,,,,,,,,,,,,,,,,,,,,,,,,,,,,,,,,,,,,,,,,,,,,,,,,,,,,,,,,,
,,,,,,5d596938a0c0940001a47291,62bbfaa97d44554892e31c9c,2022-06-29_10h10.41.740,Colour_Asymmetry_Pilot,2022.1.3,Win32,71.94244604,62bbe60bf3d75ef465d3e404,0,158,158,77,1,threefour,,,,,,,,,,,,,,,,,,,,,,,,,,,,,,,,,,,,,,,,,,,,,,,,,,,,,,,,,,,,,,,,,,,,,,,,,,,,,,,,,,,,,,,,,,,,,,,,,,,,,,,,,,,,,,,,,,,,,,,,,,,,,,,,,,,,,,,,,,,,,,,,,,,,,,,,
,,,,,,5d596938a0c0940001a47291,62bbfaa97d44554892e31c9c,2022-06-29_10h10.41.740,Colour_Asymmetry_Pilot,2022.1.3,Win32,71.94244604,62bbe60bf3d75ef465d3e404,0,159,159,158,1,fourtwo,,,,,,,,,,,,,,,,,,,,,,,,,,,,,,,,,,,,,,,,,,,,,,,,,,,,,,,,,,,,,,,,,,,,,,,,,,,,,,,,,,,,,,,,,,,,,,,,,,,,,,,,,,,,,,,,,,,,,,,,,,,,,,,,,,,,,,,,,,,,,,,,,,,,,,,,
,,,,,,5d596938a0c0940001a47291,62bbfaa97d44554892e31c9c,2022-06-29_10h10.41.740,Colour_Asymmetry_Pilot,2022.1.3,Win32,71.94244604,62bbe60bf3d75ef465d3e404,0,160,160,69,1,threefour,,,,,,,,,,,,,,,,,,,,,,,,,,,,,,,,,,,,,,,,,,,,,,,,,,,,,,,,,,,,,,,,,,,,,,,,,,,,,,,,,,,,,,,,,,,,,,,,,,,,,,,,,,,,,,,,,,,,,,,,,,,,,,,,,,,,,,,,,,,,,,,,,,,,,,,,
,,,,,,5d596938a0c0940001a47291,62bbfaa97d44554892e31c9c,2022-06-29_10h10.41.740,Colour_Asymmetry_Pilot,2022.1.3,Win32,71.94244604,62bbe60bf3d75ef465d3e404,0,161,161,78,1,fourtwo,,,,,,,,,,,,,,,,,,,,,,,,,,,,,,,,,,,,,,,,,,,,,,,,,,,,,,,,,,,,,,,,,,,,,,,,,,,,,,,,,,,,,,,,,,,,,,,,,,,,,,,,,,,,,,,,,,,,,,,,,,,,,,,,,,,,,,,,,,,,,,,,,,,,,,,,
,,,,,,5d596938a0c0940001a47291,62bbfaa97d44554892e31c9c,2022-06-29_10h10.41.740,Colour_Asymmetry_Pilot,2022.1.3,Win32,71.94244604,62bbe60bf3d75ef465d3e404,,,,,,,space,1.935,space,17.66,space,37.568,space,10.833,space,5.744,space,4.792,"[0.04299999999999993,0.16060000000000008,-0.6628000000000001]",fourthree,"[0.7018,0.7176,0.6155999999999999]",-2,10.27,-158,-80,1,0,0,response5disk_5,-6,8,1,0,0,rectangle_8,182,-92,1,0,0,response3disk_7,5,2,-4,13,1,0,0,rectangle_4,0,0,0,0,1,,,,,,,,,,,,,,,,,,,,,,,,,,,,,,,,,,,,,,,,,,,,,,,,,,,,,,,,,,,,,,,,,,,,,,,,,,,,,,,,,,,,,,,,,,,,,,,,,,,,,,,,
,,,,,,5d596938a0c0940001a47291,62bbfaa97d44554892e31c9c,2022-06-29_10h10.41.740,Colour_Asymmetry_Pilot,2022.1.3,Win32,71.94244604,62bbe60bf3d75ef465d3e404,,,,,,,,,,,,,,,,,,,"[0.9763999999999999,-0.1137999999999999,-0.6314]",onethree,"[0.7176,-0.906,-0.6864]",4,3.735,106,159,1,0,0,response1disk_5,-8,-9,1,0,0,rectangle_8,-8,-9,1,0,0,,,2,-8,-9,1,0,0,,1,0,1,0,1,,,,,,,,,,,,,,,,,,,,,,,,,,,,,,,,,,,,,,,,,,,,,,,,,,,,,,,,,,,,,,,,,,,,,,,,,,,,,,,,,,,,,,,,,,,,,,,,,,,,,,,,
,,,,,,5d596938a0c0940001a47291,62bbfaa97d44554892e31c9c,2022-06-29_10h10.41.740,Colour_Asymmetry_Pilot,2022.1.3,Win32,71.94244604,62bbe60bf3d75ef465d3e404,,,,,,,,,,,,,,,,,,,"[0.09799999999999986,-0.24719999999999998,0.15280000000000005]",onethree,"[0.7018,0.7802,-0.16079999999999994]",-4,4.555,-100,168,1,0,0,response7disk_5,16,8,1,0,0,rectangle_8,181,-68,1,0,0,response3disk_7,5,2,4,-2,1,0,0,rectangle_4,2,0,2,0,1,,,,,,,,,,,,,,,,,,,,,,,,,,,,,,,,,,,,,,,,,,,,,,,,,,,,,,,,,,,,,,,,,,,,,,,,,,,,,,,,,,,,,,,,,,,,,,,,,,,,,,,,
,,,,,,5d596938a0c0940001a47291,62bbfaa97d44554892e31c9c,2022-06-29_10h10.41.740,Colour_Asymmetry_Pilot,2022.1.3,Win32,71.94244604,62bbe60bf3d75ef465d3e404,,,,,,,,,,,,,,,,,,,"[0.3568,-0.20799999999999996,-0.9844]",onethree,"[-0.6,0.16860000000000008,0.44300000000000006]",-3,3.362,-149,95,1,0,0,response7disk_5,8,9,1,0,0,rectangle_8,8,9,1,0,0,,,2,8,9,1,0,0,,3,0,3,0,1,,,,,,,,,,,,,,,,,,,,,,,,,,,,,,,,,,,,,,,,,,,,,,,,,,,,,,,,,,,,,,,,,,,,,,,,,,,,,,,,,,,,,,,,,,,,,,,,,,,,,,,,
,,,,,,5d596938a0c0940001a47291,62bbfaa97d44554892e31c9c,2022-06-29_10h10.41.740,Colour_Asymmetry_Pilot,2022.1.3,Win32,71.94244604,62bbe60bf3d75ef465d3e404,,,,,,,,,,,,,,,,,,,"[0.4196,0.4665999999999999,0.3568]",threeone,"[0.04299999999999993,0.16060000000000008,-0.6628000000000001]",-2,1.7,-180,-80,1,0,0,response5disk_5,-24,5,1,0,0,rectangle_8,-24,5,1,0,0,,,2,-24,5,1,0,0,,4,0,4,0,1,,,,,,,,,,,,,,,,,,,,,,,,,,,,,,,,,,,,,,,,,,,,,,,,,,,,,,,,,,,,,,,,,,,,,,,,,,,,,,,,,,,,,,,,,,,,,,,,,,,,,,,,
,,,,,,5d596938a0c0940001a47291,62bbfaa97d44554892e31c9c,2022-06-29_10h10.41.740,Colour_Asymmetry_Pilot,2022.1.3,Win32,71.94244604,62bbe60bf3d75ef465d3e404,,,,,,,,,,,,,,,,,,,"[-0.9766,-0.6472,0.07440000000000002]",fourtwo,"[-0.2942,-0.24719999999999998,-0.357]",-2,2.577,-167,-81,1,0,0,response5disk_5,10,11,1,0,0,rectangle_8,10,11,1,0,0,,,2,10,11,1,0,0,,5,0,5,0,1,,,,,,,,,,,,,,,,,,,,,,,,,,,,,,,,,,,,,,,,,,,,,,,,,,,,,,,,,,,,,,,,,,,,,,,,,,,,,,,,,,,,,,,,,,,,,,,,,,,,,,,,
,,,,,,5d596938a0c0940001a47291,62bbfaa97d44554892e31c9c,2022-06-29_10h10.41.740,Colour_Asymmetry_Pilot,2022.1.3,Win32,71.94244604,62bbe60bf3d75ef465d3e404,,,,,,,,,,,,,,,,,,,"[0.23120000000000007,-0.7726,-0.34120000000000006]",fourthree,"[-0.9766,-0.34920000000000007,0.2156]",-2,3.201,-167,-53,1,0,0,response5disk_5,7,-21,1,0,0,rectangle_8,7,-21,1,0,0,,,2,7,-21,1,0,0,,6,0,6,0,1,,,,,,,,,,,,,,,,,,,,,,,,,,,,,,,,,,,,,,,,,,,,,,,,,,,,,,,,,,,,,,,,,,,,,,,,,,,,,,,,,,,,,,,,,,,,,,,,,,,,,,,,
,,,,,,5d596938a0c0940001a47291,62bbfaa97d44554892e31c9c,2022-06-29_10h10.41.740,Colour_Asymmetry_Pilot,2022.1.3,Win32,71.94244604,62bbe60bf3d75ef465d3e404,,,,,,,,,,,,,,,,,,,,fourthree,,-3,3.984,,,,,,,,,,,,,,,,,,,,,,,,,,,,,,,,space,2.891,"[0.7018,0.7176,0.6155999999999999]","[0.37240000000000006,-0.050999999999999934,-0.5216]",-150,49,1,0,0,response7disk,19,-6,1,0,0,rectangle,19,-6,1,0,0,,2,0.002,0,19,-6,1,0,0,0,0,0,68,1,68,first,,,,,,,,,,,,,,,,,,,,,,,,,,,,,,,,,,,,,,,,,,,,,,,,,,,,,,,,,,,,,,,,,,,
,,,,,,5d596938a0c0940001a47291,62bbfaa97d44554892e31c9c,2022-06-29_10h10.41.740,Colour_Asymmetry_Pilot,2022.1.3,Win32,71.94244604,62bbe60bf3d75ef465d3e404,,,,,,,,,,,,,,,,,,,,twofour,,-3,1.913,,,,,,,,,,,,,,,,,,,,,,,,,,,,,,,,,,"[-0.6,0.16860000000000008,0.44300000000000006]","[-0.34920000000000007,-0.702,-0.5216]",-157,48,1,0,0,response7disk,26,12,1,0,0,rectangle,26,12,1,0,0,,2,0,0,26,12,1,0,0,0,1,1,79,1,79,first,,,,,,,,,,,,,,,,,,,,,,,,,,,,,,,,,,,,,,,,,,,,,,,,,,,,,,,,,,,,,,,,,,,
,,,,,,5d596938a0c0940001a47291,62bbfaa97d44554892e31c9c,2022-06-29_10h10.41.740,Colour_Asymmetry_Pilot,2022.1.3,Win32,71.94244604,62bbe60bf3d75ef465d3e404,,,,,,,,,,,,,,,,,,,,fourtwo,,-2,2.063,,,,,,,,,,,,,,,,,,,,,,,,,,,,,,,,,,"[-0.9688,-0.7412000000000001,-0.4902000000000001]","[0.22340000000000004,-0.9296,-0.7884]",-163,-73,1,0,0,response5disk,-6,-7,1,0,0,rectangle,-6,-7,1,0,0,,2,0,0,-6,-7,1,0,0,0,2,2,94,1,13,second,,,,,,,,,,,,,,,,,,,,,,,,,,,,,,,,,,,,,,,,,,,,,,,,,,,,,,,,,,,,,,,,,,,
,,,,,,5d596938a0c0940001a47291,62bbfaa97d44554892e31c9c,2022-06-29_10h10.41.740,Colour_Asymmetry_Pilot,2022.1.3,Win32,71.94244604,62bbe60bf3d75ef465d3e404,,,,,,,,,,,,,,,,,,,,onetwo,,3,2.994,,,,,,,,,,,,,,,,,,,,,,,,,,,,,,,,,,"[0.09799999999999986,-0.24719999999999998,0.15280000000000005]","[-0.26280000000000003,-0.4746,-0.2158]",157,44,1,0,0,response1disk,-14,-5,1,0,0,rectangle,-14,-5,1,0,0,,3,0,0,-14,-5,1,0,0,0,3,3,105,1,24,second,,,,,,,,,,,,,,,,,,,,,,,,,,,,,,,,,,,,,,,,,,,,,,,,,,,,,,,,,,,,,,,,,,,
,,,,,,5d596938a0c0940001a47291,62bbfaa97d44554892e31c9c,2022-06-29_10h10.41.740,Colour_Asymmetry_Pilot,2022.1.3,Win32,71.94244604,62bbe60bf3d75ef465d3e404,,,,,,,,,,,,,,,,,,,,onetwo,,-2,1.327,,,,,,,,,,,,,,,,,,,,,,,,,,,,,,,,,,"[-0.9688,-0.38039999999999996,-0.41979999999999995]","[0.9842,0.7409999999999999,-0.6628000000000001]",-156,-75,1,0,0,response5disk,14,-7,1,0,0,rectangle,14,-7,1,0,0,,3,0,0,14,-7,1,0,0,0,4,4,6,1,6,first,,,,,,,,,,,,,,,,,,,,,,,,,,,,,,,,,,,,,,,,,,,,,,,,,,,,,,,,,,,,,,,,,,,
,,,,,,5d596938a0c0940001a47291,62bbfaa97d44554892e31c9c,2022-06-29_10h10.41.740,Colour_Asymmetry_Pilot,2022.1.3,Win32,71.94244604,62bbe60bf3d75ef465d3e404,,,,,,,,,,,,,,,,,,,,threefour,,-1,5.525,,,,,,,,,,,,,,,,,,,,,,,,,,,,,,,,,,"[-0.06680000000000008,-0.45100000000000007,-0.906]","[-0.4902000000000001,0.2704,-0.45899999999999996]",-63,-146,1,0,0,response5disk,-1,4,1,0,0,rectangle,-1,4,1,0,0,,2,0,0,-1,4,1,0,0,0,5,5,59,1,59,first,,,,,,,,,,,,,,,,,,,,,,,,,,,,,,,,,,,,,,,,,,,,,,,,,,,,,,,,,,,,,,,,,,,
,,,,,,5d596938a0c0940001a47291,62bbfaa97d44554892e31c9c,2022-06-29_10h10.41.740,Colour_Asymmetry_Pilot,2022.1.3,Win32,71.94244604,62bbe60bf3d75ef465d3e404,,,,,,,,,,,,,,,,,,,,twoone,,-2,0.842,,,,,,,,,,,,,,,,,,,,,,,,,,,,,,,,,,"[-0.050999999999999934,-0.6706000000000001,-0.804]","[-0.4902000000000001,0.2704,-0.45899999999999996]",-136,-75,1,0,0,response5disk,2,0,1,0,0,rectangle,2,0,1,0,0,,1,0.001,0,2,0,1,0,0,0,6,6,154,1,73,second,,,,,,,,,,,,,,,,,,,,,,,,,,,,,,,,,,,,,,,,,,,,,,,,,,,,,,,,,,,,,,,,,,,
,,,,,,5d596938a0c0940001a47291,62bbfaa97d44554892e31c9c,2022-06-29_10h10.41.740,Colour_Asymmetry_Pilot,2022.1.3,Win32,71.94244604,62bbe60bf3d75ef465d3e404,,,,,,,,,,,,,,,,,,,,twofour,,1,1.892,,,,,,,,,,,,,,,,,,,,,,,,,,,,,,,,,,"[-0.5452,-0.608,0.2470000000000001]","[0.09799999999999986,-0.24719999999999998,0.15280000000000005]",92,-151,1,0,0,response3disk,10,-10,1,0,0,rectangle,10,-10,1,0,0,,2,0.001,0,10,-10,1,0,0,0,7,7,3,1,3,first,,,,,,,,,,,,,,,,,,,,,,,,,,,,,,,,,,,,,,,,,,,,,,,,,,,,,,,,,,,,,,,,,,,
,,,,,,5d596938a0c0940001a47291,62bbfaa97d44554892e31c9c,2022-06-29_10h10.41.740,Colour_Asymmetry_Pilot,2022.1.3,Win32,71.94244604,62bbe60bf3d75ef465d3e404,,,,,,,,,,,,,,,,,,,,fourtwo,,-2,1.151,,,,,,,,,,,,,,,,,,,,,,,,,,,,,,,,,,"[-0.6,0.16860000000000008,0.44300000000000006]","[0.9763999999999999,-0.1137999999999999,-0.6314]",-128,-82,1,0,0,response5disk,9,-3,1,0,0,rectangle,9,-3,1,0,0,,3,0,0,9,-3,1,0,0,0,8,8,139,1,58,second,,,,,,,,,,,,,,,,,,,,,,,,,,,,,,,,,,,,,,,,,,,,,,,,,,,,,,,,,,,,,,,,,,,
,,,,,,5d596938a0c0940001a47291,62bbfaa97d44554892e31c9c,2022-06-29_10h10.41.740,Colour_Asymmetry_Pilot,2022.1.3,Win32,71.94244604,62bbe60bf3d75ef465d3e404,,,,,,,,,,,,,,,,,,,,onetwo,,1,0.986,,,,,,,,,,,,,,,,,,,,,,,,,,,,,,,,,,"[0.7802,-0.23140000000000005,-0.20799999999999996]","[0.2784,-0.31000000000000005,-0.5452]",71,-160,1,0,0,response3disk,-5,10,1,0,0,rectangle,-5,10,1,0,0,,3,0,0,-5,10,1,0,0,0,9,9,38,1,38,first,,,,,,,,,,,,,,,,,,,,,,,,,,,,,,,,,,,,,,,,,,,,,,,,,,,,,,,,,,,,,,,,,,,
,,,,,,5d596938a0c0940001a47291,62bbfaa97d44554892e31c9c,2022-06-29_10h10.41.740,Colour_Asymmetry_Pilot,2022.1.3,Win32,71.94244604,62bbe60bf3d75ef465d3e404,,,,,,,,,,,,,,,,,,,,onetwo,,4,0.775,,,,,,,,,,,,,,,,,,,,,,,,,,,,,,,,,,"[0.9763999999999999,0.30979999999999985,-0.6786]","[1,0.12939999999999996,-1]",68,117,1,0,0,response1disk,-9,-9,1,0,0,rectangle,-9,-9,1,0,0,,3,0,0,-9,-9,1,0,0,0,10,10,112,1,31,second,,,,,,,,,,,,,,,,,,,,,,,,,,,,,,,,,,,,,,,,,,,,,,,,,,,,,,,,,,,,,,,,,,,
,,,,,,5d596938a0c0940001a47291,62bbfaa97d44554892e31c9c,2022-06-29_10h10.41.740,Colour_Asymmetry_Pilot,2022.1.3,Win32,71.94244604,62bbe60bf3d75ef465d3e404,,,,,,,,,,,,,,,,,,,,onethree,,2,1.191,,,,,,,,,,,,,,,,,,,,,,,,,,,,,,,,,,"[-0.6,0.16860000000000008,0.44300000000000006]","[-0.20799999999999996,-0.655,-0.01980000000000004]",143,-57,1,0,0,response3disk,4,14,1,0,0,rectangle,4,14,1,0,0,,2,0.001,0,4,14,1,0,0,0,11,11,4,1,4,first,,,,,,,,,,,,,,,,,,,,,,,,,,,,,,,,,,,,,,,,,,,,,,,,,,,,,,,,,,,,,,,,,,,
,,,,,,5d596938a0c0940001a47291,62bbfaa97d44554892e31c9c,2022-06-29_10h10.41.740,Colour_Asymmetry_Pilot,2022.1.3,Win32,71.94244604,62bbe60bf3d75ef465d3e404,,,,,,,,,,,,,,,,,,,,onethree,,-2,1.118,,,,,,,,,,,,,,,,,,,,,,,,,,,,,,,,,,"[0.2784,-0.31000000000000005,-0.5452]","[-0.4982,-0.2942,-0.0354000000000001]",-124,-66,1,0,0,response5disk,-8,-18,1,0,0,rectangle,-8,-18,1,0,0,,2,0,0,-8,-18,1,0,0,0,12,12,23,1,23,first,,,,,,,,,,,,,,,,,,,,,,,,,,,,,,,,,,,,,,,,,,,,,,,,,,,,,,,,,,,,,,,,,,,
,,,,,,5d596938a0c0940001a47291,62bbfaa97d44554892e31c9c,2022-06-29_10h10.41.740,Colour_Asymmetry_Pilot,2022.1.3,Win32,71.94244604,62bbe60bf3d75ef465d3e404,,,,,,,,,,,,,,,,,,,,fourtwo,,-1,0.595,,,,,,,,,,,,,,,,,,,,,,,,,,,,,,,,,,"[-0.9296,-0.12959999999999994,-0.043199999999999905]","[-0.07459999999999989,0.12139999999999995,-0.9922]",-53,-151,1,0,0,response5disk,9,-7,1,0,0,rectangle,9,-7,1,0,0,,1,0.001,0,9,-7,1,0,0,0,13,13,138,1,57,second,,,,,,,,,,,,,,,,,,,,,,,,,,,,,,,,,,,,,,,,,,,,,,,,,,,,,,,,,,,,,,,,,,,
,,,,,,5d596938a0c0940001a47291,62bbfaa97d44554892e31c9c,2022-06-29_10h10.41.740,Colour_Asymmetry_Pilot,2022.1.3,Win32,71.94244604,62bbe60bf3d75ef465d3e404,,,,,,,,,,,,,,,,,,,,onethree,,-1,0.939,,,,,,,,,,,,,,,,,,,,,,,,,,,,,,,,,,"[1,0.12939999999999996,-1]","[-0.4982,-0.2942,-0.0354000000000001]",-100,-154,1,0,0,response5disk,0,-15,1,0,0,rectangle,0,-15,1,0,0,,3,0.002,0,0,-15,1,0,0,0,14,14,40,1,40,first,,,,,,,,,,,,,,,,,,,,,,,,,,,,,,,,,,,,,,,,,,,,,,,,,,,,,,,,,,,,,,,,,,,
,,,,,,5d596938a0c0940001a47291,62bbfaa97d44554892e31c9c,2022-06-29_10h10.41.740,Colour_Asymmetry_Pilot,2022.1.3,Win32,71.94244604,62bbe60bf3d75ef465d3e404,,,,,,,,,,,,,,,,,,,,fourtwo,,-3,1.279,,,,,,,,,,,,,,,,,,,,,,,,,,,,,,,,,,"[-0.6942,-0.7648,-0.12959999999999994]","[0.9686000000000001,0.5763999999999998,0.11359999999999992]",-136,40,1,0,0,response7disk,24,12,1,0,0,rectangle,24,12,1,0,0,,2,0.002,0,24,12,1,0,0,0,15,15,82,1,1,second,,,,,,,,,,,,,,,,,,,,,,,,,,,,,,,,,,,,,,,,,,,,,,,,,,,,,,,,,,,,,,,,,,,
,,,,,,5d596938a0c0940001a47291,62bbfaa97d44554892e31c9c,2022-06-29_10h10.41.740,Colour_Asymmetry_Pilot,2022.1.3,Win32,71.94244604,62bbe60bf3d75ef465d3e404,,,,,,,,,,,,,,,,,,,,twoone,,-1,1.898,,,,,,,,,,,,,,,,,,,,,,,,,,,,,,,,,,"[-0.5922000000000001,-0.7492000000000001,-0.5296000000000001]","[-0.2942,-0.7648,-0.7492000000000001]",-56,-130,1,0,0,response5disk,0,3,1,0,0,rectangle,0,3,1,0,0,,3,0.001,0,0,3,1,0,0,0,16,16,116,1,35,second,,,,,,,,,,,,,,,,,,,,,,,,,,,,,,,,,,,,,,,,,,,,,,,,,,,,,,,,,,,,,,,,,,,
,,,,,,5d596938a0c0940001a47291,62bbfaa97d44554892e31c9c,2022-06-29_10h10.41.740,Colour_Asymmetry_Pilot,2022.1.3,Win32,71.94244604,62bbe60bf3d75ef465d3e404,,,,,,,,,,,,,,,,,,,,threeone,,1,0.639,,,,,,,,,,,,,,,,,,,,,,,,,,,,,,,,,,"[1,0.12939999999999996,-1]","[-0.011800000000000033,-0.906,-0.45100000000000007]",69,-143,1,0,0,response3disk,-6,-2,1,0,0,rectangle,-6,-2,1,0,0,,1,0,0,-6,-2,1,0,0,0,17,17,96,1,15,second,,,,,,,,,,,,,,,,,,,,,,,,,,,,,,,,,,,,,,,,,,,,,,,,,,,,,,,,,,,,,,,,,,,
,,,,,,5d596938a0c0940001a47291,62bbfaa97d44554892e31c9c,2022-06-29_10h10.41.740,Colour_Asymmetry_Pilot,2022.1.3,Win32,71.94244604,62bbe60bf3d75ef465d3e404,,,,,,,,,,,,,,,,,,,,onethree,,-1,0.927,,,,,,,,,,,,,,,,,,,,,,,,,,,,,,,,,,"[0.9686000000000001,0.3802000000000001,0.19999999999999996]","[-0.34920000000000007,-0.702,-0.5216]",-99,-131,1,0,0,response5disk,1,-8,1,0,0,rectangle,1,-8,1,0,0,,3,0,0,1,-8,1,0,0,0,18,18,39,1,39,first,,,,,,,,,,,,,,,,,,,,,,,,,,,,,,,,,,,,,,,,,,,,,,,,,,,,,,,,,,,,,,,,,,,
,,,,,,5d596938a0c0940001a47291,62bbfaa97d44554892e31c9c,2022-06-29_10h10.41.740,Colour_Asymmetry_Pilot,2022.1.3,Win32,71.94244604,62bbe60bf3d75ef465d3e404,,,,,,,,,,,,,,,,,,,,onethree,,-3,1.174,,,,,,,,,,,,,,,,,,,,,,,,,,,,,,,,,,"[-0.4982,-0.2942,-0.0354000000000001]","[1,0.12939999999999996,-1]",-128,57,1,0,0,response7disk,23,10,1,0,0,rectangle,23,10,1,0,0,,1,0.001,0,23,10,1,0,0,0,19,19,121,1,40,second,,,,,,,,,,,,,,,,,,,,,,,,,,,,,,,,,,,,,,,,,,,,,,,,,,,,,,,,,,,,,,,,,,,
,,,,,,5d596938a0c0940001a47291,62bbfaa97d44554892e31c9c,2022-06-29_10h10.41.740,Colour_Asymmetry_Pilot,2022.1.3,Win32,71.94244604,62bbe60bf3d75ef465d3e404,,,,,,,,,,,,,,,,,,,,onethree,,-4,0.86,,,,,,,,,,,,,,,,,,,,,,,,,,,,,,,,,,"[0.9686000000000001,0.3802000000000001,0.19999999999999996]","[-0.9688,-0.4902000000000001,-0.12159999999999993]",-86,116,1,0,0,response7disk,14,6,1,0,0,rectangle,14,6,1,0,0,,3,0.001,0,14,6,1,0,0,0,20,20,62,1,62,first,,,,,,,,,,,,,,,,,,,,,,,,,,,,,,,,,,,,,,,,,,,,,,,,,,,,,,,,,,,,,,,,,,,
