trials.thisRepN,trials.thisTrialN,trials.thisN,trials.thisIndex,trials.ran,Colourcodes,participant,session,date,expName,psychopyVersion,OS,frameRate,study_id,trials_4.thisRepN,trials_4.thisTrialN,trials_4.thisN,trials_4.thisIndex,trials_4.ran,StimulusPos,key_resp.keys,key_resp.rt,key_resp_2.keys,key_resp_2.rt,key_resp_15.keys,key_resp_15.rt,key_resp_17.keys,key_resp_17.rt,key_resp_9.keys,key_resp_9.rt,key_resp_10.keys,key_resp_10.rt,Circle1_col,Ecc,Circle2_col,similarity,response_time,mouse_5.x,mouse_5.y,mouse_5.leftButton,mouse_5.midButton,mouse_5.rightButton,mouse_5.clicked_name,mouse_10.x,mouse_10.y,mouse_10.leftButton,mouse_10.midButton,mouse_10.rightButton,mouse_10.clicked_name,mouse_7.x,mouse_7.y,mouse_7.leftButton,mouse_7.midButton,mouse_7.rightButton,catchnumberprac,mouse_6.x,mouse_6.y,mouse_6.leftButton,mouse_6.midButton,mouse_6.rightButton,duringprac.thisRepN,duringprac.thisTrialN,duringprac.thisN,duringprac.thisIndex,duringprac.ran,mouse_7.clicked_name,catchprac,mouse_6.clicked_name,key_resp_22.keys,key_resp_22.rt,Circle1_colour,Circle2_colour,mouse.x,mouse.y,mouse.leftButton,mouse.midButton,mouse.rightButton,mouse.clicked_name,mouse_2.x,mouse_2.y,mouse_2.leftButton,mouse_2.midButton,mouse_2.rightButton,mouse_2.clicked_name,mouse_3.x,mouse_3.y,mouse_3.leftButton,mouse_3.midButton,mouse_3.rightButton,catchresponse,catchnumber,response_time_catch,Catch,mouse_11.x,mouse_11.y,mouse_11.leftButton,mouse_11.midButton,mouse_11.rightButton,trials_2.thisRepN,trials_2.thisTrialN,trials_2.thisN,trials_2.thisIndex,trials_2.ran,Colourpair,Temporder,mouse_3.clicked_name,mouse_11.clicked_name,trials_3.thisRepN,trials_3.thisTrialN,trials_3.thisN,trials_3.thisIndex,trials_3.ran,key_resp_instr_Ishi.keys,key_resp_instr_Ishi.rt,Ishi_trial_keyresp.keys,Ishi_trial_keyresp.rt,Ishi_textbox.text,Ishi_loop.thisRepN,Ishi_loop.thisTrialN,Ishi_loop.thisN,Ishi_loop.thisIndex,Ishi_loop.ran,imageaddress,textbox.text,mouse_4.x,mouse_4.y,mouse_4.leftButton,mouse_4.midButton,mouse_4.rightButton,mouse_4.clicked_name,textbox_2.text,mouse_8.x,mouse_8.y,mouse_8.leftButton,mouse_8.midButton,mouse_8.rightButton,mouse_8.clicked_name,textbox_3.text,mouse_9.x,mouse_9.y,mouse_9.leftButton,mouse_9.midButton,mouse_9.rightButton,mouse_9.clicked_name,textbox_4.text,mouse_12.x,mouse_12.y,mouse_12.leftButton,mouse_12.midButton,mouse_12.rightButton,mouse_12.clicked_name,textbox_5.text,mouse_13.x,mouse_13.y,mouse_13.leftButton,mouse_13.midButton,mouse_13.rightButton,mouse_13.clicked_name,textbox_6.text,mouse_14.x,mouse_14.y,mouse_14.leftButton,mouse_14.midButton,mouse_14.rightButton,mouse_14.clicked_name,textbox_7.text,mouse_15.x,mouse_15.y,mouse_15.leftButton,mouse_15.midButton,mouse_15.rightButton,mouse_15.clicked_name
0,0,0,43,1,,61717173748006894b2b54ff,62bc1818c0dd6da28def5bb5,2022-06-29_11h43.25.783,Colour_Asymmetry_Pilot,2022.1.3,Win32,59.76571838,62bbe60bf3d75ef465d3e404,,,,,,,,,,,,,,,,,,,,,,,,,,,,,,,,,,,,,,,,,,,,,,,,,,,,,,,,,,,,,,,,,,,,,,,,,,,,,,,,,,,,,,,,,,,,,,,,,,,,,,,,,,,,,,,,,,,,,,,,,,,,,,,,,,,,,,,,,,,,,,,,,,,,,,,,,,,,,,
0,1,1,58,1,,61717173748006894b2b54ff,62bc1818c0dd6da28def5bb5,2022-06-29_11h43.25.783,Colour_Asymmetry_Pilot,2022.1.3,Win32,59.76571838,62bbe60bf3d75ef465d3e404,,,,,,,,,,,,,,,,,,,,,,,,,,,,,,,,,,,,,,,,,,,,,,,,,,,,,,,,,,,,,,,,,,,,,,,,,,,,,,,,,,,,,,,,,,,,,,,,,,,,,,,,,,,,,,,,,,,,,,,,,,,,,,,,,,,,,,,,,,,,,,,,,,,,,,,,,,,,,,
0,2,2,1,1,,61717173748006894b2b54ff,62bc1818c0dd6da28def5bb5,2022-06-29_11h43.25.783,Colour_Asymmetry_Pilot,2022.1.3,Win32,59.76571838,62bbe60bf3d75ef465d3e404,,,,,,,,,,,,,,,,,,,,,,,,,,,,,,,,,,,,,,,,,,,,,,,,,,,,,,,,,,,,,,,,,,,,,,,,,,,,,,,,,,,,,,,,,,,,,,,,,,,,,,,,,,,,,,,,,,,,,,,,,,,,,,,,,,,,,,,,,,,,,,,,,,,,,,,,,,,,,,
0,3,3,83,1,,61717173748006894b2b54ff,62bc1818c0dd6da28def5bb5,2022-06-29_11h43.25.783,Colour_Asymmetry_Pilot,2022.1.3,Win32,59.76571838,62bbe60bf3d75ef465d3e404,,,,,,,,,,,,,,,,,,,,,,,,,,,,,,,,,,,,,,,,,,,,,,,,,,,,,,,,,,,,,,,,,,,,,,,,,,,,,,,,,,,,,,,,,,,,,,,,,,,,,,,,,,,,,,,,,,,,,,,,,,,,,,,,,,,,,,,,,,,,,,,,,,,,,,,,,,,,,,
0,4,4,22,1,,61717173748006894b2b54ff,62bc1818c0dd6da28def5bb5,2022-06-29_11h43.25.783,Colour_Asymmetry_Pilot,2022.1.3,Win32,59.76571838,62bbe60bf3d75ef465d3e404,,,,,,,,,,,,,,,,,,,,,,,,,,,,,,,,,,,,,,,,,,,,,,,,,,,,,,,,,,,,,,,,,,,,,,,,,,,,,,,,,,,,,,,,,,,,,,,,,,,,,,,,,,,,,,,,,,,,,,,,,,,,,,,,,,,,,,,,,,,,,,,,,,,,,,,,,,,,,,
0,5,5,13,1,,61717173748006894b2b54ff,62bc1818c0dd6da28def5bb5,2022-06-29_11h43.25.783,Colour_Asymmetry_Pilot,2022.1.3,Win32,59.76571838,62bbe60bf3d75ef465d3e404,,,,,,,,,,,,,,,,,,,,,,,,,,,,,,,,,,,,,,,,,,,,,,,,,,,,,,,,,,,,,,,,,,,,,,,,,,,,,,,,,,,,,,,,,,,,,,,,,,,,,,,,,,,,,,,,,,,,,,,,,,,,,,,,,,,,,,,,,,,,,,,,,,,,,,,,,,,,,,
0,6,6,36,1,,61717173748006894b2b54ff,62bc1818c0dd6da28def5bb5,2022-06-29_11h43.25.783,Colour_Asymmetry_Pilot,2022.1.3,Win32,59.76571838,62bbe60bf3d75ef465d3e404,,,,,,,,,,,,,,,,,,,,,,,,,,,,,,,,,,,,,,,,,,,,,,,,,,,,,,,,,,,,,,,,,,,,,,,,,,,,,,,,,,,,,,,,,,,,,,,,,,,,,,,,,,,,,,,,,,,,,,,,,,,,,,,,,,,,,,,,,,,,,,,,,,,,,,,,,,,,,,
0,7,7,39,1,,61717173748006894b2b54ff,62bc1818c0dd6da28def5bb5,2022-06-29_11h43.25.783,Colour_Asymmetry_Pilot,2022.1.3,Win32,59.76571838,62bbe60bf3d75ef465d3e404,,,,,,,,,,,,,,,,,,,,,,,,,,,,,,,,,,,,,,,,,,,,,,,,,,,,,,,,,,,,,,,,,,,,,,,,,,,,,,,,,,,,,,,,,,,,,,,,,,,,,,,,,,,,,,,,,,,,,,,,,,,,,,,,,,,,,,,,,,,,,,,,,,,,,,,,,,,,,,
0,8,8,15,1,,61717173748006894b2b54ff,62bc1818c0dd6da28def5bb5,2022-06-29_11h43.25.783,Colour_Asymmetry_Pilot,2022.1.3,Win32,59.76571838,62bbe60bf3d75ef465d3e404,,,,,,,,,,,,,,,,,,,,,,,,,,,,,,,,,,,,,,,,,,,,,,,,,,,,,,,,,,,,,,,,,,,,,,,,,,,,,,,,,,,,,,,,,,,,,,,,,,,,,,,,,,,,,,,,,,,,,,,,,,,,,,,,,,,,,,,,,,,,,,,,,,,,,,,,,,,,,,
0,9,9,85,1,,61717173748006894b2b54ff,62bc1818c0dd6da28def5bb5,2022-06-29_11h43.25.783,Colour_Asymmetry_Pilot,2022.1.3,Win32,59.76571838,62bbe60bf3d75ef465d3e404,,,,,,,,,,,,,,,,,,,,,,,,,,,,,,,,,,,,,,,,,,,,,,,,,,,,,,,,,,,,,,,,,,,,,,,,,,,,,,,,,,,,,,,,,,,,,,,,,,,,,,,,,,,,,,,,,,,,,,,,,,,,,,,,,,,,,,,,,,,,,,,,,,,,,,,,,,,,,,
0,10,10,80,1,,61717173748006894b2b54ff,62bc1818c0dd6da28def5bb5,2022-06-29_11h43.25.783,Colour_Asymmetry_Pilot,2022.1.3,Win32,59.76571838,62bbe60bf3d75ef465d3e404,,,,,,,,,,,,,,,,,,,,,,,,,,,,,,,,,,,,,,,,,,,,,,,,,,,,,,,,,,,,,,,,,,,,,,,,,,,,,,,,,,,,,,,,,,,,,,,,,,,,,,,,,,,,,,,,,,,,,,,,,,,,,,,,,,,,,,,,,,,,,,,,,,,,,,,,,,,,,,
0,11,11,78,1,,61717173748006894b2b54ff,62bc1818c0dd6da28def5bb5,2022-06-29_11h43.25.783,Colour_Asymmetry_Pilot,2022.1.3,Win32,59.76571838,62bbe60bf3d75ef465d3e404,,,,,,,,,,,,,,,,,,,,,,,,,,,,,,,,,,,,,,,,,,,,,,,,,,,,,,,,,,,,,,,,,,,,,,,,,,,,,,,,,,,,,,,,,,,,,,,,,,,,,,,,,,,,,,,,,,,,,,,,,,,,,,,,,,,,,,,,,,,,,,,,,,,,,,,,,,,,,,
0,12,12,71,1,,61717173748006894b2b54ff,62bc1818c0dd6da28def5bb5,2022-06-29_11h43.25.783,Colour_Asymmetry_Pilot,2022.1.3,Win32,59.76571838,62bbe60bf3d75ef465d3e404,,,,,,,,,,,,,,,,,,,,,,,,,,,,,,,,,,,,,,,,,,,,,,,,,,,,,,,,,,,,,,,,,,,,,,,,,,,,,,,,,,,,,,,,,,,,,,,,,,,,,,,,,,,,,,,,,,,,,,,,,,,,,,,,,,,,,,,,,,,,,,,,,,,,,,,,,,,,,,
0,13,13,63,1,,61717173748006894b2b54ff,62bc1818c0dd6da28def5bb5,2022-06-29_11h43.25.783,Colour_Asymmetry_Pilot,2022.1.3,Win32,59.76571838,62bbe60bf3d75ef465d3e404,,,,,,,,,,,,,,,,,,,,,,,,,,,,,,,,,,,,,,,,,,,,,,,,,,,,,,,,,,,,,,,,,,,,,,,,,,,,,,,,,,,,,,,,,,,,,,,,,,,,,,,,,,,,,,,,,,,,,,,,,,,,,,,,,,,,,,,,,,,,,,,,,,,,,,,,,,,,,,
0,14,14,76,1,,61717173748006894b2b54ff,62bc1818c0dd6da28def5bb5,2022-06-29_11h43.25.783,Colour_Asymmetry_Pilot,2022.1.3,Win32,59.76571838,62bbe60bf3d75ef465d3e404,,,,,,,,,,,,,,,,,,,,,,,,,,,,,,,,,,,,,,,,,,,,,,,,,,,,,,,,,,,,,,,,,,,,,,,,,,,,,,,,,,,,,,,,,,,,,,,,,,,,,,,,,,,,,,,,,,,,,,,,,,,,,,,,,,,,,,,,,,,,,,,,,,,,,,,,,,,,,,
0,15,15,88,1,,61717173748006894b2b54ff,62bc1818c0dd6da28def5bb5,2022-06-29_11h43.25.783,Colour_Asymmetry_Pilot,2022.1.3,Win32,59.76571838,62bbe60bf3d75ef465d3e404,,,,,,,,,,,,,,,,,,,,,,,,,,,,,,,,,,,,,,,,,,,,,,,,,,,,,,,,,,,,,,,,,,,,,,,,,,,,,,,,,,,,,,,,,,,,,,,,,,,,,,,,,,,,,,,,,,,,,,,,,,,,,,,,,,,,,,,,,,,,,,,,,,,,,,,,,,,,,,
0,16,16,37,1,,61717173748006894b2b54ff,62bc1818c0dd6da28def5bb5,2022-06-29_11h43.25.783,Colour_Asymmetry_Pilot,2022.1.3,Win32,59.76571838,62bbe60bf3d75ef465d3e404,,,,,,,,,,,,,,,,,,,,,,,,,,,,,,,,,,,,,,,,,,,,,,,,,,,,,,,,,,,,,,,,,,,,,,,,,,,,,,,,,,,,,,,,,,,,,,,,,,,,,,,,,,,,,,,,,,,,,,,,,,,,,,,,,,,,,,,,,,,,,,,,,,,,,,,,,,,,,,
0,17,17,68,1,,61717173748006894b2b54ff,62bc1818c0dd6da28def5bb5,2022-06-29_11h43.25.783,Colour_Asymmetry_Pilot,2022.1.3,Win32,59.76571838,62bbe60bf3d75ef465d3e404,,,,,,,,,,,,,,,,,,,,,,,,,,,,,,,,,,,,,,,,,,,,,,,,,,,,,,,,,,,,,,,,,,,,,,,,,,,,,,,,,,,,,,,,,,,,,,,,,,,,,,,,,,,,,,,,,,,,,,,,,,,,,,,,,,,,,,,,,,,,,,,,,,,,,,,,,,,,,,
0,18,18,69,1,,61717173748006894b2b54ff,62bc1818c0dd6da28def5bb5,2022-06-29_11h43.25.783,Colour_Asymmetry_Pilot,2022.1.3,Win32,59.76571838,62bbe60bf3d75ef465d3e404,,,,,,,,,,,,,,,,,,,,,,,,,,,,,,,,,,,,,,,,,,,,,,,,,,,,,,,,,,,,,,,,,,,,,,,,,,,,,,,,,,,,,,,,,,,,,,,,,,,,,,,,,,,,,,,,,,,,,,,,,,,,,,,,,,,,,,,,,,,,,,,,,,,,,,,,,,,,,,
0,19,19,44,1,,61717173748006894b2b54ff,62bc1818c0dd6da28def5bb5,2022-06-29_11h43.25.783,Colour_Asymmetry_Pilot,2022.1.3,Win32,59.76571838,62bbe60bf3d75ef465d3e404,,,,,,,,,,,,,,,,,,,,,,,,,,,,,,,,,,,,,,,,,,,,,,,,,,,,,,,,,,,,,,,,,,,,,,,,,,,,,,,,,,,,,,,,,,,,,,,,,,,,,,,,,,,,,,,,,,,,,,,,,,,,,,,,,,,,,,,,,,,,,,,,,,,,,,,,,,,,,,
0,20,20,42,1,,61717173748006894b2b54ff,62bc1818c0dd6da28def5bb5,2022-06-29_11h43.25.783,Colour_Asymmetry_Pilot,2022.1.3,Win32,59.76571838,62bbe60bf3d75ef465d3e404,,,,,,,,,,,,,,,,,,,,,,,,,,,,,,,,,,,,,,,,,,,,,,,,,,,,,,,,,,,,,,,,,,,,,,,,,,,,,,,,,,,,,,,,,,,,,,,,,,,,,,,,,,,,,,,,,,,,,,,,,,,,,,,,,,,,,,,,,,,,,,,,,,,,,,,,,,,,,,
0,21,21,74,1,,61717173748006894b2b54ff,62bc1818c0dd6da28def5bb5,2022-06-29_11h43.25.783,Colour_Asymmetry_Pilot,2022.1.3,Win32,59.76571838,62bbe60bf3d75ef465d3e404,,,,,,,,,,,,,,,,,,,,,,,,,,,,,,,,,,,,,,,,,,,,,,,,,,,,,,,,,,,,,,,,,,,,,,,,,,,,,,,,,,,,,,,,,,,,,,,,,,,,,,,,,,,,,,,,,,,,,,,,,,,,,,,,,,,,,,,,,,,,,,,,,,,,,,,,,,,,,,
0,22,22,16,1,,61717173748006894b2b54ff,62bc1818c0dd6da28def5bb5,2022-06-29_11h43.25.783,Colour_Asymmetry_Pilot,2022.1.3,Win32,59.76571838,62bbe60bf3d75ef465d3e404,,,,,,,,,,,,,,,,,,,,,,,,,,,,,,,,,,,,,,,,,,,,,,,,,,,,,,,,,,,,,,,,,,,,,,,,,,,,,,,,,,,,,,,,,,,,,,,,,,,,,,,,,,,,,,,,,,,,,,,,,,,,,,,,,,,,,,,,,,,,,,,,,,,,,,,,,,,,,,
0,23,23,82,1,,61717173748006894b2b54ff,62bc1818c0dd6da28def5bb5,2022-06-29_11h43.25.783,Colour_Asymmetry_Pilot,2022.1.3,Win32,59.76571838,62bbe60bf3d75ef465d3e404,,,,,,,,,,,,,,,,,,,,,,,,,,,,,,,,,,,,,,,,,,,,,,,,,,,,,,,,,,,,,,,,,,,,,,,,,,,,,,,,,,,,,,,,,,,,,,,,,,,,,,,,,,,,,,,,,,,,,,,,,,,,,,,,,,,,,,,,,,,,,,,,,,,,,,,,,,,,,,
0,24,24,17,1,,61717173748006894b2b54ff,62bc1818c0dd6da28def5bb5,2022-06-29_11h43.25.783,Colour_Asymmetry_Pilot,2022.1.3,Win32,59.76571838,62bbe60bf3d75ef465d3e404,,,,,,,,,,,,,,,,,,,,,,,,,,,,,,,,,,,,,,,,,,,,,,,,,,,,,,,,,,,,,,,,,,,,,,,,,,,,,,,,,,,,,,,,,,,,,,,,,,,,,,,,,,,,,,,,,,,,,,,,,,,,,,,,,,,,,,,,,,,,,,,,,,,,,,,,,,,,,,
0,25,25,49,1,,61717173748006894b2b54ff,62bc1818c0dd6da28def5bb5,2022-06-29_11h43.25.783,Colour_Asymmetry_Pilot,2022.1.3,Win32,59.76571838,62bbe60bf3d75ef465d3e404,,,,,,,,,,,,,,,,,,,,,,,,,,,,,,,,,,,,,,,,,,,,,,,,,,,,,,,,,,,,,,,,,,,,,,,,,,,,,,,,,,,,,,,,,,,,,,,,,,,,,,,,,,,,,,,,,,,,,,,,,,,,,,,,,,,,,,,,,,,,,,,,,,,,,,,,,,,,,,
0,26,26,20,1,,61717173748006894b2b54ff,62bc1818c0dd6da28def5bb5,2022-06-29_11h43.25.783,Colour_Asymmetry_Pilot,2022.1.3,Win32,59.76571838,62bbe60bf3d75ef465d3e404,,,,,,,,,,,,,,,,,,,,,,,,,,,,,,,,,,,,,,,,,,,,,,,,,,,,,,,,,,,,,,,,,,,,,,,,,,,,,,,,,,,,,,,,,,,,,,,,,,,,,,,,,,,,,,,,,,,,,,,,,,,,,,,,,,,,,,,,,,,,,,,,,,,,,,,,,,,,,,
0,27,27,27,1,,61717173748006894b2b54ff,62bc1818c0dd6da28def5bb5,2022-06-29_11h43.25.783,Colour_Asymmetry_Pilot,2022.1.3,Win32,59.76571838,62bbe60bf3d75ef465d3e404,,,,,,,,,,,,,,,,,,,,,,,,,,,,,,,,,,,,,,,,,,,,,,,,,,,,,,,,,,,,,,,,,,,,,,,,,,,,,,,,,,,,,,,,,,,,,,,,,,,,,,,,,,,,,,,,,,,,,,,,,,,,,,,,,,,,,,,,,,,,,,,,,,,,,,,,,,,,,,
0,28,28,89,1,,61717173748006894b2b54ff,62bc1818c0dd6da28def5bb5,2022-06-29_11h43.25.783,Colour_Asymmetry_Pilot,2022.1.3,Win32,59.76571838,62bbe60bf3d75ef465d3e404,,,,,,,,,,,,,,,,,,,,,,,,,,,,,,,,,,,,,,,,,,,,,,,,,,,,,,,,,,,,,,,,,,,,,,,,,,,,,,,,,,,,,,,,,,,,,,,,,,,,,,,,,,,,,,,,,,,,,,,,,,,,,,,,,,,,,,,,,,,,,,,,,,,,,,,,,,,,,,
0,29,29,81,1,,61717173748006894b2b54ff,62bc1818c0dd6da28def5bb5,2022-06-29_11h43.25.783,Colour_Asymmetry_Pilot,2022.1.3,Win32,59.76571838,62bbe60bf3d75ef465d3e404,,,,,,,,,,,,,,,,,,,,,,,,,,,,,,,,,,,,,,,,,,,,,,,,,,,,,,,,,,,,,,,,,,,,,,,,,,,,,,,,,,,,,,,,,,,,,,,,,,,,,,,,,,,,,,,,,,,,,,,,,,,,,,,,,,,,,,,,,,,,,,,,,,,,,,,,,,,,,,
0,30,30,92,1,,61717173748006894b2b54ff,62bc1818c0dd6da28def5bb5,2022-06-29_11h43.25.783,Colour_Asymmetry_Pilot,2022.1.3,Win32,59.76571838,62bbe60bf3d75ef465d3e404,,,,,,,,,,,,,,,,,,,,,,,,,,,,,,,,,,,,,,,,,,,,,,,,,,,,,,,,,,,,,,,,,,,,,,,,,,,,,,,,,,,,,,,,,,,,,,,,,,,,,,,,,,,,,,,,,,,,,,,,,,,,,,,,,,,,,,,,,,,,,,,,,,,,,,,,,,,,,,
0,31,31,56,1,,61717173748006894b2b54ff,62bc1818c0dd6da28def5bb5,2022-06-29_11h43.25.783,Colour_Asymmetry_Pilot,2022.1.3,Win32,59.76571838,62bbe60bf3d75ef465d3e404,,,,,,,,,,,,,,,,,,,,,,,,,,,,,,,,,,,,,,,,,,,,,,,,,,,,,,,,,,,,,,,,,,,,,,,,,,,,,,,,,,,,,,,,,,,,,,,,,,,,,,,,,,,,,,,,,,,,,,,,,,,,,,,,,,,,,,,,,,,,,,,,,,,,,,,,,,,,,,
0,32,32,87,1,,61717173748006894b2b54ff,62bc1818c0dd6da28def5bb5,2022-06-29_11h43.25.783,Colour_Asymmetry_Pilot,2022.1.3,Win32,59.76571838,62bbe60bf3d75ef465d3e404,,,,,,,,,,,,,,,,,,,,,,,,,,,,,,,,,,,,,,,,,,,,,,,,,,,,,,,,,,,,,,,,,,,,,,,,,,,,,,,,,,,,,,,,,,,,,,,,,,,,,,,,,,,,,,,,,,,,,,,,,,,,,,,,,,,,,,,,,,,,,,,,,,,,,,,,,,,,,,
0,33,33,79,1,,61717173748006894b2b54ff,62bc1818c0dd6da28def5bb5,2022-06-29_11h43.25.783,Colour_Asymmetry_Pilot,2022.1.3,Win32,59.76571838,62bbe60bf3d75ef465d3e404,,,,,,,,,,,,,,,,,,,,,,,,,,,,,,,,,,,,,,,,,,,,,,,,,,,,,,,,,,,,,,,,,,,,,,,,,,,,,,,,,,,,,,,,,,,,,,,,,,,,,,,,,,,,,,,,,,,,,,,,,,,,,,,,,,,,,,,,,,,,,,,,,,,,,,,,,,,,,,
0,34,34,10,1,,61717173748006894b2b54ff,62bc1818c0dd6da28def5bb5,2022-06-29_11h43.25.783,Colour_Asymmetry_Pilot,2022.1.3,Win32,59.76571838,62bbe60bf3d75ef465d3e404,,,,,,,,,,,,,,,,,,,,,,,,,,,,,,,,,,,,,,,,,,,,,,,,,,,,,,,,,,,,,,,,,,,,,,,,,,,,,,,,,,,,,,,,,,,,,,,,,,,,,,,,,,,,,,,,,,,,,,,,,,,,,,,,,,,,,,,,,,,,,,,,,,,,,,,,,,,,,,
0,35,35,86,1,,61717173748006894b2b54ff,62bc1818c0dd6da28def5bb5,2022-06-29_11h43.25.783,Colour_Asymmetry_Pilot,2022.1.3,Win32,59.76571838,62bbe60bf3d75ef465d3e404,,,,,,,,,,,,,,,,,,,,,,,,,,,,,,,,,,,,,,,,,,,,,,,,,,,,,,,,,,,,,,,,,,,,,,,,,,,,,,,,,,,,,,,,,,,,,,,,,,,,,,,,,,,,,,,,,,,,,,,,,,,,,,,,,,,,,,,,,,,,,,,,,,,,,,,,,,,,,,
0,36,36,57,1,,61717173748006894b2b54ff,62bc1818c0dd6da28def5bb5,2022-06-29_11h43.25.783,Colour_Asymmetry_Pilot,2022.1.3,Win32,59.76571838,62bbe60bf3d75ef465d3e404,,,,,,,,,,,,,,,,,,,,,,,,,,,,,,,,,,,,,,,,,,,,,,,,,,,,,,,,,,,,,,,,,,,,,,,,,,,,,,,,,,,,,,,,,,,,,,,,,,,,,,,,,,,,,,,,,,,,,,,,,,,,,,,,,,,,,,,,,,,,,,,,,,,,,,,,,,,,,,
0,37,37,34,1,,61717173748006894b2b54ff,62bc1818c0dd6da28def5bb5,2022-06-29_11h43.25.783,Colour_Asymmetry_Pilot,2022.1.3,Win32,59.76571838,62bbe60bf3d75ef465d3e404,,,,,,,,,,,,,,,,,,,,,,,,,,,,,,,,,,,,,,,,,,,,,,,,,,,,,,,,,,,,,,,,,,,,,,,,,,,,,,,,,,,,,,,,,,,,,,,,,,,,,,,,,,,,,,,,,,,,,,,,,,,,,,,,,,,,,,,,,,,,,,,,,,,,,,,,,,,,,,
0,38,38,0,1,,61717173748006894b2b54ff,62bc1818c0dd6da28def5bb5,2022-06-29_11h43.25.783,Colour_Asymmetry_Pilot,2022.1.3,Win32,59.76571838,62bbe60bf3d75ef465d3e404,,,,,,,,,,,,,,,,,,,,,,,,,,,,,,,,,,,,,,,,,,,,,,,,,,,,,,,,,,,,,,,,,,,,,,,,,,,,,,,,,,,,,,,,,,,,,,,,,,,,,,,,,,,,,,,,,,,,,,,,,,,,,,,,,,,,,,,,,,,,,,,,,,,,,,,,,,,,,,
0,39,39,77,1,,61717173748006894b2b54ff,62bc1818c0dd6da28def5bb5,2022-06-29_11h43.25.783,Colour_Asymmetry_Pilot,2022.1.3,Win32,59.76571838,62bbe60bf3d75ef465d3e404,,,,,,,,,,,,,,,,,,,,,,,,,,,,,,,,,,,,,,,,,,,,,,,,,,,,,,,,,,,,,,,,,,,,,,,,,,,,,,,,,,,,,,,,,,,,,,,,,,,,,,,,,,,,,,,,,,,,,,,,,,,,,,,,,,,,,,,,,,,,,,,,,,,,,,,,,,,,,,
0,40,40,30,1,,61717173748006894b2b54ff,62bc1818c0dd6da28def5bb5,2022-06-29_11h43.25.783,Colour_Asymmetry_Pilot,2022.1.3,Win32,59.76571838,62bbe60bf3d75ef465d3e404,,,,,,,,,,,,,,,,,,,,,,,,,,,,,,,,,,,,,,,,,,,,,,,,,,,,,,,,,,,,,,,,,,,,,,,,,,,,,,,,,,,,,,,,,,,,,,,,,,,,,,,,,,,,,,,,,,,,,,,,,,,,,,,,,,,,,,,,,,,,,,,,,,,,,,,,,,,,,,
0,41,41,26,1,,61717173748006894b2b54ff,62bc1818c0dd6da28def5bb5,2022-06-29_11h43.25.783,Colour_Asymmetry_Pilot,2022.1.3,Win32,59.76571838,62bbe60bf3d75ef465d3e404,,,,,,,,,,,,,,,,,,,,,,,,,,,,,,,,,,,,,,,,,,,,,,,,,,,,,,,,,,,,,,,,,,,,,,,,,,,,,,,,,,,,,,,,,,,,,,,,,,,,,,,,,,,,,,,,,,,,,,,,,,,,,,,,,,,,,,,,,,,,,,,,,,,,,,,,,,,,,,
0,42,42,40,1,,61717173748006894b2b54ff,62bc1818c0dd6da28def5bb5,2022-06-29_11h43.25.783,Colour_Asymmetry_Pilot,2022.1.3,Win32,59.76571838,62bbe60bf3d75ef465d3e404,,,,,,,,,,,,,,,,,,,,,,,,,,,,,,,,,,,,,,,,,,,,,,,,,,,,,,,,,,,,,,,,,,,,,,,,,,,,,,,,,,,,,,,,,,,,,,,,,,,,,,,,,,,,,,,,,,,,,,,,,,,,,,,,,,,,,,,,,,,,,,,,,,,,,,,,,,,,,,
0,43,43,73,1,,61717173748006894b2b54ff,62bc1818c0dd6da28def5bb5,2022-06-29_11h43.25.783,Colour_Asymmetry_Pilot,2022.1.3,Win32,59.76571838,62bbe60bf3d75ef465d3e404,,,,,,,,,,,,,,,,,,,,,,,,,,,,,,,,,,,,,,,,,,,,,,,,,,,,,,,,,,,,,,,,,,,,,,,,,,,,,,,,,,,,,,,,,,,,,,,,,,,,,,,,,,,,,,,,,,,,,,,,,,,,,,,,,,,,,,,,,,,,,,,,,,,,,,,,,,,,,,
0,44,44,53,1,,61717173748006894b2b54ff,62bc1818c0dd6da28def5bb5,2022-06-29_11h43.25.783,Colour_Asymmetry_Pilot,2022.1.3,Win32,59.76571838,62bbe60bf3d75ef465d3e404,,,,,,,,,,,,,,,,,,,,,,,,,,,,,,,,,,,,,,,,,,,,,,,,,,,,,,,,,,,,,,,,,,,,,,,,,,,,,,,,,,,,,,,,,,,,,,,,,,,,,,,,,,,,,,,,,,,,,,,,,,,,,,,,,,,,,,,,,,,,,,,,,,,,,,,,,,,,,,
0,45,45,2,1,,61717173748006894b2b54ff,62bc1818c0dd6da28def5bb5,2022-06-29_11h43.25.783,Colour_Asymmetry_Pilot,2022.1.3,Win32,59.76571838,62bbe60bf3d75ef465d3e404,,,,,,,,,,,,,,,,,,,,,,,,,,,,,,,,,,,,,,,,,,,,,,,,,,,,,,,,,,,,,,,,,,,,,,,,,,,,,,,,,,,,,,,,,,,,,,,,,,,,,,,,,,,,,,,,,,,,,,,,,,,,,,,,,,,,,,,,,,,,,,,,,,,,,,,,,,,,,,
0,46,46,70,1,,61717173748006894b2b54ff,62bc1818c0dd6da28def5bb5,2022-06-29_11h43.25.783,Colour_Asymmetry_Pilot,2022.1.3,Win32,59.76571838,62bbe60bf3d75ef465d3e404,,,,,,,,,,,,,,,,,,,,,,,,,,,,,,,,,,,,,,,,,,,,,,,,,,,,,,,,,,,,,,,,,,,,,,,,,,,,,,,,,,,,,,,,,,,,,,,,,,,,,,,,,,,,,,,,,,,,,,,,,,,,,,,,,,,,,,,,,,,,,,,,,,,,,,,,,,,,,,
0,47,47,61,1,,61717173748006894b2b54ff,62bc1818c0dd6da28def5bb5,2022-06-29_11h43.25.783,Colour_Asymmetry_Pilot,2022.1.3,Win32,59.76571838,62bbe60bf3d75ef465d3e404,,,,,,,,,,,,,,,,,,,,,,,,,,,,,,,,,,,,,,,,,,,,,,,,,,,,,,,,,,,,,,,,,,,,,,,,,,,,,,,,,,,,,,,,,,,,,,,,,,,,,,,,,,,,,,,,,,,,,,,,,,,,,,,,,,,,,,,,,,,,,,,,,,,,,,,,,,,,,,
0,48,48,52,1,,61717173748006894b2b54ff,62bc1818c0dd6da28def5bb5,2022-06-29_11h43.25.783,Colour_Asymmetry_Pilot,2022.1.3,Win32,59.76571838,62bbe60bf3d75ef465d3e404,,,,,,,,,,,,,,,,,,,,,,,,,,,,,,,,,,,,,,,,,,,,,,,,,,,,,,,,,,,,,,,,,,,,,,,,,,,,,,,,,,,,,,,,,,,,,,,,,,,,,,,,,,,,,,,,,,,,,,,,,,,,,,,,,,,,,,,,,,,,,,,,,,,,,,,,,,,,,,
0,49,49,12,1,,61717173748006894b2b54ff,62bc1818c0dd6da28def5bb5,2022-06-29_11h43.25.783,Colour_Asymmetry_Pilot,2022.1.3,Win32,59.76571838,62bbe60bf3d75ef465d3e404,,,,,,,,,,,,,,,,,,,,,,,,,,,,,,,,,,,,,,,,,,,,,,,,,,,,,,,,,,,,,,,,,,,,,,,,,,,,,,,,,,,,,,,,,,,,,,,,,,,,,,,,,,,,,,,,,,,,,,,,,,,,,,,,,,,,,,,,,,,,,,,,,,,,,,,,,,,,,,
0,50,50,33,1,,61717173748006894b2b54ff,62bc1818c0dd6da28def5bb5,2022-06-29_11h43.25.783,Colour_Asymmetry_Pilot,2022.1.3,Win32,59.76571838,62bbe60bf3d75ef465d3e404,,,,,,,,,,,,,,,,,,,,,,,,,,,,,,,,,,,,,,,,,,,,,,,,,,,,,,,,,,,,,,,,,,,,,,,,,,,,,,,,,,,,,,,,,,,,,,,,,,,,,,,,,,,,,,,,,,,,,,,,,,,,,,,,,,,,,,,,,,,,,,,,,,,,,,,,,,,,,,
0,51,51,91,1,,61717173748006894b2b54ff,62bc1818c0dd6da28def5bb5,2022-06-29_11h43.25.783,Colour_Asymmetry_Pilot,2022.1.3,Win32,59.76571838,62bbe60bf3d75ef465d3e404,,,,,,,,,,,,,,,,,,,,,,,,,,,,,,,,,,,,,,,,,,,,,,,,,,,,,,,,,,,,,,,,,,,,,,,,,,,,,,,,,,,,,,,,,,,,,,,,,,,,,,,,,,,,,,,,,,,,,,,,,,,,,,,,,,,,,,,,,,,,,,,,,,,,,,,,,,,,,,
0,52,52,41,1,,61717173748006894b2b54ff,62bc1818c0dd6da28def5bb5,2022-06-29_11h43.25.783,Colour_Asymmetry_Pilot,2022.1.3,Win32,59.76571838,62bbe60bf3d75ef465d3e404,,,,,,,,,,,,,,,,,,,,,,,,,,,,,,,,,,,,,,,,,,,,,,,,,,,,,,,,,,,,,,,,,,,,,,,,,,,,,,,,,,,,,,,,,,,,,,,,,,,,,,,,,,,,,,,,,,,,,,,,,,,,,,,,,,,,,,,,,,,,,,,,,,,,,,,,,,,,,,
0,53,53,23,1,,61717173748006894b2b54ff,62bc1818c0dd6da28def5bb5,2022-06-29_11h43.25.783,Colour_Asymmetry_Pilot,2022.1.3,Win32,59.76571838,62bbe60bf3d75ef465d3e404,,,,,,,,,,,,,,,,,,,,,,,,,,,,,,,,,,,,,,,,,,,,,,,,,,,,,,,,,,,,,,,,,,,,,,,,,,,,,,,,,,,,,,,,,,,,,,,,,,,,,,,,,,,,,,,,,,,,,,,,,,,,,,,,,,,,,,,,,,,,,,,,,,,,,,,,,,,,,,
0,54,54,3,1,,61717173748006894b2b54ff,62bc1818c0dd6da28def5bb5,2022-06-29_11h43.25.783,Colour_Asymmetry_Pilot,2022.1.3,Win32,59.76571838,62bbe60bf3d75ef465d3e404,,,,,,,,,,,,,,,,,,,,,,,,,,,,,,,,,,,,,,,,,,,,,,,,,,,,,,,,,,,,,,,,,,,,,,,,,,,,,,,,,,,,,,,,,,,,,,,,,,,,,,,,,,,,,,,,,,,,,,,,,,,,,,,,,,,,,,,,,,,,,,,,,,,,,,,,,,,,,,
0,55,55,19,1,,61717173748006894b2b54ff,62bc1818c0dd6da28def5bb5,2022-06-29_11h43.25.783,Colour_Asymmetry_Pilot,2022.1.3,Win32,59.76571838,62bbe60bf3d75ef465d3e404,,,,,,,,,,,,,,,,,,,,,,,,,,,,,,,,,,,,,,,,,,,,,,,,,,,,,,,,,,,,,,,,,,,,,,,,,,,,,,,,,,,,,,,,,,,,,,,,,,,,,,,,,,,,,,,,,,,,,,,,,,,,,,,,,,,,,,,,,,,,,,,,,,,,,,,,,,,,,,
0,56,56,67,1,,61717173748006894b2b54ff,62bc1818c0dd6da28def5bb5,2022-06-29_11h43.25.783,Colour_Asymmetry_Pilot,2022.1.3,Win32,59.76571838,62bbe60bf3d75ef465d3e404,,,,,,,,,,,,,,,,,,,,,,,,,,,,,,,,,,,,,,,,,,,,,,,,,,,,,,,,,,,,,,,,,,,,,,,,,,,,,,,,,,,,,,,,,,,,,,,,,,,,,,,,,,,,,,,,,,,,,,,,,,,,,,,,,,,,,,,,,,,,,,,,,,,,,,,,,,,,,,
0,57,57,6,1,,61717173748006894b2b54ff,62bc1818c0dd6da28def5bb5,2022-06-29_11h43.25.783,Colour_Asymmetry_Pilot,2022.1.3,Win32,59.76571838,62bbe60bf3d75ef465d3e404,,,,,,,,,,,,,,,,,,,,,,,,,,,,,,,,,,,,,,,,,,,,,,,,,,,,,,,,,,,,,,,,,,,,,,,,,,,,,,,,,,,,,,,,,,,,,,,,,,,,,,,,,,,,,,,,,,,,,,,,,,,,,,,,,,,,,,,,,,,,,,,,,,,,,,,,,,,,,,
0,58,58,28,1,,61717173748006894b2b54ff,62bc1818c0dd6da28def5bb5,2022-06-29_11h43.25.783,Colour_Asymmetry_Pilot,2022.1.3,Win32,59.76571838,62bbe60bf3d75ef465d3e404,,,,,,,,,,,,,,,,,,,,,,,,,,,,,,,,,,,,,,,,,,,,,,,,,,,,,,,,,,,,,,,,,,,,,,,,,,,,,,,,,,,,,,,,,,,,,,,,,,,,,,,,,,,,,,,,,,,,,,,,,,,,,,,,,,,,,,,,,,,,,,,,,,,,,,,,,,,,,,
0,59,59,48,1,,61717173748006894b2b54ff,62bc1818c0dd6da28def5bb5,2022-06-29_11h43.25.783,Colour_Asymmetry_Pilot,2022.1.3,Win32,59.76571838,62bbe60bf3d75ef465d3e404,,,,,,,,,,,,,,,,,,,,,,,,,,,,,,,,,,,,,,,,,,,,,,,,,,,,,,,,,,,,,,,,,,,,,,,,,,,,,,,,,,,,,,,,,,,,,,,,,,,,,,,,,,,,,,,,,,,,,,,,,,,,,,,,,,,,,,,,,,,,,,,,,,,,,,,,,,,,,,
0,60,60,8,1,,61717173748006894b2b54ff,62bc1818c0dd6da28def5bb5,2022-06-29_11h43.25.783,Colour_Asymmetry_Pilot,2022.1.3,Win32,59.76571838,62bbe60bf3d75ef465d3e404,,,,,,,,,,,,,,,,,,,,,,,,,,,,,,,,,,,,,,,,,,,,,,,,,,,,,,,,,,,,,,,,,,,,,,,,,,,,,,,,,,,,,,,,,,,,,,,,,,,,,,,,,,,,,,,,,,,,,,,,,,,,,,,,,,,,,,,,,,,,,,,,,,,,,,,,,,,,,,
0,61,61,21,1,,61717173748006894b2b54ff,62bc1818c0dd6da28def5bb5,2022-06-29_11h43.25.783,Colour_Asymmetry_Pilot,2022.1.3,Win32,59.76571838,62bbe60bf3d75ef465d3e404,,,,,,,,,,,,,,,,,,,,,,,,,,,,,,,,,,,,,,,,,,,,,,,,,,,,,,,,,,,,,,,,,,,,,,,,,,,,,,,,,,,,,,,,,,,,,,,,,,,,,,,,,,,,,,,,,,,,,,,,,,,,,,,,,,,,,,,,,,,,,,,,,,,,,,,,,,,,,,
0,62,62,11,1,,61717173748006894b2b54ff,62bc1818c0dd6da28def5bb5,2022-06-29_11h43.25.783,Colour_Asymmetry_Pilot,2022.1.3,Win32,59.76571838,62bbe60bf3d75ef465d3e404,,,,,,,,,,,,,,,,,,,,,,,,,,,,,,,,,,,,,,,,,,,,,,,,,,,,,,,,,,,,,,,,,,,,,,,,,,,,,,,,,,,,,,,,,,,,,,,,,,,,,,,,,,,,,,,,,,,,,,,,,,,,,,,,,,,,,,,,,,,,,,,,,,,,,,,,,,,,,,
0,63,63,38,1,,61717173748006894b2b54ff,62bc1818c0dd6da28def5bb5,2022-06-29_11h43.25.783,Colour_Asymmetry_Pilot,2022.1.3,Win32,59.76571838,62bbe60bf3d75ef465d3e404,,,,,,,,,,,,,,,,,,,,,,,,,,,,,,,,,,,,,,,,,,,,,,,,,,,,,,,,,,,,,,,,,,,,,,,,,,,,,,,,,,,,,,,,,,,,,,,,,,,,,,,,,,,,,,,,,,,,,,,,,,,,,,,,,,,,,,,,,,,,,,,,,,,,,,,,,,,,,,
0,64,64,59,1,,61717173748006894b2b54ff,62bc1818c0dd6da28def5bb5,2022-06-29_11h43.25.783,Colour_Asymmetry_Pilot,2022.1.3,Win32,59.76571838,62bbe60bf3d75ef465d3e404,,,,,,,,,,,,,,,,,,,,,,,,,,,,,,,,,,,,,,,,,,,,,,,,,,,,,,,,,,,,,,,,,,,,,,,,,,,,,,,,,,,,,,,,,,,,,,,,,,,,,,,,,,,,,,,,,,,,,,,,,,,,,,,,,,,,,,,,,,,,,,,,,,,,,,,,,,,,,,
0,65,65,32,1,,61717173748006894b2b54ff,62bc1818c0dd6da28def5bb5,2022-06-29_11h43.25.783,Colour_Asymmetry_Pilot,2022.1.3,Win32,59.76571838,62bbe60bf3d75ef465d3e404,,,,,,,,,,,,,,,,,,,,,,,,,,,,,,,,,,,,,,,,,,,,,,,,,,,,,,,,,,,,,,,,,,,,,,,,,,,,,,,,,,,,,,,,,,,,,,,,,,,,,,,,,,,,,,,,,,,,,,,,,,,,,,,,,,,,,,,,,,,,,,,,,,,,,,,,,,,,,,
0,66,66,31,1,,61717173748006894b2b54ff,62bc1818c0dd6da28def5bb5,2022-06-29_11h43.25.783,Colour_Asymmetry_Pilot,2022.1.3,Win32,59.76571838,62bbe60bf3d75ef465d3e404,,,,,,,,,,,,,,,,,,,,,,,,,,,,,,,,,,,,,,,,,,,,,,,,,,,,,,,,,,,,,,,,,,,,,,,,,,,,,,,,,,,,,,,,,,,,,,,,,,,,,,,,,,,,,,,,,,,,,,,,,,,,,,,,,,,,,,,,,,,,,,,,,,,,,,,,,,,,,,
0,67,67,60,1,,61717173748006894b2b54ff,62bc1818c0dd6da28def5bb5,2022-06-29_11h43.25.783,Colour_Asymmetry_Pilot,2022.1.3,Win32,59.76571838,62bbe60bf3d75ef465d3e404,,,,,,,,,,,,,,,,,,,,,,,,,,,,,,,,,,,,,,,,,,,,,,,,,,,,,,,,,,,,,,,,,,,,,,,,,,,,,,,,,,,,,,,,,,,,,,,,,,,,,,,,,,,,,,,,,,,,,,,,,,,,,,,,,,,,,,,,,,,,,,,,,,,,,,,,,,,,,,
0,68,68,64,1,,61717173748006894b2b54ff,62bc1818c0dd6da28def5bb5,2022-06-29_11h43.25.783,Colour_Asymmetry_Pilot,2022.1.3,Win32,59.76571838,62bbe60bf3d75ef465d3e404,,,,,,,,,,,,,,,,,,,,,,,,,,,,,,,,,,,,,,,,,,,,,,,,,,,,,,,,,,,,,,,,,,,,,,,,,,,,,,,,,,,,,,,,,,,,,,,,,,,,,,,,,,,,,,,,,,,,,,,,,,,,,,,,,,,,,,,,,,,,,,,,,,,,,,,,,,,,,,
0,69,69,47,1,,61717173748006894b2b54ff,62bc1818c0dd6da28def5bb5,2022-06-29_11h43.25.783,Colour_Asymmetry_Pilot,2022.1.3,Win32,59.76571838,62bbe60bf3d75ef465d3e404,,,,,,,,,,,,,,,,,,,,,,,,,,,,,,,,,,,,,,,,,,,,,,,,,,,,,,,,,,,,,,,,,,,,,,,,,,,,,,,,,,,,,,,,,,,,,,,,,,,,,,,,,,,,,,,,,,,,,,,,,,,,,,,,,,,,,,,,,,,,,,,,,,,,,,,,,,,,,,
0,70,70,75,1,,61717173748006894b2b54ff,62bc1818c0dd6da28def5bb5,2022-06-29_11h43.25.783,Colour_Asymmetry_Pilot,2022.1.3,Win32,59.76571838,62bbe60bf3d75ef465d3e404,,,,,,,,,,,,,,,,,,,,,,,,,,,,,,,,,,,,,,,,,,,,,,,,,,,,,,,,,,,,,,,,,,,,,,,,,,,,,,,,,,,,,,,,,,,,,,,,,,,,,,,,,,,,,,,,,,,,,,,,,,,,,,,,,,,,,,,,,,,,,,,,,,,,,,,,,,,,,,
0,71,71,7,1,,61717173748006894b2b54ff,62bc1818c0dd6da28def5bb5,2022-06-29_11h43.25.783,Colour_Asymmetry_Pilot,2022.1.3,Win32,59.76571838,62bbe60bf3d75ef465d3e404,,,,,,,,,,,,,,,,,,,,,,,,,,,,,,,,,,,,,,,,,,,,,,,,,,,,,,,,,,,,,,,,,,,,,,,,,,,,,,,,,,,,,,,,,,,,,,,,,,,,,,,,,,,,,,,,,,,,,,,,,,,,,,,,,,,,,,,,,,,,,,,,,,,,,,,,,,,,,,
0,72,72,65,1,,61717173748006894b2b54ff,62bc1818c0dd6da28def5bb5,2022-06-29_11h43.25.783,Colour_Asymmetry_Pilot,2022.1.3,Win32,59.76571838,62bbe60bf3d75ef465d3e404,,,,,,,,,,,,,,,,,,,,,,,,,,,,,,,,,,,,,,,,,,,,,,,,,,,,,,,,,,,,,,,,,,,,,,,,,,,,,,,,,,,,,,,,,,,,,,,,,,,,,,,,,,,,,,,,,,,,,,,,,,,,,,,,,,,,,,,,,,,,,,,,,,,,,,,,,,,,,,
0,73,73,84,1,,61717173748006894b2b54ff,62bc1818c0dd6da28def5bb5,2022-06-29_11h43.25.783,Colour_Asymmetry_Pilot,2022.1.3,Win32,59.76571838,62bbe60bf3d75ef465d3e404,,,,,,,,,,,,,,,,,,,,,,,,,,,,,,,,,,,,,,,,,,,,,,,,,,,,,,,,,,,,,,,,,,,,,,,,,,,,,,,,,,,,,,,,,,,,,,,,,,,,,,,,,,,,,,,,,,,,,,,,,,,,,,,,,,,,,,,,,,,,,,,,,,,,,,,,,,,,,,
0,74,74,14,1,,61717173748006894b2b54ff,62bc1818c0dd6da28def5bb5,2022-06-29_11h43.25.783,Colour_Asymmetry_Pilot,2022.1.3,Win32,59.76571838,62bbe60bf3d75ef465d3e404,,,,,,,,,,,,,,,,,,,,,,,,,,,,,,,,,,,,,,,,,,,,,,,,,,,,,,,,,,,,,,,,,,,,,,,,,,,,,,,,,,,,,,,,,,,,,,,,,,,,,,,,,,,,,,,,,,,,,,,,,,,,,,,,,,,,,,,,,,,,,,,,,,,,,,,,,,,,,,
0,75,75,62,1,,61717173748006894b2b54ff,62bc1818c0dd6da28def5bb5,2022-06-29_11h43.25.783,Colour_Asymmetry_Pilot,2022.1.3,Win32,59.76571838,62bbe60bf3d75ef465d3e404,,,,,,,,,,,,,,,,,,,,,,,,,,,,,,,,,,,,,,,,,,,,,,,,,,,,,,,,,,,,,,,,,,,,,,,,,,,,,,,,,,,,,,,,,,,,,,,,,,,,,,,,,,,,,,,,,,,,,,,,,,,,,,,,,,,,,,,,,,,,,,,,,,,,,,,,,,,,,,
0,76,76,5,1,,61717173748006894b2b54ff,62bc1818c0dd6da28def5bb5,2022-06-29_11h43.25.783,Colour_Asymmetry_Pilot,2022.1.3,Win32,59.76571838,62bbe60bf3d75ef465d3e404,,,,,,,,,,,,,,,,,,,,,,,,,,,,,,,,,,,,,,,,,,,,,,,,,,,,,,,,,,,,,,,,,,,,,,,,,,,,,,,,,,,,,,,,,,,,,,,,,,,,,,,,,,,,,,,,,,,,,,,,,,,,,,,,,,,,,,,,,,,,,,,,,,,,,,,,,,,,,,
0,77,77,46,1,,61717173748006894b2b54ff,62bc1818c0dd6da28def5bb5,2022-06-29_11h43.25.783,Colour_Asymmetry_Pilot,2022.1.3,Win32,59.76571838,62bbe60bf3d75ef465d3e404,,,,,,,,,,,,,,,,,,,,,,,,,,,,,,,,,,,,,,,,,,,,,,,,,,,,,,,,,,,,,,,,,,,,,,,,,,,,,,,,,,,,,,,,,,,,,,,,,,,,,,,,,,,,,,,,,,,,,,,,,,,,,,,,,,,,,,,,,,,,,,,,,,,,,,,,,,,,,,
0,78,78,18,1,,61717173748006894b2b54ff,62bc1818c0dd6da28def5bb5,2022-06-29_11h43.25.783,Colour_Asymmetry_Pilot,2022.1.3,Win32,59.76571838,62bbe60bf3d75ef465d3e404,,,,,,,,,,,,,,,,,,,,,,,,,,,,,,,,,,,,,,,,,,,,,,,,,,,,,,,,,,,,,,,,,,,,,,,,,,,,,,,,,,,,,,,,,,,,,,,,,,,,,,,,,,,,,,,,,,,,,,,,,,,,,,,,,,,,,,,,,,,,,,,,,,,,,,,,,,,,,,
0,79,79,24,1,,61717173748006894b2b54ff,62bc1818c0dd6da28def5bb5,2022-06-29_11h43.25.783,Colour_Asymmetry_Pilot,2022.1.3,Win32,59.76571838,62bbe60bf3d75ef465d3e404,,,,,,,,,,,,,,,,,,,,,,,,,,,,,,,,,,,,,,,,,,,,,,,,,,,,,,,,,,,,,,,,,,,,,,,,,,,,,,,,,,,,,,,,,,,,,,,,,,,,,,,,,,,,,,,,,,,,,,,,,,,,,,,,,,,,,,,,,,,,,,,,,,,,,,,,,,,,,,
0,80,80,29,1,,61717173748006894b2b54ff,62bc1818c0dd6da28def5bb5,2022-06-29_11h43.25.783,Colour_Asymmetry_Pilot,2022.1.3,Win32,59.76571838,62bbe60bf3d75ef465d3e404,,,,,,,,,,,,,,,,,,,,,,,,,,,,,,,,,,,,,,,,,,,,,,,,,,,,,,,,,,,,,,,,,,,,,,,,,,,,,,,,,,,,,,,,,,,,,,,,,,,,,,,,,,,,,,,,,,,,,,,,,,,,,,,,,,,,,,,,,,,,,,,,,,,,,,,,,,,,,,
0,81,81,50,1,,61717173748006894b2b54ff,62bc1818c0dd6da28def5bb5,2022-06-29_11h43.25.783,Colour_Asymmetry_Pilot,2022.1.3,Win32,59.76571838,62bbe60bf3d75ef465d3e404,,,,,,,,,,,,,,,,,,,,,,,,,,,,,,,,,,,,,,,,,,,,,,,,,,,,,,,,,,,,,,,,,,,,,,,,,,,,,,,,,,,,,,,,,,,,,,,,,,,,,,,,,,,,,,,,,,,,,,,,,,,,,,,,,,,,,,,,,,,,,,,,,,,,,,,,,,,,,,
0,82,82,55,1,,61717173748006894b2b54ff,62bc1818c0dd6da28def5bb5,2022-06-29_11h43.25.783,Colour_Asymmetry_Pilot,2022.1.3,Win32,59.76571838,62bbe60bf3d75ef465d3e404,,,,,,,,,,,,,,,,,,,,,,,,,,,,,,,,,,,,,,,,,,,,,,,,,,,,,,,,,,,,,,,,,,,,,,,,,,,,,,,,,,,,,,,,,,,,,,,,,,,,,,,,,,,,,,,,,,,,,,,,,,,,,,,,,,,,,,,,,,,,,,,,,,,,,,,,,,,,,,
0,83,83,72,1,,61717173748006894b2b54ff,62bc1818c0dd6da28def5bb5,2022-06-29_11h43.25.783,Colour_Asymmetry_Pilot,2022.1.3,Win32,59.76571838,62bbe60bf3d75ef465d3e404,,,,,,,,,,,,,,,,,,,,,,,,,,,,,,,,,,,,,,,,,,,,,,,,,,,,,,,,,,,,,,,,,,,,,,,,,,,,,,,,,,,,,,,,,,,,,,,,,,,,,,,,,,,,,,,,,,,,,,,,,,,,,,,,,,,,,,,,,,,,,,,,,,,,,,,,,,,,,,
0,84,84,45,1,,61717173748006894b2b54ff,62bc1818c0dd6da28def5bb5,2022-06-29_11h43.25.783,Colour_Asymmetry_Pilot,2022.1.3,Win32,59.76571838,62bbe60bf3d75ef465d3e404,,,,,,,,,,,,,,,,,,,,,,,,,,,,,,,,,,,,,,,,,,,,,,,,,,,,,,,,,,,,,,,,,,,,,,,,,,,,,,,,,,,,,,,,,,,,,,,,,,,,,,,,,,,,,,,,,,,,,,,,,,,,,,,,,,,,,,,,,,,,,,,,,,,,,,,,,,,,,,
0,85,85,25,1,,61717173748006894b2b54ff,62bc1818c0dd6da28def5bb5,2022-06-29_11h43.25.783,Colour_Asymmetry_Pilot,2022.1.3,Win32,59.76571838,62bbe60bf3d75ef465d3e404,,,,,,,,,,,,,,,,,,,,,,,,,,,,,,,,,,,,,,,,,,,,,,,,,,,,,,,,,,,,,,,,,,,,,,,,,,,,,,,,,,,,,,,,,,,,,,,,,,,,,,,,,,,,,,,,,,,,,,,,,,,,,,,,,,,,,,,,,,,,,,,,,,,,,,,,,,,,,,
0,86,86,9,1,,61717173748006894b2b54ff,62bc1818c0dd6da28def5bb5,2022-06-29_11h43.25.783,Colour_Asymmetry_Pilot,2022.1.3,Win32,59.76571838,62bbe60bf3d75ef465d3e404,,,,,,,,,,,,,,,,,,,,,,,,,,,,,,,,,,,,,,,,,,,,,,,,,,,,,,,,,,,,,,,,,,,,,,,,,,,,,,,,,,,,,,,,,,,,,,,,,,,,,,,,,,,,,,,,,,,,,,,,,,,,,,,,,,,,,,,,,,,,,,,,,,,,,,,,,,,,,,
0,87,87,51,1,,61717173748006894b2b54ff,62bc1818c0dd6da28def5bb5,2022-06-29_11h43.25.783,Colour_Asymmetry_Pilot,2022.1.3,Win32,59.76571838,62bbe60bf3d75ef465d3e404,,,,,,,,,,,,,,,,,,,,,,,,,,,,,,,,,,,,,,,,,,,,,,,,,,,,,,,,,,,,,,,,,,,,,,,,,,,,,,,,,,,,,,,,,,,,,,,,,,,,,,,,,,,,,,,,,,,,,,,,,,,,,,,,,,,,,,,,,,,,,,,,,,,,,,,,,,,,,,
0,88,88,35,1,,61717173748006894b2b54ff,62bc1818c0dd6da28def5bb5,2022-06-29_11h43.25.783,Colour_Asymmetry_Pilot,2022.1.3,Win32,59.76571838,62bbe60bf3d75ef465d3e404,,,,,,,,,,,,,,,,,,,,,,,,,,,,,,,,,,,,,,,,,,,,,,,,,,,,,,,,,,,,,,,,,,,,,,,,,,,,,,,,,,,,,,,,,,,,,,,,,,,,,,,,,,,,,,,,,,,,,,,,,,,,,,,,,,,,,,,,,,,,,,,,,,,,,,,,,,,,,,
0,89,89,66,1,,61717173748006894b2b54ff,62bc1818c0dd6da28def5bb5,2022-06-29_11h43.25.783,Colour_Asymmetry_Pilot,2022.1.3,Win32,59.76571838,62bbe60bf3d75ef465d3e404,,,,,,,,,,,,,,,,,,,,,,,,,,,,,,,,,,,,,,,,,,,,,,,,,,,,,,,,,,,,,,,,,,,,,,,,,,,,,,,,,,,,,,,,,,,,,,,,,,,,,,,,,,,,,,,,,,,,,,,,,,,,,,,,,,,,,,,,,,,,,,,,,,,,,,,,,,,,,,
0,90,90,4,1,,61717173748006894b2b54ff,62bc1818c0dd6da28def5bb5,2022-06-29_11h43.25.783,Colour_Asymmetry_Pilot,2022.1.3,Win32,59.76571838,62bbe60bf3d75ef465d3e404,,,,,,,,,,,,,,,,,,,,,,,,,,,,,,,,,,,,,,,,,,,,,,,,,,,,,,,,,,,,,,,,,,,,,,,,,,,,,,,,,,,,,,,,,,,,,,,,,,,,,,,,,,,,,,,,,,,,,,,,,,,,,,,,,,,,,,,,,,,,,,,,,,,,,,,,,,,,,,
0,91,91,54,1,,61717173748006894b2b54ff,62bc1818c0dd6da28def5bb5,2022-06-29_11h43.25.783,Colour_Asymmetry_Pilot,2022.1.3,Win32,59.76571838,62bbe60bf3d75ef465d3e404,,,,,,,,,,,,,,,,,,,,,,,,,,,,,,,,,,,,,,,,,,,,,,,,,,,,,,,,,,,,,,,,,,,,,,,,,,,,,,,,,,,,,,,,,,,,,,,,,,,,,,,,,,,,,,,,,,,,,,,,,,,,,,,,,,,,,,,,,,,,,,,,,,,,,,,,,,,,,,
0,92,92,90,1,,61717173748006894b2b54ff,62bc1818c0dd6da28def5bb5,2022-06-29_11h43.25.783,Colour_Asymmetry_Pilot,2022.1.3,Win32,59.76571838,62bbe60bf3d75ef465d3e404,,,,,,,,,,,,,,,,,,,,,,,,,,,,,,,,,,,,,,,,,,,,,,,,,,,,,,,,,,,,,,,,,,,,,,,,,,,,,,,,,,,,,,,,,,,,,,,,,,,,,,,,,,,,,,,,,,,,,,,,,,,,,,,,,,,,,,,,,,,,,,,,,,,,,,,,,,,,,,
,,,,,,61717173748006894b2b54ff,62bc1818c0dd6da28def5bb5,2022-06-29_11h43.25.783,Colour_Asymmetry_Pilot,2022.1.3,Win32,59.76571838,62bbe60bf3d75ef465d3e404,0,0,0,5,1,threefour,,,,,,,,,,,,,,,,,,,,,,,,,,,,,,,,,,,,,,,,,,,,,,,,,,,,,,,,,,,,,,,,,,,,,,,,,,,,,,,,,,,,,,,,,,,,,,,,,,,,,,,,,,,,,,,,,,,,,,,,,,,,,,,,,,,,,,,,,,,,,,,,,,,,,,,,
,,,,,,61717173748006894b2b54ff,62bc1818c0dd6da28def5bb5,2022-06-29_11h43.25.783,Colour_Asymmetry_Pilot,2022.1.3,Win32,59.76571838,62bbe60bf3d75ef465d3e404,0,1,1,34,1,twoone,,,,,,,,,,,,,,,,,,,,,,,,,,,,,,,,,,,,,,,,,,,,,,,,,,,,,,,,,,,,,,,,,,,,,,,,,,,,,,,,,,,,,,,,,,,,,,,,,,,,,,,,,,,,,,,,,,,,,,,,,,,,,,,,,,,,,,,,,,,,,,,,,,,,,,,,
,,,,,,61717173748006894b2b54ff,62bc1818c0dd6da28def5bb5,2022-06-29_11h43.25.783,Colour_Asymmetry_Pilot,2022.1.3,Win32,59.76571838,62bbe60bf3d75ef465d3e404,0,2,2,39,1,fourthree,,,,,,,,,,,,,,,,,,,,,,,,,,,,,,,,,,,,,,,,,,,,,,,,,,,,,,,,,,,,,,,,,,,,,,,,,,,,,,,,,,,,,,,,,,,,,,,,,,,,,,,,,,,,,,,,,,,,,,,,,,,,,,,,,,,,,,,,,,,,,,,,,,,,,,,,
,,,,,,61717173748006894b2b54ff,62bc1818c0dd6da28def5bb5,2022-06-29_11h43.25.783,Colour_Asymmetry_Pilot,2022.1.3,Win32,59.76571838,62bbe60bf3d75ef465d3e404,0,3,3,56,1,onetwo,,,,,,,,,,,,,,,,,,,,,,,,,,,,,,,,,,,,,,,,,,,,,,,,,,,,,,,,,,,,,,,,,,,,,,,,,,,,,,,,,,,,,,,,,,,,,,,,,,,,,,,,,,,,,,,,,,,,,,,,,,,,,,,,,,,,,,,,,,,,,,,,,,,,,,,,
,,,,,,61717173748006894b2b54ff,62bc1818c0dd6da28def5bb5,2022-06-29_11h43.25.783,Colour_Asymmetry_Pilot,2022.1.3,Win32,59.76571838,62bbe60bf3d75ef465d3e404,0,4,4,32,1,onetwo,,,,,,,,,,,,,,,,,,,,,,,,,,,,,,,,,,,,,,,,,,,,,,,,,,,,,,,,,,,,,,,,,,,,,,,,,,,,,,,,,,,,,,,,,,,,,,,,,,,,,,,,,,,,,,,,,,,,,,,,,,,,,,,,,,,,,,,,,,,,,,,,,,,,,,,,
,,,,,,61717173748006894b2b54ff,62bc1818c0dd6da28def5bb5,2022-06-29_11h43.25.783,Colour_Asymmetry_Pilot,2022.1.3,Win32,59.76571838,62bbe60bf3d75ef465d3e404,0,5,5,90,1,twoone,,,,,,,,,,,,,,,,,,,,,,,,,,,,,,,,,,,,,,,,,,,,,,,,,,,,,,,,,,,,,,,,,,,,,,,,,,,,,,,,,,,,,,,,,,,,,,,,,,,,,,,,,,,,,,,,,,,,,,,,,,,,,,,,,,,,,,,,,,,,,,,,,,,,,,,,
,,,,,,61717173748006894b2b54ff,62bc1818c0dd6da28def5bb5,2022-06-29_11h43.25.783,Colour_Asymmetry_Pilot,2022.1.3,Win32,59.76571838,62bbe60bf3d75ef465d3e404,0,6,6,86,1,fourtwo,,,,,,,,,,,,,,,,,,,,,,,,,,,,,,,,,,,,,,,,,,,,,,,,,,,,,,,,,,,,,,,,,,,,,,,,,,,,,,,,,,,,,,,,,,,,,,,,,,,,,,,,,,,,,,,,,,,,,,,,,,,,,,,,,,,,,,,,,,,,,,,,,,,,,,,,
,,,,,,61717173748006894b2b54ff,62bc1818c0dd6da28def5bb5,2022-06-29_11h43.25.783,Colour_Asymmetry_Pilot,2022.1.3,Win32,59.76571838,62bbe60bf3d75ef465d3e404,0,7,7,111,1,fourthree,,,,,,,,,,,,,,,,,,,,,,,,,,,,,,,,,,,,,,,,,,,,,,,,,,,,,,,,,,,,,,,,,,,,,,,,,,,,,,,,,,,,,,,,,,,,,,,,,,,,,,,,,,,,,,,,,,,,,,,,,,,,,,,,,,,,,,,,,,,,,,,,,,,,,,,,
,,,,,,61717173748006894b2b54ff,62bc1818c0dd6da28def5bb5,2022-06-29_11h43.25.783,Colour_Asymmetry_Pilot,2022.1.3,Win32,59.76571838,62bbe60bf3d75ef465d3e404,0,8,8,110,1,fourtwo,,,,,,,,,,,,,,,,,,,,,,,,,,,,,,,,,,,,,,,,,,,,,,,,,,,,,,,,,,,,,,,,,,,,,,,,,,,,,,,,,,,,,,,,,,,,,,,,,,,,,,,,,,,,,,,,,,,,,,,,,,,,,,,,,,,,,,,,,,,,,,,,,,,,,,,,
,,,,,,61717173748006894b2b54ff,62bc1818c0dd6da28def5bb5,2022-06-29_11h43.25.783,Colour_Asymmetry_Pilot,2022.1.3,Win32,59.76571838,62bbe60bf3d75ef465d3e404,0,9,9,108,1,threeone,,,,,,,,,,,,,,,,,,,,,,,,,,,,,,,,,,,,,,,,,,,,,,,,,,,,,,,,,,,,,,,,,,,,,,,,,,,,,,,,,,,,,,,,,,,,,,,,,,,,,,,,,,,,,,,,,,,,,,,,,,,,,,,,,,,,,,,,,,,,,,,,,,,,,,,,
,,,,,,61717173748006894b2b54ff,62bc1818c0dd6da28def5bb5,2022-06-29_11h43.25.783,Colour_Asymmetry_Pilot,2022.1.3,Win32,59.76571838,62bbe60bf3d75ef465d3e404,0,10,10,145,1,onethree,,,,,,,,,,,,,,,,,,,,,,,,,,,,,,,,,,,,,,,,,,,,,,,,,,,,,,,,,,,,,,,,,,,,,,,,,,,,,,,,,,,,,,,,,,,,,,,,,,,,,,,,,,,,,,,,,,,,,,,,,,,,,,,,,,,,,,,,,,,,,,,,,,,,,,,,
,,,,,,61717173748006894b2b54ff,62bc1818c0dd6da28def5bb5,2022-06-29_11h43.25.783,Colour_Asymmetry_Pilot,2022.1.3,Win32,59.76571838,62bbe60bf3d75ef465d3e404,0,11,11,20,1,threeone,,,,,,,,,,,,,,,,,,,,,,,,,,,,,,,,,,,,,,,,,,,,,,,,,,,,,,,,,,,,,,,,,,,,,,,,,,,,,,,,,,,,,,,,,,,,,,,,,,,,,,,,,,,,,,,,,,,,,,,,,,,,,,,,,,,,,,,,,,,,,,,,,,,,,,,,
,,,,,,61717173748006894b2b54ff,62bc1818c0dd6da28def5bb5,2022-06-29_11h43.25.783,Colour_Asymmetry_Pilot,2022.1.3,Win32,59.76571838,62bbe60bf3d75ef465d3e404,0,12,12,97,1,onethree,,,,,,,,,,,,,,,,,,,,,,,,,,,,,,,,,,,,,,,,,,,,,,,,,,,,,,,,,,,,,,,,,,,,,,,,,,,,,,,,,,,,,,,,,,,,,,,,,,,,,,,,,,,,,,,,,,,,,,,,,,,,,,,,,,,,,,,,,,,,,,,,,,,,,,,,
,,,,,,61717173748006894b2b54ff,62bc1818c0dd6da28def5bb5,2022-06-29_11h43.25.783,Colour_Asymmetry_Pilot,2022.1.3,Win32,59.76571838,62bbe60bf3d75ef465d3e404,0,13,13,129,1,onethree,,,,,,,,,,,,,,,,,,,,,,,,,,,,,,,,,,,,,,,,,,,,,,,,,,,,,,,,,,,,,,,,,,,,,,,,,,,,,,,,,,,,,,,,,,,,,,,,,,,,,,,,,,,,,,,,,,,,,,,,,,,,,,,,,,,,,,,,,,,,,,,,,,,,,,,,
,,,,,,61717173748006894b2b54ff,62bc1818c0dd6da28def5bb5,2022-06-29_11h43.25.783,Colour_Asymmetry_Pilot,2022.1.3,Win32,59.76571838,62bbe60bf3d75ef465d3e404,0,14,14,40,1,onetwo,,,,,,,,,,,,,,,,,,,,,,,,,,,,,,,,,,,,,,,,,,,,,,,,,,,,,,,,,,,,,,,,,,,,,,,,,,,,,,,,,,,,,,,,,,,,,,,,,,,,,,,,,,,,,,,,,,,,,,,,,,,,,,,,,,,,,,,,,,,,,,,,,,,,,,,,
,,,,,,61717173748006894b2b54ff,62bc1818c0dd6da28def5bb5,2022-06-29_11h43.25.783,Colour_Asymmetry_Pilot,2022.1.3,Win32,59.76571838,62bbe60bf3d75ef465d3e404,0,15,15,80,1,onetwo,,,,,,,,,,,,,,,,,,,,,,,,,,,,,,,,,,,,,,,,,,,,,,,,,,,,,,,,,,,,,,,,,,,,,,,,,,,,,,,,,,,,,,,,,,,,,,,,,,,,,,,,,,,,,,,,,,,,,,,,,,,,,,,,,,,,,,,,,,,,,,,,,,,,,,,,
,,,,,,61717173748006894b2b54ff,62bc1818c0dd6da28def5bb5,2022-06-29_11h43.25.783,Colour_Asymmetry_Pilot,2022.1.3,Win32,59.76571838,62bbe60bf3d75ef465d3e404,0,16,16,35,1,twofour,,,,,,,,,,,,,,,,,,,,,,,,,,,,,,,,,,,,,,,,,,,,,,,,,,,,,,,,,,,,,,,,,,,,,,,,,,,,,,,,,,,,,,,,,,,,,,,,,,,,,,,,,,,,,,,,,,,,,,,,,,,,,,,,,,,,,,,,,,,,,,,,,,,,,,,,
,,,,,,61717173748006894b2b54ff,62bc1818c0dd6da28def5bb5,2022-06-29_11h43.25.783,Colour_Asymmetry_Pilot,2022.1.3,Win32,59.76571838,62bbe60bf3d75ef465d3e404,0,17,17,112,1,onetwo,,,,,,,,,,,,,,,,,,,,,,,,,,,,,,,,,,,,,,,,,,,,,,,,,,,,,,,,,,,,,,,,,,,,,,,,,,,,,,,,,,,,,,,,,,,,,,,,,,,,,,,,,,,,,,,,,,,,,,,,,,,,,,,,,,,,,,,,,,,,,,,,,,,,,,,,
,,,,,,61717173748006894b2b54ff,62bc1818c0dd6da28def5bb5,2022-06-29_11h43.25.783,Colour_Asymmetry_Pilot,2022.1.3,Win32,59.76571838,62bbe60bf3d75ef465d3e404,0,18,18,101,1,threefour,,,,,,,,,,,,,,,,,,,,,,,,,,,,,,,,,,,,,,,,,,,,,,,,,,,,,,,,,,,,,,,,,,,,,,,,,,,,,,,,,,,,,,,,,,,,,,,,,,,,,,,,,,,,,,,,,,,,,,,,,,,,,,,,,,,,,,,,,,,,,,,,,,,,,,,,
,,,,,,61717173748006894b2b54ff,62bc1818c0dd6da28def5bb5,2022-06-29_11h43.25.783,Colour_Asymmetry_Pilot,2022.1.3,Win32,59.76571838,62bbe60bf3d75ef465d3e404,0,19,19,126,1,fourtwo,,,,,,,,,,,,,,,,,,,,,,,,,,,,,,,,,,,,,,,,,,,,,,,,,,,,,,,,,,,,,,,,,,,,,,,,,,,,,,,,,,,,,,,,,,,,,,,,,,,,,,,,,,,,,,,,,,,,,,,,,,,,,,,,,,,,,,,,,,,,,,,,,,,,,,,,
,,,,,,61717173748006894b2b54ff,62bc1818c0dd6da28def5bb5,2022-06-29_11h43.25.783,Colour_Asymmetry_Pilot,2022.1.3,Win32,59.76571838,62bbe60bf3d75ef465d3e404,0,20,20,88,1,onetwo,,,,,,,,,,,,,,,,,,,,,,,,,,,,,,,,,,,,,,,,,,,,,,,,,,,,,,,,,,,,,,,,,,,,,,,,,,,,,,,,,,,,,,,,,,,,,,,,,,,,,,,,,,,,,,,,,,,,,,,,,,,,,,,,,,,,,,,,,,,,,,,,,,,,,,,,
,,,,,,61717173748006894b2b54ff,62bc1818c0dd6da28def5bb5,2022-06-29_11h43.25.783,Colour_Asymmetry_Pilot,2022.1.3,Win32,59.76571838,62bbe60bf3d75ef465d3e404,0,21,21,158,1,fourtwo,,,,,,,,,,,,,,,,,,,,,,,,,,,,,,,,,,,,,,,,,,,,,,,,,,,,,,,,,,,,,,,,,,,,,,,,,,,,,,,,,,,,,,,,,,,,,,,,,,,,,,,,,,,,,,,,,,,,,,,,,,,,,,,,,,,,,,,,,,,,,,,,,,,,,,,,
,,,,,,61717173748006894b2b54ff,62bc1818c0dd6da28def5bb5,2022-06-29_11h43.25.783,Colour_Asymmetry_Pilot,2022.1.3,Win32,59.76571838,62bbe60bf3d75ef465d3e404,0,22,22,41,1,onethree,,,,,,,,,,,,,,,,,,,,,,,,,,,,,,,,,,,,,,,,,,,,,,,,,,,,,,,,,,,,,,,,,,,,,,,,,,,,,,,,,,,,,,,,,,,,,,,,,,,,,,,,,,,,,,,,,,,,,,,,,,,,,,,,,,,,,,,,,,,,,,,,,,,,,,,,
,,,,,,61717173748006894b2b54ff,62bc1818c0dd6da28def5bb5,2022-06-29_11h43.25.783,Colour_Asymmetry_Pilot,2022.1.3,Win32,59.76571838,62bbe60bf3d75ef465d3e404,0,23,23,60,1,threeone,,,,,,,,,,,,,,,,,,,,,,,,,,,,,,,,,,,,,,,,,,,,,,,,,,,,,,,,,,,,,,,,,,,,,,,,,,,,,,,,,,,,,,,,,,,,,,,,,,,,,,,,,,,,,,,,,,,,,,,,,,,,,,,,,,,,,,,,,,,,,,,,,,,,,,,,
,,,,,,61717173748006894b2b54ff,62bc1818c0dd6da28def5bb5,2022-06-29_11h43.25.783,Colour_Asymmetry_Pilot,2022.1.3,Win32,59.76571838,62bbe60bf3d75ef465d3e404,0,24,24,73,1,onethree,,,,,,,,,,,,,,,,,,,,,,,,,,,,,,,,,,,,,,,,,,,,,,,,,,,,,,,,,,,,,,,,,,,,,,,,,,,,,,,,,,,,,,,,,,,,,,,,,,,,,,,,,,,,,,,,,,,,,,,,,,,,,,,,,,,,,,,,,,,,,,,,,,,,,,,,
,,,,,,61717173748006894b2b54ff,62bc1818c0dd6da28def5bb5,2022-06-29_11h43.25.783,Colour_Asymmetry_Pilot,2022.1.3,Win32,59.76571838,62bbe60bf3d75ef465d3e404,0,25,25,14,1,fourtwo,,,,,,,,,,,,,,,,,,,,,,,,,,,,,,,,,,,,,,,,,,,,,,,,,,,,,,,,,,,,,,,,,,,,,,,,,,,,,,,,,,,,,,,,,,,,,,,,,,,,,,,,,,,,,,,,,,,,,,,,,,,,,,,,,,,,,,,,,,,,,,,,,,,,,,,,
,,,,,,61717173748006894b2b54ff,62bc1818c0dd6da28def5bb5,2022-06-29_11h43.25.783,Colour_Asymmetry_Pilot,2022.1.3,Win32,59.76571838,62bbe60bf3d75ef465d3e404,0,26,26,42,1,twoone,,,,,,,,,,,,,,,,,,,,,,,,,,,,,,,,,,,,,,,,,,,,,,,,,,,,,,,,,,,,,,,,,,,,,,,,,,,,,,,,,,,,,,,,,,,,,,,,,,,,,,,,,,,,,,,,,,,,,,,,,,,,,,,,,,,,,,,,,,,,,,,,,,,,,,,,
,,,,,,61717173748006894b2b54ff,62bc1818c0dd6da28def5bb5,2022-06-29_11h43.25.783,Colour_Asymmetry_Pilot,2022.1.3,Win32,59.76571838,62bbe60bf3d75ef465d3e404,0,27,27,69,1,threefour,,,,,,,,,,,,,,,,,,,,,,,,,,,,,,,,,,,,,,,,,,,,,,,,,,,,,,,,,,,,,,,,,,,,,,,,,,,,,,,,,,,,,,,,,,,,,,,,,,,,,,,,,,,,,,,,,,,,,,,,,,,,,,,,,,,,,,,,,,,,,,,,,,,,,,,,
,,,,,,61717173748006894b2b54ff,62bc1818c0dd6da28def5bb5,2022-06-29_11h43.25.783,Colour_Asymmetry_Pilot,2022.1.3,Win32,59.76571838,62bbe60bf3d75ef465d3e404,0,28,28,75,1,twofour,,,,,,,,,,,,,,,,,,,,,,,,,,,,,,,,,,,,,,,,,,,,,,,,,,,,,,,,,,,,,,,,,,,,,,,,,,,,,,,,,,,,,,,,,,,,,,,,,,,,,,,,,,,,,,,,,,,,,,,,,,,,,,,,,,,,,,,,,,,,,,,,,,,,,,,,
,,,,,,61717173748006894b2b54ff,62bc1818c0dd6da28def5bb5,2022-06-29_11h43.25.783,Colour_Asymmetry_Pilot,2022.1.3,Win32,59.76571838,62bbe60bf3d75ef465d3e404,0,29,29,105,1,onethree,,,,,,,,,,,,,,,,,,,,,,,,,,,,,,,,,,,,,,,,,,,,,,,,,,,,,,,,,,,,,,,,,,,,,,,,,,,,,,,,,,,,,,,,,,,,,,,,,,,,,,,,,,,,,,,,,,,,,,,,,,,,,,,,,,,,,,,,,,,,,,,,,,,,,,,,
,,,,,,61717173748006894b2b54ff,62bc1818c0dd6da28def5bb5,2022-06-29_11h43.25.783,Colour_Asymmetry_Pilot,2022.1.3,Win32,59.76571838,62bbe60bf3d75ef465d3e404,0,30,30,8,1,onetwo,,,,,,,,,,,,,,,,,,,,,,,,,,,,,,,,,,,,,,,,,,,,,,,,,,,,,,,,,,,,,,,,,,,,,,,,,,,,,,,,,,,,,,,,,,,,,,,,,,,,,,,,,,,,,,,,,,,,,,,,,,,,,,,,,,,,,,,,,,,,,,,,,,,,,,,,
,,,,,,61717173748006894b2b54ff,62bc1818c0dd6da28def5bb5,2022-06-29_11h43.25.783,Colour_Asymmetry_Pilot,2022.1.3,Win32,59.76571838,62bbe60bf3d75ef465d3e404,0,31,31,19,1,twofour,,,,,,,,,,,,,,,,,,,,,,,,,,,,,,,,,,,,,,,,,,,,,,,,,,,,,,,,,,,,,,,,,,,,,,,,,,,,,,,,,,,,,,,,,,,,,,,,,,,,,,,,,,,,,,,,,,,,,,,,,,,,,,,,,,,,,,,,,,,,,,,,,,,,,,,,
,,,,,,61717173748006894b2b54ff,62bc1818c0dd6da28def5bb5,2022-06-29_11h43.25.783,Colour_Asymmetry_Pilot,2022.1.3,Win32,59.76571838,62bbe60bf3d75ef465d3e404,0,32,32,52,1,threeone,,,,,,,,,,,,,,,,,,,,,,,,,,,,,,,,,,,,,,,,,,,,,,,,,,,,,,,,,,,,,,,,,,,,,,,,,,,,,,,,,,,,,,,,,,,,,,,,,,,,,,,,,,,,,,,,,,,,,,,,,,,,,,,,,,,,,,,,,,,,,,,,,,,,,,,,
,,,,,,61717173748006894b2b54ff,62bc1818c0dd6da28def5bb5,2022-06-29_11h43.25.783,Colour_Asymmetry_Pilot,2022.1.3,Win32,59.76571838,62bbe60bf3d75ef465d3e404,0,33,33,66,1,twoone,,,,,,,,,,,,,,,,,,,,,,,,,,,,,,,,,,,,,,,,,,,,,,,,,,,,,,,,,,,,,,,,,,,,,,,,,,,,,,,,,,,,,,,,,,,,,,,,,,,,,,,,,,,,,,,,,,,,,,,,,,,,,,,,,,,,,,,,,,,,,,,,,,,,,,,,
,,,,,,61717173748006894b2b54ff,62bc1818c0dd6da28def5bb5,2022-06-29_11h43.25.783,Colour_Asymmetry_Pilot,2022.1.3,Win32,59.76571838,62bbe60bf3d75ef465d3e404,0,34,34,30,1,fourtwo,,,,,,,,,,,,,,,,,,,,,,,,,,,,,,,,,,,,,,,,,,,,,,,,,,,,,,,,,,,,,,,,,,,,,,,,,,,,,,,,,,,,,,,,,,,,,,,,,,,,,,,,,,,,,,,,,,,,,,,,,,,,,,,,,,,,,,,,,,,,,,,,,,,,,,,,
,,,,,,61717173748006894b2b54ff,62bc1818c0dd6da28def5bb5,2022-06-29_11h43.25.783,Colour_Asymmetry_Pilot,2022.1.3,Win32,59.76571838,62bbe60bf3d75ef465d3e404,0,35,35,6,1,fourtwo,,,,,,,,,,,,,,,,,,,,,,,,,,,,,,,,,,,,,,,,,,,,,,,,,,,,,,,,,,,,,,,,,,,,,,,,,,,,,,,,,,,,,,,,,,,,,,,,,,,,,,,,,,,,,,,,,,,,,,,,,,,,,,,,,,,,,,,,,,,,,,,,,,,,,,,,
,,,,,,61717173748006894b2b54ff,62bc1818c0dd6da28def5bb5,2022-06-29_11h43.25.783,Colour_Asymmetry_Pilot,2022.1.3,Win32,59.76571838,62bbe60bf3d75ef465d3e404,0,36,36,100,1,threeone,,,,,,,,,,,,,,,,,,,,,,,,,,,,,,,,,,,,,,,,,,,,,,,,,,,,,,,,,,,,,,,,,,,,,,,,,,,,,,,,,,,,,,,,,,,,,,,,,,,,,,,,,,,,,,,,,,,,,,,,,,,,,,,,,,,,,,,,,,,,,,,,,,,,,,,,
,,,,,,61717173748006894b2b54ff,62bc1818c0dd6da28def5bb5,2022-06-29_11h43.25.783,Colour_Asymmetry_Pilot,2022.1.3,Win32,59.76571838,62bbe60bf3d75ef465d3e404,0,37,37,113,1,onethree,,,,,,,,,,,,,,,,,,,,,,,,,,,,,,,,,,,,,,,,,,,,,,,,,,,,,,,,,,,,,,,,,,,,,,,,,,,,,,,,,,,,,,,,,,,,,,,,,,,,,,,,,,,,,,,,,,,,,,,,,,,,,,,,,,,,,,,,,,,,,,,,,,,,,,,,
,,,,,,61717173748006894b2b54ff,62bc1818c0dd6da28def5bb5,2022-06-29_11h43.25.783,Colour_Asymmetry_Pilot,2022.1.3,Win32,59.76571838,62bbe60bf3d75ef465d3e404,0,38,38,51,1,twofour,,,,,,,,,,,,,,,,,,,,,,,,,,,,,,,,,,,,,,,,,,,,,,,,,,,,,,,,,,,,,,,,,,,,,,,,,,,,,,,,,,,,,,,,,,,,,,,,,,,,,,,,,,,,,,,,,,,,,,,,,,,,,,,,,,,,,,,,,,,,,,,,,,,,,,,,
,,,,,,61717173748006894b2b54ff,62bc1818c0dd6da28def5bb5,2022-06-29_11h43.25.783,Colour_Asymmetry_Pilot,2022.1.3,Win32,59.76571838,62bbe60bf3d75ef465d3e404,0,39,39,150,1,fourtwo,,,,,,,,,,,,,,,,,,,,,,,,,,,,,,,,,,,,,,,,,,,,,,,,,,,,,,,,,,,,,,,,,,,,,,,,,,,,,,,,,,,,,,,,,,,,,,,,,,,,,,,,,,,,,,,,,,,,,,,,,,,,,,,,,,,,,,,,,,,,,,,,,,,,,,,,
,,,,,,61717173748006894b2b54ff,62bc1818c0dd6da28def5bb5,2022-06-29_11h43.25.783,Colour_Asymmetry_Pilot,2022.1.3,Win32,59.76571838,62bbe60bf3d75ef465d3e404,0,40,40,43,1,twofour,,,,,,,,,,,,,,,,,,,,,,,,,,,,,,,,,,,,,,,,,,,,,,,,,,,,,,,,,,,,,,,,,,,,,,,,,,,,,,,,,,,,,,,,,,,,,,,,,,,,,,,,,,,,,,,,,,,,,,,,,,,,,,,,,,,,,,,,,,,,,,,,,,,,,,,,
,,,,,,61717173748006894b2b54ff,62bc1818c0dd6da28def5bb5,2022-06-29_11h43.25.783,Colour_Asymmetry_Pilot,2022.1.3,Win32,59.76571838,62bbe60bf3d75ef465d3e404,0,41,41,140,1,threeone,,,,,,,,,,,,,,,,,,,,,,,,,,,,,,,,,,,,,,,,,,,,,,,,,,,,,,,,,,,,,,,,,,,,,,,,,,,,,,,,,,,,,,,,,,,,,,,,,,,,,,,,,,,,,,,,,,,,,,,,,,,,,,,,,,,,,,,,,,,,,,,,,,,,,,,,
,,,,,,61717173748006894b2b54ff,62bc1818c0dd6da28def5bb5,2022-06-29_11h43.25.783,Colour_Asymmetry_Pilot,2022.1.3,Win32,59.76571838,62bbe60bf3d75ef465d3e404,0,42,42,62,1,fourtwo,,,,,,,,,,,,,,,,,,,,,,,,,,,,,,,,,,,,,,,,,,,,,,,,,,,,,,,,,,,,,,,,,,,,,,,,,,,,,,,,,,,,,,,,,,,,,,,,,,,,,,,,,,,,,,,,,,,,,,,,,,,,,,,,,,,,,,,,,,,,,,,,,,,,,,,,
,,,,,,61717173748006894b2b54ff,62bc1818c0dd6da28def5bb5,2022-06-29_11h43.25.783,Colour_Asymmetry_Pilot,2022.1.3,Win32,59.76571838,62bbe60bf3d75ef465d3e404,0,43,43,59,1,twofour,,,,,,,,,,,,,,,,,,,,,,,,,,,,,,,,,,,,,,,,,,,,,,,,,,,,,,,,,,,,,,,,,,,,,,,,,,,,,,,,,,,,,,,,,,,,,,,,,,,,,,,,,,,,,,,,,,,,,,,,,,,,,,,,,,,,,,,,,,,,,,,,,,,,,,,,
,,,,,,61717173748006894b2b54ff,62bc1818c0dd6da28def5bb5,2022-06-29_11h43.25.783,Colour_Asymmetry_Pilot,2022.1.3,Win32,59.76571838,62bbe60bf3d75ef465d3e404,0,44,44,93,1,threefour,,,,,,,,,,,,,,,,,,,,,,,,,,,,,,,,,,,,,,,,,,,,,,,,,,,,,,,,,,,,,,,,,,,,,,,,,,,,,,,,,,,,,,,,,,,,,,,,,,,,,,,,,,,,,,,,,,,,,,,,,,,,,,,,,,,,,,,,,,,,,,,,,,,,,,,,
,,,,,,61717173748006894b2b54ff,62bc1818c0dd6da28def5bb5,2022-06-29_11h43.25.783,Colour_Asymmetry_Pilot,2022.1.3,Win32,59.76571838,62bbe60bf3d75ef465d3e404,0,45,45,122,1,twoone,,,,,,,,,,,,,,,,,,,,,,,,,,,,,,,,,,,,,,,,,,,,,,,,,,,,,,,,,,,,,,,,,,,,,,,,,,,,,,,,,,,,,,,,,,,,,,,,,,,,,,,,,,,,,,,,,,,,,,,,,,,,,,,,,,,,,,,,,,,,,,,,,,,,,,,,
,,,,,,61717173748006894b2b54ff,62bc1818c0dd6da28def5bb5,2022-06-29_11h43.25.783,Colour_Asymmetry_Pilot,2022.1.3,Win32,59.76571838,62bbe60bf3d75ef465d3e404,0,46,46,25,1,onethree,,,,,,,,,,,,,,,,,,,,,,,,,,,,,,,,,,,,,,,,,,,,,,,,,,,,,,,,,,,,,,,,,,,,,,,,,,,,,,,,,,,,,,,,,,,,,,,,,,,,,,,,,,,,,,,,,,,,,,,,,,,,,,,,,,,,,,,,,,,,,,,,,,,,,,,,
,,,,,,61717173748006894b2b54ff,62bc1818c0dd6da28def5bb5,2022-06-29_11h43.25.783,Colour_Asymmetry_Pilot,2022.1.3,Win32,59.76571838,62bbe60bf3d75ef465d3e404,0,47,47,12,1,threeone,,,,,,,,,,,,,,,,,,,,,,,,,,,,,,,,,,,,,,,,,,,,,,,,,,,,,,,,,,,,,,,,,,,,,,,,,,,,,,,,,,,,,,,,,,,,,,,,,,,,,,,,,,,,,,,,,,,,,,,,,,,,,,,,,,,,,,,,,,,,,,,,,,,,,,,,
,,,,,,61717173748006894b2b54ff,62bc1818c0dd6da28def5bb5,2022-06-29_11h43.25.783,Colour_Asymmetry_Pilot,2022.1.3,Win32,59.76571838,62bbe60bf3d75ef465d3e404,0,48,48,72,1,onetwo,,,,,,,,,,,,,,,,,,,,,,,,,,,,,,,,,,,,,,,,,,,,,,,,,,,,,,,,,,,,,,,,,,,,,,,,,,,,,,,,,,,,,,,,,,,,,,,,,,,,,,,,,,,,,,,,,,,,,,,,,,,,,,,,,,,,,,,,,,,,,,,,,,,,,,,,
,,,,,,61717173748006894b2b54ff,62bc1818c0dd6da28def5bb5,2022-06-29_11h43.25.783,Colour_Asymmetry_Pilot,2022.1.3,Win32,59.76571838,62bbe60bf3d75ef465d3e404,0,49,49,10,1,twoone,,,,,,,,,,,,,,,,,,,,,,,,,,,,,,,,,,,,,,,,,,,,,,,,,,,,,,,,,,,,,,,,,,,,,,,,,,,,,,,,,,,,,,,,,,,,,,,,,,,,,,,,,,,,,,,,,,,,,,,,,,,,,,,,,,,,,,,,,,,,,,,,,,,,,,,,
,,,,,,61717173748006894b2b54ff,62bc1818c0dd6da28def5bb5,2022-06-29_11h43.25.783,Colour_Asymmetry_Pilot,2022.1.3,Win32,59.76571838,62bbe60bf3d75ef465d3e404,0,50,50,83,1,twofour,,,,,,,,,,,,,,,,,,,,,,,,,,,,,,,,,,,,,,,,,,,,,,,,,,,,,,,,,,,,,,,,,,,,,,,,,,,,,,,,,,,,,,,,,,,,,,,,,,,,,,,,,,,,,,,,,,,,,,,,,,,,,,,,,,,,,,,,,,,,,,,,,,,,,,,,
,,,,,,61717173748006894b2b54ff,62bc1818c0dd6da28def5bb5,2022-06-29_11h43.25.783,Colour_Asymmetry_Pilot,2022.1.3,Win32,59.76571838,62bbe60bf3d75ef465d3e404,0,51,51,120,1,onetwo,,,,,,,,,,,,,,,,,,,,,,,,,,,,,,,,,,,,,,,,,,,,,,,,,,,,,,,,,,,,,,,,,,,,,,,,,,,,,,,,,,,,,,,,,,,,,,,,,,,,,,,,,,,,,,,,,,,,,,,,,,,,,,,,,,,,,,,,,,,,,,,,,,,,,,,,
,,,,,,61717173748006894b2b54ff,62bc1818c0dd6da28def5bb5,2022-06-29_11h43.25.783,Colour_Asymmetry_Pilot,2022.1.3,Win32,59.76571838,62bbe60bf3d75ef465d3e404,0,52,52,134,1,fourtwo,,,,,,,,,,,,,,,,,,,,,,,,,,,,,,,,,,,,,,,,,,,,,,,,,,,,,,,,,,,,,,,,,,,,,,,,,,,,,,,,,,,,,,,,,,,,,,,,,,,,,,,,,,,,,,,,,,,,,,,,,,,,,,,,,,,,,,,,,,,,,,,,,,,,,,,,
,,,,,,61717173748006894b2b54ff,62bc1818c0dd6da28def5bb5,2022-06-29_11h43.25.783,Colour_Asymmetry_Pilot,2022.1.3,Win32,59.76571838,62bbe60bf3d75ef465d3e404,0,53,53,157,1,threefour,,,,,,,,,,,,,,,,,,,,,,,,,,,,,,,,,,,,,,,,,,,,,,,,,,,,,,,,,,,,,,,,,,,,,,,,,,,,,,,,,,,,,,,,,,,,,,,,,,,,,,,,,,,,,,,,,,,,,,,,,,,,,,,,,,,,,,,,,,,,,,,,,,,,,,,,
,,,,,,61717173748006894b2b54ff,62bc1818c0dd6da28def5bb5,2022-06-29_11h43.25.783,Colour_Asymmetry_Pilot,2022.1.3,Win32,59.76571838,62bbe60bf3d75ef465d3e404,0,54,54,16,1,onetwo,,,,,,,,,,,,,,,,,,,,,,,,,,,,,,,,,,,,,,,,,,,,,,,,,,,,,,,,,,,,,,,,,,,,,,,,,,,,,,,,,,,,,,,,,,,,,,,,,,,,,,,,,,,,,,,,,,,,,,,,,,,,,,,,,,,,,,,,,,,,,,,,,,,,,,,,
,,,,,,61717173748006894b2b54ff,62bc1818c0dd6da28def5bb5,2022-06-29_11h43.25.783,Colour_Asymmetry_Pilot,2022.1.3,Win32,59.76571838,62bbe60bf3d75ef465d3e404,0,55,55,147,1,twofour,,,,,,,,,,,,,,,,,,,,,,,,,,,,,,,,,,,,,,,,,,,,,,,,,,,,,,,,,,,,,,,,,,,,,,,,,,,,,,,,,,,,,,,,,,,,,,,,,,,,,,,,,,,,,,,,,,,,,,,,,,,,,,,,,,,,,,,,,,,,,,,,,,,,,,,,
,,,,,,61717173748006894b2b54ff,62bc1818c0dd6da28def5bb5,2022-06-29_11h43.25.783,Colour_Asymmetry_Pilot,2022.1.3,Win32,59.76571838,62bbe60bf3d75ef465d3e404,0,56,56,84,1,threeone,,,,,,,,,,,,,,,,,,,,,,,,,,,,,,,,,,,,,,,,,,,,,,,,,,,,,,,,,,,,,,,,,,,,,,,,,,,,,,,,,,,,,,,,,,,,,,,,,,,,,,,,,,,,,,,,,,,,,,,,,,,,,,,,,,,,,,,,,,,,,,,,,,,,,,,,
,,,,,,61717173748006894b2b54ff,62bc1818c0dd6da28def5bb5,2022-06-29_11h43.25.783,Colour_Asymmetry_Pilot,2022.1.3,Win32,59.76571838,62bbe60bf3d75ef465d3e404,0,57,57,142,1,fourtwo,,,,,,,,,,,,,,,,,,,,,,,,,,,,,,,,,,,,,,,,,,,,,,,,,,,,,,,,,,,,,,,,,,,,,,,,,,,,,,,,,,,,,,,,,,,,,,,,,,,,,,,,,,,,,,,,,,,,,,,,,,,,,,,,,,,,,,,,,,,,,,,,,,,,,,,,
,,,,,,61717173748006894b2b54ff,62bc1818c0dd6da28def5bb5,2022-06-29_11h43.25.783,Colour_Asymmetry_Pilot,2022.1.3,Win32,59.76571838,62bbe60bf3d75ef465d3e404,0,58,58,133,1,threefour,,,,,,,,,,,,,,,,,,,,,,,,,,,,,,,,,,,,,,,,,,,,,,,,,,,,,,,,,,,,,,,,,,,,,,,,,,,,,,,,,,,,,,,,,,,,,,,,,,,,,,,,,,,,,,,,,,,,,,,,,,,,,,,,,,,,,,,,,,,,,,,,,,,,,,,,
,,,,,,61717173748006894b2b54ff,62bc1818c0dd6da28def5bb5,2022-06-29_11h43.25.783,Colour_Asymmetry_Pilot,2022.1.3,Win32,59.76571838,62bbe60bf3d75ef465d3e404,0,59,59,65,1,onethree,,,,,,,,,,,,,,,,,,,,,,,,,,,,,,,,,,,,,,,,,,,,,,,,,,,,,,,,,,,,,,,,,,,,,,,,,,,,,,,,,,,,,,,,,,,,,,,,,,,,,,,,,,,,,,,,,,,,,,,,,,,,,,,,,,,,,,,,,,,,,,,,,,,,,,,,
,,,,,,61717173748006894b2b54ff,62bc1818c0dd6da28def5bb5,2022-06-29_11h43.25.783,Colour_Asymmetry_Pilot,2022.1.3,Win32,59.76571838,62bbe60bf3d75ef465d3e404,0,60,60,0,1,onetwo,,,,,,,,,,,,,,,,,,,,,,,,,,,,,,,,,,,,,,,,,,,,,,,,,,,,,,,,,,,,,,,,,,,,,,,,,,,,,,,,,,,,,,,,,,,,,,,,,,,,,,,,,,,,,,,,,,,,,,,,,,,,,,,,,,,,,,,,,,,,,,,,,,,,,,,,
,,,,,,61717173748006894b2b54ff,62bc1818c0dd6da28def5bb5,2022-06-29_11h43.25.783,Colour_Asymmetry_Pilot,2022.1.3,Win32,59.76571838,62bbe60bf3d75ef465d3e404,0,61,61,118,1,fourtwo,,,,,,,,,,,,,,,,,,,,,,,,,,,,,,,,,,,,,,,,,,,,,,,,,,,,,,,,,,,,,,,,,,,,,,,,,,,,,,,,,,,,,,,,,,,,,,,,,,,,,,,,,,,,,,,,,,,,,,,,,,,,,,,,,,,,,,,,,,,,,,,,,,,,,,,,
,,,,,,61717173748006894b2b54ff,62bc1818c0dd6da28def5bb5,2022-06-29_11h43.25.783,Colour_Asymmetry_Pilot,2022.1.3,Win32,59.76571838,62bbe60bf3d75ef465d3e404,0,62,62,87,1,fourthree,,,,,,,,,,,,,,,,,,,,,,,,,,,,,,,,,,,,,,,,,,,,,,,,,,,,,,,,,,,,,,,,,,,,,,,,,,,,,,,,,,,,,,,,,,,,,,,,,,,,,,,,,,,,,,,,,,,,,,,,,,,,,,,,,,,,,,,,,,,,,,,,,,,,,,,,
,,,,,,61717173748006894b2b54ff,62bc1818c0dd6da28def5bb5,2022-06-29_11h43.25.783,Colour_Asymmetry_Pilot,2022.1.3,Win32,59.76571838,62bbe60bf3d75ef465d3e404,0,63,63,107,1,twofour,,,,,,,,,,,,,,,,,,,,,,,,,,,,,,,,,,,,,,,,,,,,,,,,,,,,,,,,,,,,,,,,,,,,,,,,,,,,,,,,,,,,,,,,,,,,,,,,,,,,,,,,,,,,,,,,,,,,,,,,,,,,,,,,,,,,,,,,,,,,,,,,,,,,,,,,
,,,,,,61717173748006894b2b54ff,62bc1818c0dd6da28def5bb5,2022-06-29_11h43.25.783,Colour_Asymmetry_Pilot,2022.1.3,Win32,59.76571838,62bbe60bf3d75ef465d3e404,0,64,64,115,1,twofour,,,,,,,,,,,,,,,,,,,,,,,,,,,,,,,,,,,,,,,,,,,,,,,,,,,,,,,,,,,,,,,,,,,,,,,,,,,,,,,,,,,,,,,,,,,,,,,,,,,,,,,,,,,,,,,,,,,,,,,,,,,,,,,,,,,,,,,,,,,,,,,,,,,,,,,,
,,,,,,61717173748006894b2b54ff,62bc1818c0dd6da28def5bb5,2022-06-29_11h43.25.783,Colour_Asymmetry_Pilot,2022.1.3,Win32,59.76571838,62bbe60bf3d75ef465d3e404,0,65,65,64,1,onetwo,,,,,,,,,,,,,,,,,,,,,,,,,,,,,,,,,,,,,,,,,,,,,,,,,,,,,,,,,,,,,,,,,,,,,,,,,,,,,,,,,,,,,,,,,,,,,,,,,,,,,,,,,,,,,,,,,,,,,,,,,,,,,,,,,,,,,,,,,,,,,,,,,,,,,,,,
,,,,,,61717173748006894b2b54ff,62bc1818c0dd6da28def5bb5,2022-06-29_11h43.25.783,Colour_Asymmetry_Pilot,2022.1.3,Win32,59.76571838,62bbe60bf3d75ef465d3e404,0,66,66,55,1,fourthree,,,,,,,,,,,,,,,,,,,,,,,,,,,,,,,,,,,,,,,,,,,,,,,,,,,,,,,,,,,,,,,,,,,,,,,,,,,,,,,,,,,,,,,,,,,,,,,,,,,,,,,,,,,,,,,,,,,,,,,,,,,,,,,,,,,,,,,,,,,,,,,,,,,,,,,,
,,,,,,61717173748006894b2b54ff,62bc1818c0dd6da28def5bb5,2022-06-29_11h43.25.783,Colour_Asymmetry_Pilot,2022.1.3,Win32,59.76571838,62bbe60bf3d75ef465d3e404,0,67,67,44,1,threeone,,,,,,,,,,,,,,,,,,,,,,,,,,,,,,,,,,,,,,,,,,,,,,,,,,,,,,,,,,,,,,,,,,,,,,,,,,,,,,,,,,,,,,,,,,,,,,,,,,,,,,,,,,,,,,,,,,,,,,,,,,,,,,,,,,,,,,,,,,,,,,,,,,,,,,,,
,,,,,,61717173748006894b2b54ff,62bc1818c0dd6da28def5bb5,2022-06-29_11h43.25.783,Colour_Asymmetry_Pilot,2022.1.3,Win32,59.76571838,62bbe60bf3d75ef465d3e404,0,68,68,103,1,fourthree,,,,,,,,,,,,,,,,,,,,,,,,,,,,,,,,,,,,,,,,,,,,,,,,,,,,,,,,,,,,,,,,,,,,,,,,,,,,,,,,,,,,,,,,,,,,,,,,,,,,,,,,,,,,,,,,,,,,,,,,,,,,,,,,,,,,,,,,,,,,,,,,,,,,,,,,
,,,,,,61717173748006894b2b54ff,62bc1818c0dd6da28def5bb5,2022-06-29_11h43.25.783,Colour_Asymmetry_Pilot,2022.1.3,Win32,59.76571838,62bbe60bf3d75ef465d3e404,0,69,69,114,1,twoone,,,,,,,,,,,,,,,,,,,,,,,,,,,,,,,,,,,,,,,,,,,,,,,,,,,,,,,,,,,,,,,,,,,,,,,,,,,,,,,,,,,,,,,,,,,,,,,,,,,,,,,,,,,,,,,,,,,,,,,,,,,,,,,,,,,,,,,,,,,,,,,,,,,,,,,,
,,,,,,61717173748006894b2b54ff,62bc1818c0dd6da28def5bb5,2022-06-29_11h43.25.783,Colour_Asymmetry_Pilot,2022.1.3,Win32,59.76571838,62bbe60bf3d75ef465d3e404,0,70,70,9,1,onethree,,,,,,,,,,,,,,,,,,,,,,,,,,,,,,,,,,,,,,,,,,,,,,,,,,,,,,,,,,,,,,,,,,,,,,,,,,,,,,,,,,,,,,,,,,,,,,,,,,,,,,,,,,,,,,,,,,,,,,,,,,,,,,,,,,,,,,,,,,,,,,,,,,,,,,,,
,,,,,,61717173748006894b2b54ff,62bc1818c0dd6da28def5bb5,2022-06-29_11h43.25.783,Colour_Asymmetry_Pilot,2022.1.3,Win32,59.76571838,62bbe60bf3d75ef465d3e404,0,71,71,104,1,onetwo,,,,,,,,,,,,,,,,,,,,,,,,,,,,,,,,,,,,,,,,,,,,,,,,,,,,,,,,,,,,,,,,,,,,,,,,,,,,,,,,,,,,,,,,,,,,,,,,,,,,,,,,,,,,,,,,,,,,,,,,,,,,,,,,,,,,,,,,,,,,,,,,,,,,,,,,
,,,,,,61717173748006894b2b54ff,62bc1818c0dd6da28def5bb5,2022-06-29_11h43.25.783,Colour_Asymmetry_Pilot,2022.1.3,Win32,59.76571838,62bbe60bf3d75ef465d3e404,0,72,72,161,1,onethree,,,,,,,,,,,,,,,,,,,,,,,,,,,,,,,,,,,,,,,,,,,,,,,,,,,,,,,,,,,,,,,,,,,,,,,,,,,,,,,,,,,,,,,,,,,,,,,,,,,,,,,,,,,,,,,,,,,,,,,,,,,,,,,,,,,,,,,,,,,,,,,,,,,,,,,,
,,,,,,61717173748006894b2b54ff,62bc1818c0dd6da28def5bb5,2022-06-29_11h43.25.783,Colour_Asymmetry_Pilot,2022.1.3,Win32,59.76571838,62bbe60bf3d75ef465d3e404,0,73,73,136,1,onetwo,,,,,,,,,,,,,,,,,,,,,,,,,,,,,,,,,,,,,,,,,,,,,,,,,,,,,,,,,,,,,,,,,,,,,,,,,,,,,,,,,,,,,,,,,,,,,,,,,,,,,,,,,,,,,,,,,,,,,,,,,,,,,,,,,,,,,,,,,,,,,,,,,,,,,,,,
,,,,,,61717173748006894b2b54ff,62bc1818c0dd6da28def5bb5,2022-06-29_11h43.25.783,Colour_Asymmetry_Pilot,2022.1.3,Win32,59.76571838,62bbe60bf3d75ef465d3e404,0,74,74,49,1,onethree,,,,,,,,,,,,,,,,,,,,,,,,,,,,,,,,,,,,,,,,,,,,,,,,,,,,,,,,,,,,,,,,,,,,,,,,,,,,,,,,,,,,,,,,,,,,,,,,,,,,,,,,,,,,,,,,,,,,,,,,,,,,,,,,,,,,,,,,,,,,,,,,,,,,,,,,
,,,,,,61717173748006894b2b54ff,62bc1818c0dd6da28def5bb5,2022-06-29_11h43.25.783,Colour_Asymmetry_Pilot,2022.1.3,Win32,59.76571838,62bbe60bf3d75ef465d3e404,0,75,75,63,1,fourthree,,,,,,,,,,,,,,,,,,,,,,,,,,,,,,,,,,,,,,,,,,,,,,,,,,,,,,,,,,,,,,,,,,,,,,,,,,,,,,,,,,,,,,,,,,,,,,,,,,,,,,,,,,,,,,,,,,,,,,,,,,,,,,,,,,,,,,,,,,,,,,,,,,,,,,,,
,,,,,,61717173748006894b2b54ff,62bc1818c0dd6da28def5bb5,2022-06-29_11h43.25.783,Colour_Asymmetry_Pilot,2022.1.3,Win32,59.76571838,62bbe60bf3d75ef465d3e404,0,76,76,151,1,fourthree,,,,,,,,,,,,,,,,,,,,,,,,,,,,,,,,,,,,,,,,,,,,,,,,,,,,,,,,,,,,,,,,,,,,,,,,,,,,,,,,,,,,,,,,,,,,,,,,,,,,,,,,,,,,,,,,,,,,,,,,,,,,,,,,,,,,,,,,,,,,,,,,,,,,,,,,
,,,,,,61717173748006894b2b54ff,62bc1818c0dd6da28def5bb5,2022-06-29_11h43.25.783,Colour_Asymmetry_Pilot,2022.1.3,Win32,59.76571838,62bbe60bf3d75ef465d3e404,0,77,77,3,1,twofour,,,,,,,,,,,,,,,,,,,,,,,,,,,,,,,,,,,,,,,,,,,,,,,,,,,,,,,,,,,,,,,,,,,,,,,,,,,,,,,,,,,,,,,,,,,,,,,,,,,,,,,,,,,,,,,,,,,,,,,,,,,,,,,,,,,,,,,,,,,,,,,,,,,,,,,,
,,,,,,61717173748006894b2b54ff,62bc1818c0dd6da28def5bb5,2022-06-29_11h43.25.783,Colour_Asymmetry_Pilot,2022.1.3,Win32,59.76571838,62bbe60bf3d75ef465d3e404,0,78,78,128,1,onetwo,,,,,,,,,,,,,,,,,,,,,,,,,,,,,,,,,,,,,,,,,,,,,,,,,,,,,,,,,,,,,,,,,,,,,,,,,,,,,,,,,,,,,,,,,,,,,,,,,,,,,,,,,,,,,,,,,,,,,,,,,,,,,,,,,,,,,,,,,,,,,,,,,,,,,,,,
,,,,,,61717173748006894b2b54ff,62bc1818c0dd6da28def5bb5,2022-06-29_11h43.25.783,Colour_Asymmetry_Pilot,2022.1.3,Win32,59.76571838,62bbe60bf3d75ef465d3e404,0,79,79,71,1,fourthree,,,,,,,,,,,,,,,,,,,,,,,,,,,,,,,,,,,,,,,,,,,,,,,,,,,,,,,,,,,,,,,,,,,,,,,,,,,,,,,,,,,,,,,,,,,,,,,,,,,,,,,,,,,,,,,,,,,,,,,,,,,,,,,,,,,,,,,,,,,,,,,,,,,,,,,,
,,,,,,61717173748006894b2b54ff,62bc1818c0dd6da28def5bb5,2022-06-29_11h43.25.783,Colour_Asymmetry_Pilot,2022.1.3,Win32,59.76571838,62bbe60bf3d75ef465d3e404,0,80,80,121,1,onethree,,,,,,,,,,,,,,,,,,,,,,,,,,,,,,,,,,,,,,,,,,,,,,,,,,,,,,,,,,,,,,,,,,,,,,,,,,,,,,,,,,,,,,,,,,,,,,,,,,,,,,,,,,,,,,,,,,,,,,,,,,,,,,,,,,,,,,,,,,,,,,,,,,,,,,,,
,,,,,,61717173748006894b2b54ff,62bc1818c0dd6da28def5bb5,2022-06-29_11h43.25.783,Colour_Asymmetry_Pilot,2022.1.3,Win32,59.76571838,62bbe60bf3d75ef465d3e404,0,81,81,81,1,onethree,,,,,,,,,,,,,,,,,,,,,,,,,,,,,,,,,,,,,,,,,,,,,,,,,,,,,,,,,,,,,,,,,,,,,,,,,,,,,,,,,,,,,,,,,,,,,,,,,,,,,,,,,,,,,,,,,,,,,,,,,,,,,,,,,,,,,,,,,,,,,,,,,,,,,,,,
,,,,,,61717173748006894b2b54ff,62bc1818c0dd6da28def5bb5,2022-06-29_11h43.25.783,Colour_Asymmetry_Pilot,2022.1.3,Win32,59.76571838,62bbe60bf3d75ef465d3e404,0,82,82,156,1,threeone,,,,,,,,,,,,,,,,,,,,,,,,,,,,,,,,,,,,,,,,,,,,,,,,,,,,,,,,,,,,,,,,,,,,,,,,,,,,,,,,,,,,,,,,,,,,,,,,,,,,,,,,,,,,,,,,,,,,,,,,,,,,,,,,,,,,,,,,,,,,,,,,,,,,,,,,
,,,,,,61717173748006894b2b54ff,62bc1818c0dd6da28def5bb5,2022-06-29_11h43.25.783,Colour_Asymmetry_Pilot,2022.1.3,Win32,59.76571838,62bbe60bf3d75ef465d3e404,0,83,83,13,1,threefour,,,,,,,,,,,,,,,,,,,,,,,,,,,,,,,,,,,,,,,,,,,,,,,,,,,,,,,,,,,,,,,,,,,,,,,,,,,,,,,,,,,,,,,,,,,,,,,,,,,,,,,,,,,,,,,,,,,,,,,,,,,,,,,,,,,,,,,,,,,,,,,,,,,,,,,,
,,,,,,61717173748006894b2b54ff,62bc1818c0dd6da28def5bb5,2022-06-29_11h43.25.783,Colour_Asymmetry_Pilot,2022.1.3,Win32,59.76571838,62bbe60bf3d75ef465d3e404,0,84,84,124,1,threeone,,,,,,,,,,,,,,,,,,,,,,,,,,,,,,,,,,,,,,,,,,,,,,,,,,,,,,,,,,,,,,,,,,,,,,,,,,,,,,,,,,,,,,,,,,,,,,,,,,,,,,,,,,,,,,,,,,,,,,,,,,,,,,,,,,,,,,,,,,,,,,,,,,,,,,,,
,,,,,,61717173748006894b2b54ff,62bc1818c0dd6da28def5bb5,2022-06-29_11h43.25.783,Colour_Asymmetry_Pilot,2022.1.3,Win32,59.76571838,62bbe60bf3d75ef465d3e404,0,85,85,130,1,twoone,,,,,,,,,,,,,,,,,,,,,,,,,,,,,,,,,,,,,,,,,,,,,,,,,,,,,,,,,,,,,,,,,,,,,,,,,,,,,,,,,,,,,,,,,,,,,,,,,,,,,,,,,,,,,,,,,,,,,,,,,,,,,,,,,,,,,,,,,,,,,,,,,,,,,,,,
,,,,,,61717173748006894b2b54ff,62bc1818c0dd6da28def5bb5,2022-06-29_11h43.25.783,Colour_Asymmetry_Pilot,2022.1.3,Win32,59.76571838,62bbe60bf3d75ef465d3e404,0,86,86,38,1,fourtwo,,,,,,,,,,,,,,,,,,,,,,,,,,,,,,,,,,,,,,,,,,,,,,,,,,,,,,,,,,,,,,,,,,,,,,,,,,,,,,,,,,,,,,,,,,,,,,,,,,,,,,,,,,,,,,,,,,,,,,,,,,,,,,,,,,,,,,,,,,,,,,,,,,,,,,,,
,,,,,,61717173748006894b2b54ff,62bc1818c0dd6da28def5bb5,2022-06-29_11h43.25.783,Colour_Asymmetry_Pilot,2022.1.3,Win32,59.76571838,62bbe60bf3d75ef465d3e404,0,87,87,48,1,onetwo,,,,,,,,,,,,,,,,,,,,,,,,,,,,,,,,,,,,,,,,,,,,,,,,,,,,,,,,,,,,,,,,,,,,,,,,,,,,,,,,,,,,,,,,,,,,,,,,,,,,,,,,,,,,,,,,,,,,,,,,,,,,,,,,,,,,,,,,,,,,,,,,,,,,,,,,
,,,,,,61717173748006894b2b54ff,62bc1818c0dd6da28def5bb5,2022-06-29_11h43.25.783,Colour_Asymmetry_Pilot,2022.1.3,Win32,59.76571838,62bbe60bf3d75ef465d3e404,0,88,88,139,1,twofour,,,,,,,,,,,,,,,,,,,,,,,,,,,,,,,,,,,,,,,,,,,,,,,,,,,,,,,,,,,,,,,,,,,,,,,,,,,,,,,,,,,,,,,,,,,,,,,,,,,,,,,,,,,,,,,,,,,,,,,,,,,,,,,,,,,,,,,,,,,,,,,,,,,,,,,,
,,,,,,61717173748006894b2b54ff,62bc1818c0dd6da28def5bb5,2022-06-29_11h43.25.783,Colour_Asymmetry_Pilot,2022.1.3,Win32,59.76571838,62bbe60bf3d75ef465d3e404,0,89,89,57,1,onethree,,,,,,,,,,,,,,,,,,,,,,,,,,,,,,,,,,,,,,,,,,,,,,,,,,,,,,,,,,,,,,,,,,,,,,,,,,,,,,,,,,,,,,,,,,,,,,,,,,,,,,,,,,,,,,,,,,,,,,,,,,,,,,,,,,,,,,,,,,,,,,,,,,,,,,,,
,,,,,,61717173748006894b2b54ff,62bc1818c0dd6da28def5bb5,2022-06-29_11h43.25.783,Colour_Asymmetry_Pilot,2022.1.3,Win32,59.76571838,62bbe60bf3d75ef465d3e404,0,90,90,148,1,threeone,,,,,,,,,,,,,,,,,,,,,,,,,,,,,,,,,,,,,,,,,,,,,,,,,,,,,,,,,,,,,,,,,,,,,,,,,,,,,,,,,,,,,,,,,,,,,,,,,,,,,,,,,,,,,,,,,,,,,,,,,,,,,,,,,,,,,,,,,,,,,,,,,,,,,,,,
,,,,,,61717173748006894b2b54ff,62bc1818c0dd6da28def5bb5,2022-06-29_11h43.25.783,Colour_Asymmetry_Pilot,2022.1.3,Win32,59.76571838,62bbe60bf3d75ef465d3e404,0,91,91,117,1,threefour,,,,,,,,,,,,,,,,,,,,,,,,,,,,,,,,,,,,,,,,,,,,,,,,,,,,,,,,,,,,,,,,,,,,,,,,,,,,,,,,,,,,,,,,,,,,,,,,,,,,,,,,,,,,,,,,,,,,,,,,,,,,,,,,,,,,,,,,,,,,,,,,,,,,,,,,
,,,,,,61717173748006894b2b54ff,62bc1818c0dd6da28def5bb5,2022-06-29_11h43.25.783,Colour_Asymmetry_Pilot,2022.1.3,Win32,59.76571838,62bbe60bf3d75ef465d3e404,0,92,92,58,1,twoone,,,,,,,,,,,,,,,,,,,,,,,,,,,,,,,,,,,,,,,,,,,,,,,,,,,,,,,,,,,,,,,,,,,,,,,,,,,,,,,,,,,,,,,,,,,,,,,,,,,,,,,,,,,,,,,,,,,,,,,,,,,,,,,,,,,,,,,,,,,,,,,,,,,,,,,,
,,,,,,61717173748006894b2b54ff,62bc1818c0dd6da28def5bb5,2022-06-29_11h43.25.783,Colour_Asymmetry_Pilot,2022.1.3,Win32,59.76571838,62bbe60bf3d75ef465d3e404,0,93,93,76,1,threeone,,,,,,,,,,,,,,,,,,,,,,,,,,,,,,,,,,,,,,,,,,,,,,,,,,,,,,,,,,,,,,,,,,,,,,,,,,,,,,,,,,,,,,,,,,,,,,,,,,,,,,,,,,,,,,,,,,,,,,,,,,,,,,,,,,,,,,,,,,,,,,,,,,,,,,,,
,,,,,,61717173748006894b2b54ff,62bc1818c0dd6da28def5bb5,2022-06-29_11h43.25.783,Colour_Asymmetry_Pilot,2022.1.3,Win32,59.76571838,62bbe60bf3d75ef465d3e404,0,94,94,4,1,threeone,,,,,,,,,,,,,,,,,,,,,,,,,,,,,,,,,,,,,,,,,,,,,,,,,,,,,,,,,,,,,,,,,,,,,,,,,,,,,,,,,,,,,,,,,,,,,,,,,,,,,,,,,,,,,,,,,,,,,,,,,,,,,,,,,,,,,,,,,,,,,,,,,,,,,,,,
,,,,,,61717173748006894b2b54ff,62bc1818c0dd6da28def5bb5,2022-06-29_11h43.25.783,Colour_Asymmetry_Pilot,2022.1.3,Win32,59.76571838,62bbe60bf3d75ef465d3e404,0,95,95,155,1,twofour,,,,,,,,,,,,,,,,,,,,,,,,,,,,,,,,,,,,,,,,,,,,,,,,,,,,,,,,,,,,,,,,,,,,,,,,,,,,,,,,,,,,,,,,,,,,,,,,,,,,,,,,,,,,,,,,,,,,,,,,,,,,,,,,,,,,,,,,,,,,,,,,,,,,,,,,
,,,,,,61717173748006894b2b54ff,62bc1818c0dd6da28def5bb5,2022-06-29_11h43.25.783,Colour_Asymmetry_Pilot,2022.1.3,Win32,59.76571838,62bbe60bf3d75ef465d3e404,0,96,96,11,1,twofour,,,,,,,,,,,,,,,,,,,,,,,,,,,,,,,,,,,,,,,,,,,,,,,,,,,,,,,,,,,,,,,,,,,,,,,,,,,,,,,,,,,,,,,,,,,,,,,,,,,,,,,,,,,,,,,,,,,,,,,,,,,,,,,,,,,,,,,,,,,,,,,,,,,,,,,,
,,,,,,61717173748006894b2b54ff,62bc1818c0dd6da28def5bb5,2022-06-29_11h43.25.783,Colour_Asymmetry_Pilot,2022.1.3,Win32,59.76571838,62bbe60bf3d75ef465d3e404,0,97,97,109,1,threefour,,,,,,,,,,,,,,,,,,,,,,,,,,,,,,,,,,,,,,,,,,,,,,,,,,,,,,,,,,,,,,,,,,,,,,,,,,,,,,,,,,,,,,,,,,,,,,,,,,,,,,,,,,,,,,,,,,,,,,,,,,,,,,,,,,,,,,,,,,,,,,,,,,,,,,,,
,,,,,,61717173748006894b2b54ff,62bc1818c0dd6da28def5bb5,2022-06-29_11h43.25.783,Colour_Asymmetry_Pilot,2022.1.3,Win32,59.76571838,62bbe60bf3d75ef465d3e404,0,98,98,132,1,threeone,,,,,,,,,,,,,,,,,,,,,,,,,,,,,,,,,,,,,,,,,,,,,,,,,,,,,,,,,,,,,,,,,,,,,,,,,,,,,,,,,,,,,,,,,,,,,,,,,,,,,,,,,,,,,,,,,,,,,,,,,,,,,,,,,,,,,,,,,,,,,,,,,,,,,,,,
,,,,,,61717173748006894b2b54ff,62bc1818c0dd6da28def5bb5,2022-06-29_11h43.25.783,Colour_Asymmetry_Pilot,2022.1.3,Win32,59.76571838,62bbe60bf3d75ef465d3e404,0,99,99,146,1,twoone,,,,,,,,,,,,,,,,,,,,,,,,,,,,,,,,,,,,,,,,,,,,,,,,,,,,,,,,,,,,,,,,,,,,,,,,,,,,,,,,,,,,,,,,,,,,,,,,,,,,,,,,,,,,,,,,,,,,,,,,,,,,,,,,,,,,,,,,,,,,,,,,,,,,,,,,
,,,,,,61717173748006894b2b54ff,62bc1818c0dd6da28def5bb5,2022-06-29_11h43.25.783,Colour_Asymmetry_Pilot,2022.1.3,Win32,59.76571838,62bbe60bf3d75ef465d3e404,0,100,100,36,1,threeone,,,,,,,,,,,,,,,,,,,,,,,,,,,,,,,,,,,,,,,,,,,,,,,,,,,,,,,,,,,,,,,,,,,,,,,,,,,,,,,,,,,,,,,,,,,,,,,,,,,,,,,,,,,,,,,,,,,,,,,,,,,,,,,,,,,,,,,,,,,,,,,,,,,,,,,,
,,,,,,61717173748006894b2b54ff,62bc1818c0dd6da28def5bb5,2022-06-29_11h43.25.783,Colour_Asymmetry_Pilot,2022.1.3,Win32,59.76571838,62bbe60bf3d75ef465d3e404,0,101,101,89,1,onethree,,,,,,,,,,,,,,,,,,,,,,,,,,,,,,,,,,,,,,,,,,,,,,,,,,,,,,,,,,,,,,,,,,,,,,,,,,,,,,,,,,,,,,,,,,,,,,,,,,,,,,,,,,,,,,,,,,,,,,,,,,,,,,,,,,,,,,,,,,,,,,,,,,,,,,,,
,,,,,,61717173748006894b2b54ff,62bc1818c0dd6da28def5bb5,2022-06-29_11h43.25.783,Colour_Asymmetry_Pilot,2022.1.3,Win32,59.76571838,62bbe60bf3d75ef465d3e404,0,102,102,144,1,onetwo,,,,,,,,,,,,,,,,,,,,,,,,,,,,,,,,,,,,,,,,,,,,,,,,,,,,,,,,,,,,,,,,,,,,,,,,,,,,,,,,,,,,,,,,,,,,,,,,,,,,,,,,,,,,,,,,,,,,,,,,,,,,,,,,,,,,,,,,,,,,,,,,,,,,,,,,
,,,,,,61717173748006894b2b54ff,62bc1818c0dd6da28def5bb5,2022-06-29_11h43.25.783,Colour_Asymmetry_Pilot,2022.1.3,Win32,59.76571838,62bbe60bf3d75ef465d3e404,0,103,103,102,1,fourtwo,,,,,,,,,,,,,,,,,,,,,,,,,,,,,,,,,,,,,,,,,,,,,,,,,,,,,,,,,,,,,,,,,,,,,,,,,,,,,,,,,,,,,,,,,,,,,,,,,,,,,,,,,,,,,,,,,,,,,,,,,,,,,,,,,,,,,,,,,,,,,,,,,,,,,,,,
,,,,,,61717173748006894b2b54ff,62bc1818c0dd6da28def5bb5,2022-06-29_11h43.25.783,Colour_Asymmetry_Pilot,2022.1.3,Win32,59.76571838,62bbe60bf3d75ef465d3e404,0,104,104,143,1,fourthree,,,,,,,,,,,,,,,,,,,,,,,,,,,,,,,,,,,,,,,,,,,,,,,,,,,,,,,,,,,,,,,,,,,,,,,,,,,,,,,,,,,,,,,,,,,,,,,,,,,,,,,,,,,,,,,,,,,,,,,,,,,,,,,,,,,,,,,,,,,,,,,,,,,,,,,,
,,,,,,61717173748006894b2b54ff,62bc1818c0dd6da28def5bb5,2022-06-29_11h43.25.783,Colour_Asymmetry_Pilot,2022.1.3,Win32,59.76571838,62bbe60bf3d75ef465d3e404,0,105,105,54,1,fourtwo,,,,,,,,,,,,,,,,,,,,,,,,,,,,,,,,,,,,,,,,,,,,,,,,,,,,,,,,,,,,,,,,,,,,,,,,,,,,,,,,,,,,,,,,,,,,,,,,,,,,,,,,,,,,,,,,,,,,,,,,,,,,,,,,,,,,,,,,,,,,,,,,,,,,,,,,
,,,,,,61717173748006894b2b54ff,62bc1818c0dd6da28def5bb5,2022-06-29_11h43.25.783,Colour_Asymmetry_Pilot,2022.1.3,Win32,59.76571838,62bbe60bf3d75ef465d3e404,0,106,106,78,1,fourtwo,,,,,,,,,,,,,,,,,,,,,,,,,,,,,,,,,,,,,,,,,,,,,,,,,,,,,,,,,,,,,,,,,,,,,,,,,,,,,,,,,,,,,,,,,,,,,,,,,,,,,,,,,,,,,,,,,,,,,,,,,,,,,,,,,,,,,,,,,,,,,,,,,,,,,,,,
,,,,,,61717173748006894b2b54ff,62bc1818c0dd6da28def5bb5,2022-06-29_11h43.25.783,Colour_Asymmetry_Pilot,2022.1.3,Win32,59.76571838,62bbe60bf3d75ef465d3e404,0,107,107,141,1,threefour,,,,,,,,,,,,,,,,,,,,,,,,,,,,,,,,,,,,,,,,,,,,,,,,,,,,,,,,,,,,,,,,,,,,,,,,,,,,,,,,,,,,,,,,,,,,,,,,,,,,,,,,,,,,,,,,,,,,,,,,,,,,,,,,,,,,,,,,,,,,,,,,,,,,,,,,
,,,,,,61717173748006894b2b54ff,62bc1818c0dd6da28def5bb5,2022-06-29_11h43.25.783,Colour_Asymmetry_Pilot,2022.1.3,Win32,59.76571838,62bbe60bf3d75ef465d3e404,0,108,108,82,1,twoone,,,,,,,,,,,,,,,,,,,,,,,,,,,,,,,,,,,,,,,,,,,,,,,,,,,,,,,,,,,,,,,,,,,,,,,,,,,,,,,,,,,,,,,,,,,,,,,,,,,,,,,,,,,,,,,,,,,,,,,,,,,,,,,,,,,,,,,,,,,,,,,,,,,,,,,,
,,,,,,61717173748006894b2b54ff,62bc1818c0dd6da28def5bb5,2022-06-29_11h43.25.783,Colour_Asymmetry_Pilot,2022.1.3,Win32,59.76571838,62bbe60bf3d75ef465d3e404,0,109,109,33,1,onethree,,,,,,,,,,,,,,,,,,,,,,,,,,,,,,,,,,,,,,,,,,,,,,,,,,,,,,,,,,,,,,,,,,,,,,,,,,,,,,,,,,,,,,,,,,,,,,,,,,,,,,,,,,,,,,,,,,,,,,,,,,,,,,,,,,,,,,,,,,,,,,,,,,,,,,,,
,,,,,,61717173748006894b2b54ff,62bc1818c0dd6da28def5bb5,2022-06-29_11h43.25.783,Colour_Asymmetry_Pilot,2022.1.3,Win32,59.76571838,62bbe60bf3d75ef465d3e404,0,110,110,22,1,fourtwo,,,,,,,,,,,,,,,,,,,,,,,,,,,,,,,,,,,,,,,,,,,,,,,,,,,,,,,,,,,,,,,,,,,,,,,,,,,,,,,,,,,,,,,,,,,,,,,,,,,,,,,,,,,,,,,,,,,,,,,,,,,,,,,,,,,,,,,,,,,,,,,,,,,,,,,,
,,,,,,61717173748006894b2b54ff,62bc1818c0dd6da28def5bb5,2022-06-29_11h43.25.783,Colour_Asymmetry_Pilot,2022.1.3,Win32,59.76571838,62bbe60bf3d75ef465d3e404,0,111,111,31,1,fourthree,,,,,,,,,,,,,,,,,,,,,,,,,,,,,,,,,,,,,,,,,,,,,,,,,,,,,,,,,,,,,,,,,,,,,,,,,,,,,,,,,,,,,,,,,,,,,,,,,,,,,,,,,,,,,,,,,,,,,,,,,,,,,,,,,,,,,,,,,,,,,,,,,,,,,,,,
,,,,,,61717173748006894b2b54ff,62bc1818c0dd6da28def5bb5,2022-06-29_11h43.25.783,Colour_Asymmetry_Pilot,2022.1.3,Win32,59.76571838,62bbe60bf3d75ef465d3e404,0,112,112,29,1,threefour,,,,,,,,,,,,,,,,,,,,,,,,,,,,,,,,,,,,,,,,,,,,,,,,,,,,,,,,,,,,,,,,,,,,,,,,,,,,,,,,,,,,,,,,,,,,,,,,,,,,,,,,,,,,,,,,,,,,,,,,,,,,,,,,,,,,,,,,,,,,,,,,,,,,,,,,
,,,,,,61717173748006894b2b54ff,62bc1818c0dd6da28def5bb5,2022-06-29_11h43.25.783,Colour_Asymmetry_Pilot,2022.1.3,Win32,59.76571838,62bbe60bf3d75ef465d3e404,0,113,113,2,1,twoone,,,,,,,,,,,,,,,,,,,,,,,,,,,,,,,,,,,,,,,,,,,,,,,,,,,,,,,,,,,,,,,,,,,,,,,,,,,,,,,,,,,,,,,,,,,,,,,,,,,,,,,,,,,,,,,,,,,,,,,,,,,,,,,,,,,,,,,,,,,,,,,,,,,,,,,,
,,,,,,61717173748006894b2b54ff,62bc1818c0dd6da28def5bb5,2022-06-29_11h43.25.783,Colour_Asymmetry_Pilot,2022.1.3,Win32,59.76571838,62bbe60bf3d75ef465d3e404,0,114,114,92,1,threeone,,,,,,,,,,,,,,,,,,,,,,,,,,,,,,,,,,,,,,,,,,,,,,,,,,,,,,,,,,,,,,,,,,,,,,,,,,,,,,,,,,,,,,,,,,,,,,,,,,,,,,,,,,,,,,,,,,,,,,,,,,,,,,,,,,,,,,,,,,,,,,,,,,,,,,,,
,,,,,,61717173748006894b2b54ff,62bc1818c0dd6da28def5bb5,2022-06-29_11h43.25.783,Colour_Asymmetry_Pilot,2022.1.3,Win32,59.76571838,62bbe60bf3d75ef465d3e404,0,115,115,154,1,twoone,,,,,,,,,,,,,,,,,,,,,,,,,,,,,,,,,,,,,,,,,,,,,,,,,,,,,,,,,,,,,,,,,,,,,,,,,,,,,,,,,,,,,,,,,,,,,,,,,,,,,,,,,,,,,,,,,,,,,,,,,,,,,,,,,,,,,,,,,,,,,,,,,,,,,,,,
,,,,,,61717173748006894b2b54ff,62bc1818c0dd6da28def5bb5,2022-06-29_11h43.25.783,Colour_Asymmetry_Pilot,2022.1.3,Win32,59.76571838,62bbe60bf3d75ef465d3e404,0,116,116,74,1,twoone,,,,,,,,,,,,,,,,,,,,,,,,,,,,,,,,,,,,,,,,,,,,,,,,,,,,,,,,,,,,,,,,,,,,,,,,,,,,,,,,,,,,,,,,,,,,,,,,,,,,,,,,,,,,,,,,,,,,,,,,,,,,,,,,,,,,,,,,,,,,,,,,,,,,,,,,
,,,,,,61717173748006894b2b54ff,62bc1818c0dd6da28def5bb5,2022-06-29_11h43.25.783,Colour_Asymmetry_Pilot,2022.1.3,Win32,59.76571838,62bbe60bf3d75ef465d3e404,0,117,117,153,1,onethree,,,,,,,,,,,,,,,,,,,,,,,,,,,,,,,,,,,,,,,,,,,,,,,,,,,,,,,,,,,,,,,,,,,,,,,,,,,,,,,,,,,,,,,,,,,,,,,,,,,,,,,,,,,,,,,,,,,,,,,,,,,,,,,,,,,,,,,,,,,,,,,,,,,,,,,,
,,,,,,61717173748006894b2b54ff,62bc1818c0dd6da28def5bb5,2022-06-29_11h43.25.783,Colour_Asymmetry_Pilot,2022.1.3,Win32,59.76571838,62bbe60bf3d75ef465d3e404,0,118,118,47,1,fourthree,,,,,,,,,,,,,,,,,,,,,,,,,,,,,,,,,,,,,,,,,,,,,,,,,,,,,,,,,,,,,,,,,,,,,,,,,,,,,,,,,,,,,,,,,,,,,,,,,,,,,,,,,,,,,,,,,,,,,,,,,,,,,,,,,,,,,,,,,,,,,,,,,,,,,,,,
,,,,,,61717173748006894b2b54ff,62bc1818c0dd6da28def5bb5,2022-06-29_11h43.25.783,Colour_Asymmetry_Pilot,2022.1.3,Win32,59.76571838,62bbe60bf3d75ef465d3e404,0,119,119,28,1,threeone,,,,,,,,,,,,,,,,,,,,,,,,,,,,,,,,,,,,,,,,,,,,,,,,,,,,,,,,,,,,,,,,,,,,,,,,,,,,,,,,,,,,,,,,,,,,,,,,,,,,,,,,,,,,,,,,,,,,,,,,,,,,,,,,,,,,,,,,,,,,,,,,,,,,,,,,
,,,,,,61717173748006894b2b54ff,62bc1818c0dd6da28def5bb5,2022-06-29_11h43.25.783,Colour_Asymmetry_Pilot,2022.1.3,Win32,59.76571838,62bbe60bf3d75ef465d3e404,0,120,120,50,1,twoone,,,,,,,,,,,,,,,,,,,,,,,,,,,,,,,,,,,,,,,,,,,,,,,,,,,,,,,,,,,,,,,,,,,,,,,,,,,,,,,,,,,,,,,,,,,,,,,,,,,,,,,,,,,,,,,,,,,,,,,,,,,,,,,,,,,,,,,,,,,,,,,,,,,,,,,,
,,,,,,61717173748006894b2b54ff,62bc1818c0dd6da28def5bb5,2022-06-29_11h43.25.783,Colour_Asymmetry_Pilot,2022.1.3,Win32,59.76571838,62bbe60bf3d75ef465d3e404,0,121,121,99,1,twofour,,,,,,,,,,,,,,,,,,,,,,,,,,,,,,,,,,,,,,,,,,,,,,,,,,,,,,,,,,,,,,,,,,,,,,,,,,,,,,,,,,,,,,,,,,,,,,,,,,,,,,,,,,,,,,,,,,,,,,,,,,,,,,,,,,,,,,,,,,,,,,,,,,,,,,,,
,,,,,,61717173748006894b2b54ff,62bc1818c0dd6da28def5bb5,2022-06-29_11h43.25.783,Colour_Asymmetry_Pilot,2022.1.3,Win32,59.76571838,62bbe60bf3d75ef465d3e404,0,122,122,135,1,fourthree,,,,,,,,,,,,,,,,,,,,,,,,,,,,,,,,,,,,,,,,,,,,,,,,,,,,,,,,,,,,,,,,,,,,,,,,,,,,,,,,,,,,,,,,,,,,,,,,,,,,,,,,,,,,,,,,,,,,,,,,,,,,,,,,,,,,,,,,,,,,,,,,,,,,,,,,
,,,,,,61717173748006894b2b54ff,62bc1818c0dd6da28def5bb5,2022-06-29_11h43.25.783,Colour_Asymmetry_Pilot,2022.1.3,Win32,59.76571838,62bbe60bf3d75ef465d3e404,0,123,123,1,1,onethree,,,,,,,,,,,,,,,,,,,,,,,,,,,,,,,,,,,,,,,,,,,,,,,,,,,,,,,,,,,,,,,,,,,,,,,,,,,,,,,,,,,,,,,,,,,,,,,,,,,,,,,,,,,,,,,,,,,,,,,,,,,,,,,,,,,,,,,,,,,,,,,,,,,,,,,,
,,,,,,61717173748006894b2b54ff,62bc1818c0dd6da28def5bb5,2022-06-29_11h43.25.783,Colour_Asymmetry_Pilot,2022.1.3,Win32,59.76571838,62bbe60bf3d75ef465d3e404,0,124,124,116,1,threeone,,,,,,,,,,,,,,,,,,,,,,,,,,,,,,,,,,,,,,,,,,,,,,,,,,,,,,,,,,,,,,,,,,,,,,,,,,,,,,,,,,,,,,,,,,,,,,,,,,,,,,,,,,,,,,,,,,,,,,,,,,,,,,,,,,,,,,,,,,,,,,,,,,,,,,,,
,,,,,,61717173748006894b2b54ff,62bc1818c0dd6da28def5bb5,2022-06-29_11h43.25.783,Colour_Asymmetry_Pilot,2022.1.3,Win32,59.76571838,62bbe60bf3d75ef465d3e404,0,125,125,98,1,twoone,,,,,,,,,,,,,,,,,,,,,,,,,,,,,,,,,,,,,,,,,,,,,,,,,,,,,,,,,,,,,,,,,,,,,,,,,,,,,,,,,,,,,,,,,,,,,,,,,,,,,,,,,,,,,,,,,,,,,,,,,,,,,,,,,,,,,,,,,,,,,,,,,,,,,,,,
,,,,,,61717173748006894b2b54ff,62bc1818c0dd6da28def5bb5,2022-06-29_11h43.25.783,Colour_Asymmetry_Pilot,2022.1.3,Win32,59.76571838,62bbe60bf3d75ef465d3e404,0,126,126,26,1,twoone,,,,,,,,,,,,,,,,,,,,,,,,,,,,,,,,,,,,,,,,,,,,,,,,,,,,,,,,,,,,,,,,,,,,,,,,,,,,,,,,,,,,,,,,,,,,,,,,,,,,,,,,,,,,,,,,,,,,,,,,,,,,,,,,,,,,,,,,,,,,,,,,,,,,,,,,
,,,,,,61717173748006894b2b54ff,62bc1818c0dd6da28def5bb5,2022-06-29_11h43.25.783,Colour_Asymmetry_Pilot,2022.1.3,Win32,59.76571838,62bbe60bf3d75ef465d3e404,0,127,127,18,1,twoone,,,,,,,,,,,,,,,,,,,,,,,,,,,,,,,,,,,,,,,,,,,,,,,,,,,,,,,,,,,,,,,,,,,,,,,,,,,,,,,,,,,,,,,,,,,,,,,,,,,,,,,,,,,,,,,,,,,,,,,,,,,,,,,,,,,,,,,,,,,,,,,,,,,,,,,,
,,,,,,61717173748006894b2b54ff,62bc1818c0dd6da28def5bb5,2022-06-29_11h43.25.783,Colour_Asymmetry_Pilot,2022.1.3,Win32,59.76571838,62bbe60bf3d75ef465d3e404,0,128,128,53,1,threefour,,,,,,,,,,,,,,,,,,,,,,,,,,,,,,,,,,,,,,,,,,,,,,,,,,,,,,,,,,,,,,,,,,,,,,,,,,,,,,,,,,,,,,,,,,,,,,,,,,,,,,,,,,,,,,,,,,,,,,,,,,,,,,,,,,,,,,,,,,,,,,,,,,,,,,,,
,,,,,,61717173748006894b2b54ff,62bc1818c0dd6da28def5bb5,2022-06-29_11h43.25.783,Colour_Asymmetry_Pilot,2022.1.3,Win32,59.76571838,62bbe60bf3d75ef465d3e404,0,129,129,37,1,threefour,,,,,,,,,,,,,,,,,,,,,,,,,,,,,,,,,,,,,,,,,,,,,,,,,,,,,,,,,,,,,,,,,,,,,,,,,,,,,,,,,,,,,,,,,,,,,,,,,,,,,,,,,,,,,,,,,,,,,,,,,,,,,,,,,,,,,,,,,,,,,,,,,,,,,,,,
,,,,,,61717173748006894b2b54ff,62bc1818c0dd6da28def5bb5,2022-06-29_11h43.25.783,Colour_Asymmetry_Pilot,2022.1.3,Win32,59.76571838,62bbe60bf3d75ef465d3e404,0,130,130,160,1,onetwo,,,,,,,,,,,,,,,,,,,,,,,,,,,,,,,,,,,,,,,,,,,,,,,,,,,,,,,,,,,,,,,,,,,,,,,,,,,,,,,,,,,,,,,,,,,,,,,,,,,,,,,,,,,,,,,,,,,,,,,,,,,,,,,,,,,,,,,,,,,,,,,,,,,,,,,,
,,,,,,61717173748006894b2b54ff,62bc1818c0dd6da28def5bb5,2022-06-29_11h43.25.783,Colour_Asymmetry_Pilot,2022.1.3,Win32,59.76571838,62bbe60bf3d75ef465d3e404,0,131,131,119,1,fourthree,,,,,,,,,,,,,,,,,,,,,,,,,,,,,,,,,,,,,,,,,,,,,,,,,,,,,,,,,,,,,,,,,,,,,,,,,,,,,,,,,,,,,,,,,,,,,,,,,,,,,,,,,,,,,,,,,,,,,,,,,,,,,,,,,,,,,,,,,,,,,,,,,,,,,,,,
,,,,,,61717173748006894b2b54ff,62bc1818c0dd6da28def5bb5,2022-06-29_11h43.25.783,Colour_Asymmetry_Pilot,2022.1.3,Win32,59.76571838,62bbe60bf3d75ef465d3e404,0,132,132,85,1,threefour,,,,,,,,,,,,,,,,,,,,,,,,,,,,,,,,,,,,,,,,,,,,,,,,,,,,,,,,,,,,,,,,,,,,,,,,,,,,,,,,,,,,,,,,,,,,,,,,,,,,,,,,,,,,,,,,,,,,,,,,,,,,,,,,,,,,,,,,,,,,,,,,,,,,,,,,
,,,,,,61717173748006894b2b54ff,62bc1818c0dd6da28def5bb5,2022-06-29_11h43.25.783,Colour_Asymmetry_Pilot,2022.1.3,Win32,59.76571838,62bbe60bf3d75ef465d3e404,0,133,133,149,1,threefour,,,,,,,,,,,,,,,,,,,,,,,,,,,,,,,,,,,,,,,,,,,,,,,,,,,,,,,,,,,,,,,,,,,,,,,,,,,,,,,,,,,,,,,,,,,,,,,,,,,,,,,,,,,,,,,,,,,,,,,,,,,,,,,,,,,,,,,,,,,,,,,,,,,,,,,,
,,,,,,61717173748006894b2b54ff,62bc1818c0dd6da28def5bb5,2022-06-29_11h43.25.783,Colour_Asymmetry_Pilot,2022.1.3,Win32,59.76571838,62bbe60bf3d75ef465d3e404,0,134,134,15,1,fourthree,,,,,,,,,,,,,,,,,,,,,,,,,,,,,,,,,,,,,,,,,,,,,,,,,,,,,,,,,,,,,,,,,,,,,,,,,,,,,,,,,,,,,,,,,,,,,,,,,,,,,,,,,,,,,,,,,,,,,,,,,,,,,,,,,,,,,,,,,,,,,,,,,,,,,,,,
,,,,,,61717173748006894b2b54ff,62bc1818c0dd6da28def5bb5,2022-06-29_11h43.25.783,Colour_Asymmetry_Pilot,2022.1.3,Win32,59.76571838,62bbe60bf3d75ef465d3e404,0,135,135,138,1,twoone,,,,,,,,,,,,,,,,,,,,,,,,,,,,,,,,,,,,,,,,,,,,,,,,,,,,,,,,,,,,,,,,,,,,,,,,,,,,,,,,,,,,,,,,,,,,,,,,,,,,,,,,,,,,,,,,,,,,,,,,,,,,,,,,,,,,,,,,,,,,,,,,,,,,,,,,
,,,,,,61717173748006894b2b54ff,62bc1818c0dd6da28def5bb5,2022-06-29_11h43.25.783,Colour_Asymmetry_Pilot,2022.1.3,Win32,59.76571838,62bbe60bf3d75ef465d3e404,0,136,136,61,1,threefour,,,,,,,,,,,,,,,,,,,,,,,,,,,,,,,,,,,,,,,,,,,,,,,,,,,,,,,,,,,,,,,,,,,,,,,,,,,,,,,,,,,,,,,,,,,,,,,,,,,,,,,,,,,,,,,,,,,,,,,,,,,,,,,,,,,,,,,,,,,,,,,,,,,,,,,,
,,,,,,61717173748006894b2b54ff,62bc1818c0dd6da28def5bb5,2022-06-29_11h43.25.783,Colour_Asymmetry_Pilot,2022.1.3,Win32,59.76571838,62bbe60bf3d75ef465d3e404,0,137,137,67,1,twofour,,,,,,,,,,,,,,,,,,,,,,,,,,,,,,,,,,,,,,,,,,,,,,,,,,,,,,,,,,,,,,,,,,,,,,,,,,,,,,,,,,,,,,,,,,,,,,,,,,,,,,,,,,,,,,,,,,,,,,,,,,,,,,,,,,,,,,,,,,,,,,,,,,,,,,,,
,,,,,,61717173748006894b2b54ff,62bc1818c0dd6da28def5bb5,2022-06-29_11h43.25.783,Colour_Asymmetry_Pilot,2022.1.3,Win32,59.76571838,62bbe60bf3d75ef465d3e404,0,138,138,68,1,threeone,,,,,,,,,,,,,,,,,,,,,,,,,,,,,,,,,,,,,,,,,,,,,,,,,,,,,,,,,,,,,,,,,,,,,,,,,,,,,,,,,,,,,,,,,,,,,,,,,,,,,,,,,,,,,,,,,,,,,,,,,,,,,,,,,,,,,,,,,,,,,,,,,,,,,,,,
,,,,,,61717173748006894b2b54ff,62bc1818c0dd6da28def5bb5,2022-06-29_11h43.25.783,Colour_Asymmetry_Pilot,2022.1.3,Win32,59.76571838,62bbe60bf3d75ef465d3e404,0,139,139,24,1,onetwo,,,,,,,,,,,,,,,,,,,,,,,,,,,,,,,,,,,,,,,,,,,,,,,,,,,,,,,,,,,,,,,,,,,,,,,,,,,,,,,,,,,,,,,,,,,,,,,,,,,,,,,,,,,,,,,,,,,,,,,,,,,,,,,,,,,,,,,,,,,,,,,,,,,,,,,,
,,,,,,61717173748006894b2b54ff,62bc1818c0dd6da28def5bb5,2022-06-29_11h43.25.783,Colour_Asymmetry_Pilot,2022.1.3,Win32,59.76571838,62bbe60bf3d75ef465d3e404,0,140,140,79,1,fourthree,,,,,,,,,,,,,,,,,,,,,,,,,,,,,,,,,,,,,,,,,,,,,,,,,,,,,,,,,,,,,,,,,,,,,,,,,,,,,,,,,,,,,,,,,,,,,,,,,,,,,,,,,,,,,,,,,,,,,,,,,,,,,,,,,,,,,,,,,,,,,,,,,,,,,,,,
,,,,,,61717173748006894b2b54ff,62bc1818c0dd6da28def5bb5,2022-06-29_11h43.25.783,Colour_Asymmetry_Pilot,2022.1.3,Win32,59.76571838,62bbe60bf3d75ef465d3e404,0,141,141,125,1,threefour,,,,,,,,,,,,,,,,,,,,,,,,,,,,,,,,,,,,,,,,,,,,,,,,,,,,,,,,,,,,,,,,,,,,,,,,,,,,,,,,,,,,,,,,,,,,,,,,,,,,,,,,,,,,,,,,,,,,,,,,,,,,,,,,,,,,,,,,,,,,,,,,,,,,,,,,
,,,,,,61717173748006894b2b54ff,62bc1818c0dd6da28def5bb5,2022-06-29_11h43.25.783,Colour_Asymmetry_Pilot,2022.1.3,Win32,59.76571838,62bbe60bf3d75ef465d3e404,0,142,142,91,1,twofour,,,,,,,,,,,,,,,,,,,,,,,,,,,,,,,,,,,,,,,,,,,,,,,,,,,,,,,,,,,,,,,,,,,,,,,,,,,,,,,,,,,,,,,,,,,,,,,,,,,,,,,,,,,,,,,,,,,,,,,,,,,,,,,,,,,,,,,,,,,,,,,,,,,,,,,,
,,,,,,61717173748006894b2b54ff,62bc1818c0dd6da28def5bb5,2022-06-29_11h43.25.783,Colour_Asymmetry_Pilot,2022.1.3,Win32,59.76571838,62bbe60bf3d75ef465d3e404,0,143,143,45,1,threefour,,,,,,,,,,,,,,,,,,,,,,,,,,,,,,,,,,,,,,,,,,,,,,,,,,,,,,,,,,,,,,,,,,,,,,,,,,,,,,,,,,,,,,,,,,,,,,,,,,,,,,,,,,,,,,,,,,,,,,,,,,,,,,,,,,,,,,,,,,,,,,,,,,,,,,,,
,,,,,,61717173748006894b2b54ff,62bc1818c0dd6da28def5bb5,2022-06-29_11h43.25.783,Colour_Asymmetry_Pilot,2022.1.3,Win32,59.76571838,62bbe60bf3d75ef465d3e404,0,144,144,94,1,fourtwo,,,,,,,,,,,,,,,,,,,,,,,,,,,,,,,,,,,,,,,,,,,,,,,,,,,,,,,,,,,,,,,,,,,,,,,,,,,,,,,,,,,,,,,,,,,,,,,,,,,,,,,,,,,,,,,,,,,,,,,,,,,,,,,,,,,,,,,,,,,,,,,,,,,,,,,,
,,,,,,61717173748006894b2b54ff,62bc1818c0dd6da28def5bb5,2022-06-29_11h43.25.783,Colour_Asymmetry_Pilot,2022.1.3,Win32,59.76571838,62bbe60bf3d75ef465d3e404,0,145,145,127,1,fourthree,,,,,,,,,,,,,,,,,,,,,,,,,,,,,,,,,,,,,,,,,,,,,,,,,,,,,,,,,,,,,,,,,,,,,,,,,,,,,,,,,,,,,,,,,,,,,,,,,,,,,,,,,,,,,,,,,,,,,,,,,,,,,,,,,,,,,,,,,,,,,,,,,,,,,,,,
,,,,,,61717173748006894b2b54ff,62bc1818c0dd6da28def5bb5,2022-06-29_11h43.25.783,Colour_Asymmetry_Pilot,2022.1.3,Win32,59.76571838,62bbe60bf3d75ef465d3e404,0,146,146,123,1,twofour,,,,,,,,,,,,,,,,,,,,,,,,,,,,,,,,,,,,,,,,,,,,,,,,,,,,,,,,,,,,,,,,,,,,,,,,,,,,,,,,,,,,,,,,,,,,,,,,,,,,,,,,,,,,,,,,,,,,,,,,,,,,,,,,,,,,,,,,,,,,,,,,,,,,,,,,
,,,,,,61717173748006894b2b54ff,62bc1818c0dd6da28def5bb5,2022-06-29_11h43.25.783,Colour_Asymmetry_Pilot,2022.1.3,Win32,59.76571838,62bbe60bf3d75ef465d3e404,0,147,147,159,1,fourthree,,,,,,,,,,,,,,,,,,,,,,,,,,,,,,,,,,,,,,,,,,,,,,,,,,,,,,,,,,,,,,,,,,,,,,,,,,,,,,,,,,,,,,,,,,,,,,,,,,,,,,,,,,,,,,,,,,,,,,,,,,,,,,,,,,,,,,,,,,,,,,,,,,,,,,,,
,,,,,,61717173748006894b2b54ff,62bc1818c0dd6da28def5bb5,2022-06-29_11h43.25.783,Colour_Asymmetry_Pilot,2022.1.3,Win32,59.76571838,62bbe60bf3d75ef465d3e404,0,148,148,70,1,fourtwo,,,,,,,,,,,,,,,,,,,,,,,,,,,,,,,,,,,,,,,,,,,,,,,,,,,,,,,,,,,,,,,,,,,,,,,,,,,,,,,,,,,,,,,,,,,,,,,,,,,,,,,,,,,,,,,,,,,,,,,,,,,,,,,,,,,,,,,,,,,,,,,,,,,,,,,,
,,,,,,61717173748006894b2b54ff,62bc1818c0dd6da28def5bb5,2022-06-29_11h43.25.783,Colour_Asymmetry_Pilot,2022.1.3,Win32,59.76571838,62bbe60bf3d75ef465d3e404,0,149,149,137,1,onethree,,,,,,,,,,,,,,,,,,,,,,,,,,,,,,,,,,,,,,,,,,,,,,,,,,,,,,,,,,,,,,,,,,,,,,,,,,,,,,,,,,,,,,,,,,,,,,,,,,,,,,,,,,,,,,,,,,,,,,,,,,,,,,,,,,,,,,,,,,,,,,,,,,,,,,,,
,,,,,,61717173748006894b2b54ff,62bc1818c0dd6da28def5bb5,2022-06-29_11h43.25.783,Colour_Asymmetry_Pilot,2022.1.3,Win32,59.76571838,62bbe60bf3d75ef465d3e404,0,150,150,46,1,fourtwo,,,,,,,,,,,,,,,,,,,,,,,,,,,,,,,,,,,,,,,,,,,,,,,,,,,,,,,,,,,,,,,,,,,,,,,,,,,,,,,,,,,,,,,,,,,,,,,,,,,,,,,,,,,,,,,,,,,,,,,,,,,,,,,,,,,,,,,,,,,,,,,,,,,,,,,,
,,,,,,61717173748006894b2b54ff,62bc1818c0dd6da28def5bb5,2022-06-29_11h43.25.783,Colour_Asymmetry_Pilot,2022.1.3,Win32,59.76571838,62bbe60bf3d75ef465d3e404,0,151,151,106,1,twoone,,,,,,,,,,,,,,,,,,,,,,,,,,,,,,,,,,,,,,,,,,,,,,,,,,,,,,,,,,,,,,,,,,,,,,,,,,,,,,,,,,,,,,,,,,,,,,,,,,,,,,,,,,,,,,,,,,,,,,,,,,,,,,,,,,,,,,,,,,,,,,,,,,,,,,,,
,,,,,,61717173748006894b2b54ff,62bc1818c0dd6da28def5bb5,2022-06-29_11h43.25.783,Colour_Asymmetry_Pilot,2022.1.3,Win32,59.76571838,62bbe60bf3d75ef465d3e404,0,152,152,23,1,fourthree,,,,,,,,,,,,,,,,,,,,,,,,,,,,,,,,,,,,,,,,,,,,,,,,,,,,,,,,,,,,,,,,,,,,,,,,,,,,,,,,,,,,,,,,,,,,,,,,,,,,,,,,,,,,,,,,,,,,,,,,,,,,,,,,,,,,,,,,,,,,,,,,,,,,,,,,
,,,,,,61717173748006894b2b54ff,62bc1818c0dd6da28def5bb5,2022-06-29_11h43.25.783,Colour_Asymmetry_Pilot,2022.1.3,Win32,59.76571838,62bbe60bf3d75ef465d3e404,0,153,153,17,1,onethree,,,,,,,,,,,,,,,,,,,,,,,,,,,,,,,,,,,,,,,,,,,,,,,,,,,,,,,,,,,,,,,,,,,,,,,,,,,,,,,,,,,,,,,,,,,,,,,,,,,,,,,,,,,,,,,,,,,,,,,,,,,,,,,,,,,,,,,,,,,,,,,,,,,,,,,,
,,,,,,61717173748006894b2b54ff,62bc1818c0dd6da28def5bb5,2022-06-29_11h43.25.783,Colour_Asymmetry_Pilot,2022.1.3,Win32,59.76571838,62bbe60bf3d75ef465d3e404,0,154,154,27,1,twofour,,,,,,,,,,,,,,,,,,,,,,,,,,,,,,,,,,,,,,,,,,,,,,,,,,,,,,,,,,,,,,,,,,,,,,,,,,,,,,,,,,,,,,,,,,,,,,,,,,,,,,,,,,,,,,,,,,,,,,,,,,,,,,,,,,,,,,,,,,,,,,,,,,,,,,,,
,,,,,,61717173748006894b2b54ff,62bc1818c0dd6da28def5bb5,2022-06-29_11h43.25.783,Colour_Asymmetry_Pilot,2022.1.3,Win32,59.76571838,62bbe60bf3d75ef465d3e404,0,155,155,21,1,threefour,,,,,,,,,,,,,,,,,,,,,,,,,,,,,,,,,,,,,,,,,,,,,,,,,,,,,,,,,,,,,,,,,,,,,,,,,,,,,,,,,,,,,,,,,,,,,,,,,,,,,,,,,,,,,,,,,,,,,,,,,,,,,,,,,,,,,,,,,,,,,,,,,,,,,,,,
,,,,,,61717173748006894b2b54ff,62bc1818c0dd6da28def5bb5,2022-06-29_11h43.25.783,Colour_Asymmetry_Pilot,2022.1.3,Win32,59.76571838,62bbe60bf3d75ef465d3e404,0,156,156,96,1,onetwo,,,,,,,,,,,,,,,,,,,,,,,,,,,,,,,,,,,,,,,,,,,,,,,,,,,,,,,,,,,,,,,,,,,,,,,,,,,,,,,,,,,,,,,,,,,,,,,,,,,,,,,,,,,,,,,,,,,,,,,,,,,,,,,,,,,,,,,,,,,,,,,,,,,,,,,,
,,,,,,61717173748006894b2b54ff,62bc1818c0dd6da28def5bb5,2022-06-29_11h43.25.783,Colour_Asymmetry_Pilot,2022.1.3,Win32,59.76571838,62bbe60bf3d75ef465d3e404,0,157,157,131,1,twofour,,,,,,,,,,,,,,,,,,,,,,,,,,,,,,,,,,,,,,,,,,,,,,,,,,,,,,,,,,,,,,,,,,,,,,,,,,,,,,,,,,,,,,,,,,,,,,,,,,,,,,,,,,,,,,,,,,,,,,,,,,,,,,,,,,,,,,,,,,,,,,,,,,,,,,,,
,,,,,,61717173748006894b2b54ff,62bc1818c0dd6da28def5bb5,2022-06-29_11h43.25.783,Colour_Asymmetry_Pilot,2022.1.3,Win32,59.76571838,62bbe60bf3d75ef465d3e404,0,158,158,95,1,fourthree,,,,,,,,,,,,,,,,,,,,,,,,,,,,,,,,,,,,,,,,,,,,,,,,,,,,,,,,,,,,,,,,,,,,,,,,,,,,,,,,,,,,,,,,,,,,,,,,,,,,,,,,,,,,,,,,,,,,,,,,,,,,,,,,,,,,,,,,,,,,,,,,,,,,,,,,
,,,,,,61717173748006894b2b54ff,62bc1818c0dd6da28def5bb5,2022-06-29_11h43.25.783,Colour_Asymmetry_Pilot,2022.1.3,Win32,59.76571838,62bbe60bf3d75ef465d3e404,0,159,159,77,1,threefour,,,,,,,,,,,,,,,,,,,,,,,,,,,,,,,,,,,,,,,,,,,,,,,,,,,,,,,,,,,,,,,,,,,,,,,,,,,,,,,,,,,,,,,,,,,,,,,,,,,,,,,,,,,,,,,,,,,,,,,,,,,,,,,,,,,,,,,,,,,,,,,,,,,,,,,,
,,,,,,61717173748006894b2b54ff,62bc1818c0dd6da28def5bb5,2022-06-29_11h43.25.783,Colour_Asymmetry_Pilot,2022.1.3,Win32,59.76571838,62bbe60bf3d75ef465d3e404,0,160,160,7,1,fourthree,,,,,,,,,,,,,,,,,,,,,,,,,,,,,,,,,,,,,,,,,,,,,,,,,,,,,,,,,,,,,,,,,,,,,,,,,,,,,,,,,,,,,,,,,,,,,,,,,,,,,,,,,,,,,,,,,,,,,,,,,,,,,,,,,,,,,,,,,,,,,,,,,,,,,,,,
,,,,,,61717173748006894b2b54ff,62bc1818c0dd6da28def5bb5,2022-06-29_11h43.25.783,Colour_Asymmetry_Pilot,2022.1.3,Win32,59.76571838,62bbe60bf3d75ef465d3e404,0,161,161,152,1,onetwo,,,,,,,,,,,,,,,,,,,,,,,,,,,,,,,,,,,,,,,,,,,,,,,,,,,,,,,,,,,,,,,,,,,,,,,,,,,,,,,,,,,,,,,,,,,,,,,,,,,,,,,,,,,,,,,,,,,,,,,,,,,,,,,,,,,,,,,,,,,,,,,,,,,,,,,,
,,,,,,61717173748006894b2b54ff,62bc1818c0dd6da28def5bb5,2022-06-29_11h43.25.783,Colour_Asymmetry_Pilot,2022.1.3,Win32,59.76571838,62bbe60bf3d75ef465d3e404,,,,,,,space,1.5649,space,12.8168,space,65.0229,space,9.7482,space,3.9609,space,3.3009,"[-0.45899999999999996,-0.3256,-0.9374]",threeone,"[-0.24719999999999998,-0.0354000000000001,0.3175999999999999]",-3,3.8463,-98.5,56.25,1,0,0,response7disk_5,-4.75,-5,1,0,0,rectangle_8,-4.75,-5,1,0,0,2,-4.75,-5,1,0,0,0,0,0,0,1,,,,,,,,,,,,,,,,,,,,,,,,,,,,,,,,,,,,,,,,,,,,,,,,,,,,,,,,,,,,,,,,,,,,,,,,,,,,,,,,,,,,,,,,,,,,,,,,,,,,,,,,,,,
,,,,,,61717173748006894b2b54ff,62bc1818c0dd6da28def5bb5,2022-06-29_11h43.25.783,Colour_Asymmetry_Pilot,2022.1.3,Win32,59.76571838,62bbe60bf3d75ef465d3e404,,,,,,,,,,,,,,,,,,,"[-0.6235999999999999,-0.6786,-0.08239999999999992]",twofour,"[1,0.12939999999999996,-1]",-3,2.0236,-122.25,31.25,1,0,0,response7disk_5,-2.25,0,1,0,0,rectangle_8,-2.25,0,1,0,0,2,-2.25,0,1,0,0,1,0,1,0,1,,,,,,,,,,,,,,,,,,,,,,,,,,,,,,,,,,,,,,,,,,,,,,,,,,,,,,,,,,,,,,,,,,,,,,,,,,,,,,,,,,,,,,,,,,,,,,,,,,,,,,,,,,,
,,,,,,61717173748006894b2b54ff,62bc1818c0dd6da28def5bb5,2022-06-29_11h43.25.783,Colour_Asymmetry_Pilot,2022.1.3,Win32,59.76571838,62bbe60bf3d75ef465d3e404,,,,,,,,,,,,,,,,,,,"[-0.050999999999999934,-0.6706000000000001,-0.804]",onetwo,"[0.09799999999999986,-0.24719999999999998,0.15280000000000005]",-1,2.8603,-63.5,-116.25,1,0,0,response5disk_5,4,-3.75,1,0,0,rectangle_8,4,-3.75,1,0,0,2,4,-3.75,1,0,0,2,0,2,0,1,,,,,,,,,,,,,,,,,,,,,,,,,,,,,,,,,,,,,,,,,,,,,,,,,,,,,,,,,,,,,,,,,,,,,,,,,,,,,,,,,,,,,,,,,,,,,,,,,,,,,,,,,,,
,,,,,,61717173748006894b2b54ff,62bc1818c0dd6da28def5bb5,2022-06-29_11h43.25.783,Colour_Asymmetry_Pilot,2022.1.3,Win32,59.76571838,62bbe60bf3d75ef465d3e404,,,,,,,,,,,,,,,,,,,"[-0.4902000000000001,0.2704,-0.45899999999999996]",fourthree,"[0.9372,0.20779999999999998,0.2704]",-2,1.639,-92.25,-41.25,1,0,0,response5disk_5,6.5,-2.5,1,0,0,rectangle_8,6.5,-2.5,1,0,0,2,6.5,-2.5,1,0,0,3,0,3,0,1,,,,,,,,,,,,,,,,,,,,,,,,,,,,,,,,,,,,,,,,,,,,,,,,,,,,,,,,,,,,,,,,,,,,,,,,,,,,,,,,,,,,,,,,,,,,,,,,,,,,,,,,,,,
,,,,,,61717173748006894b2b54ff,62bc1818c0dd6da28def5bb5,2022-06-29_11h43.25.783,Colour_Asymmetry_Pilot,2022.1.3,Win32,59.76571838,62bbe60bf3d75ef465d3e404,,,,,,,,,,,,,,,,,,,"[0.3802000000000001,0.19199999999999995,-0.6394]",fourthree,"[0.8115999999999999,-0.0040000000000000036,-0.09819999999999995]",1,3.4957,44,-115,1,0,0,response3disk_5,-3.5,2.5,1,0,0,rectangle_8,124,-56.25,1,0,0,2,-11,1.25,1,0,0,4,0,4,0,1,response3disk_7,5,rectangle_4,,,,,,,,,,,,,,,,,,,,,,,,,,,,,,,,,,,,,,,,,,,,,,,,,,,,,,,,,,,,,,,,,,,,,,,,,,,,,,,,,,,,,,,,,,,,,,,,,,,,,,,,
,,,,,,61717173748006894b2b54ff,62bc1818c0dd6da28def5bb5,2022-06-29_11h43.25.783,Colour_Asymmetry_Pilot,2022.1.3,Win32,59.76571838,62bbe60bf3d75ef465d3e404,,,,,,,,,,,,,,,,,,,"[0.3568,-0.20799999999999996,-0.9844]",twofour,"[-0.8198,-0.5138,-0.7492000000000001]",-1,1.9068,-34.75,-90,1,0,0,response5disk_5,10.25,13.75,1,0,0,rectangle_8,89,-46.25,1,0,0,2,5.25,-1.25,1,0,0,5,0,5,0,1,response3disk_7,5,rectangle_4,,,,,,,,,,,,,,,,,,,,,,,,,,,,,,,,,,,,,,,,,,,,,,,,,,,,,,,,,,,,,,,,,,,,,,,,,,,,,,,,,,,,,,,,,,,,,,,,,,,,,,,,
,,,,,,61717173748006894b2b54ff,62bc1818c0dd6da28def5bb5,2022-06-29_11h43.25.783,Colour_Asymmetry_Pilot,2022.1.3,Win32,59.76571838,62bbe60bf3d75ef465d3e404,,,,,,,,,,,,,,,,,,,"[0.8115999999999999,-0.0040000000000000036,-0.09819999999999995]",fourtwo,"[0.22340000000000004,-0.9296,-0.7884]",2,1.8228,102.75,-48.75,1,0,0,response3disk_5,-8.5,-6.25,1,0,0,rectangle_8,-8.5,-6.25,1,0,0,2,-8.5,-6.25,1,0,0,6,0,6,0,1,,,,,,,,,,,,,,,,,,,,,,,,,,,,,,,,,,,,,,,,,,,,,,,,,,,,,,,,,,,,,,,,,,,,,,,,,,,,,,,,,,,,,,,,,,,,,,,,,,,,,,,,,,,
,,,,,,61717173748006894b2b54ff,62bc1818c0dd6da28def5bb5,2022-06-29_11h43.25.783,Colour_Asymmetry_Pilot,2022.1.3,Win32,59.76571838,62bbe60bf3d75ef465d3e404,,,,,,,,,,,,,,,,,,,,threefour,,2,1.9735,,,,,,,,,,,,,,,,,,,,,,,,,,,,,,,,space,3.3814,"[0.09799999999999986,-0.24719999999999998,0.15280000000000005]","[0.5449999999999999,-0.31000000000000005,-0.0354000000000001]",100.25,-35,1,0,0,response3disk,-7.25,6.25,1,0,0,rectangle,-7.25,6.25,1,0,0,,2,0.001,0,-7.25,6.25,1,0,0,0,0,0,17,1,17,first,,,,,,,,,,,,,,,,,,,,,,,,,,,,,,,,,,,,,,,,,,,,,,,,,,,,,,,,,,,,,,,,,,,
,,,,,,61717173748006894b2b54ff,62bc1818c0dd6da28def5bb5,2022-06-29_11h43.25.783,Colour_Asymmetry_Pilot,2022.1.3,Win32,59.76571838,62bbe60bf3d75ef465d3e404,,,,,,,,,,,,,,,,,,,,twoone,,1,1.0037,,,,,,,,,,,,,,,,,,,,,,,,,,,,,,,,,,"[0.7018,0.7802,-0.16079999999999994]","[-0.5688,-0.08239999999999992,-0.1844]",26.5,-77.5,1,0,0,response3disk,4,-5,1,0,0,rectangle,57.75,-112.5,1,0,0,1,1,1.6221,1,0.25,3.75,1,0,0,0,1,1,159,1,78,second,response3disk_3,rectangle,,,,,,,,,,,,,,,,,,,,,,,,,,,,,,,,,,,,,,,,,,,,,,,,,,,,,,,,,,,,,,,,,
,,,,,,61717173748006894b2b54ff,62bc1818c0dd6da28def5bb5,2022-06-29_11h43.25.783,Colour_Asymmetry_Pilot,2022.1.3,Win32,59.76571838,62bbe60bf3d75ef465d3e404,,,,,,,,,,,,,,,,,,,,fourthree,,-1,1.1876,,,,,,,,,,,,,,,,,,,,,,,,,,,,,,,,,,"[0.796,0.2156,-0.27859999999999996]","[-0.09019999999999995,0.44300000000000006,0.5371999999999999]",-49.75,-77.5,1,0,0,response5disk,-7.25,3.75,1,0,0,rectangle,-7.25,3.75,1,0,0,1,3,0.0007,0,-7.25,3.75,1,0,0,0,2,2,101,1,20,second,,,,,,,,,,,,,,,,,,,,,,,,,,,,,,,,,,,,,,,,,,,,,,,,,,,,,,,,,,,,,,,,,,,
,,,,,,61717173748006894b2b54ff,62bc1818c0dd6da28def5bb5,2022-06-29_11h43.25.783,Colour_Asymmetry_Pilot,2022.1.3,Win32,59.76571838,62bbe60bf3d75ef465d3e404,,,,,,,,,,,,,,,,,,,,onetwo,,-1,1.8405,,,,,,,,,,,,,,,,,,,,,,,,,,,,,,,,,,"[-0.07459999999999989,0.12139999999999995,-0.9922]","[-0.10599999999999998,-0.15300000000000002,0.15280000000000005]",-36,-78.75,1,0,0,response5disk,-3.5,12.5,1,0,0,rectangle,-3.5,12.5,1,0,0,1,1,0.0007,0,-3.5,12.5,1,0,0,0,3,3,84,1,3,second,,,,,,,,,,,,,,,,,,,,,,,,,,,,,,,,,,,,,,,,,,,,,,,,,,,,,,,,,,,,,,,,,,,
,,,,,,61717173748006894b2b54ff,62bc1818c0dd6da28def5bb5,2022-06-29_11h43.25.783,Colour_Asymmetry_Pilot,2022.1.3,Win32,59.76571838,62bbe60bf3d75ef465d3e404,,,,,,,,,,,,,,,,,,,,onetwo,,-3,1.0872,,,,,,,,,,,,,,,,,,,,,,,,,,,,,,,,,,"[-0.9688,-0.4902000000000001,-0.12159999999999993]","[0.8274000000000001,-0.5844,-0.9452]",-97.25,41.25,1,0,0,response7disk,-6,5,1,0,0,rectangle,-6,5,1,0,0,1,2,0.0007,0,-6,5,1,0,0,0,4,4,6,1,6,first,,,,,,,,,,,,,,,,,,,,,,,,,,,,,,,,,,,,,,,,,,,,,,,,,,,,,,,,,,,,,,,,,,,
,,,,,,61717173748006894b2b54ff,62bc1818c0dd6da28def5bb5,2022-06-29_11h43.25.783,Colour_Asymmetry_Pilot,2022.1.3,Win32,59.76571838,62bbe60bf3d75ef465d3e404,,,,,,,,,,,,,,,,,,,,twoone,,3,0.7026,,,,,,,,,,,,,,,,,,,,,,,,,,,,,,,,,,"[0.9763999999999999,0.30979999999999985,-0.6786]","[0.34099999999999997,0.12939999999999996,-0.9766]",91.5,30,1,0,0,response1disk,16.5,-2.5,1,0,0,rectangle,16.5,-2.5,1,0,0,1,2,0.0002,0,16.5,-2.5,1,0,0,0,5,5,41,1,41,first,,,,,,,,,,,,,,,,,,,,,,,,,,,,,,,,,,,,,,,,,,,,,,,,,,,,,,,,,,,,,,,,,,,
,,,,,,61717173748006894b2b54ff,62bc1818c0dd6da28def5bb5,2022-06-29_11h43.25.783,Colour_Asymmetry_Pilot,2022.1.3,Win32,59.76571838,62bbe60bf3d75ef465d3e404,,,,,,,,,,,,,,,,,,,,fourtwo,,2,1.0372,,,,,,,,,,,,,,,,,,,,,,,,,,,,,,,,,,"[-0.9688,-0.4902000000000001,-0.12159999999999993]","[0.11359999999999992,0.6312,0.5213999999999999]",77.75,-41.25,1,0,0,response3disk,-8.5,-3.75,1,0,0,rectangle,-8.5,-3.75,1,0,0,1,1,0.0006,0,-8.5,-3.75,1,0,0,0,6,6,139,1,58,second,,,,,,,,,,,,,,,,,,,,,,,,,,,,,,,,,,,,,,,,,,,,,,,,,,,,,,,,,,,,,,,,,,,
,,,,,,61717173748006894b2b54ff,62bc1818c0dd6da28def5bb5,2022-06-29_11h43.25.783,Colour_Asymmetry_Pilot,2022.1.3,Win32,59.76571838,62bbe60bf3d75ef465d3e404,,,,,,,,,,,,,,,,,,,,fourthree,,1,0.6691,,,,,,,,,,,,,,,,,,,,,,,,,,,,,,,,,,"[-0.9688,-0.38039999999999996,-0.41979999999999995]","[0.11359999999999992,0.6312,0.5213999999999999]",60.25,-95,1,0,0,response3disk,-2.25,-3.75,1,0,0,rectangle,-2.25,-3.75,1,0,0,1,2,0.0007,0,-2.25,-3.75,1,0,0,0,7,7,125,1,44,second,,,,,,,,,,,,,,,,,,,,,,,,,,,,,,,,,,,,,,,,,,,,,,,,,,,,,,,,,,,,,,,,,,,
,,,,,,61717173748006894b2b54ff,62bc1818c0dd6da28def5bb5,2022-06-29_11h43.25.783,Colour_Asymmetry_Pilot,2022.1.3,Win32,59.76571838,62bbe60bf3d75ef465d3e404,,,,,,,,,,,,,,,,,,,,fourtwo,,4,0.569,,,,,,,,,,,,,,,,,,,,,,,,,,,,,,,,,,"[-0.01980000000000004,-0.5138,-0.38039999999999996]","[-0.01980000000000004,-0.5138,-0.38039999999999996]",45.25,117.5,1,0,0,response1disk,0.25,5,1,0,0,rectangle,0.25,5,1,0,0,1,3,0.0006,0,0.25,5,1,0,0,0,8,8,37,1,37,first,,,,,,,,,,,,,,,,,,,,,,,,,,,,,,,,,,,,,,,,,,,,,,,,,,,,,,,,,,,,,,,,,,,
,,,,,,61717173748006894b2b54ff,62bc1818c0dd6da28def5bb5,2022-06-29_11h43.25.783,Colour_Asymmetry_Pilot,2022.1.3,Win32,59.76571838,62bbe60bf3d75ef465d3e404,,,,,,,,,,,,,,,,,,,,threeone,,1,1.2211,,,,,,,,,,,,,,,,,,,,,,,,,,,,,,,,,,"[0.11359999999999992,0.6312,0.5213999999999999]","[-0.8118,-0.8198,-0.5452]",61.5,-80,1,0,0,response3disk,-16,13.75,1,0,0,rectangle,-16,13.75,1,0,0,1,3,0.0001,0,-16,13.75,1,0,0,0,9,9,112,1,31,second,,,,,,,,,,,,,,,,,,,,,,,,,,,,,,,,,,,,,,,,,,,,,,,,,,,,,,,,,,,,,,,,,,,
,,,,,,61717173748006894b2b54ff,62bc1818c0dd6da28def5bb5,2022-06-29_11h43.25.783,Colour_Asymmetry_Pilot,2022.1.3,Win32,59.76571838,62bbe60bf3d75ef465d3e404,,,,,,,,,,,,,,,,,,,,onethree,,-2,1.0537,,,,,,,,,,,,,,,,,,,,,,,,,,,,,,,,,,"[-0.5452,-0.608,0.2470000000000001]","[0.7018,0.7176,0.6155999999999999]",-109.75,-43.75,1,0,0,response5disk,4,-5,1,0,0,rectangle,4,-5,1,0,0,1,3,0.0001,0,4,-5,1,0,0,0,10,10,19,1,19,first,,,,,,,,,,,,,,,,,,,,,,,,,,,,,,,,,,,,,,,,,,,,,,,,,,,,,,,,,,,,,,,,,,,
,,,,,,61717173748006894b2b54ff,62bc1818c0dd6da28def5bb5,2022-06-29_11h43.25.783,Colour_Asymmetry_Pilot,2022.1.3,Win32,59.76571838,62bbe60bf3d75ef465d3e404,,,,,,,,,,,,,,,,,,,,threeone,,-1,0.9705,,,,,,,,,,,,,,,,,,,,,,,,,,,,,,,,,,"[-0.17659999999999998,0.3253999999999999,0.19999999999999996]","[0.34099999999999997,0.12939999999999996,-0.9766]",-48.5,-81.25,1,0,0,response5disk,6.5,2.5,1,0,0,rectangle,6.5,2.5,1,0,0,1,1,0.0007,0,6.5,2.5,1,0,0,0,11,11,107,1,26,second,,,,,,,,,,,,,,,,,,,,,,,,,,,,,,,,,,,,,,,,,,,,,,,,,,,,,,,,,,,,,,,,,,,
,,,,,,61717173748006894b2b54ff,62bc1818c0dd6da28def5bb5,2022-06-29_11h43.25.783,Colour_Asymmetry_Pilot,2022.1.3,Win32,59.76571838,62bbe60bf3d75ef465d3e404,,,,,,,,,,,,,,,,,,,,onethree,,-1,0.7025,,,,,,,,,,,,,,,,,,,,,,,,,,,,,,,,,,"[-0.10599999999999998,-0.15300000000000002,0.15280000000000005]","[0.23120000000000007,-0.7726,-0.34120000000000006]",-57.25,-106.25,1,0,0,response5disk,6.5,2.5,1,0,0,rectangle,6.5,2.5,1,0,0,1,1,0.0001,0,6.5,2.5,1,0,0,0,12,12,149,1,68,second,,,,,,,,,,,,,,,,,,,,,,,,,,,,,,,,,,,,,,,,,,,,,,,,,,,,,,,,,,,,,,,,,,,
,,,,,,61717173748006894b2b54ff,62bc1818c0dd6da28def5bb5,2022-06-29_11h43.25.783,Colour_Asymmetry_Pilot,2022.1.3,Win32,59.76571838,62bbe60bf3d75ef465d3e404,,,,,,,,,,,,,,,,,,,,onethree,,1,0.6184,,,,,,,,,,,,,,,,,,,,,,,,,,,,,,,,,,"[0.9763999999999999,-0.1137999999999999,-0.6314]","[0.9763999999999999,0.8588,-0.05900000000000005]",54,-88.75,1,0,0,response3disk,-6,0,1,0,0,rectangle,-6,0,1,0,0,1,2,0.0006,0,-6,0,1,0,0,0,13,13,66,1,66,first,,,,,,,,,,,,,,,,,,,,,,,,,,,,,,,,,,,,,,,,,,,,,,,,,,,,,,,,,,,,,,,,,,,
,,,,,,61717173748006894b2b54ff,62bc1818c0dd6da28def5bb5,2022-06-29_11h43.25.783,Colour_Asymmetry_Pilot,2022.1.3,Win32,59.76571838,62bbe60bf3d75ef465d3e404,,,,,,,,,,,,,,,,,,,,onetwo,,-1,0.4517,,,,,,,,,,,,,,,,,,,,,,,,,,,,,,,,,,"[-0.09019999999999995,0.44300000000000006,0.5371999999999999]","[0.796,0.2156,-0.27859999999999996]",-56,-97.5,1,0,0,response5disk,10.25,0,1,0,0,rectangle,10.25,0,1,0,0,1,3,0.0007,0,10.25,0,1,0,0,0,14,14,20,1,20,first,,,,,,,,,,,,,,,,,,,,,,,,,,,,,,,,,,,,,,,,,,,,,,,,,,,,,,,,,,,,,,,,,,,
,,,,,,61717173748006894b2b54ff,62bc1818c0dd6da28def5bb5,2022-06-29_11h43.25.783,Colour_Asymmetry_Pilot,2022.1.3,Win32,59.76571838,62bbe60bf3d75ef465d3e404,,,,,,,,,,,,,,,,,,,,onetwo,,1,0.7693,,,,,,,,,,,,,,,,,,,,,,,,,,,,,,,,,,"[-0.48240000000000005,0.3175999999999999,0.2156]","[0.2862,0.7802,0.3568]",61.5,-82.5,1,0,0,response3disk,1.5,8.75,1,0,0,rectangle,1.5,8.75,1,0,0,1,1,0.0007,0,1.5,8.75,1,0,0,0,15,15,39,1,39,first,,,,,,,,,,,,,,,,,,,,,,,,,,,,,,,,,,,,,,,,,,,,,,,,,,,,,,,,,,,,,,,,,,,
,,,,,,61717173748006894b2b54ff,62bc1818c0dd6da28def5bb5,2022-06-29_11h43.25.783,Colour_Asymmetry_Pilot,2022.1.3,Win32,59.76571838,62bbe60bf3d75ef465d3e404,,,,,,,,,,,,,,,,,,,,twofour,,-2,0.5852,,,,,,,,,,,,,,,,,,,,,,,,,,,,,,,,,,"[-0.45899999999999996,-0.3256,-0.9374]","[0.7018,0.7176,0.6155999999999999]",-112.25,-42.5,1,0,0,response5disk,6.5,-1.25,1,0,0,rectangle,6.5,-1.25,1,0,0,1,3,0.0008,0,6.5,-1.25,1,0,0,0,16,16,83,1,2,second,,,,,,,,,,,,,,,,,,,,,,,,,,,,,,,,,,,,,,,,,,,,,,,,,,,,,,,,,,,,,,,,,,,
,,,,,,61717173748006894b2b54ff,62bc1818c0dd6da28def5bb5,2022-06-29_11h43.25.783,Colour_Asymmetry_Pilot,2022.1.3,Win32,59.76571838,62bbe60bf3d75ef465d3e404,,,,,,,,,,,,,,,,,,,,onetwo,,-3,0.468,,,,,,,,,,,,,,,,,,,,,,,,,,,,,,,,,,"[0.9842,0.7409999999999999,-0.6628000000000001]","[-0.20799999999999996,-0.655,-0.01980000000000004]",-113.5,45,1,0,0,response7disk,-11,15,1,0,0,rectangle,-11,15,1,0,0,1,2,0.0005,0,-11,15,1,0,0,0,17,17,86,1,5,second,,,,,,,,,,,,,,,,,,,,,,,,,,,,,,,,,,,,,,,,,,,,,,,,,,,,,,,,,,,,,,,,,,,
,,,,,,61717173748006894b2b54ff,62bc1818c0dd6da28def5bb5,2022-06-29_11h43.25.783,Colour_Asymmetry_Pilot,2022.1.3,Win32,59.76571838,62bbe60bf3d75ef465d3e404,,,,,,,,,,,,,,,,,,,,threefour,,2,0.6854,,,,,,,,,,,,,,,,,,,,,,,,,,,,,,,,,,"[0.09799999999999986,-0.24719999999999998,0.15280000000000005]","[-0.5922000000000001,-0.7492000000000001,-0.5296000000000001]",89,-60,1,0,0,response3disk,-6,7.5,1,0,0,rectangle,-6,7.5,1,0,0,1,1,0.0005,0,-6,7.5,1,0,0,0,18,18,116,1,35,second,,,,,,,,,,,,,,,,,,,,,,,,,,,,,,,,,,,,,,,,,,,,,,,,,,,,,,,,,,,,,,,,,,,
,,,,,,61717173748006894b2b54ff,62bc1818c0dd6da28def5bb5,2022-06-29_11h43.25.783,Colour_Asymmetry_Pilot,2022.1.3,Win32,59.76571838,62bbe60bf3d75ef465d3e404,,,,,,,,,,,,,,,,,,,,fourtwo,,1,0.6358,,,,,,,,,,,,,,,,,,,,,,,,,,,,,,,,,,"[-0.9766,-0.34920000000000007,0.2156]","[0.09799999999999986,-0.24719999999999998,0.15280000000000005]",45.25,-85,1,0,0,response3disk,-7.25,8.75,1,0,0,rectangle,-7.25,8.75,1,0,0,1,1,0.0002,0,-7.25,8.75,1,0,0,0,19,19,80,1,80,first,,,,,,,,,,,,,,,,,,,,,,,,,,,,,,,,,,,,,,,,,,,,,,,,,,,,,,,,,,,,,,,,,,,
