trials.thisRepN,trials.thisTrialN,trials.thisN,trials.thisIndex,trials.ran,Colourcodes,participant,session,date,expName,psychopyVersion,OS,frameRate,study_id,trials_4.thisRepN,trials_4.thisTrialN,trials_4.thisN,trials_4.thisIndex,trials_4.ran,StimulusPos,key_resp.keys,key_resp.rt,key_resp_2.keys,key_resp_2.rt,key_resp_15.keys,key_resp_15.rt,key_resp_17.keys,key_resp_17.rt,key_resp_9.keys,key_resp_9.rt,key_resp_10.keys,key_resp_10.rt,Circle1_col,Ecc,Circle2_col,similarity,response_time,mouse_5.x,mouse_5.y,mouse_5.leftButton,mouse_5.midButton,mouse_5.rightButton,mouse_5.clicked_name,mouse_10.x,mouse_10.y,mouse_10.leftButton,mouse_10.midButton,mouse_10.rightButton,mouse_10.clicked_name,mouse_7.x,mouse_7.y,mouse_7.leftButton,mouse_7.midButton,mouse_7.rightButton,catchnumberprac,mouse_6.x,mouse_6.y,mouse_6.leftButton,mouse_6.midButton,mouse_6.rightButton,duringprac.thisRepN,duringprac.thisTrialN,duringprac.thisN,duringprac.thisIndex,duringprac.ran,mouse_7.clicked_name,catchprac,mouse_6.clicked_name,key_resp_22.keys,key_resp_22.rt,Circle1_colour,Circle2_colour,mouse.x,mouse.y,mouse.leftButton,mouse.midButton,mouse.rightButton,mouse.clicked_name,mouse_2.x,mouse_2.y,mouse_2.leftButton,mouse_2.midButton,mouse_2.rightButton,mouse_2.clicked_name,mouse_3.x,mouse_3.y,mouse_3.leftButton,mouse_3.midButton,mouse_3.rightButton,catchresponse,catchnumber,response_time_catch,Catch,mouse_11.x,mouse_11.y,mouse_11.leftButton,mouse_11.midButton,mouse_11.rightButton,trials_2.thisRepN,trials_2.thisTrialN,trials_2.thisN,trials_2.thisIndex,trials_2.ran,Colourpair,Temporder,mouse_3.clicked_name,mouse_11.clicked_name,trials_3.thisRepN,trials_3.thisTrialN,trials_3.thisN,trials_3.thisIndex,trials_3.ran,key_resp_instr_Ishi.keys,key_resp_instr_Ishi.rt,Ishi_trial_keyresp.keys,Ishi_trial_keyresp.rt,Ishi_textbox.text,Ishi_loop.thisRepN,Ishi_loop.thisTrialN,Ishi_loop.thisN,Ishi_loop.thisIndex,Ishi_loop.ran,imageaddress,textbox.text,mouse_4.x,mouse_4.y,mouse_4.leftButton,mouse_4.midButton,mouse_4.rightButton,mouse_4.clicked_name,textbox_2.text,mouse_8.x,mouse_8.y,mouse_8.leftButton,mouse_8.midButton,mouse_8.rightButton,mouse_8.clicked_name,textbox_3.text,mouse_9.x,mouse_9.y,mouse_9.leftButton,mouse_9.midButton,mouse_9.rightButton,mouse_9.clicked_name,textbox_4.text,mouse_12.x,mouse_12.y,mouse_12.leftButton,mouse_12.midButton,mouse_12.rightButton,mouse_12.clicked_name,textbox_5.text,mouse_13.x,mouse_13.y,mouse_13.leftButton,mouse_13.midButton,mouse_13.rightButton,mouse_13.clicked_name,textbox_6.text,mouse_14.x,mouse_14.y,mouse_14.leftButton,mouse_14.midButton,mouse_14.rightButton,mouse_14.clicked_name,textbox_7.text,mouse_15.x,mouse_15.y,mouse_15.leftButton,mouse_15.midButton,mouse_15.rightButton,mouse_15.clicked_name
0,0,0,81,1,,611cd816b1ca5d5859eda77f,62bbfb15e1ba36e704ee8728,2022-06-29_09h12.04.278,Colour_Asymmetry_Pilot,2022.1.3,Win32,60.0060006,62bbe60bf3d75ef465d3e404,,,,,,,,,,,,,,,,,,,,,,,,,,,,,,,,,,,,,,,,,,,,,,,,,,,,,,,,,,,,,,,,,,,,,,,,,,,,,,,,,,,,,,,,,,,,,,,,,,,,,,,,,,,,,,,,,,,,,,,,,,,,,,,,,,,,,,,,,,,,,,,,,,,,,,,,,,,,,,
0,1,1,5,1,,611cd816b1ca5d5859eda77f,62bbfb15e1ba36e704ee8728,2022-06-29_09h12.04.278,Colour_Asymmetry_Pilot,2022.1.3,Win32,60.0060006,62bbe60bf3d75ef465d3e404,,,,,,,,,,,,,,,,,,,,,,,,,,,,,,,,,,,,,,,,,,,,,,,,,,,,,,,,,,,,,,,,,,,,,,,,,,,,,,,,,,,,,,,,,,,,,,,,,,,,,,,,,,,,,,,,,,,,,,,,,,,,,,,,,,,,,,,,,,,,,,,,,,,,,,,,,,,,,,
0,2,2,56,1,,611cd816b1ca5d5859eda77f,62bbfb15e1ba36e704ee8728,2022-06-29_09h12.04.278,Colour_Asymmetry_Pilot,2022.1.3,Win32,60.0060006,62bbe60bf3d75ef465d3e404,,,,,,,,,,,,,,,,,,,,,,,,,,,,,,,,,,,,,,,,,,,,,,,,,,,,,,,,,,,,,,,,,,,,,,,,,,,,,,,,,,,,,,,,,,,,,,,,,,,,,,,,,,,,,,,,,,,,,,,,,,,,,,,,,,,,,,,,,,,,,,,,,,,,,,,,,,,,,,
0,3,3,11,1,,611cd816b1ca5d5859eda77f,62bbfb15e1ba36e704ee8728,2022-06-29_09h12.04.278,Colour_Asymmetry_Pilot,2022.1.3,Win32,60.0060006,62bbe60bf3d75ef465d3e404,,,,,,,,,,,,,,,,,,,,,,,,,,,,,,,,,,,,,,,,,,,,,,,,,,,,,,,,,,,,,,,,,,,,,,,,,,,,,,,,,,,,,,,,,,,,,,,,,,,,,,,,,,,,,,,,,,,,,,,,,,,,,,,,,,,,,,,,,,,,,,,,,,,,,,,,,,,,,,
0,4,4,2,1,,611cd816b1ca5d5859eda77f,62bbfb15e1ba36e704ee8728,2022-06-29_09h12.04.278,Colour_Asymmetry_Pilot,2022.1.3,Win32,60.0060006,62bbe60bf3d75ef465d3e404,,,,,,,,,,,,,,,,,,,,,,,,,,,,,,,,,,,,,,,,,,,,,,,,,,,,,,,,,,,,,,,,,,,,,,,,,,,,,,,,,,,,,,,,,,,,,,,,,,,,,,,,,,,,,,,,,,,,,,,,,,,,,,,,,,,,,,,,,,,,,,,,,,,,,,,,,,,,,,
0,5,5,43,1,,611cd816b1ca5d5859eda77f,62bbfb15e1ba36e704ee8728,2022-06-29_09h12.04.278,Colour_Asymmetry_Pilot,2022.1.3,Win32,60.0060006,62bbe60bf3d75ef465d3e404,,,,,,,,,,,,,,,,,,,,,,,,,,,,,,,,,,,,,,,,,,,,,,,,,,,,,,,,,,,,,,,,,,,,,,,,,,,,,,,,,,,,,,,,,,,,,,,,,,,,,,,,,,,,,,,,,,,,,,,,,,,,,,,,,,,,,,,,,,,,,,,,,,,,,,,,,,,,,,
0,6,6,79,1,,611cd816b1ca5d5859eda77f,62bbfb15e1ba36e704ee8728,2022-06-29_09h12.04.278,Colour_Asymmetry_Pilot,2022.1.3,Win32,60.0060006,62bbe60bf3d75ef465d3e404,,,,,,,,,,,,,,,,,,,,,,,,,,,,,,,,,,,,,,,,,,,,,,,,,,,,,,,,,,,,,,,,,,,,,,,,,,,,,,,,,,,,,,,,,,,,,,,,,,,,,,,,,,,,,,,,,,,,,,,,,,,,,,,,,,,,,,,,,,,,,,,,,,,,,,,,,,,,,,
0,7,7,73,1,,611cd816b1ca5d5859eda77f,62bbfb15e1ba36e704ee8728,2022-06-29_09h12.04.278,Colour_Asymmetry_Pilot,2022.1.3,Win32,60.0060006,62bbe60bf3d75ef465d3e404,,,,,,,,,,,,,,,,,,,,,,,,,,,,,,,,,,,,,,,,,,,,,,,,,,,,,,,,,,,,,,,,,,,,,,,,,,,,,,,,,,,,,,,,,,,,,,,,,,,,,,,,,,,,,,,,,,,,,,,,,,,,,,,,,,,,,,,,,,,,,,,,,,,,,,,,,,,,,,
0,8,8,42,1,,611cd816b1ca5d5859eda77f,62bbfb15e1ba36e704ee8728,2022-06-29_09h12.04.278,Colour_Asymmetry_Pilot,2022.1.3,Win32,60.0060006,62bbe60bf3d75ef465d3e404,,,,,,,,,,,,,,,,,,,,,,,,,,,,,,,,,,,,,,,,,,,,,,,,,,,,,,,,,,,,,,,,,,,,,,,,,,,,,,,,,,,,,,,,,,,,,,,,,,,,,,,,,,,,,,,,,,,,,,,,,,,,,,,,,,,,,,,,,,,,,,,,,,,,,,,,,,,,,,
0,9,9,84,1,,611cd816b1ca5d5859eda77f,62bbfb15e1ba36e704ee8728,2022-06-29_09h12.04.278,Colour_Asymmetry_Pilot,2022.1.3,Win32,60.0060006,62bbe60bf3d75ef465d3e404,,,,,,,,,,,,,,,,,,,,,,,,,,,,,,,,,,,,,,,,,,,,,,,,,,,,,,,,,,,,,,,,,,,,,,,,,,,,,,,,,,,,,,,,,,,,,,,,,,,,,,,,,,,,,,,,,,,,,,,,,,,,,,,,,,,,,,,,,,,,,,,,,,,,,,,,,,,,,,
0,10,10,52,1,,611cd816b1ca5d5859eda77f,62bbfb15e1ba36e704ee8728,2022-06-29_09h12.04.278,Colour_Asymmetry_Pilot,2022.1.3,Win32,60.0060006,62bbe60bf3d75ef465d3e404,,,,,,,,,,,,,,,,,,,,,,,,,,,,,,,,,,,,,,,,,,,,,,,,,,,,,,,,,,,,,,,,,,,,,,,,,,,,,,,,,,,,,,,,,,,,,,,,,,,,,,,,,,,,,,,,,,,,,,,,,,,,,,,,,,,,,,,,,,,,,,,,,,,,,,,,,,,,,,
0,11,11,54,1,,611cd816b1ca5d5859eda77f,62bbfb15e1ba36e704ee8728,2022-06-29_09h12.04.278,Colour_Asymmetry_Pilot,2022.1.3,Win32,60.0060006,62bbe60bf3d75ef465d3e404,,,,,,,,,,,,,,,,,,,,,,,,,,,,,,,,,,,,,,,,,,,,,,,,,,,,,,,,,,,,,,,,,,,,,,,,,,,,,,,,,,,,,,,,,,,,,,,,,,,,,,,,,,,,,,,,,,,,,,,,,,,,,,,,,,,,,,,,,,,,,,,,,,,,,,,,,,,,,,
0,12,12,7,1,,611cd816b1ca5d5859eda77f,62bbfb15e1ba36e704ee8728,2022-06-29_09h12.04.278,Colour_Asymmetry_Pilot,2022.1.3,Win32,60.0060006,62bbe60bf3d75ef465d3e404,,,,,,,,,,,,,,,,,,,,,,,,,,,,,,,,,,,,,,,,,,,,,,,,,,,,,,,,,,,,,,,,,,,,,,,,,,,,,,,,,,,,,,,,,,,,,,,,,,,,,,,,,,,,,,,,,,,,,,,,,,,,,,,,,,,,,,,,,,,,,,,,,,,,,,,,,,,,,,
0,13,13,10,1,,611cd816b1ca5d5859eda77f,62bbfb15e1ba36e704ee8728,2022-06-29_09h12.04.278,Colour_Asymmetry_Pilot,2022.1.3,Win32,60.0060006,62bbe60bf3d75ef465d3e404,,,,,,,,,,,,,,,,,,,,,,,,,,,,,,,,,,,,,,,,,,,,,,,,,,,,,,,,,,,,,,,,,,,,,,,,,,,,,,,,,,,,,,,,,,,,,,,,,,,,,,,,,,,,,,,,,,,,,,,,,,,,,,,,,,,,,,,,,,,,,,,,,,,,,,,,,,,,,,
0,14,14,35,1,,611cd816b1ca5d5859eda77f,62bbfb15e1ba36e704ee8728,2022-06-29_09h12.04.278,Colour_Asymmetry_Pilot,2022.1.3,Win32,60.0060006,62bbe60bf3d75ef465d3e404,,,,,,,,,,,,,,,,,,,,,,,,,,,,,,,,,,,,,,,,,,,,,,,,,,,,,,,,,,,,,,,,,,,,,,,,,,,,,,,,,,,,,,,,,,,,,,,,,,,,,,,,,,,,,,,,,,,,,,,,,,,,,,,,,,,,,,,,,,,,,,,,,,,,,,,,,,,,,,
0,15,15,14,1,,611cd816b1ca5d5859eda77f,62bbfb15e1ba36e704ee8728,2022-06-29_09h12.04.278,Colour_Asymmetry_Pilot,2022.1.3,Win32,60.0060006,62bbe60bf3d75ef465d3e404,,,,,,,,,,,,,,,,,,,,,,,,,,,,,,,,,,,,,,,,,,,,,,,,,,,,,,,,,,,,,,,,,,,,,,,,,,,,,,,,,,,,,,,,,,,,,,,,,,,,,,,,,,,,,,,,,,,,,,,,,,,,,,,,,,,,,,,,,,,,,,,,,,,,,,,,,,,,,,
0,16,16,44,1,,611cd816b1ca5d5859eda77f,62bbfb15e1ba36e704ee8728,2022-06-29_09h12.04.278,Colour_Asymmetry_Pilot,2022.1.3,Win32,60.0060006,62bbe60bf3d75ef465d3e404,,,,,,,,,,,,,,,,,,,,,,,,,,,,,,,,,,,,,,,,,,,,,,,,,,,,,,,,,,,,,,,,,,,,,,,,,,,,,,,,,,,,,,,,,,,,,,,,,,,,,,,,,,,,,,,,,,,,,,,,,,,,,,,,,,,,,,,,,,,,,,,,,,,,,,,,,,,,,,
0,17,17,13,1,,611cd816b1ca5d5859eda77f,62bbfb15e1ba36e704ee8728,2022-06-29_09h12.04.278,Colour_Asymmetry_Pilot,2022.1.3,Win32,60.0060006,62bbe60bf3d75ef465d3e404,,,,,,,,,,,,,,,,,,,,,,,,,,,,,,,,,,,,,,,,,,,,,,,,,,,,,,,,,,,,,,,,,,,,,,,,,,,,,,,,,,,,,,,,,,,,,,,,,,,,,,,,,,,,,,,,,,,,,,,,,,,,,,,,,,,,,,,,,,,,,,,,,,,,,,,,,,,,,,
0,18,18,69,1,,611cd816b1ca5d5859eda77f,62bbfb15e1ba36e704ee8728,2022-06-29_09h12.04.278,Colour_Asymmetry_Pilot,2022.1.3,Win32,60.0060006,62bbe60bf3d75ef465d3e404,,,,,,,,,,,,,,,,,,,,,,,,,,,,,,,,,,,,,,,,,,,,,,,,,,,,,,,,,,,,,,,,,,,,,,,,,,,,,,,,,,,,,,,,,,,,,,,,,,,,,,,,,,,,,,,,,,,,,,,,,,,,,,,,,,,,,,,,,,,,,,,,,,,,,,,,,,,,,,
0,19,19,12,1,,611cd816b1ca5d5859eda77f,62bbfb15e1ba36e704ee8728,2022-06-29_09h12.04.278,Colour_Asymmetry_Pilot,2022.1.3,Win32,60.0060006,62bbe60bf3d75ef465d3e404,,,,,,,,,,,,,,,,,,,,,,,,,,,,,,,,,,,,,,,,,,,,,,,,,,,,,,,,,,,,,,,,,,,,,,,,,,,,,,,,,,,,,,,,,,,,,,,,,,,,,,,,,,,,,,,,,,,,,,,,,,,,,,,,,,,,,,,,,,,,,,,,,,,,,,,,,,,,,,
0,20,20,29,1,,611cd816b1ca5d5859eda77f,62bbfb15e1ba36e704ee8728,2022-06-29_09h12.04.278,Colour_Asymmetry_Pilot,2022.1.3,Win32,60.0060006,62bbe60bf3d75ef465d3e404,,,,,,,,,,,,,,,,,,,,,,,,,,,,,,,,,,,,,,,,,,,,,,,,,,,,,,,,,,,,,,,,,,,,,,,,,,,,,,,,,,,,,,,,,,,,,,,,,,,,,,,,,,,,,,,,,,,,,,,,,,,,,,,,,,,,,,,,,,,,,,,,,,,,,,,,,,,,,,
0,21,21,92,1,,611cd816b1ca5d5859eda77f,62bbfb15e1ba36e704ee8728,2022-06-29_09h12.04.278,Colour_Asymmetry_Pilot,2022.1.3,Win32,60.0060006,62bbe60bf3d75ef465d3e404,,,,,,,,,,,,,,,,,,,,,,,,,,,,,,,,,,,,,,,,,,,,,,,,,,,,,,,,,,,,,,,,,,,,,,,,,,,,,,,,,,,,,,,,,,,,,,,,,,,,,,,,,,,,,,,,,,,,,,,,,,,,,,,,,,,,,,,,,,,,,,,,,,,,,,,,,,,,,,
0,22,22,65,1,,611cd816b1ca5d5859eda77f,62bbfb15e1ba36e704ee8728,2022-06-29_09h12.04.278,Colour_Asymmetry_Pilot,2022.1.3,Win32,60.0060006,62bbe60bf3d75ef465d3e404,,,,,,,,,,,,,,,,,,,,,,,,,,,,,,,,,,,,,,,,,,,,,,,,,,,,,,,,,,,,,,,,,,,,,,,,,,,,,,,,,,,,,,,,,,,,,,,,,,,,,,,,,,,,,,,,,,,,,,,,,,,,,,,,,,,,,,,,,,,,,,,,,,,,,,,,,,,,,,
0,23,23,55,1,,611cd816b1ca5d5859eda77f,62bbfb15e1ba36e704ee8728,2022-06-29_09h12.04.278,Colour_Asymmetry_Pilot,2022.1.3,Win32,60.0060006,62bbe60bf3d75ef465d3e404,,,,,,,,,,,,,,,,,,,,,,,,,,,,,,,,,,,,,,,,,,,,,,,,,,,,,,,,,,,,,,,,,,,,,,,,,,,,,,,,,,,,,,,,,,,,,,,,,,,,,,,,,,,,,,,,,,,,,,,,,,,,,,,,,,,,,,,,,,,,,,,,,,,,,,,,,,,,,,
0,24,24,64,1,,611cd816b1ca5d5859eda77f,62bbfb15e1ba36e704ee8728,2022-06-29_09h12.04.278,Colour_Asymmetry_Pilot,2022.1.3,Win32,60.0060006,62bbe60bf3d75ef465d3e404,,,,,,,,,,,,,,,,,,,,,,,,,,,,,,,,,,,,,,,,,,,,,,,,,,,,,,,,,,,,,,,,,,,,,,,,,,,,,,,,,,,,,,,,,,,,,,,,,,,,,,,,,,,,,,,,,,,,,,,,,,,,,,,,,,,,,,,,,,,,,,,,,,,,,,,,,,,,,,
0,25,25,36,1,,611cd816b1ca5d5859eda77f,62bbfb15e1ba36e704ee8728,2022-06-29_09h12.04.278,Colour_Asymmetry_Pilot,2022.1.3,Win32,60.0060006,62bbe60bf3d75ef465d3e404,,,,,,,,,,,,,,,,,,,,,,,,,,,,,,,,,,,,,,,,,,,,,,,,,,,,,,,,,,,,,,,,,,,,,,,,,,,,,,,,,,,,,,,,,,,,,,,,,,,,,,,,,,,,,,,,,,,,,,,,,,,,,,,,,,,,,,,,,,,,,,,,,,,,,,,,,,,,,,
0,26,26,68,1,,611cd816b1ca5d5859eda77f,62bbfb15e1ba36e704ee8728,2022-06-29_09h12.04.278,Colour_Asymmetry_Pilot,2022.1.3,Win32,60.0060006,62bbe60bf3d75ef465d3e404,,,,,,,,,,,,,,,,,,,,,,,,,,,,,,,,,,,,,,,,,,,,,,,,,,,,,,,,,,,,,,,,,,,,,,,,,,,,,,,,,,,,,,,,,,,,,,,,,,,,,,,,,,,,,,,,,,,,,,,,,,,,,,,,,,,,,,,,,,,,,,,,,,,,,,,,,,,,,,
0,27,27,86,1,,611cd816b1ca5d5859eda77f,62bbfb15e1ba36e704ee8728,2022-06-29_09h12.04.278,Colour_Asymmetry_Pilot,2022.1.3,Win32,60.0060006,62bbe60bf3d75ef465d3e404,,,,,,,,,,,,,,,,,,,,,,,,,,,,,,,,,,,,,,,,,,,,,,,,,,,,,,,,,,,,,,,,,,,,,,,,,,,,,,,,,,,,,,,,,,,,,,,,,,,,,,,,,,,,,,,,,,,,,,,,,,,,,,,,,,,,,,,,,,,,,,,,,,,,,,,,,,,,,,
0,28,28,23,1,,611cd816b1ca5d5859eda77f,62bbfb15e1ba36e704ee8728,2022-06-29_09h12.04.278,Colour_Asymmetry_Pilot,2022.1.3,Win32,60.0060006,62bbe60bf3d75ef465d3e404,,,,,,,,,,,,,,,,,,,,,,,,,,,,,,,,,,,,,,,,,,,,,,,,,,,,,,,,,,,,,,,,,,,,,,,,,,,,,,,,,,,,,,,,,,,,,,,,,,,,,,,,,,,,,,,,,,,,,,,,,,,,,,,,,,,,,,,,,,,,,,,,,,,,,,,,,,,,,,
0,29,29,6,1,,611cd816b1ca5d5859eda77f,62bbfb15e1ba36e704ee8728,2022-06-29_09h12.04.278,Colour_Asymmetry_Pilot,2022.1.3,Win32,60.0060006,62bbe60bf3d75ef465d3e404,,,,,,,,,,,,,,,,,,,,,,,,,,,,,,,,,,,,,,,,,,,,,,,,,,,,,,,,,,,,,,,,,,,,,,,,,,,,,,,,,,,,,,,,,,,,,,,,,,,,,,,,,,,,,,,,,,,,,,,,,,,,,,,,,,,,,,,,,,,,,,,,,,,,,,,,,,,,,,
0,30,30,39,1,,611cd816b1ca5d5859eda77f,62bbfb15e1ba36e704ee8728,2022-06-29_09h12.04.278,Colour_Asymmetry_Pilot,2022.1.3,Win32,60.0060006,62bbe60bf3d75ef465d3e404,,,,,,,,,,,,,,,,,,,,,,,,,,,,,,,,,,,,,,,,,,,,,,,,,,,,,,,,,,,,,,,,,,,,,,,,,,,,,,,,,,,,,,,,,,,,,,,,,,,,,,,,,,,,,,,,,,,,,,,,,,,,,,,,,,,,,,,,,,,,,,,,,,,,,,,,,,,,,,
0,31,31,28,1,,611cd816b1ca5d5859eda77f,62bbfb15e1ba36e704ee8728,2022-06-29_09h12.04.278,Colour_Asymmetry_Pilot,2022.1.3,Win32,60.0060006,62bbe60bf3d75ef465d3e404,,,,,,,,,,,,,,,,,,,,,,,,,,,,,,,,,,,,,,,,,,,,,,,,,,,,,,,,,,,,,,,,,,,,,,,,,,,,,,,,,,,,,,,,,,,,,,,,,,,,,,,,,,,,,,,,,,,,,,,,,,,,,,,,,,,,,,,,,,,,,,,,,,,,,,,,,,,,,,
0,32,32,33,1,,611cd816b1ca5d5859eda77f,62bbfb15e1ba36e704ee8728,2022-06-29_09h12.04.278,Colour_Asymmetry_Pilot,2022.1.3,Win32,60.0060006,62bbe60bf3d75ef465d3e404,,,,,,,,,,,,,,,,,,,,,,,,,,,,,,,,,,,,,,,,,,,,,,,,,,,,,,,,,,,,,,,,,,,,,,,,,,,,,,,,,,,,,,,,,,,,,,,,,,,,,,,,,,,,,,,,,,,,,,,,,,,,,,,,,,,,,,,,,,,,,,,,,,,,,,,,,,,,,,
0,33,33,37,1,,611cd816b1ca5d5859eda77f,62bbfb15e1ba36e704ee8728,2022-06-29_09h12.04.278,Colour_Asymmetry_Pilot,2022.1.3,Win32,60.0060006,62bbe60bf3d75ef465d3e404,,,,,,,,,,,,,,,,,,,,,,,,,,,,,,,,,,,,,,,,,,,,,,,,,,,,,,,,,,,,,,,,,,,,,,,,,,,,,,,,,,,,,,,,,,,,,,,,,,,,,,,,,,,,,,,,,,,,,,,,,,,,,,,,,,,,,,,,,,,,,,,,,,,,,,,,,,,,,,
0,34,34,46,1,,611cd816b1ca5d5859eda77f,62bbfb15e1ba36e704ee8728,2022-06-29_09h12.04.278,Colour_Asymmetry_Pilot,2022.1.3,Win32,60.0060006,62bbe60bf3d75ef465d3e404,,,,,,,,,,,,,,,,,,,,,,,,,,,,,,,,,,,,,,,,,,,,,,,,,,,,,,,,,,,,,,,,,,,,,,,,,,,,,,,,,,,,,,,,,,,,,,,,,,,,,,,,,,,,,,,,,,,,,,,,,,,,,,,,,,,,,,,,,,,,,,,,,,,,,,,,,,,,,,
0,35,35,1,1,,611cd816b1ca5d5859eda77f,62bbfb15e1ba36e704ee8728,2022-06-29_09h12.04.278,Colour_Asymmetry_Pilot,2022.1.3,Win32,60.0060006,62bbe60bf3d75ef465d3e404,,,,,,,,,,,,,,,,,,,,,,,,,,,,,,,,,,,,,,,,,,,,,,,,,,,,,,,,,,,,,,,,,,,,,,,,,,,,,,,,,,,,,,,,,,,,,,,,,,,,,,,,,,,,,,,,,,,,,,,,,,,,,,,,,,,,,,,,,,,,,,,,,,,,,,,,,,,,,,
0,36,36,71,1,,611cd816b1ca5d5859eda77f,62bbfb15e1ba36e704ee8728,2022-06-29_09h12.04.278,Colour_Asymmetry_Pilot,2022.1.3,Win32,60.0060006,62bbe60bf3d75ef465d3e404,,,,,,,,,,,,,,,,,,,,,,,,,,,,,,,,,,,,,,,,,,,,,,,,,,,,,,,,,,,,,,,,,,,,,,,,,,,,,,,,,,,,,,,,,,,,,,,,,,,,,,,,,,,,,,,,,,,,,,,,,,,,,,,,,,,,,,,,,,,,,,,,,,,,,,,,,,,,,,
0,37,37,60,1,,611cd816b1ca5d5859eda77f,62bbfb15e1ba36e704ee8728,2022-06-29_09h12.04.278,Colour_Asymmetry_Pilot,2022.1.3,Win32,60.0060006,62bbe60bf3d75ef465d3e404,,,,,,,,,,,,,,,,,,,,,,,,,,,,,,,,,,,,,,,,,,,,,,,,,,,,,,,,,,,,,,,,,,,,,,,,,,,,,,,,,,,,,,,,,,,,,,,,,,,,,,,,,,,,,,,,,,,,,,,,,,,,,,,,,,,,,,,,,,,,,,,,,,,,,,,,,,,,,,
0,38,38,51,1,,611cd816b1ca5d5859eda77f,62bbfb15e1ba36e704ee8728,2022-06-29_09h12.04.278,Colour_Asymmetry_Pilot,2022.1.3,Win32,60.0060006,62bbe60bf3d75ef465d3e404,,,,,,,,,,,,,,,,,,,,,,,,,,,,,,,,,,,,,,,,,,,,,,,,,,,,,,,,,,,,,,,,,,,,,,,,,,,,,,,,,,,,,,,,,,,,,,,,,,,,,,,,,,,,,,,,,,,,,,,,,,,,,,,,,,,,,,,,,,,,,,,,,,,,,,,,,,,,,,
0,39,39,59,1,,611cd816b1ca5d5859eda77f,62bbfb15e1ba36e704ee8728,2022-06-29_09h12.04.278,Colour_Asymmetry_Pilot,2022.1.3,Win32,60.0060006,62bbe60bf3d75ef465d3e404,,,,,,,,,,,,,,,,,,,,,,,,,,,,,,,,,,,,,,,,,,,,,,,,,,,,,,,,,,,,,,,,,,,,,,,,,,,,,,,,,,,,,,,,,,,,,,,,,,,,,,,,,,,,,,,,,,,,,,,,,,,,,,,,,,,,,,,,,,,,,,,,,,,,,,,,,,,,,,
0,40,40,27,1,,611cd816b1ca5d5859eda77f,62bbfb15e1ba36e704ee8728,2022-06-29_09h12.04.278,Colour_Asymmetry_Pilot,2022.1.3,Win32,60.0060006,62bbe60bf3d75ef465d3e404,,,,,,,,,,,,,,,,,,,,,,,,,,,,,,,,,,,,,,,,,,,,,,,,,,,,,,,,,,,,,,,,,,,,,,,,,,,,,,,,,,,,,,,,,,,,,,,,,,,,,,,,,,,,,,,,,,,,,,,,,,,,,,,,,,,,,,,,,,,,,,,,,,,,,,,,,,,,,,
0,41,41,21,1,,611cd816b1ca5d5859eda77f,62bbfb15e1ba36e704ee8728,2022-06-29_09h12.04.278,Colour_Asymmetry_Pilot,2022.1.3,Win32,60.0060006,62bbe60bf3d75ef465d3e404,,,,,,,,,,,,,,,,,,,,,,,,,,,,,,,,,,,,,,,,,,,,,,,,,,,,,,,,,,,,,,,,,,,,,,,,,,,,,,,,,,,,,,,,,,,,,,,,,,,,,,,,,,,,,,,,,,,,,,,,,,,,,,,,,,,,,,,,,,,,,,,,,,,,,,,,,,,,,,
0,42,42,80,1,,611cd816b1ca5d5859eda77f,62bbfb15e1ba36e704ee8728,2022-06-29_09h12.04.278,Colour_Asymmetry_Pilot,2022.1.3,Win32,60.0060006,62bbe60bf3d75ef465d3e404,,,,,,,,,,,,,,,,,,,,,,,,,,,,,,,,,,,,,,,,,,,,,,,,,,,,,,,,,,,,,,,,,,,,,,,,,,,,,,,,,,,,,,,,,,,,,,,,,,,,,,,,,,,,,,,,,,,,,,,,,,,,,,,,,,,,,,,,,,,,,,,,,,,,,,,,,,,,,,
0,43,43,90,1,,611cd816b1ca5d5859eda77f,62bbfb15e1ba36e704ee8728,2022-06-29_09h12.04.278,Colour_Asymmetry_Pilot,2022.1.3,Win32,60.0060006,62bbe60bf3d75ef465d3e404,,,,,,,,,,,,,,,,,,,,,,,,,,,,,,,,,,,,,,,,,,,,,,,,,,,,,,,,,,,,,,,,,,,,,,,,,,,,,,,,,,,,,,,,,,,,,,,,,,,,,,,,,,,,,,,,,,,,,,,,,,,,,,,,,,,,,,,,,,,,,,,,,,,,,,,,,,,,,,
0,44,44,58,1,,611cd816b1ca5d5859eda77f,62bbfb15e1ba36e704ee8728,2022-06-29_09h12.04.278,Colour_Asymmetry_Pilot,2022.1.3,Win32,60.0060006,62bbe60bf3d75ef465d3e404,,,,,,,,,,,,,,,,,,,,,,,,,,,,,,,,,,,,,,,,,,,,,,,,,,,,,,,,,,,,,,,,,,,,,,,,,,,,,,,,,,,,,,,,,,,,,,,,,,,,,,,,,,,,,,,,,,,,,,,,,,,,,,,,,,,,,,,,,,,,,,,,,,,,,,,,,,,,,,
0,45,45,49,1,,611cd816b1ca5d5859eda77f,62bbfb15e1ba36e704ee8728,2022-06-29_09h12.04.278,Colour_Asymmetry_Pilot,2022.1.3,Win32,60.0060006,62bbe60bf3d75ef465d3e404,,,,,,,,,,,,,,,,,,,,,,,,,,,,,,,,,,,,,,,,,,,,,,,,,,,,,,,,,,,,,,,,,,,,,,,,,,,,,,,,,,,,,,,,,,,,,,,,,,,,,,,,,,,,,,,,,,,,,,,,,,,,,,,,,,,,,,,,,,,,,,,,,,,,,,,,,,,,,,
0,46,46,67,1,,611cd816b1ca5d5859eda77f,62bbfb15e1ba36e704ee8728,2022-06-29_09h12.04.278,Colour_Asymmetry_Pilot,2022.1.3,Win32,60.0060006,62bbe60bf3d75ef465d3e404,,,,,,,,,,,,,,,,,,,,,,,,,,,,,,,,,,,,,,,,,,,,,,,,,,,,,,,,,,,,,,,,,,,,,,,,,,,,,,,,,,,,,,,,,,,,,,,,,,,,,,,,,,,,,,,,,,,,,,,,,,,,,,,,,,,,,,,,,,,,,,,,,,,,,,,,,,,,,,
0,47,47,76,1,,611cd816b1ca5d5859eda77f,62bbfb15e1ba36e704ee8728,2022-06-29_09h12.04.278,Colour_Asymmetry_Pilot,2022.1.3,Win32,60.0060006,62bbe60bf3d75ef465d3e404,,,,,,,,,,,,,,,,,,,,,,,,,,,,,,,,,,,,,,,,,,,,,,,,,,,,,,,,,,,,,,,,,,,,,,,,,,,,,,,,,,,,,,,,,,,,,,,,,,,,,,,,,,,,,,,,,,,,,,,,,,,,,,,,,,,,,,,,,,,,,,,,,,,,,,,,,,,,,,
0,48,48,18,1,,611cd816b1ca5d5859eda77f,62bbfb15e1ba36e704ee8728,2022-06-29_09h12.04.278,Colour_Asymmetry_Pilot,2022.1.3,Win32,60.0060006,62bbe60bf3d75ef465d3e404,,,,,,,,,,,,,,,,,,,,,,,,,,,,,,,,,,,,,,,,,,,,,,,,,,,,,,,,,,,,,,,,,,,,,,,,,,,,,,,,,,,,,,,,,,,,,,,,,,,,,,,,,,,,,,,,,,,,,,,,,,,,,,,,,,,,,,,,,,,,,,,,,,,,,,,,,,,,,,
0,49,49,32,1,,611cd816b1ca5d5859eda77f,62bbfb15e1ba36e704ee8728,2022-06-29_09h12.04.278,Colour_Asymmetry_Pilot,2022.1.3,Win32,60.0060006,62bbe60bf3d75ef465d3e404,,,,,,,,,,,,,,,,,,,,,,,,,,,,,,,,,,,,,,,,,,,,,,,,,,,,,,,,,,,,,,,,,,,,,,,,,,,,,,,,,,,,,,,,,,,,,,,,,,,,,,,,,,,,,,,,,,,,,,,,,,,,,,,,,,,,,,,,,,,,,,,,,,,,,,,,,,,,,,
0,50,50,70,1,,611cd816b1ca5d5859eda77f,62bbfb15e1ba36e704ee8728,2022-06-29_09h12.04.278,Colour_Asymmetry_Pilot,2022.1.3,Win32,60.0060006,62bbe60bf3d75ef465d3e404,,,,,,,,,,,,,,,,,,,,,,,,,,,,,,,,,,,,,,,,,,,,,,,,,,,,,,,,,,,,,,,,,,,,,,,,,,,,,,,,,,,,,,,,,,,,,,,,,,,,,,,,,,,,,,,,,,,,,,,,,,,,,,,,,,,,,,,,,,,,,,,,,,,,,,,,,,,,,,
0,51,51,30,1,,611cd816b1ca5d5859eda77f,62bbfb15e1ba36e704ee8728,2022-06-29_09h12.04.278,Colour_Asymmetry_Pilot,2022.1.3,Win32,60.0060006,62bbe60bf3d75ef465d3e404,,,,,,,,,,,,,,,,,,,,,,,,,,,,,,,,,,,,,,,,,,,,,,,,,,,,,,,,,,,,,,,,,,,,,,,,,,,,,,,,,,,,,,,,,,,,,,,,,,,,,,,,,,,,,,,,,,,,,,,,,,,,,,,,,,,,,,,,,,,,,,,,,,,,,,,,,,,,,,
0,52,52,45,1,,611cd816b1ca5d5859eda77f,62bbfb15e1ba36e704ee8728,2022-06-29_09h12.04.278,Colour_Asymmetry_Pilot,2022.1.3,Win32,60.0060006,62bbe60bf3d75ef465d3e404,,,,,,,,,,,,,,,,,,,,,,,,,,,,,,,,,,,,,,,,,,,,,,,,,,,,,,,,,,,,,,,,,,,,,,,,,,,,,,,,,,,,,,,,,,,,,,,,,,,,,,,,,,,,,,,,,,,,,,,,,,,,,,,,,,,,,,,,,,,,,,,,,,,,,,,,,,,,,,
0,53,53,22,1,,611cd816b1ca5d5859eda77f,62bbfb15e1ba36e704ee8728,2022-06-29_09h12.04.278,Colour_Asymmetry_Pilot,2022.1.3,Win32,60.0060006,62bbe60bf3d75ef465d3e404,,,,,,,,,,,,,,,,,,,,,,,,,,,,,,,,,,,,,,,,,,,,,,,,,,,,,,,,,,,,,,,,,,,,,,,,,,,,,,,,,,,,,,,,,,,,,,,,,,,,,,,,,,,,,,,,,,,,,,,,,,,,,,,,,,,,,,,,,,,,,,,,,,,,,,,,,,,,,,
0,54,54,78,1,,611cd816b1ca5d5859eda77f,62bbfb15e1ba36e704ee8728,2022-06-29_09h12.04.278,Colour_Asymmetry_Pilot,2022.1.3,Win32,60.0060006,62bbe60bf3d75ef465d3e404,,,,,,,,,,,,,,,,,,,,,,,,,,,,,,,,,,,,,,,,,,,,,,,,,,,,,,,,,,,,,,,,,,,,,,,,,,,,,,,,,,,,,,,,,,,,,,,,,,,,,,,,,,,,,,,,,,,,,,,,,,,,,,,,,,,,,,,,,,,,,,,,,,,,,,,,,,,,,,
0,55,55,89,1,,611cd816b1ca5d5859eda77f,62bbfb15e1ba36e704ee8728,2022-06-29_09h12.04.278,Colour_Asymmetry_Pilot,2022.1.3,Win32,60.0060006,62bbe60bf3d75ef465d3e404,,,,,,,,,,,,,,,,,,,,,,,,,,,,,,,,,,,,,,,,,,,,,,,,,,,,,,,,,,,,,,,,,,,,,,,,,,,,,,,,,,,,,,,,,,,,,,,,,,,,,,,,,,,,,,,,,,,,,,,,,,,,,,,,,,,,,,,,,,,,,,,,,,,,,,,,,,,,,,
0,56,56,88,1,,611cd816b1ca5d5859eda77f,62bbfb15e1ba36e704ee8728,2022-06-29_09h12.04.278,Colour_Asymmetry_Pilot,2022.1.3,Win32,60.0060006,62bbe60bf3d75ef465d3e404,,,,,,,,,,,,,,,,,,,,,,,,,,,,,,,,,,,,,,,,,,,,,,,,,,,,,,,,,,,,,,,,,,,,,,,,,,,,,,,,,,,,,,,,,,,,,,,,,,,,,,,,,,,,,,,,,,,,,,,,,,,,,,,,,,,,,,,,,,,,,,,,,,,,,,,,,,,,,,
0,57,57,61,1,,611cd816b1ca5d5859eda77f,62bbfb15e1ba36e704ee8728,2022-06-29_09h12.04.278,Colour_Asymmetry_Pilot,2022.1.3,Win32,60.0060006,62bbe60bf3d75ef465d3e404,,,,,,,,,,,,,,,,,,,,,,,,,,,,,,,,,,,,,,,,,,,,,,,,,,,,,,,,,,,,,,,,,,,,,,,,,,,,,,,,,,,,,,,,,,,,,,,,,,,,,,,,,,,,,,,,,,,,,,,,,,,,,,,,,,,,,,,,,,,,,,,,,,,,,,,,,,,,,,
0,58,58,85,1,,611cd816b1ca5d5859eda77f,62bbfb15e1ba36e704ee8728,2022-06-29_09h12.04.278,Colour_Asymmetry_Pilot,2022.1.3,Win32,60.0060006,62bbe60bf3d75ef465d3e404,,,,,,,,,,,,,,,,,,,,,,,,,,,,,,,,,,,,,,,,,,,,,,,,,,,,,,,,,,,,,,,,,,,,,,,,,,,,,,,,,,,,,,,,,,,,,,,,,,,,,,,,,,,,,,,,,,,,,,,,,,,,,,,,,,,,,,,,,,,,,,,,,,,,,,,,,,,,,,
0,59,59,38,1,,611cd816b1ca5d5859eda77f,62bbfb15e1ba36e704ee8728,2022-06-29_09h12.04.278,Colour_Asymmetry_Pilot,2022.1.3,Win32,60.0060006,62bbe60bf3d75ef465d3e404,,,,,,,,,,,,,,,,,,,,,,,,,,,,,,,,,,,,,,,,,,,,,,,,,,,,,,,,,,,,,,,,,,,,,,,,,,,,,,,,,,,,,,,,,,,,,,,,,,,,,,,,,,,,,,,,,,,,,,,,,,,,,,,,,,,,,,,,,,,,,,,,,,,,,,,,,,,,,,
0,60,60,63,1,,611cd816b1ca5d5859eda77f,62bbfb15e1ba36e704ee8728,2022-06-29_09h12.04.278,Colour_Asymmetry_Pilot,2022.1.3,Win32,60.0060006,62bbe60bf3d75ef465d3e404,,,,,,,,,,,,,,,,,,,,,,,,,,,,,,,,,,,,,,,,,,,,,,,,,,,,,,,,,,,,,,,,,,,,,,,,,,,,,,,,,,,,,,,,,,,,,,,,,,,,,,,,,,,,,,,,,,,,,,,,,,,,,,,,,,,,,,,,,,,,,,,,,,,,,,,,,,,,,,
0,61,61,40,1,,611cd816b1ca5d5859eda77f,62bbfb15e1ba36e704ee8728,2022-06-29_09h12.04.278,Colour_Asymmetry_Pilot,2022.1.3,Win32,60.0060006,62bbe60bf3d75ef465d3e404,,,,,,,,,,,,,,,,,,,,,,,,,,,,,,,,,,,,,,,,,,,,,,,,,,,,,,,,,,,,,,,,,,,,,,,,,,,,,,,,,,,,,,,,,,,,,,,,,,,,,,,,,,,,,,,,,,,,,,,,,,,,,,,,,,,,,,,,,,,,,,,,,,,,,,,,,,,,,,
0,62,62,75,1,,611cd816b1ca5d5859eda77f,62bbfb15e1ba36e704ee8728,2022-06-29_09h12.04.278,Colour_Asymmetry_Pilot,2022.1.3,Win32,60.0060006,62bbe60bf3d75ef465d3e404,,,,,,,,,,,,,,,,,,,,,,,,,,,,,,,,,,,,,,,,,,,,,,,,,,,,,,,,,,,,,,,,,,,,,,,,,,,,,,,,,,,,,,,,,,,,,,,,,,,,,,,,,,,,,,,,,,,,,,,,,,,,,,,,,,,,,,,,,,,,,,,,,,,,,,,,,,,,,,
0,63,63,8,1,,611cd816b1ca5d5859eda77f,62bbfb15e1ba36e704ee8728,2022-06-29_09h12.04.278,Colour_Asymmetry_Pilot,2022.1.3,Win32,60.0060006,62bbe60bf3d75ef465d3e404,,,,,,,,,,,,,,,,,,,,,,,,,,,,,,,,,,,,,,,,,,,,,,,,,,,,,,,,,,,,,,,,,,,,,,,,,,,,,,,,,,,,,,,,,,,,,,,,,,,,,,,,,,,,,,,,,,,,,,,,,,,,,,,,,,,,,,,,,,,,,,,,,,,,,,,,,,,,,,
0,64,64,41,1,,611cd816b1ca5d5859eda77f,62bbfb15e1ba36e704ee8728,2022-06-29_09h12.04.278,Colour_Asymmetry_Pilot,2022.1.3,Win32,60.0060006,62bbe60bf3d75ef465d3e404,,,,,,,,,,,,,,,,,,,,,,,,,,,,,,,,,,,,,,,,,,,,,,,,,,,,,,,,,,,,,,,,,,,,,,,,,,,,,,,,,,,,,,,,,,,,,,,,,,,,,,,,,,,,,,,,,,,,,,,,,,,,,,,,,,,,,,,,,,,,,,,,,,,,,,,,,,,,,,
0,65,65,20,1,,611cd816b1ca5d5859eda77f,62bbfb15e1ba36e704ee8728,2022-06-29_09h12.04.278,Colour_Asymmetry_Pilot,2022.1.3,Win32,60.0060006,62bbe60bf3d75ef465d3e404,,,,,,,,,,,,,,,,,,,,,,,,,,,,,,,,,,,,,,,,,,,,,,,,,,,,,,,,,,,,,,,,,,,,,,,,,,,,,,,,,,,,,,,,,,,,,,,,,,,,,,,,,,,,,,,,,,,,,,,,,,,,,,,,,,,,,,,,,,,,,,,,,,,,,,,,,,,,,,
0,66,66,50,1,,611cd816b1ca5d5859eda77f,62bbfb15e1ba36e704ee8728,2022-06-29_09h12.04.278,Colour_Asymmetry_Pilot,2022.1.3,Win32,60.0060006,62bbe60bf3d75ef465d3e404,,,,,,,,,,,,,,,,,,,,,,,,,,,,,,,,,,,,,,,,,,,,,,,,,,,,,,,,,,,,,,,,,,,,,,,,,,,,,,,,,,,,,,,,,,,,,,,,,,,,,,,,,,,,,,,,,,,,,,,,,,,,,,,,,,,,,,,,,,,,,,,,,,,,,,,,,,,,,,
0,67,67,15,1,,611cd816b1ca5d5859eda77f,62bbfb15e1ba36e704ee8728,2022-06-29_09h12.04.278,Colour_Asymmetry_Pilot,2022.1.3,Win32,60.0060006,62bbe60bf3d75ef465d3e404,,,,,,,,,,,,,,,,,,,,,,,,,,,,,,,,,,,,,,,,,,,,,,,,,,,,,,,,,,,,,,,,,,,,,,,,,,,,,,,,,,,,,,,,,,,,,,,,,,,,,,,,,,,,,,,,,,,,,,,,,,,,,,,,,,,,,,,,,,,,,,,,,,,,,,,,,,,,,,
0,68,68,87,1,,611cd816b1ca5d5859eda77f,62bbfb15e1ba36e704ee8728,2022-06-29_09h12.04.278,Colour_Asymmetry_Pilot,2022.1.3,Win32,60.0060006,62bbe60bf3d75ef465d3e404,,,,,,,,,,,,,,,,,,,,,,,,,,,,,,,,,,,,,,,,,,,,,,,,,,,,,,,,,,,,,,,,,,,,,,,,,,,,,,,,,,,,,,,,,,,,,,,,,,,,,,,,,,,,,,,,,,,,,,,,,,,,,,,,,,,,,,,,,,,,,,,,,,,,,,,,,,,,,,
0,69,69,31,1,,611cd816b1ca5d5859eda77f,62bbfb15e1ba36e704ee8728,2022-06-29_09h12.04.278,Colour_Asymmetry_Pilot,2022.1.3,Win32,60.0060006,62bbe60bf3d75ef465d3e404,,,,,,,,,,,,,,,,,,,,,,,,,,,,,,,,,,,,,,,,,,,,,,,,,,,,,,,,,,,,,,,,,,,,,,,,,,,,,,,,,,,,,,,,,,,,,,,,,,,,,,,,,,,,,,,,,,,,,,,,,,,,,,,,,,,,,,,,,,,,,,,,,,,,,,,,,,,,,,
0,70,70,77,1,,611cd816b1ca5d5859eda77f,62bbfb15e1ba36e704ee8728,2022-06-29_09h12.04.278,Colour_Asymmetry_Pilot,2022.1.3,Win32,60.0060006,62bbe60bf3d75ef465d3e404,,,,,,,,,,,,,,,,,,,,,,,,,,,,,,,,,,,,,,,,,,,,,,,,,,,,,,,,,,,,,,,,,,,,,,,,,,,,,,,,,,,,,,,,,,,,,,,,,,,,,,,,,,,,,,,,,,,,,,,,,,,,,,,,,,,,,,,,,,,,,,,,,,,,,,,,,,,,,,
0,71,71,91,1,,611cd816b1ca5d5859eda77f,62bbfb15e1ba36e704ee8728,2022-06-29_09h12.04.278,Colour_Asymmetry_Pilot,2022.1.3,Win32,60.0060006,62bbe60bf3d75ef465d3e404,,,,,,,,,,,,,,,,,,,,,,,,,,,,,,,,,,,,,,,,,,,,,,,,,,,,,,,,,,,,,,,,,,,,,,,,,,,,,,,,,,,,,,,,,,,,,,,,,,,,,,,,,,,,,,,,,,,,,,,,,,,,,,,,,,,,,,,,,,,,,,,,,,,,,,,,,,,,,,
0,72,72,19,1,,611cd816b1ca5d5859eda77f,62bbfb15e1ba36e704ee8728,2022-06-29_09h12.04.278,Colour_Asymmetry_Pilot,2022.1.3,Win32,60.0060006,62bbe60bf3d75ef465d3e404,,,,,,,,,,,,,,,,,,,,,,,,,,,,,,,,,,,,,,,,,,,,,,,,,,,,,,,,,,,,,,,,,,,,,,,,,,,,,,,,,,,,,,,,,,,,,,,,,,,,,,,,,,,,,,,,,,,,,,,,,,,,,,,,,,,,,,,,,,,,,,,,,,,,,,,,,,,,,,
0,73,73,0,1,,611cd816b1ca5d5859eda77f,62bbfb15e1ba36e704ee8728,2022-06-29_09h12.04.278,Colour_Asymmetry_Pilot,2022.1.3,Win32,60.0060006,62bbe60bf3d75ef465d3e404,,,,,,,,,,,,,,,,,,,,,,,,,,,,,,,,,,,,,,,,,,,,,,,,,,,,,,,,,,,,,,,,,,,,,,,,,,,,,,,,,,,,,,,,,,,,,,,,,,,,,,,,,,,,,,,,,,,,,,,,,,,,,,,,,,,,,,,,,,,,,,,,,,,,,,,,,,,,,,
0,74,74,17,1,,611cd816b1ca5d5859eda77f,62bbfb15e1ba36e704ee8728,2022-06-29_09h12.04.278,Colour_Asymmetry_Pilot,2022.1.3,Win32,60.0060006,62bbe60bf3d75ef465d3e404,,,,,,,,,,,,,,,,,,,,,,,,,,,,,,,,,,,,,,,,,,,,,,,,,,,,,,,,,,,,,,,,,,,,,,,,,,,,,,,,,,,,,,,,,,,,,,,,,,,,,,,,,,,,,,,,,,,,,,,,,,,,,,,,,,,,,,,,,,,,,,,,,,,,,,,,,,,,,,
0,75,75,25,1,,611cd816b1ca5d5859eda77f,62bbfb15e1ba36e704ee8728,2022-06-29_09h12.04.278,Colour_Asymmetry_Pilot,2022.1.3,Win32,60.0060006,62bbe60bf3d75ef465d3e404,,,,,,,,,,,,,,,,,,,,,,,,,,,,,,,,,,,,,,,,,,,,,,,,,,,,,,,,,,,,,,,,,,,,,,,,,,,,,,,,,,,,,,,,,,,,,,,,,,,,,,,,,,,,,,,,,,,,,,,,,,,,,,,,,,,,,,,,,,,,,,,,,,,,,,,,,,,,,,
0,76,76,72,1,,611cd816b1ca5d5859eda77f,62bbfb15e1ba36e704ee8728,2022-06-29_09h12.04.278,Colour_Asymmetry_Pilot,2022.1.3,Win32,60.0060006,62bbe60bf3d75ef465d3e404,,,,,,,,,,,,,,,,,,,,,,,,,,,,,,,,,,,,,,,,,,,,,,,,,,,,,,,,,,,,,,,,,,,,,,,,,,,,,,,,,,,,,,,,,,,,,,,,,,,,,,,,,,,,,,,,,,,,,,,,,,,,,,,,,,,,,,,,,,,,,,,,,,,,,,,,,,,,,,
0,77,77,9,1,,611cd816b1ca5d5859eda77f,62bbfb15e1ba36e704ee8728,2022-06-29_09h12.04.278,Colour_Asymmetry_Pilot,2022.1.3,Win32,60.0060006,62bbe60bf3d75ef465d3e404,,,,,,,,,,,,,,,,,,,,,,,,,,,,,,,,,,,,,,,,,,,,,,,,,,,,,,,,,,,,,,,,,,,,,,,,,,,,,,,,,,,,,,,,,,,,,,,,,,,,,,,,,,,,,,,,,,,,,,,,,,,,,,,,,,,,,,,,,,,,,,,,,,,,,,,,,,,,,,
0,78,78,47,1,,611cd816b1ca5d5859eda77f,62bbfb15e1ba36e704ee8728,2022-06-29_09h12.04.278,Colour_Asymmetry_Pilot,2022.1.3,Win32,60.0060006,62bbe60bf3d75ef465d3e404,,,,,,,,,,,,,,,,,,,,,,,,,,,,,,,,,,,,,,,,,,,,,,,,,,,,,,,,,,,,,,,,,,,,,,,,,,,,,,,,,,,,,,,,,,,,,,,,,,,,,,,,,,,,,,,,,,,,,,,,,,,,,,,,,,,,,,,,,,,,,,,,,,,,,,,,,,,,,,
0,79,79,26,1,,611cd816b1ca5d5859eda77f,62bbfb15e1ba36e704ee8728,2022-06-29_09h12.04.278,Colour_Asymmetry_Pilot,2022.1.3,Win32,60.0060006,62bbe60bf3d75ef465d3e404,,,,,,,,,,,,,,,,,,,,,,,,,,,,,,,,,,,,,,,,,,,,,,,,,,,,,,,,,,,,,,,,,,,,,,,,,,,,,,,,,,,,,,,,,,,,,,,,,,,,,,,,,,,,,,,,,,,,,,,,,,,,,,,,,,,,,,,,,,,,,,,,,,,,,,,,,,,,,,
0,80,80,53,1,,611cd816b1ca5d5859eda77f,62bbfb15e1ba36e704ee8728,2022-06-29_09h12.04.278,Colour_Asymmetry_Pilot,2022.1.3,Win32,60.0060006,62bbe60bf3d75ef465d3e404,,,,,,,,,,,,,,,,,,,,,,,,,,,,,,,,,,,,,,,,,,,,,,,,,,,,,,,,,,,,,,,,,,,,,,,,,,,,,,,,,,,,,,,,,,,,,,,,,,,,,,,,,,,,,,,,,,,,,,,,,,,,,,,,,,,,,,,,,,,,,,,,,,,,,,,,,,,,,,
0,81,81,82,1,,611cd816b1ca5d5859eda77f,62bbfb15e1ba36e704ee8728,2022-06-29_09h12.04.278,Colour_Asymmetry_Pilot,2022.1.3,Win32,60.0060006,62bbe60bf3d75ef465d3e404,,,,,,,,,,,,,,,,,,,,,,,,,,,,,,,,,,,,,,,,,,,,,,,,,,,,,,,,,,,,,,,,,,,,,,,,,,,,,,,,,,,,,,,,,,,,,,,,,,,,,,,,,,,,,,,,,,,,,,,,,,,,,,,,,,,,,,,,,,,,,,,,,,,,,,,,,,,,,,
0,82,82,62,1,,611cd816b1ca5d5859eda77f,62bbfb15e1ba36e704ee8728,2022-06-29_09h12.04.278,Colour_Asymmetry_Pilot,2022.1.3,Win32,60.0060006,62bbe60bf3d75ef465d3e404,,,,,,,,,,,,,,,,,,,,,,,,,,,,,,,,,,,,,,,,,,,,,,,,,,,,,,,,,,,,,,,,,,,,,,,,,,,,,,,,,,,,,,,,,,,,,,,,,,,,,,,,,,,,,,,,,,,,,,,,,,,,,,,,,,,,,,,,,,,,,,,,,,,,,,,,,,,,,,
0,83,83,74,1,,611cd816b1ca5d5859eda77f,62bbfb15e1ba36e704ee8728,2022-06-29_09h12.04.278,Colour_Asymmetry_Pilot,2022.1.3,Win32,60.0060006,62bbe60bf3d75ef465d3e404,,,,,,,,,,,,,,,,,,,,,,,,,,,,,,,,,,,,,,,,,,,,,,,,,,,,,,,,,,,,,,,,,,,,,,,,,,,,,,,,,,,,,,,,,,,,,,,,,,,,,,,,,,,,,,,,,,,,,,,,,,,,,,,,,,,,,,,,,,,,,,,,,,,,,,,,,,,,,,
0,84,84,34,1,,611cd816b1ca5d5859eda77f,62bbfb15e1ba36e704ee8728,2022-06-29_09h12.04.278,Colour_Asymmetry_Pilot,2022.1.3,Win32,60.0060006,62bbe60bf3d75ef465d3e404,,,,,,,,,,,,,,,,,,,,,,,,,,,,,,,,,,,,,,,,,,,,,,,,,,,,,,,,,,,,,,,,,,,,,,,,,,,,,,,,,,,,,,,,,,,,,,,,,,,,,,,,,,,,,,,,,,,,,,,,,,,,,,,,,,,,,,,,,,,,,,,,,,,,,,,,,,,,,,
0,85,85,83,1,,611cd816b1ca5d5859eda77f,62bbfb15e1ba36e704ee8728,2022-06-29_09h12.04.278,Colour_Asymmetry_Pilot,2022.1.3,Win32,60.0060006,62bbe60bf3d75ef465d3e404,,,,,,,,,,,,,,,,,,,,,,,,,,,,,,,,,,,,,,,,,,,,,,,,,,,,,,,,,,,,,,,,,,,,,,,,,,,,,,,,,,,,,,,,,,,,,,,,,,,,,,,,,,,,,,,,,,,,,,,,,,,,,,,,,,,,,,,,,,,,,,,,,,,,,,,,,,,,,,
0,86,86,66,1,,611cd816b1ca5d5859eda77f,62bbfb15e1ba36e704ee8728,2022-06-29_09h12.04.278,Colour_Asymmetry_Pilot,2022.1.3,Win32,60.0060006,62bbe60bf3d75ef465d3e404,,,,,,,,,,,,,,,,,,,,,,,,,,,,,,,,,,,,,,,,,,,,,,,,,,,,,,,,,,,,,,,,,,,,,,,,,,,,,,,,,,,,,,,,,,,,,,,,,,,,,,,,,,,,,,,,,,,,,,,,,,,,,,,,,,,,,,,,,,,,,,,,,,,,,,,,,,,,,,
0,87,87,48,1,,611cd816b1ca5d5859eda77f,62bbfb15e1ba36e704ee8728,2022-06-29_09h12.04.278,Colour_Asymmetry_Pilot,2022.1.3,Win32,60.0060006,62bbe60bf3d75ef465d3e404,,,,,,,,,,,,,,,,,,,,,,,,,,,,,,,,,,,,,,,,,,,,,,,,,,,,,,,,,,,,,,,,,,,,,,,,,,,,,,,,,,,,,,,,,,,,,,,,,,,,,,,,,,,,,,,,,,,,,,,,,,,,,,,,,,,,,,,,,,,,,,,,,,,,,,,,,,,,,,
0,88,88,16,1,,611cd816b1ca5d5859eda77f,62bbfb15e1ba36e704ee8728,2022-06-29_09h12.04.278,Colour_Asymmetry_Pilot,2022.1.3,Win32,60.0060006,62bbe60bf3d75ef465d3e404,,,,,,,,,,,,,,,,,,,,,,,,,,,,,,,,,,,,,,,,,,,,,,,,,,,,,,,,,,,,,,,,,,,,,,,,,,,,,,,,,,,,,,,,,,,,,,,,,,,,,,,,,,,,,,,,,,,,,,,,,,,,,,,,,,,,,,,,,,,,,,,,,,,,,,,,,,,,,,
0,89,89,4,1,,611cd816b1ca5d5859eda77f,62bbfb15e1ba36e704ee8728,2022-06-29_09h12.04.278,Colour_Asymmetry_Pilot,2022.1.3,Win32,60.0060006,62bbe60bf3d75ef465d3e404,,,,,,,,,,,,,,,,,,,,,,,,,,,,,,,,,,,,,,,,,,,,,,,,,,,,,,,,,,,,,,,,,,,,,,,,,,,,,,,,,,,,,,,,,,,,,,,,,,,,,,,,,,,,,,,,,,,,,,,,,,,,,,,,,,,,,,,,,,,,,,,,,,,,,,,,,,,,,,
0,90,90,3,1,,611cd816b1ca5d5859eda77f,62bbfb15e1ba36e704ee8728,2022-06-29_09h12.04.278,Colour_Asymmetry_Pilot,2022.1.3,Win32,60.0060006,62bbe60bf3d75ef465d3e404,,,,,,,,,,,,,,,,,,,,,,,,,,,,,,,,,,,,,,,,,,,,,,,,,,,,,,,,,,,,,,,,,,,,,,,,,,,,,,,,,,,,,,,,,,,,,,,,,,,,,,,,,,,,,,,,,,,,,,,,,,,,,,,,,,,,,,,,,,,,,,,,,,,,,,,,,,,,,,
0,91,91,24,1,,611cd816b1ca5d5859eda77f,62bbfb15e1ba36e704ee8728,2022-06-29_09h12.04.278,Colour_Asymmetry_Pilot,2022.1.3,Win32,60.0060006,62bbe60bf3d75ef465d3e404,,,,,,,,,,,,,,,,,,,,,,,,,,,,,,,,,,,,,,,,,,,,,,,,,,,,,,,,,,,,,,,,,,,,,,,,,,,,,,,,,,,,,,,,,,,,,,,,,,,,,,,,,,,,,,,,,,,,,,,,,,,,,,,,,,,,,,,,,,,,,,,,,,,,,,,,,,,,,,
0,92,92,57,1,,611cd816b1ca5d5859eda77f,62bbfb15e1ba36e704ee8728,2022-06-29_09h12.04.278,Colour_Asymmetry_Pilot,2022.1.3,Win32,60.0060006,62bbe60bf3d75ef465d3e404,,,,,,,,,,,,,,,,,,,,,,,,,,,,,,,,,,,,,,,,,,,,,,,,,,,,,,,,,,,,,,,,,,,,,,,,,,,,,,,,,,,,,,,,,,,,,,,,,,,,,,,,,,,,,,,,,,,,,,,,,,,,,,,,,,,,,,,,,,,,,,,,,,,,,,,,,,,,,,
,,,,,,611cd816b1ca5d5859eda77f,62bbfb15e1ba36e704ee8728,2022-06-29_09h12.04.278,Colour_Asymmetry_Pilot,2022.1.3,Win32,60.0060006,62bbe60bf3d75ef465d3e404,0,0,0,68,1,threeone,,,,,,,,,,,,,,,,,,,,,,,,,,,,,,,,,,,,,,,,,,,,,,,,,,,,,,,,,,,,,,,,,,,,,,,,,,,,,,,,,,,,,,,,,,,,,,,,,,,,,,,,,,,,,,,,,,,,,,,,,,,,,,,,,,,,,,,,,,,,,,,,,,,,,,,,
,,,,,,611cd816b1ca5d5859eda77f,62bbfb15e1ba36e704ee8728,2022-06-29_09h12.04.278,Colour_Asymmetry_Pilot,2022.1.3,Win32,60.0060006,62bbe60bf3d75ef465d3e404,0,1,1,48,1,onetwo,,,,,,,,,,,,,,,,,,,,,,,,,,,,,,,,,,,,,,,,,,,,,,,,,,,,,,,,,,,,,,,,,,,,,,,,,,,,,,,,,,,,,,,,,,,,,,,,,,,,,,,,,,,,,,,,,,,,,,,,,,,,,,,,,,,,,,,,,,,,,,,,,,,,,,,,
,,,,,,611cd816b1ca5d5859eda77f,62bbfb15e1ba36e704ee8728,2022-06-29_09h12.04.278,Colour_Asymmetry_Pilot,2022.1.3,Win32,60.0060006,62bbe60bf3d75ef465d3e404,0,2,2,131,1,twofour,,,,,,,,,,,,,,,,,,,,,,,,,,,,,,,,,,,,,,,,,,,,,,,,,,,,,,,,,,,,,,,,,,,,,,,,,,,,,,,,,,,,,,,,,,,,,,,,,,,,,,,,,,,,,,,,,,,,,,,,,,,,,,,,,,,,,,,,,,,,,,,,,,,,,,,,
,,,,,,611cd816b1ca5d5859eda77f,62bbfb15e1ba36e704ee8728,2022-06-29_09h12.04.278,Colour_Asymmetry_Pilot,2022.1.3,Win32,60.0060006,62bbe60bf3d75ef465d3e404,0,3,3,156,1,threeone,,,,,,,,,,,,,,,,,,,,,,,,,,,,,,,,,,,,,,,,,,,,,,,,,,,,,,,,,,,,,,,,,,,,,,,,,,,,,,,,,,,,,,,,,,,,,,,,,,,,,,,,,,,,,,,,,,,,,,,,,,,,,,,,,,,,,,,,,,,,,,,,,,,,,,,,
,,,,,,611cd816b1ca5d5859eda77f,62bbfb15e1ba36e704ee8728,2022-06-29_09h12.04.278,Colour_Asymmetry_Pilot,2022.1.3,Win32,60.0060006,62bbe60bf3d75ef465d3e404,0,4,4,61,1,threefour,,,,,,,,,,,,,,,,,,,,,,,,,,,,,,,,,,,,,,,,,,,,,,,,,,,,,,,,,,,,,,,,,,,,,,,,,,,,,,,,,,,,,,,,,,,,,,,,,,,,,,,,,,,,,,,,,,,,,,,,,,,,,,,,,,,,,,,,,,,,,,,,,,,,,,,,
,,,,,,611cd816b1ca5d5859eda77f,62bbfb15e1ba36e704ee8728,2022-06-29_09h12.04.278,Colour_Asymmetry_Pilot,2022.1.3,Win32,60.0060006,62bbe60bf3d75ef465d3e404,0,5,5,155,1,twofour,,,,,,,,,,,,,,,,,,,,,,,,,,,,,,,,,,,,,,,,,,,,,,,,,,,,,,,,,,,,,,,,,,,,,,,,,,,,,,,,,,,,,,,,,,,,,,,,,,,,,,,,,,,,,,,,,,,,,,,,,,,,,,,,,,,,,,,,,,,,,,,,,,,,,,,,
,,,,,,611cd816b1ca5d5859eda77f,62bbfb15e1ba36e704ee8728,2022-06-29_09h12.04.278,Colour_Asymmetry_Pilot,2022.1.3,Win32,60.0060006,62bbe60bf3d75ef465d3e404,0,6,6,46,1,fourtwo,,,,,,,,,,,,,,,,,,,,,,,,,,,,,,,,,,,,,,,,,,,,,,,,,,,,,,,,,,,,,,,,,,,,,,,,,,,,,,,,,,,,,,,,,,,,,,,,,,,,,,,,,,,,,,,,,,,,,,,,,,,,,,,,,,,,,,,,,,,,,,,,,,,,,,,,
,,,,,,611cd816b1ca5d5859eda77f,62bbfb15e1ba36e704ee8728,2022-06-29_09h12.04.278,Colour_Asymmetry_Pilot,2022.1.3,Win32,60.0060006,62bbe60bf3d75ef465d3e404,0,7,7,2,1,twoone,,,,,,,,,,,,,,,,,,,,,,,,,,,,,,,,,,,,,,,,,,,,,,,,,,,,,,,,,,,,,,,,,,,,,,,,,,,,,,,,,,,,,,,,,,,,,,,,,,,,,,,,,,,,,,,,,,,,,,,,,,,,,,,,,,,,,,,,,,,,,,,,,,,,,,,,
,,,,,,611cd816b1ca5d5859eda77f,62bbfb15e1ba36e704ee8728,2022-06-29_09h12.04.278,Colour_Asymmetry_Pilot,2022.1.3,Win32,60.0060006,62bbe60bf3d75ef465d3e404,0,8,8,106,1,twoone,,,,,,,,,,,,,,,,,,,,,,,,,,,,,,,,,,,,,,,,,,,,,,,,,,,,,,,,,,,,,,,,,,,,,,,,,,,,,,,,,,,,,,,,,,,,,,,,,,,,,,,,,,,,,,,,,,,,,,,,,,,,,,,,,,,,,,,,,,,,,,,,,,,,,,,,
,,,,,,611cd816b1ca5d5859eda77f,62bbfb15e1ba36e704ee8728,2022-06-29_09h12.04.278,Colour_Asymmetry_Pilot,2022.1.3,Win32,60.0060006,62bbe60bf3d75ef465d3e404,0,9,9,125,1,threefour,,,,,,,,,,,,,,,,,,,,,,,,,,,,,,,,,,,,,,,,,,,,,,,,,,,,,,,,,,,,,,,,,,,,,,,,,,,,,,,,,,,,,,,,,,,,,,,,,,,,,,,,,,,,,,,,,,,,,,,,,,,,,,,,,,,,,,,,,,,,,,,,,,,,,,,,
,,,,,,611cd816b1ca5d5859eda77f,62bbfb15e1ba36e704ee8728,2022-06-29_09h12.04.278,Colour_Asymmetry_Pilot,2022.1.3,Win32,60.0060006,62bbe60bf3d75ef465d3e404,0,10,10,124,1,threeone,,,,,,,,,,,,,,,,,,,,,,,,,,,,,,,,,,,,,,,,,,,,,,,,,,,,,,,,,,,,,,,,,,,,,,,,,,,,,,,,,,,,,,,,,,,,,,,,,,,,,,,,,,,,,,,,,,,,,,,,,,,,,,,,,,,,,,,,,,,,,,,,,,,,,,,,
,,,,,,611cd816b1ca5d5859eda77f,62bbfb15e1ba36e704ee8728,2022-06-29_09h12.04.278,Colour_Asymmetry_Pilot,2022.1.3,Win32,60.0060006,62bbe60bf3d75ef465d3e404,0,11,11,38,1,fourtwo,,,,,,,,,,,,,,,,,,,,,,,,,,,,,,,,,,,,,,,,,,,,,,,,,,,,,,,,,,,,,,,,,,,,,,,,,,,,,,,,,,,,,,,,,,,,,,,,,,,,,,,,,,,,,,,,,,,,,,,,,,,,,,,,,,,,,,,,,,,,,,,,,,,,,,,,
,,,,,,611cd816b1ca5d5859eda77f,62bbfb15e1ba36e704ee8728,2022-06-29_09h12.04.278,Colour_Asymmetry_Pilot,2022.1.3,Win32,60.0060006,62bbe60bf3d75ef465d3e404,0,12,12,4,1,threeone,,,,,,,,,,,,,,,,,,,,,,,,,,,,,,,,,,,,,,,,,,,,,,,,,,,,,,,,,,,,,,,,,,,,,,,,,,,,,,,,,,,,,,,,,,,,,,,,,,,,,,,,,,,,,,,,,,,,,,,,,,,,,,,,,,,,,,,,,,,,,,,,,,,,,,,,
,,,,,,611cd816b1ca5d5859eda77f,62bbfb15e1ba36e704ee8728,2022-06-29_09h12.04.278,Colour_Asymmetry_Pilot,2022.1.3,Win32,60.0060006,62bbe60bf3d75ef465d3e404,0,13,13,60,1,threeone,,,,,,,,,,,,,,,,,,,,,,,,,,,,,,,,,,,,,,,,,,,,,,,,,,,,,,,,,,,,,,,,,,,,,,,,,,,,,,,,,,,,,,,,,,,,,,,,,,,,,,,,,,,,,,,,,,,,,,,,,,,,,,,,,,,,,,,,,,,,,,,,,,,,,,,,
,,,,,,611cd816b1ca5d5859eda77f,62bbfb15e1ba36e704ee8728,2022-06-29_09h12.04.278,Colour_Asymmetry_Pilot,2022.1.3,Win32,60.0060006,62bbe60bf3d75ef465d3e404,0,14,14,143,1,fourthree,,,,,,,,,,,,,,,,,,,,,,,,,,,,,,,,,,,,,,,,,,,,,,,,,,,,,,,,,,,,,,,,,,,,,,,,,,,,,,,,,,,,,,,,,,,,,,,,,,,,,,,,,,,,,,,,,,,,,,,,,,,,,,,,,,,,,,,,,,,,,,,,,,,,,,,,
,,,,,,611cd816b1ca5d5859eda77f,62bbfb15e1ba36e704ee8728,2022-06-29_09h12.04.278,Colour_Asymmetry_Pilot,2022.1.3,Win32,60.0060006,62bbe60bf3d75ef465d3e404,0,15,15,5,1,threefour,,,,,,,,,,,,,,,,,,,,,,,,,,,,,,,,,,,,,,,,,,,,,,,,,,,,,,,,,,,,,,,,,,,,,,,,,,,,,,,,,,,,,,,,,,,,,,,,,,,,,,,,,,,,,,,,,,,,,,,,,,,,,,,,,,,,,,,,,,,,,,,,,,,,,,,,
,,,,,,611cd816b1ca5d5859eda77f,62bbfb15e1ba36e704ee8728,2022-06-29_09h12.04.278,Colour_Asymmetry_Pilot,2022.1.3,Win32,60.0060006,62bbe60bf3d75ef465d3e404,0,16,16,0,1,onetwo,,,,,,,,,,,,,,,,,,,,,,,,,,,,,,,,,,,,,,,,,,,,,,,,,,,,,,,,,,,,,,,,,,,,,,,,,,,,,,,,,,,,,,,,,,,,,,,,,,,,,,,,,,,,,,,,,,,,,,,,,,,,,,,,,,,,,,,,,,,,,,,,,,,,,,,,
,,,,,,611cd816b1ca5d5859eda77f,62bbfb15e1ba36e704ee8728,2022-06-29_09h12.04.278,Colour_Asymmetry_Pilot,2022.1.3,Win32,60.0060006,62bbe60bf3d75ef465d3e404,0,17,17,43,1,twofour,,,,,,,,,,,,,,,,,,,,,,,,,,,,,,,,,,,,,,,,,,,,,,,,,,,,,,,,,,,,,,,,,,,,,,,,,,,,,,,,,,,,,,,,,,,,,,,,,,,,,,,,,,,,,,,,,,,,,,,,,,,,,,,,,,,,,,,,,,,,,,,,,,,,,,,,
,,,,,,611cd816b1ca5d5859eda77f,62bbfb15e1ba36e704ee8728,2022-06-29_09h12.04.278,Colour_Asymmetry_Pilot,2022.1.3,Win32,60.0060006,62bbe60bf3d75ef465d3e404,0,18,18,22,1,fourtwo,,,,,,,,,,,,,,,,,,,,,,,,,,,,,,,,,,,,,,,,,,,,,,,,,,,,,,,,,,,,,,,,,,,,,,,,,,,,,,,,,,,,,,,,,,,,,,,,,,,,,,,,,,,,,,,,,,,,,,,,,,,,,,,,,,,,,,,,,,,,,,,,,,,,,,,,
,,,,,,611cd816b1ca5d5859eda77f,62bbfb15e1ba36e704ee8728,2022-06-29_09h12.04.278,Colour_Asymmetry_Pilot,2022.1.3,Win32,60.0060006,62bbe60bf3d75ef465d3e404,0,19,19,56,1,onetwo,,,,,,,,,,,,,,,,,,,,,,,,,,,,,,,,,,,,,,,,,,,,,,,,,,,,,,,,,,,,,,,,,,,,,,,,,,,,,,,,,,,,,,,,,,,,,,,,,,,,,,,,,,,,,,,,,,,,,,,,,,,,,,,,,,,,,,,,,,,,,,,,,,,,,,,,
,,,,,,611cd816b1ca5d5859eda77f,62bbfb15e1ba36e704ee8728,2022-06-29_09h12.04.278,Colour_Asymmetry_Pilot,2022.1.3,Win32,60.0060006,62bbe60bf3d75ef465d3e404,0,20,20,83,1,twofour,,,,,,,,,,,,,,,,,,,,,,,,,,,,,,,,,,,,,,,,,,,,,,,,,,,,,,,,,,,,,,,,,,,,,,,,,,,,,,,,,,,,,,,,,,,,,,,,,,,,,,,,,,,,,,,,,,,,,,,,,,,,,,,,,,,,,,,,,,,,,,,,,,,,,,,,
,,,,,,611cd816b1ca5d5859eda77f,62bbfb15e1ba36e704ee8728,2022-06-29_09h12.04.278,Colour_Asymmetry_Pilot,2022.1.3,Win32,60.0060006,62bbe60bf3d75ef465d3e404,0,21,21,84,1,threeone,,,,,,,,,,,,,,,,,,,,,,,,,,,,,,,,,,,,,,,,,,,,,,,,,,,,,,,,,,,,,,,,,,,,,,,,,,,,,,,,,,,,,,,,,,,,,,,,,,,,,,,,,,,,,,,,,,,,,,,,,,,,,,,,,,,,,,,,,,,,,,,,,,,,,,,,
,,,,,,611cd816b1ca5d5859eda77f,62bbfb15e1ba36e704ee8728,2022-06-29_09h12.04.278,Colour_Asymmetry_Pilot,2022.1.3,Win32,60.0060006,62bbe60bf3d75ef465d3e404,0,22,22,59,1,twofour,,,,,,,,,,,,,,,,,,,,,,,,,,,,,,,,,,,,,,,,,,,,,,,,,,,,,,,,,,,,,,,,,,,,,,,,,,,,,,,,,,,,,,,,,,,,,,,,,,,,,,,,,,,,,,,,,,,,,,,,,,,,,,,,,,,,,,,,,,,,,,,,,,,,,,,,
,,,,,,611cd816b1ca5d5859eda77f,62bbfb15e1ba36e704ee8728,2022-06-29_09h12.04.278,Colour_Asymmetry_Pilot,2022.1.3,Win32,60.0060006,62bbe60bf3d75ef465d3e404,0,23,23,98,1,twoone,,,,,,,,,,,,,,,,,,,,,,,,,,,,,,,,,,,,,,,,,,,,,,,,,,,,,,,,,,,,,,,,,,,,,,,,,,,,,,,,,,,,,,,,,,,,,,,,,,,,,,,,,,,,,,,,,,,,,,,,,,,,,,,,,,,,,,,,,,,,,,,,,,,,,,,,
,,,,,,611cd816b1ca5d5859eda77f,62bbfb15e1ba36e704ee8728,2022-06-29_09h12.04.278,Colour_Asymmetry_Pilot,2022.1.3,Win32,60.0060006,62bbe60bf3d75ef465d3e404,0,24,24,151,1,fourthree,,,,,,,,,,,,,,,,,,,,,,,,,,,,,,,,,,,,,,,,,,,,,,,,,,,,,,,,,,,,,,,,,,,,,,,,,,,,,,,,,,,,,,,,,,,,,,,,,,,,,,,,,,,,,,,,,,,,,,,,,,,,,,,,,,,,,,,,,,,,,,,,,,,,,,,,
,,,,,,611cd816b1ca5d5859eda77f,62bbfb15e1ba36e704ee8728,2022-06-29_09h12.04.278,Colour_Asymmetry_Pilot,2022.1.3,Win32,60.0060006,62bbe60bf3d75ef465d3e404,0,25,25,16,1,onetwo,,,,,,,,,,,,,,,,,,,,,,,,,,,,,,,,,,,,,,,,,,,,,,,,,,,,,,,,,,,,,,,,,,,,,,,,,,,,,,,,,,,,,,,,,,,,,,,,,,,,,,,,,,,,,,,,,,,,,,,,,,,,,,,,,,,,,,,,,,,,,,,,,,,,,,,,
,,,,,,611cd816b1ca5d5859eda77f,62bbfb15e1ba36e704ee8728,2022-06-29_09h12.04.278,Colour_Asymmetry_Pilot,2022.1.3,Win32,60.0060006,62bbe60bf3d75ef465d3e404,0,26,26,6,1,fourtwo,,,,,,,,,,,,,,,,,,,,,,,,,,,,,,,,,,,,,,,,,,,,,,,,,,,,,,,,,,,,,,,,,,,,,,,,,,,,,,,,,,,,,,,,,,,,,,,,,,,,,,,,,,,,,,,,,,,,,,,,,,,,,,,,,,,,,,,,,,,,,,,,,,,,,,,,
,,,,,,611cd816b1ca5d5859eda77f,62bbfb15e1ba36e704ee8728,2022-06-29_09h12.04.278,Colour_Asymmetry_Pilot,2022.1.3,Win32,60.0060006,62bbe60bf3d75ef465d3e404,0,27,27,101,1,threefour,,,,,,,,,,,,,,,,,,,,,,,,,,,,,,,,,,,,,,,,,,,,,,,,,,,,,,,,,,,,,,,,,,,,,,,,,,,,,,,,,,,,,,,,,,,,,,,,,,,,,,,,,,,,,,,,,,,,,,,,,,,,,,,,,,,,,,,,,,,,,,,,,,,,,,,,
,,,,,,611cd816b1ca5d5859eda77f,62bbfb15e1ba36e704ee8728,2022-06-29_09h12.04.278,Colour_Asymmetry_Pilot,2022.1.3,Win32,60.0060006,62bbe60bf3d75ef465d3e404,0,28,28,126,1,fourtwo,,,,,,,,,,,,,,,,,,,,,,,,,,,,,,,,,,,,,,,,,,,,,,,,,,,,,,,,,,,,,,,,,,,,,,,,,,,,,,,,,,,,,,,,,,,,,,,,,,,,,,,,,,,,,,,,,,,,,,,,,,,,,,,,,,,,,,,,,,,,,,,,,,,,,,,,
,,,,,,611cd816b1ca5d5859eda77f,62bbfb15e1ba36e704ee8728,2022-06-29_09h12.04.278,Colour_Asymmetry_Pilot,2022.1.3,Win32,60.0060006,62bbe60bf3d75ef465d3e404,0,29,29,85,1,threefour,,,,,,,,,,,,,,,,,,,,,,,,,,,,,,,,,,,,,,,,,,,,,,,,,,,,,,,,,,,,,,,,,,,,,,,,,,,,,,,,,,,,,,,,,,,,,,,,,,,,,,,,,,,,,,,,,,,,,,,,,,,,,,,,,,,,,,,,,,,,,,,,,,,,,,,,
,,,,,,611cd816b1ca5d5859eda77f,62bbfb15e1ba36e704ee8728,2022-06-29_09h12.04.278,Colour_Asymmetry_Pilot,2022.1.3,Win32,60.0060006,62bbe60bf3d75ef465d3e404,0,30,30,72,1,onetwo,,,,,,,,,,,,,,,,,,,,,,,,,,,,,,,,,,,,,,,,,,,,,,,,,,,,,,,,,,,,,,,,,,,,,,,,,,,,,,,,,,,,,,,,,,,,,,,,,,,,,,,,,,,,,,,,,,,,,,,,,,,,,,,,,,,,,,,,,,,,,,,,,,,,,,,,
,,,,,,611cd816b1ca5d5859eda77f,62bbfb15e1ba36e704ee8728,2022-06-29_09h12.04.278,Colour_Asymmetry_Pilot,2022.1.3,Win32,60.0060006,62bbe60bf3d75ef465d3e404,0,31,31,32,1,onetwo,,,,,,,,,,,,,,,,,,,,,,,,,,,,,,,,,,,,,,,,,,,,,,,,,,,,,,,,,,,,,,,,,,,,,,,,,,,,,,,,,,,,,,,,,,,,,,,,,,,,,,,,,,,,,,,,,,,,,,,,,,,,,,,,,,,,,,,,,,,,,,,,,,,,,,,,
,,,,,,611cd816b1ca5d5859eda77f,62bbfb15e1ba36e704ee8728,2022-06-29_09h12.04.278,Colour_Asymmetry_Pilot,2022.1.3,Win32,60.0060006,62bbe60bf3d75ef465d3e404,0,32,32,37,1,threefour,,,,,,,,,,,,,,,,,,,,,,,,,,,,,,,,,,,,,,,,,,,,,,,,,,,,,,,,,,,,,,,,,,,,,,,,,,,,,,,,,,,,,,,,,,,,,,,,,,,,,,,,,,,,,,,,,,,,,,,,,,,,,,,,,,,,,,,,,,,,,,,,,,,,,,,,
,,,,,,611cd816b1ca5d5859eda77f,62bbfb15e1ba36e704ee8728,2022-06-29_09h12.04.278,Colour_Asymmetry_Pilot,2022.1.3,Win32,60.0060006,62bbe60bf3d75ef465d3e404,0,33,33,90,1,twoone,,,,,,,,,,,,,,,,,,,,,,,,,,,,,,,,,,,,,,,,,,,,,,,,,,,,,,,,,,,,,,,,,,,,,,,,,,,,,,,,,,,,,,,,,,,,,,,,,,,,,,,,,,,,,,,,,,,,,,,,,,,,,,,,,,,,,,,,,,,,,,,,,,,,,,,,
,,,,,,611cd816b1ca5d5859eda77f,62bbfb15e1ba36e704ee8728,2022-06-29_09h12.04.278,Colour_Asymmetry_Pilot,2022.1.3,Win32,60.0060006,62bbe60bf3d75ef465d3e404,0,34,34,109,1,threefour,,,,,,,,,,,,,,,,,,,,,,,,,,,,,,,,,,,,,,,,,,,,,,,,,,,,,,,,,,,,,,,,,,,,,,,,,,,,,,,,,,,,,,,,,,,,,,,,,,,,,,,,,,,,,,,,,,,,,,,,,,,,,,,,,,,,,,,,,,,,,,,,,,,,,,,,
,,,,,,611cd816b1ca5d5859eda77f,62bbfb15e1ba36e704ee8728,2022-06-29_09h12.04.278,Colour_Asymmetry_Pilot,2022.1.3,Win32,60.0060006,62bbe60bf3d75ef465d3e404,0,35,35,157,1,threefour,,,,,,,,,,,,,,,,,,,,,,,,,,,,,,,,,,,,,,,,,,,,,,,,,,,,,,,,,,,,,,,,,,,,,,,,,,,,,,,,,,,,,,,,,,,,,,,,,,,,,,,,,,,,,,,,,,,,,,,,,,,,,,,,,,,,,,,,,,,,,,,,,,,,,,,,
,,,,,,611cd816b1ca5d5859eda77f,62bbfb15e1ba36e704ee8728,2022-06-29_09h12.04.278,Colour_Asymmetry_Pilot,2022.1.3,Win32,60.0060006,62bbe60bf3d75ef465d3e404,0,36,36,148,1,threeone,,,,,,,,,,,,,,,,,,,,,,,,,,,,,,,,,,,,,,,,,,,,,,,,,,,,,,,,,,,,,,,,,,,,,,,,,,,,,,,,,,,,,,,,,,,,,,,,,,,,,,,,,,,,,,,,,,,,,,,,,,,,,,,,,,,,,,,,,,,,,,,,,,,,,,,,
,,,,,,611cd816b1ca5d5859eda77f,62bbfb15e1ba36e704ee8728,2022-06-29_09h12.04.278,Colour_Asymmetry_Pilot,2022.1.3,Win32,60.0060006,62bbe60bf3d75ef465d3e404,0,37,37,20,1,threeone,,,,,,,,,,,,,,,,,,,,,,,,,,,,,,,,,,,,,,,,,,,,,,,,,,,,,,,,,,,,,,,,,,,,,,,,,,,,,,,,,,,,,,,,,,,,,,,,,,,,,,,,,,,,,,,,,,,,,,,,,,,,,,,,,,,,,,,,,,,,,,,,,,,,,,,,
,,,,,,611cd816b1ca5d5859eda77f,62bbfb15e1ba36e704ee8728,2022-06-29_09h12.04.278,Colour_Asymmetry_Pilot,2022.1.3,Win32,60.0060006,62bbe60bf3d75ef465d3e404,0,38,38,21,1,threefour,,,,,,,,,,,,,,,,,,,,,,,,,,,,,,,,,,,,,,,,,,,,,,,,,,,,,,,,,,,,,,,,,,,,,,,,,,,,,,,,,,,,,,,,,,,,,,,,,,,,,,,,,,,,,,,,,,,,,,,,,,,,,,,,,,,,,,,,,,,,,,,,,,,,,,,,
,,,,,,611cd816b1ca5d5859eda77f,62bbfb15e1ba36e704ee8728,2022-06-29_09h12.04.278,Colour_Asymmetry_Pilot,2022.1.3,Win32,60.0060006,62bbe60bf3d75ef465d3e404,0,39,39,114,1,twoone,,,,,,,,,,,,,,,,,,,,,,,,,,,,,,,,,,,,,,,,,,,,,,,,,,,,,,,,,,,,,,,,,,,,,,,,,,,,,,,,,,,,,,,,,,,,,,,,,,,,,,,,,,,,,,,,,,,,,,,,,,,,,,,,,,,,,,,,,,,,,,,,,,,,,,,,
,,,,,,611cd816b1ca5d5859eda77f,62bbfb15e1ba36e704ee8728,2022-06-29_09h12.04.278,Colour_Asymmetry_Pilot,2022.1.3,Win32,60.0060006,62bbe60bf3d75ef465d3e404,0,40,40,138,1,twoone,,,,,,,,,,,,,,,,,,,,,,,,,,,,,,,,,,,,,,,,,,,,,,,,,,,,,,,,,,,,,,,,,,,,,,,,,,,,,,,,,,,,,,,,,,,,,,,,,,,,,,,,,,,,,,,,,,,,,,,,,,,,,,,,,,,,,,,,,,,,,,,,,,,,,,,,
,,,,,,611cd816b1ca5d5859eda77f,62bbfb15e1ba36e704ee8728,2022-06-29_09h12.04.278,Colour_Asymmetry_Pilot,2022.1.3,Win32,60.0060006,62bbe60bf3d75ef465d3e404,0,41,41,35,1,twofour,,,,,,,,,,,,,,,,,,,,,,,,,,,,,,,,,,,,,,,,,,,,,,,,,,,,,,,,,,,,,,,,,,,,,,,,,,,,,,,,,,,,,,,,,,,,,,,,,,,,,,,,,,,,,,,,,,,,,,,,,,,,,,,,,,,,,,,,,,,,,,,,,,,,,,,,
,,,,,,611cd816b1ca5d5859eda77f,62bbfb15e1ba36e704ee8728,2022-06-29_09h12.04.278,Colour_Asymmetry_Pilot,2022.1.3,Win32,60.0060006,62bbe60bf3d75ef465d3e404,0,42,42,40,1,onetwo,,,,,,,,,,,,,,,,,,,,,,,,,,,,,,,,,,,,,,,,,,,,,,,,,,,,,,,,,,,,,,,,,,,,,,,,,,,,,,,,,,,,,,,,,,,,,,,,,,,,,,,,,,,,,,,,,,,,,,,,,,,,,,,,,,,,,,,,,,,,,,,,,,,,,,,,
,,,,,,611cd816b1ca5d5859eda77f,62bbfb15e1ba36e704ee8728,2022-06-29_09h12.04.278,Colour_Asymmetry_Pilot,2022.1.3,Win32,60.0060006,62bbe60bf3d75ef465d3e404,0,43,43,152,1,onetwo,,,,,,,,,,,,,,,,,,,,,,,,,,,,,,,,,,,,,,,,,,,,,,,,,,,,,,,,,,,,,,,,,,,,,,,,,,,,,,,,,,,,,,,,,,,,,,,,,,,,,,,,,,,,,,,,,,,,,,,,,,,,,,,,,,,,,,,,,,,,,,,,,,,,,,,,
,,,,,,611cd816b1ca5d5859eda77f,62bbfb15e1ba36e704ee8728,2022-06-29_09h12.04.278,Colour_Asymmetry_Pilot,2022.1.3,Win32,60.0060006,62bbe60bf3d75ef465d3e404,0,44,44,130,1,twoone,,,,,,,,,,,,,,,,,,,,,,,,,,,,,,,,,,,,,,,,,,,,,,,,,,,,,,,,,,,,,,,,,,,,,,,,,,,,,,,,,,,,,,,,,,,,,,,,,,,,,,,,,,,,,,,,,,,,,,,,,,,,,,,,,,,,,,,,,,,,,,,,,,,,,,,,
,,,,,,611cd816b1ca5d5859eda77f,62bbfb15e1ba36e704ee8728,2022-06-29_09h12.04.278,Colour_Asymmetry_Pilot,2022.1.3,Win32,60.0060006,62bbe60bf3d75ef465d3e404,0,45,45,154,1,twoone,,,,,,,,,,,,,,,,,,,,,,,,,,,,,,,,,,,,,,,,,,,,,,,,,,,,,,,,,,,,,,,,,,,,,,,,,,,,,,,,,,,,,,,,,,,,,,,,,,,,,,,,,,,,,,,,,,,,,,,,,,,,,,,,,,,,,,,,,,,,,,,,,,,,,,,,
,,,,,,611cd816b1ca5d5859eda77f,62bbfb15e1ba36e704ee8728,2022-06-29_09h12.04.278,Colour_Asymmetry_Pilot,2022.1.3,Win32,60.0060006,62bbe60bf3d75ef465d3e404,0,46,46,36,1,threeone,,,,,,,,,,,,,,,,,,,,,,,,,,,,,,,,,,,,,,,,,,,,,,,,,,,,,,,,,,,,,,,,,,,,,,,,,,,,,,,,,,,,,,,,,,,,,,,,,,,,,,,,,,,,,,,,,,,,,,,,,,,,,,,,,,,,,,,,,,,,,,,,,,,,,,,,
,,,,,,611cd816b1ca5d5859eda77f,62bbfb15e1ba36e704ee8728,2022-06-29_09h12.04.278,Colour_Asymmetry_Pilot,2022.1.3,Win32,60.0060006,62bbe60bf3d75ef465d3e404,0,47,47,62,1,fourtwo,,,,,,,,,,,,,,,,,,,,,,,,,,,,,,,,,,,,,,,,,,,,,,,,,,,,,,,,,,,,,,,,,,,,,,,,,,,,,,,,,,,,,,,,,,,,,,,,,,,,,,,,,,,,,,,,,,,,,,,,,,,,,,,,,,,,,,,,,,,,,,,,,,,,,,,,
,,,,,,611cd816b1ca5d5859eda77f,62bbfb15e1ba36e704ee8728,2022-06-29_09h12.04.278,Colour_Asymmetry_Pilot,2022.1.3,Win32,60.0060006,62bbe60bf3d75ef465d3e404,0,48,48,55,1,fourthree,,,,,,,,,,,,,,,,,,,,,,,,,,,,,,,,,,,,,,,,,,,,,,,,,,,,,,,,,,,,,,,,,,,,,,,,,,,,,,,,,,,,,,,,,,,,,,,,,,,,,,,,,,,,,,,,,,,,,,,,,,,,,,,,,,,,,,,,,,,,,,,,,,,,,,,,
,,,,,,611cd816b1ca5d5859eda77f,62bbfb15e1ba36e704ee8728,2022-06-29_09h12.04.278,Colour_Asymmetry_Pilot,2022.1.3,Win32,60.0060006,62bbe60bf3d75ef465d3e404,0,49,49,79,1,fourthree,,,,,,,,,,,,,,,,,,,,,,,,,,,,,,,,,,,,,,,,,,,,,,,,,,,,,,,,,,,,,,,,,,,,,,,,,,,,,,,,,,,,,,,,,,,,,,,,,,,,,,,,,,,,,,,,,,,,,,,,,,,,,,,,,,,,,,,,,,,,,,,,,,,,,,,,
,,,,,,611cd816b1ca5d5859eda77f,62bbfb15e1ba36e704ee8728,2022-06-29_09h12.04.278,Colour_Asymmetry_Pilot,2022.1.3,Win32,60.0060006,62bbe60bf3d75ef465d3e404,0,50,50,99,1,twofour,,,,,,,,,,,,,,,,,,,,,,,,,,,,,,,,,,,,,,,,,,,,,,,,,,,,,,,,,,,,,,,,,,,,,,,,,,,,,,,,,,,,,,,,,,,,,,,,,,,,,,,,,,,,,,,,,,,,,,,,,,,,,,,,,,,,,,,,,,,,,,,,,,,,,,,,
,,,,,,611cd816b1ca5d5859eda77f,62bbfb15e1ba36e704ee8728,2022-06-29_09h12.04.278,Colour_Asymmetry_Pilot,2022.1.3,Win32,60.0060006,62bbe60bf3d75ef465d3e404,0,51,51,34,1,twoone,,,,,,,,,,,,,,,,,,,,,,,,,,,,,,,,,,,,,,,,,,,,,,,,,,,,,,,,,,,,,,,,,,,,,,,,,,,,,,,,,,,,,,,,,,,,,,,,,,,,,,,,,,,,,,,,,,,,,,,,,,,,,,,,,,,,,,,,,,,,,,,,,,,,,,,,
,,,,,,611cd816b1ca5d5859eda77f,62bbfb15e1ba36e704ee8728,2022-06-29_09h12.04.278,Colour_Asymmetry_Pilot,2022.1.3,Win32,60.0060006,62bbe60bf3d75ef465d3e404,0,52,52,30,1,fourtwo,,,,,,,,,,,,,,,,,,,,,,,,,,,,,,,,,,,,,,,,,,,,,,,,,,,,,,,,,,,,,,,,,,,,,,,,,,,,,,,,,,,,,,,,,,,,,,,,,,,,,,,,,,,,,,,,,,,,,,,,,,,,,,,,,,,,,,,,,,,,,,,,,,,,,,,,
,,,,,,611cd816b1ca5d5859eda77f,62bbfb15e1ba36e704ee8728,2022-06-29_09h12.04.278,Colour_Asymmetry_Pilot,2022.1.3,Win32,60.0060006,62bbe60bf3d75ef465d3e404,0,53,53,71,1,fourthree,,,,,,,,,,,,,,,,,,,,,,,,,,,,,,,,,,,,,,,,,,,,,,,,,,,,,,,,,,,,,,,,,,,,,,,,,,,,,,,,,,,,,,,,,,,,,,,,,,,,,,,,,,,,,,,,,,,,,,,,,,,,,,,,,,,,,,,,,,,,,,,,,,,,,,,,
,,,,,,611cd816b1ca5d5859eda77f,62bbfb15e1ba36e704ee8728,2022-06-29_09h12.04.278,Colour_Asymmetry_Pilot,2022.1.3,Win32,60.0060006,62bbe60bf3d75ef465d3e404,0,54,54,132,1,threeone,,,,,,,,,,,,,,,,,,,,,,,,,,,,,,,,,,,,,,,,,,,,,,,,,,,,,,,,,,,,,,,,,,,,,,,,,,,,,,,,,,,,,,,,,,,,,,,,,,,,,,,,,,,,,,,,,,,,,,,,,,,,,,,,,,,,,,,,,,,,,,,,,,,,,,,,
,,,,,,611cd816b1ca5d5859eda77f,62bbfb15e1ba36e704ee8728,2022-06-29_09h12.04.278,Colour_Asymmetry_Pilot,2022.1.3,Win32,60.0060006,62bbe60bf3d75ef465d3e404,0,55,55,87,1,fourthree,,,,,,,,,,,,,,,,,,,,,,,,,,,,,,,,,,,,,,,,,,,,,,,,,,,,,,,,,,,,,,,,,,,,,,,,,,,,,,,,,,,,,,,,,,,,,,,,,,,,,,,,,,,,,,,,,,,,,,,,,,,,,,,,,,,,,,,,,,,,,,,,,,,,,,,,
,,,,,,611cd816b1ca5d5859eda77f,62bbfb15e1ba36e704ee8728,2022-06-29_09h12.04.278,Colour_Asymmetry_Pilot,2022.1.3,Win32,60.0060006,62bbe60bf3d75ef465d3e404,0,56,56,111,1,fourthree,,,,,,,,,,,,,,,,,,,,,,,,,,,,,,,,,,,,,,,,,,,,,,,,,,,,,,,,,,,,,,,,,,,,,,,,,,,,,,,,,,,,,,,,,,,,,,,,,,,,,,,,,,,,,,,,,,,,,,,,,,,,,,,,,,,,,,,,,,,,,,,,,,,,,,,,
,,,,,,611cd816b1ca5d5859eda77f,62bbfb15e1ba36e704ee8728,2022-06-29_09h12.04.278,Colour_Asymmetry_Pilot,2022.1.3,Win32,60.0060006,62bbe60bf3d75ef465d3e404,0,57,57,158,1,fourtwo,,,,,,,,,,,,,,,,,,,,,,,,,,,,,,,,,,,,,,,,,,,,,,,,,,,,,,,,,,,,,,,,,,,,,,,,,,,,,,,,,,,,,,,,,,,,,,,,,,,,,,,,,,,,,,,,,,,,,,,,,,,,,,,,,,,,,,,,,,,,,,,,,,,,,,,,
,,,,,,611cd816b1ca5d5859eda77f,62bbfb15e1ba36e704ee8728,2022-06-29_09h12.04.278,Colour_Asymmetry_Pilot,2022.1.3,Win32,60.0060006,62bbe60bf3d75ef465d3e404,0,58,58,110,1,fourtwo,,,,,,,,,,,,,,,,,,,,,,,,,,,,,,,,,,,,,,,,,,,,,,,,,,,,,,,,,,,,,,,,,,,,,,,,,,,,,,,,,,,,,,,,,,,,,,,,,,,,,,,,,,,,,,,,,,,,,,,,,,,,,,,,,,,,,,,,,,,,,,,,,,,,,,,,
,,,,,,611cd816b1ca5d5859eda77f,62bbfb15e1ba36e704ee8728,2022-06-29_09h12.04.278,Colour_Asymmetry_Pilot,2022.1.3,Win32,60.0060006,62bbe60bf3d75ef465d3e404,0,59,59,140,1,threeone,,,,,,,,,,,,,,,,,,,,,,,,,,,,,,,,,,,,,,,,,,,,,,,,,,,,,,,,,,,,,,,,,,,,,,,,,,,,,,,,,,,,,,,,,,,,,,,,,,,,,,,,,,,,,,,,,,,,,,,,,,,,,,,,,,,,,,,,,,,,,,,,,,,,,,,,
,,,,,,611cd816b1ca5d5859eda77f,62bbfb15e1ba36e704ee8728,2022-06-29_09h12.04.278,Colour_Asymmetry_Pilot,2022.1.3,Win32,60.0060006,62bbe60bf3d75ef465d3e404,0,60,60,9,1,onethree,,,,,,,,,,,,,,,,,,,,,,,,,,,,,,,,,,,,,,,,,,,,,,,,,,,,,,,,,,,,,,,,,,,,,,,,,,,,,,,,,,,,,,,,,,,,,,,,,,,,,,,,,,,,,,,,,,,,,,,,,,,,,,,,,,,,,,,,,,,,,,,,,,,,,,,,
,,,,,,611cd816b1ca5d5859eda77f,62bbfb15e1ba36e704ee8728,2022-06-29_09h12.04.278,Colour_Asymmetry_Pilot,2022.1.3,Win32,60.0060006,62bbe60bf3d75ef465d3e404,0,61,61,113,1,onethree,,,,,,,,,,,,,,,,,,,,,,,,,,,,,,,,,,,,,,,,,,,,,,,,,,,,,,,,,,,,,,,,,,,,,,,,,,,,,,,,,,,,,,,,,,,,,,,,,,,,,,,,,,,,,,,,,,,,,,,,,,,,,,,,,,,,,,,,,,,,,,,,,,,,,,,,
,,,,,,611cd816b1ca5d5859eda77f,62bbfb15e1ba36e704ee8728,2022-06-29_09h12.04.278,Colour_Asymmetry_Pilot,2022.1.3,Win32,60.0060006,62bbe60bf3d75ef465d3e404,0,62,62,80,1,onetwo,,,,,,,,,,,,,,,,,,,,,,,,,,,,,,,,,,,,,,,,,,,,,,,,,,,,,,,,,,,,,,,,,,,,,,,,,,,,,,,,,,,,,,,,,,,,,,,,,,,,,,,,,,,,,,,,,,,,,,,,,,,,,,,,,,,,,,,,,,,,,,,,,,,,,,,,
,,,,,,611cd816b1ca5d5859eda77f,62bbfb15e1ba36e704ee8728,2022-06-29_09h12.04.278,Colour_Asymmetry_Pilot,2022.1.3,Win32,60.0060006,62bbe60bf3d75ef465d3e404,0,63,63,118,1,fourtwo,,,,,,,,,,,,,,,,,,,,,,,,,,,,,,,,,,,,,,,,,,,,,,,,,,,,,,,,,,,,,,,,,,,,,,,,,,,,,,,,,,,,,,,,,,,,,,,,,,,,,,,,,,,,,,,,,,,,,,,,,,,,,,,,,,,,,,,,,,,,,,,,,,,,,,,,
,,,,,,611cd816b1ca5d5859eda77f,62bbfb15e1ba36e704ee8728,2022-06-29_09h12.04.278,Colour_Asymmetry_Pilot,2022.1.3,Win32,60.0060006,62bbe60bf3d75ef465d3e404,0,64,64,120,1,onetwo,,,,,,,,,,,,,,,,,,,,,,,,,,,,,,,,,,,,,,,,,,,,,,,,,,,,,,,,,,,,,,,,,,,,,,,,,,,,,,,,,,,,,,,,,,,,,,,,,,,,,,,,,,,,,,,,,,,,,,,,,,,,,,,,,,,,,,,,,,,,,,,,,,,,,,,,
,,,,,,611cd816b1ca5d5859eda77f,62bbfb15e1ba36e704ee8728,2022-06-29_09h12.04.278,Colour_Asymmetry_Pilot,2022.1.3,Win32,60.0060006,62bbe60bf3d75ef465d3e404,0,65,65,115,1,twofour,,,,,,,,,,,,,,,,,,,,,,,,,,,,,,,,,,,,,,,,,,,,,,,,,,,,,,,,,,,,,,,,,,,,,,,,,,,,,,,,,,,,,,,,,,,,,,,,,,,,,,,,,,,,,,,,,,,,,,,,,,,,,,,,,,,,,,,,,,,,,,,,,,,,,,,,
,,,,,,611cd816b1ca5d5859eda77f,62bbfb15e1ba36e704ee8728,2022-06-29_09h12.04.278,Colour_Asymmetry_Pilot,2022.1.3,Win32,60.0060006,62bbe60bf3d75ef465d3e404,0,66,66,136,1,onetwo,,,,,,,,,,,,,,,,,,,,,,,,,,,,,,,,,,,,,,,,,,,,,,,,,,,,,,,,,,,,,,,,,,,,,,,,,,,,,,,,,,,,,,,,,,,,,,,,,,,,,,,,,,,,,,,,,,,,,,,,,,,,,,,,,,,,,,,,,,,,,,,,,,,,,,,,
,,,,,,611cd816b1ca5d5859eda77f,62bbfb15e1ba36e704ee8728,2022-06-29_09h12.04.278,Colour_Asymmetry_Pilot,2022.1.3,Win32,60.0060006,62bbe60bf3d75ef465d3e404,0,67,67,27,1,twofour,,,,,,,,,,,,,,,,,,,,,,,,,,,,,,,,,,,,,,,,,,,,,,,,,,,,,,,,,,,,,,,,,,,,,,,,,,,,,,,,,,,,,,,,,,,,,,,,,,,,,,,,,,,,,,,,,,,,,,,,,,,,,,,,,,,,,,,,,,,,,,,,,,,,,,,,
,,,,,,611cd816b1ca5d5859eda77f,62bbfb15e1ba36e704ee8728,2022-06-29_09h12.04.278,Colour_Asymmetry_Pilot,2022.1.3,Win32,60.0060006,62bbe60bf3d75ef465d3e404,0,68,68,150,1,fourtwo,,,,,,,,,,,,,,,,,,,,,,,,,,,,,,,,,,,,,,,,,,,,,,,,,,,,,,,,,,,,,,,,,,,,,,,,,,,,,,,,,,,,,,,,,,,,,,,,,,,,,,,,,,,,,,,,,,,,,,,,,,,,,,,,,,,,,,,,,,,,,,,,,,,,,,,,
,,,,,,611cd816b1ca5d5859eda77f,62bbfb15e1ba36e704ee8728,2022-06-29_09h12.04.278,Colour_Asymmetry_Pilot,2022.1.3,Win32,60.0060006,62bbe60bf3d75ef465d3e404,0,69,69,65,1,onethree,,,,,,,,,,,,,,,,,,,,,,,,,,,,,,,,,,,,,,,,,,,,,,,,,,,,,,,,,,,,,,,,,,,,,,,,,,,,,,,,,,,,,,,,,,,,,,,,,,,,,,,,,,,,,,,,,,,,,,,,,,,,,,,,,,,,,,,,,,,,,,,,,,,,,,,,
,,,,,,611cd816b1ca5d5859eda77f,62bbfb15e1ba36e704ee8728,2022-06-29_09h12.04.278,Colour_Asymmetry_Pilot,2022.1.3,Win32,60.0060006,62bbe60bf3d75ef465d3e404,0,70,70,127,1,fourthree,,,,,,,,,,,,,,,,,,,,,,,,,,,,,,,,,,,,,,,,,,,,,,,,,,,,,,,,,,,,,,,,,,,,,,,,,,,,,,,,,,,,,,,,,,,,,,,,,,,,,,,,,,,,,,,,,,,,,,,,,,,,,,,,,,,,,,,,,,,,,,,,,,,,,,,,
,,,,,,611cd816b1ca5d5859eda77f,62bbfb15e1ba36e704ee8728,2022-06-29_09h12.04.278,Colour_Asymmetry_Pilot,2022.1.3,Win32,60.0060006,62bbe60bf3d75ef465d3e404,0,71,71,42,1,twoone,,,,,,,,,,,,,,,,,,,,,,,,,,,,,,,,,,,,,,,,,,,,,,,,,,,,,,,,,,,,,,,,,,,,,,,,,,,,,,,,,,,,,,,,,,,,,,,,,,,,,,,,,,,,,,,,,,,,,,,,,,,,,,,,,,,,,,,,,,,,,,,,,,,,,,,,
,,,,,,611cd816b1ca5d5859eda77f,62bbfb15e1ba36e704ee8728,2022-06-29_09h12.04.278,Colour_Asymmetry_Pilot,2022.1.3,Win32,60.0060006,62bbe60bf3d75ef465d3e404,0,72,72,73,1,onethree,,,,,,,,,,,,,,,,,,,,,,,,,,,,,,,,,,,,,,,,,,,,,,,,,,,,,,,,,,,,,,,,,,,,,,,,,,,,,,,,,,,,,,,,,,,,,,,,,,,,,,,,,,,,,,,,,,,,,,,,,,,,,,,,,,,,,,,,,,,,,,,,,,,,,,,,
,,,,,,611cd816b1ca5d5859eda77f,62bbfb15e1ba36e704ee8728,2022-06-29_09h12.04.278,Colour_Asymmetry_Pilot,2022.1.3,Win32,60.0060006,62bbe60bf3d75ef465d3e404,0,73,73,24,1,onetwo,,,,,,,,,,,,,,,,,,,,,,,,,,,,,,,,,,,,,,,,,,,,,,,,,,,,,,,,,,,,,,,,,,,,,,,,,,,,,,,,,,,,,,,,,,,,,,,,,,,,,,,,,,,,,,,,,,,,,,,,,,,,,,,,,,,,,,,,,,,,,,,,,,,,,,,,
,,,,,,611cd816b1ca5d5859eda77f,62bbfb15e1ba36e704ee8728,2022-06-29_09h12.04.278,Colour_Asymmetry_Pilot,2022.1.3,Win32,60.0060006,62bbe60bf3d75ef465d3e404,0,74,74,105,1,onethree,,,,,,,,,,,,,,,,,,,,,,,,,,,,,,,,,,,,,,,,,,,,,,,,,,,,,,,,,,,,,,,,,,,,,,,,,,,,,,,,,,,,,,,,,,,,,,,,,,,,,,,,,,,,,,,,,,,,,,,,,,,,,,,,,,,,,,,,,,,,,,,,,,,,,,,,
,,,,,,611cd816b1ca5d5859eda77f,62bbfb15e1ba36e704ee8728,2022-06-29_09h12.04.278,Colour_Asymmetry_Pilot,2022.1.3,Win32,60.0060006,62bbe60bf3d75ef465d3e404,0,75,75,18,1,twoone,,,,,,,,,,,,,,,,,,,,,,,,,,,,,,,,,,,,,,,,,,,,,,,,,,,,,,,,,,,,,,,,,,,,,,,,,,,,,,,,,,,,,,,,,,,,,,,,,,,,,,,,,,,,,,,,,,,,,,,,,,,,,,,,,,,,,,,,,,,,,,,,,,,,,,,,
,,,,,,611cd816b1ca5d5859eda77f,62bbfb15e1ba36e704ee8728,2022-06-29_09h12.04.278,Colour_Asymmetry_Pilot,2022.1.3,Win32,60.0060006,62bbe60bf3d75ef465d3e404,0,76,76,63,1,fourthree,,,,,,,,,,,,,,,,,,,,,,,,,,,,,,,,,,,,,,,,,,,,,,,,,,,,,,,,,,,,,,,,,,,,,,,,,,,,,,,,,,,,,,,,,,,,,,,,,,,,,,,,,,,,,,,,,,,,,,,,,,,,,,,,,,,,,,,,,,,,,,,,,,,,,,,,
,,,,,,611cd816b1ca5d5859eda77f,62bbfb15e1ba36e704ee8728,2022-06-29_09h12.04.278,Colour_Asymmetry_Pilot,2022.1.3,Win32,60.0060006,62bbe60bf3d75ef465d3e404,0,77,77,15,1,fourthree,,,,,,,,,,,,,,,,,,,,,,,,,,,,,,,,,,,,,,,,,,,,,,,,,,,,,,,,,,,,,,,,,,,,,,,,,,,,,,,,,,,,,,,,,,,,,,,,,,,,,,,,,,,,,,,,,,,,,,,,,,,,,,,,,,,,,,,,,,,,,,,,,,,,,,,,
,,,,,,611cd816b1ca5d5859eda77f,62bbfb15e1ba36e704ee8728,2022-06-29_09h12.04.278,Colour_Asymmetry_Pilot,2022.1.3,Win32,60.0060006,62bbe60bf3d75ef465d3e404,0,78,78,28,1,threeone,,,,,,,,,,,,,,,,,,,,,,,,,,,,,,,,,,,,,,,,,,,,,,,,,,,,,,,,,,,,,,,,,,,,,,,,,,,,,,,,,,,,,,,,,,,,,,,,,,,,,,,,,,,,,,,,,,,,,,,,,,,,,,,,,,,,,,,,,,,,,,,,,,,,,,,,
,,,,,,611cd816b1ca5d5859eda77f,62bbfb15e1ba36e704ee8728,2022-06-29_09h12.04.278,Colour_Asymmetry_Pilot,2022.1.3,Win32,60.0060006,62bbe60bf3d75ef465d3e404,0,79,79,19,1,twofour,,,,,,,,,,,,,,,,,,,,,,,,,,,,,,,,,,,,,,,,,,,,,,,,,,,,,,,,,,,,,,,,,,,,,,,,,,,,,,,,,,,,,,,,,,,,,,,,,,,,,,,,,,,,,,,,,,,,,,,,,,,,,,,,,,,,,,,,,,,,,,,,,,,,,,,,
,,,,,,611cd816b1ca5d5859eda77f,62bbfb15e1ba36e704ee8728,2022-06-29_09h12.04.278,Colour_Asymmetry_Pilot,2022.1.3,Win32,60.0060006,62bbe60bf3d75ef465d3e404,0,80,80,100,1,threeone,,,,,,,,,,,,,,,,,,,,,,,,,,,,,,,,,,,,,,,,,,,,,,,,,,,,,,,,,,,,,,,,,,,,,,,,,,,,,,,,,,,,,,,,,,,,,,,,,,,,,,,,,,,,,,,,,,,,,,,,,,,,,,,,,,,,,,,,,,,,,,,,,,,,,,,,
,,,,,,611cd816b1ca5d5859eda77f,62bbfb15e1ba36e704ee8728,2022-06-29_09h12.04.278,Colour_Asymmetry_Pilot,2022.1.3,Win32,60.0060006,62bbe60bf3d75ef465d3e404,0,81,81,107,1,twofour,,,,,,,,,,,,,,,,,,,,,,,,,,,,,,,,,,,,,,,,,,,,,,,,,,,,,,,,,,,,,,,,,,,,,,,,,,,,,,,,,,,,,,,,,,,,,,,,,,,,,,,,,,,,,,,,,,,,,,,,,,,,,,,,,,,,,,,,,,,,,,,,,,,,,,,,
,,,,,,611cd816b1ca5d5859eda77f,62bbfb15e1ba36e704ee8728,2022-06-29_09h12.04.278,Colour_Asymmetry_Pilot,2022.1.3,Win32,60.0060006,62bbe60bf3d75ef465d3e404,0,82,82,44,1,threeone,,,,,,,,,,,,,,,,,,,,,,,,,,,,,,,,,,,,,,,,,,,,,,,,,,,,,,,,,,,,,,,,,,,,,,,,,,,,,,,,,,,,,,,,,,,,,,,,,,,,,,,,,,,,,,,,,,,,,,,,,,,,,,,,,,,,,,,,,,,,,,,,,,,,,,,,
,,,,,,611cd816b1ca5d5859eda77f,62bbfb15e1ba36e704ee8728,2022-06-29_09h12.04.278,Colour_Asymmetry_Pilot,2022.1.3,Win32,60.0060006,62bbe60bf3d75ef465d3e404,0,83,83,122,1,twoone,,,,,,,,,,,,,,,,,,,,,,,,,,,,,,,,,,,,,,,,,,,,,,,,,,,,,,,,,,,,,,,,,,,,,,,,,,,,,,,,,,,,,,,,,,,,,,,,,,,,,,,,,,,,,,,,,,,,,,,,,,,,,,,,,,,,,,,,,,,,,,,,,,,,,,,,
,,,,,,611cd816b1ca5d5859eda77f,62bbfb15e1ba36e704ee8728,2022-06-29_09h12.04.278,Colour_Asymmetry_Pilot,2022.1.3,Win32,60.0060006,62bbe60bf3d75ef465d3e404,0,84,84,129,1,onethree,,,,,,,,,,,,,,,,,,,,,,,,,,,,,,,,,,,,,,,,,,,,,,,,,,,,,,,,,,,,,,,,,,,,,,,,,,,,,,,,,,,,,,,,,,,,,,,,,,,,,,,,,,,,,,,,,,,,,,,,,,,,,,,,,,,,,,,,,,,,,,,,,,,,,,,,
,,,,,,611cd816b1ca5d5859eda77f,62bbfb15e1ba36e704ee8728,2022-06-29_09h12.04.278,Colour_Asymmetry_Pilot,2022.1.3,Win32,60.0060006,62bbe60bf3d75ef465d3e404,0,85,85,13,1,threefour,,,,,,,,,,,,,,,,,,,,,,,,,,,,,,,,,,,,,,,,,,,,,,,,,,,,,,,,,,,,,,,,,,,,,,,,,,,,,,,,,,,,,,,,,,,,,,,,,,,,,,,,,,,,,,,,,,,,,,,,,,,,,,,,,,,,,,,,,,,,,,,,,,,,,,,,
,,,,,,611cd816b1ca5d5859eda77f,62bbfb15e1ba36e704ee8728,2022-06-29_09h12.04.278,Colour_Asymmetry_Pilot,2022.1.3,Win32,60.0060006,62bbe60bf3d75ef465d3e404,0,86,86,31,1,fourthree,,,,,,,,,,,,,,,,,,,,,,,,,,,,,,,,,,,,,,,,,,,,,,,,,,,,,,,,,,,,,,,,,,,,,,,,,,,,,,,,,,,,,,,,,,,,,,,,,,,,,,,,,,,,,,,,,,,,,,,,,,,,,,,,,,,,,,,,,,,,,,,,,,,,,,,,
,,,,,,611cd816b1ca5d5859eda77f,62bbfb15e1ba36e704ee8728,2022-06-29_09h12.04.278,Colour_Asymmetry_Pilot,2022.1.3,Win32,60.0060006,62bbe60bf3d75ef465d3e404,0,87,87,57,1,onethree,,,,,,,,,,,,,,,,,,,,,,,,,,,,,,,,,,,,,,,,,,,,,,,,,,,,,,,,,,,,,,,,,,,,,,,,,,,,,,,,,,,,,,,,,,,,,,,,,,,,,,,,,,,,,,,,,,,,,,,,,,,,,,,,,,,,,,,,,,,,,,,,,,,,,,,,
,,,,,,611cd816b1ca5d5859eda77f,62bbfb15e1ba36e704ee8728,2022-06-29_09h12.04.278,Colour_Asymmetry_Pilot,2022.1.3,Win32,60.0060006,62bbe60bf3d75ef465d3e404,0,88,88,50,1,twoone,,,,,,,,,,,,,,,,,,,,,,,,,,,,,,,,,,,,,,,,,,,,,,,,,,,,,,,,,,,,,,,,,,,,,,,,,,,,,,,,,,,,,,,,,,,,,,,,,,,,,,,,,,,,,,,,,,,,,,,,,,,,,,,,,,,,,,,,,,,,,,,,,,,,,,,,
,,,,,,611cd816b1ca5d5859eda77f,62bbfb15e1ba36e704ee8728,2022-06-29_09h12.04.278,Colour_Asymmetry_Pilot,2022.1.3,Win32,60.0060006,62bbe60bf3d75ef465d3e404,0,89,89,1,1,onethree,,,,,,,,,,,,,,,,,,,,,,,,,,,,,,,,,,,,,,,,,,,,,,,,,,,,,,,,,,,,,,,,,,,,,,,,,,,,,,,,,,,,,,,,,,,,,,,,,,,,,,,,,,,,,,,,,,,,,,,,,,,,,,,,,,,,,,,,,,,,,,,,,,,,,,,,
,,,,,,611cd816b1ca5d5859eda77f,62bbfb15e1ba36e704ee8728,2022-06-29_09h12.04.278,Colour_Asymmetry_Pilot,2022.1.3,Win32,60.0060006,62bbe60bf3d75ef465d3e404,0,90,90,3,1,twofour,,,,,,,,,,,,,,,,,,,,,,,,,,,,,,,,,,,,,,,,,,,,,,,,,,,,,,,,,,,,,,,,,,,,,,,,,,,,,,,,,,,,,,,,,,,,,,,,,,,,,,,,,,,,,,,,,,,,,,,,,,,,,,,,,,,,,,,,,,,,,,,,,,,,,,,,
,,,,,,611cd816b1ca5d5859eda77f,62bbfb15e1ba36e704ee8728,2022-06-29_09h12.04.278,Colour_Asymmetry_Pilot,2022.1.3,Win32,60.0060006,62bbe60bf3d75ef465d3e404,0,91,91,96,1,onetwo,,,,,,,,,,,,,,,,,,,,,,,,,,,,,,,,,,,,,,,,,,,,,,,,,,,,,,,,,,,,,,,,,,,,,,,,,,,,,,,,,,,,,,,,,,,,,,,,,,,,,,,,,,,,,,,,,,,,,,,,,,,,,,,,,,,,,,,,,,,,,,,,,,,,,,,,
,,,,,,611cd816b1ca5d5859eda77f,62bbfb15e1ba36e704ee8728,2022-06-29_09h12.04.278,Colour_Asymmetry_Pilot,2022.1.3,Win32,60.0060006,62bbe60bf3d75ef465d3e404,0,92,92,119,1,fourthree,,,,,,,,,,,,,,,,,,,,,,,,,,,,,,,,,,,,,,,,,,,,,,,,,,,,,,,,,,,,,,,,,,,,,,,,,,,,,,,,,,,,,,,,,,,,,,,,,,,,,,,,,,,,,,,,,,,,,,,,,,,,,,,,,,,,,,,,,,,,,,,,,,,,,,,,
,,,,,,611cd816b1ca5d5859eda77f,62bbfb15e1ba36e704ee8728,2022-06-29_09h12.04.278,Colour_Asymmetry_Pilot,2022.1.3,Win32,60.0060006,62bbe60bf3d75ef465d3e404,0,93,93,8,1,onetwo,,,,,,,,,,,,,,,,,,,,,,,,,,,,,,,,,,,,,,,,,,,,,,,,,,,,,,,,,,,,,,,,,,,,,,,,,,,,,,,,,,,,,,,,,,,,,,,,,,,,,,,,,,,,,,,,,,,,,,,,,,,,,,,,,,,,,,,,,,,,,,,,,,,,,,,,
,,,,,,611cd816b1ca5d5859eda77f,62bbfb15e1ba36e704ee8728,2022-06-29_09h12.04.278,Colour_Asymmetry_Pilot,2022.1.3,Win32,60.0060006,62bbe60bf3d75ef465d3e404,0,94,94,91,1,twofour,,,,,,,,,,,,,,,,,,,,,,,,,,,,,,,,,,,,,,,,,,,,,,,,,,,,,,,,,,,,,,,,,,,,,,,,,,,,,,,,,,,,,,,,,,,,,,,,,,,,,,,,,,,,,,,,,,,,,,,,,,,,,,,,,,,,,,,,,,,,,,,,,,,,,,,,
,,,,,,611cd816b1ca5d5859eda77f,62bbfb15e1ba36e704ee8728,2022-06-29_09h12.04.278,Colour_Asymmetry_Pilot,2022.1.3,Win32,60.0060006,62bbe60bf3d75ef465d3e404,0,95,95,145,1,onethree,,,,,,,,,,,,,,,,,,,,,,,,,,,,,,,,,,,,,,,,,,,,,,,,,,,,,,,,,,,,,,,,,,,,,,,,,,,,,,,,,,,,,,,,,,,,,,,,,,,,,,,,,,,,,,,,,,,,,,,,,,,,,,,,,,,,,,,,,,,,,,,,,,,,,,,,
,,,,,,611cd816b1ca5d5859eda77f,62bbfb15e1ba36e704ee8728,2022-06-29_09h12.04.278,Colour_Asymmetry_Pilot,2022.1.3,Win32,60.0060006,62bbe60bf3d75ef465d3e404,0,96,96,146,1,twoone,,,,,,,,,,,,,,,,,,,,,,,,,,,,,,,,,,,,,,,,,,,,,,,,,,,,,,,,,,,,,,,,,,,,,,,,,,,,,,,,,,,,,,,,,,,,,,,,,,,,,,,,,,,,,,,,,,,,,,,,,,,,,,,,,,,,,,,,,,,,,,,,,,,,,,,,
,,,,,,611cd816b1ca5d5859eda77f,62bbfb15e1ba36e704ee8728,2022-06-29_09h12.04.278,Colour_Asymmetry_Pilot,2022.1.3,Win32,60.0060006,62bbe60bf3d75ef465d3e404,0,97,97,147,1,twofour,,,,,,,,,,,,,,,,,,,,,,,,,,,,,,,,,,,,,,,,,,,,,,,,,,,,,,,,,,,,,,,,,,,,,,,,,,,,,,,,,,,,,,,,,,,,,,,,,,,,,,,,,,,,,,,,,,,,,,,,,,,,,,,,,,,,,,,,,,,,,,,,,,,,,,,,
,,,,,,611cd816b1ca5d5859eda77f,62bbfb15e1ba36e704ee8728,2022-06-29_09h12.04.278,Colour_Asymmetry_Pilot,2022.1.3,Win32,60.0060006,62bbe60bf3d75ef465d3e404,0,98,98,112,1,onetwo,,,,,,,,,,,,,,,,,,,,,,,,,,,,,,,,,,,,,,,,,,,,,,,,,,,,,,,,,,,,,,,,,,,,,,,,,,,,,,,,,,,,,,,,,,,,,,,,,,,,,,,,,,,,,,,,,,,,,,,,,,,,,,,,,,,,,,,,,,,,,,,,,,,,,,,,
,,,,,,611cd816b1ca5d5859eda77f,62bbfb15e1ba36e704ee8728,2022-06-29_09h12.04.278,Colour_Asymmetry_Pilot,2022.1.3,Win32,60.0060006,62bbe60bf3d75ef465d3e404,0,99,99,95,1,fourthree,,,,,,,,,,,,,,,,,,,,,,,,,,,,,,,,,,,,,,,,,,,,,,,,,,,,,,,,,,,,,,,,,,,,,,,,,,,,,,,,,,,,,,,,,,,,,,,,,,,,,,,,,,,,,,,,,,,,,,,,,,,,,,,,,,,,,,,,,,,,,,,,,,,,,,,,
,,,,,,611cd816b1ca5d5859eda77f,62bbfb15e1ba36e704ee8728,2022-06-29_09h12.04.278,Colour_Asymmetry_Pilot,2022.1.3,Win32,60.0060006,62bbe60bf3d75ef465d3e404,0,100,100,81,1,onethree,,,,,,,,,,,,,,,,,,,,,,,,,,,,,,,,,,,,,,,,,,,,,,,,,,,,,,,,,,,,,,,,,,,,,,,,,,,,,,,,,,,,,,,,,,,,,,,,,,,,,,,,,,,,,,,,,,,,,,,,,,,,,,,,,,,,,,,,,,,,,,,,,,,,,,,,
,,,,,,611cd816b1ca5d5859eda77f,62bbfb15e1ba36e704ee8728,2022-06-29_09h12.04.278,Colour_Asymmetry_Pilot,2022.1.3,Win32,60.0060006,62bbe60bf3d75ef465d3e404,0,101,101,78,1,fourtwo,,,,,,,,,,,,,,,,,,,,,,,,,,,,,,,,,,,,,,,,,,,,,,,,,,,,,,,,,,,,,,,,,,,,,,,,,,,,,,,,,,,,,,,,,,,,,,,,,,,,,,,,,,,,,,,,,,,,,,,,,,,,,,,,,,,,,,,,,,,,,,,,,,,,,,,,
,,,,,,611cd816b1ca5d5859eda77f,62bbfb15e1ba36e704ee8728,2022-06-29_09h12.04.278,Colour_Asymmetry_Pilot,2022.1.3,Win32,60.0060006,62bbe60bf3d75ef465d3e404,0,102,102,134,1,fourtwo,,,,,,,,,,,,,,,,,,,,,,,,,,,,,,,,,,,,,,,,,,,,,,,,,,,,,,,,,,,,,,,,,,,,,,,,,,,,,,,,,,,,,,,,,,,,,,,,,,,,,,,,,,,,,,,,,,,,,,,,,,,,,,,,,,,,,,,,,,,,,,,,,,,,,,,,
,,,,,,611cd816b1ca5d5859eda77f,62bbfb15e1ba36e704ee8728,2022-06-29_09h12.04.278,Colour_Asymmetry_Pilot,2022.1.3,Win32,60.0060006,62bbe60bf3d75ef465d3e404,0,103,103,160,1,onetwo,,,,,,,,,,,,,,,,,,,,,,,,,,,,,,,,,,,,,,,,,,,,,,,,,,,,,,,,,,,,,,,,,,,,,,,,,,,,,,,,,,,,,,,,,,,,,,,,,,,,,,,,,,,,,,,,,,,,,,,,,,,,,,,,,,,,,,,,,,,,,,,,,,,,,,,,
,,,,,,611cd816b1ca5d5859eda77f,62bbfb15e1ba36e704ee8728,2022-06-29_09h12.04.278,Colour_Asymmetry_Pilot,2022.1.3,Win32,60.0060006,62bbe60bf3d75ef465d3e404,0,104,104,11,1,twofour,,,,,,,,,,,,,,,,,,,,,,,,,,,,,,,,,,,,,,,,,,,,,,,,,,,,,,,,,,,,,,,,,,,,,,,,,,,,,,,,,,,,,,,,,,,,,,,,,,,,,,,,,,,,,,,,,,,,,,,,,,,,,,,,,,,,,,,,,,,,,,,,,,,,,,,,
,,,,,,611cd816b1ca5d5859eda77f,62bbfb15e1ba36e704ee8728,2022-06-29_09h12.04.278,Colour_Asymmetry_Pilot,2022.1.3,Win32,60.0060006,62bbe60bf3d75ef465d3e404,0,105,105,104,1,onetwo,,,,,,,,,,,,,,,,,,,,,,,,,,,,,,,,,,,,,,,,,,,,,,,,,,,,,,,,,,,,,,,,,,,,,,,,,,,,,,,,,,,,,,,,,,,,,,,,,,,,,,,,,,,,,,,,,,,,,,,,,,,,,,,,,,,,,,,,,,,,,,,,,,,,,,,,
,,,,,,611cd816b1ca5d5859eda77f,62bbfb15e1ba36e704ee8728,2022-06-29_09h12.04.278,Colour_Asymmetry_Pilot,2022.1.3,Win32,60.0060006,62bbe60bf3d75ef465d3e404,0,106,106,139,1,twofour,,,,,,,,,,,,,,,,,,,,,,,,,,,,,,,,,,,,,,,,,,,,,,,,,,,,,,,,,,,,,,,,,,,,,,,,,,,,,,,,,,,,,,,,,,,,,,,,,,,,,,,,,,,,,,,,,,,,,,,,,,,,,,,,,,,,,,,,,,,,,,,,,,,,,,,,
,,,,,,611cd816b1ca5d5859eda77f,62bbfb15e1ba36e704ee8728,2022-06-29_09h12.04.278,Colour_Asymmetry_Pilot,2022.1.3,Win32,60.0060006,62bbe60bf3d75ef465d3e404,0,107,107,54,1,fourtwo,,,,,,,,,,,,,,,,,,,,,,,,,,,,,,,,,,,,,,,,,,,,,,,,,,,,,,,,,,,,,,,,,,,,,,,,,,,,,,,,,,,,,,,,,,,,,,,,,,,,,,,,,,,,,,,,,,,,,,,,,,,,,,,,,,,,,,,,,,,,,,,,,,,,,,,,
,,,,,,611cd816b1ca5d5859eda77f,62bbfb15e1ba36e704ee8728,2022-06-29_09h12.04.278,Colour_Asymmetry_Pilot,2022.1.3,Win32,60.0060006,62bbe60bf3d75ef465d3e404,0,108,108,52,1,threeone,,,,,,,,,,,,,,,,,,,,,,,,,,,,,,,,,,,,,,,,,,,,,,,,,,,,,,,,,,,,,,,,,,,,,,,,,,,,,,,,,,,,,,,,,,,,,,,,,,,,,,,,,,,,,,,,,,,,,,,,,,,,,,,,,,,,,,,,,,,,,,,,,,,,,,,,
,,,,,,611cd816b1ca5d5859eda77f,62bbfb15e1ba36e704ee8728,2022-06-29_09h12.04.278,Colour_Asymmetry_Pilot,2022.1.3,Win32,60.0060006,62bbe60bf3d75ef465d3e404,0,109,109,51,1,twofour,,,,,,,,,,,,,,,,,,,,,,,,,,,,,,,,,,,,,,,,,,,,,,,,,,,,,,,,,,,,,,,,,,,,,,,,,,,,,,,,,,,,,,,,,,,,,,,,,,,,,,,,,,,,,,,,,,,,,,,,,,,,,,,,,,,,,,,,,,,,,,,,,,,,,,,,
,,,,,,611cd816b1ca5d5859eda77f,62bbfb15e1ba36e704ee8728,2022-06-29_09h12.04.278,Colour_Asymmetry_Pilot,2022.1.3,Win32,60.0060006,62bbe60bf3d75ef465d3e404,0,110,110,12,1,threeone,,,,,,,,,,,,,,,,,,,,,,,,,,,,,,,,,,,,,,,,,,,,,,,,,,,,,,,,,,,,,,,,,,,,,,,,,,,,,,,,,,,,,,,,,,,,,,,,,,,,,,,,,,,,,,,,,,,,,,,,,,,,,,,,,,,,,,,,,,,,,,,,,,,,,,,,
,,,,,,611cd816b1ca5d5859eda77f,62bbfb15e1ba36e704ee8728,2022-06-29_09h12.04.278,Colour_Asymmetry_Pilot,2022.1.3,Win32,60.0060006,62bbe60bf3d75ef465d3e404,0,111,111,26,1,twoone,,,,,,,,,,,,,,,,,,,,,,,,,,,,,,,,,,,,,,,,,,,,,,,,,,,,,,,,,,,,,,,,,,,,,,,,,,,,,,,,,,,,,,,,,,,,,,,,,,,,,,,,,,,,,,,,,,,,,,,,,,,,,,,,,,,,,,,,,,,,,,,,,,,,,,,,
,,,,,,611cd816b1ca5d5859eda77f,62bbfb15e1ba36e704ee8728,2022-06-29_09h12.04.278,Colour_Asymmetry_Pilot,2022.1.3,Win32,60.0060006,62bbe60bf3d75ef465d3e404,0,112,112,149,1,threefour,,,,,,,,,,,,,,,,,,,,,,,,,,,,,,,,,,,,,,,,,,,,,,,,,,,,,,,,,,,,,,,,,,,,,,,,,,,,,,,,,,,,,,,,,,,,,,,,,,,,,,,,,,,,,,,,,,,,,,,,,,,,,,,,,,,,,,,,,,,,,,,,,,,,,,,,
,,,,,,611cd816b1ca5d5859eda77f,62bbfb15e1ba36e704ee8728,2022-06-29_09h12.04.278,Colour_Asymmetry_Pilot,2022.1.3,Win32,60.0060006,62bbe60bf3d75ef465d3e404,0,113,113,39,1,fourthree,,,,,,,,,,,,,,,,,,,,,,,,,,,,,,,,,,,,,,,,,,,,,,,,,,,,,,,,,,,,,,,,,,,,,,,,,,,,,,,,,,,,,,,,,,,,,,,,,,,,,,,,,,,,,,,,,,,,,,,,,,,,,,,,,,,,,,,,,,,,,,,,,,,,,,,,
,,,,,,611cd816b1ca5d5859eda77f,62bbfb15e1ba36e704ee8728,2022-06-29_09h12.04.278,Colour_Asymmetry_Pilot,2022.1.3,Win32,60.0060006,62bbe60bf3d75ef465d3e404,0,114,114,29,1,threefour,,,,,,,,,,,,,,,,,,,,,,,,,,,,,,,,,,,,,,,,,,,,,,,,,,,,,,,,,,,,,,,,,,,,,,,,,,,,,,,,,,,,,,,,,,,,,,,,,,,,,,,,,,,,,,,,,,,,,,,,,,,,,,,,,,,,,,,,,,,,,,,,,,,,,,,,
,,,,,,611cd816b1ca5d5859eda77f,62bbfb15e1ba36e704ee8728,2022-06-29_09h12.04.278,Colour_Asymmetry_Pilot,2022.1.3,Win32,60.0060006,62bbe60bf3d75ef465d3e404,0,115,115,161,1,onethree,,,,,,,,,,,,,,,,,,,,,,,,,,,,,,,,,,,,,,,,,,,,,,,,,,,,,,,,,,,,,,,,,,,,,,,,,,,,,,,,,,,,,,,,,,,,,,,,,,,,,,,,,,,,,,,,,,,,,,,,,,,,,,,,,,,,,,,,,,,,,,,,,,,,,,,,
,,,,,,611cd816b1ca5d5859eda77f,62bbfb15e1ba36e704ee8728,2022-06-29_09h12.04.278,Colour_Asymmetry_Pilot,2022.1.3,Win32,60.0060006,62bbe60bf3d75ef465d3e404,0,116,116,69,1,threefour,,,,,,,,,,,,,,,,,,,,,,,,,,,,,,,,,,,,,,,,,,,,,,,,,,,,,,,,,,,,,,,,,,,,,,,,,,,,,,,,,,,,,,,,,,,,,,,,,,,,,,,,,,,,,,,,,,,,,,,,,,,,,,,,,,,,,,,,,,,,,,,,,,,,,,,,
,,,,,,611cd816b1ca5d5859eda77f,62bbfb15e1ba36e704ee8728,2022-06-29_09h12.04.278,Colour_Asymmetry_Pilot,2022.1.3,Win32,60.0060006,62bbe60bf3d75ef465d3e404,0,117,117,53,1,threefour,,,,,,,,,,,,,,,,,,,,,,,,,,,,,,,,,,,,,,,,,,,,,,,,,,,,,,,,,,,,,,,,,,,,,,,,,,,,,,,,,,,,,,,,,,,,,,,,,,,,,,,,,,,,,,,,,,,,,,,,,,,,,,,,,,,,,,,,,,,,,,,,,,,,,,,,
,,,,,,611cd816b1ca5d5859eda77f,62bbfb15e1ba36e704ee8728,2022-06-29_09h12.04.278,Colour_Asymmetry_Pilot,2022.1.3,Win32,60.0060006,62bbe60bf3d75ef465d3e404,0,118,118,75,1,twofour,,,,,,,,,,,,,,,,,,,,,,,,,,,,,,,,,,,,,,,,,,,,,,,,,,,,,,,,,,,,,,,,,,,,,,,,,,,,,,,,,,,,,,,,,,,,,,,,,,,,,,,,,,,,,,,,,,,,,,,,,,,,,,,,,,,,,,,,,,,,,,,,,,,,,,,,
,,,,,,611cd816b1ca5d5859eda77f,62bbfb15e1ba36e704ee8728,2022-06-29_09h12.04.278,Colour_Asymmetry_Pilot,2022.1.3,Win32,60.0060006,62bbe60bf3d75ef465d3e404,0,119,119,58,1,twoone,,,,,,,,,,,,,,,,,,,,,,,,,,,,,,,,,,,,,,,,,,,,,,,,,,,,,,,,,,,,,,,,,,,,,,,,,,,,,,,,,,,,,,,,,,,,,,,,,,,,,,,,,,,,,,,,,,,,,,,,,,,,,,,,,,,,,,,,,,,,,,,,,,,,,,,,
,,,,,,611cd816b1ca5d5859eda77f,62bbfb15e1ba36e704ee8728,2022-06-29_09h12.04.278,Colour_Asymmetry_Pilot,2022.1.3,Win32,60.0060006,62bbe60bf3d75ef465d3e404,0,120,120,121,1,onethree,,,,,,,,,,,,,,,,,,,,,,,,,,,,,,,,,,,,,,,,,,,,,,,,,,,,,,,,,,,,,,,,,,,,,,,,,,,,,,,,,,,,,,,,,,,,,,,,,,,,,,,,,,,,,,,,,,,,,,,,,,,,,,,,,,,,,,,,,,,,,,,,,,,,,,,,
,,,,,,611cd816b1ca5d5859eda77f,62bbfb15e1ba36e704ee8728,2022-06-29_09h12.04.278,Colour_Asymmetry_Pilot,2022.1.3,Win32,60.0060006,62bbe60bf3d75ef465d3e404,0,121,121,135,1,fourthree,,,,,,,,,,,,,,,,,,,,,,,,,,,,,,,,,,,,,,,,,,,,,,,,,,,,,,,,,,,,,,,,,,,,,,,,,,,,,,,,,,,,,,,,,,,,,,,,,,,,,,,,,,,,,,,,,,,,,,,,,,,,,,,,,,,,,,,,,,,,,,,,,,,,,,,,
,,,,,,611cd816b1ca5d5859eda77f,62bbfb15e1ba36e704ee8728,2022-06-29_09h12.04.278,Colour_Asymmetry_Pilot,2022.1.3,Win32,60.0060006,62bbe60bf3d75ef465d3e404,0,122,122,45,1,threefour,,,,,,,,,,,,,,,,,,,,,,,,,,,,,,,,,,,,,,,,,,,,,,,,,,,,,,,,,,,,,,,,,,,,,,,,,,,,,,,,,,,,,,,,,,,,,,,,,,,,,,,,,,,,,,,,,,,,,,,,,,,,,,,,,,,,,,,,,,,,,,,,,,,,,,,,
,,,,,,611cd816b1ca5d5859eda77f,62bbfb15e1ba36e704ee8728,2022-06-29_09h12.04.278,Colour_Asymmetry_Pilot,2022.1.3,Win32,60.0060006,62bbe60bf3d75ef465d3e404,0,123,123,92,1,threeone,,,,,,,,,,,,,,,,,,,,,,,,,,,,,,,,,,,,,,,,,,,,,,,,,,,,,,,,,,,,,,,,,,,,,,,,,,,,,,,,,,,,,,,,,,,,,,,,,,,,,,,,,,,,,,,,,,,,,,,,,,,,,,,,,,,,,,,,,,,,,,,,,,,,,,,,
,,,,,,611cd816b1ca5d5859eda77f,62bbfb15e1ba36e704ee8728,2022-06-29_09h12.04.278,Colour_Asymmetry_Pilot,2022.1.3,Win32,60.0060006,62bbe60bf3d75ef465d3e404,0,124,124,66,1,twoone,,,,,,,,,,,,,,,,,,,,,,,,,,,,,,,,,,,,,,,,,,,,,,,,,,,,,,,,,,,,,,,,,,,,,,,,,,,,,,,,,,,,,,,,,,,,,,,,,,,,,,,,,,,,,,,,,,,,,,,,,,,,,,,,,,,,,,,,,,,,,,,,,,,,,,,,
,,,,,,611cd816b1ca5d5859eda77f,62bbfb15e1ba36e704ee8728,2022-06-29_09h12.04.278,Colour_Asymmetry_Pilot,2022.1.3,Win32,60.0060006,62bbe60bf3d75ef465d3e404,0,125,125,49,1,onethree,,,,,,,,,,,,,,,,,,,,,,,,,,,,,,,,,,,,,,,,,,,,,,,,,,,,,,,,,,,,,,,,,,,,,,,,,,,,,,,,,,,,,,,,,,,,,,,,,,,,,,,,,,,,,,,,,,,,,,,,,,,,,,,,,,,,,,,,,,,,,,,,,,,,,,,,
,,,,,,611cd816b1ca5d5859eda77f,62bbfb15e1ba36e704ee8728,2022-06-29_09h12.04.278,Colour_Asymmetry_Pilot,2022.1.3,Win32,60.0060006,62bbe60bf3d75ef465d3e404,0,126,126,25,1,onethree,,,,,,,,,,,,,,,,,,,,,,,,,,,,,,,,,,,,,,,,,,,,,,,,,,,,,,,,,,,,,,,,,,,,,,,,,,,,,,,,,,,,,,,,,,,,,,,,,,,,,,,,,,,,,,,,,,,,,,,,,,,,,,,,,,,,,,,,,,,,,,,,,,,,,,,,
,,,,,,611cd816b1ca5d5859eda77f,62bbfb15e1ba36e704ee8728,2022-06-29_09h12.04.278,Colour_Asymmetry_Pilot,2022.1.3,Win32,60.0060006,62bbe60bf3d75ef465d3e404,0,127,127,64,1,onetwo,,,,,,,,,,,,,,,,,,,,,,,,,,,,,,,,,,,,,,,,,,,,,,,,,,,,,,,,,,,,,,,,,,,,,,,,,,,,,,,,,,,,,,,,,,,,,,,,,,,,,,,,,,,,,,,,,,,,,,,,,,,,,,,,,,,,,,,,,,,,,,,,,,,,,,,,
,,,,,,611cd816b1ca5d5859eda77f,62bbfb15e1ba36e704ee8728,2022-06-29_09h12.04.278,Colour_Asymmetry_Pilot,2022.1.3,Win32,60.0060006,62bbe60bf3d75ef465d3e404,0,128,128,141,1,threefour,,,,,,,,,,,,,,,,,,,,,,,,,,,,,,,,,,,,,,,,,,,,,,,,,,,,,,,,,,,,,,,,,,,,,,,,,,,,,,,,,,,,,,,,,,,,,,,,,,,,,,,,,,,,,,,,,,,,,,,,,,,,,,,,,,,,,,,,,,,,,,,,,,,,,,,,
,,,,,,611cd816b1ca5d5859eda77f,62bbfb15e1ba36e704ee8728,2022-06-29_09h12.04.278,Colour_Asymmetry_Pilot,2022.1.3,Win32,60.0060006,62bbe60bf3d75ef465d3e404,0,129,129,159,1,fourthree,,,,,,,,,,,,,,,,,,,,,,,,,,,,,,,,,,,,,,,,,,,,,,,,,,,,,,,,,,,,,,,,,,,,,,,,,,,,,,,,,,,,,,,,,,,,,,,,,,,,,,,,,,,,,,,,,,,,,,,,,,,,,,,,,,,,,,,,,,,,,,,,,,,,,,,,
,,,,,,611cd816b1ca5d5859eda77f,62bbfb15e1ba36e704ee8728,2022-06-29_09h12.04.278,Colour_Asymmetry_Pilot,2022.1.3,Win32,60.0060006,62bbe60bf3d75ef465d3e404,0,130,130,153,1,onethree,,,,,,,,,,,,,,,,,,,,,,,,,,,,,,,,,,,,,,,,,,,,,,,,,,,,,,,,,,,,,,,,,,,,,,,,,,,,,,,,,,,,,,,,,,,,,,,,,,,,,,,,,,,,,,,,,,,,,,,,,,,,,,,,,,,,,,,,,,,,,,,,,,,,,,,,
,,,,,,611cd816b1ca5d5859eda77f,62bbfb15e1ba36e704ee8728,2022-06-29_09h12.04.278,Colour_Asymmetry_Pilot,2022.1.3,Win32,60.0060006,62bbe60bf3d75ef465d3e404,0,131,131,82,1,twoone,,,,,,,,,,,,,,,,,,,,,,,,,,,,,,,,,,,,,,,,,,,,,,,,,,,,,,,,,,,,,,,,,,,,,,,,,,,,,,,,,,,,,,,,,,,,,,,,,,,,,,,,,,,,,,,,,,,,,,,,,,,,,,,,,,,,,,,,,,,,,,,,,,,,,,,,
,,,,,,611cd816b1ca5d5859eda77f,62bbfb15e1ba36e704ee8728,2022-06-29_09h12.04.278,Colour_Asymmetry_Pilot,2022.1.3,Win32,60.0060006,62bbe60bf3d75ef465d3e404,0,132,132,67,1,twofour,,,,,,,,,,,,,,,,,,,,,,,,,,,,,,,,,,,,,,,,,,,,,,,,,,,,,,,,,,,,,,,,,,,,,,,,,,,,,,,,,,,,,,,,,,,,,,,,,,,,,,,,,,,,,,,,,,,,,,,,,,,,,,,,,,,,,,,,,,,,,,,,,,,,,,,,
,,,,,,611cd816b1ca5d5859eda77f,62bbfb15e1ba36e704ee8728,2022-06-29_09h12.04.278,Colour_Asymmetry_Pilot,2022.1.3,Win32,60.0060006,62bbe60bf3d75ef465d3e404,0,133,133,128,1,onetwo,,,,,,,,,,,,,,,,,,,,,,,,,,,,,,,,,,,,,,,,,,,,,,,,,,,,,,,,,,,,,,,,,,,,,,,,,,,,,,,,,,,,,,,,,,,,,,,,,,,,,,,,,,,,,,,,,,,,,,,,,,,,,,,,,,,,,,,,,,,,,,,,,,,,,,,,
,,,,,,611cd816b1ca5d5859eda77f,62bbfb15e1ba36e704ee8728,2022-06-29_09h12.04.278,Colour_Asymmetry_Pilot,2022.1.3,Win32,60.0060006,62bbe60bf3d75ef465d3e404,0,134,134,89,1,onethree,,,,,,,,,,,,,,,,,,,,,,,,,,,,,,,,,,,,,,,,,,,,,,,,,,,,,,,,,,,,,,,,,,,,,,,,,,,,,,,,,,,,,,,,,,,,,,,,,,,,,,,,,,,,,,,,,,,,,,,,,,,,,,,,,,,,,,,,,,,,,,,,,,,,,,,,
,,,,,,611cd816b1ca5d5859eda77f,62bbfb15e1ba36e704ee8728,2022-06-29_09h12.04.278,Colour_Asymmetry_Pilot,2022.1.3,Win32,60.0060006,62bbe60bf3d75ef465d3e404,0,135,135,17,1,onethree,,,,,,,,,,,,,,,,,,,,,,,,,,,,,,,,,,,,,,,,,,,,,,,,,,,,,,,,,,,,,,,,,,,,,,,,,,,,,,,,,,,,,,,,,,,,,,,,,,,,,,,,,,,,,,,,,,,,,,,,,,,,,,,,,,,,,,,,,,,,,,,,,,,,,,,,
,,,,,,611cd816b1ca5d5859eda77f,62bbfb15e1ba36e704ee8728,2022-06-29_09h12.04.278,Colour_Asymmetry_Pilot,2022.1.3,Win32,60.0060006,62bbe60bf3d75ef465d3e404,0,136,136,123,1,twofour,,,,,,,,,,,,,,,,,,,,,,,,,,,,,,,,,,,,,,,,,,,,,,,,,,,,,,,,,,,,,,,,,,,,,,,,,,,,,,,,,,,,,,,,,,,,,,,,,,,,,,,,,,,,,,,,,,,,,,,,,,,,,,,,,,,,,,,,,,,,,,,,,,,,,,,,
,,,,,,611cd816b1ca5d5859eda77f,62bbfb15e1ba36e704ee8728,2022-06-29_09h12.04.278,Colour_Asymmetry_Pilot,2022.1.3,Win32,60.0060006,62bbe60bf3d75ef465d3e404,0,137,137,133,1,threefour,,,,,,,,,,,,,,,,,,,,,,,,,,,,,,,,,,,,,,,,,,,,,,,,,,,,,,,,,,,,,,,,,,,,,,,,,,,,,,,,,,,,,,,,,,,,,,,,,,,,,,,,,,,,,,,,,,,,,,,,,,,,,,,,,,,,,,,,,,,,,,,,,,,,,,,,
,,,,,,611cd816b1ca5d5859eda77f,62bbfb15e1ba36e704ee8728,2022-06-29_09h12.04.278,Colour_Asymmetry_Pilot,2022.1.3,Win32,60.0060006,62bbe60bf3d75ef465d3e404,0,138,138,103,1,fourthree,,,,,,,,,,,,,,,,,,,,,,,,,,,,,,,,,,,,,,,,,,,,,,,,,,,,,,,,,,,,,,,,,,,,,,,,,,,,,,,,,,,,,,,,,,,,,,,,,,,,,,,,,,,,,,,,,,,,,,,,,,,,,,,,,,,,,,,,,,,,,,,,,,,,,,,,
,,,,,,611cd816b1ca5d5859eda77f,62bbfb15e1ba36e704ee8728,2022-06-29_09h12.04.278,Colour_Asymmetry_Pilot,2022.1.3,Win32,60.0060006,62bbe60bf3d75ef465d3e404,0,139,139,47,1,fourthree,,,,,,,,,,,,,,,,,,,,,,,,,,,,,,,,,,,,,,,,,,,,,,,,,,,,,,,,,,,,,,,,,,,,,,,,,,,,,,,,,,,,,,,,,,,,,,,,,,,,,,,,,,,,,,,,,,,,,,,,,,,,,,,,,,,,,,,,,,,,,,,,,,,,,,,,
,,,,,,611cd816b1ca5d5859eda77f,62bbfb15e1ba36e704ee8728,2022-06-29_09h12.04.278,Colour_Asymmetry_Pilot,2022.1.3,Win32,60.0060006,62bbe60bf3d75ef465d3e404,0,140,140,93,1,threefour,,,,,,,,,,,,,,,,,,,,,,,,,,,,,,,,,,,,,,,,,,,,,,,,,,,,,,,,,,,,,,,,,,,,,,,,,,,,,,,,,,,,,,,,,,,,,,,,,,,,,,,,,,,,,,,,,,,,,,,,,,,,,,,,,,,,,,,,,,,,,,,,,,,,,,,,
,,,,,,611cd816b1ca5d5859eda77f,62bbfb15e1ba36e704ee8728,2022-06-29_09h12.04.278,Colour_Asymmetry_Pilot,2022.1.3,Win32,60.0060006,62bbe60bf3d75ef465d3e404,0,141,141,142,1,fourtwo,,,,,,,,,,,,,,,,,,,,,,,,,,,,,,,,,,,,,,,,,,,,,,,,,,,,,,,,,,,,,,,,,,,,,,,,,,,,,,,,,,,,,,,,,,,,,,,,,,,,,,,,,,,,,,,,,,,,,,,,,,,,,,,,,,,,,,,,,,,,,,,,,,,,,,,,
,,,,,,611cd816b1ca5d5859eda77f,62bbfb15e1ba36e704ee8728,2022-06-29_09h12.04.278,Colour_Asymmetry_Pilot,2022.1.3,Win32,60.0060006,62bbe60bf3d75ef465d3e404,0,142,142,23,1,fourthree,,,,,,,,,,,,,,,,,,,,,,,,,,,,,,,,,,,,,,,,,,,,,,,,,,,,,,,,,,,,,,,,,,,,,,,,,,,,,,,,,,,,,,,,,,,,,,,,,,,,,,,,,,,,,,,,,,,,,,,,,,,,,,,,,,,,,,,,,,,,,,,,,,,,,,,,
,,,,,,611cd816b1ca5d5859eda77f,62bbfb15e1ba36e704ee8728,2022-06-29_09h12.04.278,Colour_Asymmetry_Pilot,2022.1.3,Win32,60.0060006,62bbe60bf3d75ef465d3e404,0,143,143,144,1,onetwo,,,,,,,,,,,,,,,,,,,,,,,,,,,,,,,,,,,,,,,,,,,,,,,,,,,,,,,,,,,,,,,,,,,,,,,,,,,,,,,,,,,,,,,,,,,,,,,,,,,,,,,,,,,,,,,,,,,,,,,,,,,,,,,,,,,,,,,,,,,,,,,,,,,,,,,,
,,,,,,611cd816b1ca5d5859eda77f,62bbfb15e1ba36e704ee8728,2022-06-29_09h12.04.278,Colour_Asymmetry_Pilot,2022.1.3,Win32,60.0060006,62bbe60bf3d75ef465d3e404,0,144,144,41,1,onethree,,,,,,,,,,,,,,,,,,,,,,,,,,,,,,,,,,,,,,,,,,,,,,,,,,,,,,,,,,,,,,,,,,,,,,,,,,,,,,,,,,,,,,,,,,,,,,,,,,,,,,,,,,,,,,,,,,,,,,,,,,,,,,,,,,,,,,,,,,,,,,,,,,,,,,,,
,,,,,,611cd816b1ca5d5859eda77f,62bbfb15e1ba36e704ee8728,2022-06-29_09h12.04.278,Colour_Asymmetry_Pilot,2022.1.3,Win32,60.0060006,62bbe60bf3d75ef465d3e404,0,145,145,7,1,fourthree,,,,,,,,,,,,,,,,,,,,,,,,,,,,,,,,,,,,,,,,,,,,,,,,,,,,,,,,,,,,,,,,,,,,,,,,,,,,,,,,,,,,,,,,,,,,,,,,,,,,,,,,,,,,,,,,,,,,,,,,,,,,,,,,,,,,,,,,,,,,,,,,,,,,,,,,
,,,,,,611cd816b1ca5d5859eda77f,62bbfb15e1ba36e704ee8728,2022-06-29_09h12.04.278,Colour_Asymmetry_Pilot,2022.1.3,Win32,60.0060006,62bbe60bf3d75ef465d3e404,0,146,146,108,1,threeone,,,,,,,,,,,,,,,,,,,,,,,,,,,,,,,,,,,,,,,,,,,,,,,,,,,,,,,,,,,,,,,,,,,,,,,,,,,,,,,,,,,,,,,,,,,,,,,,,,,,,,,,,,,,,,,,,,,,,,,,,,,,,,,,,,,,,,,,,,,,,,,,,,,,,,,,
,,,,,,611cd816b1ca5d5859eda77f,62bbfb15e1ba36e704ee8728,2022-06-29_09h12.04.278,Colour_Asymmetry_Pilot,2022.1.3,Win32,60.0060006,62bbe60bf3d75ef465d3e404,0,147,147,10,1,twoone,,,,,,,,,,,,,,,,,,,,,,,,,,,,,,,,,,,,,,,,,,,,,,,,,,,,,,,,,,,,,,,,,,,,,,,,,,,,,,,,,,,,,,,,,,,,,,,,,,,,,,,,,,,,,,,,,,,,,,,,,,,,,,,,,,,,,,,,,,,,,,,,,,,,,,,,
,,,,,,611cd816b1ca5d5859eda77f,62bbfb15e1ba36e704ee8728,2022-06-29_09h12.04.278,Colour_Asymmetry_Pilot,2022.1.3,Win32,60.0060006,62bbe60bf3d75ef465d3e404,0,148,148,88,1,onetwo,,,,,,,,,,,,,,,,,,,,,,,,,,,,,,,,,,,,,,,,,,,,,,,,,,,,,,,,,,,,,,,,,,,,,,,,,,,,,,,,,,,,,,,,,,,,,,,,,,,,,,,,,,,,,,,,,,,,,,,,,,,,,,,,,,,,,,,,,,,,,,,,,,,,,,,,
,,,,,,611cd816b1ca5d5859eda77f,62bbfb15e1ba36e704ee8728,2022-06-29_09h12.04.278,Colour_Asymmetry_Pilot,2022.1.3,Win32,60.0060006,62bbe60bf3d75ef465d3e404,0,149,149,74,1,twoone,,,,,,,,,,,,,,,,,,,,,,,,,,,,,,,,,,,,,,,,,,,,,,,,,,,,,,,,,,,,,,,,,,,,,,,,,,,,,,,,,,,,,,,,,,,,,,,,,,,,,,,,,,,,,,,,,,,,,,,,,,,,,,,,,,,,,,,,,,,,,,,,,,,,,,,,
,,,,,,611cd816b1ca5d5859eda77f,62bbfb15e1ba36e704ee8728,2022-06-29_09h12.04.278,Colour_Asymmetry_Pilot,2022.1.3,Win32,60.0060006,62bbe60bf3d75ef465d3e404,0,150,150,97,1,onethree,,,,,,,,,,,,,,,,,,,,,,,,,,,,,,,,,,,,,,,,,,,,,,,,,,,,,,,,,,,,,,,,,,,,,,,,,,,,,,,,,,,,,,,,,,,,,,,,,,,,,,,,,,,,,,,,,,,,,,,,,,,,,,,,,,,,,,,,,,,,,,,,,,,,,,,,
,,,,,,611cd816b1ca5d5859eda77f,62bbfb15e1ba36e704ee8728,2022-06-29_09h12.04.278,Colour_Asymmetry_Pilot,2022.1.3,Win32,60.0060006,62bbe60bf3d75ef465d3e404,0,151,151,70,1,fourtwo,,,,,,,,,,,,,,,,,,,,,,,,,,,,,,,,,,,,,,,,,,,,,,,,,,,,,,,,,,,,,,,,,,,,,,,,,,,,,,,,,,,,,,,,,,,,,,,,,,,,,,,,,,,,,,,,,,,,,,,,,,,,,,,,,,,,,,,,,,,,,,,,,,,,,,,,
,,,,,,611cd816b1ca5d5859eda77f,62bbfb15e1ba36e704ee8728,2022-06-29_09h12.04.278,Colour_Asymmetry_Pilot,2022.1.3,Win32,60.0060006,62bbe60bf3d75ef465d3e404,0,152,152,76,1,threeone,,,,,,,,,,,,,,,,,,,,,,,,,,,,,,,,,,,,,,,,,,,,,,,,,,,,,,,,,,,,,,,,,,,,,,,,,,,,,,,,,,,,,,,,,,,,,,,,,,,,,,,,,,,,,,,,,,,,,,,,,,,,,,,,,,,,,,,,,,,,,,,,,,,,,,,,
,,,,,,611cd816b1ca5d5859eda77f,62bbfb15e1ba36e704ee8728,2022-06-29_09h12.04.278,Colour_Asymmetry_Pilot,2022.1.3,Win32,60.0060006,62bbe60bf3d75ef465d3e404,0,153,153,102,1,fourtwo,,,,,,,,,,,,,,,,,,,,,,,,,,,,,,,,,,,,,,,,,,,,,,,,,,,,,,,,,,,,,,,,,,,,,,,,,,,,,,,,,,,,,,,,,,,,,,,,,,,,,,,,,,,,,,,,,,,,,,,,,,,,,,,,,,,,,,,,,,,,,,,,,,,,,,,,
,,,,,,611cd816b1ca5d5859eda77f,62bbfb15e1ba36e704ee8728,2022-06-29_09h12.04.278,Colour_Asymmetry_Pilot,2022.1.3,Win32,60.0060006,62bbe60bf3d75ef465d3e404,0,154,154,86,1,fourtwo,,,,,,,,,,,,,,,,,,,,,,,,,,,,,,,,,,,,,,,,,,,,,,,,,,,,,,,,,,,,,,,,,,,,,,,,,,,,,,,,,,,,,,,,,,,,,,,,,,,,,,,,,,,,,,,,,,,,,,,,,,,,,,,,,,,,,,,,,,,,,,,,,,,,,,,,
,,,,,,611cd816b1ca5d5859eda77f,62bbfb15e1ba36e704ee8728,2022-06-29_09h12.04.278,Colour_Asymmetry_Pilot,2022.1.3,Win32,60.0060006,62bbe60bf3d75ef465d3e404,0,155,155,77,1,threefour,,,,,,,,,,,,,,,,,,,,,,,,,,,,,,,,,,,,,,,,,,,,,,,,,,,,,,,,,,,,,,,,,,,,,,,,,,,,,,,,,,,,,,,,,,,,,,,,,,,,,,,,,,,,,,,,,,,,,,,,,,,,,,,,,,,,,,,,,,,,,,,,,,,,,,,,
,,,,,,611cd816b1ca5d5859eda77f,62bbfb15e1ba36e704ee8728,2022-06-29_09h12.04.278,Colour_Asymmetry_Pilot,2022.1.3,Win32,60.0060006,62bbe60bf3d75ef465d3e404,0,156,156,117,1,threefour,,,,,,,,,,,,,,,,,,,,,,,,,,,,,,,,,,,,,,,,,,,,,,,,,,,,,,,,,,,,,,,,,,,,,,,,,,,,,,,,,,,,,,,,,,,,,,,,,,,,,,,,,,,,,,,,,,,,,,,,,,,,,,,,,,,,,,,,,,,,,,,,,,,,,,,,
,,,,,,611cd816b1ca5d5859eda77f,62bbfb15e1ba36e704ee8728,2022-06-29_09h12.04.278,Colour_Asymmetry_Pilot,2022.1.3,Win32,60.0060006,62bbe60bf3d75ef465d3e404,0,157,157,116,1,threeone,,,,,,,,,,,,,,,,,,,,,,,,,,,,,,,,,,,,,,,,,,,,,,,,,,,,,,,,,,,,,,,,,,,,,,,,,,,,,,,,,,,,,,,,,,,,,,,,,,,,,,,,,,,,,,,,,,,,,,,,,,,,,,,,,,,,,,,,,,,,,,,,,,,,,,,,
,,,,,,611cd816b1ca5d5859eda77f,62bbfb15e1ba36e704ee8728,2022-06-29_09h12.04.278,Colour_Asymmetry_Pilot,2022.1.3,Win32,60.0060006,62bbe60bf3d75ef465d3e404,0,158,158,33,1,onethree,,,,,,,,,,,,,,,,,,,,,,,,,,,,,,,,,,,,,,,,,,,,,,,,,,,,,,,,,,,,,,,,,,,,,,,,,,,,,,,,,,,,,,,,,,,,,,,,,,,,,,,,,,,,,,,,,,,,,,,,,,,,,,,,,,,,,,,,,,,,,,,,,,,,,,,,
,,,,,,611cd816b1ca5d5859eda77f,62bbfb15e1ba36e704ee8728,2022-06-29_09h12.04.278,Colour_Asymmetry_Pilot,2022.1.3,Win32,60.0060006,62bbe60bf3d75ef465d3e404,0,159,159,14,1,fourtwo,,,,,,,,,,,,,,,,,,,,,,,,,,,,,,,,,,,,,,,,,,,,,,,,,,,,,,,,,,,,,,,,,,,,,,,,,,,,,,,,,,,,,,,,,,,,,,,,,,,,,,,,,,,,,,,,,,,,,,,,,,,,,,,,,,,,,,,,,,,,,,,,,,,,,,,,
,,,,,,611cd816b1ca5d5859eda77f,62bbfb15e1ba36e704ee8728,2022-06-29_09h12.04.278,Colour_Asymmetry_Pilot,2022.1.3,Win32,60.0060006,62bbe60bf3d75ef465d3e404,0,160,160,94,1,fourtwo,,,,,,,,,,,,,,,,,,,,,,,,,,,,,,,,,,,,,,,,,,,,,,,,,,,,,,,,,,,,,,,,,,,,,,,,,,,,,,,,,,,,,,,,,,,,,,,,,,,,,,,,,,,,,,,,,,,,,,,,,,,,,,,,,,,,,,,,,,,,,,,,,,,,,,,,
,,,,,,611cd816b1ca5d5859eda77f,62bbfb15e1ba36e704ee8728,2022-06-29_09h12.04.278,Colour_Asymmetry_Pilot,2022.1.3,Win32,60.0060006,62bbe60bf3d75ef465d3e404,0,161,161,137,1,onethree,,,,,,,,,,,,,,,,,,,,,,,,,,,,,,,,,,,,,,,,,,,,,,,,,,,,,,,,,,,,,,,,,,,,,,,,,,,,,,,,,,,,,,,,,,,,,,,,,,,,,,,,,,,,,,,,,,,,,,,,,,,,,,,,,,,,,,,,,,,,,,,,,,,,,,,,
,,,,,,611cd816b1ca5d5859eda77f,62bbfb15e1ba36e704ee8728,2022-06-29_09h12.04.278,Colour_Asymmetry_Pilot,2022.1.3,Win32,60.0060006,62bbe60bf3d75ef465d3e404,,,,,,,space,7.2951,space,13.4814,space,36.2541,space,20.4387,space,6.5247,space,6.4321,"[-0.9766,-0.6472,0.07440000000000002]",fourtwo,"[-0.30200000000000005,0.14500000000000002,0.2784]",2,14.0157,129,-89,1,0,0,response3disk_5,-6,-4,1,0,0,rectangle_8,-6,-4,1,0,0,2,-6,-4,1,0,0,0,0,0,0,1,,,,,,,,,,,,,,,,,,,,,,,,,,,,,,,,,,,,,,,,,,,,,,,,,,,,,,,,,,,,,,,,,,,,,,,,,,,,,,,,,,,,,,,,,,,,,,,,,,,,,,,,,,,
,,,,,,611cd816b1ca5d5859eda77f,62bbfb15e1ba36e704ee8728,2022-06-29_09h12.04.278,Colour_Asymmetry_Pilot,2022.1.3,Win32,60.0060006,62bbe60bf3d75ef465d3e404,,,,,,,,,,,,,,,,,,,"[0.7018,0.7176,0.6155999999999999]",twofour,"[-0.9766,-0.6472,0.07440000000000002]",4,12.2464,94,134,1,0,0,response1disk_5,-3,0,1,0,0,rectangle_8,-3,0,1,0,0,2,-3,0,1,0,0,1,0,1,0,1,,,,,,,,,,,,,,,,,,,,,,,,,,,,,,,,,,,,,,,,,,,,,,,,,,,,,,,,,,,,,,,,,,,,,,,,,,,,,,,,,,,,,,,,,,,,,,,,,,,,,,,,,,,
,,,,,,611cd816b1ca5d5859eda77f,62bbfb15e1ba36e704ee8728,2022-06-29_09h12.04.278,Colour_Asymmetry_Pilot,2022.1.3,Win32,60.0060006,62bbe60bf3d75ef465d3e404,,,,,,,,,,,,,,,,,,,"[-0.4276,0.0038000000000000256,-0.3256]",fourthree,"[-0.050999999999999934,-0.6706000000000001,-0.804]",1,2.4633,111,-134,1,0,0,response3disk_5,-13,-2,1,0,0,rectangle_8,-125,-49,1,0,0,2,10,-6,1,0,0,2,0,2,0,1,response5disk_7,2,rectangle_4,,,,,,,,,,,,,,,,,,,,,,,,,,,,,,,,,,,,,,,,,,,,,,,,,,,,,,,,,,,,,,,,,,,,,,,,,,,,,,,,,,,,,,,,,,,,,,,,,,,,,,,,
,,,,,,611cd816b1ca5d5859eda77f,62bbfb15e1ba36e704ee8728,2022-06-29_09h12.04.278,Colour_Asymmetry_Pilot,2022.1.3,Win32,60.0060006,62bbe60bf3d75ef465d3e404,,,,,,,,,,,,,,,,,,,"[0.12939999999999996,-0.2864,0.3253999999999999]",onetwo,"[-0.20799999999999996,-0.655,-0.01980000000000004]",-4,3.7211,-136,154,1,0,0,response7disk_5,13,-11,1,0,0,rectangle_8,13,-11,1,0,0,2,13,-11,1,0,0,3,0,3,0,1,,,,,,,,,,,,,,,,,,,,,,,,,,,,,,,,,,,,,,,,,,,,,,,,,,,,,,,,,,,,,,,,,,,,,,,,,,,,,,,,,,,,,,,,,,,,,,,,,,,,,,,,,,,
,,,,,,611cd816b1ca5d5859eda77f,62bbfb15e1ba36e704ee8728,2022-06-29_09h12.04.278,Colour_Asymmetry_Pilot,2022.1.3,Win32,60.0060006,62bbe60bf3d75ef465d3e404,,,,,,,,,,,,,,,,,,,"[0.8115999999999999,-0.0040000000000000036,-0.09819999999999995]",twoone,"[-0.2942,-0.24719999999999998,-0.357]",-4,2.811,-72,136,1,0,0,response7disk_5,10,2,1,0,0,rectangle_8,113,-55,1,0,0,2,-4,1,1,0,0,4,0,4,0,1,response3disk_7,5,rectangle_4,,,,,,,,,,,,,,,,,,,,,,,,,,,,,,,,,,,,,,,,,,,,,,,,,,,,,,,,,,,,,,,,,,,,,,,,,,,,,,,,,,,,,,,,,,,,,,,,,,,,,,,,
,,,,,,611cd816b1ca5d5859eda77f,62bbfb15e1ba36e704ee8728,2022-06-29_09h12.04.278,Colour_Asymmetry_Pilot,2022.1.3,Win32,60.0060006,62bbe60bf3d75ef465d3e404,,,,,,,,,,,,,,,,,,,"[-0.09019999999999995,0.44300000000000006,0.5371999999999999]",threeone,"[-0.26280000000000003,-0.2158,-0.3256]",-2,2.687,-110,-47,1,0,0,response5disk_5,-17,1,1,0,0,rectangle_8,-17,1,1,0,0,2,-17,1,1,0,0,5,0,5,0,1,,,,,,,,,,,,,,,,,,,,,,,,,,,,,,,,,,,,,,,,,,,,,,,,,,,,,,,,,,,,,,,,,,,,,,,,,,,,,,,,,,,,,,,,,,,,,,,,,,,,,,,,,,,
,,,,,,611cd816b1ca5d5859eda77f,62bbfb15e1ba36e704ee8728,2022-06-29_09h12.04.278,Colour_Asymmetry_Pilot,2022.1.3,Win32,60.0060006,62bbe60bf3d75ef465d3e404,,,,,,,,,,,,,,,,,,,"[-0.24719999999999998,0.5213999999999999,-0.12959999999999994]",twoone,"[-0.34920000000000007,-0.702,-0.5216]",-4,1.883,-61,112,1,0,0,response7disk_5,0,-8,1,0,0,rectangle_8,0,-8,1,0,0,2,0,-8,1,0,0,6,0,6,0,1,,,,,,,,,,,,,,,,,,,,,,,,,,,,,,,,,,,,,,,,,,,,,,,,,,,,,,,,,,,,,,,,,,,,,,,,,,,,,,,,,,,,,,,,,,,,,,,,,,,,,,,,,,,
,,,,,,611cd816b1ca5d5859eda77f,62bbfb15e1ba36e704ee8728,2022-06-29_09h12.04.278,Colour_Asymmetry_Pilot,2022.1.3,Win32,60.0060006,62bbe60bf3d75ef465d3e404,,,,,,,,,,,,,,,,,,,,threeone,,-1,4.5773,,,,,,,,,,,,,,,,,,,,,,,,,,,,,,,,space,5.8713,"[-0.011800000000000033,-0.906,-0.45100000000000007]","[0.18419999999999992,-0.4276,-0.404]",-55,-109,1,0,0,response5disk,-22,8,1,0,0,rectangle,-22,8,1,0,0,,3,0.0018,0,-22,8,1,0,0,0,0,0,95,1,14,second,,,,,,,,,,,,,,,,,,,,,,,,,,,,,,,,,,,,,,,,,,,,,,,,,,,,,,,,,,,,,,,,,,,
,,,,,,611cd816b1ca5d5859eda77f,62bbfb15e1ba36e704ee8728,2022-06-29_09h12.04.278,Colour_Asymmetry_Pilot,2022.1.3,Win32,60.0060006,62bbe60bf3d75ef465d3e404,,,,,,,,,,,,,,,,,,,,onetwo,,-4,1.1848,,,,,,,,,,,,,,,,,,,,,,,,,,,,,,,,,,"[0.11359999999999992,0.6312,0.5213999999999999]","[0.8115999999999999,-0.0040000000000000036,-0.09819999999999995]",-47,92,1,0,0,response7disk,6,4,1,0,0,rectangle,6,4,1,0,0,,1,0.0014,0,6,4,1,0,0,0,1,1,77,1,77,first,,,,,,,,,,,,,,,,,,,,,,,,,,,,,,,,,,,,,,,,,,,,,,,,,,,,,,,,,,,,,,,,,,,
,,,,,,611cd816b1ca5d5859eda77f,62bbfb15e1ba36e704ee8728,2022-06-29_09h12.04.278,Colour_Asymmetry_Pilot,2022.1.3,Win32,60.0060006,62bbe60bf3d75ef465d3e404,,,,,,,,,,,,,,,,,,,,twofour,,-3,6.4985,,,,,,,,,,,,,,,,,,,,,,,,,,,,,,,,,,"[-0.5922000000000001,-0.7492000000000001,-0.5296000000000001]","[0.0351999999999999,0.41159999999999997,0.0038000000000000256]",-89,49,1,0,0,response7disk,14,-7,1,0,0,rectangle,14,-7,1,0,0,,3,0.0012,0,14,-7,1,0,0,0,2,2,106,1,25,second,,,,,,,,,,,,,,,,,,,,,,,,,,,,,,,,,,,,,,,,,,,,,,,,,,,,,,,,,,,,,,,,,,,
,,,,,,611cd816b1ca5d5859eda77f,62bbfb15e1ba36e704ee8728,2022-06-29_09h12.04.278,Colour_Asymmetry_Pilot,2022.1.3,Win32,60.0060006,62bbe60bf3d75ef465d3e404,,,,,,,,,,,,,,,,,,,,threeone,,-3,1.615,,,,,,,,,,,,,,,,,,,,,,,,,,,,,,,,,,"[0.23920000000000008,0.2704,0.16060000000000008]","[-0.4982,-0.2942,-0.0354000000000001]",-77,41,1,0,0,response7disk,11,-9,1,0,0,rectangle,11,-9,1,0,0,,2,0.0008,0,11,-9,1,0,0,0,3,3,15,1,15,first,,,,,,,,,,,,,,,,,,,,,,,,,,,,,,,,,,,,,,,,,,,,,,,,,,,,,,,,,,,,,,,,,,,
,,,,,,611cd816b1ca5d5859eda77f,62bbfb15e1ba36e704ee8728,2022-06-29_09h12.04.278,Colour_Asymmetry_Pilot,2022.1.3,Win32,60.0060006,62bbe60bf3d75ef465d3e404,,,,,,,,,,,,,,,,,,,,threefour,,-2,2.5374,,,,,,,,,,,,,,,,,,,,,,,,,,,,,,,,,,"[-0.9766,-0.6472,0.07440000000000002]","[0.0351999999999999,0.41159999999999997,0.0038000000000000256]",-105,-44,1,0,0,response5disk,14,2,1,0,0,rectangle,14,2,1,0,0,,3,0.0012,0,14,2,1,0,0,0,4,4,73,1,73,first,,,,,,,,,,,,,,,,,,,,,,,,,,,,,,,,,,,,,,,,,,,,,,,,,,,,,,,,,,,,,,,,,,,
,,,,,,611cd816b1ca5d5859eda77f,62bbfb15e1ba36e704ee8728,2022-06-29_09h12.04.278,Colour_Asymmetry_Pilot,2022.1.3,Win32,60.0060006,62bbe60bf3d75ef465d3e404,,,,,,,,,,,,,,,,,,,,twofour,,-4,1.5511,,,,,,,,,,,,,,,,,,,,,,,,,,,,,,,,,,"[-0.9138,-0.5296000000000001,-0.5529999999999999]","[0.7018,0.7176,0.6155999999999999]",-41,81,1,0,0,response7disk,14,-17,1,0,0,rectangle,14,-17,1,0,0,,1,0.001,0,14,-17,1,0,0,0,5,5,140,1,59,second,,,,,,,,,,,,,,,,,,,,,,,,,,,,,,,,,,,,,,,,,,,,,,,,,,,,,,,,,,,,,,,,,,,
,,,,,,611cd816b1ca5d5859eda77f,62bbfb15e1ba36e704ee8728,2022-06-29_09h12.04.278,Colour_Asymmetry_Pilot,2022.1.3,Win32,60.0060006,62bbe60bf3d75ef465d3e404,,,,,,,,,,,,,,,,,,,,fourtwo,,3,1.8185,,,,,,,,,,,,,,,,,,,,,,,,,,,,,,,,,,"[0.37240000000000006,-0.050999999999999934,-0.5216]","[1,0.12939999999999996,-1]",76,64,1,0,0,response1disk,11,9,1,0,0,rectangle,11,9,1,0,0,,1,0.0002,0,11,9,1,0,0,0,6,6,79,1,79,first,,,,,,,,,,,,,,,,,,,,,,,,,,,,,,,,,,,,,,,,,,,,,,,,,,,,,,,,,,,,,,,,,,,
,,,,,,611cd816b1ca5d5859eda77f,62bbfb15e1ba36e704ee8728,2022-06-29_09h12.04.278,Colour_Asymmetry_Pilot,2022.1.3,Win32,60.0060006,62bbe60bf3d75ef465d3e404,,,,,,,,,,,,,,,,,,,,twoone,,1,4.918,,,,,,,,,,,,,,,,,,,,,,,,,,,,,,,,,,"[-0.0040000000000000036,0.02739999999999987,-0.08239999999999992]","[0.8115999999999999,-0.0040000000000000036,-0.09819999999999995]",64,-107,1,0,0,response3disk,23,-7,1,0,0,rectangle,23,-7,1,0,0,,2,0.0008,0,23,-7,1,0,0,0,7,7,9,1,9,first,,,,,,,,,,,,,,,,,,,,,,,,,,,,,,,,,,,,,,,,,,,,,,,,,,,,,,,,,,,,,,,,,,,
,,,,,,611cd816b1ca5d5859eda77f,62bbfb15e1ba36e704ee8728,2022-06-29_09h12.04.278,Colour_Asymmetry_Pilot,2022.1.3,Win32,60.0060006,62bbe60bf3d75ef465d3e404,,,,,,,,,,,,,,,,,,,,twoone,,-3,3.4449,,,,,,,,,,,,,,,,,,,,,,,,,,,,,,,,,,"[0.22340000000000004,-0.9296,-0.7884]","[-0.20799999999999996,-0.655,-0.01980000000000004]",-106,55,1,0,0,response7disk,16,-12,1,0,0,rectangle,16,-12,1,0,0,,1,0.0009,0,16,-12,1,0,0,0,8,8,142,1,61,second,,,,,,,,,,,,,,,,,,,,,,,,,,,,,,,,,,,,,,,,,,,,,,,,,,,,,,,,,,,,,,,,,,,
,,,,,,611cd816b1ca5d5859eda77f,62bbfb15e1ba36e704ee8728,2022-06-29_09h12.04.278,Colour_Asymmetry_Pilot,2022.1.3,Win32,60.0060006,62bbe60bf3d75ef465d3e404,,,,,,,,,,,,,,,,,,,,threefour,,-1,3.3857,,,,,,,,,,,,,,,,,,,,,,,,,,,,,,,,,,"[-0.4902000000000001,0.2704,-0.45899999999999996]","[-0.30200000000000005,0.14500000000000002,0.2784]",-66,-128,1,0,0,response5disk,17,-3,1,0,0,rectangle,17,-3,1,0,0,,2,0.0014,0,17,-3,1,0,0,0,9,9,91,1,10,second,,,,,,,,,,,,,,,,,,,,,,,,,,,,,,,,,,,,,,,,,,,,,,,,,,,,,,,,,,,,,,,,,,,
,,,,,,611cd816b1ca5d5859eda77f,62bbfb15e1ba36e704ee8728,2022-06-29_09h12.04.278,Colour_Asymmetry_Pilot,2022.1.3,Win32,60.0060006,62bbe60bf3d75ef465d3e404,,,,,,,,,,,,,,,,,,,,threeone,,-2,1.1241,,,,,,,,,,,,,,,,,,,,,,,,,,,,,,,,,,"[0.11359999999999992,0.6312,0.5213999999999999]","[0.9763999999999999,-0.1137999999999999,-0.6314]",-83,-43,1,0,0,response5disk,-27,-3,1,0,0,rectangle,-27,-3,1,0,0,,3,0.0012,0,-27,-3,1,0,0,0,10,10,6,1,6,first,,,,,,,,,,,,,,,,,,,,,,,,,,,,,,,,,,,,,,,,,,,,,,,,,,,,,,,,,,,,,,,,,,,
,,,,,,611cd816b1ca5d5859eda77f,62bbfb15e1ba36e704ee8728,2022-06-29_09h12.04.278,Colour_Asymmetry_Pilot,2022.1.3,Win32,60.0060006,62bbe60bf3d75ef465d3e404,,,,,,,,,,,,,,,,,,,,fourtwo,,1,1.6997,,,,,,,,,,,,,,,,,,,,,,,,,,,,,,,,,,"[-0.9688,-0.7412000000000001,-0.4902000000000001]","[-0.9766,-0.34920000000000007,0.2156]",58,-131,1,0,0,response3disk,-22,-1,1,0,0,rectangle,-22,-1,1,0,0,,2,0.0011,0,-22,-1,1,0,0,0,11,11,156,1,75,second,,,,,,,,,,,,,,,,,,,,,,,,,,,,,,,,,,,,,,,,,,,,,,,,,,,,,,,,,,,,,,,,,,,
,,,,,,611cd816b1ca5d5859eda77f,62bbfb15e1ba36e704ee8728,2022-06-29_09h12.04.278,Colour_Asymmetry_Pilot,2022.1.3,Win32,60.0060006,62bbe60bf3d75ef465d3e404,,,,,,,,,,,,,,,,,,,,threeone,,-2,1.3335,,,,,,,,,,,,,,,,,,,,,,,,,,,,,,,,,,"[0.19199999999999995,0.18419999999999992,0.5136000000000001]","[0.23120000000000007,-0.7726,-0.34120000000000006]",-87,-57,1,0,0,response5disk,-9,-16,1,0,0,rectangle,-9,-16,1,0,0,,1,0.0011,0,-9,-16,1,0,0,0,12,12,94,1,13,second,,,,,,,,,,,,,,,,,,,,,,,,,,,,,,,,,,,,,,,,,,,,,,,,,,,,,,,,,,,,,,,,,,,
,,,,,,611cd816b1ca5d5859eda77f,62bbfb15e1ba36e704ee8728,2022-06-29_09h12.04.278,Colour_Asymmetry_Pilot,2022.1.3,Win32,60.0060006,62bbe60bf3d75ef465d3e404,,,,,,,,,,,,,,,,,,,,threeone,,-2,0.6389,,,,,,,,,,,,,,,,,,,,,,,,,,,,,,,,,,"[0.12939999999999996,-0.2864,0.3253999999999999]","[-0.9216,-0.5529999999999999,-0.3962]",-90,-43,1,0,0,response5disk,9,-10,1,0,0,rectangle,9,-10,1,0,0,,1,0.0001,0,9,-10,1,0,0,0,13,13,118,1,37,second,,,,,,,,,,,,,,,,,,,,,,,,,,,,,,,,,,,,,,,,,,,,,,,,,,,,,,,,,,,,,,,,,,,
,,,,,,611cd816b1ca5d5859eda77f,62bbfb15e1ba36e704ee8728,2022-06-29_09h12.04.278,Colour_Asymmetry_Pilot,2022.1.3,Win32,60.0060006,62bbe60bf3d75ef465d3e404,,,,,,,,,,,,,,,,,,,,fourthree,,-4,1.3891,,,,,,,,,,,,,,,,,,,,,,,,,,,,,,,,,,"[0.7176,-0.906,-0.6864]","[-0.9138,-0.5296000000000001,-0.5529999999999999]",-67,103,1,0,0,response7disk,8,12,1,0,0,rectangle,8,12,1,0,0,,3,0.0008,0,8,12,1,0,0,0,14,14,93,1,12,second,,,,,,,,,,,,,,,,,,,,,,,,,,,,,,,,,,,,,,,,,,,,,,,,,,,,,,,,,,,,,,,,,,,
,,,,,,611cd816b1ca5d5859eda77f,62bbfb15e1ba36e704ee8728,2022-06-29_09h12.04.278,Colour_Asymmetry_Pilot,2022.1.3,Win32,60.0060006,62bbe60bf3d75ef465d3e404,,,,,,,,,,,,,,,,,,,,threefour,,-4,0.5686,,,,,,,,,,,,,,,,,,,,,,,,,,,,,,,,,,"[-0.6942,-0.7648,-0.12959999999999994]","[-0.07459999999999989,0.12139999999999995,-0.9922]",-35,76,1,0,0,response7disk,26,-5,1,0,0,rectangle,26,-5,1,0,0,,2,0.0012,0,26,-5,1,0,0,0,15,15,113,1,32,second,,,,,,,,,,,,,,,,,,,,,,,,,,,,,,,,,,,,,,,,,,,,,,,,,,,,,,,,,,,,,,,,,,,
,,,,,,611cd816b1ca5d5859eda77f,62bbfb15e1ba36e704ee8728,2022-06-29_09h12.04.278,Colour_Asymmetry_Pilot,2022.1.3,Win32,60.0060006,62bbe60bf3d75ef465d3e404,,,,,,,,,,,,,,,,,,,,onetwo,,-3,0.8483,,,,,,,,,,,,,,,,,,,,,,,,,,,,,,,,,,"[-0.48240000000000005,0.3175999999999999,0.2156]","[-0.4982,-0.2942,-0.0354000000000001]",-74,43,1,0,0,response7disk,16,-9,1,0,0,rectangle,16,-9,1,0,0,,2,0.0004,0,16,-9,1,0,0,0,16,16,122,1,41,second,,,,,,,,,,,,,,,,,,,,,,,,,,,,,,,,,,,,,,,,,,,,,,,,,,,,,,,,,,,,,,,,,,,
,,,,,,611cd816b1ca5d5859eda77f,62bbfb15e1ba36e704ee8728,2022-06-29_09h12.04.278,Colour_Asymmetry_Pilot,2022.1.3,Win32,60.0060006,62bbe60bf3d75ef465d3e404,,,,,,,,,,,,,,,,,,,,twofour,,-3,0.8251,,,,,,,,,,,,,,,,,,,,,,,,,,,,,,,,,,"[0.11359999999999992,0.6312,0.5213999999999999]","[0.9686000000000001,0.5763999999999998,0.11359999999999992]",-75,36,1,0,0,response7disk,12,-15,1,0,0,rectangle,12,-15,1,0,0,,2,0.0002,0,12,-15,1,0,0,0,17,17,5,1,5,first,,,,,,,,,,,,,,,,,,,,,,,,,,,,,,,,,,,,,,,,,,,,,,,,,,,,,,,,,,,,,,,,,,,
,,,,,,611cd816b1ca5d5859eda77f,62bbfb15e1ba36e704ee8728,2022-06-29_09h12.04.278,Colour_Asymmetry_Pilot,2022.1.3,Win32,60.0060006,62bbe60bf3d75ef465d3e404,,,,,,,,,,,,,,,,,,,,fourtwo,,-3,0.4179,,,,,,,,,,,,,,,,,,,,,,,,,,,,,,,,,,"[-0.8982,-0.37259999999999993,0.2784]","[0.9686000000000001,0.3802000000000001,0.19999999999999996]",-76,46,1,0,0,response7disk,7,-6,1,0,0,rectangle,7,-6,1,0,0,,1,0.0009,0,7,-6,1,0,0,0,18,18,23,1,23,first,,,,,,,,,,,,,,,,,,,,,,,,,,,,,,,,,,,,,,,,,,,,,,,,,,,,,,,,,,,,,,,,,,,
,,,,,,611cd816b1ca5d5859eda77f,62bbfb15e1ba36e704ee8728,2022-06-29_09h12.04.278,Colour_Asymmetry_Pilot,2022.1.3,Win32,60.0060006,62bbe60bf3d75ef465d3e404,,,,,,,,,,,,,,,,,,,,onetwo,,-3,0.4673,,,,,,,,,,,,,,,,,,,,,,,,,,,,,,,,,,"[-0.050999999999999934,-0.6706000000000001,-0.804]","[0.40379999999999994,0.09000000000000008,0.44300000000000006]",-82,41,1,0,0,response7disk,-12,-3,1,0,0,rectangle,-12,-3,1,0,0,,3,0.0009,0,-12,-3,1,0,0,0,19,19,7,1,7,first,,,,,,,,,,,,,,,,,,,,,,,,,,,,,,,,,,,,,,,,,,,,,,,,,,,,,,,,,,,,,,,,,,,
,,,,,,611cd816b1ca5d5859eda77f,62bbfb15e1ba36e704ee8728,2022-06-29_09h12.04.278,Colour_Asymmetry_Pilot,2022.1.3,Win32,60.0060006,62bbe60bf3d75ef465d3e404,,,,,,,,,,,,,,,,,,,,twofour,,-2,0.4674,,,,,,,,,,,,,,,,,,,,,,,,,,,,,,,,,,"[-0.4982,-0.2942,-0.0354000000000001]","[-0.48240000000000005,0.3175999999999999,0.2156]",-70,-47,1,0,0,response5disk,3,-9,1,0,0,rectangle,3,-9,1,0,0,,1,0.0009,0,3,-9,1,0,0,0,20,20,41,1,41,first,,,,,,,,,,,,,,,,,,,,,,,,,,,,,,,,,,,,,,,,,,,,,,,,,,,,,,,,,,,,,,,,,,,
