trials.thisRepN,trials.thisTrialN,trials.thisN,trials.thisIndex,trials.ran,Colourcodes,participant,session,date,expName,psychopyVersion,OS,frameRate,study_id,trials_4.thisRepN,trials_4.thisTrialN,trials_4.thisN,trials_4.thisIndex,trials_4.ran,StimulusPos,key_resp.keys,key_resp.rt,key_resp_2.keys,key_resp_2.rt,key_resp_15.keys,key_resp_15.rt,key_resp_17.keys,key_resp_17.rt,key_resp_9.keys,key_resp_9.rt,key_resp_10.keys,key_resp_10.rt,Circle1_col,Ecc,Circle2_col,similarity,response_time,mouse_5.x,mouse_5.y,mouse_5.leftButton,mouse_5.midButton,mouse_5.rightButton,mouse_5.clicked_name,mouse_10.x,mouse_10.y,mouse_10.leftButton,mouse_10.midButton,mouse_10.rightButton,mouse_10.clicked_name,mouse_7.x,mouse_7.y,mouse_7.leftButton,mouse_7.midButton,mouse_7.rightButton,catchnumberprac,mouse_6.x,mouse_6.y,mouse_6.leftButton,mouse_6.midButton,mouse_6.rightButton,duringprac.thisRepN,duringprac.thisTrialN,duringprac.thisN,duringprac.thisIndex,duringprac.ran,mouse_7.clicked_name,catchprac,mouse_6.clicked_name,key_resp_22.keys,key_resp_22.rt,Circle1_colour,Circle2_colour,mouse.x,mouse.y,mouse.leftButton,mouse.midButton,mouse.rightButton,mouse.clicked_name,mouse_2.x,mouse_2.y,mouse_2.leftButton,mouse_2.midButton,mouse_2.rightButton,mouse_2.clicked_name,mouse_3.x,mouse_3.y,mouse_3.leftButton,mouse_3.midButton,mouse_3.rightButton,catchresponse,catchnumber,response_time_catch,Catch,mouse_11.x,mouse_11.y,mouse_11.leftButton,mouse_11.midButton,mouse_11.rightButton,trials_2.thisRepN,trials_2.thisTrialN,trials_2.thisN,trials_2.thisIndex,trials_2.ran,Colourpair,Temporder,mouse_3.clicked_name,mouse_11.clicked_name,trials_3.thisRepN,trials_3.thisTrialN,trials_3.thisN,trials_3.thisIndex,trials_3.ran,key_resp_instr_Ishi.keys,key_resp_instr_Ishi.rt,Ishi_trial_keyresp.keys,Ishi_trial_keyresp.rt,Ishi_textbox.text,Ishi_loop.thisRepN,Ishi_loop.thisTrialN,Ishi_loop.thisN,Ishi_loop.thisIndex,Ishi_loop.ran,imageaddress,textbox.text,mouse_4.x,mouse_4.y,mouse_4.leftButton,mouse_4.midButton,mouse_4.rightButton,mouse_4.clicked_name,textbox_2.text,mouse_8.x,mouse_8.y,mouse_8.leftButton,mouse_8.midButton,mouse_8.rightButton,mouse_8.clicked_name,textbox_3.text,mouse_9.x,mouse_9.y,mouse_9.leftButton,mouse_9.midButton,mouse_9.rightButton,mouse_9.clicked_name,textbox_4.text,mouse_12.x,mouse_12.y,mouse_12.leftButton,mouse_12.midButton,mouse_12.rightButton,mouse_12.clicked_name,textbox_5.text,mouse_13.x,mouse_13.y,mouse_13.leftButton,mouse_13.midButton,mouse_13.rightButton,mouse_13.clicked_name,textbox_6.text,mouse_14.x,mouse_14.y,mouse_14.leftButton,mouse_14.midButton,mouse_14.rightButton,mouse_14.clicked_name,textbox_7.text,mouse_15.x,mouse_15.y,mouse_15.leftButton,mouse_15.midButton,mouse_15.rightButton,mouse_15.clicked_name
0,0,0,16,1,,60871d7dcbf3bd9bf2c40be8,62bbfa0f76c1b7c44c51f82e,2022-06-29_10h07.18.786,Colour_Asymmetry_Pilot,2022.1.3,Win32,29.94280923,62bbe60bf3d75ef465d3e404,,,,,,,,,,,,,,,,,,,,,,,,,,,,,,,,,,,,,,,,,,,,,,,,,,,,,,,,,,,,,,,,,,,,,,,,,,,,,,,,,,,,,,,,,,,,,,,,,,,,,,,,,,,,,,,,,,,,,,,,,,,,,,,,,,,,,,,,,,,,,,,,,,,,,,,,,,,,,,
0,1,1,30,1,,60871d7dcbf3bd9bf2c40be8,62bbfa0f76c1b7c44c51f82e,2022-06-29_10h07.18.786,Colour_Asymmetry_Pilot,2022.1.3,Win32,29.94280923,62bbe60bf3d75ef465d3e404,,,,,,,,,,,,,,,,,,,,,,,,,,,,,,,,,,,,,,,,,,,,,,,,,,,,,,,,,,,,,,,,,,,,,,,,,,,,,,,,,,,,,,,,,,,,,,,,,,,,,,,,,,,,,,,,,,,,,,,,,,,,,,,,,,,,,,,,,,,,,,,,,,,,,,,,,,,,,,
0,2,2,64,1,,60871d7dcbf3bd9bf2c40be8,62bbfa0f76c1b7c44c51f82e,2022-06-29_10h07.18.786,Colour_Asymmetry_Pilot,2022.1.3,Win32,29.94280923,62bbe60bf3d75ef465d3e404,,,,,,,,,,,,,,,,,,,,,,,,,,,,,,,,,,,,,,,,,,,,,,,,,,,,,,,,,,,,,,,,,,,,,,,,,,,,,,,,,,,,,,,,,,,,,,,,,,,,,,,,,,,,,,,,,,,,,,,,,,,,,,,,,,,,,,,,,,,,,,,,,,,,,,,,,,,,,,
0,3,3,79,1,,60871d7dcbf3bd9bf2c40be8,62bbfa0f76c1b7c44c51f82e,2022-06-29_10h07.18.786,Colour_Asymmetry_Pilot,2022.1.3,Win32,29.94280923,62bbe60bf3d75ef465d3e404,,,,,,,,,,,,,,,,,,,,,,,,,,,,,,,,,,,,,,,,,,,,,,,,,,,,,,,,,,,,,,,,,,,,,,,,,,,,,,,,,,,,,,,,,,,,,,,,,,,,,,,,,,,,,,,,,,,,,,,,,,,,,,,,,,,,,,,,,,,,,,,,,,,,,,,,,,,,,,
0,4,4,24,1,,60871d7dcbf3bd9bf2c40be8,62bbfa0f76c1b7c44c51f82e,2022-06-29_10h07.18.786,Colour_Asymmetry_Pilot,2022.1.3,Win32,29.94280923,62bbe60bf3d75ef465d3e404,,,,,,,,,,,,,,,,,,,,,,,,,,,,,,,,,,,,,,,,,,,,,,,,,,,,,,,,,,,,,,,,,,,,,,,,,,,,,,,,,,,,,,,,,,,,,,,,,,,,,,,,,,,,,,,,,,,,,,,,,,,,,,,,,,,,,,,,,,,,,,,,,,,,,,,,,,,,,,
0,5,5,70,1,,60871d7dcbf3bd9bf2c40be8,62bbfa0f76c1b7c44c51f82e,2022-06-29_10h07.18.786,Colour_Asymmetry_Pilot,2022.1.3,Win32,29.94280923,62bbe60bf3d75ef465d3e404,,,,,,,,,,,,,,,,,,,,,,,,,,,,,,,,,,,,,,,,,,,,,,,,,,,,,,,,,,,,,,,,,,,,,,,,,,,,,,,,,,,,,,,,,,,,,,,,,,,,,,,,,,,,,,,,,,,,,,,,,,,,,,,,,,,,,,,,,,,,,,,,,,,,,,,,,,,,,,
0,6,6,33,1,,60871d7dcbf3bd9bf2c40be8,62bbfa0f76c1b7c44c51f82e,2022-06-29_10h07.18.786,Colour_Asymmetry_Pilot,2022.1.3,Win32,29.94280923,62bbe60bf3d75ef465d3e404,,,,,,,,,,,,,,,,,,,,,,,,,,,,,,,,,,,,,,,,,,,,,,,,,,,,,,,,,,,,,,,,,,,,,,,,,,,,,,,,,,,,,,,,,,,,,,,,,,,,,,,,,,,,,,,,,,,,,,,,,,,,,,,,,,,,,,,,,,,,,,,,,,,,,,,,,,,,,,
0,7,7,54,1,,60871d7dcbf3bd9bf2c40be8,62bbfa0f76c1b7c44c51f82e,2022-06-29_10h07.18.786,Colour_Asymmetry_Pilot,2022.1.3,Win32,29.94280923,62bbe60bf3d75ef465d3e404,,,,,,,,,,,,,,,,,,,,,,,,,,,,,,,,,,,,,,,,,,,,,,,,,,,,,,,,,,,,,,,,,,,,,,,,,,,,,,,,,,,,,,,,,,,,,,,,,,,,,,,,,,,,,,,,,,,,,,,,,,,,,,,,,,,,,,,,,,,,,,,,,,,,,,,,,,,,,,
0,8,8,43,1,,60871d7dcbf3bd9bf2c40be8,62bbfa0f76c1b7c44c51f82e,2022-06-29_10h07.18.786,Colour_Asymmetry_Pilot,2022.1.3,Win32,29.94280923,62bbe60bf3d75ef465d3e404,,,,,,,,,,,,,,,,,,,,,,,,,,,,,,,,,,,,,,,,,,,,,,,,,,,,,,,,,,,,,,,,,,,,,,,,,,,,,,,,,,,,,,,,,,,,,,,,,,,,,,,,,,,,,,,,,,,,,,,,,,,,,,,,,,,,,,,,,,,,,,,,,,,,,,,,,,,,,,
0,9,9,26,1,,60871d7dcbf3bd9bf2c40be8,62bbfa0f76c1b7c44c51f82e,2022-06-29_10h07.18.786,Colour_Asymmetry_Pilot,2022.1.3,Win32,29.94280923,62bbe60bf3d75ef465d3e404,,,,,,,,,,,,,,,,,,,,,,,,,,,,,,,,,,,,,,,,,,,,,,,,,,,,,,,,,,,,,,,,,,,,,,,,,,,,,,,,,,,,,,,,,,,,,,,,,,,,,,,,,,,,,,,,,,,,,,,,,,,,,,,,,,,,,,,,,,,,,,,,,,,,,,,,,,,,,,
0,10,10,29,1,,60871d7dcbf3bd9bf2c40be8,62bbfa0f76c1b7c44c51f82e,2022-06-29_10h07.18.786,Colour_Asymmetry_Pilot,2022.1.3,Win32,29.94280923,62bbe60bf3d75ef465d3e404,,,,,,,,,,,,,,,,,,,,,,,,,,,,,,,,,,,,,,,,,,,,,,,,,,,,,,,,,,,,,,,,,,,,,,,,,,,,,,,,,,,,,,,,,,,,,,,,,,,,,,,,,,,,,,,,,,,,,,,,,,,,,,,,,,,,,,,,,,,,,,,,,,,,,,,,,,,,,,
0,11,11,68,1,,60871d7dcbf3bd9bf2c40be8,62bbfa0f76c1b7c44c51f82e,2022-06-29_10h07.18.786,Colour_Asymmetry_Pilot,2022.1.3,Win32,29.94280923,62bbe60bf3d75ef465d3e404,,,,,,,,,,,,,,,,,,,,,,,,,,,,,,,,,,,,,,,,,,,,,,,,,,,,,,,,,,,,,,,,,,,,,,,,,,,,,,,,,,,,,,,,,,,,,,,,,,,,,,,,,,,,,,,,,,,,,,,,,,,,,,,,,,,,,,,,,,,,,,,,,,,,,,,,,,,,,,
0,12,12,9,1,,60871d7dcbf3bd9bf2c40be8,62bbfa0f76c1b7c44c51f82e,2022-06-29_10h07.18.786,Colour_Asymmetry_Pilot,2022.1.3,Win32,29.94280923,62bbe60bf3d75ef465d3e404,,,,,,,,,,,,,,,,,,,,,,,,,,,,,,,,,,,,,,,,,,,,,,,,,,,,,,,,,,,,,,,,,,,,,,,,,,,,,,,,,,,,,,,,,,,,,,,,,,,,,,,,,,,,,,,,,,,,,,,,,,,,,,,,,,,,,,,,,,,,,,,,,,,,,,,,,,,,,,
0,13,13,41,1,,60871d7dcbf3bd9bf2c40be8,62bbfa0f76c1b7c44c51f82e,2022-06-29_10h07.18.786,Colour_Asymmetry_Pilot,2022.1.3,Win32,29.94280923,62bbe60bf3d75ef465d3e404,,,,,,,,,,,,,,,,,,,,,,,,,,,,,,,,,,,,,,,,,,,,,,,,,,,,,,,,,,,,,,,,,,,,,,,,,,,,,,,,,,,,,,,,,,,,,,,,,,,,,,,,,,,,,,,,,,,,,,,,,,,,,,,,,,,,,,,,,,,,,,,,,,,,,,,,,,,,,,
0,14,14,83,1,,60871d7dcbf3bd9bf2c40be8,62bbfa0f76c1b7c44c51f82e,2022-06-29_10h07.18.786,Colour_Asymmetry_Pilot,2022.1.3,Win32,29.94280923,62bbe60bf3d75ef465d3e404,,,,,,,,,,,,,,,,,,,,,,,,,,,,,,,,,,,,,,,,,,,,,,,,,,,,,,,,,,,,,,,,,,,,,,,,,,,,,,,,,,,,,,,,,,,,,,,,,,,,,,,,,,,,,,,,,,,,,,,,,,,,,,,,,,,,,,,,,,,,,,,,,,,,,,,,,,,,,,
0,15,15,84,1,,60871d7dcbf3bd9bf2c40be8,62bbfa0f76c1b7c44c51f82e,2022-06-29_10h07.18.786,Colour_Asymmetry_Pilot,2022.1.3,Win32,29.94280923,62bbe60bf3d75ef465d3e404,,,,,,,,,,,,,,,,,,,,,,,,,,,,,,,,,,,,,,,,,,,,,,,,,,,,,,,,,,,,,,,,,,,,,,,,,,,,,,,,,,,,,,,,,,,,,,,,,,,,,,,,,,,,,,,,,,,,,,,,,,,,,,,,,,,,,,,,,,,,,,,,,,,,,,,,,,,,,,
0,16,16,72,1,,60871d7dcbf3bd9bf2c40be8,62bbfa0f76c1b7c44c51f82e,2022-06-29_10h07.18.786,Colour_Asymmetry_Pilot,2022.1.3,Win32,29.94280923,62bbe60bf3d75ef465d3e404,,,,,,,,,,,,,,,,,,,,,,,,,,,,,,,,,,,,,,,,,,,,,,,,,,,,,,,,,,,,,,,,,,,,,,,,,,,,,,,,,,,,,,,,,,,,,,,,,,,,,,,,,,,,,,,,,,,,,,,,,,,,,,,,,,,,,,,,,,,,,,,,,,,,,,,,,,,,,,
0,17,17,25,1,,60871d7dcbf3bd9bf2c40be8,62bbfa0f76c1b7c44c51f82e,2022-06-29_10h07.18.786,Colour_Asymmetry_Pilot,2022.1.3,Win32,29.94280923,62bbe60bf3d75ef465d3e404,,,,,,,,,,,,,,,,,,,,,,,,,,,,,,,,,,,,,,,,,,,,,,,,,,,,,,,,,,,,,,,,,,,,,,,,,,,,,,,,,,,,,,,,,,,,,,,,,,,,,,,,,,,,,,,,,,,,,,,,,,,,,,,,,,,,,,,,,,,,,,,,,,,,,,,,,,,,,,
0,18,18,35,1,,60871d7dcbf3bd9bf2c40be8,62bbfa0f76c1b7c44c51f82e,2022-06-29_10h07.18.786,Colour_Asymmetry_Pilot,2022.1.3,Win32,29.94280923,62bbe60bf3d75ef465d3e404,,,,,,,,,,,,,,,,,,,,,,,,,,,,,,,,,,,,,,,,,,,,,,,,,,,,,,,,,,,,,,,,,,,,,,,,,,,,,,,,,,,,,,,,,,,,,,,,,,,,,,,,,,,,,,,,,,,,,,,,,,,,,,,,,,,,,,,,,,,,,,,,,,,,,,,,,,,,,,
0,19,19,53,1,,60871d7dcbf3bd9bf2c40be8,62bbfa0f76c1b7c44c51f82e,2022-06-29_10h07.18.786,Colour_Asymmetry_Pilot,2022.1.3,Win32,29.94280923,62bbe60bf3d75ef465d3e404,,,,,,,,,,,,,,,,,,,,,,,,,,,,,,,,,,,,,,,,,,,,,,,,,,,,,,,,,,,,,,,,,,,,,,,,,,,,,,,,,,,,,,,,,,,,,,,,,,,,,,,,,,,,,,,,,,,,,,,,,,,,,,,,,,,,,,,,,,,,,,,,,,,,,,,,,,,,,,
0,20,20,11,1,,60871d7dcbf3bd9bf2c40be8,62bbfa0f76c1b7c44c51f82e,2022-06-29_10h07.18.786,Colour_Asymmetry_Pilot,2022.1.3,Win32,29.94280923,62bbe60bf3d75ef465d3e404,,,,,,,,,,,,,,,,,,,,,,,,,,,,,,,,,,,,,,,,,,,,,,,,,,,,,,,,,,,,,,,,,,,,,,,,,,,,,,,,,,,,,,,,,,,,,,,,,,,,,,,,,,,,,,,,,,,,,,,,,,,,,,,,,,,,,,,,,,,,,,,,,,,,,,,,,,,,,,
0,21,21,6,1,,60871d7dcbf3bd9bf2c40be8,62bbfa0f76c1b7c44c51f82e,2022-06-29_10h07.18.786,Colour_Asymmetry_Pilot,2022.1.3,Win32,29.94280923,62bbe60bf3d75ef465d3e404,,,,,,,,,,,,,,,,,,,,,,,,,,,,,,,,,,,,,,,,,,,,,,,,,,,,,,,,,,,,,,,,,,,,,,,,,,,,,,,,,,,,,,,,,,,,,,,,,,,,,,,,,,,,,,,,,,,,,,,,,,,,,,,,,,,,,,,,,,,,,,,,,,,,,,,,,,,,,,
0,22,22,4,1,,60871d7dcbf3bd9bf2c40be8,62bbfa0f76c1b7c44c51f82e,2022-06-29_10h07.18.786,Colour_Asymmetry_Pilot,2022.1.3,Win32,29.94280923,62bbe60bf3d75ef465d3e404,,,,,,,,,,,,,,,,,,,,,,,,,,,,,,,,,,,,,,,,,,,,,,,,,,,,,,,,,,,,,,,,,,,,,,,,,,,,,,,,,,,,,,,,,,,,,,,,,,,,,,,,,,,,,,,,,,,,,,,,,,,,,,,,,,,,,,,,,,,,,,,,,,,,,,,,,,,,,,
0,23,23,74,1,,60871d7dcbf3bd9bf2c40be8,62bbfa0f76c1b7c44c51f82e,2022-06-29_10h07.18.786,Colour_Asymmetry_Pilot,2022.1.3,Win32,29.94280923,62bbe60bf3d75ef465d3e404,,,,,,,,,,,,,,,,,,,,,,,,,,,,,,,,,,,,,,,,,,,,,,,,,,,,,,,,,,,,,,,,,,,,,,,,,,,,,,,,,,,,,,,,,,,,,,,,,,,,,,,,,,,,,,,,,,,,,,,,,,,,,,,,,,,,,,,,,,,,,,,,,,,,,,,,,,,,,,
0,24,24,56,1,,60871d7dcbf3bd9bf2c40be8,62bbfa0f76c1b7c44c51f82e,2022-06-29_10h07.18.786,Colour_Asymmetry_Pilot,2022.1.3,Win32,29.94280923,62bbe60bf3d75ef465d3e404,,,,,,,,,,,,,,,,,,,,,,,,,,,,,,,,,,,,,,,,,,,,,,,,,,,,,,,,,,,,,,,,,,,,,,,,,,,,,,,,,,,,,,,,,,,,,,,,,,,,,,,,,,,,,,,,,,,,,,,,,,,,,,,,,,,,,,,,,,,,,,,,,,,,,,,,,,,,,,
0,25,25,1,1,,60871d7dcbf3bd9bf2c40be8,62bbfa0f76c1b7c44c51f82e,2022-06-29_10h07.18.786,Colour_Asymmetry_Pilot,2022.1.3,Win32,29.94280923,62bbe60bf3d75ef465d3e404,,,,,,,,,,,,,,,,,,,,,,,,,,,,,,,,,,,,,,,,,,,,,,,,,,,,,,,,,,,,,,,,,,,,,,,,,,,,,,,,,,,,,,,,,,,,,,,,,,,,,,,,,,,,,,,,,,,,,,,,,,,,,,,,,,,,,,,,,,,,,,,,,,,,,,,,,,,,,,
0,26,26,73,1,,60871d7dcbf3bd9bf2c40be8,62bbfa0f76c1b7c44c51f82e,2022-06-29_10h07.18.786,Colour_Asymmetry_Pilot,2022.1.3,Win32,29.94280923,62bbe60bf3d75ef465d3e404,,,,,,,,,,,,,,,,,,,,,,,,,,,,,,,,,,,,,,,,,,,,,,,,,,,,,,,,,,,,,,,,,,,,,,,,,,,,,,,,,,,,,,,,,,,,,,,,,,,,,,,,,,,,,,,,,,,,,,,,,,,,,,,,,,,,,,,,,,,,,,,,,,,,,,,,,,,,,,
0,27,27,7,1,,60871d7dcbf3bd9bf2c40be8,62bbfa0f76c1b7c44c51f82e,2022-06-29_10h07.18.786,Colour_Asymmetry_Pilot,2022.1.3,Win32,29.94280923,62bbe60bf3d75ef465d3e404,,,,,,,,,,,,,,,,,,,,,,,,,,,,,,,,,,,,,,,,,,,,,,,,,,,,,,,,,,,,,,,,,,,,,,,,,,,,,,,,,,,,,,,,,,,,,,,,,,,,,,,,,,,,,,,,,,,,,,,,,,,,,,,,,,,,,,,,,,,,,,,,,,,,,,,,,,,,,,
0,28,28,15,1,,60871d7dcbf3bd9bf2c40be8,62bbfa0f76c1b7c44c51f82e,2022-06-29_10h07.18.786,Colour_Asymmetry_Pilot,2022.1.3,Win32,29.94280923,62bbe60bf3d75ef465d3e404,,,,,,,,,,,,,,,,,,,,,,,,,,,,,,,,,,,,,,,,,,,,,,,,,,,,,,,,,,,,,,,,,,,,,,,,,,,,,,,,,,,,,,,,,,,,,,,,,,,,,,,,,,,,,,,,,,,,,,,,,,,,,,,,,,,,,,,,,,,,,,,,,,,,,,,,,,,,,,
0,29,29,10,1,,60871d7dcbf3bd9bf2c40be8,62bbfa0f76c1b7c44c51f82e,2022-06-29_10h07.18.786,Colour_Asymmetry_Pilot,2022.1.3,Win32,29.94280923,62bbe60bf3d75ef465d3e404,,,,,,,,,,,,,,,,,,,,,,,,,,,,,,,,,,,,,,,,,,,,,,,,,,,,,,,,,,,,,,,,,,,,,,,,,,,,,,,,,,,,,,,,,,,,,,,,,,,,,,,,,,,,,,,,,,,,,,,,,,,,,,,,,,,,,,,,,,,,,,,,,,,,,,,,,,,,,,
0,30,30,42,1,,60871d7dcbf3bd9bf2c40be8,62bbfa0f76c1b7c44c51f82e,2022-06-29_10h07.18.786,Colour_Asymmetry_Pilot,2022.1.3,Win32,29.94280923,62bbe60bf3d75ef465d3e404,,,,,,,,,,,,,,,,,,,,,,,,,,,,,,,,,,,,,,,,,,,,,,,,,,,,,,,,,,,,,,,,,,,,,,,,,,,,,,,,,,,,,,,,,,,,,,,,,,,,,,,,,,,,,,,,,,,,,,,,,,,,,,,,,,,,,,,,,,,,,,,,,,,,,,,,,,,,,,
0,31,31,91,1,,60871d7dcbf3bd9bf2c40be8,62bbfa0f76c1b7c44c51f82e,2022-06-29_10h07.18.786,Colour_Asymmetry_Pilot,2022.1.3,Win32,29.94280923,62bbe60bf3d75ef465d3e404,,,,,,,,,,,,,,,,,,,,,,,,,,,,,,,,,,,,,,,,,,,,,,,,,,,,,,,,,,,,,,,,,,,,,,,,,,,,,,,,,,,,,,,,,,,,,,,,,,,,,,,,,,,,,,,,,,,,,,,,,,,,,,,,,,,,,,,,,,,,,,,,,,,,,,,,,,,,,,
0,32,32,82,1,,60871d7dcbf3bd9bf2c40be8,62bbfa0f76c1b7c44c51f82e,2022-06-29_10h07.18.786,Colour_Asymmetry_Pilot,2022.1.3,Win32,29.94280923,62bbe60bf3d75ef465d3e404,,,,,,,,,,,,,,,,,,,,,,,,,,,,,,,,,,,,,,,,,,,,,,,,,,,,,,,,,,,,,,,,,,,,,,,,,,,,,,,,,,,,,,,,,,,,,,,,,,,,,,,,,,,,,,,,,,,,,,,,,,,,,,,,,,,,,,,,,,,,,,,,,,,,,,,,,,,,,,
0,33,33,80,1,,60871d7dcbf3bd9bf2c40be8,62bbfa0f76c1b7c44c51f82e,2022-06-29_10h07.18.786,Colour_Asymmetry_Pilot,2022.1.3,Win32,29.94280923,62bbe60bf3d75ef465d3e404,,,,,,,,,,,,,,,,,,,,,,,,,,,,,,,,,,,,,,,,,,,,,,,,,,,,,,,,,,,,,,,,,,,,,,,,,,,,,,,,,,,,,,,,,,,,,,,,,,,,,,,,,,,,,,,,,,,,,,,,,,,,,,,,,,,,,,,,,,,,,,,,,,,,,,,,,,,,,,
0,34,34,48,1,,60871d7dcbf3bd9bf2c40be8,62bbfa0f76c1b7c44c51f82e,2022-06-29_10h07.18.786,Colour_Asymmetry_Pilot,2022.1.3,Win32,29.94280923,62bbe60bf3d75ef465d3e404,,,,,,,,,,,,,,,,,,,,,,,,,,,,,,,,,,,,,,,,,,,,,,,,,,,,,,,,,,,,,,,,,,,,,,,,,,,,,,,,,,,,,,,,,,,,,,,,,,,,,,,,,,,,,,,,,,,,,,,,,,,,,,,,,,,,,,,,,,,,,,,,,,,,,,,,,,,,,,
0,35,35,49,1,,60871d7dcbf3bd9bf2c40be8,62bbfa0f76c1b7c44c51f82e,2022-06-29_10h07.18.786,Colour_Asymmetry_Pilot,2022.1.3,Win32,29.94280923,62bbe60bf3d75ef465d3e404,,,,,,,,,,,,,,,,,,,,,,,,,,,,,,,,,,,,,,,,,,,,,,,,,,,,,,,,,,,,,,,,,,,,,,,,,,,,,,,,,,,,,,,,,,,,,,,,,,,,,,,,,,,,,,,,,,,,,,,,,,,,,,,,,,,,,,,,,,,,,,,,,,,,,,,,,,,,,,
0,36,36,17,1,,60871d7dcbf3bd9bf2c40be8,62bbfa0f76c1b7c44c51f82e,2022-06-29_10h07.18.786,Colour_Asymmetry_Pilot,2022.1.3,Win32,29.94280923,62bbe60bf3d75ef465d3e404,,,,,,,,,,,,,,,,,,,,,,,,,,,,,,,,,,,,,,,,,,,,,,,,,,,,,,,,,,,,,,,,,,,,,,,,,,,,,,,,,,,,,,,,,,,,,,,,,,,,,,,,,,,,,,,,,,,,,,,,,,,,,,,,,,,,,,,,,,,,,,,,,,,,,,,,,,,,,,
0,37,37,58,1,,60871d7dcbf3bd9bf2c40be8,62bbfa0f76c1b7c44c51f82e,2022-06-29_10h07.18.786,Colour_Asymmetry_Pilot,2022.1.3,Win32,29.94280923,62bbe60bf3d75ef465d3e404,,,,,,,,,,,,,,,,,,,,,,,,,,,,,,,,,,,,,,,,,,,,,,,,,,,,,,,,,,,,,,,,,,,,,,,,,,,,,,,,,,,,,,,,,,,,,,,,,,,,,,,,,,,,,,,,,,,,,,,,,,,,,,,,,,,,,,,,,,,,,,,,,,,,,,,,,,,,,,
0,38,38,75,1,,60871d7dcbf3bd9bf2c40be8,62bbfa0f76c1b7c44c51f82e,2022-06-29_10h07.18.786,Colour_Asymmetry_Pilot,2022.1.3,Win32,29.94280923,62bbe60bf3d75ef465d3e404,,,,,,,,,,,,,,,,,,,,,,,,,,,,,,,,,,,,,,,,,,,,,,,,,,,,,,,,,,,,,,,,,,,,,,,,,,,,,,,,,,,,,,,,,,,,,,,,,,,,,,,,,,,,,,,,,,,,,,,,,,,,,,,,,,,,,,,,,,,,,,,,,,,,,,,,,,,,,,
0,39,39,34,1,,60871d7dcbf3bd9bf2c40be8,62bbfa0f76c1b7c44c51f82e,2022-06-29_10h07.18.786,Colour_Asymmetry_Pilot,2022.1.3,Win32,29.94280923,62bbe60bf3d75ef465d3e404,,,,,,,,,,,,,,,,,,,,,,,,,,,,,,,,,,,,,,,,,,,,,,,,,,,,,,,,,,,,,,,,,,,,,,,,,,,,,,,,,,,,,,,,,,,,,,,,,,,,,,,,,,,,,,,,,,,,,,,,,,,,,,,,,,,,,,,,,,,,,,,,,,,,,,,,,,,,,,
0,40,40,12,1,,60871d7dcbf3bd9bf2c40be8,62bbfa0f76c1b7c44c51f82e,2022-06-29_10h07.18.786,Colour_Asymmetry_Pilot,2022.1.3,Win32,29.94280923,62bbe60bf3d75ef465d3e404,,,,,,,,,,,,,,,,,,,,,,,,,,,,,,,,,,,,,,,,,,,,,,,,,,,,,,,,,,,,,,,,,,,,,,,,,,,,,,,,,,,,,,,,,,,,,,,,,,,,,,,,,,,,,,,,,,,,,,,,,,,,,,,,,,,,,,,,,,,,,,,,,,,,,,,,,,,,,,
0,41,41,65,1,,60871d7dcbf3bd9bf2c40be8,62bbfa0f76c1b7c44c51f82e,2022-06-29_10h07.18.786,Colour_Asymmetry_Pilot,2022.1.3,Win32,29.94280923,62bbe60bf3d75ef465d3e404,,,,,,,,,,,,,,,,,,,,,,,,,,,,,,,,,,,,,,,,,,,,,,,,,,,,,,,,,,,,,,,,,,,,,,,,,,,,,,,,,,,,,,,,,,,,,,,,,,,,,,,,,,,,,,,,,,,,,,,,,,,,,,,,,,,,,,,,,,,,,,,,,,,,,,,,,,,,,,
0,42,42,8,1,,60871d7dcbf3bd9bf2c40be8,62bbfa0f76c1b7c44c51f82e,2022-06-29_10h07.18.786,Colour_Asymmetry_Pilot,2022.1.3,Win32,29.94280923,62bbe60bf3d75ef465d3e404,,,,,,,,,,,,,,,,,,,,,,,,,,,,,,,,,,,,,,,,,,,,,,,,,,,,,,,,,,,,,,,,,,,,,,,,,,,,,,,,,,,,,,,,,,,,,,,,,,,,,,,,,,,,,,,,,,,,,,,,,,,,,,,,,,,,,,,,,,,,,,,,,,,,,,,,,,,,,,
0,43,43,38,1,,60871d7dcbf3bd9bf2c40be8,62bbfa0f76c1b7c44c51f82e,2022-06-29_10h07.18.786,Colour_Asymmetry_Pilot,2022.1.3,Win32,29.94280923,62bbe60bf3d75ef465d3e404,,,,,,,,,,,,,,,,,,,,,,,,,,,,,,,,,,,,,,,,,,,,,,,,,,,,,,,,,,,,,,,,,,,,,,,,,,,,,,,,,,,,,,,,,,,,,,,,,,,,,,,,,,,,,,,,,,,,,,,,,,,,,,,,,,,,,,,,,,,,,,,,,,,,,,,,,,,,,,
0,44,44,0,1,,60871d7dcbf3bd9bf2c40be8,62bbfa0f76c1b7c44c51f82e,2022-06-29_10h07.18.786,Colour_Asymmetry_Pilot,2022.1.3,Win32,29.94280923,62bbe60bf3d75ef465d3e404,,,,,,,,,,,,,,,,,,,,,,,,,,,,,,,,,,,,,,,,,,,,,,,,,,,,,,,,,,,,,,,,,,,,,,,,,,,,,,,,,,,,,,,,,,,,,,,,,,,,,,,,,,,,,,,,,,,,,,,,,,,,,,,,,,,,,,,,,,,,,,,,,,,,,,,,,,,,,,
0,45,45,86,1,,60871d7dcbf3bd9bf2c40be8,62bbfa0f76c1b7c44c51f82e,2022-06-29_10h07.18.786,Colour_Asymmetry_Pilot,2022.1.3,Win32,29.94280923,62bbe60bf3d75ef465d3e404,,,,,,,,,,,,,,,,,,,,,,,,,,,,,,,,,,,,,,,,,,,,,,,,,,,,,,,,,,,,,,,,,,,,,,,,,,,,,,,,,,,,,,,,,,,,,,,,,,,,,,,,,,,,,,,,,,,,,,,,,,,,,,,,,,,,,,,,,,,,,,,,,,,,,,,,,,,,,,
0,46,46,89,1,,60871d7dcbf3bd9bf2c40be8,62bbfa0f76c1b7c44c51f82e,2022-06-29_10h07.18.786,Colour_Asymmetry_Pilot,2022.1.3,Win32,29.94280923,62bbe60bf3d75ef465d3e404,,,,,,,,,,,,,,,,,,,,,,,,,,,,,,,,,,,,,,,,,,,,,,,,,,,,,,,,,,,,,,,,,,,,,,,,,,,,,,,,,,,,,,,,,,,,,,,,,,,,,,,,,,,,,,,,,,,,,,,,,,,,,,,,,,,,,,,,,,,,,,,,,,,,,,,,,,,,,,
0,47,47,13,1,,60871d7dcbf3bd9bf2c40be8,62bbfa0f76c1b7c44c51f82e,2022-06-29_10h07.18.786,Colour_Asymmetry_Pilot,2022.1.3,Win32,29.94280923,62bbe60bf3d75ef465d3e404,,,,,,,,,,,,,,,,,,,,,,,,,,,,,,,,,,,,,,,,,,,,,,,,,,,,,,,,,,,,,,,,,,,,,,,,,,,,,,,,,,,,,,,,,,,,,,,,,,,,,,,,,,,,,,,,,,,,,,,,,,,,,,,,,,,,,,,,,,,,,,,,,,,,,,,,,,,,,,
0,48,48,3,1,,60871d7dcbf3bd9bf2c40be8,62bbfa0f76c1b7c44c51f82e,2022-06-29_10h07.18.786,Colour_Asymmetry_Pilot,2022.1.3,Win32,29.94280923,62bbe60bf3d75ef465d3e404,,,,,,,,,,,,,,,,,,,,,,,,,,,,,,,,,,,,,,,,,,,,,,,,,,,,,,,,,,,,,,,,,,,,,,,,,,,,,,,,,,,,,,,,,,,,,,,,,,,,,,,,,,,,,,,,,,,,,,,,,,,,,,,,,,,,,,,,,,,,,,,,,,,,,,,,,,,,,,
0,49,49,46,1,,60871d7dcbf3bd9bf2c40be8,62bbfa0f76c1b7c44c51f82e,2022-06-29_10h07.18.786,Colour_Asymmetry_Pilot,2022.1.3,Win32,29.94280923,62bbe60bf3d75ef465d3e404,,,,,,,,,,,,,,,,,,,,,,,,,,,,,,,,,,,,,,,,,,,,,,,,,,,,,,,,,,,,,,,,,,,,,,,,,,,,,,,,,,,,,,,,,,,,,,,,,,,,,,,,,,,,,,,,,,,,,,,,,,,,,,,,,,,,,,,,,,,,,,,,,,,,,,,,,,,,,,
0,50,50,20,1,,60871d7dcbf3bd9bf2c40be8,62bbfa0f76c1b7c44c51f82e,2022-06-29_10h07.18.786,Colour_Asymmetry_Pilot,2022.1.3,Win32,29.94280923,62bbe60bf3d75ef465d3e404,,,,,,,,,,,,,,,,,,,,,,,,,,,,,,,,,,,,,,,,,,,,,,,,,,,,,,,,,,,,,,,,,,,,,,,,,,,,,,,,,,,,,,,,,,,,,,,,,,,,,,,,,,,,,,,,,,,,,,,,,,,,,,,,,,,,,,,,,,,,,,,,,,,,,,,,,,,,,,
0,51,51,5,1,,60871d7dcbf3bd9bf2c40be8,62bbfa0f76c1b7c44c51f82e,2022-06-29_10h07.18.786,Colour_Asymmetry_Pilot,2022.1.3,Win32,29.94280923,62bbe60bf3d75ef465d3e404,,,,,,,,,,,,,,,,,,,,,,,,,,,,,,,,,,,,,,,,,,,,,,,,,,,,,,,,,,,,,,,,,,,,,,,,,,,,,,,,,,,,,,,,,,,,,,,,,,,,,,,,,,,,,,,,,,,,,,,,,,,,,,,,,,,,,,,,,,,,,,,,,,,,,,,,,,,,,,
0,52,52,27,1,,60871d7dcbf3bd9bf2c40be8,62bbfa0f76c1b7c44c51f82e,2022-06-29_10h07.18.786,Colour_Asymmetry_Pilot,2022.1.3,Win32,29.94280923,62bbe60bf3d75ef465d3e404,,,,,,,,,,,,,,,,,,,,,,,,,,,,,,,,,,,,,,,,,,,,,,,,,,,,,,,,,,,,,,,,,,,,,,,,,,,,,,,,,,,,,,,,,,,,,,,,,,,,,,,,,,,,,,,,,,,,,,,,,,,,,,,,,,,,,,,,,,,,,,,,,,,,,,,,,,,,,,
0,53,53,60,1,,60871d7dcbf3bd9bf2c40be8,62bbfa0f76c1b7c44c51f82e,2022-06-29_10h07.18.786,Colour_Asymmetry_Pilot,2022.1.3,Win32,29.94280923,62bbe60bf3d75ef465d3e404,,,,,,,,,,,,,,,,,,,,,,,,,,,,,,,,,,,,,,,,,,,,,,,,,,,,,,,,,,,,,,,,,,,,,,,,,,,,,,,,,,,,,,,,,,,,,,,,,,,,,,,,,,,,,,,,,,,,,,,,,,,,,,,,,,,,,,,,,,,,,,,,,,,,,,,,,,,,,,
0,54,54,51,1,,60871d7dcbf3bd9bf2c40be8,62bbfa0f76c1b7c44c51f82e,2022-06-29_10h07.18.786,Colour_Asymmetry_Pilot,2022.1.3,Win32,29.94280923,62bbe60bf3d75ef465d3e404,,,,,,,,,,,,,,,,,,,,,,,,,,,,,,,,,,,,,,,,,,,,,,,,,,,,,,,,,,,,,,,,,,,,,,,,,,,,,,,,,,,,,,,,,,,,,,,,,,,,,,,,,,,,,,,,,,,,,,,,,,,,,,,,,,,,,,,,,,,,,,,,,,,,,,,,,,,,,,
0,55,55,2,1,,60871d7dcbf3bd9bf2c40be8,62bbfa0f76c1b7c44c51f82e,2022-06-29_10h07.18.786,Colour_Asymmetry_Pilot,2022.1.3,Win32,29.94280923,62bbe60bf3d75ef465d3e404,,,,,,,,,,,,,,,,,,,,,,,,,,,,,,,,,,,,,,,,,,,,,,,,,,,,,,,,,,,,,,,,,,,,,,,,,,,,,,,,,,,,,,,,,,,,,,,,,,,,,,,,,,,,,,,,,,,,,,,,,,,,,,,,,,,,,,,,,,,,,,,,,,,,,,,,,,,,,,
0,56,56,28,1,,60871d7dcbf3bd9bf2c40be8,62bbfa0f76c1b7c44c51f82e,2022-06-29_10h07.18.786,Colour_Asymmetry_Pilot,2022.1.3,Win32,29.94280923,62bbe60bf3d75ef465d3e404,,,,,,,,,,,,,,,,,,,,,,,,,,,,,,,,,,,,,,,,,,,,,,,,,,,,,,,,,,,,,,,,,,,,,,,,,,,,,,,,,,,,,,,,,,,,,,,,,,,,,,,,,,,,,,,,,,,,,,,,,,,,,,,,,,,,,,,,,,,,,,,,,,,,,,,,,,,,,,
0,57,57,21,1,,60871d7dcbf3bd9bf2c40be8,62bbfa0f76c1b7c44c51f82e,2022-06-29_10h07.18.786,Colour_Asymmetry_Pilot,2022.1.3,Win32,29.94280923,62bbe60bf3d75ef465d3e404,,,,,,,,,,,,,,,,,,,,,,,,,,,,,,,,,,,,,,,,,,,,,,,,,,,,,,,,,,,,,,,,,,,,,,,,,,,,,,,,,,,,,,,,,,,,,,,,,,,,,,,,,,,,,,,,,,,,,,,,,,,,,,,,,,,,,,,,,,,,,,,,,,,,,,,,,,,,,,
0,58,58,57,1,,60871d7dcbf3bd9bf2c40be8,62bbfa0f76c1b7c44c51f82e,2022-06-29_10h07.18.786,Colour_Asymmetry_Pilot,2022.1.3,Win32,29.94280923,62bbe60bf3d75ef465d3e404,,,,,,,,,,,,,,,,,,,,,,,,,,,,,,,,,,,,,,,,,,,,,,,,,,,,,,,,,,,,,,,,,,,,,,,,,,,,,,,,,,,,,,,,,,,,,,,,,,,,,,,,,,,,,,,,,,,,,,,,,,,,,,,,,,,,,,,,,,,,,,,,,,,,,,,,,,,,,,
0,59,59,44,1,,60871d7dcbf3bd9bf2c40be8,62bbfa0f76c1b7c44c51f82e,2022-06-29_10h07.18.786,Colour_Asymmetry_Pilot,2022.1.3,Win32,29.94280923,62bbe60bf3d75ef465d3e404,,,,,,,,,,,,,,,,,,,,,,,,,,,,,,,,,,,,,,,,,,,,,,,,,,,,,,,,,,,,,,,,,,,,,,,,,,,,,,,,,,,,,,,,,,,,,,,,,,,,,,,,,,,,,,,,,,,,,,,,,,,,,,,,,,,,,,,,,,,,,,,,,,,,,,,,,,,,,,
0,60,60,55,1,,60871d7dcbf3bd9bf2c40be8,62bbfa0f76c1b7c44c51f82e,2022-06-29_10h07.18.786,Colour_Asymmetry_Pilot,2022.1.3,Win32,29.94280923,62bbe60bf3d75ef465d3e404,,,,,,,,,,,,,,,,,,,,,,,,,,,,,,,,,,,,,,,,,,,,,,,,,,,,,,,,,,,,,,,,,,,,,,,,,,,,,,,,,,,,,,,,,,,,,,,,,,,,,,,,,,,,,,,,,,,,,,,,,,,,,,,,,,,,,,,,,,,,,,,,,,,,,,,,,,,,,,
0,61,61,78,1,,60871d7dcbf3bd9bf2c40be8,62bbfa0f76c1b7c44c51f82e,2022-06-29_10h07.18.786,Colour_Asymmetry_Pilot,2022.1.3,Win32,29.94280923,62bbe60bf3d75ef465d3e404,,,,,,,,,,,,,,,,,,,,,,,,,,,,,,,,,,,,,,,,,,,,,,,,,,,,,,,,,,,,,,,,,,,,,,,,,,,,,,,,,,,,,,,,,,,,,,,,,,,,,,,,,,,,,,,,,,,,,,,,,,,,,,,,,,,,,,,,,,,,,,,,,,,,,,,,,,,,,,
0,62,62,71,1,,60871d7dcbf3bd9bf2c40be8,62bbfa0f76c1b7c44c51f82e,2022-06-29_10h07.18.786,Colour_Asymmetry_Pilot,2022.1.3,Win32,29.94280923,62bbe60bf3d75ef465d3e404,,,,,,,,,,,,,,,,,,,,,,,,,,,,,,,,,,,,,,,,,,,,,,,,,,,,,,,,,,,,,,,,,,,,,,,,,,,,,,,,,,,,,,,,,,,,,,,,,,,,,,,,,,,,,,,,,,,,,,,,,,,,,,,,,,,,,,,,,,,,,,,,,,,,,,,,,,,,,,
0,63,63,23,1,,60871d7dcbf3bd9bf2c40be8,62bbfa0f76c1b7c44c51f82e,2022-06-29_10h07.18.786,Colour_Asymmetry_Pilot,2022.1.3,Win32,29.94280923,62bbe60bf3d75ef465d3e404,,,,,,,,,,,,,,,,,,,,,,,,,,,,,,,,,,,,,,,,,,,,,,,,,,,,,,,,,,,,,,,,,,,,,,,,,,,,,,,,,,,,,,,,,,,,,,,,,,,,,,,,,,,,,,,,,,,,,,,,,,,,,,,,,,,,,,,,,,,,,,,,,,,,,,,,,,,,,,
0,64,64,76,1,,60871d7dcbf3bd9bf2c40be8,62bbfa0f76c1b7c44c51f82e,2022-06-29_10h07.18.786,Colour_Asymmetry_Pilot,2022.1.3,Win32,29.94280923,62bbe60bf3d75ef465d3e404,,,,,,,,,,,,,,,,,,,,,,,,,,,,,,,,,,,,,,,,,,,,,,,,,,,,,,,,,,,,,,,,,,,,,,,,,,,,,,,,,,,,,,,,,,,,,,,,,,,,,,,,,,,,,,,,,,,,,,,,,,,,,,,,,,,,,,,,,,,,,,,,,,,,,,,,,,,,,,
0,65,65,18,1,,60871d7dcbf3bd9bf2c40be8,62bbfa0f76c1b7c44c51f82e,2022-06-29_10h07.18.786,Colour_Asymmetry_Pilot,2022.1.3,Win32,29.94280923,62bbe60bf3d75ef465d3e404,,,,,,,,,,,,,,,,,,,,,,,,,,,,,,,,,,,,,,,,,,,,,,,,,,,,,,,,,,,,,,,,,,,,,,,,,,,,,,,,,,,,,,,,,,,,,,,,,,,,,,,,,,,,,,,,,,,,,,,,,,,,,,,,,,,,,,,,,,,,,,,,,,,,,,,,,,,,,,
0,66,66,62,1,,60871d7dcbf3bd9bf2c40be8,62bbfa0f76c1b7c44c51f82e,2022-06-29_10h07.18.786,Colour_Asymmetry_Pilot,2022.1.3,Win32,29.94280923,62bbe60bf3d75ef465d3e404,,,,,,,,,,,,,,,,,,,,,,,,,,,,,,,,,,,,,,,,,,,,,,,,,,,,,,,,,,,,,,,,,,,,,,,,,,,,,,,,,,,,,,,,,,,,,,,,,,,,,,,,,,,,,,,,,,,,,,,,,,,,,,,,,,,,,,,,,,,,,,,,,,,,,,,,,,,,,,
0,67,67,87,1,,60871d7dcbf3bd9bf2c40be8,62bbfa0f76c1b7c44c51f82e,2022-06-29_10h07.18.786,Colour_Asymmetry_Pilot,2022.1.3,Win32,29.94280923,62bbe60bf3d75ef465d3e404,,,,,,,,,,,,,,,,,,,,,,,,,,,,,,,,,,,,,,,,,,,,,,,,,,,,,,,,,,,,,,,,,,,,,,,,,,,,,,,,,,,,,,,,,,,,,,,,,,,,,,,,,,,,,,,,,,,,,,,,,,,,,,,,,,,,,,,,,,,,,,,,,,,,,,,,,,,,,,
0,68,68,45,1,,60871d7dcbf3bd9bf2c40be8,62bbfa0f76c1b7c44c51f82e,2022-06-29_10h07.18.786,Colour_Asymmetry_Pilot,2022.1.3,Win32,29.94280923,62bbe60bf3d75ef465d3e404,,,,,,,,,,,,,,,,,,,,,,,,,,,,,,,,,,,,,,,,,,,,,,,,,,,,,,,,,,,,,,,,,,,,,,,,,,,,,,,,,,,,,,,,,,,,,,,,,,,,,,,,,,,,,,,,,,,,,,,,,,,,,,,,,,,,,,,,,,,,,,,,,,,,,,,,,,,,,,
0,69,69,88,1,,60871d7dcbf3bd9bf2c40be8,62bbfa0f76c1b7c44c51f82e,2022-06-29_10h07.18.786,Colour_Asymmetry_Pilot,2022.1.3,Win32,29.94280923,62bbe60bf3d75ef465d3e404,,,,,,,,,,,,,,,,,,,,,,,,,,,,,,,,,,,,,,,,,,,,,,,,,,,,,,,,,,,,,,,,,,,,,,,,,,,,,,,,,,,,,,,,,,,,,,,,,,,,,,,,,,,,,,,,,,,,,,,,,,,,,,,,,,,,,,,,,,,,,,,,,,,,,,,,,,,,,,
0,70,70,22,1,,60871d7dcbf3bd9bf2c40be8,62bbfa0f76c1b7c44c51f82e,2022-06-29_10h07.18.786,Colour_Asymmetry_Pilot,2022.1.3,Win32,29.94280923,62bbe60bf3d75ef465d3e404,,,,,,,,,,,,,,,,,,,,,,,,,,,,,,,,,,,,,,,,,,,,,,,,,,,,,,,,,,,,,,,,,,,,,,,,,,,,,,,,,,,,,,,,,,,,,,,,,,,,,,,,,,,,,,,,,,,,,,,,,,,,,,,,,,,,,,,,,,,,,,,,,,,,,,,,,,,,,,
0,71,71,50,1,,60871d7dcbf3bd9bf2c40be8,62bbfa0f76c1b7c44c51f82e,2022-06-29_10h07.18.786,Colour_Asymmetry_Pilot,2022.1.3,Win32,29.94280923,62bbe60bf3d75ef465d3e404,,,,,,,,,,,,,,,,,,,,,,,,,,,,,,,,,,,,,,,,,,,,,,,,,,,,,,,,,,,,,,,,,,,,,,,,,,,,,,,,,,,,,,,,,,,,,,,,,,,,,,,,,,,,,,,,,,,,,,,,,,,,,,,,,,,,,,,,,,,,,,,,,,,,,,,,,,,,,,
0,72,72,77,1,,60871d7dcbf3bd9bf2c40be8,62bbfa0f76c1b7c44c51f82e,2022-06-29_10h07.18.786,Colour_Asymmetry_Pilot,2022.1.3,Win32,29.94280923,62bbe60bf3d75ef465d3e404,,,,,,,,,,,,,,,,,,,,,,,,,,,,,,,,,,,,,,,,,,,,,,,,,,,,,,,,,,,,,,,,,,,,,,,,,,,,,,,,,,,,,,,,,,,,,,,,,,,,,,,,,,,,,,,,,,,,,,,,,,,,,,,,,,,,,,,,,,,,,,,,,,,,,,,,,,,,,,
0,73,73,39,1,,60871d7dcbf3bd9bf2c40be8,62bbfa0f76c1b7c44c51f82e,2022-06-29_10h07.18.786,Colour_Asymmetry_Pilot,2022.1.3,Win32,29.94280923,62bbe60bf3d75ef465d3e404,,,,,,,,,,,,,,,,,,,,,,,,,,,,,,,,,,,,,,,,,,,,,,,,,,,,,,,,,,,,,,,,,,,,,,,,,,,,,,,,,,,,,,,,,,,,,,,,,,,,,,,,,,,,,,,,,,,,,,,,,,,,,,,,,,,,,,,,,,,,,,,,,,,,,,,,,,,,,,
0,74,74,14,1,,60871d7dcbf3bd9bf2c40be8,62bbfa0f76c1b7c44c51f82e,2022-06-29_10h07.18.786,Colour_Asymmetry_Pilot,2022.1.3,Win32,29.94280923,62bbe60bf3d75ef465d3e404,,,,,,,,,,,,,,,,,,,,,,,,,,,,,,,,,,,,,,,,,,,,,,,,,,,,,,,,,,,,,,,,,,,,,,,,,,,,,,,,,,,,,,,,,,,,,,,,,,,,,,,,,,,,,,,,,,,,,,,,,,,,,,,,,,,,,,,,,,,,,,,,,,,,,,,,,,,,,,
0,75,75,47,1,,60871d7dcbf3bd9bf2c40be8,62bbfa0f76c1b7c44c51f82e,2022-06-29_10h07.18.786,Colour_Asymmetry_Pilot,2022.1.3,Win32,29.94280923,62bbe60bf3d75ef465d3e404,,,,,,,,,,,,,,,,,,,,,,,,,,,,,,,,,,,,,,,,,,,,,,,,,,,,,,,,,,,,,,,,,,,,,,,,,,,,,,,,,,,,,,,,,,,,,,,,,,,,,,,,,,,,,,,,,,,,,,,,,,,,,,,,,,,,,,,,,,,,,,,,,,,,,,,,,,,,,,
0,76,76,66,1,,60871d7dcbf3bd9bf2c40be8,62bbfa0f76c1b7c44c51f82e,2022-06-29_10h07.18.786,Colour_Asymmetry_Pilot,2022.1.3,Win32,29.94280923,62bbe60bf3d75ef465d3e404,,,,,,,,,,,,,,,,,,,,,,,,,,,,,,,,,,,,,,,,,,,,,,,,,,,,,,,,,,,,,,,,,,,,,,,,,,,,,,,,,,,,,,,,,,,,,,,,,,,,,,,,,,,,,,,,,,,,,,,,,,,,,,,,,,,,,,,,,,,,,,,,,,,,,,,,,,,,,,
0,77,77,69,1,,60871d7dcbf3bd9bf2c40be8,62bbfa0f76c1b7c44c51f82e,2022-06-29_10h07.18.786,Colour_Asymmetry_Pilot,2022.1.3,Win32,29.94280923,62bbe60bf3d75ef465d3e404,,,,,,,,,,,,,,,,,,,,,,,,,,,,,,,,,,,,,,,,,,,,,,,,,,,,,,,,,,,,,,,,,,,,,,,,,,,,,,,,,,,,,,,,,,,,,,,,,,,,,,,,,,,,,,,,,,,,,,,,,,,,,,,,,,,,,,,,,,,,,,,,,,,,,,,,,,,,,,
0,78,78,59,1,,60871d7dcbf3bd9bf2c40be8,62bbfa0f76c1b7c44c51f82e,2022-06-29_10h07.18.786,Colour_Asymmetry_Pilot,2022.1.3,Win32,29.94280923,62bbe60bf3d75ef465d3e404,,,,,,,,,,,,,,,,,,,,,,,,,,,,,,,,,,,,,,,,,,,,,,,,,,,,,,,,,,,,,,,,,,,,,,,,,,,,,,,,,,,,,,,,,,,,,,,,,,,,,,,,,,,,,,,,,,,,,,,,,,,,,,,,,,,,,,,,,,,,,,,,,,,,,,,,,,,,,,
0,79,79,85,1,,60871d7dcbf3bd9bf2c40be8,62bbfa0f76c1b7c44c51f82e,2022-06-29_10h07.18.786,Colour_Asymmetry_Pilot,2022.1.3,Win32,29.94280923,62bbe60bf3d75ef465d3e404,,,,,,,,,,,,,,,,,,,,,,,,,,,,,,,,,,,,,,,,,,,,,,,,,,,,,,,,,,,,,,,,,,,,,,,,,,,,,,,,,,,,,,,,,,,,,,,,,,,,,,,,,,,,,,,,,,,,,,,,,,,,,,,,,,,,,,,,,,,,,,,,,,,,,,,,,,,,,,
0,80,80,90,1,,60871d7dcbf3bd9bf2c40be8,62bbfa0f76c1b7c44c51f82e,2022-06-29_10h07.18.786,Colour_Asymmetry_Pilot,2022.1.3,Win32,29.94280923,62bbe60bf3d75ef465d3e404,,,,,,,,,,,,,,,,,,,,,,,,,,,,,,,,,,,,,,,,,,,,,,,,,,,,,,,,,,,,,,,,,,,,,,,,,,,,,,,,,,,,,,,,,,,,,,,,,,,,,,,,,,,,,,,,,,,,,,,,,,,,,,,,,,,,,,,,,,,,,,,,,,,,,,,,,,,,,,
0,81,81,92,1,,60871d7dcbf3bd9bf2c40be8,62bbfa0f76c1b7c44c51f82e,2022-06-29_10h07.18.786,Colour_Asymmetry_Pilot,2022.1.3,Win32,29.94280923,62bbe60bf3d75ef465d3e404,,,,,,,,,,,,,,,,,,,,,,,,,,,,,,,,,,,,,,,,,,,,,,,,,,,,,,,,,,,,,,,,,,,,,,,,,,,,,,,,,,,,,,,,,,,,,,,,,,,,,,,,,,,,,,,,,,,,,,,,,,,,,,,,,,,,,,,,,,,,,,,,,,,,,,,,,,,,,,
0,82,82,63,1,,60871d7dcbf3bd9bf2c40be8,62bbfa0f76c1b7c44c51f82e,2022-06-29_10h07.18.786,Colour_Asymmetry_Pilot,2022.1.3,Win32,29.94280923,62bbe60bf3d75ef465d3e404,,,,,,,,,,,,,,,,,,,,,,,,,,,,,,,,,,,,,,,,,,,,,,,,,,,,,,,,,,,,,,,,,,,,,,,,,,,,,,,,,,,,,,,,,,,,,,,,,,,,,,,,,,,,,,,,,,,,,,,,,,,,,,,,,,,,,,,,,,,,,,,,,,,,,,,,,,,,,,
0,83,83,81,1,,60871d7dcbf3bd9bf2c40be8,62bbfa0f76c1b7c44c51f82e,2022-06-29_10h07.18.786,Colour_Asymmetry_Pilot,2022.1.3,Win32,29.94280923,62bbe60bf3d75ef465d3e404,,,,,,,,,,,,,,,,,,,,,,,,,,,,,,,,,,,,,,,,,,,,,,,,,,,,,,,,,,,,,,,,,,,,,,,,,,,,,,,,,,,,,,,,,,,,,,,,,,,,,,,,,,,,,,,,,,,,,,,,,,,,,,,,,,,,,,,,,,,,,,,,,,,,,,,,,,,,,,
0,84,84,37,1,,60871d7dcbf3bd9bf2c40be8,62bbfa0f76c1b7c44c51f82e,2022-06-29_10h07.18.786,Colour_Asymmetry_Pilot,2022.1.3,Win32,29.94280923,62bbe60bf3d75ef465d3e404,,,,,,,,,,,,,,,,,,,,,,,,,,,,,,,,,,,,,,,,,,,,,,,,,,,,,,,,,,,,,,,,,,,,,,,,,,,,,,,,,,,,,,,,,,,,,,,,,,,,,,,,,,,,,,,,,,,,,,,,,,,,,,,,,,,,,,,,,,,,,,,,,,,,,,,,,,,,,,
0,85,85,31,1,,60871d7dcbf3bd9bf2c40be8,62bbfa0f76c1b7c44c51f82e,2022-06-29_10h07.18.786,Colour_Asymmetry_Pilot,2022.1.3,Win32,29.94280923,62bbe60bf3d75ef465d3e404,,,,,,,,,,,,,,,,,,,,,,,,,,,,,,,,,,,,,,,,,,,,,,,,,,,,,,,,,,,,,,,,,,,,,,,,,,,,,,,,,,,,,,,,,,,,,,,,,,,,,,,,,,,,,,,,,,,,,,,,,,,,,,,,,,,,,,,,,,,,,,,,,,,,,,,,,,,,,,
0,86,86,36,1,,60871d7dcbf3bd9bf2c40be8,62bbfa0f76c1b7c44c51f82e,2022-06-29_10h07.18.786,Colour_Asymmetry_Pilot,2022.1.3,Win32,29.94280923,62bbe60bf3d75ef465d3e404,,,,,,,,,,,,,,,,,,,,,,,,,,,,,,,,,,,,,,,,,,,,,,,,,,,,,,,,,,,,,,,,,,,,,,,,,,,,,,,,,,,,,,,,,,,,,,,,,,,,,,,,,,,,,,,,,,,,,,,,,,,,,,,,,,,,,,,,,,,,,,,,,,,,,,,,,,,,,,
0,87,87,40,1,,60871d7dcbf3bd9bf2c40be8,62bbfa0f76c1b7c44c51f82e,2022-06-29_10h07.18.786,Colour_Asymmetry_Pilot,2022.1.3,Win32,29.94280923,62bbe60bf3d75ef465d3e404,,,,,,,,,,,,,,,,,,,,,,,,,,,,,,,,,,,,,,,,,,,,,,,,,,,,,,,,,,,,,,,,,,,,,,,,,,,,,,,,,,,,,,,,,,,,,,,,,,,,,,,,,,,,,,,,,,,,,,,,,,,,,,,,,,,,,,,,,,,,,,,,,,,,,,,,,,,,,,
0,88,88,67,1,,60871d7dcbf3bd9bf2c40be8,62bbfa0f76c1b7c44c51f82e,2022-06-29_10h07.18.786,Colour_Asymmetry_Pilot,2022.1.3,Win32,29.94280923,62bbe60bf3d75ef465d3e404,,,,,,,,,,,,,,,,,,,,,,,,,,,,,,,,,,,,,,,,,,,,,,,,,,,,,,,,,,,,,,,,,,,,,,,,,,,,,,,,,,,,,,,,,,,,,,,,,,,,,,,,,,,,,,,,,,,,,,,,,,,,,,,,,,,,,,,,,,,,,,,,,,,,,,,,,,,,,,
0,89,89,19,1,,60871d7dcbf3bd9bf2c40be8,62bbfa0f76c1b7c44c51f82e,2022-06-29_10h07.18.786,Colour_Asymmetry_Pilot,2022.1.3,Win32,29.94280923,62bbe60bf3d75ef465d3e404,,,,,,,,,,,,,,,,,,,,,,,,,,,,,,,,,,,,,,,,,,,,,,,,,,,,,,,,,,,,,,,,,,,,,,,,,,,,,,,,,,,,,,,,,,,,,,,,,,,,,,,,,,,,,,,,,,,,,,,,,,,,,,,,,,,,,,,,,,,,,,,,,,,,,,,,,,,,,,
0,90,90,61,1,,60871d7dcbf3bd9bf2c40be8,62bbfa0f76c1b7c44c51f82e,2022-06-29_10h07.18.786,Colour_Asymmetry_Pilot,2022.1.3,Win32,29.94280923,62bbe60bf3d75ef465d3e404,,,,,,,,,,,,,,,,,,,,,,,,,,,,,,,,,,,,,,,,,,,,,,,,,,,,,,,,,,,,,,,,,,,,,,,,,,,,,,,,,,,,,,,,,,,,,,,,,,,,,,,,,,,,,,,,,,,,,,,,,,,,,,,,,,,,,,,,,,,,,,,,,,,,,,,,,,,,,,
0,91,91,32,1,,60871d7dcbf3bd9bf2c40be8,62bbfa0f76c1b7c44c51f82e,2022-06-29_10h07.18.786,Colour_Asymmetry_Pilot,2022.1.3,Win32,29.94280923,62bbe60bf3d75ef465d3e404,,,,,,,,,,,,,,,,,,,,,,,,,,,,,,,,,,,,,,,,,,,,,,,,,,,,,,,,,,,,,,,,,,,,,,,,,,,,,,,,,,,,,,,,,,,,,,,,,,,,,,,,,,,,,,,,,,,,,,,,,,,,,,,,,,,,,,,,,,,,,,,,,,,,,,,,,,,,,,
0,92,92,52,1,,60871d7dcbf3bd9bf2c40be8,62bbfa0f76c1b7c44c51f82e,2022-06-29_10h07.18.786,Colour_Asymmetry_Pilot,2022.1.3,Win32,29.94280923,62bbe60bf3d75ef465d3e404,,,,,,,,,,,,,,,,,,,,,,,,,,,,,,,,,,,,,,,,,,,,,,,,,,,,,,,,,,,,,,,,,,,,,,,,,,,,,,,,,,,,,,,,,,,,,,,,,,,,,,,,,,,,,,,,,,,,,,,,,,,,,,,,,,,,,,,,,,,,,,,,,,,,,,,,,,,,,,
,,,,,,60871d7dcbf3bd9bf2c40be8,62bbfa0f76c1b7c44c51f82e,2022-06-29_10h07.18.786,Colour_Asymmetry_Pilot,2022.1.3,Win32,29.94280923,62bbe60bf3d75ef465d3e404,0,0,0,100,1,threeone,,,,,,,,,,,,,,,,,,,,,,,,,,,,,,,,,,,,,,,,,,,,,,,,,,,,,,,,,,,,,,,,,,,,,,,,,,,,,,,,,,,,,,,,,,,,,,,,,,,,,,,,,,,,,,,,,,,,,,,,,,,,,,,,,,,,,,,,,,,,,,,,,,,,,,,,
,,,,,,60871d7dcbf3bd9bf2c40be8,62bbfa0f76c1b7c44c51f82e,2022-06-29_10h07.18.786,Colour_Asymmetry_Pilot,2022.1.3,Win32,29.94280923,62bbe60bf3d75ef465d3e404,0,1,1,37,1,threefour,,,,,,,,,,,,,,,,,,,,,,,,,,,,,,,,,,,,,,,,,,,,,,,,,,,,,,,,,,,,,,,,,,,,,,,,,,,,,,,,,,,,,,,,,,,,,,,,,,,,,,,,,,,,,,,,,,,,,,,,,,,,,,,,,,,,,,,,,,,,,,,,,,,,,,,,
,,,,,,60871d7dcbf3bd9bf2c40be8,62bbfa0f76c1b7c44c51f82e,2022-06-29_10h07.18.786,Colour_Asymmetry_Pilot,2022.1.3,Win32,29.94280923,62bbe60bf3d75ef465d3e404,0,2,2,124,1,threeone,,,,,,,,,,,,,,,,,,,,,,,,,,,,,,,,,,,,,,,,,,,,,,,,,,,,,,,,,,,,,,,,,,,,,,,,,,,,,,,,,,,,,,,,,,,,,,,,,,,,,,,,,,,,,,,,,,,,,,,,,,,,,,,,,,,,,,,,,,,,,,,,,,,,,,,,
,,,,,,60871d7dcbf3bd9bf2c40be8,62bbfa0f76c1b7c44c51f82e,2022-06-29_10h07.18.786,Colour_Asymmetry_Pilot,2022.1.3,Win32,29.94280923,62bbe60bf3d75ef465d3e404,0,3,3,72,1,onetwo,,,,,,,,,,,,,,,,,,,,,,,,,,,,,,,,,,,,,,,,,,,,,,,,,,,,,,,,,,,,,,,,,,,,,,,,,,,,,,,,,,,,,,,,,,,,,,,,,,,,,,,,,,,,,,,,,,,,,,,,,,,,,,,,,,,,,,,,,,,,,,,,,,,,,,,,
,,,,,,60871d7dcbf3bd9bf2c40be8,62bbfa0f76c1b7c44c51f82e,2022-06-29_10h07.18.786,Colour_Asymmetry_Pilot,2022.1.3,Win32,29.94280923,62bbe60bf3d75ef465d3e404,0,4,4,52,1,threeone,,,,,,,,,,,,,,,,,,,,,,,,,,,,,,,,,,,,,,,,,,,,,,,,,,,,,,,,,,,,,,,,,,,,,,,,,,,,,,,,,,,,,,,,,,,,,,,,,,,,,,,,,,,,,,,,,,,,,,,,,,,,,,,,,,,,,,,,,,,,,,,,,,,,,,,,
,,,,,,60871d7dcbf3bd9bf2c40be8,62bbfa0f76c1b7c44c51f82e,2022-06-29_10h07.18.786,Colour_Asymmetry_Pilot,2022.1.3,Win32,29.94280923,62bbe60bf3d75ef465d3e404,0,5,5,141,1,threefour,,,,,,,,,,,,,,,,,,,,,,,,,,,,,,,,,,,,,,,,,,,,,,,,,,,,,,,,,,,,,,,,,,,,,,,,,,,,,,,,,,,,,,,,,,,,,,,,,,,,,,,,,,,,,,,,,,,,,,,,,,,,,,,,,,,,,,,,,,,,,,,,,,,,,,,,
,,,,,,60871d7dcbf3bd9bf2c40be8,62bbfa0f76c1b7c44c51f82e,2022-06-29_10h07.18.786,Colour_Asymmetry_Pilot,2022.1.3,Win32,29.94280923,62bbe60bf3d75ef465d3e404,0,6,6,91,1,twofour,,,,,,,,,,,,,,,,,,,,,,,,,,,,,,,,,,,,,,,,,,,,,,,,,,,,,,,,,,,,,,,,,,,,,,,,,,,,,,,,,,,,,,,,,,,,,,,,,,,,,,,,,,,,,,,,,,,,,,,,,,,,,,,,,,,,,,,,,,,,,,,,,,,,,,,,
,,,,,,60871d7dcbf3bd9bf2c40be8,62bbfa0f76c1b7c44c51f82e,2022-06-29_10h07.18.786,Colour_Asymmetry_Pilot,2022.1.3,Win32,29.94280923,62bbe60bf3d75ef465d3e404,0,7,7,30,1,fourtwo,,,,,,,,,,,,,,,,,,,,,,,,,,,,,,,,,,,,,,,,,,,,,,,,,,,,,,,,,,,,,,,,,,,,,,,,,,,,,,,,,,,,,,,,,,,,,,,,,,,,,,,,,,,,,,,,,,,,,,,,,,,,,,,,,,,,,,,,,,,,,,,,,,,,,,,,
,,,,,,60871d7dcbf3bd9bf2c40be8,62bbfa0f76c1b7c44c51f82e,2022-06-29_10h07.18.786,Colour_Asymmetry_Pilot,2022.1.3,Win32,29.94280923,62bbe60bf3d75ef465d3e404,0,8,8,34,1,twoone,,,,,,,,,,,,,,,,,,,,,,,,,,,,,,,,,,,,,,,,,,,,,,,,,,,,,,,,,,,,,,,,,,,,,,,,,,,,,,,,,,,,,,,,,,,,,,,,,,,,,,,,,,,,,,,,,,,,,,,,,,,,,,,,,,,,,,,,,,,,,,,,,,,,,,,,
,,,,,,60871d7dcbf3bd9bf2c40be8,62bbfa0f76c1b7c44c51f82e,2022-06-29_10h07.18.786,Colour_Asymmetry_Pilot,2022.1.3,Win32,29.94280923,62bbe60bf3d75ef465d3e404,0,9,9,6,1,fourtwo,,,,,,,,,,,,,,,,,,,,,,,,,,,,,,,,,,,,,,,,,,,,,,,,,,,,,,,,,,,,,,,,,,,,,,,,,,,,,,,,,,,,,,,,,,,,,,,,,,,,,,,,,,,,,,,,,,,,,,,,,,,,,,,,,,,,,,,,,,,,,,,,,,,,,,,,
,,,,,,60871d7dcbf3bd9bf2c40be8,62bbfa0f76c1b7c44c51f82e,2022-06-29_10h07.18.786,Colour_Asymmetry_Pilot,2022.1.3,Win32,29.94280923,62bbe60bf3d75ef465d3e404,0,10,10,110,1,fourtwo,,,,,,,,,,,,,,,,,,,,,,,,,,,,,,,,,,,,,,,,,,,,,,,,,,,,,,,,,,,,,,,,,,,,,,,,,,,,,,,,,,,,,,,,,,,,,,,,,,,,,,,,,,,,,,,,,,,,,,,,,,,,,,,,,,,,,,,,,,,,,,,,,,,,,,,,
,,,,,,60871d7dcbf3bd9bf2c40be8,62bbfa0f76c1b7c44c51f82e,2022-06-29_10h07.18.786,Colour_Asymmetry_Pilot,2022.1.3,Win32,29.94280923,62bbe60bf3d75ef465d3e404,0,11,11,2,1,twoone,,,,,,,,,,,,,,,,,,,,,,,,,,,,,,,,,,,,,,,,,,,,,,,,,,,,,,,,,,,,,,,,,,,,,,,,,,,,,,,,,,,,,,,,,,,,,,,,,,,,,,,,,,,,,,,,,,,,,,,,,,,,,,,,,,,,,,,,,,,,,,,,,,,,,,,,
,,,,,,60871d7dcbf3bd9bf2c40be8,62bbfa0f76c1b7c44c51f82e,2022-06-29_10h07.18.786,Colour_Asymmetry_Pilot,2022.1.3,Win32,29.94280923,62bbe60bf3d75ef465d3e404,0,12,12,160,1,onetwo,,,,,,,,,,,,,,,,,,,,,,,,,,,,,,,,,,,,,,,,,,,,,,,,,,,,,,,,,,,,,,,,,,,,,,,,,,,,,,,,,,,,,,,,,,,,,,,,,,,,,,,,,,,,,,,,,,,,,,,,,,,,,,,,,,,,,,,,,,,,,,,,,,,,,,,,
,,,,,,60871d7dcbf3bd9bf2c40be8,62bbfa0f76c1b7c44c51f82e,2022-06-29_10h07.18.786,Colour_Asymmetry_Pilot,2022.1.3,Win32,29.94280923,62bbe60bf3d75ef465d3e404,0,13,13,113,1,onethree,,,,,,,,,,,,,,,,,,,,,,,,,,,,,,,,,,,,,,,,,,,,,,,,,,,,,,,,,,,,,,,,,,,,,,,,,,,,,,,,,,,,,,,,,,,,,,,,,,,,,,,,,,,,,,,,,,,,,,,,,,,,,,,,,,,,,,,,,,,,,,,,,,,,,,,,
,,,,,,60871d7dcbf3bd9bf2c40be8,62bbfa0f76c1b7c44c51f82e,2022-06-29_10h07.18.786,Colour_Asymmetry_Pilot,2022.1.3,Win32,29.94280923,62bbe60bf3d75ef465d3e404,0,14,14,44,1,threeone,,,,,,,,,,,,,,,,,,,,,,,,,,,,,,,,,,,,,,,,,,,,,,,,,,,,,,,,,,,,,,,,,,,,,,,,,,,,,,,,,,,,,,,,,,,,,,,,,,,,,,,,,,,,,,,,,,,,,,,,,,,,,,,,,,,,,,,,,,,,,,,,,,,,,,,,
,,,,,,60871d7dcbf3bd9bf2c40be8,62bbfa0f76c1b7c44c51f82e,2022-06-29_10h07.18.786,Colour_Asymmetry_Pilot,2022.1.3,Win32,29.94280923,62bbe60bf3d75ef465d3e404,0,15,15,23,1,fourthree,,,,,,,,,,,,,,,,,,,,,,,,,,,,,,,,,,,,,,,,,,,,,,,,,,,,,,,,,,,,,,,,,,,,,,,,,,,,,,,,,,,,,,,,,,,,,,,,,,,,,,,,,,,,,,,,,,,,,,,,,,,,,,,,,,,,,,,,,,,,,,,,,,,,,,,,
,,,,,,60871d7dcbf3bd9bf2c40be8,62bbfa0f76c1b7c44c51f82e,2022-06-29_10h07.18.786,Colour_Asymmetry_Pilot,2022.1.3,Win32,29.94280923,62bbe60bf3d75ef465d3e404,0,16,16,77,1,threefour,,,,,,,,,,,,,,,,,,,,,,,,,,,,,,,,,,,,,,,,,,,,,,,,,,,,,,,,,,,,,,,,,,,,,,,,,,,,,,,,,,,,,,,,,,,,,,,,,,,,,,,,,,,,,,,,,,,,,,,,,,,,,,,,,,,,,,,,,,,,,,,,,,,,,,,,
,,,,,,60871d7dcbf3bd9bf2c40be8,62bbfa0f76c1b7c44c51f82e,2022-06-29_10h07.18.786,Colour_Asymmetry_Pilot,2022.1.3,Win32,29.94280923,62bbe60bf3d75ef465d3e404,0,17,17,28,1,threeone,,,,,,,,,,,,,,,,,,,,,,,,,,,,,,,,,,,,,,,,,,,,,,,,,,,,,,,,,,,,,,,,,,,,,,,,,,,,,,,,,,,,,,,,,,,,,,,,,,,,,,,,,,,,,,,,,,,,,,,,,,,,,,,,,,,,,,,,,,,,,,,,,,,,,,,,
,,,,,,60871d7dcbf3bd9bf2c40be8,62bbfa0f76c1b7c44c51f82e,2022-06-29_10h07.18.786,Colour_Asymmetry_Pilot,2022.1.3,Win32,29.94280923,62bbe60bf3d75ef465d3e404,0,18,18,117,1,threefour,,,,,,,,,,,,,,,,,,,,,,,,,,,,,,,,,,,,,,,,,,,,,,,,,,,,,,,,,,,,,,,,,,,,,,,,,,,,,,,,,,,,,,,,,,,,,,,,,,,,,,,,,,,,,,,,,,,,,,,,,,,,,,,,,,,,,,,,,,,,,,,,,,,,,,,,
,,,,,,60871d7dcbf3bd9bf2c40be8,62bbfa0f76c1b7c44c51f82e,2022-06-29_10h07.18.786,Colour_Asymmetry_Pilot,2022.1.3,Win32,29.94280923,62bbe60bf3d75ef465d3e404,0,19,19,16,1,onetwo,,,,,,,,,,,,,,,,,,,,,,,,,,,,,,,,,,,,,,,,,,,,,,,,,,,,,,,,,,,,,,,,,,,,,,,,,,,,,,,,,,,,,,,,,,,,,,,,,,,,,,,,,,,,,,,,,,,,,,,,,,,,,,,,,,,,,,,,,,,,,,,,,,,,,,,,
,,,,,,60871d7dcbf3bd9bf2c40be8,62bbfa0f76c1b7c44c51f82e,2022-06-29_10h07.18.786,Colour_Asymmetry_Pilot,2022.1.3,Win32,29.94280923,62bbe60bf3d75ef465d3e404,0,20,20,24,1,onetwo,,,,,,,,,,,,,,,,,,,,,,,,,,,,,,,,,,,,,,,,,,,,,,,,,,,,,,,,,,,,,,,,,,,,,,,,,,,,,,,,,,,,,,,,,,,,,,,,,,,,,,,,,,,,,,,,,,,,,,,,,,,,,,,,,,,,,,,,,,,,,,,,,,,,,,,,
,,,,,,60871d7dcbf3bd9bf2c40be8,62bbfa0f76c1b7c44c51f82e,2022-06-29_10h07.18.786,Colour_Asymmetry_Pilot,2022.1.3,Win32,29.94280923,62bbe60bf3d75ef465d3e404,0,21,21,54,1,fourtwo,,,,,,,,,,,,,,,,,,,,,,,,,,,,,,,,,,,,,,,,,,,,,,,,,,,,,,,,,,,,,,,,,,,,,,,,,,,,,,,,,,,,,,,,,,,,,,,,,,,,,,,,,,,,,,,,,,,,,,,,,,,,,,,,,,,,,,,,,,,,,,,,,,,,,,,,
,,,,,,60871d7dcbf3bd9bf2c40be8,62bbfa0f76c1b7c44c51f82e,2022-06-29_10h07.18.786,Colour_Asymmetry_Pilot,2022.1.3,Win32,29.94280923,62bbe60bf3d75ef465d3e404,0,22,22,149,1,threefour,,,,,,,,,,,,,,,,,,,,,,,,,,,,,,,,,,,,,,,,,,,,,,,,,,,,,,,,,,,,,,,,,,,,,,,,,,,,,,,,,,,,,,,,,,,,,,,,,,,,,,,,,,,,,,,,,,,,,,,,,,,,,,,,,,,,,,,,,,,,,,,,,,,,,,,,
,,,,,,60871d7dcbf3bd9bf2c40be8,62bbfa0f76c1b7c44c51f82e,2022-06-29_10h07.18.786,Colour_Asymmetry_Pilot,2022.1.3,Win32,29.94280923,62bbe60bf3d75ef465d3e404,0,23,23,88,1,onetwo,,,,,,,,,,,,,,,,,,,,,,,,,,,,,,,,,,,,,,,,,,,,,,,,,,,,,,,,,,,,,,,,,,,,,,,,,,,,,,,,,,,,,,,,,,,,,,,,,,,,,,,,,,,,,,,,,,,,,,,,,,,,,,,,,,,,,,,,,,,,,,,,,,,,,,,,
,,,,,,60871d7dcbf3bd9bf2c40be8,62bbfa0f76c1b7c44c51f82e,2022-06-29_10h07.18.786,Colour_Asymmetry_Pilot,2022.1.3,Win32,29.94280923,62bbe60bf3d75ef465d3e404,0,24,24,111,1,fourthree,,,,,,,,,,,,,,,,,,,,,,,,,,,,,,,,,,,,,,,,,,,,,,,,,,,,,,,,,,,,,,,,,,,,,,,,,,,,,,,,,,,,,,,,,,,,,,,,,,,,,,,,,,,,,,,,,,,,,,,,,,,,,,,,,,,,,,,,,,,,,,,,,,,,,,,,
,,,,,,60871d7dcbf3bd9bf2c40be8,62bbfa0f76c1b7c44c51f82e,2022-06-29_10h07.18.786,Colour_Asymmetry_Pilot,2022.1.3,Win32,29.94280923,62bbe60bf3d75ef465d3e404,0,25,25,155,1,twofour,,,,,,,,,,,,,,,,,,,,,,,,,,,,,,,,,,,,,,,,,,,,,,,,,,,,,,,,,,,,,,,,,,,,,,,,,,,,,,,,,,,,,,,,,,,,,,,,,,,,,,,,,,,,,,,,,,,,,,,,,,,,,,,,,,,,,,,,,,,,,,,,,,,,,,,,
,,,,,,60871d7dcbf3bd9bf2c40be8,62bbfa0f76c1b7c44c51f82e,2022-06-29_10h07.18.786,Colour_Asymmetry_Pilot,2022.1.3,Win32,29.94280923,62bbe60bf3d75ef465d3e404,0,26,26,133,1,threefour,,,,,,,,,,,,,,,,,,,,,,,,,,,,,,,,,,,,,,,,,,,,,,,,,,,,,,,,,,,,,,,,,,,,,,,,,,,,,,,,,,,,,,,,,,,,,,,,,,,,,,,,,,,,,,,,,,,,,,,,,,,,,,,,,,,,,,,,,,,,,,,,,,,,,,,,
,,,,,,60871d7dcbf3bd9bf2c40be8,62bbfa0f76c1b7c44c51f82e,2022-06-29_10h07.18.786,Colour_Asymmetry_Pilot,2022.1.3,Win32,29.94280923,62bbe60bf3d75ef465d3e404,0,27,27,105,1,onethree,,,,,,,,,,,,,,,,,,,,,,,,,,,,,,,,,,,,,,,,,,,,,,,,,,,,,,,,,,,,,,,,,,,,,,,,,,,,,,,,,,,,,,,,,,,,,,,,,,,,,,,,,,,,,,,,,,,,,,,,,,,,,,,,,,,,,,,,,,,,,,,,,,,,,,,,
,,,,,,60871d7dcbf3bd9bf2c40be8,62bbfa0f76c1b7c44c51f82e,2022-06-29_10h07.18.786,Colour_Asymmetry_Pilot,2022.1.3,Win32,29.94280923,62bbe60bf3d75ef465d3e404,0,28,28,102,1,fourtwo,,,,,,,,,,,,,,,,,,,,,,,,,,,,,,,,,,,,,,,,,,,,,,,,,,,,,,,,,,,,,,,,,,,,,,,,,,,,,,,,,,,,,,,,,,,,,,,,,,,,,,,,,,,,,,,,,,,,,,,,,,,,,,,,,,,,,,,,,,,,,,,,,,,,,,,,
,,,,,,60871d7dcbf3bd9bf2c40be8,62bbfa0f76c1b7c44c51f82e,2022-06-29_10h07.18.786,Colour_Asymmetry_Pilot,2022.1.3,Win32,29.94280923,62bbe60bf3d75ef465d3e404,0,29,29,108,1,threeone,,,,,,,,,,,,,,,,,,,,,,,,,,,,,,,,,,,,,,,,,,,,,,,,,,,,,,,,,,,,,,,,,,,,,,,,,,,,,,,,,,,,,,,,,,,,,,,,,,,,,,,,,,,,,,,,,,,,,,,,,,,,,,,,,,,,,,,,,,,,,,,,,,,,,,,,
,,,,,,60871d7dcbf3bd9bf2c40be8,62bbfa0f76c1b7c44c51f82e,2022-06-29_10h07.18.786,Colour_Asymmetry_Pilot,2022.1.3,Win32,29.94280923,62bbe60bf3d75ef465d3e404,0,30,30,87,1,fourthree,,,,,,,,,,,,,,,,,,,,,,,,,,,,,,,,,,,,,,,,,,,,,,,,,,,,,,,,,,,,,,,,,,,,,,,,,,,,,,,,,,,,,,,,,,,,,,,,,,,,,,,,,,,,,,,,,,,,,,,,,,,,,,,,,,,,,,,,,,,,,,,,,,,,,,,,
,,,,,,60871d7dcbf3bd9bf2c40be8,62bbfa0f76c1b7c44c51f82e,2022-06-29_10h07.18.786,Colour_Asymmetry_Pilot,2022.1.3,Win32,29.94280923,62bbe60bf3d75ef465d3e404,0,31,31,95,1,fourthree,,,,,,,,,,,,,,,,,,,,,,,,,,,,,,,,,,,,,,,,,,,,,,,,,,,,,,,,,,,,,,,,,,,,,,,,,,,,,,,,,,,,,,,,,,,,,,,,,,,,,,,,,,,,,,,,,,,,,,,,,,,,,,,,,,,,,,,,,,,,,,,,,,,,,,,,
,,,,,,60871d7dcbf3bd9bf2c40be8,62bbfa0f76c1b7c44c51f82e,2022-06-29_10h07.18.786,Colour_Asymmetry_Pilot,2022.1.3,Win32,29.94280923,62bbe60bf3d75ef465d3e404,0,32,32,68,1,threeone,,,,,,,,,,,,,,,,,,,,,,,,,,,,,,,,,,,,,,,,,,,,,,,,,,,,,,,,,,,,,,,,,,,,,,,,,,,,,,,,,,,,,,,,,,,,,,,,,,,,,,,,,,,,,,,,,,,,,,,,,,,,,,,,,,,,,,,,,,,,,,,,,,,,,,,,
,,,,,,60871d7dcbf3bd9bf2c40be8,62bbfa0f76c1b7c44c51f82e,2022-06-29_10h07.18.786,Colour_Asymmetry_Pilot,2022.1.3,Win32,29.94280923,62bbe60bf3d75ef465d3e404,0,33,33,125,1,threefour,,,,,,,,,,,,,,,,,,,,,,,,,,,,,,,,,,,,,,,,,,,,,,,,,,,,,,,,,,,,,,,,,,,,,,,,,,,,,,,,,,,,,,,,,,,,,,,,,,,,,,,,,,,,,,,,,,,,,,,,,,,,,,,,,,,,,,,,,,,,,,,,,,,,,,,,
,,,,,,60871d7dcbf3bd9bf2c40be8,62bbfa0f76c1b7c44c51f82e,2022-06-29_10h07.18.786,Colour_Asymmetry_Pilot,2022.1.3,Win32,29.94280923,62bbe60bf3d75ef465d3e404,0,34,34,25,1,onethree,,,,,,,,,,,,,,,,,,,,,,,,,,,,,,,,,,,,,,,,,,,,,,,,,,,,,,,,,,,,,,,,,,,,,,,,,,,,,,,,,,,,,,,,,,,,,,,,,,,,,,,,,,,,,,,,,,,,,,,,,,,,,,,,,,,,,,,,,,,,,,,,,,,,,,,,
,,,,,,60871d7dcbf3bd9bf2c40be8,62bbfa0f76c1b7c44c51f82e,2022-06-29_10h07.18.786,Colour_Asymmetry_Pilot,2022.1.3,Win32,29.94280923,62bbe60bf3d75ef465d3e404,0,35,35,101,1,threefour,,,,,,,,,,,,,,,,,,,,,,,,,,,,,,,,,,,,,,,,,,,,,,,,,,,,,,,,,,,,,,,,,,,,,,,,,,,,,,,,,,,,,,,,,,,,,,,,,,,,,,,,,,,,,,,,,,,,,,,,,,,,,,,,,,,,,,,,,,,,,,,,,,,,,,,,
,,,,,,60871d7dcbf3bd9bf2c40be8,62bbfa0f76c1b7c44c51f82e,2022-06-29_10h07.18.786,Colour_Asymmetry_Pilot,2022.1.3,Win32,29.94280923,62bbe60bf3d75ef465d3e404,0,36,36,106,1,twoone,,,,,,,,,,,,,,,,,,,,,,,,,,,,,,,,,,,,,,,,,,,,,,,,,,,,,,,,,,,,,,,,,,,,,,,,,,,,,,,,,,,,,,,,,,,,,,,,,,,,,,,,,,,,,,,,,,,,,,,,,,,,,,,,,,,,,,,,,,,,,,,,,,,,,,,,
,,,,,,60871d7dcbf3bd9bf2c40be8,62bbfa0f76c1b7c44c51f82e,2022-06-29_10h07.18.786,Colour_Asymmetry_Pilot,2022.1.3,Win32,29.94280923,62bbe60bf3d75ef465d3e404,0,37,37,146,1,twoone,,,,,,,,,,,,,,,,,,,,,,,,,,,,,,,,,,,,,,,,,,,,,,,,,,,,,,,,,,,,,,,,,,,,,,,,,,,,,,,,,,,,,,,,,,,,,,,,,,,,,,,,,,,,,,,,,,,,,,,,,,,,,,,,,,,,,,,,,,,,,,,,,,,,,,,,
,,,,,,60871d7dcbf3bd9bf2c40be8,62bbfa0f76c1b7c44c51f82e,2022-06-29_10h07.18.786,Colour_Asymmetry_Pilot,2022.1.3,Win32,29.94280923,62bbe60bf3d75ef465d3e404,0,38,38,140,1,threeone,,,,,,,,,,,,,,,,,,,,,,,,,,,,,,,,,,,,,,,,,,,,,,,,,,,,,,,,,,,,,,,,,,,,,,,,,,,,,,,,,,,,,,,,,,,,,,,,,,,,,,,,,,,,,,,,,,,,,,,,,,,,,,,,,,,,,,,,,,,,,,,,,,,,,,,,
,,,,,,60871d7dcbf3bd9bf2c40be8,62bbfa0f76c1b7c44c51f82e,2022-06-29_10h07.18.786,Colour_Asymmetry_Pilot,2022.1.3,Win32,29.94280923,62bbe60bf3d75ef465d3e404,0,39,39,121,1,onethree,,,,,,,,,,,,,,,,,,,,,,,,,,,,,,,,,,,,,,,,,,,,,,,,,,,,,,,,,,,,,,,,,,,,,,,,,,,,,,,,,,,,,,,,,,,,,,,,,,,,,,,,,,,,,,,,,,,,,,,,,,,,,,,,,,,,,,,,,,,,,,,,,,,,,,,,
,,,,,,60871d7dcbf3bd9bf2c40be8,62bbfa0f76c1b7c44c51f82e,2022-06-29_10h07.18.786,Colour_Asymmetry_Pilot,2022.1.3,Win32,29.94280923,62bbe60bf3d75ef465d3e404,0,40,40,147,1,twofour,,,,,,,,,,,,,,,,,,,,,,,,,,,,,,,,,,,,,,,,,,,,,,,,,,,,,,,,,,,,,,,,,,,,,,,,,,,,,,,,,,,,,,,,,,,,,,,,,,,,,,,,,,,,,,,,,,,,,,,,,,,,,,,,,,,,,,,,,,,,,,,,,,,,,,,,
,,,,,,60871d7dcbf3bd9bf2c40be8,62bbfa0f76c1b7c44c51f82e,2022-06-29_10h07.18.786,Colour_Asymmetry_Pilot,2022.1.3,Win32,29.94280923,62bbe60bf3d75ef465d3e404,0,41,41,83,1,twofour,,,,,,,,,,,,,,,,,,,,,,,,,,,,,,,,,,,,,,,,,,,,,,,,,,,,,,,,,,,,,,,,,,,,,,,,,,,,,,,,,,,,,,,,,,,,,,,,,,,,,,,,,,,,,,,,,,,,,,,,,,,,,,,,,,,,,,,,,,,,,,,,,,,,,,,,
,,,,,,60871d7dcbf3bd9bf2c40be8,62bbfa0f76c1b7c44c51f82e,2022-06-29_10h07.18.786,Colour_Asymmetry_Pilot,2022.1.3,Win32,29.94280923,62bbe60bf3d75ef465d3e404,0,42,42,137,1,onethree,,,,,,,,,,,,,,,,,,,,,,,,,,,,,,,,,,,,,,,,,,,,,,,,,,,,,,,,,,,,,,,,,,,,,,,,,,,,,,,,,,,,,,,,,,,,,,,,,,,,,,,,,,,,,,,,,,,,,,,,,,,,,,,,,,,,,,,,,,,,,,,,,,,,,,,,
,,,,,,60871d7dcbf3bd9bf2c40be8,62bbfa0f76c1b7c44c51f82e,2022-06-29_10h07.18.786,Colour_Asymmetry_Pilot,2022.1.3,Win32,29.94280923,62bbe60bf3d75ef465d3e404,0,43,43,103,1,fourthree,,,,,,,,,,,,,,,,,,,,,,,,,,,,,,,,,,,,,,,,,,,,,,,,,,,,,,,,,,,,,,,,,,,,,,,,,,,,,,,,,,,,,,,,,,,,,,,,,,,,,,,,,,,,,,,,,,,,,,,,,,,,,,,,,,,,,,,,,,,,,,,,,,,,,,,,
,,,,,,60871d7dcbf3bd9bf2c40be8,62bbfa0f76c1b7c44c51f82e,2022-06-29_10h07.18.786,Colour_Asymmetry_Pilot,2022.1.3,Win32,29.94280923,62bbe60bf3d75ef465d3e404,0,44,44,127,1,fourthree,,,,,,,,,,,,,,,,,,,,,,,,,,,,,,,,,,,,,,,,,,,,,,,,,,,,,,,,,,,,,,,,,,,,,,,,,,,,,,,,,,,,,,,,,,,,,,,,,,,,,,,,,,,,,,,,,,,,,,,,,,,,,,,,,,,,,,,,,,,,,,,,,,,,,,,,
,,,,,,60871d7dcbf3bd9bf2c40be8,62bbfa0f76c1b7c44c51f82e,2022-06-29_10h07.18.786,Colour_Asymmetry_Pilot,2022.1.3,Win32,29.94280923,62bbe60bf3d75ef465d3e404,0,45,45,138,1,twoone,,,,,,,,,,,,,,,,,,,,,,,,,,,,,,,,,,,,,,,,,,,,,,,,,,,,,,,,,,,,,,,,,,,,,,,,,,,,,,,,,,,,,,,,,,,,,,,,,,,,,,,,,,,,,,,,,,,,,,,,,,,,,,,,,,,,,,,,,,,,,,,,,,,,,,,,
,,,,,,60871d7dcbf3bd9bf2c40be8,62bbfa0f76c1b7c44c51f82e,2022-06-29_10h07.18.786,Colour_Asymmetry_Pilot,2022.1.3,Win32,29.94280923,62bbe60bf3d75ef465d3e404,0,46,46,39,1,fourthree,,,,,,,,,,,,,,,,,,,,,,,,,,,,,,,,,,,,,,,,,,,,,,,,,,,,,,,,,,,,,,,,,,,,,,,,,,,,,,,,,,,,,,,,,,,,,,,,,,,,,,,,,,,,,,,,,,,,,,,,,,,,,,,,,,,,,,,,,,,,,,,,,,,,,,,,
,,,,,,60871d7dcbf3bd9bf2c40be8,62bbfa0f76c1b7c44c51f82e,2022-06-29_10h07.18.786,Colour_Asymmetry_Pilot,2022.1.3,Win32,29.94280923,62bbe60bf3d75ef465d3e404,0,47,47,46,1,fourtwo,,,,,,,,,,,,,,,,,,,,,,,,,,,,,,,,,,,,,,,,,,,,,,,,,,,,,,,,,,,,,,,,,,,,,,,,,,,,,,,,,,,,,,,,,,,,,,,,,,,,,,,,,,,,,,,,,,,,,,,,,,,,,,,,,,,,,,,,,,,,,,,,,,,,,,,,
,,,,,,60871d7dcbf3bd9bf2c40be8,62bbfa0f76c1b7c44c51f82e,2022-06-29_10h07.18.786,Colour_Asymmetry_Pilot,2022.1.3,Win32,29.94280923,62bbe60bf3d75ef465d3e404,0,48,48,57,1,onethree,,,,,,,,,,,,,,,,,,,,,,,,,,,,,,,,,,,,,,,,,,,,,,,,,,,,,,,,,,,,,,,,,,,,,,,,,,,,,,,,,,,,,,,,,,,,,,,,,,,,,,,,,,,,,,,,,,,,,,,,,,,,,,,,,,,,,,,,,,,,,,,,,,,,,,,,
,,,,,,60871d7dcbf3bd9bf2c40be8,62bbfa0f76c1b7c44c51f82e,2022-06-29_10h07.18.786,Colour_Asymmetry_Pilot,2022.1.3,Win32,29.94280923,62bbe60bf3d75ef465d3e404,0,49,49,89,1,onethree,,,,,,,,,,,,,,,,,,,,,,,,,,,,,,,,,,,,,,,,,,,,,,,,,,,,,,,,,,,,,,,,,,,,,,,,,,,,,,,,,,,,,,,,,,,,,,,,,,,,,,,,,,,,,,,,,,,,,,,,,,,,,,,,,,,,,,,,,,,,,,,,,,,,,,,,
,,,,,,60871d7dcbf3bd9bf2c40be8,62bbfa0f76c1b7c44c51f82e,2022-06-29_10h07.18.786,Colour_Asymmetry_Pilot,2022.1.3,Win32,29.94280923,62bbe60bf3d75ef465d3e404,0,50,50,114,1,twoone,,,,,,,,,,,,,,,,,,,,,,,,,,,,,,,,,,,,,,,,,,,,,,,,,,,,,,,,,,,,,,,,,,,,,,,,,,,,,,,,,,,,,,,,,,,,,,,,,,,,,,,,,,,,,,,,,,,,,,,,,,,,,,,,,,,,,,,,,,,,,,,,,,,,,,,,
,,,,,,60871d7dcbf3bd9bf2c40be8,62bbfa0f76c1b7c44c51f82e,2022-06-29_10h07.18.786,Colour_Asymmetry_Pilot,2022.1.3,Win32,29.94280923,62bbe60bf3d75ef465d3e404,0,51,51,67,1,twofour,,,,,,,,,,,,,,,,,,,,,,,,,,,,,,,,,,,,,,,,,,,,,,,,,,,,,,,,,,,,,,,,,,,,,,,,,,,,,,,,,,,,,,,,,,,,,,,,,,,,,,,,,,,,,,,,,,,,,,,,,,,,,,,,,,,,,,,,,,,,,,,,,,,,,,,,
,,,,,,60871d7dcbf3bd9bf2c40be8,62bbfa0f76c1b7c44c51f82e,2022-06-29_10h07.18.786,Colour_Asymmetry_Pilot,2022.1.3,Win32,29.94280923,62bbe60bf3d75ef465d3e404,0,52,52,3,1,twofour,,,,,,,,,,,,,,,,,,,,,,,,,,,,,,,,,,,,,,,,,,,,,,,,,,,,,,,,,,,,,,,,,,,,,,,,,,,,,,,,,,,,,,,,,,,,,,,,,,,,,,,,,,,,,,,,,,,,,,,,,,,,,,,,,,,,,,,,,,,,,,,,,,,,,,,,
,,,,,,60871d7dcbf3bd9bf2c40be8,62bbfa0f76c1b7c44c51f82e,2022-06-29_10h07.18.786,Colour_Asymmetry_Pilot,2022.1.3,Win32,29.94280923,62bbe60bf3d75ef465d3e404,0,53,53,42,1,twoone,,,,,,,,,,,,,,,,,,,,,,,,,,,,,,,,,,,,,,,,,,,,,,,,,,,,,,,,,,,,,,,,,,,,,,,,,,,,,,,,,,,,,,,,,,,,,,,,,,,,,,,,,,,,,,,,,,,,,,,,,,,,,,,,,,,,,,,,,,,,,,,,,,,,,,,,
,,,,,,60871d7dcbf3bd9bf2c40be8,62bbfa0f76c1b7c44c51f82e,2022-06-29_10h07.18.786,Colour_Asymmetry_Pilot,2022.1.3,Win32,29.94280923,62bbe60bf3d75ef465d3e404,0,54,54,0,1,onetwo,,,,,,,,,,,,,,,,,,,,,,,,,,,,,,,,,,,,,,,,,,,,,,,,,,,,,,,,,,,,,,,,,,,,,,,,,,,,,,,,,,,,,,,,,,,,,,,,,,,,,,,,,,,,,,,,,,,,,,,,,,,,,,,,,,,,,,,,,,,,,,,,,,,,,,,,
,,,,,,60871d7dcbf3bd9bf2c40be8,62bbfa0f76c1b7c44c51f82e,2022-06-29_10h07.18.786,Colour_Asymmetry_Pilot,2022.1.3,Win32,29.94280923,62bbe60bf3d75ef465d3e404,0,55,55,132,1,threeone,,,,,,,,,,,,,,,,,,,,,,,,,,,,,,,,,,,,,,,,,,,,,,,,,,,,,,,,,,,,,,,,,,,,,,,,,,,,,,,,,,,,,,,,,,,,,,,,,,,,,,,,,,,,,,,,,,,,,,,,,,,,,,,,,,,,,,,,,,,,,,,,,,,,,,,,
,,,,,,60871d7dcbf3bd9bf2c40be8,62bbfa0f76c1b7c44c51f82e,2022-06-29_10h07.18.786,Colour_Asymmetry_Pilot,2022.1.3,Win32,29.94280923,62bbe60bf3d75ef465d3e404,0,56,56,74,1,twoone,,,,,,,,,,,,,,,,,,,,,,,,,,,,,,,,,,,,,,,,,,,,,,,,,,,,,,,,,,,,,,,,,,,,,,,,,,,,,,,,,,,,,,,,,,,,,,,,,,,,,,,,,,,,,,,,,,,,,,,,,,,,,,,,,,,,,,,,,,,,,,,,,,,,,,,,
,,,,,,60871d7dcbf3bd9bf2c40be8,62bbfa0f76c1b7c44c51f82e,2022-06-29_10h07.18.786,Colour_Asymmetry_Pilot,2022.1.3,Win32,29.94280923,62bbe60bf3d75ef465d3e404,0,57,57,134,1,fourtwo,,,,,,,,,,,,,,,,,,,,,,,,,,,,,,,,,,,,,,,,,,,,,,,,,,,,,,,,,,,,,,,,,,,,,,,,,,,,,,,,,,,,,,,,,,,,,,,,,,,,,,,,,,,,,,,,,,,,,,,,,,,,,,,,,,,,,,,,,,,,,,,,,,,,,,,,
,,,,,,60871d7dcbf3bd9bf2c40be8,62bbfa0f76c1b7c44c51f82e,2022-06-29_10h07.18.786,Colour_Asymmetry_Pilot,2022.1.3,Win32,29.94280923,62bbe60bf3d75ef465d3e404,0,58,58,32,1,onetwo,,,,,,,,,,,,,,,,,,,,,,,,,,,,,,,,,,,,,,,,,,,,,,,,,,,,,,,,,,,,,,,,,,,,,,,,,,,,,,,,,,,,,,,,,,,,,,,,,,,,,,,,,,,,,,,,,,,,,,,,,,,,,,,,,,,,,,,,,,,,,,,,,,,,,,,,
,,,,,,60871d7dcbf3bd9bf2c40be8,62bbfa0f76c1b7c44c51f82e,2022-06-29_10h07.18.786,Colour_Asymmetry_Pilot,2022.1.3,Win32,29.94280923,62bbe60bf3d75ef465d3e404,0,59,59,159,1,fourthree,,,,,,,,,,,,,,,,,,,,,,,,,,,,,,,,,,,,,,,,,,,,,,,,,,,,,,,,,,,,,,,,,,,,,,,,,,,,,,,,,,,,,,,,,,,,,,,,,,,,,,,,,,,,,,,,,,,,,,,,,,,,,,,,,,,,,,,,,,,,,,,,,,,,,,,,
,,,,,,60871d7dcbf3bd9bf2c40be8,62bbfa0f76c1b7c44c51f82e,2022-06-29_10h07.18.786,Colour_Asymmetry_Pilot,2022.1.3,Win32,29.94280923,62bbe60bf3d75ef465d3e404,0,60,60,69,1,threefour,,,,,,,,,,,,,,,,,,,,,,,,,,,,,,,,,,,,,,,,,,,,,,,,,,,,,,,,,,,,,,,,,,,,,,,,,,,,,,,,,,,,,,,,,,,,,,,,,,,,,,,,,,,,,,,,,,,,,,,,,,,,,,,,,,,,,,,,,,,,,,,,,,,,,,,,
,,,,,,60871d7dcbf3bd9bf2c40be8,62bbfa0f76c1b7c44c51f82e,2022-06-29_10h07.18.786,Colour_Asymmetry_Pilot,2022.1.3,Win32,29.94280923,62bbe60bf3d75ef465d3e404,0,61,61,136,1,onetwo,,,,,,,,,,,,,,,,,,,,,,,,,,,,,,,,,,,,,,,,,,,,,,,,,,,,,,,,,,,,,,,,,,,,,,,,,,,,,,,,,,,,,,,,,,,,,,,,,,,,,,,,,,,,,,,,,,,,,,,,,,,,,,,,,,,,,,,,,,,,,,,,,,,,,,,,
,,,,,,60871d7dcbf3bd9bf2c40be8,62bbfa0f76c1b7c44c51f82e,2022-06-29_10h07.18.786,Colour_Asymmetry_Pilot,2022.1.3,Win32,29.94280923,62bbe60bf3d75ef465d3e404,0,62,62,49,1,onethree,,,,,,,,,,,,,,,,,,,,,,,,,,,,,,,,,,,,,,,,,,,,,,,,,,,,,,,,,,,,,,,,,,,,,,,,,,,,,,,,,,,,,,,,,,,,,,,,,,,,,,,,,,,,,,,,,,,,,,,,,,,,,,,,,,,,,,,,,,,,,,,,,,,,,,,,
,,,,,,60871d7dcbf3bd9bf2c40be8,62bbfa0f76c1b7c44c51f82e,2022-06-29_10h07.18.786,Colour_Asymmetry_Pilot,2022.1.3,Win32,29.94280923,62bbe60bf3d75ef465d3e404,0,63,63,86,1,fourtwo,,,,,,,,,,,,,,,,,,,,,,,,,,,,,,,,,,,,,,,,,,,,,,,,,,,,,,,,,,,,,,,,,,,,,,,,,,,,,,,,,,,,,,,,,,,,,,,,,,,,,,,,,,,,,,,,,,,,,,,,,,,,,,,,,,,,,,,,,,,,,,,,,,,,,,,,
,,,,,,60871d7dcbf3bd9bf2c40be8,62bbfa0f76c1b7c44c51f82e,2022-06-29_10h07.18.786,Colour_Asymmetry_Pilot,2022.1.3,Win32,29.94280923,62bbe60bf3d75ef465d3e404,0,64,64,150,1,fourtwo,,,,,,,,,,,,,,,,,,,,,,,,,,,,,,,,,,,,,,,,,,,,,,,,,,,,,,,,,,,,,,,,,,,,,,,,,,,,,,,,,,,,,,,,,,,,,,,,,,,,,,,,,,,,,,,,,,,,,,,,,,,,,,,,,,,,,,,,,,,,,,,,,,,,,,,,
,,,,,,60871d7dcbf3bd9bf2c40be8,62bbfa0f76c1b7c44c51f82e,2022-06-29_10h07.18.786,Colour_Asymmetry_Pilot,2022.1.3,Win32,29.94280923,62bbe60bf3d75ef465d3e404,0,65,65,73,1,onethree,,,,,,,,,,,,,,,,,,,,,,,,,,,,,,,,,,,,,,,,,,,,,,,,,,,,,,,,,,,,,,,,,,,,,,,,,,,,,,,,,,,,,,,,,,,,,,,,,,,,,,,,,,,,,,,,,,,,,,,,,,,,,,,,,,,,,,,,,,,,,,,,,,,,,,,,
,,,,,,60871d7dcbf3bd9bf2c40be8,62bbfa0f76c1b7c44c51f82e,2022-06-29_10h07.18.786,Colour_Asymmetry_Pilot,2022.1.3,Win32,29.94280923,62bbe60bf3d75ef465d3e404,0,66,66,59,1,twofour,,,,,,,,,,,,,,,,,,,,,,,,,,,,,,,,,,,,,,,,,,,,,,,,,,,,,,,,,,,,,,,,,,,,,,,,,,,,,,,,,,,,,,,,,,,,,,,,,,,,,,,,,,,,,,,,,,,,,,,,,,,,,,,,,,,,,,,,,,,,,,,,,,,,,,,,
,,,,,,60871d7dcbf3bd9bf2c40be8,62bbfa0f76c1b7c44c51f82e,2022-06-29_10h07.18.786,Colour_Asymmetry_Pilot,2022.1.3,Win32,29.94280923,62bbe60bf3d75ef465d3e404,0,67,67,151,1,fourthree,,,,,,,,,,,,,,,,,,,,,,,,,,,,,,,,,,,,,,,,,,,,,,,,,,,,,,,,,,,,,,,,,,,,,,,,,,,,,,,,,,,,,,,,,,,,,,,,,,,,,,,,,,,,,,,,,,,,,,,,,,,,,,,,,,,,,,,,,,,,,,,,,,,,,,,,
,,,,,,60871d7dcbf3bd9bf2c40be8,62bbfa0f76c1b7c44c51f82e,2022-06-29_10h07.18.786,Colour_Asymmetry_Pilot,2022.1.3,Win32,29.94280923,62bbe60bf3d75ef465d3e404,0,68,68,5,1,threefour,,,,,,,,,,,,,,,,,,,,,,,,,,,,,,,,,,,,,,,,,,,,,,,,,,,,,,,,,,,,,,,,,,,,,,,,,,,,,,,,,,,,,,,,,,,,,,,,,,,,,,,,,,,,,,,,,,,,,,,,,,,,,,,,,,,,,,,,,,,,,,,,,,,,,,,,
,,,,,,60871d7dcbf3bd9bf2c40be8,62bbfa0f76c1b7c44c51f82e,2022-06-29_10h07.18.786,Colour_Asymmetry_Pilot,2022.1.3,Win32,29.94280923,62bbe60bf3d75ef465d3e404,0,69,69,139,1,twofour,,,,,,,,,,,,,,,,,,,,,,,,,,,,,,,,,,,,,,,,,,,,,,,,,,,,,,,,,,,,,,,,,,,,,,,,,,,,,,,,,,,,,,,,,,,,,,,,,,,,,,,,,,,,,,,,,,,,,,,,,,,,,,,,,,,,,,,,,,,,,,,,,,,,,,,,
,,,,,,60871d7dcbf3bd9bf2c40be8,62bbfa0f76c1b7c44c51f82e,2022-06-29_10h07.18.786,Colour_Asymmetry_Pilot,2022.1.3,Win32,29.94280923,62bbe60bf3d75ef465d3e404,0,70,70,120,1,onetwo,,,,,,,,,,,,,,,,,,,,,,,,,,,,,,,,,,,,,,,,,,,,,,,,,,,,,,,,,,,,,,,,,,,,,,,,,,,,,,,,,,,,,,,,,,,,,,,,,,,,,,,,,,,,,,,,,,,,,,,,,,,,,,,,,,,,,,,,,,,,,,,,,,,,,,,,
,,,,,,60871d7dcbf3bd9bf2c40be8,62bbfa0f76c1b7c44c51f82e,2022-06-29_10h07.18.786,Colour_Asymmetry_Pilot,2022.1.3,Win32,29.94280923,62bbe60bf3d75ef465d3e404,0,71,71,66,1,twoone,,,,,,,,,,,,,,,,,,,,,,,,,,,,,,,,,,,,,,,,,,,,,,,,,,,,,,,,,,,,,,,,,,,,,,,,,,,,,,,,,,,,,,,,,,,,,,,,,,,,,,,,,,,,,,,,,,,,,,,,,,,,,,,,,,,,,,,,,,,,,,,,,,,,,,,,
,,,,,,60871d7dcbf3bd9bf2c40be8,62bbfa0f76c1b7c44c51f82e,2022-06-29_10h07.18.786,Colour_Asymmetry_Pilot,2022.1.3,Win32,29.94280923,62bbe60bf3d75ef465d3e404,0,72,72,29,1,threefour,,,,,,,,,,,,,,,,,,,,,,,,,,,,,,,,,,,,,,,,,,,,,,,,,,,,,,,,,,,,,,,,,,,,,,,,,,,,,,,,,,,,,,,,,,,,,,,,,,,,,,,,,,,,,,,,,,,,,,,,,,,,,,,,,,,,,,,,,,,,,,,,,,,,,,,,
,,,,,,60871d7dcbf3bd9bf2c40be8,62bbfa0f76c1b7c44c51f82e,2022-06-29_10h07.18.786,Colour_Asymmetry_Pilot,2022.1.3,Win32,29.94280923,62bbe60bf3d75ef465d3e404,0,73,73,109,1,threefour,,,,,,,,,,,,,,,,,,,,,,,,,,,,,,,,,,,,,,,,,,,,,,,,,,,,,,,,,,,,,,,,,,,,,,,,,,,,,,,,,,,,,,,,,,,,,,,,,,,,,,,,,,,,,,,,,,,,,,,,,,,,,,,,,,,,,,,,,,,,,,,,,,,,,,,,
,,,,,,60871d7dcbf3bd9bf2c40be8,62bbfa0f76c1b7c44c51f82e,2022-06-29_10h07.18.786,Colour_Asymmetry_Pilot,2022.1.3,Win32,29.94280923,62bbe60bf3d75ef465d3e404,0,74,74,115,1,twofour,,,,,,,,,,,,,,,,,,,,,,,,,,,,,,,,,,,,,,,,,,,,,,,,,,,,,,,,,,,,,,,,,,,,,,,,,,,,,,,,,,,,,,,,,,,,,,,,,,,,,,,,,,,,,,,,,,,,,,,,,,,,,,,,,,,,,,,,,,,,,,,,,,,,,,,,
,,,,,,60871d7dcbf3bd9bf2c40be8,62bbfa0f76c1b7c44c51f82e,2022-06-29_10h07.18.786,Colour_Asymmetry_Pilot,2022.1.3,Win32,29.94280923,62bbe60bf3d75ef465d3e404,0,75,75,50,1,twoone,,,,,,,,,,,,,,,,,,,,,,,,,,,,,,,,,,,,,,,,,,,,,,,,,,,,,,,,,,,,,,,,,,,,,,,,,,,,,,,,,,,,,,,,,,,,,,,,,,,,,,,,,,,,,,,,,,,,,,,,,,,,,,,,,,,,,,,,,,,,,,,,,,,,,,,,
,,,,,,60871d7dcbf3bd9bf2c40be8,62bbfa0f76c1b7c44c51f82e,2022-06-29_10h07.18.786,Colour_Asymmetry_Pilot,2022.1.3,Win32,29.94280923,62bbe60bf3d75ef465d3e404,0,76,76,148,1,threeone,,,,,,,,,,,,,,,,,,,,,,,,,,,,,,,,,,,,,,,,,,,,,,,,,,,,,,,,,,,,,,,,,,,,,,,,,,,,,,,,,,,,,,,,,,,,,,,,,,,,,,,,,,,,,,,,,,,,,,,,,,,,,,,,,,,,,,,,,,,,,,,,,,,,,,,,
,,,,,,60871d7dcbf3bd9bf2c40be8,62bbfa0f76c1b7c44c51f82e,2022-06-29_10h07.18.786,Colour_Asymmetry_Pilot,2022.1.3,Win32,29.94280923,62bbe60bf3d75ef465d3e404,0,77,77,161,1,onethree,,,,,,,,,,,,,,,,,,,,,,,,,,,,,,,,,,,,,,,,,,,,,,,,,,,,,,,,,,,,,,,,,,,,,,,,,,,,,,,,,,,,,,,,,,,,,,,,,,,,,,,,,,,,,,,,,,,,,,,,,,,,,,,,,,,,,,,,,,,,,,,,,,,,,,,,
,,,,,,60871d7dcbf3bd9bf2c40be8,62bbfa0f76c1b7c44c51f82e,2022-06-29_10h07.18.786,Colour_Asymmetry_Pilot,2022.1.3,Win32,29.94280923,62bbe60bf3d75ef465d3e404,0,78,78,58,1,twoone,,,,,,,,,,,,,,,,,,,,,,,,,,,,,,,,,,,,,,,,,,,,,,,,,,,,,,,,,,,,,,,,,,,,,,,,,,,,,,,,,,,,,,,,,,,,,,,,,,,,,,,,,,,,,,,,,,,,,,,,,,,,,,,,,,,,,,,,,,,,,,,,,,,,,,,,
,,,,,,60871d7dcbf3bd9bf2c40be8,62bbfa0f76c1b7c44c51f82e,2022-06-29_10h07.18.786,Colour_Asymmetry_Pilot,2022.1.3,Win32,29.94280923,62bbe60bf3d75ef465d3e404,0,79,79,156,1,threeone,,,,,,,,,,,,,,,,,,,,,,,,,,,,,,,,,,,,,,,,,,,,,,,,,,,,,,,,,,,,,,,,,,,,,,,,,,,,,,,,,,,,,,,,,,,,,,,,,,,,,,,,,,,,,,,,,,,,,,,,,,,,,,,,,,,,,,,,,,,,,,,,,,,,,,,,
,,,,,,60871d7dcbf3bd9bf2c40be8,62bbfa0f76c1b7c44c51f82e,2022-06-29_10h07.18.786,Colour_Asymmetry_Pilot,2022.1.3,Win32,29.94280923,62bbe60bf3d75ef465d3e404,0,80,80,11,1,twofour,,,,,,,,,,,,,,,,,,,,,,,,,,,,,,,,,,,,,,,,,,,,,,,,,,,,,,,,,,,,,,,,,,,,,,,,,,,,,,,,,,,,,,,,,,,,,,,,,,,,,,,,,,,,,,,,,,,,,,,,,,,,,,,,,,,,,,,,,,,,,,,,,,,,,,,,
,,,,,,60871d7dcbf3bd9bf2c40be8,62bbfa0f76c1b7c44c51f82e,2022-06-29_10h07.18.786,Colour_Asymmetry_Pilot,2022.1.3,Win32,29.94280923,62bbe60bf3d75ef465d3e404,0,81,81,107,1,twofour,,,,,,,,,,,,,,,,,,,,,,,,,,,,,,,,,,,,,,,,,,,,,,,,,,,,,,,,,,,,,,,,,,,,,,,,,,,,,,,,,,,,,,,,,,,,,,,,,,,,,,,,,,,,,,,,,,,,,,,,,,,,,,,,,,,,,,,,,,,,,,,,,,,,,,,,
,,,,,,60871d7dcbf3bd9bf2c40be8,62bbfa0f76c1b7c44c51f82e,2022-06-29_10h07.18.786,Colour_Asymmetry_Pilot,2022.1.3,Win32,29.94280923,62bbe60bf3d75ef465d3e404,0,82,82,84,1,threeone,,,,,,,,,,,,,,,,,,,,,,,,,,,,,,,,,,,,,,,,,,,,,,,,,,,,,,,,,,,,,,,,,,,,,,,,,,,,,,,,,,,,,,,,,,,,,,,,,,,,,,,,,,,,,,,,,,,,,,,,,,,,,,,,,,,,,,,,,,,,,,,,,,,,,,,,
,,,,,,60871d7dcbf3bd9bf2c40be8,62bbfa0f76c1b7c44c51f82e,2022-06-29_10h07.18.786,Colour_Asymmetry_Pilot,2022.1.3,Win32,29.94280923,62bbe60bf3d75ef465d3e404,0,83,83,21,1,threefour,,,,,,,,,,,,,,,,,,,,,,,,,,,,,,,,,,,,,,,,,,,,,,,,,,,,,,,,,,,,,,,,,,,,,,,,,,,,,,,,,,,,,,,,,,,,,,,,,,,,,,,,,,,,,,,,,,,,,,,,,,,,,,,,,,,,,,,,,,,,,,,,,,,,,,,,
,,,,,,60871d7dcbf3bd9bf2c40be8,62bbfa0f76c1b7c44c51f82e,2022-06-29_10h07.18.786,Colour_Asymmetry_Pilot,2022.1.3,Win32,29.94280923,62bbe60bf3d75ef465d3e404,0,84,84,118,1,fourtwo,,,,,,,,,,,,,,,,,,,,,,,,,,,,,,,,,,,,,,,,,,,,,,,,,,,,,,,,,,,,,,,,,,,,,,,,,,,,,,,,,,,,,,,,,,,,,,,,,,,,,,,,,,,,,,,,,,,,,,,,,,,,,,,,,,,,,,,,,,,,,,,,,,,,,,,,
,,,,,,60871d7dcbf3bd9bf2c40be8,62bbfa0f76c1b7c44c51f82e,2022-06-29_10h07.18.786,Colour_Asymmetry_Pilot,2022.1.3,Win32,29.94280923,62bbe60bf3d75ef465d3e404,0,85,85,129,1,onethree,,,,,,,,,,,,,,,,,,,,,,,,,,,,,,,,,,,,,,,,,,,,,,,,,,,,,,,,,,,,,,,,,,,,,,,,,,,,,,,,,,,,,,,,,,,,,,,,,,,,,,,,,,,,,,,,,,,,,,,,,,,,,,,,,,,,,,,,,,,,,,,,,,,,,,,,
,,,,,,60871d7dcbf3bd9bf2c40be8,62bbfa0f76c1b7c44c51f82e,2022-06-29_10h07.18.786,Colour_Asymmetry_Pilot,2022.1.3,Win32,29.94280923,62bbe60bf3d75ef465d3e404,0,86,86,94,1,fourtwo,,,,,,,,,,,,,,,,,,,,,,,,,,,,,,,,,,,,,,,,,,,,,,,,,,,,,,,,,,,,,,,,,,,,,,,,,,,,,,,,,,,,,,,,,,,,,,,,,,,,,,,,,,,,,,,,,,,,,,,,,,,,,,,,,,,,,,,,,,,,,,,,,,,,,,,,
,,,,,,60871d7dcbf3bd9bf2c40be8,62bbfa0f76c1b7c44c51f82e,2022-06-29_10h07.18.786,Colour_Asymmetry_Pilot,2022.1.3,Win32,29.94280923,62bbe60bf3d75ef465d3e404,0,87,87,48,1,onetwo,,,,,,,,,,,,,,,,,,,,,,,,,,,,,,,,,,,,,,,,,,,,,,,,,,,,,,,,,,,,,,,,,,,,,,,,,,,,,,,,,,,,,,,,,,,,,,,,,,,,,,,,,,,,,,,,,,,,,,,,,,,,,,,,,,,,,,,,,,,,,,,,,,,,,,,,
,,,,,,60871d7dcbf3bd9bf2c40be8,62bbfa0f76c1b7c44c51f82e,2022-06-29_10h07.18.786,Colour_Asymmetry_Pilot,2022.1.3,Win32,29.94280923,62bbe60bf3d75ef465d3e404,0,88,88,56,1,onetwo,,,,,,,,,,,,,,,,,,,,,,,,,,,,,,,,,,,,,,,,,,,,,,,,,,,,,,,,,,,,,,,,,,,,,,,,,,,,,,,,,,,,,,,,,,,,,,,,,,,,,,,,,,,,,,,,,,,,,,,,,,,,,,,,,,,,,,,,,,,,,,,,,,,,,,,,
,,,,,,60871d7dcbf3bd9bf2c40be8,62bbfa0f76c1b7c44c51f82e,2022-06-29_10h07.18.786,Colour_Asymmetry_Pilot,2022.1.3,Win32,29.94280923,62bbe60bf3d75ef465d3e404,0,89,89,76,1,threeone,,,,,,,,,,,,,,,,,,,,,,,,,,,,,,,,,,,,,,,,,,,,,,,,,,,,,,,,,,,,,,,,,,,,,,,,,,,,,,,,,,,,,,,,,,,,,,,,,,,,,,,,,,,,,,,,,,,,,,,,,,,,,,,,,,,,,,,,,,,,,,,,,,,,,,,,
,,,,,,60871d7dcbf3bd9bf2c40be8,62bbfa0f76c1b7c44c51f82e,2022-06-29_10h07.18.786,Colour_Asymmetry_Pilot,2022.1.3,Win32,29.94280923,62bbe60bf3d75ef465d3e404,0,90,90,61,1,threefour,,,,,,,,,,,,,,,,,,,,,,,,,,,,,,,,,,,,,,,,,,,,,,,,,,,,,,,,,,,,,,,,,,,,,,,,,,,,,,,,,,,,,,,,,,,,,,,,,,,,,,,,,,,,,,,,,,,,,,,,,,,,,,,,,,,,,,,,,,,,,,,,,,,,,,,,
,,,,,,60871d7dcbf3bd9bf2c40be8,62bbfa0f76c1b7c44c51f82e,2022-06-29_10h07.18.786,Colour_Asymmetry_Pilot,2022.1.3,Win32,29.94280923,62bbe60bf3d75ef465d3e404,0,91,91,145,1,onethree,,,,,,,,,,,,,,,,,,,,,,,,,,,,,,,,,,,,,,,,,,,,,,,,,,,,,,,,,,,,,,,,,,,,,,,,,,,,,,,,,,,,,,,,,,,,,,,,,,,,,,,,,,,,,,,,,,,,,,,,,,,,,,,,,,,,,,,,,,,,,,,,,,,,,,,,
,,,,,,60871d7dcbf3bd9bf2c40be8,62bbfa0f76c1b7c44c51f82e,2022-06-29_10h07.18.786,Colour_Asymmetry_Pilot,2022.1.3,Win32,29.94280923,62bbe60bf3d75ef465d3e404,0,92,92,143,1,fourthree,,,,,,,,,,,,,,,,,,,,,,,,,,,,,,,,,,,,,,,,,,,,,,,,,,,,,,,,,,,,,,,,,,,,,,,,,,,,,,,,,,,,,,,,,,,,,,,,,,,,,,,,,,,,,,,,,,,,,,,,,,,,,,,,,,,,,,,,,,,,,,,,,,,,,,,,
,,,,,,60871d7dcbf3bd9bf2c40be8,62bbfa0f76c1b7c44c51f82e,2022-06-29_10h07.18.786,Colour_Asymmetry_Pilot,2022.1.3,Win32,29.94280923,62bbe60bf3d75ef465d3e404,0,93,93,26,1,twoone,,,,,,,,,,,,,,,,,,,,,,,,,,,,,,,,,,,,,,,,,,,,,,,,,,,,,,,,,,,,,,,,,,,,,,,,,,,,,,,,,,,,,,,,,,,,,,,,,,,,,,,,,,,,,,,,,,,,,,,,,,,,,,,,,,,,,,,,,,,,,,,,,,,,,,,,
,,,,,,60871d7dcbf3bd9bf2c40be8,62bbfa0f76c1b7c44c51f82e,2022-06-29_10h07.18.786,Colour_Asymmetry_Pilot,2022.1.3,Win32,29.94280923,62bbe60bf3d75ef465d3e404,0,94,94,70,1,fourtwo,,,,,,,,,,,,,,,,,,,,,,,,,,,,,,,,,,,,,,,,,,,,,,,,,,,,,,,,,,,,,,,,,,,,,,,,,,,,,,,,,,,,,,,,,,,,,,,,,,,,,,,,,,,,,,,,,,,,,,,,,,,,,,,,,,,,,,,,,,,,,,,,,,,,,,,,
,,,,,,60871d7dcbf3bd9bf2c40be8,62bbfa0f76c1b7c44c51f82e,2022-06-29_10h07.18.786,Colour_Asymmetry_Pilot,2022.1.3,Win32,29.94280923,62bbe60bf3d75ef465d3e404,0,95,95,97,1,onethree,,,,,,,,,,,,,,,,,,,,,,,,,,,,,,,,,,,,,,,,,,,,,,,,,,,,,,,,,,,,,,,,,,,,,,,,,,,,,,,,,,,,,,,,,,,,,,,,,,,,,,,,,,,,,,,,,,,,,,,,,,,,,,,,,,,,,,,,,,,,,,,,,,,,,,,,
,,,,,,60871d7dcbf3bd9bf2c40be8,62bbfa0f76c1b7c44c51f82e,2022-06-29_10h07.18.786,Colour_Asymmetry_Pilot,2022.1.3,Win32,29.94280923,62bbe60bf3d75ef465d3e404,0,96,96,92,1,threeone,,,,,,,,,,,,,,,,,,,,,,,,,,,,,,,,,,,,,,,,,,,,,,,,,,,,,,,,,,,,,,,,,,,,,,,,,,,,,,,,,,,,,,,,,,,,,,,,,,,,,,,,,,,,,,,,,,,,,,,,,,,,,,,,,,,,,,,,,,,,,,,,,,,,,,,,
,,,,,,60871d7dcbf3bd9bf2c40be8,62bbfa0f76c1b7c44c51f82e,2022-06-29_10h07.18.786,Colour_Asymmetry_Pilot,2022.1.3,Win32,29.94280923,62bbe60bf3d75ef465d3e404,0,97,97,122,1,twoone,,,,,,,,,,,,,,,,,,,,,,,,,,,,,,,,,,,,,,,,,,,,,,,,,,,,,,,,,,,,,,,,,,,,,,,,,,,,,,,,,,,,,,,,,,,,,,,,,,,,,,,,,,,,,,,,,,,,,,,,,,,,,,,,,,,,,,,,,,,,,,,,,,,,,,,,
,,,,,,60871d7dcbf3bd9bf2c40be8,62bbfa0f76c1b7c44c51f82e,2022-06-29_10h07.18.786,Colour_Asymmetry_Pilot,2022.1.3,Win32,29.94280923,62bbe60bf3d75ef465d3e404,0,98,98,36,1,threeone,,,,,,,,,,,,,,,,,,,,,,,,,,,,,,,,,,,,,,,,,,,,,,,,,,,,,,,,,,,,,,,,,,,,,,,,,,,,,,,,,,,,,,,,,,,,,,,,,,,,,,,,,,,,,,,,,,,,,,,,,,,,,,,,,,,,,,,,,,,,,,,,,,,,,,,,
,,,,,,60871d7dcbf3bd9bf2c40be8,62bbfa0f76c1b7c44c51f82e,2022-06-29_10h07.18.786,Colour_Asymmetry_Pilot,2022.1.3,Win32,29.94280923,62bbe60bf3d75ef465d3e404,0,99,99,80,1,onetwo,,,,,,,,,,,,,,,,,,,,,,,,,,,,,,,,,,,,,,,,,,,,,,,,,,,,,,,,,,,,,,,,,,,,,,,,,,,,,,,,,,,,,,,,,,,,,,,,,,,,,,,,,,,,,,,,,,,,,,,,,,,,,,,,,,,,,,,,,,,,,,,,,,,,,,,,
,,,,,,60871d7dcbf3bd9bf2c40be8,62bbfa0f76c1b7c44c51f82e,2022-06-29_10h07.18.786,Colour_Asymmetry_Pilot,2022.1.3,Win32,29.94280923,62bbe60bf3d75ef465d3e404,0,100,100,9,1,onethree,,,,,,,,,,,,,,,,,,,,,,,,,,,,,,,,,,,,,,,,,,,,,,,,,,,,,,,,,,,,,,,,,,,,,,,,,,,,,,,,,,,,,,,,,,,,,,,,,,,,,,,,,,,,,,,,,,,,,,,,,,,,,,,,,,,,,,,,,,,,,,,,,,,,,,,,
,,,,,,60871d7dcbf3bd9bf2c40be8,62bbfa0f76c1b7c44c51f82e,2022-06-29_10h07.18.786,Colour_Asymmetry_Pilot,2022.1.3,Win32,29.94280923,62bbe60bf3d75ef465d3e404,0,101,101,38,1,fourtwo,,,,,,,,,,,,,,,,,,,,,,,,,,,,,,,,,,,,,,,,,,,,,,,,,,,,,,,,,,,,,,,,,,,,,,,,,,,,,,,,,,,,,,,,,,,,,,,,,,,,,,,,,,,,,,,,,,,,,,,,,,,,,,,,,,,,,,,,,,,,,,,,,,,,,,,,
,,,,,,60871d7dcbf3bd9bf2c40be8,62bbfa0f76c1b7c44c51f82e,2022-06-29_10h07.18.786,Colour_Asymmetry_Pilot,2022.1.3,Win32,29.94280923,62bbe60bf3d75ef465d3e404,0,102,102,85,1,threefour,,,,,,,,,,,,,,,,,,,,,,,,,,,,,,,,,,,,,,,,,,,,,,,,,,,,,,,,,,,,,,,,,,,,,,,,,,,,,,,,,,,,,,,,,,,,,,,,,,,,,,,,,,,,,,,,,,,,,,,,,,,,,,,,,,,,,,,,,,,,,,,,,,,,,,,,
,,,,,,60871d7dcbf3bd9bf2c40be8,62bbfa0f76c1b7c44c51f82e,2022-06-29_10h07.18.786,Colour_Asymmetry_Pilot,2022.1.3,Win32,29.94280923,62bbe60bf3d75ef465d3e404,0,103,103,22,1,fourtwo,,,,,,,,,,,,,,,,,,,,,,,,,,,,,,,,,,,,,,,,,,,,,,,,,,,,,,,,,,,,,,,,,,,,,,,,,,,,,,,,,,,,,,,,,,,,,,,,,,,,,,,,,,,,,,,,,,,,,,,,,,,,,,,,,,,,,,,,,,,,,,,,,,,,,,,,
,,,,,,60871d7dcbf3bd9bf2c40be8,62bbfa0f76c1b7c44c51f82e,2022-06-29_10h07.18.786,Colour_Asymmetry_Pilot,2022.1.3,Win32,29.94280923,62bbe60bf3d75ef465d3e404,0,104,104,41,1,onethree,,,,,,,,,,,,,,,,,,,,,,,,,,,,,,,,,,,,,,,,,,,,,,,,,,,,,,,,,,,,,,,,,,,,,,,,,,,,,,,,,,,,,,,,,,,,,,,,,,,,,,,,,,,,,,,,,,,,,,,,,,,,,,,,,,,,,,,,,,,,,,,,,,,,,,,,
,,,,,,60871d7dcbf3bd9bf2c40be8,62bbfa0f76c1b7c44c51f82e,2022-06-29_10h07.18.786,Colour_Asymmetry_Pilot,2022.1.3,Win32,29.94280923,62bbe60bf3d75ef465d3e404,0,105,105,8,1,onetwo,,,,,,,,,,,,,,,,,,,,,,,,,,,,,,,,,,,,,,,,,,,,,,,,,,,,,,,,,,,,,,,,,,,,,,,,,,,,,,,,,,,,,,,,,,,,,,,,,,,,,,,,,,,,,,,,,,,,,,,,,,,,,,,,,,,,,,,,,,,,,,,,,,,,,,,,
,,,,,,60871d7dcbf3bd9bf2c40be8,62bbfa0f76c1b7c44c51f82e,2022-06-29_10h07.18.786,Colour_Asymmetry_Pilot,2022.1.3,Win32,29.94280923,62bbe60bf3d75ef465d3e404,0,106,106,82,1,twoone,,,,,,,,,,,,,,,,,,,,,,,,,,,,,,,,,,,,,,,,,,,,,,,,,,,,,,,,,,,,,,,,,,,,,,,,,,,,,,,,,,,,,,,,,,,,,,,,,,,,,,,,,,,,,,,,,,,,,,,,,,,,,,,,,,,,,,,,,,,,,,,,,,,,,,,,
,,,,,,60871d7dcbf3bd9bf2c40be8,62bbfa0f76c1b7c44c51f82e,2022-06-29_10h07.18.786,Colour_Asymmetry_Pilot,2022.1.3,Win32,29.94280923,62bbe60bf3d75ef465d3e404,0,107,107,78,1,fourtwo,,,,,,,,,,,,,,,,,,,,,,,,,,,,,,,,,,,,,,,,,,,,,,,,,,,,,,,,,,,,,,,,,,,,,,,,,,,,,,,,,,,,,,,,,,,,,,,,,,,,,,,,,,,,,,,,,,,,,,,,,,,,,,,,,,,,,,,,,,,,,,,,,,,,,,,,
,,,,,,60871d7dcbf3bd9bf2c40be8,62bbfa0f76c1b7c44c51f82e,2022-06-29_10h07.18.786,Colour_Asymmetry_Pilot,2022.1.3,Win32,29.94280923,62bbe60bf3d75ef465d3e404,0,108,108,130,1,twoone,,,,,,,,,,,,,,,,,,,,,,,,,,,,,,,,,,,,,,,,,,,,,,,,,,,,,,,,,,,,,,,,,,,,,,,,,,,,,,,,,,,,,,,,,,,,,,,,,,,,,,,,,,,,,,,,,,,,,,,,,,,,,,,,,,,,,,,,,,,,,,,,,,,,,,,,
,,,,,,60871d7dcbf3bd9bf2c40be8,62bbfa0f76c1b7c44c51f82e,2022-06-29_10h07.18.786,Colour_Asymmetry_Pilot,2022.1.3,Win32,29.94280923,62bbe60bf3d75ef465d3e404,0,109,109,64,1,onetwo,,,,,,,,,,,,,,,,,,,,,,,,,,,,,,,,,,,,,,,,,,,,,,,,,,,,,,,,,,,,,,,,,,,,,,,,,,,,,,,,,,,,,,,,,,,,,,,,,,,,,,,,,,,,,,,,,,,,,,,,,,,,,,,,,,,,,,,,,,,,,,,,,,,,,,,,
,,,,,,60871d7dcbf3bd9bf2c40be8,62bbfa0f76c1b7c44c51f82e,2022-06-29_10h07.18.786,Colour_Asymmetry_Pilot,2022.1.3,Win32,29.94280923,62bbe60bf3d75ef465d3e404,0,110,110,19,1,twofour,,,,,,,,,,,,,,,,,,,,,,,,,,,,,,,,,,,,,,,,,,,,,,,,,,,,,,,,,,,,,,,,,,,,,,,,,,,,,,,,,,,,,,,,,,,,,,,,,,,,,,,,,,,,,,,,,,,,,,,,,,,,,,,,,,,,,,,,,,,,,,,,,,,,,,,,
,,,,,,60871d7dcbf3bd9bf2c40be8,62bbfa0f76c1b7c44c51f82e,2022-06-29_10h07.18.786,Colour_Asymmetry_Pilot,2022.1.3,Win32,29.94280923,62bbe60bf3d75ef465d3e404,0,111,111,71,1,fourthree,,,,,,,,,,,,,,,,,,,,,,,,,,,,,,,,,,,,,,,,,,,,,,,,,,,,,,,,,,,,,,,,,,,,,,,,,,,,,,,,,,,,,,,,,,,,,,,,,,,,,,,,,,,,,,,,,,,,,,,,,,,,,,,,,,,,,,,,,,,,,,,,,,,,,,,,
,,,,,,60871d7dcbf3bd9bf2c40be8,62bbfa0f76c1b7c44c51f82e,2022-06-29_10h07.18.786,Colour_Asymmetry_Pilot,2022.1.3,Win32,29.94280923,62bbe60bf3d75ef465d3e404,0,112,112,45,1,threefour,,,,,,,,,,,,,,,,,,,,,,,,,,,,,,,,,,,,,,,,,,,,,,,,,,,,,,,,,,,,,,,,,,,,,,,,,,,,,,,,,,,,,,,,,,,,,,,,,,,,,,,,,,,,,,,,,,,,,,,,,,,,,,,,,,,,,,,,,,,,,,,,,,,,,,,,
,,,,,,60871d7dcbf3bd9bf2c40be8,62bbfa0f76c1b7c44c51f82e,2022-06-29_10h07.18.786,Colour_Asymmetry_Pilot,2022.1.3,Win32,29.94280923,62bbe60bf3d75ef465d3e404,0,113,113,116,1,threeone,,,,,,,,,,,,,,,,,,,,,,,,,,,,,,,,,,,,,,,,,,,,,,,,,,,,,,,,,,,,,,,,,,,,,,,,,,,,,,,,,,,,,,,,,,,,,,,,,,,,,,,,,,,,,,,,,,,,,,,,,,,,,,,,,,,,,,,,,,,,,,,,,,,,,,,,
,,,,,,60871d7dcbf3bd9bf2c40be8,62bbfa0f76c1b7c44c51f82e,2022-06-29_10h07.18.786,Colour_Asymmetry_Pilot,2022.1.3,Win32,29.94280923,62bbe60bf3d75ef465d3e404,0,114,114,60,1,threeone,,,,,,,,,,,,,,,,,,,,,,,,,,,,,,,,,,,,,,,,,,,,,,,,,,,,,,,,,,,,,,,,,,,,,,,,,,,,,,,,,,,,,,,,,,,,,,,,,,,,,,,,,,,,,,,,,,,,,,,,,,,,,,,,,,,,,,,,,,,,,,,,,,,,,,,,
,,,,,,60871d7dcbf3bd9bf2c40be8,62bbfa0f76c1b7c44c51f82e,2022-06-29_10h07.18.786,Colour_Asymmetry_Pilot,2022.1.3,Win32,29.94280923,62bbe60bf3d75ef465d3e404,0,115,115,128,1,onetwo,,,,,,,,,,,,,,,,,,,,,,,,,,,,,,,,,,,,,,,,,,,,,,,,,,,,,,,,,,,,,,,,,,,,,,,,,,,,,,,,,,,,,,,,,,,,,,,,,,,,,,,,,,,,,,,,,,,,,,,,,,,,,,,,,,,,,,,,,,,,,,,,,,,,,,,,
,,,,,,60871d7dcbf3bd9bf2c40be8,62bbfa0f76c1b7c44c51f82e,2022-06-29_10h07.18.786,Colour_Asymmetry_Pilot,2022.1.3,Win32,29.94280923,62bbe60bf3d75ef465d3e404,0,116,116,154,1,twoone,,,,,,,,,,,,,,,,,,,,,,,,,,,,,,,,,,,,,,,,,,,,,,,,,,,,,,,,,,,,,,,,,,,,,,,,,,,,,,,,,,,,,,,,,,,,,,,,,,,,,,,,,,,,,,,,,,,,,,,,,,,,,,,,,,,,,,,,,,,,,,,,,,,,,,,,
,,,,,,60871d7dcbf3bd9bf2c40be8,62bbfa0f76c1b7c44c51f82e,2022-06-29_10h07.18.786,Colour_Asymmetry_Pilot,2022.1.3,Win32,29.94280923,62bbe60bf3d75ef465d3e404,0,117,117,53,1,threefour,,,,,,,,,,,,,,,,,,,,,,,,,,,,,,,,,,,,,,,,,,,,,,,,,,,,,,,,,,,,,,,,,,,,,,,,,,,,,,,,,,,,,,,,,,,,,,,,,,,,,,,,,,,,,,,,,,,,,,,,,,,,,,,,,,,,,,,,,,,,,,,,,,,,,,,,
,,,,,,60871d7dcbf3bd9bf2c40be8,62bbfa0f76c1b7c44c51f82e,2022-06-29_10h07.18.786,Colour_Asymmetry_Pilot,2022.1.3,Win32,29.94280923,62bbe60bf3d75ef465d3e404,0,118,118,4,1,threeone,,,,,,,,,,,,,,,,,,,,,,,,,,,,,,,,,,,,,,,,,,,,,,,,,,,,,,,,,,,,,,,,,,,,,,,,,,,,,,,,,,,,,,,,,,,,,,,,,,,,,,,,,,,,,,,,,,,,,,,,,,,,,,,,,,,,,,,,,,,,,,,,,,,,,,,,
,,,,,,60871d7dcbf3bd9bf2c40be8,62bbfa0f76c1b7c44c51f82e,2022-06-29_10h07.18.786,Colour_Asymmetry_Pilot,2022.1.3,Win32,29.94280923,62bbe60bf3d75ef465d3e404,0,119,119,135,1,fourthree,,,,,,,,,,,,,,,,,,,,,,,,,,,,,,,,,,,,,,,,,,,,,,,,,,,,,,,,,,,,,,,,,,,,,,,,,,,,,,,,,,,,,,,,,,,,,,,,,,,,,,,,,,,,,,,,,,,,,,,,,,,,,,,,,,,,,,,,,,,,,,,,,,,,,,,,
,,,,,,60871d7dcbf3bd9bf2c40be8,62bbfa0f76c1b7c44c51f82e,2022-06-29_10h07.18.786,Colour_Asymmetry_Pilot,2022.1.3,Win32,29.94280923,62bbe60bf3d75ef465d3e404,0,120,120,144,1,onetwo,,,,,,,,,,,,,,,,,,,,,,,,,,,,,,,,,,,,,,,,,,,,,,,,,,,,,,,,,,,,,,,,,,,,,,,,,,,,,,,,,,,,,,,,,,,,,,,,,,,,,,,,,,,,,,,,,,,,,,,,,,,,,,,,,,,,,,,,,,,,,,,,,,,,,,,,
,,,,,,60871d7dcbf3bd9bf2c40be8,62bbfa0f76c1b7c44c51f82e,2022-06-29_10h07.18.786,Colour_Asymmetry_Pilot,2022.1.3,Win32,29.94280923,62bbe60bf3d75ef465d3e404,0,121,121,123,1,twofour,,,,,,,,,,,,,,,,,,,,,,,,,,,,,,,,,,,,,,,,,,,,,,,,,,,,,,,,,,,,,,,,,,,,,,,,,,,,,,,,,,,,,,,,,,,,,,,,,,,,,,,,,,,,,,,,,,,,,,,,,,,,,,,,,,,,,,,,,,,,,,,,,,,,,,,,
,,,,,,60871d7dcbf3bd9bf2c40be8,62bbfa0f76c1b7c44c51f82e,2022-06-29_10h07.18.786,Colour_Asymmetry_Pilot,2022.1.3,Win32,29.94280923,62bbe60bf3d75ef465d3e404,0,122,122,63,1,fourthree,,,,,,,,,,,,,,,,,,,,,,,,,,,,,,,,,,,,,,,,,,,,,,,,,,,,,,,,,,,,,,,,,,,,,,,,,,,,,,,,,,,,,,,,,,,,,,,,,,,,,,,,,,,,,,,,,,,,,,,,,,,,,,,,,,,,,,,,,,,,,,,,,,,,,,,,
,,,,,,60871d7dcbf3bd9bf2c40be8,62bbfa0f76c1b7c44c51f82e,2022-06-29_10h07.18.786,Colour_Asymmetry_Pilot,2022.1.3,Win32,29.94280923,62bbe60bf3d75ef465d3e404,0,123,123,142,1,fourtwo,,,,,,,,,,,,,,,,,,,,,,,,,,,,,,,,,,,,,,,,,,,,,,,,,,,,,,,,,,,,,,,,,,,,,,,,,,,,,,,,,,,,,,,,,,,,,,,,,,,,,,,,,,,,,,,,,,,,,,,,,,,,,,,,,,,,,,,,,,,,,,,,,,,,,,,,
,,,,,,60871d7dcbf3bd9bf2c40be8,62bbfa0f76c1b7c44c51f82e,2022-06-29_10h07.18.786,Colour_Asymmetry_Pilot,2022.1.3,Win32,29.94280923,62bbe60bf3d75ef465d3e404,0,124,124,15,1,fourthree,,,,,,,,,,,,,,,,,,,,,,,,,,,,,,,,,,,,,,,,,,,,,,,,,,,,,,,,,,,,,,,,,,,,,,,,,,,,,,,,,,,,,,,,,,,,,,,,,,,,,,,,,,,,,,,,,,,,,,,,,,,,,,,,,,,,,,,,,,,,,,,,,,,,,,,,
,,,,,,60871d7dcbf3bd9bf2c40be8,62bbfa0f76c1b7c44c51f82e,2022-06-29_10h07.18.786,Colour_Asymmetry_Pilot,2022.1.3,Win32,29.94280923,62bbe60bf3d75ef465d3e404,0,125,125,14,1,fourtwo,,,,,,,,,,,,,,,,,,,,,,,,,,,,,,,,,,,,,,,,,,,,,,,,,,,,,,,,,,,,,,,,,,,,,,,,,,,,,,,,,,,,,,,,,,,,,,,,,,,,,,,,,,,,,,,,,,,,,,,,,,,,,,,,,,,,,,,,,,,,,,,,,,,,,,,,
,,,,,,60871d7dcbf3bd9bf2c40be8,62bbfa0f76c1b7c44c51f82e,2022-06-29_10h07.18.786,Colour_Asymmetry_Pilot,2022.1.3,Win32,29.94280923,62bbe60bf3d75ef465d3e404,0,126,126,17,1,onethree,,,,,,,,,,,,,,,,,,,,,,,,,,,,,,,,,,,,,,,,,,,,,,,,,,,,,,,,,,,,,,,,,,,,,,,,,,,,,,,,,,,,,,,,,,,,,,,,,,,,,,,,,,,,,,,,,,,,,,,,,,,,,,,,,,,,,,,,,,,,,,,,,,,,,,,,
,,,,,,60871d7dcbf3bd9bf2c40be8,62bbfa0f76c1b7c44c51f82e,2022-06-29_10h07.18.786,Colour_Asymmetry_Pilot,2022.1.3,Win32,29.94280923,62bbe60bf3d75ef465d3e404,0,127,127,119,1,fourthree,,,,,,,,,,,,,,,,,,,,,,,,,,,,,,,,,,,,,,,,,,,,,,,,,,,,,,,,,,,,,,,,,,,,,,,,,,,,,,,,,,,,,,,,,,,,,,,,,,,,,,,,,,,,,,,,,,,,,,,,,,,,,,,,,,,,,,,,,,,,,,,,,,,,,,,,
,,,,,,60871d7dcbf3bd9bf2c40be8,62bbfa0f76c1b7c44c51f82e,2022-06-29_10h07.18.786,Colour_Asymmetry_Pilot,2022.1.3,Win32,29.94280923,62bbe60bf3d75ef465d3e404,0,128,128,13,1,threefour,,,,,,,,,,,,,,,,,,,,,,,,,,,,,,,,,,,,,,,,,,,,,,,,,,,,,,,,,,,,,,,,,,,,,,,,,,,,,,,,,,,,,,,,,,,,,,,,,,,,,,,,,,,,,,,,,,,,,,,,,,,,,,,,,,,,,,,,,,,,,,,,,,,,,,,,
,,,,,,60871d7dcbf3bd9bf2c40be8,62bbfa0f76c1b7c44c51f82e,2022-06-29_10h07.18.786,Colour_Asymmetry_Pilot,2022.1.3,Win32,29.94280923,62bbe60bf3d75ef465d3e404,0,129,129,47,1,fourthree,,,,,,,,,,,,,,,,,,,,,,,,,,,,,,,,,,,,,,,,,,,,,,,,,,,,,,,,,,,,,,,,,,,,,,,,,,,,,,,,,,,,,,,,,,,,,,,,,,,,,,,,,,,,,,,,,,,,,,,,,,,,,,,,,,,,,,,,,,,,,,,,,,,,,,,,
,,,,,,60871d7dcbf3bd9bf2c40be8,62bbfa0f76c1b7c44c51f82e,2022-06-29_10h07.18.786,Colour_Asymmetry_Pilot,2022.1.3,Win32,29.94280923,62bbe60bf3d75ef465d3e404,0,130,130,18,1,twoone,,,,,,,,,,,,,,,,,,,,,,,,,,,,,,,,,,,,,,,,,,,,,,,,,,,,,,,,,,,,,,,,,,,,,,,,,,,,,,,,,,,,,,,,,,,,,,,,,,,,,,,,,,,,,,,,,,,,,,,,,,,,,,,,,,,,,,,,,,,,,,,,,,,,,,,,
,,,,,,60871d7dcbf3bd9bf2c40be8,62bbfa0f76c1b7c44c51f82e,2022-06-29_10h07.18.786,Colour_Asymmetry_Pilot,2022.1.3,Win32,29.94280923,62bbe60bf3d75ef465d3e404,0,131,131,152,1,onetwo,,,,,,,,,,,,,,,,,,,,,,,,,,,,,,,,,,,,,,,,,,,,,,,,,,,,,,,,,,,,,,,,,,,,,,,,,,,,,,,,,,,,,,,,,,,,,,,,,,,,,,,,,,,,,,,,,,,,,,,,,,,,,,,,,,,,,,,,,,,,,,,,,,,,,,,,
,,,,,,60871d7dcbf3bd9bf2c40be8,62bbfa0f76c1b7c44c51f82e,2022-06-29_10h07.18.786,Colour_Asymmetry_Pilot,2022.1.3,Win32,29.94280923,62bbe60bf3d75ef465d3e404,0,132,132,65,1,onethree,,,,,,,,,,,,,,,,,,,,,,,,,,,,,,,,,,,,,,,,,,,,,,,,,,,,,,,,,,,,,,,,,,,,,,,,,,,,,,,,,,,,,,,,,,,,,,,,,,,,,,,,,,,,,,,,,,,,,,,,,,,,,,,,,,,,,,,,,,,,,,,,,,,,,,,,
,,,,,,60871d7dcbf3bd9bf2c40be8,62bbfa0f76c1b7c44c51f82e,2022-06-29_10h07.18.786,Colour_Asymmetry_Pilot,2022.1.3,Win32,29.94280923,62bbe60bf3d75ef465d3e404,0,133,133,62,1,fourtwo,,,,,,,,,,,,,,,,,,,,,,,,,,,,,,,,,,,,,,,,,,,,,,,,,,,,,,,,,,,,,,,,,,,,,,,,,,,,,,,,,,,,,,,,,,,,,,,,,,,,,,,,,,,,,,,,,,,,,,,,,,,,,,,,,,,,,,,,,,,,,,,,,,,,,,,,
,,,,,,60871d7dcbf3bd9bf2c40be8,62bbfa0f76c1b7c44c51f82e,2022-06-29_10h07.18.786,Colour_Asymmetry_Pilot,2022.1.3,Win32,29.94280923,62bbe60bf3d75ef465d3e404,0,134,134,35,1,twofour,,,,,,,,,,,,,,,,,,,,,,,,,,,,,,,,,,,,,,,,,,,,,,,,,,,,,,,,,,,,,,,,,,,,,,,,,,,,,,,,,,,,,,,,,,,,,,,,,,,,,,,,,,,,,,,,,,,,,,,,,,,,,,,,,,,,,,,,,,,,,,,,,,,,,,,,
,,,,,,60871d7dcbf3bd9bf2c40be8,62bbfa0f76c1b7c44c51f82e,2022-06-29_10h07.18.786,Colour_Asymmetry_Pilot,2022.1.3,Win32,29.94280923,62bbe60bf3d75ef465d3e404,0,135,135,7,1,fourthree,,,,,,,,,,,,,,,,,,,,,,,,,,,,,,,,,,,,,,,,,,,,,,,,,,,,,,,,,,,,,,,,,,,,,,,,,,,,,,,,,,,,,,,,,,,,,,,,,,,,,,,,,,,,,,,,,,,,,,,,,,,,,,,,,,,,,,,,,,,,,,,,,,,,,,,,
,,,,,,60871d7dcbf3bd9bf2c40be8,62bbfa0f76c1b7c44c51f82e,2022-06-29_10h07.18.786,Colour_Asymmetry_Pilot,2022.1.3,Win32,29.94280923,62bbe60bf3d75ef465d3e404,0,136,136,55,1,fourthree,,,,,,,,,,,,,,,,,,,,,,,,,,,,,,,,,,,,,,,,,,,,,,,,,,,,,,,,,,,,,,,,,,,,,,,,,,,,,,,,,,,,,,,,,,,,,,,,,,,,,,,,,,,,,,,,,,,,,,,,,,,,,,,,,,,,,,,,,,,,,,,,,,,,,,,,
,,,,,,60871d7dcbf3bd9bf2c40be8,62bbfa0f76c1b7c44c51f82e,2022-06-29_10h07.18.786,Colour_Asymmetry_Pilot,2022.1.3,Win32,29.94280923,62bbe60bf3d75ef465d3e404,0,137,137,1,1,onethree,,,,,,,,,,,,,,,,,,,,,,,,,,,,,,,,,,,,,,,,,,,,,,,,,,,,,,,,,,,,,,,,,,,,,,,,,,,,,,,,,,,,,,,,,,,,,,,,,,,,,,,,,,,,,,,,,,,,,,,,,,,,,,,,,,,,,,,,,,,,,,,,,,,,,,,,
,,,,,,60871d7dcbf3bd9bf2c40be8,62bbfa0f76c1b7c44c51f82e,2022-06-29_10h07.18.786,Colour_Asymmetry_Pilot,2022.1.3,Win32,29.94280923,62bbe60bf3d75ef465d3e404,0,138,138,40,1,onetwo,,,,,,,,,,,,,,,,,,,,,,,,,,,,,,,,,,,,,,,,,,,,,,,,,,,,,,,,,,,,,,,,,,,,,,,,,,,,,,,,,,,,,,,,,,,,,,,,,,,,,,,,,,,,,,,,,,,,,,,,,,,,,,,,,,,,,,,,,,,,,,,,,,,,,,,,
,,,,,,60871d7dcbf3bd9bf2c40be8,62bbfa0f76c1b7c44c51f82e,2022-06-29_10h07.18.786,Colour_Asymmetry_Pilot,2022.1.3,Win32,29.94280923,62bbe60bf3d75ef465d3e404,0,139,139,93,1,threefour,,,,,,,,,,,,,,,,,,,,,,,,,,,,,,,,,,,,,,,,,,,,,,,,,,,,,,,,,,,,,,,,,,,,,,,,,,,,,,,,,,,,,,,,,,,,,,,,,,,,,,,,,,,,,,,,,,,,,,,,,,,,,,,,,,,,,,,,,,,,,,,,,,,,,,,,
,,,,,,60871d7dcbf3bd9bf2c40be8,62bbfa0f76c1b7c44c51f82e,2022-06-29_10h07.18.786,Colour_Asymmetry_Pilot,2022.1.3,Win32,29.94280923,62bbe60bf3d75ef465d3e404,0,140,140,31,1,fourthree,,,,,,,,,,,,,,,,,,,,,,,,,,,,,,,,,,,,,,,,,,,,,,,,,,,,,,,,,,,,,,,,,,,,,,,,,,,,,,,,,,,,,,,,,,,,,,,,,,,,,,,,,,,,,,,,,,,,,,,,,,,,,,,,,,,,,,,,,,,,,,,,,,,,,,,,
,,,,,,60871d7dcbf3bd9bf2c40be8,62bbfa0f76c1b7c44c51f82e,2022-06-29_10h07.18.786,Colour_Asymmetry_Pilot,2022.1.3,Win32,29.94280923,62bbe60bf3d75ef465d3e404,0,141,141,51,1,twofour,,,,,,,,,,,,,,,,,,,,,,,,,,,,,,,,,,,,,,,,,,,,,,,,,,,,,,,,,,,,,,,,,,,,,,,,,,,,,,,,,,,,,,,,,,,,,,,,,,,,,,,,,,,,,,,,,,,,,,,,,,,,,,,,,,,,,,,,,,,,,,,,,,,,,,,,
,,,,,,60871d7dcbf3bd9bf2c40be8,62bbfa0f76c1b7c44c51f82e,2022-06-29_10h07.18.786,Colour_Asymmetry_Pilot,2022.1.3,Win32,29.94280923,62bbe60bf3d75ef465d3e404,0,142,142,27,1,twofour,,,,,,,,,,,,,,,,,,,,,,,,,,,,,,,,,,,,,,,,,,,,,,,,,,,,,,,,,,,,,,,,,,,,,,,,,,,,,,,,,,,,,,,,,,,,,,,,,,,,,,,,,,,,,,,,,,,,,,,,,,,,,,,,,,,,,,,,,,,,,,,,,,,,,,,,
,,,,,,60871d7dcbf3bd9bf2c40be8,62bbfa0f76c1b7c44c51f82e,2022-06-29_10h07.18.786,Colour_Asymmetry_Pilot,2022.1.3,Win32,29.94280923,62bbe60bf3d75ef465d3e404,0,143,143,157,1,threefour,,,,,,,,,,,,,,,,,,,,,,,,,,,,,,,,,,,,,,,,,,,,,,,,,,,,,,,,,,,,,,,,,,,,,,,,,,,,,,,,,,,,,,,,,,,,,,,,,,,,,,,,,,,,,,,,,,,,,,,,,,,,,,,,,,,,,,,,,,,,,,,,,,,,,,,,
,,,,,,60871d7dcbf3bd9bf2c40be8,62bbfa0f76c1b7c44c51f82e,2022-06-29_10h07.18.786,Colour_Asymmetry_Pilot,2022.1.3,Win32,29.94280923,62bbe60bf3d75ef465d3e404,0,144,144,99,1,twofour,,,,,,,,,,,,,,,,,,,,,,,,,,,,,,,,,,,,,,,,,,,,,,,,,,,,,,,,,,,,,,,,,,,,,,,,,,,,,,,,,,,,,,,,,,,,,,,,,,,,,,,,,,,,,,,,,,,,,,,,,,,,,,,,,,,,,,,,,,,,,,,,,,,,,,,,
,,,,,,60871d7dcbf3bd9bf2c40be8,62bbfa0f76c1b7c44c51f82e,2022-06-29_10h07.18.786,Colour_Asymmetry_Pilot,2022.1.3,Win32,29.94280923,62bbe60bf3d75ef465d3e404,0,145,145,153,1,onethree,,,,,,,,,,,,,,,,,,,,,,,,,,,,,,,,,,,,,,,,,,,,,,,,,,,,,,,,,,,,,,,,,,,,,,,,,,,,,,,,,,,,,,,,,,,,,,,,,,,,,,,,,,,,,,,,,,,,,,,,,,,,,,,,,,,,,,,,,,,,,,,,,,,,,,,,
,,,,,,60871d7dcbf3bd9bf2c40be8,62bbfa0f76c1b7c44c51f82e,2022-06-29_10h07.18.786,Colour_Asymmetry_Pilot,2022.1.3,Win32,29.94280923,62bbe60bf3d75ef465d3e404,0,146,146,90,1,twoone,,,,,,,,,,,,,,,,,,,,,,,,,,,,,,,,,,,,,,,,,,,,,,,,,,,,,,,,,,,,,,,,,,,,,,,,,,,,,,,,,,,,,,,,,,,,,,,,,,,,,,,,,,,,,,,,,,,,,,,,,,,,,,,,,,,,,,,,,,,,,,,,,,,,,,,,
,,,,,,60871d7dcbf3bd9bf2c40be8,62bbfa0f76c1b7c44c51f82e,2022-06-29_10h07.18.786,Colour_Asymmetry_Pilot,2022.1.3,Win32,29.94280923,62bbe60bf3d75ef465d3e404,0,147,147,10,1,twoone,,,,,,,,,,,,,,,,,,,,,,,,,,,,,,,,,,,,,,,,,,,,,,,,,,,,,,,,,,,,,,,,,,,,,,,,,,,,,,,,,,,,,,,,,,,,,,,,,,,,,,,,,,,,,,,,,,,,,,,,,,,,,,,,,,,,,,,,,,,,,,,,,,,,,,,,
,,,,,,60871d7dcbf3bd9bf2c40be8,62bbfa0f76c1b7c44c51f82e,2022-06-29_10h07.18.786,Colour_Asymmetry_Pilot,2022.1.3,Win32,29.94280923,62bbe60bf3d75ef465d3e404,0,148,148,158,1,fourtwo,,,,,,,,,,,,,,,,,,,,,,,,,,,,,,,,,,,,,,,,,,,,,,,,,,,,,,,,,,,,,,,,,,,,,,,,,,,,,,,,,,,,,,,,,,,,,,,,,,,,,,,,,,,,,,,,,,,,,,,,,,,,,,,,,,,,,,,,,,,,,,,,,,,,,,,,
,,,,,,60871d7dcbf3bd9bf2c40be8,62bbfa0f76c1b7c44c51f82e,2022-06-29_10h07.18.786,Colour_Asymmetry_Pilot,2022.1.3,Win32,29.94280923,62bbe60bf3d75ef465d3e404,0,149,149,98,1,twoone,,,,,,,,,,,,,,,,,,,,,,,,,,,,,,,,,,,,,,,,,,,,,,,,,,,,,,,,,,,,,,,,,,,,,,,,,,,,,,,,,,,,,,,,,,,,,,,,,,,,,,,,,,,,,,,,,,,,,,,,,,,,,,,,,,,,,,,,,,,,,,,,,,,,,,,,
,,,,,,60871d7dcbf3bd9bf2c40be8,62bbfa0f76c1b7c44c51f82e,2022-06-29_10h07.18.786,Colour_Asymmetry_Pilot,2022.1.3,Win32,29.94280923,62bbe60bf3d75ef465d3e404,0,150,150,81,1,onethree,,,,,,,,,,,,,,,,,,,,,,,,,,,,,,,,,,,,,,,,,,,,,,,,,,,,,,,,,,,,,,,,,,,,,,,,,,,,,,,,,,,,,,,,,,,,,,,,,,,,,,,,,,,,,,,,,,,,,,,,,,,,,,,,,,,,,,,,,,,,,,,,,,,,,,,,
,,,,,,60871d7dcbf3bd9bf2c40be8,62bbfa0f76c1b7c44c51f82e,2022-06-29_10h07.18.786,Colour_Asymmetry_Pilot,2022.1.3,Win32,29.94280923,62bbe60bf3d75ef465d3e404,0,151,151,75,1,twofour,,,,,,,,,,,,,,,,,,,,,,,,,,,,,,,,,,,,,,,,,,,,,,,,,,,,,,,,,,,,,,,,,,,,,,,,,,,,,,,,,,,,,,,,,,,,,,,,,,,,,,,,,,,,,,,,,,,,,,,,,,,,,,,,,,,,,,,,,,,,,,,,,,,,,,,,
,,,,,,60871d7dcbf3bd9bf2c40be8,62bbfa0f76c1b7c44c51f82e,2022-06-29_10h07.18.786,Colour_Asymmetry_Pilot,2022.1.3,Win32,29.94280923,62bbe60bf3d75ef465d3e404,0,152,152,43,1,twofour,,,,,,,,,,,,,,,,,,,,,,,,,,,,,,,,,,,,,,,,,,,,,,,,,,,,,,,,,,,,,,,,,,,,,,,,,,,,,,,,,,,,,,,,,,,,,,,,,,,,,,,,,,,,,,,,,,,,,,,,,,,,,,,,,,,,,,,,,,,,,,,,,,,,,,,,
,,,,,,60871d7dcbf3bd9bf2c40be8,62bbfa0f76c1b7c44c51f82e,2022-06-29_10h07.18.786,Colour_Asymmetry_Pilot,2022.1.3,Win32,29.94280923,62bbe60bf3d75ef465d3e404,0,153,153,112,1,onetwo,,,,,,,,,,,,,,,,,,,,,,,,,,,,,,,,,,,,,,,,,,,,,,,,,,,,,,,,,,,,,,,,,,,,,,,,,,,,,,,,,,,,,,,,,,,,,,,,,,,,,,,,,,,,,,,,,,,,,,,,,,,,,,,,,,,,,,,,,,,,,,,,,,,,,,,,
,,,,,,60871d7dcbf3bd9bf2c40be8,62bbfa0f76c1b7c44c51f82e,2022-06-29_10h07.18.786,Colour_Asymmetry_Pilot,2022.1.3,Win32,29.94280923,62bbe60bf3d75ef465d3e404,0,154,154,20,1,threeone,,,,,,,,,,,,,,,,,,,,,,,,,,,,,,,,,,,,,,,,,,,,,,,,,,,,,,,,,,,,,,,,,,,,,,,,,,,,,,,,,,,,,,,,,,,,,,,,,,,,,,,,,,,,,,,,,,,,,,,,,,,,,,,,,,,,,,,,,,,,,,,,,,,,,,,,
,,,,,,60871d7dcbf3bd9bf2c40be8,62bbfa0f76c1b7c44c51f82e,2022-06-29_10h07.18.786,Colour_Asymmetry_Pilot,2022.1.3,Win32,29.94280923,62bbe60bf3d75ef465d3e404,0,155,155,33,1,onethree,,,,,,,,,,,,,,,,,,,,,,,,,,,,,,,,,,,,,,,,,,,,,,,,,,,,,,,,,,,,,,,,,,,,,,,,,,,,,,,,,,,,,,,,,,,,,,,,,,,,,,,,,,,,,,,,,,,,,,,,,,,,,,,,,,,,,,,,,,,,,,,,,,,,,,,,
,,,,,,60871d7dcbf3bd9bf2c40be8,62bbfa0f76c1b7c44c51f82e,2022-06-29_10h07.18.786,Colour_Asymmetry_Pilot,2022.1.3,Win32,29.94280923,62bbe60bf3d75ef465d3e404,0,156,156,12,1,threeone,,,,,,,,,,,,,,,,,,,,,,,,,,,,,,,,,,,,,,,,,,,,,,,,,,,,,,,,,,,,,,,,,,,,,,,,,,,,,,,,,,,,,,,,,,,,,,,,,,,,,,,,,,,,,,,,,,,,,,,,,,,,,,,,,,,,,,,,,,,,,,,,,,,,,,,,
,,,,,,60871d7dcbf3bd9bf2c40be8,62bbfa0f76c1b7c44c51f82e,2022-06-29_10h07.18.786,Colour_Asymmetry_Pilot,2022.1.3,Win32,29.94280923,62bbe60bf3d75ef465d3e404,0,157,157,126,1,fourtwo,,,,,,,,,,,,,,,,,,,,,,,,,,,,,,,,,,,,,,,,,,,,,,,,,,,,,,,,,,,,,,,,,,,,,,,,,,,,,,,,,,,,,,,,,,,,,,,,,,,,,,,,,,,,,,,,,,,,,,,,,,,,,,,,,,,,,,,,,,,,,,,,,,,,,,,,
,,,,,,60871d7dcbf3bd9bf2c40be8,62bbfa0f76c1b7c44c51f82e,2022-06-29_10h07.18.786,Colour_Asymmetry_Pilot,2022.1.3,Win32,29.94280923,62bbe60bf3d75ef465d3e404,0,158,158,104,1,onetwo,,,,,,,,,,,,,,,,,,,,,,,,,,,,,,,,,,,,,,,,,,,,,,,,,,,,,,,,,,,,,,,,,,,,,,,,,,,,,,,,,,,,,,,,,,,,,,,,,,,,,,,,,,,,,,,,,,,,,,,,,,,,,,,,,,,,,,,,,,,,,,,,,,,,,,,,
,,,,,,60871d7dcbf3bd9bf2c40be8,62bbfa0f76c1b7c44c51f82e,2022-06-29_10h07.18.786,Colour_Asymmetry_Pilot,2022.1.3,Win32,29.94280923,62bbe60bf3d75ef465d3e404,0,159,159,79,1,fourthree,,,,,,,,,,,,,,,,,,,,,,,,,,,,,,,,,,,,,,,,,,,,,,,,,,,,,,,,,,,,,,,,,,,,,,,,,,,,,,,,,,,,,,,,,,,,,,,,,,,,,,,,,,,,,,,,,,,,,,,,,,,,,,,,,,,,,,,,,,,,,,,,,,,,,,,,
,,,,,,60871d7dcbf3bd9bf2c40be8,62bbfa0f76c1b7c44c51f82e,2022-06-29_10h07.18.786,Colour_Asymmetry_Pilot,2022.1.3,Win32,29.94280923,62bbe60bf3d75ef465d3e404,0,160,160,131,1,twofour,,,,,,,,,,,,,,,,,,,,,,,,,,,,,,,,,,,,,,,,,,,,,,,,,,,,,,,,,,,,,,,,,,,,,,,,,,,,,,,,,,,,,,,,,,,,,,,,,,,,,,,,,,,,,,,,,,,,,,,,,,,,,,,,,,,,,,,,,,,,,,,,,,,,,,,,
,,,,,,60871d7dcbf3bd9bf2c40be8,62bbfa0f76c1b7c44c51f82e,2022-06-29_10h07.18.786,Colour_Asymmetry_Pilot,2022.1.3,Win32,29.94280923,62bbe60bf3d75ef465d3e404,0,161,161,96,1,onetwo,,,,,,,,,,,,,,,,,,,,,,,,,,,,,,,,,,,,,,,,,,,,,,,,,,,,,,,,,,,,,,,,,,,,,,,,,,,,,,,,,,,,,,,,,,,,,,,,,,,,,,,,,,,,,,,,,,,,,,,,,,,,,,,,,,,,,,,,,,,,,,,,,,,,,,,,
,,,,,,60871d7dcbf3bd9bf2c40be8,62bbfa0f76c1b7c44c51f82e,2022-06-29_10h07.18.786,Colour_Asymmetry_Pilot,2022.1.3,Win32,29.94280923,62bbe60bf3d75ef465d3e404,,,,,,,space,3.3217,space,20.7158,space,49.2308,space,17.8441,space,2.5993,space,7.5653,"[-0.24719999999999998,-0.0354000000000001,0.3175999999999999]",onethree,"[-0.9688,-0.38039999999999996,-0.41979999999999995]",-4,5.7533,-66.39996338,119.1999817,1,0,0,response7disk_5,-2.399963379,-1.600006104,1,0,0,rectangle_8,-2.399963379,-1.600006104,1,0,0,1,-2.399963379,-1.600006104,1,0,0,0,0,0,0,1,,,,,,,,,,,,,,,,,,,,,,,,,,,,,,,,,,,,,,,,,,,,,,,,,,,,,,,,,,,,,,,,,,,,,,,,,,,,,,,,,,,,,,,,,,,,,,,,,,,,,,,,,,,
,,,,,,60871d7dcbf3bd9bf2c40be8,62bbfa0f76c1b7c44c51f82e,2022-06-29_10h07.18.786,Colour_Asymmetry_Pilot,2022.1.3,Win32,29.94280923,62bbe60bf3d75ef465d3e404,,,,,,,,,,,,,,,,,,,"[0.9686000000000001,0.5763999999999998,0.11359999999999992]",fourtwo,"[-0.5922000000000001,-0.7492000000000001,-0.5296000000000001]",-4,1.4634,-28.79998779,88.79998779,1,0,0,response7disk_5,-8.799987793,3.199981689,1,0,0,rectangle_8,49.60003662,-114.4000244,1,0,0,1,9.600036621,0,1,0,0,1,0,1,0,1,response3disk_7,4,rectangle_4,,,,,,,,,,,,,,,,,,,,,,,,,,,,,,,,,,,,,,,,,,,,,,,,,,,,,,,,,,,,,,,,,,,,,,,,,,,,,,,,,,,,,,,,,,,,,,,,,,,,,,,,
,,,,,,60871d7dcbf3bd9bf2c40be8,62bbfa0f76c1b7c44c51f82e,2022-06-29_10h07.18.786,Colour_Asymmetry_Pilot,2022.1.3,Win32,29.94280923,62bbe60bf3d75ef465d3e404,,,,,,,,,,,,,,,,,,,"[-0.5452,-0.608,0.2470000000000001]",threeone,"[-0.9688,-0.4902000000000001,-0.12159999999999993]",4,1.81,44.79998779,114.3999939,1,0,0,response1disk_5,0.799987793,5.600006104,1,0,0,rectangle_8,0.799987793,5.600006104,1,0,0,1,0.799987793,5.600006104,1,0,0,2,0,2,0,1,,,,,,,,,,,,,,,,,,,,,,,,,,,,,,,,,,,,,,,,,,,,,,,,,,,,,,,,,,,,,,,,,,,,,,,,,,,,,,,,,,,,,,,,,,,,,,,,,,,,,,,,,,,
,,,,,,60871d7dcbf3bd9bf2c40be8,62bbfa0f76c1b7c44c51f82e,2022-06-29_10h07.18.786,Colour_Asymmetry_Pilot,2022.1.3,Win32,29.94280923,62bbe60bf3d75ef465d3e404,,,,,,,,,,,,,,,,,,,"[0.9372,0.9450000000000001,0.8980000000000001]",threeone,"[0.5449999999999999,-0.31000000000000005,-0.0354000000000001]",-4,1.6062,-52.79998779,83.19998169,1,0,0,response7disk_5,0,-3.200012207,1,0,0,rectangle_8,0,-3.200012207,1,0,0,1,0,-3.200012207,1,0,0,3,0,3,0,1,,,,,,,,,,,,,,,,,,,,,,,,,,,,,,,,,,,,,,,,,,,,,,,,,,,,,,,,,,,,,,,,,,,,,,,,,,,,,,,,,,,,,,,,,,,,,,,,,,,,,,,,,,,
,,,,,,60871d7dcbf3bd9bf2c40be8,62bbfa0f76c1b7c44c51f82e,2022-06-29_10h07.18.786,Colour_Asymmetry_Pilot,2022.1.3,Win32,29.94280923,62bbe60bf3d75ef465d3e404,,,,,,,,,,,,,,,,,,,"[0.18419999999999992,-0.4276,-0.404]",fourtwo,"[-0.6235999999999999,-0.6786,-0.08239999999999992]",-4,1.4114,-38.39996338,73.6000061,1,0,0,response7disk_5,-8,0.799987793,1,0,0,rectangle_8,-8,0.799987793,1,0,0,1,-8,0.799987793,1,0,0,4,0,4,0,1,,,,,,,,,,,,,,,,,,,,,,,,,,,,,,,,,,,,,,,,,,,,,,,,,,,,,,,,,,,,,,,,,,,,,,,,,,,,,,,,,,,,,,,,,,,,,,,,,,,,,,,,,,,
,,,,,,60871d7dcbf3bd9bf2c40be8,62bbfa0f76c1b7c44c51f82e,2022-06-29_10h07.18.786,Colour_Asymmetry_Pilot,2022.1.3,Win32,29.94280923,62bbe60bf3d75ef465d3e404,,,,,,,,,,,,,,,,,,,"[0.23120000000000007,-0.7726,-0.34120000000000006]",onetwo,"[-0.48240000000000005,0.3175999999999999,0.2156]",-4,1.0786,-48.79998779,91.19998169,1,0,0,response7disk_5,10.40002441,0,1,0,0,rectangle_8,39.20001221,-96.79998779,1,0,0,1,-11.20001221,6.399993896,1,0,0,5,0,5,0,1,response3disk_7,4,rectangle_4,,,,,,,,,,,,,,,,,,,,,,,,,,,,,,,,,,,,,,,,,,,,,,,,,,,,,,,,,,,,,,,,,,,,,,,,,,,,,,,,,,,,,,,,,,,,,,,,,,,,,,,,
,,,,,,60871d7dcbf3bd9bf2c40be8,62bbfa0f76c1b7c44c51f82e,2022-06-29_10h07.18.786,Colour_Asymmetry_Pilot,2022.1.3,Win32,29.94280923,62bbe60bf3d75ef465d3e404,,,,,,,,,,,,,,,,,,,"[0.3568,-0.20799999999999996,-0.9844]",threefour,"[-0.17659999999999998,-0.2864,-0.8354]",-4,1.1316,-56.79998779,98.3999939,1,0,0,response7disk_5,-4,-4,1,0,0,rectangle_8,-4,-4,1,0,0,1,-4,-4,1,0,0,6,0,6,0,1,,,,,,,,,,,,,,,,,,,,,,,,,,,,,,,,,,,,,,,,,,,,,,,,,,,,,,,,,,,,,,,,,,,,,,,,,,,,,,,,,,,,,,,,,,,,,,,,,,,,,,,,,,,
,,,,,,60871d7dcbf3bd9bf2c40be8,62bbfa0f76c1b7c44c51f82e,2022-06-29_10h07.18.786,Colour_Asymmetry_Pilot,2022.1.3,Win32,29.94280923,62bbe60bf3d75ef465d3e404,,,,,,,,,,,,,,,,,,,,threeone,,-3,1.387,,,,,,,,,,,,,,,,,,,,,,,,,,,,,,,,space,5.7813,"[0.6625999999999999,0.4980000000000002,-0.357]","[1,0.12939999999999996,-1]",-85.59997559,32,1,0,0,response7disk,10.40002441,11.19998169,1,0,0,rectangle,10.40002441,11.19998169,1,0,0,,1,0.0036,0,10.40002441,11.19998169,1,0,0,0,0,0,35,1,35,first,,,,,,,,,,,,,,,,,,,,,,,,,,,,,,,,,,,,,,,,,,,,,,,,,,,,,,,,,,,,,,,,,,,
,,,,,,60871d7dcbf3bd9bf2c40be8,62bbfa0f76c1b7c44c51f82e,2022-06-29_10h07.18.786,Colour_Asymmetry_Pilot,2022.1.3,Win32,29.94280923,62bbe60bf3d75ef465d3e404,,,,,,,,,,,,,,,,,,,,threefour,,-4,0.9036,,,,,,,,,,,,,,,,,,,,,,,,,,,,,,,,,,"[0.34099999999999997,0.12939999999999996,-0.9766]","[-0.01980000000000004,-0.5138,-0.38039999999999996]",-41.59997559,71.19998169,1,0,0,response7disk,2.400024414,-4.800018311,1,0,0,rectangle,2.400024414,-4.800018311,1,0,0,,1,0.0006,0,2.400024414,-4.800018311,1,0,0,0,1,1,2,1,2,first,,,,,,,,,,,,,,,,,,,,,,,,,,,,,,,,,,,,,,,,,,,,,,,,,,,,,,,,,,,,,,,,,,,
,,,,,,60871d7dcbf3bd9bf2c40be8,62bbfa0f76c1b7c44c51f82e,2022-06-29_10h07.18.786,Colour_Asymmetry_Pilot,2022.1.3,Win32,29.94280923,62bbe60bf3d75ef465d3e404,,,,,,,,,,,,,,,,,,,,threeone,,-4,0.8042,,,,,,,,,,,,,,,,,,,,,,,,,,,,,,,,,,"[-0.5688,-0.08239999999999992,-0.1844]","[0.7018,0.7802,-0.16079999999999994]",-46.39996338,100,1,0,0,response7disk,-4.799987793,-4,1,0,0,rectangle,-4.799987793,-4,1,0,0,,3,0.0013,0,-4.799987793,-4,1,0,0,0,2,2,103,1,22,second,,,,,,,,,,,,,,,,,,,,,,,,,,,,,,,,,,,,,,,,,,,,,,,,,,,,,,,,,,,,,,,,,,,
,,,,,,60871d7dcbf3bd9bf2c40be8,62bbfa0f76c1b7c44c51f82e,2022-06-29_10h07.18.786,Colour_Asymmetry_Pilot,2022.1.3,Win32,29.94280923,62bbe60bf3d75ef465d3e404,,,,,,,,,,,,,,,,,,,,onetwo,,-3,1.0308,,,,,,,,,,,,,,,,,,,,,,,,,,,,,,,,,,"[-0.26280000000000003,-0.4746,-0.2158]","[-0.06680000000000008,-0.45100000000000007,-0.906]",-104,46.3999939,1,0,0,response7disk,1.600036621,3.199981689,1,0,0,rectangle,1.600036621,3.199981689,1,0,0,,1,0.0011,0,1.600036621,3.199981689,1,0,0,0,3,3,91,1,10,second,,,,,,,,,,,,,,,,,,,,,,,,,,,,,,,,,,,,,,,,,,,,,,,,,,,,,,,,,,,,,,,,,,,
,,,,,,60871d7dcbf3bd9bf2c40be8,62bbfa0f76c1b7c44c51f82e,2022-06-29_10h07.18.786,Colour_Asymmetry_Pilot,2022.1.3,Win32,29.94280923,62bbe60bf3d75ef465d3e404,,,,,,,,,,,,,,,,,,,,threeone,,-4,0.9825,,,,,,,,,,,,,,,,,,,,,,,,,,,,,,,,,,"[0.04299999999999993,0.16060000000000008,-0.6628000000000001]","[-0.9688,-0.4902000000000001,-0.12159999999999993]",-54.39996338,92,1,0,0,response7disk,3.200012207,0,1,0,0,rectangle,99.20001221,36,1,0,0,3,3,5.4385,1,-5.599975586,-7.200012207,1,0,0,0,4,4,36,1,36,first,response1disk_3,rectangle,,,,,,,,,,,,,,,,,,,,,,,,,,,,,,,,,,,,,,,,,,,,,,,,,,,,,,,,,,,,,,,,,
,,,,,,60871d7dcbf3bd9bf2c40be8,62bbfa0f76c1b7c44c51f82e,2022-06-29_10h07.18.786,Colour_Asymmetry_Pilot,2022.1.3,Win32,29.94280923,62bbe60bf3d75ef465d3e404,,,,,,,,,,,,,,,,,,,,threefour,,-4,0.7042,,,,,,,,,,,,,,,,,,,,,,,,,,,,,,,,,,"[-0.6235999999999999,-0.6786,-0.08239999999999992]","[0.4196,0.4665999999999999,0.3568]",-56,84.79998779,1,0,0,response7disk,-16.79998779,1.600006104,1,0,0,rectangle,-16.79998779,1.600006104,1,0,0,3,2,0.0012,0,-16.79998779,1.600006104,1,0,0,0,5,5,0,1,0,first,,,,,,,,,,,,,,,,,,,,,,,,,,,,,,,,,,,,,,,,,,,,,,,,,,,,,,,,,,,,,,,,,,,
,,,,,,60871d7dcbf3bd9bf2c40be8,62bbfa0f76c1b7c44c51f82e,2022-06-29_10h07.18.786,Colour_Asymmetry_Pilot,2022.1.3,Win32,29.94280923,62bbe60bf3d75ef465d3e404,,,,,,,,,,,,,,,,,,,,twofour,,-4,0.7098,,,,,,,,,,,,,,,,,,,,,,,,,,,,,,,,,,"[-0.050999999999999934,-0.6706000000000001,-0.804]","[-0.8118,-0.8198,-0.5452]",-56.79998779,72.79998779,1,0,0,response7disk,10.40002441,-5.600006104,1,0,0,rectangle,10.40002441,-5.600006104,1,0,0,3,1,0.001,0,10.40002441,-5.600006104,1,0,0,0,6,6,148,1,67,second,,,,,,,,,,,,,,,,,,,,,,,,,,,,,,,,,,,,,,,,,,,,,,,,,,,,,,,,,,,,,,,,,,,
,,,,,,60871d7dcbf3bd9bf2c40be8,62bbfa0f76c1b7c44c51f82e,2022-06-29_10h07.18.786,Colour_Asymmetry_Pilot,2022.1.3,Win32,29.94280923,62bbe60bf3d75ef465d3e404,,,,,,,,,,,,,,,,,,,,fourtwo,,-3,0.671,,,,,,,,,,,,,,,,,,,,,,,,,,,,,,,,,,"[0.9763999999999999,0.8588,-0.05900000000000005]","[0.7018,0.7176,0.6155999999999999]",-98.39996338,43.19998169,1,0,0,response7disk,-8,2.399993896,1,0,0,rectangle,-8,2.399993896,1,0,0,3,1,0.0002,0,-8,2.399993896,1,0,0,0,7,7,32,1,32,first,,,,,,,,,,,,,,,,,,,,,,,,,,,,,,,,,,,,,,,,,,,,,,,,,,,,,,,,,,,,,,,,,,,
,,,,,,60871d7dcbf3bd9bf2c40be8,62bbfa0f76c1b7c44c51f82e,2022-06-29_10h07.18.786,Colour_Asymmetry_Pilot,2022.1.3,Win32,29.94280923,62bbe60bf3d75ef465d3e404,,,,,,,,,,,,,,,,,,,,twoone,,4,1.1029,,,,,,,,,,,,,,,,,,,,,,,,,,,,,,,,,,"[0.5528,0.7409999999999999,-0.71]","[0.37240000000000006,0.4980000000000002,-0.2864]",41.60003662,85.6000061,1,0,0,response1disk,1.600036621,-5.600006104,1,0,0,rectangle,1.600036621,-5.600006104,1,0,0,3,3,0.001,0,1.600036621,-5.600006104,1,0,0,0,8,8,95,1,14,second,,,,,,,,,,,,,,,,,,,,,,,,,,,,,,,,,,,,,,,,,,,,,,,,,,,,,,,,,,,,,,,,,,,
,,,,,,60871d7dcbf3bd9bf2c40be8,62bbfa0f76c1b7c44c51f82e,2022-06-29_10h07.18.786,Colour_Asymmetry_Pilot,2022.1.3,Win32,29.94280923,62bbe60bf3d75ef465d3e404,,,,,,,,,,,,,,,,,,,,fourtwo,,-4,0.6154,,,,,,,,,,,,,,,,,,,,,,,,,,,,,,,,,,"[0.05879999999999996,0.2784,0.5841999999999998]","[-0.9766,-0.34920000000000007,0.2156]",-50.39996338,72.79998779,1,0,0,response7disk,-23.20001221,12.79998779,1,0,0,rectangle,-23.20001221,12.79998779,1,0,0,3,2,0.001,0,-23.20001221,12.79998779,1,0,0,0,9,9,63,1,63,first,,,,,,,,,,,,,,,,,,,,,,,,,,,,,,,,,,,,,,,,,,,,,,,,,,,,,,,,,,,,,,,,,,,
,,,,,,60871d7dcbf3bd9bf2c40be8,62bbfa0f76c1b7c44c51f82e,2022-06-29_10h07.18.786,Colour_Asymmetry_Pilot,2022.1.3,Win32,29.94280923,62bbe60bf3d75ef465d3e404,,,,,,,,,,,,,,,,,,,,fourtwo,,-4,1.3341,,,,,,,,,,,,,,,,,,,,,,,,,,,,,,,,,,"[-0.10599999999999998,-0.10599999999999998,0.5841999999999998]","[-0.0040000000000000036,0.02739999999999987,-0.08239999999999992]",-49.59997559,91.19998169,1,0,0,response7disk,-6.399963379,3.199981689,1,0,0,rectangle,-6.399963379,3.199981689,1,0,0,3,2,0.0003,0,-6.399963379,3.199981689,1,0,0,0,10,10,115,1,34,second,,,,,,,,,,,,,,,,,,,,,,,,,,,,,,,,,,,,,,,,,,,,,,,,,,,,,,,,,,,,,,,,,,,
,,,,,,60871d7dcbf3bd9bf2c40be8,62bbfa0f76c1b7c44c51f82e,2022-06-29_10h07.18.786,Colour_Asymmetry_Pilot,2022.1.3,Win32,29.94280923,62bbe60bf3d75ef465d3e404,,,,,,,,,,,,,,,,,,,,twoone,,-4,0.5818,,,,,,,,,,,,,,,,,,,,,,,,,,,,,,,,,,"[-0.09019999999999995,0.44300000000000006,0.5371999999999999]","[0.7018,0.7802,-0.16079999999999994]",-37.59997559,87.19998169,1,0,0,response7disk,-16.79998779,0,1,0,0,rectangle,-16.79998779,0,1,0,0,3,1,0.001,0,-16.79998779,0,1,0,0,0,11,11,17,1,17,first,,,,,,,,,,,,,,,,,,,,,,,,,,,,,,,,,,,,,,,,,,,,,,,,,,,,,,,,,,,,,,,,,,,
,,,,,,60871d7dcbf3bd9bf2c40be8,62bbfa0f76c1b7c44c51f82e,2022-06-29_10h07.18.786,Colour_Asymmetry_Pilot,2022.1.3,Win32,29.94280923,62bbe60bf3d75ef465d3e404,,,,,,,,,,,,,,,,,,,,onetwo,,-4,0.4877,,,,,,,,,,,,,,,,,,,,,,,,,,,,,,,,,,"[0.09799999999999986,-0.24719999999999998,0.15280000000000005]","[-0.050999999999999934,-0.6706000000000001,-0.804]",-48.79998779,84.79998779,1,0,0,response7disk,-11.20001221,0.799987793,1,0,0,rectangle,-11.20001221,0.799987793,1,0,0,3,1,0.0002,0,-11.20001221,0.799987793,1,0,0,0,12,12,46,1,46,first,,,,,,,,,,,,,,,,,,,,,,,,,,,,,,,,,,,,,,,,,,,,,,,,,,,,,,,,,,,,,,,,,,,
,,,,,,60871d7dcbf3bd9bf2c40be8,62bbfa0f76c1b7c44c51f82e,2022-06-29_10h07.18.786,Colour_Asymmetry_Pilot,2022.1.3,Win32,29.94280923,62bbe60bf3d75ef465d3e404,,,,,,,,,,,,,,,,,,,,onethree,,-4,0.6209,,,,,,,,,,,,,,,,,,,,,,,,,,,,,,,,,,"[-0.01980000000000004,-0.5138,-0.38039999999999996]","[-0.9216,-0.5529999999999999,-0.3962]",-52.79998779,79.19998169,1,0,0,response7disk,-4,-8.800018311,1,0,0,rectangle,-4,-8.800018311,1,0,0,3,1,0.0003,0,-4,-8.800018311,1,0,0,0,13,13,137,1,56,second,,,,,,,,,,,,,,,,,,,,,,,,,,,,,,,,,,,,,,,,,,,,,,,,,,,,,,,,,,,,,,,,,,,
,,,,,,60871d7dcbf3bd9bf2c40be8,62bbfa0f76c1b7c44c51f82e,2022-06-29_10h07.18.786,Colour_Asymmetry_Pilot,2022.1.3,Win32,29.94280923,62bbe60bf3d75ef465d3e404,,,,,,,,,,,,,,,,,,,,threeone,,-4,0.4313,,,,,,,,,,,,,,,,,,,,,,,,,,,,,,,,,,"[0.37240000000000006,-0.050999999999999934,-0.5216]","[0.8274000000000001,-0.5844,-0.9452]",-62.39996338,72,1,0,0,response7disk,-14.39996338,6.399993896,1,0,0,rectangle,-14.39996338,6.399993896,1,0,0,3,1,0.0004,0,-14.39996338,6.399993896,1,0,0,0,14,14,40,1,40,first,,,,,,,,,,,,,,,,,,,,,,,,,,,,,,,,,,,,,,,,,,,,,,,,,,,,,,,,,,,,,,,,,,,
,,,,,,60871d7dcbf3bd9bf2c40be8,62bbfa0f76c1b7c44c51f82e,2022-06-29_10h07.18.786,Colour_Asymmetry_Pilot,2022.1.3,Win32,29.94280923,62bbe60bf3d75ef465d3e404,,,,,,,,,,,,,,,,,,,,fourthree,,-4,0.4604,,,,,,,,,,,,,,,,,,,,,,,,,,,,,,,,,,"[-0.4668,-0.8746,-0.2942]","[0.8115999999999999,-0.0040000000000000036,-0.09819999999999995]",-29.59997559,93.6000061,1,0,0,response7disk,-7.200012207,-2.399993896,1,0,0,rectangle,-7.200012207,-2.399993896,1,0,0,3,3,0.0012,0,-7.200012207,-2.399993896,1,0,0,0,15,15,21,1,21,first,,,,,,,,,,,,,,,,,,,,,,,,,,,,,,,,,,,,,,,,,,,,,,,,,,,,,,,,,,,,,,,,,,,
,,,,,,60871d7dcbf3bd9bf2c40be8,62bbfa0f76c1b7c44c51f82e,2022-06-29_10h07.18.786,Colour_Asymmetry_Pilot,2022.1.3,Win32,29.94280923,62bbe60bf3d75ef465d3e404,,,,,,,,,,,,,,,,,,,,threefour,,-4,0.5202,,,,,,,,,,,,,,,,,,,,,,,,,,,,,,,,,,"[0.18419999999999992,-0.4276,-0.404]","[-0.38039999999999996,-0.4276,-0.1452]",-25.59997559,57.6000061,1,0,0,response7disk,-15.20001221,8,1,0,0,rectangle,82.40002441,-48,1,0,0,2,2,4.8677,1,-0.799987793,-4,1,0,0,0,16,16,159,1,78,second,response3disk_3,rectangle,,,,,,,,,,,,,,,,,,,,,,,,,,,,,,,,,,,,,,,,,,,,,,,,,,,,,,,,,,,,,,,,,
,,,,,,60871d7dcbf3bd9bf2c40be8,62bbfa0f76c1b7c44c51f82e,2022-06-29_10h07.18.786,Colour_Asymmetry_Pilot,2022.1.3,Win32,29.94280923,62bbe60bf3d75ef465d3e404,,,,,,,,,,,,,,,,,,,,threeone,,-4,0.5554,,,,,,,,,,,,,,,,,,,,,,,,,,,,,,,,,,"[0.23120000000000007,-0.7726,-0.34120000000000006]","[-0.9844,-0.9688,-0.9922]",-41.59997559,81.6000061,1,0,0,response7disk,-26.39996338,3.199981689,1,0,0,rectangle,-26.39996338,3.199981689,1,0,0,2,3,0.0011,0,-26.39996338,3.199981689,1,0,0,0,17,17,96,1,15,second,,,,,,,,,,,,,,,,,,,,,,,,,,,,,,,,,,,,,,,,,,,,,,,,,,,,,,,,,,,,,,,,,,,
