trials.thisRepN,trials.thisTrialN,trials.thisN,trials.thisIndex,trials.ran,Colourcodes,participant,session,date,expName,psychopyVersion,OS,frameRate,study_id,trials_4.thisRepN,trials_4.thisTrialN,trials_4.thisN,trials_4.thisIndex,trials_4.ran,StimulusPos,key_resp.keys,key_resp.rt,key_resp_2.keys,key_resp_2.rt,key_resp_15.keys,key_resp_15.rt,key_resp_17.keys,key_resp_17.rt,key_resp_9.keys,key_resp_9.rt,key_resp_10.keys,key_resp_10.rt,Circle1_col,Ecc,Circle2_col,similarity,response_time,mouse_5.x,mouse_5.y,mouse_5.leftButton,mouse_5.midButton,mouse_5.rightButton,mouse_5.clicked_name,mouse_10.x,mouse_10.y,mouse_10.leftButton,mouse_10.midButton,mouse_10.rightButton,mouse_10.clicked_name,mouse_7.x,mouse_7.y,mouse_7.leftButton,mouse_7.midButton,mouse_7.rightButton,mouse_7.clicked_name,catchprac,catchnumberprac,mouse_6.x,mouse_6.y,mouse_6.leftButton,mouse_6.midButton,mouse_6.rightButton,mouse_6.clicked_name,duringprac.thisRepN,duringprac.thisTrialN,duringprac.thisN,duringprac.thisIndex,duringprac.ran,key_resp_22.keys,key_resp_22.rt,Circle1_colour,Circle2_colour,mouse.x,mouse.y,mouse.leftButton,mouse.midButton,mouse.rightButton,mouse.clicked_name,mouse_2.x,mouse_2.y,mouse_2.leftButton,mouse_2.midButton,mouse_2.rightButton,mouse_2.clicked_name,mouse_3.x,mouse_3.y,mouse_3.leftButton,mouse_3.midButton,mouse_3.rightButton,catchresponse,catchnumber,response_time_catch,Catch,mouse_11.x,mouse_11.y,mouse_11.leftButton,mouse_11.midButton,mouse_11.rightButton,trials_2.thisRepN,trials_2.thisTrialN,trials_2.thisN,trials_2.thisIndex,trials_2.ran,Colourpair,Temporder,mouse_3.clicked_name,mouse_11.clicked_name,trials_3.thisRepN,trials_3.thisTrialN,trials_3.thisN,trials_3.thisIndex,trials_3.ran,key_resp_instr_Ishi.keys,key_resp_instr_Ishi.rt,Ishi_trial_keyresp.keys,Ishi_trial_keyresp.rt,Ishi_textbox.text,Ishi_loop.thisRepN,Ishi_loop.thisTrialN,Ishi_loop.thisN,Ishi_loop.thisIndex,Ishi_loop.ran,imageaddress,textbox.text,mouse_4.x,mouse_4.y,mouse_4.leftButton,mouse_4.midButton,mouse_4.rightButton,mouse_4.clicked_name,textbox_2.text,mouse_8.x,mouse_8.y,mouse_8.leftButton,mouse_8.midButton,mouse_8.rightButton,mouse_8.clicked_name,textbox_3.text,mouse_9.x,mouse_9.y,mouse_9.leftButton,mouse_9.midButton,mouse_9.rightButton,mouse_9.clicked_name,textbox_4.text,mouse_12.x,mouse_12.y,mouse_12.leftButton,mouse_12.midButton,mouse_12.rightButton,mouse_12.clicked_name,textbox_5.text,mouse_13.x,mouse_13.y,mouse_13.leftButton,mouse_13.midButton,mouse_13.rightButton,mouse_13.clicked_name,textbox_6.text,mouse_14.x,mouse_14.y,mouse_14.leftButton,mouse_14.midButton,mouse_14.rightButton,mouse_14.clicked_name,textbox_7.text,mouse_15.x,mouse_15.y,mouse_15.leftButton,mouse_15.midButton,mouse_15.rightButton,mouse_15.clicked_name
0,0,0,36,1,,5c4214996ca3080001d3b4c1,62bbfaa823a8d8d9be746806,2022-06-29_09h10.10.672,Colour_Asymmetry_Pilot,2022.1.3,Win32,59.99520038,62bbe60bf3d75ef465d3e404,,,,,,,,,,,,,,,,,,,,,,,,,,,,,,,,,,,,,,,,,,,,,,,,,,,,,,,,,,,,,,,,,,,,,,,,,,,,,,,,,,,,,,,,,,,,,,,,,,,,,,,,,,,,,,,,,,,,,,,,,,,,,,,,,,,,,,,,,,,,,,,,,,,,,,,,,,,,,,
0,1,1,1,1,,5c4214996ca3080001d3b4c1,62bbfaa823a8d8d9be746806,2022-06-29_09h10.10.672,Colour_Asymmetry_Pilot,2022.1.3,Win32,59.99520038,62bbe60bf3d75ef465d3e404,,,,,,,,,,,,,,,,,,,,,,,,,,,,,,,,,,,,,,,,,,,,,,,,,,,,,,,,,,,,,,,,,,,,,,,,,,,,,,,,,,,,,,,,,,,,,,,,,,,,,,,,,,,,,,,,,,,,,,,,,,,,,,,,,,,,,,,,,,,,,,,,,,,,,,,,,,,,,,
0,2,2,49,1,,5c4214996ca3080001d3b4c1,62bbfaa823a8d8d9be746806,2022-06-29_09h10.10.672,Colour_Asymmetry_Pilot,2022.1.3,Win32,59.99520038,62bbe60bf3d75ef465d3e404,,,,,,,,,,,,,,,,,,,,,,,,,,,,,,,,,,,,,,,,,,,,,,,,,,,,,,,,,,,,,,,,,,,,,,,,,,,,,,,,,,,,,,,,,,,,,,,,,,,,,,,,,,,,,,,,,,,,,,,,,,,,,,,,,,,,,,,,,,,,,,,,,,,,,,,,,,,,,,
0,3,3,74,1,,5c4214996ca3080001d3b4c1,62bbfaa823a8d8d9be746806,2022-06-29_09h10.10.672,Colour_Asymmetry_Pilot,2022.1.3,Win32,59.99520038,62bbe60bf3d75ef465d3e404,,,,,,,,,,,,,,,,,,,,,,,,,,,,,,,,,,,,,,,,,,,,,,,,,,,,,,,,,,,,,,,,,,,,,,,,,,,,,,,,,,,,,,,,,,,,,,,,,,,,,,,,,,,,,,,,,,,,,,,,,,,,,,,,,,,,,,,,,,,,,,,,,,,,,,,,,,,,,,
0,4,4,5,1,,5c4214996ca3080001d3b4c1,62bbfaa823a8d8d9be746806,2022-06-29_09h10.10.672,Colour_Asymmetry_Pilot,2022.1.3,Win32,59.99520038,62bbe60bf3d75ef465d3e404,,,,,,,,,,,,,,,,,,,,,,,,,,,,,,,,,,,,,,,,,,,,,,,,,,,,,,,,,,,,,,,,,,,,,,,,,,,,,,,,,,,,,,,,,,,,,,,,,,,,,,,,,,,,,,,,,,,,,,,,,,,,,,,,,,,,,,,,,,,,,,,,,,,,,,,,,,,,,,
0,5,5,34,1,,5c4214996ca3080001d3b4c1,62bbfaa823a8d8d9be746806,2022-06-29_09h10.10.672,Colour_Asymmetry_Pilot,2022.1.3,Win32,59.99520038,62bbe60bf3d75ef465d3e404,,,,,,,,,,,,,,,,,,,,,,,,,,,,,,,,,,,,,,,,,,,,,,,,,,,,,,,,,,,,,,,,,,,,,,,,,,,,,,,,,,,,,,,,,,,,,,,,,,,,,,,,,,,,,,,,,,,,,,,,,,,,,,,,,,,,,,,,,,,,,,,,,,,,,,,,,,,,,,
0,6,6,60,1,,5c4214996ca3080001d3b4c1,62bbfaa823a8d8d9be746806,2022-06-29_09h10.10.672,Colour_Asymmetry_Pilot,2022.1.3,Win32,59.99520038,62bbe60bf3d75ef465d3e404,,,,,,,,,,,,,,,,,,,,,,,,,,,,,,,,,,,,,,,,,,,,,,,,,,,,,,,,,,,,,,,,,,,,,,,,,,,,,,,,,,,,,,,,,,,,,,,,,,,,,,,,,,,,,,,,,,,,,,,,,,,,,,,,,,,,,,,,,,,,,,,,,,,,,,,,,,,,,,
0,7,7,76,1,,5c4214996ca3080001d3b4c1,62bbfaa823a8d8d9be746806,2022-06-29_09h10.10.672,Colour_Asymmetry_Pilot,2022.1.3,Win32,59.99520038,62bbe60bf3d75ef465d3e404,,,,,,,,,,,,,,,,,,,,,,,,,,,,,,,,,,,,,,,,,,,,,,,,,,,,,,,,,,,,,,,,,,,,,,,,,,,,,,,,,,,,,,,,,,,,,,,,,,,,,,,,,,,,,,,,,,,,,,,,,,,,,,,,,,,,,,,,,,,,,,,,,,,,,,,,,,,,,,
0,8,8,30,1,,5c4214996ca3080001d3b4c1,62bbfaa823a8d8d9be746806,2022-06-29_09h10.10.672,Colour_Asymmetry_Pilot,2022.1.3,Win32,59.99520038,62bbe60bf3d75ef465d3e404,,,,,,,,,,,,,,,,,,,,,,,,,,,,,,,,,,,,,,,,,,,,,,,,,,,,,,,,,,,,,,,,,,,,,,,,,,,,,,,,,,,,,,,,,,,,,,,,,,,,,,,,,,,,,,,,,,,,,,,,,,,,,,,,,,,,,,,,,,,,,,,,,,,,,,,,,,,,,,
0,9,9,63,1,,5c4214996ca3080001d3b4c1,62bbfaa823a8d8d9be746806,2022-06-29_09h10.10.672,Colour_Asymmetry_Pilot,2022.1.3,Win32,59.99520038,62bbe60bf3d75ef465d3e404,,,,,,,,,,,,,,,,,,,,,,,,,,,,,,,,,,,,,,,,,,,,,,,,,,,,,,,,,,,,,,,,,,,,,,,,,,,,,,,,,,,,,,,,,,,,,,,,,,,,,,,,,,,,,,,,,,,,,,,,,,,,,,,,,,,,,,,,,,,,,,,,,,,,,,,,,,,,,,
0,10,10,43,1,,5c4214996ca3080001d3b4c1,62bbfaa823a8d8d9be746806,2022-06-29_09h10.10.672,Colour_Asymmetry_Pilot,2022.1.3,Win32,59.99520038,62bbe60bf3d75ef465d3e404,,,,,,,,,,,,,,,,,,,,,,,,,,,,,,,,,,,,,,,,,,,,,,,,,,,,,,,,,,,,,,,,,,,,,,,,,,,,,,,,,,,,,,,,,,,,,,,,,,,,,,,,,,,,,,,,,,,,,,,,,,,,,,,,,,,,,,,,,,,,,,,,,,,,,,,,,,,,,,
0,11,11,65,1,,5c4214996ca3080001d3b4c1,62bbfaa823a8d8d9be746806,2022-06-29_09h10.10.672,Colour_Asymmetry_Pilot,2022.1.3,Win32,59.99520038,62bbe60bf3d75ef465d3e404,,,,,,,,,,,,,,,,,,,,,,,,,,,,,,,,,,,,,,,,,,,,,,,,,,,,,,,,,,,,,,,,,,,,,,,,,,,,,,,,,,,,,,,,,,,,,,,,,,,,,,,,,,,,,,,,,,,,,,,,,,,,,,,,,,,,,,,,,,,,,,,,,,,,,,,,,,,,,,
0,12,12,72,1,,5c4214996ca3080001d3b4c1,62bbfaa823a8d8d9be746806,2022-06-29_09h10.10.672,Colour_Asymmetry_Pilot,2022.1.3,Win32,59.99520038,62bbe60bf3d75ef465d3e404,,,,,,,,,,,,,,,,,,,,,,,,,,,,,,,,,,,,,,,,,,,,,,,,,,,,,,,,,,,,,,,,,,,,,,,,,,,,,,,,,,,,,,,,,,,,,,,,,,,,,,,,,,,,,,,,,,,,,,,,,,,,,,,,,,,,,,,,,,,,,,,,,,,,,,,,,,,,,,
0,13,13,15,1,,5c4214996ca3080001d3b4c1,62bbfaa823a8d8d9be746806,2022-06-29_09h10.10.672,Colour_Asymmetry_Pilot,2022.1.3,Win32,59.99520038,62bbe60bf3d75ef465d3e404,,,,,,,,,,,,,,,,,,,,,,,,,,,,,,,,,,,,,,,,,,,,,,,,,,,,,,,,,,,,,,,,,,,,,,,,,,,,,,,,,,,,,,,,,,,,,,,,,,,,,,,,,,,,,,,,,,,,,,,,,,,,,,,,,,,,,,,,,,,,,,,,,,,,,,,,,,,,,,
0,14,14,14,1,,5c4214996ca3080001d3b4c1,62bbfaa823a8d8d9be746806,2022-06-29_09h10.10.672,Colour_Asymmetry_Pilot,2022.1.3,Win32,59.99520038,62bbe60bf3d75ef465d3e404,,,,,,,,,,,,,,,,,,,,,,,,,,,,,,,,,,,,,,,,,,,,,,,,,,,,,,,,,,,,,,,,,,,,,,,,,,,,,,,,,,,,,,,,,,,,,,,,,,,,,,,,,,,,,,,,,,,,,,,,,,,,,,,,,,,,,,,,,,,,,,,,,,,,,,,,,,,,,,
0,15,15,57,1,,5c4214996ca3080001d3b4c1,62bbfaa823a8d8d9be746806,2022-06-29_09h10.10.672,Colour_Asymmetry_Pilot,2022.1.3,Win32,59.99520038,62bbe60bf3d75ef465d3e404,,,,,,,,,,,,,,,,,,,,,,,,,,,,,,,,,,,,,,,,,,,,,,,,,,,,,,,,,,,,,,,,,,,,,,,,,,,,,,,,,,,,,,,,,,,,,,,,,,,,,,,,,,,,,,,,,,,,,,,,,,,,,,,,,,,,,,,,,,,,,,,,,,,,,,,,,,,,,,
0,16,16,91,1,,5c4214996ca3080001d3b4c1,62bbfaa823a8d8d9be746806,2022-06-29_09h10.10.672,Colour_Asymmetry_Pilot,2022.1.3,Win32,59.99520038,62bbe60bf3d75ef465d3e404,,,,,,,,,,,,,,,,,,,,,,,,,,,,,,,,,,,,,,,,,,,,,,,,,,,,,,,,,,,,,,,,,,,,,,,,,,,,,,,,,,,,,,,,,,,,,,,,,,,,,,,,,,,,,,,,,,,,,,,,,,,,,,,,,,,,,,,,,,,,,,,,,,,,,,,,,,,,,,
0,17,17,12,1,,5c4214996ca3080001d3b4c1,62bbfaa823a8d8d9be746806,2022-06-29_09h10.10.672,Colour_Asymmetry_Pilot,2022.1.3,Win32,59.99520038,62bbe60bf3d75ef465d3e404,,,,,,,,,,,,,,,,,,,,,,,,,,,,,,,,,,,,,,,,,,,,,,,,,,,,,,,,,,,,,,,,,,,,,,,,,,,,,,,,,,,,,,,,,,,,,,,,,,,,,,,,,,,,,,,,,,,,,,,,,,,,,,,,,,,,,,,,,,,,,,,,,,,,,,,,,,,,,,
0,18,18,82,1,,5c4214996ca3080001d3b4c1,62bbfaa823a8d8d9be746806,2022-06-29_09h10.10.672,Colour_Asymmetry_Pilot,2022.1.3,Win32,59.99520038,62bbe60bf3d75ef465d3e404,,,,,,,,,,,,,,,,,,,,,,,,,,,,,,,,,,,,,,,,,,,,,,,,,,,,,,,,,,,,,,,,,,,,,,,,,,,,,,,,,,,,,,,,,,,,,,,,,,,,,,,,,,,,,,,,,,,,,,,,,,,,,,,,,,,,,,,,,,,,,,,,,,,,,,,,,,,,,,
0,19,19,84,1,,5c4214996ca3080001d3b4c1,62bbfaa823a8d8d9be746806,2022-06-29_09h10.10.672,Colour_Asymmetry_Pilot,2022.1.3,Win32,59.99520038,62bbe60bf3d75ef465d3e404,,,,,,,,,,,,,,,,,,,,,,,,,,,,,,,,,,,,,,,,,,,,,,,,,,,,,,,,,,,,,,,,,,,,,,,,,,,,,,,,,,,,,,,,,,,,,,,,,,,,,,,,,,,,,,,,,,,,,,,,,,,,,,,,,,,,,,,,,,,,,,,,,,,,,,,,,,,,,,
0,20,20,26,1,,5c4214996ca3080001d3b4c1,62bbfaa823a8d8d9be746806,2022-06-29_09h10.10.672,Colour_Asymmetry_Pilot,2022.1.3,Win32,59.99520038,62bbe60bf3d75ef465d3e404,,,,,,,,,,,,,,,,,,,,,,,,,,,,,,,,,,,,,,,,,,,,,,,,,,,,,,,,,,,,,,,,,,,,,,,,,,,,,,,,,,,,,,,,,,,,,,,,,,,,,,,,,,,,,,,,,,,,,,,,,,,,,,,,,,,,,,,,,,,,,,,,,,,,,,,,,,,,,,
0,21,21,38,1,,5c4214996ca3080001d3b4c1,62bbfaa823a8d8d9be746806,2022-06-29_09h10.10.672,Colour_Asymmetry_Pilot,2022.1.3,Win32,59.99520038,62bbe60bf3d75ef465d3e404,,,,,,,,,,,,,,,,,,,,,,,,,,,,,,,,,,,,,,,,,,,,,,,,,,,,,,,,,,,,,,,,,,,,,,,,,,,,,,,,,,,,,,,,,,,,,,,,,,,,,,,,,,,,,,,,,,,,,,,,,,,,,,,,,,,,,,,,,,,,,,,,,,,,,,,,,,,,,,
0,22,22,0,1,,5c4214996ca3080001d3b4c1,62bbfaa823a8d8d9be746806,2022-06-29_09h10.10.672,Colour_Asymmetry_Pilot,2022.1.3,Win32,59.99520038,62bbe60bf3d75ef465d3e404,,,,,,,,,,,,,,,,,,,,,,,,,,,,,,,,,,,,,,,,,,,,,,,,,,,,,,,,,,,,,,,,,,,,,,,,,,,,,,,,,,,,,,,,,,,,,,,,,,,,,,,,,,,,,,,,,,,,,,,,,,,,,,,,,,,,,,,,,,,,,,,,,,,,,,,,,,,,,,
0,23,23,40,1,,5c4214996ca3080001d3b4c1,62bbfaa823a8d8d9be746806,2022-06-29_09h10.10.672,Colour_Asymmetry_Pilot,2022.1.3,Win32,59.99520038,62bbe60bf3d75ef465d3e404,,,,,,,,,,,,,,,,,,,,,,,,,,,,,,,,,,,,,,,,,,,,,,,,,,,,,,,,,,,,,,,,,,,,,,,,,,,,,,,,,,,,,,,,,,,,,,,,,,,,,,,,,,,,,,,,,,,,,,,,,,,,,,,,,,,,,,,,,,,,,,,,,,,,,,,,,,,,,,
0,24,24,66,1,,5c4214996ca3080001d3b4c1,62bbfaa823a8d8d9be746806,2022-06-29_09h10.10.672,Colour_Asymmetry_Pilot,2022.1.3,Win32,59.99520038,62bbe60bf3d75ef465d3e404,,,,,,,,,,,,,,,,,,,,,,,,,,,,,,,,,,,,,,,,,,,,,,,,,,,,,,,,,,,,,,,,,,,,,,,,,,,,,,,,,,,,,,,,,,,,,,,,,,,,,,,,,,,,,,,,,,,,,,,,,,,,,,,,,,,,,,,,,,,,,,,,,,,,,,,,,,,,,,
0,25,25,59,1,,5c4214996ca3080001d3b4c1,62bbfaa823a8d8d9be746806,2022-06-29_09h10.10.672,Colour_Asymmetry_Pilot,2022.1.3,Win32,59.99520038,62bbe60bf3d75ef465d3e404,,,,,,,,,,,,,,,,,,,,,,,,,,,,,,,,,,,,,,,,,,,,,,,,,,,,,,,,,,,,,,,,,,,,,,,,,,,,,,,,,,,,,,,,,,,,,,,,,,,,,,,,,,,,,,,,,,,,,,,,,,,,,,,,,,,,,,,,,,,,,,,,,,,,,,,,,,,,,,
0,26,26,71,1,,5c4214996ca3080001d3b4c1,62bbfaa823a8d8d9be746806,2022-06-29_09h10.10.672,Colour_Asymmetry_Pilot,2022.1.3,Win32,59.99520038,62bbe60bf3d75ef465d3e404,,,,,,,,,,,,,,,,,,,,,,,,,,,,,,,,,,,,,,,,,,,,,,,,,,,,,,,,,,,,,,,,,,,,,,,,,,,,,,,,,,,,,,,,,,,,,,,,,,,,,,,,,,,,,,,,,,,,,,,,,,,,,,,,,,,,,,,,,,,,,,,,,,,,,,,,,,,,,,
0,27,27,64,1,,5c4214996ca3080001d3b4c1,62bbfaa823a8d8d9be746806,2022-06-29_09h10.10.672,Colour_Asymmetry_Pilot,2022.1.3,Win32,59.99520038,62bbe60bf3d75ef465d3e404,,,,,,,,,,,,,,,,,,,,,,,,,,,,,,,,,,,,,,,,,,,,,,,,,,,,,,,,,,,,,,,,,,,,,,,,,,,,,,,,,,,,,,,,,,,,,,,,,,,,,,,,,,,,,,,,,,,,,,,,,,,,,,,,,,,,,,,,,,,,,,,,,,,,,,,,,,,,,,
0,28,28,16,1,,5c4214996ca3080001d3b4c1,62bbfaa823a8d8d9be746806,2022-06-29_09h10.10.672,Colour_Asymmetry_Pilot,2022.1.3,Win32,59.99520038,62bbe60bf3d75ef465d3e404,,,,,,,,,,,,,,,,,,,,,,,,,,,,,,,,,,,,,,,,,,,,,,,,,,,,,,,,,,,,,,,,,,,,,,,,,,,,,,,,,,,,,,,,,,,,,,,,,,,,,,,,,,,,,,,,,,,,,,,,,,,,,,,,,,,,,,,,,,,,,,,,,,,,,,,,,,,,,,
0,29,29,55,1,,5c4214996ca3080001d3b4c1,62bbfaa823a8d8d9be746806,2022-06-29_09h10.10.672,Colour_Asymmetry_Pilot,2022.1.3,Win32,59.99520038,62bbe60bf3d75ef465d3e404,,,,,,,,,,,,,,,,,,,,,,,,,,,,,,,,,,,,,,,,,,,,,,,,,,,,,,,,,,,,,,,,,,,,,,,,,,,,,,,,,,,,,,,,,,,,,,,,,,,,,,,,,,,,,,,,,,,,,,,,,,,,,,,,,,,,,,,,,,,,,,,,,,,,,,,,,,,,,,
0,30,30,78,1,,5c4214996ca3080001d3b4c1,62bbfaa823a8d8d9be746806,2022-06-29_09h10.10.672,Colour_Asymmetry_Pilot,2022.1.3,Win32,59.99520038,62bbe60bf3d75ef465d3e404,,,,,,,,,,,,,,,,,,,,,,,,,,,,,,,,,,,,,,,,,,,,,,,,,,,,,,,,,,,,,,,,,,,,,,,,,,,,,,,,,,,,,,,,,,,,,,,,,,,,,,,,,,,,,,,,,,,,,,,,,,,,,,,,,,,,,,,,,,,,,,,,,,,,,,,,,,,,,,
0,31,31,48,1,,5c4214996ca3080001d3b4c1,62bbfaa823a8d8d9be746806,2022-06-29_09h10.10.672,Colour_Asymmetry_Pilot,2022.1.3,Win32,59.99520038,62bbe60bf3d75ef465d3e404,,,,,,,,,,,,,,,,,,,,,,,,,,,,,,,,,,,,,,,,,,,,,,,,,,,,,,,,,,,,,,,,,,,,,,,,,,,,,,,,,,,,,,,,,,,,,,,,,,,,,,,,,,,,,,,,,,,,,,,,,,,,,,,,,,,,,,,,,,,,,,,,,,,,,,,,,,,,,,
0,32,32,89,1,,5c4214996ca3080001d3b4c1,62bbfaa823a8d8d9be746806,2022-06-29_09h10.10.672,Colour_Asymmetry_Pilot,2022.1.3,Win32,59.99520038,62bbe60bf3d75ef465d3e404,,,,,,,,,,,,,,,,,,,,,,,,,,,,,,,,,,,,,,,,,,,,,,,,,,,,,,,,,,,,,,,,,,,,,,,,,,,,,,,,,,,,,,,,,,,,,,,,,,,,,,,,,,,,,,,,,,,,,,,,,,,,,,,,,,,,,,,,,,,,,,,,,,,,,,,,,,,,,,
0,33,33,29,1,,5c4214996ca3080001d3b4c1,62bbfaa823a8d8d9be746806,2022-06-29_09h10.10.672,Colour_Asymmetry_Pilot,2022.1.3,Win32,59.99520038,62bbe60bf3d75ef465d3e404,,,,,,,,,,,,,,,,,,,,,,,,,,,,,,,,,,,,,,,,,,,,,,,,,,,,,,,,,,,,,,,,,,,,,,,,,,,,,,,,,,,,,,,,,,,,,,,,,,,,,,,,,,,,,,,,,,,,,,,,,,,,,,,,,,,,,,,,,,,,,,,,,,,,,,,,,,,,,,
0,34,34,10,1,,5c4214996ca3080001d3b4c1,62bbfaa823a8d8d9be746806,2022-06-29_09h10.10.672,Colour_Asymmetry_Pilot,2022.1.3,Win32,59.99520038,62bbe60bf3d75ef465d3e404,,,,,,,,,,,,,,,,,,,,,,,,,,,,,,,,,,,,,,,,,,,,,,,,,,,,,,,,,,,,,,,,,,,,,,,,,,,,,,,,,,,,,,,,,,,,,,,,,,,,,,,,,,,,,,,,,,,,,,,,,,,,,,,,,,,,,,,,,,,,,,,,,,,,,,,,,,,,,,
0,35,35,86,1,,5c4214996ca3080001d3b4c1,62bbfaa823a8d8d9be746806,2022-06-29_09h10.10.672,Colour_Asymmetry_Pilot,2022.1.3,Win32,59.99520038,62bbe60bf3d75ef465d3e404,,,,,,,,,,,,,,,,,,,,,,,,,,,,,,,,,,,,,,,,,,,,,,,,,,,,,,,,,,,,,,,,,,,,,,,,,,,,,,,,,,,,,,,,,,,,,,,,,,,,,,,,,,,,,,,,,,,,,,,,,,,,,,,,,,,,,,,,,,,,,,,,,,,,,,,,,,,,,,
0,36,36,90,1,,5c4214996ca3080001d3b4c1,62bbfaa823a8d8d9be746806,2022-06-29_09h10.10.672,Colour_Asymmetry_Pilot,2022.1.3,Win32,59.99520038,62bbe60bf3d75ef465d3e404,,,,,,,,,,,,,,,,,,,,,,,,,,,,,,,,,,,,,,,,,,,,,,,,,,,,,,,,,,,,,,,,,,,,,,,,,,,,,,,,,,,,,,,,,,,,,,,,,,,,,,,,,,,,,,,,,,,,,,,,,,,,,,,,,,,,,,,,,,,,,,,,,,,,,,,,,,,,,,
0,37,37,87,1,,5c4214996ca3080001d3b4c1,62bbfaa823a8d8d9be746806,2022-06-29_09h10.10.672,Colour_Asymmetry_Pilot,2022.1.3,Win32,59.99520038,62bbe60bf3d75ef465d3e404,,,,,,,,,,,,,,,,,,,,,,,,,,,,,,,,,,,,,,,,,,,,,,,,,,,,,,,,,,,,,,,,,,,,,,,,,,,,,,,,,,,,,,,,,,,,,,,,,,,,,,,,,,,,,,,,,,,,,,,,,,,,,,,,,,,,,,,,,,,,,,,,,,,,,,,,,,,,,,
0,38,38,22,1,,5c4214996ca3080001d3b4c1,62bbfaa823a8d8d9be746806,2022-06-29_09h10.10.672,Colour_Asymmetry_Pilot,2022.1.3,Win32,59.99520038,62bbe60bf3d75ef465d3e404,,,,,,,,,,,,,,,,,,,,,,,,,,,,,,,,,,,,,,,,,,,,,,,,,,,,,,,,,,,,,,,,,,,,,,,,,,,,,,,,,,,,,,,,,,,,,,,,,,,,,,,,,,,,,,,,,,,,,,,,,,,,,,,,,,,,,,,,,,,,,,,,,,,,,,,,,,,,,,
0,39,39,20,1,,5c4214996ca3080001d3b4c1,62bbfaa823a8d8d9be746806,2022-06-29_09h10.10.672,Colour_Asymmetry_Pilot,2022.1.3,Win32,59.99520038,62bbe60bf3d75ef465d3e404,,,,,,,,,,,,,,,,,,,,,,,,,,,,,,,,,,,,,,,,,,,,,,,,,,,,,,,,,,,,,,,,,,,,,,,,,,,,,,,,,,,,,,,,,,,,,,,,,,,,,,,,,,,,,,,,,,,,,,,,,,,,,,,,,,,,,,,,,,,,,,,,,,,,,,,,,,,,,,
0,40,40,44,1,,5c4214996ca3080001d3b4c1,62bbfaa823a8d8d9be746806,2022-06-29_09h10.10.672,Colour_Asymmetry_Pilot,2022.1.3,Win32,59.99520038,62bbe60bf3d75ef465d3e404,,,,,,,,,,,,,,,,,,,,,,,,,,,,,,,,,,,,,,,,,,,,,,,,,,,,,,,,,,,,,,,,,,,,,,,,,,,,,,,,,,,,,,,,,,,,,,,,,,,,,,,,,,,,,,,,,,,,,,,,,,,,,,,,,,,,,,,,,,,,,,,,,,,,,,,,,,,,,,
0,41,41,46,1,,5c4214996ca3080001d3b4c1,62bbfaa823a8d8d9be746806,2022-06-29_09h10.10.672,Colour_Asymmetry_Pilot,2022.1.3,Win32,59.99520038,62bbe60bf3d75ef465d3e404,,,,,,,,,,,,,,,,,,,,,,,,,,,,,,,,,,,,,,,,,,,,,,,,,,,,,,,,,,,,,,,,,,,,,,,,,,,,,,,,,,,,,,,,,,,,,,,,,,,,,,,,,,,,,,,,,,,,,,,,,,,,,,,,,,,,,,,,,,,,,,,,,,,,,,,,,,,,,,
0,42,42,67,1,,5c4214996ca3080001d3b4c1,62bbfaa823a8d8d9be746806,2022-06-29_09h10.10.672,Colour_Asymmetry_Pilot,2022.1.3,Win32,59.99520038,62bbe60bf3d75ef465d3e404,,,,,,,,,,,,,,,,,,,,,,,,,,,,,,,,,,,,,,,,,,,,,,,,,,,,,,,,,,,,,,,,,,,,,,,,,,,,,,,,,,,,,,,,,,,,,,,,,,,,,,,,,,,,,,,,,,,,,,,,,,,,,,,,,,,,,,,,,,,,,,,,,,,,,,,,,,,,,,
0,43,43,92,1,,5c4214996ca3080001d3b4c1,62bbfaa823a8d8d9be746806,2022-06-29_09h10.10.672,Colour_Asymmetry_Pilot,2022.1.3,Win32,59.99520038,62bbe60bf3d75ef465d3e404,,,,,,,,,,,,,,,,,,,,,,,,,,,,,,,,,,,,,,,,,,,,,,,,,,,,,,,,,,,,,,,,,,,,,,,,,,,,,,,,,,,,,,,,,,,,,,,,,,,,,,,,,,,,,,,,,,,,,,,,,,,,,,,,,,,,,,,,,,,,,,,,,,,,,,,,,,,,,,
0,44,44,3,1,,5c4214996ca3080001d3b4c1,62bbfaa823a8d8d9be746806,2022-06-29_09h10.10.672,Colour_Asymmetry_Pilot,2022.1.3,Win32,59.99520038,62bbe60bf3d75ef465d3e404,,,,,,,,,,,,,,,,,,,,,,,,,,,,,,,,,,,,,,,,,,,,,,,,,,,,,,,,,,,,,,,,,,,,,,,,,,,,,,,,,,,,,,,,,,,,,,,,,,,,,,,,,,,,,,,,,,,,,,,,,,,,,,,,,,,,,,,,,,,,,,,,,,,,,,,,,,,,,,
0,45,45,24,1,,5c4214996ca3080001d3b4c1,62bbfaa823a8d8d9be746806,2022-06-29_09h10.10.672,Colour_Asymmetry_Pilot,2022.1.3,Win32,59.99520038,62bbe60bf3d75ef465d3e404,,,,,,,,,,,,,,,,,,,,,,,,,,,,,,,,,,,,,,,,,,,,,,,,,,,,,,,,,,,,,,,,,,,,,,,,,,,,,,,,,,,,,,,,,,,,,,,,,,,,,,,,,,,,,,,,,,,,,,,,,,,,,,,,,,,,,,,,,,,,,,,,,,,,,,,,,,,,,,
0,46,46,85,1,,5c4214996ca3080001d3b4c1,62bbfaa823a8d8d9be746806,2022-06-29_09h10.10.672,Colour_Asymmetry_Pilot,2022.1.3,Win32,59.99520038,62bbe60bf3d75ef465d3e404,,,,,,,,,,,,,,,,,,,,,,,,,,,,,,,,,,,,,,,,,,,,,,,,,,,,,,,,,,,,,,,,,,,,,,,,,,,,,,,,,,,,,,,,,,,,,,,,,,,,,,,,,,,,,,,,,,,,,,,,,,,,,,,,,,,,,,,,,,,,,,,,,,,,,,,,,,,,,,
0,47,47,45,1,,5c4214996ca3080001d3b4c1,62bbfaa823a8d8d9be746806,2022-06-29_09h10.10.672,Colour_Asymmetry_Pilot,2022.1.3,Win32,59.99520038,62bbe60bf3d75ef465d3e404,,,,,,,,,,,,,,,,,,,,,,,,,,,,,,,,,,,,,,,,,,,,,,,,,,,,,,,,,,,,,,,,,,,,,,,,,,,,,,,,,,,,,,,,,,,,,,,,,,,,,,,,,,,,,,,,,,,,,,,,,,,,,,,,,,,,,,,,,,,,,,,,,,,,,,,,,,,,,,
0,48,48,33,1,,5c4214996ca3080001d3b4c1,62bbfaa823a8d8d9be746806,2022-06-29_09h10.10.672,Colour_Asymmetry_Pilot,2022.1.3,Win32,59.99520038,62bbe60bf3d75ef465d3e404,,,,,,,,,,,,,,,,,,,,,,,,,,,,,,,,,,,,,,,,,,,,,,,,,,,,,,,,,,,,,,,,,,,,,,,,,,,,,,,,,,,,,,,,,,,,,,,,,,,,,,,,,,,,,,,,,,,,,,,,,,,,,,,,,,,,,,,,,,,,,,,,,,,,,,,,,,,,,,
0,49,49,39,1,,5c4214996ca3080001d3b4c1,62bbfaa823a8d8d9be746806,2022-06-29_09h10.10.672,Colour_Asymmetry_Pilot,2022.1.3,Win32,59.99520038,62bbe60bf3d75ef465d3e404,,,,,,,,,,,,,,,,,,,,,,,,,,,,,,,,,,,,,,,,,,,,,,,,,,,,,,,,,,,,,,,,,,,,,,,,,,,,,,,,,,,,,,,,,,,,,,,,,,,,,,,,,,,,,,,,,,,,,,,,,,,,,,,,,,,,,,,,,,,,,,,,,,,,,,,,,,,,,,
0,50,50,62,1,,5c4214996ca3080001d3b4c1,62bbfaa823a8d8d9be746806,2022-06-29_09h10.10.672,Colour_Asymmetry_Pilot,2022.1.3,Win32,59.99520038,62bbe60bf3d75ef465d3e404,,,,,,,,,,,,,,,,,,,,,,,,,,,,,,,,,,,,,,,,,,,,,,,,,,,,,,,,,,,,,,,,,,,,,,,,,,,,,,,,,,,,,,,,,,,,,,,,,,,,,,,,,,,,,,,,,,,,,,,,,,,,,,,,,,,,,,,,,,,,,,,,,,,,,,,,,,,,,,
0,51,51,69,1,,5c4214996ca3080001d3b4c1,62bbfaa823a8d8d9be746806,2022-06-29_09h10.10.672,Colour_Asymmetry_Pilot,2022.1.3,Win32,59.99520038,62bbe60bf3d75ef465d3e404,,,,,,,,,,,,,,,,,,,,,,,,,,,,,,,,,,,,,,,,,,,,,,,,,,,,,,,,,,,,,,,,,,,,,,,,,,,,,,,,,,,,,,,,,,,,,,,,,,,,,,,,,,,,,,,,,,,,,,,,,,,,,,,,,,,,,,,,,,,,,,,,,,,,,,,,,,,,,,
0,52,52,41,1,,5c4214996ca3080001d3b4c1,62bbfaa823a8d8d9be746806,2022-06-29_09h10.10.672,Colour_Asymmetry_Pilot,2022.1.3,Win32,59.99520038,62bbe60bf3d75ef465d3e404,,,,,,,,,,,,,,,,,,,,,,,,,,,,,,,,,,,,,,,,,,,,,,,,,,,,,,,,,,,,,,,,,,,,,,,,,,,,,,,,,,,,,,,,,,,,,,,,,,,,,,,,,,,,,,,,,,,,,,,,,,,,,,,,,,,,,,,,,,,,,,,,,,,,,,,,,,,,,,
0,53,53,21,1,,5c4214996ca3080001d3b4c1,62bbfaa823a8d8d9be746806,2022-06-29_09h10.10.672,Colour_Asymmetry_Pilot,2022.1.3,Win32,59.99520038,62bbe60bf3d75ef465d3e404,,,,,,,,,,,,,,,,,,,,,,,,,,,,,,,,,,,,,,,,,,,,,,,,,,,,,,,,,,,,,,,,,,,,,,,,,,,,,,,,,,,,,,,,,,,,,,,,,,,,,,,,,,,,,,,,,,,,,,,,,,,,,,,,,,,,,,,,,,,,,,,,,,,,,,,,,,,,,,
0,54,54,6,1,,5c4214996ca3080001d3b4c1,62bbfaa823a8d8d9be746806,2022-06-29_09h10.10.672,Colour_Asymmetry_Pilot,2022.1.3,Win32,59.99520038,62bbe60bf3d75ef465d3e404,,,,,,,,,,,,,,,,,,,,,,,,,,,,,,,,,,,,,,,,,,,,,,,,,,,,,,,,,,,,,,,,,,,,,,,,,,,,,,,,,,,,,,,,,,,,,,,,,,,,,,,,,,,,,,,,,,,,,,,,,,,,,,,,,,,,,,,,,,,,,,,,,,,,,,,,,,,,,,
0,55,55,11,1,,5c4214996ca3080001d3b4c1,62bbfaa823a8d8d9be746806,2022-06-29_09h10.10.672,Colour_Asymmetry_Pilot,2022.1.3,Win32,59.99520038,62bbe60bf3d75ef465d3e404,,,,,,,,,,,,,,,,,,,,,,,,,,,,,,,,,,,,,,,,,,,,,,,,,,,,,,,,,,,,,,,,,,,,,,,,,,,,,,,,,,,,,,,,,,,,,,,,,,,,,,,,,,,,,,,,,,,,,,,,,,,,,,,,,,,,,,,,,,,,,,,,,,,,,,,,,,,,,,
0,56,56,37,1,,5c4214996ca3080001d3b4c1,62bbfaa823a8d8d9be746806,2022-06-29_09h10.10.672,Colour_Asymmetry_Pilot,2022.1.3,Win32,59.99520038,62bbe60bf3d75ef465d3e404,,,,,,,,,,,,,,,,,,,,,,,,,,,,,,,,,,,,,,,,,,,,,,,,,,,,,,,,,,,,,,,,,,,,,,,,,,,,,,,,,,,,,,,,,,,,,,,,,,,,,,,,,,,,,,,,,,,,,,,,,,,,,,,,,,,,,,,,,,,,,,,,,,,,,,,,,,,,,,
0,57,57,58,1,,5c4214996ca3080001d3b4c1,62bbfaa823a8d8d9be746806,2022-06-29_09h10.10.672,Colour_Asymmetry_Pilot,2022.1.3,Win32,59.99520038,62bbe60bf3d75ef465d3e404,,,,,,,,,,,,,,,,,,,,,,,,,,,,,,,,,,,,,,,,,,,,,,,,,,,,,,,,,,,,,,,,,,,,,,,,,,,,,,,,,,,,,,,,,,,,,,,,,,,,,,,,,,,,,,,,,,,,,,,,,,,,,,,,,,,,,,,,,,,,,,,,,,,,,,,,,,,,,,
0,58,58,47,1,,5c4214996ca3080001d3b4c1,62bbfaa823a8d8d9be746806,2022-06-29_09h10.10.672,Colour_Asymmetry_Pilot,2022.1.3,Win32,59.99520038,62bbe60bf3d75ef465d3e404,,,,,,,,,,,,,,,,,,,,,,,,,,,,,,,,,,,,,,,,,,,,,,,,,,,,,,,,,,,,,,,,,,,,,,,,,,,,,,,,,,,,,,,,,,,,,,,,,,,,,,,,,,,,,,,,,,,,,,,,,,,,,,,,,,,,,,,,,,,,,,,,,,,,,,,,,,,,,,
0,59,59,51,1,,5c4214996ca3080001d3b4c1,62bbfaa823a8d8d9be746806,2022-06-29_09h10.10.672,Colour_Asymmetry_Pilot,2022.1.3,Win32,59.99520038,62bbe60bf3d75ef465d3e404,,,,,,,,,,,,,,,,,,,,,,,,,,,,,,,,,,,,,,,,,,,,,,,,,,,,,,,,,,,,,,,,,,,,,,,,,,,,,,,,,,,,,,,,,,,,,,,,,,,,,,,,,,,,,,,,,,,,,,,,,,,,,,,,,,,,,,,,,,,,,,,,,,,,,,,,,,,,,,
0,60,60,2,1,,5c4214996ca3080001d3b4c1,62bbfaa823a8d8d9be746806,2022-06-29_09h10.10.672,Colour_Asymmetry_Pilot,2022.1.3,Win32,59.99520038,62bbe60bf3d75ef465d3e404,,,,,,,,,,,,,,,,,,,,,,,,,,,,,,,,,,,,,,,,,,,,,,,,,,,,,,,,,,,,,,,,,,,,,,,,,,,,,,,,,,,,,,,,,,,,,,,,,,,,,,,,,,,,,,,,,,,,,,,,,,,,,,,,,,,,,,,,,,,,,,,,,,,,,,,,,,,,,,
0,61,61,31,1,,5c4214996ca3080001d3b4c1,62bbfaa823a8d8d9be746806,2022-06-29_09h10.10.672,Colour_Asymmetry_Pilot,2022.1.3,Win32,59.99520038,62bbe60bf3d75ef465d3e404,,,,,,,,,,,,,,,,,,,,,,,,,,,,,,,,,,,,,,,,,,,,,,,,,,,,,,,,,,,,,,,,,,,,,,,,,,,,,,,,,,,,,,,,,,,,,,,,,,,,,,,,,,,,,,,,,,,,,,,,,,,,,,,,,,,,,,,,,,,,,,,,,,,,,,,,,,,,,,
0,62,62,75,1,,5c4214996ca3080001d3b4c1,62bbfaa823a8d8d9be746806,2022-06-29_09h10.10.672,Colour_Asymmetry_Pilot,2022.1.3,Win32,59.99520038,62bbe60bf3d75ef465d3e404,,,,,,,,,,,,,,,,,,,,,,,,,,,,,,,,,,,,,,,,,,,,,,,,,,,,,,,,,,,,,,,,,,,,,,,,,,,,,,,,,,,,,,,,,,,,,,,,,,,,,,,,,,,,,,,,,,,,,,,,,,,,,,,,,,,,,,,,,,,,,,,,,,,,,,,,,,,,,,
0,63,63,13,1,,5c4214996ca3080001d3b4c1,62bbfaa823a8d8d9be746806,2022-06-29_09h10.10.672,Colour_Asymmetry_Pilot,2022.1.3,Win32,59.99520038,62bbe60bf3d75ef465d3e404,,,,,,,,,,,,,,,,,,,,,,,,,,,,,,,,,,,,,,,,,,,,,,,,,,,,,,,,,,,,,,,,,,,,,,,,,,,,,,,,,,,,,,,,,,,,,,,,,,,,,,,,,,,,,,,,,,,,,,,,,,,,,,,,,,,,,,,,,,,,,,,,,,,,,,,,,,,,,,
0,64,64,18,1,,5c4214996ca3080001d3b4c1,62bbfaa823a8d8d9be746806,2022-06-29_09h10.10.672,Colour_Asymmetry_Pilot,2022.1.3,Win32,59.99520038,62bbe60bf3d75ef465d3e404,,,,,,,,,,,,,,,,,,,,,,,,,,,,,,,,,,,,,,,,,,,,,,,,,,,,,,,,,,,,,,,,,,,,,,,,,,,,,,,,,,,,,,,,,,,,,,,,,,,,,,,,,,,,,,,,,,,,,,,,,,,,,,,,,,,,,,,,,,,,,,,,,,,,,,,,,,,,,,
0,65,65,8,1,,5c4214996ca3080001d3b4c1,62bbfaa823a8d8d9be746806,2022-06-29_09h10.10.672,Colour_Asymmetry_Pilot,2022.1.3,Win32,59.99520038,62bbe60bf3d75ef465d3e404,,,,,,,,,,,,,,,,,,,,,,,,,,,,,,,,,,,,,,,,,,,,,,,,,,,,,,,,,,,,,,,,,,,,,,,,,,,,,,,,,,,,,,,,,,,,,,,,,,,,,,,,,,,,,,,,,,,,,,,,,,,,,,,,,,,,,,,,,,,,,,,,,,,,,,,,,,,,,,
0,66,66,56,1,,5c4214996ca3080001d3b4c1,62bbfaa823a8d8d9be746806,2022-06-29_09h10.10.672,Colour_Asymmetry_Pilot,2022.1.3,Win32,59.99520038,62bbe60bf3d75ef465d3e404,,,,,,,,,,,,,,,,,,,,,,,,,,,,,,,,,,,,,,,,,,,,,,,,,,,,,,,,,,,,,,,,,,,,,,,,,,,,,,,,,,,,,,,,,,,,,,,,,,,,,,,,,,,,,,,,,,,,,,,,,,,,,,,,,,,,,,,,,,,,,,,,,,,,,,,,,,,,,,
0,67,67,23,1,,5c4214996ca3080001d3b4c1,62bbfaa823a8d8d9be746806,2022-06-29_09h10.10.672,Colour_Asymmetry_Pilot,2022.1.3,Win32,59.99520038,62bbe60bf3d75ef465d3e404,,,,,,,,,,,,,,,,,,,,,,,,,,,,,,,,,,,,,,,,,,,,,,,,,,,,,,,,,,,,,,,,,,,,,,,,,,,,,,,,,,,,,,,,,,,,,,,,,,,,,,,,,,,,,,,,,,,,,,,,,,,,,,,,,,,,,,,,,,,,,,,,,,,,,,,,,,,,,,
0,68,68,28,1,,5c4214996ca3080001d3b4c1,62bbfaa823a8d8d9be746806,2022-06-29_09h10.10.672,Colour_Asymmetry_Pilot,2022.1.3,Win32,59.99520038,62bbe60bf3d75ef465d3e404,,,,,,,,,,,,,,,,,,,,,,,,,,,,,,,,,,,,,,,,,,,,,,,,,,,,,,,,,,,,,,,,,,,,,,,,,,,,,,,,,,,,,,,,,,,,,,,,,,,,,,,,,,,,,,,,,,,,,,,,,,,,,,,,,,,,,,,,,,,,,,,,,,,,,,,,,,,,,,
0,69,69,53,1,,5c4214996ca3080001d3b4c1,62bbfaa823a8d8d9be746806,2022-06-29_09h10.10.672,Colour_Asymmetry_Pilot,2022.1.3,Win32,59.99520038,62bbe60bf3d75ef465d3e404,,,,,,,,,,,,,,,,,,,,,,,,,,,,,,,,,,,,,,,,,,,,,,,,,,,,,,,,,,,,,,,,,,,,,,,,,,,,,,,,,,,,,,,,,,,,,,,,,,,,,,,,,,,,,,,,,,,,,,,,,,,,,,,,,,,,,,,,,,,,,,,,,,,,,,,,,,,,,,
0,70,70,68,1,,5c4214996ca3080001d3b4c1,62bbfaa823a8d8d9be746806,2022-06-29_09h10.10.672,Colour_Asymmetry_Pilot,2022.1.3,Win32,59.99520038,62bbe60bf3d75ef465d3e404,,,,,,,,,,,,,,,,,,,,,,,,,,,,,,,,,,,,,,,,,,,,,,,,,,,,,,,,,,,,,,,,,,,,,,,,,,,,,,,,,,,,,,,,,,,,,,,,,,,,,,,,,,,,,,,,,,,,,,,,,,,,,,,,,,,,,,,,,,,,,,,,,,,,,,,,,,,,,,
0,71,71,79,1,,5c4214996ca3080001d3b4c1,62bbfaa823a8d8d9be746806,2022-06-29_09h10.10.672,Colour_Asymmetry_Pilot,2022.1.3,Win32,59.99520038,62bbe60bf3d75ef465d3e404,,,,,,,,,,,,,,,,,,,,,,,,,,,,,,,,,,,,,,,,,,,,,,,,,,,,,,,,,,,,,,,,,,,,,,,,,,,,,,,,,,,,,,,,,,,,,,,,,,,,,,,,,,,,,,,,,,,,,,,,,,,,,,,,,,,,,,,,,,,,,,,,,,,,,,,,,,,,,,
0,72,72,50,1,,5c4214996ca3080001d3b4c1,62bbfaa823a8d8d9be746806,2022-06-29_09h10.10.672,Colour_Asymmetry_Pilot,2022.1.3,Win32,59.99520038,62bbe60bf3d75ef465d3e404,,,,,,,,,,,,,,,,,,,,,,,,,,,,,,,,,,,,,,,,,,,,,,,,,,,,,,,,,,,,,,,,,,,,,,,,,,,,,,,,,,,,,,,,,,,,,,,,,,,,,,,,,,,,,,,,,,,,,,,,,,,,,,,,,,,,,,,,,,,,,,,,,,,,,,,,,,,,,,
0,73,73,25,1,,5c4214996ca3080001d3b4c1,62bbfaa823a8d8d9be746806,2022-06-29_09h10.10.672,Colour_Asymmetry_Pilot,2022.1.3,Win32,59.99520038,62bbe60bf3d75ef465d3e404,,,,,,,,,,,,,,,,,,,,,,,,,,,,,,,,,,,,,,,,,,,,,,,,,,,,,,,,,,,,,,,,,,,,,,,,,,,,,,,,,,,,,,,,,,,,,,,,,,,,,,,,,,,,,,,,,,,,,,,,,,,,,,,,,,,,,,,,,,,,,,,,,,,,,,,,,,,,,,
0,74,74,81,1,,5c4214996ca3080001d3b4c1,62bbfaa823a8d8d9be746806,2022-06-29_09h10.10.672,Colour_Asymmetry_Pilot,2022.1.3,Win32,59.99520038,62bbe60bf3d75ef465d3e404,,,,,,,,,,,,,,,,,,,,,,,,,,,,,,,,,,,,,,,,,,,,,,,,,,,,,,,,,,,,,,,,,,,,,,,,,,,,,,,,,,,,,,,,,,,,,,,,,,,,,,,,,,,,,,,,,,,,,,,,,,,,,,,,,,,,,,,,,,,,,,,,,,,,,,,,,,,,,,
0,75,75,9,1,,5c4214996ca3080001d3b4c1,62bbfaa823a8d8d9be746806,2022-06-29_09h10.10.672,Colour_Asymmetry_Pilot,2022.1.3,Win32,59.99520038,62bbe60bf3d75ef465d3e404,,,,,,,,,,,,,,,,,,,,,,,,,,,,,,,,,,,,,,,,,,,,,,,,,,,,,,,,,,,,,,,,,,,,,,,,,,,,,,,,,,,,,,,,,,,,,,,,,,,,,,,,,,,,,,,,,,,,,,,,,,,,,,,,,,,,,,,,,,,,,,,,,,,,,,,,,,,,,,
0,76,76,35,1,,5c4214996ca3080001d3b4c1,62bbfaa823a8d8d9be746806,2022-06-29_09h10.10.672,Colour_Asymmetry_Pilot,2022.1.3,Win32,59.99520038,62bbe60bf3d75ef465d3e404,,,,,,,,,,,,,,,,,,,,,,,,,,,,,,,,,,,,,,,,,,,,,,,,,,,,,,,,,,,,,,,,,,,,,,,,,,,,,,,,,,,,,,,,,,,,,,,,,,,,,,,,,,,,,,,,,,,,,,,,,,,,,,,,,,,,,,,,,,,,,,,,,,,,,,,,,,,,,,
0,77,77,52,1,,5c4214996ca3080001d3b4c1,62bbfaa823a8d8d9be746806,2022-06-29_09h10.10.672,Colour_Asymmetry_Pilot,2022.1.3,Win32,59.99520038,62bbe60bf3d75ef465d3e404,,,,,,,,,,,,,,,,,,,,,,,,,,,,,,,,,,,,,,,,,,,,,,,,,,,,,,,,,,,,,,,,,,,,,,,,,,,,,,,,,,,,,,,,,,,,,,,,,,,,,,,,,,,,,,,,,,,,,,,,,,,,,,,,,,,,,,,,,,,,,,,,,,,,,,,,,,,,,,
0,78,78,32,1,,5c4214996ca3080001d3b4c1,62bbfaa823a8d8d9be746806,2022-06-29_09h10.10.672,Colour_Asymmetry_Pilot,2022.1.3,Win32,59.99520038,62bbe60bf3d75ef465d3e404,,,,,,,,,,,,,,,,,,,,,,,,,,,,,,,,,,,,,,,,,,,,,,,,,,,,,,,,,,,,,,,,,,,,,,,,,,,,,,,,,,,,,,,,,,,,,,,,,,,,,,,,,,,,,,,,,,,,,,,,,,,,,,,,,,,,,,,,,,,,,,,,,,,,,,,,,,,,,,
0,79,79,83,1,,5c4214996ca3080001d3b4c1,62bbfaa823a8d8d9be746806,2022-06-29_09h10.10.672,Colour_Asymmetry_Pilot,2022.1.3,Win32,59.99520038,62bbe60bf3d75ef465d3e404,,,,,,,,,,,,,,,,,,,,,,,,,,,,,,,,,,,,,,,,,,,,,,,,,,,,,,,,,,,,,,,,,,,,,,,,,,,,,,,,,,,,,,,,,,,,,,,,,,,,,,,,,,,,,,,,,,,,,,,,,,,,,,,,,,,,,,,,,,,,,,,,,,,,,,,,,,,,,,
0,80,80,4,1,,5c4214996ca3080001d3b4c1,62bbfaa823a8d8d9be746806,2022-06-29_09h10.10.672,Colour_Asymmetry_Pilot,2022.1.3,Win32,59.99520038,62bbe60bf3d75ef465d3e404,,,,,,,,,,,,,,,,,,,,,,,,,,,,,,,,,,,,,,,,,,,,,,,,,,,,,,,,,,,,,,,,,,,,,,,,,,,,,,,,,,,,,,,,,,,,,,,,,,,,,,,,,,,,,,,,,,,,,,,,,,,,,,,,,,,,,,,,,,,,,,,,,,,,,,,,,,,,,,
0,81,81,70,1,,5c4214996ca3080001d3b4c1,62bbfaa823a8d8d9be746806,2022-06-29_09h10.10.672,Colour_Asymmetry_Pilot,2022.1.3,Win32,59.99520038,62bbe60bf3d75ef465d3e404,,,,,,,,,,,,,,,,,,,,,,,,,,,,,,,,,,,,,,,,,,,,,,,,,,,,,,,,,,,,,,,,,,,,,,,,,,,,,,,,,,,,,,,,,,,,,,,,,,,,,,,,,,,,,,,,,,,,,,,,,,,,,,,,,,,,,,,,,,,,,,,,,,,,,,,,,,,,,,
0,82,82,42,1,,5c4214996ca3080001d3b4c1,62bbfaa823a8d8d9be746806,2022-06-29_09h10.10.672,Colour_Asymmetry_Pilot,2022.1.3,Win32,59.99520038,62bbe60bf3d75ef465d3e404,,,,,,,,,,,,,,,,,,,,,,,,,,,,,,,,,,,,,,,,,,,,,,,,,,,,,,,,,,,,,,,,,,,,,,,,,,,,,,,,,,,,,,,,,,,,,,,,,,,,,,,,,,,,,,,,,,,,,,,,,,,,,,,,,,,,,,,,,,,,,,,,,,,,,,,,,,,,,,
0,83,83,61,1,,5c4214996ca3080001d3b4c1,62bbfaa823a8d8d9be746806,2022-06-29_09h10.10.672,Colour_Asymmetry_Pilot,2022.1.3,Win32,59.99520038,62bbe60bf3d75ef465d3e404,,,,,,,,,,,,,,,,,,,,,,,,,,,,,,,,,,,,,,,,,,,,,,,,,,,,,,,,,,,,,,,,,,,,,,,,,,,,,,,,,,,,,,,,,,,,,,,,,,,,,,,,,,,,,,,,,,,,,,,,,,,,,,,,,,,,,,,,,,,,,,,,,,,,,,,,,,,,,,
0,84,84,27,1,,5c4214996ca3080001d3b4c1,62bbfaa823a8d8d9be746806,2022-06-29_09h10.10.672,Colour_Asymmetry_Pilot,2022.1.3,Win32,59.99520038,62bbe60bf3d75ef465d3e404,,,,,,,,,,,,,,,,,,,,,,,,,,,,,,,,,,,,,,,,,,,,,,,,,,,,,,,,,,,,,,,,,,,,,,,,,,,,,,,,,,,,,,,,,,,,,,,,,,,,,,,,,,,,,,,,,,,,,,,,,,,,,,,,,,,,,,,,,,,,,,,,,,,,,,,,,,,,,,
0,85,85,19,1,,5c4214996ca3080001d3b4c1,62bbfaa823a8d8d9be746806,2022-06-29_09h10.10.672,Colour_Asymmetry_Pilot,2022.1.3,Win32,59.99520038,62bbe60bf3d75ef465d3e404,,,,,,,,,,,,,,,,,,,,,,,,,,,,,,,,,,,,,,,,,,,,,,,,,,,,,,,,,,,,,,,,,,,,,,,,,,,,,,,,,,,,,,,,,,,,,,,,,,,,,,,,,,,,,,,,,,,,,,,,,,,,,,,,,,,,,,,,,,,,,,,,,,,,,,,,,,,,,,
0,86,86,17,1,,5c4214996ca3080001d3b4c1,62bbfaa823a8d8d9be746806,2022-06-29_09h10.10.672,Colour_Asymmetry_Pilot,2022.1.3,Win32,59.99520038,62bbe60bf3d75ef465d3e404,,,,,,,,,,,,,,,,,,,,,,,,,,,,,,,,,,,,,,,,,,,,,,,,,,,,,,,,,,,,,,,,,,,,,,,,,,,,,,,,,,,,,,,,,,,,,,,,,,,,,,,,,,,,,,,,,,,,,,,,,,,,,,,,,,,,,,,,,,,,,,,,,,,,,,,,,,,,,,
0,87,87,77,1,,5c4214996ca3080001d3b4c1,62bbfaa823a8d8d9be746806,2022-06-29_09h10.10.672,Colour_Asymmetry_Pilot,2022.1.3,Win32,59.99520038,62bbe60bf3d75ef465d3e404,,,,,,,,,,,,,,,,,,,,,,,,,,,,,,,,,,,,,,,,,,,,,,,,,,,,,,,,,,,,,,,,,,,,,,,,,,,,,,,,,,,,,,,,,,,,,,,,,,,,,,,,,,,,,,,,,,,,,,,,,,,,,,,,,,,,,,,,,,,,,,,,,,,,,,,,,,,,,,
0,88,88,7,1,,5c4214996ca3080001d3b4c1,62bbfaa823a8d8d9be746806,2022-06-29_09h10.10.672,Colour_Asymmetry_Pilot,2022.1.3,Win32,59.99520038,62bbe60bf3d75ef465d3e404,,,,,,,,,,,,,,,,,,,,,,,,,,,,,,,,,,,,,,,,,,,,,,,,,,,,,,,,,,,,,,,,,,,,,,,,,,,,,,,,,,,,,,,,,,,,,,,,,,,,,,,,,,,,,,,,,,,,,,,,,,,,,,,,,,,,,,,,,,,,,,,,,,,,,,,,,,,,,,
0,89,89,54,1,,5c4214996ca3080001d3b4c1,62bbfaa823a8d8d9be746806,2022-06-29_09h10.10.672,Colour_Asymmetry_Pilot,2022.1.3,Win32,59.99520038,62bbe60bf3d75ef465d3e404,,,,,,,,,,,,,,,,,,,,,,,,,,,,,,,,,,,,,,,,,,,,,,,,,,,,,,,,,,,,,,,,,,,,,,,,,,,,,,,,,,,,,,,,,,,,,,,,,,,,,,,,,,,,,,,,,,,,,,,,,,,,,,,,,,,,,,,,,,,,,,,,,,,,,,,,,,,,,,
0,90,90,73,1,,5c4214996ca3080001d3b4c1,62bbfaa823a8d8d9be746806,2022-06-29_09h10.10.672,Colour_Asymmetry_Pilot,2022.1.3,Win32,59.99520038,62bbe60bf3d75ef465d3e404,,,,,,,,,,,,,,,,,,,,,,,,,,,,,,,,,,,,,,,,,,,,,,,,,,,,,,,,,,,,,,,,,,,,,,,,,,,,,,,,,,,,,,,,,,,,,,,,,,,,,,,,,,,,,,,,,,,,,,,,,,,,,,,,,,,,,,,,,,,,,,,,,,,,,,,,,,,,,,
0,91,91,88,1,,5c4214996ca3080001d3b4c1,62bbfaa823a8d8d9be746806,2022-06-29_09h10.10.672,Colour_Asymmetry_Pilot,2022.1.3,Win32,59.99520038,62bbe60bf3d75ef465d3e404,,,,,,,,,,,,,,,,,,,,,,,,,,,,,,,,,,,,,,,,,,,,,,,,,,,,,,,,,,,,,,,,,,,,,,,,,,,,,,,,,,,,,,,,,,,,,,,,,,,,,,,,,,,,,,,,,,,,,,,,,,,,,,,,,,,,,,,,,,,,,,,,,,,,,,,,,,,,,,
0,92,92,80,1,,5c4214996ca3080001d3b4c1,62bbfaa823a8d8d9be746806,2022-06-29_09h10.10.672,Colour_Asymmetry_Pilot,2022.1.3,Win32,59.99520038,62bbe60bf3d75ef465d3e404,,,,,,,,,,,,,,,,,,,,,,,,,,,,,,,,,,,,,,,,,,,,,,,,,,,,,,,,,,,,,,,,,,,,,,,,,,,,,,,,,,,,,,,,,,,,,,,,,,,,,,,,,,,,,,,,,,,,,,,,,,,,,,,,,,,,,,,,,,,,,,,,,,,,,,,,,,,,,,
,,,,,,5c4214996ca3080001d3b4c1,62bbfaa823a8d8d9be746806,2022-06-29_09h10.10.672,Colour_Asymmetry_Pilot,2022.1.3,Win32,59.99520038,62bbe60bf3d75ef465d3e404,0,0,0,27,1,twofour,,,,,,,,,,,,,,,,,,,,,,,,,,,,,,,,,,,,,,,,,,,,,,,,,,,,,,,,,,,,,,,,,,,,,,,,,,,,,,,,,,,,,,,,,,,,,,,,,,,,,,,,,,,,,,,,,,,,,,,,,,,,,,,,,,,,,,,,,,,,,,,,,,,,,,,,
,,,,,,5c4214996ca3080001d3b4c1,62bbfaa823a8d8d9be746806,2022-06-29_09h10.10.672,Colour_Asymmetry_Pilot,2022.1.3,Win32,59.99520038,62bbe60bf3d75ef465d3e404,0,1,1,72,1,onetwo,,,,,,,,,,,,,,,,,,,,,,,,,,,,,,,,,,,,,,,,,,,,,,,,,,,,,,,,,,,,,,,,,,,,,,,,,,,,,,,,,,,,,,,,,,,,,,,,,,,,,,,,,,,,,,,,,,,,,,,,,,,,,,,,,,,,,,,,,,,,,,,,,,,,,,,,
,,,,,,5c4214996ca3080001d3b4c1,62bbfaa823a8d8d9be746806,2022-06-29_09h10.10.672,Colour_Asymmetry_Pilot,2022.1.3,Win32,59.99520038,62bbe60bf3d75ef465d3e404,0,2,2,69,1,threefour,,,,,,,,,,,,,,,,,,,,,,,,,,,,,,,,,,,,,,,,,,,,,,,,,,,,,,,,,,,,,,,,,,,,,,,,,,,,,,,,,,,,,,,,,,,,,,,,,,,,,,,,,,,,,,,,,,,,,,,,,,,,,,,,,,,,,,,,,,,,,,,,,,,,,,,,
,,,,,,5c4214996ca3080001d3b4c1,62bbfaa823a8d8d9be746806,2022-06-29_09h10.10.672,Colour_Asymmetry_Pilot,2022.1.3,Win32,59.99520038,62bbe60bf3d75ef465d3e404,0,3,3,75,1,twofour,,,,,,,,,,,,,,,,,,,,,,,,,,,,,,,,,,,,,,,,,,,,,,,,,,,,,,,,,,,,,,,,,,,,,,,,,,,,,,,,,,,,,,,,,,,,,,,,,,,,,,,,,,,,,,,,,,,,,,,,,,,,,,,,,,,,,,,,,,,,,,,,,,,,,,,,
,,,,,,5c4214996ca3080001d3b4c1,62bbfaa823a8d8d9be746806,2022-06-29_09h10.10.672,Colour_Asymmetry_Pilot,2022.1.3,Win32,59.99520038,62bbe60bf3d75ef465d3e404,0,4,4,24,1,onetwo,,,,,,,,,,,,,,,,,,,,,,,,,,,,,,,,,,,,,,,,,,,,,,,,,,,,,,,,,,,,,,,,,,,,,,,,,,,,,,,,,,,,,,,,,,,,,,,,,,,,,,,,,,,,,,,,,,,,,,,,,,,,,,,,,,,,,,,,,,,,,,,,,,,,,,,,
,,,,,,5c4214996ca3080001d3b4c1,62bbfaa823a8d8d9be746806,2022-06-29_09h10.10.672,Colour_Asymmetry_Pilot,2022.1.3,Win32,59.99520038,62bbe60bf3d75ef465d3e404,0,5,5,25,1,onethree,,,,,,,,,,,,,,,,,,,,,,,,,,,,,,,,,,,,,,,,,,,,,,,,,,,,,,,,,,,,,,,,,,,,,,,,,,,,,,,,,,,,,,,,,,,,,,,,,,,,,,,,,,,,,,,,,,,,,,,,,,,,,,,,,,,,,,,,,,,,,,,,,,,,,,,,
,,,,,,5c4214996ca3080001d3b4c1,62bbfaa823a8d8d9be746806,2022-06-29_09h10.10.672,Colour_Asymmetry_Pilot,2022.1.3,Win32,59.99520038,62bbe60bf3d75ef465d3e404,0,6,6,17,1,onethree,,,,,,,,,,,,,,,,,,,,,,,,,,,,,,,,,,,,,,,,,,,,,,,,,,,,,,,,,,,,,,,,,,,,,,,,,,,,,,,,,,,,,,,,,,,,,,,,,,,,,,,,,,,,,,,,,,,,,,,,,,,,,,,,,,,,,,,,,,,,,,,,,,,,,,,,
,,,,,,5c4214996ca3080001d3b4c1,62bbfaa823a8d8d9be746806,2022-06-29_09h10.10.672,Colour_Asymmetry_Pilot,2022.1.3,Win32,59.99520038,62bbe60bf3d75ef465d3e404,0,7,7,118,1,fourtwo,,,,,,,,,,,,,,,,,,,,,,,,,,,,,,,,,,,,,,,,,,,,,,,,,,,,,,,,,,,,,,,,,,,,,,,,,,,,,,,,,,,,,,,,,,,,,,,,,,,,,,,,,,,,,,,,,,,,,,,,,,,,,,,,,,,,,,,,,,,,,,,,,,,,,,,,
,,,,,,5c4214996ca3080001d3b4c1,62bbfaa823a8d8d9be746806,2022-06-29_09h10.10.672,Colour_Asymmetry_Pilot,2022.1.3,Win32,59.99520038,62bbe60bf3d75ef465d3e404,0,8,8,92,1,threeone,,,,,,,,,,,,,,,,,,,,,,,,,,,,,,,,,,,,,,,,,,,,,,,,,,,,,,,,,,,,,,,,,,,,,,,,,,,,,,,,,,,,,,,,,,,,,,,,,,,,,,,,,,,,,,,,,,,,,,,,,,,,,,,,,,,,,,,,,,,,,,,,,,,,,,,,
,,,,,,5c4214996ca3080001d3b4c1,62bbfaa823a8d8d9be746806,2022-06-29_09h10.10.672,Colour_Asymmetry_Pilot,2022.1.3,Win32,59.99520038,62bbe60bf3d75ef465d3e404,0,9,9,84,1,threeone,,,,,,,,,,,,,,,,,,,,,,,,,,,,,,,,,,,,,,,,,,,,,,,,,,,,,,,,,,,,,,,,,,,,,,,,,,,,,,,,,,,,,,,,,,,,,,,,,,,,,,,,,,,,,,,,,,,,,,,,,,,,,,,,,,,,,,,,,,,,,,,,,,,,,,,,
,,,,,,5c4214996ca3080001d3b4c1,62bbfaa823a8d8d9be746806,2022-06-29_09h10.10.672,Colour_Asymmetry_Pilot,2022.1.3,Win32,59.99520038,62bbe60bf3d75ef465d3e404,0,10,10,146,1,twoone,,,,,,,,,,,,,,,,,,,,,,,,,,,,,,,,,,,,,,,,,,,,,,,,,,,,,,,,,,,,,,,,,,,,,,,,,,,,,,,,,,,,,,,,,,,,,,,,,,,,,,,,,,,,,,,,,,,,,,,,,,,,,,,,,,,,,,,,,,,,,,,,,,,,,,,,
,,,,,,5c4214996ca3080001d3b4c1,62bbfaa823a8d8d9be746806,2022-06-29_09h10.10.672,Colour_Asymmetry_Pilot,2022.1.3,Win32,59.99520038,62bbe60bf3d75ef465d3e404,0,11,11,21,1,threefour,,,,,,,,,,,,,,,,,,,,,,,,,,,,,,,,,,,,,,,,,,,,,,,,,,,,,,,,,,,,,,,,,,,,,,,,,,,,,,,,,,,,,,,,,,,,,,,,,,,,,,,,,,,,,,,,,,,,,,,,,,,,,,,,,,,,,,,,,,,,,,,,,,,,,,,,
,,,,,,5c4214996ca3080001d3b4c1,62bbfaa823a8d8d9be746806,2022-06-29_09h10.10.672,Colour_Asymmetry_Pilot,2022.1.3,Win32,59.99520038,62bbe60bf3d75ef465d3e404,0,12,12,114,1,twoone,,,,,,,,,,,,,,,,,,,,,,,,,,,,,,,,,,,,,,,,,,,,,,,,,,,,,,,,,,,,,,,,,,,,,,,,,,,,,,,,,,,,,,,,,,,,,,,,,,,,,,,,,,,,,,,,,,,,,,,,,,,,,,,,,,,,,,,,,,,,,,,,,,,,,,,,
,,,,,,5c4214996ca3080001d3b4c1,62bbfaa823a8d8d9be746806,2022-06-29_09h10.10.672,Colour_Asymmetry_Pilot,2022.1.3,Win32,59.99520038,62bbe60bf3d75ef465d3e404,0,13,13,70,1,fourtwo,,,,,,,,,,,,,,,,,,,,,,,,,,,,,,,,,,,,,,,,,,,,,,,,,,,,,,,,,,,,,,,,,,,,,,,,,,,,,,,,,,,,,,,,,,,,,,,,,,,,,,,,,,,,,,,,,,,,,,,,,,,,,,,,,,,,,,,,,,,,,,,,,,,,,,,,
,,,,,,5c4214996ca3080001d3b4c1,62bbfaa823a8d8d9be746806,2022-06-29_09h10.10.672,Colour_Asymmetry_Pilot,2022.1.3,Win32,59.99520038,62bbe60bf3d75ef465d3e404,0,14,14,124,1,threeone,,,,,,,,,,,,,,,,,,,,,,,,,,,,,,,,,,,,,,,,,,,,,,,,,,,,,,,,,,,,,,,,,,,,,,,,,,,,,,,,,,,,,,,,,,,,,,,,,,,,,,,,,,,,,,,,,,,,,,,,,,,,,,,,,,,,,,,,,,,,,,,,,,,,,,,,
,,,,,,5c4214996ca3080001d3b4c1,62bbfaa823a8d8d9be746806,2022-06-29_09h10.10.672,Colour_Asymmetry_Pilot,2022.1.3,Win32,59.99520038,62bbe60bf3d75ef465d3e404,0,15,15,43,1,twofour,,,,,,,,,,,,,,,,,,,,,,,,,,,,,,,,,,,,,,,,,,,,,,,,,,,,,,,,,,,,,,,,,,,,,,,,,,,,,,,,,,,,,,,,,,,,,,,,,,,,,,,,,,,,,,,,,,,,,,,,,,,,,,,,,,,,,,,,,,,,,,,,,,,,,,,,
,,,,,,5c4214996ca3080001d3b4c1,62bbfaa823a8d8d9be746806,2022-06-29_09h10.10.672,Colour_Asymmetry_Pilot,2022.1.3,Win32,59.99520038,62bbe60bf3d75ef465d3e404,0,16,16,52,1,threeone,,,,,,,,,,,,,,,,,,,,,,,,,,,,,,,,,,,,,,,,,,,,,,,,,,,,,,,,,,,,,,,,,,,,,,,,,,,,,,,,,,,,,,,,,,,,,,,,,,,,,,,,,,,,,,,,,,,,,,,,,,,,,,,,,,,,,,,,,,,,,,,,,,,,,,,,
,,,,,,5c4214996ca3080001d3b4c1,62bbfaa823a8d8d9be746806,2022-06-29_09h10.10.672,Colour_Asymmetry_Pilot,2022.1.3,Win32,59.99520038,62bbe60bf3d75ef465d3e404,0,17,17,81,1,onethree,,,,,,,,,,,,,,,,,,,,,,,,,,,,,,,,,,,,,,,,,,,,,,,,,,,,,,,,,,,,,,,,,,,,,,,,,,,,,,,,,,,,,,,,,,,,,,,,,,,,,,,,,,,,,,,,,,,,,,,,,,,,,,,,,,,,,,,,,,,,,,,,,,,,,,,,
,,,,,,5c4214996ca3080001d3b4c1,62bbfaa823a8d8d9be746806,2022-06-29_09h10.10.672,Colour_Asymmetry_Pilot,2022.1.3,Win32,59.99520038,62bbe60bf3d75ef465d3e404,0,18,18,102,1,fourtwo,,,,,,,,,,,,,,,,,,,,,,,,,,,,,,,,,,,,,,,,,,,,,,,,,,,,,,,,,,,,,,,,,,,,,,,,,,,,,,,,,,,,,,,,,,,,,,,,,,,,,,,,,,,,,,,,,,,,,,,,,,,,,,,,,,,,,,,,,,,,,,,,,,,,,,,,
,,,,,,5c4214996ca3080001d3b4c1,62bbfaa823a8d8d9be746806,2022-06-29_09h10.10.672,Colour_Asymmetry_Pilot,2022.1.3,Win32,59.99520038,62bbe60bf3d75ef465d3e404,0,19,19,13,1,threefour,,,,,,,,,,,,,,,,,,,,,,,,,,,,,,,,,,,,,,,,,,,,,,,,,,,,,,,,,,,,,,,,,,,,,,,,,,,,,,,,,,,,,,,,,,,,,,,,,,,,,,,,,,,,,,,,,,,,,,,,,,,,,,,,,,,,,,,,,,,,,,,,,,,,,,,,
,,,,,,5c4214996ca3080001d3b4c1,62bbfaa823a8d8d9be746806,2022-06-29_09h10.10.672,Colour_Asymmetry_Pilot,2022.1.3,Win32,59.99520038,62bbe60bf3d75ef465d3e404,0,20,20,1,1,onethree,,,,,,,,,,,,,,,,,,,,,,,,,,,,,,,,,,,,,,,,,,,,,,,,,,,,,,,,,,,,,,,,,,,,,,,,,,,,,,,,,,,,,,,,,,,,,,,,,,,,,,,,,,,,,,,,,,,,,,,,,,,,,,,,,,,,,,,,,,,,,,,,,,,,,,,,
,,,,,,5c4214996ca3080001d3b4c1,62bbfaa823a8d8d9be746806,2022-06-29_09h10.10.672,Colour_Asymmetry_Pilot,2022.1.3,Win32,59.99520038,62bbe60bf3d75ef465d3e404,0,21,21,18,1,twoone,,,,,,,,,,,,,,,,,,,,,,,,,,,,,,,,,,,,,,,,,,,,,,,,,,,,,,,,,,,,,,,,,,,,,,,,,,,,,,,,,,,,,,,,,,,,,,,,,,,,,,,,,,,,,,,,,,,,,,,,,,,,,,,,,,,,,,,,,,,,,,,,,,,,,,,,
,,,,,,5c4214996ca3080001d3b4c1,62bbfaa823a8d8d9be746806,2022-06-29_09h10.10.672,Colour_Asymmetry_Pilot,2022.1.3,Win32,59.99520038,62bbe60bf3d75ef465d3e404,0,22,22,54,1,fourtwo,,,,,,,,,,,,,,,,,,,,,,,,,,,,,,,,,,,,,,,,,,,,,,,,,,,,,,,,,,,,,,,,,,,,,,,,,,,,,,,,,,,,,,,,,,,,,,,,,,,,,,,,,,,,,,,,,,,,,,,,,,,,,,,,,,,,,,,,,,,,,,,,,,,,,,,,
,,,,,,5c4214996ca3080001d3b4c1,62bbfaa823a8d8d9be746806,2022-06-29_09h10.10.672,Colour_Asymmetry_Pilot,2022.1.3,Win32,59.99520038,62bbe60bf3d75ef465d3e404,0,23,23,110,1,fourtwo,,,,,,,,,,,,,,,,,,,,,,,,,,,,,,,,,,,,,,,,,,,,,,,,,,,,,,,,,,,,,,,,,,,,,,,,,,,,,,,,,,,,,,,,,,,,,,,,,,,,,,,,,,,,,,,,,,,,,,,,,,,,,,,,,,,,,,,,,,,,,,,,,,,,,,,,
,,,,,,5c4214996ca3080001d3b4c1,62bbfaa823a8d8d9be746806,2022-06-29_09h10.10.672,Colour_Asymmetry_Pilot,2022.1.3,Win32,59.99520038,62bbe60bf3d75ef465d3e404,0,24,24,19,1,twofour,,,,,,,,,,,,,,,,,,,,,,,,,,,,,,,,,,,,,,,,,,,,,,,,,,,,,,,,,,,,,,,,,,,,,,,,,,,,,,,,,,,,,,,,,,,,,,,,,,,,,,,,,,,,,,,,,,,,,,,,,,,,,,,,,,,,,,,,,,,,,,,,,,,,,,,,
,,,,,,5c4214996ca3080001d3b4c1,62bbfaa823a8d8d9be746806,2022-06-29_09h10.10.672,Colour_Asymmetry_Pilot,2022.1.3,Win32,59.99520038,62bbe60bf3d75ef465d3e404,0,25,25,129,1,onethree,,,,,,,,,,,,,,,,,,,,,,,,,,,,,,,,,,,,,,,,,,,,,,,,,,,,,,,,,,,,,,,,,,,,,,,,,,,,,,,,,,,,,,,,,,,,,,,,,,,,,,,,,,,,,,,,,,,,,,,,,,,,,,,,,,,,,,,,,,,,,,,,,,,,,,,,
,,,,,,5c4214996ca3080001d3b4c1,62bbfaa823a8d8d9be746806,2022-06-29_09h10.10.672,Colour_Asymmetry_Pilot,2022.1.3,Win32,59.99520038,62bbe60bf3d75ef465d3e404,0,26,26,77,1,threefour,,,,,,,,,,,,,,,,,,,,,,,,,,,,,,,,,,,,,,,,,,,,,,,,,,,,,,,,,,,,,,,,,,,,,,,,,,,,,,,,,,,,,,,,,,,,,,,,,,,,,,,,,,,,,,,,,,,,,,,,,,,,,,,,,,,,,,,,,,,,,,,,,,,,,,,,
,,,,,,5c4214996ca3080001d3b4c1,62bbfaa823a8d8d9be746806,2022-06-29_09h10.10.672,Colour_Asymmetry_Pilot,2022.1.3,Win32,59.99520038,62bbe60bf3d75ef465d3e404,0,27,27,139,1,twofour,,,,,,,,,,,,,,,,,,,,,,,,,,,,,,,,,,,,,,,,,,,,,,,,,,,,,,,,,,,,,,,,,,,,,,,,,,,,,,,,,,,,,,,,,,,,,,,,,,,,,,,,,,,,,,,,,,,,,,,,,,,,,,,,,,,,,,,,,,,,,,,,,,,,,,,,
,,,,,,5c4214996ca3080001d3b4c1,62bbfaa823a8d8d9be746806,2022-06-29_09h10.10.672,Colour_Asymmetry_Pilot,2022.1.3,Win32,59.99520038,62bbe60bf3d75ef465d3e404,0,28,28,101,1,threefour,,,,,,,,,,,,,,,,,,,,,,,,,,,,,,,,,,,,,,,,,,,,,,,,,,,,,,,,,,,,,,,,,,,,,,,,,,,,,,,,,,,,,,,,,,,,,,,,,,,,,,,,,,,,,,,,,,,,,,,,,,,,,,,,,,,,,,,,,,,,,,,,,,,,,,,,
,,,,,,5c4214996ca3080001d3b4c1,62bbfaa823a8d8d9be746806,2022-06-29_09h10.10.672,Colour_Asymmetry_Pilot,2022.1.3,Win32,59.99520038,62bbe60bf3d75ef465d3e404,0,29,29,150,1,fourtwo,,,,,,,,,,,,,,,,,,,,,,,,,,,,,,,,,,,,,,,,,,,,,,,,,,,,,,,,,,,,,,,,,,,,,,,,,,,,,,,,,,,,,,,,,,,,,,,,,,,,,,,,,,,,,,,,,,,,,,,,,,,,,,,,,,,,,,,,,,,,,,,,,,,,,,,,
,,,,,,5c4214996ca3080001d3b4c1,62bbfaa823a8d8d9be746806,2022-06-29_09h10.10.672,Colour_Asymmetry_Pilot,2022.1.3,Win32,59.99520038,62bbe60bf3d75ef465d3e404,0,30,30,152,1,onetwo,,,,,,,,,,,,,,,,,,,,,,,,,,,,,,,,,,,,,,,,,,,,,,,,,,,,,,,,,,,,,,,,,,,,,,,,,,,,,,,,,,,,,,,,,,,,,,,,,,,,,,,,,,,,,,,,,,,,,,,,,,,,,,,,,,,,,,,,,,,,,,,,,,,,,,,,
,,,,,,5c4214996ca3080001d3b4c1,62bbfaa823a8d8d9be746806,2022-06-29_09h10.10.672,Colour_Asymmetry_Pilot,2022.1.3,Win32,59.99520038,62bbe60bf3d75ef465d3e404,0,31,31,73,1,onethree,,,,,,,,,,,,,,,,,,,,,,,,,,,,,,,,,,,,,,,,,,,,,,,,,,,,,,,,,,,,,,,,,,,,,,,,,,,,,,,,,,,,,,,,,,,,,,,,,,,,,,,,,,,,,,,,,,,,,,,,,,,,,,,,,,,,,,,,,,,,,,,,,,,,,,,,
,,,,,,5c4214996ca3080001d3b4c1,62bbfaa823a8d8d9be746806,2022-06-29_09h10.10.672,Colour_Asymmetry_Pilot,2022.1.3,Win32,59.99520038,62bbe60bf3d75ef465d3e404,0,32,32,0,1,onetwo,,,,,,,,,,,,,,,,,,,,,,,,,,,,,,,,,,,,,,,,,,,,,,,,,,,,,,,,,,,,,,,,,,,,,,,,,,,,,,,,,,,,,,,,,,,,,,,,,,,,,,,,,,,,,,,,,,,,,,,,,,,,,,,,,,,,,,,,,,,,,,,,,,,,,,,,
,,,,,,5c4214996ca3080001d3b4c1,62bbfaa823a8d8d9be746806,2022-06-29_09h10.10.672,Colour_Asymmetry_Pilot,2022.1.3,Win32,59.99520038,62bbe60bf3d75ef465d3e404,0,33,33,50,1,twoone,,,,,,,,,,,,,,,,,,,,,,,,,,,,,,,,,,,,,,,,,,,,,,,,,,,,,,,,,,,,,,,,,,,,,,,,,,,,,,,,,,,,,,,,,,,,,,,,,,,,,,,,,,,,,,,,,,,,,,,,,,,,,,,,,,,,,,,,,,,,,,,,,,,,,,,,
,,,,,,5c4214996ca3080001d3b4c1,62bbfaa823a8d8d9be746806,2022-06-29_09h10.10.672,Colour_Asymmetry_Pilot,2022.1.3,Win32,59.99520038,62bbe60bf3d75ef465d3e404,0,34,34,149,1,threefour,,,,,,,,,,,,,,,,,,,,,,,,,,,,,,,,,,,,,,,,,,,,,,,,,,,,,,,,,,,,,,,,,,,,,,,,,,,,,,,,,,,,,,,,,,,,,,,,,,,,,,,,,,,,,,,,,,,,,,,,,,,,,,,,,,,,,,,,,,,,,,,,,,,,,,,,
,,,,,,5c4214996ca3080001d3b4c1,62bbfaa823a8d8d9be746806,2022-06-29_09h10.10.672,Colour_Asymmetry_Pilot,2022.1.3,Win32,59.99520038,62bbe60bf3d75ef465d3e404,0,35,35,145,1,onethree,,,,,,,,,,,,,,,,,,,,,,,,,,,,,,,,,,,,,,,,,,,,,,,,,,,,,,,,,,,,,,,,,,,,,,,,,,,,,,,,,,,,,,,,,,,,,,,,,,,,,,,,,,,,,,,,,,,,,,,,,,,,,,,,,,,,,,,,,,,,,,,,,,,,,,,,
,,,,,,5c4214996ca3080001d3b4c1,62bbfaa823a8d8d9be746806,2022-06-29_09h10.10.672,Colour_Asymmetry_Pilot,2022.1.3,Win32,59.99520038,62bbe60bf3d75ef465d3e404,0,36,36,103,1,fourthree,,,,,,,,,,,,,,,,,,,,,,,,,,,,,,,,,,,,,,,,,,,,,,,,,,,,,,,,,,,,,,,,,,,,,,,,,,,,,,,,,,,,,,,,,,,,,,,,,,,,,,,,,,,,,,,,,,,,,,,,,,,,,,,,,,,,,,,,,,,,,,,,,,,,,,,,
,,,,,,5c4214996ca3080001d3b4c1,62bbfaa823a8d8d9be746806,2022-06-29_09h10.10.672,Colour_Asymmetry_Pilot,2022.1.3,Win32,59.99520038,62bbe60bf3d75ef465d3e404,0,37,37,76,1,threeone,,,,,,,,,,,,,,,,,,,,,,,,,,,,,,,,,,,,,,,,,,,,,,,,,,,,,,,,,,,,,,,,,,,,,,,,,,,,,,,,,,,,,,,,,,,,,,,,,,,,,,,,,,,,,,,,,,,,,,,,,,,,,,,,,,,,,,,,,,,,,,,,,,,,,,,,
,,,,,,5c4214996ca3080001d3b4c1,62bbfaa823a8d8d9be746806,2022-06-29_09h10.10.672,Colour_Asymmetry_Pilot,2022.1.3,Win32,59.99520038,62bbe60bf3d75ef465d3e404,0,38,38,132,1,threeone,,,,,,,,,,,,,,,,,,,,,,,,,,,,,,,,,,,,,,,,,,,,,,,,,,,,,,,,,,,,,,,,,,,,,,,,,,,,,,,,,,,,,,,,,,,,,,,,,,,,,,,,,,,,,,,,,,,,,,,,,,,,,,,,,,,,,,,,,,,,,,,,,,,,,,,,
,,,,,,5c4214996ca3080001d3b4c1,62bbfaa823a8d8d9be746806,2022-06-29_09h10.10.672,Colour_Asymmetry_Pilot,2022.1.3,Win32,59.99520038,62bbe60bf3d75ef465d3e404,0,39,39,151,1,fourthree,,,,,,,,,,,,,,,,,,,,,,,,,,,,,,,,,,,,,,,,,,,,,,,,,,,,,,,,,,,,,,,,,,,,,,,,,,,,,,,,,,,,,,,,,,,,,,,,,,,,,,,,,,,,,,,,,,,,,,,,,,,,,,,,,,,,,,,,,,,,,,,,,,,,,,,,
,,,,,,5c4214996ca3080001d3b4c1,62bbfaa823a8d8d9be746806,2022-06-29_09h10.10.672,Colour_Asymmetry_Pilot,2022.1.3,Win32,59.99520038,62bbe60bf3d75ef465d3e404,0,40,40,58,1,twoone,,,,,,,,,,,,,,,,,,,,,,,,,,,,,,,,,,,,,,,,,,,,,,,,,,,,,,,,,,,,,,,,,,,,,,,,,,,,,,,,,,,,,,,,,,,,,,,,,,,,,,,,,,,,,,,,,,,,,,,,,,,,,,,,,,,,,,,,,,,,,,,,,,,,,,,,
,,,,,,5c4214996ca3080001d3b4c1,62bbfaa823a8d8d9be746806,2022-06-29_09h10.10.672,Colour_Asymmetry_Pilot,2022.1.3,Win32,59.99520038,62bbe60bf3d75ef465d3e404,0,41,41,28,1,threeone,,,,,,,,,,,,,,,,,,,,,,,,,,,,,,,,,,,,,,,,,,,,,,,,,,,,,,,,,,,,,,,,,,,,,,,,,,,,,,,,,,,,,,,,,,,,,,,,,,,,,,,,,,,,,,,,,,,,,,,,,,,,,,,,,,,,,,,,,,,,,,,,,,,,,,,,
,,,,,,5c4214996ca3080001d3b4c1,62bbfaa823a8d8d9be746806,2022-06-29_09h10.10.672,Colour_Asymmetry_Pilot,2022.1.3,Win32,59.99520038,62bbe60bf3d75ef465d3e404,0,42,42,141,1,threefour,,,,,,,,,,,,,,,,,,,,,,,,,,,,,,,,,,,,,,,,,,,,,,,,,,,,,,,,,,,,,,,,,,,,,,,,,,,,,,,,,,,,,,,,,,,,,,,,,,,,,,,,,,,,,,,,,,,,,,,,,,,,,,,,,,,,,,,,,,,,,,,,,,,,,,,,
,,,,,,5c4214996ca3080001d3b4c1,62bbfaa823a8d8d9be746806,2022-06-29_09h10.10.672,Colour_Asymmetry_Pilot,2022.1.3,Win32,59.99520038,62bbe60bf3d75ef465d3e404,0,43,43,35,1,twofour,,,,,,,,,,,,,,,,,,,,,,,,,,,,,,,,,,,,,,,,,,,,,,,,,,,,,,,,,,,,,,,,,,,,,,,,,,,,,,,,,,,,,,,,,,,,,,,,,,,,,,,,,,,,,,,,,,,,,,,,,,,,,,,,,,,,,,,,,,,,,,,,,,,,,,,,
,,,,,,5c4214996ca3080001d3b4c1,62bbfaa823a8d8d9be746806,2022-06-29_09h10.10.672,Colour_Asymmetry_Pilot,2022.1.3,Win32,59.99520038,62bbe60bf3d75ef465d3e404,0,44,44,64,1,onetwo,,,,,,,,,,,,,,,,,,,,,,,,,,,,,,,,,,,,,,,,,,,,,,,,,,,,,,,,,,,,,,,,,,,,,,,,,,,,,,,,,,,,,,,,,,,,,,,,,,,,,,,,,,,,,,,,,,,,,,,,,,,,,,,,,,,,,,,,,,,,,,,,,,,,,,,,
,,,,,,5c4214996ca3080001d3b4c1,62bbfaa823a8d8d9be746806,2022-06-29_09h10.10.672,Colour_Asymmetry_Pilot,2022.1.3,Win32,59.99520038,62bbe60bf3d75ef465d3e404,0,45,45,66,1,twoone,,,,,,,,,,,,,,,,,,,,,,,,,,,,,,,,,,,,,,,,,,,,,,,,,,,,,,,,,,,,,,,,,,,,,,,,,,,,,,,,,,,,,,,,,,,,,,,,,,,,,,,,,,,,,,,,,,,,,,,,,,,,,,,,,,,,,,,,,,,,,,,,,,,,,,,,
,,,,,,5c4214996ca3080001d3b4c1,62bbfaa823a8d8d9be746806,2022-06-29_09h10.10.672,Colour_Asymmetry_Pilot,2022.1.3,Win32,59.99520038,62bbe60bf3d75ef465d3e404,0,46,46,123,1,twofour,,,,,,,,,,,,,,,,,,,,,,,,,,,,,,,,,,,,,,,,,,,,,,,,,,,,,,,,,,,,,,,,,,,,,,,,,,,,,,,,,,,,,,,,,,,,,,,,,,,,,,,,,,,,,,,,,,,,,,,,,,,,,,,,,,,,,,,,,,,,,,,,,,,,,,,,
,,,,,,5c4214996ca3080001d3b4c1,62bbfaa823a8d8d9be746806,2022-06-29_09h10.10.672,Colour_Asymmetry_Pilot,2022.1.3,Win32,59.99520038,62bbe60bf3d75ef465d3e404,0,47,47,94,1,fourtwo,,,,,,,,,,,,,,,,,,,,,,,,,,,,,,,,,,,,,,,,,,,,,,,,,,,,,,,,,,,,,,,,,,,,,,,,,,,,,,,,,,,,,,,,,,,,,,,,,,,,,,,,,,,,,,,,,,,,,,,,,,,,,,,,,,,,,,,,,,,,,,,,,,,,,,,,
,,,,,,5c4214996ca3080001d3b4c1,62bbfaa823a8d8d9be746806,2022-06-29_09h10.10.672,Colour_Asymmetry_Pilot,2022.1.3,Win32,59.99520038,62bbe60bf3d75ef465d3e404,0,48,48,31,1,fourthree,,,,,,,,,,,,,,,,,,,,,,,,,,,,,,,,,,,,,,,,,,,,,,,,,,,,,,,,,,,,,,,,,,,,,,,,,,,,,,,,,,,,,,,,,,,,,,,,,,,,,,,,,,,,,,,,,,,,,,,,,,,,,,,,,,,,,,,,,,,,,,,,,,,,,,,,
,,,,,,5c4214996ca3080001d3b4c1,62bbfaa823a8d8d9be746806,2022-06-29_09h10.10.672,Colour_Asymmetry_Pilot,2022.1.3,Win32,59.99520038,62bbe60bf3d75ef465d3e404,0,49,49,15,1,fourthree,,,,,,,,,,,,,,,,,,,,,,,,,,,,,,,,,,,,,,,,,,,,,,,,,,,,,,,,,,,,,,,,,,,,,,,,,,,,,,,,,,,,,,,,,,,,,,,,,,,,,,,,,,,,,,,,,,,,,,,,,,,,,,,,,,,,,,,,,,,,,,,,,,,,,,,,
,,,,,,5c4214996ca3080001d3b4c1,62bbfaa823a8d8d9be746806,2022-06-29_09h10.10.672,Colour_Asymmetry_Pilot,2022.1.3,Win32,59.99520038,62bbe60bf3d75ef465d3e404,0,50,50,144,1,onetwo,,,,,,,,,,,,,,,,,,,,,,,,,,,,,,,,,,,,,,,,,,,,,,,,,,,,,,,,,,,,,,,,,,,,,,,,,,,,,,,,,,,,,,,,,,,,,,,,,,,,,,,,,,,,,,,,,,,,,,,,,,,,,,,,,,,,,,,,,,,,,,,,,,,,,,,,
,,,,,,5c4214996ca3080001d3b4c1,62bbfaa823a8d8d9be746806,2022-06-29_09h10.10.672,Colour_Asymmetry_Pilot,2022.1.3,Win32,59.99520038,62bbe60bf3d75ef465d3e404,0,51,51,108,1,threeone,,,,,,,,,,,,,,,,,,,,,,,,,,,,,,,,,,,,,,,,,,,,,,,,,,,,,,,,,,,,,,,,,,,,,,,,,,,,,,,,,,,,,,,,,,,,,,,,,,,,,,,,,,,,,,,,,,,,,,,,,,,,,,,,,,,,,,,,,,,,,,,,,,,,,,,,
,,,,,,5c4214996ca3080001d3b4c1,62bbfaa823a8d8d9be746806,2022-06-29_09h10.10.672,Colour_Asymmetry_Pilot,2022.1.3,Win32,59.99520038,62bbe60bf3d75ef465d3e404,0,52,52,26,1,twoone,,,,,,,,,,,,,,,,,,,,,,,,,,,,,,,,,,,,,,,,,,,,,,,,,,,,,,,,,,,,,,,,,,,,,,,,,,,,,,,,,,,,,,,,,,,,,,,,,,,,,,,,,,,,,,,,,,,,,,,,,,,,,,,,,,,,,,,,,,,,,,,,,,,,,,,,
,,,,,,5c4214996ca3080001d3b4c1,62bbfaa823a8d8d9be746806,2022-06-29_09h10.10.672,Colour_Asymmetry_Pilot,2022.1.3,Win32,59.99520038,62bbe60bf3d75ef465d3e404,0,53,53,131,1,twofour,,,,,,,,,,,,,,,,,,,,,,,,,,,,,,,,,,,,,,,,,,,,,,,,,,,,,,,,,,,,,,,,,,,,,,,,,,,,,,,,,,,,,,,,,,,,,,,,,,,,,,,,,,,,,,,,,,,,,,,,,,,,,,,,,,,,,,,,,,,,,,,,,,,,,,,,
,,,,,,5c4214996ca3080001d3b4c1,62bbfaa823a8d8d9be746806,2022-06-29_09h10.10.672,Colour_Asymmetry_Pilot,2022.1.3,Win32,59.99520038,62bbe60bf3d75ef465d3e404,0,54,54,130,1,twoone,,,,,,,,,,,,,,,,,,,,,,,,,,,,,,,,,,,,,,,,,,,,,,,,,,,,,,,,,,,,,,,,,,,,,,,,,,,,,,,,,,,,,,,,,,,,,,,,,,,,,,,,,,,,,,,,,,,,,,,,,,,,,,,,,,,,,,,,,,,,,,,,,,,,,,,,
,,,,,,5c4214996ca3080001d3b4c1,62bbfaa823a8d8d9be746806,2022-06-29_09h10.10.672,Colour_Asymmetry_Pilot,2022.1.3,Win32,59.99520038,62bbe60bf3d75ef465d3e404,0,55,55,157,1,threefour,,,,,,,,,,,,,,,,,,,,,,,,,,,,,,,,,,,,,,,,,,,,,,,,,,,,,,,,,,,,,,,,,,,,,,,,,,,,,,,,,,,,,,,,,,,,,,,,,,,,,,,,,,,,,,,,,,,,,,,,,,,,,,,,,,,,,,,,,,,,,,,,,,,,,,,,
,,,,,,5c4214996ca3080001d3b4c1,62bbfaa823a8d8d9be746806,2022-06-29_09h10.10.672,Colour_Asymmetry_Pilot,2022.1.3,Win32,59.99520038,62bbe60bf3d75ef465d3e404,0,56,56,97,1,onethree,,,,,,,,,,,,,,,,,,,,,,,,,,,,,,,,,,,,,,,,,,,,,,,,,,,,,,,,,,,,,,,,,,,,,,,,,,,,,,,,,,,,,,,,,,,,,,,,,,,,,,,,,,,,,,,,,,,,,,,,,,,,,,,,,,,,,,,,,,,,,,,,,,,,,,,,
,,,,,,5c4214996ca3080001d3b4c1,62bbfaa823a8d8d9be746806,2022-06-29_09h10.10.672,Colour_Asymmetry_Pilot,2022.1.3,Win32,59.99520038,62bbe60bf3d75ef465d3e404,0,57,57,161,1,onethree,,,,,,,,,,,,,,,,,,,,,,,,,,,,,,,,,,,,,,,,,,,,,,,,,,,,,,,,,,,,,,,,,,,,,,,,,,,,,,,,,,,,,,,,,,,,,,,,,,,,,,,,,,,,,,,,,,,,,,,,,,,,,,,,,,,,,,,,,,,,,,,,,,,,,,,,
,,,,,,5c4214996ca3080001d3b4c1,62bbfaa823a8d8d9be746806,2022-06-29_09h10.10.672,Colour_Asymmetry_Pilot,2022.1.3,Win32,59.99520038,62bbe60bf3d75ef465d3e404,0,58,58,93,1,threefour,,,,,,,,,,,,,,,,,,,,,,,,,,,,,,,,,,,,,,,,,,,,,,,,,,,,,,,,,,,,,,,,,,,,,,,,,,,,,,,,,,,,,,,,,,,,,,,,,,,,,,,,,,,,,,,,,,,,,,,,,,,,,,,,,,,,,,,,,,,,,,,,,,,,,,,,
,,,,,,5c4214996ca3080001d3b4c1,62bbfaa823a8d8d9be746806,2022-06-29_09h10.10.672,Colour_Asymmetry_Pilot,2022.1.3,Win32,59.99520038,62bbe60bf3d75ef465d3e404,0,59,59,47,1,fourthree,,,,,,,,,,,,,,,,,,,,,,,,,,,,,,,,,,,,,,,,,,,,,,,,,,,,,,,,,,,,,,,,,,,,,,,,,,,,,,,,,,,,,,,,,,,,,,,,,,,,,,,,,,,,,,,,,,,,,,,,,,,,,,,,,,,,,,,,,,,,,,,,,,,,,,,,
,,,,,,5c4214996ca3080001d3b4c1,62bbfaa823a8d8d9be746806,2022-06-29_09h10.10.672,Colour_Asymmetry_Pilot,2022.1.3,Win32,59.99520038,62bbe60bf3d75ef465d3e404,0,60,60,128,1,onetwo,,,,,,,,,,,,,,,,,,,,,,,,,,,,,,,,,,,,,,,,,,,,,,,,,,,,,,,,,,,,,,,,,,,,,,,,,,,,,,,,,,,,,,,,,,,,,,,,,,,,,,,,,,,,,,,,,,,,,,,,,,,,,,,,,,,,,,,,,,,,,,,,,,,,,,,,
,,,,,,5c4214996ca3080001d3b4c1,62bbfaa823a8d8d9be746806,2022-06-29_09h10.10.672,Colour_Asymmetry_Pilot,2022.1.3,Win32,59.99520038,62bbe60bf3d75ef465d3e404,0,61,61,137,1,onethree,,,,,,,,,,,,,,,,,,,,,,,,,,,,,,,,,,,,,,,,,,,,,,,,,,,,,,,,,,,,,,,,,,,,,,,,,,,,,,,,,,,,,,,,,,,,,,,,,,,,,,,,,,,,,,,,,,,,,,,,,,,,,,,,,,,,,,,,,,,,,,,,,,,,,,,,
,,,,,,5c4214996ca3080001d3b4c1,62bbfaa823a8d8d9be746806,2022-06-29_09h10.10.672,Colour_Asymmetry_Pilot,2022.1.3,Win32,59.99520038,62bbe60bf3d75ef465d3e404,0,62,62,88,1,onetwo,,,,,,,,,,,,,,,,,,,,,,,,,,,,,,,,,,,,,,,,,,,,,,,,,,,,,,,,,,,,,,,,,,,,,,,,,,,,,,,,,,,,,,,,,,,,,,,,,,,,,,,,,,,,,,,,,,,,,,,,,,,,,,,,,,,,,,,,,,,,,,,,,,,,,,,,
,,,,,,5c4214996ca3080001d3b4c1,62bbfaa823a8d8d9be746806,2022-06-29_09h10.10.672,Colour_Asymmetry_Pilot,2022.1.3,Win32,59.99520038,62bbe60bf3d75ef465d3e404,0,63,63,143,1,fourthree,,,,,,,,,,,,,,,,,,,,,,,,,,,,,,,,,,,,,,,,,,,,,,,,,,,,,,,,,,,,,,,,,,,,,,,,,,,,,,,,,,,,,,,,,,,,,,,,,,,,,,,,,,,,,,,,,,,,,,,,,,,,,,,,,,,,,,,,,,,,,,,,,,,,,,,,
,,,,,,5c4214996ca3080001d3b4c1,62bbfaa823a8d8d9be746806,2022-06-29_09h10.10.672,Colour_Asymmetry_Pilot,2022.1.3,Win32,59.99520038,62bbe60bf3d75ef465d3e404,0,64,64,8,1,onetwo,,,,,,,,,,,,,,,,,,,,,,,,,,,,,,,,,,,,,,,,,,,,,,,,,,,,,,,,,,,,,,,,,,,,,,,,,,,,,,,,,,,,,,,,,,,,,,,,,,,,,,,,,,,,,,,,,,,,,,,,,,,,,,,,,,,,,,,,,,,,,,,,,,,,,,,,
,,,,,,5c4214996ca3080001d3b4c1,62bbfaa823a8d8d9be746806,2022-06-29_09h10.10.672,Colour_Asymmetry_Pilot,2022.1.3,Win32,59.99520038,62bbe60bf3d75ef465d3e404,0,65,65,113,1,onethree,,,,,,,,,,,,,,,,,,,,,,,,,,,,,,,,,,,,,,,,,,,,,,,,,,,,,,,,,,,,,,,,,,,,,,,,,,,,,,,,,,,,,,,,,,,,,,,,,,,,,,,,,,,,,,,,,,,,,,,,,,,,,,,,,,,,,,,,,,,,,,,,,,,,,,,,
,,,,,,5c4214996ca3080001d3b4c1,62bbfaa823a8d8d9be746806,2022-06-29_09h10.10.672,Colour_Asymmetry_Pilot,2022.1.3,Win32,59.99520038,62bbe60bf3d75ef465d3e404,0,66,66,6,1,fourtwo,,,,,,,,,,,,,,,,,,,,,,,,,,,,,,,,,,,,,,,,,,,,,,,,,,,,,,,,,,,,,,,,,,,,,,,,,,,,,,,,,,,,,,,,,,,,,,,,,,,,,,,,,,,,,,,,,,,,,,,,,,,,,,,,,,,,,,,,,,,,,,,,,,,,,,,,
,,,,,,5c4214996ca3080001d3b4c1,62bbfaa823a8d8d9be746806,2022-06-29_09h10.10.672,Colour_Asymmetry_Pilot,2022.1.3,Win32,59.99520038,62bbe60bf3d75ef465d3e404,0,67,67,7,1,fourthree,,,,,,,,,,,,,,,,,,,,,,,,,,,,,,,,,,,,,,,,,,,,,,,,,,,,,,,,,,,,,,,,,,,,,,,,,,,,,,,,,,,,,,,,,,,,,,,,,,,,,,,,,,,,,,,,,,,,,,,,,,,,,,,,,,,,,,,,,,,,,,,,,,,,,,,,
,,,,,,5c4214996ca3080001d3b4c1,62bbfaa823a8d8d9be746806,2022-06-29_09h10.10.672,Colour_Asymmetry_Pilot,2022.1.3,Win32,59.99520038,62bbe60bf3d75ef465d3e404,0,68,68,57,1,onethree,,,,,,,,,,,,,,,,,,,,,,,,,,,,,,,,,,,,,,,,,,,,,,,,,,,,,,,,,,,,,,,,,,,,,,,,,,,,,,,,,,,,,,,,,,,,,,,,,,,,,,,,,,,,,,,,,,,,,,,,,,,,,,,,,,,,,,,,,,,,,,,,,,,,,,,,
,,,,,,5c4214996ca3080001d3b4c1,62bbfaa823a8d8d9be746806,2022-06-29_09h10.10.672,Colour_Asymmetry_Pilot,2022.1.3,Win32,59.99520038,62bbe60bf3d75ef465d3e404,0,69,69,14,1,fourtwo,,,,,,,,,,,,,,,,,,,,,,,,,,,,,,,,,,,,,,,,,,,,,,,,,,,,,,,,,,,,,,,,,,,,,,,,,,,,,,,,,,,,,,,,,,,,,,,,,,,,,,,,,,,,,,,,,,,,,,,,,,,,,,,,,,,,,,,,,,,,,,,,,,,,,,,,
,,,,,,5c4214996ca3080001d3b4c1,62bbfaa823a8d8d9be746806,2022-06-29_09h10.10.672,Colour_Asymmetry_Pilot,2022.1.3,Win32,59.99520038,62bbe60bf3d75ef465d3e404,0,70,70,51,1,twofour,,,,,,,,,,,,,,,,,,,,,,,,,,,,,,,,,,,,,,,,,,,,,,,,,,,,,,,,,,,,,,,,,,,,,,,,,,,,,,,,,,,,,,,,,,,,,,,,,,,,,,,,,,,,,,,,,,,,,,,,,,,,,,,,,,,,,,,,,,,,,,,,,,,,,,,,
,,,,,,5c4214996ca3080001d3b4c1,62bbfaa823a8d8d9be746806,2022-06-29_09h10.10.672,Colour_Asymmetry_Pilot,2022.1.3,Win32,59.99520038,62bbe60bf3d75ef465d3e404,0,71,71,109,1,threefour,,,,,,,,,,,,,,,,,,,,,,,,,,,,,,,,,,,,,,,,,,,,,,,,,,,,,,,,,,,,,,,,,,,,,,,,,,,,,,,,,,,,,,,,,,,,,,,,,,,,,,,,,,,,,,,,,,,,,,,,,,,,,,,,,,,,,,,,,,,,,,,,,,,,,,,,
,,,,,,5c4214996ca3080001d3b4c1,62bbfaa823a8d8d9be746806,2022-06-29_09h10.10.672,Colour_Asymmetry_Pilot,2022.1.3,Win32,59.99520038,62bbe60bf3d75ef465d3e404,0,72,72,98,1,twoone,,,,,,,,,,,,,,,,,,,,,,,,,,,,,,,,,,,,,,,,,,,,,,,,,,,,,,,,,,,,,,,,,,,,,,,,,,,,,,,,,,,,,,,,,,,,,,,,,,,,,,,,,,,,,,,,,,,,,,,,,,,,,,,,,,,,,,,,,,,,,,,,,,,,,,,,
,,,,,,5c4214996ca3080001d3b4c1,62bbfaa823a8d8d9be746806,2022-06-29_09h10.10.672,Colour_Asymmetry_Pilot,2022.1.3,Win32,59.99520038,62bbe60bf3d75ef465d3e404,0,73,73,29,1,threefour,,,,,,,,,,,,,,,,,,,,,,,,,,,,,,,,,,,,,,,,,,,,,,,,,,,,,,,,,,,,,,,,,,,,,,,,,,,,,,,,,,,,,,,,,,,,,,,,,,,,,,,,,,,,,,,,,,,,,,,,,,,,,,,,,,,,,,,,,,,,,,,,,,,,,,,,
,,,,,,5c4214996ca3080001d3b4c1,62bbfaa823a8d8d9be746806,2022-06-29_09h10.10.672,Colour_Asymmetry_Pilot,2022.1.3,Win32,59.99520038,62bbe60bf3d75ef465d3e404,0,74,74,9,1,onethree,,,,,,,,,,,,,,,,,,,,,,,,,,,,,,,,,,,,,,,,,,,,,,,,,,,,,,,,,,,,,,,,,,,,,,,,,,,,,,,,,,,,,,,,,,,,,,,,,,,,,,,,,,,,,,,,,,,,,,,,,,,,,,,,,,,,,,,,,,,,,,,,,,,,,,,,
,,,,,,5c4214996ca3080001d3b4c1,62bbfaa823a8d8d9be746806,2022-06-29_09h10.10.672,Colour_Asymmetry_Pilot,2022.1.3,Win32,59.99520038,62bbe60bf3d75ef465d3e404,0,75,75,23,1,fourthree,,,,,,,,,,,,,,,,,,,,,,,,,,,,,,,,,,,,,,,,,,,,,,,,,,,,,,,,,,,,,,,,,,,,,,,,,,,,,,,,,,,,,,,,,,,,,,,,,,,,,,,,,,,,,,,,,,,,,,,,,,,,,,,,,,,,,,,,,,,,,,,,,,,,,,,,
,,,,,,5c4214996ca3080001d3b4c1,62bbfaa823a8d8d9be746806,2022-06-29_09h10.10.672,Colour_Asymmetry_Pilot,2022.1.3,Win32,59.99520038,62bbe60bf3d75ef465d3e404,0,76,76,11,1,twofour,,,,,,,,,,,,,,,,,,,,,,,,,,,,,,,,,,,,,,,,,,,,,,,,,,,,,,,,,,,,,,,,,,,,,,,,,,,,,,,,,,,,,,,,,,,,,,,,,,,,,,,,,,,,,,,,,,,,,,,,,,,,,,,,,,,,,,,,,,,,,,,,,,,,,,,,
,,,,,,5c4214996ca3080001d3b4c1,62bbfaa823a8d8d9be746806,2022-06-29_09h10.10.672,Colour_Asymmetry_Pilot,2022.1.3,Win32,59.99520038,62bbe60bf3d75ef465d3e404,0,77,77,4,1,threeone,,,,,,,,,,,,,,,,,,,,,,,,,,,,,,,,,,,,,,,,,,,,,,,,,,,,,,,,,,,,,,,,,,,,,,,,,,,,,,,,,,,,,,,,,,,,,,,,,,,,,,,,,,,,,,,,,,,,,,,,,,,,,,,,,,,,,,,,,,,,,,,,,,,,,,,,
,,,,,,5c4214996ca3080001d3b4c1,62bbfaa823a8d8d9be746806,2022-06-29_09h10.10.672,Colour_Asymmetry_Pilot,2022.1.3,Win32,59.99520038,62bbe60bf3d75ef465d3e404,0,78,78,122,1,twoone,,,,,,,,,,,,,,,,,,,,,,,,,,,,,,,,,,,,,,,,,,,,,,,,,,,,,,,,,,,,,,,,,,,,,,,,,,,,,,,,,,,,,,,,,,,,,,,,,,,,,,,,,,,,,,,,,,,,,,,,,,,,,,,,,,,,,,,,,,,,,,,,,,,,,,,,
,,,,,,5c4214996ca3080001d3b4c1,62bbfaa823a8d8d9be746806,2022-06-29_09h10.10.672,Colour_Asymmetry_Pilot,2022.1.3,Win32,59.99520038,62bbe60bf3d75ef465d3e404,0,79,79,148,1,threeone,,,,,,,,,,,,,,,,,,,,,,,,,,,,,,,,,,,,,,,,,,,,,,,,,,,,,,,,,,,,,,,,,,,,,,,,,,,,,,,,,,,,,,,,,,,,,,,,,,,,,,,,,,,,,,,,,,,,,,,,,,,,,,,,,,,,,,,,,,,,,,,,,,,,,,,,
,,,,,,5c4214996ca3080001d3b4c1,62bbfaa823a8d8d9be746806,2022-06-29_09h10.10.672,Colour_Asymmetry_Pilot,2022.1.3,Win32,59.99520038,62bbe60bf3d75ef465d3e404,0,80,80,89,1,onethree,,,,,,,,,,,,,,,,,,,,,,,,,,,,,,,,,,,,,,,,,,,,,,,,,,,,,,,,,,,,,,,,,,,,,,,,,,,,,,,,,,,,,,,,,,,,,,,,,,,,,,,,,,,,,,,,,,,,,,,,,,,,,,,,,,,,,,,,,,,,,,,,,,,,,,,,
,,,,,,5c4214996ca3080001d3b4c1,62bbfaa823a8d8d9be746806,2022-06-29_09h10.10.672,Colour_Asymmetry_Pilot,2022.1.3,Win32,59.99520038,62bbe60bf3d75ef465d3e404,0,81,81,33,1,onethree,,,,,,,,,,,,,,,,,,,,,,,,,,,,,,,,,,,,,,,,,,,,,,,,,,,,,,,,,,,,,,,,,,,,,,,,,,,,,,,,,,,,,,,,,,,,,,,,,,,,,,,,,,,,,,,,,,,,,,,,,,,,,,,,,,,,,,,,,,,,,,,,,,,,,,,,
,,,,,,5c4214996ca3080001d3b4c1,62bbfaa823a8d8d9be746806,2022-06-29_09h10.10.672,Colour_Asymmetry_Pilot,2022.1.3,Win32,59.99520038,62bbe60bf3d75ef465d3e404,0,82,82,68,1,threeone,,,,,,,,,,,,,,,,,,,,,,,,,,,,,,,,,,,,,,,,,,,,,,,,,,,,,,,,,,,,,,,,,,,,,,,,,,,,,,,,,,,,,,,,,,,,,,,,,,,,,,,,,,,,,,,,,,,,,,,,,,,,,,,,,,,,,,,,,,,,,,,,,,,,,,,,
,,,,,,5c4214996ca3080001d3b4c1,62bbfaa823a8d8d9be746806,2022-06-29_09h10.10.672,Colour_Asymmetry_Pilot,2022.1.3,Win32,59.99520038,62bbe60bf3d75ef465d3e404,0,83,83,39,1,fourthree,,,,,,,,,,,,,,,,,,,,,,,,,,,,,,,,,,,,,,,,,,,,,,,,,,,,,,,,,,,,,,,,,,,,,,,,,,,,,,,,,,,,,,,,,,,,,,,,,,,,,,,,,,,,,,,,,,,,,,,,,,,,,,,,,,,,,,,,,,,,,,,,,,,,,,,,
,,,,,,5c4214996ca3080001d3b4c1,62bbfaa823a8d8d9be746806,2022-06-29_09h10.10.672,Colour_Asymmetry_Pilot,2022.1.3,Win32,59.99520038,62bbe60bf3d75ef465d3e404,0,84,84,44,1,threeone,,,,,,,,,,,,,,,,,,,,,,,,,,,,,,,,,,,,,,,,,,,,,,,,,,,,,,,,,,,,,,,,,,,,,,,,,,,,,,,,,,,,,,,,,,,,,,,,,,,,,,,,,,,,,,,,,,,,,,,,,,,,,,,,,,,,,,,,,,,,,,,,,,,,,,,,
,,,,,,5c4214996ca3080001d3b4c1,62bbfaa823a8d8d9be746806,2022-06-29_09h10.10.672,Colour_Asymmetry_Pilot,2022.1.3,Win32,59.99520038,62bbe60bf3d75ef465d3e404,0,85,85,10,1,twoone,,,,,,,,,,,,,,,,,,,,,,,,,,,,,,,,,,,,,,,,,,,,,,,,,,,,,,,,,,,,,,,,,,,,,,,,,,,,,,,,,,,,,,,,,,,,,,,,,,,,,,,,,,,,,,,,,,,,,,,,,,,,,,,,,,,,,,,,,,,,,,,,,,,,,,,,
,,,,,,5c4214996ca3080001d3b4c1,62bbfaa823a8d8d9be746806,2022-06-29_09h10.10.672,Colour_Asymmetry_Pilot,2022.1.3,Win32,59.99520038,62bbe60bf3d75ef465d3e404,0,86,86,147,1,twofour,,,,,,,,,,,,,,,,,,,,,,,,,,,,,,,,,,,,,,,,,,,,,,,,,,,,,,,,,,,,,,,,,,,,,,,,,,,,,,,,,,,,,,,,,,,,,,,,,,,,,,,,,,,,,,,,,,,,,,,,,,,,,,,,,,,,,,,,,,,,,,,,,,,,,,,,
,,,,,,5c4214996ca3080001d3b4c1,62bbfaa823a8d8d9be746806,2022-06-29_09h10.10.672,Colour_Asymmetry_Pilot,2022.1.3,Win32,59.99520038,62bbe60bf3d75ef465d3e404,0,87,87,49,1,onethree,,,,,,,,,,,,,,,,,,,,,,,,,,,,,,,,,,,,,,,,,,,,,,,,,,,,,,,,,,,,,,,,,,,,,,,,,,,,,,,,,,,,,,,,,,,,,,,,,,,,,,,,,,,,,,,,,,,,,,,,,,,,,,,,,,,,,,,,,,,,,,,,,,,,,,,,
,,,,,,5c4214996ca3080001d3b4c1,62bbfaa823a8d8d9be746806,2022-06-29_09h10.10.672,Colour_Asymmetry_Pilot,2022.1.3,Win32,59.99520038,62bbe60bf3d75ef465d3e404,0,88,88,99,1,twofour,,,,,,,,,,,,,,,,,,,,,,,,,,,,,,,,,,,,,,,,,,,,,,,,,,,,,,,,,,,,,,,,,,,,,,,,,,,,,,,,,,,,,,,,,,,,,,,,,,,,,,,,,,,,,,,,,,,,,,,,,,,,,,,,,,,,,,,,,,,,,,,,,,,,,,,,
,,,,,,5c4214996ca3080001d3b4c1,62bbfaa823a8d8d9be746806,2022-06-29_09h10.10.672,Colour_Asymmetry_Pilot,2022.1.3,Win32,59.99520038,62bbe60bf3d75ef465d3e404,0,89,89,12,1,threeone,,,,,,,,,,,,,,,,,,,,,,,,,,,,,,,,,,,,,,,,,,,,,,,,,,,,,,,,,,,,,,,,,,,,,,,,,,,,,,,,,,,,,,,,,,,,,,,,,,,,,,,,,,,,,,,,,,,,,,,,,,,,,,,,,,,,,,,,,,,,,,,,,,,,,,,,
,,,,,,5c4214996ca3080001d3b4c1,62bbfaa823a8d8d9be746806,2022-06-29_09h10.10.672,Colour_Asymmetry_Pilot,2022.1.3,Win32,59.99520038,62bbe60bf3d75ef465d3e404,0,90,90,91,1,twofour,,,,,,,,,,,,,,,,,,,,,,,,,,,,,,,,,,,,,,,,,,,,,,,,,,,,,,,,,,,,,,,,,,,,,,,,,,,,,,,,,,,,,,,,,,,,,,,,,,,,,,,,,,,,,,,,,,,,,,,,,,,,,,,,,,,,,,,,,,,,,,,,,,,,,,,,
,,,,,,5c4214996ca3080001d3b4c1,62bbfaa823a8d8d9be746806,2022-06-29_09h10.10.672,Colour_Asymmetry_Pilot,2022.1.3,Win32,59.99520038,62bbe60bf3d75ef465d3e404,0,91,91,134,1,fourtwo,,,,,,,,,,,,,,,,,,,,,,,,,,,,,,,,,,,,,,,,,,,,,,,,,,,,,,,,,,,,,,,,,,,,,,,,,,,,,,,,,,,,,,,,,,,,,,,,,,,,,,,,,,,,,,,,,,,,,,,,,,,,,,,,,,,,,,,,,,,,,,,,,,,,,,,,
,,,,,,5c4214996ca3080001d3b4c1,62bbfaa823a8d8d9be746806,2022-06-29_09h10.10.672,Colour_Asymmetry_Pilot,2022.1.3,Win32,59.99520038,62bbe60bf3d75ef465d3e404,0,92,92,116,1,threeone,,,,,,,,,,,,,,,,,,,,,,,,,,,,,,,,,,,,,,,,,,,,,,,,,,,,,,,,,,,,,,,,,,,,,,,,,,,,,,,,,,,,,,,,,,,,,,,,,,,,,,,,,,,,,,,,,,,,,,,,,,,,,,,,,,,,,,,,,,,,,,,,,,,,,,,,
,,,,,,5c4214996ca3080001d3b4c1,62bbfaa823a8d8d9be746806,2022-06-29_09h10.10.672,Colour_Asymmetry_Pilot,2022.1.3,Win32,59.99520038,62bbe60bf3d75ef465d3e404,0,93,93,106,1,twoone,,,,,,,,,,,,,,,,,,,,,,,,,,,,,,,,,,,,,,,,,,,,,,,,,,,,,,,,,,,,,,,,,,,,,,,,,,,,,,,,,,,,,,,,,,,,,,,,,,,,,,,,,,,,,,,,,,,,,,,,,,,,,,,,,,,,,,,,,,,,,,,,,,,,,,,,
,,,,,,5c4214996ca3080001d3b4c1,62bbfaa823a8d8d9be746806,2022-06-29_09h10.10.672,Colour_Asymmetry_Pilot,2022.1.3,Win32,59.99520038,62bbe60bf3d75ef465d3e404,0,94,94,59,1,twofour,,,,,,,,,,,,,,,,,,,,,,,,,,,,,,,,,,,,,,,,,,,,,,,,,,,,,,,,,,,,,,,,,,,,,,,,,,,,,,,,,,,,,,,,,,,,,,,,,,,,,,,,,,,,,,,,,,,,,,,,,,,,,,,,,,,,,,,,,,,,,,,,,,,,,,,,
,,,,,,5c4214996ca3080001d3b4c1,62bbfaa823a8d8d9be746806,2022-06-29_09h10.10.672,Colour_Asymmetry_Pilot,2022.1.3,Win32,59.99520038,62bbe60bf3d75ef465d3e404,0,95,95,133,1,threefour,,,,,,,,,,,,,,,,,,,,,,,,,,,,,,,,,,,,,,,,,,,,,,,,,,,,,,,,,,,,,,,,,,,,,,,,,,,,,,,,,,,,,,,,,,,,,,,,,,,,,,,,,,,,,,,,,,,,,,,,,,,,,,,,,,,,,,,,,,,,,,,,,,,,,,,,
,,,,,,5c4214996ca3080001d3b4c1,62bbfaa823a8d8d9be746806,2022-06-29_09h10.10.672,Colour_Asymmetry_Pilot,2022.1.3,Win32,59.99520038,62bbe60bf3d75ef465d3e404,0,96,96,126,1,fourtwo,,,,,,,,,,,,,,,,,,,,,,,,,,,,,,,,,,,,,,,,,,,,,,,,,,,,,,,,,,,,,,,,,,,,,,,,,,,,,,,,,,,,,,,,,,,,,,,,,,,,,,,,,,,,,,,,,,,,,,,,,,,,,,,,,,,,,,,,,,,,,,,,,,,,,,,,
,,,,,,5c4214996ca3080001d3b4c1,62bbfaa823a8d8d9be746806,2022-06-29_09h10.10.672,Colour_Asymmetry_Pilot,2022.1.3,Win32,59.99520038,62bbe60bf3d75ef465d3e404,0,97,97,56,1,onetwo,,,,,,,,,,,,,,,,,,,,,,,,,,,,,,,,,,,,,,,,,,,,,,,,,,,,,,,,,,,,,,,,,,,,,,,,,,,,,,,,,,,,,,,,,,,,,,,,,,,,,,,,,,,,,,,,,,,,,,,,,,,,,,,,,,,,,,,,,,,,,,,,,,,,,,,,
,,,,,,5c4214996ca3080001d3b4c1,62bbfaa823a8d8d9be746806,2022-06-29_09h10.10.672,Colour_Asymmetry_Pilot,2022.1.3,Win32,59.99520038,62bbe60bf3d75ef465d3e404,0,98,98,111,1,fourthree,,,,,,,,,,,,,,,,,,,,,,,,,,,,,,,,,,,,,,,,,,,,,,,,,,,,,,,,,,,,,,,,,,,,,,,,,,,,,,,,,,,,,,,,,,,,,,,,,,,,,,,,,,,,,,,,,,,,,,,,,,,,,,,,,,,,,,,,,,,,,,,,,,,,,,,,
,,,,,,5c4214996ca3080001d3b4c1,62bbfaa823a8d8d9be746806,2022-06-29_09h10.10.672,Colour_Asymmetry_Pilot,2022.1.3,Win32,59.99520038,62bbe60bf3d75ef465d3e404,0,99,99,78,1,fourtwo,,,,,,,,,,,,,,,,,,,,,,,,,,,,,,,,,,,,,,,,,,,,,,,,,,,,,,,,,,,,,,,,,,,,,,,,,,,,,,,,,,,,,,,,,,,,,,,,,,,,,,,,,,,,,,,,,,,,,,,,,,,,,,,,,,,,,,,,,,,,,,,,,,,,,,,,
,,,,,,5c4214996ca3080001d3b4c1,62bbfaa823a8d8d9be746806,2022-06-29_09h10.10.672,Colour_Asymmetry_Pilot,2022.1.3,Win32,59.99520038,62bbe60bf3d75ef465d3e404,0,100,100,55,1,fourthree,,,,,,,,,,,,,,,,,,,,,,,,,,,,,,,,,,,,,,,,,,,,,,,,,,,,,,,,,,,,,,,,,,,,,,,,,,,,,,,,,,,,,,,,,,,,,,,,,,,,,,,,,,,,,,,,,,,,,,,,,,,,,,,,,,,,,,,,,,,,,,,,,,,,,,,,
,,,,,,5c4214996ca3080001d3b4c1,62bbfaa823a8d8d9be746806,2022-06-29_09h10.10.672,Colour_Asymmetry_Pilot,2022.1.3,Win32,59.99520038,62bbe60bf3d75ef465d3e404,0,101,101,36,1,threeone,,,,,,,,,,,,,,,,,,,,,,,,,,,,,,,,,,,,,,,,,,,,,,,,,,,,,,,,,,,,,,,,,,,,,,,,,,,,,,,,,,,,,,,,,,,,,,,,,,,,,,,,,,,,,,,,,,,,,,,,,,,,,,,,,,,,,,,,,,,,,,,,,,,,,,,,
,,,,,,5c4214996ca3080001d3b4c1,62bbfaa823a8d8d9be746806,2022-06-29_09h10.10.672,Colour_Asymmetry_Pilot,2022.1.3,Win32,59.99520038,62bbe60bf3d75ef465d3e404,0,102,102,61,1,threefour,,,,,,,,,,,,,,,,,,,,,,,,,,,,,,,,,,,,,,,,,,,,,,,,,,,,,,,,,,,,,,,,,,,,,,,,,,,,,,,,,,,,,,,,,,,,,,,,,,,,,,,,,,,,,,,,,,,,,,,,,,,,,,,,,,,,,,,,,,,,,,,,,,,,,,,,
,,,,,,5c4214996ca3080001d3b4c1,62bbfaa823a8d8d9be746806,2022-06-29_09h10.10.672,Colour_Asymmetry_Pilot,2022.1.3,Win32,59.99520038,62bbe60bf3d75ef465d3e404,0,103,103,104,1,onetwo,,,,,,,,,,,,,,,,,,,,,,,,,,,,,,,,,,,,,,,,,,,,,,,,,,,,,,,,,,,,,,,,,,,,,,,,,,,,,,,,,,,,,,,,,,,,,,,,,,,,,,,,,,,,,,,,,,,,,,,,,,,,,,,,,,,,,,,,,,,,,,,,,,,,,,,,
,,,,,,5c4214996ca3080001d3b4c1,62bbfaa823a8d8d9be746806,2022-06-29_09h10.10.672,Colour_Asymmetry_Pilot,2022.1.3,Win32,59.99520038,62bbe60bf3d75ef465d3e404,0,104,104,34,1,twoone,,,,,,,,,,,,,,,,,,,,,,,,,,,,,,,,,,,,,,,,,,,,,,,,,,,,,,,,,,,,,,,,,,,,,,,,,,,,,,,,,,,,,,,,,,,,,,,,,,,,,,,,,,,,,,,,,,,,,,,,,,,,,,,,,,,,,,,,,,,,,,,,,,,,,,,,
,,,,,,5c4214996ca3080001d3b4c1,62bbfaa823a8d8d9be746806,2022-06-29_09h10.10.672,Colour_Asymmetry_Pilot,2022.1.3,Win32,59.99520038,62bbe60bf3d75ef465d3e404,0,105,105,80,1,onetwo,,,,,,,,,,,,,,,,,,,,,,,,,,,,,,,,,,,,,,,,,,,,,,,,,,,,,,,,,,,,,,,,,,,,,,,,,,,,,,,,,,,,,,,,,,,,,,,,,,,,,,,,,,,,,,,,,,,,,,,,,,,,,,,,,,,,,,,,,,,,,,,,,,,,,,,,
,,,,,,5c4214996ca3080001d3b4c1,62bbfaa823a8d8d9be746806,2022-06-29_09h10.10.672,Colour_Asymmetry_Pilot,2022.1.3,Win32,59.99520038,62bbe60bf3d75ef465d3e404,0,106,106,22,1,fourtwo,,,,,,,,,,,,,,,,,,,,,,,,,,,,,,,,,,,,,,,,,,,,,,,,,,,,,,,,,,,,,,,,,,,,,,,,,,,,,,,,,,,,,,,,,,,,,,,,,,,,,,,,,,,,,,,,,,,,,,,,,,,,,,,,,,,,,,,,,,,,,,,,,,,,,,,,
,,,,,,5c4214996ca3080001d3b4c1,62bbfaa823a8d8d9be746806,2022-06-29_09h10.10.672,Colour_Asymmetry_Pilot,2022.1.3,Win32,59.99520038,62bbe60bf3d75ef465d3e404,0,107,107,74,1,twoone,,,,,,,,,,,,,,,,,,,,,,,,,,,,,,,,,,,,,,,,,,,,,,,,,,,,,,,,,,,,,,,,,,,,,,,,,,,,,,,,,,,,,,,,,,,,,,,,,,,,,,,,,,,,,,,,,,,,,,,,,,,,,,,,,,,,,,,,,,,,,,,,,,,,,,,,
,,,,,,5c4214996ca3080001d3b4c1,62bbfaa823a8d8d9be746806,2022-06-29_09h10.10.672,Colour_Asymmetry_Pilot,2022.1.3,Win32,59.99520038,62bbe60bf3d75ef465d3e404,0,108,108,40,1,onetwo,,,,,,,,,,,,,,,,,,,,,,,,,,,,,,,,,,,,,,,,,,,,,,,,,,,,,,,,,,,,,,,,,,,,,,,,,,,,,,,,,,,,,,,,,,,,,,,,,,,,,,,,,,,,,,,,,,,,,,,,,,,,,,,,,,,,,,,,,,,,,,,,,,,,,,,,
,,,,,,5c4214996ca3080001d3b4c1,62bbfaa823a8d8d9be746806,2022-06-29_09h10.10.672,Colour_Asymmetry_Pilot,2022.1.3,Win32,59.99520038,62bbe60bf3d75ef465d3e404,0,109,109,82,1,twoone,,,,,,,,,,,,,,,,,,,,,,,,,,,,,,,,,,,,,,,,,,,,,,,,,,,,,,,,,,,,,,,,,,,,,,,,,,,,,,,,,,,,,,,,,,,,,,,,,,,,,,,,,,,,,,,,,,,,,,,,,,,,,,,,,,,,,,,,,,,,,,,,,,,,,,,,
,,,,,,5c4214996ca3080001d3b4c1,62bbfaa823a8d8d9be746806,2022-06-29_09h10.10.672,Colour_Asymmetry_Pilot,2022.1.3,Win32,59.99520038,62bbe60bf3d75ef465d3e404,0,110,110,105,1,onethree,,,,,,,,,,,,,,,,,,,,,,,,,,,,,,,,,,,,,,,,,,,,,,,,,,,,,,,,,,,,,,,,,,,,,,,,,,,,,,,,,,,,,,,,,,,,,,,,,,,,,,,,,,,,,,,,,,,,,,,,,,,,,,,,,,,,,,,,,,,,,,,,,,,,,,,,
,,,,,,5c4214996ca3080001d3b4c1,62bbfaa823a8d8d9be746806,2022-06-29_09h10.10.672,Colour_Asymmetry_Pilot,2022.1.3,Win32,59.99520038,62bbe60bf3d75ef465d3e404,0,111,111,160,1,onetwo,,,,,,,,,,,,,,,,,,,,,,,,,,,,,,,,,,,,,,,,,,,,,,,,,,,,,,,,,,,,,,,,,,,,,,,,,,,,,,,,,,,,,,,,,,,,,,,,,,,,,,,,,,,,,,,,,,,,,,,,,,,,,,,,,,,,,,,,,,,,,,,,,,,,,,,,
,,,,,,5c4214996ca3080001d3b4c1,62bbfaa823a8d8d9be746806,2022-06-29_09h10.10.672,Colour_Asymmetry_Pilot,2022.1.3,Win32,59.99520038,62bbe60bf3d75ef465d3e404,0,112,112,120,1,onetwo,,,,,,,,,,,,,,,,,,,,,,,,,,,,,,,,,,,,,,,,,,,,,,,,,,,,,,,,,,,,,,,,,,,,,,,,,,,,,,,,,,,,,,,,,,,,,,,,,,,,,,,,,,,,,,,,,,,,,,,,,,,,,,,,,,,,,,,,,,,,,,,,,,,,,,,,
,,,,,,5c4214996ca3080001d3b4c1,62bbfaa823a8d8d9be746806,2022-06-29_09h10.10.672,Colour_Asymmetry_Pilot,2022.1.3,Win32,59.99520038,62bbe60bf3d75ef465d3e404,0,113,113,45,1,threefour,,,,,,,,,,,,,,,,,,,,,,,,,,,,,,,,,,,,,,,,,,,,,,,,,,,,,,,,,,,,,,,,,,,,,,,,,,,,,,,,,,,,,,,,,,,,,,,,,,,,,,,,,,,,,,,,,,,,,,,,,,,,,,,,,,,,,,,,,,,,,,,,,,,,,,,,
,,,,,,5c4214996ca3080001d3b4c1,62bbfaa823a8d8d9be746806,2022-06-29_09h10.10.672,Colour_Asymmetry_Pilot,2022.1.3,Win32,59.99520038,62bbe60bf3d75ef465d3e404,0,114,114,90,1,twoone,,,,,,,,,,,,,,,,,,,,,,,,,,,,,,,,,,,,,,,,,,,,,,,,,,,,,,,,,,,,,,,,,,,,,,,,,,,,,,,,,,,,,,,,,,,,,,,,,,,,,,,,,,,,,,,,,,,,,,,,,,,,,,,,,,,,,,,,,,,,,,,,,,,,,,,,
,,,,,,5c4214996ca3080001d3b4c1,62bbfaa823a8d8d9be746806,2022-06-29_09h10.10.672,Colour_Asymmetry_Pilot,2022.1.3,Win32,59.99520038,62bbe60bf3d75ef465d3e404,0,115,115,37,1,threefour,,,,,,,,,,,,,,,,,,,,,,,,,,,,,,,,,,,,,,,,,,,,,,,,,,,,,,,,,,,,,,,,,,,,,,,,,,,,,,,,,,,,,,,,,,,,,,,,,,,,,,,,,,,,,,,,,,,,,,,,,,,,,,,,,,,,,,,,,,,,,,,,,,,,,,,,
,,,,,,5c4214996ca3080001d3b4c1,62bbfaa823a8d8d9be746806,2022-06-29_09h10.10.672,Colour_Asymmetry_Pilot,2022.1.3,Win32,59.99520038,62bbe60bf3d75ef465d3e404,0,116,116,48,1,onetwo,,,,,,,,,,,,,,,,,,,,,,,,,,,,,,,,,,,,,,,,,,,,,,,,,,,,,,,,,,,,,,,,,,,,,,,,,,,,,,,,,,,,,,,,,,,,,,,,,,,,,,,,,,,,,,,,,,,,,,,,,,,,,,,,,,,,,,,,,,,,,,,,,,,,,,,,
,,,,,,5c4214996ca3080001d3b4c1,62bbfaa823a8d8d9be746806,2022-06-29_09h10.10.672,Colour_Asymmetry_Pilot,2022.1.3,Win32,59.99520038,62bbe60bf3d75ef465d3e404,0,117,117,71,1,fourthree,,,,,,,,,,,,,,,,,,,,,,,,,,,,,,,,,,,,,,,,,,,,,,,,,,,,,,,,,,,,,,,,,,,,,,,,,,,,,,,,,,,,,,,,,,,,,,,,,,,,,,,,,,,,,,,,,,,,,,,,,,,,,,,,,,,,,,,,,,,,,,,,,,,,,,,,
,,,,,,5c4214996ca3080001d3b4c1,62bbfaa823a8d8d9be746806,2022-06-29_09h10.10.672,Colour_Asymmetry_Pilot,2022.1.3,Win32,59.99520038,62bbe60bf3d75ef465d3e404,0,118,118,41,1,onethree,,,,,,,,,,,,,,,,,,,,,,,,,,,,,,,,,,,,,,,,,,,,,,,,,,,,,,,,,,,,,,,,,,,,,,,,,,,,,,,,,,,,,,,,,,,,,,,,,,,,,,,,,,,,,,,,,,,,,,,,,,,,,,,,,,,,,,,,,,,,,,,,,,,,,,,,
,,,,,,5c4214996ca3080001d3b4c1,62bbfaa823a8d8d9be746806,2022-06-29_09h10.10.672,Colour_Asymmetry_Pilot,2022.1.3,Win32,59.99520038,62bbe60bf3d75ef465d3e404,0,119,119,83,1,twofour,,,,,,,,,,,,,,,,,,,,,,,,,,,,,,,,,,,,,,,,,,,,,,,,,,,,,,,,,,,,,,,,,,,,,,,,,,,,,,,,,,,,,,,,,,,,,,,,,,,,,,,,,,,,,,,,,,,,,,,,,,,,,,,,,,,,,,,,,,,,,,,,,,,,,,,,
,,,,,,5c4214996ca3080001d3b4c1,62bbfaa823a8d8d9be746806,2022-06-29_09h10.10.672,Colour_Asymmetry_Pilot,2022.1.3,Win32,59.99520038,62bbe60bf3d75ef465d3e404,0,120,120,100,1,threeone,,,,,,,,,,,,,,,,,,,,,,,,,,,,,,,,,,,,,,,,,,,,,,,,,,,,,,,,,,,,,,,,,,,,,,,,,,,,,,,,,,,,,,,,,,,,,,,,,,,,,,,,,,,,,,,,,,,,,,,,,,,,,,,,,,,,,,,,,,,,,,,,,,,,,,,,
,,,,,,5c4214996ca3080001d3b4c1,62bbfaa823a8d8d9be746806,2022-06-29_09h10.10.672,Colour_Asymmetry_Pilot,2022.1.3,Win32,59.99520038,62bbe60bf3d75ef465d3e404,0,121,121,138,1,twoone,,,,,,,,,,,,,,,,,,,,,,,,,,,,,,,,,,,,,,,,,,,,,,,,,,,,,,,,,,,,,,,,,,,,,,,,,,,,,,,,,,,,,,,,,,,,,,,,,,,,,,,,,,,,,,,,,,,,,,,,,,,,,,,,,,,,,,,,,,,,,,,,,,,,,,,,
,,,,,,5c4214996ca3080001d3b4c1,62bbfaa823a8d8d9be746806,2022-06-29_09h10.10.672,Colour_Asymmetry_Pilot,2022.1.3,Win32,59.99520038,62bbe60bf3d75ef465d3e404,0,122,122,30,1,fourtwo,,,,,,,,,,,,,,,,,,,,,,,,,,,,,,,,,,,,,,,,,,,,,,,,,,,,,,,,,,,,,,,,,,,,,,,,,,,,,,,,,,,,,,,,,,,,,,,,,,,,,,,,,,,,,,,,,,,,,,,,,,,,,,,,,,,,,,,,,,,,,,,,,,,,,,,,
,,,,,,5c4214996ca3080001d3b4c1,62bbfaa823a8d8d9be746806,2022-06-29_09h10.10.672,Colour_Asymmetry_Pilot,2022.1.3,Win32,59.99520038,62bbe60bf3d75ef465d3e404,0,123,123,96,1,onetwo,,,,,,,,,,,,,,,,,,,,,,,,,,,,,,,,,,,,,,,,,,,,,,,,,,,,,,,,,,,,,,,,,,,,,,,,,,,,,,,,,,,,,,,,,,,,,,,,,,,,,,,,,,,,,,,,,,,,,,,,,,,,,,,,,,,,,,,,,,,,,,,,,,,,,,,,
,,,,,,5c4214996ca3080001d3b4c1,62bbfaa823a8d8d9be746806,2022-06-29_09h10.10.672,Colour_Asymmetry_Pilot,2022.1.3,Win32,59.99520038,62bbe60bf3d75ef465d3e404,0,124,124,3,1,twofour,,,,,,,,,,,,,,,,,,,,,,,,,,,,,,,,,,,,,,,,,,,,,,,,,,,,,,,,,,,,,,,,,,,,,,,,,,,,,,,,,,,,,,,,,,,,,,,,,,,,,,,,,,,,,,,,,,,,,,,,,,,,,,,,,,,,,,,,,,,,,,,,,,,,,,,,
,,,,,,5c4214996ca3080001d3b4c1,62bbfaa823a8d8d9be746806,2022-06-29_09h10.10.672,Colour_Asymmetry_Pilot,2022.1.3,Win32,59.99520038,62bbe60bf3d75ef465d3e404,0,125,125,153,1,onethree,,,,,,,,,,,,,,,,,,,,,,,,,,,,,,,,,,,,,,,,,,,,,,,,,,,,,,,,,,,,,,,,,,,,,,,,,,,,,,,,,,,,,,,,,,,,,,,,,,,,,,,,,,,,,,,,,,,,,,,,,,,,,,,,,,,,,,,,,,,,,,,,,,,,,,,,
,,,,,,5c4214996ca3080001d3b4c1,62bbfaa823a8d8d9be746806,2022-06-29_09h10.10.672,Colour_Asymmetry_Pilot,2022.1.3,Win32,59.99520038,62bbe60bf3d75ef465d3e404,0,126,126,53,1,threefour,,,,,,,,,,,,,,,,,,,,,,,,,,,,,,,,,,,,,,,,,,,,,,,,,,,,,,,,,,,,,,,,,,,,,,,,,,,,,,,,,,,,,,,,,,,,,,,,,,,,,,,,,,,,,,,,,,,,,,,,,,,,,,,,,,,,,,,,,,,,,,,,,,,,,,,,
,,,,,,5c4214996ca3080001d3b4c1,62bbfaa823a8d8d9be746806,2022-06-29_09h10.10.672,Colour_Asymmetry_Pilot,2022.1.3,Win32,59.99520038,62bbe60bf3d75ef465d3e404,0,127,127,95,1,fourthree,,,,,,,,,,,,,,,,,,,,,,,,,,,,,,,,,,,,,,,,,,,,,,,,,,,,,,,,,,,,,,,,,,,,,,,,,,,,,,,,,,,,,,,,,,,,,,,,,,,,,,,,,,,,,,,,,,,,,,,,,,,,,,,,,,,,,,,,,,,,,,,,,,,,,,,,
,,,,,,5c4214996ca3080001d3b4c1,62bbfaa823a8d8d9be746806,2022-06-29_09h10.10.672,Colour_Asymmetry_Pilot,2022.1.3,Win32,59.99520038,62bbe60bf3d75ef465d3e404,0,128,128,117,1,threefour,,,,,,,,,,,,,,,,,,,,,,,,,,,,,,,,,,,,,,,,,,,,,,,,,,,,,,,,,,,,,,,,,,,,,,,,,,,,,,,,,,,,,,,,,,,,,,,,,,,,,,,,,,,,,,,,,,,,,,,,,,,,,,,,,,,,,,,,,,,,,,,,,,,,,,,,
,,,,,,5c4214996ca3080001d3b4c1,62bbfaa823a8d8d9be746806,2022-06-29_09h10.10.672,Colour_Asymmetry_Pilot,2022.1.3,Win32,59.99520038,62bbe60bf3d75ef465d3e404,0,129,129,127,1,fourthree,,,,,,,,,,,,,,,,,,,,,,,,,,,,,,,,,,,,,,,,,,,,,,,,,,,,,,,,,,,,,,,,,,,,,,,,,,,,,,,,,,,,,,,,,,,,,,,,,,,,,,,,,,,,,,,,,,,,,,,,,,,,,,,,,,,,,,,,,,,,,,,,,,,,,,,,
,,,,,,5c4214996ca3080001d3b4c1,62bbfaa823a8d8d9be746806,2022-06-29_09h10.10.672,Colour_Asymmetry_Pilot,2022.1.3,Win32,59.99520038,62bbe60bf3d75ef465d3e404,0,130,130,159,1,fourthree,,,,,,,,,,,,,,,,,,,,,,,,,,,,,,,,,,,,,,,,,,,,,,,,,,,,,,,,,,,,,,,,,,,,,,,,,,,,,,,,,,,,,,,,,,,,,,,,,,,,,,,,,,,,,,,,,,,,,,,,,,,,,,,,,,,,,,,,,,,,,,,,,,,,,,,,
,,,,,,5c4214996ca3080001d3b4c1,62bbfaa823a8d8d9be746806,2022-06-29_09h10.10.672,Colour_Asymmetry_Pilot,2022.1.3,Win32,59.99520038,62bbe60bf3d75ef465d3e404,0,131,131,65,1,onethree,,,,,,,,,,,,,,,,,,,,,,,,,,,,,,,,,,,,,,,,,,,,,,,,,,,,,,,,,,,,,,,,,,,,,,,,,,,,,,,,,,,,,,,,,,,,,,,,,,,,,,,,,,,,,,,,,,,,,,,,,,,,,,,,,,,,,,,,,,,,,,,,,,,,,,,,
,,,,,,5c4214996ca3080001d3b4c1,62bbfaa823a8d8d9be746806,2022-06-29_09h10.10.672,Colour_Asymmetry_Pilot,2022.1.3,Win32,59.99520038,62bbe60bf3d75ef465d3e404,0,132,132,156,1,threeone,,,,,,,,,,,,,,,,,,,,,,,,,,,,,,,,,,,,,,,,,,,,,,,,,,,,,,,,,,,,,,,,,,,,,,,,,,,,,,,,,,,,,,,,,,,,,,,,,,,,,,,,,,,,,,,,,,,,,,,,,,,,,,,,,,,,,,,,,,,,,,,,,,,,,,,,
,,,,,,5c4214996ca3080001d3b4c1,62bbfaa823a8d8d9be746806,2022-06-29_09h10.10.672,Colour_Asymmetry_Pilot,2022.1.3,Win32,59.99520038,62bbe60bf3d75ef465d3e404,0,133,133,2,1,twoone,,,,,,,,,,,,,,,,,,,,,,,,,,,,,,,,,,,,,,,,,,,,,,,,,,,,,,,,,,,,,,,,,,,,,,,,,,,,,,,,,,,,,,,,,,,,,,,,,,,,,,,,,,,,,,,,,,,,,,,,,,,,,,,,,,,,,,,,,,,,,,,,,,,,,,,,
,,,,,,5c4214996ca3080001d3b4c1,62bbfaa823a8d8d9be746806,2022-06-29_09h10.10.672,Colour_Asymmetry_Pilot,2022.1.3,Win32,59.99520038,62bbe60bf3d75ef465d3e404,0,134,134,121,1,onethree,,,,,,,,,,,,,,,,,,,,,,,,,,,,,,,,,,,,,,,,,,,,,,,,,,,,,,,,,,,,,,,,,,,,,,,,,,,,,,,,,,,,,,,,,,,,,,,,,,,,,,,,,,,,,,,,,,,,,,,,,,,,,,,,,,,,,,,,,,,,,,,,,,,,,,,,
,,,,,,5c4214996ca3080001d3b4c1,62bbfaa823a8d8d9be746806,2022-06-29_09h10.10.672,Colour_Asymmetry_Pilot,2022.1.3,Win32,59.99520038,62bbe60bf3d75ef465d3e404,0,135,135,46,1,fourtwo,,,,,,,,,,,,,,,,,,,,,,,,,,,,,,,,,,,,,,,,,,,,,,,,,,,,,,,,,,,,,,,,,,,,,,,,,,,,,,,,,,,,,,,,,,,,,,,,,,,,,,,,,,,,,,,,,,,,,,,,,,,,,,,,,,,,,,,,,,,,,,,,,,,,,,,,
,,,,,,5c4214996ca3080001d3b4c1,62bbfaa823a8d8d9be746806,2022-06-29_09h10.10.672,Colour_Asymmetry_Pilot,2022.1.3,Win32,59.99520038,62bbe60bf3d75ef465d3e404,0,136,136,140,1,threeone,,,,,,,,,,,,,,,,,,,,,,,,,,,,,,,,,,,,,,,,,,,,,,,,,,,,,,,,,,,,,,,,,,,,,,,,,,,,,,,,,,,,,,,,,,,,,,,,,,,,,,,,,,,,,,,,,,,,,,,,,,,,,,,,,,,,,,,,,,,,,,,,,,,,,,,,
,,,,,,5c4214996ca3080001d3b4c1,62bbfaa823a8d8d9be746806,2022-06-29_09h10.10.672,Colour_Asymmetry_Pilot,2022.1.3,Win32,59.99520038,62bbe60bf3d75ef465d3e404,0,137,137,20,1,threeone,,,,,,,,,,,,,,,,,,,,,,,,,,,,,,,,,,,,,,,,,,,,,,,,,,,,,,,,,,,,,,,,,,,,,,,,,,,,,,,,,,,,,,,,,,,,,,,,,,,,,,,,,,,,,,,,,,,,,,,,,,,,,,,,,,,,,,,,,,,,,,,,,,,,,,,,
,,,,,,5c4214996ca3080001d3b4c1,62bbfaa823a8d8d9be746806,2022-06-29_09h10.10.672,Colour_Asymmetry_Pilot,2022.1.3,Win32,59.99520038,62bbe60bf3d75ef465d3e404,0,138,138,142,1,fourtwo,,,,,,,,,,,,,,,,,,,,,,,,,,,,,,,,,,,,,,,,,,,,,,,,,,,,,,,,,,,,,,,,,,,,,,,,,,,,,,,,,,,,,,,,,,,,,,,,,,,,,,,,,,,,,,,,,,,,,,,,,,,,,,,,,,,,,,,,,,,,,,,,,,,,,,,,
,,,,,,5c4214996ca3080001d3b4c1,62bbfaa823a8d8d9be746806,2022-06-29_09h10.10.672,Colour_Asymmetry_Pilot,2022.1.3,Win32,59.99520038,62bbe60bf3d75ef465d3e404,0,139,139,42,1,twoone,,,,,,,,,,,,,,,,,,,,,,,,,,,,,,,,,,,,,,,,,,,,,,,,,,,,,,,,,,,,,,,,,,,,,,,,,,,,,,,,,,,,,,,,,,,,,,,,,,,,,,,,,,,,,,,,,,,,,,,,,,,,,,,,,,,,,,,,,,,,,,,,,,,,,,,,
,,,,,,5c4214996ca3080001d3b4c1,62bbfaa823a8d8d9be746806,2022-06-29_09h10.10.672,Colour_Asymmetry_Pilot,2022.1.3,Win32,59.99520038,62bbe60bf3d75ef465d3e404,0,140,140,16,1,onetwo,,,,,,,,,,,,,,,,,,,,,,,,,,,,,,,,,,,,,,,,,,,,,,,,,,,,,,,,,,,,,,,,,,,,,,,,,,,,,,,,,,,,,,,,,,,,,,,,,,,,,,,,,,,,,,,,,,,,,,,,,,,,,,,,,,,,,,,,,,,,,,,,,,,,,,,,
,,,,,,5c4214996ca3080001d3b4c1,62bbfaa823a8d8d9be746806,2022-06-29_09h10.10.672,Colour_Asymmetry_Pilot,2022.1.3,Win32,59.99520038,62bbe60bf3d75ef465d3e404,0,141,141,5,1,threefour,,,,,,,,,,,,,,,,,,,,,,,,,,,,,,,,,,,,,,,,,,,,,,,,,,,,,,,,,,,,,,,,,,,,,,,,,,,,,,,,,,,,,,,,,,,,,,,,,,,,,,,,,,,,,,,,,,,,,,,,,,,,,,,,,,,,,,,,,,,,,,,,,,,,,,,,
,,,,,,5c4214996ca3080001d3b4c1,62bbfaa823a8d8d9be746806,2022-06-29_09h10.10.672,Colour_Asymmetry_Pilot,2022.1.3,Win32,59.99520038,62bbe60bf3d75ef465d3e404,0,142,142,87,1,fourthree,,,,,,,,,,,,,,,,,,,,,,,,,,,,,,,,,,,,,,,,,,,,,,,,,,,,,,,,,,,,,,,,,,,,,,,,,,,,,,,,,,,,,,,,,,,,,,,,,,,,,,,,,,,,,,,,,,,,,,,,,,,,,,,,,,,,,,,,,,,,,,,,,,,,,,,,
,,,,,,5c4214996ca3080001d3b4c1,62bbfaa823a8d8d9be746806,2022-06-29_09h10.10.672,Colour_Asymmetry_Pilot,2022.1.3,Win32,59.99520038,62bbe60bf3d75ef465d3e404,0,143,143,79,1,fourthree,,,,,,,,,,,,,,,,,,,,,,,,,,,,,,,,,,,,,,,,,,,,,,,,,,,,,,,,,,,,,,,,,,,,,,,,,,,,,,,,,,,,,,,,,,,,,,,,,,,,,,,,,,,,,,,,,,,,,,,,,,,,,,,,,,,,,,,,,,,,,,,,,,,,,,,,
,,,,,,5c4214996ca3080001d3b4c1,62bbfaa823a8d8d9be746806,2022-06-29_09h10.10.672,Colour_Asymmetry_Pilot,2022.1.3,Win32,59.99520038,62bbe60bf3d75ef465d3e404,0,144,144,86,1,fourtwo,,,,,,,,,,,,,,,,,,,,,,,,,,,,,,,,,,,,,,,,,,,,,,,,,,,,,,,,,,,,,,,,,,,,,,,,,,,,,,,,,,,,,,,,,,,,,,,,,,,,,,,,,,,,,,,,,,,,,,,,,,,,,,,,,,,,,,,,,,,,,,,,,,,,,,,,
,,,,,,5c4214996ca3080001d3b4c1,62bbfaa823a8d8d9be746806,2022-06-29_09h10.10.672,Colour_Asymmetry_Pilot,2022.1.3,Win32,59.99520038,62bbe60bf3d75ef465d3e404,0,145,145,135,1,fourthree,,,,,,,,,,,,,,,,,,,,,,,,,,,,,,,,,,,,,,,,,,,,,,,,,,,,,,,,,,,,,,,,,,,,,,,,,,,,,,,,,,,,,,,,,,,,,,,,,,,,,,,,,,,,,,,,,,,,,,,,,,,,,,,,,,,,,,,,,,,,,,,,,,,,,,,,
,,,,,,5c4214996ca3080001d3b4c1,62bbfaa823a8d8d9be746806,2022-06-29_09h10.10.672,Colour_Asymmetry_Pilot,2022.1.3,Win32,59.99520038,62bbe60bf3d75ef465d3e404,0,146,146,67,1,twofour,,,,,,,,,,,,,,,,,,,,,,,,,,,,,,,,,,,,,,,,,,,,,,,,,,,,,,,,,,,,,,,,,,,,,,,,,,,,,,,,,,,,,,,,,,,,,,,,,,,,,,,,,,,,,,,,,,,,,,,,,,,,,,,,,,,,,,,,,,,,,,,,,,,,,,,,
,,,,,,5c4214996ca3080001d3b4c1,62bbfaa823a8d8d9be746806,2022-06-29_09h10.10.672,Colour_Asymmetry_Pilot,2022.1.3,Win32,59.99520038,62bbe60bf3d75ef465d3e404,0,147,147,155,1,twofour,,,,,,,,,,,,,,,,,,,,,,,,,,,,,,,,,,,,,,,,,,,,,,,,,,,,,,,,,,,,,,,,,,,,,,,,,,,,,,,,,,,,,,,,,,,,,,,,,,,,,,,,,,,,,,,,,,,,,,,,,,,,,,,,,,,,,,,,,,,,,,,,,,,,,,,,
,,,,,,5c4214996ca3080001d3b4c1,62bbfaa823a8d8d9be746806,2022-06-29_09h10.10.672,Colour_Asymmetry_Pilot,2022.1.3,Win32,59.99520038,62bbe60bf3d75ef465d3e404,0,148,148,119,1,fourthree,,,,,,,,,,,,,,,,,,,,,,,,,,,,,,,,,,,,,,,,,,,,,,,,,,,,,,,,,,,,,,,,,,,,,,,,,,,,,,,,,,,,,,,,,,,,,,,,,,,,,,,,,,,,,,,,,,,,,,,,,,,,,,,,,,,,,,,,,,,,,,,,,,,,,,,,
,,,,,,5c4214996ca3080001d3b4c1,62bbfaa823a8d8d9be746806,2022-06-29_09h10.10.672,Colour_Asymmetry_Pilot,2022.1.3,Win32,59.99520038,62bbe60bf3d75ef465d3e404,0,149,149,125,1,threefour,,,,,,,,,,,,,,,,,,,,,,,,,,,,,,,,,,,,,,,,,,,,,,,,,,,,,,,,,,,,,,,,,,,,,,,,,,,,,,,,,,,,,,,,,,,,,,,,,,,,,,,,,,,,,,,,,,,,,,,,,,,,,,,,,,,,,,,,,,,,,,,,,,,,,,,,
,,,,,,5c4214996ca3080001d3b4c1,62bbfaa823a8d8d9be746806,2022-06-29_09h10.10.672,Colour_Asymmetry_Pilot,2022.1.3,Win32,59.99520038,62bbe60bf3d75ef465d3e404,0,150,150,158,1,fourtwo,,,,,,,,,,,,,,,,,,,,,,,,,,,,,,,,,,,,,,,,,,,,,,,,,,,,,,,,,,,,,,,,,,,,,,,,,,,,,,,,,,,,,,,,,,,,,,,,,,,,,,,,,,,,,,,,,,,,,,,,,,,,,,,,,,,,,,,,,,,,,,,,,,,,,,,,
,,,,,,5c4214996ca3080001d3b4c1,62bbfaa823a8d8d9be746806,2022-06-29_09h10.10.672,Colour_Asymmetry_Pilot,2022.1.3,Win32,59.99520038,62bbe60bf3d75ef465d3e404,0,151,151,136,1,onetwo,,,,,,,,,,,,,,,,,,,,,,,,,,,,,,,,,,,,,,,,,,,,,,,,,,,,,,,,,,,,,,,,,,,,,,,,,,,,,,,,,,,,,,,,,,,,,,,,,,,,,,,,,,,,,,,,,,,,,,,,,,,,,,,,,,,,,,,,,,,,,,,,,,,,,,,,
,,,,,,5c4214996ca3080001d3b4c1,62bbfaa823a8d8d9be746806,2022-06-29_09h10.10.672,Colour_Asymmetry_Pilot,2022.1.3,Win32,59.99520038,62bbe60bf3d75ef465d3e404,0,152,152,63,1,fourthree,,,,,,,,,,,,,,,,,,,,,,,,,,,,,,,,,,,,,,,,,,,,,,,,,,,,,,,,,,,,,,,,,,,,,,,,,,,,,,,,,,,,,,,,,,,,,,,,,,,,,,,,,,,,,,,,,,,,,,,,,,,,,,,,,,,,,,,,,,,,,,,,,,,,,,,,
,,,,,,5c4214996ca3080001d3b4c1,62bbfaa823a8d8d9be746806,2022-06-29_09h10.10.672,Colour_Asymmetry_Pilot,2022.1.3,Win32,59.99520038,62bbe60bf3d75ef465d3e404,0,153,153,38,1,fourtwo,,,,,,,,,,,,,,,,,,,,,,,,,,,,,,,,,,,,,,,,,,,,,,,,,,,,,,,,,,,,,,,,,,,,,,,,,,,,,,,,,,,,,,,,,,,,,,,,,,,,,,,,,,,,,,,,,,,,,,,,,,,,,,,,,,,,,,,,,,,,,,,,,,,,,,,,
,,,,,,5c4214996ca3080001d3b4c1,62bbfaa823a8d8d9be746806,2022-06-29_09h10.10.672,Colour_Asymmetry_Pilot,2022.1.3,Win32,59.99520038,62bbe60bf3d75ef465d3e404,0,154,154,85,1,threefour,,,,,,,,,,,,,,,,,,,,,,,,,,,,,,,,,,,,,,,,,,,,,,,,,,,,,,,,,,,,,,,,,,,,,,,,,,,,,,,,,,,,,,,,,,,,,,,,,,,,,,,,,,,,,,,,,,,,,,,,,,,,,,,,,,,,,,,,,,,,,,,,,,,,,,,,
,,,,,,5c4214996ca3080001d3b4c1,62bbfaa823a8d8d9be746806,2022-06-29_09h10.10.672,Colour_Asymmetry_Pilot,2022.1.3,Win32,59.99520038,62bbe60bf3d75ef465d3e404,0,155,155,154,1,twoone,,,,,,,,,,,,,,,,,,,,,,,,,,,,,,,,,,,,,,,,,,,,,,,,,,,,,,,,,,,,,,,,,,,,,,,,,,,,,,,,,,,,,,,,,,,,,,,,,,,,,,,,,,,,,,,,,,,,,,,,,,,,,,,,,,,,,,,,,,,,,,,,,,,,,,,,
,,,,,,5c4214996ca3080001d3b4c1,62bbfaa823a8d8d9be746806,2022-06-29_09h10.10.672,Colour_Asymmetry_Pilot,2022.1.3,Win32,59.99520038,62bbe60bf3d75ef465d3e404,0,156,156,60,1,threeone,,,,,,,,,,,,,,,,,,,,,,,,,,,,,,,,,,,,,,,,,,,,,,,,,,,,,,,,,,,,,,,,,,,,,,,,,,,,,,,,,,,,,,,,,,,,,,,,,,,,,,,,,,,,,,,,,,,,,,,,,,,,,,,,,,,,,,,,,,,,,,,,,,,,,,,,
,,,,,,5c4214996ca3080001d3b4c1,62bbfaa823a8d8d9be746806,2022-06-29_09h10.10.672,Colour_Asymmetry_Pilot,2022.1.3,Win32,59.99520038,62bbe60bf3d75ef465d3e404,0,157,157,112,1,onetwo,,,,,,,,,,,,,,,,,,,,,,,,,,,,,,,,,,,,,,,,,,,,,,,,,,,,,,,,,,,,,,,,,,,,,,,,,,,,,,,,,,,,,,,,,,,,,,,,,,,,,,,,,,,,,,,,,,,,,,,,,,,,,,,,,,,,,,,,,,,,,,,,,,,,,,,,
,,,,,,5c4214996ca3080001d3b4c1,62bbfaa823a8d8d9be746806,2022-06-29_09h10.10.672,Colour_Asymmetry_Pilot,2022.1.3,Win32,59.99520038,62bbe60bf3d75ef465d3e404,0,158,158,115,1,twofour,,,,,,,,,,,,,,,,,,,,,,,,,,,,,,,,,,,,,,,,,,,,,,,,,,,,,,,,,,,,,,,,,,,,,,,,,,,,,,,,,,,,,,,,,,,,,,,,,,,,,,,,,,,,,,,,,,,,,,,,,,,,,,,,,,,,,,,,,,,,,,,,,,,,,,,,
,,,,,,5c4214996ca3080001d3b4c1,62bbfaa823a8d8d9be746806,2022-06-29_09h10.10.672,Colour_Asymmetry_Pilot,2022.1.3,Win32,59.99520038,62bbe60bf3d75ef465d3e404,0,159,159,32,1,onetwo,,,,,,,,,,,,,,,,,,,,,,,,,,,,,,,,,,,,,,,,,,,,,,,,,,,,,,,,,,,,,,,,,,,,,,,,,,,,,,,,,,,,,,,,,,,,,,,,,,,,,,,,,,,,,,,,,,,,,,,,,,,,,,,,,,,,,,,,,,,,,,,,,,,,,,,,
,,,,,,5c4214996ca3080001d3b4c1,62bbfaa823a8d8d9be746806,2022-06-29_09h10.10.672,Colour_Asymmetry_Pilot,2022.1.3,Win32,59.99520038,62bbe60bf3d75ef465d3e404,0,160,160,107,1,twofour,,,,,,,,,,,,,,,,,,,,,,,,,,,,,,,,,,,,,,,,,,,,,,,,,,,,,,,,,,,,,,,,,,,,,,,,,,,,,,,,,,,,,,,,,,,,,,,,,,,,,,,,,,,,,,,,,,,,,,,,,,,,,,,,,,,,,,,,,,,,,,,,,,,,,,,,
,,,,,,5c4214996ca3080001d3b4c1,62bbfaa823a8d8d9be746806,2022-06-29_09h10.10.672,Colour_Asymmetry_Pilot,2022.1.3,Win32,59.99520038,62bbe60bf3d75ef465d3e404,0,161,161,62,1,fourtwo,,,,,,,,,,,,,,,,,,,,,,,,,,,,,,,,,,,,,,,,,,,,,,,,,,,,,,,,,,,,,,,,,,,,,,,,,,,,,,,,,,,,,,,,,,,,,,,,,,,,,,,,,,,,,,,,,,,,,,,,,,,,,,,,,,,,,,,,,,,,,,,,,,,,,,,,
,,,,,,5c4214996ca3080001d3b4c1,62bbfaa823a8d8d9be746806,2022-06-29_09h10.10.672,Colour_Asymmetry_Pilot,2022.1.3,Win32,59.99520038,62bbe60bf3d75ef465d3e404,,,,,,,space,2.7674,space,5.7914,space,75.9783,space,102.5734,space,4.9947,space,3.7881,"[-0.5688,-0.08239999999999992,-0.1844]",threefour,"[-0.09019999999999995,0.44300000000000006,0.5371999999999999]",2,10.2691,113.6000366,-51.20001221,1,0,0,response3disk_5,-0.799987793,2.399993896,1,0,0,rectangle_8,96,-56.80001831,1,0,0,response3disk_7,5,2,4,-9.600006104,1,0,0,rectangle_4,0,0,0,0,1,,,,,,,,,,,,,,,,,,,,,,,,,,,,,,,,,,,,,,,,,,,,,,,,,,,,,,,,,,,,,,,,,,,,,,,,,,,,,,,,,,,,,,,,,,,,,,,,,,,,,,,,
,,,,,,5c4214996ca3080001d3b4c1,62bbfaa823a8d8d9be746806,2022-06-29_09h10.10.672,Colour_Asymmetry_Pilot,2022.1.3,Win32,59.99520038,62bbe60bf3d75ef465d3e404,,,,,,,,,,,,,,,,,,,"[-0.9688,-0.4902000000000001,-0.12159999999999993]",twoone,"[-0.9844,-0.9688,-0.9922]",-2,3.9165,-109.5999756,-48.80001831,1,0,0,response5disk_5,11.20001221,3.199981689,1,0,0,rectangle_8,11.20001221,3.199981689,1,0,0,,,2,11.20001221,3.199981689,1,0,0,,1,0,1,0,1,,,,,,,,,,,,,,,,,,,,,,,,,,,,,,,,,,,,,,,,,,,,,,,,,,,,,,,,,,,,,,,,,,,,,,,,,,,,,,,,,,,,,,,,,,,,,,,,,,,,,,,,
,,,,,,5c4214996ca3080001d3b4c1,62bbfaa823a8d8d9be746806,2022-06-29_09h10.10.672,Colour_Asymmetry_Pilot,2022.1.3,Win32,59.99520038,62bbe60bf3d75ef465d3e404,,,,,,,,,,,,,,,,,,,"[0.8115999999999999,-0.0040000000000000036,-0.09819999999999995]",onethree,"[-0.38039999999999996,-0.4276,-0.1452]",-3,3.6035,-109.5999756,49.6000061,1,0,0,response7disk_5,-9.599975586,0,1,0,0,rectangle_8,-9.599975586,0,1,0,0,,,2,-9.599975586,0,1,0,0,,2,0,2,0,1,,,,,,,,,,,,,,,,,,,,,,,,,,,,,,,,,,,,,,,,,,,,,,,,,,,,,,,,,,,,,,,,,,,,,,,,,,,,,,,,,,,,,,,,,,,,,,,,,,,,,,,,
,,,,,,5c4214996ca3080001d3b4c1,62bbfaa823a8d8d9be746806,2022-06-29_09h10.10.672,Colour_Asymmetry_Pilot,2022.1.3,Win32,59.99520038,62bbe60bf3d75ef465d3e404,,,,,,,,,,,,,,,,,,,"[-0.5688,-0.08239999999999992,-0.1844]",fourthree,"[-0.6235999999999999,-0.6786,-0.08239999999999992]",3,3.1493,84,44,1,0,0,response1disk_5,17.60003662,-4.800018311,1,0,0,rectangle_8,81.60003662,-56,1,0,0,response3disk_7,5,2,2.400024414,-2.399993896,1,0,0,rectangle_4,3,0,3,0,1,,,,,,,,,,,,,,,,,,,,,,,,,,,,,,,,,,,,,,,,,,,,,,,,,,,,,,,,,,,,,,,,,,,,,,,,,,,,,,,,,,,,,,,,,,,,,,,,,,,,,,,,
,,,,,,5c4214996ca3080001d3b4c1,62bbfaa823a8d8d9be746806,2022-06-29_09h10.10.672,Colour_Asymmetry_Pilot,2022.1.3,Win32,59.99520038,62bbe60bf3d75ef465d3e404,,,,,,,,,,,,,,,,,,,"[-0.8118,-0.8198,-0.5452]",onetwo,"[-0.17659999999999998,-0.2864,-0.8354]",-4,3.0999,-77.59997559,97.6000061,1,0,0,response7disk_5,-8.799987793,-8.800018311,1,0,0,rectangle_8,-8.799987793,-8.800018311,1,0,0,,,2,-8.799987793,-8.800018311,1,0,0,,4,0,4,0,1,,,,,,,,,,,,,,,,,,,,,,,,,,,,,,,,,,,,,,,,,,,,,,,,,,,,,,,,,,,,,,,,,,,,,,,,,,,,,,,,,,,,,,,,,,,,,,,,,,,,,,,,
,,,,,,5c4214996ca3080001d3b4c1,62bbfaa823a8d8d9be746806,2022-06-29_09h10.10.672,Colour_Asymmetry_Pilot,2022.1.3,Win32,59.99520038,62bbe60bf3d75ef465d3e404,,,,,,,,,,,,,,,,,,,"[-0.050999999999999934,-0.6706000000000001,-0.804]",onetwo,"[-0.9138,-0.5296000000000001,-0.5529999999999999]",-4,2.6547,-52,88.79998779,1,0,0,response7disk_5,0.799987793,7.199981689,1,0,0,rectangle_8,0.799987793,7.199981689,1,0,0,,,2,0.799987793,7.199981689,1,0,0,,5,0,5,0,1,,,,,,,,,,,,,,,,,,,,,,,,,,,,,,,,,,,,,,,,,,,,,,,,,,,,,,,,,,,,,,,,,,,,,,,,,,,,,,,,,,,,,,,,,,,,,,,,,,,,,,,,
,,,,,,5c4214996ca3080001d3b4c1,62bbfaa823a8d8d9be746806,2022-06-29_09h10.10.672,Colour_Asymmetry_Pilot,2022.1.3,Win32,59.99520038,62bbe60bf3d75ef465d3e404,,,,,,,,,,,,,,,,,,,"[0.19199999999999995,0.18419999999999992,0.5136000000000001]",threefour,"[-0.24719999999999998,0.5213999999999999,-0.12959999999999994]",-2,5.582,-92,-52.80001831,1,0,0,response5disk_5,12,3.199981689,1,0,0,rectangle_8,12,3.199981689,1,0,0,,,2,12,3.199981689,1,0,0,,6,0,6,0,1,,,,,,,,,,,,,,,,,,,,,,,,,,,,,,,,,,,,,,,,,,,,,,,,,,,,,,,,,,,,,,,,,,,,,,,,,,,,,,,,,,,,,,,,,,,,,,,,,,,,,,,,
,,,,,,5c4214996ca3080001d3b4c1,62bbfaa823a8d8d9be746806,2022-06-29_09h10.10.672,Colour_Asymmetry_Pilot,2022.1.3,Win32,59.99520038,62bbe60bf3d75ef465d3e404,,,,,,,,,,,,,,,,,,,,twofour,,-3,2.8498,,,,,,,,,,,,,,,,,,,,,,,,,,,,,,,,space,4.6634,"[0.5449999999999999,-0.31000000000000005,-0.0354000000000001]","[0.2862,0.7802,0.3568]",-88.79998779,44,1,0,0,response7disk,1.600036621,-7.200012207,1,0,0,rectangle,1.600036621,-7.200012207,1,0,0,,2,0.0076,0,1.600036621,-7.200012207,1,0,0,0,0,0,77,1,77,first,,,,,,,,,,,,,,,,,,,,,,,,,,,,,,,,,,,,,,,,,,,,,,,,,,,,,,,,,,,,,,,,,,,
,,,,,,5c4214996ca3080001d3b4c1,62bbfaa823a8d8d9be746806,2022-06-29_09h10.10.672,Colour_Asymmetry_Pilot,2022.1.3,Win32,59.99520038,62bbe60bf3d75ef465d3e404,,,,,,,,,,,,,,,,,,,,onetwo,,-4,3.6067,,,,,,,,,,,,,,,,,,,,,,,,,,,,,,,,,,"[0.2862,0.7802,0.3568]","[0.34099999999999997,0.12939999999999996,-0.9766]",-71.20001221,108,1,0,0,response7disk,12.79998779,0.799987793,1,0,0,rectangle,12.79998779,0.799987793,1,0,0,,3,0.0053,0,12.79998779,0.799987793,1,0,0,0,1,1,157,1,76,second,,,,,,,,,,,,,,,,,,,,,,,,,,,,,,,,,,,,,,,,,,,,,,,,,,,,,,,,,,,,,,,,,,,
,,,,,,5c4214996ca3080001d3b4c1,62bbfaa823a8d8d9be746806,2022-06-29_09h10.10.672,Colour_Asymmetry_Pilot,2022.1.3,Win32,59.99520038,62bbe60bf3d75ef465d3e404,,,,,,,,,,,,,,,,,,,,threefour,,-4,2.6152,,,,,,,,,,,,,,,,,,,,,,,,,,,,,,,,,,"[0.34099999999999997,0.12939999999999996,-0.9766]","[0.2862,0.7802,0.3568]",-56,76.79998779,1,0,0,response7disk,-4.799987793,-10.3999939,1,0,0,rectangle,120,-72,1,0,0,2,2,2.1365,1,8.799987793,-5.600006104,1,0,0,0,2,2,76,1,76,first,response3disk_3,rectangle,,,,,,,,,,,,,,,,,,,,,,,,,,,,,,,,,,,,,,,,,,,,,,,,,,,,,,,,,,,,,,,,,
,,,,,,5c4214996ca3080001d3b4c1,62bbfaa823a8d8d9be746806,2022-06-29_09h10.10.672,Colour_Asymmetry_Pilot,2022.1.3,Win32,59.99520038,62bbe60bf3d75ef465d3e404,,,,,,,,,,,,,,,,,,,,twofour,,-2,1.1959,,,,,,,,,,,,,,,,,,,,,,,,,,,,,,,,,,"[-0.30200000000000005,0.14500000000000002,0.2784]","[0.4196,0.4665999999999999,0.3568]",-80.79998779,-54.3999939,1,0,0,response5disk,-14.39996338,-2.399993896,1,0,0,rectangle,-14.39996338,-2.399993896,1,0,0,2,3,0.0043,0,-14.39996338,-2.399993896,1,0,0,0,3,3,20,1,20,first,,,,,,,,,,,,,,,,,,,,,,,,,,,,,,,,,,,,,,,,,,,,,,,,,,,,,,,,,,,,,,,,,,,
,,,,,,5c4214996ca3080001d3b4c1,62bbfaa823a8d8d9be746806,2022-06-29_09h10.10.672,Colour_Asymmetry_Pilot,2022.1.3,Win32,59.99520038,62bbe60bf3d75ef465d3e404,,,,,,,,,,,,,,,,,,,,onetwo,,-2,2.4302,,,,,,,,,,,,,,,,,,,,,,,,,,,,,,,,,,"[0.7018,0.7176,0.6155999999999999]","[-0.6942,-0.7648,-0.12959999999999994]",-87.20001221,-64,1,0,0,response5disk,0,-2.399993896,1,0,0,rectangle,0,-2.399993896,1,0,0,2,3,0.0007,0,0,-2.399993896,1,0,0,0,4,4,127,1,46,second,,,,,,,,,,,,,,,,,,,,,,,,,,,,,,,,,,,,,,,,,,,,,,,,,,,,,,,,,,,,,,,,,,,
,,,,,,5c4214996ca3080001d3b4c1,62bbfaa823a8d8d9be746806,2022-06-29_09h10.10.672,Colour_Asymmetry_Pilot,2022.1.3,Win32,59.99520038,62bbe60bf3d75ef465d3e404,,,,,,,,,,,,,,,,,,,,onethree,,-4,1.3296,,,,,,,,,,,,,,,,,,,,,,,,,,,,,,,,,,"[-0.4668,-0.8746,-0.2942]","[0.6625999999999999,0.4980000000000002,-0.357]",-54.39996338,92.79998779,1,0,0,response7disk,16,2.399993896,1,0,0,rectangle,100.7999878,43.19998169,1,0,0,3,3,1.9618,1,-13.59997559,-8,1,0,0,0,5,5,159,1,78,second,response1disk_3,rectangle,,,,,,,,,,,,,,,,,,,,,,,,,,,,,,,,,,,,,,,,,,,,,,,,,,,,,,,,,,,,,,,,,
,,,,,,5c4214996ca3080001d3b4c1,62bbfaa823a8d8d9be746806,2022-06-29_09h10.10.672,Colour_Asymmetry_Pilot,2022.1.3,Win32,59.99520038,62bbe60bf3d75ef465d3e404,,,,,,,,,,,,,,,,,,,,onethree,,-3,1.5598,,,,,,,,,,,,,,,,,,,,,,,,,,,,,,,,,,"[0.12939999999999996,-0.2864,0.3253999999999999]","[-0.45899999999999996,-0.3256,-0.9374]",-104,57.6000061,1,0,0,response7disk,3.200012207,-5.600006104,1,0,0,rectangle,3.200012207,-5.600006104,1,0,0,3,3,0.002,0,3.200012207,-5.600006104,1,0,0,0,6,6,13,1,13,first,,,,,,,,,,,,,,,,,,,,,,,,,,,,,,,,,,,,,,,,,,,,,,,,,,,,,,,,,,,,,,,,,,,
,,,,,,5c4214996ca3080001d3b4c1,62bbfaa823a8d8d9be746806,2022-06-29_09h10.10.672,Colour_Asymmetry_Pilot,2022.1.3,Win32,59.99520038,62bbe60bf3d75ef465d3e404,,,,,,,,,,,,,,,,,,,,fourtwo,,2,2.6899,,,,,,,,,,,,,,,,,,,,,,,,,,,,,,,,,,"[-0.26280000000000003,-0.4746,-0.2158]","[-0.011800000000000033,-0.906,-0.45100000000000007]",95.20001221,-50.3999939,1,0,0,response3disk,1.600036621,4.799987793,1,0,0,rectangle,1.600036621,4.799987793,1,0,0,3,3,0.0005,0,1.600036621,4.799987793,1,0,0,0,7,7,21,1,21,first,,,,,,,,,,,,,,,,,,,,,,,,,,,,,,,,,,,,,,,,,,,,,,,,,,,,,,,,,,,,,,,,,,,
,,,,,,5c4214996ca3080001d3b4c1,62bbfaa823a8d8d9be746806,2022-06-29_09h10.10.672,Colour_Asymmetry_Pilot,2022.1.3,Win32,59.99520038,62bbe60bf3d75ef465d3e404,,,,,,,,,,,,,,,,,,,,threeone,,-3,1.5092,,,,,,,,,,,,,,,,,,,,,,,,,,,,,,,,,,"[0.40379999999999994,0.09000000000000008,0.44300000000000006]","[-0.9766,-0.34920000000000007,0.2156]",-83.20001221,38.3999939,1,0,0,response7disk,18.40002441,-2.399993896,1,0,0,rectangle,18.40002441,-2.399993896,1,0,0,3,1,0.0031,0,18.40002441,-2.399993896,1,0,0,0,8,8,154,1,73,second,,,,,,,,,,,,,,,,,,,,,,,,,,,,,,,,,,,,,,,,,,,,,,,,,,,,,,,,,,,,,,,,,,,
,,,,,,5c4214996ca3080001d3b4c1,62bbfaa823a8d8d9be746806,2022-06-29_09h10.10.672,Colour_Asymmetry_Pilot,2022.1.3,Win32,59.99520038,62bbe60bf3d75ef465d3e404,,,,,,,,,,,,,,,,,,,,threeone,,-2,1.4799,,,,,,,,,,,,,,,,,,,,,,,,,,,,,,,,,,"[0.7018,0.7176,0.6155999999999999]","[-0.45899999999999996,-0.3256,-0.9374]",-92,-50.3999939,1,0,0,response5disk,-4.799987793,-2.399993896,1,0,0,rectangle,-4.799987793,-2.399993896,1,0,0,3,1,0.0008,0,-4.799987793,-2.399993896,1,0,0,0,9,9,15,1,15,first,,,,,,,,,,,,,,,,,,,,,,,,,,,,,,,,,,,,,,,,,,,,,,,,,,,,,,,,,,,,,,,,,,,
,,,,,,5c4214996ca3080001d3b4c1,62bbfaa823a8d8d9be746806,2022-06-29_09h10.10.672,Colour_Asymmetry_Pilot,2022.1.3,Win32,59.99520038,62bbe60bf3d75ef465d3e404,,,,,,,,,,,,,,,,,,,,twoone,,-2,1.8835,,,,,,,,,,,,,,,,,,,,,,,,,,,,,,,,,,"[0.8115999999999999,-0.0040000000000000036,-0.09819999999999995]","[-0.26280000000000003,-0.4746,-0.2158]",-92.79998779,-52.80001831,1,0,0,response5disk,-11.20001221,-6.399993896,1,0,0,rectangle,-11.20001221,-6.399993896,1,0,0,3,3,0.0035,0,-11.20001221,-6.399993896,1,0,0,0,10,10,107,1,26,second,,,,,,,,,,,,,,,,,,,,,,,,,,,,,,,,,,,,,,,,,,,,,,,,,,,,,,,,,,,,,,,,,,,
,,,,,,5c4214996ca3080001d3b4c1,62bbfaa823a8d8d9be746806,2022-06-29_09h10.10.672,Colour_Asymmetry_Pilot,2022.1.3,Win32,59.99520038,62bbe60bf3d75ef465d3e404,,,,,,,,,,,,,,,,,,,,threefour,,2,1.89,,,,,,,,,,,,,,,,,,,,,,,,,,,,,,,,,,"[-0.9216,-0.5529999999999999,-0.3962]","[-0.24719999999999998,0.5213999999999999,-0.12959999999999994]",95.20001221,-40.80001831,1,0,0,response3disk,4,4.799987793,1,0,0,rectangle,4,4.799987793,1,0,0,3,1,0.0033,0,4,4.799987793,1,0,0,0,11,11,19,1,19,first,,,,,,,,,,,,,,,,,,,,,,,,,,,,,,,,,,,,,,,,,,,,,,,,,,,,,,,,,,,,,,,,,,,
,,,,,,5c4214996ca3080001d3b4c1,62bbfaa823a8d8d9be746806,2022-06-29_09h10.10.672,Colour_Asymmetry_Pilot,2022.1.3,Win32,59.99520038,62bbe60bf3d75ef465d3e404,,,,,,,,,,,,,,,,,,,,twoone,,3,1.0493,,,,,,,,,,,,,,,,,,,,,,,,,,,,,,,,,,"[-0.10599999999999998,-0.10599999999999998,0.5841999999999998]","[-0.5922000000000001,-0.7492000000000001,-0.5296000000000001]",94.40002441,53.6000061,1,0,0,response1disk,11.20001221,3.199981689,1,0,0,rectangle,11.20001221,3.199981689,1,0,0,3,2,0.0071,0,11.20001221,3.199981689,1,0,0,0,12,12,67,1,67,first,,,,,,,,,,,,,,,,,,,,,,,,,,,,,,,,,,,,,,,,,,,,,,,,,,,,,,,,,,,,,,,,,,,
,,,,,,5c4214996ca3080001d3b4c1,62bbfaa823a8d8d9be746806,2022-06-29_09h10.10.672,Colour_Asymmetry_Pilot,2022.1.3,Win32,59.99520038,62bbe60bf3d75ef465d3e404,,,,,,,,,,,,,,,,,,,,fourtwo,,3,0.782,,,,,,,,,,,,,,,,,,,,,,,,,,,,,,,,,,"[-0.10599999999999998,-0.15300000000000002,0.15280000000000005]","[-0.9766,-0.6472,0.07440000000000002]",85.60003662,48.79998779,1,0,0,response1disk,25.60003662,4.799987793,1,0,0,rectangle,25.60003662,4.799987793,1,0,0,3,2,0.0008,0,25.60003662,4.799987793,1,0,0,0,13,13,128,1,47,second,,,,,,,,,,,,,,,,,,,,,,,,,,,,,,,,,,,,,,,,,,,,,,,,,,,,,,,,,,,,,,,,,,,
,,,,,,5c4214996ca3080001d3b4c1,62bbfaa823a8d8d9be746806,2022-06-29_09h10.10.672,Colour_Asymmetry_Pilot,2022.1.3,Win32,59.99520038,62bbe60bf3d75ef465d3e404,,,,,,,,,,,,,,,,,,,,threeone,,4,1.0306,,,,,,,,,,,,,,,,,,,,,,,,,,,,,,,,,,"[-0.10599999999999998,-0.15300000000000002,0.15280000000000005]","[-0.26280000000000003,-0.4746,-0.2158]",40.79998779,90.3999939,1,0,0,response1disk,4,-8.800018311,1,0,0,rectangle,4,-8.800018311,1,0,0,3,2,0.0004,0,4,-8.800018311,1,0,0,0,14,14,116,1,35,second,,,,,,,,,,,,,,,,,,,,,,,,,,,,,,,,,,,,,,,,,,,,,,,,,,,,,,,,,,,,,,,,,,,
,,,,,,5c4214996ca3080001d3b4c1,62bbfaa823a8d8d9be746806,2022-06-29_09h10.10.672,Colour_Asymmetry_Pilot,2022.1.3,Win32,59.99520038,62bbe60bf3d75ef465d3e404,,,,,,,,,,,,,,,,,,,,twofour,,-1,1.7828,,,,,,,,,,,,,,,,,,,,,,,,,,,,,,,,,,"[-0.2942,-0.7648,-0.7492000000000001]","[-0.24719999999999998,-0.0354000000000001,0.3175999999999999]",-28,-105.6000366,1,0,0,response5disk,-8.799987793,-4,1,0,0,rectangle,-8.799987793,-4,1,0,0,3,3,0.0106,0,-8.799987793,-4,1,0,0,0,15,15,64,1,64,first,,,,,,,,,,,,,,,,,,,,,,,,,,,,,,,,,,,,,,,,,,,,,,,,,,,,,,,,,,,,,,,,,,,
,,,,,,5c4214996ca3080001d3b4c1,62bbfaa823a8d8d9be746806,2022-06-29_09h10.10.672,Colour_Asymmetry_Pilot,2022.1.3,Win32,59.99520038,62bbe60bf3d75ef465d3e404,,,,,,,,,,,,,,,,,,,,threeone,,-2,0.8509,,,,,,,,,,,,,,,,,,,,,,,,,,,,,,,,,,"[-0.5688,-0.08239999999999992,-0.1844]","[0.40379999999999994,0.09000000000000008,0.44300000000000006]",-93.59997559,-47.20001221,1,0,0,response5disk,-8.799987793,-4,1,0,0,rectangle,-8.799987793,-4,1,0,0,3,2,0.0035,0,-8.799987793,-4,1,0,0,0,16,16,114,1,33,second,,,,,,,,,,,,,,,,,,,,,,,,,,,,,,,,,,,,,,,,,,,,,,,,,,,,,,,,,,,,,,,,,,,
,,,,,,5c4214996ca3080001d3b4c1,62bbfaa823a8d8d9be746806,2022-06-29_09h10.10.672,Colour_Asymmetry_Pilot,2022.1.3,Win32,59.99520038,62bbe60bf3d75ef465d3e404,,,,,,,,,,,,,,,,,,,,onethree,,1,1.1989,,,,,,,,,,,,,,,,,,,,,,,,,,,,,,,,,,"[-0.9844,-0.9688,-0.9922]","[-0.4982,-0.2942,-0.0354000000000001]",41.60003662,-116.7999878,1,0,0,response3disk,-7.200012207,-2.399993896,1,0,0,rectangle,-7.200012207,-2.399993896,1,0,0,3,3,0.0045,0,-7.200012207,-2.399993896,1,0,0,0,17,17,106,1,25,second,,,,,,,,,,,,,,,,,,,,,,,,,,,,,,,,,,,,,,,,,,,,,,,,,,,,,,,,,,,,,,,,,,,
