trials.thisRepN,trials.thisTrialN,trials.thisN,trials.thisIndex,trials.ran,Colourcodes,participant,session,date,expName,psychopyVersion,OS,frameRate,study_id,trials_4.thisRepN,trials_4.thisTrialN,trials_4.thisN,trials_4.thisIndex,trials_4.ran,StimulusPos,key_resp.keys,key_resp.rt,key_resp_2.keys,key_resp_2.rt,key_resp_15.keys,key_resp_15.rt,key_resp_17.keys,key_resp_17.rt,key_resp_9.keys,key_resp_9.rt,key_resp_10.keys,key_resp_10.rt,Circle1_col,Ecc,Circle2_col,similarity,response_time,mouse_5.x,mouse_5.y,mouse_5.leftButton,mouse_5.midButton,mouse_5.rightButton,mouse_5.clicked_name,mouse_10.x,mouse_10.y,mouse_10.leftButton,mouse_10.midButton,mouse_10.rightButton,mouse_10.clicked_name,mouse_7.x,mouse_7.y,mouse_7.leftButton,mouse_7.midButton,mouse_7.rightButton,catchnumberprac,mouse_6.x,mouse_6.y,mouse_6.leftButton,mouse_6.midButton,mouse_6.rightButton,duringprac.thisRepN,duringprac.thisTrialN,duringprac.thisN,duringprac.thisIndex,duringprac.ran,mouse_7.clicked_name,catchprac,mouse_6.clicked_name,key_resp_22.keys,key_resp_22.rt,Circle1_colour,Circle2_colour,mouse.x,mouse.y,mouse.leftButton,mouse.midButton,mouse.rightButton,mouse.clicked_name,mouse_2.x,mouse_2.y,mouse_2.leftButton,mouse_2.midButton,mouse_2.rightButton,mouse_2.clicked_name,mouse_3.x,mouse_3.y,mouse_3.leftButton,mouse_3.midButton,mouse_3.rightButton,catchresponse,catchnumber,response_time_catch,Catch,mouse_11.x,mouse_11.y,mouse_11.leftButton,mouse_11.midButton,mouse_11.rightButton,trials_2.thisRepN,trials_2.thisTrialN,trials_2.thisN,trials_2.thisIndex,trials_2.ran,Colourpair,Temporder,mouse_3.clicked_name,mouse_11.clicked_name,trials_3.thisRepN,trials_3.thisTrialN,trials_3.thisN,trials_3.thisIndex,trials_3.ran,key_resp_instr_Ishi.keys,key_resp_instr_Ishi.rt,Ishi_trial_keyresp.keys,Ishi_trial_keyresp.rt,Ishi_textbox.text,Ishi_loop.thisRepN,Ishi_loop.thisTrialN,Ishi_loop.thisN,Ishi_loop.thisIndex,Ishi_loop.ran,imageaddress,textbox.text,mouse_4.x,mouse_4.y,mouse_4.leftButton,mouse_4.midButton,mouse_4.rightButton,mouse_4.clicked_name,textbox_2.text,mouse_8.x,mouse_8.y,mouse_8.leftButton,mouse_8.midButton,mouse_8.rightButton,mouse_8.clicked_name,textbox_3.text,mouse_9.x,mouse_9.y,mouse_9.leftButton,mouse_9.midButton,mouse_9.rightButton,mouse_9.clicked_name,textbox_4.text,mouse_12.x,mouse_12.y,mouse_12.leftButton,mouse_12.midButton,mouse_12.rightButton,mouse_12.clicked_name,textbox_5.text,mouse_13.x,mouse_13.y,mouse_13.leftButton,mouse_13.midButton,mouse_13.rightButton,mouse_13.clicked_name,textbox_6.text,mouse_14.x,mouse_14.y,mouse_14.leftButton,mouse_14.midButton,mouse_14.rightButton,mouse_14.clicked_name,textbox_7.text,mouse_15.x,mouse_15.y,mouse_15.leftButton,mouse_15.midButton,mouse_15.rightButton,mouse_15.clicked_name
0,0,0,13,1,,6161508f9ab3db3622471e87,62bbf9fbe61a9153e4d8e9c0,2022-06-29_10h06.58.408,Colour_Asymmetry_Pilot,2022.1.3,MacIntel,50,62bbe60bf3d75ef465d3e404,,,,,,,,,,,,,,,,,,,,,,,,,,,,,,,,,,,,,,,,,,,,,,,,,,,,,,,,,,,,,,,,,,,,,,,,,,,,,,,,,,,,,,,,,,,,,,,,,,,,,,,,,,,,,,,,,,,,,,,,,,,,,,,,,,,,,,,,,,,,,,,,,,,,,,,,,,,,,,
0,1,1,15,1,,6161508f9ab3db3622471e87,62bbf9fbe61a9153e4d8e9c0,2022-06-29_10h06.58.408,Colour_Asymmetry_Pilot,2022.1.3,MacIntel,50,62bbe60bf3d75ef465d3e404,,,,,,,,,,,,,,,,,,,,,,,,,,,,,,,,,,,,,,,,,,,,,,,,,,,,,,,,,,,,,,,,,,,,,,,,,,,,,,,,,,,,,,,,,,,,,,,,,,,,,,,,,,,,,,,,,,,,,,,,,,,,,,,,,,,,,,,,,,,,,,,,,,,,,,,,,,,,,,
0,2,2,86,1,,6161508f9ab3db3622471e87,62bbf9fbe61a9153e4d8e9c0,2022-06-29_10h06.58.408,Colour_Asymmetry_Pilot,2022.1.3,MacIntel,50,62bbe60bf3d75ef465d3e404,,,,,,,,,,,,,,,,,,,,,,,,,,,,,,,,,,,,,,,,,,,,,,,,,,,,,,,,,,,,,,,,,,,,,,,,,,,,,,,,,,,,,,,,,,,,,,,,,,,,,,,,,,,,,,,,,,,,,,,,,,,,,,,,,,,,,,,,,,,,,,,,,,,,,,,,,,,,,,
0,3,3,53,1,,6161508f9ab3db3622471e87,62bbf9fbe61a9153e4d8e9c0,2022-06-29_10h06.58.408,Colour_Asymmetry_Pilot,2022.1.3,MacIntel,50,62bbe60bf3d75ef465d3e404,,,,,,,,,,,,,,,,,,,,,,,,,,,,,,,,,,,,,,,,,,,,,,,,,,,,,,,,,,,,,,,,,,,,,,,,,,,,,,,,,,,,,,,,,,,,,,,,,,,,,,,,,,,,,,,,,,,,,,,,,,,,,,,,,,,,,,,,,,,,,,,,,,,,,,,,,,,,,,
0,4,4,37,1,,6161508f9ab3db3622471e87,62bbf9fbe61a9153e4d8e9c0,2022-06-29_10h06.58.408,Colour_Asymmetry_Pilot,2022.1.3,MacIntel,50,62bbe60bf3d75ef465d3e404,,,,,,,,,,,,,,,,,,,,,,,,,,,,,,,,,,,,,,,,,,,,,,,,,,,,,,,,,,,,,,,,,,,,,,,,,,,,,,,,,,,,,,,,,,,,,,,,,,,,,,,,,,,,,,,,,,,,,,,,,,,,,,,,,,,,,,,,,,,,,,,,,,,,,,,,,,,,,,
0,5,5,73,1,,6161508f9ab3db3622471e87,62bbf9fbe61a9153e4d8e9c0,2022-06-29_10h06.58.408,Colour_Asymmetry_Pilot,2022.1.3,MacIntel,50,62bbe60bf3d75ef465d3e404,,,,,,,,,,,,,,,,,,,,,,,,,,,,,,,,,,,,,,,,,,,,,,,,,,,,,,,,,,,,,,,,,,,,,,,,,,,,,,,,,,,,,,,,,,,,,,,,,,,,,,,,,,,,,,,,,,,,,,,,,,,,,,,,,,,,,,,,,,,,,,,,,,,,,,,,,,,,,,
0,6,6,30,1,,6161508f9ab3db3622471e87,62bbf9fbe61a9153e4d8e9c0,2022-06-29_10h06.58.408,Colour_Asymmetry_Pilot,2022.1.3,MacIntel,50,62bbe60bf3d75ef465d3e404,,,,,,,,,,,,,,,,,,,,,,,,,,,,,,,,,,,,,,,,,,,,,,,,,,,,,,,,,,,,,,,,,,,,,,,,,,,,,,,,,,,,,,,,,,,,,,,,,,,,,,,,,,,,,,,,,,,,,,,,,,,,,,,,,,,,,,,,,,,,,,,,,,,,,,,,,,,,,,
0,7,7,69,1,,6161508f9ab3db3622471e87,62bbf9fbe61a9153e4d8e9c0,2022-06-29_10h06.58.408,Colour_Asymmetry_Pilot,2022.1.3,MacIntel,50,62bbe60bf3d75ef465d3e404,,,,,,,,,,,,,,,,,,,,,,,,,,,,,,,,,,,,,,,,,,,,,,,,,,,,,,,,,,,,,,,,,,,,,,,,,,,,,,,,,,,,,,,,,,,,,,,,,,,,,,,,,,,,,,,,,,,,,,,,,,,,,,,,,,,,,,,,,,,,,,,,,,,,,,,,,,,,,,
0,8,8,62,1,,6161508f9ab3db3622471e87,62bbf9fbe61a9153e4d8e9c0,2022-06-29_10h06.58.408,Colour_Asymmetry_Pilot,2022.1.3,MacIntel,50,62bbe60bf3d75ef465d3e404,,,,,,,,,,,,,,,,,,,,,,,,,,,,,,,,,,,,,,,,,,,,,,,,,,,,,,,,,,,,,,,,,,,,,,,,,,,,,,,,,,,,,,,,,,,,,,,,,,,,,,,,,,,,,,,,,,,,,,,,,,,,,,,,,,,,,,,,,,,,,,,,,,,,,,,,,,,,,,
0,9,9,56,1,,6161508f9ab3db3622471e87,62bbf9fbe61a9153e4d8e9c0,2022-06-29_10h06.58.408,Colour_Asymmetry_Pilot,2022.1.3,MacIntel,50,62bbe60bf3d75ef465d3e404,,,,,,,,,,,,,,,,,,,,,,,,,,,,,,,,,,,,,,,,,,,,,,,,,,,,,,,,,,,,,,,,,,,,,,,,,,,,,,,,,,,,,,,,,,,,,,,,,,,,,,,,,,,,,,,,,,,,,,,,,,,,,,,,,,,,,,,,,,,,,,,,,,,,,,,,,,,,,,
0,10,10,32,1,,6161508f9ab3db3622471e87,62bbf9fbe61a9153e4d8e9c0,2022-06-29_10h06.58.408,Colour_Asymmetry_Pilot,2022.1.3,MacIntel,50,62bbe60bf3d75ef465d3e404,,,,,,,,,,,,,,,,,,,,,,,,,,,,,,,,,,,,,,,,,,,,,,,,,,,,,,,,,,,,,,,,,,,,,,,,,,,,,,,,,,,,,,,,,,,,,,,,,,,,,,,,,,,,,,,,,,,,,,,,,,,,,,,,,,,,,,,,,,,,,,,,,,,,,,,,,,,,,,
0,11,11,64,1,,6161508f9ab3db3622471e87,62bbf9fbe61a9153e4d8e9c0,2022-06-29_10h06.58.408,Colour_Asymmetry_Pilot,2022.1.3,MacIntel,50,62bbe60bf3d75ef465d3e404,,,,,,,,,,,,,,,,,,,,,,,,,,,,,,,,,,,,,,,,,,,,,,,,,,,,,,,,,,,,,,,,,,,,,,,,,,,,,,,,,,,,,,,,,,,,,,,,,,,,,,,,,,,,,,,,,,,,,,,,,,,,,,,,,,,,,,,,,,,,,,,,,,,,,,,,,,,,,,
0,12,12,34,1,,6161508f9ab3db3622471e87,62bbf9fbe61a9153e4d8e9c0,2022-06-29_10h06.58.408,Colour_Asymmetry_Pilot,2022.1.3,MacIntel,50,62bbe60bf3d75ef465d3e404,,,,,,,,,,,,,,,,,,,,,,,,,,,,,,,,,,,,,,,,,,,,,,,,,,,,,,,,,,,,,,,,,,,,,,,,,,,,,,,,,,,,,,,,,,,,,,,,,,,,,,,,,,,,,,,,,,,,,,,,,,,,,,,,,,,,,,,,,,,,,,,,,,,,,,,,,,,,,,
0,13,13,72,1,,6161508f9ab3db3622471e87,62bbf9fbe61a9153e4d8e9c0,2022-06-29_10h06.58.408,Colour_Asymmetry_Pilot,2022.1.3,MacIntel,50,62bbe60bf3d75ef465d3e404,,,,,,,,,,,,,,,,,,,,,,,,,,,,,,,,,,,,,,,,,,,,,,,,,,,,,,,,,,,,,,,,,,,,,,,,,,,,,,,,,,,,,,,,,,,,,,,,,,,,,,,,,,,,,,,,,,,,,,,,,,,,,,,,,,,,,,,,,,,,,,,,,,,,,,,,,,,,,,
0,14,14,5,1,,6161508f9ab3db3622471e87,62bbf9fbe61a9153e4d8e9c0,2022-06-29_10h06.58.408,Colour_Asymmetry_Pilot,2022.1.3,MacIntel,50,62bbe60bf3d75ef465d3e404,,,,,,,,,,,,,,,,,,,,,,,,,,,,,,,,,,,,,,,,,,,,,,,,,,,,,,,,,,,,,,,,,,,,,,,,,,,,,,,,,,,,,,,,,,,,,,,,,,,,,,,,,,,,,,,,,,,,,,,,,,,,,,,,,,,,,,,,,,,,,,,,,,,,,,,,,,,,,,
0,15,15,80,1,,6161508f9ab3db3622471e87,62bbf9fbe61a9153e4d8e9c0,2022-06-29_10h06.58.408,Colour_Asymmetry_Pilot,2022.1.3,MacIntel,50,62bbe60bf3d75ef465d3e404,,,,,,,,,,,,,,,,,,,,,,,,,,,,,,,,,,,,,,,,,,,,,,,,,,,,,,,,,,,,,,,,,,,,,,,,,,,,,,,,,,,,,,,,,,,,,,,,,,,,,,,,,,,,,,,,,,,,,,,,,,,,,,,,,,,,,,,,,,,,,,,,,,,,,,,,,,,,,,
0,16,16,49,1,,6161508f9ab3db3622471e87,62bbf9fbe61a9153e4d8e9c0,2022-06-29_10h06.58.408,Colour_Asymmetry_Pilot,2022.1.3,MacIntel,50,62bbe60bf3d75ef465d3e404,,,,,,,,,,,,,,,,,,,,,,,,,,,,,,,,,,,,,,,,,,,,,,,,,,,,,,,,,,,,,,,,,,,,,,,,,,,,,,,,,,,,,,,,,,,,,,,,,,,,,,,,,,,,,,,,,,,,,,,,,,,,,,,,,,,,,,,,,,,,,,,,,,,,,,,,,,,,,,
0,17,17,71,1,,6161508f9ab3db3622471e87,62bbf9fbe61a9153e4d8e9c0,2022-06-29_10h06.58.408,Colour_Asymmetry_Pilot,2022.1.3,MacIntel,50,62bbe60bf3d75ef465d3e404,,,,,,,,,,,,,,,,,,,,,,,,,,,,,,,,,,,,,,,,,,,,,,,,,,,,,,,,,,,,,,,,,,,,,,,,,,,,,,,,,,,,,,,,,,,,,,,,,,,,,,,,,,,,,,,,,,,,,,,,,,,,,,,,,,,,,,,,,,,,,,,,,,,,,,,,,,,,,,
0,18,18,46,1,,6161508f9ab3db3622471e87,62bbf9fbe61a9153e4d8e9c0,2022-06-29_10h06.58.408,Colour_Asymmetry_Pilot,2022.1.3,MacIntel,50,62bbe60bf3d75ef465d3e404,,,,,,,,,,,,,,,,,,,,,,,,,,,,,,,,,,,,,,,,,,,,,,,,,,,,,,,,,,,,,,,,,,,,,,,,,,,,,,,,,,,,,,,,,,,,,,,,,,,,,,,,,,,,,,,,,,,,,,,,,,,,,,,,,,,,,,,,,,,,,,,,,,,,,,,,,,,,,,
0,19,19,17,1,,6161508f9ab3db3622471e87,62bbf9fbe61a9153e4d8e9c0,2022-06-29_10h06.58.408,Colour_Asymmetry_Pilot,2022.1.3,MacIntel,50,62bbe60bf3d75ef465d3e404,,,,,,,,,,,,,,,,,,,,,,,,,,,,,,,,,,,,,,,,,,,,,,,,,,,,,,,,,,,,,,,,,,,,,,,,,,,,,,,,,,,,,,,,,,,,,,,,,,,,,,,,,,,,,,,,,,,,,,,,,,,,,,,,,,,,,,,,,,,,,,,,,,,,,,,,,,,,,,
0,20,20,42,1,,6161508f9ab3db3622471e87,62bbf9fbe61a9153e4d8e9c0,2022-06-29_10h06.58.408,Colour_Asymmetry_Pilot,2022.1.3,MacIntel,50,62bbe60bf3d75ef465d3e404,,,,,,,,,,,,,,,,,,,,,,,,,,,,,,,,,,,,,,,,,,,,,,,,,,,,,,,,,,,,,,,,,,,,,,,,,,,,,,,,,,,,,,,,,,,,,,,,,,,,,,,,,,,,,,,,,,,,,,,,,,,,,,,,,,,,,,,,,,,,,,,,,,,,,,,,,,,,,,
0,21,21,68,1,,6161508f9ab3db3622471e87,62bbf9fbe61a9153e4d8e9c0,2022-06-29_10h06.58.408,Colour_Asymmetry_Pilot,2022.1.3,MacIntel,50,62bbe60bf3d75ef465d3e404,,,,,,,,,,,,,,,,,,,,,,,,,,,,,,,,,,,,,,,,,,,,,,,,,,,,,,,,,,,,,,,,,,,,,,,,,,,,,,,,,,,,,,,,,,,,,,,,,,,,,,,,,,,,,,,,,,,,,,,,,,,,,,,,,,,,,,,,,,,,,,,,,,,,,,,,,,,,,,
0,22,22,63,1,,6161508f9ab3db3622471e87,62bbf9fbe61a9153e4d8e9c0,2022-06-29_10h06.58.408,Colour_Asymmetry_Pilot,2022.1.3,MacIntel,50,62bbe60bf3d75ef465d3e404,,,,,,,,,,,,,,,,,,,,,,,,,,,,,,,,,,,,,,,,,,,,,,,,,,,,,,,,,,,,,,,,,,,,,,,,,,,,,,,,,,,,,,,,,,,,,,,,,,,,,,,,,,,,,,,,,,,,,,,,,,,,,,,,,,,,,,,,,,,,,,,,,,,,,,,,,,,,,,
0,23,23,88,1,,6161508f9ab3db3622471e87,62bbf9fbe61a9153e4d8e9c0,2022-06-29_10h06.58.408,Colour_Asymmetry_Pilot,2022.1.3,MacIntel,50,62bbe60bf3d75ef465d3e404,,,,,,,,,,,,,,,,,,,,,,,,,,,,,,,,,,,,,,,,,,,,,,,,,,,,,,,,,,,,,,,,,,,,,,,,,,,,,,,,,,,,,,,,,,,,,,,,,,,,,,,,,,,,,,,,,,,,,,,,,,,,,,,,,,,,,,,,,,,,,,,,,,,,,,,,,,,,,,
0,24,24,85,1,,6161508f9ab3db3622471e87,62bbf9fbe61a9153e4d8e9c0,2022-06-29_10h06.58.408,Colour_Asymmetry_Pilot,2022.1.3,MacIntel,50,62bbe60bf3d75ef465d3e404,,,,,,,,,,,,,,,,,,,,,,,,,,,,,,,,,,,,,,,,,,,,,,,,,,,,,,,,,,,,,,,,,,,,,,,,,,,,,,,,,,,,,,,,,,,,,,,,,,,,,,,,,,,,,,,,,,,,,,,,,,,,,,,,,,,,,,,,,,,,,,,,,,,,,,,,,,,,,,
0,25,25,14,1,,6161508f9ab3db3622471e87,62bbf9fbe61a9153e4d8e9c0,2022-06-29_10h06.58.408,Colour_Asymmetry_Pilot,2022.1.3,MacIntel,50,62bbe60bf3d75ef465d3e404,,,,,,,,,,,,,,,,,,,,,,,,,,,,,,,,,,,,,,,,,,,,,,,,,,,,,,,,,,,,,,,,,,,,,,,,,,,,,,,,,,,,,,,,,,,,,,,,,,,,,,,,,,,,,,,,,,,,,,,,,,,,,,,,,,,,,,,,,,,,,,,,,,,,,,,,,,,,,,
0,26,26,87,1,,6161508f9ab3db3622471e87,62bbf9fbe61a9153e4d8e9c0,2022-06-29_10h06.58.408,Colour_Asymmetry_Pilot,2022.1.3,MacIntel,50,62bbe60bf3d75ef465d3e404,,,,,,,,,,,,,,,,,,,,,,,,,,,,,,,,,,,,,,,,,,,,,,,,,,,,,,,,,,,,,,,,,,,,,,,,,,,,,,,,,,,,,,,,,,,,,,,,,,,,,,,,,,,,,,,,,,,,,,,,,,,,,,,,,,,,,,,,,,,,,,,,,,,,,,,,,,,,,,
0,27,27,74,1,,6161508f9ab3db3622471e87,62bbf9fbe61a9153e4d8e9c0,2022-06-29_10h06.58.408,Colour_Asymmetry_Pilot,2022.1.3,MacIntel,50,62bbe60bf3d75ef465d3e404,,,,,,,,,,,,,,,,,,,,,,,,,,,,,,,,,,,,,,,,,,,,,,,,,,,,,,,,,,,,,,,,,,,,,,,,,,,,,,,,,,,,,,,,,,,,,,,,,,,,,,,,,,,,,,,,,,,,,,,,,,,,,,,,,,,,,,,,,,,,,,,,,,,,,,,,,,,,,,
0,28,28,11,1,,6161508f9ab3db3622471e87,62bbf9fbe61a9153e4d8e9c0,2022-06-29_10h06.58.408,Colour_Asymmetry_Pilot,2022.1.3,MacIntel,50,62bbe60bf3d75ef465d3e404,,,,,,,,,,,,,,,,,,,,,,,,,,,,,,,,,,,,,,,,,,,,,,,,,,,,,,,,,,,,,,,,,,,,,,,,,,,,,,,,,,,,,,,,,,,,,,,,,,,,,,,,,,,,,,,,,,,,,,,,,,,,,,,,,,,,,,,,,,,,,,,,,,,,,,,,,,,,,,
0,29,29,19,1,,6161508f9ab3db3622471e87,62bbf9fbe61a9153e4d8e9c0,2022-06-29_10h06.58.408,Colour_Asymmetry_Pilot,2022.1.3,MacIntel,50,62bbe60bf3d75ef465d3e404,,,,,,,,,,,,,,,,,,,,,,,,,,,,,,,,,,,,,,,,,,,,,,,,,,,,,,,,,,,,,,,,,,,,,,,,,,,,,,,,,,,,,,,,,,,,,,,,,,,,,,,,,,,,,,,,,,,,,,,,,,,,,,,,,,,,,,,,,,,,,,,,,,,,,,,,,,,,,,
0,30,30,50,1,,6161508f9ab3db3622471e87,62bbf9fbe61a9153e4d8e9c0,2022-06-29_10h06.58.408,Colour_Asymmetry_Pilot,2022.1.3,MacIntel,50,62bbe60bf3d75ef465d3e404,,,,,,,,,,,,,,,,,,,,,,,,,,,,,,,,,,,,,,,,,,,,,,,,,,,,,,,,,,,,,,,,,,,,,,,,,,,,,,,,,,,,,,,,,,,,,,,,,,,,,,,,,,,,,,,,,,,,,,,,,,,,,,,,,,,,,,,,,,,,,,,,,,,,,,,,,,,,,,
0,31,31,75,1,,6161508f9ab3db3622471e87,62bbf9fbe61a9153e4d8e9c0,2022-06-29_10h06.58.408,Colour_Asymmetry_Pilot,2022.1.3,MacIntel,50,62bbe60bf3d75ef465d3e404,,,,,,,,,,,,,,,,,,,,,,,,,,,,,,,,,,,,,,,,,,,,,,,,,,,,,,,,,,,,,,,,,,,,,,,,,,,,,,,,,,,,,,,,,,,,,,,,,,,,,,,,,,,,,,,,,,,,,,,,,,,,,,,,,,,,,,,,,,,,,,,,,,,,,,,,,,,,,,
0,32,32,77,1,,6161508f9ab3db3622471e87,62bbf9fbe61a9153e4d8e9c0,2022-06-29_10h06.58.408,Colour_Asymmetry_Pilot,2022.1.3,MacIntel,50,62bbe60bf3d75ef465d3e404,,,,,,,,,,,,,,,,,,,,,,,,,,,,,,,,,,,,,,,,,,,,,,,,,,,,,,,,,,,,,,,,,,,,,,,,,,,,,,,,,,,,,,,,,,,,,,,,,,,,,,,,,,,,,,,,,,,,,,,,,,,,,,,,,,,,,,,,,,,,,,,,,,,,,,,,,,,,,,
0,33,33,60,1,,6161508f9ab3db3622471e87,62bbf9fbe61a9153e4d8e9c0,2022-06-29_10h06.58.408,Colour_Asymmetry_Pilot,2022.1.3,MacIntel,50,62bbe60bf3d75ef465d3e404,,,,,,,,,,,,,,,,,,,,,,,,,,,,,,,,,,,,,,,,,,,,,,,,,,,,,,,,,,,,,,,,,,,,,,,,,,,,,,,,,,,,,,,,,,,,,,,,,,,,,,,,,,,,,,,,,,,,,,,,,,,,,,,,,,,,,,,,,,,,,,,,,,,,,,,,,,,,,,
0,34,34,90,1,,6161508f9ab3db3622471e87,62bbf9fbe61a9153e4d8e9c0,2022-06-29_10h06.58.408,Colour_Asymmetry_Pilot,2022.1.3,MacIntel,50,62bbe60bf3d75ef465d3e404,,,,,,,,,,,,,,,,,,,,,,,,,,,,,,,,,,,,,,,,,,,,,,,,,,,,,,,,,,,,,,,,,,,,,,,,,,,,,,,,,,,,,,,,,,,,,,,,,,,,,,,,,,,,,,,,,,,,,,,,,,,,,,,,,,,,,,,,,,,,,,,,,,,,,,,,,,,,,,
0,35,35,39,1,,6161508f9ab3db3622471e87,62bbf9fbe61a9153e4d8e9c0,2022-06-29_10h06.58.408,Colour_Asymmetry_Pilot,2022.1.3,MacIntel,50,62bbe60bf3d75ef465d3e404,,,,,,,,,,,,,,,,,,,,,,,,,,,,,,,,,,,,,,,,,,,,,,,,,,,,,,,,,,,,,,,,,,,,,,,,,,,,,,,,,,,,,,,,,,,,,,,,,,,,,,,,,,,,,,,,,,,,,,,,,,,,,,,,,,,,,,,,,,,,,,,,,,,,,,,,,,,,,,
0,36,36,10,1,,6161508f9ab3db3622471e87,62bbf9fbe61a9153e4d8e9c0,2022-06-29_10h06.58.408,Colour_Asymmetry_Pilot,2022.1.3,MacIntel,50,62bbe60bf3d75ef465d3e404,,,,,,,,,,,,,,,,,,,,,,,,,,,,,,,,,,,,,,,,,,,,,,,,,,,,,,,,,,,,,,,,,,,,,,,,,,,,,,,,,,,,,,,,,,,,,,,,,,,,,,,,,,,,,,,,,,,,,,,,,,,,,,,,,,,,,,,,,,,,,,,,,,,,,,,,,,,,,,
0,37,37,81,1,,6161508f9ab3db3622471e87,62bbf9fbe61a9153e4d8e9c0,2022-06-29_10h06.58.408,Colour_Asymmetry_Pilot,2022.1.3,MacIntel,50,62bbe60bf3d75ef465d3e404,,,,,,,,,,,,,,,,,,,,,,,,,,,,,,,,,,,,,,,,,,,,,,,,,,,,,,,,,,,,,,,,,,,,,,,,,,,,,,,,,,,,,,,,,,,,,,,,,,,,,,,,,,,,,,,,,,,,,,,,,,,,,,,,,,,,,,,,,,,,,,,,,,,,,,,,,,,,,,
0,38,38,21,1,,6161508f9ab3db3622471e87,62bbf9fbe61a9153e4d8e9c0,2022-06-29_10h06.58.408,Colour_Asymmetry_Pilot,2022.1.3,MacIntel,50,62bbe60bf3d75ef465d3e404,,,,,,,,,,,,,,,,,,,,,,,,,,,,,,,,,,,,,,,,,,,,,,,,,,,,,,,,,,,,,,,,,,,,,,,,,,,,,,,,,,,,,,,,,,,,,,,,,,,,,,,,,,,,,,,,,,,,,,,,,,,,,,,,,,,,,,,,,,,,,,,,,,,,,,,,,,,,,,
0,39,39,41,1,,6161508f9ab3db3622471e87,62bbf9fbe61a9153e4d8e9c0,2022-06-29_10h06.58.408,Colour_Asymmetry_Pilot,2022.1.3,MacIntel,50,62bbe60bf3d75ef465d3e404,,,,,,,,,,,,,,,,,,,,,,,,,,,,,,,,,,,,,,,,,,,,,,,,,,,,,,,,,,,,,,,,,,,,,,,,,,,,,,,,,,,,,,,,,,,,,,,,,,,,,,,,,,,,,,,,,,,,,,,,,,,,,,,,,,,,,,,,,,,,,,,,,,,,,,,,,,,,,,
0,40,40,55,1,,6161508f9ab3db3622471e87,62bbf9fbe61a9153e4d8e9c0,2022-06-29_10h06.58.408,Colour_Asymmetry_Pilot,2022.1.3,MacIntel,50,62bbe60bf3d75ef465d3e404,,,,,,,,,,,,,,,,,,,,,,,,,,,,,,,,,,,,,,,,,,,,,,,,,,,,,,,,,,,,,,,,,,,,,,,,,,,,,,,,,,,,,,,,,,,,,,,,,,,,,,,,,,,,,,,,,,,,,,,,,,,,,,,,,,,,,,,,,,,,,,,,,,,,,,,,,,,,,,
0,41,41,45,1,,6161508f9ab3db3622471e87,62bbf9fbe61a9153e4d8e9c0,2022-06-29_10h06.58.408,Colour_Asymmetry_Pilot,2022.1.3,MacIntel,50,62bbe60bf3d75ef465d3e404,,,,,,,,,,,,,,,,,,,,,,,,,,,,,,,,,,,,,,,,,,,,,,,,,,,,,,,,,,,,,,,,,,,,,,,,,,,,,,,,,,,,,,,,,,,,,,,,,,,,,,,,,,,,,,,,,,,,,,,,,,,,,,,,,,,,,,,,,,,,,,,,,,,,,,,,,,,,,,
0,42,42,3,1,,6161508f9ab3db3622471e87,62bbf9fbe61a9153e4d8e9c0,2022-06-29_10h06.58.408,Colour_Asymmetry_Pilot,2022.1.3,MacIntel,50,62bbe60bf3d75ef465d3e404,,,,,,,,,,,,,,,,,,,,,,,,,,,,,,,,,,,,,,,,,,,,,,,,,,,,,,,,,,,,,,,,,,,,,,,,,,,,,,,,,,,,,,,,,,,,,,,,,,,,,,,,,,,,,,,,,,,,,,,,,,,,,,,,,,,,,,,,,,,,,,,,,,,,,,,,,,,,,,
0,43,43,44,1,,6161508f9ab3db3622471e87,62bbf9fbe61a9153e4d8e9c0,2022-06-29_10h06.58.408,Colour_Asymmetry_Pilot,2022.1.3,MacIntel,50,62bbe60bf3d75ef465d3e404,,,,,,,,,,,,,,,,,,,,,,,,,,,,,,,,,,,,,,,,,,,,,,,,,,,,,,,,,,,,,,,,,,,,,,,,,,,,,,,,,,,,,,,,,,,,,,,,,,,,,,,,,,,,,,,,,,,,,,,,,,,,,,,,,,,,,,,,,,,,,,,,,,,,,,,,,,,,,,
0,44,44,12,1,,6161508f9ab3db3622471e87,62bbf9fbe61a9153e4d8e9c0,2022-06-29_10h06.58.408,Colour_Asymmetry_Pilot,2022.1.3,MacIntel,50,62bbe60bf3d75ef465d3e404,,,,,,,,,,,,,,,,,,,,,,,,,,,,,,,,,,,,,,,,,,,,,,,,,,,,,,,,,,,,,,,,,,,,,,,,,,,,,,,,,,,,,,,,,,,,,,,,,,,,,,,,,,,,,,,,,,,,,,,,,,,,,,,,,,,,,,,,,,,,,,,,,,,,,,,,,,,,,,
0,45,45,22,1,,6161508f9ab3db3622471e87,62bbf9fbe61a9153e4d8e9c0,2022-06-29_10h06.58.408,Colour_Asymmetry_Pilot,2022.1.3,MacIntel,50,62bbe60bf3d75ef465d3e404,,,,,,,,,,,,,,,,,,,,,,,,,,,,,,,,,,,,,,,,,,,,,,,,,,,,,,,,,,,,,,,,,,,,,,,,,,,,,,,,,,,,,,,,,,,,,,,,,,,,,,,,,,,,,,,,,,,,,,,,,,,,,,,,,,,,,,,,,,,,,,,,,,,,,,,,,,,,,,
0,46,46,84,1,,6161508f9ab3db3622471e87,62bbf9fbe61a9153e4d8e9c0,2022-06-29_10h06.58.408,Colour_Asymmetry_Pilot,2022.1.3,MacIntel,50,62bbe60bf3d75ef465d3e404,,,,,,,,,,,,,,,,,,,,,,,,,,,,,,,,,,,,,,,,,,,,,,,,,,,,,,,,,,,,,,,,,,,,,,,,,,,,,,,,,,,,,,,,,,,,,,,,,,,,,,,,,,,,,,,,,,,,,,,,,,,,,,,,,,,,,,,,,,,,,,,,,,,,,,,,,,,,,,
0,47,47,83,1,,6161508f9ab3db3622471e87,62bbf9fbe61a9153e4d8e9c0,2022-06-29_10h06.58.408,Colour_Asymmetry_Pilot,2022.1.3,MacIntel,50,62bbe60bf3d75ef465d3e404,,,,,,,,,,,,,,,,,,,,,,,,,,,,,,,,,,,,,,,,,,,,,,,,,,,,,,,,,,,,,,,,,,,,,,,,,,,,,,,,,,,,,,,,,,,,,,,,,,,,,,,,,,,,,,,,,,,,,,,,,,,,,,,,,,,,,,,,,,,,,,,,,,,,,,,,,,,,,,
0,48,48,51,1,,6161508f9ab3db3622471e87,62bbf9fbe61a9153e4d8e9c0,2022-06-29_10h06.58.408,Colour_Asymmetry_Pilot,2022.1.3,MacIntel,50,62bbe60bf3d75ef465d3e404,,,,,,,,,,,,,,,,,,,,,,,,,,,,,,,,,,,,,,,,,,,,,,,,,,,,,,,,,,,,,,,,,,,,,,,,,,,,,,,,,,,,,,,,,,,,,,,,,,,,,,,,,,,,,,,,,,,,,,,,,,,,,,,,,,,,,,,,,,,,,,,,,,,,,,,,,,,,,,
0,49,49,43,1,,6161508f9ab3db3622471e87,62bbf9fbe61a9153e4d8e9c0,2022-06-29_10h06.58.408,Colour_Asymmetry_Pilot,2022.1.3,MacIntel,50,62bbe60bf3d75ef465d3e404,,,,,,,,,,,,,,,,,,,,,,,,,,,,,,,,,,,,,,,,,,,,,,,,,,,,,,,,,,,,,,,,,,,,,,,,,,,,,,,,,,,,,,,,,,,,,,,,,,,,,,,,,,,,,,,,,,,,,,,,,,,,,,,,,,,,,,,,,,,,,,,,,,,,,,,,,,,,,,
0,50,50,31,1,,6161508f9ab3db3622471e87,62bbf9fbe61a9153e4d8e9c0,2022-06-29_10h06.58.408,Colour_Asymmetry_Pilot,2022.1.3,MacIntel,50,62bbe60bf3d75ef465d3e404,,,,,,,,,,,,,,,,,,,,,,,,,,,,,,,,,,,,,,,,,,,,,,,,,,,,,,,,,,,,,,,,,,,,,,,,,,,,,,,,,,,,,,,,,,,,,,,,,,,,,,,,,,,,,,,,,,,,,,,,,,,,,,,,,,,,,,,,,,,,,,,,,,,,,,,,,,,,,,
0,51,51,7,1,,6161508f9ab3db3622471e87,62bbf9fbe61a9153e4d8e9c0,2022-06-29_10h06.58.408,Colour_Asymmetry_Pilot,2022.1.3,MacIntel,50,62bbe60bf3d75ef465d3e404,,,,,,,,,,,,,,,,,,,,,,,,,,,,,,,,,,,,,,,,,,,,,,,,,,,,,,,,,,,,,,,,,,,,,,,,,,,,,,,,,,,,,,,,,,,,,,,,,,,,,,,,,,,,,,,,,,,,,,,,,,,,,,,,,,,,,,,,,,,,,,,,,,,,,,,,,,,,,,
0,52,52,9,1,,6161508f9ab3db3622471e87,62bbf9fbe61a9153e4d8e9c0,2022-06-29_10h06.58.408,Colour_Asymmetry_Pilot,2022.1.3,MacIntel,50,62bbe60bf3d75ef465d3e404,,,,,,,,,,,,,,,,,,,,,,,,,,,,,,,,,,,,,,,,,,,,,,,,,,,,,,,,,,,,,,,,,,,,,,,,,,,,,,,,,,,,,,,,,,,,,,,,,,,,,,,,,,,,,,,,,,,,,,,,,,,,,,,,,,,,,,,,,,,,,,,,,,,,,,,,,,,,,,
0,53,53,58,1,,6161508f9ab3db3622471e87,62bbf9fbe61a9153e4d8e9c0,2022-06-29_10h06.58.408,Colour_Asymmetry_Pilot,2022.1.3,MacIntel,50,62bbe60bf3d75ef465d3e404,,,,,,,,,,,,,,,,,,,,,,,,,,,,,,,,,,,,,,,,,,,,,,,,,,,,,,,,,,,,,,,,,,,,,,,,,,,,,,,,,,,,,,,,,,,,,,,,,,,,,,,,,,,,,,,,,,,,,,,,,,,,,,,,,,,,,,,,,,,,,,,,,,,,,,,,,,,,,,
0,54,54,52,1,,6161508f9ab3db3622471e87,62bbf9fbe61a9153e4d8e9c0,2022-06-29_10h06.58.408,Colour_Asymmetry_Pilot,2022.1.3,MacIntel,50,62bbe60bf3d75ef465d3e404,,,,,,,,,,,,,,,,,,,,,,,,,,,,,,,,,,,,,,,,,,,,,,,,,,,,,,,,,,,,,,,,,,,,,,,,,,,,,,,,,,,,,,,,,,,,,,,,,,,,,,,,,,,,,,,,,,,,,,,,,,,,,,,,,,,,,,,,,,,,,,,,,,,,,,,,,,,,,,
0,55,55,79,1,,6161508f9ab3db3622471e87,62bbf9fbe61a9153e4d8e9c0,2022-06-29_10h06.58.408,Colour_Asymmetry_Pilot,2022.1.3,MacIntel,50,62bbe60bf3d75ef465d3e404,,,,,,,,,,,,,,,,,,,,,,,,,,,,,,,,,,,,,,,,,,,,,,,,,,,,,,,,,,,,,,,,,,,,,,,,,,,,,,,,,,,,,,,,,,,,,,,,,,,,,,,,,,,,,,,,,,,,,,,,,,,,,,,,,,,,,,,,,,,,,,,,,,,,,,,,,,,,,,
0,56,56,6,1,,6161508f9ab3db3622471e87,62bbf9fbe61a9153e4d8e9c0,2022-06-29_10h06.58.408,Colour_Asymmetry_Pilot,2022.1.3,MacIntel,50,62bbe60bf3d75ef465d3e404,,,,,,,,,,,,,,,,,,,,,,,,,,,,,,,,,,,,,,,,,,,,,,,,,,,,,,,,,,,,,,,,,,,,,,,,,,,,,,,,,,,,,,,,,,,,,,,,,,,,,,,,,,,,,,,,,,,,,,,,,,,,,,,,,,,,,,,,,,,,,,,,,,,,,,,,,,,,,,
0,57,57,0,1,,6161508f9ab3db3622471e87,62bbf9fbe61a9153e4d8e9c0,2022-06-29_10h06.58.408,Colour_Asymmetry_Pilot,2022.1.3,MacIntel,50,62bbe60bf3d75ef465d3e404,,,,,,,,,,,,,,,,,,,,,,,,,,,,,,,,,,,,,,,,,,,,,,,,,,,,,,,,,,,,,,,,,,,,,,,,,,,,,,,,,,,,,,,,,,,,,,,,,,,,,,,,,,,,,,,,,,,,,,,,,,,,,,,,,,,,,,,,,,,,,,,,,,,,,,,,,,,,,,
0,58,58,2,1,,6161508f9ab3db3622471e87,62bbf9fbe61a9153e4d8e9c0,2022-06-29_10h06.58.408,Colour_Asymmetry_Pilot,2022.1.3,MacIntel,50,62bbe60bf3d75ef465d3e404,,,,,,,,,,,,,,,,,,,,,,,,,,,,,,,,,,,,,,,,,,,,,,,,,,,,,,,,,,,,,,,,,,,,,,,,,,,,,,,,,,,,,,,,,,,,,,,,,,,,,,,,,,,,,,,,,,,,,,,,,,,,,,,,,,,,,,,,,,,,,,,,,,,,,,,,,,,,,,
0,59,59,91,1,,6161508f9ab3db3622471e87,62bbf9fbe61a9153e4d8e9c0,2022-06-29_10h06.58.408,Colour_Asymmetry_Pilot,2022.1.3,MacIntel,50,62bbe60bf3d75ef465d3e404,,,,,,,,,,,,,,,,,,,,,,,,,,,,,,,,,,,,,,,,,,,,,,,,,,,,,,,,,,,,,,,,,,,,,,,,,,,,,,,,,,,,,,,,,,,,,,,,,,,,,,,,,,,,,,,,,,,,,,,,,,,,,,,,,,,,,,,,,,,,,,,,,,,,,,,,,,,,,,
0,60,60,36,1,,6161508f9ab3db3622471e87,62bbf9fbe61a9153e4d8e9c0,2022-06-29_10h06.58.408,Colour_Asymmetry_Pilot,2022.1.3,MacIntel,50,62bbe60bf3d75ef465d3e404,,,,,,,,,,,,,,,,,,,,,,,,,,,,,,,,,,,,,,,,,,,,,,,,,,,,,,,,,,,,,,,,,,,,,,,,,,,,,,,,,,,,,,,,,,,,,,,,,,,,,,,,,,,,,,,,,,,,,,,,,,,,,,,,,,,,,,,,,,,,,,,,,,,,,,,,,,,,,,
0,61,61,1,1,,6161508f9ab3db3622471e87,62bbf9fbe61a9153e4d8e9c0,2022-06-29_10h06.58.408,Colour_Asymmetry_Pilot,2022.1.3,MacIntel,50,62bbe60bf3d75ef465d3e404,,,,,,,,,,,,,,,,,,,,,,,,,,,,,,,,,,,,,,,,,,,,,,,,,,,,,,,,,,,,,,,,,,,,,,,,,,,,,,,,,,,,,,,,,,,,,,,,,,,,,,,,,,,,,,,,,,,,,,,,,,,,,,,,,,,,,,,,,,,,,,,,,,,,,,,,,,,,,,
0,62,62,47,1,,6161508f9ab3db3622471e87,62bbf9fbe61a9153e4d8e9c0,2022-06-29_10h06.58.408,Colour_Asymmetry_Pilot,2022.1.3,MacIntel,50,62bbe60bf3d75ef465d3e404,,,,,,,,,,,,,,,,,,,,,,,,,,,,,,,,,,,,,,,,,,,,,,,,,,,,,,,,,,,,,,,,,,,,,,,,,,,,,,,,,,,,,,,,,,,,,,,,,,,,,,,,,,,,,,,,,,,,,,,,,,,,,,,,,,,,,,,,,,,,,,,,,,,,,,,,,,,,,,
0,63,63,65,1,,6161508f9ab3db3622471e87,62bbf9fbe61a9153e4d8e9c0,2022-06-29_10h06.58.408,Colour_Asymmetry_Pilot,2022.1.3,MacIntel,50,62bbe60bf3d75ef465d3e404,,,,,,,,,,,,,,,,,,,,,,,,,,,,,,,,,,,,,,,,,,,,,,,,,,,,,,,,,,,,,,,,,,,,,,,,,,,,,,,,,,,,,,,,,,,,,,,,,,,,,,,,,,,,,,,,,,,,,,,,,,,,,,,,,,,,,,,,,,,,,,,,,,,,,,,,,,,,,,
0,64,64,29,1,,6161508f9ab3db3622471e87,62bbf9fbe61a9153e4d8e9c0,2022-06-29_10h06.58.408,Colour_Asymmetry_Pilot,2022.1.3,MacIntel,50,62bbe60bf3d75ef465d3e404,,,,,,,,,,,,,,,,,,,,,,,,,,,,,,,,,,,,,,,,,,,,,,,,,,,,,,,,,,,,,,,,,,,,,,,,,,,,,,,,,,,,,,,,,,,,,,,,,,,,,,,,,,,,,,,,,,,,,,,,,,,,,,,,,,,,,,,,,,,,,,,,,,,,,,,,,,,,,,
0,65,65,89,1,,6161508f9ab3db3622471e87,62bbf9fbe61a9153e4d8e9c0,2022-06-29_10h06.58.408,Colour_Asymmetry_Pilot,2022.1.3,MacIntel,50,62bbe60bf3d75ef465d3e404,,,,,,,,,,,,,,,,,,,,,,,,,,,,,,,,,,,,,,,,,,,,,,,,,,,,,,,,,,,,,,,,,,,,,,,,,,,,,,,,,,,,,,,,,,,,,,,,,,,,,,,,,,,,,,,,,,,,,,,,,,,,,,,,,,,,,,,,,,,,,,,,,,,,,,,,,,,,,,
0,66,66,26,1,,6161508f9ab3db3622471e87,62bbf9fbe61a9153e4d8e9c0,2022-06-29_10h06.58.408,Colour_Asymmetry_Pilot,2022.1.3,MacIntel,50,62bbe60bf3d75ef465d3e404,,,,,,,,,,,,,,,,,,,,,,,,,,,,,,,,,,,,,,,,,,,,,,,,,,,,,,,,,,,,,,,,,,,,,,,,,,,,,,,,,,,,,,,,,,,,,,,,,,,,,,,,,,,,,,,,,,,,,,,,,,,,,,,,,,,,,,,,,,,,,,,,,,,,,,,,,,,,,,
0,67,67,78,1,,6161508f9ab3db3622471e87,62bbf9fbe61a9153e4d8e9c0,2022-06-29_10h06.58.408,Colour_Asymmetry_Pilot,2022.1.3,MacIntel,50,62bbe60bf3d75ef465d3e404,,,,,,,,,,,,,,,,,,,,,,,,,,,,,,,,,,,,,,,,,,,,,,,,,,,,,,,,,,,,,,,,,,,,,,,,,,,,,,,,,,,,,,,,,,,,,,,,,,,,,,,,,,,,,,,,,,,,,,,,,,,,,,,,,,,,,,,,,,,,,,,,,,,,,,,,,,,,,,
0,68,68,48,1,,6161508f9ab3db3622471e87,62bbf9fbe61a9153e4d8e9c0,2022-06-29_10h06.58.408,Colour_Asymmetry_Pilot,2022.1.3,MacIntel,50,62bbe60bf3d75ef465d3e404,,,,,,,,,,,,,,,,,,,,,,,,,,,,,,,,,,,,,,,,,,,,,,,,,,,,,,,,,,,,,,,,,,,,,,,,,,,,,,,,,,,,,,,,,,,,,,,,,,,,,,,,,,,,,,,,,,,,,,,,,,,,,,,,,,,,,,,,,,,,,,,,,,,,,,,,,,,,,,
0,69,69,33,1,,6161508f9ab3db3622471e87,62bbf9fbe61a9153e4d8e9c0,2022-06-29_10h06.58.408,Colour_Asymmetry_Pilot,2022.1.3,MacIntel,50,62bbe60bf3d75ef465d3e404,,,,,,,,,,,,,,,,,,,,,,,,,,,,,,,,,,,,,,,,,,,,,,,,,,,,,,,,,,,,,,,,,,,,,,,,,,,,,,,,,,,,,,,,,,,,,,,,,,,,,,,,,,,,,,,,,,,,,,,,,,,,,,,,,,,,,,,,,,,,,,,,,,,,,,,,,,,,,,
0,70,70,82,1,,6161508f9ab3db3622471e87,62bbf9fbe61a9153e4d8e9c0,2022-06-29_10h06.58.408,Colour_Asymmetry_Pilot,2022.1.3,MacIntel,50,62bbe60bf3d75ef465d3e404,,,,,,,,,,,,,,,,,,,,,,,,,,,,,,,,,,,,,,,,,,,,,,,,,,,,,,,,,,,,,,,,,,,,,,,,,,,,,,,,,,,,,,,,,,,,,,,,,,,,,,,,,,,,,,,,,,,,,,,,,,,,,,,,,,,,,,,,,,,,,,,,,,,,,,,,,,,,,,
0,71,71,20,1,,6161508f9ab3db3622471e87,62bbf9fbe61a9153e4d8e9c0,2022-06-29_10h06.58.408,Colour_Asymmetry_Pilot,2022.1.3,MacIntel,50,62bbe60bf3d75ef465d3e404,,,,,,,,,,,,,,,,,,,,,,,,,,,,,,,,,,,,,,,,,,,,,,,,,,,,,,,,,,,,,,,,,,,,,,,,,,,,,,,,,,,,,,,,,,,,,,,,,,,,,,,,,,,,,,,,,,,,,,,,,,,,,,,,,,,,,,,,,,,,,,,,,,,,,,,,,,,,,,
0,72,72,18,1,,6161508f9ab3db3622471e87,62bbf9fbe61a9153e4d8e9c0,2022-06-29_10h06.58.408,Colour_Asymmetry_Pilot,2022.1.3,MacIntel,50,62bbe60bf3d75ef465d3e404,,,,,,,,,,,,,,,,,,,,,,,,,,,,,,,,,,,,,,,,,,,,,,,,,,,,,,,,,,,,,,,,,,,,,,,,,,,,,,,,,,,,,,,,,,,,,,,,,,,,,,,,,,,,,,,,,,,,,,,,,,,,,,,,,,,,,,,,,,,,,,,,,,,,,,,,,,,,,,
0,73,73,92,1,,6161508f9ab3db3622471e87,62bbf9fbe61a9153e4d8e9c0,2022-06-29_10h06.58.408,Colour_Asymmetry_Pilot,2022.1.3,MacIntel,50,62bbe60bf3d75ef465d3e404,,,,,,,,,,,,,,,,,,,,,,,,,,,,,,,,,,,,,,,,,,,,,,,,,,,,,,,,,,,,,,,,,,,,,,,,,,,,,,,,,,,,,,,,,,,,,,,,,,,,,,,,,,,,,,,,,,,,,,,,,,,,,,,,,,,,,,,,,,,,,,,,,,,,,,,,,,,,,,
0,74,74,59,1,,6161508f9ab3db3622471e87,62bbf9fbe61a9153e4d8e9c0,2022-06-29_10h06.58.408,Colour_Asymmetry_Pilot,2022.1.3,MacIntel,50,62bbe60bf3d75ef465d3e404,,,,,,,,,,,,,,,,,,,,,,,,,,,,,,,,,,,,,,,,,,,,,,,,,,,,,,,,,,,,,,,,,,,,,,,,,,,,,,,,,,,,,,,,,,,,,,,,,,,,,,,,,,,,,,,,,,,,,,,,,,,,,,,,,,,,,,,,,,,,,,,,,,,,,,,,,,,,,,
0,75,75,40,1,,6161508f9ab3db3622471e87,62bbf9fbe61a9153e4d8e9c0,2022-06-29_10h06.58.408,Colour_Asymmetry_Pilot,2022.1.3,MacIntel,50,62bbe60bf3d75ef465d3e404,,,,,,,,,,,,,,,,,,,,,,,,,,,,,,,,,,,,,,,,,,,,,,,,,,,,,,,,,,,,,,,,,,,,,,,,,,,,,,,,,,,,,,,,,,,,,,,,,,,,,,,,,,,,,,,,,,,,,,,,,,,,,,,,,,,,,,,,,,,,,,,,,,,,,,,,,,,,,,
0,76,76,61,1,,6161508f9ab3db3622471e87,62bbf9fbe61a9153e4d8e9c0,2022-06-29_10h06.58.408,Colour_Asymmetry_Pilot,2022.1.3,MacIntel,50,62bbe60bf3d75ef465d3e404,,,,,,,,,,,,,,,,,,,,,,,,,,,,,,,,,,,,,,,,,,,,,,,,,,,,,,,,,,,,,,,,,,,,,,,,,,,,,,,,,,,,,,,,,,,,,,,,,,,,,,,,,,,,,,,,,,,,,,,,,,,,,,,,,,,,,,,,,,,,,,,,,,,,,,,,,,,,,,
0,77,77,35,1,,6161508f9ab3db3622471e87,62bbf9fbe61a9153e4d8e9c0,2022-06-29_10h06.58.408,Colour_Asymmetry_Pilot,2022.1.3,MacIntel,50,62bbe60bf3d75ef465d3e404,,,,,,,,,,,,,,,,,,,,,,,,,,,,,,,,,,,,,,,,,,,,,,,,,,,,,,,,,,,,,,,,,,,,,,,,,,,,,,,,,,,,,,,,,,,,,,,,,,,,,,,,,,,,,,,,,,,,,,,,,,,,,,,,,,,,,,,,,,,,,,,,,,,,,,,,,,,,,,
0,78,78,66,1,,6161508f9ab3db3622471e87,62bbf9fbe61a9153e4d8e9c0,2022-06-29_10h06.58.408,Colour_Asymmetry_Pilot,2022.1.3,MacIntel,50,62bbe60bf3d75ef465d3e404,,,,,,,,,,,,,,,,,,,,,,,,,,,,,,,,,,,,,,,,,,,,,,,,,,,,,,,,,,,,,,,,,,,,,,,,,,,,,,,,,,,,,,,,,,,,,,,,,,,,,,,,,,,,,,,,,,,,,,,,,,,,,,,,,,,,,,,,,,,,,,,,,,,,,,,,,,,,,,
0,79,79,57,1,,6161508f9ab3db3622471e87,62bbf9fbe61a9153e4d8e9c0,2022-06-29_10h06.58.408,Colour_Asymmetry_Pilot,2022.1.3,MacIntel,50,62bbe60bf3d75ef465d3e404,,,,,,,,,,,,,,,,,,,,,,,,,,,,,,,,,,,,,,,,,,,,,,,,,,,,,,,,,,,,,,,,,,,,,,,,,,,,,,,,,,,,,,,,,,,,,,,,,,,,,,,,,,,,,,,,,,,,,,,,,,,,,,,,,,,,,,,,,,,,,,,,,,,,,,,,,,,,,,
0,80,80,23,1,,6161508f9ab3db3622471e87,62bbf9fbe61a9153e4d8e9c0,2022-06-29_10h06.58.408,Colour_Asymmetry_Pilot,2022.1.3,MacIntel,50,62bbe60bf3d75ef465d3e404,,,,,,,,,,,,,,,,,,,,,,,,,,,,,,,,,,,,,,,,,,,,,,,,,,,,,,,,,,,,,,,,,,,,,,,,,,,,,,,,,,,,,,,,,,,,,,,,,,,,,,,,,,,,,,,,,,,,,,,,,,,,,,,,,,,,,,,,,,,,,,,,,,,,,,,,,,,,,,
0,81,81,8,1,,6161508f9ab3db3622471e87,62bbf9fbe61a9153e4d8e9c0,2022-06-29_10h06.58.408,Colour_Asymmetry_Pilot,2022.1.3,MacIntel,50,62bbe60bf3d75ef465d3e404,,,,,,,,,,,,,,,,,,,,,,,,,,,,,,,,,,,,,,,,,,,,,,,,,,,,,,,,,,,,,,,,,,,,,,,,,,,,,,,,,,,,,,,,,,,,,,,,,,,,,,,,,,,,,,,,,,,,,,,,,,,,,,,,,,,,,,,,,,,,,,,,,,,,,,,,,,,,,,
0,82,82,27,1,,6161508f9ab3db3622471e87,62bbf9fbe61a9153e4d8e9c0,2022-06-29_10h06.58.408,Colour_Asymmetry_Pilot,2022.1.3,MacIntel,50,62bbe60bf3d75ef465d3e404,,,,,,,,,,,,,,,,,,,,,,,,,,,,,,,,,,,,,,,,,,,,,,,,,,,,,,,,,,,,,,,,,,,,,,,,,,,,,,,,,,,,,,,,,,,,,,,,,,,,,,,,,,,,,,,,,,,,,,,,,,,,,,,,,,,,,,,,,,,,,,,,,,,,,,,,,,,,,,
0,83,83,76,1,,6161508f9ab3db3622471e87,62bbf9fbe61a9153e4d8e9c0,2022-06-29_10h06.58.408,Colour_Asymmetry_Pilot,2022.1.3,MacIntel,50,62bbe60bf3d75ef465d3e404,,,,,,,,,,,,,,,,,,,,,,,,,,,,,,,,,,,,,,,,,,,,,,,,,,,,,,,,,,,,,,,,,,,,,,,,,,,,,,,,,,,,,,,,,,,,,,,,,,,,,,,,,,,,,,,,,,,,,,,,,,,,,,,,,,,,,,,,,,,,,,,,,,,,,,,,,,,,,,
0,84,84,24,1,,6161508f9ab3db3622471e87,62bbf9fbe61a9153e4d8e9c0,2022-06-29_10h06.58.408,Colour_Asymmetry_Pilot,2022.1.3,MacIntel,50,62bbe60bf3d75ef465d3e404,,,,,,,,,,,,,,,,,,,,,,,,,,,,,,,,,,,,,,,,,,,,,,,,,,,,,,,,,,,,,,,,,,,,,,,,,,,,,,,,,,,,,,,,,,,,,,,,,,,,,,,,,,,,,,,,,,,,,,,,,,,,,,,,,,,,,,,,,,,,,,,,,,,,,,,,,,,,,,
0,85,85,67,1,,6161508f9ab3db3622471e87,62bbf9fbe61a9153e4d8e9c0,2022-06-29_10h06.58.408,Colour_Asymmetry_Pilot,2022.1.3,MacIntel,50,62bbe60bf3d75ef465d3e404,,,,,,,,,,,,,,,,,,,,,,,,,,,,,,,,,,,,,,,,,,,,,,,,,,,,,,,,,,,,,,,,,,,,,,,,,,,,,,,,,,,,,,,,,,,,,,,,,,,,,,,,,,,,,,,,,,,,,,,,,,,,,,,,,,,,,,,,,,,,,,,,,,,,,,,,,,,,,,
0,86,86,54,1,,6161508f9ab3db3622471e87,62bbf9fbe61a9153e4d8e9c0,2022-06-29_10h06.58.408,Colour_Asymmetry_Pilot,2022.1.3,MacIntel,50,62bbe60bf3d75ef465d3e404,,,,,,,,,,,,,,,,,,,,,,,,,,,,,,,,,,,,,,,,,,,,,,,,,,,,,,,,,,,,,,,,,,,,,,,,,,,,,,,,,,,,,,,,,,,,,,,,,,,,,,,,,,,,,,,,,,,,,,,,,,,,,,,,,,,,,,,,,,,,,,,,,,,,,,,,,,,,,,
0,87,87,28,1,,6161508f9ab3db3622471e87,62bbf9fbe61a9153e4d8e9c0,2022-06-29_10h06.58.408,Colour_Asymmetry_Pilot,2022.1.3,MacIntel,50,62bbe60bf3d75ef465d3e404,,,,,,,,,,,,,,,,,,,,,,,,,,,,,,,,,,,,,,,,,,,,,,,,,,,,,,,,,,,,,,,,,,,,,,,,,,,,,,,,,,,,,,,,,,,,,,,,,,,,,,,,,,,,,,,,,,,,,,,,,,,,,,,,,,,,,,,,,,,,,,,,,,,,,,,,,,,,,,
0,88,88,25,1,,6161508f9ab3db3622471e87,62bbf9fbe61a9153e4d8e9c0,2022-06-29_10h06.58.408,Colour_Asymmetry_Pilot,2022.1.3,MacIntel,50,62bbe60bf3d75ef465d3e404,,,,,,,,,,,,,,,,,,,,,,,,,,,,,,,,,,,,,,,,,,,,,,,,,,,,,,,,,,,,,,,,,,,,,,,,,,,,,,,,,,,,,,,,,,,,,,,,,,,,,,,,,,,,,,,,,,,,,,,,,,,,,,,,,,,,,,,,,,,,,,,,,,,,,,,,,,,,,,
0,89,89,4,1,,6161508f9ab3db3622471e87,62bbf9fbe61a9153e4d8e9c0,2022-06-29_10h06.58.408,Colour_Asymmetry_Pilot,2022.1.3,MacIntel,50,62bbe60bf3d75ef465d3e404,,,,,,,,,,,,,,,,,,,,,,,,,,,,,,,,,,,,,,,,,,,,,,,,,,,,,,,,,,,,,,,,,,,,,,,,,,,,,,,,,,,,,,,,,,,,,,,,,,,,,,,,,,,,,,,,,,,,,,,,,,,,,,,,,,,,,,,,,,,,,,,,,,,,,,,,,,,,,,
0,90,90,16,1,,6161508f9ab3db3622471e87,62bbf9fbe61a9153e4d8e9c0,2022-06-29_10h06.58.408,Colour_Asymmetry_Pilot,2022.1.3,MacIntel,50,62bbe60bf3d75ef465d3e404,,,,,,,,,,,,,,,,,,,,,,,,,,,,,,,,,,,,,,,,,,,,,,,,,,,,,,,,,,,,,,,,,,,,,,,,,,,,,,,,,,,,,,,,,,,,,,,,,,,,,,,,,,,,,,,,,,,,,,,,,,,,,,,,,,,,,,,,,,,,,,,,,,,,,,,,,,,,,,
0,91,91,70,1,,6161508f9ab3db3622471e87,62bbf9fbe61a9153e4d8e9c0,2022-06-29_10h06.58.408,Colour_Asymmetry_Pilot,2022.1.3,MacIntel,50,62bbe60bf3d75ef465d3e404,,,,,,,,,,,,,,,,,,,,,,,,,,,,,,,,,,,,,,,,,,,,,,,,,,,,,,,,,,,,,,,,,,,,,,,,,,,,,,,,,,,,,,,,,,,,,,,,,,,,,,,,,,,,,,,,,,,,,,,,,,,,,,,,,,,,,,,,,,,,,,,,,,,,,,,,,,,,,,
0,92,92,38,1,,6161508f9ab3db3622471e87,62bbf9fbe61a9153e4d8e9c0,2022-06-29_10h06.58.408,Colour_Asymmetry_Pilot,2022.1.3,MacIntel,50,62bbe60bf3d75ef465d3e404,,,,,,,,,,,,,,,,,,,,,,,,,,,,,,,,,,,,,,,,,,,,,,,,,,,,,,,,,,,,,,,,,,,,,,,,,,,,,,,,,,,,,,,,,,,,,,,,,,,,,,,,,,,,,,,,,,,,,,,,,,,,,,,,,,,,,,,,,,,,,,,,,,,,,,,,,,,,,,
,,,,,,6161508f9ab3db3622471e87,62bbf9fbe61a9153e4d8e9c0,2022-06-29_10h06.58.408,Colour_Asymmetry_Pilot,2022.1.3,MacIntel,50,62bbe60bf3d75ef465d3e404,0,0,0,31,1,fourthree,,,,,,,,,,,,,,,,,,,,,,,,,,,,,,,,,,,,,,,,,,,,,,,,,,,,,,,,,,,,,,,,,,,,,,,,,,,,,,,,,,,,,,,,,,,,,,,,,,,,,,,,,,,,,,,,,,,,,,,,,,,,,,,,,,,,,,,,,,,,,,,,,,,,,,,,
,,,,,,6161508f9ab3db3622471e87,62bbf9fbe61a9153e4d8e9c0,2022-06-29_10h06.58.408,Colour_Asymmetry_Pilot,2022.1.3,MacIntel,50,62bbe60bf3d75ef465d3e404,0,1,1,115,1,twofour,,,,,,,,,,,,,,,,,,,,,,,,,,,,,,,,,,,,,,,,,,,,,,,,,,,,,,,,,,,,,,,,,,,,,,,,,,,,,,,,,,,,,,,,,,,,,,,,,,,,,,,,,,,,,,,,,,,,,,,,,,,,,,,,,,,,,,,,,,,,,,,,,,,,,,,,
,,,,,,6161508f9ab3db3622471e87,62bbf9fbe61a9153e4d8e9c0,2022-06-29_10h06.58.408,Colour_Asymmetry_Pilot,2022.1.3,MacIntel,50,62bbe60bf3d75ef465d3e404,0,2,2,20,1,threeone,,,,,,,,,,,,,,,,,,,,,,,,,,,,,,,,,,,,,,,,,,,,,,,,,,,,,,,,,,,,,,,,,,,,,,,,,,,,,,,,,,,,,,,,,,,,,,,,,,,,,,,,,,,,,,,,,,,,,,,,,,,,,,,,,,,,,,,,,,,,,,,,,,,,,,,,
,,,,,,6161508f9ab3db3622471e87,62bbf9fbe61a9153e4d8e9c0,2022-06-29_10h06.58.408,Colour_Asymmetry_Pilot,2022.1.3,MacIntel,50,62bbe60bf3d75ef465d3e404,0,3,3,85,1,threefour,,,,,,,,,,,,,,,,,,,,,,,,,,,,,,,,,,,,,,,,,,,,,,,,,,,,,,,,,,,,,,,,,,,,,,,,,,,,,,,,,,,,,,,,,,,,,,,,,,,,,,,,,,,,,,,,,,,,,,,,,,,,,,,,,,,,,,,,,,,,,,,,,,,,,,,,
,,,,,,6161508f9ab3db3622471e87,62bbf9fbe61a9153e4d8e9c0,2022-06-29_10h06.58.408,Colour_Asymmetry_Pilot,2022.1.3,MacIntel,50,62bbe60bf3d75ef465d3e404,0,4,4,4,1,threeone,,,,,,,,,,,,,,,,,,,,,,,,,,,,,,,,,,,,,,,,,,,,,,,,,,,,,,,,,,,,,,,,,,,,,,,,,,,,,,,,,,,,,,,,,,,,,,,,,,,,,,,,,,,,,,,,,,,,,,,,,,,,,,,,,,,,,,,,,,,,,,,,,,,,,,,,
,,,,,,6161508f9ab3db3622471e87,62bbf9fbe61a9153e4d8e9c0,2022-06-29_10h06.58.408,Colour_Asymmetry_Pilot,2022.1.3,MacIntel,50,62bbe60bf3d75ef465d3e404,0,5,5,51,1,twofour,,,,,,,,,,,,,,,,,,,,,,,,,,,,,,,,,,,,,,,,,,,,,,,,,,,,,,,,,,,,,,,,,,,,,,,,,,,,,,,,,,,,,,,,,,,,,,,,,,,,,,,,,,,,,,,,,,,,,,,,,,,,,,,,,,,,,,,,,,,,,,,,,,,,,,,,
,,,,,,6161508f9ab3db3622471e87,62bbf9fbe61a9153e4d8e9c0,2022-06-29_10h06.58.408,Colour_Asymmetry_Pilot,2022.1.3,MacIntel,50,62bbe60bf3d75ef465d3e404,0,6,6,150,1,fourtwo,,,,,,,,,,,,,,,,,,,,,,,,,,,,,,,,,,,,,,,,,,,,,,,,,,,,,,,,,,,,,,,,,,,,,,,,,,,,,,,,,,,,,,,,,,,,,,,,,,,,,,,,,,,,,,,,,,,,,,,,,,,,,,,,,,,,,,,,,,,,,,,,,,,,,,,,
,,,,,,6161508f9ab3db3622471e87,62bbf9fbe61a9153e4d8e9c0,2022-06-29_10h06.58.408,Colour_Asymmetry_Pilot,2022.1.3,MacIntel,50,62bbe60bf3d75ef465d3e404,0,7,7,70,1,fourtwo,,,,,,,,,,,,,,,,,,,,,,,,,,,,,,,,,,,,,,,,,,,,,,,,,,,,,,,,,,,,,,,,,,,,,,,,,,,,,,,,,,,,,,,,,,,,,,,,,,,,,,,,,,,,,,,,,,,,,,,,,,,,,,,,,,,,,,,,,,,,,,,,,,,,,,,,
,,,,,,6161508f9ab3db3622471e87,62bbf9fbe61a9153e4d8e9c0,2022-06-29_10h06.58.408,Colour_Asymmetry_Pilot,2022.1.3,MacIntel,50,62bbe60bf3d75ef465d3e404,0,8,8,137,1,onethree,,,,,,,,,,,,,,,,,,,,,,,,,,,,,,,,,,,,,,,,,,,,,,,,,,,,,,,,,,,,,,,,,,,,,,,,,,,,,,,,,,,,,,,,,,,,,,,,,,,,,,,,,,,,,,,,,,,,,,,,,,,,,,,,,,,,,,,,,,,,,,,,,,,,,,,,
,,,,,,6161508f9ab3db3622471e87,62bbf9fbe61a9153e4d8e9c0,2022-06-29_10h06.58.408,Colour_Asymmetry_Pilot,2022.1.3,MacIntel,50,62bbe60bf3d75ef465d3e404,0,9,9,147,1,twofour,,,,,,,,,,,,,,,,,,,,,,,,,,,,,,,,,,,,,,,,,,,,,,,,,,,,,,,,,,,,,,,,,,,,,,,,,,,,,,,,,,,,,,,,,,,,,,,,,,,,,,,,,,,,,,,,,,,,,,,,,,,,,,,,,,,,,,,,,,,,,,,,,,,,,,,,
,,,,,,6161508f9ab3db3622471e87,62bbf9fbe61a9153e4d8e9c0,2022-06-29_10h06.58.408,Colour_Asymmetry_Pilot,2022.1.3,MacIntel,50,62bbe60bf3d75ef465d3e404,0,10,10,71,1,fourthree,,,,,,,,,,,,,,,,,,,,,,,,,,,,,,,,,,,,,,,,,,,,,,,,,,,,,,,,,,,,,,,,,,,,,,,,,,,,,,,,,,,,,,,,,,,,,,,,,,,,,,,,,,,,,,,,,,,,,,,,,,,,,,,,,,,,,,,,,,,,,,,,,,,,,,,,
,,,,,,6161508f9ab3db3622471e87,62bbf9fbe61a9153e4d8e9c0,2022-06-29_10h06.58.408,Colour_Asymmetry_Pilot,2022.1.3,MacIntel,50,62bbe60bf3d75ef465d3e404,0,11,11,60,1,threeone,,,,,,,,,,,,,,,,,,,,,,,,,,,,,,,,,,,,,,,,,,,,,,,,,,,,,,,,,,,,,,,,,,,,,,,,,,,,,,,,,,,,,,,,,,,,,,,,,,,,,,,,,,,,,,,,,,,,,,,,,,,,,,,,,,,,,,,,,,,,,,,,,,,,,,,,
,,,,,,6161508f9ab3db3622471e87,62bbf9fbe61a9153e4d8e9c0,2022-06-29_10h06.58.408,Colour_Asymmetry_Pilot,2022.1.3,MacIntel,50,62bbe60bf3d75ef465d3e404,0,12,12,152,1,onetwo,,,,,,,,,,,,,,,,,,,,,,,,,,,,,,,,,,,,,,,,,,,,,,,,,,,,,,,,,,,,,,,,,,,,,,,,,,,,,,,,,,,,,,,,,,,,,,,,,,,,,,,,,,,,,,,,,,,,,,,,,,,,,,,,,,,,,,,,,,,,,,,,,,,,,,,,
,,,,,,6161508f9ab3db3622471e87,62bbf9fbe61a9153e4d8e9c0,2022-06-29_10h06.58.408,Colour_Asymmetry_Pilot,2022.1.3,MacIntel,50,62bbe60bf3d75ef465d3e404,0,13,13,0,1,onetwo,,,,,,,,,,,,,,,,,,,,,,,,,,,,,,,,,,,,,,,,,,,,,,,,,,,,,,,,,,,,,,,,,,,,,,,,,,,,,,,,,,,,,,,,,,,,,,,,,,,,,,,,,,,,,,,,,,,,,,,,,,,,,,,,,,,,,,,,,,,,,,,,,,,,,,,,
,,,,,,6161508f9ab3db3622471e87,62bbf9fbe61a9153e4d8e9c0,2022-06-29_10h06.58.408,Colour_Asymmetry_Pilot,2022.1.3,MacIntel,50,62bbe60bf3d75ef465d3e404,0,14,14,117,1,threefour,,,,,,,,,,,,,,,,,,,,,,,,,,,,,,,,,,,,,,,,,,,,,,,,,,,,,,,,,,,,,,,,,,,,,,,,,,,,,,,,,,,,,,,,,,,,,,,,,,,,,,,,,,,,,,,,,,,,,,,,,,,,,,,,,,,,,,,,,,,,,,,,,,,,,,,,
,,,,,,6161508f9ab3db3622471e87,62bbf9fbe61a9153e4d8e9c0,2022-06-29_10h06.58.408,Colour_Asymmetry_Pilot,2022.1.3,MacIntel,50,62bbe60bf3d75ef465d3e404,0,15,15,125,1,threefour,,,,,,,,,,,,,,,,,,,,,,,,,,,,,,,,,,,,,,,,,,,,,,,,,,,,,,,,,,,,,,,,,,,,,,,,,,,,,,,,,,,,,,,,,,,,,,,,,,,,,,,,,,,,,,,,,,,,,,,,,,,,,,,,,,,,,,,,,,,,,,,,,,,,,,,,
,,,,,,6161508f9ab3db3622471e87,62bbf9fbe61a9153e4d8e9c0,2022-06-29_10h06.58.408,Colour_Asymmetry_Pilot,2022.1.3,MacIntel,50,62bbe60bf3d75ef465d3e404,0,16,16,141,1,threefour,,,,,,,,,,,,,,,,,,,,,,,,,,,,,,,,,,,,,,,,,,,,,,,,,,,,,,,,,,,,,,,,,,,,,,,,,,,,,,,,,,,,,,,,,,,,,,,,,,,,,,,,,,,,,,,,,,,,,,,,,,,,,,,,,,,,,,,,,,,,,,,,,,,,,,,,
,,,,,,6161508f9ab3db3622471e87,62bbf9fbe61a9153e4d8e9c0,2022-06-29_10h06.58.408,Colour_Asymmetry_Pilot,2022.1.3,MacIntel,50,62bbe60bf3d75ef465d3e404,0,17,17,54,1,fourtwo,,,,,,,,,,,,,,,,,,,,,,,,,,,,,,,,,,,,,,,,,,,,,,,,,,,,,,,,,,,,,,,,,,,,,,,,,,,,,,,,,,,,,,,,,,,,,,,,,,,,,,,,,,,,,,,,,,,,,,,,,,,,,,,,,,,,,,,,,,,,,,,,,,,,,,,,
,,,,,,6161508f9ab3db3622471e87,62bbf9fbe61a9153e4d8e9c0,2022-06-29_10h06.58.408,Colour_Asymmetry_Pilot,2022.1.3,MacIntel,50,62bbe60bf3d75ef465d3e404,0,18,18,92,1,threeone,,,,,,,,,,,,,,,,,,,,,,,,,,,,,,,,,,,,,,,,,,,,,,,,,,,,,,,,,,,,,,,,,,,,,,,,,,,,,,,,,,,,,,,,,,,,,,,,,,,,,,,,,,,,,,,,,,,,,,,,,,,,,,,,,,,,,,,,,,,,,,,,,,,,,,,,
,,,,,,6161508f9ab3db3622471e87,62bbf9fbe61a9153e4d8e9c0,2022-06-29_10h06.58.408,Colour_Asymmetry_Pilot,2022.1.3,MacIntel,50,62bbe60bf3d75ef465d3e404,0,19,19,90,1,twoone,,,,,,,,,,,,,,,,,,,,,,,,,,,,,,,,,,,,,,,,,,,,,,,,,,,,,,,,,,,,,,,,,,,,,,,,,,,,,,,,,,,,,,,,,,,,,,,,,,,,,,,,,,,,,,,,,,,,,,,,,,,,,,,,,,,,,,,,,,,,,,,,,,,,,,,,
,,,,,,6161508f9ab3db3622471e87,62bbf9fbe61a9153e4d8e9c0,2022-06-29_10h06.58.408,Colour_Asymmetry_Pilot,2022.1.3,MacIntel,50,62bbe60bf3d75ef465d3e404,0,20,20,41,1,onethree,,,,,,,,,,,,,,,,,,,,,,,,,,,,,,,,,,,,,,,,,,,,,,,,,,,,,,,,,,,,,,,,,,,,,,,,,,,,,,,,,,,,,,,,,,,,,,,,,,,,,,,,,,,,,,,,,,,,,,,,,,,,,,,,,,,,,,,,,,,,,,,,,,,,,,,,
,,,,,,6161508f9ab3db3622471e87,62bbf9fbe61a9153e4d8e9c0,2022-06-29_10h06.58.408,Colour_Asymmetry_Pilot,2022.1.3,MacIntel,50,62bbe60bf3d75ef465d3e404,0,21,21,80,1,onetwo,,,,,,,,,,,,,,,,,,,,,,,,,,,,,,,,,,,,,,,,,,,,,,,,,,,,,,,,,,,,,,,,,,,,,,,,,,,,,,,,,,,,,,,,,,,,,,,,,,,,,,,,,,,,,,,,,,,,,,,,,,,,,,,,,,,,,,,,,,,,,,,,,,,,,,,,
,,,,,,6161508f9ab3db3622471e87,62bbf9fbe61a9153e4d8e9c0,2022-06-29_10h06.58.408,Colour_Asymmetry_Pilot,2022.1.3,MacIntel,50,62bbe60bf3d75ef465d3e404,0,22,22,67,1,twofour,,,,,,,,,,,,,,,,,,,,,,,,,,,,,,,,,,,,,,,,,,,,,,,,,,,,,,,,,,,,,,,,,,,,,,,,,,,,,,,,,,,,,,,,,,,,,,,,,,,,,,,,,,,,,,,,,,,,,,,,,,,,,,,,,,,,,,,,,,,,,,,,,,,,,,,,
,,,,,,6161508f9ab3db3622471e87,62bbf9fbe61a9153e4d8e9c0,2022-06-29_10h06.58.408,Colour_Asymmetry_Pilot,2022.1.3,MacIntel,50,62bbe60bf3d75ef465d3e404,0,23,23,64,1,onetwo,,,,,,,,,,,,,,,,,,,,,,,,,,,,,,,,,,,,,,,,,,,,,,,,,,,,,,,,,,,,,,,,,,,,,,,,,,,,,,,,,,,,,,,,,,,,,,,,,,,,,,,,,,,,,,,,,,,,,,,,,,,,,,,,,,,,,,,,,,,,,,,,,,,,,,,,
,,,,,,6161508f9ab3db3622471e87,62bbf9fbe61a9153e4d8e9c0,2022-06-29_10h06.58.408,Colour_Asymmetry_Pilot,2022.1.3,MacIntel,50,62bbe60bf3d75ef465d3e404,0,24,24,10,1,twoone,,,,,,,,,,,,,,,,,,,,,,,,,,,,,,,,,,,,,,,,,,,,,,,,,,,,,,,,,,,,,,,,,,,,,,,,,,,,,,,,,,,,,,,,,,,,,,,,,,,,,,,,,,,,,,,,,,,,,,,,,,,,,,,,,,,,,,,,,,,,,,,,,,,,,,,,
,,,,,,6161508f9ab3db3622471e87,62bbf9fbe61a9153e4d8e9c0,2022-06-29_10h06.58.408,Colour_Asymmetry_Pilot,2022.1.3,MacIntel,50,62bbe60bf3d75ef465d3e404,0,25,25,37,1,threefour,,,,,,,,,,,,,,,,,,,,,,,,,,,,,,,,,,,,,,,,,,,,,,,,,,,,,,,,,,,,,,,,,,,,,,,,,,,,,,,,,,,,,,,,,,,,,,,,,,,,,,,,,,,,,,,,,,,,,,,,,,,,,,,,,,,,,,,,,,,,,,,,,,,,,,,,
,,,,,,6161508f9ab3db3622471e87,62bbf9fbe61a9153e4d8e9c0,2022-06-29_10h06.58.408,Colour_Asymmetry_Pilot,2022.1.3,MacIntel,50,62bbe60bf3d75ef465d3e404,0,26,26,82,1,twoone,,,,,,,,,,,,,,,,,,,,,,,,,,,,,,,,,,,,,,,,,,,,,,,,,,,,,,,,,,,,,,,,,,,,,,,,,,,,,,,,,,,,,,,,,,,,,,,,,,,,,,,,,,,,,,,,,,,,,,,,,,,,,,,,,,,,,,,,,,,,,,,,,,,,,,,,
,,,,,,6161508f9ab3db3622471e87,62bbf9fbe61a9153e4d8e9c0,2022-06-29_10h06.58.408,Colour_Asymmetry_Pilot,2022.1.3,MacIntel,50,62bbe60bf3d75ef465d3e404,0,27,27,6,1,fourtwo,,,,,,,,,,,,,,,,,,,,,,,,,,,,,,,,,,,,,,,,,,,,,,,,,,,,,,,,,,,,,,,,,,,,,,,,,,,,,,,,,,,,,,,,,,,,,,,,,,,,,,,,,,,,,,,,,,,,,,,,,,,,,,,,,,,,,,,,,,,,,,,,,,,,,,,,
,,,,,,6161508f9ab3db3622471e87,62bbf9fbe61a9153e4d8e9c0,2022-06-29_10h06.58.408,Colour_Asymmetry_Pilot,2022.1.3,MacIntel,50,62bbe60bf3d75ef465d3e404,0,28,28,40,1,onetwo,,,,,,,,,,,,,,,,,,,,,,,,,,,,,,,,,,,,,,,,,,,,,,,,,,,,,,,,,,,,,,,,,,,,,,,,,,,,,,,,,,,,,,,,,,,,,,,,,,,,,,,,,,,,,,,,,,,,,,,,,,,,,,,,,,,,,,,,,,,,,,,,,,,,,,,,
,,,,,,6161508f9ab3db3622471e87,62bbf9fbe61a9153e4d8e9c0,2022-06-29_10h06.58.408,Colour_Asymmetry_Pilot,2022.1.3,MacIntel,50,62bbe60bf3d75ef465d3e404,0,29,29,124,1,threeone,,,,,,,,,,,,,,,,,,,,,,,,,,,,,,,,,,,,,,,,,,,,,,,,,,,,,,,,,,,,,,,,,,,,,,,,,,,,,,,,,,,,,,,,,,,,,,,,,,,,,,,,,,,,,,,,,,,,,,,,,,,,,,,,,,,,,,,,,,,,,,,,,,,,,,,,
,,,,,,6161508f9ab3db3622471e87,62bbf9fbe61a9153e4d8e9c0,2022-06-29_10h06.58.408,Colour_Asymmetry_Pilot,2022.1.3,MacIntel,50,62bbe60bf3d75ef465d3e404,0,30,30,77,1,threefour,,,,,,,,,,,,,,,,,,,,,,,,,,,,,,,,,,,,,,,,,,,,,,,,,,,,,,,,,,,,,,,,,,,,,,,,,,,,,,,,,,,,,,,,,,,,,,,,,,,,,,,,,,,,,,,,,,,,,,,,,,,,,,,,,,,,,,,,,,,,,,,,,,,,,,,,
,,,,,,6161508f9ab3db3622471e87,62bbf9fbe61a9153e4d8e9c0,2022-06-29_10h06.58.408,Colour_Asymmetry_Pilot,2022.1.3,MacIntel,50,62bbe60bf3d75ef465d3e404,0,31,31,87,1,fourthree,,,,,,,,,,,,,,,,,,,,,,,,,,,,,,,,,,,,,,,,,,,,,,,,,,,,,,,,,,,,,,,,,,,,,,,,,,,,,,,,,,,,,,,,,,,,,,,,,,,,,,,,,,,,,,,,,,,,,,,,,,,,,,,,,,,,,,,,,,,,,,,,,,,,,,,,
,,,,,,6161508f9ab3db3622471e87,62bbf9fbe61a9153e4d8e9c0,2022-06-29_10h06.58.408,Colour_Asymmetry_Pilot,2022.1.3,MacIntel,50,62bbe60bf3d75ef465d3e404,0,32,32,33,1,onethree,,,,,,,,,,,,,,,,,,,,,,,,,,,,,,,,,,,,,,,,,,,,,,,,,,,,,,,,,,,,,,,,,,,,,,,,,,,,,,,,,,,,,,,,,,,,,,,,,,,,,,,,,,,,,,,,,,,,,,,,,,,,,,,,,,,,,,,,,,,,,,,,,,,,,,,,
,,,,,,6161508f9ab3db3622471e87,62bbf9fbe61a9153e4d8e9c0,2022-06-29_10h06.58.408,Colour_Asymmetry_Pilot,2022.1.3,MacIntel,50,62bbe60bf3d75ef465d3e404,0,33,33,142,1,fourtwo,,,,,,,,,,,,,,,,,,,,,,,,,,,,,,,,,,,,,,,,,,,,,,,,,,,,,,,,,,,,,,,,,,,,,,,,,,,,,,,,,,,,,,,,,,,,,,,,,,,,,,,,,,,,,,,,,,,,,,,,,,,,,,,,,,,,,,,,,,,,,,,,,,,,,,,,
,,,,,,6161508f9ab3db3622471e87,62bbf9fbe61a9153e4d8e9c0,2022-06-29_10h06.58.408,Colour_Asymmetry_Pilot,2022.1.3,MacIntel,50,62bbe60bf3d75ef465d3e404,0,34,34,100,1,threeone,,,,,,,,,,,,,,,,,,,,,,,,,,,,,,,,,,,,,,,,,,,,,,,,,,,,,,,,,,,,,,,,,,,,,,,,,,,,,,,,,,,,,,,,,,,,,,,,,,,,,,,,,,,,,,,,,,,,,,,,,,,,,,,,,,,,,,,,,,,,,,,,,,,,,,,,
,,,,,,6161508f9ab3db3622471e87,62bbf9fbe61a9153e4d8e9c0,2022-06-29_10h06.58.408,Colour_Asymmetry_Pilot,2022.1.3,MacIntel,50,62bbe60bf3d75ef465d3e404,0,35,35,29,1,threefour,,,,,,,,,,,,,,,,,,,,,,,,,,,,,,,,,,,,,,,,,,,,,,,,,,,,,,,,,,,,,,,,,,,,,,,,,,,,,,,,,,,,,,,,,,,,,,,,,,,,,,,,,,,,,,,,,,,,,,,,,,,,,,,,,,,,,,,,,,,,,,,,,,,,,,,,
,,,,,,6161508f9ab3db3622471e87,62bbf9fbe61a9153e4d8e9c0,2022-06-29_10h06.58.408,Colour_Asymmetry_Pilot,2022.1.3,MacIntel,50,62bbe60bf3d75ef465d3e404,0,36,36,21,1,threefour,,,,,,,,,,,,,,,,,,,,,,,,,,,,,,,,,,,,,,,,,,,,,,,,,,,,,,,,,,,,,,,,,,,,,,,,,,,,,,,,,,,,,,,,,,,,,,,,,,,,,,,,,,,,,,,,,,,,,,,,,,,,,,,,,,,,,,,,,,,,,,,,,,,,,,,,
,,,,,,6161508f9ab3db3622471e87,62bbf9fbe61a9153e4d8e9c0,2022-06-29_10h06.58.408,Colour_Asymmetry_Pilot,2022.1.3,MacIntel,50,62bbe60bf3d75ef465d3e404,0,37,37,47,1,fourthree,,,,,,,,,,,,,,,,,,,,,,,,,,,,,,,,,,,,,,,,,,,,,,,,,,,,,,,,,,,,,,,,,,,,,,,,,,,,,,,,,,,,,,,,,,,,,,,,,,,,,,,,,,,,,,,,,,,,,,,,,,,,,,,,,,,,,,,,,,,,,,,,,,,,,,,,
,,,,,,6161508f9ab3db3622471e87,62bbf9fbe61a9153e4d8e9c0,2022-06-29_10h06.58.408,Colour_Asymmetry_Pilot,2022.1.3,MacIntel,50,62bbe60bf3d75ef465d3e404,0,38,38,151,1,fourthree,,,,,,,,,,,,,,,,,,,,,,,,,,,,,,,,,,,,,,,,,,,,,,,,,,,,,,,,,,,,,,,,,,,,,,,,,,,,,,,,,,,,,,,,,,,,,,,,,,,,,,,,,,,,,,,,,,,,,,,,,,,,,,,,,,,,,,,,,,,,,,,,,,,,,,,,
,,,,,,6161508f9ab3db3622471e87,62bbf9fbe61a9153e4d8e9c0,2022-06-29_10h06.58.408,Colour_Asymmetry_Pilot,2022.1.3,MacIntel,50,62bbe60bf3d75ef465d3e404,0,39,39,114,1,twoone,,,,,,,,,,,,,,,,,,,,,,,,,,,,,,,,,,,,,,,,,,,,,,,,,,,,,,,,,,,,,,,,,,,,,,,,,,,,,,,,,,,,,,,,,,,,,,,,,,,,,,,,,,,,,,,,,,,,,,,,,,,,,,,,,,,,,,,,,,,,,,,,,,,,,,,,
,,,,,,6161508f9ab3db3622471e87,62bbf9fbe61a9153e4d8e9c0,2022-06-29_10h06.58.408,Colour_Asymmetry_Pilot,2022.1.3,MacIntel,50,62bbe60bf3d75ef465d3e404,0,40,40,158,1,fourtwo,,,,,,,,,,,,,,,,,,,,,,,,,,,,,,,,,,,,,,,,,,,,,,,,,,,,,,,,,,,,,,,,,,,,,,,,,,,,,,,,,,,,,,,,,,,,,,,,,,,,,,,,,,,,,,,,,,,,,,,,,,,,,,,,,,,,,,,,,,,,,,,,,,,,,,,,
,,,,,,6161508f9ab3db3622471e87,62bbf9fbe61a9153e4d8e9c0,2022-06-29_10h06.58.408,Colour_Asymmetry_Pilot,2022.1.3,MacIntel,50,62bbe60bf3d75ef465d3e404,0,41,41,161,1,onethree,,,,,,,,,,,,,,,,,,,,,,,,,,,,,,,,,,,,,,,,,,,,,,,,,,,,,,,,,,,,,,,,,,,,,,,,,,,,,,,,,,,,,,,,,,,,,,,,,,,,,,,,,,,,,,,,,,,,,,,,,,,,,,,,,,,,,,,,,,,,,,,,,,,,,,,,
,,,,,,6161508f9ab3db3622471e87,62bbf9fbe61a9153e4d8e9c0,2022-06-29_10h06.58.408,Colour_Asymmetry_Pilot,2022.1.3,MacIntel,50,62bbe60bf3d75ef465d3e404,0,42,42,130,1,twoone,,,,,,,,,,,,,,,,,,,,,,,,,,,,,,,,,,,,,,,,,,,,,,,,,,,,,,,,,,,,,,,,,,,,,,,,,,,,,,,,,,,,,,,,,,,,,,,,,,,,,,,,,,,,,,,,,,,,,,,,,,,,,,,,,,,,,,,,,,,,,,,,,,,,,,,,
,,,,,,6161508f9ab3db3622471e87,62bbf9fbe61a9153e4d8e9c0,2022-06-29_10h06.58.408,Colour_Asymmetry_Pilot,2022.1.3,MacIntel,50,62bbe60bf3d75ef465d3e404,0,43,43,159,1,fourthree,,,,,,,,,,,,,,,,,,,,,,,,,,,,,,,,,,,,,,,,,,,,,,,,,,,,,,,,,,,,,,,,,,,,,,,,,,,,,,,,,,,,,,,,,,,,,,,,,,,,,,,,,,,,,,,,,,,,,,,,,,,,,,,,,,,,,,,,,,,,,,,,,,,,,,,,
,,,,,,6161508f9ab3db3622471e87,62bbf9fbe61a9153e4d8e9c0,2022-06-29_10h06.58.408,Colour_Asymmetry_Pilot,2022.1.3,MacIntel,50,62bbe60bf3d75ef465d3e404,0,44,44,22,1,fourtwo,,,,,,,,,,,,,,,,,,,,,,,,,,,,,,,,,,,,,,,,,,,,,,,,,,,,,,,,,,,,,,,,,,,,,,,,,,,,,,,,,,,,,,,,,,,,,,,,,,,,,,,,,,,,,,,,,,,,,,,,,,,,,,,,,,,,,,,,,,,,,,,,,,,,,,,,
,,,,,,6161508f9ab3db3622471e87,62bbf9fbe61a9153e4d8e9c0,2022-06-29_10h06.58.408,Colour_Asymmetry_Pilot,2022.1.3,MacIntel,50,62bbe60bf3d75ef465d3e404,0,45,45,79,1,fourthree,,,,,,,,,,,,,,,,,,,,,,,,,,,,,,,,,,,,,,,,,,,,,,,,,,,,,,,,,,,,,,,,,,,,,,,,,,,,,,,,,,,,,,,,,,,,,,,,,,,,,,,,,,,,,,,,,,,,,,,,,,,,,,,,,,,,,,,,,,,,,,,,,,,,,,,,
,,,,,,6161508f9ab3db3622471e87,62bbf9fbe61a9153e4d8e9c0,2022-06-29_10h06.58.408,Colour_Asymmetry_Pilot,2022.1.3,MacIntel,50,62bbe60bf3d75ef465d3e404,0,46,46,103,1,fourthree,,,,,,,,,,,,,,,,,,,,,,,,,,,,,,,,,,,,,,,,,,,,,,,,,,,,,,,,,,,,,,,,,,,,,,,,,,,,,,,,,,,,,,,,,,,,,,,,,,,,,,,,,,,,,,,,,,,,,,,,,,,,,,,,,,,,,,,,,,,,,,,,,,,,,,,,
,,,,,,6161508f9ab3db3622471e87,62bbf9fbe61a9153e4d8e9c0,2022-06-29_10h06.58.408,Colour_Asymmetry_Pilot,2022.1.3,MacIntel,50,62bbe60bf3d75ef465d3e404,0,47,47,84,1,threeone,,,,,,,,,,,,,,,,,,,,,,,,,,,,,,,,,,,,,,,,,,,,,,,,,,,,,,,,,,,,,,,,,,,,,,,,,,,,,,,,,,,,,,,,,,,,,,,,,,,,,,,,,,,,,,,,,,,,,,,,,,,,,,,,,,,,,,,,,,,,,,,,,,,,,,,,
,,,,,,6161508f9ab3db3622471e87,62bbf9fbe61a9153e4d8e9c0,2022-06-29_10h06.58.408,Colour_Asymmetry_Pilot,2022.1.3,MacIntel,50,62bbe60bf3d75ef465d3e404,0,48,48,131,1,twofour,,,,,,,,,,,,,,,,,,,,,,,,,,,,,,,,,,,,,,,,,,,,,,,,,,,,,,,,,,,,,,,,,,,,,,,,,,,,,,,,,,,,,,,,,,,,,,,,,,,,,,,,,,,,,,,,,,,,,,,,,,,,,,,,,,,,,,,,,,,,,,,,,,,,,,,,
,,,,,,6161508f9ab3db3622471e87,62bbf9fbe61a9153e4d8e9c0,2022-06-29_10h06.58.408,Colour_Asymmetry_Pilot,2022.1.3,MacIntel,50,62bbe60bf3d75ef465d3e404,0,49,49,81,1,onethree,,,,,,,,,,,,,,,,,,,,,,,,,,,,,,,,,,,,,,,,,,,,,,,,,,,,,,,,,,,,,,,,,,,,,,,,,,,,,,,,,,,,,,,,,,,,,,,,,,,,,,,,,,,,,,,,,,,,,,,,,,,,,,,,,,,,,,,,,,,,,,,,,,,,,,,,
,,,,,,6161508f9ab3db3622471e87,62bbf9fbe61a9153e4d8e9c0,2022-06-29_10h06.58.408,Colour_Asymmetry_Pilot,2022.1.3,MacIntel,50,62bbe60bf3d75ef465d3e404,0,50,50,135,1,fourthree,,,,,,,,,,,,,,,,,,,,,,,,,,,,,,,,,,,,,,,,,,,,,,,,,,,,,,,,,,,,,,,,,,,,,,,,,,,,,,,,,,,,,,,,,,,,,,,,,,,,,,,,,,,,,,,,,,,,,,,,,,,,,,,,,,,,,,,,,,,,,,,,,,,,,,,,
,,,,,,6161508f9ab3db3622471e87,62bbf9fbe61a9153e4d8e9c0,2022-06-29_10h06.58.408,Colour_Asymmetry_Pilot,2022.1.3,MacIntel,50,62bbe60bf3d75ef465d3e404,0,51,51,43,1,twofour,,,,,,,,,,,,,,,,,,,,,,,,,,,,,,,,,,,,,,,,,,,,,,,,,,,,,,,,,,,,,,,,,,,,,,,,,,,,,,,,,,,,,,,,,,,,,,,,,,,,,,,,,,,,,,,,,,,,,,,,,,,,,,,,,,,,,,,,,,,,,,,,,,,,,,,,
,,,,,,6161508f9ab3db3622471e87,62bbf9fbe61a9153e4d8e9c0,2022-06-29_10h06.58.408,Colour_Asymmetry_Pilot,2022.1.3,MacIntel,50,62bbe60bf3d75ef465d3e404,0,52,52,134,1,fourtwo,,,,,,,,,,,,,,,,,,,,,,,,,,,,,,,,,,,,,,,,,,,,,,,,,,,,,,,,,,,,,,,,,,,,,,,,,,,,,,,,,,,,,,,,,,,,,,,,,,,,,,,,,,,,,,,,,,,,,,,,,,,,,,,,,,,,,,,,,,,,,,,,,,,,,,,,
,,,,,,6161508f9ab3db3622471e87,62bbf9fbe61a9153e4d8e9c0,2022-06-29_10h06.58.408,Colour_Asymmetry_Pilot,2022.1.3,MacIntel,50,62bbe60bf3d75ef465d3e404,0,53,53,113,1,onethree,,,,,,,,,,,,,,,,,,,,,,,,,,,,,,,,,,,,,,,,,,,,,,,,,,,,,,,,,,,,,,,,,,,,,,,,,,,,,,,,,,,,,,,,,,,,,,,,,,,,,,,,,,,,,,,,,,,,,,,,,,,,,,,,,,,,,,,,,,,,,,,,,,,,,,,,
,,,,,,6161508f9ab3db3622471e87,62bbf9fbe61a9153e4d8e9c0,2022-06-29_10h06.58.408,Colour_Asymmetry_Pilot,2022.1.3,MacIntel,50,62bbe60bf3d75ef465d3e404,0,54,54,12,1,threeone,,,,,,,,,,,,,,,,,,,,,,,,,,,,,,,,,,,,,,,,,,,,,,,,,,,,,,,,,,,,,,,,,,,,,,,,,,,,,,,,,,,,,,,,,,,,,,,,,,,,,,,,,,,,,,,,,,,,,,,,,,,,,,,,,,,,,,,,,,,,,,,,,,,,,,,,
,,,,,,6161508f9ab3db3622471e87,62bbf9fbe61a9153e4d8e9c0,2022-06-29_10h06.58.408,Colour_Asymmetry_Pilot,2022.1.3,MacIntel,50,62bbe60bf3d75ef465d3e404,0,55,55,17,1,onethree,,,,,,,,,,,,,,,,,,,,,,,,,,,,,,,,,,,,,,,,,,,,,,,,,,,,,,,,,,,,,,,,,,,,,,,,,,,,,,,,,,,,,,,,,,,,,,,,,,,,,,,,,,,,,,,,,,,,,,,,,,,,,,,,,,,,,,,,,,,,,,,,,,,,,,,,
,,,,,,6161508f9ab3db3622471e87,62bbf9fbe61a9153e4d8e9c0,2022-06-29_10h06.58.408,Colour_Asymmetry_Pilot,2022.1.3,MacIntel,50,62bbe60bf3d75ef465d3e404,0,56,56,61,1,threefour,,,,,,,,,,,,,,,,,,,,,,,,,,,,,,,,,,,,,,,,,,,,,,,,,,,,,,,,,,,,,,,,,,,,,,,,,,,,,,,,,,,,,,,,,,,,,,,,,,,,,,,,,,,,,,,,,,,,,,,,,,,,,,,,,,,,,,,,,,,,,,,,,,,,,,,,
,,,,,,6161508f9ab3db3622471e87,62bbf9fbe61a9153e4d8e9c0,2022-06-29_10h06.58.408,Colour_Asymmetry_Pilot,2022.1.3,MacIntel,50,62bbe60bf3d75ef465d3e404,0,57,57,16,1,onetwo,,,,,,,,,,,,,,,,,,,,,,,,,,,,,,,,,,,,,,,,,,,,,,,,,,,,,,,,,,,,,,,,,,,,,,,,,,,,,,,,,,,,,,,,,,,,,,,,,,,,,,,,,,,,,,,,,,,,,,,,,,,,,,,,,,,,,,,,,,,,,,,,,,,,,,,,
,,,,,,6161508f9ab3db3622471e87,62bbf9fbe61a9153e4d8e9c0,2022-06-29_10h06.58.408,Colour_Asymmetry_Pilot,2022.1.3,MacIntel,50,62bbe60bf3d75ef465d3e404,0,58,58,93,1,threefour,,,,,,,,,,,,,,,,,,,,,,,,,,,,,,,,,,,,,,,,,,,,,,,,,,,,,,,,,,,,,,,,,,,,,,,,,,,,,,,,,,,,,,,,,,,,,,,,,,,,,,,,,,,,,,,,,,,,,,,,,,,,,,,,,,,,,,,,,,,,,,,,,,,,,,,,
,,,,,,6161508f9ab3db3622471e87,62bbf9fbe61a9153e4d8e9c0,2022-06-29_10h06.58.408,Colour_Asymmetry_Pilot,2022.1.3,MacIntel,50,62bbe60bf3d75ef465d3e404,0,59,59,107,1,twofour,,,,,,,,,,,,,,,,,,,,,,,,,,,,,,,,,,,,,,,,,,,,,,,,,,,,,,,,,,,,,,,,,,,,,,,,,,,,,,,,,,,,,,,,,,,,,,,,,,,,,,,,,,,,,,,,,,,,,,,,,,,,,,,,,,,,,,,,,,,,,,,,,,,,,,,,
,,,,,,6161508f9ab3db3622471e87,62bbf9fbe61a9153e4d8e9c0,2022-06-29_10h06.58.408,Colour_Asymmetry_Pilot,2022.1.3,MacIntel,50,62bbe60bf3d75ef465d3e404,0,60,60,23,1,fourthree,,,,,,,,,,,,,,,,,,,,,,,,,,,,,,,,,,,,,,,,,,,,,,,,,,,,,,,,,,,,,,,,,,,,,,,,,,,,,,,,,,,,,,,,,,,,,,,,,,,,,,,,,,,,,,,,,,,,,,,,,,,,,,,,,,,,,,,,,,,,,,,,,,,,,,,,
,,,,,,6161508f9ab3db3622471e87,62bbf9fbe61a9153e4d8e9c0,2022-06-29_10h06.58.408,Colour_Asymmetry_Pilot,2022.1.3,MacIntel,50,62bbe60bf3d75ef465d3e404,0,61,61,109,1,threefour,,,,,,,,,,,,,,,,,,,,,,,,,,,,,,,,,,,,,,,,,,,,,,,,,,,,,,,,,,,,,,,,,,,,,,,,,,,,,,,,,,,,,,,,,,,,,,,,,,,,,,,,,,,,,,,,,,,,,,,,,,,,,,,,,,,,,,,,,,,,,,,,,,,,,,,,
,,,,,,6161508f9ab3db3622471e87,62bbf9fbe61a9153e4d8e9c0,2022-06-29_10h06.58.408,Colour_Asymmetry_Pilot,2022.1.3,MacIntel,50,62bbe60bf3d75ef465d3e404,0,62,62,46,1,fourtwo,,,,,,,,,,,,,,,,,,,,,,,,,,,,,,,,,,,,,,,,,,,,,,,,,,,,,,,,,,,,,,,,,,,,,,,,,,,,,,,,,,,,,,,,,,,,,,,,,,,,,,,,,,,,,,,,,,,,,,,,,,,,,,,,,,,,,,,,,,,,,,,,,,,,,,,,
,,,,,,6161508f9ab3db3622471e87,62bbf9fbe61a9153e4d8e9c0,2022-06-29_10h06.58.408,Colour_Asymmetry_Pilot,2022.1.3,MacIntel,50,62bbe60bf3d75ef465d3e404,0,63,63,128,1,onetwo,,,,,,,,,,,,,,,,,,,,,,,,,,,,,,,,,,,,,,,,,,,,,,,,,,,,,,,,,,,,,,,,,,,,,,,,,,,,,,,,,,,,,,,,,,,,,,,,,,,,,,,,,,,,,,,,,,,,,,,,,,,,,,,,,,,,,,,,,,,,,,,,,,,,,,,,
,,,,,,6161508f9ab3db3622471e87,62bbf9fbe61a9153e4d8e9c0,2022-06-29_10h06.58.408,Colour_Asymmetry_Pilot,2022.1.3,MacIntel,50,62bbe60bf3d75ef465d3e404,0,64,64,28,1,threeone,,,,,,,,,,,,,,,,,,,,,,,,,,,,,,,,,,,,,,,,,,,,,,,,,,,,,,,,,,,,,,,,,,,,,,,,,,,,,,,,,,,,,,,,,,,,,,,,,,,,,,,,,,,,,,,,,,,,,,,,,,,,,,,,,,,,,,,,,,,,,,,,,,,,,,,,
,,,,,,6161508f9ab3db3622471e87,62bbf9fbe61a9153e4d8e9c0,2022-06-29_10h06.58.408,Colour_Asymmetry_Pilot,2022.1.3,MacIntel,50,62bbe60bf3d75ef465d3e404,0,65,65,136,1,onetwo,,,,,,,,,,,,,,,,,,,,,,,,,,,,,,,,,,,,,,,,,,,,,,,,,,,,,,,,,,,,,,,,,,,,,,,,,,,,,,,,,,,,,,,,,,,,,,,,,,,,,,,,,,,,,,,,,,,,,,,,,,,,,,,,,,,,,,,,,,,,,,,,,,,,,,,,
,,,,,,6161508f9ab3db3622471e87,62bbf9fbe61a9153e4d8e9c0,2022-06-29_10h06.58.408,Colour_Asymmetry_Pilot,2022.1.3,MacIntel,50,62bbe60bf3d75ef465d3e404,0,66,66,91,1,twofour,,,,,,,,,,,,,,,,,,,,,,,,,,,,,,,,,,,,,,,,,,,,,,,,,,,,,,,,,,,,,,,,,,,,,,,,,,,,,,,,,,,,,,,,,,,,,,,,,,,,,,,,,,,,,,,,,,,,,,,,,,,,,,,,,,,,,,,,,,,,,,,,,,,,,,,,
,,,,,,6161508f9ab3db3622471e87,62bbf9fbe61a9153e4d8e9c0,2022-06-29_10h06.58.408,Colour_Asymmetry_Pilot,2022.1.3,MacIntel,50,62bbe60bf3d75ef465d3e404,0,67,67,132,1,threeone,,,,,,,,,,,,,,,,,,,,,,,,,,,,,,,,,,,,,,,,,,,,,,,,,,,,,,,,,,,,,,,,,,,,,,,,,,,,,,,,,,,,,,,,,,,,,,,,,,,,,,,,,,,,,,,,,,,,,,,,,,,,,,,,,,,,,,,,,,,,,,,,,,,,,,,,
,,,,,,6161508f9ab3db3622471e87,62bbf9fbe61a9153e4d8e9c0,2022-06-29_10h06.58.408,Colour_Asymmetry_Pilot,2022.1.3,MacIntel,50,62bbe60bf3d75ef465d3e404,0,68,68,122,1,twoone,,,,,,,,,,,,,,,,,,,,,,,,,,,,,,,,,,,,,,,,,,,,,,,,,,,,,,,,,,,,,,,,,,,,,,,,,,,,,,,,,,,,,,,,,,,,,,,,,,,,,,,,,,,,,,,,,,,,,,,,,,,,,,,,,,,,,,,,,,,,,,,,,,,,,,,,
,,,,,,6161508f9ab3db3622471e87,62bbf9fbe61a9153e4d8e9c0,2022-06-29_10h06.58.408,Colour_Asymmetry_Pilot,2022.1.3,MacIntel,50,62bbe60bf3d75ef465d3e404,0,69,69,66,1,twoone,,,,,,,,,,,,,,,,,,,,,,,,,,,,,,,,,,,,,,,,,,,,,,,,,,,,,,,,,,,,,,,,,,,,,,,,,,,,,,,,,,,,,,,,,,,,,,,,,,,,,,,,,,,,,,,,,,,,,,,,,,,,,,,,,,,,,,,,,,,,,,,,,,,,,,,,
,,,,,,6161508f9ab3db3622471e87,62bbf9fbe61a9153e4d8e9c0,2022-06-29_10h06.58.408,Colour_Asymmetry_Pilot,2022.1.3,MacIntel,50,62bbe60bf3d75ef465d3e404,0,70,70,13,1,threefour,,,,,,,,,,,,,,,,,,,,,,,,,,,,,,,,,,,,,,,,,,,,,,,,,,,,,,,,,,,,,,,,,,,,,,,,,,,,,,,,,,,,,,,,,,,,,,,,,,,,,,,,,,,,,,,,,,,,,,,,,,,,,,,,,,,,,,,,,,,,,,,,,,,,,,,,
,,,,,,6161508f9ab3db3622471e87,62bbf9fbe61a9153e4d8e9c0,2022-06-29_10h06.58.408,Colour_Asymmetry_Pilot,2022.1.3,MacIntel,50,62bbe60bf3d75ef465d3e404,0,71,71,53,1,threefour,,,,,,,,,,,,,,,,,,,,,,,,,,,,,,,,,,,,,,,,,,,,,,,,,,,,,,,,,,,,,,,,,,,,,,,,,,,,,,,,,,,,,,,,,,,,,,,,,,,,,,,,,,,,,,,,,,,,,,,,,,,,,,,,,,,,,,,,,,,,,,,,,,,,,,,,
,,,,,,6161508f9ab3db3622471e87,62bbf9fbe61a9153e4d8e9c0,2022-06-29_10h06.58.408,Colour_Asymmetry_Pilot,2022.1.3,MacIntel,50,62bbe60bf3d75ef465d3e404,0,72,72,49,1,onethree,,,,,,,,,,,,,,,,,,,,,,,,,,,,,,,,,,,,,,,,,,,,,,,,,,,,,,,,,,,,,,,,,,,,,,,,,,,,,,,,,,,,,,,,,,,,,,,,,,,,,,,,,,,,,,,,,,,,,,,,,,,,,,,,,,,,,,,,,,,,,,,,,,,,,,,,
,,,,,,6161508f9ab3db3622471e87,62bbf9fbe61a9153e4d8e9c0,2022-06-29_10h06.58.408,Colour_Asymmetry_Pilot,2022.1.3,MacIntel,50,62bbe60bf3d75ef465d3e404,0,73,73,160,1,onetwo,,,,,,,,,,,,,,,,,,,,,,,,,,,,,,,,,,,,,,,,,,,,,,,,,,,,,,,,,,,,,,,,,,,,,,,,,,,,,,,,,,,,,,,,,,,,,,,,,,,,,,,,,,,,,,,,,,,,,,,,,,,,,,,,,,,,,,,,,,,,,,,,,,,,,,,,
,,,,,,6161508f9ab3db3622471e87,62bbf9fbe61a9153e4d8e9c0,2022-06-29_10h06.58.408,Colour_Asymmetry_Pilot,2022.1.3,MacIntel,50,62bbe60bf3d75ef465d3e404,0,74,74,99,1,twofour,,,,,,,,,,,,,,,,,,,,,,,,,,,,,,,,,,,,,,,,,,,,,,,,,,,,,,,,,,,,,,,,,,,,,,,,,,,,,,,,,,,,,,,,,,,,,,,,,,,,,,,,,,,,,,,,,,,,,,,,,,,,,,,,,,,,,,,,,,,,,,,,,,,,,,,,
,,,,,,6161508f9ab3db3622471e87,62bbf9fbe61a9153e4d8e9c0,2022-06-29_10h06.58.408,Colour_Asymmetry_Pilot,2022.1.3,MacIntel,50,62bbe60bf3d75ef465d3e404,0,75,75,154,1,twoone,,,,,,,,,,,,,,,,,,,,,,,,,,,,,,,,,,,,,,,,,,,,,,,,,,,,,,,,,,,,,,,,,,,,,,,,,,,,,,,,,,,,,,,,,,,,,,,,,,,,,,,,,,,,,,,,,,,,,,,,,,,,,,,,,,,,,,,,,,,,,,,,,,,,,,,,
,,,,,,6161508f9ab3db3622471e87,62bbf9fbe61a9153e4d8e9c0,2022-06-29_10h06.58.408,Colour_Asymmetry_Pilot,2022.1.3,MacIntel,50,62bbe60bf3d75ef465d3e404,0,76,76,50,1,twoone,,,,,,,,,,,,,,,,,,,,,,,,,,,,,,,,,,,,,,,,,,,,,,,,,,,,,,,,,,,,,,,,,,,,,,,,,,,,,,,,,,,,,,,,,,,,,,,,,,,,,,,,,,,,,,,,,,,,,,,,,,,,,,,,,,,,,,,,,,,,,,,,,,,,,,,,
,,,,,,6161508f9ab3db3622471e87,62bbf9fbe61a9153e4d8e9c0,2022-06-29_10h06.58.408,Colour_Asymmetry_Pilot,2022.1.3,MacIntel,50,62bbe60bf3d75ef465d3e404,0,77,77,76,1,threeone,,,,,,,,,,,,,,,,,,,,,,,,,,,,,,,,,,,,,,,,,,,,,,,,,,,,,,,,,,,,,,,,,,,,,,,,,,,,,,,,,,,,,,,,,,,,,,,,,,,,,,,,,,,,,,,,,,,,,,,,,,,,,,,,,,,,,,,,,,,,,,,,,,,,,,,,
,,,,,,6161508f9ab3db3622471e87,62bbf9fbe61a9153e4d8e9c0,2022-06-29_10h06.58.408,Colour_Asymmetry_Pilot,2022.1.3,MacIntel,50,62bbe60bf3d75ef465d3e404,0,78,78,86,1,fourtwo,,,,,,,,,,,,,,,,,,,,,,,,,,,,,,,,,,,,,,,,,,,,,,,,,,,,,,,,,,,,,,,,,,,,,,,,,,,,,,,,,,,,,,,,,,,,,,,,,,,,,,,,,,,,,,,,,,,,,,,,,,,,,,,,,,,,,,,,,,,,,,,,,,,,,,,,
,,,,,,6161508f9ab3db3622471e87,62bbf9fbe61a9153e4d8e9c0,2022-06-29_10h06.58.408,Colour_Asymmetry_Pilot,2022.1.3,MacIntel,50,62bbe60bf3d75ef465d3e404,0,79,79,97,1,onethree,,,,,,,,,,,,,,,,,,,,,,,,,,,,,,,,,,,,,,,,,,,,,,,,,,,,,,,,,,,,,,,,,,,,,,,,,,,,,,,,,,,,,,,,,,,,,,,,,,,,,,,,,,,,,,,,,,,,,,,,,,,,,,,,,,,,,,,,,,,,,,,,,,,,,,,,
,,,,,,6161508f9ab3db3622471e87,62bbf9fbe61a9153e4d8e9c0,2022-06-29_10h06.58.408,Colour_Asymmetry_Pilot,2022.1.3,MacIntel,50,62bbe60bf3d75ef465d3e404,0,80,80,108,1,threeone,,,,,,,,,,,,,,,,,,,,,,,,,,,,,,,,,,,,,,,,,,,,,,,,,,,,,,,,,,,,,,,,,,,,,,,,,,,,,,,,,,,,,,,,,,,,,,,,,,,,,,,,,,,,,,,,,,,,,,,,,,,,,,,,,,,,,,,,,,,,,,,,,,,,,,,,
,,,,,,6161508f9ab3db3622471e87,62bbf9fbe61a9153e4d8e9c0,2022-06-29_10h06.58.408,Colour_Asymmetry_Pilot,2022.1.3,MacIntel,50,62bbe60bf3d75ef465d3e404,0,81,81,102,1,fourtwo,,,,,,,,,,,,,,,,,,,,,,,,,,,,,,,,,,,,,,,,,,,,,,,,,,,,,,,,,,,,,,,,,,,,,,,,,,,,,,,,,,,,,,,,,,,,,,,,,,,,,,,,,,,,,,,,,,,,,,,,,,,,,,,,,,,,,,,,,,,,,,,,,,,,,,,,
,,,,,,6161508f9ab3db3622471e87,62bbf9fbe61a9153e4d8e9c0,2022-06-29_10h06.58.408,Colour_Asymmetry_Pilot,2022.1.3,MacIntel,50,62bbe60bf3d75ef465d3e404,0,82,82,106,1,twoone,,,,,,,,,,,,,,,,,,,,,,,,,,,,,,,,,,,,,,,,,,,,,,,,,,,,,,,,,,,,,,,,,,,,,,,,,,,,,,,,,,,,,,,,,,,,,,,,,,,,,,,,,,,,,,,,,,,,,,,,,,,,,,,,,,,,,,,,,,,,,,,,,,,,,,,,
,,,,,,6161508f9ab3db3622471e87,62bbf9fbe61a9153e4d8e9c0,2022-06-29_10h06.58.408,Colour_Asymmetry_Pilot,2022.1.3,MacIntel,50,62bbe60bf3d75ef465d3e404,0,83,83,42,1,twoone,,,,,,,,,,,,,,,,,,,,,,,,,,,,,,,,,,,,,,,,,,,,,,,,,,,,,,,,,,,,,,,,,,,,,,,,,,,,,,,,,,,,,,,,,,,,,,,,,,,,,,,,,,,,,,,,,,,,,,,,,,,,,,,,,,,,,,,,,,,,,,,,,,,,,,,,
,,,,,,6161508f9ab3db3622471e87,62bbf9fbe61a9153e4d8e9c0,2022-06-29_10h06.58.408,Colour_Asymmetry_Pilot,2022.1.3,MacIntel,50,62bbe60bf3d75ef465d3e404,0,84,84,56,1,onetwo,,,,,,,,,,,,,,,,,,,,,,,,,,,,,,,,,,,,,,,,,,,,,,,,,,,,,,,,,,,,,,,,,,,,,,,,,,,,,,,,,,,,,,,,,,,,,,,,,,,,,,,,,,,,,,,,,,,,,,,,,,,,,,,,,,,,,,,,,,,,,,,,,,,,,,,,
,,,,,,6161508f9ab3db3622471e87,62bbf9fbe61a9153e4d8e9c0,2022-06-29_10h06.58.408,Colour_Asymmetry_Pilot,2022.1.3,MacIntel,50,62bbe60bf3d75ef465d3e404,0,85,85,104,1,onetwo,,,,,,,,,,,,,,,,,,,,,,,,,,,,,,,,,,,,,,,,,,,,,,,,,,,,,,,,,,,,,,,,,,,,,,,,,,,,,,,,,,,,,,,,,,,,,,,,,,,,,,,,,,,,,,,,,,,,,,,,,,,,,,,,,,,,,,,,,,,,,,,,,,,,,,,,
,,,,,,6161508f9ab3db3622471e87,62bbf9fbe61a9153e4d8e9c0,2022-06-29_10h06.58.408,Colour_Asymmetry_Pilot,2022.1.3,MacIntel,50,62bbe60bf3d75ef465d3e404,0,86,86,98,1,twoone,,,,,,,,,,,,,,,,,,,,,,,,,,,,,,,,,,,,,,,,,,,,,,,,,,,,,,,,,,,,,,,,,,,,,,,,,,,,,,,,,,,,,,,,,,,,,,,,,,,,,,,,,,,,,,,,,,,,,,,,,,,,,,,,,,,,,,,,,,,,,,,,,,,,,,,,
,,,,,,6161508f9ab3db3622471e87,62bbf9fbe61a9153e4d8e9c0,2022-06-29_10h06.58.408,Colour_Asymmetry_Pilot,2022.1.3,MacIntel,50,62bbe60bf3d75ef465d3e404,0,87,87,94,1,fourtwo,,,,,,,,,,,,,,,,,,,,,,,,,,,,,,,,,,,,,,,,,,,,,,,,,,,,,,,,,,,,,,,,,,,,,,,,,,,,,,,,,,,,,,,,,,,,,,,,,,,,,,,,,,,,,,,,,,,,,,,,,,,,,,,,,,,,,,,,,,,,,,,,,,,,,,,,
,,,,,,6161508f9ab3db3622471e87,62bbf9fbe61a9153e4d8e9c0,2022-06-29_10h06.58.408,Colour_Asymmetry_Pilot,2022.1.3,MacIntel,50,62bbe60bf3d75ef465d3e404,0,88,88,126,1,fourtwo,,,,,,,,,,,,,,,,,,,,,,,,,,,,,,,,,,,,,,,,,,,,,,,,,,,,,,,,,,,,,,,,,,,,,,,,,,,,,,,,,,,,,,,,,,,,,,,,,,,,,,,,,,,,,,,,,,,,,,,,,,,,,,,,,,,,,,,,,,,,,,,,,,,,,,,,
,,,,,,6161508f9ab3db3622471e87,62bbf9fbe61a9153e4d8e9c0,2022-06-29_10h06.58.408,Colour_Asymmetry_Pilot,2022.1.3,MacIntel,50,62bbe60bf3d75ef465d3e404,0,89,89,3,1,twofour,,,,,,,,,,,,,,,,,,,,,,,,,,,,,,,,,,,,,,,,,,,,,,,,,,,,,,,,,,,,,,,,,,,,,,,,,,,,,,,,,,,,,,,,,,,,,,,,,,,,,,,,,,,,,,,,,,,,,,,,,,,,,,,,,,,,,,,,,,,,,,,,,,,,,,,,
,,,,,,6161508f9ab3db3622471e87,62bbf9fbe61a9153e4d8e9c0,2022-06-29_10h06.58.408,Colour_Asymmetry_Pilot,2022.1.3,MacIntel,50,62bbe60bf3d75ef465d3e404,0,90,90,55,1,fourthree,,,,,,,,,,,,,,,,,,,,,,,,,,,,,,,,,,,,,,,,,,,,,,,,,,,,,,,,,,,,,,,,,,,,,,,,,,,,,,,,,,,,,,,,,,,,,,,,,,,,,,,,,,,,,,,,,,,,,,,,,,,,,,,,,,,,,,,,,,,,,,,,,,,,,,,,
,,,,,,6161508f9ab3db3622471e87,62bbf9fbe61a9153e4d8e9c0,2022-06-29_10h06.58.408,Colour_Asymmetry_Pilot,2022.1.3,MacIntel,50,62bbe60bf3d75ef465d3e404,0,91,91,95,1,fourthree,,,,,,,,,,,,,,,,,,,,,,,,,,,,,,,,,,,,,,,,,,,,,,,,,,,,,,,,,,,,,,,,,,,,,,,,,,,,,,,,,,,,,,,,,,,,,,,,,,,,,,,,,,,,,,,,,,,,,,,,,,,,,,,,,,,,,,,,,,,,,,,,,,,,,,,,
,,,,,,6161508f9ab3db3622471e87,62bbf9fbe61a9153e4d8e9c0,2022-06-29_10h06.58.408,Colour_Asymmetry_Pilot,2022.1.3,MacIntel,50,62bbe60bf3d75ef465d3e404,0,92,92,48,1,onetwo,,,,,,,,,,,,,,,,,,,,,,,,,,,,,,,,,,,,,,,,,,,,,,,,,,,,,,,,,,,,,,,,,,,,,,,,,,,,,,,,,,,,,,,,,,,,,,,,,,,,,,,,,,,,,,,,,,,,,,,,,,,,,,,,,,,,,,,,,,,,,,,,,,,,,,,,
,,,,,,6161508f9ab3db3622471e87,62bbf9fbe61a9153e4d8e9c0,2022-06-29_10h06.58.408,Colour_Asymmetry_Pilot,2022.1.3,MacIntel,50,62bbe60bf3d75ef465d3e404,0,93,93,121,1,onethree,,,,,,,,,,,,,,,,,,,,,,,,,,,,,,,,,,,,,,,,,,,,,,,,,,,,,,,,,,,,,,,,,,,,,,,,,,,,,,,,,,,,,,,,,,,,,,,,,,,,,,,,,,,,,,,,,,,,,,,,,,,,,,,,,,,,,,,,,,,,,,,,,,,,,,,,
,,,,,,6161508f9ab3db3622471e87,62bbf9fbe61a9153e4d8e9c0,2022-06-29_10h06.58.408,Colour_Asymmetry_Pilot,2022.1.3,MacIntel,50,62bbe60bf3d75ef465d3e404,0,94,94,101,1,threefour,,,,,,,,,,,,,,,,,,,,,,,,,,,,,,,,,,,,,,,,,,,,,,,,,,,,,,,,,,,,,,,,,,,,,,,,,,,,,,,,,,,,,,,,,,,,,,,,,,,,,,,,,,,,,,,,,,,,,,,,,,,,,,,,,,,,,,,,,,,,,,,,,,,,,,,,
,,,,,,6161508f9ab3db3622471e87,62bbf9fbe61a9153e4d8e9c0,2022-06-29_10h06.58.408,Colour_Asymmetry_Pilot,2022.1.3,MacIntel,50,62bbe60bf3d75ef465d3e404,0,95,95,30,1,fourtwo,,,,,,,,,,,,,,,,,,,,,,,,,,,,,,,,,,,,,,,,,,,,,,,,,,,,,,,,,,,,,,,,,,,,,,,,,,,,,,,,,,,,,,,,,,,,,,,,,,,,,,,,,,,,,,,,,,,,,,,,,,,,,,,,,,,,,,,,,,,,,,,,,,,,,,,,
,,,,,,6161508f9ab3db3622471e87,62bbf9fbe61a9153e4d8e9c0,2022-06-29_10h06.58.408,Colour_Asymmetry_Pilot,2022.1.3,MacIntel,50,62bbe60bf3d75ef465d3e404,0,96,96,59,1,twofour,,,,,,,,,,,,,,,,,,,,,,,,,,,,,,,,,,,,,,,,,,,,,,,,,,,,,,,,,,,,,,,,,,,,,,,,,,,,,,,,,,,,,,,,,,,,,,,,,,,,,,,,,,,,,,,,,,,,,,,,,,,,,,,,,,,,,,,,,,,,,,,,,,,,,,,,
,,,,,,6161508f9ab3db3622471e87,62bbf9fbe61a9153e4d8e9c0,2022-06-29_10h06.58.408,Colour_Asymmetry_Pilot,2022.1.3,MacIntel,50,62bbe60bf3d75ef465d3e404,0,97,97,149,1,threefour,,,,,,,,,,,,,,,,,,,,,,,,,,,,,,,,,,,,,,,,,,,,,,,,,,,,,,,,,,,,,,,,,,,,,,,,,,,,,,,,,,,,,,,,,,,,,,,,,,,,,,,,,,,,,,,,,,,,,,,,,,,,,,,,,,,,,,,,,,,,,,,,,,,,,,,,
,,,,,,6161508f9ab3db3622471e87,62bbf9fbe61a9153e4d8e9c0,2022-06-29_10h06.58.408,Colour_Asymmetry_Pilot,2022.1.3,MacIntel,50,62bbe60bf3d75ef465d3e404,0,98,98,145,1,onethree,,,,,,,,,,,,,,,,,,,,,,,,,,,,,,,,,,,,,,,,,,,,,,,,,,,,,,,,,,,,,,,,,,,,,,,,,,,,,,,,,,,,,,,,,,,,,,,,,,,,,,,,,,,,,,,,,,,,,,,,,,,,,,,,,,,,,,,,,,,,,,,,,,,,,,,,
,,,,,,6161508f9ab3db3622471e87,62bbf9fbe61a9153e4d8e9c0,2022-06-29_10h06.58.408,Colour_Asymmetry_Pilot,2022.1.3,MacIntel,50,62bbe60bf3d75ef465d3e404,0,99,99,34,1,twoone,,,,,,,,,,,,,,,,,,,,,,,,,,,,,,,,,,,,,,,,,,,,,,,,,,,,,,,,,,,,,,,,,,,,,,,,,,,,,,,,,,,,,,,,,,,,,,,,,,,,,,,,,,,,,,,,,,,,,,,,,,,,,,,,,,,,,,,,,,,,,,,,,,,,,,,,
,,,,,,6161508f9ab3db3622471e87,62bbf9fbe61a9153e4d8e9c0,2022-06-29_10h06.58.408,Colour_Asymmetry_Pilot,2022.1.3,MacIntel,50,62bbe60bf3d75ef465d3e404,0,100,100,146,1,twoone,,,,,,,,,,,,,,,,,,,,,,,,,,,,,,,,,,,,,,,,,,,,,,,,,,,,,,,,,,,,,,,,,,,,,,,,,,,,,,,,,,,,,,,,,,,,,,,,,,,,,,,,,,,,,,,,,,,,,,,,,,,,,,,,,,,,,,,,,,,,,,,,,,,,,,,,
,,,,,,6161508f9ab3db3622471e87,62bbf9fbe61a9153e4d8e9c0,2022-06-29_10h06.58.408,Colour_Asymmetry_Pilot,2022.1.3,MacIntel,50,62bbe60bf3d75ef465d3e404,0,101,101,133,1,threefour,,,,,,,,,,,,,,,,,,,,,,,,,,,,,,,,,,,,,,,,,,,,,,,,,,,,,,,,,,,,,,,,,,,,,,,,,,,,,,,,,,,,,,,,,,,,,,,,,,,,,,,,,,,,,,,,,,,,,,,,,,,,,,,,,,,,,,,,,,,,,,,,,,,,,,,,
,,,,,,6161508f9ab3db3622471e87,62bbf9fbe61a9153e4d8e9c0,2022-06-29_10h06.58.408,Colour_Asymmetry_Pilot,2022.1.3,MacIntel,50,62bbe60bf3d75ef465d3e404,0,102,102,44,1,threeone,,,,,,,,,,,,,,,,,,,,,,,,,,,,,,,,,,,,,,,,,,,,,,,,,,,,,,,,,,,,,,,,,,,,,,,,,,,,,,,,,,,,,,,,,,,,,,,,,,,,,,,,,,,,,,,,,,,,,,,,,,,,,,,,,,,,,,,,,,,,,,,,,,,,,,,,
,,,,,,6161508f9ab3db3622471e87,62bbf9fbe61a9153e4d8e9c0,2022-06-29_10h06.58.408,Colour_Asymmetry_Pilot,2022.1.3,MacIntel,50,62bbe60bf3d75ef465d3e404,0,103,103,45,1,threefour,,,,,,,,,,,,,,,,,,,,,,,,,,,,,,,,,,,,,,,,,,,,,,,,,,,,,,,,,,,,,,,,,,,,,,,,,,,,,,,,,,,,,,,,,,,,,,,,,,,,,,,,,,,,,,,,,,,,,,,,,,,,,,,,,,,,,,,,,,,,,,,,,,,,,,,,
,,,,,,6161508f9ab3db3622471e87,62bbf9fbe61a9153e4d8e9c0,2022-06-29_10h06.58.408,Colour_Asymmetry_Pilot,2022.1.3,MacIntel,50,62bbe60bf3d75ef465d3e404,0,104,104,9,1,onethree,,,,,,,,,,,,,,,,,,,,,,,,,,,,,,,,,,,,,,,,,,,,,,,,,,,,,,,,,,,,,,,,,,,,,,,,,,,,,,,,,,,,,,,,,,,,,,,,,,,,,,,,,,,,,,,,,,,,,,,,,,,,,,,,,,,,,,,,,,,,,,,,,,,,,,,,
,,,,,,6161508f9ab3db3622471e87,62bbf9fbe61a9153e4d8e9c0,2022-06-29_10h06.58.408,Colour_Asymmetry_Pilot,2022.1.3,MacIntel,50,62bbe60bf3d75ef465d3e404,0,105,105,123,1,twofour,,,,,,,,,,,,,,,,,,,,,,,,,,,,,,,,,,,,,,,,,,,,,,,,,,,,,,,,,,,,,,,,,,,,,,,,,,,,,,,,,,,,,,,,,,,,,,,,,,,,,,,,,,,,,,,,,,,,,,,,,,,,,,,,,,,,,,,,,,,,,,,,,,,,,,,,
,,,,,,6161508f9ab3db3622471e87,62bbf9fbe61a9153e4d8e9c0,2022-06-29_10h06.58.408,Colour_Asymmetry_Pilot,2022.1.3,MacIntel,50,62bbe60bf3d75ef465d3e404,0,106,106,96,1,onetwo,,,,,,,,,,,,,,,,,,,,,,,,,,,,,,,,,,,,,,,,,,,,,,,,,,,,,,,,,,,,,,,,,,,,,,,,,,,,,,,,,,,,,,,,,,,,,,,,,,,,,,,,,,,,,,,,,,,,,,,,,,,,,,,,,,,,,,,,,,,,,,,,,,,,,,,,
,,,,,,6161508f9ab3db3622471e87,62bbf9fbe61a9153e4d8e9c0,2022-06-29_10h06.58.408,Colour_Asymmetry_Pilot,2022.1.3,MacIntel,50,62bbe60bf3d75ef465d3e404,0,107,107,52,1,threeone,,,,,,,,,,,,,,,,,,,,,,,,,,,,,,,,,,,,,,,,,,,,,,,,,,,,,,,,,,,,,,,,,,,,,,,,,,,,,,,,,,,,,,,,,,,,,,,,,,,,,,,,,,,,,,,,,,,,,,,,,,,,,,,,,,,,,,,,,,,,,,,,,,,,,,,,
,,,,,,6161508f9ab3db3622471e87,62bbf9fbe61a9153e4d8e9c0,2022-06-29_10h06.58.408,Colour_Asymmetry_Pilot,2022.1.3,MacIntel,50,62bbe60bf3d75ef465d3e404,0,108,108,38,1,fourtwo,,,,,,,,,,,,,,,,,,,,,,,,,,,,,,,,,,,,,,,,,,,,,,,,,,,,,,,,,,,,,,,,,,,,,,,,,,,,,,,,,,,,,,,,,,,,,,,,,,,,,,,,,,,,,,,,,,,,,,,,,,,,,,,,,,,,,,,,,,,,,,,,,,,,,,,,
,,,,,,6161508f9ab3db3622471e87,62bbf9fbe61a9153e4d8e9c0,2022-06-29_10h06.58.408,Colour_Asymmetry_Pilot,2022.1.3,MacIntel,50,62bbe60bf3d75ef465d3e404,0,109,109,140,1,threeone,,,,,,,,,,,,,,,,,,,,,,,,,,,,,,,,,,,,,,,,,,,,,,,,,,,,,,,,,,,,,,,,,,,,,,,,,,,,,,,,,,,,,,,,,,,,,,,,,,,,,,,,,,,,,,,,,,,,,,,,,,,,,,,,,,,,,,,,,,,,,,,,,,,,,,,,
,,,,,,6161508f9ab3db3622471e87,62bbf9fbe61a9153e4d8e9c0,2022-06-29_10h06.58.408,Colour_Asymmetry_Pilot,2022.1.3,MacIntel,50,62bbe60bf3d75ef465d3e404,0,110,110,127,1,fourthree,,,,,,,,,,,,,,,,,,,,,,,,,,,,,,,,,,,,,,,,,,,,,,,,,,,,,,,,,,,,,,,,,,,,,,,,,,,,,,,,,,,,,,,,,,,,,,,,,,,,,,,,,,,,,,,,,,,,,,,,,,,,,,,,,,,,,,,,,,,,,,,,,,,,,,,,
,,,,,,6161508f9ab3db3622471e87,62bbf9fbe61a9153e4d8e9c0,2022-06-29_10h06.58.408,Colour_Asymmetry_Pilot,2022.1.3,MacIntel,50,62bbe60bf3d75ef465d3e404,0,111,111,68,1,threeone,,,,,,,,,,,,,,,,,,,,,,,,,,,,,,,,,,,,,,,,,,,,,,,,,,,,,,,,,,,,,,,,,,,,,,,,,,,,,,,,,,,,,,,,,,,,,,,,,,,,,,,,,,,,,,,,,,,,,,,,,,,,,,,,,,,,,,,,,,,,,,,,,,,,,,,,
,,,,,,6161508f9ab3db3622471e87,62bbf9fbe61a9153e4d8e9c0,2022-06-29_10h06.58.408,Colour_Asymmetry_Pilot,2022.1.3,MacIntel,50,62bbe60bf3d75ef465d3e404,0,112,112,57,1,onethree,,,,,,,,,,,,,,,,,,,,,,,,,,,,,,,,,,,,,,,,,,,,,,,,,,,,,,,,,,,,,,,,,,,,,,,,,,,,,,,,,,,,,,,,,,,,,,,,,,,,,,,,,,,,,,,,,,,,,,,,,,,,,,,,,,,,,,,,,,,,,,,,,,,,,,,,
,,,,,,6161508f9ab3db3622471e87,62bbf9fbe61a9153e4d8e9c0,2022-06-29_10h06.58.408,Colour_Asymmetry_Pilot,2022.1.3,MacIntel,50,62bbe60bf3d75ef465d3e404,0,113,113,24,1,onetwo,,,,,,,,,,,,,,,,,,,,,,,,,,,,,,,,,,,,,,,,,,,,,,,,,,,,,,,,,,,,,,,,,,,,,,,,,,,,,,,,,,,,,,,,,,,,,,,,,,,,,,,,,,,,,,,,,,,,,,,,,,,,,,,,,,,,,,,,,,,,,,,,,,,,,,,,
,,,,,,6161508f9ab3db3622471e87,62bbf9fbe61a9153e4d8e9c0,2022-06-29_10h06.58.408,Colour_Asymmetry_Pilot,2022.1.3,MacIntel,50,62bbe60bf3d75ef465d3e404,0,114,114,32,1,onetwo,,,,,,,,,,,,,,,,,,,,,,,,,,,,,,,,,,,,,,,,,,,,,,,,,,,,,,,,,,,,,,,,,,,,,,,,,,,,,,,,,,,,,,,,,,,,,,,,,,,,,,,,,,,,,,,,,,,,,,,,,,,,,,,,,,,,,,,,,,,,,,,,,,,,,,,,
,,,,,,6161508f9ab3db3622471e87,62bbf9fbe61a9153e4d8e9c0,2022-06-29_10h06.58.408,Colour_Asymmetry_Pilot,2022.1.3,MacIntel,50,62bbe60bf3d75ef465d3e404,0,115,115,157,1,threefour,,,,,,,,,,,,,,,,,,,,,,,,,,,,,,,,,,,,,,,,,,,,,,,,,,,,,,,,,,,,,,,,,,,,,,,,,,,,,,,,,,,,,,,,,,,,,,,,,,,,,,,,,,,,,,,,,,,,,,,,,,,,,,,,,,,,,,,,,,,,,,,,,,,,,,,,
,,,,,,6161508f9ab3db3622471e87,62bbf9fbe61a9153e4d8e9c0,2022-06-29_10h06.58.408,Colour_Asymmetry_Pilot,2022.1.3,MacIntel,50,62bbe60bf3d75ef465d3e404,0,116,116,5,1,threefour,,,,,,,,,,,,,,,,,,,,,,,,,,,,,,,,,,,,,,,,,,,,,,,,,,,,,,,,,,,,,,,,,,,,,,,,,,,,,,,,,,,,,,,,,,,,,,,,,,,,,,,,,,,,,,,,,,,,,,,,,,,,,,,,,,,,,,,,,,,,,,,,,,,,,,,,
,,,,,,6161508f9ab3db3622471e87,62bbf9fbe61a9153e4d8e9c0,2022-06-29_10h06.58.408,Colour_Asymmetry_Pilot,2022.1.3,MacIntel,50,62bbe60bf3d75ef465d3e404,0,117,117,112,1,onetwo,,,,,,,,,,,,,,,,,,,,,,,,,,,,,,,,,,,,,,,,,,,,,,,,,,,,,,,,,,,,,,,,,,,,,,,,,,,,,,,,,,,,,,,,,,,,,,,,,,,,,,,,,,,,,,,,,,,,,,,,,,,,,,,,,,,,,,,,,,,,,,,,,,,,,,,,
,,,,,,6161508f9ab3db3622471e87,62bbf9fbe61a9153e4d8e9c0,2022-06-29_10h06.58.408,Colour_Asymmetry_Pilot,2022.1.3,MacIntel,50,62bbe60bf3d75ef465d3e404,0,118,118,69,1,threefour,,,,,,,,,,,,,,,,,,,,,,,,,,,,,,,,,,,,,,,,,,,,,,,,,,,,,,,,,,,,,,,,,,,,,,,,,,,,,,,,,,,,,,,,,,,,,,,,,,,,,,,,,,,,,,,,,,,,,,,,,,,,,,,,,,,,,,,,,,,,,,,,,,,,,,,,
,,,,,,6161508f9ab3db3622471e87,62bbf9fbe61a9153e4d8e9c0,2022-06-29_10h06.58.408,Colour_Asymmetry_Pilot,2022.1.3,MacIntel,50,62bbe60bf3d75ef465d3e404,0,119,119,118,1,fourtwo,,,,,,,,,,,,,,,,,,,,,,,,,,,,,,,,,,,,,,,,,,,,,,,,,,,,,,,,,,,,,,,,,,,,,,,,,,,,,,,,,,,,,,,,,,,,,,,,,,,,,,,,,,,,,,,,,,,,,,,,,,,,,,,,,,,,,,,,,,,,,,,,,,,,,,,,
,,,,,,6161508f9ab3db3622471e87,62bbf9fbe61a9153e4d8e9c0,2022-06-29_10h06.58.408,Colour_Asymmetry_Pilot,2022.1.3,MacIntel,50,62bbe60bf3d75ef465d3e404,0,120,120,155,1,twofour,,,,,,,,,,,,,,,,,,,,,,,,,,,,,,,,,,,,,,,,,,,,,,,,,,,,,,,,,,,,,,,,,,,,,,,,,,,,,,,,,,,,,,,,,,,,,,,,,,,,,,,,,,,,,,,,,,,,,,,,,,,,,,,,,,,,,,,,,,,,,,,,,,,,,,,,
,,,,,,6161508f9ab3db3622471e87,62bbf9fbe61a9153e4d8e9c0,2022-06-29_10h06.58.408,Colour_Asymmetry_Pilot,2022.1.3,MacIntel,50,62bbe60bf3d75ef465d3e404,0,121,121,148,1,threeone,,,,,,,,,,,,,,,,,,,,,,,,,,,,,,,,,,,,,,,,,,,,,,,,,,,,,,,,,,,,,,,,,,,,,,,,,,,,,,,,,,,,,,,,,,,,,,,,,,,,,,,,,,,,,,,,,,,,,,,,,,,,,,,,,,,,,,,,,,,,,,,,,,,,,,,,
,,,,,,6161508f9ab3db3622471e87,62bbf9fbe61a9153e4d8e9c0,2022-06-29_10h06.58.408,Colour_Asymmetry_Pilot,2022.1.3,MacIntel,50,62bbe60bf3d75ef465d3e404,0,122,122,2,1,twoone,,,,,,,,,,,,,,,,,,,,,,,,,,,,,,,,,,,,,,,,,,,,,,,,,,,,,,,,,,,,,,,,,,,,,,,,,,,,,,,,,,,,,,,,,,,,,,,,,,,,,,,,,,,,,,,,,,,,,,,,,,,,,,,,,,,,,,,,,,,,,,,,,,,,,,,,
,,,,,,6161508f9ab3db3622471e87,62bbf9fbe61a9153e4d8e9c0,2022-06-29_10h06.58.408,Colour_Asymmetry_Pilot,2022.1.3,MacIntel,50,62bbe60bf3d75ef465d3e404,0,123,123,36,1,threeone,,,,,,,,,,,,,,,,,,,,,,,,,,,,,,,,,,,,,,,,,,,,,,,,,,,,,,,,,,,,,,,,,,,,,,,,,,,,,,,,,,,,,,,,,,,,,,,,,,,,,,,,,,,,,,,,,,,,,,,,,,,,,,,,,,,,,,,,,,,,,,,,,,,,,,,,
,,,,,,6161508f9ab3db3622471e87,62bbf9fbe61a9153e4d8e9c0,2022-06-29_10h06.58.408,Colour_Asymmetry_Pilot,2022.1.3,MacIntel,50,62bbe60bf3d75ef465d3e404,0,124,124,58,1,twoone,,,,,,,,,,,,,,,,,,,,,,,,,,,,,,,,,,,,,,,,,,,,,,,,,,,,,,,,,,,,,,,,,,,,,,,,,,,,,,,,,,,,,,,,,,,,,,,,,,,,,,,,,,,,,,,,,,,,,,,,,,,,,,,,,,,,,,,,,,,,,,,,,,,,,,,,
,,,,,,6161508f9ab3db3622471e87,62bbf9fbe61a9153e4d8e9c0,2022-06-29_10h06.58.408,Colour_Asymmetry_Pilot,2022.1.3,MacIntel,50,62bbe60bf3d75ef465d3e404,0,125,125,78,1,fourtwo,,,,,,,,,,,,,,,,,,,,,,,,,,,,,,,,,,,,,,,,,,,,,,,,,,,,,,,,,,,,,,,,,,,,,,,,,,,,,,,,,,,,,,,,,,,,,,,,,,,,,,,,,,,,,,,,,,,,,,,,,,,,,,,,,,,,,,,,,,,,,,,,,,,,,,,,
,,,,,,6161508f9ab3db3622471e87,62bbf9fbe61a9153e4d8e9c0,2022-06-29_10h06.58.408,Colour_Asymmetry_Pilot,2022.1.3,MacIntel,50,62bbe60bf3d75ef465d3e404,0,126,126,88,1,onetwo,,,,,,,,,,,,,,,,,,,,,,,,,,,,,,,,,,,,,,,,,,,,,,,,,,,,,,,,,,,,,,,,,,,,,,,,,,,,,,,,,,,,,,,,,,,,,,,,,,,,,,,,,,,,,,,,,,,,,,,,,,,,,,,,,,,,,,,,,,,,,,,,,,,,,,,,
,,,,,,6161508f9ab3db3622471e87,62bbf9fbe61a9153e4d8e9c0,2022-06-29_10h06.58.408,Colour_Asymmetry_Pilot,2022.1.3,MacIntel,50,62bbe60bf3d75ef465d3e404,0,127,127,144,1,onetwo,,,,,,,,,,,,,,,,,,,,,,,,,,,,,,,,,,,,,,,,,,,,,,,,,,,,,,,,,,,,,,,,,,,,,,,,,,,,,,,,,,,,,,,,,,,,,,,,,,,,,,,,,,,,,,,,,,,,,,,,,,,,,,,,,,,,,,,,,,,,,,,,,,,,,,,,
,,,,,,6161508f9ab3db3622471e87,62bbf9fbe61a9153e4d8e9c0,2022-06-29_10h06.58.408,Colour_Asymmetry_Pilot,2022.1.3,MacIntel,50,62bbe60bf3d75ef465d3e404,0,128,128,116,1,threeone,,,,,,,,,,,,,,,,,,,,,,,,,,,,,,,,,,,,,,,,,,,,,,,,,,,,,,,,,,,,,,,,,,,,,,,,,,,,,,,,,,,,,,,,,,,,,,,,,,,,,,,,,,,,,,,,,,,,,,,,,,,,,,,,,,,,,,,,,,,,,,,,,,,,,,,,
,,,,,,6161508f9ab3db3622471e87,62bbf9fbe61a9153e4d8e9c0,2022-06-29_10h06.58.408,Colour_Asymmetry_Pilot,2022.1.3,MacIntel,50,62bbe60bf3d75ef465d3e404,0,129,129,18,1,twoone,,,,,,,,,,,,,,,,,,,,,,,,,,,,,,,,,,,,,,,,,,,,,,,,,,,,,,,,,,,,,,,,,,,,,,,,,,,,,,,,,,,,,,,,,,,,,,,,,,,,,,,,,,,,,,,,,,,,,,,,,,,,,,,,,,,,,,,,,,,,,,,,,,,,,,,,
,,,,,,6161508f9ab3db3622471e87,62bbf9fbe61a9153e4d8e9c0,2022-06-29_10h06.58.408,Colour_Asymmetry_Pilot,2022.1.3,MacIntel,50,62bbe60bf3d75ef465d3e404,0,130,130,72,1,onetwo,,,,,,,,,,,,,,,,,,,,,,,,,,,,,,,,,,,,,,,,,,,,,,,,,,,,,,,,,,,,,,,,,,,,,,,,,,,,,,,,,,,,,,,,,,,,,,,,,,,,,,,,,,,,,,,,,,,,,,,,,,,,,,,,,,,,,,,,,,,,,,,,,,,,,,,,
,,,,,,6161508f9ab3db3622471e87,62bbf9fbe61a9153e4d8e9c0,2022-06-29_10h06.58.408,Colour_Asymmetry_Pilot,2022.1.3,MacIntel,50,62bbe60bf3d75ef465d3e404,0,131,131,62,1,fourtwo,,,,,,,,,,,,,,,,,,,,,,,,,,,,,,,,,,,,,,,,,,,,,,,,,,,,,,,,,,,,,,,,,,,,,,,,,,,,,,,,,,,,,,,,,,,,,,,,,,,,,,,,,,,,,,,,,,,,,,,,,,,,,,,,,,,,,,,,,,,,,,,,,,,,,,,,
,,,,,,6161508f9ab3db3622471e87,62bbf9fbe61a9153e4d8e9c0,2022-06-29_10h06.58.408,Colour_Asymmetry_Pilot,2022.1.3,MacIntel,50,62bbe60bf3d75ef465d3e404,0,132,132,8,1,onetwo,,,,,,,,,,,,,,,,,,,,,,,,,,,,,,,,,,,,,,,,,,,,,,,,,,,,,,,,,,,,,,,,,,,,,,,,,,,,,,,,,,,,,,,,,,,,,,,,,,,,,,,,,,,,,,,,,,,,,,,,,,,,,,,,,,,,,,,,,,,,,,,,,,,,,,,,
,,,,,,6161508f9ab3db3622471e87,62bbf9fbe61a9153e4d8e9c0,2022-06-29_10h06.58.408,Colour_Asymmetry_Pilot,2022.1.3,MacIntel,50,62bbe60bf3d75ef465d3e404,0,133,133,143,1,fourthree,,,,,,,,,,,,,,,,,,,,,,,,,,,,,,,,,,,,,,,,,,,,,,,,,,,,,,,,,,,,,,,,,,,,,,,,,,,,,,,,,,,,,,,,,,,,,,,,,,,,,,,,,,,,,,,,,,,,,,,,,,,,,,,,,,,,,,,,,,,,,,,,,,,,,,,,
,,,,,,6161508f9ab3db3622471e87,62bbf9fbe61a9153e4d8e9c0,2022-06-29_10h06.58.408,Colour_Asymmetry_Pilot,2022.1.3,MacIntel,50,62bbe60bf3d75ef465d3e404,0,134,134,7,1,fourthree,,,,,,,,,,,,,,,,,,,,,,,,,,,,,,,,,,,,,,,,,,,,,,,,,,,,,,,,,,,,,,,,,,,,,,,,,,,,,,,,,,,,,,,,,,,,,,,,,,,,,,,,,,,,,,,,,,,,,,,,,,,,,,,,,,,,,,,,,,,,,,,,,,,,,,,,
,,,,,,6161508f9ab3db3622471e87,62bbf9fbe61a9153e4d8e9c0,2022-06-29_10h06.58.408,Colour_Asymmetry_Pilot,2022.1.3,MacIntel,50,62bbe60bf3d75ef465d3e404,0,135,135,26,1,twoone,,,,,,,,,,,,,,,,,,,,,,,,,,,,,,,,,,,,,,,,,,,,,,,,,,,,,,,,,,,,,,,,,,,,,,,,,,,,,,,,,,,,,,,,,,,,,,,,,,,,,,,,,,,,,,,,,,,,,,,,,,,,,,,,,,,,,,,,,,,,,,,,,,,,,,,,
,,,,,,6161508f9ab3db3622471e87,62bbf9fbe61a9153e4d8e9c0,2022-06-29_10h06.58.408,Colour_Asymmetry_Pilot,2022.1.3,MacIntel,50,62bbe60bf3d75ef465d3e404,0,136,136,73,1,onethree,,,,,,,,,,,,,,,,,,,,,,,,,,,,,,,,,,,,,,,,,,,,,,,,,,,,,,,,,,,,,,,,,,,,,,,,,,,,,,,,,,,,,,,,,,,,,,,,,,,,,,,,,,,,,,,,,,,,,,,,,,,,,,,,,,,,,,,,,,,,,,,,,,,,,,,,
,,,,,,6161508f9ab3db3622471e87,62bbf9fbe61a9153e4d8e9c0,2022-06-29_10h06.58.408,Colour_Asymmetry_Pilot,2022.1.3,MacIntel,50,62bbe60bf3d75ef465d3e404,0,137,137,15,1,fourthree,,,,,,,,,,,,,,,,,,,,,,,,,,,,,,,,,,,,,,,,,,,,,,,,,,,,,,,,,,,,,,,,,,,,,,,,,,,,,,,,,,,,,,,,,,,,,,,,,,,,,,,,,,,,,,,,,,,,,,,,,,,,,,,,,,,,,,,,,,,,,,,,,,,,,,,,
,,,,,,6161508f9ab3db3622471e87,62bbf9fbe61a9153e4d8e9c0,2022-06-29_10h06.58.408,Colour_Asymmetry_Pilot,2022.1.3,MacIntel,50,62bbe60bf3d75ef465d3e404,0,138,138,25,1,onethree,,,,,,,,,,,,,,,,,,,,,,,,,,,,,,,,,,,,,,,,,,,,,,,,,,,,,,,,,,,,,,,,,,,,,,,,,,,,,,,,,,,,,,,,,,,,,,,,,,,,,,,,,,,,,,,,,,,,,,,,,,,,,,,,,,,,,,,,,,,,,,,,,,,,,,,,
,,,,,,6161508f9ab3db3622471e87,62bbf9fbe61a9153e4d8e9c0,2022-06-29_10h06.58.408,Colour_Asymmetry_Pilot,2022.1.3,MacIntel,50,62bbe60bf3d75ef465d3e404,0,139,139,153,1,onethree,,,,,,,,,,,,,,,,,,,,,,,,,,,,,,,,,,,,,,,,,,,,,,,,,,,,,,,,,,,,,,,,,,,,,,,,,,,,,,,,,,,,,,,,,,,,,,,,,,,,,,,,,,,,,,,,,,,,,,,,,,,,,,,,,,,,,,,,,,,,,,,,,,,,,,,,
,,,,,,6161508f9ab3db3622471e87,62bbf9fbe61a9153e4d8e9c0,2022-06-29_10h06.58.408,Colour_Asymmetry_Pilot,2022.1.3,MacIntel,50,62bbe60bf3d75ef465d3e404,0,140,140,129,1,onethree,,,,,,,,,,,,,,,,,,,,,,,,,,,,,,,,,,,,,,,,,,,,,,,,,,,,,,,,,,,,,,,,,,,,,,,,,,,,,,,,,,,,,,,,,,,,,,,,,,,,,,,,,,,,,,,,,,,,,,,,,,,,,,,,,,,,,,,,,,,,,,,,,,,,,,,,
,,,,,,6161508f9ab3db3622471e87,62bbf9fbe61a9153e4d8e9c0,2022-06-29_10h06.58.408,Colour_Asymmetry_Pilot,2022.1.3,MacIntel,50,62bbe60bf3d75ef465d3e404,0,141,141,120,1,onetwo,,,,,,,,,,,,,,,,,,,,,,,,,,,,,,,,,,,,,,,,,,,,,,,,,,,,,,,,,,,,,,,,,,,,,,,,,,,,,,,,,,,,,,,,,,,,,,,,,,,,,,,,,,,,,,,,,,,,,,,,,,,,,,,,,,,,,,,,,,,,,,,,,,,,,,,,
,,,,,,6161508f9ab3db3622471e87,62bbf9fbe61a9153e4d8e9c0,2022-06-29_10h06.58.408,Colour_Asymmetry_Pilot,2022.1.3,MacIntel,50,62bbe60bf3d75ef465d3e404,0,142,142,65,1,onethree,,,,,,,,,,,,,,,,,,,,,,,,,,,,,,,,,,,,,,,,,,,,,,,,,,,,,,,,,,,,,,,,,,,,,,,,,,,,,,,,,,,,,,,,,,,,,,,,,,,,,,,,,,,,,,,,,,,,,,,,,,,,,,,,,,,,,,,,,,,,,,,,,,,,,,,,
,,,,,,6161508f9ab3db3622471e87,62bbf9fbe61a9153e4d8e9c0,2022-06-29_10h06.58.408,Colour_Asymmetry_Pilot,2022.1.3,MacIntel,50,62bbe60bf3d75ef465d3e404,0,143,143,110,1,fourtwo,,,,,,,,,,,,,,,,,,,,,,,,,,,,,,,,,,,,,,,,,,,,,,,,,,,,,,,,,,,,,,,,,,,,,,,,,,,,,,,,,,,,,,,,,,,,,,,,,,,,,,,,,,,,,,,,,,,,,,,,,,,,,,,,,,,,,,,,,,,,,,,,,,,,,,,,
,,,,,,6161508f9ab3db3622471e87,62bbf9fbe61a9153e4d8e9c0,2022-06-29_10h06.58.408,Colour_Asymmetry_Pilot,2022.1.3,MacIntel,50,62bbe60bf3d75ef465d3e404,0,144,144,75,1,twofour,,,,,,,,,,,,,,,,,,,,,,,,,,,,,,,,,,,,,,,,,,,,,,,,,,,,,,,,,,,,,,,,,,,,,,,,,,,,,,,,,,,,,,,,,,,,,,,,,,,,,,,,,,,,,,,,,,,,,,,,,,,,,,,,,,,,,,,,,,,,,,,,,,,,,,,,
,,,,,,6161508f9ab3db3622471e87,62bbf9fbe61a9153e4d8e9c0,2022-06-29_10h06.58.408,Colour_Asymmetry_Pilot,2022.1.3,MacIntel,50,62bbe60bf3d75ef465d3e404,0,145,145,89,1,onethree,,,,,,,,,,,,,,,,,,,,,,,,,,,,,,,,,,,,,,,,,,,,,,,,,,,,,,,,,,,,,,,,,,,,,,,,,,,,,,,,,,,,,,,,,,,,,,,,,,,,,,,,,,,,,,,,,,,,,,,,,,,,,,,,,,,,,,,,,,,,,,,,,,,,,,,,
,,,,,,6161508f9ab3db3622471e87,62bbf9fbe61a9153e4d8e9c0,2022-06-29_10h06.58.408,Colour_Asymmetry_Pilot,2022.1.3,MacIntel,50,62bbe60bf3d75ef465d3e404,0,146,146,11,1,twofour,,,,,,,,,,,,,,,,,,,,,,,,,,,,,,,,,,,,,,,,,,,,,,,,,,,,,,,,,,,,,,,,,,,,,,,,,,,,,,,,,,,,,,,,,,,,,,,,,,,,,,,,,,,,,,,,,,,,,,,,,,,,,,,,,,,,,,,,,,,,,,,,,,,,,,,,
,,,,,,6161508f9ab3db3622471e87,62bbf9fbe61a9153e4d8e9c0,2022-06-29_10h06.58.408,Colour_Asymmetry_Pilot,2022.1.3,MacIntel,50,62bbe60bf3d75ef465d3e404,0,147,147,156,1,threeone,,,,,,,,,,,,,,,,,,,,,,,,,,,,,,,,,,,,,,,,,,,,,,,,,,,,,,,,,,,,,,,,,,,,,,,,,,,,,,,,,,,,,,,,,,,,,,,,,,,,,,,,,,,,,,,,,,,,,,,,,,,,,,,,,,,,,,,,,,,,,,,,,,,,,,,,
,,,,,,6161508f9ab3db3622471e87,62bbf9fbe61a9153e4d8e9c0,2022-06-29_10h06.58.408,Colour_Asymmetry_Pilot,2022.1.3,MacIntel,50,62bbe60bf3d75ef465d3e404,0,148,148,1,1,onethree,,,,,,,,,,,,,,,,,,,,,,,,,,,,,,,,,,,,,,,,,,,,,,,,,,,,,,,,,,,,,,,,,,,,,,,,,,,,,,,,,,,,,,,,,,,,,,,,,,,,,,,,,,,,,,,,,,,,,,,,,,,,,,,,,,,,,,,,,,,,,,,,,,,,,,,,
,,,,,,6161508f9ab3db3622471e87,62bbf9fbe61a9153e4d8e9c0,2022-06-29_10h06.58.408,Colour_Asymmetry_Pilot,2022.1.3,MacIntel,50,62bbe60bf3d75ef465d3e404,0,149,149,63,1,fourthree,,,,,,,,,,,,,,,,,,,,,,,,,,,,,,,,,,,,,,,,,,,,,,,,,,,,,,,,,,,,,,,,,,,,,,,,,,,,,,,,,,,,,,,,,,,,,,,,,,,,,,,,,,,,,,,,,,,,,,,,,,,,,,,,,,,,,,,,,,,,,,,,,,,,,,,,
,,,,,,6161508f9ab3db3622471e87,62bbf9fbe61a9153e4d8e9c0,2022-06-29_10h06.58.408,Colour_Asymmetry_Pilot,2022.1.3,MacIntel,50,62bbe60bf3d75ef465d3e404,0,150,150,83,1,twofour,,,,,,,,,,,,,,,,,,,,,,,,,,,,,,,,,,,,,,,,,,,,,,,,,,,,,,,,,,,,,,,,,,,,,,,,,,,,,,,,,,,,,,,,,,,,,,,,,,,,,,,,,,,,,,,,,,,,,,,,,,,,,,,,,,,,,,,,,,,,,,,,,,,,,,,,
,,,,,,6161508f9ab3db3622471e87,62bbf9fbe61a9153e4d8e9c0,2022-06-29_10h06.58.408,Colour_Asymmetry_Pilot,2022.1.3,MacIntel,50,62bbe60bf3d75ef465d3e404,0,151,151,39,1,fourthree,,,,,,,,,,,,,,,,,,,,,,,,,,,,,,,,,,,,,,,,,,,,,,,,,,,,,,,,,,,,,,,,,,,,,,,,,,,,,,,,,,,,,,,,,,,,,,,,,,,,,,,,,,,,,,,,,,,,,,,,,,,,,,,,,,,,,,,,,,,,,,,,,,,,,,,,
,,,,,,6161508f9ab3db3622471e87,62bbf9fbe61a9153e4d8e9c0,2022-06-29_10h06.58.408,Colour_Asymmetry_Pilot,2022.1.3,MacIntel,50,62bbe60bf3d75ef465d3e404,0,152,152,105,1,onethree,,,,,,,,,,,,,,,,,,,,,,,,,,,,,,,,,,,,,,,,,,,,,,,,,,,,,,,,,,,,,,,,,,,,,,,,,,,,,,,,,,,,,,,,,,,,,,,,,,,,,,,,,,,,,,,,,,,,,,,,,,,,,,,,,,,,,,,,,,,,,,,,,,,,,,,,
,,,,,,6161508f9ab3db3622471e87,62bbf9fbe61a9153e4d8e9c0,2022-06-29_10h06.58.408,Colour_Asymmetry_Pilot,2022.1.3,MacIntel,50,62bbe60bf3d75ef465d3e404,0,153,153,19,1,twofour,,,,,,,,,,,,,,,,,,,,,,,,,,,,,,,,,,,,,,,,,,,,,,,,,,,,,,,,,,,,,,,,,,,,,,,,,,,,,,,,,,,,,,,,,,,,,,,,,,,,,,,,,,,,,,,,,,,,,,,,,,,,,,,,,,,,,,,,,,,,,,,,,,,,,,,,
,,,,,,6161508f9ab3db3622471e87,62bbf9fbe61a9153e4d8e9c0,2022-06-29_10h06.58.408,Colour_Asymmetry_Pilot,2022.1.3,MacIntel,50,62bbe60bf3d75ef465d3e404,0,154,154,138,1,twoone,,,,,,,,,,,,,,,,,,,,,,,,,,,,,,,,,,,,,,,,,,,,,,,,,,,,,,,,,,,,,,,,,,,,,,,,,,,,,,,,,,,,,,,,,,,,,,,,,,,,,,,,,,,,,,,,,,,,,,,,,,,,,,,,,,,,,,,,,,,,,,,,,,,,,,,,
,,,,,,6161508f9ab3db3622471e87,62bbf9fbe61a9153e4d8e9c0,2022-06-29_10h06.58.408,Colour_Asymmetry_Pilot,2022.1.3,MacIntel,50,62bbe60bf3d75ef465d3e404,0,155,155,74,1,twoone,,,,,,,,,,,,,,,,,,,,,,,,,,,,,,,,,,,,,,,,,,,,,,,,,,,,,,,,,,,,,,,,,,,,,,,,,,,,,,,,,,,,,,,,,,,,,,,,,,,,,,,,,,,,,,,,,,,,,,,,,,,,,,,,,,,,,,,,,,,,,,,,,,,,,,,,
,,,,,,6161508f9ab3db3622471e87,62bbf9fbe61a9153e4d8e9c0,2022-06-29_10h06.58.408,Colour_Asymmetry_Pilot,2022.1.3,MacIntel,50,62bbe60bf3d75ef465d3e404,0,156,156,111,1,fourthree,,,,,,,,,,,,,,,,,,,,,,,,,,,,,,,,,,,,,,,,,,,,,,,,,,,,,,,,,,,,,,,,,,,,,,,,,,,,,,,,,,,,,,,,,,,,,,,,,,,,,,,,,,,,,,,,,,,,,,,,,,,,,,,,,,,,,,,,,,,,,,,,,,,,,,,,
,,,,,,6161508f9ab3db3622471e87,62bbf9fbe61a9153e4d8e9c0,2022-06-29_10h06.58.408,Colour_Asymmetry_Pilot,2022.1.3,MacIntel,50,62bbe60bf3d75ef465d3e404,0,157,157,14,1,fourtwo,,,,,,,,,,,,,,,,,,,,,,,,,,,,,,,,,,,,,,,,,,,,,,,,,,,,,,,,,,,,,,,,,,,,,,,,,,,,,,,,,,,,,,,,,,,,,,,,,,,,,,,,,,,,,,,,,,,,,,,,,,,,,,,,,,,,,,,,,,,,,,,,,,,,,,,,
,,,,,,6161508f9ab3db3622471e87,62bbf9fbe61a9153e4d8e9c0,2022-06-29_10h06.58.408,Colour_Asymmetry_Pilot,2022.1.3,MacIntel,50,62bbe60bf3d75ef465d3e404,0,158,158,27,1,twofour,,,,,,,,,,,,,,,,,,,,,,,,,,,,,,,,,,,,,,,,,,,,,,,,,,,,,,,,,,,,,,,,,,,,,,,,,,,,,,,,,,,,,,,,,,,,,,,,,,,,,,,,,,,,,,,,,,,,,,,,,,,,,,,,,,,,,,,,,,,,,,,,,,,,,,,,
,,,,,,6161508f9ab3db3622471e87,62bbf9fbe61a9153e4d8e9c0,2022-06-29_10h06.58.408,Colour_Asymmetry_Pilot,2022.1.3,MacIntel,50,62bbe60bf3d75ef465d3e404,0,159,159,119,1,fourthree,,,,,,,,,,,,,,,,,,,,,,,,,,,,,,,,,,,,,,,,,,,,,,,,,,,,,,,,,,,,,,,,,,,,,,,,,,,,,,,,,,,,,,,,,,,,,,,,,,,,,,,,,,,,,,,,,,,,,,,,,,,,,,,,,,,,,,,,,,,,,,,,,,,,,,,,
,,,,,,6161508f9ab3db3622471e87,62bbf9fbe61a9153e4d8e9c0,2022-06-29_10h06.58.408,Colour_Asymmetry_Pilot,2022.1.3,MacIntel,50,62bbe60bf3d75ef465d3e404,0,160,160,35,1,twofour,,,,,,,,,,,,,,,,,,,,,,,,,,,,,,,,,,,,,,,,,,,,,,,,,,,,,,,,,,,,,,,,,,,,,,,,,,,,,,,,,,,,,,,,,,,,,,,,,,,,,,,,,,,,,,,,,,,,,,,,,,,,,,,,,,,,,,,,,,,,,,,,,,,,,,,,
,,,,,,6161508f9ab3db3622471e87,62bbf9fbe61a9153e4d8e9c0,2022-06-29_10h06.58.408,Colour_Asymmetry_Pilot,2022.1.3,MacIntel,50,62bbe60bf3d75ef465d3e404,0,161,161,139,1,twofour,,,,,,,,,,,,,,,,,,,,,,,,,,,,,,,,,,,,,,,,,,,,,,,,,,,,,,,,,,,,,,,,,,,,,,,,,,,,,,,,,,,,,,,,,,,,,,,,,,,,,,,,,,,,,,,,,,,,,,,,,,,,,,,,,,,,,,,,,,,,,,,,,,,,,,,,
,,,,,,6161508f9ab3db3622471e87,62bbf9fbe61a9153e4d8e9c0,2022-06-29_10h06.58.408,Colour_Asymmetry_Pilot,2022.1.3,MacIntel,50,62bbe60bf3d75ef465d3e404,,,,,,,space,44.814,space,4.239,space,23.955,space,2.122,space,0.509,space,1.106,"[-0.011800000000000033,-0.906,-0.45100000000000007]",twoone,"[-0.48240000000000005,0.3175999999999999,0.2156]",-4,7.267,-50,82,1,0,0,response7disk_5,2,10,1,0,0,rectangle_8,2,10,1,0,0,3,2,10,1,0,0,0,0,0,0,1,,,,,,,,,,,,,,,,,,,,,,,,,,,,,,,,,,,,,,,,,,,,,,,,,,,,,,,,,,,,,,,,,,,,,,,,,,,,,,,,,,,,,,,,,,,,,,,,,,,,,,,,,,,
,,,,,,6161508f9ab3db3622471e87,62bbf9fbe61a9153e4d8e9c0,2022-06-29_10h06.58.408,Colour_Asymmetry_Pilot,2022.1.3,MacIntel,50,62bbe60bf3d75ef465d3e404,,,,,,,,,,,,,,,,,,,"[-0.48240000000000005,0.3175999999999999,0.2156]",onetwo,"[0.6625999999999999,0.4980000000000002,-0.357]",-2,6.805,-76,-40,1,0,0,response5disk_5,0,-1,1,0,0,rectangle_8,0,-1,1,0,0,3,0,-1,1,0,0,1,0,1,0,1,,,,,,,,,,,,,,,,,,,,,,,,,,,,,,,,,,,,,,,,,,,,,,,,,,,,,,,,,,,,,,,,,,,,,,,,,,,,,,,,,,,,,,,,,,,,,,,,,,,,,,,,,,,
,,,,,,6161508f9ab3db3622471e87,62bbf9fbe61a9153e4d8e9c0,2022-06-29_10h06.58.408,Colour_Asymmetry_Pilot,2022.1.3,MacIntel,50,62bbe60bf3d75ef465d3e404,,,,,,,,,,,,,,,,,,,"[-0.6706000000000001,-0.6157999999999999,-0.6786]",fourtwo,"[0.40379999999999994,0.09000000000000008,0.44300000000000006]",-4,2.551,-34,57,1,0,0,response7disk_5,3,-2,1,0,0,rectangle_8,3,-2,1,0,0,3,3,-2,1,0,0,2,0,2,0,1,,,,,,,,,,,,,,,,,,,,,,,,,,,,,,,,,,,,,,,,,,,,,,,,,,,,,,,,,,,,,,,,,,,,,,,,,,,,,,,,,,,,,,,,,,,,,,,,,,,,,,,,,,,
,,,,,,6161508f9ab3db3622471e87,62bbf9fbe61a9153e4d8e9c0,2022-06-29_10h06.58.408,Colour_Asymmetry_Pilot,2022.1.3,MacIntel,50,62bbe60bf3d75ef465d3e404,,,,,,,,,,,,,,,,,,,"[-0.9844,-0.9688,-0.9922]",fourtwo,"[0.796,0.2156,-0.27859999999999996]",-3,3.437,-53,30,1,0,0,response7disk_5,-10,-15,1,0,0,rectangle_8,-10,-15,1,0,0,3,-10,-15,1,0,0,3,0,3,0,1,,,,,,,,,,,,,,,,,,,,,,,,,,,,,,,,,,,,,,,,,,,,,,,,,,,,,,,,,,,,,,,,,,,,,,,,,,,,,,,,,,,,,,,,,,,,,,,,,,,,,,,,,,,
,,,,,,6161508f9ab3db3622471e87,62bbf9fbe61a9153e4d8e9c0,2022-06-29_10h06.58.408,Colour_Asymmetry_Pilot,2022.1.3,MacIntel,50,62bbe60bf3d75ef465d3e404,,,,,,,,,,,,,,,,,,,"[-0.4668,-0.8746,-0.2942]",onetwo,"[0.6625999999999999,0.4980000000000002,-0.357]",-1,2.933,-34,-61,1,0,0,response5disk_5,10,3,1,0,0,rectangle_8,10,3,1,0,0,3,10,3,1,0,0,4,0,4,0,1,,,,,,,,,,,,,,,,,,,,,,,,,,,,,,,,,,,,,,,,,,,,,,,,,,,,,,,,,,,,,,,,,,,,,,,,,,,,,,,,,,,,,,,,,,,,,,,,,,,,,,,,,,,
,,,,,,6161508f9ab3db3622471e87,62bbf9fbe61a9153e4d8e9c0,2022-06-29_10h06.58.408,Colour_Asymmetry_Pilot,2022.1.3,MacIntel,50,62bbe60bf3d75ef465d3e404,,,,,,,,,,,,,,,,,,,"[0.37240000000000006,-0.050999999999999934,-0.5216]",fourthree,"[-0.6235999999999999,-0.6786,-0.08239999999999992]",-3,0.917,-61,22,1,0,0,response7disk_5,12,16,1,0,0,rectangle_8,89,31,1,0,0,3,3,7,1,0,0,5,0,5,0,1,response1disk_7,6,rectangle_4,,,,,,,,,,,,,,,,,,,,,,,,,,,,,,,,,,,,,,,,,,,,,,,,,,,,,,,,,,,,,,,,,,,,,,,,,,,,,,,,,,,,,,,,,,,,,,,,,,,,,,,,
,,,,,,6161508f9ab3db3622471e87,62bbf9fbe61a9153e4d8e9c0,2022-06-29_10h06.58.408,Colour_Asymmetry_Pilot,2022.1.3,MacIntel,50,62bbe60bf3d75ef465d3e404,,,,,,,,,,,,,,,,,,,"[-0.9844,-0.9688,-0.9922]",twoone,"[-0.10599999999999998,-0.10599999999999998,0.5841999999999998]",1,2.488,33,-82,1,0,0,response3disk_5,-7,1,1,0,0,rectangle_8,-7,1,1,0,0,3,-7,1,1,0,0,6,0,6,0,1,,,,,,,,,,,,,,,,,,,,,,,,,,,,,,,,,,,,,,,,,,,,,,,,,,,,,,,,,,,,,,,,,,,,,,,,,,,,,,,,,,,,,,,,,,,,,,,,,,,,,,,,,,,
,,,,,,6161508f9ab3db3622471e87,62bbf9fbe61a9153e4d8e9c0,2022-06-29_10h06.58.408,Colour_Asymmetry_Pilot,2022.1.3,MacIntel,50,62bbe60bf3d75ef465d3e404,,,,,,,,,,,,,,,,,,,,fourthree,,-2,1.486,,,,,,,,,,,,,,,,,,,,,,,,,,,,,,,,space,8.869,"[0.11359999999999992,0.6312,0.5213999999999999]","[-0.050999999999999934,-0.6706000000000001,-0.804]",-72,-40,1,0,0,response5disk,2,-1,1,0,0,rectangle,2,-1,1,0,0,,2,0.003,0,2,-1,1,0,0,0,0,0,115,1,34,second,,,,,,,,,,,,,,,,,,,,,,,,,,,,,,,,,,,,,,,,,,,,,,,,,,,,,,,,,,,,,,,,,,,
,,,,,,6161508f9ab3db3622471e87,62bbf9fbe61a9153e4d8e9c0,2022-06-29_10h06.58.408,Colour_Asymmetry_Pilot,2022.1.3,MacIntel,50,62bbe60bf3d75ef465d3e404,,,,,,,,,,,,,,,,,,,,twofour,,-3,21.646,,,,,,,,,,,,,,,,,,,,,,,,,,,,,,,,,,"[-0.45899999999999996,-0.3256,-0.9374]","[0.3568,-0.20799999999999996,-0.9844]",-59,36.5,1,0,0,response7disk,12,13.5,1,0,0,rectangle,12,13.5,1,0,0,,3,0.003,0,12,13.5,1,0,0,0,1,1,43,1,43,first,,,,,,,,,,,,,,,,,,,,,,,,,,,,,,,,,,,,,,,,,,,,,,,,,,,,,,,,,,,,,,,,,,,
,,,,,,6161508f9ab3db3622471e87,62bbf9fbe61a9153e4d8e9c0,2022-06-29_10h06.58.408,Colour_Asymmetry_Pilot,2022.1.3,MacIntel,50,62bbe60bf3d75ef465d3e404,,,,,,,,,,,,,,,,,,,,threeone,,2,0.584,,,,,,,,,,,,,,,,,,,,,,,,,,,,,,,,,,"[0.11359999999999992,0.6312,0.5213999999999999]","[0.2784,-0.31000000000000005,-0.5452]",55,-45.5,1,0,0,response3disk,11,1.5,1,0,0,rectangle,11,1.5,1,0,0,,3,0.001,0,11,1.5,1,0,0,0,2,2,95,1,14,second,,,,,,,,,,,,,,,,,,,,,,,,,,,,,,,,,,,,,,,,,,,,,,,,,,,,,,,,,,,,,,,,,,,
,,,,,,6161508f9ab3db3622471e87,62bbf9fbe61a9153e4d8e9c0,2022-06-29_10h06.58.408,Colour_Asymmetry_Pilot,2022.1.3,MacIntel,50,62bbe60bf3d75ef465d3e404,,,,,,,,,,,,,,,,,,,,threefour,,-2,0.566,,,,,,,,,,,,,,,,,,,,,,,,,,,,,,,,,,"[-0.07459999999999989,0.12139999999999995,-0.9922]","[-0.10599999999999998,-0.10599999999999998,0.5841999999999998]",-58,-36.5,1,0,0,response5disk,6,13.5,1,0,0,rectangle,6,13.5,1,0,0,,2,0.003,0,6,13.5,1,0,0,0,3,3,4,1,4,first,,,,,,,,,,,,,,,,,,,,,,,,,,,,,,,,,,,,,,,,,,,,,,,,,,,,,,,,,,,,,,,,,,,
,,,,,,6161508f9ab3db3622471e87,62bbf9fbe61a9153e4d8e9c0,2022-06-29_10h06.58.408,Colour_Asymmetry_Pilot,2022.1.3,MacIntel,50,62bbe60bf3d75ef465d3e404,,,,,,,,,,,,,,,,,,,,threeone,,4,0.55,,,,,,,,,,,,,,,,,,,,,,,,,,,,,,,,,,"[0.3802000000000001,0.19199999999999995,-0.6394]","[-0.17659999999999998,-0.2864,-0.8354]",50,80.5,1,0,0,response1disk,0,-13.5,1,0,0,rectangle,84,-32.5,1,0,0,2,2,2.004,1,2,-5.5,1,0,0,0,4,4,97,1,16,second,response3disk_3,rectangle,,,,,,,,,,,,,,,,,,,,,,,,,,,,,,,,,,,,,,,,,,,,,,,,,,,,,,,,,,,,,,,,,
,,,,,,6161508f9ab3db3622471e87,62bbf9fbe61a9153e4d8e9c0,2022-06-29_10h06.58.408,Colour_Asymmetry_Pilot,2022.1.3,MacIntel,50,62bbe60bf3d75ef465d3e404,,,,,,,,,,,,,,,,,,,,twofour,,4,0.47,,,,,,,,,,,,,,,,,,,,,,,,,,,,,,,,,,"[0.2784,-0.31000000000000005,-0.5452]","[-0.050999999999999934,-0.6706000000000001,-0.804]",37,81.5,1,0,0,response1disk,12,7.5,1,0,0,rectangle,12,7.5,1,0,0,2,2,0.001,0,12,7.5,1,0,0,0,5,5,119,1,38,second,,,,,,,,,,,,,,,,,,,,,,,,,,,,,,,,,,,,,,,,,,,,,,,,,,,,,,,,,,,,,,,,,,,
,,,,,,6161508f9ab3db3622471e87,62bbf9fbe61a9153e4d8e9c0,2022-06-29_10h06.58.408,Colour_Asymmetry_Pilot,2022.1.3,MacIntel,50,62bbe60bf3d75ef465d3e404,,,,,,,,,,,,,,,,,,,,fourtwo,,1,0.966,,,,,,,,,,,,,,,,,,,,,,,,,,,,,,,,,,"[0.0351999999999999,0.41159999999999997,0.0038000000000000256]","[0.7018,0.7176,0.6155999999999999]",40,-62.5,1,0,0,response3disk,11,14.5,1,0,0,rectangle,11,14.5,1,0,0,2,1,0.002,0,11,14.5,1,0,0,0,6,6,57,1,57,first,,,,,,,,,,,,,,,,,,,,,,,,,,,,,,,,,,,,,,,,,,,,,,,,,,,,,,,,,,,,,,,,,,,
,,,,,,6161508f9ab3db3622471e87,62bbf9fbe61a9153e4d8e9c0,2022-06-29_10h06.58.408,Colour_Asymmetry_Pilot,2022.1.3,MacIntel,50,62bbe60bf3d75ef465d3e404,,,,,,,,,,,,,,,,,,,,fourtwo,,-4,0.767,,,,,,,,,,,,,,,,,,,,,,,,,,,,,,,,,,"[-0.24719999999999998,0.5213999999999999,-0.12959999999999994]","[0.7802,-0.23140000000000005,-0.20799999999999996]",-53,68.5,1,0,0,response7disk,-7,4.5,1,0,0,rectangle,-7,4.5,1,0,0,2,3,0.004,0,-7,4.5,1,0,0,0,7,7,96,1,15,second,,,,,,,,,,,,,,,,,,,,,,,,,,,,,,,,,,,,,,,,,,,,,,,,,,,,,,,,,,,,,,,,,,,
,,,,,,6161508f9ab3db3622471e87,62bbf9fbe61a9153e4d8e9c0,2022-06-29_10h06.58.408,Colour_Asymmetry_Pilot,2022.1.3,MacIntel,50,62bbe60bf3d75ef465d3e404,,,,,,,,,,,,,,,,,,,,onethree,,-4,0.594,,,,,,,,,,,,,,,,,,,,,,,,,,,,,,,,,,"[-0.01980000000000004,-0.5138,-0.38039999999999996]","[0.9763999999999999,0.8588,-0.05900000000000005]",-42,67.5,1,0,0,response7disk,3,1.5,1,0,0,rectangle,3,1.5,1,0,0,2,1,0.002,0,3,1.5,1,0,0,0,8,8,150,1,69,second,,,,,,,,,,,,,,,,,,,,,,,,,,,,,,,,,,,,,,,,,,,,,,,,,,,,,,,,,,,,,,,,,,,
,,,,,,6161508f9ab3db3622471e87,62bbf9fbe61a9153e4d8e9c0,2022-06-29_10h06.58.408,Colour_Asymmetry_Pilot,2022.1.3,MacIntel,50,62bbe60bf3d75ef465d3e404,,,,,,,,,,,,,,,,,,,,twofour,,3,0.469,,,,,,,,,,,,,,,,,,,,,,,,,,,,,,,,,,"[-0.07459999999999989,0.12139999999999995,-0.9922]","[0.37240000000000006,-0.050999999999999934,-0.5216]",68,31.5,1,0,0,response1disk,-7,-1.5,1,0,0,rectangle,-7,-1.5,1,0,0,2,2,0.002,0,-7,-1.5,1,0,0,0,9,9,88,1,7,second,,,,,,,,,,,,,,,,,,,,,,,,,,,,,,,,,,,,,,,,,,,,,,,,,,,,,,,,,,,,,,,,,,,
,,,,,,6161508f9ab3db3622471e87,62bbf9fbe61a9153e4d8e9c0,2022-06-29_10h06.58.408,Colour_Asymmetry_Pilot,2022.1.3,MacIntel,50,62bbe60bf3d75ef465d3e404,,,,,,,,,,,,,,,,,,,,fourthree,,-2,0.753,,,,,,,,,,,,,,,,,,,,,,,,,,,,,,,,,,"[1,0.12939999999999996,-1]","[0.40379999999999994,0.09000000000000008,0.44300000000000006]",-56,-34.5,1,0,0,response5disk,1,12.5,1,0,0,rectangle,1,12.5,1,0,0,2,1,0.002,0,1,12.5,1,0,0,0,10,10,25,1,25,first,,,,,,,,,,,,,,,,,,,,,,,,,,,,,,,,,,,,,,,,,,,,,,,,,,,,,,,,,,,,,,,,,,,
,,,,,,6161508f9ab3db3622471e87,62bbf9fbe61a9153e4d8e9c0,2022-06-29_10h06.58.408,Colour_Asymmetry_Pilot,2022.1.3,MacIntel,50,62bbe60bf3d75ef465d3e404,,,,,,,,,,,,,,,,,,,,threeone,,2,0.349,,,,,,,,,,,,,,,,,,,,,,,,,,,,,,,,,,"[0.9213999999999998,0.6391999999999998,-0.9922]","[0.7018,0.7176,0.6155999999999999]",63,-28.5,1,0,0,response3disk,3,10.5,1,0,0,rectangle,3,10.5,1,0,0,2,1,0,0,3,10.5,1,0,0,0,11,11,137,1,56,second,,,,,,,,,,,,,,,,,,,,,,,,,,,,,,,,,,,,,,,,,,,,,,,,,,,,,,,,,,,,,,,,,,,
,,,,,,6161508f9ab3db3622471e87,62bbf9fbe61a9153e4d8e9c0,2022-06-29_10h06.58.408,Colour_Asymmetry_Pilot,2022.1.3,MacIntel,50,62bbe60bf3d75ef465d3e404,,,,,,,,,,,,,,,,,,,,onetwo,,2,1.802,,,,,,,,,,,,,,,,,,,,,,,,,,,,,,,,,,"[-0.01980000000000004,-0.5138,-0.38039999999999996]","[0.6625999999999999,0.4980000000000002,-0.357]",69,-33.5,1,0,0,response3disk,-8,5.5,1,0,0,rectangle,-8,5.5,1,0,0,2,2,0.003,0,-8,5.5,1,0,0,0,12,12,101,1,20,second,,,,,,,,,,,,,,,,,,,,,,,,,,,,,,,,,,,,,,,,,,,,,,,,,,,,,,,,,,,,,,,,,,,
,,,,,,6161508f9ab3db3622471e87,62bbf9fbe61a9153e4d8e9c0,2022-06-29_10h06.58.408,Colour_Asymmetry_Pilot,2022.1.3,MacIntel,50,62bbe60bf3d75ef465d3e404,,,,,,,,,,,,,,,,,,,,onetwo,,4,0.301,,,,,,,,,,,,,,,,,,,,,,,,,,,,,,,,,,"[-0.9766,-0.6472,0.07440000000000002]","[-0.6942,-0.7648,-0.12959999999999994]",42,81.5,1,0,0,response1disk,-6,10.5,1,0,0,rectangle,-6,10.5,1,0,0,2,1,0.001,0,-6,10.5,1,0,0,0,13,13,1,1,1,first,,,,,,,,,,,,,,,,,,,,,,,,,,,,,,,,,,,,,,,,,,,,,,,,,,,,,,,,,,,,,,,,,,,
,,,,,,6161508f9ab3db3622471e87,62bbf9fbe61a9153e4d8e9c0,2022-06-29_10h06.58.408,Colour_Asymmetry_Pilot,2022.1.3,MacIntel,50,62bbe60bf3d75ef465d3e404,,,,,,,,,,,,,,,,,,,,threefour,,1,0.733,,,,,,,,,,,,,,,,,,,,,,,,,,,,,,,,,,"[0.3568,-0.20799999999999996,-0.9844]","[-0.45899999999999996,-0.3256,-0.9374]",45,-60.5,1,0,0,response3disk,13,3.5,1,0,0,rectangle,13,3.5,1,0,0,2,2,0.002,0,13,3.5,1,0,0,0,14,14,124,1,43,second,,,,,,,,,,,,,,,,,,,,,,,,,,,,,,,,,,,,,,,,,,,,,,,,,,,,,,,,,,,,,,,,,,,
,,,,,,6161508f9ab3db3622471e87,62bbf9fbe61a9153e4d8e9c0,2022-06-29_10h06.58.408,Colour_Asymmetry_Pilot,2022.1.3,MacIntel,50,62bbe60bf3d75ef465d3e404,,,,,,,,,,,,,,,,,,,,threefour,,-3,0.502,,,,,,,,,,,,,,,,,,,,,,,,,,,,,,,,,,"[0.796,0.2156,-0.27859999999999996]","[-0.9766,-0.34920000000000007,0.2156]",-63,46.5,1,0,0,response7disk,0,9.5,1,0,0,rectangle,0,9.5,1,0,0,2,1,0.006,0,0,9.5,1,0,0,0,15,15,29,1,29,first,,,,,,,,,,,,,,,,,,,,,,,,,,,,,,,,,,,,,,,,,,,,,,,,,,,,,,,,,,,,,,,,,,,
,,,,,,6161508f9ab3db3622471e87,62bbf9fbe61a9153e4d8e9c0,2022-06-29_10h06.58.408,Colour_Asymmetry_Pilot,2022.1.3,MacIntel,50,62bbe60bf3d75ef465d3e404,,,,,,,,,,,,,,,,,,,,threefour,,1,2.103,,,,,,,,,,,,,,,,,,,,,,,,,,,,,,,,,,"[-0.17659999999999998,0.3253999999999999,0.19999999999999996]","[-0.2942,-0.24719999999999998,-0.357]",24,-82.5,1,0,0,response3disk,-9,2.5,1,0,0,rectangle,-9,2.5,1,0,0,2,3,0.002,0,-9,2.5,1,0,0,0,16,16,45,1,45,first,,,,,,,,,,,,,,,,,,,,,,,,,,,,,,,,,,,,,,,,,,,,,,,,,,,,,,,,,,,,,,,,,,,
,,,,,,6161508f9ab3db3622471e87,62bbf9fbe61a9153e4d8e9c0,2022-06-29_10h06.58.408,Colour_Asymmetry_Pilot,2022.1.3,MacIntel,50,62bbe60bf3d75ef465d3e404,,,,,,,,,,,,,,,,,,,,fourtwo,,2,0.517,,,,,,,,,,,,,,,,,,,,,,,,,,,,,,,,,,"[0.7646000000000002,0.07440000000000002,0.2704]","[0.11359999999999992,0.6312,0.5213999999999999]",77,-46.5,1,0,0,response3disk,7,9.5,1,0,0,rectangle,7,9.5,1,0,0,2,2,0.002,0,7,9.5,1,0,0,0,17,17,134,1,53,second,,,,,,,,,,,,,,,,,,,,,,,,,,,,,,,,,,,,,,,,,,,,,,,,,,,,,,,,,,,,,,,,,,,
,,,,,,6161508f9ab3db3622471e87,62bbf9fbe61a9153e4d8e9c0,2022-06-29_10h06.58.408,Colour_Asymmetry_Pilot,2022.1.3,MacIntel,50,62bbe60bf3d75ef465d3e404,,,,,,,,,,,,,,,,,,,,threeone,,4,0.285,,,,,,,,,,,,,,,,,,,,,,,,,,,,,,,,,,"[-0.9688,-0.4902000000000001,-0.12159999999999993]","[-0.9766,-0.6472,0.07440000000000002]",30,69.5,1,0,0,response1disk,-5,-3.5,1,0,0,rectangle,-5,-3.5,1,0,0,2,2,0,0,-5,-3.5,1,0,0,0,18,18,141,1,60,second,,,,,,,,,,,,,,,,,,,,,,,,,,,,,,,,,,,,,,,,,,,,,,,,,,,,,,,,,,,,,,,,,,,
,,,,,,6161508f9ab3db3622471e87,62bbf9fbe61a9153e4d8e9c0,2022-06-29_10h06.58.408,Colour_Asymmetry_Pilot,2022.1.3,MacIntel,50,62bbe60bf3d75ef465d3e404,,,,,,,,,,,,,,,,,,,,twoone,,2,0.353,,,,,,,,,,,,,,,,,,,,,,,,,,,,,,,,,,"[0.8115999999999999,-0.0040000000000000036,-0.09819999999999995]","[-0.30200000000000005,0.14500000000000002,0.2784]",59,-28.5,1,0,0,response3disk,-7,10.5,1,0,0,rectangle,26,-85.5,1,0,0,1,1,3.033,1,3,1.5,1,0,0,0,19,19,55,1,55,first,response3disk_3,rectangle,,,,,,,,,,,,,,,,,,,,,,,,,,,,,,,,,,,,,,,,,,,,,,,,,,,,,,,,,,,,,,,,,
,,,,,,6161508f9ab3db3622471e87,62bbf9fbe61a9153e4d8e9c0,2022-06-29_10h06.58.408,Colour_Asymmetry_Pilot,2022.1.3,MacIntel,50,62bbe60bf3d75ef465d3e404,,,,,,,,,,,,,,,,,,,,onethree,,-3,1.97,,,,,,,,,,,,,,,,,,,,,,,,,,,,,,,,,,"[0.6547999999999998,-0.043199999999999905,-0.011800000000000033]","[0.30180000000000007,-0.7884,-0.9844]",-51,21.5,1,0,0,response7disk,2,-3.5,1,0,0,rectangle,2,-3.5,1,0,0,1,1,0,0,2,-3.5,1,0,0,0,20,20,113,1,32,second,,,,,,,,,,,,,,,,,,,,,,,,,,,,,,,,,,,,,,,,,,,,,,,,,,,,,,,,,,,,,,,,,,,
,,,,,,6161508f9ab3db3622471e87,62bbf9fbe61a9153e4d8e9c0,2022-06-29_10h06.58.408,Colour_Asymmetry_Pilot,2022.1.3,MacIntel,50,62bbe60bf3d75ef465d3e404,,,,,,,,,,,,,,,,,,,,onetwo,,-2,0.887,,,,,,,,,,,,,,,,,,,,,,,,,,,,,,,,,,"[-0.06680000000000008,-0.45100000000000007,-0.906]","[0.3881999999999999,-0.23939999999999995,-0.05040000000000011]",-75,-30.5,1,0,0,response5disk,9,10.5,1,0,0,rectangle,9,10.5,1,0,0,1,2,0.002,0,9,10.5,1,0,0,0,21,21,114,1,33,second,,,,,,,,,,,,,,,,,,,,,,,,,,,,,,,,,,,,,,,,,,,,,,,,,,,,,,,,,,,,,,,,,,,
,,,,,,6161508f9ab3db3622471e87,62bbf9fbe61a9153e4d8e9c0,2022-06-29_10h06.58.408,Colour_Asymmetry_Pilot,2022.1.3,MacIntel,50,62bbe60bf3d75ef465d3e404,,,,,,,,,,,,,,,,,,,,twofour,,-3,0.333,,,,,,,,,,,,,,,,,,,,,,,,,,,,,,,,,,"[-0.050999999999999934,-0.6706000000000001,-0.804]","[0.19199999999999995,0.18419999999999992,0.5136000000000001]",-58,34.5,1,0,0,response7disk,16,12.5,1,0,0,rectangle,16,12.5,1,0,0,1,2,0.001,0,16,12.5,1,0,0,0,22,22,0,1,0,first,,,,,,,,,,,,,,,,,,,,,,,,,,,,,,,,,,,,,,,,,,,,,,,,,,,,,,,,,,,,,,,,,,,
,,,,,,6161508f9ab3db3622471e87,62bbf9fbe61a9153e4d8e9c0,2022-06-29_10h06.58.408,Colour_Asymmetry_Pilot,2022.1.3,MacIntel,50,62bbe60bf3d75ef465d3e404,,,,,,,,,,,,,,,,,,,,onetwo,,-4,0.416,,,,,,,,,,,,,,,,,,,,,,,,,,,,,,,,,,"[0.37240000000000006,-0.050999999999999934,-0.5216]","[-0.9766,-0.34920000000000007,0.2156]",-29,69.5,1,0,0,response7disk,1,2.5,1,0,0,rectangle,1,2.5,1,0,0,1,1,0.002,0,1,2.5,1,0,0,0,23,23,111,1,30,second,,,,,,,,,,,,,,,,,,,,,,,,,,,,,,,,,,,,,,,,,,,,,,,,,,,,,,,,,,,,,,,,,,,
