trials.thisRepN,trials.thisTrialN,trials.thisN,trials.thisIndex,trials.ran,Colourcodes,participant,session,date,expName,psychopyVersion,OS,frameRate,study_id,trials_4.thisRepN,trials_4.thisTrialN,trials_4.thisN,trials_4.thisIndex,trials_4.ran,StimulusPos,key_resp.keys,key_resp.rt,key_resp_2.keys,key_resp_2.rt,key_resp_15.keys,key_resp_15.rt,key_resp_17.keys,key_resp_17.rt,key_resp_9.keys,key_resp_9.rt,key_resp_10.keys,key_resp_10.rt,Circle1_col,Ecc,Circle2_col,similarity,response_time,mouse_5.x,mouse_5.y,mouse_5.leftButton,mouse_5.midButton,mouse_5.rightButton,mouse_5.clicked_name,mouse_10.x,mouse_10.y,mouse_10.leftButton,mouse_10.midButton,mouse_10.rightButton,mouse_10.clicked_name,mouse_7.x,mouse_7.y,mouse_7.leftButton,mouse_7.midButton,mouse_7.rightButton,mouse_7.clicked_name,catchprac,catchnumberprac,mouse_6.x,mouse_6.y,mouse_6.leftButton,mouse_6.midButton,mouse_6.rightButton,mouse_6.clicked_name,duringprac.thisRepN,duringprac.thisTrialN,duringprac.thisN,duringprac.thisIndex,duringprac.ran,key_resp_22.keys,key_resp_22.rt,Circle1_colour,Circle2_colour,mouse.x,mouse.y,mouse.leftButton,mouse.midButton,mouse.rightButton,mouse.clicked_name,mouse_2.x,mouse_2.y,mouse_2.leftButton,mouse_2.midButton,mouse_2.rightButton,mouse_2.clicked_name,mouse_3.x,mouse_3.y,mouse_3.leftButton,mouse_3.midButton,mouse_3.rightButton,catchresponse,catchnumber,response_time_catch,Catch,mouse_11.x,mouse_11.y,mouse_11.leftButton,mouse_11.midButton,mouse_11.rightButton,trials_2.thisRepN,trials_2.thisTrialN,trials_2.thisN,trials_2.thisIndex,trials_2.ran,Colourpair,Temporder,mouse_3.clicked_name,mouse_11.clicked_name,trials_3.thisRepN,trials_3.thisTrialN,trials_3.thisN,trials_3.thisIndex,trials_3.ran,key_resp_instr_Ishi.keys,key_resp_instr_Ishi.rt,Ishi_trial_keyresp.keys,Ishi_trial_keyresp.rt,Ishi_textbox.text,Ishi_loop.thisRepN,Ishi_loop.thisTrialN,Ishi_loop.thisN,Ishi_loop.thisIndex,Ishi_loop.ran,imageaddress,textbox.text,mouse_4.x,mouse_4.y,mouse_4.leftButton,mouse_4.midButton,mouse_4.rightButton,mouse_4.clicked_name,textbox_2.text,mouse_8.x,mouse_8.y,mouse_8.leftButton,mouse_8.midButton,mouse_8.rightButton,mouse_8.clicked_name,textbox_3.text,mouse_9.x,mouse_9.y,mouse_9.leftButton,mouse_9.midButton,mouse_9.rightButton,mouse_9.clicked_name,textbox_4.text,mouse_12.x,mouse_12.y,mouse_12.leftButton,mouse_12.midButton,mouse_12.rightButton,mouse_12.clicked_name,textbox_5.text,mouse_13.x,mouse_13.y,mouse_13.leftButton,mouse_13.midButton,mouse_13.rightButton,mouse_13.clicked_name,textbox_6.text,mouse_14.x,mouse_14.y,mouse_14.leftButton,mouse_14.midButton,mouse_14.rightButton,mouse_14.clicked_name,textbox_7.text,mouse_15.x,mouse_15.y,mouse_15.leftButton,mouse_15.midButton,mouse_15.rightButton,mouse_15.clicked_name
0,0,0,74,1,,611f770454ccb42478157748,62bbfa3313ee3c73bf05e3eb,2022-06-29_09h08.14.676,Colour_Asymmetry_Pilot,2022.1.3,Win32,60.00960154,62bbe60bf3d75ef465d3e404,,,,,,,,,,,,,,,,,,,,,,,,,,,,,,,,,,,,,,,,,,,,,,,,,,,,,,,,,,,,,,,,,,,,,,,,,,,,,,,,,,,,,,,,,,,,,,,,,,,,,,,,,,,,,,,,,,,,,,,,,,,,,,,,,,,,,,,,,,,,,,,,,,,,,,,,,,,,,,
0,1,1,11,1,,611f770454ccb42478157748,62bbfa3313ee3c73bf05e3eb,2022-06-29_09h08.14.676,Colour_Asymmetry_Pilot,2022.1.3,Win32,60.00960154,62bbe60bf3d75ef465d3e404,,,,,,,,,,,,,,,,,,,,,,,,,,,,,,,,,,,,,,,,,,,,,,,,,,,,,,,,,,,,,,,,,,,,,,,,,,,,,,,,,,,,,,,,,,,,,,,,,,,,,,,,,,,,,,,,,,,,,,,,,,,,,,,,,,,,,,,,,,,,,,,,,,,,,,,,,,,,,,
0,2,2,49,1,,611f770454ccb42478157748,62bbfa3313ee3c73bf05e3eb,2022-06-29_09h08.14.676,Colour_Asymmetry_Pilot,2022.1.3,Win32,60.00960154,62bbe60bf3d75ef465d3e404,,,,,,,,,,,,,,,,,,,,,,,,,,,,,,,,,,,,,,,,,,,,,,,,,,,,,,,,,,,,,,,,,,,,,,,,,,,,,,,,,,,,,,,,,,,,,,,,,,,,,,,,,,,,,,,,,,,,,,,,,,,,,,,,,,,,,,,,,,,,,,,,,,,,,,,,,,,,,,
0,3,3,45,1,,611f770454ccb42478157748,62bbfa3313ee3c73bf05e3eb,2022-06-29_09h08.14.676,Colour_Asymmetry_Pilot,2022.1.3,Win32,60.00960154,62bbe60bf3d75ef465d3e404,,,,,,,,,,,,,,,,,,,,,,,,,,,,,,,,,,,,,,,,,,,,,,,,,,,,,,,,,,,,,,,,,,,,,,,,,,,,,,,,,,,,,,,,,,,,,,,,,,,,,,,,,,,,,,,,,,,,,,,,,,,,,,,,,,,,,,,,,,,,,,,,,,,,,,,,,,,,,,
0,4,4,71,1,,611f770454ccb42478157748,62bbfa3313ee3c73bf05e3eb,2022-06-29_09h08.14.676,Colour_Asymmetry_Pilot,2022.1.3,Win32,60.00960154,62bbe60bf3d75ef465d3e404,,,,,,,,,,,,,,,,,,,,,,,,,,,,,,,,,,,,,,,,,,,,,,,,,,,,,,,,,,,,,,,,,,,,,,,,,,,,,,,,,,,,,,,,,,,,,,,,,,,,,,,,,,,,,,,,,,,,,,,,,,,,,,,,,,,,,,,,,,,,,,,,,,,,,,,,,,,,,,
0,5,5,58,1,,611f770454ccb42478157748,62bbfa3313ee3c73bf05e3eb,2022-06-29_09h08.14.676,Colour_Asymmetry_Pilot,2022.1.3,Win32,60.00960154,62bbe60bf3d75ef465d3e404,,,,,,,,,,,,,,,,,,,,,,,,,,,,,,,,,,,,,,,,,,,,,,,,,,,,,,,,,,,,,,,,,,,,,,,,,,,,,,,,,,,,,,,,,,,,,,,,,,,,,,,,,,,,,,,,,,,,,,,,,,,,,,,,,,,,,,,,,,,,,,,,,,,,,,,,,,,,,,
0,6,6,72,1,,611f770454ccb42478157748,62bbfa3313ee3c73bf05e3eb,2022-06-29_09h08.14.676,Colour_Asymmetry_Pilot,2022.1.3,Win32,60.00960154,62bbe60bf3d75ef465d3e404,,,,,,,,,,,,,,,,,,,,,,,,,,,,,,,,,,,,,,,,,,,,,,,,,,,,,,,,,,,,,,,,,,,,,,,,,,,,,,,,,,,,,,,,,,,,,,,,,,,,,,,,,,,,,,,,,,,,,,,,,,,,,,,,,,,,,,,,,,,,,,,,,,,,,,,,,,,,,,
0,7,7,2,1,,611f770454ccb42478157748,62bbfa3313ee3c73bf05e3eb,2022-06-29_09h08.14.676,Colour_Asymmetry_Pilot,2022.1.3,Win32,60.00960154,62bbe60bf3d75ef465d3e404,,,,,,,,,,,,,,,,,,,,,,,,,,,,,,,,,,,,,,,,,,,,,,,,,,,,,,,,,,,,,,,,,,,,,,,,,,,,,,,,,,,,,,,,,,,,,,,,,,,,,,,,,,,,,,,,,,,,,,,,,,,,,,,,,,,,,,,,,,,,,,,,,,,,,,,,,,,,,,
0,8,8,70,1,,611f770454ccb42478157748,62bbfa3313ee3c73bf05e3eb,2022-06-29_09h08.14.676,Colour_Asymmetry_Pilot,2022.1.3,Win32,60.00960154,62bbe60bf3d75ef465d3e404,,,,,,,,,,,,,,,,,,,,,,,,,,,,,,,,,,,,,,,,,,,,,,,,,,,,,,,,,,,,,,,,,,,,,,,,,,,,,,,,,,,,,,,,,,,,,,,,,,,,,,,,,,,,,,,,,,,,,,,,,,,,,,,,,,,,,,,,,,,,,,,,,,,,,,,,,,,,,,
0,9,9,48,1,,611f770454ccb42478157748,62bbfa3313ee3c73bf05e3eb,2022-06-29_09h08.14.676,Colour_Asymmetry_Pilot,2022.1.3,Win32,60.00960154,62bbe60bf3d75ef465d3e404,,,,,,,,,,,,,,,,,,,,,,,,,,,,,,,,,,,,,,,,,,,,,,,,,,,,,,,,,,,,,,,,,,,,,,,,,,,,,,,,,,,,,,,,,,,,,,,,,,,,,,,,,,,,,,,,,,,,,,,,,,,,,,,,,,,,,,,,,,,,,,,,,,,,,,,,,,,,,,
0,10,10,8,1,,611f770454ccb42478157748,62bbfa3313ee3c73bf05e3eb,2022-06-29_09h08.14.676,Colour_Asymmetry_Pilot,2022.1.3,Win32,60.00960154,62bbe60bf3d75ef465d3e404,,,,,,,,,,,,,,,,,,,,,,,,,,,,,,,,,,,,,,,,,,,,,,,,,,,,,,,,,,,,,,,,,,,,,,,,,,,,,,,,,,,,,,,,,,,,,,,,,,,,,,,,,,,,,,,,,,,,,,,,,,,,,,,,,,,,,,,,,,,,,,,,,,,,,,,,,,,,,,
0,11,11,46,1,,611f770454ccb42478157748,62bbfa3313ee3c73bf05e3eb,2022-06-29_09h08.14.676,Colour_Asymmetry_Pilot,2022.1.3,Win32,60.00960154,62bbe60bf3d75ef465d3e404,,,,,,,,,,,,,,,,,,,,,,,,,,,,,,,,,,,,,,,,,,,,,,,,,,,,,,,,,,,,,,,,,,,,,,,,,,,,,,,,,,,,,,,,,,,,,,,,,,,,,,,,,,,,,,,,,,,,,,,,,,,,,,,,,,,,,,,,,,,,,,,,,,,,,,,,,,,,,,
0,12,12,87,1,,611f770454ccb42478157748,62bbfa3313ee3c73bf05e3eb,2022-06-29_09h08.14.676,Colour_Asymmetry_Pilot,2022.1.3,Win32,60.00960154,62bbe60bf3d75ef465d3e404,,,,,,,,,,,,,,,,,,,,,,,,,,,,,,,,,,,,,,,,,,,,,,,,,,,,,,,,,,,,,,,,,,,,,,,,,,,,,,,,,,,,,,,,,,,,,,,,,,,,,,,,,,,,,,,,,,,,,,,,,,,,,,,,,,,,,,,,,,,,,,,,,,,,,,,,,,,,,,
0,13,13,43,1,,611f770454ccb42478157748,62bbfa3313ee3c73bf05e3eb,2022-06-29_09h08.14.676,Colour_Asymmetry_Pilot,2022.1.3,Win32,60.00960154,62bbe60bf3d75ef465d3e404,,,,,,,,,,,,,,,,,,,,,,,,,,,,,,,,,,,,,,,,,,,,,,,,,,,,,,,,,,,,,,,,,,,,,,,,,,,,,,,,,,,,,,,,,,,,,,,,,,,,,,,,,,,,,,,,,,,,,,,,,,,,,,,,,,,,,,,,,,,,,,,,,,,,,,,,,,,,,,
0,14,14,13,1,,611f770454ccb42478157748,62bbfa3313ee3c73bf05e3eb,2022-06-29_09h08.14.676,Colour_Asymmetry_Pilot,2022.1.3,Win32,60.00960154,62bbe60bf3d75ef465d3e404,,,,,,,,,,,,,,,,,,,,,,,,,,,,,,,,,,,,,,,,,,,,,,,,,,,,,,,,,,,,,,,,,,,,,,,,,,,,,,,,,,,,,,,,,,,,,,,,,,,,,,,,,,,,,,,,,,,,,,,,,,,,,,,,,,,,,,,,,,,,,,,,,,,,,,,,,,,,,,
0,15,15,36,1,,611f770454ccb42478157748,62bbfa3313ee3c73bf05e3eb,2022-06-29_09h08.14.676,Colour_Asymmetry_Pilot,2022.1.3,Win32,60.00960154,62bbe60bf3d75ef465d3e404,,,,,,,,,,,,,,,,,,,,,,,,,,,,,,,,,,,,,,,,,,,,,,,,,,,,,,,,,,,,,,,,,,,,,,,,,,,,,,,,,,,,,,,,,,,,,,,,,,,,,,,,,,,,,,,,,,,,,,,,,,,,,,,,,,,,,,,,,,,,,,,,,,,,,,,,,,,,,,
0,16,16,30,1,,611f770454ccb42478157748,62bbfa3313ee3c73bf05e3eb,2022-06-29_09h08.14.676,Colour_Asymmetry_Pilot,2022.1.3,Win32,60.00960154,62bbe60bf3d75ef465d3e404,,,,,,,,,,,,,,,,,,,,,,,,,,,,,,,,,,,,,,,,,,,,,,,,,,,,,,,,,,,,,,,,,,,,,,,,,,,,,,,,,,,,,,,,,,,,,,,,,,,,,,,,,,,,,,,,,,,,,,,,,,,,,,,,,,,,,,,,,,,,,,,,,,,,,,,,,,,,,,
0,17,17,89,1,,611f770454ccb42478157748,62bbfa3313ee3c73bf05e3eb,2022-06-29_09h08.14.676,Colour_Asymmetry_Pilot,2022.1.3,Win32,60.00960154,62bbe60bf3d75ef465d3e404,,,,,,,,,,,,,,,,,,,,,,,,,,,,,,,,,,,,,,,,,,,,,,,,,,,,,,,,,,,,,,,,,,,,,,,,,,,,,,,,,,,,,,,,,,,,,,,,,,,,,,,,,,,,,,,,,,,,,,,,,,,,,,,,,,,,,,,,,,,,,,,,,,,,,,,,,,,,,,
0,18,18,10,1,,611f770454ccb42478157748,62bbfa3313ee3c73bf05e3eb,2022-06-29_09h08.14.676,Colour_Asymmetry_Pilot,2022.1.3,Win32,60.00960154,62bbe60bf3d75ef465d3e404,,,,,,,,,,,,,,,,,,,,,,,,,,,,,,,,,,,,,,,,,,,,,,,,,,,,,,,,,,,,,,,,,,,,,,,,,,,,,,,,,,,,,,,,,,,,,,,,,,,,,,,,,,,,,,,,,,,,,,,,,,,,,,,,,,,,,,,,,,,,,,,,,,,,,,,,,,,,,,
0,19,19,81,1,,611f770454ccb42478157748,62bbfa3313ee3c73bf05e3eb,2022-06-29_09h08.14.676,Colour_Asymmetry_Pilot,2022.1.3,Win32,60.00960154,62bbe60bf3d75ef465d3e404,,,,,,,,,,,,,,,,,,,,,,,,,,,,,,,,,,,,,,,,,,,,,,,,,,,,,,,,,,,,,,,,,,,,,,,,,,,,,,,,,,,,,,,,,,,,,,,,,,,,,,,,,,,,,,,,,,,,,,,,,,,,,,,,,,,,,,,,,,,,,,,,,,,,,,,,,,,,,,
0,20,20,50,1,,611f770454ccb42478157748,62bbfa3313ee3c73bf05e3eb,2022-06-29_09h08.14.676,Colour_Asymmetry_Pilot,2022.1.3,Win32,60.00960154,62bbe60bf3d75ef465d3e404,,,,,,,,,,,,,,,,,,,,,,,,,,,,,,,,,,,,,,,,,,,,,,,,,,,,,,,,,,,,,,,,,,,,,,,,,,,,,,,,,,,,,,,,,,,,,,,,,,,,,,,,,,,,,,,,,,,,,,,,,,,,,,,,,,,,,,,,,,,,,,,,,,,,,,,,,,,,,,
0,21,21,28,1,,611f770454ccb42478157748,62bbfa3313ee3c73bf05e3eb,2022-06-29_09h08.14.676,Colour_Asymmetry_Pilot,2022.1.3,Win32,60.00960154,62bbe60bf3d75ef465d3e404,,,,,,,,,,,,,,,,,,,,,,,,,,,,,,,,,,,,,,,,,,,,,,,,,,,,,,,,,,,,,,,,,,,,,,,,,,,,,,,,,,,,,,,,,,,,,,,,,,,,,,,,,,,,,,,,,,,,,,,,,,,,,,,,,,,,,,,,,,,,,,,,,,,,,,,,,,,,,,
0,22,22,17,1,,611f770454ccb42478157748,62bbfa3313ee3c73bf05e3eb,2022-06-29_09h08.14.676,Colour_Asymmetry_Pilot,2022.1.3,Win32,60.00960154,62bbe60bf3d75ef465d3e404,,,,,,,,,,,,,,,,,,,,,,,,,,,,,,,,,,,,,,,,,,,,,,,,,,,,,,,,,,,,,,,,,,,,,,,,,,,,,,,,,,,,,,,,,,,,,,,,,,,,,,,,,,,,,,,,,,,,,,,,,,,,,,,,,,,,,,,,,,,,,,,,,,,,,,,,,,,,,,
0,23,23,1,1,,611f770454ccb42478157748,62bbfa3313ee3c73bf05e3eb,2022-06-29_09h08.14.676,Colour_Asymmetry_Pilot,2022.1.3,Win32,60.00960154,62bbe60bf3d75ef465d3e404,,,,,,,,,,,,,,,,,,,,,,,,,,,,,,,,,,,,,,,,,,,,,,,,,,,,,,,,,,,,,,,,,,,,,,,,,,,,,,,,,,,,,,,,,,,,,,,,,,,,,,,,,,,,,,,,,,,,,,,,,,,,,,,,,,,,,,,,,,,,,,,,,,,,,,,,,,,,,,
0,24,24,31,1,,611f770454ccb42478157748,62bbfa3313ee3c73bf05e3eb,2022-06-29_09h08.14.676,Colour_Asymmetry_Pilot,2022.1.3,Win32,60.00960154,62bbe60bf3d75ef465d3e404,,,,,,,,,,,,,,,,,,,,,,,,,,,,,,,,,,,,,,,,,,,,,,,,,,,,,,,,,,,,,,,,,,,,,,,,,,,,,,,,,,,,,,,,,,,,,,,,,,,,,,,,,,,,,,,,,,,,,,,,,,,,,,,,,,,,,,,,,,,,,,,,,,,,,,,,,,,,,,
0,25,25,23,1,,611f770454ccb42478157748,62bbfa3313ee3c73bf05e3eb,2022-06-29_09h08.14.676,Colour_Asymmetry_Pilot,2022.1.3,Win32,60.00960154,62bbe60bf3d75ef465d3e404,,,,,,,,,,,,,,,,,,,,,,,,,,,,,,,,,,,,,,,,,,,,,,,,,,,,,,,,,,,,,,,,,,,,,,,,,,,,,,,,,,,,,,,,,,,,,,,,,,,,,,,,,,,,,,,,,,,,,,,,,,,,,,,,,,,,,,,,,,,,,,,,,,,,,,,,,,,,,,
0,26,26,32,1,,611f770454ccb42478157748,62bbfa3313ee3c73bf05e3eb,2022-06-29_09h08.14.676,Colour_Asymmetry_Pilot,2022.1.3,Win32,60.00960154,62bbe60bf3d75ef465d3e404,,,,,,,,,,,,,,,,,,,,,,,,,,,,,,,,,,,,,,,,,,,,,,,,,,,,,,,,,,,,,,,,,,,,,,,,,,,,,,,,,,,,,,,,,,,,,,,,,,,,,,,,,,,,,,,,,,,,,,,,,,,,,,,,,,,,,,,,,,,,,,,,,,,,,,,,,,,,,,
0,27,27,73,1,,611f770454ccb42478157748,62bbfa3313ee3c73bf05e3eb,2022-06-29_09h08.14.676,Colour_Asymmetry_Pilot,2022.1.3,Win32,60.00960154,62bbe60bf3d75ef465d3e404,,,,,,,,,,,,,,,,,,,,,,,,,,,,,,,,,,,,,,,,,,,,,,,,,,,,,,,,,,,,,,,,,,,,,,,,,,,,,,,,,,,,,,,,,,,,,,,,,,,,,,,,,,,,,,,,,,,,,,,,,,,,,,,,,,,,,,,,,,,,,,,,,,,,,,,,,,,,,,
0,28,28,65,1,,611f770454ccb42478157748,62bbfa3313ee3c73bf05e3eb,2022-06-29_09h08.14.676,Colour_Asymmetry_Pilot,2022.1.3,Win32,60.00960154,62bbe60bf3d75ef465d3e404,,,,,,,,,,,,,,,,,,,,,,,,,,,,,,,,,,,,,,,,,,,,,,,,,,,,,,,,,,,,,,,,,,,,,,,,,,,,,,,,,,,,,,,,,,,,,,,,,,,,,,,,,,,,,,,,,,,,,,,,,,,,,,,,,,,,,,,,,,,,,,,,,,,,,,,,,,,,,,
0,29,29,83,1,,611f770454ccb42478157748,62bbfa3313ee3c73bf05e3eb,2022-06-29_09h08.14.676,Colour_Asymmetry_Pilot,2022.1.3,Win32,60.00960154,62bbe60bf3d75ef465d3e404,,,,,,,,,,,,,,,,,,,,,,,,,,,,,,,,,,,,,,,,,,,,,,,,,,,,,,,,,,,,,,,,,,,,,,,,,,,,,,,,,,,,,,,,,,,,,,,,,,,,,,,,,,,,,,,,,,,,,,,,,,,,,,,,,,,,,,,,,,,,,,,,,,,,,,,,,,,,,,
0,30,30,34,1,,611f770454ccb42478157748,62bbfa3313ee3c73bf05e3eb,2022-06-29_09h08.14.676,Colour_Asymmetry_Pilot,2022.1.3,Win32,60.00960154,62bbe60bf3d75ef465d3e404,,,,,,,,,,,,,,,,,,,,,,,,,,,,,,,,,,,,,,,,,,,,,,,,,,,,,,,,,,,,,,,,,,,,,,,,,,,,,,,,,,,,,,,,,,,,,,,,,,,,,,,,,,,,,,,,,,,,,,,,,,,,,,,,,,,,,,,,,,,,,,,,,,,,,,,,,,,,,,
0,31,31,85,1,,611f770454ccb42478157748,62bbfa3313ee3c73bf05e3eb,2022-06-29_09h08.14.676,Colour_Asymmetry_Pilot,2022.1.3,Win32,60.00960154,62bbe60bf3d75ef465d3e404,,,,,,,,,,,,,,,,,,,,,,,,,,,,,,,,,,,,,,,,,,,,,,,,,,,,,,,,,,,,,,,,,,,,,,,,,,,,,,,,,,,,,,,,,,,,,,,,,,,,,,,,,,,,,,,,,,,,,,,,,,,,,,,,,,,,,,,,,,,,,,,,,,,,,,,,,,,,,,
0,32,32,86,1,,611f770454ccb42478157748,62bbfa3313ee3c73bf05e3eb,2022-06-29_09h08.14.676,Colour_Asymmetry_Pilot,2022.1.3,Win32,60.00960154,62bbe60bf3d75ef465d3e404,,,,,,,,,,,,,,,,,,,,,,,,,,,,,,,,,,,,,,,,,,,,,,,,,,,,,,,,,,,,,,,,,,,,,,,,,,,,,,,,,,,,,,,,,,,,,,,,,,,,,,,,,,,,,,,,,,,,,,,,,,,,,,,,,,,,,,,,,,,,,,,,,,,,,,,,,,,,,,
0,33,33,60,1,,611f770454ccb42478157748,62bbfa3313ee3c73bf05e3eb,2022-06-29_09h08.14.676,Colour_Asymmetry_Pilot,2022.1.3,Win32,60.00960154,62bbe60bf3d75ef465d3e404,,,,,,,,,,,,,,,,,,,,,,,,,,,,,,,,,,,,,,,,,,,,,,,,,,,,,,,,,,,,,,,,,,,,,,,,,,,,,,,,,,,,,,,,,,,,,,,,,,,,,,,,,,,,,,,,,,,,,,,,,,,,,,,,,,,,,,,,,,,,,,,,,,,,,,,,,,,,,,
0,34,34,20,1,,611f770454ccb42478157748,62bbfa3313ee3c73bf05e3eb,2022-06-29_09h08.14.676,Colour_Asymmetry_Pilot,2022.1.3,Win32,60.00960154,62bbe60bf3d75ef465d3e404,,,,,,,,,,,,,,,,,,,,,,,,,,,,,,,,,,,,,,,,,,,,,,,,,,,,,,,,,,,,,,,,,,,,,,,,,,,,,,,,,,,,,,,,,,,,,,,,,,,,,,,,,,,,,,,,,,,,,,,,,,,,,,,,,,,,,,,,,,,,,,,,,,,,,,,,,,,,,,
0,35,35,51,1,,611f770454ccb42478157748,62bbfa3313ee3c73bf05e3eb,2022-06-29_09h08.14.676,Colour_Asymmetry_Pilot,2022.1.3,Win32,60.00960154,62bbe60bf3d75ef465d3e404,,,,,,,,,,,,,,,,,,,,,,,,,,,,,,,,,,,,,,,,,,,,,,,,,,,,,,,,,,,,,,,,,,,,,,,,,,,,,,,,,,,,,,,,,,,,,,,,,,,,,,,,,,,,,,,,,,,,,,,,,,,,,,,,,,,,,,,,,,,,,,,,,,,,,,,,,,,,,,
0,36,36,90,1,,611f770454ccb42478157748,62bbfa3313ee3c73bf05e3eb,2022-06-29_09h08.14.676,Colour_Asymmetry_Pilot,2022.1.3,Win32,60.00960154,62bbe60bf3d75ef465d3e404,,,,,,,,,,,,,,,,,,,,,,,,,,,,,,,,,,,,,,,,,,,,,,,,,,,,,,,,,,,,,,,,,,,,,,,,,,,,,,,,,,,,,,,,,,,,,,,,,,,,,,,,,,,,,,,,,,,,,,,,,,,,,,,,,,,,,,,,,,,,,,,,,,,,,,,,,,,,,,
0,37,37,77,1,,611f770454ccb42478157748,62bbfa3313ee3c73bf05e3eb,2022-06-29_09h08.14.676,Colour_Asymmetry_Pilot,2022.1.3,Win32,60.00960154,62bbe60bf3d75ef465d3e404,,,,,,,,,,,,,,,,,,,,,,,,,,,,,,,,,,,,,,,,,,,,,,,,,,,,,,,,,,,,,,,,,,,,,,,,,,,,,,,,,,,,,,,,,,,,,,,,,,,,,,,,,,,,,,,,,,,,,,,,,,,,,,,,,,,,,,,,,,,,,,,,,,,,,,,,,,,,,,
0,38,38,12,1,,611f770454ccb42478157748,62bbfa3313ee3c73bf05e3eb,2022-06-29_09h08.14.676,Colour_Asymmetry_Pilot,2022.1.3,Win32,60.00960154,62bbe60bf3d75ef465d3e404,,,,,,,,,,,,,,,,,,,,,,,,,,,,,,,,,,,,,,,,,,,,,,,,,,,,,,,,,,,,,,,,,,,,,,,,,,,,,,,,,,,,,,,,,,,,,,,,,,,,,,,,,,,,,,,,,,,,,,,,,,,,,,,,,,,,,,,,,,,,,,,,,,,,,,,,,,,,,,
0,39,39,55,1,,611f770454ccb42478157748,62bbfa3313ee3c73bf05e3eb,2022-06-29_09h08.14.676,Colour_Asymmetry_Pilot,2022.1.3,Win32,60.00960154,62bbe60bf3d75ef465d3e404,,,,,,,,,,,,,,,,,,,,,,,,,,,,,,,,,,,,,,,,,,,,,,,,,,,,,,,,,,,,,,,,,,,,,,,,,,,,,,,,,,,,,,,,,,,,,,,,,,,,,,,,,,,,,,,,,,,,,,,,,,,,,,,,,,,,,,,,,,,,,,,,,,,,,,,,,,,,,,
0,40,40,88,1,,611f770454ccb42478157748,62bbfa3313ee3c73bf05e3eb,2022-06-29_09h08.14.676,Colour_Asymmetry_Pilot,2022.1.3,Win32,60.00960154,62bbe60bf3d75ef465d3e404,,,,,,,,,,,,,,,,,,,,,,,,,,,,,,,,,,,,,,,,,,,,,,,,,,,,,,,,,,,,,,,,,,,,,,,,,,,,,,,,,,,,,,,,,,,,,,,,,,,,,,,,,,,,,,,,,,,,,,,,,,,,,,,,,,,,,,,,,,,,,,,,,,,,,,,,,,,,,,
0,41,41,18,1,,611f770454ccb42478157748,62bbfa3313ee3c73bf05e3eb,2022-06-29_09h08.14.676,Colour_Asymmetry_Pilot,2022.1.3,Win32,60.00960154,62bbe60bf3d75ef465d3e404,,,,,,,,,,,,,,,,,,,,,,,,,,,,,,,,,,,,,,,,,,,,,,,,,,,,,,,,,,,,,,,,,,,,,,,,,,,,,,,,,,,,,,,,,,,,,,,,,,,,,,,,,,,,,,,,,,,,,,,,,,,,,,,,,,,,,,,,,,,,,,,,,,,,,,,,,,,,,,
0,42,42,29,1,,611f770454ccb42478157748,62bbfa3313ee3c73bf05e3eb,2022-06-29_09h08.14.676,Colour_Asymmetry_Pilot,2022.1.3,Win32,60.00960154,62bbe60bf3d75ef465d3e404,,,,,,,,,,,,,,,,,,,,,,,,,,,,,,,,,,,,,,,,,,,,,,,,,,,,,,,,,,,,,,,,,,,,,,,,,,,,,,,,,,,,,,,,,,,,,,,,,,,,,,,,,,,,,,,,,,,,,,,,,,,,,,,,,,,,,,,,,,,,,,,,,,,,,,,,,,,,,,
0,43,43,33,1,,611f770454ccb42478157748,62bbfa3313ee3c73bf05e3eb,2022-06-29_09h08.14.676,Colour_Asymmetry_Pilot,2022.1.3,Win32,60.00960154,62bbe60bf3d75ef465d3e404,,,,,,,,,,,,,,,,,,,,,,,,,,,,,,,,,,,,,,,,,,,,,,,,,,,,,,,,,,,,,,,,,,,,,,,,,,,,,,,,,,,,,,,,,,,,,,,,,,,,,,,,,,,,,,,,,,,,,,,,,,,,,,,,,,,,,,,,,,,,,,,,,,,,,,,,,,,,,,
0,44,44,80,1,,611f770454ccb42478157748,62bbfa3313ee3c73bf05e3eb,2022-06-29_09h08.14.676,Colour_Asymmetry_Pilot,2022.1.3,Win32,60.00960154,62bbe60bf3d75ef465d3e404,,,,,,,,,,,,,,,,,,,,,,,,,,,,,,,,,,,,,,,,,,,,,,,,,,,,,,,,,,,,,,,,,,,,,,,,,,,,,,,,,,,,,,,,,,,,,,,,,,,,,,,,,,,,,,,,,,,,,,,,,,,,,,,,,,,,,,,,,,,,,,,,,,,,,,,,,,,,,,
0,45,45,21,1,,611f770454ccb42478157748,62bbfa3313ee3c73bf05e3eb,2022-06-29_09h08.14.676,Colour_Asymmetry_Pilot,2022.1.3,Win32,60.00960154,62bbe60bf3d75ef465d3e404,,,,,,,,,,,,,,,,,,,,,,,,,,,,,,,,,,,,,,,,,,,,,,,,,,,,,,,,,,,,,,,,,,,,,,,,,,,,,,,,,,,,,,,,,,,,,,,,,,,,,,,,,,,,,,,,,,,,,,,,,,,,,,,,,,,,,,,,,,,,,,,,,,,,,,,,,,,,,,
0,46,46,39,1,,611f770454ccb42478157748,62bbfa3313ee3c73bf05e3eb,2022-06-29_09h08.14.676,Colour_Asymmetry_Pilot,2022.1.3,Win32,60.00960154,62bbe60bf3d75ef465d3e404,,,,,,,,,,,,,,,,,,,,,,,,,,,,,,,,,,,,,,,,,,,,,,,,,,,,,,,,,,,,,,,,,,,,,,,,,,,,,,,,,,,,,,,,,,,,,,,,,,,,,,,,,,,,,,,,,,,,,,,,,,,,,,,,,,,,,,,,,,,,,,,,,,,,,,,,,,,,,,
0,47,47,84,1,,611f770454ccb42478157748,62bbfa3313ee3c73bf05e3eb,2022-06-29_09h08.14.676,Colour_Asymmetry_Pilot,2022.1.3,Win32,60.00960154,62bbe60bf3d75ef465d3e404,,,,,,,,,,,,,,,,,,,,,,,,,,,,,,,,,,,,,,,,,,,,,,,,,,,,,,,,,,,,,,,,,,,,,,,,,,,,,,,,,,,,,,,,,,,,,,,,,,,,,,,,,,,,,,,,,,,,,,,,,,,,,,,,,,,,,,,,,,,,,,,,,,,,,,,,,,,,,,
0,48,48,59,1,,611f770454ccb42478157748,62bbfa3313ee3c73bf05e3eb,2022-06-29_09h08.14.676,Colour_Asymmetry_Pilot,2022.1.3,Win32,60.00960154,62bbe60bf3d75ef465d3e404,,,,,,,,,,,,,,,,,,,,,,,,,,,,,,,,,,,,,,,,,,,,,,,,,,,,,,,,,,,,,,,,,,,,,,,,,,,,,,,,,,,,,,,,,,,,,,,,,,,,,,,,,,,,,,,,,,,,,,,,,,,,,,,,,,,,,,,,,,,,,,,,,,,,,,,,,,,,,,
0,49,49,9,1,,611f770454ccb42478157748,62bbfa3313ee3c73bf05e3eb,2022-06-29_09h08.14.676,Colour_Asymmetry_Pilot,2022.1.3,Win32,60.00960154,62bbe60bf3d75ef465d3e404,,,,,,,,,,,,,,,,,,,,,,,,,,,,,,,,,,,,,,,,,,,,,,,,,,,,,,,,,,,,,,,,,,,,,,,,,,,,,,,,,,,,,,,,,,,,,,,,,,,,,,,,,,,,,,,,,,,,,,,,,,,,,,,,,,,,,,,,,,,,,,,,,,,,,,,,,,,,,,
0,50,50,67,1,,611f770454ccb42478157748,62bbfa3313ee3c73bf05e3eb,2022-06-29_09h08.14.676,Colour_Asymmetry_Pilot,2022.1.3,Win32,60.00960154,62bbe60bf3d75ef465d3e404,,,,,,,,,,,,,,,,,,,,,,,,,,,,,,,,,,,,,,,,,,,,,,,,,,,,,,,,,,,,,,,,,,,,,,,,,,,,,,,,,,,,,,,,,,,,,,,,,,,,,,,,,,,,,,,,,,,,,,,,,,,,,,,,,,,,,,,,,,,,,,,,,,,,,,,,,,,,,,
0,51,51,82,1,,611f770454ccb42478157748,62bbfa3313ee3c73bf05e3eb,2022-06-29_09h08.14.676,Colour_Asymmetry_Pilot,2022.1.3,Win32,60.00960154,62bbe60bf3d75ef465d3e404,,,,,,,,,,,,,,,,,,,,,,,,,,,,,,,,,,,,,,,,,,,,,,,,,,,,,,,,,,,,,,,,,,,,,,,,,,,,,,,,,,,,,,,,,,,,,,,,,,,,,,,,,,,,,,,,,,,,,,,,,,,,,,,,,,,,,,,,,,,,,,,,,,,,,,,,,,,,,,
0,52,52,25,1,,611f770454ccb42478157748,62bbfa3313ee3c73bf05e3eb,2022-06-29_09h08.14.676,Colour_Asymmetry_Pilot,2022.1.3,Win32,60.00960154,62bbe60bf3d75ef465d3e404,,,,,,,,,,,,,,,,,,,,,,,,,,,,,,,,,,,,,,,,,,,,,,,,,,,,,,,,,,,,,,,,,,,,,,,,,,,,,,,,,,,,,,,,,,,,,,,,,,,,,,,,,,,,,,,,,,,,,,,,,,,,,,,,,,,,,,,,,,,,,,,,,,,,,,,,,,,,,,
0,53,53,92,1,,611f770454ccb42478157748,62bbfa3313ee3c73bf05e3eb,2022-06-29_09h08.14.676,Colour_Asymmetry_Pilot,2022.1.3,Win32,60.00960154,62bbe60bf3d75ef465d3e404,,,,,,,,,,,,,,,,,,,,,,,,,,,,,,,,,,,,,,,,,,,,,,,,,,,,,,,,,,,,,,,,,,,,,,,,,,,,,,,,,,,,,,,,,,,,,,,,,,,,,,,,,,,,,,,,,,,,,,,,,,,,,,,,,,,,,,,,,,,,,,,,,,,,,,,,,,,,,,
0,54,54,44,1,,611f770454ccb42478157748,62bbfa3313ee3c73bf05e3eb,2022-06-29_09h08.14.676,Colour_Asymmetry_Pilot,2022.1.3,Win32,60.00960154,62bbe60bf3d75ef465d3e404,,,,,,,,,,,,,,,,,,,,,,,,,,,,,,,,,,,,,,,,,,,,,,,,,,,,,,,,,,,,,,,,,,,,,,,,,,,,,,,,,,,,,,,,,,,,,,,,,,,,,,,,,,,,,,,,,,,,,,,,,,,,,,,,,,,,,,,,,,,,,,,,,,,,,,,,,,,,,,
0,55,55,38,1,,611f770454ccb42478157748,62bbfa3313ee3c73bf05e3eb,2022-06-29_09h08.14.676,Colour_Asymmetry_Pilot,2022.1.3,Win32,60.00960154,62bbe60bf3d75ef465d3e404,,,,,,,,,,,,,,,,,,,,,,,,,,,,,,,,,,,,,,,,,,,,,,,,,,,,,,,,,,,,,,,,,,,,,,,,,,,,,,,,,,,,,,,,,,,,,,,,,,,,,,,,,,,,,,,,,,,,,,,,,,,,,,,,,,,,,,,,,,,,,,,,,,,,,,,,,,,,,,
0,56,56,19,1,,611f770454ccb42478157748,62bbfa3313ee3c73bf05e3eb,2022-06-29_09h08.14.676,Colour_Asymmetry_Pilot,2022.1.3,Win32,60.00960154,62bbe60bf3d75ef465d3e404,,,,,,,,,,,,,,,,,,,,,,,,,,,,,,,,,,,,,,,,,,,,,,,,,,,,,,,,,,,,,,,,,,,,,,,,,,,,,,,,,,,,,,,,,,,,,,,,,,,,,,,,,,,,,,,,,,,,,,,,,,,,,,,,,,,,,,,,,,,,,,,,,,,,,,,,,,,,,,
0,57,57,37,1,,611f770454ccb42478157748,62bbfa3313ee3c73bf05e3eb,2022-06-29_09h08.14.676,Colour_Asymmetry_Pilot,2022.1.3,Win32,60.00960154,62bbe60bf3d75ef465d3e404,,,,,,,,,,,,,,,,,,,,,,,,,,,,,,,,,,,,,,,,,,,,,,,,,,,,,,,,,,,,,,,,,,,,,,,,,,,,,,,,,,,,,,,,,,,,,,,,,,,,,,,,,,,,,,,,,,,,,,,,,,,,,,,,,,,,,,,,,,,,,,,,,,,,,,,,,,,,,,
0,58,58,4,1,,611f770454ccb42478157748,62bbfa3313ee3c73bf05e3eb,2022-06-29_09h08.14.676,Colour_Asymmetry_Pilot,2022.1.3,Win32,60.00960154,62bbe60bf3d75ef465d3e404,,,,,,,,,,,,,,,,,,,,,,,,,,,,,,,,,,,,,,,,,,,,,,,,,,,,,,,,,,,,,,,,,,,,,,,,,,,,,,,,,,,,,,,,,,,,,,,,,,,,,,,,,,,,,,,,,,,,,,,,,,,,,,,,,,,,,,,,,,,,,,,,,,,,,,,,,,,,,,
0,59,59,6,1,,611f770454ccb42478157748,62bbfa3313ee3c73bf05e3eb,2022-06-29_09h08.14.676,Colour_Asymmetry_Pilot,2022.1.3,Win32,60.00960154,62bbe60bf3d75ef465d3e404,,,,,,,,,,,,,,,,,,,,,,,,,,,,,,,,,,,,,,,,,,,,,,,,,,,,,,,,,,,,,,,,,,,,,,,,,,,,,,,,,,,,,,,,,,,,,,,,,,,,,,,,,,,,,,,,,,,,,,,,,,,,,,,,,,,,,,,,,,,,,,,,,,,,,,,,,,,,,,
0,60,60,78,1,,611f770454ccb42478157748,62bbfa3313ee3c73bf05e3eb,2022-06-29_09h08.14.676,Colour_Asymmetry_Pilot,2022.1.3,Win32,60.00960154,62bbe60bf3d75ef465d3e404,,,,,,,,,,,,,,,,,,,,,,,,,,,,,,,,,,,,,,,,,,,,,,,,,,,,,,,,,,,,,,,,,,,,,,,,,,,,,,,,,,,,,,,,,,,,,,,,,,,,,,,,,,,,,,,,,,,,,,,,,,,,,,,,,,,,,,,,,,,,,,,,,,,,,,,,,,,,,,
0,61,61,27,1,,611f770454ccb42478157748,62bbfa3313ee3c73bf05e3eb,2022-06-29_09h08.14.676,Colour_Asymmetry_Pilot,2022.1.3,Win32,60.00960154,62bbe60bf3d75ef465d3e404,,,,,,,,,,,,,,,,,,,,,,,,,,,,,,,,,,,,,,,,,,,,,,,,,,,,,,,,,,,,,,,,,,,,,,,,,,,,,,,,,,,,,,,,,,,,,,,,,,,,,,,,,,,,,,,,,,,,,,,,,,,,,,,,,,,,,,,,,,,,,,,,,,,,,,,,,,,,,,
0,62,62,16,1,,611f770454ccb42478157748,62bbfa3313ee3c73bf05e3eb,2022-06-29_09h08.14.676,Colour_Asymmetry_Pilot,2022.1.3,Win32,60.00960154,62bbe60bf3d75ef465d3e404,,,,,,,,,,,,,,,,,,,,,,,,,,,,,,,,,,,,,,,,,,,,,,,,,,,,,,,,,,,,,,,,,,,,,,,,,,,,,,,,,,,,,,,,,,,,,,,,,,,,,,,,,,,,,,,,,,,,,,,,,,,,,,,,,,,,,,,,,,,,,,,,,,,,,,,,,,,,,,
0,63,63,7,1,,611f770454ccb42478157748,62bbfa3313ee3c73bf05e3eb,2022-06-29_09h08.14.676,Colour_Asymmetry_Pilot,2022.1.3,Win32,60.00960154,62bbe60bf3d75ef465d3e404,,,,,,,,,,,,,,,,,,,,,,,,,,,,,,,,,,,,,,,,,,,,,,,,,,,,,,,,,,,,,,,,,,,,,,,,,,,,,,,,,,,,,,,,,,,,,,,,,,,,,,,,,,,,,,,,,,,,,,,,,,,,,,,,,,,,,,,,,,,,,,,,,,,,,,,,,,,,,,
0,64,64,63,1,,611f770454ccb42478157748,62bbfa3313ee3c73bf05e3eb,2022-06-29_09h08.14.676,Colour_Asymmetry_Pilot,2022.1.3,Win32,60.00960154,62bbe60bf3d75ef465d3e404,,,,,,,,,,,,,,,,,,,,,,,,,,,,,,,,,,,,,,,,,,,,,,,,,,,,,,,,,,,,,,,,,,,,,,,,,,,,,,,,,,,,,,,,,,,,,,,,,,,,,,,,,,,,,,,,,,,,,,,,,,,,,,,,,,,,,,,,,,,,,,,,,,,,,,,,,,,,,,
0,65,65,69,1,,611f770454ccb42478157748,62bbfa3313ee3c73bf05e3eb,2022-06-29_09h08.14.676,Colour_Asymmetry_Pilot,2022.1.3,Win32,60.00960154,62bbe60bf3d75ef465d3e404,,,,,,,,,,,,,,,,,,,,,,,,,,,,,,,,,,,,,,,,,,,,,,,,,,,,,,,,,,,,,,,,,,,,,,,,,,,,,,,,,,,,,,,,,,,,,,,,,,,,,,,,,,,,,,,,,,,,,,,,,,,,,,,,,,,,,,,,,,,,,,,,,,,,,,,,,,,,,,
0,66,66,61,1,,611f770454ccb42478157748,62bbfa3313ee3c73bf05e3eb,2022-06-29_09h08.14.676,Colour_Asymmetry_Pilot,2022.1.3,Win32,60.00960154,62bbe60bf3d75ef465d3e404,,,,,,,,,,,,,,,,,,,,,,,,,,,,,,,,,,,,,,,,,,,,,,,,,,,,,,,,,,,,,,,,,,,,,,,,,,,,,,,,,,,,,,,,,,,,,,,,,,,,,,,,,,,,,,,,,,,,,,,,,,,,,,,,,,,,,,,,,,,,,,,,,,,,,,,,,,,,,,
0,67,67,57,1,,611f770454ccb42478157748,62bbfa3313ee3c73bf05e3eb,2022-06-29_09h08.14.676,Colour_Asymmetry_Pilot,2022.1.3,Win32,60.00960154,62bbe60bf3d75ef465d3e404,,,,,,,,,,,,,,,,,,,,,,,,,,,,,,,,,,,,,,,,,,,,,,,,,,,,,,,,,,,,,,,,,,,,,,,,,,,,,,,,,,,,,,,,,,,,,,,,,,,,,,,,,,,,,,,,,,,,,,,,,,,,,,,,,,,,,,,,,,,,,,,,,,,,,,,,,,,,,,
0,68,68,66,1,,611f770454ccb42478157748,62bbfa3313ee3c73bf05e3eb,2022-06-29_09h08.14.676,Colour_Asymmetry_Pilot,2022.1.3,Win32,60.00960154,62bbe60bf3d75ef465d3e404,,,,,,,,,,,,,,,,,,,,,,,,,,,,,,,,,,,,,,,,,,,,,,,,,,,,,,,,,,,,,,,,,,,,,,,,,,,,,,,,,,,,,,,,,,,,,,,,,,,,,,,,,,,,,,,,,,,,,,,,,,,,,,,,,,,,,,,,,,,,,,,,,,,,,,,,,,,,,,
0,69,69,52,1,,611f770454ccb42478157748,62bbfa3313ee3c73bf05e3eb,2022-06-29_09h08.14.676,Colour_Asymmetry_Pilot,2022.1.3,Win32,60.00960154,62bbe60bf3d75ef465d3e404,,,,,,,,,,,,,,,,,,,,,,,,,,,,,,,,,,,,,,,,,,,,,,,,,,,,,,,,,,,,,,,,,,,,,,,,,,,,,,,,,,,,,,,,,,,,,,,,,,,,,,,,,,,,,,,,,,,,,,,,,,,,,,,,,,,,,,,,,,,,,,,,,,,,,,,,,,,,,,
0,70,70,24,1,,611f770454ccb42478157748,62bbfa3313ee3c73bf05e3eb,2022-06-29_09h08.14.676,Colour_Asymmetry_Pilot,2022.1.3,Win32,60.00960154,62bbe60bf3d75ef465d3e404,,,,,,,,,,,,,,,,,,,,,,,,,,,,,,,,,,,,,,,,,,,,,,,,,,,,,,,,,,,,,,,,,,,,,,,,,,,,,,,,,,,,,,,,,,,,,,,,,,,,,,,,,,,,,,,,,,,,,,,,,,,,,,,,,,,,,,,,,,,,,,,,,,,,,,,,,,,,,,
0,71,71,14,1,,611f770454ccb42478157748,62bbfa3313ee3c73bf05e3eb,2022-06-29_09h08.14.676,Colour_Asymmetry_Pilot,2022.1.3,Win32,60.00960154,62bbe60bf3d75ef465d3e404,,,,,,,,,,,,,,,,,,,,,,,,,,,,,,,,,,,,,,,,,,,,,,,,,,,,,,,,,,,,,,,,,,,,,,,,,,,,,,,,,,,,,,,,,,,,,,,,,,,,,,,,,,,,,,,,,,,,,,,,,,,,,,,,,,,,,,,,,,,,,,,,,,,,,,,,,,,,,,
0,72,72,62,1,,611f770454ccb42478157748,62bbfa3313ee3c73bf05e3eb,2022-06-29_09h08.14.676,Colour_Asymmetry_Pilot,2022.1.3,Win32,60.00960154,62bbe60bf3d75ef465d3e404,,,,,,,,,,,,,,,,,,,,,,,,,,,,,,,,,,,,,,,,,,,,,,,,,,,,,,,,,,,,,,,,,,,,,,,,,,,,,,,,,,,,,,,,,,,,,,,,,,,,,,,,,,,,,,,,,,,,,,,,,,,,,,,,,,,,,,,,,,,,,,,,,,,,,,,,,,,,,,
0,73,73,56,1,,611f770454ccb42478157748,62bbfa3313ee3c73bf05e3eb,2022-06-29_09h08.14.676,Colour_Asymmetry_Pilot,2022.1.3,Win32,60.00960154,62bbe60bf3d75ef465d3e404,,,,,,,,,,,,,,,,,,,,,,,,,,,,,,,,,,,,,,,,,,,,,,,,,,,,,,,,,,,,,,,,,,,,,,,,,,,,,,,,,,,,,,,,,,,,,,,,,,,,,,,,,,,,,,,,,,,,,,,,,,,,,,,,,,,,,,,,,,,,,,,,,,,,,,,,,,,,,,
0,74,74,15,1,,611f770454ccb42478157748,62bbfa3313ee3c73bf05e3eb,2022-06-29_09h08.14.676,Colour_Asymmetry_Pilot,2022.1.3,Win32,60.00960154,62bbe60bf3d75ef465d3e404,,,,,,,,,,,,,,,,,,,,,,,,,,,,,,,,,,,,,,,,,,,,,,,,,,,,,,,,,,,,,,,,,,,,,,,,,,,,,,,,,,,,,,,,,,,,,,,,,,,,,,,,,,,,,,,,,,,,,,,,,,,,,,,,,,,,,,,,,,,,,,,,,,,,,,,,,,,,,,
0,75,75,41,1,,611f770454ccb42478157748,62bbfa3313ee3c73bf05e3eb,2022-06-29_09h08.14.676,Colour_Asymmetry_Pilot,2022.1.3,Win32,60.00960154,62bbe60bf3d75ef465d3e404,,,,,,,,,,,,,,,,,,,,,,,,,,,,,,,,,,,,,,,,,,,,,,,,,,,,,,,,,,,,,,,,,,,,,,,,,,,,,,,,,,,,,,,,,,,,,,,,,,,,,,,,,,,,,,,,,,,,,,,,,,,,,,,,,,,,,,,,,,,,,,,,,,,,,,,,,,,,,,
0,76,76,54,1,,611f770454ccb42478157748,62bbfa3313ee3c73bf05e3eb,2022-06-29_09h08.14.676,Colour_Asymmetry_Pilot,2022.1.3,Win32,60.00960154,62bbe60bf3d75ef465d3e404,,,,,,,,,,,,,,,,,,,,,,,,,,,,,,,,,,,,,,,,,,,,,,,,,,,,,,,,,,,,,,,,,,,,,,,,,,,,,,,,,,,,,,,,,,,,,,,,,,,,,,,,,,,,,,,,,,,,,,,,,,,,,,,,,,,,,,,,,,,,,,,,,,,,,,,,,,,,,,
0,77,77,75,1,,611f770454ccb42478157748,62bbfa3313ee3c73bf05e3eb,2022-06-29_09h08.14.676,Colour_Asymmetry_Pilot,2022.1.3,Win32,60.00960154,62bbe60bf3d75ef465d3e404,,,,,,,,,,,,,,,,,,,,,,,,,,,,,,,,,,,,,,,,,,,,,,,,,,,,,,,,,,,,,,,,,,,,,,,,,,,,,,,,,,,,,,,,,,,,,,,,,,,,,,,,,,,,,,,,,,,,,,,,,,,,,,,,,,,,,,,,,,,,,,,,,,,,,,,,,,,,,,
0,78,78,26,1,,611f770454ccb42478157748,62bbfa3313ee3c73bf05e3eb,2022-06-29_09h08.14.676,Colour_Asymmetry_Pilot,2022.1.3,Win32,60.00960154,62bbe60bf3d75ef465d3e404,,,,,,,,,,,,,,,,,,,,,,,,,,,,,,,,,,,,,,,,,,,,,,,,,,,,,,,,,,,,,,,,,,,,,,,,,,,,,,,,,,,,,,,,,,,,,,,,,,,,,,,,,,,,,,,,,,,,,,,,,,,,,,,,,,,,,,,,,,,,,,,,,,,,,,,,,,,,,,
0,79,79,0,1,,611f770454ccb42478157748,62bbfa3313ee3c73bf05e3eb,2022-06-29_09h08.14.676,Colour_Asymmetry_Pilot,2022.1.3,Win32,60.00960154,62bbe60bf3d75ef465d3e404,,,,,,,,,,,,,,,,,,,,,,,,,,,,,,,,,,,,,,,,,,,,,,,,,,,,,,,,,,,,,,,,,,,,,,,,,,,,,,,,,,,,,,,,,,,,,,,,,,,,,,,,,,,,,,,,,,,,,,,,,,,,,,,,,,,,,,,,,,,,,,,,,,,,,,,,,,,,,,
0,80,80,40,1,,611f770454ccb42478157748,62bbfa3313ee3c73bf05e3eb,2022-06-29_09h08.14.676,Colour_Asymmetry_Pilot,2022.1.3,Win32,60.00960154,62bbe60bf3d75ef465d3e404,,,,,,,,,,,,,,,,,,,,,,,,,,,,,,,,,,,,,,,,,,,,,,,,,,,,,,,,,,,,,,,,,,,,,,,,,,,,,,,,,,,,,,,,,,,,,,,,,,,,,,,,,,,,,,,,,,,,,,,,,,,,,,,,,,,,,,,,,,,,,,,,,,,,,,,,,,,,,,
0,81,81,3,1,,611f770454ccb42478157748,62bbfa3313ee3c73bf05e3eb,2022-06-29_09h08.14.676,Colour_Asymmetry_Pilot,2022.1.3,Win32,60.00960154,62bbe60bf3d75ef465d3e404,,,,,,,,,,,,,,,,,,,,,,,,,,,,,,,,,,,,,,,,,,,,,,,,,,,,,,,,,,,,,,,,,,,,,,,,,,,,,,,,,,,,,,,,,,,,,,,,,,,,,,,,,,,,,,,,,,,,,,,,,,,,,,,,,,,,,,,,,,,,,,,,,,,,,,,,,,,,,,
0,82,82,79,1,,611f770454ccb42478157748,62bbfa3313ee3c73bf05e3eb,2022-06-29_09h08.14.676,Colour_Asymmetry_Pilot,2022.1.3,Win32,60.00960154,62bbe60bf3d75ef465d3e404,,,,,,,,,,,,,,,,,,,,,,,,,,,,,,,,,,,,,,,,,,,,,,,,,,,,,,,,,,,,,,,,,,,,,,,,,,,,,,,,,,,,,,,,,,,,,,,,,,,,,,,,,,,,,,,,,,,,,,,,,,,,,,,,,,,,,,,,,,,,,,,,,,,,,,,,,,,,,,
0,83,83,91,1,,611f770454ccb42478157748,62bbfa3313ee3c73bf05e3eb,2022-06-29_09h08.14.676,Colour_Asymmetry_Pilot,2022.1.3,Win32,60.00960154,62bbe60bf3d75ef465d3e404,,,,,,,,,,,,,,,,,,,,,,,,,,,,,,,,,,,,,,,,,,,,,,,,,,,,,,,,,,,,,,,,,,,,,,,,,,,,,,,,,,,,,,,,,,,,,,,,,,,,,,,,,,,,,,,,,,,,,,,,,,,,,,,,,,,,,,,,,,,,,,,,,,,,,,,,,,,,,,
0,84,84,5,1,,611f770454ccb42478157748,62bbfa3313ee3c73bf05e3eb,2022-06-29_09h08.14.676,Colour_Asymmetry_Pilot,2022.1.3,Win32,60.00960154,62bbe60bf3d75ef465d3e404,,,,,,,,,,,,,,,,,,,,,,,,,,,,,,,,,,,,,,,,,,,,,,,,,,,,,,,,,,,,,,,,,,,,,,,,,,,,,,,,,,,,,,,,,,,,,,,,,,,,,,,,,,,,,,,,,,,,,,,,,,,,,,,,,,,,,,,,,,,,,,,,,,,,,,,,,,,,,,
0,85,85,22,1,,611f770454ccb42478157748,62bbfa3313ee3c73bf05e3eb,2022-06-29_09h08.14.676,Colour_Asymmetry_Pilot,2022.1.3,Win32,60.00960154,62bbe60bf3d75ef465d3e404,,,,,,,,,,,,,,,,,,,,,,,,,,,,,,,,,,,,,,,,,,,,,,,,,,,,,,,,,,,,,,,,,,,,,,,,,,,,,,,,,,,,,,,,,,,,,,,,,,,,,,,,,,,,,,,,,,,,,,,,,,,,,,,,,,,,,,,,,,,,,,,,,,,,,,,,,,,,,,
0,86,86,53,1,,611f770454ccb42478157748,62bbfa3313ee3c73bf05e3eb,2022-06-29_09h08.14.676,Colour_Asymmetry_Pilot,2022.1.3,Win32,60.00960154,62bbe60bf3d75ef465d3e404,,,,,,,,,,,,,,,,,,,,,,,,,,,,,,,,,,,,,,,,,,,,,,,,,,,,,,,,,,,,,,,,,,,,,,,,,,,,,,,,,,,,,,,,,,,,,,,,,,,,,,,,,,,,,,,,,,,,,,,,,,,,,,,,,,,,,,,,,,,,,,,,,,,,,,,,,,,,,,
0,87,87,42,1,,611f770454ccb42478157748,62bbfa3313ee3c73bf05e3eb,2022-06-29_09h08.14.676,Colour_Asymmetry_Pilot,2022.1.3,Win32,60.00960154,62bbe60bf3d75ef465d3e404,,,,,,,,,,,,,,,,,,,,,,,,,,,,,,,,,,,,,,,,,,,,,,,,,,,,,,,,,,,,,,,,,,,,,,,,,,,,,,,,,,,,,,,,,,,,,,,,,,,,,,,,,,,,,,,,,,,,,,,,,,,,,,,,,,,,,,,,,,,,,,,,,,,,,,,,,,,,,,
0,88,88,68,1,,611f770454ccb42478157748,62bbfa3313ee3c73bf05e3eb,2022-06-29_09h08.14.676,Colour_Asymmetry_Pilot,2022.1.3,Win32,60.00960154,62bbe60bf3d75ef465d3e404,,,,,,,,,,,,,,,,,,,,,,,,,,,,,,,,,,,,,,,,,,,,,,,,,,,,,,,,,,,,,,,,,,,,,,,,,,,,,,,,,,,,,,,,,,,,,,,,,,,,,,,,,,,,,,,,,,,,,,,,,,,,,,,,,,,,,,,,,,,,,,,,,,,,,,,,,,,,,,
0,89,89,47,1,,611f770454ccb42478157748,62bbfa3313ee3c73bf05e3eb,2022-06-29_09h08.14.676,Colour_Asymmetry_Pilot,2022.1.3,Win32,60.00960154,62bbe60bf3d75ef465d3e404,,,,,,,,,,,,,,,,,,,,,,,,,,,,,,,,,,,,,,,,,,,,,,,,,,,,,,,,,,,,,,,,,,,,,,,,,,,,,,,,,,,,,,,,,,,,,,,,,,,,,,,,,,,,,,,,,,,,,,,,,,,,,,,,,,,,,,,,,,,,,,,,,,,,,,,,,,,,,,
0,90,90,64,1,,611f770454ccb42478157748,62bbfa3313ee3c73bf05e3eb,2022-06-29_09h08.14.676,Colour_Asymmetry_Pilot,2022.1.3,Win32,60.00960154,62bbe60bf3d75ef465d3e404,,,,,,,,,,,,,,,,,,,,,,,,,,,,,,,,,,,,,,,,,,,,,,,,,,,,,,,,,,,,,,,,,,,,,,,,,,,,,,,,,,,,,,,,,,,,,,,,,,,,,,,,,,,,,,,,,,,,,,,,,,,,,,,,,,,,,,,,,,,,,,,,,,,,,,,,,,,,,,
0,91,91,76,1,,611f770454ccb42478157748,62bbfa3313ee3c73bf05e3eb,2022-06-29_09h08.14.676,Colour_Asymmetry_Pilot,2022.1.3,Win32,60.00960154,62bbe60bf3d75ef465d3e404,,,,,,,,,,,,,,,,,,,,,,,,,,,,,,,,,,,,,,,,,,,,,,,,,,,,,,,,,,,,,,,,,,,,,,,,,,,,,,,,,,,,,,,,,,,,,,,,,,,,,,,,,,,,,,,,,,,,,,,,,,,,,,,,,,,,,,,,,,,,,,,,,,,,,,,,,,,,,,
0,92,92,35,1,,611f770454ccb42478157748,62bbfa3313ee3c73bf05e3eb,2022-06-29_09h08.14.676,Colour_Asymmetry_Pilot,2022.1.3,Win32,60.00960154,62bbe60bf3d75ef465d3e404,,,,,,,,,,,,,,,,,,,,,,,,,,,,,,,,,,,,,,,,,,,,,,,,,,,,,,,,,,,,,,,,,,,,,,,,,,,,,,,,,,,,,,,,,,,,,,,,,,,,,,,,,,,,,,,,,,,,,,,,,,,,,,,,,,,,,,,,,,,,,,,,,,,,,,,,,,,,,,
,,,,,,611f770454ccb42478157748,62bbfa3313ee3c73bf05e3eb,2022-06-29_09h08.14.676,Colour_Asymmetry_Pilot,2022.1.3,Win32,60.00960154,62bbe60bf3d75ef465d3e404,0,0,0,106,1,twoone,,,,,,,,,,,,,,,,,,,,,,,,,,,,,,,,,,,,,,,,,,,,,,,,,,,,,,,,,,,,,,,,,,,,,,,,,,,,,,,,,,,,,,,,,,,,,,,,,,,,,,,,,,,,,,,,,,,,,,,,,,,,,,,,,,,,,,,,,,,,,,,,,,,,,,,,
,,,,,,611f770454ccb42478157748,62bbfa3313ee3c73bf05e3eb,2022-06-29_09h08.14.676,Colour_Asymmetry_Pilot,2022.1.3,Win32,60.00960154,62bbe60bf3d75ef465d3e404,0,1,1,31,1,fourthree,,,,,,,,,,,,,,,,,,,,,,,,,,,,,,,,,,,,,,,,,,,,,,,,,,,,,,,,,,,,,,,,,,,,,,,,,,,,,,,,,,,,,,,,,,,,,,,,,,,,,,,,,,,,,,,,,,,,,,,,,,,,,,,,,,,,,,,,,,,,,,,,,,,,,,,,
,,,,,,611f770454ccb42478157748,62bbfa3313ee3c73bf05e3eb,2022-06-29_09h08.14.676,Colour_Asymmetry_Pilot,2022.1.3,Win32,60.00960154,62bbe60bf3d75ef465d3e404,0,2,2,107,1,twofour,,,,,,,,,,,,,,,,,,,,,,,,,,,,,,,,,,,,,,,,,,,,,,,,,,,,,,,,,,,,,,,,,,,,,,,,,,,,,,,,,,,,,,,,,,,,,,,,,,,,,,,,,,,,,,,,,,,,,,,,,,,,,,,,,,,,,,,,,,,,,,,,,,,,,,,,
,,,,,,611f770454ccb42478157748,62bbfa3313ee3c73bf05e3eb,2022-06-29_09h08.14.676,Colour_Asymmetry_Pilot,2022.1.3,Win32,60.00960154,62bbe60bf3d75ef465d3e404,0,3,3,22,1,fourtwo,,,,,,,,,,,,,,,,,,,,,,,,,,,,,,,,,,,,,,,,,,,,,,,,,,,,,,,,,,,,,,,,,,,,,,,,,,,,,,,,,,,,,,,,,,,,,,,,,,,,,,,,,,,,,,,,,,,,,,,,,,,,,,,,,,,,,,,,,,,,,,,,,,,,,,,,
,,,,,,611f770454ccb42478157748,62bbfa3313ee3c73bf05e3eb,2022-06-29_09h08.14.676,Colour_Asymmetry_Pilot,2022.1.3,Win32,60.00960154,62bbe60bf3d75ef465d3e404,0,4,4,83,1,twofour,,,,,,,,,,,,,,,,,,,,,,,,,,,,,,,,,,,,,,,,,,,,,,,,,,,,,,,,,,,,,,,,,,,,,,,,,,,,,,,,,,,,,,,,,,,,,,,,,,,,,,,,,,,,,,,,,,,,,,,,,,,,,,,,,,,,,,,,,,,,,,,,,,,,,,,,
,,,,,,611f770454ccb42478157748,62bbfa3313ee3c73bf05e3eb,2022-06-29_09h08.14.676,Colour_Asymmetry_Pilot,2022.1.3,Win32,60.00960154,62bbe60bf3d75ef465d3e404,0,5,5,153,1,onethree,,,,,,,,,,,,,,,,,,,,,,,,,,,,,,,,,,,,,,,,,,,,,,,,,,,,,,,,,,,,,,,,,,,,,,,,,,,,,,,,,,,,,,,,,,,,,,,,,,,,,,,,,,,,,,,,,,,,,,,,,,,,,,,,,,,,,,,,,,,,,,,,,,,,,,,,
,,,,,,611f770454ccb42478157748,62bbfa3313ee3c73bf05e3eb,2022-06-29_09h08.14.676,Colour_Asymmetry_Pilot,2022.1.3,Win32,60.00960154,62bbe60bf3d75ef465d3e404,0,6,6,32,1,onetwo,,,,,,,,,,,,,,,,,,,,,,,,,,,,,,,,,,,,,,,,,,,,,,,,,,,,,,,,,,,,,,,,,,,,,,,,,,,,,,,,,,,,,,,,,,,,,,,,,,,,,,,,,,,,,,,,,,,,,,,,,,,,,,,,,,,,,,,,,,,,,,,,,,,,,,,,
,,,,,,611f770454ccb42478157748,62bbfa3313ee3c73bf05e3eb,2022-06-29_09h08.14.676,Colour_Asymmetry_Pilot,2022.1.3,Win32,60.00960154,62bbe60bf3d75ef465d3e404,0,7,7,70,1,fourtwo,,,,,,,,,,,,,,,,,,,,,,,,,,,,,,,,,,,,,,,,,,,,,,,,,,,,,,,,,,,,,,,,,,,,,,,,,,,,,,,,,,,,,,,,,,,,,,,,,,,,,,,,,,,,,,,,,,,,,,,,,,,,,,,,,,,,,,,,,,,,,,,,,,,,,,,,
,,,,,,611f770454ccb42478157748,62bbfa3313ee3c73bf05e3eb,2022-06-29_09h08.14.676,Colour_Asymmetry_Pilot,2022.1.3,Win32,60.00960154,62bbe60bf3d75ef465d3e404,0,8,8,15,1,fourthree,,,,,,,,,,,,,,,,,,,,,,,,,,,,,,,,,,,,,,,,,,,,,,,,,,,,,,,,,,,,,,,,,,,,,,,,,,,,,,,,,,,,,,,,,,,,,,,,,,,,,,,,,,,,,,,,,,,,,,,,,,,,,,,,,,,,,,,,,,,,,,,,,,,,,,,,
,,,,,,611f770454ccb42478157748,62bbfa3313ee3c73bf05e3eb,2022-06-29_09h08.14.676,Colour_Asymmetry_Pilot,2022.1.3,Win32,60.00960154,62bbe60bf3d75ef465d3e404,0,9,9,88,1,onetwo,,,,,,,,,,,,,,,,,,,,,,,,,,,,,,,,,,,,,,,,,,,,,,,,,,,,,,,,,,,,,,,,,,,,,,,,,,,,,,,,,,,,,,,,,,,,,,,,,,,,,,,,,,,,,,,,,,,,,,,,,,,,,,,,,,,,,,,,,,,,,,,,,,,,,,,,
,,,,,,611f770454ccb42478157748,62bbfa3313ee3c73bf05e3eb,2022-06-29_09h08.14.676,Colour_Asymmetry_Pilot,2022.1.3,Win32,60.00960154,62bbe60bf3d75ef465d3e404,0,10,10,20,1,threeone,,,,,,,,,,,,,,,,,,,,,,,,,,,,,,,,,,,,,,,,,,,,,,,,,,,,,,,,,,,,,,,,,,,,,,,,,,,,,,,,,,,,,,,,,,,,,,,,,,,,,,,,,,,,,,,,,,,,,,,,,,,,,,,,,,,,,,,,,,,,,,,,,,,,,,,,
,,,,,,611f770454ccb42478157748,62bbfa3313ee3c73bf05e3eb,2022-06-29_09h08.14.676,Colour_Asymmetry_Pilot,2022.1.3,Win32,60.00960154,62bbe60bf3d75ef465d3e404,0,11,11,21,1,threefour,,,,,,,,,,,,,,,,,,,,,,,,,,,,,,,,,,,,,,,,,,,,,,,,,,,,,,,,,,,,,,,,,,,,,,,,,,,,,,,,,,,,,,,,,,,,,,,,,,,,,,,,,,,,,,,,,,,,,,,,,,,,,,,,,,,,,,,,,,,,,,,,,,,,,,,,
,,,,,,611f770454ccb42478157748,62bbfa3313ee3c73bf05e3eb,2022-06-29_09h08.14.676,Colour_Asymmetry_Pilot,2022.1.3,Win32,60.00960154,62bbe60bf3d75ef465d3e404,0,12,12,142,1,fourtwo,,,,,,,,,,,,,,,,,,,,,,,,,,,,,,,,,,,,,,,,,,,,,,,,,,,,,,,,,,,,,,,,,,,,,,,,,,,,,,,,,,,,,,,,,,,,,,,,,,,,,,,,,,,,,,,,,,,,,,,,,,,,,,,,,,,,,,,,,,,,,,,,,,,,,,,,
,,,,,,611f770454ccb42478157748,62bbfa3313ee3c73bf05e3eb,2022-06-29_09h08.14.676,Colour_Asymmetry_Pilot,2022.1.3,Win32,60.00960154,62bbe60bf3d75ef465d3e404,0,13,13,110,1,fourtwo,,,,,,,,,,,,,,,,,,,,,,,,,,,,,,,,,,,,,,,,,,,,,,,,,,,,,,,,,,,,,,,,,,,,,,,,,,,,,,,,,,,,,,,,,,,,,,,,,,,,,,,,,,,,,,,,,,,,,,,,,,,,,,,,,,,,,,,,,,,,,,,,,,,,,,,,
,,,,,,611f770454ccb42478157748,62bbfa3313ee3c73bf05e3eb,2022-06-29_09h08.14.676,Colour_Asymmetry_Pilot,2022.1.3,Win32,60.00960154,62bbe60bf3d75ef465d3e404,0,14,14,52,1,threeone,,,,,,,,,,,,,,,,,,,,,,,,,,,,,,,,,,,,,,,,,,,,,,,,,,,,,,,,,,,,,,,,,,,,,,,,,,,,,,,,,,,,,,,,,,,,,,,,,,,,,,,,,,,,,,,,,,,,,,,,,,,,,,,,,,,,,,,,,,,,,,,,,,,,,,,,
,,,,,,611f770454ccb42478157748,62bbfa3313ee3c73bf05e3eb,2022-06-29_09h08.14.676,Colour_Asymmetry_Pilot,2022.1.3,Win32,60.00960154,62bbe60bf3d75ef465d3e404,0,15,15,82,1,twoone,,,,,,,,,,,,,,,,,,,,,,,,,,,,,,,,,,,,,,,,,,,,,,,,,,,,,,,,,,,,,,,,,,,,,,,,,,,,,,,,,,,,,,,,,,,,,,,,,,,,,,,,,,,,,,,,,,,,,,,,,,,,,,,,,,,,,,,,,,,,,,,,,,,,,,,,
,,,,,,611f770454ccb42478157748,62bbfa3313ee3c73bf05e3eb,2022-06-29_09h08.14.676,Colour_Asymmetry_Pilot,2022.1.3,Win32,60.00960154,62bbe60bf3d75ef465d3e404,0,16,16,19,1,twofour,,,,,,,,,,,,,,,,,,,,,,,,,,,,,,,,,,,,,,,,,,,,,,,,,,,,,,,,,,,,,,,,,,,,,,,,,,,,,,,,,,,,,,,,,,,,,,,,,,,,,,,,,,,,,,,,,,,,,,,,,,,,,,,,,,,,,,,,,,,,,,,,,,,,,,,,
,,,,,,611f770454ccb42478157748,62bbfa3313ee3c73bf05e3eb,2022-06-29_09h08.14.676,Colour_Asymmetry_Pilot,2022.1.3,Win32,60.00960154,62bbe60bf3d75ef465d3e404,0,17,17,8,1,onetwo,,,,,,,,,,,,,,,,,,,,,,,,,,,,,,,,,,,,,,,,,,,,,,,,,,,,,,,,,,,,,,,,,,,,,,,,,,,,,,,,,,,,,,,,,,,,,,,,,,,,,,,,,,,,,,,,,,,,,,,,,,,,,,,,,,,,,,,,,,,,,,,,,,,,,,,,
,,,,,,611f770454ccb42478157748,62bbfa3313ee3c73bf05e3eb,2022-06-29_09h08.14.676,Colour_Asymmetry_Pilot,2022.1.3,Win32,60.00960154,62bbe60bf3d75ef465d3e404,0,18,18,80,1,onetwo,,,,,,,,,,,,,,,,,,,,,,,,,,,,,,,,,,,,,,,,,,,,,,,,,,,,,,,,,,,,,,,,,,,,,,,,,,,,,,,,,,,,,,,,,,,,,,,,,,,,,,,,,,,,,,,,,,,,,,,,,,,,,,,,,,,,,,,,,,,,,,,,,,,,,,,,
,,,,,,611f770454ccb42478157748,62bbfa3313ee3c73bf05e3eb,2022-06-29_09h08.14.676,Colour_Asymmetry_Pilot,2022.1.3,Win32,60.00960154,62bbe60bf3d75ef465d3e404,0,19,19,94,1,fourtwo,,,,,,,,,,,,,,,,,,,,,,,,,,,,,,,,,,,,,,,,,,,,,,,,,,,,,,,,,,,,,,,,,,,,,,,,,,,,,,,,,,,,,,,,,,,,,,,,,,,,,,,,,,,,,,,,,,,,,,,,,,,,,,,,,,,,,,,,,,,,,,,,,,,,,,,,
,,,,,,611f770454ccb42478157748,62bbfa3313ee3c73bf05e3eb,2022-06-29_09h08.14.676,Colour_Asymmetry_Pilot,2022.1.3,Win32,60.00960154,62bbe60bf3d75ef465d3e404,0,20,20,127,1,fourthree,,,,,,,,,,,,,,,,,,,,,,,,,,,,,,,,,,,,,,,,,,,,,,,,,,,,,,,,,,,,,,,,,,,,,,,,,,,,,,,,,,,,,,,,,,,,,,,,,,,,,,,,,,,,,,,,,,,,,,,,,,,,,,,,,,,,,,,,,,,,,,,,,,,,,,,,
,,,,,,611f770454ccb42478157748,62bbfa3313ee3c73bf05e3eb,2022-06-29_09h08.14.676,Colour_Asymmetry_Pilot,2022.1.3,Win32,60.00960154,62bbe60bf3d75ef465d3e404,0,21,21,10,1,twoone,,,,,,,,,,,,,,,,,,,,,,,,,,,,,,,,,,,,,,,,,,,,,,,,,,,,,,,,,,,,,,,,,,,,,,,,,,,,,,,,,,,,,,,,,,,,,,,,,,,,,,,,,,,,,,,,,,,,,,,,,,,,,,,,,,,,,,,,,,,,,,,,,,,,,,,,
,,,,,,611f770454ccb42478157748,62bbfa3313ee3c73bf05e3eb,2022-06-29_09h08.14.676,Colour_Asymmetry_Pilot,2022.1.3,Win32,60.00960154,62bbe60bf3d75ef465d3e404,0,22,22,150,1,fourtwo,,,,,,,,,,,,,,,,,,,,,,,,,,,,,,,,,,,,,,,,,,,,,,,,,,,,,,,,,,,,,,,,,,,,,,,,,,,,,,,,,,,,,,,,,,,,,,,,,,,,,,,,,,,,,,,,,,,,,,,,,,,,,,,,,,,,,,,,,,,,,,,,,,,,,,,,
,,,,,,611f770454ccb42478157748,62bbfa3313ee3c73bf05e3eb,2022-06-29_09h08.14.676,Colour_Asymmetry_Pilot,2022.1.3,Win32,60.00960154,62bbe60bf3d75ef465d3e404,0,23,23,98,1,twoone,,,,,,,,,,,,,,,,,,,,,,,,,,,,,,,,,,,,,,,,,,,,,,,,,,,,,,,,,,,,,,,,,,,,,,,,,,,,,,,,,,,,,,,,,,,,,,,,,,,,,,,,,,,,,,,,,,,,,,,,,,,,,,,,,,,,,,,,,,,,,,,,,,,,,,,,
,,,,,,611f770454ccb42478157748,62bbfa3313ee3c73bf05e3eb,2022-06-29_09h08.14.676,Colour_Asymmetry_Pilot,2022.1.3,Win32,60.00960154,62bbe60bf3d75ef465d3e404,0,24,24,118,1,fourtwo,,,,,,,,,,,,,,,,,,,,,,,,,,,,,,,,,,,,,,,,,,,,,,,,,,,,,,,,,,,,,,,,,,,,,,,,,,,,,,,,,,,,,,,,,,,,,,,,,,,,,,,,,,,,,,,,,,,,,,,,,,,,,,,,,,,,,,,,,,,,,,,,,,,,,,,,
,,,,,,611f770454ccb42478157748,62bbfa3313ee3c73bf05e3eb,2022-06-29_09h08.14.676,Colour_Asymmetry_Pilot,2022.1.3,Win32,60.00960154,62bbe60bf3d75ef465d3e404,0,25,25,13,1,threefour,,,,,,,,,,,,,,,,,,,,,,,,,,,,,,,,,,,,,,,,,,,,,,,,,,,,,,,,,,,,,,,,,,,,,,,,,,,,,,,,,,,,,,,,,,,,,,,,,,,,,,,,,,,,,,,,,,,,,,,,,,,,,,,,,,,,,,,,,,,,,,,,,,,,,,,,
,,,,,,611f770454ccb42478157748,62bbfa3313ee3c73bf05e3eb,2022-06-29_09h08.14.676,Colour_Asymmetry_Pilot,2022.1.3,Win32,60.00960154,62bbe60bf3d75ef465d3e404,0,26,26,6,1,fourtwo,,,,,,,,,,,,,,,,,,,,,,,,,,,,,,,,,,,,,,,,,,,,,,,,,,,,,,,,,,,,,,,,,,,,,,,,,,,,,,,,,,,,,,,,,,,,,,,,,,,,,,,,,,,,,,,,,,,,,,,,,,,,,,,,,,,,,,,,,,,,,,,,,,,,,,,,
,,,,,,611f770454ccb42478157748,62bbfa3313ee3c73bf05e3eb,2022-06-29_09h08.14.676,Colour_Asymmetry_Pilot,2022.1.3,Win32,60.00960154,62bbe60bf3d75ef465d3e404,0,27,27,149,1,threefour,,,,,,,,,,,,,,,,,,,,,,,,,,,,,,,,,,,,,,,,,,,,,,,,,,,,,,,,,,,,,,,,,,,,,,,,,,,,,,,,,,,,,,,,,,,,,,,,,,,,,,,,,,,,,,,,,,,,,,,,,,,,,,,,,,,,,,,,,,,,,,,,,,,,,,,,
,,,,,,611f770454ccb42478157748,62bbfa3313ee3c73bf05e3eb,2022-06-29_09h08.14.676,Colour_Asymmetry_Pilot,2022.1.3,Win32,60.00960154,62bbe60bf3d75ef465d3e404,0,28,28,65,1,onethree,,,,,,,,,,,,,,,,,,,,,,,,,,,,,,,,,,,,,,,,,,,,,,,,,,,,,,,,,,,,,,,,,,,,,,,,,,,,,,,,,,,,,,,,,,,,,,,,,,,,,,,,,,,,,,,,,,,,,,,,,,,,,,,,,,,,,,,,,,,,,,,,,,,,,,,,
,,,,,,611f770454ccb42478157748,62bbfa3313ee3c73bf05e3eb,2022-06-29_09h08.14.676,Colour_Asymmetry_Pilot,2022.1.3,Win32,60.00960154,62bbe60bf3d75ef465d3e404,0,29,29,134,1,fourtwo,,,,,,,,,,,,,,,,,,,,,,,,,,,,,,,,,,,,,,,,,,,,,,,,,,,,,,,,,,,,,,,,,,,,,,,,,,,,,,,,,,,,,,,,,,,,,,,,,,,,,,,,,,,,,,,,,,,,,,,,,,,,,,,,,,,,,,,,,,,,,,,,,,,,,,,,
,,,,,,611f770454ccb42478157748,62bbfa3313ee3c73bf05e3eb,2022-06-29_09h08.14.676,Colour_Asymmetry_Pilot,2022.1.3,Win32,60.00960154,62bbe60bf3d75ef465d3e404,0,30,30,33,1,onethree,,,,,,,,,,,,,,,,,,,,,,,,,,,,,,,,,,,,,,,,,,,,,,,,,,,,,,,,,,,,,,,,,,,,,,,,,,,,,,,,,,,,,,,,,,,,,,,,,,,,,,,,,,,,,,,,,,,,,,,,,,,,,,,,,,,,,,,,,,,,,,,,,,,,,,,,
,,,,,,611f770454ccb42478157748,62bbfa3313ee3c73bf05e3eb,2022-06-29_09h08.14.676,Colour_Asymmetry_Pilot,2022.1.3,Win32,60.00960154,62bbe60bf3d75ef465d3e404,0,31,31,29,1,threefour,,,,,,,,,,,,,,,,,,,,,,,,,,,,,,,,,,,,,,,,,,,,,,,,,,,,,,,,,,,,,,,,,,,,,,,,,,,,,,,,,,,,,,,,,,,,,,,,,,,,,,,,,,,,,,,,,,,,,,,,,,,,,,,,,,,,,,,,,,,,,,,,,,,,,,,,
,,,,,,611f770454ccb42478157748,62bbfa3313ee3c73bf05e3eb,2022-06-29_09h08.14.676,Colour_Asymmetry_Pilot,2022.1.3,Win32,60.00960154,62bbe60bf3d75ef465d3e404,0,32,32,124,1,threeone,,,,,,,,,,,,,,,,,,,,,,,,,,,,,,,,,,,,,,,,,,,,,,,,,,,,,,,,,,,,,,,,,,,,,,,,,,,,,,,,,,,,,,,,,,,,,,,,,,,,,,,,,,,,,,,,,,,,,,,,,,,,,,,,,,,,,,,,,,,,,,,,,,,,,,,,
,,,,,,611f770454ccb42478157748,62bbfa3313ee3c73bf05e3eb,2022-06-29_09h08.14.676,Colour_Asymmetry_Pilot,2022.1.3,Win32,60.00960154,62bbe60bf3d75ef465d3e404,0,33,33,109,1,threefour,,,,,,,,,,,,,,,,,,,,,,,,,,,,,,,,,,,,,,,,,,,,,,,,,,,,,,,,,,,,,,,,,,,,,,,,,,,,,,,,,,,,,,,,,,,,,,,,,,,,,,,,,,,,,,,,,,,,,,,,,,,,,,,,,,,,,,,,,,,,,,,,,,,,,,,,
,,,,,,611f770454ccb42478157748,62bbfa3313ee3c73bf05e3eb,2022-06-29_09h08.14.676,Colour_Asymmetry_Pilot,2022.1.3,Win32,60.00960154,62bbe60bf3d75ef465d3e404,0,34,34,55,1,fourthree,,,,,,,,,,,,,,,,,,,,,,,,,,,,,,,,,,,,,,,,,,,,,,,,,,,,,,,,,,,,,,,,,,,,,,,,,,,,,,,,,,,,,,,,,,,,,,,,,,,,,,,,,,,,,,,,,,,,,,,,,,,,,,,,,,,,,,,,,,,,,,,,,,,,,,,,
,,,,,,611f770454ccb42478157748,62bbfa3313ee3c73bf05e3eb,2022-06-29_09h08.14.676,Colour_Asymmetry_Pilot,2022.1.3,Win32,60.00960154,62bbe60bf3d75ef465d3e404,0,35,35,7,1,fourthree,,,,,,,,,,,,,,,,,,,,,,,,,,,,,,,,,,,,,,,,,,,,,,,,,,,,,,,,,,,,,,,,,,,,,,,,,,,,,,,,,,,,,,,,,,,,,,,,,,,,,,,,,,,,,,,,,,,,,,,,,,,,,,,,,,,,,,,,,,,,,,,,,,,,,,,,
,,,,,,611f770454ccb42478157748,62bbfa3313ee3c73bf05e3eb,2022-06-29_09h08.14.676,Colour_Asymmetry_Pilot,2022.1.3,Win32,60.00960154,62bbe60bf3d75ef465d3e404,0,36,36,5,1,threefour,,,,,,,,,,,,,,,,,,,,,,,,,,,,,,,,,,,,,,,,,,,,,,,,,,,,,,,,,,,,,,,,,,,,,,,,,,,,,,,,,,,,,,,,,,,,,,,,,,,,,,,,,,,,,,,,,,,,,,,,,,,,,,,,,,,,,,,,,,,,,,,,,,,,,,,,
,,,,,,611f770454ccb42478157748,62bbfa3313ee3c73bf05e3eb,2022-06-29_09h08.14.676,Colour_Asymmetry_Pilot,2022.1.3,Win32,60.00960154,62bbe60bf3d75ef465d3e404,0,37,37,9,1,onethree,,,,,,,,,,,,,,,,,,,,,,,,,,,,,,,,,,,,,,,,,,,,,,,,,,,,,,,,,,,,,,,,,,,,,,,,,,,,,,,,,,,,,,,,,,,,,,,,,,,,,,,,,,,,,,,,,,,,,,,,,,,,,,,,,,,,,,,,,,,,,,,,,,,,,,,,
,,,,,,611f770454ccb42478157748,62bbfa3313ee3c73bf05e3eb,2022-06-29_09h08.14.676,Colour_Asymmetry_Pilot,2022.1.3,Win32,60.00960154,62bbe60bf3d75ef465d3e404,0,38,38,119,1,fourthree,,,,,,,,,,,,,,,,,,,,,,,,,,,,,,,,,,,,,,,,,,,,,,,,,,,,,,,,,,,,,,,,,,,,,,,,,,,,,,,,,,,,,,,,,,,,,,,,,,,,,,,,,,,,,,,,,,,,,,,,,,,,,,,,,,,,,,,,,,,,,,,,,,,,,,,,
,,,,,,611f770454ccb42478157748,62bbfa3313ee3c73bf05e3eb,2022-06-29_09h08.14.676,Colour_Asymmetry_Pilot,2022.1.3,Win32,60.00960154,62bbe60bf3d75ef465d3e404,0,39,39,91,1,twofour,,,,,,,,,,,,,,,,,,,,,,,,,,,,,,,,,,,,,,,,,,,,,,,,,,,,,,,,,,,,,,,,,,,,,,,,,,,,,,,,,,,,,,,,,,,,,,,,,,,,,,,,,,,,,,,,,,,,,,,,,,,,,,,,,,,,,,,,,,,,,,,,,,,,,,,,
,,,,,,611f770454ccb42478157748,62bbfa3313ee3c73bf05e3eb,2022-06-29_09h08.14.676,Colour_Asymmetry_Pilot,2022.1.3,Win32,60.00960154,62bbe60bf3d75ef465d3e404,0,40,40,25,1,onethree,,,,,,,,,,,,,,,,,,,,,,,,,,,,,,,,,,,,,,,,,,,,,,,,,,,,,,,,,,,,,,,,,,,,,,,,,,,,,,,,,,,,,,,,,,,,,,,,,,,,,,,,,,,,,,,,,,,,,,,,,,,,,,,,,,,,,,,,,,,,,,,,,,,,,,,,
,,,,,,611f770454ccb42478157748,62bbfa3313ee3c73bf05e3eb,2022-06-29_09h08.14.676,Colour_Asymmetry_Pilot,2022.1.3,Win32,60.00960154,62bbe60bf3d75ef465d3e404,0,41,41,112,1,onetwo,,,,,,,,,,,,,,,,,,,,,,,,,,,,,,,,,,,,,,,,,,,,,,,,,,,,,,,,,,,,,,,,,,,,,,,,,,,,,,,,,,,,,,,,,,,,,,,,,,,,,,,,,,,,,,,,,,,,,,,,,,,,,,,,,,,,,,,,,,,,,,,,,,,,,,,,
,,,,,,611f770454ccb42478157748,62bbfa3313ee3c73bf05e3eb,2022-06-29_09h08.14.676,Colour_Asymmetry_Pilot,2022.1.3,Win32,60.00960154,62bbe60bf3d75ef465d3e404,0,42,42,49,1,onethree,,,,,,,,,,,,,,,,,,,,,,,,,,,,,,,,,,,,,,,,,,,,,,,,,,,,,,,,,,,,,,,,,,,,,,,,,,,,,,,,,,,,,,,,,,,,,,,,,,,,,,,,,,,,,,,,,,,,,,,,,,,,,,,,,,,,,,,,,,,,,,,,,,,,,,,,
,,,,,,611f770454ccb42478157748,62bbfa3313ee3c73bf05e3eb,2022-06-29_09h08.14.676,Colour_Asymmetry_Pilot,2022.1.3,Win32,60.00960154,62bbe60bf3d75ef465d3e404,0,43,43,38,1,fourtwo,,,,,,,,,,,,,,,,,,,,,,,,,,,,,,,,,,,,,,,,,,,,,,,,,,,,,,,,,,,,,,,,,,,,,,,,,,,,,,,,,,,,,,,,,,,,,,,,,,,,,,,,,,,,,,,,,,,,,,,,,,,,,,,,,,,,,,,,,,,,,,,,,,,,,,,,
,,,,,,611f770454ccb42478157748,62bbfa3313ee3c73bf05e3eb,2022-06-29_09h08.14.676,Colour_Asymmetry_Pilot,2022.1.3,Win32,60.00960154,62bbe60bf3d75ef465d3e404,0,44,44,54,1,fourtwo,,,,,,,,,,,,,,,,,,,,,,,,,,,,,,,,,,,,,,,,,,,,,,,,,,,,,,,,,,,,,,,,,,,,,,,,,,,,,,,,,,,,,,,,,,,,,,,,,,,,,,,,,,,,,,,,,,,,,,,,,,,,,,,,,,,,,,,,,,,,,,,,,,,,,,,,
,,,,,,611f770454ccb42478157748,62bbfa3313ee3c73bf05e3eb,2022-06-29_09h08.14.676,Colour_Asymmetry_Pilot,2022.1.3,Win32,60.00960154,62bbe60bf3d75ef465d3e404,0,45,45,151,1,fourthree,,,,,,,,,,,,,,,,,,,,,,,,,,,,,,,,,,,,,,,,,,,,,,,,,,,,,,,,,,,,,,,,,,,,,,,,,,,,,,,,,,,,,,,,,,,,,,,,,,,,,,,,,,,,,,,,,,,,,,,,,,,,,,,,,,,,,,,,,,,,,,,,,,,,,,,,
,,,,,,611f770454ccb42478157748,62bbfa3313ee3c73bf05e3eb,2022-06-29_09h08.14.676,Colour_Asymmetry_Pilot,2022.1.3,Win32,60.00960154,62bbe60bf3d75ef465d3e404,0,46,46,76,1,threeone,,,,,,,,,,,,,,,,,,,,,,,,,,,,,,,,,,,,,,,,,,,,,,,,,,,,,,,,,,,,,,,,,,,,,,,,,,,,,,,,,,,,,,,,,,,,,,,,,,,,,,,,,,,,,,,,,,,,,,,,,,,,,,,,,,,,,,,,,,,,,,,,,,,,,,,,
,,,,,,611f770454ccb42478157748,62bbfa3313ee3c73bf05e3eb,2022-06-29_09h08.14.676,Colour_Asymmetry_Pilot,2022.1.3,Win32,60.00960154,62bbe60bf3d75ef465d3e404,0,47,47,17,1,onethree,,,,,,,,,,,,,,,,,,,,,,,,,,,,,,,,,,,,,,,,,,,,,,,,,,,,,,,,,,,,,,,,,,,,,,,,,,,,,,,,,,,,,,,,,,,,,,,,,,,,,,,,,,,,,,,,,,,,,,,,,,,,,,,,,,,,,,,,,,,,,,,,,,,,,,,,
,,,,,,611f770454ccb42478157748,62bbfa3313ee3c73bf05e3eb,2022-06-29_09h08.14.676,Colour_Asymmetry_Pilot,2022.1.3,Win32,60.00960154,62bbe60bf3d75ef465d3e404,0,48,48,157,1,threefour,,,,,,,,,,,,,,,,,,,,,,,,,,,,,,,,,,,,,,,,,,,,,,,,,,,,,,,,,,,,,,,,,,,,,,,,,,,,,,,,,,,,,,,,,,,,,,,,,,,,,,,,,,,,,,,,,,,,,,,,,,,,,,,,,,,,,,,,,,,,,,,,,,,,,,,,
,,,,,,611f770454ccb42478157748,62bbfa3313ee3c73bf05e3eb,2022-06-29_09h08.14.676,Colour_Asymmetry_Pilot,2022.1.3,Win32,60.00960154,62bbe60bf3d75ef465d3e404,0,49,49,126,1,fourtwo,,,,,,,,,,,,,,,,,,,,,,,,,,,,,,,,,,,,,,,,,,,,,,,,,,,,,,,,,,,,,,,,,,,,,,,,,,,,,,,,,,,,,,,,,,,,,,,,,,,,,,,,,,,,,,,,,,,,,,,,,,,,,,,,,,,,,,,,,,,,,,,,,,,,,,,,
,,,,,,611f770454ccb42478157748,62bbfa3313ee3c73bf05e3eb,2022-06-29_09h08.14.676,Colour_Asymmetry_Pilot,2022.1.3,Win32,60.00960154,62bbe60bf3d75ef465d3e404,0,50,50,155,1,twofour,,,,,,,,,,,,,,,,,,,,,,,,,,,,,,,,,,,,,,,,,,,,,,,,,,,,,,,,,,,,,,,,,,,,,,,,,,,,,,,,,,,,,,,,,,,,,,,,,,,,,,,,,,,,,,,,,,,,,,,,,,,,,,,,,,,,,,,,,,,,,,,,,,,,,,,,
,,,,,,611f770454ccb42478157748,62bbfa3313ee3c73bf05e3eb,2022-06-29_09h08.14.676,Colour_Asymmetry_Pilot,2022.1.3,Win32,60.00960154,62bbe60bf3d75ef465d3e404,0,51,51,46,1,fourtwo,,,,,,,,,,,,,,,,,,,,,,,,,,,,,,,,,,,,,,,,,,,,,,,,,,,,,,,,,,,,,,,,,,,,,,,,,,,,,,,,,,,,,,,,,,,,,,,,,,,,,,,,,,,,,,,,,,,,,,,,,,,,,,,,,,,,,,,,,,,,,,,,,,,,,,,,
,,,,,,611f770454ccb42478157748,62bbfa3313ee3c73bf05e3eb,2022-06-29_09h08.14.676,Colour_Asymmetry_Pilot,2022.1.3,Win32,60.00960154,62bbe60bf3d75ef465d3e404,0,52,52,145,1,onethree,,,,,,,,,,,,,,,,,,,,,,,,,,,,,,,,,,,,,,,,,,,,,,,,,,,,,,,,,,,,,,,,,,,,,,,,,,,,,,,,,,,,,,,,,,,,,,,,,,,,,,,,,,,,,,,,,,,,,,,,,,,,,,,,,,,,,,,,,,,,,,,,,,,,,,,,
,,,,,,611f770454ccb42478157748,62bbfa3313ee3c73bf05e3eb,2022-06-29_09h08.14.676,Colour_Asymmetry_Pilot,2022.1.3,Win32,60.00960154,62bbe60bf3d75ef465d3e404,0,53,53,95,1,fourthree,,,,,,,,,,,,,,,,,,,,,,,,,,,,,,,,,,,,,,,,,,,,,,,,,,,,,,,,,,,,,,,,,,,,,,,,,,,,,,,,,,,,,,,,,,,,,,,,,,,,,,,,,,,,,,,,,,,,,,,,,,,,,,,,,,,,,,,,,,,,,,,,,,,,,,,,
,,,,,,611f770454ccb42478157748,62bbfa3313ee3c73bf05e3eb,2022-06-29_09h08.14.676,Colour_Asymmetry_Pilot,2022.1.3,Win32,60.00960154,62bbe60bf3d75ef465d3e404,0,54,54,50,1,twoone,,,,,,,,,,,,,,,,,,,,,,,,,,,,,,,,,,,,,,,,,,,,,,,,,,,,,,,,,,,,,,,,,,,,,,,,,,,,,,,,,,,,,,,,,,,,,,,,,,,,,,,,,,,,,,,,,,,,,,,,,,,,,,,,,,,,,,,,,,,,,,,,,,,,,,,,
,,,,,,611f770454ccb42478157748,62bbfa3313ee3c73bf05e3eb,2022-06-29_09h08.14.676,Colour_Asymmetry_Pilot,2022.1.3,Win32,60.00960154,62bbe60bf3d75ef465d3e404,0,55,55,2,1,twoone,,,,,,,,,,,,,,,,,,,,,,,,,,,,,,,,,,,,,,,,,,,,,,,,,,,,,,,,,,,,,,,,,,,,,,,,,,,,,,,,,,,,,,,,,,,,,,,,,,,,,,,,,,,,,,,,,,,,,,,,,,,,,,,,,,,,,,,,,,,,,,,,,,,,,,,,
,,,,,,611f770454ccb42478157748,62bbfa3313ee3c73bf05e3eb,2022-06-29_09h08.14.676,Colour_Asymmetry_Pilot,2022.1.3,Win32,60.00960154,62bbe60bf3d75ef465d3e404,0,56,56,37,1,threefour,,,,,,,,,,,,,,,,,,,,,,,,,,,,,,,,,,,,,,,,,,,,,,,,,,,,,,,,,,,,,,,,,,,,,,,,,,,,,,,,,,,,,,,,,,,,,,,,,,,,,,,,,,,,,,,,,,,,,,,,,,,,,,,,,,,,,,,,,,,,,,,,,,,,,,,,
,,,,,,611f770454ccb42478157748,62bbfa3313ee3c73bf05e3eb,2022-06-29_09h08.14.676,Colour_Asymmetry_Pilot,2022.1.3,Win32,60.00960154,62bbe60bf3d75ef465d3e404,0,57,57,117,1,threefour,,,,,,,,,,,,,,,,,,,,,,,,,,,,,,,,,,,,,,,,,,,,,,,,,,,,,,,,,,,,,,,,,,,,,,,,,,,,,,,,,,,,,,,,,,,,,,,,,,,,,,,,,,,,,,,,,,,,,,,,,,,,,,,,,,,,,,,,,,,,,,,,,,,,,,,,
,,,,,,611f770454ccb42478157748,62bbfa3313ee3c73bf05e3eb,2022-06-29_09h08.14.676,Colour_Asymmetry_Pilot,2022.1.3,Win32,60.00960154,62bbe60bf3d75ef465d3e404,0,58,58,85,1,threefour,,,,,,,,,,,,,,,,,,,,,,,,,,,,,,,,,,,,,,,,,,,,,,,,,,,,,,,,,,,,,,,,,,,,,,,,,,,,,,,,,,,,,,,,,,,,,,,,,,,,,,,,,,,,,,,,,,,,,,,,,,,,,,,,,,,,,,,,,,,,,,,,,,,,,,,,
,,,,,,611f770454ccb42478157748,62bbfa3313ee3c73bf05e3eb,2022-06-29_09h08.14.676,Colour_Asymmetry_Pilot,2022.1.3,Win32,60.00960154,62bbe60bf3d75ef465d3e404,0,59,59,128,1,onetwo,,,,,,,,,,,,,,,,,,,,,,,,,,,,,,,,,,,,,,,,,,,,,,,,,,,,,,,,,,,,,,,,,,,,,,,,,,,,,,,,,,,,,,,,,,,,,,,,,,,,,,,,,,,,,,,,,,,,,,,,,,,,,,,,,,,,,,,,,,,,,,,,,,,,,,,,
,,,,,,611f770454ccb42478157748,62bbfa3313ee3c73bf05e3eb,2022-06-29_09h08.14.676,Colour_Asymmetry_Pilot,2022.1.3,Win32,60.00960154,62bbe60bf3d75ef465d3e404,0,60,60,42,1,twoone,,,,,,,,,,,,,,,,,,,,,,,,,,,,,,,,,,,,,,,,,,,,,,,,,,,,,,,,,,,,,,,,,,,,,,,,,,,,,,,,,,,,,,,,,,,,,,,,,,,,,,,,,,,,,,,,,,,,,,,,,,,,,,,,,,,,,,,,,,,,,,,,,,,,,,,,
,,,,,,611f770454ccb42478157748,62bbfa3313ee3c73bf05e3eb,2022-06-29_09h08.14.676,Colour_Asymmetry_Pilot,2022.1.3,Win32,60.00960154,62bbe60bf3d75ef465d3e404,0,61,61,135,1,fourthree,,,,,,,,,,,,,,,,,,,,,,,,,,,,,,,,,,,,,,,,,,,,,,,,,,,,,,,,,,,,,,,,,,,,,,,,,,,,,,,,,,,,,,,,,,,,,,,,,,,,,,,,,,,,,,,,,,,,,,,,,,,,,,,,,,,,,,,,,,,,,,,,,,,,,,,,
,,,,,,611f770454ccb42478157748,62bbfa3313ee3c73bf05e3eb,2022-06-29_09h08.14.676,Colour_Asymmetry_Pilot,2022.1.3,Win32,60.00960154,62bbe60bf3d75ef465d3e404,0,62,62,133,1,threefour,,,,,,,,,,,,,,,,,,,,,,,,,,,,,,,,,,,,,,,,,,,,,,,,,,,,,,,,,,,,,,,,,,,,,,,,,,,,,,,,,,,,,,,,,,,,,,,,,,,,,,,,,,,,,,,,,,,,,,,,,,,,,,,,,,,,,,,,,,,,,,,,,,,,,,,,
,,,,,,611f770454ccb42478157748,62bbfa3313ee3c73bf05e3eb,2022-06-29_09h08.14.676,Colour_Asymmetry_Pilot,2022.1.3,Win32,60.00960154,62bbe60bf3d75ef465d3e404,0,63,63,137,1,onethree,,,,,,,,,,,,,,,,,,,,,,,,,,,,,,,,,,,,,,,,,,,,,,,,,,,,,,,,,,,,,,,,,,,,,,,,,,,,,,,,,,,,,,,,,,,,,,,,,,,,,,,,,,,,,,,,,,,,,,,,,,,,,,,,,,,,,,,,,,,,,,,,,,,,,,,,
,,,,,,611f770454ccb42478157748,62bbfa3313ee3c73bf05e3eb,2022-06-29_09h08.14.676,Colour_Asymmetry_Pilot,2022.1.3,Win32,60.00960154,62bbe60bf3d75ef465d3e404,0,64,64,131,1,twofour,,,,,,,,,,,,,,,,,,,,,,,,,,,,,,,,,,,,,,,,,,,,,,,,,,,,,,,,,,,,,,,,,,,,,,,,,,,,,,,,,,,,,,,,,,,,,,,,,,,,,,,,,,,,,,,,,,,,,,,,,,,,,,,,,,,,,,,,,,,,,,,,,,,,,,,,
,,,,,,611f770454ccb42478157748,62bbfa3313ee3c73bf05e3eb,2022-06-29_09h08.14.676,Colour_Asymmetry_Pilot,2022.1.3,Win32,60.00960154,62bbe60bf3d75ef465d3e404,0,65,65,59,1,twofour,,,,,,,,,,,,,,,,,,,,,,,,,,,,,,,,,,,,,,,,,,,,,,,,,,,,,,,,,,,,,,,,,,,,,,,,,,,,,,,,,,,,,,,,,,,,,,,,,,,,,,,,,,,,,,,,,,,,,,,,,,,,,,,,,,,,,,,,,,,,,,,,,,,,,,,,
,,,,,,611f770454ccb42478157748,62bbfa3313ee3c73bf05e3eb,2022-06-29_09h08.14.676,Colour_Asymmetry_Pilot,2022.1.3,Win32,60.00960154,62bbe60bf3d75ef465d3e404,0,66,66,143,1,fourthree,,,,,,,,,,,,,,,,,,,,,,,,,,,,,,,,,,,,,,,,,,,,,,,,,,,,,,,,,,,,,,,,,,,,,,,,,,,,,,,,,,,,,,,,,,,,,,,,,,,,,,,,,,,,,,,,,,,,,,,,,,,,,,,,,,,,,,,,,,,,,,,,,,,,,,,,
,,,,,,611f770454ccb42478157748,62bbfa3313ee3c73bf05e3eb,2022-06-29_09h08.14.676,Colour_Asymmetry_Pilot,2022.1.3,Win32,60.00960154,62bbe60bf3d75ef465d3e404,0,67,67,103,1,fourthree,,,,,,,,,,,,,,,,,,,,,,,,,,,,,,,,,,,,,,,,,,,,,,,,,,,,,,,,,,,,,,,,,,,,,,,,,,,,,,,,,,,,,,,,,,,,,,,,,,,,,,,,,,,,,,,,,,,,,,,,,,,,,,,,,,,,,,,,,,,,,,,,,,,,,,,,
,,,,,,611f770454ccb42478157748,62bbfa3313ee3c73bf05e3eb,2022-06-29_09h08.14.676,Colour_Asymmetry_Pilot,2022.1.3,Win32,60.00960154,62bbe60bf3d75ef465d3e404,0,68,68,159,1,fourthree,,,,,,,,,,,,,,,,,,,,,,,,,,,,,,,,,,,,,,,,,,,,,,,,,,,,,,,,,,,,,,,,,,,,,,,,,,,,,,,,,,,,,,,,,,,,,,,,,,,,,,,,,,,,,,,,,,,,,,,,,,,,,,,,,,,,,,,,,,,,,,,,,,,,,,,,
,,,,,,611f770454ccb42478157748,62bbfa3313ee3c73bf05e3eb,2022-06-29_09h08.14.676,Colour_Asymmetry_Pilot,2022.1.3,Win32,60.00960154,62bbe60bf3d75ef465d3e404,0,69,69,141,1,threefour,,,,,,,,,,,,,,,,,,,,,,,,,,,,,,,,,,,,,,,,,,,,,,,,,,,,,,,,,,,,,,,,,,,,,,,,,,,,,,,,,,,,,,,,,,,,,,,,,,,,,,,,,,,,,,,,,,,,,,,,,,,,,,,,,,,,,,,,,,,,,,,,,,,,,,,,
,,,,,,611f770454ccb42478157748,62bbfa3313ee3c73bf05e3eb,2022-06-29_09h08.14.676,Colour_Asymmetry_Pilot,2022.1.3,Win32,60.00960154,62bbe60bf3d75ef465d3e404,0,70,70,44,1,threeone,,,,,,,,,,,,,,,,,,,,,,,,,,,,,,,,,,,,,,,,,,,,,,,,,,,,,,,,,,,,,,,,,,,,,,,,,,,,,,,,,,,,,,,,,,,,,,,,,,,,,,,,,,,,,,,,,,,,,,,,,,,,,,,,,,,,,,,,,,,,,,,,,,,,,,,,
,,,,,,611f770454ccb42478157748,62bbfa3313ee3c73bf05e3eb,2022-06-29_09h08.14.676,Colour_Asymmetry_Pilot,2022.1.3,Win32,60.00960154,62bbe60bf3d75ef465d3e404,0,71,71,102,1,fourtwo,,,,,,,,,,,,,,,,,,,,,,,,,,,,,,,,,,,,,,,,,,,,,,,,,,,,,,,,,,,,,,,,,,,,,,,,,,,,,,,,,,,,,,,,,,,,,,,,,,,,,,,,,,,,,,,,,,,,,,,,,,,,,,,,,,,,,,,,,,,,,,,,,,,,,,,,
,,,,,,611f770454ccb42478157748,62bbfa3313ee3c73bf05e3eb,2022-06-29_09h08.14.676,Colour_Asymmetry_Pilot,2022.1.3,Win32,60.00960154,62bbe60bf3d75ef465d3e404,0,72,72,161,1,onethree,,,,,,,,,,,,,,,,,,,,,,,,,,,,,,,,,,,,,,,,,,,,,,,,,,,,,,,,,,,,,,,,,,,,,,,,,,,,,,,,,,,,,,,,,,,,,,,,,,,,,,,,,,,,,,,,,,,,,,,,,,,,,,,,,,,,,,,,,,,,,,,,,,,,,,,,
,,,,,,611f770454ccb42478157748,62bbfa3313ee3c73bf05e3eb,2022-06-29_09h08.14.676,Colour_Asymmetry_Pilot,2022.1.3,Win32,60.00960154,62bbe60bf3d75ef465d3e404,0,73,73,132,1,threeone,,,,,,,,,,,,,,,,,,,,,,,,,,,,,,,,,,,,,,,,,,,,,,,,,,,,,,,,,,,,,,,,,,,,,,,,,,,,,,,,,,,,,,,,,,,,,,,,,,,,,,,,,,,,,,,,,,,,,,,,,,,,,,,,,,,,,,,,,,,,,,,,,,,,,,,,
,,,,,,611f770454ccb42478157748,62bbfa3313ee3c73bf05e3eb,2022-06-29_09h08.14.676,Colour_Asymmetry_Pilot,2022.1.3,Win32,60.00960154,62bbe60bf3d75ef465d3e404,0,74,74,140,1,threeone,,,,,,,,,,,,,,,,,,,,,,,,,,,,,,,,,,,,,,,,,,,,,,,,,,,,,,,,,,,,,,,,,,,,,,,,,,,,,,,,,,,,,,,,,,,,,,,,,,,,,,,,,,,,,,,,,,,,,,,,,,,,,,,,,,,,,,,,,,,,,,,,,,,,,,,,
,,,,,,611f770454ccb42478157748,62bbfa3313ee3c73bf05e3eb,2022-06-29_09h08.14.676,Colour_Asymmetry_Pilot,2022.1.3,Win32,60.00960154,62bbe60bf3d75ef465d3e404,0,75,75,30,1,fourtwo,,,,,,,,,,,,,,,,,,,,,,,,,,,,,,,,,,,,,,,,,,,,,,,,,,,,,,,,,,,,,,,,,,,,,,,,,,,,,,,,,,,,,,,,,,,,,,,,,,,,,,,,,,,,,,,,,,,,,,,,,,,,,,,,,,,,,,,,,,,,,,,,,,,,,,,,
,,,,,,611f770454ccb42478157748,62bbfa3313ee3c73bf05e3eb,2022-06-29_09h08.14.676,Colour_Asymmetry_Pilot,2022.1.3,Win32,60.00960154,62bbe60bf3d75ef465d3e404,0,76,76,96,1,onetwo,,,,,,,,,,,,,,,,,,,,,,,,,,,,,,,,,,,,,,,,,,,,,,,,,,,,,,,,,,,,,,,,,,,,,,,,,,,,,,,,,,,,,,,,,,,,,,,,,,,,,,,,,,,,,,,,,,,,,,,,,,,,,,,,,,,,,,,,,,,,,,,,,,,,,,,,
,,,,,,611f770454ccb42478157748,62bbfa3313ee3c73bf05e3eb,2022-06-29_09h08.14.676,Colour_Asymmetry_Pilot,2022.1.3,Win32,60.00960154,62bbe60bf3d75ef465d3e404,0,77,77,18,1,twoone,,,,,,,,,,,,,,,,,,,,,,,,,,,,,,,,,,,,,,,,,,,,,,,,,,,,,,,,,,,,,,,,,,,,,,,,,,,,,,,,,,,,,,,,,,,,,,,,,,,,,,,,,,,,,,,,,,,,,,,,,,,,,,,,,,,,,,,,,,,,,,,,,,,,,,,,
,,,,,,611f770454ccb42478157748,62bbfa3313ee3c73bf05e3eb,2022-06-29_09h08.14.676,Colour_Asymmetry_Pilot,2022.1.3,Win32,60.00960154,62bbe60bf3d75ef465d3e404,0,78,78,114,1,twoone,,,,,,,,,,,,,,,,,,,,,,,,,,,,,,,,,,,,,,,,,,,,,,,,,,,,,,,,,,,,,,,,,,,,,,,,,,,,,,,,,,,,,,,,,,,,,,,,,,,,,,,,,,,,,,,,,,,,,,,,,,,,,,,,,,,,,,,,,,,,,,,,,,,,,,,,
,,,,,,611f770454ccb42478157748,62bbfa3313ee3c73bf05e3eb,2022-06-29_09h08.14.676,Colour_Asymmetry_Pilot,2022.1.3,Win32,60.00960154,62bbe60bf3d75ef465d3e404,0,79,79,62,1,fourtwo,,,,,,,,,,,,,,,,,,,,,,,,,,,,,,,,,,,,,,,,,,,,,,,,,,,,,,,,,,,,,,,,,,,,,,,,,,,,,,,,,,,,,,,,,,,,,,,,,,,,,,,,,,,,,,,,,,,,,,,,,,,,,,,,,,,,,,,,,,,,,,,,,,,,,,,,
,,,,,,611f770454ccb42478157748,62bbfa3313ee3c73bf05e3eb,2022-06-29_09h08.14.676,Colour_Asymmetry_Pilot,2022.1.3,Win32,60.00960154,62bbe60bf3d75ef465d3e404,0,80,80,14,1,fourtwo,,,,,,,,,,,,,,,,,,,,,,,,,,,,,,,,,,,,,,,,,,,,,,,,,,,,,,,,,,,,,,,,,,,,,,,,,,,,,,,,,,,,,,,,,,,,,,,,,,,,,,,,,,,,,,,,,,,,,,,,,,,,,,,,,,,,,,,,,,,,,,,,,,,,,,,,
,,,,,,611f770454ccb42478157748,62bbfa3313ee3c73bf05e3eb,2022-06-29_09h08.14.676,Colour_Asymmetry_Pilot,2022.1.3,Win32,60.00960154,62bbe60bf3d75ef465d3e404,0,81,81,152,1,onetwo,,,,,,,,,,,,,,,,,,,,,,,,,,,,,,,,,,,,,,,,,,,,,,,,,,,,,,,,,,,,,,,,,,,,,,,,,,,,,,,,,,,,,,,,,,,,,,,,,,,,,,,,,,,,,,,,,,,,,,,,,,,,,,,,,,,,,,,,,,,,,,,,,,,,,,,,
,,,,,,611f770454ccb42478157748,62bbfa3313ee3c73bf05e3eb,2022-06-29_09h08.14.676,Colour_Asymmetry_Pilot,2022.1.3,Win32,60.00960154,62bbe60bf3d75ef465d3e404,0,82,82,11,1,twofour,,,,,,,,,,,,,,,,,,,,,,,,,,,,,,,,,,,,,,,,,,,,,,,,,,,,,,,,,,,,,,,,,,,,,,,,,,,,,,,,,,,,,,,,,,,,,,,,,,,,,,,,,,,,,,,,,,,,,,,,,,,,,,,,,,,,,,,,,,,,,,,,,,,,,,,,
,,,,,,611f770454ccb42478157748,62bbfa3313ee3c73bf05e3eb,2022-06-29_09h08.14.676,Colour_Asymmetry_Pilot,2022.1.3,Win32,60.00960154,62bbe60bf3d75ef465d3e404,0,83,83,24,1,onetwo,,,,,,,,,,,,,,,,,,,,,,,,,,,,,,,,,,,,,,,,,,,,,,,,,,,,,,,,,,,,,,,,,,,,,,,,,,,,,,,,,,,,,,,,,,,,,,,,,,,,,,,,,,,,,,,,,,,,,,,,,,,,,,,,,,,,,,,,,,,,,,,,,,,,,,,,
,,,,,,611f770454ccb42478157748,62bbfa3313ee3c73bf05e3eb,2022-06-29_09h08.14.676,Colour_Asymmetry_Pilot,2022.1.3,Win32,60.00960154,62bbe60bf3d75ef465d3e404,0,84,84,144,1,onetwo,,,,,,,,,,,,,,,,,,,,,,,,,,,,,,,,,,,,,,,,,,,,,,,,,,,,,,,,,,,,,,,,,,,,,,,,,,,,,,,,,,,,,,,,,,,,,,,,,,,,,,,,,,,,,,,,,,,,,,,,,,,,,,,,,,,,,,,,,,,,,,,,,,,,,,,,
,,,,,,611f770454ccb42478157748,62bbfa3313ee3c73bf05e3eb,2022-06-29_09h08.14.676,Colour_Asymmetry_Pilot,2022.1.3,Win32,60.00960154,62bbe60bf3d75ef465d3e404,0,85,85,71,1,fourthree,,,,,,,,,,,,,,,,,,,,,,,,,,,,,,,,,,,,,,,,,,,,,,,,,,,,,,,,,,,,,,,,,,,,,,,,,,,,,,,,,,,,,,,,,,,,,,,,,,,,,,,,,,,,,,,,,,,,,,,,,,,,,,,,,,,,,,,,,,,,,,,,,,,,,,,,
,,,,,,611f770454ccb42478157748,62bbfa3313ee3c73bf05e3eb,2022-06-29_09h08.14.676,Colour_Asymmetry_Pilot,2022.1.3,Win32,60.00960154,62bbe60bf3d75ef465d3e404,0,86,86,84,1,threeone,,,,,,,,,,,,,,,,,,,,,,,,,,,,,,,,,,,,,,,,,,,,,,,,,,,,,,,,,,,,,,,,,,,,,,,,,,,,,,,,,,,,,,,,,,,,,,,,,,,,,,,,,,,,,,,,,,,,,,,,,,,,,,,,,,,,,,,,,,,,,,,,,,,,,,,,
,,,,,,611f770454ccb42478157748,62bbfa3313ee3c73bf05e3eb,2022-06-29_09h08.14.676,Colour_Asymmetry_Pilot,2022.1.3,Win32,60.00960154,62bbe60bf3d75ef465d3e404,0,87,87,113,1,onethree,,,,,,,,,,,,,,,,,,,,,,,,,,,,,,,,,,,,,,,,,,,,,,,,,,,,,,,,,,,,,,,,,,,,,,,,,,,,,,,,,,,,,,,,,,,,,,,,,,,,,,,,,,,,,,,,,,,,,,,,,,,,,,,,,,,,,,,,,,,,,,,,,,,,,,,,
,,,,,,611f770454ccb42478157748,62bbfa3313ee3c73bf05e3eb,2022-06-29_09h08.14.676,Colour_Asymmetry_Pilot,2022.1.3,Win32,60.00960154,62bbe60bf3d75ef465d3e404,0,88,88,101,1,threefour,,,,,,,,,,,,,,,,,,,,,,,,,,,,,,,,,,,,,,,,,,,,,,,,,,,,,,,,,,,,,,,,,,,,,,,,,,,,,,,,,,,,,,,,,,,,,,,,,,,,,,,,,,,,,,,,,,,,,,,,,,,,,,,,,,,,,,,,,,,,,,,,,,,,,,,,
,,,,,,611f770454ccb42478157748,62bbfa3313ee3c73bf05e3eb,2022-06-29_09h08.14.676,Colour_Asymmetry_Pilot,2022.1.3,Win32,60.00960154,62bbe60bf3d75ef465d3e404,0,89,89,61,1,threefour,,,,,,,,,,,,,,,,,,,,,,,,,,,,,,,,,,,,,,,,,,,,,,,,,,,,,,,,,,,,,,,,,,,,,,,,,,,,,,,,,,,,,,,,,,,,,,,,,,,,,,,,,,,,,,,,,,,,,,,,,,,,,,,,,,,,,,,,,,,,,,,,,,,,,,,,
,,,,,,611f770454ccb42478157748,62bbfa3313ee3c73bf05e3eb,2022-06-29_09h08.14.676,Colour_Asymmetry_Pilot,2022.1.3,Win32,60.00960154,62bbe60bf3d75ef465d3e404,0,90,90,66,1,twoone,,,,,,,,,,,,,,,,,,,,,,,,,,,,,,,,,,,,,,,,,,,,,,,,,,,,,,,,,,,,,,,,,,,,,,,,,,,,,,,,,,,,,,,,,,,,,,,,,,,,,,,,,,,,,,,,,,,,,,,,,,,,,,,,,,,,,,,,,,,,,,,,,,,,,,,,
,,,,,,611f770454ccb42478157748,62bbfa3313ee3c73bf05e3eb,2022-06-29_09h08.14.676,Colour_Asymmetry_Pilot,2022.1.3,Win32,60.00960154,62bbe60bf3d75ef465d3e404,0,91,91,90,1,twoone,,,,,,,,,,,,,,,,,,,,,,,,,,,,,,,,,,,,,,,,,,,,,,,,,,,,,,,,,,,,,,,,,,,,,,,,,,,,,,,,,,,,,,,,,,,,,,,,,,,,,,,,,,,,,,,,,,,,,,,,,,,,,,,,,,,,,,,,,,,,,,,,,,,,,,,,
,,,,,,611f770454ccb42478157748,62bbfa3313ee3c73bf05e3eb,2022-06-29_09h08.14.676,Colour_Asymmetry_Pilot,2022.1.3,Win32,60.00960154,62bbe60bf3d75ef465d3e404,0,92,92,130,1,twoone,,,,,,,,,,,,,,,,,,,,,,,,,,,,,,,,,,,,,,,,,,,,,,,,,,,,,,,,,,,,,,,,,,,,,,,,,,,,,,,,,,,,,,,,,,,,,,,,,,,,,,,,,,,,,,,,,,,,,,,,,,,,,,,,,,,,,,,,,,,,,,,,,,,,,,,,
,,,,,,611f770454ccb42478157748,62bbfa3313ee3c73bf05e3eb,2022-06-29_09h08.14.676,Colour_Asymmetry_Pilot,2022.1.3,Win32,60.00960154,62bbe60bf3d75ef465d3e404,0,93,93,105,1,onethree,,,,,,,,,,,,,,,,,,,,,,,,,,,,,,,,,,,,,,,,,,,,,,,,,,,,,,,,,,,,,,,,,,,,,,,,,,,,,,,,,,,,,,,,,,,,,,,,,,,,,,,,,,,,,,,,,,,,,,,,,,,,,,,,,,,,,,,,,,,,,,,,,,,,,,,,
,,,,,,611f770454ccb42478157748,62bbfa3313ee3c73bf05e3eb,2022-06-29_09h08.14.676,Colour_Asymmetry_Pilot,2022.1.3,Win32,60.00960154,62bbe60bf3d75ef465d3e404,0,94,94,125,1,threefour,,,,,,,,,,,,,,,,,,,,,,,,,,,,,,,,,,,,,,,,,,,,,,,,,,,,,,,,,,,,,,,,,,,,,,,,,,,,,,,,,,,,,,,,,,,,,,,,,,,,,,,,,,,,,,,,,,,,,,,,,,,,,,,,,,,,,,,,,,,,,,,,,,,,,,,,
,,,,,,611f770454ccb42478157748,62bbfa3313ee3c73bf05e3eb,2022-06-29_09h08.14.676,Colour_Asymmetry_Pilot,2022.1.3,Win32,60.00960154,62bbe60bf3d75ef465d3e404,0,95,95,123,1,twofour,,,,,,,,,,,,,,,,,,,,,,,,,,,,,,,,,,,,,,,,,,,,,,,,,,,,,,,,,,,,,,,,,,,,,,,,,,,,,,,,,,,,,,,,,,,,,,,,,,,,,,,,,,,,,,,,,,,,,,,,,,,,,,,,,,,,,,,,,,,,,,,,,,,,,,,,
,,,,,,611f770454ccb42478157748,62bbfa3313ee3c73bf05e3eb,2022-06-29_09h08.14.676,Colour_Asymmetry_Pilot,2022.1.3,Win32,60.00960154,62bbe60bf3d75ef465d3e404,0,96,96,111,1,fourthree,,,,,,,,,,,,,,,,,,,,,,,,,,,,,,,,,,,,,,,,,,,,,,,,,,,,,,,,,,,,,,,,,,,,,,,,,,,,,,,,,,,,,,,,,,,,,,,,,,,,,,,,,,,,,,,,,,,,,,,,,,,,,,,,,,,,,,,,,,,,,,,,,,,,,,,,
,,,,,,611f770454ccb42478157748,62bbfa3313ee3c73bf05e3eb,2022-06-29_09h08.14.676,Colour_Asymmetry_Pilot,2022.1.3,Win32,60.00960154,62bbe60bf3d75ef465d3e404,0,97,97,35,1,twofour,,,,,,,,,,,,,,,,,,,,,,,,,,,,,,,,,,,,,,,,,,,,,,,,,,,,,,,,,,,,,,,,,,,,,,,,,,,,,,,,,,,,,,,,,,,,,,,,,,,,,,,,,,,,,,,,,,,,,,,,,,,,,,,,,,,,,,,,,,,,,,,,,,,,,,,,
,,,,,,611f770454ccb42478157748,62bbfa3313ee3c73bf05e3eb,2022-06-29_09h08.14.676,Colour_Asymmetry_Pilot,2022.1.3,Win32,60.00960154,62bbe60bf3d75ef465d3e404,0,98,98,89,1,onethree,,,,,,,,,,,,,,,,,,,,,,,,,,,,,,,,,,,,,,,,,,,,,,,,,,,,,,,,,,,,,,,,,,,,,,,,,,,,,,,,,,,,,,,,,,,,,,,,,,,,,,,,,,,,,,,,,,,,,,,,,,,,,,,,,,,,,,,,,,,,,,,,,,,,,,,,
,,,,,,611f770454ccb42478157748,62bbfa3313ee3c73bf05e3eb,2022-06-29_09h08.14.676,Colour_Asymmetry_Pilot,2022.1.3,Win32,60.00960154,62bbe60bf3d75ef465d3e404,0,99,99,47,1,fourthree,,,,,,,,,,,,,,,,,,,,,,,,,,,,,,,,,,,,,,,,,,,,,,,,,,,,,,,,,,,,,,,,,,,,,,,,,,,,,,,,,,,,,,,,,,,,,,,,,,,,,,,,,,,,,,,,,,,,,,,,,,,,,,,,,,,,,,,,,,,,,,,,,,,,,,,,
,,,,,,611f770454ccb42478157748,62bbfa3313ee3c73bf05e3eb,2022-06-29_09h08.14.676,Colour_Asymmetry_Pilot,2022.1.3,Win32,60.00960154,62bbe60bf3d75ef465d3e404,0,100,100,67,1,twofour,,,,,,,,,,,,,,,,,,,,,,,,,,,,,,,,,,,,,,,,,,,,,,,,,,,,,,,,,,,,,,,,,,,,,,,,,,,,,,,,,,,,,,,,,,,,,,,,,,,,,,,,,,,,,,,,,,,,,,,,,,,,,,,,,,,,,,,,,,,,,,,,,,,,,,,,
,,,,,,611f770454ccb42478157748,62bbfa3313ee3c73bf05e3eb,2022-06-29_09h08.14.676,Colour_Asymmetry_Pilot,2022.1.3,Win32,60.00960154,62bbe60bf3d75ef465d3e404,0,101,101,0,1,onetwo,,,,,,,,,,,,,,,,,,,,,,,,,,,,,,,,,,,,,,,,,,,,,,,,,,,,,,,,,,,,,,,,,,,,,,,,,,,,,,,,,,,,,,,,,,,,,,,,,,,,,,,,,,,,,,,,,,,,,,,,,,,,,,,,,,,,,,,,,,,,,,,,,,,,,,,,
,,,,,,611f770454ccb42478157748,62bbfa3313ee3c73bf05e3eb,2022-06-29_09h08.14.676,Colour_Asymmetry_Pilot,2022.1.3,Win32,60.00960154,62bbe60bf3d75ef465d3e404,0,102,102,3,1,twofour,,,,,,,,,,,,,,,,,,,,,,,,,,,,,,,,,,,,,,,,,,,,,,,,,,,,,,,,,,,,,,,,,,,,,,,,,,,,,,,,,,,,,,,,,,,,,,,,,,,,,,,,,,,,,,,,,,,,,,,,,,,,,,,,,,,,,,,,,,,,,,,,,,,,,,,,
,,,,,,611f770454ccb42478157748,62bbfa3313ee3c73bf05e3eb,2022-06-29_09h08.14.676,Colour_Asymmetry_Pilot,2022.1.3,Win32,60.00960154,62bbe60bf3d75ef465d3e404,0,103,103,74,1,twoone,,,,,,,,,,,,,,,,,,,,,,,,,,,,,,,,,,,,,,,,,,,,,,,,,,,,,,,,,,,,,,,,,,,,,,,,,,,,,,,,,,,,,,,,,,,,,,,,,,,,,,,,,,,,,,,,,,,,,,,,,,,,,,,,,,,,,,,,,,,,,,,,,,,,,,,,
,,,,,,611f770454ccb42478157748,62bbfa3313ee3c73bf05e3eb,2022-06-29_09h08.14.676,Colour_Asymmetry_Pilot,2022.1.3,Win32,60.00960154,62bbe60bf3d75ef465d3e404,0,104,104,79,1,fourthree,,,,,,,,,,,,,,,,,,,,,,,,,,,,,,,,,,,,,,,,,,,,,,,,,,,,,,,,,,,,,,,,,,,,,,,,,,,,,,,,,,,,,,,,,,,,,,,,,,,,,,,,,,,,,,,,,,,,,,,,,,,,,,,,,,,,,,,,,,,,,,,,,,,,,,,,
,,,,,,611f770454ccb42478157748,62bbfa3313ee3c73bf05e3eb,2022-06-29_09h08.14.676,Colour_Asymmetry_Pilot,2022.1.3,Win32,60.00960154,62bbe60bf3d75ef465d3e404,0,105,105,16,1,onetwo,,,,,,,,,,,,,,,,,,,,,,,,,,,,,,,,,,,,,,,,,,,,,,,,,,,,,,,,,,,,,,,,,,,,,,,,,,,,,,,,,,,,,,,,,,,,,,,,,,,,,,,,,,,,,,,,,,,,,,,,,,,,,,,,,,,,,,,,,,,,,,,,,,,,,,,,
,,,,,,611f770454ccb42478157748,62bbfa3313ee3c73bf05e3eb,2022-06-29_09h08.14.676,Colour_Asymmetry_Pilot,2022.1.3,Win32,60.00960154,62bbe60bf3d75ef465d3e404,0,106,106,1,1,onethree,,,,,,,,,,,,,,,,,,,,,,,,,,,,,,,,,,,,,,,,,,,,,,,,,,,,,,,,,,,,,,,,,,,,,,,,,,,,,,,,,,,,,,,,,,,,,,,,,,,,,,,,,,,,,,,,,,,,,,,,,,,,,,,,,,,,,,,,,,,,,,,,,,,,,,,,
,,,,,,611f770454ccb42478157748,62bbfa3313ee3c73bf05e3eb,2022-06-29_09h08.14.676,Colour_Asymmetry_Pilot,2022.1.3,Win32,60.00960154,62bbe60bf3d75ef465d3e404,0,107,107,64,1,onetwo,,,,,,,,,,,,,,,,,,,,,,,,,,,,,,,,,,,,,,,,,,,,,,,,,,,,,,,,,,,,,,,,,,,,,,,,,,,,,,,,,,,,,,,,,,,,,,,,,,,,,,,,,,,,,,,,,,,,,,,,,,,,,,,,,,,,,,,,,,,,,,,,,,,,,,,,
,,,,,,611f770454ccb42478157748,62bbfa3313ee3c73bf05e3eb,2022-06-29_09h08.14.676,Colour_Asymmetry_Pilot,2022.1.3,Win32,60.00960154,62bbe60bf3d75ef465d3e404,0,108,108,58,1,twoone,,,,,,,,,,,,,,,,,,,,,,,,,,,,,,,,,,,,,,,,,,,,,,,,,,,,,,,,,,,,,,,,,,,,,,,,,,,,,,,,,,,,,,,,,,,,,,,,,,,,,,,,,,,,,,,,,,,,,,,,,,,,,,,,,,,,,,,,,,,,,,,,,,,,,,,,
,,,,,,611f770454ccb42478157748,62bbfa3313ee3c73bf05e3eb,2022-06-29_09h08.14.676,Colour_Asymmetry_Pilot,2022.1.3,Win32,60.00960154,62bbe60bf3d75ef465d3e404,0,109,109,69,1,threefour,,,,,,,,,,,,,,,,,,,,,,,,,,,,,,,,,,,,,,,,,,,,,,,,,,,,,,,,,,,,,,,,,,,,,,,,,,,,,,,,,,,,,,,,,,,,,,,,,,,,,,,,,,,,,,,,,,,,,,,,,,,,,,,,,,,,,,,,,,,,,,,,,,,,,,,,
,,,,,,611f770454ccb42478157748,62bbfa3313ee3c73bf05e3eb,2022-06-29_09h08.14.676,Colour_Asymmetry_Pilot,2022.1.3,Win32,60.00960154,62bbe60bf3d75ef465d3e404,0,110,110,122,1,twoone,,,,,,,,,,,,,,,,,,,,,,,,,,,,,,,,,,,,,,,,,,,,,,,,,,,,,,,,,,,,,,,,,,,,,,,,,,,,,,,,,,,,,,,,,,,,,,,,,,,,,,,,,,,,,,,,,,,,,,,,,,,,,,,,,,,,,,,,,,,,,,,,,,,,,,,,
,,,,,,611f770454ccb42478157748,62bbfa3313ee3c73bf05e3eb,2022-06-29_09h08.14.676,Colour_Asymmetry_Pilot,2022.1.3,Win32,60.00960154,62bbe60bf3d75ef465d3e404,0,111,111,148,1,threeone,,,,,,,,,,,,,,,,,,,,,,,,,,,,,,,,,,,,,,,,,,,,,,,,,,,,,,,,,,,,,,,,,,,,,,,,,,,,,,,,,,,,,,,,,,,,,,,,,,,,,,,,,,,,,,,,,,,,,,,,,,,,,,,,,,,,,,,,,,,,,,,,,,,,,,,,
,,,,,,611f770454ccb42478157748,62bbfa3313ee3c73bf05e3eb,2022-06-29_09h08.14.676,Colour_Asymmetry_Pilot,2022.1.3,Win32,60.00960154,62bbe60bf3d75ef465d3e404,0,112,112,12,1,threeone,,,,,,,,,,,,,,,,,,,,,,,,,,,,,,,,,,,,,,,,,,,,,,,,,,,,,,,,,,,,,,,,,,,,,,,,,,,,,,,,,,,,,,,,,,,,,,,,,,,,,,,,,,,,,,,,,,,,,,,,,,,,,,,,,,,,,,,,,,,,,,,,,,,,,,,,
,,,,,,611f770454ccb42478157748,62bbfa3313ee3c73bf05e3eb,2022-06-29_09h08.14.676,Colour_Asymmetry_Pilot,2022.1.3,Win32,60.00960154,62bbe60bf3d75ef465d3e404,0,113,113,40,1,onetwo,,,,,,,,,,,,,,,,,,,,,,,,,,,,,,,,,,,,,,,,,,,,,,,,,,,,,,,,,,,,,,,,,,,,,,,,,,,,,,,,,,,,,,,,,,,,,,,,,,,,,,,,,,,,,,,,,,,,,,,,,,,,,,,,,,,,,,,,,,,,,,,,,,,,,,,,
,,,,,,611f770454ccb42478157748,62bbfa3313ee3c73bf05e3eb,2022-06-29_09h08.14.676,Colour_Asymmetry_Pilot,2022.1.3,Win32,60.00960154,62bbe60bf3d75ef465d3e404,0,114,114,108,1,threeone,,,,,,,,,,,,,,,,,,,,,,,,,,,,,,,,,,,,,,,,,,,,,,,,,,,,,,,,,,,,,,,,,,,,,,,,,,,,,,,,,,,,,,,,,,,,,,,,,,,,,,,,,,,,,,,,,,,,,,,,,,,,,,,,,,,,,,,,,,,,,,,,,,,,,,,,
,,,,,,611f770454ccb42478157748,62bbfa3313ee3c73bf05e3eb,2022-06-29_09h08.14.676,Colour_Asymmetry_Pilot,2022.1.3,Win32,60.00960154,62bbe60bf3d75ef465d3e404,0,115,115,116,1,threeone,,,,,,,,,,,,,,,,,,,,,,,,,,,,,,,,,,,,,,,,,,,,,,,,,,,,,,,,,,,,,,,,,,,,,,,,,,,,,,,,,,,,,,,,,,,,,,,,,,,,,,,,,,,,,,,,,,,,,,,,,,,,,,,,,,,,,,,,,,,,,,,,,,,,,,,,
,,,,,,611f770454ccb42478157748,62bbfa3313ee3c73bf05e3eb,2022-06-29_09h08.14.676,Colour_Asymmetry_Pilot,2022.1.3,Win32,60.00960154,62bbe60bf3d75ef465d3e404,0,116,116,57,1,onethree,,,,,,,,,,,,,,,,,,,,,,,,,,,,,,,,,,,,,,,,,,,,,,,,,,,,,,,,,,,,,,,,,,,,,,,,,,,,,,,,,,,,,,,,,,,,,,,,,,,,,,,,,,,,,,,,,,,,,,,,,,,,,,,,,,,,,,,,,,,,,,,,,,,,,,,,
,,,,,,611f770454ccb42478157748,62bbfa3313ee3c73bf05e3eb,2022-06-29_09h08.14.676,Colour_Asymmetry_Pilot,2022.1.3,Win32,60.00960154,62bbe60bf3d75ef465d3e404,0,117,117,26,1,twoone,,,,,,,,,,,,,,,,,,,,,,,,,,,,,,,,,,,,,,,,,,,,,,,,,,,,,,,,,,,,,,,,,,,,,,,,,,,,,,,,,,,,,,,,,,,,,,,,,,,,,,,,,,,,,,,,,,,,,,,,,,,,,,,,,,,,,,,,,,,,,,,,,,,,,,,,
,,,,,,611f770454ccb42478157748,62bbfa3313ee3c73bf05e3eb,2022-06-29_09h08.14.676,Colour_Asymmetry_Pilot,2022.1.3,Win32,60.00960154,62bbe60bf3d75ef465d3e404,0,118,118,160,1,onetwo,,,,,,,,,,,,,,,,,,,,,,,,,,,,,,,,,,,,,,,,,,,,,,,,,,,,,,,,,,,,,,,,,,,,,,,,,,,,,,,,,,,,,,,,,,,,,,,,,,,,,,,,,,,,,,,,,,,,,,,,,,,,,,,,,,,,,,,,,,,,,,,,,,,,,,,,
,,,,,,611f770454ccb42478157748,62bbfa3313ee3c73bf05e3eb,2022-06-29_09h08.14.676,Colour_Asymmetry_Pilot,2022.1.3,Win32,60.00960154,62bbe60bf3d75ef465d3e404,0,119,119,72,1,onetwo,,,,,,,,,,,,,,,,,,,,,,,,,,,,,,,,,,,,,,,,,,,,,,,,,,,,,,,,,,,,,,,,,,,,,,,,,,,,,,,,,,,,,,,,,,,,,,,,,,,,,,,,,,,,,,,,,,,,,,,,,,,,,,,,,,,,,,,,,,,,,,,,,,,,,,,,
,,,,,,611f770454ccb42478157748,62bbfa3313ee3c73bf05e3eb,2022-06-29_09h08.14.676,Colour_Asymmetry_Pilot,2022.1.3,Win32,60.00960154,62bbe60bf3d75ef465d3e404,0,120,120,99,1,twofour,,,,,,,,,,,,,,,,,,,,,,,,,,,,,,,,,,,,,,,,,,,,,,,,,,,,,,,,,,,,,,,,,,,,,,,,,,,,,,,,,,,,,,,,,,,,,,,,,,,,,,,,,,,,,,,,,,,,,,,,,,,,,,,,,,,,,,,,,,,,,,,,,,,,,,,,
,,,,,,611f770454ccb42478157748,62bbfa3313ee3c73bf05e3eb,2022-06-29_09h08.14.676,Colour_Asymmetry_Pilot,2022.1.3,Win32,60.00960154,62bbe60bf3d75ef465d3e404,0,121,121,36,1,threeone,,,,,,,,,,,,,,,,,,,,,,,,,,,,,,,,,,,,,,,,,,,,,,,,,,,,,,,,,,,,,,,,,,,,,,,,,,,,,,,,,,,,,,,,,,,,,,,,,,,,,,,,,,,,,,,,,,,,,,,,,,,,,,,,,,,,,,,,,,,,,,,,,,,,,,,,
,,,,,,611f770454ccb42478157748,62bbfa3313ee3c73bf05e3eb,2022-06-29_09h08.14.676,Colour_Asymmetry_Pilot,2022.1.3,Win32,60.00960154,62bbe60bf3d75ef465d3e404,0,122,122,53,1,threefour,,,,,,,,,,,,,,,,,,,,,,,,,,,,,,,,,,,,,,,,,,,,,,,,,,,,,,,,,,,,,,,,,,,,,,,,,,,,,,,,,,,,,,,,,,,,,,,,,,,,,,,,,,,,,,,,,,,,,,,,,,,,,,,,,,,,,,,,,,,,,,,,,,,,,,,,
,,,,,,611f770454ccb42478157748,62bbfa3313ee3c73bf05e3eb,2022-06-29_09h08.14.676,Colour_Asymmetry_Pilot,2022.1.3,Win32,60.00960154,62bbe60bf3d75ef465d3e404,0,123,123,92,1,threeone,,,,,,,,,,,,,,,,,,,,,,,,,,,,,,,,,,,,,,,,,,,,,,,,,,,,,,,,,,,,,,,,,,,,,,,,,,,,,,,,,,,,,,,,,,,,,,,,,,,,,,,,,,,,,,,,,,,,,,,,,,,,,,,,,,,,,,,,,,,,,,,,,,,,,,,,
,,,,,,611f770454ccb42478157748,62bbfa3313ee3c73bf05e3eb,2022-06-29_09h08.14.676,Colour_Asymmetry_Pilot,2022.1.3,Win32,60.00960154,62bbe60bf3d75ef465d3e404,0,124,124,138,1,twoone,,,,,,,,,,,,,,,,,,,,,,,,,,,,,,,,,,,,,,,,,,,,,,,,,,,,,,,,,,,,,,,,,,,,,,,,,,,,,,,,,,,,,,,,,,,,,,,,,,,,,,,,,,,,,,,,,,,,,,,,,,,,,,,,,,,,,,,,,,,,,,,,,,,,,,,,
,,,,,,611f770454ccb42478157748,62bbfa3313ee3c73bf05e3eb,2022-06-29_09h08.14.676,Colour_Asymmetry_Pilot,2022.1.3,Win32,60.00960154,62bbe60bf3d75ef465d3e404,0,125,125,87,1,fourthree,,,,,,,,,,,,,,,,,,,,,,,,,,,,,,,,,,,,,,,,,,,,,,,,,,,,,,,,,,,,,,,,,,,,,,,,,,,,,,,,,,,,,,,,,,,,,,,,,,,,,,,,,,,,,,,,,,,,,,,,,,,,,,,,,,,,,,,,,,,,,,,,,,,,,,,,
,,,,,,611f770454ccb42478157748,62bbfa3313ee3c73bf05e3eb,2022-06-29_09h08.14.676,Colour_Asymmetry_Pilot,2022.1.3,Win32,60.00960154,62bbe60bf3d75ef465d3e404,0,126,126,73,1,onethree,,,,,,,,,,,,,,,,,,,,,,,,,,,,,,,,,,,,,,,,,,,,,,,,,,,,,,,,,,,,,,,,,,,,,,,,,,,,,,,,,,,,,,,,,,,,,,,,,,,,,,,,,,,,,,,,,,,,,,,,,,,,,,,,,,,,,,,,,,,,,,,,,,,,,,,,
,,,,,,611f770454ccb42478157748,62bbfa3313ee3c73bf05e3eb,2022-06-29_09h08.14.676,Colour_Asymmetry_Pilot,2022.1.3,Win32,60.00960154,62bbe60bf3d75ef465d3e404,0,127,127,147,1,twofour,,,,,,,,,,,,,,,,,,,,,,,,,,,,,,,,,,,,,,,,,,,,,,,,,,,,,,,,,,,,,,,,,,,,,,,,,,,,,,,,,,,,,,,,,,,,,,,,,,,,,,,,,,,,,,,,,,,,,,,,,,,,,,,,,,,,,,,,,,,,,,,,,,,,,,,,
,,,,,,611f770454ccb42478157748,62bbfa3313ee3c73bf05e3eb,2022-06-29_09h08.14.676,Colour_Asymmetry_Pilot,2022.1.3,Win32,60.00960154,62bbe60bf3d75ef465d3e404,0,128,128,34,1,twoone,,,,,,,,,,,,,,,,,,,,,,,,,,,,,,,,,,,,,,,,,,,,,,,,,,,,,,,,,,,,,,,,,,,,,,,,,,,,,,,,,,,,,,,,,,,,,,,,,,,,,,,,,,,,,,,,,,,,,,,,,,,,,,,,,,,,,,,,,,,,,,,,,,,,,,,,
,,,,,,611f770454ccb42478157748,62bbfa3313ee3c73bf05e3eb,2022-06-29_09h08.14.676,Colour_Asymmetry_Pilot,2022.1.3,Win32,60.00960154,62bbe60bf3d75ef465d3e404,0,129,129,100,1,threeone,,,,,,,,,,,,,,,,,,,,,,,,,,,,,,,,,,,,,,,,,,,,,,,,,,,,,,,,,,,,,,,,,,,,,,,,,,,,,,,,,,,,,,,,,,,,,,,,,,,,,,,,,,,,,,,,,,,,,,,,,,,,,,,,,,,,,,,,,,,,,,,,,,,,,,,,
,,,,,,611f770454ccb42478157748,62bbfa3313ee3c73bf05e3eb,2022-06-29_09h08.14.676,Colour_Asymmetry_Pilot,2022.1.3,Win32,60.00960154,62bbe60bf3d75ef465d3e404,0,130,130,97,1,onethree,,,,,,,,,,,,,,,,,,,,,,,,,,,,,,,,,,,,,,,,,,,,,,,,,,,,,,,,,,,,,,,,,,,,,,,,,,,,,,,,,,,,,,,,,,,,,,,,,,,,,,,,,,,,,,,,,,,,,,,,,,,,,,,,,,,,,,,,,,,,,,,,,,,,,,,,
,,,,,,611f770454ccb42478157748,62bbfa3313ee3c73bf05e3eb,2022-06-29_09h08.14.676,Colour_Asymmetry_Pilot,2022.1.3,Win32,60.00960154,62bbe60bf3d75ef465d3e404,0,131,131,78,1,fourtwo,,,,,,,,,,,,,,,,,,,,,,,,,,,,,,,,,,,,,,,,,,,,,,,,,,,,,,,,,,,,,,,,,,,,,,,,,,,,,,,,,,,,,,,,,,,,,,,,,,,,,,,,,,,,,,,,,,,,,,,,,,,,,,,,,,,,,,,,,,,,,,,,,,,,,,,,
,,,,,,611f770454ccb42478157748,62bbfa3313ee3c73bf05e3eb,2022-06-29_09h08.14.676,Colour_Asymmetry_Pilot,2022.1.3,Win32,60.00960154,62bbe60bf3d75ef465d3e404,0,132,132,121,1,onethree,,,,,,,,,,,,,,,,,,,,,,,,,,,,,,,,,,,,,,,,,,,,,,,,,,,,,,,,,,,,,,,,,,,,,,,,,,,,,,,,,,,,,,,,,,,,,,,,,,,,,,,,,,,,,,,,,,,,,,,,,,,,,,,,,,,,,,,,,,,,,,,,,,,,,,,,
,,,,,,611f770454ccb42478157748,62bbfa3313ee3c73bf05e3eb,2022-06-29_09h08.14.676,Colour_Asymmetry_Pilot,2022.1.3,Win32,60.00960154,62bbe60bf3d75ef465d3e404,0,133,133,93,1,threefour,,,,,,,,,,,,,,,,,,,,,,,,,,,,,,,,,,,,,,,,,,,,,,,,,,,,,,,,,,,,,,,,,,,,,,,,,,,,,,,,,,,,,,,,,,,,,,,,,,,,,,,,,,,,,,,,,,,,,,,,,,,,,,,,,,,,,,,,,,,,,,,,,,,,,,,,
,,,,,,611f770454ccb42478157748,62bbfa3313ee3c73bf05e3eb,2022-06-29_09h08.14.676,Colour_Asymmetry_Pilot,2022.1.3,Win32,60.00960154,62bbe60bf3d75ef465d3e404,0,134,134,51,1,twofour,,,,,,,,,,,,,,,,,,,,,,,,,,,,,,,,,,,,,,,,,,,,,,,,,,,,,,,,,,,,,,,,,,,,,,,,,,,,,,,,,,,,,,,,,,,,,,,,,,,,,,,,,,,,,,,,,,,,,,,,,,,,,,,,,,,,,,,,,,,,,,,,,,,,,,,,
,,,,,,611f770454ccb42478157748,62bbfa3313ee3c73bf05e3eb,2022-06-29_09h08.14.676,Colour_Asymmetry_Pilot,2022.1.3,Win32,60.00960154,62bbe60bf3d75ef465d3e404,0,135,135,146,1,twoone,,,,,,,,,,,,,,,,,,,,,,,,,,,,,,,,,,,,,,,,,,,,,,,,,,,,,,,,,,,,,,,,,,,,,,,,,,,,,,,,,,,,,,,,,,,,,,,,,,,,,,,,,,,,,,,,,,,,,,,,,,,,,,,,,,,,,,,,,,,,,,,,,,,,,,,,
,,,,,,611f770454ccb42478157748,62bbfa3313ee3c73bf05e3eb,2022-06-29_09h08.14.676,Colour_Asymmetry_Pilot,2022.1.3,Win32,60.00960154,62bbe60bf3d75ef465d3e404,0,136,136,45,1,threefour,,,,,,,,,,,,,,,,,,,,,,,,,,,,,,,,,,,,,,,,,,,,,,,,,,,,,,,,,,,,,,,,,,,,,,,,,,,,,,,,,,,,,,,,,,,,,,,,,,,,,,,,,,,,,,,,,,,,,,,,,,,,,,,,,,,,,,,,,,,,,,,,,,,,,,,,
,,,,,,611f770454ccb42478157748,62bbfa3313ee3c73bf05e3eb,2022-06-29_09h08.14.676,Colour_Asymmetry_Pilot,2022.1.3,Win32,60.00960154,62bbe60bf3d75ef465d3e404,0,137,137,158,1,fourtwo,,,,,,,,,,,,,,,,,,,,,,,,,,,,,,,,,,,,,,,,,,,,,,,,,,,,,,,,,,,,,,,,,,,,,,,,,,,,,,,,,,,,,,,,,,,,,,,,,,,,,,,,,,,,,,,,,,,,,,,,,,,,,,,,,,,,,,,,,,,,,,,,,,,,,,,,
,,,,,,611f770454ccb42478157748,62bbfa3313ee3c73bf05e3eb,2022-06-29_09h08.14.676,Colour_Asymmetry_Pilot,2022.1.3,Win32,60.00960154,62bbe60bf3d75ef465d3e404,0,138,138,63,1,fourthree,,,,,,,,,,,,,,,,,,,,,,,,,,,,,,,,,,,,,,,,,,,,,,,,,,,,,,,,,,,,,,,,,,,,,,,,,,,,,,,,,,,,,,,,,,,,,,,,,,,,,,,,,,,,,,,,,,,,,,,,,,,,,,,,,,,,,,,,,,,,,,,,,,,,,,,,
,,,,,,611f770454ccb42478157748,62bbfa3313ee3c73bf05e3eb,2022-06-29_09h08.14.676,Colour_Asymmetry_Pilot,2022.1.3,Win32,60.00960154,62bbe60bf3d75ef465d3e404,0,139,139,4,1,threeone,,,,,,,,,,,,,,,,,,,,,,,,,,,,,,,,,,,,,,,,,,,,,,,,,,,,,,,,,,,,,,,,,,,,,,,,,,,,,,,,,,,,,,,,,,,,,,,,,,,,,,,,,,,,,,,,,,,,,,,,,,,,,,,,,,,,,,,,,,,,,,,,,,,,,,,,
,,,,,,611f770454ccb42478157748,62bbfa3313ee3c73bf05e3eb,2022-06-29_09h08.14.676,Colour_Asymmetry_Pilot,2022.1.3,Win32,60.00960154,62bbe60bf3d75ef465d3e404,0,140,140,129,1,onethree,,,,,,,,,,,,,,,,,,,,,,,,,,,,,,,,,,,,,,,,,,,,,,,,,,,,,,,,,,,,,,,,,,,,,,,,,,,,,,,,,,,,,,,,,,,,,,,,,,,,,,,,,,,,,,,,,,,,,,,,,,,,,,,,,,,,,,,,,,,,,,,,,,,,,,,,
,,,,,,611f770454ccb42478157748,62bbfa3313ee3c73bf05e3eb,2022-06-29_09h08.14.676,Colour_Asymmetry_Pilot,2022.1.3,Win32,60.00960154,62bbe60bf3d75ef465d3e404,0,141,141,136,1,onetwo,,,,,,,,,,,,,,,,,,,,,,,,,,,,,,,,,,,,,,,,,,,,,,,,,,,,,,,,,,,,,,,,,,,,,,,,,,,,,,,,,,,,,,,,,,,,,,,,,,,,,,,,,,,,,,,,,,,,,,,,,,,,,,,,,,,,,,,,,,,,,,,,,,,,,,,,
,,,,,,611f770454ccb42478157748,62bbfa3313ee3c73bf05e3eb,2022-06-29_09h08.14.676,Colour_Asymmetry_Pilot,2022.1.3,Win32,60.00960154,62bbe60bf3d75ef465d3e404,0,142,142,43,1,twofour,,,,,,,,,,,,,,,,,,,,,,,,,,,,,,,,,,,,,,,,,,,,,,,,,,,,,,,,,,,,,,,,,,,,,,,,,,,,,,,,,,,,,,,,,,,,,,,,,,,,,,,,,,,,,,,,,,,,,,,,,,,,,,,,,,,,,,,,,,,,,,,,,,,,,,,,
,,,,,,611f770454ccb42478157748,62bbfa3313ee3c73bf05e3eb,2022-06-29_09h08.14.676,Colour_Asymmetry_Pilot,2022.1.3,Win32,60.00960154,62bbe60bf3d75ef465d3e404,0,143,143,139,1,twofour,,,,,,,,,,,,,,,,,,,,,,,,,,,,,,,,,,,,,,,,,,,,,,,,,,,,,,,,,,,,,,,,,,,,,,,,,,,,,,,,,,,,,,,,,,,,,,,,,,,,,,,,,,,,,,,,,,,,,,,,,,,,,,,,,,,,,,,,,,,,,,,,,,,,,,,,
,,,,,,611f770454ccb42478157748,62bbfa3313ee3c73bf05e3eb,2022-06-29_09h08.14.676,Colour_Asymmetry_Pilot,2022.1.3,Win32,60.00960154,62bbe60bf3d75ef465d3e404,0,144,144,41,1,onethree,,,,,,,,,,,,,,,,,,,,,,,,,,,,,,,,,,,,,,,,,,,,,,,,,,,,,,,,,,,,,,,,,,,,,,,,,,,,,,,,,,,,,,,,,,,,,,,,,,,,,,,,,,,,,,,,,,,,,,,,,,,,,,,,,,,,,,,,,,,,,,,,,,,,,,,,
,,,,,,611f770454ccb42478157748,62bbfa3313ee3c73bf05e3eb,2022-06-29_09h08.14.676,Colour_Asymmetry_Pilot,2022.1.3,Win32,60.00960154,62bbe60bf3d75ef465d3e404,0,145,145,48,1,onetwo,,,,,,,,,,,,,,,,,,,,,,,,,,,,,,,,,,,,,,,,,,,,,,,,,,,,,,,,,,,,,,,,,,,,,,,,,,,,,,,,,,,,,,,,,,,,,,,,,,,,,,,,,,,,,,,,,,,,,,,,,,,,,,,,,,,,,,,,,,,,,,,,,,,,,,,,
,,,,,,611f770454ccb42478157748,62bbfa3313ee3c73bf05e3eb,2022-06-29_09h08.14.676,Colour_Asymmetry_Pilot,2022.1.3,Win32,60.00960154,62bbe60bf3d75ef465d3e404,0,146,146,68,1,threeone,,,,,,,,,,,,,,,,,,,,,,,,,,,,,,,,,,,,,,,,,,,,,,,,,,,,,,,,,,,,,,,,,,,,,,,,,,,,,,,,,,,,,,,,,,,,,,,,,,,,,,,,,,,,,,,,,,,,,,,,,,,,,,,,,,,,,,,,,,,,,,,,,,,,,,,,
,,,,,,611f770454ccb42478157748,62bbfa3313ee3c73bf05e3eb,2022-06-29_09h08.14.676,Colour_Asymmetry_Pilot,2022.1.3,Win32,60.00960154,62bbe60bf3d75ef465d3e404,0,147,147,60,1,threeone,,,,,,,,,,,,,,,,,,,,,,,,,,,,,,,,,,,,,,,,,,,,,,,,,,,,,,,,,,,,,,,,,,,,,,,,,,,,,,,,,,,,,,,,,,,,,,,,,,,,,,,,,,,,,,,,,,,,,,,,,,,,,,,,,,,,,,,,,,,,,,,,,,,,,,,,
,,,,,,611f770454ccb42478157748,62bbfa3313ee3c73bf05e3eb,2022-06-29_09h08.14.676,Colour_Asymmetry_Pilot,2022.1.3,Win32,60.00960154,62bbe60bf3d75ef465d3e404,0,148,148,56,1,onetwo,,,,,,,,,,,,,,,,,,,,,,,,,,,,,,,,,,,,,,,,,,,,,,,,,,,,,,,,,,,,,,,,,,,,,,,,,,,,,,,,,,,,,,,,,,,,,,,,,,,,,,,,,,,,,,,,,,,,,,,,,,,,,,,,,,,,,,,,,,,,,,,,,,,,,,,,
,,,,,,611f770454ccb42478157748,62bbfa3313ee3c73bf05e3eb,2022-06-29_09h08.14.676,Colour_Asymmetry_Pilot,2022.1.3,Win32,60.00960154,62bbe60bf3d75ef465d3e404,0,149,149,120,1,onetwo,,,,,,,,,,,,,,,,,,,,,,,,,,,,,,,,,,,,,,,,,,,,,,,,,,,,,,,,,,,,,,,,,,,,,,,,,,,,,,,,,,,,,,,,,,,,,,,,,,,,,,,,,,,,,,,,,,,,,,,,,,,,,,,,,,,,,,,,,,,,,,,,,,,,,,,,
,,,,,,611f770454ccb42478157748,62bbfa3313ee3c73bf05e3eb,2022-06-29_09h08.14.676,Colour_Asymmetry_Pilot,2022.1.3,Win32,60.00960154,62bbe60bf3d75ef465d3e404,0,150,150,104,1,onetwo,,,,,,,,,,,,,,,,,,,,,,,,,,,,,,,,,,,,,,,,,,,,,,,,,,,,,,,,,,,,,,,,,,,,,,,,,,,,,,,,,,,,,,,,,,,,,,,,,,,,,,,,,,,,,,,,,,,,,,,,,,,,,,,,,,,,,,,,,,,,,,,,,,,,,,,,
,,,,,,611f770454ccb42478157748,62bbfa3313ee3c73bf05e3eb,2022-06-29_09h08.14.676,Colour_Asymmetry_Pilot,2022.1.3,Win32,60.00960154,62bbe60bf3d75ef465d3e404,0,151,151,77,1,threefour,,,,,,,,,,,,,,,,,,,,,,,,,,,,,,,,,,,,,,,,,,,,,,,,,,,,,,,,,,,,,,,,,,,,,,,,,,,,,,,,,,,,,,,,,,,,,,,,,,,,,,,,,,,,,,,,,,,,,,,,,,,,,,,,,,,,,,,,,,,,,,,,,,,,,,,,
,,,,,,611f770454ccb42478157748,62bbfa3313ee3c73bf05e3eb,2022-06-29_09h08.14.676,Colour_Asymmetry_Pilot,2022.1.3,Win32,60.00960154,62bbe60bf3d75ef465d3e404,0,152,152,39,1,fourthree,,,,,,,,,,,,,,,,,,,,,,,,,,,,,,,,,,,,,,,,,,,,,,,,,,,,,,,,,,,,,,,,,,,,,,,,,,,,,,,,,,,,,,,,,,,,,,,,,,,,,,,,,,,,,,,,,,,,,,,,,,,,,,,,,,,,,,,,,,,,,,,,,,,,,,,,
,,,,,,611f770454ccb42478157748,62bbfa3313ee3c73bf05e3eb,2022-06-29_09h08.14.676,Colour_Asymmetry_Pilot,2022.1.3,Win32,60.00960154,62bbe60bf3d75ef465d3e404,0,153,153,28,1,threeone,,,,,,,,,,,,,,,,,,,,,,,,,,,,,,,,,,,,,,,,,,,,,,,,,,,,,,,,,,,,,,,,,,,,,,,,,,,,,,,,,,,,,,,,,,,,,,,,,,,,,,,,,,,,,,,,,,,,,,,,,,,,,,,,,,,,,,,,,,,,,,,,,,,,,,,,
,,,,,,611f770454ccb42478157748,62bbfa3313ee3c73bf05e3eb,2022-06-29_09h08.14.676,Colour_Asymmetry_Pilot,2022.1.3,Win32,60.00960154,62bbe60bf3d75ef465d3e404,0,154,154,86,1,fourtwo,,,,,,,,,,,,,,,,,,,,,,,,,,,,,,,,,,,,,,,,,,,,,,,,,,,,,,,,,,,,,,,,,,,,,,,,,,,,,,,,,,,,,,,,,,,,,,,,,,,,,,,,,,,,,,,,,,,,,,,,,,,,,,,,,,,,,,,,,,,,,,,,,,,,,,,,
,,,,,,611f770454ccb42478157748,62bbfa3313ee3c73bf05e3eb,2022-06-29_09h08.14.676,Colour_Asymmetry_Pilot,2022.1.3,Win32,60.00960154,62bbe60bf3d75ef465d3e404,0,155,155,156,1,threeone,,,,,,,,,,,,,,,,,,,,,,,,,,,,,,,,,,,,,,,,,,,,,,,,,,,,,,,,,,,,,,,,,,,,,,,,,,,,,,,,,,,,,,,,,,,,,,,,,,,,,,,,,,,,,,,,,,,,,,,,,,,,,,,,,,,,,,,,,,,,,,,,,,,,,,,,
,,,,,,611f770454ccb42478157748,62bbfa3313ee3c73bf05e3eb,2022-06-29_09h08.14.676,Colour_Asymmetry_Pilot,2022.1.3,Win32,60.00960154,62bbe60bf3d75ef465d3e404,0,156,156,27,1,twofour,,,,,,,,,,,,,,,,,,,,,,,,,,,,,,,,,,,,,,,,,,,,,,,,,,,,,,,,,,,,,,,,,,,,,,,,,,,,,,,,,,,,,,,,,,,,,,,,,,,,,,,,,,,,,,,,,,,,,,,,,,,,,,,,,,,,,,,,,,,,,,,,,,,,,,,,
,,,,,,611f770454ccb42478157748,62bbfa3313ee3c73bf05e3eb,2022-06-29_09h08.14.676,Colour_Asymmetry_Pilot,2022.1.3,Win32,60.00960154,62bbe60bf3d75ef465d3e404,0,157,157,154,1,twoone,,,,,,,,,,,,,,,,,,,,,,,,,,,,,,,,,,,,,,,,,,,,,,,,,,,,,,,,,,,,,,,,,,,,,,,,,,,,,,,,,,,,,,,,,,,,,,,,,,,,,,,,,,,,,,,,,,,,,,,,,,,,,,,,,,,,,,,,,,,,,,,,,,,,,,,,
,,,,,,611f770454ccb42478157748,62bbfa3313ee3c73bf05e3eb,2022-06-29_09h08.14.676,Colour_Asymmetry_Pilot,2022.1.3,Win32,60.00960154,62bbe60bf3d75ef465d3e404,0,158,158,81,1,onethree,,,,,,,,,,,,,,,,,,,,,,,,,,,,,,,,,,,,,,,,,,,,,,,,,,,,,,,,,,,,,,,,,,,,,,,,,,,,,,,,,,,,,,,,,,,,,,,,,,,,,,,,,,,,,,,,,,,,,,,,,,,,,,,,,,,,,,,,,,,,,,,,,,,,,,,,
,,,,,,611f770454ccb42478157748,62bbfa3313ee3c73bf05e3eb,2022-06-29_09h08.14.676,Colour_Asymmetry_Pilot,2022.1.3,Win32,60.00960154,62bbe60bf3d75ef465d3e404,0,159,159,23,1,fourthree,,,,,,,,,,,,,,,,,,,,,,,,,,,,,,,,,,,,,,,,,,,,,,,,,,,,,,,,,,,,,,,,,,,,,,,,,,,,,,,,,,,,,,,,,,,,,,,,,,,,,,,,,,,,,,,,,,,,,,,,,,,,,,,,,,,,,,,,,,,,,,,,,,,,,,,,
,,,,,,611f770454ccb42478157748,62bbfa3313ee3c73bf05e3eb,2022-06-29_09h08.14.676,Colour_Asymmetry_Pilot,2022.1.3,Win32,60.00960154,62bbe60bf3d75ef465d3e404,0,160,160,115,1,twofour,,,,,,,,,,,,,,,,,,,,,,,,,,,,,,,,,,,,,,,,,,,,,,,,,,,,,,,,,,,,,,,,,,,,,,,,,,,,,,,,,,,,,,,,,,,,,,,,,,,,,,,,,,,,,,,,,,,,,,,,,,,,,,,,,,,,,,,,,,,,,,,,,,,,,,,,
,,,,,,611f770454ccb42478157748,62bbfa3313ee3c73bf05e3eb,2022-06-29_09h08.14.676,Colour_Asymmetry_Pilot,2022.1.3,Win32,60.00960154,62bbe60bf3d75ef465d3e404,0,161,161,75,1,twofour,,,,,,,,,,,,,,,,,,,,,,,,,,,,,,,,,,,,,,,,,,,,,,,,,,,,,,,,,,,,,,,,,,,,,,,,,,,,,,,,,,,,,,,,,,,,,,,,,,,,,,,,,,,,,,,,,,,,,,,,,,,,,,,,,,,,,,,,,,,,,,,,,,,,,,,,
,,,,,,611f770454ccb42478157748,62bbfa3313ee3c73bf05e3eb,2022-06-29_09h08.14.676,Colour_Asymmetry_Pilot,2022.1.3,Win32,60.00960154,62bbe60bf3d75ef465d3e404,,,,,,,space,6.1701,space,9.685,space,41.9761,space,33.0686,space,5.8131,space,4.5288,"[-0.9766,-0.34920000000000007,0.2156]",fourthree,"[0.6547999999999998,-0.043199999999999905,-0.011800000000000033]",1,5.8953,52,-95.20001221,1,0,0,response3disk_5,-12,-8,1,0,0,rectangle_8,93.60003662,34.3999939,1,0,0,response1disk_7,6,3,9.600036621,2.399993896,1,0,0,rectangle_4,0,0,0,0,1,,,,,,,,,,,,,,,,,,,,,,,,,,,,,,,,,,,,,,,,,,,,,,,,,,,,,,,,,,,,,,,,,,,,,,,,,,,,,,,,,,,,,,,,,,,,,,,,,,,,,,,,
,,,,,,611f770454ccb42478157748,62bbfa3313ee3c73bf05e3eb,2022-06-29_09h08.14.676,Colour_Asymmetry_Pilot,2022.1.3,Win32,60.00960154,62bbe60bf3d75ef465d3e404,,,,,,,,,,,,,,,,,,,"[1,0.12939999999999996,-1]",onetwo,"[0.34099999999999997,0.12939999999999996,-0.9766]",4,11.9457,54.40002441,96.79998779,1,0,0,response1disk_5,4.799987793,3.199981689,1,0,0,rectangle_8,4.799987793,3.199981689,1,0,0,,,3,4.799987793,3.199981689,1,0,0,,1,0,1,0,1,,,,,,,,,,,,,,,,,,,,,,,,,,,,,,,,,,,,,,,,,,,,,,,,,,,,,,,,,,,,,,,,,,,,,,,,,,,,,,,,,,,,,,,,,,,,,,,,,,,,,,,,
,,,,,,611f770454ccb42478157748,62bbfa3313ee3c73bf05e3eb,2022-06-29_09h08.14.676,Colour_Asymmetry_Pilot,2022.1.3,Win32,60.00960154,62bbe60bf3d75ef465d3e404,,,,,,,,,,,,,,,,,,,"[-0.01980000000000004,-0.5138,-0.38039999999999996]",fourtwo,"[-0.24719999999999998,0.5213999999999999,-0.12959999999999994]",2,9.5526,107.2000122,-76,1,0,0,response3disk_5,-7.200012207,0,1,0,0,rectangle_8,99.20001221,42.3999939,1,0,0,response1disk_7,6,3,-1.599975586,-2.399993896,1,0,0,rectangle_4,2,0,2,0,1,,,,,,,,,,,,,,,,,,,,,,,,,,,,,,,,,,,,,,,,,,,,,,,,,,,,,,,,,,,,,,,,,,,,,,,,,,,,,,,,,,,,,,,,,,,,,,,,,,,,,,,,
,,,,,,611f770454ccb42478157748,62bbfa3313ee3c73bf05e3eb,2022-06-29_09h08.14.676,Colour_Asymmetry_Pilot,2022.1.3,Win32,60.00960154,62bbe60bf3d75ef465d3e404,,,,,,,,,,,,,,,,,,,"[-0.7412000000000001,-0.08239999999999992,-0.6864]",twofour,"[0.37240000000000006,-0.050999999999999934,-0.5216]",-1,9.3775,-38.39996338,-90.40002441,1,0,0,response5disk_5,0.799987793,8,1,0,0,rectangle_8,0.799987793,8,1,0,0,,,3,0.799987793,8,1,0,0,,3,0,3,0,1,,,,,,,,,,,,,,,,,,,,,,,,,,,,,,,,,,,,,,,,,,,,,,,,,,,,,,,,,,,,,,,,,,,,,,,,,,,,,,,,,,,,,,,,,,,,,,,,,,,,,,,,
,,,,,,611f770454ccb42478157748,62bbfa3313ee3c73bf05e3eb,2022-06-29_09h08.14.676,Colour_Asymmetry_Pilot,2022.1.3,Win32,60.00960154,62bbe60bf3d75ef465d3e404,,,,,,,,,,,,,,,,,,,"[-0.8198,-0.5138,-0.7492000000000001]",fourtwo,"[-0.10599999999999998,-0.10599999999999998,0.5841999999999998]",-1,3.5361,-44,-92,1,0,0,response5disk_5,2.400024414,4.799987793,1,0,0,rectangle_8,2.400024414,4.799987793,1,0,0,,,3,2.400024414,4.799987793,1,0,0,,4,0,4,0,1,,,,,,,,,,,,,,,,,,,,,,,,,,,,,,,,,,,,,,,,,,,,,,,,,,,,,,,,,,,,,,,,,,,,,,,,,,,,,,,,,,,,,,,,,,,,,,,,,,,,,,,,
,,,,,,611f770454ccb42478157748,62bbfa3313ee3c73bf05e3eb,2022-06-29_09h08.14.676,Colour_Asymmetry_Pilot,2022.1.3,Win32,60.00960154,62bbe60bf3d75ef465d3e404,,,,,,,,,,,,,,,,,,,"[-0.10599999999999998,-0.15300000000000002,0.15280000000000005]",fourtwo,"[-0.7412000000000001,-0.08239999999999992,-0.6864]",-1,3.0995,-37.59997559,-83.20001221,1,0,0,response5disk_5,3.200012207,5.600006104,1,0,0,rectangle_8,3.200012207,5.600006104,1,0,0,,,3,3.200012207,5.600006104,1,0,0,,5,0,5,0,1,,,,,,,,,,,,,,,,,,,,,,,,,,,,,,,,,,,,,,,,,,,,,,,,,,,,,,,,,,,,,,,,,,,,,,,,,,,,,,,,,,,,,,,,,,,,,,,,,,,,,,,,
,,,,,,611f770454ccb42478157748,62bbfa3313ee3c73bf05e3eb,2022-06-29_09h08.14.676,Colour_Asymmetry_Pilot,2022.1.3,Win32,60.00960154,62bbe60bf3d75ef465d3e404,,,,,,,,,,,,,,,,,,,"[-0.20799999999999996,-0.655,-0.01980000000000004]",twofour,"[0.19199999999999995,0.18419999999999992,0.5136000000000001]",-2,19.6028,-78.39996338,-34.3999939,1,0,0,response5disk_5,-0.799987793,8.799987793,1,0,0,rectangle_8,-0.799987793,8.799987793,1,0,0,,,3,-0.799987793,8.799987793,1,0,0,,6,0,6,0,1,,,,,,,,,,,,,,,,,,,,,,,,,,,,,,,,,,,,,,,,,,,,,,,,,,,,,,,,,,,,,,,,,,,,,,,,,,,,,,,,,,,,,,,,,,,,,,,,,,,,,,,,
,,,,,,611f770454ccb42478157748,62bbfa3313ee3c73bf05e3eb,2022-06-29_09h08.14.676,Colour_Asymmetry_Pilot,2022.1.3,Win32,60.00960154,62bbe60bf3d75ef465d3e404,,,,,,,,,,,,,,,,,,,,twoone,,-2,5.5474,,,,,,,,,,,,,,,,,,,,,,,,,,,,,,,,space,7.9992,"[0.0351999999999999,0.41159999999999997,0.0038000000000000256]","[-0.10599999999999998,-0.10599999999999998,0.5841999999999998]",-84.79998779,-46.3999939,1,0,0,response5disk,-6.399963379,3.199981689,1,0,0,rectangle,-6.399963379,3.199981689,1,0,0,,2,0.0058,0,-6.399963379,3.199981689,1,0,0,0,0,0,153,1,72,second,,,,,,,,,,,,,,,,,,,,,,,,,,,,,,,,,,,,,,,,,,,,,,,,,,,,,,,,,,,,,,,,,,,
,,,,,,611f770454ccb42478157748,62bbfa3313ee3c73bf05e3eb,2022-06-29_09h08.14.676,Colour_Asymmetry_Pilot,2022.1.3,Win32,60.00960154,62bbe60bf3d75ef465d3e404,,,,,,,,,,,,,,,,,,,,fourthree,,-1,1.5035,,,,,,,,,,,,,,,,,,,,,,,,,,,,,,,,,,"[-0.9766,-0.34920000000000007,0.2156]","[0.2862,0.7802,0.3568]",-49.59997559,-93.60003662,1,0,0,response5disk,-7.200012207,5.600006104,1,0,0,rectangle,-7.200012207,5.600006104,1,0,0,,3,0.0021,0,-7.200012207,5.600006104,1,0,0,0,1,1,114,1,33,second,,,,,,,,,,,,,,,,,,,,,,,,,,,,,,,,,,,,,,,,,,,,,,,,,,,,,,,,,,,,,,,,,,,
,,,,,,611f770454ccb42478157748,62bbfa3313ee3c73bf05e3eb,2022-06-29_09h08.14.676,Colour_Asymmetry_Pilot,2022.1.3,Win32,60.00960154,62bbe60bf3d75ef465d3e404,,,,,,,,,,,,,,,,,,,,twofour,,-4,1.2167,,,,,,,,,,,,,,,,,,,,,,,,,,,,,,,,,,"[1,0.12939999999999996,-1]","[0.9372,0.20779999999999998,0.2704]",-51.20001221,90.3999939,1,0,0,response7disk,-5.599975586,0.799987793,1,0,0,rectangle,-5.599975586,0.799987793,1,0,0,,3,0.0011,0,-5.599975586,0.799987793,1,0,0,0,2,2,46,1,46,first,,,,,,,,,,,,,,,,,,,,,,,,,,,,,,,,,,,,,,,,,,,,,,,,,,,,,,,,,,,,,,,,,,,
,,,,,,611f770454ccb42478157748,62bbfa3313ee3c73bf05e3eb,2022-06-29_09h08.14.676,Colour_Asymmetry_Pilot,2022.1.3,Win32,60.00960154,62bbe60bf3d75ef465d3e404,,,,,,,,,,,,,,,,,,,,fourtwo,,-4,1.5031,,,,,,,,,,,,,,,,,,,,,,,,,,,,,,,,,,"[-0.34920000000000007,-0.702,-0.5216]","[-0.07459999999999989,0.12139999999999995,-0.9922]",-41.59997559,69.6000061,1,0,0,response7disk,-12.79998779,3.199981689,1,0,0,rectangle,-12.79998779,3.199981689,1,0,0,,3,0.0021,0,-12.79998779,3.199981689,1,0,0,0,3,3,150,1,69,second,,,,,,,,,,,,,,,,,,,,,,,,,,,,,,,,,,,,,,,,,,,,,,,,,,,,,,,,,,,,,,,,,,,
,,,,,,611f770454ccb42478157748,62bbfa3313ee3c73bf05e3eb,2022-06-29_09h08.14.676,Colour_Asymmetry_Pilot,2022.1.3,Win32,60.00960154,62bbe60bf3d75ef465d3e404,,,,,,,,,,,,,,,,,,,,twofour,,-4,1.2657,,,,,,,,,,,,,,,,,,,,,,,,,,,,,,,,,,"[0.9213999999999998,0.6391999999999998,-0.9922]","[-0.30200000000000005,0.14500000000000002,0.2784]",-43.20001221,86.3999939,1,0,0,response7disk,4,-2.399993896,1,0,0,rectangle,4,-2.399993896,1,0,0,,2,0.0041,0,4,-2.399993896,1,0,0,0,4,4,17,1,17,first,,,,,,,,,,,,,,,,,,,,,,,,,,,,,,,,,,,,,,,,,,,,,,,,,,,,,,,,,,,,,,,,,,,
,,,,,,611f770454ccb42478157748,62bbfa3313ee3c73bf05e3eb,2022-06-29_09h08.14.676,Colour_Asymmetry_Pilot,2022.1.3,Win32,60.00960154,62bbe60bf3d75ef465d3e404,,,,,,,,,,,,,,,,,,,,onethree,,-3,3.1907,,,,,,,,,,,,,,,,,,,,,,,,,,,,,,,,,,"[-0.10599999999999998,-0.10599999999999998,0.5841999999999998]","[0.11359999999999992,0.6312,0.5213999999999999]",-90.39996338,45.6000061,1,0,0,response7disk,-4.799987793,-5.600006104,1,0,0,rectangle,-4.799987793,-5.600006104,1,0,0,,3,0.0027,0,-4.799987793,-5.600006104,1,0,0,0,5,5,8,1,8,first,,,,,,,,,,,,,,,,,,,,,,,,,,,,,,,,,,,,,,,,,,,,,,,,,,,,,,,,,,,,,,,,,,,
,,,,,,611f770454ccb42478157748,62bbfa3313ee3c73bf05e3eb,2022-06-29_09h08.14.676,Colour_Asymmetry_Pilot,2022.1.3,Win32,60.00960154,62bbe60bf3d75ef465d3e404,,,,,,,,,,,,,,,,,,,,onetwo,,-2,1.8563,,,,,,,,,,,,,,,,,,,,,,,,,,,,,,,,,,"[0.30180000000000007,-0.7884,-0.9844]","[-0.06680000000000008,-0.45100000000000007,-0.906]",-75.20001221,-32.80001831,1,0,0,response5disk,14.40002441,8.799987793,1,0,0,rectangle,14.40002441,8.799987793,1,0,0,,1,0.0051,0,14.40002441,8.799987793,1,0,0,0,6,6,28,1,28,first,,,,,,,,,,,,,,,,,,,,,,,,,,,,,,,,,,,,,,,,,,,,,,,,,,,,,,,,,,,,,,,,,,,
,,,,,,611f770454ccb42478157748,62bbfa3313ee3c73bf05e3eb,2022-06-29_09h08.14.676,Colour_Asymmetry_Pilot,2022.1.3,Win32,60.00960154,62bbe60bf3d75ef465d3e404,,,,,,,,,,,,,,,,,,,,fourtwo,,-2,3.5974,,,,,,,,,,,,,,,,,,,,,,,,,,,,,,,,,,"[-0.9216,-0.5529999999999999,-0.3962]","[-0.38039999999999996,-0.4276,-0.1452]",-72,-34.3999939,1,0,0,response5disk,8.799987793,6.399993896,1,0,0,rectangle,8.799987793,6.399993896,1,0,0,,2,0.0028,0,8.799987793,6.399993896,1,0,0,0,7,7,12,1,12,first,,,,,,,,,,,,,,,,,,,,,,,,,,,,,,,,,,,,,,,,,,,,,,,,,,,,,,,,,,,,,,,,,,,
,,,,,,611f770454ccb42478157748,62bbfa3313ee3c73bf05e3eb,2022-06-29_09h08.14.676,Colour_Asymmetry_Pilot,2022.1.3,Win32,60.00960154,62bbe60bf3d75ef465d3e404,,,,,,,,,,,,,,,,,,,,fourthree,,-2,1.0169,,,,,,,,,,,,,,,,,,,,,,,,,,,,,,,,,,"[-0.2942,-0.24719999999999998,-0.357]","[-0.9138,-0.5296000000000001,-0.5529999999999999]",-84.79998779,-48,1,0,0,response5disk,2.400024414,2.399993896,1,0,0,rectangle,2.400024414,2.399993896,1,0,0,,2,0.0005,0,2.400024414,2.399993896,1,0,0,0,8,8,108,1,27,second,,,,,,,,,,,,,,,,,,,,,,,,,,,,,,,,,,,,,,,,,,,,,,,,,,,,,,,,,,,,,,,,,,,
,,,,,,611f770454ccb42478157748,62bbfa3313ee3c73bf05e3eb,2022-06-29_09h08.14.676,Colour_Asymmetry_Pilot,2022.1.3,Win32,60.00960154,62bbe60bf3d75ef465d3e404,,,,,,,,,,,,,,,,,,,,onetwo,,-3,2.0651,,,,,,,,,,,,,,,,,,,,,,,,,,,,,,,,,,"[0.0351999999999999,0.41159999999999997,0.0038000000000000256]","[-0.4668,-0.8746,-0.2942]",-85.59997559,49.6000061,1,0,0,response7disk,-8,12,1,0,0,rectangle,-8,12,1,0,0,,2,0.0009,0,-8,12,1,0,0,0,9,9,44,1,44,first,,,,,,,,,,,,,,,,,,,,,,,,,,,,,,,,,,,,,,,,,,,,,,,,,,,,,,,,,,,,,,,,,,,
,,,,,,611f770454ccb42478157748,62bbfa3313ee3c73bf05e3eb,2022-06-29_09h08.14.676,Colour_Asymmetry_Pilot,2022.1.3,Win32,60.00960154,62bbe60bf3d75ef465d3e404,,,,,,,,,,,,,,,,,,,,threeone,,-4,1.5001,,,,,,,,,,,,,,,,,,,,,,,,,,,,,,,,,,"[-0.24719999999999998,-0.0354000000000001,0.3175999999999999]","[0.9372,0.9450000000000001,0.8980000000000001]",-42.39996338,90.3999939,1,0,0,response7disk,7.200012207,-6.399993896,1,0,0,rectangle,7.200012207,-6.399993896,1,0,0,,3,0.0046,0,7.200012207,-6.399993896,1,0,0,0,10,10,59,1,59,first,,,,,,,,,,,,,,,,,,,,,,,,,,,,,,,,,,,,,,,,,,,,,,,,,,,,,,,,,,,,,,,,,,,
,,,,,,611f770454ccb42478157748,62bbfa3313ee3c73bf05e3eb,2022-06-29_09h08.14.676,Colour_Asymmetry_Pilot,2022.1.3,Win32,60.00960154,62bbe60bf3d75ef465d3e404,,,,,,,,,,,,,,,,,,,,threefour,,-4,1.1368,,,,,,,,,,,,,,,,,,,,,,,,,,,,,,,,,,"[-0.4982,-0.2942,-0.0354000000000001]","[0.2784,-0.31000000000000005,-0.5452]",-52,88.79998779,1,0,0,response7disk,0,8.799987793,1,0,0,rectangle,0,8.799987793,1,0,0,,1,0.0028,0,0,8.799987793,1,0,0,0,11,11,106,1,25,second,,,,,,,,,,,,,,,,,,,,,,,,,,,,,,,,,,,,,,,,,,,,,,,,,,,,,,,,,,,,,,,,,,,
,,,,,,611f770454ccb42478157748,62bbfa3313ee3c73bf05e3eb,2022-06-29_09h08.14.676,Colour_Asymmetry_Pilot,2022.1.3,Win32,60.00960154,62bbe60bf3d75ef465d3e404,,,,,,,,,,,,,,,,,,,,fourtwo,,-4,0.7355,,,,,,,,,,,,,,,,,,,,,,,,,,,,,,,,,,"[-0.07459999999999989,0.12139999999999995,-0.9922]","[-0.34920000000000007,-0.702,-0.5216]",-37.59997559,79.19998169,1,0,0,response7disk,0.799987793,0.799987793,1,0,0,rectangle,0.799987793,0.799987793,1,0,0,,3,0.001,0,0.799987793,0.799987793,1,0,0,0,12,12,69,1,69,first,,,,,,,,,,,,,,,,,,,,,,,,,,,,,,,,,,,,,,,,,,,,,,,,,,,,,,,,,,,,,,,,,,,
,,,,,,611f770454ccb42478157748,62bbfa3313ee3c73bf05e3eb,2022-06-29_09h08.14.676,Colour_Asymmetry_Pilot,2022.1.3,Win32,60.00960154,62bbe60bf3d75ef465d3e404,,,,,,,,,,,,,,,,,,,,fourtwo,,4,2.3793,,,,,,,,,,,,,,,,,,,,,,,,,,,,,,,,,,"[0.0351999999999999,0.41159999999999997,0.0038000000000000256]","[0.0351999999999999,0.41159999999999997,0.0038000000000000256]",44.79998779,96,1,0,0,response1disk,7.200012207,-1.600006104,1,0,0,rectangle,7.200012207,-1.600006104,1,0,0,,1,0.0036,0,7.200012207,-1.600006104,1,0,0,0,13,13,39,1,39,first,,,,,,,,,,,,,,,,,,,,,,,,,,,,,,,,,,,,,,,,,,,,,,,,,,,,,,,,,,,,,,,,,,,
,,,,,,611f770454ccb42478157748,62bbfa3313ee3c73bf05e3eb,2022-06-29_09h08.14.676,Colour_Asymmetry_Pilot,2022.1.3,Win32,60.00960154,62bbe60bf3d75ef465d3e404,,,,,,,,,,,,,,,,,,,,threeone,,-3,1.599,,,,,,,,,,,,,,,,,,,,,,,,,,,,,,,,,,"[-0.8982,-0.37259999999999993,0.2784]","[-0.2942,-0.24719999999999998,-0.357]",-95.20001221,45.6000061,1,0,0,response7disk,-17.59997559,3.199981689,1,0,0,rectangle,-17.59997559,3.199981689,1,0,0,,2,0.003,0,-17.59997559,3.199981689,1,0,0,0,14,14,3,1,3,first,,,,,,,,,,,,,,,,,,,,,,,,,,,,,,,,,,,,,,,,,,,,,,,,,,,,,,,,,,,,,,,,,,,
,,,,,,611f770454ccb42478157748,62bbfa3313ee3c73bf05e3eb,2022-06-29_09h08.14.676,Colour_Asymmetry_Pilot,2022.1.3,Win32,60.00960154,62bbe60bf3d75ef465d3e404,,,,,,,,,,,,,,,,,,,,twoone,,-4,0.9938,,,,,,,,,,,,,,,,,,,,,,,,,,,,,,,,,,"[0.11359999999999992,0.6312,0.5213999999999999]","[-0.4746,-0.0354000000000001,0.5449999999999999]",-49.59997559,98.3999939,1,0,0,response7disk,-4,4.799987793,1,0,0,rectangle,-4,4.799987793,1,0,0,,2,0.0003,0,-4,4.799987793,1,0,0,0,15,15,0,1,0,first,,,,,,,,,,,,,,,,,,,,,,,,,,,,,,,,,,,,,,,,,,,,,,,,,,,,,,,,,,,,,,,,,,,
,,,,,,611f770454ccb42478157748,62bbfa3313ee3c73bf05e3eb,2022-06-29_09h08.14.676,Colour_Asymmetry_Pilot,2022.1.3,Win32,60.00960154,62bbe60bf3d75ef465d3e404,,,,,,,,,,,,,,,,,,,,twofour,,-4,0.7719,,,,,,,,,,,,,,,,,,,,,,,,,,,,,,,,,,"[-0.10599999999999998,-0.10599999999999998,0.5841999999999998]","[0.0351999999999999,0.41159999999999997,0.0038000000000000256]",-50.39996338,97.6000061,1,0,0,response7disk,9.600036621,11.19998169,1,0,0,rectangle,9.600036621,11.19998169,1,0,0,,3,0.0044,0,9.600036621,11.19998169,1,0,0,0,16,16,72,1,72,first,,,,,,,,,,,,,,,,,,,,,,,,,,,,,,,,,,,,,,,,,,,,,,,,,,,,,,,,,,,,,,,,,,,
