trials.thisRepN,trials.thisTrialN,trials.thisN,trials.thisIndex,trials.ran,Colourcodes,participant,session,date,expName,psychopyVersion,OS,frameRate,study_id,trials_4.thisRepN,trials_4.thisTrialN,trials_4.thisN,trials_4.thisIndex,trials_4.ran,StimulusPos,key_resp.keys,key_resp.rt,key_resp_2.keys,key_resp_2.rt,key_resp_15.keys,key_resp_15.rt,key_resp_17.keys,key_resp_17.rt,key_resp_9.keys,key_resp_9.rt,key_resp_10.keys,key_resp_10.rt,Circle1_col,Ecc,Circle2_col,similarity,response_time,mouse_5.x,mouse_5.y,mouse_5.leftButton,mouse_5.midButton,mouse_5.rightButton,mouse_5.clicked_name,mouse_10.x,mouse_10.y,mouse_10.leftButton,mouse_10.midButton,mouse_10.rightButton,mouse_10.clicked_name,mouse_7.x,mouse_7.y,mouse_7.leftButton,mouse_7.midButton,mouse_7.rightButton,mouse_7.clicked_name,catchprac,catchnumberprac,mouse_6.x,mouse_6.y,mouse_6.leftButton,mouse_6.midButton,mouse_6.rightButton,mouse_6.clicked_name,duringprac.thisRepN,duringprac.thisTrialN,duringprac.thisN,duringprac.thisIndex,duringprac.ran,key_resp_22.keys,key_resp_22.rt,Circle1_colour,Circle2_colour,mouse.x,mouse.y,mouse.leftButton,mouse.midButton,mouse.rightButton,mouse.clicked_name,mouse_2.x,mouse_2.y,mouse_2.leftButton,mouse_2.midButton,mouse_2.rightButton,mouse_2.clicked_name,mouse_3.x,mouse_3.y,mouse_3.leftButton,mouse_3.midButton,mouse_3.rightButton,catchresponse,catchnumber,response_time_catch,Catch,mouse_11.x,mouse_11.y,mouse_11.leftButton,mouse_11.midButton,mouse_11.rightButton,trials_2.thisRepN,trials_2.thisTrialN,trials_2.thisN,trials_2.thisIndex,trials_2.ran,Colourpair,Temporder,mouse_3.clicked_name,mouse_11.clicked_name,trials_3.thisRepN,trials_3.thisTrialN,trials_3.thisN,trials_3.thisIndex,trials_3.ran,key_resp_instr_Ishi.keys,key_resp_instr_Ishi.rt,Ishi_trial_keyresp.keys,Ishi_trial_keyresp.rt,Ishi_textbox.text,Ishi_loop.thisRepN,Ishi_loop.thisTrialN,Ishi_loop.thisN,Ishi_loop.thisIndex,Ishi_loop.ran,imageaddress,textbox.text,mouse_4.x,mouse_4.y,mouse_4.leftButton,mouse_4.midButton,mouse_4.rightButton,mouse_4.clicked_name,textbox_2.text,mouse_8.x,mouse_8.y,mouse_8.leftButton,mouse_8.midButton,mouse_8.rightButton,mouse_8.clicked_name,textbox_3.text,mouse_9.x,mouse_9.y,mouse_9.leftButton,mouse_9.midButton,mouse_9.rightButton,mouse_9.clicked_name,textbox_4.text,mouse_12.x,mouse_12.y,mouse_12.leftButton,mouse_12.midButton,mouse_12.rightButton,mouse_12.clicked_name,textbox_5.text,mouse_13.x,mouse_13.y,mouse_13.leftButton,mouse_13.midButton,mouse_13.rightButton,mouse_13.clicked_name,textbox_6.text,mouse_14.x,mouse_14.y,mouse_14.leftButton,mouse_14.midButton,mouse_14.rightButton,mouse_14.clicked_name,textbox_7.text,mouse_15.x,mouse_15.y,mouse_15.leftButton,mouse_15.midButton,mouse_15.rightButton,mouse_15.clicked_name
0,0,0,58,1,,615444f0b14488e2b0eb13fa,62bbfa9aa22562605f507257,2022-06-29_09h09.31.330,Colour_Asymmetry_Pilot,2022.1.3,Win32,60.02040694,62bbe60bf3d75ef465d3e404,,,,,,,,,,,,,,,,,,,,,,,,,,,,,,,,,,,,,,,,,,,,,,,,,,,,,,,,,,,,,,,,,,,,,,,,,,,,,,,,,,,,,,,,,,,,,,,,,,,,,,,,,,,,,,,,,,,,,,,,,,,,,,,,,,,,,,,,,,,,,,,,,,,,,,,,,,,,,,
0,1,1,14,1,,615444f0b14488e2b0eb13fa,62bbfa9aa22562605f507257,2022-06-29_09h09.31.330,Colour_Asymmetry_Pilot,2022.1.3,Win32,60.02040694,62bbe60bf3d75ef465d3e404,,,,,,,,,,,,,,,,,,,,,,,,,,,,,,,,,,,,,,,,,,,,,,,,,,,,,,,,,,,,,,,,,,,,,,,,,,,,,,,,,,,,,,,,,,,,,,,,,,,,,,,,,,,,,,,,,,,,,,,,,,,,,,,,,,,,,,,,,,,,,,,,,,,,,,,,,,,,,,
0,2,2,27,1,,615444f0b14488e2b0eb13fa,62bbfa9aa22562605f507257,2022-06-29_09h09.31.330,Colour_Asymmetry_Pilot,2022.1.3,Win32,60.02040694,62bbe60bf3d75ef465d3e404,,,,,,,,,,,,,,,,,,,,,,,,,,,,,,,,,,,,,,,,,,,,,,,,,,,,,,,,,,,,,,,,,,,,,,,,,,,,,,,,,,,,,,,,,,,,,,,,,,,,,,,,,,,,,,,,,,,,,,,,,,,,,,,,,,,,,,,,,,,,,,,,,,,,,,,,,,,,,,
0,3,3,65,1,,615444f0b14488e2b0eb13fa,62bbfa9aa22562605f507257,2022-06-29_09h09.31.330,Colour_Asymmetry_Pilot,2022.1.3,Win32,60.02040694,62bbe60bf3d75ef465d3e404,,,,,,,,,,,,,,,,,,,,,,,,,,,,,,,,,,,,,,,,,,,,,,,,,,,,,,,,,,,,,,,,,,,,,,,,,,,,,,,,,,,,,,,,,,,,,,,,,,,,,,,,,,,,,,,,,,,,,,,,,,,,,,,,,,,,,,,,,,,,,,,,,,,,,,,,,,,,,,
0,4,4,28,1,,615444f0b14488e2b0eb13fa,62bbfa9aa22562605f507257,2022-06-29_09h09.31.330,Colour_Asymmetry_Pilot,2022.1.3,Win32,60.02040694,62bbe60bf3d75ef465d3e404,,,,,,,,,,,,,,,,,,,,,,,,,,,,,,,,,,,,,,,,,,,,,,,,,,,,,,,,,,,,,,,,,,,,,,,,,,,,,,,,,,,,,,,,,,,,,,,,,,,,,,,,,,,,,,,,,,,,,,,,,,,,,,,,,,,,,,,,,,,,,,,,,,,,,,,,,,,,,,
0,5,5,44,1,,615444f0b14488e2b0eb13fa,62bbfa9aa22562605f507257,2022-06-29_09h09.31.330,Colour_Asymmetry_Pilot,2022.1.3,Win32,60.02040694,62bbe60bf3d75ef465d3e404,,,,,,,,,,,,,,,,,,,,,,,,,,,,,,,,,,,,,,,,,,,,,,,,,,,,,,,,,,,,,,,,,,,,,,,,,,,,,,,,,,,,,,,,,,,,,,,,,,,,,,,,,,,,,,,,,,,,,,,,,,,,,,,,,,,,,,,,,,,,,,,,,,,,,,,,,,,,,,
0,6,6,83,1,,615444f0b14488e2b0eb13fa,62bbfa9aa22562605f507257,2022-06-29_09h09.31.330,Colour_Asymmetry_Pilot,2022.1.3,Win32,60.02040694,62bbe60bf3d75ef465d3e404,,,,,,,,,,,,,,,,,,,,,,,,,,,,,,,,,,,,,,,,,,,,,,,,,,,,,,,,,,,,,,,,,,,,,,,,,,,,,,,,,,,,,,,,,,,,,,,,,,,,,,,,,,,,,,,,,,,,,,,,,,,,,,,,,,,,,,,,,,,,,,,,,,,,,,,,,,,,,,
0,7,7,75,1,,615444f0b14488e2b0eb13fa,62bbfa9aa22562605f507257,2022-06-29_09h09.31.330,Colour_Asymmetry_Pilot,2022.1.3,Win32,60.02040694,62bbe60bf3d75ef465d3e404,,,,,,,,,,,,,,,,,,,,,,,,,,,,,,,,,,,,,,,,,,,,,,,,,,,,,,,,,,,,,,,,,,,,,,,,,,,,,,,,,,,,,,,,,,,,,,,,,,,,,,,,,,,,,,,,,,,,,,,,,,,,,,,,,,,,,,,,,,,,,,,,,,,,,,,,,,,,,,
0,8,8,90,1,,615444f0b14488e2b0eb13fa,62bbfa9aa22562605f507257,2022-06-29_09h09.31.330,Colour_Asymmetry_Pilot,2022.1.3,Win32,60.02040694,62bbe60bf3d75ef465d3e404,,,,,,,,,,,,,,,,,,,,,,,,,,,,,,,,,,,,,,,,,,,,,,,,,,,,,,,,,,,,,,,,,,,,,,,,,,,,,,,,,,,,,,,,,,,,,,,,,,,,,,,,,,,,,,,,,,,,,,,,,,,,,,,,,,,,,,,,,,,,,,,,,,,,,,,,,,,,,,
0,9,9,31,1,,615444f0b14488e2b0eb13fa,62bbfa9aa22562605f507257,2022-06-29_09h09.31.330,Colour_Asymmetry_Pilot,2022.1.3,Win32,60.02040694,62bbe60bf3d75ef465d3e404,,,,,,,,,,,,,,,,,,,,,,,,,,,,,,,,,,,,,,,,,,,,,,,,,,,,,,,,,,,,,,,,,,,,,,,,,,,,,,,,,,,,,,,,,,,,,,,,,,,,,,,,,,,,,,,,,,,,,,,,,,,,,,,,,,,,,,,,,,,,,,,,,,,,,,,,,,,,,,
0,10,10,0,1,,615444f0b14488e2b0eb13fa,62bbfa9aa22562605f507257,2022-06-29_09h09.31.330,Colour_Asymmetry_Pilot,2022.1.3,Win32,60.02040694,62bbe60bf3d75ef465d3e404,,,,,,,,,,,,,,,,,,,,,,,,,,,,,,,,,,,,,,,,,,,,,,,,,,,,,,,,,,,,,,,,,,,,,,,,,,,,,,,,,,,,,,,,,,,,,,,,,,,,,,,,,,,,,,,,,,,,,,,,,,,,,,,,,,,,,,,,,,,,,,,,,,,,,,,,,,,,,,
0,11,11,38,1,,615444f0b14488e2b0eb13fa,62bbfa9aa22562605f507257,2022-06-29_09h09.31.330,Colour_Asymmetry_Pilot,2022.1.3,Win32,60.02040694,62bbe60bf3d75ef465d3e404,,,,,,,,,,,,,,,,,,,,,,,,,,,,,,,,,,,,,,,,,,,,,,,,,,,,,,,,,,,,,,,,,,,,,,,,,,,,,,,,,,,,,,,,,,,,,,,,,,,,,,,,,,,,,,,,,,,,,,,,,,,,,,,,,,,,,,,,,,,,,,,,,,,,,,,,,,,,,,
0,12,12,34,1,,615444f0b14488e2b0eb13fa,62bbfa9aa22562605f507257,2022-06-29_09h09.31.330,Colour_Asymmetry_Pilot,2022.1.3,Win32,60.02040694,62bbe60bf3d75ef465d3e404,,,,,,,,,,,,,,,,,,,,,,,,,,,,,,,,,,,,,,,,,,,,,,,,,,,,,,,,,,,,,,,,,,,,,,,,,,,,,,,,,,,,,,,,,,,,,,,,,,,,,,,,,,,,,,,,,,,,,,,,,,,,,,,,,,,,,,,,,,,,,,,,,,,,,,,,,,,,,,
0,13,13,50,1,,615444f0b14488e2b0eb13fa,62bbfa9aa22562605f507257,2022-06-29_09h09.31.330,Colour_Asymmetry_Pilot,2022.1.3,Win32,60.02040694,62bbe60bf3d75ef465d3e404,,,,,,,,,,,,,,,,,,,,,,,,,,,,,,,,,,,,,,,,,,,,,,,,,,,,,,,,,,,,,,,,,,,,,,,,,,,,,,,,,,,,,,,,,,,,,,,,,,,,,,,,,,,,,,,,,,,,,,,,,,,,,,,,,,,,,,,,,,,,,,,,,,,,,,,,,,,,,,
0,14,14,30,1,,615444f0b14488e2b0eb13fa,62bbfa9aa22562605f507257,2022-06-29_09h09.31.330,Colour_Asymmetry_Pilot,2022.1.3,Win32,60.02040694,62bbe60bf3d75ef465d3e404,,,,,,,,,,,,,,,,,,,,,,,,,,,,,,,,,,,,,,,,,,,,,,,,,,,,,,,,,,,,,,,,,,,,,,,,,,,,,,,,,,,,,,,,,,,,,,,,,,,,,,,,,,,,,,,,,,,,,,,,,,,,,,,,,,,,,,,,,,,,,,,,,,,,,,,,,,,,,,
0,15,15,91,1,,615444f0b14488e2b0eb13fa,62bbfa9aa22562605f507257,2022-06-29_09h09.31.330,Colour_Asymmetry_Pilot,2022.1.3,Win32,60.02040694,62bbe60bf3d75ef465d3e404,,,,,,,,,,,,,,,,,,,,,,,,,,,,,,,,,,,,,,,,,,,,,,,,,,,,,,,,,,,,,,,,,,,,,,,,,,,,,,,,,,,,,,,,,,,,,,,,,,,,,,,,,,,,,,,,,,,,,,,,,,,,,,,,,,,,,,,,,,,,,,,,,,,,,,,,,,,,,,
0,16,16,76,1,,615444f0b14488e2b0eb13fa,62bbfa9aa22562605f507257,2022-06-29_09h09.31.330,Colour_Asymmetry_Pilot,2022.1.3,Win32,60.02040694,62bbe60bf3d75ef465d3e404,,,,,,,,,,,,,,,,,,,,,,,,,,,,,,,,,,,,,,,,,,,,,,,,,,,,,,,,,,,,,,,,,,,,,,,,,,,,,,,,,,,,,,,,,,,,,,,,,,,,,,,,,,,,,,,,,,,,,,,,,,,,,,,,,,,,,,,,,,,,,,,,,,,,,,,,,,,,,,
0,17,17,43,1,,615444f0b14488e2b0eb13fa,62bbfa9aa22562605f507257,2022-06-29_09h09.31.330,Colour_Asymmetry_Pilot,2022.1.3,Win32,60.02040694,62bbe60bf3d75ef465d3e404,,,,,,,,,,,,,,,,,,,,,,,,,,,,,,,,,,,,,,,,,,,,,,,,,,,,,,,,,,,,,,,,,,,,,,,,,,,,,,,,,,,,,,,,,,,,,,,,,,,,,,,,,,,,,,,,,,,,,,,,,,,,,,,,,,,,,,,,,,,,,,,,,,,,,,,,,,,,,,
0,18,18,68,1,,615444f0b14488e2b0eb13fa,62bbfa9aa22562605f507257,2022-06-29_09h09.31.330,Colour_Asymmetry_Pilot,2022.1.3,Win32,60.02040694,62bbe60bf3d75ef465d3e404,,,,,,,,,,,,,,,,,,,,,,,,,,,,,,,,,,,,,,,,,,,,,,,,,,,,,,,,,,,,,,,,,,,,,,,,,,,,,,,,,,,,,,,,,,,,,,,,,,,,,,,,,,,,,,,,,,,,,,,,,,,,,,,,,,,,,,,,,,,,,,,,,,,,,,,,,,,,,,
0,19,19,36,1,,615444f0b14488e2b0eb13fa,62bbfa9aa22562605f507257,2022-06-29_09h09.31.330,Colour_Asymmetry_Pilot,2022.1.3,Win32,60.02040694,62bbe60bf3d75ef465d3e404,,,,,,,,,,,,,,,,,,,,,,,,,,,,,,,,,,,,,,,,,,,,,,,,,,,,,,,,,,,,,,,,,,,,,,,,,,,,,,,,,,,,,,,,,,,,,,,,,,,,,,,,,,,,,,,,,,,,,,,,,,,,,,,,,,,,,,,,,,,,,,,,,,,,,,,,,,,,,,
0,20,20,22,1,,615444f0b14488e2b0eb13fa,62bbfa9aa22562605f507257,2022-06-29_09h09.31.330,Colour_Asymmetry_Pilot,2022.1.3,Win32,60.02040694,62bbe60bf3d75ef465d3e404,,,,,,,,,,,,,,,,,,,,,,,,,,,,,,,,,,,,,,,,,,,,,,,,,,,,,,,,,,,,,,,,,,,,,,,,,,,,,,,,,,,,,,,,,,,,,,,,,,,,,,,,,,,,,,,,,,,,,,,,,,,,,,,,,,,,,,,,,,,,,,,,,,,,,,,,,,,,,,
0,21,21,55,1,,615444f0b14488e2b0eb13fa,62bbfa9aa22562605f507257,2022-06-29_09h09.31.330,Colour_Asymmetry_Pilot,2022.1.3,Win32,60.02040694,62bbe60bf3d75ef465d3e404,,,,,,,,,,,,,,,,,,,,,,,,,,,,,,,,,,,,,,,,,,,,,,,,,,,,,,,,,,,,,,,,,,,,,,,,,,,,,,,,,,,,,,,,,,,,,,,,,,,,,,,,,,,,,,,,,,,,,,,,,,,,,,,,,,,,,,,,,,,,,,,,,,,,,,,,,,,,,,
0,22,22,9,1,,615444f0b14488e2b0eb13fa,62bbfa9aa22562605f507257,2022-06-29_09h09.31.330,Colour_Asymmetry_Pilot,2022.1.3,Win32,60.02040694,62bbe60bf3d75ef465d3e404,,,,,,,,,,,,,,,,,,,,,,,,,,,,,,,,,,,,,,,,,,,,,,,,,,,,,,,,,,,,,,,,,,,,,,,,,,,,,,,,,,,,,,,,,,,,,,,,,,,,,,,,,,,,,,,,,,,,,,,,,,,,,,,,,,,,,,,,,,,,,,,,,,,,,,,,,,,,,,
0,23,23,78,1,,615444f0b14488e2b0eb13fa,62bbfa9aa22562605f507257,2022-06-29_09h09.31.330,Colour_Asymmetry_Pilot,2022.1.3,Win32,60.02040694,62bbe60bf3d75ef465d3e404,,,,,,,,,,,,,,,,,,,,,,,,,,,,,,,,,,,,,,,,,,,,,,,,,,,,,,,,,,,,,,,,,,,,,,,,,,,,,,,,,,,,,,,,,,,,,,,,,,,,,,,,,,,,,,,,,,,,,,,,,,,,,,,,,,,,,,,,,,,,,,,,,,,,,,,,,,,,,,
0,24,24,46,1,,615444f0b14488e2b0eb13fa,62bbfa9aa22562605f507257,2022-06-29_09h09.31.330,Colour_Asymmetry_Pilot,2022.1.3,Win32,60.02040694,62bbe60bf3d75ef465d3e404,,,,,,,,,,,,,,,,,,,,,,,,,,,,,,,,,,,,,,,,,,,,,,,,,,,,,,,,,,,,,,,,,,,,,,,,,,,,,,,,,,,,,,,,,,,,,,,,,,,,,,,,,,,,,,,,,,,,,,,,,,,,,,,,,,,,,,,,,,,,,,,,,,,,,,,,,,,,,,
0,25,25,25,1,,615444f0b14488e2b0eb13fa,62bbfa9aa22562605f507257,2022-06-29_09h09.31.330,Colour_Asymmetry_Pilot,2022.1.3,Win32,60.02040694,62bbe60bf3d75ef465d3e404,,,,,,,,,,,,,,,,,,,,,,,,,,,,,,,,,,,,,,,,,,,,,,,,,,,,,,,,,,,,,,,,,,,,,,,,,,,,,,,,,,,,,,,,,,,,,,,,,,,,,,,,,,,,,,,,,,,,,,,,,,,,,,,,,,,,,,,,,,,,,,,,,,,,,,,,,,,,,,
0,26,26,71,1,,615444f0b14488e2b0eb13fa,62bbfa9aa22562605f507257,2022-06-29_09h09.31.330,Colour_Asymmetry_Pilot,2022.1.3,Win32,60.02040694,62bbe60bf3d75ef465d3e404,,,,,,,,,,,,,,,,,,,,,,,,,,,,,,,,,,,,,,,,,,,,,,,,,,,,,,,,,,,,,,,,,,,,,,,,,,,,,,,,,,,,,,,,,,,,,,,,,,,,,,,,,,,,,,,,,,,,,,,,,,,,,,,,,,,,,,,,,,,,,,,,,,,,,,,,,,,,,,
0,27,27,32,1,,615444f0b14488e2b0eb13fa,62bbfa9aa22562605f507257,2022-06-29_09h09.31.330,Colour_Asymmetry_Pilot,2022.1.3,Win32,60.02040694,62bbe60bf3d75ef465d3e404,,,,,,,,,,,,,,,,,,,,,,,,,,,,,,,,,,,,,,,,,,,,,,,,,,,,,,,,,,,,,,,,,,,,,,,,,,,,,,,,,,,,,,,,,,,,,,,,,,,,,,,,,,,,,,,,,,,,,,,,,,,,,,,,,,,,,,,,,,,,,,,,,,,,,,,,,,,,,,
0,28,28,42,1,,615444f0b14488e2b0eb13fa,62bbfa9aa22562605f507257,2022-06-29_09h09.31.330,Colour_Asymmetry_Pilot,2022.1.3,Win32,60.02040694,62bbe60bf3d75ef465d3e404,,,,,,,,,,,,,,,,,,,,,,,,,,,,,,,,,,,,,,,,,,,,,,,,,,,,,,,,,,,,,,,,,,,,,,,,,,,,,,,,,,,,,,,,,,,,,,,,,,,,,,,,,,,,,,,,,,,,,,,,,,,,,,,,,,,,,,,,,,,,,,,,,,,,,,,,,,,,,,
0,29,29,60,1,,615444f0b14488e2b0eb13fa,62bbfa9aa22562605f507257,2022-06-29_09h09.31.330,Colour_Asymmetry_Pilot,2022.1.3,Win32,60.02040694,62bbe60bf3d75ef465d3e404,,,,,,,,,,,,,,,,,,,,,,,,,,,,,,,,,,,,,,,,,,,,,,,,,,,,,,,,,,,,,,,,,,,,,,,,,,,,,,,,,,,,,,,,,,,,,,,,,,,,,,,,,,,,,,,,,,,,,,,,,,,,,,,,,,,,,,,,,,,,,,,,,,,,,,,,,,,,,,
0,30,30,10,1,,615444f0b14488e2b0eb13fa,62bbfa9aa22562605f507257,2022-06-29_09h09.31.330,Colour_Asymmetry_Pilot,2022.1.3,Win32,60.02040694,62bbe60bf3d75ef465d3e404,,,,,,,,,,,,,,,,,,,,,,,,,,,,,,,,,,,,,,,,,,,,,,,,,,,,,,,,,,,,,,,,,,,,,,,,,,,,,,,,,,,,,,,,,,,,,,,,,,,,,,,,,,,,,,,,,,,,,,,,,,,,,,,,,,,,,,,,,,,,,,,,,,,,,,,,,,,,,,
0,31,31,18,1,,615444f0b14488e2b0eb13fa,62bbfa9aa22562605f507257,2022-06-29_09h09.31.330,Colour_Asymmetry_Pilot,2022.1.3,Win32,60.02040694,62bbe60bf3d75ef465d3e404,,,,,,,,,,,,,,,,,,,,,,,,,,,,,,,,,,,,,,,,,,,,,,,,,,,,,,,,,,,,,,,,,,,,,,,,,,,,,,,,,,,,,,,,,,,,,,,,,,,,,,,,,,,,,,,,,,,,,,,,,,,,,,,,,,,,,,,,,,,,,,,,,,,,,,,,,,,,,,
0,32,32,69,1,,615444f0b14488e2b0eb13fa,62bbfa9aa22562605f507257,2022-06-29_09h09.31.330,Colour_Asymmetry_Pilot,2022.1.3,Win32,60.02040694,62bbe60bf3d75ef465d3e404,,,,,,,,,,,,,,,,,,,,,,,,,,,,,,,,,,,,,,,,,,,,,,,,,,,,,,,,,,,,,,,,,,,,,,,,,,,,,,,,,,,,,,,,,,,,,,,,,,,,,,,,,,,,,,,,,,,,,,,,,,,,,,,,,,,,,,,,,,,,,,,,,,,,,,,,,,,,,,
0,33,33,3,1,,615444f0b14488e2b0eb13fa,62bbfa9aa22562605f507257,2022-06-29_09h09.31.330,Colour_Asymmetry_Pilot,2022.1.3,Win32,60.02040694,62bbe60bf3d75ef465d3e404,,,,,,,,,,,,,,,,,,,,,,,,,,,,,,,,,,,,,,,,,,,,,,,,,,,,,,,,,,,,,,,,,,,,,,,,,,,,,,,,,,,,,,,,,,,,,,,,,,,,,,,,,,,,,,,,,,,,,,,,,,,,,,,,,,,,,,,,,,,,,,,,,,,,,,,,,,,,,,
0,34,34,62,1,,615444f0b14488e2b0eb13fa,62bbfa9aa22562605f507257,2022-06-29_09h09.31.330,Colour_Asymmetry_Pilot,2022.1.3,Win32,60.02040694,62bbe60bf3d75ef465d3e404,,,,,,,,,,,,,,,,,,,,,,,,,,,,,,,,,,,,,,,,,,,,,,,,,,,,,,,,,,,,,,,,,,,,,,,,,,,,,,,,,,,,,,,,,,,,,,,,,,,,,,,,,,,,,,,,,,,,,,,,,,,,,,,,,,,,,,,,,,,,,,,,,,,,,,,,,,,,,,
0,35,35,8,1,,615444f0b14488e2b0eb13fa,62bbfa9aa22562605f507257,2022-06-29_09h09.31.330,Colour_Asymmetry_Pilot,2022.1.3,Win32,60.02040694,62bbe60bf3d75ef465d3e404,,,,,,,,,,,,,,,,,,,,,,,,,,,,,,,,,,,,,,,,,,,,,,,,,,,,,,,,,,,,,,,,,,,,,,,,,,,,,,,,,,,,,,,,,,,,,,,,,,,,,,,,,,,,,,,,,,,,,,,,,,,,,,,,,,,,,,,,,,,,,,,,,,,,,,,,,,,,,,
0,36,36,51,1,,615444f0b14488e2b0eb13fa,62bbfa9aa22562605f507257,2022-06-29_09h09.31.330,Colour_Asymmetry_Pilot,2022.1.3,Win32,60.02040694,62bbe60bf3d75ef465d3e404,,,,,,,,,,,,,,,,,,,,,,,,,,,,,,,,,,,,,,,,,,,,,,,,,,,,,,,,,,,,,,,,,,,,,,,,,,,,,,,,,,,,,,,,,,,,,,,,,,,,,,,,,,,,,,,,,,,,,,,,,,,,,,,,,,,,,,,,,,,,,,,,,,,,,,,,,,,,,,
0,37,37,45,1,,615444f0b14488e2b0eb13fa,62bbfa9aa22562605f507257,2022-06-29_09h09.31.330,Colour_Asymmetry_Pilot,2022.1.3,Win32,60.02040694,62bbe60bf3d75ef465d3e404,,,,,,,,,,,,,,,,,,,,,,,,,,,,,,,,,,,,,,,,,,,,,,,,,,,,,,,,,,,,,,,,,,,,,,,,,,,,,,,,,,,,,,,,,,,,,,,,,,,,,,,,,,,,,,,,,,,,,,,,,,,,,,,,,,,,,,,,,,,,,,,,,,,,,,,,,,,,,,
0,38,38,12,1,,615444f0b14488e2b0eb13fa,62bbfa9aa22562605f507257,2022-06-29_09h09.31.330,Colour_Asymmetry_Pilot,2022.1.3,Win32,60.02040694,62bbe60bf3d75ef465d3e404,,,,,,,,,,,,,,,,,,,,,,,,,,,,,,,,,,,,,,,,,,,,,,,,,,,,,,,,,,,,,,,,,,,,,,,,,,,,,,,,,,,,,,,,,,,,,,,,,,,,,,,,,,,,,,,,,,,,,,,,,,,,,,,,,,,,,,,,,,,,,,,,,,,,,,,,,,,,,,
0,39,39,33,1,,615444f0b14488e2b0eb13fa,62bbfa9aa22562605f507257,2022-06-29_09h09.31.330,Colour_Asymmetry_Pilot,2022.1.3,Win32,60.02040694,62bbe60bf3d75ef465d3e404,,,,,,,,,,,,,,,,,,,,,,,,,,,,,,,,,,,,,,,,,,,,,,,,,,,,,,,,,,,,,,,,,,,,,,,,,,,,,,,,,,,,,,,,,,,,,,,,,,,,,,,,,,,,,,,,,,,,,,,,,,,,,,,,,,,,,,,,,,,,,,,,,,,,,,,,,,,,,,
0,40,40,40,1,,615444f0b14488e2b0eb13fa,62bbfa9aa22562605f507257,2022-06-29_09h09.31.330,Colour_Asymmetry_Pilot,2022.1.3,Win32,60.02040694,62bbe60bf3d75ef465d3e404,,,,,,,,,,,,,,,,,,,,,,,,,,,,,,,,,,,,,,,,,,,,,,,,,,,,,,,,,,,,,,,,,,,,,,,,,,,,,,,,,,,,,,,,,,,,,,,,,,,,,,,,,,,,,,,,,,,,,,,,,,,,,,,,,,,,,,,,,,,,,,,,,,,,,,,,,,,,,,
0,41,41,59,1,,615444f0b14488e2b0eb13fa,62bbfa9aa22562605f507257,2022-06-29_09h09.31.330,Colour_Asymmetry_Pilot,2022.1.3,Win32,60.02040694,62bbe60bf3d75ef465d3e404,,,,,,,,,,,,,,,,,,,,,,,,,,,,,,,,,,,,,,,,,,,,,,,,,,,,,,,,,,,,,,,,,,,,,,,,,,,,,,,,,,,,,,,,,,,,,,,,,,,,,,,,,,,,,,,,,,,,,,,,,,,,,,,,,,,,,,,,,,,,,,,,,,,,,,,,,,,,,,
0,42,42,57,1,,615444f0b14488e2b0eb13fa,62bbfa9aa22562605f507257,2022-06-29_09h09.31.330,Colour_Asymmetry_Pilot,2022.1.3,Win32,60.02040694,62bbe60bf3d75ef465d3e404,,,,,,,,,,,,,,,,,,,,,,,,,,,,,,,,,,,,,,,,,,,,,,,,,,,,,,,,,,,,,,,,,,,,,,,,,,,,,,,,,,,,,,,,,,,,,,,,,,,,,,,,,,,,,,,,,,,,,,,,,,,,,,,,,,,,,,,,,,,,,,,,,,,,,,,,,,,,,,
0,43,43,63,1,,615444f0b14488e2b0eb13fa,62bbfa9aa22562605f507257,2022-06-29_09h09.31.330,Colour_Asymmetry_Pilot,2022.1.3,Win32,60.02040694,62bbe60bf3d75ef465d3e404,,,,,,,,,,,,,,,,,,,,,,,,,,,,,,,,,,,,,,,,,,,,,,,,,,,,,,,,,,,,,,,,,,,,,,,,,,,,,,,,,,,,,,,,,,,,,,,,,,,,,,,,,,,,,,,,,,,,,,,,,,,,,,,,,,,,,,,,,,,,,,,,,,,,,,,,,,,,,,
0,44,44,41,1,,615444f0b14488e2b0eb13fa,62bbfa9aa22562605f507257,2022-06-29_09h09.31.330,Colour_Asymmetry_Pilot,2022.1.3,Win32,60.02040694,62bbe60bf3d75ef465d3e404,,,,,,,,,,,,,,,,,,,,,,,,,,,,,,,,,,,,,,,,,,,,,,,,,,,,,,,,,,,,,,,,,,,,,,,,,,,,,,,,,,,,,,,,,,,,,,,,,,,,,,,,,,,,,,,,,,,,,,,,,,,,,,,,,,,,,,,,,,,,,,,,,,,,,,,,,,,,,,
0,45,45,67,1,,615444f0b14488e2b0eb13fa,62bbfa9aa22562605f507257,2022-06-29_09h09.31.330,Colour_Asymmetry_Pilot,2022.1.3,Win32,60.02040694,62bbe60bf3d75ef465d3e404,,,,,,,,,,,,,,,,,,,,,,,,,,,,,,,,,,,,,,,,,,,,,,,,,,,,,,,,,,,,,,,,,,,,,,,,,,,,,,,,,,,,,,,,,,,,,,,,,,,,,,,,,,,,,,,,,,,,,,,,,,,,,,,,,,,,,,,,,,,,,,,,,,,,,,,,,,,,,,
0,46,46,79,1,,615444f0b14488e2b0eb13fa,62bbfa9aa22562605f507257,2022-06-29_09h09.31.330,Colour_Asymmetry_Pilot,2022.1.3,Win32,60.02040694,62bbe60bf3d75ef465d3e404,,,,,,,,,,,,,,,,,,,,,,,,,,,,,,,,,,,,,,,,,,,,,,,,,,,,,,,,,,,,,,,,,,,,,,,,,,,,,,,,,,,,,,,,,,,,,,,,,,,,,,,,,,,,,,,,,,,,,,,,,,,,,,,,,,,,,,,,,,,,,,,,,,,,,,,,,,,,,,
0,47,47,5,1,,615444f0b14488e2b0eb13fa,62bbfa9aa22562605f507257,2022-06-29_09h09.31.330,Colour_Asymmetry_Pilot,2022.1.3,Win32,60.02040694,62bbe60bf3d75ef465d3e404,,,,,,,,,,,,,,,,,,,,,,,,,,,,,,,,,,,,,,,,,,,,,,,,,,,,,,,,,,,,,,,,,,,,,,,,,,,,,,,,,,,,,,,,,,,,,,,,,,,,,,,,,,,,,,,,,,,,,,,,,,,,,,,,,,,,,,,,,,,,,,,,,,,,,,,,,,,,,,
0,48,48,21,1,,615444f0b14488e2b0eb13fa,62bbfa9aa22562605f507257,2022-06-29_09h09.31.330,Colour_Asymmetry_Pilot,2022.1.3,Win32,60.02040694,62bbe60bf3d75ef465d3e404,,,,,,,,,,,,,,,,,,,,,,,,,,,,,,,,,,,,,,,,,,,,,,,,,,,,,,,,,,,,,,,,,,,,,,,,,,,,,,,,,,,,,,,,,,,,,,,,,,,,,,,,,,,,,,,,,,,,,,,,,,,,,,,,,,,,,,,,,,,,,,,,,,,,,,,,,,,,,,
0,49,49,56,1,,615444f0b14488e2b0eb13fa,62bbfa9aa22562605f507257,2022-06-29_09h09.31.330,Colour_Asymmetry_Pilot,2022.1.3,Win32,60.02040694,62bbe60bf3d75ef465d3e404,,,,,,,,,,,,,,,,,,,,,,,,,,,,,,,,,,,,,,,,,,,,,,,,,,,,,,,,,,,,,,,,,,,,,,,,,,,,,,,,,,,,,,,,,,,,,,,,,,,,,,,,,,,,,,,,,,,,,,,,,,,,,,,,,,,,,,,,,,,,,,,,,,,,,,,,,,,,,,
0,50,50,1,1,,615444f0b14488e2b0eb13fa,62bbfa9aa22562605f507257,2022-06-29_09h09.31.330,Colour_Asymmetry_Pilot,2022.1.3,Win32,60.02040694,62bbe60bf3d75ef465d3e404,,,,,,,,,,,,,,,,,,,,,,,,,,,,,,,,,,,,,,,,,,,,,,,,,,,,,,,,,,,,,,,,,,,,,,,,,,,,,,,,,,,,,,,,,,,,,,,,,,,,,,,,,,,,,,,,,,,,,,,,,,,,,,,,,,,,,,,,,,,,,,,,,,,,,,,,,,,,,,
0,51,51,70,1,,615444f0b14488e2b0eb13fa,62bbfa9aa22562605f507257,2022-06-29_09h09.31.330,Colour_Asymmetry_Pilot,2022.1.3,Win32,60.02040694,62bbe60bf3d75ef465d3e404,,,,,,,,,,,,,,,,,,,,,,,,,,,,,,,,,,,,,,,,,,,,,,,,,,,,,,,,,,,,,,,,,,,,,,,,,,,,,,,,,,,,,,,,,,,,,,,,,,,,,,,,,,,,,,,,,,,,,,,,,,,,,,,,,,,,,,,,,,,,,,,,,,,,,,,,,,,,,,
0,52,52,61,1,,615444f0b14488e2b0eb13fa,62bbfa9aa22562605f507257,2022-06-29_09h09.31.330,Colour_Asymmetry_Pilot,2022.1.3,Win32,60.02040694,62bbe60bf3d75ef465d3e404,,,,,,,,,,,,,,,,,,,,,,,,,,,,,,,,,,,,,,,,,,,,,,,,,,,,,,,,,,,,,,,,,,,,,,,,,,,,,,,,,,,,,,,,,,,,,,,,,,,,,,,,,,,,,,,,,,,,,,,,,,,,,,,,,,,,,,,,,,,,,,,,,,,,,,,,,,,,,,
0,53,53,72,1,,615444f0b14488e2b0eb13fa,62bbfa9aa22562605f507257,2022-06-29_09h09.31.330,Colour_Asymmetry_Pilot,2022.1.3,Win32,60.02040694,62bbe60bf3d75ef465d3e404,,,,,,,,,,,,,,,,,,,,,,,,,,,,,,,,,,,,,,,,,,,,,,,,,,,,,,,,,,,,,,,,,,,,,,,,,,,,,,,,,,,,,,,,,,,,,,,,,,,,,,,,,,,,,,,,,,,,,,,,,,,,,,,,,,,,,,,,,,,,,,,,,,,,,,,,,,,,,,
0,54,54,88,1,,615444f0b14488e2b0eb13fa,62bbfa9aa22562605f507257,2022-06-29_09h09.31.330,Colour_Asymmetry_Pilot,2022.1.3,Win32,60.02040694,62bbe60bf3d75ef465d3e404,,,,,,,,,,,,,,,,,,,,,,,,,,,,,,,,,,,,,,,,,,,,,,,,,,,,,,,,,,,,,,,,,,,,,,,,,,,,,,,,,,,,,,,,,,,,,,,,,,,,,,,,,,,,,,,,,,,,,,,,,,,,,,,,,,,,,,,,,,,,,,,,,,,,,,,,,,,,,,
0,55,55,64,1,,615444f0b14488e2b0eb13fa,62bbfa9aa22562605f507257,2022-06-29_09h09.31.330,Colour_Asymmetry_Pilot,2022.1.3,Win32,60.02040694,62bbe60bf3d75ef465d3e404,,,,,,,,,,,,,,,,,,,,,,,,,,,,,,,,,,,,,,,,,,,,,,,,,,,,,,,,,,,,,,,,,,,,,,,,,,,,,,,,,,,,,,,,,,,,,,,,,,,,,,,,,,,,,,,,,,,,,,,,,,,,,,,,,,,,,,,,,,,,,,,,,,,,,,,,,,,,,,
0,56,56,49,1,,615444f0b14488e2b0eb13fa,62bbfa9aa22562605f507257,2022-06-29_09h09.31.330,Colour_Asymmetry_Pilot,2022.1.3,Win32,60.02040694,62bbe60bf3d75ef465d3e404,,,,,,,,,,,,,,,,,,,,,,,,,,,,,,,,,,,,,,,,,,,,,,,,,,,,,,,,,,,,,,,,,,,,,,,,,,,,,,,,,,,,,,,,,,,,,,,,,,,,,,,,,,,,,,,,,,,,,,,,,,,,,,,,,,,,,,,,,,,,,,,,,,,,,,,,,,,,,,
0,57,57,24,1,,615444f0b14488e2b0eb13fa,62bbfa9aa22562605f507257,2022-06-29_09h09.31.330,Colour_Asymmetry_Pilot,2022.1.3,Win32,60.02040694,62bbe60bf3d75ef465d3e404,,,,,,,,,,,,,,,,,,,,,,,,,,,,,,,,,,,,,,,,,,,,,,,,,,,,,,,,,,,,,,,,,,,,,,,,,,,,,,,,,,,,,,,,,,,,,,,,,,,,,,,,,,,,,,,,,,,,,,,,,,,,,,,,,,,,,,,,,,,,,,,,,,,,,,,,,,,,,,
0,58,58,48,1,,615444f0b14488e2b0eb13fa,62bbfa9aa22562605f507257,2022-06-29_09h09.31.330,Colour_Asymmetry_Pilot,2022.1.3,Win32,60.02040694,62bbe60bf3d75ef465d3e404,,,,,,,,,,,,,,,,,,,,,,,,,,,,,,,,,,,,,,,,,,,,,,,,,,,,,,,,,,,,,,,,,,,,,,,,,,,,,,,,,,,,,,,,,,,,,,,,,,,,,,,,,,,,,,,,,,,,,,,,,,,,,,,,,,,,,,,,,,,,,,,,,,,,,,,,,,,,,,
0,59,59,85,1,,615444f0b14488e2b0eb13fa,62bbfa9aa22562605f507257,2022-06-29_09h09.31.330,Colour_Asymmetry_Pilot,2022.1.3,Win32,60.02040694,62bbe60bf3d75ef465d3e404,,,,,,,,,,,,,,,,,,,,,,,,,,,,,,,,,,,,,,,,,,,,,,,,,,,,,,,,,,,,,,,,,,,,,,,,,,,,,,,,,,,,,,,,,,,,,,,,,,,,,,,,,,,,,,,,,,,,,,,,,,,,,,,,,,,,,,,,,,,,,,,,,,,,,,,,,,,,,,
0,60,60,20,1,,615444f0b14488e2b0eb13fa,62bbfa9aa22562605f507257,2022-06-29_09h09.31.330,Colour_Asymmetry_Pilot,2022.1.3,Win32,60.02040694,62bbe60bf3d75ef465d3e404,,,,,,,,,,,,,,,,,,,,,,,,,,,,,,,,,,,,,,,,,,,,,,,,,,,,,,,,,,,,,,,,,,,,,,,,,,,,,,,,,,,,,,,,,,,,,,,,,,,,,,,,,,,,,,,,,,,,,,,,,,,,,,,,,,,,,,,,,,,,,,,,,,,,,,,,,,,,,,
0,61,61,80,1,,615444f0b14488e2b0eb13fa,62bbfa9aa22562605f507257,2022-06-29_09h09.31.330,Colour_Asymmetry_Pilot,2022.1.3,Win32,60.02040694,62bbe60bf3d75ef465d3e404,,,,,,,,,,,,,,,,,,,,,,,,,,,,,,,,,,,,,,,,,,,,,,,,,,,,,,,,,,,,,,,,,,,,,,,,,,,,,,,,,,,,,,,,,,,,,,,,,,,,,,,,,,,,,,,,,,,,,,,,,,,,,,,,,,,,,,,,,,,,,,,,,,,,,,,,,,,,,,
0,62,62,17,1,,615444f0b14488e2b0eb13fa,62bbfa9aa22562605f507257,2022-06-29_09h09.31.330,Colour_Asymmetry_Pilot,2022.1.3,Win32,60.02040694,62bbe60bf3d75ef465d3e404,,,,,,,,,,,,,,,,,,,,,,,,,,,,,,,,,,,,,,,,,,,,,,,,,,,,,,,,,,,,,,,,,,,,,,,,,,,,,,,,,,,,,,,,,,,,,,,,,,,,,,,,,,,,,,,,,,,,,,,,,,,,,,,,,,,,,,,,,,,,,,,,,,,,,,,,,,,,,,
0,63,63,39,1,,615444f0b14488e2b0eb13fa,62bbfa9aa22562605f507257,2022-06-29_09h09.31.330,Colour_Asymmetry_Pilot,2022.1.3,Win32,60.02040694,62bbe60bf3d75ef465d3e404,,,,,,,,,,,,,,,,,,,,,,,,,,,,,,,,,,,,,,,,,,,,,,,,,,,,,,,,,,,,,,,,,,,,,,,,,,,,,,,,,,,,,,,,,,,,,,,,,,,,,,,,,,,,,,,,,,,,,,,,,,,,,,,,,,,,,,,,,,,,,,,,,,,,,,,,,,,,,,
0,64,64,4,1,,615444f0b14488e2b0eb13fa,62bbfa9aa22562605f507257,2022-06-29_09h09.31.330,Colour_Asymmetry_Pilot,2022.1.3,Win32,60.02040694,62bbe60bf3d75ef465d3e404,,,,,,,,,,,,,,,,,,,,,,,,,,,,,,,,,,,,,,,,,,,,,,,,,,,,,,,,,,,,,,,,,,,,,,,,,,,,,,,,,,,,,,,,,,,,,,,,,,,,,,,,,,,,,,,,,,,,,,,,,,,,,,,,,,,,,,,,,,,,,,,,,,,,,,,,,,,,,,
0,65,65,77,1,,615444f0b14488e2b0eb13fa,62bbfa9aa22562605f507257,2022-06-29_09h09.31.330,Colour_Asymmetry_Pilot,2022.1.3,Win32,60.02040694,62bbe60bf3d75ef465d3e404,,,,,,,,,,,,,,,,,,,,,,,,,,,,,,,,,,,,,,,,,,,,,,,,,,,,,,,,,,,,,,,,,,,,,,,,,,,,,,,,,,,,,,,,,,,,,,,,,,,,,,,,,,,,,,,,,,,,,,,,,,,,,,,,,,,,,,,,,,,,,,,,,,,,,,,,,,,,,,
0,66,66,35,1,,615444f0b14488e2b0eb13fa,62bbfa9aa22562605f507257,2022-06-29_09h09.31.330,Colour_Asymmetry_Pilot,2022.1.3,Win32,60.02040694,62bbe60bf3d75ef465d3e404,,,,,,,,,,,,,,,,,,,,,,,,,,,,,,,,,,,,,,,,,,,,,,,,,,,,,,,,,,,,,,,,,,,,,,,,,,,,,,,,,,,,,,,,,,,,,,,,,,,,,,,,,,,,,,,,,,,,,,,,,,,,,,,,,,,,,,,,,,,,,,,,,,,,,,,,,,,,,,
0,67,67,81,1,,615444f0b14488e2b0eb13fa,62bbfa9aa22562605f507257,2022-06-29_09h09.31.330,Colour_Asymmetry_Pilot,2022.1.3,Win32,60.02040694,62bbe60bf3d75ef465d3e404,,,,,,,,,,,,,,,,,,,,,,,,,,,,,,,,,,,,,,,,,,,,,,,,,,,,,,,,,,,,,,,,,,,,,,,,,,,,,,,,,,,,,,,,,,,,,,,,,,,,,,,,,,,,,,,,,,,,,,,,,,,,,,,,,,,,,,,,,,,,,,,,,,,,,,,,,,,,,,
0,68,68,16,1,,615444f0b14488e2b0eb13fa,62bbfa9aa22562605f507257,2022-06-29_09h09.31.330,Colour_Asymmetry_Pilot,2022.1.3,Win32,60.02040694,62bbe60bf3d75ef465d3e404,,,,,,,,,,,,,,,,,,,,,,,,,,,,,,,,,,,,,,,,,,,,,,,,,,,,,,,,,,,,,,,,,,,,,,,,,,,,,,,,,,,,,,,,,,,,,,,,,,,,,,,,,,,,,,,,,,,,,,,,,,,,,,,,,,,,,,,,,,,,,,,,,,,,,,,,,,,,,,
0,69,69,29,1,,615444f0b14488e2b0eb13fa,62bbfa9aa22562605f507257,2022-06-29_09h09.31.330,Colour_Asymmetry_Pilot,2022.1.3,Win32,60.02040694,62bbe60bf3d75ef465d3e404,,,,,,,,,,,,,,,,,,,,,,,,,,,,,,,,,,,,,,,,,,,,,,,,,,,,,,,,,,,,,,,,,,,,,,,,,,,,,,,,,,,,,,,,,,,,,,,,,,,,,,,,,,,,,,,,,,,,,,,,,,,,,,,,,,,,,,,,,,,,,,,,,,,,,,,,,,,,,,
0,70,70,53,1,,615444f0b14488e2b0eb13fa,62bbfa9aa22562605f507257,2022-06-29_09h09.31.330,Colour_Asymmetry_Pilot,2022.1.3,Win32,60.02040694,62bbe60bf3d75ef465d3e404,,,,,,,,,,,,,,,,,,,,,,,,,,,,,,,,,,,,,,,,,,,,,,,,,,,,,,,,,,,,,,,,,,,,,,,,,,,,,,,,,,,,,,,,,,,,,,,,,,,,,,,,,,,,,,,,,,,,,,,,,,,,,,,,,,,,,,,,,,,,,,,,,,,,,,,,,,,,,,
0,71,71,26,1,,615444f0b14488e2b0eb13fa,62bbfa9aa22562605f507257,2022-06-29_09h09.31.330,Colour_Asymmetry_Pilot,2022.1.3,Win32,60.02040694,62bbe60bf3d75ef465d3e404,,,,,,,,,,,,,,,,,,,,,,,,,,,,,,,,,,,,,,,,,,,,,,,,,,,,,,,,,,,,,,,,,,,,,,,,,,,,,,,,,,,,,,,,,,,,,,,,,,,,,,,,,,,,,,,,,,,,,,,,,,,,,,,,,,,,,,,,,,,,,,,,,,,,,,,,,,,,,,
0,72,72,87,1,,615444f0b14488e2b0eb13fa,62bbfa9aa22562605f507257,2022-06-29_09h09.31.330,Colour_Asymmetry_Pilot,2022.1.3,Win32,60.02040694,62bbe60bf3d75ef465d3e404,,,,,,,,,,,,,,,,,,,,,,,,,,,,,,,,,,,,,,,,,,,,,,,,,,,,,,,,,,,,,,,,,,,,,,,,,,,,,,,,,,,,,,,,,,,,,,,,,,,,,,,,,,,,,,,,,,,,,,,,,,,,,,,,,,,,,,,,,,,,,,,,,,,,,,,,,,,,,,
0,73,73,47,1,,615444f0b14488e2b0eb13fa,62bbfa9aa22562605f507257,2022-06-29_09h09.31.330,Colour_Asymmetry_Pilot,2022.1.3,Win32,60.02040694,62bbe60bf3d75ef465d3e404,,,,,,,,,,,,,,,,,,,,,,,,,,,,,,,,,,,,,,,,,,,,,,,,,,,,,,,,,,,,,,,,,,,,,,,,,,,,,,,,,,,,,,,,,,,,,,,,,,,,,,,,,,,,,,,,,,,,,,,,,,,,,,,,,,,,,,,,,,,,,,,,,,,,,,,,,,,,,,
0,74,74,19,1,,615444f0b14488e2b0eb13fa,62bbfa9aa22562605f507257,2022-06-29_09h09.31.330,Colour_Asymmetry_Pilot,2022.1.3,Win32,60.02040694,62bbe60bf3d75ef465d3e404,,,,,,,,,,,,,,,,,,,,,,,,,,,,,,,,,,,,,,,,,,,,,,,,,,,,,,,,,,,,,,,,,,,,,,,,,,,,,,,,,,,,,,,,,,,,,,,,,,,,,,,,,,,,,,,,,,,,,,,,,,,,,,,,,,,,,,,,,,,,,,,,,,,,,,,,,,,,,,
0,75,75,11,1,,615444f0b14488e2b0eb13fa,62bbfa9aa22562605f507257,2022-06-29_09h09.31.330,Colour_Asymmetry_Pilot,2022.1.3,Win32,60.02040694,62bbe60bf3d75ef465d3e404,,,,,,,,,,,,,,,,,,,,,,,,,,,,,,,,,,,,,,,,,,,,,,,,,,,,,,,,,,,,,,,,,,,,,,,,,,,,,,,,,,,,,,,,,,,,,,,,,,,,,,,,,,,,,,,,,,,,,,,,,,,,,,,,,,,,,,,,,,,,,,,,,,,,,,,,,,,,,,
0,76,76,23,1,,615444f0b14488e2b0eb13fa,62bbfa9aa22562605f507257,2022-06-29_09h09.31.330,Colour_Asymmetry_Pilot,2022.1.3,Win32,60.02040694,62bbe60bf3d75ef465d3e404,,,,,,,,,,,,,,,,,,,,,,,,,,,,,,,,,,,,,,,,,,,,,,,,,,,,,,,,,,,,,,,,,,,,,,,,,,,,,,,,,,,,,,,,,,,,,,,,,,,,,,,,,,,,,,,,,,,,,,,,,,,,,,,,,,,,,,,,,,,,,,,,,,,,,,,,,,,,,,
0,77,77,84,1,,615444f0b14488e2b0eb13fa,62bbfa9aa22562605f507257,2022-06-29_09h09.31.330,Colour_Asymmetry_Pilot,2022.1.3,Win32,60.02040694,62bbe60bf3d75ef465d3e404,,,,,,,,,,,,,,,,,,,,,,,,,,,,,,,,,,,,,,,,,,,,,,,,,,,,,,,,,,,,,,,,,,,,,,,,,,,,,,,,,,,,,,,,,,,,,,,,,,,,,,,,,,,,,,,,,,,,,,,,,,,,,,,,,,,,,,,,,,,,,,,,,,,,,,,,,,,,,,
0,78,78,86,1,,615444f0b14488e2b0eb13fa,62bbfa9aa22562605f507257,2022-06-29_09h09.31.330,Colour_Asymmetry_Pilot,2022.1.3,Win32,60.02040694,62bbe60bf3d75ef465d3e404,,,,,,,,,,,,,,,,,,,,,,,,,,,,,,,,,,,,,,,,,,,,,,,,,,,,,,,,,,,,,,,,,,,,,,,,,,,,,,,,,,,,,,,,,,,,,,,,,,,,,,,,,,,,,,,,,,,,,,,,,,,,,,,,,,,,,,,,,,,,,,,,,,,,,,,,,,,,,,
0,79,79,52,1,,615444f0b14488e2b0eb13fa,62bbfa9aa22562605f507257,2022-06-29_09h09.31.330,Colour_Asymmetry_Pilot,2022.1.3,Win32,60.02040694,62bbe60bf3d75ef465d3e404,,,,,,,,,,,,,,,,,,,,,,,,,,,,,,,,,,,,,,,,,,,,,,,,,,,,,,,,,,,,,,,,,,,,,,,,,,,,,,,,,,,,,,,,,,,,,,,,,,,,,,,,,,,,,,,,,,,,,,,,,,,,,,,,,,,,,,,,,,,,,,,,,,,,,,,,,,,,,,
0,80,80,54,1,,615444f0b14488e2b0eb13fa,62bbfa9aa22562605f507257,2022-06-29_09h09.31.330,Colour_Asymmetry_Pilot,2022.1.3,Win32,60.02040694,62bbe60bf3d75ef465d3e404,,,,,,,,,,,,,,,,,,,,,,,,,,,,,,,,,,,,,,,,,,,,,,,,,,,,,,,,,,,,,,,,,,,,,,,,,,,,,,,,,,,,,,,,,,,,,,,,,,,,,,,,,,,,,,,,,,,,,,,,,,,,,,,,,,,,,,,,,,,,,,,,,,,,,,,,,,,,,,
0,81,81,6,1,,615444f0b14488e2b0eb13fa,62bbfa9aa22562605f507257,2022-06-29_09h09.31.330,Colour_Asymmetry_Pilot,2022.1.3,Win32,60.02040694,62bbe60bf3d75ef465d3e404,,,,,,,,,,,,,,,,,,,,,,,,,,,,,,,,,,,,,,,,,,,,,,,,,,,,,,,,,,,,,,,,,,,,,,,,,,,,,,,,,,,,,,,,,,,,,,,,,,,,,,,,,,,,,,,,,,,,,,,,,,,,,,,,,,,,,,,,,,,,,,,,,,,,,,,,,,,,,,
0,82,82,13,1,,615444f0b14488e2b0eb13fa,62bbfa9aa22562605f507257,2022-06-29_09h09.31.330,Colour_Asymmetry_Pilot,2022.1.3,Win32,60.02040694,62bbe60bf3d75ef465d3e404,,,,,,,,,,,,,,,,,,,,,,,,,,,,,,,,,,,,,,,,,,,,,,,,,,,,,,,,,,,,,,,,,,,,,,,,,,,,,,,,,,,,,,,,,,,,,,,,,,,,,,,,,,,,,,,,,,,,,,,,,,,,,,,,,,,,,,,,,,,,,,,,,,,,,,,,,,,,,,
0,83,83,89,1,,615444f0b14488e2b0eb13fa,62bbfa9aa22562605f507257,2022-06-29_09h09.31.330,Colour_Asymmetry_Pilot,2022.1.3,Win32,60.02040694,62bbe60bf3d75ef465d3e404,,,,,,,,,,,,,,,,,,,,,,,,,,,,,,,,,,,,,,,,,,,,,,,,,,,,,,,,,,,,,,,,,,,,,,,,,,,,,,,,,,,,,,,,,,,,,,,,,,,,,,,,,,,,,,,,,,,,,,,,,,,,,,,,,,,,,,,,,,,,,,,,,,,,,,,,,,,,,,
0,84,84,74,1,,615444f0b14488e2b0eb13fa,62bbfa9aa22562605f507257,2022-06-29_09h09.31.330,Colour_Asymmetry_Pilot,2022.1.3,Win32,60.02040694,62bbe60bf3d75ef465d3e404,,,,,,,,,,,,,,,,,,,,,,,,,,,,,,,,,,,,,,,,,,,,,,,,,,,,,,,,,,,,,,,,,,,,,,,,,,,,,,,,,,,,,,,,,,,,,,,,,,,,,,,,,,,,,,,,,,,,,,,,,,,,,,,,,,,,,,,,,,,,,,,,,,,,,,,,,,,,,,
0,85,85,7,1,,615444f0b14488e2b0eb13fa,62bbfa9aa22562605f507257,2022-06-29_09h09.31.330,Colour_Asymmetry_Pilot,2022.1.3,Win32,60.02040694,62bbe60bf3d75ef465d3e404,,,,,,,,,,,,,,,,,,,,,,,,,,,,,,,,,,,,,,,,,,,,,,,,,,,,,,,,,,,,,,,,,,,,,,,,,,,,,,,,,,,,,,,,,,,,,,,,,,,,,,,,,,,,,,,,,,,,,,,,,,,,,,,,,,,,,,,,,,,,,,,,,,,,,,,,,,,,,,
0,86,86,73,1,,615444f0b14488e2b0eb13fa,62bbfa9aa22562605f507257,2022-06-29_09h09.31.330,Colour_Asymmetry_Pilot,2022.1.3,Win32,60.02040694,62bbe60bf3d75ef465d3e404,,,,,,,,,,,,,,,,,,,,,,,,,,,,,,,,,,,,,,,,,,,,,,,,,,,,,,,,,,,,,,,,,,,,,,,,,,,,,,,,,,,,,,,,,,,,,,,,,,,,,,,,,,,,,,,,,,,,,,,,,,,,,,,,,,,,,,,,,,,,,,,,,,,,,,,,,,,,,,
0,87,87,2,1,,615444f0b14488e2b0eb13fa,62bbfa9aa22562605f507257,2022-06-29_09h09.31.330,Colour_Asymmetry_Pilot,2022.1.3,Win32,60.02040694,62bbe60bf3d75ef465d3e404,,,,,,,,,,,,,,,,,,,,,,,,,,,,,,,,,,,,,,,,,,,,,,,,,,,,,,,,,,,,,,,,,,,,,,,,,,,,,,,,,,,,,,,,,,,,,,,,,,,,,,,,,,,,,,,,,,,,,,,,,,,,,,,,,,,,,,,,,,,,,,,,,,,,,,,,,,,,,,
0,88,88,37,1,,615444f0b14488e2b0eb13fa,62bbfa9aa22562605f507257,2022-06-29_09h09.31.330,Colour_Asymmetry_Pilot,2022.1.3,Win32,60.02040694,62bbe60bf3d75ef465d3e404,,,,,,,,,,,,,,,,,,,,,,,,,,,,,,,,,,,,,,,,,,,,,,,,,,,,,,,,,,,,,,,,,,,,,,,,,,,,,,,,,,,,,,,,,,,,,,,,,,,,,,,,,,,,,,,,,,,,,,,,,,,,,,,,,,,,,,,,,,,,,,,,,,,,,,,,,,,,,,
0,89,89,66,1,,615444f0b14488e2b0eb13fa,62bbfa9aa22562605f507257,2022-06-29_09h09.31.330,Colour_Asymmetry_Pilot,2022.1.3,Win32,60.02040694,62bbe60bf3d75ef465d3e404,,,,,,,,,,,,,,,,,,,,,,,,,,,,,,,,,,,,,,,,,,,,,,,,,,,,,,,,,,,,,,,,,,,,,,,,,,,,,,,,,,,,,,,,,,,,,,,,,,,,,,,,,,,,,,,,,,,,,,,,,,,,,,,,,,,,,,,,,,,,,,,,,,,,,,,,,,,,,,
0,90,90,82,1,,615444f0b14488e2b0eb13fa,62bbfa9aa22562605f507257,2022-06-29_09h09.31.330,Colour_Asymmetry_Pilot,2022.1.3,Win32,60.02040694,62bbe60bf3d75ef465d3e404,,,,,,,,,,,,,,,,,,,,,,,,,,,,,,,,,,,,,,,,,,,,,,,,,,,,,,,,,,,,,,,,,,,,,,,,,,,,,,,,,,,,,,,,,,,,,,,,,,,,,,,,,,,,,,,,,,,,,,,,,,,,,,,,,,,,,,,,,,,,,,,,,,,,,,,,,,,,,,
0,91,91,15,1,,615444f0b14488e2b0eb13fa,62bbfa9aa22562605f507257,2022-06-29_09h09.31.330,Colour_Asymmetry_Pilot,2022.1.3,Win32,60.02040694,62bbe60bf3d75ef465d3e404,,,,,,,,,,,,,,,,,,,,,,,,,,,,,,,,,,,,,,,,,,,,,,,,,,,,,,,,,,,,,,,,,,,,,,,,,,,,,,,,,,,,,,,,,,,,,,,,,,,,,,,,,,,,,,,,,,,,,,,,,,,,,,,,,,,,,,,,,,,,,,,,,,,,,,,,,,,,,,
0,92,92,92,1,,615444f0b14488e2b0eb13fa,62bbfa9aa22562605f507257,2022-06-29_09h09.31.330,Colour_Asymmetry_Pilot,2022.1.3,Win32,60.02040694,62bbe60bf3d75ef465d3e404,,,,,,,,,,,,,,,,,,,,,,,,,,,,,,,,,,,,,,,,,,,,,,,,,,,,,,,,,,,,,,,,,,,,,,,,,,,,,,,,,,,,,,,,,,,,,,,,,,,,,,,,,,,,,,,,,,,,,,,,,,,,,,,,,,,,,,,,,,,,,,,,,,,,,,,,,,,,,,
,,,,,,615444f0b14488e2b0eb13fa,62bbfa9aa22562605f507257,2022-06-29_09h09.31.330,Colour_Asymmetry_Pilot,2022.1.3,Win32,60.02040694,62bbe60bf3d75ef465d3e404,0,0,0,147,1,twofour,,,,,,,,,,,,,,,,,,,,,,,,,,,,,,,,,,,,,,,,,,,,,,,,,,,,,,,,,,,,,,,,,,,,,,,,,,,,,,,,,,,,,,,,,,,,,,,,,,,,,,,,,,,,,,,,,,,,,,,,,,,,,,,,,,,,,,,,,,,,,,,,,,,,,,,,
,,,,,,615444f0b14488e2b0eb13fa,62bbfa9aa22562605f507257,2022-06-29_09h09.31.330,Colour_Asymmetry_Pilot,2022.1.3,Win32,60.02040694,62bbe60bf3d75ef465d3e404,0,1,1,27,1,twofour,,,,,,,,,,,,,,,,,,,,,,,,,,,,,,,,,,,,,,,,,,,,,,,,,,,,,,,,,,,,,,,,,,,,,,,,,,,,,,,,,,,,,,,,,,,,,,,,,,,,,,,,,,,,,,,,,,,,,,,,,,,,,,,,,,,,,,,,,,,,,,,,,,,,,,,,
,,,,,,615444f0b14488e2b0eb13fa,62bbfa9aa22562605f507257,2022-06-29_09h09.31.330,Colour_Asymmetry_Pilot,2022.1.3,Win32,60.02040694,62bbe60bf3d75ef465d3e404,0,2,2,146,1,twoone,,,,,,,,,,,,,,,,,,,,,,,,,,,,,,,,,,,,,,,,,,,,,,,,,,,,,,,,,,,,,,,,,,,,,,,,,,,,,,,,,,,,,,,,,,,,,,,,,,,,,,,,,,,,,,,,,,,,,,,,,,,,,,,,,,,,,,,,,,,,,,,,,,,,,,,,
,,,,,,615444f0b14488e2b0eb13fa,62bbfa9aa22562605f507257,2022-06-29_09h09.31.330,Colour_Asymmetry_Pilot,2022.1.3,Win32,60.02040694,62bbe60bf3d75ef465d3e404,0,3,3,116,1,threeone,,,,,,,,,,,,,,,,,,,,,,,,,,,,,,,,,,,,,,,,,,,,,,,,,,,,,,,,,,,,,,,,,,,,,,,,,,,,,,,,,,,,,,,,,,,,,,,,,,,,,,,,,,,,,,,,,,,,,,,,,,,,,,,,,,,,,,,,,,,,,,,,,,,,,,,,
,,,,,,615444f0b14488e2b0eb13fa,62bbfa9aa22562605f507257,2022-06-29_09h09.31.330,Colour_Asymmetry_Pilot,2022.1.3,Win32,60.02040694,62bbe60bf3d75ef465d3e404,0,4,4,34,1,twoone,,,,,,,,,,,,,,,,,,,,,,,,,,,,,,,,,,,,,,,,,,,,,,,,,,,,,,,,,,,,,,,,,,,,,,,,,,,,,,,,,,,,,,,,,,,,,,,,,,,,,,,,,,,,,,,,,,,,,,,,,,,,,,,,,,,,,,,,,,,,,,,,,,,,,,,,
,,,,,,615444f0b14488e2b0eb13fa,62bbfa9aa22562605f507257,2022-06-29_09h09.31.330,Colour_Asymmetry_Pilot,2022.1.3,Win32,60.02040694,62bbe60bf3d75ef465d3e404,0,5,5,145,1,onethree,,,,,,,,,,,,,,,,,,,,,,,,,,,,,,,,,,,,,,,,,,,,,,,,,,,,,,,,,,,,,,,,,,,,,,,,,,,,,,,,,,,,,,,,,,,,,,,,,,,,,,,,,,,,,,,,,,,,,,,,,,,,,,,,,,,,,,,,,,,,,,,,,,,,,,,,
,,,,,,615444f0b14488e2b0eb13fa,62bbfa9aa22562605f507257,2022-06-29_09h09.31.330,Colour_Asymmetry_Pilot,2022.1.3,Win32,60.02040694,62bbe60bf3d75ef465d3e404,0,6,6,26,1,twoone,,,,,,,,,,,,,,,,,,,,,,,,,,,,,,,,,,,,,,,,,,,,,,,,,,,,,,,,,,,,,,,,,,,,,,,,,,,,,,,,,,,,,,,,,,,,,,,,,,,,,,,,,,,,,,,,,,,,,,,,,,,,,,,,,,,,,,,,,,,,,,,,,,,,,,,,
,,,,,,615444f0b14488e2b0eb13fa,62bbfa9aa22562605f507257,2022-06-29_09h09.31.330,Colour_Asymmetry_Pilot,2022.1.3,Win32,60.02040694,62bbe60bf3d75ef465d3e404,0,7,7,76,1,threeone,,,,,,,,,,,,,,,,,,,,,,,,,,,,,,,,,,,,,,,,,,,,,,,,,,,,,,,,,,,,,,,,,,,,,,,,,,,,,,,,,,,,,,,,,,,,,,,,,,,,,,,,,,,,,,,,,,,,,,,,,,,,,,,,,,,,,,,,,,,,,,,,,,,,,,,,
,,,,,,615444f0b14488e2b0eb13fa,62bbfa9aa22562605f507257,2022-06-29_09h09.31.330,Colour_Asymmetry_Pilot,2022.1.3,Win32,60.02040694,62bbe60bf3d75ef465d3e404,0,8,8,75,1,twofour,,,,,,,,,,,,,,,,,,,,,,,,,,,,,,,,,,,,,,,,,,,,,,,,,,,,,,,,,,,,,,,,,,,,,,,,,,,,,,,,,,,,,,,,,,,,,,,,,,,,,,,,,,,,,,,,,,,,,,,,,,,,,,,,,,,,,,,,,,,,,,,,,,,,,,,,
,,,,,,615444f0b14488e2b0eb13fa,62bbfa9aa22562605f507257,2022-06-29_09h09.31.330,Colour_Asymmetry_Pilot,2022.1.3,Win32,60.02040694,62bbe60bf3d75ef465d3e404,0,9,9,54,1,fourtwo,,,,,,,,,,,,,,,,,,,,,,,,,,,,,,,,,,,,,,,,,,,,,,,,,,,,,,,,,,,,,,,,,,,,,,,,,,,,,,,,,,,,,,,,,,,,,,,,,,,,,,,,,,,,,,,,,,,,,,,,,,,,,,,,,,,,,,,,,,,,,,,,,,,,,,,,
,,,,,,615444f0b14488e2b0eb13fa,62bbfa9aa22562605f507257,2022-06-29_09h09.31.330,Colour_Asymmetry_Pilot,2022.1.3,Win32,60.02040694,62bbe60bf3d75ef465d3e404,0,10,10,81,1,onethree,,,,,,,,,,,,,,,,,,,,,,,,,,,,,,,,,,,,,,,,,,,,,,,,,,,,,,,,,,,,,,,,,,,,,,,,,,,,,,,,,,,,,,,,,,,,,,,,,,,,,,,,,,,,,,,,,,,,,,,,,,,,,,,,,,,,,,,,,,,,,,,,,,,,,,,,
,,,,,,615444f0b14488e2b0eb13fa,62bbfa9aa22562605f507257,2022-06-29_09h09.31.330,Colour_Asymmetry_Pilot,2022.1.3,Win32,60.02040694,62bbe60bf3d75ef465d3e404,0,11,11,25,1,onethree,,,,,,,,,,,,,,,,,,,,,,,,,,,,,,,,,,,,,,,,,,,,,,,,,,,,,,,,,,,,,,,,,,,,,,,,,,,,,,,,,,,,,,,,,,,,,,,,,,,,,,,,,,,,,,,,,,,,,,,,,,,,,,,,,,,,,,,,,,,,,,,,,,,,,,,,
,,,,,,615444f0b14488e2b0eb13fa,62bbfa9aa22562605f507257,2022-06-29_09h09.31.330,Colour_Asymmetry_Pilot,2022.1.3,Win32,60.02040694,62bbe60bf3d75ef465d3e404,0,12,12,137,1,onethree,,,,,,,,,,,,,,,,,,,,,,,,,,,,,,,,,,,,,,,,,,,,,,,,,,,,,,,,,,,,,,,,,,,,,,,,,,,,,,,,,,,,,,,,,,,,,,,,,,,,,,,,,,,,,,,,,,,,,,,,,,,,,,,,,,,,,,,,,,,,,,,,,,,,,,,,
,,,,,,615444f0b14488e2b0eb13fa,62bbfa9aa22562605f507257,2022-06-29_09h09.31.330,Colour_Asymmetry_Pilot,2022.1.3,Win32,60.02040694,62bbe60bf3d75ef465d3e404,0,13,13,138,1,twoone,,,,,,,,,,,,,,,,,,,,,,,,,,,,,,,,,,,,,,,,,,,,,,,,,,,,,,,,,,,,,,,,,,,,,,,,,,,,,,,,,,,,,,,,,,,,,,,,,,,,,,,,,,,,,,,,,,,,,,,,,,,,,,,,,,,,,,,,,,,,,,,,,,,,,,,,
,,,,,,615444f0b14488e2b0eb13fa,62bbfa9aa22562605f507257,2022-06-29_09h09.31.330,Colour_Asymmetry_Pilot,2022.1.3,Win32,60.02040694,62bbe60bf3d75ef465d3e404,0,14,14,4,1,threeone,,,,,,,,,,,,,,,,,,,,,,,,,,,,,,,,,,,,,,,,,,,,,,,,,,,,,,,,,,,,,,,,,,,,,,,,,,,,,,,,,,,,,,,,,,,,,,,,,,,,,,,,,,,,,,,,,,,,,,,,,,,,,,,,,,,,,,,,,,,,,,,,,,,,,,,,
,,,,,,615444f0b14488e2b0eb13fa,62bbfa9aa22562605f507257,2022-06-29_09h09.31.330,Colour_Asymmetry_Pilot,2022.1.3,Win32,60.02040694,62bbe60bf3d75ef465d3e404,0,15,15,148,1,threeone,,,,,,,,,,,,,,,,,,,,,,,,,,,,,,,,,,,,,,,,,,,,,,,,,,,,,,,,,,,,,,,,,,,,,,,,,,,,,,,,,,,,,,,,,,,,,,,,,,,,,,,,,,,,,,,,,,,,,,,,,,,,,,,,,,,,,,,,,,,,,,,,,,,,,,,,
,,,,,,615444f0b14488e2b0eb13fa,62bbfa9aa22562605f507257,2022-06-29_09h09.31.330,Colour_Asymmetry_Pilot,2022.1.3,Win32,60.02040694,62bbe60bf3d75ef465d3e404,0,16,16,23,1,fourthree,,,,,,,,,,,,,,,,,,,,,,,,,,,,,,,,,,,,,,,,,,,,,,,,,,,,,,,,,,,,,,,,,,,,,,,,,,,,,,,,,,,,,,,,,,,,,,,,,,,,,,,,,,,,,,,,,,,,,,,,,,,,,,,,,,,,,,,,,,,,,,,,,,,,,,,,
,,,,,,615444f0b14488e2b0eb13fa,62bbfa9aa22562605f507257,2022-06-29_09h09.31.330,Colour_Asymmetry_Pilot,2022.1.3,Win32,60.02040694,62bbe60bf3d75ef465d3e404,0,17,17,30,1,fourtwo,,,,,,,,,,,,,,,,,,,,,,,,,,,,,,,,,,,,,,,,,,,,,,,,,,,,,,,,,,,,,,,,,,,,,,,,,,,,,,,,,,,,,,,,,,,,,,,,,,,,,,,,,,,,,,,,,,,,,,,,,,,,,,,,,,,,,,,,,,,,,,,,,,,,,,,,
,,,,,,615444f0b14488e2b0eb13fa,62bbfa9aa22562605f507257,2022-06-29_09h09.31.330,Colour_Asymmetry_Pilot,2022.1.3,Win32,60.02040694,62bbe60bf3d75ef465d3e404,0,18,18,45,1,threefour,,,,,,,,,,,,,,,,,,,,,,,,,,,,,,,,,,,,,,,,,,,,,,,,,,,,,,,,,,,,,,,,,,,,,,,,,,,,,,,,,,,,,,,,,,,,,,,,,,,,,,,,,,,,,,,,,,,,,,,,,,,,,,,,,,,,,,,,,,,,,,,,,,,,,,,,
,,,,,,615444f0b14488e2b0eb13fa,62bbfa9aa22562605f507257,2022-06-29_09h09.31.330,Colour_Asymmetry_Pilot,2022.1.3,Win32,60.02040694,62bbe60bf3d75ef465d3e404,0,19,19,127,1,fourthree,,,,,,,,,,,,,,,,,,,,,,,,,,,,,,,,,,,,,,,,,,,,,,,,,,,,,,,,,,,,,,,,,,,,,,,,,,,,,,,,,,,,,,,,,,,,,,,,,,,,,,,,,,,,,,,,,,,,,,,,,,,,,,,,,,,,,,,,,,,,,,,,,,,,,,,,
,,,,,,615444f0b14488e2b0eb13fa,62bbfa9aa22562605f507257,2022-06-29_09h09.31.330,Colour_Asymmetry_Pilot,2022.1.3,Win32,60.02040694,62bbe60bf3d75ef465d3e404,0,20,20,38,1,fourtwo,,,,,,,,,,,,,,,,,,,,,,,,,,,,,,,,,,,,,,,,,,,,,,,,,,,,,,,,,,,,,,,,,,,,,,,,,,,,,,,,,,,,,,,,,,,,,,,,,,,,,,,,,,,,,,,,,,,,,,,,,,,,,,,,,,,,,,,,,,,,,,,,,,,,,,,,
,,,,,,615444f0b14488e2b0eb13fa,62bbfa9aa22562605f507257,2022-06-29_09h09.31.330,Colour_Asymmetry_Pilot,2022.1.3,Win32,60.02040694,62bbe60bf3d75ef465d3e404,0,21,21,60,1,threeone,,,,,,,,,,,,,,,,,,,,,,,,,,,,,,,,,,,,,,,,,,,,,,,,,,,,,,,,,,,,,,,,,,,,,,,,,,,,,,,,,,,,,,,,,,,,,,,,,,,,,,,,,,,,,,,,,,,,,,,,,,,,,,,,,,,,,,,,,,,,,,,,,,,,,,,,
,,,,,,615444f0b14488e2b0eb13fa,62bbfa9aa22562605f507257,2022-06-29_09h09.31.330,Colour_Asymmetry_Pilot,2022.1.3,Win32,60.02040694,62bbe60bf3d75ef465d3e404,0,22,22,67,1,twofour,,,,,,,,,,,,,,,,,,,,,,,,,,,,,,,,,,,,,,,,,,,,,,,,,,,,,,,,,,,,,,,,,,,,,,,,,,,,,,,,,,,,,,,,,,,,,,,,,,,,,,,,,,,,,,,,,,,,,,,,,,,,,,,,,,,,,,,,,,,,,,,,,,,,,,,,
,,,,,,615444f0b14488e2b0eb13fa,62bbfa9aa22562605f507257,2022-06-29_09h09.31.330,Colour_Asymmetry_Pilot,2022.1.3,Win32,60.02040694,62bbe60bf3d75ef465d3e404,0,23,23,35,1,twofour,,,,,,,,,,,,,,,,,,,,,,,,,,,,,,,,,,,,,,,,,,,,,,,,,,,,,,,,,,,,,,,,,,,,,,,,,,,,,,,,,,,,,,,,,,,,,,,,,,,,,,,,,,,,,,,,,,,,,,,,,,,,,,,,,,,,,,,,,,,,,,,,,,,,,,,,
,,,,,,615444f0b14488e2b0eb13fa,62bbfa9aa22562605f507257,2022-06-29_09h09.31.330,Colour_Asymmetry_Pilot,2022.1.3,Win32,60.02040694,62bbe60bf3d75ef465d3e404,0,24,24,68,1,threeone,,,,,,,,,,,,,,,,,,,,,,,,,,,,,,,,,,,,,,,,,,,,,,,,,,,,,,,,,,,,,,,,,,,,,,,,,,,,,,,,,,,,,,,,,,,,,,,,,,,,,,,,,,,,,,,,,,,,,,,,,,,,,,,,,,,,,,,,,,,,,,,,,,,,,,,,
,,,,,,615444f0b14488e2b0eb13fa,62bbfa9aa22562605f507257,2022-06-29_09h09.31.330,Colour_Asymmetry_Pilot,2022.1.3,Win32,60.02040694,62bbe60bf3d75ef465d3e404,0,25,25,66,1,twoone,,,,,,,,,,,,,,,,,,,,,,,,,,,,,,,,,,,,,,,,,,,,,,,,,,,,,,,,,,,,,,,,,,,,,,,,,,,,,,,,,,,,,,,,,,,,,,,,,,,,,,,,,,,,,,,,,,,,,,,,,,,,,,,,,,,,,,,,,,,,,,,,,,,,,,,,
,,,,,,615444f0b14488e2b0eb13fa,62bbfa9aa22562605f507257,2022-06-29_09h09.31.330,Colour_Asymmetry_Pilot,2022.1.3,Win32,60.02040694,62bbe60bf3d75ef465d3e404,0,26,26,43,1,twofour,,,,,,,,,,,,,,,,,,,,,,,,,,,,,,,,,,,,,,,,,,,,,,,,,,,,,,,,,,,,,,,,,,,,,,,,,,,,,,,,,,,,,,,,,,,,,,,,,,,,,,,,,,,,,,,,,,,,,,,,,,,,,,,,,,,,,,,,,,,,,,,,,,,,,,,,
,,,,,,615444f0b14488e2b0eb13fa,62bbfa9aa22562605f507257,2022-06-29_09h09.31.330,Colour_Asymmetry_Pilot,2022.1.3,Win32,60.02040694,62bbe60bf3d75ef465d3e404,0,27,27,32,1,onetwo,,,,,,,,,,,,,,,,,,,,,,,,,,,,,,,,,,,,,,,,,,,,,,,,,,,,,,,,,,,,,,,,,,,,,,,,,,,,,,,,,,,,,,,,,,,,,,,,,,,,,,,,,,,,,,,,,,,,,,,,,,,,,,,,,,,,,,,,,,,,,,,,,,,,,,,,
,,,,,,615444f0b14488e2b0eb13fa,62bbfa9aa22562605f507257,2022-06-29_09h09.31.330,Colour_Asymmetry_Pilot,2022.1.3,Win32,60.02040694,62bbe60bf3d75ef465d3e404,0,28,28,96,1,onetwo,,,,,,,,,,,,,,,,,,,,,,,,,,,,,,,,,,,,,,,,,,,,,,,,,,,,,,,,,,,,,,,,,,,,,,,,,,,,,,,,,,,,,,,,,,,,,,,,,,,,,,,,,,,,,,,,,,,,,,,,,,,,,,,,,,,,,,,,,,,,,,,,,,,,,,,,
,,,,,,615444f0b14488e2b0eb13fa,62bbfa9aa22562605f507257,2022-06-29_09h09.31.330,Colour_Asymmetry_Pilot,2022.1.3,Win32,60.02040694,62bbe60bf3d75ef465d3e404,0,29,29,95,1,fourthree,,,,,,,,,,,,,,,,,,,,,,,,,,,,,,,,,,,,,,,,,,,,,,,,,,,,,,,,,,,,,,,,,,,,,,,,,,,,,,,,,,,,,,,,,,,,,,,,,,,,,,,,,,,,,,,,,,,,,,,,,,,,,,,,,,,,,,,,,,,,,,,,,,,,,,,,
,,,,,,615444f0b14488e2b0eb13fa,62bbfa9aa22562605f507257,2022-06-29_09h09.31.330,Colour_Asymmetry_Pilot,2022.1.3,Win32,60.02040694,62bbe60bf3d75ef465d3e404,0,30,30,113,1,onethree,,,,,,,,,,,,,,,,,,,,,,,,,,,,,,,,,,,,,,,,,,,,,,,,,,,,,,,,,,,,,,,,,,,,,,,,,,,,,,,,,,,,,,,,,,,,,,,,,,,,,,,,,,,,,,,,,,,,,,,,,,,,,,,,,,,,,,,,,,,,,,,,,,,,,,,,
,,,,,,615444f0b14488e2b0eb13fa,62bbfa9aa22562605f507257,2022-06-29_09h09.31.330,Colour_Asymmetry_Pilot,2022.1.3,Win32,60.02040694,62bbe60bf3d75ef465d3e404,0,31,31,5,1,threefour,,,,,,,,,,,,,,,,,,,,,,,,,,,,,,,,,,,,,,,,,,,,,,,,,,,,,,,,,,,,,,,,,,,,,,,,,,,,,,,,,,,,,,,,,,,,,,,,,,,,,,,,,,,,,,,,,,,,,,,,,,,,,,,,,,,,,,,,,,,,,,,,,,,,,,,,
,,,,,,615444f0b14488e2b0eb13fa,62bbfa9aa22562605f507257,2022-06-29_09h09.31.330,Colour_Asymmetry_Pilot,2022.1.3,Win32,60.02040694,62bbe60bf3d75ef465d3e404,0,32,32,139,1,twofour,,,,,,,,,,,,,,,,,,,,,,,,,,,,,,,,,,,,,,,,,,,,,,,,,,,,,,,,,,,,,,,,,,,,,,,,,,,,,,,,,,,,,,,,,,,,,,,,,,,,,,,,,,,,,,,,,,,,,,,,,,,,,,,,,,,,,,,,,,,,,,,,,,,,,,,,
,,,,,,615444f0b14488e2b0eb13fa,62bbfa9aa22562605f507257,2022-06-29_09h09.31.330,Colour_Asymmetry_Pilot,2022.1.3,Win32,60.02040694,62bbe60bf3d75ef465d3e404,0,33,33,72,1,onetwo,,,,,,,,,,,,,,,,,,,,,,,,,,,,,,,,,,,,,,,,,,,,,,,,,,,,,,,,,,,,,,,,,,,,,,,,,,,,,,,,,,,,,,,,,,,,,,,,,,,,,,,,,,,,,,,,,,,,,,,,,,,,,,,,,,,,,,,,,,,,,,,,,,,,,,,,
,,,,,,615444f0b14488e2b0eb13fa,62bbfa9aa22562605f507257,2022-06-29_09h09.31.330,Colour_Asymmetry_Pilot,2022.1.3,Win32,60.02040694,62bbe60bf3d75ef465d3e404,0,34,34,126,1,fourtwo,,,,,,,,,,,,,,,,,,,,,,,,,,,,,,,,,,,,,,,,,,,,,,,,,,,,,,,,,,,,,,,,,,,,,,,,,,,,,,,,,,,,,,,,,,,,,,,,,,,,,,,,,,,,,,,,,,,,,,,,,,,,,,,,,,,,,,,,,,,,,,,,,,,,,,,,
,,,,,,615444f0b14488e2b0eb13fa,62bbfa9aa22562605f507257,2022-06-29_09h09.31.330,Colour_Asymmetry_Pilot,2022.1.3,Win32,60.02040694,62bbe60bf3d75ef465d3e404,0,35,35,130,1,twoone,,,,,,,,,,,,,,,,,,,,,,,,,,,,,,,,,,,,,,,,,,,,,,,,,,,,,,,,,,,,,,,,,,,,,,,,,,,,,,,,,,,,,,,,,,,,,,,,,,,,,,,,,,,,,,,,,,,,,,,,,,,,,,,,,,,,,,,,,,,,,,,,,,,,,,,,
,,,,,,615444f0b14488e2b0eb13fa,62bbfa9aa22562605f507257,2022-06-29_09h09.31.330,Colour_Asymmetry_Pilot,2022.1.3,Win32,60.02040694,62bbe60bf3d75ef465d3e404,0,36,36,18,1,twoone,,,,,,,,,,,,,,,,,,,,,,,,,,,,,,,,,,,,,,,,,,,,,,,,,,,,,,,,,,,,,,,,,,,,,,,,,,,,,,,,,,,,,,,,,,,,,,,,,,,,,,,,,,,,,,,,,,,,,,,,,,,,,,,,,,,,,,,,,,,,,,,,,,,,,,,,
,,,,,,615444f0b14488e2b0eb13fa,62bbfa9aa22562605f507257,2022-06-29_09h09.31.330,Colour_Asymmetry_Pilot,2022.1.3,Win32,60.02040694,62bbe60bf3d75ef465d3e404,0,37,37,51,1,twofour,,,,,,,,,,,,,,,,,,,,,,,,,,,,,,,,,,,,,,,,,,,,,,,,,,,,,,,,,,,,,,,,,,,,,,,,,,,,,,,,,,,,,,,,,,,,,,,,,,,,,,,,,,,,,,,,,,,,,,,,,,,,,,,,,,,,,,,,,,,,,,,,,,,,,,,,
,,,,,,615444f0b14488e2b0eb13fa,62bbfa9aa22562605f507257,2022-06-29_09h09.31.330,Colour_Asymmetry_Pilot,2022.1.3,Win32,60.02040694,62bbe60bf3d75ef465d3e404,0,38,38,152,1,onetwo,,,,,,,,,,,,,,,,,,,,,,,,,,,,,,,,,,,,,,,,,,,,,,,,,,,,,,,,,,,,,,,,,,,,,,,,,,,,,,,,,,,,,,,,,,,,,,,,,,,,,,,,,,,,,,,,,,,,,,,,,,,,,,,,,,,,,,,,,,,,,,,,,,,,,,,,
,,,,,,615444f0b14488e2b0eb13fa,62bbfa9aa22562605f507257,2022-06-29_09h09.31.330,Colour_Asymmetry_Pilot,2022.1.3,Win32,60.02040694,62bbe60bf3d75ef465d3e404,0,39,39,79,1,fourthree,,,,,,,,,,,,,,,,,,,,,,,,,,,,,,,,,,,,,,,,,,,,,,,,,,,,,,,,,,,,,,,,,,,,,,,,,,,,,,,,,,,,,,,,,,,,,,,,,,,,,,,,,,,,,,,,,,,,,,,,,,,,,,,,,,,,,,,,,,,,,,,,,,,,,,,,
,,,,,,615444f0b14488e2b0eb13fa,62bbfa9aa22562605f507257,2022-06-29_09h09.31.330,Colour_Asymmetry_Pilot,2022.1.3,Win32,60.02040694,62bbe60bf3d75ef465d3e404,0,40,40,131,1,twofour,,,,,,,,,,,,,,,,,,,,,,,,,,,,,,,,,,,,,,,,,,,,,,,,,,,,,,,,,,,,,,,,,,,,,,,,,,,,,,,,,,,,,,,,,,,,,,,,,,,,,,,,,,,,,,,,,,,,,,,,,,,,,,,,,,,,,,,,,,,,,,,,,,,,,,,,
,,,,,,615444f0b14488e2b0eb13fa,62bbfa9aa22562605f507257,2022-06-29_09h09.31.330,Colour_Asymmetry_Pilot,2022.1.3,Win32,60.02040694,62bbe60bf3d75ef465d3e404,0,41,41,62,1,fourtwo,,,,,,,,,,,,,,,,,,,,,,,,,,,,,,,,,,,,,,,,,,,,,,,,,,,,,,,,,,,,,,,,,,,,,,,,,,,,,,,,,,,,,,,,,,,,,,,,,,,,,,,,,,,,,,,,,,,,,,,,,,,,,,,,,,,,,,,,,,,,,,,,,,,,,,,,
,,,,,,615444f0b14488e2b0eb13fa,62bbfa9aa22562605f507257,2022-06-29_09h09.31.330,Colour_Asymmetry_Pilot,2022.1.3,Win32,60.02040694,62bbe60bf3d75ef465d3e404,0,42,42,109,1,threefour,,,,,,,,,,,,,,,,,,,,,,,,,,,,,,,,,,,,,,,,,,,,,,,,,,,,,,,,,,,,,,,,,,,,,,,,,,,,,,,,,,,,,,,,,,,,,,,,,,,,,,,,,,,,,,,,,,,,,,,,,,,,,,,,,,,,,,,,,,,,,,,,,,,,,,,,
,,,,,,615444f0b14488e2b0eb13fa,62bbfa9aa22562605f507257,2022-06-29_09h09.31.330,Colour_Asymmetry_Pilot,2022.1.3,Win32,60.02040694,62bbe60bf3d75ef465d3e404,0,43,43,114,1,twoone,,,,,,,,,,,,,,,,,,,,,,,,,,,,,,,,,,,,,,,,,,,,,,,,,,,,,,,,,,,,,,,,,,,,,,,,,,,,,,,,,,,,,,,,,,,,,,,,,,,,,,,,,,,,,,,,,,,,,,,,,,,,,,,,,,,,,,,,,,,,,,,,,,,,,,,,
,,,,,,615444f0b14488e2b0eb13fa,62bbfa9aa22562605f507257,2022-06-29_09h09.31.330,Colour_Asymmetry_Pilot,2022.1.3,Win32,60.02040694,62bbe60bf3d75ef465d3e404,0,44,44,135,1,fourthree,,,,,,,,,,,,,,,,,,,,,,,,,,,,,,,,,,,,,,,,,,,,,,,,,,,,,,,,,,,,,,,,,,,,,,,,,,,,,,,,,,,,,,,,,,,,,,,,,,,,,,,,,,,,,,,,,,,,,,,,,,,,,,,,,,,,,,,,,,,,,,,,,,,,,,,,
,,,,,,615444f0b14488e2b0eb13fa,62bbfa9aa22562605f507257,2022-06-29_09h09.31.330,Colour_Asymmetry_Pilot,2022.1.3,Win32,60.02040694,62bbe60bf3d75ef465d3e404,0,45,45,118,1,fourtwo,,,,,,,,,,,,,,,,,,,,,,,,,,,,,,,,,,,,,,,,,,,,,,,,,,,,,,,,,,,,,,,,,,,,,,,,,,,,,,,,,,,,,,,,,,,,,,,,,,,,,,,,,,,,,,,,,,,,,,,,,,,,,,,,,,,,,,,,,,,,,,,,,,,,,,,,
,,,,,,615444f0b14488e2b0eb13fa,62bbfa9aa22562605f507257,2022-06-29_09h09.31.330,Colour_Asymmetry_Pilot,2022.1.3,Win32,60.02040694,62bbe60bf3d75ef465d3e404,0,46,46,7,1,fourthree,,,,,,,,,,,,,,,,,,,,,,,,,,,,,,,,,,,,,,,,,,,,,,,,,,,,,,,,,,,,,,,,,,,,,,,,,,,,,,,,,,,,,,,,,,,,,,,,,,,,,,,,,,,,,,,,,,,,,,,,,,,,,,,,,,,,,,,,,,,,,,,,,,,,,,,,
,,,,,,615444f0b14488e2b0eb13fa,62bbfa9aa22562605f507257,2022-06-29_09h09.31.330,Colour_Asymmetry_Pilot,2022.1.3,Win32,60.02040694,62bbe60bf3d75ef465d3e404,0,47,47,64,1,onetwo,,,,,,,,,,,,,,,,,,,,,,,,,,,,,,,,,,,,,,,,,,,,,,,,,,,,,,,,,,,,,,,,,,,,,,,,,,,,,,,,,,,,,,,,,,,,,,,,,,,,,,,,,,,,,,,,,,,,,,,,,,,,,,,,,,,,,,,,,,,,,,,,,,,,,,,,
,,,,,,615444f0b14488e2b0eb13fa,62bbfa9aa22562605f507257,2022-06-29_09h09.31.330,Colour_Asymmetry_Pilot,2022.1.3,Win32,60.02040694,62bbe60bf3d75ef465d3e404,0,48,48,2,1,twoone,,,,,,,,,,,,,,,,,,,,,,,,,,,,,,,,,,,,,,,,,,,,,,,,,,,,,,,,,,,,,,,,,,,,,,,,,,,,,,,,,,,,,,,,,,,,,,,,,,,,,,,,,,,,,,,,,,,,,,,,,,,,,,,,,,,,,,,,,,,,,,,,,,,,,,,,
,,,,,,615444f0b14488e2b0eb13fa,62bbfa9aa22562605f507257,2022-06-29_09h09.31.330,Colour_Asymmetry_Pilot,2022.1.3,Win32,60.02040694,62bbe60bf3d75ef465d3e404,0,49,49,133,1,threefour,,,,,,,,,,,,,,,,,,,,,,,,,,,,,,,,,,,,,,,,,,,,,,,,,,,,,,,,,,,,,,,,,,,,,,,,,,,,,,,,,,,,,,,,,,,,,,,,,,,,,,,,,,,,,,,,,,,,,,,,,,,,,,,,,,,,,,,,,,,,,,,,,,,,,,,,
,,,,,,615444f0b14488e2b0eb13fa,62bbfa9aa22562605f507257,2022-06-29_09h09.31.330,Colour_Asymmetry_Pilot,2022.1.3,Win32,60.02040694,62bbe60bf3d75ef465d3e404,0,50,50,97,1,onethree,,,,,,,,,,,,,,,,,,,,,,,,,,,,,,,,,,,,,,,,,,,,,,,,,,,,,,,,,,,,,,,,,,,,,,,,,,,,,,,,,,,,,,,,,,,,,,,,,,,,,,,,,,,,,,,,,,,,,,,,,,,,,,,,,,,,,,,,,,,,,,,,,,,,,,,,
,,,,,,615444f0b14488e2b0eb13fa,62bbfa9aa22562605f507257,2022-06-29_09h09.31.330,Colour_Asymmetry_Pilot,2022.1.3,Win32,60.02040694,62bbe60bf3d75ef465d3e404,0,51,51,42,1,twoone,,,,,,,,,,,,,,,,,,,,,,,,,,,,,,,,,,,,,,,,,,,,,,,,,,,,,,,,,,,,,,,,,,,,,,,,,,,,,,,,,,,,,,,,,,,,,,,,,,,,,,,,,,,,,,,,,,,,,,,,,,,,,,,,,,,,,,,,,,,,,,,,,,,,,,,,
,,,,,,615444f0b14488e2b0eb13fa,62bbfa9aa22562605f507257,2022-06-29_09h09.31.330,Colour_Asymmetry_Pilot,2022.1.3,Win32,60.02040694,62bbe60bf3d75ef465d3e404,0,52,52,119,1,fourthree,,,,,,,,,,,,,,,,,,,,,,,,,,,,,,,,,,,,,,,,,,,,,,,,,,,,,,,,,,,,,,,,,,,,,,,,,,,,,,,,,,,,,,,,,,,,,,,,,,,,,,,,,,,,,,,,,,,,,,,,,,,,,,,,,,,,,,,,,,,,,,,,,,,,,,,,
,,,,,,615444f0b14488e2b0eb13fa,62bbfa9aa22562605f507257,2022-06-29_09h09.31.330,Colour_Asymmetry_Pilot,2022.1.3,Win32,60.02040694,62bbe60bf3d75ef465d3e404,0,53,53,153,1,onethree,,,,,,,,,,,,,,,,,,,,,,,,,,,,,,,,,,,,,,,,,,,,,,,,,,,,,,,,,,,,,,,,,,,,,,,,,,,,,,,,,,,,,,,,,,,,,,,,,,,,,,,,,,,,,,,,,,,,,,,,,,,,,,,,,,,,,,,,,,,,,,,,,,,,,,,,
,,,,,,615444f0b14488e2b0eb13fa,62bbfa9aa22562605f507257,2022-06-29_09h09.31.330,Colour_Asymmetry_Pilot,2022.1.3,Win32,60.02040694,62bbe60bf3d75ef465d3e404,0,54,54,160,1,onetwo,,,,,,,,,,,,,,,,,,,,,,,,,,,,,,,,,,,,,,,,,,,,,,,,,,,,,,,,,,,,,,,,,,,,,,,,,,,,,,,,,,,,,,,,,,,,,,,,,,,,,,,,,,,,,,,,,,,,,,,,,,,,,,,,,,,,,,,,,,,,,,,,,,,,,,,,
,,,,,,615444f0b14488e2b0eb13fa,62bbfa9aa22562605f507257,2022-06-29_09h09.31.330,Colour_Asymmetry_Pilot,2022.1.3,Win32,60.02040694,62bbe60bf3d75ef465d3e404,0,55,55,37,1,threefour,,,,,,,,,,,,,,,,,,,,,,,,,,,,,,,,,,,,,,,,,,,,,,,,,,,,,,,,,,,,,,,,,,,,,,,,,,,,,,,,,,,,,,,,,,,,,,,,,,,,,,,,,,,,,,,,,,,,,,,,,,,,,,,,,,,,,,,,,,,,,,,,,,,,,,,,
,,,,,,615444f0b14488e2b0eb13fa,62bbfa9aa22562605f507257,2022-06-29_09h09.31.330,Colour_Asymmetry_Pilot,2022.1.3,Win32,60.02040694,62bbe60bf3d75ef465d3e404,0,56,56,48,1,onetwo,,,,,,,,,,,,,,,,,,,,,,,,,,,,,,,,,,,,,,,,,,,,,,,,,,,,,,,,,,,,,,,,,,,,,,,,,,,,,,,,,,,,,,,,,,,,,,,,,,,,,,,,,,,,,,,,,,,,,,,,,,,,,,,,,,,,,,,,,,,,,,,,,,,,,,,,
,,,,,,615444f0b14488e2b0eb13fa,62bbfa9aa22562605f507257,2022-06-29_09h09.31.330,Colour_Asymmetry_Pilot,2022.1.3,Win32,60.02040694,62bbe60bf3d75ef465d3e404,0,57,57,29,1,threefour,,,,,,,,,,,,,,,,,,,,,,,,,,,,,,,,,,,,,,,,,,,,,,,,,,,,,,,,,,,,,,,,,,,,,,,,,,,,,,,,,,,,,,,,,,,,,,,,,,,,,,,,,,,,,,,,,,,,,,,,,,,,,,,,,,,,,,,,,,,,,,,,,,,,,,,,
,,,,,,615444f0b14488e2b0eb13fa,62bbfa9aa22562605f507257,2022-06-29_09h09.31.330,Colour_Asymmetry_Pilot,2022.1.3,Win32,60.02040694,62bbe60bf3d75ef465d3e404,0,58,58,33,1,onethree,,,,,,,,,,,,,,,,,,,,,,,,,,,,,,,,,,,,,,,,,,,,,,,,,,,,,,,,,,,,,,,,,,,,,,,,,,,,,,,,,,,,,,,,,,,,,,,,,,,,,,,,,,,,,,,,,,,,,,,,,,,,,,,,,,,,,,,,,,,,,,,,,,,,,,,,
,,,,,,615444f0b14488e2b0eb13fa,62bbfa9aa22562605f507257,2022-06-29_09h09.31.330,Colour_Asymmetry_Pilot,2022.1.3,Win32,60.02040694,62bbe60bf3d75ef465d3e404,0,59,59,157,1,threefour,,,,,,,,,,,,,,,,,,,,,,,,,,,,,,,,,,,,,,,,,,,,,,,,,,,,,,,,,,,,,,,,,,,,,,,,,,,,,,,,,,,,,,,,,,,,,,,,,,,,,,,,,,,,,,,,,,,,,,,,,,,,,,,,,,,,,,,,,,,,,,,,,,,,,,,,
,,,,,,615444f0b14488e2b0eb13fa,62bbfa9aa22562605f507257,2022-06-29_09h09.31.330,Colour_Asymmetry_Pilot,2022.1.3,Win32,60.02040694,62bbe60bf3d75ef465d3e404,0,60,60,86,1,fourtwo,,,,,,,,,,,,,,,,,,,,,,,,,,,,,,,,,,,,,,,,,,,,,,,,,,,,,,,,,,,,,,,,,,,,,,,,,,,,,,,,,,,,,,,,,,,,,,,,,,,,,,,,,,,,,,,,,,,,,,,,,,,,,,,,,,,,,,,,,,,,,,,,,,,,,,,,
,,,,,,615444f0b14488e2b0eb13fa,62bbfa9aa22562605f507257,2022-06-29_09h09.31.330,Colour_Asymmetry_Pilot,2022.1.3,Win32,60.02040694,62bbe60bf3d75ef465d3e404,0,61,61,150,1,fourtwo,,,,,,,,,,,,,,,,,,,,,,,,,,,,,,,,,,,,,,,,,,,,,,,,,,,,,,,,,,,,,,,,,,,,,,,,,,,,,,,,,,,,,,,,,,,,,,,,,,,,,,,,,,,,,,,,,,,,,,,,,,,,,,,,,,,,,,,,,,,,,,,,,,,,,,,,
,,,,,,615444f0b14488e2b0eb13fa,62bbfa9aa22562605f507257,2022-06-29_09h09.31.330,Colour_Asymmetry_Pilot,2022.1.3,Win32,60.02040694,62bbe60bf3d75ef465d3e404,0,62,62,39,1,fourthree,,,,,,,,,,,,,,,,,,,,,,,,,,,,,,,,,,,,,,,,,,,,,,,,,,,,,,,,,,,,,,,,,,,,,,,,,,,,,,,,,,,,,,,,,,,,,,,,,,,,,,,,,,,,,,,,,,,,,,,,,,,,,,,,,,,,,,,,,,,,,,,,,,,,,,,,
,,,,,,615444f0b14488e2b0eb13fa,62bbfa9aa22562605f507257,2022-06-29_09h09.31.330,Colour_Asymmetry_Pilot,2022.1.3,Win32,60.02040694,62bbe60bf3d75ef465d3e404,0,63,63,111,1,fourthree,,,,,,,,,,,,,,,,,,,,,,,,,,,,,,,,,,,,,,,,,,,,,,,,,,,,,,,,,,,,,,,,,,,,,,,,,,,,,,,,,,,,,,,,,,,,,,,,,,,,,,,,,,,,,,,,,,,,,,,,,,,,,,,,,,,,,,,,,,,,,,,,,,,,,,,,
,,,,,,615444f0b14488e2b0eb13fa,62bbfa9aa22562605f507257,2022-06-29_09h09.31.330,Colour_Asymmetry_Pilot,2022.1.3,Win32,60.02040694,62bbe60bf3d75ef465d3e404,0,64,64,15,1,fourthree,,,,,,,,,,,,,,,,,,,,,,,,,,,,,,,,,,,,,,,,,,,,,,,,,,,,,,,,,,,,,,,,,,,,,,,,,,,,,,,,,,,,,,,,,,,,,,,,,,,,,,,,,,,,,,,,,,,,,,,,,,,,,,,,,,,,,,,,,,,,,,,,,,,,,,,,
,,,,,,615444f0b14488e2b0eb13fa,62bbfa9aa22562605f507257,2022-06-29_09h09.31.330,Colour_Asymmetry_Pilot,2022.1.3,Win32,60.02040694,62bbe60bf3d75ef465d3e404,0,65,65,151,1,fourthree,,,,,,,,,,,,,,,,,,,,,,,,,,,,,,,,,,,,,,,,,,,,,,,,,,,,,,,,,,,,,,,,,,,,,,,,,,,,,,,,,,,,,,,,,,,,,,,,,,,,,,,,,,,,,,,,,,,,,,,,,,,,,,,,,,,,,,,,,,,,,,,,,,,,,,,,
,,,,,,615444f0b14488e2b0eb13fa,62bbfa9aa22562605f507257,2022-06-29_09h09.31.330,Colour_Asymmetry_Pilot,2022.1.3,Win32,60.02040694,62bbe60bf3d75ef465d3e404,0,66,66,12,1,threeone,,,,,,,,,,,,,,,,,,,,,,,,,,,,,,,,,,,,,,,,,,,,,,,,,,,,,,,,,,,,,,,,,,,,,,,,,,,,,,,,,,,,,,,,,,,,,,,,,,,,,,,,,,,,,,,,,,,,,,,,,,,,,,,,,,,,,,,,,,,,,,,,,,,,,,,,
,,,,,,615444f0b14488e2b0eb13fa,62bbfa9aa22562605f507257,2022-06-29_09h09.31.330,Colour_Asymmetry_Pilot,2022.1.3,Win32,60.02040694,62bbe60bf3d75ef465d3e404,0,67,67,78,1,fourtwo,,,,,,,,,,,,,,,,,,,,,,,,,,,,,,,,,,,,,,,,,,,,,,,,,,,,,,,,,,,,,,,,,,,,,,,,,,,,,,,,,,,,,,,,,,,,,,,,,,,,,,,,,,,,,,,,,,,,,,,,,,,,,,,,,,,,,,,,,,,,,,,,,,,,,,,,
,,,,,,615444f0b14488e2b0eb13fa,62bbfa9aa22562605f507257,2022-06-29_09h09.31.330,Colour_Asymmetry_Pilot,2022.1.3,Win32,60.02040694,62bbe60bf3d75ef465d3e404,0,68,68,134,1,fourtwo,,,,,,,,,,,,,,,,,,,,,,,,,,,,,,,,,,,,,,,,,,,,,,,,,,,,,,,,,,,,,,,,,,,,,,,,,,,,,,,,,,,,,,,,,,,,,,,,,,,,,,,,,,,,,,,,,,,,,,,,,,,,,,,,,,,,,,,,,,,,,,,,,,,,,,,,
,,,,,,615444f0b14488e2b0eb13fa,62bbfa9aa22562605f507257,2022-06-29_09h09.31.330,Colour_Asymmetry_Pilot,2022.1.3,Win32,60.02040694,62bbe60bf3d75ef465d3e404,0,69,69,120,1,onetwo,,,,,,,,,,,,,,,,,,,,,,,,,,,,,,,,,,,,,,,,,,,,,,,,,,,,,,,,,,,,,,,,,,,,,,,,,,,,,,,,,,,,,,,,,,,,,,,,,,,,,,,,,,,,,,,,,,,,,,,,,,,,,,,,,,,,,,,,,,,,,,,,,,,,,,,,
,,,,,,615444f0b14488e2b0eb13fa,62bbfa9aa22562605f507257,2022-06-29_09h09.31.330,Colour_Asymmetry_Pilot,2022.1.3,Win32,60.02040694,62bbe60bf3d75ef465d3e404,0,70,70,110,1,fourtwo,,,,,,,,,,,,,,,,,,,,,,,,,,,,,,,,,,,,,,,,,,,,,,,,,,,,,,,,,,,,,,,,,,,,,,,,,,,,,,,,,,,,,,,,,,,,,,,,,,,,,,,,,,,,,,,,,,,,,,,,,,,,,,,,,,,,,,,,,,,,,,,,,,,,,,,,
,,,,,,615444f0b14488e2b0eb13fa,62bbfa9aa22562605f507257,2022-06-29_09h09.31.330,Colour_Asymmetry_Pilot,2022.1.3,Win32,60.02040694,62bbe60bf3d75ef465d3e404,0,71,71,22,1,fourtwo,,,,,,,,,,,,,,,,,,,,,,,,,,,,,,,,,,,,,,,,,,,,,,,,,,,,,,,,,,,,,,,,,,,,,,,,,,,,,,,,,,,,,,,,,,,,,,,,,,,,,,,,,,,,,,,,,,,,,,,,,,,,,,,,,,,,,,,,,,,,,,,,,,,,,,,,
,,,,,,615444f0b14488e2b0eb13fa,62bbfa9aa22562605f507257,2022-06-29_09h09.31.330,Colour_Asymmetry_Pilot,2022.1.3,Win32,60.02040694,62bbe60bf3d75ef465d3e404,0,72,72,19,1,twofour,,,,,,,,,,,,,,,,,,,,,,,,,,,,,,,,,,,,,,,,,,,,,,,,,,,,,,,,,,,,,,,,,,,,,,,,,,,,,,,,,,,,,,,,,,,,,,,,,,,,,,,,,,,,,,,,,,,,,,,,,,,,,,,,,,,,,,,,,,,,,,,,,,,,,,,,
,,,,,,615444f0b14488e2b0eb13fa,62bbfa9aa22562605f507257,2022-06-29_09h09.31.330,Colour_Asymmetry_Pilot,2022.1.3,Win32,60.02040694,62bbe60bf3d75ef465d3e404,0,73,73,24,1,onetwo,,,,,,,,,,,,,,,,,,,,,,,,,,,,,,,,,,,,,,,,,,,,,,,,,,,,,,,,,,,,,,,,,,,,,,,,,,,,,,,,,,,,,,,,,,,,,,,,,,,,,,,,,,,,,,,,,,,,,,,,,,,,,,,,,,,,,,,,,,,,,,,,,,,,,,,,
,,,,,,615444f0b14488e2b0eb13fa,62bbfa9aa22562605f507257,2022-06-29_09h09.31.330,Colour_Asymmetry_Pilot,2022.1.3,Win32,60.02040694,62bbe60bf3d75ef465d3e404,0,74,74,103,1,fourthree,,,,,,,,,,,,,,,,,,,,,,,,,,,,,,,,,,,,,,,,,,,,,,,,,,,,,,,,,,,,,,,,,,,,,,,,,,,,,,,,,,,,,,,,,,,,,,,,,,,,,,,,,,,,,,,,,,,,,,,,,,,,,,,,,,,,,,,,,,,,,,,,,,,,,,,,
,,,,,,615444f0b14488e2b0eb13fa,62bbfa9aa22562605f507257,2022-06-29_09h09.31.330,Colour_Asymmetry_Pilot,2022.1.3,Win32,60.02040694,62bbe60bf3d75ef465d3e404,0,75,75,46,1,fourtwo,,,,,,,,,,,,,,,,,,,,,,,,,,,,,,,,,,,,,,,,,,,,,,,,,,,,,,,,,,,,,,,,,,,,,,,,,,,,,,,,,,,,,,,,,,,,,,,,,,,,,,,,,,,,,,,,,,,,,,,,,,,,,,,,,,,,,,,,,,,,,,,,,,,,,,,,
,,,,,,615444f0b14488e2b0eb13fa,62bbfa9aa22562605f507257,2022-06-29_09h09.31.330,Colour_Asymmetry_Pilot,2022.1.3,Win32,60.02040694,62bbe60bf3d75ef465d3e404,0,76,76,8,1,onetwo,,,,,,,,,,,,,,,,,,,,,,,,,,,,,,,,,,,,,,,,,,,,,,,,,,,,,,,,,,,,,,,,,,,,,,,,,,,,,,,,,,,,,,,,,,,,,,,,,,,,,,,,,,,,,,,,,,,,,,,,,,,,,,,,,,,,,,,,,,,,,,,,,,,,,,,,
,,,,,,615444f0b14488e2b0eb13fa,62bbfa9aa22562605f507257,2022-06-29_09h09.31.330,Colour_Asymmetry_Pilot,2022.1.3,Win32,60.02040694,62bbe60bf3d75ef465d3e404,0,77,77,13,1,threefour,,,,,,,,,,,,,,,,,,,,,,,,,,,,,,,,,,,,,,,,,,,,,,,,,,,,,,,,,,,,,,,,,,,,,,,,,,,,,,,,,,,,,,,,,,,,,,,,,,,,,,,,,,,,,,,,,,,,,,,,,,,,,,,,,,,,,,,,,,,,,,,,,,,,,,,,
,,,,,,615444f0b14488e2b0eb13fa,62bbfa9aa22562605f507257,2022-06-29_09h09.31.330,Colour_Asymmetry_Pilot,2022.1.3,Win32,60.02040694,62bbe60bf3d75ef465d3e404,0,78,78,1,1,onethree,,,,,,,,,,,,,,,,,,,,,,,,,,,,,,,,,,,,,,,,,,,,,,,,,,,,,,,,,,,,,,,,,,,,,,,,,,,,,,,,,,,,,,,,,,,,,,,,,,,,,,,,,,,,,,,,,,,,,,,,,,,,,,,,,,,,,,,,,,,,,,,,,,,,,,,,
,,,,,,615444f0b14488e2b0eb13fa,62bbfa9aa22562605f507257,2022-06-29_09h09.31.330,Colour_Asymmetry_Pilot,2022.1.3,Win32,60.02040694,62bbe60bf3d75ef465d3e404,0,79,79,124,1,threeone,,,,,,,,,,,,,,,,,,,,,,,,,,,,,,,,,,,,,,,,,,,,,,,,,,,,,,,,,,,,,,,,,,,,,,,,,,,,,,,,,,,,,,,,,,,,,,,,,,,,,,,,,,,,,,,,,,,,,,,,,,,,,,,,,,,,,,,,,,,,,,,,,,,,,,,,
,,,,,,615444f0b14488e2b0eb13fa,62bbfa9aa22562605f507257,2022-06-29_09h09.31.330,Colour_Asymmetry_Pilot,2022.1.3,Win32,60.02040694,62bbe60bf3d75ef465d3e404,0,80,80,70,1,fourtwo,,,,,,,,,,,,,,,,,,,,,,,,,,,,,,,,,,,,,,,,,,,,,,,,,,,,,,,,,,,,,,,,,,,,,,,,,,,,,,,,,,,,,,,,,,,,,,,,,,,,,,,,,,,,,,,,,,,,,,,,,,,,,,,,,,,,,,,,,,,,,,,,,,,,,,,,
,,,,,,615444f0b14488e2b0eb13fa,62bbfa9aa22562605f507257,2022-06-29_09h09.31.330,Colour_Asymmetry_Pilot,2022.1.3,Win32,60.02040694,62bbe60bf3d75ef465d3e404,0,81,81,31,1,fourthree,,,,,,,,,,,,,,,,,,,,,,,,,,,,,,,,,,,,,,,,,,,,,,,,,,,,,,,,,,,,,,,,,,,,,,,,,,,,,,,,,,,,,,,,,,,,,,,,,,,,,,,,,,,,,,,,,,,,,,,,,,,,,,,,,,,,,,,,,,,,,,,,,,,,,,,,
,,,,,,615444f0b14488e2b0eb13fa,62bbfa9aa22562605f507257,2022-06-29_09h09.31.330,Colour_Asymmetry_Pilot,2022.1.3,Win32,60.02040694,62bbe60bf3d75ef465d3e404,0,82,82,104,1,onetwo,,,,,,,,,,,,,,,,,,,,,,,,,,,,,,,,,,,,,,,,,,,,,,,,,,,,,,,,,,,,,,,,,,,,,,,,,,,,,,,,,,,,,,,,,,,,,,,,,,,,,,,,,,,,,,,,,,,,,,,,,,,,,,,,,,,,,,,,,,,,,,,,,,,,,,,,
,,,,,,615444f0b14488e2b0eb13fa,62bbfa9aa22562605f507257,2022-06-29_09h09.31.330,Colour_Asymmetry_Pilot,2022.1.3,Win32,60.02040694,62bbe60bf3d75ef465d3e404,0,83,83,11,1,twofour,,,,,,,,,,,,,,,,,,,,,,,,,,,,,,,,,,,,,,,,,,,,,,,,,,,,,,,,,,,,,,,,,,,,,,,,,,,,,,,,,,,,,,,,,,,,,,,,,,,,,,,,,,,,,,,,,,,,,,,,,,,,,,,,,,,,,,,,,,,,,,,,,,,,,,,,
,,,,,,615444f0b14488e2b0eb13fa,62bbfa9aa22562605f507257,2022-06-29_09h09.31.330,Colour_Asymmetry_Pilot,2022.1.3,Win32,60.02040694,62bbe60bf3d75ef465d3e404,0,84,84,92,1,threeone,,,,,,,,,,,,,,,,,,,,,,,,,,,,,,,,,,,,,,,,,,,,,,,,,,,,,,,,,,,,,,,,,,,,,,,,,,,,,,,,,,,,,,,,,,,,,,,,,,,,,,,,,,,,,,,,,,,,,,,,,,,,,,,,,,,,,,,,,,,,,,,,,,,,,,,,
,,,,,,615444f0b14488e2b0eb13fa,62bbfa9aa22562605f507257,2022-06-29_09h09.31.330,Colour_Asymmetry_Pilot,2022.1.3,Win32,60.02040694,62bbe60bf3d75ef465d3e404,0,85,85,128,1,onetwo,,,,,,,,,,,,,,,,,,,,,,,,,,,,,,,,,,,,,,,,,,,,,,,,,,,,,,,,,,,,,,,,,,,,,,,,,,,,,,,,,,,,,,,,,,,,,,,,,,,,,,,,,,,,,,,,,,,,,,,,,,,,,,,,,,,,,,,,,,,,,,,,,,,,,,,,
,,,,,,615444f0b14488e2b0eb13fa,62bbfa9aa22562605f507257,2022-06-29_09h09.31.330,Colour_Asymmetry_Pilot,2022.1.3,Win32,60.02040694,62bbe60bf3d75ef465d3e404,0,86,86,106,1,twoone,,,,,,,,,,,,,,,,,,,,,,,,,,,,,,,,,,,,,,,,,,,,,,,,,,,,,,,,,,,,,,,,,,,,,,,,,,,,,,,,,,,,,,,,,,,,,,,,,,,,,,,,,,,,,,,,,,,,,,,,,,,,,,,,,,,,,,,,,,,,,,,,,,,,,,,,
,,,,,,615444f0b14488e2b0eb13fa,62bbfa9aa22562605f507257,2022-06-29_09h09.31.330,Colour_Asymmetry_Pilot,2022.1.3,Win32,60.02040694,62bbe60bf3d75ef465d3e404,0,87,87,84,1,threeone,,,,,,,,,,,,,,,,,,,,,,,,,,,,,,,,,,,,,,,,,,,,,,,,,,,,,,,,,,,,,,,,,,,,,,,,,,,,,,,,,,,,,,,,,,,,,,,,,,,,,,,,,,,,,,,,,,,,,,,,,,,,,,,,,,,,,,,,,,,,,,,,,,,,,,,,
,,,,,,615444f0b14488e2b0eb13fa,62bbfa9aa22562605f507257,2022-06-29_09h09.31.330,Colour_Asymmetry_Pilot,2022.1.3,Win32,60.02040694,62bbe60bf3d75ef465d3e404,0,88,88,102,1,fourtwo,,,,,,,,,,,,,,,,,,,,,,,,,,,,,,,,,,,,,,,,,,,,,,,,,,,,,,,,,,,,,,,,,,,,,,,,,,,,,,,,,,,,,,,,,,,,,,,,,,,,,,,,,,,,,,,,,,,,,,,,,,,,,,,,,,,,,,,,,,,,,,,,,,,,,,,,
,,,,,,615444f0b14488e2b0eb13fa,62bbfa9aa22562605f507257,2022-06-29_09h09.31.330,Colour_Asymmetry_Pilot,2022.1.3,Win32,60.02040694,62bbe60bf3d75ef465d3e404,0,89,89,82,1,twoone,,,,,,,,,,,,,,,,,,,,,,,,,,,,,,,,,,,,,,,,,,,,,,,,,,,,,,,,,,,,,,,,,,,,,,,,,,,,,,,,,,,,,,,,,,,,,,,,,,,,,,,,,,,,,,,,,,,,,,,,,,,,,,,,,,,,,,,,,,,,,,,,,,,,,,,,
,,,,,,615444f0b14488e2b0eb13fa,62bbfa9aa22562605f507257,2022-06-29_09h09.31.330,Colour_Asymmetry_Pilot,2022.1.3,Win32,60.02040694,62bbe60bf3d75ef465d3e404,0,90,90,112,1,onetwo,,,,,,,,,,,,,,,,,,,,,,,,,,,,,,,,,,,,,,,,,,,,,,,,,,,,,,,,,,,,,,,,,,,,,,,,,,,,,,,,,,,,,,,,,,,,,,,,,,,,,,,,,,,,,,,,,,,,,,,,,,,,,,,,,,,,,,,,,,,,,,,,,,,,,,,,
,,,,,,615444f0b14488e2b0eb13fa,62bbfa9aa22562605f507257,2022-06-29_09h09.31.330,Colour_Asymmetry_Pilot,2022.1.3,Win32,60.02040694,62bbe60bf3d75ef465d3e404,0,91,91,74,1,twoone,,,,,,,,,,,,,,,,,,,,,,,,,,,,,,,,,,,,,,,,,,,,,,,,,,,,,,,,,,,,,,,,,,,,,,,,,,,,,,,,,,,,,,,,,,,,,,,,,,,,,,,,,,,,,,,,,,,,,,,,,,,,,,,,,,,,,,,,,,,,,,,,,,,,,,,,
,,,,,,615444f0b14488e2b0eb13fa,62bbfa9aa22562605f507257,2022-06-29_09h09.31.330,Colour_Asymmetry_Pilot,2022.1.3,Win32,60.02040694,62bbe60bf3d75ef465d3e404,0,92,92,98,1,twoone,,,,,,,,,,,,,,,,,,,,,,,,,,,,,,,,,,,,,,,,,,,,,,,,,,,,,,,,,,,,,,,,,,,,,,,,,,,,,,,,,,,,,,,,,,,,,,,,,,,,,,,,,,,,,,,,,,,,,,,,,,,,,,,,,,,,,,,,,,,,,,,,,,,,,,,,
,,,,,,615444f0b14488e2b0eb13fa,62bbfa9aa22562605f507257,2022-06-29_09h09.31.330,Colour_Asymmetry_Pilot,2022.1.3,Win32,60.02040694,62bbe60bf3d75ef465d3e404,0,93,93,55,1,fourthree,,,,,,,,,,,,,,,,,,,,,,,,,,,,,,,,,,,,,,,,,,,,,,,,,,,,,,,,,,,,,,,,,,,,,,,,,,,,,,,,,,,,,,,,,,,,,,,,,,,,,,,,,,,,,,,,,,,,,,,,,,,,,,,,,,,,,,,,,,,,,,,,,,,,,,,,
,,,,,,615444f0b14488e2b0eb13fa,62bbfa9aa22562605f507257,2022-06-29_09h09.31.330,Colour_Asymmetry_Pilot,2022.1.3,Win32,60.02040694,62bbe60bf3d75ef465d3e404,0,94,94,80,1,onetwo,,,,,,,,,,,,,,,,,,,,,,,,,,,,,,,,,,,,,,,,,,,,,,,,,,,,,,,,,,,,,,,,,,,,,,,,,,,,,,,,,,,,,,,,,,,,,,,,,,,,,,,,,,,,,,,,,,,,,,,,,,,,,,,,,,,,,,,,,,,,,,,,,,,,,,,,
,,,,,,615444f0b14488e2b0eb13fa,62bbfa9aa22562605f507257,2022-06-29_09h09.31.330,Colour_Asymmetry_Pilot,2022.1.3,Win32,60.02040694,62bbe60bf3d75ef465d3e404,0,95,95,57,1,onethree,,,,,,,,,,,,,,,,,,,,,,,,,,,,,,,,,,,,,,,,,,,,,,,,,,,,,,,,,,,,,,,,,,,,,,,,,,,,,,,,,,,,,,,,,,,,,,,,,,,,,,,,,,,,,,,,,,,,,,,,,,,,,,,,,,,,,,,,,,,,,,,,,,,,,,,,
,,,,,,615444f0b14488e2b0eb13fa,62bbfa9aa22562605f507257,2022-06-29_09h09.31.330,Colour_Asymmetry_Pilot,2022.1.3,Win32,60.02040694,62bbe60bf3d75ef465d3e404,0,96,96,143,1,fourthree,,,,,,,,,,,,,,,,,,,,,,,,,,,,,,,,,,,,,,,,,,,,,,,,,,,,,,,,,,,,,,,,,,,,,,,,,,,,,,,,,,,,,,,,,,,,,,,,,,,,,,,,,,,,,,,,,,,,,,,,,,,,,,,,,,,,,,,,,,,,,,,,,,,,,,,,
,,,,,,615444f0b14488e2b0eb13fa,62bbfa9aa22562605f507257,2022-06-29_09h09.31.330,Colour_Asymmetry_Pilot,2022.1.3,Win32,60.02040694,62bbe60bf3d75ef465d3e404,0,97,97,63,1,fourthree,,,,,,,,,,,,,,,,,,,,,,,,,,,,,,,,,,,,,,,,,,,,,,,,,,,,,,,,,,,,,,,,,,,,,,,,,,,,,,,,,,,,,,,,,,,,,,,,,,,,,,,,,,,,,,,,,,,,,,,,,,,,,,,,,,,,,,,,,,,,,,,,,,,,,,,,
,,,,,,615444f0b14488e2b0eb13fa,62bbfa9aa22562605f507257,2022-06-29_09h09.31.330,Colour_Asymmetry_Pilot,2022.1.3,Win32,60.02040694,62bbe60bf3d75ef465d3e404,0,98,98,144,1,onetwo,,,,,,,,,,,,,,,,,,,,,,,,,,,,,,,,,,,,,,,,,,,,,,,,,,,,,,,,,,,,,,,,,,,,,,,,,,,,,,,,,,,,,,,,,,,,,,,,,,,,,,,,,,,,,,,,,,,,,,,,,,,,,,,,,,,,,,,,,,,,,,,,,,,,,,,,
,,,,,,615444f0b14488e2b0eb13fa,62bbfa9aa22562605f507257,2022-06-29_09h09.31.330,Colour_Asymmetry_Pilot,2022.1.3,Win32,60.02040694,62bbe60bf3d75ef465d3e404,0,99,99,87,1,fourthree,,,,,,,,,,,,,,,,,,,,,,,,,,,,,,,,,,,,,,,,,,,,,,,,,,,,,,,,,,,,,,,,,,,,,,,,,,,,,,,,,,,,,,,,,,,,,,,,,,,,,,,,,,,,,,,,,,,,,,,,,,,,,,,,,,,,,,,,,,,,,,,,,,,,,,,,
,,,,,,615444f0b14488e2b0eb13fa,62bbfa9aa22562605f507257,2022-06-29_09h09.31.330,Colour_Asymmetry_Pilot,2022.1.3,Win32,60.02040694,62bbe60bf3d75ef465d3e404,0,100,100,73,1,onethree,,,,,,,,,,,,,,,,,,,,,,,,,,,,,,,,,,,,,,,,,,,,,,,,,,,,,,,,,,,,,,,,,,,,,,,,,,,,,,,,,,,,,,,,,,,,,,,,,,,,,,,,,,,,,,,,,,,,,,,,,,,,,,,,,,,,,,,,,,,,,,,,,,,,,,,,
,,,,,,615444f0b14488e2b0eb13fa,62bbfa9aa22562605f507257,2022-06-29_09h09.31.330,Colour_Asymmetry_Pilot,2022.1.3,Win32,60.02040694,62bbe60bf3d75ef465d3e404,0,101,101,59,1,twofour,,,,,,,,,,,,,,,,,,,,,,,,,,,,,,,,,,,,,,,,,,,,,,,,,,,,,,,,,,,,,,,,,,,,,,,,,,,,,,,,,,,,,,,,,,,,,,,,,,,,,,,,,,,,,,,,,,,,,,,,,,,,,,,,,,,,,,,,,,,,,,,,,,,,,,,,
,,,,,,615444f0b14488e2b0eb13fa,62bbfa9aa22562605f507257,2022-06-29_09h09.31.330,Colour_Asymmetry_Pilot,2022.1.3,Win32,60.02040694,62bbe60bf3d75ef465d3e404,0,102,102,155,1,twofour,,,,,,,,,,,,,,,,,,,,,,,,,,,,,,,,,,,,,,,,,,,,,,,,,,,,,,,,,,,,,,,,,,,,,,,,,,,,,,,,,,,,,,,,,,,,,,,,,,,,,,,,,,,,,,,,,,,,,,,,,,,,,,,,,,,,,,,,,,,,,,,,,,,,,,,,
,,,,,,615444f0b14488e2b0eb13fa,62bbfa9aa22562605f507257,2022-06-29_09h09.31.330,Colour_Asymmetry_Pilot,2022.1.3,Win32,60.02040694,62bbe60bf3d75ef465d3e404,0,103,103,123,1,twofour,,,,,,,,,,,,,,,,,,,,,,,,,,,,,,,,,,,,,,,,,,,,,,,,,,,,,,,,,,,,,,,,,,,,,,,,,,,,,,,,,,,,,,,,,,,,,,,,,,,,,,,,,,,,,,,,,,,,,,,,,,,,,,,,,,,,,,,,,,,,,,,,,,,,,,,,
,,,,,,615444f0b14488e2b0eb13fa,62bbfa9aa22562605f507257,2022-06-29_09h09.31.330,Colour_Asymmetry_Pilot,2022.1.3,Win32,60.02040694,62bbe60bf3d75ef465d3e404,0,104,104,47,1,fourthree,,,,,,,,,,,,,,,,,,,,,,,,,,,,,,,,,,,,,,,,,,,,,,,,,,,,,,,,,,,,,,,,,,,,,,,,,,,,,,,,,,,,,,,,,,,,,,,,,,,,,,,,,,,,,,,,,,,,,,,,,,,,,,,,,,,,,,,,,,,,,,,,,,,,,,,,
,,,,,,615444f0b14488e2b0eb13fa,62bbfa9aa22562605f507257,2022-06-29_09h09.31.330,Colour_Asymmetry_Pilot,2022.1.3,Win32,60.02040694,62bbe60bf3d75ef465d3e404,0,105,105,161,1,onethree,,,,,,,,,,,,,,,,,,,,,,,,,,,,,,,,,,,,,,,,,,,,,,,,,,,,,,,,,,,,,,,,,,,,,,,,,,,,,,,,,,,,,,,,,,,,,,,,,,,,,,,,,,,,,,,,,,,,,,,,,,,,,,,,,,,,,,,,,,,,,,,,,,,,,,,,
,,,,,,615444f0b14488e2b0eb13fa,62bbfa9aa22562605f507257,2022-06-29_09h09.31.330,Colour_Asymmetry_Pilot,2022.1.3,Win32,60.02040694,62bbe60bf3d75ef465d3e404,0,106,106,69,1,threefour,,,,,,,,,,,,,,,,,,,,,,,,,,,,,,,,,,,,,,,,,,,,,,,,,,,,,,,,,,,,,,,,,,,,,,,,,,,,,,,,,,,,,,,,,,,,,,,,,,,,,,,,,,,,,,,,,,,,,,,,,,,,,,,,,,,,,,,,,,,,,,,,,,,,,,,,
,,,,,,615444f0b14488e2b0eb13fa,62bbfa9aa22562605f507257,2022-06-29_09h09.31.330,Colour_Asymmetry_Pilot,2022.1.3,Win32,60.02040694,62bbe60bf3d75ef465d3e404,0,107,107,154,1,twoone,,,,,,,,,,,,,,,,,,,,,,,,,,,,,,,,,,,,,,,,,,,,,,,,,,,,,,,,,,,,,,,,,,,,,,,,,,,,,,,,,,,,,,,,,,,,,,,,,,,,,,,,,,,,,,,,,,,,,,,,,,,,,,,,,,,,,,,,,,,,,,,,,,,,,,,,
,,,,,,615444f0b14488e2b0eb13fa,62bbfa9aa22562605f507257,2022-06-29_09h09.31.330,Colour_Asymmetry_Pilot,2022.1.3,Win32,60.02040694,62bbe60bf3d75ef465d3e404,0,108,108,36,1,threeone,,,,,,,,,,,,,,,,,,,,,,,,,,,,,,,,,,,,,,,,,,,,,,,,,,,,,,,,,,,,,,,,,,,,,,,,,,,,,,,,,,,,,,,,,,,,,,,,,,,,,,,,,,,,,,,,,,,,,,,,,,,,,,,,,,,,,,,,,,,,,,,,,,,,,,,,
,,,,,,615444f0b14488e2b0eb13fa,62bbfa9aa22562605f507257,2022-06-29_09h09.31.330,Colour_Asymmetry_Pilot,2022.1.3,Win32,60.02040694,62bbe60bf3d75ef465d3e404,0,109,109,88,1,onetwo,,,,,,,,,,,,,,,,,,,,,,,,,,,,,,,,,,,,,,,,,,,,,,,,,,,,,,,,,,,,,,,,,,,,,,,,,,,,,,,,,,,,,,,,,,,,,,,,,,,,,,,,,,,,,,,,,,,,,,,,,,,,,,,,,,,,,,,,,,,,,,,,,,,,,,,,
,,,,,,615444f0b14488e2b0eb13fa,62bbfa9aa22562605f507257,2022-06-29_09h09.31.330,Colour_Asymmetry_Pilot,2022.1.3,Win32,60.02040694,62bbe60bf3d75ef465d3e404,0,110,110,101,1,threefour,,,,,,,,,,,,,,,,,,,,,,,,,,,,,,,,,,,,,,,,,,,,,,,,,,,,,,,,,,,,,,,,,,,,,,,,,,,,,,,,,,,,,,,,,,,,,,,,,,,,,,,,,,,,,,,,,,,,,,,,,,,,,,,,,,,,,,,,,,,,,,,,,,,,,,,,
,,,,,,615444f0b14488e2b0eb13fa,62bbfa9aa22562605f507257,2022-06-29_09h09.31.330,Colour_Asymmetry_Pilot,2022.1.3,Win32,60.02040694,62bbe60bf3d75ef465d3e404,0,111,111,65,1,onethree,,,,,,,,,,,,,,,,,,,,,,,,,,,,,,,,,,,,,,,,,,,,,,,,,,,,,,,,,,,,,,,,,,,,,,,,,,,,,,,,,,,,,,,,,,,,,,,,,,,,,,,,,,,,,,,,,,,,,,,,,,,,,,,,,,,,,,,,,,,,,,,,,,,,,,,,
,,,,,,615444f0b14488e2b0eb13fa,62bbfa9aa22562605f507257,2022-06-29_09h09.31.330,Colour_Asymmetry_Pilot,2022.1.3,Win32,60.02040694,62bbe60bf3d75ef465d3e404,0,112,112,89,1,onethree,,,,,,,,,,,,,,,,,,,,,,,,,,,,,,,,,,,,,,,,,,,,,,,,,,,,,,,,,,,,,,,,,,,,,,,,,,,,,,,,,,,,,,,,,,,,,,,,,,,,,,,,,,,,,,,,,,,,,,,,,,,,,,,,,,,,,,,,,,,,,,,,,,,,,,,,
,,,,,,615444f0b14488e2b0eb13fa,62bbfa9aa22562605f507257,2022-06-29_09h09.31.330,Colour_Asymmetry_Pilot,2022.1.3,Win32,60.02040694,62bbe60bf3d75ef465d3e404,0,113,113,129,1,onethree,,,,,,,,,,,,,,,,,,,,,,,,,,,,,,,,,,,,,,,,,,,,,,,,,,,,,,,,,,,,,,,,,,,,,,,,,,,,,,,,,,,,,,,,,,,,,,,,,,,,,,,,,,,,,,,,,,,,,,,,,,,,,,,,,,,,,,,,,,,,,,,,,,,,,,,,
,,,,,,615444f0b14488e2b0eb13fa,62bbfa9aa22562605f507257,2022-06-29_09h09.31.330,Colour_Asymmetry_Pilot,2022.1.3,Win32,60.02040694,62bbe60bf3d75ef465d3e404,0,114,114,20,1,threeone,,,,,,,,,,,,,,,,,,,,,,,,,,,,,,,,,,,,,,,,,,,,,,,,,,,,,,,,,,,,,,,,,,,,,,,,,,,,,,,,,,,,,,,,,,,,,,,,,,,,,,,,,,,,,,,,,,,,,,,,,,,,,,,,,,,,,,,,,,,,,,,,,,,,,,,,
,,,,,,615444f0b14488e2b0eb13fa,62bbfa9aa22562605f507257,2022-06-29_09h09.31.330,Colour_Asymmetry_Pilot,2022.1.3,Win32,60.02040694,62bbe60bf3d75ef465d3e404,0,115,115,125,1,threefour,,,,,,,,,,,,,,,,,,,,,,,,,,,,,,,,,,,,,,,,,,,,,,,,,,,,,,,,,,,,,,,,,,,,,,,,,,,,,,,,,,,,,,,,,,,,,,,,,,,,,,,,,,,,,,,,,,,,,,,,,,,,,,,,,,,,,,,,,,,,,,,,,,,,,,,,
,,,,,,615444f0b14488e2b0eb13fa,62bbfa9aa22562605f507257,2022-06-29_09h09.31.330,Colour_Asymmetry_Pilot,2022.1.3,Win32,60.02040694,62bbe60bf3d75ef465d3e404,0,116,116,159,1,fourthree,,,,,,,,,,,,,,,,,,,,,,,,,,,,,,,,,,,,,,,,,,,,,,,,,,,,,,,,,,,,,,,,,,,,,,,,,,,,,,,,,,,,,,,,,,,,,,,,,,,,,,,,,,,,,,,,,,,,,,,,,,,,,,,,,,,,,,,,,,,,,,,,,,,,,,,,
,,,,,,615444f0b14488e2b0eb13fa,62bbfa9aa22562605f507257,2022-06-29_09h09.31.330,Colour_Asymmetry_Pilot,2022.1.3,Win32,60.02040694,62bbe60bf3d75ef465d3e404,0,117,117,17,1,onethree,,,,,,,,,,,,,,,,,,,,,,,,,,,,,,,,,,,,,,,,,,,,,,,,,,,,,,,,,,,,,,,,,,,,,,,,,,,,,,,,,,,,,,,,,,,,,,,,,,,,,,,,,,,,,,,,,,,,,,,,,,,,,,,,,,,,,,,,,,,,,,,,,,,,,,,,
,,,,,,615444f0b14488e2b0eb13fa,62bbfa9aa22562605f507257,2022-06-29_09h09.31.330,Colour_Asymmetry_Pilot,2022.1.3,Win32,60.02040694,62bbe60bf3d75ef465d3e404,0,118,118,140,1,threeone,,,,,,,,,,,,,,,,,,,,,,,,,,,,,,,,,,,,,,,,,,,,,,,,,,,,,,,,,,,,,,,,,,,,,,,,,,,,,,,,,,,,,,,,,,,,,,,,,,,,,,,,,,,,,,,,,,,,,,,,,,,,,,,,,,,,,,,,,,,,,,,,,,,,,,,,
,,,,,,615444f0b14488e2b0eb13fa,62bbfa9aa22562605f507257,2022-06-29_09h09.31.330,Colour_Asymmetry_Pilot,2022.1.3,Win32,60.02040694,62bbe60bf3d75ef465d3e404,0,119,119,41,1,onethree,,,,,,,,,,,,,,,,,,,,,,,,,,,,,,,,,,,,,,,,,,,,,,,,,,,,,,,,,,,,,,,,,,,,,,,,,,,,,,,,,,,,,,,,,,,,,,,,,,,,,,,,,,,,,,,,,,,,,,,,,,,,,,,,,,,,,,,,,,,,,,,,,,,,,,,,
,,,,,,615444f0b14488e2b0eb13fa,62bbfa9aa22562605f507257,2022-06-29_09h09.31.330,Colour_Asymmetry_Pilot,2022.1.3,Win32,60.02040694,62bbe60bf3d75ef465d3e404,0,120,120,9,1,onethree,,,,,,,,,,,,,,,,,,,,,,,,,,,,,,,,,,,,,,,,,,,,,,,,,,,,,,,,,,,,,,,,,,,,,,,,,,,,,,,,,,,,,,,,,,,,,,,,,,,,,,,,,,,,,,,,,,,,,,,,,,,,,,,,,,,,,,,,,,,,,,,,,,,,,,,,
,,,,,,615444f0b14488e2b0eb13fa,62bbfa9aa22562605f507257,2022-06-29_09h09.31.330,Colour_Asymmetry_Pilot,2022.1.3,Win32,60.02040694,62bbe60bf3d75ef465d3e404,0,121,121,156,1,threeone,,,,,,,,,,,,,,,,,,,,,,,,,,,,,,,,,,,,,,,,,,,,,,,,,,,,,,,,,,,,,,,,,,,,,,,,,,,,,,,,,,,,,,,,,,,,,,,,,,,,,,,,,,,,,,,,,,,,,,,,,,,,,,,,,,,,,,,,,,,,,,,,,,,,,,,,
,,,,,,615444f0b14488e2b0eb13fa,62bbfa9aa22562605f507257,2022-06-29_09h09.31.330,Colour_Asymmetry_Pilot,2022.1.3,Win32,60.02040694,62bbe60bf3d75ef465d3e404,0,122,122,122,1,twoone,,,,,,,,,,,,,,,,,,,,,,,,,,,,,,,,,,,,,,,,,,,,,,,,,,,,,,,,,,,,,,,,,,,,,,,,,,,,,,,,,,,,,,,,,,,,,,,,,,,,,,,,,,,,,,,,,,,,,,,,,,,,,,,,,,,,,,,,,,,,,,,,,,,,,,,,
,,,,,,615444f0b14488e2b0eb13fa,62bbfa9aa22562605f507257,2022-06-29_09h09.31.330,Colour_Asymmetry_Pilot,2022.1.3,Win32,60.02040694,62bbe60bf3d75ef465d3e404,0,123,123,21,1,threefour,,,,,,,,,,,,,,,,,,,,,,,,,,,,,,,,,,,,,,,,,,,,,,,,,,,,,,,,,,,,,,,,,,,,,,,,,,,,,,,,,,,,,,,,,,,,,,,,,,,,,,,,,,,,,,,,,,,,,,,,,,,,,,,,,,,,,,,,,,,,,,,,,,,,,,,,
,,,,,,615444f0b14488e2b0eb13fa,62bbfa9aa22562605f507257,2022-06-29_09h09.31.330,Colour_Asymmetry_Pilot,2022.1.3,Win32,60.02040694,62bbe60bf3d75ef465d3e404,0,124,124,94,1,fourtwo,,,,,,,,,,,,,,,,,,,,,,,,,,,,,,,,,,,,,,,,,,,,,,,,,,,,,,,,,,,,,,,,,,,,,,,,,,,,,,,,,,,,,,,,,,,,,,,,,,,,,,,,,,,,,,,,,,,,,,,,,,,,,,,,,,,,,,,,,,,,,,,,,,,,,,,,
,,,,,,615444f0b14488e2b0eb13fa,62bbfa9aa22562605f507257,2022-06-29_09h09.31.330,Colour_Asymmetry_Pilot,2022.1.3,Win32,60.02040694,62bbe60bf3d75ef465d3e404,0,125,125,142,1,fourtwo,,,,,,,,,,,,,,,,,,,,,,,,,,,,,,,,,,,,,,,,,,,,,,,,,,,,,,,,,,,,,,,,,,,,,,,,,,,,,,,,,,,,,,,,,,,,,,,,,,,,,,,,,,,,,,,,,,,,,,,,,,,,,,,,,,,,,,,,,,,,,,,,,,,,,,,,
,,,,,,615444f0b14488e2b0eb13fa,62bbfa9aa22562605f507257,2022-06-29_09h09.31.330,Colour_Asymmetry_Pilot,2022.1.3,Win32,60.02040694,62bbe60bf3d75ef465d3e404,0,126,126,108,1,threeone,,,,,,,,,,,,,,,,,,,,,,,,,,,,,,,,,,,,,,,,,,,,,,,,,,,,,,,,,,,,,,,,,,,,,,,,,,,,,,,,,,,,,,,,,,,,,,,,,,,,,,,,,,,,,,,,,,,,,,,,,,,,,,,,,,,,,,,,,,,,,,,,,,,,,,,,
,,,,,,615444f0b14488e2b0eb13fa,62bbfa9aa22562605f507257,2022-06-29_09h09.31.330,Colour_Asymmetry_Pilot,2022.1.3,Win32,60.02040694,62bbe60bf3d75ef465d3e404,0,127,127,100,1,threeone,,,,,,,,,,,,,,,,,,,,,,,,,,,,,,,,,,,,,,,,,,,,,,,,,,,,,,,,,,,,,,,,,,,,,,,,,,,,,,,,,,,,,,,,,,,,,,,,,,,,,,,,,,,,,,,,,,,,,,,,,,,,,,,,,,,,,,,,,,,,,,,,,,,,,,,,
,,,,,,615444f0b14488e2b0eb13fa,62bbfa9aa22562605f507257,2022-06-29_09h09.31.330,Colour_Asymmetry_Pilot,2022.1.3,Win32,60.02040694,62bbe60bf3d75ef465d3e404,0,128,128,77,1,threefour,,,,,,,,,,,,,,,,,,,,,,,,,,,,,,,,,,,,,,,,,,,,,,,,,,,,,,,,,,,,,,,,,,,,,,,,,,,,,,,,,,,,,,,,,,,,,,,,,,,,,,,,,,,,,,,,,,,,,,,,,,,,,,,,,,,,,,,,,,,,,,,,,,,,,,,,
,,,,,,615444f0b14488e2b0eb13fa,62bbfa9aa22562605f507257,2022-06-29_09h09.31.330,Colour_Asymmetry_Pilot,2022.1.3,Win32,60.02040694,62bbe60bf3d75ef465d3e404,0,129,129,0,1,onetwo,,,,,,,,,,,,,,,,,,,,,,,,,,,,,,,,,,,,,,,,,,,,,,,,,,,,,,,,,,,,,,,,,,,,,,,,,,,,,,,,,,,,,,,,,,,,,,,,,,,,,,,,,,,,,,,,,,,,,,,,,,,,,,,,,,,,,,,,,,,,,,,,,,,,,,,,
,,,,,,615444f0b14488e2b0eb13fa,62bbfa9aa22562605f507257,2022-06-29_09h09.31.330,Colour_Asymmetry_Pilot,2022.1.3,Win32,60.02040694,62bbe60bf3d75ef465d3e404,0,130,130,40,1,onetwo,,,,,,,,,,,,,,,,,,,,,,,,,,,,,,,,,,,,,,,,,,,,,,,,,,,,,,,,,,,,,,,,,,,,,,,,,,,,,,,,,,,,,,,,,,,,,,,,,,,,,,,,,,,,,,,,,,,,,,,,,,,,,,,,,,,,,,,,,,,,,,,,,,,,,,,,
,,,,,,615444f0b14488e2b0eb13fa,62bbfa9aa22562605f507257,2022-06-29_09h09.31.330,Colour_Asymmetry_Pilot,2022.1.3,Win32,60.02040694,62bbe60bf3d75ef465d3e404,0,131,131,85,1,threefour,,,,,,,,,,,,,,,,,,,,,,,,,,,,,,,,,,,,,,,,,,,,,,,,,,,,,,,,,,,,,,,,,,,,,,,,,,,,,,,,,,,,,,,,,,,,,,,,,,,,,,,,,,,,,,,,,,,,,,,,,,,,,,,,,,,,,,,,,,,,,,,,,,,,,,,,
,,,,,,615444f0b14488e2b0eb13fa,62bbfa9aa22562605f507257,2022-06-29_09h09.31.330,Colour_Asymmetry_Pilot,2022.1.3,Win32,60.02040694,62bbe60bf3d75ef465d3e404,0,132,132,61,1,threefour,,,,,,,,,,,,,,,,,,,,,,,,,,,,,,,,,,,,,,,,,,,,,,,,,,,,,,,,,,,,,,,,,,,,,,,,,,,,,,,,,,,,,,,,,,,,,,,,,,,,,,,,,,,,,,,,,,,,,,,,,,,,,,,,,,,,,,,,,,,,,,,,,,,,,,,,
,,,,,,615444f0b14488e2b0eb13fa,62bbfa9aa22562605f507257,2022-06-29_09h09.31.330,Colour_Asymmetry_Pilot,2022.1.3,Win32,60.02040694,62bbe60bf3d75ef465d3e404,0,133,133,83,1,twofour,,,,,,,,,,,,,,,,,,,,,,,,,,,,,,,,,,,,,,,,,,,,,,,,,,,,,,,,,,,,,,,,,,,,,,,,,,,,,,,,,,,,,,,,,,,,,,,,,,,,,,,,,,,,,,,,,,,,,,,,,,,,,,,,,,,,,,,,,,,,,,,,,,,,,,,,
,,,,,,615444f0b14488e2b0eb13fa,62bbfa9aa22562605f507257,2022-06-29_09h09.31.330,Colour_Asymmetry_Pilot,2022.1.3,Win32,60.02040694,62bbe60bf3d75ef465d3e404,0,134,134,44,1,threeone,,,,,,,,,,,,,,,,,,,,,,,,,,,,,,,,,,,,,,,,,,,,,,,,,,,,,,,,,,,,,,,,,,,,,,,,,,,,,,,,,,,,,,,,,,,,,,,,,,,,,,,,,,,,,,,,,,,,,,,,,,,,,,,,,,,,,,,,,,,,,,,,,,,,,,,,
,,,,,,615444f0b14488e2b0eb13fa,62bbfa9aa22562605f507257,2022-06-29_09h09.31.330,Colour_Asymmetry_Pilot,2022.1.3,Win32,60.02040694,62bbe60bf3d75ef465d3e404,0,135,135,121,1,onethree,,,,,,,,,,,,,,,,,,,,,,,,,,,,,,,,,,,,,,,,,,,,,,,,,,,,,,,,,,,,,,,,,,,,,,,,,,,,,,,,,,,,,,,,,,,,,,,,,,,,,,,,,,,,,,,,,,,,,,,,,,,,,,,,,,,,,,,,,,,,,,,,,,,,,,,,
,,,,,,615444f0b14488e2b0eb13fa,62bbfa9aa22562605f507257,2022-06-29_09h09.31.330,Colour_Asymmetry_Pilot,2022.1.3,Win32,60.02040694,62bbe60bf3d75ef465d3e404,0,136,136,158,1,fourtwo,,,,,,,,,,,,,,,,,,,,,,,,,,,,,,,,,,,,,,,,,,,,,,,,,,,,,,,,,,,,,,,,,,,,,,,,,,,,,,,,,,,,,,,,,,,,,,,,,,,,,,,,,,,,,,,,,,,,,,,,,,,,,,,,,,,,,,,,,,,,,,,,,,,,,,,,
,,,,,,615444f0b14488e2b0eb13fa,62bbfa9aa22562605f507257,2022-06-29_09h09.31.330,Colour_Asymmetry_Pilot,2022.1.3,Win32,60.02040694,62bbe60bf3d75ef465d3e404,0,137,137,14,1,fourtwo,,,,,,,,,,,,,,,,,,,,,,,,,,,,,,,,,,,,,,,,,,,,,,,,,,,,,,,,,,,,,,,,,,,,,,,,,,,,,,,,,,,,,,,,,,,,,,,,,,,,,,,,,,,,,,,,,,,,,,,,,,,,,,,,,,,,,,,,,,,,,,,,,,,,,,,,
,,,,,,615444f0b14488e2b0eb13fa,62bbfa9aa22562605f507257,2022-06-29_09h09.31.330,Colour_Asymmetry_Pilot,2022.1.3,Win32,60.02040694,62bbe60bf3d75ef465d3e404,0,138,138,99,1,twofour,,,,,,,,,,,,,,,,,,,,,,,,,,,,,,,,,,,,,,,,,,,,,,,,,,,,,,,,,,,,,,,,,,,,,,,,,,,,,,,,,,,,,,,,,,,,,,,,,,,,,,,,,,,,,,,,,,,,,,,,,,,,,,,,,,,,,,,,,,,,,,,,,,,,,,,,
,,,,,,615444f0b14488e2b0eb13fa,62bbfa9aa22562605f507257,2022-06-29_09h09.31.330,Colour_Asymmetry_Pilot,2022.1.3,Win32,60.02040694,62bbe60bf3d75ef465d3e404,0,139,139,90,1,twoone,,,,,,,,,,,,,,,,,,,,,,,,,,,,,,,,,,,,,,,,,,,,,,,,,,,,,,,,,,,,,,,,,,,,,,,,,,,,,,,,,,,,,,,,,,,,,,,,,,,,,,,,,,,,,,,,,,,,,,,,,,,,,,,,,,,,,,,,,,,,,,,,,,,,,,,,
,,,,,,615444f0b14488e2b0eb13fa,62bbfa9aa22562605f507257,2022-06-29_09h09.31.330,Colour_Asymmetry_Pilot,2022.1.3,Win32,60.02040694,62bbe60bf3d75ef465d3e404,0,140,140,6,1,fourtwo,,,,,,,,,,,,,,,,,,,,,,,,,,,,,,,,,,,,,,,,,,,,,,,,,,,,,,,,,,,,,,,,,,,,,,,,,,,,,,,,,,,,,,,,,,,,,,,,,,,,,,,,,,,,,,,,,,,,,,,,,,,,,,,,,,,,,,,,,,,,,,,,,,,,,,,,
,,,,,,615444f0b14488e2b0eb13fa,62bbfa9aa22562605f507257,2022-06-29_09h09.31.330,Colour_Asymmetry_Pilot,2022.1.3,Win32,60.02040694,62bbe60bf3d75ef465d3e404,0,141,141,115,1,twofour,,,,,,,,,,,,,,,,,,,,,,,,,,,,,,,,,,,,,,,,,,,,,,,,,,,,,,,,,,,,,,,,,,,,,,,,,,,,,,,,,,,,,,,,,,,,,,,,,,,,,,,,,,,,,,,,,,,,,,,,,,,,,,,,,,,,,,,,,,,,,,,,,,,,,,,,
,,,,,,615444f0b14488e2b0eb13fa,62bbfa9aa22562605f507257,2022-06-29_09h09.31.330,Colour_Asymmetry_Pilot,2022.1.3,Win32,60.02040694,62bbe60bf3d75ef465d3e404,0,142,142,71,1,fourthree,,,,,,,,,,,,,,,,,,,,,,,,,,,,,,,,,,,,,,,,,,,,,,,,,,,,,,,,,,,,,,,,,,,,,,,,,,,,,,,,,,,,,,,,,,,,,,,,,,,,,,,,,,,,,,,,,,,,,,,,,,,,,,,,,,,,,,,,,,,,,,,,,,,,,,,,
,,,,,,615444f0b14488e2b0eb13fa,62bbfa9aa22562605f507257,2022-06-29_09h09.31.330,Colour_Asymmetry_Pilot,2022.1.3,Win32,60.02040694,62bbe60bf3d75ef465d3e404,0,143,143,16,1,onetwo,,,,,,,,,,,,,,,,,,,,,,,,,,,,,,,,,,,,,,,,,,,,,,,,,,,,,,,,,,,,,,,,,,,,,,,,,,,,,,,,,,,,,,,,,,,,,,,,,,,,,,,,,,,,,,,,,,,,,,,,,,,,,,,,,,,,,,,,,,,,,,,,,,,,,,,,
,,,,,,615444f0b14488e2b0eb13fa,62bbfa9aa22562605f507257,2022-06-29_09h09.31.330,Colour_Asymmetry_Pilot,2022.1.3,Win32,60.02040694,62bbe60bf3d75ef465d3e404,0,144,144,52,1,threeone,,,,,,,,,,,,,,,,,,,,,,,,,,,,,,,,,,,,,,,,,,,,,,,,,,,,,,,,,,,,,,,,,,,,,,,,,,,,,,,,,,,,,,,,,,,,,,,,,,,,,,,,,,,,,,,,,,,,,,,,,,,,,,,,,,,,,,,,,,,,,,,,,,,,,,,,
,,,,,,615444f0b14488e2b0eb13fa,62bbfa9aa22562605f507257,2022-06-29_09h09.31.330,Colour_Asymmetry_Pilot,2022.1.3,Win32,60.02040694,62bbe60bf3d75ef465d3e404,0,145,145,93,1,threefour,,,,,,,,,,,,,,,,,,,,,,,,,,,,,,,,,,,,,,,,,,,,,,,,,,,,,,,,,,,,,,,,,,,,,,,,,,,,,,,,,,,,,,,,,,,,,,,,,,,,,,,,,,,,,,,,,,,,,,,,,,,,,,,,,,,,,,,,,,,,,,,,,,,,,,,,
,,,,,,615444f0b14488e2b0eb13fa,62bbfa9aa22562605f507257,2022-06-29_09h09.31.330,Colour_Asymmetry_Pilot,2022.1.3,Win32,60.02040694,62bbe60bf3d75ef465d3e404,0,146,146,149,1,threefour,,,,,,,,,,,,,,,,,,,,,,,,,,,,,,,,,,,,,,,,,,,,,,,,,,,,,,,,,,,,,,,,,,,,,,,,,,,,,,,,,,,,,,,,,,,,,,,,,,,,,,,,,,,,,,,,,,,,,,,,,,,,,,,,,,,,,,,,,,,,,,,,,,,,,,,,
,,,,,,615444f0b14488e2b0eb13fa,62bbfa9aa22562605f507257,2022-06-29_09h09.31.330,Colour_Asymmetry_Pilot,2022.1.3,Win32,60.02040694,62bbe60bf3d75ef465d3e404,0,147,147,28,1,threeone,,,,,,,,,,,,,,,,,,,,,,,,,,,,,,,,,,,,,,,,,,,,,,,,,,,,,,,,,,,,,,,,,,,,,,,,,,,,,,,,,,,,,,,,,,,,,,,,,,,,,,,,,,,,,,,,,,,,,,,,,,,,,,,,,,,,,,,,,,,,,,,,,,,,,,,,
,,,,,,615444f0b14488e2b0eb13fa,62bbfa9aa22562605f507257,2022-06-29_09h09.31.330,Colour_Asymmetry_Pilot,2022.1.3,Win32,60.02040694,62bbe60bf3d75ef465d3e404,0,148,148,105,1,onethree,,,,,,,,,,,,,,,,,,,,,,,,,,,,,,,,,,,,,,,,,,,,,,,,,,,,,,,,,,,,,,,,,,,,,,,,,,,,,,,,,,,,,,,,,,,,,,,,,,,,,,,,,,,,,,,,,,,,,,,,,,,,,,,,,,,,,,,,,,,,,,,,,,,,,,,,
,,,,,,615444f0b14488e2b0eb13fa,62bbfa9aa22562605f507257,2022-06-29_09h09.31.330,Colour_Asymmetry_Pilot,2022.1.3,Win32,60.02040694,62bbe60bf3d75ef465d3e404,0,149,149,58,1,twoone,,,,,,,,,,,,,,,,,,,,,,,,,,,,,,,,,,,,,,,,,,,,,,,,,,,,,,,,,,,,,,,,,,,,,,,,,,,,,,,,,,,,,,,,,,,,,,,,,,,,,,,,,,,,,,,,,,,,,,,,,,,,,,,,,,,,,,,,,,,,,,,,,,,,,,,,
,,,,,,615444f0b14488e2b0eb13fa,62bbfa9aa22562605f507257,2022-06-29_09h09.31.330,Colour_Asymmetry_Pilot,2022.1.3,Win32,60.02040694,62bbe60bf3d75ef465d3e404,0,150,150,50,1,twoone,,,,,,,,,,,,,,,,,,,,,,,,,,,,,,,,,,,,,,,,,,,,,,,,,,,,,,,,,,,,,,,,,,,,,,,,,,,,,,,,,,,,,,,,,,,,,,,,,,,,,,,,,,,,,,,,,,,,,,,,,,,,,,,,,,,,,,,,,,,,,,,,,,,,,,,,
,,,,,,615444f0b14488e2b0eb13fa,62bbfa9aa22562605f507257,2022-06-29_09h09.31.330,Colour_Asymmetry_Pilot,2022.1.3,Win32,60.02040694,62bbe60bf3d75ef465d3e404,0,151,151,136,1,onetwo,,,,,,,,,,,,,,,,,,,,,,,,,,,,,,,,,,,,,,,,,,,,,,,,,,,,,,,,,,,,,,,,,,,,,,,,,,,,,,,,,,,,,,,,,,,,,,,,,,,,,,,,,,,,,,,,,,,,,,,,,,,,,,,,,,,,,,,,,,,,,,,,,,,,,,,,
,,,,,,615444f0b14488e2b0eb13fa,62bbfa9aa22562605f507257,2022-06-29_09h09.31.330,Colour_Asymmetry_Pilot,2022.1.3,Win32,60.02040694,62bbe60bf3d75ef465d3e404,0,152,152,53,1,threefour,,,,,,,,,,,,,,,,,,,,,,,,,,,,,,,,,,,,,,,,,,,,,,,,,,,,,,,,,,,,,,,,,,,,,,,,,,,,,,,,,,,,,,,,,,,,,,,,,,,,,,,,,,,,,,,,,,,,,,,,,,,,,,,,,,,,,,,,,,,,,,,,,,,,,,,,
,,,,,,615444f0b14488e2b0eb13fa,62bbfa9aa22562605f507257,2022-06-29_09h09.31.330,Colour_Asymmetry_Pilot,2022.1.3,Win32,60.02040694,62bbe60bf3d75ef465d3e404,0,153,153,10,1,twoone,,,,,,,,,,,,,,,,,,,,,,,,,,,,,,,,,,,,,,,,,,,,,,,,,,,,,,,,,,,,,,,,,,,,,,,,,,,,,,,,,,,,,,,,,,,,,,,,,,,,,,,,,,,,,,,,,,,,,,,,,,,,,,,,,,,,,,,,,,,,,,,,,,,,,,,,
,,,,,,615444f0b14488e2b0eb13fa,62bbfa9aa22562605f507257,2022-06-29_09h09.31.330,Colour_Asymmetry_Pilot,2022.1.3,Win32,60.02040694,62bbe60bf3d75ef465d3e404,0,154,154,107,1,twofour,,,,,,,,,,,,,,,,,,,,,,,,,,,,,,,,,,,,,,,,,,,,,,,,,,,,,,,,,,,,,,,,,,,,,,,,,,,,,,,,,,,,,,,,,,,,,,,,,,,,,,,,,,,,,,,,,,,,,,,,,,,,,,,,,,,,,,,,,,,,,,,,,,,,,,,,
,,,,,,615444f0b14488e2b0eb13fa,62bbfa9aa22562605f507257,2022-06-29_09h09.31.330,Colour_Asymmetry_Pilot,2022.1.3,Win32,60.02040694,62bbe60bf3d75ef465d3e404,0,155,155,49,1,onethree,,,,,,,,,,,,,,,,,,,,,,,,,,,,,,,,,,,,,,,,,,,,,,,,,,,,,,,,,,,,,,,,,,,,,,,,,,,,,,,,,,,,,,,,,,,,,,,,,,,,,,,,,,,,,,,,,,,,,,,,,,,,,,,,,,,,,,,,,,,,,,,,,,,,,,,,
,,,,,,615444f0b14488e2b0eb13fa,62bbfa9aa22562605f507257,2022-06-29_09h09.31.330,Colour_Asymmetry_Pilot,2022.1.3,Win32,60.02040694,62bbe60bf3d75ef465d3e404,0,156,156,132,1,threeone,,,,,,,,,,,,,,,,,,,,,,,,,,,,,,,,,,,,,,,,,,,,,,,,,,,,,,,,,,,,,,,,,,,,,,,,,,,,,,,,,,,,,,,,,,,,,,,,,,,,,,,,,,,,,,,,,,,,,,,,,,,,,,,,,,,,,,,,,,,,,,,,,,,,,,,,
,,,,,,615444f0b14488e2b0eb13fa,62bbfa9aa22562605f507257,2022-06-29_09h09.31.330,Colour_Asymmetry_Pilot,2022.1.3,Win32,60.02040694,62bbe60bf3d75ef465d3e404,0,157,157,56,1,onetwo,,,,,,,,,,,,,,,,,,,,,,,,,,,,,,,,,,,,,,,,,,,,,,,,,,,,,,,,,,,,,,,,,,,,,,,,,,,,,,,,,,,,,,,,,,,,,,,,,,,,,,,,,,,,,,,,,,,,,,,,,,,,,,,,,,,,,,,,,,,,,,,,,,,,,,,,
,,,,,,615444f0b14488e2b0eb13fa,62bbfa9aa22562605f507257,2022-06-29_09h09.31.330,Colour_Asymmetry_Pilot,2022.1.3,Win32,60.02040694,62bbe60bf3d75ef465d3e404,0,158,158,91,1,twofour,,,,,,,,,,,,,,,,,,,,,,,,,,,,,,,,,,,,,,,,,,,,,,,,,,,,,,,,,,,,,,,,,,,,,,,,,,,,,,,,,,,,,,,,,,,,,,,,,,,,,,,,,,,,,,,,,,,,,,,,,,,,,,,,,,,,,,,,,,,,,,,,,,,,,,,,
,,,,,,615444f0b14488e2b0eb13fa,62bbfa9aa22562605f507257,2022-06-29_09h09.31.330,Colour_Asymmetry_Pilot,2022.1.3,Win32,60.02040694,62bbe60bf3d75ef465d3e404,0,159,159,3,1,twofour,,,,,,,,,,,,,,,,,,,,,,,,,,,,,,,,,,,,,,,,,,,,,,,,,,,,,,,,,,,,,,,,,,,,,,,,,,,,,,,,,,,,,,,,,,,,,,,,,,,,,,,,,,,,,,,,,,,,,,,,,,,,,,,,,,,,,,,,,,,,,,,,,,,,,,,,
,,,,,,615444f0b14488e2b0eb13fa,62bbfa9aa22562605f507257,2022-06-29_09h09.31.330,Colour_Asymmetry_Pilot,2022.1.3,Win32,60.02040694,62bbe60bf3d75ef465d3e404,0,160,160,141,1,threefour,,,,,,,,,,,,,,,,,,,,,,,,,,,,,,,,,,,,,,,,,,,,,,,,,,,,,,,,,,,,,,,,,,,,,,,,,,,,,,,,,,,,,,,,,,,,,,,,,,,,,,,,,,,,,,,,,,,,,,,,,,,,,,,,,,,,,,,,,,,,,,,,,,,,,,,,
,,,,,,615444f0b14488e2b0eb13fa,62bbfa9aa22562605f507257,2022-06-29_09h09.31.330,Colour_Asymmetry_Pilot,2022.1.3,Win32,60.02040694,62bbe60bf3d75ef465d3e404,0,161,161,117,1,threefour,,,,,,,,,,,,,,,,,,,,,,,,,,,,,,,,,,,,,,,,,,,,,,,,,,,,,,,,,,,,,,,,,,,,,,,,,,,,,,,,,,,,,,,,,,,,,,,,,,,,,,,,,,,,,,,,,,,,,,,,,,,,,,,,,,,,,,,,,,,,,,,,,,,,,,,,
,,,,,,615444f0b14488e2b0eb13fa,62bbfa9aa22562605f507257,2022-06-29_09h09.31.330,Colour_Asymmetry_Pilot,2022.1.3,Win32,60.02040694,62bbe60bf3d75ef465d3e404,,,,,,,space,3.5121,space,11.2118,space,37.9463,space,11.768,space,4.4103,space,3.7768,"[0.6625999999999999,0.4980000000000002,-0.357]",fourtwo,"[-0.4746,-0.0354000000000001,0.5449999999999999]",4,1.4167,43.20007324,104.7999878,1,0,0,response1disk_5,-13.59997559,-5.600036621,1,0,0,rectangle_8,113.5999756,44.79998779,1,0,0,response1disk_7,6,3,-2.400024414,0.799987793,1,0,0,rectangle_4,0,0,0,0,1,,,,,,,,,,,,,,,,,,,,,,,,,,,,,,,,,,,,,,,,,,,,,,,,,,,,,,,,,,,,,,,,,,,,,,,,,,,,,,,,,,,,,,,,,,,,,,,,,,,,,,,,
,,,,,,615444f0b14488e2b0eb13fa,62bbfa9aa22562605f507257,2022-06-29_09h09.31.330,Colour_Asymmetry_Pilot,2022.1.3,Win32,60.02040694,62bbe60bf3d75ef465d3e404,,,,,,,,,,,,,,,,,,,"[0.05879999999999996,0.2784,0.5841999999999998]",threeone,"[0.6625999999999999,0.4980000000000002,-0.357]",-3,1.5669,-112,43.20001221,1,0,0,response7disk_5,-4,-6.400024414,1,0,0,rectangle_8,-4,-6.400024414,1,0,0,,,3,-4,-6.400024414,1,0,0,,1,0,1,0,1,,,,,,,,,,,,,,,,,,,,,,,,,,,,,,,,,,,,,,,,,,,,,,,,,,,,,,,,,,,,,,,,,,,,,,,,,,,,,,,,,,,,,,,,,,,,,,,,,,,,,,,,
,,,,,,615444f0b14488e2b0eb13fa,62bbfa9aa22562605f507257,2022-06-29_09h09.31.330,Colour_Asymmetry_Pilot,2022.1.3,Win32,60.02040694,62bbe60bf3d75ef465d3e404,,,,,,,,,,,,,,,,,,,"[0.9686000000000001,0.3802000000000001,0.19999999999999996]",fourtwo,"[-0.38039999999999996,-0.4276,-0.1452]",-2,3.7668,-101.5999756,-54.40002441,1,0,0,response5disk_5,-41.59997559,-11.20001221,1,0,0,rectangle_8,-41.59997559,-11.20001221,1,0,0,,,3,-41.59997559,-11.20001221,1,0,0,,2,0,2,0,1,,,,,,,,,,,,,,,,,,,,,,,,,,,,,,,,,,,,,,,,,,,,,,,,,,,,,,,,,,,,,,,,,,,,,,,,,,,,,,,,,,,,,,,,,,,,,,,,,,,,,,,,
,,,,,,615444f0b14488e2b0eb13fa,62bbfa9aa22562605f507257,2022-06-29_09h09.31.330,Colour_Asymmetry_Pilot,2022.1.3,Win32,60.02040694,62bbe60bf3d75ef465d3e404,,,,,,,,,,,,,,,,,,,"[-0.24719999999999998,-0.0354000000000001,0.3175999999999999]",fourtwo,"[-0.9688,-0.4902000000000001,-0.12159999999999993]",3,1.8169,92,48.79998779,1,0,0,response1disk_5,-21.59997559,-4.799987793,1,0,0,rectangle_8,116.8000488,43.20001221,1,0,0,response1disk_7,6,3,-4,-16.79998779,1,0,0,rectangle_4,3,0,3,0,1,,,,,,,,,,,,,,,,,,,,,,,,,,,,,,,,,,,,,,,,,,,,,,,,,,,,,,,,,,,,,,,,,,,,,,,,,,,,,,,,,,,,,,,,,,,,,,,,,,,,,,,,
,,,,,,615444f0b14488e2b0eb13fa,62bbfa9aa22562605f507257,2022-06-29_09h09.31.330,Colour_Asymmetry_Pilot,2022.1.3,Win32,60.02040694,62bbe60bf3d75ef465d3e404,,,,,,,,,,,,,,,,,,,"[0.8274000000000001,-0.5844,-0.9452]",twoone,"[-0.8982,-0.37259999999999993,0.2784]",-4,1.5498,-50.40002441,88.79998779,1,0,0,response7disk_5,4.800048828,4,1,0,0,rectangle_8,4.800048828,4,1,0,0,,,3,4.800048828,4,1,0,0,,4,0,4,0,1,,,,,,,,,,,,,,,,,,,,,,,,,,,,,,,,,,,,,,,,,,,,,,,,,,,,,,,,,,,,,,,,,,,,,,,,,,,,,,,,,,,,,,,,,,,,,,,,,,,,,,,,
,,,,,,615444f0b14488e2b0eb13fa,62bbfa9aa22562605f507257,2022-06-29_09h09.31.330,Colour_Asymmetry_Pilot,2022.1.3,Win32,60.02040694,62bbe60bf3d75ef465d3e404,,,,,,,,,,,,,,,,,,,"[-0.4276,0.0038000000000000256,-0.3256]",fourtwo,"[-0.6,0.16860000000000008,0.44300000000000006]",-2,2.3337,-100.7999268,-40,1,0,0,response5disk_5,-1.599975586,-10.40002441,1,0,0,rectangle_8,-1.599975586,-10.40002441,1,0,0,,,3,-1.599975586,-10.40002441,1,0,0,,5,0,5,0,1,,,,,,,,,,,,,,,,,,,,,,,,,,,,,,,,,,,,,,,,,,,,,,,,,,,,,,,,,,,,,,,,,,,,,,,,,,,,,,,,,,,,,,,,,,,,,,,,,,,,,,,,
,,,,,,615444f0b14488e2b0eb13fa,62bbfa9aa22562605f507257,2022-06-29_09h09.31.330,Colour_Asymmetry_Pilot,2022.1.3,Win32,60.02040694,62bbe60bf3d75ef465d3e404,,,,,,,,,,,,,,,,,,,"[0.09799999999999986,-0.24719999999999998,0.15280000000000005]",twoone,"[-0.9138,-0.5296000000000001,-0.5529999999999999]",-2,1.1503,-85.59997559,-36,1,0,0,response5disk_5,-33.59997559,-1.600036621,1,0,0,rectangle_8,-33.59997559,-1.600036621,1,0,0,,,3,-33.59997559,-1.600036621,1,0,0,,6,0,6,0,1,,,,,,,,,,,,,,,,,,,,,,,,,,,,,,,,,,,,,,,,,,,,,,,,,,,,,,,,,,,,,,,,,,,,,,,,,,,,,,,,,,,,,,,,,,,,,,,,,,,,,,,,
,,,,,,615444f0b14488e2b0eb13fa,62bbfa9aa22562605f507257,2022-06-29_09h09.31.330,Colour_Asymmetry_Pilot,2022.1.3,Win32,60.02040694,62bbe60bf3d75ef465d3e404,,,,,,,,,,,,,,,,,,,,twofour,,-2,1.417,,,,,,,,,,,,,,,,,,,,,,,,,,,,,,,,space,4.5733,"[0.7176,-0.906,-0.6864]","[0.19199999999999995,0.18419999999999992,0.5136000000000001]",-84,-21.60003662,1,0,0,response5disk,-35.19995117,4.799987793,1,0,0,rectangle,-35.19995117,4.799987793,1,0,0,,2,0.0007,0,-35.19995117,4.799987793,1,0,0,0,0,0,44,1,44,first,,,,,,,,,,,,,,,,,,,,,,,,,,,,,,,,,,,,,,,,,,,,,,,,,,,,,,,,,,,,,,,,,,,
,,,,,,615444f0b14488e2b0eb13fa,62bbfa9aa22562605f507257,2022-06-29_09h09.31.330,Colour_Asymmetry_Pilot,2022.1.3,Win32,60.02040694,62bbe60bf3d75ef465d3e404,,,,,,,,,,,,,,,,,,,,twofour,,-1,1.5501,,,,,,,,,,,,,,,,,,,,,,,,,,,,,,,,,,"[0.37240000000000006,0.4980000000000002,-0.2864]","[0.9372,0.9450000000000001,0.8980000000000001]",-33.59997559,-80,1,0,0,response5disk,-5.599975586,18.39996338,1,0,0,rectangle,-5.599975586,18.39996338,1,0,0,,2,0.0002,0,-5.599975586,18.39996338,1,0,0,0,1,1,42,1,42,first,,,,,,,,,,,,,,,,,,,,,,,,,,,,,,,,,,,,,,,,,,,,,,,,,,,,,,,,,,,,,,,,,,,
,,,,,,615444f0b14488e2b0eb13fa,62bbfa9aa22562605f507257,2022-06-29_09h09.31.330,Colour_Asymmetry_Pilot,2022.1.3,Win32,60.02040694,62bbe60bf3d75ef465d3e404,,,,,,,,,,,,,,,,,,,,twoone,,-3,0.6998,,,,,,,,,,,,,,,,,,,,,,,,,,,,,,,,,,"[-0.06680000000000008,-0.45100000000000007,-0.906]","[-0.17659999999999998,0.3253999999999999,0.19999999999999996]",-112,48.79998779,1,0,0,response7disk,-5.599975586,8.799987793,1,0,0,rectangle,-5.599975586,8.799987793,1,0,0,,3,0.0004,0,-5.599975586,8.799987793,1,0,0,0,2,2,153,1,72,second,,,,,,,,,,,,,,,,,,,,,,,,,,,,,,,,,,,,,,,,,,,,,,,,,,,,,,,,,,,,,,,,,,,
,,,,,,615444f0b14488e2b0eb13fa,62bbfa9aa22562605f507257,2022-06-29_09h09.31.330,Colour_Asymmetry_Pilot,2022.1.3,Win32,60.02040694,62bbe60bf3d75ef465d3e404,,,,,,,,,,,,,,,,,,,,threeone,,-3,0.7333,,,,,,,,,,,,,,,,,,,,,,,,,,,,,,,,,,"[-0.26280000000000003,-0.4746,-0.2158]","[-0.2942,-0.24719999999999998,-0.357]",-97.59997559,47.20001221,1,0,0,response7disk,-24,15.20001221,1,0,0,rectangle,-24,15.20001221,1,0,0,,3,0.0001,0,-24,15.20001221,1,0,0,0,3,3,56,1,56,first,,,,,,,,,,,,,,,,,,,,,,,,,,,,,,,,,,,,,,,,,,,,,,,,,,,,,,,,,,,,,,,,,,,
,,,,,,615444f0b14488e2b0eb13fa,62bbfa9aa22562605f507257,2022-06-29_09h09.31.330,Colour_Asymmetry_Pilot,2022.1.3,Win32,60.02040694,62bbe60bf3d75ef465d3e404,,,,,,,,,,,,,,,,,,,,twoone,,-3,0.45,,,,,,,,,,,,,,,,,,,,,,,,,,,,,,,,,,"[0.18419999999999992,-0.4276,-0.404]","[-0.26280000000000003,-0.2158,-0.3256]",-86.40002441,34.39996338,1,0,0,response7disk,2.400024414,8.799987793,1,0,0,rectangle,2.400024414,8.799987793,1,0,0,,2,0.0004,0,2.400024414,8.799987793,1,0,0,0,4,4,10,1,10,first,,,,,,,,,,,,,,,,,,,,,,,,,,,,,,,,,,,,,,,,,,,,,,,,,,,,,,,,,,,,,,,,,,,
,,,,,,615444f0b14488e2b0eb13fa,62bbfa9aa22562605f507257,2022-06-29_09h09.31.330,Colour_Asymmetry_Pilot,2022.1.3,Win32,60.02040694,62bbe60bf3d75ef465d3e404,,,,,,,,,,,,,,,,,,,,onethree,,-4,0.7501,,,,,,,,,,,,,,,,,,,,,,,,,,,,,,,,,,"[-0.4276,0.0038000000000000256,-0.3256]","[0.7018,0.7802,-0.16079999999999994]",-44.79992676,96.79998779,1,0,0,response7disk,-11.19995117,16,1,0,0,rectangle,-11.19995117,16,1,0,0,,2,0.0001,0,-11.19995117,16,1,0,0,0,5,5,66,1,66,first,,,,,,,,,,,,,,,,,,,,,,,,,,,,,,,,,,,,,,,,,,,,,,,,,,,,,,,,,,,,,,,,,,,
,,,,,,615444f0b14488e2b0eb13fa,62bbfa9aa22562605f507257,2022-06-29_09h09.31.330,Colour_Asymmetry_Pilot,2022.1.3,Win32,60.02040694,62bbe60bf3d75ef465d3e404,,,,,,,,,,,,,,,,,,,,twoone,,-1,1.8168,,,,,,,,,,,,,,,,,,,,,,,,,,,,,,,,,,"[0.6547999999999998,-0.043199999999999905,-0.011800000000000033]","[-0.26280000000000003,-0.4746,-0.2158]",-32,-105.6000366,1,0,0,response5disk,26.40002441,18.39996338,1,0,0,rectangle,26.40002441,18.39996338,1,0,0,3,2,0,0,26.40002441,18.39996338,1,0,0,0,6,6,92,1,11,second,,,,,,,,,,,,,,,,,,,,,,,,,,,,,,,,,,,,,,,,,,,,,,,,,,,,,,,,,,,,,,,,,,,
,,,,,,615444f0b14488e2b0eb13fa,62bbfa9aa22562605f507257,2022-06-29_09h09.31.330,Colour_Asymmetry_Pilot,2022.1.3,Win32,60.02040694,62bbe60bf3d75ef465d3e404,,,,,,,,,,,,,,,,,,,,threeone,,-3,0.6,,,,,,,,,,,,,,,,,,,,,,,,,,,,,,,,,,"[-0.26280000000000003,-0.2158,-0.3256]","[0.18419999999999992,-0.4276,-0.404]",-99.19995117,30.39996338,1,0,0,response7disk,11.20007324,7.200012207,1,0,0,rectangle,11.20007324,7.200012207,1,0,0,3,1,0.0004,0,11.20007324,7.200012207,1,0,0,0,7,7,91,1,10,second,,,,,,,,,,,,,,,,,,,,,,,,,,,,,,,,,,,,,,,,,,,,,,,,,,,,,,,,,,,,,,,,,,,
,,,,,,615444f0b14488e2b0eb13fa,62bbfa9aa22562605f507257,2022-06-29_09h09.31.330,Colour_Asymmetry_Pilot,2022.1.3,Win32,60.02040694,62bbe60bf3d75ef465d3e404,,,,,,,,,,,,,,,,,,,,twofour,,-4,0.6001,,,,,,,,,,,,,,,,,,,,,,,,,,,,,,,,,,"[0.37240000000000006,0.4980000000000002,-0.2864]","[-0.4982,-0.2942,-0.0354000000000001]",-64,73.59997559,1,0,0,response7disk,-17.59997559,0,1,0,0,rectangle,-17.59997559,0,1,0,0,3,1,0.0002,0,-17.59997559,0,1,0,0,0,8,8,152,1,71,second,,,,,,,,,,,,,,,,,,,,,,,,,,,,,,,,,,,,,,,,,,,,,,,,,,,,,,,,,,,,,,,,,,,
,,,,,,615444f0b14488e2b0eb13fa,62bbfa9aa22562605f507257,2022-06-29_09h09.31.330,Colour_Asymmetry_Pilot,2022.1.3,Win32,60.02040694,62bbe60bf3d75ef465d3e404,,,,,,,,,,,,,,,,,,,,fourtwo,,2,1.55,,,,,,,,,,,,,,,,,,,,,,,,,,,,,,,,,,"[0.9763999999999999,0.8588,-0.05900000000000005]","[0.9686000000000001,0.5763999999999998,0.11359999999999992]",82.40002441,-63.20001221,1,0,0,response3disk,1.599975586,14.39996338,1,0,0,rectangle,1.599975586,14.39996338,1,0,0,3,1,9.99999E-05,0,1.599975586,14.39996338,1,0,0,0,9,9,113,1,32,second,,,,,,,,,,,,,,,,,,,,,,,,,,,,,,,,,,,,,,,,,,,,,,,,,,,,,,,,,,,,,,,,,,,
,,,,,,615444f0b14488e2b0eb13fa,62bbfa9aa22562605f507257,2022-06-29_09h09.31.330,Colour_Asymmetry_Pilot,2022.1.3,Win32,60.02040694,62bbe60bf3d75ef465d3e404,,,,,,,,,,,,,,,,,,,,onethree,,-4,0.6334,,,,,,,,,,,,,,,,,,,,,,,,,,,,,,,,,,"[-0.4982,-0.2942,-0.0354000000000001]","[-0.34920000000000007,-0.702,-0.5216]",-27.19995117,84.79998779,1,0,0,response7disk,8,-1.600036621,1,0,0,rectangle,8,-1.600036621,1,0,0,3,1,9.99999E-05,0,8,-1.600036621,1,0,0,0,10,10,135,1,54,second,,,,,,,,,,,,,,,,,,,,,,,,,,,,,,,,,,,,,,,,,,,,,,,,,,,,,,,,,,,,,,,,,,,
,,,,,,615444f0b14488e2b0eb13fa,62bbfa9aa22562605f507257,2022-06-29_09h09.31.330,Colour_Asymmetry_Pilot,2022.1.3,Win32,60.02040694,62bbe60bf3d75ef465d3e404,,,,,,,,,,,,,,,,,,,,onethree,,-4,0.3499,,,,,,,,,,,,,,,,,,,,,,,,,,,,,,,,,,"[-0.011800000000000033,-0.906,-0.45100000000000007]","[0.2862,0.7802,0.3568]",-49.59997559,93.59997559,1,0,0,response7disk,12,-4.799987793,1,0,0,rectangle,12,-4.799987793,1,0,0,3,2,0.0004,0,12,-4.799987793,1,0,0,0,11,11,85,1,4,second,,,,,,,,,,,,,,,,,,,,,,,,,,,,,,,,,,,,,,,,,,,,,,,,,,,,,,,,,,,,,,,,,,,
,,,,,,615444f0b14488e2b0eb13fa,62bbfa9aa22562605f507257,2022-06-29_09h09.31.330,Colour_Asymmetry_Pilot,2022.1.3,Win32,60.02040694,62bbe60bf3d75ef465d3e404,,,,,,,,,,,,,,,,,,,,onethree,,-3,0.9,,,,,,,,,,,,,,,,,,,,,,,,,,,,,,,,,,"[0.7018,0.7176,0.6155999999999999]","[0.11359999999999992,0.6312,0.5213999999999999]",-77.59997559,62.39996338,1,0,0,response7disk,10.40002441,-4,1,0,0,rectangle,10.40002441,-4,1,0,0,3,3,0.0004,0,10.40002441,-4,1,0,0,0,12,12,5,1,5,first,,,,,,,,,,,,,,,,,,,,,,,,,,,,,,,,,,,,,,,,,,,,,,,,,,,,,,,,,,,,,,,,,,,
,,,,,,615444f0b14488e2b0eb13fa,62bbfa9aa22562605f507257,2022-06-29_09h09.31.330,Colour_Asymmetry_Pilot,2022.1.3,Win32,60.02040694,62bbe60bf3d75ef465d3e404,,,,,,,,,,,,,,,,,,,,twoone,,-4,1.0168,,,,,,,,,,,,,,,,,,,,,,,,,,,,,,,,,,"[0.2862,0.7802,0.3568]","[0.09799999999999986,-0.24719999999999998,0.15280000000000005]",-48,97.59997559,1,0,0,response7disk,-0.799926758,0.799987793,1,0,0,rectangle,-0.799926758,0.799987793,1,0,0,3,1,0.0004,0,-0.799926758,0.799987793,1,0,0,0,13,13,37,1,37,first,,,,,,,,,,,,,,,,,,,,,,,,,,,,,,,,,,,,,,,,,,,,,,,,,,,,,,,,,,,,,,,,,,,
,,,,,,615444f0b14488e2b0eb13fa,62bbfa9aa22562605f507257,2022-06-29_09h09.31.330,Colour_Asymmetry_Pilot,2022.1.3,Win32,60.02040694,62bbe60bf3d75ef465d3e404,,,,,,,,,,,,,,,,,,,,threeone,,-4,0.9501,,,,,,,,,,,,,,,,,,,,,,,,,,,,,,,,,,"[-0.7412000000000001,-0.08239999999999992,-0.6864]","[-0.20799999999999996,-0.655,-0.01980000000000004]",-46.40002441,79.20001221,1,0,0,response7disk,-15.19995117,-13.60003662,1,0,0,rectangle,-15.19995117,-13.60003662,1,0,0,3,2,0.0005,0,-15.19995117,-13.60003662,1,0,0,0,14,14,98,1,17,second,,,,,,,,,,,,,,,,,,,,,,,,,,,,,,,,,,,,,,,,,,,,,,,,,,,,,,,,,,,,,,,,,,,
,,,,,,615444f0b14488e2b0eb13fa,62bbfa9aa22562605f507257,2022-06-29_09h09.31.330,Colour_Asymmetry_Pilot,2022.1.3,Win32,60.02040694,62bbe60bf3d75ef465d3e404,,,,,,,,,,,,,,,,,,,,threeone,,-4,0.4,,,,,,,,,,,,,,,,,,,,,,,,,,,,,,,,,,"[0.9372,0.20779999999999998,0.2704]","[-0.4982,-0.2942,-0.0354000000000001]",-28,54.39996338,1,0,0,response7disk,-7.199951172,-3.200012207,1,0,0,rectangle,-7.199951172,-3.200012207,1,0,0,3,2,0.0001,0,-7.199951172,-3.200012207,1,0,0,0,15,15,22,1,22,first,,,,,,,,,,,,,,,,,,,,,,,,,,,,,,,,,,,,,,,,,,,,,,,,,,,,,,,,,,,,,,,,,,,
,,,,,,615444f0b14488e2b0eb13fa,62bbfa9aa22562605f507257,2022-06-29_09h09.31.330,Colour_Asymmetry_Pilot,2022.1.3,Win32,60.02040694,62bbe60bf3d75ef465d3e404,,,,,,,,,,,,,,,,,,,,fourthree,,-3,0.5668,,,,,,,,,,,,,,,,,,,,,,,,,,,,,,,,,,"[-0.17659999999999998,0.3253999999999999,0.19999999999999996]","[-0.9688,-0.4902000000000001,-0.12159999999999993]",-94.40002441,42.39996338,1,0,0,response7disk,10.40002441,-12.79998779,1,0,0,rectangle,10.40002441,-12.79998779,1,0,0,3,2,0.0001,0,10.40002441,-12.79998779,1,0,0,0,16,16,83,1,2,second,,,,,,,,,,,,,,,,,,,,,,,,,,,,,,,,,,,,,,,,,,,,,,,,,,,,,,,,,,,,,,,,,,,
,,,,,,615444f0b14488e2b0eb13fa,62bbfa9aa22562605f507257,2022-06-29_09h09.31.330,Colour_Asymmetry_Pilot,2022.1.3,Win32,60.02040694,62bbe60bf3d75ef465d3e404,,,,,,,,,,,,,,,,,,,,fourtwo,,-4,0.6001,,,,,,,,,,,,,,,,,,,,,,,,,,,,,,,,,,"[0.40379999999999994,0.09000000000000008,0.44300000000000006]","[-0.9766,-0.6472,0.07440000000000002]",-33.59997559,93.59997559,1,0,0,response7disk,12,19.20001221,1,0,0,rectangle,12,19.20001221,1,0,0,3,3,0.0003,0,12,19.20001221,1,0,0,0,17,17,134,1,53,second,,,,,,,,,,,,,,,,,,,,,,,,,,,,,,,,,,,,,,,,,,,,,,,,,,,,,,,,,,,,,,,,,,,
