trials.thisRepN,trials.thisTrialN,trials.thisN,trials.thisIndex,trials.ran,Colourcodes,participant,session,date,expName,psychopyVersion,OS,frameRate,study_id,trials_4.thisRepN,trials_4.thisTrialN,trials_4.thisN,trials_4.thisIndex,trials_4.ran,StimulusPos,key_resp.keys,key_resp.rt,key_resp_2.keys,key_resp_2.rt,key_resp_15.keys,key_resp_15.rt,key_resp_17.keys,key_resp_17.rt,key_resp_9.keys,key_resp_9.rt,key_resp_10.keys,key_resp_10.rt,Circle1_col,Ecc,Circle2_col,similarity,response_time,mouse_5.x,mouse_5.y,mouse_5.leftButton,mouse_5.midButton,mouse_5.rightButton,mouse_5.clicked_name,mouse_10.x,mouse_10.y,mouse_10.leftButton,mouse_10.midButton,mouse_10.rightButton,mouse_10.clicked_name,mouse_7.x,mouse_7.y,mouse_7.leftButton,mouse_7.midButton,mouse_7.rightButton,catchnumberprac,mouse_6.x,mouse_6.y,mouse_6.leftButton,mouse_6.midButton,mouse_6.rightButton,duringprac.thisRepN,duringprac.thisTrialN,duringprac.thisN,duringprac.thisIndex,duringprac.ran,mouse_7.clicked_name,catchprac,mouse_6.clicked_name,key_resp_22.keys,key_resp_22.rt,Circle1_colour,Circle2_colour,mouse.x,mouse.y,mouse.leftButton,mouse.midButton,mouse.rightButton,mouse.clicked_name,mouse_2.x,mouse_2.y,mouse_2.leftButton,mouse_2.midButton,mouse_2.rightButton,mouse_2.clicked_name,mouse_3.x,mouse_3.y,mouse_3.leftButton,mouse_3.midButton,mouse_3.rightButton,catchresponse,catchnumber,response_time_catch,Catch,mouse_11.x,mouse_11.y,mouse_11.leftButton,mouse_11.midButton,mouse_11.rightButton,trials_2.thisRepN,trials_2.thisTrialN,trials_2.thisN,trials_2.thisIndex,trials_2.ran,Colourpair,Temporder,mouse_3.clicked_name,mouse_11.clicked_name,trials_3.thisRepN,trials_3.thisTrialN,trials_3.thisN,trials_3.thisIndex,trials_3.ran,key_resp_instr_Ishi.keys,key_resp_instr_Ishi.rt,Ishi_trial_keyresp.keys,Ishi_trial_keyresp.rt,Ishi_textbox.text,Ishi_loop.thisRepN,Ishi_loop.thisTrialN,Ishi_loop.thisN,Ishi_loop.thisIndex,Ishi_loop.ran,imageaddress,textbox.text,mouse_4.x,mouse_4.y,mouse_4.leftButton,mouse_4.midButton,mouse_4.rightButton,mouse_4.clicked_name,textbox_2.text,mouse_8.x,mouse_8.y,mouse_8.leftButton,mouse_8.midButton,mouse_8.rightButton,mouse_8.clicked_name,textbox_3.text,mouse_9.x,mouse_9.y,mouse_9.leftButton,mouse_9.midButton,mouse_9.rightButton,mouse_9.clicked_name,textbox_4.text,mouse_12.x,mouse_12.y,mouse_12.leftButton,mouse_12.midButton,mouse_12.rightButton,mouse_12.clicked_name,textbox_5.text,mouse_13.x,mouse_13.y,mouse_13.leftButton,mouse_13.midButton,mouse_13.rightButton,mouse_13.clicked_name,textbox_6.text,mouse_14.x,mouse_14.y,mouse_14.leftButton,mouse_14.midButton,mouse_14.rightButton,mouse_14.clicked_name,textbox_7.text,mouse_15.x,mouse_15.y,mouse_15.leftButton,mouse_15.midButton,mouse_15.rightButton,mouse_15.clicked_name
0,0,0,14,1,,6106692c478cb3f1603657ed,62bbfad4447d54b1ac67c6f5,2022-06-29_09h57.37.912,Colour_Asymmetry_Pilot,2022.1.3,Win32,59.91970759,62bbe60bf3d75ef465d3e404,,,,,,,,,,,,,,,,,,,,,,,,,,,,,,,,,,,,,,,,,,,,,,,,,,,,,,,,,,,,,,,,,,,,,,,,,,,,,,,,,,,,,,,,,,,,,,,,,,,,,,,,,,,,,,,,,,,,,,,,,,,,,,,,,,,,,,,,,,,,,,,,,,,,,,,,,,,,,,
0,1,1,16,1,,6106692c478cb3f1603657ed,62bbfad4447d54b1ac67c6f5,2022-06-29_09h57.37.912,Colour_Asymmetry_Pilot,2022.1.3,Win32,59.91970759,62bbe60bf3d75ef465d3e404,,,,,,,,,,,,,,,,,,,,,,,,,,,,,,,,,,,,,,,,,,,,,,,,,,,,,,,,,,,,,,,,,,,,,,,,,,,,,,,,,,,,,,,,,,,,,,,,,,,,,,,,,,,,,,,,,,,,,,,,,,,,,,,,,,,,,,,,,,,,,,,,,,,,,,,,,,,,,,
0,2,2,55,1,,6106692c478cb3f1603657ed,62bbfad4447d54b1ac67c6f5,2022-06-29_09h57.37.912,Colour_Asymmetry_Pilot,2022.1.3,Win32,59.91970759,62bbe60bf3d75ef465d3e404,,,,,,,,,,,,,,,,,,,,,,,,,,,,,,,,,,,,,,,,,,,,,,,,,,,,,,,,,,,,,,,,,,,,,,,,,,,,,,,,,,,,,,,,,,,,,,,,,,,,,,,,,,,,,,,,,,,,,,,,,,,,,,,,,,,,,,,,,,,,,,,,,,,,,,,,,,,,,,
0,3,3,65,1,,6106692c478cb3f1603657ed,62bbfad4447d54b1ac67c6f5,2022-06-29_09h57.37.912,Colour_Asymmetry_Pilot,2022.1.3,Win32,59.91970759,62bbe60bf3d75ef465d3e404,,,,,,,,,,,,,,,,,,,,,,,,,,,,,,,,,,,,,,,,,,,,,,,,,,,,,,,,,,,,,,,,,,,,,,,,,,,,,,,,,,,,,,,,,,,,,,,,,,,,,,,,,,,,,,,,,,,,,,,,,,,,,,,,,,,,,,,,,,,,,,,,,,,,,,,,,,,,,,
0,4,4,58,1,,6106692c478cb3f1603657ed,62bbfad4447d54b1ac67c6f5,2022-06-29_09h57.37.912,Colour_Asymmetry_Pilot,2022.1.3,Win32,59.91970759,62bbe60bf3d75ef465d3e404,,,,,,,,,,,,,,,,,,,,,,,,,,,,,,,,,,,,,,,,,,,,,,,,,,,,,,,,,,,,,,,,,,,,,,,,,,,,,,,,,,,,,,,,,,,,,,,,,,,,,,,,,,,,,,,,,,,,,,,,,,,,,,,,,,,,,,,,,,,,,,,,,,,,,,,,,,,,,,
0,5,5,9,1,,6106692c478cb3f1603657ed,62bbfad4447d54b1ac67c6f5,2022-06-29_09h57.37.912,Colour_Asymmetry_Pilot,2022.1.3,Win32,59.91970759,62bbe60bf3d75ef465d3e404,,,,,,,,,,,,,,,,,,,,,,,,,,,,,,,,,,,,,,,,,,,,,,,,,,,,,,,,,,,,,,,,,,,,,,,,,,,,,,,,,,,,,,,,,,,,,,,,,,,,,,,,,,,,,,,,,,,,,,,,,,,,,,,,,,,,,,,,,,,,,,,,,,,,,,,,,,,,,,
0,6,6,24,1,,6106692c478cb3f1603657ed,62bbfad4447d54b1ac67c6f5,2022-06-29_09h57.37.912,Colour_Asymmetry_Pilot,2022.1.3,Win32,59.91970759,62bbe60bf3d75ef465d3e404,,,,,,,,,,,,,,,,,,,,,,,,,,,,,,,,,,,,,,,,,,,,,,,,,,,,,,,,,,,,,,,,,,,,,,,,,,,,,,,,,,,,,,,,,,,,,,,,,,,,,,,,,,,,,,,,,,,,,,,,,,,,,,,,,,,,,,,,,,,,,,,,,,,,,,,,,,,,,,
0,7,7,4,1,,6106692c478cb3f1603657ed,62bbfad4447d54b1ac67c6f5,2022-06-29_09h57.37.912,Colour_Asymmetry_Pilot,2022.1.3,Win32,59.91970759,62bbe60bf3d75ef465d3e404,,,,,,,,,,,,,,,,,,,,,,,,,,,,,,,,,,,,,,,,,,,,,,,,,,,,,,,,,,,,,,,,,,,,,,,,,,,,,,,,,,,,,,,,,,,,,,,,,,,,,,,,,,,,,,,,,,,,,,,,,,,,,,,,,,,,,,,,,,,,,,,,,,,,,,,,,,,,,,
0,8,8,91,1,,6106692c478cb3f1603657ed,62bbfad4447d54b1ac67c6f5,2022-06-29_09h57.37.912,Colour_Asymmetry_Pilot,2022.1.3,Win32,59.91970759,62bbe60bf3d75ef465d3e404,,,,,,,,,,,,,,,,,,,,,,,,,,,,,,,,,,,,,,,,,,,,,,,,,,,,,,,,,,,,,,,,,,,,,,,,,,,,,,,,,,,,,,,,,,,,,,,,,,,,,,,,,,,,,,,,,,,,,,,,,,,,,,,,,,,,,,,,,,,,,,,,,,,,,,,,,,,,,,
0,9,9,7,1,,6106692c478cb3f1603657ed,62bbfad4447d54b1ac67c6f5,2022-06-29_09h57.37.912,Colour_Asymmetry_Pilot,2022.1.3,Win32,59.91970759,62bbe60bf3d75ef465d3e404,,,,,,,,,,,,,,,,,,,,,,,,,,,,,,,,,,,,,,,,,,,,,,,,,,,,,,,,,,,,,,,,,,,,,,,,,,,,,,,,,,,,,,,,,,,,,,,,,,,,,,,,,,,,,,,,,,,,,,,,,,,,,,,,,,,,,,,,,,,,,,,,,,,,,,,,,,,,,,
0,10,10,68,1,,6106692c478cb3f1603657ed,62bbfad4447d54b1ac67c6f5,2022-06-29_09h57.37.912,Colour_Asymmetry_Pilot,2022.1.3,Win32,59.91970759,62bbe60bf3d75ef465d3e404,,,,,,,,,,,,,,,,,,,,,,,,,,,,,,,,,,,,,,,,,,,,,,,,,,,,,,,,,,,,,,,,,,,,,,,,,,,,,,,,,,,,,,,,,,,,,,,,,,,,,,,,,,,,,,,,,,,,,,,,,,,,,,,,,,,,,,,,,,,,,,,,,,,,,,,,,,,,,,
0,11,11,39,1,,6106692c478cb3f1603657ed,62bbfad4447d54b1ac67c6f5,2022-06-29_09h57.37.912,Colour_Asymmetry_Pilot,2022.1.3,Win32,59.91970759,62bbe60bf3d75ef465d3e404,,,,,,,,,,,,,,,,,,,,,,,,,,,,,,,,,,,,,,,,,,,,,,,,,,,,,,,,,,,,,,,,,,,,,,,,,,,,,,,,,,,,,,,,,,,,,,,,,,,,,,,,,,,,,,,,,,,,,,,,,,,,,,,,,,,,,,,,,,,,,,,,,,,,,,,,,,,,,,
0,12,12,18,1,,6106692c478cb3f1603657ed,62bbfad4447d54b1ac67c6f5,2022-06-29_09h57.37.912,Colour_Asymmetry_Pilot,2022.1.3,Win32,59.91970759,62bbe60bf3d75ef465d3e404,,,,,,,,,,,,,,,,,,,,,,,,,,,,,,,,,,,,,,,,,,,,,,,,,,,,,,,,,,,,,,,,,,,,,,,,,,,,,,,,,,,,,,,,,,,,,,,,,,,,,,,,,,,,,,,,,,,,,,,,,,,,,,,,,,,,,,,,,,,,,,,,,,,,,,,,,,,,,,
0,13,13,77,1,,6106692c478cb3f1603657ed,62bbfad4447d54b1ac67c6f5,2022-06-29_09h57.37.912,Colour_Asymmetry_Pilot,2022.1.3,Win32,59.91970759,62bbe60bf3d75ef465d3e404,,,,,,,,,,,,,,,,,,,,,,,,,,,,,,,,,,,,,,,,,,,,,,,,,,,,,,,,,,,,,,,,,,,,,,,,,,,,,,,,,,,,,,,,,,,,,,,,,,,,,,,,,,,,,,,,,,,,,,,,,,,,,,,,,,,,,,,,,,,,,,,,,,,,,,,,,,,,,,
0,14,14,50,1,,6106692c478cb3f1603657ed,62bbfad4447d54b1ac67c6f5,2022-06-29_09h57.37.912,Colour_Asymmetry_Pilot,2022.1.3,Win32,59.91970759,62bbe60bf3d75ef465d3e404,,,,,,,,,,,,,,,,,,,,,,,,,,,,,,,,,,,,,,,,,,,,,,,,,,,,,,,,,,,,,,,,,,,,,,,,,,,,,,,,,,,,,,,,,,,,,,,,,,,,,,,,,,,,,,,,,,,,,,,,,,,,,,,,,,,,,,,,,,,,,,,,,,,,,,,,,,,,,,
0,15,15,90,1,,6106692c478cb3f1603657ed,62bbfad4447d54b1ac67c6f5,2022-06-29_09h57.37.912,Colour_Asymmetry_Pilot,2022.1.3,Win32,59.91970759,62bbe60bf3d75ef465d3e404,,,,,,,,,,,,,,,,,,,,,,,,,,,,,,,,,,,,,,,,,,,,,,,,,,,,,,,,,,,,,,,,,,,,,,,,,,,,,,,,,,,,,,,,,,,,,,,,,,,,,,,,,,,,,,,,,,,,,,,,,,,,,,,,,,,,,,,,,,,,,,,,,,,,,,,,,,,,,,
0,16,16,61,1,,6106692c478cb3f1603657ed,62bbfad4447d54b1ac67c6f5,2022-06-29_09h57.37.912,Colour_Asymmetry_Pilot,2022.1.3,Win32,59.91970759,62bbe60bf3d75ef465d3e404,,,,,,,,,,,,,,,,,,,,,,,,,,,,,,,,,,,,,,,,,,,,,,,,,,,,,,,,,,,,,,,,,,,,,,,,,,,,,,,,,,,,,,,,,,,,,,,,,,,,,,,,,,,,,,,,,,,,,,,,,,,,,,,,,,,,,,,,,,,,,,,,,,,,,,,,,,,,,,
0,17,17,83,1,,6106692c478cb3f1603657ed,62bbfad4447d54b1ac67c6f5,2022-06-29_09h57.37.912,Colour_Asymmetry_Pilot,2022.1.3,Win32,59.91970759,62bbe60bf3d75ef465d3e404,,,,,,,,,,,,,,,,,,,,,,,,,,,,,,,,,,,,,,,,,,,,,,,,,,,,,,,,,,,,,,,,,,,,,,,,,,,,,,,,,,,,,,,,,,,,,,,,,,,,,,,,,,,,,,,,,,,,,,,,,,,,,,,,,,,,,,,,,,,,,,,,,,,,,,,,,,,,,,
0,18,18,69,1,,6106692c478cb3f1603657ed,62bbfad4447d54b1ac67c6f5,2022-06-29_09h57.37.912,Colour_Asymmetry_Pilot,2022.1.3,Win32,59.91970759,62bbe60bf3d75ef465d3e404,,,,,,,,,,,,,,,,,,,,,,,,,,,,,,,,,,,,,,,,,,,,,,,,,,,,,,,,,,,,,,,,,,,,,,,,,,,,,,,,,,,,,,,,,,,,,,,,,,,,,,,,,,,,,,,,,,,,,,,,,,,,,,,,,,,,,,,,,,,,,,,,,,,,,,,,,,,,,,
0,19,19,60,1,,6106692c478cb3f1603657ed,62bbfad4447d54b1ac67c6f5,2022-06-29_09h57.37.912,Colour_Asymmetry_Pilot,2022.1.3,Win32,59.91970759,62bbe60bf3d75ef465d3e404,,,,,,,,,,,,,,,,,,,,,,,,,,,,,,,,,,,,,,,,,,,,,,,,,,,,,,,,,,,,,,,,,,,,,,,,,,,,,,,,,,,,,,,,,,,,,,,,,,,,,,,,,,,,,,,,,,,,,,,,,,,,,,,,,,,,,,,,,,,,,,,,,,,,,,,,,,,,,,
0,20,20,86,1,,6106692c478cb3f1603657ed,62bbfad4447d54b1ac67c6f5,2022-06-29_09h57.37.912,Colour_Asymmetry_Pilot,2022.1.3,Win32,59.91970759,62bbe60bf3d75ef465d3e404,,,,,,,,,,,,,,,,,,,,,,,,,,,,,,,,,,,,,,,,,,,,,,,,,,,,,,,,,,,,,,,,,,,,,,,,,,,,,,,,,,,,,,,,,,,,,,,,,,,,,,,,,,,,,,,,,,,,,,,,,,,,,,,,,,,,,,,,,,,,,,,,,,,,,,,,,,,,,,
0,21,21,33,1,,6106692c478cb3f1603657ed,62bbfad4447d54b1ac67c6f5,2022-06-29_09h57.37.912,Colour_Asymmetry_Pilot,2022.1.3,Win32,59.91970759,62bbe60bf3d75ef465d3e404,,,,,,,,,,,,,,,,,,,,,,,,,,,,,,,,,,,,,,,,,,,,,,,,,,,,,,,,,,,,,,,,,,,,,,,,,,,,,,,,,,,,,,,,,,,,,,,,,,,,,,,,,,,,,,,,,,,,,,,,,,,,,,,,,,,,,,,,,,,,,,,,,,,,,,,,,,,,,,
0,22,22,25,1,,6106692c478cb3f1603657ed,62bbfad4447d54b1ac67c6f5,2022-06-29_09h57.37.912,Colour_Asymmetry_Pilot,2022.1.3,Win32,59.91970759,62bbe60bf3d75ef465d3e404,,,,,,,,,,,,,,,,,,,,,,,,,,,,,,,,,,,,,,,,,,,,,,,,,,,,,,,,,,,,,,,,,,,,,,,,,,,,,,,,,,,,,,,,,,,,,,,,,,,,,,,,,,,,,,,,,,,,,,,,,,,,,,,,,,,,,,,,,,,,,,,,,,,,,,,,,,,,,,
0,23,23,46,1,,6106692c478cb3f1603657ed,62bbfad4447d54b1ac67c6f5,2022-06-29_09h57.37.912,Colour_Asymmetry_Pilot,2022.1.3,Win32,59.91970759,62bbe60bf3d75ef465d3e404,,,,,,,,,,,,,,,,,,,,,,,,,,,,,,,,,,,,,,,,,,,,,,,,,,,,,,,,,,,,,,,,,,,,,,,,,,,,,,,,,,,,,,,,,,,,,,,,,,,,,,,,,,,,,,,,,,,,,,,,,,,,,,,,,,,,,,,,,,,,,,,,,,,,,,,,,,,,,,
0,24,24,78,1,,6106692c478cb3f1603657ed,62bbfad4447d54b1ac67c6f5,2022-06-29_09h57.37.912,Colour_Asymmetry_Pilot,2022.1.3,Win32,59.91970759,62bbe60bf3d75ef465d3e404,,,,,,,,,,,,,,,,,,,,,,,,,,,,,,,,,,,,,,,,,,,,,,,,,,,,,,,,,,,,,,,,,,,,,,,,,,,,,,,,,,,,,,,,,,,,,,,,,,,,,,,,,,,,,,,,,,,,,,,,,,,,,,,,,,,,,,,,,,,,,,,,,,,,,,,,,,,,,,
0,25,25,70,1,,6106692c478cb3f1603657ed,62bbfad4447d54b1ac67c6f5,2022-06-29_09h57.37.912,Colour_Asymmetry_Pilot,2022.1.3,Win32,59.91970759,62bbe60bf3d75ef465d3e404,,,,,,,,,,,,,,,,,,,,,,,,,,,,,,,,,,,,,,,,,,,,,,,,,,,,,,,,,,,,,,,,,,,,,,,,,,,,,,,,,,,,,,,,,,,,,,,,,,,,,,,,,,,,,,,,,,,,,,,,,,,,,,,,,,,,,,,,,,,,,,,,,,,,,,,,,,,,,,
0,26,26,87,1,,6106692c478cb3f1603657ed,62bbfad4447d54b1ac67c6f5,2022-06-29_09h57.37.912,Colour_Asymmetry_Pilot,2022.1.3,Win32,59.91970759,62bbe60bf3d75ef465d3e404,,,,,,,,,,,,,,,,,,,,,,,,,,,,,,,,,,,,,,,,,,,,,,,,,,,,,,,,,,,,,,,,,,,,,,,,,,,,,,,,,,,,,,,,,,,,,,,,,,,,,,,,,,,,,,,,,,,,,,,,,,,,,,,,,,,,,,,,,,,,,,,,,,,,,,,,,,,,,,
0,27,27,84,1,,6106692c478cb3f1603657ed,62bbfad4447d54b1ac67c6f5,2022-06-29_09h57.37.912,Colour_Asymmetry_Pilot,2022.1.3,Win32,59.91970759,62bbe60bf3d75ef465d3e404,,,,,,,,,,,,,,,,,,,,,,,,,,,,,,,,,,,,,,,,,,,,,,,,,,,,,,,,,,,,,,,,,,,,,,,,,,,,,,,,,,,,,,,,,,,,,,,,,,,,,,,,,,,,,,,,,,,,,,,,,,,,,,,,,,,,,,,,,,,,,,,,,,,,,,,,,,,,,,
0,28,28,15,1,,6106692c478cb3f1603657ed,62bbfad4447d54b1ac67c6f5,2022-06-29_09h57.37.912,Colour_Asymmetry_Pilot,2022.1.3,Win32,59.91970759,62bbe60bf3d75ef465d3e404,,,,,,,,,,,,,,,,,,,,,,,,,,,,,,,,,,,,,,,,,,,,,,,,,,,,,,,,,,,,,,,,,,,,,,,,,,,,,,,,,,,,,,,,,,,,,,,,,,,,,,,,,,,,,,,,,,,,,,,,,,,,,,,,,,,,,,,,,,,,,,,,,,,,,,,,,,,,,,
0,29,29,54,1,,6106692c478cb3f1603657ed,62bbfad4447d54b1ac67c6f5,2022-06-29_09h57.37.912,Colour_Asymmetry_Pilot,2022.1.3,Win32,59.91970759,62bbe60bf3d75ef465d3e404,,,,,,,,,,,,,,,,,,,,,,,,,,,,,,,,,,,,,,,,,,,,,,,,,,,,,,,,,,,,,,,,,,,,,,,,,,,,,,,,,,,,,,,,,,,,,,,,,,,,,,,,,,,,,,,,,,,,,,,,,,,,,,,,,,,,,,,,,,,,,,,,,,,,,,,,,,,,,,
0,30,30,43,1,,6106692c478cb3f1603657ed,62bbfad4447d54b1ac67c6f5,2022-06-29_09h57.37.912,Colour_Asymmetry_Pilot,2022.1.3,Win32,59.91970759,62bbe60bf3d75ef465d3e404,,,,,,,,,,,,,,,,,,,,,,,,,,,,,,,,,,,,,,,,,,,,,,,,,,,,,,,,,,,,,,,,,,,,,,,,,,,,,,,,,,,,,,,,,,,,,,,,,,,,,,,,,,,,,,,,,,,,,,,,,,,,,,,,,,,,,,,,,,,,,,,,,,,,,,,,,,,,,,
0,31,31,27,1,,6106692c478cb3f1603657ed,62bbfad4447d54b1ac67c6f5,2022-06-29_09h57.37.912,Colour_Asymmetry_Pilot,2022.1.3,Win32,59.91970759,62bbe60bf3d75ef465d3e404,,,,,,,,,,,,,,,,,,,,,,,,,,,,,,,,,,,,,,,,,,,,,,,,,,,,,,,,,,,,,,,,,,,,,,,,,,,,,,,,,,,,,,,,,,,,,,,,,,,,,,,,,,,,,,,,,,,,,,,,,,,,,,,,,,,,,,,,,,,,,,,,,,,,,,,,,,,,,,
0,32,32,22,1,,6106692c478cb3f1603657ed,62bbfad4447d54b1ac67c6f5,2022-06-29_09h57.37.912,Colour_Asymmetry_Pilot,2022.1.3,Win32,59.91970759,62bbe60bf3d75ef465d3e404,,,,,,,,,,,,,,,,,,,,,,,,,,,,,,,,,,,,,,,,,,,,,,,,,,,,,,,,,,,,,,,,,,,,,,,,,,,,,,,,,,,,,,,,,,,,,,,,,,,,,,,,,,,,,,,,,,,,,,,,,,,,,,,,,,,,,,,,,,,,,,,,,,,,,,,,,,,,,,
0,33,33,44,1,,6106692c478cb3f1603657ed,62bbfad4447d54b1ac67c6f5,2022-06-29_09h57.37.912,Colour_Asymmetry_Pilot,2022.1.3,Win32,59.91970759,62bbe60bf3d75ef465d3e404,,,,,,,,,,,,,,,,,,,,,,,,,,,,,,,,,,,,,,,,,,,,,,,,,,,,,,,,,,,,,,,,,,,,,,,,,,,,,,,,,,,,,,,,,,,,,,,,,,,,,,,,,,,,,,,,,,,,,,,,,,,,,,,,,,,,,,,,,,,,,,,,,,,,,,,,,,,,,,
0,34,34,11,1,,6106692c478cb3f1603657ed,62bbfad4447d54b1ac67c6f5,2022-06-29_09h57.37.912,Colour_Asymmetry_Pilot,2022.1.3,Win32,59.91970759,62bbe60bf3d75ef465d3e404,,,,,,,,,,,,,,,,,,,,,,,,,,,,,,,,,,,,,,,,,,,,,,,,,,,,,,,,,,,,,,,,,,,,,,,,,,,,,,,,,,,,,,,,,,,,,,,,,,,,,,,,,,,,,,,,,,,,,,,,,,,,,,,,,,,,,,,,,,,,,,,,,,,,,,,,,,,,,,
0,35,35,36,1,,6106692c478cb3f1603657ed,62bbfad4447d54b1ac67c6f5,2022-06-29_09h57.37.912,Colour_Asymmetry_Pilot,2022.1.3,Win32,59.91970759,62bbe60bf3d75ef465d3e404,,,,,,,,,,,,,,,,,,,,,,,,,,,,,,,,,,,,,,,,,,,,,,,,,,,,,,,,,,,,,,,,,,,,,,,,,,,,,,,,,,,,,,,,,,,,,,,,,,,,,,,,,,,,,,,,,,,,,,,,,,,,,,,,,,,,,,,,,,,,,,,,,,,,,,,,,,,,,,
0,36,36,31,1,,6106692c478cb3f1603657ed,62bbfad4447d54b1ac67c6f5,2022-06-29_09h57.37.912,Colour_Asymmetry_Pilot,2022.1.3,Win32,59.91970759,62bbe60bf3d75ef465d3e404,,,,,,,,,,,,,,,,,,,,,,,,,,,,,,,,,,,,,,,,,,,,,,,,,,,,,,,,,,,,,,,,,,,,,,,,,,,,,,,,,,,,,,,,,,,,,,,,,,,,,,,,,,,,,,,,,,,,,,,,,,,,,,,,,,,,,,,,,,,,,,,,,,,,,,,,,,,,,,
0,37,37,12,1,,6106692c478cb3f1603657ed,62bbfad4447d54b1ac67c6f5,2022-06-29_09h57.37.912,Colour_Asymmetry_Pilot,2022.1.3,Win32,59.91970759,62bbe60bf3d75ef465d3e404,,,,,,,,,,,,,,,,,,,,,,,,,,,,,,,,,,,,,,,,,,,,,,,,,,,,,,,,,,,,,,,,,,,,,,,,,,,,,,,,,,,,,,,,,,,,,,,,,,,,,,,,,,,,,,,,,,,,,,,,,,,,,,,,,,,,,,,,,,,,,,,,,,,,,,,,,,,,,,
0,38,38,26,1,,6106692c478cb3f1603657ed,62bbfad4447d54b1ac67c6f5,2022-06-29_09h57.37.912,Colour_Asymmetry_Pilot,2022.1.3,Win32,59.91970759,62bbe60bf3d75ef465d3e404,,,,,,,,,,,,,,,,,,,,,,,,,,,,,,,,,,,,,,,,,,,,,,,,,,,,,,,,,,,,,,,,,,,,,,,,,,,,,,,,,,,,,,,,,,,,,,,,,,,,,,,,,,,,,,,,,,,,,,,,,,,,,,,,,,,,,,,,,,,,,,,,,,,,,,,,,,,,,,
0,39,39,0,1,,6106692c478cb3f1603657ed,62bbfad4447d54b1ac67c6f5,2022-06-29_09h57.37.912,Colour_Asymmetry_Pilot,2022.1.3,Win32,59.91970759,62bbe60bf3d75ef465d3e404,,,,,,,,,,,,,,,,,,,,,,,,,,,,,,,,,,,,,,,,,,,,,,,,,,,,,,,,,,,,,,,,,,,,,,,,,,,,,,,,,,,,,,,,,,,,,,,,,,,,,,,,,,,,,,,,,,,,,,,,,,,,,,,,,,,,,,,,,,,,,,,,,,,,,,,,,,,,,,
0,40,40,38,1,,6106692c478cb3f1603657ed,62bbfad4447d54b1ac67c6f5,2022-06-29_09h57.37.912,Colour_Asymmetry_Pilot,2022.1.3,Win32,59.91970759,62bbe60bf3d75ef465d3e404,,,,,,,,,,,,,,,,,,,,,,,,,,,,,,,,,,,,,,,,,,,,,,,,,,,,,,,,,,,,,,,,,,,,,,,,,,,,,,,,,,,,,,,,,,,,,,,,,,,,,,,,,,,,,,,,,,,,,,,,,,,,,,,,,,,,,,,,,,,,,,,,,,,,,,,,,,,,,,
0,41,41,23,1,,6106692c478cb3f1603657ed,62bbfad4447d54b1ac67c6f5,2022-06-29_09h57.37.912,Colour_Asymmetry_Pilot,2022.1.3,Win32,59.91970759,62bbe60bf3d75ef465d3e404,,,,,,,,,,,,,,,,,,,,,,,,,,,,,,,,,,,,,,,,,,,,,,,,,,,,,,,,,,,,,,,,,,,,,,,,,,,,,,,,,,,,,,,,,,,,,,,,,,,,,,,,,,,,,,,,,,,,,,,,,,,,,,,,,,,,,,,,,,,,,,,,,,,,,,,,,,,,,,
0,42,42,17,1,,6106692c478cb3f1603657ed,62bbfad4447d54b1ac67c6f5,2022-06-29_09h57.37.912,Colour_Asymmetry_Pilot,2022.1.3,Win32,59.91970759,62bbe60bf3d75ef465d3e404,,,,,,,,,,,,,,,,,,,,,,,,,,,,,,,,,,,,,,,,,,,,,,,,,,,,,,,,,,,,,,,,,,,,,,,,,,,,,,,,,,,,,,,,,,,,,,,,,,,,,,,,,,,,,,,,,,,,,,,,,,,,,,,,,,,,,,,,,,,,,,,,,,,,,,,,,,,,,,
0,43,43,56,1,,6106692c478cb3f1603657ed,62bbfad4447d54b1ac67c6f5,2022-06-29_09h57.37.912,Colour_Asymmetry_Pilot,2022.1.3,Win32,59.91970759,62bbe60bf3d75ef465d3e404,,,,,,,,,,,,,,,,,,,,,,,,,,,,,,,,,,,,,,,,,,,,,,,,,,,,,,,,,,,,,,,,,,,,,,,,,,,,,,,,,,,,,,,,,,,,,,,,,,,,,,,,,,,,,,,,,,,,,,,,,,,,,,,,,,,,,,,,,,,,,,,,,,,,,,,,,,,,,,
0,44,44,75,1,,6106692c478cb3f1603657ed,62bbfad4447d54b1ac67c6f5,2022-06-29_09h57.37.912,Colour_Asymmetry_Pilot,2022.1.3,Win32,59.91970759,62bbe60bf3d75ef465d3e404,,,,,,,,,,,,,,,,,,,,,,,,,,,,,,,,,,,,,,,,,,,,,,,,,,,,,,,,,,,,,,,,,,,,,,,,,,,,,,,,,,,,,,,,,,,,,,,,,,,,,,,,,,,,,,,,,,,,,,,,,,,,,,,,,,,,,,,,,,,,,,,,,,,,,,,,,,,,,,
0,45,45,59,1,,6106692c478cb3f1603657ed,62bbfad4447d54b1ac67c6f5,2022-06-29_09h57.37.912,Colour_Asymmetry_Pilot,2022.1.3,Win32,59.91970759,62bbe60bf3d75ef465d3e404,,,,,,,,,,,,,,,,,,,,,,,,,,,,,,,,,,,,,,,,,,,,,,,,,,,,,,,,,,,,,,,,,,,,,,,,,,,,,,,,,,,,,,,,,,,,,,,,,,,,,,,,,,,,,,,,,,,,,,,,,,,,,,,,,,,,,,,,,,,,,,,,,,,,,,,,,,,,,,
0,46,46,42,1,,6106692c478cb3f1603657ed,62bbfad4447d54b1ac67c6f5,2022-06-29_09h57.37.912,Colour_Asymmetry_Pilot,2022.1.3,Win32,59.91970759,62bbe60bf3d75ef465d3e404,,,,,,,,,,,,,,,,,,,,,,,,,,,,,,,,,,,,,,,,,,,,,,,,,,,,,,,,,,,,,,,,,,,,,,,,,,,,,,,,,,,,,,,,,,,,,,,,,,,,,,,,,,,,,,,,,,,,,,,,,,,,,,,,,,,,,,,,,,,,,,,,,,,,,,,,,,,,,,
0,47,47,82,1,,6106692c478cb3f1603657ed,62bbfad4447d54b1ac67c6f5,2022-06-29_09h57.37.912,Colour_Asymmetry_Pilot,2022.1.3,Win32,59.91970759,62bbe60bf3d75ef465d3e404,,,,,,,,,,,,,,,,,,,,,,,,,,,,,,,,,,,,,,,,,,,,,,,,,,,,,,,,,,,,,,,,,,,,,,,,,,,,,,,,,,,,,,,,,,,,,,,,,,,,,,,,,,,,,,,,,,,,,,,,,,,,,,,,,,,,,,,,,,,,,,,,,,,,,,,,,,,,,,
0,48,48,74,1,,6106692c478cb3f1603657ed,62bbfad4447d54b1ac67c6f5,2022-06-29_09h57.37.912,Colour_Asymmetry_Pilot,2022.1.3,Win32,59.91970759,62bbe60bf3d75ef465d3e404,,,,,,,,,,,,,,,,,,,,,,,,,,,,,,,,,,,,,,,,,,,,,,,,,,,,,,,,,,,,,,,,,,,,,,,,,,,,,,,,,,,,,,,,,,,,,,,,,,,,,,,,,,,,,,,,,,,,,,,,,,,,,,,,,,,,,,,,,,,,,,,,,,,,,,,,,,,,,,
0,49,49,40,1,,6106692c478cb3f1603657ed,62bbfad4447d54b1ac67c6f5,2022-06-29_09h57.37.912,Colour_Asymmetry_Pilot,2022.1.3,Win32,59.91970759,62bbe60bf3d75ef465d3e404,,,,,,,,,,,,,,,,,,,,,,,,,,,,,,,,,,,,,,,,,,,,,,,,,,,,,,,,,,,,,,,,,,,,,,,,,,,,,,,,,,,,,,,,,,,,,,,,,,,,,,,,,,,,,,,,,,,,,,,,,,,,,,,,,,,,,,,,,,,,,,,,,,,,,,,,,,,,,,
0,50,50,35,1,,6106692c478cb3f1603657ed,62bbfad4447d54b1ac67c6f5,2022-06-29_09h57.37.912,Colour_Asymmetry_Pilot,2022.1.3,Win32,59.91970759,62bbe60bf3d75ef465d3e404,,,,,,,,,,,,,,,,,,,,,,,,,,,,,,,,,,,,,,,,,,,,,,,,,,,,,,,,,,,,,,,,,,,,,,,,,,,,,,,,,,,,,,,,,,,,,,,,,,,,,,,,,,,,,,,,,,,,,,,,,,,,,,,,,,,,,,,,,,,,,,,,,,,,,,,,,,,,,,
0,51,51,49,1,,6106692c478cb3f1603657ed,62bbfad4447d54b1ac67c6f5,2022-06-29_09h57.37.912,Colour_Asymmetry_Pilot,2022.1.3,Win32,59.91970759,62bbe60bf3d75ef465d3e404,,,,,,,,,,,,,,,,,,,,,,,,,,,,,,,,,,,,,,,,,,,,,,,,,,,,,,,,,,,,,,,,,,,,,,,,,,,,,,,,,,,,,,,,,,,,,,,,,,,,,,,,,,,,,,,,,,,,,,,,,,,,,,,,,,,,,,,,,,,,,,,,,,,,,,,,,,,,,,
0,52,52,30,1,,6106692c478cb3f1603657ed,62bbfad4447d54b1ac67c6f5,2022-06-29_09h57.37.912,Colour_Asymmetry_Pilot,2022.1.3,Win32,59.91970759,62bbe60bf3d75ef465d3e404,,,,,,,,,,,,,,,,,,,,,,,,,,,,,,,,,,,,,,,,,,,,,,,,,,,,,,,,,,,,,,,,,,,,,,,,,,,,,,,,,,,,,,,,,,,,,,,,,,,,,,,,,,,,,,,,,,,,,,,,,,,,,,,,,,,,,,,,,,,,,,,,,,,,,,,,,,,,,,
0,53,53,63,1,,6106692c478cb3f1603657ed,62bbfad4447d54b1ac67c6f5,2022-06-29_09h57.37.912,Colour_Asymmetry_Pilot,2022.1.3,Win32,59.91970759,62bbe60bf3d75ef465d3e404,,,,,,,,,,,,,,,,,,,,,,,,,,,,,,,,,,,,,,,,,,,,,,,,,,,,,,,,,,,,,,,,,,,,,,,,,,,,,,,,,,,,,,,,,,,,,,,,,,,,,,,,,,,,,,,,,,,,,,,,,,,,,,,,,,,,,,,,,,,,,,,,,,,,,,,,,,,,,,
0,54,54,19,1,,6106692c478cb3f1603657ed,62bbfad4447d54b1ac67c6f5,2022-06-29_09h57.37.912,Colour_Asymmetry_Pilot,2022.1.3,Win32,59.91970759,62bbe60bf3d75ef465d3e404,,,,,,,,,,,,,,,,,,,,,,,,,,,,,,,,,,,,,,,,,,,,,,,,,,,,,,,,,,,,,,,,,,,,,,,,,,,,,,,,,,,,,,,,,,,,,,,,,,,,,,,,,,,,,,,,,,,,,,,,,,,,,,,,,,,,,,,,,,,,,,,,,,,,,,,,,,,,,,
0,55,55,79,1,,6106692c478cb3f1603657ed,62bbfad4447d54b1ac67c6f5,2022-06-29_09h57.37.912,Colour_Asymmetry_Pilot,2022.1.3,Win32,59.91970759,62bbe60bf3d75ef465d3e404,,,,,,,,,,,,,,,,,,,,,,,,,,,,,,,,,,,,,,,,,,,,,,,,,,,,,,,,,,,,,,,,,,,,,,,,,,,,,,,,,,,,,,,,,,,,,,,,,,,,,,,,,,,,,,,,,,,,,,,,,,,,,,,,,,,,,,,,,,,,,,,,,,,,,,,,,,,,,,
0,56,56,45,1,,6106692c478cb3f1603657ed,62bbfad4447d54b1ac67c6f5,2022-06-29_09h57.37.912,Colour_Asymmetry_Pilot,2022.1.3,Win32,59.91970759,62bbe60bf3d75ef465d3e404,,,,,,,,,,,,,,,,,,,,,,,,,,,,,,,,,,,,,,,,,,,,,,,,,,,,,,,,,,,,,,,,,,,,,,,,,,,,,,,,,,,,,,,,,,,,,,,,,,,,,,,,,,,,,,,,,,,,,,,,,,,,,,,,,,,,,,,,,,,,,,,,,,,,,,,,,,,,,,
0,57,57,88,1,,6106692c478cb3f1603657ed,62bbfad4447d54b1ac67c6f5,2022-06-29_09h57.37.912,Colour_Asymmetry_Pilot,2022.1.3,Win32,59.91970759,62bbe60bf3d75ef465d3e404,,,,,,,,,,,,,,,,,,,,,,,,,,,,,,,,,,,,,,,,,,,,,,,,,,,,,,,,,,,,,,,,,,,,,,,,,,,,,,,,,,,,,,,,,,,,,,,,,,,,,,,,,,,,,,,,,,,,,,,,,,,,,,,,,,,,,,,,,,,,,,,,,,,,,,,,,,,,,,
0,58,58,72,1,,6106692c478cb3f1603657ed,62bbfad4447d54b1ac67c6f5,2022-06-29_09h57.37.912,Colour_Asymmetry_Pilot,2022.1.3,Win32,59.91970759,62bbe60bf3d75ef465d3e404,,,,,,,,,,,,,,,,,,,,,,,,,,,,,,,,,,,,,,,,,,,,,,,,,,,,,,,,,,,,,,,,,,,,,,,,,,,,,,,,,,,,,,,,,,,,,,,,,,,,,,,,,,,,,,,,,,,,,,,,,,,,,,,,,,,,,,,,,,,,,,,,,,,,,,,,,,,,,,
0,59,59,5,1,,6106692c478cb3f1603657ed,62bbfad4447d54b1ac67c6f5,2022-06-29_09h57.37.912,Colour_Asymmetry_Pilot,2022.1.3,Win32,59.91970759,62bbe60bf3d75ef465d3e404,,,,,,,,,,,,,,,,,,,,,,,,,,,,,,,,,,,,,,,,,,,,,,,,,,,,,,,,,,,,,,,,,,,,,,,,,,,,,,,,,,,,,,,,,,,,,,,,,,,,,,,,,,,,,,,,,,,,,,,,,,,,,,,,,,,,,,,,,,,,,,,,,,,,,,,,,,,,,,
0,60,60,47,1,,6106692c478cb3f1603657ed,62bbfad4447d54b1ac67c6f5,2022-06-29_09h57.37.912,Colour_Asymmetry_Pilot,2022.1.3,Win32,59.91970759,62bbe60bf3d75ef465d3e404,,,,,,,,,,,,,,,,,,,,,,,,,,,,,,,,,,,,,,,,,,,,,,,,,,,,,,,,,,,,,,,,,,,,,,,,,,,,,,,,,,,,,,,,,,,,,,,,,,,,,,,,,,,,,,,,,,,,,,,,,,,,,,,,,,,,,,,,,,,,,,,,,,,,,,,,,,,,,,
0,61,61,8,1,,6106692c478cb3f1603657ed,62bbfad4447d54b1ac67c6f5,2022-06-29_09h57.37.912,Colour_Asymmetry_Pilot,2022.1.3,Win32,59.91970759,62bbe60bf3d75ef465d3e404,,,,,,,,,,,,,,,,,,,,,,,,,,,,,,,,,,,,,,,,,,,,,,,,,,,,,,,,,,,,,,,,,,,,,,,,,,,,,,,,,,,,,,,,,,,,,,,,,,,,,,,,,,,,,,,,,,,,,,,,,,,,,,,,,,,,,,,,,,,,,,,,,,,,,,,,,,,,,,
0,62,62,1,1,,6106692c478cb3f1603657ed,62bbfad4447d54b1ac67c6f5,2022-06-29_09h57.37.912,Colour_Asymmetry_Pilot,2022.1.3,Win32,59.91970759,62bbe60bf3d75ef465d3e404,,,,,,,,,,,,,,,,,,,,,,,,,,,,,,,,,,,,,,,,,,,,,,,,,,,,,,,,,,,,,,,,,,,,,,,,,,,,,,,,,,,,,,,,,,,,,,,,,,,,,,,,,,,,,,,,,,,,,,,,,,,,,,,,,,,,,,,,,,,,,,,,,,,,,,,,,,,,,,
0,63,63,32,1,,6106692c478cb3f1603657ed,62bbfad4447d54b1ac67c6f5,2022-06-29_09h57.37.912,Colour_Asymmetry_Pilot,2022.1.3,Win32,59.91970759,62bbe60bf3d75ef465d3e404,,,,,,,,,,,,,,,,,,,,,,,,,,,,,,,,,,,,,,,,,,,,,,,,,,,,,,,,,,,,,,,,,,,,,,,,,,,,,,,,,,,,,,,,,,,,,,,,,,,,,,,,,,,,,,,,,,,,,,,,,,,,,,,,,,,,,,,,,,,,,,,,,,,,,,,,,,,,,,
0,64,64,6,1,,6106692c478cb3f1603657ed,62bbfad4447d54b1ac67c6f5,2022-06-29_09h57.37.912,Colour_Asymmetry_Pilot,2022.1.3,Win32,59.91970759,62bbe60bf3d75ef465d3e404,,,,,,,,,,,,,,,,,,,,,,,,,,,,,,,,,,,,,,,,,,,,,,,,,,,,,,,,,,,,,,,,,,,,,,,,,,,,,,,,,,,,,,,,,,,,,,,,,,,,,,,,,,,,,,,,,,,,,,,,,,,,,,,,,,,,,,,,,,,,,,,,,,,,,,,,,,,,,,
0,65,65,67,1,,6106692c478cb3f1603657ed,62bbfad4447d54b1ac67c6f5,2022-06-29_09h57.37.912,Colour_Asymmetry_Pilot,2022.1.3,Win32,59.91970759,62bbe60bf3d75ef465d3e404,,,,,,,,,,,,,,,,,,,,,,,,,,,,,,,,,,,,,,,,,,,,,,,,,,,,,,,,,,,,,,,,,,,,,,,,,,,,,,,,,,,,,,,,,,,,,,,,,,,,,,,,,,,,,,,,,,,,,,,,,,,,,,,,,,,,,,,,,,,,,,,,,,,,,,,,,,,,,,
0,66,66,89,1,,6106692c478cb3f1603657ed,62bbfad4447d54b1ac67c6f5,2022-06-29_09h57.37.912,Colour_Asymmetry_Pilot,2022.1.3,Win32,59.91970759,62bbe60bf3d75ef465d3e404,,,,,,,,,,,,,,,,,,,,,,,,,,,,,,,,,,,,,,,,,,,,,,,,,,,,,,,,,,,,,,,,,,,,,,,,,,,,,,,,,,,,,,,,,,,,,,,,,,,,,,,,,,,,,,,,,,,,,,,,,,,,,,,,,,,,,,,,,,,,,,,,,,,,,,,,,,,,,,
0,67,67,80,1,,6106692c478cb3f1603657ed,62bbfad4447d54b1ac67c6f5,2022-06-29_09h57.37.912,Colour_Asymmetry_Pilot,2022.1.3,Win32,59.91970759,62bbe60bf3d75ef465d3e404,,,,,,,,,,,,,,,,,,,,,,,,,,,,,,,,,,,,,,,,,,,,,,,,,,,,,,,,,,,,,,,,,,,,,,,,,,,,,,,,,,,,,,,,,,,,,,,,,,,,,,,,,,,,,,,,,,,,,,,,,,,,,,,,,,,,,,,,,,,,,,,,,,,,,,,,,,,,,,
0,68,68,62,1,,6106692c478cb3f1603657ed,62bbfad4447d54b1ac67c6f5,2022-06-29_09h57.37.912,Colour_Asymmetry_Pilot,2022.1.3,Win32,59.91970759,62bbe60bf3d75ef465d3e404,,,,,,,,,,,,,,,,,,,,,,,,,,,,,,,,,,,,,,,,,,,,,,,,,,,,,,,,,,,,,,,,,,,,,,,,,,,,,,,,,,,,,,,,,,,,,,,,,,,,,,,,,,,,,,,,,,,,,,,,,,,,,,,,,,,,,,,,,,,,,,,,,,,,,,,,,,,,,,
0,69,69,85,1,,6106692c478cb3f1603657ed,62bbfad4447d54b1ac67c6f5,2022-06-29_09h57.37.912,Colour_Asymmetry_Pilot,2022.1.3,Win32,59.91970759,62bbe60bf3d75ef465d3e404,,,,,,,,,,,,,,,,,,,,,,,,,,,,,,,,,,,,,,,,,,,,,,,,,,,,,,,,,,,,,,,,,,,,,,,,,,,,,,,,,,,,,,,,,,,,,,,,,,,,,,,,,,,,,,,,,,,,,,,,,,,,,,,,,,,,,,,,,,,,,,,,,,,,,,,,,,,,,,
0,70,70,92,1,,6106692c478cb3f1603657ed,62bbfad4447d54b1ac67c6f5,2022-06-29_09h57.37.912,Colour_Asymmetry_Pilot,2022.1.3,Win32,59.91970759,62bbe60bf3d75ef465d3e404,,,,,,,,,,,,,,,,,,,,,,,,,,,,,,,,,,,,,,,,,,,,,,,,,,,,,,,,,,,,,,,,,,,,,,,,,,,,,,,,,,,,,,,,,,,,,,,,,,,,,,,,,,,,,,,,,,,,,,,,,,,,,,,,,,,,,,,,,,,,,,,,,,,,,,,,,,,,,,
0,71,71,21,1,,6106692c478cb3f1603657ed,62bbfad4447d54b1ac67c6f5,2022-06-29_09h57.37.912,Colour_Asymmetry_Pilot,2022.1.3,Win32,59.91970759,62bbe60bf3d75ef465d3e404,,,,,,,,,,,,,,,,,,,,,,,,,,,,,,,,,,,,,,,,,,,,,,,,,,,,,,,,,,,,,,,,,,,,,,,,,,,,,,,,,,,,,,,,,,,,,,,,,,,,,,,,,,,,,,,,,,,,,,,,,,,,,,,,,,,,,,,,,,,,,,,,,,,,,,,,,,,,,,
0,72,72,20,1,,6106692c478cb3f1603657ed,62bbfad4447d54b1ac67c6f5,2022-06-29_09h57.37.912,Colour_Asymmetry_Pilot,2022.1.3,Win32,59.91970759,62bbe60bf3d75ef465d3e404,,,,,,,,,,,,,,,,,,,,,,,,,,,,,,,,,,,,,,,,,,,,,,,,,,,,,,,,,,,,,,,,,,,,,,,,,,,,,,,,,,,,,,,,,,,,,,,,,,,,,,,,,,,,,,,,,,,,,,,,,,,,,,,,,,,,,,,,,,,,,,,,,,,,,,,,,,,,,,
0,73,73,29,1,,6106692c478cb3f1603657ed,62bbfad4447d54b1ac67c6f5,2022-06-29_09h57.37.912,Colour_Asymmetry_Pilot,2022.1.3,Win32,59.91970759,62bbe60bf3d75ef465d3e404,,,,,,,,,,,,,,,,,,,,,,,,,,,,,,,,,,,,,,,,,,,,,,,,,,,,,,,,,,,,,,,,,,,,,,,,,,,,,,,,,,,,,,,,,,,,,,,,,,,,,,,,,,,,,,,,,,,,,,,,,,,,,,,,,,,,,,,,,,,,,,,,,,,,,,,,,,,,,,
0,74,74,13,1,,6106692c478cb3f1603657ed,62bbfad4447d54b1ac67c6f5,2022-06-29_09h57.37.912,Colour_Asymmetry_Pilot,2022.1.3,Win32,59.91970759,62bbe60bf3d75ef465d3e404,,,,,,,,,,,,,,,,,,,,,,,,,,,,,,,,,,,,,,,,,,,,,,,,,,,,,,,,,,,,,,,,,,,,,,,,,,,,,,,,,,,,,,,,,,,,,,,,,,,,,,,,,,,,,,,,,,,,,,,,,,,,,,,,,,,,,,,,,,,,,,,,,,,,,,,,,,,,,,
0,75,75,51,1,,6106692c478cb3f1603657ed,62bbfad4447d54b1ac67c6f5,2022-06-29_09h57.37.912,Colour_Asymmetry_Pilot,2022.1.3,Win32,59.91970759,62bbe60bf3d75ef465d3e404,,,,,,,,,,,,,,,,,,,,,,,,,,,,,,,,,,,,,,,,,,,,,,,,,,,,,,,,,,,,,,,,,,,,,,,,,,,,,,,,,,,,,,,,,,,,,,,,,,,,,,,,,,,,,,,,,,,,,,,,,,,,,,,,,,,,,,,,,,,,,,,,,,,,,,,,,,,,,,
0,76,76,28,1,,6106692c478cb3f1603657ed,62bbfad4447d54b1ac67c6f5,2022-06-29_09h57.37.912,Colour_Asymmetry_Pilot,2022.1.3,Win32,59.91970759,62bbe60bf3d75ef465d3e404,,,,,,,,,,,,,,,,,,,,,,,,,,,,,,,,,,,,,,,,,,,,,,,,,,,,,,,,,,,,,,,,,,,,,,,,,,,,,,,,,,,,,,,,,,,,,,,,,,,,,,,,,,,,,,,,,,,,,,,,,,,,,,,,,,,,,,,,,,,,,,,,,,,,,,,,,,,,,,
0,77,77,66,1,,6106692c478cb3f1603657ed,62bbfad4447d54b1ac67c6f5,2022-06-29_09h57.37.912,Colour_Asymmetry_Pilot,2022.1.3,Win32,59.91970759,62bbe60bf3d75ef465d3e404,,,,,,,,,,,,,,,,,,,,,,,,,,,,,,,,,,,,,,,,,,,,,,,,,,,,,,,,,,,,,,,,,,,,,,,,,,,,,,,,,,,,,,,,,,,,,,,,,,,,,,,,,,,,,,,,,,,,,,,,,,,,,,,,,,,,,,,,,,,,,,,,,,,,,,,,,,,,,,
0,78,78,2,1,,6106692c478cb3f1603657ed,62bbfad4447d54b1ac67c6f5,2022-06-29_09h57.37.912,Colour_Asymmetry_Pilot,2022.1.3,Win32,59.91970759,62bbe60bf3d75ef465d3e404,,,,,,,,,,,,,,,,,,,,,,,,,,,,,,,,,,,,,,,,,,,,,,,,,,,,,,,,,,,,,,,,,,,,,,,,,,,,,,,,,,,,,,,,,,,,,,,,,,,,,,,,,,,,,,,,,,,,,,,,,,,,,,,,,,,,,,,,,,,,,,,,,,,,,,,,,,,,,,
0,79,79,34,1,,6106692c478cb3f1603657ed,62bbfad4447d54b1ac67c6f5,2022-06-29_09h57.37.912,Colour_Asymmetry_Pilot,2022.1.3,Win32,59.91970759,62bbe60bf3d75ef465d3e404,,,,,,,,,,,,,,,,,,,,,,,,,,,,,,,,,,,,,,,,,,,,,,,,,,,,,,,,,,,,,,,,,,,,,,,,,,,,,,,,,,,,,,,,,,,,,,,,,,,,,,,,,,,,,,,,,,,,,,,,,,,,,,,,,,,,,,,,,,,,,,,,,,,,,,,,,,,,,,
0,80,80,3,1,,6106692c478cb3f1603657ed,62bbfad4447d54b1ac67c6f5,2022-06-29_09h57.37.912,Colour_Asymmetry_Pilot,2022.1.3,Win32,59.91970759,62bbe60bf3d75ef465d3e404,,,,,,,,,,,,,,,,,,,,,,,,,,,,,,,,,,,,,,,,,,,,,,,,,,,,,,,,,,,,,,,,,,,,,,,,,,,,,,,,,,,,,,,,,,,,,,,,,,,,,,,,,,,,,,,,,,,,,,,,,,,,,,,,,,,,,,,,,,,,,,,,,,,,,,,,,,,,,,
0,81,81,48,1,,6106692c478cb3f1603657ed,62bbfad4447d54b1ac67c6f5,2022-06-29_09h57.37.912,Colour_Asymmetry_Pilot,2022.1.3,Win32,59.91970759,62bbe60bf3d75ef465d3e404,,,,,,,,,,,,,,,,,,,,,,,,,,,,,,,,,,,,,,,,,,,,,,,,,,,,,,,,,,,,,,,,,,,,,,,,,,,,,,,,,,,,,,,,,,,,,,,,,,,,,,,,,,,,,,,,,,,,,,,,,,,,,,,,,,,,,,,,,,,,,,,,,,,,,,,,,,,,,,
0,82,82,37,1,,6106692c478cb3f1603657ed,62bbfad4447d54b1ac67c6f5,2022-06-29_09h57.37.912,Colour_Asymmetry_Pilot,2022.1.3,Win32,59.91970759,62bbe60bf3d75ef465d3e404,,,,,,,,,,,,,,,,,,,,,,,,,,,,,,,,,,,,,,,,,,,,,,,,,,,,,,,,,,,,,,,,,,,,,,,,,,,,,,,,,,,,,,,,,,,,,,,,,,,,,,,,,,,,,,,,,,,,,,,,,,,,,,,,,,,,,,,,,,,,,,,,,,,,,,,,,,,,,,
0,83,83,81,1,,6106692c478cb3f1603657ed,62bbfad4447d54b1ac67c6f5,2022-06-29_09h57.37.912,Colour_Asymmetry_Pilot,2022.1.3,Win32,59.91970759,62bbe60bf3d75ef465d3e404,,,,,,,,,,,,,,,,,,,,,,,,,,,,,,,,,,,,,,,,,,,,,,,,,,,,,,,,,,,,,,,,,,,,,,,,,,,,,,,,,,,,,,,,,,,,,,,,,,,,,,,,,,,,,,,,,,,,,,,,,,,,,,,,,,,,,,,,,,,,,,,,,,,,,,,,,,,,,,
0,84,84,64,1,,6106692c478cb3f1603657ed,62bbfad4447d54b1ac67c6f5,2022-06-29_09h57.37.912,Colour_Asymmetry_Pilot,2022.1.3,Win32,59.91970759,62bbe60bf3d75ef465d3e404,,,,,,,,,,,,,,,,,,,,,,,,,,,,,,,,,,,,,,,,,,,,,,,,,,,,,,,,,,,,,,,,,,,,,,,,,,,,,,,,,,,,,,,,,,,,,,,,,,,,,,,,,,,,,,,,,,,,,,,,,,,,,,,,,,,,,,,,,,,,,,,,,,,,,,,,,,,,,,
0,85,85,76,1,,6106692c478cb3f1603657ed,62bbfad4447d54b1ac67c6f5,2022-06-29_09h57.37.912,Colour_Asymmetry_Pilot,2022.1.3,Win32,59.91970759,62bbe60bf3d75ef465d3e404,,,,,,,,,,,,,,,,,,,,,,,,,,,,,,,,,,,,,,,,,,,,,,,,,,,,,,,,,,,,,,,,,,,,,,,,,,,,,,,,,,,,,,,,,,,,,,,,,,,,,,,,,,,,,,,,,,,,,,,,,,,,,,,,,,,,,,,,,,,,,,,,,,,,,,,,,,,,,,
0,86,86,73,1,,6106692c478cb3f1603657ed,62bbfad4447d54b1ac67c6f5,2022-06-29_09h57.37.912,Colour_Asymmetry_Pilot,2022.1.3,Win32,59.91970759,62bbe60bf3d75ef465d3e404,,,,,,,,,,,,,,,,,,,,,,,,,,,,,,,,,,,,,,,,,,,,,,,,,,,,,,,,,,,,,,,,,,,,,,,,,,,,,,,,,,,,,,,,,,,,,,,,,,,,,,,,,,,,,,,,,,,,,,,,,,,,,,,,,,,,,,,,,,,,,,,,,,,,,,,,,,,,,,
0,87,87,71,1,,6106692c478cb3f1603657ed,62bbfad4447d54b1ac67c6f5,2022-06-29_09h57.37.912,Colour_Asymmetry_Pilot,2022.1.3,Win32,59.91970759,62bbe60bf3d75ef465d3e404,,,,,,,,,,,,,,,,,,,,,,,,,,,,,,,,,,,,,,,,,,,,,,,,,,,,,,,,,,,,,,,,,,,,,,,,,,,,,,,,,,,,,,,,,,,,,,,,,,,,,,,,,,,,,,,,,,,,,,,,,,,,,,,,,,,,,,,,,,,,,,,,,,,,,,,,,,,,,,
0,88,88,52,1,,6106692c478cb3f1603657ed,62bbfad4447d54b1ac67c6f5,2022-06-29_09h57.37.912,Colour_Asymmetry_Pilot,2022.1.3,Win32,59.91970759,62bbe60bf3d75ef465d3e404,,,,,,,,,,,,,,,,,,,,,,,,,,,,,,,,,,,,,,,,,,,,,,,,,,,,,,,,,,,,,,,,,,,,,,,,,,,,,,,,,,,,,,,,,,,,,,,,,,,,,,,,,,,,,,,,,,,,,,,,,,,,,,,,,,,,,,,,,,,,,,,,,,,,,,,,,,,,,,
0,89,89,53,1,,6106692c478cb3f1603657ed,62bbfad4447d54b1ac67c6f5,2022-06-29_09h57.37.912,Colour_Asymmetry_Pilot,2022.1.3,Win32,59.91970759,62bbe60bf3d75ef465d3e404,,,,,,,,,,,,,,,,,,,,,,,,,,,,,,,,,,,,,,,,,,,,,,,,,,,,,,,,,,,,,,,,,,,,,,,,,,,,,,,,,,,,,,,,,,,,,,,,,,,,,,,,,,,,,,,,,,,,,,,,,,,,,,,,,,,,,,,,,,,,,,,,,,,,,,,,,,,,,,
0,90,90,57,1,,6106692c478cb3f1603657ed,62bbfad4447d54b1ac67c6f5,2022-06-29_09h57.37.912,Colour_Asymmetry_Pilot,2022.1.3,Win32,59.91970759,62bbe60bf3d75ef465d3e404,,,,,,,,,,,,,,,,,,,,,,,,,,,,,,,,,,,,,,,,,,,,,,,,,,,,,,,,,,,,,,,,,,,,,,,,,,,,,,,,,,,,,,,,,,,,,,,,,,,,,,,,,,,,,,,,,,,,,,,,,,,,,,,,,,,,,,,,,,,,,,,,,,,,,,,,,,,,,,
0,91,91,10,1,,6106692c478cb3f1603657ed,62bbfad4447d54b1ac67c6f5,2022-06-29_09h57.37.912,Colour_Asymmetry_Pilot,2022.1.3,Win32,59.91970759,62bbe60bf3d75ef465d3e404,,,,,,,,,,,,,,,,,,,,,,,,,,,,,,,,,,,,,,,,,,,,,,,,,,,,,,,,,,,,,,,,,,,,,,,,,,,,,,,,,,,,,,,,,,,,,,,,,,,,,,,,,,,,,,,,,,,,,,,,,,,,,,,,,,,,,,,,,,,,,,,,,,,,,,,,,,,,,,
0,92,92,41,1,,6106692c478cb3f1603657ed,62bbfad4447d54b1ac67c6f5,2022-06-29_09h57.37.912,Colour_Asymmetry_Pilot,2022.1.3,Win32,59.91970759,62bbe60bf3d75ef465d3e404,,,,,,,,,,,,,,,,,,,,,,,,,,,,,,,,,,,,,,,,,,,,,,,,,,,,,,,,,,,,,,,,,,,,,,,,,,,,,,,,,,,,,,,,,,,,,,,,,,,,,,,,,,,,,,,,,,,,,,,,,,,,,,,,,,,,,,,,,,,,,,,,,,,,,,,,,,,,,,
,,,,,,6106692c478cb3f1603657ed,62bbfad4447d54b1ac67c6f5,2022-06-29_09h57.37.912,Colour_Asymmetry_Pilot,2022.1.3,Win32,59.91970759,62bbe60bf3d75ef465d3e404,0,0,0,60,1,threeone,,,,,,,,,,,,,,,,,,,,,,,,,,,,,,,,,,,,,,,,,,,,,,,,,,,,,,,,,,,,,,,,,,,,,,,,,,,,,,,,,,,,,,,,,,,,,,,,,,,,,,,,,,,,,,,,,,,,,,,,,,,,,,,,,,,,,,,,,,,,,,,,,,,,,,,,
,,,,,,6106692c478cb3f1603657ed,62bbfad4447d54b1ac67c6f5,2022-06-29_09h57.37.912,Colour_Asymmetry_Pilot,2022.1.3,Win32,59.91970759,62bbe60bf3d75ef465d3e404,0,1,1,126,1,fourtwo,,,,,,,,,,,,,,,,,,,,,,,,,,,,,,,,,,,,,,,,,,,,,,,,,,,,,,,,,,,,,,,,,,,,,,,,,,,,,,,,,,,,,,,,,,,,,,,,,,,,,,,,,,,,,,,,,,,,,,,,,,,,,,,,,,,,,,,,,,,,,,,,,,,,,,,,
,,,,,,6106692c478cb3f1603657ed,62bbfad4447d54b1ac67c6f5,2022-06-29_09h57.37.912,Colour_Asymmetry_Pilot,2022.1.3,Win32,59.91970759,62bbe60bf3d75ef465d3e404,0,2,2,140,1,threeone,,,,,,,,,,,,,,,,,,,,,,,,,,,,,,,,,,,,,,,,,,,,,,,,,,,,,,,,,,,,,,,,,,,,,,,,,,,,,,,,,,,,,,,,,,,,,,,,,,,,,,,,,,,,,,,,,,,,,,,,,,,,,,,,,,,,,,,,,,,,,,,,,,,,,,,,
,,,,,,6106692c478cb3f1603657ed,62bbfad4447d54b1ac67c6f5,2022-06-29_09h57.37.912,Colour_Asymmetry_Pilot,2022.1.3,Win32,59.91970759,62bbe60bf3d75ef465d3e404,0,3,3,44,1,threeone,,,,,,,,,,,,,,,,,,,,,,,,,,,,,,,,,,,,,,,,,,,,,,,,,,,,,,,,,,,,,,,,,,,,,,,,,,,,,,,,,,,,,,,,,,,,,,,,,,,,,,,,,,,,,,,,,,,,,,,,,,,,,,,,,,,,,,,,,,,,,,,,,,,,,,,,
,,,,,,6106692c478cb3f1603657ed,62bbfad4447d54b1ac67c6f5,2022-06-29_09h57.37.912,Colour_Asymmetry_Pilot,2022.1.3,Win32,59.91970759,62bbe60bf3d75ef465d3e404,0,4,4,19,1,twofour,,,,,,,,,,,,,,,,,,,,,,,,,,,,,,,,,,,,,,,,,,,,,,,,,,,,,,,,,,,,,,,,,,,,,,,,,,,,,,,,,,,,,,,,,,,,,,,,,,,,,,,,,,,,,,,,,,,,,,,,,,,,,,,,,,,,,,,,,,,,,,,,,,,,,,,,
,,,,,,6106692c478cb3f1603657ed,62bbfad4447d54b1ac67c6f5,2022-06-29_09h57.37.912,Colour_Asymmetry_Pilot,2022.1.3,Win32,59.91970759,62bbe60bf3d75ef465d3e404,0,5,5,161,1,onethree,,,,,,,,,,,,,,,,,,,,,,,,,,,,,,,,,,,,,,,,,,,,,,,,,,,,,,,,,,,,,,,,,,,,,,,,,,,,,,,,,,,,,,,,,,,,,,,,,,,,,,,,,,,,,,,,,,,,,,,,,,,,,,,,,,,,,,,,,,,,,,,,,,,,,,,,
,,,,,,6106692c478cb3f1603657ed,62bbfad4447d54b1ac67c6f5,2022-06-29_09h57.37.912,Colour_Asymmetry_Pilot,2022.1.3,Win32,59.91970759,62bbe60bf3d75ef465d3e404,0,6,6,68,1,threeone,,,,,,,,,,,,,,,,,,,,,,,,,,,,,,,,,,,,,,,,,,,,,,,,,,,,,,,,,,,,,,,,,,,,,,,,,,,,,,,,,,,,,,,,,,,,,,,,,,,,,,,,,,,,,,,,,,,,,,,,,,,,,,,,,,,,,,,,,,,,,,,,,,,,,,,,
,,,,,,6106692c478cb3f1603657ed,62bbfad4447d54b1ac67c6f5,2022-06-29_09h57.37.912,Colour_Asymmetry_Pilot,2022.1.3,Win32,59.91970759,62bbe60bf3d75ef465d3e404,0,7,7,29,1,threefour,,,,,,,,,,,,,,,,,,,,,,,,,,,,,,,,,,,,,,,,,,,,,,,,,,,,,,,,,,,,,,,,,,,,,,,,,,,,,,,,,,,,,,,,,,,,,,,,,,,,,,,,,,,,,,,,,,,,,,,,,,,,,,,,,,,,,,,,,,,,,,,,,,,,,,,,
,,,,,,6106692c478cb3f1603657ed,62bbfad4447d54b1ac67c6f5,2022-06-29_09h57.37.912,Colour_Asymmetry_Pilot,2022.1.3,Win32,59.91970759,62bbe60bf3d75ef465d3e404,0,8,8,0,1,onetwo,,,,,,,,,,,,,,,,,,,,,,,,,,,,,,,,,,,,,,,,,,,,,,,,,,,,,,,,,,,,,,,,,,,,,,,,,,,,,,,,,,,,,,,,,,,,,,,,,,,,,,,,,,,,,,,,,,,,,,,,,,,,,,,,,,,,,,,,,,,,,,,,,,,,,,,,
,,,,,,6106692c478cb3f1603657ed,62bbfad4447d54b1ac67c6f5,2022-06-29_09h57.37.912,Colour_Asymmetry_Pilot,2022.1.3,Win32,59.91970759,62bbe60bf3d75ef465d3e404,0,9,9,70,1,fourtwo,,,,,,,,,,,,,,,,,,,,,,,,,,,,,,,,,,,,,,,,,,,,,,,,,,,,,,,,,,,,,,,,,,,,,,,,,,,,,,,,,,,,,,,,,,,,,,,,,,,,,,,,,,,,,,,,,,,,,,,,,,,,,,,,,,,,,,,,,,,,,,,,,,,,,,,,
,,,,,,6106692c478cb3f1603657ed,62bbfad4447d54b1ac67c6f5,2022-06-29_09h57.37.912,Colour_Asymmetry_Pilot,2022.1.3,Win32,59.91970759,62bbe60bf3d75ef465d3e404,0,10,10,72,1,onetwo,,,,,,,,,,,,,,,,,,,,,,,,,,,,,,,,,,,,,,,,,,,,,,,,,,,,,,,,,,,,,,,,,,,,,,,,,,,,,,,,,,,,,,,,,,,,,,,,,,,,,,,,,,,,,,,,,,,,,,,,,,,,,,,,,,,,,,,,,,,,,,,,,,,,,,,,
,,,,,,6106692c478cb3f1603657ed,62bbfad4447d54b1ac67c6f5,2022-06-29_09h57.37.912,Colour_Asymmetry_Pilot,2022.1.3,Win32,59.91970759,62bbe60bf3d75ef465d3e404,0,11,11,115,1,twofour,,,,,,,,,,,,,,,,,,,,,,,,,,,,,,,,,,,,,,,,,,,,,,,,,,,,,,,,,,,,,,,,,,,,,,,,,,,,,,,,,,,,,,,,,,,,,,,,,,,,,,,,,,,,,,,,,,,,,,,,,,,,,,,,,,,,,,,,,,,,,,,,,,,,,,,,
,,,,,,6106692c478cb3f1603657ed,62bbfad4447d54b1ac67c6f5,2022-06-29_09h57.37.912,Colour_Asymmetry_Pilot,2022.1.3,Win32,59.91970759,62bbe60bf3d75ef465d3e404,0,12,12,34,1,twoone,,,,,,,,,,,,,,,,,,,,,,,,,,,,,,,,,,,,,,,,,,,,,,,,,,,,,,,,,,,,,,,,,,,,,,,,,,,,,,,,,,,,,,,,,,,,,,,,,,,,,,,,,,,,,,,,,,,,,,,,,,,,,,,,,,,,,,,,,,,,,,,,,,,,,,,,
,,,,,,6106692c478cb3f1603657ed,62bbfad4447d54b1ac67c6f5,2022-06-29_09h57.37.912,Colour_Asymmetry_Pilot,2022.1.3,Win32,59.91970759,62bbe60bf3d75ef465d3e404,0,13,13,160,1,onetwo,,,,,,,,,,,,,,,,,,,,,,,,,,,,,,,,,,,,,,,,,,,,,,,,,,,,,,,,,,,,,,,,,,,,,,,,,,,,,,,,,,,,,,,,,,,,,,,,,,,,,,,,,,,,,,,,,,,,,,,,,,,,,,,,,,,,,,,,,,,,,,,,,,,,,,,,
,,,,,,6106692c478cb3f1603657ed,62bbfad4447d54b1ac67c6f5,2022-06-29_09h57.37.912,Colour_Asymmetry_Pilot,2022.1.3,Win32,59.91970759,62bbe60bf3d75ef465d3e404,0,14,14,137,1,onethree,,,,,,,,,,,,,,,,,,,,,,,,,,,,,,,,,,,,,,,,,,,,,,,,,,,,,,,,,,,,,,,,,,,,,,,,,,,,,,,,,,,,,,,,,,,,,,,,,,,,,,,,,,,,,,,,,,,,,,,,,,,,,,,,,,,,,,,,,,,,,,,,,,,,,,,,
,,,,,,6106692c478cb3f1603657ed,62bbfad4447d54b1ac67c6f5,2022-06-29_09h57.37.912,Colour_Asymmetry_Pilot,2022.1.3,Win32,59.91970759,62bbe60bf3d75ef465d3e404,0,15,15,120,1,onetwo,,,,,,,,,,,,,,,,,,,,,,,,,,,,,,,,,,,,,,,,,,,,,,,,,,,,,,,,,,,,,,,,,,,,,,,,,,,,,,,,,,,,,,,,,,,,,,,,,,,,,,,,,,,,,,,,,,,,,,,,,,,,,,,,,,,,,,,,,,,,,,,,,,,,,,,,
,,,,,,6106692c478cb3f1603657ed,62bbfad4447d54b1ac67c6f5,2022-06-29_09h57.37.912,Colour_Asymmetry_Pilot,2022.1.3,Win32,59.91970759,62bbe60bf3d75ef465d3e404,0,16,16,61,1,threefour,,,,,,,,,,,,,,,,,,,,,,,,,,,,,,,,,,,,,,,,,,,,,,,,,,,,,,,,,,,,,,,,,,,,,,,,,,,,,,,,,,,,,,,,,,,,,,,,,,,,,,,,,,,,,,,,,,,,,,,,,,,,,,,,,,,,,,,,,,,,,,,,,,,,,,,,
,,,,,,6106692c478cb3f1603657ed,62bbfad4447d54b1ac67c6f5,2022-06-29_09h57.37.912,Colour_Asymmetry_Pilot,2022.1.3,Win32,59.91970759,62bbe60bf3d75ef465d3e404,0,17,17,138,1,twoone,,,,,,,,,,,,,,,,,,,,,,,,,,,,,,,,,,,,,,,,,,,,,,,,,,,,,,,,,,,,,,,,,,,,,,,,,,,,,,,,,,,,,,,,,,,,,,,,,,,,,,,,,,,,,,,,,,,,,,,,,,,,,,,,,,,,,,,,,,,,,,,,,,,,,,,,
,,,,,,6106692c478cb3f1603657ed,62bbfad4447d54b1ac67c6f5,2022-06-29_09h57.37.912,Colour_Asymmetry_Pilot,2022.1.3,Win32,59.91970759,62bbe60bf3d75ef465d3e404,0,18,18,107,1,twofour,,,,,,,,,,,,,,,,,,,,,,,,,,,,,,,,,,,,,,,,,,,,,,,,,,,,,,,,,,,,,,,,,,,,,,,,,,,,,,,,,,,,,,,,,,,,,,,,,,,,,,,,,,,,,,,,,,,,,,,,,,,,,,,,,,,,,,,,,,,,,,,,,,,,,,,,
,,,,,,6106692c478cb3f1603657ed,62bbfad4447d54b1ac67c6f5,2022-06-29_09h57.37.912,Colour_Asymmetry_Pilot,2022.1.3,Win32,59.91970759,62bbe60bf3d75ef465d3e404,0,19,19,12,1,threeone,,,,,,,,,,,,,,,,,,,,,,,,,,,,,,,,,,,,,,,,,,,,,,,,,,,,,,,,,,,,,,,,,,,,,,,,,,,,,,,,,,,,,,,,,,,,,,,,,,,,,,,,,,,,,,,,,,,,,,,,,,,,,,,,,,,,,,,,,,,,,,,,,,,,,,,,
,,,,,,6106692c478cb3f1603657ed,62bbfad4447d54b1ac67c6f5,2022-06-29_09h57.37.912,Colour_Asymmetry_Pilot,2022.1.3,Win32,59.91970759,62bbe60bf3d75ef465d3e404,0,20,20,136,1,onetwo,,,,,,,,,,,,,,,,,,,,,,,,,,,,,,,,,,,,,,,,,,,,,,,,,,,,,,,,,,,,,,,,,,,,,,,,,,,,,,,,,,,,,,,,,,,,,,,,,,,,,,,,,,,,,,,,,,,,,,,,,,,,,,,,,,,,,,,,,,,,,,,,,,,,,,,,
,,,,,,6106692c478cb3f1603657ed,62bbfad4447d54b1ac67c6f5,2022-06-29_09h57.37.912,Colour_Asymmetry_Pilot,2022.1.3,Win32,59.91970759,62bbe60bf3d75ef465d3e404,0,21,21,94,1,fourtwo,,,,,,,,,,,,,,,,,,,,,,,,,,,,,,,,,,,,,,,,,,,,,,,,,,,,,,,,,,,,,,,,,,,,,,,,,,,,,,,,,,,,,,,,,,,,,,,,,,,,,,,,,,,,,,,,,,,,,,,,,,,,,,,,,,,,,,,,,,,,,,,,,,,,,,,,
,,,,,,6106692c478cb3f1603657ed,62bbfad4447d54b1ac67c6f5,2022-06-29_09h57.37.912,Colour_Asymmetry_Pilot,2022.1.3,Win32,59.91970759,62bbe60bf3d75ef465d3e404,0,22,22,17,1,onethree,,,,,,,,,,,,,,,,,,,,,,,,,,,,,,,,,,,,,,,,,,,,,,,,,,,,,,,,,,,,,,,,,,,,,,,,,,,,,,,,,,,,,,,,,,,,,,,,,,,,,,,,,,,,,,,,,,,,,,,,,,,,,,,,,,,,,,,,,,,,,,,,,,,,,,,,
,,,,,,6106692c478cb3f1603657ed,62bbfad4447d54b1ac67c6f5,2022-06-29_09h57.37.912,Colour_Asymmetry_Pilot,2022.1.3,Win32,59.91970759,62bbe60bf3d75ef465d3e404,0,23,23,113,1,onethree,,,,,,,,,,,,,,,,,,,,,,,,,,,,,,,,,,,,,,,,,,,,,,,,,,,,,,,,,,,,,,,,,,,,,,,,,,,,,,,,,,,,,,,,,,,,,,,,,,,,,,,,,,,,,,,,,,,,,,,,,,,,,,,,,,,,,,,,,,,,,,,,,,,,,,,,
,,,,,,6106692c478cb3f1603657ed,62bbfad4447d54b1ac67c6f5,2022-06-29_09h57.37.912,Colour_Asymmetry_Pilot,2022.1.3,Win32,59.91970759,62bbe60bf3d75ef465d3e404,0,24,24,158,1,fourtwo,,,,,,,,,,,,,,,,,,,,,,,,,,,,,,,,,,,,,,,,,,,,,,,,,,,,,,,,,,,,,,,,,,,,,,,,,,,,,,,,,,,,,,,,,,,,,,,,,,,,,,,,,,,,,,,,,,,,,,,,,,,,,,,,,,,,,,,,,,,,,,,,,,,,,,,,
,,,,,,6106692c478cb3f1603657ed,62bbfad4447d54b1ac67c6f5,2022-06-29_09h57.37.912,Colour_Asymmetry_Pilot,2022.1.3,Win32,59.91970759,62bbe60bf3d75ef465d3e404,0,25,25,50,1,twoone,,,,,,,,,,,,,,,,,,,,,,,,,,,,,,,,,,,,,,,,,,,,,,,,,,,,,,,,,,,,,,,,,,,,,,,,,,,,,,,,,,,,,,,,,,,,,,,,,,,,,,,,,,,,,,,,,,,,,,,,,,,,,,,,,,,,,,,,,,,,,,,,,,,,,,,,
,,,,,,6106692c478cb3f1603657ed,62bbfad4447d54b1ac67c6f5,2022-06-29_09h57.37.912,Colour_Asymmetry_Pilot,2022.1.3,Win32,59.91970759,62bbe60bf3d75ef465d3e404,0,26,26,104,1,onetwo,,,,,,,,,,,,,,,,,,,,,,,,,,,,,,,,,,,,,,,,,,,,,,,,,,,,,,,,,,,,,,,,,,,,,,,,,,,,,,,,,,,,,,,,,,,,,,,,,,,,,,,,,,,,,,,,,,,,,,,,,,,,,,,,,,,,,,,,,,,,,,,,,,,,,,,,
,,,,,,6106692c478cb3f1603657ed,62bbfad4447d54b1ac67c6f5,2022-06-29_09h57.37.912,Colour_Asymmetry_Pilot,2022.1.3,Win32,59.91970759,62bbe60bf3d75ef465d3e404,0,27,27,39,1,fourthree,,,,,,,,,,,,,,,,,,,,,,,,,,,,,,,,,,,,,,,,,,,,,,,,,,,,,,,,,,,,,,,,,,,,,,,,,,,,,,,,,,,,,,,,,,,,,,,,,,,,,,,,,,,,,,,,,,,,,,,,,,,,,,,,,,,,,,,,,,,,,,,,,,,,,,,,
,,,,,,6106692c478cb3f1603657ed,62bbfad4447d54b1ac67c6f5,2022-06-29_09h57.37.912,Colour_Asymmetry_Pilot,2022.1.3,Win32,59.91970759,62bbe60bf3d75ef465d3e404,0,28,28,133,1,threefour,,,,,,,,,,,,,,,,,,,,,,,,,,,,,,,,,,,,,,,,,,,,,,,,,,,,,,,,,,,,,,,,,,,,,,,,,,,,,,,,,,,,,,,,,,,,,,,,,,,,,,,,,,,,,,,,,,,,,,,,,,,,,,,,,,,,,,,,,,,,,,,,,,,,,,,,
,,,,,,6106692c478cb3f1603657ed,62bbfad4447d54b1ac67c6f5,2022-06-29_09h57.37.912,Colour_Asymmetry_Pilot,2022.1.3,Win32,59.91970759,62bbe60bf3d75ef465d3e404,0,29,29,97,1,onethree,,,,,,,,,,,,,,,,,,,,,,,,,,,,,,,,,,,,,,,,,,,,,,,,,,,,,,,,,,,,,,,,,,,,,,,,,,,,,,,,,,,,,,,,,,,,,,,,,,,,,,,,,,,,,,,,,,,,,,,,,,,,,,,,,,,,,,,,,,,,,,,,,,,,,,,,
,,,,,,6106692c478cb3f1603657ed,62bbfad4447d54b1ac67c6f5,2022-06-29_09h57.37.912,Colour_Asymmetry_Pilot,2022.1.3,Win32,59.91970759,62bbe60bf3d75ef465d3e404,0,30,30,134,1,fourtwo,,,,,,,,,,,,,,,,,,,,,,,,,,,,,,,,,,,,,,,,,,,,,,,,,,,,,,,,,,,,,,,,,,,,,,,,,,,,,,,,,,,,,,,,,,,,,,,,,,,,,,,,,,,,,,,,,,,,,,,,,,,,,,,,,,,,,,,,,,,,,,,,,,,,,,,,
,,,,,,6106692c478cb3f1603657ed,62bbfad4447d54b1ac67c6f5,2022-06-29_09h57.37.912,Colour_Asymmetry_Pilot,2022.1.3,Win32,59.91970759,62bbe60bf3d75ef465d3e404,0,31,31,85,1,threefour,,,,,,,,,,,,,,,,,,,,,,,,,,,,,,,,,,,,,,,,,,,,,,,,,,,,,,,,,,,,,,,,,,,,,,,,,,,,,,,,,,,,,,,,,,,,,,,,,,,,,,,,,,,,,,,,,,,,,,,,,,,,,,,,,,,,,,,,,,,,,,,,,,,,,,,,
,,,,,,6106692c478cb3f1603657ed,62bbfad4447d54b1ac67c6f5,2022-06-29_09h57.37.912,Colour_Asymmetry_Pilot,2022.1.3,Win32,59.91970759,62bbe60bf3d75ef465d3e404,0,32,32,8,1,onetwo,,,,,,,,,,,,,,,,,,,,,,,,,,,,,,,,,,,,,,,,,,,,,,,,,,,,,,,,,,,,,,,,,,,,,,,,,,,,,,,,,,,,,,,,,,,,,,,,,,,,,,,,,,,,,,,,,,,,,,,,,,,,,,,,,,,,,,,,,,,,,,,,,,,,,,,,
,,,,,,6106692c478cb3f1603657ed,62bbfad4447d54b1ac67c6f5,2022-06-29_09h57.37.912,Colour_Asymmetry_Pilot,2022.1.3,Win32,59.91970759,62bbe60bf3d75ef465d3e404,0,33,33,114,1,twoone,,,,,,,,,,,,,,,,,,,,,,,,,,,,,,,,,,,,,,,,,,,,,,,,,,,,,,,,,,,,,,,,,,,,,,,,,,,,,,,,,,,,,,,,,,,,,,,,,,,,,,,,,,,,,,,,,,,,,,,,,,,,,,,,,,,,,,,,,,,,,,,,,,,,,,,,
,,,,,,6106692c478cb3f1603657ed,62bbfad4447d54b1ac67c6f5,2022-06-29_09h57.37.912,Colour_Asymmetry_Pilot,2022.1.3,Win32,59.91970759,62bbe60bf3d75ef465d3e404,0,34,34,56,1,onetwo,,,,,,,,,,,,,,,,,,,,,,,,,,,,,,,,,,,,,,,,,,,,,,,,,,,,,,,,,,,,,,,,,,,,,,,,,,,,,,,,,,,,,,,,,,,,,,,,,,,,,,,,,,,,,,,,,,,,,,,,,,,,,,,,,,,,,,,,,,,,,,,,,,,,,,,,
,,,,,,6106692c478cb3f1603657ed,62bbfad4447d54b1ac67c6f5,2022-06-29_09h57.37.912,Colour_Asymmetry_Pilot,2022.1.3,Win32,59.91970759,62bbe60bf3d75ef465d3e404,0,35,35,89,1,onethree,,,,,,,,,,,,,,,,,,,,,,,,,,,,,,,,,,,,,,,,,,,,,,,,,,,,,,,,,,,,,,,,,,,,,,,,,,,,,,,,,,,,,,,,,,,,,,,,,,,,,,,,,,,,,,,,,,,,,,,,,,,,,,,,,,,,,,,,,,,,,,,,,,,,,,,,
,,,,,,6106692c478cb3f1603657ed,62bbfad4447d54b1ac67c6f5,2022-06-29_09h57.37.912,Colour_Asymmetry_Pilot,2022.1.3,Win32,59.91970759,62bbe60bf3d75ef465d3e404,0,36,36,10,1,twoone,,,,,,,,,,,,,,,,,,,,,,,,,,,,,,,,,,,,,,,,,,,,,,,,,,,,,,,,,,,,,,,,,,,,,,,,,,,,,,,,,,,,,,,,,,,,,,,,,,,,,,,,,,,,,,,,,,,,,,,,,,,,,,,,,,,,,,,,,,,,,,,,,,,,,,,,
,,,,,,6106692c478cb3f1603657ed,62bbfad4447d54b1ac67c6f5,2022-06-29_09h57.37.912,Colour_Asymmetry_Pilot,2022.1.3,Win32,59.91970759,62bbe60bf3d75ef465d3e404,0,37,37,135,1,fourthree,,,,,,,,,,,,,,,,,,,,,,,,,,,,,,,,,,,,,,,,,,,,,,,,,,,,,,,,,,,,,,,,,,,,,,,,,,,,,,,,,,,,,,,,,,,,,,,,,,,,,,,,,,,,,,,,,,,,,,,,,,,,,,,,,,,,,,,,,,,,,,,,,,,,,,,,
,,,,,,6106692c478cb3f1603657ed,62bbfad4447d54b1ac67c6f5,2022-06-29_09h57.37.912,Colour_Asymmetry_Pilot,2022.1.3,Win32,59.91970759,62bbe60bf3d75ef465d3e404,0,38,38,31,1,fourthree,,,,,,,,,,,,,,,,,,,,,,,,,,,,,,,,,,,,,,,,,,,,,,,,,,,,,,,,,,,,,,,,,,,,,,,,,,,,,,,,,,,,,,,,,,,,,,,,,,,,,,,,,,,,,,,,,,,,,,,,,,,,,,,,,,,,,,,,,,,,,,,,,,,,,,,,
,,,,,,6106692c478cb3f1603657ed,62bbfad4447d54b1ac67c6f5,2022-06-29_09h57.37.912,Colour_Asymmetry_Pilot,2022.1.3,Win32,59.91970759,62bbe60bf3d75ef465d3e404,0,39,39,67,1,twofour,,,,,,,,,,,,,,,,,,,,,,,,,,,,,,,,,,,,,,,,,,,,,,,,,,,,,,,,,,,,,,,,,,,,,,,,,,,,,,,,,,,,,,,,,,,,,,,,,,,,,,,,,,,,,,,,,,,,,,,,,,,,,,,,,,,,,,,,,,,,,,,,,,,,,,,,
,,,,,,6106692c478cb3f1603657ed,62bbfad4447d54b1ac67c6f5,2022-06-29_09h57.37.912,Colour_Asymmetry_Pilot,2022.1.3,Win32,59.91970759,62bbe60bf3d75ef465d3e404,0,40,40,48,1,onetwo,,,,,,,,,,,,,,,,,,,,,,,,,,,,,,,,,,,,,,,,,,,,,,,,,,,,,,,,,,,,,,,,,,,,,,,,,,,,,,,,,,,,,,,,,,,,,,,,,,,,,,,,,,,,,,,,,,,,,,,,,,,,,,,,,,,,,,,,,,,,,,,,,,,,,,,,
,,,,,,6106692c478cb3f1603657ed,62bbfad4447d54b1ac67c6f5,2022-06-29_09h57.37.912,Colour_Asymmetry_Pilot,2022.1.3,Win32,59.91970759,62bbe60bf3d75ef465d3e404,0,41,41,121,1,onethree,,,,,,,,,,,,,,,,,,,,,,,,,,,,,,,,,,,,,,,,,,,,,,,,,,,,,,,,,,,,,,,,,,,,,,,,,,,,,,,,,,,,,,,,,,,,,,,,,,,,,,,,,,,,,,,,,,,,,,,,,,,,,,,,,,,,,,,,,,,,,,,,,,,,,,,,
,,,,,,6106692c478cb3f1603657ed,62bbfad4447d54b1ac67c6f5,2022-06-29_09h57.37.912,Colour_Asymmetry_Pilot,2022.1.3,Win32,59.91970759,62bbe60bf3d75ef465d3e404,0,42,42,139,1,twofour,,,,,,,,,,,,,,,,,,,,,,,,,,,,,,,,,,,,,,,,,,,,,,,,,,,,,,,,,,,,,,,,,,,,,,,,,,,,,,,,,,,,,,,,,,,,,,,,,,,,,,,,,,,,,,,,,,,,,,,,,,,,,,,,,,,,,,,,,,,,,,,,,,,,,,,,
,,,,,,6106692c478cb3f1603657ed,62bbfad4447d54b1ac67c6f5,2022-06-29_09h57.37.912,Colour_Asymmetry_Pilot,2022.1.3,Win32,59.91970759,62bbe60bf3d75ef465d3e404,0,43,43,131,1,twofour,,,,,,,,,,,,,,,,,,,,,,,,,,,,,,,,,,,,,,,,,,,,,,,,,,,,,,,,,,,,,,,,,,,,,,,,,,,,,,,,,,,,,,,,,,,,,,,,,,,,,,,,,,,,,,,,,,,,,,,,,,,,,,,,,,,,,,,,,,,,,,,,,,,,,,,,
,,,,,,6106692c478cb3f1603657ed,62bbfad4447d54b1ac67c6f5,2022-06-29_09h57.37.912,Colour_Asymmetry_Pilot,2022.1.3,Win32,59.91970759,62bbe60bf3d75ef465d3e404,0,44,44,84,1,threeone,,,,,,,,,,,,,,,,,,,,,,,,,,,,,,,,,,,,,,,,,,,,,,,,,,,,,,,,,,,,,,,,,,,,,,,,,,,,,,,,,,,,,,,,,,,,,,,,,,,,,,,,,,,,,,,,,,,,,,,,,,,,,,,,,,,,,,,,,,,,,,,,,,,,,,,,
,,,,,,6106692c478cb3f1603657ed,62bbfad4447d54b1ac67c6f5,2022-06-29_09h57.37.912,Colour_Asymmetry_Pilot,2022.1.3,Win32,59.91970759,62bbe60bf3d75ef465d3e404,0,45,45,27,1,twofour,,,,,,,,,,,,,,,,,,,,,,,,,,,,,,,,,,,,,,,,,,,,,,,,,,,,,,,,,,,,,,,,,,,,,,,,,,,,,,,,,,,,,,,,,,,,,,,,,,,,,,,,,,,,,,,,,,,,,,,,,,,,,,,,,,,,,,,,,,,,,,,,,,,,,,,,
,,,,,,6106692c478cb3f1603657ed,62bbfad4447d54b1ac67c6f5,2022-06-29_09h57.37.912,Colour_Asymmetry_Pilot,2022.1.3,Win32,59.91970759,62bbe60bf3d75ef465d3e404,0,46,46,32,1,onetwo,,,,,,,,,,,,,,,,,,,,,,,,,,,,,,,,,,,,,,,,,,,,,,,,,,,,,,,,,,,,,,,,,,,,,,,,,,,,,,,,,,,,,,,,,,,,,,,,,,,,,,,,,,,,,,,,,,,,,,,,,,,,,,,,,,,,,,,,,,,,,,,,,,,,,,,,
,,,,,,6106692c478cb3f1603657ed,62bbfad4447d54b1ac67c6f5,2022-06-29_09h57.37.912,Colour_Asymmetry_Pilot,2022.1.3,Win32,59.91970759,62bbe60bf3d75ef465d3e404,0,47,47,87,1,fourthree,,,,,,,,,,,,,,,,,,,,,,,,,,,,,,,,,,,,,,,,,,,,,,,,,,,,,,,,,,,,,,,,,,,,,,,,,,,,,,,,,,,,,,,,,,,,,,,,,,,,,,,,,,,,,,,,,,,,,,,,,,,,,,,,,,,,,,,,,,,,,,,,,,,,,,,,
,,,,,,6106692c478cb3f1603657ed,62bbfad4447d54b1ac67c6f5,2022-06-29_09h57.37.912,Colour_Asymmetry_Pilot,2022.1.3,Win32,59.91970759,62bbe60bf3d75ef465d3e404,0,48,48,40,1,onetwo,,,,,,,,,,,,,,,,,,,,,,,,,,,,,,,,,,,,,,,,,,,,,,,,,,,,,,,,,,,,,,,,,,,,,,,,,,,,,,,,,,,,,,,,,,,,,,,,,,,,,,,,,,,,,,,,,,,,,,,,,,,,,,,,,,,,,,,,,,,,,,,,,,,,,,,,
,,,,,,6106692c478cb3f1603657ed,62bbfad4447d54b1ac67c6f5,2022-06-29_09h57.37.912,Colour_Asymmetry_Pilot,2022.1.3,Win32,59.91970759,62bbe60bf3d75ef465d3e404,0,49,49,13,1,threefour,,,,,,,,,,,,,,,,,,,,,,,,,,,,,,,,,,,,,,,,,,,,,,,,,,,,,,,,,,,,,,,,,,,,,,,,,,,,,,,,,,,,,,,,,,,,,,,,,,,,,,,,,,,,,,,,,,,,,,,,,,,,,,,,,,,,,,,,,,,,,,,,,,,,,,,,
,,,,,,6106692c478cb3f1603657ed,62bbfad4447d54b1ac67c6f5,2022-06-29_09h57.37.912,Colour_Asymmetry_Pilot,2022.1.3,Win32,59.91970759,62bbe60bf3d75ef465d3e404,0,50,50,55,1,fourthree,,,,,,,,,,,,,,,,,,,,,,,,,,,,,,,,,,,,,,,,,,,,,,,,,,,,,,,,,,,,,,,,,,,,,,,,,,,,,,,,,,,,,,,,,,,,,,,,,,,,,,,,,,,,,,,,,,,,,,,,,,,,,,,,,,,,,,,,,,,,,,,,,,,,,,,,
,,,,,,6106692c478cb3f1603657ed,62bbfad4447d54b1ac67c6f5,2022-06-29_09h57.37.912,Colour_Asymmetry_Pilot,2022.1.3,Win32,59.91970759,62bbe60bf3d75ef465d3e404,0,51,51,119,1,fourthree,,,,,,,,,,,,,,,,,,,,,,,,,,,,,,,,,,,,,,,,,,,,,,,,,,,,,,,,,,,,,,,,,,,,,,,,,,,,,,,,,,,,,,,,,,,,,,,,,,,,,,,,,,,,,,,,,,,,,,,,,,,,,,,,,,,,,,,,,,,,,,,,,,,,,,,,
,,,,,,6106692c478cb3f1603657ed,62bbfad4447d54b1ac67c6f5,2022-06-29_09h57.37.912,Colour_Asymmetry_Pilot,2022.1.3,Win32,59.91970759,62bbe60bf3d75ef465d3e404,0,52,52,21,1,threefour,,,,,,,,,,,,,,,,,,,,,,,,,,,,,,,,,,,,,,,,,,,,,,,,,,,,,,,,,,,,,,,,,,,,,,,,,,,,,,,,,,,,,,,,,,,,,,,,,,,,,,,,,,,,,,,,,,,,,,,,,,,,,,,,,,,,,,,,,,,,,,,,,,,,,,,,
,,,,,,6106692c478cb3f1603657ed,62bbfad4447d54b1ac67c6f5,2022-06-29_09h57.37.912,Colour_Asymmetry_Pilot,2022.1.3,Win32,59.91970759,62bbe60bf3d75ef465d3e404,0,53,53,20,1,threeone,,,,,,,,,,,,,,,,,,,,,,,,,,,,,,,,,,,,,,,,,,,,,,,,,,,,,,,,,,,,,,,,,,,,,,,,,,,,,,,,,,,,,,,,,,,,,,,,,,,,,,,,,,,,,,,,,,,,,,,,,,,,,,,,,,,,,,,,,,,,,,,,,,,,,,,,
,,,,,,6106692c478cb3f1603657ed,62bbfad4447d54b1ac67c6f5,2022-06-29_09h57.37.912,Colour_Asymmetry_Pilot,2022.1.3,Win32,59.91970759,62bbe60bf3d75ef465d3e404,0,54,54,26,1,twoone,,,,,,,,,,,,,,,,,,,,,,,,,,,,,,,,,,,,,,,,,,,,,,,,,,,,,,,,,,,,,,,,,,,,,,,,,,,,,,,,,,,,,,,,,,,,,,,,,,,,,,,,,,,,,,,,,,,,,,,,,,,,,,,,,,,,,,,,,,,,,,,,,,,,,,,,
,,,,,,6106692c478cb3f1603657ed,62bbfad4447d54b1ac67c6f5,2022-06-29_09h57.37.912,Colour_Asymmetry_Pilot,2022.1.3,Win32,59.91970759,62bbe60bf3d75ef465d3e404,0,55,55,101,1,threefour,,,,,,,,,,,,,,,,,,,,,,,,,,,,,,,,,,,,,,,,,,,,,,,,,,,,,,,,,,,,,,,,,,,,,,,,,,,,,,,,,,,,,,,,,,,,,,,,,,,,,,,,,,,,,,,,,,,,,,,,,,,,,,,,,,,,,,,,,,,,,,,,,,,,,,,,
,,,,,,6106692c478cb3f1603657ed,62bbfad4447d54b1ac67c6f5,2022-06-29_09h57.37.912,Colour_Asymmetry_Pilot,2022.1.3,Win32,59.91970759,62bbe60bf3d75ef465d3e404,0,56,56,123,1,twofour,,,,,,,,,,,,,,,,,,,,,,,,,,,,,,,,,,,,,,,,,,,,,,,,,,,,,,,,,,,,,,,,,,,,,,,,,,,,,,,,,,,,,,,,,,,,,,,,,,,,,,,,,,,,,,,,,,,,,,,,,,,,,,,,,,,,,,,,,,,,,,,,,,,,,,,,
,,,,,,6106692c478cb3f1603657ed,62bbfad4447d54b1ac67c6f5,2022-06-29_09h57.37.912,Colour_Asymmetry_Pilot,2022.1.3,Win32,59.91970759,62bbe60bf3d75ef465d3e404,0,57,57,69,1,threefour,,,,,,,,,,,,,,,,,,,,,,,,,,,,,,,,,,,,,,,,,,,,,,,,,,,,,,,,,,,,,,,,,,,,,,,,,,,,,,,,,,,,,,,,,,,,,,,,,,,,,,,,,,,,,,,,,,,,,,,,,,,,,,,,,,,,,,,,,,,,,,,,,,,,,,,,
,,,,,,6106692c478cb3f1603657ed,62bbfad4447d54b1ac67c6f5,2022-06-29_09h57.37.912,Colour_Asymmetry_Pilot,2022.1.3,Win32,59.91970759,62bbe60bf3d75ef465d3e404,0,58,58,3,1,twofour,,,,,,,,,,,,,,,,,,,,,,,,,,,,,,,,,,,,,,,,,,,,,,,,,,,,,,,,,,,,,,,,,,,,,,,,,,,,,,,,,,,,,,,,,,,,,,,,,,,,,,,,,,,,,,,,,,,,,,,,,,,,,,,,,,,,,,,,,,,,,,,,,,,,,,,,
,,,,,,6106692c478cb3f1603657ed,62bbfad4447d54b1ac67c6f5,2022-06-29_09h57.37.912,Colour_Asymmetry_Pilot,2022.1.3,Win32,59.91970759,62bbe60bf3d75ef465d3e404,0,59,59,90,1,twoone,,,,,,,,,,,,,,,,,,,,,,,,,,,,,,,,,,,,,,,,,,,,,,,,,,,,,,,,,,,,,,,,,,,,,,,,,,,,,,,,,,,,,,,,,,,,,,,,,,,,,,,,,,,,,,,,,,,,,,,,,,,,,,,,,,,,,,,,,,,,,,,,,,,,,,,,
,,,,,,6106692c478cb3f1603657ed,62bbfad4447d54b1ac67c6f5,2022-06-29_09h57.37.912,Colour_Asymmetry_Pilot,2022.1.3,Win32,59.91970759,62bbe60bf3d75ef465d3e404,0,60,60,28,1,threeone,,,,,,,,,,,,,,,,,,,,,,,,,,,,,,,,,,,,,,,,,,,,,,,,,,,,,,,,,,,,,,,,,,,,,,,,,,,,,,,,,,,,,,,,,,,,,,,,,,,,,,,,,,,,,,,,,,,,,,,,,,,,,,,,,,,,,,,,,,,,,,,,,,,,,,,,
,,,,,,6106692c478cb3f1603657ed,62bbfad4447d54b1ac67c6f5,2022-06-29_09h57.37.912,Colour_Asymmetry_Pilot,2022.1.3,Win32,59.91970759,62bbe60bf3d75ef465d3e404,0,61,61,154,1,twoone,,,,,,,,,,,,,,,,,,,,,,,,,,,,,,,,,,,,,,,,,,,,,,,,,,,,,,,,,,,,,,,,,,,,,,,,,,,,,,,,,,,,,,,,,,,,,,,,,,,,,,,,,,,,,,,,,,,,,,,,,,,,,,,,,,,,,,,,,,,,,,,,,,,,,,,,
,,,,,,6106692c478cb3f1603657ed,62bbfad4447d54b1ac67c6f5,2022-06-29_09h57.37.912,Colour_Asymmetry_Pilot,2022.1.3,Win32,59.91970759,62bbe60bf3d75ef465d3e404,0,62,62,86,1,fourtwo,,,,,,,,,,,,,,,,,,,,,,,,,,,,,,,,,,,,,,,,,,,,,,,,,,,,,,,,,,,,,,,,,,,,,,,,,,,,,,,,,,,,,,,,,,,,,,,,,,,,,,,,,,,,,,,,,,,,,,,,,,,,,,,,,,,,,,,,,,,,,,,,,,,,,,,,
,,,,,,6106692c478cb3f1603657ed,62bbfad4447d54b1ac67c6f5,2022-06-29_09h57.37.912,Colour_Asymmetry_Pilot,2022.1.3,Win32,59.91970759,62bbe60bf3d75ef465d3e404,0,63,63,127,1,fourthree,,,,,,,,,,,,,,,,,,,,,,,,,,,,,,,,,,,,,,,,,,,,,,,,,,,,,,,,,,,,,,,,,,,,,,,,,,,,,,,,,,,,,,,,,,,,,,,,,,,,,,,,,,,,,,,,,,,,,,,,,,,,,,,,,,,,,,,,,,,,,,,,,,,,,,,,
,,,,,,6106692c478cb3f1603657ed,62bbfad4447d54b1ac67c6f5,2022-06-29_09h57.37.912,Colour_Asymmetry_Pilot,2022.1.3,Win32,59.91970759,62bbe60bf3d75ef465d3e404,0,64,64,25,1,onethree,,,,,,,,,,,,,,,,,,,,,,,,,,,,,,,,,,,,,,,,,,,,,,,,,,,,,,,,,,,,,,,,,,,,,,,,,,,,,,,,,,,,,,,,,,,,,,,,,,,,,,,,,,,,,,,,,,,,,,,,,,,,,,,,,,,,,,,,,,,,,,,,,,,,,,,,
,,,,,,6106692c478cb3f1603657ed,62bbfad4447d54b1ac67c6f5,2022-06-29_09h57.37.912,Colour_Asymmetry_Pilot,2022.1.3,Win32,59.91970759,62bbe60bf3d75ef465d3e404,0,65,65,78,1,fourtwo,,,,,,,,,,,,,,,,,,,,,,,,,,,,,,,,,,,,,,,,,,,,,,,,,,,,,,,,,,,,,,,,,,,,,,,,,,,,,,,,,,,,,,,,,,,,,,,,,,,,,,,,,,,,,,,,,,,,,,,,,,,,,,,,,,,,,,,,,,,,,,,,,,,,,,,,
,,,,,,6106692c478cb3f1603657ed,62bbfad4447d54b1ac67c6f5,2022-06-29_09h57.37.912,Colour_Asymmetry_Pilot,2022.1.3,Win32,59.91970759,62bbe60bf3d75ef465d3e404,0,66,66,7,1,fourthree,,,,,,,,,,,,,,,,,,,,,,,,,,,,,,,,,,,,,,,,,,,,,,,,,,,,,,,,,,,,,,,,,,,,,,,,,,,,,,,,,,,,,,,,,,,,,,,,,,,,,,,,,,,,,,,,,,,,,,,,,,,,,,,,,,,,,,,,,,,,,,,,,,,,,,,,
,,,,,,6106692c478cb3f1603657ed,62bbfad4447d54b1ac67c6f5,2022-06-29_09h57.37.912,Colour_Asymmetry_Pilot,2022.1.3,Win32,59.91970759,62bbe60bf3d75ef465d3e404,0,67,67,1,1,onethree,,,,,,,,,,,,,,,,,,,,,,,,,,,,,,,,,,,,,,,,,,,,,,,,,,,,,,,,,,,,,,,,,,,,,,,,,,,,,,,,,,,,,,,,,,,,,,,,,,,,,,,,,,,,,,,,,,,,,,,,,,,,,,,,,,,,,,,,,,,,,,,,,,,,,,,,
,,,,,,6106692c478cb3f1603657ed,62bbfad4447d54b1ac67c6f5,2022-06-29_09h57.37.912,Colour_Asymmetry_Pilot,2022.1.3,Win32,59.91970759,62bbe60bf3d75ef465d3e404,0,68,68,62,1,fourtwo,,,,,,,,,,,,,,,,,,,,,,,,,,,,,,,,,,,,,,,,,,,,,,,,,,,,,,,,,,,,,,,,,,,,,,,,,,,,,,,,,,,,,,,,,,,,,,,,,,,,,,,,,,,,,,,,,,,,,,,,,,,,,,,,,,,,,,,,,,,,,,,,,,,,,,,,
,,,,,,6106692c478cb3f1603657ed,62bbfad4447d54b1ac67c6f5,2022-06-29_09h57.37.912,Colour_Asymmetry_Pilot,2022.1.3,Win32,59.91970759,62bbe60bf3d75ef465d3e404,0,69,69,43,1,twofour,,,,,,,,,,,,,,,,,,,,,,,,,,,,,,,,,,,,,,,,,,,,,,,,,,,,,,,,,,,,,,,,,,,,,,,,,,,,,,,,,,,,,,,,,,,,,,,,,,,,,,,,,,,,,,,,,,,,,,,,,,,,,,,,,,,,,,,,,,,,,,,,,,,,,,,,
,,,,,,6106692c478cb3f1603657ed,62bbfad4447d54b1ac67c6f5,2022-06-29_09h57.37.912,Colour_Asymmetry_Pilot,2022.1.3,Win32,59.91970759,62bbe60bf3d75ef465d3e404,0,70,70,125,1,threefour,,,,,,,,,,,,,,,,,,,,,,,,,,,,,,,,,,,,,,,,,,,,,,,,,,,,,,,,,,,,,,,,,,,,,,,,,,,,,,,,,,,,,,,,,,,,,,,,,,,,,,,,,,,,,,,,,,,,,,,,,,,,,,,,,,,,,,,,,,,,,,,,,,,,,,,,
,,,,,,6106692c478cb3f1603657ed,62bbfad4447d54b1ac67c6f5,2022-06-29_09h57.37.912,Colour_Asymmetry_Pilot,2022.1.3,Win32,59.91970759,62bbe60bf3d75ef465d3e404,0,71,71,9,1,onethree,,,,,,,,,,,,,,,,,,,,,,,,,,,,,,,,,,,,,,,,,,,,,,,,,,,,,,,,,,,,,,,,,,,,,,,,,,,,,,,,,,,,,,,,,,,,,,,,,,,,,,,,,,,,,,,,,,,,,,,,,,,,,,,,,,,,,,,,,,,,,,,,,,,,,,,,
,,,,,,6106692c478cb3f1603657ed,62bbfad4447d54b1ac67c6f5,2022-06-29_09h57.37.912,Colour_Asymmetry_Pilot,2022.1.3,Win32,59.91970759,62bbe60bf3d75ef465d3e404,0,72,72,57,1,onethree,,,,,,,,,,,,,,,,,,,,,,,,,,,,,,,,,,,,,,,,,,,,,,,,,,,,,,,,,,,,,,,,,,,,,,,,,,,,,,,,,,,,,,,,,,,,,,,,,,,,,,,,,,,,,,,,,,,,,,,,,,,,,,,,,,,,,,,,,,,,,,,,,,,,,,,,
,,,,,,6106692c478cb3f1603657ed,62bbfad4447d54b1ac67c6f5,2022-06-29_09h57.37.912,Colour_Asymmetry_Pilot,2022.1.3,Win32,59.91970759,62bbe60bf3d75ef465d3e404,0,73,73,14,1,fourtwo,,,,,,,,,,,,,,,,,,,,,,,,,,,,,,,,,,,,,,,,,,,,,,,,,,,,,,,,,,,,,,,,,,,,,,,,,,,,,,,,,,,,,,,,,,,,,,,,,,,,,,,,,,,,,,,,,,,,,,,,,,,,,,,,,,,,,,,,,,,,,,,,,,,,,,,,
,,,,,,6106692c478cb3f1603657ed,62bbfad4447d54b1ac67c6f5,2022-06-29_09h57.37.912,Colour_Asymmetry_Pilot,2022.1.3,Win32,59.91970759,62bbe60bf3d75ef465d3e404,0,74,74,33,1,onethree,,,,,,,,,,,,,,,,,,,,,,,,,,,,,,,,,,,,,,,,,,,,,,,,,,,,,,,,,,,,,,,,,,,,,,,,,,,,,,,,,,,,,,,,,,,,,,,,,,,,,,,,,,,,,,,,,,,,,,,,,,,,,,,,,,,,,,,,,,,,,,,,,,,,,,,,
,,,,,,6106692c478cb3f1603657ed,62bbfad4447d54b1ac67c6f5,2022-06-29_09h57.37.912,Colour_Asymmetry_Pilot,2022.1.3,Win32,59.91970759,62bbe60bf3d75ef465d3e404,0,75,75,156,1,threeone,,,,,,,,,,,,,,,,,,,,,,,,,,,,,,,,,,,,,,,,,,,,,,,,,,,,,,,,,,,,,,,,,,,,,,,,,,,,,,,,,,,,,,,,,,,,,,,,,,,,,,,,,,,,,,,,,,,,,,,,,,,,,,,,,,,,,,,,,,,,,,,,,,,,,,,,
,,,,,,6106692c478cb3f1603657ed,62bbfad4447d54b1ac67c6f5,2022-06-29_09h57.37.912,Colour_Asymmetry_Pilot,2022.1.3,Win32,59.91970759,62bbe60bf3d75ef465d3e404,0,76,76,77,1,threefour,,,,,,,,,,,,,,,,,,,,,,,,,,,,,,,,,,,,,,,,,,,,,,,,,,,,,,,,,,,,,,,,,,,,,,,,,,,,,,,,,,,,,,,,,,,,,,,,,,,,,,,,,,,,,,,,,,,,,,,,,,,,,,,,,,,,,,,,,,,,,,,,,,,,,,,,
,,,,,,6106692c478cb3f1603657ed,62bbfad4447d54b1ac67c6f5,2022-06-29_09h57.37.912,Colour_Asymmetry_Pilot,2022.1.3,Win32,59.91970759,62bbe60bf3d75ef465d3e404,0,77,77,71,1,fourthree,,,,,,,,,,,,,,,,,,,,,,,,,,,,,,,,,,,,,,,,,,,,,,,,,,,,,,,,,,,,,,,,,,,,,,,,,,,,,,,,,,,,,,,,,,,,,,,,,,,,,,,,,,,,,,,,,,,,,,,,,,,,,,,,,,,,,,,,,,,,,,,,,,,,,,,,
,,,,,,6106692c478cb3f1603657ed,62bbfad4447d54b1ac67c6f5,2022-06-29_09h57.37.912,Colour_Asymmetry_Pilot,2022.1.3,Win32,59.91970759,62bbe60bf3d75ef465d3e404,0,78,78,51,1,twofour,,,,,,,,,,,,,,,,,,,,,,,,,,,,,,,,,,,,,,,,,,,,,,,,,,,,,,,,,,,,,,,,,,,,,,,,,,,,,,,,,,,,,,,,,,,,,,,,,,,,,,,,,,,,,,,,,,,,,,,,,,,,,,,,,,,,,,,,,,,,,,,,,,,,,,,,
,,,,,,6106692c478cb3f1603657ed,62bbfad4447d54b1ac67c6f5,2022-06-29_09h57.37.912,Colour_Asymmetry_Pilot,2022.1.3,Win32,59.91970759,62bbe60bf3d75ef465d3e404,0,79,79,38,1,fourtwo,,,,,,,,,,,,,,,,,,,,,,,,,,,,,,,,,,,,,,,,,,,,,,,,,,,,,,,,,,,,,,,,,,,,,,,,,,,,,,,,,,,,,,,,,,,,,,,,,,,,,,,,,,,,,,,,,,,,,,,,,,,,,,,,,,,,,,,,,,,,,,,,,,,,,,,,
,,,,,,6106692c478cb3f1603657ed,62bbfad4447d54b1ac67c6f5,2022-06-29_09h57.37.912,Colour_Asymmetry_Pilot,2022.1.3,Win32,59.91970759,62bbe60bf3d75ef465d3e404,0,80,80,6,1,fourtwo,,,,,,,,,,,,,,,,,,,,,,,,,,,,,,,,,,,,,,,,,,,,,,,,,,,,,,,,,,,,,,,,,,,,,,,,,,,,,,,,,,,,,,,,,,,,,,,,,,,,,,,,,,,,,,,,,,,,,,,,,,,,,,,,,,,,,,,,,,,,,,,,,,,,,,,,
,,,,,,6106692c478cb3f1603657ed,62bbfad4447d54b1ac67c6f5,2022-06-29_09h57.37.912,Colour_Asymmetry_Pilot,2022.1.3,Win32,59.91970759,62bbe60bf3d75ef465d3e404,0,81,81,75,1,twofour,,,,,,,,,,,,,,,,,,,,,,,,,,,,,,,,,,,,,,,,,,,,,,,,,,,,,,,,,,,,,,,,,,,,,,,,,,,,,,,,,,,,,,,,,,,,,,,,,,,,,,,,,,,,,,,,,,,,,,,,,,,,,,,,,,,,,,,,,,,,,,,,,,,,,,,,
,,,,,,6106692c478cb3f1603657ed,62bbfad4447d54b1ac67c6f5,2022-06-29_09h57.37.912,Colour_Asymmetry_Pilot,2022.1.3,Win32,59.91970759,62bbe60bf3d75ef465d3e404,0,82,82,147,1,twofour,,,,,,,,,,,,,,,,,,,,,,,,,,,,,,,,,,,,,,,,,,,,,,,,,,,,,,,,,,,,,,,,,,,,,,,,,,,,,,,,,,,,,,,,,,,,,,,,,,,,,,,,,,,,,,,,,,,,,,,,,,,,,,,,,,,,,,,,,,,,,,,,,,,,,,,,
,,,,,,6106692c478cb3f1603657ed,62bbfad4447d54b1ac67c6f5,2022-06-29_09h57.37.912,Colour_Asymmetry_Pilot,2022.1.3,Win32,59.91970759,62bbe60bf3d75ef465d3e404,0,83,83,130,1,twoone,,,,,,,,,,,,,,,,,,,,,,,,,,,,,,,,,,,,,,,,,,,,,,,,,,,,,,,,,,,,,,,,,,,,,,,,,,,,,,,,,,,,,,,,,,,,,,,,,,,,,,,,,,,,,,,,,,,,,,,,,,,,,,,,,,,,,,,,,,,,,,,,,,,,,,,,
,,,,,,6106692c478cb3f1603657ed,62bbfad4447d54b1ac67c6f5,2022-06-29_09h57.37.912,Colour_Asymmetry_Pilot,2022.1.3,Win32,59.91970759,62bbe60bf3d75ef465d3e404,0,84,84,46,1,fourtwo,,,,,,,,,,,,,,,,,,,,,,,,,,,,,,,,,,,,,,,,,,,,,,,,,,,,,,,,,,,,,,,,,,,,,,,,,,,,,,,,,,,,,,,,,,,,,,,,,,,,,,,,,,,,,,,,,,,,,,,,,,,,,,,,,,,,,,,,,,,,,,,,,,,,,,,,
,,,,,,6106692c478cb3f1603657ed,62bbfad4447d54b1ac67c6f5,2022-06-29_09h57.37.912,Colour_Asymmetry_Pilot,2022.1.3,Win32,59.91970759,62bbe60bf3d75ef465d3e404,0,85,85,129,1,onethree,,,,,,,,,,,,,,,,,,,,,,,,,,,,,,,,,,,,,,,,,,,,,,,,,,,,,,,,,,,,,,,,,,,,,,,,,,,,,,,,,,,,,,,,,,,,,,,,,,,,,,,,,,,,,,,,,,,,,,,,,,,,,,,,,,,,,,,,,,,,,,,,,,,,,,,,
,,,,,,6106692c478cb3f1603657ed,62bbfad4447d54b1ac67c6f5,2022-06-29_09h57.37.912,Colour_Asymmetry_Pilot,2022.1.3,Win32,59.91970759,62bbe60bf3d75ef465d3e404,0,86,86,145,1,onethree,,,,,,,,,,,,,,,,,,,,,,,,,,,,,,,,,,,,,,,,,,,,,,,,,,,,,,,,,,,,,,,,,,,,,,,,,,,,,,,,,,,,,,,,,,,,,,,,,,,,,,,,,,,,,,,,,,,,,,,,,,,,,,,,,,,,,,,,,,,,,,,,,,,,,,,,
,,,,,,6106692c478cb3f1603657ed,62bbfad4447d54b1ac67c6f5,2022-06-29_09h57.37.912,Colour_Asymmetry_Pilot,2022.1.3,Win32,59.91970759,62bbe60bf3d75ef465d3e404,0,87,87,118,1,fourtwo,,,,,,,,,,,,,,,,,,,,,,,,,,,,,,,,,,,,,,,,,,,,,,,,,,,,,,,,,,,,,,,,,,,,,,,,,,,,,,,,,,,,,,,,,,,,,,,,,,,,,,,,,,,,,,,,,,,,,,,,,,,,,,,,,,,,,,,,,,,,,,,,,,,,,,,,
,,,,,,6106692c478cb3f1603657ed,62bbfad4447d54b1ac67c6f5,2022-06-29_09h57.37.912,Colour_Asymmetry_Pilot,2022.1.3,Win32,59.91970759,62bbe60bf3d75ef465d3e404,0,88,88,41,1,onethree,,,,,,,,,,,,,,,,,,,,,,,,,,,,,,,,,,,,,,,,,,,,,,,,,,,,,,,,,,,,,,,,,,,,,,,,,,,,,,,,,,,,,,,,,,,,,,,,,,,,,,,,,,,,,,,,,,,,,,,,,,,,,,,,,,,,,,,,,,,,,,,,,,,,,,,,
,,,,,,6106692c478cb3f1603657ed,62bbfad4447d54b1ac67c6f5,2022-06-29_09h57.37.912,Colour_Asymmetry_Pilot,2022.1.3,Win32,59.91970759,62bbe60bf3d75ef465d3e404,0,89,89,148,1,threeone,,,,,,,,,,,,,,,,,,,,,,,,,,,,,,,,,,,,,,,,,,,,,,,,,,,,,,,,,,,,,,,,,,,,,,,,,,,,,,,,,,,,,,,,,,,,,,,,,,,,,,,,,,,,,,,,,,,,,,,,,,,,,,,,,,,,,,,,,,,,,,,,,,,,,,,,
,,,,,,6106692c478cb3f1603657ed,62bbfad4447d54b1ac67c6f5,2022-06-29_09h57.37.912,Colour_Asymmetry_Pilot,2022.1.3,Win32,59.91970759,62bbe60bf3d75ef465d3e404,0,90,90,49,1,onethree,,,,,,,,,,,,,,,,,,,,,,,,,,,,,,,,,,,,,,,,,,,,,,,,,,,,,,,,,,,,,,,,,,,,,,,,,,,,,,,,,,,,,,,,,,,,,,,,,,,,,,,,,,,,,,,,,,,,,,,,,,,,,,,,,,,,,,,,,,,,,,,,,,,,,,,,
,,,,,,6106692c478cb3f1603657ed,62bbfad4447d54b1ac67c6f5,2022-06-29_09h57.37.912,Colour_Asymmetry_Pilot,2022.1.3,Win32,59.91970759,62bbe60bf3d75ef465d3e404,0,91,91,53,1,threefour,,,,,,,,,,,,,,,,,,,,,,,,,,,,,,,,,,,,,,,,,,,,,,,,,,,,,,,,,,,,,,,,,,,,,,,,,,,,,,,,,,,,,,,,,,,,,,,,,,,,,,,,,,,,,,,,,,,,,,,,,,,,,,,,,,,,,,,,,,,,,,,,,,,,,,,,
,,,,,,6106692c478cb3f1603657ed,62bbfad4447d54b1ac67c6f5,2022-06-29_09h57.37.912,Colour_Asymmetry_Pilot,2022.1.3,Win32,59.91970759,62bbe60bf3d75ef465d3e404,0,92,92,79,1,fourthree,,,,,,,,,,,,,,,,,,,,,,,,,,,,,,,,,,,,,,,,,,,,,,,,,,,,,,,,,,,,,,,,,,,,,,,,,,,,,,,,,,,,,,,,,,,,,,,,,,,,,,,,,,,,,,,,,,,,,,,,,,,,,,,,,,,,,,,,,,,,,,,,,,,,,,,,
,,,,,,6106692c478cb3f1603657ed,62bbfad4447d54b1ac67c6f5,2022-06-29_09h57.37.912,Colour_Asymmetry_Pilot,2022.1.3,Win32,59.91970759,62bbe60bf3d75ef465d3e404,0,93,93,58,1,twoone,,,,,,,,,,,,,,,,,,,,,,,,,,,,,,,,,,,,,,,,,,,,,,,,,,,,,,,,,,,,,,,,,,,,,,,,,,,,,,,,,,,,,,,,,,,,,,,,,,,,,,,,,,,,,,,,,,,,,,,,,,,,,,,,,,,,,,,,,,,,,,,,,,,,,,,,
,,,,,,6106692c478cb3f1603657ed,62bbfad4447d54b1ac67c6f5,2022-06-29_09h57.37.912,Colour_Asymmetry_Pilot,2022.1.3,Win32,59.91970759,62bbe60bf3d75ef465d3e404,0,94,94,65,1,onethree,,,,,,,,,,,,,,,,,,,,,,,,,,,,,,,,,,,,,,,,,,,,,,,,,,,,,,,,,,,,,,,,,,,,,,,,,,,,,,,,,,,,,,,,,,,,,,,,,,,,,,,,,,,,,,,,,,,,,,,,,,,,,,,,,,,,,,,,,,,,,,,,,,,,,,,,
,,,,,,6106692c478cb3f1603657ed,62bbfad4447d54b1ac67c6f5,2022-06-29_09h57.37.912,Colour_Asymmetry_Pilot,2022.1.3,Win32,59.91970759,62bbe60bf3d75ef465d3e404,0,95,95,152,1,onetwo,,,,,,,,,,,,,,,,,,,,,,,,,,,,,,,,,,,,,,,,,,,,,,,,,,,,,,,,,,,,,,,,,,,,,,,,,,,,,,,,,,,,,,,,,,,,,,,,,,,,,,,,,,,,,,,,,,,,,,,,,,,,,,,,,,,,,,,,,,,,,,,,,,,,,,,,
,,,,,,6106692c478cb3f1603657ed,62bbfad4447d54b1ac67c6f5,2022-06-29_09h57.37.912,Colour_Asymmetry_Pilot,2022.1.3,Win32,59.91970759,62bbe60bf3d75ef465d3e404,0,96,96,95,1,fourthree,,,,,,,,,,,,,,,,,,,,,,,,,,,,,,,,,,,,,,,,,,,,,,,,,,,,,,,,,,,,,,,,,,,,,,,,,,,,,,,,,,,,,,,,,,,,,,,,,,,,,,,,,,,,,,,,,,,,,,,,,,,,,,,,,,,,,,,,,,,,,,,,,,,,,,,,
,,,,,,6106692c478cb3f1603657ed,62bbfad4447d54b1ac67c6f5,2022-06-29_09h57.37.912,Colour_Asymmetry_Pilot,2022.1.3,Win32,59.91970759,62bbe60bf3d75ef465d3e404,0,97,97,108,1,threeone,,,,,,,,,,,,,,,,,,,,,,,,,,,,,,,,,,,,,,,,,,,,,,,,,,,,,,,,,,,,,,,,,,,,,,,,,,,,,,,,,,,,,,,,,,,,,,,,,,,,,,,,,,,,,,,,,,,,,,,,,,,,,,,,,,,,,,,,,,,,,,,,,,,,,,,,
,,,,,,6106692c478cb3f1603657ed,62bbfad4447d54b1ac67c6f5,2022-06-29_09h57.37.912,Colour_Asymmetry_Pilot,2022.1.3,Win32,59.91970759,62bbe60bf3d75ef465d3e404,0,98,98,144,1,onetwo,,,,,,,,,,,,,,,,,,,,,,,,,,,,,,,,,,,,,,,,,,,,,,,,,,,,,,,,,,,,,,,,,,,,,,,,,,,,,,,,,,,,,,,,,,,,,,,,,,,,,,,,,,,,,,,,,,,,,,,,,,,,,,,,,,,,,,,,,,,,,,,,,,,,,,,,
,,,,,,6106692c478cb3f1603657ed,62bbfad4447d54b1ac67c6f5,2022-06-29_09h57.37.912,Colour_Asymmetry_Pilot,2022.1.3,Win32,59.91970759,62bbe60bf3d75ef465d3e404,0,99,99,102,1,fourtwo,,,,,,,,,,,,,,,,,,,,,,,,,,,,,,,,,,,,,,,,,,,,,,,,,,,,,,,,,,,,,,,,,,,,,,,,,,,,,,,,,,,,,,,,,,,,,,,,,,,,,,,,,,,,,,,,,,,,,,,,,,,,,,,,,,,,,,,,,,,,,,,,,,,,,,,,
,,,,,,6106692c478cb3f1603657ed,62bbfad4447d54b1ac67c6f5,2022-06-29_09h57.37.912,Colour_Asymmetry_Pilot,2022.1.3,Win32,59.91970759,62bbe60bf3d75ef465d3e404,0,100,100,91,1,twofour,,,,,,,,,,,,,,,,,,,,,,,,,,,,,,,,,,,,,,,,,,,,,,,,,,,,,,,,,,,,,,,,,,,,,,,,,,,,,,,,,,,,,,,,,,,,,,,,,,,,,,,,,,,,,,,,,,,,,,,,,,,,,,,,,,,,,,,,,,,,,,,,,,,,,,,,
,,,,,,6106692c478cb3f1603657ed,62bbfad4447d54b1ac67c6f5,2022-06-29_09h57.37.912,Colour_Asymmetry_Pilot,2022.1.3,Win32,59.91970759,62bbe60bf3d75ef465d3e404,0,101,101,157,1,threefour,,,,,,,,,,,,,,,,,,,,,,,,,,,,,,,,,,,,,,,,,,,,,,,,,,,,,,,,,,,,,,,,,,,,,,,,,,,,,,,,,,,,,,,,,,,,,,,,,,,,,,,,,,,,,,,,,,,,,,,,,,,,,,,,,,,,,,,,,,,,,,,,,,,,,,,,
,,,,,,6106692c478cb3f1603657ed,62bbfad4447d54b1ac67c6f5,2022-06-29_09h57.37.912,Colour_Asymmetry_Pilot,2022.1.3,Win32,59.91970759,62bbe60bf3d75ef465d3e404,0,102,102,103,1,fourthree,,,,,,,,,,,,,,,,,,,,,,,,,,,,,,,,,,,,,,,,,,,,,,,,,,,,,,,,,,,,,,,,,,,,,,,,,,,,,,,,,,,,,,,,,,,,,,,,,,,,,,,,,,,,,,,,,,,,,,,,,,,,,,,,,,,,,,,,,,,,,,,,,,,,,,,,
,,,,,,6106692c478cb3f1603657ed,62bbfad4447d54b1ac67c6f5,2022-06-29_09h57.37.912,Colour_Asymmetry_Pilot,2022.1.3,Win32,59.91970759,62bbe60bf3d75ef465d3e404,0,103,103,153,1,onethree,,,,,,,,,,,,,,,,,,,,,,,,,,,,,,,,,,,,,,,,,,,,,,,,,,,,,,,,,,,,,,,,,,,,,,,,,,,,,,,,,,,,,,,,,,,,,,,,,,,,,,,,,,,,,,,,,,,,,,,,,,,,,,,,,,,,,,,,,,,,,,,,,,,,,,,,
,,,,,,6106692c478cb3f1603657ed,62bbfad4447d54b1ac67c6f5,2022-06-29_09h57.37.912,Colour_Asymmetry_Pilot,2022.1.3,Win32,59.91970759,62bbe60bf3d75ef465d3e404,0,104,104,96,1,onetwo,,,,,,,,,,,,,,,,,,,,,,,,,,,,,,,,,,,,,,,,,,,,,,,,,,,,,,,,,,,,,,,,,,,,,,,,,,,,,,,,,,,,,,,,,,,,,,,,,,,,,,,,,,,,,,,,,,,,,,,,,,,,,,,,,,,,,,,,,,,,,,,,,,,,,,,,
,,,,,,6106692c478cb3f1603657ed,62bbfad4447d54b1ac67c6f5,2022-06-29_09h57.37.912,Colour_Asymmetry_Pilot,2022.1.3,Win32,59.91970759,62bbe60bf3d75ef465d3e404,0,105,105,59,1,twofour,,,,,,,,,,,,,,,,,,,,,,,,,,,,,,,,,,,,,,,,,,,,,,,,,,,,,,,,,,,,,,,,,,,,,,,,,,,,,,,,,,,,,,,,,,,,,,,,,,,,,,,,,,,,,,,,,,,,,,,,,,,,,,,,,,,,,,,,,,,,,,,,,,,,,,,,
,,,,,,6106692c478cb3f1603657ed,62bbfad4447d54b1ac67c6f5,2022-06-29_09h57.37.912,Colour_Asymmetry_Pilot,2022.1.3,Win32,59.91970759,62bbe60bf3d75ef465d3e404,0,106,106,132,1,threeone,,,,,,,,,,,,,,,,,,,,,,,,,,,,,,,,,,,,,,,,,,,,,,,,,,,,,,,,,,,,,,,,,,,,,,,,,,,,,,,,,,,,,,,,,,,,,,,,,,,,,,,,,,,,,,,,,,,,,,,,,,,,,,,,,,,,,,,,,,,,,,,,,,,,,,,,
,,,,,,6106692c478cb3f1603657ed,62bbfad4447d54b1ac67c6f5,2022-06-29_09h57.37.912,Colour_Asymmetry_Pilot,2022.1.3,Win32,59.91970759,62bbe60bf3d75ef465d3e404,0,107,107,159,1,fourthree,,,,,,,,,,,,,,,,,,,,,,,,,,,,,,,,,,,,,,,,,,,,,,,,,,,,,,,,,,,,,,,,,,,,,,,,,,,,,,,,,,,,,,,,,,,,,,,,,,,,,,,,,,,,,,,,,,,,,,,,,,,,,,,,,,,,,,,,,,,,,,,,,,,,,,,,
,,,,,,6106692c478cb3f1603657ed,62bbfad4447d54b1ac67c6f5,2022-06-29_09h57.37.912,Colour_Asymmetry_Pilot,2022.1.3,Win32,59.91970759,62bbe60bf3d75ef465d3e404,0,108,108,83,1,twofour,,,,,,,,,,,,,,,,,,,,,,,,,,,,,,,,,,,,,,,,,,,,,,,,,,,,,,,,,,,,,,,,,,,,,,,,,,,,,,,,,,,,,,,,,,,,,,,,,,,,,,,,,,,,,,,,,,,,,,,,,,,,,,,,,,,,,,,,,,,,,,,,,,,,,,,,
,,,,,,6106692c478cb3f1603657ed,62bbfad4447d54b1ac67c6f5,2022-06-29_09h57.37.912,Colour_Asymmetry_Pilot,2022.1.3,Win32,59.91970759,62bbe60bf3d75ef465d3e404,0,109,109,117,1,threefour,,,,,,,,,,,,,,,,,,,,,,,,,,,,,,,,,,,,,,,,,,,,,,,,,,,,,,,,,,,,,,,,,,,,,,,,,,,,,,,,,,,,,,,,,,,,,,,,,,,,,,,,,,,,,,,,,,,,,,,,,,,,,,,,,,,,,,,,,,,,,,,,,,,,,,,,
,,,,,,6106692c478cb3f1603657ed,62bbfad4447d54b1ac67c6f5,2022-06-29_09h57.37.912,Colour_Asymmetry_Pilot,2022.1.3,Win32,59.91970759,62bbe60bf3d75ef465d3e404,0,110,110,15,1,fourthree,,,,,,,,,,,,,,,,,,,,,,,,,,,,,,,,,,,,,,,,,,,,,,,,,,,,,,,,,,,,,,,,,,,,,,,,,,,,,,,,,,,,,,,,,,,,,,,,,,,,,,,,,,,,,,,,,,,,,,,,,,,,,,,,,,,,,,,,,,,,,,,,,,,,,,,,
,,,,,,6106692c478cb3f1603657ed,62bbfad4447d54b1ac67c6f5,2022-06-29_09h57.37.912,Colour_Asymmetry_Pilot,2022.1.3,Win32,59.91970759,62bbe60bf3d75ef465d3e404,0,111,111,35,1,twofour,,,,,,,,,,,,,,,,,,,,,,,,,,,,,,,,,,,,,,,,,,,,,,,,,,,,,,,,,,,,,,,,,,,,,,,,,,,,,,,,,,,,,,,,,,,,,,,,,,,,,,,,,,,,,,,,,,,,,,,,,,,,,,,,,,,,,,,,,,,,,,,,,,,,,,,,
,,,,,,6106692c478cb3f1603657ed,62bbfad4447d54b1ac67c6f5,2022-06-29_09h57.37.912,Colour_Asymmetry_Pilot,2022.1.3,Win32,59.91970759,62bbe60bf3d75ef465d3e404,0,112,112,76,1,threeone,,,,,,,,,,,,,,,,,,,,,,,,,,,,,,,,,,,,,,,,,,,,,,,,,,,,,,,,,,,,,,,,,,,,,,,,,,,,,,,,,,,,,,,,,,,,,,,,,,,,,,,,,,,,,,,,,,,,,,,,,,,,,,,,,,,,,,,,,,,,,,,,,,,,,,,,
,,,,,,6106692c478cb3f1603657ed,62bbfad4447d54b1ac67c6f5,2022-06-29_09h57.37.912,Colour_Asymmetry_Pilot,2022.1.3,Win32,59.91970759,62bbe60bf3d75ef465d3e404,0,113,113,149,1,threefour,,,,,,,,,,,,,,,,,,,,,,,,,,,,,,,,,,,,,,,,,,,,,,,,,,,,,,,,,,,,,,,,,,,,,,,,,,,,,,,,,,,,,,,,,,,,,,,,,,,,,,,,,,,,,,,,,,,,,,,,,,,,,,,,,,,,,,,,,,,,,,,,,,,,,,,,
,,,,,,6106692c478cb3f1603657ed,62bbfad4447d54b1ac67c6f5,2022-06-29_09h57.37.912,Colour_Asymmetry_Pilot,2022.1.3,Win32,59.91970759,62bbe60bf3d75ef465d3e404,0,114,114,98,1,twoone,,,,,,,,,,,,,,,,,,,,,,,,,,,,,,,,,,,,,,,,,,,,,,,,,,,,,,,,,,,,,,,,,,,,,,,,,,,,,,,,,,,,,,,,,,,,,,,,,,,,,,,,,,,,,,,,,,,,,,,,,,,,,,,,,,,,,,,,,,,,,,,,,,,,,,,,
,,,,,,6106692c478cb3f1603657ed,62bbfad4447d54b1ac67c6f5,2022-06-29_09h57.37.912,Colour_Asymmetry_Pilot,2022.1.3,Win32,59.91970759,62bbe60bf3d75ef465d3e404,0,115,115,155,1,twofour,,,,,,,,,,,,,,,,,,,,,,,,,,,,,,,,,,,,,,,,,,,,,,,,,,,,,,,,,,,,,,,,,,,,,,,,,,,,,,,,,,,,,,,,,,,,,,,,,,,,,,,,,,,,,,,,,,,,,,,,,,,,,,,,,,,,,,,,,,,,,,,,,,,,,,,,
,,,,,,6106692c478cb3f1603657ed,62bbfad4447d54b1ac67c6f5,2022-06-29_09h57.37.912,Colour_Asymmetry_Pilot,2022.1.3,Win32,59.91970759,62bbe60bf3d75ef465d3e404,0,116,116,54,1,fourtwo,,,,,,,,,,,,,,,,,,,,,,,,,,,,,,,,,,,,,,,,,,,,,,,,,,,,,,,,,,,,,,,,,,,,,,,,,,,,,,,,,,,,,,,,,,,,,,,,,,,,,,,,,,,,,,,,,,,,,,,,,,,,,,,,,,,,,,,,,,,,,,,,,,,,,,,,
,,,,,,6106692c478cb3f1603657ed,62bbfad4447d54b1ac67c6f5,2022-06-29_09h57.37.912,Colour_Asymmetry_Pilot,2022.1.3,Win32,59.91970759,62bbe60bf3d75ef465d3e404,0,117,117,52,1,threeone,,,,,,,,,,,,,,,,,,,,,,,,,,,,,,,,,,,,,,,,,,,,,,,,,,,,,,,,,,,,,,,,,,,,,,,,,,,,,,,,,,,,,,,,,,,,,,,,,,,,,,,,,,,,,,,,,,,,,,,,,,,,,,,,,,,,,,,,,,,,,,,,,,,,,,,,
,,,,,,6106692c478cb3f1603657ed,62bbfad4447d54b1ac67c6f5,2022-06-29_09h57.37.912,Colour_Asymmetry_Pilot,2022.1.3,Win32,59.91970759,62bbe60bf3d75ef465d3e404,0,118,118,23,1,fourthree,,,,,,,,,,,,,,,,,,,,,,,,,,,,,,,,,,,,,,,,,,,,,,,,,,,,,,,,,,,,,,,,,,,,,,,,,,,,,,,,,,,,,,,,,,,,,,,,,,,,,,,,,,,,,,,,,,,,,,,,,,,,,,,,,,,,,,,,,,,,,,,,,,,,,,,,
,,,,,,6106692c478cb3f1603657ed,62bbfad4447d54b1ac67c6f5,2022-06-29_09h57.37.912,Colour_Asymmetry_Pilot,2022.1.3,Win32,59.91970759,62bbe60bf3d75ef465d3e404,0,119,119,30,1,fourtwo,,,,,,,,,,,,,,,,,,,,,,,,,,,,,,,,,,,,,,,,,,,,,,,,,,,,,,,,,,,,,,,,,,,,,,,,,,,,,,,,,,,,,,,,,,,,,,,,,,,,,,,,,,,,,,,,,,,,,,,,,,,,,,,,,,,,,,,,,,,,,,,,,,,,,,,,
,,,,,,6106692c478cb3f1603657ed,62bbfad4447d54b1ac67c6f5,2022-06-29_09h57.37.912,Colour_Asymmetry_Pilot,2022.1.3,Win32,59.91970759,62bbe60bf3d75ef465d3e404,0,120,120,64,1,onetwo,,,,,,,,,,,,,,,,,,,,,,,,,,,,,,,,,,,,,,,,,,,,,,,,,,,,,,,,,,,,,,,,,,,,,,,,,,,,,,,,,,,,,,,,,,,,,,,,,,,,,,,,,,,,,,,,,,,,,,,,,,,,,,,,,,,,,,,,,,,,,,,,,,,,,,,,
,,,,,,6106692c478cb3f1603657ed,62bbfad4447d54b1ac67c6f5,2022-06-29_09h57.37.912,Colour_Asymmetry_Pilot,2022.1.3,Win32,59.91970759,62bbe60bf3d75ef465d3e404,0,121,121,66,1,twoone,,,,,,,,,,,,,,,,,,,,,,,,,,,,,,,,,,,,,,,,,,,,,,,,,,,,,,,,,,,,,,,,,,,,,,,,,,,,,,,,,,,,,,,,,,,,,,,,,,,,,,,,,,,,,,,,,,,,,,,,,,,,,,,,,,,,,,,,,,,,,,,,,,,,,,,,
,,,,,,6106692c478cb3f1603657ed,62bbfad4447d54b1ac67c6f5,2022-06-29_09h57.37.912,Colour_Asymmetry_Pilot,2022.1.3,Win32,59.91970759,62bbe60bf3d75ef465d3e404,0,122,122,5,1,threefour,,,,,,,,,,,,,,,,,,,,,,,,,,,,,,,,,,,,,,,,,,,,,,,,,,,,,,,,,,,,,,,,,,,,,,,,,,,,,,,,,,,,,,,,,,,,,,,,,,,,,,,,,,,,,,,,,,,,,,,,,,,,,,,,,,,,,,,,,,,,,,,,,,,,,,,,
,,,,,,6106692c478cb3f1603657ed,62bbfad4447d54b1ac67c6f5,2022-06-29_09h57.37.912,Colour_Asymmetry_Pilot,2022.1.3,Win32,59.91970759,62bbe60bf3d75ef465d3e404,0,123,123,92,1,threeone,,,,,,,,,,,,,,,,,,,,,,,,,,,,,,,,,,,,,,,,,,,,,,,,,,,,,,,,,,,,,,,,,,,,,,,,,,,,,,,,,,,,,,,,,,,,,,,,,,,,,,,,,,,,,,,,,,,,,,,,,,,,,,,,,,,,,,,,,,,,,,,,,,,,,,,,
,,,,,,6106692c478cb3f1603657ed,62bbfad4447d54b1ac67c6f5,2022-06-29_09h57.37.912,Colour_Asymmetry_Pilot,2022.1.3,Win32,59.91970759,62bbe60bf3d75ef465d3e404,0,124,124,150,1,fourtwo,,,,,,,,,,,,,,,,,,,,,,,,,,,,,,,,,,,,,,,,,,,,,,,,,,,,,,,,,,,,,,,,,,,,,,,,,,,,,,,,,,,,,,,,,,,,,,,,,,,,,,,,,,,,,,,,,,,,,,,,,,,,,,,,,,,,,,,,,,,,,,,,,,,,,,,,
,,,,,,6106692c478cb3f1603657ed,62bbfad4447d54b1ac67c6f5,2022-06-29_09h57.37.912,Colour_Asymmetry_Pilot,2022.1.3,Win32,59.91970759,62bbe60bf3d75ef465d3e404,0,125,125,110,1,fourtwo,,,,,,,,,,,,,,,,,,,,,,,,,,,,,,,,,,,,,,,,,,,,,,,,,,,,,,,,,,,,,,,,,,,,,,,,,,,,,,,,,,,,,,,,,,,,,,,,,,,,,,,,,,,,,,,,,,,,,,,,,,,,,,,,,,,,,,,,,,,,,,,,,,,,,,,,
,,,,,,6106692c478cb3f1603657ed,62bbfad4447d54b1ac67c6f5,2022-06-29_09h57.37.912,Colour_Asymmetry_Pilot,2022.1.3,Win32,59.91970759,62bbe60bf3d75ef465d3e404,0,126,126,22,1,fourtwo,,,,,,,,,,,,,,,,,,,,,,,,,,,,,,,,,,,,,,,,,,,,,,,,,,,,,,,,,,,,,,,,,,,,,,,,,,,,,,,,,,,,,,,,,,,,,,,,,,,,,,,,,,,,,,,,,,,,,,,,,,,,,,,,,,,,,,,,,,,,,,,,,,,,,,,,
,,,,,,6106692c478cb3f1603657ed,62bbfad4447d54b1ac67c6f5,2022-06-29_09h57.37.912,Colour_Asymmetry_Pilot,2022.1.3,Win32,59.91970759,62bbe60bf3d75ef465d3e404,0,127,127,111,1,fourthree,,,,,,,,,,,,,,,,,,,,,,,,,,,,,,,,,,,,,,,,,,,,,,,,,,,,,,,,,,,,,,,,,,,,,,,,,,,,,,,,,,,,,,,,,,,,,,,,,,,,,,,,,,,,,,,,,,,,,,,,,,,,,,,,,,,,,,,,,,,,,,,,,,,,,,,,
,,,,,,6106692c478cb3f1603657ed,62bbfad4447d54b1ac67c6f5,2022-06-29_09h57.37.912,Colour_Asymmetry_Pilot,2022.1.3,Win32,59.91970759,62bbe60bf3d75ef465d3e404,0,128,128,105,1,onethree,,,,,,,,,,,,,,,,,,,,,,,,,,,,,,,,,,,,,,,,,,,,,,,,,,,,,,,,,,,,,,,,,,,,,,,,,,,,,,,,,,,,,,,,,,,,,,,,,,,,,,,,,,,,,,,,,,,,,,,,,,,,,,,,,,,,,,,,,,,,,,,,,,,,,,,,
,,,,,,6106692c478cb3f1603657ed,62bbfad4447d54b1ac67c6f5,2022-06-29_09h57.37.912,Colour_Asymmetry_Pilot,2022.1.3,Win32,59.91970759,62bbe60bf3d75ef465d3e404,0,129,129,63,1,fourthree,,,,,,,,,,,,,,,,,,,,,,,,,,,,,,,,,,,,,,,,,,,,,,,,,,,,,,,,,,,,,,,,,,,,,,,,,,,,,,,,,,,,,,,,,,,,,,,,,,,,,,,,,,,,,,,,,,,,,,,,,,,,,,,,,,,,,,,,,,,,,,,,,,,,,,,,
,,,,,,6106692c478cb3f1603657ed,62bbfad4447d54b1ac67c6f5,2022-06-29_09h57.37.912,Colour_Asymmetry_Pilot,2022.1.3,Win32,59.91970759,62bbe60bf3d75ef465d3e404,0,130,130,142,1,fourtwo,,,,,,,,,,,,,,,,,,,,,,,,,,,,,,,,,,,,,,,,,,,,,,,,,,,,,,,,,,,,,,,,,,,,,,,,,,,,,,,,,,,,,,,,,,,,,,,,,,,,,,,,,,,,,,,,,,,,,,,,,,,,,,,,,,,,,,,,,,,,,,,,,,,,,,,,
,,,,,,6106692c478cb3f1603657ed,62bbfad4447d54b1ac67c6f5,2022-06-29_09h57.37.912,Colour_Asymmetry_Pilot,2022.1.3,Win32,59.91970759,62bbe60bf3d75ef465d3e404,0,131,131,73,1,onethree,,,,,,,,,,,,,,,,,,,,,,,,,,,,,,,,,,,,,,,,,,,,,,,,,,,,,,,,,,,,,,,,,,,,,,,,,,,,,,,,,,,,,,,,,,,,,,,,,,,,,,,,,,,,,,,,,,,,,,,,,,,,,,,,,,,,,,,,,,,,,,,,,,,,,,,,
,,,,,,6106692c478cb3f1603657ed,62bbfad4447d54b1ac67c6f5,2022-06-29_09h57.37.912,Colour_Asymmetry_Pilot,2022.1.3,Win32,59.91970759,62bbe60bf3d75ef465d3e404,0,132,132,18,1,twoone,,,,,,,,,,,,,,,,,,,,,,,,,,,,,,,,,,,,,,,,,,,,,,,,,,,,,,,,,,,,,,,,,,,,,,,,,,,,,,,,,,,,,,,,,,,,,,,,,,,,,,,,,,,,,,,,,,,,,,,,,,,,,,,,,,,,,,,,,,,,,,,,,,,,,,,,
,,,,,,6106692c478cb3f1603657ed,62bbfad4447d54b1ac67c6f5,2022-06-29_09h57.37.912,Colour_Asymmetry_Pilot,2022.1.3,Win32,59.91970759,62bbe60bf3d75ef465d3e404,0,133,133,146,1,twoone,,,,,,,,,,,,,,,,,,,,,,,,,,,,,,,,,,,,,,,,,,,,,,,,,,,,,,,,,,,,,,,,,,,,,,,,,,,,,,,,,,,,,,,,,,,,,,,,,,,,,,,,,,,,,,,,,,,,,,,,,,,,,,,,,,,,,,,,,,,,,,,,,,,,,,,,
,,,,,,6106692c478cb3f1603657ed,62bbfad4447d54b1ac67c6f5,2022-06-29_09h57.37.912,Colour_Asymmetry_Pilot,2022.1.3,Win32,59.91970759,62bbe60bf3d75ef465d3e404,0,134,134,141,1,threefour,,,,,,,,,,,,,,,,,,,,,,,,,,,,,,,,,,,,,,,,,,,,,,,,,,,,,,,,,,,,,,,,,,,,,,,,,,,,,,,,,,,,,,,,,,,,,,,,,,,,,,,,,,,,,,,,,,,,,,,,,,,,,,,,,,,,,,,,,,,,,,,,,,,,,,,,
,,,,,,6106692c478cb3f1603657ed,62bbfad4447d54b1ac67c6f5,2022-06-29_09h57.37.912,Colour_Asymmetry_Pilot,2022.1.3,Win32,59.91970759,62bbe60bf3d75ef465d3e404,0,135,135,81,1,onethree,,,,,,,,,,,,,,,,,,,,,,,,,,,,,,,,,,,,,,,,,,,,,,,,,,,,,,,,,,,,,,,,,,,,,,,,,,,,,,,,,,,,,,,,,,,,,,,,,,,,,,,,,,,,,,,,,,,,,,,,,,,,,,,,,,,,,,,,,,,,,,,,,,,,,,,,
,,,,,,6106692c478cb3f1603657ed,62bbfad4447d54b1ac67c6f5,2022-06-29_09h57.37.912,Colour_Asymmetry_Pilot,2022.1.3,Win32,59.91970759,62bbe60bf3d75ef465d3e404,0,136,136,99,1,twofour,,,,,,,,,,,,,,,,,,,,,,,,,,,,,,,,,,,,,,,,,,,,,,,,,,,,,,,,,,,,,,,,,,,,,,,,,,,,,,,,,,,,,,,,,,,,,,,,,,,,,,,,,,,,,,,,,,,,,,,,,,,,,,,,,,,,,,,,,,,,,,,,,,,,,,,,
,,,,,,6106692c478cb3f1603657ed,62bbfad4447d54b1ac67c6f5,2022-06-29_09h57.37.912,Colour_Asymmetry_Pilot,2022.1.3,Win32,59.91970759,62bbe60bf3d75ef465d3e404,0,137,137,37,1,threefour,,,,,,,,,,,,,,,,,,,,,,,,,,,,,,,,,,,,,,,,,,,,,,,,,,,,,,,,,,,,,,,,,,,,,,,,,,,,,,,,,,,,,,,,,,,,,,,,,,,,,,,,,,,,,,,,,,,,,,,,,,,,,,,,,,,,,,,,,,,,,,,,,,,,,,,,
,,,,,,6106692c478cb3f1603657ed,62bbfad4447d54b1ac67c6f5,2022-06-29_09h57.37.912,Colour_Asymmetry_Pilot,2022.1.3,Win32,59.91970759,62bbe60bf3d75ef465d3e404,0,138,138,100,1,threeone,,,,,,,,,,,,,,,,,,,,,,,,,,,,,,,,,,,,,,,,,,,,,,,,,,,,,,,,,,,,,,,,,,,,,,,,,,,,,,,,,,,,,,,,,,,,,,,,,,,,,,,,,,,,,,,,,,,,,,,,,,,,,,,,,,,,,,,,,,,,,,,,,,,,,,,,
,,,,,,6106692c478cb3f1603657ed,62bbfad4447d54b1ac67c6f5,2022-06-29_09h57.37.912,Colour_Asymmetry_Pilot,2022.1.3,Win32,59.91970759,62bbe60bf3d75ef465d3e404,0,139,139,116,1,threeone,,,,,,,,,,,,,,,,,,,,,,,,,,,,,,,,,,,,,,,,,,,,,,,,,,,,,,,,,,,,,,,,,,,,,,,,,,,,,,,,,,,,,,,,,,,,,,,,,,,,,,,,,,,,,,,,,,,,,,,,,,,,,,,,,,,,,,,,,,,,,,,,,,,,,,,,
,,,,,,6106692c478cb3f1603657ed,62bbfad4447d54b1ac67c6f5,2022-06-29_09h57.37.912,Colour_Asymmetry_Pilot,2022.1.3,Win32,59.91970759,62bbe60bf3d75ef465d3e404,0,140,140,122,1,twoone,,,,,,,,,,,,,,,,,,,,,,,,,,,,,,,,,,,,,,,,,,,,,,,,,,,,,,,,,,,,,,,,,,,,,,,,,,,,,,,,,,,,,,,,,,,,,,,,,,,,,,,,,,,,,,,,,,,,,,,,,,,,,,,,,,,,,,,,,,,,,,,,,,,,,,,,
,,,,,,6106692c478cb3f1603657ed,62bbfad4447d54b1ac67c6f5,2022-06-29_09h57.37.912,Colour_Asymmetry_Pilot,2022.1.3,Win32,59.91970759,62bbe60bf3d75ef465d3e404,0,141,141,124,1,threeone,,,,,,,,,,,,,,,,,,,,,,,,,,,,,,,,,,,,,,,,,,,,,,,,,,,,,,,,,,,,,,,,,,,,,,,,,,,,,,,,,,,,,,,,,,,,,,,,,,,,,,,,,,,,,,,,,,,,,,,,,,,,,,,,,,,,,,,,,,,,,,,,,,,,,,,,
,,,,,,6106692c478cb3f1603657ed,62bbfad4447d54b1ac67c6f5,2022-06-29_09h57.37.912,Colour_Asymmetry_Pilot,2022.1.3,Win32,59.91970759,62bbe60bf3d75ef465d3e404,0,142,142,88,1,onetwo,,,,,,,,,,,,,,,,,,,,,,,,,,,,,,,,,,,,,,,,,,,,,,,,,,,,,,,,,,,,,,,,,,,,,,,,,,,,,,,,,,,,,,,,,,,,,,,,,,,,,,,,,,,,,,,,,,,,,,,,,,,,,,,,,,,,,,,,,,,,,,,,,,,,,,,,
,,,,,,6106692c478cb3f1603657ed,62bbfad4447d54b1ac67c6f5,2022-06-29_09h57.37.912,Colour_Asymmetry_Pilot,2022.1.3,Win32,59.91970759,62bbe60bf3d75ef465d3e404,0,143,143,42,1,twoone,,,,,,,,,,,,,,,,,,,,,,,,,,,,,,,,,,,,,,,,,,,,,,,,,,,,,,,,,,,,,,,,,,,,,,,,,,,,,,,,,,,,,,,,,,,,,,,,,,,,,,,,,,,,,,,,,,,,,,,,,,,,,,,,,,,,,,,,,,,,,,,,,,,,,,,,
,,,,,,6106692c478cb3f1603657ed,62bbfad4447d54b1ac67c6f5,2022-06-29_09h57.37.912,Colour_Asymmetry_Pilot,2022.1.3,Win32,59.91970759,62bbe60bf3d75ef465d3e404,0,144,144,47,1,fourthree,,,,,,,,,,,,,,,,,,,,,,,,,,,,,,,,,,,,,,,,,,,,,,,,,,,,,,,,,,,,,,,,,,,,,,,,,,,,,,,,,,,,,,,,,,,,,,,,,,,,,,,,,,,,,,,,,,,,,,,,,,,,,,,,,,,,,,,,,,,,,,,,,,,,,,,,
,,,,,,6106692c478cb3f1603657ed,62bbfad4447d54b1ac67c6f5,2022-06-29_09h57.37.912,Colour_Asymmetry_Pilot,2022.1.3,Win32,59.91970759,62bbe60bf3d75ef465d3e404,0,145,145,16,1,onetwo,,,,,,,,,,,,,,,,,,,,,,,,,,,,,,,,,,,,,,,,,,,,,,,,,,,,,,,,,,,,,,,,,,,,,,,,,,,,,,,,,,,,,,,,,,,,,,,,,,,,,,,,,,,,,,,,,,,,,,,,,,,,,,,,,,,,,,,,,,,,,,,,,,,,,,,,
,,,,,,6106692c478cb3f1603657ed,62bbfad4447d54b1ac67c6f5,2022-06-29_09h57.37.912,Colour_Asymmetry_Pilot,2022.1.3,Win32,59.91970759,62bbe60bf3d75ef465d3e404,0,146,146,143,1,fourthree,,,,,,,,,,,,,,,,,,,,,,,,,,,,,,,,,,,,,,,,,,,,,,,,,,,,,,,,,,,,,,,,,,,,,,,,,,,,,,,,,,,,,,,,,,,,,,,,,,,,,,,,,,,,,,,,,,,,,,,,,,,,,,,,,,,,,,,,,,,,,,,,,,,,,,,,
,,,,,,6106692c478cb3f1603657ed,62bbfad4447d54b1ac67c6f5,2022-06-29_09h57.37.912,Colour_Asymmetry_Pilot,2022.1.3,Win32,59.91970759,62bbe60bf3d75ef465d3e404,0,147,147,36,1,threeone,,,,,,,,,,,,,,,,,,,,,,,,,,,,,,,,,,,,,,,,,,,,,,,,,,,,,,,,,,,,,,,,,,,,,,,,,,,,,,,,,,,,,,,,,,,,,,,,,,,,,,,,,,,,,,,,,,,,,,,,,,,,,,,,,,,,,,,,,,,,,,,,,,,,,,,,
,,,,,,6106692c478cb3f1603657ed,62bbfad4447d54b1ac67c6f5,2022-06-29_09h57.37.912,Colour_Asymmetry_Pilot,2022.1.3,Win32,59.91970759,62bbe60bf3d75ef465d3e404,0,148,148,109,1,threefour,,,,,,,,,,,,,,,,,,,,,,,,,,,,,,,,,,,,,,,,,,,,,,,,,,,,,,,,,,,,,,,,,,,,,,,,,,,,,,,,,,,,,,,,,,,,,,,,,,,,,,,,,,,,,,,,,,,,,,,,,,,,,,,,,,,,,,,,,,,,,,,,,,,,,,,,
,,,,,,6106692c478cb3f1603657ed,62bbfad4447d54b1ac67c6f5,2022-06-29_09h57.37.912,Colour_Asymmetry_Pilot,2022.1.3,Win32,59.91970759,62bbe60bf3d75ef465d3e404,0,149,149,82,1,twoone,,,,,,,,,,,,,,,,,,,,,,,,,,,,,,,,,,,,,,,,,,,,,,,,,,,,,,,,,,,,,,,,,,,,,,,,,,,,,,,,,,,,,,,,,,,,,,,,,,,,,,,,,,,,,,,,,,,,,,,,,,,,,,,,,,,,,,,,,,,,,,,,,,,,,,,,
,,,,,,6106692c478cb3f1603657ed,62bbfad4447d54b1ac67c6f5,2022-06-29_09h57.37.912,Colour_Asymmetry_Pilot,2022.1.3,Win32,59.91970759,62bbe60bf3d75ef465d3e404,0,150,150,11,1,twofour,,,,,,,,,,,,,,,,,,,,,,,,,,,,,,,,,,,,,,,,,,,,,,,,,,,,,,,,,,,,,,,,,,,,,,,,,,,,,,,,,,,,,,,,,,,,,,,,,,,,,,,,,,,,,,,,,,,,,,,,,,,,,,,,,,,,,,,,,,,,,,,,,,,,,,,,
,,,,,,6106692c478cb3f1603657ed,62bbfad4447d54b1ac67c6f5,2022-06-29_09h57.37.912,Colour_Asymmetry_Pilot,2022.1.3,Win32,59.91970759,62bbe60bf3d75ef465d3e404,0,151,151,128,1,onetwo,,,,,,,,,,,,,,,,,,,,,,,,,,,,,,,,,,,,,,,,,,,,,,,,,,,,,,,,,,,,,,,,,,,,,,,,,,,,,,,,,,,,,,,,,,,,,,,,,,,,,,,,,,,,,,,,,,,,,,,,,,,,,,,,,,,,,,,,,,,,,,,,,,,,,,,,
,,,,,,6106692c478cb3f1603657ed,62bbfad4447d54b1ac67c6f5,2022-06-29_09h57.37.912,Colour_Asymmetry_Pilot,2022.1.3,Win32,59.91970759,62bbe60bf3d75ef465d3e404,0,152,152,2,1,twoone,,,,,,,,,,,,,,,,,,,,,,,,,,,,,,,,,,,,,,,,,,,,,,,,,,,,,,,,,,,,,,,,,,,,,,,,,,,,,,,,,,,,,,,,,,,,,,,,,,,,,,,,,,,,,,,,,,,,,,,,,,,,,,,,,,,,,,,,,,,,,,,,,,,,,,,,
,,,,,,6106692c478cb3f1603657ed,62bbfad4447d54b1ac67c6f5,2022-06-29_09h57.37.912,Colour_Asymmetry_Pilot,2022.1.3,Win32,59.91970759,62bbe60bf3d75ef465d3e404,0,153,153,24,1,onetwo,,,,,,,,,,,,,,,,,,,,,,,,,,,,,,,,,,,,,,,,,,,,,,,,,,,,,,,,,,,,,,,,,,,,,,,,,,,,,,,,,,,,,,,,,,,,,,,,,,,,,,,,,,,,,,,,,,,,,,,,,,,,,,,,,,,,,,,,,,,,,,,,,,,,,,,,
,,,,,,6106692c478cb3f1603657ed,62bbfad4447d54b1ac67c6f5,2022-06-29_09h57.37.912,Colour_Asymmetry_Pilot,2022.1.3,Win32,59.91970759,62bbe60bf3d75ef465d3e404,0,154,154,4,1,threeone,,,,,,,,,,,,,,,,,,,,,,,,,,,,,,,,,,,,,,,,,,,,,,,,,,,,,,,,,,,,,,,,,,,,,,,,,,,,,,,,,,,,,,,,,,,,,,,,,,,,,,,,,,,,,,,,,,,,,,,,,,,,,,,,,,,,,,,,,,,,,,,,,,,,,,,,
,,,,,,6106692c478cb3f1603657ed,62bbfad4447d54b1ac67c6f5,2022-06-29_09h57.37.912,Colour_Asymmetry_Pilot,2022.1.3,Win32,59.91970759,62bbe60bf3d75ef465d3e404,0,155,155,80,1,onetwo,,,,,,,,,,,,,,,,,,,,,,,,,,,,,,,,,,,,,,,,,,,,,,,,,,,,,,,,,,,,,,,,,,,,,,,,,,,,,,,,,,,,,,,,,,,,,,,,,,,,,,,,,,,,,,,,,,,,,,,,,,,,,,,,,,,,,,,,,,,,,,,,,,,,,,,,
,,,,,,6106692c478cb3f1603657ed,62bbfad4447d54b1ac67c6f5,2022-06-29_09h57.37.912,Colour_Asymmetry_Pilot,2022.1.3,Win32,59.91970759,62bbe60bf3d75ef465d3e404,0,156,156,112,1,onetwo,,,,,,,,,,,,,,,,,,,,,,,,,,,,,,,,,,,,,,,,,,,,,,,,,,,,,,,,,,,,,,,,,,,,,,,,,,,,,,,,,,,,,,,,,,,,,,,,,,,,,,,,,,,,,,,,,,,,,,,,,,,,,,,,,,,,,,,,,,,,,,,,,,,,,,,,
,,,,,,6106692c478cb3f1603657ed,62bbfad4447d54b1ac67c6f5,2022-06-29_09h57.37.912,Colour_Asymmetry_Pilot,2022.1.3,Win32,59.91970759,62bbe60bf3d75ef465d3e404,0,157,157,45,1,threefour,,,,,,,,,,,,,,,,,,,,,,,,,,,,,,,,,,,,,,,,,,,,,,,,,,,,,,,,,,,,,,,,,,,,,,,,,,,,,,,,,,,,,,,,,,,,,,,,,,,,,,,,,,,,,,,,,,,,,,,,,,,,,,,,,,,,,,,,,,,,,,,,,,,,,,,,
,,,,,,6106692c478cb3f1603657ed,62bbfad4447d54b1ac67c6f5,2022-06-29_09h57.37.912,Colour_Asymmetry_Pilot,2022.1.3,Win32,59.91970759,62bbe60bf3d75ef465d3e404,0,158,158,93,1,threefour,,,,,,,,,,,,,,,,,,,,,,,,,,,,,,,,,,,,,,,,,,,,,,,,,,,,,,,,,,,,,,,,,,,,,,,,,,,,,,,,,,,,,,,,,,,,,,,,,,,,,,,,,,,,,,,,,,,,,,,,,,,,,,,,,,,,,,,,,,,,,,,,,,,,,,,,
,,,,,,6106692c478cb3f1603657ed,62bbfad4447d54b1ac67c6f5,2022-06-29_09h57.37.912,Colour_Asymmetry_Pilot,2022.1.3,Win32,59.91970759,62bbe60bf3d75ef465d3e404,0,159,159,74,1,twoone,,,,,,,,,,,,,,,,,,,,,,,,,,,,,,,,,,,,,,,,,,,,,,,,,,,,,,,,,,,,,,,,,,,,,,,,,,,,,,,,,,,,,,,,,,,,,,,,,,,,,,,,,,,,,,,,,,,,,,,,,,,,,,,,,,,,,,,,,,,,,,,,,,,,,,,,
,,,,,,6106692c478cb3f1603657ed,62bbfad4447d54b1ac67c6f5,2022-06-29_09h57.37.912,Colour_Asymmetry_Pilot,2022.1.3,Win32,59.91970759,62bbe60bf3d75ef465d3e404,0,160,160,106,1,twoone,,,,,,,,,,,,,,,,,,,,,,,,,,,,,,,,,,,,,,,,,,,,,,,,,,,,,,,,,,,,,,,,,,,,,,,,,,,,,,,,,,,,,,,,,,,,,,,,,,,,,,,,,,,,,,,,,,,,,,,,,,,,,,,,,,,,,,,,,,,,,,,,,,,,,,,,
,,,,,,6106692c478cb3f1603657ed,62bbfad4447d54b1ac67c6f5,2022-06-29_09h57.37.912,Colour_Asymmetry_Pilot,2022.1.3,Win32,59.91970759,62bbe60bf3d75ef465d3e404,0,161,161,151,1,fourthree,,,,,,,,,,,,,,,,,,,,,,,,,,,,,,,,,,,,,,,,,,,,,,,,,,,,,,,,,,,,,,,,,,,,,,,,,,,,,,,,,,,,,,,,,,,,,,,,,,,,,,,,,,,,,,,,,,,,,,,,,,,,,,,,,,,,,,,,,,,,,,,,,,,,,,,,
,,,,,,6106692c478cb3f1603657ed,62bbfad4447d54b1ac67c6f5,2022-06-29_09h57.37.912,Colour_Asymmetry_Pilot,2022.1.3,Win32,59.91970759,62bbe60bf3d75ef465d3e404,,,,,,,space,3.7205,space,0.6634,space,13.2928,space,1.5333,space,3.1984,space,0.7186,"[0.9686000000000001,0.3802000000000001,0.19999999999999996]",onethree,"[-0.9216,-0.5529999999999999,-0.3962]",-4,8.5232,-41,82.5,1,0,0,response7disk_5,-17,-3.5,1,0,0,rectangle_8,-17,-3.5,1,0,0,4,-17,-3.5,1,0,0,0,0,0,0,1,,,,,,,,,,,,,,,,,,,,,,,,,,,,,,,,,,,,,,,,,,,,,,,,,,,,,,,,,,,,,,,,,,,,,,,,,,,,,,,,,,,,,,,,,,,,,,,,,,,,,,,,,,,
,,,,,,6106692c478cb3f1603657ed,62bbfad4447d54b1ac67c6f5,2022-06-29_09h57.37.912,Colour_Asymmetry_Pilot,2022.1.3,Win32,59.91970759,62bbe60bf3d75ef465d3e404,,,,,,,,,,,,,,,,,,,"[-0.9296,-0.12959999999999994,-0.043199999999999905]",threefour,"[-0.9688,-0.4902000000000001,-0.12159999999999993]",4,0.9182,46,87.5,1,0,0,response1disk_5,2,-1.5,1,0,0,rectangle_8,39,106.5,1,0,0,4,-8,-10.5,1,0,0,1,0,1,0,1,response1disk_7,7,rectangle_4,,,,,,,,,,,,,,,,,,,,,,,,,,,,,,,,,,,,,,,,,,,,,,,,,,,,,,,,,,,,,,,,,,,,,,,,,,,,,,,,,,,,,,,,,,,,,,,,,,,,,,,,
,,,,,,6106692c478cb3f1603657ed,62bbfad4447d54b1ac67c6f5,2022-06-29_09h57.37.912,Colour_Asymmetry_Pilot,2022.1.3,Win32,59.91970759,62bbe60bf3d75ef465d3e404,,,,,,,,,,,,,,,,,,,"[-0.4982,-0.2942,-0.0354000000000001]",onethree,"[-0.20799999999999996,-0.655,-0.01980000000000004]",4,2.333,43,100.5,1,0,0,response1disk_5,7,0.5,1,0,0,rectangle_8,7,0.5,1,0,0,4,7,0.5,1,0,0,2,0,2,0,1,,,,,,,,,,,,,,,,,,,,,,,,,,,,,,,,,,,,,,,,,,,,,,,,,,,,,,,,,,,,,,,,,,,,,,,,,,,,,,,,,,,,,,,,,,,,,,,,,,,,,,,,,,,
,,,,,,6106692c478cb3f1603657ed,62bbfad4447d54b1ac67c6f5,2022-06-29_09h57.37.912,Colour_Asymmetry_Pilot,2022.1.3,Win32,59.91970759,62bbe60bf3d75ef465d3e404,,,,,,,,,,,,,,,,,,,"[-0.17659999999999998,-0.2864,-0.8354]",onethree,"[0.40379999999999994,0.09000000000000008,0.44300000000000006]",-4,1.9672,-37,106.5,1,0,0,response7disk_5,-2,-7.5,1,0,0,rectangle_8,-2,-7.5,1,0,0,4,-2,-7.5,1,0,0,3,0,3,0,1,,,,,,,,,,,,,,,,,,,,,,,,,,,,,,,,,,,,,,,,,,,,,,,,,,,,,,,,,,,,,,,,,,,,,,,,,,,,,,,,,,,,,,,,,,,,,,,,,,,,,,,,,,,
,,,,,,6106692c478cb3f1603657ed,62bbfad4447d54b1ac67c6f5,2022-06-29_09h57.37.912,Colour_Asymmetry_Pilot,2022.1.3,Win32,59.91970759,62bbe60bf3d75ef465d3e404,,,,,,,,,,,,,,,,,,,"[-0.6706000000000001,-0.6157999999999999,-0.6786]",twofour,"[0.9763999999999999,0.8588,-0.05900000000000005]",-4,2.0684,-42,102.5,1,0,0,response7disk_5,17,8.5,1,0,0,rectangle_8,17,8.5,1,0,0,4,17,8.5,1,0,0,4,0,4,0,1,,,,,,,,,,,,,,,,,,,,,,,,,,,,,,,,,,,,,,,,,,,,,,,,,,,,,,,,,,,,,,,,,,,,,,,,,,,,,,,,,,,,,,,,,,,,,,,,,,,,,,,,,,,
,,,,,,6106692c478cb3f1603657ed,62bbfad4447d54b1ac67c6f5,2022-06-29_09h57.37.912,Colour_Asymmetry_Pilot,2022.1.3,Win32,59.91970759,62bbe60bf3d75ef465d3e404,,,,,,,,,,,,,,,,,,,"[0.40379999999999994,0.09000000000000008,0.44300000000000006]",fourtwo,"[0.19199999999999995,0.18419999999999992,0.5136000000000001]",4,1.1315,27,109.5,1,0,0,response1disk_5,10,2.5,1,0,0,rectangle_8,10,2.5,1,0,0,4,10,2.5,1,0,0,5,0,5,0,1,,,,,,,,,,,,,,,,,,,,,,,,,,,,,,,,,,,,,,,,,,,,,,,,,,,,,,,,,,,,,,,,,,,,,,,,,,,,,,,,,,,,,,,,,,,,,,,,,,,,,,,,,,,
,,,,,,6106692c478cb3f1603657ed,62bbfad4447d54b1ac67c6f5,2022-06-29_09h57.37.912,Colour_Asymmetry_Pilot,2022.1.3,Win32,59.91970759,62bbe60bf3d75ef465d3e404,,,,,,,,,,,,,,,,,,,"[0.4196,0.4665999999999999,0.3568]",fourthree,"[-0.38039999999999996,-0.4276,-0.1452]",4,1.3317,48,95.5,1,0,0,response1disk_5,9,-8.5,1,0,0,rectangle_8,9,-8.5,1,0,0,4,9,-8.5,1,0,0,6,0,6,0,1,,,,,,,,,,,,,,,,,,,,,,,,,,,,,,,,,,,,,,,,,,,,,,,,,,,,,,,,,,,,,,,,,,,,,,,,,,,,,,,,,,,,,,,,,,,,,,,,,,,,,,,,,,,
,,,,,,6106692c478cb3f1603657ed,62bbfad4447d54b1ac67c6f5,2022-06-29_09h57.37.912,Colour_Asymmetry_Pilot,2022.1.3,Win32,59.91970759,62bbe60bf3d75ef465d3e404,,,,,,,,,,,,,,,,,,,,threeone,,4,1.3517,,,,,,,,,,,,,,,,,,,,,,,,,,,,,,,,space,1.0604,"[0.05879999999999996,0.2784,0.5841999999999998]","[-0.9766,-0.34920000000000007,0.2156]",42,73.5,1,0,0,response1disk,5,3.5,1,0,0,rectangle,5,3.5,1,0,0,,1,0.0023,0,5,3.5,1,0,0,0,0,0,17,1,17,first,,,,,,,,,,,,,,,,,,,,,,,,,,,,,,,,,,,,,,,,,,,,,,,,,,,,,,,,,,,,,,,,,,,
,,,,,,6106692c478cb3f1603657ed,62bbfad4447d54b1ac67c6f5,2022-06-29_09h57.37.912,Colour_Asymmetry_Pilot,2022.1.3,Win32,59.91970759,62bbe60bf3d75ef465d3e404,,,,,,,,,,,,,,,,,,,,fourtwo,,-4,0.6306,,,,,,,,,,,,,,,,,,,,,,,,,,,,,,,,,,"[-0.4982,-0.2942,-0.0354000000000001]","[0.12939999999999996,-0.2864,0.3253999999999999]",-55,72.5,1,0,0,response7disk,-14,2.5,1,0,0,rectangle,-14,2.5,1,0,0,,2,0.0021,0,-14,2.5,1,0,0,0,1,1,66,1,66,first,,,,,,,,,,,,,,,,,,,,,,,,,,,,,,,,,,,,,,,,,,,,,,,,,,,,,,,,,,,,,,,,,,,
,,,,,,6106692c478cb3f1603657ed,62bbfad4447d54b1ac67c6f5,2022-06-29_09h57.37.912,Colour_Asymmetry_Pilot,2022.1.3,Win32,59.91970759,62bbe60bf3d75ef465d3e404,,,,,,,,,,,,,,,,,,,,threeone,,-4,0.7826,,,,,,,,,,,,,,,,,,,,,,,,,,,,,,,,,,"[-0.8118,-0.8198,-0.5452]","[0.0351999999999999,0.41159999999999997,0.0038000000000000256]",-35,57.5,1,0,0,response7disk,-16,3.5,1,0,0,rectangle,-16,3.5,1,0,0,,1,0.0024,0,-16,3.5,1,0,0,0,2,2,140,1,59,second,,,,,,,,,,,,,,,,,,,,,,,,,,,,,,,,,,,,,,,,,,,,,,,,,,,,,,,,,,,,,,,,,,,
,,,,,,6106692c478cb3f1603657ed,62bbfad4447d54b1ac67c6f5,2022-06-29_09h57.37.912,Colour_Asymmetry_Pilot,2022.1.3,Win32,59.91970759,62bbe60bf3d75ef465d3e404,,,,,,,,,,,,,,,,,,,,threeone,,4,0.6791,,,,,,,,,,,,,,,,,,,,,,,,,,,,,,,,,,"[0.9372,0.20779999999999998,0.2704]","[0.9686000000000001,0.3802000000000001,0.19999999999999996]",39,62.5,1,0,0,response1disk,18,11.5,1,0,0,rectangle,18,11.5,1,0,0,,3,0.0021,0,18,11.5,1,0,0,0,3,3,50,1,50,first,,,,,,,,,,,,,,,,,,,,,,,,,,,,,,,,,,,,,,,,,,,,,,,,,,,,,,,,,,,,,,,,,,,
,,,,,,6106692c478cb3f1603657ed,62bbfad4447d54b1ac67c6f5,2022-06-29_09h57.37.912,Colour_Asymmetry_Pilot,2022.1.3,Win32,59.91970759,62bbe60bf3d75ef465d3e404,,,,,,,,,,,,,,,,,,,,twofour,,-4,1.0156,,,,,,,,,,,,,,,,,,,,,,,,,,,,,,,,,,"[-0.5922000000000001,-0.7492000000000001,-0.5296000000000001]","[-0.17659999999999998,-0.2864,-0.8354]",-52,88.5,1,0,0,response7disk,-3,11.5,1,0,0,rectangle,-3,11.5,1,0,0,,3,0.0003,0,-3,11.5,1,0,0,0,4,4,12,1,12,first,,,,,,,,,,,,,,,,,,,,,,,,,,,,,,,,,,,,,,,,,,,,,,,,,,,,,,,,,,,,,,,,,,,
,,,,,,6106692c478cb3f1603657ed,62bbfad4447d54b1ac67c6f5,2022-06-29_09h57.37.912,Colour_Asymmetry_Pilot,2022.1.3,Win32,59.91970759,62bbe60bf3d75ef465d3e404,,,,,,,,,,,,,,,,,,,,onethree,,4,0.6982,,,,,,,,,,,,,,,,,,,,,,,,,,,,,,,,,,"[0.6547999999999998,-0.043199999999999905,-0.011800000000000033]","[0.7802,-0.23140000000000005,-0.20799999999999996]",39,65.5,1,0,0,response1disk,0,4.5,1,0,0,rectangle,0,4.5,1,0,0,,2,0.0016,0,0,4.5,1,0,0,0,5,5,96,1,15,second,,,,,,,,,,,,,,,,,,,,,,,,,,,,,,,,,,,,,,,,,,,,,,,,,,,,,,,,,,,,,,,,,,,
,,,,,,6106692c478cb3f1603657ed,62bbfad4447d54b1ac67c6f5,2022-06-29_09h57.37.912,Colour_Asymmetry_Pilot,2022.1.3,Win32,59.91970759,62bbe60bf3d75ef465d3e404,,,,,,,,,,,,,,,,,,,,threeone,,-4,0.5828,,,,,,,,,,,,,,,,,,,,,,,,,,,,,,,,,,"[0.12939999999999996,-0.2864,0.3253999999999999]","[0.6625999999999999,0.4980000000000002,-0.357]",-42,80.5,1,0,0,response7disk,6,-4.5,1,0,0,rectangle,6,-4.5,1,0,0,,1,0.0015,0,6,-4.5,1,0,0,0,6,6,89,1,8,second,,,,,,,,,,,,,,,,,,,,,,,,,,,,,,,,,,,,,,,,,,,,,,,,,,,,,,,,,,,,,,,,,,,
,,,,,,6106692c478cb3f1603657ed,62bbfad4447d54b1ac67c6f5,2022-06-29_09h57.37.912,Colour_Asymmetry_Pilot,2022.1.3,Win32,59.91970759,62bbe60bf3d75ef465d3e404,,,,,,,,,,,,,,,,,,,,threefour,,-4,0.7984,,,,,,,,,,,,,,,,,,,,,,,,,,,,,,,,,,"[0.4196,0.4665999999999999,0.3568]","[-0.34920000000000007,-0.702,-0.5216]",-36,73.5,1,0,0,response7disk,-5,10.5,1,0,0,rectangle,-5,10.5,1,0,0,,3,0.0015,0,-5,10.5,1,0,0,0,7,7,1,1,1,first,,,,,,,,,,,,,,,,,,,,,,,,,,,,,,,,,,,,,,,,,,,,,,,,,,,,,,,,,,,,,,,,,,,
,,,,,,6106692c478cb3f1603657ed,62bbfad4447d54b1ac67c6f5,2022-06-29_09h57.37.912,Colour_Asymmetry_Pilot,2022.1.3,Win32,59.91970759,62bbe60bf3d75ef465d3e404,,,,,,,,,,,,,,,,,,,,onetwo,,4,0.6703,,,,,,,,,,,,,,,,,,,,,,,,,,,,,,,,,,"[0.6625999999999999,0.4980000000000002,-0.357]","[1,0.12939999999999996,-1]",40,92.5,1,0,0,response1disk,-11,2.5,1,0,0,rectangle,-11,2.5,1,0,0,,2,0.0015,0,-11,2.5,1,0,0,0,8,8,151,1,70,second,,,,,,,,,,,,,,,,,,,,,,,,,,,,,,,,,,,,,,,,,,,,,,,,,,,,,,,,,,,,,,,,,,,
,,,,,,6106692c478cb3f1603657ed,62bbfad4447d54b1ac67c6f5,2022-06-29_09h57.37.912,Colour_Asymmetry_Pilot,2022.1.3,Win32,59.91970759,62bbe60bf3d75ef465d3e404,,,,,,,,,,,,,,,,,,,,fourtwo,,4,4.2514,,,,,,,,,,,,,,,,,,,,,,,,,,,,,,,,,,"[1,0.12939999999999996,-1]","[0.37240000000000006,-0.050999999999999934,-0.5216]",23,55.5,1,0,0,response1disk,-20,-6.5,1,0,0,rectangle,-20,-6.5,1,0,0,,2,0.0003,0,-20,-6.5,1,0,0,0,9,9,110,1,29,second,,,,,,,,,,,,,,,,,,,,,,,,,,,,,,,,,,,,,,,,,,,,,,,,,,,,,,,,,,,,,,,,,,,
,,,,,,6106692c478cb3f1603657ed,62bbfad4447d54b1ac67c6f5,2022-06-29_09h57.37.912,Colour_Asymmetry_Pilot,2022.1.3,Win32,59.91970759,62bbe60bf3d75ef465d3e404,,,,,,,,,,,,,,,,,,,,onetwo,,4,1.0033,,,,,,,,,,,,,,,,,,,,,,,,,,,,,,,,,,"[-0.17659999999999998,-0.2864,-0.8354]","[-0.9216,-0.5529999999999999,-0.3962]",45,79.5,1,0,0,response1disk,0,5.5,1,0,0,rectangle,0,5.5,1,0,0,,3,0.0021,0,0,5.5,1,0,0,0,10,10,19,1,19,first,,,,,,,,,,,,,,,,,,,,,,,,,,,,,,,,,,,,,,,,,,,,,,,,,,,,,,,,,,,,,,,,,,,
,,,,,,6106692c478cb3f1603657ed,62bbfad4447d54b1ac67c6f5,2022-06-29_09h57.37.912,Colour_Asymmetry_Pilot,2022.1.3,Win32,59.91970759,62bbe60bf3d75ef465d3e404,,,,,,,,,,,,,,,,,,,,twofour,,-4,0.5328,,,,,,,,,,,,,,,,,,,,,,,,,,,,,,,,,,"[0.3802000000000001,0.19199999999999995,-0.6394]","[-0.9766,-0.34920000000000007,0.2156]",-50,67.5,1,0,0,response7disk,-19,6.5,1,0,0,rectangle,-19,6.5,1,0,0,,2,0.0011,0,-19,6.5,1,0,0,0,11,11,67,1,67,first,,,,,,,,,,,,,,,,,,,,,,,,,,,,,,,,,,,,,,,,,,,,,,,,,,,,,,,,,,,,,,,,,,,
,,,,,,6106692c478cb3f1603657ed,62bbfad4447d54b1ac67c6f5,2022-06-29_09h57.37.912,Colour_Asymmetry_Pilot,2022.1.3,Win32,59.91970759,62bbe60bf3d75ef465d3e404,,,,,,,,,,,,,,,,,,,,twoone,,-4,0.5668,,,,,,,,,,,,,,,,,,,,,,,,,,,,,,,,,,"[0.37240000000000006,-0.050999999999999934,-0.5216]","[-0.9766,-0.34920000000000007,0.2156]",-50,75.5,1,0,0,response7disk,2,6.5,1,0,0,rectangle,2,6.5,1,0,0,,2,0.0002,0,2,6.5,1,0,0,0,12,12,106,1,25,second,,,,,,,,,,,,,,,,,,,,,,,,,,,,,,,,,,,,,,,,,,,,,,,,,,,,,,,,,,,,,,,,,,,
,,,,,,6106692c478cb3f1603657ed,62bbfad4447d54b1ac67c6f5,2022-06-29_09h57.37.912,Colour_Asymmetry_Pilot,2022.1.3,Win32,59.91970759,62bbe60bf3d75ef465d3e404,,,,,,,,,,,,,,,,,,,,onetwo,,4,0.5588,,,,,,,,,,,,,,,,,,,,,,,,,,,,,,,,,,"[0.37240000000000006,-0.050999999999999934,-0.5216]","[1,0.12939999999999996,-1]",27,65.5,1,0,0,response1disk,11,1.5,1,0,0,rectangle,11,1.5,1,0,0,,3,0.0021,0,11,1.5,1,0,0,0,13,13,29,1,29,first,,,,,,,,,,,,,,,,,,,,,,,,,,,,,,,,,,,,,,,,,,,,,,,,,,,,,,,,,,,,,,,,,,,
,,,,,,6106692c478cb3f1603657ed,62bbfad4447d54b1ac67c6f5,2022-06-29_09h57.37.912,Colour_Asymmetry_Pilot,2022.1.3,Win32,59.91970759,62bbe60bf3d75ef465d3e404,,,,,,,,,,,,,,,,,,,,onethree,,4,1.1685,,,,,,,,,,,,,,,,,,,,,,,,,,,,,,,,,,"[0.05879999999999996,0.2784,0.5841999999999998]","[-0.48240000000000005,0.3175999999999999,0.2156]",33,88.5,1,0,0,response1disk,3,-1.5,1,0,0,rectangle,3,-1.5,1,0,0,,1,0.0012,0,3,-1.5,1,0,0,0,14,14,34,1,34,first,,,,,,,,,,,,,,,,,,,,,,,,,,,,,,,,,,,,,,,,,,,,,,,,,,,,,,,,,,,,,,,,,,,
,,,,,,6106692c478cb3f1603657ed,62bbfad4447d54b1ac67c6f5,2022-06-29_09h57.37.912,Colour_Asymmetry_Pilot,2022.1.3,Win32,59.91970759,62bbe60bf3d75ef465d3e404,,,,,,,,,,,,,,,,,,,,onetwo,,-4,5.7537,,,,,,,,,,,,,,,,,,,,,,,,,,,,,,,,,,"[-0.6,0.16860000000000008,0.44300000000000006]","[0.30180000000000007,-0.7884,-0.9844]",-37,87.5,1,0,0,response7disk,7,6.5,1,0,0,rectangle,7,6.5,1,0,0,,1,0.0004,0,7,6.5,1,0,0,0,15,15,5,1,5,first,,,,,,,,,,,,,,,,,,,,,,,,,,,,,,,,,,,,,,,,,,,,,,,,,,,,,,,,,,,,,,,,,,,
,,,,,,6106692c478cb3f1603657ed,62bbfad4447d54b1ac67c6f5,2022-06-29_09h57.37.912,Colour_Asymmetry_Pilot,2022.1.3,Win32,59.91970759,62bbe60bf3d75ef465d3e404,,,,,,,,,,,,,,,,,,,,threefour,,4,2.0969,,,,,,,,,,,,,,,,,,,,,,,,,,,,,,,,,,"[-0.09019999999999995,0.44300000000000006,0.5371999999999999]","[-0.24719999999999998,-0.0354000000000001,0.3175999999999999]",48,98.5,1,0,0,response1disk,-11,-6.5,1,0,0,rectangle,-11,-6.5,1,0,0,,2,0.0012,0,-11,-6.5,1,0,0,0,16,16,52,1,52,first,,,,,,,,,,,,,,,,,,,,,,,,,,,,,,,,,,,,,,,,,,,,,,,,,,,,,,,,,,,,,,,,,,,
,,,,,,6106692c478cb3f1603657ed,62bbfad4447d54b1ac67c6f5,2022-06-29_09h57.37.912,Colour_Asymmetry_Pilot,2022.1.3,Win32,59.91970759,62bbe60bf3d75ef465d3e404,,,,,,,,,,,,,,,,,,,,twoone,,-4,0.4688,,,,,,,,,,,,,,,,,,,,,,,,,,,,,,,,,,"[-0.6706000000000001,-0.6157999999999999,-0.6786]","[-0.24719999999999998,0.5213999999999999,-0.12959999999999994]",-55,89.5,1,0,0,response7disk,-4,3.5,1,0,0,rectangle,-4,3.5,1,0,0,,2,0.0002,0,-4,3.5,1,0,0,0,17,17,117,1,36,second,,,,,,,,,,,,,,,,,,,,,,,,,,,,,,,,,,,,,,,,,,,,,,,,,,,,,,,,,,,,,,,,,,,
,,,,,,6106692c478cb3f1603657ed,62bbfad4447d54b1ac67c6f5,2022-06-29_09h57.37.912,Colour_Asymmetry_Pilot,2022.1.3,Win32,59.91970759,62bbe60bf3d75ef465d3e404,,,,,,,,,,,,,,,,,,,,twofour,,4,0.9705,,,,,,,,,,,,,,,,,,,,,,,,,,,,,,,,,,"[0.12939999999999996,-0.2864,0.3253999999999999]","[-0.4982,-0.2942,-0.0354000000000001]",21,66.5,1,0,0,response1disk,7,2.5,1,0,0,rectangle,7,2.5,1,0,0,,1,0.0022,0,7,2.5,1,0,0,0,18,18,147,1,66,second,,,,,,,,,,,,,,,,,,,,,,,,,,,,,,,,,,,,,,,,,,,,,,,,,,,,,,,,,,,,,,,,,,,
,,,,,,6106692c478cb3f1603657ed,62bbfad4447d54b1ac67c6f5,2022-06-29_09h57.37.912,Colour_Asymmetry_Pilot,2022.1.3,Win32,59.91970759,62bbe60bf3d75ef465d3e404,,,,,,,,,,,,,,,,,,,,threeone,,4,0.6116,,,,,,,,,,,,,,,,,,,,,,,,,,,,,,,,,,"[0.37240000000000006,-0.050999999999999934,-0.5216]","[0.7176,-0.906,-0.6864]",27,85.5,1,0,0,response1disk,1,-3.5,1,0,0,rectangle,44,-80.5,1,0,0,1,1,5.9849,1,-4,4.5,1,0,0,0,19,19,55,1,55,first,response3disk_3,rectangle,,,,,,,,,,,,,,,,,,,,,,,,,,,,,,,,,,,,,,,,,,,,,,,,,,,,,,,,,,,,,,,,,
