trials.thisRepN,trials.thisTrialN,trials.thisN,trials.thisIndex,trials.ran,Colourcodes,participant,session,date,expName,psychopyVersion,OS,frameRate,study_id,trials_4.thisRepN,trials_4.thisTrialN,trials_4.thisN,trials_4.thisIndex,trials_4.ran,StimulusPos,key_resp.keys,key_resp.rt,key_resp_2.keys,key_resp_2.rt,key_resp_15.keys,key_resp_15.rt,key_resp_17.keys,key_resp_17.rt,key_resp_9.keys,key_resp_9.rt,key_resp_10.keys,key_resp_10.rt,Circle1_col,Ecc,Circle2_col,similarity,response_time,mouse_5.x,mouse_5.y,mouse_5.leftButton,mouse_5.midButton,mouse_5.rightButton,mouse_5.clicked_name,mouse_10.x,mouse_10.y,mouse_10.leftButton,mouse_10.midButton,mouse_10.rightButton,mouse_10.clicked_name,mouse_7.x,mouse_7.y,mouse_7.leftButton,mouse_7.midButton,mouse_7.rightButton,catchnumberprac,mouse_6.x,mouse_6.y,mouse_6.leftButton,mouse_6.midButton,mouse_6.rightButton,duringprac.thisRepN,duringprac.thisTrialN,duringprac.thisN,duringprac.thisIndex,duringprac.ran,mouse_7.clicked_name,catchprac,mouse_6.clicked_name,key_resp_22.keys,key_resp_22.rt,Circle1_colour,Circle2_colour,mouse.x,mouse.y,mouse.leftButton,mouse.midButton,mouse.rightButton,mouse.clicked_name,mouse_2.x,mouse_2.y,mouse_2.leftButton,mouse_2.midButton,mouse_2.rightButton,mouse_2.clicked_name,mouse_3.x,mouse_3.y,mouse_3.leftButton,mouse_3.midButton,mouse_3.rightButton,catchresponse,catchnumber,response_time_catch,Catch,mouse_11.x,mouse_11.y,mouse_11.leftButton,mouse_11.midButton,mouse_11.rightButton,trials_2.thisRepN,trials_2.thisTrialN,trials_2.thisN,trials_2.thisIndex,trials_2.ran,Colourpair,Temporder,mouse_3.clicked_name,mouse_11.clicked_name,trials_3.thisRepN,trials_3.thisTrialN,trials_3.thisN,trials_3.thisIndex,trials_3.ran,key_resp_instr_Ishi.keys,key_resp_instr_Ishi.rt,Ishi_trial_keyresp.keys,Ishi_trial_keyresp.rt,Ishi_textbox.text,Ishi_loop.thisRepN,Ishi_loop.thisTrialN,Ishi_loop.thisN,Ishi_loop.thisIndex,Ishi_loop.ran,imageaddress,textbox.text,mouse_4.x,mouse_4.y,mouse_4.leftButton,mouse_4.midButton,mouse_4.rightButton,mouse_4.clicked_name,textbox_2.text,mouse_8.x,mouse_8.y,mouse_8.leftButton,mouse_8.midButton,mouse_8.rightButton,mouse_8.clicked_name,textbox_3.text,mouse_9.x,mouse_9.y,mouse_9.leftButton,mouse_9.midButton,mouse_9.rightButton,mouse_9.clicked_name,textbox_4.text,mouse_12.x,mouse_12.y,mouse_12.leftButton,mouse_12.midButton,mouse_12.rightButton,mouse_12.clicked_name,textbox_5.text,mouse_13.x,mouse_13.y,mouse_13.leftButton,mouse_13.midButton,mouse_13.rightButton,mouse_13.clicked_name,textbox_6.text,mouse_14.x,mouse_14.y,mouse_14.leftButton,mouse_14.midButton,mouse_14.rightButton,mouse_14.clicked_name,textbox_7.text,mouse_15.x,mouse_15.y,mouse_15.leftButton,mouse_15.midButton,mouse_15.rightButton,mouse_15.clicked_name
0,0,0,34,1,,61652222bfd9351c91a6585a,62bbf9c11137abf440c0c5fb,2022-06-29_09h08.33.823,Colour_Asymmetry_Pilot,2022.1.3,Win32,0.984538803,62bbe60bf3d75ef465d3e404,,,,,,,,,,,,,,,,,,,,,,,,,,,,,,,,,,,,,,,,,,,,,,,,,,,,,,,,,,,,,,,,,,,,,,,,,,,,,,,,,,,,,,,,,,,,,,,,,,,,,,,,,,,,,,,,,,,,,,,,,,,,,,,,,,,,,,,,,,,,,,,,,,,,,,,,,,,,,,
0,1,1,72,1,,61652222bfd9351c91a6585a,62bbf9c11137abf440c0c5fb,2022-06-29_09h08.33.823,Colour_Asymmetry_Pilot,2022.1.3,Win32,0.984538803,62bbe60bf3d75ef465d3e404,,,,,,,,,,,,,,,,,,,,,,,,,,,,,,,,,,,,,,,,,,,,,,,,,,,,,,,,,,,,,,,,,,,,,,,,,,,,,,,,,,,,,,,,,,,,,,,,,,,,,,,,,,,,,,,,,,,,,,,,,,,,,,,,,,,,,,,,,,,,,,,,,,,,,,,,,,,,,,
0,2,2,62,1,,61652222bfd9351c91a6585a,62bbf9c11137abf440c0c5fb,2022-06-29_09h08.33.823,Colour_Asymmetry_Pilot,2022.1.3,Win32,0.984538803,62bbe60bf3d75ef465d3e404,,,,,,,,,,,,,,,,,,,,,,,,,,,,,,,,,,,,,,,,,,,,,,,,,,,,,,,,,,,,,,,,,,,,,,,,,,,,,,,,,,,,,,,,,,,,,,,,,,,,,,,,,,,,,,,,,,,,,,,,,,,,,,,,,,,,,,,,,,,,,,,,,,,,,,,,,,,,,,
0,3,3,5,1,,61652222bfd9351c91a6585a,62bbf9c11137abf440c0c5fb,2022-06-29_09h08.33.823,Colour_Asymmetry_Pilot,2022.1.3,Win32,0.984538803,62bbe60bf3d75ef465d3e404,,,,,,,,,,,,,,,,,,,,,,,,,,,,,,,,,,,,,,,,,,,,,,,,,,,,,,,,,,,,,,,,,,,,,,,,,,,,,,,,,,,,,,,,,,,,,,,,,,,,,,,,,,,,,,,,,,,,,,,,,,,,,,,,,,,,,,,,,,,,,,,,,,,,,,,,,,,,,,
0,4,4,89,1,,61652222bfd9351c91a6585a,62bbf9c11137abf440c0c5fb,2022-06-29_09h08.33.823,Colour_Asymmetry_Pilot,2022.1.3,Win32,0.984538803,62bbe60bf3d75ef465d3e404,,,,,,,,,,,,,,,,,,,,,,,,,,,,,,,,,,,,,,,,,,,,,,,,,,,,,,,,,,,,,,,,,,,,,,,,,,,,,,,,,,,,,,,,,,,,,,,,,,,,,,,,,,,,,,,,,,,,,,,,,,,,,,,,,,,,,,,,,,,,,,,,,,,,,,,,,,,,,,
0,5,5,73,1,,61652222bfd9351c91a6585a,62bbf9c11137abf440c0c5fb,2022-06-29_09h08.33.823,Colour_Asymmetry_Pilot,2022.1.3,Win32,0.984538803,62bbe60bf3d75ef465d3e404,,,,,,,,,,,,,,,,,,,,,,,,,,,,,,,,,,,,,,,,,,,,,,,,,,,,,,,,,,,,,,,,,,,,,,,,,,,,,,,,,,,,,,,,,,,,,,,,,,,,,,,,,,,,,,,,,,,,,,,,,,,,,,,,,,,,,,,,,,,,,,,,,,,,,,,,,,,,,,
0,6,6,79,1,,61652222bfd9351c91a6585a,62bbf9c11137abf440c0c5fb,2022-06-29_09h08.33.823,Colour_Asymmetry_Pilot,2022.1.3,Win32,0.984538803,62bbe60bf3d75ef465d3e404,,,,,,,,,,,,,,,,,,,,,,,,,,,,,,,,,,,,,,,,,,,,,,,,,,,,,,,,,,,,,,,,,,,,,,,,,,,,,,,,,,,,,,,,,,,,,,,,,,,,,,,,,,,,,,,,,,,,,,,,,,,,,,,,,,,,,,,,,,,,,,,,,,,,,,,,,,,,,,
0,7,7,67,1,,61652222bfd9351c91a6585a,62bbf9c11137abf440c0c5fb,2022-06-29_09h08.33.823,Colour_Asymmetry_Pilot,2022.1.3,Win32,0.984538803,62bbe60bf3d75ef465d3e404,,,,,,,,,,,,,,,,,,,,,,,,,,,,,,,,,,,,,,,,,,,,,,,,,,,,,,,,,,,,,,,,,,,,,,,,,,,,,,,,,,,,,,,,,,,,,,,,,,,,,,,,,,,,,,,,,,,,,,,,,,,,,,,,,,,,,,,,,,,,,,,,,,,,,,,,,,,,,,
0,8,8,61,1,,61652222bfd9351c91a6585a,62bbf9c11137abf440c0c5fb,2022-06-29_09h08.33.823,Colour_Asymmetry_Pilot,2022.1.3,Win32,0.984538803,62bbe60bf3d75ef465d3e404,,,,,,,,,,,,,,,,,,,,,,,,,,,,,,,,,,,,,,,,,,,,,,,,,,,,,,,,,,,,,,,,,,,,,,,,,,,,,,,,,,,,,,,,,,,,,,,,,,,,,,,,,,,,,,,,,,,,,,,,,,,,,,,,,,,,,,,,,,,,,,,,,,,,,,,,,,,,,,
0,9,9,27,1,,61652222bfd9351c91a6585a,62bbf9c11137abf440c0c5fb,2022-06-29_09h08.33.823,Colour_Asymmetry_Pilot,2022.1.3,Win32,0.984538803,62bbe60bf3d75ef465d3e404,,,,,,,,,,,,,,,,,,,,,,,,,,,,,,,,,,,,,,,,,,,,,,,,,,,,,,,,,,,,,,,,,,,,,,,,,,,,,,,,,,,,,,,,,,,,,,,,,,,,,,,,,,,,,,,,,,,,,,,,,,,,,,,,,,,,,,,,,,,,,,,,,,,,,,,,,,,,,,
0,10,10,63,1,,61652222bfd9351c91a6585a,62bbf9c11137abf440c0c5fb,2022-06-29_09h08.33.823,Colour_Asymmetry_Pilot,2022.1.3,Win32,0.984538803,62bbe60bf3d75ef465d3e404,,,,,,,,,,,,,,,,,,,,,,,,,,,,,,,,,,,,,,,,,,,,,,,,,,,,,,,,,,,,,,,,,,,,,,,,,,,,,,,,,,,,,,,,,,,,,,,,,,,,,,,,,,,,,,,,,,,,,,,,,,,,,,,,,,,,,,,,,,,,,,,,,,,,,,,,,,,,,,
0,11,11,92,1,,61652222bfd9351c91a6585a,62bbf9c11137abf440c0c5fb,2022-06-29_09h08.33.823,Colour_Asymmetry_Pilot,2022.1.3,Win32,0.984538803,62bbe60bf3d75ef465d3e404,,,,,,,,,,,,,,,,,,,,,,,,,,,,,,,,,,,,,,,,,,,,,,,,,,,,,,,,,,,,,,,,,,,,,,,,,,,,,,,,,,,,,,,,,,,,,,,,,,,,,,,,,,,,,,,,,,,,,,,,,,,,,,,,,,,,,,,,,,,,,,,,,,,,,,,,,,,,,,
0,12,12,33,1,,61652222bfd9351c91a6585a,62bbf9c11137abf440c0c5fb,2022-06-29_09h08.33.823,Colour_Asymmetry_Pilot,2022.1.3,Win32,0.984538803,62bbe60bf3d75ef465d3e404,,,,,,,,,,,,,,,,,,,,,,,,,,,,,,,,,,,,,,,,,,,,,,,,,,,,,,,,,,,,,,,,,,,,,,,,,,,,,,,,,,,,,,,,,,,,,,,,,,,,,,,,,,,,,,,,,,,,,,,,,,,,,,,,,,,,,,,,,,,,,,,,,,,,,,,,,,,,,,
0,13,13,48,1,,61652222bfd9351c91a6585a,62bbf9c11137abf440c0c5fb,2022-06-29_09h08.33.823,Colour_Asymmetry_Pilot,2022.1.3,Win32,0.984538803,62bbe60bf3d75ef465d3e404,,,,,,,,,,,,,,,,,,,,,,,,,,,,,,,,,,,,,,,,,,,,,,,,,,,,,,,,,,,,,,,,,,,,,,,,,,,,,,,,,,,,,,,,,,,,,,,,,,,,,,,,,,,,,,,,,,,,,,,,,,,,,,,,,,,,,,,,,,,,,,,,,,,,,,,,,,,,,,
0,14,14,87,1,,61652222bfd9351c91a6585a,62bbf9c11137abf440c0c5fb,2022-06-29_09h08.33.823,Colour_Asymmetry_Pilot,2022.1.3,Win32,0.984538803,62bbe60bf3d75ef465d3e404,,,,,,,,,,,,,,,,,,,,,,,,,,,,,,,,,,,,,,,,,,,,,,,,,,,,,,,,,,,,,,,,,,,,,,,,,,,,,,,,,,,,,,,,,,,,,,,,,,,,,,,,,,,,,,,,,,,,,,,,,,,,,,,,,,,,,,,,,,,,,,,,,,,,,,,,,,,,,,
0,15,15,9,1,,61652222bfd9351c91a6585a,62bbf9c11137abf440c0c5fb,2022-06-29_09h08.33.823,Colour_Asymmetry_Pilot,2022.1.3,Win32,0.984538803,62bbe60bf3d75ef465d3e404,,,,,,,,,,,,,,,,,,,,,,,,,,,,,,,,,,,,,,,,,,,,,,,,,,,,,,,,,,,,,,,,,,,,,,,,,,,,,,,,,,,,,,,,,,,,,,,,,,,,,,,,,,,,,,,,,,,,,,,,,,,,,,,,,,,,,,,,,,,,,,,,,,,,,,,,,,,,,,
0,16,16,31,1,,61652222bfd9351c91a6585a,62bbf9c11137abf440c0c5fb,2022-06-29_09h08.33.823,Colour_Asymmetry_Pilot,2022.1.3,Win32,0.984538803,62bbe60bf3d75ef465d3e404,,,,,,,,,,,,,,,,,,,,,,,,,,,,,,,,,,,,,,,,,,,,,,,,,,,,,,,,,,,,,,,,,,,,,,,,,,,,,,,,,,,,,,,,,,,,,,,,,,,,,,,,,,,,,,,,,,,,,,,,,,,,,,,,,,,,,,,,,,,,,,,,,,,,,,,,,,,,,,
0,17,17,25,1,,61652222bfd9351c91a6585a,62bbf9c11137abf440c0c5fb,2022-06-29_09h08.33.823,Colour_Asymmetry_Pilot,2022.1.3,Win32,0.984538803,62bbe60bf3d75ef465d3e404,,,,,,,,,,,,,,,,,,,,,,,,,,,,,,,,,,,,,,,,,,,,,,,,,,,,,,,,,,,,,,,,,,,,,,,,,,,,,,,,,,,,,,,,,,,,,,,,,,,,,,,,,,,,,,,,,,,,,,,,,,,,,,,,,,,,,,,,,,,,,,,,,,,,,,,,,,,,,,
0,18,18,53,1,,61652222bfd9351c91a6585a,62bbf9c11137abf440c0c5fb,2022-06-29_09h08.33.823,Colour_Asymmetry_Pilot,2022.1.3,Win32,0.984538803,62bbe60bf3d75ef465d3e404,,,,,,,,,,,,,,,,,,,,,,,,,,,,,,,,,,,,,,,,,,,,,,,,,,,,,,,,,,,,,,,,,,,,,,,,,,,,,,,,,,,,,,,,,,,,,,,,,,,,,,,,,,,,,,,,,,,,,,,,,,,,,,,,,,,,,,,,,,,,,,,,,,,,,,,,,,,,,,
0,19,19,82,1,,61652222bfd9351c91a6585a,62bbf9c11137abf440c0c5fb,2022-06-29_09h08.33.823,Colour_Asymmetry_Pilot,2022.1.3,Win32,0.984538803,62bbe60bf3d75ef465d3e404,,,,,,,,,,,,,,,,,,,,,,,,,,,,,,,,,,,,,,,,,,,,,,,,,,,,,,,,,,,,,,,,,,,,,,,,,,,,,,,,,,,,,,,,,,,,,,,,,,,,,,,,,,,,,,,,,,,,,,,,,,,,,,,,,,,,,,,,,,,,,,,,,,,,,,,,,,,,,,
0,20,20,1,1,,61652222bfd9351c91a6585a,62bbf9c11137abf440c0c5fb,2022-06-29_09h08.33.823,Colour_Asymmetry_Pilot,2022.1.3,Win32,0.984538803,62bbe60bf3d75ef465d3e404,,,,,,,,,,,,,,,,,,,,,,,,,,,,,,,,,,,,,,,,,,,,,,,,,,,,,,,,,,,,,,,,,,,,,,,,,,,,,,,,,,,,,,,,,,,,,,,,,,,,,,,,,,,,,,,,,,,,,,,,,,,,,,,,,,,,,,,,,,,,,,,,,,,,,,,,,,,,,,
0,21,21,85,1,,61652222bfd9351c91a6585a,62bbf9c11137abf440c0c5fb,2022-06-29_09h08.33.823,Colour_Asymmetry_Pilot,2022.1.3,Win32,0.984538803,62bbe60bf3d75ef465d3e404,,,,,,,,,,,,,,,,,,,,,,,,,,,,,,,,,,,,,,,,,,,,,,,,,,,,,,,,,,,,,,,,,,,,,,,,,,,,,,,,,,,,,,,,,,,,,,,,,,,,,,,,,,,,,,,,,,,,,,,,,,,,,,,,,,,,,,,,,,,,,,,,,,,,,,,,,,,,,,
0,22,22,56,1,,61652222bfd9351c91a6585a,62bbf9c11137abf440c0c5fb,2022-06-29_09h08.33.823,Colour_Asymmetry_Pilot,2022.1.3,Win32,0.984538803,62bbe60bf3d75ef465d3e404,,,,,,,,,,,,,,,,,,,,,,,,,,,,,,,,,,,,,,,,,,,,,,,,,,,,,,,,,,,,,,,,,,,,,,,,,,,,,,,,,,,,,,,,,,,,,,,,,,,,,,,,,,,,,,,,,,,,,,,,,,,,,,,,,,,,,,,,,,,,,,,,,,,,,,,,,,,,,,
0,23,23,40,1,,61652222bfd9351c91a6585a,62bbf9c11137abf440c0c5fb,2022-06-29_09h08.33.823,Colour_Asymmetry_Pilot,2022.1.3,Win32,0.984538803,62bbe60bf3d75ef465d3e404,,,,,,,,,,,,,,,,,,,,,,,,,,,,,,,,,,,,,,,,,,,,,,,,,,,,,,,,,,,,,,,,,,,,,,,,,,,,,,,,,,,,,,,,,,,,,,,,,,,,,,,,,,,,,,,,,,,,,,,,,,,,,,,,,,,,,,,,,,,,,,,,,,,,,,,,,,,,,,
0,24,24,74,1,,61652222bfd9351c91a6585a,62bbf9c11137abf440c0c5fb,2022-06-29_09h08.33.823,Colour_Asymmetry_Pilot,2022.1.3,Win32,0.984538803,62bbe60bf3d75ef465d3e404,,,,,,,,,,,,,,,,,,,,,,,,,,,,,,,,,,,,,,,,,,,,,,,,,,,,,,,,,,,,,,,,,,,,,,,,,,,,,,,,,,,,,,,,,,,,,,,,,,,,,,,,,,,,,,,,,,,,,,,,,,,,,,,,,,,,,,,,,,,,,,,,,,,,,,,,,,,,,,
0,25,25,69,1,,61652222bfd9351c91a6585a,62bbf9c11137abf440c0c5fb,2022-06-29_09h08.33.823,Colour_Asymmetry_Pilot,2022.1.3,Win32,0.984538803,62bbe60bf3d75ef465d3e404,,,,,,,,,,,,,,,,,,,,,,,,,,,,,,,,,,,,,,,,,,,,,,,,,,,,,,,,,,,,,,,,,,,,,,,,,,,,,,,,,,,,,,,,,,,,,,,,,,,,,,,,,,,,,,,,,,,,,,,,,,,,,,,,,,,,,,,,,,,,,,,,,,,,,,,,,,,,,,
0,26,26,83,1,,61652222bfd9351c91a6585a,62bbf9c11137abf440c0c5fb,2022-06-29_09h08.33.823,Colour_Asymmetry_Pilot,2022.1.3,Win32,0.984538803,62bbe60bf3d75ef465d3e404,,,,,,,,,,,,,,,,,,,,,,,,,,,,,,,,,,,,,,,,,,,,,,,,,,,,,,,,,,,,,,,,,,,,,,,,,,,,,,,,,,,,,,,,,,,,,,,,,,,,,,,,,,,,,,,,,,,,,,,,,,,,,,,,,,,,,,,,,,,,,,,,,,,,,,,,,,,,,,
0,27,27,43,1,,61652222bfd9351c91a6585a,62bbf9c11137abf440c0c5fb,2022-06-29_09h08.33.823,Colour_Asymmetry_Pilot,2022.1.3,Win32,0.984538803,62bbe60bf3d75ef465d3e404,,,,,,,,,,,,,,,,,,,,,,,,,,,,,,,,,,,,,,,,,,,,,,,,,,,,,,,,,,,,,,,,,,,,,,,,,,,,,,,,,,,,,,,,,,,,,,,,,,,,,,,,,,,,,,,,,,,,,,,,,,,,,,,,,,,,,,,,,,,,,,,,,,,,,,,,,,,,,,
0,28,28,84,1,,61652222bfd9351c91a6585a,62bbf9c11137abf440c0c5fb,2022-06-29_09h08.33.823,Colour_Asymmetry_Pilot,2022.1.3,Win32,0.984538803,62bbe60bf3d75ef465d3e404,,,,,,,,,,,,,,,,,,,,,,,,,,,,,,,,,,,,,,,,,,,,,,,,,,,,,,,,,,,,,,,,,,,,,,,,,,,,,,,,,,,,,,,,,,,,,,,,,,,,,,,,,,,,,,,,,,,,,,,,,,,,,,,,,,,,,,,,,,,,,,,,,,,,,,,,,,,,,,
0,29,29,51,1,,61652222bfd9351c91a6585a,62bbf9c11137abf440c0c5fb,2022-06-29_09h08.33.823,Colour_Asymmetry_Pilot,2022.1.3,Win32,0.984538803,62bbe60bf3d75ef465d3e404,,,,,,,,,,,,,,,,,,,,,,,,,,,,,,,,,,,,,,,,,,,,,,,,,,,,,,,,,,,,,,,,,,,,,,,,,,,,,,,,,,,,,,,,,,,,,,,,,,,,,,,,,,,,,,,,,,,,,,,,,,,,,,,,,,,,,,,,,,,,,,,,,,,,,,,,,,,,,,
0,30,30,26,1,,61652222bfd9351c91a6585a,62bbf9c11137abf440c0c5fb,2022-06-29_09h08.33.823,Colour_Asymmetry_Pilot,2022.1.3,Win32,0.984538803,62bbe60bf3d75ef465d3e404,,,,,,,,,,,,,,,,,,,,,,,,,,,,,,,,,,,,,,,,,,,,,,,,,,,,,,,,,,,,,,,,,,,,,,,,,,,,,,,,,,,,,,,,,,,,,,,,,,,,,,,,,,,,,,,,,,,,,,,,,,,,,,,,,,,,,,,,,,,,,,,,,,,,,,,,,,,,,,
0,31,31,54,1,,61652222bfd9351c91a6585a,62bbf9c11137abf440c0c5fb,2022-06-29_09h08.33.823,Colour_Asymmetry_Pilot,2022.1.3,Win32,0.984538803,62bbe60bf3d75ef465d3e404,,,,,,,,,,,,,,,,,,,,,,,,,,,,,,,,,,,,,,,,,,,,,,,,,,,,,,,,,,,,,,,,,,,,,,,,,,,,,,,,,,,,,,,,,,,,,,,,,,,,,,,,,,,,,,,,,,,,,,,,,,,,,,,,,,,,,,,,,,,,,,,,,,,,,,,,,,,,,,
0,32,32,66,1,,61652222bfd9351c91a6585a,62bbf9c11137abf440c0c5fb,2022-06-29_09h08.33.823,Colour_Asymmetry_Pilot,2022.1.3,Win32,0.984538803,62bbe60bf3d75ef465d3e404,,,,,,,,,,,,,,,,,,,,,,,,,,,,,,,,,,,,,,,,,,,,,,,,,,,,,,,,,,,,,,,,,,,,,,,,,,,,,,,,,,,,,,,,,,,,,,,,,,,,,,,,,,,,,,,,,,,,,,,,,,,,,,,,,,,,,,,,,,,,,,,,,,,,,,,,,,,,,,
0,33,33,38,1,,61652222bfd9351c91a6585a,62bbf9c11137abf440c0c5fb,2022-06-29_09h08.33.823,Colour_Asymmetry_Pilot,2022.1.3,Win32,0.984538803,62bbe60bf3d75ef465d3e404,,,,,,,,,,,,,,,,,,,,,,,,,,,,,,,,,,,,,,,,,,,,,,,,,,,,,,,,,,,,,,,,,,,,,,,,,,,,,,,,,,,,,,,,,,,,,,,,,,,,,,,,,,,,,,,,,,,,,,,,,,,,,,,,,,,,,,,,,,,,,,,,,,,,,,,,,,,,,,
0,34,34,49,1,,61652222bfd9351c91a6585a,62bbf9c11137abf440c0c5fb,2022-06-29_09h08.33.823,Colour_Asymmetry_Pilot,2022.1.3,Win32,0.984538803,62bbe60bf3d75ef465d3e404,,,,,,,,,,,,,,,,,,,,,,,,,,,,,,,,,,,,,,,,,,,,,,,,,,,,,,,,,,,,,,,,,,,,,,,,,,,,,,,,,,,,,,,,,,,,,,,,,,,,,,,,,,,,,,,,,,,,,,,,,,,,,,,,,,,,,,,,,,,,,,,,,,,,,,,,,,,,,,
0,35,35,30,1,,61652222bfd9351c91a6585a,62bbf9c11137abf440c0c5fb,2022-06-29_09h08.33.823,Colour_Asymmetry_Pilot,2022.1.3,Win32,0.984538803,62bbe60bf3d75ef465d3e404,,,,,,,,,,,,,,,,,,,,,,,,,,,,,,,,,,,,,,,,,,,,,,,,,,,,,,,,,,,,,,,,,,,,,,,,,,,,,,,,,,,,,,,,,,,,,,,,,,,,,,,,,,,,,,,,,,,,,,,,,,,,,,,,,,,,,,,,,,,,,,,,,,,,,,,,,,,,,,
0,36,36,0,1,,61652222bfd9351c91a6585a,62bbf9c11137abf440c0c5fb,2022-06-29_09h08.33.823,Colour_Asymmetry_Pilot,2022.1.3,Win32,0.984538803,62bbe60bf3d75ef465d3e404,,,,,,,,,,,,,,,,,,,,,,,,,,,,,,,,,,,,,,,,,,,,,,,,,,,,,,,,,,,,,,,,,,,,,,,,,,,,,,,,,,,,,,,,,,,,,,,,,,,,,,,,,,,,,,,,,,,,,,,,,,,,,,,,,,,,,,,,,,,,,,,,,,,,,,,,,,,,,,
0,37,37,17,1,,61652222bfd9351c91a6585a,62bbf9c11137abf440c0c5fb,2022-06-29_09h08.33.823,Colour_Asymmetry_Pilot,2022.1.3,Win32,0.984538803,62bbe60bf3d75ef465d3e404,,,,,,,,,,,,,,,,,,,,,,,,,,,,,,,,,,,,,,,,,,,,,,,,,,,,,,,,,,,,,,,,,,,,,,,,,,,,,,,,,,,,,,,,,,,,,,,,,,,,,,,,,,,,,,,,,,,,,,,,,,,,,,,,,,,,,,,,,,,,,,,,,,,,,,,,,,,,,,
0,38,38,41,1,,61652222bfd9351c91a6585a,62bbf9c11137abf440c0c5fb,2022-06-29_09h08.33.823,Colour_Asymmetry_Pilot,2022.1.3,Win32,0.984538803,62bbe60bf3d75ef465d3e404,,,,,,,,,,,,,,,,,,,,,,,,,,,,,,,,,,,,,,,,,,,,,,,,,,,,,,,,,,,,,,,,,,,,,,,,,,,,,,,,,,,,,,,,,,,,,,,,,,,,,,,,,,,,,,,,,,,,,,,,,,,,,,,,,,,,,,,,,,,,,,,,,,,,,,,,,,,,,,
0,39,39,18,1,,61652222bfd9351c91a6585a,62bbf9c11137abf440c0c5fb,2022-06-29_09h08.33.823,Colour_Asymmetry_Pilot,2022.1.3,Win32,0.984538803,62bbe60bf3d75ef465d3e404,,,,,,,,,,,,,,,,,,,,,,,,,,,,,,,,,,,,,,,,,,,,,,,,,,,,,,,,,,,,,,,,,,,,,,,,,,,,,,,,,,,,,,,,,,,,,,,,,,,,,,,,,,,,,,,,,,,,,,,,,,,,,,,,,,,,,,,,,,,,,,,,,,,,,,,,,,,,,,
0,40,40,86,1,,61652222bfd9351c91a6585a,62bbf9c11137abf440c0c5fb,2022-06-29_09h08.33.823,Colour_Asymmetry_Pilot,2022.1.3,Win32,0.984538803,62bbe60bf3d75ef465d3e404,,,,,,,,,,,,,,,,,,,,,,,,,,,,,,,,,,,,,,,,,,,,,,,,,,,,,,,,,,,,,,,,,,,,,,,,,,,,,,,,,,,,,,,,,,,,,,,,,,,,,,,,,,,,,,,,,,,,,,,,,,,,,,,,,,,,,,,,,,,,,,,,,,,,,,,,,,,,,,
0,41,41,44,1,,61652222bfd9351c91a6585a,62bbf9c11137abf440c0c5fb,2022-06-29_09h08.33.823,Colour_Asymmetry_Pilot,2022.1.3,Win32,0.984538803,62bbe60bf3d75ef465d3e404,,,,,,,,,,,,,,,,,,,,,,,,,,,,,,,,,,,,,,,,,,,,,,,,,,,,,,,,,,,,,,,,,,,,,,,,,,,,,,,,,,,,,,,,,,,,,,,,,,,,,,,,,,,,,,,,,,,,,,,,,,,,,,,,,,,,,,,,,,,,,,,,,,,,,,,,,,,,,,
0,42,42,65,1,,61652222bfd9351c91a6585a,62bbf9c11137abf440c0c5fb,2022-06-29_09h08.33.823,Colour_Asymmetry_Pilot,2022.1.3,Win32,0.984538803,62bbe60bf3d75ef465d3e404,,,,,,,,,,,,,,,,,,,,,,,,,,,,,,,,,,,,,,,,,,,,,,,,,,,,,,,,,,,,,,,,,,,,,,,,,,,,,,,,,,,,,,,,,,,,,,,,,,,,,,,,,,,,,,,,,,,,,,,,,,,,,,,,,,,,,,,,,,,,,,,,,,,,,,,,,,,,,,
0,43,43,32,1,,61652222bfd9351c91a6585a,62bbf9c11137abf440c0c5fb,2022-06-29_09h08.33.823,Colour_Asymmetry_Pilot,2022.1.3,Win32,0.984538803,62bbe60bf3d75ef465d3e404,,,,,,,,,,,,,,,,,,,,,,,,,,,,,,,,,,,,,,,,,,,,,,,,,,,,,,,,,,,,,,,,,,,,,,,,,,,,,,,,,,,,,,,,,,,,,,,,,,,,,,,,,,,,,,,,,,,,,,,,,,,,,,,,,,,,,,,,,,,,,,,,,,,,,,,,,,,,,,
0,44,44,42,1,,61652222bfd9351c91a6585a,62bbf9c11137abf440c0c5fb,2022-06-29_09h08.33.823,Colour_Asymmetry_Pilot,2022.1.3,Win32,0.984538803,62bbe60bf3d75ef465d3e404,,,,,,,,,,,,,,,,,,,,,,,,,,,,,,,,,,,,,,,,,,,,,,,,,,,,,,,,,,,,,,,,,,,,,,,,,,,,,,,,,,,,,,,,,,,,,,,,,,,,,,,,,,,,,,,,,,,,,,,,,,,,,,,,,,,,,,,,,,,,,,,,,,,,,,,,,,,,,,
0,45,45,90,1,,61652222bfd9351c91a6585a,62bbf9c11137abf440c0c5fb,2022-06-29_09h08.33.823,Colour_Asymmetry_Pilot,2022.1.3,Win32,0.984538803,62bbe60bf3d75ef465d3e404,,,,,,,,,,,,,,,,,,,,,,,,,,,,,,,,,,,,,,,,,,,,,,,,,,,,,,,,,,,,,,,,,,,,,,,,,,,,,,,,,,,,,,,,,,,,,,,,,,,,,,,,,,,,,,,,,,,,,,,,,,,,,,,,,,,,,,,,,,,,,,,,,,,,,,,,,,,,,,
0,46,46,64,1,,61652222bfd9351c91a6585a,62bbf9c11137abf440c0c5fb,2022-06-29_09h08.33.823,Colour_Asymmetry_Pilot,2022.1.3,Win32,0.984538803,62bbe60bf3d75ef465d3e404,,,,,,,,,,,,,,,,,,,,,,,,,,,,,,,,,,,,,,,,,,,,,,,,,,,,,,,,,,,,,,,,,,,,,,,,,,,,,,,,,,,,,,,,,,,,,,,,,,,,,,,,,,,,,,,,,,,,,,,,,,,,,,,,,,,,,,,,,,,,,,,,,,,,,,,,,,,,,,
0,47,47,77,1,,61652222bfd9351c91a6585a,62bbf9c11137abf440c0c5fb,2022-06-29_09h08.33.823,Colour_Asymmetry_Pilot,2022.1.3,Win32,0.984538803,62bbe60bf3d75ef465d3e404,,,,,,,,,,,,,,,,,,,,,,,,,,,,,,,,,,,,,,,,,,,,,,,,,,,,,,,,,,,,,,,,,,,,,,,,,,,,,,,,,,,,,,,,,,,,,,,,,,,,,,,,,,,,,,,,,,,,,,,,,,,,,,,,,,,,,,,,,,,,,,,,,,,,,,,,,,,,,,
0,48,48,12,1,,61652222bfd9351c91a6585a,62bbf9c11137abf440c0c5fb,2022-06-29_09h08.33.823,Colour_Asymmetry_Pilot,2022.1.3,Win32,0.984538803,62bbe60bf3d75ef465d3e404,,,,,,,,,,,,,,,,,,,,,,,,,,,,,,,,,,,,,,,,,,,,,,,,,,,,,,,,,,,,,,,,,,,,,,,,,,,,,,,,,,,,,,,,,,,,,,,,,,,,,,,,,,,,,,,,,,,,,,,,,,,,,,,,,,,,,,,,,,,,,,,,,,,,,,,,,,,,,,
0,49,49,37,1,,61652222bfd9351c91a6585a,62bbf9c11137abf440c0c5fb,2022-06-29_09h08.33.823,Colour_Asymmetry_Pilot,2022.1.3,Win32,0.984538803,62bbe60bf3d75ef465d3e404,,,,,,,,,,,,,,,,,,,,,,,,,,,,,,,,,,,,,,,,,,,,,,,,,,,,,,,,,,,,,,,,,,,,,,,,,,,,,,,,,,,,,,,,,,,,,,,,,,,,,,,,,,,,,,,,,,,,,,,,,,,,,,,,,,,,,,,,,,,,,,,,,,,,,,,,,,,,,,
0,50,50,3,1,,61652222bfd9351c91a6585a,62bbf9c11137abf440c0c5fb,2022-06-29_09h08.33.823,Colour_Asymmetry_Pilot,2022.1.3,Win32,0.984538803,62bbe60bf3d75ef465d3e404,,,,,,,,,,,,,,,,,,,,,,,,,,,,,,,,,,,,,,,,,,,,,,,,,,,,,,,,,,,,,,,,,,,,,,,,,,,,,,,,,,,,,,,,,,,,,,,,,,,,,,,,,,,,,,,,,,,,,,,,,,,,,,,,,,,,,,,,,,,,,,,,,,,,,,,,,,,,,,
0,51,51,52,1,,61652222bfd9351c91a6585a,62bbf9c11137abf440c0c5fb,2022-06-29_09h08.33.823,Colour_Asymmetry_Pilot,2022.1.3,Win32,0.984538803,62bbe60bf3d75ef465d3e404,,,,,,,,,,,,,,,,,,,,,,,,,,,,,,,,,,,,,,,,,,,,,,,,,,,,,,,,,,,,,,,,,,,,,,,,,,,,,,,,,,,,,,,,,,,,,,,,,,,,,,,,,,,,,,,,,,,,,,,,,,,,,,,,,,,,,,,,,,,,,,,,,,,,,,,,,,,,,,
0,52,52,71,1,,61652222bfd9351c91a6585a,62bbf9c11137abf440c0c5fb,2022-06-29_09h08.33.823,Colour_Asymmetry_Pilot,2022.1.3,Win32,0.984538803,62bbe60bf3d75ef465d3e404,,,,,,,,,,,,,,,,,,,,,,,,,,,,,,,,,,,,,,,,,,,,,,,,,,,,,,,,,,,,,,,,,,,,,,,,,,,,,,,,,,,,,,,,,,,,,,,,,,,,,,,,,,,,,,,,,,,,,,,,,,,,,,,,,,,,,,,,,,,,,,,,,,,,,,,,,,,,,,
0,53,53,24,1,,61652222bfd9351c91a6585a,62bbf9c11137abf440c0c5fb,2022-06-29_09h08.33.823,Colour_Asymmetry_Pilot,2022.1.3,Win32,0.984538803,62bbe60bf3d75ef465d3e404,,,,,,,,,,,,,,,,,,,,,,,,,,,,,,,,,,,,,,,,,,,,,,,,,,,,,,,,,,,,,,,,,,,,,,,,,,,,,,,,,,,,,,,,,,,,,,,,,,,,,,,,,,,,,,,,,,,,,,,,,,,,,,,,,,,,,,,,,,,,,,,,,,,,,,,,,,,,,,
0,54,54,28,1,,61652222bfd9351c91a6585a,62bbf9c11137abf440c0c5fb,2022-06-29_09h08.33.823,Colour_Asymmetry_Pilot,2022.1.3,Win32,0.984538803,62bbe60bf3d75ef465d3e404,,,,,,,,,,,,,,,,,,,,,,,,,,,,,,,,,,,,,,,,,,,,,,,,,,,,,,,,,,,,,,,,,,,,,,,,,,,,,,,,,,,,,,,,,,,,,,,,,,,,,,,,,,,,,,,,,,,,,,,,,,,,,,,,,,,,,,,,,,,,,,,,,,,,,,,,,,,,,,
0,55,55,19,1,,61652222bfd9351c91a6585a,62bbf9c11137abf440c0c5fb,2022-06-29_09h08.33.823,Colour_Asymmetry_Pilot,2022.1.3,Win32,0.984538803,62bbe60bf3d75ef465d3e404,,,,,,,,,,,,,,,,,,,,,,,,,,,,,,,,,,,,,,,,,,,,,,,,,,,,,,,,,,,,,,,,,,,,,,,,,,,,,,,,,,,,,,,,,,,,,,,,,,,,,,,,,,,,,,,,,,,,,,,,,,,,,,,,,,,,,,,,,,,,,,,,,,,,,,,,,,,,,,
0,56,56,23,1,,61652222bfd9351c91a6585a,62bbf9c11137abf440c0c5fb,2022-06-29_09h08.33.823,Colour_Asymmetry_Pilot,2022.1.3,Win32,0.984538803,62bbe60bf3d75ef465d3e404,,,,,,,,,,,,,,,,,,,,,,,,,,,,,,,,,,,,,,,,,,,,,,,,,,,,,,,,,,,,,,,,,,,,,,,,,,,,,,,,,,,,,,,,,,,,,,,,,,,,,,,,,,,,,,,,,,,,,,,,,,,,,,,,,,,,,,,,,,,,,,,,,,,,,,,,,,,,,,
0,57,57,55,1,,61652222bfd9351c91a6585a,62bbf9c11137abf440c0c5fb,2022-06-29_09h08.33.823,Colour_Asymmetry_Pilot,2022.1.3,Win32,0.984538803,62bbe60bf3d75ef465d3e404,,,,,,,,,,,,,,,,,,,,,,,,,,,,,,,,,,,,,,,,,,,,,,,,,,,,,,,,,,,,,,,,,,,,,,,,,,,,,,,,,,,,,,,,,,,,,,,,,,,,,,,,,,,,,,,,,,,,,,,,,,,,,,,,,,,,,,,,,,,,,,,,,,,,,,,,,,,,,,
0,58,58,8,1,,61652222bfd9351c91a6585a,62bbf9c11137abf440c0c5fb,2022-06-29_09h08.33.823,Colour_Asymmetry_Pilot,2022.1.3,Win32,0.984538803,62bbe60bf3d75ef465d3e404,,,,,,,,,,,,,,,,,,,,,,,,,,,,,,,,,,,,,,,,,,,,,,,,,,,,,,,,,,,,,,,,,,,,,,,,,,,,,,,,,,,,,,,,,,,,,,,,,,,,,,,,,,,,,,,,,,,,,,,,,,,,,,,,,,,,,,,,,,,,,,,,,,,,,,,,,,,,,,
0,59,59,35,1,,61652222bfd9351c91a6585a,62bbf9c11137abf440c0c5fb,2022-06-29_09h08.33.823,Colour_Asymmetry_Pilot,2022.1.3,Win32,0.984538803,62bbe60bf3d75ef465d3e404,,,,,,,,,,,,,,,,,,,,,,,,,,,,,,,,,,,,,,,,,,,,,,,,,,,,,,,,,,,,,,,,,,,,,,,,,,,,,,,,,,,,,,,,,,,,,,,,,,,,,,,,,,,,,,,,,,,,,,,,,,,,,,,,,,,,,,,,,,,,,,,,,,,,,,,,,,,,,,
0,60,60,7,1,,61652222bfd9351c91a6585a,62bbf9c11137abf440c0c5fb,2022-06-29_09h08.33.823,Colour_Asymmetry_Pilot,2022.1.3,Win32,0.984538803,62bbe60bf3d75ef465d3e404,,,,,,,,,,,,,,,,,,,,,,,,,,,,,,,,,,,,,,,,,,,,,,,,,,,,,,,,,,,,,,,,,,,,,,,,,,,,,,,,,,,,,,,,,,,,,,,,,,,,,,,,,,,,,,,,,,,,,,,,,,,,,,,,,,,,,,,,,,,,,,,,,,,,,,,,,,,,,,
0,61,61,58,1,,61652222bfd9351c91a6585a,62bbf9c11137abf440c0c5fb,2022-06-29_09h08.33.823,Colour_Asymmetry_Pilot,2022.1.3,Win32,0.984538803,62bbe60bf3d75ef465d3e404,,,,,,,,,,,,,,,,,,,,,,,,,,,,,,,,,,,,,,,,,,,,,,,,,,,,,,,,,,,,,,,,,,,,,,,,,,,,,,,,,,,,,,,,,,,,,,,,,,,,,,,,,,,,,,,,,,,,,,,,,,,,,,,,,,,,,,,,,,,,,,,,,,,,,,,,,,,,,,
0,62,62,50,1,,61652222bfd9351c91a6585a,62bbf9c11137abf440c0c5fb,2022-06-29_09h08.33.823,Colour_Asymmetry_Pilot,2022.1.3,Win32,0.984538803,62bbe60bf3d75ef465d3e404,,,,,,,,,,,,,,,,,,,,,,,,,,,,,,,,,,,,,,,,,,,,,,,,,,,,,,,,,,,,,,,,,,,,,,,,,,,,,,,,,,,,,,,,,,,,,,,,,,,,,,,,,,,,,,,,,,,,,,,,,,,,,,,,,,,,,,,,,,,,,,,,,,,,,,,,,,,,,,
0,63,63,21,1,,61652222bfd9351c91a6585a,62bbf9c11137abf440c0c5fb,2022-06-29_09h08.33.823,Colour_Asymmetry_Pilot,2022.1.3,Win32,0.984538803,62bbe60bf3d75ef465d3e404,,,,,,,,,,,,,,,,,,,,,,,,,,,,,,,,,,,,,,,,,,,,,,,,,,,,,,,,,,,,,,,,,,,,,,,,,,,,,,,,,,,,,,,,,,,,,,,,,,,,,,,,,,,,,,,,,,,,,,,,,,,,,,,,,,,,,,,,,,,,,,,,,,,,,,,,,,,,,,
0,64,64,81,1,,61652222bfd9351c91a6585a,62bbf9c11137abf440c0c5fb,2022-06-29_09h08.33.823,Colour_Asymmetry_Pilot,2022.1.3,Win32,0.984538803,62bbe60bf3d75ef465d3e404,,,,,,,,,,,,,,,,,,,,,,,,,,,,,,,,,,,,,,,,,,,,,,,,,,,,,,,,,,,,,,,,,,,,,,,,,,,,,,,,,,,,,,,,,,,,,,,,,,,,,,,,,,,,,,,,,,,,,,,,,,,,,,,,,,,,,,,,,,,,,,,,,,,,,,,,,,,,,,
0,65,65,22,1,,61652222bfd9351c91a6585a,62bbf9c11137abf440c0c5fb,2022-06-29_09h08.33.823,Colour_Asymmetry_Pilot,2022.1.3,Win32,0.984538803,62bbe60bf3d75ef465d3e404,,,,,,,,,,,,,,,,,,,,,,,,,,,,,,,,,,,,,,,,,,,,,,,,,,,,,,,,,,,,,,,,,,,,,,,,,,,,,,,,,,,,,,,,,,,,,,,,,,,,,,,,,,,,,,,,,,,,,,,,,,,,,,,,,,,,,,,,,,,,,,,,,,,,,,,,,,,,,,
0,66,66,4,1,,61652222bfd9351c91a6585a,62bbf9c11137abf440c0c5fb,2022-06-29_09h08.33.823,Colour_Asymmetry_Pilot,2022.1.3,Win32,0.984538803,62bbe60bf3d75ef465d3e404,,,,,,,,,,,,,,,,,,,,,,,,,,,,,,,,,,,,,,,,,,,,,,,,,,,,,,,,,,,,,,,,,,,,,,,,,,,,,,,,,,,,,,,,,,,,,,,,,,,,,,,,,,,,,,,,,,,,,,,,,,,,,,,,,,,,,,,,,,,,,,,,,,,,,,,,,,,,,,
0,67,67,2,1,,61652222bfd9351c91a6585a,62bbf9c11137abf440c0c5fb,2022-06-29_09h08.33.823,Colour_Asymmetry_Pilot,2022.1.3,Win32,0.984538803,62bbe60bf3d75ef465d3e404,,,,,,,,,,,,,,,,,,,,,,,,,,,,,,,,,,,,,,,,,,,,,,,,,,,,,,,,,,,,,,,,,,,,,,,,,,,,,,,,,,,,,,,,,,,,,,,,,,,,,,,,,,,,,,,,,,,,,,,,,,,,,,,,,,,,,,,,,,,,,,,,,,,,,,,,,,,,,,
0,68,68,39,1,,61652222bfd9351c91a6585a,62bbf9c11137abf440c0c5fb,2022-06-29_09h08.33.823,Colour_Asymmetry_Pilot,2022.1.3,Win32,0.984538803,62bbe60bf3d75ef465d3e404,,,,,,,,,,,,,,,,,,,,,,,,,,,,,,,,,,,,,,,,,,,,,,,,,,,,,,,,,,,,,,,,,,,,,,,,,,,,,,,,,,,,,,,,,,,,,,,,,,,,,,,,,,,,,,,,,,,,,,,,,,,,,,,,,,,,,,,,,,,,,,,,,,,,,,,,,,,,,,
0,69,69,70,1,,61652222bfd9351c91a6585a,62bbf9c11137abf440c0c5fb,2022-06-29_09h08.33.823,Colour_Asymmetry_Pilot,2022.1.3,Win32,0.984538803,62bbe60bf3d75ef465d3e404,,,,,,,,,,,,,,,,,,,,,,,,,,,,,,,,,,,,,,,,,,,,,,,,,,,,,,,,,,,,,,,,,,,,,,,,,,,,,,,,,,,,,,,,,,,,,,,,,,,,,,,,,,,,,,,,,,,,,,,,,,,,,,,,,,,,,,,,,,,,,,,,,,,,,,,,,,,,,,
0,70,70,47,1,,61652222bfd9351c91a6585a,62bbf9c11137abf440c0c5fb,2022-06-29_09h08.33.823,Colour_Asymmetry_Pilot,2022.1.3,Win32,0.984538803,62bbe60bf3d75ef465d3e404,,,,,,,,,,,,,,,,,,,,,,,,,,,,,,,,,,,,,,,,,,,,,,,,,,,,,,,,,,,,,,,,,,,,,,,,,,,,,,,,,,,,,,,,,,,,,,,,,,,,,,,,,,,,,,,,,,,,,,,,,,,,,,,,,,,,,,,,,,,,,,,,,,,,,,,,,,,,,,
0,71,71,76,1,,61652222bfd9351c91a6585a,62bbf9c11137abf440c0c5fb,2022-06-29_09h08.33.823,Colour_Asymmetry_Pilot,2022.1.3,Win32,0.984538803,62bbe60bf3d75ef465d3e404,,,,,,,,,,,,,,,,,,,,,,,,,,,,,,,,,,,,,,,,,,,,,,,,,,,,,,,,,,,,,,,,,,,,,,,,,,,,,,,,,,,,,,,,,,,,,,,,,,,,,,,,,,,,,,,,,,,,,,,,,,,,,,,,,,,,,,,,,,,,,,,,,,,,,,,,,,,,,,
0,72,72,80,1,,61652222bfd9351c91a6585a,62bbf9c11137abf440c0c5fb,2022-06-29_09h08.33.823,Colour_Asymmetry_Pilot,2022.1.3,Win32,0.984538803,62bbe60bf3d75ef465d3e404,,,,,,,,,,,,,,,,,,,,,,,,,,,,,,,,,,,,,,,,,,,,,,,,,,,,,,,,,,,,,,,,,,,,,,,,,,,,,,,,,,,,,,,,,,,,,,,,,,,,,,,,,,,,,,,,,,,,,,,,,,,,,,,,,,,,,,,,,,,,,,,,,,,,,,,,,,,,,,
0,73,73,14,1,,61652222bfd9351c91a6585a,62bbf9c11137abf440c0c5fb,2022-06-29_09h08.33.823,Colour_Asymmetry_Pilot,2022.1.3,Win32,0.984538803,62bbe60bf3d75ef465d3e404,,,,,,,,,,,,,,,,,,,,,,,,,,,,,,,,,,,,,,,,,,,,,,,,,,,,,,,,,,,,,,,,,,,,,,,,,,,,,,,,,,,,,,,,,,,,,,,,,,,,,,,,,,,,,,,,,,,,,,,,,,,,,,,,,,,,,,,,,,,,,,,,,,,,,,,,,,,,,,
0,74,74,91,1,,61652222bfd9351c91a6585a,62bbf9c11137abf440c0c5fb,2022-06-29_09h08.33.823,Colour_Asymmetry_Pilot,2022.1.3,Win32,0.984538803,62bbe60bf3d75ef465d3e404,,,,,,,,,,,,,,,,,,,,,,,,,,,,,,,,,,,,,,,,,,,,,,,,,,,,,,,,,,,,,,,,,,,,,,,,,,,,,,,,,,,,,,,,,,,,,,,,,,,,,,,,,,,,,,,,,,,,,,,,,,,,,,,,,,,,,,,,,,,,,,,,,,,,,,,,,,,,,,
0,75,75,16,1,,61652222bfd9351c91a6585a,62bbf9c11137abf440c0c5fb,2022-06-29_09h08.33.823,Colour_Asymmetry_Pilot,2022.1.3,Win32,0.984538803,62bbe60bf3d75ef465d3e404,,,,,,,,,,,,,,,,,,,,,,,,,,,,,,,,,,,,,,,,,,,,,,,,,,,,,,,,,,,,,,,,,,,,,,,,,,,,,,,,,,,,,,,,,,,,,,,,,,,,,,,,,,,,,,,,,,,,,,,,,,,,,,,,,,,,,,,,,,,,,,,,,,,,,,,,,,,,,,
0,76,76,10,1,,61652222bfd9351c91a6585a,62bbf9c11137abf440c0c5fb,2022-06-29_09h08.33.823,Colour_Asymmetry_Pilot,2022.1.3,Win32,0.984538803,62bbe60bf3d75ef465d3e404,,,,,,,,,,,,,,,,,,,,,,,,,,,,,,,,,,,,,,,,,,,,,,,,,,,,,,,,,,,,,,,,,,,,,,,,,,,,,,,,,,,,,,,,,,,,,,,,,,,,,,,,,,,,,,,,,,,,,,,,,,,,,,,,,,,,,,,,,,,,,,,,,,,,,,,,,,,,,,
0,77,77,78,1,,61652222bfd9351c91a6585a,62bbf9c11137abf440c0c5fb,2022-06-29_09h08.33.823,Colour_Asymmetry_Pilot,2022.1.3,Win32,0.984538803,62bbe60bf3d75ef465d3e404,,,,,,,,,,,,,,,,,,,,,,,,,,,,,,,,,,,,,,,,,,,,,,,,,,,,,,,,,,,,,,,,,,,,,,,,,,,,,,,,,,,,,,,,,,,,,,,,,,,,,,,,,,,,,,,,,,,,,,,,,,,,,,,,,,,,,,,,,,,,,,,,,,,,,,,,,,,,,,
0,78,78,29,1,,61652222bfd9351c91a6585a,62bbf9c11137abf440c0c5fb,2022-06-29_09h08.33.823,Colour_Asymmetry_Pilot,2022.1.3,Win32,0.984538803,62bbe60bf3d75ef465d3e404,,,,,,,,,,,,,,,,,,,,,,,,,,,,,,,,,,,,,,,,,,,,,,,,,,,,,,,,,,,,,,,,,,,,,,,,,,,,,,,,,,,,,,,,,,,,,,,,,,,,,,,,,,,,,,,,,,,,,,,,,,,,,,,,,,,,,,,,,,,,,,,,,,,,,,,,,,,,,,
0,79,79,46,1,,61652222bfd9351c91a6585a,62bbf9c11137abf440c0c5fb,2022-06-29_09h08.33.823,Colour_Asymmetry_Pilot,2022.1.3,Win32,0.984538803,62bbe60bf3d75ef465d3e404,,,,,,,,,,,,,,,,,,,,,,,,,,,,,,,,,,,,,,,,,,,,,,,,,,,,,,,,,,,,,,,,,,,,,,,,,,,,,,,,,,,,,,,,,,,,,,,,,,,,,,,,,,,,,,,,,,,,,,,,,,,,,,,,,,,,,,,,,,,,,,,,,,,,,,,,,,,,,,
0,80,80,59,1,,61652222bfd9351c91a6585a,62bbf9c11137abf440c0c5fb,2022-06-29_09h08.33.823,Colour_Asymmetry_Pilot,2022.1.3,Win32,0.984538803,62bbe60bf3d75ef465d3e404,,,,,,,,,,,,,,,,,,,,,,,,,,,,,,,,,,,,,,,,,,,,,,,,,,,,,,,,,,,,,,,,,,,,,,,,,,,,,,,,,,,,,,,,,,,,,,,,,,,,,,,,,,,,,,,,,,,,,,,,,,,,,,,,,,,,,,,,,,,,,,,,,,,,,,,,,,,,,,
0,81,81,57,1,,61652222bfd9351c91a6585a,62bbf9c11137abf440c0c5fb,2022-06-29_09h08.33.823,Colour_Asymmetry_Pilot,2022.1.3,Win32,0.984538803,62bbe60bf3d75ef465d3e404,,,,,,,,,,,,,,,,,,,,,,,,,,,,,,,,,,,,,,,,,,,,,,,,,,,,,,,,,,,,,,,,,,,,,,,,,,,,,,,,,,,,,,,,,,,,,,,,,,,,,,,,,,,,,,,,,,,,,,,,,,,,,,,,,,,,,,,,,,,,,,,,,,,,,,,,,,,,,,
0,82,82,88,1,,61652222bfd9351c91a6585a,62bbf9c11137abf440c0c5fb,2022-06-29_09h08.33.823,Colour_Asymmetry_Pilot,2022.1.3,Win32,0.984538803,62bbe60bf3d75ef465d3e404,,,,,,,,,,,,,,,,,,,,,,,,,,,,,,,,,,,,,,,,,,,,,,,,,,,,,,,,,,,,,,,,,,,,,,,,,,,,,,,,,,,,,,,,,,,,,,,,,,,,,,,,,,,,,,,,,,,,,,,,,,,,,,,,,,,,,,,,,,,,,,,,,,,,,,,,,,,,,,
0,83,83,68,1,,61652222bfd9351c91a6585a,62bbf9c11137abf440c0c5fb,2022-06-29_09h08.33.823,Colour_Asymmetry_Pilot,2022.1.3,Win32,0.984538803,62bbe60bf3d75ef465d3e404,,,,,,,,,,,,,,,,,,,,,,,,,,,,,,,,,,,,,,,,,,,,,,,,,,,,,,,,,,,,,,,,,,,,,,,,,,,,,,,,,,,,,,,,,,,,,,,,,,,,,,,,,,,,,,,,,,,,,,,,,,,,,,,,,,,,,,,,,,,,,,,,,,,,,,,,,,,,,,
0,84,84,13,1,,61652222bfd9351c91a6585a,62bbf9c11137abf440c0c5fb,2022-06-29_09h08.33.823,Colour_Asymmetry_Pilot,2022.1.3,Win32,0.984538803,62bbe60bf3d75ef465d3e404,,,,,,,,,,,,,,,,,,,,,,,,,,,,,,,,,,,,,,,,,,,,,,,,,,,,,,,,,,,,,,,,,,,,,,,,,,,,,,,,,,,,,,,,,,,,,,,,,,,,,,,,,,,,,,,,,,,,,,,,,,,,,,,,,,,,,,,,,,,,,,,,,,,,,,,,,,,,,,
0,85,85,6,1,,61652222bfd9351c91a6585a,62bbf9c11137abf440c0c5fb,2022-06-29_09h08.33.823,Colour_Asymmetry_Pilot,2022.1.3,Win32,0.984538803,62bbe60bf3d75ef465d3e404,,,,,,,,,,,,,,,,,,,,,,,,,,,,,,,,,,,,,,,,,,,,,,,,,,,,,,,,,,,,,,,,,,,,,,,,,,,,,,,,,,,,,,,,,,,,,,,,,,,,,,,,,,,,,,,,,,,,,,,,,,,,,,,,,,,,,,,,,,,,,,,,,,,,,,,,,,,,,,
0,86,86,45,1,,61652222bfd9351c91a6585a,62bbf9c11137abf440c0c5fb,2022-06-29_09h08.33.823,Colour_Asymmetry_Pilot,2022.1.3,Win32,0.984538803,62bbe60bf3d75ef465d3e404,,,,,,,,,,,,,,,,,,,,,,,,,,,,,,,,,,,,,,,,,,,,,,,,,,,,,,,,,,,,,,,,,,,,,,,,,,,,,,,,,,,,,,,,,,,,,,,,,,,,,,,,,,,,,,,,,,,,,,,,,,,,,,,,,,,,,,,,,,,,,,,,,,,,,,,,,,,,,,
0,87,87,60,1,,61652222bfd9351c91a6585a,62bbf9c11137abf440c0c5fb,2022-06-29_09h08.33.823,Colour_Asymmetry_Pilot,2022.1.3,Win32,0.984538803,62bbe60bf3d75ef465d3e404,,,,,,,,,,,,,,,,,,,,,,,,,,,,,,,,,,,,,,,,,,,,,,,,,,,,,,,,,,,,,,,,,,,,,,,,,,,,,,,,,,,,,,,,,,,,,,,,,,,,,,,,,,,,,,,,,,,,,,,,,,,,,,,,,,,,,,,,,,,,,,,,,,,,,,,,,,,,,,
0,88,88,11,1,,61652222bfd9351c91a6585a,62bbf9c11137abf440c0c5fb,2022-06-29_09h08.33.823,Colour_Asymmetry_Pilot,2022.1.3,Win32,0.984538803,62bbe60bf3d75ef465d3e404,,,,,,,,,,,,,,,,,,,,,,,,,,,,,,,,,,,,,,,,,,,,,,,,,,,,,,,,,,,,,,,,,,,,,,,,,,,,,,,,,,,,,,,,,,,,,,,,,,,,,,,,,,,,,,,,,,,,,,,,,,,,,,,,,,,,,,,,,,,,,,,,,,,,,,,,,,,,,,
0,89,89,75,1,,61652222bfd9351c91a6585a,62bbf9c11137abf440c0c5fb,2022-06-29_09h08.33.823,Colour_Asymmetry_Pilot,2022.1.3,Win32,0.984538803,62bbe60bf3d75ef465d3e404,,,,,,,,,,,,,,,,,,,,,,,,,,,,,,,,,,,,,,,,,,,,,,,,,,,,,,,,,,,,,,,,,,,,,,,,,,,,,,,,,,,,,,,,,,,,,,,,,,,,,,,,,,,,,,,,,,,,,,,,,,,,,,,,,,,,,,,,,,,,,,,,,,,,,,,,,,,,,,
0,90,90,20,1,,61652222bfd9351c91a6585a,62bbf9c11137abf440c0c5fb,2022-06-29_09h08.33.823,Colour_Asymmetry_Pilot,2022.1.3,Win32,0.984538803,62bbe60bf3d75ef465d3e404,,,,,,,,,,,,,,,,,,,,,,,,,,,,,,,,,,,,,,,,,,,,,,,,,,,,,,,,,,,,,,,,,,,,,,,,,,,,,,,,,,,,,,,,,,,,,,,,,,,,,,,,,,,,,,,,,,,,,,,,,,,,,,,,,,,,,,,,,,,,,,,,,,,,,,,,,,,,,,
0,91,91,36,1,,61652222bfd9351c91a6585a,62bbf9c11137abf440c0c5fb,2022-06-29_09h08.33.823,Colour_Asymmetry_Pilot,2022.1.3,Win32,0.984538803,62bbe60bf3d75ef465d3e404,,,,,,,,,,,,,,,,,,,,,,,,,,,,,,,,,,,,,,,,,,,,,,,,,,,,,,,,,,,,,,,,,,,,,,,,,,,,,,,,,,,,,,,,,,,,,,,,,,,,,,,,,,,,,,,,,,,,,,,,,,,,,,,,,,,,,,,,,,,,,,,,,,,,,,,,,,,,,,
0,92,92,15,1,,61652222bfd9351c91a6585a,62bbf9c11137abf440c0c5fb,2022-06-29_09h08.33.823,Colour_Asymmetry_Pilot,2022.1.3,Win32,0.984538803,62bbe60bf3d75ef465d3e404,,,,,,,,,,,,,,,,,,,,,,,,,,,,,,,,,,,,,,,,,,,,,,,,,,,,,,,,,,,,,,,,,,,,,,,,,,,,,,,,,,,,,,,,,,,,,,,,,,,,,,,,,,,,,,,,,,,,,,,,,,,,,,,,,,,,,,,,,,,,,,,,,,,,,,,,,,,,,,
,,,,,,61652222bfd9351c91a6585a,62bbf9c11137abf440c0c5fb,2022-06-29_09h08.33.823,Colour_Asymmetry_Pilot,2022.1.3,Win32,0.984538803,62bbe60bf3d75ef465d3e404,0,0,0,48,1,onetwo,,,,,,,,,,,,,,,,,,,,,,,,,,,,,,,,,,,,,,,,,,,,,,,,,,,,,,,,,,,,,,,,,,,,,,,,,,,,,,,,,,,,,,,,,,,,,,,,,,,,,,,,,,,,,,,,,,,,,,,,,,,,,,,,,,,,,,,,,,,,,,,,,,,,,,,,
,,,,,,61652222bfd9351c91a6585a,62bbf9c11137abf440c0c5fb,2022-06-29_09h08.33.823,Colour_Asymmetry_Pilot,2022.1.3,Win32,0.984538803,62bbe60bf3d75ef465d3e404,0,1,1,117,1,threefour,,,,,,,,,,,,,,,,,,,,,,,,,,,,,,,,,,,,,,,,,,,,,,,,,,,,,,,,,,,,,,,,,,,,,,,,,,,,,,,,,,,,,,,,,,,,,,,,,,,,,,,,,,,,,,,,,,,,,,,,,,,,,,,,,,,,,,,,,,,,,,,,,,,,,,,,
,,,,,,61652222bfd9351c91a6585a,62bbf9c11137abf440c0c5fb,2022-06-29_09h08.33.823,Colour_Asymmetry_Pilot,2022.1.3,Win32,0.984538803,62bbe60bf3d75ef465d3e404,0,2,2,150,1,fourtwo,,,,,,,,,,,,,,,,,,,,,,,,,,,,,,,,,,,,,,,,,,,,,,,,,,,,,,,,,,,,,,,,,,,,,,,,,,,,,,,,,,,,,,,,,,,,,,,,,,,,,,,,,,,,,,,,,,,,,,,,,,,,,,,,,,,,,,,,,,,,,,,,,,,,,,,,
,,,,,,61652222bfd9351c91a6585a,62bbf9c11137abf440c0c5fb,2022-06-29_09h08.33.823,Colour_Asymmetry_Pilot,2022.1.3,Win32,0.984538803,62bbe60bf3d75ef465d3e404,0,3,3,103,1,fourthree,,,,,,,,,,,,,,,,,,,,,,,,,,,,,,,,,,,,,,,,,,,,,,,,,,,,,,,,,,,,,,,,,,,,,,,,,,,,,,,,,,,,,,,,,,,,,,,,,,,,,,,,,,,,,,,,,,,,,,,,,,,,,,,,,,,,,,,,,,,,,,,,,,,,,,,,
,,,,,,61652222bfd9351c91a6585a,62bbf9c11137abf440c0c5fb,2022-06-29_09h08.33.823,Colour_Asymmetry_Pilot,2022.1.3,Win32,0.984538803,62bbe60bf3d75ef465d3e404,0,4,4,70,1,fourtwo,,,,,,,,,,,,,,,,,,,,,,,,,,,,,,,,,,,,,,,,,,,,,,,,,,,,,,,,,,,,,,,,,,,,,,,,,,,,,,,,,,,,,,,,,,,,,,,,,,,,,,,,,,,,,,,,,,,,,,,,,,,,,,,,,,,,,,,,,,,,,,,,,,,,,,,,
,,,,,,61652222bfd9351c91a6585a,62bbf9c11137abf440c0c5fb,2022-06-29_09h08.33.823,Colour_Asymmetry_Pilot,2022.1.3,Win32,0.984538803,62bbe60bf3d75ef465d3e404,0,5,5,16,1,onetwo,,,,,,,,,,,,,,,,,,,,,,,,,,,,,,,,,,,,,,,,,,,,,,,,,,,,,,,,,,,,,,,,,,,,,,,,,,,,,,,,,,,,,,,,,,,,,,,,,,,,,,,,,,,,,,,,,,,,,,,,,,,,,,,,,,,,,,,,,,,,,,,,,,,,,,,,
,,,,,,61652222bfd9351c91a6585a,62bbf9c11137abf440c0c5fb,2022-06-29_09h08.33.823,Colour_Asymmetry_Pilot,2022.1.3,Win32,0.984538803,62bbe60bf3d75ef465d3e404,0,6,6,73,1,onethree,,,,,,,,,,,,,,,,,,,,,,,,,,,,,,,,,,,,,,,,,,,,,,,,,,,,,,,,,,,,,,,,,,,,,,,,,,,,,,,,,,,,,,,,,,,,,,,,,,,,,,,,,,,,,,,,,,,,,,,,,,,,,,,,,,,,,,,,,,,,,,,,,,,,,,,,
,,,,,,61652222bfd9351c91a6585a,62bbf9c11137abf440c0c5fb,2022-06-29_09h08.33.823,Colour_Asymmetry_Pilot,2022.1.3,Win32,0.984538803,62bbe60bf3d75ef465d3e404,0,7,7,9,1,onethree,,,,,,,,,,,,,,,,,,,,,,,,,,,,,,,,,,,,,,,,,,,,,,,,,,,,,,,,,,,,,,,,,,,,,,,,,,,,,,,,,,,,,,,,,,,,,,,,,,,,,,,,,,,,,,,,,,,,,,,,,,,,,,,,,,,,,,,,,,,,,,,,,,,,,,,,
,,,,,,61652222bfd9351c91a6585a,62bbf9c11137abf440c0c5fb,2022-06-29_09h08.33.823,Colour_Asymmetry_Pilot,2022.1.3,Win32,0.984538803,62bbe60bf3d75ef465d3e404,0,8,8,108,1,threeone,,,,,,,,,,,,,,,,,,,,,,,,,,,,,,,,,,,,,,,,,,,,,,,,,,,,,,,,,,,,,,,,,,,,,,,,,,,,,,,,,,,,,,,,,,,,,,,,,,,,,,,,,,,,,,,,,,,,,,,,,,,,,,,,,,,,,,,,,,,,,,,,,,,,,,,,
,,,,,,61652222bfd9351c91a6585a,62bbf9c11137abf440c0c5fb,2022-06-29_09h08.33.823,Colour_Asymmetry_Pilot,2022.1.3,Win32,0.984538803,62bbe60bf3d75ef465d3e404,0,9,9,41,1,onethree,,,,,,,,,,,,,,,,,,,,,,,,,,,,,,,,,,,,,,,,,,,,,,,,,,,,,,,,,,,,,,,,,,,,,,,,,,,,,,,,,,,,,,,,,,,,,,,,,,,,,,,,,,,,,,,,,,,,,,,,,,,,,,,,,,,,,,,,,,,,,,,,,,,,,,,,
,,,,,,61652222bfd9351c91a6585a,62bbf9c11137abf440c0c5fb,2022-06-29_09h08.33.823,Colour_Asymmetry_Pilot,2022.1.3,Win32,0.984538803,62bbe60bf3d75ef465d3e404,0,10,10,102,1,fourtwo,,,,,,,,,,,,,,,,,,,,,,,,,,,,,,,,,,,,,,,,,,,,,,,,,,,,,,,,,,,,,,,,,,,,,,,,,,,,,,,,,,,,,,,,,,,,,,,,,,,,,,,,,,,,,,,,,,,,,,,,,,,,,,,,,,,,,,,,,,,,,,,,,,,,,,,,
,,,,,,61652222bfd9351c91a6585a,62bbf9c11137abf440c0c5fb,2022-06-29_09h08.33.823,Colour_Asymmetry_Pilot,2022.1.3,Win32,0.984538803,62bbe60bf3d75ef465d3e404,0,11,11,71,1,fourthree,,,,,,,,,,,,,,,,,,,,,,,,,,,,,,,,,,,,,,,,,,,,,,,,,,,,,,,,,,,,,,,,,,,,,,,,,,,,,,,,,,,,,,,,,,,,,,,,,,,,,,,,,,,,,,,,,,,,,,,,,,,,,,,,,,,,,,,,,,,,,,,,,,,,,,,,
,,,,,,61652222bfd9351c91a6585a,62bbf9c11137abf440c0c5fb,2022-06-29_09h08.33.823,Colour_Asymmetry_Pilot,2022.1.3,Win32,0.984538803,62bbe60bf3d75ef465d3e404,0,12,12,107,1,twofour,,,,,,,,,,,,,,,,,,,,,,,,,,,,,,,,,,,,,,,,,,,,,,,,,,,,,,,,,,,,,,,,,,,,,,,,,,,,,,,,,,,,,,,,,,,,,,,,,,,,,,,,,,,,,,,,,,,,,,,,,,,,,,,,,,,,,,,,,,,,,,,,,,,,,,,,
,,,,,,61652222bfd9351c91a6585a,62bbf9c11137abf440c0c5fb,2022-06-29_09h08.33.823,Colour_Asymmetry_Pilot,2022.1.3,Win32,0.984538803,62bbe60bf3d75ef465d3e404,0,13,13,33,1,onethree,,,,,,,,,,,,,,,,,,,,,,,,,,,,,,,,,,,,,,,,,,,,,,,,,,,,,,,,,,,,,,,,,,,,,,,,,,,,,,,,,,,,,,,,,,,,,,,,,,,,,,,,,,,,,,,,,,,,,,,,,,,,,,,,,,,,,,,,,,,,,,,,,,,,,,,,
,,,,,,61652222bfd9351c91a6585a,62bbf9c11137abf440c0c5fb,2022-06-29_09h08.33.823,Colour_Asymmetry_Pilot,2022.1.3,Win32,0.984538803,62bbe60bf3d75ef465d3e404,0,14,14,127,1,fourthree,,,,,,,,,,,,,,,,,,,,,,,,,,,,,,,,,,,,,,,,,,,,,,,,,,,,,,,,,,,,,,,,,,,,,,,,,,,,,,,,,,,,,,,,,,,,,,,,,,,,,,,,,,,,,,,,,,,,,,,,,,,,,,,,,,,,,,,,,,,,,,,,,,,,,,,,
,,,,,,61652222bfd9351c91a6585a,62bbf9c11137abf440c0c5fb,2022-06-29_09h08.33.823,Colour_Asymmetry_Pilot,2022.1.3,Win32,0.984538803,62bbe60bf3d75ef465d3e404,0,15,15,130,1,twoone,,,,,,,,,,,,,,,,,,,,,,,,,,,,,,,,,,,,,,,,,,,,,,,,,,,,,,,,,,,,,,,,,,,,,,,,,,,,,,,,,,,,,,,,,,,,,,,,,,,,,,,,,,,,,,,,,,,,,,,,,,,,,,,,,,,,,,,,,,,,,,,,,,,,,,,,
,,,,,,61652222bfd9351c91a6585a,62bbf9c11137abf440c0c5fb,2022-06-29_09h08.33.823,Colour_Asymmetry_Pilot,2022.1.3,Win32,0.984538803,62bbe60bf3d75ef465d3e404,0,16,16,59,1,twofour,,,,,,,,,,,,,,,,,,,,,,,,,,,,,,,,,,,,,,,,,,,,,,,,,,,,,,,,,,,,,,,,,,,,,,,,,,,,,,,,,,,,,,,,,,,,,,,,,,,,,,,,,,,,,,,,,,,,,,,,,,,,,,,,,,,,,,,,,,,,,,,,,,,,,,,,
,,,,,,61652222bfd9351c91a6585a,62bbf9c11137abf440c0c5fb,2022-06-29_09h08.33.823,Colour_Asymmetry_Pilot,2022.1.3,Win32,0.984538803,62bbe60bf3d75ef465d3e404,0,17,17,29,1,threefour,,,,,,,,,,,,,,,,,,,,,,,,,,,,,,,,,,,,,,,,,,,,,,,,,,,,,,,,,,,,,,,,,,,,,,,,,,,,,,,,,,,,,,,,,,,,,,,,,,,,,,,,,,,,,,,,,,,,,,,,,,,,,,,,,,,,,,,,,,,,,,,,,,,,,,,,
,,,,,,61652222bfd9351c91a6585a,62bbf9c11137abf440c0c5fb,2022-06-29_09h08.33.823,Colour_Asymmetry_Pilot,2022.1.3,Win32,0.984538803,62bbe60bf3d75ef465d3e404,0,18,18,83,1,twofour,,,,,,,,,,,,,,,,,,,,,,,,,,,,,,,,,,,,,,,,,,,,,,,,,,,,,,,,,,,,,,,,,,,,,,,,,,,,,,,,,,,,,,,,,,,,,,,,,,,,,,,,,,,,,,,,,,,,,,,,,,,,,,,,,,,,,,,,,,,,,,,,,,,,,,,,
,,,,,,61652222bfd9351c91a6585a,62bbf9c11137abf440c0c5fb,2022-06-29_09h08.33.823,Colour_Asymmetry_Pilot,2022.1.3,Win32,0.984538803,62bbe60bf3d75ef465d3e404,0,19,19,80,1,onetwo,,,,,,,,,,,,,,,,,,,,,,,,,,,,,,,,,,,,,,,,,,,,,,,,,,,,,,,,,,,,,,,,,,,,,,,,,,,,,,,,,,,,,,,,,,,,,,,,,,,,,,,,,,,,,,,,,,,,,,,,,,,,,,,,,,,,,,,,,,,,,,,,,,,,,,,,
,,,,,,61652222bfd9351c91a6585a,62bbf9c11137abf440c0c5fb,2022-06-29_09h08.33.823,Colour_Asymmetry_Pilot,2022.1.3,Win32,0.984538803,62bbe60bf3d75ef465d3e404,0,20,20,64,1,onetwo,,,,,,,,,,,,,,,,,,,,,,,,,,,,,,,,,,,,,,,,,,,,,,,,,,,,,,,,,,,,,,,,,,,,,,,,,,,,,,,,,,,,,,,,,,,,,,,,,,,,,,,,,,,,,,,,,,,,,,,,,,,,,,,,,,,,,,,,,,,,,,,,,,,,,,,,
,,,,,,61652222bfd9351c91a6585a,62bbf9c11137abf440c0c5fb,2022-06-29_09h08.33.823,Colour_Asymmetry_Pilot,2022.1.3,Win32,0.984538803,62bbe60bf3d75ef465d3e404,0,21,21,63,1,fourthree,,,,,,,,,,,,,,,,,,,,,,,,,,,,,,,,,,,,,,,,,,,,,,,,,,,,,,,,,,,,,,,,,,,,,,,,,,,,,,,,,,,,,,,,,,,,,,,,,,,,,,,,,,,,,,,,,,,,,,,,,,,,,,,,,,,,,,,,,,,,,,,,,,,,,,,,
,,,,,,61652222bfd9351c91a6585a,62bbf9c11137abf440c0c5fb,2022-06-29_09h08.33.823,Colour_Asymmetry_Pilot,2022.1.3,Win32,0.984538803,62bbe60bf3d75ef465d3e404,0,22,22,139,1,twofour,,,,,,,,,,,,,,,,,,,,,,,,,,,,,,,,,,,,,,,,,,,,,,,,,,,,,,,,,,,,,,,,,,,,,,,,,,,,,,,,,,,,,,,,,,,,,,,,,,,,,,,,,,,,,,,,,,,,,,,,,,,,,,,,,,,,,,,,,,,,,,,,,,,,,,,,
,,,,,,61652222bfd9351c91a6585a,62bbf9c11137abf440c0c5fb,2022-06-29_09h08.33.823,Colour_Asymmetry_Pilot,2022.1.3,Win32,0.984538803,62bbe60bf3d75ef465d3e404,0,23,23,121,1,onethree,,,,,,,,,,,,,,,,,,,,,,,,,,,,,,,,,,,,,,,,,,,,,,,,,,,,,,,,,,,,,,,,,,,,,,,,,,,,,,,,,,,,,,,,,,,,,,,,,,,,,,,,,,,,,,,,,,,,,,,,,,,,,,,,,,,,,,,,,,,,,,,,,,,,,,,,
,,,,,,61652222bfd9351c91a6585a,62bbf9c11137abf440c0c5fb,2022-06-29_09h08.33.823,Colour_Asymmetry_Pilot,2022.1.3,Win32,0.984538803,62bbe60bf3d75ef465d3e404,0,24,24,145,1,onethree,,,,,,,,,,,,,,,,,,,,,,,,,,,,,,,,,,,,,,,,,,,,,,,,,,,,,,,,,,,,,,,,,,,,,,,,,,,,,,,,,,,,,,,,,,,,,,,,,,,,,,,,,,,,,,,,,,,,,,,,,,,,,,,,,,,,,,,,,,,,,,,,,,,,,,,,
,,,,,,61652222bfd9351c91a6585a,62bbf9c11137abf440c0c5fb,2022-06-29_09h08.33.823,Colour_Asymmetry_Pilot,2022.1.3,Win32,0.984538803,62bbe60bf3d75ef465d3e404,0,25,25,142,1,fourtwo,,,,,,,,,,,,,,,,,,,,,,,,,,,,,,,,,,,,,,,,,,,,,,,,,,,,,,,,,,,,,,,,,,,,,,,,,,,,,,,,,,,,,,,,,,,,,,,,,,,,,,,,,,,,,,,,,,,,,,,,,,,,,,,,,,,,,,,,,,,,,,,,,,,,,,,,
,,,,,,61652222bfd9351c91a6585a,62bbf9c11137abf440c0c5fb,2022-06-29_09h08.33.823,Colour_Asymmetry_Pilot,2022.1.3,Win32,0.984538803,62bbe60bf3d75ef465d3e404,0,26,26,136,1,onetwo,,,,,,,,,,,,,,,,,,,,,,,,,,,,,,,,,,,,,,,,,,,,,,,,,,,,,,,,,,,,,,,,,,,,,,,,,,,,,,,,,,,,,,,,,,,,,,,,,,,,,,,,,,,,,,,,,,,,,,,,,,,,,,,,,,,,,,,,,,,,,,,,,,,,,,,,
,,,,,,61652222bfd9351c91a6585a,62bbf9c11137abf440c0c5fb,2022-06-29_09h08.33.823,Colour_Asymmetry_Pilot,2022.1.3,Win32,0.984538803,62bbe60bf3d75ef465d3e404,0,27,27,118,1,fourtwo,,,,,,,,,,,,,,,,,,,,,,,,,,,,,,,,,,,,,,,,,,,,,,,,,,,,,,,,,,,,,,,,,,,,,,,,,,,,,,,,,,,,,,,,,,,,,,,,,,,,,,,,,,,,,,,,,,,,,,,,,,,,,,,,,,,,,,,,,,,,,,,,,,,,,,,,
,,,,,,61652222bfd9351c91a6585a,62bbf9c11137abf440c0c5fb,2022-06-29_09h08.33.823,Colour_Asymmetry_Pilot,2022.1.3,Win32,0.984538803,62bbe60bf3d75ef465d3e404,0,28,28,31,1,fourthree,,,,,,,,,,,,,,,,,,,,,,,,,,,,,,,,,,,,,,,,,,,,,,,,,,,,,,,,,,,,,,,,,,,,,,,,,,,,,,,,,,,,,,,,,,,,,,,,,,,,,,,,,,,,,,,,,,,,,,,,,,,,,,,,,,,,,,,,,,,,,,,,,,,,,,,,
,,,,,,61652222bfd9351c91a6585a,62bbf9c11137abf440c0c5fb,2022-06-29_09h08.33.823,Colour_Asymmetry_Pilot,2022.1.3,Win32,0.984538803,62bbe60bf3d75ef465d3e404,0,29,29,120,1,onetwo,,,,,,,,,,,,,,,,,,,,,,,,,,,,,,,,,,,,,,,,,,,,,,,,,,,,,,,,,,,,,,,,,,,,,,,,,,,,,,,,,,,,,,,,,,,,,,,,,,,,,,,,,,,,,,,,,,,,,,,,,,,,,,,,,,,,,,,,,,,,,,,,,,,,,,,,
,,,,,,61652222bfd9351c91a6585a,62bbf9c11137abf440c0c5fb,2022-06-29_09h08.33.823,Colour_Asymmetry_Pilot,2022.1.3,Win32,0.984538803,62bbe60bf3d75ef465d3e404,0,30,30,45,1,threefour,,,,,,,,,,,,,,,,,,,,,,,,,,,,,,,,,,,,,,,,,,,,,,,,,,,,,,,,,,,,,,,,,,,,,,,,,,,,,,,,,,,,,,,,,,,,,,,,,,,,,,,,,,,,,,,,,,,,,,,,,,,,,,,,,,,,,,,,,,,,,,,,,,,,,,,,
,,,,,,61652222bfd9351c91a6585a,62bbf9c11137abf440c0c5fb,2022-06-29_09h08.33.823,Colour_Asymmetry_Pilot,2022.1.3,Win32,0.984538803,62bbe60bf3d75ef465d3e404,0,31,31,68,1,threeone,,,,,,,,,,,,,,,,,,,,,,,,,,,,,,,,,,,,,,,,,,,,,,,,,,,,,,,,,,,,,,,,,,,,,,,,,,,,,,,,,,,,,,,,,,,,,,,,,,,,,,,,,,,,,,,,,,,,,,,,,,,,,,,,,,,,,,,,,,,,,,,,,,,,,,,,
,,,,,,61652222bfd9351c91a6585a,62bbf9c11137abf440c0c5fb,2022-06-29_09h08.33.823,Colour_Asymmetry_Pilot,2022.1.3,Win32,0.984538803,62bbe60bf3d75ef465d3e404,0,32,32,11,1,twofour,,,,,,,,,,,,,,,,,,,,,,,,,,,,,,,,,,,,,,,,,,,,,,,,,,,,,,,,,,,,,,,,,,,,,,,,,,,,,,,,,,,,,,,,,,,,,,,,,,,,,,,,,,,,,,,,,,,,,,,,,,,,,,,,,,,,,,,,,,,,,,,,,,,,,,,,
,,,,,,61652222bfd9351c91a6585a,62bbf9c11137abf440c0c5fb,2022-06-29_09h08.33.823,Colour_Asymmetry_Pilot,2022.1.3,Win32,0.984538803,62bbe60bf3d75ef465d3e404,0,33,33,119,1,fourthree,,,,,,,,,,,,,,,,,,,,,,,,,,,,,,,,,,,,,,,,,,,,,,,,,,,,,,,,,,,,,,,,,,,,,,,,,,,,,,,,,,,,,,,,,,,,,,,,,,,,,,,,,,,,,,,,,,,,,,,,,,,,,,,,,,,,,,,,,,,,,,,,,,,,,,,,
,,,,,,61652222bfd9351c91a6585a,62bbf9c11137abf440c0c5fb,2022-06-29_09h08.33.823,Colour_Asymmetry_Pilot,2022.1.3,Win32,0.984538803,62bbe60bf3d75ef465d3e404,0,34,34,100,1,threeone,,,,,,,,,,,,,,,,,,,,,,,,,,,,,,,,,,,,,,,,,,,,,,,,,,,,,,,,,,,,,,,,,,,,,,,,,,,,,,,,,,,,,,,,,,,,,,,,,,,,,,,,,,,,,,,,,,,,,,,,,,,,,,,,,,,,,,,,,,,,,,,,,,,,,,,,
,,,,,,61652222bfd9351c91a6585a,62bbf9c11137abf440c0c5fb,2022-06-29_09h08.33.823,Colour_Asymmetry_Pilot,2022.1.3,Win32,0.984538803,62bbe60bf3d75ef465d3e404,0,35,35,74,1,twoone,,,,,,,,,,,,,,,,,,,,,,,,,,,,,,,,,,,,,,,,,,,,,,,,,,,,,,,,,,,,,,,,,,,,,,,,,,,,,,,,,,,,,,,,,,,,,,,,,,,,,,,,,,,,,,,,,,,,,,,,,,,,,,,,,,,,,,,,,,,,,,,,,,,,,,,,
,,,,,,61652222bfd9351c91a6585a,62bbf9c11137abf440c0c5fb,2022-06-29_09h08.33.823,Colour_Asymmetry_Pilot,2022.1.3,Win32,0.984538803,62bbe60bf3d75ef465d3e404,0,36,36,124,1,threeone,,,,,,,,,,,,,,,,,,,,,,,,,,,,,,,,,,,,,,,,,,,,,,,,,,,,,,,,,,,,,,,,,,,,,,,,,,,,,,,,,,,,,,,,,,,,,,,,,,,,,,,,,,,,,,,,,,,,,,,,,,,,,,,,,,,,,,,,,,,,,,,,,,,,,,,,
,,,,,,61652222bfd9351c91a6585a,62bbf9c11137abf440c0c5fb,2022-06-29_09h08.33.823,Colour_Asymmetry_Pilot,2022.1.3,Win32,0.984538803,62bbe60bf3d75ef465d3e404,0,37,37,144,1,onetwo,,,,,,,,,,,,,,,,,,,,,,,,,,,,,,,,,,,,,,,,,,,,,,,,,,,,,,,,,,,,,,,,,,,,,,,,,,,,,,,,,,,,,,,,,,,,,,,,,,,,,,,,,,,,,,,,,,,,,,,,,,,,,,,,,,,,,,,,,,,,,,,,,,,,,,,,
,,,,,,61652222bfd9351c91a6585a,62bbf9c11137abf440c0c5fb,2022-06-29_09h08.33.823,Colour_Asymmetry_Pilot,2022.1.3,Win32,0.984538803,62bbe60bf3d75ef465d3e404,0,38,38,90,1,twoone,,,,,,,,,,,,,,,,,,,,,,,,,,,,,,,,,,,,,,,,,,,,,,,,,,,,,,,,,,,,,,,,,,,,,,,,,,,,,,,,,,,,,,,,,,,,,,,,,,,,,,,,,,,,,,,,,,,,,,,,,,,,,,,,,,,,,,,,,,,,,,,,,,,,,,,,
,,,,,,61652222bfd9351c91a6585a,62bbf9c11137abf440c0c5fb,2022-06-29_09h08.33.823,Colour_Asymmetry_Pilot,2022.1.3,Win32,0.984538803,62bbe60bf3d75ef465d3e404,0,39,39,157,1,threefour,,,,,,,,,,,,,,,,,,,,,,,,,,,,,,,,,,,,,,,,,,,,,,,,,,,,,,,,,,,,,,,,,,,,,,,,,,,,,,,,,,,,,,,,,,,,,,,,,,,,,,,,,,,,,,,,,,,,,,,,,,,,,,,,,,,,,,,,,,,,,,,,,,,,,,,,
,,,,,,61652222bfd9351c91a6585a,62bbf9c11137abf440c0c5fb,2022-06-29_09h08.33.823,Colour_Asymmetry_Pilot,2022.1.3,Win32,0.984538803,62bbe60bf3d75ef465d3e404,0,40,40,14,1,fourtwo,,,,,,,,,,,,,,,,,,,,,,,,,,,,,,,,,,,,,,,,,,,,,,,,,,,,,,,,,,,,,,,,,,,,,,,,,,,,,,,,,,,,,,,,,,,,,,,,,,,,,,,,,,,,,,,,,,,,,,,,,,,,,,,,,,,,,,,,,,,,,,,,,,,,,,,,
,,,,,,61652222bfd9351c91a6585a,62bbf9c11137abf440c0c5fb,2022-06-29_09h08.33.823,Colour_Asymmetry_Pilot,2022.1.3,Win32,0.984538803,62bbe60bf3d75ef465d3e404,0,41,41,81,1,onethree,,,,,,,,,,,,,,,,,,,,,,,,,,,,,,,,,,,,,,,,,,,,,,,,,,,,,,,,,,,,,,,,,,,,,,,,,,,,,,,,,,,,,,,,,,,,,,,,,,,,,,,,,,,,,,,,,,,,,,,,,,,,,,,,,,,,,,,,,,,,,,,,,,,,,,,,
,,,,,,61652222bfd9351c91a6585a,62bbf9c11137abf440c0c5fb,2022-06-29_09h08.33.823,Colour_Asymmetry_Pilot,2022.1.3,Win32,0.984538803,62bbe60bf3d75ef465d3e404,0,42,42,27,1,twofour,,,,,,,,,,,,,,,,,,,,,,,,,,,,,,,,,,,,,,,,,,,,,,,,,,,,,,,,,,,,,,,,,,,,,,,,,,,,,,,,,,,,,,,,,,,,,,,,,,,,,,,,,,,,,,,,,,,,,,,,,,,,,,,,,,,,,,,,,,,,,,,,,,,,,,,,
,,,,,,61652222bfd9351c91a6585a,62bbf9c11137abf440c0c5fb,2022-06-29_09h08.33.823,Colour_Asymmetry_Pilot,2022.1.3,Win32,0.984538803,62bbe60bf3d75ef465d3e404,0,43,43,52,1,threeone,,,,,,,,,,,,,,,,,,,,,,,,,,,,,,,,,,,,,,,,,,,,,,,,,,,,,,,,,,,,,,,,,,,,,,,,,,,,,,,,,,,,,,,,,,,,,,,,,,,,,,,,,,,,,,,,,,,,,,,,,,,,,,,,,,,,,,,,,,,,,,,,,,,,,,,,
,,,,,,61652222bfd9351c91a6585a,62bbf9c11137abf440c0c5fb,2022-06-29_09h08.33.823,Colour_Asymmetry_Pilot,2022.1.3,Win32,0.984538803,62bbe60bf3d75ef465d3e404,0,44,44,7,1,fourthree,,,,,,,,,,,,,,,,,,,,,,,,,,,,,,,,,,,,,,,,,,,,,,,,,,,,,,,,,,,,,,,,,,,,,,,,,,,,,,,,,,,,,,,,,,,,,,,,,,,,,,,,,,,,,,,,,,,,,,,,,,,,,,,,,,,,,,,,,,,,,,,,,,,,,,,,
,,,,,,61652222bfd9351c91a6585a,62bbf9c11137abf440c0c5fb,2022-06-29_09h08.33.823,Colour_Asymmetry_Pilot,2022.1.3,Win32,0.984538803,62bbe60bf3d75ef465d3e404,0,45,45,35,1,twofour,,,,,,,,,,,,,,,,,,,,,,,,,,,,,,,,,,,,,,,,,,,,,,,,,,,,,,,,,,,,,,,,,,,,,,,,,,,,,,,,,,,,,,,,,,,,,,,,,,,,,,,,,,,,,,,,,,,,,,,,,,,,,,,,,,,,,,,,,,,,,,,,,,,,,,,,
,,,,,,61652222bfd9351c91a6585a,62bbf9c11137abf440c0c5fb,2022-06-29_09h08.33.823,Colour_Asymmetry_Pilot,2022.1.3,Win32,0.984538803,62bbe60bf3d75ef465d3e404,0,46,46,62,1,fourtwo,,,,,,,,,,,,,,,,,,,,,,,,,,,,,,,,,,,,,,,,,,,,,,,,,,,,,,,,,,,,,,,,,,,,,,,,,,,,,,,,,,,,,,,,,,,,,,,,,,,,,,,,,,,,,,,,,,,,,,,,,,,,,,,,,,,,,,,,,,,,,,,,,,,,,,,,
,,,,,,61652222bfd9351c91a6585a,62bbf9c11137abf440c0c5fb,2022-06-29_09h08.33.823,Colour_Asymmetry_Pilot,2022.1.3,Win32,0.984538803,62bbe60bf3d75ef465d3e404,0,47,47,111,1,fourthree,,,,,,,,,,,,,,,,,,,,,,,,,,,,,,,,,,,,,,,,,,,,,,,,,,,,,,,,,,,,,,,,,,,,,,,,,,,,,,,,,,,,,,,,,,,,,,,,,,,,,,,,,,,,,,,,,,,,,,,,,,,,,,,,,,,,,,,,,,,,,,,,,,,,,,,,
,,,,,,61652222bfd9351c91a6585a,62bbf9c11137abf440c0c5fb,2022-06-29_09h08.33.823,Colour_Asymmetry_Pilot,2022.1.3,Win32,0.984538803,62bbe60bf3d75ef465d3e404,0,48,48,143,1,fourthree,,,,,,,,,,,,,,,,,,,,,,,,,,,,,,,,,,,,,,,,,,,,,,,,,,,,,,,,,,,,,,,,,,,,,,,,,,,,,,,,,,,,,,,,,,,,,,,,,,,,,,,,,,,,,,,,,,,,,,,,,,,,,,,,,,,,,,,,,,,,,,,,,,,,,,,,
,,,,,,61652222bfd9351c91a6585a,62bbf9c11137abf440c0c5fb,2022-06-29_09h08.33.823,Colour_Asymmetry_Pilot,2022.1.3,Win32,0.984538803,62bbe60bf3d75ef465d3e404,0,49,49,109,1,threefour,,,,,,,,,,,,,,,,,,,,,,,,,,,,,,,,,,,,,,,,,,,,,,,,,,,,,,,,,,,,,,,,,,,,,,,,,,,,,,,,,,,,,,,,,,,,,,,,,,,,,,,,,,,,,,,,,,,,,,,,,,,,,,,,,,,,,,,,,,,,,,,,,,,,,,,,
,,,,,,61652222bfd9351c91a6585a,62bbf9c11137abf440c0c5fb,2022-06-29_09h08.33.823,Colour_Asymmetry_Pilot,2022.1.3,Win32,0.984538803,62bbe60bf3d75ef465d3e404,0,50,50,61,1,threefour,,,,,,,,,,,,,,,,,,,,,,,,,,,,,,,,,,,,,,,,,,,,,,,,,,,,,,,,,,,,,,,,,,,,,,,,,,,,,,,,,,,,,,,,,,,,,,,,,,,,,,,,,,,,,,,,,,,,,,,,,,,,,,,,,,,,,,,,,,,,,,,,,,,,,,,,
,,,,,,61652222bfd9351c91a6585a,62bbf9c11137abf440c0c5fb,2022-06-29_09h08.33.823,Colour_Asymmetry_Pilot,2022.1.3,Win32,0.984538803,62bbe60bf3d75ef465d3e404,0,51,51,50,1,twoone,,,,,,,,,,,,,,,,,,,,,,,,,,,,,,,,,,,,,,,,,,,,,,,,,,,,,,,,,,,,,,,,,,,,,,,,,,,,,,,,,,,,,,,,,,,,,,,,,,,,,,,,,,,,,,,,,,,,,,,,,,,,,,,,,,,,,,,,,,,,,,,,,,,,,,,,
,,,,,,61652222bfd9351c91a6585a,62bbf9c11137abf440c0c5fb,2022-06-29_09h08.33.823,Colour_Asymmetry_Pilot,2022.1.3,Win32,0.984538803,62bbe60bf3d75ef465d3e404,0,52,52,116,1,threeone,,,,,,,,,,,,,,,,,,,,,,,,,,,,,,,,,,,,,,,,,,,,,,,,,,,,,,,,,,,,,,,,,,,,,,,,,,,,,,,,,,,,,,,,,,,,,,,,,,,,,,,,,,,,,,,,,,,,,,,,,,,,,,,,,,,,,,,,,,,,,,,,,,,,,,,,
,,,,,,61652222bfd9351c91a6585a,62bbf9c11137abf440c0c5fb,2022-06-29_09h08.33.823,Colour_Asymmetry_Pilot,2022.1.3,Win32,0.984538803,62bbe60bf3d75ef465d3e404,0,53,53,0,1,onetwo,,,,,,,,,,,,,,,,,,,,,,,,,,,,,,,,,,,,,,,,,,,,,,,,,,,,,,,,,,,,,,,,,,,,,,,,,,,,,,,,,,,,,,,,,,,,,,,,,,,,,,,,,,,,,,,,,,,,,,,,,,,,,,,,,,,,,,,,,,,,,,,,,,,,,,,,
,,,,,,61652222bfd9351c91a6585a,62bbf9c11137abf440c0c5fb,2022-06-29_09h08.33.823,Colour_Asymmetry_Pilot,2022.1.3,Win32,0.984538803,62bbe60bf3d75ef465d3e404,0,54,54,153,1,onethree,,,,,,,,,,,,,,,,,,,,,,,,,,,,,,,,,,,,,,,,,,,,,,,,,,,,,,,,,,,,,,,,,,,,,,,,,,,,,,,,,,,,,,,,,,,,,,,,,,,,,,,,,,,,,,,,,,,,,,,,,,,,,,,,,,,,,,,,,,,,,,,,,,,,,,,,
,,,,,,61652222bfd9351c91a6585a,62bbf9c11137abf440c0c5fb,2022-06-29_09h08.33.823,Colour_Asymmetry_Pilot,2022.1.3,Win32,0.984538803,62bbe60bf3d75ef465d3e404,0,55,55,23,1,fourthree,,,,,,,,,,,,,,,,,,,,,,,,,,,,,,,,,,,,,,,,,,,,,,,,,,,,,,,,,,,,,,,,,,,,,,,,,,,,,,,,,,,,,,,,,,,,,,,,,,,,,,,,,,,,,,,,,,,,,,,,,,,,,,,,,,,,,,,,,,,,,,,,,,,,,,,,
,,,,,,61652222bfd9351c91a6585a,62bbf9c11137abf440c0c5fb,2022-06-29_09h08.33.823,Colour_Asymmetry_Pilot,2022.1.3,Win32,0.984538803,62bbe60bf3d75ef465d3e404,0,56,56,87,1,fourthree,,,,,,,,,,,,,,,,,,,,,,,,,,,,,,,,,,,,,,,,,,,,,,,,,,,,,,,,,,,,,,,,,,,,,,,,,,,,,,,,,,,,,,,,,,,,,,,,,,,,,,,,,,,,,,,,,,,,,,,,,,,,,,,,,,,,,,,,,,,,,,,,,,,,,,,,
,,,,,,61652222bfd9351c91a6585a,62bbf9c11137abf440c0c5fb,2022-06-29_09h08.33.823,Colour_Asymmetry_Pilot,2022.1.3,Win32,0.984538803,62bbe60bf3d75ef465d3e404,0,57,57,17,1,onethree,,,,,,,,,,,,,,,,,,,,,,,,,,,,,,,,,,,,,,,,,,,,,,,,,,,,,,,,,,,,,,,,,,,,,,,,,,,,,,,,,,,,,,,,,,,,,,,,,,,,,,,,,,,,,,,,,,,,,,,,,,,,,,,,,,,,,,,,,,,,,,,,,,,,,,,,
,,,,,,61652222bfd9351c91a6585a,62bbf9c11137abf440c0c5fb,2022-06-29_09h08.33.823,Colour_Asymmetry_Pilot,2022.1.3,Win32,0.984538803,62bbe60bf3d75ef465d3e404,0,58,58,104,1,onetwo,,,,,,,,,,,,,,,,,,,,,,,,,,,,,,,,,,,,,,,,,,,,,,,,,,,,,,,,,,,,,,,,,,,,,,,,,,,,,,,,,,,,,,,,,,,,,,,,,,,,,,,,,,,,,,,,,,,,,,,,,,,,,,,,,,,,,,,,,,,,,,,,,,,,,,,,
,,,,,,61652222bfd9351c91a6585a,62bbf9c11137abf440c0c5fb,2022-06-29_09h08.33.823,Colour_Asymmetry_Pilot,2022.1.3,Win32,0.984538803,62bbe60bf3d75ef465d3e404,0,59,59,43,1,twofour,,,,,,,,,,,,,,,,,,,,,,,,,,,,,,,,,,,,,,,,,,,,,,,,,,,,,,,,,,,,,,,,,,,,,,,,,,,,,,,,,,,,,,,,,,,,,,,,,,,,,,,,,,,,,,,,,,,,,,,,,,,,,,,,,,,,,,,,,,,,,,,,,,,,,,,,
,,,,,,61652222bfd9351c91a6585a,62bbf9c11137abf440c0c5fb,2022-06-29_09h08.33.823,Colour_Asymmetry_Pilot,2022.1.3,Win32,0.984538803,62bbe60bf3d75ef465d3e404,0,60,60,6,1,fourtwo,,,,,,,,,,,,,,,,,,,,,,,,,,,,,,,,,,,,,,,,,,,,,,,,,,,,,,,,,,,,,,,,,,,,,,,,,,,,,,,,,,,,,,,,,,,,,,,,,,,,,,,,,,,,,,,,,,,,,,,,,,,,,,,,,,,,,,,,,,,,,,,,,,,,,,,,
,,,,,,61652222bfd9351c91a6585a,62bbf9c11137abf440c0c5fb,2022-06-29_09h08.33.823,Colour_Asymmetry_Pilot,2022.1.3,Win32,0.984538803,62bbe60bf3d75ef465d3e404,0,61,61,98,1,twoone,,,,,,,,,,,,,,,,,,,,,,,,,,,,,,,,,,,,,,,,,,,,,,,,,,,,,,,,,,,,,,,,,,,,,,,,,,,,,,,,,,,,,,,,,,,,,,,,,,,,,,,,,,,,,,,,,,,,,,,,,,,,,,,,,,,,,,,,,,,,,,,,,,,,,,,,
,,,,,,61652222bfd9351c91a6585a,62bbf9c11137abf440c0c5fb,2022-06-29_09h08.33.823,Colour_Asymmetry_Pilot,2022.1.3,Win32,0.984538803,62bbe60bf3d75ef465d3e404,0,62,62,69,1,threefour,,,,,,,,,,,,,,,,,,,,,,,,,,,,,,,,,,,,,,,,,,,,,,,,,,,,,,,,,,,,,,,,,,,,,,,,,,,,,,,,,,,,,,,,,,,,,,,,,,,,,,,,,,,,,,,,,,,,,,,,,,,,,,,,,,,,,,,,,,,,,,,,,,,,,,,,
,,,,,,61652222bfd9351c91a6585a,62bbf9c11137abf440c0c5fb,2022-06-29_09h08.33.823,Colour_Asymmetry_Pilot,2022.1.3,Win32,0.984538803,62bbe60bf3d75ef465d3e404,0,63,63,133,1,threefour,,,,,,,,,,,,,,,,,,,,,,,,,,,,,,,,,,,,,,,,,,,,,,,,,,,,,,,,,,,,,,,,,,,,,,,,,,,,,,,,,,,,,,,,,,,,,,,,,,,,,,,,,,,,,,,,,,,,,,,,,,,,,,,,,,,,,,,,,,,,,,,,,,,,,,,,
,,,,,,61652222bfd9351c91a6585a,62bbf9c11137abf440c0c5fb,2022-06-29_09h08.33.823,Colour_Asymmetry_Pilot,2022.1.3,Win32,0.984538803,62bbe60bf3d75ef465d3e404,0,64,64,112,1,onetwo,,,,,,,,,,,,,,,,,,,,,,,,,,,,,,,,,,,,,,,,,,,,,,,,,,,,,,,,,,,,,,,,,,,,,,,,,,,,,,,,,,,,,,,,,,,,,,,,,,,,,,,,,,,,,,,,,,,,,,,,,,,,,,,,,,,,,,,,,,,,,,,,,,,,,,,,
,,,,,,61652222bfd9351c91a6585a,62bbf9c11137abf440c0c5fb,2022-06-29_09h08.33.823,Colour_Asymmetry_Pilot,2022.1.3,Win32,0.984538803,62bbe60bf3d75ef465d3e404,0,65,65,3,1,twofour,,,,,,,,,,,,,,,,,,,,,,,,,,,,,,,,,,,,,,,,,,,,,,,,,,,,,,,,,,,,,,,,,,,,,,,,,,,,,,,,,,,,,,,,,,,,,,,,,,,,,,,,,,,,,,,,,,,,,,,,,,,,,,,,,,,,,,,,,,,,,,,,,,,,,,,,
,,,,,,61652222bfd9351c91a6585a,62bbf9c11137abf440c0c5fb,2022-06-29_09h08.33.823,Colour_Asymmetry_Pilot,2022.1.3,Win32,0.984538803,62bbe60bf3d75ef465d3e404,0,66,66,96,1,onetwo,,,,,,,,,,,,,,,,,,,,,,,,,,,,,,,,,,,,,,,,,,,,,,,,,,,,,,,,,,,,,,,,,,,,,,,,,,,,,,,,,,,,,,,,,,,,,,,,,,,,,,,,,,,,,,,,,,,,,,,,,,,,,,,,,,,,,,,,,,,,,,,,,,,,,,,,
,,,,,,61652222bfd9351c91a6585a,62bbf9c11137abf440c0c5fb,2022-06-29_09h08.33.823,Colour_Asymmetry_Pilot,2022.1.3,Win32,0.984538803,62bbe60bf3d75ef465d3e404,0,67,67,8,1,onetwo,,,,,,,,,,,,,,,,,,,,,,,,,,,,,,,,,,,,,,,,,,,,,,,,,,,,,,,,,,,,,,,,,,,,,,,,,,,,,,,,,,,,,,,,,,,,,,,,,,,,,,,,,,,,,,,,,,,,,,,,,,,,,,,,,,,,,,,,,,,,,,,,,,,,,,,,
,,,,,,61652222bfd9351c91a6585a,62bbf9c11137abf440c0c5fb,2022-06-29_09h08.33.823,Colour_Asymmetry_Pilot,2022.1.3,Win32,0.984538803,62bbe60bf3d75ef465d3e404,0,68,68,138,1,twoone,,,,,,,,,,,,,,,,,,,,,,,,,,,,,,,,,,,,,,,,,,,,,,,,,,,,,,,,,,,,,,,,,,,,,,,,,,,,,,,,,,,,,,,,,,,,,,,,,,,,,,,,,,,,,,,,,,,,,,,,,,,,,,,,,,,,,,,,,,,,,,,,,,,,,,,,
,,,,,,61652222bfd9351c91a6585a,62bbf9c11137abf440c0c5fb,2022-06-29_09h08.33.823,Colour_Asymmetry_Pilot,2022.1.3,Win32,0.984538803,62bbe60bf3d75ef465d3e404,0,69,69,158,1,fourtwo,,,,,,,,,,,,,,,,,,,,,,,,,,,,,,,,,,,,,,,,,,,,,,,,,,,,,,,,,,,,,,,,,,,,,,,,,,,,,,,,,,,,,,,,,,,,,,,,,,,,,,,,,,,,,,,,,,,,,,,,,,,,,,,,,,,,,,,,,,,,,,,,,,,,,,,,
,,,,,,61652222bfd9351c91a6585a,62bbf9c11137abf440c0c5fb,2022-06-29_09h08.33.823,Colour_Asymmetry_Pilot,2022.1.3,Win32,0.984538803,62bbe60bf3d75ef465d3e404,0,70,70,51,1,twofour,,,,,,,,,,,,,,,,,,,,,,,,,,,,,,,,,,,,,,,,,,,,,,,,,,,,,,,,,,,,,,,,,,,,,,,,,,,,,,,,,,,,,,,,,,,,,,,,,,,,,,,,,,,,,,,,,,,,,,,,,,,,,,,,,,,,,,,,,,,,,,,,,,,,,,,,
,,,,,,61652222bfd9351c91a6585a,62bbf9c11137abf440c0c5fb,2022-06-29_09h08.33.823,Colour_Asymmetry_Pilot,2022.1.3,Win32,0.984538803,62bbe60bf3d75ef465d3e404,0,71,71,55,1,fourthree,,,,,,,,,,,,,,,,,,,,,,,,,,,,,,,,,,,,,,,,,,,,,,,,,,,,,,,,,,,,,,,,,,,,,,,,,,,,,,,,,,,,,,,,,,,,,,,,,,,,,,,,,,,,,,,,,,,,,,,,,,,,,,,,,,,,,,,,,,,,,,,,,,,,,,,,
,,,,,,61652222bfd9351c91a6585a,62bbf9c11137abf440c0c5fb,2022-06-29_09h08.33.823,Colour_Asymmetry_Pilot,2022.1.3,Win32,0.984538803,62bbe60bf3d75ef465d3e404,0,72,72,37,1,threefour,,,,,,,,,,,,,,,,,,,,,,,,,,,,,,,,,,,,,,,,,,,,,,,,,,,,,,,,,,,,,,,,,,,,,,,,,,,,,,,,,,,,,,,,,,,,,,,,,,,,,,,,,,,,,,,,,,,,,,,,,,,,,,,,,,,,,,,,,,,,,,,,,,,,,,,,
,,,,,,61652222bfd9351c91a6585a,62bbf9c11137abf440c0c5fb,2022-06-29_09h08.33.823,Colour_Asymmetry_Pilot,2022.1.3,Win32,0.984538803,62bbe60bf3d75ef465d3e404,0,73,73,93,1,threefour,,,,,,,,,,,,,,,,,,,,,,,,,,,,,,,,,,,,,,,,,,,,,,,,,,,,,,,,,,,,,,,,,,,,,,,,,,,,,,,,,,,,,,,,,,,,,,,,,,,,,,,,,,,,,,,,,,,,,,,,,,,,,,,,,,,,,,,,,,,,,,,,,,,,,,,,
,,,,,,61652222bfd9351c91a6585a,62bbf9c11137abf440c0c5fb,2022-06-29_09h08.33.823,Colour_Asymmetry_Pilot,2022.1.3,Win32,0.984538803,62bbe60bf3d75ef465d3e404,0,74,74,128,1,onetwo,,,,,,,,,,,,,,,,,,,,,,,,,,,,,,,,,,,,,,,,,,,,,,,,,,,,,,,,,,,,,,,,,,,,,,,,,,,,,,,,,,,,,,,,,,,,,,,,,,,,,,,,,,,,,,,,,,,,,,,,,,,,,,,,,,,,,,,,,,,,,,,,,,,,,,,,
,,,,,,61652222bfd9351c91a6585a,62bbf9c11137abf440c0c5fb,2022-06-29_09h08.33.823,Colour_Asymmetry_Pilot,2022.1.3,Win32,0.984538803,62bbe60bf3d75ef465d3e404,0,75,75,24,1,onetwo,,,,,,,,,,,,,,,,,,,,,,,,,,,,,,,,,,,,,,,,,,,,,,,,,,,,,,,,,,,,,,,,,,,,,,,,,,,,,,,,,,,,,,,,,,,,,,,,,,,,,,,,,,,,,,,,,,,,,,,,,,,,,,,,,,,,,,,,,,,,,,,,,,,,,,,,
,,,,,,61652222bfd9351c91a6585a,62bbf9c11137abf440c0c5fb,2022-06-29_09h08.33.823,Colour_Asymmetry_Pilot,2022.1.3,Win32,0.984538803,62bbe60bf3d75ef465d3e404,0,76,76,113,1,onethree,,,,,,,,,,,,,,,,,,,,,,,,,,,,,,,,,,,,,,,,,,,,,,,,,,,,,,,,,,,,,,,,,,,,,,,,,,,,,,,,,,,,,,,,,,,,,,,,,,,,,,,,,,,,,,,,,,,,,,,,,,,,,,,,,,,,,,,,,,,,,,,,,,,,,,,,
,,,,,,61652222bfd9351c91a6585a,62bbf9c11137abf440c0c5fb,2022-06-29_09h08.33.823,Colour_Asymmetry_Pilot,2022.1.3,Win32,0.984538803,62bbe60bf3d75ef465d3e404,0,77,77,57,1,onethree,,,,,,,,,,,,,,,,,,,,,,,,,,,,,,,,,,,,,,,,,,,,,,,,,,,,,,,,,,,,,,,,,,,,,,,,,,,,,,,,,,,,,,,,,,,,,,,,,,,,,,,,,,,,,,,,,,,,,,,,,,,,,,,,,,,,,,,,,,,,,,,,,,,,,,,,
,,,,,,61652222bfd9351c91a6585a,62bbf9c11137abf440c0c5fb,2022-06-29_09h08.33.823,Colour_Asymmetry_Pilot,2022.1.3,Win32,0.984538803,62bbe60bf3d75ef465d3e404,0,78,78,159,1,fourthree,,,,,,,,,,,,,,,,,,,,,,,,,,,,,,,,,,,,,,,,,,,,,,,,,,,,,,,,,,,,,,,,,,,,,,,,,,,,,,,,,,,,,,,,,,,,,,,,,,,,,,,,,,,,,,,,,,,,,,,,,,,,,,,,,,,,,,,,,,,,,,,,,,,,,,,,
,,,,,,61652222bfd9351c91a6585a,62bbf9c11137abf440c0c5fb,2022-06-29_09h08.33.823,Colour_Asymmetry_Pilot,2022.1.3,Win32,0.984538803,62bbe60bf3d75ef465d3e404,0,79,79,49,1,onethree,,,,,,,,,,,,,,,,,,,,,,,,,,,,,,,,,,,,,,,,,,,,,,,,,,,,,,,,,,,,,,,,,,,,,,,,,,,,,,,,,,,,,,,,,,,,,,,,,,,,,,,,,,,,,,,,,,,,,,,,,,,,,,,,,,,,,,,,,,,,,,,,,,,,,,,,
,,,,,,61652222bfd9351c91a6585a,62bbf9c11137abf440c0c5fb,2022-06-29_09h08.33.823,Colour_Asymmetry_Pilot,2022.1.3,Win32,0.984538803,62bbe60bf3d75ef465d3e404,0,80,80,13,1,threefour,,,,,,,,,,,,,,,,,,,,,,,,,,,,,,,,,,,,,,,,,,,,,,,,,,,,,,,,,,,,,,,,,,,,,,,,,,,,,,,,,,,,,,,,,,,,,,,,,,,,,,,,,,,,,,,,,,,,,,,,,,,,,,,,,,,,,,,,,,,,,,,,,,,,,,,,
,,,,,,61652222bfd9351c91a6585a,62bbf9c11137abf440c0c5fb,2022-06-29_09h08.33.823,Colour_Asymmetry_Pilot,2022.1.3,Win32,0.984538803,62bbe60bf3d75ef465d3e404,0,81,81,60,1,threeone,,,,,,,,,,,,,,,,,,,,,,,,,,,,,,,,,,,,,,,,,,,,,,,,,,,,,,,,,,,,,,,,,,,,,,,,,,,,,,,,,,,,,,,,,,,,,,,,,,,,,,,,,,,,,,,,,,,,,,,,,,,,,,,,,,,,,,,,,,,,,,,,,,,,,,,,
,,,,,,61652222bfd9351c91a6585a,62bbf9c11137abf440c0c5fb,2022-06-29_09h08.33.823,Colour_Asymmetry_Pilot,2022.1.3,Win32,0.984538803,62bbe60bf3d75ef465d3e404,0,82,82,122,1,twoone,,,,,,,,,,,,,,,,,,,,,,,,,,,,,,,,,,,,,,,,,,,,,,,,,,,,,,,,,,,,,,,,,,,,,,,,,,,,,,,,,,,,,,,,,,,,,,,,,,,,,,,,,,,,,,,,,,,,,,,,,,,,,,,,,,,,,,,,,,,,,,,,,,,,,,,,
,,,,,,61652222bfd9351c91a6585a,62bbf9c11137abf440c0c5fb,2022-06-29_09h08.33.823,Colour_Asymmetry_Pilot,2022.1.3,Win32,0.984538803,62bbe60bf3d75ef465d3e404,0,83,83,19,1,twofour,,,,,,,,,,,,,,,,,,,,,,,,,,,,,,,,,,,,,,,,,,,,,,,,,,,,,,,,,,,,,,,,,,,,,,,,,,,,,,,,,,,,,,,,,,,,,,,,,,,,,,,,,,,,,,,,,,,,,,,,,,,,,,,,,,,,,,,,,,,,,,,,,,,,,,,,
,,,,,,61652222bfd9351c91a6585a,62bbf9c11137abf440c0c5fb,2022-06-29_09h08.33.823,Colour_Asymmetry_Pilot,2022.1.3,Win32,0.984538803,62bbe60bf3d75ef465d3e404,0,84,84,72,1,onetwo,,,,,,,,,,,,,,,,,,,,,,,,,,,,,,,,,,,,,,,,,,,,,,,,,,,,,,,,,,,,,,,,,,,,,,,,,,,,,,,,,,,,,,,,,,,,,,,,,,,,,,,,,,,,,,,,,,,,,,,,,,,,,,,,,,,,,,,,,,,,,,,,,,,,,,,,
,,,,,,61652222bfd9351c91a6585a,62bbf9c11137abf440c0c5fb,2022-06-29_09h08.33.823,Colour_Asymmetry_Pilot,2022.1.3,Win32,0.984538803,62bbe60bf3d75ef465d3e404,0,85,85,155,1,twofour,,,,,,,,,,,,,,,,,,,,,,,,,,,,,,,,,,,,,,,,,,,,,,,,,,,,,,,,,,,,,,,,,,,,,,,,,,,,,,,,,,,,,,,,,,,,,,,,,,,,,,,,,,,,,,,,,,,,,,,,,,,,,,,,,,,,,,,,,,,,,,,,,,,,,,,,
,,,,,,61652222bfd9351c91a6585a,62bbf9c11137abf440c0c5fb,2022-06-29_09h08.33.823,Colour_Asymmetry_Pilot,2022.1.3,Win32,0.984538803,62bbe60bf3d75ef465d3e404,0,86,86,125,1,threefour,,,,,,,,,,,,,,,,,,,,,,,,,,,,,,,,,,,,,,,,,,,,,,,,,,,,,,,,,,,,,,,,,,,,,,,,,,,,,,,,,,,,,,,,,,,,,,,,,,,,,,,,,,,,,,,,,,,,,,,,,,,,,,,,,,,,,,,,,,,,,,,,,,,,,,,,
,,,,,,61652222bfd9351c91a6585a,62bbf9c11137abf440c0c5fb,2022-06-29_09h08.33.823,Colour_Asymmetry_Pilot,2022.1.3,Win32,0.984538803,62bbe60bf3d75ef465d3e404,0,87,87,134,1,fourtwo,,,,,,,,,,,,,,,,,,,,,,,,,,,,,,,,,,,,,,,,,,,,,,,,,,,,,,,,,,,,,,,,,,,,,,,,,,,,,,,,,,,,,,,,,,,,,,,,,,,,,,,,,,,,,,,,,,,,,,,,,,,,,,,,,,,,,,,,,,,,,,,,,,,,,,,,
,,,,,,61652222bfd9351c91a6585a,62bbf9c11137abf440c0c5fb,2022-06-29_09h08.33.823,Colour_Asymmetry_Pilot,2022.1.3,Win32,0.984538803,62bbe60bf3d75ef465d3e404,0,88,88,149,1,threefour,,,,,,,,,,,,,,,,,,,,,,,,,,,,,,,,,,,,,,,,,,,,,,,,,,,,,,,,,,,,,,,,,,,,,,,,,,,,,,,,,,,,,,,,,,,,,,,,,,,,,,,,,,,,,,,,,,,,,,,,,,,,,,,,,,,,,,,,,,,,,,,,,,,,,,,,
,,,,,,61652222bfd9351c91a6585a,62bbf9c11137abf440c0c5fb,2022-06-29_09h08.33.823,Colour_Asymmetry_Pilot,2022.1.3,Win32,0.984538803,62bbe60bf3d75ef465d3e404,0,89,89,67,1,twofour,,,,,,,,,,,,,,,,,,,,,,,,,,,,,,,,,,,,,,,,,,,,,,,,,,,,,,,,,,,,,,,,,,,,,,,,,,,,,,,,,,,,,,,,,,,,,,,,,,,,,,,,,,,,,,,,,,,,,,,,,,,,,,,,,,,,,,,,,,,,,,,,,,,,,,,,
,,,,,,61652222bfd9351c91a6585a,62bbf9c11137abf440c0c5fb,2022-06-29_09h08.33.823,Colour_Asymmetry_Pilot,2022.1.3,Win32,0.984538803,62bbe60bf3d75ef465d3e404,0,90,90,30,1,fourtwo,,,,,,,,,,,,,,,,,,,,,,,,,,,,,,,,,,,,,,,,,,,,,,,,,,,,,,,,,,,,,,,,,,,,,,,,,,,,,,,,,,,,,,,,,,,,,,,,,,,,,,,,,,,,,,,,,,,,,,,,,,,,,,,,,,,,,,,,,,,,,,,,,,,,,,,,
,,,,,,61652222bfd9351c91a6585a,62bbf9c11137abf440c0c5fb,2022-06-29_09h08.33.823,Colour_Asymmetry_Pilot,2022.1.3,Win32,0.984538803,62bbe60bf3d75ef465d3e404,0,91,91,25,1,onethree,,,,,,,,,,,,,,,,,,,,,,,,,,,,,,,,,,,,,,,,,,,,,,,,,,,,,,,,,,,,,,,,,,,,,,,,,,,,,,,,,,,,,,,,,,,,,,,,,,,,,,,,,,,,,,,,,,,,,,,,,,,,,,,,,,,,,,,,,,,,,,,,,,,,,,,,
,,,,,,61652222bfd9351c91a6585a,62bbf9c11137abf440c0c5fb,2022-06-29_09h08.33.823,Colour_Asymmetry_Pilot,2022.1.3,Win32,0.984538803,62bbe60bf3d75ef465d3e404,0,92,92,44,1,threeone,,,,,,,,,,,,,,,,,,,,,,,,,,,,,,,,,,,,,,,,,,,,,,,,,,,,,,,,,,,,,,,,,,,,,,,,,,,,,,,,,,,,,,,,,,,,,,,,,,,,,,,,,,,,,,,,,,,,,,,,,,,,,,,,,,,,,,,,,,,,,,,,,,,,,,,,
,,,,,,61652222bfd9351c91a6585a,62bbf9c11137abf440c0c5fb,2022-06-29_09h08.33.823,Colour_Asymmetry_Pilot,2022.1.3,Win32,0.984538803,62bbe60bf3d75ef465d3e404,0,93,93,97,1,onethree,,,,,,,,,,,,,,,,,,,,,,,,,,,,,,,,,,,,,,,,,,,,,,,,,,,,,,,,,,,,,,,,,,,,,,,,,,,,,,,,,,,,,,,,,,,,,,,,,,,,,,,,,,,,,,,,,,,,,,,,,,,,,,,,,,,,,,,,,,,,,,,,,,,,,,,,
,,,,,,61652222bfd9351c91a6585a,62bbf9c11137abf440c0c5fb,2022-06-29_09h08.33.823,Colour_Asymmetry_Pilot,2022.1.3,Win32,0.984538803,62bbe60bf3d75ef465d3e404,0,94,94,154,1,twoone,,,,,,,,,,,,,,,,,,,,,,,,,,,,,,,,,,,,,,,,,,,,,,,,,,,,,,,,,,,,,,,,,,,,,,,,,,,,,,,,,,,,,,,,,,,,,,,,,,,,,,,,,,,,,,,,,,,,,,,,,,,,,,,,,,,,,,,,,,,,,,,,,,,,,,,,
,,,,,,61652222bfd9351c91a6585a,62bbf9c11137abf440c0c5fb,2022-06-29_09h08.33.823,Colour_Asymmetry_Pilot,2022.1.3,Win32,0.984538803,62bbe60bf3d75ef465d3e404,0,95,95,140,1,threeone,,,,,,,,,,,,,,,,,,,,,,,,,,,,,,,,,,,,,,,,,,,,,,,,,,,,,,,,,,,,,,,,,,,,,,,,,,,,,,,,,,,,,,,,,,,,,,,,,,,,,,,,,,,,,,,,,,,,,,,,,,,,,,,,,,,,,,,,,,,,,,,,,,,,,,,,
,,,,,,61652222bfd9351c91a6585a,62bbf9c11137abf440c0c5fb,2022-06-29_09h08.33.823,Colour_Asymmetry_Pilot,2022.1.3,Win32,0.984538803,62bbe60bf3d75ef465d3e404,0,96,96,78,1,fourtwo,,,,,,,,,,,,,,,,,,,,,,,,,,,,,,,,,,,,,,,,,,,,,,,,,,,,,,,,,,,,,,,,,,,,,,,,,,,,,,,,,,,,,,,,,,,,,,,,,,,,,,,,,,,,,,,,,,,,,,,,,,,,,,,,,,,,,,,,,,,,,,,,,,,,,,,,
,,,,,,61652222bfd9351c91a6585a,62bbf9c11137abf440c0c5fb,2022-06-29_09h08.33.823,Colour_Asymmetry_Pilot,2022.1.3,Win32,0.984538803,62bbe60bf3d75ef465d3e404,0,97,97,22,1,fourtwo,,,,,,,,,,,,,,,,,,,,,,,,,,,,,,,,,,,,,,,,,,,,,,,,,,,,,,,,,,,,,,,,,,,,,,,,,,,,,,,,,,,,,,,,,,,,,,,,,,,,,,,,,,,,,,,,,,,,,,,,,,,,,,,,,,,,,,,,,,,,,,,,,,,,,,,,
,,,,,,61652222bfd9351c91a6585a,62bbf9c11137abf440c0c5fb,2022-06-29_09h08.33.823,Colour_Asymmetry_Pilot,2022.1.3,Win32,0.984538803,62bbe60bf3d75ef465d3e404,0,98,98,135,1,fourthree,,,,,,,,,,,,,,,,,,,,,,,,,,,,,,,,,,,,,,,,,,,,,,,,,,,,,,,,,,,,,,,,,,,,,,,,,,,,,,,,,,,,,,,,,,,,,,,,,,,,,,,,,,,,,,,,,,,,,,,,,,,,,,,,,,,,,,,,,,,,,,,,,,,,,,,,
,,,,,,61652222bfd9351c91a6585a,62bbf9c11137abf440c0c5fb,2022-06-29_09h08.33.823,Colour_Asymmetry_Pilot,2022.1.3,Win32,0.984538803,62bbe60bf3d75ef465d3e404,0,99,99,66,1,twoone,,,,,,,,,,,,,,,,,,,,,,,,,,,,,,,,,,,,,,,,,,,,,,,,,,,,,,,,,,,,,,,,,,,,,,,,,,,,,,,,,,,,,,,,,,,,,,,,,,,,,,,,,,,,,,,,,,,,,,,,,,,,,,,,,,,,,,,,,,,,,,,,,,,,,,,,
,,,,,,61652222bfd9351c91a6585a,62bbf9c11137abf440c0c5fb,2022-06-29_09h08.33.823,Colour_Asymmetry_Pilot,2022.1.3,Win32,0.984538803,62bbe60bf3d75ef465d3e404,0,100,100,10,1,twoone,,,,,,,,,,,,,,,,,,,,,,,,,,,,,,,,,,,,,,,,,,,,,,,,,,,,,,,,,,,,,,,,,,,,,,,,,,,,,,,,,,,,,,,,,,,,,,,,,,,,,,,,,,,,,,,,,,,,,,,,,,,,,,,,,,,,,,,,,,,,,,,,,,,,,,,,
,,,,,,61652222bfd9351c91a6585a,62bbf9c11137abf440c0c5fb,2022-06-29_09h08.33.823,Colour_Asymmetry_Pilot,2022.1.3,Win32,0.984538803,62bbe60bf3d75ef465d3e404,0,101,101,141,1,threefour,,,,,,,,,,,,,,,,,,,,,,,,,,,,,,,,,,,,,,,,,,,,,,,,,,,,,,,,,,,,,,,,,,,,,,,,,,,,,,,,,,,,,,,,,,,,,,,,,,,,,,,,,,,,,,,,,,,,,,,,,,,,,,,,,,,,,,,,,,,,,,,,,,,,,,,,
,,,,,,61652222bfd9351c91a6585a,62bbf9c11137abf440c0c5fb,2022-06-29_09h08.33.823,Colour_Asymmetry_Pilot,2022.1.3,Win32,0.984538803,62bbe60bf3d75ef465d3e404,0,102,102,161,1,onethree,,,,,,,,,,,,,,,,,,,,,,,,,,,,,,,,,,,,,,,,,,,,,,,,,,,,,,,,,,,,,,,,,,,,,,,,,,,,,,,,,,,,,,,,,,,,,,,,,,,,,,,,,,,,,,,,,,,,,,,,,,,,,,,,,,,,,,,,,,,,,,,,,,,,,,,,
,,,,,,61652222bfd9351c91a6585a,62bbf9c11137abf440c0c5fb,2022-06-29_09h08.33.823,Colour_Asymmetry_Pilot,2022.1.3,Win32,0.984538803,62bbe60bf3d75ef465d3e404,0,103,103,88,1,onetwo,,,,,,,,,,,,,,,,,,,,,,,,,,,,,,,,,,,,,,,,,,,,,,,,,,,,,,,,,,,,,,,,,,,,,,,,,,,,,,,,,,,,,,,,,,,,,,,,,,,,,,,,,,,,,,,,,,,,,,,,,,,,,,,,,,,,,,,,,,,,,,,,,,,,,,,,
,,,,,,61652222bfd9351c91a6585a,62bbf9c11137abf440c0c5fb,2022-06-29_09h08.33.823,Colour_Asymmetry_Pilot,2022.1.3,Win32,0.984538803,62bbe60bf3d75ef465d3e404,0,104,104,34,1,twoone,,,,,,,,,,,,,,,,,,,,,,,,,,,,,,,,,,,,,,,,,,,,,,,,,,,,,,,,,,,,,,,,,,,,,,,,,,,,,,,,,,,,,,,,,,,,,,,,,,,,,,,,,,,,,,,,,,,,,,,,,,,,,,,,,,,,,,,,,,,,,,,,,,,,,,,,
,,,,,,61652222bfd9351c91a6585a,62bbf9c11137abf440c0c5fb,2022-06-29_09h08.33.823,Colour_Asymmetry_Pilot,2022.1.3,Win32,0.984538803,62bbe60bf3d75ef465d3e404,0,105,105,85,1,threefour,,,,,,,,,,,,,,,,,,,,,,,,,,,,,,,,,,,,,,,,,,,,,,,,,,,,,,,,,,,,,,,,,,,,,,,,,,,,,,,,,,,,,,,,,,,,,,,,,,,,,,,,,,,,,,,,,,,,,,,,,,,,,,,,,,,,,,,,,,,,,,,,,,,,,,,,
,,,,,,61652222bfd9351c91a6585a,62bbf9c11137abf440c0c5fb,2022-06-29_09h08.33.823,Colour_Asymmetry_Pilot,2022.1.3,Win32,0.984538803,62bbe60bf3d75ef465d3e404,0,106,106,38,1,fourtwo,,,,,,,,,,,,,,,,,,,,,,,,,,,,,,,,,,,,,,,,,,,,,,,,,,,,,,,,,,,,,,,,,,,,,,,,,,,,,,,,,,,,,,,,,,,,,,,,,,,,,,,,,,,,,,,,,,,,,,,,,,,,,,,,,,,,,,,,,,,,,,,,,,,,,,,,
,,,,,,61652222bfd9351c91a6585a,62bbf9c11137abf440c0c5fb,2022-06-29_09h08.33.823,Colour_Asymmetry_Pilot,2022.1.3,Win32,0.984538803,62bbe60bf3d75ef465d3e404,0,107,107,123,1,twofour,,,,,,,,,,,,,,,,,,,,,,,,,,,,,,,,,,,,,,,,,,,,,,,,,,,,,,,,,,,,,,,,,,,,,,,,,,,,,,,,,,,,,,,,,,,,,,,,,,,,,,,,,,,,,,,,,,,,,,,,,,,,,,,,,,,,,,,,,,,,,,,,,,,,,,,,
,,,,,,61652222bfd9351c91a6585a,62bbf9c11137abf440c0c5fb,2022-06-29_09h08.33.823,Colour_Asymmetry_Pilot,2022.1.3,Win32,0.984538803,62bbe60bf3d75ef465d3e404,0,108,108,148,1,threeone,,,,,,,,,,,,,,,,,,,,,,,,,,,,,,,,,,,,,,,,,,,,,,,,,,,,,,,,,,,,,,,,,,,,,,,,,,,,,,,,,,,,,,,,,,,,,,,,,,,,,,,,,,,,,,,,,,,,,,,,,,,,,,,,,,,,,,,,,,,,,,,,,,,,,,,,
,,,,,,61652222bfd9351c91a6585a,62bbf9c11137abf440c0c5fb,2022-06-29_09h08.33.823,Colour_Asymmetry_Pilot,2022.1.3,Win32,0.984538803,62bbe60bf3d75ef465d3e404,0,109,109,18,1,twoone,,,,,,,,,,,,,,,,,,,,,,,,,,,,,,,,,,,,,,,,,,,,,,,,,,,,,,,,,,,,,,,,,,,,,,,,,,,,,,,,,,,,,,,,,,,,,,,,,,,,,,,,,,,,,,,,,,,,,,,,,,,,,,,,,,,,,,,,,,,,,,,,,,,,,,,,
,,,,,,61652222bfd9351c91a6585a,62bbf9c11137abf440c0c5fb,2022-06-29_09h08.33.823,Colour_Asymmetry_Pilot,2022.1.3,Win32,0.984538803,62bbe60bf3d75ef465d3e404,0,110,110,126,1,fourtwo,,,,,,,,,,,,,,,,,,,,,,,,,,,,,,,,,,,,,,,,,,,,,,,,,,,,,,,,,,,,,,,,,,,,,,,,,,,,,,,,,,,,,,,,,,,,,,,,,,,,,,,,,,,,,,,,,,,,,,,,,,,,,,,,,,,,,,,,,,,,,,,,,,,,,,,,
,,,,,,61652222bfd9351c91a6585a,62bbf9c11137abf440c0c5fb,2022-06-29_09h08.33.823,Colour_Asymmetry_Pilot,2022.1.3,Win32,0.984538803,62bbe60bf3d75ef465d3e404,0,111,111,114,1,twoone,,,,,,,,,,,,,,,,,,,,,,,,,,,,,,,,,,,,,,,,,,,,,,,,,,,,,,,,,,,,,,,,,,,,,,,,,,,,,,,,,,,,,,,,,,,,,,,,,,,,,,,,,,,,,,,,,,,,,,,,,,,,,,,,,,,,,,,,,,,,,,,,,,,,,,,,
,,,,,,61652222bfd9351c91a6585a,62bbf9c11137abf440c0c5fb,2022-06-29_09h08.33.823,Colour_Asymmetry_Pilot,2022.1.3,Win32,0.984538803,62bbe60bf3d75ef465d3e404,0,112,112,110,1,fourtwo,,,,,,,,,,,,,,,,,,,,,,,,,,,,,,,,,,,,,,,,,,,,,,,,,,,,,,,,,,,,,,,,,,,,,,,,,,,,,,,,,,,,,,,,,,,,,,,,,,,,,,,,,,,,,,,,,,,,,,,,,,,,,,,,,,,,,,,,,,,,,,,,,,,,,,,,
,,,,,,61652222bfd9351c91a6585a,62bbf9c11137abf440c0c5fb,2022-06-29_09h08.33.823,Colour_Asymmetry_Pilot,2022.1.3,Win32,0.984538803,62bbe60bf3d75ef465d3e404,0,113,113,131,1,twofour,,,,,,,,,,,,,,,,,,,,,,,,,,,,,,,,,,,,,,,,,,,,,,,,,,,,,,,,,,,,,,,,,,,,,,,,,,,,,,,,,,,,,,,,,,,,,,,,,,,,,,,,,,,,,,,,,,,,,,,,,,,,,,,,,,,,,,,,,,,,,,,,,,,,,,,,
,,,,,,61652222bfd9351c91a6585a,62bbf9c11137abf440c0c5fb,2022-06-29_09h08.33.823,Colour_Asymmetry_Pilot,2022.1.3,Win32,0.984538803,62bbe60bf3d75ef465d3e404,0,114,114,95,1,fourthree,,,,,,,,,,,,,,,,,,,,,,,,,,,,,,,,,,,,,,,,,,,,,,,,,,,,,,,,,,,,,,,,,,,,,,,,,,,,,,,,,,,,,,,,,,,,,,,,,,,,,,,,,,,,,,,,,,,,,,,,,,,,,,,,,,,,,,,,,,,,,,,,,,,,,,,,
,,,,,,61652222bfd9351c91a6585a,62bbf9c11137abf440c0c5fb,2022-06-29_09h08.33.823,Colour_Asymmetry_Pilot,2022.1.3,Win32,0.984538803,62bbe60bf3d75ef465d3e404,0,115,115,92,1,threeone,,,,,,,,,,,,,,,,,,,,,,,,,,,,,,,,,,,,,,,,,,,,,,,,,,,,,,,,,,,,,,,,,,,,,,,,,,,,,,,,,,,,,,,,,,,,,,,,,,,,,,,,,,,,,,,,,,,,,,,,,,,,,,,,,,,,,,,,,,,,,,,,,,,,,,,,
,,,,,,61652222bfd9351c91a6585a,62bbf9c11137abf440c0c5fb,2022-06-29_09h08.33.823,Colour_Asymmetry_Pilot,2022.1.3,Win32,0.984538803,62bbe60bf3d75ef465d3e404,0,116,116,151,1,fourthree,,,,,,,,,,,,,,,,,,,,,,,,,,,,,,,,,,,,,,,,,,,,,,,,,,,,,,,,,,,,,,,,,,,,,,,,,,,,,,,,,,,,,,,,,,,,,,,,,,,,,,,,,,,,,,,,,,,,,,,,,,,,,,,,,,,,,,,,,,,,,,,,,,,,,,,,
,,,,,,61652222bfd9351c91a6585a,62bbf9c11137abf440c0c5fb,2022-06-29_09h08.33.823,Colour_Asymmetry_Pilot,2022.1.3,Win32,0.984538803,62bbe60bf3d75ef465d3e404,0,117,117,137,1,onethree,,,,,,,,,,,,,,,,,,,,,,,,,,,,,,,,,,,,,,,,,,,,,,,,,,,,,,,,,,,,,,,,,,,,,,,,,,,,,,,,,,,,,,,,,,,,,,,,,,,,,,,,,,,,,,,,,,,,,,,,,,,,,,,,,,,,,,,,,,,,,,,,,,,,,,,,
,,,,,,61652222bfd9351c91a6585a,62bbf9c11137abf440c0c5fb,2022-06-29_09h08.33.823,Colour_Asymmetry_Pilot,2022.1.3,Win32,0.984538803,62bbe60bf3d75ef465d3e404,0,118,118,132,1,threeone,,,,,,,,,,,,,,,,,,,,,,,,,,,,,,,,,,,,,,,,,,,,,,,,,,,,,,,,,,,,,,,,,,,,,,,,,,,,,,,,,,,,,,,,,,,,,,,,,,,,,,,,,,,,,,,,,,,,,,,,,,,,,,,,,,,,,,,,,,,,,,,,,,,,,,,,
,,,,,,61652222bfd9351c91a6585a,62bbf9c11137abf440c0c5fb,2022-06-29_09h08.33.823,Colour_Asymmetry_Pilot,2022.1.3,Win32,0.984538803,62bbe60bf3d75ef465d3e404,0,119,119,75,1,twofour,,,,,,,,,,,,,,,,,,,,,,,,,,,,,,,,,,,,,,,,,,,,,,,,,,,,,,,,,,,,,,,,,,,,,,,,,,,,,,,,,,,,,,,,,,,,,,,,,,,,,,,,,,,,,,,,,,,,,,,,,,,,,,,,,,,,,,,,,,,,,,,,,,,,,,,,
,,,,,,61652222bfd9351c91a6585a,62bbf9c11137abf440c0c5fb,2022-06-29_09h08.33.823,Colour_Asymmetry_Pilot,2022.1.3,Win32,0.984538803,62bbe60bf3d75ef465d3e404,0,120,120,5,1,threefour,,,,,,,,,,,,,,,,,,,,,,,,,,,,,,,,,,,,,,,,,,,,,,,,,,,,,,,,,,,,,,,,,,,,,,,,,,,,,,,,,,,,,,,,,,,,,,,,,,,,,,,,,,,,,,,,,,,,,,,,,,,,,,,,,,,,,,,,,,,,,,,,,,,,,,,,
,,,,,,61652222bfd9351c91a6585a,62bbf9c11137abf440c0c5fb,2022-06-29_09h08.33.823,Colour_Asymmetry_Pilot,2022.1.3,Win32,0.984538803,62bbe60bf3d75ef465d3e404,0,121,121,105,1,onethree,,,,,,,,,,,,,,,,,,,,,,,,,,,,,,,,,,,,,,,,,,,,,,,,,,,,,,,,,,,,,,,,,,,,,,,,,,,,,,,,,,,,,,,,,,,,,,,,,,,,,,,,,,,,,,,,,,,,,,,,,,,,,,,,,,,,,,,,,,,,,,,,,,,,,,,,
,,,,,,61652222bfd9351c91a6585a,62bbf9c11137abf440c0c5fb,2022-06-29_09h08.33.823,Colour_Asymmetry_Pilot,2022.1.3,Win32,0.984538803,62bbe60bf3d75ef465d3e404,0,122,122,101,1,threefour,,,,,,,,,,,,,,,,,,,,,,,,,,,,,,,,,,,,,,,,,,,,,,,,,,,,,,,,,,,,,,,,,,,,,,,,,,,,,,,,,,,,,,,,,,,,,,,,,,,,,,,,,,,,,,,,,,,,,,,,,,,,,,,,,,,,,,,,,,,,,,,,,,,,,,,,
,,,,,,61652222bfd9351c91a6585a,62bbf9c11137abf440c0c5fb,2022-06-29_09h08.33.823,Colour_Asymmetry_Pilot,2022.1.3,Win32,0.984538803,62bbe60bf3d75ef465d3e404,0,123,123,106,1,twoone,,,,,,,,,,,,,,,,,,,,,,,,,,,,,,,,,,,,,,,,,,,,,,,,,,,,,,,,,,,,,,,,,,,,,,,,,,,,,,,,,,,,,,,,,,,,,,,,,,,,,,,,,,,,,,,,,,,,,,,,,,,,,,,,,,,,,,,,,,,,,,,,,,,,,,,,
,,,,,,61652222bfd9351c91a6585a,62bbf9c11137abf440c0c5fb,2022-06-29_09h08.33.823,Colour_Asymmetry_Pilot,2022.1.3,Win32,0.984538803,62bbe60bf3d75ef465d3e404,0,124,124,77,1,threefour,,,,,,,,,,,,,,,,,,,,,,,,,,,,,,,,,,,,,,,,,,,,,,,,,,,,,,,,,,,,,,,,,,,,,,,,,,,,,,,,,,,,,,,,,,,,,,,,,,,,,,,,,,,,,,,,,,,,,,,,,,,,,,,,,,,,,,,,,,,,,,,,,,,,,,,,
,,,,,,61652222bfd9351c91a6585a,62bbf9c11137abf440c0c5fb,2022-06-29_09h08.33.823,Colour_Asymmetry_Pilot,2022.1.3,Win32,0.984538803,62bbe60bf3d75ef465d3e404,0,125,125,86,1,fourtwo,,,,,,,,,,,,,,,,,,,,,,,,,,,,,,,,,,,,,,,,,,,,,,,,,,,,,,,,,,,,,,,,,,,,,,,,,,,,,,,,,,,,,,,,,,,,,,,,,,,,,,,,,,,,,,,,,,,,,,,,,,,,,,,,,,,,,,,,,,,,,,,,,,,,,,,,
,,,,,,61652222bfd9351c91a6585a,62bbf9c11137abf440c0c5fb,2022-06-29_09h08.33.823,Colour_Asymmetry_Pilot,2022.1.3,Win32,0.984538803,62bbe60bf3d75ef465d3e404,0,126,126,160,1,onetwo,,,,,,,,,,,,,,,,,,,,,,,,,,,,,,,,,,,,,,,,,,,,,,,,,,,,,,,,,,,,,,,,,,,,,,,,,,,,,,,,,,,,,,,,,,,,,,,,,,,,,,,,,,,,,,,,,,,,,,,,,,,,,,,,,,,,,,,,,,,,,,,,,,,,,,,,
,,,,,,61652222bfd9351c91a6585a,62bbf9c11137abf440c0c5fb,2022-06-29_09h08.33.823,Colour_Asymmetry_Pilot,2022.1.3,Win32,0.984538803,62bbe60bf3d75ef465d3e404,0,127,127,53,1,threefour,,,,,,,,,,,,,,,,,,,,,,,,,,,,,,,,,,,,,,,,,,,,,,,,,,,,,,,,,,,,,,,,,,,,,,,,,,,,,,,,,,,,,,,,,,,,,,,,,,,,,,,,,,,,,,,,,,,,,,,,,,,,,,,,,,,,,,,,,,,,,,,,,,,,,,,,
,,,,,,61652222bfd9351c91a6585a,62bbf9c11137abf440c0c5fb,2022-06-29_09h08.33.823,Colour_Asymmetry_Pilot,2022.1.3,Win32,0.984538803,62bbe60bf3d75ef465d3e404,0,128,128,115,1,twofour,,,,,,,,,,,,,,,,,,,,,,,,,,,,,,,,,,,,,,,,,,,,,,,,,,,,,,,,,,,,,,,,,,,,,,,,,,,,,,,,,,,,,,,,,,,,,,,,,,,,,,,,,,,,,,,,,,,,,,,,,,,,,,,,,,,,,,,,,,,,,,,,,,,,,,,,
,,,,,,61652222bfd9351c91a6585a,62bbf9c11137abf440c0c5fb,2022-06-29_09h08.33.823,Colour_Asymmetry_Pilot,2022.1.3,Win32,0.984538803,62bbe60bf3d75ef465d3e404,0,129,129,82,1,twoone,,,,,,,,,,,,,,,,,,,,,,,,,,,,,,,,,,,,,,,,,,,,,,,,,,,,,,,,,,,,,,,,,,,,,,,,,,,,,,,,,,,,,,,,,,,,,,,,,,,,,,,,,,,,,,,,,,,,,,,,,,,,,,,,,,,,,,,,,,,,,,,,,,,,,,,,
,,,,,,61652222bfd9351c91a6585a,62bbf9c11137abf440c0c5fb,2022-06-29_09h08.33.823,Colour_Asymmetry_Pilot,2022.1.3,Win32,0.984538803,62bbe60bf3d75ef465d3e404,0,130,130,4,1,threeone,,,,,,,,,,,,,,,,,,,,,,,,,,,,,,,,,,,,,,,,,,,,,,,,,,,,,,,,,,,,,,,,,,,,,,,,,,,,,,,,,,,,,,,,,,,,,,,,,,,,,,,,,,,,,,,,,,,,,,,,,,,,,,,,,,,,,,,,,,,,,,,,,,,,,,,,
,,,,,,61652222bfd9351c91a6585a,62bbf9c11137abf440c0c5fb,2022-06-29_09h08.33.823,Colour_Asymmetry_Pilot,2022.1.3,Win32,0.984538803,62bbe60bf3d75ef465d3e404,0,131,131,91,1,twofour,,,,,,,,,,,,,,,,,,,,,,,,,,,,,,,,,,,,,,,,,,,,,,,,,,,,,,,,,,,,,,,,,,,,,,,,,,,,,,,,,,,,,,,,,,,,,,,,,,,,,,,,,,,,,,,,,,,,,,,,,,,,,,,,,,,,,,,,,,,,,,,,,,,,,,,,
,,,,,,61652222bfd9351c91a6585a,62bbf9c11137abf440c0c5fb,2022-06-29_09h08.33.823,Colour_Asymmetry_Pilot,2022.1.3,Win32,0.984538803,62bbe60bf3d75ef465d3e404,0,132,132,2,1,twoone,,,,,,,,,,,,,,,,,,,,,,,,,,,,,,,,,,,,,,,,,,,,,,,,,,,,,,,,,,,,,,,,,,,,,,,,,,,,,,,,,,,,,,,,,,,,,,,,,,,,,,,,,,,,,,,,,,,,,,,,,,,,,,,,,,,,,,,,,,,,,,,,,,,,,,,,
,,,,,,61652222bfd9351c91a6585a,62bbf9c11137abf440c0c5fb,2022-06-29_09h08.33.823,Colour_Asymmetry_Pilot,2022.1.3,Win32,0.984538803,62bbe60bf3d75ef465d3e404,0,133,133,89,1,onethree,,,,,,,,,,,,,,,,,,,,,,,,,,,,,,,,,,,,,,,,,,,,,,,,,,,,,,,,,,,,,,,,,,,,,,,,,,,,,,,,,,,,,,,,,,,,,,,,,,,,,,,,,,,,,,,,,,,,,,,,,,,,,,,,,,,,,,,,,,,,,,,,,,,,,,,,
,,,,,,61652222bfd9351c91a6585a,62bbf9c11137abf440c0c5fb,2022-06-29_09h08.33.823,Colour_Asymmetry_Pilot,2022.1.3,Win32,0.984538803,62bbe60bf3d75ef465d3e404,0,134,134,99,1,twofour,,,,,,,,,,,,,,,,,,,,,,,,,,,,,,,,,,,,,,,,,,,,,,,,,,,,,,,,,,,,,,,,,,,,,,,,,,,,,,,,,,,,,,,,,,,,,,,,,,,,,,,,,,,,,,,,,,,,,,,,,,,,,,,,,,,,,,,,,,,,,,,,,,,,,,,,
,,,,,,61652222bfd9351c91a6585a,62bbf9c11137abf440c0c5fb,2022-06-29_09h08.33.823,Colour_Asymmetry_Pilot,2022.1.3,Win32,0.984538803,62bbe60bf3d75ef465d3e404,0,135,135,152,1,onetwo,,,,,,,,,,,,,,,,,,,,,,,,,,,,,,,,,,,,,,,,,,,,,,,,,,,,,,,,,,,,,,,,,,,,,,,,,,,,,,,,,,,,,,,,,,,,,,,,,,,,,,,,,,,,,,,,,,,,,,,,,,,,,,,,,,,,,,,,,,,,,,,,,,,,,,,,
,,,,,,61652222bfd9351c91a6585a,62bbf9c11137abf440c0c5fb,2022-06-29_09h08.33.823,Colour_Asymmetry_Pilot,2022.1.3,Win32,0.984538803,62bbe60bf3d75ef465d3e404,0,136,136,12,1,threeone,,,,,,,,,,,,,,,,,,,,,,,,,,,,,,,,,,,,,,,,,,,,,,,,,,,,,,,,,,,,,,,,,,,,,,,,,,,,,,,,,,,,,,,,,,,,,,,,,,,,,,,,,,,,,,,,,,,,,,,,,,,,,,,,,,,,,,,,,,,,,,,,,,,,,,,,
,,,,,,61652222bfd9351c91a6585a,62bbf9c11137abf440c0c5fb,2022-06-29_09h08.33.823,Colour_Asymmetry_Pilot,2022.1.3,Win32,0.984538803,62bbe60bf3d75ef465d3e404,0,137,137,26,1,twoone,,,,,,,,,,,,,,,,,,,,,,,,,,,,,,,,,,,,,,,,,,,,,,,,,,,,,,,,,,,,,,,,,,,,,,,,,,,,,,,,,,,,,,,,,,,,,,,,,,,,,,,,,,,,,,,,,,,,,,,,,,,,,,,,,,,,,,,,,,,,,,,,,,,,,,,,
,,,,,,61652222bfd9351c91a6585a,62bbf9c11137abf440c0c5fb,2022-06-29_09h08.33.823,Colour_Asymmetry_Pilot,2022.1.3,Win32,0.984538803,62bbe60bf3d75ef465d3e404,0,138,138,28,1,threeone,,,,,,,,,,,,,,,,,,,,,,,,,,,,,,,,,,,,,,,,,,,,,,,,,,,,,,,,,,,,,,,,,,,,,,,,,,,,,,,,,,,,,,,,,,,,,,,,,,,,,,,,,,,,,,,,,,,,,,,,,,,,,,,,,,,,,,,,,,,,,,,,,,,,,,,,
,,,,,,61652222bfd9351c91a6585a,62bbf9c11137abf440c0c5fb,2022-06-29_09h08.33.823,Colour_Asymmetry_Pilot,2022.1.3,Win32,0.984538803,62bbe60bf3d75ef465d3e404,0,139,139,76,1,threeone,,,,,,,,,,,,,,,,,,,,,,,,,,,,,,,,,,,,,,,,,,,,,,,,,,,,,,,,,,,,,,,,,,,,,,,,,,,,,,,,,,,,,,,,,,,,,,,,,,,,,,,,,,,,,,,,,,,,,,,,,,,,,,,,,,,,,,,,,,,,,,,,,,,,,,,,
,,,,,,61652222bfd9351c91a6585a,62bbf9c11137abf440c0c5fb,2022-06-29_09h08.33.823,Colour_Asymmetry_Pilot,2022.1.3,Win32,0.984538803,62bbe60bf3d75ef465d3e404,0,140,140,40,1,onetwo,,,,,,,,,,,,,,,,,,,,,,,,,,,,,,,,,,,,,,,,,,,,,,,,,,,,,,,,,,,,,,,,,,,,,,,,,,,,,,,,,,,,,,,,,,,,,,,,,,,,,,,,,,,,,,,,,,,,,,,,,,,,,,,,,,,,,,,,,,,,,,,,,,,,,,,,
,,,,,,61652222bfd9351c91a6585a,62bbf9c11137abf440c0c5fb,2022-06-29_09h08.33.823,Colour_Asymmetry_Pilot,2022.1.3,Win32,0.984538803,62bbe60bf3d75ef465d3e404,0,141,141,79,1,fourthree,,,,,,,,,,,,,,,,,,,,,,,,,,,,,,,,,,,,,,,,,,,,,,,,,,,,,,,,,,,,,,,,,,,,,,,,,,,,,,,,,,,,,,,,,,,,,,,,,,,,,,,,,,,,,,,,,,,,,,,,,,,,,,,,,,,,,,,,,,,,,,,,,,,,,,,,
,,,,,,61652222bfd9351c91a6585a,62bbf9c11137abf440c0c5fb,2022-06-29_09h08.33.823,Colour_Asymmetry_Pilot,2022.1.3,Win32,0.984538803,62bbe60bf3d75ef465d3e404,0,142,142,46,1,fourtwo,,,,,,,,,,,,,,,,,,,,,,,,,,,,,,,,,,,,,,,,,,,,,,,,,,,,,,,,,,,,,,,,,,,,,,,,,,,,,,,,,,,,,,,,,,,,,,,,,,,,,,,,,,,,,,,,,,,,,,,,,,,,,,,,,,,,,,,,,,,,,,,,,,,,,,,,
,,,,,,61652222bfd9351c91a6585a,62bbf9c11137abf440c0c5fb,2022-06-29_09h08.33.823,Colour_Asymmetry_Pilot,2022.1.3,Win32,0.984538803,62bbe60bf3d75ef465d3e404,0,143,143,1,1,onethree,,,,,,,,,,,,,,,,,,,,,,,,,,,,,,,,,,,,,,,,,,,,,,,,,,,,,,,,,,,,,,,,,,,,,,,,,,,,,,,,,,,,,,,,,,,,,,,,,,,,,,,,,,,,,,,,,,,,,,,,,,,,,,,,,,,,,,,,,,,,,,,,,,,,,,,,
,,,,,,61652222bfd9351c91a6585a,62bbf9c11137abf440c0c5fb,2022-06-29_09h08.33.823,Colour_Asymmetry_Pilot,2022.1.3,Win32,0.984538803,62bbe60bf3d75ef465d3e404,0,144,144,94,1,fourtwo,,,,,,,,,,,,,,,,,,,,,,,,,,,,,,,,,,,,,,,,,,,,,,,,,,,,,,,,,,,,,,,,,,,,,,,,,,,,,,,,,,,,,,,,,,,,,,,,,,,,,,,,,,,,,,,,,,,,,,,,,,,,,,,,,,,,,,,,,,,,,,,,,,,,,,,,
,,,,,,61652222bfd9351c91a6585a,62bbf9c11137abf440c0c5fb,2022-06-29_09h08.33.823,Colour_Asymmetry_Pilot,2022.1.3,Win32,0.984538803,62bbe60bf3d75ef465d3e404,0,145,145,54,1,fourtwo,,,,,,,,,,,,,,,,,,,,,,,,,,,,,,,,,,,,,,,,,,,,,,,,,,,,,,,,,,,,,,,,,,,,,,,,,,,,,,,,,,,,,,,,,,,,,,,,,,,,,,,,,,,,,,,,,,,,,,,,,,,,,,,,,,,,,,,,,,,,,,,,,,,,,,,,
,,,,,,61652222bfd9351c91a6585a,62bbf9c11137abf440c0c5fb,2022-06-29_09h08.33.823,Colour_Asymmetry_Pilot,2022.1.3,Win32,0.984538803,62bbe60bf3d75ef465d3e404,0,146,146,156,1,threeone,,,,,,,,,,,,,,,,,,,,,,,,,,,,,,,,,,,,,,,,,,,,,,,,,,,,,,,,,,,,,,,,,,,,,,,,,,,,,,,,,,,,,,,,,,,,,,,,,,,,,,,,,,,,,,,,,,,,,,,,,,,,,,,,,,,,,,,,,,,,,,,,,,,,,,,,
,,,,,,61652222bfd9351c91a6585a,62bbf9c11137abf440c0c5fb,2022-06-29_09h08.33.823,Colour_Asymmetry_Pilot,2022.1.3,Win32,0.984538803,62bbe60bf3d75ef465d3e404,0,147,147,20,1,threeone,,,,,,,,,,,,,,,,,,,,,,,,,,,,,,,,,,,,,,,,,,,,,,,,,,,,,,,,,,,,,,,,,,,,,,,,,,,,,,,,,,,,,,,,,,,,,,,,,,,,,,,,,,,,,,,,,,,,,,,,,,,,,,,,,,,,,,,,,,,,,,,,,,,,,,,,
,,,,,,61652222bfd9351c91a6585a,62bbf9c11137abf440c0c5fb,2022-06-29_09h08.33.823,Colour_Asymmetry_Pilot,2022.1.3,Win32,0.984538803,62bbe60bf3d75ef465d3e404,0,148,148,32,1,onetwo,,,,,,,,,,,,,,,,,,,,,,,,,,,,,,,,,,,,,,,,,,,,,,,,,,,,,,,,,,,,,,,,,,,,,,,,,,,,,,,,,,,,,,,,,,,,,,,,,,,,,,,,,,,,,,,,,,,,,,,,,,,,,,,,,,,,,,,,,,,,,,,,,,,,,,,,
,,,,,,61652222bfd9351c91a6585a,62bbf9c11137abf440c0c5fb,2022-06-29_09h08.33.823,Colour_Asymmetry_Pilot,2022.1.3,Win32,0.984538803,62bbe60bf3d75ef465d3e404,0,149,149,65,1,onethree,,,,,,,,,,,,,,,,,,,,,,,,,,,,,,,,,,,,,,,,,,,,,,,,,,,,,,,,,,,,,,,,,,,,,,,,,,,,,,,,,,,,,,,,,,,,,,,,,,,,,,,,,,,,,,,,,,,,,,,,,,,,,,,,,,,,,,,,,,,,,,,,,,,,,,,,
,,,,,,61652222bfd9351c91a6585a,62bbf9c11137abf440c0c5fb,2022-06-29_09h08.33.823,Colour_Asymmetry_Pilot,2022.1.3,Win32,0.984538803,62bbe60bf3d75ef465d3e404,0,150,150,146,1,twoone,,,,,,,,,,,,,,,,,,,,,,,,,,,,,,,,,,,,,,,,,,,,,,,,,,,,,,,,,,,,,,,,,,,,,,,,,,,,,,,,,,,,,,,,,,,,,,,,,,,,,,,,,,,,,,,,,,,,,,,,,,,,,,,,,,,,,,,,,,,,,,,,,,,,,,,,
,,,,,,61652222bfd9351c91a6585a,62bbf9c11137abf440c0c5fb,2022-06-29_09h08.33.823,Colour_Asymmetry_Pilot,2022.1.3,Win32,0.984538803,62bbe60bf3d75ef465d3e404,0,151,151,42,1,twoone,,,,,,,,,,,,,,,,,,,,,,,,,,,,,,,,,,,,,,,,,,,,,,,,,,,,,,,,,,,,,,,,,,,,,,,,,,,,,,,,,,,,,,,,,,,,,,,,,,,,,,,,,,,,,,,,,,,,,,,,,,,,,,,,,,,,,,,,,,,,,,,,,,,,,,,,
,,,,,,61652222bfd9351c91a6585a,62bbf9c11137abf440c0c5fb,2022-06-29_09h08.33.823,Colour_Asymmetry_Pilot,2022.1.3,Win32,0.984538803,62bbe60bf3d75ef465d3e404,0,152,152,39,1,fourthree,,,,,,,,,,,,,,,,,,,,,,,,,,,,,,,,,,,,,,,,,,,,,,,,,,,,,,,,,,,,,,,,,,,,,,,,,,,,,,,,,,,,,,,,,,,,,,,,,,,,,,,,,,,,,,,,,,,,,,,,,,,,,,,,,,,,,,,,,,,,,,,,,,,,,,,,
,,,,,,61652222bfd9351c91a6585a,62bbf9c11137abf440c0c5fb,2022-06-29_09h08.33.823,Colour_Asymmetry_Pilot,2022.1.3,Win32,0.984538803,62bbe60bf3d75ef465d3e404,0,153,153,47,1,fourthree,,,,,,,,,,,,,,,,,,,,,,,,,,,,,,,,,,,,,,,,,,,,,,,,,,,,,,,,,,,,,,,,,,,,,,,,,,,,,,,,,,,,,,,,,,,,,,,,,,,,,,,,,,,,,,,,,,,,,,,,,,,,,,,,,,,,,,,,,,,,,,,,,,,,,,,,
,,,,,,61652222bfd9351c91a6585a,62bbf9c11137abf440c0c5fb,2022-06-29_09h08.33.823,Colour_Asymmetry_Pilot,2022.1.3,Win32,0.984538803,62bbe60bf3d75ef465d3e404,0,154,154,147,1,twofour,,,,,,,,,,,,,,,,,,,,,,,,,,,,,,,,,,,,,,,,,,,,,,,,,,,,,,,,,,,,,,,,,,,,,,,,,,,,,,,,,,,,,,,,,,,,,,,,,,,,,,,,,,,,,,,,,,,,,,,,,,,,,,,,,,,,,,,,,,,,,,,,,,,,,,,,
,,,,,,61652222bfd9351c91a6585a,62bbf9c11137abf440c0c5fb,2022-06-29_09h08.33.823,Colour_Asymmetry_Pilot,2022.1.3,Win32,0.984538803,62bbe60bf3d75ef465d3e404,0,155,155,36,1,threeone,,,,,,,,,,,,,,,,,,,,,,,,,,,,,,,,,,,,,,,,,,,,,,,,,,,,,,,,,,,,,,,,,,,,,,,,,,,,,,,,,,,,,,,,,,,,,,,,,,,,,,,,,,,,,,,,,,,,,,,,,,,,,,,,,,,,,,,,,,,,,,,,,,,,,,,,
,,,,,,61652222bfd9351c91a6585a,62bbf9c11137abf440c0c5fb,2022-06-29_09h08.33.823,Colour_Asymmetry_Pilot,2022.1.3,Win32,0.984538803,62bbe60bf3d75ef465d3e404,0,156,156,58,1,twoone,,,,,,,,,,,,,,,,,,,,,,,,,,,,,,,,,,,,,,,,,,,,,,,,,,,,,,,,,,,,,,,,,,,,,,,,,,,,,,,,,,,,,,,,,,,,,,,,,,,,,,,,,,,,,,,,,,,,,,,,,,,,,,,,,,,,,,,,,,,,,,,,,,,,,,,,
,,,,,,61652222bfd9351c91a6585a,62bbf9c11137abf440c0c5fb,2022-06-29_09h08.33.823,Colour_Asymmetry_Pilot,2022.1.3,Win32,0.984538803,62bbe60bf3d75ef465d3e404,0,157,157,129,1,onethree,,,,,,,,,,,,,,,,,,,,,,,,,,,,,,,,,,,,,,,,,,,,,,,,,,,,,,,,,,,,,,,,,,,,,,,,,,,,,,,,,,,,,,,,,,,,,,,,,,,,,,,,,,,,,,,,,,,,,,,,,,,,,,,,,,,,,,,,,,,,,,,,,,,,,,,,
,,,,,,61652222bfd9351c91a6585a,62bbf9c11137abf440c0c5fb,2022-06-29_09h08.33.823,Colour_Asymmetry_Pilot,2022.1.3,Win32,0.984538803,62bbe60bf3d75ef465d3e404,0,158,158,56,1,onetwo,,,,,,,,,,,,,,,,,,,,,,,,,,,,,,,,,,,,,,,,,,,,,,,,,,,,,,,,,,,,,,,,,,,,,,,,,,,,,,,,,,,,,,,,,,,,,,,,,,,,,,,,,,,,,,,,,,,,,,,,,,,,,,,,,,,,,,,,,,,,,,,,,,,,,,,,
,,,,,,61652222bfd9351c91a6585a,62bbf9c11137abf440c0c5fb,2022-06-29_09h08.33.823,Colour_Asymmetry_Pilot,2022.1.3,Win32,0.984538803,62bbe60bf3d75ef465d3e404,0,159,159,15,1,fourthree,,,,,,,,,,,,,,,,,,,,,,,,,,,,,,,,,,,,,,,,,,,,,,,,,,,,,,,,,,,,,,,,,,,,,,,,,,,,,,,,,,,,,,,,,,,,,,,,,,,,,,,,,,,,,,,,,,,,,,,,,,,,,,,,,,,,,,,,,,,,,,,,,,,,,,,,
,,,,,,61652222bfd9351c91a6585a,62bbf9c11137abf440c0c5fb,2022-06-29_09h08.33.823,Colour_Asymmetry_Pilot,2022.1.3,Win32,0.984538803,62bbe60bf3d75ef465d3e404,0,160,160,84,1,threeone,,,,,,,,,,,,,,,,,,,,,,,,,,,,,,,,,,,,,,,,,,,,,,,,,,,,,,,,,,,,,,,,,,,,,,,,,,,,,,,,,,,,,,,,,,,,,,,,,,,,,,,,,,,,,,,,,,,,,,,,,,,,,,,,,,,,,,,,,,,,,,,,,,,,,,,,
,,,,,,61652222bfd9351c91a6585a,62bbf9c11137abf440c0c5fb,2022-06-29_09h08.33.823,Colour_Asymmetry_Pilot,2022.1.3,Win32,0.984538803,62bbe60bf3d75ef465d3e404,0,161,161,21,1,threefour,,,,,,,,,,,,,,,,,,,,,,,,,,,,,,,,,,,,,,,,,,,,,,,,,,,,,,,,,,,,,,,,,,,,,,,,,,,,,,,,,,,,,,,,,,,,,,,,,,,,,,,,,,,,,,,,,,,,,,,,,,,,,,,,,,,,,,,,,,,,,,,,,,,,,,,,
,,,,,,61652222bfd9351c91a6585a,62bbf9c11137abf440c0c5fb,2022-06-29_09h08.33.823,Colour_Asymmetry_Pilot,2022.1.3,Win32,0.984538803,62bbe60bf3d75ef465d3e404,,,,,,,space,8.1807,space,26.3603,space,231.5349,space,15.3218,space,4.0587,space,7.103,"[-0.4982,-0.2942,-0.0354000000000001]",twofour,"[0.05879999999999996,0.2784,0.5841999999999998]",4,39.5144,62,93,1,0,0,response1disk_5,-6,8,1,0,0,rectangle_8,-6,8,1,0,0,3,-6,8,1,0,0,0,0,0,0,1,,,,,,,,,,,,,,,,,,,,,,,,,,,,,,,,,,,,,,,,,,,,,,,,,,,,,,,,,,,,,,,,,,,,,,,,,,,,,,,,,,,,,,,,,,,,,,,,,,,,,,,,,,,
,,,,,,61652222bfd9351c91a6585a,62bbf9c11137abf440c0c5fb,2022-06-29_09h08.33.823,Colour_Asymmetry_Pilot,2022.1.3,Win32,0.984538803,62bbe60bf3d75ef465d3e404,,,,,,,,,,,,,,,,,,,"[-0.9688,-0.38039999999999996,-0.41979999999999995]",onetwo,"[0.22340000000000004,-0.9296,-0.7884]",2,51.5161,56,-30,1,0,0,response3disk_5,13,11,1,0,0,rectangle_8,13,11,1,0,0,3,13,11,1,0,0,1,0,1,0,1,,,,,,,,,,,,,,,,,,,,,,,,,,,,,,,,,,,,,,,,,,,,,,,,,,,,,,,,,,,,,,,,,,,,,,,,,,,,,,,,,,,,,,,,,,,,,,,,,,,,,,,,,,,
,,,,,,61652222bfd9351c91a6585a,62bbf9c11137abf440c0c5fb,2022-06-29_09h08.33.823,Colour_Asymmetry_Pilot,2022.1.3,Win32,0.984538803,62bbe60bf3d75ef465d3e404,,,,,,,,,,,,,,,,,,,"[-0.34920000000000007,-0.702,-0.5216]",onetwo,"[-0.9216,-0.5529999999999999,-0.3962]",2,75.7337,76,-41,1,0,0,response3disk_5,2,-2,1,0,0,rectangle_8,2,-2,1,0,0,3,2,-2,1,0,0,2,0,2,0,1,,,,,,,,,,,,,,,,,,,,,,,,,,,,,,,,,,,,,,,,,,,,,,,,,,,,,,,,,,,,,,,,,,,,,,,,,,,,,,,,,,,,,,,,,,,,,,,,,,,,,,,,,,,
,,,,,,61652222bfd9351c91a6585a,62bbf9c11137abf440c0c5fb,2022-06-29_09h08.33.823,Colour_Asymmetry_Pilot,2022.1.3,Win32,0.984538803,62bbe60bf3d75ef465d3e404,,,,,,,,,,,,,,,,,,,"[-0.48240000000000005,0.3175999999999999,0.2156]",threefour,"[0.23120000000000007,-0.7726,-0.34120000000000006]",2,36.4095,99,-48,1,0,0,response3disk_5,-16,-3,1,0,0,rectangle_8,103,62,1,0,0,3,22,-2,1,0,0,3,0,3,0,1,response1disk_7,6,rectangle_4,,,,,,,,,,,,,,,,,,,,,,,,,,,,,,,,,,,,,,,,,,,,,,,,,,,,,,,,,,,,,,,,,,,,,,,,,,,,,,,,,,,,,,,,,,,,,,,,,,,,,,,,
,,,,,,61652222bfd9351c91a6585a,62bbf9c11137abf440c0c5fb,2022-06-29_09h08.33.823,Colour_Asymmetry_Pilot,2022.1.3,Win32,0.984538803,62bbe60bf3d75ef465d3e404,,,,,,,,,,,,,,,,,,,"[-0.2942,-0.7648,-0.7492000000000001]",onetwo,"[-0.24719999999999998,0.5213999999999999,-0.12959999999999994]",2,11.0875,57,-27,1,0,0,response3disk_5,-3,-2,1,0,0,rectangle_8,91,40,1,0,0,3,0,-5,1,0,0,4,0,4,0,1,response1disk_7,6,rectangle_4,,,,,,,,,,,,,,,,,,,,,,,,,,,,,,,,,,,,,,,,,,,,,,,,,,,,,,,,,,,,,,,,,,,,,,,,,,,,,,,,,,,,,,,,,,,,,,,,,,,,,,,,
,,,,,,61652222bfd9351c91a6585a,62bbf9c11137abf440c0c5fb,2022-06-29_09h08.33.823,Colour_Asymmetry_Pilot,2022.1.3,Win32,0.984538803,62bbe60bf3d75ef465d3e404,,,,,,,,,,,,,,,,,,,"[-0.26280000000000003,-0.2158,-0.3256]",twofour,"[0.40379999999999994,0.09000000000000008,0.44300000000000006]",2,9.11,49,-27,1,0,0,response3disk_5,4,2,1,0,0,rectangle_8,4,2,1,0,0,3,4,2,1,0,0,5,0,5,0,1,,,,,,,,,,,,,,,,,,,,,,,,,,,,,,,,,,,,,,,,,,,,,,,,,,,,,,,,,,,,,,,,,,,,,,,,,,,,,,,,,,,,,,,,,,,,,,,,,,,,,,,,,,,
,,,,,,61652222bfd9351c91a6585a,62bbf9c11137abf440c0c5fb,2022-06-29_09h08.33.823,Colour_Asymmetry_Pilot,2022.1.3,Win32,0.984538803,62bbe60bf3d75ef465d3e404,,,,,,,,,,,,,,,,,,,"[-0.09019999999999995,0.44300000000000006,0.5371999999999999]",onethree,"[0.5449999999999999,-0.31000000000000005,-0.0354000000000001]",2,5.0598,62,-28,1,0,0,response3disk_5,14,9,1,0,0,rectangle_8,14,9,1,0,0,3,14,9,1,0,0,6,0,6,0,1,,,,,,,,,,,,,,,,,,,,,,,,,,,,,,,,,,,,,,,,,,,,,,,,,,,,,,,,,,,,,,,,,,,,,,,,,,,,,,,,,,,,,,,,,,,,,,,,,,,,,,,,,,,
,,,,,,61652222bfd9351c91a6585a,62bbf9c11137abf440c0c5fb,2022-06-29_09h08.33.823,Colour_Asymmetry_Pilot,2022.1.3,Win32,0.984538803,62bbe60bf3d75ef465d3e404,,,,,,,,,,,,,,,,,,,,onetwo,,2,14.1747,,,,,,,,,,,,,,,,,,,,,,,,,,,,,,,,space,13.1232,"[-0.9216,-0.5529999999999999,-0.3962]","[0.19199999999999995,0.18419999999999992,0.5136000000000001]",82,-48,1,0,0,response3disk,11,-14,1,0,0,rectangle,11,-14,1,0,0,,2,0.001,0,11,-14,1,0,0,0,0,0,113,1,32,second,,,,,,,,,,,,,,,,,,,,,,,,,,,,,,,,,,,,,,,,,,,,,,,,,,,,,,,,,,,,,,,,,,,
,,,,,,61652222bfd9351c91a6585a,62bbf9c11137abf440c0c5fb,2022-06-29_09h08.33.823,Colour_Asymmetry_Pilot,2022.1.3,Win32,0.984538803,62bbe60bf3d75ef465d3e404,,,,,,,,,,,,,,,,,,,,threefour,,2,14.1705,,,,,,,,,,,,,,,,,,,,,,,,,,,,,,,,,,"[0.23120000000000007,-0.7726,-0.34120000000000006]","[0.9686000000000001,0.3802000000000001,0.19999999999999996]",94,-61,1,0,0,response3disk,13,-3,1,0,0,rectangle,13,-3,1,0,0,,3,0.0009,0,13,-3,1,0,0,0,1,1,19,1,19,first,,,,,,,,,,,,,,,,,,,,,,,,,,,,,,,,,,,,,,,,,,,,,,,,,,,,,,,,,,,,,,,,,,,
,,,,,,61652222bfd9351c91a6585a,62bbf9c11137abf440c0c5fb,2022-06-29_09h08.33.823,Colour_Asymmetry_Pilot,2022.1.3,Win32,0.984538803,62bbe60bf3d75ef465d3e404,,,,,,,,,,,,,,,,,,,,fourtwo,,2,5.0554,,,,,,,,,,,,,,,,,,,,,,,,,,,,,,,,,,"[-0.38039999999999996,-0.4276,-0.1452]","[0.37240000000000006,-0.050999999999999934,-0.5216]",81,-40,1,0,0,response3disk,6,1,1,0,0,rectangle,6,1,1,0,0,,1,0.001,0,6,1,1,0,0,0,2,2,112,1,31,second,,,,,,,,,,,,,,,,,,,,,,,,,,,,,,,,,,,,,,,,,,,,,,,,,,,,,,,,,,,,,,,,,,,
,,,,,,61652222bfd9351c91a6585a,62bbf9c11137abf440c0c5fb,2022-06-29_09h08.33.823,Colour_Asymmetry_Pilot,2022.1.3,Win32,0.984538803,62bbe60bf3d75ef465d3e404,,,,,,,,,,,,,,,,,,,,fourthree,,2,4.044,,,,,,,,,,,,,,,,,,,,,,,,,,,,,,,,,,"[0.9686000000000001,0.3802000000000001,0.19999999999999996]","[0.19199999999999995,0.18419999999999992,0.5136000000000001]",59,-34,1,0,0,response3disk,1,0,1,0,0,rectangle,1,0,1,0,0,,2,0.0017,0,1,0,1,0,0,0,3,3,83,1,2,second,,,,,,,,,,,,,,,,,,,,,,,,,,,,,,,,,,,,,,,,,,,,,,,,,,,,,,,,,,,,,,,,,,,
,,,,,,61652222bfd9351c91a6585a,62bbf9c11137abf440c0c5fb,2022-06-29_09h08.33.823,Colour_Asymmetry_Pilot,2022.1.3,Win32,0.984538803,62bbe60bf3d75ef465d3e404,,,,,,,,,,,,,,,,,,,,fourtwo,,2,4.033,,,,,,,,,,,,,,,,,,,,,,,,,,,,,,,,,,"[0.6625999999999999,0.4980000000000002,-0.357]","[0.8115999999999999,-0.0040000000000000036,-0.09819999999999995]",76,-19,1,0,0,response3disk,18,-4,1,0,0,rectangle,18,-4,1,0,0,,1,0.0034,0,18,-4,1,0,0,0,4,4,118,1,37,second,,,,,,,,,,,,,,,,,,,,,,,,,,,,,,,,,,,,,,,,,,,,,,,,,,,,,,,,,,,,,,,,,,,
,,,,,,61652222bfd9351c91a6585a,62bbf9c11137abf440c0c5fb,2022-06-29_09h08.33.823,Colour_Asymmetry_Pilot,2022.1.3,Win32,0.984538803,62bbe60bf3d75ef465d3e404,,,,,,,,,,,,,,,,,,,,onetwo,,2,4.0498,,,,,,,,,,,,,,,,,,,,,,,,,,,,,,,,,,"[-0.09019999999999995,0.44300000000000006,0.5371999999999999]","[0.6625999999999999,0.4980000000000002,-0.357]",61,-24,1,0,0,response3disk,13,3,1,0,0,rectangle,13,3,1,0,0,,3,0.0007,0,13,3,1,0,0,0,5,5,140,1,59,second,,,,,,,,,,,,,,,,,,,,,,,,,,,,,,,,,,,,,,,,,,,,,,,,,,,,,,,,,,,,,,,,,,,
,,,,,,61652222bfd9351c91a6585a,62bbf9c11137abf440c0c5fb,2022-06-29_09h08.33.823,Colour_Asymmetry_Pilot,2022.1.3,Win32,0.984538803,62bbe60bf3d75ef465d3e404,,,,,,,,,,,,,,,,,,,,onethree,,2,4.0405,,,,,,,,,,,,,,,,,,,,,,,,,,,,,,,,,,"[-0.34920000000000007,-0.702,-0.5216]","[0.3802000000000001,0.19199999999999995,-0.6394]",56,-25,1,0,0,response3disk,10,-2,1,0,0,rectangle,10,-2,1,0,0,,3,1E-04,0,10,-2,1,0,0,0,6,6,62,1,62,first,,,,,,,,,,,,,,,,,,,,,,,,,,,,,,,,,,,,,,,,,,,,,,,,,,,,,,,,,,,,,,,,,,,
,,,,,,61652222bfd9351c91a6585a,62bbf9c11137abf440c0c5fb,2022-06-29_09h08.33.823,Colour_Asymmetry_Pilot,2022.1.3,Win32,0.984538803,62bbe60bf3d75ef465d3e404,,,,,,,,,,,,,,,,,,,,onethree,,2,4.0434,,,,,,,,,,,,,,,,,,,,,,,,,,,,,,,,,,"[0.23920000000000008,0.2704,0.16060000000000008]","[0.9763999999999999,0.30979999999999985,-0.6786]",59,-31,1,0,0,response3disk,8,-1,1,0,0,rectangle,8,-1,1,0,0,,3,0.0001,0,8,-1,1,0,0,0,7,7,39,1,39,first,,,,,,,,,,,,,,,,,,,,,,,,,,,,,,,,,,,,,,,,,,,,,,,,,,,,,,,,,,,,,,,,,,,
,,,,,,61652222bfd9351c91a6585a,62bbf9c11137abf440c0c5fb,2022-06-29_09h08.33.823,Colour_Asymmetry_Pilot,2022.1.3,Win32,0.984538803,62bbe60bf3d75ef465d3e404,,,,,,,,,,,,,,,,,,,,threeone,,2,5.0683,,,,,,,,,,,,,,,,,,,,,,,,,,,,,,,,,,"[0.23920000000000008,0.2704,0.16060000000000008]","[0.8274000000000001,-0.5844,-0.9452]",54,-26,1,0,0,response3disk,9,-4,1,0,0,rectangle,9,-4,1,0,0,,3,1E-04,0,9,-4,1,0,0,0,8,8,129,1,48,second,,,,,,,,,,,,,,,,,,,,,,,,,,,,,,,,,,,,,,,,,,,,,,,,,,,,,,,,,,,,,,,,,,,
,,,,,,61652222bfd9351c91a6585a,62bbf9c11137abf440c0c5fb,2022-06-29_09h08.33.823,Colour_Asymmetry_Pilot,2022.1.3,Win32,0.984538803,62bbe60bf3d75ef465d3e404,,,,,,,,,,,,,,,,,,,,onethree,,2,4.0618,,,,,,,,,,,,,,,,,,,,,,,,,,,,,,,,,,"[0.7176,-0.906,-0.6864]","[-0.5452,-0.608,0.2470000000000001]",65,-32,1,0,0,response3disk,-6,-4,1,0,0,rectangle,-6,-4,1,0,0,,1,0.0009,0,-6,-4,1,0,0,0,9,9,101,1,20,second,,,,,,,,,,,,,,,,,,,,,,,,,,,,,,,,,,,,,,,,,,,,,,,,,,,,,,,,,,,,,,,,,,,
,,,,,,61652222bfd9351c91a6585a,62bbf9c11137abf440c0c5fb,2022-06-29_09h08.33.823,Colour_Asymmetry_Pilot,2022.1.3,Win32,0.984538803,62bbe60bf3d75ef465d3e404,,,,,,,,,,,,,,,,,,,,fourtwo,,2,8.1096,,,,,,,,,,,,,,,,,,,,,,,,,,,,,,,,,,"[0.8274000000000001,-0.5844,-0.9452]","[-0.6235999999999999,-0.6786,-0.08239999999999992]",70,-25,1,0,0,response3disk,0,-2,1,0,0,rectangle,0,-2,1,0,0,,2,0.0007,0,0,-2,1,0,0,0,10,10,26,1,26,first,,,,,,,,,,,,,,,,,,,,,,,,,,,,,,,,,,,,,,,,,,,,,,,,,,,,,,,,,,,,,,,,,,,
,,,,,,61652222bfd9351c91a6585a,62bbf9c11137abf440c0c5fb,2022-06-29_09h08.33.823,Colour_Asymmetry_Pilot,2022.1.3,Win32,0.984538803,62bbe60bf3d75ef465d3e404,,,,,,,,,,,,,,,,,,,,fourthree,,2,5.0368,,,,,,,,,,,,,,,,,,,,,,,,,,,,,,,,,,"[-0.6,0.16860000000000008,0.44300000000000006]","[0.3568,-0.20799999999999996,-0.9844]",85,-43,1,0,0,response3disk,0,9,1,0,0,rectangle,0,9,1,0,0,,2,0.0006,0,0,9,1,0,0,0,11,11,27,1,27,first,,,,,,,,,,,,,,,,,,,,,,,,,,,,,,,,,,,,,,,,,,,,,,,,,,,,,,,,,,,,,,,,,,,
,,,,,,61652222bfd9351c91a6585a,62bbf9c11137abf440c0c5fb,2022-06-29_09h08.33.823,Colour_Asymmetry_Pilot,2022.1.3,Win32,0.984538803,62bbe60bf3d75ef465d3e404,,,,,,,,,,,,,,,,,,,,twofour,,2,5.0649,,,,,,,,,,,,,,,,,,,,,,,,,,,,,,,,,,"[-0.34920000000000007,-0.702,-0.5216]","[0.12939999999999996,-0.2864,0.3253999999999999]",73,-40,1,0,0,response3disk,9,6,1,0,0,rectangle,9,6,1,0,0,,3,0.0008,0,9,6,1,0,0,0,12,12,125,1,44,second,,,,,,,,,,,,,,,,,,,,,,,,,,,,,,,,,,,,,,,,,,,,,,,,,,,,,,,,,,,,,,,,,,,
,,,,,,61652222bfd9351c91a6585a,62bbf9c11137abf440c0c5fb,2022-06-29_09h08.33.823,Colour_Asymmetry_Pilot,2022.1.3,Win32,0.984538803,62bbe60bf3d75ef465d3e404,,,,,,,,,,,,,,,,,,,,onethree,,2,4.0672,,,,,,,,,,,,,,,,,,,,,,,,,,,,,,,,,,"[-0.24719999999999998,-0.0354000000000001,0.3175999999999999]","[-0.10599999999999998,-0.15300000000000002,0.15280000000000005]",64,-24,1,0,0,response3disk,0,4,1,0,0,rectangle,0,4,1,0,0,,2,0.0021,0,0,4,1,0,0,0,13,13,91,1,10,second,,,,,,,,,,,,,,,,,,,,,,,,,,,,,,,,,,,,,,,,,,,,,,,,,,,,,,,,,,,,,,,,,,,
,,,,,,61652222bfd9351c91a6585a,62bbf9c11137abf440c0c5fb,2022-06-29_09h08.33.823,Colour_Asymmetry_Pilot,2022.1.3,Win32,0.984538803,62bbe60bf3d75ef465d3e404,,,,,,,,,,,,,,,,,,,,fourthree,,2,5.0482,,,,,,,,,,,,,,,,,,,,,,,,,,,,,,,,,,"[-0.26280000000000003,-0.4746,-0.2158]","[-0.20799999999999996,-0.655,-0.01980000000000004]",63,-40,1,0,0,response3disk,8,6,1,0,0,rectangle,8,6,1,0,0,,2,0.0003,0,8,6,1,0,0,0,14,14,131,1,50,second,,,,,,,,,,,,,,,,,,,,,,,,,,,,,,,,,,,,,,,,,,,,,,,,,,,,,,,,,,,,,,,,,,,
,,,,,,61652222bfd9351c91a6585a,62bbf9c11137abf440c0c5fb,2022-06-29_09h08.33.823,Colour_Asymmetry_Pilot,2022.1.3,Win32,0.984538803,62bbe60bf3d75ef465d3e404,,,,,,,,,,,,,,,,,,,,twoone,,2,4.0411,,,,,,,,,,,,,,,,,,,,,,,,,,,,,,,,,,"[-0.8118,-0.8198,-0.5452]","[-0.34920000000000007,-0.702,-0.5216]",66,-32,1,0,0,response3disk,9,6,1,0,0,rectangle,9,6,1,0,0,,2,0.0002,0,9,6,1,0,0,0,15,15,158,1,77,second,,,,,,,,,,,,,,,,,,,,,,,,,,,,,,,,,,,,,,,,,,,,,,,,,,,,,,,,,,,,,,,,,,,
,,,,,,61652222bfd9351c91a6585a,62bbf9c11137abf440c0c5fb,2022-06-29_09h08.33.823,Colour_Asymmetry_Pilot,2022.1.3,Win32,0.984538803,62bbe60bf3d75ef465d3e404,,,,,,,,,,,,,,,,,,,,twofour,,2,5.0428,,,,,,,,,,,,,,,,,,,,,,,,,,,,,,,,,,"[0.05879999999999996,0.2784,0.5841999999999998]","[-0.5452,-0.608,0.2470000000000001]",74,-28,1,0,0,response3disk,11,4,1,0,0,rectangle,11,4,1,0,0,,1,0.001,0,11,4,1,0,0,0,16,16,116,1,35,second,,,,,,,,,,,,,,,,,,,,,,,,,,,,,,,,,,,,,,,,,,,,,,,,,,,,,,,,,,,,,,,,,,,
,,,,,,61652222bfd9351c91a6585a,62bbf9c11137abf440c0c5fb,2022-06-29_09h08.33.823,Colour_Asymmetry_Pilot,2022.1.3,Win32,0.984538803,62bbe60bf3d75ef465d3e404,,,,,,,,,,,,,,,,,,,,threefour,,2,4.0318,,,,,,,,,,,,,,,,,,,,,,,,,,,,,,,,,,"[-0.5452,-0.608,0.2470000000000001]","[0.05879999999999996,0.2784,0.5841999999999998]",64,-35,1,0,0,response3disk,3,0,1,0,0,rectangle,3,0,1,0,0,,3,0.0011,0,3,0,1,0,0,0,17,17,35,1,35,first,,,,,,,,,,,,,,,,,,,,,,,,,,,,,,,,,,,,,,,,,,,,,,,,,,,,,,,,,,,,,,,,,,,
,,,,,,61652222bfd9351c91a6585a,62bbf9c11137abf440c0c5fb,2022-06-29_09h08.33.823,Colour_Asymmetry_Pilot,2022.1.3,Win32,0.984538803,62bbe60bf3d75ef465d3e404,,,,,,,,,,,,,,,,,,,,twofour,,2,5.0444,,,,,,,,,,,,,,,,,,,,,,,,,,,,,,,,,,"[0.40379999999999994,0.09000000000000008,0.44300000000000006]","[-0.4668,-0.8746,-0.2942]",64,-32,1,0,0,response3disk,9,-2,1,0,0,rectangle,9,-2,1,0,0,,2,0.0006,0,9,-2,1,0,0,0,18,18,56,1,56,first,,,,,,,,,,,,,,,,,,,,,,,,,,,,,,,,,,,,,,,,,,,,,,,,,,,,,,,,,,,,,,,,,,,
,,,,,,61652222bfd9351c91a6585a,62bbf9c11137abf440c0c5fb,2022-06-29_09h08.33.823,Colour_Asymmetry_Pilot,2022.1.3,Win32,0.984538803,62bbe60bf3d75ef465d3e404,,,,,,,,,,,,,,,,,,,,onetwo,,2,5.0489,,,,,,,,,,,,,,,,,,,,,,,,,,,,,,,,,,"[0.12939999999999996,-0.2864,0.3253999999999999]","[-0.34920000000000007,-0.702,-0.5216]",59,-30,1,0,0,response3disk,2,-1,1,0,0,rectangle,2,-1,1,0,0,,1,0.0007,0,2,-1,1,0,0,0,19,19,44,1,44,first,,,,,,,,,,,,,,,,,,,,,,,,,,,,,,,,,,,,,,,,,,,,,,,,,,,,,,,,,,,,,,,,,,,
,,,,,,61652222bfd9351c91a6585a,62bbf9c11137abf440c0c5fb,2022-06-29_09h08.33.823,Colour_Asymmetry_Pilot,2022.1.3,Win32,0.984538803,62bbe60bf3d75ef465d3e404,,,,,,,,,,,,,,,,,,,,onetwo,,2,5.0443,,,,,,,,,,,,,,,,,,,,,,,,,,,,,,,,,,"[-0.34920000000000007,-0.702,-0.5216]","[-0.8118,-0.8198,-0.5452]",70,-36,1,0,0,response3disk,9,-3,1,0,0,rectangle,9,-3,1,0,0,,3,0.0025,0,9,-3,1,0,0,0,20,20,77,1,77,first,,,,,,,,,,,,,,,,,,,,,,,,,,,,,,,,,,,,,,,,,,,,,,,,,,,,,,,,,,,,,,,,,,,
