trials.thisRepN,trials.thisTrialN,trials.thisN,trials.thisIndex,trials.ran,Colourcodes,participant,session,date,expName,psychopyVersion,OS,frameRate,study_id,trials_4.thisRepN,trials_4.thisTrialN,trials_4.thisN,trials_4.thisIndex,trials_4.ran,StimulusPos,key_resp.keys,key_resp.rt,key_resp_2.keys,key_resp_2.rt,key_resp_15.keys,key_resp_15.rt,key_resp_17.keys,key_resp_17.rt,key_resp_9.keys,key_resp_9.rt,key_resp_10.keys,key_resp_10.rt,Circle1_col,Ecc,Circle2_col,similarity,response_time,mouse_5.x,mouse_5.y,mouse_5.leftButton,mouse_5.midButton,mouse_5.rightButton,mouse_5.clicked_name,mouse_10.x,mouse_10.y,mouse_10.leftButton,mouse_10.midButton,mouse_10.rightButton,mouse_10.clicked_name,mouse_7.x,mouse_7.y,mouse_7.leftButton,mouse_7.midButton,mouse_7.rightButton,catchnumberprac,mouse_6.x,mouse_6.y,mouse_6.leftButton,mouse_6.midButton,mouse_6.rightButton,duringprac.thisRepN,duringprac.thisTrialN,duringprac.thisN,duringprac.thisIndex,duringprac.ran,mouse_7.clicked_name,catchprac,mouse_6.clicked_name,key_resp_22.keys,key_resp_22.rt,Circle1_colour,Circle2_colour,mouse.x,mouse.y,mouse.leftButton,mouse.midButton,mouse.rightButton,mouse.clicked_name,mouse_2.x,mouse_2.y,mouse_2.leftButton,mouse_2.midButton,mouse_2.rightButton,mouse_2.clicked_name,mouse_3.x,mouse_3.y,mouse_3.leftButton,mouse_3.midButton,mouse_3.rightButton,catchresponse,catchnumber,response_time_catch,Catch,mouse_11.x,mouse_11.y,mouse_11.leftButton,mouse_11.midButton,mouse_11.rightButton,trials_2.thisRepN,trials_2.thisTrialN,trials_2.thisN,trials_2.thisIndex,trials_2.ran,Colourpair,Temporder,mouse_3.clicked_name,mouse_11.clicked_name,trials_3.thisRepN,trials_3.thisTrialN,trials_3.thisN,trials_3.thisIndex,trials_3.ran,key_resp_instr_Ishi.keys,key_resp_instr_Ishi.rt,Ishi_trial_keyresp.keys,Ishi_trial_keyresp.rt,Ishi_textbox.text,Ishi_loop.thisRepN,Ishi_loop.thisTrialN,Ishi_loop.thisN,Ishi_loop.thisIndex,Ishi_loop.ran,imageaddress,textbox.text,mouse_4.x,mouse_4.y,mouse_4.leftButton,mouse_4.midButton,mouse_4.rightButton,mouse_4.clicked_name,textbox_2.text,mouse_8.x,mouse_8.y,mouse_8.leftButton,mouse_8.midButton,mouse_8.rightButton,mouse_8.clicked_name,textbox_3.text,mouse_9.x,mouse_9.y,mouse_9.leftButton,mouse_9.midButton,mouse_9.rightButton,mouse_9.clicked_name,textbox_4.text,mouse_12.x,mouse_12.y,mouse_12.leftButton,mouse_12.midButton,mouse_12.rightButton,mouse_12.clicked_name,textbox_5.text,mouse_13.x,mouse_13.y,mouse_13.leftButton,mouse_13.midButton,mouse_13.rightButton,mouse_13.clicked_name,textbox_6.text,mouse_14.x,mouse_14.y,mouse_14.leftButton,mouse_14.midButton,mouse_14.rightButton,mouse_14.clicked_name,textbox_7.text,mouse_15.x,mouse_15.y,mouse_15.leftButton,mouse_15.midButton,mouse_15.rightButton,mouse_15.clicked_name
0,0,0,35,1,,60563630dd344659e462b608,62bbfb13a9e1a6964bc288e8,2022-06-29_09h11.43,Colour_Asymmetry_Pilot,2022.1.3,MacIntel,58.82352941,62bbe60bf3d75ef465d3e404,,,,,,,,,,,,,,,,,,,,,,,,,,,,,,,,,,,,,,,,,,,,,,,,,,,,,,,,,,,,,,,,,,,,,,,,,,,,,,,,,,,,,,,,,,,,,,,,,,,,,,,,,,,,,,,,,,,,,,,,,,,,,,,,,,,,,,,,,,,,,,,,,,,,,,,,,,,,,,
0,1,1,67,1,,60563630dd344659e462b608,62bbfb13a9e1a6964bc288e8,2022-06-29_09h11.43,Colour_Asymmetry_Pilot,2022.1.3,MacIntel,58.82352941,62bbe60bf3d75ef465d3e404,,,,,,,,,,,,,,,,,,,,,,,,,,,,,,,,,,,,,,,,,,,,,,,,,,,,,,,,,,,,,,,,,,,,,,,,,,,,,,,,,,,,,,,,,,,,,,,,,,,,,,,,,,,,,,,,,,,,,,,,,,,,,,,,,,,,,,,,,,,,,,,,,,,,,,,,,,,,,,
0,2,2,43,1,,60563630dd344659e462b608,62bbfb13a9e1a6964bc288e8,2022-06-29_09h11.43,Colour_Asymmetry_Pilot,2022.1.3,MacIntel,58.82352941,62bbe60bf3d75ef465d3e404,,,,,,,,,,,,,,,,,,,,,,,,,,,,,,,,,,,,,,,,,,,,,,,,,,,,,,,,,,,,,,,,,,,,,,,,,,,,,,,,,,,,,,,,,,,,,,,,,,,,,,,,,,,,,,,,,,,,,,,,,,,,,,,,,,,,,,,,,,,,,,,,,,,,,,,,,,,,,,
0,3,3,65,1,,60563630dd344659e462b608,62bbfb13a9e1a6964bc288e8,2022-06-29_09h11.43,Colour_Asymmetry_Pilot,2022.1.3,MacIntel,58.82352941,62bbe60bf3d75ef465d3e404,,,,,,,,,,,,,,,,,,,,,,,,,,,,,,,,,,,,,,,,,,,,,,,,,,,,,,,,,,,,,,,,,,,,,,,,,,,,,,,,,,,,,,,,,,,,,,,,,,,,,,,,,,,,,,,,,,,,,,,,,,,,,,,,,,,,,,,,,,,,,,,,,,,,,,,,,,,,,,
0,4,4,74,1,,60563630dd344659e462b608,62bbfb13a9e1a6964bc288e8,2022-06-29_09h11.43,Colour_Asymmetry_Pilot,2022.1.3,MacIntel,58.82352941,62bbe60bf3d75ef465d3e404,,,,,,,,,,,,,,,,,,,,,,,,,,,,,,,,,,,,,,,,,,,,,,,,,,,,,,,,,,,,,,,,,,,,,,,,,,,,,,,,,,,,,,,,,,,,,,,,,,,,,,,,,,,,,,,,,,,,,,,,,,,,,,,,,,,,,,,,,,,,,,,,,,,,,,,,,,,,,,
0,5,5,15,1,,60563630dd344659e462b608,62bbfb13a9e1a6964bc288e8,2022-06-29_09h11.43,Colour_Asymmetry_Pilot,2022.1.3,MacIntel,58.82352941,62bbe60bf3d75ef465d3e404,,,,,,,,,,,,,,,,,,,,,,,,,,,,,,,,,,,,,,,,,,,,,,,,,,,,,,,,,,,,,,,,,,,,,,,,,,,,,,,,,,,,,,,,,,,,,,,,,,,,,,,,,,,,,,,,,,,,,,,,,,,,,,,,,,,,,,,,,,,,,,,,,,,,,,,,,,,,,,
0,6,6,63,1,,60563630dd344659e462b608,62bbfb13a9e1a6964bc288e8,2022-06-29_09h11.43,Colour_Asymmetry_Pilot,2022.1.3,MacIntel,58.82352941,62bbe60bf3d75ef465d3e404,,,,,,,,,,,,,,,,,,,,,,,,,,,,,,,,,,,,,,,,,,,,,,,,,,,,,,,,,,,,,,,,,,,,,,,,,,,,,,,,,,,,,,,,,,,,,,,,,,,,,,,,,,,,,,,,,,,,,,,,,,,,,,,,,,,,,,,,,,,,,,,,,,,,,,,,,,,,,,
0,7,7,27,1,,60563630dd344659e462b608,62bbfb13a9e1a6964bc288e8,2022-06-29_09h11.43,Colour_Asymmetry_Pilot,2022.1.3,MacIntel,58.82352941,62bbe60bf3d75ef465d3e404,,,,,,,,,,,,,,,,,,,,,,,,,,,,,,,,,,,,,,,,,,,,,,,,,,,,,,,,,,,,,,,,,,,,,,,,,,,,,,,,,,,,,,,,,,,,,,,,,,,,,,,,,,,,,,,,,,,,,,,,,,,,,,,,,,,,,,,,,,,,,,,,,,,,,,,,,,,,,,
0,8,8,50,1,,60563630dd344659e462b608,62bbfb13a9e1a6964bc288e8,2022-06-29_09h11.43,Colour_Asymmetry_Pilot,2022.1.3,MacIntel,58.82352941,62bbe60bf3d75ef465d3e404,,,,,,,,,,,,,,,,,,,,,,,,,,,,,,,,,,,,,,,,,,,,,,,,,,,,,,,,,,,,,,,,,,,,,,,,,,,,,,,,,,,,,,,,,,,,,,,,,,,,,,,,,,,,,,,,,,,,,,,,,,,,,,,,,,,,,,,,,,,,,,,,,,,,,,,,,,,,,,
0,9,9,19,1,,60563630dd344659e462b608,62bbfb13a9e1a6964bc288e8,2022-06-29_09h11.43,Colour_Asymmetry_Pilot,2022.1.3,MacIntel,58.82352941,62bbe60bf3d75ef465d3e404,,,,,,,,,,,,,,,,,,,,,,,,,,,,,,,,,,,,,,,,,,,,,,,,,,,,,,,,,,,,,,,,,,,,,,,,,,,,,,,,,,,,,,,,,,,,,,,,,,,,,,,,,,,,,,,,,,,,,,,,,,,,,,,,,,,,,,,,,,,,,,,,,,,,,,,,,,,,,,
0,10,10,37,1,,60563630dd344659e462b608,62bbfb13a9e1a6964bc288e8,2022-06-29_09h11.43,Colour_Asymmetry_Pilot,2022.1.3,MacIntel,58.82352941,62bbe60bf3d75ef465d3e404,,,,,,,,,,,,,,,,,,,,,,,,,,,,,,,,,,,,,,,,,,,,,,,,,,,,,,,,,,,,,,,,,,,,,,,,,,,,,,,,,,,,,,,,,,,,,,,,,,,,,,,,,,,,,,,,,,,,,,,,,,,,,,,,,,,,,,,,,,,,,,,,,,,,,,,,,,,,,,
0,11,11,68,1,,60563630dd344659e462b608,62bbfb13a9e1a6964bc288e8,2022-06-29_09h11.43,Colour_Asymmetry_Pilot,2022.1.3,MacIntel,58.82352941,62bbe60bf3d75ef465d3e404,,,,,,,,,,,,,,,,,,,,,,,,,,,,,,,,,,,,,,,,,,,,,,,,,,,,,,,,,,,,,,,,,,,,,,,,,,,,,,,,,,,,,,,,,,,,,,,,,,,,,,,,,,,,,,,,,,,,,,,,,,,,,,,,,,,,,,,,,,,,,,,,,,,,,,,,,,,,,,
0,12,12,75,1,,60563630dd344659e462b608,62bbfb13a9e1a6964bc288e8,2022-06-29_09h11.43,Colour_Asymmetry_Pilot,2022.1.3,MacIntel,58.82352941,62bbe60bf3d75ef465d3e404,,,,,,,,,,,,,,,,,,,,,,,,,,,,,,,,,,,,,,,,,,,,,,,,,,,,,,,,,,,,,,,,,,,,,,,,,,,,,,,,,,,,,,,,,,,,,,,,,,,,,,,,,,,,,,,,,,,,,,,,,,,,,,,,,,,,,,,,,,,,,,,,,,,,,,,,,,,,,,
0,13,13,0,1,,60563630dd344659e462b608,62bbfb13a9e1a6964bc288e8,2022-06-29_09h11.43,Colour_Asymmetry_Pilot,2022.1.3,MacIntel,58.82352941,62bbe60bf3d75ef465d3e404,,,,,,,,,,,,,,,,,,,,,,,,,,,,,,,,,,,,,,,,,,,,,,,,,,,,,,,,,,,,,,,,,,,,,,,,,,,,,,,,,,,,,,,,,,,,,,,,,,,,,,,,,,,,,,,,,,,,,,,,,,,,,,,,,,,,,,,,,,,,,,,,,,,,,,,,,,,,,,
0,14,14,58,1,,60563630dd344659e462b608,62bbfb13a9e1a6964bc288e8,2022-06-29_09h11.43,Colour_Asymmetry_Pilot,2022.1.3,MacIntel,58.82352941,62bbe60bf3d75ef465d3e404,,,,,,,,,,,,,,,,,,,,,,,,,,,,,,,,,,,,,,,,,,,,,,,,,,,,,,,,,,,,,,,,,,,,,,,,,,,,,,,,,,,,,,,,,,,,,,,,,,,,,,,,,,,,,,,,,,,,,,,,,,,,,,,,,,,,,,,,,,,,,,,,,,,,,,,,,,,,,,
0,15,15,8,1,,60563630dd344659e462b608,62bbfb13a9e1a6964bc288e8,2022-06-29_09h11.43,Colour_Asymmetry_Pilot,2022.1.3,MacIntel,58.82352941,62bbe60bf3d75ef465d3e404,,,,,,,,,,,,,,,,,,,,,,,,,,,,,,,,,,,,,,,,,,,,,,,,,,,,,,,,,,,,,,,,,,,,,,,,,,,,,,,,,,,,,,,,,,,,,,,,,,,,,,,,,,,,,,,,,,,,,,,,,,,,,,,,,,,,,,,,,,,,,,,,,,,,,,,,,,,,,,
0,16,16,45,1,,60563630dd344659e462b608,62bbfb13a9e1a6964bc288e8,2022-06-29_09h11.43,Colour_Asymmetry_Pilot,2022.1.3,MacIntel,58.82352941,62bbe60bf3d75ef465d3e404,,,,,,,,,,,,,,,,,,,,,,,,,,,,,,,,,,,,,,,,,,,,,,,,,,,,,,,,,,,,,,,,,,,,,,,,,,,,,,,,,,,,,,,,,,,,,,,,,,,,,,,,,,,,,,,,,,,,,,,,,,,,,,,,,,,,,,,,,,,,,,,,,,,,,,,,,,,,,,
0,17,17,60,1,,60563630dd344659e462b608,62bbfb13a9e1a6964bc288e8,2022-06-29_09h11.43,Colour_Asymmetry_Pilot,2022.1.3,MacIntel,58.82352941,62bbe60bf3d75ef465d3e404,,,,,,,,,,,,,,,,,,,,,,,,,,,,,,,,,,,,,,,,,,,,,,,,,,,,,,,,,,,,,,,,,,,,,,,,,,,,,,,,,,,,,,,,,,,,,,,,,,,,,,,,,,,,,,,,,,,,,,,,,,,,,,,,,,,,,,,,,,,,,,,,,,,,,,,,,,,,,,
0,18,18,29,1,,60563630dd344659e462b608,62bbfb13a9e1a6964bc288e8,2022-06-29_09h11.43,Colour_Asymmetry_Pilot,2022.1.3,MacIntel,58.82352941,62bbe60bf3d75ef465d3e404,,,,,,,,,,,,,,,,,,,,,,,,,,,,,,,,,,,,,,,,,,,,,,,,,,,,,,,,,,,,,,,,,,,,,,,,,,,,,,,,,,,,,,,,,,,,,,,,,,,,,,,,,,,,,,,,,,,,,,,,,,,,,,,,,,,,,,,,,,,,,,,,,,,,,,,,,,,,,,
0,19,19,5,1,,60563630dd344659e462b608,62bbfb13a9e1a6964bc288e8,2022-06-29_09h11.43,Colour_Asymmetry_Pilot,2022.1.3,MacIntel,58.82352941,62bbe60bf3d75ef465d3e404,,,,,,,,,,,,,,,,,,,,,,,,,,,,,,,,,,,,,,,,,,,,,,,,,,,,,,,,,,,,,,,,,,,,,,,,,,,,,,,,,,,,,,,,,,,,,,,,,,,,,,,,,,,,,,,,,,,,,,,,,,,,,,,,,,,,,,,,,,,,,,,,,,,,,,,,,,,,,,
0,20,20,26,1,,60563630dd344659e462b608,62bbfb13a9e1a6964bc288e8,2022-06-29_09h11.43,Colour_Asymmetry_Pilot,2022.1.3,MacIntel,58.82352941,62bbe60bf3d75ef465d3e404,,,,,,,,,,,,,,,,,,,,,,,,,,,,,,,,,,,,,,,,,,,,,,,,,,,,,,,,,,,,,,,,,,,,,,,,,,,,,,,,,,,,,,,,,,,,,,,,,,,,,,,,,,,,,,,,,,,,,,,,,,,,,,,,,,,,,,,,,,,,,,,,,,,,,,,,,,,,,,
0,21,21,77,1,,60563630dd344659e462b608,62bbfb13a9e1a6964bc288e8,2022-06-29_09h11.43,Colour_Asymmetry_Pilot,2022.1.3,MacIntel,58.82352941,62bbe60bf3d75ef465d3e404,,,,,,,,,,,,,,,,,,,,,,,,,,,,,,,,,,,,,,,,,,,,,,,,,,,,,,,,,,,,,,,,,,,,,,,,,,,,,,,,,,,,,,,,,,,,,,,,,,,,,,,,,,,,,,,,,,,,,,,,,,,,,,,,,,,,,,,,,,,,,,,,,,,,,,,,,,,,,,
0,22,22,9,1,,60563630dd344659e462b608,62bbfb13a9e1a6964bc288e8,2022-06-29_09h11.43,Colour_Asymmetry_Pilot,2022.1.3,MacIntel,58.82352941,62bbe60bf3d75ef465d3e404,,,,,,,,,,,,,,,,,,,,,,,,,,,,,,,,,,,,,,,,,,,,,,,,,,,,,,,,,,,,,,,,,,,,,,,,,,,,,,,,,,,,,,,,,,,,,,,,,,,,,,,,,,,,,,,,,,,,,,,,,,,,,,,,,,,,,,,,,,,,,,,,,,,,,,,,,,,,,,
0,23,23,2,1,,60563630dd344659e462b608,62bbfb13a9e1a6964bc288e8,2022-06-29_09h11.43,Colour_Asymmetry_Pilot,2022.1.3,MacIntel,58.82352941,62bbe60bf3d75ef465d3e404,,,,,,,,,,,,,,,,,,,,,,,,,,,,,,,,,,,,,,,,,,,,,,,,,,,,,,,,,,,,,,,,,,,,,,,,,,,,,,,,,,,,,,,,,,,,,,,,,,,,,,,,,,,,,,,,,,,,,,,,,,,,,,,,,,,,,,,,,,,,,,,,,,,,,,,,,,,,,,
0,24,24,22,1,,60563630dd344659e462b608,62bbfb13a9e1a6964bc288e8,2022-06-29_09h11.43,Colour_Asymmetry_Pilot,2022.1.3,MacIntel,58.82352941,62bbe60bf3d75ef465d3e404,,,,,,,,,,,,,,,,,,,,,,,,,,,,,,,,,,,,,,,,,,,,,,,,,,,,,,,,,,,,,,,,,,,,,,,,,,,,,,,,,,,,,,,,,,,,,,,,,,,,,,,,,,,,,,,,,,,,,,,,,,,,,,,,,,,,,,,,,,,,,,,,,,,,,,,,,,,,,,
0,25,25,1,1,,60563630dd344659e462b608,62bbfb13a9e1a6964bc288e8,2022-06-29_09h11.43,Colour_Asymmetry_Pilot,2022.1.3,MacIntel,58.82352941,62bbe60bf3d75ef465d3e404,,,,,,,,,,,,,,,,,,,,,,,,,,,,,,,,,,,,,,,,,,,,,,,,,,,,,,,,,,,,,,,,,,,,,,,,,,,,,,,,,,,,,,,,,,,,,,,,,,,,,,,,,,,,,,,,,,,,,,,,,,,,,,,,,,,,,,,,,,,,,,,,,,,,,,,,,,,,,,
0,26,26,54,1,,60563630dd344659e462b608,62bbfb13a9e1a6964bc288e8,2022-06-29_09h11.43,Colour_Asymmetry_Pilot,2022.1.3,MacIntel,58.82352941,62bbe60bf3d75ef465d3e404,,,,,,,,,,,,,,,,,,,,,,,,,,,,,,,,,,,,,,,,,,,,,,,,,,,,,,,,,,,,,,,,,,,,,,,,,,,,,,,,,,,,,,,,,,,,,,,,,,,,,,,,,,,,,,,,,,,,,,,,,,,,,,,,,,,,,,,,,,,,,,,,,,,,,,,,,,,,,,
0,27,27,55,1,,60563630dd344659e462b608,62bbfb13a9e1a6964bc288e8,2022-06-29_09h11.43,Colour_Asymmetry_Pilot,2022.1.3,MacIntel,58.82352941,62bbe60bf3d75ef465d3e404,,,,,,,,,,,,,,,,,,,,,,,,,,,,,,,,,,,,,,,,,,,,,,,,,,,,,,,,,,,,,,,,,,,,,,,,,,,,,,,,,,,,,,,,,,,,,,,,,,,,,,,,,,,,,,,,,,,,,,,,,,,,,,,,,,,,,,,,,,,,,,,,,,,,,,,,,,,,,,
0,28,28,91,1,,60563630dd344659e462b608,62bbfb13a9e1a6964bc288e8,2022-06-29_09h11.43,Colour_Asymmetry_Pilot,2022.1.3,MacIntel,58.82352941,62bbe60bf3d75ef465d3e404,,,,,,,,,,,,,,,,,,,,,,,,,,,,,,,,,,,,,,,,,,,,,,,,,,,,,,,,,,,,,,,,,,,,,,,,,,,,,,,,,,,,,,,,,,,,,,,,,,,,,,,,,,,,,,,,,,,,,,,,,,,,,,,,,,,,,,,,,,,,,,,,,,,,,,,,,,,,,,
0,29,29,83,1,,60563630dd344659e462b608,62bbfb13a9e1a6964bc288e8,2022-06-29_09h11.43,Colour_Asymmetry_Pilot,2022.1.3,MacIntel,58.82352941,62bbe60bf3d75ef465d3e404,,,,,,,,,,,,,,,,,,,,,,,,,,,,,,,,,,,,,,,,,,,,,,,,,,,,,,,,,,,,,,,,,,,,,,,,,,,,,,,,,,,,,,,,,,,,,,,,,,,,,,,,,,,,,,,,,,,,,,,,,,,,,,,,,,,,,,,,,,,,,,,,,,,,,,,,,,,,,,
0,30,30,85,1,,60563630dd344659e462b608,62bbfb13a9e1a6964bc288e8,2022-06-29_09h11.43,Colour_Asymmetry_Pilot,2022.1.3,MacIntel,58.82352941,62bbe60bf3d75ef465d3e404,,,,,,,,,,,,,,,,,,,,,,,,,,,,,,,,,,,,,,,,,,,,,,,,,,,,,,,,,,,,,,,,,,,,,,,,,,,,,,,,,,,,,,,,,,,,,,,,,,,,,,,,,,,,,,,,,,,,,,,,,,,,,,,,,,,,,,,,,,,,,,,,,,,,,,,,,,,,,,
0,31,31,76,1,,60563630dd344659e462b608,62bbfb13a9e1a6964bc288e8,2022-06-29_09h11.43,Colour_Asymmetry_Pilot,2022.1.3,MacIntel,58.82352941,62bbe60bf3d75ef465d3e404,,,,,,,,,,,,,,,,,,,,,,,,,,,,,,,,,,,,,,,,,,,,,,,,,,,,,,,,,,,,,,,,,,,,,,,,,,,,,,,,,,,,,,,,,,,,,,,,,,,,,,,,,,,,,,,,,,,,,,,,,,,,,,,,,,,,,,,,,,,,,,,,,,,,,,,,,,,,,,
0,32,32,51,1,,60563630dd344659e462b608,62bbfb13a9e1a6964bc288e8,2022-06-29_09h11.43,Colour_Asymmetry_Pilot,2022.1.3,MacIntel,58.82352941,62bbe60bf3d75ef465d3e404,,,,,,,,,,,,,,,,,,,,,,,,,,,,,,,,,,,,,,,,,,,,,,,,,,,,,,,,,,,,,,,,,,,,,,,,,,,,,,,,,,,,,,,,,,,,,,,,,,,,,,,,,,,,,,,,,,,,,,,,,,,,,,,,,,,,,,,,,,,,,,,,,,,,,,,,,,,,,,
0,33,33,87,1,,60563630dd344659e462b608,62bbfb13a9e1a6964bc288e8,2022-06-29_09h11.43,Colour_Asymmetry_Pilot,2022.1.3,MacIntel,58.82352941,62bbe60bf3d75ef465d3e404,,,,,,,,,,,,,,,,,,,,,,,,,,,,,,,,,,,,,,,,,,,,,,,,,,,,,,,,,,,,,,,,,,,,,,,,,,,,,,,,,,,,,,,,,,,,,,,,,,,,,,,,,,,,,,,,,,,,,,,,,,,,,,,,,,,,,,,,,,,,,,,,,,,,,,,,,,,,,,
0,34,34,41,1,,60563630dd344659e462b608,62bbfb13a9e1a6964bc288e8,2022-06-29_09h11.43,Colour_Asymmetry_Pilot,2022.1.3,MacIntel,58.82352941,62bbe60bf3d75ef465d3e404,,,,,,,,,,,,,,,,,,,,,,,,,,,,,,,,,,,,,,,,,,,,,,,,,,,,,,,,,,,,,,,,,,,,,,,,,,,,,,,,,,,,,,,,,,,,,,,,,,,,,,,,,,,,,,,,,,,,,,,,,,,,,,,,,,,,,,,,,,,,,,,,,,,,,,,,,,,,,,
0,35,35,48,1,,60563630dd344659e462b608,62bbfb13a9e1a6964bc288e8,2022-06-29_09h11.43,Colour_Asymmetry_Pilot,2022.1.3,MacIntel,58.82352941,62bbe60bf3d75ef465d3e404,,,,,,,,,,,,,,,,,,,,,,,,,,,,,,,,,,,,,,,,,,,,,,,,,,,,,,,,,,,,,,,,,,,,,,,,,,,,,,,,,,,,,,,,,,,,,,,,,,,,,,,,,,,,,,,,,,,,,,,,,,,,,,,,,,,,,,,,,,,,,,,,,,,,,,,,,,,,,,
0,36,36,61,1,,60563630dd344659e462b608,62bbfb13a9e1a6964bc288e8,2022-06-29_09h11.43,Colour_Asymmetry_Pilot,2022.1.3,MacIntel,58.82352941,62bbe60bf3d75ef465d3e404,,,,,,,,,,,,,,,,,,,,,,,,,,,,,,,,,,,,,,,,,,,,,,,,,,,,,,,,,,,,,,,,,,,,,,,,,,,,,,,,,,,,,,,,,,,,,,,,,,,,,,,,,,,,,,,,,,,,,,,,,,,,,,,,,,,,,,,,,,,,,,,,,,,,,,,,,,,,,,
0,37,37,30,1,,60563630dd344659e462b608,62bbfb13a9e1a6964bc288e8,2022-06-29_09h11.43,Colour_Asymmetry_Pilot,2022.1.3,MacIntel,58.82352941,62bbe60bf3d75ef465d3e404,,,,,,,,,,,,,,,,,,,,,,,,,,,,,,,,,,,,,,,,,,,,,,,,,,,,,,,,,,,,,,,,,,,,,,,,,,,,,,,,,,,,,,,,,,,,,,,,,,,,,,,,,,,,,,,,,,,,,,,,,,,,,,,,,,,,,,,,,,,,,,,,,,,,,,,,,,,,,,
0,38,38,23,1,,60563630dd344659e462b608,62bbfb13a9e1a6964bc288e8,2022-06-29_09h11.43,Colour_Asymmetry_Pilot,2022.1.3,MacIntel,58.82352941,62bbe60bf3d75ef465d3e404,,,,,,,,,,,,,,,,,,,,,,,,,,,,,,,,,,,,,,,,,,,,,,,,,,,,,,,,,,,,,,,,,,,,,,,,,,,,,,,,,,,,,,,,,,,,,,,,,,,,,,,,,,,,,,,,,,,,,,,,,,,,,,,,,,,,,,,,,,,,,,,,,,,,,,,,,,,,,,
0,39,39,11,1,,60563630dd344659e462b608,62bbfb13a9e1a6964bc288e8,2022-06-29_09h11.43,Colour_Asymmetry_Pilot,2022.1.3,MacIntel,58.82352941,62bbe60bf3d75ef465d3e404,,,,,,,,,,,,,,,,,,,,,,,,,,,,,,,,,,,,,,,,,,,,,,,,,,,,,,,,,,,,,,,,,,,,,,,,,,,,,,,,,,,,,,,,,,,,,,,,,,,,,,,,,,,,,,,,,,,,,,,,,,,,,,,,,,,,,,,,,,,,,,,,,,,,,,,,,,,,,,
0,40,40,71,1,,60563630dd344659e462b608,62bbfb13a9e1a6964bc288e8,2022-06-29_09h11.43,Colour_Asymmetry_Pilot,2022.1.3,MacIntel,58.82352941,62bbe60bf3d75ef465d3e404,,,,,,,,,,,,,,,,,,,,,,,,,,,,,,,,,,,,,,,,,,,,,,,,,,,,,,,,,,,,,,,,,,,,,,,,,,,,,,,,,,,,,,,,,,,,,,,,,,,,,,,,,,,,,,,,,,,,,,,,,,,,,,,,,,,,,,,,,,,,,,,,,,,,,,,,,,,,,,
0,41,41,20,1,,60563630dd344659e462b608,62bbfb13a9e1a6964bc288e8,2022-06-29_09h11.43,Colour_Asymmetry_Pilot,2022.1.3,MacIntel,58.82352941,62bbe60bf3d75ef465d3e404,,,,,,,,,,,,,,,,,,,,,,,,,,,,,,,,,,,,,,,,,,,,,,,,,,,,,,,,,,,,,,,,,,,,,,,,,,,,,,,,,,,,,,,,,,,,,,,,,,,,,,,,,,,,,,,,,,,,,,,,,,,,,,,,,,,,,,,,,,,,,,,,,,,,,,,,,,,,,,
0,42,42,4,1,,60563630dd344659e462b608,62bbfb13a9e1a6964bc288e8,2022-06-29_09h11.43,Colour_Asymmetry_Pilot,2022.1.3,MacIntel,58.82352941,62bbe60bf3d75ef465d3e404,,,,,,,,,,,,,,,,,,,,,,,,,,,,,,,,,,,,,,,,,,,,,,,,,,,,,,,,,,,,,,,,,,,,,,,,,,,,,,,,,,,,,,,,,,,,,,,,,,,,,,,,,,,,,,,,,,,,,,,,,,,,,,,,,,,,,,,,,,,,,,,,,,,,,,,,,,,,,,
0,43,43,86,1,,60563630dd344659e462b608,62bbfb13a9e1a6964bc288e8,2022-06-29_09h11.43,Colour_Asymmetry_Pilot,2022.1.3,MacIntel,58.82352941,62bbe60bf3d75ef465d3e404,,,,,,,,,,,,,,,,,,,,,,,,,,,,,,,,,,,,,,,,,,,,,,,,,,,,,,,,,,,,,,,,,,,,,,,,,,,,,,,,,,,,,,,,,,,,,,,,,,,,,,,,,,,,,,,,,,,,,,,,,,,,,,,,,,,,,,,,,,,,,,,,,,,,,,,,,,,,,,
0,44,44,69,1,,60563630dd344659e462b608,62bbfb13a9e1a6964bc288e8,2022-06-29_09h11.43,Colour_Asymmetry_Pilot,2022.1.3,MacIntel,58.82352941,62bbe60bf3d75ef465d3e404,,,,,,,,,,,,,,,,,,,,,,,,,,,,,,,,,,,,,,,,,,,,,,,,,,,,,,,,,,,,,,,,,,,,,,,,,,,,,,,,,,,,,,,,,,,,,,,,,,,,,,,,,,,,,,,,,,,,,,,,,,,,,,,,,,,,,,,,,,,,,,,,,,,,,,,,,,,,,,
0,45,45,6,1,,60563630dd344659e462b608,62bbfb13a9e1a6964bc288e8,2022-06-29_09h11.43,Colour_Asymmetry_Pilot,2022.1.3,MacIntel,58.82352941,62bbe60bf3d75ef465d3e404,,,,,,,,,,,,,,,,,,,,,,,,,,,,,,,,,,,,,,,,,,,,,,,,,,,,,,,,,,,,,,,,,,,,,,,,,,,,,,,,,,,,,,,,,,,,,,,,,,,,,,,,,,,,,,,,,,,,,,,,,,,,,,,,,,,,,,,,,,,,,,,,,,,,,,,,,,,,,,
0,46,46,79,1,,60563630dd344659e462b608,62bbfb13a9e1a6964bc288e8,2022-06-29_09h11.43,Colour_Asymmetry_Pilot,2022.1.3,MacIntel,58.82352941,62bbe60bf3d75ef465d3e404,,,,,,,,,,,,,,,,,,,,,,,,,,,,,,,,,,,,,,,,,,,,,,,,,,,,,,,,,,,,,,,,,,,,,,,,,,,,,,,,,,,,,,,,,,,,,,,,,,,,,,,,,,,,,,,,,,,,,,,,,,,,,,,,,,,,,,,,,,,,,,,,,,,,,,,,,,,,,,
0,47,47,70,1,,60563630dd344659e462b608,62bbfb13a9e1a6964bc288e8,2022-06-29_09h11.43,Colour_Asymmetry_Pilot,2022.1.3,MacIntel,58.82352941,62bbe60bf3d75ef465d3e404,,,,,,,,,,,,,,,,,,,,,,,,,,,,,,,,,,,,,,,,,,,,,,,,,,,,,,,,,,,,,,,,,,,,,,,,,,,,,,,,,,,,,,,,,,,,,,,,,,,,,,,,,,,,,,,,,,,,,,,,,,,,,,,,,,,,,,,,,,,,,,,,,,,,,,,,,,,,,,
0,48,48,82,1,,60563630dd344659e462b608,62bbfb13a9e1a6964bc288e8,2022-06-29_09h11.43,Colour_Asymmetry_Pilot,2022.1.3,MacIntel,58.82352941,62bbe60bf3d75ef465d3e404,,,,,,,,,,,,,,,,,,,,,,,,,,,,,,,,,,,,,,,,,,,,,,,,,,,,,,,,,,,,,,,,,,,,,,,,,,,,,,,,,,,,,,,,,,,,,,,,,,,,,,,,,,,,,,,,,,,,,,,,,,,,,,,,,,,,,,,,,,,,,,,,,,,,,,,,,,,,,,
0,49,49,66,1,,60563630dd344659e462b608,62bbfb13a9e1a6964bc288e8,2022-06-29_09h11.43,Colour_Asymmetry_Pilot,2022.1.3,MacIntel,58.82352941,62bbe60bf3d75ef465d3e404,,,,,,,,,,,,,,,,,,,,,,,,,,,,,,,,,,,,,,,,,,,,,,,,,,,,,,,,,,,,,,,,,,,,,,,,,,,,,,,,,,,,,,,,,,,,,,,,,,,,,,,,,,,,,,,,,,,,,,,,,,,,,,,,,,,,,,,,,,,,,,,,,,,,,,,,,,,,,,
0,50,50,16,1,,60563630dd344659e462b608,62bbfb13a9e1a6964bc288e8,2022-06-29_09h11.43,Colour_Asymmetry_Pilot,2022.1.3,MacIntel,58.82352941,62bbe60bf3d75ef465d3e404,,,,,,,,,,,,,,,,,,,,,,,,,,,,,,,,,,,,,,,,,,,,,,,,,,,,,,,,,,,,,,,,,,,,,,,,,,,,,,,,,,,,,,,,,,,,,,,,,,,,,,,,,,,,,,,,,,,,,,,,,,,,,,,,,,,,,,,,,,,,,,,,,,,,,,,,,,,,,,
0,51,51,53,1,,60563630dd344659e462b608,62bbfb13a9e1a6964bc288e8,2022-06-29_09h11.43,Colour_Asymmetry_Pilot,2022.1.3,MacIntel,58.82352941,62bbe60bf3d75ef465d3e404,,,,,,,,,,,,,,,,,,,,,,,,,,,,,,,,,,,,,,,,,,,,,,,,,,,,,,,,,,,,,,,,,,,,,,,,,,,,,,,,,,,,,,,,,,,,,,,,,,,,,,,,,,,,,,,,,,,,,,,,,,,,,,,,,,,,,,,,,,,,,,,,,,,,,,,,,,,,,,
0,52,52,40,1,,60563630dd344659e462b608,62bbfb13a9e1a6964bc288e8,2022-06-29_09h11.43,Colour_Asymmetry_Pilot,2022.1.3,MacIntel,58.82352941,62bbe60bf3d75ef465d3e404,,,,,,,,,,,,,,,,,,,,,,,,,,,,,,,,,,,,,,,,,,,,,,,,,,,,,,,,,,,,,,,,,,,,,,,,,,,,,,,,,,,,,,,,,,,,,,,,,,,,,,,,,,,,,,,,,,,,,,,,,,,,,,,,,,,,,,,,,,,,,,,,,,,,,,,,,,,,,,
0,53,53,47,1,,60563630dd344659e462b608,62bbfb13a9e1a6964bc288e8,2022-06-29_09h11.43,Colour_Asymmetry_Pilot,2022.1.3,MacIntel,58.82352941,62bbe60bf3d75ef465d3e404,,,,,,,,,,,,,,,,,,,,,,,,,,,,,,,,,,,,,,,,,,,,,,,,,,,,,,,,,,,,,,,,,,,,,,,,,,,,,,,,,,,,,,,,,,,,,,,,,,,,,,,,,,,,,,,,,,,,,,,,,,,,,,,,,,,,,,,,,,,,,,,,,,,,,,,,,,,,,,
0,54,54,90,1,,60563630dd344659e462b608,62bbfb13a9e1a6964bc288e8,2022-06-29_09h11.43,Colour_Asymmetry_Pilot,2022.1.3,MacIntel,58.82352941,62bbe60bf3d75ef465d3e404,,,,,,,,,,,,,,,,,,,,,,,,,,,,,,,,,,,,,,,,,,,,,,,,,,,,,,,,,,,,,,,,,,,,,,,,,,,,,,,,,,,,,,,,,,,,,,,,,,,,,,,,,,,,,,,,,,,,,,,,,,,,,,,,,,,,,,,,,,,,,,,,,,,,,,,,,,,,,,
0,55,55,7,1,,60563630dd344659e462b608,62bbfb13a9e1a6964bc288e8,2022-06-29_09h11.43,Colour_Asymmetry_Pilot,2022.1.3,MacIntel,58.82352941,62bbe60bf3d75ef465d3e404,,,,,,,,,,,,,,,,,,,,,,,,,,,,,,,,,,,,,,,,,,,,,,,,,,,,,,,,,,,,,,,,,,,,,,,,,,,,,,,,,,,,,,,,,,,,,,,,,,,,,,,,,,,,,,,,,,,,,,,,,,,,,,,,,,,,,,,,,,,,,,,,,,,,,,,,,,,,,,
0,56,56,72,1,,60563630dd344659e462b608,62bbfb13a9e1a6964bc288e8,2022-06-29_09h11.43,Colour_Asymmetry_Pilot,2022.1.3,MacIntel,58.82352941,62bbe60bf3d75ef465d3e404,,,,,,,,,,,,,,,,,,,,,,,,,,,,,,,,,,,,,,,,,,,,,,,,,,,,,,,,,,,,,,,,,,,,,,,,,,,,,,,,,,,,,,,,,,,,,,,,,,,,,,,,,,,,,,,,,,,,,,,,,,,,,,,,,,,,,,,,,,,,,,,,,,,,,,,,,,,,,,
0,57,57,34,1,,60563630dd344659e462b608,62bbfb13a9e1a6964bc288e8,2022-06-29_09h11.43,Colour_Asymmetry_Pilot,2022.1.3,MacIntel,58.82352941,62bbe60bf3d75ef465d3e404,,,,,,,,,,,,,,,,,,,,,,,,,,,,,,,,,,,,,,,,,,,,,,,,,,,,,,,,,,,,,,,,,,,,,,,,,,,,,,,,,,,,,,,,,,,,,,,,,,,,,,,,,,,,,,,,,,,,,,,,,,,,,,,,,,,,,,,,,,,,,,,,,,,,,,,,,,,,,,
0,58,58,84,1,,60563630dd344659e462b608,62bbfb13a9e1a6964bc288e8,2022-06-29_09h11.43,Colour_Asymmetry_Pilot,2022.1.3,MacIntel,58.82352941,62bbe60bf3d75ef465d3e404,,,,,,,,,,,,,,,,,,,,,,,,,,,,,,,,,,,,,,,,,,,,,,,,,,,,,,,,,,,,,,,,,,,,,,,,,,,,,,,,,,,,,,,,,,,,,,,,,,,,,,,,,,,,,,,,,,,,,,,,,,,,,,,,,,,,,,,,,,,,,,,,,,,,,,,,,,,,,,
0,59,59,24,1,,60563630dd344659e462b608,62bbfb13a9e1a6964bc288e8,2022-06-29_09h11.43,Colour_Asymmetry_Pilot,2022.1.3,MacIntel,58.82352941,62bbe60bf3d75ef465d3e404,,,,,,,,,,,,,,,,,,,,,,,,,,,,,,,,,,,,,,,,,,,,,,,,,,,,,,,,,,,,,,,,,,,,,,,,,,,,,,,,,,,,,,,,,,,,,,,,,,,,,,,,,,,,,,,,,,,,,,,,,,,,,,,,,,,,,,,,,,,,,,,,,,,,,,,,,,,,,,
0,60,60,92,1,,60563630dd344659e462b608,62bbfb13a9e1a6964bc288e8,2022-06-29_09h11.43,Colour_Asymmetry_Pilot,2022.1.3,MacIntel,58.82352941,62bbe60bf3d75ef465d3e404,,,,,,,,,,,,,,,,,,,,,,,,,,,,,,,,,,,,,,,,,,,,,,,,,,,,,,,,,,,,,,,,,,,,,,,,,,,,,,,,,,,,,,,,,,,,,,,,,,,,,,,,,,,,,,,,,,,,,,,,,,,,,,,,,,,,,,,,,,,,,,,,,,,,,,,,,,,,,,
0,61,61,80,1,,60563630dd344659e462b608,62bbfb13a9e1a6964bc288e8,2022-06-29_09h11.43,Colour_Asymmetry_Pilot,2022.1.3,MacIntel,58.82352941,62bbe60bf3d75ef465d3e404,,,,,,,,,,,,,,,,,,,,,,,,,,,,,,,,,,,,,,,,,,,,,,,,,,,,,,,,,,,,,,,,,,,,,,,,,,,,,,,,,,,,,,,,,,,,,,,,,,,,,,,,,,,,,,,,,,,,,,,,,,,,,,,,,,,,,,,,,,,,,,,,,,,,,,,,,,,,,,
0,62,62,78,1,,60563630dd344659e462b608,62bbfb13a9e1a6964bc288e8,2022-06-29_09h11.43,Colour_Asymmetry_Pilot,2022.1.3,MacIntel,58.82352941,62bbe60bf3d75ef465d3e404,,,,,,,,,,,,,,,,,,,,,,,,,,,,,,,,,,,,,,,,,,,,,,,,,,,,,,,,,,,,,,,,,,,,,,,,,,,,,,,,,,,,,,,,,,,,,,,,,,,,,,,,,,,,,,,,,,,,,,,,,,,,,,,,,,,,,,,,,,,,,,,,,,,,,,,,,,,,,,
0,63,63,73,1,,60563630dd344659e462b608,62bbfb13a9e1a6964bc288e8,2022-06-29_09h11.43,Colour_Asymmetry_Pilot,2022.1.3,MacIntel,58.82352941,62bbe60bf3d75ef465d3e404,,,,,,,,,,,,,,,,,,,,,,,,,,,,,,,,,,,,,,,,,,,,,,,,,,,,,,,,,,,,,,,,,,,,,,,,,,,,,,,,,,,,,,,,,,,,,,,,,,,,,,,,,,,,,,,,,,,,,,,,,,,,,,,,,,,,,,,,,,,,,,,,,,,,,,,,,,,,,,
0,64,64,36,1,,60563630dd344659e462b608,62bbfb13a9e1a6964bc288e8,2022-06-29_09h11.43,Colour_Asymmetry_Pilot,2022.1.3,MacIntel,58.82352941,62bbe60bf3d75ef465d3e404,,,,,,,,,,,,,,,,,,,,,,,,,,,,,,,,,,,,,,,,,,,,,,,,,,,,,,,,,,,,,,,,,,,,,,,,,,,,,,,,,,,,,,,,,,,,,,,,,,,,,,,,,,,,,,,,,,,,,,,,,,,,,,,,,,,,,,,,,,,,,,,,,,,,,,,,,,,,,,
0,65,65,38,1,,60563630dd344659e462b608,62bbfb13a9e1a6964bc288e8,2022-06-29_09h11.43,Colour_Asymmetry_Pilot,2022.1.3,MacIntel,58.82352941,62bbe60bf3d75ef465d3e404,,,,,,,,,,,,,,,,,,,,,,,,,,,,,,,,,,,,,,,,,,,,,,,,,,,,,,,,,,,,,,,,,,,,,,,,,,,,,,,,,,,,,,,,,,,,,,,,,,,,,,,,,,,,,,,,,,,,,,,,,,,,,,,,,,,,,,,,,,,,,,,,,,,,,,,,,,,,,,
0,66,66,31,1,,60563630dd344659e462b608,62bbfb13a9e1a6964bc288e8,2022-06-29_09h11.43,Colour_Asymmetry_Pilot,2022.1.3,MacIntel,58.82352941,62bbe60bf3d75ef465d3e404,,,,,,,,,,,,,,,,,,,,,,,,,,,,,,,,,,,,,,,,,,,,,,,,,,,,,,,,,,,,,,,,,,,,,,,,,,,,,,,,,,,,,,,,,,,,,,,,,,,,,,,,,,,,,,,,,,,,,,,,,,,,,,,,,,,,,,,,,,,,,,,,,,,,,,,,,,,,,,
0,67,67,21,1,,60563630dd344659e462b608,62bbfb13a9e1a6964bc288e8,2022-06-29_09h11.43,Colour_Asymmetry_Pilot,2022.1.3,MacIntel,58.82352941,62bbe60bf3d75ef465d3e404,,,,,,,,,,,,,,,,,,,,,,,,,,,,,,,,,,,,,,,,,,,,,,,,,,,,,,,,,,,,,,,,,,,,,,,,,,,,,,,,,,,,,,,,,,,,,,,,,,,,,,,,,,,,,,,,,,,,,,,,,,,,,,,,,,,,,,,,,,,,,,,,,,,,,,,,,,,,,,
0,68,68,56,1,,60563630dd344659e462b608,62bbfb13a9e1a6964bc288e8,2022-06-29_09h11.43,Colour_Asymmetry_Pilot,2022.1.3,MacIntel,58.82352941,62bbe60bf3d75ef465d3e404,,,,,,,,,,,,,,,,,,,,,,,,,,,,,,,,,,,,,,,,,,,,,,,,,,,,,,,,,,,,,,,,,,,,,,,,,,,,,,,,,,,,,,,,,,,,,,,,,,,,,,,,,,,,,,,,,,,,,,,,,,,,,,,,,,,,,,,,,,,,,,,,,,,,,,,,,,,,,,
0,69,69,33,1,,60563630dd344659e462b608,62bbfb13a9e1a6964bc288e8,2022-06-29_09h11.43,Colour_Asymmetry_Pilot,2022.1.3,MacIntel,58.82352941,62bbe60bf3d75ef465d3e404,,,,,,,,,,,,,,,,,,,,,,,,,,,,,,,,,,,,,,,,,,,,,,,,,,,,,,,,,,,,,,,,,,,,,,,,,,,,,,,,,,,,,,,,,,,,,,,,,,,,,,,,,,,,,,,,,,,,,,,,,,,,,,,,,,,,,,,,,,,,,,,,,,,,,,,,,,,,,,
0,70,70,10,1,,60563630dd344659e462b608,62bbfb13a9e1a6964bc288e8,2022-06-29_09h11.43,Colour_Asymmetry_Pilot,2022.1.3,MacIntel,58.82352941,62bbe60bf3d75ef465d3e404,,,,,,,,,,,,,,,,,,,,,,,,,,,,,,,,,,,,,,,,,,,,,,,,,,,,,,,,,,,,,,,,,,,,,,,,,,,,,,,,,,,,,,,,,,,,,,,,,,,,,,,,,,,,,,,,,,,,,,,,,,,,,,,,,,,,,,,,,,,,,,,,,,,,,,,,,,,,,,
0,71,71,18,1,,60563630dd344659e462b608,62bbfb13a9e1a6964bc288e8,2022-06-29_09h11.43,Colour_Asymmetry_Pilot,2022.1.3,MacIntel,58.82352941,62bbe60bf3d75ef465d3e404,,,,,,,,,,,,,,,,,,,,,,,,,,,,,,,,,,,,,,,,,,,,,,,,,,,,,,,,,,,,,,,,,,,,,,,,,,,,,,,,,,,,,,,,,,,,,,,,,,,,,,,,,,,,,,,,,,,,,,,,,,,,,,,,,,,,,,,,,,,,,,,,,,,,,,,,,,,,,,
0,72,72,3,1,,60563630dd344659e462b608,62bbfb13a9e1a6964bc288e8,2022-06-29_09h11.43,Colour_Asymmetry_Pilot,2022.1.3,MacIntel,58.82352941,62bbe60bf3d75ef465d3e404,,,,,,,,,,,,,,,,,,,,,,,,,,,,,,,,,,,,,,,,,,,,,,,,,,,,,,,,,,,,,,,,,,,,,,,,,,,,,,,,,,,,,,,,,,,,,,,,,,,,,,,,,,,,,,,,,,,,,,,,,,,,,,,,,,,,,,,,,,,,,,,,,,,,,,,,,,,,,,
0,73,73,89,1,,60563630dd344659e462b608,62bbfb13a9e1a6964bc288e8,2022-06-29_09h11.43,Colour_Asymmetry_Pilot,2022.1.3,MacIntel,58.82352941,62bbe60bf3d75ef465d3e404,,,,,,,,,,,,,,,,,,,,,,,,,,,,,,,,,,,,,,,,,,,,,,,,,,,,,,,,,,,,,,,,,,,,,,,,,,,,,,,,,,,,,,,,,,,,,,,,,,,,,,,,,,,,,,,,,,,,,,,,,,,,,,,,,,,,,,,,,,,,,,,,,,,,,,,,,,,,,,
0,74,74,64,1,,60563630dd344659e462b608,62bbfb13a9e1a6964bc288e8,2022-06-29_09h11.43,Colour_Asymmetry_Pilot,2022.1.3,MacIntel,58.82352941,62bbe60bf3d75ef465d3e404,,,,,,,,,,,,,,,,,,,,,,,,,,,,,,,,,,,,,,,,,,,,,,,,,,,,,,,,,,,,,,,,,,,,,,,,,,,,,,,,,,,,,,,,,,,,,,,,,,,,,,,,,,,,,,,,,,,,,,,,,,,,,,,,,,,,,,,,,,,,,,,,,,,,,,,,,,,,,,
0,75,75,13,1,,60563630dd344659e462b608,62bbfb13a9e1a6964bc288e8,2022-06-29_09h11.43,Colour_Asymmetry_Pilot,2022.1.3,MacIntel,58.82352941,62bbe60bf3d75ef465d3e404,,,,,,,,,,,,,,,,,,,,,,,,,,,,,,,,,,,,,,,,,,,,,,,,,,,,,,,,,,,,,,,,,,,,,,,,,,,,,,,,,,,,,,,,,,,,,,,,,,,,,,,,,,,,,,,,,,,,,,,,,,,,,,,,,,,,,,,,,,,,,,,,,,,,,,,,,,,,,,
0,76,76,28,1,,60563630dd344659e462b608,62bbfb13a9e1a6964bc288e8,2022-06-29_09h11.43,Colour_Asymmetry_Pilot,2022.1.3,MacIntel,58.82352941,62bbe60bf3d75ef465d3e404,,,,,,,,,,,,,,,,,,,,,,,,,,,,,,,,,,,,,,,,,,,,,,,,,,,,,,,,,,,,,,,,,,,,,,,,,,,,,,,,,,,,,,,,,,,,,,,,,,,,,,,,,,,,,,,,,,,,,,,,,,,,,,,,,,,,,,,,,,,,,,,,,,,,,,,,,,,,,,
0,77,77,46,1,,60563630dd344659e462b608,62bbfb13a9e1a6964bc288e8,2022-06-29_09h11.43,Colour_Asymmetry_Pilot,2022.1.3,MacIntel,58.82352941,62bbe60bf3d75ef465d3e404,,,,,,,,,,,,,,,,,,,,,,,,,,,,,,,,,,,,,,,,,,,,,,,,,,,,,,,,,,,,,,,,,,,,,,,,,,,,,,,,,,,,,,,,,,,,,,,,,,,,,,,,,,,,,,,,,,,,,,,,,,,,,,,,,,,,,,,,,,,,,,,,,,,,,,,,,,,,,,
0,78,78,39,1,,60563630dd344659e462b608,62bbfb13a9e1a6964bc288e8,2022-06-29_09h11.43,Colour_Asymmetry_Pilot,2022.1.3,MacIntel,58.82352941,62bbe60bf3d75ef465d3e404,,,,,,,,,,,,,,,,,,,,,,,,,,,,,,,,,,,,,,,,,,,,,,,,,,,,,,,,,,,,,,,,,,,,,,,,,,,,,,,,,,,,,,,,,,,,,,,,,,,,,,,,,,,,,,,,,,,,,,,,,,,,,,,,,,,,,,,,,,,,,,,,,,,,,,,,,,,,,,
0,79,79,81,1,,60563630dd344659e462b608,62bbfb13a9e1a6964bc288e8,2022-06-29_09h11.43,Colour_Asymmetry_Pilot,2022.1.3,MacIntel,58.82352941,62bbe60bf3d75ef465d3e404,,,,,,,,,,,,,,,,,,,,,,,,,,,,,,,,,,,,,,,,,,,,,,,,,,,,,,,,,,,,,,,,,,,,,,,,,,,,,,,,,,,,,,,,,,,,,,,,,,,,,,,,,,,,,,,,,,,,,,,,,,,,,,,,,,,,,,,,,,,,,,,,,,,,,,,,,,,,,,
0,80,80,17,1,,60563630dd344659e462b608,62bbfb13a9e1a6964bc288e8,2022-06-29_09h11.43,Colour_Asymmetry_Pilot,2022.1.3,MacIntel,58.82352941,62bbe60bf3d75ef465d3e404,,,,,,,,,,,,,,,,,,,,,,,,,,,,,,,,,,,,,,,,,,,,,,,,,,,,,,,,,,,,,,,,,,,,,,,,,,,,,,,,,,,,,,,,,,,,,,,,,,,,,,,,,,,,,,,,,,,,,,,,,,,,,,,,,,,,,,,,,,,,,,,,,,,,,,,,,,,,,,
0,81,81,59,1,,60563630dd344659e462b608,62bbfb13a9e1a6964bc288e8,2022-06-29_09h11.43,Colour_Asymmetry_Pilot,2022.1.3,MacIntel,58.82352941,62bbe60bf3d75ef465d3e404,,,,,,,,,,,,,,,,,,,,,,,,,,,,,,,,,,,,,,,,,,,,,,,,,,,,,,,,,,,,,,,,,,,,,,,,,,,,,,,,,,,,,,,,,,,,,,,,,,,,,,,,,,,,,,,,,,,,,,,,,,,,,,,,,,,,,,,,,,,,,,,,,,,,,,,,,,,,,,
0,82,82,62,1,,60563630dd344659e462b608,62bbfb13a9e1a6964bc288e8,2022-06-29_09h11.43,Colour_Asymmetry_Pilot,2022.1.3,MacIntel,58.82352941,62bbe60bf3d75ef465d3e404,,,,,,,,,,,,,,,,,,,,,,,,,,,,,,,,,,,,,,,,,,,,,,,,,,,,,,,,,,,,,,,,,,,,,,,,,,,,,,,,,,,,,,,,,,,,,,,,,,,,,,,,,,,,,,,,,,,,,,,,,,,,,,,,,,,,,,,,,,,,,,,,,,,,,,,,,,,,,,
0,83,83,42,1,,60563630dd344659e462b608,62bbfb13a9e1a6964bc288e8,2022-06-29_09h11.43,Colour_Asymmetry_Pilot,2022.1.3,MacIntel,58.82352941,62bbe60bf3d75ef465d3e404,,,,,,,,,,,,,,,,,,,,,,,,,,,,,,,,,,,,,,,,,,,,,,,,,,,,,,,,,,,,,,,,,,,,,,,,,,,,,,,,,,,,,,,,,,,,,,,,,,,,,,,,,,,,,,,,,,,,,,,,,,,,,,,,,,,,,,,,,,,,,,,,,,,,,,,,,,,,,,
0,84,84,88,1,,60563630dd344659e462b608,62bbfb13a9e1a6964bc288e8,2022-06-29_09h11.43,Colour_Asymmetry_Pilot,2022.1.3,MacIntel,58.82352941,62bbe60bf3d75ef465d3e404,,,,,,,,,,,,,,,,,,,,,,,,,,,,,,,,,,,,,,,,,,,,,,,,,,,,,,,,,,,,,,,,,,,,,,,,,,,,,,,,,,,,,,,,,,,,,,,,,,,,,,,,,,,,,,,,,,,,,,,,,,,,,,,,,,,,,,,,,,,,,,,,,,,,,,,,,,,,,,
0,85,85,32,1,,60563630dd344659e462b608,62bbfb13a9e1a6964bc288e8,2022-06-29_09h11.43,Colour_Asymmetry_Pilot,2022.1.3,MacIntel,58.82352941,62bbe60bf3d75ef465d3e404,,,,,,,,,,,,,,,,,,,,,,,,,,,,,,,,,,,,,,,,,,,,,,,,,,,,,,,,,,,,,,,,,,,,,,,,,,,,,,,,,,,,,,,,,,,,,,,,,,,,,,,,,,,,,,,,,,,,,,,,,,,,,,,,,,,,,,,,,,,,,,,,,,,,,,,,,,,,,,
0,86,86,14,1,,60563630dd344659e462b608,62bbfb13a9e1a6964bc288e8,2022-06-29_09h11.43,Colour_Asymmetry_Pilot,2022.1.3,MacIntel,58.82352941,62bbe60bf3d75ef465d3e404,,,,,,,,,,,,,,,,,,,,,,,,,,,,,,,,,,,,,,,,,,,,,,,,,,,,,,,,,,,,,,,,,,,,,,,,,,,,,,,,,,,,,,,,,,,,,,,,,,,,,,,,,,,,,,,,,,,,,,,,,,,,,,,,,,,,,,,,,,,,,,,,,,,,,,,,,,,,,,
0,87,87,25,1,,60563630dd344659e462b608,62bbfb13a9e1a6964bc288e8,2022-06-29_09h11.43,Colour_Asymmetry_Pilot,2022.1.3,MacIntel,58.82352941,62bbe60bf3d75ef465d3e404,,,,,,,,,,,,,,,,,,,,,,,,,,,,,,,,,,,,,,,,,,,,,,,,,,,,,,,,,,,,,,,,,,,,,,,,,,,,,,,,,,,,,,,,,,,,,,,,,,,,,,,,,,,,,,,,,,,,,,,,,,,,,,,,,,,,,,,,,,,,,,,,,,,,,,,,,,,,,,
0,88,88,52,1,,60563630dd344659e462b608,62bbfb13a9e1a6964bc288e8,2022-06-29_09h11.43,Colour_Asymmetry_Pilot,2022.1.3,MacIntel,58.82352941,62bbe60bf3d75ef465d3e404,,,,,,,,,,,,,,,,,,,,,,,,,,,,,,,,,,,,,,,,,,,,,,,,,,,,,,,,,,,,,,,,,,,,,,,,,,,,,,,,,,,,,,,,,,,,,,,,,,,,,,,,,,,,,,,,,,,,,,,,,,,,,,,,,,,,,,,,,,,,,,,,,,,,,,,,,,,,,,
0,89,89,49,1,,60563630dd344659e462b608,62bbfb13a9e1a6964bc288e8,2022-06-29_09h11.43,Colour_Asymmetry_Pilot,2022.1.3,MacIntel,58.82352941,62bbe60bf3d75ef465d3e404,,,,,,,,,,,,,,,,,,,,,,,,,,,,,,,,,,,,,,,,,,,,,,,,,,,,,,,,,,,,,,,,,,,,,,,,,,,,,,,,,,,,,,,,,,,,,,,,,,,,,,,,,,,,,,,,,,,,,,,,,,,,,,,,,,,,,,,,,,,,,,,,,,,,,,,,,,,,,,
0,90,90,44,1,,60563630dd344659e462b608,62bbfb13a9e1a6964bc288e8,2022-06-29_09h11.43,Colour_Asymmetry_Pilot,2022.1.3,MacIntel,58.82352941,62bbe60bf3d75ef465d3e404,,,,,,,,,,,,,,,,,,,,,,,,,,,,,,,,,,,,,,,,,,,,,,,,,,,,,,,,,,,,,,,,,,,,,,,,,,,,,,,,,,,,,,,,,,,,,,,,,,,,,,,,,,,,,,,,,,,,,,,,,,,,,,,,,,,,,,,,,,,,,,,,,,,,,,,,,,,,,,
0,91,91,57,1,,60563630dd344659e462b608,62bbfb13a9e1a6964bc288e8,2022-06-29_09h11.43,Colour_Asymmetry_Pilot,2022.1.3,MacIntel,58.82352941,62bbe60bf3d75ef465d3e404,,,,,,,,,,,,,,,,,,,,,,,,,,,,,,,,,,,,,,,,,,,,,,,,,,,,,,,,,,,,,,,,,,,,,,,,,,,,,,,,,,,,,,,,,,,,,,,,,,,,,,,,,,,,,,,,,,,,,,,,,,,,,,,,,,,,,,,,,,,,,,,,,,,,,,,,,,,,,,
0,92,92,12,1,,60563630dd344659e462b608,62bbfb13a9e1a6964bc288e8,2022-06-29_09h11.43,Colour_Asymmetry_Pilot,2022.1.3,MacIntel,58.82352941,62bbe60bf3d75ef465d3e404,,,,,,,,,,,,,,,,,,,,,,,,,,,,,,,,,,,,,,,,,,,,,,,,,,,,,,,,,,,,,,,,,,,,,,,,,,,,,,,,,,,,,,,,,,,,,,,,,,,,,,,,,,,,,,,,,,,,,,,,,,,,,,,,,,,,,,,,,,,,,,,,,,,,,,,,,,,,,,
,,,,,,60563630dd344659e462b608,62bbfb13a9e1a6964bc288e8,2022-06-29_09h11.43,Colour_Asymmetry_Pilot,2022.1.3,MacIntel,58.82352941,62bbe60bf3d75ef465d3e404,0,0,0,38,1,fourtwo,,,,,,,,,,,,,,,,,,,,,,,,,,,,,,,,,,,,,,,,,,,,,,,,,,,,,,,,,,,,,,,,,,,,,,,,,,,,,,,,,,,,,,,,,,,,,,,,,,,,,,,,,,,,,,,,,,,,,,,,,,,,,,,,,,,,,,,,,,,,,,,,,,,,,,,,
,,,,,,60563630dd344659e462b608,62bbfb13a9e1a6964bc288e8,2022-06-29_09h11.43,Colour_Asymmetry_Pilot,2022.1.3,MacIntel,58.82352941,62bbe60bf3d75ef465d3e404,0,1,1,153,1,onethree,,,,,,,,,,,,,,,,,,,,,,,,,,,,,,,,,,,,,,,,,,,,,,,,,,,,,,,,,,,,,,,,,,,,,,,,,,,,,,,,,,,,,,,,,,,,,,,,,,,,,,,,,,,,,,,,,,,,,,,,,,,,,,,,,,,,,,,,,,,,,,,,,,,,,,,,
,,,,,,60563630dd344659e462b608,62bbfb13a9e1a6964bc288e8,2022-06-29_09h11.43,Colour_Asymmetry_Pilot,2022.1.3,MacIntel,58.82352941,62bbe60bf3d75ef465d3e404,0,2,2,142,1,fourtwo,,,,,,,,,,,,,,,,,,,,,,,,,,,,,,,,,,,,,,,,,,,,,,,,,,,,,,,,,,,,,,,,,,,,,,,,,,,,,,,,,,,,,,,,,,,,,,,,,,,,,,,,,,,,,,,,,,,,,,,,,,,,,,,,,,,,,,,,,,,,,,,,,,,,,,,,
,,,,,,60563630dd344659e462b608,62bbfb13a9e1a6964bc288e8,2022-06-29_09h11.43,Colour_Asymmetry_Pilot,2022.1.3,MacIntel,58.82352941,62bbe60bf3d75ef465d3e404,0,3,3,102,1,fourtwo,,,,,,,,,,,,,,,,,,,,,,,,,,,,,,,,,,,,,,,,,,,,,,,,,,,,,,,,,,,,,,,,,,,,,,,,,,,,,,,,,,,,,,,,,,,,,,,,,,,,,,,,,,,,,,,,,,,,,,,,,,,,,,,,,,,,,,,,,,,,,,,,,,,,,,,,
,,,,,,60563630dd344659e462b608,62bbfb13a9e1a6964bc288e8,2022-06-29_09h11.43,Colour_Asymmetry_Pilot,2022.1.3,MacIntel,58.82352941,62bbe60bf3d75ef465d3e404,0,4,4,49,1,onethree,,,,,,,,,,,,,,,,,,,,,,,,,,,,,,,,,,,,,,,,,,,,,,,,,,,,,,,,,,,,,,,,,,,,,,,,,,,,,,,,,,,,,,,,,,,,,,,,,,,,,,,,,,,,,,,,,,,,,,,,,,,,,,,,,,,,,,,,,,,,,,,,,,,,,,,,
,,,,,,60563630dd344659e462b608,62bbfb13a9e1a6964bc288e8,2022-06-29_09h11.43,Colour_Asymmetry_Pilot,2022.1.3,MacIntel,58.82352941,62bbe60bf3d75ef465d3e404,0,5,5,56,1,onetwo,,,,,,,,,,,,,,,,,,,,,,,,,,,,,,,,,,,,,,,,,,,,,,,,,,,,,,,,,,,,,,,,,,,,,,,,,,,,,,,,,,,,,,,,,,,,,,,,,,,,,,,,,,,,,,,,,,,,,,,,,,,,,,,,,,,,,,,,,,,,,,,,,,,,,,,,
,,,,,,60563630dd344659e462b608,62bbfb13a9e1a6964bc288e8,2022-06-29_09h11.43,Colour_Asymmetry_Pilot,2022.1.3,MacIntel,58.82352941,62bbe60bf3d75ef465d3e404,0,6,6,136,1,onetwo,,,,,,,,,,,,,,,,,,,,,,,,,,,,,,,,,,,,,,,,,,,,,,,,,,,,,,,,,,,,,,,,,,,,,,,,,,,,,,,,,,,,,,,,,,,,,,,,,,,,,,,,,,,,,,,,,,,,,,,,,,,,,,,,,,,,,,,,,,,,,,,,,,,,,,,,
,,,,,,60563630dd344659e462b608,62bbfb13a9e1a6964bc288e8,2022-06-29_09h11.43,Colour_Asymmetry_Pilot,2022.1.3,MacIntel,58.82352941,62bbe60bf3d75ef465d3e404,0,7,7,115,1,twofour,,,,,,,,,,,,,,,,,,,,,,,,,,,,,,,,,,,,,,,,,,,,,,,,,,,,,,,,,,,,,,,,,,,,,,,,,,,,,,,,,,,,,,,,,,,,,,,,,,,,,,,,,,,,,,,,,,,,,,,,,,,,,,,,,,,,,,,,,,,,,,,,,,,,,,,,
,,,,,,60563630dd344659e462b608,62bbfb13a9e1a6964bc288e8,2022-06-29_09h11.43,Colour_Asymmetry_Pilot,2022.1.3,MacIntel,58.82352941,62bbe60bf3d75ef465d3e404,0,8,8,59,1,twofour,,,,,,,,,,,,,,,,,,,,,,,,,,,,,,,,,,,,,,,,,,,,,,,,,,,,,,,,,,,,,,,,,,,,,,,,,,,,,,,,,,,,,,,,,,,,,,,,,,,,,,,,,,,,,,,,,,,,,,,,,,,,,,,,,,,,,,,,,,,,,,,,,,,,,,,,
,,,,,,60563630dd344659e462b608,62bbfb13a9e1a6964bc288e8,2022-06-29_09h11.43,Colour_Asymmetry_Pilot,2022.1.3,MacIntel,58.82352941,62bbe60bf3d75ef465d3e404,0,9,9,129,1,onethree,,,,,,,,,,,,,,,,,,,,,,,,,,,,,,,,,,,,,,,,,,,,,,,,,,,,,,,,,,,,,,,,,,,,,,,,,,,,,,,,,,,,,,,,,,,,,,,,,,,,,,,,,,,,,,,,,,,,,,,,,,,,,,,,,,,,,,,,,,,,,,,,,,,,,,,,
,,,,,,60563630dd344659e462b608,62bbfb13a9e1a6964bc288e8,2022-06-29_09h11.43,Colour_Asymmetry_Pilot,2022.1.3,MacIntel,58.82352941,62bbe60bf3d75ef465d3e404,0,10,10,40,1,onetwo,,,,,,,,,,,,,,,,,,,,,,,,,,,,,,,,,,,,,,,,,,,,,,,,,,,,,,,,,,,,,,,,,,,,,,,,,,,,,,,,,,,,,,,,,,,,,,,,,,,,,,,,,,,,,,,,,,,,,,,,,,,,,,,,,,,,,,,,,,,,,,,,,,,,,,,,
,,,,,,60563630dd344659e462b608,62bbfb13a9e1a6964bc288e8,2022-06-29_09h11.43,Colour_Asymmetry_Pilot,2022.1.3,MacIntel,58.82352941,62bbe60bf3d75ef465d3e404,0,11,11,47,1,fourthree,,,,,,,,,,,,,,,,,,,,,,,,,,,,,,,,,,,,,,,,,,,,,,,,,,,,,,,,,,,,,,,,,,,,,,,,,,,,,,,,,,,,,,,,,,,,,,,,,,,,,,,,,,,,,,,,,,,,,,,,,,,,,,,,,,,,,,,,,,,,,,,,,,,,,,,,
,,,,,,60563630dd344659e462b608,62bbfb13a9e1a6964bc288e8,2022-06-29_09h11.43,Colour_Asymmetry_Pilot,2022.1.3,MacIntel,58.82352941,62bbe60bf3d75ef465d3e404,0,12,12,42,1,twoone,,,,,,,,,,,,,,,,,,,,,,,,,,,,,,,,,,,,,,,,,,,,,,,,,,,,,,,,,,,,,,,,,,,,,,,,,,,,,,,,,,,,,,,,,,,,,,,,,,,,,,,,,,,,,,,,,,,,,,,,,,,,,,,,,,,,,,,,,,,,,,,,,,,,,,,,
,,,,,,60563630dd344659e462b608,62bbfb13a9e1a6964bc288e8,2022-06-29_09h11.43,Colour_Asymmetry_Pilot,2022.1.3,MacIntel,58.82352941,62bbe60bf3d75ef465d3e404,0,13,13,68,1,threeone,,,,,,,,,,,,,,,,,,,,,,,,,,,,,,,,,,,,,,,,,,,,,,,,,,,,,,,,,,,,,,,,,,,,,,,,,,,,,,,,,,,,,,,,,,,,,,,,,,,,,,,,,,,,,,,,,,,,,,,,,,,,,,,,,,,,,,,,,,,,,,,,,,,,,,,,
,,,,,,60563630dd344659e462b608,62bbfb13a9e1a6964bc288e8,2022-06-29_09h11.43,Colour_Asymmetry_Pilot,2022.1.3,MacIntel,58.82352941,62bbe60bf3d75ef465d3e404,0,14,14,159,1,fourthree,,,,,,,,,,,,,,,,,,,,,,,,,,,,,,,,,,,,,,,,,,,,,,,,,,,,,,,,,,,,,,,,,,,,,,,,,,,,,,,,,,,,,,,,,,,,,,,,,,,,,,,,,,,,,,,,,,,,,,,,,,,,,,,,,,,,,,,,,,,,,,,,,,,,,,,,
,,,,,,60563630dd344659e462b608,62bbfb13a9e1a6964bc288e8,2022-06-29_09h11.43,Colour_Asymmetry_Pilot,2022.1.3,MacIntel,58.82352941,62bbe60bf3d75ef465d3e404,0,15,15,120,1,onetwo,,,,,,,,,,,,,,,,,,,,,,,,,,,,,,,,,,,,,,,,,,,,,,,,,,,,,,,,,,,,,,,,,,,,,,,,,,,,,,,,,,,,,,,,,,,,,,,,,,,,,,,,,,,,,,,,,,,,,,,,,,,,,,,,,,,,,,,,,,,,,,,,,,,,,,,,
,,,,,,60563630dd344659e462b608,62bbfb13a9e1a6964bc288e8,2022-06-29_09h11.43,Colour_Asymmetry_Pilot,2022.1.3,MacIntel,58.82352941,62bbe60bf3d75ef465d3e404,0,16,16,92,1,threeone,,,,,,,,,,,,,,,,,,,,,,,,,,,,,,,,,,,,,,,,,,,,,,,,,,,,,,,,,,,,,,,,,,,,,,,,,,,,,,,,,,,,,,,,,,,,,,,,,,,,,,,,,,,,,,,,,,,,,,,,,,,,,,,,,,,,,,,,,,,,,,,,,,,,,,,,
,,,,,,60563630dd344659e462b608,62bbfb13a9e1a6964bc288e8,2022-06-29_09h11.43,Colour_Asymmetry_Pilot,2022.1.3,MacIntel,58.82352941,62bbe60bf3d75ef465d3e404,0,17,17,35,1,twofour,,,,,,,,,,,,,,,,,,,,,,,,,,,,,,,,,,,,,,,,,,,,,,,,,,,,,,,,,,,,,,,,,,,,,,,,,,,,,,,,,,,,,,,,,,,,,,,,,,,,,,,,,,,,,,,,,,,,,,,,,,,,,,,,,,,,,,,,,,,,,,,,,,,,,,,,
,,,,,,60563630dd344659e462b608,62bbfb13a9e1a6964bc288e8,2022-06-29_09h11.43,Colour_Asymmetry_Pilot,2022.1.3,MacIntel,58.82352941,62bbe60bf3d75ef465d3e404,0,18,18,137,1,onethree,,,,,,,,,,,,,,,,,,,,,,,,,,,,,,,,,,,,,,,,,,,,,,,,,,,,,,,,,,,,,,,,,,,,,,,,,,,,,,,,,,,,,,,,,,,,,,,,,,,,,,,,,,,,,,,,,,,,,,,,,,,,,,,,,,,,,,,,,,,,,,,,,,,,,,,,
,,,,,,60563630dd344659e462b608,62bbfb13a9e1a6964bc288e8,2022-06-29_09h11.43,Colour_Asymmetry_Pilot,2022.1.3,MacIntel,58.82352941,62bbe60bf3d75ef465d3e404,0,19,19,26,1,twoone,,,,,,,,,,,,,,,,,,,,,,,,,,,,,,,,,,,,,,,,,,,,,,,,,,,,,,,,,,,,,,,,,,,,,,,,,,,,,,,,,,,,,,,,,,,,,,,,,,,,,,,,,,,,,,,,,,,,,,,,,,,,,,,,,,,,,,,,,,,,,,,,,,,,,,,,
,,,,,,60563630dd344659e462b608,62bbfb13a9e1a6964bc288e8,2022-06-29_09h11.43,Colour_Asymmetry_Pilot,2022.1.3,MacIntel,58.82352941,62bbe60bf3d75ef465d3e404,0,20,20,34,1,twoone,,,,,,,,,,,,,,,,,,,,,,,,,,,,,,,,,,,,,,,,,,,,,,,,,,,,,,,,,,,,,,,,,,,,,,,,,,,,,,,,,,,,,,,,,,,,,,,,,,,,,,,,,,,,,,,,,,,,,,,,,,,,,,,,,,,,,,,,,,,,,,,,,,,,,,,,
,,,,,,60563630dd344659e462b608,62bbfb13a9e1a6964bc288e8,2022-06-29_09h11.43,Colour_Asymmetry_Pilot,2022.1.3,MacIntel,58.82352941,62bbe60bf3d75ef465d3e404,0,21,21,97,1,onethree,,,,,,,,,,,,,,,,,,,,,,,,,,,,,,,,,,,,,,,,,,,,,,,,,,,,,,,,,,,,,,,,,,,,,,,,,,,,,,,,,,,,,,,,,,,,,,,,,,,,,,,,,,,,,,,,,,,,,,,,,,,,,,,,,,,,,,,,,,,,,,,,,,,,,,,,
,,,,,,60563630dd344659e462b608,62bbfb13a9e1a6964bc288e8,2022-06-29_09h11.43,Colour_Asymmetry_Pilot,2022.1.3,MacIntel,58.82352941,62bbe60bf3d75ef465d3e404,0,22,22,66,1,twoone,,,,,,,,,,,,,,,,,,,,,,,,,,,,,,,,,,,,,,,,,,,,,,,,,,,,,,,,,,,,,,,,,,,,,,,,,,,,,,,,,,,,,,,,,,,,,,,,,,,,,,,,,,,,,,,,,,,,,,,,,,,,,,,,,,,,,,,,,,,,,,,,,,,,,,,,
,,,,,,60563630dd344659e462b608,62bbfb13a9e1a6964bc288e8,2022-06-29_09h11.43,Colour_Asymmetry_Pilot,2022.1.3,MacIntel,58.82352941,62bbe60bf3d75ef465d3e404,0,23,23,20,1,threeone,,,,,,,,,,,,,,,,,,,,,,,,,,,,,,,,,,,,,,,,,,,,,,,,,,,,,,,,,,,,,,,,,,,,,,,,,,,,,,,,,,,,,,,,,,,,,,,,,,,,,,,,,,,,,,,,,,,,,,,,,,,,,,,,,,,,,,,,,,,,,,,,,,,,,,,,
,,,,,,60563630dd344659e462b608,62bbfb13a9e1a6964bc288e8,2022-06-29_09h11.43,Colour_Asymmetry_Pilot,2022.1.3,MacIntel,58.82352941,62bbe60bf3d75ef465d3e404,0,24,24,79,1,fourthree,,,,,,,,,,,,,,,,,,,,,,,,,,,,,,,,,,,,,,,,,,,,,,,,,,,,,,,,,,,,,,,,,,,,,,,,,,,,,,,,,,,,,,,,,,,,,,,,,,,,,,,,,,,,,,,,,,,,,,,,,,,,,,,,,,,,,,,,,,,,,,,,,,,,,,,,
,,,,,,60563630dd344659e462b608,62bbfb13a9e1a6964bc288e8,2022-06-29_09h11.43,Colour_Asymmetry_Pilot,2022.1.3,MacIntel,58.82352941,62bbe60bf3d75ef465d3e404,0,25,25,140,1,threeone,,,,,,,,,,,,,,,,,,,,,,,,,,,,,,,,,,,,,,,,,,,,,,,,,,,,,,,,,,,,,,,,,,,,,,,,,,,,,,,,,,,,,,,,,,,,,,,,,,,,,,,,,,,,,,,,,,,,,,,,,,,,,,,,,,,,,,,,,,,,,,,,,,,,,,,,
,,,,,,60563630dd344659e462b608,62bbfb13a9e1a6964bc288e8,2022-06-29_09h11.43,Colour_Asymmetry_Pilot,2022.1.3,MacIntel,58.82352941,62bbe60bf3d75ef465d3e404,0,26,26,90,1,twoone,,,,,,,,,,,,,,,,,,,,,,,,,,,,,,,,,,,,,,,,,,,,,,,,,,,,,,,,,,,,,,,,,,,,,,,,,,,,,,,,,,,,,,,,,,,,,,,,,,,,,,,,,,,,,,,,,,,,,,,,,,,,,,,,,,,,,,,,,,,,,,,,,,,,,,,,
,,,,,,60563630dd344659e462b608,62bbfb13a9e1a6964bc288e8,2022-06-29_09h11.43,Colour_Asymmetry_Pilot,2022.1.3,MacIntel,58.82352941,62bbe60bf3d75ef465d3e404,0,27,27,141,1,threefour,,,,,,,,,,,,,,,,,,,,,,,,,,,,,,,,,,,,,,,,,,,,,,,,,,,,,,,,,,,,,,,,,,,,,,,,,,,,,,,,,,,,,,,,,,,,,,,,,,,,,,,,,,,,,,,,,,,,,,,,,,,,,,,,,,,,,,,,,,,,,,,,,,,,,,,,
,,,,,,60563630dd344659e462b608,62bbfb13a9e1a6964bc288e8,2022-06-29_09h11.43,Colour_Asymmetry_Pilot,2022.1.3,MacIntel,58.82352941,62bbe60bf3d75ef465d3e404,0,28,28,63,1,fourthree,,,,,,,,,,,,,,,,,,,,,,,,,,,,,,,,,,,,,,,,,,,,,,,,,,,,,,,,,,,,,,,,,,,,,,,,,,,,,,,,,,,,,,,,,,,,,,,,,,,,,,,,,,,,,,,,,,,,,,,,,,,,,,,,,,,,,,,,,,,,,,,,,,,,,,,,
,,,,,,60563630dd344659e462b608,62bbfb13a9e1a6964bc288e8,2022-06-29_09h11.43,Colour_Asymmetry_Pilot,2022.1.3,MacIntel,58.82352941,62bbe60bf3d75ef465d3e404,0,29,29,107,1,twofour,,,,,,,,,,,,,,,,,,,,,,,,,,,,,,,,,,,,,,,,,,,,,,,,,,,,,,,,,,,,,,,,,,,,,,,,,,,,,,,,,,,,,,,,,,,,,,,,,,,,,,,,,,,,,,,,,,,,,,,,,,,,,,,,,,,,,,,,,,,,,,,,,,,,,,,,
,,,,,,60563630dd344659e462b608,62bbfb13a9e1a6964bc288e8,2022-06-29_09h11.43,Colour_Asymmetry_Pilot,2022.1.3,MacIntel,58.82352941,62bbe60bf3d75ef465d3e404,0,30,30,125,1,threefour,,,,,,,,,,,,,,,,,,,,,,,,,,,,,,,,,,,,,,,,,,,,,,,,,,,,,,,,,,,,,,,,,,,,,,,,,,,,,,,,,,,,,,,,,,,,,,,,,,,,,,,,,,,,,,,,,,,,,,,,,,,,,,,,,,,,,,,,,,,,,,,,,,,,,,,,
,,,,,,60563630dd344659e462b608,62bbfb13a9e1a6964bc288e8,2022-06-29_09h11.43,Colour_Asymmetry_Pilot,2022.1.3,MacIntel,58.82352941,62bbe60bf3d75ef465d3e404,0,31,31,127,1,fourthree,,,,,,,,,,,,,,,,,,,,,,,,,,,,,,,,,,,,,,,,,,,,,,,,,,,,,,,,,,,,,,,,,,,,,,,,,,,,,,,,,,,,,,,,,,,,,,,,,,,,,,,,,,,,,,,,,,,,,,,,,,,,,,,,,,,,,,,,,,,,,,,,,,,,,,,,
,,,,,,60563630dd344659e462b608,62bbfb13a9e1a6964bc288e8,2022-06-29_09h11.43,Colour_Asymmetry_Pilot,2022.1.3,MacIntel,58.82352941,62bbe60bf3d75ef465d3e404,0,32,32,133,1,threefour,,,,,,,,,,,,,,,,,,,,,,,,,,,,,,,,,,,,,,,,,,,,,,,,,,,,,,,,,,,,,,,,,,,,,,,,,,,,,,,,,,,,,,,,,,,,,,,,,,,,,,,,,,,,,,,,,,,,,,,,,,,,,,,,,,,,,,,,,,,,,,,,,,,,,,,,
,,,,,,60563630dd344659e462b608,62bbfb13a9e1a6964bc288e8,2022-06-29_09h11.43,Colour_Asymmetry_Pilot,2022.1.3,MacIntel,58.82352941,62bbe60bf3d75ef465d3e404,0,33,33,119,1,fourthree,,,,,,,,,,,,,,,,,,,,,,,,,,,,,,,,,,,,,,,,,,,,,,,,,,,,,,,,,,,,,,,,,,,,,,,,,,,,,,,,,,,,,,,,,,,,,,,,,,,,,,,,,,,,,,,,,,,,,,,,,,,,,,,,,,,,,,,,,,,,,,,,,,,,,,,,
,,,,,,60563630dd344659e462b608,62bbfb13a9e1a6964bc288e8,2022-06-29_09h11.43,Colour_Asymmetry_Pilot,2022.1.3,MacIntel,58.82352941,62bbe60bf3d75ef465d3e404,0,34,34,46,1,fourtwo,,,,,,,,,,,,,,,,,,,,,,,,,,,,,,,,,,,,,,,,,,,,,,,,,,,,,,,,,,,,,,,,,,,,,,,,,,,,,,,,,,,,,,,,,,,,,,,,,,,,,,,,,,,,,,,,,,,,,,,,,,,,,,,,,,,,,,,,,,,,,,,,,,,,,,,,
,,,,,,60563630dd344659e462b608,62bbfb13a9e1a6964bc288e8,2022-06-29_09h11.43,Colour_Asymmetry_Pilot,2022.1.3,MacIntel,58.82352941,62bbe60bf3d75ef465d3e404,0,35,35,84,1,threeone,,,,,,,,,,,,,,,,,,,,,,,,,,,,,,,,,,,,,,,,,,,,,,,,,,,,,,,,,,,,,,,,,,,,,,,,,,,,,,,,,,,,,,,,,,,,,,,,,,,,,,,,,,,,,,,,,,,,,,,,,,,,,,,,,,,,,,,,,,,,,,,,,,,,,,,,
,,,,,,60563630dd344659e462b608,62bbfb13a9e1a6964bc288e8,2022-06-29_09h11.43,Colour_Asymmetry_Pilot,2022.1.3,MacIntel,58.82352941,62bbe60bf3d75ef465d3e404,0,36,36,54,1,fourtwo,,,,,,,,,,,,,,,,,,,,,,,,,,,,,,,,,,,,,,,,,,,,,,,,,,,,,,,,,,,,,,,,,,,,,,,,,,,,,,,,,,,,,,,,,,,,,,,,,,,,,,,,,,,,,,,,,,,,,,,,,,,,,,,,,,,,,,,,,,,,,,,,,,,,,,,,
,,,,,,60563630dd344659e462b608,62bbfb13a9e1a6964bc288e8,2022-06-29_09h11.43,Colour_Asymmetry_Pilot,2022.1.3,MacIntel,58.82352941,62bbe60bf3d75ef465d3e404,0,37,37,118,1,fourtwo,,,,,,,,,,,,,,,,,,,,,,,,,,,,,,,,,,,,,,,,,,,,,,,,,,,,,,,,,,,,,,,,,,,,,,,,,,,,,,,,,,,,,,,,,,,,,,,,,,,,,,,,,,,,,,,,,,,,,,,,,,,,,,,,,,,,,,,,,,,,,,,,,,,,,,,,
,,,,,,60563630dd344659e462b608,62bbfb13a9e1a6964bc288e8,2022-06-29_09h11.43,Colour_Asymmetry_Pilot,2022.1.3,MacIntel,58.82352941,62bbe60bf3d75ef465d3e404,0,38,38,45,1,threefour,,,,,,,,,,,,,,,,,,,,,,,,,,,,,,,,,,,,,,,,,,,,,,,,,,,,,,,,,,,,,,,,,,,,,,,,,,,,,,,,,,,,,,,,,,,,,,,,,,,,,,,,,,,,,,,,,,,,,,,,,,,,,,,,,,,,,,,,,,,,,,,,,,,,,,,,
,,,,,,60563630dd344659e462b608,62bbfb13a9e1a6964bc288e8,2022-06-29_09h11.43,Colour_Asymmetry_Pilot,2022.1.3,MacIntel,58.82352941,62bbe60bf3d75ef465d3e404,0,39,39,0,1,onetwo,,,,,,,,,,,,,,,,,,,,,,,,,,,,,,,,,,,,,,,,,,,,,,,,,,,,,,,,,,,,,,,,,,,,,,,,,,,,,,,,,,,,,,,,,,,,,,,,,,,,,,,,,,,,,,,,,,,,,,,,,,,,,,,,,,,,,,,,,,,,,,,,,,,,,,,,
,,,,,,60563630dd344659e462b608,62bbfb13a9e1a6964bc288e8,2022-06-29_09h11.43,Colour_Asymmetry_Pilot,2022.1.3,MacIntel,58.82352941,62bbe60bf3d75ef465d3e404,0,40,40,52,1,threeone,,,,,,,,,,,,,,,,,,,,,,,,,,,,,,,,,,,,,,,,,,,,,,,,,,,,,,,,,,,,,,,,,,,,,,,,,,,,,,,,,,,,,,,,,,,,,,,,,,,,,,,,,,,,,,,,,,,,,,,,,,,,,,,,,,,,,,,,,,,,,,,,,,,,,,,,
,,,,,,60563630dd344659e462b608,62bbfb13a9e1a6964bc288e8,2022-06-29_09h11.43,Colour_Asymmetry_Pilot,2022.1.3,MacIntel,58.82352941,62bbe60bf3d75ef465d3e404,0,41,41,122,1,twoone,,,,,,,,,,,,,,,,,,,,,,,,,,,,,,,,,,,,,,,,,,,,,,,,,,,,,,,,,,,,,,,,,,,,,,,,,,,,,,,,,,,,,,,,,,,,,,,,,,,,,,,,,,,,,,,,,,,,,,,,,,,,,,,,,,,,,,,,,,,,,,,,,,,,,,,,
,,,,,,60563630dd344659e462b608,62bbfb13a9e1a6964bc288e8,2022-06-29_09h11.43,Colour_Asymmetry_Pilot,2022.1.3,MacIntel,58.82352941,62bbe60bf3d75ef465d3e404,0,42,42,91,1,twofour,,,,,,,,,,,,,,,,,,,,,,,,,,,,,,,,,,,,,,,,,,,,,,,,,,,,,,,,,,,,,,,,,,,,,,,,,,,,,,,,,,,,,,,,,,,,,,,,,,,,,,,,,,,,,,,,,,,,,,,,,,,,,,,,,,,,,,,,,,,,,,,,,,,,,,,,
,,,,,,60563630dd344659e462b608,62bbfb13a9e1a6964bc288e8,2022-06-29_09h11.43,Colour_Asymmetry_Pilot,2022.1.3,MacIntel,58.82352941,62bbe60bf3d75ef465d3e404,0,43,43,33,1,onethree,,,,,,,,,,,,,,,,,,,,,,,,,,,,,,,,,,,,,,,,,,,,,,,,,,,,,,,,,,,,,,,,,,,,,,,,,,,,,,,,,,,,,,,,,,,,,,,,,,,,,,,,,,,,,,,,,,,,,,,,,,,,,,,,,,,,,,,,,,,,,,,,,,,,,,,,
,,,,,,60563630dd344659e462b608,62bbfb13a9e1a6964bc288e8,2022-06-29_09h11.43,Colour_Asymmetry_Pilot,2022.1.3,MacIntel,58.82352941,62bbe60bf3d75ef465d3e404,0,44,44,31,1,fourthree,,,,,,,,,,,,,,,,,,,,,,,,,,,,,,,,,,,,,,,,,,,,,,,,,,,,,,,,,,,,,,,,,,,,,,,,,,,,,,,,,,,,,,,,,,,,,,,,,,,,,,,,,,,,,,,,,,,,,,,,,,,,,,,,,,,,,,,,,,,,,,,,,,,,,,,,
,,,,,,60563630dd344659e462b608,62bbfb13a9e1a6964bc288e8,2022-06-29_09h11.43,Colour_Asymmetry_Pilot,2022.1.3,MacIntel,58.82352941,62bbe60bf3d75ef465d3e404,0,45,45,71,1,fourthree,,,,,,,,,,,,,,,,,,,,,,,,,,,,,,,,,,,,,,,,,,,,,,,,,,,,,,,,,,,,,,,,,,,,,,,,,,,,,,,,,,,,,,,,,,,,,,,,,,,,,,,,,,,,,,,,,,,,,,,,,,,,,,,,,,,,,,,,,,,,,,,,,,,,,,,,
,,,,,,60563630dd344659e462b608,62bbfb13a9e1a6964bc288e8,2022-06-29_09h11.43,Colour_Asymmetry_Pilot,2022.1.3,MacIntel,58.82352941,62bbe60bf3d75ef465d3e404,0,46,46,88,1,onetwo,,,,,,,,,,,,,,,,,,,,,,,,,,,,,,,,,,,,,,,,,,,,,,,,,,,,,,,,,,,,,,,,,,,,,,,,,,,,,,,,,,,,,,,,,,,,,,,,,,,,,,,,,,,,,,,,,,,,,,,,,,,,,,,,,,,,,,,,,,,,,,,,,,,,,,,,
,,,,,,60563630dd344659e462b608,62bbfb13a9e1a6964bc288e8,2022-06-29_09h11.43,Colour_Asymmetry_Pilot,2022.1.3,MacIntel,58.82352941,62bbe60bf3d75ef465d3e404,0,47,47,22,1,fourtwo,,,,,,,,,,,,,,,,,,,,,,,,,,,,,,,,,,,,,,,,,,,,,,,,,,,,,,,,,,,,,,,,,,,,,,,,,,,,,,,,,,,,,,,,,,,,,,,,,,,,,,,,,,,,,,,,,,,,,,,,,,,,,,,,,,,,,,,,,,,,,,,,,,,,,,,,
,,,,,,60563630dd344659e462b608,62bbfb13a9e1a6964bc288e8,2022-06-29_09h11.43,Colour_Asymmetry_Pilot,2022.1.3,MacIntel,58.82352941,62bbe60bf3d75ef465d3e404,0,48,48,30,1,fourtwo,,,,,,,,,,,,,,,,,,,,,,,,,,,,,,,,,,,,,,,,,,,,,,,,,,,,,,,,,,,,,,,,,,,,,,,,,,,,,,,,,,,,,,,,,,,,,,,,,,,,,,,,,,,,,,,,,,,,,,,,,,,,,,,,,,,,,,,,,,,,,,,,,,,,,,,,
,,,,,,60563630dd344659e462b608,62bbfb13a9e1a6964bc288e8,2022-06-29_09h11.43,Colour_Asymmetry_Pilot,2022.1.3,MacIntel,58.82352941,62bbe60bf3d75ef465d3e404,0,49,49,106,1,twoone,,,,,,,,,,,,,,,,,,,,,,,,,,,,,,,,,,,,,,,,,,,,,,,,,,,,,,,,,,,,,,,,,,,,,,,,,,,,,,,,,,,,,,,,,,,,,,,,,,,,,,,,,,,,,,,,,,,,,,,,,,,,,,,,,,,,,,,,,,,,,,,,,,,,,,,,
,,,,,,60563630dd344659e462b608,62bbfb13a9e1a6964bc288e8,2022-06-29_09h11.43,Colour_Asymmetry_Pilot,2022.1.3,MacIntel,58.82352941,62bbe60bf3d75ef465d3e404,0,50,50,99,1,twofour,,,,,,,,,,,,,,,,,,,,,,,,,,,,,,,,,,,,,,,,,,,,,,,,,,,,,,,,,,,,,,,,,,,,,,,,,,,,,,,,,,,,,,,,,,,,,,,,,,,,,,,,,,,,,,,,,,,,,,,,,,,,,,,,,,,,,,,,,,,,,,,,,,,,,,,,
,,,,,,60563630dd344659e462b608,62bbfb13a9e1a6964bc288e8,2022-06-29_09h11.43,Colour_Asymmetry_Pilot,2022.1.3,MacIntel,58.82352941,62bbe60bf3d75ef465d3e404,0,51,51,114,1,twoone,,,,,,,,,,,,,,,,,,,,,,,,,,,,,,,,,,,,,,,,,,,,,,,,,,,,,,,,,,,,,,,,,,,,,,,,,,,,,,,,,,,,,,,,,,,,,,,,,,,,,,,,,,,,,,,,,,,,,,,,,,,,,,,,,,,,,,,,,,,,,,,,,,,,,,,,
,,,,,,60563630dd344659e462b608,62bbfb13a9e1a6964bc288e8,2022-06-29_09h11.43,Colour_Asymmetry_Pilot,2022.1.3,MacIntel,58.82352941,62bbe60bf3d75ef465d3e404,0,52,52,155,1,twofour,,,,,,,,,,,,,,,,,,,,,,,,,,,,,,,,,,,,,,,,,,,,,,,,,,,,,,,,,,,,,,,,,,,,,,,,,,,,,,,,,,,,,,,,,,,,,,,,,,,,,,,,,,,,,,,,,,,,,,,,,,,,,,,,,,,,,,,,,,,,,,,,,,,,,,,,
,,,,,,60563630dd344659e462b608,62bbfb13a9e1a6964bc288e8,2022-06-29_09h11.43,Colour_Asymmetry_Pilot,2022.1.3,MacIntel,58.82352941,62bbe60bf3d75ef465d3e404,0,53,53,131,1,twofour,,,,,,,,,,,,,,,,,,,,,,,,,,,,,,,,,,,,,,,,,,,,,,,,,,,,,,,,,,,,,,,,,,,,,,,,,,,,,,,,,,,,,,,,,,,,,,,,,,,,,,,,,,,,,,,,,,,,,,,,,,,,,,,,,,,,,,,,,,,,,,,,,,,,,,,,
,,,,,,60563630dd344659e462b608,62bbfb13a9e1a6964bc288e8,2022-06-29_09h11.43,Colour_Asymmetry_Pilot,2022.1.3,MacIntel,58.82352941,62bbe60bf3d75ef465d3e404,0,54,54,19,1,twofour,,,,,,,,,,,,,,,,,,,,,,,,,,,,,,,,,,,,,,,,,,,,,,,,,,,,,,,,,,,,,,,,,,,,,,,,,,,,,,,,,,,,,,,,,,,,,,,,,,,,,,,,,,,,,,,,,,,,,,,,,,,,,,,,,,,,,,,,,,,,,,,,,,,,,,,,
,,,,,,60563630dd344659e462b608,62bbfb13a9e1a6964bc288e8,2022-06-29_09h11.43,Colour_Asymmetry_Pilot,2022.1.3,MacIntel,58.82352941,62bbe60bf3d75ef465d3e404,0,55,55,6,1,fourtwo,,,,,,,,,,,,,,,,,,,,,,,,,,,,,,,,,,,,,,,,,,,,,,,,,,,,,,,,,,,,,,,,,,,,,,,,,,,,,,,,,,,,,,,,,,,,,,,,,,,,,,,,,,,,,,,,,,,,,,,,,,,,,,,,,,,,,,,,,,,,,,,,,,,,,,,,
,,,,,,60563630dd344659e462b608,62bbfb13a9e1a6964bc288e8,2022-06-29_09h11.43,Colour_Asymmetry_Pilot,2022.1.3,MacIntel,58.82352941,62bbe60bf3d75ef465d3e404,0,56,56,151,1,fourthree,,,,,,,,,,,,,,,,,,,,,,,,,,,,,,,,,,,,,,,,,,,,,,,,,,,,,,,,,,,,,,,,,,,,,,,,,,,,,,,,,,,,,,,,,,,,,,,,,,,,,,,,,,,,,,,,,,,,,,,,,,,,,,,,,,,,,,,,,,,,,,,,,,,,,,,,
,,,,,,60563630dd344659e462b608,62bbfb13a9e1a6964bc288e8,2022-06-29_09h11.43,Colour_Asymmetry_Pilot,2022.1.3,MacIntel,58.82352941,62bbe60bf3d75ef465d3e404,0,57,57,148,1,threeone,,,,,,,,,,,,,,,,,,,,,,,,,,,,,,,,,,,,,,,,,,,,,,,,,,,,,,,,,,,,,,,,,,,,,,,,,,,,,,,,,,,,,,,,,,,,,,,,,,,,,,,,,,,,,,,,,,,,,,,,,,,,,,,,,,,,,,,,,,,,,,,,,,,,,,,,
,,,,,,60563630dd344659e462b608,62bbfb13a9e1a6964bc288e8,2022-06-29_09h11.43,Colour_Asymmetry_Pilot,2022.1.3,MacIntel,58.82352941,62bbe60bf3d75ef465d3e404,0,58,58,83,1,twofour,,,,,,,,,,,,,,,,,,,,,,,,,,,,,,,,,,,,,,,,,,,,,,,,,,,,,,,,,,,,,,,,,,,,,,,,,,,,,,,,,,,,,,,,,,,,,,,,,,,,,,,,,,,,,,,,,,,,,,,,,,,,,,,,,,,,,,,,,,,,,,,,,,,,,,,,
,,,,,,60563630dd344659e462b608,62bbfb13a9e1a6964bc288e8,2022-06-29_09h11.43,Colour_Asymmetry_Pilot,2022.1.3,MacIntel,58.82352941,62bbe60bf3d75ef465d3e404,0,59,59,149,1,threefour,,,,,,,,,,,,,,,,,,,,,,,,,,,,,,,,,,,,,,,,,,,,,,,,,,,,,,,,,,,,,,,,,,,,,,,,,,,,,,,,,,,,,,,,,,,,,,,,,,,,,,,,,,,,,,,,,,,,,,,,,,,,,,,,,,,,,,,,,,,,,,,,,,,,,,,,
,,,,,,60563630dd344659e462b608,62bbfb13a9e1a6964bc288e8,2022-06-29_09h11.43,Colour_Asymmetry_Pilot,2022.1.3,MacIntel,58.82352941,62bbe60bf3d75ef465d3e404,0,60,60,29,1,threefour,,,,,,,,,,,,,,,,,,,,,,,,,,,,,,,,,,,,,,,,,,,,,,,,,,,,,,,,,,,,,,,,,,,,,,,,,,,,,,,,,,,,,,,,,,,,,,,,,,,,,,,,,,,,,,,,,,,,,,,,,,,,,,,,,,,,,,,,,,,,,,,,,,,,,,,,
,,,,,,60563630dd344659e462b608,62bbfb13a9e1a6964bc288e8,2022-06-29_09h11.43,Colour_Asymmetry_Pilot,2022.1.3,MacIntel,58.82352941,62bbe60bf3d75ef465d3e404,0,61,61,112,1,onetwo,,,,,,,,,,,,,,,,,,,,,,,,,,,,,,,,,,,,,,,,,,,,,,,,,,,,,,,,,,,,,,,,,,,,,,,,,,,,,,,,,,,,,,,,,,,,,,,,,,,,,,,,,,,,,,,,,,,,,,,,,,,,,,,,,,,,,,,,,,,,,,,,,,,,,,,,
,,,,,,60563630dd344659e462b608,62bbfb13a9e1a6964bc288e8,2022-06-29_09h11.43,Colour_Asymmetry_Pilot,2022.1.3,MacIntel,58.82352941,62bbe60bf3d75ef465d3e404,0,62,62,100,1,threeone,,,,,,,,,,,,,,,,,,,,,,,,,,,,,,,,,,,,,,,,,,,,,,,,,,,,,,,,,,,,,,,,,,,,,,,,,,,,,,,,,,,,,,,,,,,,,,,,,,,,,,,,,,,,,,,,,,,,,,,,,,,,,,,,,,,,,,,,,,,,,,,,,,,,,,,,
,,,,,,60563630dd344659e462b608,62bbfb13a9e1a6964bc288e8,2022-06-29_09h11.43,Colour_Asymmetry_Pilot,2022.1.3,MacIntel,58.82352941,62bbe60bf3d75ef465d3e404,0,63,63,57,1,onethree,,,,,,,,,,,,,,,,,,,,,,,,,,,,,,,,,,,,,,,,,,,,,,,,,,,,,,,,,,,,,,,,,,,,,,,,,,,,,,,,,,,,,,,,,,,,,,,,,,,,,,,,,,,,,,,,,,,,,,,,,,,,,,,,,,,,,,,,,,,,,,,,,,,,,,,,
,,,,,,60563630dd344659e462b608,62bbfb13a9e1a6964bc288e8,2022-06-29_09h11.43,Colour_Asymmetry_Pilot,2022.1.3,MacIntel,58.82352941,62bbe60bf3d75ef465d3e404,0,64,64,104,1,onetwo,,,,,,,,,,,,,,,,,,,,,,,,,,,,,,,,,,,,,,,,,,,,,,,,,,,,,,,,,,,,,,,,,,,,,,,,,,,,,,,,,,,,,,,,,,,,,,,,,,,,,,,,,,,,,,,,,,,,,,,,,,,,,,,,,,,,,,,,,,,,,,,,,,,,,,,,
,,,,,,60563630dd344659e462b608,62bbfb13a9e1a6964bc288e8,2022-06-29_09h11.43,Colour_Asymmetry_Pilot,2022.1.3,MacIntel,58.82352941,62bbe60bf3d75ef465d3e404,0,65,65,43,1,twofour,,,,,,,,,,,,,,,,,,,,,,,,,,,,,,,,,,,,,,,,,,,,,,,,,,,,,,,,,,,,,,,,,,,,,,,,,,,,,,,,,,,,,,,,,,,,,,,,,,,,,,,,,,,,,,,,,,,,,,,,,,,,,,,,,,,,,,,,,,,,,,,,,,,,,,,,
,,,,,,60563630dd344659e462b608,62bbfb13a9e1a6964bc288e8,2022-06-29_09h11.43,Colour_Asymmetry_Pilot,2022.1.3,MacIntel,58.82352941,62bbe60bf3d75ef465d3e404,0,66,66,55,1,fourthree,,,,,,,,,,,,,,,,,,,,,,,,,,,,,,,,,,,,,,,,,,,,,,,,,,,,,,,,,,,,,,,,,,,,,,,,,,,,,,,,,,,,,,,,,,,,,,,,,,,,,,,,,,,,,,,,,,,,,,,,,,,,,,,,,,,,,,,,,,,,,,,,,,,,,,,,
,,,,,,60563630dd344659e462b608,62bbfb13a9e1a6964bc288e8,2022-06-29_09h11.43,Colour_Asymmetry_Pilot,2022.1.3,MacIntel,58.82352941,62bbe60bf3d75ef465d3e404,0,67,67,128,1,onetwo,,,,,,,,,,,,,,,,,,,,,,,,,,,,,,,,,,,,,,,,,,,,,,,,,,,,,,,,,,,,,,,,,,,,,,,,,,,,,,,,,,,,,,,,,,,,,,,,,,,,,,,,,,,,,,,,,,,,,,,,,,,,,,,,,,,,,,,,,,,,,,,,,,,,,,,,
,,,,,,60563630dd344659e462b608,62bbfb13a9e1a6964bc288e8,2022-06-29_09h11.43,Colour_Asymmetry_Pilot,2022.1.3,MacIntel,58.82352941,62bbe60bf3d75ef465d3e404,0,68,68,138,1,twoone,,,,,,,,,,,,,,,,,,,,,,,,,,,,,,,,,,,,,,,,,,,,,,,,,,,,,,,,,,,,,,,,,,,,,,,,,,,,,,,,,,,,,,,,,,,,,,,,,,,,,,,,,,,,,,,,,,,,,,,,,,,,,,,,,,,,,,,,,,,,,,,,,,,,,,,,
,,,,,,60563630dd344659e462b608,62bbfb13a9e1a6964bc288e8,2022-06-29_09h11.43,Colour_Asymmetry_Pilot,2022.1.3,MacIntel,58.82352941,62bbe60bf3d75ef465d3e404,0,69,69,16,1,onetwo,,,,,,,,,,,,,,,,,,,,,,,,,,,,,,,,,,,,,,,,,,,,,,,,,,,,,,,,,,,,,,,,,,,,,,,,,,,,,,,,,,,,,,,,,,,,,,,,,,,,,,,,,,,,,,,,,,,,,,,,,,,,,,,,,,,,,,,,,,,,,,,,,,,,,,,,
,,,,,,60563630dd344659e462b608,62bbfb13a9e1a6964bc288e8,2022-06-29_09h11.43,Colour_Asymmetry_Pilot,2022.1.3,MacIntel,58.82352941,62bbe60bf3d75ef465d3e404,0,70,70,36,1,threeone,,,,,,,,,,,,,,,,,,,,,,,,,,,,,,,,,,,,,,,,,,,,,,,,,,,,,,,,,,,,,,,,,,,,,,,,,,,,,,,,,,,,,,,,,,,,,,,,,,,,,,,,,,,,,,,,,,,,,,,,,,,,,,,,,,,,,,,,,,,,,,,,,,,,,,,,
,,,,,,60563630dd344659e462b608,62bbfb13a9e1a6964bc288e8,2022-06-29_09h11.43,Colour_Asymmetry_Pilot,2022.1.3,MacIntel,58.82352941,62bbe60bf3d75ef465d3e404,0,71,71,28,1,threeone,,,,,,,,,,,,,,,,,,,,,,,,,,,,,,,,,,,,,,,,,,,,,,,,,,,,,,,,,,,,,,,,,,,,,,,,,,,,,,,,,,,,,,,,,,,,,,,,,,,,,,,,,,,,,,,,,,,,,,,,,,,,,,,,,,,,,,,,,,,,,,,,,,,,,,,,
,,,,,,60563630dd344659e462b608,62bbfb13a9e1a6964bc288e8,2022-06-29_09h11.43,Colour_Asymmetry_Pilot,2022.1.3,MacIntel,58.82352941,62bbe60bf3d75ef465d3e404,0,72,72,117,1,threefour,,,,,,,,,,,,,,,,,,,,,,,,,,,,,,,,,,,,,,,,,,,,,,,,,,,,,,,,,,,,,,,,,,,,,,,,,,,,,,,,,,,,,,,,,,,,,,,,,,,,,,,,,,,,,,,,,,,,,,,,,,,,,,,,,,,,,,,,,,,,,,,,,,,,,,,,
,,,,,,60563630dd344659e462b608,62bbfb13a9e1a6964bc288e8,2022-06-29_09h11.43,Colour_Asymmetry_Pilot,2022.1.3,MacIntel,58.82352941,62bbe60bf3d75ef465d3e404,0,73,73,124,1,threeone,,,,,,,,,,,,,,,,,,,,,,,,,,,,,,,,,,,,,,,,,,,,,,,,,,,,,,,,,,,,,,,,,,,,,,,,,,,,,,,,,,,,,,,,,,,,,,,,,,,,,,,,,,,,,,,,,,,,,,,,,,,,,,,,,,,,,,,,,,,,,,,,,,,,,,,,
,,,,,,60563630dd344659e462b608,62bbfb13a9e1a6964bc288e8,2022-06-29_09h11.43,Colour_Asymmetry_Pilot,2022.1.3,MacIntel,58.82352941,62bbe60bf3d75ef465d3e404,0,74,74,53,1,threefour,,,,,,,,,,,,,,,,,,,,,,,,,,,,,,,,,,,,,,,,,,,,,,,,,,,,,,,,,,,,,,,,,,,,,,,,,,,,,,,,,,,,,,,,,,,,,,,,,,,,,,,,,,,,,,,,,,,,,,,,,,,,,,,,,,,,,,,,,,,,,,,,,,,,,,,,
,,,,,,60563630dd344659e462b608,62bbfb13a9e1a6964bc288e8,2022-06-29_09h11.43,Colour_Asymmetry_Pilot,2022.1.3,MacIntel,58.82352941,62bbe60bf3d75ef465d3e404,0,75,75,21,1,threefour,,,,,,,,,,,,,,,,,,,,,,,,,,,,,,,,,,,,,,,,,,,,,,,,,,,,,,,,,,,,,,,,,,,,,,,,,,,,,,,,,,,,,,,,,,,,,,,,,,,,,,,,,,,,,,,,,,,,,,,,,,,,,,,,,,,,,,,,,,,,,,,,,,,,,,,,
,,,,,,60563630dd344659e462b608,62bbfb13a9e1a6964bc288e8,2022-06-29_09h11.43,Colour_Asymmetry_Pilot,2022.1.3,MacIntel,58.82352941,62bbe60bf3d75ef465d3e404,0,76,76,116,1,threeone,,,,,,,,,,,,,,,,,,,,,,,,,,,,,,,,,,,,,,,,,,,,,,,,,,,,,,,,,,,,,,,,,,,,,,,,,,,,,,,,,,,,,,,,,,,,,,,,,,,,,,,,,,,,,,,,,,,,,,,,,,,,,,,,,,,,,,,,,,,,,,,,,,,,,,,,
,,,,,,60563630dd344659e462b608,62bbfb13a9e1a6964bc288e8,2022-06-29_09h11.43,Colour_Asymmetry_Pilot,2022.1.3,MacIntel,58.82352941,62bbe60bf3d75ef465d3e404,0,77,77,157,1,threefour,,,,,,,,,,,,,,,,,,,,,,,,,,,,,,,,,,,,,,,,,,,,,,,,,,,,,,,,,,,,,,,,,,,,,,,,,,,,,,,,,,,,,,,,,,,,,,,,,,,,,,,,,,,,,,,,,,,,,,,,,,,,,,,,,,,,,,,,,,,,,,,,,,,,,,,,
,,,,,,60563630dd344659e462b608,62bbfb13a9e1a6964bc288e8,2022-06-29_09h11.43,Colour_Asymmetry_Pilot,2022.1.3,MacIntel,58.82352941,62bbe60bf3d75ef465d3e404,0,78,78,25,1,onethree,,,,,,,,,,,,,,,,,,,,,,,,,,,,,,,,,,,,,,,,,,,,,,,,,,,,,,,,,,,,,,,,,,,,,,,,,,,,,,,,,,,,,,,,,,,,,,,,,,,,,,,,,,,,,,,,,,,,,,,,,,,,,,,,,,,,,,,,,,,,,,,,,,,,,,,,
,,,,,,60563630dd344659e462b608,62bbfb13a9e1a6964bc288e8,2022-06-29_09h11.43,Colour_Asymmetry_Pilot,2022.1.3,MacIntel,58.82352941,62bbe60bf3d75ef465d3e404,0,79,79,51,1,twofour,,,,,,,,,,,,,,,,,,,,,,,,,,,,,,,,,,,,,,,,,,,,,,,,,,,,,,,,,,,,,,,,,,,,,,,,,,,,,,,,,,,,,,,,,,,,,,,,,,,,,,,,,,,,,,,,,,,,,,,,,,,,,,,,,,,,,,,,,,,,,,,,,,,,,,,,
,,,,,,60563630dd344659e462b608,62bbfb13a9e1a6964bc288e8,2022-06-29_09h11.43,Colour_Asymmetry_Pilot,2022.1.3,MacIntel,58.82352941,62bbe60bf3d75ef465d3e404,0,80,80,144,1,onetwo,,,,,,,,,,,,,,,,,,,,,,,,,,,,,,,,,,,,,,,,,,,,,,,,,,,,,,,,,,,,,,,,,,,,,,,,,,,,,,,,,,,,,,,,,,,,,,,,,,,,,,,,,,,,,,,,,,,,,,,,,,,,,,,,,,,,,,,,,,,,,,,,,,,,,,,,
,,,,,,60563630dd344659e462b608,62bbfb13a9e1a6964bc288e8,2022-06-29_09h11.43,Colour_Asymmetry_Pilot,2022.1.3,MacIntel,58.82352941,62bbe60bf3d75ef465d3e404,0,81,81,72,1,onetwo,,,,,,,,,,,,,,,,,,,,,,,,,,,,,,,,,,,,,,,,,,,,,,,,,,,,,,,,,,,,,,,,,,,,,,,,,,,,,,,,,,,,,,,,,,,,,,,,,,,,,,,,,,,,,,,,,,,,,,,,,,,,,,,,,,,,,,,,,,,,,,,,,,,,,,,,
,,,,,,60563630dd344659e462b608,62bbfb13a9e1a6964bc288e8,2022-06-29_09h11.43,Colour_Asymmetry_Pilot,2022.1.3,MacIntel,58.82352941,62bbe60bf3d75ef465d3e404,0,82,82,67,1,twofour,,,,,,,,,,,,,,,,,,,,,,,,,,,,,,,,,,,,,,,,,,,,,,,,,,,,,,,,,,,,,,,,,,,,,,,,,,,,,,,,,,,,,,,,,,,,,,,,,,,,,,,,,,,,,,,,,,,,,,,,,,,,,,,,,,,,,,,,,,,,,,,,,,,,,,,,
,,,,,,60563630dd344659e462b608,62bbfb13a9e1a6964bc288e8,2022-06-29_09h11.43,Colour_Asymmetry_Pilot,2022.1.3,MacIntel,58.82352941,62bbe60bf3d75ef465d3e404,0,83,83,41,1,onethree,,,,,,,,,,,,,,,,,,,,,,,,,,,,,,,,,,,,,,,,,,,,,,,,,,,,,,,,,,,,,,,,,,,,,,,,,,,,,,,,,,,,,,,,,,,,,,,,,,,,,,,,,,,,,,,,,,,,,,,,,,,,,,,,,,,,,,,,,,,,,,,,,,,,,,,,
,,,,,,60563630dd344659e462b608,62bbfb13a9e1a6964bc288e8,2022-06-29_09h11.43,Colour_Asymmetry_Pilot,2022.1.3,MacIntel,58.82352941,62bbe60bf3d75ef465d3e404,0,84,84,32,1,onetwo,,,,,,,,,,,,,,,,,,,,,,,,,,,,,,,,,,,,,,,,,,,,,,,,,,,,,,,,,,,,,,,,,,,,,,,,,,,,,,,,,,,,,,,,,,,,,,,,,,,,,,,,,,,,,,,,,,,,,,,,,,,,,,,,,,,,,,,,,,,,,,,,,,,,,,,,
,,,,,,60563630dd344659e462b608,62bbfb13a9e1a6964bc288e8,2022-06-29_09h11.43,Colour_Asymmetry_Pilot,2022.1.3,MacIntel,58.82352941,62bbe60bf3d75ef465d3e404,0,85,85,65,1,onethree,,,,,,,,,,,,,,,,,,,,,,,,,,,,,,,,,,,,,,,,,,,,,,,,,,,,,,,,,,,,,,,,,,,,,,,,,,,,,,,,,,,,,,,,,,,,,,,,,,,,,,,,,,,,,,,,,,,,,,,,,,,,,,,,,,,,,,,,,,,,,,,,,,,,,,,,
,,,,,,60563630dd344659e462b608,62bbfb13a9e1a6964bc288e8,2022-06-29_09h11.43,Colour_Asymmetry_Pilot,2022.1.3,MacIntel,58.82352941,62bbe60bf3d75ef465d3e404,0,86,86,101,1,threefour,,,,,,,,,,,,,,,,,,,,,,,,,,,,,,,,,,,,,,,,,,,,,,,,,,,,,,,,,,,,,,,,,,,,,,,,,,,,,,,,,,,,,,,,,,,,,,,,,,,,,,,,,,,,,,,,,,,,,,,,,,,,,,,,,,,,,,,,,,,,,,,,,,,,,,,,
,,,,,,60563630dd344659e462b608,62bbfb13a9e1a6964bc288e8,2022-06-29_09h11.43,Colour_Asymmetry_Pilot,2022.1.3,MacIntel,58.82352941,62bbe60bf3d75ef465d3e404,0,87,87,98,1,twoone,,,,,,,,,,,,,,,,,,,,,,,,,,,,,,,,,,,,,,,,,,,,,,,,,,,,,,,,,,,,,,,,,,,,,,,,,,,,,,,,,,,,,,,,,,,,,,,,,,,,,,,,,,,,,,,,,,,,,,,,,,,,,,,,,,,,,,,,,,,,,,,,,,,,,,,,
,,,,,,60563630dd344659e462b608,62bbfb13a9e1a6964bc288e8,2022-06-29_09h11.43,Colour_Asymmetry_Pilot,2022.1.3,MacIntel,58.82352941,62bbe60bf3d75ef465d3e404,0,88,88,13,1,threefour,,,,,,,,,,,,,,,,,,,,,,,,,,,,,,,,,,,,,,,,,,,,,,,,,,,,,,,,,,,,,,,,,,,,,,,,,,,,,,,,,,,,,,,,,,,,,,,,,,,,,,,,,,,,,,,,,,,,,,,,,,,,,,,,,,,,,,,,,,,,,,,,,,,,,,,,
,,,,,,60563630dd344659e462b608,62bbfb13a9e1a6964bc288e8,2022-06-29_09h11.43,Colour_Asymmetry_Pilot,2022.1.3,MacIntel,58.82352941,62bbe60bf3d75ef465d3e404,0,89,89,74,1,twoone,,,,,,,,,,,,,,,,,,,,,,,,,,,,,,,,,,,,,,,,,,,,,,,,,,,,,,,,,,,,,,,,,,,,,,,,,,,,,,,,,,,,,,,,,,,,,,,,,,,,,,,,,,,,,,,,,,,,,,,,,,,,,,,,,,,,,,,,,,,,,,,,,,,,,,,,
,,,,,,60563630dd344659e462b608,62bbfb13a9e1a6964bc288e8,2022-06-29_09h11.43,Colour_Asymmetry_Pilot,2022.1.3,MacIntel,58.82352941,62bbe60bf3d75ef465d3e404,0,90,90,152,1,onetwo,,,,,,,,,,,,,,,,,,,,,,,,,,,,,,,,,,,,,,,,,,,,,,,,,,,,,,,,,,,,,,,,,,,,,,,,,,,,,,,,,,,,,,,,,,,,,,,,,,,,,,,,,,,,,,,,,,,,,,,,,,,,,,,,,,,,,,,,,,,,,,,,,,,,,,,,
,,,,,,60563630dd344659e462b608,62bbfb13a9e1a6964bc288e8,2022-06-29_09h11.43,Colour_Asymmetry_Pilot,2022.1.3,MacIntel,58.82352941,62bbe60bf3d75ef465d3e404,0,91,91,146,1,twoone,,,,,,,,,,,,,,,,,,,,,,,,,,,,,,,,,,,,,,,,,,,,,,,,,,,,,,,,,,,,,,,,,,,,,,,,,,,,,,,,,,,,,,,,,,,,,,,,,,,,,,,,,,,,,,,,,,,,,,,,,,,,,,,,,,,,,,,,,,,,,,,,,,,,,,,,
,,,,,,60563630dd344659e462b608,62bbfb13a9e1a6964bc288e8,2022-06-29_09h11.43,Colour_Asymmetry_Pilot,2022.1.3,MacIntel,58.82352941,62bbe60bf3d75ef465d3e404,0,92,92,60,1,threeone,,,,,,,,,,,,,,,,,,,,,,,,,,,,,,,,,,,,,,,,,,,,,,,,,,,,,,,,,,,,,,,,,,,,,,,,,,,,,,,,,,,,,,,,,,,,,,,,,,,,,,,,,,,,,,,,,,,,,,,,,,,,,,,,,,,,,,,,,,,,,,,,,,,,,,,,
,,,,,,60563630dd344659e462b608,62bbfb13a9e1a6964bc288e8,2022-06-29_09h11.43,Colour_Asymmetry_Pilot,2022.1.3,MacIntel,58.82352941,62bbe60bf3d75ef465d3e404,0,93,93,5,1,threefour,,,,,,,,,,,,,,,,,,,,,,,,,,,,,,,,,,,,,,,,,,,,,,,,,,,,,,,,,,,,,,,,,,,,,,,,,,,,,,,,,,,,,,,,,,,,,,,,,,,,,,,,,,,,,,,,,,,,,,,,,,,,,,,,,,,,,,,,,,,,,,,,,,,,,,,,
,,,,,,60563630dd344659e462b608,62bbfb13a9e1a6964bc288e8,2022-06-29_09h11.43,Colour_Asymmetry_Pilot,2022.1.3,MacIntel,58.82352941,62bbe60bf3d75ef465d3e404,0,94,94,94,1,fourtwo,,,,,,,,,,,,,,,,,,,,,,,,,,,,,,,,,,,,,,,,,,,,,,,,,,,,,,,,,,,,,,,,,,,,,,,,,,,,,,,,,,,,,,,,,,,,,,,,,,,,,,,,,,,,,,,,,,,,,,,,,,,,,,,,,,,,,,,,,,,,,,,,,,,,,,,,
,,,,,,60563630dd344659e462b608,62bbfb13a9e1a6964bc288e8,2022-06-29_09h11.43,Colour_Asymmetry_Pilot,2022.1.3,MacIntel,58.82352941,62bbe60bf3d75ef465d3e404,0,95,95,9,1,onethree,,,,,,,,,,,,,,,,,,,,,,,,,,,,,,,,,,,,,,,,,,,,,,,,,,,,,,,,,,,,,,,,,,,,,,,,,,,,,,,,,,,,,,,,,,,,,,,,,,,,,,,,,,,,,,,,,,,,,,,,,,,,,,,,,,,,,,,,,,,,,,,,,,,,,,,,
,,,,,,60563630dd344659e462b608,62bbfb13a9e1a6964bc288e8,2022-06-29_09h11.43,Colour_Asymmetry_Pilot,2022.1.3,MacIntel,58.82352941,62bbe60bf3d75ef465d3e404,0,96,96,81,1,onethree,,,,,,,,,,,,,,,,,,,,,,,,,,,,,,,,,,,,,,,,,,,,,,,,,,,,,,,,,,,,,,,,,,,,,,,,,,,,,,,,,,,,,,,,,,,,,,,,,,,,,,,,,,,,,,,,,,,,,,,,,,,,,,,,,,,,,,,,,,,,,,,,,,,,,,,,
,,,,,,60563630dd344659e462b608,62bbfb13a9e1a6964bc288e8,2022-06-29_09h11.43,Colour_Asymmetry_Pilot,2022.1.3,MacIntel,58.82352941,62bbe60bf3d75ef465d3e404,0,97,97,134,1,fourtwo,,,,,,,,,,,,,,,,,,,,,,,,,,,,,,,,,,,,,,,,,,,,,,,,,,,,,,,,,,,,,,,,,,,,,,,,,,,,,,,,,,,,,,,,,,,,,,,,,,,,,,,,,,,,,,,,,,,,,,,,,,,,,,,,,,,,,,,,,,,,,,,,,,,,,,,,
,,,,,,60563630dd344659e462b608,62bbfb13a9e1a6964bc288e8,2022-06-29_09h11.43,Colour_Asymmetry_Pilot,2022.1.3,MacIntel,58.82352941,62bbe60bf3d75ef465d3e404,0,98,98,80,1,onetwo,,,,,,,,,,,,,,,,,,,,,,,,,,,,,,,,,,,,,,,,,,,,,,,,,,,,,,,,,,,,,,,,,,,,,,,,,,,,,,,,,,,,,,,,,,,,,,,,,,,,,,,,,,,,,,,,,,,,,,,,,,,,,,,,,,,,,,,,,,,,,,,,,,,,,,,,
,,,,,,60563630dd344659e462b608,62bbfb13a9e1a6964bc288e8,2022-06-29_09h11.43,Colour_Asymmetry_Pilot,2022.1.3,MacIntel,58.82352941,62bbe60bf3d75ef465d3e404,0,99,99,69,1,threefour,,,,,,,,,,,,,,,,,,,,,,,,,,,,,,,,,,,,,,,,,,,,,,,,,,,,,,,,,,,,,,,,,,,,,,,,,,,,,,,,,,,,,,,,,,,,,,,,,,,,,,,,,,,,,,,,,,,,,,,,,,,,,,,,,,,,,,,,,,,,,,,,,,,,,,,,
,,,,,,60563630dd344659e462b608,62bbfb13a9e1a6964bc288e8,2022-06-29_09h11.43,Colour_Asymmetry_Pilot,2022.1.3,MacIntel,58.82352941,62bbe60bf3d75ef465d3e404,0,100,100,64,1,onetwo,,,,,,,,,,,,,,,,,,,,,,,,,,,,,,,,,,,,,,,,,,,,,,,,,,,,,,,,,,,,,,,,,,,,,,,,,,,,,,,,,,,,,,,,,,,,,,,,,,,,,,,,,,,,,,,,,,,,,,,,,,,,,,,,,,,,,,,,,,,,,,,,,,,,,,,,
,,,,,,60563630dd344659e462b608,62bbfb13a9e1a6964bc288e8,2022-06-29_09h11.43,Colour_Asymmetry_Pilot,2022.1.3,MacIntel,58.82352941,62bbe60bf3d75ef465d3e404,0,101,101,103,1,fourthree,,,,,,,,,,,,,,,,,,,,,,,,,,,,,,,,,,,,,,,,,,,,,,,,,,,,,,,,,,,,,,,,,,,,,,,,,,,,,,,,,,,,,,,,,,,,,,,,,,,,,,,,,,,,,,,,,,,,,,,,,,,,,,,,,,,,,,,,,,,,,,,,,,,,,,,,
,,,,,,60563630dd344659e462b608,62bbfb13a9e1a6964bc288e8,2022-06-29_09h11.43,Colour_Asymmetry_Pilot,2022.1.3,MacIntel,58.82352941,62bbe60bf3d75ef465d3e404,0,102,102,70,1,fourtwo,,,,,,,,,,,,,,,,,,,,,,,,,,,,,,,,,,,,,,,,,,,,,,,,,,,,,,,,,,,,,,,,,,,,,,,,,,,,,,,,,,,,,,,,,,,,,,,,,,,,,,,,,,,,,,,,,,,,,,,,,,,,,,,,,,,,,,,,,,,,,,,,,,,,,,,,
,,,,,,60563630dd344659e462b608,62bbfb13a9e1a6964bc288e8,2022-06-29_09h11.43,Colour_Asymmetry_Pilot,2022.1.3,MacIntel,58.82352941,62bbe60bf3d75ef465d3e404,0,103,103,14,1,fourtwo,,,,,,,,,,,,,,,,,,,,,,,,,,,,,,,,,,,,,,,,,,,,,,,,,,,,,,,,,,,,,,,,,,,,,,,,,,,,,,,,,,,,,,,,,,,,,,,,,,,,,,,,,,,,,,,,,,,,,,,,,,,,,,,,,,,,,,,,,,,,,,,,,,,,,,,,
,,,,,,60563630dd344659e462b608,62bbfb13a9e1a6964bc288e8,2022-06-29_09h11.43,Colour_Asymmetry_Pilot,2022.1.3,MacIntel,58.82352941,62bbe60bf3d75ef465d3e404,0,104,104,108,1,threeone,,,,,,,,,,,,,,,,,,,,,,,,,,,,,,,,,,,,,,,,,,,,,,,,,,,,,,,,,,,,,,,,,,,,,,,,,,,,,,,,,,,,,,,,,,,,,,,,,,,,,,,,,,,,,,,,,,,,,,,,,,,,,,,,,,,,,,,,,,,,,,,,,,,,,,,,
,,,,,,60563630dd344659e462b608,62bbfb13a9e1a6964bc288e8,2022-06-29_09h11.43,Colour_Asymmetry_Pilot,2022.1.3,MacIntel,58.82352941,62bbe60bf3d75ef465d3e404,0,105,105,130,1,twoone,,,,,,,,,,,,,,,,,,,,,,,,,,,,,,,,,,,,,,,,,,,,,,,,,,,,,,,,,,,,,,,,,,,,,,,,,,,,,,,,,,,,,,,,,,,,,,,,,,,,,,,,,,,,,,,,,,,,,,,,,,,,,,,,,,,,,,,,,,,,,,,,,,,,,,,,
,,,,,,60563630dd344659e462b608,62bbfb13a9e1a6964bc288e8,2022-06-29_09h11.43,Colour_Asymmetry_Pilot,2022.1.3,MacIntel,58.82352941,62bbe60bf3d75ef465d3e404,0,106,106,58,1,twoone,,,,,,,,,,,,,,,,,,,,,,,,,,,,,,,,,,,,,,,,,,,,,,,,,,,,,,,,,,,,,,,,,,,,,,,,,,,,,,,,,,,,,,,,,,,,,,,,,,,,,,,,,,,,,,,,,,,,,,,,,,,,,,,,,,,,,,,,,,,,,,,,,,,,,,,,
,,,,,,60563630dd344659e462b608,62bbfb13a9e1a6964bc288e8,2022-06-29_09h11.43,Colour_Asymmetry_Pilot,2022.1.3,MacIntel,58.82352941,62bbe60bf3d75ef465d3e404,0,107,107,75,1,twofour,,,,,,,,,,,,,,,,,,,,,,,,,,,,,,,,,,,,,,,,,,,,,,,,,,,,,,,,,,,,,,,,,,,,,,,,,,,,,,,,,,,,,,,,,,,,,,,,,,,,,,,,,,,,,,,,,,,,,,,,,,,,,,,,,,,,,,,,,,,,,,,,,,,,,,,,
,,,,,,60563630dd344659e462b608,62bbfb13a9e1a6964bc288e8,2022-06-29_09h11.43,Colour_Asymmetry_Pilot,2022.1.3,MacIntel,58.82352941,62bbe60bf3d75ef465d3e404,0,108,108,121,1,onethree,,,,,,,,,,,,,,,,,,,,,,,,,,,,,,,,,,,,,,,,,,,,,,,,,,,,,,,,,,,,,,,,,,,,,,,,,,,,,,,,,,,,,,,,,,,,,,,,,,,,,,,,,,,,,,,,,,,,,,,,,,,,,,,,,,,,,,,,,,,,,,,,,,,,,,,,
,,,,,,60563630dd344659e462b608,62bbfb13a9e1a6964bc288e8,2022-06-29_09h11.43,Colour_Asymmetry_Pilot,2022.1.3,MacIntel,58.82352941,62bbe60bf3d75ef465d3e404,0,109,109,3,1,twofour,,,,,,,,,,,,,,,,,,,,,,,,,,,,,,,,,,,,,,,,,,,,,,,,,,,,,,,,,,,,,,,,,,,,,,,,,,,,,,,,,,,,,,,,,,,,,,,,,,,,,,,,,,,,,,,,,,,,,,,,,,,,,,,,,,,,,,,,,,,,,,,,,,,,,,,,
,,,,,,60563630dd344659e462b608,62bbfb13a9e1a6964bc288e8,2022-06-29_09h11.43,Colour_Asymmetry_Pilot,2022.1.3,MacIntel,58.82352941,62bbe60bf3d75ef465d3e404,0,110,110,17,1,onethree,,,,,,,,,,,,,,,,,,,,,,,,,,,,,,,,,,,,,,,,,,,,,,,,,,,,,,,,,,,,,,,,,,,,,,,,,,,,,,,,,,,,,,,,,,,,,,,,,,,,,,,,,,,,,,,,,,,,,,,,,,,,,,,,,,,,,,,,,,,,,,,,,,,,,,,,
,,,,,,60563630dd344659e462b608,62bbfb13a9e1a6964bc288e8,2022-06-29_09h11.43,Colour_Asymmetry_Pilot,2022.1.3,MacIntel,58.82352941,62bbe60bf3d75ef465d3e404,0,111,111,143,1,fourthree,,,,,,,,,,,,,,,,,,,,,,,,,,,,,,,,,,,,,,,,,,,,,,,,,,,,,,,,,,,,,,,,,,,,,,,,,,,,,,,,,,,,,,,,,,,,,,,,,,,,,,,,,,,,,,,,,,,,,,,,,,,,,,,,,,,,,,,,,,,,,,,,,,,,,,,,
,,,,,,60563630dd344659e462b608,62bbfb13a9e1a6964bc288e8,2022-06-29_09h11.43,Colour_Asymmetry_Pilot,2022.1.3,MacIntel,58.82352941,62bbe60bf3d75ef465d3e404,0,112,112,156,1,threeone,,,,,,,,,,,,,,,,,,,,,,,,,,,,,,,,,,,,,,,,,,,,,,,,,,,,,,,,,,,,,,,,,,,,,,,,,,,,,,,,,,,,,,,,,,,,,,,,,,,,,,,,,,,,,,,,,,,,,,,,,,,,,,,,,,,,,,,,,,,,,,,,,,,,,,,,
,,,,,,60563630dd344659e462b608,62bbfb13a9e1a6964bc288e8,2022-06-29_09h11.43,Colour_Asymmetry_Pilot,2022.1.3,MacIntel,58.82352941,62bbe60bf3d75ef465d3e404,0,113,113,50,1,twoone,,,,,,,,,,,,,,,,,,,,,,,,,,,,,,,,,,,,,,,,,,,,,,,,,,,,,,,,,,,,,,,,,,,,,,,,,,,,,,,,,,,,,,,,,,,,,,,,,,,,,,,,,,,,,,,,,,,,,,,,,,,,,,,,,,,,,,,,,,,,,,,,,,,,,,,,
,,,,,,60563630dd344659e462b608,62bbfb13a9e1a6964bc288e8,2022-06-29_09h11.43,Colour_Asymmetry_Pilot,2022.1.3,MacIntel,58.82352941,62bbe60bf3d75ef465d3e404,0,114,114,110,1,fourtwo,,,,,,,,,,,,,,,,,,,,,,,,,,,,,,,,,,,,,,,,,,,,,,,,,,,,,,,,,,,,,,,,,,,,,,,,,,,,,,,,,,,,,,,,,,,,,,,,,,,,,,,,,,,,,,,,,,,,,,,,,,,,,,,,,,,,,,,,,,,,,,,,,,,,,,,,
,,,,,,60563630dd344659e462b608,62bbfb13a9e1a6964bc288e8,2022-06-29_09h11.43,Colour_Asymmetry_Pilot,2022.1.3,MacIntel,58.82352941,62bbe60bf3d75ef465d3e404,0,115,115,89,1,onethree,,,,,,,,,,,,,,,,,,,,,,,,,,,,,,,,,,,,,,,,,,,,,,,,,,,,,,,,,,,,,,,,,,,,,,,,,,,,,,,,,,,,,,,,,,,,,,,,,,,,,,,,,,,,,,,,,,,,,,,,,,,,,,,,,,,,,,,,,,,,,,,,,,,,,,,,
,,,,,,60563630dd344659e462b608,62bbfb13a9e1a6964bc288e8,2022-06-29_09h11.43,Colour_Asymmetry_Pilot,2022.1.3,MacIntel,58.82352941,62bbe60bf3d75ef465d3e404,0,116,116,154,1,twoone,,,,,,,,,,,,,,,,,,,,,,,,,,,,,,,,,,,,,,,,,,,,,,,,,,,,,,,,,,,,,,,,,,,,,,,,,,,,,,,,,,,,,,,,,,,,,,,,,,,,,,,,,,,,,,,,,,,,,,,,,,,,,,,,,,,,,,,,,,,,,,,,,,,,,,,,
,,,,,,60563630dd344659e462b608,62bbfb13a9e1a6964bc288e8,2022-06-29_09h11.43,Colour_Asymmetry_Pilot,2022.1.3,MacIntel,58.82352941,62bbe60bf3d75ef465d3e404,0,117,117,105,1,onethree,,,,,,,,,,,,,,,,,,,,,,,,,,,,,,,,,,,,,,,,,,,,,,,,,,,,,,,,,,,,,,,,,,,,,,,,,,,,,,,,,,,,,,,,,,,,,,,,,,,,,,,,,,,,,,,,,,,,,,,,,,,,,,,,,,,,,,,,,,,,,,,,,,,,,,,,
,,,,,,60563630dd344659e462b608,62bbfb13a9e1a6964bc288e8,2022-06-29_09h11.43,Colour_Asymmetry_Pilot,2022.1.3,MacIntel,58.82352941,62bbe60bf3d75ef465d3e404,0,118,118,27,1,twofour,,,,,,,,,,,,,,,,,,,,,,,,,,,,,,,,,,,,,,,,,,,,,,,,,,,,,,,,,,,,,,,,,,,,,,,,,,,,,,,,,,,,,,,,,,,,,,,,,,,,,,,,,,,,,,,,,,,,,,,,,,,,,,,,,,,,,,,,,,,,,,,,,,,,,,,,
,,,,,,60563630dd344659e462b608,62bbfb13a9e1a6964bc288e8,2022-06-29_09h11.43,Colour_Asymmetry_Pilot,2022.1.3,MacIntel,58.82352941,62bbe60bf3d75ef465d3e404,0,119,119,8,1,onetwo,,,,,,,,,,,,,,,,,,,,,,,,,,,,,,,,,,,,,,,,,,,,,,,,,,,,,,,,,,,,,,,,,,,,,,,,,,,,,,,,,,,,,,,,,,,,,,,,,,,,,,,,,,,,,,,,,,,,,,,,,,,,,,,,,,,,,,,,,,,,,,,,,,,,,,,,
,,,,,,60563630dd344659e462b608,62bbfb13a9e1a6964bc288e8,2022-06-29_09h11.43,Colour_Asymmetry_Pilot,2022.1.3,MacIntel,58.82352941,62bbe60bf3d75ef465d3e404,0,120,120,37,1,threefour,,,,,,,,,,,,,,,,,,,,,,,,,,,,,,,,,,,,,,,,,,,,,,,,,,,,,,,,,,,,,,,,,,,,,,,,,,,,,,,,,,,,,,,,,,,,,,,,,,,,,,,,,,,,,,,,,,,,,,,,,,,,,,,,,,,,,,,,,,,,,,,,,,,,,,,,
,,,,,,60563630dd344659e462b608,62bbfb13a9e1a6964bc288e8,2022-06-29_09h11.43,Colour_Asymmetry_Pilot,2022.1.3,MacIntel,58.82352941,62bbe60bf3d75ef465d3e404,0,121,121,160,1,onetwo,,,,,,,,,,,,,,,,,,,,,,,,,,,,,,,,,,,,,,,,,,,,,,,,,,,,,,,,,,,,,,,,,,,,,,,,,,,,,,,,,,,,,,,,,,,,,,,,,,,,,,,,,,,,,,,,,,,,,,,,,,,,,,,,,,,,,,,,,,,,,,,,,,,,,,,,
,,,,,,60563630dd344659e462b608,62bbfb13a9e1a6964bc288e8,2022-06-29_09h11.43,Colour_Asymmetry_Pilot,2022.1.3,MacIntel,58.82352941,62bbe60bf3d75ef465d3e404,0,122,122,95,1,fourthree,,,,,,,,,,,,,,,,,,,,,,,,,,,,,,,,,,,,,,,,,,,,,,,,,,,,,,,,,,,,,,,,,,,,,,,,,,,,,,,,,,,,,,,,,,,,,,,,,,,,,,,,,,,,,,,,,,,,,,,,,,,,,,,,,,,,,,,,,,,,,,,,,,,,,,,,
,,,,,,60563630dd344659e462b608,62bbfb13a9e1a6964bc288e8,2022-06-29_09h11.43,Colour_Asymmetry_Pilot,2022.1.3,MacIntel,58.82352941,62bbe60bf3d75ef465d3e404,0,123,123,93,1,threefour,,,,,,,,,,,,,,,,,,,,,,,,,,,,,,,,,,,,,,,,,,,,,,,,,,,,,,,,,,,,,,,,,,,,,,,,,,,,,,,,,,,,,,,,,,,,,,,,,,,,,,,,,,,,,,,,,,,,,,,,,,,,,,,,,,,,,,,,,,,,,,,,,,,,,,,,
,,,,,,60563630dd344659e462b608,62bbfb13a9e1a6964bc288e8,2022-06-29_09h11.43,Colour_Asymmetry_Pilot,2022.1.3,MacIntel,58.82352941,62bbe60bf3d75ef465d3e404,0,124,124,61,1,threefour,,,,,,,,,,,,,,,,,,,,,,,,,,,,,,,,,,,,,,,,,,,,,,,,,,,,,,,,,,,,,,,,,,,,,,,,,,,,,,,,,,,,,,,,,,,,,,,,,,,,,,,,,,,,,,,,,,,,,,,,,,,,,,,,,,,,,,,,,,,,,,,,,,,,,,,,
,,,,,,60563630dd344659e462b608,62bbfb13a9e1a6964bc288e8,2022-06-29_09h11.43,Colour_Asymmetry_Pilot,2022.1.3,MacIntel,58.82352941,62bbe60bf3d75ef465d3e404,0,125,125,96,1,onetwo,,,,,,,,,,,,,,,,,,,,,,,,,,,,,,,,,,,,,,,,,,,,,,,,,,,,,,,,,,,,,,,,,,,,,,,,,,,,,,,,,,,,,,,,,,,,,,,,,,,,,,,,,,,,,,,,,,,,,,,,,,,,,,,,,,,,,,,,,,,,,,,,,,,,,,,,
,,,,,,60563630dd344659e462b608,62bbfb13a9e1a6964bc288e8,2022-06-29_09h11.43,Colour_Asymmetry_Pilot,2022.1.3,MacIntel,58.82352941,62bbe60bf3d75ef465d3e404,0,126,126,77,1,threefour,,,,,,,,,,,,,,,,,,,,,,,,,,,,,,,,,,,,,,,,,,,,,,,,,,,,,,,,,,,,,,,,,,,,,,,,,,,,,,,,,,,,,,,,,,,,,,,,,,,,,,,,,,,,,,,,,,,,,,,,,,,,,,,,,,,,,,,,,,,,,,,,,,,,,,,,
,,,,,,60563630dd344659e462b608,62bbfb13a9e1a6964bc288e8,2022-06-29_09h11.43,Colour_Asymmetry_Pilot,2022.1.3,MacIntel,58.82352941,62bbe60bf3d75ef465d3e404,0,127,127,132,1,threeone,,,,,,,,,,,,,,,,,,,,,,,,,,,,,,,,,,,,,,,,,,,,,,,,,,,,,,,,,,,,,,,,,,,,,,,,,,,,,,,,,,,,,,,,,,,,,,,,,,,,,,,,,,,,,,,,,,,,,,,,,,,,,,,,,,,,,,,,,,,,,,,,,,,,,,,,
,,,,,,60563630dd344659e462b608,62bbfb13a9e1a6964bc288e8,2022-06-29_09h11.43,Colour_Asymmetry_Pilot,2022.1.3,MacIntel,58.82352941,62bbe60bf3d75ef465d3e404,0,128,128,23,1,fourthree,,,,,,,,,,,,,,,,,,,,,,,,,,,,,,,,,,,,,,,,,,,,,,,,,,,,,,,,,,,,,,,,,,,,,,,,,,,,,,,,,,,,,,,,,,,,,,,,,,,,,,,,,,,,,,,,,,,,,,,,,,,,,,,,,,,,,,,,,,,,,,,,,,,,,,,,
,,,,,,60563630dd344659e462b608,62bbfb13a9e1a6964bc288e8,2022-06-29_09h11.43,Colour_Asymmetry_Pilot,2022.1.3,MacIntel,58.82352941,62bbe60bf3d75ef465d3e404,0,129,129,147,1,twofour,,,,,,,,,,,,,,,,,,,,,,,,,,,,,,,,,,,,,,,,,,,,,,,,,,,,,,,,,,,,,,,,,,,,,,,,,,,,,,,,,,,,,,,,,,,,,,,,,,,,,,,,,,,,,,,,,,,,,,,,,,,,,,,,,,,,,,,,,,,,,,,,,,,,,,,,
,,,,,,60563630dd344659e462b608,62bbfb13a9e1a6964bc288e8,2022-06-29_09h11.43,Colour_Asymmetry_Pilot,2022.1.3,MacIntel,58.82352941,62bbe60bf3d75ef465d3e404,0,130,130,4,1,threeone,,,,,,,,,,,,,,,,,,,,,,,,,,,,,,,,,,,,,,,,,,,,,,,,,,,,,,,,,,,,,,,,,,,,,,,,,,,,,,,,,,,,,,,,,,,,,,,,,,,,,,,,,,,,,,,,,,,,,,,,,,,,,,,,,,,,,,,,,,,,,,,,,,,,,,,,
,,,,,,60563630dd344659e462b608,62bbfb13a9e1a6964bc288e8,2022-06-29_09h11.43,Colour_Asymmetry_Pilot,2022.1.3,MacIntel,58.82352941,62bbe60bf3d75ef465d3e404,0,131,131,48,1,onetwo,,,,,,,,,,,,,,,,,,,,,,,,,,,,,,,,,,,,,,,,,,,,,,,,,,,,,,,,,,,,,,,,,,,,,,,,,,,,,,,,,,,,,,,,,,,,,,,,,,,,,,,,,,,,,,,,,,,,,,,,,,,,,,,,,,,,,,,,,,,,,,,,,,,,,,,,
,,,,,,60563630dd344659e462b608,62bbfb13a9e1a6964bc288e8,2022-06-29_09h11.43,Colour_Asymmetry_Pilot,2022.1.3,MacIntel,58.82352941,62bbe60bf3d75ef465d3e404,0,132,132,145,1,onethree,,,,,,,,,,,,,,,,,,,,,,,,,,,,,,,,,,,,,,,,,,,,,,,,,,,,,,,,,,,,,,,,,,,,,,,,,,,,,,,,,,,,,,,,,,,,,,,,,,,,,,,,,,,,,,,,,,,,,,,,,,,,,,,,,,,,,,,,,,,,,,,,,,,,,,,,
,,,,,,60563630dd344659e462b608,62bbfb13a9e1a6964bc288e8,2022-06-29_09h11.43,Colour_Asymmetry_Pilot,2022.1.3,MacIntel,58.82352941,62bbe60bf3d75ef465d3e404,0,133,133,135,1,fourthree,,,,,,,,,,,,,,,,,,,,,,,,,,,,,,,,,,,,,,,,,,,,,,,,,,,,,,,,,,,,,,,,,,,,,,,,,,,,,,,,,,,,,,,,,,,,,,,,,,,,,,,,,,,,,,,,,,,,,,,,,,,,,,,,,,,,,,,,,,,,,,,,,,,,,,,,
,,,,,,60563630dd344659e462b608,62bbfb13a9e1a6964bc288e8,2022-06-29_09h11.43,Colour_Asymmetry_Pilot,2022.1.3,MacIntel,58.82352941,62bbe60bf3d75ef465d3e404,0,134,134,39,1,fourthree,,,,,,,,,,,,,,,,,,,,,,,,,,,,,,,,,,,,,,,,,,,,,,,,,,,,,,,,,,,,,,,,,,,,,,,,,,,,,,,,,,,,,,,,,,,,,,,,,,,,,,,,,,,,,,,,,,,,,,,,,,,,,,,,,,,,,,,,,,,,,,,,,,,,,,,,
,,,,,,60563630dd344659e462b608,62bbfb13a9e1a6964bc288e8,2022-06-29_09h11.43,Colour_Asymmetry_Pilot,2022.1.3,MacIntel,58.82352941,62bbe60bf3d75ef465d3e404,0,135,135,44,1,threeone,,,,,,,,,,,,,,,,,,,,,,,,,,,,,,,,,,,,,,,,,,,,,,,,,,,,,,,,,,,,,,,,,,,,,,,,,,,,,,,,,,,,,,,,,,,,,,,,,,,,,,,,,,,,,,,,,,,,,,,,,,,,,,,,,,,,,,,,,,,,,,,,,,,,,,,,
,,,,,,60563630dd344659e462b608,62bbfb13a9e1a6964bc288e8,2022-06-29_09h11.43,Colour_Asymmetry_Pilot,2022.1.3,MacIntel,58.82352941,62bbe60bf3d75ef465d3e404,0,136,136,2,1,twoone,,,,,,,,,,,,,,,,,,,,,,,,,,,,,,,,,,,,,,,,,,,,,,,,,,,,,,,,,,,,,,,,,,,,,,,,,,,,,,,,,,,,,,,,,,,,,,,,,,,,,,,,,,,,,,,,,,,,,,,,,,,,,,,,,,,,,,,,,,,,,,,,,,,,,,,,
,,,,,,60563630dd344659e462b608,62bbfb13a9e1a6964bc288e8,2022-06-29_09h11.43,Colour_Asymmetry_Pilot,2022.1.3,MacIntel,58.82352941,62bbe60bf3d75ef465d3e404,0,137,137,15,1,fourthree,,,,,,,,,,,,,,,,,,,,,,,,,,,,,,,,,,,,,,,,,,,,,,,,,,,,,,,,,,,,,,,,,,,,,,,,,,,,,,,,,,,,,,,,,,,,,,,,,,,,,,,,,,,,,,,,,,,,,,,,,,,,,,,,,,,,,,,,,,,,,,,,,,,,,,,,
,,,,,,60563630dd344659e462b608,62bbfb13a9e1a6964bc288e8,2022-06-29_09h11.43,Colour_Asymmetry_Pilot,2022.1.3,MacIntel,58.82352941,62bbe60bf3d75ef465d3e404,0,138,138,161,1,onethree,,,,,,,,,,,,,,,,,,,,,,,,,,,,,,,,,,,,,,,,,,,,,,,,,,,,,,,,,,,,,,,,,,,,,,,,,,,,,,,,,,,,,,,,,,,,,,,,,,,,,,,,,,,,,,,,,,,,,,,,,,,,,,,,,,,,,,,,,,,,,,,,,,,,,,,,
,,,,,,60563630dd344659e462b608,62bbfb13a9e1a6964bc288e8,2022-06-29_09h11.43,Colour_Asymmetry_Pilot,2022.1.3,MacIntel,58.82352941,62bbe60bf3d75ef465d3e404,0,139,139,87,1,fourthree,,,,,,,,,,,,,,,,,,,,,,,,,,,,,,,,,,,,,,,,,,,,,,,,,,,,,,,,,,,,,,,,,,,,,,,,,,,,,,,,,,,,,,,,,,,,,,,,,,,,,,,,,,,,,,,,,,,,,,,,,,,,,,,,,,,,,,,,,,,,,,,,,,,,,,,,
,,,,,,60563630dd344659e462b608,62bbfb13a9e1a6964bc288e8,2022-06-29_09h11.43,Colour_Asymmetry_Pilot,2022.1.3,MacIntel,58.82352941,62bbe60bf3d75ef465d3e404,0,140,140,113,1,onethree,,,,,,,,,,,,,,,,,,,,,,,,,,,,,,,,,,,,,,,,,,,,,,,,,,,,,,,,,,,,,,,,,,,,,,,,,,,,,,,,,,,,,,,,,,,,,,,,,,,,,,,,,,,,,,,,,,,,,,,,,,,,,,,,,,,,,,,,,,,,,,,,,,,,,,,,
,,,,,,60563630dd344659e462b608,62bbfb13a9e1a6964bc288e8,2022-06-29_09h11.43,Colour_Asymmetry_Pilot,2022.1.3,MacIntel,58.82352941,62bbe60bf3d75ef465d3e404,0,141,141,150,1,fourtwo,,,,,,,,,,,,,,,,,,,,,,,,,,,,,,,,,,,,,,,,,,,,,,,,,,,,,,,,,,,,,,,,,,,,,,,,,,,,,,,,,,,,,,,,,,,,,,,,,,,,,,,,,,,,,,,,,,,,,,,,,,,,,,,,,,,,,,,,,,,,,,,,,,,,,,,,
,,,,,,60563630dd344659e462b608,62bbfb13a9e1a6964bc288e8,2022-06-29_09h11.43,Colour_Asymmetry_Pilot,2022.1.3,MacIntel,58.82352941,62bbe60bf3d75ef465d3e404,0,142,142,111,1,fourthree,,,,,,,,,,,,,,,,,,,,,,,,,,,,,,,,,,,,,,,,,,,,,,,,,,,,,,,,,,,,,,,,,,,,,,,,,,,,,,,,,,,,,,,,,,,,,,,,,,,,,,,,,,,,,,,,,,,,,,,,,,,,,,,,,,,,,,,,,,,,,,,,,,,,,,,,
,,,,,,60563630dd344659e462b608,62bbfb13a9e1a6964bc288e8,2022-06-29_09h11.43,Colour_Asymmetry_Pilot,2022.1.3,MacIntel,58.82352941,62bbe60bf3d75ef465d3e404,0,143,143,123,1,twofour,,,,,,,,,,,,,,,,,,,,,,,,,,,,,,,,,,,,,,,,,,,,,,,,,,,,,,,,,,,,,,,,,,,,,,,,,,,,,,,,,,,,,,,,,,,,,,,,,,,,,,,,,,,,,,,,,,,,,,,,,,,,,,,,,,,,,,,,,,,,,,,,,,,,,,,,
,,,,,,60563630dd344659e462b608,62bbfb13a9e1a6964bc288e8,2022-06-29_09h11.43,Colour_Asymmetry_Pilot,2022.1.3,MacIntel,58.82352941,62bbe60bf3d75ef465d3e404,0,144,144,85,1,threefour,,,,,,,,,,,,,,,,,,,,,,,,,,,,,,,,,,,,,,,,,,,,,,,,,,,,,,,,,,,,,,,,,,,,,,,,,,,,,,,,,,,,,,,,,,,,,,,,,,,,,,,,,,,,,,,,,,,,,,,,,,,,,,,,,,,,,,,,,,,,,,,,,,,,,,,,
,,,,,,60563630dd344659e462b608,62bbfb13a9e1a6964bc288e8,2022-06-29_09h11.43,Colour_Asymmetry_Pilot,2022.1.3,MacIntel,58.82352941,62bbe60bf3d75ef465d3e404,0,145,145,62,1,fourtwo,,,,,,,,,,,,,,,,,,,,,,,,,,,,,,,,,,,,,,,,,,,,,,,,,,,,,,,,,,,,,,,,,,,,,,,,,,,,,,,,,,,,,,,,,,,,,,,,,,,,,,,,,,,,,,,,,,,,,,,,,,,,,,,,,,,,,,,,,,,,,,,,,,,,,,,,
,,,,,,60563630dd344659e462b608,62bbfb13a9e1a6964bc288e8,2022-06-29_09h11.43,Colour_Asymmetry_Pilot,2022.1.3,MacIntel,58.82352941,62bbe60bf3d75ef465d3e404,0,146,146,10,1,twoone,,,,,,,,,,,,,,,,,,,,,,,,,,,,,,,,,,,,,,,,,,,,,,,,,,,,,,,,,,,,,,,,,,,,,,,,,,,,,,,,,,,,,,,,,,,,,,,,,,,,,,,,,,,,,,,,,,,,,,,,,,,,,,,,,,,,,,,,,,,,,,,,,,,,,,,,
,,,,,,60563630dd344659e462b608,62bbfb13a9e1a6964bc288e8,2022-06-29_09h11.43,Colour_Asymmetry_Pilot,2022.1.3,MacIntel,58.82352941,62bbe60bf3d75ef465d3e404,0,147,147,12,1,threeone,,,,,,,,,,,,,,,,,,,,,,,,,,,,,,,,,,,,,,,,,,,,,,,,,,,,,,,,,,,,,,,,,,,,,,,,,,,,,,,,,,,,,,,,,,,,,,,,,,,,,,,,,,,,,,,,,,,,,,,,,,,,,,,,,,,,,,,,,,,,,,,,,,,,,,,,
,,,,,,60563630dd344659e462b608,62bbfb13a9e1a6964bc288e8,2022-06-29_09h11.43,Colour_Asymmetry_Pilot,2022.1.3,MacIntel,58.82352941,62bbe60bf3d75ef465d3e404,0,148,148,139,1,twofour,,,,,,,,,,,,,,,,,,,,,,,,,,,,,,,,,,,,,,,,,,,,,,,,,,,,,,,,,,,,,,,,,,,,,,,,,,,,,,,,,,,,,,,,,,,,,,,,,,,,,,,,,,,,,,,,,,,,,,,,,,,,,,,,,,,,,,,,,,,,,,,,,,,,,,,,
,,,,,,60563630dd344659e462b608,62bbfb13a9e1a6964bc288e8,2022-06-29_09h11.43,Colour_Asymmetry_Pilot,2022.1.3,MacIntel,58.82352941,62bbe60bf3d75ef465d3e404,0,149,149,7,1,fourthree,,,,,,,,,,,,,,,,,,,,,,,,,,,,,,,,,,,,,,,,,,,,,,,,,,,,,,,,,,,,,,,,,,,,,,,,,,,,,,,,,,,,,,,,,,,,,,,,,,,,,,,,,,,,,,,,,,,,,,,,,,,,,,,,,,,,,,,,,,,,,,,,,,,,,,,,
,,,,,,60563630dd344659e462b608,62bbfb13a9e1a6964bc288e8,2022-06-29_09h11.43,Colour_Asymmetry_Pilot,2022.1.3,MacIntel,58.82352941,62bbe60bf3d75ef465d3e404,0,150,150,24,1,onetwo,,,,,,,,,,,,,,,,,,,,,,,,,,,,,,,,,,,,,,,,,,,,,,,,,,,,,,,,,,,,,,,,,,,,,,,,,,,,,,,,,,,,,,,,,,,,,,,,,,,,,,,,,,,,,,,,,,,,,,,,,,,,,,,,,,,,,,,,,,,,,,,,,,,,,,,,
,,,,,,60563630dd344659e462b608,62bbfb13a9e1a6964bc288e8,2022-06-29_09h11.43,Colour_Asymmetry_Pilot,2022.1.3,MacIntel,58.82352941,62bbe60bf3d75ef465d3e404,0,151,151,1,1,onethree,,,,,,,,,,,,,,,,,,,,,,,,,,,,,,,,,,,,,,,,,,,,,,,,,,,,,,,,,,,,,,,,,,,,,,,,,,,,,,,,,,,,,,,,,,,,,,,,,,,,,,,,,,,,,,,,,,,,,,,,,,,,,,,,,,,,,,,,,,,,,,,,,,,,,,,,
,,,,,,60563630dd344659e462b608,62bbfb13a9e1a6964bc288e8,2022-06-29_09h11.43,Colour_Asymmetry_Pilot,2022.1.3,MacIntel,58.82352941,62bbe60bf3d75ef465d3e404,0,152,152,76,1,threeone,,,,,,,,,,,,,,,,,,,,,,,,,,,,,,,,,,,,,,,,,,,,,,,,,,,,,,,,,,,,,,,,,,,,,,,,,,,,,,,,,,,,,,,,,,,,,,,,,,,,,,,,,,,,,,,,,,,,,,,,,,,,,,,,,,,,,,,,,,,,,,,,,,,,,,,,
,,,,,,60563630dd344659e462b608,62bbfb13a9e1a6964bc288e8,2022-06-29_09h11.43,Colour_Asymmetry_Pilot,2022.1.3,MacIntel,58.82352941,62bbe60bf3d75ef465d3e404,0,153,153,109,1,threefour,,,,,,,,,,,,,,,,,,,,,,,,,,,,,,,,,,,,,,,,,,,,,,,,,,,,,,,,,,,,,,,,,,,,,,,,,,,,,,,,,,,,,,,,,,,,,,,,,,,,,,,,,,,,,,,,,,,,,,,,,,,,,,,,,,,,,,,,,,,,,,,,,,,,,,,,
,,,,,,60563630dd344659e462b608,62bbfb13a9e1a6964bc288e8,2022-06-29_09h11.43,Colour_Asymmetry_Pilot,2022.1.3,MacIntel,58.82352941,62bbe60bf3d75ef465d3e404,0,154,154,11,1,twofour,,,,,,,,,,,,,,,,,,,,,,,,,,,,,,,,,,,,,,,,,,,,,,,,,,,,,,,,,,,,,,,,,,,,,,,,,,,,,,,,,,,,,,,,,,,,,,,,,,,,,,,,,,,,,,,,,,,,,,,,,,,,,,,,,,,,,,,,,,,,,,,,,,,,,,,,
,,,,,,60563630dd344659e462b608,62bbfb13a9e1a6964bc288e8,2022-06-29_09h11.43,Colour_Asymmetry_Pilot,2022.1.3,MacIntel,58.82352941,62bbe60bf3d75ef465d3e404,0,155,155,126,1,fourtwo,,,,,,,,,,,,,,,,,,,,,,,,,,,,,,,,,,,,,,,,,,,,,,,,,,,,,,,,,,,,,,,,,,,,,,,,,,,,,,,,,,,,,,,,,,,,,,,,,,,,,,,,,,,,,,,,,,,,,,,,,,,,,,,,,,,,,,,,,,,,,,,,,,,,,,,,
,,,,,,60563630dd344659e462b608,62bbfb13a9e1a6964bc288e8,2022-06-29_09h11.43,Colour_Asymmetry_Pilot,2022.1.3,MacIntel,58.82352941,62bbe60bf3d75ef465d3e404,0,156,156,158,1,fourtwo,,,,,,,,,,,,,,,,,,,,,,,,,,,,,,,,,,,,,,,,,,,,,,,,,,,,,,,,,,,,,,,,,,,,,,,,,,,,,,,,,,,,,,,,,,,,,,,,,,,,,,,,,,,,,,,,,,,,,,,,,,,,,,,,,,,,,,,,,,,,,,,,,,,,,,,,
,,,,,,60563630dd344659e462b608,62bbfb13a9e1a6964bc288e8,2022-06-29_09h11.43,Colour_Asymmetry_Pilot,2022.1.3,MacIntel,58.82352941,62bbe60bf3d75ef465d3e404,0,157,157,78,1,fourtwo,,,,,,,,,,,,,,,,,,,,,,,,,,,,,,,,,,,,,,,,,,,,,,,,,,,,,,,,,,,,,,,,,,,,,,,,,,,,,,,,,,,,,,,,,,,,,,,,,,,,,,,,,,,,,,,,,,,,,,,,,,,,,,,,,,,,,,,,,,,,,,,,,,,,,,,,
,,,,,,60563630dd344659e462b608,62bbfb13a9e1a6964bc288e8,2022-06-29_09h11.43,Colour_Asymmetry_Pilot,2022.1.3,MacIntel,58.82352941,62bbe60bf3d75ef465d3e404,0,158,158,18,1,twoone,,,,,,,,,,,,,,,,,,,,,,,,,,,,,,,,,,,,,,,,,,,,,,,,,,,,,,,,,,,,,,,,,,,,,,,,,,,,,,,,,,,,,,,,,,,,,,,,,,,,,,,,,,,,,,,,,,,,,,,,,,,,,,,,,,,,,,,,,,,,,,,,,,,,,,,,
,,,,,,60563630dd344659e462b608,62bbfb13a9e1a6964bc288e8,2022-06-29_09h11.43,Colour_Asymmetry_Pilot,2022.1.3,MacIntel,58.82352941,62bbe60bf3d75ef465d3e404,0,159,159,82,1,twoone,,,,,,,,,,,,,,,,,,,,,,,,,,,,,,,,,,,,,,,,,,,,,,,,,,,,,,,,,,,,,,,,,,,,,,,,,,,,,,,,,,,,,,,,,,,,,,,,,,,,,,,,,,,,,,,,,,,,,,,,,,,,,,,,,,,,,,,,,,,,,,,,,,,,,,,,
,,,,,,60563630dd344659e462b608,62bbfb13a9e1a6964bc288e8,2022-06-29_09h11.43,Colour_Asymmetry_Pilot,2022.1.3,MacIntel,58.82352941,62bbe60bf3d75ef465d3e404,0,160,160,86,1,fourtwo,,,,,,,,,,,,,,,,,,,,,,,,,,,,,,,,,,,,,,,,,,,,,,,,,,,,,,,,,,,,,,,,,,,,,,,,,,,,,,,,,,,,,,,,,,,,,,,,,,,,,,,,,,,,,,,,,,,,,,,,,,,,,,,,,,,,,,,,,,,,,,,,,,,,,,,,
,,,,,,60563630dd344659e462b608,62bbfb13a9e1a6964bc288e8,2022-06-29_09h11.43,Colour_Asymmetry_Pilot,2022.1.3,MacIntel,58.82352941,62bbe60bf3d75ef465d3e404,0,161,161,73,1,onethree,,,,,,,,,,,,,,,,,,,,,,,,,,,,,,,,,,,,,,,,,,,,,,,,,,,,,,,,,,,,,,,,,,,,,,,,,,,,,,,,,,,,,,,,,,,,,,,,,,,,,,,,,,,,,,,,,,,,,,,,,,,,,,,,,,,,,,,,,,,,,,,,,,,,,,,,
,,,,,,60563630dd344659e462b608,62bbfb13a9e1a6964bc288e8,2022-06-29_09h11.43,Colour_Asymmetry_Pilot,2022.1.3,MacIntel,58.82352941,62bbe60bf3d75ef465d3e404,,,,,,,space,2.279,space,12.141,space,38.482,space,8.124,space,1.062,space,3.812,"[0.09799999999999986,-0.24719999999999998,0.15280000000000005]",threefour,"[-0.2942,-0.7648,-0.7492000000000001]",-2,14.213,-63,-34,1,0,0,response5disk_5,0,6,1,0,0,rectangle_8,0,6,1,0,0,4,0,6,1,0,0,0,0,0,0,1,,,,,,,,,,,,,,,,,,,,,,,,,,,,,,,,,,,,,,,,,,,,,,,,,,,,,,,,,,,,,,,,,,,,,,,,,,,,,,,,,,,,,,,,,,,,,,,,,,,,,,,,,,,
,,,,,,60563630dd344659e462b608,62bbfb13a9e1a6964bc288e8,2022-06-29_09h11.43,Colour_Asymmetry_Pilot,2022.1.3,MacIntel,58.82352941,62bbe60bf3d75ef465d3e404,,,,,,,,,,,,,,,,,,,"[0.8274000000000001,-0.5844,-0.9452]",threefour,"[-0.26280000000000003,-0.2158,-0.3256]",-4,2.017,-36,64,1,0,0,response7disk_5,-9,-4,1,0,0,rectangle_8,37,92,1,0,0,4,-10,-9,1,0,0,1,0,1,0,1,response1disk_7,7,rectangle_4,,,,,,,,,,,,,,,,,,,,,,,,,,,,,,,,,,,,,,,,,,,,,,,,,,,,,,,,,,,,,,,,,,,,,,,,,,,,,,,,,,,,,,,,,,,,,,,,,,,,,,,,
,,,,,,60563630dd344659e462b608,62bbfb13a9e1a6964bc288e8,2022-06-29_09h11.43,Colour_Asymmetry_Pilot,2022.1.3,MacIntel,58.82352941,62bbe60bf3d75ef465d3e404,,,,,,,,,,,,,,,,,,,"[-0.2942,-0.24719999999999998,-0.357]",onetwo,"[0.7176,-0.906,-0.6864]",-4,1.234,-47,92,1,0,0,response7disk_5,-1,-2,1,0,0,rectangle_8,-1,-2,1,0,0,4,-1,-2,1,0,0,2,0,2,0,1,,,,,,,,,,,,,,,,,,,,,,,,,,,,,,,,,,,,,,,,,,,,,,,,,,,,,,,,,,,,,,,,,,,,,,,,,,,,,,,,,,,,,,,,,,,,,,,,,,,,,,,,,,,
,,,,,,60563630dd344659e462b608,62bbfb13a9e1a6964bc288e8,2022-06-29_09h11.43,Colour_Asymmetry_Pilot,2022.1.3,MacIntel,58.82352941,62bbe60bf3d75ef465d3e404,,,,,,,,,,,,,,,,,,,"[-0.2942,-0.24719999999999998,-0.357]",fourthree,"[0.9842,0.7409999999999999,-0.6628000000000001]",-4,0.901,-41,71,1,0,0,response7disk_5,-11,2,1,0,0,rectangle_8,-11,2,1,0,0,4,-11,2,1,0,0,3,0,3,0,1,,,,,,,,,,,,,,,,,,,,,,,,,,,,,,,,,,,,,,,,,,,,,,,,,,,,,,,,,,,,,,,,,,,,,,,,,,,,,,,,,,,,,,,,,,,,,,,,,,,,,,,,,,,
,,,,,,60563630dd344659e462b608,62bbfb13a9e1a6964bc288e8,2022-06-29_09h11.43,Colour_Asymmetry_Pilot,2022.1.3,MacIntel,58.82352941,62bbe60bf3d75ef465d3e404,,,,,,,,,,,,,,,,,,,"[0.3881999999999999,-0.23939999999999995,-0.05040000000000011]",threeone,"[0.12939999999999996,-0.2864,0.3253999999999999]",-2,3.517,-81,-31,1,0,0,response5disk_5,-11,2,1,0,0,rectangle_8,-11,2,1,0,0,4,-11,2,1,0,0,4,0,4,0,1,,,,,,,,,,,,,,,,,,,,,,,,,,,,,,,,,,,,,,,,,,,,,,,,,,,,,,,,,,,,,,,,,,,,,,,,,,,,,,,,,,,,,,,,,,,,,,,,,,,,,,,,,,,
,,,,,,60563630dd344659e462b608,62bbfb13a9e1a6964bc288e8,2022-06-29_09h11.43,Colour_Asymmetry_Pilot,2022.1.3,MacIntel,58.82352941,62bbe60bf3d75ef465d3e404,,,,,,,,,,,,,,,,,,,"[-0.01980000000000004,-0.5138,-0.38039999999999996]",threefour,"[0.34099999999999997,0.5841999999999998,-0.9844]",-4,0.866,-42,72,1,0,0,response7disk_5,-1,-6,1,0,0,rectangle_8,38,63,1,0,0,4,16,-1,1,0,0,5,0,5,0,1,response1disk_7,7,rectangle_4,,,,,,,,,,,,,,,,,,,,,,,,,,,,,,,,,,,,,,,,,,,,,,,,,,,,,,,,,,,,,,,,,,,,,,,,,,,,,,,,,,,,,,,,,,,,,,,,,,,,,,,,
,,,,,,60563630dd344659e462b608,62bbfb13a9e1a6964bc288e8,2022-06-29_09h11.43,Colour_Asymmetry_Pilot,2022.1.3,MacIntel,58.82352941,62bbe60bf3d75ef465d3e404,,,,,,,,,,,,,,,,,,,"[-0.9216,-0.5529999999999999,-0.3962]",onethree,"[-0.6942,-0.7648,-0.12959999999999994]",-1,1.75,-29,-98,1,0,0,response5disk_5,-9,-4,1,0,0,rectangle_8,-9,-4,1,0,0,4,-9,-4,1,0,0,6,0,6,0,1,,,,,,,,,,,,,,,,,,,,,,,,,,,,,,,,,,,,,,,,,,,,,,,,,,,,,,,,,,,,,,,,,,,,,,,,,,,,,,,,,,,,,,,,,,,,,,,,,,,,,,,,,,,
,,,,,,60563630dd344659e462b608,62bbfb13a9e1a6964bc288e8,2022-06-29_09h11.43,Colour_Asymmetry_Pilot,2022.1.3,MacIntel,58.82352941,62bbe60bf3d75ef465d3e404,,,,,,,,,,,,,,,,,,,,fourtwo,,-2,1.778,,,,,,,,,,,,,,,,,,,,,,,,,,,,,,,,space,2.841,"[0.9763999999999999,0.30979999999999985,-0.6786]","[0.6547999999999998,-0.043199999999999905,-0.011800000000000033]",-49,-31,1,0,0,response5disk,-1,-5,1,0,0,rectangle,-1,-5,1,0,0,,1,0.002,0,-1,-5,1,0,0,0,0,0,94,1,13,second,,,,,,,,,,,,,,,,,,,,,,,,,,,,,,,,,,,,,,,,,,,,,,,,,,,,,,,,,,,,,,,,,,,
,,,,,,60563630dd344659e462b608,62bbfb13a9e1a6964bc288e8,2022-06-29_09h11.43,Colour_Asymmetry_Pilot,2022.1.3,MacIntel,58.82352941,62bbe60bf3d75ef465d3e404,,,,,,,,,,,,,,,,,,,,onethree,,-4,0.75,,,,,,,,,,,,,,,,,,,,,,,,,,,,,,,,,,"[-0.26280000000000003,-0.4746,-0.2158]","[-0.8198,-0.5138,-0.7492000000000001]",-42,88,1,0,0,response7disk,-19,-5,1,0,0,rectangle,-19,-5,1,0,0,,3,0.001,0,-19,-5,1,0,0,0,1,1,95,1,14,second,,,,,,,,,,,,,,,,,,,,,,,,,,,,,,,,,,,,,,,,,,,,,,,,,,,,,,,,,,,,,,,,,,,
,,,,,,60563630dd344659e462b608,62bbfb13a9e1a6964bc288e8,2022-06-29_09h11.43,Colour_Asymmetry_Pilot,2022.1.3,MacIntel,58.82352941,62bbe60bf3d75ef465d3e404,,,,,,,,,,,,,,,,,,,,fourtwo,,-4,0.333,,,,,,,,,,,,,,,,,,,,,,,,,,,,,,,,,,"[0.9686000000000001,0.5763999999999998,0.11359999999999992]","[-0.8982,-0.37259999999999993,0.2784]",-27,73,1,0,0,response7disk,-19,-6,1,0,0,rectangle,-19,-6,1,0,0,,2,0.002,0,-19,-6,1,0,0,0,2,2,146,1,65,second,,,,,,,,,,,,,,,,,,,,,,,,,,,,,,,,,,,,,,,,,,,,,,,,,,,,,,,,,,,,,,,,,,,
,,,,,,60563630dd344659e462b608,62bbfb13a9e1a6964bc288e8,2022-06-29_09h11.43,Colour_Asymmetry_Pilot,2022.1.3,MacIntel,58.82352941,62bbe60bf3d75ef465d3e404,,,,,,,,,,,,,,,,,,,,fourtwo,,-4,0.416,,,,,,,,,,,,,,,,,,,,,,,,,,,,,,,,,,"[0.7176,-0.906,-0.6864]","[-0.38039999999999996,-0.4276,-0.1452]",-33,60,1,0,0,response7disk,-6,-8,1,0,0,rectangle,44,-104,1,0,0,1,1,2.699,1,-15,0,1,0,0,0,3,3,159,1,78,second,response3disk_3,rectangle,,,,,,,,,,,,,,,,,,,,,,,,,,,,,,,,,,,,,,,,,,,,,,,,,,,,,,,,,,,,,,,,,
,,,,,,60563630dd344659e462b608,62bbfb13a9e1a6964bc288e8,2022-06-29_09h11.43,Colour_Asymmetry_Pilot,2022.1.3,MacIntel,58.82352941,62bbe60bf3d75ef465d3e404,,,,,,,,,,,,,,,,,,,,onethree,,-2,2.033,,,,,,,,,,,,,,,,,,,,,,,,,,,,,,,,,,"[-0.07459999999999989,0.12139999999999995,-0.9922]","[-0.2942,-0.24719999999999998,-0.357]",-71,-52,1,0,0,response5disk,-13,3,1,0,0,rectangle,-13,3,1,0,0,1,2,0.001,0,-13,3,1,0,0,0,4,4,90,1,9,second,,,,,,,,,,,,,,,,,,,,,,,,,,,,,,,,,,,,,,,,,,,,,,,,,,,,,,,,,,,,,,,,,,,
,,,,,,60563630dd344659e462b608,62bbfb13a9e1a6964bc288e8,2022-06-29_09h11.43,Colour_Asymmetry_Pilot,2022.1.3,MacIntel,58.82352941,62bbe60bf3d75ef465d3e404,,,,,,,,,,,,,,,,,,,,onetwo,,-4,0.566,,,,,,,,,,,,,,,,,,,,,,,,,,,,,,,,,,"[-0.45899999999999996,-0.3256,-0.9374]","[0.05879999999999996,0.2784,0.5841999999999998]",-37,69,1,0,0,response7disk,-17,-15,1,0,0,rectangle,-17,-15,1,0,0,1,1,0.003,0,-17,-15,1,0,0,0,5,5,123,1,42,second,,,,,,,,,,,,,,,,,,,,,,,,,,,,,,,,,,,,,,,,,,,,,,,,,,,,,,,,,,,,,,,,,,,
,,,,,,60563630dd344659e462b608,62bbfb13a9e1a6964bc288e8,2022-06-29_09h11.43,Colour_Asymmetry_Pilot,2022.1.3,MacIntel,58.82352941,62bbe60bf3d75ef465d3e404,,,,,,,,,,,,,,,,,,,,onetwo,,-1,0.748,,,,,,,,,,,,,,,,,,,,,,,,,,,,,,,,,,"[-0.7412000000000001,-0.08239999999999992,-0.6864]","[-0.6706000000000001,-0.6157999999999999,-0.6786]",-37,-56,1,0,0,response5disk,-21,-11,1,0,0,rectangle,-21,-11,1,0,0,1,2,0.001,0,-21,-11,1,0,0,0,6,6,122,1,41,second,,,,,,,,,,,,,,,,,,,,,,,,,,,,,,,,,,,,,,,,,,,,,,,,,,,,,,,,,,,,,,,,,,,
,,,,,,60563630dd344659e462b608,62bbfb13a9e1a6964bc288e8,2022-06-29_09h11.43,Colour_Asymmetry_Pilot,2022.1.3,MacIntel,58.82352941,62bbe60bf3d75ef465d3e404,,,,,,,,,,,,,,,,,,,,twofour,,-4,0.517,,,,,,,,,,,,,,,,,,,,,,,,,,,,,,,,,,"[0.7802,-0.23140000000000005,-0.20799999999999996]","[0.05879999999999996,0.2784,0.5841999999999998]",-41,56,1,0,0,response7disk,-28,-10,1,0,0,rectangle,-28,-10,1,0,0,1,1,0.001,0,-28,-10,1,0,0,0,7,7,79,1,79,first,,,,,,,,,,,,,,,,,,,,,,,,,,,,,,,,,,,,,,,,,,,,,,,,,,,,,,,,,,,,,,,,,,,
,,,,,,60563630dd344659e462b608,62bbfb13a9e1a6964bc288e8,2022-06-29_09h11.43,Colour_Asymmetry_Pilot,2022.1.3,MacIntel,58.82352941,62bbe60bf3d75ef465d3e404,,,,,,,,,,,,,,,,,,,,twofour,,1,2.249,,,,,,,,,,,,,,,,,,,,,,,,,,,,,,,,,,"[0.22340000000000004,-0.9296,-0.7884]","[0.5449999999999999,-0.31000000000000005,-0.0354000000000001]",51,-85,1,0,0,response3disk,-18,-2,1,0,0,rectangle,-18,-2,1,0,0,1,1,0,0,-18,-2,1,0,0,0,8,8,107,1,26,second,,,,,,,,,,,,,,,,,,,,,,,,,,,,,,,,,,,,,,,,,,,,,,,,,,,,,,,,,,,,,,,,,,,
,,,,,,60563630dd344659e462b608,62bbfb13a9e1a6964bc288e8,2022-06-29_09h11.43,Colour_Asymmetry_Pilot,2022.1.3,MacIntel,58.82352941,62bbe60bf3d75ef465d3e404,,,,,,,,,,,,,,,,,,,,onethree,,-2,1.433,,,,,,,,,,,,,,,,,,,,,,,,,,,,,,,,,,"[-0.20799999999999996,-0.655,-0.01980000000000004]","[-0.9688,-0.7412000000000001,-0.4902000000000001]",-69,-33,1,0,0,response5disk,-31,6,1,0,0,rectangle,-31,6,1,0,0,1,2,0.002,0,-31,6,1,0,0,0,9,9,81,1,0,second,,,,,,,,,,,,,,,,,,,,,,,,,,,,,,,,,,,,,,,,,,,,,,,,,,,,,,,,,,,,,,,,,,,
,,,,,,60563630dd344659e462b608,62bbfb13a9e1a6964bc288e8,2022-06-29_09h11.43,Colour_Asymmetry_Pilot,2022.1.3,MacIntel,58.82352941,62bbe60bf3d75ef465d3e404,,,,,,,,,,,,,,,,,,,,onetwo,,-3,0.715,,,,,,,,,,,,,,,,,,,,,,,,,,,,,,,,,,"[-0.9688,-0.4902000000000001,-0.12159999999999993]","[0.11359999999999992,0.6312,0.5213999999999999]",-56,27,1,0,0,response7disk,-27,8,1,0,0,rectangle,-27,8,1,0,0,1,2,0,0,-27,8,1,0,0,0,10,10,30,1,30,first,,,,,,,,,,,,,,,,,,,,,,,,,,,,,,,,,,,,,,,,,,,,,,,,,,,,,,,,,,,,,,,,,,,
,,,,,,60563630dd344659e462b608,62bbfb13a9e1a6964bc288e8,2022-06-29_09h11.43,Colour_Asymmetry_Pilot,2022.1.3,MacIntel,58.82352941,62bbe60bf3d75ef465d3e404,,,,,,,,,,,,,,,,,,,,fourthree,,2,1.183,,,,,,,,,,,,,,,,,,,,,,,,,,,,,,,,,,"[0.04299999999999993,0.16060000000000008,-0.6628000000000001]","[-0.0040000000000000036,0.02739999999999987,-0.08239999999999992]",70,-48,1,0,0,response3disk,-10,-5,1,0,0,rectangle,-10,-5,1,0,0,1,2,0,0,-10,-5,1,0,0,0,11,11,110,1,29,second,,,,,,,,,,,,,,,,,,,,,,,,,,,,,,,,,,,,,,,,,,,,,,,,,,,,,,,,,,,,,,,,,,,
,,,,,,60563630dd344659e462b608,62bbfb13a9e1a6964bc288e8,2022-06-29_09h11.43,Colour_Asymmetry_Pilot,2022.1.3,MacIntel,58.82352941,62bbe60bf3d75ef465d3e404,,,,,,,,,,,,,,,,,,,,twoone,,-2,1.782,,,,,,,,,,,,,,,,,,,,,,,,,,,,,,,,,,"[0.7018,0.7802,-0.16079999999999994]","[0.7018,0.7176,0.6155999999999999]",-69,-51,1,0,0,response5disk,-11,-3,1,0,0,rectangle,-11,-3,1,0,0,1,3,0.002,0,-11,-3,1,0,0,0,12,12,92,1,11,second,,,,,,,,,,,,,,,,,,,,,,,,,,,,,,,,,,,,,,,,,,,,,,,,,,,,,,,,,,,,,,,,,,,
,,,,,,60563630dd344659e462b608,62bbfb13a9e1a6964bc288e8,2022-06-29_09h11.43,Colour_Asymmetry_Pilot,2022.1.3,MacIntel,58.82352941,62bbe60bf3d75ef465d3e404,,,,,,,,,,,,,,,,,,,,threeone,,2,1.233,,,,,,,,,,,,,,,,,,,,,,,,,,,,,,,,,,"[0.5449999999999999,-0.31000000000000005,-0.0354000000000001]","[0.23120000000000007,-0.7726,-0.34120000000000006]",65,-30,1,0,0,response3disk,-15,6,1,0,0,rectangle,-15,6,1,0,0,1,3,0,0,-15,6,1,0,0,0,13,13,8,1,8,first,,,,,,,,,,,,,,,,,,,,,,,,,,,,,,,,,,,,,,,,,,,,,,,,,,,,,,,,,,,,,,,,,,,
,,,,,,60563630dd344659e462b608,62bbfb13a9e1a6964bc288e8,2022-06-29_09h11.43,Colour_Asymmetry_Pilot,2022.1.3,MacIntel,58.82352941,62bbe60bf3d75ef465d3e404,,,,,,,,,,,,,,,,,,,,fourthree,,2,1.066,,,,,,,,,,,,,,,,,,,,,,,,,,,,,,,,,,"[0.2784,-0.31000000000000005,-0.5452]","[0.22340000000000004,-0.9296,-0.7884]",68,-33,1,0,0,response3disk,-10,-3,1,0,0,rectangle,-10,-3,1,0,0,1,3,0,0,-10,-3,1,0,0,0,14,14,66,1,66,first,,,,,,,,,,,,,,,,,,,,,,,,,,,,,,,,,,,,,,,,,,,,,,,,,,,,,,,,,,,,,,,,,,,
,,,,,,60563630dd344659e462b608,62bbfb13a9e1a6964bc288e8,2022-06-29_09h11.43,Colour_Asymmetry_Pilot,2022.1.3,MacIntel,58.82352941,62bbe60bf3d75ef465d3e404,,,,,,,,,,,,,,,,,,,,onetwo,,-4,0.517,,,,,,,,,,,,,,,,,,,,,,,,,,,,,,,,,,"[0.05879999999999996,0.2784,0.5841999999999998]","[0.7802,-0.23140000000000005,-0.20799999999999996]",-35,61,1,0,0,response7disk,-12,-5,1,0,0,rectangle,40,-72,1,0,0,1,1,1.681,1,-9,-7,1,0,0,0,15,15,160,1,79,second,response3disk_3,rectangle,,,,,,,,,,,,,,,,,,,,,,,,,,,,,,,,,,,,,,,,,,,,,,,,,,,,,,,,,,,,,,,,,
,,,,,,60563630dd344659e462b608,62bbfb13a9e1a6964bc288e8,2022-06-29_09h11.43,Colour_Asymmetry_Pilot,2022.1.3,MacIntel,58.82352941,62bbe60bf3d75ef465d3e404,,,,,,,,,,,,,,,,,,,,threeone,,3,1.299,,,,,,,,,,,,,,,,,,,,,,,,,,,,,,,,,,"[-0.8982,-0.37259999999999993,0.2784]","[-0.4746,-0.0354000000000001,0.5449999999999999]",95,51,1,0,0,response1disk,11,-13,1,0,0,rectangle,11,-13,1,0,0,1,2,0.001,0,11,-13,1,0,0,0,16,16,45,1,45,first,,,,,,,,,,,,,,,,,,,,,,,,,,,,,,,,,,,,,,,,,,,,,,,,,,,,,,,,,,,,,,,,,,,
,,,,,,60563630dd344659e462b608,62bbfb13a9e1a6964bc288e8,2022-06-29_09h11.43,Colour_Asymmetry_Pilot,2022.1.3,MacIntel,58.82352941,62bbe60bf3d75ef465d3e404,,,,,,,,,,,,,,,,,,,,twofour,,-2,1.116,,,,,,,,,,,,,,,,,,,,,,,,,,,,,,,,,,"[-0.48240000000000005,0.3175999999999999,0.2156]","[-0.9766,-0.34920000000000007,0.2156]",-72,-48,1,0,0,response5disk,-23,-11,1,0,0,rectangle,-23,-11,1,0,0,1,2,0.001,0,-23,-11,1,0,0,0,17,17,133,1,52,second,,,,,,,,,,,,,,,,,,,,,,,,,,,,,,,,,,,,,,,,,,,,,,,,,,,,,,,,,,,,,,,,,,,
,,,,,,60563630dd344659e462b608,62bbfb13a9e1a6964bc288e8,2022-06-29_09h11.43,Colour_Asymmetry_Pilot,2022.1.3,MacIntel,58.82352941,62bbe60bf3d75ef465d3e404,,,,,,,,,,,,,,,,,,,,onethree,,-3,0.583,,,,,,,,,,,,,,,,,,,,,,,,,,,,,,,,,,"[-0.4982,-0.2942,-0.0354000000000001]","[-0.9138,-0.5296000000000001,-0.5529999999999999]",-64,25,1,0,0,response7disk,-32,9,1,0,0,rectangle,-32,9,1,0,0,1,1,0.001,0,-32,9,1,0,0,0,18,18,150,1,69,second,,,,,,,,,,,,,,,,,,,,,,,,,,,,,,,,,,,,,,,,,,,,,,,,,,,,,,,,,,,,,,,,,,,
,,,,,,60563630dd344659e462b608,62bbfb13a9e1a6964bc288e8,2022-06-29_09h11.43,Colour_Asymmetry_Pilot,2022.1.3,MacIntel,58.82352941,62bbe60bf3d75ef465d3e404,,,,,,,,,,,,,,,,,,,,twoone,,-4,1.433,,,,,,,,,,,,,,,,,,,,,,,,,,,,,,,,,,"[-0.4982,-0.2942,-0.0354000000000001]","[0.9686000000000001,0.3802000000000001,0.19999999999999996]",-34,72,1,0,0,response7disk,-12,8,1,0,0,rectangle,-12,8,1,0,0,1,3,0.001,0,-12,8,1,0,0,0,19,19,34,1,34,first,,,,,,,,,,,,,,,,,,,,,,,,,,,,,,,,,,,,,,,,,,,,,,,,,,,,,,,,,,,,,,,,,,,
,,,,,,60563630dd344659e462b608,62bbfb13a9e1a6964bc288e8,2022-06-29_09h11.43,Colour_Asymmetry_Pilot,2022.1.3,MacIntel,58.82352941,62bbe60bf3d75ef465d3e404,,,,,,,,,,,,,,,,,,,,twoone,,-4,0.401,,,,,,,,,,,,,,,,,,,,,,,,,,,,,,,,,,"[0.9842,0.7409999999999999,-0.6628000000000001]","[0.7646000000000002,0.07440000000000002,0.2704]",-38,66,1,0,0,response7disk,-8,3,1,0,0,rectangle,-8,3,1,0,0,1,3,0.001,0,-8,3,1,0,0,0,20,20,87,1,6,second,,,,,,,,,,,,,,,,,,,,,,,,,,,,,,,,,,,,,,,,,,,,,,,,,,,,,,,,,,,,,,,,,,,
