trials.thisRepN,trials.thisTrialN,trials.thisN,trials.thisIndex,trials.ran,Colourcodes,participant,session,date,expName,psychopyVersion,OS,frameRate,study_id,trials_4.thisRepN,trials_4.thisTrialN,trials_4.thisN,trials_4.thisIndex,trials_4.ran,StimulusPos,key_resp.keys,key_resp.rt,key_resp_2.keys,key_resp_2.rt,key_resp_15.keys,key_resp_15.rt,key_resp_17.keys,key_resp_17.rt,key_resp_9.keys,key_resp_9.rt,key_resp_10.keys,key_resp_10.rt,Circle1_col,Ecc,Circle2_col,similarity,response_time,mouse_5.x,mouse_5.y,mouse_5.leftButton,mouse_5.midButton,mouse_5.rightButton,mouse_5.clicked_name,mouse_10.x,mouse_10.y,mouse_10.leftButton,mouse_10.midButton,mouse_10.rightButton,mouse_10.clicked_name,mouse_7.x,mouse_7.y,mouse_7.leftButton,mouse_7.midButton,mouse_7.rightButton,mouse_7.clicked_name,catchprac,catchnumberprac,mouse_6.x,mouse_6.y,mouse_6.leftButton,mouse_6.midButton,mouse_6.rightButton,mouse_6.clicked_name,duringprac.thisRepN,duringprac.thisTrialN,duringprac.thisN,duringprac.thisIndex,duringprac.ran,key_resp_22.keys,key_resp_22.rt,Circle1_colour,Circle2_colour,mouse.x,mouse.y,mouse.leftButton,mouse.midButton,mouse.rightButton,mouse.clicked_name,mouse_2.x,mouse_2.y,mouse_2.leftButton,mouse_2.midButton,mouse_2.rightButton,mouse_2.clicked_name,mouse_3.x,mouse_3.y,mouse_3.leftButton,mouse_3.midButton,mouse_3.rightButton,catchresponse,catchnumber,response_time_catch,Catch,mouse_11.x,mouse_11.y,mouse_11.leftButton,mouse_11.midButton,mouse_11.rightButton,trials_2.thisRepN,trials_2.thisTrialN,trials_2.thisN,trials_2.thisIndex,trials_2.ran,Colourpair,Temporder,mouse_3.clicked_name,mouse_11.clicked_name,trials_3.thisRepN,trials_3.thisTrialN,trials_3.thisN,trials_3.thisIndex,trials_3.ran,key_resp_instr_Ishi.keys,key_resp_instr_Ishi.rt,Ishi_trial_keyresp.keys,Ishi_trial_keyresp.rt,Ishi_textbox.text,Ishi_loop.thisRepN,Ishi_loop.thisTrialN,Ishi_loop.thisN,Ishi_loop.thisIndex,Ishi_loop.ran,imageaddress,textbox.text,mouse_4.x,mouse_4.y,mouse_4.leftButton,mouse_4.midButton,mouse_4.rightButton,mouse_4.clicked_name,textbox_2.text,mouse_8.x,mouse_8.y,mouse_8.leftButton,mouse_8.midButton,mouse_8.rightButton,mouse_8.clicked_name,textbox_3.text,mouse_9.x,mouse_9.y,mouse_9.leftButton,mouse_9.midButton,mouse_9.rightButton,mouse_9.clicked_name,textbox_4.text,mouse_12.x,mouse_12.y,mouse_12.leftButton,mouse_12.midButton,mouse_12.rightButton,mouse_12.clicked_name,textbox_5.text,mouse_13.x,mouse_13.y,mouse_13.leftButton,mouse_13.midButton,mouse_13.rightButton,mouse_13.clicked_name,textbox_6.text,mouse_14.x,mouse_14.y,mouse_14.leftButton,mouse_14.midButton,mouse_14.rightButton,mouse_14.clicked_name,textbox_7.text,mouse_15.x,mouse_15.y,mouse_15.leftButton,mouse_15.midButton,mouse_15.rightButton,mouse_15.clicked_name
0,0,0,28,1,,58c26f473977190001f54116,62b2d07f9a1407631b2ae152,2022-06-22_09h20.06.214,Colour_Asymmetry_Pilot,2022.1.3,Win32,59.85873339,62b2a6a25f2ba72662469a01,,,,,,,,,,,,,,,,,,,,,,,,,,,,,,,,,,,,,,,,,,,,,,,,,,,,,,,,,,,,,,,,,,,,,,,,,,,,,,,,,,,,,,,,,,,,,,,,,,,,,,,,,,,,,,,,,,,,,,,,,,,,,,,,,,,,,,,,,,,,,,,,,,,,,,,,,,,,,,
0,1,1,78,1,,58c26f473977190001f54116,62b2d07f9a1407631b2ae152,2022-06-22_09h20.06.214,Colour_Asymmetry_Pilot,2022.1.3,Win32,59.85873339,62b2a6a25f2ba72662469a01,,,,,,,,,,,,,,,,,,,,,,,,,,,,,,,,,,,,,,,,,,,,,,,,,,,,,,,,,,,,,,,,,,,,,,,,,,,,,,,,,,,,,,,,,,,,,,,,,,,,,,,,,,,,,,,,,,,,,,,,,,,,,,,,,,,,,,,,,,,,,,,,,,,,,,,,,,,,,,
0,2,2,76,1,,58c26f473977190001f54116,62b2d07f9a1407631b2ae152,2022-06-22_09h20.06.214,Colour_Asymmetry_Pilot,2022.1.3,Win32,59.85873339,62b2a6a25f2ba72662469a01,,,,,,,,,,,,,,,,,,,,,,,,,,,,,,,,,,,,,,,,,,,,,,,,,,,,,,,,,,,,,,,,,,,,,,,,,,,,,,,,,,,,,,,,,,,,,,,,,,,,,,,,,,,,,,,,,,,,,,,,,,,,,,,,,,,,,,,,,,,,,,,,,,,,,,,,,,,,,,
0,3,3,22,1,,58c26f473977190001f54116,62b2d07f9a1407631b2ae152,2022-06-22_09h20.06.214,Colour_Asymmetry_Pilot,2022.1.3,Win32,59.85873339,62b2a6a25f2ba72662469a01,,,,,,,,,,,,,,,,,,,,,,,,,,,,,,,,,,,,,,,,,,,,,,,,,,,,,,,,,,,,,,,,,,,,,,,,,,,,,,,,,,,,,,,,,,,,,,,,,,,,,,,,,,,,,,,,,,,,,,,,,,,,,,,,,,,,,,,,,,,,,,,,,,,,,,,,,,,,,,
0,4,4,89,1,,58c26f473977190001f54116,62b2d07f9a1407631b2ae152,2022-06-22_09h20.06.214,Colour_Asymmetry_Pilot,2022.1.3,Win32,59.85873339,62b2a6a25f2ba72662469a01,,,,,,,,,,,,,,,,,,,,,,,,,,,,,,,,,,,,,,,,,,,,,,,,,,,,,,,,,,,,,,,,,,,,,,,,,,,,,,,,,,,,,,,,,,,,,,,,,,,,,,,,,,,,,,,,,,,,,,,,,,,,,,,,,,,,,,,,,,,,,,,,,,,,,,,,,,,,,,
0,5,5,44,1,,58c26f473977190001f54116,62b2d07f9a1407631b2ae152,2022-06-22_09h20.06.214,Colour_Asymmetry_Pilot,2022.1.3,Win32,59.85873339,62b2a6a25f2ba72662469a01,,,,,,,,,,,,,,,,,,,,,,,,,,,,,,,,,,,,,,,,,,,,,,,,,,,,,,,,,,,,,,,,,,,,,,,,,,,,,,,,,,,,,,,,,,,,,,,,,,,,,,,,,,,,,,,,,,,,,,,,,,,,,,,,,,,,,,,,,,,,,,,,,,,,,,,,,,,,,,
0,6,6,12,1,,58c26f473977190001f54116,62b2d07f9a1407631b2ae152,2022-06-22_09h20.06.214,Colour_Asymmetry_Pilot,2022.1.3,Win32,59.85873339,62b2a6a25f2ba72662469a01,,,,,,,,,,,,,,,,,,,,,,,,,,,,,,,,,,,,,,,,,,,,,,,,,,,,,,,,,,,,,,,,,,,,,,,,,,,,,,,,,,,,,,,,,,,,,,,,,,,,,,,,,,,,,,,,,,,,,,,,,,,,,,,,,,,,,,,,,,,,,,,,,,,,,,,,,,,,,,
0,7,7,13,1,,58c26f473977190001f54116,62b2d07f9a1407631b2ae152,2022-06-22_09h20.06.214,Colour_Asymmetry_Pilot,2022.1.3,Win32,59.85873339,62b2a6a25f2ba72662469a01,,,,,,,,,,,,,,,,,,,,,,,,,,,,,,,,,,,,,,,,,,,,,,,,,,,,,,,,,,,,,,,,,,,,,,,,,,,,,,,,,,,,,,,,,,,,,,,,,,,,,,,,,,,,,,,,,,,,,,,,,,,,,,,,,,,,,,,,,,,,,,,,,,,,,,,,,,,,,,
0,8,8,68,1,,58c26f473977190001f54116,62b2d07f9a1407631b2ae152,2022-06-22_09h20.06.214,Colour_Asymmetry_Pilot,2022.1.3,Win32,59.85873339,62b2a6a25f2ba72662469a01,,,,,,,,,,,,,,,,,,,,,,,,,,,,,,,,,,,,,,,,,,,,,,,,,,,,,,,,,,,,,,,,,,,,,,,,,,,,,,,,,,,,,,,,,,,,,,,,,,,,,,,,,,,,,,,,,,,,,,,,,,,,,,,,,,,,,,,,,,,,,,,,,,,,,,,,,,,,,,
0,9,9,26,1,,58c26f473977190001f54116,62b2d07f9a1407631b2ae152,2022-06-22_09h20.06.214,Colour_Asymmetry_Pilot,2022.1.3,Win32,59.85873339,62b2a6a25f2ba72662469a01,,,,,,,,,,,,,,,,,,,,,,,,,,,,,,,,,,,,,,,,,,,,,,,,,,,,,,,,,,,,,,,,,,,,,,,,,,,,,,,,,,,,,,,,,,,,,,,,,,,,,,,,,,,,,,,,,,,,,,,,,,,,,,,,,,,,,,,,,,,,,,,,,,,,,,,,,,,,,,
0,10,10,69,1,,58c26f473977190001f54116,62b2d07f9a1407631b2ae152,2022-06-22_09h20.06.214,Colour_Asymmetry_Pilot,2022.1.3,Win32,59.85873339,62b2a6a25f2ba72662469a01,,,,,,,,,,,,,,,,,,,,,,,,,,,,,,,,,,,,,,,,,,,,,,,,,,,,,,,,,,,,,,,,,,,,,,,,,,,,,,,,,,,,,,,,,,,,,,,,,,,,,,,,,,,,,,,,,,,,,,,,,,,,,,,,,,,,,,,,,,,,,,,,,,,,,,,,,,,,,,
0,11,11,45,1,,58c26f473977190001f54116,62b2d07f9a1407631b2ae152,2022-06-22_09h20.06.214,Colour_Asymmetry_Pilot,2022.1.3,Win32,59.85873339,62b2a6a25f2ba72662469a01,,,,,,,,,,,,,,,,,,,,,,,,,,,,,,,,,,,,,,,,,,,,,,,,,,,,,,,,,,,,,,,,,,,,,,,,,,,,,,,,,,,,,,,,,,,,,,,,,,,,,,,,,,,,,,,,,,,,,,,,,,,,,,,,,,,,,,,,,,,,,,,,,,,,,,,,,,,,,,
0,12,12,18,1,,58c26f473977190001f54116,62b2d07f9a1407631b2ae152,2022-06-22_09h20.06.214,Colour_Asymmetry_Pilot,2022.1.3,Win32,59.85873339,62b2a6a25f2ba72662469a01,,,,,,,,,,,,,,,,,,,,,,,,,,,,,,,,,,,,,,,,,,,,,,,,,,,,,,,,,,,,,,,,,,,,,,,,,,,,,,,,,,,,,,,,,,,,,,,,,,,,,,,,,,,,,,,,,,,,,,,,,,,,,,,,,,,,,,,,,,,,,,,,,,,,,,,,,,,,,,
0,13,13,4,1,,58c26f473977190001f54116,62b2d07f9a1407631b2ae152,2022-06-22_09h20.06.214,Colour_Asymmetry_Pilot,2022.1.3,Win32,59.85873339,62b2a6a25f2ba72662469a01,,,,,,,,,,,,,,,,,,,,,,,,,,,,,,,,,,,,,,,,,,,,,,,,,,,,,,,,,,,,,,,,,,,,,,,,,,,,,,,,,,,,,,,,,,,,,,,,,,,,,,,,,,,,,,,,,,,,,,,,,,,,,,,,,,,,,,,,,,,,,,,,,,,,,,,,,,,,,,
0,14,14,36,1,,58c26f473977190001f54116,62b2d07f9a1407631b2ae152,2022-06-22_09h20.06.214,Colour_Asymmetry_Pilot,2022.1.3,Win32,59.85873339,62b2a6a25f2ba72662469a01,,,,,,,,,,,,,,,,,,,,,,,,,,,,,,,,,,,,,,,,,,,,,,,,,,,,,,,,,,,,,,,,,,,,,,,,,,,,,,,,,,,,,,,,,,,,,,,,,,,,,,,,,,,,,,,,,,,,,,,,,,,,,,,,,,,,,,,,,,,,,,,,,,,,,,,,,,,,,,
0,15,15,9,1,,58c26f473977190001f54116,62b2d07f9a1407631b2ae152,2022-06-22_09h20.06.214,Colour_Asymmetry_Pilot,2022.1.3,Win32,59.85873339,62b2a6a25f2ba72662469a01,,,,,,,,,,,,,,,,,,,,,,,,,,,,,,,,,,,,,,,,,,,,,,,,,,,,,,,,,,,,,,,,,,,,,,,,,,,,,,,,,,,,,,,,,,,,,,,,,,,,,,,,,,,,,,,,,,,,,,,,,,,,,,,,,,,,,,,,,,,,,,,,,,,,,,,,,,,,,,
0,16,16,81,1,,58c26f473977190001f54116,62b2d07f9a1407631b2ae152,2022-06-22_09h20.06.214,Colour_Asymmetry_Pilot,2022.1.3,Win32,59.85873339,62b2a6a25f2ba72662469a01,,,,,,,,,,,,,,,,,,,,,,,,,,,,,,,,,,,,,,,,,,,,,,,,,,,,,,,,,,,,,,,,,,,,,,,,,,,,,,,,,,,,,,,,,,,,,,,,,,,,,,,,,,,,,,,,,,,,,,,,,,,,,,,,,,,,,,,,,,,,,,,,,,,,,,,,,,,,,,
0,17,17,64,1,,58c26f473977190001f54116,62b2d07f9a1407631b2ae152,2022-06-22_09h20.06.214,Colour_Asymmetry_Pilot,2022.1.3,Win32,59.85873339,62b2a6a25f2ba72662469a01,,,,,,,,,,,,,,,,,,,,,,,,,,,,,,,,,,,,,,,,,,,,,,,,,,,,,,,,,,,,,,,,,,,,,,,,,,,,,,,,,,,,,,,,,,,,,,,,,,,,,,,,,,,,,,,,,,,,,,,,,,,,,,,,,,,,,,,,,,,,,,,,,,,,,,,,,,,,,,
0,18,18,19,1,,58c26f473977190001f54116,62b2d07f9a1407631b2ae152,2022-06-22_09h20.06.214,Colour_Asymmetry_Pilot,2022.1.3,Win32,59.85873339,62b2a6a25f2ba72662469a01,,,,,,,,,,,,,,,,,,,,,,,,,,,,,,,,,,,,,,,,,,,,,,,,,,,,,,,,,,,,,,,,,,,,,,,,,,,,,,,,,,,,,,,,,,,,,,,,,,,,,,,,,,,,,,,,,,,,,,,,,,,,,,,,,,,,,,,,,,,,,,,,,,,,,,,,,,,,,,
0,19,19,33,1,,58c26f473977190001f54116,62b2d07f9a1407631b2ae152,2022-06-22_09h20.06.214,Colour_Asymmetry_Pilot,2022.1.3,Win32,59.85873339,62b2a6a25f2ba72662469a01,,,,,,,,,,,,,,,,,,,,,,,,,,,,,,,,,,,,,,,,,,,,,,,,,,,,,,,,,,,,,,,,,,,,,,,,,,,,,,,,,,,,,,,,,,,,,,,,,,,,,,,,,,,,,,,,,,,,,,,,,,,,,,,,,,,,,,,,,,,,,,,,,,,,,,,,,,,,,,
0,20,20,79,1,,58c26f473977190001f54116,62b2d07f9a1407631b2ae152,2022-06-22_09h20.06.214,Colour_Asymmetry_Pilot,2022.1.3,Win32,59.85873339,62b2a6a25f2ba72662469a01,,,,,,,,,,,,,,,,,,,,,,,,,,,,,,,,,,,,,,,,,,,,,,,,,,,,,,,,,,,,,,,,,,,,,,,,,,,,,,,,,,,,,,,,,,,,,,,,,,,,,,,,,,,,,,,,,,,,,,,,,,,,,,,,,,,,,,,,,,,,,,,,,,,,,,,,,,,,,,
0,21,21,92,1,,58c26f473977190001f54116,62b2d07f9a1407631b2ae152,2022-06-22_09h20.06.214,Colour_Asymmetry_Pilot,2022.1.3,Win32,59.85873339,62b2a6a25f2ba72662469a01,,,,,,,,,,,,,,,,,,,,,,,,,,,,,,,,,,,,,,,,,,,,,,,,,,,,,,,,,,,,,,,,,,,,,,,,,,,,,,,,,,,,,,,,,,,,,,,,,,,,,,,,,,,,,,,,,,,,,,,,,,,,,,,,,,,,,,,,,,,,,,,,,,,,,,,,,,,,,,
0,22,22,58,1,,58c26f473977190001f54116,62b2d07f9a1407631b2ae152,2022-06-22_09h20.06.214,Colour_Asymmetry_Pilot,2022.1.3,Win32,59.85873339,62b2a6a25f2ba72662469a01,,,,,,,,,,,,,,,,,,,,,,,,,,,,,,,,,,,,,,,,,,,,,,,,,,,,,,,,,,,,,,,,,,,,,,,,,,,,,,,,,,,,,,,,,,,,,,,,,,,,,,,,,,,,,,,,,,,,,,,,,,,,,,,,,,,,,,,,,,,,,,,,,,,,,,,,,,,,,,
0,23,23,50,1,,58c26f473977190001f54116,62b2d07f9a1407631b2ae152,2022-06-22_09h20.06.214,Colour_Asymmetry_Pilot,2022.1.3,Win32,59.85873339,62b2a6a25f2ba72662469a01,,,,,,,,,,,,,,,,,,,,,,,,,,,,,,,,,,,,,,,,,,,,,,,,,,,,,,,,,,,,,,,,,,,,,,,,,,,,,,,,,,,,,,,,,,,,,,,,,,,,,,,,,,,,,,,,,,,,,,,,,,,,,,,,,,,,,,,,,,,,,,,,,,,,,,,,,,,,,,
0,24,24,8,1,,58c26f473977190001f54116,62b2d07f9a1407631b2ae152,2022-06-22_09h20.06.214,Colour_Asymmetry_Pilot,2022.1.3,Win32,59.85873339,62b2a6a25f2ba72662469a01,,,,,,,,,,,,,,,,,,,,,,,,,,,,,,,,,,,,,,,,,,,,,,,,,,,,,,,,,,,,,,,,,,,,,,,,,,,,,,,,,,,,,,,,,,,,,,,,,,,,,,,,,,,,,,,,,,,,,,,,,,,,,,,,,,,,,,,,,,,,,,,,,,,,,,,,,,,,,,
0,25,25,2,1,,58c26f473977190001f54116,62b2d07f9a1407631b2ae152,2022-06-22_09h20.06.214,Colour_Asymmetry_Pilot,2022.1.3,Win32,59.85873339,62b2a6a25f2ba72662469a01,,,,,,,,,,,,,,,,,,,,,,,,,,,,,,,,,,,,,,,,,,,,,,,,,,,,,,,,,,,,,,,,,,,,,,,,,,,,,,,,,,,,,,,,,,,,,,,,,,,,,,,,,,,,,,,,,,,,,,,,,,,,,,,,,,,,,,,,,,,,,,,,,,,,,,,,,,,,,,
0,26,26,11,1,,58c26f473977190001f54116,62b2d07f9a1407631b2ae152,2022-06-22_09h20.06.214,Colour_Asymmetry_Pilot,2022.1.3,Win32,59.85873339,62b2a6a25f2ba72662469a01,,,,,,,,,,,,,,,,,,,,,,,,,,,,,,,,,,,,,,,,,,,,,,,,,,,,,,,,,,,,,,,,,,,,,,,,,,,,,,,,,,,,,,,,,,,,,,,,,,,,,,,,,,,,,,,,,,,,,,,,,,,,,,,,,,,,,,,,,,,,,,,,,,,,,,,,,,,,,,
0,27,27,35,1,,58c26f473977190001f54116,62b2d07f9a1407631b2ae152,2022-06-22_09h20.06.214,Colour_Asymmetry_Pilot,2022.1.3,Win32,59.85873339,62b2a6a25f2ba72662469a01,,,,,,,,,,,,,,,,,,,,,,,,,,,,,,,,,,,,,,,,,,,,,,,,,,,,,,,,,,,,,,,,,,,,,,,,,,,,,,,,,,,,,,,,,,,,,,,,,,,,,,,,,,,,,,,,,,,,,,,,,,,,,,,,,,,,,,,,,,,,,,,,,,,,,,,,,,,,,,
0,28,28,52,1,,58c26f473977190001f54116,62b2d07f9a1407631b2ae152,2022-06-22_09h20.06.214,Colour_Asymmetry_Pilot,2022.1.3,Win32,59.85873339,62b2a6a25f2ba72662469a01,,,,,,,,,,,,,,,,,,,,,,,,,,,,,,,,,,,,,,,,,,,,,,,,,,,,,,,,,,,,,,,,,,,,,,,,,,,,,,,,,,,,,,,,,,,,,,,,,,,,,,,,,,,,,,,,,,,,,,,,,,,,,,,,,,,,,,,,,,,,,,,,,,,,,,,,,,,,,,
0,29,29,82,1,,58c26f473977190001f54116,62b2d07f9a1407631b2ae152,2022-06-22_09h20.06.214,Colour_Asymmetry_Pilot,2022.1.3,Win32,59.85873339,62b2a6a25f2ba72662469a01,,,,,,,,,,,,,,,,,,,,,,,,,,,,,,,,,,,,,,,,,,,,,,,,,,,,,,,,,,,,,,,,,,,,,,,,,,,,,,,,,,,,,,,,,,,,,,,,,,,,,,,,,,,,,,,,,,,,,,,,,,,,,,,,,,,,,,,,,,,,,,,,,,,,,,,,,,,,,,
0,30,30,87,1,,58c26f473977190001f54116,62b2d07f9a1407631b2ae152,2022-06-22_09h20.06.214,Colour_Asymmetry_Pilot,2022.1.3,Win32,59.85873339,62b2a6a25f2ba72662469a01,,,,,,,,,,,,,,,,,,,,,,,,,,,,,,,,,,,,,,,,,,,,,,,,,,,,,,,,,,,,,,,,,,,,,,,,,,,,,,,,,,,,,,,,,,,,,,,,,,,,,,,,,,,,,,,,,,,,,,,,,,,,,,,,,,,,,,,,,,,,,,,,,,,,,,,,,,,,,,
0,31,31,47,1,,58c26f473977190001f54116,62b2d07f9a1407631b2ae152,2022-06-22_09h20.06.214,Colour_Asymmetry_Pilot,2022.1.3,Win32,59.85873339,62b2a6a25f2ba72662469a01,,,,,,,,,,,,,,,,,,,,,,,,,,,,,,,,,,,,,,,,,,,,,,,,,,,,,,,,,,,,,,,,,,,,,,,,,,,,,,,,,,,,,,,,,,,,,,,,,,,,,,,,,,,,,,,,,,,,,,,,,,,,,,,,,,,,,,,,,,,,,,,,,,,,,,,,,,,,,,
0,32,32,59,1,,58c26f473977190001f54116,62b2d07f9a1407631b2ae152,2022-06-22_09h20.06.214,Colour_Asymmetry_Pilot,2022.1.3,Win32,59.85873339,62b2a6a25f2ba72662469a01,,,,,,,,,,,,,,,,,,,,,,,,,,,,,,,,,,,,,,,,,,,,,,,,,,,,,,,,,,,,,,,,,,,,,,,,,,,,,,,,,,,,,,,,,,,,,,,,,,,,,,,,,,,,,,,,,,,,,,,,,,,,,,,,,,,,,,,,,,,,,,,,,,,,,,,,,,,,,,
0,33,33,31,1,,58c26f473977190001f54116,62b2d07f9a1407631b2ae152,2022-06-22_09h20.06.214,Colour_Asymmetry_Pilot,2022.1.3,Win32,59.85873339,62b2a6a25f2ba72662469a01,,,,,,,,,,,,,,,,,,,,,,,,,,,,,,,,,,,,,,,,,,,,,,,,,,,,,,,,,,,,,,,,,,,,,,,,,,,,,,,,,,,,,,,,,,,,,,,,,,,,,,,,,,,,,,,,,,,,,,,,,,,,,,,,,,,,,,,,,,,,,,,,,,,,,,,,,,,,,,
0,34,34,10,1,,58c26f473977190001f54116,62b2d07f9a1407631b2ae152,2022-06-22_09h20.06.214,Colour_Asymmetry_Pilot,2022.1.3,Win32,59.85873339,62b2a6a25f2ba72662469a01,,,,,,,,,,,,,,,,,,,,,,,,,,,,,,,,,,,,,,,,,,,,,,,,,,,,,,,,,,,,,,,,,,,,,,,,,,,,,,,,,,,,,,,,,,,,,,,,,,,,,,,,,,,,,,,,,,,,,,,,,,,,,,,,,,,,,,,,,,,,,,,,,,,,,,,,,,,,,,
0,35,35,27,1,,58c26f473977190001f54116,62b2d07f9a1407631b2ae152,2022-06-22_09h20.06.214,Colour_Asymmetry_Pilot,2022.1.3,Win32,59.85873339,62b2a6a25f2ba72662469a01,,,,,,,,,,,,,,,,,,,,,,,,,,,,,,,,,,,,,,,,,,,,,,,,,,,,,,,,,,,,,,,,,,,,,,,,,,,,,,,,,,,,,,,,,,,,,,,,,,,,,,,,,,,,,,,,,,,,,,,,,,,,,,,,,,,,,,,,,,,,,,,,,,,,,,,,,,,,,,
0,36,36,84,1,,58c26f473977190001f54116,62b2d07f9a1407631b2ae152,2022-06-22_09h20.06.214,Colour_Asymmetry_Pilot,2022.1.3,Win32,59.85873339,62b2a6a25f2ba72662469a01,,,,,,,,,,,,,,,,,,,,,,,,,,,,,,,,,,,,,,,,,,,,,,,,,,,,,,,,,,,,,,,,,,,,,,,,,,,,,,,,,,,,,,,,,,,,,,,,,,,,,,,,,,,,,,,,,,,,,,,,,,,,,,,,,,,,,,,,,,,,,,,,,,,,,,,,,,,,,,
0,37,37,30,1,,58c26f473977190001f54116,62b2d07f9a1407631b2ae152,2022-06-22_09h20.06.214,Colour_Asymmetry_Pilot,2022.1.3,Win32,59.85873339,62b2a6a25f2ba72662469a01,,,,,,,,,,,,,,,,,,,,,,,,,,,,,,,,,,,,,,,,,,,,,,,,,,,,,,,,,,,,,,,,,,,,,,,,,,,,,,,,,,,,,,,,,,,,,,,,,,,,,,,,,,,,,,,,,,,,,,,,,,,,,,,,,,,,,,,,,,,,,,,,,,,,,,,,,,,,,,
0,38,38,67,1,,58c26f473977190001f54116,62b2d07f9a1407631b2ae152,2022-06-22_09h20.06.214,Colour_Asymmetry_Pilot,2022.1.3,Win32,59.85873339,62b2a6a25f2ba72662469a01,,,,,,,,,,,,,,,,,,,,,,,,,,,,,,,,,,,,,,,,,,,,,,,,,,,,,,,,,,,,,,,,,,,,,,,,,,,,,,,,,,,,,,,,,,,,,,,,,,,,,,,,,,,,,,,,,,,,,,,,,,,,,,,,,,,,,,,,,,,,,,,,,,,,,,,,,,,,,,
0,39,39,63,1,,58c26f473977190001f54116,62b2d07f9a1407631b2ae152,2022-06-22_09h20.06.214,Colour_Asymmetry_Pilot,2022.1.3,Win32,59.85873339,62b2a6a25f2ba72662469a01,,,,,,,,,,,,,,,,,,,,,,,,,,,,,,,,,,,,,,,,,,,,,,,,,,,,,,,,,,,,,,,,,,,,,,,,,,,,,,,,,,,,,,,,,,,,,,,,,,,,,,,,,,,,,,,,,,,,,,,,,,,,,,,,,,,,,,,,,,,,,,,,,,,,,,,,,,,,,,
0,40,40,46,1,,58c26f473977190001f54116,62b2d07f9a1407631b2ae152,2022-06-22_09h20.06.214,Colour_Asymmetry_Pilot,2022.1.3,Win32,59.85873339,62b2a6a25f2ba72662469a01,,,,,,,,,,,,,,,,,,,,,,,,,,,,,,,,,,,,,,,,,,,,,,,,,,,,,,,,,,,,,,,,,,,,,,,,,,,,,,,,,,,,,,,,,,,,,,,,,,,,,,,,,,,,,,,,,,,,,,,,,,,,,,,,,,,,,,,,,,,,,,,,,,,,,,,,,,,,,,
0,41,41,83,1,,58c26f473977190001f54116,62b2d07f9a1407631b2ae152,2022-06-22_09h20.06.214,Colour_Asymmetry_Pilot,2022.1.3,Win32,59.85873339,62b2a6a25f2ba72662469a01,,,,,,,,,,,,,,,,,,,,,,,,,,,,,,,,,,,,,,,,,,,,,,,,,,,,,,,,,,,,,,,,,,,,,,,,,,,,,,,,,,,,,,,,,,,,,,,,,,,,,,,,,,,,,,,,,,,,,,,,,,,,,,,,,,,,,,,,,,,,,,,,,,,,,,,,,,,,,,
0,42,42,40,1,,58c26f473977190001f54116,62b2d07f9a1407631b2ae152,2022-06-22_09h20.06.214,Colour_Asymmetry_Pilot,2022.1.3,Win32,59.85873339,62b2a6a25f2ba72662469a01,,,,,,,,,,,,,,,,,,,,,,,,,,,,,,,,,,,,,,,,,,,,,,,,,,,,,,,,,,,,,,,,,,,,,,,,,,,,,,,,,,,,,,,,,,,,,,,,,,,,,,,,,,,,,,,,,,,,,,,,,,,,,,,,,,,,,,,,,,,,,,,,,,,,,,,,,,,,,,
0,43,43,48,1,,58c26f473977190001f54116,62b2d07f9a1407631b2ae152,2022-06-22_09h20.06.214,Colour_Asymmetry_Pilot,2022.1.3,Win32,59.85873339,62b2a6a25f2ba72662469a01,,,,,,,,,,,,,,,,,,,,,,,,,,,,,,,,,,,,,,,,,,,,,,,,,,,,,,,,,,,,,,,,,,,,,,,,,,,,,,,,,,,,,,,,,,,,,,,,,,,,,,,,,,,,,,,,,,,,,,,,,,,,,,,,,,,,,,,,,,,,,,,,,,,,,,,,,,,,,,
0,44,44,62,1,,58c26f473977190001f54116,62b2d07f9a1407631b2ae152,2022-06-22_09h20.06.214,Colour_Asymmetry_Pilot,2022.1.3,Win32,59.85873339,62b2a6a25f2ba72662469a01,,,,,,,,,,,,,,,,,,,,,,,,,,,,,,,,,,,,,,,,,,,,,,,,,,,,,,,,,,,,,,,,,,,,,,,,,,,,,,,,,,,,,,,,,,,,,,,,,,,,,,,,,,,,,,,,,,,,,,,,,,,,,,,,,,,,,,,,,,,,,,,,,,,,,,,,,,,,,,
0,45,45,14,1,,58c26f473977190001f54116,62b2d07f9a1407631b2ae152,2022-06-22_09h20.06.214,Colour_Asymmetry_Pilot,2022.1.3,Win32,59.85873339,62b2a6a25f2ba72662469a01,,,,,,,,,,,,,,,,,,,,,,,,,,,,,,,,,,,,,,,,,,,,,,,,,,,,,,,,,,,,,,,,,,,,,,,,,,,,,,,,,,,,,,,,,,,,,,,,,,,,,,,,,,,,,,,,,,,,,,,,,,,,,,,,,,,,,,,,,,,,,,,,,,,,,,,,,,,,,,
0,46,46,21,1,,58c26f473977190001f54116,62b2d07f9a1407631b2ae152,2022-06-22_09h20.06.214,Colour_Asymmetry_Pilot,2022.1.3,Win32,59.85873339,62b2a6a25f2ba72662469a01,,,,,,,,,,,,,,,,,,,,,,,,,,,,,,,,,,,,,,,,,,,,,,,,,,,,,,,,,,,,,,,,,,,,,,,,,,,,,,,,,,,,,,,,,,,,,,,,,,,,,,,,,,,,,,,,,,,,,,,,,,,,,,,,,,,,,,,,,,,,,,,,,,,,,,,,,,,,,,
0,47,47,7,1,,58c26f473977190001f54116,62b2d07f9a1407631b2ae152,2022-06-22_09h20.06.214,Colour_Asymmetry_Pilot,2022.1.3,Win32,59.85873339,62b2a6a25f2ba72662469a01,,,,,,,,,,,,,,,,,,,,,,,,,,,,,,,,,,,,,,,,,,,,,,,,,,,,,,,,,,,,,,,,,,,,,,,,,,,,,,,,,,,,,,,,,,,,,,,,,,,,,,,,,,,,,,,,,,,,,,,,,,,,,,,,,,,,,,,,,,,,,,,,,,,,,,,,,,,,,,
0,48,48,37,1,,58c26f473977190001f54116,62b2d07f9a1407631b2ae152,2022-06-22_09h20.06.214,Colour_Asymmetry_Pilot,2022.1.3,Win32,59.85873339,62b2a6a25f2ba72662469a01,,,,,,,,,,,,,,,,,,,,,,,,,,,,,,,,,,,,,,,,,,,,,,,,,,,,,,,,,,,,,,,,,,,,,,,,,,,,,,,,,,,,,,,,,,,,,,,,,,,,,,,,,,,,,,,,,,,,,,,,,,,,,,,,,,,,,,,,,,,,,,,,,,,,,,,,,,,,,,
0,49,49,72,1,,58c26f473977190001f54116,62b2d07f9a1407631b2ae152,2022-06-22_09h20.06.214,Colour_Asymmetry_Pilot,2022.1.3,Win32,59.85873339,62b2a6a25f2ba72662469a01,,,,,,,,,,,,,,,,,,,,,,,,,,,,,,,,,,,,,,,,,,,,,,,,,,,,,,,,,,,,,,,,,,,,,,,,,,,,,,,,,,,,,,,,,,,,,,,,,,,,,,,,,,,,,,,,,,,,,,,,,,,,,,,,,,,,,,,,,,,,,,,,,,,,,,,,,,,,,,
0,50,50,25,1,,58c26f473977190001f54116,62b2d07f9a1407631b2ae152,2022-06-22_09h20.06.214,Colour_Asymmetry_Pilot,2022.1.3,Win32,59.85873339,62b2a6a25f2ba72662469a01,,,,,,,,,,,,,,,,,,,,,,,,,,,,,,,,,,,,,,,,,,,,,,,,,,,,,,,,,,,,,,,,,,,,,,,,,,,,,,,,,,,,,,,,,,,,,,,,,,,,,,,,,,,,,,,,,,,,,,,,,,,,,,,,,,,,,,,,,,,,,,,,,,,,,,,,,,,,,,
0,51,51,24,1,,58c26f473977190001f54116,62b2d07f9a1407631b2ae152,2022-06-22_09h20.06.214,Colour_Asymmetry_Pilot,2022.1.3,Win32,59.85873339,62b2a6a25f2ba72662469a01,,,,,,,,,,,,,,,,,,,,,,,,,,,,,,,,,,,,,,,,,,,,,,,,,,,,,,,,,,,,,,,,,,,,,,,,,,,,,,,,,,,,,,,,,,,,,,,,,,,,,,,,,,,,,,,,,,,,,,,,,,,,,,,,,,,,,,,,,,,,,,,,,,,,,,,,,,,,,,
0,52,52,54,1,,58c26f473977190001f54116,62b2d07f9a1407631b2ae152,2022-06-22_09h20.06.214,Colour_Asymmetry_Pilot,2022.1.3,Win32,59.85873339,62b2a6a25f2ba72662469a01,,,,,,,,,,,,,,,,,,,,,,,,,,,,,,,,,,,,,,,,,,,,,,,,,,,,,,,,,,,,,,,,,,,,,,,,,,,,,,,,,,,,,,,,,,,,,,,,,,,,,,,,,,,,,,,,,,,,,,,,,,,,,,,,,,,,,,,,,,,,,,,,,,,,,,,,,,,,,,
0,53,53,60,1,,58c26f473977190001f54116,62b2d07f9a1407631b2ae152,2022-06-22_09h20.06.214,Colour_Asymmetry_Pilot,2022.1.3,Win32,59.85873339,62b2a6a25f2ba72662469a01,,,,,,,,,,,,,,,,,,,,,,,,,,,,,,,,,,,,,,,,,,,,,,,,,,,,,,,,,,,,,,,,,,,,,,,,,,,,,,,,,,,,,,,,,,,,,,,,,,,,,,,,,,,,,,,,,,,,,,,,,,,,,,,,,,,,,,,,,,,,,,,,,,,,,,,,,,,,,,
0,54,54,57,1,,58c26f473977190001f54116,62b2d07f9a1407631b2ae152,2022-06-22_09h20.06.214,Colour_Asymmetry_Pilot,2022.1.3,Win32,59.85873339,62b2a6a25f2ba72662469a01,,,,,,,,,,,,,,,,,,,,,,,,,,,,,,,,,,,,,,,,,,,,,,,,,,,,,,,,,,,,,,,,,,,,,,,,,,,,,,,,,,,,,,,,,,,,,,,,,,,,,,,,,,,,,,,,,,,,,,,,,,,,,,,,,,,,,,,,,,,,,,,,,,,,,,,,,,,,,,
0,55,55,38,1,,58c26f473977190001f54116,62b2d07f9a1407631b2ae152,2022-06-22_09h20.06.214,Colour_Asymmetry_Pilot,2022.1.3,Win32,59.85873339,62b2a6a25f2ba72662469a01,,,,,,,,,,,,,,,,,,,,,,,,,,,,,,,,,,,,,,,,,,,,,,,,,,,,,,,,,,,,,,,,,,,,,,,,,,,,,,,,,,,,,,,,,,,,,,,,,,,,,,,,,,,,,,,,,,,,,,,,,,,,,,,,,,,,,,,,,,,,,,,,,,,,,,,,,,,,,,
0,56,56,55,1,,58c26f473977190001f54116,62b2d07f9a1407631b2ae152,2022-06-22_09h20.06.214,Colour_Asymmetry_Pilot,2022.1.3,Win32,59.85873339,62b2a6a25f2ba72662469a01,,,,,,,,,,,,,,,,,,,,,,,,,,,,,,,,,,,,,,,,,,,,,,,,,,,,,,,,,,,,,,,,,,,,,,,,,,,,,,,,,,,,,,,,,,,,,,,,,,,,,,,,,,,,,,,,,,,,,,,,,,,,,,,,,,,,,,,,,,,,,,,,,,,,,,,,,,,,,,
0,57,57,0,1,,58c26f473977190001f54116,62b2d07f9a1407631b2ae152,2022-06-22_09h20.06.214,Colour_Asymmetry_Pilot,2022.1.3,Win32,59.85873339,62b2a6a25f2ba72662469a01,,,,,,,,,,,,,,,,,,,,,,,,,,,,,,,,,,,,,,,,,,,,,,,,,,,,,,,,,,,,,,,,,,,,,,,,,,,,,,,,,,,,,,,,,,,,,,,,,,,,,,,,,,,,,,,,,,,,,,,,,,,,,,,,,,,,,,,,,,,,,,,,,,,,,,,,,,,,,,
0,58,58,66,1,,58c26f473977190001f54116,62b2d07f9a1407631b2ae152,2022-06-22_09h20.06.214,Colour_Asymmetry_Pilot,2022.1.3,Win32,59.85873339,62b2a6a25f2ba72662469a01,,,,,,,,,,,,,,,,,,,,,,,,,,,,,,,,,,,,,,,,,,,,,,,,,,,,,,,,,,,,,,,,,,,,,,,,,,,,,,,,,,,,,,,,,,,,,,,,,,,,,,,,,,,,,,,,,,,,,,,,,,,,,,,,,,,,,,,,,,,,,,,,,,,,,,,,,,,,,,
0,59,59,15,1,,58c26f473977190001f54116,62b2d07f9a1407631b2ae152,2022-06-22_09h20.06.214,Colour_Asymmetry_Pilot,2022.1.3,Win32,59.85873339,62b2a6a25f2ba72662469a01,,,,,,,,,,,,,,,,,,,,,,,,,,,,,,,,,,,,,,,,,,,,,,,,,,,,,,,,,,,,,,,,,,,,,,,,,,,,,,,,,,,,,,,,,,,,,,,,,,,,,,,,,,,,,,,,,,,,,,,,,,,,,,,,,,,,,,,,,,,,,,,,,,,,,,,,,,,,,,
0,60,60,61,1,,58c26f473977190001f54116,62b2d07f9a1407631b2ae152,2022-06-22_09h20.06.214,Colour_Asymmetry_Pilot,2022.1.3,Win32,59.85873339,62b2a6a25f2ba72662469a01,,,,,,,,,,,,,,,,,,,,,,,,,,,,,,,,,,,,,,,,,,,,,,,,,,,,,,,,,,,,,,,,,,,,,,,,,,,,,,,,,,,,,,,,,,,,,,,,,,,,,,,,,,,,,,,,,,,,,,,,,,,,,,,,,,,,,,,,,,,,,,,,,,,,,,,,,,,,,,
0,61,61,32,1,,58c26f473977190001f54116,62b2d07f9a1407631b2ae152,2022-06-22_09h20.06.214,Colour_Asymmetry_Pilot,2022.1.3,Win32,59.85873339,62b2a6a25f2ba72662469a01,,,,,,,,,,,,,,,,,,,,,,,,,,,,,,,,,,,,,,,,,,,,,,,,,,,,,,,,,,,,,,,,,,,,,,,,,,,,,,,,,,,,,,,,,,,,,,,,,,,,,,,,,,,,,,,,,,,,,,,,,,,,,,,,,,,,,,,,,,,,,,,,,,,,,,,,,,,,,,
0,62,62,16,1,,58c26f473977190001f54116,62b2d07f9a1407631b2ae152,2022-06-22_09h20.06.214,Colour_Asymmetry_Pilot,2022.1.3,Win32,59.85873339,62b2a6a25f2ba72662469a01,,,,,,,,,,,,,,,,,,,,,,,,,,,,,,,,,,,,,,,,,,,,,,,,,,,,,,,,,,,,,,,,,,,,,,,,,,,,,,,,,,,,,,,,,,,,,,,,,,,,,,,,,,,,,,,,,,,,,,,,,,,,,,,,,,,,,,,,,,,,,,,,,,,,,,,,,,,,,,
0,63,63,70,1,,58c26f473977190001f54116,62b2d07f9a1407631b2ae152,2022-06-22_09h20.06.214,Colour_Asymmetry_Pilot,2022.1.3,Win32,59.85873339,62b2a6a25f2ba72662469a01,,,,,,,,,,,,,,,,,,,,,,,,,,,,,,,,,,,,,,,,,,,,,,,,,,,,,,,,,,,,,,,,,,,,,,,,,,,,,,,,,,,,,,,,,,,,,,,,,,,,,,,,,,,,,,,,,,,,,,,,,,,,,,,,,,,,,,,,,,,,,,,,,,,,,,,,,,,,,,
0,64,64,74,1,,58c26f473977190001f54116,62b2d07f9a1407631b2ae152,2022-06-22_09h20.06.214,Colour_Asymmetry_Pilot,2022.1.3,Win32,59.85873339,62b2a6a25f2ba72662469a01,,,,,,,,,,,,,,,,,,,,,,,,,,,,,,,,,,,,,,,,,,,,,,,,,,,,,,,,,,,,,,,,,,,,,,,,,,,,,,,,,,,,,,,,,,,,,,,,,,,,,,,,,,,,,,,,,,,,,,,,,,,,,,,,,,,,,,,,,,,,,,,,,,,,,,,,,,,,,,
0,65,65,75,1,,58c26f473977190001f54116,62b2d07f9a1407631b2ae152,2022-06-22_09h20.06.214,Colour_Asymmetry_Pilot,2022.1.3,Win32,59.85873339,62b2a6a25f2ba72662469a01,,,,,,,,,,,,,,,,,,,,,,,,,,,,,,,,,,,,,,,,,,,,,,,,,,,,,,,,,,,,,,,,,,,,,,,,,,,,,,,,,,,,,,,,,,,,,,,,,,,,,,,,,,,,,,,,,,,,,,,,,,,,,,,,,,,,,,,,,,,,,,,,,,,,,,,,,,,,,,
0,66,66,65,1,,58c26f473977190001f54116,62b2d07f9a1407631b2ae152,2022-06-22_09h20.06.214,Colour_Asymmetry_Pilot,2022.1.3,Win32,59.85873339,62b2a6a25f2ba72662469a01,,,,,,,,,,,,,,,,,,,,,,,,,,,,,,,,,,,,,,,,,,,,,,,,,,,,,,,,,,,,,,,,,,,,,,,,,,,,,,,,,,,,,,,,,,,,,,,,,,,,,,,,,,,,,,,,,,,,,,,,,,,,,,,,,,,,,,,,,,,,,,,,,,,,,,,,,,,,,,
0,67,67,71,1,,58c26f473977190001f54116,62b2d07f9a1407631b2ae152,2022-06-22_09h20.06.214,Colour_Asymmetry_Pilot,2022.1.3,Win32,59.85873339,62b2a6a25f2ba72662469a01,,,,,,,,,,,,,,,,,,,,,,,,,,,,,,,,,,,,,,,,,,,,,,,,,,,,,,,,,,,,,,,,,,,,,,,,,,,,,,,,,,,,,,,,,,,,,,,,,,,,,,,,,,,,,,,,,,,,,,,,,,,,,,,,,,,,,,,,,,,,,,,,,,,,,,,,,,,,,,
0,68,68,34,1,,58c26f473977190001f54116,62b2d07f9a1407631b2ae152,2022-06-22_09h20.06.214,Colour_Asymmetry_Pilot,2022.1.3,Win32,59.85873339,62b2a6a25f2ba72662469a01,,,,,,,,,,,,,,,,,,,,,,,,,,,,,,,,,,,,,,,,,,,,,,,,,,,,,,,,,,,,,,,,,,,,,,,,,,,,,,,,,,,,,,,,,,,,,,,,,,,,,,,,,,,,,,,,,,,,,,,,,,,,,,,,,,,,,,,,,,,,,,,,,,,,,,,,,,,,,,
0,69,69,90,1,,58c26f473977190001f54116,62b2d07f9a1407631b2ae152,2022-06-22_09h20.06.214,Colour_Asymmetry_Pilot,2022.1.3,Win32,59.85873339,62b2a6a25f2ba72662469a01,,,,,,,,,,,,,,,,,,,,,,,,,,,,,,,,,,,,,,,,,,,,,,,,,,,,,,,,,,,,,,,,,,,,,,,,,,,,,,,,,,,,,,,,,,,,,,,,,,,,,,,,,,,,,,,,,,,,,,,,,,,,,,,,,,,,,,,,,,,,,,,,,,,,,,,,,,,,,,
0,70,70,51,1,,58c26f473977190001f54116,62b2d07f9a1407631b2ae152,2022-06-22_09h20.06.214,Colour_Asymmetry_Pilot,2022.1.3,Win32,59.85873339,62b2a6a25f2ba72662469a01,,,,,,,,,,,,,,,,,,,,,,,,,,,,,,,,,,,,,,,,,,,,,,,,,,,,,,,,,,,,,,,,,,,,,,,,,,,,,,,,,,,,,,,,,,,,,,,,,,,,,,,,,,,,,,,,,,,,,,,,,,,,,,,,,,,,,,,,,,,,,,,,,,,,,,,,,,,,,,
0,71,71,56,1,,58c26f473977190001f54116,62b2d07f9a1407631b2ae152,2022-06-22_09h20.06.214,Colour_Asymmetry_Pilot,2022.1.3,Win32,59.85873339,62b2a6a25f2ba72662469a01,,,,,,,,,,,,,,,,,,,,,,,,,,,,,,,,,,,,,,,,,,,,,,,,,,,,,,,,,,,,,,,,,,,,,,,,,,,,,,,,,,,,,,,,,,,,,,,,,,,,,,,,,,,,,,,,,,,,,,,,,,,,,,,,,,,,,,,,,,,,,,,,,,,,,,,,,,,,,,
0,72,72,20,1,,58c26f473977190001f54116,62b2d07f9a1407631b2ae152,2022-06-22_09h20.06.214,Colour_Asymmetry_Pilot,2022.1.3,Win32,59.85873339,62b2a6a25f2ba72662469a01,,,,,,,,,,,,,,,,,,,,,,,,,,,,,,,,,,,,,,,,,,,,,,,,,,,,,,,,,,,,,,,,,,,,,,,,,,,,,,,,,,,,,,,,,,,,,,,,,,,,,,,,,,,,,,,,,,,,,,,,,,,,,,,,,,,,,,,,,,,,,,,,,,,,,,,,,,,,,,
0,73,73,23,1,,58c26f473977190001f54116,62b2d07f9a1407631b2ae152,2022-06-22_09h20.06.214,Colour_Asymmetry_Pilot,2022.1.3,Win32,59.85873339,62b2a6a25f2ba72662469a01,,,,,,,,,,,,,,,,,,,,,,,,,,,,,,,,,,,,,,,,,,,,,,,,,,,,,,,,,,,,,,,,,,,,,,,,,,,,,,,,,,,,,,,,,,,,,,,,,,,,,,,,,,,,,,,,,,,,,,,,,,,,,,,,,,,,,,,,,,,,,,,,,,,,,,,,,,,,,,
0,74,74,6,1,,58c26f473977190001f54116,62b2d07f9a1407631b2ae152,2022-06-22_09h20.06.214,Colour_Asymmetry_Pilot,2022.1.3,Win32,59.85873339,62b2a6a25f2ba72662469a01,,,,,,,,,,,,,,,,,,,,,,,,,,,,,,,,,,,,,,,,,,,,,,,,,,,,,,,,,,,,,,,,,,,,,,,,,,,,,,,,,,,,,,,,,,,,,,,,,,,,,,,,,,,,,,,,,,,,,,,,,,,,,,,,,,,,,,,,,,,,,,,,,,,,,,,,,,,,,,
0,75,75,88,1,,58c26f473977190001f54116,62b2d07f9a1407631b2ae152,2022-06-22_09h20.06.214,Colour_Asymmetry_Pilot,2022.1.3,Win32,59.85873339,62b2a6a25f2ba72662469a01,,,,,,,,,,,,,,,,,,,,,,,,,,,,,,,,,,,,,,,,,,,,,,,,,,,,,,,,,,,,,,,,,,,,,,,,,,,,,,,,,,,,,,,,,,,,,,,,,,,,,,,,,,,,,,,,,,,,,,,,,,,,,,,,,,,,,,,,,,,,,,,,,,,,,,,,,,,,,,
0,76,76,17,1,,58c26f473977190001f54116,62b2d07f9a1407631b2ae152,2022-06-22_09h20.06.214,Colour_Asymmetry_Pilot,2022.1.3,Win32,59.85873339,62b2a6a25f2ba72662469a01,,,,,,,,,,,,,,,,,,,,,,,,,,,,,,,,,,,,,,,,,,,,,,,,,,,,,,,,,,,,,,,,,,,,,,,,,,,,,,,,,,,,,,,,,,,,,,,,,,,,,,,,,,,,,,,,,,,,,,,,,,,,,,,,,,,,,,,,,,,,,,,,,,,,,,,,,,,,,,
0,77,77,86,1,,58c26f473977190001f54116,62b2d07f9a1407631b2ae152,2022-06-22_09h20.06.214,Colour_Asymmetry_Pilot,2022.1.3,Win32,59.85873339,62b2a6a25f2ba72662469a01,,,,,,,,,,,,,,,,,,,,,,,,,,,,,,,,,,,,,,,,,,,,,,,,,,,,,,,,,,,,,,,,,,,,,,,,,,,,,,,,,,,,,,,,,,,,,,,,,,,,,,,,,,,,,,,,,,,,,,,,,,,,,,,,,,,,,,,,,,,,,,,,,,,,,,,,,,,,,,
0,78,78,80,1,,58c26f473977190001f54116,62b2d07f9a1407631b2ae152,2022-06-22_09h20.06.214,Colour_Asymmetry_Pilot,2022.1.3,Win32,59.85873339,62b2a6a25f2ba72662469a01,,,,,,,,,,,,,,,,,,,,,,,,,,,,,,,,,,,,,,,,,,,,,,,,,,,,,,,,,,,,,,,,,,,,,,,,,,,,,,,,,,,,,,,,,,,,,,,,,,,,,,,,,,,,,,,,,,,,,,,,,,,,,,,,,,,,,,,,,,,,,,,,,,,,,,,,,,,,,,
0,79,79,3,1,,58c26f473977190001f54116,62b2d07f9a1407631b2ae152,2022-06-22_09h20.06.214,Colour_Asymmetry_Pilot,2022.1.3,Win32,59.85873339,62b2a6a25f2ba72662469a01,,,,,,,,,,,,,,,,,,,,,,,,,,,,,,,,,,,,,,,,,,,,,,,,,,,,,,,,,,,,,,,,,,,,,,,,,,,,,,,,,,,,,,,,,,,,,,,,,,,,,,,,,,,,,,,,,,,,,,,,,,,,,,,,,,,,,,,,,,,,,,,,,,,,,,,,,,,,,,
0,80,80,42,1,,58c26f473977190001f54116,62b2d07f9a1407631b2ae152,2022-06-22_09h20.06.214,Colour_Asymmetry_Pilot,2022.1.3,Win32,59.85873339,62b2a6a25f2ba72662469a01,,,,,,,,,,,,,,,,,,,,,,,,,,,,,,,,,,,,,,,,,,,,,,,,,,,,,,,,,,,,,,,,,,,,,,,,,,,,,,,,,,,,,,,,,,,,,,,,,,,,,,,,,,,,,,,,,,,,,,,,,,,,,,,,,,,,,,,,,,,,,,,,,,,,,,,,,,,,,,
0,81,81,73,1,,58c26f473977190001f54116,62b2d07f9a1407631b2ae152,2022-06-22_09h20.06.214,Colour_Asymmetry_Pilot,2022.1.3,Win32,59.85873339,62b2a6a25f2ba72662469a01,,,,,,,,,,,,,,,,,,,,,,,,,,,,,,,,,,,,,,,,,,,,,,,,,,,,,,,,,,,,,,,,,,,,,,,,,,,,,,,,,,,,,,,,,,,,,,,,,,,,,,,,,,,,,,,,,,,,,,,,,,,,,,,,,,,,,,,,,,,,,,,,,,,,,,,,,,,,,,
0,82,82,91,1,,58c26f473977190001f54116,62b2d07f9a1407631b2ae152,2022-06-22_09h20.06.214,Colour_Asymmetry_Pilot,2022.1.3,Win32,59.85873339,62b2a6a25f2ba72662469a01,,,,,,,,,,,,,,,,,,,,,,,,,,,,,,,,,,,,,,,,,,,,,,,,,,,,,,,,,,,,,,,,,,,,,,,,,,,,,,,,,,,,,,,,,,,,,,,,,,,,,,,,,,,,,,,,,,,,,,,,,,,,,,,,,,,,,,,,,,,,,,,,,,,,,,,,,,,,,,
0,83,83,43,1,,58c26f473977190001f54116,62b2d07f9a1407631b2ae152,2022-06-22_09h20.06.214,Colour_Asymmetry_Pilot,2022.1.3,Win32,59.85873339,62b2a6a25f2ba72662469a01,,,,,,,,,,,,,,,,,,,,,,,,,,,,,,,,,,,,,,,,,,,,,,,,,,,,,,,,,,,,,,,,,,,,,,,,,,,,,,,,,,,,,,,,,,,,,,,,,,,,,,,,,,,,,,,,,,,,,,,,,,,,,,,,,,,,,,,,,,,,,,,,,,,,,,,,,,,,,,
0,84,84,5,1,,58c26f473977190001f54116,62b2d07f9a1407631b2ae152,2022-06-22_09h20.06.214,Colour_Asymmetry_Pilot,2022.1.3,Win32,59.85873339,62b2a6a25f2ba72662469a01,,,,,,,,,,,,,,,,,,,,,,,,,,,,,,,,,,,,,,,,,,,,,,,,,,,,,,,,,,,,,,,,,,,,,,,,,,,,,,,,,,,,,,,,,,,,,,,,,,,,,,,,,,,,,,,,,,,,,,,,,,,,,,,,,,,,,,,,,,,,,,,,,,,,,,,,,,,,,,
0,85,85,53,1,,58c26f473977190001f54116,62b2d07f9a1407631b2ae152,2022-06-22_09h20.06.214,Colour_Asymmetry_Pilot,2022.1.3,Win32,59.85873339,62b2a6a25f2ba72662469a01,,,,,,,,,,,,,,,,,,,,,,,,,,,,,,,,,,,,,,,,,,,,,,,,,,,,,,,,,,,,,,,,,,,,,,,,,,,,,,,,,,,,,,,,,,,,,,,,,,,,,,,,,,,,,,,,,,,,,,,,,,,,,,,,,,,,,,,,,,,,,,,,,,,,,,,,,,,,,,
0,86,86,39,1,,58c26f473977190001f54116,62b2d07f9a1407631b2ae152,2022-06-22_09h20.06.214,Colour_Asymmetry_Pilot,2022.1.3,Win32,59.85873339,62b2a6a25f2ba72662469a01,,,,,,,,,,,,,,,,,,,,,,,,,,,,,,,,,,,,,,,,,,,,,,,,,,,,,,,,,,,,,,,,,,,,,,,,,,,,,,,,,,,,,,,,,,,,,,,,,,,,,,,,,,,,,,,,,,,,,,,,,,,,,,,,,,,,,,,,,,,,,,,,,,,,,,,,,,,,,,
0,87,87,41,1,,58c26f473977190001f54116,62b2d07f9a1407631b2ae152,2022-06-22_09h20.06.214,Colour_Asymmetry_Pilot,2022.1.3,Win32,59.85873339,62b2a6a25f2ba72662469a01,,,,,,,,,,,,,,,,,,,,,,,,,,,,,,,,,,,,,,,,,,,,,,,,,,,,,,,,,,,,,,,,,,,,,,,,,,,,,,,,,,,,,,,,,,,,,,,,,,,,,,,,,,,,,,,,,,,,,,,,,,,,,,,,,,,,,,,,,,,,,,,,,,,,,,,,,,,,,,
0,88,88,29,1,,58c26f473977190001f54116,62b2d07f9a1407631b2ae152,2022-06-22_09h20.06.214,Colour_Asymmetry_Pilot,2022.1.3,Win32,59.85873339,62b2a6a25f2ba72662469a01,,,,,,,,,,,,,,,,,,,,,,,,,,,,,,,,,,,,,,,,,,,,,,,,,,,,,,,,,,,,,,,,,,,,,,,,,,,,,,,,,,,,,,,,,,,,,,,,,,,,,,,,,,,,,,,,,,,,,,,,,,,,,,,,,,,,,,,,,,,,,,,,,,,,,,,,,,,,,,
0,89,89,49,1,,58c26f473977190001f54116,62b2d07f9a1407631b2ae152,2022-06-22_09h20.06.214,Colour_Asymmetry_Pilot,2022.1.3,Win32,59.85873339,62b2a6a25f2ba72662469a01,,,,,,,,,,,,,,,,,,,,,,,,,,,,,,,,,,,,,,,,,,,,,,,,,,,,,,,,,,,,,,,,,,,,,,,,,,,,,,,,,,,,,,,,,,,,,,,,,,,,,,,,,,,,,,,,,,,,,,,,,,,,,,,,,,,,,,,,,,,,,,,,,,,,,,,,,,,,,,
0,90,90,77,1,,58c26f473977190001f54116,62b2d07f9a1407631b2ae152,2022-06-22_09h20.06.214,Colour_Asymmetry_Pilot,2022.1.3,Win32,59.85873339,62b2a6a25f2ba72662469a01,,,,,,,,,,,,,,,,,,,,,,,,,,,,,,,,,,,,,,,,,,,,,,,,,,,,,,,,,,,,,,,,,,,,,,,,,,,,,,,,,,,,,,,,,,,,,,,,,,,,,,,,,,,,,,,,,,,,,,,,,,,,,,,,,,,,,,,,,,,,,,,,,,,,,,,,,,,,,,
0,91,91,1,1,,58c26f473977190001f54116,62b2d07f9a1407631b2ae152,2022-06-22_09h20.06.214,Colour_Asymmetry_Pilot,2022.1.3,Win32,59.85873339,62b2a6a25f2ba72662469a01,,,,,,,,,,,,,,,,,,,,,,,,,,,,,,,,,,,,,,,,,,,,,,,,,,,,,,,,,,,,,,,,,,,,,,,,,,,,,,,,,,,,,,,,,,,,,,,,,,,,,,,,,,,,,,,,,,,,,,,,,,,,,,,,,,,,,,,,,,,,,,,,,,,,,,,,,,,,,,
0,92,92,85,1,,58c26f473977190001f54116,62b2d07f9a1407631b2ae152,2022-06-22_09h20.06.214,Colour_Asymmetry_Pilot,2022.1.3,Win32,59.85873339,62b2a6a25f2ba72662469a01,,,,,,,,,,,,,,,,,,,,,,,,,,,,,,,,,,,,,,,,,,,,,,,,,,,,,,,,,,,,,,,,,,,,,,,,,,,,,,,,,,,,,,,,,,,,,,,,,,,,,,,,,,,,,,,,,,,,,,,,,,,,,,,,,,,,,,,,,,,,,,,,,,,,,,,,,,,,,,
,,,,,,58c26f473977190001f54116,62b2d07f9a1407631b2ae152,2022-06-22_09h20.06.214,Colour_Asymmetry_Pilot,2022.1.3,Win32,59.85873339,62b2a6a25f2ba72662469a01,0,0,0,33,1,onethree,,,,,,,,,,,,,,,,,,,,,,,,,,,,,,,,,,,,,,,,,,,,,,,,,,,,,,,,,,,,,,,,,,,,,,,,,,,,,,,,,,,,,,,,,,,,,,,,,,,,,,,,,,,,,,,,,,,,,,,,,,,,,,,,,,,,,,,,,,,,,,,,,,,,,,,,
,,,,,,58c26f473977190001f54116,62b2d07f9a1407631b2ae152,2022-06-22_09h20.06.214,Colour_Asymmetry_Pilot,2022.1.3,Win32,59.85873339,62b2a6a25f2ba72662469a01,0,1,1,146,1,twoone,,,,,,,,,,,,,,,,,,,,,,,,,,,,,,,,,,,,,,,,,,,,,,,,,,,,,,,,,,,,,,,,,,,,,,,,,,,,,,,,,,,,,,,,,,,,,,,,,,,,,,,,,,,,,,,,,,,,,,,,,,,,,,,,,,,,,,,,,,,,,,,,,,,,,,,,
,,,,,,58c26f473977190001f54116,62b2d07f9a1407631b2ae152,2022-06-22_09h20.06.214,Colour_Asymmetry_Pilot,2022.1.3,Win32,59.85873339,62b2a6a25f2ba72662469a01,0,2,2,123,1,twofour,,,,,,,,,,,,,,,,,,,,,,,,,,,,,,,,,,,,,,,,,,,,,,,,,,,,,,,,,,,,,,,,,,,,,,,,,,,,,,,,,,,,,,,,,,,,,,,,,,,,,,,,,,,,,,,,,,,,,,,,,,,,,,,,,,,,,,,,,,,,,,,,,,,,,,,,
,,,,,,58c26f473977190001f54116,62b2d07f9a1407631b2ae152,2022-06-22_09h20.06.214,Colour_Asymmetry_Pilot,2022.1.3,Win32,59.85873339,62b2a6a25f2ba72662469a01,0,3,3,79,1,fourthree,,,,,,,,,,,,,,,,,,,,,,,,,,,,,,,,,,,,,,,,,,,,,,,,,,,,,,,,,,,,,,,,,,,,,,,,,,,,,,,,,,,,,,,,,,,,,,,,,,,,,,,,,,,,,,,,,,,,,,,,,,,,,,,,,,,,,,,,,,,,,,,,,,,,,,,,
,,,,,,58c26f473977190001f54116,62b2d07f9a1407631b2ae152,2022-06-22_09h20.06.214,Colour_Asymmetry_Pilot,2022.1.3,Win32,59.85873339,62b2a6a25f2ba72662469a01,0,4,4,57,1,onethree,,,,,,,,,,,,,,,,,,,,,,,,,,,,,,,,,,,,,,,,,,,,,,,,,,,,,,,,,,,,,,,,,,,,,,,,,,,,,,,,,,,,,,,,,,,,,,,,,,,,,,,,,,,,,,,,,,,,,,,,,,,,,,,,,,,,,,,,,,,,,,,,,,,,,,,,
,,,,,,58c26f473977190001f54116,62b2d07f9a1407631b2ae152,2022-06-22_09h20.06.214,Colour_Asymmetry_Pilot,2022.1.3,Win32,59.85873339,62b2a6a25f2ba72662469a01,0,5,5,132,1,threeone,,,,,,,,,,,,,,,,,,,,,,,,,,,,,,,,,,,,,,,,,,,,,,,,,,,,,,,,,,,,,,,,,,,,,,,,,,,,,,,,,,,,,,,,,,,,,,,,,,,,,,,,,,,,,,,,,,,,,,,,,,,,,,,,,,,,,,,,,,,,,,,,,,,,,,,,
,,,,,,58c26f473977190001f54116,62b2d07f9a1407631b2ae152,2022-06-22_09h20.06.214,Colour_Asymmetry_Pilot,2022.1.3,Win32,59.85873339,62b2a6a25f2ba72662469a01,0,6,6,122,1,twoone,,,,,,,,,,,,,,,,,,,,,,,,,,,,,,,,,,,,,,,,,,,,,,,,,,,,,,,,,,,,,,,,,,,,,,,,,,,,,,,,,,,,,,,,,,,,,,,,,,,,,,,,,,,,,,,,,,,,,,,,,,,,,,,,,,,,,,,,,,,,,,,,,,,,,,,,
,,,,,,58c26f473977190001f54116,62b2d07f9a1407631b2ae152,2022-06-22_09h20.06.214,Colour_Asymmetry_Pilot,2022.1.3,Win32,59.85873339,62b2a6a25f2ba72662469a01,0,7,7,149,1,threefour,,,,,,,,,,,,,,,,,,,,,,,,,,,,,,,,,,,,,,,,,,,,,,,,,,,,,,,,,,,,,,,,,,,,,,,,,,,,,,,,,,,,,,,,,,,,,,,,,,,,,,,,,,,,,,,,,,,,,,,,,,,,,,,,,,,,,,,,,,,,,,,,,,,,,,,,
,,,,,,58c26f473977190001f54116,62b2d07f9a1407631b2ae152,2022-06-22_09h20.06.214,Colour_Asymmetry_Pilot,2022.1.3,Win32,59.85873339,62b2a6a25f2ba72662469a01,0,8,8,60,1,threeone,,,,,,,,,,,,,,,,,,,,,,,,,,,,,,,,,,,,,,,,,,,,,,,,,,,,,,,,,,,,,,,,,,,,,,,,,,,,,,,,,,,,,,,,,,,,,,,,,,,,,,,,,,,,,,,,,,,,,,,,,,,,,,,,,,,,,,,,,,,,,,,,,,,,,,,,
,,,,,,58c26f473977190001f54116,62b2d07f9a1407631b2ae152,2022-06-22_09h20.06.214,Colour_Asymmetry_Pilot,2022.1.3,Win32,59.85873339,62b2a6a25f2ba72662469a01,0,9,9,96,1,onetwo,,,,,,,,,,,,,,,,,,,,,,,,,,,,,,,,,,,,,,,,,,,,,,,,,,,,,,,,,,,,,,,,,,,,,,,,,,,,,,,,,,,,,,,,,,,,,,,,,,,,,,,,,,,,,,,,,,,,,,,,,,,,,,,,,,,,,,,,,,,,,,,,,,,,,,,,
,,,,,,58c26f473977190001f54116,62b2d07f9a1407631b2ae152,2022-06-22_09h20.06.214,Colour_Asymmetry_Pilot,2022.1.3,Win32,59.85873339,62b2a6a25f2ba72662469a01,0,10,10,161,1,onethree,,,,,,,,,,,,,,,,,,,,,,,,,,,,,,,,,,,,,,,,,,,,,,,,,,,,,,,,,,,,,,,,,,,,,,,,,,,,,,,,,,,,,,,,,,,,,,,,,,,,,,,,,,,,,,,,,,,,,,,,,,,,,,,,,,,,,,,,,,,,,,,,,,,,,,,,
,,,,,,58c26f473977190001f54116,62b2d07f9a1407631b2ae152,2022-06-22_09h20.06.214,Colour_Asymmetry_Pilot,2022.1.3,Win32,59.85873339,62b2a6a25f2ba72662469a01,0,11,11,120,1,onetwo,,,,,,,,,,,,,,,,,,,,,,,,,,,,,,,,,,,,,,,,,,,,,,,,,,,,,,,,,,,,,,,,,,,,,,,,,,,,,,,,,,,,,,,,,,,,,,,,,,,,,,,,,,,,,,,,,,,,,,,,,,,,,,,,,,,,,,,,,,,,,,,,,,,,,,,,
,,,,,,58c26f473977190001f54116,62b2d07f9a1407631b2ae152,2022-06-22_09h20.06.214,Colour_Asymmetry_Pilot,2022.1.3,Win32,59.85873339,62b2a6a25f2ba72662469a01,0,12,12,121,1,onethree,,,,,,,,,,,,,,,,,,,,,,,,,,,,,,,,,,,,,,,,,,,,,,,,,,,,,,,,,,,,,,,,,,,,,,,,,,,,,,,,,,,,,,,,,,,,,,,,,,,,,,,,,,,,,,,,,,,,,,,,,,,,,,,,,,,,,,,,,,,,,,,,,,,,,,,,
,,,,,,58c26f473977190001f54116,62b2d07f9a1407631b2ae152,2022-06-22_09h20.06.214,Colour_Asymmetry_Pilot,2022.1.3,Win32,59.85873339,62b2a6a25f2ba72662469a01,0,13,13,49,1,onethree,,,,,,,,,,,,,,,,,,,,,,,,,,,,,,,,,,,,,,,,,,,,,,,,,,,,,,,,,,,,,,,,,,,,,,,,,,,,,,,,,,,,,,,,,,,,,,,,,,,,,,,,,,,,,,,,,,,,,,,,,,,,,,,,,,,,,,,,,,,,,,,,,,,,,,,,
,,,,,,58c26f473977190001f54116,62b2d07f9a1407631b2ae152,2022-06-22_09h20.06.214,Colour_Asymmetry_Pilot,2022.1.3,Win32,59.85873339,62b2a6a25f2ba72662469a01,0,14,14,66,1,twoone,,,,,,,,,,,,,,,,,,,,,,,,,,,,,,,,,,,,,,,,,,,,,,,,,,,,,,,,,,,,,,,,,,,,,,,,,,,,,,,,,,,,,,,,,,,,,,,,,,,,,,,,,,,,,,,,,,,,,,,,,,,,,,,,,,,,,,,,,,,,,,,,,,,,,,,,
,,,,,,58c26f473977190001f54116,62b2d07f9a1407631b2ae152,2022-06-22_09h20.06.214,Colour_Asymmetry_Pilot,2022.1.3,Win32,59.85873339,62b2a6a25f2ba72662469a01,0,15,15,103,1,fourthree,,,,,,,,,,,,,,,,,,,,,,,,,,,,,,,,,,,,,,,,,,,,,,,,,,,,,,,,,,,,,,,,,,,,,,,,,,,,,,,,,,,,,,,,,,,,,,,,,,,,,,,,,,,,,,,,,,,,,,,,,,,,,,,,,,,,,,,,,,,,,,,,,,,,,,,,
,,,,,,58c26f473977190001f54116,62b2d07f9a1407631b2ae152,2022-06-22_09h20.06.214,Colour_Asymmetry_Pilot,2022.1.3,Win32,59.85873339,62b2a6a25f2ba72662469a01,0,16,16,83,1,twofour,,,,,,,,,,,,,,,,,,,,,,,,,,,,,,,,,,,,,,,,,,,,,,,,,,,,,,,,,,,,,,,,,,,,,,,,,,,,,,,,,,,,,,,,,,,,,,,,,,,,,,,,,,,,,,,,,,,,,,,,,,,,,,,,,,,,,,,,,,,,,,,,,,,,,,,,
,,,,,,58c26f473977190001f54116,62b2d07f9a1407631b2ae152,2022-06-22_09h20.06.214,Colour_Asymmetry_Pilot,2022.1.3,Win32,59.85873339,62b2a6a25f2ba72662469a01,0,17,17,7,1,fourthree,,,,,,,,,,,,,,,,,,,,,,,,,,,,,,,,,,,,,,,,,,,,,,,,,,,,,,,,,,,,,,,,,,,,,,,,,,,,,,,,,,,,,,,,,,,,,,,,,,,,,,,,,,,,,,,,,,,,,,,,,,,,,,,,,,,,,,,,,,,,,,,,,,,,,,,,
,,,,,,58c26f473977190001f54116,62b2d07f9a1407631b2ae152,2022-06-22_09h20.06.214,Colour_Asymmetry_Pilot,2022.1.3,Win32,59.85873339,62b2a6a25f2ba72662469a01,0,18,18,97,1,onethree,,,,,,,,,,,,,,,,,,,,,,,,,,,,,,,,,,,,,,,,,,,,,,,,,,,,,,,,,,,,,,,,,,,,,,,,,,,,,,,,,,,,,,,,,,,,,,,,,,,,,,,,,,,,,,,,,,,,,,,,,,,,,,,,,,,,,,,,,,,,,,,,,,,,,,,,
,,,,,,58c26f473977190001f54116,62b2d07f9a1407631b2ae152,2022-06-22_09h20.06.214,Colour_Asymmetry_Pilot,2022.1.3,Win32,59.85873339,62b2a6a25f2ba72662469a01,0,19,19,8,1,onetwo,,,,,,,,,,,,,,,,,,,,,,,,,,,,,,,,,,,,,,,,,,,,,,,,,,,,,,,,,,,,,,,,,,,,,,,,,,,,,,,,,,,,,,,,,,,,,,,,,,,,,,,,,,,,,,,,,,,,,,,,,,,,,,,,,,,,,,,,,,,,,,,,,,,,,,,,
,,,,,,58c26f473977190001f54116,62b2d07f9a1407631b2ae152,2022-06-22_09h20.06.214,Colour_Asymmetry_Pilot,2022.1.3,Win32,59.85873339,62b2a6a25f2ba72662469a01,0,20,20,93,1,threefour,,,,,,,,,,,,,,,,,,,,,,,,,,,,,,,,,,,,,,,,,,,,,,,,,,,,,,,,,,,,,,,,,,,,,,,,,,,,,,,,,,,,,,,,,,,,,,,,,,,,,,,,,,,,,,,,,,,,,,,,,,,,,,,,,,,,,,,,,,,,,,,,,,,,,,,,
,,,,,,58c26f473977190001f54116,62b2d07f9a1407631b2ae152,2022-06-22_09h20.06.214,Colour_Asymmetry_Pilot,2022.1.3,Win32,59.85873339,62b2a6a25f2ba72662469a01,0,21,21,147,1,twofour,,,,,,,,,,,,,,,,,,,,,,,,,,,,,,,,,,,,,,,,,,,,,,,,,,,,,,,,,,,,,,,,,,,,,,,,,,,,,,,,,,,,,,,,,,,,,,,,,,,,,,,,,,,,,,,,,,,,,,,,,,,,,,,,,,,,,,,,,,,,,,,,,,,,,,,,
,,,,,,58c26f473977190001f54116,62b2d07f9a1407631b2ae152,2022-06-22_09h20.06.214,Colour_Asymmetry_Pilot,2022.1.3,Win32,59.85873339,62b2a6a25f2ba72662469a01,0,22,22,127,1,fourthree,,,,,,,,,,,,,,,,,,,,,,,,,,,,,,,,,,,,,,,,,,,,,,,,,,,,,,,,,,,,,,,,,,,,,,,,,,,,,,,,,,,,,,,,,,,,,,,,,,,,,,,,,,,,,,,,,,,,,,,,,,,,,,,,,,,,,,,,,,,,,,,,,,,,,,,,
,,,,,,58c26f473977190001f54116,62b2d07f9a1407631b2ae152,2022-06-22_09h20.06.214,Colour_Asymmetry_Pilot,2022.1.3,Win32,59.85873339,62b2a6a25f2ba72662469a01,0,23,23,13,1,threefour,,,,,,,,,,,,,,,,,,,,,,,,,,,,,,,,,,,,,,,,,,,,,,,,,,,,,,,,,,,,,,,,,,,,,,,,,,,,,,,,,,,,,,,,,,,,,,,,,,,,,,,,,,,,,,,,,,,,,,,,,,,,,,,,,,,,,,,,,,,,,,,,,,,,,,,,
,,,,,,58c26f473977190001f54116,62b2d07f9a1407631b2ae152,2022-06-22_09h20.06.214,Colour_Asymmetry_Pilot,2022.1.3,Win32,59.85873339,62b2a6a25f2ba72662469a01,0,24,24,29,1,threefour,,,,,,,,,,,,,,,,,,,,,,,,,,,,,,,,,,,,,,,,,,,,,,,,,,,,,,,,,,,,,,,,,,,,,,,,,,,,,,,,,,,,,,,,,,,,,,,,,,,,,,,,,,,,,,,,,,,,,,,,,,,,,,,,,,,,,,,,,,,,,,,,,,,,,,,,
,,,,,,58c26f473977190001f54116,62b2d07f9a1407631b2ae152,2022-06-22_09h20.06.214,Colour_Asymmetry_Pilot,2022.1.3,Win32,59.85873339,62b2a6a25f2ba72662469a01,0,25,25,48,1,onetwo,,,,,,,,,,,,,,,,,,,,,,,,,,,,,,,,,,,,,,,,,,,,,,,,,,,,,,,,,,,,,,,,,,,,,,,,,,,,,,,,,,,,,,,,,,,,,,,,,,,,,,,,,,,,,,,,,,,,,,,,,,,,,,,,,,,,,,,,,,,,,,,,,,,,,,,,
,,,,,,58c26f473977190001f54116,62b2d07f9a1407631b2ae152,2022-06-22_09h20.06.214,Colour_Asymmetry_Pilot,2022.1.3,Win32,59.85873339,62b2a6a25f2ba72662469a01,0,26,26,151,1,fourthree,,,,,,,,,,,,,,,,,,,,,,,,,,,,,,,,,,,,,,,,,,,,,,,,,,,,,,,,,,,,,,,,,,,,,,,,,,,,,,,,,,,,,,,,,,,,,,,,,,,,,,,,,,,,,,,,,,,,,,,,,,,,,,,,,,,,,,,,,,,,,,,,,,,,,,,,
,,,,,,58c26f473977190001f54116,62b2d07f9a1407631b2ae152,2022-06-22_09h20.06.214,Colour_Asymmetry_Pilot,2022.1.3,Win32,59.85873339,62b2a6a25f2ba72662469a01,0,27,27,74,1,twoone,,,,,,,,,,,,,,,,,,,,,,,,,,,,,,,,,,,,,,,,,,,,,,,,,,,,,,,,,,,,,,,,,,,,,,,,,,,,,,,,,,,,,,,,,,,,,,,,,,,,,,,,,,,,,,,,,,,,,,,,,,,,,,,,,,,,,,,,,,,,,,,,,,,,,,,,
,,,,,,58c26f473977190001f54116,62b2d07f9a1407631b2ae152,2022-06-22_09h20.06.214,Colour_Asymmetry_Pilot,2022.1.3,Win32,59.85873339,62b2a6a25f2ba72662469a01,0,28,28,105,1,onethree,,,,,,,,,,,,,,,,,,,,,,,,,,,,,,,,,,,,,,,,,,,,,,,,,,,,,,,,,,,,,,,,,,,,,,,,,,,,,,,,,,,,,,,,,,,,,,,,,,,,,,,,,,,,,,,,,,,,,,,,,,,,,,,,,,,,,,,,,,,,,,,,,,,,,,,,
,,,,,,58c26f473977190001f54116,62b2d07f9a1407631b2ae152,2022-06-22_09h20.06.214,Colour_Asymmetry_Pilot,2022.1.3,Win32,59.85873339,62b2a6a25f2ba72662469a01,0,29,29,144,1,onetwo,,,,,,,,,,,,,,,,,,,,,,,,,,,,,,,,,,,,,,,,,,,,,,,,,,,,,,,,,,,,,,,,,,,,,,,,,,,,,,,,,,,,,,,,,,,,,,,,,,,,,,,,,,,,,,,,,,,,,,,,,,,,,,,,,,,,,,,,,,,,,,,,,,,,,,,,
,,,,,,58c26f473977190001f54116,62b2d07f9a1407631b2ae152,2022-06-22_09h20.06.214,Colour_Asymmetry_Pilot,2022.1.3,Win32,59.85873339,62b2a6a25f2ba72662469a01,0,30,30,154,1,twoone,,,,,,,,,,,,,,,,,,,,,,,,,,,,,,,,,,,,,,,,,,,,,,,,,,,,,,,,,,,,,,,,,,,,,,,,,,,,,,,,,,,,,,,,,,,,,,,,,,,,,,,,,,,,,,,,,,,,,,,,,,,,,,,,,,,,,,,,,,,,,,,,,,,,,,,,
,,,,,,58c26f473977190001f54116,62b2d07f9a1407631b2ae152,2022-06-22_09h20.06.214,Colour_Asymmetry_Pilot,2022.1.3,Win32,59.85873339,62b2a6a25f2ba72662469a01,0,31,31,19,1,twofour,,,,,,,,,,,,,,,,,,,,,,,,,,,,,,,,,,,,,,,,,,,,,,,,,,,,,,,,,,,,,,,,,,,,,,,,,,,,,,,,,,,,,,,,,,,,,,,,,,,,,,,,,,,,,,,,,,,,,,,,,,,,,,,,,,,,,,,,,,,,,,,,,,,,,,,,
,,,,,,58c26f473977190001f54116,62b2d07f9a1407631b2ae152,2022-06-22_09h20.06.214,Colour_Asymmetry_Pilot,2022.1.3,Win32,59.85873339,62b2a6a25f2ba72662469a01,0,32,32,76,1,threeone,,,,,,,,,,,,,,,,,,,,,,,,,,,,,,,,,,,,,,,,,,,,,,,,,,,,,,,,,,,,,,,,,,,,,,,,,,,,,,,,,,,,,,,,,,,,,,,,,,,,,,,,,,,,,,,,,,,,,,,,,,,,,,,,,,,,,,,,,,,,,,,,,,,,,,,,
,,,,,,58c26f473977190001f54116,62b2d07f9a1407631b2ae152,2022-06-22_09h20.06.214,Colour_Asymmetry_Pilot,2022.1.3,Win32,59.85873339,62b2a6a25f2ba72662469a01,0,33,33,112,1,onetwo,,,,,,,,,,,,,,,,,,,,,,,,,,,,,,,,,,,,,,,,,,,,,,,,,,,,,,,,,,,,,,,,,,,,,,,,,,,,,,,,,,,,,,,,,,,,,,,,,,,,,,,,,,,,,,,,,,,,,,,,,,,,,,,,,,,,,,,,,,,,,,,,,,,,,,,,
,,,,,,58c26f473977190001f54116,62b2d07f9a1407631b2ae152,2022-06-22_09h20.06.214,Colour_Asymmetry_Pilot,2022.1.3,Win32,59.85873339,62b2a6a25f2ba72662469a01,0,34,34,26,1,twoone,,,,,,,,,,,,,,,,,,,,,,,,,,,,,,,,,,,,,,,,,,,,,,,,,,,,,,,,,,,,,,,,,,,,,,,,,,,,,,,,,,,,,,,,,,,,,,,,,,,,,,,,,,,,,,,,,,,,,,,,,,,,,,,,,,,,,,,,,,,,,,,,,,,,,,,,
,,,,,,58c26f473977190001f54116,62b2d07f9a1407631b2ae152,2022-06-22_09h20.06.214,Colour_Asymmetry_Pilot,2022.1.3,Win32,59.85873339,62b2a6a25f2ba72662469a01,0,35,35,150,1,fourtwo,,,,,,,,,,,,,,,,,,,,,,,,,,,,,,,,,,,,,,,,,,,,,,,,,,,,,,,,,,,,,,,,,,,,,,,,,,,,,,,,,,,,,,,,,,,,,,,,,,,,,,,,,,,,,,,,,,,,,,,,,,,,,,,,,,,,,,,,,,,,,,,,,,,,,,,,
,,,,,,58c26f473977190001f54116,62b2d07f9a1407631b2ae152,2022-06-22_09h20.06.214,Colour_Asymmetry_Pilot,2022.1.3,Win32,59.85873339,62b2a6a25f2ba72662469a01,0,36,36,99,1,twofour,,,,,,,,,,,,,,,,,,,,,,,,,,,,,,,,,,,,,,,,,,,,,,,,,,,,,,,,,,,,,,,,,,,,,,,,,,,,,,,,,,,,,,,,,,,,,,,,,,,,,,,,,,,,,,,,,,,,,,,,,,,,,,,,,,,,,,,,,,,,,,,,,,,,,,,,
,,,,,,58c26f473977190001f54116,62b2d07f9a1407631b2ae152,2022-06-22_09h20.06.214,Colour_Asymmetry_Pilot,2022.1.3,Win32,59.85873339,62b2a6a25f2ba72662469a01,0,37,37,38,1,fourtwo,,,,,,,,,,,,,,,,,,,,,,,,,,,,,,,,,,,,,,,,,,,,,,,,,,,,,,,,,,,,,,,,,,,,,,,,,,,,,,,,,,,,,,,,,,,,,,,,,,,,,,,,,,,,,,,,,,,,,,,,,,,,,,,,,,,,,,,,,,,,,,,,,,,,,,,,
,,,,,,58c26f473977190001f54116,62b2d07f9a1407631b2ae152,2022-06-22_09h20.06.214,Colour_Asymmetry_Pilot,2022.1.3,Win32,59.85873339,62b2a6a25f2ba72662469a01,0,38,38,62,1,fourtwo,,,,,,,,,,,,,,,,,,,,,,,,,,,,,,,,,,,,,,,,,,,,,,,,,,,,,,,,,,,,,,,,,,,,,,,,,,,,,,,,,,,,,,,,,,,,,,,,,,,,,,,,,,,,,,,,,,,,,,,,,,,,,,,,,,,,,,,,,,,,,,,,,,,,,,,,
,,,,,,58c26f473977190001f54116,62b2d07f9a1407631b2ae152,2022-06-22_09h20.06.214,Colour_Asymmetry_Pilot,2022.1.3,Win32,59.85873339,62b2a6a25f2ba72662469a01,0,39,39,58,1,twoone,,,,,,,,,,,,,,,,,,,,,,,,,,,,,,,,,,,,,,,,,,,,,,,,,,,,,,,,,,,,,,,,,,,,,,,,,,,,,,,,,,,,,,,,,,,,,,,,,,,,,,,,,,,,,,,,,,,,,,,,,,,,,,,,,,,,,,,,,,,,,,,,,,,,,,,,
,,,,,,58c26f473977190001f54116,62b2d07f9a1407631b2ae152,2022-06-22_09h20.06.214,Colour_Asymmetry_Pilot,2022.1.3,Win32,59.85873339,62b2a6a25f2ba72662469a01,0,40,40,131,1,twofour,,,,,,,,,,,,,,,,,,,,,,,,,,,,,,,,,,,,,,,,,,,,,,,,,,,,,,,,,,,,,,,,,,,,,,,,,,,,,,,,,,,,,,,,,,,,,,,,,,,,,,,,,,,,,,,,,,,,,,,,,,,,,,,,,,,,,,,,,,,,,,,,,,,,,,,,
,,,,,,58c26f473977190001f54116,62b2d07f9a1407631b2ae152,2022-06-22_09h20.06.214,Colour_Asymmetry_Pilot,2022.1.3,Win32,59.85873339,62b2a6a25f2ba72662469a01,0,41,41,36,1,threeone,,,,,,,,,,,,,,,,,,,,,,,,,,,,,,,,,,,,,,,,,,,,,,,,,,,,,,,,,,,,,,,,,,,,,,,,,,,,,,,,,,,,,,,,,,,,,,,,,,,,,,,,,,,,,,,,,,,,,,,,,,,,,,,,,,,,,,,,,,,,,,,,,,,,,,,,
,,,,,,58c26f473977190001f54116,62b2d07f9a1407631b2ae152,2022-06-22_09h20.06.214,Colour_Asymmetry_Pilot,2022.1.3,Win32,59.85873339,62b2a6a25f2ba72662469a01,0,42,42,63,1,fourthree,,,,,,,,,,,,,,,,,,,,,,,,,,,,,,,,,,,,,,,,,,,,,,,,,,,,,,,,,,,,,,,,,,,,,,,,,,,,,,,,,,,,,,,,,,,,,,,,,,,,,,,,,,,,,,,,,,,,,,,,,,,,,,,,,,,,,,,,,,,,,,,,,,,,,,,,
,,,,,,58c26f473977190001f54116,62b2d07f9a1407631b2ae152,2022-06-22_09h20.06.214,Colour_Asymmetry_Pilot,2022.1.3,Win32,59.85873339,62b2a6a25f2ba72662469a01,0,43,43,148,1,threeone,,,,,,,,,,,,,,,,,,,,,,,,,,,,,,,,,,,,,,,,,,,,,,,,,,,,,,,,,,,,,,,,,,,,,,,,,,,,,,,,,,,,,,,,,,,,,,,,,,,,,,,,,,,,,,,,,,,,,,,,,,,,,,,,,,,,,,,,,,,,,,,,,,,,,,,,
,,,,,,58c26f473977190001f54116,62b2d07f9a1407631b2ae152,2022-06-22_09h20.06.214,Colour_Asymmetry_Pilot,2022.1.3,Win32,59.85873339,62b2a6a25f2ba72662469a01,0,44,44,116,1,threeone,,,,,,,,,,,,,,,,,,,,,,,,,,,,,,,,,,,,,,,,,,,,,,,,,,,,,,,,,,,,,,,,,,,,,,,,,,,,,,,,,,,,,,,,,,,,,,,,,,,,,,,,,,,,,,,,,,,,,,,,,,,,,,,,,,,,,,,,,,,,,,,,,,,,,,,,
,,,,,,58c26f473977190001f54116,62b2d07f9a1407631b2ae152,2022-06-22_09h20.06.214,Colour_Asymmetry_Pilot,2022.1.3,Win32,59.85873339,62b2a6a25f2ba72662469a01,0,45,45,145,1,onethree,,,,,,,,,,,,,,,,,,,,,,,,,,,,,,,,,,,,,,,,,,,,,,,,,,,,,,,,,,,,,,,,,,,,,,,,,,,,,,,,,,,,,,,,,,,,,,,,,,,,,,,,,,,,,,,,,,,,,,,,,,,,,,,,,,,,,,,,,,,,,,,,,,,,,,,,
,,,,,,58c26f473977190001f54116,62b2d07f9a1407631b2ae152,2022-06-22_09h20.06.214,Colour_Asymmetry_Pilot,2022.1.3,Win32,59.85873339,62b2a6a25f2ba72662469a01,0,46,46,73,1,onethree,,,,,,,,,,,,,,,,,,,,,,,,,,,,,,,,,,,,,,,,,,,,,,,,,,,,,,,,,,,,,,,,,,,,,,,,,,,,,,,,,,,,,,,,,,,,,,,,,,,,,,,,,,,,,,,,,,,,,,,,,,,,,,,,,,,,,,,,,,,,,,,,,,,,,,,,
,,,,,,58c26f473977190001f54116,62b2d07f9a1407631b2ae152,2022-06-22_09h20.06.214,Colour_Asymmetry_Pilot,2022.1.3,Win32,59.85873339,62b2a6a25f2ba72662469a01,0,47,47,92,1,threeone,,,,,,,,,,,,,,,,,,,,,,,,,,,,,,,,,,,,,,,,,,,,,,,,,,,,,,,,,,,,,,,,,,,,,,,,,,,,,,,,,,,,,,,,,,,,,,,,,,,,,,,,,,,,,,,,,,,,,,,,,,,,,,,,,,,,,,,,,,,,,,,,,,,,,,,,
,,,,,,58c26f473977190001f54116,62b2d07f9a1407631b2ae152,2022-06-22_09h20.06.214,Colour_Asymmetry_Pilot,2022.1.3,Win32,59.85873339,62b2a6a25f2ba72662469a01,0,48,48,2,1,twoone,,,,,,,,,,,,,,,,,,,,,,,,,,,,,,,,,,,,,,,,,,,,,,,,,,,,,,,,,,,,,,,,,,,,,,,,,,,,,,,,,,,,,,,,,,,,,,,,,,,,,,,,,,,,,,,,,,,,,,,,,,,,,,,,,,,,,,,,,,,,,,,,,,,,,,,,
,,,,,,58c26f473977190001f54116,62b2d07f9a1407631b2ae152,2022-06-22_09h20.06.214,Colour_Asymmetry_Pilot,2022.1.3,Win32,59.85873339,62b2a6a25f2ba72662469a01,0,49,49,110,1,fourtwo,,,,,,,,,,,,,,,,,,,,,,,,,,,,,,,,,,,,,,,,,,,,,,,,,,,,,,,,,,,,,,,,,,,,,,,,,,,,,,,,,,,,,,,,,,,,,,,,,,,,,,,,,,,,,,,,,,,,,,,,,,,,,,,,,,,,,,,,,,,,,,,,,,,,,,,,
,,,,,,58c26f473977190001f54116,62b2d07f9a1407631b2ae152,2022-06-22_09h20.06.214,Colour_Asymmetry_Pilot,2022.1.3,Win32,59.85873339,62b2a6a25f2ba72662469a01,0,50,50,157,1,threefour,,,,,,,,,,,,,,,,,,,,,,,,,,,,,,,,,,,,,,,,,,,,,,,,,,,,,,,,,,,,,,,,,,,,,,,,,,,,,,,,,,,,,,,,,,,,,,,,,,,,,,,,,,,,,,,,,,,,,,,,,,,,,,,,,,,,,,,,,,,,,,,,,,,,,,,,
,,,,,,58c26f473977190001f54116,62b2d07f9a1407631b2ae152,2022-06-22_09h20.06.214,Colour_Asymmetry_Pilot,2022.1.3,Win32,59.85873339,62b2a6a25f2ba72662469a01,0,51,51,158,1,fourtwo,,,,,,,,,,,,,,,,,,,,,,,,,,,,,,,,,,,,,,,,,,,,,,,,,,,,,,,,,,,,,,,,,,,,,,,,,,,,,,,,,,,,,,,,,,,,,,,,,,,,,,,,,,,,,,,,,,,,,,,,,,,,,,,,,,,,,,,,,,,,,,,,,,,,,,,,
,,,,,,58c26f473977190001f54116,62b2d07f9a1407631b2ae152,2022-06-22_09h20.06.214,Colour_Asymmetry_Pilot,2022.1.3,Win32,59.85873339,62b2a6a25f2ba72662469a01,0,52,52,17,1,onethree,,,,,,,,,,,,,,,,,,,,,,,,,,,,,,,,,,,,,,,,,,,,,,,,,,,,,,,,,,,,,,,,,,,,,,,,,,,,,,,,,,,,,,,,,,,,,,,,,,,,,,,,,,,,,,,,,,,,,,,,,,,,,,,,,,,,,,,,,,,,,,,,,,,,,,,,
,,,,,,58c26f473977190001f54116,62b2d07f9a1407631b2ae152,2022-06-22_09h20.06.214,Colour_Asymmetry_Pilot,2022.1.3,Win32,59.85873339,62b2a6a25f2ba72662469a01,0,53,53,59,1,twofour,,,,,,,,,,,,,,,,,,,,,,,,,,,,,,,,,,,,,,,,,,,,,,,,,,,,,,,,,,,,,,,,,,,,,,,,,,,,,,,,,,,,,,,,,,,,,,,,,,,,,,,,,,,,,,,,,,,,,,,,,,,,,,,,,,,,,,,,,,,,,,,,,,,,,,,,
,,,,,,58c26f473977190001f54116,62b2d07f9a1407631b2ae152,2022-06-22_09h20.06.214,Colour_Asymmetry_Pilot,2022.1.3,Win32,59.85873339,62b2a6a25f2ba72662469a01,0,54,54,81,1,onethree,,,,,,,,,,,,,,,,,,,,,,,,,,,,,,,,,,,,,,,,,,,,,,,,,,,,,,,,,,,,,,,,,,,,,,,,,,,,,,,,,,,,,,,,,,,,,,,,,,,,,,,,,,,,,,,,,,,,,,,,,,,,,,,,,,,,,,,,,,,,,,,,,,,,,,,,
,,,,,,58c26f473977190001f54116,62b2d07f9a1407631b2ae152,2022-06-22_09h20.06.214,Colour_Asymmetry_Pilot,2022.1.3,Win32,59.85873339,62b2a6a25f2ba72662469a01,0,55,55,21,1,threefour,,,,,,,,,,,,,,,,,,,,,,,,,,,,,,,,,,,,,,,,,,,,,,,,,,,,,,,,,,,,,,,,,,,,,,,,,,,,,,,,,,,,,,,,,,,,,,,,,,,,,,,,,,,,,,,,,,,,,,,,,,,,,,,,,,,,,,,,,,,,,,,,,,,,,,,,
,,,,,,58c26f473977190001f54116,62b2d07f9a1407631b2ae152,2022-06-22_09h20.06.214,Colour_Asymmetry_Pilot,2022.1.3,Win32,59.85873339,62b2a6a25f2ba72662469a01,0,56,56,16,1,onetwo,,,,,,,,,,,,,,,,,,,,,,,,,,,,,,,,,,,,,,,,,,,,,,,,,,,,,,,,,,,,,,,,,,,,,,,,,,,,,,,,,,,,,,,,,,,,,,,,,,,,,,,,,,,,,,,,,,,,,,,,,,,,,,,,,,,,,,,,,,,,,,,,,,,,,,,,
,,,,,,58c26f473977190001f54116,62b2d07f9a1407631b2ae152,2022-06-22_09h20.06.214,Colour_Asymmetry_Pilot,2022.1.3,Win32,59.85873339,62b2a6a25f2ba72662469a01,0,57,57,69,1,threefour,,,,,,,,,,,,,,,,,,,,,,,,,,,,,,,,,,,,,,,,,,,,,,,,,,,,,,,,,,,,,,,,,,,,,,,,,,,,,,,,,,,,,,,,,,,,,,,,,,,,,,,,,,,,,,,,,,,,,,,,,,,,,,,,,,,,,,,,,,,,,,,,,,,,,,,,
,,,,,,58c26f473977190001f54116,62b2d07f9a1407631b2ae152,2022-06-22_09h20.06.214,Colour_Asymmetry_Pilot,2022.1.3,Win32,59.85873339,62b2a6a25f2ba72662469a01,0,58,58,71,1,fourthree,,,,,,,,,,,,,,,,,,,,,,,,,,,,,,,,,,,,,,,,,,,,,,,,,,,,,,,,,,,,,,,,,,,,,,,,,,,,,,,,,,,,,,,,,,,,,,,,,,,,,,,,,,,,,,,,,,,,,,,,,,,,,,,,,,,,,,,,,,,,,,,,,,,,,,,,
,,,,,,58c26f473977190001f54116,62b2d07f9a1407631b2ae152,2022-06-22_09h20.06.214,Colour_Asymmetry_Pilot,2022.1.3,Win32,59.85873339,62b2a6a25f2ba72662469a01,0,59,59,47,1,fourthree,,,,,,,,,,,,,,,,,,,,,,,,,,,,,,,,,,,,,,,,,,,,,,,,,,,,,,,,,,,,,,,,,,,,,,,,,,,,,,,,,,,,,,,,,,,,,,,,,,,,,,,,,,,,,,,,,,,,,,,,,,,,,,,,,,,,,,,,,,,,,,,,,,,,,,,,
,,,,,,58c26f473977190001f54116,62b2d07f9a1407631b2ae152,2022-06-22_09h20.06.214,Colour_Asymmetry_Pilot,2022.1.3,Win32,59.85873339,62b2a6a25f2ba72662469a01,0,60,60,82,1,twoone,,,,,,,,,,,,,,,,,,,,,,,,,,,,,,,,,,,,,,,,,,,,,,,,,,,,,,,,,,,,,,,,,,,,,,,,,,,,,,,,,,,,,,,,,,,,,,,,,,,,,,,,,,,,,,,,,,,,,,,,,,,,,,,,,,,,,,,,,,,,,,,,,,,,,,,,
,,,,,,58c26f473977190001f54116,62b2d07f9a1407631b2ae152,2022-06-22_09h20.06.214,Colour_Asymmetry_Pilot,2022.1.3,Win32,59.85873339,62b2a6a25f2ba72662469a01,0,61,61,139,1,twofour,,,,,,,,,,,,,,,,,,,,,,,,,,,,,,,,,,,,,,,,,,,,,,,,,,,,,,,,,,,,,,,,,,,,,,,,,,,,,,,,,,,,,,,,,,,,,,,,,,,,,,,,,,,,,,,,,,,,,,,,,,,,,,,,,,,,,,,,,,,,,,,,,,,,,,,,
,,,,,,58c26f473977190001f54116,62b2d07f9a1407631b2ae152,2022-06-22_09h20.06.214,Colour_Asymmetry_Pilot,2022.1.3,Win32,59.85873339,62b2a6a25f2ba72662469a01,0,62,62,15,1,fourthree,,,,,,,,,,,,,,,,,,,,,,,,,,,,,,,,,,,,,,,,,,,,,,,,,,,,,,,,,,,,,,,,,,,,,,,,,,,,,,,,,,,,,,,,,,,,,,,,,,,,,,,,,,,,,,,,,,,,,,,,,,,,,,,,,,,,,,,,,,,,,,,,,,,,,,,,
,,,,,,58c26f473977190001f54116,62b2d07f9a1407631b2ae152,2022-06-22_09h20.06.214,Colour_Asymmetry_Pilot,2022.1.3,Win32,59.85873339,62b2a6a25f2ba72662469a01,0,63,63,101,1,threefour,,,,,,,,,,,,,,,,,,,,,,,,,,,,,,,,,,,,,,,,,,,,,,,,,,,,,,,,,,,,,,,,,,,,,,,,,,,,,,,,,,,,,,,,,,,,,,,,,,,,,,,,,,,,,,,,,,,,,,,,,,,,,,,,,,,,,,,,,,,,,,,,,,,,,,,,
,,,,,,58c26f473977190001f54116,62b2d07f9a1407631b2ae152,2022-06-22_09h20.06.214,Colour_Asymmetry_Pilot,2022.1.3,Win32,59.85873339,62b2a6a25f2ba72662469a01,0,64,64,64,1,onetwo,,,,,,,,,,,,,,,,,,,,,,,,,,,,,,,,,,,,,,,,,,,,,,,,,,,,,,,,,,,,,,,,,,,,,,,,,,,,,,,,,,,,,,,,,,,,,,,,,,,,,,,,,,,,,,,,,,,,,,,,,,,,,,,,,,,,,,,,,,,,,,,,,,,,,,,,
,,,,,,58c26f473977190001f54116,62b2d07f9a1407631b2ae152,2022-06-22_09h20.06.214,Colour_Asymmetry_Pilot,2022.1.3,Win32,59.85873339,62b2a6a25f2ba72662469a01,0,65,65,25,1,onethree,,,,,,,,,,,,,,,,,,,,,,,,,,,,,,,,,,,,,,,,,,,,,,,,,,,,,,,,,,,,,,,,,,,,,,,,,,,,,,,,,,,,,,,,,,,,,,,,,,,,,,,,,,,,,,,,,,,,,,,,,,,,,,,,,,,,,,,,,,,,,,,,,,,,,,,,
,,,,,,58c26f473977190001f54116,62b2d07f9a1407631b2ae152,2022-06-22_09h20.06.214,Colour_Asymmetry_Pilot,2022.1.3,Win32,59.85873339,62b2a6a25f2ba72662469a01,0,66,66,40,1,onetwo,,,,,,,,,,,,,,,,,,,,,,,,,,,,,,,,,,,,,,,,,,,,,,,,,,,,,,,,,,,,,,,,,,,,,,,,,,,,,,,,,,,,,,,,,,,,,,,,,,,,,,,,,,,,,,,,,,,,,,,,,,,,,,,,,,,,,,,,,,,,,,,,,,,,,,,,
,,,,,,58c26f473977190001f54116,62b2d07f9a1407631b2ae152,2022-06-22_09h20.06.214,Colour_Asymmetry_Pilot,2022.1.3,Win32,59.85873339,62b2a6a25f2ba72662469a01,0,67,67,65,1,onethree,,,,,,,,,,,,,,,,,,,,,,,,,,,,,,,,,,,,,,,,,,,,,,,,,,,,,,,,,,,,,,,,,,,,,,,,,,,,,,,,,,,,,,,,,,,,,,,,,,,,,,,,,,,,,,,,,,,,,,,,,,,,,,,,,,,,,,,,,,,,,,,,,,,,,,,,
,,,,,,58c26f473977190001f54116,62b2d07f9a1407631b2ae152,2022-06-22_09h20.06.214,Colour_Asymmetry_Pilot,2022.1.3,Win32,59.85873339,62b2a6a25f2ba72662469a01,0,68,68,98,1,twoone,,,,,,,,,,,,,,,,,,,,,,,,,,,,,,,,,,,,,,,,,,,,,,,,,,,,,,,,,,,,,,,,,,,,,,,,,,,,,,,,,,,,,,,,,,,,,,,,,,,,,,,,,,,,,,,,,,,,,,,,,,,,,,,,,,,,,,,,,,,,,,,,,,,,,,,,
,,,,,,58c26f473977190001f54116,62b2d07f9a1407631b2ae152,2022-06-22_09h20.06.214,Colour_Asymmetry_Pilot,2022.1.3,Win32,59.85873339,62b2a6a25f2ba72662469a01,0,69,69,124,1,threeone,,,,,,,,,,,,,,,,,,,,,,,,,,,,,,,,,,,,,,,,,,,,,,,,,,,,,,,,,,,,,,,,,,,,,,,,,,,,,,,,,,,,,,,,,,,,,,,,,,,,,,,,,,,,,,,,,,,,,,,,,,,,,,,,,,,,,,,,,,,,,,,,,,,,,,,,
,,,,,,58c26f473977190001f54116,62b2d07f9a1407631b2ae152,2022-06-22_09h20.06.214,Colour_Asymmetry_Pilot,2022.1.3,Win32,59.85873339,62b2a6a25f2ba72662469a01,0,70,70,125,1,threefour,,,,,,,,,,,,,,,,,,,,,,,,,,,,,,,,,,,,,,,,,,,,,,,,,,,,,,,,,,,,,,,,,,,,,,,,,,,,,,,,,,,,,,,,,,,,,,,,,,,,,,,,,,,,,,,,,,,,,,,,,,,,,,,,,,,,,,,,,,,,,,,,,,,,,,,,
,,,,,,58c26f473977190001f54116,62b2d07f9a1407631b2ae152,2022-06-22_09h20.06.214,Colour_Asymmetry_Pilot,2022.1.3,Win32,59.85873339,62b2a6a25f2ba72662469a01,0,71,71,44,1,threeone,,,,,,,,,,,,,,,,,,,,,,,,,,,,,,,,,,,,,,,,,,,,,,,,,,,,,,,,,,,,,,,,,,,,,,,,,,,,,,,,,,,,,,,,,,,,,,,,,,,,,,,,,,,,,,,,,,,,,,,,,,,,,,,,,,,,,,,,,,,,,,,,,,,,,,,,
,,,,,,58c26f473977190001f54116,62b2d07f9a1407631b2ae152,2022-06-22_09h20.06.214,Colour_Asymmetry_Pilot,2022.1.3,Win32,59.85873339,62b2a6a25f2ba72662469a01,0,72,72,94,1,fourtwo,,,,,,,,,,,,,,,,,,,,,,,,,,,,,,,,,,,,,,,,,,,,,,,,,,,,,,,,,,,,,,,,,,,,,,,,,,,,,,,,,,,,,,,,,,,,,,,,,,,,,,,,,,,,,,,,,,,,,,,,,,,,,,,,,,,,,,,,,,,,,,,,,,,,,,,,
,,,,,,58c26f473977190001f54116,62b2d07f9a1407631b2ae152,2022-06-22_09h20.06.214,Colour_Asymmetry_Pilot,2022.1.3,Win32,59.85873339,62b2a6a25f2ba72662469a01,0,73,73,27,1,twofour,,,,,,,,,,,,,,,,,,,,,,,,,,,,,,,,,,,,,,,,,,,,,,,,,,,,,,,,,,,,,,,,,,,,,,,,,,,,,,,,,,,,,,,,,,,,,,,,,,,,,,,,,,,,,,,,,,,,,,,,,,,,,,,,,,,,,,,,,,,,,,,,,,,,,,,,
,,,,,,58c26f473977190001f54116,62b2d07f9a1407631b2ae152,2022-06-22_09h20.06.214,Colour_Asymmetry_Pilot,2022.1.3,Win32,59.85873339,62b2a6a25f2ba72662469a01,0,74,74,45,1,threefour,,,,,,,,,,,,,,,,,,,,,,,,,,,,,,,,,,,,,,,,,,,,,,,,,,,,,,,,,,,,,,,,,,,,,,,,,,,,,,,,,,,,,,,,,,,,,,,,,,,,,,,,,,,,,,,,,,,,,,,,,,,,,,,,,,,,,,,,,,,,,,,,,,,,,,,,
,,,,,,58c26f473977190001f54116,62b2d07f9a1407631b2ae152,2022-06-22_09h20.06.214,Colour_Asymmetry_Pilot,2022.1.3,Win32,59.85873339,62b2a6a25f2ba72662469a01,0,75,75,23,1,fourthree,,,,,,,,,,,,,,,,,,,,,,,,,,,,,,,,,,,,,,,,,,,,,,,,,,,,,,,,,,,,,,,,,,,,,,,,,,,,,,,,,,,,,,,,,,,,,,,,,,,,,,,,,,,,,,,,,,,,,,,,,,,,,,,,,,,,,,,,,,,,,,,,,,,,,,,,
,,,,,,58c26f473977190001f54116,62b2d07f9a1407631b2ae152,2022-06-22_09h20.06.214,Colour_Asymmetry_Pilot,2022.1.3,Win32,59.85873339,62b2a6a25f2ba72662469a01,0,76,76,109,1,threefour,,,,,,,,,,,,,,,,,,,,,,,,,,,,,,,,,,,,,,,,,,,,,,,,,,,,,,,,,,,,,,,,,,,,,,,,,,,,,,,,,,,,,,,,,,,,,,,,,,,,,,,,,,,,,,,,,,,,,,,,,,,,,,,,,,,,,,,,,,,,,,,,,,,,,,,,
,,,,,,58c26f473977190001f54116,62b2d07f9a1407631b2ae152,2022-06-22_09h20.06.214,Colour_Asymmetry_Pilot,2022.1.3,Win32,59.85873339,62b2a6a25f2ba72662469a01,0,77,77,56,1,onetwo,,,,,,,,,,,,,,,,,,,,,,,,,,,,,,,,,,,,,,,,,,,,,,,,,,,,,,,,,,,,,,,,,,,,,,,,,,,,,,,,,,,,,,,,,,,,,,,,,,,,,,,,,,,,,,,,,,,,,,,,,,,,,,,,,,,,,,,,,,,,,,,,,,,,,,,,
,,,,,,58c26f473977190001f54116,62b2d07f9a1407631b2ae152,2022-06-22_09h20.06.214,Colour_Asymmetry_Pilot,2022.1.3,Win32,59.85873339,62b2a6a25f2ba72662469a01,0,78,78,43,1,twofour,,,,,,,,,,,,,,,,,,,,,,,,,,,,,,,,,,,,,,,,,,,,,,,,,,,,,,,,,,,,,,,,,,,,,,,,,,,,,,,,,,,,,,,,,,,,,,,,,,,,,,,,,,,,,,,,,,,,,,,,,,,,,,,,,,,,,,,,,,,,,,,,,,,,,,,,
,,,,,,58c26f473977190001f54116,62b2d07f9a1407631b2ae152,2022-06-22_09h20.06.214,Colour_Asymmetry_Pilot,2022.1.3,Win32,59.85873339,62b2a6a25f2ba72662469a01,0,79,79,136,1,onetwo,,,,,,,,,,,,,,,,,,,,,,,,,,,,,,,,,,,,,,,,,,,,,,,,,,,,,,,,,,,,,,,,,,,,,,,,,,,,,,,,,,,,,,,,,,,,,,,,,,,,,,,,,,,,,,,,,,,,,,,,,,,,,,,,,,,,,,,,,,,,,,,,,,,,,,,,
,,,,,,58c26f473977190001f54116,62b2d07f9a1407631b2ae152,2022-06-22_09h20.06.214,Colour_Asymmetry_Pilot,2022.1.3,Win32,59.85873339,62b2a6a25f2ba72662469a01,0,80,80,90,1,twoone,,,,,,,,,,,,,,,,,,,,,,,,,,,,,,,,,,,,,,,,,,,,,,,,,,,,,,,,,,,,,,,,,,,,,,,,,,,,,,,,,,,,,,,,,,,,,,,,,,,,,,,,,,,,,,,,,,,,,,,,,,,,,,,,,,,,,,,,,,,,,,,,,,,,,,,,
,,,,,,58c26f473977190001f54116,62b2d07f9a1407631b2ae152,2022-06-22_09h20.06.214,Colour_Asymmetry_Pilot,2022.1.3,Win32,59.85873339,62b2a6a25f2ba72662469a01,0,81,81,91,1,twofour,,,,,,,,,,,,,,,,,,,,,,,,,,,,,,,,,,,,,,,,,,,,,,,,,,,,,,,,,,,,,,,,,,,,,,,,,,,,,,,,,,,,,,,,,,,,,,,,,,,,,,,,,,,,,,,,,,,,,,,,,,,,,,,,,,,,,,,,,,,,,,,,,,,,,,,,
,,,,,,58c26f473977190001f54116,62b2d07f9a1407631b2ae152,2022-06-22_09h20.06.214,Colour_Asymmetry_Pilot,2022.1.3,Win32,59.85873339,62b2a6a25f2ba72662469a01,0,82,82,159,1,fourthree,,,,,,,,,,,,,,,,,,,,,,,,,,,,,,,,,,,,,,,,,,,,,,,,,,,,,,,,,,,,,,,,,,,,,,,,,,,,,,,,,,,,,,,,,,,,,,,,,,,,,,,,,,,,,,,,,,,,,,,,,,,,,,,,,,,,,,,,,,,,,,,,,,,,,,,,
,,,,,,58c26f473977190001f54116,62b2d07f9a1407631b2ae152,2022-06-22_09h20.06.214,Colour_Asymmetry_Pilot,2022.1.3,Win32,59.85873339,62b2a6a25f2ba72662469a01,0,83,83,137,1,onethree,,,,,,,,,,,,,,,,,,,,,,,,,,,,,,,,,,,,,,,,,,,,,,,,,,,,,,,,,,,,,,,,,,,,,,,,,,,,,,,,,,,,,,,,,,,,,,,,,,,,,,,,,,,,,,,,,,,,,,,,,,,,,,,,,,,,,,,,,,,,,,,,,,,,,,,,
,,,,,,58c26f473977190001f54116,62b2d07f9a1407631b2ae152,2022-06-22_09h20.06.214,Colour_Asymmetry_Pilot,2022.1.3,Win32,59.85873339,62b2a6a25f2ba72662469a01,0,84,84,114,1,twoone,,,,,,,,,,,,,,,,,,,,,,,,,,,,,,,,,,,,,,,,,,,,,,,,,,,,,,,,,,,,,,,,,,,,,,,,,,,,,,,,,,,,,,,,,,,,,,,,,,,,,,,,,,,,,,,,,,,,,,,,,,,,,,,,,,,,,,,,,,,,,,,,,,,,,,,,
,,,,,,58c26f473977190001f54116,62b2d07f9a1407631b2ae152,2022-06-22_09h20.06.214,Colour_Asymmetry_Pilot,2022.1.3,Win32,59.85873339,62b2a6a25f2ba72662469a01,0,85,85,126,1,fourtwo,,,,,,,,,,,,,,,,,,,,,,,,,,,,,,,,,,,,,,,,,,,,,,,,,,,,,,,,,,,,,,,,,,,,,,,,,,,,,,,,,,,,,,,,,,,,,,,,,,,,,,,,,,,,,,,,,,,,,,,,,,,,,,,,,,,,,,,,,,,,,,,,,,,,,,,,
,,,,,,58c26f473977190001f54116,62b2d07f9a1407631b2ae152,2022-06-22_09h20.06.214,Colour_Asymmetry_Pilot,2022.1.3,Win32,59.85873339,62b2a6a25f2ba72662469a01,0,86,86,138,1,twoone,,,,,,,,,,,,,,,,,,,,,,,,,,,,,,,,,,,,,,,,,,,,,,,,,,,,,,,,,,,,,,,,,,,,,,,,,,,,,,,,,,,,,,,,,,,,,,,,,,,,,,,,,,,,,,,,,,,,,,,,,,,,,,,,,,,,,,,,,,,,,,,,,,,,,,,,
,,,,,,58c26f473977190001f54116,62b2d07f9a1407631b2ae152,2022-06-22_09h20.06.214,Colour_Asymmetry_Pilot,2022.1.3,Win32,59.85873339,62b2a6a25f2ba72662469a01,0,87,87,128,1,onetwo,,,,,,,,,,,,,,,,,,,,,,,,,,,,,,,,,,,,,,,,,,,,,,,,,,,,,,,,,,,,,,,,,,,,,,,,,,,,,,,,,,,,,,,,,,,,,,,,,,,,,,,,,,,,,,,,,,,,,,,,,,,,,,,,,,,,,,,,,,,,,,,,,,,,,,,,
,,,,,,58c26f473977190001f54116,62b2d07f9a1407631b2ae152,2022-06-22_09h20.06.214,Colour_Asymmetry_Pilot,2022.1.3,Win32,59.85873339,62b2a6a25f2ba72662469a01,0,88,88,113,1,onethree,,,,,,,,,,,,,,,,,,,,,,,,,,,,,,,,,,,,,,,,,,,,,,,,,,,,,,,,,,,,,,,,,,,,,,,,,,,,,,,,,,,,,,,,,,,,,,,,,,,,,,,,,,,,,,,,,,,,,,,,,,,,,,,,,,,,,,,,,,,,,,,,,,,,,,,,
,,,,,,58c26f473977190001f54116,62b2d07f9a1407631b2ae152,2022-06-22_09h20.06.214,Colour_Asymmetry_Pilot,2022.1.3,Win32,59.85873339,62b2a6a25f2ba72662469a01,0,89,89,9,1,onethree,,,,,,,,,,,,,,,,,,,,,,,,,,,,,,,,,,,,,,,,,,,,,,,,,,,,,,,,,,,,,,,,,,,,,,,,,,,,,,,,,,,,,,,,,,,,,,,,,,,,,,,,,,,,,,,,,,,,,,,,,,,,,,,,,,,,,,,,,,,,,,,,,,,,,,,,
,,,,,,58c26f473977190001f54116,62b2d07f9a1407631b2ae152,2022-06-22_09h20.06.214,Colour_Asymmetry_Pilot,2022.1.3,Win32,59.85873339,62b2a6a25f2ba72662469a01,0,90,90,86,1,fourtwo,,,,,,,,,,,,,,,,,,,,,,,,,,,,,,,,,,,,,,,,,,,,,,,,,,,,,,,,,,,,,,,,,,,,,,,,,,,,,,,,,,,,,,,,,,,,,,,,,,,,,,,,,,,,,,,,,,,,,,,,,,,,,,,,,,,,,,,,,,,,,,,,,,,,,,,,
,,,,,,58c26f473977190001f54116,62b2d07f9a1407631b2ae152,2022-06-22_09h20.06.214,Colour_Asymmetry_Pilot,2022.1.3,Win32,59.85873339,62b2a6a25f2ba72662469a01,0,91,91,140,1,threeone,,,,,,,,,,,,,,,,,,,,,,,,,,,,,,,,,,,,,,,,,,,,,,,,,,,,,,,,,,,,,,,,,,,,,,,,,,,,,,,,,,,,,,,,,,,,,,,,,,,,,,,,,,,,,,,,,,,,,,,,,,,,,,,,,,,,,,,,,,,,,,,,,,,,,,,,
,,,,,,58c26f473977190001f54116,62b2d07f9a1407631b2ae152,2022-06-22_09h20.06.214,Colour_Asymmetry_Pilot,2022.1.3,Win32,59.85873339,62b2a6a25f2ba72662469a01,0,92,92,153,1,onethree,,,,,,,,,,,,,,,,,,,,,,,,,,,,,,,,,,,,,,,,,,,,,,,,,,,,,,,,,,,,,,,,,,,,,,,,,,,,,,,,,,,,,,,,,,,,,,,,,,,,,,,,,,,,,,,,,,,,,,,,,,,,,,,,,,,,,,,,,,,,,,,,,,,,,,,,
,,,,,,58c26f473977190001f54116,62b2d07f9a1407631b2ae152,2022-06-22_09h20.06.214,Colour_Asymmetry_Pilot,2022.1.3,Win32,59.85873339,62b2a6a25f2ba72662469a01,0,93,93,14,1,fourtwo,,,,,,,,,,,,,,,,,,,,,,,,,,,,,,,,,,,,,,,,,,,,,,,,,,,,,,,,,,,,,,,,,,,,,,,,,,,,,,,,,,,,,,,,,,,,,,,,,,,,,,,,,,,,,,,,,,,,,,,,,,,,,,,,,,,,,,,,,,,,,,,,,,,,,,,,
,,,,,,58c26f473977190001f54116,62b2d07f9a1407631b2ae152,2022-06-22_09h20.06.214,Colour_Asymmetry_Pilot,2022.1.3,Win32,59.85873339,62b2a6a25f2ba72662469a01,0,94,94,155,1,twofour,,,,,,,,,,,,,,,,,,,,,,,,,,,,,,,,,,,,,,,,,,,,,,,,,,,,,,,,,,,,,,,,,,,,,,,,,,,,,,,,,,,,,,,,,,,,,,,,,,,,,,,,,,,,,,,,,,,,,,,,,,,,,,,,,,,,,,,,,,,,,,,,,,,,,,,,
,,,,,,58c26f473977190001f54116,62b2d07f9a1407631b2ae152,2022-06-22_09h20.06.214,Colour_Asymmetry_Pilot,2022.1.3,Win32,59.85873339,62b2a6a25f2ba72662469a01,0,95,95,117,1,threefour,,,,,,,,,,,,,,,,,,,,,,,,,,,,,,,,,,,,,,,,,,,,,,,,,,,,,,,,,,,,,,,,,,,,,,,,,,,,,,,,,,,,,,,,,,,,,,,,,,,,,,,,,,,,,,,,,,,,,,,,,,,,,,,,,,,,,,,,,,,,,,,,,,,,,,,,
,,,,,,58c26f473977190001f54116,62b2d07f9a1407631b2ae152,2022-06-22_09h20.06.214,Colour_Asymmetry_Pilot,2022.1.3,Win32,59.85873339,62b2a6a25f2ba72662469a01,0,96,96,156,1,threeone,,,,,,,,,,,,,,,,,,,,,,,,,,,,,,,,,,,,,,,,,,,,,,,,,,,,,,,,,,,,,,,,,,,,,,,,,,,,,,,,,,,,,,,,,,,,,,,,,,,,,,,,,,,,,,,,,,,,,,,,,,,,,,,,,,,,,,,,,,,,,,,,,,,,,,,,
,,,,,,58c26f473977190001f54116,62b2d07f9a1407631b2ae152,2022-06-22_09h20.06.214,Colour_Asymmetry_Pilot,2022.1.3,Win32,59.85873339,62b2a6a25f2ba72662469a01,0,97,97,32,1,onetwo,,,,,,,,,,,,,,,,,,,,,,,,,,,,,,,,,,,,,,,,,,,,,,,,,,,,,,,,,,,,,,,,,,,,,,,,,,,,,,,,,,,,,,,,,,,,,,,,,,,,,,,,,,,,,,,,,,,,,,,,,,,,,,,,,,,,,,,,,,,,,,,,,,,,,,,,
,,,,,,58c26f473977190001f54116,62b2d07f9a1407631b2ae152,2022-06-22_09h20.06.214,Colour_Asymmetry_Pilot,2022.1.3,Win32,59.85873339,62b2a6a25f2ba72662469a01,0,98,98,84,1,threeone,,,,,,,,,,,,,,,,,,,,,,,,,,,,,,,,,,,,,,,,,,,,,,,,,,,,,,,,,,,,,,,,,,,,,,,,,,,,,,,,,,,,,,,,,,,,,,,,,,,,,,,,,,,,,,,,,,,,,,,,,,,,,,,,,,,,,,,,,,,,,,,,,,,,,,,,
,,,,,,58c26f473977190001f54116,62b2d07f9a1407631b2ae152,2022-06-22_09h20.06.214,Colour_Asymmetry_Pilot,2022.1.3,Win32,59.85873339,62b2a6a25f2ba72662469a01,0,99,99,4,1,threeone,,,,,,,,,,,,,,,,,,,,,,,,,,,,,,,,,,,,,,,,,,,,,,,,,,,,,,,,,,,,,,,,,,,,,,,,,,,,,,,,,,,,,,,,,,,,,,,,,,,,,,,,,,,,,,,,,,,,,,,,,,,,,,,,,,,,,,,,,,,,,,,,,,,,,,,,
,,,,,,58c26f473977190001f54116,62b2d07f9a1407631b2ae152,2022-06-22_09h20.06.214,Colour_Asymmetry_Pilot,2022.1.3,Win32,59.85873339,62b2a6a25f2ba72662469a01,0,100,100,75,1,twofour,,,,,,,,,,,,,,,,,,,,,,,,,,,,,,,,,,,,,,,,,,,,,,,,,,,,,,,,,,,,,,,,,,,,,,,,,,,,,,,,,,,,,,,,,,,,,,,,,,,,,,,,,,,,,,,,,,,,,,,,,,,,,,,,,,,,,,,,,,,,,,,,,,,,,,,,
,,,,,,58c26f473977190001f54116,62b2d07f9a1407631b2ae152,2022-06-22_09h20.06.214,Colour_Asymmetry_Pilot,2022.1.3,Win32,59.85873339,62b2a6a25f2ba72662469a01,0,101,101,70,1,fourtwo,,,,,,,,,,,,,,,,,,,,,,,,,,,,,,,,,,,,,,,,,,,,,,,,,,,,,,,,,,,,,,,,,,,,,,,,,,,,,,,,,,,,,,,,,,,,,,,,,,,,,,,,,,,,,,,,,,,,,,,,,,,,,,,,,,,,,,,,,,,,,,,,,,,,,,,,
,,,,,,58c26f473977190001f54116,62b2d07f9a1407631b2ae152,2022-06-22_09h20.06.214,Colour_Asymmetry_Pilot,2022.1.3,Win32,59.85873339,62b2a6a25f2ba72662469a01,0,102,102,111,1,fourthree,,,,,,,,,,,,,,,,,,,,,,,,,,,,,,,,,,,,,,,,,,,,,,,,,,,,,,,,,,,,,,,,,,,,,,,,,,,,,,,,,,,,,,,,,,,,,,,,,,,,,,,,,,,,,,,,,,,,,,,,,,,,,,,,,,,,,,,,,,,,,,,,,,,,,,,,
,,,,,,58c26f473977190001f54116,62b2d07f9a1407631b2ae152,2022-06-22_09h20.06.214,Colour_Asymmetry_Pilot,2022.1.3,Win32,59.85873339,62b2a6a25f2ba72662469a01,0,103,103,46,1,fourtwo,,,,,,,,,,,,,,,,,,,,,,,,,,,,,,,,,,,,,,,,,,,,,,,,,,,,,,,,,,,,,,,,,,,,,,,,,,,,,,,,,,,,,,,,,,,,,,,,,,,,,,,,,,,,,,,,,,,,,,,,,,,,,,,,,,,,,,,,,,,,,,,,,,,,,,,,
,,,,,,58c26f473977190001f54116,62b2d07f9a1407631b2ae152,2022-06-22_09h20.06.214,Colour_Asymmetry_Pilot,2022.1.3,Win32,59.85873339,62b2a6a25f2ba72662469a01,0,104,104,100,1,threeone,,,,,,,,,,,,,,,,,,,,,,,,,,,,,,,,,,,,,,,,,,,,,,,,,,,,,,,,,,,,,,,,,,,,,,,,,,,,,,,,,,,,,,,,,,,,,,,,,,,,,,,,,,,,,,,,,,,,,,,,,,,,,,,,,,,,,,,,,,,,,,,,,,,,,,,,
,,,,,,58c26f473977190001f54116,62b2d07f9a1407631b2ae152,2022-06-22_09h20.06.214,Colour_Asymmetry_Pilot,2022.1.3,Win32,59.85873339,62b2a6a25f2ba72662469a01,0,105,105,61,1,threefour,,,,,,,,,,,,,,,,,,,,,,,,,,,,,,,,,,,,,,,,,,,,,,,,,,,,,,,,,,,,,,,,,,,,,,,,,,,,,,,,,,,,,,,,,,,,,,,,,,,,,,,,,,,,,,,,,,,,,,,,,,,,,,,,,,,,,,,,,,,,,,,,,,,,,,,,
,,,,,,58c26f473977190001f54116,62b2d07f9a1407631b2ae152,2022-06-22_09h20.06.214,Colour_Asymmetry_Pilot,2022.1.3,Win32,59.85873339,62b2a6a25f2ba72662469a01,0,106,106,134,1,fourtwo,,,,,,,,,,,,,,,,,,,,,,,,,,,,,,,,,,,,,,,,,,,,,,,,,,,,,,,,,,,,,,,,,,,,,,,,,,,,,,,,,,,,,,,,,,,,,,,,,,,,,,,,,,,,,,,,,,,,,,,,,,,,,,,,,,,,,,,,,,,,,,,,,,,,,,,,
,,,,,,58c26f473977190001f54116,62b2d07f9a1407631b2ae152,2022-06-22_09h20.06.214,Colour_Asymmetry_Pilot,2022.1.3,Win32,59.85873339,62b2a6a25f2ba72662469a01,0,107,107,85,1,threefour,,,,,,,,,,,,,,,,,,,,,,,,,,,,,,,,,,,,,,,,,,,,,,,,,,,,,,,,,,,,,,,,,,,,,,,,,,,,,,,,,,,,,,,,,,,,,,,,,,,,,,,,,,,,,,,,,,,,,,,,,,,,,,,,,,,,,,,,,,,,,,,,,,,,,,,,
,,,,,,58c26f473977190001f54116,62b2d07f9a1407631b2ae152,2022-06-22_09h20.06.214,Colour_Asymmetry_Pilot,2022.1.3,Win32,59.85873339,62b2a6a25f2ba72662469a01,0,108,108,3,1,twofour,,,,,,,,,,,,,,,,,,,,,,,,,,,,,,,,,,,,,,,,,,,,,,,,,,,,,,,,,,,,,,,,,,,,,,,,,,,,,,,,,,,,,,,,,,,,,,,,,,,,,,,,,,,,,,,,,,,,,,,,,,,,,,,,,,,,,,,,,,,,,,,,,,,,,,,,
,,,,,,58c26f473977190001f54116,62b2d07f9a1407631b2ae152,2022-06-22_09h20.06.214,Colour_Asymmetry_Pilot,2022.1.3,Win32,59.85873339,62b2a6a25f2ba72662469a01,0,109,109,24,1,onetwo,,,,,,,,,,,,,,,,,,,,,,,,,,,,,,,,,,,,,,,,,,,,,,,,,,,,,,,,,,,,,,,,,,,,,,,,,,,,,,,,,,,,,,,,,,,,,,,,,,,,,,,,,,,,,,,,,,,,,,,,,,,,,,,,,,,,,,,,,,,,,,,,,,,,,,,,
,,,,,,58c26f473977190001f54116,62b2d07f9a1407631b2ae152,2022-06-22_09h20.06.214,Colour_Asymmetry_Pilot,2022.1.3,Win32,59.85873339,62b2a6a25f2ba72662469a01,0,110,110,22,1,fourtwo,,,,,,,,,,,,,,,,,,,,,,,,,,,,,,,,,,,,,,,,,,,,,,,,,,,,,,,,,,,,,,,,,,,,,,,,,,,,,,,,,,,,,,,,,,,,,,,,,,,,,,,,,,,,,,,,,,,,,,,,,,,,,,,,,,,,,,,,,,,,,,,,,,,,,,,,
,,,,,,58c26f473977190001f54116,62b2d07f9a1407631b2ae152,2022-06-22_09h20.06.214,Colour_Asymmetry_Pilot,2022.1.3,Win32,59.85873339,62b2a6a25f2ba72662469a01,0,111,111,68,1,threeone,,,,,,,,,,,,,,,,,,,,,,,,,,,,,,,,,,,,,,,,,,,,,,,,,,,,,,,,,,,,,,,,,,,,,,,,,,,,,,,,,,,,,,,,,,,,,,,,,,,,,,,,,,,,,,,,,,,,,,,,,,,,,,,,,,,,,,,,,,,,,,,,,,,,,,,,
,,,,,,58c26f473977190001f54116,62b2d07f9a1407631b2ae152,2022-06-22_09h20.06.214,Colour_Asymmetry_Pilot,2022.1.3,Win32,59.85873339,62b2a6a25f2ba72662469a01,0,112,112,12,1,threeone,,,,,,,,,,,,,,,,,,,,,,,,,,,,,,,,,,,,,,,,,,,,,,,,,,,,,,,,,,,,,,,,,,,,,,,,,,,,,,,,,,,,,,,,,,,,,,,,,,,,,,,,,,,,,,,,,,,,,,,,,,,,,,,,,,,,,,,,,,,,,,,,,,,,,,,,
,,,,,,58c26f473977190001f54116,62b2d07f9a1407631b2ae152,2022-06-22_09h20.06.214,Colour_Asymmetry_Pilot,2022.1.3,Win32,59.85873339,62b2a6a25f2ba72662469a01,0,113,113,88,1,onetwo,,,,,,,,,,,,,,,,,,,,,,,,,,,,,,,,,,,,,,,,,,,,,,,,,,,,,,,,,,,,,,,,,,,,,,,,,,,,,,,,,,,,,,,,,,,,,,,,,,,,,,,,,,,,,,,,,,,,,,,,,,,,,,,,,,,,,,,,,,,,,,,,,,,,,,,,
,,,,,,58c26f473977190001f54116,62b2d07f9a1407631b2ae152,2022-06-22_09h20.06.214,Colour_Asymmetry_Pilot,2022.1.3,Win32,59.85873339,62b2a6a25f2ba72662469a01,0,114,114,95,1,fourthree,,,,,,,,,,,,,,,,,,,,,,,,,,,,,,,,,,,,,,,,,,,,,,,,,,,,,,,,,,,,,,,,,,,,,,,,,,,,,,,,,,,,,,,,,,,,,,,,,,,,,,,,,,,,,,,,,,,,,,,,,,,,,,,,,,,,,,,,,,,,,,,,,,,,,,,,
,,,,,,58c26f473977190001f54116,62b2d07f9a1407631b2ae152,2022-06-22_09h20.06.214,Colour_Asymmetry_Pilot,2022.1.3,Win32,59.85873339,62b2a6a25f2ba72662469a01,0,115,115,108,1,threeone,,,,,,,,,,,,,,,,,,,,,,,,,,,,,,,,,,,,,,,,,,,,,,,,,,,,,,,,,,,,,,,,,,,,,,,,,,,,,,,,,,,,,,,,,,,,,,,,,,,,,,,,,,,,,,,,,,,,,,,,,,,,,,,,,,,,,,,,,,,,,,,,,,,,,,,,
,,,,,,58c26f473977190001f54116,62b2d07f9a1407631b2ae152,2022-06-22_09h20.06.214,Colour_Asymmetry_Pilot,2022.1.3,Win32,59.85873339,62b2a6a25f2ba72662469a01,0,116,116,87,1,fourthree,,,,,,,,,,,,,,,,,,,,,,,,,,,,,,,,,,,,,,,,,,,,,,,,,,,,,,,,,,,,,,,,,,,,,,,,,,,,,,,,,,,,,,,,,,,,,,,,,,,,,,,,,,,,,,,,,,,,,,,,,,,,,,,,,,,,,,,,,,,,,,,,,,,,,,,,
,,,,,,58c26f473977190001f54116,62b2d07f9a1407631b2ae152,2022-06-22_09h20.06.214,Colour_Asymmetry_Pilot,2022.1.3,Win32,59.85873339,62b2a6a25f2ba72662469a01,0,117,117,31,1,fourthree,,,,,,,,,,,,,,,,,,,,,,,,,,,,,,,,,,,,,,,,,,,,,,,,,,,,,,,,,,,,,,,,,,,,,,,,,,,,,,,,,,,,,,,,,,,,,,,,,,,,,,,,,,,,,,,,,,,,,,,,,,,,,,,,,,,,,,,,,,,,,,,,,,,,,,,,
,,,,,,58c26f473977190001f54116,62b2d07f9a1407631b2ae152,2022-06-22_09h20.06.214,Colour_Asymmetry_Pilot,2022.1.3,Win32,59.85873339,62b2a6a25f2ba72662469a01,0,118,118,135,1,fourthree,,,,,,,,,,,,,,,,,,,,,,,,,,,,,,,,,,,,,,,,,,,,,,,,,,,,,,,,,,,,,,,,,,,,,,,,,,,,,,,,,,,,,,,,,,,,,,,,,,,,,,,,,,,,,,,,,,,,,,,,,,,,,,,,,,,,,,,,,,,,,,,,,,,,,,,,
,,,,,,58c26f473977190001f54116,62b2d07f9a1407631b2ae152,2022-06-22_09h20.06.214,Colour_Asymmetry_Pilot,2022.1.3,Win32,59.85873339,62b2a6a25f2ba72662469a01,0,119,119,142,1,fourtwo,,,,,,,,,,,,,,,,,,,,,,,,,,,,,,,,,,,,,,,,,,,,,,,,,,,,,,,,,,,,,,,,,,,,,,,,,,,,,,,,,,,,,,,,,,,,,,,,,,,,,,,,,,,,,,,,,,,,,,,,,,,,,,,,,,,,,,,,,,,,,,,,,,,,,,,,
,,,,,,58c26f473977190001f54116,62b2d07f9a1407631b2ae152,2022-06-22_09h20.06.214,Colour_Asymmetry_Pilot,2022.1.3,Win32,59.85873339,62b2a6a25f2ba72662469a01,0,120,120,30,1,fourtwo,,,,,,,,,,,,,,,,,,,,,,,,,,,,,,,,,,,,,,,,,,,,,,,,,,,,,,,,,,,,,,,,,,,,,,,,,,,,,,,,,,,,,,,,,,,,,,,,,,,,,,,,,,,,,,,,,,,,,,,,,,,,,,,,,,,,,,,,,,,,,,,,,,,,,,,,
,,,,,,58c26f473977190001f54116,62b2d07f9a1407631b2ae152,2022-06-22_09h20.06.214,Colour_Asymmetry_Pilot,2022.1.3,Win32,59.85873339,62b2a6a25f2ba72662469a01,0,121,121,89,1,onethree,,,,,,,,,,,,,,,,,,,,,,,,,,,,,,,,,,,,,,,,,,,,,,,,,,,,,,,,,,,,,,,,,,,,,,,,,,,,,,,,,,,,,,,,,,,,,,,,,,,,,,,,,,,,,,,,,,,,,,,,,,,,,,,,,,,,,,,,,,,,,,,,,,,,,,,,
,,,,,,58c26f473977190001f54116,62b2d07f9a1407631b2ae152,2022-06-22_09h20.06.214,Colour_Asymmetry_Pilot,2022.1.3,Win32,59.85873339,62b2a6a25f2ba72662469a01,0,122,122,54,1,fourtwo,,,,,,,,,,,,,,,,,,,,,,,,,,,,,,,,,,,,,,,,,,,,,,,,,,,,,,,,,,,,,,,,,,,,,,,,,,,,,,,,,,,,,,,,,,,,,,,,,,,,,,,,,,,,,,,,,,,,,,,,,,,,,,,,,,,,,,,,,,,,,,,,,,,,,,,,
,,,,,,58c26f473977190001f54116,62b2d07f9a1407631b2ae152,2022-06-22_09h20.06.214,Colour_Asymmetry_Pilot,2022.1.3,Win32,59.85873339,62b2a6a25f2ba72662469a01,0,123,123,141,1,threefour,,,,,,,,,,,,,,,,,,,,,,,,,,,,,,,,,,,,,,,,,,,,,,,,,,,,,,,,,,,,,,,,,,,,,,,,,,,,,,,,,,,,,,,,,,,,,,,,,,,,,,,,,,,,,,,,,,,,,,,,,,,,,,,,,,,,,,,,,,,,,,,,,,,,,,,,
,,,,,,58c26f473977190001f54116,62b2d07f9a1407631b2ae152,2022-06-22_09h20.06.214,Colour_Asymmetry_Pilot,2022.1.3,Win32,59.85873339,62b2a6a25f2ba72662469a01,0,124,124,6,1,fourtwo,,,,,,,,,,,,,,,,,,,,,,,,,,,,,,,,,,,,,,,,,,,,,,,,,,,,,,,,,,,,,,,,,,,,,,,,,,,,,,,,,,,,,,,,,,,,,,,,,,,,,,,,,,,,,,,,,,,,,,,,,,,,,,,,,,,,,,,,,,,,,,,,,,,,,,,,
,,,,,,58c26f473977190001f54116,62b2d07f9a1407631b2ae152,2022-06-22_09h20.06.214,Colour_Asymmetry_Pilot,2022.1.3,Win32,59.85873339,62b2a6a25f2ba72662469a01,0,125,125,106,1,twoone,,,,,,,,,,,,,,,,,,,,,,,,,,,,,,,,,,,,,,,,,,,,,,,,,,,,,,,,,,,,,,,,,,,,,,,,,,,,,,,,,,,,,,,,,,,,,,,,,,,,,,,,,,,,,,,,,,,,,,,,,,,,,,,,,,,,,,,,,,,,,,,,,,,,,,,,
,,,,,,58c26f473977190001f54116,62b2d07f9a1407631b2ae152,2022-06-22_09h20.06.214,Colour_Asymmetry_Pilot,2022.1.3,Win32,59.85873339,62b2a6a25f2ba72662469a01,0,126,126,143,1,fourthree,,,,,,,,,,,,,,,,,,,,,,,,,,,,,,,,,,,,,,,,,,,,,,,,,,,,,,,,,,,,,,,,,,,,,,,,,,,,,,,,,,,,,,,,,,,,,,,,,,,,,,,,,,,,,,,,,,,,,,,,,,,,,,,,,,,,,,,,,,,,,,,,,,,,,,,,
,,,,,,58c26f473977190001f54116,62b2d07f9a1407631b2ae152,2022-06-22_09h20.06.214,Colour_Asymmetry_Pilot,2022.1.3,Win32,59.85873339,62b2a6a25f2ba72662469a01,0,127,127,77,1,threefour,,,,,,,,,,,,,,,,,,,,,,,,,,,,,,,,,,,,,,,,,,,,,,,,,,,,,,,,,,,,,,,,,,,,,,,,,,,,,,,,,,,,,,,,,,,,,,,,,,,,,,,,,,,,,,,,,,,,,,,,,,,,,,,,,,,,,,,,,,,,,,,,,,,,,,,,
,,,,,,58c26f473977190001f54116,62b2d07f9a1407631b2ae152,2022-06-22_09h20.06.214,Colour_Asymmetry_Pilot,2022.1.3,Win32,59.85873339,62b2a6a25f2ba72662469a01,0,128,128,67,1,twofour,,,,,,,,,,,,,,,,,,,,,,,,,,,,,,,,,,,,,,,,,,,,,,,,,,,,,,,,,,,,,,,,,,,,,,,,,,,,,,,,,,,,,,,,,,,,,,,,,,,,,,,,,,,,,,,,,,,,,,,,,,,,,,,,,,,,,,,,,,,,,,,,,,,,,,,,
,,,,,,58c26f473977190001f54116,62b2d07f9a1407631b2ae152,2022-06-22_09h20.06.214,Colour_Asymmetry_Pilot,2022.1.3,Win32,59.85873339,62b2a6a25f2ba72662469a01,0,129,129,129,1,onethree,,,,,,,,,,,,,,,,,,,,,,,,,,,,,,,,,,,,,,,,,,,,,,,,,,,,,,,,,,,,,,,,,,,,,,,,,,,,,,,,,,,,,,,,,,,,,,,,,,,,,,,,,,,,,,,,,,,,,,,,,,,,,,,,,,,,,,,,,,,,,,,,,,,,,,,,
,,,,,,58c26f473977190001f54116,62b2d07f9a1407631b2ae152,2022-06-22_09h20.06.214,Colour_Asymmetry_Pilot,2022.1.3,Win32,59.85873339,62b2a6a25f2ba72662469a01,0,130,130,35,1,twofour,,,,,,,,,,,,,,,,,,,,,,,,,,,,,,,,,,,,,,,,,,,,,,,,,,,,,,,,,,,,,,,,,,,,,,,,,,,,,,,,,,,,,,,,,,,,,,,,,,,,,,,,,,,,,,,,,,,,,,,,,,,,,,,,,,,,,,,,,,,,,,,,,,,,,,,,
,,,,,,58c26f473977190001f54116,62b2d07f9a1407631b2ae152,2022-06-22_09h20.06.214,Colour_Asymmetry_Pilot,2022.1.3,Win32,59.85873339,62b2a6a25f2ba72662469a01,0,131,131,80,1,onetwo,,,,,,,,,,,,,,,,,,,,,,,,,,,,,,,,,,,,,,,,,,,,,,,,,,,,,,,,,,,,,,,,,,,,,,,,,,,,,,,,,,,,,,,,,,,,,,,,,,,,,,,,,,,,,,,,,,,,,,,,,,,,,,,,,,,,,,,,,,,,,,,,,,,,,,,,
,,,,,,58c26f473977190001f54116,62b2d07f9a1407631b2ae152,2022-06-22_09h20.06.214,Colour_Asymmetry_Pilot,2022.1.3,Win32,59.85873339,62b2a6a25f2ba72662469a01,0,132,132,39,1,fourthree,,,,,,,,,,,,,,,,,,,,,,,,,,,,,,,,,,,,,,,,,,,,,,,,,,,,,,,,,,,,,,,,,,,,,,,,,,,,,,,,,,,,,,,,,,,,,,,,,,,,,,,,,,,,,,,,,,,,,,,,,,,,,,,,,,,,,,,,,,,,,,,,,,,,,,,,
,,,,,,58c26f473977190001f54116,62b2d07f9a1407631b2ae152,2022-06-22_09h20.06.214,Colour_Asymmetry_Pilot,2022.1.3,Win32,59.85873339,62b2a6a25f2ba72662469a01,0,133,133,37,1,threefour,,,,,,,,,,,,,,,,,,,,,,,,,,,,,,,,,,,,,,,,,,,,,,,,,,,,,,,,,,,,,,,,,,,,,,,,,,,,,,,,,,,,,,,,,,,,,,,,,,,,,,,,,,,,,,,,,,,,,,,,,,,,,,,,,,,,,,,,,,,,,,,,,,,,,,,,
,,,,,,58c26f473977190001f54116,62b2d07f9a1407631b2ae152,2022-06-22_09h20.06.214,Colour_Asymmetry_Pilot,2022.1.3,Win32,59.85873339,62b2a6a25f2ba72662469a01,0,134,134,20,1,threeone,,,,,,,,,,,,,,,,,,,,,,,,,,,,,,,,,,,,,,,,,,,,,,,,,,,,,,,,,,,,,,,,,,,,,,,,,,,,,,,,,,,,,,,,,,,,,,,,,,,,,,,,,,,,,,,,,,,,,,,,,,,,,,,,,,,,,,,,,,,,,,,,,,,,,,,,
,,,,,,58c26f473977190001f54116,62b2d07f9a1407631b2ae152,2022-06-22_09h20.06.214,Colour_Asymmetry_Pilot,2022.1.3,Win32,59.85873339,62b2a6a25f2ba72662469a01,0,135,135,55,1,fourthree,,,,,,,,,,,,,,,,,,,,,,,,,,,,,,,,,,,,,,,,,,,,,,,,,,,,,,,,,,,,,,,,,,,,,,,,,,,,,,,,,,,,,,,,,,,,,,,,,,,,,,,,,,,,,,,,,,,,,,,,,,,,,,,,,,,,,,,,,,,,,,,,,,,,,,,,
,,,,,,58c26f473977190001f54116,62b2d07f9a1407631b2ae152,2022-06-22_09h20.06.214,Colour_Asymmetry_Pilot,2022.1.3,Win32,59.85873339,62b2a6a25f2ba72662469a01,0,136,136,152,1,onetwo,,,,,,,,,,,,,,,,,,,,,,,,,,,,,,,,,,,,,,,,,,,,,,,,,,,,,,,,,,,,,,,,,,,,,,,,,,,,,,,,,,,,,,,,,,,,,,,,,,,,,,,,,,,,,,,,,,,,,,,,,,,,,,,,,,,,,,,,,,,,,,,,,,,,,,,,
,,,,,,58c26f473977190001f54116,62b2d07f9a1407631b2ae152,2022-06-22_09h20.06.214,Colour_Asymmetry_Pilot,2022.1.3,Win32,59.85873339,62b2a6a25f2ba72662469a01,0,137,137,34,1,twoone,,,,,,,,,,,,,,,,,,,,,,,,,,,,,,,,,,,,,,,,,,,,,,,,,,,,,,,,,,,,,,,,,,,,,,,,,,,,,,,,,,,,,,,,,,,,,,,,,,,,,,,,,,,,,,,,,,,,,,,,,,,,,,,,,,,,,,,,,,,,,,,,,,,,,,,,
,,,,,,58c26f473977190001f54116,62b2d07f9a1407631b2ae152,2022-06-22_09h20.06.214,Colour_Asymmetry_Pilot,2022.1.3,Win32,59.85873339,62b2a6a25f2ba72662469a01,0,138,138,1,1,onethree,,,,,,,,,,,,,,,,,,,,,,,,,,,,,,,,,,,,,,,,,,,,,,,,,,,,,,,,,,,,,,,,,,,,,,,,,,,,,,,,,,,,,,,,,,,,,,,,,,,,,,,,,,,,,,,,,,,,,,,,,,,,,,,,,,,,,,,,,,,,,,,,,,,,,,,,
,,,,,,58c26f473977190001f54116,62b2d07f9a1407631b2ae152,2022-06-22_09h20.06.214,Colour_Asymmetry_Pilot,2022.1.3,Win32,59.85873339,62b2a6a25f2ba72662469a01,0,139,139,41,1,onethree,,,,,,,,,,,,,,,,,,,,,,,,,,,,,,,,,,,,,,,,,,,,,,,,,,,,,,,,,,,,,,,,,,,,,,,,,,,,,,,,,,,,,,,,,,,,,,,,,,,,,,,,,,,,,,,,,,,,,,,,,,,,,,,,,,,,,,,,,,,,,,,,,,,,,,,,
,,,,,,58c26f473977190001f54116,62b2d07f9a1407631b2ae152,2022-06-22_09h20.06.214,Colour_Asymmetry_Pilot,2022.1.3,Win32,59.85873339,62b2a6a25f2ba72662469a01,0,140,140,102,1,fourtwo,,,,,,,,,,,,,,,,,,,,,,,,,,,,,,,,,,,,,,,,,,,,,,,,,,,,,,,,,,,,,,,,,,,,,,,,,,,,,,,,,,,,,,,,,,,,,,,,,,,,,,,,,,,,,,,,,,,,,,,,,,,,,,,,,,,,,,,,,,,,,,,,,,,,,,,,
,,,,,,58c26f473977190001f54116,62b2d07f9a1407631b2ae152,2022-06-22_09h20.06.214,Colour_Asymmetry_Pilot,2022.1.3,Win32,59.85873339,62b2a6a25f2ba72662469a01,0,141,141,10,1,twoone,,,,,,,,,,,,,,,,,,,,,,,,,,,,,,,,,,,,,,,,,,,,,,,,,,,,,,,,,,,,,,,,,,,,,,,,,,,,,,,,,,,,,,,,,,,,,,,,,,,,,,,,,,,,,,,,,,,,,,,,,,,,,,,,,,,,,,,,,,,,,,,,,,,,,,,,
,,,,,,58c26f473977190001f54116,62b2d07f9a1407631b2ae152,2022-06-22_09h20.06.214,Colour_Asymmetry_Pilot,2022.1.3,Win32,59.85873339,62b2a6a25f2ba72662469a01,0,142,142,115,1,twofour,,,,,,,,,,,,,,,,,,,,,,,,,,,,,,,,,,,,,,,,,,,,,,,,,,,,,,,,,,,,,,,,,,,,,,,,,,,,,,,,,,,,,,,,,,,,,,,,,,,,,,,,,,,,,,,,,,,,,,,,,,,,,,,,,,,,,,,,,,,,,,,,,,,,,,,,
,,,,,,58c26f473977190001f54116,62b2d07f9a1407631b2ae152,2022-06-22_09h20.06.214,Colour_Asymmetry_Pilot,2022.1.3,Win32,59.85873339,62b2a6a25f2ba72662469a01,0,143,143,53,1,threefour,,,,,,,,,,,,,,,,,,,,,,,,,,,,,,,,,,,,,,,,,,,,,,,,,,,,,,,,,,,,,,,,,,,,,,,,,,,,,,,,,,,,,,,,,,,,,,,,,,,,,,,,,,,,,,,,,,,,,,,,,,,,,,,,,,,,,,,,,,,,,,,,,,,,,,,,
,,,,,,58c26f473977190001f54116,62b2d07f9a1407631b2ae152,2022-06-22_09h20.06.214,Colour_Asymmetry_Pilot,2022.1.3,Win32,59.85873339,62b2a6a25f2ba72662469a01,0,144,144,133,1,threefour,,,,,,,,,,,,,,,,,,,,,,,,,,,,,,,,,,,,,,,,,,,,,,,,,,,,,,,,,,,,,,,,,,,,,,,,,,,,,,,,,,,,,,,,,,,,,,,,,,,,,,,,,,,,,,,,,,,,,,,,,,,,,,,,,,,,,,,,,,,,,,,,,,,,,,,,
,,,,,,58c26f473977190001f54116,62b2d07f9a1407631b2ae152,2022-06-22_09h20.06.214,Colour_Asymmetry_Pilot,2022.1.3,Win32,59.85873339,62b2a6a25f2ba72662469a01,0,145,145,18,1,twoone,,,,,,,,,,,,,,,,,,,,,,,,,,,,,,,,,,,,,,,,,,,,,,,,,,,,,,,,,,,,,,,,,,,,,,,,,,,,,,,,,,,,,,,,,,,,,,,,,,,,,,,,,,,,,,,,,,,,,,,,,,,,,,,,,,,,,,,,,,,,,,,,,,,,,,,,
,,,,,,58c26f473977190001f54116,62b2d07f9a1407631b2ae152,2022-06-22_09h20.06.214,Colour_Asymmetry_Pilot,2022.1.3,Win32,59.85873339,62b2a6a25f2ba72662469a01,0,146,146,5,1,threefour,,,,,,,,,,,,,,,,,,,,,,,,,,,,,,,,,,,,,,,,,,,,,,,,,,,,,,,,,,,,,,,,,,,,,,,,,,,,,,,,,,,,,,,,,,,,,,,,,,,,,,,,,,,,,,,,,,,,,,,,,,,,,,,,,,,,,,,,,,,,,,,,,,,,,,,,
,,,,,,58c26f473977190001f54116,62b2d07f9a1407631b2ae152,2022-06-22_09h20.06.214,Colour_Asymmetry_Pilot,2022.1.3,Win32,59.85873339,62b2a6a25f2ba72662469a01,0,147,147,119,1,fourthree,,,,,,,,,,,,,,,,,,,,,,,,,,,,,,,,,,,,,,,,,,,,,,,,,,,,,,,,,,,,,,,,,,,,,,,,,,,,,,,,,,,,,,,,,,,,,,,,,,,,,,,,,,,,,,,,,,,,,,,,,,,,,,,,,,,,,,,,,,,,,,,,,,,,,,,,
,,,,,,58c26f473977190001f54116,62b2d07f9a1407631b2ae152,2022-06-22_09h20.06.214,Colour_Asymmetry_Pilot,2022.1.3,Win32,59.85873339,62b2a6a25f2ba72662469a01,0,148,148,50,1,twoone,,,,,,,,,,,,,,,,,,,,,,,,,,,,,,,,,,,,,,,,,,,,,,,,,,,,,,,,,,,,,,,,,,,,,,,,,,,,,,,,,,,,,,,,,,,,,,,,,,,,,,,,,,,,,,,,,,,,,,,,,,,,,,,,,,,,,,,,,,,,,,,,,,,,,,,,
,,,,,,58c26f473977190001f54116,62b2d07f9a1407631b2ae152,2022-06-22_09h20.06.214,Colour_Asymmetry_Pilot,2022.1.3,Win32,59.85873339,62b2a6a25f2ba72662469a01,0,149,149,72,1,onetwo,,,,,,,,,,,,,,,,,,,,,,,,,,,,,,,,,,,,,,,,,,,,,,,,,,,,,,,,,,,,,,,,,,,,,,,,,,,,,,,,,,,,,,,,,,,,,,,,,,,,,,,,,,,,,,,,,,,,,,,,,,,,,,,,,,,,,,,,,,,,,,,,,,,,,,,,
,,,,,,58c26f473977190001f54116,62b2d07f9a1407631b2ae152,2022-06-22_09h20.06.214,Colour_Asymmetry_Pilot,2022.1.3,Win32,59.85873339,62b2a6a25f2ba72662469a01,0,150,150,107,1,twofour,,,,,,,,,,,,,,,,,,,,,,,,,,,,,,,,,,,,,,,,,,,,,,,,,,,,,,,,,,,,,,,,,,,,,,,,,,,,,,,,,,,,,,,,,,,,,,,,,,,,,,,,,,,,,,,,,,,,,,,,,,,,,,,,,,,,,,,,,,,,,,,,,,,,,,,,
,,,,,,58c26f473977190001f54116,62b2d07f9a1407631b2ae152,2022-06-22_09h20.06.214,Colour_Asymmetry_Pilot,2022.1.3,Win32,59.85873339,62b2a6a25f2ba72662469a01,0,151,151,130,1,twoone,,,,,,,,,,,,,,,,,,,,,,,,,,,,,,,,,,,,,,,,,,,,,,,,,,,,,,,,,,,,,,,,,,,,,,,,,,,,,,,,,,,,,,,,,,,,,,,,,,,,,,,,,,,,,,,,,,,,,,,,,,,,,,,,,,,,,,,,,,,,,,,,,,,,,,,,
,,,,,,58c26f473977190001f54116,62b2d07f9a1407631b2ae152,2022-06-22_09h20.06.214,Colour_Asymmetry_Pilot,2022.1.3,Win32,59.85873339,62b2a6a25f2ba72662469a01,0,152,152,11,1,twofour,,,,,,,,,,,,,,,,,,,,,,,,,,,,,,,,,,,,,,,,,,,,,,,,,,,,,,,,,,,,,,,,,,,,,,,,,,,,,,,,,,,,,,,,,,,,,,,,,,,,,,,,,,,,,,,,,,,,,,,,,,,,,,,,,,,,,,,,,,,,,,,,,,,,,,,,
,,,,,,58c26f473977190001f54116,62b2d07f9a1407631b2ae152,2022-06-22_09h20.06.214,Colour_Asymmetry_Pilot,2022.1.3,Win32,59.85873339,62b2a6a25f2ba72662469a01,0,153,153,51,1,twofour,,,,,,,,,,,,,,,,,,,,,,,,,,,,,,,,,,,,,,,,,,,,,,,,,,,,,,,,,,,,,,,,,,,,,,,,,,,,,,,,,,,,,,,,,,,,,,,,,,,,,,,,,,,,,,,,,,,,,,,,,,,,,,,,,,,,,,,,,,,,,,,,,,,,,,,,
,,,,,,58c26f473977190001f54116,62b2d07f9a1407631b2ae152,2022-06-22_09h20.06.214,Colour_Asymmetry_Pilot,2022.1.3,Win32,59.85873339,62b2a6a25f2ba72662469a01,0,154,154,104,1,onetwo,,,,,,,,,,,,,,,,,,,,,,,,,,,,,,,,,,,,,,,,,,,,,,,,,,,,,,,,,,,,,,,,,,,,,,,,,,,,,,,,,,,,,,,,,,,,,,,,,,,,,,,,,,,,,,,,,,,,,,,,,,,,,,,,,,,,,,,,,,,,,,,,,,,,,,,,
,,,,,,58c26f473977190001f54116,62b2d07f9a1407631b2ae152,2022-06-22_09h20.06.214,Colour_Asymmetry_Pilot,2022.1.3,Win32,59.85873339,62b2a6a25f2ba72662469a01,0,155,155,52,1,threeone,,,,,,,,,,,,,,,,,,,,,,,,,,,,,,,,,,,,,,,,,,,,,,,,,,,,,,,,,,,,,,,,,,,,,,,,,,,,,,,,,,,,,,,,,,,,,,,,,,,,,,,,,,,,,,,,,,,,,,,,,,,,,,,,,,,,,,,,,,,,,,,,,,,,,,,,
,,,,,,58c26f473977190001f54116,62b2d07f9a1407631b2ae152,2022-06-22_09h20.06.214,Colour_Asymmetry_Pilot,2022.1.3,Win32,59.85873339,62b2a6a25f2ba72662469a01,0,156,156,42,1,twoone,,,,,,,,,,,,,,,,,,,,,,,,,,,,,,,,,,,,,,,,,,,,,,,,,,,,,,,,,,,,,,,,,,,,,,,,,,,,,,,,,,,,,,,,,,,,,,,,,,,,,,,,,,,,,,,,,,,,,,,,,,,,,,,,,,,,,,,,,,,,,,,,,,,,,,,,
,,,,,,58c26f473977190001f54116,62b2d07f9a1407631b2ae152,2022-06-22_09h20.06.214,Colour_Asymmetry_Pilot,2022.1.3,Win32,59.85873339,62b2a6a25f2ba72662469a01,0,157,157,78,1,fourtwo,,,,,,,,,,,,,,,,,,,,,,,,,,,,,,,,,,,,,,,,,,,,,,,,,,,,,,,,,,,,,,,,,,,,,,,,,,,,,,,,,,,,,,,,,,,,,,,,,,,,,,,,,,,,,,,,,,,,,,,,,,,,,,,,,,,,,,,,,,,,,,,,,,,,,,,,
,,,,,,58c26f473977190001f54116,62b2d07f9a1407631b2ae152,2022-06-22_09h20.06.214,Colour_Asymmetry_Pilot,2022.1.3,Win32,59.85873339,62b2a6a25f2ba72662469a01,0,158,158,118,1,fourtwo,,,,,,,,,,,,,,,,,,,,,,,,,,,,,,,,,,,,,,,,,,,,,,,,,,,,,,,,,,,,,,,,,,,,,,,,,,,,,,,,,,,,,,,,,,,,,,,,,,,,,,,,,,,,,,,,,,,,,,,,,,,,,,,,,,,,,,,,,,,,,,,,,,,,,,,,
,,,,,,58c26f473977190001f54116,62b2d07f9a1407631b2ae152,2022-06-22_09h20.06.214,Colour_Asymmetry_Pilot,2022.1.3,Win32,59.85873339,62b2a6a25f2ba72662469a01,0,159,159,28,1,threeone,,,,,,,,,,,,,,,,,,,,,,,,,,,,,,,,,,,,,,,,,,,,,,,,,,,,,,,,,,,,,,,,,,,,,,,,,,,,,,,,,,,,,,,,,,,,,,,,,,,,,,,,,,,,,,,,,,,,,,,,,,,,,,,,,,,,,,,,,,,,,,,,,,,,,,,,
,,,,,,58c26f473977190001f54116,62b2d07f9a1407631b2ae152,2022-06-22_09h20.06.214,Colour_Asymmetry_Pilot,2022.1.3,Win32,59.85873339,62b2a6a25f2ba72662469a01,0,160,160,0,1,onetwo,,,,,,,,,,,,,,,,,,,,,,,,,,,,,,,,,,,,,,,,,,,,,,,,,,,,,,,,,,,,,,,,,,,,,,,,,,,,,,,,,,,,,,,,,,,,,,,,,,,,,,,,,,,,,,,,,,,,,,,,,,,,,,,,,,,,,,,,,,,,,,,,,,,,,,,,
,,,,,,58c26f473977190001f54116,62b2d07f9a1407631b2ae152,2022-06-22_09h20.06.214,Colour_Asymmetry_Pilot,2022.1.3,Win32,59.85873339,62b2a6a25f2ba72662469a01,0,161,161,160,1,onetwo,,,,,,,,,,,,,,,,,,,,,,,,,,,,,,,,,,,,,,,,,,,,,,,,,,,,,,,,,,,,,,,,,,,,,,,,,,,,,,,,,,,,,,,,,,,,,,,,,,,,,,,,,,,,,,,,,,,,,,,,,,,,,,,,,,,,,,,,,,,,,,,,,,,,,,,,
,,,,,,58c26f473977190001f54116,62b2d07f9a1407631b2ae152,2022-06-22_09h20.06.214,Colour_Asymmetry_Pilot,2022.1.3,Win32,59.85873339,62b2a6a25f2ba72662469a01,,,,,,,space,12.0543,space,14.5662,space,29.072,space,5.8521,space,9.8109,space,4.7534,"[-0.2942,-0.24719999999999998,-0.357]",threefour,"[-0.24719999999999998,0.5213999999999999,-0.12959999999999994]",4,39.9592,40,72,1,0,0,response1disk_5,-4.799926758,6.399963379,1,0,0,rectangle_8,86.40002441,-49.60003662,1,0,0,response3disk_7,5,2,4,-5.600036621,1,0,0,rectangle_4,0,0,0,0,1,,,,,,,,,,,,,,,,,,,,,,,,,,,,,,,,,,,,,,,,,,,,,,,,,,,,,,,,,,,,,,,,,,,,,,,,,,,,,,,,,,,,,,,,,,,,,,,,,,,,,,,,
,,,,,,58c26f473977190001f54116,62b2d07f9a1407631b2ae152,2022-06-22_09h20.06.214,Colour_Asymmetry_Pilot,2022.1.3,Win32,59.85873339,62b2a6a25f2ba72662469a01,,,,,,,,,,,,,,,,,,,"[0.7176,-0.906,-0.6864]",fourtwo,"[0.7802,-0.23140000000000005,-0.20799999999999996]",4,3.4665,43.20007324,79.20001221,1,0,0,response1disk_5,15.20007324,4,1,0,0,rectangle_8,15.20007324,4,1,0,0,,,2,15.20007324,4,1,0,0,,1,0,1,0,1,,,,,,,,,,,,,,,,,,,,,,,,,,,,,,,,,,,,,,,,,,,,,,,,,,,,,,,,,,,,,,,,,,,,,,,,,,,,,,,,,,,,,,,,,,,,,,,,,,,,,,,,
,,,,,,58c26f473977190001f54116,62b2d07f9a1407631b2ae152,2022-06-22_09h20.06.214,Colour_Asymmetry_Pilot,2022.1.3,Win32,59.85873339,62b2a6a25f2ba72662469a01,,,,,,,,,,,,,,,,,,,"[0.9213999999999998,0.6391999999999998,-0.9922]",twoone,"[-0.26280000000000003,-0.4746,-0.2158]",-4,2.9836,-24,64.79998779,1,0,0,response7disk_5,-2.400024414,4,1,0,0,rectangle_8,-2.400024414,4,1,0,0,,,2,-2.400024414,4,1,0,0,,2,0,2,0,1,,,,,,,,,,,,,,,,,,,,,,,,,,,,,,,,,,,,,,,,,,,,,,,,,,,,,,,,,,,,,,,,,,,,,,,,,,,,,,,,,,,,,,,,,,,,,,,,,,,,,,,,
,,,,,,58c26f473977190001f54116,62b2d07f9a1407631b2ae152,2022-06-22_09h20.06.214,Colour_Asymmetry_Pilot,2022.1.3,Win32,59.85873339,62b2a6a25f2ba72662469a01,,,,,,,,,,,,,,,,,,,"[-0.24719999999999998,0.5213999999999999,-0.12959999999999994]",threeone,"[0.6547999999999998,-0.043199999999999905,-0.011800000000000033]",-3,2.0001,-64.79992676,28.79998779,1,0,0,response7disk_5,-4,-6.400024414,1,0,0,rectangle_8,89.59997559,-41.60003662,1,0,0,response3disk_7,5,2,6.400024414,-9.600036621,1,0,0,rectangle_4,3,0,3,0,1,,,,,,,,,,,,,,,,,,,,,,,,,,,,,,,,,,,,,,,,,,,,,,,,,,,,,,,,,,,,,,,,,,,,,,,,,,,,,,,,,,,,,,,,,,,,,,,,,,,,,,,,
,,,,,,58c26f473977190001f54116,62b2d07f9a1407631b2ae152,2022-06-22_09h20.06.214,Colour_Asymmetry_Pilot,2022.1.3,Win32,59.85873339,62b2a6a25f2ba72662469a01,,,,,,,,,,,,,,,,,,,"[0.7646000000000002,0.07440000000000002,0.2704]",fourthree,"[0.7802,-0.23140000000000005,-0.20799999999999996]",4,1.0659,28.80004883,63.20001221,1,0,0,response1disk_5,16,-1.600036621,1,0,0,rectangle_8,16,-1.600036621,1,0,0,,,2,16,-1.600036621,1,0,0,,4,0,4,0,1,,,,,,,,,,,,,,,,,,,,,,,,,,,,,,,,,,,,,,,,,,,,,,,,,,,,,,,,,,,,,,,,,,,,,,,,,,,,,,,,,,,,,,,,,,,,,,,,,,,,,,,,
,,,,,,58c26f473977190001f54116,62b2d07f9a1407631b2ae152,2022-06-22_09h20.06.214,Colour_Asymmetry_Pilot,2022.1.3,Win32,59.85873339,62b2a6a25f2ba72662469a01,,,,,,,,,,,,,,,,,,,"[0.2862,0.7802,0.3568]",twoone,"[-0.5688,-0.08239999999999992,-0.1844]",4,0.7668,36,64,1,0,0,response1disk_5,18.40002441,-0.799987793,1,0,0,rectangle_8,18.40002441,-0.799987793,1,0,0,,,2,18.40002441,-0.799987793,1,0,0,,5,0,5,0,1,,,,,,,,,,,,,,,,,,,,,,,,,,,,,,,,,,,,,,,,,,,,,,,,,,,,,,,,,,,,,,,,,,,,,,,,,,,,,,,,,,,,,,,,,,,,,,,,,,,,,,,,
,,,,,,58c26f473977190001f54116,62b2d07f9a1407631b2ae152,2022-06-22_09h20.06.214,Colour_Asymmetry_Pilot,2022.1.3,Win32,59.85873339,62b2a6a25f2ba72662469a01,,,,,,,,,,,,,,,,,,,"[0.6625999999999999,0.4980000000000002,-0.357]",fourtwo,"[1,0.12939999999999996,-1]",3,1.45,68,24.79998779,1,0,0,response1disk_5,28.80004883,4.799987793,1,0,0,rectangle_8,28.80004883,4.799987793,1,0,0,,,2,28.80004883,4.799987793,1,0,0,,6,0,6,0,1,,,,,,,,,,,,,,,,,,,,,,,,,,,,,,,,,,,,,,,,,,,,,,,,,,,,,,,,,,,,,,,,,,,,,,,,,,,,,,,,,,,,,,,,,,,,,,,,,,,,,,,,
,,,,,,58c26f473977190001f54116,62b2d07f9a1407631b2ae152,2022-06-22_09h20.06.214,Colour_Asymmetry_Pilot,2022.1.3,Win32,59.85873339,62b2a6a25f2ba72662469a01,,,,,,,,,,,,,,,,,,,,onethree,,-2,1.3996,,,,,,,,,,,,,,,,,,,,,,,,,,,,,,,,space,4.903,"[-0.9688,-0.38039999999999996,-0.41979999999999995]","[0.7802,-0.23140000000000005,-0.20799999999999996]",-64,-21.60003662,1,0,0,response5disk,-4,9.599975586,1,0,0,rectangle,-4,9.599975586,1,0,0,,2,0.0022,0,-4,9.599975586,1,0,0,0,0,0,56,1,56,first,,,,,,,,,,,,,,,,,,,,,,,,,,,,,,,,,,,,,,,,,,,,,,,,,,,,,,,,,,,,,,,,,,,
,,,,,,58c26f473977190001f54116,62b2d07f9a1407631b2ae152,2022-06-22_09h20.06.214,Colour_Asymmetry_Pilot,2022.1.3,Win32,59.85873339,62b2a6a25f2ba72662469a01,,,,,,,,,,,,,,,,,,,,twoone,,2,1.1669,,,,,,,,,,,,,,,,,,,,,,,,,,,,,,,,,,"[-0.01980000000000004,-0.5138,-0.38039999999999996]","[0.9686000000000001,0.5763999999999998,0.11359999999999992]",69.59997559,-30.40002441,1,0,0,response3disk,24,-11.20001221,1,0,0,rectangle,24,-11.20001221,1,0,0,,3,0.0033,0,24,-11.20001221,1,0,0,0,1,1,147,1,66,second,,,,,,,,,,,,,,,,,,,,,,,,,,,,,,,,,,,,,,,,,,,,,,,,,,,,,,,,,,,,,,,,,,,
,,,,,,58c26f473977190001f54116,62b2d07f9a1407631b2ae152,2022-06-22_09h20.06.214,Colour_Asymmetry_Pilot,2022.1.3,Win32,59.85873339,62b2a6a25f2ba72662469a01,,,,,,,,,,,,,,,,,,,,twofour,,4,0.7503,,,,,,,,,,,,,,,,,,,,,,,,,,,,,,,,,,"[0.7802,-0.23140000000000005,-0.20799999999999996]","[0.8115999999999999,-0.0040000000000000036,-0.09819999999999995]",42.40002441,68.79998779,1,0,0,response1disk,23.20007324,-11.20001221,1,0,0,rectangle,23.20007324,-11.20001221,1,0,0,,1,0.0022,0,23.20007324,-11.20001221,1,0,0,0,2,2,23,1,23,first,,,,,,,,,,,,,,,,,,,,,,,,,,,,,,,,,,,,,,,,,,,,,,,,,,,,,,,,,,,,,,,,,,,
,,,,,,58c26f473977190001f54116,62b2d07f9a1407631b2ae152,2022-06-22_09h20.06.214,Colour_Asymmetry_Pilot,2022.1.3,Win32,59.85873339,62b2a6a25f2ba72662469a01,,,,,,,,,,,,,,,,,,,,fourthree,,4,0.6005,,,,,,,,,,,,,,,,,,,,,,,,,,,,,,,,,,"[-0.09019999999999995,0.44300000000000006,0.5371999999999999]","[-0.9138,-0.5296000000000001,-0.5529999999999999]",43.20007324,76,1,0,0,response1disk,29.59997559,-0.799987793,1,0,0,rectangle,29.59997559,-0.799987793,1,0,0,,1,0.0001,0,29.59997559,-0.799987793,1,0,0,0,3,3,124,1,43,second,,,,,,,,,,,,,,,,,,,,,,,,,,,,,,,,,,,,,,,,,,,,,,,,,,,,,,,,,,,,,,,,,,,
,,,,,,58c26f473977190001f54116,62b2d07f9a1407631b2ae152,2022-06-22_09h20.06.214,Colour_Asymmetry_Pilot,2022.1.3,Win32,59.85873339,62b2a6a25f2ba72662469a01,,,,,,,,,,,,,,,,,,,,onethree,,3,0.8164,,,,,,,,,,,,,,,,,,,,,,,,,,,,,,,,,,"[0.9686000000000001,0.5763999999999998,0.11359999999999992]","[0.5449999999999999,-0.31000000000000005,-0.0354000000000001]",82.40002441,30.39996338,1,0,0,response1disk,16.80004883,-19.20001221,1,0,0,rectangle,16.80004883,-19.20001221,1,0,0,1,1,0.0003,0,16.80004883,-19.20001221,1,0,0,0,4,4,110,1,29,second,,,,,,,,,,,,,,,,,,,,,,,,,,,,,,,,,,,,,,,,,,,,,,,,,,,,,,,,,,,,,,,,,,,
,,,,,,58c26f473977190001f54116,62b2d07f9a1407631b2ae152,2022-06-22_09h20.06.214,Colour_Asymmetry_Pilot,2022.1.3,Win32,59.85873339,62b2a6a25f2ba72662469a01,,,,,,,,,,,,,,,,,,,,threeone,,4,0.4512,,,,,,,,,,,,,,,,,,,,,,,,,,,,,,,,,,"[0.3802000000000001,0.19199999999999995,-0.6394]","[0.6625999999999999,0.4980000000000002,-0.357]",30.40002441,57.59997559,1,0,0,response1disk,37.59997559,-19.20001221,1,0,0,rectangle,37.59997559,-19.20001221,1,0,0,2,2,0.0021,0,37.59997559,-19.20001221,1,0,0,0,5,5,157,1,76,second,,,,,,,,,,,,,,,,,,,,,,,,,,,,,,,,,,,,,,,,,,,,,,,,,,,,,,,,,,,,,,,,,,,
,,,,,,58c26f473977190001f54116,62b2d07f9a1407631b2ae152,2022-06-22_09h20.06.214,Colour_Asymmetry_Pilot,2022.1.3,Win32,59.85873339,62b2a6a25f2ba72662469a01,,,,,,,,,,,,,,,,,,,,twoone,,3,0.6665,,,,,,,,,,,,,,,,,,,,,,,,,,,,,,,,,,"[-0.5452,-0.608,0.2470000000000001]","[-0.9216,-0.5529999999999999,-0.3962]",77.59997559,36,1,0,0,response1disk,28,-8,1,0,0,rectangle,28,-8,1,0,0,2,2,0.0002,0,28,-8,1,0,0,0,6,6,121,1,40,second,,,,,,,,,,,,,,,,,,,,,,,,,,,,,,,,,,,,,,,,,,,,,,,,,,,,,,,,,,,,,,,,,,,
,,,,,,58c26f473977190001f54116,62b2d07f9a1407631b2ae152,2022-06-22_09h20.06.214,Colour_Asymmetry_Pilot,2022.1.3,Win32,59.85873339,62b2a6a25f2ba72662469a01,,,,,,,,,,,,,,,,,,,,threefour,,-3,0.8,,,,,,,,,,,,,,,,,,,,,,,,,,,,,,,,,,"[0.19199999999999995,0.18419999999999992,0.5136000000000001]","[-0.9844,-0.9688,-0.9922]",-51.19995117,20,1,0,0,response7disk,16.80004883,3.200012207,1,0,0,rectangle,16.80004883,3.200012207,1,0,0,2,1,0.0016,0,16.80004883,3.200012207,1,0,0,0,7,7,67,1,67,first,,,,,,,,,,,,,,,,,,,,,,,,,,,,,,,,,,,,,,,,,,,,,,,,,,,,,,,,,,,,,,,,,,,
,,,,,,58c26f473977190001f54116,62b2d07f9a1407631b2ae152,2022-06-22_09h20.06.214,Colour_Asymmetry_Pilot,2022.1.3,Win32,59.85873339,62b2a6a25f2ba72662469a01,,,,,,,,,,,,,,,,,,,,threeone,,2,0.8336,,,,,,,,,,,,,,,,,,,,,,,,,,,,,,,,,,"[-0.24719999999999998,0.5213999999999999,-0.12959999999999994]","[0.05879999999999996,0.2784,0.5841999999999998]",70.40002441,-58.40002441,1,0,0,response3disk,-20.79992676,-12.79998779,1,0,0,rectangle,-20.79992676,-12.79998779,1,0,0,-2,2,0.0009,0,-20.79992676,-12.79998779,1,0,0,0,8,8,7,1,7,first,,,,,,,,,,,,,,,,,,,,,,,,,,,,,,,,,,,,,,,,,,,,,,,,,,,,,,,,,,,,,,,,,,,
,,,,,,58c26f473977190001f54116,62b2d07f9a1407631b2ae152,2022-06-22_09h20.06.214,Colour_Asymmetry_Pilot,2022.1.3,Win32,59.85873339,62b2a6a25f2ba72662469a01,,,,,,,,,,,,,,,,,,,,onetwo,,2,1.4828,,,,,,,,,,,,,,,,,,,,,,,,,,,,,,,,,,"[0.23120000000000007,-0.7726,-0.34120000000000006]","[-0.9688,-0.7412000000000001,-0.4902000000000001]",68,-39.20001221,1,0,0,response3disk,-16,-12,1,0,0,rectangle,-16,-12,1,0,0,-2,3,0.0009,0,-16,-12,1,0,0,0,9,9,127,1,46,second,,,,,,,,,,,,,,,,,,,,,,,,,,,,,,,,,,,,,,,,,,,,,,,,,,,,,,,,,,,,,,,,,,,
,,,,,,58c26f473977190001f54116,62b2d07f9a1407631b2ae152,2022-06-22_09h20.06.214,Colour_Asymmetry_Pilot,2022.1.3,Win32,59.85873339,62b2a6a25f2ba72662469a01,,,,,,,,,,,,,,,,,,,,onethree,,3,0.7672,,,,,,,,,,,,,,,,,,,,,,,,,,,,,,,,,,"[0.40379999999999994,0.09000000000000008,0.44300000000000006]","[0.23120000000000007,-0.7726,-0.34120000000000006]",73.59997559,44,1,0,0,response1disk,25.59997559,-7.200012207,1,0,0,rectangle,25.59997559,-7.200012207,1,0,0,-2,1,0.0007,0,25.59997559,-7.200012207,1,0,0,0,10,10,48,1,48,first,,,,,,,,,,,,,,,,,,,,,,,,,,,,,,,,,,,,,,,,,,,,,,,,,,,,,,,,,,,,,,,,,,,
,,,,,,58c26f473977190001f54116,62b2d07f9a1407631b2ae152,2022-06-22_09h20.06.214,Colour_Asymmetry_Pilot,2022.1.3,Win32,59.85873339,62b2a6a25f2ba72662469a01,,,,,,,,,,,,,,,,,,,,onetwo,,1,0.7159,,,,,,,,,,,,,,,,,,,,,,,,,,,,,,,,,,"[-0.9216,-0.5529999999999999,-0.3962]","[-0.17659999999999998,-0.2864,-0.8354]",29.59997559,-85.60003662,1,0,0,response3disk,2.400024414,-8,1,0,0,rectangle,2.400024414,-8,1,0,0,-2,1,0.0002,0,2.400024414,-8,1,0,0,0,11,11,38,1,38,first,,,,,,,,,,,,,,,,,,,,,,,,,,,,,,,,,,,,,,,,,,,,,,,,,,,,,,,,,,,,,,,,,,,
,,,,,,58c26f473977190001f54116,62b2d07f9a1407631b2ae152,2022-06-22_09h20.06.214,Colour_Asymmetry_Pilot,2022.1.3,Win32,59.85873339,62b2a6a25f2ba72662469a01,,,,,,,,,,,,,,,,,,,,onethree,,4,0.3664,,,,,,,,,,,,,,,,,,,,,,,,,,,,,,,,,,"[-0.9688,-0.38039999999999996,-0.41979999999999995]","[-0.4276,0.0038000000000000256,-0.3256]",40.80004883,75.20001221,1,0,0,response1disk,28,-16.79998779,1,0,0,rectangle,28,-16.79998779,1,0,0,2,2,0.0013,0,28,-16.79998779,1,0,0,0,12,12,35,1,35,first,,,,,,,,,,,,,,,,,,,,,,,,,,,,,,,,,,,,,,,,,,,,,,,,,,,,,,,,,,,,,,,,,,,
,,,,,,58c26f473977190001f54116,62b2d07f9a1407631b2ae152,2022-06-22_09h20.06.214,Colour_Asymmetry_Pilot,2022.1.3,Win32,59.85873339,62b2a6a25f2ba72662469a01,,,,,,,,,,,,,,,,,,,,onethree,,-1,2.4669,,,,,,,,,,,,,,,,,,,,,,,,,,,,,,,,,,"[0.7802,-0.23140000000000005,-0.20799999999999996]","[-0.09019999999999995,0.44300000000000006,0.5371999999999999]",-30.40002441,-84.79998779,1,0,0,response5disk,-6.400024414,18.39996338,1,0,0,rectangle,-6.400024414,18.39996338,1,0,0,2,3,0.0018,0,-6.400024414,18.39996338,1,0,0,0,13,13,133,1,52,second,,,,,,,,,,,,,,,,,,,,,,,,,,,,,,,,,,,,,,,,,,,,,,,,,,,,,,,,,,,,,,,,,,,
,,,,,,58c26f473977190001f54116,62b2d07f9a1407631b2ae152,2022-06-22_09h20.06.214,Colour_Asymmetry_Pilot,2022.1.3,Win32,59.85873339,62b2a6a25f2ba72662469a01,,,,,,,,,,,,,,,,,,,,twoone,,-1,0.5331,,,,,,,,,,,,,,,,,,,,,,,,,,,,,,,,,,"[-0.4276,0.0038000000000000256,-0.3256]","[0.9372,0.20779999999999998,0.2704]",-35.19995117,-70.40002441,1,0,0,response5disk,3.200073242,-6.400024414,1,0,0,rectangle,3.200073242,-6.400024414,1,0,0,2,2,0.0016,0,3.200073242,-6.400024414,1,0,0,0,14,14,77,1,77,first,,,,,,,,,,,,,,,,,,,,,,,,,,,,,,,,,,,,,,,,,,,,,,,,,,,,,,,,,,,,,,,,,,,
,,,,,,58c26f473977190001f54116,62b2d07f9a1407631b2ae152,2022-06-22_09h20.06.214,Colour_Asymmetry_Pilot,2022.1.3,Win32,59.85873339,62b2a6a25f2ba72662469a01,,,,,,,,,,,,,,,,,,,,fourthree,,2,1.5004,,,,,,,,,,,,,,,,,,,,,,,,,,,,,,,,,,"[0.9763999999999999,0.8588,-0.05900000000000005]","[0.8274000000000001,-0.5844,-0.9452]",72,-26.40002441,1,0,0,response3disk,-3.199951172,-8.799987793,1,0,0,rectangle,-3.199951172,-8.799987793,1,0,0,2,1,0.0013,0,-3.199951172,-8.799987793,1,0,0,0,15,15,90,1,9,second,,,,,,,,,,,,,,,,,,,,,,,,,,,,,,,,,,,,,,,,,,,,,,,,,,,,,,,,,,,,,,,,,,,
,,,,,,58c26f473977190001f54116,62b2d07f9a1407631b2ae152,2022-06-22_09h20.06.214,Colour_Asymmetry_Pilot,2022.1.3,Win32,59.85873339,62b2a6a25f2ba72662469a01,,,,,,,,,,,,,,,,,,,,twofour,,4,0.6662,,,,,,,,,,,,,,,,,,,,,,,,,,,,,,,,,,"[-0.0040000000000000036,0.02739999999999987,-0.08239999999999992]","[-0.6706000000000001,-0.6157999999999999,-0.6786]",45.59997559,68.79998779,1,0,0,response1disk,21.59997559,-11.20001221,1,0,0,rectangle,21.59997559,-11.20001221,1,0,0,2,1,1E-04,0,21.59997559,-11.20001221,1,0,0,0,16,16,126,1,45,second,,,,,,,,,,,,,,,,,,,,,,,,,,,,,,,,,,,,,,,,,,,,,,,,,,,,,,,,,,,,,,,,,,,
,,,,,,58c26f473977190001f54116,62b2d07f9a1407631b2ae152,2022-06-22_09h20.06.214,Colour_Asymmetry_Pilot,2022.1.3,Win32,59.85873339,62b2a6a25f2ba72662469a01,,,,,,,,,,,,,,,,,,,,fourthree,,3,0.5168,,,,,,,,,,,,,,,,,,,,,,,,,,,,,,,,,,"[0.30180000000000007,-0.7884,-0.9844]","[0.9686000000000001,0.3802000000000001,0.19999999999999996]",76,28.79998779,1,0,0,response1disk,8.800048828,-21.60003662,1,0,0,rectangle,8.800048828,-21.60003662,1,0,0,2,2,0.0021,0,8.800048828,-21.60003662,1,0,0,0,17,17,128,1,47,second,,,,,,,,,,,,,,,,,,,,,,,,,,,,,,,,,,,,,,,,,,,,,,,,,,,,,,,,,,,,,,,,,,,
