trials.thisRepN,trials.thisTrialN,trials.thisN,trials.thisIndex,trials.ran,Colourcodes,participant,session,date,expName,psychopyVersion,OS,frameRate,study_id,trials_4.thisRepN,trials_4.thisTrialN,trials_4.thisN,trials_4.thisIndex,trials_4.ran,StimulusPos,key_resp.keys,key_resp.rt,key_resp_2.keys,key_resp_2.rt,key_resp_15.keys,key_resp_15.rt,key_resp_17.keys,key_resp_17.rt,key_resp_9.keys,key_resp_9.rt,key_resp_10.keys,key_resp_10.rt,Circle1_col,Ecc,Circle2_col,similarity,response_time,mouse_5.x,mouse_5.y,mouse_5.leftButton,mouse_5.midButton,mouse_5.rightButton,mouse_5.clicked_name,mouse_10.x,mouse_10.y,mouse_10.leftButton,mouse_10.midButton,mouse_10.rightButton,mouse_10.clicked_name,mouse_7.x,mouse_7.y,mouse_7.leftButton,mouse_7.midButton,mouse_7.rightButton,catchnumberprac,mouse_6.x,mouse_6.y,mouse_6.leftButton,mouse_6.midButton,mouse_6.rightButton,duringprac.thisRepN,duringprac.thisTrialN,duringprac.thisN,duringprac.thisIndex,duringprac.ran,mouse_7.clicked_name,catchprac,mouse_6.clicked_name,key_resp_22.keys,key_resp_22.rt,Circle1_colour,Circle2_colour,mouse.x,mouse.y,mouse.leftButton,mouse.midButton,mouse.rightButton,mouse.clicked_name,mouse_2.x,mouse_2.y,mouse_2.leftButton,mouse_2.midButton,mouse_2.rightButton,mouse_2.clicked_name,mouse_3.x,mouse_3.y,mouse_3.leftButton,mouse_3.midButton,mouse_3.rightButton,catchresponse,catchnumber,response_time_catch,Catch,mouse_11.x,mouse_11.y,mouse_11.leftButton,mouse_11.midButton,mouse_11.rightButton,trials_2.thisRepN,trials_2.thisTrialN,trials_2.thisN,trials_2.thisIndex,trials_2.ran,Colourpair,Temporder,mouse_3.clicked_name,mouse_11.clicked_name,trials_3.thisRepN,trials_3.thisTrialN,trials_3.thisN,trials_3.thisIndex,trials_3.ran,key_resp_instr_Ishi.keys,key_resp_instr_Ishi.rt,Ishi_trial_keyresp.keys,Ishi_trial_keyresp.rt,Ishi_textbox.text,Ishi_loop.thisRepN,Ishi_loop.thisTrialN,Ishi_loop.thisN,Ishi_loop.thisIndex,Ishi_loop.ran,imageaddress,textbox.text,mouse_4.x,mouse_4.y,mouse_4.leftButton,mouse_4.midButton,mouse_4.rightButton,mouse_4.clicked_name,textbox_2.text,mouse_8.x,mouse_8.y,mouse_8.leftButton,mouse_8.midButton,mouse_8.rightButton,mouse_8.clicked_name,textbox_3.text,mouse_9.x,mouse_9.y,mouse_9.leftButton,mouse_9.midButton,mouse_9.rightButton,mouse_9.clicked_name,textbox_4.text,mouse_12.x,mouse_12.y,mouse_12.leftButton,mouse_12.midButton,mouse_12.rightButton,mouse_12.clicked_name,textbox_5.text,mouse_13.x,mouse_13.y,mouse_13.leftButton,mouse_13.midButton,mouse_13.rightButton,mouse_13.clicked_name,textbox_6.text,mouse_14.x,mouse_14.y,mouse_14.leftButton,mouse_14.midButton,mouse_14.rightButton,mouse_14.clicked_name,textbox_7.text,mouse_15.x,mouse_15.y,mouse_15.leftButton,mouse_15.midButton,mouse_15.rightButton,mouse_15.clicked_name
0,0,0,55,1,,5f980a192b5a61051e949f4b,62bbf988ef77b8322f668d17,2022-06-29_09h12.21.221,Colour_Asymmetry_Pilot,2022.1.3,Win32,59.94125757,62bbe60bf3d75ef465d3e404,,,,,,,,,,,,,,,,,,,,,,,,,,,,,,,,,,,,,,,,,,,,,,,,,,,,,,,,,,,,,,,,,,,,,,,,,,,,,,,,,,,,,,,,,,,,,,,,,,,,,,,,,,,,,,,,,,,,,,,,,,,,,,,,,,,,,,,,,,,,,,,,,,,,,,,,,,,,,,
0,1,1,27,1,,5f980a192b5a61051e949f4b,62bbf988ef77b8322f668d17,2022-06-29_09h12.21.221,Colour_Asymmetry_Pilot,2022.1.3,Win32,59.94125757,62bbe60bf3d75ef465d3e404,,,,,,,,,,,,,,,,,,,,,,,,,,,,,,,,,,,,,,,,,,,,,,,,,,,,,,,,,,,,,,,,,,,,,,,,,,,,,,,,,,,,,,,,,,,,,,,,,,,,,,,,,,,,,,,,,,,,,,,,,,,,,,,,,,,,,,,,,,,,,,,,,,,,,,,,,,,,,,
0,2,2,21,1,,5f980a192b5a61051e949f4b,62bbf988ef77b8322f668d17,2022-06-29_09h12.21.221,Colour_Asymmetry_Pilot,2022.1.3,Win32,59.94125757,62bbe60bf3d75ef465d3e404,,,,,,,,,,,,,,,,,,,,,,,,,,,,,,,,,,,,,,,,,,,,,,,,,,,,,,,,,,,,,,,,,,,,,,,,,,,,,,,,,,,,,,,,,,,,,,,,,,,,,,,,,,,,,,,,,,,,,,,,,,,,,,,,,,,,,,,,,,,,,,,,,,,,,,,,,,,,,,
0,3,3,91,1,,5f980a192b5a61051e949f4b,62bbf988ef77b8322f668d17,2022-06-29_09h12.21.221,Colour_Asymmetry_Pilot,2022.1.3,Win32,59.94125757,62bbe60bf3d75ef465d3e404,,,,,,,,,,,,,,,,,,,,,,,,,,,,,,,,,,,,,,,,,,,,,,,,,,,,,,,,,,,,,,,,,,,,,,,,,,,,,,,,,,,,,,,,,,,,,,,,,,,,,,,,,,,,,,,,,,,,,,,,,,,,,,,,,,,,,,,,,,,,,,,,,,,,,,,,,,,,,,
0,4,4,37,1,,5f980a192b5a61051e949f4b,62bbf988ef77b8322f668d17,2022-06-29_09h12.21.221,Colour_Asymmetry_Pilot,2022.1.3,Win32,59.94125757,62bbe60bf3d75ef465d3e404,,,,,,,,,,,,,,,,,,,,,,,,,,,,,,,,,,,,,,,,,,,,,,,,,,,,,,,,,,,,,,,,,,,,,,,,,,,,,,,,,,,,,,,,,,,,,,,,,,,,,,,,,,,,,,,,,,,,,,,,,,,,,,,,,,,,,,,,,,,,,,,,,,,,,,,,,,,,,,
0,5,5,33,1,,5f980a192b5a61051e949f4b,62bbf988ef77b8322f668d17,2022-06-29_09h12.21.221,Colour_Asymmetry_Pilot,2022.1.3,Win32,59.94125757,62bbe60bf3d75ef465d3e404,,,,,,,,,,,,,,,,,,,,,,,,,,,,,,,,,,,,,,,,,,,,,,,,,,,,,,,,,,,,,,,,,,,,,,,,,,,,,,,,,,,,,,,,,,,,,,,,,,,,,,,,,,,,,,,,,,,,,,,,,,,,,,,,,,,,,,,,,,,,,,,,,,,,,,,,,,,,,,
0,6,6,73,1,,5f980a192b5a61051e949f4b,62bbf988ef77b8322f668d17,2022-06-29_09h12.21.221,Colour_Asymmetry_Pilot,2022.1.3,Win32,59.94125757,62bbe60bf3d75ef465d3e404,,,,,,,,,,,,,,,,,,,,,,,,,,,,,,,,,,,,,,,,,,,,,,,,,,,,,,,,,,,,,,,,,,,,,,,,,,,,,,,,,,,,,,,,,,,,,,,,,,,,,,,,,,,,,,,,,,,,,,,,,,,,,,,,,,,,,,,,,,,,,,,,,,,,,,,,,,,,,,
0,7,7,60,1,,5f980a192b5a61051e949f4b,62bbf988ef77b8322f668d17,2022-06-29_09h12.21.221,Colour_Asymmetry_Pilot,2022.1.3,Win32,59.94125757,62bbe60bf3d75ef465d3e404,,,,,,,,,,,,,,,,,,,,,,,,,,,,,,,,,,,,,,,,,,,,,,,,,,,,,,,,,,,,,,,,,,,,,,,,,,,,,,,,,,,,,,,,,,,,,,,,,,,,,,,,,,,,,,,,,,,,,,,,,,,,,,,,,,,,,,,,,,,,,,,,,,,,,,,,,,,,,,
0,8,8,40,1,,5f980a192b5a61051e949f4b,62bbf988ef77b8322f668d17,2022-06-29_09h12.21.221,Colour_Asymmetry_Pilot,2022.1.3,Win32,59.94125757,62bbe60bf3d75ef465d3e404,,,,,,,,,,,,,,,,,,,,,,,,,,,,,,,,,,,,,,,,,,,,,,,,,,,,,,,,,,,,,,,,,,,,,,,,,,,,,,,,,,,,,,,,,,,,,,,,,,,,,,,,,,,,,,,,,,,,,,,,,,,,,,,,,,,,,,,,,,,,,,,,,,,,,,,,,,,,,,
0,9,9,67,1,,5f980a192b5a61051e949f4b,62bbf988ef77b8322f668d17,2022-06-29_09h12.21.221,Colour_Asymmetry_Pilot,2022.1.3,Win32,59.94125757,62bbe60bf3d75ef465d3e404,,,,,,,,,,,,,,,,,,,,,,,,,,,,,,,,,,,,,,,,,,,,,,,,,,,,,,,,,,,,,,,,,,,,,,,,,,,,,,,,,,,,,,,,,,,,,,,,,,,,,,,,,,,,,,,,,,,,,,,,,,,,,,,,,,,,,,,,,,,,,,,,,,,,,,,,,,,,,,
0,10,10,4,1,,5f980a192b5a61051e949f4b,62bbf988ef77b8322f668d17,2022-06-29_09h12.21.221,Colour_Asymmetry_Pilot,2022.1.3,Win32,59.94125757,62bbe60bf3d75ef465d3e404,,,,,,,,,,,,,,,,,,,,,,,,,,,,,,,,,,,,,,,,,,,,,,,,,,,,,,,,,,,,,,,,,,,,,,,,,,,,,,,,,,,,,,,,,,,,,,,,,,,,,,,,,,,,,,,,,,,,,,,,,,,,,,,,,,,,,,,,,,,,,,,,,,,,,,,,,,,,,,
0,11,11,10,1,,5f980a192b5a61051e949f4b,62bbf988ef77b8322f668d17,2022-06-29_09h12.21.221,Colour_Asymmetry_Pilot,2022.1.3,Win32,59.94125757,62bbe60bf3d75ef465d3e404,,,,,,,,,,,,,,,,,,,,,,,,,,,,,,,,,,,,,,,,,,,,,,,,,,,,,,,,,,,,,,,,,,,,,,,,,,,,,,,,,,,,,,,,,,,,,,,,,,,,,,,,,,,,,,,,,,,,,,,,,,,,,,,,,,,,,,,,,,,,,,,,,,,,,,,,,,,,,,
0,12,12,7,1,,5f980a192b5a61051e949f4b,62bbf988ef77b8322f668d17,2022-06-29_09h12.21.221,Colour_Asymmetry_Pilot,2022.1.3,Win32,59.94125757,62bbe60bf3d75ef465d3e404,,,,,,,,,,,,,,,,,,,,,,,,,,,,,,,,,,,,,,,,,,,,,,,,,,,,,,,,,,,,,,,,,,,,,,,,,,,,,,,,,,,,,,,,,,,,,,,,,,,,,,,,,,,,,,,,,,,,,,,,,,,,,,,,,,,,,,,,,,,,,,,,,,,,,,,,,,,,,,
0,13,13,76,1,,5f980a192b5a61051e949f4b,62bbf988ef77b8322f668d17,2022-06-29_09h12.21.221,Colour_Asymmetry_Pilot,2022.1.3,Win32,59.94125757,62bbe60bf3d75ef465d3e404,,,,,,,,,,,,,,,,,,,,,,,,,,,,,,,,,,,,,,,,,,,,,,,,,,,,,,,,,,,,,,,,,,,,,,,,,,,,,,,,,,,,,,,,,,,,,,,,,,,,,,,,,,,,,,,,,,,,,,,,,,,,,,,,,,,,,,,,,,,,,,,,,,,,,,,,,,,,,,
0,14,14,88,1,,5f980a192b5a61051e949f4b,62bbf988ef77b8322f668d17,2022-06-29_09h12.21.221,Colour_Asymmetry_Pilot,2022.1.3,Win32,59.94125757,62bbe60bf3d75ef465d3e404,,,,,,,,,,,,,,,,,,,,,,,,,,,,,,,,,,,,,,,,,,,,,,,,,,,,,,,,,,,,,,,,,,,,,,,,,,,,,,,,,,,,,,,,,,,,,,,,,,,,,,,,,,,,,,,,,,,,,,,,,,,,,,,,,,,,,,,,,,,,,,,,,,,,,,,,,,,,,,
0,15,15,54,1,,5f980a192b5a61051e949f4b,62bbf988ef77b8322f668d17,2022-06-29_09h12.21.221,Colour_Asymmetry_Pilot,2022.1.3,Win32,59.94125757,62bbe60bf3d75ef465d3e404,,,,,,,,,,,,,,,,,,,,,,,,,,,,,,,,,,,,,,,,,,,,,,,,,,,,,,,,,,,,,,,,,,,,,,,,,,,,,,,,,,,,,,,,,,,,,,,,,,,,,,,,,,,,,,,,,,,,,,,,,,,,,,,,,,,,,,,,,,,,,,,,,,,,,,,,,,,,,,
0,16,16,20,1,,5f980a192b5a61051e949f4b,62bbf988ef77b8322f668d17,2022-06-29_09h12.21.221,Colour_Asymmetry_Pilot,2022.1.3,Win32,59.94125757,62bbe60bf3d75ef465d3e404,,,,,,,,,,,,,,,,,,,,,,,,,,,,,,,,,,,,,,,,,,,,,,,,,,,,,,,,,,,,,,,,,,,,,,,,,,,,,,,,,,,,,,,,,,,,,,,,,,,,,,,,,,,,,,,,,,,,,,,,,,,,,,,,,,,,,,,,,,,,,,,,,,,,,,,,,,,,,,
0,17,17,92,1,,5f980a192b5a61051e949f4b,62bbf988ef77b8322f668d17,2022-06-29_09h12.21.221,Colour_Asymmetry_Pilot,2022.1.3,Win32,59.94125757,62bbe60bf3d75ef465d3e404,,,,,,,,,,,,,,,,,,,,,,,,,,,,,,,,,,,,,,,,,,,,,,,,,,,,,,,,,,,,,,,,,,,,,,,,,,,,,,,,,,,,,,,,,,,,,,,,,,,,,,,,,,,,,,,,,,,,,,,,,,,,,,,,,,,,,,,,,,,,,,,,,,,,,,,,,,,,,,
0,18,18,3,1,,5f980a192b5a61051e949f4b,62bbf988ef77b8322f668d17,2022-06-29_09h12.21.221,Colour_Asymmetry_Pilot,2022.1.3,Win32,59.94125757,62bbe60bf3d75ef465d3e404,,,,,,,,,,,,,,,,,,,,,,,,,,,,,,,,,,,,,,,,,,,,,,,,,,,,,,,,,,,,,,,,,,,,,,,,,,,,,,,,,,,,,,,,,,,,,,,,,,,,,,,,,,,,,,,,,,,,,,,,,,,,,,,,,,,,,,,,,,,,,,,,,,,,,,,,,,,,,,
0,19,19,84,1,,5f980a192b5a61051e949f4b,62bbf988ef77b8322f668d17,2022-06-29_09h12.21.221,Colour_Asymmetry_Pilot,2022.1.3,Win32,59.94125757,62bbe60bf3d75ef465d3e404,,,,,,,,,,,,,,,,,,,,,,,,,,,,,,,,,,,,,,,,,,,,,,,,,,,,,,,,,,,,,,,,,,,,,,,,,,,,,,,,,,,,,,,,,,,,,,,,,,,,,,,,,,,,,,,,,,,,,,,,,,,,,,,,,,,,,,,,,,,,,,,,,,,,,,,,,,,,,,
0,20,20,5,1,,5f980a192b5a61051e949f4b,62bbf988ef77b8322f668d17,2022-06-29_09h12.21.221,Colour_Asymmetry_Pilot,2022.1.3,Win32,59.94125757,62bbe60bf3d75ef465d3e404,,,,,,,,,,,,,,,,,,,,,,,,,,,,,,,,,,,,,,,,,,,,,,,,,,,,,,,,,,,,,,,,,,,,,,,,,,,,,,,,,,,,,,,,,,,,,,,,,,,,,,,,,,,,,,,,,,,,,,,,,,,,,,,,,,,,,,,,,,,,,,,,,,,,,,,,,,,,,,
0,21,21,53,1,,5f980a192b5a61051e949f4b,62bbf988ef77b8322f668d17,2022-06-29_09h12.21.221,Colour_Asymmetry_Pilot,2022.1.3,Win32,59.94125757,62bbe60bf3d75ef465d3e404,,,,,,,,,,,,,,,,,,,,,,,,,,,,,,,,,,,,,,,,,,,,,,,,,,,,,,,,,,,,,,,,,,,,,,,,,,,,,,,,,,,,,,,,,,,,,,,,,,,,,,,,,,,,,,,,,,,,,,,,,,,,,,,,,,,,,,,,,,,,,,,,,,,,,,,,,,,,,,
0,22,22,2,1,,5f980a192b5a61051e949f4b,62bbf988ef77b8322f668d17,2022-06-29_09h12.21.221,Colour_Asymmetry_Pilot,2022.1.3,Win32,59.94125757,62bbe60bf3d75ef465d3e404,,,,,,,,,,,,,,,,,,,,,,,,,,,,,,,,,,,,,,,,,,,,,,,,,,,,,,,,,,,,,,,,,,,,,,,,,,,,,,,,,,,,,,,,,,,,,,,,,,,,,,,,,,,,,,,,,,,,,,,,,,,,,,,,,,,,,,,,,,,,,,,,,,,,,,,,,,,,,,
0,23,23,34,1,,5f980a192b5a61051e949f4b,62bbf988ef77b8322f668d17,2022-06-29_09h12.21.221,Colour_Asymmetry_Pilot,2022.1.3,Win32,59.94125757,62bbe60bf3d75ef465d3e404,,,,,,,,,,,,,,,,,,,,,,,,,,,,,,,,,,,,,,,,,,,,,,,,,,,,,,,,,,,,,,,,,,,,,,,,,,,,,,,,,,,,,,,,,,,,,,,,,,,,,,,,,,,,,,,,,,,,,,,,,,,,,,,,,,,,,,,,,,,,,,,,,,,,,,,,,,,,,,
0,24,24,77,1,,5f980a192b5a61051e949f4b,62bbf988ef77b8322f668d17,2022-06-29_09h12.21.221,Colour_Asymmetry_Pilot,2022.1.3,Win32,59.94125757,62bbe60bf3d75ef465d3e404,,,,,,,,,,,,,,,,,,,,,,,,,,,,,,,,,,,,,,,,,,,,,,,,,,,,,,,,,,,,,,,,,,,,,,,,,,,,,,,,,,,,,,,,,,,,,,,,,,,,,,,,,,,,,,,,,,,,,,,,,,,,,,,,,,,,,,,,,,,,,,,,,,,,,,,,,,,,,,
0,25,25,0,1,,5f980a192b5a61051e949f4b,62bbf988ef77b8322f668d17,2022-06-29_09h12.21.221,Colour_Asymmetry_Pilot,2022.1.3,Win32,59.94125757,62bbe60bf3d75ef465d3e404,,,,,,,,,,,,,,,,,,,,,,,,,,,,,,,,,,,,,,,,,,,,,,,,,,,,,,,,,,,,,,,,,,,,,,,,,,,,,,,,,,,,,,,,,,,,,,,,,,,,,,,,,,,,,,,,,,,,,,,,,,,,,,,,,,,,,,,,,,,,,,,,,,,,,,,,,,,,,,
0,26,26,19,1,,5f980a192b5a61051e949f4b,62bbf988ef77b8322f668d17,2022-06-29_09h12.21.221,Colour_Asymmetry_Pilot,2022.1.3,Win32,59.94125757,62bbe60bf3d75ef465d3e404,,,,,,,,,,,,,,,,,,,,,,,,,,,,,,,,,,,,,,,,,,,,,,,,,,,,,,,,,,,,,,,,,,,,,,,,,,,,,,,,,,,,,,,,,,,,,,,,,,,,,,,,,,,,,,,,,,,,,,,,,,,,,,,,,,,,,,,,,,,,,,,,,,,,,,,,,,,,,,
0,27,27,65,1,,5f980a192b5a61051e949f4b,62bbf988ef77b8322f668d17,2022-06-29_09h12.21.221,Colour_Asymmetry_Pilot,2022.1.3,Win32,59.94125757,62bbe60bf3d75ef465d3e404,,,,,,,,,,,,,,,,,,,,,,,,,,,,,,,,,,,,,,,,,,,,,,,,,,,,,,,,,,,,,,,,,,,,,,,,,,,,,,,,,,,,,,,,,,,,,,,,,,,,,,,,,,,,,,,,,,,,,,,,,,,,,,,,,,,,,,,,,,,,,,,,,,,,,,,,,,,,,,
0,28,28,36,1,,5f980a192b5a61051e949f4b,62bbf988ef77b8322f668d17,2022-06-29_09h12.21.221,Colour_Asymmetry_Pilot,2022.1.3,Win32,59.94125757,62bbe60bf3d75ef465d3e404,,,,,,,,,,,,,,,,,,,,,,,,,,,,,,,,,,,,,,,,,,,,,,,,,,,,,,,,,,,,,,,,,,,,,,,,,,,,,,,,,,,,,,,,,,,,,,,,,,,,,,,,,,,,,,,,,,,,,,,,,,,,,,,,,,,,,,,,,,,,,,,,,,,,,,,,,,,,,,
0,29,29,89,1,,5f980a192b5a61051e949f4b,62bbf988ef77b8322f668d17,2022-06-29_09h12.21.221,Colour_Asymmetry_Pilot,2022.1.3,Win32,59.94125757,62bbe60bf3d75ef465d3e404,,,,,,,,,,,,,,,,,,,,,,,,,,,,,,,,,,,,,,,,,,,,,,,,,,,,,,,,,,,,,,,,,,,,,,,,,,,,,,,,,,,,,,,,,,,,,,,,,,,,,,,,,,,,,,,,,,,,,,,,,,,,,,,,,,,,,,,,,,,,,,,,,,,,,,,,,,,,,,
0,30,30,22,1,,5f980a192b5a61051e949f4b,62bbf988ef77b8322f668d17,2022-06-29_09h12.21.221,Colour_Asymmetry_Pilot,2022.1.3,Win32,59.94125757,62bbe60bf3d75ef465d3e404,,,,,,,,,,,,,,,,,,,,,,,,,,,,,,,,,,,,,,,,,,,,,,,,,,,,,,,,,,,,,,,,,,,,,,,,,,,,,,,,,,,,,,,,,,,,,,,,,,,,,,,,,,,,,,,,,,,,,,,,,,,,,,,,,,,,,,,,,,,,,,,,,,,,,,,,,,,,,,
0,31,31,39,1,,5f980a192b5a61051e949f4b,62bbf988ef77b8322f668d17,2022-06-29_09h12.21.221,Colour_Asymmetry_Pilot,2022.1.3,Win32,59.94125757,62bbe60bf3d75ef465d3e404,,,,,,,,,,,,,,,,,,,,,,,,,,,,,,,,,,,,,,,,,,,,,,,,,,,,,,,,,,,,,,,,,,,,,,,,,,,,,,,,,,,,,,,,,,,,,,,,,,,,,,,,,,,,,,,,,,,,,,,,,,,,,,,,,,,,,,,,,,,,,,,,,,,,,,,,,,,,,,
0,32,32,79,1,,5f980a192b5a61051e949f4b,62bbf988ef77b8322f668d17,2022-06-29_09h12.21.221,Colour_Asymmetry_Pilot,2022.1.3,Win32,59.94125757,62bbe60bf3d75ef465d3e404,,,,,,,,,,,,,,,,,,,,,,,,,,,,,,,,,,,,,,,,,,,,,,,,,,,,,,,,,,,,,,,,,,,,,,,,,,,,,,,,,,,,,,,,,,,,,,,,,,,,,,,,,,,,,,,,,,,,,,,,,,,,,,,,,,,,,,,,,,,,,,,,,,,,,,,,,,,,,,
0,33,33,82,1,,5f980a192b5a61051e949f4b,62bbf988ef77b8322f668d17,2022-06-29_09h12.21.221,Colour_Asymmetry_Pilot,2022.1.3,Win32,59.94125757,62bbe60bf3d75ef465d3e404,,,,,,,,,,,,,,,,,,,,,,,,,,,,,,,,,,,,,,,,,,,,,,,,,,,,,,,,,,,,,,,,,,,,,,,,,,,,,,,,,,,,,,,,,,,,,,,,,,,,,,,,,,,,,,,,,,,,,,,,,,,,,,,,,,,,,,,,,,,,,,,,,,,,,,,,,,,,,,
0,34,34,9,1,,5f980a192b5a61051e949f4b,62bbf988ef77b8322f668d17,2022-06-29_09h12.21.221,Colour_Asymmetry_Pilot,2022.1.3,Win32,59.94125757,62bbe60bf3d75ef465d3e404,,,,,,,,,,,,,,,,,,,,,,,,,,,,,,,,,,,,,,,,,,,,,,,,,,,,,,,,,,,,,,,,,,,,,,,,,,,,,,,,,,,,,,,,,,,,,,,,,,,,,,,,,,,,,,,,,,,,,,,,,,,,,,,,,,,,,,,,,,,,,,,,,,,,,,,,,,,,,,
0,35,35,51,1,,5f980a192b5a61051e949f4b,62bbf988ef77b8322f668d17,2022-06-29_09h12.21.221,Colour_Asymmetry_Pilot,2022.1.3,Win32,59.94125757,62bbe60bf3d75ef465d3e404,,,,,,,,,,,,,,,,,,,,,,,,,,,,,,,,,,,,,,,,,,,,,,,,,,,,,,,,,,,,,,,,,,,,,,,,,,,,,,,,,,,,,,,,,,,,,,,,,,,,,,,,,,,,,,,,,,,,,,,,,,,,,,,,,,,,,,,,,,,,,,,,,,,,,,,,,,,,,,
0,36,36,16,1,,5f980a192b5a61051e949f4b,62bbf988ef77b8322f668d17,2022-06-29_09h12.21.221,Colour_Asymmetry_Pilot,2022.1.3,Win32,59.94125757,62bbe60bf3d75ef465d3e404,,,,,,,,,,,,,,,,,,,,,,,,,,,,,,,,,,,,,,,,,,,,,,,,,,,,,,,,,,,,,,,,,,,,,,,,,,,,,,,,,,,,,,,,,,,,,,,,,,,,,,,,,,,,,,,,,,,,,,,,,,,,,,,,,,,,,,,,,,,,,,,,,,,,,,,,,,,,,,
0,37,37,71,1,,5f980a192b5a61051e949f4b,62bbf988ef77b8322f668d17,2022-06-29_09h12.21.221,Colour_Asymmetry_Pilot,2022.1.3,Win32,59.94125757,62bbe60bf3d75ef465d3e404,,,,,,,,,,,,,,,,,,,,,,,,,,,,,,,,,,,,,,,,,,,,,,,,,,,,,,,,,,,,,,,,,,,,,,,,,,,,,,,,,,,,,,,,,,,,,,,,,,,,,,,,,,,,,,,,,,,,,,,,,,,,,,,,,,,,,,,,,,,,,,,,,,,,,,,,,,,,,,
0,38,38,38,1,,5f980a192b5a61051e949f4b,62bbf988ef77b8322f668d17,2022-06-29_09h12.21.221,Colour_Asymmetry_Pilot,2022.1.3,Win32,59.94125757,62bbe60bf3d75ef465d3e404,,,,,,,,,,,,,,,,,,,,,,,,,,,,,,,,,,,,,,,,,,,,,,,,,,,,,,,,,,,,,,,,,,,,,,,,,,,,,,,,,,,,,,,,,,,,,,,,,,,,,,,,,,,,,,,,,,,,,,,,,,,,,,,,,,,,,,,,,,,,,,,,,,,,,,,,,,,,,,
0,39,39,80,1,,5f980a192b5a61051e949f4b,62bbf988ef77b8322f668d17,2022-06-29_09h12.21.221,Colour_Asymmetry_Pilot,2022.1.3,Win32,59.94125757,62bbe60bf3d75ef465d3e404,,,,,,,,,,,,,,,,,,,,,,,,,,,,,,,,,,,,,,,,,,,,,,,,,,,,,,,,,,,,,,,,,,,,,,,,,,,,,,,,,,,,,,,,,,,,,,,,,,,,,,,,,,,,,,,,,,,,,,,,,,,,,,,,,,,,,,,,,,,,,,,,,,,,,,,,,,,,,,
0,40,40,1,1,,5f980a192b5a61051e949f4b,62bbf988ef77b8322f668d17,2022-06-29_09h12.21.221,Colour_Asymmetry_Pilot,2022.1.3,Win32,59.94125757,62bbe60bf3d75ef465d3e404,,,,,,,,,,,,,,,,,,,,,,,,,,,,,,,,,,,,,,,,,,,,,,,,,,,,,,,,,,,,,,,,,,,,,,,,,,,,,,,,,,,,,,,,,,,,,,,,,,,,,,,,,,,,,,,,,,,,,,,,,,,,,,,,,,,,,,,,,,,,,,,,,,,,,,,,,,,,,,
0,41,41,70,1,,5f980a192b5a61051e949f4b,62bbf988ef77b8322f668d17,2022-06-29_09h12.21.221,Colour_Asymmetry_Pilot,2022.1.3,Win32,59.94125757,62bbe60bf3d75ef465d3e404,,,,,,,,,,,,,,,,,,,,,,,,,,,,,,,,,,,,,,,,,,,,,,,,,,,,,,,,,,,,,,,,,,,,,,,,,,,,,,,,,,,,,,,,,,,,,,,,,,,,,,,,,,,,,,,,,,,,,,,,,,,,,,,,,,,,,,,,,,,,,,,,,,,,,,,,,,,,,,
0,42,42,41,1,,5f980a192b5a61051e949f4b,62bbf988ef77b8322f668d17,2022-06-29_09h12.21.221,Colour_Asymmetry_Pilot,2022.1.3,Win32,59.94125757,62bbe60bf3d75ef465d3e404,,,,,,,,,,,,,,,,,,,,,,,,,,,,,,,,,,,,,,,,,,,,,,,,,,,,,,,,,,,,,,,,,,,,,,,,,,,,,,,,,,,,,,,,,,,,,,,,,,,,,,,,,,,,,,,,,,,,,,,,,,,,,,,,,,,,,,,,,,,,,,,,,,,,,,,,,,,,,,
0,43,43,32,1,,5f980a192b5a61051e949f4b,62bbf988ef77b8322f668d17,2022-06-29_09h12.21.221,Colour_Asymmetry_Pilot,2022.1.3,Win32,59.94125757,62bbe60bf3d75ef465d3e404,,,,,,,,,,,,,,,,,,,,,,,,,,,,,,,,,,,,,,,,,,,,,,,,,,,,,,,,,,,,,,,,,,,,,,,,,,,,,,,,,,,,,,,,,,,,,,,,,,,,,,,,,,,,,,,,,,,,,,,,,,,,,,,,,,,,,,,,,,,,,,,,,,,,,,,,,,,,,,
0,44,44,85,1,,5f980a192b5a61051e949f4b,62bbf988ef77b8322f668d17,2022-06-29_09h12.21.221,Colour_Asymmetry_Pilot,2022.1.3,Win32,59.94125757,62bbe60bf3d75ef465d3e404,,,,,,,,,,,,,,,,,,,,,,,,,,,,,,,,,,,,,,,,,,,,,,,,,,,,,,,,,,,,,,,,,,,,,,,,,,,,,,,,,,,,,,,,,,,,,,,,,,,,,,,,,,,,,,,,,,,,,,,,,,,,,,,,,,,,,,,,,,,,,,,,,,,,,,,,,,,,,,
0,45,45,29,1,,5f980a192b5a61051e949f4b,62bbf988ef77b8322f668d17,2022-06-29_09h12.21.221,Colour_Asymmetry_Pilot,2022.1.3,Win32,59.94125757,62bbe60bf3d75ef465d3e404,,,,,,,,,,,,,,,,,,,,,,,,,,,,,,,,,,,,,,,,,,,,,,,,,,,,,,,,,,,,,,,,,,,,,,,,,,,,,,,,,,,,,,,,,,,,,,,,,,,,,,,,,,,,,,,,,,,,,,,,,,,,,,,,,,,,,,,,,,,,,,,,,,,,,,,,,,,,,,
0,46,46,74,1,,5f980a192b5a61051e949f4b,62bbf988ef77b8322f668d17,2022-06-29_09h12.21.221,Colour_Asymmetry_Pilot,2022.1.3,Win32,59.94125757,62bbe60bf3d75ef465d3e404,,,,,,,,,,,,,,,,,,,,,,,,,,,,,,,,,,,,,,,,,,,,,,,,,,,,,,,,,,,,,,,,,,,,,,,,,,,,,,,,,,,,,,,,,,,,,,,,,,,,,,,,,,,,,,,,,,,,,,,,,,,,,,,,,,,,,,,,,,,,,,,,,,,,,,,,,,,,,,
0,47,47,15,1,,5f980a192b5a61051e949f4b,62bbf988ef77b8322f668d17,2022-06-29_09h12.21.221,Colour_Asymmetry_Pilot,2022.1.3,Win32,59.94125757,62bbe60bf3d75ef465d3e404,,,,,,,,,,,,,,,,,,,,,,,,,,,,,,,,,,,,,,,,,,,,,,,,,,,,,,,,,,,,,,,,,,,,,,,,,,,,,,,,,,,,,,,,,,,,,,,,,,,,,,,,,,,,,,,,,,,,,,,,,,,,,,,,,,,,,,,,,,,,,,,,,,,,,,,,,,,,,,
0,48,48,61,1,,5f980a192b5a61051e949f4b,62bbf988ef77b8322f668d17,2022-06-29_09h12.21.221,Colour_Asymmetry_Pilot,2022.1.3,Win32,59.94125757,62bbe60bf3d75ef465d3e404,,,,,,,,,,,,,,,,,,,,,,,,,,,,,,,,,,,,,,,,,,,,,,,,,,,,,,,,,,,,,,,,,,,,,,,,,,,,,,,,,,,,,,,,,,,,,,,,,,,,,,,,,,,,,,,,,,,,,,,,,,,,,,,,,,,,,,,,,,,,,,,,,,,,,,,,,,,,,,
0,49,49,14,1,,5f980a192b5a61051e949f4b,62bbf988ef77b8322f668d17,2022-06-29_09h12.21.221,Colour_Asymmetry_Pilot,2022.1.3,Win32,59.94125757,62bbe60bf3d75ef465d3e404,,,,,,,,,,,,,,,,,,,,,,,,,,,,,,,,,,,,,,,,,,,,,,,,,,,,,,,,,,,,,,,,,,,,,,,,,,,,,,,,,,,,,,,,,,,,,,,,,,,,,,,,,,,,,,,,,,,,,,,,,,,,,,,,,,,,,,,,,,,,,,,,,,,,,,,,,,,,,,
0,50,50,46,1,,5f980a192b5a61051e949f4b,62bbf988ef77b8322f668d17,2022-06-29_09h12.21.221,Colour_Asymmetry_Pilot,2022.1.3,Win32,59.94125757,62bbe60bf3d75ef465d3e404,,,,,,,,,,,,,,,,,,,,,,,,,,,,,,,,,,,,,,,,,,,,,,,,,,,,,,,,,,,,,,,,,,,,,,,,,,,,,,,,,,,,,,,,,,,,,,,,,,,,,,,,,,,,,,,,,,,,,,,,,,,,,,,,,,,,,,,,,,,,,,,,,,,,,,,,,,,,,,
0,51,51,8,1,,5f980a192b5a61051e949f4b,62bbf988ef77b8322f668d17,2022-06-29_09h12.21.221,Colour_Asymmetry_Pilot,2022.1.3,Win32,59.94125757,62bbe60bf3d75ef465d3e404,,,,,,,,,,,,,,,,,,,,,,,,,,,,,,,,,,,,,,,,,,,,,,,,,,,,,,,,,,,,,,,,,,,,,,,,,,,,,,,,,,,,,,,,,,,,,,,,,,,,,,,,,,,,,,,,,,,,,,,,,,,,,,,,,,,,,,,,,,,,,,,,,,,,,,,,,,,,,,
0,52,52,69,1,,5f980a192b5a61051e949f4b,62bbf988ef77b8322f668d17,2022-06-29_09h12.21.221,Colour_Asymmetry_Pilot,2022.1.3,Win32,59.94125757,62bbe60bf3d75ef465d3e404,,,,,,,,,,,,,,,,,,,,,,,,,,,,,,,,,,,,,,,,,,,,,,,,,,,,,,,,,,,,,,,,,,,,,,,,,,,,,,,,,,,,,,,,,,,,,,,,,,,,,,,,,,,,,,,,,,,,,,,,,,,,,,,,,,,,,,,,,,,,,,,,,,,,,,,,,,,,,,
0,53,53,31,1,,5f980a192b5a61051e949f4b,62bbf988ef77b8322f668d17,2022-06-29_09h12.21.221,Colour_Asymmetry_Pilot,2022.1.3,Win32,59.94125757,62bbe60bf3d75ef465d3e404,,,,,,,,,,,,,,,,,,,,,,,,,,,,,,,,,,,,,,,,,,,,,,,,,,,,,,,,,,,,,,,,,,,,,,,,,,,,,,,,,,,,,,,,,,,,,,,,,,,,,,,,,,,,,,,,,,,,,,,,,,,,,,,,,,,,,,,,,,,,,,,,,,,,,,,,,,,,,,
0,54,54,86,1,,5f980a192b5a61051e949f4b,62bbf988ef77b8322f668d17,2022-06-29_09h12.21.221,Colour_Asymmetry_Pilot,2022.1.3,Win32,59.94125757,62bbe60bf3d75ef465d3e404,,,,,,,,,,,,,,,,,,,,,,,,,,,,,,,,,,,,,,,,,,,,,,,,,,,,,,,,,,,,,,,,,,,,,,,,,,,,,,,,,,,,,,,,,,,,,,,,,,,,,,,,,,,,,,,,,,,,,,,,,,,,,,,,,,,,,,,,,,,,,,,,,,,,,,,,,,,,,,
0,55,55,6,1,,5f980a192b5a61051e949f4b,62bbf988ef77b8322f668d17,2022-06-29_09h12.21.221,Colour_Asymmetry_Pilot,2022.1.3,Win32,59.94125757,62bbe60bf3d75ef465d3e404,,,,,,,,,,,,,,,,,,,,,,,,,,,,,,,,,,,,,,,,,,,,,,,,,,,,,,,,,,,,,,,,,,,,,,,,,,,,,,,,,,,,,,,,,,,,,,,,,,,,,,,,,,,,,,,,,,,,,,,,,,,,,,,,,,,,,,,,,,,,,,,,,,,,,,,,,,,,,,
0,56,56,47,1,,5f980a192b5a61051e949f4b,62bbf988ef77b8322f668d17,2022-06-29_09h12.21.221,Colour_Asymmetry_Pilot,2022.1.3,Win32,59.94125757,62bbe60bf3d75ef465d3e404,,,,,,,,,,,,,,,,,,,,,,,,,,,,,,,,,,,,,,,,,,,,,,,,,,,,,,,,,,,,,,,,,,,,,,,,,,,,,,,,,,,,,,,,,,,,,,,,,,,,,,,,,,,,,,,,,,,,,,,,,,,,,,,,,,,,,,,,,,,,,,,,,,,,,,,,,,,,,,
0,57,57,30,1,,5f980a192b5a61051e949f4b,62bbf988ef77b8322f668d17,2022-06-29_09h12.21.221,Colour_Asymmetry_Pilot,2022.1.3,Win32,59.94125757,62bbe60bf3d75ef465d3e404,,,,,,,,,,,,,,,,,,,,,,,,,,,,,,,,,,,,,,,,,,,,,,,,,,,,,,,,,,,,,,,,,,,,,,,,,,,,,,,,,,,,,,,,,,,,,,,,,,,,,,,,,,,,,,,,,,,,,,,,,,,,,,,,,,,,,,,,,,,,,,,,,,,,,,,,,,,,,,
0,58,58,23,1,,5f980a192b5a61051e949f4b,62bbf988ef77b8322f668d17,2022-06-29_09h12.21.221,Colour_Asymmetry_Pilot,2022.1.3,Win32,59.94125757,62bbe60bf3d75ef465d3e404,,,,,,,,,,,,,,,,,,,,,,,,,,,,,,,,,,,,,,,,,,,,,,,,,,,,,,,,,,,,,,,,,,,,,,,,,,,,,,,,,,,,,,,,,,,,,,,,,,,,,,,,,,,,,,,,,,,,,,,,,,,,,,,,,,,,,,,,,,,,,,,,,,,,,,,,,,,,,,
0,59,59,72,1,,5f980a192b5a61051e949f4b,62bbf988ef77b8322f668d17,2022-06-29_09h12.21.221,Colour_Asymmetry_Pilot,2022.1.3,Win32,59.94125757,62bbe60bf3d75ef465d3e404,,,,,,,,,,,,,,,,,,,,,,,,,,,,,,,,,,,,,,,,,,,,,,,,,,,,,,,,,,,,,,,,,,,,,,,,,,,,,,,,,,,,,,,,,,,,,,,,,,,,,,,,,,,,,,,,,,,,,,,,,,,,,,,,,,,,,,,,,,,,,,,,,,,,,,,,,,,,,,
0,60,60,90,1,,5f980a192b5a61051e949f4b,62bbf988ef77b8322f668d17,2022-06-29_09h12.21.221,Colour_Asymmetry_Pilot,2022.1.3,Win32,59.94125757,62bbe60bf3d75ef465d3e404,,,,,,,,,,,,,,,,,,,,,,,,,,,,,,,,,,,,,,,,,,,,,,,,,,,,,,,,,,,,,,,,,,,,,,,,,,,,,,,,,,,,,,,,,,,,,,,,,,,,,,,,,,,,,,,,,,,,,,,,,,,,,,,,,,,,,,,,,,,,,,,,,,,,,,,,,,,,,,
0,61,61,50,1,,5f980a192b5a61051e949f4b,62bbf988ef77b8322f668d17,2022-06-29_09h12.21.221,Colour_Asymmetry_Pilot,2022.1.3,Win32,59.94125757,62bbe60bf3d75ef465d3e404,,,,,,,,,,,,,,,,,,,,,,,,,,,,,,,,,,,,,,,,,,,,,,,,,,,,,,,,,,,,,,,,,,,,,,,,,,,,,,,,,,,,,,,,,,,,,,,,,,,,,,,,,,,,,,,,,,,,,,,,,,,,,,,,,,,,,,,,,,,,,,,,,,,,,,,,,,,,,,
0,62,62,49,1,,5f980a192b5a61051e949f4b,62bbf988ef77b8322f668d17,2022-06-29_09h12.21.221,Colour_Asymmetry_Pilot,2022.1.3,Win32,59.94125757,62bbe60bf3d75ef465d3e404,,,,,,,,,,,,,,,,,,,,,,,,,,,,,,,,,,,,,,,,,,,,,,,,,,,,,,,,,,,,,,,,,,,,,,,,,,,,,,,,,,,,,,,,,,,,,,,,,,,,,,,,,,,,,,,,,,,,,,,,,,,,,,,,,,,,,,,,,,,,,,,,,,,,,,,,,,,,,,
0,63,63,45,1,,5f980a192b5a61051e949f4b,62bbf988ef77b8322f668d17,2022-06-29_09h12.21.221,Colour_Asymmetry_Pilot,2022.1.3,Win32,59.94125757,62bbe60bf3d75ef465d3e404,,,,,,,,,,,,,,,,,,,,,,,,,,,,,,,,,,,,,,,,,,,,,,,,,,,,,,,,,,,,,,,,,,,,,,,,,,,,,,,,,,,,,,,,,,,,,,,,,,,,,,,,,,,,,,,,,,,,,,,,,,,,,,,,,,,,,,,,,,,,,,,,,,,,,,,,,,,,,,
0,64,64,17,1,,5f980a192b5a61051e949f4b,62bbf988ef77b8322f668d17,2022-06-29_09h12.21.221,Colour_Asymmetry_Pilot,2022.1.3,Win32,59.94125757,62bbe60bf3d75ef465d3e404,,,,,,,,,,,,,,,,,,,,,,,,,,,,,,,,,,,,,,,,,,,,,,,,,,,,,,,,,,,,,,,,,,,,,,,,,,,,,,,,,,,,,,,,,,,,,,,,,,,,,,,,,,,,,,,,,,,,,,,,,,,,,,,,,,,,,,,,,,,,,,,,,,,,,,,,,,,,,,
0,65,65,25,1,,5f980a192b5a61051e949f4b,62bbf988ef77b8322f668d17,2022-06-29_09h12.21.221,Colour_Asymmetry_Pilot,2022.1.3,Win32,59.94125757,62bbe60bf3d75ef465d3e404,,,,,,,,,,,,,,,,,,,,,,,,,,,,,,,,,,,,,,,,,,,,,,,,,,,,,,,,,,,,,,,,,,,,,,,,,,,,,,,,,,,,,,,,,,,,,,,,,,,,,,,,,,,,,,,,,,,,,,,,,,,,,,,,,,,,,,,,,,,,,,,,,,,,,,,,,,,,,,
0,66,66,28,1,,5f980a192b5a61051e949f4b,62bbf988ef77b8322f668d17,2022-06-29_09h12.21.221,Colour_Asymmetry_Pilot,2022.1.3,Win32,59.94125757,62bbe60bf3d75ef465d3e404,,,,,,,,,,,,,,,,,,,,,,,,,,,,,,,,,,,,,,,,,,,,,,,,,,,,,,,,,,,,,,,,,,,,,,,,,,,,,,,,,,,,,,,,,,,,,,,,,,,,,,,,,,,,,,,,,,,,,,,,,,,,,,,,,,,,,,,,,,,,,,,,,,,,,,,,,,,,,,
0,67,67,66,1,,5f980a192b5a61051e949f4b,62bbf988ef77b8322f668d17,2022-06-29_09h12.21.221,Colour_Asymmetry_Pilot,2022.1.3,Win32,59.94125757,62bbe60bf3d75ef465d3e404,,,,,,,,,,,,,,,,,,,,,,,,,,,,,,,,,,,,,,,,,,,,,,,,,,,,,,,,,,,,,,,,,,,,,,,,,,,,,,,,,,,,,,,,,,,,,,,,,,,,,,,,,,,,,,,,,,,,,,,,,,,,,,,,,,,,,,,,,,,,,,,,,,,,,,,,,,,,,,
0,68,68,59,1,,5f980a192b5a61051e949f4b,62bbf988ef77b8322f668d17,2022-06-29_09h12.21.221,Colour_Asymmetry_Pilot,2022.1.3,Win32,59.94125757,62bbe60bf3d75ef465d3e404,,,,,,,,,,,,,,,,,,,,,,,,,,,,,,,,,,,,,,,,,,,,,,,,,,,,,,,,,,,,,,,,,,,,,,,,,,,,,,,,,,,,,,,,,,,,,,,,,,,,,,,,,,,,,,,,,,,,,,,,,,,,,,,,,,,,,,,,,,,,,,,,,,,,,,,,,,,,,,
0,69,69,83,1,,5f980a192b5a61051e949f4b,62bbf988ef77b8322f668d17,2022-06-29_09h12.21.221,Colour_Asymmetry_Pilot,2022.1.3,Win32,59.94125757,62bbe60bf3d75ef465d3e404,,,,,,,,,,,,,,,,,,,,,,,,,,,,,,,,,,,,,,,,,,,,,,,,,,,,,,,,,,,,,,,,,,,,,,,,,,,,,,,,,,,,,,,,,,,,,,,,,,,,,,,,,,,,,,,,,,,,,,,,,,,,,,,,,,,,,,,,,,,,,,,,,,,,,,,,,,,,,,
0,70,70,57,1,,5f980a192b5a61051e949f4b,62bbf988ef77b8322f668d17,2022-06-29_09h12.21.221,Colour_Asymmetry_Pilot,2022.1.3,Win32,59.94125757,62bbe60bf3d75ef465d3e404,,,,,,,,,,,,,,,,,,,,,,,,,,,,,,,,,,,,,,,,,,,,,,,,,,,,,,,,,,,,,,,,,,,,,,,,,,,,,,,,,,,,,,,,,,,,,,,,,,,,,,,,,,,,,,,,,,,,,,,,,,,,,,,,,,,,,,,,,,,,,,,,,,,,,,,,,,,,,,
0,71,71,13,1,,5f980a192b5a61051e949f4b,62bbf988ef77b8322f668d17,2022-06-29_09h12.21.221,Colour_Asymmetry_Pilot,2022.1.3,Win32,59.94125757,62bbe60bf3d75ef465d3e404,,,,,,,,,,,,,,,,,,,,,,,,,,,,,,,,,,,,,,,,,,,,,,,,,,,,,,,,,,,,,,,,,,,,,,,,,,,,,,,,,,,,,,,,,,,,,,,,,,,,,,,,,,,,,,,,,,,,,,,,,,,,,,,,,,,,,,,,,,,,,,,,,,,,,,,,,,,,,,
0,72,72,12,1,,5f980a192b5a61051e949f4b,62bbf988ef77b8322f668d17,2022-06-29_09h12.21.221,Colour_Asymmetry_Pilot,2022.1.3,Win32,59.94125757,62bbe60bf3d75ef465d3e404,,,,,,,,,,,,,,,,,,,,,,,,,,,,,,,,,,,,,,,,,,,,,,,,,,,,,,,,,,,,,,,,,,,,,,,,,,,,,,,,,,,,,,,,,,,,,,,,,,,,,,,,,,,,,,,,,,,,,,,,,,,,,,,,,,,,,,,,,,,,,,,,,,,,,,,,,,,,,,
0,73,73,78,1,,5f980a192b5a61051e949f4b,62bbf988ef77b8322f668d17,2022-06-29_09h12.21.221,Colour_Asymmetry_Pilot,2022.1.3,Win32,59.94125757,62bbe60bf3d75ef465d3e404,,,,,,,,,,,,,,,,,,,,,,,,,,,,,,,,,,,,,,,,,,,,,,,,,,,,,,,,,,,,,,,,,,,,,,,,,,,,,,,,,,,,,,,,,,,,,,,,,,,,,,,,,,,,,,,,,,,,,,,,,,,,,,,,,,,,,,,,,,,,,,,,,,,,,,,,,,,,,,
0,74,74,26,1,,5f980a192b5a61051e949f4b,62bbf988ef77b8322f668d17,2022-06-29_09h12.21.221,Colour_Asymmetry_Pilot,2022.1.3,Win32,59.94125757,62bbe60bf3d75ef465d3e404,,,,,,,,,,,,,,,,,,,,,,,,,,,,,,,,,,,,,,,,,,,,,,,,,,,,,,,,,,,,,,,,,,,,,,,,,,,,,,,,,,,,,,,,,,,,,,,,,,,,,,,,,,,,,,,,,,,,,,,,,,,,,,,,,,,,,,,,,,,,,,,,,,,,,,,,,,,,,,
0,75,75,62,1,,5f980a192b5a61051e949f4b,62bbf988ef77b8322f668d17,2022-06-29_09h12.21.221,Colour_Asymmetry_Pilot,2022.1.3,Win32,59.94125757,62bbe60bf3d75ef465d3e404,,,,,,,,,,,,,,,,,,,,,,,,,,,,,,,,,,,,,,,,,,,,,,,,,,,,,,,,,,,,,,,,,,,,,,,,,,,,,,,,,,,,,,,,,,,,,,,,,,,,,,,,,,,,,,,,,,,,,,,,,,,,,,,,,,,,,,,,,,,,,,,,,,,,,,,,,,,,,,
0,76,76,56,1,,5f980a192b5a61051e949f4b,62bbf988ef77b8322f668d17,2022-06-29_09h12.21.221,Colour_Asymmetry_Pilot,2022.1.3,Win32,59.94125757,62bbe60bf3d75ef465d3e404,,,,,,,,,,,,,,,,,,,,,,,,,,,,,,,,,,,,,,,,,,,,,,,,,,,,,,,,,,,,,,,,,,,,,,,,,,,,,,,,,,,,,,,,,,,,,,,,,,,,,,,,,,,,,,,,,,,,,,,,,,,,,,,,,,,,,,,,,,,,,,,,,,,,,,,,,,,,,,
0,77,77,64,1,,5f980a192b5a61051e949f4b,62bbf988ef77b8322f668d17,2022-06-29_09h12.21.221,Colour_Asymmetry_Pilot,2022.1.3,Win32,59.94125757,62bbe60bf3d75ef465d3e404,,,,,,,,,,,,,,,,,,,,,,,,,,,,,,,,,,,,,,,,,,,,,,,,,,,,,,,,,,,,,,,,,,,,,,,,,,,,,,,,,,,,,,,,,,,,,,,,,,,,,,,,,,,,,,,,,,,,,,,,,,,,,,,,,,,,,,,,,,,,,,,,,,,,,,,,,,,,,,
0,78,78,75,1,,5f980a192b5a61051e949f4b,62bbf988ef77b8322f668d17,2022-06-29_09h12.21.221,Colour_Asymmetry_Pilot,2022.1.3,Win32,59.94125757,62bbe60bf3d75ef465d3e404,,,,,,,,,,,,,,,,,,,,,,,,,,,,,,,,,,,,,,,,,,,,,,,,,,,,,,,,,,,,,,,,,,,,,,,,,,,,,,,,,,,,,,,,,,,,,,,,,,,,,,,,,,,,,,,,,,,,,,,,,,,,,,,,,,,,,,,,,,,,,,,,,,,,,,,,,,,,,,
0,79,79,63,1,,5f980a192b5a61051e949f4b,62bbf988ef77b8322f668d17,2022-06-29_09h12.21.221,Colour_Asymmetry_Pilot,2022.1.3,Win32,59.94125757,62bbe60bf3d75ef465d3e404,,,,,,,,,,,,,,,,,,,,,,,,,,,,,,,,,,,,,,,,,,,,,,,,,,,,,,,,,,,,,,,,,,,,,,,,,,,,,,,,,,,,,,,,,,,,,,,,,,,,,,,,,,,,,,,,,,,,,,,,,,,,,,,,,,,,,,,,,,,,,,,,,,,,,,,,,,,,,,
0,80,80,48,1,,5f980a192b5a61051e949f4b,62bbf988ef77b8322f668d17,2022-06-29_09h12.21.221,Colour_Asymmetry_Pilot,2022.1.3,Win32,59.94125757,62bbe60bf3d75ef465d3e404,,,,,,,,,,,,,,,,,,,,,,,,,,,,,,,,,,,,,,,,,,,,,,,,,,,,,,,,,,,,,,,,,,,,,,,,,,,,,,,,,,,,,,,,,,,,,,,,,,,,,,,,,,,,,,,,,,,,,,,,,,,,,,,,,,,,,,,,,,,,,,,,,,,,,,,,,,,,,,
0,81,81,52,1,,5f980a192b5a61051e949f4b,62bbf988ef77b8322f668d17,2022-06-29_09h12.21.221,Colour_Asymmetry_Pilot,2022.1.3,Win32,59.94125757,62bbe60bf3d75ef465d3e404,,,,,,,,,,,,,,,,,,,,,,,,,,,,,,,,,,,,,,,,,,,,,,,,,,,,,,,,,,,,,,,,,,,,,,,,,,,,,,,,,,,,,,,,,,,,,,,,,,,,,,,,,,,,,,,,,,,,,,,,,,,,,,,,,,,,,,,,,,,,,,,,,,,,,,,,,,,,,,
0,82,82,87,1,,5f980a192b5a61051e949f4b,62bbf988ef77b8322f668d17,2022-06-29_09h12.21.221,Colour_Asymmetry_Pilot,2022.1.3,Win32,59.94125757,62bbe60bf3d75ef465d3e404,,,,,,,,,,,,,,,,,,,,,,,,,,,,,,,,,,,,,,,,,,,,,,,,,,,,,,,,,,,,,,,,,,,,,,,,,,,,,,,,,,,,,,,,,,,,,,,,,,,,,,,,,,,,,,,,,,,,,,,,,,,,,,,,,,,,,,,,,,,,,,,,,,,,,,,,,,,,,,
0,83,83,18,1,,5f980a192b5a61051e949f4b,62bbf988ef77b8322f668d17,2022-06-29_09h12.21.221,Colour_Asymmetry_Pilot,2022.1.3,Win32,59.94125757,62bbe60bf3d75ef465d3e404,,,,,,,,,,,,,,,,,,,,,,,,,,,,,,,,,,,,,,,,,,,,,,,,,,,,,,,,,,,,,,,,,,,,,,,,,,,,,,,,,,,,,,,,,,,,,,,,,,,,,,,,,,,,,,,,,,,,,,,,,,,,,,,,,,,,,,,,,,,,,,,,,,,,,,,,,,,,,,
0,84,84,24,1,,5f980a192b5a61051e949f4b,62bbf988ef77b8322f668d17,2022-06-29_09h12.21.221,Colour_Asymmetry_Pilot,2022.1.3,Win32,59.94125757,62bbe60bf3d75ef465d3e404,,,,,,,,,,,,,,,,,,,,,,,,,,,,,,,,,,,,,,,,,,,,,,,,,,,,,,,,,,,,,,,,,,,,,,,,,,,,,,,,,,,,,,,,,,,,,,,,,,,,,,,,,,,,,,,,,,,,,,,,,,,,,,,,,,,,,,,,,,,,,,,,,,,,,,,,,,,,,,
0,85,85,68,1,,5f980a192b5a61051e949f4b,62bbf988ef77b8322f668d17,2022-06-29_09h12.21.221,Colour_Asymmetry_Pilot,2022.1.3,Win32,59.94125757,62bbe60bf3d75ef465d3e404,,,,,,,,,,,,,,,,,,,,,,,,,,,,,,,,,,,,,,,,,,,,,,,,,,,,,,,,,,,,,,,,,,,,,,,,,,,,,,,,,,,,,,,,,,,,,,,,,,,,,,,,,,,,,,,,,,,,,,,,,,,,,,,,,,,,,,,,,,,,,,,,,,,,,,,,,,,,,,
0,86,86,44,1,,5f980a192b5a61051e949f4b,62bbf988ef77b8322f668d17,2022-06-29_09h12.21.221,Colour_Asymmetry_Pilot,2022.1.3,Win32,59.94125757,62bbe60bf3d75ef465d3e404,,,,,,,,,,,,,,,,,,,,,,,,,,,,,,,,,,,,,,,,,,,,,,,,,,,,,,,,,,,,,,,,,,,,,,,,,,,,,,,,,,,,,,,,,,,,,,,,,,,,,,,,,,,,,,,,,,,,,,,,,,,,,,,,,,,,,,,,,,,,,,,,,,,,,,,,,,,,,,
0,87,87,35,1,,5f980a192b5a61051e949f4b,62bbf988ef77b8322f668d17,2022-06-29_09h12.21.221,Colour_Asymmetry_Pilot,2022.1.3,Win32,59.94125757,62bbe60bf3d75ef465d3e404,,,,,,,,,,,,,,,,,,,,,,,,,,,,,,,,,,,,,,,,,,,,,,,,,,,,,,,,,,,,,,,,,,,,,,,,,,,,,,,,,,,,,,,,,,,,,,,,,,,,,,,,,,,,,,,,,,,,,,,,,,,,,,,,,,,,,,,,,,,,,,,,,,,,,,,,,,,,,,
0,88,88,42,1,,5f980a192b5a61051e949f4b,62bbf988ef77b8322f668d17,2022-06-29_09h12.21.221,Colour_Asymmetry_Pilot,2022.1.3,Win32,59.94125757,62bbe60bf3d75ef465d3e404,,,,,,,,,,,,,,,,,,,,,,,,,,,,,,,,,,,,,,,,,,,,,,,,,,,,,,,,,,,,,,,,,,,,,,,,,,,,,,,,,,,,,,,,,,,,,,,,,,,,,,,,,,,,,,,,,,,,,,,,,,,,,,,,,,,,,,,,,,,,,,,,,,,,,,,,,,,,,,
0,89,89,43,1,,5f980a192b5a61051e949f4b,62bbf988ef77b8322f668d17,2022-06-29_09h12.21.221,Colour_Asymmetry_Pilot,2022.1.3,Win32,59.94125757,62bbe60bf3d75ef465d3e404,,,,,,,,,,,,,,,,,,,,,,,,,,,,,,,,,,,,,,,,,,,,,,,,,,,,,,,,,,,,,,,,,,,,,,,,,,,,,,,,,,,,,,,,,,,,,,,,,,,,,,,,,,,,,,,,,,,,,,,,,,,,,,,,,,,,,,,,,,,,,,,,,,,,,,,,,,,,,,
0,90,90,58,1,,5f980a192b5a61051e949f4b,62bbf988ef77b8322f668d17,2022-06-29_09h12.21.221,Colour_Asymmetry_Pilot,2022.1.3,Win32,59.94125757,62bbe60bf3d75ef465d3e404,,,,,,,,,,,,,,,,,,,,,,,,,,,,,,,,,,,,,,,,,,,,,,,,,,,,,,,,,,,,,,,,,,,,,,,,,,,,,,,,,,,,,,,,,,,,,,,,,,,,,,,,,,,,,,,,,,,,,,,,,,,,,,,,,,,,,,,,,,,,,,,,,,,,,,,,,,,,,,
0,91,91,81,1,,5f980a192b5a61051e949f4b,62bbf988ef77b8322f668d17,2022-06-29_09h12.21.221,Colour_Asymmetry_Pilot,2022.1.3,Win32,59.94125757,62bbe60bf3d75ef465d3e404,,,,,,,,,,,,,,,,,,,,,,,,,,,,,,,,,,,,,,,,,,,,,,,,,,,,,,,,,,,,,,,,,,,,,,,,,,,,,,,,,,,,,,,,,,,,,,,,,,,,,,,,,,,,,,,,,,,,,,,,,,,,,,,,,,,,,,,,,,,,,,,,,,,,,,,,,,,,,,
0,92,92,11,1,,5f980a192b5a61051e949f4b,62bbf988ef77b8322f668d17,2022-06-29_09h12.21.221,Colour_Asymmetry_Pilot,2022.1.3,Win32,59.94125757,62bbe60bf3d75ef465d3e404,,,,,,,,,,,,,,,,,,,,,,,,,,,,,,,,,,,,,,,,,,,,,,,,,,,,,,,,,,,,,,,,,,,,,,,,,,,,,,,,,,,,,,,,,,,,,,,,,,,,,,,,,,,,,,,,,,,,,,,,,,,,,,,,,,,,,,,,,,,,,,,,,,,,,,,,,,,,,,
,,,,,,5f980a192b5a61051e949f4b,62bbf988ef77b8322f668d17,2022-06-29_09h12.21.221,Colour_Asymmetry_Pilot,2022.1.3,Win32,59.94125757,62bbe60bf3d75ef465d3e404,0,0,0,94,1,fourtwo,,,,,,,,,,,,,,,,,,,,,,,,,,,,,,,,,,,,,,,,,,,,,,,,,,,,,,,,,,,,,,,,,,,,,,,,,,,,,,,,,,,,,,,,,,,,,,,,,,,,,,,,,,,,,,,,,,,,,,,,,,,,,,,,,,,,,,,,,,,,,,,,,,,,,,,,
,,,,,,5f980a192b5a61051e949f4b,62bbf988ef77b8322f668d17,2022-06-29_09h12.21.221,Colour_Asymmetry_Pilot,2022.1.3,Win32,59.94125757,62bbe60bf3d75ef465d3e404,0,1,1,118,1,fourtwo,,,,,,,,,,,,,,,,,,,,,,,,,,,,,,,,,,,,,,,,,,,,,,,,,,,,,,,,,,,,,,,,,,,,,,,,,,,,,,,,,,,,,,,,,,,,,,,,,,,,,,,,,,,,,,,,,,,,,,,,,,,,,,,,,,,,,,,,,,,,,,,,,,,,,,,,
,,,,,,5f980a192b5a61051e949f4b,62bbf988ef77b8322f668d17,2022-06-29_09h12.21.221,Colour_Asymmetry_Pilot,2022.1.3,Win32,59.94125757,62bbe60bf3d75ef465d3e404,0,2,2,91,1,twofour,,,,,,,,,,,,,,,,,,,,,,,,,,,,,,,,,,,,,,,,,,,,,,,,,,,,,,,,,,,,,,,,,,,,,,,,,,,,,,,,,,,,,,,,,,,,,,,,,,,,,,,,,,,,,,,,,,,,,,,,,,,,,,,,,,,,,,,,,,,,,,,,,,,,,,,,
,,,,,,5f980a192b5a61051e949f4b,62bbf988ef77b8322f668d17,2022-06-29_09h12.21.221,Colour_Asymmetry_Pilot,2022.1.3,Win32,59.94125757,62bbe60bf3d75ef465d3e404,0,3,3,114,1,twoone,,,,,,,,,,,,,,,,,,,,,,,,,,,,,,,,,,,,,,,,,,,,,,,,,,,,,,,,,,,,,,,,,,,,,,,,,,,,,,,,,,,,,,,,,,,,,,,,,,,,,,,,,,,,,,,,,,,,,,,,,,,,,,,,,,,,,,,,,,,,,,,,,,,,,,,,
,,,,,,5f980a192b5a61051e949f4b,62bbf988ef77b8322f668d17,2022-06-29_09h12.21.221,Colour_Asymmetry_Pilot,2022.1.3,Win32,59.94125757,62bbe60bf3d75ef465d3e404,0,4,4,55,1,fourthree,,,,,,,,,,,,,,,,,,,,,,,,,,,,,,,,,,,,,,,,,,,,,,,,,,,,,,,,,,,,,,,,,,,,,,,,,,,,,,,,,,,,,,,,,,,,,,,,,,,,,,,,,,,,,,,,,,,,,,,,,,,,,,,,,,,,,,,,,,,,,,,,,,,,,,,,
,,,,,,5f980a192b5a61051e949f4b,62bbf988ef77b8322f668d17,2022-06-29_09h12.21.221,Colour_Asymmetry_Pilot,2022.1.3,Win32,59.94125757,62bbe60bf3d75ef465d3e404,0,5,5,58,1,twoone,,,,,,,,,,,,,,,,,,,,,,,,,,,,,,,,,,,,,,,,,,,,,,,,,,,,,,,,,,,,,,,,,,,,,,,,,,,,,,,,,,,,,,,,,,,,,,,,,,,,,,,,,,,,,,,,,,,,,,,,,,,,,,,,,,,,,,,,,,,,,,,,,,,,,,,,
,,,,,,5f980a192b5a61051e949f4b,62bbf988ef77b8322f668d17,2022-06-29_09h12.21.221,Colour_Asymmetry_Pilot,2022.1.3,Win32,59.94125757,62bbe60bf3d75ef465d3e404,0,6,6,72,1,onetwo,,,,,,,,,,,,,,,,,,,,,,,,,,,,,,,,,,,,,,,,,,,,,,,,,,,,,,,,,,,,,,,,,,,,,,,,,,,,,,,,,,,,,,,,,,,,,,,,,,,,,,,,,,,,,,,,,,,,,,,,,,,,,,,,,,,,,,,,,,,,,,,,,,,,,,,,
,,,,,,5f980a192b5a61051e949f4b,62bbf988ef77b8322f668d17,2022-06-29_09h12.21.221,Colour_Asymmetry_Pilot,2022.1.3,Win32,59.94125757,62bbe60bf3d75ef465d3e404,0,7,7,23,1,fourthree,,,,,,,,,,,,,,,,,,,,,,,,,,,,,,,,,,,,,,,,,,,,,,,,,,,,,,,,,,,,,,,,,,,,,,,,,,,,,,,,,,,,,,,,,,,,,,,,,,,,,,,,,,,,,,,,,,,,,,,,,,,,,,,,,,,,,,,,,,,,,,,,,,,,,,,,
,,,,,,5f980a192b5a61051e949f4b,62bbf988ef77b8322f668d17,2022-06-29_09h12.21.221,Colour_Asymmetry_Pilot,2022.1.3,Win32,59.94125757,62bbe60bf3d75ef465d3e404,0,8,8,69,1,threefour,,,,,,,,,,,,,,,,,,,,,,,,,,,,,,,,,,,,,,,,,,,,,,,,,,,,,,,,,,,,,,,,,,,,,,,,,,,,,,,,,,,,,,,,,,,,,,,,,,,,,,,,,,,,,,,,,,,,,,,,,,,,,,,,,,,,,,,,,,,,,,,,,,,,,,,,
,,,,,,5f980a192b5a61051e949f4b,62bbf988ef77b8322f668d17,2022-06-29_09h12.21.221,Colour_Asymmetry_Pilot,2022.1.3,Win32,59.94125757,62bbe60bf3d75ef465d3e404,0,9,9,95,1,fourthree,,,,,,,,,,,,,,,,,,,,,,,,,,,,,,,,,,,,,,,,,,,,,,,,,,,,,,,,,,,,,,,,,,,,,,,,,,,,,,,,,,,,,,,,,,,,,,,,,,,,,,,,,,,,,,,,,,,,,,,,,,,,,,,,,,,,,,,,,,,,,,,,,,,,,,,,
,,,,,,5f980a192b5a61051e949f4b,62bbf988ef77b8322f668d17,2022-06-29_09h12.21.221,Colour_Asymmetry_Pilot,2022.1.3,Win32,59.94125757,62bbe60bf3d75ef465d3e404,0,10,10,102,1,fourtwo,,,,,,,,,,,,,,,,,,,,,,,,,,,,,,,,,,,,,,,,,,,,,,,,,,,,,,,,,,,,,,,,,,,,,,,,,,,,,,,,,,,,,,,,,,,,,,,,,,,,,,,,,,,,,,,,,,,,,,,,,,,,,,,,,,,,,,,,,,,,,,,,,,,,,,,,
,,,,,,5f980a192b5a61051e949f4b,62bbf988ef77b8322f668d17,2022-06-29_09h12.21.221,Colour_Asymmetry_Pilot,2022.1.3,Win32,59.94125757,62bbe60bf3d75ef465d3e404,0,11,11,64,1,onetwo,,,,,,,,,,,,,,,,,,,,,,,,,,,,,,,,,,,,,,,,,,,,,,,,,,,,,,,,,,,,,,,,,,,,,,,,,,,,,,,,,,,,,,,,,,,,,,,,,,,,,,,,,,,,,,,,,,,,,,,,,,,,,,,,,,,,,,,,,,,,,,,,,,,,,,,,
,,,,,,5f980a192b5a61051e949f4b,62bbf988ef77b8322f668d17,2022-06-29_09h12.21.221,Colour_Asymmetry_Pilot,2022.1.3,Win32,59.94125757,62bbe60bf3d75ef465d3e404,0,12,12,76,1,threeone,,,,,,,,,,,,,,,,,,,,,,,,,,,,,,,,,,,,,,,,,,,,,,,,,,,,,,,,,,,,,,,,,,,,,,,,,,,,,,,,,,,,,,,,,,,,,,,,,,,,,,,,,,,,,,,,,,,,,,,,,,,,,,,,,,,,,,,,,,,,,,,,,,,,,,,,
,,,,,,5f980a192b5a61051e949f4b,62bbf988ef77b8322f668d17,2022-06-29_09h12.21.221,Colour_Asymmetry_Pilot,2022.1.3,Win32,59.94125757,62bbe60bf3d75ef465d3e404,0,13,13,106,1,twoone,,,,,,,,,,,,,,,,,,,,,,,,,,,,,,,,,,,,,,,,,,,,,,,,,,,,,,,,,,,,,,,,,,,,,,,,,,,,,,,,,,,,,,,,,,,,,,,,,,,,,,,,,,,,,,,,,,,,,,,,,,,,,,,,,,,,,,,,,,,,,,,,,,,,,,,,
,,,,,,5f980a192b5a61051e949f4b,62bbf988ef77b8322f668d17,2022-06-29_09h12.21.221,Colour_Asymmetry_Pilot,2022.1.3,Win32,59.94125757,62bbe60bf3d75ef465d3e404,0,14,14,54,1,fourtwo,,,,,,,,,,,,,,,,,,,,,,,,,,,,,,,,,,,,,,,,,,,,,,,,,,,,,,,,,,,,,,,,,,,,,,,,,,,,,,,,,,,,,,,,,,,,,,,,,,,,,,,,,,,,,,,,,,,,,,,,,,,,,,,,,,,,,,,,,,,,,,,,,,,,,,,,
,,,,,,5f980a192b5a61051e949f4b,62bbf988ef77b8322f668d17,2022-06-29_09h12.21.221,Colour_Asymmetry_Pilot,2022.1.3,Win32,59.94125757,62bbe60bf3d75ef465d3e404,0,15,15,21,1,threefour,,,,,,,,,,,,,,,,,,,,,,,,,,,,,,,,,,,,,,,,,,,,,,,,,,,,,,,,,,,,,,,,,,,,,,,,,,,,,,,,,,,,,,,,,,,,,,,,,,,,,,,,,,,,,,,,,,,,,,,,,,,,,,,,,,,,,,,,,,,,,,,,,,,,,,,,
,,,,,,5f980a192b5a61051e949f4b,62bbf988ef77b8322f668d17,2022-06-29_09h12.21.221,Colour_Asymmetry_Pilot,2022.1.3,Win32,59.94125757,62bbe60bf3d75ef465d3e404,0,16,16,67,1,twofour,,,,,,,,,,,,,,,,,,,,,,,,,,,,,,,,,,,,,,,,,,,,,,,,,,,,,,,,,,,,,,,,,,,,,,,,,,,,,,,,,,,,,,,,,,,,,,,,,,,,,,,,,,,,,,,,,,,,,,,,,,,,,,,,,,,,,,,,,,,,,,,,,,,,,,,,
,,,,,,5f980a192b5a61051e949f4b,62bbf988ef77b8322f668d17,2022-06-29_09h12.21.221,Colour_Asymmetry_Pilot,2022.1.3,Win32,59.94125757,62bbe60bf3d75ef465d3e404,0,17,17,122,1,twoone,,,,,,,,,,,,,,,,,,,,,,,,,,,,,,,,,,,,,,,,,,,,,,,,,,,,,,,,,,,,,,,,,,,,,,,,,,,,,,,,,,,,,,,,,,,,,,,,,,,,,,,,,,,,,,,,,,,,,,,,,,,,,,,,,,,,,,,,,,,,,,,,,,,,,,,,
,,,,,,5f980a192b5a61051e949f4b,62bbf988ef77b8322f668d17,2022-06-29_09h12.21.221,Colour_Asymmetry_Pilot,2022.1.3,Win32,59.94125757,62bbe60bf3d75ef465d3e404,0,18,18,43,1,twofour,,,,,,,,,,,,,,,,,,,,,,,,,,,,,,,,,,,,,,,,,,,,,,,,,,,,,,,,,,,,,,,,,,,,,,,,,,,,,,,,,,,,,,,,,,,,,,,,,,,,,,,,,,,,,,,,,,,,,,,,,,,,,,,,,,,,,,,,,,,,,,,,,,,,,,,,
,,,,,,5f980a192b5a61051e949f4b,62bbf988ef77b8322f668d17,2022-06-29_09h12.21.221,Colour_Asymmetry_Pilot,2022.1.3,Win32,59.94125757,62bbe60bf3d75ef465d3e404,0,19,19,68,1,threeone,,,,,,,,,,,,,,,,,,,,,,,,,,,,,,,,,,,,,,,,,,,,,,,,,,,,,,,,,,,,,,,,,,,,,,,,,,,,,,,,,,,,,,,,,,,,,,,,,,,,,,,,,,,,,,,,,,,,,,,,,,,,,,,,,,,,,,,,,,,,,,,,,,,,,,,,
,,,,,,5f980a192b5a61051e949f4b,62bbf988ef77b8322f668d17,2022-06-29_09h12.21.221,Colour_Asymmetry_Pilot,2022.1.3,Win32,59.94125757,62bbe60bf3d75ef465d3e404,0,20,20,11,1,twofour,,,,,,,,,,,,,,,,,,,,,,,,,,,,,,,,,,,,,,,,,,,,,,,,,,,,,,,,,,,,,,,,,,,,,,,,,,,,,,,,,,,,,,,,,,,,,,,,,,,,,,,,,,,,,,,,,,,,,,,,,,,,,,,,,,,,,,,,,,,,,,,,,,,,,,,,
,,,,,,5f980a192b5a61051e949f4b,62bbf988ef77b8322f668d17,2022-06-29_09h12.21.221,Colour_Asymmetry_Pilot,2022.1.3,Win32,59.94125757,62bbe60bf3d75ef465d3e404,0,21,21,61,1,threefour,,,,,,,,,,,,,,,,,,,,,,,,,,,,,,,,,,,,,,,,,,,,,,,,,,,,,,,,,,,,,,,,,,,,,,,,,,,,,,,,,,,,,,,,,,,,,,,,,,,,,,,,,,,,,,,,,,,,,,,,,,,,,,,,,,,,,,,,,,,,,,,,,,,,,,,,
,,,,,,5f980a192b5a61051e949f4b,62bbf988ef77b8322f668d17,2022-06-29_09h12.21.221,Colour_Asymmetry_Pilot,2022.1.3,Win32,59.94125757,62bbe60bf3d75ef465d3e404,0,22,22,36,1,threeone,,,,,,,,,,,,,,,,,,,,,,,,,,,,,,,,,,,,,,,,,,,,,,,,,,,,,,,,,,,,,,,,,,,,,,,,,,,,,,,,,,,,,,,,,,,,,,,,,,,,,,,,,,,,,,,,,,,,,,,,,,,,,,,,,,,,,,,,,,,,,,,,,,,,,,,,
,,,,,,5f980a192b5a61051e949f4b,62bbf988ef77b8322f668d17,2022-06-29_09h12.21.221,Colour_Asymmetry_Pilot,2022.1.3,Win32,59.94125757,62bbe60bf3d75ef465d3e404,0,23,23,6,1,fourtwo,,,,,,,,,,,,,,,,,,,,,,,,,,,,,,,,,,,,,,,,,,,,,,,,,,,,,,,,,,,,,,,,,,,,,,,,,,,,,,,,,,,,,,,,,,,,,,,,,,,,,,,,,,,,,,,,,,,,,,,,,,,,,,,,,,,,,,,,,,,,,,,,,,,,,,,,
,,,,,,5f980a192b5a61051e949f4b,62bbf988ef77b8322f668d17,2022-06-29_09h12.21.221,Colour_Asymmetry_Pilot,2022.1.3,Win32,59.94125757,62bbe60bf3d75ef465d3e404,0,24,24,75,1,twofour,,,,,,,,,,,,,,,,,,,,,,,,,,,,,,,,,,,,,,,,,,,,,,,,,,,,,,,,,,,,,,,,,,,,,,,,,,,,,,,,,,,,,,,,,,,,,,,,,,,,,,,,,,,,,,,,,,,,,,,,,,,,,,,,,,,,,,,,,,,,,,,,,,,,,,,,
,,,,,,5f980a192b5a61051e949f4b,62bbf988ef77b8322f668d17,2022-06-29_09h12.21.221,Colour_Asymmetry_Pilot,2022.1.3,Win32,59.94125757,62bbe60bf3d75ef465d3e404,0,25,25,134,1,fourtwo,,,,,,,,,,,,,,,,,,,,,,,,,,,,,,,,,,,,,,,,,,,,,,,,,,,,,,,,,,,,,,,,,,,,,,,,,,,,,,,,,,,,,,,,,,,,,,,,,,,,,,,,,,,,,,,,,,,,,,,,,,,,,,,,,,,,,,,,,,,,,,,,,,,,,,,,
,,,,,,5f980a192b5a61051e949f4b,62bbf988ef77b8322f668d17,2022-06-29_09h12.21.221,Colour_Asymmetry_Pilot,2022.1.3,Win32,59.94125757,62bbe60bf3d75ef465d3e404,0,26,26,5,1,threefour,,,,,,,,,,,,,,,,,,,,,,,,,,,,,,,,,,,,,,,,,,,,,,,,,,,,,,,,,,,,,,,,,,,,,,,,,,,,,,,,,,,,,,,,,,,,,,,,,,,,,,,,,,,,,,,,,,,,,,,,,,,,,,,,,,,,,,,,,,,,,,,,,,,,,,,,
,,,,,,5f980a192b5a61051e949f4b,62bbf988ef77b8322f668d17,2022-06-29_09h12.21.221,Colour_Asymmetry_Pilot,2022.1.3,Win32,59.94125757,62bbe60bf3d75ef465d3e404,0,27,27,111,1,fourthree,,,,,,,,,,,,,,,,,,,,,,,,,,,,,,,,,,,,,,,,,,,,,,,,,,,,,,,,,,,,,,,,,,,,,,,,,,,,,,,,,,,,,,,,,,,,,,,,,,,,,,,,,,,,,,,,,,,,,,,,,,,,,,,,,,,,,,,,,,,,,,,,,,,,,,,,
,,,,,,5f980a192b5a61051e949f4b,62bbf988ef77b8322f668d17,2022-06-29_09h12.21.221,Colour_Asymmetry_Pilot,2022.1.3,Win32,59.94125757,62bbe60bf3d75ef465d3e404,0,28,28,107,1,twofour,,,,,,,,,,,,,,,,,,,,,,,,,,,,,,,,,,,,,,,,,,,,,,,,,,,,,,,,,,,,,,,,,,,,,,,,,,,,,,,,,,,,,,,,,,,,,,,,,,,,,,,,,,,,,,,,,,,,,,,,,,,,,,,,,,,,,,,,,,,,,,,,,,,,,,,,
,,,,,,5f980a192b5a61051e949f4b,62bbf988ef77b8322f668d17,2022-06-29_09h12.21.221,Colour_Asymmetry_Pilot,2022.1.3,Win32,59.94125757,62bbe60bf3d75ef465d3e404,0,29,29,37,1,threefour,,,,,,,,,,,,,,,,,,,,,,,,,,,,,,,,,,,,,,,,,,,,,,,,,,,,,,,,,,,,,,,,,,,,,,,,,,,,,,,,,,,,,,,,,,,,,,,,,,,,,,,,,,,,,,,,,,,,,,,,,,,,,,,,,,,,,,,,,,,,,,,,,,,,,,,,
,,,,,,5f980a192b5a61051e949f4b,62bbf988ef77b8322f668d17,2022-06-29_09h12.21.221,Colour_Asymmetry_Pilot,2022.1.3,Win32,59.94125757,62bbe60bf3d75ef465d3e404,0,30,30,83,1,twofour,,,,,,,,,,,,,,,,,,,,,,,,,,,,,,,,,,,,,,,,,,,,,,,,,,,,,,,,,,,,,,,,,,,,,,,,,,,,,,,,,,,,,,,,,,,,,,,,,,,,,,,,,,,,,,,,,,,,,,,,,,,,,,,,,,,,,,,,,,,,,,,,,,,,,,,,
,,,,,,5f980a192b5a61051e949f4b,62bbf988ef77b8322f668d17,2022-06-29_09h12.21.221,Colour_Asymmetry_Pilot,2022.1.3,Win32,59.94125757,62bbe60bf3d75ef465d3e404,0,31,31,135,1,fourthree,,,,,,,,,,,,,,,,,,,,,,,,,,,,,,,,,,,,,,,,,,,,,,,,,,,,,,,,,,,,,,,,,,,,,,,,,,,,,,,,,,,,,,,,,,,,,,,,,,,,,,,,,,,,,,,,,,,,,,,,,,,,,,,,,,,,,,,,,,,,,,,,,,,,,,,,
,,,,,,5f980a192b5a61051e949f4b,62bbf988ef77b8322f668d17,2022-06-29_09h12.21.221,Colour_Asymmetry_Pilot,2022.1.3,Win32,59.94125757,62bbe60bf3d75ef465d3e404,0,32,32,47,1,fourthree,,,,,,,,,,,,,,,,,,,,,,,,,,,,,,,,,,,,,,,,,,,,,,,,,,,,,,,,,,,,,,,,,,,,,,,,,,,,,,,,,,,,,,,,,,,,,,,,,,,,,,,,,,,,,,,,,,,,,,,,,,,,,,,,,,,,,,,,,,,,,,,,,,,,,,,,
,,,,,,5f980a192b5a61051e949f4b,62bbf988ef77b8322f668d17,2022-06-29_09h12.21.221,Colour_Asymmetry_Pilot,2022.1.3,Win32,59.94125757,62bbe60bf3d75ef465d3e404,0,33,33,87,1,fourthree,,,,,,,,,,,,,,,,,,,,,,,,,,,,,,,,,,,,,,,,,,,,,,,,,,,,,,,,,,,,,,,,,,,,,,,,,,,,,,,,,,,,,,,,,,,,,,,,,,,,,,,,,,,,,,,,,,,,,,,,,,,,,,,,,,,,,,,,,,,,,,,,,,,,,,,,
,,,,,,5f980a192b5a61051e949f4b,62bbf988ef77b8322f668d17,2022-06-29_09h12.21.221,Colour_Asymmetry_Pilot,2022.1.3,Win32,59.94125757,62bbe60bf3d75ef465d3e404,0,34,34,17,1,onethree,,,,,,,,,,,,,,,,,,,,,,,,,,,,,,,,,,,,,,,,,,,,,,,,,,,,,,,,,,,,,,,,,,,,,,,,,,,,,,,,,,,,,,,,,,,,,,,,,,,,,,,,,,,,,,,,,,,,,,,,,,,,,,,,,,,,,,,,,,,,,,,,,,,,,,,,
,,,,,,5f980a192b5a61051e949f4b,62bbf988ef77b8322f668d17,2022-06-29_09h12.21.221,Colour_Asymmetry_Pilot,2022.1.3,Win32,59.94125757,62bbe60bf3d75ef465d3e404,0,35,35,81,1,onethree,,,,,,,,,,,,,,,,,,,,,,,,,,,,,,,,,,,,,,,,,,,,,,,,,,,,,,,,,,,,,,,,,,,,,,,,,,,,,,,,,,,,,,,,,,,,,,,,,,,,,,,,,,,,,,,,,,,,,,,,,,,,,,,,,,,,,,,,,,,,,,,,,,,,,,,,
,,,,,,5f980a192b5a61051e949f4b,62bbf988ef77b8322f668d17,2022-06-29_09h12.21.221,Colour_Asymmetry_Pilot,2022.1.3,Win32,59.94125757,62bbe60bf3d75ef465d3e404,0,36,36,10,1,twoone,,,,,,,,,,,,,,,,,,,,,,,,,,,,,,,,,,,,,,,,,,,,,,,,,,,,,,,,,,,,,,,,,,,,,,,,,,,,,,,,,,,,,,,,,,,,,,,,,,,,,,,,,,,,,,,,,,,,,,,,,,,,,,,,,,,,,,,,,,,,,,,,,,,,,,,,
,,,,,,5f980a192b5a61051e949f4b,62bbf988ef77b8322f668d17,2022-06-29_09h12.21.221,Colour_Asymmetry_Pilot,2022.1.3,Win32,59.94125757,62bbe60bf3d75ef465d3e404,0,37,37,66,1,twoone,,,,,,,,,,,,,,,,,,,,,,,,,,,,,,,,,,,,,,,,,,,,,,,,,,,,,,,,,,,,,,,,,,,,,,,,,,,,,,,,,,,,,,,,,,,,,,,,,,,,,,,,,,,,,,,,,,,,,,,,,,,,,,,,,,,,,,,,,,,,,,,,,,,,,,,,
,,,,,,5f980a192b5a61051e949f4b,62bbf988ef77b8322f668d17,2022-06-29_09h12.21.221,Colour_Asymmetry_Pilot,2022.1.3,Win32,59.94125757,62bbe60bf3d75ef465d3e404,0,38,38,152,1,onetwo,,,,,,,,,,,,,,,,,,,,,,,,,,,,,,,,,,,,,,,,,,,,,,,,,,,,,,,,,,,,,,,,,,,,,,,,,,,,,,,,,,,,,,,,,,,,,,,,,,,,,,,,,,,,,,,,,,,,,,,,,,,,,,,,,,,,,,,,,,,,,,,,,,,,,,,,
,,,,,,5f980a192b5a61051e949f4b,62bbf988ef77b8322f668d17,2022-06-29_09h12.21.221,Colour_Asymmetry_Pilot,2022.1.3,Win32,59.94125757,62bbe60bf3d75ef465d3e404,0,39,39,133,1,threefour,,,,,,,,,,,,,,,,,,,,,,,,,,,,,,,,,,,,,,,,,,,,,,,,,,,,,,,,,,,,,,,,,,,,,,,,,,,,,,,,,,,,,,,,,,,,,,,,,,,,,,,,,,,,,,,,,,,,,,,,,,,,,,,,,,,,,,,,,,,,,,,,,,,,,,,,
,,,,,,5f980a192b5a61051e949f4b,62bbf988ef77b8322f668d17,2022-06-29_09h12.21.221,Colour_Asymmetry_Pilot,2022.1.3,Win32,59.94125757,62bbe60bf3d75ef465d3e404,0,40,40,137,1,onethree,,,,,,,,,,,,,,,,,,,,,,,,,,,,,,,,,,,,,,,,,,,,,,,,,,,,,,,,,,,,,,,,,,,,,,,,,,,,,,,,,,,,,,,,,,,,,,,,,,,,,,,,,,,,,,,,,,,,,,,,,,,,,,,,,,,,,,,,,,,,,,,,,,,,,,,,
,,,,,,5f980a192b5a61051e949f4b,62bbf988ef77b8322f668d17,2022-06-29_09h12.21.221,Colour_Asymmetry_Pilot,2022.1.3,Win32,59.94125757,62bbe60bf3d75ef465d3e404,0,41,41,98,1,twoone,,,,,,,,,,,,,,,,,,,,,,,,,,,,,,,,,,,,,,,,,,,,,,,,,,,,,,,,,,,,,,,,,,,,,,,,,,,,,,,,,,,,,,,,,,,,,,,,,,,,,,,,,,,,,,,,,,,,,,,,,,,,,,,,,,,,,,,,,,,,,,,,,,,,,,,,
,,,,,,5f980a192b5a61051e949f4b,62bbf988ef77b8322f668d17,2022-06-29_09h12.21.221,Colour_Asymmetry_Pilot,2022.1.3,Win32,59.94125757,62bbe60bf3d75ef465d3e404,0,42,42,1,1,onethree,,,,,,,,,,,,,,,,,,,,,,,,,,,,,,,,,,,,,,,,,,,,,,,,,,,,,,,,,,,,,,,,,,,,,,,,,,,,,,,,,,,,,,,,,,,,,,,,,,,,,,,,,,,,,,,,,,,,,,,,,,,,,,,,,,,,,,,,,,,,,,,,,,,,,,,,
,,,,,,5f980a192b5a61051e949f4b,62bbf988ef77b8322f668d17,2022-06-29_09h12.21.221,Colour_Asymmetry_Pilot,2022.1.3,Win32,59.94125757,62bbe60bf3d75ef465d3e404,0,43,43,53,1,threefour,,,,,,,,,,,,,,,,,,,,,,,,,,,,,,,,,,,,,,,,,,,,,,,,,,,,,,,,,,,,,,,,,,,,,,,,,,,,,,,,,,,,,,,,,,,,,,,,,,,,,,,,,,,,,,,,,,,,,,,,,,,,,,,,,,,,,,,,,,,,,,,,,,,,,,,,
,,,,,,5f980a192b5a61051e949f4b,62bbf988ef77b8322f668d17,2022-06-29_09h12.21.221,Colour_Asymmetry_Pilot,2022.1.3,Win32,59.94125757,62bbe60bf3d75ef465d3e404,0,44,44,59,1,twofour,,,,,,,,,,,,,,,,,,,,,,,,,,,,,,,,,,,,,,,,,,,,,,,,,,,,,,,,,,,,,,,,,,,,,,,,,,,,,,,,,,,,,,,,,,,,,,,,,,,,,,,,,,,,,,,,,,,,,,,,,,,,,,,,,,,,,,,,,,,,,,,,,,,,,,,,
,,,,,,5f980a192b5a61051e949f4b,62bbf988ef77b8322f668d17,2022-06-29_09h12.21.221,Colour_Asymmetry_Pilot,2022.1.3,Win32,59.94125757,62bbe60bf3d75ef465d3e404,0,45,45,46,1,fourtwo,,,,,,,,,,,,,,,,,,,,,,,,,,,,,,,,,,,,,,,,,,,,,,,,,,,,,,,,,,,,,,,,,,,,,,,,,,,,,,,,,,,,,,,,,,,,,,,,,,,,,,,,,,,,,,,,,,,,,,,,,,,,,,,,,,,,,,,,,,,,,,,,,,,,,,,,
,,,,,,5f980a192b5a61051e949f4b,62bbf988ef77b8322f668d17,2022-06-29_09h12.21.221,Colour_Asymmetry_Pilot,2022.1.3,Win32,59.94125757,62bbe60bf3d75ef465d3e404,0,46,46,143,1,fourthree,,,,,,,,,,,,,,,,,,,,,,,,,,,,,,,,,,,,,,,,,,,,,,,,,,,,,,,,,,,,,,,,,,,,,,,,,,,,,,,,,,,,,,,,,,,,,,,,,,,,,,,,,,,,,,,,,,,,,,,,,,,,,,,,,,,,,,,,,,,,,,,,,,,,,,,,
,,,,,,5f980a192b5a61051e949f4b,62bbf988ef77b8322f668d17,2022-06-29_09h12.21.221,Colour_Asymmetry_Pilot,2022.1.3,Win32,59.94125757,62bbe60bf3d75ef465d3e404,0,47,47,79,1,fourthree,,,,,,,,,,,,,,,,,,,,,,,,,,,,,,,,,,,,,,,,,,,,,,,,,,,,,,,,,,,,,,,,,,,,,,,,,,,,,,,,,,,,,,,,,,,,,,,,,,,,,,,,,,,,,,,,,,,,,,,,,,,,,,,,,,,,,,,,,,,,,,,,,,,,,,,,
,,,,,,5f980a192b5a61051e949f4b,62bbf988ef77b8322f668d17,2022-06-29_09h12.21.221,Colour_Asymmetry_Pilot,2022.1.3,Win32,59.94125757,62bbe60bf3d75ef465d3e404,0,48,48,31,1,fourthree,,,,,,,,,,,,,,,,,,,,,,,,,,,,,,,,,,,,,,,,,,,,,,,,,,,,,,,,,,,,,,,,,,,,,,,,,,,,,,,,,,,,,,,,,,,,,,,,,,,,,,,,,,,,,,,,,,,,,,,,,,,,,,,,,,,,,,,,,,,,,,,,,,,,,,,,
,,,,,,5f980a192b5a61051e949f4b,62bbf988ef77b8322f668d17,2022-06-29_09h12.21.221,Colour_Asymmetry_Pilot,2022.1.3,Win32,59.94125757,62bbe60bf3d75ef465d3e404,0,49,49,99,1,twofour,,,,,,,,,,,,,,,,,,,,,,,,,,,,,,,,,,,,,,,,,,,,,,,,,,,,,,,,,,,,,,,,,,,,,,,,,,,,,,,,,,,,,,,,,,,,,,,,,,,,,,,,,,,,,,,,,,,,,,,,,,,,,,,,,,,,,,,,,,,,,,,,,,,,,,,,
,,,,,,5f980a192b5a61051e949f4b,62bbf988ef77b8322f668d17,2022-06-29_09h12.21.221,Colour_Asymmetry_Pilot,2022.1.3,Win32,59.94125757,62bbe60bf3d75ef465d3e404,0,50,50,39,1,fourthree,,,,,,,,,,,,,,,,,,,,,,,,,,,,,,,,,,,,,,,,,,,,,,,,,,,,,,,,,,,,,,,,,,,,,,,,,,,,,,,,,,,,,,,,,,,,,,,,,,,,,,,,,,,,,,,,,,,,,,,,,,,,,,,,,,,,,,,,,,,,,,,,,,,,,,,,
,,,,,,5f980a192b5a61051e949f4b,62bbf988ef77b8322f668d17,2022-06-29_09h12.21.221,Colour_Asymmetry_Pilot,2022.1.3,Win32,59.94125757,62bbe60bf3d75ef465d3e404,0,51,51,145,1,onethree,,,,,,,,,,,,,,,,,,,,,,,,,,,,,,,,,,,,,,,,,,,,,,,,,,,,,,,,,,,,,,,,,,,,,,,,,,,,,,,,,,,,,,,,,,,,,,,,,,,,,,,,,,,,,,,,,,,,,,,,,,,,,,,,,,,,,,,,,,,,,,,,,,,,,,,,
,,,,,,5f980a192b5a61051e949f4b,62bbf988ef77b8322f668d17,2022-06-29_09h12.21.221,Colour_Asymmetry_Pilot,2022.1.3,Win32,59.94125757,62bbe60bf3d75ef465d3e404,0,52,52,35,1,twofour,,,,,,,,,,,,,,,,,,,,,,,,,,,,,,,,,,,,,,,,,,,,,,,,,,,,,,,,,,,,,,,,,,,,,,,,,,,,,,,,,,,,,,,,,,,,,,,,,,,,,,,,,,,,,,,,,,,,,,,,,,,,,,,,,,,,,,,,,,,,,,,,,,,,,,,,
,,,,,,5f980a192b5a61051e949f4b,62bbf988ef77b8322f668d17,2022-06-29_09h12.21.221,Colour_Asymmetry_Pilot,2022.1.3,Win32,59.94125757,62bbe60bf3d75ef465d3e404,0,53,53,112,1,onetwo,,,,,,,,,,,,,,,,,,,,,,,,,,,,,,,,,,,,,,,,,,,,,,,,,,,,,,,,,,,,,,,,,,,,,,,,,,,,,,,,,,,,,,,,,,,,,,,,,,,,,,,,,,,,,,,,,,,,,,,,,,,,,,,,,,,,,,,,,,,,,,,,,,,,,,,,
,,,,,,5f980a192b5a61051e949f4b,62bbf988ef77b8322f668d17,2022-06-29_09h12.21.221,Colour_Asymmetry_Pilot,2022.1.3,Win32,59.94125757,62bbe60bf3d75ef465d3e404,0,54,54,49,1,onethree,,,,,,,,,,,,,,,,,,,,,,,,,,,,,,,,,,,,,,,,,,,,,,,,,,,,,,,,,,,,,,,,,,,,,,,,,,,,,,,,,,,,,,,,,,,,,,,,,,,,,,,,,,,,,,,,,,,,,,,,,,,,,,,,,,,,,,,,,,,,,,,,,,,,,,,,
,,,,,,5f980a192b5a61051e949f4b,62bbf988ef77b8322f668d17,2022-06-29_09h12.21.221,Colour_Asymmetry_Pilot,2022.1.3,Win32,59.94125757,62bbe60bf3d75ef465d3e404,0,55,55,38,1,fourtwo,,,,,,,,,,,,,,,,,,,,,,,,,,,,,,,,,,,,,,,,,,,,,,,,,,,,,,,,,,,,,,,,,,,,,,,,,,,,,,,,,,,,,,,,,,,,,,,,,,,,,,,,,,,,,,,,,,,,,,,,,,,,,,,,,,,,,,,,,,,,,,,,,,,,,,,,
,,,,,,5f980a192b5a61051e949f4b,62bbf988ef77b8322f668d17,2022-06-29_09h12.21.221,Colour_Asymmetry_Pilot,2022.1.3,Win32,59.94125757,62bbe60bf3d75ef465d3e404,0,56,56,130,1,twoone,,,,,,,,,,,,,,,,,,,,,,,,,,,,,,,,,,,,,,,,,,,,,,,,,,,,,,,,,,,,,,,,,,,,,,,,,,,,,,,,,,,,,,,,,,,,,,,,,,,,,,,,,,,,,,,,,,,,,,,,,,,,,,,,,,,,,,,,,,,,,,,,,,,,,,,,
,,,,,,5f980a192b5a61051e949f4b,62bbf988ef77b8322f668d17,2022-06-29_09h12.21.221,Colour_Asymmetry_Pilot,2022.1.3,Win32,59.94125757,62bbe60bf3d75ef465d3e404,0,57,57,120,1,onetwo,,,,,,,,,,,,,,,,,,,,,,,,,,,,,,,,,,,,,,,,,,,,,,,,,,,,,,,,,,,,,,,,,,,,,,,,,,,,,,,,,,,,,,,,,,,,,,,,,,,,,,,,,,,,,,,,,,,,,,,,,,,,,,,,,,,,,,,,,,,,,,,,,,,,,,,,
,,,,,,5f980a192b5a61051e949f4b,62bbf988ef77b8322f668d17,2022-06-29_09h12.21.221,Colour_Asymmetry_Pilot,2022.1.3,Win32,59.94125757,62bbe60bf3d75ef465d3e404,0,58,58,80,1,onetwo,,,,,,,,,,,,,,,,,,,,,,,,,,,,,,,,,,,,,,,,,,,,,,,,,,,,,,,,,,,,,,,,,,,,,,,,,,,,,,,,,,,,,,,,,,,,,,,,,,,,,,,,,,,,,,,,,,,,,,,,,,,,,,,,,,,,,,,,,,,,,,,,,,,,,,,,
,,,,,,5f980a192b5a61051e949f4b,62bbf988ef77b8322f668d17,2022-06-29_09h12.21.221,Colour_Asymmetry_Pilot,2022.1.3,Win32,59.94125757,62bbe60bf3d75ef465d3e404,0,59,59,44,1,threeone,,,,,,,,,,,,,,,,,,,,,,,,,,,,,,,,,,,,,,,,,,,,,,,,,,,,,,,,,,,,,,,,,,,,,,,,,,,,,,,,,,,,,,,,,,,,,,,,,,,,,,,,,,,,,,,,,,,,,,,,,,,,,,,,,,,,,,,,,,,,,,,,,,,,,,,,
,,,,,,5f980a192b5a61051e949f4b,62bbf988ef77b8322f668d17,2022-06-29_09h12.21.221,Colour_Asymmetry_Pilot,2022.1.3,Win32,59.94125757,62bbe60bf3d75ef465d3e404,0,60,60,51,1,twofour,,,,,,,,,,,,,,,,,,,,,,,,,,,,,,,,,,,,,,,,,,,,,,,,,,,,,,,,,,,,,,,,,,,,,,,,,,,,,,,,,,,,,,,,,,,,,,,,,,,,,,,,,,,,,,,,,,,,,,,,,,,,,,,,,,,,,,,,,,,,,,,,,,,,,,,,
,,,,,,5f980a192b5a61051e949f4b,62bbf988ef77b8322f668d17,2022-06-29_09h12.21.221,Colour_Asymmetry_Pilot,2022.1.3,Win32,59.94125757,62bbe60bf3d75ef465d3e404,0,61,61,78,1,fourtwo,,,,,,,,,,,,,,,,,,,,,,,,,,,,,,,,,,,,,,,,,,,,,,,,,,,,,,,,,,,,,,,,,,,,,,,,,,,,,,,,,,,,,,,,,,,,,,,,,,,,,,,,,,,,,,,,,,,,,,,,,,,,,,,,,,,,,,,,,,,,,,,,,,,,,,,,
,,,,,,5f980a192b5a61051e949f4b,62bbf988ef77b8322f668d17,2022-06-29_09h12.21.221,Colour_Asymmetry_Pilot,2022.1.3,Win32,59.94125757,62bbe60bf3d75ef465d3e404,0,62,62,155,1,twofour,,,,,,,,,,,,,,,,,,,,,,,,,,,,,,,,,,,,,,,,,,,,,,,,,,,,,,,,,,,,,,,,,,,,,,,,,,,,,,,,,,,,,,,,,,,,,,,,,,,,,,,,,,,,,,,,,,,,,,,,,,,,,,,,,,,,,,,,,,,,,,,,,,,,,,,,
,,,,,,5f980a192b5a61051e949f4b,62bbf988ef77b8322f668d17,2022-06-29_09h12.21.221,Colour_Asymmetry_Pilot,2022.1.3,Win32,59.94125757,62bbe60bf3d75ef465d3e404,0,63,63,96,1,onetwo,,,,,,,,,,,,,,,,,,,,,,,,,,,,,,,,,,,,,,,,,,,,,,,,,,,,,,,,,,,,,,,,,,,,,,,,,,,,,,,,,,,,,,,,,,,,,,,,,,,,,,,,,,,,,,,,,,,,,,,,,,,,,,,,,,,,,,,,,,,,,,,,,,,,,,,,
,,,,,,5f980a192b5a61051e949f4b,62bbf988ef77b8322f668d17,2022-06-29_09h12.21.221,Colour_Asymmetry_Pilot,2022.1.3,Win32,59.94125757,62bbe60bf3d75ef465d3e404,0,64,64,73,1,onethree,,,,,,,,,,,,,,,,,,,,,,,,,,,,,,,,,,,,,,,,,,,,,,,,,,,,,,,,,,,,,,,,,,,,,,,,,,,,,,,,,,,,,,,,,,,,,,,,,,,,,,,,,,,,,,,,,,,,,,,,,,,,,,,,,,,,,,,,,,,,,,,,,,,,,,,,
,,,,,,5f980a192b5a61051e949f4b,62bbf988ef77b8322f668d17,2022-06-29_09h12.21.221,Colour_Asymmetry_Pilot,2022.1.3,Win32,59.94125757,62bbe60bf3d75ef465d3e404,0,65,65,85,1,threefour,,,,,,,,,,,,,,,,,,,,,,,,,,,,,,,,,,,,,,,,,,,,,,,,,,,,,,,,,,,,,,,,,,,,,,,,,,,,,,,,,,,,,,,,,,,,,,,,,,,,,,,,,,,,,,,,,,,,,,,,,,,,,,,,,,,,,,,,,,,,,,,,,,,,,,,,
,,,,,,5f980a192b5a61051e949f4b,62bbf988ef77b8322f668d17,2022-06-29_09h12.21.221,Colour_Asymmetry_Pilot,2022.1.3,Win32,59.94125757,62bbe60bf3d75ef465d3e404,0,66,66,52,1,threeone,,,,,,,,,,,,,,,,,,,,,,,,,,,,,,,,,,,,,,,,,,,,,,,,,,,,,,,,,,,,,,,,,,,,,,,,,,,,,,,,,,,,,,,,,,,,,,,,,,,,,,,,,,,,,,,,,,,,,,,,,,,,,,,,,,,,,,,,,,,,,,,,,,,,,,,,
,,,,,,5f980a192b5a61051e949f4b,62bbf988ef77b8322f668d17,2022-06-29_09h12.21.221,Colour_Asymmetry_Pilot,2022.1.3,Win32,59.94125757,62bbe60bf3d75ef465d3e404,0,67,67,63,1,fourthree,,,,,,,,,,,,,,,,,,,,,,,,,,,,,,,,,,,,,,,,,,,,,,,,,,,,,,,,,,,,,,,,,,,,,,,,,,,,,,,,,,,,,,,,,,,,,,,,,,,,,,,,,,,,,,,,,,,,,,,,,,,,,,,,,,,,,,,,,,,,,,,,,,,,,,,,
,,,,,,5f980a192b5a61051e949f4b,62bbf988ef77b8322f668d17,2022-06-29_09h12.21.221,Colour_Asymmetry_Pilot,2022.1.3,Win32,59.94125757,62bbe60bf3d75ef465d3e404,0,68,68,7,1,fourthree,,,,,,,,,,,,,,,,,,,,,,,,,,,,,,,,,,,,,,,,,,,,,,,,,,,,,,,,,,,,,,,,,,,,,,,,,,,,,,,,,,,,,,,,,,,,,,,,,,,,,,,,,,,,,,,,,,,,,,,,,,,,,,,,,,,,,,,,,,,,,,,,,,,,,,,,
,,,,,,5f980a192b5a61051e949f4b,62bbf988ef77b8322f668d17,2022-06-29_09h12.21.221,Colour_Asymmetry_Pilot,2022.1.3,Win32,59.94125757,62bbe60bf3d75ef465d3e404,0,69,69,154,1,twoone,,,,,,,,,,,,,,,,,,,,,,,,,,,,,,,,,,,,,,,,,,,,,,,,,,,,,,,,,,,,,,,,,,,,,,,,,,,,,,,,,,,,,,,,,,,,,,,,,,,,,,,,,,,,,,,,,,,,,,,,,,,,,,,,,,,,,,,,,,,,,,,,,,,,,,,,
,,,,,,5f980a192b5a61051e949f4b,62bbf988ef77b8322f668d17,2022-06-29_09h12.21.221,Colour_Asymmetry_Pilot,2022.1.3,Win32,59.94125757,62bbe60bf3d75ef465d3e404,0,70,70,29,1,threefour,,,,,,,,,,,,,,,,,,,,,,,,,,,,,,,,,,,,,,,,,,,,,,,,,,,,,,,,,,,,,,,,,,,,,,,,,,,,,,,,,,,,,,,,,,,,,,,,,,,,,,,,,,,,,,,,,,,,,,,,,,,,,,,,,,,,,,,,,,,,,,,,,,,,,,,,
,,,,,,5f980a192b5a61051e949f4b,62bbf988ef77b8322f668d17,2022-06-29_09h12.21.221,Colour_Asymmetry_Pilot,2022.1.3,Win32,59.94125757,62bbe60bf3d75ef465d3e404,0,71,71,15,1,fourthree,,,,,,,,,,,,,,,,,,,,,,,,,,,,,,,,,,,,,,,,,,,,,,,,,,,,,,,,,,,,,,,,,,,,,,,,,,,,,,,,,,,,,,,,,,,,,,,,,,,,,,,,,,,,,,,,,,,,,,,,,,,,,,,,,,,,,,,,,,,,,,,,,,,,,,,,
,,,,,,5f980a192b5a61051e949f4b,62bbf988ef77b8322f668d17,2022-06-29_09h12.21.221,Colour_Asymmetry_Pilot,2022.1.3,Win32,59.94125757,62bbe60bf3d75ef465d3e404,0,72,72,109,1,threefour,,,,,,,,,,,,,,,,,,,,,,,,,,,,,,,,,,,,,,,,,,,,,,,,,,,,,,,,,,,,,,,,,,,,,,,,,,,,,,,,,,,,,,,,,,,,,,,,,,,,,,,,,,,,,,,,,,,,,,,,,,,,,,,,,,,,,,,,,,,,,,,,,,,,,,,,
,,,,,,5f980a192b5a61051e949f4b,62bbf988ef77b8322f668d17,2022-06-29_09h12.21.221,Colour_Asymmetry_Pilot,2022.1.3,Win32,59.94125757,62bbe60bf3d75ef465d3e404,0,73,73,84,1,threeone,,,,,,,,,,,,,,,,,,,,,,,,,,,,,,,,,,,,,,,,,,,,,,,,,,,,,,,,,,,,,,,,,,,,,,,,,,,,,,,,,,,,,,,,,,,,,,,,,,,,,,,,,,,,,,,,,,,,,,,,,,,,,,,,,,,,,,,,,,,,,,,,,,,,,,,,
,,,,,,5f980a192b5a61051e949f4b,62bbf988ef77b8322f668d17,2022-06-29_09h12.21.221,Colour_Asymmetry_Pilot,2022.1.3,Win32,59.94125757,62bbe60bf3d75ef465d3e404,0,74,74,4,1,threeone,,,,,,,,,,,,,,,,,,,,,,,,,,,,,,,,,,,,,,,,,,,,,,,,,,,,,,,,,,,,,,,,,,,,,,,,,,,,,,,,,,,,,,,,,,,,,,,,,,,,,,,,,,,,,,,,,,,,,,,,,,,,,,,,,,,,,,,,,,,,,,,,,,,,,,,,
,,,,,,5f980a192b5a61051e949f4b,62bbf988ef77b8322f668d17,2022-06-29_09h12.21.221,Colour_Asymmetry_Pilot,2022.1.3,Win32,59.94125757,62bbe60bf3d75ef465d3e404,0,75,75,161,1,onethree,,,,,,,,,,,,,,,,,,,,,,,,,,,,,,,,,,,,,,,,,,,,,,,,,,,,,,,,,,,,,,,,,,,,,,,,,,,,,,,,,,,,,,,,,,,,,,,,,,,,,,,,,,,,,,,,,,,,,,,,,,,,,,,,,,,,,,,,,,,,,,,,,,,,,,,,
,,,,,,5f980a192b5a61051e949f4b,62bbf988ef77b8322f668d17,2022-06-29_09h12.21.221,Colour_Asymmetry_Pilot,2022.1.3,Win32,59.94125757,62bbe60bf3d75ef465d3e404,0,76,76,131,1,twofour,,,,,,,,,,,,,,,,,,,,,,,,,,,,,,,,,,,,,,,,,,,,,,,,,,,,,,,,,,,,,,,,,,,,,,,,,,,,,,,,,,,,,,,,,,,,,,,,,,,,,,,,,,,,,,,,,,,,,,,,,,,,,,,,,,,,,,,,,,,,,,,,,,,,,,,,
,,,,,,5f980a192b5a61051e949f4b,62bbf988ef77b8322f668d17,2022-06-29_09h12.21.221,Colour_Asymmetry_Pilot,2022.1.3,Win32,59.94125757,62bbe60bf3d75ef465d3e404,0,77,77,24,1,onetwo,,,,,,,,,,,,,,,,,,,,,,,,,,,,,,,,,,,,,,,,,,,,,,,,,,,,,,,,,,,,,,,,,,,,,,,,,,,,,,,,,,,,,,,,,,,,,,,,,,,,,,,,,,,,,,,,,,,,,,,,,,,,,,,,,,,,,,,,,,,,,,,,,,,,,,,,
,,,,,,5f980a192b5a61051e949f4b,62bbf988ef77b8322f668d17,2022-06-29_09h12.21.221,Colour_Asymmetry_Pilot,2022.1.3,Win32,59.94125757,62bbe60bf3d75ef465d3e404,0,78,78,149,1,threefour,,,,,,,,,,,,,,,,,,,,,,,,,,,,,,,,,,,,,,,,,,,,,,,,,,,,,,,,,,,,,,,,,,,,,,,,,,,,,,,,,,,,,,,,,,,,,,,,,,,,,,,,,,,,,,,,,,,,,,,,,,,,,,,,,,,,,,,,,,,,,,,,,,,,,,,,
,,,,,,5f980a192b5a61051e949f4b,62bbf988ef77b8322f668d17,2022-06-29_09h12.21.221,Colour_Asymmetry_Pilot,2022.1.3,Win32,59.94125757,62bbe60bf3d75ef465d3e404,0,79,79,144,1,onetwo,,,,,,,,,,,,,,,,,,,,,,,,,,,,,,,,,,,,,,,,,,,,,,,,,,,,,,,,,,,,,,,,,,,,,,,,,,,,,,,,,,,,,,,,,,,,,,,,,,,,,,,,,,,,,,,,,,,,,,,,,,,,,,,,,,,,,,,,,,,,,,,,,,,,,,,,
,,,,,,5f980a192b5a61051e949f4b,62bbf988ef77b8322f668d17,2022-06-29_09h12.21.221,Colour_Asymmetry_Pilot,2022.1.3,Win32,59.94125757,62bbe60bf3d75ef465d3e404,0,80,80,108,1,threeone,,,,,,,,,,,,,,,,,,,,,,,,,,,,,,,,,,,,,,,,,,,,,,,,,,,,,,,,,,,,,,,,,,,,,,,,,,,,,,,,,,,,,,,,,,,,,,,,,,,,,,,,,,,,,,,,,,,,,,,,,,,,,,,,,,,,,,,,,,,,,,,,,,,,,,,,
,,,,,,5f980a192b5a61051e949f4b,62bbf988ef77b8322f668d17,2022-06-29_09h12.21.221,Colour_Asymmetry_Pilot,2022.1.3,Win32,59.94125757,62bbe60bf3d75ef465d3e404,0,81,81,42,1,twoone,,,,,,,,,,,,,,,,,,,,,,,,,,,,,,,,,,,,,,,,,,,,,,,,,,,,,,,,,,,,,,,,,,,,,,,,,,,,,,,,,,,,,,,,,,,,,,,,,,,,,,,,,,,,,,,,,,,,,,,,,,,,,,,,,,,,,,,,,,,,,,,,,,,,,,,,
,,,,,,5f980a192b5a61051e949f4b,62bbf988ef77b8322f668d17,2022-06-29_09h12.21.221,Colour_Asymmetry_Pilot,2022.1.3,Win32,59.94125757,62bbe60bf3d75ef465d3e404,0,82,82,119,1,fourthree,,,,,,,,,,,,,,,,,,,,,,,,,,,,,,,,,,,,,,,,,,,,,,,,,,,,,,,,,,,,,,,,,,,,,,,,,,,,,,,,,,,,,,,,,,,,,,,,,,,,,,,,,,,,,,,,,,,,,,,,,,,,,,,,,,,,,,,,,,,,,,,,,,,,,,,,
,,,,,,5f980a192b5a61051e949f4b,62bbf988ef77b8322f668d17,2022-06-29_09h12.21.221,Colour_Asymmetry_Pilot,2022.1.3,Win32,59.94125757,62bbe60bf3d75ef465d3e404,0,83,83,40,1,onetwo,,,,,,,,,,,,,,,,,,,,,,,,,,,,,,,,,,,,,,,,,,,,,,,,,,,,,,,,,,,,,,,,,,,,,,,,,,,,,,,,,,,,,,,,,,,,,,,,,,,,,,,,,,,,,,,,,,,,,,,,,,,,,,,,,,,,,,,,,,,,,,,,,,,,,,,,
,,,,,,5f980a192b5a61051e949f4b,62bbf988ef77b8322f668d17,2022-06-29_09h12.21.221,Colour_Asymmetry_Pilot,2022.1.3,Win32,59.94125757,62bbe60bf3d75ef465d3e404,0,84,84,105,1,onethree,,,,,,,,,,,,,,,,,,,,,,,,,,,,,,,,,,,,,,,,,,,,,,,,,,,,,,,,,,,,,,,,,,,,,,,,,,,,,,,,,,,,,,,,,,,,,,,,,,,,,,,,,,,,,,,,,,,,,,,,,,,,,,,,,,,,,,,,,,,,,,,,,,,,,,,,
,,,,,,5f980a192b5a61051e949f4b,62bbf988ef77b8322f668d17,2022-06-29_09h12.21.221,Colour_Asymmetry_Pilot,2022.1.3,Win32,59.94125757,62bbe60bf3d75ef465d3e404,0,85,85,0,1,onetwo,,,,,,,,,,,,,,,,,,,,,,,,,,,,,,,,,,,,,,,,,,,,,,,,,,,,,,,,,,,,,,,,,,,,,,,,,,,,,,,,,,,,,,,,,,,,,,,,,,,,,,,,,,,,,,,,,,,,,,,,,,,,,,,,,,,,,,,,,,,,,,,,,,,,,,,,
,,,,,,5f980a192b5a61051e949f4b,62bbf988ef77b8322f668d17,2022-06-29_09h12.21.221,Colour_Asymmetry_Pilot,2022.1.3,Win32,59.94125757,62bbe60bf3d75ef465d3e404,0,86,86,70,1,fourtwo,,,,,,,,,,,,,,,,,,,,,,,,,,,,,,,,,,,,,,,,,,,,,,,,,,,,,,,,,,,,,,,,,,,,,,,,,,,,,,,,,,,,,,,,,,,,,,,,,,,,,,,,,,,,,,,,,,,,,,,,,,,,,,,,,,,,,,,,,,,,,,,,,,,,,,,,
,,,,,,5f980a192b5a61051e949f4b,62bbf988ef77b8322f668d17,2022-06-29_09h12.21.221,Colour_Asymmetry_Pilot,2022.1.3,Win32,59.94125757,62bbe60bf3d75ef465d3e404,0,87,87,156,1,threeone,,,,,,,,,,,,,,,,,,,,,,,,,,,,,,,,,,,,,,,,,,,,,,,,,,,,,,,,,,,,,,,,,,,,,,,,,,,,,,,,,,,,,,,,,,,,,,,,,,,,,,,,,,,,,,,,,,,,,,,,,,,,,,,,,,,,,,,,,,,,,,,,,,,,,,,,
,,,,,,5f980a192b5a61051e949f4b,62bbf988ef77b8322f668d17,2022-06-29_09h12.21.221,Colour_Asymmetry_Pilot,2022.1.3,Win32,59.94125757,62bbe60bf3d75ef465d3e404,0,88,88,110,1,fourtwo,,,,,,,,,,,,,,,,,,,,,,,,,,,,,,,,,,,,,,,,,,,,,,,,,,,,,,,,,,,,,,,,,,,,,,,,,,,,,,,,,,,,,,,,,,,,,,,,,,,,,,,,,,,,,,,,,,,,,,,,,,,,,,,,,,,,,,,,,,,,,,,,,,,,,,,,
,,,,,,5f980a192b5a61051e949f4b,62bbf988ef77b8322f668d17,2022-06-29_09h12.21.221,Colour_Asymmetry_Pilot,2022.1.3,Win32,59.94125757,62bbe60bf3d75ef465d3e404,0,89,89,158,1,fourtwo,,,,,,,,,,,,,,,,,,,,,,,,,,,,,,,,,,,,,,,,,,,,,,,,,,,,,,,,,,,,,,,,,,,,,,,,,,,,,,,,,,,,,,,,,,,,,,,,,,,,,,,,,,,,,,,,,,,,,,,,,,,,,,,,,,,,,,,,,,,,,,,,,,,,,,,,
,,,,,,5f980a192b5a61051e949f4b,62bbf988ef77b8322f668d17,2022-06-29_09h12.21.221,Colour_Asymmetry_Pilot,2022.1.3,Win32,59.94125757,62bbe60bf3d75ef465d3e404,0,90,90,71,1,fourthree,,,,,,,,,,,,,,,,,,,,,,,,,,,,,,,,,,,,,,,,,,,,,,,,,,,,,,,,,,,,,,,,,,,,,,,,,,,,,,,,,,,,,,,,,,,,,,,,,,,,,,,,,,,,,,,,,,,,,,,,,,,,,,,,,,,,,,,,,,,,,,,,,,,,,,,,
,,,,,,5f980a192b5a61051e949f4b,62bbf988ef77b8322f668d17,2022-06-29_09h12.21.221,Colour_Asymmetry_Pilot,2022.1.3,Win32,59.94125757,62bbe60bf3d75ef465d3e404,0,91,91,45,1,threefour,,,,,,,,,,,,,,,,,,,,,,,,,,,,,,,,,,,,,,,,,,,,,,,,,,,,,,,,,,,,,,,,,,,,,,,,,,,,,,,,,,,,,,,,,,,,,,,,,,,,,,,,,,,,,,,,,,,,,,,,,,,,,,,,,,,,,,,,,,,,,,,,,,,,,,,,
,,,,,,5f980a192b5a61051e949f4b,62bbf988ef77b8322f668d17,2022-06-29_09h12.21.221,Colour_Asymmetry_Pilot,2022.1.3,Win32,59.94125757,62bbe60bf3d75ef465d3e404,0,92,92,132,1,threeone,,,,,,,,,,,,,,,,,,,,,,,,,,,,,,,,,,,,,,,,,,,,,,,,,,,,,,,,,,,,,,,,,,,,,,,,,,,,,,,,,,,,,,,,,,,,,,,,,,,,,,,,,,,,,,,,,,,,,,,,,,,,,,,,,,,,,,,,,,,,,,,,,,,,,,,,
,,,,,,5f980a192b5a61051e949f4b,62bbf988ef77b8322f668d17,2022-06-29_09h12.21.221,Colour_Asymmetry_Pilot,2022.1.3,Win32,59.94125757,62bbe60bf3d75ef465d3e404,0,93,93,9,1,onethree,,,,,,,,,,,,,,,,,,,,,,,,,,,,,,,,,,,,,,,,,,,,,,,,,,,,,,,,,,,,,,,,,,,,,,,,,,,,,,,,,,,,,,,,,,,,,,,,,,,,,,,,,,,,,,,,,,,,,,,,,,,,,,,,,,,,,,,,,,,,,,,,,,,,,,,,
,,,,,,5f980a192b5a61051e949f4b,62bbf988ef77b8322f668d17,2022-06-29_09h12.21.221,Colour_Asymmetry_Pilot,2022.1.3,Win32,59.94125757,62bbe60bf3d75ef465d3e404,0,94,94,48,1,onetwo,,,,,,,,,,,,,,,,,,,,,,,,,,,,,,,,,,,,,,,,,,,,,,,,,,,,,,,,,,,,,,,,,,,,,,,,,,,,,,,,,,,,,,,,,,,,,,,,,,,,,,,,,,,,,,,,,,,,,,,,,,,,,,,,,,,,,,,,,,,,,,,,,,,,,,,,
,,,,,,5f980a192b5a61051e949f4b,62bbf988ef77b8322f668d17,2022-06-29_09h12.21.221,Colour_Asymmetry_Pilot,2022.1.3,Win32,59.94125757,62bbe60bf3d75ef465d3e404,0,95,95,65,1,onethree,,,,,,,,,,,,,,,,,,,,,,,,,,,,,,,,,,,,,,,,,,,,,,,,,,,,,,,,,,,,,,,,,,,,,,,,,,,,,,,,,,,,,,,,,,,,,,,,,,,,,,,,,,,,,,,,,,,,,,,,,,,,,,,,,,,,,,,,,,,,,,,,,,,,,,,,
,,,,,,5f980a192b5a61051e949f4b,62bbf988ef77b8322f668d17,2022-06-29_09h12.21.221,Colour_Asymmetry_Pilot,2022.1.3,Win32,59.94125757,62bbe60bf3d75ef465d3e404,0,96,96,27,1,twofour,,,,,,,,,,,,,,,,,,,,,,,,,,,,,,,,,,,,,,,,,,,,,,,,,,,,,,,,,,,,,,,,,,,,,,,,,,,,,,,,,,,,,,,,,,,,,,,,,,,,,,,,,,,,,,,,,,,,,,,,,,,,,,,,,,,,,,,,,,,,,,,,,,,,,,,,
,,,,,,5f980a192b5a61051e949f4b,62bbf988ef77b8322f668d17,2022-06-29_09h12.21.221,Colour_Asymmetry_Pilot,2022.1.3,Win32,59.94125757,62bbe60bf3d75ef465d3e404,0,97,97,103,1,fourthree,,,,,,,,,,,,,,,,,,,,,,,,,,,,,,,,,,,,,,,,,,,,,,,,,,,,,,,,,,,,,,,,,,,,,,,,,,,,,,,,,,,,,,,,,,,,,,,,,,,,,,,,,,,,,,,,,,,,,,,,,,,,,,,,,,,,,,,,,,,,,,,,,,,,,,,,
,,,,,,5f980a192b5a61051e949f4b,62bbf988ef77b8322f668d17,2022-06-29_09h12.21.221,Colour_Asymmetry_Pilot,2022.1.3,Win32,59.94125757,62bbe60bf3d75ef465d3e404,0,98,98,28,1,threeone,,,,,,,,,,,,,,,,,,,,,,,,,,,,,,,,,,,,,,,,,,,,,,,,,,,,,,,,,,,,,,,,,,,,,,,,,,,,,,,,,,,,,,,,,,,,,,,,,,,,,,,,,,,,,,,,,,,,,,,,,,,,,,,,,,,,,,,,,,,,,,,,,,,,,,,,
,,,,,,5f980a192b5a61051e949f4b,62bbf988ef77b8322f668d17,2022-06-29_09h12.21.221,Colour_Asymmetry_Pilot,2022.1.3,Win32,59.94125757,62bbe60bf3d75ef465d3e404,0,99,99,74,1,twoone,,,,,,,,,,,,,,,,,,,,,,,,,,,,,,,,,,,,,,,,,,,,,,,,,,,,,,,,,,,,,,,,,,,,,,,,,,,,,,,,,,,,,,,,,,,,,,,,,,,,,,,,,,,,,,,,,,,,,,,,,,,,,,,,,,,,,,,,,,,,,,,,,,,,,,,,
,,,,,,5f980a192b5a61051e949f4b,62bbf988ef77b8322f668d17,2022-06-29_09h12.21.221,Colour_Asymmetry_Pilot,2022.1.3,Win32,59.94125757,62bbe60bf3d75ef465d3e404,0,100,100,100,1,threeone,,,,,,,,,,,,,,,,,,,,,,,,,,,,,,,,,,,,,,,,,,,,,,,,,,,,,,,,,,,,,,,,,,,,,,,,,,,,,,,,,,,,,,,,,,,,,,,,,,,,,,,,,,,,,,,,,,,,,,,,,,,,,,,,,,,,,,,,,,,,,,,,,,,,,,,,
,,,,,,5f980a192b5a61051e949f4b,62bbf988ef77b8322f668d17,2022-06-29_09h12.21.221,Colour_Asymmetry_Pilot,2022.1.3,Win32,59.94125757,62bbe60bf3d75ef465d3e404,0,101,101,159,1,fourthree,,,,,,,,,,,,,,,,,,,,,,,,,,,,,,,,,,,,,,,,,,,,,,,,,,,,,,,,,,,,,,,,,,,,,,,,,,,,,,,,,,,,,,,,,,,,,,,,,,,,,,,,,,,,,,,,,,,,,,,,,,,,,,,,,,,,,,,,,,,,,,,,,,,,,,,,
,,,,,,5f980a192b5a61051e949f4b,62bbf988ef77b8322f668d17,2022-06-29_09h12.21.221,Colour_Asymmetry_Pilot,2022.1.3,Win32,59.94125757,62bbe60bf3d75ef465d3e404,0,102,102,2,1,twoone,,,,,,,,,,,,,,,,,,,,,,,,,,,,,,,,,,,,,,,,,,,,,,,,,,,,,,,,,,,,,,,,,,,,,,,,,,,,,,,,,,,,,,,,,,,,,,,,,,,,,,,,,,,,,,,,,,,,,,,,,,,,,,,,,,,,,,,,,,,,,,,,,,,,,,,,
,,,,,,5f980a192b5a61051e949f4b,62bbf988ef77b8322f668d17,2022-06-29_09h12.21.221,Colour_Asymmetry_Pilot,2022.1.3,Win32,59.94125757,62bbe60bf3d75ef465d3e404,0,103,103,138,1,twoone,,,,,,,,,,,,,,,,,,,,,,,,,,,,,,,,,,,,,,,,,,,,,,,,,,,,,,,,,,,,,,,,,,,,,,,,,,,,,,,,,,,,,,,,,,,,,,,,,,,,,,,,,,,,,,,,,,,,,,,,,,,,,,,,,,,,,,,,,,,,,,,,,,,,,,,,
,,,,,,5f980a192b5a61051e949f4b,62bbf988ef77b8322f668d17,2022-06-29_09h12.21.221,Colour_Asymmetry_Pilot,2022.1.3,Win32,59.94125757,62bbe60bf3d75ef465d3e404,0,104,104,93,1,threefour,,,,,,,,,,,,,,,,,,,,,,,,,,,,,,,,,,,,,,,,,,,,,,,,,,,,,,,,,,,,,,,,,,,,,,,,,,,,,,,,,,,,,,,,,,,,,,,,,,,,,,,,,,,,,,,,,,,,,,,,,,,,,,,,,,,,,,,,,,,,,,,,,,,,,,,,
,,,,,,5f980a192b5a61051e949f4b,62bbf988ef77b8322f668d17,2022-06-29_09h12.21.221,Colour_Asymmetry_Pilot,2022.1.3,Win32,59.94125757,62bbe60bf3d75ef465d3e404,0,105,105,34,1,twoone,,,,,,,,,,,,,,,,,,,,,,,,,,,,,,,,,,,,,,,,,,,,,,,,,,,,,,,,,,,,,,,,,,,,,,,,,,,,,,,,,,,,,,,,,,,,,,,,,,,,,,,,,,,,,,,,,,,,,,,,,,,,,,,,,,,,,,,,,,,,,,,,,,,,,,,,
,,,,,,5f980a192b5a61051e949f4b,62bbf988ef77b8322f668d17,2022-06-29_09h12.21.221,Colour_Asymmetry_Pilot,2022.1.3,Win32,59.94125757,62bbe60bf3d75ef465d3e404,0,106,106,13,1,threefour,,,,,,,,,,,,,,,,,,,,,,,,,,,,,,,,,,,,,,,,,,,,,,,,,,,,,,,,,,,,,,,,,,,,,,,,,,,,,,,,,,,,,,,,,,,,,,,,,,,,,,,,,,,,,,,,,,,,,,,,,,,,,,,,,,,,,,,,,,,,,,,,,,,,,,,,
,,,,,,5f980a192b5a61051e949f4b,62bbf988ef77b8322f668d17,2022-06-29_09h12.21.221,Colour_Asymmetry_Pilot,2022.1.3,Win32,59.94125757,62bbe60bf3d75ef465d3e404,0,107,107,116,1,threeone,,,,,,,,,,,,,,,,,,,,,,,,,,,,,,,,,,,,,,,,,,,,,,,,,,,,,,,,,,,,,,,,,,,,,,,,,,,,,,,,,,,,,,,,,,,,,,,,,,,,,,,,,,,,,,,,,,,,,,,,,,,,,,,,,,,,,,,,,,,,,,,,,,,,,,,,
,,,,,,5f980a192b5a61051e949f4b,62bbf988ef77b8322f668d17,2022-06-29_09h12.21.221,Colour_Asymmetry_Pilot,2022.1.3,Win32,59.94125757,62bbe60bf3d75ef465d3e404,0,108,108,18,1,twoone,,,,,,,,,,,,,,,,,,,,,,,,,,,,,,,,,,,,,,,,,,,,,,,,,,,,,,,,,,,,,,,,,,,,,,,,,,,,,,,,,,,,,,,,,,,,,,,,,,,,,,,,,,,,,,,,,,,,,,,,,,,,,,,,,,,,,,,,,,,,,,,,,,,,,,,,
,,,,,,5f980a192b5a61051e949f4b,62bbf988ef77b8322f668d17,2022-06-29_09h12.21.221,Colour_Asymmetry_Pilot,2022.1.3,Win32,59.94125757,62bbe60bf3d75ef465d3e404,0,109,109,121,1,onethree,,,,,,,,,,,,,,,,,,,,,,,,,,,,,,,,,,,,,,,,,,,,,,,,,,,,,,,,,,,,,,,,,,,,,,,,,,,,,,,,,,,,,,,,,,,,,,,,,,,,,,,,,,,,,,,,,,,,,,,,,,,,,,,,,,,,,,,,,,,,,,,,,,,,,,,,
,,,,,,5f980a192b5a61051e949f4b,62bbf988ef77b8322f668d17,2022-06-29_09h12.21.221,Colour_Asymmetry_Pilot,2022.1.3,Win32,59.94125757,62bbe60bf3d75ef465d3e404,0,110,110,136,1,onetwo,,,,,,,,,,,,,,,,,,,,,,,,,,,,,,,,,,,,,,,,,,,,,,,,,,,,,,,,,,,,,,,,,,,,,,,,,,,,,,,,,,,,,,,,,,,,,,,,,,,,,,,,,,,,,,,,,,,,,,,,,,,,,,,,,,,,,,,,,,,,,,,,,,,,,,,,
,,,,,,5f980a192b5a61051e949f4b,62bbf988ef77b8322f668d17,2022-06-29_09h12.21.221,Colour_Asymmetry_Pilot,2022.1.3,Win32,59.94125757,62bbe60bf3d75ef465d3e404,0,111,111,22,1,fourtwo,,,,,,,,,,,,,,,,,,,,,,,,,,,,,,,,,,,,,,,,,,,,,,,,,,,,,,,,,,,,,,,,,,,,,,,,,,,,,,,,,,,,,,,,,,,,,,,,,,,,,,,,,,,,,,,,,,,,,,,,,,,,,,,,,,,,,,,,,,,,,,,,,,,,,,,,
,,,,,,5f980a192b5a61051e949f4b,62bbf988ef77b8322f668d17,2022-06-29_09h12.21.221,Colour_Asymmetry_Pilot,2022.1.3,Win32,59.94125757,62bbe60bf3d75ef465d3e404,0,112,112,3,1,twofour,,,,,,,,,,,,,,,,,,,,,,,,,,,,,,,,,,,,,,,,,,,,,,,,,,,,,,,,,,,,,,,,,,,,,,,,,,,,,,,,,,,,,,,,,,,,,,,,,,,,,,,,,,,,,,,,,,,,,,,,,,,,,,,,,,,,,,,,,,,,,,,,,,,,,,,,
,,,,,,5f980a192b5a61051e949f4b,62bbf988ef77b8322f668d17,2022-06-29_09h12.21.221,Colour_Asymmetry_Pilot,2022.1.3,Win32,59.94125757,62bbe60bf3d75ef465d3e404,0,113,113,57,1,onethree,,,,,,,,,,,,,,,,,,,,,,,,,,,,,,,,,,,,,,,,,,,,,,,,,,,,,,,,,,,,,,,,,,,,,,,,,,,,,,,,,,,,,,,,,,,,,,,,,,,,,,,,,,,,,,,,,,,,,,,,,,,,,,,,,,,,,,,,,,,,,,,,,,,,,,,,
,,,,,,5f980a192b5a61051e949f4b,62bbf988ef77b8322f668d17,2022-06-29_09h12.21.221,Colour_Asymmetry_Pilot,2022.1.3,Win32,59.94125757,62bbe60bf3d75ef465d3e404,0,114,114,101,1,threefour,,,,,,,,,,,,,,,,,,,,,,,,,,,,,,,,,,,,,,,,,,,,,,,,,,,,,,,,,,,,,,,,,,,,,,,,,,,,,,,,,,,,,,,,,,,,,,,,,,,,,,,,,,,,,,,,,,,,,,,,,,,,,,,,,,,,,,,,,,,,,,,,,,,,,,,,
,,,,,,5f980a192b5a61051e949f4b,62bbf988ef77b8322f668d17,2022-06-29_09h12.21.221,Colour_Asymmetry_Pilot,2022.1.3,Win32,59.94125757,62bbe60bf3d75ef465d3e404,0,115,115,127,1,fourthree,,,,,,,,,,,,,,,,,,,,,,,,,,,,,,,,,,,,,,,,,,,,,,,,,,,,,,,,,,,,,,,,,,,,,,,,,,,,,,,,,,,,,,,,,,,,,,,,,,,,,,,,,,,,,,,,,,,,,,,,,,,,,,,,,,,,,,,,,,,,,,,,,,,,,,,,
,,,,,,5f980a192b5a61051e949f4b,62bbf988ef77b8322f668d17,2022-06-29_09h12.21.221,Colour_Asymmetry_Pilot,2022.1.3,Win32,59.94125757,62bbe60bf3d75ef465d3e404,0,116,116,128,1,onetwo,,,,,,,,,,,,,,,,,,,,,,,,,,,,,,,,,,,,,,,,,,,,,,,,,,,,,,,,,,,,,,,,,,,,,,,,,,,,,,,,,,,,,,,,,,,,,,,,,,,,,,,,,,,,,,,,,,,,,,,,,,,,,,,,,,,,,,,,,,,,,,,,,,,,,,,,
,,,,,,5f980a192b5a61051e949f4b,62bbf988ef77b8322f668d17,2022-06-29_09h12.21.221,Colour_Asymmetry_Pilot,2022.1.3,Win32,59.94125757,62bbe60bf3d75ef465d3e404,0,117,117,151,1,fourthree,,,,,,,,,,,,,,,,,,,,,,,,,,,,,,,,,,,,,,,,,,,,,,,,,,,,,,,,,,,,,,,,,,,,,,,,,,,,,,,,,,,,,,,,,,,,,,,,,,,,,,,,,,,,,,,,,,,,,,,,,,,,,,,,,,,,,,,,,,,,,,,,,,,,,,,,
,,,,,,5f980a192b5a61051e949f4b,62bbf988ef77b8322f668d17,2022-06-29_09h12.21.221,Colour_Asymmetry_Pilot,2022.1.3,Win32,59.94125757,62bbe60bf3d75ef465d3e404,0,118,118,86,1,fourtwo,,,,,,,,,,,,,,,,,,,,,,,,,,,,,,,,,,,,,,,,,,,,,,,,,,,,,,,,,,,,,,,,,,,,,,,,,,,,,,,,,,,,,,,,,,,,,,,,,,,,,,,,,,,,,,,,,,,,,,,,,,,,,,,,,,,,,,,,,,,,,,,,,,,,,,,,
,,,,,,5f980a192b5a61051e949f4b,62bbf988ef77b8322f668d17,2022-06-29_09h12.21.221,Colour_Asymmetry_Pilot,2022.1.3,Win32,59.94125757,62bbe60bf3d75ef465d3e404,0,119,119,123,1,twofour,,,,,,,,,,,,,,,,,,,,,,,,,,,,,,,,,,,,,,,,,,,,,,,,,,,,,,,,,,,,,,,,,,,,,,,,,,,,,,,,,,,,,,,,,,,,,,,,,,,,,,,,,,,,,,,,,,,,,,,,,,,,,,,,,,,,,,,,,,,,,,,,,,,,,,,,
,,,,,,5f980a192b5a61051e949f4b,62bbf988ef77b8322f668d17,2022-06-29_09h12.21.221,Colour_Asymmetry_Pilot,2022.1.3,Win32,59.94125757,62bbe60bf3d75ef465d3e404,0,120,120,26,1,twoone,,,,,,,,,,,,,,,,,,,,,,,,,,,,,,,,,,,,,,,,,,,,,,,,,,,,,,,,,,,,,,,,,,,,,,,,,,,,,,,,,,,,,,,,,,,,,,,,,,,,,,,,,,,,,,,,,,,,,,,,,,,,,,,,,,,,,,,,,,,,,,,,,,,,,,,,
,,,,,,5f980a192b5a61051e949f4b,62bbf988ef77b8322f668d17,2022-06-29_09h12.21.221,Colour_Asymmetry_Pilot,2022.1.3,Win32,59.94125757,62bbe60bf3d75ef465d3e404,0,121,121,117,1,threefour,,,,,,,,,,,,,,,,,,,,,,,,,,,,,,,,,,,,,,,,,,,,,,,,,,,,,,,,,,,,,,,,,,,,,,,,,,,,,,,,,,,,,,,,,,,,,,,,,,,,,,,,,,,,,,,,,,,,,,,,,,,,,,,,,,,,,,,,,,,,,,,,,,,,,,,,
,,,,,,5f980a192b5a61051e949f4b,62bbf988ef77b8322f668d17,2022-06-29_09h12.21.221,Colour_Asymmetry_Pilot,2022.1.3,Win32,59.94125757,62bbe60bf3d75ef465d3e404,0,122,122,157,1,threefour,,,,,,,,,,,,,,,,,,,,,,,,,,,,,,,,,,,,,,,,,,,,,,,,,,,,,,,,,,,,,,,,,,,,,,,,,,,,,,,,,,,,,,,,,,,,,,,,,,,,,,,,,,,,,,,,,,,,,,,,,,,,,,,,,,,,,,,,,,,,,,,,,,,,,,,,
,,,,,,5f980a192b5a61051e949f4b,62bbf988ef77b8322f668d17,2022-06-29_09h12.21.221,Colour_Asymmetry_Pilot,2022.1.3,Win32,59.94125757,62bbe60bf3d75ef465d3e404,0,123,123,148,1,threeone,,,,,,,,,,,,,,,,,,,,,,,,,,,,,,,,,,,,,,,,,,,,,,,,,,,,,,,,,,,,,,,,,,,,,,,,,,,,,,,,,,,,,,,,,,,,,,,,,,,,,,,,,,,,,,,,,,,,,,,,,,,,,,,,,,,,,,,,,,,,,,,,,,,,,,,,
,,,,,,5f980a192b5a61051e949f4b,62bbf988ef77b8322f668d17,2022-06-29_09h12.21.221,Colour_Asymmetry_Pilot,2022.1.3,Win32,59.94125757,62bbe60bf3d75ef465d3e404,0,124,124,25,1,onethree,,,,,,,,,,,,,,,,,,,,,,,,,,,,,,,,,,,,,,,,,,,,,,,,,,,,,,,,,,,,,,,,,,,,,,,,,,,,,,,,,,,,,,,,,,,,,,,,,,,,,,,,,,,,,,,,,,,,,,,,,,,,,,,,,,,,,,,,,,,,,,,,,,,,,,,,
,,,,,,5f980a192b5a61051e949f4b,62bbf988ef77b8322f668d17,2022-06-29_09h12.21.221,Colour_Asymmetry_Pilot,2022.1.3,Win32,59.94125757,62bbe60bf3d75ef465d3e404,0,125,125,19,1,twofour,,,,,,,,,,,,,,,,,,,,,,,,,,,,,,,,,,,,,,,,,,,,,,,,,,,,,,,,,,,,,,,,,,,,,,,,,,,,,,,,,,,,,,,,,,,,,,,,,,,,,,,,,,,,,,,,,,,,,,,,,,,,,,,,,,,,,,,,,,,,,,,,,,,,,,,,
,,,,,,5f980a192b5a61051e949f4b,62bbf988ef77b8322f668d17,2022-06-29_09h12.21.221,Colour_Asymmetry_Pilot,2022.1.3,Win32,59.94125757,62bbe60bf3d75ef465d3e404,0,126,126,115,1,twofour,,,,,,,,,,,,,,,,,,,,,,,,,,,,,,,,,,,,,,,,,,,,,,,,,,,,,,,,,,,,,,,,,,,,,,,,,,,,,,,,,,,,,,,,,,,,,,,,,,,,,,,,,,,,,,,,,,,,,,,,,,,,,,,,,,,,,,,,,,,,,,,,,,,,,,,,
,,,,,,5f980a192b5a61051e949f4b,62bbf988ef77b8322f668d17,2022-06-29_09h12.21.221,Colour_Asymmetry_Pilot,2022.1.3,Win32,59.94125757,62bbe60bf3d75ef465d3e404,0,127,127,140,1,threeone,,,,,,,,,,,,,,,,,,,,,,,,,,,,,,,,,,,,,,,,,,,,,,,,,,,,,,,,,,,,,,,,,,,,,,,,,,,,,,,,,,,,,,,,,,,,,,,,,,,,,,,,,,,,,,,,,,,,,,,,,,,,,,,,,,,,,,,,,,,,,,,,,,,,,,,,
,,,,,,5f980a192b5a61051e949f4b,62bbf988ef77b8322f668d17,2022-06-29_09h12.21.221,Colour_Asymmetry_Pilot,2022.1.3,Win32,59.94125757,62bbe60bf3d75ef465d3e404,0,128,128,160,1,onetwo,,,,,,,,,,,,,,,,,,,,,,,,,,,,,,,,,,,,,,,,,,,,,,,,,,,,,,,,,,,,,,,,,,,,,,,,,,,,,,,,,,,,,,,,,,,,,,,,,,,,,,,,,,,,,,,,,,,,,,,,,,,,,,,,,,,,,,,,,,,,,,,,,,,,,,,,
,,,,,,5f980a192b5a61051e949f4b,62bbf988ef77b8322f668d17,2022-06-29_09h12.21.221,Colour_Asymmetry_Pilot,2022.1.3,Win32,59.94125757,62bbe60bf3d75ef465d3e404,0,129,129,56,1,onetwo,,,,,,,,,,,,,,,,,,,,,,,,,,,,,,,,,,,,,,,,,,,,,,,,,,,,,,,,,,,,,,,,,,,,,,,,,,,,,,,,,,,,,,,,,,,,,,,,,,,,,,,,,,,,,,,,,,,,,,,,,,,,,,,,,,,,,,,,,,,,,,,,,,,,,,,,
,,,,,,5f980a192b5a61051e949f4b,62bbf988ef77b8322f668d17,2022-06-29_09h12.21.221,Colour_Asymmetry_Pilot,2022.1.3,Win32,59.94125757,62bbe60bf3d75ef465d3e404,0,130,130,82,1,twoone,,,,,,,,,,,,,,,,,,,,,,,,,,,,,,,,,,,,,,,,,,,,,,,,,,,,,,,,,,,,,,,,,,,,,,,,,,,,,,,,,,,,,,,,,,,,,,,,,,,,,,,,,,,,,,,,,,,,,,,,,,,,,,,,,,,,,,,,,,,,,,,,,,,,,,,,
,,,,,,5f980a192b5a61051e949f4b,62bbf988ef77b8322f668d17,2022-06-29_09h12.21.221,Colour_Asymmetry_Pilot,2022.1.3,Win32,59.94125757,62bbe60bf3d75ef465d3e404,0,131,131,41,1,onethree,,,,,,,,,,,,,,,,,,,,,,,,,,,,,,,,,,,,,,,,,,,,,,,,,,,,,,,,,,,,,,,,,,,,,,,,,,,,,,,,,,,,,,,,,,,,,,,,,,,,,,,,,,,,,,,,,,,,,,,,,,,,,,,,,,,,,,,,,,,,,,,,,,,,,,,,
,,,,,,5f980a192b5a61051e949f4b,62bbf988ef77b8322f668d17,2022-06-29_09h12.21.221,Colour_Asymmetry_Pilot,2022.1.3,Win32,59.94125757,62bbe60bf3d75ef465d3e404,0,132,132,62,1,fourtwo,,,,,,,,,,,,,,,,,,,,,,,,,,,,,,,,,,,,,,,,,,,,,,,,,,,,,,,,,,,,,,,,,,,,,,,,,,,,,,,,,,,,,,,,,,,,,,,,,,,,,,,,,,,,,,,,,,,,,,,,,,,,,,,,,,,,,,,,,,,,,,,,,,,,,,,,
,,,,,,5f980a192b5a61051e949f4b,62bbf988ef77b8322f668d17,2022-06-29_09h12.21.221,Colour_Asymmetry_Pilot,2022.1.3,Win32,59.94125757,62bbe60bf3d75ef465d3e404,0,133,133,153,1,onethree,,,,,,,,,,,,,,,,,,,,,,,,,,,,,,,,,,,,,,,,,,,,,,,,,,,,,,,,,,,,,,,,,,,,,,,,,,,,,,,,,,,,,,,,,,,,,,,,,,,,,,,,,,,,,,,,,,,,,,,,,,,,,,,,,,,,,,,,,,,,,,,,,,,,,,,,
,,,,,,5f980a192b5a61051e949f4b,62bbf988ef77b8322f668d17,2022-06-29_09h12.21.221,Colour_Asymmetry_Pilot,2022.1.3,Win32,59.94125757,62bbe60bf3d75ef465d3e404,0,134,134,129,1,onethree,,,,,,,,,,,,,,,,,,,,,,,,,,,,,,,,,,,,,,,,,,,,,,,,,,,,,,,,,,,,,,,,,,,,,,,,,,,,,,,,,,,,,,,,,,,,,,,,,,,,,,,,,,,,,,,,,,,,,,,,,,,,,,,,,,,,,,,,,,,,,,,,,,,,,,,,
,,,,,,5f980a192b5a61051e949f4b,62bbf988ef77b8322f668d17,2022-06-29_09h12.21.221,Colour_Asymmetry_Pilot,2022.1.3,Win32,59.94125757,62bbe60bf3d75ef465d3e404,0,135,135,92,1,threeone,,,,,,,,,,,,,,,,,,,,,,,,,,,,,,,,,,,,,,,,,,,,,,,,,,,,,,,,,,,,,,,,,,,,,,,,,,,,,,,,,,,,,,,,,,,,,,,,,,,,,,,,,,,,,,,,,,,,,,,,,,,,,,,,,,,,,,,,,,,,,,,,,,,,,,,,
,,,,,,5f980a192b5a61051e949f4b,62bbf988ef77b8322f668d17,2022-06-29_09h12.21.221,Colour_Asymmetry_Pilot,2022.1.3,Win32,59.94125757,62bbe60bf3d75ef465d3e404,0,136,136,32,1,onetwo,,,,,,,,,,,,,,,,,,,,,,,,,,,,,,,,,,,,,,,,,,,,,,,,,,,,,,,,,,,,,,,,,,,,,,,,,,,,,,,,,,,,,,,,,,,,,,,,,,,,,,,,,,,,,,,,,,,,,,,,,,,,,,,,,,,,,,,,,,,,,,,,,,,,,,,,
,,,,,,5f980a192b5a61051e949f4b,62bbf988ef77b8322f668d17,2022-06-29_09h12.21.221,Colour_Asymmetry_Pilot,2022.1.3,Win32,59.94125757,62bbe60bf3d75ef465d3e404,0,137,137,89,1,onethree,,,,,,,,,,,,,,,,,,,,,,,,,,,,,,,,,,,,,,,,,,,,,,,,,,,,,,,,,,,,,,,,,,,,,,,,,,,,,,,,,,,,,,,,,,,,,,,,,,,,,,,,,,,,,,,,,,,,,,,,,,,,,,,,,,,,,,,,,,,,,,,,,,,,,,,,
,,,,,,5f980a192b5a61051e949f4b,62bbf988ef77b8322f668d17,2022-06-29_09h12.21.221,Colour_Asymmetry_Pilot,2022.1.3,Win32,59.94125757,62bbe60bf3d75ef465d3e404,0,138,138,50,1,twoone,,,,,,,,,,,,,,,,,,,,,,,,,,,,,,,,,,,,,,,,,,,,,,,,,,,,,,,,,,,,,,,,,,,,,,,,,,,,,,,,,,,,,,,,,,,,,,,,,,,,,,,,,,,,,,,,,,,,,,,,,,,,,,,,,,,,,,,,,,,,,,,,,,,,,,,,
,,,,,,5f980a192b5a61051e949f4b,62bbf988ef77b8322f668d17,2022-06-29_09h12.21.221,Colour_Asymmetry_Pilot,2022.1.3,Win32,59.94125757,62bbe60bf3d75ef465d3e404,0,139,139,147,1,twofour,,,,,,,,,,,,,,,,,,,,,,,,,,,,,,,,,,,,,,,,,,,,,,,,,,,,,,,,,,,,,,,,,,,,,,,,,,,,,,,,,,,,,,,,,,,,,,,,,,,,,,,,,,,,,,,,,,,,,,,,,,,,,,,,,,,,,,,,,,,,,,,,,,,,,,,,
,,,,,,5f980a192b5a61051e949f4b,62bbf988ef77b8322f668d17,2022-06-29_09h12.21.221,Colour_Asymmetry_Pilot,2022.1.3,Win32,59.94125757,62bbe60bf3d75ef465d3e404,0,140,140,33,1,onethree,,,,,,,,,,,,,,,,,,,,,,,,,,,,,,,,,,,,,,,,,,,,,,,,,,,,,,,,,,,,,,,,,,,,,,,,,,,,,,,,,,,,,,,,,,,,,,,,,,,,,,,,,,,,,,,,,,,,,,,,,,,,,,,,,,,,,,,,,,,,,,,,,,,,,,,,
,,,,,,5f980a192b5a61051e949f4b,62bbf988ef77b8322f668d17,2022-06-29_09h12.21.221,Colour_Asymmetry_Pilot,2022.1.3,Win32,59.94125757,62bbe60bf3d75ef465d3e404,0,141,141,150,1,fourtwo,,,,,,,,,,,,,,,,,,,,,,,,,,,,,,,,,,,,,,,,,,,,,,,,,,,,,,,,,,,,,,,,,,,,,,,,,,,,,,,,,,,,,,,,,,,,,,,,,,,,,,,,,,,,,,,,,,,,,,,,,,,,,,,,,,,,,,,,,,,,,,,,,,,,,,,,
,,,,,,5f980a192b5a61051e949f4b,62bbf988ef77b8322f668d17,2022-06-29_09h12.21.221,Colour_Asymmetry_Pilot,2022.1.3,Win32,59.94125757,62bbe60bf3d75ef465d3e404,0,142,142,77,1,threefour,,,,,,,,,,,,,,,,,,,,,,,,,,,,,,,,,,,,,,,,,,,,,,,,,,,,,,,,,,,,,,,,,,,,,,,,,,,,,,,,,,,,,,,,,,,,,,,,,,,,,,,,,,,,,,,,,,,,,,,,,,,,,,,,,,,,,,,,,,,,,,,,,,,,,,,,
,,,,,,5f980a192b5a61051e949f4b,62bbf988ef77b8322f668d17,2022-06-29_09h12.21.221,Colour_Asymmetry_Pilot,2022.1.3,Win32,59.94125757,62bbe60bf3d75ef465d3e404,0,143,143,126,1,fourtwo,,,,,,,,,,,,,,,,,,,,,,,,,,,,,,,,,,,,,,,,,,,,,,,,,,,,,,,,,,,,,,,,,,,,,,,,,,,,,,,,,,,,,,,,,,,,,,,,,,,,,,,,,,,,,,,,,,,,,,,,,,,,,,,,,,,,,,,,,,,,,,,,,,,,,,,,
,,,,,,5f980a192b5a61051e949f4b,62bbf988ef77b8322f668d17,2022-06-29_09h12.21.221,Colour_Asymmetry_Pilot,2022.1.3,Win32,59.94125757,62bbe60bf3d75ef465d3e404,0,144,144,146,1,twoone,,,,,,,,,,,,,,,,,,,,,,,,,,,,,,,,,,,,,,,,,,,,,,,,,,,,,,,,,,,,,,,,,,,,,,,,,,,,,,,,,,,,,,,,,,,,,,,,,,,,,,,,,,,,,,,,,,,,,,,,,,,,,,,,,,,,,,,,,,,,,,,,,,,,,,,,
,,,,,,5f980a192b5a61051e949f4b,62bbf988ef77b8322f668d17,2022-06-29_09h12.21.221,Colour_Asymmetry_Pilot,2022.1.3,Win32,59.94125757,62bbe60bf3d75ef465d3e404,0,145,145,90,1,twoone,,,,,,,,,,,,,,,,,,,,,,,,,,,,,,,,,,,,,,,,,,,,,,,,,,,,,,,,,,,,,,,,,,,,,,,,,,,,,,,,,,,,,,,,,,,,,,,,,,,,,,,,,,,,,,,,,,,,,,,,,,,,,,,,,,,,,,,,,,,,,,,,,,,,,,,,
,,,,,,5f980a192b5a61051e949f4b,62bbf988ef77b8322f668d17,2022-06-29_09h12.21.221,Colour_Asymmetry_Pilot,2022.1.3,Win32,59.94125757,62bbe60bf3d75ef465d3e404,0,146,146,139,1,twofour,,,,,,,,,,,,,,,,,,,,,,,,,,,,,,,,,,,,,,,,,,,,,,,,,,,,,,,,,,,,,,,,,,,,,,,,,,,,,,,,,,,,,,,,,,,,,,,,,,,,,,,,,,,,,,,,,,,,,,,,,,,,,,,,,,,,,,,,,,,,,,,,,,,,,,,,
,,,,,,5f980a192b5a61051e949f4b,62bbf988ef77b8322f668d17,2022-06-29_09h12.21.221,Colour_Asymmetry_Pilot,2022.1.3,Win32,59.94125757,62bbe60bf3d75ef465d3e404,0,147,147,125,1,threefour,,,,,,,,,,,,,,,,,,,,,,,,,,,,,,,,,,,,,,,,,,,,,,,,,,,,,,,,,,,,,,,,,,,,,,,,,,,,,,,,,,,,,,,,,,,,,,,,,,,,,,,,,,,,,,,,,,,,,,,,,,,,,,,,,,,,,,,,,,,,,,,,,,,,,,,,
,,,,,,5f980a192b5a61051e949f4b,62bbf988ef77b8322f668d17,2022-06-29_09h12.21.221,Colour_Asymmetry_Pilot,2022.1.3,Win32,59.94125757,62bbe60bf3d75ef465d3e404,0,148,148,8,1,onetwo,,,,,,,,,,,,,,,,,,,,,,,,,,,,,,,,,,,,,,,,,,,,,,,,,,,,,,,,,,,,,,,,,,,,,,,,,,,,,,,,,,,,,,,,,,,,,,,,,,,,,,,,,,,,,,,,,,,,,,,,,,,,,,,,,,,,,,,,,,,,,,,,,,,,,,,,
,,,,,,5f980a192b5a61051e949f4b,62bbf988ef77b8322f668d17,2022-06-29_09h12.21.221,Colour_Asymmetry_Pilot,2022.1.3,Win32,59.94125757,62bbe60bf3d75ef465d3e404,0,149,149,88,1,onetwo,,,,,,,,,,,,,,,,,,,,,,,,,,,,,,,,,,,,,,,,,,,,,,,,,,,,,,,,,,,,,,,,,,,,,,,,,,,,,,,,,,,,,,,,,,,,,,,,,,,,,,,,,,,,,,,,,,,,,,,,,,,,,,,,,,,,,,,,,,,,,,,,,,,,,,,,
,,,,,,5f980a192b5a61051e949f4b,62bbf988ef77b8322f668d17,2022-06-29_09h12.21.221,Colour_Asymmetry_Pilot,2022.1.3,Win32,59.94125757,62bbe60bf3d75ef465d3e404,0,150,150,20,1,threeone,,,,,,,,,,,,,,,,,,,,,,,,,,,,,,,,,,,,,,,,,,,,,,,,,,,,,,,,,,,,,,,,,,,,,,,,,,,,,,,,,,,,,,,,,,,,,,,,,,,,,,,,,,,,,,,,,,,,,,,,,,,,,,,,,,,,,,,,,,,,,,,,,,,,,,,,
,,,,,,5f980a192b5a61051e949f4b,62bbf988ef77b8322f668d17,2022-06-29_09h12.21.221,Colour_Asymmetry_Pilot,2022.1.3,Win32,59.94125757,62bbe60bf3d75ef465d3e404,0,151,151,142,1,fourtwo,,,,,,,,,,,,,,,,,,,,,,,,,,,,,,,,,,,,,,,,,,,,,,,,,,,,,,,,,,,,,,,,,,,,,,,,,,,,,,,,,,,,,,,,,,,,,,,,,,,,,,,,,,,,,,,,,,,,,,,,,,,,,,,,,,,,,,,,,,,,,,,,,,,,,,,,
,,,,,,5f980a192b5a61051e949f4b,62bbf988ef77b8322f668d17,2022-06-29_09h12.21.221,Colour_Asymmetry_Pilot,2022.1.3,Win32,59.94125757,62bbe60bf3d75ef465d3e404,0,152,152,12,1,threeone,,,,,,,,,,,,,,,,,,,,,,,,,,,,,,,,,,,,,,,,,,,,,,,,,,,,,,,,,,,,,,,,,,,,,,,,,,,,,,,,,,,,,,,,,,,,,,,,,,,,,,,,,,,,,,,,,,,,,,,,,,,,,,,,,,,,,,,,,,,,,,,,,,,,,,,,
,,,,,,5f980a192b5a61051e949f4b,62bbf988ef77b8322f668d17,2022-06-29_09h12.21.221,Colour_Asymmetry_Pilot,2022.1.3,Win32,59.94125757,62bbe60bf3d75ef465d3e404,0,153,153,104,1,onetwo,,,,,,,,,,,,,,,,,,,,,,,,,,,,,,,,,,,,,,,,,,,,,,,,,,,,,,,,,,,,,,,,,,,,,,,,,,,,,,,,,,,,,,,,,,,,,,,,,,,,,,,,,,,,,,,,,,,,,,,,,,,,,,,,,,,,,,,,,,,,,,,,,,,,,,,,
,,,,,,5f980a192b5a61051e949f4b,62bbf988ef77b8322f668d17,2022-06-29_09h12.21.221,Colour_Asymmetry_Pilot,2022.1.3,Win32,59.94125757,62bbe60bf3d75ef465d3e404,0,154,154,30,1,fourtwo,,,,,,,,,,,,,,,,,,,,,,,,,,,,,,,,,,,,,,,,,,,,,,,,,,,,,,,,,,,,,,,,,,,,,,,,,,,,,,,,,,,,,,,,,,,,,,,,,,,,,,,,,,,,,,,,,,,,,,,,,,,,,,,,,,,,,,,,,,,,,,,,,,,,,,,,
,,,,,,5f980a192b5a61051e949f4b,62bbf988ef77b8322f668d17,2022-06-29_09h12.21.221,Colour_Asymmetry_Pilot,2022.1.3,Win32,59.94125757,62bbe60bf3d75ef465d3e404,0,155,155,141,1,threefour,,,,,,,,,,,,,,,,,,,,,,,,,,,,,,,,,,,,,,,,,,,,,,,,,,,,,,,,,,,,,,,,,,,,,,,,,,,,,,,,,,,,,,,,,,,,,,,,,,,,,,,,,,,,,,,,,,,,,,,,,,,,,,,,,,,,,,,,,,,,,,,,,,,,,,,,
,,,,,,5f980a192b5a61051e949f4b,62bbf988ef77b8322f668d17,2022-06-29_09h12.21.221,Colour_Asymmetry_Pilot,2022.1.3,Win32,59.94125757,62bbe60bf3d75ef465d3e404,0,156,156,97,1,onethree,,,,,,,,,,,,,,,,,,,,,,,,,,,,,,,,,,,,,,,,,,,,,,,,,,,,,,,,,,,,,,,,,,,,,,,,,,,,,,,,,,,,,,,,,,,,,,,,,,,,,,,,,,,,,,,,,,,,,,,,,,,,,,,,,,,,,,,,,,,,,,,,,,,,,,,,
,,,,,,5f980a192b5a61051e949f4b,62bbf988ef77b8322f668d17,2022-06-29_09h12.21.221,Colour_Asymmetry_Pilot,2022.1.3,Win32,59.94125757,62bbe60bf3d75ef465d3e404,0,157,157,60,1,threeone,,,,,,,,,,,,,,,,,,,,,,,,,,,,,,,,,,,,,,,,,,,,,,,,,,,,,,,,,,,,,,,,,,,,,,,,,,,,,,,,,,,,,,,,,,,,,,,,,,,,,,,,,,,,,,,,,,,,,,,,,,,,,,,,,,,,,,,,,,,,,,,,,,,,,,,,
,,,,,,5f980a192b5a61051e949f4b,62bbf988ef77b8322f668d17,2022-06-29_09h12.21.221,Colour_Asymmetry_Pilot,2022.1.3,Win32,59.94125757,62bbe60bf3d75ef465d3e404,0,158,158,113,1,onethree,,,,,,,,,,,,,,,,,,,,,,,,,,,,,,,,,,,,,,,,,,,,,,,,,,,,,,,,,,,,,,,,,,,,,,,,,,,,,,,,,,,,,,,,,,,,,,,,,,,,,,,,,,,,,,,,,,,,,,,,,,,,,,,,,,,,,,,,,,,,,,,,,,,,,,,,
,,,,,,5f980a192b5a61051e949f4b,62bbf988ef77b8322f668d17,2022-06-29_09h12.21.221,Colour_Asymmetry_Pilot,2022.1.3,Win32,59.94125757,62bbe60bf3d75ef465d3e404,0,159,159,14,1,fourtwo,,,,,,,,,,,,,,,,,,,,,,,,,,,,,,,,,,,,,,,,,,,,,,,,,,,,,,,,,,,,,,,,,,,,,,,,,,,,,,,,,,,,,,,,,,,,,,,,,,,,,,,,,,,,,,,,,,,,,,,,,,,,,,,,,,,,,,,,,,,,,,,,,,,,,,,,
,,,,,,5f980a192b5a61051e949f4b,62bbf988ef77b8322f668d17,2022-06-29_09h12.21.221,Colour_Asymmetry_Pilot,2022.1.3,Win32,59.94125757,62bbe60bf3d75ef465d3e404,0,160,160,124,1,threeone,,,,,,,,,,,,,,,,,,,,,,,,,,,,,,,,,,,,,,,,,,,,,,,,,,,,,,,,,,,,,,,,,,,,,,,,,,,,,,,,,,,,,,,,,,,,,,,,,,,,,,,,,,,,,,,,,,,,,,,,,,,,,,,,,,,,,,,,,,,,,,,,,,,,,,,,
,,,,,,5f980a192b5a61051e949f4b,62bbf988ef77b8322f668d17,2022-06-29_09h12.21.221,Colour_Asymmetry_Pilot,2022.1.3,Win32,59.94125757,62bbe60bf3d75ef465d3e404,0,161,161,16,1,onetwo,,,,,,,,,,,,,,,,,,,,,,,,,,,,,,,,,,,,,,,,,,,,,,,,,,,,,,,,,,,,,,,,,,,,,,,,,,,,,,,,,,,,,,,,,,,,,,,,,,,,,,,,,,,,,,,,,,,,,,,,,,,,,,,,,,,,,,,,,,,,,,,,,,,,,,,,
,,,,,,5f980a192b5a61051e949f4b,62bbf988ef77b8322f668d17,2022-06-29_09h12.21.221,Colour_Asymmetry_Pilot,2022.1.3,Win32,59.94125757,62bbe60bf3d75ef465d3e404,,,,,,,space,3.4635,space,3.2927,space,41.8322,space,15.5403,space,2.6971,space,6.6895,"[0.9686000000000001,0.3802000000000001,0.19999999999999996]",fourthree,"[0.6547999999999998,-0.043199999999999905,-0.011800000000000033]",2,2.5793,74,-68.5,1,0,0,response3disk_5,-2,2.5,1,0,0,rectangle_8,-2,2.5,1,0,0,2,-2,2.5,1,0,0,0,0,0,0,1,,,,,,,,,,,,,,,,,,,,,,,,,,,,,,,,,,,,,,,,,,,,,,,,,,,,,,,,,,,,,,,,,,,,,,,,,,,,,,,,,,,,,,,,,,,,,,,,,,,,,,,,,,,
,,,,,,5f980a192b5a61051e949f4b,62bbf988ef77b8322f668d17,2022-06-29_09h12.21.221,Colour_Asymmetry_Pilot,2022.1.3,Win32,59.94125757,62bbe60bf3d75ef465d3e404,,,,,,,,,,,,,,,,,,,"[0.04299999999999993,0.16060000000000008,-0.6628000000000001]",threeone,"[-0.10599999999999998,-0.15300000000000002,0.15280000000000005]",-1,2.2518,-104,-111.5,1,0,0,response5disk_5,0,8.5,1,0,0,rectangle_8,-109,120.5,1,0,0,2,-7,-0.5,1,0,0,1,0,1,0,1,response7disk_7,0,rectangle_4,,,,,,,,,,,,,,,,,,,,,,,,,,,,,,,,,,,,,,,,,,,,,,,,,,,,,,,,,,,,,,,,,,,,,,,,,,,,,,,,,,,,,,,,,,,,,,,,,,,,,,,,
,,,,,,5f980a192b5a61051e949f4b,62bbf988ef77b8322f668d17,2022-06-29_09h12.21.221,Colour_Asymmetry_Pilot,2022.1.3,Win32,59.94125757,62bbe60bf3d75ef465d3e404,,,,,,,,,,,,,,,,,,,"[-0.17659999999999998,-0.2864,-0.8354]",fourthree,"[0.9763999999999999,-0.1137999999999999,-0.6314]",1,2.9759,120,-130.5,1,0,0,response3disk_5,-8,-2.5,1,0,0,rectangle_8,-8,-2.5,1,0,0,2,-8,-2.5,1,0,0,2,0,2,0,1,,,,,,,,,,,,,,,,,,,,,,,,,,,,,,,,,,,,,,,,,,,,,,,,,,,,,,,,,,,,,,,,,,,,,,,,,,,,,,,,,,,,,,,,,,,,,,,,,,,,,,,,,,,
,,,,,,5f980a192b5a61051e949f4b,62bbf988ef77b8322f668d17,2022-06-29_09h12.21.221,Colour_Asymmetry_Pilot,2022.1.3,Win32,59.94125757,62bbe60bf3d75ef465d3e404,,,,,,,,,,,,,,,,,,,"[0.2784,-0.31000000000000005,-0.5452]",twoone,"[-0.9766,-0.6472,0.07440000000000002]",-4,8.5639,-120,129.5,1,0,0,response7disk_5,-7,6.5,1,0,0,rectangle_8,-7,6.5,1,0,0,2,-7,6.5,1,0,0,3,0,3,0,1,,,,,,,,,,,,,,,,,,,,,,,,,,,,,,,,,,,,,,,,,,,,,,,,,,,,,,,,,,,,,,,,,,,,,,,,,,,,,,,,,,,,,,,,,,,,,,,,,,,,,,,,,,,
,,,,,,5f980a192b5a61051e949f4b,62bbf988ef77b8322f668d17,2022-06-29_09h12.21.221,Colour_Asymmetry_Pilot,2022.1.3,Win32,59.94125757,62bbe60bf3d75ef465d3e404,,,,,,,,,,,,,,,,,,,"[0.9686000000000001,0.3802000000000001,0.19999999999999996]",fourthree,"[-0.26280000000000003,-0.2158,-0.3256]",-4,6.5745,-126,132.5,1,0,0,response7disk_5,-9,7.5,1,0,0,rectangle_8,-9,7.5,1,0,0,2,-9,7.5,1,0,0,4,0,4,0,1,,,,,,,,,,,,,,,,,,,,,,,,,,,,,,,,,,,,,,,,,,,,,,,,,,,,,,,,,,,,,,,,,,,,,,,,,,,,,,,,,,,,,,,,,,,,,,,,,,,,,,,,,,,
,,,,,,5f980a192b5a61051e949f4b,62bbf988ef77b8322f668d17,2022-06-29_09h12.21.221,Colour_Asymmetry_Pilot,2022.1.3,Win32,59.94125757,62bbe60bf3d75ef465d3e404,,,,,,,,,,,,,,,,,,,"[0.04299999999999993,0.16060000000000008,-0.6628000000000001]",fourtwo,"[-0.9766,-0.6472,0.07440000000000002]",-4,5.875,-37,91.5,1,0,0,response7disk_5,-2,1.5,1,0,0,rectangle_8,-56,95.5,1,0,0,2,9,7.5,1,0,0,5,0,5,0,1,response7disk_7,0,rectangle_4,,,,,,,,,,,,,,,,,,,,,,,,,,,,,,,,,,,,,,,,,,,,,,,,,,,,,,,,,,,,,,,,,,,,,,,,,,,,,,,,,,,,,,,,,,,,,,,,,,,,,,,,
,,,,,,5f980a192b5a61051e949f4b,62bbf988ef77b8322f668d17,2022-06-29_09h12.21.221,Colour_Asymmetry_Pilot,2022.1.3,Win32,59.94125757,62bbe60bf3d75ef465d3e404,,,,,,,,,,,,,,,,,,,"[0.9686000000000001,0.3802000000000001,0.19999999999999996]",onethree,"[-0.9688,-0.7412000000000001,-0.4902000000000001]",-4,2.575,-111,131.5,1,0,0,response7disk_5,2,-4.5,1,0,0,rectangle_8,2,-4.5,1,0,0,2,2,-4.5,1,0,0,6,0,6,0,1,,,,,,,,,,,,,,,,,,,,,,,,,,,,,,,,,,,,,,,,,,,,,,,,,,,,,,,,,,,,,,,,,,,,,,,,,,,,,,,,,,,,,,,,,,,,,,,,,,,,,,,,,,,
,,,,,,5f980a192b5a61051e949f4b,62bbf988ef77b8322f668d17,2022-06-29_09h12.21.221,Colour_Asymmetry_Pilot,2022.1.3,Win32,59.94125757,62bbe60bf3d75ef465d3e404,,,,,,,,,,,,,,,,,,,,fourtwo,,-4,6.1515,,,,,,,,,,,,,,,,,,,,,,,,,,,,,,,,space,3.9531,"[0.9763999999999999,0.8588,-0.05900000000000005]","[0.11359999999999992,0.6312,0.5213999999999999]",-73,103.5,1,0,0,response7disk,4,3.5,1,0,0,rectangle,4,3.5,1,0,0,,3,0.0032,0,4,3.5,1,0,0,0,0,0,132,1,51,second,,,,,,,,,,,,,,,,,,,,,,,,,,,,,,,,,,,,,,,,,,,,,,,,,,,,,,,,,,,,,,,,,,,
,,,,,,5f980a192b5a61051e949f4b,62bbf988ef77b8322f668d17,2022-06-29_09h12.21.221,Colour_Asymmetry_Pilot,2022.1.3,Win32,59.94125757,62bbe60bf3d75ef465d3e404,,,,,,,,,,,,,,,,,,,,fourtwo,,4,3.7119,,,,,,,,,,,,,,,,,,,,,,,,,,,,,,,,,,"[-0.6,0.16860000000000008,0.44300000000000006]","[-0.6,0.16860000000000008,0.44300000000000006]",50,118.5,1,0,0,response1disk,-5,3.5,1,0,0,rectangle,55,-99.5,1,0,0,1,1,9.8182,1,-11,7.5,1,0,0,0,1,1,161,1,80,second,response3disk_3,rectangle,,,,,,,,,,,,,,,,,,,,,,,,,,,,,,,,,,,,,,,,,,,,,,,,,,,,,,,,,,,,,,,,,
,,,,,,5f980a192b5a61051e949f4b,62bbf988ef77b8322f668d17,2022-06-29_09h12.21.221,Colour_Asymmetry_Pilot,2022.1.3,Win32,59.94125757,62bbe60bf3d75ef465d3e404,,,,,,,,,,,,,,,,,,,,twofour,,-4,3.1224,,,,,,,,,,,,,,,,,,,,,,,,,,,,,,,,,,"[0.9372,0.9450000000000001,0.8980000000000001]","[-0.011800000000000033,-0.906,-0.45100000000000007]",-53,107.5,1,0,0,response7disk,-12,10.5,1,0,0,rectangle,-12,10.5,1,0,0,1,2,0.0023,0,-12,10.5,1,0,0,0,2,2,16,1,16,first,,,,,,,,,,,,,,,,,,,,,,,,,,,,,,,,,,,,,,,,,,,,,,,,,,,,,,,,,,,,,,,,,,,
,,,,,,5f980a192b5a61051e949f4b,62bbf988ef77b8322f668d17,2022-06-29_09h12.21.221,Colour_Asymmetry_Pilot,2022.1.3,Win32,59.94125757,62bbe60bf3d75ef465d3e404,,,,,,,,,,,,,,,,,,,,twoone,,-2,3.0742,,,,,,,,,,,,,,,,,,,,,,,,,,,,,,,,,,"[-0.5922000000000001,-0.7492000000000001,-0.5296000000000001]","[-0.06680000000000008,-0.45100000000000007,-0.906]",-100,-44.5,1,0,0,response5disk,-2,6.5,1,0,0,rectangle,-2,6.5,1,0,0,1,2,0.0003,0,-2,6.5,1,0,0,0,3,3,119,1,38,second,,,,,,,,,,,,,,,,,,,,,,,,,,,,,,,,,,,,,,,,,,,,,,,,,,,,,,,,,,,,,,,,,,,
,,,,,,5f980a192b5a61051e949f4b,62bbf988ef77b8322f668d17,2022-06-29_09h12.21.221,Colour_Asymmetry_Pilot,2022.1.3,Win32,59.94125757,62bbe60bf3d75ef465d3e404,,,,,,,,,,,,,,,,,,,,fourthree,,-2,2.7289,,,,,,,,,,,,,,,,,,,,,,,,,,,,,,,,,,"[-0.5688,-0.08239999999999992,-0.1844]","[-0.24719999999999998,-0.0354000000000001,0.3175999999999999]",-105,-66.5,1,0,0,response5disk,14,3.5,1,0,0,rectangle,14,3.5,1,0,0,1,1,0.0013,0,14,3.5,1,0,0,0,4,4,50,1,50,first,,,,,,,,,,,,,,,,,,,,,,,,,,,,,,,,,,,,,,,,,,,,,,,,,,,,,,,,,,,,,,,,,,,
,,,,,,5f980a192b5a61051e949f4b,62bbf988ef77b8322f668d17,2022-06-29_09h12.21.221,Colour_Asymmetry_Pilot,2022.1.3,Win32,59.94125757,62bbe60bf3d75ef465d3e404,,,,,,,,,,,,,,,,,,,,twoone,,3,2.417,,,,,,,,,,,,,,,,,,,,,,,,,,,,,,,,,,"[0.9842,0.7409999999999999,-0.6628000000000001]","[0.34099999999999997,0.12939999999999996,-0.9766]",103,30.5,1,0,0,response1disk,-4,3.5,1,0,0,rectangle,-4,3.5,1,0,0,1,2,0.0017,0,-4,3.5,1,0,0,0,5,5,127,1,46,second,,,,,,,,,,,,,,,,,,,,,,,,,,,,,,,,,,,,,,,,,,,,,,,,,,,,,,,,,,,,,,,,,,,
,,,,,,5f980a192b5a61051e949f4b,62bbf988ef77b8322f668d17,2022-06-29_09h12.21.221,Colour_Asymmetry_Pilot,2022.1.3,Win32,59.94125757,62bbe60bf3d75ef465d3e404,,,,,,,,,,,,,,,,,,,,onetwo,,4,1.9391,,,,,,,,,,,,,,,,,,,,,,,,,,,,,,,,,,"[-0.4746,-0.0354000000000001,0.5449999999999999]","[-0.6,0.16860000000000008,0.44300000000000006]",46,103.5,1,0,0,response1disk,-3,8.5,1,0,0,rectangle,-3,8.5,1,0,0,1,2,0.0003,0,-3,8.5,1,0,0,0,6,6,2,1,2,first,,,,,,,,,,,,,,,,,,,,,,,,,,,,,,,,,,,,,,,,,,,,,,,,,,,,,,,,,,,,,,,,,,,
,,,,,,5f980a192b5a61051e949f4b,62bbf988ef77b8322f668d17,2022-06-29_09h12.21.221,Colour_Asymmetry_Pilot,2022.1.3,Win32,59.94125757,62bbe60bf3d75ef465d3e404,,,,,,,,,,,,,,,,,,,,fourthree,,-4,2.2574,,,,,,,,,,,,,,,,,,,,,,,,,,,,,,,,,,"[0.4196,0.4665999999999999,0.3568]","[0.23120000000000007,-0.7726,-0.34120000000000006]",-45,89.5,1,0,0,response7disk,3,2.5,1,0,0,rectangle,3,2.5,1,0,0,1,3,0.0019,0,3,2.5,1,0,0,0,7,7,152,1,71,second,,,,,,,,,,,,,,,,,,,,,,,,,,,,,,,,,,,,,,,,,,,,,,,,,,,,,,,,,,,,,,,,,,,
,,,,,,5f980a192b5a61051e949f4b,62bbf988ef77b8322f668d17,2022-06-29_09h12.21.221,Colour_Asymmetry_Pilot,2022.1.3,Win32,59.94125757,62bbe60bf3d75ef465d3e404,,,,,,,,,,,,,,,,,,,,threefour,,3,5.8457,,,,,,,,,,,,,,,,,,,,,,,,,,,,,,,,,,"[-0.8982,-0.37259999999999993,0.2784]","[-0.6942,-0.7648,-0.12959999999999994]",99,37.5,1,0,0,response1disk,-5,1.5,1,0,0,rectangle,-5,1.5,1,0,0,1,2,0.0013,0,-5,1.5,1,0,0,0,8,8,142,1,61,second,,,,,,,,,,,,,,,,,,,,,,,,,,,,,,,,,,,,,,,,,,,,,,,,,,,,,,,,,,,,,,,,,,,
,,,,,,5f980a192b5a61051e949f4b,62bbf988ef77b8322f668d17,2022-06-29_09h12.21.221,Colour_Asymmetry_Pilot,2022.1.3,Win32,59.94125757,62bbe60bf3d75ef465d3e404,,,,,,,,,,,,,,,,,,,,fourthree,,-4,1.7896,,,,,,,,,,,,,,,,,,,,,,,,,,,,,,,,,,"[0.9213999999999998,0.6391999999999998,-0.9922]","[-0.9688,-0.4902000000000001,-0.12159999999999993]",-42,119.5,1,0,0,response7disk,-3,9.5,1,0,0,rectangle,-3,9.5,1,0,0,1,1,0.0013,0,-3,9.5,1,0,0,0,9,9,1,1,1,first,,,,,,,,,,,,,,,,,,,,,,,,,,,,,,,,,,,,,,,,,,,,,,,,,,,,,,,,,,,,,,,,,,,
,,,,,,5f980a192b5a61051e949f4b,62bbf988ef77b8322f668d17,2022-06-29_09h12.21.221,Colour_Asymmetry_Pilot,2022.1.3,Win32,59.94125757,62bbe60bf3d75ef465d3e404,,,,,,,,,,,,,,,,,,,,fourtwo,,-2,4.133,,,,,,,,,,,,,,,,,,,,,,,,,,,,,,,,,,"[-0.6235999999999999,-0.6786,-0.08239999999999992]","[-0.07459999999999989,0.12139999999999995,-0.9922]",-113,-37.5,1,0,0,response5disk,-20,5.5,1,0,0,rectangle,31,-88.5,1,0,0,1,1,2.2852,1,2,3.5,1,0,0,0,10,10,11,1,11,first,response3disk_3,rectangle,,,,,,,,,,,,,,,,,,,,,,,,,,,,,,,,,,,,,,,,,,,,,,,,,,,,,,,,,,,,,,,,,
,,,,,,5f980a192b5a61051e949f4b,62bbf988ef77b8322f668d17,2022-06-29_09h12.21.221,Colour_Asymmetry_Pilot,2022.1.3,Win32,59.94125757,62bbe60bf3d75ef465d3e404,,,,,,,,,,,,,,,,,,,,onetwo,,-3,3.0701,,,,,,,,,,,,,,,,,,,,,,,,,,,,,,,,,,"[0.7176,-0.906,-0.6864]","[-0.26280000000000003,-0.4746,-0.2158]",-87,37.5,1,0,0,response7disk,-10,4.5,1,0,0,rectangle,-10,4.5,1,0,0,1,3,0.0013,0,-10,4.5,1,0,0,0,11,11,33,1,33,first,,,,,,,,,,,,,,,,,,,,,,,,,,,,,,,,,,,,,,,,,,,,,,,,,,,,,,,,,,,,,,,,,,,
,,,,,,5f980a192b5a61051e949f4b,62bbf988ef77b8322f668d17,2022-06-29_09h12.21.221,Colour_Asymmetry_Pilot,2022.1.3,Win32,59.94125757,62bbe60bf3d75ef465d3e404,,,,,,,,,,,,,,,,,,,,threeone,,-1,2.2357,,,,,,,,,,,,,,,,,,,,,,,,,,,,,,,,,,"[-0.06680000000000008,-0.45100000000000007,-0.906]","[-0.5922000000000001,-0.7492000000000001,-0.5296000000000001]",-54,-116.5,1,0,0,response5disk,10,2.5,1,0,0,rectangle,10,2.5,1,0,0,1,3,0.0002,0,10,2.5,1,0,0,0,12,12,38,1,38,first,,,,,,,,,,,,,,,,,,,,,,,,,,,,,,,,,,,,,,,,,,,,,,,,,,,,,,,,,,,,,,,,,,,
,,,,,,5f980a192b5a61051e949f4b,62bbf988ef77b8322f668d17,2022-06-29_09h12.21.221,Colour_Asymmetry_Pilot,2022.1.3,Win32,59.94125757,62bbe60bf3d75ef465d3e404,,,,,,,,,,,,,,,,,,,,twoone,,-4,1.0426,,,,,,,,,,,,,,,,,,,,,,,,,,,,,,,,,,"[-0.8118,-0.8198,-0.5452]","[0.8115999999999999,-0.0040000000000000036,-0.09819999999999995]",-80,131.5,1,0,0,response7disk,19,-7.5,1,0,0,rectangle,19,-7.5,1,0,0,1,1,0.0014,0,19,-7.5,1,0,0,0,13,13,139,1,58,second,,,,,,,,,,,,,,,,,,,,,,,,,,,,,,,,,,,,,,,,,,,,,,,,,,,,,,,,,,,,,,,,,,,
,,,,,,5f980a192b5a61051e949f4b,62bbf988ef77b8322f668d17,2022-06-29_09h12.21.221,Colour_Asymmetry_Pilot,2022.1.3,Win32,59.94125757,62bbe60bf3d75ef465d3e404,,,,,,,,,,,,,,,,,,,,fourtwo,,-4,0.9878,,,,,,,,,,,,,,,,,,,,,,,,,,,,,,,,,,"[-0.24719999999999998,0.5213999999999999,-0.12959999999999994]","[0.7176,-0.906,-0.6864]",-37,108.5,1,0,0,response7disk,-8,9.5,1,0,0,rectangle,-8,9.5,1,0,0,1,3,0.0012,0,-8,9.5,1,0,0,0,14,14,27,1,27,first,,,,,,,,,,,,,,,,,,,,,,,,,,,,,,,,,,,,,,,,,,,,,,,,,,,,,,,,,,,,,,,,,,,
,,,,,,5f980a192b5a61051e949f4b,62bbf988ef77b8322f668d17,2022-06-29_09h12.21.221,Colour_Asymmetry_Pilot,2022.1.3,Win32,59.94125757,62bbe60bf3d75ef465d3e404,,,,,,,,,,,,,,,,,,,,threefour,,-4,0.768,,,,,,,,,,,,,,,,,,,,,,,,,,,,,,,,,,"[1,0.12939999999999996,-1]","[-0.4902000000000001,0.2704,-0.45899999999999996]",-76,103.5,1,0,0,response7disk,-15,-2.5,1,0,0,rectangle,-15,-2.5,1,0,0,1,3,0.0003,0,-15,-2.5,1,0,0,0,15,15,98,1,17,second,,,,,,,,,,,,,,,,,,,,,,,,,,,,,,,,,,,,,,,,,,,,,,,,,,,,,,,,,,,,,,,,,,,
,,,,,,5f980a192b5a61051e949f4b,62bbf988ef77b8322f668d17,2022-06-29_09h12.21.221,Colour_Asymmetry_Pilot,2022.1.3,Win32,59.94125757,62bbe60bf3d75ef465d3e404,,,,,,,,,,,,,,,,,,,,twofour,,-1,0.8747,,,,,,,,,,,,,,,,,,,,,,,,,,,,,,,,,,"[0.2784,-0.31000000000000005,-0.5452]","[0.6547999999999998,-0.043199999999999905,-0.011800000000000033]",-58,-70.5,1,0,0,response5disk,-4,7.5,1,0,0,rectangle,-4,7.5,1,0,0,1,3,0.0002,0,-4,7.5,1,0,0,0,16,16,3,1,3,first,,,,,,,,,,,,,,,,,,,,,,,,,,,,,,,,,,,,,,,,,,,,,,,,,,,,,,,,,,,,,,,,,,,
,,,,,,5f980a192b5a61051e949f4b,62bbf988ef77b8322f668d17,2022-06-29_09h12.21.221,Colour_Asymmetry_Pilot,2022.1.3,Win32,59.94125757,62bbe60bf3d75ef465d3e404,,,,,,,,,,,,,,,,,,,,twoone,,-4,0.5989,,,,,,,,,,,,,,,,,,,,,,,,,,,,,,,,,,"[0.22340000000000004,-0.9296,-0.7884]","[0.05879999999999996,0.2784,0.5841999999999998]",-55,112.5,1,0,0,response7disk,0,4.5,1,0,0,rectangle,0,4.5,1,0,0,1,1,0.0015,0,0,4.5,1,0,0,0,17,17,81,1,0,second,,,,,,,,,,,,,,,,,,,,,,,,,,,,,,,,,,,,,,,,,,,,,,,,,,,,,,,,,,,,,,,,,,,
,,,,,,5f980a192b5a61051e949f4b,62bbf988ef77b8322f668d17,2022-06-29_09h12.21.221,Colour_Asymmetry_Pilot,2022.1.3,Win32,59.94125757,62bbe60bf3d75ef465d3e404,,,,,,,,,,,,,,,,,,,,twofour,,-3,0.7467,,,,,,,,,,,,,,,,,,,,,,,,,,,,,,,,,,"[0.4196,0.4665999999999999,0.3568]","[0.2784,-0.31000000000000005,-0.5452]",-114,71.5,1,0,0,response7disk,-20,-5.5,1,0,0,rectangle,-20,-5.5,1,0,0,1,1,0.0018,0,-20,-5.5,1,0,0,0,18,18,44,1,44,first,,,,,,,,,,,,,,,,,,,,,,,,,,,,,,,,,,,,,,,,,,,,,,,,,,,,,,,,,,,,,,,,,,,
,,,,,,5f980a192b5a61051e949f4b,62bbf988ef77b8322f668d17,2022-06-29_09h12.21.221,Colour_Asymmetry_Pilot,2022.1.3,Win32,59.94125757,62bbe60bf3d75ef465d3e404,,,,,,,,,,,,,,,,,,,,threeone,,-2,0.8905,,,,,,,,,,,,,,,,,,,,,,,,,,,,,,,,,,"[-0.38039999999999996,-0.4276,-0.1452]","[-0.6,0.16860000000000008,0.44300000000000006]",-130,-68.5,1,0,0,response5disk,4,2.5,1,0,0,rectangle,4,2.5,1,0,0,1,1,0.0004,0,4,2.5,1,0,0,0,19,19,115,1,34,second,,,,,,,,,,,,,,,,,,,,,,,,,,,,,,,,,,,,,,,,,,,,,,,,,,,,,,,,,,,,,,,,,,,
