trials.thisRepN,trials.thisTrialN,trials.thisN,trials.thisIndex,trials.ran,Colourcodes,participant,session,date,expName,psychopyVersion,OS,frameRate,study_id,trials_4.thisRepN,trials_4.thisTrialN,trials_4.thisN,trials_4.thisIndex,trials_4.ran,StimulusPos,key_resp.keys,key_resp.rt,key_resp_2.keys,key_resp_2.rt,key_resp_15.keys,key_resp_15.rt,key_resp_17.keys,key_resp_17.rt,key_resp_9.keys,key_resp_9.rt,key_resp_10.keys,key_resp_10.rt,Circle1_col,Ecc,Circle2_col,similarity,response_time,mouse_5.x,mouse_5.y,mouse_5.leftButton,mouse_5.midButton,mouse_5.rightButton,mouse_5.clicked_name,mouse_10.x,mouse_10.y,mouse_10.leftButton,mouse_10.midButton,mouse_10.rightButton,mouse_10.clicked_name,mouse_7.x,mouse_7.y,mouse_7.leftButton,mouse_7.midButton,mouse_7.rightButton,catchnumberprac,mouse_6.x,mouse_6.y,mouse_6.leftButton,mouse_6.midButton,mouse_6.rightButton,duringprac.thisRepN,duringprac.thisTrialN,duringprac.thisN,duringprac.thisIndex,duringprac.ran,mouse_7.clicked_name,catchprac,mouse_6.clicked_name,key_resp_22.keys,key_resp_22.rt,Circle1_colour,Circle2_colour,mouse.x,mouse.y,mouse.leftButton,mouse.midButton,mouse.rightButton,mouse.clicked_name,mouse_2.x,mouse_2.y,mouse_2.leftButton,mouse_2.midButton,mouse_2.rightButton,mouse_2.clicked_name,mouse_3.x,mouse_3.y,mouse_3.leftButton,mouse_3.midButton,mouse_3.rightButton,catchresponse,catchnumber,response_time_catch,Catch,mouse_11.x,mouse_11.y,mouse_11.leftButton,mouse_11.midButton,mouse_11.rightButton,trials_2.thisRepN,trials_2.thisTrialN,trials_2.thisN,trials_2.thisIndex,trials_2.ran,Colourpair,Temporder,mouse_3.clicked_name,mouse_11.clicked_name,trials_3.thisRepN,trials_3.thisTrialN,trials_3.thisN,trials_3.thisIndex,trials_3.ran,key_resp_instr_Ishi.keys,key_resp_instr_Ishi.rt,Ishi_trial_keyresp.keys,Ishi_trial_keyresp.rt,Ishi_textbox.text,Ishi_loop.thisRepN,Ishi_loop.thisTrialN,Ishi_loop.thisN,Ishi_loop.thisIndex,Ishi_loop.ran,imageaddress,textbox.text,mouse_4.x,mouse_4.y,mouse_4.leftButton,mouse_4.midButton,mouse_4.rightButton,mouse_4.clicked_name,textbox_2.text,mouse_8.x,mouse_8.y,mouse_8.leftButton,mouse_8.midButton,mouse_8.rightButton,mouse_8.clicked_name,textbox_3.text,mouse_9.x,mouse_9.y,mouse_9.leftButton,mouse_9.midButton,mouse_9.rightButton,mouse_9.clicked_name,textbox_4.text,mouse_12.x,mouse_12.y,mouse_12.leftButton,mouse_12.midButton,mouse_12.rightButton,mouse_12.clicked_name,textbox_5.text,mouse_13.x,mouse_13.y,mouse_13.leftButton,mouse_13.midButton,mouse_13.rightButton,mouse_13.clicked_name,textbox_6.text,mouse_14.x,mouse_14.y,mouse_14.leftButton,mouse_14.midButton,mouse_14.rightButton,mouse_14.clicked_name,textbox_7.text,mouse_15.x,mouse_15.y,mouse_15.leftButton,mouse_15.midButton,mouse_15.rightButton,mouse_15.clicked_name
0,0,0,54,1,,5c0048442213be0001c2d579,62bbfa4c76c1b7c44c51f82f,2022-06-29_24h08.52.192,Colour_Asymmetry_Pilot,2022.1.3,Win32,60.3427468,62bbe60bf3d75ef465d3e404,,,,,,,,,,,,,,,,,,,,,,,,,,,,,,,,,,,,,,,,,,,,,,,,,,,,,,,,,,,,,,,,,,,,,,,,,,,,,,,,,,,,,,,,,,,,,,,,,,,,,,,,,,,,,,,,,,,,,,,,,,,,,,,,,,,,,,,,,,,,,,,,,,,,,,,,,,,,,,
0,1,1,12,1,,5c0048442213be0001c2d579,62bbfa4c76c1b7c44c51f82f,2022-06-29_24h08.52.192,Colour_Asymmetry_Pilot,2022.1.3,Win32,60.3427468,62bbe60bf3d75ef465d3e404,,,,,,,,,,,,,,,,,,,,,,,,,,,,,,,,,,,,,,,,,,,,,,,,,,,,,,,,,,,,,,,,,,,,,,,,,,,,,,,,,,,,,,,,,,,,,,,,,,,,,,,,,,,,,,,,,,,,,,,,,,,,,,,,,,,,,,,,,,,,,,,,,,,,,,,,,,,,,,
0,2,2,46,1,,5c0048442213be0001c2d579,62bbfa4c76c1b7c44c51f82f,2022-06-29_24h08.52.192,Colour_Asymmetry_Pilot,2022.1.3,Win32,60.3427468,62bbe60bf3d75ef465d3e404,,,,,,,,,,,,,,,,,,,,,,,,,,,,,,,,,,,,,,,,,,,,,,,,,,,,,,,,,,,,,,,,,,,,,,,,,,,,,,,,,,,,,,,,,,,,,,,,,,,,,,,,,,,,,,,,,,,,,,,,,,,,,,,,,,,,,,,,,,,,,,,,,,,,,,,,,,,,,,
0,3,3,33,1,,5c0048442213be0001c2d579,62bbfa4c76c1b7c44c51f82f,2022-06-29_24h08.52.192,Colour_Asymmetry_Pilot,2022.1.3,Win32,60.3427468,62bbe60bf3d75ef465d3e404,,,,,,,,,,,,,,,,,,,,,,,,,,,,,,,,,,,,,,,,,,,,,,,,,,,,,,,,,,,,,,,,,,,,,,,,,,,,,,,,,,,,,,,,,,,,,,,,,,,,,,,,,,,,,,,,,,,,,,,,,,,,,,,,,,,,,,,,,,,,,,,,,,,,,,,,,,,,,,
0,4,4,37,1,,5c0048442213be0001c2d579,62bbfa4c76c1b7c44c51f82f,2022-06-29_24h08.52.192,Colour_Asymmetry_Pilot,2022.1.3,Win32,60.3427468,62bbe60bf3d75ef465d3e404,,,,,,,,,,,,,,,,,,,,,,,,,,,,,,,,,,,,,,,,,,,,,,,,,,,,,,,,,,,,,,,,,,,,,,,,,,,,,,,,,,,,,,,,,,,,,,,,,,,,,,,,,,,,,,,,,,,,,,,,,,,,,,,,,,,,,,,,,,,,,,,,,,,,,,,,,,,,,,
0,5,5,17,1,,5c0048442213be0001c2d579,62bbfa4c76c1b7c44c51f82f,2022-06-29_24h08.52.192,Colour_Asymmetry_Pilot,2022.1.3,Win32,60.3427468,62bbe60bf3d75ef465d3e404,,,,,,,,,,,,,,,,,,,,,,,,,,,,,,,,,,,,,,,,,,,,,,,,,,,,,,,,,,,,,,,,,,,,,,,,,,,,,,,,,,,,,,,,,,,,,,,,,,,,,,,,,,,,,,,,,,,,,,,,,,,,,,,,,,,,,,,,,,,,,,,,,,,,,,,,,,,,,,
0,6,6,69,1,,5c0048442213be0001c2d579,62bbfa4c76c1b7c44c51f82f,2022-06-29_24h08.52.192,Colour_Asymmetry_Pilot,2022.1.3,Win32,60.3427468,62bbe60bf3d75ef465d3e404,,,,,,,,,,,,,,,,,,,,,,,,,,,,,,,,,,,,,,,,,,,,,,,,,,,,,,,,,,,,,,,,,,,,,,,,,,,,,,,,,,,,,,,,,,,,,,,,,,,,,,,,,,,,,,,,,,,,,,,,,,,,,,,,,,,,,,,,,,,,,,,,,,,,,,,,,,,,,,
0,7,7,52,1,,5c0048442213be0001c2d579,62bbfa4c76c1b7c44c51f82f,2022-06-29_24h08.52.192,Colour_Asymmetry_Pilot,2022.1.3,Win32,60.3427468,62bbe60bf3d75ef465d3e404,,,,,,,,,,,,,,,,,,,,,,,,,,,,,,,,,,,,,,,,,,,,,,,,,,,,,,,,,,,,,,,,,,,,,,,,,,,,,,,,,,,,,,,,,,,,,,,,,,,,,,,,,,,,,,,,,,,,,,,,,,,,,,,,,,,,,,,,,,,,,,,,,,,,,,,,,,,,,,
0,8,8,38,1,,5c0048442213be0001c2d579,62bbfa4c76c1b7c44c51f82f,2022-06-29_24h08.52.192,Colour_Asymmetry_Pilot,2022.1.3,Win32,60.3427468,62bbe60bf3d75ef465d3e404,,,,,,,,,,,,,,,,,,,,,,,,,,,,,,,,,,,,,,,,,,,,,,,,,,,,,,,,,,,,,,,,,,,,,,,,,,,,,,,,,,,,,,,,,,,,,,,,,,,,,,,,,,,,,,,,,,,,,,,,,,,,,,,,,,,,,,,,,,,,,,,,,,,,,,,,,,,,,,
0,9,9,26,1,,5c0048442213be0001c2d579,62bbfa4c76c1b7c44c51f82f,2022-06-29_24h08.52.192,Colour_Asymmetry_Pilot,2022.1.3,Win32,60.3427468,62bbe60bf3d75ef465d3e404,,,,,,,,,,,,,,,,,,,,,,,,,,,,,,,,,,,,,,,,,,,,,,,,,,,,,,,,,,,,,,,,,,,,,,,,,,,,,,,,,,,,,,,,,,,,,,,,,,,,,,,,,,,,,,,,,,,,,,,,,,,,,,,,,,,,,,,,,,,,,,,,,,,,,,,,,,,,,,
0,10,10,72,1,,5c0048442213be0001c2d579,62bbfa4c76c1b7c44c51f82f,2022-06-29_24h08.52.192,Colour_Asymmetry_Pilot,2022.1.3,Win32,60.3427468,62bbe60bf3d75ef465d3e404,,,,,,,,,,,,,,,,,,,,,,,,,,,,,,,,,,,,,,,,,,,,,,,,,,,,,,,,,,,,,,,,,,,,,,,,,,,,,,,,,,,,,,,,,,,,,,,,,,,,,,,,,,,,,,,,,,,,,,,,,,,,,,,,,,,,,,,,,,,,,,,,,,,,,,,,,,,,,,
0,11,11,66,1,,5c0048442213be0001c2d579,62bbfa4c76c1b7c44c51f82f,2022-06-29_24h08.52.192,Colour_Asymmetry_Pilot,2022.1.3,Win32,60.3427468,62bbe60bf3d75ef465d3e404,,,,,,,,,,,,,,,,,,,,,,,,,,,,,,,,,,,,,,,,,,,,,,,,,,,,,,,,,,,,,,,,,,,,,,,,,,,,,,,,,,,,,,,,,,,,,,,,,,,,,,,,,,,,,,,,,,,,,,,,,,,,,,,,,,,,,,,,,,,,,,,,,,,,,,,,,,,,,,
0,12,12,15,1,,5c0048442213be0001c2d579,62bbfa4c76c1b7c44c51f82f,2022-06-29_24h08.52.192,Colour_Asymmetry_Pilot,2022.1.3,Win32,60.3427468,62bbe60bf3d75ef465d3e404,,,,,,,,,,,,,,,,,,,,,,,,,,,,,,,,,,,,,,,,,,,,,,,,,,,,,,,,,,,,,,,,,,,,,,,,,,,,,,,,,,,,,,,,,,,,,,,,,,,,,,,,,,,,,,,,,,,,,,,,,,,,,,,,,,,,,,,,,,,,,,,,,,,,,,,,,,,,,,
0,13,13,36,1,,5c0048442213be0001c2d579,62bbfa4c76c1b7c44c51f82f,2022-06-29_24h08.52.192,Colour_Asymmetry_Pilot,2022.1.3,Win32,60.3427468,62bbe60bf3d75ef465d3e404,,,,,,,,,,,,,,,,,,,,,,,,,,,,,,,,,,,,,,,,,,,,,,,,,,,,,,,,,,,,,,,,,,,,,,,,,,,,,,,,,,,,,,,,,,,,,,,,,,,,,,,,,,,,,,,,,,,,,,,,,,,,,,,,,,,,,,,,,,,,,,,,,,,,,,,,,,,,,,
0,14,14,28,1,,5c0048442213be0001c2d579,62bbfa4c76c1b7c44c51f82f,2022-06-29_24h08.52.192,Colour_Asymmetry_Pilot,2022.1.3,Win32,60.3427468,62bbe60bf3d75ef465d3e404,,,,,,,,,,,,,,,,,,,,,,,,,,,,,,,,,,,,,,,,,,,,,,,,,,,,,,,,,,,,,,,,,,,,,,,,,,,,,,,,,,,,,,,,,,,,,,,,,,,,,,,,,,,,,,,,,,,,,,,,,,,,,,,,,,,,,,,,,,,,,,,,,,,,,,,,,,,,,,
0,15,15,64,1,,5c0048442213be0001c2d579,62bbfa4c76c1b7c44c51f82f,2022-06-29_24h08.52.192,Colour_Asymmetry_Pilot,2022.1.3,Win32,60.3427468,62bbe60bf3d75ef465d3e404,,,,,,,,,,,,,,,,,,,,,,,,,,,,,,,,,,,,,,,,,,,,,,,,,,,,,,,,,,,,,,,,,,,,,,,,,,,,,,,,,,,,,,,,,,,,,,,,,,,,,,,,,,,,,,,,,,,,,,,,,,,,,,,,,,,,,,,,,,,,,,,,,,,,,,,,,,,,,,
0,16,16,50,1,,5c0048442213be0001c2d579,62bbfa4c76c1b7c44c51f82f,2022-06-29_24h08.52.192,Colour_Asymmetry_Pilot,2022.1.3,Win32,60.3427468,62bbe60bf3d75ef465d3e404,,,,,,,,,,,,,,,,,,,,,,,,,,,,,,,,,,,,,,,,,,,,,,,,,,,,,,,,,,,,,,,,,,,,,,,,,,,,,,,,,,,,,,,,,,,,,,,,,,,,,,,,,,,,,,,,,,,,,,,,,,,,,,,,,,,,,,,,,,,,,,,,,,,,,,,,,,,,,,
0,17,17,63,1,,5c0048442213be0001c2d579,62bbfa4c76c1b7c44c51f82f,2022-06-29_24h08.52.192,Colour_Asymmetry_Pilot,2022.1.3,Win32,60.3427468,62bbe60bf3d75ef465d3e404,,,,,,,,,,,,,,,,,,,,,,,,,,,,,,,,,,,,,,,,,,,,,,,,,,,,,,,,,,,,,,,,,,,,,,,,,,,,,,,,,,,,,,,,,,,,,,,,,,,,,,,,,,,,,,,,,,,,,,,,,,,,,,,,,,,,,,,,,,,,,,,,,,,,,,,,,,,,,,
0,18,18,73,1,,5c0048442213be0001c2d579,62bbfa4c76c1b7c44c51f82f,2022-06-29_24h08.52.192,Colour_Asymmetry_Pilot,2022.1.3,Win32,60.3427468,62bbe60bf3d75ef465d3e404,,,,,,,,,,,,,,,,,,,,,,,,,,,,,,,,,,,,,,,,,,,,,,,,,,,,,,,,,,,,,,,,,,,,,,,,,,,,,,,,,,,,,,,,,,,,,,,,,,,,,,,,,,,,,,,,,,,,,,,,,,,,,,,,,,,,,,,,,,,,,,,,,,,,,,,,,,,,,,
0,19,19,18,1,,5c0048442213be0001c2d579,62bbfa4c76c1b7c44c51f82f,2022-06-29_24h08.52.192,Colour_Asymmetry_Pilot,2022.1.3,Win32,60.3427468,62bbe60bf3d75ef465d3e404,,,,,,,,,,,,,,,,,,,,,,,,,,,,,,,,,,,,,,,,,,,,,,,,,,,,,,,,,,,,,,,,,,,,,,,,,,,,,,,,,,,,,,,,,,,,,,,,,,,,,,,,,,,,,,,,,,,,,,,,,,,,,,,,,,,,,,,,,,,,,,,,,,,,,,,,,,,,,,
0,20,20,76,1,,5c0048442213be0001c2d579,62bbfa4c76c1b7c44c51f82f,2022-06-29_24h08.52.192,Colour_Asymmetry_Pilot,2022.1.3,Win32,60.3427468,62bbe60bf3d75ef465d3e404,,,,,,,,,,,,,,,,,,,,,,,,,,,,,,,,,,,,,,,,,,,,,,,,,,,,,,,,,,,,,,,,,,,,,,,,,,,,,,,,,,,,,,,,,,,,,,,,,,,,,,,,,,,,,,,,,,,,,,,,,,,,,,,,,,,,,,,,,,,,,,,,,,,,,,,,,,,,,,
0,21,21,34,1,,5c0048442213be0001c2d579,62bbfa4c76c1b7c44c51f82f,2022-06-29_24h08.52.192,Colour_Asymmetry_Pilot,2022.1.3,Win32,60.3427468,62bbe60bf3d75ef465d3e404,,,,,,,,,,,,,,,,,,,,,,,,,,,,,,,,,,,,,,,,,,,,,,,,,,,,,,,,,,,,,,,,,,,,,,,,,,,,,,,,,,,,,,,,,,,,,,,,,,,,,,,,,,,,,,,,,,,,,,,,,,,,,,,,,,,,,,,,,,,,,,,,,,,,,,,,,,,,,,
0,22,22,74,1,,5c0048442213be0001c2d579,62bbfa4c76c1b7c44c51f82f,2022-06-29_24h08.52.192,Colour_Asymmetry_Pilot,2022.1.3,Win32,60.3427468,62bbe60bf3d75ef465d3e404,,,,,,,,,,,,,,,,,,,,,,,,,,,,,,,,,,,,,,,,,,,,,,,,,,,,,,,,,,,,,,,,,,,,,,,,,,,,,,,,,,,,,,,,,,,,,,,,,,,,,,,,,,,,,,,,,,,,,,,,,,,,,,,,,,,,,,,,,,,,,,,,,,,,,,,,,,,,,,
0,23,23,4,1,,5c0048442213be0001c2d579,62bbfa4c76c1b7c44c51f82f,2022-06-29_24h08.52.192,Colour_Asymmetry_Pilot,2022.1.3,Win32,60.3427468,62bbe60bf3d75ef465d3e404,,,,,,,,,,,,,,,,,,,,,,,,,,,,,,,,,,,,,,,,,,,,,,,,,,,,,,,,,,,,,,,,,,,,,,,,,,,,,,,,,,,,,,,,,,,,,,,,,,,,,,,,,,,,,,,,,,,,,,,,,,,,,,,,,,,,,,,,,,,,,,,,,,,,,,,,,,,,,,
0,24,24,3,1,,5c0048442213be0001c2d579,62bbfa4c76c1b7c44c51f82f,2022-06-29_24h08.52.192,Colour_Asymmetry_Pilot,2022.1.3,Win32,60.3427468,62bbe60bf3d75ef465d3e404,,,,,,,,,,,,,,,,,,,,,,,,,,,,,,,,,,,,,,,,,,,,,,,,,,,,,,,,,,,,,,,,,,,,,,,,,,,,,,,,,,,,,,,,,,,,,,,,,,,,,,,,,,,,,,,,,,,,,,,,,,,,,,,,,,,,,,,,,,,,,,,,,,,,,,,,,,,,,,
0,25,25,6,1,,5c0048442213be0001c2d579,62bbfa4c76c1b7c44c51f82f,2022-06-29_24h08.52.192,Colour_Asymmetry_Pilot,2022.1.3,Win32,60.3427468,62bbe60bf3d75ef465d3e404,,,,,,,,,,,,,,,,,,,,,,,,,,,,,,,,,,,,,,,,,,,,,,,,,,,,,,,,,,,,,,,,,,,,,,,,,,,,,,,,,,,,,,,,,,,,,,,,,,,,,,,,,,,,,,,,,,,,,,,,,,,,,,,,,,,,,,,,,,,,,,,,,,,,,,,,,,,,,,
0,26,26,87,1,,5c0048442213be0001c2d579,62bbfa4c76c1b7c44c51f82f,2022-06-29_24h08.52.192,Colour_Asymmetry_Pilot,2022.1.3,Win32,60.3427468,62bbe60bf3d75ef465d3e404,,,,,,,,,,,,,,,,,,,,,,,,,,,,,,,,,,,,,,,,,,,,,,,,,,,,,,,,,,,,,,,,,,,,,,,,,,,,,,,,,,,,,,,,,,,,,,,,,,,,,,,,,,,,,,,,,,,,,,,,,,,,,,,,,,,,,,,,,,,,,,,,,,,,,,,,,,,,,,
0,27,27,59,1,,5c0048442213be0001c2d579,62bbfa4c76c1b7c44c51f82f,2022-06-29_24h08.52.192,Colour_Asymmetry_Pilot,2022.1.3,Win32,60.3427468,62bbe60bf3d75ef465d3e404,,,,,,,,,,,,,,,,,,,,,,,,,,,,,,,,,,,,,,,,,,,,,,,,,,,,,,,,,,,,,,,,,,,,,,,,,,,,,,,,,,,,,,,,,,,,,,,,,,,,,,,,,,,,,,,,,,,,,,,,,,,,,,,,,,,,,,,,,,,,,,,,,,,,,,,,,,,,,,
0,28,28,77,1,,5c0048442213be0001c2d579,62bbfa4c76c1b7c44c51f82f,2022-06-29_24h08.52.192,Colour_Asymmetry_Pilot,2022.1.3,Win32,60.3427468,62bbe60bf3d75ef465d3e404,,,,,,,,,,,,,,,,,,,,,,,,,,,,,,,,,,,,,,,,,,,,,,,,,,,,,,,,,,,,,,,,,,,,,,,,,,,,,,,,,,,,,,,,,,,,,,,,,,,,,,,,,,,,,,,,,,,,,,,,,,,,,,,,,,,,,,,,,,,,,,,,,,,,,,,,,,,,,,
0,29,29,24,1,,5c0048442213be0001c2d579,62bbfa4c76c1b7c44c51f82f,2022-06-29_24h08.52.192,Colour_Asymmetry_Pilot,2022.1.3,Win32,60.3427468,62bbe60bf3d75ef465d3e404,,,,,,,,,,,,,,,,,,,,,,,,,,,,,,,,,,,,,,,,,,,,,,,,,,,,,,,,,,,,,,,,,,,,,,,,,,,,,,,,,,,,,,,,,,,,,,,,,,,,,,,,,,,,,,,,,,,,,,,,,,,,,,,,,,,,,,,,,,,,,,,,,,,,,,,,,,,,,,
0,30,30,11,1,,5c0048442213be0001c2d579,62bbfa4c76c1b7c44c51f82f,2022-06-29_24h08.52.192,Colour_Asymmetry_Pilot,2022.1.3,Win32,60.3427468,62bbe60bf3d75ef465d3e404,,,,,,,,,,,,,,,,,,,,,,,,,,,,,,,,,,,,,,,,,,,,,,,,,,,,,,,,,,,,,,,,,,,,,,,,,,,,,,,,,,,,,,,,,,,,,,,,,,,,,,,,,,,,,,,,,,,,,,,,,,,,,,,,,,,,,,,,,,,,,,,,,,,,,,,,,,,,,,
0,31,31,80,1,,5c0048442213be0001c2d579,62bbfa4c76c1b7c44c51f82f,2022-06-29_24h08.52.192,Colour_Asymmetry_Pilot,2022.1.3,Win32,60.3427468,62bbe60bf3d75ef465d3e404,,,,,,,,,,,,,,,,,,,,,,,,,,,,,,,,,,,,,,,,,,,,,,,,,,,,,,,,,,,,,,,,,,,,,,,,,,,,,,,,,,,,,,,,,,,,,,,,,,,,,,,,,,,,,,,,,,,,,,,,,,,,,,,,,,,,,,,,,,,,,,,,,,,,,,,,,,,,,,
0,32,32,22,1,,5c0048442213be0001c2d579,62bbfa4c76c1b7c44c51f82f,2022-06-29_24h08.52.192,Colour_Asymmetry_Pilot,2022.1.3,Win32,60.3427468,62bbe60bf3d75ef465d3e404,,,,,,,,,,,,,,,,,,,,,,,,,,,,,,,,,,,,,,,,,,,,,,,,,,,,,,,,,,,,,,,,,,,,,,,,,,,,,,,,,,,,,,,,,,,,,,,,,,,,,,,,,,,,,,,,,,,,,,,,,,,,,,,,,,,,,,,,,,,,,,,,,,,,,,,,,,,,,,
0,33,33,83,1,,5c0048442213be0001c2d579,62bbfa4c76c1b7c44c51f82f,2022-06-29_24h08.52.192,Colour_Asymmetry_Pilot,2022.1.3,Win32,60.3427468,62bbe60bf3d75ef465d3e404,,,,,,,,,,,,,,,,,,,,,,,,,,,,,,,,,,,,,,,,,,,,,,,,,,,,,,,,,,,,,,,,,,,,,,,,,,,,,,,,,,,,,,,,,,,,,,,,,,,,,,,,,,,,,,,,,,,,,,,,,,,,,,,,,,,,,,,,,,,,,,,,,,,,,,,,,,,,,,
0,34,34,1,1,,5c0048442213be0001c2d579,62bbfa4c76c1b7c44c51f82f,2022-06-29_24h08.52.192,Colour_Asymmetry_Pilot,2022.1.3,Win32,60.3427468,62bbe60bf3d75ef465d3e404,,,,,,,,,,,,,,,,,,,,,,,,,,,,,,,,,,,,,,,,,,,,,,,,,,,,,,,,,,,,,,,,,,,,,,,,,,,,,,,,,,,,,,,,,,,,,,,,,,,,,,,,,,,,,,,,,,,,,,,,,,,,,,,,,,,,,,,,,,,,,,,,,,,,,,,,,,,,,,
0,35,35,45,1,,5c0048442213be0001c2d579,62bbfa4c76c1b7c44c51f82f,2022-06-29_24h08.52.192,Colour_Asymmetry_Pilot,2022.1.3,Win32,60.3427468,62bbe60bf3d75ef465d3e404,,,,,,,,,,,,,,,,,,,,,,,,,,,,,,,,,,,,,,,,,,,,,,,,,,,,,,,,,,,,,,,,,,,,,,,,,,,,,,,,,,,,,,,,,,,,,,,,,,,,,,,,,,,,,,,,,,,,,,,,,,,,,,,,,,,,,,,,,,,,,,,,,,,,,,,,,,,,,,
0,36,36,16,1,,5c0048442213be0001c2d579,62bbfa4c76c1b7c44c51f82f,2022-06-29_24h08.52.192,Colour_Asymmetry_Pilot,2022.1.3,Win32,60.3427468,62bbe60bf3d75ef465d3e404,,,,,,,,,,,,,,,,,,,,,,,,,,,,,,,,,,,,,,,,,,,,,,,,,,,,,,,,,,,,,,,,,,,,,,,,,,,,,,,,,,,,,,,,,,,,,,,,,,,,,,,,,,,,,,,,,,,,,,,,,,,,,,,,,,,,,,,,,,,,,,,,,,,,,,,,,,,,,,
0,37,37,84,1,,5c0048442213be0001c2d579,62bbfa4c76c1b7c44c51f82f,2022-06-29_24h08.52.192,Colour_Asymmetry_Pilot,2022.1.3,Win32,60.3427468,62bbe60bf3d75ef465d3e404,,,,,,,,,,,,,,,,,,,,,,,,,,,,,,,,,,,,,,,,,,,,,,,,,,,,,,,,,,,,,,,,,,,,,,,,,,,,,,,,,,,,,,,,,,,,,,,,,,,,,,,,,,,,,,,,,,,,,,,,,,,,,,,,,,,,,,,,,,,,,,,,,,,,,,,,,,,,,,
0,38,38,78,1,,5c0048442213be0001c2d579,62bbfa4c76c1b7c44c51f82f,2022-06-29_24h08.52.192,Colour_Asymmetry_Pilot,2022.1.3,Win32,60.3427468,62bbe60bf3d75ef465d3e404,,,,,,,,,,,,,,,,,,,,,,,,,,,,,,,,,,,,,,,,,,,,,,,,,,,,,,,,,,,,,,,,,,,,,,,,,,,,,,,,,,,,,,,,,,,,,,,,,,,,,,,,,,,,,,,,,,,,,,,,,,,,,,,,,,,,,,,,,,,,,,,,,,,,,,,,,,,,,,
0,39,39,53,1,,5c0048442213be0001c2d579,62bbfa4c76c1b7c44c51f82f,2022-06-29_24h08.52.192,Colour_Asymmetry_Pilot,2022.1.3,Win32,60.3427468,62bbe60bf3d75ef465d3e404,,,,,,,,,,,,,,,,,,,,,,,,,,,,,,,,,,,,,,,,,,,,,,,,,,,,,,,,,,,,,,,,,,,,,,,,,,,,,,,,,,,,,,,,,,,,,,,,,,,,,,,,,,,,,,,,,,,,,,,,,,,,,,,,,,,,,,,,,,,,,,,,,,,,,,,,,,,,,,
0,40,40,67,1,,5c0048442213be0001c2d579,62bbfa4c76c1b7c44c51f82f,2022-06-29_24h08.52.192,Colour_Asymmetry_Pilot,2022.1.3,Win32,60.3427468,62bbe60bf3d75ef465d3e404,,,,,,,,,,,,,,,,,,,,,,,,,,,,,,,,,,,,,,,,,,,,,,,,,,,,,,,,,,,,,,,,,,,,,,,,,,,,,,,,,,,,,,,,,,,,,,,,,,,,,,,,,,,,,,,,,,,,,,,,,,,,,,,,,,,,,,,,,,,,,,,,,,,,,,,,,,,,,,
0,41,41,49,1,,5c0048442213be0001c2d579,62bbfa4c76c1b7c44c51f82f,2022-06-29_24h08.52.192,Colour_Asymmetry_Pilot,2022.1.3,Win32,60.3427468,62bbe60bf3d75ef465d3e404,,,,,,,,,,,,,,,,,,,,,,,,,,,,,,,,,,,,,,,,,,,,,,,,,,,,,,,,,,,,,,,,,,,,,,,,,,,,,,,,,,,,,,,,,,,,,,,,,,,,,,,,,,,,,,,,,,,,,,,,,,,,,,,,,,,,,,,,,,,,,,,,,,,,,,,,,,,,,,
0,42,42,25,1,,5c0048442213be0001c2d579,62bbfa4c76c1b7c44c51f82f,2022-06-29_24h08.52.192,Colour_Asymmetry_Pilot,2022.1.3,Win32,60.3427468,62bbe60bf3d75ef465d3e404,,,,,,,,,,,,,,,,,,,,,,,,,,,,,,,,,,,,,,,,,,,,,,,,,,,,,,,,,,,,,,,,,,,,,,,,,,,,,,,,,,,,,,,,,,,,,,,,,,,,,,,,,,,,,,,,,,,,,,,,,,,,,,,,,,,,,,,,,,,,,,,,,,,,,,,,,,,,,,
0,43,43,68,1,,5c0048442213be0001c2d579,62bbfa4c76c1b7c44c51f82f,2022-06-29_24h08.52.192,Colour_Asymmetry_Pilot,2022.1.3,Win32,60.3427468,62bbe60bf3d75ef465d3e404,,,,,,,,,,,,,,,,,,,,,,,,,,,,,,,,,,,,,,,,,,,,,,,,,,,,,,,,,,,,,,,,,,,,,,,,,,,,,,,,,,,,,,,,,,,,,,,,,,,,,,,,,,,,,,,,,,,,,,,,,,,,,,,,,,,,,,,,,,,,,,,,,,,,,,,,,,,,,,
0,44,44,5,1,,5c0048442213be0001c2d579,62bbfa4c76c1b7c44c51f82f,2022-06-29_24h08.52.192,Colour_Asymmetry_Pilot,2022.1.3,Win32,60.3427468,62bbe60bf3d75ef465d3e404,,,,,,,,,,,,,,,,,,,,,,,,,,,,,,,,,,,,,,,,,,,,,,,,,,,,,,,,,,,,,,,,,,,,,,,,,,,,,,,,,,,,,,,,,,,,,,,,,,,,,,,,,,,,,,,,,,,,,,,,,,,,,,,,,,,,,,,,,,,,,,,,,,,,,,,,,,,,,,
0,45,45,92,1,,5c0048442213be0001c2d579,62bbfa4c76c1b7c44c51f82f,2022-06-29_24h08.52.192,Colour_Asymmetry_Pilot,2022.1.3,Win32,60.3427468,62bbe60bf3d75ef465d3e404,,,,,,,,,,,,,,,,,,,,,,,,,,,,,,,,,,,,,,,,,,,,,,,,,,,,,,,,,,,,,,,,,,,,,,,,,,,,,,,,,,,,,,,,,,,,,,,,,,,,,,,,,,,,,,,,,,,,,,,,,,,,,,,,,,,,,,,,,,,,,,,,,,,,,,,,,,,,,,
0,46,46,10,1,,5c0048442213be0001c2d579,62bbfa4c76c1b7c44c51f82f,2022-06-29_24h08.52.192,Colour_Asymmetry_Pilot,2022.1.3,Win32,60.3427468,62bbe60bf3d75ef465d3e404,,,,,,,,,,,,,,,,,,,,,,,,,,,,,,,,,,,,,,,,,,,,,,,,,,,,,,,,,,,,,,,,,,,,,,,,,,,,,,,,,,,,,,,,,,,,,,,,,,,,,,,,,,,,,,,,,,,,,,,,,,,,,,,,,,,,,,,,,,,,,,,,,,,,,,,,,,,,,,
0,47,47,2,1,,5c0048442213be0001c2d579,62bbfa4c76c1b7c44c51f82f,2022-06-29_24h08.52.192,Colour_Asymmetry_Pilot,2022.1.3,Win32,60.3427468,62bbe60bf3d75ef465d3e404,,,,,,,,,,,,,,,,,,,,,,,,,,,,,,,,,,,,,,,,,,,,,,,,,,,,,,,,,,,,,,,,,,,,,,,,,,,,,,,,,,,,,,,,,,,,,,,,,,,,,,,,,,,,,,,,,,,,,,,,,,,,,,,,,,,,,,,,,,,,,,,,,,,,,,,,,,,,,,
0,48,48,29,1,,5c0048442213be0001c2d579,62bbfa4c76c1b7c44c51f82f,2022-06-29_24h08.52.192,Colour_Asymmetry_Pilot,2022.1.3,Win32,60.3427468,62bbe60bf3d75ef465d3e404,,,,,,,,,,,,,,,,,,,,,,,,,,,,,,,,,,,,,,,,,,,,,,,,,,,,,,,,,,,,,,,,,,,,,,,,,,,,,,,,,,,,,,,,,,,,,,,,,,,,,,,,,,,,,,,,,,,,,,,,,,,,,,,,,,,,,,,,,,,,,,,,,,,,,,,,,,,,,,
0,49,49,43,1,,5c0048442213be0001c2d579,62bbfa4c76c1b7c44c51f82f,2022-06-29_24h08.52.192,Colour_Asymmetry_Pilot,2022.1.3,Win32,60.3427468,62bbe60bf3d75ef465d3e404,,,,,,,,,,,,,,,,,,,,,,,,,,,,,,,,,,,,,,,,,,,,,,,,,,,,,,,,,,,,,,,,,,,,,,,,,,,,,,,,,,,,,,,,,,,,,,,,,,,,,,,,,,,,,,,,,,,,,,,,,,,,,,,,,,,,,,,,,,,,,,,,,,,,,,,,,,,,,,
0,50,50,41,1,,5c0048442213be0001c2d579,62bbfa4c76c1b7c44c51f82f,2022-06-29_24h08.52.192,Colour_Asymmetry_Pilot,2022.1.3,Win32,60.3427468,62bbe60bf3d75ef465d3e404,,,,,,,,,,,,,,,,,,,,,,,,,,,,,,,,,,,,,,,,,,,,,,,,,,,,,,,,,,,,,,,,,,,,,,,,,,,,,,,,,,,,,,,,,,,,,,,,,,,,,,,,,,,,,,,,,,,,,,,,,,,,,,,,,,,,,,,,,,,,,,,,,,,,,,,,,,,,,,
0,51,51,20,1,,5c0048442213be0001c2d579,62bbfa4c76c1b7c44c51f82f,2022-06-29_24h08.52.192,Colour_Asymmetry_Pilot,2022.1.3,Win32,60.3427468,62bbe60bf3d75ef465d3e404,,,,,,,,,,,,,,,,,,,,,,,,,,,,,,,,,,,,,,,,,,,,,,,,,,,,,,,,,,,,,,,,,,,,,,,,,,,,,,,,,,,,,,,,,,,,,,,,,,,,,,,,,,,,,,,,,,,,,,,,,,,,,,,,,,,,,,,,,,,,,,,,,,,,,,,,,,,,,,
0,52,52,47,1,,5c0048442213be0001c2d579,62bbfa4c76c1b7c44c51f82f,2022-06-29_24h08.52.192,Colour_Asymmetry_Pilot,2022.1.3,Win32,60.3427468,62bbe60bf3d75ef465d3e404,,,,,,,,,,,,,,,,,,,,,,,,,,,,,,,,,,,,,,,,,,,,,,,,,,,,,,,,,,,,,,,,,,,,,,,,,,,,,,,,,,,,,,,,,,,,,,,,,,,,,,,,,,,,,,,,,,,,,,,,,,,,,,,,,,,,,,,,,,,,,,,,,,,,,,,,,,,,,,
0,53,53,81,1,,5c0048442213be0001c2d579,62bbfa4c76c1b7c44c51f82f,2022-06-29_24h08.52.192,Colour_Asymmetry_Pilot,2022.1.3,Win32,60.3427468,62bbe60bf3d75ef465d3e404,,,,,,,,,,,,,,,,,,,,,,,,,,,,,,,,,,,,,,,,,,,,,,,,,,,,,,,,,,,,,,,,,,,,,,,,,,,,,,,,,,,,,,,,,,,,,,,,,,,,,,,,,,,,,,,,,,,,,,,,,,,,,,,,,,,,,,,,,,,,,,,,,,,,,,,,,,,,,,
0,54,54,39,1,,5c0048442213be0001c2d579,62bbfa4c76c1b7c44c51f82f,2022-06-29_24h08.52.192,Colour_Asymmetry_Pilot,2022.1.3,Win32,60.3427468,62bbe60bf3d75ef465d3e404,,,,,,,,,,,,,,,,,,,,,,,,,,,,,,,,,,,,,,,,,,,,,,,,,,,,,,,,,,,,,,,,,,,,,,,,,,,,,,,,,,,,,,,,,,,,,,,,,,,,,,,,,,,,,,,,,,,,,,,,,,,,,,,,,,,,,,,,,,,,,,,,,,,,,,,,,,,,,,
0,55,55,56,1,,5c0048442213be0001c2d579,62bbfa4c76c1b7c44c51f82f,2022-06-29_24h08.52.192,Colour_Asymmetry_Pilot,2022.1.3,Win32,60.3427468,62bbe60bf3d75ef465d3e404,,,,,,,,,,,,,,,,,,,,,,,,,,,,,,,,,,,,,,,,,,,,,,,,,,,,,,,,,,,,,,,,,,,,,,,,,,,,,,,,,,,,,,,,,,,,,,,,,,,,,,,,,,,,,,,,,,,,,,,,,,,,,,,,,,,,,,,,,,,,,,,,,,,,,,,,,,,,,,
0,56,56,75,1,,5c0048442213be0001c2d579,62bbfa4c76c1b7c44c51f82f,2022-06-29_24h08.52.192,Colour_Asymmetry_Pilot,2022.1.3,Win32,60.3427468,62bbe60bf3d75ef465d3e404,,,,,,,,,,,,,,,,,,,,,,,,,,,,,,,,,,,,,,,,,,,,,,,,,,,,,,,,,,,,,,,,,,,,,,,,,,,,,,,,,,,,,,,,,,,,,,,,,,,,,,,,,,,,,,,,,,,,,,,,,,,,,,,,,,,,,,,,,,,,,,,,,,,,,,,,,,,,,,
0,57,57,0,1,,5c0048442213be0001c2d579,62bbfa4c76c1b7c44c51f82f,2022-06-29_24h08.52.192,Colour_Asymmetry_Pilot,2022.1.3,Win32,60.3427468,62bbe60bf3d75ef465d3e404,,,,,,,,,,,,,,,,,,,,,,,,,,,,,,,,,,,,,,,,,,,,,,,,,,,,,,,,,,,,,,,,,,,,,,,,,,,,,,,,,,,,,,,,,,,,,,,,,,,,,,,,,,,,,,,,,,,,,,,,,,,,,,,,,,,,,,,,,,,,,,,,,,,,,,,,,,,,,,
0,58,58,35,1,,5c0048442213be0001c2d579,62bbfa4c76c1b7c44c51f82f,2022-06-29_24h08.52.192,Colour_Asymmetry_Pilot,2022.1.3,Win32,60.3427468,62bbe60bf3d75ef465d3e404,,,,,,,,,,,,,,,,,,,,,,,,,,,,,,,,,,,,,,,,,,,,,,,,,,,,,,,,,,,,,,,,,,,,,,,,,,,,,,,,,,,,,,,,,,,,,,,,,,,,,,,,,,,,,,,,,,,,,,,,,,,,,,,,,,,,,,,,,,,,,,,,,,,,,,,,,,,,,,
0,59,59,14,1,,5c0048442213be0001c2d579,62bbfa4c76c1b7c44c51f82f,2022-06-29_24h08.52.192,Colour_Asymmetry_Pilot,2022.1.3,Win32,60.3427468,62bbe60bf3d75ef465d3e404,,,,,,,,,,,,,,,,,,,,,,,,,,,,,,,,,,,,,,,,,,,,,,,,,,,,,,,,,,,,,,,,,,,,,,,,,,,,,,,,,,,,,,,,,,,,,,,,,,,,,,,,,,,,,,,,,,,,,,,,,,,,,,,,,,,,,,,,,,,,,,,,,,,,,,,,,,,,,,
0,60,60,79,1,,5c0048442213be0001c2d579,62bbfa4c76c1b7c44c51f82f,2022-06-29_24h08.52.192,Colour_Asymmetry_Pilot,2022.1.3,Win32,60.3427468,62bbe60bf3d75ef465d3e404,,,,,,,,,,,,,,,,,,,,,,,,,,,,,,,,,,,,,,,,,,,,,,,,,,,,,,,,,,,,,,,,,,,,,,,,,,,,,,,,,,,,,,,,,,,,,,,,,,,,,,,,,,,,,,,,,,,,,,,,,,,,,,,,,,,,,,,,,,,,,,,,,,,,,,,,,,,,,,
0,61,61,9,1,,5c0048442213be0001c2d579,62bbfa4c76c1b7c44c51f82f,2022-06-29_24h08.52.192,Colour_Asymmetry_Pilot,2022.1.3,Win32,60.3427468,62bbe60bf3d75ef465d3e404,,,,,,,,,,,,,,,,,,,,,,,,,,,,,,,,,,,,,,,,,,,,,,,,,,,,,,,,,,,,,,,,,,,,,,,,,,,,,,,,,,,,,,,,,,,,,,,,,,,,,,,,,,,,,,,,,,,,,,,,,,,,,,,,,,,,,,,,,,,,,,,,,,,,,,,,,,,,,,
0,62,62,70,1,,5c0048442213be0001c2d579,62bbfa4c76c1b7c44c51f82f,2022-06-29_24h08.52.192,Colour_Asymmetry_Pilot,2022.1.3,Win32,60.3427468,62bbe60bf3d75ef465d3e404,,,,,,,,,,,,,,,,,,,,,,,,,,,,,,,,,,,,,,,,,,,,,,,,,,,,,,,,,,,,,,,,,,,,,,,,,,,,,,,,,,,,,,,,,,,,,,,,,,,,,,,,,,,,,,,,,,,,,,,,,,,,,,,,,,,,,,,,,,,,,,,,,,,,,,,,,,,,,,
0,63,63,88,1,,5c0048442213be0001c2d579,62bbfa4c76c1b7c44c51f82f,2022-06-29_24h08.52.192,Colour_Asymmetry_Pilot,2022.1.3,Win32,60.3427468,62bbe60bf3d75ef465d3e404,,,,,,,,,,,,,,,,,,,,,,,,,,,,,,,,,,,,,,,,,,,,,,,,,,,,,,,,,,,,,,,,,,,,,,,,,,,,,,,,,,,,,,,,,,,,,,,,,,,,,,,,,,,,,,,,,,,,,,,,,,,,,,,,,,,,,,,,,,,,,,,,,,,,,,,,,,,,,,
0,64,64,58,1,,5c0048442213be0001c2d579,62bbfa4c76c1b7c44c51f82f,2022-06-29_24h08.52.192,Colour_Asymmetry_Pilot,2022.1.3,Win32,60.3427468,62bbe60bf3d75ef465d3e404,,,,,,,,,,,,,,,,,,,,,,,,,,,,,,,,,,,,,,,,,,,,,,,,,,,,,,,,,,,,,,,,,,,,,,,,,,,,,,,,,,,,,,,,,,,,,,,,,,,,,,,,,,,,,,,,,,,,,,,,,,,,,,,,,,,,,,,,,,,,,,,,,,,,,,,,,,,,,,
0,65,65,31,1,,5c0048442213be0001c2d579,62bbfa4c76c1b7c44c51f82f,2022-06-29_24h08.52.192,Colour_Asymmetry_Pilot,2022.1.3,Win32,60.3427468,62bbe60bf3d75ef465d3e404,,,,,,,,,,,,,,,,,,,,,,,,,,,,,,,,,,,,,,,,,,,,,,,,,,,,,,,,,,,,,,,,,,,,,,,,,,,,,,,,,,,,,,,,,,,,,,,,,,,,,,,,,,,,,,,,,,,,,,,,,,,,,,,,,,,,,,,,,,,,,,,,,,,,,,,,,,,,,,
0,66,66,19,1,,5c0048442213be0001c2d579,62bbfa4c76c1b7c44c51f82f,2022-06-29_24h08.52.192,Colour_Asymmetry_Pilot,2022.1.3,Win32,60.3427468,62bbe60bf3d75ef465d3e404,,,,,,,,,,,,,,,,,,,,,,,,,,,,,,,,,,,,,,,,,,,,,,,,,,,,,,,,,,,,,,,,,,,,,,,,,,,,,,,,,,,,,,,,,,,,,,,,,,,,,,,,,,,,,,,,,,,,,,,,,,,,,,,,,,,,,,,,,,,,,,,,,,,,,,,,,,,,,,
0,67,67,82,1,,5c0048442213be0001c2d579,62bbfa4c76c1b7c44c51f82f,2022-06-29_24h08.52.192,Colour_Asymmetry_Pilot,2022.1.3,Win32,60.3427468,62bbe60bf3d75ef465d3e404,,,,,,,,,,,,,,,,,,,,,,,,,,,,,,,,,,,,,,,,,,,,,,,,,,,,,,,,,,,,,,,,,,,,,,,,,,,,,,,,,,,,,,,,,,,,,,,,,,,,,,,,,,,,,,,,,,,,,,,,,,,,,,,,,,,,,,,,,,,,,,,,,,,,,,,,,,,,,,
0,68,68,57,1,,5c0048442213be0001c2d579,62bbfa4c76c1b7c44c51f82f,2022-06-29_24h08.52.192,Colour_Asymmetry_Pilot,2022.1.3,Win32,60.3427468,62bbe60bf3d75ef465d3e404,,,,,,,,,,,,,,,,,,,,,,,,,,,,,,,,,,,,,,,,,,,,,,,,,,,,,,,,,,,,,,,,,,,,,,,,,,,,,,,,,,,,,,,,,,,,,,,,,,,,,,,,,,,,,,,,,,,,,,,,,,,,,,,,,,,,,,,,,,,,,,,,,,,,,,,,,,,,,,
0,69,69,55,1,,5c0048442213be0001c2d579,62bbfa4c76c1b7c44c51f82f,2022-06-29_24h08.52.192,Colour_Asymmetry_Pilot,2022.1.3,Win32,60.3427468,62bbe60bf3d75ef465d3e404,,,,,,,,,,,,,,,,,,,,,,,,,,,,,,,,,,,,,,,,,,,,,,,,,,,,,,,,,,,,,,,,,,,,,,,,,,,,,,,,,,,,,,,,,,,,,,,,,,,,,,,,,,,,,,,,,,,,,,,,,,,,,,,,,,,,,,,,,,,,,,,,,,,,,,,,,,,,,,
0,70,70,40,1,,5c0048442213be0001c2d579,62bbfa4c76c1b7c44c51f82f,2022-06-29_24h08.52.192,Colour_Asymmetry_Pilot,2022.1.3,Win32,60.3427468,62bbe60bf3d75ef465d3e404,,,,,,,,,,,,,,,,,,,,,,,,,,,,,,,,,,,,,,,,,,,,,,,,,,,,,,,,,,,,,,,,,,,,,,,,,,,,,,,,,,,,,,,,,,,,,,,,,,,,,,,,,,,,,,,,,,,,,,,,,,,,,,,,,,,,,,,,,,,,,,,,,,,,,,,,,,,,,,
0,71,71,23,1,,5c0048442213be0001c2d579,62bbfa4c76c1b7c44c51f82f,2022-06-29_24h08.52.192,Colour_Asymmetry_Pilot,2022.1.3,Win32,60.3427468,62bbe60bf3d75ef465d3e404,,,,,,,,,,,,,,,,,,,,,,,,,,,,,,,,,,,,,,,,,,,,,,,,,,,,,,,,,,,,,,,,,,,,,,,,,,,,,,,,,,,,,,,,,,,,,,,,,,,,,,,,,,,,,,,,,,,,,,,,,,,,,,,,,,,,,,,,,,,,,,,,,,,,,,,,,,,,,,
0,72,72,44,1,,5c0048442213be0001c2d579,62bbfa4c76c1b7c44c51f82f,2022-06-29_24h08.52.192,Colour_Asymmetry_Pilot,2022.1.3,Win32,60.3427468,62bbe60bf3d75ef465d3e404,,,,,,,,,,,,,,,,,,,,,,,,,,,,,,,,,,,,,,,,,,,,,,,,,,,,,,,,,,,,,,,,,,,,,,,,,,,,,,,,,,,,,,,,,,,,,,,,,,,,,,,,,,,,,,,,,,,,,,,,,,,,,,,,,,,,,,,,,,,,,,,,,,,,,,,,,,,,,,
0,73,73,91,1,,5c0048442213be0001c2d579,62bbfa4c76c1b7c44c51f82f,2022-06-29_24h08.52.192,Colour_Asymmetry_Pilot,2022.1.3,Win32,60.3427468,62bbe60bf3d75ef465d3e404,,,,,,,,,,,,,,,,,,,,,,,,,,,,,,,,,,,,,,,,,,,,,,,,,,,,,,,,,,,,,,,,,,,,,,,,,,,,,,,,,,,,,,,,,,,,,,,,,,,,,,,,,,,,,,,,,,,,,,,,,,,,,,,,,,,,,,,,,,,,,,,,,,,,,,,,,,,,,,
0,74,74,8,1,,5c0048442213be0001c2d579,62bbfa4c76c1b7c44c51f82f,2022-06-29_24h08.52.192,Colour_Asymmetry_Pilot,2022.1.3,Win32,60.3427468,62bbe60bf3d75ef465d3e404,,,,,,,,,,,,,,,,,,,,,,,,,,,,,,,,,,,,,,,,,,,,,,,,,,,,,,,,,,,,,,,,,,,,,,,,,,,,,,,,,,,,,,,,,,,,,,,,,,,,,,,,,,,,,,,,,,,,,,,,,,,,,,,,,,,,,,,,,,,,,,,,,,,,,,,,,,,,,,
0,75,75,7,1,,5c0048442213be0001c2d579,62bbfa4c76c1b7c44c51f82f,2022-06-29_24h08.52.192,Colour_Asymmetry_Pilot,2022.1.3,Win32,60.3427468,62bbe60bf3d75ef465d3e404,,,,,,,,,,,,,,,,,,,,,,,,,,,,,,,,,,,,,,,,,,,,,,,,,,,,,,,,,,,,,,,,,,,,,,,,,,,,,,,,,,,,,,,,,,,,,,,,,,,,,,,,,,,,,,,,,,,,,,,,,,,,,,,,,,,,,,,,,,,,,,,,,,,,,,,,,,,,,,
0,76,76,21,1,,5c0048442213be0001c2d579,62bbfa4c76c1b7c44c51f82f,2022-06-29_24h08.52.192,Colour_Asymmetry_Pilot,2022.1.3,Win32,60.3427468,62bbe60bf3d75ef465d3e404,,,,,,,,,,,,,,,,,,,,,,,,,,,,,,,,,,,,,,,,,,,,,,,,,,,,,,,,,,,,,,,,,,,,,,,,,,,,,,,,,,,,,,,,,,,,,,,,,,,,,,,,,,,,,,,,,,,,,,,,,,,,,,,,,,,,,,,,,,,,,,,,,,,,,,,,,,,,,,
0,77,77,30,1,,5c0048442213be0001c2d579,62bbfa4c76c1b7c44c51f82f,2022-06-29_24h08.52.192,Colour_Asymmetry_Pilot,2022.1.3,Win32,60.3427468,62bbe60bf3d75ef465d3e404,,,,,,,,,,,,,,,,,,,,,,,,,,,,,,,,,,,,,,,,,,,,,,,,,,,,,,,,,,,,,,,,,,,,,,,,,,,,,,,,,,,,,,,,,,,,,,,,,,,,,,,,,,,,,,,,,,,,,,,,,,,,,,,,,,,,,,,,,,,,,,,,,,,,,,,,,,,,,,
0,78,78,65,1,,5c0048442213be0001c2d579,62bbfa4c76c1b7c44c51f82f,2022-06-29_24h08.52.192,Colour_Asymmetry_Pilot,2022.1.3,Win32,60.3427468,62bbe60bf3d75ef465d3e404,,,,,,,,,,,,,,,,,,,,,,,,,,,,,,,,,,,,,,,,,,,,,,,,,,,,,,,,,,,,,,,,,,,,,,,,,,,,,,,,,,,,,,,,,,,,,,,,,,,,,,,,,,,,,,,,,,,,,,,,,,,,,,,,,,,,,,,,,,,,,,,,,,,,,,,,,,,,,,
0,79,79,62,1,,5c0048442213be0001c2d579,62bbfa4c76c1b7c44c51f82f,2022-06-29_24h08.52.192,Colour_Asymmetry_Pilot,2022.1.3,Win32,60.3427468,62bbe60bf3d75ef465d3e404,,,,,,,,,,,,,,,,,,,,,,,,,,,,,,,,,,,,,,,,,,,,,,,,,,,,,,,,,,,,,,,,,,,,,,,,,,,,,,,,,,,,,,,,,,,,,,,,,,,,,,,,,,,,,,,,,,,,,,,,,,,,,,,,,,,,,,,,,,,,,,,,,,,,,,,,,,,,,,
0,80,80,48,1,,5c0048442213be0001c2d579,62bbfa4c76c1b7c44c51f82f,2022-06-29_24h08.52.192,Colour_Asymmetry_Pilot,2022.1.3,Win32,60.3427468,62bbe60bf3d75ef465d3e404,,,,,,,,,,,,,,,,,,,,,,,,,,,,,,,,,,,,,,,,,,,,,,,,,,,,,,,,,,,,,,,,,,,,,,,,,,,,,,,,,,,,,,,,,,,,,,,,,,,,,,,,,,,,,,,,,,,,,,,,,,,,,,,,,,,,,,,,,,,,,,,,,,,,,,,,,,,,,,
0,81,81,27,1,,5c0048442213be0001c2d579,62bbfa4c76c1b7c44c51f82f,2022-06-29_24h08.52.192,Colour_Asymmetry_Pilot,2022.1.3,Win32,60.3427468,62bbe60bf3d75ef465d3e404,,,,,,,,,,,,,,,,,,,,,,,,,,,,,,,,,,,,,,,,,,,,,,,,,,,,,,,,,,,,,,,,,,,,,,,,,,,,,,,,,,,,,,,,,,,,,,,,,,,,,,,,,,,,,,,,,,,,,,,,,,,,,,,,,,,,,,,,,,,,,,,,,,,,,,,,,,,,,,
0,82,82,13,1,,5c0048442213be0001c2d579,62bbfa4c76c1b7c44c51f82f,2022-06-29_24h08.52.192,Colour_Asymmetry_Pilot,2022.1.3,Win32,60.3427468,62bbe60bf3d75ef465d3e404,,,,,,,,,,,,,,,,,,,,,,,,,,,,,,,,,,,,,,,,,,,,,,,,,,,,,,,,,,,,,,,,,,,,,,,,,,,,,,,,,,,,,,,,,,,,,,,,,,,,,,,,,,,,,,,,,,,,,,,,,,,,,,,,,,,,,,,,,,,,,,,,,,,,,,,,,,,,,,
0,83,83,51,1,,5c0048442213be0001c2d579,62bbfa4c76c1b7c44c51f82f,2022-06-29_24h08.52.192,Colour_Asymmetry_Pilot,2022.1.3,Win32,60.3427468,62bbe60bf3d75ef465d3e404,,,,,,,,,,,,,,,,,,,,,,,,,,,,,,,,,,,,,,,,,,,,,,,,,,,,,,,,,,,,,,,,,,,,,,,,,,,,,,,,,,,,,,,,,,,,,,,,,,,,,,,,,,,,,,,,,,,,,,,,,,,,,,,,,,,,,,,,,,,,,,,,,,,,,,,,,,,,,,
0,84,84,85,1,,5c0048442213be0001c2d579,62bbfa4c76c1b7c44c51f82f,2022-06-29_24h08.52.192,Colour_Asymmetry_Pilot,2022.1.3,Win32,60.3427468,62bbe60bf3d75ef465d3e404,,,,,,,,,,,,,,,,,,,,,,,,,,,,,,,,,,,,,,,,,,,,,,,,,,,,,,,,,,,,,,,,,,,,,,,,,,,,,,,,,,,,,,,,,,,,,,,,,,,,,,,,,,,,,,,,,,,,,,,,,,,,,,,,,,,,,,,,,,,,,,,,,,,,,,,,,,,,,,
0,85,85,61,1,,5c0048442213be0001c2d579,62bbfa4c76c1b7c44c51f82f,2022-06-29_24h08.52.192,Colour_Asymmetry_Pilot,2022.1.3,Win32,60.3427468,62bbe60bf3d75ef465d3e404,,,,,,,,,,,,,,,,,,,,,,,,,,,,,,,,,,,,,,,,,,,,,,,,,,,,,,,,,,,,,,,,,,,,,,,,,,,,,,,,,,,,,,,,,,,,,,,,,,,,,,,,,,,,,,,,,,,,,,,,,,,,,,,,,,,,,,,,,,,,,,,,,,,,,,,,,,,,,,
0,86,86,86,1,,5c0048442213be0001c2d579,62bbfa4c76c1b7c44c51f82f,2022-06-29_24h08.52.192,Colour_Asymmetry_Pilot,2022.1.3,Win32,60.3427468,62bbe60bf3d75ef465d3e404,,,,,,,,,,,,,,,,,,,,,,,,,,,,,,,,,,,,,,,,,,,,,,,,,,,,,,,,,,,,,,,,,,,,,,,,,,,,,,,,,,,,,,,,,,,,,,,,,,,,,,,,,,,,,,,,,,,,,,,,,,,,,,,,,,,,,,,,,,,,,,,,,,,,,,,,,,,,,,
0,87,87,60,1,,5c0048442213be0001c2d579,62bbfa4c76c1b7c44c51f82f,2022-06-29_24h08.52.192,Colour_Asymmetry_Pilot,2022.1.3,Win32,60.3427468,62bbe60bf3d75ef465d3e404,,,,,,,,,,,,,,,,,,,,,,,,,,,,,,,,,,,,,,,,,,,,,,,,,,,,,,,,,,,,,,,,,,,,,,,,,,,,,,,,,,,,,,,,,,,,,,,,,,,,,,,,,,,,,,,,,,,,,,,,,,,,,,,,,,,,,,,,,,,,,,,,,,,,,,,,,,,,,,
0,88,88,89,1,,5c0048442213be0001c2d579,62bbfa4c76c1b7c44c51f82f,2022-06-29_24h08.52.192,Colour_Asymmetry_Pilot,2022.1.3,Win32,60.3427468,62bbe60bf3d75ef465d3e404,,,,,,,,,,,,,,,,,,,,,,,,,,,,,,,,,,,,,,,,,,,,,,,,,,,,,,,,,,,,,,,,,,,,,,,,,,,,,,,,,,,,,,,,,,,,,,,,,,,,,,,,,,,,,,,,,,,,,,,,,,,,,,,,,,,,,,,,,,,,,,,,,,,,,,,,,,,,,,
0,89,89,32,1,,5c0048442213be0001c2d579,62bbfa4c76c1b7c44c51f82f,2022-06-29_24h08.52.192,Colour_Asymmetry_Pilot,2022.1.3,Win32,60.3427468,62bbe60bf3d75ef465d3e404,,,,,,,,,,,,,,,,,,,,,,,,,,,,,,,,,,,,,,,,,,,,,,,,,,,,,,,,,,,,,,,,,,,,,,,,,,,,,,,,,,,,,,,,,,,,,,,,,,,,,,,,,,,,,,,,,,,,,,,,,,,,,,,,,,,,,,,,,,,,,,,,,,,,,,,,,,,,,,
0,90,90,90,1,,5c0048442213be0001c2d579,62bbfa4c76c1b7c44c51f82f,2022-06-29_24h08.52.192,Colour_Asymmetry_Pilot,2022.1.3,Win32,60.3427468,62bbe60bf3d75ef465d3e404,,,,,,,,,,,,,,,,,,,,,,,,,,,,,,,,,,,,,,,,,,,,,,,,,,,,,,,,,,,,,,,,,,,,,,,,,,,,,,,,,,,,,,,,,,,,,,,,,,,,,,,,,,,,,,,,,,,,,,,,,,,,,,,,,,,,,,,,,,,,,,,,,,,,,,,,,,,,,,
0,91,91,42,1,,5c0048442213be0001c2d579,62bbfa4c76c1b7c44c51f82f,2022-06-29_24h08.52.192,Colour_Asymmetry_Pilot,2022.1.3,Win32,60.3427468,62bbe60bf3d75ef465d3e404,,,,,,,,,,,,,,,,,,,,,,,,,,,,,,,,,,,,,,,,,,,,,,,,,,,,,,,,,,,,,,,,,,,,,,,,,,,,,,,,,,,,,,,,,,,,,,,,,,,,,,,,,,,,,,,,,,,,,,,,,,,,,,,,,,,,,,,,,,,,,,,,,,,,,,,,,,,,,,
0,92,92,71,1,,5c0048442213be0001c2d579,62bbfa4c76c1b7c44c51f82f,2022-06-29_24h08.52.192,Colour_Asymmetry_Pilot,2022.1.3,Win32,60.3427468,62bbe60bf3d75ef465d3e404,,,,,,,,,,,,,,,,,,,,,,,,,,,,,,,,,,,,,,,,,,,,,,,,,,,,,,,,,,,,,,,,,,,,,,,,,,,,,,,,,,,,,,,,,,,,,,,,,,,,,,,,,,,,,,,,,,,,,,,,,,,,,,,,,,,,,,,,,,,,,,,,,,,,,,,,,,,,,,
,,,,,,5c0048442213be0001c2d579,62bbfa4c76c1b7c44c51f82f,2022-06-29_24h08.52.192,Colour_Asymmetry_Pilot,2022.1.3,Win32,60.3427468,62bbe60bf3d75ef465d3e404,0,0,0,105,1,onethree,,,,,,,,,,,,,,,,,,,,,,,,,,,,,,,,,,,,,,,,,,,,,,,,,,,,,,,,,,,,,,,,,,,,,,,,,,,,,,,,,,,,,,,,,,,,,,,,,,,,,,,,,,,,,,,,,,,,,,,,,,,,,,,,,,,,,,,,,,,,,,,,,,,,,,,,
,,,,,,5c0048442213be0001c2d579,62bbfa4c76c1b7c44c51f82f,2022-06-29_24h08.52.192,Colour_Asymmetry_Pilot,2022.1.3,Win32,60.3427468,62bbe60bf3d75ef465d3e404,0,1,1,70,1,fourtwo,,,,,,,,,,,,,,,,,,,,,,,,,,,,,,,,,,,,,,,,,,,,,,,,,,,,,,,,,,,,,,,,,,,,,,,,,,,,,,,,,,,,,,,,,,,,,,,,,,,,,,,,,,,,,,,,,,,,,,,,,,,,,,,,,,,,,,,,,,,,,,,,,,,,,,,,
,,,,,,5c0048442213be0001c2d579,62bbfa4c76c1b7c44c51f82f,2022-06-29_24h08.52.192,Colour_Asymmetry_Pilot,2022.1.3,Win32,60.3427468,62bbe60bf3d75ef465d3e404,0,2,2,96,1,onetwo,,,,,,,,,,,,,,,,,,,,,,,,,,,,,,,,,,,,,,,,,,,,,,,,,,,,,,,,,,,,,,,,,,,,,,,,,,,,,,,,,,,,,,,,,,,,,,,,,,,,,,,,,,,,,,,,,,,,,,,,,,,,,,,,,,,,,,,,,,,,,,,,,,,,,,,,
,,,,,,5c0048442213be0001c2d579,62bbfa4c76c1b7c44c51f82f,2022-06-29_24h08.52.192,Colour_Asymmetry_Pilot,2022.1.3,Win32,60.3427468,62bbe60bf3d75ef465d3e404,0,3,3,18,1,twoone,,,,,,,,,,,,,,,,,,,,,,,,,,,,,,,,,,,,,,,,,,,,,,,,,,,,,,,,,,,,,,,,,,,,,,,,,,,,,,,,,,,,,,,,,,,,,,,,,,,,,,,,,,,,,,,,,,,,,,,,,,,,,,,,,,,,,,,,,,,,,,,,,,,,,,,,
,,,,,,5c0048442213be0001c2d579,62bbfa4c76c1b7c44c51f82f,2022-06-29_24h08.52.192,Colour_Asymmetry_Pilot,2022.1.3,Win32,60.3427468,62bbe60bf3d75ef465d3e404,0,4,4,54,1,fourtwo,,,,,,,,,,,,,,,,,,,,,,,,,,,,,,,,,,,,,,,,,,,,,,,,,,,,,,,,,,,,,,,,,,,,,,,,,,,,,,,,,,,,,,,,,,,,,,,,,,,,,,,,,,,,,,,,,,,,,,,,,,,,,,,,,,,,,,,,,,,,,,,,,,,,,,,,
,,,,,,5c0048442213be0001c2d579,62bbfa4c76c1b7c44c51f82f,2022-06-29_24h08.52.192,Colour_Asymmetry_Pilot,2022.1.3,Win32,60.3427468,62bbe60bf3d75ef465d3e404,0,5,5,155,1,twofour,,,,,,,,,,,,,,,,,,,,,,,,,,,,,,,,,,,,,,,,,,,,,,,,,,,,,,,,,,,,,,,,,,,,,,,,,,,,,,,,,,,,,,,,,,,,,,,,,,,,,,,,,,,,,,,,,,,,,,,,,,,,,,,,,,,,,,,,,,,,,,,,,,,,,,,,
,,,,,,5c0048442213be0001c2d579,62bbfa4c76c1b7c44c51f82f,2022-06-29_24h08.52.192,Colour_Asymmetry_Pilot,2022.1.3,Win32,60.3427468,62bbe60bf3d75ef465d3e404,0,6,6,51,1,twofour,,,,,,,,,,,,,,,,,,,,,,,,,,,,,,,,,,,,,,,,,,,,,,,,,,,,,,,,,,,,,,,,,,,,,,,,,,,,,,,,,,,,,,,,,,,,,,,,,,,,,,,,,,,,,,,,,,,,,,,,,,,,,,,,,,,,,,,,,,,,,,,,,,,,,,,,
,,,,,,5c0048442213be0001c2d579,62bbfa4c76c1b7c44c51f82f,2022-06-29_24h08.52.192,Colour_Asymmetry_Pilot,2022.1.3,Win32,60.3427468,62bbe60bf3d75ef465d3e404,0,7,7,23,1,fourthree,,,,,,,,,,,,,,,,,,,,,,,,,,,,,,,,,,,,,,,,,,,,,,,,,,,,,,,,,,,,,,,,,,,,,,,,,,,,,,,,,,,,,,,,,,,,,,,,,,,,,,,,,,,,,,,,,,,,,,,,,,,,,,,,,,,,,,,,,,,,,,,,,,,,,,,,
,,,,,,5c0048442213be0001c2d579,62bbfa4c76c1b7c44c51f82f,2022-06-29_24h08.52.192,Colour_Asymmetry_Pilot,2022.1.3,Win32,60.3427468,62bbe60bf3d75ef465d3e404,0,8,8,43,1,twofour,,,,,,,,,,,,,,,,,,,,,,,,,,,,,,,,,,,,,,,,,,,,,,,,,,,,,,,,,,,,,,,,,,,,,,,,,,,,,,,,,,,,,,,,,,,,,,,,,,,,,,,,,,,,,,,,,,,,,,,,,,,,,,,,,,,,,,,,,,,,,,,,,,,,,,,,
,,,,,,5c0048442213be0001c2d579,62bbfa4c76c1b7c44c51f82f,2022-06-29_24h08.52.192,Colour_Asymmetry_Pilot,2022.1.3,Win32,60.3427468,62bbe60bf3d75ef465d3e404,0,9,9,139,1,twofour,,,,,,,,,,,,,,,,,,,,,,,,,,,,,,,,,,,,,,,,,,,,,,,,,,,,,,,,,,,,,,,,,,,,,,,,,,,,,,,,,,,,,,,,,,,,,,,,,,,,,,,,,,,,,,,,,,,,,,,,,,,,,,,,,,,,,,,,,,,,,,,,,,,,,,,,
,,,,,,5c0048442213be0001c2d579,62bbfa4c76c1b7c44c51f82f,2022-06-29_24h08.52.192,Colour_Asymmetry_Pilot,2022.1.3,Win32,60.3427468,62bbe60bf3d75ef465d3e404,0,10,10,13,1,threefour,,,,,,,,,,,,,,,,,,,,,,,,,,,,,,,,,,,,,,,,,,,,,,,,,,,,,,,,,,,,,,,,,,,,,,,,,,,,,,,,,,,,,,,,,,,,,,,,,,,,,,,,,,,,,,,,,,,,,,,,,,,,,,,,,,,,,,,,,,,,,,,,,,,,,,,,
,,,,,,5c0048442213be0001c2d579,62bbfa4c76c1b7c44c51f82f,2022-06-29_24h08.52.192,Colour_Asymmetry_Pilot,2022.1.3,Win32,60.3427468,62bbe60bf3d75ef465d3e404,0,11,11,97,1,onethree,,,,,,,,,,,,,,,,,,,,,,,,,,,,,,,,,,,,,,,,,,,,,,,,,,,,,,,,,,,,,,,,,,,,,,,,,,,,,,,,,,,,,,,,,,,,,,,,,,,,,,,,,,,,,,,,,,,,,,,,,,,,,,,,,,,,,,,,,,,,,,,,,,,,,,,,
,,,,,,5c0048442213be0001c2d579,62bbfa4c76c1b7c44c51f82f,2022-06-29_24h08.52.192,Colour_Asymmetry_Pilot,2022.1.3,Win32,60.3427468,62bbe60bf3d75ef465d3e404,0,12,12,73,1,onethree,,,,,,,,,,,,,,,,,,,,,,,,,,,,,,,,,,,,,,,,,,,,,,,,,,,,,,,,,,,,,,,,,,,,,,,,,,,,,,,,,,,,,,,,,,,,,,,,,,,,,,,,,,,,,,,,,,,,,,,,,,,,,,,,,,,,,,,,,,,,,,,,,,,,,,,,
,,,,,,5c0048442213be0001c2d579,62bbfa4c76c1b7c44c51f82f,2022-06-29_24h08.52.192,Colour_Asymmetry_Pilot,2022.1.3,Win32,60.3427468,62bbe60bf3d75ef465d3e404,0,13,13,132,1,threeone,,,,,,,,,,,,,,,,,,,,,,,,,,,,,,,,,,,,,,,,,,,,,,,,,,,,,,,,,,,,,,,,,,,,,,,,,,,,,,,,,,,,,,,,,,,,,,,,,,,,,,,,,,,,,,,,,,,,,,,,,,,,,,,,,,,,,,,,,,,,,,,,,,,,,,,,
,,,,,,5c0048442213be0001c2d579,62bbfa4c76c1b7c44c51f82f,2022-06-29_24h08.52.192,Colour_Asymmetry_Pilot,2022.1.3,Win32,60.3427468,62bbe60bf3d75ef465d3e404,0,14,14,64,1,onetwo,,,,,,,,,,,,,,,,,,,,,,,,,,,,,,,,,,,,,,,,,,,,,,,,,,,,,,,,,,,,,,,,,,,,,,,,,,,,,,,,,,,,,,,,,,,,,,,,,,,,,,,,,,,,,,,,,,,,,,,,,,,,,,,,,,,,,,,,,,,,,,,,,,,,,,,,
,,,,,,5c0048442213be0001c2d579,62bbfa4c76c1b7c44c51f82f,2022-06-29_24h08.52.192,Colour_Asymmetry_Pilot,2022.1.3,Win32,60.3427468,62bbe60bf3d75ef465d3e404,0,15,15,103,1,fourthree,,,,,,,,,,,,,,,,,,,,,,,,,,,,,,,,,,,,,,,,,,,,,,,,,,,,,,,,,,,,,,,,,,,,,,,,,,,,,,,,,,,,,,,,,,,,,,,,,,,,,,,,,,,,,,,,,,,,,,,,,,,,,,,,,,,,,,,,,,,,,,,,,,,,,,,,
,,,,,,5c0048442213be0001c2d579,62bbfa4c76c1b7c44c51f82f,2022-06-29_24h08.52.192,Colour_Asymmetry_Pilot,2022.1.3,Win32,60.3427468,62bbe60bf3d75ef465d3e404,0,16,16,49,1,onethree,,,,,,,,,,,,,,,,,,,,,,,,,,,,,,,,,,,,,,,,,,,,,,,,,,,,,,,,,,,,,,,,,,,,,,,,,,,,,,,,,,,,,,,,,,,,,,,,,,,,,,,,,,,,,,,,,,,,,,,,,,,,,,,,,,,,,,,,,,,,,,,,,,,,,,,,
,,,,,,5c0048442213be0001c2d579,62bbfa4c76c1b7c44c51f82f,2022-06-29_24h08.52.192,Colour_Asymmetry_Pilot,2022.1.3,Win32,60.3427468,62bbe60bf3d75ef465d3e404,0,17,17,56,1,onetwo,,,,,,,,,,,,,,,,,,,,,,,,,,,,,,,,,,,,,,,,,,,,,,,,,,,,,,,,,,,,,,,,,,,,,,,,,,,,,,,,,,,,,,,,,,,,,,,,,,,,,,,,,,,,,,,,,,,,,,,,,,,,,,,,,,,,,,,,,,,,,,,,,,,,,,,,
,,,,,,5c0048442213be0001c2d579,62bbfa4c76c1b7c44c51f82f,2022-06-29_24h08.52.192,Colour_Asymmetry_Pilot,2022.1.3,Win32,60.3427468,62bbe60bf3d75ef465d3e404,0,18,18,46,1,fourtwo,,,,,,,,,,,,,,,,,,,,,,,,,,,,,,,,,,,,,,,,,,,,,,,,,,,,,,,,,,,,,,,,,,,,,,,,,,,,,,,,,,,,,,,,,,,,,,,,,,,,,,,,,,,,,,,,,,,,,,,,,,,,,,,,,,,,,,,,,,,,,,,,,,,,,,,,
,,,,,,5c0048442213be0001c2d579,62bbfa4c76c1b7c44c51f82f,2022-06-29_24h08.52.192,Colour_Asymmetry_Pilot,2022.1.3,Win32,60.3427468,62bbe60bf3d75ef465d3e404,0,19,19,95,1,fourthree,,,,,,,,,,,,,,,,,,,,,,,,,,,,,,,,,,,,,,,,,,,,,,,,,,,,,,,,,,,,,,,,,,,,,,,,,,,,,,,,,,,,,,,,,,,,,,,,,,,,,,,,,,,,,,,,,,,,,,,,,,,,,,,,,,,,,,,,,,,,,,,,,,,,,,,,
,,,,,,5c0048442213be0001c2d579,62bbfa4c76c1b7c44c51f82f,2022-06-29_24h08.52.192,Colour_Asymmetry_Pilot,2022.1.3,Win32,60.3427468,62bbe60bf3d75ef465d3e404,0,20,20,153,1,onethree,,,,,,,,,,,,,,,,,,,,,,,,,,,,,,,,,,,,,,,,,,,,,,,,,,,,,,,,,,,,,,,,,,,,,,,,,,,,,,,,,,,,,,,,,,,,,,,,,,,,,,,,,,,,,,,,,,,,,,,,,,,,,,,,,,,,,,,,,,,,,,,,,,,,,,,,
,,,,,,5c0048442213be0001c2d579,62bbfa4c76c1b7c44c51f82f,2022-06-29_24h08.52.192,Colour_Asymmetry_Pilot,2022.1.3,Win32,60.3427468,62bbe60bf3d75ef465d3e404,0,21,21,7,1,fourthree,,,,,,,,,,,,,,,,,,,,,,,,,,,,,,,,,,,,,,,,,,,,,,,,,,,,,,,,,,,,,,,,,,,,,,,,,,,,,,,,,,,,,,,,,,,,,,,,,,,,,,,,,,,,,,,,,,,,,,,,,,,,,,,,,,,,,,,,,,,,,,,,,,,,,,,,
,,,,,,5c0048442213be0001c2d579,62bbfa4c76c1b7c44c51f82f,2022-06-29_24h08.52.192,Colour_Asymmetry_Pilot,2022.1.3,Win32,60.3427468,62bbe60bf3d75ef465d3e404,0,22,22,121,1,onethree,,,,,,,,,,,,,,,,,,,,,,,,,,,,,,,,,,,,,,,,,,,,,,,,,,,,,,,,,,,,,,,,,,,,,,,,,,,,,,,,,,,,,,,,,,,,,,,,,,,,,,,,,,,,,,,,,,,,,,,,,,,,,,,,,,,,,,,,,,,,,,,,,,,,,,,,
,,,,,,5c0048442213be0001c2d579,62bbfa4c76c1b7c44c51f82f,2022-06-29_24h08.52.192,Colour_Asymmetry_Pilot,2022.1.3,Win32,60.3427468,62bbe60bf3d75ef465d3e404,0,23,23,156,1,threeone,,,,,,,,,,,,,,,,,,,,,,,,,,,,,,,,,,,,,,,,,,,,,,,,,,,,,,,,,,,,,,,,,,,,,,,,,,,,,,,,,,,,,,,,,,,,,,,,,,,,,,,,,,,,,,,,,,,,,,,,,,,,,,,,,,,,,,,,,,,,,,,,,,,,,,,,
,,,,,,5c0048442213be0001c2d579,62bbfa4c76c1b7c44c51f82f,2022-06-29_24h08.52.192,Colour_Asymmetry_Pilot,2022.1.3,Win32,60.3427468,62bbe60bf3d75ef465d3e404,0,24,24,125,1,threefour,,,,,,,,,,,,,,,,,,,,,,,,,,,,,,,,,,,,,,,,,,,,,,,,,,,,,,,,,,,,,,,,,,,,,,,,,,,,,,,,,,,,,,,,,,,,,,,,,,,,,,,,,,,,,,,,,,,,,,,,,,,,,,,,,,,,,,,,,,,,,,,,,,,,,,,,
,,,,,,5c0048442213be0001c2d579,62bbfa4c76c1b7c44c51f82f,2022-06-29_24h08.52.192,Colour_Asymmetry_Pilot,2022.1.3,Win32,60.3427468,62bbe60bf3d75ef465d3e404,0,25,25,87,1,fourthree,,,,,,,,,,,,,,,,,,,,,,,,,,,,,,,,,,,,,,,,,,,,,,,,,,,,,,,,,,,,,,,,,,,,,,,,,,,,,,,,,,,,,,,,,,,,,,,,,,,,,,,,,,,,,,,,,,,,,,,,,,,,,,,,,,,,,,,,,,,,,,,,,,,,,,,,
,,,,,,5c0048442213be0001c2d579,62bbfa4c76c1b7c44c51f82f,2022-06-29_24h08.52.192,Colour_Asymmetry_Pilot,2022.1.3,Win32,60.3427468,62bbe60bf3d75ef465d3e404,0,26,26,115,1,twofour,,,,,,,,,,,,,,,,,,,,,,,,,,,,,,,,,,,,,,,,,,,,,,,,,,,,,,,,,,,,,,,,,,,,,,,,,,,,,,,,,,,,,,,,,,,,,,,,,,,,,,,,,,,,,,,,,,,,,,,,,,,,,,,,,,,,,,,,,,,,,,,,,,,,,,,,
,,,,,,5c0048442213be0001c2d579,62bbfa4c76c1b7c44c51f82f,2022-06-29_24h08.52.192,Colour_Asymmetry_Pilot,2022.1.3,Win32,60.3427468,62bbe60bf3d75ef465d3e404,0,27,27,40,1,onetwo,,,,,,,,,,,,,,,,,,,,,,,,,,,,,,,,,,,,,,,,,,,,,,,,,,,,,,,,,,,,,,,,,,,,,,,,,,,,,,,,,,,,,,,,,,,,,,,,,,,,,,,,,,,,,,,,,,,,,,,,,,,,,,,,,,,,,,,,,,,,,,,,,,,,,,,,
,,,,,,5c0048442213be0001c2d579,62bbfa4c76c1b7c44c51f82f,2022-06-29_24h08.52.192,Colour_Asymmetry_Pilot,2022.1.3,Win32,60.3427468,62bbe60bf3d75ef465d3e404,0,28,28,48,1,onetwo,,,,,,,,,,,,,,,,,,,,,,,,,,,,,,,,,,,,,,,,,,,,,,,,,,,,,,,,,,,,,,,,,,,,,,,,,,,,,,,,,,,,,,,,,,,,,,,,,,,,,,,,,,,,,,,,,,,,,,,,,,,,,,,,,,,,,,,,,,,,,,,,,,,,,,,,
,,,,,,5c0048442213be0001c2d579,62bbfa4c76c1b7c44c51f82f,2022-06-29_24h08.52.192,Colour_Asymmetry_Pilot,2022.1.3,Win32,60.3427468,62bbe60bf3d75ef465d3e404,0,29,29,75,1,twofour,,,,,,,,,,,,,,,,,,,,,,,,,,,,,,,,,,,,,,,,,,,,,,,,,,,,,,,,,,,,,,,,,,,,,,,,,,,,,,,,,,,,,,,,,,,,,,,,,,,,,,,,,,,,,,,,,,,,,,,,,,,,,,,,,,,,,,,,,,,,,,,,,,,,,,,,
,,,,,,5c0048442213be0001c2d579,62bbfa4c76c1b7c44c51f82f,2022-06-29_24h08.52.192,Colour_Asymmetry_Pilot,2022.1.3,Win32,60.3427468,62bbe60bf3d75ef465d3e404,0,30,30,107,1,twofour,,,,,,,,,,,,,,,,,,,,,,,,,,,,,,,,,,,,,,,,,,,,,,,,,,,,,,,,,,,,,,,,,,,,,,,,,,,,,,,,,,,,,,,,,,,,,,,,,,,,,,,,,,,,,,,,,,,,,,,,,,,,,,,,,,,,,,,,,,,,,,,,,,,,,,,,
,,,,,,5c0048442213be0001c2d579,62bbfa4c76c1b7c44c51f82f,2022-06-29_24h08.52.192,Colour_Asymmetry_Pilot,2022.1.3,Win32,60.3427468,62bbe60bf3d75ef465d3e404,0,31,31,150,1,fourtwo,,,,,,,,,,,,,,,,,,,,,,,,,,,,,,,,,,,,,,,,,,,,,,,,,,,,,,,,,,,,,,,,,,,,,,,,,,,,,,,,,,,,,,,,,,,,,,,,,,,,,,,,,,,,,,,,,,,,,,,,,,,,,,,,,,,,,,,,,,,,,,,,,,,,,,,,
,,,,,,5c0048442213be0001c2d579,62bbfa4c76c1b7c44c51f82f,2022-06-29_24h08.52.192,Colour_Asymmetry_Pilot,2022.1.3,Win32,60.3427468,62bbe60bf3d75ef465d3e404,0,32,32,21,1,threefour,,,,,,,,,,,,,,,,,,,,,,,,,,,,,,,,,,,,,,,,,,,,,,,,,,,,,,,,,,,,,,,,,,,,,,,,,,,,,,,,,,,,,,,,,,,,,,,,,,,,,,,,,,,,,,,,,,,,,,,,,,,,,,,,,,,,,,,,,,,,,,,,,,,,,,,,
,,,,,,5c0048442213be0001c2d579,62bbfa4c76c1b7c44c51f82f,2022-06-29_24h08.52.192,Colour_Asymmetry_Pilot,2022.1.3,Win32,60.3427468,62bbe60bf3d75ef465d3e404,0,33,33,5,1,threefour,,,,,,,,,,,,,,,,,,,,,,,,,,,,,,,,,,,,,,,,,,,,,,,,,,,,,,,,,,,,,,,,,,,,,,,,,,,,,,,,,,,,,,,,,,,,,,,,,,,,,,,,,,,,,,,,,,,,,,,,,,,,,,,,,,,,,,,,,,,,,,,,,,,,,,,,
,,,,,,5c0048442213be0001c2d579,62bbfa4c76c1b7c44c51f82f,2022-06-29_24h08.52.192,Colour_Asymmetry_Pilot,2022.1.3,Win32,60.3427468,62bbe60bf3d75ef465d3e404,0,34,34,44,1,threeone,,,,,,,,,,,,,,,,,,,,,,,,,,,,,,,,,,,,,,,,,,,,,,,,,,,,,,,,,,,,,,,,,,,,,,,,,,,,,,,,,,,,,,,,,,,,,,,,,,,,,,,,,,,,,,,,,,,,,,,,,,,,,,,,,,,,,,,,,,,,,,,,,,,,,,,,
,,,,,,5c0048442213be0001c2d579,62bbfa4c76c1b7c44c51f82f,2022-06-29_24h08.52.192,Colour_Asymmetry_Pilot,2022.1.3,Win32,60.3427468,62bbe60bf3d75ef465d3e404,0,35,35,10,1,twoone,,,,,,,,,,,,,,,,,,,,,,,,,,,,,,,,,,,,,,,,,,,,,,,,,,,,,,,,,,,,,,,,,,,,,,,,,,,,,,,,,,,,,,,,,,,,,,,,,,,,,,,,,,,,,,,,,,,,,,,,,,,,,,,,,,,,,,,,,,,,,,,,,,,,,,,,
,,,,,,5c0048442213be0001c2d579,62bbfa4c76c1b7c44c51f82f,2022-06-29_24h08.52.192,Colour_Asymmetry_Pilot,2022.1.3,Win32,60.3427468,62bbe60bf3d75ef465d3e404,0,36,36,101,1,threefour,,,,,,,,,,,,,,,,,,,,,,,,,,,,,,,,,,,,,,,,,,,,,,,,,,,,,,,,,,,,,,,,,,,,,,,,,,,,,,,,,,,,,,,,,,,,,,,,,,,,,,,,,,,,,,,,,,,,,,,,,,,,,,,,,,,,,,,,,,,,,,,,,,,,,,,,
,,,,,,5c0048442213be0001c2d579,62bbfa4c76c1b7c44c51f82f,2022-06-29_24h08.52.192,Colour_Asymmetry_Pilot,2022.1.3,Win32,60.3427468,62bbe60bf3d75ef465d3e404,0,37,37,145,1,onethree,,,,,,,,,,,,,,,,,,,,,,,,,,,,,,,,,,,,,,,,,,,,,,,,,,,,,,,,,,,,,,,,,,,,,,,,,,,,,,,,,,,,,,,,,,,,,,,,,,,,,,,,,,,,,,,,,,,,,,,,,,,,,,,,,,,,,,,,,,,,,,,,,,,,,,,,
,,,,,,5c0048442213be0001c2d579,62bbfa4c76c1b7c44c51f82f,2022-06-29_24h08.52.192,Colour_Asymmetry_Pilot,2022.1.3,Win32,60.3427468,62bbe60bf3d75ef465d3e404,0,38,38,86,1,fourtwo,,,,,,,,,,,,,,,,,,,,,,,,,,,,,,,,,,,,,,,,,,,,,,,,,,,,,,,,,,,,,,,,,,,,,,,,,,,,,,,,,,,,,,,,,,,,,,,,,,,,,,,,,,,,,,,,,,,,,,,,,,,,,,,,,,,,,,,,,,,,,,,,,,,,,,,,
,,,,,,5c0048442213be0001c2d579,62bbfa4c76c1b7c44c51f82f,2022-06-29_24h08.52.192,Colour_Asymmetry_Pilot,2022.1.3,Win32,60.3427468,62bbe60bf3d75ef465d3e404,0,39,39,37,1,threefour,,,,,,,,,,,,,,,,,,,,,,,,,,,,,,,,,,,,,,,,,,,,,,,,,,,,,,,,,,,,,,,,,,,,,,,,,,,,,,,,,,,,,,,,,,,,,,,,,,,,,,,,,,,,,,,,,,,,,,,,,,,,,,,,,,,,,,,,,,,,,,,,,,,,,,,,
,,,,,,5c0048442213be0001c2d579,62bbfa4c76c1b7c44c51f82f,2022-06-29_24h08.52.192,Colour_Asymmetry_Pilot,2022.1.3,Win32,60.3427468,62bbe60bf3d75ef465d3e404,0,40,40,20,1,threeone,,,,,,,,,,,,,,,,,,,,,,,,,,,,,,,,,,,,,,,,,,,,,,,,,,,,,,,,,,,,,,,,,,,,,,,,,,,,,,,,,,,,,,,,,,,,,,,,,,,,,,,,,,,,,,,,,,,,,,,,,,,,,,,,,,,,,,,,,,,,,,,,,,,,,,,,
,,,,,,5c0048442213be0001c2d579,62bbfa4c76c1b7c44c51f82f,2022-06-29_24h08.52.192,Colour_Asymmetry_Pilot,2022.1.3,Win32,60.3427468,62bbe60bf3d75ef465d3e404,0,41,41,144,1,onetwo,,,,,,,,,,,,,,,,,,,,,,,,,,,,,,,,,,,,,,,,,,,,,,,,,,,,,,,,,,,,,,,,,,,,,,,,,,,,,,,,,,,,,,,,,,,,,,,,,,,,,,,,,,,,,,,,,,,,,,,,,,,,,,,,,,,,,,,,,,,,,,,,,,,,,,,,
,,,,,,5c0048442213be0001c2d579,62bbfa4c76c1b7c44c51f82f,2022-06-29_24h08.52.192,Colour_Asymmetry_Pilot,2022.1.3,Win32,60.3427468,62bbe60bf3d75ef465d3e404,0,42,42,11,1,twofour,,,,,,,,,,,,,,,,,,,,,,,,,,,,,,,,,,,,,,,,,,,,,,,,,,,,,,,,,,,,,,,,,,,,,,,,,,,,,,,,,,,,,,,,,,,,,,,,,,,,,,,,,,,,,,,,,,,,,,,,,,,,,,,,,,,,,,,,,,,,,,,,,,,,,,,,
,,,,,,5c0048442213be0001c2d579,62bbfa4c76c1b7c44c51f82f,2022-06-29_24h08.52.192,Colour_Asymmetry_Pilot,2022.1.3,Win32,60.3427468,62bbe60bf3d75ef465d3e404,0,43,43,147,1,twofour,,,,,,,,,,,,,,,,,,,,,,,,,,,,,,,,,,,,,,,,,,,,,,,,,,,,,,,,,,,,,,,,,,,,,,,,,,,,,,,,,,,,,,,,,,,,,,,,,,,,,,,,,,,,,,,,,,,,,,,,,,,,,,,,,,,,,,,,,,,,,,,,,,,,,,,,
,,,,,,5c0048442213be0001c2d579,62bbfa4c76c1b7c44c51f82f,2022-06-29_24h08.52.192,Colour_Asymmetry_Pilot,2022.1.3,Win32,60.3427468,62bbe60bf3d75ef465d3e404,0,44,44,29,1,threefour,,,,,,,,,,,,,,,,,,,,,,,,,,,,,,,,,,,,,,,,,,,,,,,,,,,,,,,,,,,,,,,,,,,,,,,,,,,,,,,,,,,,,,,,,,,,,,,,,,,,,,,,,,,,,,,,,,,,,,,,,,,,,,,,,,,,,,,,,,,,,,,,,,,,,,,,
,,,,,,5c0048442213be0001c2d579,62bbfa4c76c1b7c44c51f82f,2022-06-29_24h08.52.192,Colour_Asymmetry_Pilot,2022.1.3,Win32,60.3427468,62bbe60bf3d75ef465d3e404,0,45,45,32,1,onetwo,,,,,,,,,,,,,,,,,,,,,,,,,,,,,,,,,,,,,,,,,,,,,,,,,,,,,,,,,,,,,,,,,,,,,,,,,,,,,,,,,,,,,,,,,,,,,,,,,,,,,,,,,,,,,,,,,,,,,,,,,,,,,,,,,,,,,,,,,,,,,,,,,,,,,,,,
,,,,,,5c0048442213be0001c2d579,62bbfa4c76c1b7c44c51f82f,2022-06-29_24h08.52.192,Colour_Asymmetry_Pilot,2022.1.3,Win32,60.3427468,62bbe60bf3d75ef465d3e404,0,46,46,2,1,twoone,,,,,,,,,,,,,,,,,,,,,,,,,,,,,,,,,,,,,,,,,,,,,,,,,,,,,,,,,,,,,,,,,,,,,,,,,,,,,,,,,,,,,,,,,,,,,,,,,,,,,,,,,,,,,,,,,,,,,,,,,,,,,,,,,,,,,,,,,,,,,,,,,,,,,,,,
,,,,,,5c0048442213be0001c2d579,62bbfa4c76c1b7c44c51f82f,2022-06-29_24h08.52.192,Colour_Asymmetry_Pilot,2022.1.3,Win32,60.3427468,62bbe60bf3d75ef465d3e404,0,47,47,108,1,threeone,,,,,,,,,,,,,,,,,,,,,,,,,,,,,,,,,,,,,,,,,,,,,,,,,,,,,,,,,,,,,,,,,,,,,,,,,,,,,,,,,,,,,,,,,,,,,,,,,,,,,,,,,,,,,,,,,,,,,,,,,,,,,,,,,,,,,,,,,,,,,,,,,,,,,,,,
,,,,,,5c0048442213be0001c2d579,62bbfa4c76c1b7c44c51f82f,2022-06-29_24h08.52.192,Colour_Asymmetry_Pilot,2022.1.3,Win32,60.3427468,62bbe60bf3d75ef465d3e404,0,48,48,59,1,twofour,,,,,,,,,,,,,,,,,,,,,,,,,,,,,,,,,,,,,,,,,,,,,,,,,,,,,,,,,,,,,,,,,,,,,,,,,,,,,,,,,,,,,,,,,,,,,,,,,,,,,,,,,,,,,,,,,,,,,,,,,,,,,,,,,,,,,,,,,,,,,,,,,,,,,,,,
,,,,,,5c0048442213be0001c2d579,62bbfa4c76c1b7c44c51f82f,2022-06-29_24h08.52.192,Colour_Asymmetry_Pilot,2022.1.3,Win32,60.3427468,62bbe60bf3d75ef465d3e404,0,49,49,116,1,threeone,,,,,,,,,,,,,,,,,,,,,,,,,,,,,,,,,,,,,,,,,,,,,,,,,,,,,,,,,,,,,,,,,,,,,,,,,,,,,,,,,,,,,,,,,,,,,,,,,,,,,,,,,,,,,,,,,,,,,,,,,,,,,,,,,,,,,,,,,,,,,,,,,,,,,,,,
,,,,,,5c0048442213be0001c2d579,62bbfa4c76c1b7c44c51f82f,2022-06-29_24h08.52.192,Colour_Asymmetry_Pilot,2022.1.3,Win32,60.3427468,62bbe60bf3d75ef465d3e404,0,50,50,52,1,threeone,,,,,,,,,,,,,,,,,,,,,,,,,,,,,,,,,,,,,,,,,,,,,,,,,,,,,,,,,,,,,,,,,,,,,,,,,,,,,,,,,,,,,,,,,,,,,,,,,,,,,,,,,,,,,,,,,,,,,,,,,,,,,,,,,,,,,,,,,,,,,,,,,,,,,,,,
,,,,,,5c0048442213be0001c2d579,62bbfa4c76c1b7c44c51f82f,2022-06-29_24h08.52.192,Colour_Asymmetry_Pilot,2022.1.3,Win32,60.3427468,62bbe60bf3d75ef465d3e404,0,51,51,62,1,fourtwo,,,,,,,,,,,,,,,,,,,,,,,,,,,,,,,,,,,,,,,,,,,,,,,,,,,,,,,,,,,,,,,,,,,,,,,,,,,,,,,,,,,,,,,,,,,,,,,,,,,,,,,,,,,,,,,,,,,,,,,,,,,,,,,,,,,,,,,,,,,,,,,,,,,,,,,,
,,,,,,5c0048442213be0001c2d579,62bbfa4c76c1b7c44c51f82f,2022-06-29_24h08.52.192,Colour_Asymmetry_Pilot,2022.1.3,Win32,60.3427468,62bbe60bf3d75ef465d3e404,0,52,52,106,1,twoone,,,,,,,,,,,,,,,,,,,,,,,,,,,,,,,,,,,,,,,,,,,,,,,,,,,,,,,,,,,,,,,,,,,,,,,,,,,,,,,,,,,,,,,,,,,,,,,,,,,,,,,,,,,,,,,,,,,,,,,,,,,,,,,,,,,,,,,,,,,,,,,,,,,,,,,,
,,,,,,5c0048442213be0001c2d579,62bbfa4c76c1b7c44c51f82f,2022-06-29_24h08.52.192,Colour_Asymmetry_Pilot,2022.1.3,Win32,60.3427468,62bbe60bf3d75ef465d3e404,0,53,53,80,1,onetwo,,,,,,,,,,,,,,,,,,,,,,,,,,,,,,,,,,,,,,,,,,,,,,,,,,,,,,,,,,,,,,,,,,,,,,,,,,,,,,,,,,,,,,,,,,,,,,,,,,,,,,,,,,,,,,,,,,,,,,,,,,,,,,,,,,,,,,,,,,,,,,,,,,,,,,,,
,,,,,,5c0048442213be0001c2d579,62bbfa4c76c1b7c44c51f82f,2022-06-29_24h08.52.192,Colour_Asymmetry_Pilot,2022.1.3,Win32,60.3427468,62bbe60bf3d75ef465d3e404,0,54,54,1,1,onethree,,,,,,,,,,,,,,,,,,,,,,,,,,,,,,,,,,,,,,,,,,,,,,,,,,,,,,,,,,,,,,,,,,,,,,,,,,,,,,,,,,,,,,,,,,,,,,,,,,,,,,,,,,,,,,,,,,,,,,,,,,,,,,,,,,,,,,,,,,,,,,,,,,,,,,,,
,,,,,,5c0048442213be0001c2d579,62bbfa4c76c1b7c44c51f82f,2022-06-29_24h08.52.192,Colour_Asymmetry_Pilot,2022.1.3,Win32,60.3427468,62bbe60bf3d75ef465d3e404,0,55,55,12,1,threeone,,,,,,,,,,,,,,,,,,,,,,,,,,,,,,,,,,,,,,,,,,,,,,,,,,,,,,,,,,,,,,,,,,,,,,,,,,,,,,,,,,,,,,,,,,,,,,,,,,,,,,,,,,,,,,,,,,,,,,,,,,,,,,,,,,,,,,,,,,,,,,,,,,,,,,,,
,,,,,,5c0048442213be0001c2d579,62bbfa4c76c1b7c44c51f82f,2022-06-29_24h08.52.192,Colour_Asymmetry_Pilot,2022.1.3,Win32,60.3427468,62bbe60bf3d75ef465d3e404,0,56,56,127,1,fourthree,,,,,,,,,,,,,,,,,,,,,,,,,,,,,,,,,,,,,,,,,,,,,,,,,,,,,,,,,,,,,,,,,,,,,,,,,,,,,,,,,,,,,,,,,,,,,,,,,,,,,,,,,,,,,,,,,,,,,,,,,,,,,,,,,,,,,,,,,,,,,,,,,,,,,,,,
,,,,,,5c0048442213be0001c2d579,62bbfa4c76c1b7c44c51f82f,2022-06-29_24h08.52.192,Colour_Asymmetry_Pilot,2022.1.3,Win32,60.3427468,62bbe60bf3d75ef465d3e404,0,57,57,109,1,threefour,,,,,,,,,,,,,,,,,,,,,,,,,,,,,,,,,,,,,,,,,,,,,,,,,,,,,,,,,,,,,,,,,,,,,,,,,,,,,,,,,,,,,,,,,,,,,,,,,,,,,,,,,,,,,,,,,,,,,,,,,,,,,,,,,,,,,,,,,,,,,,,,,,,,,,,,
,,,,,,5c0048442213be0001c2d579,62bbfa4c76c1b7c44c51f82f,2022-06-29_24h08.52.192,Colour_Asymmetry_Pilot,2022.1.3,Win32,60.3427468,62bbe60bf3d75ef465d3e404,0,58,58,31,1,fourthree,,,,,,,,,,,,,,,,,,,,,,,,,,,,,,,,,,,,,,,,,,,,,,,,,,,,,,,,,,,,,,,,,,,,,,,,,,,,,,,,,,,,,,,,,,,,,,,,,,,,,,,,,,,,,,,,,,,,,,,,,,,,,,,,,,,,,,,,,,,,,,,,,,,,,,,,
,,,,,,5c0048442213be0001c2d579,62bbfa4c76c1b7c44c51f82f,2022-06-29_24h08.52.192,Colour_Asymmetry_Pilot,2022.1.3,Win32,60.3427468,62bbe60bf3d75ef465d3e404,0,59,59,72,1,onetwo,,,,,,,,,,,,,,,,,,,,,,,,,,,,,,,,,,,,,,,,,,,,,,,,,,,,,,,,,,,,,,,,,,,,,,,,,,,,,,,,,,,,,,,,,,,,,,,,,,,,,,,,,,,,,,,,,,,,,,,,,,,,,,,,,,,,,,,,,,,,,,,,,,,,,,,,
,,,,,,5c0048442213be0001c2d579,62bbfa4c76c1b7c44c51f82f,2022-06-29_24h08.52.192,Colour_Asymmetry_Pilot,2022.1.3,Win32,60.3427468,62bbe60bf3d75ef465d3e404,0,60,60,119,1,fourthree,,,,,,,,,,,,,,,,,,,,,,,,,,,,,,,,,,,,,,,,,,,,,,,,,,,,,,,,,,,,,,,,,,,,,,,,,,,,,,,,,,,,,,,,,,,,,,,,,,,,,,,,,,,,,,,,,,,,,,,,,,,,,,,,,,,,,,,,,,,,,,,,,,,,,,,,
,,,,,,5c0048442213be0001c2d579,62bbfa4c76c1b7c44c51f82f,2022-06-29_24h08.52.192,Colour_Asymmetry_Pilot,2022.1.3,Win32,60.3427468,62bbe60bf3d75ef465d3e404,0,61,61,35,1,twofour,,,,,,,,,,,,,,,,,,,,,,,,,,,,,,,,,,,,,,,,,,,,,,,,,,,,,,,,,,,,,,,,,,,,,,,,,,,,,,,,,,,,,,,,,,,,,,,,,,,,,,,,,,,,,,,,,,,,,,,,,,,,,,,,,,,,,,,,,,,,,,,,,,,,,,,,
,,,,,,5c0048442213be0001c2d579,62bbfa4c76c1b7c44c51f82f,2022-06-29_24h08.52.192,Colour_Asymmetry_Pilot,2022.1.3,Win32,60.3427468,62bbe60bf3d75ef465d3e404,0,62,62,71,1,fourthree,,,,,,,,,,,,,,,,,,,,,,,,,,,,,,,,,,,,,,,,,,,,,,,,,,,,,,,,,,,,,,,,,,,,,,,,,,,,,,,,,,,,,,,,,,,,,,,,,,,,,,,,,,,,,,,,,,,,,,,,,,,,,,,,,,,,,,,,,,,,,,,,,,,,,,,,
,,,,,,5c0048442213be0001c2d579,62bbfa4c76c1b7c44c51f82f,2022-06-29_24h08.52.192,Colour_Asymmetry_Pilot,2022.1.3,Win32,60.3427468,62bbe60bf3d75ef465d3e404,0,63,63,143,1,fourthree,,,,,,,,,,,,,,,,,,,,,,,,,,,,,,,,,,,,,,,,,,,,,,,,,,,,,,,,,,,,,,,,,,,,,,,,,,,,,,,,,,,,,,,,,,,,,,,,,,,,,,,,,,,,,,,,,,,,,,,,,,,,,,,,,,,,,,,,,,,,,,,,,,,,,,,,
,,,,,,5c0048442213be0001c2d579,62bbfa4c76c1b7c44c51f82f,2022-06-29_24h08.52.192,Colour_Asymmetry_Pilot,2022.1.3,Win32,60.3427468,62bbe60bf3d75ef465d3e404,0,64,64,138,1,twoone,,,,,,,,,,,,,,,,,,,,,,,,,,,,,,,,,,,,,,,,,,,,,,,,,,,,,,,,,,,,,,,,,,,,,,,,,,,,,,,,,,,,,,,,,,,,,,,,,,,,,,,,,,,,,,,,,,,,,,,,,,,,,,,,,,,,,,,,,,,,,,,,,,,,,,,,
,,,,,,5c0048442213be0001c2d579,62bbfa4c76c1b7c44c51f82f,2022-06-29_24h08.52.192,Colour_Asymmetry_Pilot,2022.1.3,Win32,60.3427468,62bbe60bf3d75ef465d3e404,0,65,65,151,1,fourthree,,,,,,,,,,,,,,,,,,,,,,,,,,,,,,,,,,,,,,,,,,,,,,,,,,,,,,,,,,,,,,,,,,,,,,,,,,,,,,,,,,,,,,,,,,,,,,,,,,,,,,,,,,,,,,,,,,,,,,,,,,,,,,,,,,,,,,,,,,,,,,,,,,,,,,,,
,,,,,,5c0048442213be0001c2d579,62bbfa4c76c1b7c44c51f82f,2022-06-29_24h08.52.192,Colour_Asymmetry_Pilot,2022.1.3,Win32,60.3427468,62bbe60bf3d75ef465d3e404,0,66,66,94,1,fourtwo,,,,,,,,,,,,,,,,,,,,,,,,,,,,,,,,,,,,,,,,,,,,,,,,,,,,,,,,,,,,,,,,,,,,,,,,,,,,,,,,,,,,,,,,,,,,,,,,,,,,,,,,,,,,,,,,,,,,,,,,,,,,,,,,,,,,,,,,,,,,,,,,,,,,,,,,
,,,,,,5c0048442213be0001c2d579,62bbfa4c76c1b7c44c51f82f,2022-06-29_24h08.52.192,Colour_Asymmetry_Pilot,2022.1.3,Win32,60.3427468,62bbe60bf3d75ef465d3e404,0,67,67,0,1,onetwo,,,,,,,,,,,,,,,,,,,,,,,,,,,,,,,,,,,,,,,,,,,,,,,,,,,,,,,,,,,,,,,,,,,,,,,,,,,,,,,,,,,,,,,,,,,,,,,,,,,,,,,,,,,,,,,,,,,,,,,,,,,,,,,,,,,,,,,,,,,,,,,,,,,,,,,,
,,,,,,5c0048442213be0001c2d579,62bbfa4c76c1b7c44c51f82f,2022-06-29_24h08.52.192,Colour_Asymmetry_Pilot,2022.1.3,Win32,60.3427468,62bbe60bf3d75ef465d3e404,0,68,68,98,1,twoone,,,,,,,,,,,,,,,,,,,,,,,,,,,,,,,,,,,,,,,,,,,,,,,,,,,,,,,,,,,,,,,,,,,,,,,,,,,,,,,,,,,,,,,,,,,,,,,,,,,,,,,,,,,,,,,,,,,,,,,,,,,,,,,,,,,,,,,,,,,,,,,,,,,,,,,,
,,,,,,5c0048442213be0001c2d579,62bbfa4c76c1b7c44c51f82f,2022-06-29_24h08.52.192,Colour_Asymmetry_Pilot,2022.1.3,Win32,60.3427468,62bbe60bf3d75ef465d3e404,0,69,69,78,1,fourtwo,,,,,,,,,,,,,,,,,,,,,,,,,,,,,,,,,,,,,,,,,,,,,,,,,,,,,,,,,,,,,,,,,,,,,,,,,,,,,,,,,,,,,,,,,,,,,,,,,,,,,,,,,,,,,,,,,,,,,,,,,,,,,,,,,,,,,,,,,,,,,,,,,,,,,,,,
,,,,,,5c0048442213be0001c2d579,62bbfa4c76c1b7c44c51f82f,2022-06-29_24h08.52.192,Colour_Asymmetry_Pilot,2022.1.3,Win32,60.3427468,62bbe60bf3d75ef465d3e404,0,70,70,89,1,onethree,,,,,,,,,,,,,,,,,,,,,,,,,,,,,,,,,,,,,,,,,,,,,,,,,,,,,,,,,,,,,,,,,,,,,,,,,,,,,,,,,,,,,,,,,,,,,,,,,,,,,,,,,,,,,,,,,,,,,,,,,,,,,,,,,,,,,,,,,,,,,,,,,,,,,,,,
,,,,,,5c0048442213be0001c2d579,62bbfa4c76c1b7c44c51f82f,2022-06-29_24h08.52.192,Colour_Asymmetry_Pilot,2022.1.3,Win32,60.3427468,62bbe60bf3d75ef465d3e404,0,71,71,122,1,twoone,,,,,,,,,,,,,,,,,,,,,,,,,,,,,,,,,,,,,,,,,,,,,,,,,,,,,,,,,,,,,,,,,,,,,,,,,,,,,,,,,,,,,,,,,,,,,,,,,,,,,,,,,,,,,,,,,,,,,,,,,,,,,,,,,,,,,,,,,,,,,,,,,,,,,,,,
,,,,,,5c0048442213be0001c2d579,62bbfa4c76c1b7c44c51f82f,2022-06-29_24h08.52.192,Colour_Asymmetry_Pilot,2022.1.3,Win32,60.3427468,62bbe60bf3d75ef465d3e404,0,72,72,55,1,fourthree,,,,,,,,,,,,,,,,,,,,,,,,,,,,,,,,,,,,,,,,,,,,,,,,,,,,,,,,,,,,,,,,,,,,,,,,,,,,,,,,,,,,,,,,,,,,,,,,,,,,,,,,,,,,,,,,,,,,,,,,,,,,,,,,,,,,,,,,,,,,,,,,,,,,,,,,
,,,,,,5c0048442213be0001c2d579,62bbfa4c76c1b7c44c51f82f,2022-06-29_24h08.52.192,Colour_Asymmetry_Pilot,2022.1.3,Win32,60.3427468,62bbe60bf3d75ef465d3e404,0,73,73,28,1,threeone,,,,,,,,,,,,,,,,,,,,,,,,,,,,,,,,,,,,,,,,,,,,,,,,,,,,,,,,,,,,,,,,,,,,,,,,,,,,,,,,,,,,,,,,,,,,,,,,,,,,,,,,,,,,,,,,,,,,,,,,,,,,,,,,,,,,,,,,,,,,,,,,,,,,,,,,
,,,,,,5c0048442213be0001c2d579,62bbfa4c76c1b7c44c51f82f,2022-06-29_24h08.52.192,Colour_Asymmetry_Pilot,2022.1.3,Win32,60.3427468,62bbe60bf3d75ef465d3e404,0,74,74,45,1,threefour,,,,,,,,,,,,,,,,,,,,,,,,,,,,,,,,,,,,,,,,,,,,,,,,,,,,,,,,,,,,,,,,,,,,,,,,,,,,,,,,,,,,,,,,,,,,,,,,,,,,,,,,,,,,,,,,,,,,,,,,,,,,,,,,,,,,,,,,,,,,,,,,,,,,,,,,
,,,,,,5c0048442213be0001c2d579,62bbfa4c76c1b7c44c51f82f,2022-06-29_24h08.52.192,Colour_Asymmetry_Pilot,2022.1.3,Win32,60.3427468,62bbe60bf3d75ef465d3e404,0,75,75,114,1,twoone,,,,,,,,,,,,,,,,,,,,,,,,,,,,,,,,,,,,,,,,,,,,,,,,,,,,,,,,,,,,,,,,,,,,,,,,,,,,,,,,,,,,,,,,,,,,,,,,,,,,,,,,,,,,,,,,,,,,,,,,,,,,,,,,,,,,,,,,,,,,,,,,,,,,,,,,
,,,,,,5c0048442213be0001c2d579,62bbfa4c76c1b7c44c51f82f,2022-06-29_24h08.52.192,Colour_Asymmetry_Pilot,2022.1.3,Win32,60.3427468,62bbe60bf3d75ef465d3e404,0,76,76,92,1,threeone,,,,,,,,,,,,,,,,,,,,,,,,,,,,,,,,,,,,,,,,,,,,,,,,,,,,,,,,,,,,,,,,,,,,,,,,,,,,,,,,,,,,,,,,,,,,,,,,,,,,,,,,,,,,,,,,,,,,,,,,,,,,,,,,,,,,,,,,,,,,,,,,,,,,,,,,
,,,,,,5c0048442213be0001c2d579,62bbfa4c76c1b7c44c51f82f,2022-06-29_24h08.52.192,Colour_Asymmetry_Pilot,2022.1.3,Win32,60.3427468,62bbe60bf3d75ef465d3e404,0,77,77,58,1,twoone,,,,,,,,,,,,,,,,,,,,,,,,,,,,,,,,,,,,,,,,,,,,,,,,,,,,,,,,,,,,,,,,,,,,,,,,,,,,,,,,,,,,,,,,,,,,,,,,,,,,,,,,,,,,,,,,,,,,,,,,,,,,,,,,,,,,,,,,,,,,,,,,,,,,,,,,
,,,,,,5c0048442213be0001c2d579,62bbfa4c76c1b7c44c51f82f,2022-06-29_24h08.52.192,Colour_Asymmetry_Pilot,2022.1.3,Win32,60.3427468,62bbe60bf3d75ef465d3e404,0,78,78,66,1,twoone,,,,,,,,,,,,,,,,,,,,,,,,,,,,,,,,,,,,,,,,,,,,,,,,,,,,,,,,,,,,,,,,,,,,,,,,,,,,,,,,,,,,,,,,,,,,,,,,,,,,,,,,,,,,,,,,,,,,,,,,,,,,,,,,,,,,,,,,,,,,,,,,,,,,,,,,
,,,,,,5c0048442213be0001c2d579,62bbfa4c76c1b7c44c51f82f,2022-06-29_24h08.52.192,Colour_Asymmetry_Pilot,2022.1.3,Win32,60.3427468,62bbe60bf3d75ef465d3e404,0,79,79,38,1,fourtwo,,,,,,,,,,,,,,,,,,,,,,,,,,,,,,,,,,,,,,,,,,,,,,,,,,,,,,,,,,,,,,,,,,,,,,,,,,,,,,,,,,,,,,,,,,,,,,,,,,,,,,,,,,,,,,,,,,,,,,,,,,,,,,,,,,,,,,,,,,,,,,,,,,,,,,,,
,,,,,,5c0048442213be0001c2d579,62bbfa4c76c1b7c44c51f82f,2022-06-29_24h08.52.192,Colour_Asymmetry_Pilot,2022.1.3,Win32,60.3427468,62bbe60bf3d75ef465d3e404,0,80,80,110,1,fourtwo,,,,,,,,,,,,,,,,,,,,,,,,,,,,,,,,,,,,,,,,,,,,,,,,,,,,,,,,,,,,,,,,,,,,,,,,,,,,,,,,,,,,,,,,,,,,,,,,,,,,,,,,,,,,,,,,,,,,,,,,,,,,,,,,,,,,,,,,,,,,,,,,,,,,,,,,
,,,,,,5c0048442213be0001c2d579,62bbfa4c76c1b7c44c51f82f,2022-06-29_24h08.52.192,Colour_Asymmetry_Pilot,2022.1.3,Win32,60.3427468,62bbe60bf3d75ef465d3e404,0,81,81,82,1,twoone,,,,,,,,,,,,,,,,,,,,,,,,,,,,,,,,,,,,,,,,,,,,,,,,,,,,,,,,,,,,,,,,,,,,,,,,,,,,,,,,,,,,,,,,,,,,,,,,,,,,,,,,,,,,,,,,,,,,,,,,,,,,,,,,,,,,,,,,,,,,,,,,,,,,,,,,
,,,,,,5c0048442213be0001c2d579,62bbfa4c76c1b7c44c51f82f,2022-06-29_24h08.52.192,Colour_Asymmetry_Pilot,2022.1.3,Win32,60.3427468,62bbe60bf3d75ef465d3e404,0,82,82,61,1,threefour,,,,,,,,,,,,,,,,,,,,,,,,,,,,,,,,,,,,,,,,,,,,,,,,,,,,,,,,,,,,,,,,,,,,,,,,,,,,,,,,,,,,,,,,,,,,,,,,,,,,,,,,,,,,,,,,,,,,,,,,,,,,,,,,,,,,,,,,,,,,,,,,,,,,,,,,
,,,,,,5c0048442213be0001c2d579,62bbfa4c76c1b7c44c51f82f,2022-06-29_24h08.52.192,Colour_Asymmetry_Pilot,2022.1.3,Win32,60.3427468,62bbe60bf3d75ef465d3e404,0,83,83,83,1,twofour,,,,,,,,,,,,,,,,,,,,,,,,,,,,,,,,,,,,,,,,,,,,,,,,,,,,,,,,,,,,,,,,,,,,,,,,,,,,,,,,,,,,,,,,,,,,,,,,,,,,,,,,,,,,,,,,,,,,,,,,,,,,,,,,,,,,,,,,,,,,,,,,,,,,,,,,
,,,,,,5c0048442213be0001c2d579,62bbfa4c76c1b7c44c51f82f,2022-06-29_24h08.52.192,Colour_Asymmetry_Pilot,2022.1.3,Win32,60.3427468,62bbe60bf3d75ef465d3e404,0,84,84,25,1,onethree,,,,,,,,,,,,,,,,,,,,,,,,,,,,,,,,,,,,,,,,,,,,,,,,,,,,,,,,,,,,,,,,,,,,,,,,,,,,,,,,,,,,,,,,,,,,,,,,,,,,,,,,,,,,,,,,,,,,,,,,,,,,,,,,,,,,,,,,,,,,,,,,,,,,,,,,
,,,,,,5c0048442213be0001c2d579,62bbfa4c76c1b7c44c51f82f,2022-06-29_24h08.52.192,Colour_Asymmetry_Pilot,2022.1.3,Win32,60.3427468,62bbe60bf3d75ef465d3e404,0,85,85,152,1,onetwo,,,,,,,,,,,,,,,,,,,,,,,,,,,,,,,,,,,,,,,,,,,,,,,,,,,,,,,,,,,,,,,,,,,,,,,,,,,,,,,,,,,,,,,,,,,,,,,,,,,,,,,,,,,,,,,,,,,,,,,,,,,,,,,,,,,,,,,,,,,,,,,,,,,,,,,,
,,,,,,5c0048442213be0001c2d579,62bbfa4c76c1b7c44c51f82f,2022-06-29_24h08.52.192,Colour_Asymmetry_Pilot,2022.1.3,Win32,60.3427468,62bbe60bf3d75ef465d3e404,0,86,86,41,1,onethree,,,,,,,,,,,,,,,,,,,,,,,,,,,,,,,,,,,,,,,,,,,,,,,,,,,,,,,,,,,,,,,,,,,,,,,,,,,,,,,,,,,,,,,,,,,,,,,,,,,,,,,,,,,,,,,,,,,,,,,,,,,,,,,,,,,,,,,,,,,,,,,,,,,,,,,,
,,,,,,5c0048442213be0001c2d579,62bbfa4c76c1b7c44c51f82f,2022-06-29_24h08.52.192,Colour_Asymmetry_Pilot,2022.1.3,Win32,60.3427468,62bbe60bf3d75ef465d3e404,0,87,87,9,1,onethree,,,,,,,,,,,,,,,,,,,,,,,,,,,,,,,,,,,,,,,,,,,,,,,,,,,,,,,,,,,,,,,,,,,,,,,,,,,,,,,,,,,,,,,,,,,,,,,,,,,,,,,,,,,,,,,,,,,,,,,,,,,,,,,,,,,,,,,,,,,,,,,,,,,,,,,,
,,,,,,5c0048442213be0001c2d579,62bbfa4c76c1b7c44c51f82f,2022-06-29_24h08.52.192,Colour_Asymmetry_Pilot,2022.1.3,Win32,60.3427468,62bbe60bf3d75ef465d3e404,0,88,88,34,1,twoone,,,,,,,,,,,,,,,,,,,,,,,,,,,,,,,,,,,,,,,,,,,,,,,,,,,,,,,,,,,,,,,,,,,,,,,,,,,,,,,,,,,,,,,,,,,,,,,,,,,,,,,,,,,,,,,,,,,,,,,,,,,,,,,,,,,,,,,,,,,,,,,,,,,,,,,,
,,,,,,5c0048442213be0001c2d579,62bbfa4c76c1b7c44c51f82f,2022-06-29_24h08.52.192,Colour_Asymmetry_Pilot,2022.1.3,Win32,60.3427468,62bbe60bf3d75ef465d3e404,0,89,89,76,1,threeone,,,,,,,,,,,,,,,,,,,,,,,,,,,,,,,,,,,,,,,,,,,,,,,,,,,,,,,,,,,,,,,,,,,,,,,,,,,,,,,,,,,,,,,,,,,,,,,,,,,,,,,,,,,,,,,,,,,,,,,,,,,,,,,,,,,,,,,,,,,,,,,,,,,,,,,,
,,,,,,5c0048442213be0001c2d579,62bbfa4c76c1b7c44c51f82f,2022-06-29_24h08.52.192,Colour_Asymmetry_Pilot,2022.1.3,Win32,60.3427468,62bbe60bf3d75ef465d3e404,0,90,90,99,1,twofour,,,,,,,,,,,,,,,,,,,,,,,,,,,,,,,,,,,,,,,,,,,,,,,,,,,,,,,,,,,,,,,,,,,,,,,,,,,,,,,,,,,,,,,,,,,,,,,,,,,,,,,,,,,,,,,,,,,,,,,,,,,,,,,,,,,,,,,,,,,,,,,,,,,,,,,,
,,,,,,5c0048442213be0001c2d579,62bbfa4c76c1b7c44c51f82f,2022-06-29_24h08.52.192,Colour_Asymmetry_Pilot,2022.1.3,Win32,60.3427468,62bbe60bf3d75ef465d3e404,0,91,91,158,1,fourtwo,,,,,,,,,,,,,,,,,,,,,,,,,,,,,,,,,,,,,,,,,,,,,,,,,,,,,,,,,,,,,,,,,,,,,,,,,,,,,,,,,,,,,,,,,,,,,,,,,,,,,,,,,,,,,,,,,,,,,,,,,,,,,,,,,,,,,,,,,,,,,,,,,,,,,,,,
,,,,,,5c0048442213be0001c2d579,62bbfa4c76c1b7c44c51f82f,2022-06-29_24h08.52.192,Colour_Asymmetry_Pilot,2022.1.3,Win32,60.3427468,62bbe60bf3d75ef465d3e404,0,92,92,24,1,onetwo,,,,,,,,,,,,,,,,,,,,,,,,,,,,,,,,,,,,,,,,,,,,,,,,,,,,,,,,,,,,,,,,,,,,,,,,,,,,,,,,,,,,,,,,,,,,,,,,,,,,,,,,,,,,,,,,,,,,,,,,,,,,,,,,,,,,,,,,,,,,,,,,,,,,,,,,
,,,,,,5c0048442213be0001c2d579,62bbfa4c76c1b7c44c51f82f,2022-06-29_24h08.52.192,Colour_Asymmetry_Pilot,2022.1.3,Win32,60.3427468,62bbe60bf3d75ef465d3e404,0,93,93,36,1,threeone,,,,,,,,,,,,,,,,,,,,,,,,,,,,,,,,,,,,,,,,,,,,,,,,,,,,,,,,,,,,,,,,,,,,,,,,,,,,,,,,,,,,,,,,,,,,,,,,,,,,,,,,,,,,,,,,,,,,,,,,,,,,,,,,,,,,,,,,,,,,,,,,,,,,,,,,
,,,,,,5c0048442213be0001c2d579,62bbfa4c76c1b7c44c51f82f,2022-06-29_24h08.52.192,Colour_Asymmetry_Pilot,2022.1.3,Win32,60.3427468,62bbe60bf3d75ef465d3e404,0,94,94,27,1,twofour,,,,,,,,,,,,,,,,,,,,,,,,,,,,,,,,,,,,,,,,,,,,,,,,,,,,,,,,,,,,,,,,,,,,,,,,,,,,,,,,,,,,,,,,,,,,,,,,,,,,,,,,,,,,,,,,,,,,,,,,,,,,,,,,,,,,,,,,,,,,,,,,,,,,,,,,
,,,,,,5c0048442213be0001c2d579,62bbfa4c76c1b7c44c51f82f,2022-06-29_24h08.52.192,Colour_Asymmetry_Pilot,2022.1.3,Win32,60.3427468,62bbe60bf3d75ef465d3e404,0,95,95,113,1,onethree,,,,,,,,,,,,,,,,,,,,,,,,,,,,,,,,,,,,,,,,,,,,,,,,,,,,,,,,,,,,,,,,,,,,,,,,,,,,,,,,,,,,,,,,,,,,,,,,,,,,,,,,,,,,,,,,,,,,,,,,,,,,,,,,,,,,,,,,,,,,,,,,,,,,,,,,
,,,,,,5c0048442213be0001c2d579,62bbfa4c76c1b7c44c51f82f,2022-06-29_24h08.52.192,Colour_Asymmetry_Pilot,2022.1.3,Win32,60.3427468,62bbe60bf3d75ef465d3e404,0,96,96,93,1,threefour,,,,,,,,,,,,,,,,,,,,,,,,,,,,,,,,,,,,,,,,,,,,,,,,,,,,,,,,,,,,,,,,,,,,,,,,,,,,,,,,,,,,,,,,,,,,,,,,,,,,,,,,,,,,,,,,,,,,,,,,,,,,,,,,,,,,,,,,,,,,,,,,,,,,,,,,
,,,,,,5c0048442213be0001c2d579,62bbfa4c76c1b7c44c51f82f,2022-06-29_24h08.52.192,Colour_Asymmetry_Pilot,2022.1.3,Win32,60.3427468,62bbe60bf3d75ef465d3e404,0,97,97,22,1,fourtwo,,,,,,,,,,,,,,,,,,,,,,,,,,,,,,,,,,,,,,,,,,,,,,,,,,,,,,,,,,,,,,,,,,,,,,,,,,,,,,,,,,,,,,,,,,,,,,,,,,,,,,,,,,,,,,,,,,,,,,,,,,,,,,,,,,,,,,,,,,,,,,,,,,,,,,,,
,,,,,,5c0048442213be0001c2d579,62bbfa4c76c1b7c44c51f82f,2022-06-29_24h08.52.192,Colour_Asymmetry_Pilot,2022.1.3,Win32,60.3427468,62bbe60bf3d75ef465d3e404,0,98,98,136,1,onetwo,,,,,,,,,,,,,,,,,,,,,,,,,,,,,,,,,,,,,,,,,,,,,,,,,,,,,,,,,,,,,,,,,,,,,,,,,,,,,,,,,,,,,,,,,,,,,,,,,,,,,,,,,,,,,,,,,,,,,,,,,,,,,,,,,,,,,,,,,,,,,,,,,,,,,,,,
,,,,,,5c0048442213be0001c2d579,62bbfa4c76c1b7c44c51f82f,2022-06-29_24h08.52.192,Colour_Asymmetry_Pilot,2022.1.3,Win32,60.3427468,62bbe60bf3d75ef465d3e404,0,99,99,129,1,onethree,,,,,,,,,,,,,,,,,,,,,,,,,,,,,,,,,,,,,,,,,,,,,,,,,,,,,,,,,,,,,,,,,,,,,,,,,,,,,,,,,,,,,,,,,,,,,,,,,,,,,,,,,,,,,,,,,,,,,,,,,,,,,,,,,,,,,,,,,,,,,,,,,,,,,,,,
,,,,,,5c0048442213be0001c2d579,62bbfa4c76c1b7c44c51f82f,2022-06-29_24h08.52.192,Colour_Asymmetry_Pilot,2022.1.3,Win32,60.3427468,62bbe60bf3d75ef465d3e404,0,100,100,91,1,twofour,,,,,,,,,,,,,,,,,,,,,,,,,,,,,,,,,,,,,,,,,,,,,,,,,,,,,,,,,,,,,,,,,,,,,,,,,,,,,,,,,,,,,,,,,,,,,,,,,,,,,,,,,,,,,,,,,,,,,,,,,,,,,,,,,,,,,,,,,,,,,,,,,,,,,,,,
,,,,,,5c0048442213be0001c2d579,62bbfa4c76c1b7c44c51f82f,2022-06-29_24h08.52.192,Colour_Asymmetry_Pilot,2022.1.3,Win32,60.3427468,62bbe60bf3d75ef465d3e404,0,101,101,159,1,fourthree,,,,,,,,,,,,,,,,,,,,,,,,,,,,,,,,,,,,,,,,,,,,,,,,,,,,,,,,,,,,,,,,,,,,,,,,,,,,,,,,,,,,,,,,,,,,,,,,,,,,,,,,,,,,,,,,,,,,,,,,,,,,,,,,,,,,,,,,,,,,,,,,,,,,,,,,
,,,,,,5c0048442213be0001c2d579,62bbfa4c76c1b7c44c51f82f,2022-06-29_24h08.52.192,Colour_Asymmetry_Pilot,2022.1.3,Win32,60.3427468,62bbe60bf3d75ef465d3e404,0,102,102,79,1,fourthree,,,,,,,,,,,,,,,,,,,,,,,,,,,,,,,,,,,,,,,,,,,,,,,,,,,,,,,,,,,,,,,,,,,,,,,,,,,,,,,,,,,,,,,,,,,,,,,,,,,,,,,,,,,,,,,,,,,,,,,,,,,,,,,,,,,,,,,,,,,,,,,,,,,,,,,,
,,,,,,5c0048442213be0001c2d579,62bbfa4c76c1b7c44c51f82f,2022-06-29_24h08.52.192,Colour_Asymmetry_Pilot,2022.1.3,Win32,60.3427468,62bbe60bf3d75ef465d3e404,0,103,103,68,1,threeone,,,,,,,,,,,,,,,,,,,,,,,,,,,,,,,,,,,,,,,,,,,,,,,,,,,,,,,,,,,,,,,,,,,,,,,,,,,,,,,,,,,,,,,,,,,,,,,,,,,,,,,,,,,,,,,,,,,,,,,,,,,,,,,,,,,,,,,,,,,,,,,,,,,,,,,,
,,,,,,5c0048442213be0001c2d579,62bbfa4c76c1b7c44c51f82f,2022-06-29_24h08.52.192,Colour_Asymmetry_Pilot,2022.1.3,Win32,60.3427468,62bbe60bf3d75ef465d3e404,0,104,104,90,1,twoone,,,,,,,,,,,,,,,,,,,,,,,,,,,,,,,,,,,,,,,,,,,,,,,,,,,,,,,,,,,,,,,,,,,,,,,,,,,,,,,,,,,,,,,,,,,,,,,,,,,,,,,,,,,,,,,,,,,,,,,,,,,,,,,,,,,,,,,,,,,,,,,,,,,,,,,,
,,,,,,5c0048442213be0001c2d579,62bbfa4c76c1b7c44c51f82f,2022-06-29_24h08.52.192,Colour_Asymmetry_Pilot,2022.1.3,Win32,60.3427468,62bbe60bf3d75ef465d3e404,0,105,105,161,1,onethree,,,,,,,,,,,,,,,,,,,,,,,,,,,,,,,,,,,,,,,,,,,,,,,,,,,,,,,,,,,,,,,,,,,,,,,,,,,,,,,,,,,,,,,,,,,,,,,,,,,,,,,,,,,,,,,,,,,,,,,,,,,,,,,,,,,,,,,,,,,,,,,,,,,,,,,,
,,,,,,5c0048442213be0001c2d579,62bbfa4c76c1b7c44c51f82f,2022-06-29_24h08.52.192,Colour_Asymmetry_Pilot,2022.1.3,Win32,60.3427468,62bbe60bf3d75ef465d3e404,0,106,106,15,1,fourthree,,,,,,,,,,,,,,,,,,,,,,,,,,,,,,,,,,,,,,,,,,,,,,,,,,,,,,,,,,,,,,,,,,,,,,,,,,,,,,,,,,,,,,,,,,,,,,,,,,,,,,,,,,,,,,,,,,,,,,,,,,,,,,,,,,,,,,,,,,,,,,,,,,,,,,,,
,,,,,,5c0048442213be0001c2d579,62bbfa4c76c1b7c44c51f82f,2022-06-29_24h08.52.192,Colour_Asymmetry_Pilot,2022.1.3,Win32,60.3427468,62bbe60bf3d75ef465d3e404,0,107,107,8,1,onetwo,,,,,,,,,,,,,,,,,,,,,,,,,,,,,,,,,,,,,,,,,,,,,,,,,,,,,,,,,,,,,,,,,,,,,,,,,,,,,,,,,,,,,,,,,,,,,,,,,,,,,,,,,,,,,,,,,,,,,,,,,,,,,,,,,,,,,,,,,,,,,,,,,,,,,,,,
,,,,,,5c0048442213be0001c2d579,62bbfa4c76c1b7c44c51f82f,2022-06-29_24h08.52.192,Colour_Asymmetry_Pilot,2022.1.3,Win32,60.3427468,62bbe60bf3d75ef465d3e404,0,108,108,134,1,fourtwo,,,,,,,,,,,,,,,,,,,,,,,,,,,,,,,,,,,,,,,,,,,,,,,,,,,,,,,,,,,,,,,,,,,,,,,,,,,,,,,,,,,,,,,,,,,,,,,,,,,,,,,,,,,,,,,,,,,,,,,,,,,,,,,,,,,,,,,,,,,,,,,,,,,,,,,,
,,,,,,5c0048442213be0001c2d579,62bbfa4c76c1b7c44c51f82f,2022-06-29_24h08.52.192,Colour_Asymmetry_Pilot,2022.1.3,Win32,60.3427468,62bbe60bf3d75ef465d3e404,0,109,109,157,1,threefour,,,,,,,,,,,,,,,,,,,,,,,,,,,,,,,,,,,,,,,,,,,,,,,,,,,,,,,,,,,,,,,,,,,,,,,,,,,,,,,,,,,,,,,,,,,,,,,,,,,,,,,,,,,,,,,,,,,,,,,,,,,,,,,,,,,,,,,,,,,,,,,,,,,,,,,,
,,,,,,5c0048442213be0001c2d579,62bbfa4c76c1b7c44c51f82f,2022-06-29_24h08.52.192,Colour_Asymmetry_Pilot,2022.1.3,Win32,60.3427468,62bbe60bf3d75ef465d3e404,0,110,110,77,1,threefour,,,,,,,,,,,,,,,,,,,,,,,,,,,,,,,,,,,,,,,,,,,,,,,,,,,,,,,,,,,,,,,,,,,,,,,,,,,,,,,,,,,,,,,,,,,,,,,,,,,,,,,,,,,,,,,,,,,,,,,,,,,,,,,,,,,,,,,,,,,,,,,,,,,,,,,,
,,,,,,5c0048442213be0001c2d579,62bbfa4c76c1b7c44c51f82f,2022-06-29_24h08.52.192,Colour_Asymmetry_Pilot,2022.1.3,Win32,60.3427468,62bbe60bf3d75ef465d3e404,0,111,111,19,1,twofour,,,,,,,,,,,,,,,,,,,,,,,,,,,,,,,,,,,,,,,,,,,,,,,,,,,,,,,,,,,,,,,,,,,,,,,,,,,,,,,,,,,,,,,,,,,,,,,,,,,,,,,,,,,,,,,,,,,,,,,,,,,,,,,,,,,,,,,,,,,,,,,,,,,,,,,,
,,,,,,5c0048442213be0001c2d579,62bbfa4c76c1b7c44c51f82f,2022-06-29_24h08.52.192,Colour_Asymmetry_Pilot,2022.1.3,Win32,60.3427468,62bbe60bf3d75ef465d3e404,0,112,112,39,1,fourthree,,,,,,,,,,,,,,,,,,,,,,,,,,,,,,,,,,,,,,,,,,,,,,,,,,,,,,,,,,,,,,,,,,,,,,,,,,,,,,,,,,,,,,,,,,,,,,,,,,,,,,,,,,,,,,,,,,,,,,,,,,,,,,,,,,,,,,,,,,,,,,,,,,,,,,,,
,,,,,,5c0048442213be0001c2d579,62bbfa4c76c1b7c44c51f82f,2022-06-29_24h08.52.192,Colour_Asymmetry_Pilot,2022.1.3,Win32,60.3427468,62bbe60bf3d75ef465d3e404,0,113,113,60,1,threeone,,,,,,,,,,,,,,,,,,,,,,,,,,,,,,,,,,,,,,,,,,,,,,,,,,,,,,,,,,,,,,,,,,,,,,,,,,,,,,,,,,,,,,,,,,,,,,,,,,,,,,,,,,,,,,,,,,,,,,,,,,,,,,,,,,,,,,,,,,,,,,,,,,,,,,,,
,,,,,,5c0048442213be0001c2d579,62bbfa4c76c1b7c44c51f82f,2022-06-29_24h08.52.192,Colour_Asymmetry_Pilot,2022.1.3,Win32,60.3427468,62bbe60bf3d75ef465d3e404,0,114,114,100,1,threeone,,,,,,,,,,,,,,,,,,,,,,,,,,,,,,,,,,,,,,,,,,,,,,,,,,,,,,,,,,,,,,,,,,,,,,,,,,,,,,,,,,,,,,,,,,,,,,,,,,,,,,,,,,,,,,,,,,,,,,,,,,,,,,,,,,,,,,,,,,,,,,,,,,,,,,,,
,,,,,,5c0048442213be0001c2d579,62bbfa4c76c1b7c44c51f82f,2022-06-29_24h08.52.192,Colour_Asymmetry_Pilot,2022.1.3,Win32,60.3427468,62bbe60bf3d75ef465d3e404,0,115,115,126,1,fourtwo,,,,,,,,,,,,,,,,,,,,,,,,,,,,,,,,,,,,,,,,,,,,,,,,,,,,,,,,,,,,,,,,,,,,,,,,,,,,,,,,,,,,,,,,,,,,,,,,,,,,,,,,,,,,,,,,,,,,,,,,,,,,,,,,,,,,,,,,,,,,,,,,,,,,,,,,
,,,,,,5c0048442213be0001c2d579,62bbfa4c76c1b7c44c51f82f,2022-06-29_24h08.52.192,Colour_Asymmetry_Pilot,2022.1.3,Win32,60.3427468,62bbe60bf3d75ef465d3e404,0,116,116,131,1,twofour,,,,,,,,,,,,,,,,,,,,,,,,,,,,,,,,,,,,,,,,,,,,,,,,,,,,,,,,,,,,,,,,,,,,,,,,,,,,,,,,,,,,,,,,,,,,,,,,,,,,,,,,,,,,,,,,,,,,,,,,,,,,,,,,,,,,,,,,,,,,,,,,,,,,,,,,
,,,,,,5c0048442213be0001c2d579,62bbfa4c76c1b7c44c51f82f,2022-06-29_24h08.52.192,Colour_Asymmetry_Pilot,2022.1.3,Win32,60.3427468,62bbe60bf3d75ef465d3e404,0,117,117,30,1,fourtwo,,,,,,,,,,,,,,,,,,,,,,,,,,,,,,,,,,,,,,,,,,,,,,,,,,,,,,,,,,,,,,,,,,,,,,,,,,,,,,,,,,,,,,,,,,,,,,,,,,,,,,,,,,,,,,,,,,,,,,,,,,,,,,,,,,,,,,,,,,,,,,,,,,,,,,,,
,,,,,,5c0048442213be0001c2d579,62bbfa4c76c1b7c44c51f82f,2022-06-29_24h08.52.192,Colour_Asymmetry_Pilot,2022.1.3,Win32,60.3427468,62bbe60bf3d75ef465d3e404,0,118,118,130,1,twoone,,,,,,,,,,,,,,,,,,,,,,,,,,,,,,,,,,,,,,,,,,,,,,,,,,,,,,,,,,,,,,,,,,,,,,,,,,,,,,,,,,,,,,,,,,,,,,,,,,,,,,,,,,,,,,,,,,,,,,,,,,,,,,,,,,,,,,,,,,,,,,,,,,,,,,,,
,,,,,,5c0048442213be0001c2d579,62bbfa4c76c1b7c44c51f82f,2022-06-29_24h08.52.192,Colour_Asymmetry_Pilot,2022.1.3,Win32,60.3427468,62bbe60bf3d75ef465d3e404,0,119,119,57,1,onethree,,,,,,,,,,,,,,,,,,,,,,,,,,,,,,,,,,,,,,,,,,,,,,,,,,,,,,,,,,,,,,,,,,,,,,,,,,,,,,,,,,,,,,,,,,,,,,,,,,,,,,,,,,,,,,,,,,,,,,,,,,,,,,,,,,,,,,,,,,,,,,,,,,,,,,,,
,,,,,,5c0048442213be0001c2d579,62bbfa4c76c1b7c44c51f82f,2022-06-29_24h08.52.192,Colour_Asymmetry_Pilot,2022.1.3,Win32,60.3427468,62bbe60bf3d75ef465d3e404,0,120,120,104,1,onetwo,,,,,,,,,,,,,,,,,,,,,,,,,,,,,,,,,,,,,,,,,,,,,,,,,,,,,,,,,,,,,,,,,,,,,,,,,,,,,,,,,,,,,,,,,,,,,,,,,,,,,,,,,,,,,,,,,,,,,,,,,,,,,,,,,,,,,,,,,,,,,,,,,,,,,,,,
,,,,,,5c0048442213be0001c2d579,62bbfa4c76c1b7c44c51f82f,2022-06-29_24h08.52.192,Colour_Asymmetry_Pilot,2022.1.3,Win32,60.3427468,62bbe60bf3d75ef465d3e404,0,121,121,128,1,onetwo,,,,,,,,,,,,,,,,,,,,,,,,,,,,,,,,,,,,,,,,,,,,,,,,,,,,,,,,,,,,,,,,,,,,,,,,,,,,,,,,,,,,,,,,,,,,,,,,,,,,,,,,,,,,,,,,,,,,,,,,,,,,,,,,,,,,,,,,,,,,,,,,,,,,,,,,
,,,,,,5c0048442213be0001c2d579,62bbfa4c76c1b7c44c51f82f,2022-06-29_24h08.52.192,Colour_Asymmetry_Pilot,2022.1.3,Win32,60.3427468,62bbe60bf3d75ef465d3e404,0,122,122,53,1,threefour,,,,,,,,,,,,,,,,,,,,,,,,,,,,,,,,,,,,,,,,,,,,,,,,,,,,,,,,,,,,,,,,,,,,,,,,,,,,,,,,,,,,,,,,,,,,,,,,,,,,,,,,,,,,,,,,,,,,,,,,,,,,,,,,,,,,,,,,,,,,,,,,,,,,,,,,
,,,,,,5c0048442213be0001c2d579,62bbfa4c76c1b7c44c51f82f,2022-06-29_24h08.52.192,Colour_Asymmetry_Pilot,2022.1.3,Win32,60.3427468,62bbe60bf3d75ef465d3e404,0,123,123,69,1,threefour,,,,,,,,,,,,,,,,,,,,,,,,,,,,,,,,,,,,,,,,,,,,,,,,,,,,,,,,,,,,,,,,,,,,,,,,,,,,,,,,,,,,,,,,,,,,,,,,,,,,,,,,,,,,,,,,,,,,,,,,,,,,,,,,,,,,,,,,,,,,,,,,,,,,,,,,
,,,,,,5c0048442213be0001c2d579,62bbfa4c76c1b7c44c51f82f,2022-06-29_24h08.52.192,Colour_Asymmetry_Pilot,2022.1.3,Win32,60.3427468,62bbe60bf3d75ef465d3e404,0,124,124,85,1,threefour,,,,,,,,,,,,,,,,,,,,,,,,,,,,,,,,,,,,,,,,,,,,,,,,,,,,,,,,,,,,,,,,,,,,,,,,,,,,,,,,,,,,,,,,,,,,,,,,,,,,,,,,,,,,,,,,,,,,,,,,,,,,,,,,,,,,,,,,,,,,,,,,,,,,,,,,
,,,,,,5c0048442213be0001c2d579,62bbfa4c76c1b7c44c51f82f,2022-06-29_24h08.52.192,Colour_Asymmetry_Pilot,2022.1.3,Win32,60.3427468,62bbe60bf3d75ef465d3e404,0,125,125,16,1,onetwo,,,,,,,,,,,,,,,,,,,,,,,,,,,,,,,,,,,,,,,,,,,,,,,,,,,,,,,,,,,,,,,,,,,,,,,,,,,,,,,,,,,,,,,,,,,,,,,,,,,,,,,,,,,,,,,,,,,,,,,,,,,,,,,,,,,,,,,,,,,,,,,,,,,,,,,,
,,,,,,5c0048442213be0001c2d579,62bbfa4c76c1b7c44c51f82f,2022-06-29_24h08.52.192,Colour_Asymmetry_Pilot,2022.1.3,Win32,60.3427468,62bbe60bf3d75ef465d3e404,0,126,126,137,1,onethree,,,,,,,,,,,,,,,,,,,,,,,,,,,,,,,,,,,,,,,,,,,,,,,,,,,,,,,,,,,,,,,,,,,,,,,,,,,,,,,,,,,,,,,,,,,,,,,,,,,,,,,,,,,,,,,,,,,,,,,,,,,,,,,,,,,,,,,,,,,,,,,,,,,,,,,,
,,,,,,5c0048442213be0001c2d579,62bbfa4c76c1b7c44c51f82f,2022-06-29_24h08.52.192,Colour_Asymmetry_Pilot,2022.1.3,Win32,60.3427468,62bbe60bf3d75ef465d3e404,0,127,127,17,1,onethree,,,,,,,,,,,,,,,,,,,,,,,,,,,,,,,,,,,,,,,,,,,,,,,,,,,,,,,,,,,,,,,,,,,,,,,,,,,,,,,,,,,,,,,,,,,,,,,,,,,,,,,,,,,,,,,,,,,,,,,,,,,,,,,,,,,,,,,,,,,,,,,,,,,,,,,,
,,,,,,5c0048442213be0001c2d579,62bbfa4c76c1b7c44c51f82f,2022-06-29_24h08.52.192,Colour_Asymmetry_Pilot,2022.1.3,Win32,60.3427468,62bbe60bf3d75ef465d3e404,0,128,128,141,1,threefour,,,,,,,,,,,,,,,,,,,,,,,,,,,,,,,,,,,,,,,,,,,,,,,,,,,,,,,,,,,,,,,,,,,,,,,,,,,,,,,,,,,,,,,,,,,,,,,,,,,,,,,,,,,,,,,,,,,,,,,,,,,,,,,,,,,,,,,,,,,,,,,,,,,,,,,,
,,,,,,5c0048442213be0001c2d579,62bbfa4c76c1b7c44c51f82f,2022-06-29_24h08.52.192,Colour_Asymmetry_Pilot,2022.1.3,Win32,60.3427468,62bbe60bf3d75ef465d3e404,0,129,129,112,1,onetwo,,,,,,,,,,,,,,,,,,,,,,,,,,,,,,,,,,,,,,,,,,,,,,,,,,,,,,,,,,,,,,,,,,,,,,,,,,,,,,,,,,,,,,,,,,,,,,,,,,,,,,,,,,,,,,,,,,,,,,,,,,,,,,,,,,,,,,,,,,,,,,,,,,,,,,,,
,,,,,,5c0048442213be0001c2d579,62bbfa4c76c1b7c44c51f82f,2022-06-29_24h08.52.192,Colour_Asymmetry_Pilot,2022.1.3,Win32,60.3427468,62bbe60bf3d75ef465d3e404,0,130,130,6,1,fourtwo,,,,,,,,,,,,,,,,,,,,,,,,,,,,,,,,,,,,,,,,,,,,,,,,,,,,,,,,,,,,,,,,,,,,,,,,,,,,,,,,,,,,,,,,,,,,,,,,,,,,,,,,,,,,,,,,,,,,,,,,,,,,,,,,,,,,,,,,,,,,,,,,,,,,,,,,
,,,,,,5c0048442213be0001c2d579,62bbfa4c76c1b7c44c51f82f,2022-06-29_24h08.52.192,Colour_Asymmetry_Pilot,2022.1.3,Win32,60.3427468,62bbe60bf3d75ef465d3e404,0,131,131,154,1,twoone,,,,,,,,,,,,,,,,,,,,,,,,,,,,,,,,,,,,,,,,,,,,,,,,,,,,,,,,,,,,,,,,,,,,,,,,,,,,,,,,,,,,,,,,,,,,,,,,,,,,,,,,,,,,,,,,,,,,,,,,,,,,,,,,,,,,,,,,,,,,,,,,,,,,,,,,
,,,,,,5c0048442213be0001c2d579,62bbfa4c76c1b7c44c51f82f,2022-06-29_24h08.52.192,Colour_Asymmetry_Pilot,2022.1.3,Win32,60.3427468,62bbe60bf3d75ef465d3e404,0,132,132,81,1,onethree,,,,,,,,,,,,,,,,,,,,,,,,,,,,,,,,,,,,,,,,,,,,,,,,,,,,,,,,,,,,,,,,,,,,,,,,,,,,,,,,,,,,,,,,,,,,,,,,,,,,,,,,,,,,,,,,,,,,,,,,,,,,,,,,,,,,,,,,,,,,,,,,,,,,,,,,
,,,,,,5c0048442213be0001c2d579,62bbfa4c76c1b7c44c51f82f,2022-06-29_24h08.52.192,Colour_Asymmetry_Pilot,2022.1.3,Win32,60.3427468,62bbe60bf3d75ef465d3e404,0,133,133,133,1,threefour,,,,,,,,,,,,,,,,,,,,,,,,,,,,,,,,,,,,,,,,,,,,,,,,,,,,,,,,,,,,,,,,,,,,,,,,,,,,,,,,,,,,,,,,,,,,,,,,,,,,,,,,,,,,,,,,,,,,,,,,,,,,,,,,,,,,,,,,,,,,,,,,,,,,,,,,
,,,,,,5c0048442213be0001c2d579,62bbfa4c76c1b7c44c51f82f,2022-06-29_24h08.52.192,Colour_Asymmetry_Pilot,2022.1.3,Win32,60.3427468,62bbe60bf3d75ef465d3e404,0,134,134,149,1,threefour,,,,,,,,,,,,,,,,,,,,,,,,,,,,,,,,,,,,,,,,,,,,,,,,,,,,,,,,,,,,,,,,,,,,,,,,,,,,,,,,,,,,,,,,,,,,,,,,,,,,,,,,,,,,,,,,,,,,,,,,,,,,,,,,,,,,,,,,,,,,,,,,,,,,,,,,
,,,,,,5c0048442213be0001c2d579,62bbfa4c76c1b7c44c51f82f,2022-06-29_24h08.52.192,Colour_Asymmetry_Pilot,2022.1.3,Win32,60.3427468,62bbe60bf3d75ef465d3e404,0,135,135,135,1,fourthree,,,,,,,,,,,,,,,,,,,,,,,,,,,,,,,,,,,,,,,,,,,,,,,,,,,,,,,,,,,,,,,,,,,,,,,,,,,,,,,,,,,,,,,,,,,,,,,,,,,,,,,,,,,,,,,,,,,,,,,,,,,,,,,,,,,,,,,,,,,,,,,,,,,,,,,,
,,,,,,5c0048442213be0001c2d579,62bbfa4c76c1b7c44c51f82f,2022-06-29_24h08.52.192,Colour_Asymmetry_Pilot,2022.1.3,Win32,60.3427468,62bbe60bf3d75ef465d3e404,0,136,136,117,1,threefour,,,,,,,,,,,,,,,,,,,,,,,,,,,,,,,,,,,,,,,,,,,,,,,,,,,,,,,,,,,,,,,,,,,,,,,,,,,,,,,,,,,,,,,,,,,,,,,,,,,,,,,,,,,,,,,,,,,,,,,,,,,,,,,,,,,,,,,,,,,,,,,,,,,,,,,,
,,,,,,5c0048442213be0001c2d579,62bbfa4c76c1b7c44c51f82f,2022-06-29_24h08.52.192,Colour_Asymmetry_Pilot,2022.1.3,Win32,60.3427468,62bbe60bf3d75ef465d3e404,0,137,137,160,1,onetwo,,,,,,,,,,,,,,,,,,,,,,,,,,,,,,,,,,,,,,,,,,,,,,,,,,,,,,,,,,,,,,,,,,,,,,,,,,,,,,,,,,,,,,,,,,,,,,,,,,,,,,,,,,,,,,,,,,,,,,,,,,,,,,,,,,,,,,,,,,,,,,,,,,,,,,,,
,,,,,,5c0048442213be0001c2d579,62bbfa4c76c1b7c44c51f82f,2022-06-29_24h08.52.192,Colour_Asymmetry_Pilot,2022.1.3,Win32,60.3427468,62bbe60bf3d75ef465d3e404,0,138,138,84,1,threeone,,,,,,,,,,,,,,,,,,,,,,,,,,,,,,,,,,,,,,,,,,,,,,,,,,,,,,,,,,,,,,,,,,,,,,,,,,,,,,,,,,,,,,,,,,,,,,,,,,,,,,,,,,,,,,,,,,,,,,,,,,,,,,,,,,,,,,,,,,,,,,,,,,,,,,,,
,,,,,,5c0048442213be0001c2d579,62bbfa4c76c1b7c44c51f82f,2022-06-29_24h08.52.192,Colour_Asymmetry_Pilot,2022.1.3,Win32,60.3427468,62bbe60bf3d75ef465d3e404,0,139,139,142,1,fourtwo,,,,,,,,,,,,,,,,,,,,,,,,,,,,,,,,,,,,,,,,,,,,,,,,,,,,,,,,,,,,,,,,,,,,,,,,,,,,,,,,,,,,,,,,,,,,,,,,,,,,,,,,,,,,,,,,,,,,,,,,,,,,,,,,,,,,,,,,,,,,,,,,,,,,,,,,
,,,,,,5c0048442213be0001c2d579,62bbfa4c76c1b7c44c51f82f,2022-06-29_24h08.52.192,Colour_Asymmetry_Pilot,2022.1.3,Win32,60.3427468,62bbe60bf3d75ef465d3e404,0,140,140,3,1,twofour,,,,,,,,,,,,,,,,,,,,,,,,,,,,,,,,,,,,,,,,,,,,,,,,,,,,,,,,,,,,,,,,,,,,,,,,,,,,,,,,,,,,,,,,,,,,,,,,,,,,,,,,,,,,,,,,,,,,,,,,,,,,,,,,,,,,,,,,,,,,,,,,,,,,,,,,
,,,,,,5c0048442213be0001c2d579,62bbfa4c76c1b7c44c51f82f,2022-06-29_24h08.52.192,Colour_Asymmetry_Pilot,2022.1.3,Win32,60.3427468,62bbe60bf3d75ef465d3e404,0,141,141,140,1,threeone,,,,,,,,,,,,,,,,,,,,,,,,,,,,,,,,,,,,,,,,,,,,,,,,,,,,,,,,,,,,,,,,,,,,,,,,,,,,,,,,,,,,,,,,,,,,,,,,,,,,,,,,,,,,,,,,,,,,,,,,,,,,,,,,,,,,,,,,,,,,,,,,,,,,,,,,
,,,,,,5c0048442213be0001c2d579,62bbfa4c76c1b7c44c51f82f,2022-06-29_24h08.52.192,Colour_Asymmetry_Pilot,2022.1.3,Win32,60.3427468,62bbe60bf3d75ef465d3e404,0,142,142,88,1,onetwo,,,,,,,,,,,,,,,,,,,,,,,,,,,,,,,,,,,,,,,,,,,,,,,,,,,,,,,,,,,,,,,,,,,,,,,,,,,,,,,,,,,,,,,,,,,,,,,,,,,,,,,,,,,,,,,,,,,,,,,,,,,,,,,,,,,,,,,,,,,,,,,,,,,,,,,,
,,,,,,5c0048442213be0001c2d579,62bbfa4c76c1b7c44c51f82f,2022-06-29_24h08.52.192,Colour_Asymmetry_Pilot,2022.1.3,Win32,60.3427468,62bbe60bf3d75ef465d3e404,0,143,143,102,1,fourtwo,,,,,,,,,,,,,,,,,,,,,,,,,,,,,,,,,,,,,,,,,,,,,,,,,,,,,,,,,,,,,,,,,,,,,,,,,,,,,,,,,,,,,,,,,,,,,,,,,,,,,,,,,,,,,,,,,,,,,,,,,,,,,,,,,,,,,,,,,,,,,,,,,,,,,,,,
,,,,,,5c0048442213be0001c2d579,62bbfa4c76c1b7c44c51f82f,2022-06-29_24h08.52.192,Colour_Asymmetry_Pilot,2022.1.3,Win32,60.3427468,62bbe60bf3d75ef465d3e404,0,144,144,63,1,fourthree,,,,,,,,,,,,,,,,,,,,,,,,,,,,,,,,,,,,,,,,,,,,,,,,,,,,,,,,,,,,,,,,,,,,,,,,,,,,,,,,,,,,,,,,,,,,,,,,,,,,,,,,,,,,,,,,,,,,,,,,,,,,,,,,,,,,,,,,,,,,,,,,,,,,,,,,
,,,,,,5c0048442213be0001c2d579,62bbfa4c76c1b7c44c51f82f,2022-06-29_24h08.52.192,Colour_Asymmetry_Pilot,2022.1.3,Win32,60.3427468,62bbe60bf3d75ef465d3e404,0,145,145,124,1,threeone,,,,,,,,,,,,,,,,,,,,,,,,,,,,,,,,,,,,,,,,,,,,,,,,,,,,,,,,,,,,,,,,,,,,,,,,,,,,,,,,,,,,,,,,,,,,,,,,,,,,,,,,,,,,,,,,,,,,,,,,,,,,,,,,,,,,,,,,,,,,,,,,,,,,,,,,
,,,,,,5c0048442213be0001c2d579,62bbfa4c76c1b7c44c51f82f,2022-06-29_24h08.52.192,Colour_Asymmetry_Pilot,2022.1.3,Win32,60.3427468,62bbe60bf3d75ef465d3e404,0,146,146,26,1,twoone,,,,,,,,,,,,,,,,,,,,,,,,,,,,,,,,,,,,,,,,,,,,,,,,,,,,,,,,,,,,,,,,,,,,,,,,,,,,,,,,,,,,,,,,,,,,,,,,,,,,,,,,,,,,,,,,,,,,,,,,,,,,,,,,,,,,,,,,,,,,,,,,,,,,,,,,
,,,,,,5c0048442213be0001c2d579,62bbfa4c76c1b7c44c51f82f,2022-06-29_24h08.52.192,Colour_Asymmetry_Pilot,2022.1.3,Win32,60.3427468,62bbe60bf3d75ef465d3e404,0,147,147,120,1,onetwo,,,,,,,,,,,,,,,,,,,,,,,,,,,,,,,,,,,,,,,,,,,,,,,,,,,,,,,,,,,,,,,,,,,,,,,,,,,,,,,,,,,,,,,,,,,,,,,,,,,,,,,,,,,,,,,,,,,,,,,,,,,,,,,,,,,,,,,,,,,,,,,,,,,,,,,,
,,,,,,5c0048442213be0001c2d579,62bbfa4c76c1b7c44c51f82f,2022-06-29_24h08.52.192,Colour_Asymmetry_Pilot,2022.1.3,Win32,60.3427468,62bbe60bf3d75ef465d3e404,0,148,148,50,1,twoone,,,,,,,,,,,,,,,,,,,,,,,,,,,,,,,,,,,,,,,,,,,,,,,,,,,,,,,,,,,,,,,,,,,,,,,,,,,,,,,,,,,,,,,,,,,,,,,,,,,,,,,,,,,,,,,,,,,,,,,,,,,,,,,,,,,,,,,,,,,,,,,,,,,,,,,,
,,,,,,5c0048442213be0001c2d579,62bbfa4c76c1b7c44c51f82f,2022-06-29_24h08.52.192,Colour_Asymmetry_Pilot,2022.1.3,Win32,60.3427468,62bbe60bf3d75ef465d3e404,0,149,149,146,1,twoone,,,,,,,,,,,,,,,,,,,,,,,,,,,,,,,,,,,,,,,,,,,,,,,,,,,,,,,,,,,,,,,,,,,,,,,,,,,,,,,,,,,,,,,,,,,,,,,,,,,,,,,,,,,,,,,,,,,,,,,,,,,,,,,,,,,,,,,,,,,,,,,,,,,,,,,,
,,,,,,5c0048442213be0001c2d579,62bbfa4c76c1b7c44c51f82f,2022-06-29_24h08.52.192,Colour_Asymmetry_Pilot,2022.1.3,Win32,60.3427468,62bbe60bf3d75ef465d3e404,0,150,150,65,1,onethree,,,,,,,,,,,,,,,,,,,,,,,,,,,,,,,,,,,,,,,,,,,,,,,,,,,,,,,,,,,,,,,,,,,,,,,,,,,,,,,,,,,,,,,,,,,,,,,,,,,,,,,,,,,,,,,,,,,,,,,,,,,,,,,,,,,,,,,,,,,,,,,,,,,,,,,,
,,,,,,5c0048442213be0001c2d579,62bbfa4c76c1b7c44c51f82f,2022-06-29_24h08.52.192,Colour_Asymmetry_Pilot,2022.1.3,Win32,60.3427468,62bbe60bf3d75ef465d3e404,0,151,151,4,1,threeone,,,,,,,,,,,,,,,,,,,,,,,,,,,,,,,,,,,,,,,,,,,,,,,,,,,,,,,,,,,,,,,,,,,,,,,,,,,,,,,,,,,,,,,,,,,,,,,,,,,,,,,,,,,,,,,,,,,,,,,,,,,,,,,,,,,,,,,,,,,,,,,,,,,,,,,,
,,,,,,5c0048442213be0001c2d579,62bbfa4c76c1b7c44c51f82f,2022-06-29_24h08.52.192,Colour_Asymmetry_Pilot,2022.1.3,Win32,60.3427468,62bbe60bf3d75ef465d3e404,0,152,152,42,1,twoone,,,,,,,,,,,,,,,,,,,,,,,,,,,,,,,,,,,,,,,,,,,,,,,,,,,,,,,,,,,,,,,,,,,,,,,,,,,,,,,,,,,,,,,,,,,,,,,,,,,,,,,,,,,,,,,,,,,,,,,,,,,,,,,,,,,,,,,,,,,,,,,,,,,,,,,,
,,,,,,5c0048442213be0001c2d579,62bbfa4c76c1b7c44c51f82f,2022-06-29_24h08.52.192,Colour_Asymmetry_Pilot,2022.1.3,Win32,60.3427468,62bbe60bf3d75ef465d3e404,0,153,153,33,1,onethree,,,,,,,,,,,,,,,,,,,,,,,,,,,,,,,,,,,,,,,,,,,,,,,,,,,,,,,,,,,,,,,,,,,,,,,,,,,,,,,,,,,,,,,,,,,,,,,,,,,,,,,,,,,,,,,,,,,,,,,,,,,,,,,,,,,,,,,,,,,,,,,,,,,,,,,,
,,,,,,5c0048442213be0001c2d579,62bbfa4c76c1b7c44c51f82f,2022-06-29_24h08.52.192,Colour_Asymmetry_Pilot,2022.1.3,Win32,60.3427468,62bbe60bf3d75ef465d3e404,0,154,154,148,1,threeone,,,,,,,,,,,,,,,,,,,,,,,,,,,,,,,,,,,,,,,,,,,,,,,,,,,,,,,,,,,,,,,,,,,,,,,,,,,,,,,,,,,,,,,,,,,,,,,,,,,,,,,,,,,,,,,,,,,,,,,,,,,,,,,,,,,,,,,,,,,,,,,,,,,,,,,,
,,,,,,5c0048442213be0001c2d579,62bbfa4c76c1b7c44c51f82f,2022-06-29_24h08.52.192,Colour_Asymmetry_Pilot,2022.1.3,Win32,60.3427468,62bbe60bf3d75ef465d3e404,0,155,155,118,1,fourtwo,,,,,,,,,,,,,,,,,,,,,,,,,,,,,,,,,,,,,,,,,,,,,,,,,,,,,,,,,,,,,,,,,,,,,,,,,,,,,,,,,,,,,,,,,,,,,,,,,,,,,,,,,,,,,,,,,,,,,,,,,,,,,,,,,,,,,,,,,,,,,,,,,,,,,,,,
,,,,,,5c0048442213be0001c2d579,62bbfa4c76c1b7c44c51f82f,2022-06-29_24h08.52.192,Colour_Asymmetry_Pilot,2022.1.3,Win32,60.3427468,62bbe60bf3d75ef465d3e404,0,156,156,111,1,fourthree,,,,,,,,,,,,,,,,,,,,,,,,,,,,,,,,,,,,,,,,,,,,,,,,,,,,,,,,,,,,,,,,,,,,,,,,,,,,,,,,,,,,,,,,,,,,,,,,,,,,,,,,,,,,,,,,,,,,,,,,,,,,,,,,,,,,,,,,,,,,,,,,,,,,,,,,
,,,,,,5c0048442213be0001c2d579,62bbfa4c76c1b7c44c51f82f,2022-06-29_24h08.52.192,Colour_Asymmetry_Pilot,2022.1.3,Win32,60.3427468,62bbe60bf3d75ef465d3e404,0,157,157,14,1,fourtwo,,,,,,,,,,,,,,,,,,,,,,,,,,,,,,,,,,,,,,,,,,,,,,,,,,,,,,,,,,,,,,,,,,,,,,,,,,,,,,,,,,,,,,,,,,,,,,,,,,,,,,,,,,,,,,,,,,,,,,,,,,,,,,,,,,,,,,,,,,,,,,,,,,,,,,,,
,,,,,,5c0048442213be0001c2d579,62bbfa4c76c1b7c44c51f82f,2022-06-29_24h08.52.192,Colour_Asymmetry_Pilot,2022.1.3,Win32,60.3427468,62bbe60bf3d75ef465d3e404,0,158,158,67,1,twofour,,,,,,,,,,,,,,,,,,,,,,,,,,,,,,,,,,,,,,,,,,,,,,,,,,,,,,,,,,,,,,,,,,,,,,,,,,,,,,,,,,,,,,,,,,,,,,,,,,,,,,,,,,,,,,,,,,,,,,,,,,,,,,,,,,,,,,,,,,,,,,,,,,,,,,,,
,,,,,,5c0048442213be0001c2d579,62bbfa4c76c1b7c44c51f82f,2022-06-29_24h08.52.192,Colour_Asymmetry_Pilot,2022.1.3,Win32,60.3427468,62bbe60bf3d75ef465d3e404,0,159,159,123,1,twofour,,,,,,,,,,,,,,,,,,,,,,,,,,,,,,,,,,,,,,,,,,,,,,,,,,,,,,,,,,,,,,,,,,,,,,,,,,,,,,,,,,,,,,,,,,,,,,,,,,,,,,,,,,,,,,,,,,,,,,,,,,,,,,,,,,,,,,,,,,,,,,,,,,,,,,,,
,,,,,,5c0048442213be0001c2d579,62bbfa4c76c1b7c44c51f82f,2022-06-29_24h08.52.192,Colour_Asymmetry_Pilot,2022.1.3,Win32,60.3427468,62bbe60bf3d75ef465d3e404,0,160,160,74,1,twoone,,,,,,,,,,,,,,,,,,,,,,,,,,,,,,,,,,,,,,,,,,,,,,,,,,,,,,,,,,,,,,,,,,,,,,,,,,,,,,,,,,,,,,,,,,,,,,,,,,,,,,,,,,,,,,,,,,,,,,,,,,,,,,,,,,,,,,,,,,,,,,,,,,,,,,,,
,,,,,,5c0048442213be0001c2d579,62bbfa4c76c1b7c44c51f82f,2022-06-29_24h08.52.192,Colour_Asymmetry_Pilot,2022.1.3,Win32,60.3427468,62bbe60bf3d75ef465d3e404,0,161,161,47,1,fourthree,,,,,,,,,,,,,,,,,,,,,,,,,,,,,,,,,,,,,,,,,,,,,,,,,,,,,,,,,,,,,,,,,,,,,,,,,,,,,,,,,,,,,,,,,,,,,,,,,,,,,,,,,,,,,,,,,,,,,,,,,,,,,,,,,,,,,,,,,,,,,,,,,,,,,,,,
,,,,,,5c0048442213be0001c2d579,62bbfa4c76c1b7c44c51f82f,2022-06-29_24h08.52.192,Colour_Asymmetry_Pilot,2022.1.3,Win32,60.3427468,62bbe60bf3d75ef465d3e404,,,,,,,space,1.8829,space,4.1916,space,35.4738,space,8.6248,space,124.1607,space,12.8034,"[0.34099999999999997,0.12939999999999996,-0.9766]",fourthree,"[-0.7412000000000001,-0.08239999999999992,-0.6864]",-2,9.7041,-121.5999756,-55.20001221,1,0,0,response5disk_5,0.799987793,-4.799987793,1,0,0,rectangle_8,0.799987793,-4.799987793,1,0,0,2,0.799987793,-4.799987793,1,0,0,0,0,0,0,1,,,,,,,,,,,,,,,,,,,,,,,,,,,,,,,,,,,,,,,,,,,,,,,,,,,,,,,,,,,,,,,,,,,,,,,,,,,,,,,,,,,,,,,,,,,,,,,,,,,,,,,,,,,
,,,,,,5c0048442213be0001c2d579,62bbfa4c76c1b7c44c51f82f,2022-06-29_24h08.52.192,Colour_Asymmetry_Pilot,2022.1.3,Win32,60.3427468,62bbe60bf3d75ef465d3e404,,,,,,,,,,,,,,,,,,,"[-0.8118,-0.8198,-0.5452]",twofour,"[0.9686000000000001,0.3802000000000001,0.19999999999999996]",-3,5.1159,-89.59997559,77.6000061,1,0,0,response7disk_5,-8.799987793,15.20001221,1,0,0,rectangle_8,-8.799987793,15.20001221,1,0,0,2,-8.799987793,15.20001221,1,0,0,1,0,1,0,1,,,,,,,,,,,,,,,,,,,,,,,,,,,,,,,,,,,,,,,,,,,,,,,,,,,,,,,,,,,,,,,,,,,,,,,,,,,,,,,,,,,,,,,,,,,,,,,,,,,,,,,,,,,
,,,,,,5c0048442213be0001c2d579,62bbfa4c76c1b7c44c51f82f,2022-06-29_24h08.52.192,Colour_Asymmetry_Pilot,2022.1.3,Win32,60.3427468,62bbe60bf3d75ef465d3e404,,,,,,,,,,,,,,,,,,,"[-0.10599999999999998,-0.15300000000000002,0.15280000000000005]",threefour,"[0.37240000000000006,0.4980000000000002,-0.2864]",-4,2.3496,-57.59997559,105.6000061,1,0,0,response7disk_5,-8,-9.600036621,1,0,0,rectangle_8,-8,-9.600036621,1,0,0,2,-8,-9.600036621,1,0,0,2,0,2,0,1,,,,,,,,,,,,,,,,,,,,,,,,,,,,,,,,,,,,,,,,,,,,,,,,,,,,,,,,,,,,,,,,,,,,,,,,,,,,,,,,,,,,,,,,,,,,,,,,,,,,,,,,,,,
,,,,,,5c0048442213be0001c2d579,62bbfa4c76c1b7c44c51f82f,2022-06-29_24h08.52.192,Colour_Asymmetry_Pilot,2022.1.3,Win32,60.3427468,62bbe60bf3d75ef465d3e404,,,,,,,,,,,,,,,,,,,"[0.9372,0.20779999999999998,0.2704]",fourthree,"[-0.8198,-0.5138,-0.7492000000000001]",-4,1.7168,-91.20001221,135.1999817,1,0,0,response7disk_5,15.20001221,-8,1,0,0,rectangle_8,151.2000732,-63.20001221,1,0,0,2,19.20001221,4,1,0,0,3,0,3,0,1,response3disk_7,5,rectangle_4,,,,,,,,,,,,,,,,,,,,,,,,,,,,,,,,,,,,,,,,,,,,,,,,,,,,,,,,,,,,,,,,,,,,,,,,,,,,,,,,,,,,,,,,,,,,,,,,,,,,,,,,
,,,,,,5c0048442213be0001c2d579,62bbfa4c76c1b7c44c51f82f,2022-06-29_24h08.52.192,Colour_Asymmetry_Pilot,2022.1.3,Win32,60.3427468,62bbe60bf3d75ef465d3e404,,,,,,,,,,,,,,,,,,,"[-0.4276,0.0038000000000000256,-0.3256]",twofour,"[-0.09019999999999995,0.44300000000000006,0.5371999999999999]",1,3.8514,87.20007324,-138.4000244,1,0,0,response3disk_5,12.79998779,5.599975586,1,0,0,rectangle_8,12.79998779,5.599975586,1,0,0,2,12.79998779,5.599975586,1,0,0,4,0,4,0,1,,,,,,,,,,,,,,,,,,,,,,,,,,,,,,,,,,,,,,,,,,,,,,,,,,,,,,,,,,,,,,,,,,,,,,,,,,,,,,,,,,,,,,,,,,,,,,,,,,,,,,,,,,,
,,,,,,5c0048442213be0001c2d579,62bbfa4c76c1b7c44c51f82f,2022-06-29_24h08.52.192,Colour_Asymmetry_Pilot,2022.1.3,Win32,60.3427468,62bbe60bf3d75ef465d3e404,,,,,,,,,,,,,,,,,,,"[-0.17659999999999998,0.3253999999999999,0.19999999999999996]",twoone,"[-0.6235999999999999,-0.6786,-0.08239999999999992]",2,1.2926,159.2000732,-76.79998779,1,0,0,response3disk_5,-31.20001221,1.599975586,1,0,0,rectangle_8,123.2000732,-44.79998779,1,0,0,2,18.40002441,-12,1,0,0,5,0,5,0,1,response3disk_7,5,rectangle_4,,,,,,,,,,,,,,,,,,,,,,,,,,,,,,,,,,,,,,,,,,,,,,,,,,,,,,,,,,,,,,,,,,,,,,,,,,,,,,,,,,,,,,,,,,,,,,,,,,,,,,,,
,,,,,,5c0048442213be0001c2d579,62bbfa4c76c1b7c44c51f82f,2022-06-29_24h08.52.192,Colour_Asymmetry_Pilot,2022.1.3,Win32,60.3427468,62bbe60bf3d75ef465d3e404,,,,,,,,,,,,,,,,,,,"[-0.20799999999999996,-0.655,-0.01980000000000004]",twofour,"[-0.9296,-0.12959999999999994,-0.043199999999999905]",1,2.3821,72.80004883,-96.79998779,1,0,0,response3disk_5,12.79998779,-11.20001221,1,0,0,rectangle_8,12.79998779,-11.20001221,1,0,0,2,12.79998779,-11.20001221,1,0,0,6,0,6,0,1,,,,,,,,,,,,,,,,,,,,,,,,,,,,,,,,,,,,,,,,,,,,,,,,,,,,,,,,,,,,,,,,,,,,,,,,,,,,,,,,,,,,,,,,,,,,,,,,,,,,,,,,,,,
,,,,,,5c0048442213be0001c2d579,62bbfa4c76c1b7c44c51f82f,2022-06-29_24h08.52.192,Colour_Asymmetry_Pilot,2022.1.3,Win32,60.3427468,62bbe60bf3d75ef465d3e404,,,,,,,,,,,,,,,,,,,,onethree,,-1,4.9016,,,,,,,,,,,,,,,,,,,,,,,,,,,,,,,,space,8.5457,"[-0.38039999999999996,-0.4276,-0.1452]","[-0.24719999999999998,0.5213999999999999,-0.12959999999999994]",-37.59997559,-132.7999878,1,0,0,response5disk,-4,-4.799987793,1,0,0,rectangle,-4,-4.799987793,1,0,0,,1,0.007,0,-4,-4.799987793,1,0,0,0,0,0,94,1,13,second,,,,,,,,,,,,,,,,,,,,,,,,,,,,,,,,,,,,,,,,,,,,,,,,,,,,,,,,,,,,,,,,,,,
,,,,,,5c0048442213be0001c2d579,62bbfa4c76c1b7c44c51f82f,2022-06-29_24h08.52.192,Colour_Asymmetry_Pilot,2022.1.3,Win32,60.3427468,62bbe60bf3d75ef465d3e404,,,,,,,,,,,,,,,,,,,,fourtwo,,3,1.0497,,,,,,,,,,,,,,,,,,,,,,,,,,,,,,,,,,"[-0.10599999999999998,-0.15300000000000002,0.15280000000000005]","[-0.9766,-0.6472,0.07440000000000002]",104.8000488,37.6000061,1,0,0,response1disk,11.20001221,-2.400024414,1,0,0,rectangle,11.20001221,-2.400024414,1,0,0,,3,0.0026,0,11.20001221,-2.400024414,1,0,0,0,1,1,95,1,14,second,,,,,,,,,,,,,,,,,,,,,,,,,,,,,,,,,,,,,,,,,,,,,,,,,,,,,,,,,,,,,,,,,,,
,,,,,,5c0048442213be0001c2d579,62bbfa4c76c1b7c44c51f82f,2022-06-29_24h08.52.192,Colour_Asymmetry_Pilot,2022.1.3,Win32,60.3427468,62bbe60bf3d75ef465d3e404,,,,,,,,,,,,,,,,,,,,onetwo,,3,1.0013,,,,,,,,,,,,,,,,,,,,,,,,,,,,,,,,,,"[0.9213999999999998,0.6391999999999998,-0.9922]","[1,0.12939999999999996,-1]",104,45.6000061,1,0,0,response1disk,-20,0.799987793,1,0,0,rectangle,-20,0.799987793,1,0,0,,3,0.0004,0,-20,0.799987793,1,0,0,0,2,2,146,1,65,second,,,,,,,,,,,,,,,,,,,,,,,,,,,,,,,,,,,,,,,,,,,,,,,,,,,,,,,,,,,,,,,,,,,
,,,,,,5c0048442213be0001c2d579,62bbfa4c76c1b7c44c51f82f,2022-06-29_24h08.52.192,Colour_Asymmetry_Pilot,2022.1.3,Win32,60.3427468,62bbe60bf3d75ef465d3e404,,,,,,,,,,,,,,,,,,,,twoone,,1,1.2493,,,,,,,,,,,,,,,,,,,,,,,,,,,,,,,,,,"[0.6625999999999999,0.4980000000000002,-0.357]","[0.2784,-0.31000000000000005,-0.5452]",76.80004883,-98.40002441,1,0,0,response3disk,23.20001221,-15.20001221,1,0,0,rectangle,139.2000732,-66.40002441,1,0,0,2,2,1.5679,1,19.20001221,12,1,0,0,0,3,3,159,1,78,second,response3disk_3,rectangle,,,,,,,,,,,,,,,,,,,,,,,,,,,,,,,,,,,,,,,,,,,,,,,,,,,,,,,,,,,,,,,,,
,,,,,,5c0048442213be0001c2d579,62bbfa4c76c1b7c44c51f82f,2022-06-29_24h08.52.192,Colour_Asymmetry_Pilot,2022.1.3,Win32,60.3427468,62bbe60bf3d75ef465d3e404,,,,,,,,,,,,,,,,,,,,fourtwo,,4,2.9324,,,,,,,,,,,,,,,,,,,,,,,,,,,,,,,,,,"[0.37240000000000006,-0.050999999999999934,-0.5216]","[-0.06680000000000008,-0.45100000000000007,-0.906]",79.20007324,112,1,0,0,response1disk,-5.599975586,8,1,0,0,rectangle,-5.599975586,8,1,0,0,2,1,0.0024,0,-5.599975586,8,1,0,0,0,4,4,90,1,9,second,,,,,,,,,,,,,,,,,,,,,,,,,,,,,,,,,,,,,,,,,,,,,,,,,,,,,,,,,,,,,,,,,,,
,,,,,,5c0048442213be0001c2d579,62bbfa4c76c1b7c44c51f82f,2022-06-29_24h08.52.192,Colour_Asymmetry_Pilot,2022.1.3,Win32,60.3427468,62bbe60bf3d75ef465d3e404,,,,,,,,,,,,,,,,,,,,twofour,,4,1.1491,,,,,,,,,,,,,,,,,,,,,,,,,,,,,,,,,,"[0.9763999999999999,0.8588,-0.05900000000000005]","[0.34099999999999997,0.12939999999999996,-0.9766]",60.79998779,125.6000061,1,0,0,response1disk,16,-0.799987793,1,0,0,rectangle,16,-0.799987793,1,0,0,2,1,0.0005,0,16,-0.799987793,1,0,0,0,5,5,123,1,42,second,,,,,,,,,,,,,,,,,,,,,,,,,,,,,,,,,,,,,,,,,,,,,,,,,,,,,,,,,,,,,,,,,,,
,,,,,,5c0048442213be0001c2d579,62bbfa4c76c1b7c44c51f82f,2022-06-29_24h08.52.192,Colour_Asymmetry_Pilot,2022.1.3,Win32,60.3427468,62bbe60bf3d75ef465d3e404,,,,,,,,,,,,,,,,,,,,twofour,,-4,1.1003,,,,,,,,,,,,,,,,,,,,,,,,,,,,,,,,,,"[0.7646000000000002,0.07440000000000002,0.2704]","[-0.4902000000000001,0.2704,-0.45899999999999996]",-40.79998779,75.19998169,1,0,0,response7disk,4,11.20001221,1,0,0,rectangle,4,11.20001221,1,0,0,2,2,0.0021,0,4,11.20001221,1,0,0,0,6,6,122,1,41,second,,,,,,,,,,,,,,,,,,,,,,,,,,,,,,,,,,,,,,,,,,,,,,,,,,,,,,,,,,,,,,,,,,,
,,,,,,5c0048442213be0001c2d579,62bbfa4c76c1b7c44c51f82f,2022-06-29_24h08.52.192,Colour_Asymmetry_Pilot,2022.1.3,Win32,60.3427468,62bbe60bf3d75ef465d3e404,,,,,,,,,,,,,,,,,,,,fourthree,,1,1.1692,,,,,,,,,,,,,,,,,,,,,,,,,,,,,,,,,,"[0.8115999999999999,-0.0040000000000000036,-0.09819999999999995]","[0.796,0.2156,-0.27859999999999996]",27.20001221,-123.2000122,1,0,0,response3disk,-9.599975586,-12,1,0,0,rectangle,-9.599975586,-12,1,0,0,2,3,0.0021,0,-9.599975586,-12,1,0,0,0,7,7,79,1,79,first,,,,,,,,,,,,,,,,,,,,,,,,,,,,,,,,,,,,,,,,,,,,,,,,,,,,,,,,,,,,,,,,,,,
,,,,,,5c0048442213be0001c2d579,62bbfa4c76c1b7c44c51f82f,2022-06-29_24h08.52.192,Colour_Asymmetry_Pilot,2022.1.3,Win32,60.3427468,62bbe60bf3d75ef465d3e404,,,,,,,,,,,,,,,,,,,,twofour,,-1,1.448,,,,,,,,,,,,,,,,,,,,,,,,,,,,,,,,,,"[0.05879999999999996,0.2784,0.5841999999999998]","[-0.6706000000000001,-0.6157999999999999,-0.6786]",-39.20001221,-96,1,0,0,response5disk,22.40002441,0.799987793,1,0,0,rectangle,22.40002441,0.799987793,1,0,0,2,1,0.0021,0,22.40002441,0.799987793,1,0,0,0,8,8,107,1,26,second,,,,,,,,,,,,,,,,,,,,,,,,,,,,,,,,,,,,,,,,,,,,,,,,,,,,,,,,,,,,,,,,,,,
,,,,,,5c0048442213be0001c2d579,62bbfa4c76c1b7c44c51f82f,2022-06-29_24h08.52.192,Colour_Asymmetry_Pilot,2022.1.3,Win32,60.3427468,62bbe60bf3d75ef465d3e404,,,,,,,,,,,,,,,,,,,,twofour,,-1,1.1991,,,,,,,,,,,,,,,,,,,,,,,,,,,,,,,,,,"[-0.9138,-0.5296000000000001,-0.5529999999999999]","[0.7018,0.7802,-0.16079999999999994]",-35.20001221,-90.40002441,1,0,0,response5disk,11.20001221,-4,1,0,0,rectangle,11.20001221,-4,1,0,0,2,1,0.0006,0,11.20001221,-4,1,0,0,0,9,9,81,1,0,second,,,,,,,,,,,,,,,,,,,,,,,,,,,,,,,,,,,,,,,,,,,,,,,,,,,,,,,,,,,,,,,,,,,
,,,,,,5c0048442213be0001c2d579,62bbfa4c76c1b7c44c51f82f,2022-06-29_24h08.52.192,Colour_Asymmetry_Pilot,2022.1.3,Win32,60.3427468,62bbe60bf3d75ef465d3e404,,,,,,,,,,,,,,,,,,,,threefour,,3,1.1462,,,,,,,,,,,,,,,,,,,,,,,,,,,,,,,,,,"[0.2862,0.7802,0.3568]","[-0.5688,-0.08239999999999992,-0.1844]",76,59.19998169,1,0,0,response1disk,12,21.59997559,1,0,0,rectangle,12,21.59997559,1,0,0,2,1,0.0005,0,12,21.59997559,1,0,0,0,10,10,30,1,30,first,,,,,,,,,,,,,,,,,,,,,,,,,,,,,,,,,,,,,,,,,,,,,,,,,,,,,,,,,,,,,,,,,,,
,,,,,,5c0048442213be0001c2d579,62bbfa4c76c1b7c44c51f82f,2022-06-29_24h08.52.192,Colour_Asymmetry_Pilot,2022.1.3,Win32,60.3427468,62bbe60bf3d75ef465d3e404,,,,,,,,,,,,,,,,,,,,onethree,,-1,0.95,,,,,,,,,,,,,,,,,,,,,,,,,,,,,,,,,,"[-0.4276,0.0038000000000000256,-0.3256]","[-0.01980000000000004,-0.5138,-0.38039999999999996]",-43.20001221,-88.79998779,1,0,0,response5disk,-1.599975586,-0.799987793,1,0,0,rectangle,-1.599975586,-0.799987793,1,0,0,2,1,0.0003,0,-1.599975586,-0.799987793,1,0,0,0,11,11,110,1,29,second,,,,,,,,,,,,,,,,,,,,,,,,,,,,,,,,,,,,,,,,,,,,,,,,,,,,,,,,,,,,,,,,,,,
,,,,,,5c0048442213be0001c2d579,62bbfa4c76c1b7c44c51f82f,2022-06-29_24h08.52.192,Colour_Asymmetry_Pilot,2022.1.3,Win32,60.3427468,62bbe60bf3d75ef465d3e404,,,,,,,,,,,,,,,,,,,,onethree,,1,1.1652,,,,,,,,,,,,,,,,,,,,,,,,,,,,,,,,,,"[0.3881999999999999,-0.23939999999999995,-0.05040000000000011]","[0.9686000000000001,0.3802000000000001,0.19999999999999996]",56,-98.40002441,1,0,0,response3disk,8,-4,1,0,0,rectangle,8,-4,1,0,0,2,1,0.0005,0,8,-4,1,0,0,0,12,12,92,1,11,second,,,,,,,,,,,,,,,,,,,,,,,,,,,,,,,,,,,,,,,,,,,,,,,,,,,,,,,,,,,,,,,,,,,
,,,,,,5c0048442213be0001c2d579,62bbfa4c76c1b7c44c51f82f,2022-06-29_24h08.52.192,Colour_Asymmetry_Pilot,2022.1.3,Win32,60.3427468,62bbe60bf3d75ef465d3e404,,,,,,,,,,,,,,,,,,,,threeone,,-3,1.0344,,,,,,,,,,,,,,,,,,,,,,,,,,,,,,,,,,"[-0.050999999999999934,-0.6706000000000001,-0.804]","[-0.9688,-0.4902000000000001,-0.12159999999999993]",-116.7999878,36,1,0,0,response7disk,-28.79998779,4.799987793,1,0,0,rectangle,-28.79998779,4.799987793,1,0,0,2,3,0.002,0,-28.79998779,4.799987793,1,0,0,0,13,13,8,1,8,first,,,,,,,,,,,,,,,,,,,,,,,,,,,,,,,,,,,,,,,,,,,,,,,,,,,,,,,,,,,,,,,,,,,
,,,,,,5c0048442213be0001c2d579,62bbfa4c76c1b7c44c51f82f,2022-06-29_24h08.52.192,Colour_Asymmetry_Pilot,2022.1.3,Win32,60.3427468,62bbe60bf3d75ef465d3e404,,,,,,,,,,,,,,,,,,,,onetwo,,-3,0.665,,,,,,,,,,,,,,,,,,,,,,,,,,,,,,,,,,"[-0.07459999999999989,0.12139999999999995,-0.9922]","[0.9686000000000001,0.3802000000000001,0.19999999999999996]",-129.5999756,44.79998779,1,0,0,response7disk,2.400024414,12,1,0,0,rectangle,2.400024414,12,1,0,0,2,1,0.002,0,2.400024414,12,1,0,0,0,14,14,66,1,66,first,,,,,,,,,,,,,,,,,,,,,,,,,,,,,,,,,,,,,,,,,,,,,,,,,,,,,,,,,,,,,,,,,,,
,,,,,,5c0048442213be0001c2d579,62bbfa4c76c1b7c44c51f82f,2022-06-29_24h08.52.192,Colour_Asymmetry_Pilot,2022.1.3,Win32,60.3427468,62bbe60bf3d75ef465d3e404,,,,,,,,,,,,,,,,,,,,fourthree,,1,1.1168,,,,,,,,,,,,,,,,,,,,,,,,,,,,,,,,,,"[0.796,0.2156,-0.27859999999999996]","[0.8115999999999999,-0.0040000000000000036,-0.09819999999999995]",59.20001221,-84.79998779,1,0,0,response3disk,15.20001221,0,1,0,0,rectangle,68.80004883,-136,1,0,0,1,1,2.068,1,14.40002441,-4.799987793,1,0,0,0,15,15,160,1,79,second,response3disk_3,rectangle,,,,,,,,,,,,,,,,,,,,,,,,,,,,,,,,,,,,,,,,,,,,,,,,,,,,,,,,,,,,,,,,,
,,,,,,5c0048442213be0001c2d579,62bbfa4c76c1b7c44c51f82f,2022-06-29_24h08.52.192,Colour_Asymmetry_Pilot,2022.1.3,Win32,60.3427468,62bbe60bf3d75ef465d3e404,,,,,,,,,,,,,,,,,,,,onethree,,1,0.4648,,,,,,,,,,,,,,,,,,,,,,,,,,,,,,,,,,"[-0.9766,-0.34920000000000007,0.2156]","[0.3881999999999999,-0.23939999999999995,-0.05040000000000011]",46.40002441,-88.79998779,1,0,0,response3disk,19.20001221,-13.60003662,1,0,0,rectangle,19.20001221,-13.60003662,1,0,0,1,1,0.0003,0,19.20001221,-13.60003662,1,0,0,0,16,16,45,1,45,first,,,,,,,,,,,,,,,,,,,,,,,,,,,,,,,,,,,,,,,,,,,,,,,,,,,,,,,,,,,,,,,,,,,
,,,,,,5c0048442213be0001c2d579,62bbfa4c76c1b7c44c51f82f,2022-06-29_24h08.52.192,Colour_Asymmetry_Pilot,2022.1.3,Win32,60.3427468,62bbe60bf3d75ef465d3e404,,,,,,,,,,,,,,,,,,,,onetwo,,3,0.7838,,,,,,,,,,,,,,,,,,,,,,,,,,,,,,,,,,"[-0.48240000000000005,0.3175999999999999,0.2156]","[-0.9296,-0.12959999999999994,-0.043199999999999905]",123.2000732,76,1,0,0,response1disk,8.799987793,4.799987793,1,0,0,rectangle,8.799987793,4.799987793,1,0,0,1,3,0.0023,0,8.799987793,4.799987793,1,0,0,0,17,17,133,1,52,second,,,,,,,,,,,,,,,,,,,,,,,,,,,,,,,,,,,,,,,,,,,,,,,,,,,,,,,,,,,,,,,,,,,
