trials.thisRepN,trials.thisTrialN,trials.thisN,trials.thisIndex,trials.ran,Colourcodes,participant,session,date,expName,psychopyVersion,OS,frameRate,study_id,trials_4.thisRepN,trials_4.thisTrialN,trials_4.thisN,trials_4.thisIndex,trials_4.ran,StimulusPos,key_resp.keys,key_resp.rt,key_resp_2.keys,key_resp_2.rt,key_resp_15.keys,key_resp_15.rt,key_resp_17.keys,key_resp_17.rt,key_resp_9.keys,key_resp_9.rt,key_resp_10.keys,key_resp_10.rt,Circle1_col,Ecc,Circle2_col,similarity,response_time,mouse_5.x,mouse_5.y,mouse_5.leftButton,mouse_5.midButton,mouse_5.rightButton,mouse_5.clicked_name,mouse_10.x,mouse_10.y,mouse_10.leftButton,mouse_10.midButton,mouse_10.rightButton,mouse_10.clicked_name,mouse_7.x,mouse_7.y,mouse_7.leftButton,mouse_7.midButton,mouse_7.rightButton,catchnumberprac,mouse_6.x,mouse_6.y,mouse_6.leftButton,mouse_6.midButton,mouse_6.rightButton,duringprac.thisRepN,duringprac.thisTrialN,duringprac.thisN,duringprac.thisIndex,duringprac.ran,mouse_7.clicked_name,catchprac,mouse_6.clicked_name,key_resp_22.keys,key_resp_22.rt,Circle1_colour,Circle2_colour,mouse.x,mouse.y,mouse.leftButton,mouse.midButton,mouse.rightButton,mouse.clicked_name,mouse_2.x,mouse_2.y,mouse_2.leftButton,mouse_2.midButton,mouse_2.rightButton,mouse_2.clicked_name,mouse_3.x,mouse_3.y,mouse_3.leftButton,mouse_3.midButton,mouse_3.rightButton,mouse_3.clicked_name,catchresponse,catchnumber,response_time_catch,Catch,mouse_11.x,mouse_11.y,mouse_11.leftButton,mouse_11.midButton,mouse_11.rightButton,mouse_11.clicked_name,trials_2.thisRepN,trials_2.thisTrialN,trials_2.thisN,trials_2.thisIndex,trials_2.ran,Colourpair,Temporder,trials_3.thisRepN,trials_3.thisTrialN,trials_3.thisN,trials_3.thisIndex,trials_3.ran,key_resp_instr_Ishi.keys,key_resp_instr_Ishi.rt,Ishi_trial_keyresp.keys,Ishi_trial_keyresp.rt,Ishi_textbox.text,Ishi_loop.thisRepN,Ishi_loop.thisTrialN,Ishi_loop.thisN,Ishi_loop.thisIndex,Ishi_loop.ran,imageaddress,textbox.text,mouse_4.x,mouse_4.y,mouse_4.leftButton,mouse_4.midButton,mouse_4.rightButton,mouse_4.clicked_name,textbox_2.text,mouse_8.x,mouse_8.y,mouse_8.leftButton,mouse_8.midButton,mouse_8.rightButton,mouse_8.clicked_name,textbox_3.text,mouse_9.x,mouse_9.y,mouse_9.leftButton,mouse_9.midButton,mouse_9.rightButton,mouse_9.clicked_name,textbox_4.text,mouse_12.x,mouse_12.y,mouse_12.leftButton,mouse_12.midButton,mouse_12.rightButton,mouse_12.clicked_name,textbox_5.text,mouse_13.x,mouse_13.y,mouse_13.leftButton,mouse_13.midButton,mouse_13.rightButton,mouse_13.clicked_name,textbox_6.text,mouse_14.x,mouse_14.y,mouse_14.leftButton,mouse_14.midButton,mouse_14.rightButton,mouse_14.clicked_name,textbox_7.text,mouse_15.x,mouse_15.y,mouse_15.leftButton,mouse_15.midButton,mouse_15.rightButton,mouse_15.clicked_name
0,0,0,68,1,,61561b5d9502ee82a057dcd2,62bbf971e2f920426a82a262,2022-06-29_09h05.02.833,Colour_Asymmetry_Pilot,2022.1.3,Win32,59.18560606,62bbe60bf3d75ef465d3e404,,,,,,,,,,,,,,,,,,,,,,,,,,,,,,,,,,,,,,,,,,,,,,,,,,,,,,,,,,,,,,,,,,,,,,,,,,,,,,,,,,,,,,,,,,,,,,,,,,,,,,,,,,,,,,,,,,,,,,,,,,,,,,,,,,,,,,,,,,,,,,,,,,,,,,,,,,,,,,
0,1,1,86,1,,61561b5d9502ee82a057dcd2,62bbf971e2f920426a82a262,2022-06-29_09h05.02.833,Colour_Asymmetry_Pilot,2022.1.3,Win32,59.18560606,62bbe60bf3d75ef465d3e404,,,,,,,,,,,,,,,,,,,,,,,,,,,,,,,,,,,,,,,,,,,,,,,,,,,,,,,,,,,,,,,,,,,,,,,,,,,,,,,,,,,,,,,,,,,,,,,,,,,,,,,,,,,,,,,,,,,,,,,,,,,,,,,,,,,,,,,,,,,,,,,,,,,,,,,,,,,,,,
0,2,2,8,1,,61561b5d9502ee82a057dcd2,62bbf971e2f920426a82a262,2022-06-29_09h05.02.833,Colour_Asymmetry_Pilot,2022.1.3,Win32,59.18560606,62bbe60bf3d75ef465d3e404,,,,,,,,,,,,,,,,,,,,,,,,,,,,,,,,,,,,,,,,,,,,,,,,,,,,,,,,,,,,,,,,,,,,,,,,,,,,,,,,,,,,,,,,,,,,,,,,,,,,,,,,,,,,,,,,,,,,,,,,,,,,,,,,,,,,,,,,,,,,,,,,,,,,,,,,,,,,,,
0,3,3,7,1,,61561b5d9502ee82a057dcd2,62bbf971e2f920426a82a262,2022-06-29_09h05.02.833,Colour_Asymmetry_Pilot,2022.1.3,Win32,59.18560606,62bbe60bf3d75ef465d3e404,,,,,,,,,,,,,,,,,,,,,,,,,,,,,,,,,,,,,,,,,,,,,,,,,,,,,,,,,,,,,,,,,,,,,,,,,,,,,,,,,,,,,,,,,,,,,,,,,,,,,,,,,,,,,,,,,,,,,,,,,,,,,,,,,,,,,,,,,,,,,,,,,,,,,,,,,,,,,,
0,4,4,50,1,,61561b5d9502ee82a057dcd2,62bbf971e2f920426a82a262,2022-06-29_09h05.02.833,Colour_Asymmetry_Pilot,2022.1.3,Win32,59.18560606,62bbe60bf3d75ef465d3e404,,,,,,,,,,,,,,,,,,,,,,,,,,,,,,,,,,,,,,,,,,,,,,,,,,,,,,,,,,,,,,,,,,,,,,,,,,,,,,,,,,,,,,,,,,,,,,,,,,,,,,,,,,,,,,,,,,,,,,,,,,,,,,,,,,,,,,,,,,,,,,,,,,,,,,,,,,,,,,
0,5,5,37,1,,61561b5d9502ee82a057dcd2,62bbf971e2f920426a82a262,2022-06-29_09h05.02.833,Colour_Asymmetry_Pilot,2022.1.3,Win32,59.18560606,62bbe60bf3d75ef465d3e404,,,,,,,,,,,,,,,,,,,,,,,,,,,,,,,,,,,,,,,,,,,,,,,,,,,,,,,,,,,,,,,,,,,,,,,,,,,,,,,,,,,,,,,,,,,,,,,,,,,,,,,,,,,,,,,,,,,,,,,,,,,,,,,,,,,,,,,,,,,,,,,,,,,,,,,,,,,,,,
0,6,6,81,1,,61561b5d9502ee82a057dcd2,62bbf971e2f920426a82a262,2022-06-29_09h05.02.833,Colour_Asymmetry_Pilot,2022.1.3,Win32,59.18560606,62bbe60bf3d75ef465d3e404,,,,,,,,,,,,,,,,,,,,,,,,,,,,,,,,,,,,,,,,,,,,,,,,,,,,,,,,,,,,,,,,,,,,,,,,,,,,,,,,,,,,,,,,,,,,,,,,,,,,,,,,,,,,,,,,,,,,,,,,,,,,,,,,,,,,,,,,,,,,,,,,,,,,,,,,,,,,,,
0,7,7,16,1,,61561b5d9502ee82a057dcd2,62bbf971e2f920426a82a262,2022-06-29_09h05.02.833,Colour_Asymmetry_Pilot,2022.1.3,Win32,59.18560606,62bbe60bf3d75ef465d3e404,,,,,,,,,,,,,,,,,,,,,,,,,,,,,,,,,,,,,,,,,,,,,,,,,,,,,,,,,,,,,,,,,,,,,,,,,,,,,,,,,,,,,,,,,,,,,,,,,,,,,,,,,,,,,,,,,,,,,,,,,,,,,,,,,,,,,,,,,,,,,,,,,,,,,,,,,,,,,,
0,8,8,20,1,,61561b5d9502ee82a057dcd2,62bbf971e2f920426a82a262,2022-06-29_09h05.02.833,Colour_Asymmetry_Pilot,2022.1.3,Win32,59.18560606,62bbe60bf3d75ef465d3e404,,,,,,,,,,,,,,,,,,,,,,,,,,,,,,,,,,,,,,,,,,,,,,,,,,,,,,,,,,,,,,,,,,,,,,,,,,,,,,,,,,,,,,,,,,,,,,,,,,,,,,,,,,,,,,,,,,,,,,,,,,,,,,,,,,,,,,,,,,,,,,,,,,,,,,,,,,,,,,
0,9,9,31,1,,61561b5d9502ee82a057dcd2,62bbf971e2f920426a82a262,2022-06-29_09h05.02.833,Colour_Asymmetry_Pilot,2022.1.3,Win32,59.18560606,62bbe60bf3d75ef465d3e404,,,,,,,,,,,,,,,,,,,,,,,,,,,,,,,,,,,,,,,,,,,,,,,,,,,,,,,,,,,,,,,,,,,,,,,,,,,,,,,,,,,,,,,,,,,,,,,,,,,,,,,,,,,,,,,,,,,,,,,,,,,,,,,,,,,,,,,,,,,,,,,,,,,,,,,,,,,,,,
0,10,10,79,1,,61561b5d9502ee82a057dcd2,62bbf971e2f920426a82a262,2022-06-29_09h05.02.833,Colour_Asymmetry_Pilot,2022.1.3,Win32,59.18560606,62bbe60bf3d75ef465d3e404,,,,,,,,,,,,,,,,,,,,,,,,,,,,,,,,,,,,,,,,,,,,,,,,,,,,,,,,,,,,,,,,,,,,,,,,,,,,,,,,,,,,,,,,,,,,,,,,,,,,,,,,,,,,,,,,,,,,,,,,,,,,,,,,,,,,,,,,,,,,,,,,,,,,,,,,,,,,,,
0,11,11,11,1,,61561b5d9502ee82a057dcd2,62bbf971e2f920426a82a262,2022-06-29_09h05.02.833,Colour_Asymmetry_Pilot,2022.1.3,Win32,59.18560606,62bbe60bf3d75ef465d3e404,,,,,,,,,,,,,,,,,,,,,,,,,,,,,,,,,,,,,,,,,,,,,,,,,,,,,,,,,,,,,,,,,,,,,,,,,,,,,,,,,,,,,,,,,,,,,,,,,,,,,,,,,,,,,,,,,,,,,,,,,,,,,,,,,,,,,,,,,,,,,,,,,,,,,,,,,,,,,,
0,12,12,2,1,,61561b5d9502ee82a057dcd2,62bbf971e2f920426a82a262,2022-06-29_09h05.02.833,Colour_Asymmetry_Pilot,2022.1.3,Win32,59.18560606,62bbe60bf3d75ef465d3e404,,,,,,,,,,,,,,,,,,,,,,,,,,,,,,,,,,,,,,,,,,,,,,,,,,,,,,,,,,,,,,,,,,,,,,,,,,,,,,,,,,,,,,,,,,,,,,,,,,,,,,,,,,,,,,,,,,,,,,,,,,,,,,,,,,,,,,,,,,,,,,,,,,,,,,,,,,,,,,
0,13,13,22,1,,61561b5d9502ee82a057dcd2,62bbf971e2f920426a82a262,2022-06-29_09h05.02.833,Colour_Asymmetry_Pilot,2022.1.3,Win32,59.18560606,62bbe60bf3d75ef465d3e404,,,,,,,,,,,,,,,,,,,,,,,,,,,,,,,,,,,,,,,,,,,,,,,,,,,,,,,,,,,,,,,,,,,,,,,,,,,,,,,,,,,,,,,,,,,,,,,,,,,,,,,,,,,,,,,,,,,,,,,,,,,,,,,,,,,,,,,,,,,,,,,,,,,,,,,,,,,,,,
0,14,14,48,1,,61561b5d9502ee82a057dcd2,62bbf971e2f920426a82a262,2022-06-29_09h05.02.833,Colour_Asymmetry_Pilot,2022.1.3,Win32,59.18560606,62bbe60bf3d75ef465d3e404,,,,,,,,,,,,,,,,,,,,,,,,,,,,,,,,,,,,,,,,,,,,,,,,,,,,,,,,,,,,,,,,,,,,,,,,,,,,,,,,,,,,,,,,,,,,,,,,,,,,,,,,,,,,,,,,,,,,,,,,,,,,,,,,,,,,,,,,,,,,,,,,,,,,,,,,,,,,,,
0,15,15,43,1,,61561b5d9502ee82a057dcd2,62bbf971e2f920426a82a262,2022-06-29_09h05.02.833,Colour_Asymmetry_Pilot,2022.1.3,Win32,59.18560606,62bbe60bf3d75ef465d3e404,,,,,,,,,,,,,,,,,,,,,,,,,,,,,,,,,,,,,,,,,,,,,,,,,,,,,,,,,,,,,,,,,,,,,,,,,,,,,,,,,,,,,,,,,,,,,,,,,,,,,,,,,,,,,,,,,,,,,,,,,,,,,,,,,,,,,,,,,,,,,,,,,,,,,,,,,,,,,,
0,16,16,12,1,,61561b5d9502ee82a057dcd2,62bbf971e2f920426a82a262,2022-06-29_09h05.02.833,Colour_Asymmetry_Pilot,2022.1.3,Win32,59.18560606,62bbe60bf3d75ef465d3e404,,,,,,,,,,,,,,,,,,,,,,,,,,,,,,,,,,,,,,,,,,,,,,,,,,,,,,,,,,,,,,,,,,,,,,,,,,,,,,,,,,,,,,,,,,,,,,,,,,,,,,,,,,,,,,,,,,,,,,,,,,,,,,,,,,,,,,,,,,,,,,,,,,,,,,,,,,,,,,
0,17,17,66,1,,61561b5d9502ee82a057dcd2,62bbf971e2f920426a82a262,2022-06-29_09h05.02.833,Colour_Asymmetry_Pilot,2022.1.3,Win32,59.18560606,62bbe60bf3d75ef465d3e404,,,,,,,,,,,,,,,,,,,,,,,,,,,,,,,,,,,,,,,,,,,,,,,,,,,,,,,,,,,,,,,,,,,,,,,,,,,,,,,,,,,,,,,,,,,,,,,,,,,,,,,,,,,,,,,,,,,,,,,,,,,,,,,,,,,,,,,,,,,,,,,,,,,,,,,,,,,,,,
0,18,18,9,1,,61561b5d9502ee82a057dcd2,62bbf971e2f920426a82a262,2022-06-29_09h05.02.833,Colour_Asymmetry_Pilot,2022.1.3,Win32,59.18560606,62bbe60bf3d75ef465d3e404,,,,,,,,,,,,,,,,,,,,,,,,,,,,,,,,,,,,,,,,,,,,,,,,,,,,,,,,,,,,,,,,,,,,,,,,,,,,,,,,,,,,,,,,,,,,,,,,,,,,,,,,,,,,,,,,,,,,,,,,,,,,,,,,,,,,,,,,,,,,,,,,,,,,,,,,,,,,,,
0,19,19,63,1,,61561b5d9502ee82a057dcd2,62bbf971e2f920426a82a262,2022-06-29_09h05.02.833,Colour_Asymmetry_Pilot,2022.1.3,Win32,59.18560606,62bbe60bf3d75ef465d3e404,,,,,,,,,,,,,,,,,,,,,,,,,,,,,,,,,,,,,,,,,,,,,,,,,,,,,,,,,,,,,,,,,,,,,,,,,,,,,,,,,,,,,,,,,,,,,,,,,,,,,,,,,,,,,,,,,,,,,,,,,,,,,,,,,,,,,,,,,,,,,,,,,,,,,,,,,,,,,,
0,20,20,78,1,,61561b5d9502ee82a057dcd2,62bbf971e2f920426a82a262,2022-06-29_09h05.02.833,Colour_Asymmetry_Pilot,2022.1.3,Win32,59.18560606,62bbe60bf3d75ef465d3e404,,,,,,,,,,,,,,,,,,,,,,,,,,,,,,,,,,,,,,,,,,,,,,,,,,,,,,,,,,,,,,,,,,,,,,,,,,,,,,,,,,,,,,,,,,,,,,,,,,,,,,,,,,,,,,,,,,,,,,,,,,,,,,,,,,,,,,,,,,,,,,,,,,,,,,,,,,,,,,
0,21,21,76,1,,61561b5d9502ee82a057dcd2,62bbf971e2f920426a82a262,2022-06-29_09h05.02.833,Colour_Asymmetry_Pilot,2022.1.3,Win32,59.18560606,62bbe60bf3d75ef465d3e404,,,,,,,,,,,,,,,,,,,,,,,,,,,,,,,,,,,,,,,,,,,,,,,,,,,,,,,,,,,,,,,,,,,,,,,,,,,,,,,,,,,,,,,,,,,,,,,,,,,,,,,,,,,,,,,,,,,,,,,,,,,,,,,,,,,,,,,,,,,,,,,,,,,,,,,,,,,,,,
0,22,22,0,1,,61561b5d9502ee82a057dcd2,62bbf971e2f920426a82a262,2022-06-29_09h05.02.833,Colour_Asymmetry_Pilot,2022.1.3,Win32,59.18560606,62bbe60bf3d75ef465d3e404,,,,,,,,,,,,,,,,,,,,,,,,,,,,,,,,,,,,,,,,,,,,,,,,,,,,,,,,,,,,,,,,,,,,,,,,,,,,,,,,,,,,,,,,,,,,,,,,,,,,,,,,,,,,,,,,,,,,,,,,,,,,,,,,,,,,,,,,,,,,,,,,,,,,,,,,,,,,,,
0,23,23,4,1,,61561b5d9502ee82a057dcd2,62bbf971e2f920426a82a262,2022-06-29_09h05.02.833,Colour_Asymmetry_Pilot,2022.1.3,Win32,59.18560606,62bbe60bf3d75ef465d3e404,,,,,,,,,,,,,,,,,,,,,,,,,,,,,,,,,,,,,,,,,,,,,,,,,,,,,,,,,,,,,,,,,,,,,,,,,,,,,,,,,,,,,,,,,,,,,,,,,,,,,,,,,,,,,,,,,,,,,,,,,,,,,,,,,,,,,,,,,,,,,,,,,,,,,,,,,,,,,,
0,24,24,92,1,,61561b5d9502ee82a057dcd2,62bbf971e2f920426a82a262,2022-06-29_09h05.02.833,Colour_Asymmetry_Pilot,2022.1.3,Win32,59.18560606,62bbe60bf3d75ef465d3e404,,,,,,,,,,,,,,,,,,,,,,,,,,,,,,,,,,,,,,,,,,,,,,,,,,,,,,,,,,,,,,,,,,,,,,,,,,,,,,,,,,,,,,,,,,,,,,,,,,,,,,,,,,,,,,,,,,,,,,,,,,,,,,,,,,,,,,,,,,,,,,,,,,,,,,,,,,,,,,
0,25,25,51,1,,61561b5d9502ee82a057dcd2,62bbf971e2f920426a82a262,2022-06-29_09h05.02.833,Colour_Asymmetry_Pilot,2022.1.3,Win32,59.18560606,62bbe60bf3d75ef465d3e404,,,,,,,,,,,,,,,,,,,,,,,,,,,,,,,,,,,,,,,,,,,,,,,,,,,,,,,,,,,,,,,,,,,,,,,,,,,,,,,,,,,,,,,,,,,,,,,,,,,,,,,,,,,,,,,,,,,,,,,,,,,,,,,,,,,,,,,,,,,,,,,,,,,,,,,,,,,,,,
0,26,26,21,1,,61561b5d9502ee82a057dcd2,62bbf971e2f920426a82a262,2022-06-29_09h05.02.833,Colour_Asymmetry_Pilot,2022.1.3,Win32,59.18560606,62bbe60bf3d75ef465d3e404,,,,,,,,,,,,,,,,,,,,,,,,,,,,,,,,,,,,,,,,,,,,,,,,,,,,,,,,,,,,,,,,,,,,,,,,,,,,,,,,,,,,,,,,,,,,,,,,,,,,,,,,,,,,,,,,,,,,,,,,,,,,,,,,,,,,,,,,,,,,,,,,,,,,,,,,,,,,,,
0,27,27,61,1,,61561b5d9502ee82a057dcd2,62bbf971e2f920426a82a262,2022-06-29_09h05.02.833,Colour_Asymmetry_Pilot,2022.1.3,Win32,59.18560606,62bbe60bf3d75ef465d3e404,,,,,,,,,,,,,,,,,,,,,,,,,,,,,,,,,,,,,,,,,,,,,,,,,,,,,,,,,,,,,,,,,,,,,,,,,,,,,,,,,,,,,,,,,,,,,,,,,,,,,,,,,,,,,,,,,,,,,,,,,,,,,,,,,,,,,,,,,,,,,,,,,,,,,,,,,,,,,,
0,28,28,89,1,,61561b5d9502ee82a057dcd2,62bbf971e2f920426a82a262,2022-06-29_09h05.02.833,Colour_Asymmetry_Pilot,2022.1.3,Win32,59.18560606,62bbe60bf3d75ef465d3e404,,,,,,,,,,,,,,,,,,,,,,,,,,,,,,,,,,,,,,,,,,,,,,,,,,,,,,,,,,,,,,,,,,,,,,,,,,,,,,,,,,,,,,,,,,,,,,,,,,,,,,,,,,,,,,,,,,,,,,,,,,,,,,,,,,,,,,,,,,,,,,,,,,,,,,,,,,,,,,
0,29,29,55,1,,61561b5d9502ee82a057dcd2,62bbf971e2f920426a82a262,2022-06-29_09h05.02.833,Colour_Asymmetry_Pilot,2022.1.3,Win32,59.18560606,62bbe60bf3d75ef465d3e404,,,,,,,,,,,,,,,,,,,,,,,,,,,,,,,,,,,,,,,,,,,,,,,,,,,,,,,,,,,,,,,,,,,,,,,,,,,,,,,,,,,,,,,,,,,,,,,,,,,,,,,,,,,,,,,,,,,,,,,,,,,,,,,,,,,,,,,,,,,,,,,,,,,,,,,,,,,,,,
0,30,30,91,1,,61561b5d9502ee82a057dcd2,62bbf971e2f920426a82a262,2022-06-29_09h05.02.833,Colour_Asymmetry_Pilot,2022.1.3,Win32,59.18560606,62bbe60bf3d75ef465d3e404,,,,,,,,,,,,,,,,,,,,,,,,,,,,,,,,,,,,,,,,,,,,,,,,,,,,,,,,,,,,,,,,,,,,,,,,,,,,,,,,,,,,,,,,,,,,,,,,,,,,,,,,,,,,,,,,,,,,,,,,,,,,,,,,,,,,,,,,,,,,,,,,,,,,,,,,,,,,,,
0,31,31,19,1,,61561b5d9502ee82a057dcd2,62bbf971e2f920426a82a262,2022-06-29_09h05.02.833,Colour_Asymmetry_Pilot,2022.1.3,Win32,59.18560606,62bbe60bf3d75ef465d3e404,,,,,,,,,,,,,,,,,,,,,,,,,,,,,,,,,,,,,,,,,,,,,,,,,,,,,,,,,,,,,,,,,,,,,,,,,,,,,,,,,,,,,,,,,,,,,,,,,,,,,,,,,,,,,,,,,,,,,,,,,,,,,,,,,,,,,,,,,,,,,,,,,,,,,,,,,,,,,,
0,32,32,23,1,,61561b5d9502ee82a057dcd2,62bbf971e2f920426a82a262,2022-06-29_09h05.02.833,Colour_Asymmetry_Pilot,2022.1.3,Win32,59.18560606,62bbe60bf3d75ef465d3e404,,,,,,,,,,,,,,,,,,,,,,,,,,,,,,,,,,,,,,,,,,,,,,,,,,,,,,,,,,,,,,,,,,,,,,,,,,,,,,,,,,,,,,,,,,,,,,,,,,,,,,,,,,,,,,,,,,,,,,,,,,,,,,,,,,,,,,,,,,,,,,,,,,,,,,,,,,,,,,
0,33,33,6,1,,61561b5d9502ee82a057dcd2,62bbf971e2f920426a82a262,2022-06-29_09h05.02.833,Colour_Asymmetry_Pilot,2022.1.3,Win32,59.18560606,62bbe60bf3d75ef465d3e404,,,,,,,,,,,,,,,,,,,,,,,,,,,,,,,,,,,,,,,,,,,,,,,,,,,,,,,,,,,,,,,,,,,,,,,,,,,,,,,,,,,,,,,,,,,,,,,,,,,,,,,,,,,,,,,,,,,,,,,,,,,,,,,,,,,,,,,,,,,,,,,,,,,,,,,,,,,,,,
0,34,34,40,1,,61561b5d9502ee82a057dcd2,62bbf971e2f920426a82a262,2022-06-29_09h05.02.833,Colour_Asymmetry_Pilot,2022.1.3,Win32,59.18560606,62bbe60bf3d75ef465d3e404,,,,,,,,,,,,,,,,,,,,,,,,,,,,,,,,,,,,,,,,,,,,,,,,,,,,,,,,,,,,,,,,,,,,,,,,,,,,,,,,,,,,,,,,,,,,,,,,,,,,,,,,,,,,,,,,,,,,,,,,,,,,,,,,,,,,,,,,,,,,,,,,,,,,,,,,,,,,,,
0,35,35,70,1,,61561b5d9502ee82a057dcd2,62bbf971e2f920426a82a262,2022-06-29_09h05.02.833,Colour_Asymmetry_Pilot,2022.1.3,Win32,59.18560606,62bbe60bf3d75ef465d3e404,,,,,,,,,,,,,,,,,,,,,,,,,,,,,,,,,,,,,,,,,,,,,,,,,,,,,,,,,,,,,,,,,,,,,,,,,,,,,,,,,,,,,,,,,,,,,,,,,,,,,,,,,,,,,,,,,,,,,,,,,,,,,,,,,,,,,,,,,,,,,,,,,,,,,,,,,,,,,,
0,36,36,10,1,,61561b5d9502ee82a057dcd2,62bbf971e2f920426a82a262,2022-06-29_09h05.02.833,Colour_Asymmetry_Pilot,2022.1.3,Win32,59.18560606,62bbe60bf3d75ef465d3e404,,,,,,,,,,,,,,,,,,,,,,,,,,,,,,,,,,,,,,,,,,,,,,,,,,,,,,,,,,,,,,,,,,,,,,,,,,,,,,,,,,,,,,,,,,,,,,,,,,,,,,,,,,,,,,,,,,,,,,,,,,,,,,,,,,,,,,,,,,,,,,,,,,,,,,,,,,,,,,
0,37,37,90,1,,61561b5d9502ee82a057dcd2,62bbf971e2f920426a82a262,2022-06-29_09h05.02.833,Colour_Asymmetry_Pilot,2022.1.3,Win32,59.18560606,62bbe60bf3d75ef465d3e404,,,,,,,,,,,,,,,,,,,,,,,,,,,,,,,,,,,,,,,,,,,,,,,,,,,,,,,,,,,,,,,,,,,,,,,,,,,,,,,,,,,,,,,,,,,,,,,,,,,,,,,,,,,,,,,,,,,,,,,,,,,,,,,,,,,,,,,,,,,,,,,,,,,,,,,,,,,,,,
0,38,38,62,1,,61561b5d9502ee82a057dcd2,62bbf971e2f920426a82a262,2022-06-29_09h05.02.833,Colour_Asymmetry_Pilot,2022.1.3,Win32,59.18560606,62bbe60bf3d75ef465d3e404,,,,,,,,,,,,,,,,,,,,,,,,,,,,,,,,,,,,,,,,,,,,,,,,,,,,,,,,,,,,,,,,,,,,,,,,,,,,,,,,,,,,,,,,,,,,,,,,,,,,,,,,,,,,,,,,,,,,,,,,,,,,,,,,,,,,,,,,,,,,,,,,,,,,,,,,,,,,,,
0,39,39,15,1,,61561b5d9502ee82a057dcd2,62bbf971e2f920426a82a262,2022-06-29_09h05.02.833,Colour_Asymmetry_Pilot,2022.1.3,Win32,59.18560606,62bbe60bf3d75ef465d3e404,,,,,,,,,,,,,,,,,,,,,,,,,,,,,,,,,,,,,,,,,,,,,,,,,,,,,,,,,,,,,,,,,,,,,,,,,,,,,,,,,,,,,,,,,,,,,,,,,,,,,,,,,,,,,,,,,,,,,,,,,,,,,,,,,,,,,,,,,,,,,,,,,,,,,,,,,,,,,,
0,40,40,34,1,,61561b5d9502ee82a057dcd2,62bbf971e2f920426a82a262,2022-06-29_09h05.02.833,Colour_Asymmetry_Pilot,2022.1.3,Win32,59.18560606,62bbe60bf3d75ef465d3e404,,,,,,,,,,,,,,,,,,,,,,,,,,,,,,,,,,,,,,,,,,,,,,,,,,,,,,,,,,,,,,,,,,,,,,,,,,,,,,,,,,,,,,,,,,,,,,,,,,,,,,,,,,,,,,,,,,,,,,,,,,,,,,,,,,,,,,,,,,,,,,,,,,,,,,,,,,,,,,
0,41,41,57,1,,61561b5d9502ee82a057dcd2,62bbf971e2f920426a82a262,2022-06-29_09h05.02.833,Colour_Asymmetry_Pilot,2022.1.3,Win32,59.18560606,62bbe60bf3d75ef465d3e404,,,,,,,,,,,,,,,,,,,,,,,,,,,,,,,,,,,,,,,,,,,,,,,,,,,,,,,,,,,,,,,,,,,,,,,,,,,,,,,,,,,,,,,,,,,,,,,,,,,,,,,,,,,,,,,,,,,,,,,,,,,,,,,,,,,,,,,,,,,,,,,,,,,,,,,,,,,,,,
0,42,42,35,1,,61561b5d9502ee82a057dcd2,62bbf971e2f920426a82a262,2022-06-29_09h05.02.833,Colour_Asymmetry_Pilot,2022.1.3,Win32,59.18560606,62bbe60bf3d75ef465d3e404,,,,,,,,,,,,,,,,,,,,,,,,,,,,,,,,,,,,,,,,,,,,,,,,,,,,,,,,,,,,,,,,,,,,,,,,,,,,,,,,,,,,,,,,,,,,,,,,,,,,,,,,,,,,,,,,,,,,,,,,,,,,,,,,,,,,,,,,,,,,,,,,,,,,,,,,,,,,,,
0,43,43,39,1,,61561b5d9502ee82a057dcd2,62bbf971e2f920426a82a262,2022-06-29_09h05.02.833,Colour_Asymmetry_Pilot,2022.1.3,Win32,59.18560606,62bbe60bf3d75ef465d3e404,,,,,,,,,,,,,,,,,,,,,,,,,,,,,,,,,,,,,,,,,,,,,,,,,,,,,,,,,,,,,,,,,,,,,,,,,,,,,,,,,,,,,,,,,,,,,,,,,,,,,,,,,,,,,,,,,,,,,,,,,,,,,,,,,,,,,,,,,,,,,,,,,,,,,,,,,,,,,,
0,44,44,64,1,,61561b5d9502ee82a057dcd2,62bbf971e2f920426a82a262,2022-06-29_09h05.02.833,Colour_Asymmetry_Pilot,2022.1.3,Win32,59.18560606,62bbe60bf3d75ef465d3e404,,,,,,,,,,,,,,,,,,,,,,,,,,,,,,,,,,,,,,,,,,,,,,,,,,,,,,,,,,,,,,,,,,,,,,,,,,,,,,,,,,,,,,,,,,,,,,,,,,,,,,,,,,,,,,,,,,,,,,,,,,,,,,,,,,,,,,,,,,,,,,,,,,,,,,,,,,,,,,
0,45,45,13,1,,61561b5d9502ee82a057dcd2,62bbf971e2f920426a82a262,2022-06-29_09h05.02.833,Colour_Asymmetry_Pilot,2022.1.3,Win32,59.18560606,62bbe60bf3d75ef465d3e404,,,,,,,,,,,,,,,,,,,,,,,,,,,,,,,,,,,,,,,,,,,,,,,,,,,,,,,,,,,,,,,,,,,,,,,,,,,,,,,,,,,,,,,,,,,,,,,,,,,,,,,,,,,,,,,,,,,,,,,,,,,,,,,,,,,,,,,,,,,,,,,,,,,,,,,,,,,,,,
0,46,46,88,1,,61561b5d9502ee82a057dcd2,62bbf971e2f920426a82a262,2022-06-29_09h05.02.833,Colour_Asymmetry_Pilot,2022.1.3,Win32,59.18560606,62bbe60bf3d75ef465d3e404,,,,,,,,,,,,,,,,,,,,,,,,,,,,,,,,,,,,,,,,,,,,,,,,,,,,,,,,,,,,,,,,,,,,,,,,,,,,,,,,,,,,,,,,,,,,,,,,,,,,,,,,,,,,,,,,,,,,,,,,,,,,,,,,,,,,,,,,,,,,,,,,,,,,,,,,,,,,,,
0,47,47,56,1,,61561b5d9502ee82a057dcd2,62bbf971e2f920426a82a262,2022-06-29_09h05.02.833,Colour_Asymmetry_Pilot,2022.1.3,Win32,59.18560606,62bbe60bf3d75ef465d3e404,,,,,,,,,,,,,,,,,,,,,,,,,,,,,,,,,,,,,,,,,,,,,,,,,,,,,,,,,,,,,,,,,,,,,,,,,,,,,,,,,,,,,,,,,,,,,,,,,,,,,,,,,,,,,,,,,,,,,,,,,,,,,,,,,,,,,,,,,,,,,,,,,,,,,,,,,,,,,,
0,48,48,59,1,,61561b5d9502ee82a057dcd2,62bbf971e2f920426a82a262,2022-06-29_09h05.02.833,Colour_Asymmetry_Pilot,2022.1.3,Win32,59.18560606,62bbe60bf3d75ef465d3e404,,,,,,,,,,,,,,,,,,,,,,,,,,,,,,,,,,,,,,,,,,,,,,,,,,,,,,,,,,,,,,,,,,,,,,,,,,,,,,,,,,,,,,,,,,,,,,,,,,,,,,,,,,,,,,,,,,,,,,,,,,,,,,,,,,,,,,,,,,,,,,,,,,,,,,,,,,,,,,
0,49,49,41,1,,61561b5d9502ee82a057dcd2,62bbf971e2f920426a82a262,2022-06-29_09h05.02.833,Colour_Asymmetry_Pilot,2022.1.3,Win32,59.18560606,62bbe60bf3d75ef465d3e404,,,,,,,,,,,,,,,,,,,,,,,,,,,,,,,,,,,,,,,,,,,,,,,,,,,,,,,,,,,,,,,,,,,,,,,,,,,,,,,,,,,,,,,,,,,,,,,,,,,,,,,,,,,,,,,,,,,,,,,,,,,,,,,,,,,,,,,,,,,,,,,,,,,,,,,,,,,,,,
0,50,50,77,1,,61561b5d9502ee82a057dcd2,62bbf971e2f920426a82a262,2022-06-29_09h05.02.833,Colour_Asymmetry_Pilot,2022.1.3,Win32,59.18560606,62bbe60bf3d75ef465d3e404,,,,,,,,,,,,,,,,,,,,,,,,,,,,,,,,,,,,,,,,,,,,,,,,,,,,,,,,,,,,,,,,,,,,,,,,,,,,,,,,,,,,,,,,,,,,,,,,,,,,,,,,,,,,,,,,,,,,,,,,,,,,,,,,,,,,,,,,,,,,,,,,,,,,,,,,,,,,,,
0,51,51,42,1,,61561b5d9502ee82a057dcd2,62bbf971e2f920426a82a262,2022-06-29_09h05.02.833,Colour_Asymmetry_Pilot,2022.1.3,Win32,59.18560606,62bbe60bf3d75ef465d3e404,,,,,,,,,,,,,,,,,,,,,,,,,,,,,,,,,,,,,,,,,,,,,,,,,,,,,,,,,,,,,,,,,,,,,,,,,,,,,,,,,,,,,,,,,,,,,,,,,,,,,,,,,,,,,,,,,,,,,,,,,,,,,,,,,,,,,,,,,,,,,,,,,,,,,,,,,,,,,,
0,52,52,33,1,,61561b5d9502ee82a057dcd2,62bbf971e2f920426a82a262,2022-06-29_09h05.02.833,Colour_Asymmetry_Pilot,2022.1.3,Win32,59.18560606,62bbe60bf3d75ef465d3e404,,,,,,,,,,,,,,,,,,,,,,,,,,,,,,,,,,,,,,,,,,,,,,,,,,,,,,,,,,,,,,,,,,,,,,,,,,,,,,,,,,,,,,,,,,,,,,,,,,,,,,,,,,,,,,,,,,,,,,,,,,,,,,,,,,,,,,,,,,,,,,,,,,,,,,,,,,,,,,
0,53,53,82,1,,61561b5d9502ee82a057dcd2,62bbf971e2f920426a82a262,2022-06-29_09h05.02.833,Colour_Asymmetry_Pilot,2022.1.3,Win32,59.18560606,62bbe60bf3d75ef465d3e404,,,,,,,,,,,,,,,,,,,,,,,,,,,,,,,,,,,,,,,,,,,,,,,,,,,,,,,,,,,,,,,,,,,,,,,,,,,,,,,,,,,,,,,,,,,,,,,,,,,,,,,,,,,,,,,,,,,,,,,,,,,,,,,,,,,,,,,,,,,,,,,,,,,,,,,,,,,,,,
0,54,54,25,1,,61561b5d9502ee82a057dcd2,62bbf971e2f920426a82a262,2022-06-29_09h05.02.833,Colour_Asymmetry_Pilot,2022.1.3,Win32,59.18560606,62bbe60bf3d75ef465d3e404,,,,,,,,,,,,,,,,,,,,,,,,,,,,,,,,,,,,,,,,,,,,,,,,,,,,,,,,,,,,,,,,,,,,,,,,,,,,,,,,,,,,,,,,,,,,,,,,,,,,,,,,,,,,,,,,,,,,,,,,,,,,,,,,,,,,,,,,,,,,,,,,,,,,,,,,,,,,,,
0,55,55,3,1,,61561b5d9502ee82a057dcd2,62bbf971e2f920426a82a262,2022-06-29_09h05.02.833,Colour_Asymmetry_Pilot,2022.1.3,Win32,59.18560606,62bbe60bf3d75ef465d3e404,,,,,,,,,,,,,,,,,,,,,,,,,,,,,,,,,,,,,,,,,,,,,,,,,,,,,,,,,,,,,,,,,,,,,,,,,,,,,,,,,,,,,,,,,,,,,,,,,,,,,,,,,,,,,,,,,,,,,,,,,,,,,,,,,,,,,,,,,,,,,,,,,,,,,,,,,,,,,,
0,56,56,46,1,,61561b5d9502ee82a057dcd2,62bbf971e2f920426a82a262,2022-06-29_09h05.02.833,Colour_Asymmetry_Pilot,2022.1.3,Win32,59.18560606,62bbe60bf3d75ef465d3e404,,,,,,,,,,,,,,,,,,,,,,,,,,,,,,,,,,,,,,,,,,,,,,,,,,,,,,,,,,,,,,,,,,,,,,,,,,,,,,,,,,,,,,,,,,,,,,,,,,,,,,,,,,,,,,,,,,,,,,,,,,,,,,,,,,,,,,,,,,,,,,,,,,,,,,,,,,,,,,
0,57,57,54,1,,61561b5d9502ee82a057dcd2,62bbf971e2f920426a82a262,2022-06-29_09h05.02.833,Colour_Asymmetry_Pilot,2022.1.3,Win32,59.18560606,62bbe60bf3d75ef465d3e404,,,,,,,,,,,,,,,,,,,,,,,,,,,,,,,,,,,,,,,,,,,,,,,,,,,,,,,,,,,,,,,,,,,,,,,,,,,,,,,,,,,,,,,,,,,,,,,,,,,,,,,,,,,,,,,,,,,,,,,,,,,,,,,,,,,,,,,,,,,,,,,,,,,,,,,,,,,,,,
0,58,58,87,1,,61561b5d9502ee82a057dcd2,62bbf971e2f920426a82a262,2022-06-29_09h05.02.833,Colour_Asymmetry_Pilot,2022.1.3,Win32,59.18560606,62bbe60bf3d75ef465d3e404,,,,,,,,,,,,,,,,,,,,,,,,,,,,,,,,,,,,,,,,,,,,,,,,,,,,,,,,,,,,,,,,,,,,,,,,,,,,,,,,,,,,,,,,,,,,,,,,,,,,,,,,,,,,,,,,,,,,,,,,,,,,,,,,,,,,,,,,,,,,,,,,,,,,,,,,,,,,,,
0,59,59,67,1,,61561b5d9502ee82a057dcd2,62bbf971e2f920426a82a262,2022-06-29_09h05.02.833,Colour_Asymmetry_Pilot,2022.1.3,Win32,59.18560606,62bbe60bf3d75ef465d3e404,,,,,,,,,,,,,,,,,,,,,,,,,,,,,,,,,,,,,,,,,,,,,,,,,,,,,,,,,,,,,,,,,,,,,,,,,,,,,,,,,,,,,,,,,,,,,,,,,,,,,,,,,,,,,,,,,,,,,,,,,,,,,,,,,,,,,,,,,,,,,,,,,,,,,,,,,,,,,,
0,60,60,80,1,,61561b5d9502ee82a057dcd2,62bbf971e2f920426a82a262,2022-06-29_09h05.02.833,Colour_Asymmetry_Pilot,2022.1.3,Win32,59.18560606,62bbe60bf3d75ef465d3e404,,,,,,,,,,,,,,,,,,,,,,,,,,,,,,,,,,,,,,,,,,,,,,,,,,,,,,,,,,,,,,,,,,,,,,,,,,,,,,,,,,,,,,,,,,,,,,,,,,,,,,,,,,,,,,,,,,,,,,,,,,,,,,,,,,,,,,,,,,,,,,,,,,,,,,,,,,,,,,
0,61,61,18,1,,61561b5d9502ee82a057dcd2,62bbf971e2f920426a82a262,2022-06-29_09h05.02.833,Colour_Asymmetry_Pilot,2022.1.3,Win32,59.18560606,62bbe60bf3d75ef465d3e404,,,,,,,,,,,,,,,,,,,,,,,,,,,,,,,,,,,,,,,,,,,,,,,,,,,,,,,,,,,,,,,,,,,,,,,,,,,,,,,,,,,,,,,,,,,,,,,,,,,,,,,,,,,,,,,,,,,,,,,,,,,,,,,,,,,,,,,,,,,,,,,,,,,,,,,,,,,,,,
0,62,62,69,1,,61561b5d9502ee82a057dcd2,62bbf971e2f920426a82a262,2022-06-29_09h05.02.833,Colour_Asymmetry_Pilot,2022.1.3,Win32,59.18560606,62bbe60bf3d75ef465d3e404,,,,,,,,,,,,,,,,,,,,,,,,,,,,,,,,,,,,,,,,,,,,,,,,,,,,,,,,,,,,,,,,,,,,,,,,,,,,,,,,,,,,,,,,,,,,,,,,,,,,,,,,,,,,,,,,,,,,,,,,,,,,,,,,,,,,,,,,,,,,,,,,,,,,,,,,,,,,,,
0,63,63,71,1,,61561b5d9502ee82a057dcd2,62bbf971e2f920426a82a262,2022-06-29_09h05.02.833,Colour_Asymmetry_Pilot,2022.1.3,Win32,59.18560606,62bbe60bf3d75ef465d3e404,,,,,,,,,,,,,,,,,,,,,,,,,,,,,,,,,,,,,,,,,,,,,,,,,,,,,,,,,,,,,,,,,,,,,,,,,,,,,,,,,,,,,,,,,,,,,,,,,,,,,,,,,,,,,,,,,,,,,,,,,,,,,,,,,,,,,,,,,,,,,,,,,,,,,,,,,,,,,,
0,64,64,14,1,,61561b5d9502ee82a057dcd2,62bbf971e2f920426a82a262,2022-06-29_09h05.02.833,Colour_Asymmetry_Pilot,2022.1.3,Win32,59.18560606,62bbe60bf3d75ef465d3e404,,,,,,,,,,,,,,,,,,,,,,,,,,,,,,,,,,,,,,,,,,,,,,,,,,,,,,,,,,,,,,,,,,,,,,,,,,,,,,,,,,,,,,,,,,,,,,,,,,,,,,,,,,,,,,,,,,,,,,,,,,,,,,,,,,,,,,,,,,,,,,,,,,,,,,,,,,,,,,
0,65,65,24,1,,61561b5d9502ee82a057dcd2,62bbf971e2f920426a82a262,2022-06-29_09h05.02.833,Colour_Asymmetry_Pilot,2022.1.3,Win32,59.18560606,62bbe60bf3d75ef465d3e404,,,,,,,,,,,,,,,,,,,,,,,,,,,,,,,,,,,,,,,,,,,,,,,,,,,,,,,,,,,,,,,,,,,,,,,,,,,,,,,,,,,,,,,,,,,,,,,,,,,,,,,,,,,,,,,,,,,,,,,,,,,,,,,,,,,,,,,,,,,,,,,,,,,,,,,,,,,,,,
0,66,66,26,1,,61561b5d9502ee82a057dcd2,62bbf971e2f920426a82a262,2022-06-29_09h05.02.833,Colour_Asymmetry_Pilot,2022.1.3,Win32,59.18560606,62bbe60bf3d75ef465d3e404,,,,,,,,,,,,,,,,,,,,,,,,,,,,,,,,,,,,,,,,,,,,,,,,,,,,,,,,,,,,,,,,,,,,,,,,,,,,,,,,,,,,,,,,,,,,,,,,,,,,,,,,,,,,,,,,,,,,,,,,,,,,,,,,,,,,,,,,,,,,,,,,,,,,,,,,,,,,,,
0,67,67,74,1,,61561b5d9502ee82a057dcd2,62bbf971e2f920426a82a262,2022-06-29_09h05.02.833,Colour_Asymmetry_Pilot,2022.1.3,Win32,59.18560606,62bbe60bf3d75ef465d3e404,,,,,,,,,,,,,,,,,,,,,,,,,,,,,,,,,,,,,,,,,,,,,,,,,,,,,,,,,,,,,,,,,,,,,,,,,,,,,,,,,,,,,,,,,,,,,,,,,,,,,,,,,,,,,,,,,,,,,,,,,,,,,,,,,,,,,,,,,,,,,,,,,,,,,,,,,,,,,,
0,68,68,1,1,,61561b5d9502ee82a057dcd2,62bbf971e2f920426a82a262,2022-06-29_09h05.02.833,Colour_Asymmetry_Pilot,2022.1.3,Win32,59.18560606,62bbe60bf3d75ef465d3e404,,,,,,,,,,,,,,,,,,,,,,,,,,,,,,,,,,,,,,,,,,,,,,,,,,,,,,,,,,,,,,,,,,,,,,,,,,,,,,,,,,,,,,,,,,,,,,,,,,,,,,,,,,,,,,,,,,,,,,,,,,,,,,,,,,,,,,,,,,,,,,,,,,,,,,,,,,,,,,
0,69,69,17,1,,61561b5d9502ee82a057dcd2,62bbf971e2f920426a82a262,2022-06-29_09h05.02.833,Colour_Asymmetry_Pilot,2022.1.3,Win32,59.18560606,62bbe60bf3d75ef465d3e404,,,,,,,,,,,,,,,,,,,,,,,,,,,,,,,,,,,,,,,,,,,,,,,,,,,,,,,,,,,,,,,,,,,,,,,,,,,,,,,,,,,,,,,,,,,,,,,,,,,,,,,,,,,,,,,,,,,,,,,,,,,,,,,,,,,,,,,,,,,,,,,,,,,,,,,,,,,,,,
0,70,70,49,1,,61561b5d9502ee82a057dcd2,62bbf971e2f920426a82a262,2022-06-29_09h05.02.833,Colour_Asymmetry_Pilot,2022.1.3,Win32,59.18560606,62bbe60bf3d75ef465d3e404,,,,,,,,,,,,,,,,,,,,,,,,,,,,,,,,,,,,,,,,,,,,,,,,,,,,,,,,,,,,,,,,,,,,,,,,,,,,,,,,,,,,,,,,,,,,,,,,,,,,,,,,,,,,,,,,,,,,,,,,,,,,,,,,,,,,,,,,,,,,,,,,,,,,,,,,,,,,,,
0,71,71,36,1,,61561b5d9502ee82a057dcd2,62bbf971e2f920426a82a262,2022-06-29_09h05.02.833,Colour_Asymmetry_Pilot,2022.1.3,Win32,59.18560606,62bbe60bf3d75ef465d3e404,,,,,,,,,,,,,,,,,,,,,,,,,,,,,,,,,,,,,,,,,,,,,,,,,,,,,,,,,,,,,,,,,,,,,,,,,,,,,,,,,,,,,,,,,,,,,,,,,,,,,,,,,,,,,,,,,,,,,,,,,,,,,,,,,,,,,,,,,,,,,,,,,,,,,,,,,,,,,,
0,72,72,65,1,,61561b5d9502ee82a057dcd2,62bbf971e2f920426a82a262,2022-06-29_09h05.02.833,Colour_Asymmetry_Pilot,2022.1.3,Win32,59.18560606,62bbe60bf3d75ef465d3e404,,,,,,,,,,,,,,,,,,,,,,,,,,,,,,,,,,,,,,,,,,,,,,,,,,,,,,,,,,,,,,,,,,,,,,,,,,,,,,,,,,,,,,,,,,,,,,,,,,,,,,,,,,,,,,,,,,,,,,,,,,,,,,,,,,,,,,,,,,,,,,,,,,,,,,,,,,,,,,
0,73,73,73,1,,61561b5d9502ee82a057dcd2,62bbf971e2f920426a82a262,2022-06-29_09h05.02.833,Colour_Asymmetry_Pilot,2022.1.3,Win32,59.18560606,62bbe60bf3d75ef465d3e404,,,,,,,,,,,,,,,,,,,,,,,,,,,,,,,,,,,,,,,,,,,,,,,,,,,,,,,,,,,,,,,,,,,,,,,,,,,,,,,,,,,,,,,,,,,,,,,,,,,,,,,,,,,,,,,,,,,,,,,,,,,,,,,,,,,,,,,,,,,,,,,,,,,,,,,,,,,,,,
0,74,74,30,1,,61561b5d9502ee82a057dcd2,62bbf971e2f920426a82a262,2022-06-29_09h05.02.833,Colour_Asymmetry_Pilot,2022.1.3,Win32,59.18560606,62bbe60bf3d75ef465d3e404,,,,,,,,,,,,,,,,,,,,,,,,,,,,,,,,,,,,,,,,,,,,,,,,,,,,,,,,,,,,,,,,,,,,,,,,,,,,,,,,,,,,,,,,,,,,,,,,,,,,,,,,,,,,,,,,,,,,,,,,,,,,,,,,,,,,,,,,,,,,,,,,,,,,,,,,,,,,,,
0,75,75,60,1,,61561b5d9502ee82a057dcd2,62bbf971e2f920426a82a262,2022-06-29_09h05.02.833,Colour_Asymmetry_Pilot,2022.1.3,Win32,59.18560606,62bbe60bf3d75ef465d3e404,,,,,,,,,,,,,,,,,,,,,,,,,,,,,,,,,,,,,,,,,,,,,,,,,,,,,,,,,,,,,,,,,,,,,,,,,,,,,,,,,,,,,,,,,,,,,,,,,,,,,,,,,,,,,,,,,,,,,,,,,,,,,,,,,,,,,,,,,,,,,,,,,,,,,,,,,,,,,,
0,76,76,47,1,,61561b5d9502ee82a057dcd2,62bbf971e2f920426a82a262,2022-06-29_09h05.02.833,Colour_Asymmetry_Pilot,2022.1.3,Win32,59.18560606,62bbe60bf3d75ef465d3e404,,,,,,,,,,,,,,,,,,,,,,,,,,,,,,,,,,,,,,,,,,,,,,,,,,,,,,,,,,,,,,,,,,,,,,,,,,,,,,,,,,,,,,,,,,,,,,,,,,,,,,,,,,,,,,,,,,,,,,,,,,,,,,,,,,,,,,,,,,,,,,,,,,,,,,,,,,,,,,
0,77,77,53,1,,61561b5d9502ee82a057dcd2,62bbf971e2f920426a82a262,2022-06-29_09h05.02.833,Colour_Asymmetry_Pilot,2022.1.3,Win32,59.18560606,62bbe60bf3d75ef465d3e404,,,,,,,,,,,,,,,,,,,,,,,,,,,,,,,,,,,,,,,,,,,,,,,,,,,,,,,,,,,,,,,,,,,,,,,,,,,,,,,,,,,,,,,,,,,,,,,,,,,,,,,,,,,,,,,,,,,,,,,,,,,,,,,,,,,,,,,,,,,,,,,,,,,,,,,,,,,,,,
0,78,78,58,1,,61561b5d9502ee82a057dcd2,62bbf971e2f920426a82a262,2022-06-29_09h05.02.833,Colour_Asymmetry_Pilot,2022.1.3,Win32,59.18560606,62bbe60bf3d75ef465d3e404,,,,,,,,,,,,,,,,,,,,,,,,,,,,,,,,,,,,,,,,,,,,,,,,,,,,,,,,,,,,,,,,,,,,,,,,,,,,,,,,,,,,,,,,,,,,,,,,,,,,,,,,,,,,,,,,,,,,,,,,,,,,,,,,,,,,,,,,,,,,,,,,,,,,,,,,,,,,,,
0,79,79,27,1,,61561b5d9502ee82a057dcd2,62bbf971e2f920426a82a262,2022-06-29_09h05.02.833,Colour_Asymmetry_Pilot,2022.1.3,Win32,59.18560606,62bbe60bf3d75ef465d3e404,,,,,,,,,,,,,,,,,,,,,,,,,,,,,,,,,,,,,,,,,,,,,,,,,,,,,,,,,,,,,,,,,,,,,,,,,,,,,,,,,,,,,,,,,,,,,,,,,,,,,,,,,,,,,,,,,,,,,,,,,,,,,,,,,,,,,,,,,,,,,,,,,,,,,,,,,,,,,,
0,80,80,38,1,,61561b5d9502ee82a057dcd2,62bbf971e2f920426a82a262,2022-06-29_09h05.02.833,Colour_Asymmetry_Pilot,2022.1.3,Win32,59.18560606,62bbe60bf3d75ef465d3e404,,,,,,,,,,,,,,,,,,,,,,,,,,,,,,,,,,,,,,,,,,,,,,,,,,,,,,,,,,,,,,,,,,,,,,,,,,,,,,,,,,,,,,,,,,,,,,,,,,,,,,,,,,,,,,,,,,,,,,,,,,,,,,,,,,,,,,,,,,,,,,,,,,,,,,,,,,,,,,
0,81,81,45,1,,61561b5d9502ee82a057dcd2,62bbf971e2f920426a82a262,2022-06-29_09h05.02.833,Colour_Asymmetry_Pilot,2022.1.3,Win32,59.18560606,62bbe60bf3d75ef465d3e404,,,,,,,,,,,,,,,,,,,,,,,,,,,,,,,,,,,,,,,,,,,,,,,,,,,,,,,,,,,,,,,,,,,,,,,,,,,,,,,,,,,,,,,,,,,,,,,,,,,,,,,,,,,,,,,,,,,,,,,,,,,,,,,,,,,,,,,,,,,,,,,,,,,,,,,,,,,,,,
0,82,82,29,1,,61561b5d9502ee82a057dcd2,62bbf971e2f920426a82a262,2022-06-29_09h05.02.833,Colour_Asymmetry_Pilot,2022.1.3,Win32,59.18560606,62bbe60bf3d75ef465d3e404,,,,,,,,,,,,,,,,,,,,,,,,,,,,,,,,,,,,,,,,,,,,,,,,,,,,,,,,,,,,,,,,,,,,,,,,,,,,,,,,,,,,,,,,,,,,,,,,,,,,,,,,,,,,,,,,,,,,,,,,,,,,,,,,,,,,,,,,,,,,,,,,,,,,,,,,,,,,,,
0,83,83,28,1,,61561b5d9502ee82a057dcd2,62bbf971e2f920426a82a262,2022-06-29_09h05.02.833,Colour_Asymmetry_Pilot,2022.1.3,Win32,59.18560606,62bbe60bf3d75ef465d3e404,,,,,,,,,,,,,,,,,,,,,,,,,,,,,,,,,,,,,,,,,,,,,,,,,,,,,,,,,,,,,,,,,,,,,,,,,,,,,,,,,,,,,,,,,,,,,,,,,,,,,,,,,,,,,,,,,,,,,,,,,,,,,,,,,,,,,,,,,,,,,,,,,,,,,,,,,,,,,,
0,84,84,32,1,,61561b5d9502ee82a057dcd2,62bbf971e2f920426a82a262,2022-06-29_09h05.02.833,Colour_Asymmetry_Pilot,2022.1.3,Win32,59.18560606,62bbe60bf3d75ef465d3e404,,,,,,,,,,,,,,,,,,,,,,,,,,,,,,,,,,,,,,,,,,,,,,,,,,,,,,,,,,,,,,,,,,,,,,,,,,,,,,,,,,,,,,,,,,,,,,,,,,,,,,,,,,,,,,,,,,,,,,,,,,,,,,,,,,,,,,,,,,,,,,,,,,,,,,,,,,,,,,
0,85,85,75,1,,61561b5d9502ee82a057dcd2,62bbf971e2f920426a82a262,2022-06-29_09h05.02.833,Colour_Asymmetry_Pilot,2022.1.3,Win32,59.18560606,62bbe60bf3d75ef465d3e404,,,,,,,,,,,,,,,,,,,,,,,,,,,,,,,,,,,,,,,,,,,,,,,,,,,,,,,,,,,,,,,,,,,,,,,,,,,,,,,,,,,,,,,,,,,,,,,,,,,,,,,,,,,,,,,,,,,,,,,,,,,,,,,,,,,,,,,,,,,,,,,,,,,,,,,,,,,,,,
0,86,86,84,1,,61561b5d9502ee82a057dcd2,62bbf971e2f920426a82a262,2022-06-29_09h05.02.833,Colour_Asymmetry_Pilot,2022.1.3,Win32,59.18560606,62bbe60bf3d75ef465d3e404,,,,,,,,,,,,,,,,,,,,,,,,,,,,,,,,,,,,,,,,,,,,,,,,,,,,,,,,,,,,,,,,,,,,,,,,,,,,,,,,,,,,,,,,,,,,,,,,,,,,,,,,,,,,,,,,,,,,,,,,,,,,,,,,,,,,,,,,,,,,,,,,,,,,,,,,,,,,,,
0,87,87,44,1,,61561b5d9502ee82a057dcd2,62bbf971e2f920426a82a262,2022-06-29_09h05.02.833,Colour_Asymmetry_Pilot,2022.1.3,Win32,59.18560606,62bbe60bf3d75ef465d3e404,,,,,,,,,,,,,,,,,,,,,,,,,,,,,,,,,,,,,,,,,,,,,,,,,,,,,,,,,,,,,,,,,,,,,,,,,,,,,,,,,,,,,,,,,,,,,,,,,,,,,,,,,,,,,,,,,,,,,,,,,,,,,,,,,,,,,,,,,,,,,,,,,,,,,,,,,,,,,,
0,88,88,85,1,,61561b5d9502ee82a057dcd2,62bbf971e2f920426a82a262,2022-06-29_09h05.02.833,Colour_Asymmetry_Pilot,2022.1.3,Win32,59.18560606,62bbe60bf3d75ef465d3e404,,,,,,,,,,,,,,,,,,,,,,,,,,,,,,,,,,,,,,,,,,,,,,,,,,,,,,,,,,,,,,,,,,,,,,,,,,,,,,,,,,,,,,,,,,,,,,,,,,,,,,,,,,,,,,,,,,,,,,,,,,,,,,,,,,,,,,,,,,,,,,,,,,,,,,,,,,,,,,
0,89,89,83,1,,61561b5d9502ee82a057dcd2,62bbf971e2f920426a82a262,2022-06-29_09h05.02.833,Colour_Asymmetry_Pilot,2022.1.3,Win32,59.18560606,62bbe60bf3d75ef465d3e404,,,,,,,,,,,,,,,,,,,,,,,,,,,,,,,,,,,,,,,,,,,,,,,,,,,,,,,,,,,,,,,,,,,,,,,,,,,,,,,,,,,,,,,,,,,,,,,,,,,,,,,,,,,,,,,,,,,,,,,,,,,,,,,,,,,,,,,,,,,,,,,,,,,,,,,,,,,,,,
0,90,90,5,1,,61561b5d9502ee82a057dcd2,62bbf971e2f920426a82a262,2022-06-29_09h05.02.833,Colour_Asymmetry_Pilot,2022.1.3,Win32,59.18560606,62bbe60bf3d75ef465d3e404,,,,,,,,,,,,,,,,,,,,,,,,,,,,,,,,,,,,,,,,,,,,,,,,,,,,,,,,,,,,,,,,,,,,,,,,,,,,,,,,,,,,,,,,,,,,,,,,,,,,,,,,,,,,,,,,,,,,,,,,,,,,,,,,,,,,,,,,,,,,,,,,,,,,,,,,,,,,,,
0,91,91,72,1,,61561b5d9502ee82a057dcd2,62bbf971e2f920426a82a262,2022-06-29_09h05.02.833,Colour_Asymmetry_Pilot,2022.1.3,Win32,59.18560606,62bbe60bf3d75ef465d3e404,,,,,,,,,,,,,,,,,,,,,,,,,,,,,,,,,,,,,,,,,,,,,,,,,,,,,,,,,,,,,,,,,,,,,,,,,,,,,,,,,,,,,,,,,,,,,,,,,,,,,,,,,,,,,,,,,,,,,,,,,,,,,,,,,,,,,,,,,,,,,,,,,,,,,,,,,,,,,,
0,92,92,52,1,,61561b5d9502ee82a057dcd2,62bbf971e2f920426a82a262,2022-06-29_09h05.02.833,Colour_Asymmetry_Pilot,2022.1.3,Win32,59.18560606,62bbe60bf3d75ef465d3e404,,,,,,,,,,,,,,,,,,,,,,,,,,,,,,,,,,,,,,,,,,,,,,,,,,,,,,,,,,,,,,,,,,,,,,,,,,,,,,,,,,,,,,,,,,,,,,,,,,,,,,,,,,,,,,,,,,,,,,,,,,,,,,,,,,,,,,,,,,,,,,,,,,,,,,,,,,,,,,
,,,,,,61561b5d9502ee82a057dcd2,62bbf971e2f920426a82a262,2022-06-29_09h05.02.833,Colour_Asymmetry_Pilot,2022.1.3,Win32,59.18560606,62bbe60bf3d75ef465d3e404,0,0,0,6,1,fourtwo,,,,,,,,,,,,,,,,,,,,,,,,,,,,,,,,,,,,,,,,,,,,,,,,,,,,,,,,,,,,,,,,,,,,,,,,,,,,,,,,,,,,,,,,,,,,,,,,,,,,,,,,,,,,,,,,,,,,,,,,,,,,,,,,,,,,,,,,,,,,,,,,,,,,,,,,
,,,,,,61561b5d9502ee82a057dcd2,62bbf971e2f920426a82a262,2022-06-29_09h05.02.833,Colour_Asymmetry_Pilot,2022.1.3,Win32,59.18560606,62bbe60bf3d75ef465d3e404,0,1,1,34,1,twoone,,,,,,,,,,,,,,,,,,,,,,,,,,,,,,,,,,,,,,,,,,,,,,,,,,,,,,,,,,,,,,,,,,,,,,,,,,,,,,,,,,,,,,,,,,,,,,,,,,,,,,,,,,,,,,,,,,,,,,,,,,,,,,,,,,,,,,,,,,,,,,,,,,,,,,,,
,,,,,,61561b5d9502ee82a057dcd2,62bbf971e2f920426a82a262,2022-06-29_09h05.02.833,Colour_Asymmetry_Pilot,2022.1.3,Win32,59.18560606,62bbe60bf3d75ef465d3e404,0,2,2,104,1,onetwo,,,,,,,,,,,,,,,,,,,,,,,,,,,,,,,,,,,,,,,,,,,,,,,,,,,,,,,,,,,,,,,,,,,,,,,,,,,,,,,,,,,,,,,,,,,,,,,,,,,,,,,,,,,,,,,,,,,,,,,,,,,,,,,,,,,,,,,,,,,,,,,,,,,,,,,,
,,,,,,61561b5d9502ee82a057dcd2,62bbf971e2f920426a82a262,2022-06-29_09h05.02.833,Colour_Asymmetry_Pilot,2022.1.3,Win32,59.18560606,62bbe60bf3d75ef465d3e404,0,3,3,13,1,threefour,,,,,,,,,,,,,,,,,,,,,,,,,,,,,,,,,,,,,,,,,,,,,,,,,,,,,,,,,,,,,,,,,,,,,,,,,,,,,,,,,,,,,,,,,,,,,,,,,,,,,,,,,,,,,,,,,,,,,,,,,,,,,,,,,,,,,,,,,,,,,,,,,,,,,,,,
,,,,,,61561b5d9502ee82a057dcd2,62bbf971e2f920426a82a262,2022-06-29_09h05.02.833,Colour_Asymmetry_Pilot,2022.1.3,Win32,59.18560606,62bbe60bf3d75ef465d3e404,0,4,4,154,1,twoone,,,,,,,,,,,,,,,,,,,,,,,,,,,,,,,,,,,,,,,,,,,,,,,,,,,,,,,,,,,,,,,,,,,,,,,,,,,,,,,,,,,,,,,,,,,,,,,,,,,,,,,,,,,,,,,,,,,,,,,,,,,,,,,,,,,,,,,,,,,,,,,,,,,,,,,,
,,,,,,61561b5d9502ee82a057dcd2,62bbf971e2f920426a82a262,2022-06-29_09h05.02.833,Colour_Asymmetry_Pilot,2022.1.3,Win32,59.18560606,62bbe60bf3d75ef465d3e404,0,5,5,109,1,threefour,,,,,,,,,,,,,,,,,,,,,,,,,,,,,,,,,,,,,,,,,,,,,,,,,,,,,,,,,,,,,,,,,,,,,,,,,,,,,,,,,,,,,,,,,,,,,,,,,,,,,,,,,,,,,,,,,,,,,,,,,,,,,,,,,,,,,,,,,,,,,,,,,,,,,,,,
,,,,,,61561b5d9502ee82a057dcd2,62bbf971e2f920426a82a262,2022-06-29_09h05.02.833,Colour_Asymmetry_Pilot,2022.1.3,Win32,59.18560606,62bbe60bf3d75ef465d3e404,0,6,6,79,1,fourthree,,,,,,,,,,,,,,,,,,,,,,,,,,,,,,,,,,,,,,,,,,,,,,,,,,,,,,,,,,,,,,,,,,,,,,,,,,,,,,,,,,,,,,,,,,,,,,,,,,,,,,,,,,,,,,,,,,,,,,,,,,,,,,,,,,,,,,,,,,,,,,,,,,,,,,,,
,,,,,,61561b5d9502ee82a057dcd2,62bbf971e2f920426a82a262,2022-06-29_09h05.02.833,Colour_Asymmetry_Pilot,2022.1.3,Win32,59.18560606,62bbe60bf3d75ef465d3e404,0,7,7,33,1,onethree,,,,,,,,,,,,,,,,,,,,,,,,,,,,,,,,,,,,,,,,,,,,,,,,,,,,,,,,,,,,,,,,,,,,,,,,,,,,,,,,,,,,,,,,,,,,,,,,,,,,,,,,,,,,,,,,,,,,,,,,,,,,,,,,,,,,,,,,,,,,,,,,,,,,,,,,
,,,,,,61561b5d9502ee82a057dcd2,62bbf971e2f920426a82a262,2022-06-29_09h05.02.833,Colour_Asymmetry_Pilot,2022.1.3,Win32,59.18560606,62bbe60bf3d75ef465d3e404,0,8,8,70,1,fourtwo,,,,,,,,,,,,,,,,,,,,,,,,,,,,,,,,,,,,,,,,,,,,,,,,,,,,,,,,,,,,,,,,,,,,,,,,,,,,,,,,,,,,,,,,,,,,,,,,,,,,,,,,,,,,,,,,,,,,,,,,,,,,,,,,,,,,,,,,,,,,,,,,,,,,,,,,
,,,,,,61561b5d9502ee82a057dcd2,62bbf971e2f920426a82a262,2022-06-29_09h05.02.833,Colour_Asymmetry_Pilot,2022.1.3,Win32,59.18560606,62bbe60bf3d75ef465d3e404,0,9,9,43,1,twofour,,,,,,,,,,,,,,,,,,,,,,,,,,,,,,,,,,,,,,,,,,,,,,,,,,,,,,,,,,,,,,,,,,,,,,,,,,,,,,,,,,,,,,,,,,,,,,,,,,,,,,,,,,,,,,,,,,,,,,,,,,,,,,,,,,,,,,,,,,,,,,,,,,,,,,,,
,,,,,,61561b5d9502ee82a057dcd2,62bbf971e2f920426a82a262,2022-06-29_09h05.02.833,Colour_Asymmetry_Pilot,2022.1.3,Win32,59.18560606,62bbe60bf3d75ef465d3e404,0,10,10,143,1,fourthree,,,,,,,,,,,,,,,,,,,,,,,,,,,,,,,,,,,,,,,,,,,,,,,,,,,,,,,,,,,,,,,,,,,,,,,,,,,,,,,,,,,,,,,,,,,,,,,,,,,,,,,,,,,,,,,,,,,,,,,,,,,,,,,,,,,,,,,,,,,,,,,,,,,,,,,,
,,,,,,61561b5d9502ee82a057dcd2,62bbf971e2f920426a82a262,2022-06-29_09h05.02.833,Colour_Asymmetry_Pilot,2022.1.3,Win32,59.18560606,62bbe60bf3d75ef465d3e404,0,11,11,96,1,onetwo,,,,,,,,,,,,,,,,,,,,,,,,,,,,,,,,,,,,,,,,,,,,,,,,,,,,,,,,,,,,,,,,,,,,,,,,,,,,,,,,,,,,,,,,,,,,,,,,,,,,,,,,,,,,,,,,,,,,,,,,,,,,,,,,,,,,,,,,,,,,,,,,,,,,,,,,
,,,,,,61561b5d9502ee82a057dcd2,62bbf971e2f920426a82a262,2022-06-29_09h05.02.833,Colour_Asymmetry_Pilot,2022.1.3,Win32,59.18560606,62bbe60bf3d75ef465d3e404,0,12,12,130,1,twoone,,,,,,,,,,,,,,,,,,,,,,,,,,,,,,,,,,,,,,,,,,,,,,,,,,,,,,,,,,,,,,,,,,,,,,,,,,,,,,,,,,,,,,,,,,,,,,,,,,,,,,,,,,,,,,,,,,,,,,,,,,,,,,,,,,,,,,,,,,,,,,,,,,,,,,,,
,,,,,,61561b5d9502ee82a057dcd2,62bbf971e2f920426a82a262,2022-06-29_09h05.02.833,Colour_Asymmetry_Pilot,2022.1.3,Win32,59.18560606,62bbe60bf3d75ef465d3e404,0,13,13,18,1,twoone,,,,,,,,,,,,,,,,,,,,,,,,,,,,,,,,,,,,,,,,,,,,,,,,,,,,,,,,,,,,,,,,,,,,,,,,,,,,,,,,,,,,,,,,,,,,,,,,,,,,,,,,,,,,,,,,,,,,,,,,,,,,,,,,,,,,,,,,,,,,,,,,,,,,,,,,
,,,,,,61561b5d9502ee82a057dcd2,62bbf971e2f920426a82a262,2022-06-29_09h05.02.833,Colour_Asymmetry_Pilot,2022.1.3,Win32,59.18560606,62bbe60bf3d75ef465d3e404,0,14,14,157,1,threefour,,,,,,,,,,,,,,,,,,,,,,,,,,,,,,,,,,,,,,,,,,,,,,,,,,,,,,,,,,,,,,,,,,,,,,,,,,,,,,,,,,,,,,,,,,,,,,,,,,,,,,,,,,,,,,,,,,,,,,,,,,,,,,,,,,,,,,,,,,,,,,,,,,,,,,,,
,,,,,,61561b5d9502ee82a057dcd2,62bbf971e2f920426a82a262,2022-06-29_09h05.02.833,Colour_Asymmetry_Pilot,2022.1.3,Win32,59.18560606,62bbe60bf3d75ef465d3e404,0,15,15,111,1,fourthree,,,,,,,,,,,,,,,,,,,,,,,,,,,,,,,,,,,,,,,,,,,,,,,,,,,,,,,,,,,,,,,,,,,,,,,,,,,,,,,,,,,,,,,,,,,,,,,,,,,,,,,,,,,,,,,,,,,,,,,,,,,,,,,,,,,,,,,,,,,,,,,,,,,,,,,,
,,,,,,61561b5d9502ee82a057dcd2,62bbf971e2f920426a82a262,2022-06-29_09h05.02.833,Colour_Asymmetry_Pilot,2022.1.3,Win32,59.18560606,62bbe60bf3d75ef465d3e404,0,16,16,145,1,onethree,,,,,,,,,,,,,,,,,,,,,,,,,,,,,,,,,,,,,,,,,,,,,,,,,,,,,,,,,,,,,,,,,,,,,,,,,,,,,,,,,,,,,,,,,,,,,,,,,,,,,,,,,,,,,,,,,,,,,,,,,,,,,,,,,,,,,,,,,,,,,,,,,,,,,,,,
,,,,,,61561b5d9502ee82a057dcd2,62bbf971e2f920426a82a262,2022-06-29_09h05.02.833,Colour_Asymmetry_Pilot,2022.1.3,Win32,59.18560606,62bbe60bf3d75ef465d3e404,0,17,17,126,1,fourtwo,,,,,,,,,,,,,,,,,,,,,,,,,,,,,,,,,,,,,,,,,,,,,,,,,,,,,,,,,,,,,,,,,,,,,,,,,,,,,,,,,,,,,,,,,,,,,,,,,,,,,,,,,,,,,,,,,,,,,,,,,,,,,,,,,,,,,,,,,,,,,,,,,,,,,,,,
,,,,,,61561b5d9502ee82a057dcd2,62bbf971e2f920426a82a262,2022-06-29_09h05.02.833,Colour_Asymmetry_Pilot,2022.1.3,Win32,59.18560606,62bbe60bf3d75ef465d3e404,0,18,18,102,1,fourtwo,,,,,,,,,,,,,,,,,,,,,,,,,,,,,,,,,,,,,,,,,,,,,,,,,,,,,,,,,,,,,,,,,,,,,,,,,,,,,,,,,,,,,,,,,,,,,,,,,,,,,,,,,,,,,,,,,,,,,,,,,,,,,,,,,,,,,,,,,,,,,,,,,,,,,,,,
,,,,,,61561b5d9502ee82a057dcd2,62bbf971e2f920426a82a262,2022-06-29_09h05.02.833,Colour_Asymmetry_Pilot,2022.1.3,Win32,59.18560606,62bbe60bf3d75ef465d3e404,0,19,19,44,1,threeone,,,,,,,,,,,,,,,,,,,,,,,,,,,,,,,,,,,,,,,,,,,,,,,,,,,,,,,,,,,,,,,,,,,,,,,,,,,,,,,,,,,,,,,,,,,,,,,,,,,,,,,,,,,,,,,,,,,,,,,,,,,,,,,,,,,,,,,,,,,,,,,,,,,,,,,,
,,,,,,61561b5d9502ee82a057dcd2,62bbf971e2f920426a82a262,2022-06-29_09h05.02.833,Colour_Asymmetry_Pilot,2022.1.3,Win32,59.18560606,62bbe60bf3d75ef465d3e404,0,20,20,87,1,fourthree,,,,,,,,,,,,,,,,,,,,,,,,,,,,,,,,,,,,,,,,,,,,,,,,,,,,,,,,,,,,,,,,,,,,,,,,,,,,,,,,,,,,,,,,,,,,,,,,,,,,,,,,,,,,,,,,,,,,,,,,,,,,,,,,,,,,,,,,,,,,,,,,,,,,,,,,
,,,,,,61561b5d9502ee82a057dcd2,62bbf971e2f920426a82a262,2022-06-29_09h05.02.833,Colour_Asymmetry_Pilot,2022.1.3,Win32,59.18560606,62bbe60bf3d75ef465d3e404,0,21,21,68,1,threeone,,,,,,,,,,,,,,,,,,,,,,,,,,,,,,,,,,,,,,,,,,,,,,,,,,,,,,,,,,,,,,,,,,,,,,,,,,,,,,,,,,,,,,,,,,,,,,,,,,,,,,,,,,,,,,,,,,,,,,,,,,,,,,,,,,,,,,,,,,,,,,,,,,,,,,,,
,,,,,,61561b5d9502ee82a057dcd2,62bbf971e2f920426a82a262,2022-06-29_09h05.02.833,Colour_Asymmetry_Pilot,2022.1.3,Win32,59.18560606,62bbe60bf3d75ef465d3e404,0,22,22,83,1,twofour,,,,,,,,,,,,,,,,,,,,,,,,,,,,,,,,,,,,,,,,,,,,,,,,,,,,,,,,,,,,,,,,,,,,,,,,,,,,,,,,,,,,,,,,,,,,,,,,,,,,,,,,,,,,,,,,,,,,,,,,,,,,,,,,,,,,,,,,,,,,,,,,,,,,,,,,
,,,,,,61561b5d9502ee82a057dcd2,62bbf971e2f920426a82a262,2022-06-29_09h05.02.833,Colour_Asymmetry_Pilot,2022.1.3,Win32,59.18560606,62bbe60bf3d75ef465d3e404,0,23,23,8,1,onetwo,,,,,,,,,,,,,,,,,,,,,,,,,,,,,,,,,,,,,,,,,,,,,,,,,,,,,,,,,,,,,,,,,,,,,,,,,,,,,,,,,,,,,,,,,,,,,,,,,,,,,,,,,,,,,,,,,,,,,,,,,,,,,,,,,,,,,,,,,,,,,,,,,,,,,,,,
,,,,,,61561b5d9502ee82a057dcd2,62bbf971e2f920426a82a262,2022-06-29_09h05.02.833,Colour_Asymmetry_Pilot,2022.1.3,Win32,59.18560606,62bbe60bf3d75ef465d3e404,0,24,24,149,1,threefour,,,,,,,,,,,,,,,,,,,,,,,,,,,,,,,,,,,,,,,,,,,,,,,,,,,,,,,,,,,,,,,,,,,,,,,,,,,,,,,,,,,,,,,,,,,,,,,,,,,,,,,,,,,,,,,,,,,,,,,,,,,,,,,,,,,,,,,,,,,,,,,,,,,,,,,,
,,,,,,61561b5d9502ee82a057dcd2,62bbf971e2f920426a82a262,2022-06-29_09h05.02.833,Colour_Asymmetry_Pilot,2022.1.3,Win32,59.18560606,62bbe60bf3d75ef465d3e404,0,25,25,61,1,threefour,,,,,,,,,,,,,,,,,,,,,,,,,,,,,,,,,,,,,,,,,,,,,,,,,,,,,,,,,,,,,,,,,,,,,,,,,,,,,,,,,,,,,,,,,,,,,,,,,,,,,,,,,,,,,,,,,,,,,,,,,,,,,,,,,,,,,,,,,,,,,,,,,,,,,,,,
,,,,,,61561b5d9502ee82a057dcd2,62bbf971e2f920426a82a262,2022-06-29_09h05.02.833,Colour_Asymmetry_Pilot,2022.1.3,Win32,59.18560606,62bbe60bf3d75ef465d3e404,0,26,26,35,1,twofour,,,,,,,,,,,,,,,,,,,,,,,,,,,,,,,,,,,,,,,,,,,,,,,,,,,,,,,,,,,,,,,,,,,,,,,,,,,,,,,,,,,,,,,,,,,,,,,,,,,,,,,,,,,,,,,,,,,,,,,,,,,,,,,,,,,,,,,,,,,,,,,,,,,,,,,,
,,,,,,61561b5d9502ee82a057dcd2,62bbf971e2f920426a82a262,2022-06-29_09h05.02.833,Colour_Asymmetry_Pilot,2022.1.3,Win32,59.18560606,62bbe60bf3d75ef465d3e404,0,27,27,1,1,onethree,,,,,,,,,,,,,,,,,,,,,,,,,,,,,,,,,,,,,,,,,,,,,,,,,,,,,,,,,,,,,,,,,,,,,,,,,,,,,,,,,,,,,,,,,,,,,,,,,,,,,,,,,,,,,,,,,,,,,,,,,,,,,,,,,,,,,,,,,,,,,,,,,,,,,,,,
,,,,,,61561b5d9502ee82a057dcd2,62bbf971e2f920426a82a262,2022-06-29_09h05.02.833,Colour_Asymmetry_Pilot,2022.1.3,Win32,59.18560606,62bbe60bf3d75ef465d3e404,0,28,28,15,1,fourthree,,,,,,,,,,,,,,,,,,,,,,,,,,,,,,,,,,,,,,,,,,,,,,,,,,,,,,,,,,,,,,,,,,,,,,,,,,,,,,,,,,,,,,,,,,,,,,,,,,,,,,,,,,,,,,,,,,,,,,,,,,,,,,,,,,,,,,,,,,,,,,,,,,,,,,,,
,,,,,,61561b5d9502ee82a057dcd2,62bbf971e2f920426a82a262,2022-06-29_09h05.02.833,Colour_Asymmetry_Pilot,2022.1.3,Win32,59.18560606,62bbe60bf3d75ef465d3e404,0,29,29,152,1,onetwo,,,,,,,,,,,,,,,,,,,,,,,,,,,,,,,,,,,,,,,,,,,,,,,,,,,,,,,,,,,,,,,,,,,,,,,,,,,,,,,,,,,,,,,,,,,,,,,,,,,,,,,,,,,,,,,,,,,,,,,,,,,,,,,,,,,,,,,,,,,,,,,,,,,,,,,,
,,,,,,61561b5d9502ee82a057dcd2,62bbf971e2f920426a82a262,2022-06-29_09h05.02.833,Colour_Asymmetry_Pilot,2022.1.3,Win32,59.18560606,62bbe60bf3d75ef465d3e404,0,30,30,31,1,fourthree,,,,,,,,,,,,,,,,,,,,,,,,,,,,,,,,,,,,,,,,,,,,,,,,,,,,,,,,,,,,,,,,,,,,,,,,,,,,,,,,,,,,,,,,,,,,,,,,,,,,,,,,,,,,,,,,,,,,,,,,,,,,,,,,,,,,,,,,,,,,,,,,,,,,,,,,
,,,,,,61561b5d9502ee82a057dcd2,62bbf971e2f920426a82a262,2022-06-29_09h05.02.833,Colour_Asymmetry_Pilot,2022.1.3,Win32,59.18560606,62bbe60bf3d75ef465d3e404,0,31,31,2,1,twoone,,,,,,,,,,,,,,,,,,,,,,,,,,,,,,,,,,,,,,,,,,,,,,,,,,,,,,,,,,,,,,,,,,,,,,,,,,,,,,,,,,,,,,,,,,,,,,,,,,,,,,,,,,,,,,,,,,,,,,,,,,,,,,,,,,,,,,,,,,,,,,,,,,,,,,,,
,,,,,,61561b5d9502ee82a057dcd2,62bbf971e2f920426a82a262,2022-06-29_09h05.02.833,Colour_Asymmetry_Pilot,2022.1.3,Win32,59.18560606,62bbe60bf3d75ef465d3e404,0,32,32,121,1,onethree,,,,,,,,,,,,,,,,,,,,,,,,,,,,,,,,,,,,,,,,,,,,,,,,,,,,,,,,,,,,,,,,,,,,,,,,,,,,,,,,,,,,,,,,,,,,,,,,,,,,,,,,,,,,,,,,,,,,,,,,,,,,,,,,,,,,,,,,,,,,,,,,,,,,,,,,
,,,,,,61561b5d9502ee82a057dcd2,62bbf971e2f920426a82a262,2022-06-29_09h05.02.833,Colour_Asymmetry_Pilot,2022.1.3,Win32,59.18560606,62bbe60bf3d75ef465d3e404,0,33,33,7,1,fourthree,,,,,,,,,,,,,,,,,,,,,,,,,,,,,,,,,,,,,,,,,,,,,,,,,,,,,,,,,,,,,,,,,,,,,,,,,,,,,,,,,,,,,,,,,,,,,,,,,,,,,,,,,,,,,,,,,,,,,,,,,,,,,,,,,,,,,,,,,,,,,,,,,,,,,,,,
,,,,,,61561b5d9502ee82a057dcd2,62bbf971e2f920426a82a262,2022-06-29_09h05.02.833,Colour_Asymmetry_Pilot,2022.1.3,Win32,59.18560606,62bbe60bf3d75ef465d3e404,0,34,34,108,1,threeone,,,,,,,,,,,,,,,,,,,,,,,,,,,,,,,,,,,,,,,,,,,,,,,,,,,,,,,,,,,,,,,,,,,,,,,,,,,,,,,,,,,,,,,,,,,,,,,,,,,,,,,,,,,,,,,,,,,,,,,,,,,,,,,,,,,,,,,,,,,,,,,,,,,,,,,,
,,,,,,61561b5d9502ee82a057dcd2,62bbf971e2f920426a82a262,2022-06-29_09h05.02.833,Colour_Asymmetry_Pilot,2022.1.3,Win32,59.18560606,62bbe60bf3d75ef465d3e404,0,35,35,147,1,twofour,,,,,,,,,,,,,,,,,,,,,,,,,,,,,,,,,,,,,,,,,,,,,,,,,,,,,,,,,,,,,,,,,,,,,,,,,,,,,,,,,,,,,,,,,,,,,,,,,,,,,,,,,,,,,,,,,,,,,,,,,,,,,,,,,,,,,,,,,,,,,,,,,,,,,,,,
,,,,,,61561b5d9502ee82a057dcd2,62bbf971e2f920426a82a262,2022-06-29_09h05.02.833,Colour_Asymmetry_Pilot,2022.1.3,Win32,59.18560606,62bbe60bf3d75ef465d3e404,0,36,36,36,1,threeone,,,,,,,,,,,,,,,,,,,,,,,,,,,,,,,,,,,,,,,,,,,,,,,,,,,,,,,,,,,,,,,,,,,,,,,,,,,,,,,,,,,,,,,,,,,,,,,,,,,,,,,,,,,,,,,,,,,,,,,,,,,,,,,,,,,,,,,,,,,,,,,,,,,,,,,,
,,,,,,61561b5d9502ee82a057dcd2,62bbf971e2f920426a82a262,2022-06-29_09h05.02.833,Colour_Asymmetry_Pilot,2022.1.3,Win32,59.18560606,62bbe60bf3d75ef465d3e404,0,37,37,16,1,onetwo,,,,,,,,,,,,,,,,,,,,,,,,,,,,,,,,,,,,,,,,,,,,,,,,,,,,,,,,,,,,,,,,,,,,,,,,,,,,,,,,,,,,,,,,,,,,,,,,,,,,,,,,,,,,,,,,,,,,,,,,,,,,,,,,,,,,,,,,,,,,,,,,,,,,,,,,
,,,,,,61561b5d9502ee82a057dcd2,62bbf971e2f920426a82a262,2022-06-29_09h05.02.833,Colour_Asymmetry_Pilot,2022.1.3,Win32,59.18560606,62bbe60bf3d75ef465d3e404,0,38,38,57,1,onethree,,,,,,,,,,,,,,,,,,,,,,,,,,,,,,,,,,,,,,,,,,,,,,,,,,,,,,,,,,,,,,,,,,,,,,,,,,,,,,,,,,,,,,,,,,,,,,,,,,,,,,,,,,,,,,,,,,,,,,,,,,,,,,,,,,,,,,,,,,,,,,,,,,,,,,,,
,,,,,,61561b5d9502ee82a057dcd2,62bbf971e2f920426a82a262,2022-06-29_09h05.02.833,Colour_Asymmetry_Pilot,2022.1.3,Win32,59.18560606,62bbe60bf3d75ef465d3e404,0,39,39,20,1,threeone,,,,,,,,,,,,,,,,,,,,,,,,,,,,,,,,,,,,,,,,,,,,,,,,,,,,,,,,,,,,,,,,,,,,,,,,,,,,,,,,,,,,,,,,,,,,,,,,,,,,,,,,,,,,,,,,,,,,,,,,,,,,,,,,,,,,,,,,,,,,,,,,,,,,,,,,
,,,,,,61561b5d9502ee82a057dcd2,62bbf971e2f920426a82a262,2022-06-29_09h05.02.833,Colour_Asymmetry_Pilot,2022.1.3,Win32,59.18560606,62bbe60bf3d75ef465d3e404,0,40,40,22,1,fourtwo,,,,,,,,,,,,,,,,,,,,,,,,,,,,,,,,,,,,,,,,,,,,,,,,,,,,,,,,,,,,,,,,,,,,,,,,,,,,,,,,,,,,,,,,,,,,,,,,,,,,,,,,,,,,,,,,,,,,,,,,,,,,,,,,,,,,,,,,,,,,,,,,,,,,,,,,
,,,,,,61561b5d9502ee82a057dcd2,62bbf971e2f920426a82a262,2022-06-29_09h05.02.833,Colour_Asymmetry_Pilot,2022.1.3,Win32,59.18560606,62bbe60bf3d75ef465d3e404,0,41,41,89,1,onethree,,,,,,,,,,,,,,,,,,,,,,,,,,,,,,,,,,,,,,,,,,,,,,,,,,,,,,,,,,,,,,,,,,,,,,,,,,,,,,,,,,,,,,,,,,,,,,,,,,,,,,,,,,,,,,,,,,,,,,,,,,,,,,,,,,,,,,,,,,,,,,,,,,,,,,,,
,,,,,,61561b5d9502ee82a057dcd2,62bbf971e2f920426a82a262,2022-06-29_09h05.02.833,Colour_Asymmetry_Pilot,2022.1.3,Win32,59.18560606,62bbe60bf3d75ef465d3e404,0,42,42,153,1,onethree,,,,,,,,,,,,,,,,,,,,,,,,,,,,,,,,,,,,,,,,,,,,,,,,,,,,,,,,,,,,,,,,,,,,,,,,,,,,,,,,,,,,,,,,,,,,,,,,,,,,,,,,,,,,,,,,,,,,,,,,,,,,,,,,,,,,,,,,,,,,,,,,,,,,,,,,
,,,,,,61561b5d9502ee82a057dcd2,62bbf971e2f920426a82a262,2022-06-29_09h05.02.833,Colour_Asymmetry_Pilot,2022.1.3,Win32,59.18560606,62bbe60bf3d75ef465d3e404,0,43,43,73,1,onethree,,,,,,,,,,,,,,,,,,,,,,,,,,,,,,,,,,,,,,,,,,,,,,,,,,,,,,,,,,,,,,,,,,,,,,,,,,,,,,,,,,,,,,,,,,,,,,,,,,,,,,,,,,,,,,,,,,,,,,,,,,,,,,,,,,,,,,,,,,,,,,,,,,,,,,,,
,,,,,,61561b5d9502ee82a057dcd2,62bbf971e2f920426a82a262,2022-06-29_09h05.02.833,Colour_Asymmetry_Pilot,2022.1.3,Win32,59.18560606,62bbe60bf3d75ef465d3e404,0,44,44,99,1,twofour,,,,,,,,,,,,,,,,,,,,,,,,,,,,,,,,,,,,,,,,,,,,,,,,,,,,,,,,,,,,,,,,,,,,,,,,,,,,,,,,,,,,,,,,,,,,,,,,,,,,,,,,,,,,,,,,,,,,,,,,,,,,,,,,,,,,,,,,,,,,,,,,,,,,,,,,
,,,,,,61561b5d9502ee82a057dcd2,62bbf971e2f920426a82a262,2022-06-29_09h05.02.833,Colour_Asymmetry_Pilot,2022.1.3,Win32,59.18560606,62bbe60bf3d75ef465d3e404,0,45,45,80,1,onetwo,,,,,,,,,,,,,,,,,,,,,,,,,,,,,,,,,,,,,,,,,,,,,,,,,,,,,,,,,,,,,,,,,,,,,,,,,,,,,,,,,,,,,,,,,,,,,,,,,,,,,,,,,,,,,,,,,,,,,,,,,,,,,,,,,,,,,,,,,,,,,,,,,,,,,,,,
,,,,,,61561b5d9502ee82a057dcd2,62bbf971e2f920426a82a262,2022-06-29_09h05.02.833,Colour_Asymmetry_Pilot,2022.1.3,Win32,59.18560606,62bbe60bf3d75ef465d3e404,0,46,46,29,1,threefour,,,,,,,,,,,,,,,,,,,,,,,,,,,,,,,,,,,,,,,,,,,,,,,,,,,,,,,,,,,,,,,,,,,,,,,,,,,,,,,,,,,,,,,,,,,,,,,,,,,,,,,,,,,,,,,,,,,,,,,,,,,,,,,,,,,,,,,,,,,,,,,,,,,,,,,,
,,,,,,61561b5d9502ee82a057dcd2,62bbf971e2f920426a82a262,2022-06-29_09h05.02.833,Colour_Asymmetry_Pilot,2022.1.3,Win32,59.18560606,62bbe60bf3d75ef465d3e404,0,47,47,10,1,twoone,,,,,,,,,,,,,,,,,,,,,,,,,,,,,,,,,,,,,,,,,,,,,,,,,,,,,,,,,,,,,,,,,,,,,,,,,,,,,,,,,,,,,,,,,,,,,,,,,,,,,,,,,,,,,,,,,,,,,,,,,,,,,,,,,,,,,,,,,,,,,,,,,,,,,,,,
,,,,,,61561b5d9502ee82a057dcd2,62bbf971e2f920426a82a262,2022-06-29_09h05.02.833,Colour_Asymmetry_Pilot,2022.1.3,Win32,59.18560606,62bbe60bf3d75ef465d3e404,0,48,48,38,1,fourtwo,,,,,,,,,,,,,,,,,,,,,,,,,,,,,,,,,,,,,,,,,,,,,,,,,,,,,,,,,,,,,,,,,,,,,,,,,,,,,,,,,,,,,,,,,,,,,,,,,,,,,,,,,,,,,,,,,,,,,,,,,,,,,,,,,,,,,,,,,,,,,,,,,,,,,,,,
,,,,,,61561b5d9502ee82a057dcd2,62bbf971e2f920426a82a262,2022-06-29_09h05.02.833,Colour_Asymmetry_Pilot,2022.1.3,Win32,59.18560606,62bbe60bf3d75ef465d3e404,0,49,49,19,1,twofour,,,,,,,,,,,,,,,,,,,,,,,,,,,,,,,,,,,,,,,,,,,,,,,,,,,,,,,,,,,,,,,,,,,,,,,,,,,,,,,,,,,,,,,,,,,,,,,,,,,,,,,,,,,,,,,,,,,,,,,,,,,,,,,,,,,,,,,,,,,,,,,,,,,,,,,,
,,,,,,61561b5d9502ee82a057dcd2,62bbf971e2f920426a82a262,2022-06-29_09h05.02.833,Colour_Asymmetry_Pilot,2022.1.3,Win32,59.18560606,62bbe60bf3d75ef465d3e404,0,50,50,65,1,onethree,,,,,,,,,,,,,,,,,,,,,,,,,,,,,,,,,,,,,,,,,,,,,,,,,,,,,,,,,,,,,,,,,,,,,,,,,,,,,,,,,,,,,,,,,,,,,,,,,,,,,,,,,,,,,,,,,,,,,,,,,,,,,,,,,,,,,,,,,,,,,,,,,,,,,,,,
,,,,,,61561b5d9502ee82a057dcd2,62bbf971e2f920426a82a262,2022-06-29_09h05.02.833,Colour_Asymmetry_Pilot,2022.1.3,Win32,59.18560606,62bbe60bf3d75ef465d3e404,0,51,51,140,1,threeone,,,,,,,,,,,,,,,,,,,,,,,,,,,,,,,,,,,,,,,,,,,,,,,,,,,,,,,,,,,,,,,,,,,,,,,,,,,,,,,,,,,,,,,,,,,,,,,,,,,,,,,,,,,,,,,,,,,,,,,,,,,,,,,,,,,,,,,,,,,,,,,,,,,,,,,,
,,,,,,61561b5d9502ee82a057dcd2,62bbf971e2f920426a82a262,2022-06-29_09h05.02.833,Colour_Asymmetry_Pilot,2022.1.3,Win32,59.18560606,62bbe60bf3d75ef465d3e404,0,52,52,91,1,twofour,,,,,,,,,,,,,,,,,,,,,,,,,,,,,,,,,,,,,,,,,,,,,,,,,,,,,,,,,,,,,,,,,,,,,,,,,,,,,,,,,,,,,,,,,,,,,,,,,,,,,,,,,,,,,,,,,,,,,,,,,,,,,,,,,,,,,,,,,,,,,,,,,,,,,,,,
,,,,,,61561b5d9502ee82a057dcd2,62bbf971e2f920426a82a262,2022-06-29_09h05.02.833,Colour_Asymmetry_Pilot,2022.1.3,Win32,59.18560606,62bbe60bf3d75ef465d3e404,0,53,53,30,1,fourtwo,,,,,,,,,,,,,,,,,,,,,,,,,,,,,,,,,,,,,,,,,,,,,,,,,,,,,,,,,,,,,,,,,,,,,,,,,,,,,,,,,,,,,,,,,,,,,,,,,,,,,,,,,,,,,,,,,,,,,,,,,,,,,,,,,,,,,,,,,,,,,,,,,,,,,,,,
,,,,,,61561b5d9502ee82a057dcd2,62bbf971e2f920426a82a262,2022-06-29_09h05.02.833,Colour_Asymmetry_Pilot,2022.1.3,Win32,59.18560606,62bbe60bf3d75ef465d3e404,0,54,54,110,1,fourtwo,,,,,,,,,,,,,,,,,,,,,,,,,,,,,,,,,,,,,,,,,,,,,,,,,,,,,,,,,,,,,,,,,,,,,,,,,,,,,,,,,,,,,,,,,,,,,,,,,,,,,,,,,,,,,,,,,,,,,,,,,,,,,,,,,,,,,,,,,,,,,,,,,,,,,,,,
,,,,,,61561b5d9502ee82a057dcd2,62bbf971e2f920426a82a262,2022-06-29_09h05.02.833,Colour_Asymmetry_Pilot,2022.1.3,Win32,59.18560606,62bbe60bf3d75ef465d3e404,0,55,55,156,1,threeone,,,,,,,,,,,,,,,,,,,,,,,,,,,,,,,,,,,,,,,,,,,,,,,,,,,,,,,,,,,,,,,,,,,,,,,,,,,,,,,,,,,,,,,,,,,,,,,,,,,,,,,,,,,,,,,,,,,,,,,,,,,,,,,,,,,,,,,,,,,,,,,,,,,,,,,,
,,,,,,61561b5d9502ee82a057dcd2,62bbf971e2f920426a82a262,2022-06-29_09h05.02.833,Colour_Asymmetry_Pilot,2022.1.3,Win32,59.18560606,62bbe60bf3d75ef465d3e404,0,56,56,155,1,twofour,,,,,,,,,,,,,,,,,,,,,,,,,,,,,,,,,,,,,,,,,,,,,,,,,,,,,,,,,,,,,,,,,,,,,,,,,,,,,,,,,,,,,,,,,,,,,,,,,,,,,,,,,,,,,,,,,,,,,,,,,,,,,,,,,,,,,,,,,,,,,,,,,,,,,,,,
,,,,,,61561b5d9502ee82a057dcd2,62bbf971e2f920426a82a262,2022-06-29_09h05.02.833,Colour_Asymmetry_Pilot,2022.1.3,Win32,59.18560606,62bbe60bf3d75ef465d3e404,0,57,57,40,1,onetwo,,,,,,,,,,,,,,,,,,,,,,,,,,,,,,,,,,,,,,,,,,,,,,,,,,,,,,,,,,,,,,,,,,,,,,,,,,,,,,,,,,,,,,,,,,,,,,,,,,,,,,,,,,,,,,,,,,,,,,,,,,,,,,,,,,,,,,,,,,,,,,,,,,,,,,,,
,,,,,,61561b5d9502ee82a057dcd2,62bbf971e2f920426a82a262,2022-06-29_09h05.02.833,Colour_Asymmetry_Pilot,2022.1.3,Win32,59.18560606,62bbe60bf3d75ef465d3e404,0,58,58,135,1,fourthree,,,,,,,,,,,,,,,,,,,,,,,,,,,,,,,,,,,,,,,,,,,,,,,,,,,,,,,,,,,,,,,,,,,,,,,,,,,,,,,,,,,,,,,,,,,,,,,,,,,,,,,,,,,,,,,,,,,,,,,,,,,,,,,,,,,,,,,,,,,,,,,,,,,,,,,,
,,,,,,61561b5d9502ee82a057dcd2,62bbf971e2f920426a82a262,2022-06-29_09h05.02.833,Colour_Asymmetry_Pilot,2022.1.3,Win32,59.18560606,62bbe60bf3d75ef465d3e404,0,59,59,21,1,threefour,,,,,,,,,,,,,,,,,,,,,,,,,,,,,,,,,,,,,,,,,,,,,,,,,,,,,,,,,,,,,,,,,,,,,,,,,,,,,,,,,,,,,,,,,,,,,,,,,,,,,,,,,,,,,,,,,,,,,,,,,,,,,,,,,,,,,,,,,,,,,,,,,,,,,,,,
,,,,,,61561b5d9502ee82a057dcd2,62bbf971e2f920426a82a262,2022-06-29_09h05.02.833,Colour_Asymmetry_Pilot,2022.1.3,Win32,59.18560606,62bbe60bf3d75ef465d3e404,0,60,60,124,1,threeone,,,,,,,,,,,,,,,,,,,,,,,,,,,,,,,,,,,,,,,,,,,,,,,,,,,,,,,,,,,,,,,,,,,,,,,,,,,,,,,,,,,,,,,,,,,,,,,,,,,,,,,,,,,,,,,,,,,,,,,,,,,,,,,,,,,,,,,,,,,,,,,,,,,,,,,,
,,,,,,61561b5d9502ee82a057dcd2,62bbf971e2f920426a82a262,2022-06-29_09h05.02.833,Colour_Asymmetry_Pilot,2022.1.3,Win32,59.18560606,62bbe60bf3d75ef465d3e404,0,61,61,133,1,threefour,,,,,,,,,,,,,,,,,,,,,,,,,,,,,,,,,,,,,,,,,,,,,,,,,,,,,,,,,,,,,,,,,,,,,,,,,,,,,,,,,,,,,,,,,,,,,,,,,,,,,,,,,,,,,,,,,,,,,,,,,,,,,,,,,,,,,,,,,,,,,,,,,,,,,,,,
,,,,,,61561b5d9502ee82a057dcd2,62bbf971e2f920426a82a262,2022-06-29_09h05.02.833,Colour_Asymmetry_Pilot,2022.1.3,Win32,59.18560606,62bbe60bf3d75ef465d3e404,0,62,62,53,1,threefour,,,,,,,,,,,,,,,,,,,,,,,,,,,,,,,,,,,,,,,,,,,,,,,,,,,,,,,,,,,,,,,,,,,,,,,,,,,,,,,,,,,,,,,,,,,,,,,,,,,,,,,,,,,,,,,,,,,,,,,,,,,,,,,,,,,,,,,,,,,,,,,,,,,,,,,,
,,,,,,61561b5d9502ee82a057dcd2,62bbf971e2f920426a82a262,2022-06-29_09h05.02.833,Colour_Asymmetry_Pilot,2022.1.3,Win32,59.18560606,62bbe60bf3d75ef465d3e404,0,63,63,49,1,onethree,,,,,,,,,,,,,,,,,,,,,,,,,,,,,,,,,,,,,,,,,,,,,,,,,,,,,,,,,,,,,,,,,,,,,,,,,,,,,,,,,,,,,,,,,,,,,,,,,,,,,,,,,,,,,,,,,,,,,,,,,,,,,,,,,,,,,,,,,,,,,,,,,,,,,,,,
,,,,,,61561b5d9502ee82a057dcd2,62bbf971e2f920426a82a262,2022-06-29_09h05.02.833,Colour_Asymmetry_Pilot,2022.1.3,Win32,59.18560606,62bbe60bf3d75ef465d3e404,0,64,64,106,1,twoone,,,,,,,,,,,,,,,,,,,,,,,,,,,,,,,,,,,,,,,,,,,,,,,,,,,,,,,,,,,,,,,,,,,,,,,,,,,,,,,,,,,,,,,,,,,,,,,,,,,,,,,,,,,,,,,,,,,,,,,,,,,,,,,,,,,,,,,,,,,,,,,,,,,,,,,,
,,,,,,61561b5d9502ee82a057dcd2,62bbf971e2f920426a82a262,2022-06-29_09h05.02.833,Colour_Asymmetry_Pilot,2022.1.3,Win32,59.18560606,62bbe60bf3d75ef465d3e404,0,65,65,88,1,onetwo,,,,,,,,,,,,,,,,,,,,,,,,,,,,,,,,,,,,,,,,,,,,,,,,,,,,,,,,,,,,,,,,,,,,,,,,,,,,,,,,,,,,,,,,,,,,,,,,,,,,,,,,,,,,,,,,,,,,,,,,,,,,,,,,,,,,,,,,,,,,,,,,,,,,,,,,
,,,,,,61561b5d9502ee82a057dcd2,62bbf971e2f920426a82a262,2022-06-29_09h05.02.833,Colour_Asymmetry_Pilot,2022.1.3,Win32,59.18560606,62bbe60bf3d75ef465d3e404,0,66,66,64,1,onetwo,,,,,,,,,,,,,,,,,,,,,,,,,,,,,,,,,,,,,,,,,,,,,,,,,,,,,,,,,,,,,,,,,,,,,,,,,,,,,,,,,,,,,,,,,,,,,,,,,,,,,,,,,,,,,,,,,,,,,,,,,,,,,,,,,,,,,,,,,,,,,,,,,,,,,,,,
,,,,,,61561b5d9502ee82a057dcd2,62bbf971e2f920426a82a262,2022-06-29_09h05.02.833,Colour_Asymmetry_Pilot,2022.1.3,Win32,59.18560606,62bbe60bf3d75ef465d3e404,0,67,67,125,1,threefour,,,,,,,,,,,,,,,,,,,,,,,,,,,,,,,,,,,,,,,,,,,,,,,,,,,,,,,,,,,,,,,,,,,,,,,,,,,,,,,,,,,,,,,,,,,,,,,,,,,,,,,,,,,,,,,,,,,,,,,,,,,,,,,,,,,,,,,,,,,,,,,,,,,,,,,,
,,,,,,61561b5d9502ee82a057dcd2,62bbf971e2f920426a82a262,2022-06-29_09h05.02.833,Colour_Asymmetry_Pilot,2022.1.3,Win32,59.18560606,62bbe60bf3d75ef465d3e404,0,68,68,54,1,fourtwo,,,,,,,,,,,,,,,,,,,,,,,,,,,,,,,,,,,,,,,,,,,,,,,,,,,,,,,,,,,,,,,,,,,,,,,,,,,,,,,,,,,,,,,,,,,,,,,,,,,,,,,,,,,,,,,,,,,,,,,,,,,,,,,,,,,,,,,,,,,,,,,,,,,,,,,,
,,,,,,61561b5d9502ee82a057dcd2,62bbf971e2f920426a82a262,2022-06-29_09h05.02.833,Colour_Asymmetry_Pilot,2022.1.3,Win32,59.18560606,62bbe60bf3d75ef465d3e404,0,69,69,41,1,onethree,,,,,,,,,,,,,,,,,,,,,,,,,,,,,,,,,,,,,,,,,,,,,,,,,,,,,,,,,,,,,,,,,,,,,,,,,,,,,,,,,,,,,,,,,,,,,,,,,,,,,,,,,,,,,,,,,,,,,,,,,,,,,,,,,,,,,,,,,,,,,,,,,,,,,,,,
,,,,,,61561b5d9502ee82a057dcd2,62bbf971e2f920426a82a262,2022-06-29_09h05.02.833,Colour_Asymmetry_Pilot,2022.1.3,Win32,59.18560606,62bbe60bf3d75ef465d3e404,0,70,70,63,1,fourthree,,,,,,,,,,,,,,,,,,,,,,,,,,,,,,,,,,,,,,,,,,,,,,,,,,,,,,,,,,,,,,,,,,,,,,,,,,,,,,,,,,,,,,,,,,,,,,,,,,,,,,,,,,,,,,,,,,,,,,,,,,,,,,,,,,,,,,,,,,,,,,,,,,,,,,,,
,,,,,,61561b5d9502ee82a057dcd2,62bbf971e2f920426a82a262,2022-06-29_09h05.02.833,Colour_Asymmetry_Pilot,2022.1.3,Win32,59.18560606,62bbe60bf3d75ef465d3e404,0,71,71,148,1,threeone,,,,,,,,,,,,,,,,,,,,,,,,,,,,,,,,,,,,,,,,,,,,,,,,,,,,,,,,,,,,,,,,,,,,,,,,,,,,,,,,,,,,,,,,,,,,,,,,,,,,,,,,,,,,,,,,,,,,,,,,,,,,,,,,,,,,,,,,,,,,,,,,,,,,,,,,
,,,,,,61561b5d9502ee82a057dcd2,62bbf971e2f920426a82a262,2022-06-29_09h05.02.833,Colour_Asymmetry_Pilot,2022.1.3,Win32,59.18560606,62bbe60bf3d75ef465d3e404,0,72,72,144,1,onetwo,,,,,,,,,,,,,,,,,,,,,,,,,,,,,,,,,,,,,,,,,,,,,,,,,,,,,,,,,,,,,,,,,,,,,,,,,,,,,,,,,,,,,,,,,,,,,,,,,,,,,,,,,,,,,,,,,,,,,,,,,,,,,,,,,,,,,,,,,,,,,,,,,,,,,,,,
,,,,,,61561b5d9502ee82a057dcd2,62bbf971e2f920426a82a262,2022-06-29_09h05.02.833,Colour_Asymmetry_Pilot,2022.1.3,Win32,59.18560606,62bbe60bf3d75ef465d3e404,0,73,73,139,1,twofour,,,,,,,,,,,,,,,,,,,,,,,,,,,,,,,,,,,,,,,,,,,,,,,,,,,,,,,,,,,,,,,,,,,,,,,,,,,,,,,,,,,,,,,,,,,,,,,,,,,,,,,,,,,,,,,,,,,,,,,,,,,,,,,,,,,,,,,,,,,,,,,,,,,,,,,,
,,,,,,61561b5d9502ee82a057dcd2,62bbf971e2f920426a82a262,2022-06-29_09h05.02.833,Colour_Asymmetry_Pilot,2022.1.3,Win32,59.18560606,62bbe60bf3d75ef465d3e404,0,74,74,120,1,onetwo,,,,,,,,,,,,,,,,,,,,,,,,,,,,,,,,,,,,,,,,,,,,,,,,,,,,,,,,,,,,,,,,,,,,,,,,,,,,,,,,,,,,,,,,,,,,,,,,,,,,,,,,,,,,,,,,,,,,,,,,,,,,,,,,,,,,,,,,,,,,,,,,,,,,,,,,
,,,,,,61561b5d9502ee82a057dcd2,62bbf971e2f920426a82a262,2022-06-29_09h05.02.833,Colour_Asymmetry_Pilot,2022.1.3,Win32,59.18560606,62bbe60bf3d75ef465d3e404,0,75,75,56,1,onetwo,,,,,,,,,,,,,,,,,,,,,,,,,,,,,,,,,,,,,,,,,,,,,,,,,,,,,,,,,,,,,,,,,,,,,,,,,,,,,,,,,,,,,,,,,,,,,,,,,,,,,,,,,,,,,,,,,,,,,,,,,,,,,,,,,,,,,,,,,,,,,,,,,,,,,,,,
,,,,,,61561b5d9502ee82a057dcd2,62bbf971e2f920426a82a262,2022-06-29_09h05.02.833,Colour_Asymmetry_Pilot,2022.1.3,Win32,59.18560606,62bbe60bf3d75ef465d3e404,0,76,76,100,1,threeone,,,,,,,,,,,,,,,,,,,,,,,,,,,,,,,,,,,,,,,,,,,,,,,,,,,,,,,,,,,,,,,,,,,,,,,,,,,,,,,,,,,,,,,,,,,,,,,,,,,,,,,,,,,,,,,,,,,,,,,,,,,,,,,,,,,,,,,,,,,,,,,,,,,,,,,,
,,,,,,61561b5d9502ee82a057dcd2,62bbf971e2f920426a82a262,2022-06-29_09h05.02.833,Colour_Asymmetry_Pilot,2022.1.3,Win32,59.18560606,62bbe60bf3d75ef465d3e404,0,77,77,82,1,twoone,,,,,,,,,,,,,,,,,,,,,,,,,,,,,,,,,,,,,,,,,,,,,,,,,,,,,,,,,,,,,,,,,,,,,,,,,,,,,,,,,,,,,,,,,,,,,,,,,,,,,,,,,,,,,,,,,,,,,,,,,,,,,,,,,,,,,,,,,,,,,,,,,,,,,,,,
,,,,,,61561b5d9502ee82a057dcd2,62bbf971e2f920426a82a262,2022-06-29_09h05.02.833,Colour_Asymmetry_Pilot,2022.1.3,Win32,59.18560606,62bbe60bf3d75ef465d3e404,0,78,78,46,1,fourtwo,,,,,,,,,,,,,,,,,,,,,,,,,,,,,,,,,,,,,,,,,,,,,,,,,,,,,,,,,,,,,,,,,,,,,,,,,,,,,,,,,,,,,,,,,,,,,,,,,,,,,,,,,,,,,,,,,,,,,,,,,,,,,,,,,,,,,,,,,,,,,,,,,,,,,,,,
,,,,,,61561b5d9502ee82a057dcd2,62bbf971e2f920426a82a262,2022-06-29_09h05.02.833,Colour_Asymmetry_Pilot,2022.1.3,Win32,59.18560606,62bbe60bf3d75ef465d3e404,0,79,79,50,1,twoone,,,,,,,,,,,,,,,,,,,,,,,,,,,,,,,,,,,,,,,,,,,,,,,,,,,,,,,,,,,,,,,,,,,,,,,,,,,,,,,,,,,,,,,,,,,,,,,,,,,,,,,,,,,,,,,,,,,,,,,,,,,,,,,,,,,,,,,,,,,,,,,,,,,,,,,,
,,,,,,61561b5d9502ee82a057dcd2,62bbf971e2f920426a82a262,2022-06-29_09h05.02.833,Colour_Asymmetry_Pilot,2022.1.3,Win32,59.18560606,62bbe60bf3d75ef465d3e404,0,80,80,103,1,fourthree,,,,,,,,,,,,,,,,,,,,,,,,,,,,,,,,,,,,,,,,,,,,,,,,,,,,,,,,,,,,,,,,,,,,,,,,,,,,,,,,,,,,,,,,,,,,,,,,,,,,,,,,,,,,,,,,,,,,,,,,,,,,,,,,,,,,,,,,,,,,,,,,,,,,,,,,
,,,,,,61561b5d9502ee82a057dcd2,62bbf971e2f920426a82a262,2022-06-29_09h05.02.833,Colour_Asymmetry_Pilot,2022.1.3,Win32,59.18560606,62bbe60bf3d75ef465d3e404,0,81,81,141,1,threefour,,,,,,,,,,,,,,,,,,,,,,,,,,,,,,,,,,,,,,,,,,,,,,,,,,,,,,,,,,,,,,,,,,,,,,,,,,,,,,,,,,,,,,,,,,,,,,,,,,,,,,,,,,,,,,,,,,,,,,,,,,,,,,,,,,,,,,,,,,,,,,,,,,,,,,,,
,,,,,,61561b5d9502ee82a057dcd2,62bbf971e2f920426a82a262,2022-06-29_09h05.02.833,Colour_Asymmetry_Pilot,2022.1.3,Win32,59.18560606,62bbe60bf3d75ef465d3e404,0,82,82,160,1,onetwo,,,,,,,,,,,,,,,,,,,,,,,,,,,,,,,,,,,,,,,,,,,,,,,,,,,,,,,,,,,,,,,,,,,,,,,,,,,,,,,,,,,,,,,,,,,,,,,,,,,,,,,,,,,,,,,,,,,,,,,,,,,,,,,,,,,,,,,,,,,,,,,,,,,,,,,,
,,,,,,61561b5d9502ee82a057dcd2,62bbf971e2f920426a82a262,2022-06-29_09h05.02.833,Colour_Asymmetry_Pilot,2022.1.3,Win32,59.18560606,62bbe60bf3d75ef465d3e404,0,83,83,60,1,threeone,,,,,,,,,,,,,,,,,,,,,,,,,,,,,,,,,,,,,,,,,,,,,,,,,,,,,,,,,,,,,,,,,,,,,,,,,,,,,,,,,,,,,,,,,,,,,,,,,,,,,,,,,,,,,,,,,,,,,,,,,,,,,,,,,,,,,,,,,,,,,,,,,,,,,,,,
,,,,,,61561b5d9502ee82a057dcd2,62bbf971e2f920426a82a262,2022-06-29_09h05.02.833,Colour_Asymmetry_Pilot,2022.1.3,Win32,59.18560606,62bbe60bf3d75ef465d3e404,0,84,84,138,1,twoone,,,,,,,,,,,,,,,,,,,,,,,,,,,,,,,,,,,,,,,,,,,,,,,,,,,,,,,,,,,,,,,,,,,,,,,,,,,,,,,,,,,,,,,,,,,,,,,,,,,,,,,,,,,,,,,,,,,,,,,,,,,,,,,,,,,,,,,,,,,,,,,,,,,,,,,,
,,,,,,61561b5d9502ee82a057dcd2,62bbf971e2f920426a82a262,2022-06-29_09h05.02.833,Colour_Asymmetry_Pilot,2022.1.3,Win32,59.18560606,62bbe60bf3d75ef465d3e404,0,85,85,86,1,fourtwo,,,,,,,,,,,,,,,,,,,,,,,,,,,,,,,,,,,,,,,,,,,,,,,,,,,,,,,,,,,,,,,,,,,,,,,,,,,,,,,,,,,,,,,,,,,,,,,,,,,,,,,,,,,,,,,,,,,,,,,,,,,,,,,,,,,,,,,,,,,,,,,,,,,,,,,,
,,,,,,61561b5d9502ee82a057dcd2,62bbf971e2f920426a82a262,2022-06-29_09h05.02.833,Colour_Asymmetry_Pilot,2022.1.3,Win32,59.18560606,62bbe60bf3d75ef465d3e404,0,86,86,39,1,fourthree,,,,,,,,,,,,,,,,,,,,,,,,,,,,,,,,,,,,,,,,,,,,,,,,,,,,,,,,,,,,,,,,,,,,,,,,,,,,,,,,,,,,,,,,,,,,,,,,,,,,,,,,,,,,,,,,,,,,,,,,,,,,,,,,,,,,,,,,,,,,,,,,,,,,,,,,
,,,,,,61561b5d9502ee82a057dcd2,62bbf971e2f920426a82a262,2022-06-29_09h05.02.833,Colour_Asymmetry_Pilot,2022.1.3,Win32,59.18560606,62bbe60bf3d75ef465d3e404,0,87,87,12,1,threeone,,,,,,,,,,,,,,,,,,,,,,,,,,,,,,,,,,,,,,,,,,,,,,,,,,,,,,,,,,,,,,,,,,,,,,,,,,,,,,,,,,,,,,,,,,,,,,,,,,,,,,,,,,,,,,,,,,,,,,,,,,,,,,,,,,,,,,,,,,,,,,,,,,,,,,,,
,,,,,,61561b5d9502ee82a057dcd2,62bbf971e2f920426a82a262,2022-06-29_09h05.02.833,Colour_Asymmetry_Pilot,2022.1.3,Win32,59.18560606,62bbe60bf3d75ef465d3e404,0,88,88,71,1,fourthree,,,,,,,,,,,,,,,,,,,,,,,,,,,,,,,,,,,,,,,,,,,,,,,,,,,,,,,,,,,,,,,,,,,,,,,,,,,,,,,,,,,,,,,,,,,,,,,,,,,,,,,,,,,,,,,,,,,,,,,,,,,,,,,,,,,,,,,,,,,,,,,,,,,,,,,,
,,,,,,61561b5d9502ee82a057dcd2,62bbf971e2f920426a82a262,2022-06-29_09h05.02.833,Colour_Asymmetry_Pilot,2022.1.3,Win32,59.18560606,62bbe60bf3d75ef465d3e404,0,89,89,117,1,threefour,,,,,,,,,,,,,,,,,,,,,,,,,,,,,,,,,,,,,,,,,,,,,,,,,,,,,,,,,,,,,,,,,,,,,,,,,,,,,,,,,,,,,,,,,,,,,,,,,,,,,,,,,,,,,,,,,,,,,,,,,,,,,,,,,,,,,,,,,,,,,,,,,,,,,,,,
,,,,,,61561b5d9502ee82a057dcd2,62bbf971e2f920426a82a262,2022-06-29_09h05.02.833,Colour_Asymmetry_Pilot,2022.1.3,Win32,59.18560606,62bbe60bf3d75ef465d3e404,0,90,90,27,1,twofour,,,,,,,,,,,,,,,,,,,,,,,,,,,,,,,,,,,,,,,,,,,,,,,,,,,,,,,,,,,,,,,,,,,,,,,,,,,,,,,,,,,,,,,,,,,,,,,,,,,,,,,,,,,,,,,,,,,,,,,,,,,,,,,,,,,,,,,,,,,,,,,,,,,,,,,,
,,,,,,61561b5d9502ee82a057dcd2,62bbf971e2f920426a82a262,2022-06-29_09h05.02.833,Colour_Asymmetry_Pilot,2022.1.3,Win32,59.18560606,62bbe60bf3d75ef465d3e404,0,91,91,66,1,twoone,,,,,,,,,,,,,,,,,,,,,,,,,,,,,,,,,,,,,,,,,,,,,,,,,,,,,,,,,,,,,,,,,,,,,,,,,,,,,,,,,,,,,,,,,,,,,,,,,,,,,,,,,,,,,,,,,,,,,,,,,,,,,,,,,,,,,,,,,,,,,,,,,,,,,,,,
,,,,,,61561b5d9502ee82a057dcd2,62bbf971e2f920426a82a262,2022-06-29_09h05.02.833,Colour_Asymmetry_Pilot,2022.1.3,Win32,59.18560606,62bbe60bf3d75ef465d3e404,0,92,92,122,1,twoone,,,,,,,,,,,,,,,,,,,,,,,,,,,,,,,,,,,,,,,,,,,,,,,,,,,,,,,,,,,,,,,,,,,,,,,,,,,,,,,,,,,,,,,,,,,,,,,,,,,,,,,,,,,,,,,,,,,,,,,,,,,,,,,,,,,,,,,,,,,,,,,,,,,,,,,,
,,,,,,61561b5d9502ee82a057dcd2,62bbf971e2f920426a82a262,2022-06-29_09h05.02.833,Colour_Asymmetry_Pilot,2022.1.3,Win32,59.18560606,62bbe60bf3d75ef465d3e404,0,93,93,32,1,onetwo,,,,,,,,,,,,,,,,,,,,,,,,,,,,,,,,,,,,,,,,,,,,,,,,,,,,,,,,,,,,,,,,,,,,,,,,,,,,,,,,,,,,,,,,,,,,,,,,,,,,,,,,,,,,,,,,,,,,,,,,,,,,,,,,,,,,,,,,,,,,,,,,,,,,,,,,
,,,,,,61561b5d9502ee82a057dcd2,62bbf971e2f920426a82a262,2022-06-29_09h05.02.833,Colour_Asymmetry_Pilot,2022.1.3,Win32,59.18560606,62bbe60bf3d75ef465d3e404,0,94,94,92,1,threeone,,,,,,,,,,,,,,,,,,,,,,,,,,,,,,,,,,,,,,,,,,,,,,,,,,,,,,,,,,,,,,,,,,,,,,,,,,,,,,,,,,,,,,,,,,,,,,,,,,,,,,,,,,,,,,,,,,,,,,,,,,,,,,,,,,,,,,,,,,,,,,,,,,,,,,,,
,,,,,,61561b5d9502ee82a057dcd2,62bbf971e2f920426a82a262,2022-06-29_09h05.02.833,Colour_Asymmetry_Pilot,2022.1.3,Win32,59.18560606,62bbe60bf3d75ef465d3e404,0,95,95,23,1,fourthree,,,,,,,,,,,,,,,,,,,,,,,,,,,,,,,,,,,,,,,,,,,,,,,,,,,,,,,,,,,,,,,,,,,,,,,,,,,,,,,,,,,,,,,,,,,,,,,,,,,,,,,,,,,,,,,,,,,,,,,,,,,,,,,,,,,,,,,,,,,,,,,,,,,,,,,,
,,,,,,61561b5d9502ee82a057dcd2,62bbf971e2f920426a82a262,2022-06-29_09h05.02.833,Colour_Asymmetry_Pilot,2022.1.3,Win32,59.18560606,62bbe60bf3d75ef465d3e404,0,96,96,3,1,twofour,,,,,,,,,,,,,,,,,,,,,,,,,,,,,,,,,,,,,,,,,,,,,,,,,,,,,,,,,,,,,,,,,,,,,,,,,,,,,,,,,,,,,,,,,,,,,,,,,,,,,,,,,,,,,,,,,,,,,,,,,,,,,,,,,,,,,,,,,,,,,,,,,,,,,,,,
,,,,,,61561b5d9502ee82a057dcd2,62bbf971e2f920426a82a262,2022-06-29_09h05.02.833,Colour_Asymmetry_Pilot,2022.1.3,Win32,59.18560606,62bbe60bf3d75ef465d3e404,0,97,97,93,1,threefour,,,,,,,,,,,,,,,,,,,,,,,,,,,,,,,,,,,,,,,,,,,,,,,,,,,,,,,,,,,,,,,,,,,,,,,,,,,,,,,,,,,,,,,,,,,,,,,,,,,,,,,,,,,,,,,,,,,,,,,,,,,,,,,,,,,,,,,,,,,,,,,,,,,,,,,,
,,,,,,61561b5d9502ee82a057dcd2,62bbf971e2f920426a82a262,2022-06-29_09h05.02.833,Colour_Asymmetry_Pilot,2022.1.3,Win32,59.18560606,62bbe60bf3d75ef465d3e404,0,98,98,113,1,onethree,,,,,,,,,,,,,,,,,,,,,,,,,,,,,,,,,,,,,,,,,,,,,,,,,,,,,,,,,,,,,,,,,,,,,,,,,,,,,,,,,,,,,,,,,,,,,,,,,,,,,,,,,,,,,,,,,,,,,,,,,,,,,,,,,,,,,,,,,,,,,,,,,,,,,,,,
,,,,,,61561b5d9502ee82a057dcd2,62bbf971e2f920426a82a262,2022-06-29_09h05.02.833,Colour_Asymmetry_Pilot,2022.1.3,Win32,59.18560606,62bbe60bf3d75ef465d3e404,0,99,99,90,1,twoone,,,,,,,,,,,,,,,,,,,,,,,,,,,,,,,,,,,,,,,,,,,,,,,,,,,,,,,,,,,,,,,,,,,,,,,,,,,,,,,,,,,,,,,,,,,,,,,,,,,,,,,,,,,,,,,,,,,,,,,,,,,,,,,,,,,,,,,,,,,,,,,,,,,,,,,,
,,,,,,61561b5d9502ee82a057dcd2,62bbf971e2f920426a82a262,2022-06-29_09h05.02.833,Colour_Asymmetry_Pilot,2022.1.3,Win32,59.18560606,62bbe60bf3d75ef465d3e404,0,100,100,84,1,threeone,,,,,,,,,,,,,,,,,,,,,,,,,,,,,,,,,,,,,,,,,,,,,,,,,,,,,,,,,,,,,,,,,,,,,,,,,,,,,,,,,,,,,,,,,,,,,,,,,,,,,,,,,,,,,,,,,,,,,,,,,,,,,,,,,,,,,,,,,,,,,,,,,,,,,,,,
,,,,,,61561b5d9502ee82a057dcd2,62bbf971e2f920426a82a262,2022-06-29_09h05.02.833,Colour_Asymmetry_Pilot,2022.1.3,Win32,59.18560606,62bbe60bf3d75ef465d3e404,0,101,101,112,1,onetwo,,,,,,,,,,,,,,,,,,,,,,,,,,,,,,,,,,,,,,,,,,,,,,,,,,,,,,,,,,,,,,,,,,,,,,,,,,,,,,,,,,,,,,,,,,,,,,,,,,,,,,,,,,,,,,,,,,,,,,,,,,,,,,,,,,,,,,,,,,,,,,,,,,,,,,,,
,,,,,,61561b5d9502ee82a057dcd2,62bbf971e2f920426a82a262,2022-06-29_09h05.02.833,Colour_Asymmetry_Pilot,2022.1.3,Win32,59.18560606,62bbe60bf3d75ef465d3e404,0,102,102,107,1,twofour,,,,,,,,,,,,,,,,,,,,,,,,,,,,,,,,,,,,,,,,,,,,,,,,,,,,,,,,,,,,,,,,,,,,,,,,,,,,,,,,,,,,,,,,,,,,,,,,,,,,,,,,,,,,,,,,,,,,,,,,,,,,,,,,,,,,,,,,,,,,,,,,,,,,,,,,
,,,,,,61561b5d9502ee82a057dcd2,62bbf971e2f920426a82a262,2022-06-29_09h05.02.833,Colour_Asymmetry_Pilot,2022.1.3,Win32,59.18560606,62bbe60bf3d75ef465d3e404,0,103,103,95,1,fourthree,,,,,,,,,,,,,,,,,,,,,,,,,,,,,,,,,,,,,,,,,,,,,,,,,,,,,,,,,,,,,,,,,,,,,,,,,,,,,,,,,,,,,,,,,,,,,,,,,,,,,,,,,,,,,,,,,,,,,,,,,,,,,,,,,,,,,,,,,,,,,,,,,,,,,,,,
,,,,,,61561b5d9502ee82a057dcd2,62bbf971e2f920426a82a262,2022-06-29_09h05.02.833,Colour_Asymmetry_Pilot,2022.1.3,Win32,59.18560606,62bbe60bf3d75ef465d3e404,0,104,104,5,1,threefour,,,,,,,,,,,,,,,,,,,,,,,,,,,,,,,,,,,,,,,,,,,,,,,,,,,,,,,,,,,,,,,,,,,,,,,,,,,,,,,,,,,,,,,,,,,,,,,,,,,,,,,,,,,,,,,,,,,,,,,,,,,,,,,,,,,,,,,,,,,,,,,,,,,,,,,,
,,,,,,61561b5d9502ee82a057dcd2,62bbf971e2f920426a82a262,2022-06-29_09h05.02.833,Colour_Asymmetry_Pilot,2022.1.3,Win32,59.18560606,62bbe60bf3d75ef465d3e404,0,105,105,115,1,twofour,,,,,,,,,,,,,,,,,,,,,,,,,,,,,,,,,,,,,,,,,,,,,,,,,,,,,,,,,,,,,,,,,,,,,,,,,,,,,,,,,,,,,,,,,,,,,,,,,,,,,,,,,,,,,,,,,,,,,,,,,,,,,,,,,,,,,,,,,,,,,,,,,,,,,,,,
,,,,,,61561b5d9502ee82a057dcd2,62bbf971e2f920426a82a262,2022-06-29_09h05.02.833,Colour_Asymmetry_Pilot,2022.1.3,Win32,59.18560606,62bbe60bf3d75ef465d3e404,0,106,106,136,1,onetwo,,,,,,,,,,,,,,,,,,,,,,,,,,,,,,,,,,,,,,,,,,,,,,,,,,,,,,,,,,,,,,,,,,,,,,,,,,,,,,,,,,,,,,,,,,,,,,,,,,,,,,,,,,,,,,,,,,,,,,,,,,,,,,,,,,,,,,,,,,,,,,,,,,,,,,,,
,,,,,,61561b5d9502ee82a057dcd2,62bbf971e2f920426a82a262,2022-06-29_09h05.02.833,Colour_Asymmetry_Pilot,2022.1.3,Win32,59.18560606,62bbe60bf3d75ef465d3e404,0,107,107,85,1,threefour,,,,,,,,,,,,,,,,,,,,,,,,,,,,,,,,,,,,,,,,,,,,,,,,,,,,,,,,,,,,,,,,,,,,,,,,,,,,,,,,,,,,,,,,,,,,,,,,,,,,,,,,,,,,,,,,,,,,,,,,,,,,,,,,,,,,,,,,,,,,,,,,,,,,,,,,
,,,,,,61561b5d9502ee82a057dcd2,62bbf971e2f920426a82a262,2022-06-29_09h05.02.833,Colour_Asymmetry_Pilot,2022.1.3,Win32,59.18560606,62bbe60bf3d75ef465d3e404,0,108,108,62,1,fourtwo,,,,,,,,,,,,,,,,,,,,,,,,,,,,,,,,,,,,,,,,,,,,,,,,,,,,,,,,,,,,,,,,,,,,,,,,,,,,,,,,,,,,,,,,,,,,,,,,,,,,,,,,,,,,,,,,,,,,,,,,,,,,,,,,,,,,,,,,,,,,,,,,,,,,,,,,
,,,,,,61561b5d9502ee82a057dcd2,62bbf971e2f920426a82a262,2022-06-29_09h05.02.833,Colour_Asymmetry_Pilot,2022.1.3,Win32,59.18560606,62bbe60bf3d75ef465d3e404,0,109,109,101,1,threefour,,,,,,,,,,,,,,,,,,,,,,,,,,,,,,,,,,,,,,,,,,,,,,,,,,,,,,,,,,,,,,,,,,,,,,,,,,,,,,,,,,,,,,,,,,,,,,,,,,,,,,,,,,,,,,,,,,,,,,,,,,,,,,,,,,,,,,,,,,,,,,,,,,,,,,,,
,,,,,,61561b5d9502ee82a057dcd2,62bbf971e2f920426a82a262,2022-06-29_09h05.02.833,Colour_Asymmetry_Pilot,2022.1.3,Win32,59.18560606,62bbe60bf3d75ef465d3e404,0,110,110,51,1,twofour,,,,,,,,,,,,,,,,,,,,,,,,,,,,,,,,,,,,,,,,,,,,,,,,,,,,,,,,,,,,,,,,,,,,,,,,,,,,,,,,,,,,,,,,,,,,,,,,,,,,,,,,,,,,,,,,,,,,,,,,,,,,,,,,,,,,,,,,,,,,,,,,,,,,,,,,
,,,,,,61561b5d9502ee82a057dcd2,62bbf971e2f920426a82a262,2022-06-29_09h05.02.833,Colour_Asymmetry_Pilot,2022.1.3,Win32,59.18560606,62bbe60bf3d75ef465d3e404,0,111,111,59,1,twofour,,,,,,,,,,,,,,,,,,,,,,,,,,,,,,,,,,,,,,,,,,,,,,,,,,,,,,,,,,,,,,,,,,,,,,,,,,,,,,,,,,,,,,,,,,,,,,,,,,,,,,,,,,,,,,,,,,,,,,,,,,,,,,,,,,,,,,,,,,,,,,,,,,,,,,,,
,,,,,,61561b5d9502ee82a057dcd2,62bbf971e2f920426a82a262,2022-06-29_09h05.02.833,Colour_Asymmetry_Pilot,2022.1.3,Win32,59.18560606,62bbe60bf3d75ef465d3e404,0,112,112,134,1,fourtwo,,,,,,,,,,,,,,,,,,,,,,,,,,,,,,,,,,,,,,,,,,,,,,,,,,,,,,,,,,,,,,,,,,,,,,,,,,,,,,,,,,,,,,,,,,,,,,,,,,,,,,,,,,,,,,,,,,,,,,,,,,,,,,,,,,,,,,,,,,,,,,,,,,,,,,,,
,,,,,,61561b5d9502ee82a057dcd2,62bbf971e2f920426a82a262,2022-06-29_09h05.02.833,Colour_Asymmetry_Pilot,2022.1.3,Win32,59.18560606,62bbe60bf3d75ef465d3e404,0,113,113,77,1,threefour,,,,,,,,,,,,,,,,,,,,,,,,,,,,,,,,,,,,,,,,,,,,,,,,,,,,,,,,,,,,,,,,,,,,,,,,,,,,,,,,,,,,,,,,,,,,,,,,,,,,,,,,,,,,,,,,,,,,,,,,,,,,,,,,,,,,,,,,,,,,,,,,,,,,,,,,
,,,,,,61561b5d9502ee82a057dcd2,62bbf971e2f920426a82a262,2022-06-29_09h05.02.833,Colour_Asymmetry_Pilot,2022.1.3,Win32,59.18560606,62bbe60bf3d75ef465d3e404,0,114,114,142,1,fourtwo,,,,,,,,,,,,,,,,,,,,,,,,,,,,,,,,,,,,,,,,,,,,,,,,,,,,,,,,,,,,,,,,,,,,,,,,,,,,,,,,,,,,,,,,,,,,,,,,,,,,,,,,,,,,,,,,,,,,,,,,,,,,,,,,,,,,,,,,,,,,,,,,,,,,,,,,
,,,,,,61561b5d9502ee82a057dcd2,62bbf971e2f920426a82a262,2022-06-29_09h05.02.833,Colour_Asymmetry_Pilot,2022.1.3,Win32,59.18560606,62bbe60bf3d75ef465d3e404,0,115,115,17,1,onethree,,,,,,,,,,,,,,,,,,,,,,,,,,,,,,,,,,,,,,,,,,,,,,,,,,,,,,,,,,,,,,,,,,,,,,,,,,,,,,,,,,,,,,,,,,,,,,,,,,,,,,,,,,,,,,,,,,,,,,,,,,,,,,,,,,,,,,,,,,,,,,,,,,,,,,,,
,,,,,,61561b5d9502ee82a057dcd2,62bbf971e2f920426a82a262,2022-06-29_09h05.02.833,Colour_Asymmetry_Pilot,2022.1.3,Win32,59.18560606,62bbe60bf3d75ef465d3e404,0,116,116,132,1,threeone,,,,,,,,,,,,,,,,,,,,,,,,,,,,,,,,,,,,,,,,,,,,,,,,,,,,,,,,,,,,,,,,,,,,,,,,,,,,,,,,,,,,,,,,,,,,,,,,,,,,,,,,,,,,,,,,,,,,,,,,,,,,,,,,,,,,,,,,,,,,,,,,,,,,,,,,
,,,,,,61561b5d9502ee82a057dcd2,62bbf971e2f920426a82a262,2022-06-29_09h05.02.833,Colour_Asymmetry_Pilot,2022.1.3,Win32,59.18560606,62bbe60bf3d75ef465d3e404,0,117,117,37,1,threefour,,,,,,,,,,,,,,,,,,,,,,,,,,,,,,,,,,,,,,,,,,,,,,,,,,,,,,,,,,,,,,,,,,,,,,,,,,,,,,,,,,,,,,,,,,,,,,,,,,,,,,,,,,,,,,,,,,,,,,,,,,,,,,,,,,,,,,,,,,,,,,,,,,,,,,,,
,,,,,,61561b5d9502ee82a057dcd2,62bbf971e2f920426a82a262,2022-06-29_09h05.02.833,Colour_Asymmetry_Pilot,2022.1.3,Win32,59.18560606,62bbe60bf3d75ef465d3e404,0,118,118,97,1,onethree,,,,,,,,,,,,,,,,,,,,,,,,,,,,,,,,,,,,,,,,,,,,,,,,,,,,,,,,,,,,,,,,,,,,,,,,,,,,,,,,,,,,,,,,,,,,,,,,,,,,,,,,,,,,,,,,,,,,,,,,,,,,,,,,,,,,,,,,,,,,,,,,,,,,,,,,
,,,,,,61561b5d9502ee82a057dcd2,62bbf971e2f920426a82a262,2022-06-29_09h05.02.833,Colour_Asymmetry_Pilot,2022.1.3,Win32,59.18560606,62bbe60bf3d75ef465d3e404,0,119,119,150,1,fourtwo,,,,,,,,,,,,,,,,,,,,,,,,,,,,,,,,,,,,,,,,,,,,,,,,,,,,,,,,,,,,,,,,,,,,,,,,,,,,,,,,,,,,,,,,,,,,,,,,,,,,,,,,,,,,,,,,,,,,,,,,,,,,,,,,,,,,,,,,,,,,,,,,,,,,,,,,
,,,,,,61561b5d9502ee82a057dcd2,62bbf971e2f920426a82a262,2022-06-29_09h05.02.833,Colour_Asymmetry_Pilot,2022.1.3,Win32,59.18560606,62bbe60bf3d75ef465d3e404,0,120,120,47,1,fourthree,,,,,,,,,,,,,,,,,,,,,,,,,,,,,,,,,,,,,,,,,,,,,,,,,,,,,,,,,,,,,,,,,,,,,,,,,,,,,,,,,,,,,,,,,,,,,,,,,,,,,,,,,,,,,,,,,,,,,,,,,,,,,,,,,,,,,,,,,,,,,,,,,,,,,,,,
,,,,,,61561b5d9502ee82a057dcd2,62bbf971e2f920426a82a262,2022-06-29_09h05.02.833,Colour_Asymmetry_Pilot,2022.1.3,Win32,59.18560606,62bbe60bf3d75ef465d3e404,0,121,121,118,1,fourtwo,,,,,,,,,,,,,,,,,,,,,,,,,,,,,,,,,,,,,,,,,,,,,,,,,,,,,,,,,,,,,,,,,,,,,,,,,,,,,,,,,,,,,,,,,,,,,,,,,,,,,,,,,,,,,,,,,,,,,,,,,,,,,,,,,,,,,,,,,,,,,,,,,,,,,,,,
,,,,,,61561b5d9502ee82a057dcd2,62bbf971e2f920426a82a262,2022-06-29_09h05.02.833,Colour_Asymmetry_Pilot,2022.1.3,Win32,59.18560606,62bbe60bf3d75ef465d3e404,0,122,122,137,1,onethree,,,,,,,,,,,,,,,,,,,,,,,,,,,,,,,,,,,,,,,,,,,,,,,,,,,,,,,,,,,,,,,,,,,,,,,,,,,,,,,,,,,,,,,,,,,,,,,,,,,,,,,,,,,,,,,,,,,,,,,,,,,,,,,,,,,,,,,,,,,,,,,,,,,,,,,,
,,,,,,61561b5d9502ee82a057dcd2,62bbf971e2f920426a82a262,2022-06-29_09h05.02.833,Colour_Asymmetry_Pilot,2022.1.3,Win32,59.18560606,62bbe60bf3d75ef465d3e404,0,123,123,11,1,twofour,,,,,,,,,,,,,,,,,,,,,,,,,,,,,,,,,,,,,,,,,,,,,,,,,,,,,,,,,,,,,,,,,,,,,,,,,,,,,,,,,,,,,,,,,,,,,,,,,,,,,,,,,,,,,,,,,,,,,,,,,,,,,,,,,,,,,,,,,,,,,,,,,,,,,,,,
,,,,,,61561b5d9502ee82a057dcd2,62bbf971e2f920426a82a262,2022-06-29_09h05.02.833,Colour_Asymmetry_Pilot,2022.1.3,Win32,59.18560606,62bbe60bf3d75ef465d3e404,0,124,124,158,1,fourtwo,,,,,,,,,,,,,,,,,,,,,,,,,,,,,,,,,,,,,,,,,,,,,,,,,,,,,,,,,,,,,,,,,,,,,,,,,,,,,,,,,,,,,,,,,,,,,,,,,,,,,,,,,,,,,,,,,,,,,,,,,,,,,,,,,,,,,,,,,,,,,,,,,,,,,,,,
,,,,,,61561b5d9502ee82a057dcd2,62bbf971e2f920426a82a262,2022-06-29_09h05.02.833,Colour_Asymmetry_Pilot,2022.1.3,Win32,59.18560606,62bbe60bf3d75ef465d3e404,0,125,125,24,1,onetwo,,,,,,,,,,,,,,,,,,,,,,,,,,,,,,,,,,,,,,,,,,,,,,,,,,,,,,,,,,,,,,,,,,,,,,,,,,,,,,,,,,,,,,,,,,,,,,,,,,,,,,,,,,,,,,,,,,,,,,,,,,,,,,,,,,,,,,,,,,,,,,,,,,,,,,,,
,,,,,,61561b5d9502ee82a057dcd2,62bbf971e2f920426a82a262,2022-06-29_09h05.02.833,Colour_Asymmetry_Pilot,2022.1.3,Win32,59.18560606,62bbe60bf3d75ef465d3e404,0,126,126,161,1,onethree,,,,,,,,,,,,,,,,,,,,,,,,,,,,,,,,,,,,,,,,,,,,,,,,,,,,,,,,,,,,,,,,,,,,,,,,,,,,,,,,,,,,,,,,,,,,,,,,,,,,,,,,,,,,,,,,,,,,,,,,,,,,,,,,,,,,,,,,,,,,,,,,,,,,,,,,
,,,,,,61561b5d9502ee82a057dcd2,62bbf971e2f920426a82a262,2022-06-29_09h05.02.833,Colour_Asymmetry_Pilot,2022.1.3,Win32,59.18560606,62bbe60bf3d75ef465d3e404,0,127,127,105,1,onethree,,,,,,,,,,,,,,,,,,,,,,,,,,,,,,,,,,,,,,,,,,,,,,,,,,,,,,,,,,,,,,,,,,,,,,,,,,,,,,,,,,,,,,,,,,,,,,,,,,,,,,,,,,,,,,,,,,,,,,,,,,,,,,,,,,,,,,,,,,,,,,,,,,,,,,,,
,,,,,,61561b5d9502ee82a057dcd2,62bbf971e2f920426a82a262,2022-06-29_09h05.02.833,Colour_Asymmetry_Pilot,2022.1.3,Win32,59.18560606,62bbe60bf3d75ef465d3e404,0,128,128,67,1,twofour,,,,,,,,,,,,,,,,,,,,,,,,,,,,,,,,,,,,,,,,,,,,,,,,,,,,,,,,,,,,,,,,,,,,,,,,,,,,,,,,,,,,,,,,,,,,,,,,,,,,,,,,,,,,,,,,,,,,,,,,,,,,,,,,,,,,,,,,,,,,,,,,,,,,,,,,
,,,,,,61561b5d9502ee82a057dcd2,62bbf971e2f920426a82a262,2022-06-29_09h05.02.833,Colour_Asymmetry_Pilot,2022.1.3,Win32,59.18560606,62bbe60bf3d75ef465d3e404,0,129,129,55,1,fourthree,,,,,,,,,,,,,,,,,,,,,,,,,,,,,,,,,,,,,,,,,,,,,,,,,,,,,,,,,,,,,,,,,,,,,,,,,,,,,,,,,,,,,,,,,,,,,,,,,,,,,,,,,,,,,,,,,,,,,,,,,,,,,,,,,,,,,,,,,,,,,,,,,,,,,,,,
,,,,,,61561b5d9502ee82a057dcd2,62bbf971e2f920426a82a262,2022-06-29_09h05.02.833,Colour_Asymmetry_Pilot,2022.1.3,Win32,59.18560606,62bbe60bf3d75ef465d3e404,0,130,130,48,1,onetwo,,,,,,,,,,,,,,,,,,,,,,,,,,,,,,,,,,,,,,,,,,,,,,,,,,,,,,,,,,,,,,,,,,,,,,,,,,,,,,,,,,,,,,,,,,,,,,,,,,,,,,,,,,,,,,,,,,,,,,,,,,,,,,,,,,,,,,,,,,,,,,,,,,,,,,,,
,,,,,,61561b5d9502ee82a057dcd2,62bbf971e2f920426a82a262,2022-06-29_09h05.02.833,Colour_Asymmetry_Pilot,2022.1.3,Win32,59.18560606,62bbe60bf3d75ef465d3e404,0,131,131,69,1,threefour,,,,,,,,,,,,,,,,,,,,,,,,,,,,,,,,,,,,,,,,,,,,,,,,,,,,,,,,,,,,,,,,,,,,,,,,,,,,,,,,,,,,,,,,,,,,,,,,,,,,,,,,,,,,,,,,,,,,,,,,,,,,,,,,,,,,,,,,,,,,,,,,,,,,,,,,
,,,,,,61561b5d9502ee82a057dcd2,62bbf971e2f920426a82a262,2022-06-29_09h05.02.833,Colour_Asymmetry_Pilot,2022.1.3,Win32,59.18560606,62bbe60bf3d75ef465d3e404,0,132,132,75,1,twofour,,,,,,,,,,,,,,,,,,,,,,,,,,,,,,,,,,,,,,,,,,,,,,,,,,,,,,,,,,,,,,,,,,,,,,,,,,,,,,,,,,,,,,,,,,,,,,,,,,,,,,,,,,,,,,,,,,,,,,,,,,,,,,,,,,,,,,,,,,,,,,,,,,,,,,,,
,,,,,,61561b5d9502ee82a057dcd2,62bbf971e2f920426a82a262,2022-06-29_09h05.02.833,Colour_Asymmetry_Pilot,2022.1.3,Win32,59.18560606,62bbe60bf3d75ef465d3e404,0,133,133,42,1,twoone,,,,,,,,,,,,,,,,,,,,,,,,,,,,,,,,,,,,,,,,,,,,,,,,,,,,,,,,,,,,,,,,,,,,,,,,,,,,,,,,,,,,,,,,,,,,,,,,,,,,,,,,,,,,,,,,,,,,,,,,,,,,,,,,,,,,,,,,,,,,,,,,,,,,,,,,
,,,,,,61561b5d9502ee82a057dcd2,62bbf971e2f920426a82a262,2022-06-29_09h05.02.833,Colour_Asymmetry_Pilot,2022.1.3,Win32,59.18560606,62bbe60bf3d75ef465d3e404,0,134,134,151,1,fourthree,,,,,,,,,,,,,,,,,,,,,,,,,,,,,,,,,,,,,,,,,,,,,,,,,,,,,,,,,,,,,,,,,,,,,,,,,,,,,,,,,,,,,,,,,,,,,,,,,,,,,,,,,,,,,,,,,,,,,,,,,,,,,,,,,,,,,,,,,,,,,,,,,,,,,,,,
,,,,,,61561b5d9502ee82a057dcd2,62bbf971e2f920426a82a262,2022-06-29_09h05.02.833,Colour_Asymmetry_Pilot,2022.1.3,Win32,59.18560606,62bbe60bf3d75ef465d3e404,0,135,135,58,1,twoone,,,,,,,,,,,,,,,,,,,,,,,,,,,,,,,,,,,,,,,,,,,,,,,,,,,,,,,,,,,,,,,,,,,,,,,,,,,,,,,,,,,,,,,,,,,,,,,,,,,,,,,,,,,,,,,,,,,,,,,,,,,,,,,,,,,,,,,,,,,,,,,,,,,,,,,,
,,,,,,61561b5d9502ee82a057dcd2,62bbf971e2f920426a82a262,2022-06-29_09h05.02.833,Colour_Asymmetry_Pilot,2022.1.3,Win32,59.18560606,62bbe60bf3d75ef465d3e404,0,136,136,78,1,fourtwo,,,,,,,,,,,,,,,,,,,,,,,,,,,,,,,,,,,,,,,,,,,,,,,,,,,,,,,,,,,,,,,,,,,,,,,,,,,,,,,,,,,,,,,,,,,,,,,,,,,,,,,,,,,,,,,,,,,,,,,,,,,,,,,,,,,,,,,,,,,,,,,,,,,,,,,,
,,,,,,61561b5d9502ee82a057dcd2,62bbf971e2f920426a82a262,2022-06-29_09h05.02.833,Colour_Asymmetry_Pilot,2022.1.3,Win32,59.18560606,62bbe60bf3d75ef465d3e404,0,137,137,94,1,fourtwo,,,,,,,,,,,,,,,,,,,,,,,,,,,,,,,,,,,,,,,,,,,,,,,,,,,,,,,,,,,,,,,,,,,,,,,,,,,,,,,,,,,,,,,,,,,,,,,,,,,,,,,,,,,,,,,,,,,,,,,,,,,,,,,,,,,,,,,,,,,,,,,,,,,,,,,,
,,,,,,61561b5d9502ee82a057dcd2,62bbf971e2f920426a82a262,2022-06-29_09h05.02.833,Colour_Asymmetry_Pilot,2022.1.3,Win32,59.18560606,62bbe60bf3d75ef465d3e404,0,138,138,74,1,twoone,,,,,,,,,,,,,,,,,,,,,,,,,,,,,,,,,,,,,,,,,,,,,,,,,,,,,,,,,,,,,,,,,,,,,,,,,,,,,,,,,,,,,,,,,,,,,,,,,,,,,,,,,,,,,,,,,,,,,,,,,,,,,,,,,,,,,,,,,,,,,,,,,,,,,,,,
,,,,,,61561b5d9502ee82a057dcd2,62bbf971e2f920426a82a262,2022-06-29_09h05.02.833,Colour_Asymmetry_Pilot,2022.1.3,Win32,59.18560606,62bbe60bf3d75ef465d3e404,0,139,139,159,1,fourthree,,,,,,,,,,,,,,,,,,,,,,,,,,,,,,,,,,,,,,,,,,,,,,,,,,,,,,,,,,,,,,,,,,,,,,,,,,,,,,,,,,,,,,,,,,,,,,,,,,,,,,,,,,,,,,,,,,,,,,,,,,,,,,,,,,,,,,,,,,,,,,,,,,,,,,,,
,,,,,,61561b5d9502ee82a057dcd2,62bbf971e2f920426a82a262,2022-06-29_09h05.02.833,Colour_Asymmetry_Pilot,2022.1.3,Win32,59.18560606,62bbe60bf3d75ef465d3e404,0,140,140,129,1,onethree,,,,,,,,,,,,,,,,,,,,,,,,,,,,,,,,,,,,,,,,,,,,,,,,,,,,,,,,,,,,,,,,,,,,,,,,,,,,,,,,,,,,,,,,,,,,,,,,,,,,,,,,,,,,,,,,,,,,,,,,,,,,,,,,,,,,,,,,,,,,,,,,,,,,,,,,
,,,,,,61561b5d9502ee82a057dcd2,62bbf971e2f920426a82a262,2022-06-29_09h05.02.833,Colour_Asymmetry_Pilot,2022.1.3,Win32,59.18560606,62bbe60bf3d75ef465d3e404,0,141,141,146,1,twoone,,,,,,,,,,,,,,,,,,,,,,,,,,,,,,,,,,,,,,,,,,,,,,,,,,,,,,,,,,,,,,,,,,,,,,,,,,,,,,,,,,,,,,,,,,,,,,,,,,,,,,,,,,,,,,,,,,,,,,,,,,,,,,,,,,,,,,,,,,,,,,,,,,,,,,,,
,,,,,,61561b5d9502ee82a057dcd2,62bbf971e2f920426a82a262,2022-06-29_09h05.02.833,Colour_Asymmetry_Pilot,2022.1.3,Win32,59.18560606,62bbe60bf3d75ef465d3e404,0,142,142,81,1,onethree,,,,,,,,,,,,,,,,,,,,,,,,,,,,,,,,,,,,,,,,,,,,,,,,,,,,,,,,,,,,,,,,,,,,,,,,,,,,,,,,,,,,,,,,,,,,,,,,,,,,,,,,,,,,,,,,,,,,,,,,,,,,,,,,,,,,,,,,,,,,,,,,,,,,,,,,
,,,,,,61561b5d9502ee82a057dcd2,62bbf971e2f920426a82a262,2022-06-29_09h05.02.833,Colour_Asymmetry_Pilot,2022.1.3,Win32,59.18560606,62bbe60bf3d75ef465d3e404,0,143,143,14,1,fourtwo,,,,,,,,,,,,,,,,,,,,,,,,,,,,,,,,,,,,,,,,,,,,,,,,,,,,,,,,,,,,,,,,,,,,,,,,,,,,,,,,,,,,,,,,,,,,,,,,,,,,,,,,,,,,,,,,,,,,,,,,,,,,,,,,,,,,,,,,,,,,,,,,,,,,,,,,
,,,,,,61561b5d9502ee82a057dcd2,62bbf971e2f920426a82a262,2022-06-29_09h05.02.833,Colour_Asymmetry_Pilot,2022.1.3,Win32,59.18560606,62bbe60bf3d75ef465d3e404,0,144,144,76,1,threeone,,,,,,,,,,,,,,,,,,,,,,,,,,,,,,,,,,,,,,,,,,,,,,,,,,,,,,,,,,,,,,,,,,,,,,,,,,,,,,,,,,,,,,,,,,,,,,,,,,,,,,,,,,,,,,,,,,,,,,,,,,,,,,,,,,,,,,,,,,,,,,,,,,,,,,,,
,,,,,,61561b5d9502ee82a057dcd2,62bbf971e2f920426a82a262,2022-06-29_09h05.02.833,Colour_Asymmetry_Pilot,2022.1.3,Win32,59.18560606,62bbe60bf3d75ef465d3e404,0,145,145,52,1,threeone,,,,,,,,,,,,,,,,,,,,,,,,,,,,,,,,,,,,,,,,,,,,,,,,,,,,,,,,,,,,,,,,,,,,,,,,,,,,,,,,,,,,,,,,,,,,,,,,,,,,,,,,,,,,,,,,,,,,,,,,,,,,,,,,,,,,,,,,,,,,,,,,,,,,,,,,
,,,,,,61561b5d9502ee82a057dcd2,62bbf971e2f920426a82a262,2022-06-29_09h05.02.833,Colour_Asymmetry_Pilot,2022.1.3,Win32,59.18560606,62bbe60bf3d75ef465d3e404,0,146,146,98,1,twoone,,,,,,,,,,,,,,,,,,,,,,,,,,,,,,,,,,,,,,,,,,,,,,,,,,,,,,,,,,,,,,,,,,,,,,,,,,,,,,,,,,,,,,,,,,,,,,,,,,,,,,,,,,,,,,,,,,,,,,,,,,,,,,,,,,,,,,,,,,,,,,,,,,,,,,,,
,,,,,,61561b5d9502ee82a057dcd2,62bbf971e2f920426a82a262,2022-06-29_09h05.02.833,Colour_Asymmetry_Pilot,2022.1.3,Win32,59.18560606,62bbe60bf3d75ef465d3e404,0,147,147,45,1,threefour,,,,,,,,,,,,,,,,,,,,,,,,,,,,,,,,,,,,,,,,,,,,,,,,,,,,,,,,,,,,,,,,,,,,,,,,,,,,,,,,,,,,,,,,,,,,,,,,,,,,,,,,,,,,,,,,,,,,,,,,,,,,,,,,,,,,,,,,,,,,,,,,,,,,,,,,
,,,,,,61561b5d9502ee82a057dcd2,62bbf971e2f920426a82a262,2022-06-29_09h05.02.833,Colour_Asymmetry_Pilot,2022.1.3,Win32,59.18560606,62bbe60bf3d75ef465d3e404,0,148,148,131,1,twofour,,,,,,,,,,,,,,,,,,,,,,,,,,,,,,,,,,,,,,,,,,,,,,,,,,,,,,,,,,,,,,,,,,,,,,,,,,,,,,,,,,,,,,,,,,,,,,,,,,,,,,,,,,,,,,,,,,,,,,,,,,,,,,,,,,,,,,,,,,,,,,,,,,,,,,,,
,,,,,,61561b5d9502ee82a057dcd2,62bbf971e2f920426a82a262,2022-06-29_09h05.02.833,Colour_Asymmetry_Pilot,2022.1.3,Win32,59.18560606,62bbe60bf3d75ef465d3e404,0,149,149,26,1,twoone,,,,,,,,,,,,,,,,,,,,,,,,,,,,,,,,,,,,,,,,,,,,,,,,,,,,,,,,,,,,,,,,,,,,,,,,,,,,,,,,,,,,,,,,,,,,,,,,,,,,,,,,,,,,,,,,,,,,,,,,,,,,,,,,,,,,,,,,,,,,,,,,,,,,,,,,
,,,,,,61561b5d9502ee82a057dcd2,62bbf971e2f920426a82a262,2022-06-29_09h05.02.833,Colour_Asymmetry_Pilot,2022.1.3,Win32,59.18560606,62bbe60bf3d75ef465d3e404,0,150,150,123,1,twofour,,,,,,,,,,,,,,,,,,,,,,,,,,,,,,,,,,,,,,,,,,,,,,,,,,,,,,,,,,,,,,,,,,,,,,,,,,,,,,,,,,,,,,,,,,,,,,,,,,,,,,,,,,,,,,,,,,,,,,,,,,,,,,,,,,,,,,,,,,,,,,,,,,,,,,,,
,,,,,,61561b5d9502ee82a057dcd2,62bbf971e2f920426a82a262,2022-06-29_09h05.02.833,Colour_Asymmetry_Pilot,2022.1.3,Win32,59.18560606,62bbe60bf3d75ef465d3e404,0,151,151,0,1,onetwo,,,,,,,,,,,,,,,,,,,,,,,,,,,,,,,,,,,,,,,,,,,,,,,,,,,,,,,,,,,,,,,,,,,,,,,,,,,,,,,,,,,,,,,,,,,,,,,,,,,,,,,,,,,,,,,,,,,,,,,,,,,,,,,,,,,,,,,,,,,,,,,,,,,,,,,,
,,,,,,61561b5d9502ee82a057dcd2,62bbf971e2f920426a82a262,2022-06-29_09h05.02.833,Colour_Asymmetry_Pilot,2022.1.3,Win32,59.18560606,62bbe60bf3d75ef465d3e404,0,152,152,119,1,fourthree,,,,,,,,,,,,,,,,,,,,,,,,,,,,,,,,,,,,,,,,,,,,,,,,,,,,,,,,,,,,,,,,,,,,,,,,,,,,,,,,,,,,,,,,,,,,,,,,,,,,,,,,,,,,,,,,,,,,,,,,,,,,,,,,,,,,,,,,,,,,,,,,,,,,,,,,
,,,,,,61561b5d9502ee82a057dcd2,62bbf971e2f920426a82a262,2022-06-29_09h05.02.833,Colour_Asymmetry_Pilot,2022.1.3,Win32,59.18560606,62bbe60bf3d75ef465d3e404,0,153,153,72,1,onetwo,,,,,,,,,,,,,,,,,,,,,,,,,,,,,,,,,,,,,,,,,,,,,,,,,,,,,,,,,,,,,,,,,,,,,,,,,,,,,,,,,,,,,,,,,,,,,,,,,,,,,,,,,,,,,,,,,,,,,,,,,,,,,,,,,,,,,,,,,,,,,,,,,,,,,,,,
,,,,,,61561b5d9502ee82a057dcd2,62bbf971e2f920426a82a262,2022-06-29_09h05.02.833,Colour_Asymmetry_Pilot,2022.1.3,Win32,59.18560606,62bbe60bf3d75ef465d3e404,0,154,154,28,1,threeone,,,,,,,,,,,,,,,,,,,,,,,,,,,,,,,,,,,,,,,,,,,,,,,,,,,,,,,,,,,,,,,,,,,,,,,,,,,,,,,,,,,,,,,,,,,,,,,,,,,,,,,,,,,,,,,,,,,,,,,,,,,,,,,,,,,,,,,,,,,,,,,,,,,,,,,,
,,,,,,61561b5d9502ee82a057dcd2,62bbf971e2f920426a82a262,2022-06-29_09h05.02.833,Colour_Asymmetry_Pilot,2022.1.3,Win32,59.18560606,62bbe60bf3d75ef465d3e404,0,155,155,25,1,onethree,,,,,,,,,,,,,,,,,,,,,,,,,,,,,,,,,,,,,,,,,,,,,,,,,,,,,,,,,,,,,,,,,,,,,,,,,,,,,,,,,,,,,,,,,,,,,,,,,,,,,,,,,,,,,,,,,,,,,,,,,,,,,,,,,,,,,,,,,,,,,,,,,,,,,,,,
,,,,,,61561b5d9502ee82a057dcd2,62bbf971e2f920426a82a262,2022-06-29_09h05.02.833,Colour_Asymmetry_Pilot,2022.1.3,Win32,59.18560606,62bbe60bf3d75ef465d3e404,0,156,156,128,1,onetwo,,,,,,,,,,,,,,,,,,,,,,,,,,,,,,,,,,,,,,,,,,,,,,,,,,,,,,,,,,,,,,,,,,,,,,,,,,,,,,,,,,,,,,,,,,,,,,,,,,,,,,,,,,,,,,,,,,,,,,,,,,,,,,,,,,,,,,,,,,,,,,,,,,,,,,,,
,,,,,,61561b5d9502ee82a057dcd2,62bbf971e2f920426a82a262,2022-06-29_09h05.02.833,Colour_Asymmetry_Pilot,2022.1.3,Win32,59.18560606,62bbe60bf3d75ef465d3e404,0,157,157,4,1,threeone,,,,,,,,,,,,,,,,,,,,,,,,,,,,,,,,,,,,,,,,,,,,,,,,,,,,,,,,,,,,,,,,,,,,,,,,,,,,,,,,,,,,,,,,,,,,,,,,,,,,,,,,,,,,,,,,,,,,,,,,,,,,,,,,,,,,,,,,,,,,,,,,,,,,,,,,
,,,,,,61561b5d9502ee82a057dcd2,62bbf971e2f920426a82a262,2022-06-29_09h05.02.833,Colour_Asymmetry_Pilot,2022.1.3,Win32,59.18560606,62bbe60bf3d75ef465d3e404,0,158,158,9,1,onethree,,,,,,,,,,,,,,,,,,,,,,,,,,,,,,,,,,,,,,,,,,,,,,,,,,,,,,,,,,,,,,,,,,,,,,,,,,,,,,,,,,,,,,,,,,,,,,,,,,,,,,,,,,,,,,,,,,,,,,,,,,,,,,,,,,,,,,,,,,,,,,,,,,,,,,,,
,,,,,,61561b5d9502ee82a057dcd2,62bbf971e2f920426a82a262,2022-06-29_09h05.02.833,Colour_Asymmetry_Pilot,2022.1.3,Win32,59.18560606,62bbe60bf3d75ef465d3e404,0,159,159,116,1,threeone,,,,,,,,,,,,,,,,,,,,,,,,,,,,,,,,,,,,,,,,,,,,,,,,,,,,,,,,,,,,,,,,,,,,,,,,,,,,,,,,,,,,,,,,,,,,,,,,,,,,,,,,,,,,,,,,,,,,,,,,,,,,,,,,,,,,,,,,,,,,,,,,,,,,,,,,
,,,,,,61561b5d9502ee82a057dcd2,62bbf971e2f920426a82a262,2022-06-29_09h05.02.833,Colour_Asymmetry_Pilot,2022.1.3,Win32,59.18560606,62bbe60bf3d75ef465d3e404,0,160,160,127,1,fourthree,,,,,,,,,,,,,,,,,,,,,,,,,,,,,,,,,,,,,,,,,,,,,,,,,,,,,,,,,,,,,,,,,,,,,,,,,,,,,,,,,,,,,,,,,,,,,,,,,,,,,,,,,,,,,,,,,,,,,,,,,,,,,,,,,,,,,,,,,,,,,,,,,,,,,,,,
,,,,,,61561b5d9502ee82a057dcd2,62bbf971e2f920426a82a262,2022-06-29_09h05.02.833,Colour_Asymmetry_Pilot,2022.1.3,Win32,59.18560606,62bbe60bf3d75ef465d3e404,0,161,161,114,1,twoone,,,,,,,,,,,,,,,,,,,,,,,,,,,,,,,,,,,,,,,,,,,,,,,,,,,,,,,,,,,,,,,,,,,,,,,,,,,,,,,,,,,,,,,,,,,,,,,,,,,,,,,,,,,,,,,,,,,,,,,,,,,,,,,,,,,,,,,,,,,,,,,,,,,,,,,,
,,,,,,61561b5d9502ee82a057dcd2,62bbf971e2f920426a82a262,2022-06-29_09h05.02.833,Colour_Asymmetry_Pilot,2022.1.3,Win32,59.18560606,62bbe60bf3d75ef465d3e404,,,,,,,space,6.3021,space,83.6073,space,89.1263,space,35.4451,space,2.189,space,6.9326,"[0.2784,-0.31000000000000005,-0.5452]",twofour,"[-0.45899999999999996,-0.3256,-0.9374]",-4,19.7263,-65,75,1,0,0,response7disk_5,-7,2,1,0,0,rectangle_8,-7,2,1,0,0,2,-7,2,1,0,0,0,0,0,0,1,,,,,,,,,,,,,,,,,,,,,,,,,,,,,,,,,,,,,,,,,,,,,,,,,,,,,,,,,,,,,,,,,,,,,,,,,,,,,,,,,,,,,,,,,,,,,,,,,,,,,,,,,,,
,,,,,,61561b5d9502ee82a057dcd2,62bbf971e2f920426a82a262,2022-06-29_09h05.02.833,Colour_Asymmetry_Pilot,2022.1.3,Win32,59.18560606,62bbe60bf3d75ef465d3e404,,,,,,,,,,,,,,,,,,,"[0.9763999999999999,0.30979999999999985,-0.6786]",onethree,"[1,0.12939999999999996,-1]",1,21.6485,79,-83,1,0,0,response3disk_5,-1,1,1,0,0,rectangle_8,-1,1,1,0,0,2,-1,1,1,0,0,1,0,1,0,1,,,,,,,,,,,,,,,,,,,,,,,,,,,,,,,,,,,,,,,,,,,,,,,,,,,,,,,,,,,,,,,,,,,,,,,,,,,,,,,,,,,,,,,,,,,,,,,,,,,,,,,,,,,
,,,,,,61561b5d9502ee82a057dcd2,62bbf971e2f920426a82a262,2022-06-29_09h05.02.833,Colour_Asymmetry_Pilot,2022.1.3,Win32,59.18560606,62bbe60bf3d75ef465d3e404,,,,,,,,,,,,,,,,,,,"[-0.20799999999999996,-0.655,-0.01980000000000004]",fourtwo,"[0.37240000000000006,0.4980000000000002,-0.2864]",-4,13.3997,-52,56,1,0,0,response7disk_5,-1,5,1,0,0,rectangle_8,-1,5,1,0,0,2,-1,5,1,0,0,2,0,2,0,1,,,,,,,,,,,,,,,,,,,,,,,,,,,,,,,,,,,,,,,,,,,,,,,,,,,,,,,,,,,,,,,,,,,,,,,,,,,,,,,,,,,,,,,,,,,,,,,,,,,,,,,,,,,
,,,,,,61561b5d9502ee82a057dcd2,62bbf971e2f920426a82a262,2022-06-29_09h05.02.833,Colour_Asymmetry_Pilot,2022.1.3,Win32,59.18560606,62bbe60bf3d75ef465d3e404,,,,,,,,,,,,,,,,,,,"[-0.10599999999999998,-0.15300000000000002,0.15280000000000005]",onetwo,"[-0.5688,-0.08239999999999992,-0.1844]",3,4.8665,68,64,1,0,0,response1disk_5,-13,0,1,0,0,rectangle_8,-66,-52,1,0,0,2,-2,6,1,0,0,3,0,3,0,1,response5disk_7,2,rectangle_4,,,,,,,,,,,,,,,,,,,,,,,,,,,,,,,,,,,,,,,,,,,,,,,,,,,,,,,,,,,,,,,,,,,,,,,,,,,,,,,,,,,,,,,,,,,,,,,,,,,,,,,,
,,,,,,61561b5d9502ee82a057dcd2,62bbf971e2f920426a82a262,2022-06-29_09h05.02.833,Colour_Asymmetry_Pilot,2022.1.3,Win32,59.18560606,62bbe60bf3d75ef465d3e404,,,,,,,,,,,,,,,,,,,"[0.34099999999999997,0.12939999999999996,-0.9766]",fourthree,"[0.05879999999999996,0.2784,0.5841999999999998]",-4,11.4658,-59,72,1,0,0,response7disk_5,-7,1,1,0,0,rectangle_8,-59,-72,1,0,0,2,-4,-11,1,0,0,4,0,4,0,1,response5disk_7,3,rectangle_4,,,,,,,,,,,,,,,,,,,,,,,,,,,,,,,,,,,,,,,,,,,,,,,,,,,,,,,,,,,,,,,,,,,,,,,,,,,,,,,,,,,,,,,,,,,,,,,,,,,,,,,,
,,,,,,61561b5d9502ee82a057dcd2,62bbf971e2f920426a82a262,2022-06-29_09h05.02.833,Colour_Asymmetry_Pilot,2022.1.3,Win32,59.18560606,62bbe60bf3d75ef465d3e404,,,,,,,,,,,,,,,,,,,"[0.7802,-0.23140000000000005,-0.20799999999999996]",threeone,"[-0.2942,-0.7648,-0.7492000000000001]",3,2.7829,84,81,1,0,0,response1disk_5,-10,5,1,0,0,rectangle_8,-10,5,1,0,0,2,-10,5,1,0,0,5,0,5,0,1,,,,,,,,,,,,,,,,,,,,,,,,,,,,,,,,,,,,,,,,,,,,,,,,,,,,,,,,,,,,,,,,,,,,,,,,,,,,,,,,,,,,,,,,,,,,,,,,,,,,,,,,,,,
,,,,,,61561b5d9502ee82a057dcd2,62bbf971e2f920426a82a262,2022-06-29_09h05.02.833,Colour_Asymmetry_Pilot,2022.1.3,Win32,59.18560606,62bbe60bf3d75ef465d3e404,,,,,,,,,,,,,,,,,,,"[0.19199999999999995,0.18419999999999992,0.5136000000000001]",onethree,"[-0.5688,-0.08239999999999992,-0.1844]",2,5.6993,71,-55,1,0,0,response3disk_5,-13,1,1,0,0,rectangle_8,-13,1,1,0,0,2,-13,1,1,0,0,6,0,6,0,1,,,,,,,,,,,,,,,,,,,,,,,,,,,,,,,,,,,,,,,,,,,,,,,,,,,,,,,,,,,,,,,,,,,,,,,,,,,,,,,,,,,,,,,,,,,,,,,,,,,,,,,,,,,
,,,,,,61561b5d9502ee82a057dcd2,62bbf971e2f920426a82a262,2022-06-29_09h05.02.833,Colour_Asymmetry_Pilot,2022.1.3,Win32,59.18560606,62bbe60bf3d75ef465d3e404,,,,,,,,,,,,,,,,,,,,fourtwo,,-3,9.2011,,,,,,,,,,,,,,,,,,,,,,,,,,,,,,,,space,5.2012,"[-0.9688,-0.38039999999999996,-0.41979999999999995]","[-0.07459999999999989,0.12139999999999995,-0.9922]",-90,43,1,0,0,response7disk,-9,-1,1,0,0,rectangle,84,42,1,0,0,response1disk_3,3,3,6.2176,1,-8,3,1,0,0,rectangle,0,0,0,55,1,55,first,,,,,,,,,,,,,,,,,,,,,,,,,,,,,,,,,,,,,,,,,,,,,,,,,,,,,,,,,,,,,,,,,
,,,,,,61561b5d9502ee82a057dcd2,62bbf971e2f920426a82a262,2022-06-29_09h05.02.833,Colour_Asymmetry_Pilot,2022.1.3,Win32,59.18560606,62bbe60bf3d75ef465d3e404,,,,,,,,,,,,,,,,,,,,twoone,,3,3.5665,,,,,,,,,,,,,,,,,,,,,,,,,,,,,,,,,,"[-0.10599999999999998,-0.15300000000000002,0.15280000000000005]","[-0.9296,-0.12959999999999994,-0.043199999999999905]",90,46,1,0,0,response1disk,3,-4,1,0,0,rectangle,-87,-43,1,0,0,response5disk_3,-2,2,7.982,1,-1,4,1,0,0,rectangle,0,1,1,159,1,78,second,,,,,,,,,,,,,,,,,,,,,,,,,,,,,,,,,,,,,,,,,,,,,,,,,,,,,,,,,,,,,,,,,
,,,,,,61561b5d9502ee82a057dcd2,62bbf971e2f920426a82a262,2022-06-29_09h05.02.833,Colour_Asymmetry_Pilot,2022.1.3,Win32,59.18560606,62bbe60bf3d75ef465d3e404,,,,,,,,,,,,,,,,,,,,onetwo,,-1,9.1494,,,,,,,,,,,,,,,,,,,,,,,,,,,,,,,,,,"[0.11359999999999992,0.6312,0.5213999999999999]","[0.0351999999999999,0.41159999999999997,0.0038000000000000256]",-47,-82,1,0,0,response5disk,-10,4,1,0,0,rectangle,-10,4,1,0,0,,-2,1,0.002,0,-10,4,1,0,0,,0,2,2,63,1,63,first,,,,,,,,,,,,,,,,,,,,,,,,,,,,,,,,,,,,,,,,,,,,,,,,,,,,,,,,,,,,,,,,,
,,,,,,61561b5d9502ee82a057dcd2,62bbf971e2f920426a82a262,2022-06-29_09h05.02.833,Colour_Asymmetry_Pilot,2022.1.3,Win32,59.18560606,62bbe60bf3d75ef465d3e404,,,,,,,,,,,,,,,,,,,,threefour,,-4,8.2328,,,,,,,,,,,,,,,,,,,,,,,,,,,,,,,,,,"[0.796,0.2156,-0.27859999999999996]","[-0.9296,-0.12959999999999994,-0.043199999999999905]",-60,76,1,0,0,response7disk,-11,-2,1,0,0,rectangle,43,-96,1,0,0,response3disk_3,1,1,3.6683,1,6,-2,1,0,0,rectangle,0,3,3,160,1,79,second,,,,,,,,,,,,,,,,,,,,,,,,,,,,,,,,,,,,,,,,,,,,,,,,,,,,,,,,,,,,,,,,,
,,,,,,61561b5d9502ee82a057dcd2,62bbf971e2f920426a82a262,2022-06-29_09h05.02.833,Colour_Asymmetry_Pilot,2022.1.3,Win32,59.18560606,62bbe60bf3d75ef465d3e404,,,,,,,,,,,,,,,,,,,,twoone,,-4,8.2824,,,,,,,,,,,,,,,,,,,,,,,,,,,,,,,,,,"[0.40379999999999994,0.09000000000000008,0.44300000000000006]","[0.37240000000000006,-0.050999999999999934,-0.5216]",-46,93,1,0,0,response7disk,-5,2,1,0,0,rectangle,-5,2,1,0,0,,1,2,0.0014,0,-5,2,1,0,0,,0,4,4,12,1,12,first,,,,,,,,,,,,,,,,,,,,,,,,,,,,,,,,,,,,,,,,,,,,,,,,,,,,,,,,,,,,,,,,,
,,,,,,61561b5d9502ee82a057dcd2,62bbf971e2f920426a82a262,2022-06-29_09h05.02.833,Colour_Asymmetry_Pilot,2022.1.3,Win32,59.18560606,62bbe60bf3d75ef465d3e404,,,,,,,,,,,,,,,,,,,,threefour,,-4,3.6497,,,,,,,,,,,,,,,,,,,,,,,,,,,,,,,,,,"[-0.20799999999999996,-0.655,-0.01980000000000004]","[0.3568,-0.20799999999999996,-0.9844]",-47,87,1,0,0,response7disk,-8,-5,1,0,0,rectangle,-8,-5,1,0,0,,1,3,0.0017,0,-8,-5,1,0,0,,0,5,5,133,1,52,second,,,,,,,,,,,,,,,,,,,,,,,,,,,,,,,,,,,,,,,,,,,,,,,,,,,,,,,,,,,,,,,,,
,,,,,,61561b5d9502ee82a057dcd2,62bbf971e2f920426a82a262,2022-06-29_09h05.02.833,Colour_Asymmetry_Pilot,2022.1.3,Win32,59.18560606,62bbe60bf3d75ef465d3e404,,,,,,,,,,,,,,,,,,,,fourthree,,1,5.4332,,,,,,,,,,,,,,,,,,,,,,,,,,,,,,,,,,"[0.796,0.2156,-0.27859999999999996]","[0.8274000000000001,-0.5844,-0.9452]",43,-85,1,0,0,response3disk,-18,2,1,0,0,rectangle,-18,2,1,0,0,,1,3,0.0001,0,-18,2,1,0,0,,0,6,6,71,1,71,first,,,,,,,,,,,,,,,,,,,,,,,,,,,,,,,,,,,,,,,,,,,,,,,,,,,,,,,,,,,,,,,,,
,,,,,,61561b5d9502ee82a057dcd2,62bbf971e2f920426a82a262,2022-06-29_09h05.02.833,Colour_Asymmetry_Pilot,2022.1.3,Win32,59.18560606,62bbe60bf3d75ef465d3e404,,,,,,,,,,,,,,,,,,,,onethree,,-4,4.3167,,,,,,,,,,,,,,,,,,,,,,,,,,,,,,,,,,"[0.22340000000000004,-0.9296,-0.7884]","[-0.9766,-0.6472,0.07440000000000002]",-42,96,1,0,0,response7disk,1,2,1,0,0,rectangle,1,2,1,0,0,,1,2,0.0013,0,1,2,1,0,0,,0,7,7,156,1,75,second,,,,,,,,,,,,,,,,,,,,,,,,,,,,,,,,,,,,,,,,,,,,,,,,,,,,,,,,,,,,,,,,,
,,,,,,61561b5d9502ee82a057dcd2,62bbf971e2f920426a82a262,2022-06-29_09h05.02.833,Colour_Asymmetry_Pilot,2022.1.3,Win32,59.18560606,62bbe60bf3d75ef465d3e404,,,,,,,,,,,,,,,,,,,,fourtwo,,3,1.2334,,,,,,,,,,,,,,,,,,,,,,,,,,,,,,,,,,"[-0.34920000000000007,-0.702,-0.5216]","[-0.011800000000000033,-0.906,-0.45100000000000007]",87,45,1,0,0,response1disk,-5,-3,1,0,0,rectangle,-5,-3,1,0,0,,1,2,0.0001,0,-5,-3,1,0,0,,0,8,8,111,1,30,second,,,,,,,,,,,,,,,,,,,,,,,,,,,,,,,,,,,,,,,,,,,,,,,,,,,,,,,,,,,,,,,,,
,,,,,,61561b5d9502ee82a057dcd2,62bbf971e2f920426a82a262,2022-06-29_09h05.02.833,Colour_Asymmetry_Pilot,2022.1.3,Win32,59.18560606,62bbe60bf3d75ef465d3e404,,,,,,,,,,,,,,,,,,,,twofour,,-3,3.1999,,,,,,,,,,,,,,,,,,,,,,,,,,,,,,,,,,"[-0.9766,-0.6472,0.07440000000000002]","[0.34099999999999997,0.12939999999999996,-0.9766]",-96,46,1,0,0,response7disk,5,-2,1,0,0,rectangle,5,-2,1,0,0,,1,1,0.0019,0,5,-2,1,0,0,,0,9,9,67,1,67,first,,,,,,,,,,,,,,,,,,,,,,,,,,,,,,,,,,,,,,,,,,,,,,,,,,,,,,,,,,,,,,,,,
,,,,,,61561b5d9502ee82a057dcd2,62bbf971e2f920426a82a262,2022-06-29_09h05.02.833,Colour_Asymmetry_Pilot,2022.1.3,Win32,59.18560606,62bbe60bf3d75ef465d3e404,,,,,,,,,,,,,,,,,,,,fourthree,,-3,1.35,,,,,,,,,,,,,,,,,,,,,,,,,,,,,,,,,,"[-0.9688,-0.4902000000000001,-0.12159999999999993]","[0.34099999999999997,0.12939999999999996,-0.9766]",-84,39,1,0,0,response7disk,-3,-2,1,0,0,rectangle,-3,-2,1,0,0,,1,2,0.0018,0,-3,-2,1,0,0,,0,10,10,99,1,18,second,,,,,,,,,,,,,,,,,,,,,,,,,,,,,,,,,,,,,,,,,,,,,,,,,,,,,,,,,,,,,,,,,
,,,,,,61561b5d9502ee82a057dcd2,62bbf971e2f920426a82a262,2022-06-29_09h05.02.833,Colour_Asymmetry_Pilot,2022.1.3,Win32,59.18560606,62bbe60bf3d75ef465d3e404,,,,,,,,,,,,,,,,,,,,onetwo,,-2,5.5496,,,,,,,,,,,,,,,,,,,,,,,,,,,,,,,,,,"[-0.5688,-0.08239999999999992,-0.1844]","[-0.9688,-0.7412000000000001,-0.4902000000000001]",-85,-38,1,0,0,response5disk,-4,2,1,0,0,rectangle,-4,2,1,0,0,,1,1,0.0015,0,-4,2,1,0,0,,0,11,11,107,1,26,second,,,,,,,,,,,,,,,,,,,,,,,,,,,,,,,,,,,,,,,,,,,,,,,,,,,,,,,,,,,,,,,,,
,,,,,,61561b5d9502ee82a057dcd2,62bbf971e2f920426a82a262,2022-06-29_09h05.02.833,Colour_Asymmetry_Pilot,2022.1.3,Win32,59.18560606,62bbe60bf3d75ef465d3e404,,,,,,,,,,,,,,,,,,,,twoone,,-4,0.8501,,,,,,,,,,,,,,,,,,,,,,,,,,,,,,,,,,"[0.19199999999999995,0.18419999999999992,0.5136000000000001]","[-0.06680000000000008,-0.45100000000000007,-0.906]",-46,93,1,0,0,response7disk,-3,-1,1,0,0,rectangle,-3,-1,1,0,0,,1,2,0.0018,0,-3,-1,1,0,0,,0,12,12,157,1,76,second,,,,,,,,,,,,,,,,,,,,,,,,,,,,,,,,,,,,,,,,,,,,,,,,,,,,,,,,,,,,,,,,,
,,,,,,61561b5d9502ee82a057dcd2,62bbf971e2f920426a82a262,2022-06-29_09h05.02.833,Colour_Asymmetry_Pilot,2022.1.3,Win32,59.18560606,62bbe60bf3d75ef465d3e404,,,,,,,,,,,,,,,,,,,,twoone,,-4,2.9166,,,,,,,,,,,,,,,,,,,,,,,,,,,,,,,,,,"[-0.6235999999999999,-0.6786,-0.08239999999999992]","[-0.4276,0.0038000000000000256,-0.3256]",-36,91,1,0,0,response7disk,-14,-2,1,0,0,rectangle,-14,-2,1,0,0,,1,2,0.0003,0,-14,-2,1,0,0,,0,13,13,138,1,57,second,,,,,,,,,,,,,,,,,,,,,,,,,,,,,,,,,,,,,,,,,,,,,,,,,,,,,,,,,,,,,,,,,
,,,,,,61561b5d9502ee82a057dcd2,62bbf971e2f920426a82a262,2022-06-29_09h05.02.833,Colour_Asymmetry_Pilot,2022.1.3,Win32,59.18560606,62bbe60bf3d75ef465d3e404,,,,,,,,,,,,,,,,,,,,threefour,,1,4.0832,,,,,,,,,,,,,,,,,,,,,,,,,,,,,,,,,,"[0.3881999999999999,-0.23939999999999995,-0.05040000000000011]","[-0.4668,-0.8746,-0.2942]",40,-88,1,0,0,response3disk,2,4,1,0,0,rectangle,2,4,1,0,0,,1,2,0.0002,0,2,4,1,0,0,,0,14,14,118,1,37,second,,,,,,,,,,,,,,,,,,,,,,,,,,,,,,,,,,,,,,,,,,,,,,,,,,,,,,,,,,,,,,,,,
,,,,,,61561b5d9502ee82a057dcd2,62bbf971e2f920426a82a262,2022-06-29_09h05.02.833,Colour_Asymmetry_Pilot,2022.1.3,Win32,59.18560606,62bbe60bf3d75ef465d3e404,,,,,,,,,,,,,,,,,,,,fourthree,,-4,2.4998,,,,,,,,,,,,,,,,,,,,,,,,,,,,,,,,,,"[-0.45899999999999996,-0.3256,-0.9374]","[-0.8982,-0.37259999999999993,0.2784]",-52,77,1,0,0,response7disk,-5,3,1,0,0,rectangle,-5,3,1,0,0,,1,3,0.0022,0,-5,3,1,0,0,,0,15,15,127,1,46,second,,,,,,,,,,,,,,,,,,,,,,,,,,,,,,,,,,,,,,,,,,,,,,,,,,,,,,,,,,,,,,,,,
,,,,,,61561b5d9502ee82a057dcd2,62bbf971e2f920426a82a262,2022-06-29_09h05.02.833,Colour_Asymmetry_Pilot,2022.1.3,Win32,59.18560606,62bbe60bf3d75ef465d3e404,,,,,,,,,,,,,,,,,,,,onethree,,3,1.6828,,,,,,,,,,,,,,,,,,,,,,,,,,,,,,,,,,"[0.0351999999999999,0.41159999999999997,0.0038000000000000256]","[0.11359999999999992,0.6312,0.5213999999999999]",91,73,1,0,0,response1disk,-4,-6,1,0,0,rectangle,-4,-6,1,0,0,,1,3,0.0002,0,-4,-6,1,0,0,,0,16,16,144,1,63,second,,,,,,,,,,,,,,,,,,,,,,,,,,,,,,,,,,,,,,,,,,,,,,,,,,,,,,,,,,,,,,,,,
,,,,,,61561b5d9502ee82a057dcd2,62bbf971e2f920426a82a262,2022-06-29_09h05.02.833,Colour_Asymmetry_Pilot,2022.1.3,Win32,59.18560606,62bbe60bf3d75ef465d3e404,,,,,,,,,,,,,,,,,,,,fourtwo,,-2,2.1499,,,,,,,,,,,,,,,,,,,,,,,,,,,,,,,,,,"[0.9763999999999999,-0.1137999999999999,-0.6314]","[0.5528,0.7409999999999999,-0.71]",-78,-48,1,0,0,response5disk,-12,5,1,0,0,rectangle,-12,5,1,0,0,,1,2,0.0015,0,-12,5,1,0,0,,0,17,17,145,1,64,second,,,,,,,,,,,,,,,,,,,,,,,,,,,,,,,,,,,,,,,,,,,,,,,,,,,,,,,,,,,,,,,,,
,,,,,,61561b5d9502ee82a057dcd2,62bbf971e2f920426a82a262,2022-06-29_09h05.02.833,Colour_Asymmetry_Pilot,2022.1.3,Win32,59.18560606,62bbe60bf3d75ef465d3e404,,,,,,,,,,,,,,,,,,,,fourtwo,,-4,1.033,,,,,,,,,,,,,,,,,,,,,,,,,,,,,,,,,,"[-0.9688,-0.4902000000000001,-0.12159999999999993]","[-0.17659999999999998,-0.2864,-0.8354]",-52,81,1,0,0,response7disk,-12,1,1,0,0,rectangle,-12,1,1,0,0,,1,3,0.0027,0,-12,1,1,0,0,,0,18,18,39,1,39,first,,,,,,,,,,,,,,,,,,,,,,,,,,,,,,,,,,,,,,,,,,,,,,,,,,,,,,,,,,,,,,,,,
,,,,,,61561b5d9502ee82a057dcd2,62bbf971e2f920426a82a262,2022-06-29_09h05.02.833,Colour_Asymmetry_Pilot,2022.1.3,Win32,59.18560606,62bbe60bf3d75ef465d3e404,,,,,,,,,,,,,,,,,,,,threeone,,-3,1.1161,,,,,,,,,,,,,,,,,,,,,,,,,,,,,,,,,,"[0.37240000000000006,-0.050999999999999934,-0.5216]","[-0.24719999999999998,0.5213999999999999,-0.12959999999999994]",-95,43,1,0,0,response7disk,8,-3,1,0,0,rectangle,8,-3,1,0,0,,1,3,0.0003,0,8,-3,1,0,0,,0,19,19,123,1,42,second,,,,,,,,,,,,,,,,,,,,,,,,,,,,,,,,,,,,,,,,,,,,,,,,,,,,,,,,,,,,,,,,,
,,,,,,61561b5d9502ee82a057dcd2,62bbf971e2f920426a82a262,2022-06-29_09h05.02.833,Colour_Asymmetry_Pilot,2022.1.3,Win32,59.18560606,62bbe60bf3d75ef465d3e404,,,,,,,,,,,,,,,,,,,,fourthree,,-3,3.1498,,,,,,,,,,,,,,,,,,,,,,,,,,,,,,,,,,"[-0.4668,-0.8746,-0.2942]","[0.3881999999999999,-0.23939999999999995,-0.05040000000000011]",-89,38,1,0,0,response7disk,-5,4,1,0,0,rectangle,-5,4,1,0,0,,1,2,0.0016,0,-5,4,1,0,0,,0,20,20,37,1,37,first,,,,,,,,,,,,,,,,,,,,,,,,,,,,,,,,,,,,,,,,,,,,,,,,,,,,,,,,,,,,,,,,,
