trials.thisRepN,trials.thisTrialN,trials.thisN,trials.thisIndex,trials.ran,Colourcodes,participant,session,date,expName,psychopyVersion,OS,frameRate,study_id,trials_4.thisRepN,trials_4.thisTrialN,trials_4.thisN,trials_4.thisIndex,trials_4.ran,StimulusPos,key_resp.keys,key_resp.rt,key_resp_2.keys,key_resp_2.rt,key_resp_15.keys,key_resp_15.rt,key_resp_17.keys,key_resp_17.rt,key_resp_9.keys,key_resp_9.rt,key_resp_10.keys,key_resp_10.rt,Circle1_col,Ecc,Circle2_col,similarity,response_time,mouse_5.x,mouse_5.y,mouse_5.leftButton,mouse_5.midButton,mouse_5.rightButton,mouse_5.clicked_name,mouse_10.x,mouse_10.y,mouse_10.leftButton,mouse_10.midButton,mouse_10.rightButton,mouse_10.clicked_name,mouse_7.x,mouse_7.y,mouse_7.leftButton,mouse_7.midButton,mouse_7.rightButton,catchnumberprac,mouse_6.x,mouse_6.y,mouse_6.leftButton,mouse_6.midButton,mouse_6.rightButton,duringprac.thisRepN,duringprac.thisTrialN,duringprac.thisN,duringprac.thisIndex,duringprac.ran,mouse_7.clicked_name,catchprac,mouse_6.clicked_name,key_resp_22.keys,key_resp_22.rt,Circle1_colour,Circle2_colour,mouse.x,mouse.y,mouse.leftButton,mouse.midButton,mouse.rightButton,mouse.clicked_name,mouse_2.x,mouse_2.y,mouse_2.leftButton,mouse_2.midButton,mouse_2.rightButton,mouse_2.clicked_name,mouse_3.x,mouse_3.y,mouse_3.leftButton,mouse_3.midButton,mouse_3.rightButton,catchresponse,catchnumber,response_time_catch,Catch,mouse_11.x,mouse_11.y,mouse_11.leftButton,mouse_11.midButton,mouse_11.rightButton,trials_2.thisRepN,trials_2.thisTrialN,trials_2.thisN,trials_2.thisIndex,trials_2.ran,Colourpair,Temporder,mouse_3.clicked_name,mouse_11.clicked_name,trials_3.thisRepN,trials_3.thisTrialN,trials_3.thisN,trials_3.thisIndex,trials_3.ran,key_resp_instr_Ishi.keys,key_resp_instr_Ishi.rt,Ishi_trial_keyresp.keys,Ishi_trial_keyresp.rt,Ishi_textbox.text,Ishi_loop.thisRepN,Ishi_loop.thisTrialN,Ishi_loop.thisN,Ishi_loop.thisIndex,Ishi_loop.ran,imageaddress,textbox.text,mouse_4.x,mouse_4.y,mouse_4.leftButton,mouse_4.midButton,mouse_4.rightButton,mouse_4.clicked_name,textbox_2.text,mouse_8.x,mouse_8.y,mouse_8.leftButton,mouse_8.midButton,mouse_8.rightButton,mouse_8.clicked_name,textbox_3.text,mouse_9.x,mouse_9.y,mouse_9.leftButton,mouse_9.midButton,mouse_9.rightButton,mouse_9.clicked_name,textbox_4.text,mouse_12.x,mouse_12.y,mouse_12.leftButton,mouse_12.midButton,mouse_12.rightButton,mouse_12.clicked_name,textbox_5.text,mouse_13.x,mouse_13.y,mouse_13.leftButton,mouse_13.midButton,mouse_13.rightButton,mouse_13.clicked_name,textbox_6.text,mouse_14.x,mouse_14.y,mouse_14.leftButton,mouse_14.midButton,mouse_14.rightButton,mouse_14.clicked_name,textbox_7.text,mouse_15.x,mouse_15.y,mouse_15.leftButton,mouse_15.midButton,mouse_15.rightButton,mouse_15.clicked_name
0,0,0,4,1,,60708e12f67240319e438e04,62bbf9f1e61a9153e4d8e9be,2022-06-29_09h06.57.174,Colour_Asymmetry_Pilot,2022.1.3,Win32,60.06366749,62bbe60bf3d75ef465d3e404,,,,,,,,,,,,,,,,,,,,,,,,,,,,,,,,,,,,,,,,,,,,,,,,,,,,,,,,,,,,,,,,,,,,,,,,,,,,,,,,,,,,,,,,,,,,,,,,,,,,,,,,,,,,,,,,,,,,,,,,,,,,,,,,,,,,,,,,,,,,,,,,,,,,,,,,,,,,,,
0,1,1,22,1,,60708e12f67240319e438e04,62bbf9f1e61a9153e4d8e9be,2022-06-29_09h06.57.174,Colour_Asymmetry_Pilot,2022.1.3,Win32,60.06366749,62bbe60bf3d75ef465d3e404,,,,,,,,,,,,,,,,,,,,,,,,,,,,,,,,,,,,,,,,,,,,,,,,,,,,,,,,,,,,,,,,,,,,,,,,,,,,,,,,,,,,,,,,,,,,,,,,,,,,,,,,,,,,,,,,,,,,,,,,,,,,,,,,,,,,,,,,,,,,,,,,,,,,,,,,,,,,,,
0,2,2,2,1,,60708e12f67240319e438e04,62bbf9f1e61a9153e4d8e9be,2022-06-29_09h06.57.174,Colour_Asymmetry_Pilot,2022.1.3,Win32,60.06366749,62bbe60bf3d75ef465d3e404,,,,,,,,,,,,,,,,,,,,,,,,,,,,,,,,,,,,,,,,,,,,,,,,,,,,,,,,,,,,,,,,,,,,,,,,,,,,,,,,,,,,,,,,,,,,,,,,,,,,,,,,,,,,,,,,,,,,,,,,,,,,,,,,,,,,,,,,,,,,,,,,,,,,,,,,,,,,,,
0,3,3,90,1,,60708e12f67240319e438e04,62bbf9f1e61a9153e4d8e9be,2022-06-29_09h06.57.174,Colour_Asymmetry_Pilot,2022.1.3,Win32,60.06366749,62bbe60bf3d75ef465d3e404,,,,,,,,,,,,,,,,,,,,,,,,,,,,,,,,,,,,,,,,,,,,,,,,,,,,,,,,,,,,,,,,,,,,,,,,,,,,,,,,,,,,,,,,,,,,,,,,,,,,,,,,,,,,,,,,,,,,,,,,,,,,,,,,,,,,,,,,,,,,,,,,,,,,,,,,,,,,,,
0,4,4,88,1,,60708e12f67240319e438e04,62bbf9f1e61a9153e4d8e9be,2022-06-29_09h06.57.174,Colour_Asymmetry_Pilot,2022.1.3,Win32,60.06366749,62bbe60bf3d75ef465d3e404,,,,,,,,,,,,,,,,,,,,,,,,,,,,,,,,,,,,,,,,,,,,,,,,,,,,,,,,,,,,,,,,,,,,,,,,,,,,,,,,,,,,,,,,,,,,,,,,,,,,,,,,,,,,,,,,,,,,,,,,,,,,,,,,,,,,,,,,,,,,,,,,,,,,,,,,,,,,,,
0,5,5,45,1,,60708e12f67240319e438e04,62bbf9f1e61a9153e4d8e9be,2022-06-29_09h06.57.174,Colour_Asymmetry_Pilot,2022.1.3,Win32,60.06366749,62bbe60bf3d75ef465d3e404,,,,,,,,,,,,,,,,,,,,,,,,,,,,,,,,,,,,,,,,,,,,,,,,,,,,,,,,,,,,,,,,,,,,,,,,,,,,,,,,,,,,,,,,,,,,,,,,,,,,,,,,,,,,,,,,,,,,,,,,,,,,,,,,,,,,,,,,,,,,,,,,,,,,,,,,,,,,,,
0,6,6,65,1,,60708e12f67240319e438e04,62bbf9f1e61a9153e4d8e9be,2022-06-29_09h06.57.174,Colour_Asymmetry_Pilot,2022.1.3,Win32,60.06366749,62bbe60bf3d75ef465d3e404,,,,,,,,,,,,,,,,,,,,,,,,,,,,,,,,,,,,,,,,,,,,,,,,,,,,,,,,,,,,,,,,,,,,,,,,,,,,,,,,,,,,,,,,,,,,,,,,,,,,,,,,,,,,,,,,,,,,,,,,,,,,,,,,,,,,,,,,,,,,,,,,,,,,,,,,,,,,,,
0,7,7,12,1,,60708e12f67240319e438e04,62bbf9f1e61a9153e4d8e9be,2022-06-29_09h06.57.174,Colour_Asymmetry_Pilot,2022.1.3,Win32,60.06366749,62bbe60bf3d75ef465d3e404,,,,,,,,,,,,,,,,,,,,,,,,,,,,,,,,,,,,,,,,,,,,,,,,,,,,,,,,,,,,,,,,,,,,,,,,,,,,,,,,,,,,,,,,,,,,,,,,,,,,,,,,,,,,,,,,,,,,,,,,,,,,,,,,,,,,,,,,,,,,,,,,,,,,,,,,,,,,,,
0,8,8,46,1,,60708e12f67240319e438e04,62bbf9f1e61a9153e4d8e9be,2022-06-29_09h06.57.174,Colour_Asymmetry_Pilot,2022.1.3,Win32,60.06366749,62bbe60bf3d75ef465d3e404,,,,,,,,,,,,,,,,,,,,,,,,,,,,,,,,,,,,,,,,,,,,,,,,,,,,,,,,,,,,,,,,,,,,,,,,,,,,,,,,,,,,,,,,,,,,,,,,,,,,,,,,,,,,,,,,,,,,,,,,,,,,,,,,,,,,,,,,,,,,,,,,,,,,,,,,,,,,,,
0,9,9,91,1,,60708e12f67240319e438e04,62bbf9f1e61a9153e4d8e9be,2022-06-29_09h06.57.174,Colour_Asymmetry_Pilot,2022.1.3,Win32,60.06366749,62bbe60bf3d75ef465d3e404,,,,,,,,,,,,,,,,,,,,,,,,,,,,,,,,,,,,,,,,,,,,,,,,,,,,,,,,,,,,,,,,,,,,,,,,,,,,,,,,,,,,,,,,,,,,,,,,,,,,,,,,,,,,,,,,,,,,,,,,,,,,,,,,,,,,,,,,,,,,,,,,,,,,,,,,,,,,,,
0,10,10,66,1,,60708e12f67240319e438e04,62bbf9f1e61a9153e4d8e9be,2022-06-29_09h06.57.174,Colour_Asymmetry_Pilot,2022.1.3,Win32,60.06366749,62bbe60bf3d75ef465d3e404,,,,,,,,,,,,,,,,,,,,,,,,,,,,,,,,,,,,,,,,,,,,,,,,,,,,,,,,,,,,,,,,,,,,,,,,,,,,,,,,,,,,,,,,,,,,,,,,,,,,,,,,,,,,,,,,,,,,,,,,,,,,,,,,,,,,,,,,,,,,,,,,,,,,,,,,,,,,,,
0,11,11,8,1,,60708e12f67240319e438e04,62bbf9f1e61a9153e4d8e9be,2022-06-29_09h06.57.174,Colour_Asymmetry_Pilot,2022.1.3,Win32,60.06366749,62bbe60bf3d75ef465d3e404,,,,,,,,,,,,,,,,,,,,,,,,,,,,,,,,,,,,,,,,,,,,,,,,,,,,,,,,,,,,,,,,,,,,,,,,,,,,,,,,,,,,,,,,,,,,,,,,,,,,,,,,,,,,,,,,,,,,,,,,,,,,,,,,,,,,,,,,,,,,,,,,,,,,,,,,,,,,,,
0,12,12,36,1,,60708e12f67240319e438e04,62bbf9f1e61a9153e4d8e9be,2022-06-29_09h06.57.174,Colour_Asymmetry_Pilot,2022.1.3,Win32,60.06366749,62bbe60bf3d75ef465d3e404,,,,,,,,,,,,,,,,,,,,,,,,,,,,,,,,,,,,,,,,,,,,,,,,,,,,,,,,,,,,,,,,,,,,,,,,,,,,,,,,,,,,,,,,,,,,,,,,,,,,,,,,,,,,,,,,,,,,,,,,,,,,,,,,,,,,,,,,,,,,,,,,,,,,,,,,,,,,,,
0,13,13,51,1,,60708e12f67240319e438e04,62bbf9f1e61a9153e4d8e9be,2022-06-29_09h06.57.174,Colour_Asymmetry_Pilot,2022.1.3,Win32,60.06366749,62bbe60bf3d75ef465d3e404,,,,,,,,,,,,,,,,,,,,,,,,,,,,,,,,,,,,,,,,,,,,,,,,,,,,,,,,,,,,,,,,,,,,,,,,,,,,,,,,,,,,,,,,,,,,,,,,,,,,,,,,,,,,,,,,,,,,,,,,,,,,,,,,,,,,,,,,,,,,,,,,,,,,,,,,,,,,,,
0,14,14,82,1,,60708e12f67240319e438e04,62bbf9f1e61a9153e4d8e9be,2022-06-29_09h06.57.174,Colour_Asymmetry_Pilot,2022.1.3,Win32,60.06366749,62bbe60bf3d75ef465d3e404,,,,,,,,,,,,,,,,,,,,,,,,,,,,,,,,,,,,,,,,,,,,,,,,,,,,,,,,,,,,,,,,,,,,,,,,,,,,,,,,,,,,,,,,,,,,,,,,,,,,,,,,,,,,,,,,,,,,,,,,,,,,,,,,,,,,,,,,,,,,,,,,,,,,,,,,,,,,,,
0,15,15,23,1,,60708e12f67240319e438e04,62bbf9f1e61a9153e4d8e9be,2022-06-29_09h06.57.174,Colour_Asymmetry_Pilot,2022.1.3,Win32,60.06366749,62bbe60bf3d75ef465d3e404,,,,,,,,,,,,,,,,,,,,,,,,,,,,,,,,,,,,,,,,,,,,,,,,,,,,,,,,,,,,,,,,,,,,,,,,,,,,,,,,,,,,,,,,,,,,,,,,,,,,,,,,,,,,,,,,,,,,,,,,,,,,,,,,,,,,,,,,,,,,,,,,,,,,,,,,,,,,,,
0,16,16,67,1,,60708e12f67240319e438e04,62bbf9f1e61a9153e4d8e9be,2022-06-29_09h06.57.174,Colour_Asymmetry_Pilot,2022.1.3,Win32,60.06366749,62bbe60bf3d75ef465d3e404,,,,,,,,,,,,,,,,,,,,,,,,,,,,,,,,,,,,,,,,,,,,,,,,,,,,,,,,,,,,,,,,,,,,,,,,,,,,,,,,,,,,,,,,,,,,,,,,,,,,,,,,,,,,,,,,,,,,,,,,,,,,,,,,,,,,,,,,,,,,,,,,,,,,,,,,,,,,,,
0,17,17,19,1,,60708e12f67240319e438e04,62bbf9f1e61a9153e4d8e9be,2022-06-29_09h06.57.174,Colour_Asymmetry_Pilot,2022.1.3,Win32,60.06366749,62bbe60bf3d75ef465d3e404,,,,,,,,,,,,,,,,,,,,,,,,,,,,,,,,,,,,,,,,,,,,,,,,,,,,,,,,,,,,,,,,,,,,,,,,,,,,,,,,,,,,,,,,,,,,,,,,,,,,,,,,,,,,,,,,,,,,,,,,,,,,,,,,,,,,,,,,,,,,,,,,,,,,,,,,,,,,,,
0,18,18,56,1,,60708e12f67240319e438e04,62bbf9f1e61a9153e4d8e9be,2022-06-29_09h06.57.174,Colour_Asymmetry_Pilot,2022.1.3,Win32,60.06366749,62bbe60bf3d75ef465d3e404,,,,,,,,,,,,,,,,,,,,,,,,,,,,,,,,,,,,,,,,,,,,,,,,,,,,,,,,,,,,,,,,,,,,,,,,,,,,,,,,,,,,,,,,,,,,,,,,,,,,,,,,,,,,,,,,,,,,,,,,,,,,,,,,,,,,,,,,,,,,,,,,,,,,,,,,,,,,,,
0,19,19,87,1,,60708e12f67240319e438e04,62bbf9f1e61a9153e4d8e9be,2022-06-29_09h06.57.174,Colour_Asymmetry_Pilot,2022.1.3,Win32,60.06366749,62bbe60bf3d75ef465d3e404,,,,,,,,,,,,,,,,,,,,,,,,,,,,,,,,,,,,,,,,,,,,,,,,,,,,,,,,,,,,,,,,,,,,,,,,,,,,,,,,,,,,,,,,,,,,,,,,,,,,,,,,,,,,,,,,,,,,,,,,,,,,,,,,,,,,,,,,,,,,,,,,,,,,,,,,,,,,,,
0,20,20,25,1,,60708e12f67240319e438e04,62bbf9f1e61a9153e4d8e9be,2022-06-29_09h06.57.174,Colour_Asymmetry_Pilot,2022.1.3,Win32,60.06366749,62bbe60bf3d75ef465d3e404,,,,,,,,,,,,,,,,,,,,,,,,,,,,,,,,,,,,,,,,,,,,,,,,,,,,,,,,,,,,,,,,,,,,,,,,,,,,,,,,,,,,,,,,,,,,,,,,,,,,,,,,,,,,,,,,,,,,,,,,,,,,,,,,,,,,,,,,,,,,,,,,,,,,,,,,,,,,,,
0,21,21,10,1,,60708e12f67240319e438e04,62bbf9f1e61a9153e4d8e9be,2022-06-29_09h06.57.174,Colour_Asymmetry_Pilot,2022.1.3,Win32,60.06366749,62bbe60bf3d75ef465d3e404,,,,,,,,,,,,,,,,,,,,,,,,,,,,,,,,,,,,,,,,,,,,,,,,,,,,,,,,,,,,,,,,,,,,,,,,,,,,,,,,,,,,,,,,,,,,,,,,,,,,,,,,,,,,,,,,,,,,,,,,,,,,,,,,,,,,,,,,,,,,,,,,,,,,,,,,,,,,,,
0,22,22,62,1,,60708e12f67240319e438e04,62bbf9f1e61a9153e4d8e9be,2022-06-29_09h06.57.174,Colour_Asymmetry_Pilot,2022.1.3,Win32,60.06366749,62bbe60bf3d75ef465d3e404,,,,,,,,,,,,,,,,,,,,,,,,,,,,,,,,,,,,,,,,,,,,,,,,,,,,,,,,,,,,,,,,,,,,,,,,,,,,,,,,,,,,,,,,,,,,,,,,,,,,,,,,,,,,,,,,,,,,,,,,,,,,,,,,,,,,,,,,,,,,,,,,,,,,,,,,,,,,,,
0,23,23,43,1,,60708e12f67240319e438e04,62bbf9f1e61a9153e4d8e9be,2022-06-29_09h06.57.174,Colour_Asymmetry_Pilot,2022.1.3,Win32,60.06366749,62bbe60bf3d75ef465d3e404,,,,,,,,,,,,,,,,,,,,,,,,,,,,,,,,,,,,,,,,,,,,,,,,,,,,,,,,,,,,,,,,,,,,,,,,,,,,,,,,,,,,,,,,,,,,,,,,,,,,,,,,,,,,,,,,,,,,,,,,,,,,,,,,,,,,,,,,,,,,,,,,,,,,,,,,,,,,,,
0,24,24,50,1,,60708e12f67240319e438e04,62bbf9f1e61a9153e4d8e9be,2022-06-29_09h06.57.174,Colour_Asymmetry_Pilot,2022.1.3,Win32,60.06366749,62bbe60bf3d75ef465d3e404,,,,,,,,,,,,,,,,,,,,,,,,,,,,,,,,,,,,,,,,,,,,,,,,,,,,,,,,,,,,,,,,,,,,,,,,,,,,,,,,,,,,,,,,,,,,,,,,,,,,,,,,,,,,,,,,,,,,,,,,,,,,,,,,,,,,,,,,,,,,,,,,,,,,,,,,,,,,,,
0,25,25,5,1,,60708e12f67240319e438e04,62bbf9f1e61a9153e4d8e9be,2022-06-29_09h06.57.174,Colour_Asymmetry_Pilot,2022.1.3,Win32,60.06366749,62bbe60bf3d75ef465d3e404,,,,,,,,,,,,,,,,,,,,,,,,,,,,,,,,,,,,,,,,,,,,,,,,,,,,,,,,,,,,,,,,,,,,,,,,,,,,,,,,,,,,,,,,,,,,,,,,,,,,,,,,,,,,,,,,,,,,,,,,,,,,,,,,,,,,,,,,,,,,,,,,,,,,,,,,,,,,,,
0,26,26,34,1,,60708e12f67240319e438e04,62bbf9f1e61a9153e4d8e9be,2022-06-29_09h06.57.174,Colour_Asymmetry_Pilot,2022.1.3,Win32,60.06366749,62bbe60bf3d75ef465d3e404,,,,,,,,,,,,,,,,,,,,,,,,,,,,,,,,,,,,,,,,,,,,,,,,,,,,,,,,,,,,,,,,,,,,,,,,,,,,,,,,,,,,,,,,,,,,,,,,,,,,,,,,,,,,,,,,,,,,,,,,,,,,,,,,,,,,,,,,,,,,,,,,,,,,,,,,,,,,,,
0,27,27,41,1,,60708e12f67240319e438e04,62bbf9f1e61a9153e4d8e9be,2022-06-29_09h06.57.174,Colour_Asymmetry_Pilot,2022.1.3,Win32,60.06366749,62bbe60bf3d75ef465d3e404,,,,,,,,,,,,,,,,,,,,,,,,,,,,,,,,,,,,,,,,,,,,,,,,,,,,,,,,,,,,,,,,,,,,,,,,,,,,,,,,,,,,,,,,,,,,,,,,,,,,,,,,,,,,,,,,,,,,,,,,,,,,,,,,,,,,,,,,,,,,,,,,,,,,,,,,,,,,,,
0,28,28,72,1,,60708e12f67240319e438e04,62bbf9f1e61a9153e4d8e9be,2022-06-29_09h06.57.174,Colour_Asymmetry_Pilot,2022.1.3,Win32,60.06366749,62bbe60bf3d75ef465d3e404,,,,,,,,,,,,,,,,,,,,,,,,,,,,,,,,,,,,,,,,,,,,,,,,,,,,,,,,,,,,,,,,,,,,,,,,,,,,,,,,,,,,,,,,,,,,,,,,,,,,,,,,,,,,,,,,,,,,,,,,,,,,,,,,,,,,,,,,,,,,,,,,,,,,,,,,,,,,,,
0,29,29,92,1,,60708e12f67240319e438e04,62bbf9f1e61a9153e4d8e9be,2022-06-29_09h06.57.174,Colour_Asymmetry_Pilot,2022.1.3,Win32,60.06366749,62bbe60bf3d75ef465d3e404,,,,,,,,,,,,,,,,,,,,,,,,,,,,,,,,,,,,,,,,,,,,,,,,,,,,,,,,,,,,,,,,,,,,,,,,,,,,,,,,,,,,,,,,,,,,,,,,,,,,,,,,,,,,,,,,,,,,,,,,,,,,,,,,,,,,,,,,,,,,,,,,,,,,,,,,,,,,,,
0,30,30,89,1,,60708e12f67240319e438e04,62bbf9f1e61a9153e4d8e9be,2022-06-29_09h06.57.174,Colour_Asymmetry_Pilot,2022.1.3,Win32,60.06366749,62bbe60bf3d75ef465d3e404,,,,,,,,,,,,,,,,,,,,,,,,,,,,,,,,,,,,,,,,,,,,,,,,,,,,,,,,,,,,,,,,,,,,,,,,,,,,,,,,,,,,,,,,,,,,,,,,,,,,,,,,,,,,,,,,,,,,,,,,,,,,,,,,,,,,,,,,,,,,,,,,,,,,,,,,,,,,,,
0,31,31,44,1,,60708e12f67240319e438e04,62bbf9f1e61a9153e4d8e9be,2022-06-29_09h06.57.174,Colour_Asymmetry_Pilot,2022.1.3,Win32,60.06366749,62bbe60bf3d75ef465d3e404,,,,,,,,,,,,,,,,,,,,,,,,,,,,,,,,,,,,,,,,,,,,,,,,,,,,,,,,,,,,,,,,,,,,,,,,,,,,,,,,,,,,,,,,,,,,,,,,,,,,,,,,,,,,,,,,,,,,,,,,,,,,,,,,,,,,,,,,,,,,,,,,,,,,,,,,,,,,,,
0,32,32,81,1,,60708e12f67240319e438e04,62bbf9f1e61a9153e4d8e9be,2022-06-29_09h06.57.174,Colour_Asymmetry_Pilot,2022.1.3,Win32,60.06366749,62bbe60bf3d75ef465d3e404,,,,,,,,,,,,,,,,,,,,,,,,,,,,,,,,,,,,,,,,,,,,,,,,,,,,,,,,,,,,,,,,,,,,,,,,,,,,,,,,,,,,,,,,,,,,,,,,,,,,,,,,,,,,,,,,,,,,,,,,,,,,,,,,,,,,,,,,,,,,,,,,,,,,,,,,,,,,,,
0,33,33,0,1,,60708e12f67240319e438e04,62bbf9f1e61a9153e4d8e9be,2022-06-29_09h06.57.174,Colour_Asymmetry_Pilot,2022.1.3,Win32,60.06366749,62bbe60bf3d75ef465d3e404,,,,,,,,,,,,,,,,,,,,,,,,,,,,,,,,,,,,,,,,,,,,,,,,,,,,,,,,,,,,,,,,,,,,,,,,,,,,,,,,,,,,,,,,,,,,,,,,,,,,,,,,,,,,,,,,,,,,,,,,,,,,,,,,,,,,,,,,,,,,,,,,,,,,,,,,,,,,,,
0,34,34,70,1,,60708e12f67240319e438e04,62bbf9f1e61a9153e4d8e9be,2022-06-29_09h06.57.174,Colour_Asymmetry_Pilot,2022.1.3,Win32,60.06366749,62bbe60bf3d75ef465d3e404,,,,,,,,,,,,,,,,,,,,,,,,,,,,,,,,,,,,,,,,,,,,,,,,,,,,,,,,,,,,,,,,,,,,,,,,,,,,,,,,,,,,,,,,,,,,,,,,,,,,,,,,,,,,,,,,,,,,,,,,,,,,,,,,,,,,,,,,,,,,,,,,,,,,,,,,,,,,,,
0,35,35,35,1,,60708e12f67240319e438e04,62bbf9f1e61a9153e4d8e9be,2022-06-29_09h06.57.174,Colour_Asymmetry_Pilot,2022.1.3,Win32,60.06366749,62bbe60bf3d75ef465d3e404,,,,,,,,,,,,,,,,,,,,,,,,,,,,,,,,,,,,,,,,,,,,,,,,,,,,,,,,,,,,,,,,,,,,,,,,,,,,,,,,,,,,,,,,,,,,,,,,,,,,,,,,,,,,,,,,,,,,,,,,,,,,,,,,,,,,,,,,,,,,,,,,,,,,,,,,,,,,,,
0,36,36,69,1,,60708e12f67240319e438e04,62bbf9f1e61a9153e4d8e9be,2022-06-29_09h06.57.174,Colour_Asymmetry_Pilot,2022.1.3,Win32,60.06366749,62bbe60bf3d75ef465d3e404,,,,,,,,,,,,,,,,,,,,,,,,,,,,,,,,,,,,,,,,,,,,,,,,,,,,,,,,,,,,,,,,,,,,,,,,,,,,,,,,,,,,,,,,,,,,,,,,,,,,,,,,,,,,,,,,,,,,,,,,,,,,,,,,,,,,,,,,,,,,,,,,,,,,,,,,,,,,,,
0,37,37,3,1,,60708e12f67240319e438e04,62bbf9f1e61a9153e4d8e9be,2022-06-29_09h06.57.174,Colour_Asymmetry_Pilot,2022.1.3,Win32,60.06366749,62bbe60bf3d75ef465d3e404,,,,,,,,,,,,,,,,,,,,,,,,,,,,,,,,,,,,,,,,,,,,,,,,,,,,,,,,,,,,,,,,,,,,,,,,,,,,,,,,,,,,,,,,,,,,,,,,,,,,,,,,,,,,,,,,,,,,,,,,,,,,,,,,,,,,,,,,,,,,,,,,,,,,,,,,,,,,,,
0,38,38,76,1,,60708e12f67240319e438e04,62bbf9f1e61a9153e4d8e9be,2022-06-29_09h06.57.174,Colour_Asymmetry_Pilot,2022.1.3,Win32,60.06366749,62bbe60bf3d75ef465d3e404,,,,,,,,,,,,,,,,,,,,,,,,,,,,,,,,,,,,,,,,,,,,,,,,,,,,,,,,,,,,,,,,,,,,,,,,,,,,,,,,,,,,,,,,,,,,,,,,,,,,,,,,,,,,,,,,,,,,,,,,,,,,,,,,,,,,,,,,,,,,,,,,,,,,,,,,,,,,,,
0,39,39,33,1,,60708e12f67240319e438e04,62bbf9f1e61a9153e4d8e9be,2022-06-29_09h06.57.174,Colour_Asymmetry_Pilot,2022.1.3,Win32,60.06366749,62bbe60bf3d75ef465d3e404,,,,,,,,,,,,,,,,,,,,,,,,,,,,,,,,,,,,,,,,,,,,,,,,,,,,,,,,,,,,,,,,,,,,,,,,,,,,,,,,,,,,,,,,,,,,,,,,,,,,,,,,,,,,,,,,,,,,,,,,,,,,,,,,,,,,,,,,,,,,,,,,,,,,,,,,,,,,,,
0,40,40,20,1,,60708e12f67240319e438e04,62bbf9f1e61a9153e4d8e9be,2022-06-29_09h06.57.174,Colour_Asymmetry_Pilot,2022.1.3,Win32,60.06366749,62bbe60bf3d75ef465d3e404,,,,,,,,,,,,,,,,,,,,,,,,,,,,,,,,,,,,,,,,,,,,,,,,,,,,,,,,,,,,,,,,,,,,,,,,,,,,,,,,,,,,,,,,,,,,,,,,,,,,,,,,,,,,,,,,,,,,,,,,,,,,,,,,,,,,,,,,,,,,,,,,,,,,,,,,,,,,,,
0,41,41,80,1,,60708e12f67240319e438e04,62bbf9f1e61a9153e4d8e9be,2022-06-29_09h06.57.174,Colour_Asymmetry_Pilot,2022.1.3,Win32,60.06366749,62bbe60bf3d75ef465d3e404,,,,,,,,,,,,,,,,,,,,,,,,,,,,,,,,,,,,,,,,,,,,,,,,,,,,,,,,,,,,,,,,,,,,,,,,,,,,,,,,,,,,,,,,,,,,,,,,,,,,,,,,,,,,,,,,,,,,,,,,,,,,,,,,,,,,,,,,,,,,,,,,,,,,,,,,,,,,,,
0,42,42,15,1,,60708e12f67240319e438e04,62bbf9f1e61a9153e4d8e9be,2022-06-29_09h06.57.174,Colour_Asymmetry_Pilot,2022.1.3,Win32,60.06366749,62bbe60bf3d75ef465d3e404,,,,,,,,,,,,,,,,,,,,,,,,,,,,,,,,,,,,,,,,,,,,,,,,,,,,,,,,,,,,,,,,,,,,,,,,,,,,,,,,,,,,,,,,,,,,,,,,,,,,,,,,,,,,,,,,,,,,,,,,,,,,,,,,,,,,,,,,,,,,,,,,,,,,,,,,,,,,,,
0,43,43,21,1,,60708e12f67240319e438e04,62bbf9f1e61a9153e4d8e9be,2022-06-29_09h06.57.174,Colour_Asymmetry_Pilot,2022.1.3,Win32,60.06366749,62bbe60bf3d75ef465d3e404,,,,,,,,,,,,,,,,,,,,,,,,,,,,,,,,,,,,,,,,,,,,,,,,,,,,,,,,,,,,,,,,,,,,,,,,,,,,,,,,,,,,,,,,,,,,,,,,,,,,,,,,,,,,,,,,,,,,,,,,,,,,,,,,,,,,,,,,,,,,,,,,,,,,,,,,,,,,,,
0,44,44,42,1,,60708e12f67240319e438e04,62bbf9f1e61a9153e4d8e9be,2022-06-29_09h06.57.174,Colour_Asymmetry_Pilot,2022.1.3,Win32,60.06366749,62bbe60bf3d75ef465d3e404,,,,,,,,,,,,,,,,,,,,,,,,,,,,,,,,,,,,,,,,,,,,,,,,,,,,,,,,,,,,,,,,,,,,,,,,,,,,,,,,,,,,,,,,,,,,,,,,,,,,,,,,,,,,,,,,,,,,,,,,,,,,,,,,,,,,,,,,,,,,,,,,,,,,,,,,,,,,,,
0,45,45,74,1,,60708e12f67240319e438e04,62bbf9f1e61a9153e4d8e9be,2022-06-29_09h06.57.174,Colour_Asymmetry_Pilot,2022.1.3,Win32,60.06366749,62bbe60bf3d75ef465d3e404,,,,,,,,,,,,,,,,,,,,,,,,,,,,,,,,,,,,,,,,,,,,,,,,,,,,,,,,,,,,,,,,,,,,,,,,,,,,,,,,,,,,,,,,,,,,,,,,,,,,,,,,,,,,,,,,,,,,,,,,,,,,,,,,,,,,,,,,,,,,,,,,,,,,,,,,,,,,,,
0,46,46,9,1,,60708e12f67240319e438e04,62bbf9f1e61a9153e4d8e9be,2022-06-29_09h06.57.174,Colour_Asymmetry_Pilot,2022.1.3,Win32,60.06366749,62bbe60bf3d75ef465d3e404,,,,,,,,,,,,,,,,,,,,,,,,,,,,,,,,,,,,,,,,,,,,,,,,,,,,,,,,,,,,,,,,,,,,,,,,,,,,,,,,,,,,,,,,,,,,,,,,,,,,,,,,,,,,,,,,,,,,,,,,,,,,,,,,,,,,,,,,,,,,,,,,,,,,,,,,,,,,,,
0,47,47,28,1,,60708e12f67240319e438e04,62bbf9f1e61a9153e4d8e9be,2022-06-29_09h06.57.174,Colour_Asymmetry_Pilot,2022.1.3,Win32,60.06366749,62bbe60bf3d75ef465d3e404,,,,,,,,,,,,,,,,,,,,,,,,,,,,,,,,,,,,,,,,,,,,,,,,,,,,,,,,,,,,,,,,,,,,,,,,,,,,,,,,,,,,,,,,,,,,,,,,,,,,,,,,,,,,,,,,,,,,,,,,,,,,,,,,,,,,,,,,,,,,,,,,,,,,,,,,,,,,,,
0,48,48,84,1,,60708e12f67240319e438e04,62bbf9f1e61a9153e4d8e9be,2022-06-29_09h06.57.174,Colour_Asymmetry_Pilot,2022.1.3,Win32,60.06366749,62bbe60bf3d75ef465d3e404,,,,,,,,,,,,,,,,,,,,,,,,,,,,,,,,,,,,,,,,,,,,,,,,,,,,,,,,,,,,,,,,,,,,,,,,,,,,,,,,,,,,,,,,,,,,,,,,,,,,,,,,,,,,,,,,,,,,,,,,,,,,,,,,,,,,,,,,,,,,,,,,,,,,,,,,,,,,,,
0,49,49,64,1,,60708e12f67240319e438e04,62bbf9f1e61a9153e4d8e9be,2022-06-29_09h06.57.174,Colour_Asymmetry_Pilot,2022.1.3,Win32,60.06366749,62bbe60bf3d75ef465d3e404,,,,,,,,,,,,,,,,,,,,,,,,,,,,,,,,,,,,,,,,,,,,,,,,,,,,,,,,,,,,,,,,,,,,,,,,,,,,,,,,,,,,,,,,,,,,,,,,,,,,,,,,,,,,,,,,,,,,,,,,,,,,,,,,,,,,,,,,,,,,,,,,,,,,,,,,,,,,,,
0,50,50,7,1,,60708e12f67240319e438e04,62bbf9f1e61a9153e4d8e9be,2022-06-29_09h06.57.174,Colour_Asymmetry_Pilot,2022.1.3,Win32,60.06366749,62bbe60bf3d75ef465d3e404,,,,,,,,,,,,,,,,,,,,,,,,,,,,,,,,,,,,,,,,,,,,,,,,,,,,,,,,,,,,,,,,,,,,,,,,,,,,,,,,,,,,,,,,,,,,,,,,,,,,,,,,,,,,,,,,,,,,,,,,,,,,,,,,,,,,,,,,,,,,,,,,,,,,,,,,,,,,,,
0,51,51,14,1,,60708e12f67240319e438e04,62bbf9f1e61a9153e4d8e9be,2022-06-29_09h06.57.174,Colour_Asymmetry_Pilot,2022.1.3,Win32,60.06366749,62bbe60bf3d75ef465d3e404,,,,,,,,,,,,,,,,,,,,,,,,,,,,,,,,,,,,,,,,,,,,,,,,,,,,,,,,,,,,,,,,,,,,,,,,,,,,,,,,,,,,,,,,,,,,,,,,,,,,,,,,,,,,,,,,,,,,,,,,,,,,,,,,,,,,,,,,,,,,,,,,,,,,,,,,,,,,,,
0,52,52,59,1,,60708e12f67240319e438e04,62bbf9f1e61a9153e4d8e9be,2022-06-29_09h06.57.174,Colour_Asymmetry_Pilot,2022.1.3,Win32,60.06366749,62bbe60bf3d75ef465d3e404,,,,,,,,,,,,,,,,,,,,,,,,,,,,,,,,,,,,,,,,,,,,,,,,,,,,,,,,,,,,,,,,,,,,,,,,,,,,,,,,,,,,,,,,,,,,,,,,,,,,,,,,,,,,,,,,,,,,,,,,,,,,,,,,,,,,,,,,,,,,,,,,,,,,,,,,,,,,,,
0,53,53,40,1,,60708e12f67240319e438e04,62bbf9f1e61a9153e4d8e9be,2022-06-29_09h06.57.174,Colour_Asymmetry_Pilot,2022.1.3,Win32,60.06366749,62bbe60bf3d75ef465d3e404,,,,,,,,,,,,,,,,,,,,,,,,,,,,,,,,,,,,,,,,,,,,,,,,,,,,,,,,,,,,,,,,,,,,,,,,,,,,,,,,,,,,,,,,,,,,,,,,,,,,,,,,,,,,,,,,,,,,,,,,,,,,,,,,,,,,,,,,,,,,,,,,,,,,,,,,,,,,,,
0,54,54,53,1,,60708e12f67240319e438e04,62bbf9f1e61a9153e4d8e9be,2022-06-29_09h06.57.174,Colour_Asymmetry_Pilot,2022.1.3,Win32,60.06366749,62bbe60bf3d75ef465d3e404,,,,,,,,,,,,,,,,,,,,,,,,,,,,,,,,,,,,,,,,,,,,,,,,,,,,,,,,,,,,,,,,,,,,,,,,,,,,,,,,,,,,,,,,,,,,,,,,,,,,,,,,,,,,,,,,,,,,,,,,,,,,,,,,,,,,,,,,,,,,,,,,,,,,,,,,,,,,,,
0,55,55,77,1,,60708e12f67240319e438e04,62bbf9f1e61a9153e4d8e9be,2022-06-29_09h06.57.174,Colour_Asymmetry_Pilot,2022.1.3,Win32,60.06366749,62bbe60bf3d75ef465d3e404,,,,,,,,,,,,,,,,,,,,,,,,,,,,,,,,,,,,,,,,,,,,,,,,,,,,,,,,,,,,,,,,,,,,,,,,,,,,,,,,,,,,,,,,,,,,,,,,,,,,,,,,,,,,,,,,,,,,,,,,,,,,,,,,,,,,,,,,,,,,,,,,,,,,,,,,,,,,,,
0,56,56,63,1,,60708e12f67240319e438e04,62bbf9f1e61a9153e4d8e9be,2022-06-29_09h06.57.174,Colour_Asymmetry_Pilot,2022.1.3,Win32,60.06366749,62bbe60bf3d75ef465d3e404,,,,,,,,,,,,,,,,,,,,,,,,,,,,,,,,,,,,,,,,,,,,,,,,,,,,,,,,,,,,,,,,,,,,,,,,,,,,,,,,,,,,,,,,,,,,,,,,,,,,,,,,,,,,,,,,,,,,,,,,,,,,,,,,,,,,,,,,,,,,,,,,,,,,,,,,,,,,,,
0,57,57,48,1,,60708e12f67240319e438e04,62bbf9f1e61a9153e4d8e9be,2022-06-29_09h06.57.174,Colour_Asymmetry_Pilot,2022.1.3,Win32,60.06366749,62bbe60bf3d75ef465d3e404,,,,,,,,,,,,,,,,,,,,,,,,,,,,,,,,,,,,,,,,,,,,,,,,,,,,,,,,,,,,,,,,,,,,,,,,,,,,,,,,,,,,,,,,,,,,,,,,,,,,,,,,,,,,,,,,,,,,,,,,,,,,,,,,,,,,,,,,,,,,,,,,,,,,,,,,,,,,,,
0,58,58,61,1,,60708e12f67240319e438e04,62bbf9f1e61a9153e4d8e9be,2022-06-29_09h06.57.174,Colour_Asymmetry_Pilot,2022.1.3,Win32,60.06366749,62bbe60bf3d75ef465d3e404,,,,,,,,,,,,,,,,,,,,,,,,,,,,,,,,,,,,,,,,,,,,,,,,,,,,,,,,,,,,,,,,,,,,,,,,,,,,,,,,,,,,,,,,,,,,,,,,,,,,,,,,,,,,,,,,,,,,,,,,,,,,,,,,,,,,,,,,,,,,,,,,,,,,,,,,,,,,,,
0,59,59,52,1,,60708e12f67240319e438e04,62bbf9f1e61a9153e4d8e9be,2022-06-29_09h06.57.174,Colour_Asymmetry_Pilot,2022.1.3,Win32,60.06366749,62bbe60bf3d75ef465d3e404,,,,,,,,,,,,,,,,,,,,,,,,,,,,,,,,,,,,,,,,,,,,,,,,,,,,,,,,,,,,,,,,,,,,,,,,,,,,,,,,,,,,,,,,,,,,,,,,,,,,,,,,,,,,,,,,,,,,,,,,,,,,,,,,,,,,,,,,,,,,,,,,,,,,,,,,,,,,,,
0,60,60,68,1,,60708e12f67240319e438e04,62bbf9f1e61a9153e4d8e9be,2022-06-29_09h06.57.174,Colour_Asymmetry_Pilot,2022.1.3,Win32,60.06366749,62bbe60bf3d75ef465d3e404,,,,,,,,,,,,,,,,,,,,,,,,,,,,,,,,,,,,,,,,,,,,,,,,,,,,,,,,,,,,,,,,,,,,,,,,,,,,,,,,,,,,,,,,,,,,,,,,,,,,,,,,,,,,,,,,,,,,,,,,,,,,,,,,,,,,,,,,,,,,,,,,,,,,,,,,,,,,,,
0,61,61,29,1,,60708e12f67240319e438e04,62bbf9f1e61a9153e4d8e9be,2022-06-29_09h06.57.174,Colour_Asymmetry_Pilot,2022.1.3,Win32,60.06366749,62bbe60bf3d75ef465d3e404,,,,,,,,,,,,,,,,,,,,,,,,,,,,,,,,,,,,,,,,,,,,,,,,,,,,,,,,,,,,,,,,,,,,,,,,,,,,,,,,,,,,,,,,,,,,,,,,,,,,,,,,,,,,,,,,,,,,,,,,,,,,,,,,,,,,,,,,,,,,,,,,,,,,,,,,,,,,,,
0,62,62,26,1,,60708e12f67240319e438e04,62bbf9f1e61a9153e4d8e9be,2022-06-29_09h06.57.174,Colour_Asymmetry_Pilot,2022.1.3,Win32,60.06366749,62bbe60bf3d75ef465d3e404,,,,,,,,,,,,,,,,,,,,,,,,,,,,,,,,,,,,,,,,,,,,,,,,,,,,,,,,,,,,,,,,,,,,,,,,,,,,,,,,,,,,,,,,,,,,,,,,,,,,,,,,,,,,,,,,,,,,,,,,,,,,,,,,,,,,,,,,,,,,,,,,,,,,,,,,,,,,,,
0,63,63,16,1,,60708e12f67240319e438e04,62bbf9f1e61a9153e4d8e9be,2022-06-29_09h06.57.174,Colour_Asymmetry_Pilot,2022.1.3,Win32,60.06366749,62bbe60bf3d75ef465d3e404,,,,,,,,,,,,,,,,,,,,,,,,,,,,,,,,,,,,,,,,,,,,,,,,,,,,,,,,,,,,,,,,,,,,,,,,,,,,,,,,,,,,,,,,,,,,,,,,,,,,,,,,,,,,,,,,,,,,,,,,,,,,,,,,,,,,,,,,,,,,,,,,,,,,,,,,,,,,,,
0,64,64,83,1,,60708e12f67240319e438e04,62bbf9f1e61a9153e4d8e9be,2022-06-29_09h06.57.174,Colour_Asymmetry_Pilot,2022.1.3,Win32,60.06366749,62bbe60bf3d75ef465d3e404,,,,,,,,,,,,,,,,,,,,,,,,,,,,,,,,,,,,,,,,,,,,,,,,,,,,,,,,,,,,,,,,,,,,,,,,,,,,,,,,,,,,,,,,,,,,,,,,,,,,,,,,,,,,,,,,,,,,,,,,,,,,,,,,,,,,,,,,,,,,,,,,,,,,,,,,,,,,,,
0,65,65,39,1,,60708e12f67240319e438e04,62bbf9f1e61a9153e4d8e9be,2022-06-29_09h06.57.174,Colour_Asymmetry_Pilot,2022.1.3,Win32,60.06366749,62bbe60bf3d75ef465d3e404,,,,,,,,,,,,,,,,,,,,,,,,,,,,,,,,,,,,,,,,,,,,,,,,,,,,,,,,,,,,,,,,,,,,,,,,,,,,,,,,,,,,,,,,,,,,,,,,,,,,,,,,,,,,,,,,,,,,,,,,,,,,,,,,,,,,,,,,,,,,,,,,,,,,,,,,,,,,,,
0,66,66,30,1,,60708e12f67240319e438e04,62bbf9f1e61a9153e4d8e9be,2022-06-29_09h06.57.174,Colour_Asymmetry_Pilot,2022.1.3,Win32,60.06366749,62bbe60bf3d75ef465d3e404,,,,,,,,,,,,,,,,,,,,,,,,,,,,,,,,,,,,,,,,,,,,,,,,,,,,,,,,,,,,,,,,,,,,,,,,,,,,,,,,,,,,,,,,,,,,,,,,,,,,,,,,,,,,,,,,,,,,,,,,,,,,,,,,,,,,,,,,,,,,,,,,,,,,,,,,,,,,,,
0,67,67,78,1,,60708e12f67240319e438e04,62bbf9f1e61a9153e4d8e9be,2022-06-29_09h06.57.174,Colour_Asymmetry_Pilot,2022.1.3,Win32,60.06366749,62bbe60bf3d75ef465d3e404,,,,,,,,,,,,,,,,,,,,,,,,,,,,,,,,,,,,,,,,,,,,,,,,,,,,,,,,,,,,,,,,,,,,,,,,,,,,,,,,,,,,,,,,,,,,,,,,,,,,,,,,,,,,,,,,,,,,,,,,,,,,,,,,,,,,,,,,,,,,,,,,,,,,,,,,,,,,,,
0,68,68,79,1,,60708e12f67240319e438e04,62bbf9f1e61a9153e4d8e9be,2022-06-29_09h06.57.174,Colour_Asymmetry_Pilot,2022.1.3,Win32,60.06366749,62bbe60bf3d75ef465d3e404,,,,,,,,,,,,,,,,,,,,,,,,,,,,,,,,,,,,,,,,,,,,,,,,,,,,,,,,,,,,,,,,,,,,,,,,,,,,,,,,,,,,,,,,,,,,,,,,,,,,,,,,,,,,,,,,,,,,,,,,,,,,,,,,,,,,,,,,,,,,,,,,,,,,,,,,,,,,,,
0,69,69,17,1,,60708e12f67240319e438e04,62bbf9f1e61a9153e4d8e9be,2022-06-29_09h06.57.174,Colour_Asymmetry_Pilot,2022.1.3,Win32,60.06366749,62bbe60bf3d75ef465d3e404,,,,,,,,,,,,,,,,,,,,,,,,,,,,,,,,,,,,,,,,,,,,,,,,,,,,,,,,,,,,,,,,,,,,,,,,,,,,,,,,,,,,,,,,,,,,,,,,,,,,,,,,,,,,,,,,,,,,,,,,,,,,,,,,,,,,,,,,,,,,,,,,,,,,,,,,,,,,,,
0,70,70,73,1,,60708e12f67240319e438e04,62bbf9f1e61a9153e4d8e9be,2022-06-29_09h06.57.174,Colour_Asymmetry_Pilot,2022.1.3,Win32,60.06366749,62bbe60bf3d75ef465d3e404,,,,,,,,,,,,,,,,,,,,,,,,,,,,,,,,,,,,,,,,,,,,,,,,,,,,,,,,,,,,,,,,,,,,,,,,,,,,,,,,,,,,,,,,,,,,,,,,,,,,,,,,,,,,,,,,,,,,,,,,,,,,,,,,,,,,,,,,,,,,,,,,,,,,,,,,,,,,,,
0,71,71,47,1,,60708e12f67240319e438e04,62bbf9f1e61a9153e4d8e9be,2022-06-29_09h06.57.174,Colour_Asymmetry_Pilot,2022.1.3,Win32,60.06366749,62bbe60bf3d75ef465d3e404,,,,,,,,,,,,,,,,,,,,,,,,,,,,,,,,,,,,,,,,,,,,,,,,,,,,,,,,,,,,,,,,,,,,,,,,,,,,,,,,,,,,,,,,,,,,,,,,,,,,,,,,,,,,,,,,,,,,,,,,,,,,,,,,,,,,,,,,,,,,,,,,,,,,,,,,,,,,,,
0,72,72,75,1,,60708e12f67240319e438e04,62bbf9f1e61a9153e4d8e9be,2022-06-29_09h06.57.174,Colour_Asymmetry_Pilot,2022.1.3,Win32,60.06366749,62bbe60bf3d75ef465d3e404,,,,,,,,,,,,,,,,,,,,,,,,,,,,,,,,,,,,,,,,,,,,,,,,,,,,,,,,,,,,,,,,,,,,,,,,,,,,,,,,,,,,,,,,,,,,,,,,,,,,,,,,,,,,,,,,,,,,,,,,,,,,,,,,,,,,,,,,,,,,,,,,,,,,,,,,,,,,,,
0,73,73,85,1,,60708e12f67240319e438e04,62bbf9f1e61a9153e4d8e9be,2022-06-29_09h06.57.174,Colour_Asymmetry_Pilot,2022.1.3,Win32,60.06366749,62bbe60bf3d75ef465d3e404,,,,,,,,,,,,,,,,,,,,,,,,,,,,,,,,,,,,,,,,,,,,,,,,,,,,,,,,,,,,,,,,,,,,,,,,,,,,,,,,,,,,,,,,,,,,,,,,,,,,,,,,,,,,,,,,,,,,,,,,,,,,,,,,,,,,,,,,,,,,,,,,,,,,,,,,,,,,,,
0,74,74,57,1,,60708e12f67240319e438e04,62bbf9f1e61a9153e4d8e9be,2022-06-29_09h06.57.174,Colour_Asymmetry_Pilot,2022.1.3,Win32,60.06366749,62bbe60bf3d75ef465d3e404,,,,,,,,,,,,,,,,,,,,,,,,,,,,,,,,,,,,,,,,,,,,,,,,,,,,,,,,,,,,,,,,,,,,,,,,,,,,,,,,,,,,,,,,,,,,,,,,,,,,,,,,,,,,,,,,,,,,,,,,,,,,,,,,,,,,,,,,,,,,,,,,,,,,,,,,,,,,,,
0,75,75,32,1,,60708e12f67240319e438e04,62bbf9f1e61a9153e4d8e9be,2022-06-29_09h06.57.174,Colour_Asymmetry_Pilot,2022.1.3,Win32,60.06366749,62bbe60bf3d75ef465d3e404,,,,,,,,,,,,,,,,,,,,,,,,,,,,,,,,,,,,,,,,,,,,,,,,,,,,,,,,,,,,,,,,,,,,,,,,,,,,,,,,,,,,,,,,,,,,,,,,,,,,,,,,,,,,,,,,,,,,,,,,,,,,,,,,,,,,,,,,,,,,,,,,,,,,,,,,,,,,,,
0,76,76,11,1,,60708e12f67240319e438e04,62bbf9f1e61a9153e4d8e9be,2022-06-29_09h06.57.174,Colour_Asymmetry_Pilot,2022.1.3,Win32,60.06366749,62bbe60bf3d75ef465d3e404,,,,,,,,,,,,,,,,,,,,,,,,,,,,,,,,,,,,,,,,,,,,,,,,,,,,,,,,,,,,,,,,,,,,,,,,,,,,,,,,,,,,,,,,,,,,,,,,,,,,,,,,,,,,,,,,,,,,,,,,,,,,,,,,,,,,,,,,,,,,,,,,,,,,,,,,,,,,,,
0,77,77,13,1,,60708e12f67240319e438e04,62bbf9f1e61a9153e4d8e9be,2022-06-29_09h06.57.174,Colour_Asymmetry_Pilot,2022.1.3,Win32,60.06366749,62bbe60bf3d75ef465d3e404,,,,,,,,,,,,,,,,,,,,,,,,,,,,,,,,,,,,,,,,,,,,,,,,,,,,,,,,,,,,,,,,,,,,,,,,,,,,,,,,,,,,,,,,,,,,,,,,,,,,,,,,,,,,,,,,,,,,,,,,,,,,,,,,,,,,,,,,,,,,,,,,,,,,,,,,,,,,,,
0,78,78,55,1,,60708e12f67240319e438e04,62bbf9f1e61a9153e4d8e9be,2022-06-29_09h06.57.174,Colour_Asymmetry_Pilot,2022.1.3,Win32,60.06366749,62bbe60bf3d75ef465d3e404,,,,,,,,,,,,,,,,,,,,,,,,,,,,,,,,,,,,,,,,,,,,,,,,,,,,,,,,,,,,,,,,,,,,,,,,,,,,,,,,,,,,,,,,,,,,,,,,,,,,,,,,,,,,,,,,,,,,,,,,,,,,,,,,,,,,,,,,,,,,,,,,,,,,,,,,,,,,,,
0,79,79,27,1,,60708e12f67240319e438e04,62bbf9f1e61a9153e4d8e9be,2022-06-29_09h06.57.174,Colour_Asymmetry_Pilot,2022.1.3,Win32,60.06366749,62bbe60bf3d75ef465d3e404,,,,,,,,,,,,,,,,,,,,,,,,,,,,,,,,,,,,,,,,,,,,,,,,,,,,,,,,,,,,,,,,,,,,,,,,,,,,,,,,,,,,,,,,,,,,,,,,,,,,,,,,,,,,,,,,,,,,,,,,,,,,,,,,,,,,,,,,,,,,,,,,,,,,,,,,,,,,,,
0,80,80,38,1,,60708e12f67240319e438e04,62bbf9f1e61a9153e4d8e9be,2022-06-29_09h06.57.174,Colour_Asymmetry_Pilot,2022.1.3,Win32,60.06366749,62bbe60bf3d75ef465d3e404,,,,,,,,,,,,,,,,,,,,,,,,,,,,,,,,,,,,,,,,,,,,,,,,,,,,,,,,,,,,,,,,,,,,,,,,,,,,,,,,,,,,,,,,,,,,,,,,,,,,,,,,,,,,,,,,,,,,,,,,,,,,,,,,,,,,,,,,,,,,,,,,,,,,,,,,,,,,,,
0,81,81,60,1,,60708e12f67240319e438e04,62bbf9f1e61a9153e4d8e9be,2022-06-29_09h06.57.174,Colour_Asymmetry_Pilot,2022.1.3,Win32,60.06366749,62bbe60bf3d75ef465d3e404,,,,,,,,,,,,,,,,,,,,,,,,,,,,,,,,,,,,,,,,,,,,,,,,,,,,,,,,,,,,,,,,,,,,,,,,,,,,,,,,,,,,,,,,,,,,,,,,,,,,,,,,,,,,,,,,,,,,,,,,,,,,,,,,,,,,,,,,,,,,,,,,,,,,,,,,,,,,,,
0,82,82,31,1,,60708e12f67240319e438e04,62bbf9f1e61a9153e4d8e9be,2022-06-29_09h06.57.174,Colour_Asymmetry_Pilot,2022.1.3,Win32,60.06366749,62bbe60bf3d75ef465d3e404,,,,,,,,,,,,,,,,,,,,,,,,,,,,,,,,,,,,,,,,,,,,,,,,,,,,,,,,,,,,,,,,,,,,,,,,,,,,,,,,,,,,,,,,,,,,,,,,,,,,,,,,,,,,,,,,,,,,,,,,,,,,,,,,,,,,,,,,,,,,,,,,,,,,,,,,,,,,,,
0,83,83,1,1,,60708e12f67240319e438e04,62bbf9f1e61a9153e4d8e9be,2022-06-29_09h06.57.174,Colour_Asymmetry_Pilot,2022.1.3,Win32,60.06366749,62bbe60bf3d75ef465d3e404,,,,,,,,,,,,,,,,,,,,,,,,,,,,,,,,,,,,,,,,,,,,,,,,,,,,,,,,,,,,,,,,,,,,,,,,,,,,,,,,,,,,,,,,,,,,,,,,,,,,,,,,,,,,,,,,,,,,,,,,,,,,,,,,,,,,,,,,,,,,,,,,,,,,,,,,,,,,,,
0,84,84,86,1,,60708e12f67240319e438e04,62bbf9f1e61a9153e4d8e9be,2022-06-29_09h06.57.174,Colour_Asymmetry_Pilot,2022.1.3,Win32,60.06366749,62bbe60bf3d75ef465d3e404,,,,,,,,,,,,,,,,,,,,,,,,,,,,,,,,,,,,,,,,,,,,,,,,,,,,,,,,,,,,,,,,,,,,,,,,,,,,,,,,,,,,,,,,,,,,,,,,,,,,,,,,,,,,,,,,,,,,,,,,,,,,,,,,,,,,,,,,,,,,,,,,,,,,,,,,,,,,,,
0,85,85,58,1,,60708e12f67240319e438e04,62bbf9f1e61a9153e4d8e9be,2022-06-29_09h06.57.174,Colour_Asymmetry_Pilot,2022.1.3,Win32,60.06366749,62bbe60bf3d75ef465d3e404,,,,,,,,,,,,,,,,,,,,,,,,,,,,,,,,,,,,,,,,,,,,,,,,,,,,,,,,,,,,,,,,,,,,,,,,,,,,,,,,,,,,,,,,,,,,,,,,,,,,,,,,,,,,,,,,,,,,,,,,,,,,,,,,,,,,,,,,,,,,,,,,,,,,,,,,,,,,,,
0,86,86,54,1,,60708e12f67240319e438e04,62bbf9f1e61a9153e4d8e9be,2022-06-29_09h06.57.174,Colour_Asymmetry_Pilot,2022.1.3,Win32,60.06366749,62bbe60bf3d75ef465d3e404,,,,,,,,,,,,,,,,,,,,,,,,,,,,,,,,,,,,,,,,,,,,,,,,,,,,,,,,,,,,,,,,,,,,,,,,,,,,,,,,,,,,,,,,,,,,,,,,,,,,,,,,,,,,,,,,,,,,,,,,,,,,,,,,,,,,,,,,,,,,,,,,,,,,,,,,,,,,,,
0,87,87,37,1,,60708e12f67240319e438e04,62bbf9f1e61a9153e4d8e9be,2022-06-29_09h06.57.174,Colour_Asymmetry_Pilot,2022.1.3,Win32,60.06366749,62bbe60bf3d75ef465d3e404,,,,,,,,,,,,,,,,,,,,,,,,,,,,,,,,,,,,,,,,,,,,,,,,,,,,,,,,,,,,,,,,,,,,,,,,,,,,,,,,,,,,,,,,,,,,,,,,,,,,,,,,,,,,,,,,,,,,,,,,,,,,,,,,,,,,,,,,,,,,,,,,,,,,,,,,,,,,,,
0,88,88,49,1,,60708e12f67240319e438e04,62bbf9f1e61a9153e4d8e9be,2022-06-29_09h06.57.174,Colour_Asymmetry_Pilot,2022.1.3,Win32,60.06366749,62bbe60bf3d75ef465d3e404,,,,,,,,,,,,,,,,,,,,,,,,,,,,,,,,,,,,,,,,,,,,,,,,,,,,,,,,,,,,,,,,,,,,,,,,,,,,,,,,,,,,,,,,,,,,,,,,,,,,,,,,,,,,,,,,,,,,,,,,,,,,,,,,,,,,,,,,,,,,,,,,,,,,,,,,,,,,,,
0,89,89,24,1,,60708e12f67240319e438e04,62bbf9f1e61a9153e4d8e9be,2022-06-29_09h06.57.174,Colour_Asymmetry_Pilot,2022.1.3,Win32,60.06366749,62bbe60bf3d75ef465d3e404,,,,,,,,,,,,,,,,,,,,,,,,,,,,,,,,,,,,,,,,,,,,,,,,,,,,,,,,,,,,,,,,,,,,,,,,,,,,,,,,,,,,,,,,,,,,,,,,,,,,,,,,,,,,,,,,,,,,,,,,,,,,,,,,,,,,,,,,,,,,,,,,,,,,,,,,,,,,,,
0,90,90,18,1,,60708e12f67240319e438e04,62bbf9f1e61a9153e4d8e9be,2022-06-29_09h06.57.174,Colour_Asymmetry_Pilot,2022.1.3,Win32,60.06366749,62bbe60bf3d75ef465d3e404,,,,,,,,,,,,,,,,,,,,,,,,,,,,,,,,,,,,,,,,,,,,,,,,,,,,,,,,,,,,,,,,,,,,,,,,,,,,,,,,,,,,,,,,,,,,,,,,,,,,,,,,,,,,,,,,,,,,,,,,,,,,,,,,,,,,,,,,,,,,,,,,,,,,,,,,,,,,,,
0,91,91,6,1,,60708e12f67240319e438e04,62bbf9f1e61a9153e4d8e9be,2022-06-29_09h06.57.174,Colour_Asymmetry_Pilot,2022.1.3,Win32,60.06366749,62bbe60bf3d75ef465d3e404,,,,,,,,,,,,,,,,,,,,,,,,,,,,,,,,,,,,,,,,,,,,,,,,,,,,,,,,,,,,,,,,,,,,,,,,,,,,,,,,,,,,,,,,,,,,,,,,,,,,,,,,,,,,,,,,,,,,,,,,,,,,,,,,,,,,,,,,,,,,,,,,,,,,,,,,,,,,,,
0,92,92,71,1,,60708e12f67240319e438e04,62bbf9f1e61a9153e4d8e9be,2022-06-29_09h06.57.174,Colour_Asymmetry_Pilot,2022.1.3,Win32,60.06366749,62bbe60bf3d75ef465d3e404,,,,,,,,,,,,,,,,,,,,,,,,,,,,,,,,,,,,,,,,,,,,,,,,,,,,,,,,,,,,,,,,,,,,,,,,,,,,,,,,,,,,,,,,,,,,,,,,,,,,,,,,,,,,,,,,,,,,,,,,,,,,,,,,,,,,,,,,,,,,,,,,,,,,,,,,,,,,,,
,,,,,,60708e12f67240319e438e04,62bbf9f1e61a9153e4d8e9be,2022-06-29_09h06.57.174,Colour_Asymmetry_Pilot,2022.1.3,Win32,60.06366749,62bbe60bf3d75ef465d3e404,0,0,0,48,1,onetwo,,,,,,,,,,,,,,,,,,,,,,,,,,,,,,,,,,,,,,,,,,,,,,,,,,,,,,,,,,,,,,,,,,,,,,,,,,,,,,,,,,,,,,,,,,,,,,,,,,,,,,,,,,,,,,,,,,,,,,,,,,,,,,,,,,,,,,,,,,,,,,,,,,,,,,,,
,,,,,,60708e12f67240319e438e04,62bbf9f1e61a9153e4d8e9be,2022-06-29_09h06.57.174,Colour_Asymmetry_Pilot,2022.1.3,Win32,60.06366749,62bbe60bf3d75ef465d3e404,0,1,1,75,1,twofour,,,,,,,,,,,,,,,,,,,,,,,,,,,,,,,,,,,,,,,,,,,,,,,,,,,,,,,,,,,,,,,,,,,,,,,,,,,,,,,,,,,,,,,,,,,,,,,,,,,,,,,,,,,,,,,,,,,,,,,,,,,,,,,,,,,,,,,,,,,,,,,,,,,,,,,,
,,,,,,60708e12f67240319e438e04,62bbf9f1e61a9153e4d8e9be,2022-06-29_09h06.57.174,Colour_Asymmetry_Pilot,2022.1.3,Win32,60.06366749,62bbe60bf3d75ef465d3e404,0,2,2,44,1,threeone,,,,,,,,,,,,,,,,,,,,,,,,,,,,,,,,,,,,,,,,,,,,,,,,,,,,,,,,,,,,,,,,,,,,,,,,,,,,,,,,,,,,,,,,,,,,,,,,,,,,,,,,,,,,,,,,,,,,,,,,,,,,,,,,,,,,,,,,,,,,,,,,,,,,,,,,
,,,,,,60708e12f67240319e438e04,62bbf9f1e61a9153e4d8e9be,2022-06-29_09h06.57.174,Colour_Asymmetry_Pilot,2022.1.3,Win32,60.06366749,62bbe60bf3d75ef465d3e404,0,3,3,29,1,threefour,,,,,,,,,,,,,,,,,,,,,,,,,,,,,,,,,,,,,,,,,,,,,,,,,,,,,,,,,,,,,,,,,,,,,,,,,,,,,,,,,,,,,,,,,,,,,,,,,,,,,,,,,,,,,,,,,,,,,,,,,,,,,,,,,,,,,,,,,,,,,,,,,,,,,,,,
,,,,,,60708e12f67240319e438e04,62bbf9f1e61a9153e4d8e9be,2022-06-29_09h06.57.174,Colour_Asymmetry_Pilot,2022.1.3,Win32,60.06366749,62bbe60bf3d75ef465d3e404,0,4,4,73,1,onethree,,,,,,,,,,,,,,,,,,,,,,,,,,,,,,,,,,,,,,,,,,,,,,,,,,,,,,,,,,,,,,,,,,,,,,,,,,,,,,,,,,,,,,,,,,,,,,,,,,,,,,,,,,,,,,,,,,,,,,,,,,,,,,,,,,,,,,,,,,,,,,,,,,,,,,,,
,,,,,,60708e12f67240319e438e04,62bbf9f1e61a9153e4d8e9be,2022-06-29_09h06.57.174,Colour_Asymmetry_Pilot,2022.1.3,Win32,60.06366749,62bbe60bf3d75ef465d3e404,0,5,5,122,1,twoone,,,,,,,,,,,,,,,,,,,,,,,,,,,,,,,,,,,,,,,,,,,,,,,,,,,,,,,,,,,,,,,,,,,,,,,,,,,,,,,,,,,,,,,,,,,,,,,,,,,,,,,,,,,,,,,,,,,,,,,,,,,,,,,,,,,,,,,,,,,,,,,,,,,,,,,,
,,,,,,60708e12f67240319e438e04,62bbf9f1e61a9153e4d8e9be,2022-06-29_09h06.57.174,Colour_Asymmetry_Pilot,2022.1.3,Win32,60.06366749,62bbe60bf3d75ef465d3e404,0,6,6,74,1,twoone,,,,,,,,,,,,,,,,,,,,,,,,,,,,,,,,,,,,,,,,,,,,,,,,,,,,,,,,,,,,,,,,,,,,,,,,,,,,,,,,,,,,,,,,,,,,,,,,,,,,,,,,,,,,,,,,,,,,,,,,,,,,,,,,,,,,,,,,,,,,,,,,,,,,,,,,
,,,,,,60708e12f67240319e438e04,62bbf9f1e61a9153e4d8e9be,2022-06-29_09h06.57.174,Colour_Asymmetry_Pilot,2022.1.3,Win32,60.06366749,62bbe60bf3d75ef465d3e404,0,7,7,63,1,fourthree,,,,,,,,,,,,,,,,,,,,,,,,,,,,,,,,,,,,,,,,,,,,,,,,,,,,,,,,,,,,,,,,,,,,,,,,,,,,,,,,,,,,,,,,,,,,,,,,,,,,,,,,,,,,,,,,,,,,,,,,,,,,,,,,,,,,,,,,,,,,,,,,,,,,,,,,
,,,,,,60708e12f67240319e438e04,62bbf9f1e61a9153e4d8e9be,2022-06-29_09h06.57.174,Colour_Asymmetry_Pilot,2022.1.3,Win32,60.06366749,62bbe60bf3d75ef465d3e404,0,8,8,152,1,onetwo,,,,,,,,,,,,,,,,,,,,,,,,,,,,,,,,,,,,,,,,,,,,,,,,,,,,,,,,,,,,,,,,,,,,,,,,,,,,,,,,,,,,,,,,,,,,,,,,,,,,,,,,,,,,,,,,,,,,,,,,,,,,,,,,,,,,,,,,,,,,,,,,,,,,,,,,
,,,,,,60708e12f67240319e438e04,62bbf9f1e61a9153e4d8e9be,2022-06-29_09h06.57.174,Colour_Asymmetry_Pilot,2022.1.3,Win32,60.06366749,62bbe60bf3d75ef465d3e404,0,9,9,124,1,threeone,,,,,,,,,,,,,,,,,,,,,,,,,,,,,,,,,,,,,,,,,,,,,,,,,,,,,,,,,,,,,,,,,,,,,,,,,,,,,,,,,,,,,,,,,,,,,,,,,,,,,,,,,,,,,,,,,,,,,,,,,,,,,,,,,,,,,,,,,,,,,,,,,,,,,,,,
,,,,,,60708e12f67240319e438e04,62bbf9f1e61a9153e4d8e9be,2022-06-29_09h06.57.174,Colour_Asymmetry_Pilot,2022.1.3,Win32,60.06366749,62bbe60bf3d75ef465d3e404,0,10,10,112,1,onetwo,,,,,,,,,,,,,,,,,,,,,,,,,,,,,,,,,,,,,,,,,,,,,,,,,,,,,,,,,,,,,,,,,,,,,,,,,,,,,,,,,,,,,,,,,,,,,,,,,,,,,,,,,,,,,,,,,,,,,,,,,,,,,,,,,,,,,,,,,,,,,,,,,,,,,,,,
,,,,,,60708e12f67240319e438e04,62bbf9f1e61a9153e4d8e9be,2022-06-29_09h06.57.174,Colour_Asymmetry_Pilot,2022.1.3,Win32,60.06366749,62bbe60bf3d75ef465d3e404,0,11,11,130,1,twoone,,,,,,,,,,,,,,,,,,,,,,,,,,,,,,,,,,,,,,,,,,,,,,,,,,,,,,,,,,,,,,,,,,,,,,,,,,,,,,,,,,,,,,,,,,,,,,,,,,,,,,,,,,,,,,,,,,,,,,,,,,,,,,,,,,,,,,,,,,,,,,,,,,,,,,,,
,,,,,,60708e12f67240319e438e04,62bbf9f1e61a9153e4d8e9be,2022-06-29_09h06.57.174,Colour_Asymmetry_Pilot,2022.1.3,Win32,60.06366749,62bbe60bf3d75ef465d3e404,0,12,12,15,1,fourthree,,,,,,,,,,,,,,,,,,,,,,,,,,,,,,,,,,,,,,,,,,,,,,,,,,,,,,,,,,,,,,,,,,,,,,,,,,,,,,,,,,,,,,,,,,,,,,,,,,,,,,,,,,,,,,,,,,,,,,,,,,,,,,,,,,,,,,,,,,,,,,,,,,,,,,,,
,,,,,,60708e12f67240319e438e04,62bbf9f1e61a9153e4d8e9be,2022-06-29_09h06.57.174,Colour_Asymmetry_Pilot,2022.1.3,Win32,60.06366749,62bbe60bf3d75ef465d3e404,0,13,13,61,1,threefour,,,,,,,,,,,,,,,,,,,,,,,,,,,,,,,,,,,,,,,,,,,,,,,,,,,,,,,,,,,,,,,,,,,,,,,,,,,,,,,,,,,,,,,,,,,,,,,,,,,,,,,,,,,,,,,,,,,,,,,,,,,,,,,,,,,,,,,,,,,,,,,,,,,,,,,,
,,,,,,60708e12f67240319e438e04,62bbf9f1e61a9153e4d8e9be,2022-06-29_09h06.57.174,Colour_Asymmetry_Pilot,2022.1.3,Win32,60.06366749,62bbe60bf3d75ef465d3e404,0,14,14,110,1,fourtwo,,,,,,,,,,,,,,,,,,,,,,,,,,,,,,,,,,,,,,,,,,,,,,,,,,,,,,,,,,,,,,,,,,,,,,,,,,,,,,,,,,,,,,,,,,,,,,,,,,,,,,,,,,,,,,,,,,,,,,,,,,,,,,,,,,,,,,,,,,,,,,,,,,,,,,,,
,,,,,,60708e12f67240319e438e04,62bbf9f1e61a9153e4d8e9be,2022-06-29_09h06.57.174,Colour_Asymmetry_Pilot,2022.1.3,Win32,60.06366749,62bbe60bf3d75ef465d3e404,0,15,15,154,1,twoone,,,,,,,,,,,,,,,,,,,,,,,,,,,,,,,,,,,,,,,,,,,,,,,,,,,,,,,,,,,,,,,,,,,,,,,,,,,,,,,,,,,,,,,,,,,,,,,,,,,,,,,,,,,,,,,,,,,,,,,,,,,,,,,,,,,,,,,,,,,,,,,,,,,,,,,,
,,,,,,60708e12f67240319e438e04,62bbf9f1e61a9153e4d8e9be,2022-06-29_09h06.57.174,Colour_Asymmetry_Pilot,2022.1.3,Win32,60.06366749,62bbe60bf3d75ef465d3e404,0,16,16,59,1,twofour,,,,,,,,,,,,,,,,,,,,,,,,,,,,,,,,,,,,,,,,,,,,,,,,,,,,,,,,,,,,,,,,,,,,,,,,,,,,,,,,,,,,,,,,,,,,,,,,,,,,,,,,,,,,,,,,,,,,,,,,,,,,,,,,,,,,,,,,,,,,,,,,,,,,,,,,
,,,,,,60708e12f67240319e438e04,62bbf9f1e61a9153e4d8e9be,2022-06-29_09h06.57.174,Colour_Asymmetry_Pilot,2022.1.3,Win32,60.06366749,62bbe60bf3d75ef465d3e404,0,17,17,17,1,onethree,,,,,,,,,,,,,,,,,,,,,,,,,,,,,,,,,,,,,,,,,,,,,,,,,,,,,,,,,,,,,,,,,,,,,,,,,,,,,,,,,,,,,,,,,,,,,,,,,,,,,,,,,,,,,,,,,,,,,,,,,,,,,,,,,,,,,,,,,,,,,,,,,,,,,,,,
,,,,,,60708e12f67240319e438e04,62bbf9f1e61a9153e4d8e9be,2022-06-29_09h06.57.174,Colour_Asymmetry_Pilot,2022.1.3,Win32,60.06366749,62bbe60bf3d75ef465d3e404,0,18,18,46,1,fourtwo,,,,,,,,,,,,,,,,,,,,,,,,,,,,,,,,,,,,,,,,,,,,,,,,,,,,,,,,,,,,,,,,,,,,,,,,,,,,,,,,,,,,,,,,,,,,,,,,,,,,,,,,,,,,,,,,,,,,,,,,,,,,,,,,,,,,,,,,,,,,,,,,,,,,,,,,
,,,,,,60708e12f67240319e438e04,62bbf9f1e61a9153e4d8e9be,2022-06-29_09h06.57.174,Colour_Asymmetry_Pilot,2022.1.3,Win32,60.06366749,62bbe60bf3d75ef465d3e404,0,19,19,80,1,onetwo,,,,,,,,,,,,,,,,,,,,,,,,,,,,,,,,,,,,,,,,,,,,,,,,,,,,,,,,,,,,,,,,,,,,,,,,,,,,,,,,,,,,,,,,,,,,,,,,,,,,,,,,,,,,,,,,,,,,,,,,,,,,,,,,,,,,,,,,,,,,,,,,,,,,,,,,
,,,,,,60708e12f67240319e438e04,62bbf9f1e61a9153e4d8e9be,2022-06-29_09h06.57.174,Colour_Asymmetry_Pilot,2022.1.3,Win32,60.06366749,62bbe60bf3d75ef465d3e404,0,20,20,39,1,fourthree,,,,,,,,,,,,,,,,,,,,,,,,,,,,,,,,,,,,,,,,,,,,,,,,,,,,,,,,,,,,,,,,,,,,,,,,,,,,,,,,,,,,,,,,,,,,,,,,,,,,,,,,,,,,,,,,,,,,,,,,,,,,,,,,,,,,,,,,,,,,,,,,,,,,,,,,
,,,,,,60708e12f67240319e438e04,62bbf9f1e61a9153e4d8e9be,2022-06-29_09h06.57.174,Colour_Asymmetry_Pilot,2022.1.3,Win32,60.06366749,62bbe60bf3d75ef465d3e404,0,21,21,41,1,onethree,,,,,,,,,,,,,,,,,,,,,,,,,,,,,,,,,,,,,,,,,,,,,,,,,,,,,,,,,,,,,,,,,,,,,,,,,,,,,,,,,,,,,,,,,,,,,,,,,,,,,,,,,,,,,,,,,,,,,,,,,,,,,,,,,,,,,,,,,,,,,,,,,,,,,,,,
,,,,,,60708e12f67240319e438e04,62bbf9f1e61a9153e4d8e9be,2022-06-29_09h06.57.174,Colour_Asymmetry_Pilot,2022.1.3,Win32,60.06366749,62bbe60bf3d75ef465d3e404,0,22,22,140,1,threeone,,,,,,,,,,,,,,,,,,,,,,,,,,,,,,,,,,,,,,,,,,,,,,,,,,,,,,,,,,,,,,,,,,,,,,,,,,,,,,,,,,,,,,,,,,,,,,,,,,,,,,,,,,,,,,,,,,,,,,,,,,,,,,,,,,,,,,,,,,,,,,,,,,,,,,,,
,,,,,,60708e12f67240319e438e04,62bbf9f1e61a9153e4d8e9be,2022-06-29_09h06.57.174,Colour_Asymmetry_Pilot,2022.1.3,Win32,60.06366749,62bbe60bf3d75ef465d3e404,0,23,23,160,1,onetwo,,,,,,,,,,,,,,,,,,,,,,,,,,,,,,,,,,,,,,,,,,,,,,,,,,,,,,,,,,,,,,,,,,,,,,,,,,,,,,,,,,,,,,,,,,,,,,,,,,,,,,,,,,,,,,,,,,,,,,,,,,,,,,,,,,,,,,,,,,,,,,,,,,,,,,,,
,,,,,,60708e12f67240319e438e04,62bbf9f1e61a9153e4d8e9be,2022-06-29_09h06.57.174,Colour_Asymmetry_Pilot,2022.1.3,Win32,60.06366749,62bbe60bf3d75ef465d3e404,0,24,24,43,1,twofour,,,,,,,,,,,,,,,,,,,,,,,,,,,,,,,,,,,,,,,,,,,,,,,,,,,,,,,,,,,,,,,,,,,,,,,,,,,,,,,,,,,,,,,,,,,,,,,,,,,,,,,,,,,,,,,,,,,,,,,,,,,,,,,,,,,,,,,,,,,,,,,,,,,,,,,,
,,,,,,60708e12f67240319e438e04,62bbf9f1e61a9153e4d8e9be,2022-06-29_09h06.57.174,Colour_Asymmetry_Pilot,2022.1.3,Win32,60.06366749,62bbe60bf3d75ef465d3e404,0,25,25,109,1,threefour,,,,,,,,,,,,,,,,,,,,,,,,,,,,,,,,,,,,,,,,,,,,,,,,,,,,,,,,,,,,,,,,,,,,,,,,,,,,,,,,,,,,,,,,,,,,,,,,,,,,,,,,,,,,,,,,,,,,,,,,,,,,,,,,,,,,,,,,,,,,,,,,,,,,,,,,
,,,,,,60708e12f67240319e438e04,62bbf9f1e61a9153e4d8e9be,2022-06-29_09h06.57.174,Colour_Asymmetry_Pilot,2022.1.3,Win32,60.06366749,62bbe60bf3d75ef465d3e404,0,26,26,0,1,onetwo,,,,,,,,,,,,,,,,,,,,,,,,,,,,,,,,,,,,,,,,,,,,,,,,,,,,,,,,,,,,,,,,,,,,,,,,,,,,,,,,,,,,,,,,,,,,,,,,,,,,,,,,,,,,,,,,,,,,,,,,,,,,,,,,,,,,,,,,,,,,,,,,,,,,,,,,
,,,,,,60708e12f67240319e438e04,62bbf9f1e61a9153e4d8e9be,2022-06-29_09h06.57.174,Colour_Asymmetry_Pilot,2022.1.3,Win32,60.06366749,62bbe60bf3d75ef465d3e404,0,27,27,153,1,onethree,,,,,,,,,,,,,,,,,,,,,,,,,,,,,,,,,,,,,,,,,,,,,,,,,,,,,,,,,,,,,,,,,,,,,,,,,,,,,,,,,,,,,,,,,,,,,,,,,,,,,,,,,,,,,,,,,,,,,,,,,,,,,,,,,,,,,,,,,,,,,,,,,,,,,,,,
,,,,,,60708e12f67240319e438e04,62bbf9f1e61a9153e4d8e9be,2022-06-29_09h06.57.174,Colour_Asymmetry_Pilot,2022.1.3,Win32,60.06366749,62bbe60bf3d75ef465d3e404,0,28,28,69,1,threefour,,,,,,,,,,,,,,,,,,,,,,,,,,,,,,,,,,,,,,,,,,,,,,,,,,,,,,,,,,,,,,,,,,,,,,,,,,,,,,,,,,,,,,,,,,,,,,,,,,,,,,,,,,,,,,,,,,,,,,,,,,,,,,,,,,,,,,,,,,,,,,,,,,,,,,,,
,,,,,,60708e12f67240319e438e04,62bbf9f1e61a9153e4d8e9be,2022-06-29_09h06.57.174,Colour_Asymmetry_Pilot,2022.1.3,Win32,60.06366749,62bbe60bf3d75ef465d3e404,0,29,29,131,1,twofour,,,,,,,,,,,,,,,,,,,,,,,,,,,,,,,,,,,,,,,,,,,,,,,,,,,,,,,,,,,,,,,,,,,,,,,,,,,,,,,,,,,,,,,,,,,,,,,,,,,,,,,,,,,,,,,,,,,,,,,,,,,,,,,,,,,,,,,,,,,,,,,,,,,,,,,,
,,,,,,60708e12f67240319e438e04,62bbf9f1e61a9153e4d8e9be,2022-06-29_09h06.57.174,Colour_Asymmetry_Pilot,2022.1.3,Win32,60.06366749,62bbe60bf3d75ef465d3e404,0,30,30,143,1,fourthree,,,,,,,,,,,,,,,,,,,,,,,,,,,,,,,,,,,,,,,,,,,,,,,,,,,,,,,,,,,,,,,,,,,,,,,,,,,,,,,,,,,,,,,,,,,,,,,,,,,,,,,,,,,,,,,,,,,,,,,,,,,,,,,,,,,,,,,,,,,,,,,,,,,,,,,,
,,,,,,60708e12f67240319e438e04,62bbf9f1e61a9153e4d8e9be,2022-06-29_09h06.57.174,Colour_Asymmetry_Pilot,2022.1.3,Win32,60.06366749,62bbe60bf3d75ef465d3e404,0,31,31,56,1,onetwo,,,,,,,,,,,,,,,,,,,,,,,,,,,,,,,,,,,,,,,,,,,,,,,,,,,,,,,,,,,,,,,,,,,,,,,,,,,,,,,,,,,,,,,,,,,,,,,,,,,,,,,,,,,,,,,,,,,,,,,,,,,,,,,,,,,,,,,,,,,,,,,,,,,,,,,,
,,,,,,60708e12f67240319e438e04,62bbf9f1e61a9153e4d8e9be,2022-06-29_09h06.57.174,Colour_Asymmetry_Pilot,2022.1.3,Win32,60.06366749,62bbe60bf3d75ef465d3e404,0,32,32,94,1,fourtwo,,,,,,,,,,,,,,,,,,,,,,,,,,,,,,,,,,,,,,,,,,,,,,,,,,,,,,,,,,,,,,,,,,,,,,,,,,,,,,,,,,,,,,,,,,,,,,,,,,,,,,,,,,,,,,,,,,,,,,,,,,,,,,,,,,,,,,,,,,,,,,,,,,,,,,,,
,,,,,,60708e12f67240319e438e04,62bbf9f1e61a9153e4d8e9be,2022-06-29_09h06.57.174,Colour_Asymmetry_Pilot,2022.1.3,Win32,60.06366749,62bbe60bf3d75ef465d3e404,0,33,33,108,1,threeone,,,,,,,,,,,,,,,,,,,,,,,,,,,,,,,,,,,,,,,,,,,,,,,,,,,,,,,,,,,,,,,,,,,,,,,,,,,,,,,,,,,,,,,,,,,,,,,,,,,,,,,,,,,,,,,,,,,,,,,,,,,,,,,,,,,,,,,,,,,,,,,,,,,,,,,,
,,,,,,60708e12f67240319e438e04,62bbf9f1e61a9153e4d8e9be,2022-06-29_09h06.57.174,Colour_Asymmetry_Pilot,2022.1.3,Win32,60.06366749,62bbe60bf3d75ef465d3e404,0,34,34,92,1,threeone,,,,,,,,,,,,,,,,,,,,,,,,,,,,,,,,,,,,,,,,,,,,,,,,,,,,,,,,,,,,,,,,,,,,,,,,,,,,,,,,,,,,,,,,,,,,,,,,,,,,,,,,,,,,,,,,,,,,,,,,,,,,,,,,,,,,,,,,,,,,,,,,,,,,,,,,
,,,,,,60708e12f67240319e438e04,62bbf9f1e61a9153e4d8e9be,2022-06-29_09h06.57.174,Colour_Asymmetry_Pilot,2022.1.3,Win32,60.06366749,62bbe60bf3d75ef465d3e404,0,35,35,101,1,threefour,,,,,,,,,,,,,,,,,,,,,,,,,,,,,,,,,,,,,,,,,,,,,,,,,,,,,,,,,,,,,,,,,,,,,,,,,,,,,,,,,,,,,,,,,,,,,,,,,,,,,,,,,,,,,,,,,,,,,,,,,,,,,,,,,,,,,,,,,,,,,,,,,,,,,,,,
,,,,,,60708e12f67240319e438e04,62bbf9f1e61a9153e4d8e9be,2022-06-29_09h06.57.174,Colour_Asymmetry_Pilot,2022.1.3,Win32,60.06366749,62bbe60bf3d75ef465d3e404,0,36,36,49,1,onethree,,,,,,,,,,,,,,,,,,,,,,,,,,,,,,,,,,,,,,,,,,,,,,,,,,,,,,,,,,,,,,,,,,,,,,,,,,,,,,,,,,,,,,,,,,,,,,,,,,,,,,,,,,,,,,,,,,,,,,,,,,,,,,,,,,,,,,,,,,,,,,,,,,,,,,,,
,,,,,,60708e12f67240319e438e04,62bbf9f1e61a9153e4d8e9be,2022-06-29_09h06.57.174,Colour_Asymmetry_Pilot,2022.1.3,Win32,60.06366749,62bbe60bf3d75ef465d3e404,0,37,37,139,1,twofour,,,,,,,,,,,,,,,,,,,,,,,,,,,,,,,,,,,,,,,,,,,,,,,,,,,,,,,,,,,,,,,,,,,,,,,,,,,,,,,,,,,,,,,,,,,,,,,,,,,,,,,,,,,,,,,,,,,,,,,,,,,,,,,,,,,,,,,,,,,,,,,,,,,,,,,,
,,,,,,60708e12f67240319e438e04,62bbf9f1e61a9153e4d8e9be,2022-06-29_09h06.57.174,Colour_Asymmetry_Pilot,2022.1.3,Win32,60.06366749,62bbe60bf3d75ef465d3e404,0,38,38,36,1,threeone,,,,,,,,,,,,,,,,,,,,,,,,,,,,,,,,,,,,,,,,,,,,,,,,,,,,,,,,,,,,,,,,,,,,,,,,,,,,,,,,,,,,,,,,,,,,,,,,,,,,,,,,,,,,,,,,,,,,,,,,,,,,,,,,,,,,,,,,,,,,,,,,,,,,,,,,
,,,,,,60708e12f67240319e438e04,62bbf9f1e61a9153e4d8e9be,2022-06-29_09h06.57.174,Colour_Asymmetry_Pilot,2022.1.3,Win32,60.06366749,62bbe60bf3d75ef465d3e404,0,39,39,47,1,fourthree,,,,,,,,,,,,,,,,,,,,,,,,,,,,,,,,,,,,,,,,,,,,,,,,,,,,,,,,,,,,,,,,,,,,,,,,,,,,,,,,,,,,,,,,,,,,,,,,,,,,,,,,,,,,,,,,,,,,,,,,,,,,,,,,,,,,,,,,,,,,,,,,,,,,,,,,
,,,,,,60708e12f67240319e438e04,62bbf9f1e61a9153e4d8e9be,2022-06-29_09h06.57.174,Colour_Asymmetry_Pilot,2022.1.3,Win32,60.06366749,62bbe60bf3d75ef465d3e404,0,40,40,16,1,onetwo,,,,,,,,,,,,,,,,,,,,,,,,,,,,,,,,,,,,,,,,,,,,,,,,,,,,,,,,,,,,,,,,,,,,,,,,,,,,,,,,,,,,,,,,,,,,,,,,,,,,,,,,,,,,,,,,,,,,,,,,,,,,,,,,,,,,,,,,,,,,,,,,,,,,,,,,
,,,,,,60708e12f67240319e438e04,62bbf9f1e61a9153e4d8e9be,2022-06-29_09h06.57.174,Colour_Asymmetry_Pilot,2022.1.3,Win32,60.06366749,62bbe60bf3d75ef465d3e404,0,41,41,136,1,onetwo,,,,,,,,,,,,,,,,,,,,,,,,,,,,,,,,,,,,,,,,,,,,,,,,,,,,,,,,,,,,,,,,,,,,,,,,,,,,,,,,,,,,,,,,,,,,,,,,,,,,,,,,,,,,,,,,,,,,,,,,,,,,,,,,,,,,,,,,,,,,,,,,,,,,,,,,
,,,,,,60708e12f67240319e438e04,62bbf9f1e61a9153e4d8e9be,2022-06-29_09h06.57.174,Colour_Asymmetry_Pilot,2022.1.3,Win32,60.06366749,62bbe60bf3d75ef465d3e404,0,42,42,35,1,twofour,,,,,,,,,,,,,,,,,,,,,,,,,,,,,,,,,,,,,,,,,,,,,,,,,,,,,,,,,,,,,,,,,,,,,,,,,,,,,,,,,,,,,,,,,,,,,,,,,,,,,,,,,,,,,,,,,,,,,,,,,,,,,,,,,,,,,,,,,,,,,,,,,,,,,,,,
,,,,,,60708e12f67240319e438e04,62bbf9f1e61a9153e4d8e9be,2022-06-29_09h06.57.174,Colour_Asymmetry_Pilot,2022.1.3,Win32,60.06366749,62bbe60bf3d75ef465d3e404,0,43,43,50,1,twoone,,,,,,,,,,,,,,,,,,,,,,,,,,,,,,,,,,,,,,,,,,,,,,,,,,,,,,,,,,,,,,,,,,,,,,,,,,,,,,,,,,,,,,,,,,,,,,,,,,,,,,,,,,,,,,,,,,,,,,,,,,,,,,,,,,,,,,,,,,,,,,,,,,,,,,,,
,,,,,,60708e12f67240319e438e04,62bbf9f1e61a9153e4d8e9be,2022-06-29_09h06.57.174,Colour_Asymmetry_Pilot,2022.1.3,Win32,60.06366749,62bbe60bf3d75ef465d3e404,0,44,44,161,1,onethree,,,,,,,,,,,,,,,,,,,,,,,,,,,,,,,,,,,,,,,,,,,,,,,,,,,,,,,,,,,,,,,,,,,,,,,,,,,,,,,,,,,,,,,,,,,,,,,,,,,,,,,,,,,,,,,,,,,,,,,,,,,,,,,,,,,,,,,,,,,,,,,,,,,,,,,,
,,,,,,60708e12f67240319e438e04,62bbf9f1e61a9153e4d8e9be,2022-06-29_09h06.57.174,Colour_Asymmetry_Pilot,2022.1.3,Win32,60.06366749,62bbe60bf3d75ef465d3e404,0,45,45,4,1,threeone,,,,,,,,,,,,,,,,,,,,,,,,,,,,,,,,,,,,,,,,,,,,,,,,,,,,,,,,,,,,,,,,,,,,,,,,,,,,,,,,,,,,,,,,,,,,,,,,,,,,,,,,,,,,,,,,,,,,,,,,,,,,,,,,,,,,,,,,,,,,,,,,,,,,,,,,
,,,,,,60708e12f67240319e438e04,62bbf9f1e61a9153e4d8e9be,2022-06-29_09h06.57.174,Colour_Asymmetry_Pilot,2022.1.3,Win32,60.06366749,62bbe60bf3d75ef465d3e404,0,46,46,9,1,onethree,,,,,,,,,,,,,,,,,,,,,,,,,,,,,,,,,,,,,,,,,,,,,,,,,,,,,,,,,,,,,,,,,,,,,,,,,,,,,,,,,,,,,,,,,,,,,,,,,,,,,,,,,,,,,,,,,,,,,,,,,,,,,,,,,,,,,,,,,,,,,,,,,,,,,,,,
,,,,,,60708e12f67240319e438e04,62bbf9f1e61a9153e4d8e9be,2022-06-29_09h06.57.174,Colour_Asymmetry_Pilot,2022.1.3,Win32,60.06366749,62bbe60bf3d75ef465d3e404,0,47,47,55,1,fourthree,,,,,,,,,,,,,,,,,,,,,,,,,,,,,,,,,,,,,,,,,,,,,,,,,,,,,,,,,,,,,,,,,,,,,,,,,,,,,,,,,,,,,,,,,,,,,,,,,,,,,,,,,,,,,,,,,,,,,,,,,,,,,,,,,,,,,,,,,,,,,,,,,,,,,,,,
,,,,,,60708e12f67240319e438e04,62bbf9f1e61a9153e4d8e9be,2022-06-29_09h06.57.174,Colour_Asymmetry_Pilot,2022.1.3,Win32,60.06366749,62bbe60bf3d75ef465d3e404,0,48,48,10,1,twoone,,,,,,,,,,,,,,,,,,,,,,,,,,,,,,,,,,,,,,,,,,,,,,,,,,,,,,,,,,,,,,,,,,,,,,,,,,,,,,,,,,,,,,,,,,,,,,,,,,,,,,,,,,,,,,,,,,,,,,,,,,,,,,,,,,,,,,,,,,,,,,,,,,,,,,,,
,,,,,,60708e12f67240319e438e04,62bbf9f1e61a9153e4d8e9be,2022-06-29_09h06.57.174,Colour_Asymmetry_Pilot,2022.1.3,Win32,60.06366749,62bbe60bf3d75ef465d3e404,0,49,49,123,1,twofour,,,,,,,,,,,,,,,,,,,,,,,,,,,,,,,,,,,,,,,,,,,,,,,,,,,,,,,,,,,,,,,,,,,,,,,,,,,,,,,,,,,,,,,,,,,,,,,,,,,,,,,,,,,,,,,,,,,,,,,,,,,,,,,,,,,,,,,,,,,,,,,,,,,,,,,,
,,,,,,60708e12f67240319e438e04,62bbf9f1e61a9153e4d8e9be,2022-06-29_09h06.57.174,Colour_Asymmetry_Pilot,2022.1.3,Win32,60.06366749,62bbe60bf3d75ef465d3e404,0,50,50,23,1,fourthree,,,,,,,,,,,,,,,,,,,,,,,,,,,,,,,,,,,,,,,,,,,,,,,,,,,,,,,,,,,,,,,,,,,,,,,,,,,,,,,,,,,,,,,,,,,,,,,,,,,,,,,,,,,,,,,,,,,,,,,,,,,,,,,,,,,,,,,,,,,,,,,,,,,,,,,,
,,,,,,60708e12f67240319e438e04,62bbf9f1e61a9153e4d8e9be,2022-06-29_09h06.57.174,Colour_Asymmetry_Pilot,2022.1.3,Win32,60.06366749,62bbe60bf3d75ef465d3e404,0,51,51,135,1,fourthree,,,,,,,,,,,,,,,,,,,,,,,,,,,,,,,,,,,,,,,,,,,,,,,,,,,,,,,,,,,,,,,,,,,,,,,,,,,,,,,,,,,,,,,,,,,,,,,,,,,,,,,,,,,,,,,,,,,,,,,,,,,,,,,,,,,,,,,,,,,,,,,,,,,,,,,,
,,,,,,60708e12f67240319e438e04,62bbf9f1e61a9153e4d8e9be,2022-06-29_09h06.57.174,Colour_Asymmetry_Pilot,2022.1.3,Win32,60.06366749,62bbe60bf3d75ef465d3e404,0,52,52,52,1,threeone,,,,,,,,,,,,,,,,,,,,,,,,,,,,,,,,,,,,,,,,,,,,,,,,,,,,,,,,,,,,,,,,,,,,,,,,,,,,,,,,,,,,,,,,,,,,,,,,,,,,,,,,,,,,,,,,,,,,,,,,,,,,,,,,,,,,,,,,,,,,,,,,,,,,,,,,
,,,,,,60708e12f67240319e438e04,62bbf9f1e61a9153e4d8e9be,2022-06-29_09h06.57.174,Colour_Asymmetry_Pilot,2022.1.3,Win32,60.06366749,62bbe60bf3d75ef465d3e404,0,53,53,78,1,fourtwo,,,,,,,,,,,,,,,,,,,,,,,,,,,,,,,,,,,,,,,,,,,,,,,,,,,,,,,,,,,,,,,,,,,,,,,,,,,,,,,,,,,,,,,,,,,,,,,,,,,,,,,,,,,,,,,,,,,,,,,,,,,,,,,,,,,,,,,,,,,,,,,,,,,,,,,,
,,,,,,60708e12f67240319e438e04,62bbf9f1e61a9153e4d8e9be,2022-06-29_09h06.57.174,Colour_Asymmetry_Pilot,2022.1.3,Win32,60.06366749,62bbe60bf3d75ef465d3e404,0,54,54,71,1,fourthree,,,,,,,,,,,,,,,,,,,,,,,,,,,,,,,,,,,,,,,,,,,,,,,,,,,,,,,,,,,,,,,,,,,,,,,,,,,,,,,,,,,,,,,,,,,,,,,,,,,,,,,,,,,,,,,,,,,,,,,,,,,,,,,,,,,,,,,,,,,,,,,,,,,,,,,,
,,,,,,60708e12f67240319e438e04,62bbf9f1e61a9153e4d8e9be,2022-06-29_09h06.57.174,Colour_Asymmetry_Pilot,2022.1.3,Win32,60.06366749,62bbe60bf3d75ef465d3e404,0,55,55,33,1,onethree,,,,,,,,,,,,,,,,,,,,,,,,,,,,,,,,,,,,,,,,,,,,,,,,,,,,,,,,,,,,,,,,,,,,,,,,,,,,,,,,,,,,,,,,,,,,,,,,,,,,,,,,,,,,,,,,,,,,,,,,,,,,,,,,,,,,,,,,,,,,,,,,,,,,,,,,
,,,,,,60708e12f67240319e438e04,62bbf9f1e61a9153e4d8e9be,2022-06-29_09h06.57.174,Colour_Asymmetry_Pilot,2022.1.3,Win32,60.06366749,62bbe60bf3d75ef465d3e404,0,56,56,7,1,fourthree,,,,,,,,,,,,,,,,,,,,,,,,,,,,,,,,,,,,,,,,,,,,,,,,,,,,,,,,,,,,,,,,,,,,,,,,,,,,,,,,,,,,,,,,,,,,,,,,,,,,,,,,,,,,,,,,,,,,,,,,,,,,,,,,,,,,,,,,,,,,,,,,,,,,,,,,
,,,,,,60708e12f67240319e438e04,62bbf9f1e61a9153e4d8e9be,2022-06-29_09h06.57.174,Colour_Asymmetry_Pilot,2022.1.3,Win32,60.06366749,62bbe60bf3d75ef465d3e404,0,57,57,149,1,threefour,,,,,,,,,,,,,,,,,,,,,,,,,,,,,,,,,,,,,,,,,,,,,,,,,,,,,,,,,,,,,,,,,,,,,,,,,,,,,,,,,,,,,,,,,,,,,,,,,,,,,,,,,,,,,,,,,,,,,,,,,,,,,,,,,,,,,,,,,,,,,,,,,,,,,,,,
,,,,,,60708e12f67240319e438e04,62bbf9f1e61a9153e4d8e9be,2022-06-29_09h06.57.174,Colour_Asymmetry_Pilot,2022.1.3,Win32,60.06366749,62bbe60bf3d75ef465d3e404,0,58,58,32,1,onetwo,,,,,,,,,,,,,,,,,,,,,,,,,,,,,,,,,,,,,,,,,,,,,,,,,,,,,,,,,,,,,,,,,,,,,,,,,,,,,,,,,,,,,,,,,,,,,,,,,,,,,,,,,,,,,,,,,,,,,,,,,,,,,,,,,,,,,,,,,,,,,,,,,,,,,,,,
,,,,,,60708e12f67240319e438e04,62bbf9f1e61a9153e4d8e9be,2022-06-29_09h06.57.174,Colour_Asymmetry_Pilot,2022.1.3,Win32,60.06366749,62bbe60bf3d75ef465d3e404,0,59,59,22,1,fourtwo,,,,,,,,,,,,,,,,,,,,,,,,,,,,,,,,,,,,,,,,,,,,,,,,,,,,,,,,,,,,,,,,,,,,,,,,,,,,,,,,,,,,,,,,,,,,,,,,,,,,,,,,,,,,,,,,,,,,,,,,,,,,,,,,,,,,,,,,,,,,,,,,,,,,,,,,
,,,,,,60708e12f67240319e438e04,62bbf9f1e61a9153e4d8e9be,2022-06-29_09h06.57.174,Colour_Asymmetry_Pilot,2022.1.3,Win32,60.06366749,62bbe60bf3d75ef465d3e404,0,60,60,8,1,onetwo,,,,,,,,,,,,,,,,,,,,,,,,,,,,,,,,,,,,,,,,,,,,,,,,,,,,,,,,,,,,,,,,,,,,,,,,,,,,,,,,,,,,,,,,,,,,,,,,,,,,,,,,,,,,,,,,,,,,,,,,,,,,,,,,,,,,,,,,,,,,,,,,,,,,,,,,
,,,,,,60708e12f67240319e438e04,62bbf9f1e61a9153e4d8e9be,2022-06-29_09h06.57.174,Colour_Asymmetry_Pilot,2022.1.3,Win32,60.06366749,62bbe60bf3d75ef465d3e404,0,61,61,72,1,onetwo,,,,,,,,,,,,,,,,,,,,,,,,,,,,,,,,,,,,,,,,,,,,,,,,,,,,,,,,,,,,,,,,,,,,,,,,,,,,,,,,,,,,,,,,,,,,,,,,,,,,,,,,,,,,,,,,,,,,,,,,,,,,,,,,,,,,,,,,,,,,,,,,,,,,,,,,
,,,,,,60708e12f67240319e438e04,62bbf9f1e61a9153e4d8e9be,2022-06-29_09h06.57.174,Colour_Asymmetry_Pilot,2022.1.3,Win32,60.06366749,62bbe60bf3d75ef465d3e404,0,62,62,114,1,twoone,,,,,,,,,,,,,,,,,,,,,,,,,,,,,,,,,,,,,,,,,,,,,,,,,,,,,,,,,,,,,,,,,,,,,,,,,,,,,,,,,,,,,,,,,,,,,,,,,,,,,,,,,,,,,,,,,,,,,,,,,,,,,,,,,,,,,,,,,,,,,,,,,,,,,,,,
,,,,,,60708e12f67240319e438e04,62bbf9f1e61a9153e4d8e9be,2022-06-29_09h06.57.174,Colour_Asymmetry_Pilot,2022.1.3,Win32,60.06366749,62bbe60bf3d75ef465d3e404,0,63,63,38,1,fourtwo,,,,,,,,,,,,,,,,,,,,,,,,,,,,,,,,,,,,,,,,,,,,,,,,,,,,,,,,,,,,,,,,,,,,,,,,,,,,,,,,,,,,,,,,,,,,,,,,,,,,,,,,,,,,,,,,,,,,,,,,,,,,,,,,,,,,,,,,,,,,,,,,,,,,,,,,
,,,,,,60708e12f67240319e438e04,62bbf9f1e61a9153e4d8e9be,2022-06-29_09h06.57.174,Colour_Asymmetry_Pilot,2022.1.3,Win32,60.06366749,62bbe60bf3d75ef465d3e404,0,64,64,67,1,twofour,,,,,,,,,,,,,,,,,,,,,,,,,,,,,,,,,,,,,,,,,,,,,,,,,,,,,,,,,,,,,,,,,,,,,,,,,,,,,,,,,,,,,,,,,,,,,,,,,,,,,,,,,,,,,,,,,,,,,,,,,,,,,,,,,,,,,,,,,,,,,,,,,,,,,,,,
,,,,,,60708e12f67240319e438e04,62bbf9f1e61a9153e4d8e9be,2022-06-29_09h06.57.174,Colour_Asymmetry_Pilot,2022.1.3,Win32,60.06366749,62bbe60bf3d75ef465d3e404,0,65,65,60,1,threeone,,,,,,,,,,,,,,,,,,,,,,,,,,,,,,,,,,,,,,,,,,,,,,,,,,,,,,,,,,,,,,,,,,,,,,,,,,,,,,,,,,,,,,,,,,,,,,,,,,,,,,,,,,,,,,,,,,,,,,,,,,,,,,,,,,,,,,,,,,,,,,,,,,,,,,,,
,,,,,,60708e12f67240319e438e04,62bbf9f1e61a9153e4d8e9be,2022-06-29_09h06.57.174,Colour_Asymmetry_Pilot,2022.1.3,Win32,60.06366749,62bbe60bf3d75ef465d3e404,0,66,66,95,1,fourthree,,,,,,,,,,,,,,,,,,,,,,,,,,,,,,,,,,,,,,,,,,,,,,,,,,,,,,,,,,,,,,,,,,,,,,,,,,,,,,,,,,,,,,,,,,,,,,,,,,,,,,,,,,,,,,,,,,,,,,,,,,,,,,,,,,,,,,,,,,,,,,,,,,,,,,,,
,,,,,,60708e12f67240319e438e04,62bbf9f1e61a9153e4d8e9be,2022-06-29_09h06.57.174,Colour_Asymmetry_Pilot,2022.1.3,Win32,60.06366749,62bbe60bf3d75ef465d3e404,0,67,67,100,1,threeone,,,,,,,,,,,,,,,,,,,,,,,,,,,,,,,,,,,,,,,,,,,,,,,,,,,,,,,,,,,,,,,,,,,,,,,,,,,,,,,,,,,,,,,,,,,,,,,,,,,,,,,,,,,,,,,,,,,,,,,,,,,,,,,,,,,,,,,,,,,,,,,,,,,,,,,,
,,,,,,60708e12f67240319e438e04,62bbf9f1e61a9153e4d8e9be,2022-06-29_09h06.57.174,Colour_Asymmetry_Pilot,2022.1.3,Win32,60.06366749,62bbe60bf3d75ef465d3e404,0,68,68,89,1,onethree,,,,,,,,,,,,,,,,,,,,,,,,,,,,,,,,,,,,,,,,,,,,,,,,,,,,,,,,,,,,,,,,,,,,,,,,,,,,,,,,,,,,,,,,,,,,,,,,,,,,,,,,,,,,,,,,,,,,,,,,,,,,,,,,,,,,,,,,,,,,,,,,,,,,,,,,
,,,,,,60708e12f67240319e438e04,62bbf9f1e61a9153e4d8e9be,2022-06-29_09h06.57.174,Colour_Asymmetry_Pilot,2022.1.3,Win32,60.06366749,62bbe60bf3d75ef465d3e404,0,69,69,66,1,twoone,,,,,,,,,,,,,,,,,,,,,,,,,,,,,,,,,,,,,,,,,,,,,,,,,,,,,,,,,,,,,,,,,,,,,,,,,,,,,,,,,,,,,,,,,,,,,,,,,,,,,,,,,,,,,,,,,,,,,,,,,,,,,,,,,,,,,,,,,,,,,,,,,,,,,,,,
,,,,,,60708e12f67240319e438e04,62bbf9f1e61a9153e4d8e9be,2022-06-29_09h06.57.174,Colour_Asymmetry_Pilot,2022.1.3,Win32,60.06366749,62bbe60bf3d75ef465d3e404,0,70,70,12,1,threeone,,,,,,,,,,,,,,,,,,,,,,,,,,,,,,,,,,,,,,,,,,,,,,,,,,,,,,,,,,,,,,,,,,,,,,,,,,,,,,,,,,,,,,,,,,,,,,,,,,,,,,,,,,,,,,,,,,,,,,,,,,,,,,,,,,,,,,,,,,,,,,,,,,,,,,,,
,,,,,,60708e12f67240319e438e04,62bbf9f1e61a9153e4d8e9be,2022-06-29_09h06.57.174,Colour_Asymmetry_Pilot,2022.1.3,Win32,60.06366749,62bbe60bf3d75ef465d3e404,0,71,71,132,1,threeone,,,,,,,,,,,,,,,,,,,,,,,,,,,,,,,,,,,,,,,,,,,,,,,,,,,,,,,,,,,,,,,,,,,,,,,,,,,,,,,,,,,,,,,,,,,,,,,,,,,,,,,,,,,,,,,,,,,,,,,,,,,,,,,,,,,,,,,,,,,,,,,,,,,,,,,,
,,,,,,60708e12f67240319e438e04,62bbf9f1e61a9153e4d8e9be,2022-06-29_09h06.57.174,Colour_Asymmetry_Pilot,2022.1.3,Win32,60.06366749,62bbe60bf3d75ef465d3e404,0,72,72,65,1,onethree,,,,,,,,,,,,,,,,,,,,,,,,,,,,,,,,,,,,,,,,,,,,,,,,,,,,,,,,,,,,,,,,,,,,,,,,,,,,,,,,,,,,,,,,,,,,,,,,,,,,,,,,,,,,,,,,,,,,,,,,,,,,,,,,,,,,,,,,,,,,,,,,,,,,,,,,
,,,,,,60708e12f67240319e438e04,62bbf9f1e61a9153e4d8e9be,2022-06-29_09h06.57.174,Colour_Asymmetry_Pilot,2022.1.3,Win32,60.06366749,62bbe60bf3d75ef465d3e404,0,73,73,98,1,twoone,,,,,,,,,,,,,,,,,,,,,,,,,,,,,,,,,,,,,,,,,,,,,,,,,,,,,,,,,,,,,,,,,,,,,,,,,,,,,,,,,,,,,,,,,,,,,,,,,,,,,,,,,,,,,,,,,,,,,,,,,,,,,,,,,,,,,,,,,,,,,,,,,,,,,,,,
,,,,,,60708e12f67240319e438e04,62bbf9f1e61a9153e4d8e9be,2022-06-29_09h06.57.174,Colour_Asymmetry_Pilot,2022.1.3,Win32,60.06366749,62bbe60bf3d75ef465d3e404,0,74,74,57,1,onethree,,,,,,,,,,,,,,,,,,,,,,,,,,,,,,,,,,,,,,,,,,,,,,,,,,,,,,,,,,,,,,,,,,,,,,,,,,,,,,,,,,,,,,,,,,,,,,,,,,,,,,,,,,,,,,,,,,,,,,,,,,,,,,,,,,,,,,,,,,,,,,,,,,,,,,,,
,,,,,,60708e12f67240319e438e04,62bbf9f1e61a9153e4d8e9be,2022-06-29_09h06.57.174,Colour_Asymmetry_Pilot,2022.1.3,Win32,60.06366749,62bbe60bf3d75ef465d3e404,0,75,75,11,1,twofour,,,,,,,,,,,,,,,,,,,,,,,,,,,,,,,,,,,,,,,,,,,,,,,,,,,,,,,,,,,,,,,,,,,,,,,,,,,,,,,,,,,,,,,,,,,,,,,,,,,,,,,,,,,,,,,,,,,,,,,,,,,,,,,,,,,,,,,,,,,,,,,,,,,,,,,,
,,,,,,60708e12f67240319e438e04,62bbf9f1e61a9153e4d8e9be,2022-06-29_09h06.57.174,Colour_Asymmetry_Pilot,2022.1.3,Win32,60.06366749,62bbe60bf3d75ef465d3e404,0,76,76,159,1,fourthree,,,,,,,,,,,,,,,,,,,,,,,,,,,,,,,,,,,,,,,,,,,,,,,,,,,,,,,,,,,,,,,,,,,,,,,,,,,,,,,,,,,,,,,,,,,,,,,,,,,,,,,,,,,,,,,,,,,,,,,,,,,,,,,,,,,,,,,,,,,,,,,,,,,,,,,,
,,,,,,60708e12f67240319e438e04,62bbf9f1e61a9153e4d8e9be,2022-06-29_09h06.57.174,Colour_Asymmetry_Pilot,2022.1.3,Win32,60.06366749,62bbe60bf3d75ef465d3e404,0,77,77,81,1,onethree,,,,,,,,,,,,,,,,,,,,,,,,,,,,,,,,,,,,,,,,,,,,,,,,,,,,,,,,,,,,,,,,,,,,,,,,,,,,,,,,,,,,,,,,,,,,,,,,,,,,,,,,,,,,,,,,,,,,,,,,,,,,,,,,,,,,,,,,,,,,,,,,,,,,,,,,
,,,,,,60708e12f67240319e438e04,62bbf9f1e61a9153e4d8e9be,2022-06-29_09h06.57.174,Colour_Asymmetry_Pilot,2022.1.3,Win32,60.06366749,62bbe60bf3d75ef465d3e404,0,78,78,138,1,twoone,,,,,,,,,,,,,,,,,,,,,,,,,,,,,,,,,,,,,,,,,,,,,,,,,,,,,,,,,,,,,,,,,,,,,,,,,,,,,,,,,,,,,,,,,,,,,,,,,,,,,,,,,,,,,,,,,,,,,,,,,,,,,,,,,,,,,,,,,,,,,,,,,,,,,,,,
,,,,,,60708e12f67240319e438e04,62bbf9f1e61a9153e4d8e9be,2022-06-29_09h06.57.174,Colour_Asymmetry_Pilot,2022.1.3,Win32,60.06366749,62bbe60bf3d75ef465d3e404,0,79,79,146,1,twoone,,,,,,,,,,,,,,,,,,,,,,,,,,,,,,,,,,,,,,,,,,,,,,,,,,,,,,,,,,,,,,,,,,,,,,,,,,,,,,,,,,,,,,,,,,,,,,,,,,,,,,,,,,,,,,,,,,,,,,,,,,,,,,,,,,,,,,,,,,,,,,,,,,,,,,,,
,,,,,,60708e12f67240319e438e04,62bbf9f1e61a9153e4d8e9be,2022-06-29_09h06.57.174,Colour_Asymmetry_Pilot,2022.1.3,Win32,60.06366749,62bbe60bf3d75ef465d3e404,0,80,80,119,1,fourthree,,,,,,,,,,,,,,,,,,,,,,,,,,,,,,,,,,,,,,,,,,,,,,,,,,,,,,,,,,,,,,,,,,,,,,,,,,,,,,,,,,,,,,,,,,,,,,,,,,,,,,,,,,,,,,,,,,,,,,,,,,,,,,,,,,,,,,,,,,,,,,,,,,,,,,,,
,,,,,,60708e12f67240319e438e04,62bbf9f1e61a9153e4d8e9be,2022-06-29_09h06.57.174,Colour_Asymmetry_Pilot,2022.1.3,Win32,60.06366749,62bbe60bf3d75ef465d3e404,0,81,81,90,1,twoone,,,,,,,,,,,,,,,,,,,,,,,,,,,,,,,,,,,,,,,,,,,,,,,,,,,,,,,,,,,,,,,,,,,,,,,,,,,,,,,,,,,,,,,,,,,,,,,,,,,,,,,,,,,,,,,,,,,,,,,,,,,,,,,,,,,,,,,,,,,,,,,,,,,,,,,,
,,,,,,60708e12f67240319e438e04,62bbf9f1e61a9153e4d8e9be,2022-06-29_09h06.57.174,Colour_Asymmetry_Pilot,2022.1.3,Win32,60.06366749,62bbe60bf3d75ef465d3e404,0,82,82,147,1,twofour,,,,,,,,,,,,,,,,,,,,,,,,,,,,,,,,,,,,,,,,,,,,,,,,,,,,,,,,,,,,,,,,,,,,,,,,,,,,,,,,,,,,,,,,,,,,,,,,,,,,,,,,,,,,,,,,,,,,,,,,,,,,,,,,,,,,,,,,,,,,,,,,,,,,,,,,
,,,,,,60708e12f67240319e438e04,62bbf9f1e61a9153e4d8e9be,2022-06-29_09h06.57.174,Colour_Asymmetry_Pilot,2022.1.3,Win32,60.06366749,62bbe60bf3d75ef465d3e404,0,83,83,120,1,onetwo,,,,,,,,,,,,,,,,,,,,,,,,,,,,,,,,,,,,,,,,,,,,,,,,,,,,,,,,,,,,,,,,,,,,,,,,,,,,,,,,,,,,,,,,,,,,,,,,,,,,,,,,,,,,,,,,,,,,,,,,,,,,,,,,,,,,,,,,,,,,,,,,,,,,,,,,
,,,,,,60708e12f67240319e438e04,62bbf9f1e61a9153e4d8e9be,2022-06-29_09h06.57.174,Colour_Asymmetry_Pilot,2022.1.3,Win32,60.06366749,62bbe60bf3d75ef465d3e404,0,84,84,150,1,fourtwo,,,,,,,,,,,,,,,,,,,,,,,,,,,,,,,,,,,,,,,,,,,,,,,,,,,,,,,,,,,,,,,,,,,,,,,,,,,,,,,,,,,,,,,,,,,,,,,,,,,,,,,,,,,,,,,,,,,,,,,,,,,,,,,,,,,,,,,,,,,,,,,,,,,,,,,,
,,,,,,60708e12f67240319e438e04,62bbf9f1e61a9153e4d8e9be,2022-06-29_09h06.57.174,Colour_Asymmetry_Pilot,2022.1.3,Win32,60.06366749,62bbe60bf3d75ef465d3e404,0,85,85,86,1,fourtwo,,,,,,,,,,,,,,,,,,,,,,,,,,,,,,,,,,,,,,,,,,,,,,,,,,,,,,,,,,,,,,,,,,,,,,,,,,,,,,,,,,,,,,,,,,,,,,,,,,,,,,,,,,,,,,,,,,,,,,,,,,,,,,,,,,,,,,,,,,,,,,,,,,,,,,,,
,,,,,,60708e12f67240319e438e04,62bbf9f1e61a9153e4d8e9be,2022-06-29_09h06.57.174,Colour_Asymmetry_Pilot,2022.1.3,Win32,60.06366749,62bbe60bf3d75ef465d3e404,0,86,86,157,1,threefour,,,,,,,,,,,,,,,,,,,,,,,,,,,,,,,,,,,,,,,,,,,,,,,,,,,,,,,,,,,,,,,,,,,,,,,,,,,,,,,,,,,,,,,,,,,,,,,,,,,,,,,,,,,,,,,,,,,,,,,,,,,,,,,,,,,,,,,,,,,,,,,,,,,,,,,,
,,,,,,60708e12f67240319e438e04,62bbf9f1e61a9153e4d8e9be,2022-06-29_09h06.57.174,Colour_Asymmetry_Pilot,2022.1.3,Win32,60.06366749,62bbe60bf3d75ef465d3e404,0,87,87,128,1,onetwo,,,,,,,,,,,,,,,,,,,,,,,,,,,,,,,,,,,,,,,,,,,,,,,,,,,,,,,,,,,,,,,,,,,,,,,,,,,,,,,,,,,,,,,,,,,,,,,,,,,,,,,,,,,,,,,,,,,,,,,,,,,,,,,,,,,,,,,,,,,,,,,,,,,,,,,,
,,,,,,60708e12f67240319e438e04,62bbf9f1e61a9153e4d8e9be,2022-06-29_09h06.57.174,Colour_Asymmetry_Pilot,2022.1.3,Win32,60.06366749,62bbe60bf3d75ef465d3e404,0,88,88,151,1,fourthree,,,,,,,,,,,,,,,,,,,,,,,,,,,,,,,,,,,,,,,,,,,,,,,,,,,,,,,,,,,,,,,,,,,,,,,,,,,,,,,,,,,,,,,,,,,,,,,,,,,,,,,,,,,,,,,,,,,,,,,,,,,,,,,,,,,,,,,,,,,,,,,,,,,,,,,,
,,,,,,60708e12f67240319e438e04,62bbf9f1e61a9153e4d8e9be,2022-06-29_09h06.57.174,Colour_Asymmetry_Pilot,2022.1.3,Win32,60.06366749,62bbe60bf3d75ef465d3e404,0,89,89,1,1,onethree,,,,,,,,,,,,,,,,,,,,,,,,,,,,,,,,,,,,,,,,,,,,,,,,,,,,,,,,,,,,,,,,,,,,,,,,,,,,,,,,,,,,,,,,,,,,,,,,,,,,,,,,,,,,,,,,,,,,,,,,,,,,,,,,,,,,,,,,,,,,,,,,,,,,,,,,
,,,,,,60708e12f67240319e438e04,62bbf9f1e61a9153e4d8e9be,2022-06-29_09h06.57.174,Colour_Asymmetry_Pilot,2022.1.3,Win32,60.06366749,62bbe60bf3d75ef465d3e404,0,90,90,45,1,threefour,,,,,,,,,,,,,,,,,,,,,,,,,,,,,,,,,,,,,,,,,,,,,,,,,,,,,,,,,,,,,,,,,,,,,,,,,,,,,,,,,,,,,,,,,,,,,,,,,,,,,,,,,,,,,,,,,,,,,,,,,,,,,,,,,,,,,,,,,,,,,,,,,,,,,,,,
,,,,,,60708e12f67240319e438e04,62bbf9f1e61a9153e4d8e9be,2022-06-29_09h06.57.174,Colour_Asymmetry_Pilot,2022.1.3,Win32,60.06366749,62bbe60bf3d75ef465d3e404,0,91,91,127,1,fourthree,,,,,,,,,,,,,,,,,,,,,,,,,,,,,,,,,,,,,,,,,,,,,,,,,,,,,,,,,,,,,,,,,,,,,,,,,,,,,,,,,,,,,,,,,,,,,,,,,,,,,,,,,,,,,,,,,,,,,,,,,,,,,,,,,,,,,,,,,,,,,,,,,,,,,,,,
,,,,,,60708e12f67240319e438e04,62bbf9f1e61a9153e4d8e9be,2022-06-29_09h06.57.174,Colour_Asymmetry_Pilot,2022.1.3,Win32,60.06366749,62bbe60bf3d75ef465d3e404,0,92,92,87,1,fourthree,,,,,,,,,,,,,,,,,,,,,,,,,,,,,,,,,,,,,,,,,,,,,,,,,,,,,,,,,,,,,,,,,,,,,,,,,,,,,,,,,,,,,,,,,,,,,,,,,,,,,,,,,,,,,,,,,,,,,,,,,,,,,,,,,,,,,,,,,,,,,,,,,,,,,,,,
,,,,,,60708e12f67240319e438e04,62bbf9f1e61a9153e4d8e9be,2022-06-29_09h06.57.174,Colour_Asymmetry_Pilot,2022.1.3,Win32,60.06366749,62bbe60bf3d75ef465d3e404,0,93,93,105,1,onethree,,,,,,,,,,,,,,,,,,,,,,,,,,,,,,,,,,,,,,,,,,,,,,,,,,,,,,,,,,,,,,,,,,,,,,,,,,,,,,,,,,,,,,,,,,,,,,,,,,,,,,,,,,,,,,,,,,,,,,,,,,,,,,,,,,,,,,,,,,,,,,,,,,,,,,,,
,,,,,,60708e12f67240319e438e04,62bbf9f1e61a9153e4d8e9be,2022-06-29_09h06.57.174,Colour_Asymmetry_Pilot,2022.1.3,Win32,60.06366749,62bbe60bf3d75ef465d3e404,0,94,94,115,1,twofour,,,,,,,,,,,,,,,,,,,,,,,,,,,,,,,,,,,,,,,,,,,,,,,,,,,,,,,,,,,,,,,,,,,,,,,,,,,,,,,,,,,,,,,,,,,,,,,,,,,,,,,,,,,,,,,,,,,,,,,,,,,,,,,,,,,,,,,,,,,,,,,,,,,,,,,,
,,,,,,60708e12f67240319e438e04,62bbf9f1e61a9153e4d8e9be,2022-06-29_09h06.57.174,Colour_Asymmetry_Pilot,2022.1.3,Win32,60.06366749,62bbe60bf3d75ef465d3e404,0,95,95,107,1,twofour,,,,,,,,,,,,,,,,,,,,,,,,,,,,,,,,,,,,,,,,,,,,,,,,,,,,,,,,,,,,,,,,,,,,,,,,,,,,,,,,,,,,,,,,,,,,,,,,,,,,,,,,,,,,,,,,,,,,,,,,,,,,,,,,,,,,,,,,,,,,,,,,,,,,,,,,
,,,,,,60708e12f67240319e438e04,62bbf9f1e61a9153e4d8e9be,2022-06-29_09h06.57.174,Colour_Asymmetry_Pilot,2022.1.3,Win32,60.06366749,62bbe60bf3d75ef465d3e404,0,96,96,68,1,threeone,,,,,,,,,,,,,,,,,,,,,,,,,,,,,,,,,,,,,,,,,,,,,,,,,,,,,,,,,,,,,,,,,,,,,,,,,,,,,,,,,,,,,,,,,,,,,,,,,,,,,,,,,,,,,,,,,,,,,,,,,,,,,,,,,,,,,,,,,,,,,,,,,,,,,,,,
,,,,,,60708e12f67240319e438e04,62bbf9f1e61a9153e4d8e9be,2022-06-29_09h06.57.174,Colour_Asymmetry_Pilot,2022.1.3,Win32,60.06366749,62bbe60bf3d75ef465d3e404,0,97,97,118,1,fourtwo,,,,,,,,,,,,,,,,,,,,,,,,,,,,,,,,,,,,,,,,,,,,,,,,,,,,,,,,,,,,,,,,,,,,,,,,,,,,,,,,,,,,,,,,,,,,,,,,,,,,,,,,,,,,,,,,,,,,,,,,,,,,,,,,,,,,,,,,,,,,,,,,,,,,,,,,
,,,,,,60708e12f67240319e438e04,62bbf9f1e61a9153e4d8e9be,2022-06-29_09h06.57.174,Colour_Asymmetry_Pilot,2022.1.3,Win32,60.06366749,62bbe60bf3d75ef465d3e404,0,98,98,20,1,threeone,,,,,,,,,,,,,,,,,,,,,,,,,,,,,,,,,,,,,,,,,,,,,,,,,,,,,,,,,,,,,,,,,,,,,,,,,,,,,,,,,,,,,,,,,,,,,,,,,,,,,,,,,,,,,,,,,,,,,,,,,,,,,,,,,,,,,,,,,,,,,,,,,,,,,,,,
,,,,,,60708e12f67240319e438e04,62bbf9f1e61a9153e4d8e9be,2022-06-29_09h06.57.174,Colour_Asymmetry_Pilot,2022.1.3,Win32,60.06366749,62bbe60bf3d75ef465d3e404,0,99,99,155,1,twofour,,,,,,,,,,,,,,,,,,,,,,,,,,,,,,,,,,,,,,,,,,,,,,,,,,,,,,,,,,,,,,,,,,,,,,,,,,,,,,,,,,,,,,,,,,,,,,,,,,,,,,,,,,,,,,,,,,,,,,,,,,,,,,,,,,,,,,,,,,,,,,,,,,,,,,,,
,,,,,,60708e12f67240319e438e04,62bbf9f1e61a9153e4d8e9be,2022-06-29_09h06.57.174,Colour_Asymmetry_Pilot,2022.1.3,Win32,60.06366749,62bbe60bf3d75ef465d3e404,0,100,100,28,1,threeone,,,,,,,,,,,,,,,,,,,,,,,,,,,,,,,,,,,,,,,,,,,,,,,,,,,,,,,,,,,,,,,,,,,,,,,,,,,,,,,,,,,,,,,,,,,,,,,,,,,,,,,,,,,,,,,,,,,,,,,,,,,,,,,,,,,,,,,,,,,,,,,,,,,,,,,,
,,,,,,60708e12f67240319e438e04,62bbf9f1e61a9153e4d8e9be,2022-06-29_09h06.57.174,Colour_Asymmetry_Pilot,2022.1.3,Win32,60.06366749,62bbe60bf3d75ef465d3e404,0,101,101,53,1,threefour,,,,,,,,,,,,,,,,,,,,,,,,,,,,,,,,,,,,,,,,,,,,,,,,,,,,,,,,,,,,,,,,,,,,,,,,,,,,,,,,,,,,,,,,,,,,,,,,,,,,,,,,,,,,,,,,,,,,,,,,,,,,,,,,,,,,,,,,,,,,,,,,,,,,,,,,
,,,,,,60708e12f67240319e438e04,62bbf9f1e61a9153e4d8e9be,2022-06-29_09h06.57.174,Colour_Asymmetry_Pilot,2022.1.3,Win32,60.06366749,62bbe60bf3d75ef465d3e404,0,102,102,5,1,threefour,,,,,,,,,,,,,,,,,,,,,,,,,,,,,,,,,,,,,,,,,,,,,,,,,,,,,,,,,,,,,,,,,,,,,,,,,,,,,,,,,,,,,,,,,,,,,,,,,,,,,,,,,,,,,,,,,,,,,,,,,,,,,,,,,,,,,,,,,,,,,,,,,,,,,,,,
,,,,,,60708e12f67240319e438e04,62bbf9f1e61a9153e4d8e9be,2022-06-29_09h06.57.174,Colour_Asymmetry_Pilot,2022.1.3,Win32,60.06366749,62bbe60bf3d75ef465d3e404,0,103,103,30,1,fourtwo,,,,,,,,,,,,,,,,,,,,,,,,,,,,,,,,,,,,,,,,,,,,,,,,,,,,,,,,,,,,,,,,,,,,,,,,,,,,,,,,,,,,,,,,,,,,,,,,,,,,,,,,,,,,,,,,,,,,,,,,,,,,,,,,,,,,,,,,,,,,,,,,,,,,,,,,
,,,,,,60708e12f67240319e438e04,62bbf9f1e61a9153e4d8e9be,2022-06-29_09h06.57.174,Colour_Asymmetry_Pilot,2022.1.3,Win32,60.06366749,62bbe60bf3d75ef465d3e404,0,104,104,13,1,threefour,,,,,,,,,,,,,,,,,,,,,,,,,,,,,,,,,,,,,,,,,,,,,,,,,,,,,,,,,,,,,,,,,,,,,,,,,,,,,,,,,,,,,,,,,,,,,,,,,,,,,,,,,,,,,,,,,,,,,,,,,,,,,,,,,,,,,,,,,,,,,,,,,,,,,,,,
,,,,,,60708e12f67240319e438e04,62bbf9f1e61a9153e4d8e9be,2022-06-29_09h06.57.174,Colour_Asymmetry_Pilot,2022.1.3,Win32,60.06366749,62bbe60bf3d75ef465d3e404,0,105,105,93,1,threefour,,,,,,,,,,,,,,,,,,,,,,,,,,,,,,,,,,,,,,,,,,,,,,,,,,,,,,,,,,,,,,,,,,,,,,,,,,,,,,,,,,,,,,,,,,,,,,,,,,,,,,,,,,,,,,,,,,,,,,,,,,,,,,,,,,,,,,,,,,,,,,,,,,,,,,,,
,,,,,,60708e12f67240319e438e04,62bbf9f1e61a9153e4d8e9be,2022-06-29_09h06.57.174,Colour_Asymmetry_Pilot,2022.1.3,Win32,60.06366749,62bbe60bf3d75ef465d3e404,0,106,106,25,1,onethree,,,,,,,,,,,,,,,,,,,,,,,,,,,,,,,,,,,,,,,,,,,,,,,,,,,,,,,,,,,,,,,,,,,,,,,,,,,,,,,,,,,,,,,,,,,,,,,,,,,,,,,,,,,,,,,,,,,,,,,,,,,,,,,,,,,,,,,,,,,,,,,,,,,,,,,,
,,,,,,60708e12f67240319e438e04,62bbf9f1e61a9153e4d8e9be,2022-06-29_09h06.57.174,Colour_Asymmetry_Pilot,2022.1.3,Win32,60.06366749,62bbe60bf3d75ef465d3e404,0,107,107,99,1,twofour,,,,,,,,,,,,,,,,,,,,,,,,,,,,,,,,,,,,,,,,,,,,,,,,,,,,,,,,,,,,,,,,,,,,,,,,,,,,,,,,,,,,,,,,,,,,,,,,,,,,,,,,,,,,,,,,,,,,,,,,,,,,,,,,,,,,,,,,,,,,,,,,,,,,,,,,
,,,,,,60708e12f67240319e438e04,62bbf9f1e61a9153e4d8e9be,2022-06-29_09h06.57.174,Colour_Asymmetry_Pilot,2022.1.3,Win32,60.06366749,62bbe60bf3d75ef465d3e404,0,108,108,121,1,onethree,,,,,,,,,,,,,,,,,,,,,,,,,,,,,,,,,,,,,,,,,,,,,,,,,,,,,,,,,,,,,,,,,,,,,,,,,,,,,,,,,,,,,,,,,,,,,,,,,,,,,,,,,,,,,,,,,,,,,,,,,,,,,,,,,,,,,,,,,,,,,,,,,,,,,,,,
,,,,,,60708e12f67240319e438e04,62bbf9f1e61a9153e4d8e9be,2022-06-29_09h06.57.174,Colour_Asymmetry_Pilot,2022.1.3,Win32,60.06366749,62bbe60bf3d75ef465d3e404,0,109,109,3,1,twofour,,,,,,,,,,,,,,,,,,,,,,,,,,,,,,,,,,,,,,,,,,,,,,,,,,,,,,,,,,,,,,,,,,,,,,,,,,,,,,,,,,,,,,,,,,,,,,,,,,,,,,,,,,,,,,,,,,,,,,,,,,,,,,,,,,,,,,,,,,,,,,,,,,,,,,,,
,,,,,,60708e12f67240319e438e04,62bbf9f1e61a9153e4d8e9be,2022-06-29_09h06.57.174,Colour_Asymmetry_Pilot,2022.1.3,Win32,60.06366749,62bbe60bf3d75ef465d3e404,0,110,110,14,1,fourtwo,,,,,,,,,,,,,,,,,,,,,,,,,,,,,,,,,,,,,,,,,,,,,,,,,,,,,,,,,,,,,,,,,,,,,,,,,,,,,,,,,,,,,,,,,,,,,,,,,,,,,,,,,,,,,,,,,,,,,,,,,,,,,,,,,,,,,,,,,,,,,,,,,,,,,,,,
,,,,,,60708e12f67240319e438e04,62bbf9f1e61a9153e4d8e9be,2022-06-29_09h06.57.174,Colour_Asymmetry_Pilot,2022.1.3,Win32,60.06366749,62bbe60bf3d75ef465d3e404,0,111,111,82,1,twoone,,,,,,,,,,,,,,,,,,,,,,,,,,,,,,,,,,,,,,,,,,,,,,,,,,,,,,,,,,,,,,,,,,,,,,,,,,,,,,,,,,,,,,,,,,,,,,,,,,,,,,,,,,,,,,,,,,,,,,,,,,,,,,,,,,,,,,,,,,,,,,,,,,,,,,,,
,,,,,,60708e12f67240319e438e04,62bbf9f1e61a9153e4d8e9be,2022-06-29_09h06.57.174,Colour_Asymmetry_Pilot,2022.1.3,Win32,60.06366749,62bbe60bf3d75ef465d3e404,0,112,112,142,1,fourtwo,,,,,,,,,,,,,,,,,,,,,,,,,,,,,,,,,,,,,,,,,,,,,,,,,,,,,,,,,,,,,,,,,,,,,,,,,,,,,,,,,,,,,,,,,,,,,,,,,,,,,,,,,,,,,,,,,,,,,,,,,,,,,,,,,,,,,,,,,,,,,,,,,,,,,,,,
,,,,,,60708e12f67240319e438e04,62bbf9f1e61a9153e4d8e9be,2022-06-29_09h06.57.174,Colour_Asymmetry_Pilot,2022.1.3,Win32,60.06366749,62bbe60bf3d75ef465d3e404,0,113,113,91,1,twofour,,,,,,,,,,,,,,,,,,,,,,,,,,,,,,,,,,,,,,,,,,,,,,,,,,,,,,,,,,,,,,,,,,,,,,,,,,,,,,,,,,,,,,,,,,,,,,,,,,,,,,,,,,,,,,,,,,,,,,,,,,,,,,,,,,,,,,,,,,,,,,,,,,,,,,,,
,,,,,,60708e12f67240319e438e04,62bbf9f1e61a9153e4d8e9be,2022-06-29_09h06.57.174,Colour_Asymmetry_Pilot,2022.1.3,Win32,60.06366749,62bbe60bf3d75ef465d3e404,0,114,114,137,1,onethree,,,,,,,,,,,,,,,,,,,,,,,,,,,,,,,,,,,,,,,,,,,,,,,,,,,,,,,,,,,,,,,,,,,,,,,,,,,,,,,,,,,,,,,,,,,,,,,,,,,,,,,,,,,,,,,,,,,,,,,,,,,,,,,,,,,,,,,,,,,,,,,,,,,,,,,,
,,,,,,60708e12f67240319e438e04,62bbf9f1e61a9153e4d8e9be,2022-06-29_09h06.57.174,Colour_Asymmetry_Pilot,2022.1.3,Win32,60.06366749,62bbe60bf3d75ef465d3e404,0,115,115,134,1,fourtwo,,,,,,,,,,,,,,,,,,,,,,,,,,,,,,,,,,,,,,,,,,,,,,,,,,,,,,,,,,,,,,,,,,,,,,,,,,,,,,,,,,,,,,,,,,,,,,,,,,,,,,,,,,,,,,,,,,,,,,,,,,,,,,,,,,,,,,,,,,,,,,,,,,,,,,,,
,,,,,,60708e12f67240319e438e04,62bbf9f1e61a9153e4d8e9be,2022-06-29_09h06.57.174,Colour_Asymmetry_Pilot,2022.1.3,Win32,60.06366749,62bbe60bf3d75ef465d3e404,0,116,116,85,1,threefour,,,,,,,,,,,,,,,,,,,,,,,,,,,,,,,,,,,,,,,,,,,,,,,,,,,,,,,,,,,,,,,,,,,,,,,,,,,,,,,,,,,,,,,,,,,,,,,,,,,,,,,,,,,,,,,,,,,,,,,,,,,,,,,,,,,,,,,,,,,,,,,,,,,,,,,,
,,,,,,60708e12f67240319e438e04,62bbf9f1e61a9153e4d8e9be,2022-06-29_09h06.57.174,Colour_Asymmetry_Pilot,2022.1.3,Win32,60.06366749,62bbe60bf3d75ef465d3e404,0,117,117,58,1,twoone,,,,,,,,,,,,,,,,,,,,,,,,,,,,,,,,,,,,,,,,,,,,,,,,,,,,,,,,,,,,,,,,,,,,,,,,,,,,,,,,,,,,,,,,,,,,,,,,,,,,,,,,,,,,,,,,,,,,,,,,,,,,,,,,,,,,,,,,,,,,,,,,,,,,,,,,
,,,,,,60708e12f67240319e438e04,62bbf9f1e61a9153e4d8e9be,2022-06-29_09h06.57.174,Colour_Asymmetry_Pilot,2022.1.3,Win32,60.06366749,62bbe60bf3d75ef465d3e404,0,118,118,64,1,onetwo,,,,,,,,,,,,,,,,,,,,,,,,,,,,,,,,,,,,,,,,,,,,,,,,,,,,,,,,,,,,,,,,,,,,,,,,,,,,,,,,,,,,,,,,,,,,,,,,,,,,,,,,,,,,,,,,,,,,,,,,,,,,,,,,,,,,,,,,,,,,,,,,,,,,,,,,
,,,,,,60708e12f67240319e438e04,62bbf9f1e61a9153e4d8e9be,2022-06-29_09h06.57.174,Colour_Asymmetry_Pilot,2022.1.3,Win32,60.06366749,62bbe60bf3d75ef465d3e404,0,119,119,117,1,threefour,,,,,,,,,,,,,,,,,,,,,,,,,,,,,,,,,,,,,,,,,,,,,,,,,,,,,,,,,,,,,,,,,,,,,,,,,,,,,,,,,,,,,,,,,,,,,,,,,,,,,,,,,,,,,,,,,,,,,,,,,,,,,,,,,,,,,,,,,,,,,,,,,,,,,,,,
,,,,,,60708e12f67240319e438e04,62bbf9f1e61a9153e4d8e9be,2022-06-29_09h06.57.174,Colour_Asymmetry_Pilot,2022.1.3,Win32,60.06366749,62bbe60bf3d75ef465d3e404,0,120,120,6,1,fourtwo,,,,,,,,,,,,,,,,,,,,,,,,,,,,,,,,,,,,,,,,,,,,,,,,,,,,,,,,,,,,,,,,,,,,,,,,,,,,,,,,,,,,,,,,,,,,,,,,,,,,,,,,,,,,,,,,,,,,,,,,,,,,,,,,,,,,,,,,,,,,,,,,,,,,,,,,
,,,,,,60708e12f67240319e438e04,62bbf9f1e61a9153e4d8e9be,2022-06-29_09h06.57.174,Colour_Asymmetry_Pilot,2022.1.3,Win32,60.06366749,62bbe60bf3d75ef465d3e404,0,121,121,18,1,twoone,,,,,,,,,,,,,,,,,,,,,,,,,,,,,,,,,,,,,,,,,,,,,,,,,,,,,,,,,,,,,,,,,,,,,,,,,,,,,,,,,,,,,,,,,,,,,,,,,,,,,,,,,,,,,,,,,,,,,,,,,,,,,,,,,,,,,,,,,,,,,,,,,,,,,,,,
,,,,,,60708e12f67240319e438e04,62bbf9f1e61a9153e4d8e9be,2022-06-29_09h06.57.174,Colour_Asymmetry_Pilot,2022.1.3,Win32,60.06366749,62bbe60bf3d75ef465d3e404,0,122,122,40,1,onetwo,,,,,,,,,,,,,,,,,,,,,,,,,,,,,,,,,,,,,,,,,,,,,,,,,,,,,,,,,,,,,,,,,,,,,,,,,,,,,,,,,,,,,,,,,,,,,,,,,,,,,,,,,,,,,,,,,,,,,,,,,,,,,,,,,,,,,,,,,,,,,,,,,,,,,,,,
,,,,,,60708e12f67240319e438e04,62bbf9f1e61a9153e4d8e9be,2022-06-29_09h06.57.174,Colour_Asymmetry_Pilot,2022.1.3,Win32,60.06366749,62bbe60bf3d75ef465d3e404,0,123,123,70,1,fourtwo,,,,,,,,,,,,,,,,,,,,,,,,,,,,,,,,,,,,,,,,,,,,,,,,,,,,,,,,,,,,,,,,,,,,,,,,,,,,,,,,,,,,,,,,,,,,,,,,,,,,,,,,,,,,,,,,,,,,,,,,,,,,,,,,,,,,,,,,,,,,,,,,,,,,,,,,
,,,,,,60708e12f67240319e438e04,62bbf9f1e61a9153e4d8e9be,2022-06-29_09h06.57.174,Colour_Asymmetry_Pilot,2022.1.3,Win32,60.06366749,62bbe60bf3d75ef465d3e404,0,124,124,111,1,fourthree,,,,,,,,,,,,,,,,,,,,,,,,,,,,,,,,,,,,,,,,,,,,,,,,,,,,,,,,,,,,,,,,,,,,,,,,,,,,,,,,,,,,,,,,,,,,,,,,,,,,,,,,,,,,,,,,,,,,,,,,,,,,,,,,,,,,,,,,,,,,,,,,,,,,,,,,
,,,,,,60708e12f67240319e438e04,62bbf9f1e61a9153e4d8e9be,2022-06-29_09h06.57.174,Colour_Asymmetry_Pilot,2022.1.3,Win32,60.06366749,62bbe60bf3d75ef465d3e404,0,125,125,133,1,threefour,,,,,,,,,,,,,,,,,,,,,,,,,,,,,,,,,,,,,,,,,,,,,,,,,,,,,,,,,,,,,,,,,,,,,,,,,,,,,,,,,,,,,,,,,,,,,,,,,,,,,,,,,,,,,,,,,,,,,,,,,,,,,,,,,,,,,,,,,,,,,,,,,,,,,,,,
,,,,,,60708e12f67240319e438e04,62bbf9f1e61a9153e4d8e9be,2022-06-29_09h06.57.174,Colour_Asymmetry_Pilot,2022.1.3,Win32,60.06366749,62bbe60bf3d75ef465d3e404,0,126,126,26,1,twoone,,,,,,,,,,,,,,,,,,,,,,,,,,,,,,,,,,,,,,,,,,,,,,,,,,,,,,,,,,,,,,,,,,,,,,,,,,,,,,,,,,,,,,,,,,,,,,,,,,,,,,,,,,,,,,,,,,,,,,,,,,,,,,,,,,,,,,,,,,,,,,,,,,,,,,,,
,,,,,,60708e12f67240319e438e04,62bbf9f1e61a9153e4d8e9be,2022-06-29_09h06.57.174,Colour_Asymmetry_Pilot,2022.1.3,Win32,60.06366749,62bbe60bf3d75ef465d3e404,0,127,127,21,1,threefour,,,,,,,,,,,,,,,,,,,,,,,,,,,,,,,,,,,,,,,,,,,,,,,,,,,,,,,,,,,,,,,,,,,,,,,,,,,,,,,,,,,,,,,,,,,,,,,,,,,,,,,,,,,,,,,,,,,,,,,,,,,,,,,,,,,,,,,,,,,,,,,,,,,,,,,,
,,,,,,60708e12f67240319e438e04,62bbf9f1e61a9153e4d8e9be,2022-06-29_09h06.57.174,Colour_Asymmetry_Pilot,2022.1.3,Win32,60.06366749,62bbe60bf3d75ef465d3e404,0,128,128,158,1,fourtwo,,,,,,,,,,,,,,,,,,,,,,,,,,,,,,,,,,,,,,,,,,,,,,,,,,,,,,,,,,,,,,,,,,,,,,,,,,,,,,,,,,,,,,,,,,,,,,,,,,,,,,,,,,,,,,,,,,,,,,,,,,,,,,,,,,,,,,,,,,,,,,,,,,,,,,,,
,,,,,,60708e12f67240319e438e04,62bbf9f1e61a9153e4d8e9be,2022-06-29_09h06.57.174,Colour_Asymmetry_Pilot,2022.1.3,Win32,60.06366749,62bbe60bf3d75ef465d3e404,0,129,129,129,1,onethree,,,,,,,,,,,,,,,,,,,,,,,,,,,,,,,,,,,,,,,,,,,,,,,,,,,,,,,,,,,,,,,,,,,,,,,,,,,,,,,,,,,,,,,,,,,,,,,,,,,,,,,,,,,,,,,,,,,,,,,,,,,,,,,,,,,,,,,,,,,,,,,,,,,,,,,,
,,,,,,60708e12f67240319e438e04,62bbf9f1e61a9153e4d8e9be,2022-06-29_09h06.57.174,Colour_Asymmetry_Pilot,2022.1.3,Win32,60.06366749,62bbe60bf3d75ef465d3e404,0,130,130,2,1,twoone,,,,,,,,,,,,,,,,,,,,,,,,,,,,,,,,,,,,,,,,,,,,,,,,,,,,,,,,,,,,,,,,,,,,,,,,,,,,,,,,,,,,,,,,,,,,,,,,,,,,,,,,,,,,,,,,,,,,,,,,,,,,,,,,,,,,,,,,,,,,,,,,,,,,,,,,
,,,,,,60708e12f67240319e438e04,62bbf9f1e61a9153e4d8e9be,2022-06-29_09h06.57.174,Colour_Asymmetry_Pilot,2022.1.3,Win32,60.06366749,62bbe60bf3d75ef465d3e404,0,131,131,84,1,threeone,,,,,,,,,,,,,,,,,,,,,,,,,,,,,,,,,,,,,,,,,,,,,,,,,,,,,,,,,,,,,,,,,,,,,,,,,,,,,,,,,,,,,,,,,,,,,,,,,,,,,,,,,,,,,,,,,,,,,,,,,,,,,,,,,,,,,,,,,,,,,,,,,,,,,,,,
,,,,,,60708e12f67240319e438e04,62bbf9f1e61a9153e4d8e9be,2022-06-29_09h06.57.174,Colour_Asymmetry_Pilot,2022.1.3,Win32,60.06366749,62bbe60bf3d75ef465d3e404,0,132,132,144,1,onetwo,,,,,,,,,,,,,,,,,,,,,,,,,,,,,,,,,,,,,,,,,,,,,,,,,,,,,,,,,,,,,,,,,,,,,,,,,,,,,,,,,,,,,,,,,,,,,,,,,,,,,,,,,,,,,,,,,,,,,,,,,,,,,,,,,,,,,,,,,,,,,,,,,,,,,,,,
,,,,,,60708e12f67240319e438e04,62bbf9f1e61a9153e4d8e9be,2022-06-29_09h06.57.174,Colour_Asymmetry_Pilot,2022.1.3,Win32,60.06366749,62bbe60bf3d75ef465d3e404,0,133,133,79,1,fourthree,,,,,,,,,,,,,,,,,,,,,,,,,,,,,,,,,,,,,,,,,,,,,,,,,,,,,,,,,,,,,,,,,,,,,,,,,,,,,,,,,,,,,,,,,,,,,,,,,,,,,,,,,,,,,,,,,,,,,,,,,,,,,,,,,,,,,,,,,,,,,,,,,,,,,,,,
,,,,,,60708e12f67240319e438e04,62bbf9f1e61a9153e4d8e9be,2022-06-29_09h06.57.174,Colour_Asymmetry_Pilot,2022.1.3,Win32,60.06366749,62bbe60bf3d75ef465d3e404,0,134,134,125,1,threefour,,,,,,,,,,,,,,,,,,,,,,,,,,,,,,,,,,,,,,,,,,,,,,,,,,,,,,,,,,,,,,,,,,,,,,,,,,,,,,,,,,,,,,,,,,,,,,,,,,,,,,,,,,,,,,,,,,,,,,,,,,,,,,,,,,,,,,,,,,,,,,,,,,,,,,,,
,,,,,,60708e12f67240319e438e04,62bbf9f1e61a9153e4d8e9be,2022-06-29_09h06.57.174,Colour_Asymmetry_Pilot,2022.1.3,Win32,60.06366749,62bbe60bf3d75ef465d3e404,0,135,135,104,1,onetwo,,,,,,,,,,,,,,,,,,,,,,,,,,,,,,,,,,,,,,,,,,,,,,,,,,,,,,,,,,,,,,,,,,,,,,,,,,,,,,,,,,,,,,,,,,,,,,,,,,,,,,,,,,,,,,,,,,,,,,,,,,,,,,,,,,,,,,,,,,,,,,,,,,,,,,,,
,,,,,,60708e12f67240319e438e04,62bbf9f1e61a9153e4d8e9be,2022-06-29_09h06.57.174,Colour_Asymmetry_Pilot,2022.1.3,Win32,60.06366749,62bbe60bf3d75ef465d3e404,0,136,136,145,1,onethree,,,,,,,,,,,,,,,,,,,,,,,,,,,,,,,,,,,,,,,,,,,,,,,,,,,,,,,,,,,,,,,,,,,,,,,,,,,,,,,,,,,,,,,,,,,,,,,,,,,,,,,,,,,,,,,,,,,,,,,,,,,,,,,,,,,,,,,,,,,,,,,,,,,,,,,,
,,,,,,60708e12f67240319e438e04,62bbf9f1e61a9153e4d8e9be,2022-06-29_09h06.57.174,Colour_Asymmetry_Pilot,2022.1.3,Win32,60.06366749,62bbe60bf3d75ef465d3e404,0,137,137,88,1,onetwo,,,,,,,,,,,,,,,,,,,,,,,,,,,,,,,,,,,,,,,,,,,,,,,,,,,,,,,,,,,,,,,,,,,,,,,,,,,,,,,,,,,,,,,,,,,,,,,,,,,,,,,,,,,,,,,,,,,,,,,,,,,,,,,,,,,,,,,,,,,,,,,,,,,,,,,,
,,,,,,60708e12f67240319e438e04,62bbf9f1e61a9153e4d8e9be,2022-06-29_09h06.57.174,Colour_Asymmetry_Pilot,2022.1.3,Win32,60.06366749,62bbe60bf3d75ef465d3e404,0,138,138,141,1,threefour,,,,,,,,,,,,,,,,,,,,,,,,,,,,,,,,,,,,,,,,,,,,,,,,,,,,,,,,,,,,,,,,,,,,,,,,,,,,,,,,,,,,,,,,,,,,,,,,,,,,,,,,,,,,,,,,,,,,,,,,,,,,,,,,,,,,,,,,,,,,,,,,,,,,,,,,
,,,,,,60708e12f67240319e438e04,62bbf9f1e61a9153e4d8e9be,2022-06-29_09h06.57.174,Colour_Asymmetry_Pilot,2022.1.3,Win32,60.06366749,62bbe60bf3d75ef465d3e404,0,139,139,156,1,threeone,,,,,,,,,,,,,,,,,,,,,,,,,,,,,,,,,,,,,,,,,,,,,,,,,,,,,,,,,,,,,,,,,,,,,,,,,,,,,,,,,,,,,,,,,,,,,,,,,,,,,,,,,,,,,,,,,,,,,,,,,,,,,,,,,,,,,,,,,,,,,,,,,,,,,,,,
,,,,,,60708e12f67240319e438e04,62bbf9f1e61a9153e4d8e9be,2022-06-29_09h06.57.174,Colour_Asymmetry_Pilot,2022.1.3,Win32,60.06366749,62bbe60bf3d75ef465d3e404,0,140,140,24,1,onetwo,,,,,,,,,,,,,,,,,,,,,,,,,,,,,,,,,,,,,,,,,,,,,,,,,,,,,,,,,,,,,,,,,,,,,,,,,,,,,,,,,,,,,,,,,,,,,,,,,,,,,,,,,,,,,,,,,,,,,,,,,,,,,,,,,,,,,,,,,,,,,,,,,,,,,,,,
,,,,,,60708e12f67240319e438e04,62bbf9f1e61a9153e4d8e9be,2022-06-29_09h06.57.174,Colour_Asymmetry_Pilot,2022.1.3,Win32,60.06366749,62bbe60bf3d75ef465d3e404,0,141,141,42,1,twoone,,,,,,,,,,,,,,,,,,,,,,,,,,,,,,,,,,,,,,,,,,,,,,,,,,,,,,,,,,,,,,,,,,,,,,,,,,,,,,,,,,,,,,,,,,,,,,,,,,,,,,,,,,,,,,,,,,,,,,,,,,,,,,,,,,,,,,,,,,,,,,,,,,,,,,,,
,,,,,,60708e12f67240319e438e04,62bbf9f1e61a9153e4d8e9be,2022-06-29_09h06.57.174,Colour_Asymmetry_Pilot,2022.1.3,Win32,60.06366749,62bbe60bf3d75ef465d3e404,0,142,142,77,1,threefour,,,,,,,,,,,,,,,,,,,,,,,,,,,,,,,,,,,,,,,,,,,,,,,,,,,,,,,,,,,,,,,,,,,,,,,,,,,,,,,,,,,,,,,,,,,,,,,,,,,,,,,,,,,,,,,,,,,,,,,,,,,,,,,,,,,,,,,,,,,,,,,,,,,,,,,,
,,,,,,60708e12f67240319e438e04,62bbf9f1e61a9153e4d8e9be,2022-06-29_09h06.57.174,Colour_Asymmetry_Pilot,2022.1.3,Win32,60.06366749,62bbe60bf3d75ef465d3e404,0,143,143,116,1,threeone,,,,,,,,,,,,,,,,,,,,,,,,,,,,,,,,,,,,,,,,,,,,,,,,,,,,,,,,,,,,,,,,,,,,,,,,,,,,,,,,,,,,,,,,,,,,,,,,,,,,,,,,,,,,,,,,,,,,,,,,,,,,,,,,,,,,,,,,,,,,,,,,,,,,,,,,
,,,,,,60708e12f67240319e438e04,62bbf9f1e61a9153e4d8e9be,2022-06-29_09h06.57.174,Colour_Asymmetry_Pilot,2022.1.3,Win32,60.06366749,62bbe60bf3d75ef465d3e404,0,144,144,27,1,twofour,,,,,,,,,,,,,,,,,,,,,,,,,,,,,,,,,,,,,,,,,,,,,,,,,,,,,,,,,,,,,,,,,,,,,,,,,,,,,,,,,,,,,,,,,,,,,,,,,,,,,,,,,,,,,,,,,,,,,,,,,,,,,,,,,,,,,,,,,,,,,,,,,,,,,,,,
,,,,,,60708e12f67240319e438e04,62bbf9f1e61a9153e4d8e9be,2022-06-29_09h06.57.174,Colour_Asymmetry_Pilot,2022.1.3,Win32,60.06366749,62bbe60bf3d75ef465d3e404,0,145,145,51,1,twofour,,,,,,,,,,,,,,,,,,,,,,,,,,,,,,,,,,,,,,,,,,,,,,,,,,,,,,,,,,,,,,,,,,,,,,,,,,,,,,,,,,,,,,,,,,,,,,,,,,,,,,,,,,,,,,,,,,,,,,,,,,,,,,,,,,,,,,,,,,,,,,,,,,,,,,,,
,,,,,,60708e12f67240319e438e04,62bbf9f1e61a9153e4d8e9be,2022-06-29_09h06.57.174,Colour_Asymmetry_Pilot,2022.1.3,Win32,60.06366749,62bbe60bf3d75ef465d3e404,0,146,146,62,1,fourtwo,,,,,,,,,,,,,,,,,,,,,,,,,,,,,,,,,,,,,,,,,,,,,,,,,,,,,,,,,,,,,,,,,,,,,,,,,,,,,,,,,,,,,,,,,,,,,,,,,,,,,,,,,,,,,,,,,,,,,,,,,,,,,,,,,,,,,,,,,,,,,,,,,,,,,,,,
,,,,,,60708e12f67240319e438e04,62bbf9f1e61a9153e4d8e9be,2022-06-29_09h06.57.174,Colour_Asymmetry_Pilot,2022.1.3,Win32,60.06366749,62bbe60bf3d75ef465d3e404,0,147,147,96,1,onetwo,,,,,,,,,,,,,,,,,,,,,,,,,,,,,,,,,,,,,,,,,,,,,,,,,,,,,,,,,,,,,,,,,,,,,,,,,,,,,,,,,,,,,,,,,,,,,,,,,,,,,,,,,,,,,,,,,,,,,,,,,,,,,,,,,,,,,,,,,,,,,,,,,,,,,,,,
,,,,,,60708e12f67240319e438e04,62bbf9f1e61a9153e4d8e9be,2022-06-29_09h06.57.174,Colour_Asymmetry_Pilot,2022.1.3,Win32,60.06366749,62bbe60bf3d75ef465d3e404,0,148,148,103,1,fourthree,,,,,,,,,,,,,,,,,,,,,,,,,,,,,,,,,,,,,,,,,,,,,,,,,,,,,,,,,,,,,,,,,,,,,,,,,,,,,,,,,,,,,,,,,,,,,,,,,,,,,,,,,,,,,,,,,,,,,,,,,,,,,,,,,,,,,,,,,,,,,,,,,,,,,,,,
,,,,,,60708e12f67240319e438e04,62bbf9f1e61a9153e4d8e9be,2022-06-29_09h06.57.174,Colour_Asymmetry_Pilot,2022.1.3,Win32,60.06366749,62bbe60bf3d75ef465d3e404,0,149,149,31,1,fourthree,,,,,,,,,,,,,,,,,,,,,,,,,,,,,,,,,,,,,,,,,,,,,,,,,,,,,,,,,,,,,,,,,,,,,,,,,,,,,,,,,,,,,,,,,,,,,,,,,,,,,,,,,,,,,,,,,,,,,,,,,,,,,,,,,,,,,,,,,,,,,,,,,,,,,,,,
,,,,,,60708e12f67240319e438e04,62bbf9f1e61a9153e4d8e9be,2022-06-29_09h06.57.174,Colour_Asymmetry_Pilot,2022.1.3,Win32,60.06366749,62bbe60bf3d75ef465d3e404,0,150,150,126,1,fourtwo,,,,,,,,,,,,,,,,,,,,,,,,,,,,,,,,,,,,,,,,,,,,,,,,,,,,,,,,,,,,,,,,,,,,,,,,,,,,,,,,,,,,,,,,,,,,,,,,,,,,,,,,,,,,,,,,,,,,,,,,,,,,,,,,,,,,,,,,,,,,,,,,,,,,,,,,
,,,,,,60708e12f67240319e438e04,62bbf9f1e61a9153e4d8e9be,2022-06-29_09h06.57.174,Colour_Asymmetry_Pilot,2022.1.3,Win32,60.06366749,62bbe60bf3d75ef465d3e404,0,151,151,97,1,onethree,,,,,,,,,,,,,,,,,,,,,,,,,,,,,,,,,,,,,,,,,,,,,,,,,,,,,,,,,,,,,,,,,,,,,,,,,,,,,,,,,,,,,,,,,,,,,,,,,,,,,,,,,,,,,,,,,,,,,,,,,,,,,,,,,,,,,,,,,,,,,,,,,,,,,,,,
,,,,,,60708e12f67240319e438e04,62bbf9f1e61a9153e4d8e9be,2022-06-29_09h06.57.174,Colour_Asymmetry_Pilot,2022.1.3,Win32,60.06366749,62bbe60bf3d75ef465d3e404,0,152,152,54,1,fourtwo,,,,,,,,,,,,,,,,,,,,,,,,,,,,,,,,,,,,,,,,,,,,,,,,,,,,,,,,,,,,,,,,,,,,,,,,,,,,,,,,,,,,,,,,,,,,,,,,,,,,,,,,,,,,,,,,,,,,,,,,,,,,,,,,,,,,,,,,,,,,,,,,,,,,,,,,
,,,,,,60708e12f67240319e438e04,62bbf9f1e61a9153e4d8e9be,2022-06-29_09h06.57.174,Colour_Asymmetry_Pilot,2022.1.3,Win32,60.06366749,62bbe60bf3d75ef465d3e404,0,153,153,83,1,twofour,,,,,,,,,,,,,,,,,,,,,,,,,,,,,,,,,,,,,,,,,,,,,,,,,,,,,,,,,,,,,,,,,,,,,,,,,,,,,,,,,,,,,,,,,,,,,,,,,,,,,,,,,,,,,,,,,,,,,,,,,,,,,,,,,,,,,,,,,,,,,,,,,,,,,,,,
,,,,,,60708e12f67240319e438e04,62bbf9f1e61a9153e4d8e9be,2022-06-29_09h06.57.174,Colour_Asymmetry_Pilot,2022.1.3,Win32,60.06366749,62bbe60bf3d75ef465d3e404,0,154,154,113,1,onethree,,,,,,,,,,,,,,,,,,,,,,,,,,,,,,,,,,,,,,,,,,,,,,,,,,,,,,,,,,,,,,,,,,,,,,,,,,,,,,,,,,,,,,,,,,,,,,,,,,,,,,,,,,,,,,,,,,,,,,,,,,,,,,,,,,,,,,,,,,,,,,,,,,,,,,,,
,,,,,,60708e12f67240319e438e04,62bbf9f1e61a9153e4d8e9be,2022-06-29_09h06.57.174,Colour_Asymmetry_Pilot,2022.1.3,Win32,60.06366749,62bbe60bf3d75ef465d3e404,0,155,155,148,1,threeone,,,,,,,,,,,,,,,,,,,,,,,,,,,,,,,,,,,,,,,,,,,,,,,,,,,,,,,,,,,,,,,,,,,,,,,,,,,,,,,,,,,,,,,,,,,,,,,,,,,,,,,,,,,,,,,,,,,,,,,,,,,,,,,,,,,,,,,,,,,,,,,,,,,,,,,,
,,,,,,60708e12f67240319e438e04,62bbf9f1e61a9153e4d8e9be,2022-06-29_09h06.57.174,Colour_Asymmetry_Pilot,2022.1.3,Win32,60.06366749,62bbe60bf3d75ef465d3e404,0,156,156,34,1,twoone,,,,,,,,,,,,,,,,,,,,,,,,,,,,,,,,,,,,,,,,,,,,,,,,,,,,,,,,,,,,,,,,,,,,,,,,,,,,,,,,,,,,,,,,,,,,,,,,,,,,,,,,,,,,,,,,,,,,,,,,,,,,,,,,,,,,,,,,,,,,,,,,,,,,,,,,
,,,,,,60708e12f67240319e438e04,62bbf9f1e61a9153e4d8e9be,2022-06-29_09h06.57.174,Colour_Asymmetry_Pilot,2022.1.3,Win32,60.06366749,62bbe60bf3d75ef465d3e404,0,157,157,106,1,twoone,,,,,,,,,,,,,,,,,,,,,,,,,,,,,,,,,,,,,,,,,,,,,,,,,,,,,,,,,,,,,,,,,,,,,,,,,,,,,,,,,,,,,,,,,,,,,,,,,,,,,,,,,,,,,,,,,,,,,,,,,,,,,,,,,,,,,,,,,,,,,,,,,,,,,,,,
,,,,,,60708e12f67240319e438e04,62bbf9f1e61a9153e4d8e9be,2022-06-29_09h06.57.174,Colour_Asymmetry_Pilot,2022.1.3,Win32,60.06366749,62bbe60bf3d75ef465d3e404,0,158,158,37,1,threefour,,,,,,,,,,,,,,,,,,,,,,,,,,,,,,,,,,,,,,,,,,,,,,,,,,,,,,,,,,,,,,,,,,,,,,,,,,,,,,,,,,,,,,,,,,,,,,,,,,,,,,,,,,,,,,,,,,,,,,,,,,,,,,,,,,,,,,,,,,,,,,,,,,,,,,,,
,,,,,,60708e12f67240319e438e04,62bbf9f1e61a9153e4d8e9be,2022-06-29_09h06.57.174,Colour_Asymmetry_Pilot,2022.1.3,Win32,60.06366749,62bbe60bf3d75ef465d3e404,0,159,159,76,1,threeone,,,,,,,,,,,,,,,,,,,,,,,,,,,,,,,,,,,,,,,,,,,,,,,,,,,,,,,,,,,,,,,,,,,,,,,,,,,,,,,,,,,,,,,,,,,,,,,,,,,,,,,,,,,,,,,,,,,,,,,,,,,,,,,,,,,,,,,,,,,,,,,,,,,,,,,,
,,,,,,60708e12f67240319e438e04,62bbf9f1e61a9153e4d8e9be,2022-06-29_09h06.57.174,Colour_Asymmetry_Pilot,2022.1.3,Win32,60.06366749,62bbe60bf3d75ef465d3e404,0,160,160,19,1,twofour,,,,,,,,,,,,,,,,,,,,,,,,,,,,,,,,,,,,,,,,,,,,,,,,,,,,,,,,,,,,,,,,,,,,,,,,,,,,,,,,,,,,,,,,,,,,,,,,,,,,,,,,,,,,,,,,,,,,,,,,,,,,,,,,,,,,,,,,,,,,,,,,,,,,,,,,
,,,,,,60708e12f67240319e438e04,62bbf9f1e61a9153e4d8e9be,2022-06-29_09h06.57.174,Colour_Asymmetry_Pilot,2022.1.3,Win32,60.06366749,62bbe60bf3d75ef465d3e404,0,161,161,102,1,fourtwo,,,,,,,,,,,,,,,,,,,,,,,,,,,,,,,,,,,,,,,,,,,,,,,,,,,,,,,,,,,,,,,,,,,,,,,,,,,,,,,,,,,,,,,,,,,,,,,,,,,,,,,,,,,,,,,,,,,,,,,,,,,,,,,,,,,,,,,,,,,,,,,,,,,,,,,,
,,,,,,60708e12f67240319e438e04,62bbf9f1e61a9153e4d8e9be,2022-06-29_09h06.57.174,Colour_Asymmetry_Pilot,2022.1.3,Win32,60.06366749,62bbe60bf3d75ef465d3e404,,,,,,,space,20.7005,space,30.2732,space,40.4747,space,23.0119,space,6.683,space,9.2986,"[0.7176,-0.906,-0.6864]",onetwo,"[0.8115999999999999,-0.0040000000000000036,-0.09819999999999995]",-4,7.0396,-47,86,1,0,0,response7disk_5,25,-9,1,0,0,rectangle_8,25,-9,1,0,0,2,25,-9,1,0,0,0,0,0,0,1,,,,,,,,,,,,,,,,,,,,,,,,,,,,,,,,,,,,,,,,,,,,,,,,,,,,,,,,,,,,,,,,,,,,,,,,,,,,,,,,,,,,,,,,,,,,,,,,,,,,,,,,,,,
,,,,,,60708e12f67240319e438e04,62bbf9f1e61a9153e4d8e9be,2022-06-29_09h06.57.174,Colour_Asymmetry_Pilot,2022.1.3,Win32,60.06366749,62bbe60bf3d75ef465d3e404,,,,,,,,,,,,,,,,,,,"[-0.09019999999999995,0.44300000000000006,0.5371999999999999]",onetwo,"[-0.4668,-0.8746,-0.2942]",3,6.5508,61,33,1,0,0,response1disk_5,4,6,1,0,0,rectangle_8,4,6,1,0,0,2,4,6,1,0,0,1,0,1,0,1,,,,,,,,,,,,,,,,,,,,,,,,,,,,,,,,,,,,,,,,,,,,,,,,,,,,,,,,,,,,,,,,,,,,,,,,,,,,,,,,,,,,,,,,,,,,,,,,,,,,,,,,,,,
,,,,,,60708e12f67240319e438e04,62bbf9f1e61a9153e4d8e9be,2022-06-29_09h06.57.174,Colour_Asymmetry_Pilot,2022.1.3,Win32,60.06366749,62bbe60bf3d75ef465d3e404,,,,,,,,,,,,,,,,,,,"[-0.011800000000000033,-0.906,-0.45100000000000007]",threeone,"[-0.8982,-0.37259999999999993,0.2784]",-4,5.4917,-35,73,1,0,0,response7disk_5,3,1,1,0,0,rectangle_8,3,1,1,0,0,2,3,1,1,0,0,2,0,2,0,1,,,,,,,,,,,,,,,,,,,,,,,,,,,,,,,,,,,,,,,,,,,,,,,,,,,,,,,,,,,,,,,,,,,,,,,,,,,,,,,,,,,,,,,,,,,,,,,,,,,,,,,,,,,
,,,,,,60708e12f67240319e438e04,62bbf9f1e61a9153e4d8e9be,2022-06-29_09h06.57.174,Colour_Asymmetry_Pilot,2022.1.3,Win32,60.06366749,62bbe60bf3d75ef465d3e404,,,,,,,,,,,,,,,,,,,"[0.9686000000000001,0.3802000000000001,0.19999999999999996]",onethree,"[0.3802000000000001,0.19199999999999995,-0.6394]",-4,1.633,-30,62,1,0,0,response7disk_5,-2,6,1,0,0,rectangle_8,-2,6,1,0,0,2,-2,6,1,0,0,3,0,3,0,1,,,,,,,,,,,,,,,,,,,,,,,,,,,,,,,,,,,,,,,,,,,,,,,,,,,,,,,,,,,,,,,,,,,,,,,,,,,,,,,,,,,,,,,,,,,,,,,,,,,,,,,,,,,
,,,,,,60708e12f67240319e438e04,62bbf9f1e61a9153e4d8e9be,2022-06-29_09h06.57.174,Colour_Asymmetry_Pilot,2022.1.3,Win32,60.06366749,62bbe60bf3d75ef465d3e404,,,,,,,,,,,,,,,,,,,"[-0.17659999999999998,0.3253999999999999,0.19999999999999996]",fourtwo,"[-0.38039999999999996,-0.4276,-0.1452]",3,2.1909,80,48,1,0,0,response1disk_5,-7,6,1,0,0,rectangle_8,-7,6,1,0,0,2,-7,6,1,0,0,4,0,4,0,1,,,,,,,,,,,,,,,,,,,,,,,,,,,,,,,,,,,,,,,,,,,,,,,,,,,,,,,,,,,,,,,,,,,,,,,,,,,,,,,,,,,,,,,,,,,,,,,,,,,,,,,,,,,
,,,,,,60708e12f67240319e438e04,62bbf9f1e61a9153e4d8e9be,2022-06-29_09h06.57.174,Colour_Asymmetry_Pilot,2022.1.3,Win32,60.06366749,62bbe60bf3d75ef465d3e404,,,,,,,,,,,,,,,,,,,"[-0.9688,-0.7412000000000001,-0.4902000000000001]",twoone,"[-0.8198,-0.5138,-0.7492000000000001]",-4,2.1161,-40,69,1,0,0,response7disk_5,10,5,1,0,0,rectangle_8,71,-53,1,0,0,2,-7,6,1,0,0,5,0,5,0,1,response3disk_7,5,rectangle_4,,,,,,,,,,,,,,,,,,,,,,,,,,,,,,,,,,,,,,,,,,,,,,,,,,,,,,,,,,,,,,,,,,,,,,,,,,,,,,,,,,,,,,,,,,,,,,,,,,,,,,,,
,,,,,,60708e12f67240319e438e04,62bbf9f1e61a9153e4d8e9be,2022-06-29_09h06.57.174,Colour_Asymmetry_Pilot,2022.1.3,Win32,60.06366749,62bbe60bf3d75ef465d3e404,,,,,,,,,,,,,,,,,,,"[0.9372,0.20779999999999998,0.2704]",onetwo,"[0.22340000000000004,-0.9296,-0.7884]",-4,3.0165,-49,86,1,0,0,response7disk_5,21,0,1,0,0,rectangle_8,21,0,1,0,0,2,21,0,1,0,0,6,0,6,0,1,,,,,,,,,,,,,,,,,,,,,,,,,,,,,,,,,,,,,,,,,,,,,,,,,,,,,,,,,,,,,,,,,,,,,,,,,,,,,,,,,,,,,,,,,,,,,,,,,,,,,,,,,,,
,,,,,,60708e12f67240319e438e04,62bbf9f1e61a9153e4d8e9be,2022-06-29_09h06.57.174,Colour_Asymmetry_Pilot,2022.1.3,Win32,60.06366749,62bbe60bf3d75ef465d3e404,,,,,,,,,,,,,,,,,,,,onetwo,,3,2.4651,,,,,,,,,,,,,,,,,,,,,,,,,,,,,,,,space,6.5691,"[-0.9766,-0.6472,0.07440000000000002]","[-0.30200000000000005,0.14500000000000002,0.2784]",94,35,1,0,0,response1disk,6,5,1,0,0,rectangle,6,5,1,0,0,,3,0.0034,0,6,5,1,0,0,0,0,0,156,1,75,second,,,,,,,,,,,,,,,,,,,,,,,,,,,,,,,,,,,,,,,,,,,,,,,,,,,,,,,,,,,,,,,,,,,
,,,,,,60708e12f67240319e438e04,62bbf9f1e61a9153e4d8e9be,2022-06-29_09h06.57.174,Colour_Asymmetry_Pilot,2022.1.3,Win32,60.06366749,62bbe60bf3d75ef465d3e404,,,,,,,,,,,,,,,,,,,,twofour,,-4,3.2997,,,,,,,,,,,,,,,,,,,,,,,,,,,,,,,,,,"[-0.4276,0.0038000000000000256,-0.3256]","[-0.5922000000000001,-0.7492000000000001,-0.5296000000000001]",-43,78,1,0,0,response7disk,0,-8,1,0,0,rectangle,0,-8,1,0,0,,3,0.0004,0,0,-8,1,0,0,0,1,1,121,1,40,second,,,,,,,,,,,,,,,,,,,,,,,,,,,,,,,,,,,,,,,,,,,,,,,,,,,,,,,,,,,,,,,,,,,
,,,,,,60708e12f67240319e438e04,62bbf9f1e61a9153e4d8e9be,2022-06-29_09h06.57.174,Colour_Asymmetry_Pilot,2022.1.3,Win32,60.06366749,62bbe60bf3d75ef465d3e404,,,,,,,,,,,,,,,,,,,,threeone,,-4,1.7042,,,,,,,,,,,,,,,,,,,,,,,,,,,,,,,,,,"[0.05879999999999996,0.2784,0.5841999999999998]","[0.3881999999999999,-0.23939999999999995,-0.05040000000000011]",-60,99,1,0,0,response7disk,4,8,1,0,0,rectangle,4,8,1,0,0,,3,0.0003,0,4,8,1,0,0,0,2,2,27,1,27,first,,,,,,,,,,,,,,,,,,,,,,,,,,,,,,,,,,,,,,,,,,,,,,,,,,,,,,,,,,,,,,,,,,,
,,,,,,60708e12f67240319e438e04,62bbf9f1e61a9153e4d8e9be,2022-06-29_09h06.57.174,Colour_Asymmetry_Pilot,2022.1.3,Win32,60.06366749,62bbe60bf3d75ef465d3e404,,,,,,,,,,,,,,,,,,,,threefour,,-4,1.0504,,,,,,,,,,,,,,,,,,,,,,,,,,,,,,,,,,"[0.9763999999999999,0.30979999999999985,-0.6786]","[-0.38039999999999996,-0.4276,-0.1452]",-35,90,1,0,0,response7disk,-10,2,1,0,0,rectangle,-10,2,1,0,0,,1,0.001,0,-10,2,1,0,0,0,3,3,13,1,13,first,,,,,,,,,,,,,,,,,,,,,,,,,,,,,,,,,,,,,,,,,,,,,,,,,,,,,,,,,,,,,,,,,,,
,,,,,,60708e12f67240319e438e04,62bbf9f1e61a9153e4d8e9be,2022-06-29_09h06.57.174,Colour_Asymmetry_Pilot,2022.1.3,Win32,60.06366749,62bbe60bf3d75ef465d3e404,,,,,,,,,,,,,,,,,,,,onethree,,2,1.6663,,,,,,,,,,,,,,,,,,,,,,,,,,,,,,,,,,"[-0.4746,-0.0354000000000001,0.5449999999999999]","[-0.9216,-0.5529999999999999,-0.3962]",104,-37,1,0,0,response3disk,1,4,1,0,0,rectangle,1,4,1,0,0,,2,0.0013,0,1,4,1,0,0,0,4,4,4,1,4,first,,,,,,,,,,,,,,,,,,,,,,,,,,,,,,,,,,,,,,,,,,,,,,,,,,,,,,,,,,,,,,,,,,,
,,,,,,60708e12f67240319e438e04,62bbf9f1e61a9153e4d8e9be,2022-06-29_09h06.57.174,Colour_Asymmetry_Pilot,2022.1.3,Win32,60.06366749,62bbe60bf3d75ef465d3e404,,,,,,,,,,,,,,,,,,,,twoone,,2,2.592,,,,,,,,,,,,,,,,,,,,,,,,,,,,,,,,,,"[1,0.12939999999999996,-1]","[-0.17659999999999998,-0.2864,-0.8354]",82,-36,1,0,0,response3disk,5,4,1,0,0,rectangle,5,4,1,0,0,,3,0.0024,0,5,4,1,0,0,0,5,5,25,1,25,first,,,,,,,,,,,,,,,,,,,,,,,,,,,,,,,,,,,,,,,,,,,,,,,,,,,,,,,,,,,,,,,,,,,
,,,,,,60708e12f67240319e438e04,62bbf9f1e61a9153e4d8e9be,2022-06-29_09h06.57.174,Colour_Asymmetry_Pilot,2022.1.3,Win32,60.06366749,62bbe60bf3d75ef465d3e404,,,,,,,,,,,,,,,,,,,,twoone,,-4,1.2754,,,,,,,,,,,,,,,,,,,,,,,,,,,,,,,,,,"[-0.6,0.16860000000000008,0.44300000000000006]","[-0.6706000000000001,-0.6157999999999999,-0.6786]",-28,57,1,0,0,response7disk,10,-1,1,0,0,rectangle,10,-1,1,0,0,,3,0.0008,0,10,-1,1,0,0,0,6,6,78,1,78,first,,,,,,,,,,,,,,,,,,,,,,,,,,,,,,,,,,,,,,,,,,,,,,,,,,,,,,,,,,,,,,,,,,,
,,,,,,60708e12f67240319e438e04,62bbf9f1e61a9153e4d8e9be,2022-06-29_09h06.57.174,Colour_Asymmetry_Pilot,2022.1.3,Win32,60.06366749,62bbe60bf3d75ef465d3e404,,,,,,,,,,,,,,,,,,,,fourthree,,-4,1.1763,,,,,,,,,,,,,,,,,,,,,,,,,,,,,,,,,,"[0.37240000000000006,-0.050999999999999934,-0.5216]","[-0.4276,0.0038000000000000256,-0.3256]",-35,79,1,0,0,response7disk,21,0,1,0,0,rectangle,21,0,1,0,0,,3,0.0005,0,21,0,1,0,0,0,7,7,109,1,28,second,,,,,,,,,,,,,,,,,,,,,,,,,,,,,,,,,,,,,,,,,,,,,,,,,,,,,,,,,,,,,,,,,,,
,,,,,,60708e12f67240319e438e04,62bbf9f1e61a9153e4d8e9be,2022-06-29_09h06.57.174,Colour_Asymmetry_Pilot,2022.1.3,Win32,60.06366749,62bbe60bf3d75ef465d3e404,,,,,,,,,,,,,,,,,,,,onetwo,,-4,0.8473,,,,,,,,,,,,,,,,,,,,,,,,,,,,,,,,,,"[0.9763999999999999,0.30979999999999985,-0.6786]","[0.7646000000000002,0.07440000000000002,0.2704]",-65,76,1,0,0,response7disk,-14,6,1,0,0,rectangle,63,-30,1,0,0,2,2,9.6874,1,-5,0,1,0,0,0,8,8,97,1,16,second,response3disk_3,rectangle,,,,,,,,,,,,,,,,,,,,,,,,,,,,,,,,,,,,,,,,,,,,,,,,,,,,,,,,,,,,,,,,,
,,,,,,60708e12f67240319e438e04,62bbf9f1e61a9153e4d8e9be,2022-06-29_09h06.57.174,Colour_Asymmetry_Pilot,2022.1.3,Win32,60.06366749,62bbe60bf3d75ef465d3e404,,,,,,,,,,,,,,,,,,,,threeone,,-4,2.4667,,,,,,,,,,,,,,,,,,,,,,,,,,,,,,,,,,"[0.3881999999999999,-0.23939999999999995,-0.05040000000000011]","[-0.7412000000000001,-0.08239999999999992,-0.6864]",-31,75,1,0,0,response7disk,-9,1,1,0,0,rectangle,-9,1,1,0,0,2,2,0.0005,0,-9,1,1,0,0,0,9,9,117,1,36,second,,,,,,,,,,,,,,,,,,,,,,,,,,,,,,,,,,,,,,,,,,,,,,,,,,,,,,,,,,,,,,,,,,,
,,,,,,60708e12f67240319e438e04,62bbf9f1e61a9153e4d8e9be,2022-06-29_09h06.57.174,Colour_Asymmetry_Pilot,2022.1.3,Win32,60.06366749,62bbe60bf3d75ef465d3e404,,,,,,,,,,,,,,,,,,,,onetwo,,-4,2.6689,,,,,,,,,,,,,,,,,,,,,,,,,,,,,,,,,,"[0.12939999999999996,-0.2864,0.3253999999999999]","[-0.9766,-0.6472,0.07440000000000002]",-38,82,1,0,0,response7disk,5,-1,1,0,0,rectangle,5,-1,1,0,0,2,1,0.0013,0,5,-1,1,0,0,0,10,10,79,1,79,first,,,,,,,,,,,,,,,,,,,,,,,,,,,,,,,,,,,,,,,,,,,,,,,,,,,,,,,,,,,,,,,,,,,
,,,,,,60708e12f67240319e438e04,62bbf9f1e61a9153e4d8e9be,2022-06-29_09h06.57.174,Colour_Asymmetry_Pilot,2022.1.3,Win32,60.06366749,62bbe60bf3d75ef465d3e404,,,,,,,,,,,,,,,,,,,,twoone,,-4,1.7252,,,,,,,,,,,,,,,,,,,,,,,,,,,,,,,,,,"[0.5528,0.7409999999999999,-0.71]","[0.12939999999999996,-0.2864,0.3253999999999999]",-27,73,1,0,0,response7disk,11,11,1,0,0,rectangle,11,11,1,0,0,2,3,0.0019,0,11,11,1,0,0,0,11,11,125,1,44,second,,,,,,,,,,,,,,,,,,,,,,,,,,,,,,,,,,,,,,,,,,,,,,,,,,,,,,,,,,,,,,,,,,,
,,,,,,60708e12f67240319e438e04,62bbf9f1e61a9153e4d8e9be,2022-06-29_09h06.57.174,Colour_Asymmetry_Pilot,2022.1.3,Win32,60.06366749,62bbe60bf3d75ef465d3e404,,,,,,,,,,,,,,,,,,,,fourthree,,-4,0.9834,,,,,,,,,,,,,,,,,,,,,,,,,,,,,,,,,,"[0.11359999999999992,0.6312,0.5213999999999999]","[0.8115999999999999,-0.0040000000000000036,-0.09819999999999995]",-41,92,1,0,0,response7disk,7,10,1,0,0,rectangle,7,10,1,0,0,2,2,0.0011,0,7,10,1,0,0,0,12,12,141,1,60,second,,,,,,,,,,,,,,,,,,,,,,,,,,,,,,,,,,,,,,,,,,,,,,,,,,,,,,,,,,,,,,,,,,,
,,,,,,60708e12f67240319e438e04,62bbf9f1e61a9153e4d8e9be,2022-06-29_09h06.57.174,Colour_Asymmetry_Pilot,2022.1.3,Win32,60.06366749,62bbe60bf3d75ef465d3e404,,,,,,,,,,,,,,,,,,,,threefour,,-4,1.1424,,,,,,,,,,,,,,,,,,,,,,,,,,,,,,,,,,"[-0.45899999999999996,-0.3256,-0.9374]","[-0.8982,-0.37259999999999993,0.2784]",-48,69,1,0,0,response7disk,2,5,1,0,0,rectangle,2,5,1,0,0,2,1,0.0006,0,2,5,1,0,0,0,13,13,69,1,69,first,,,,,,,,,,,,,,,,,,,,,,,,,,,,,,,,,,,,,,,,,,,,,,,,,,,,,,,,,,,,,,,,,,,
,,,,,,60708e12f67240319e438e04,62bbf9f1e61a9153e4d8e9be,2022-06-29_09h06.57.174,Colour_Asymmetry_Pilot,2022.1.3,Win32,60.06366749,62bbe60bf3d75ef465d3e404,,,,,,,,,,,,,,,,,,,,fourtwo,,-4,0.8745,,,,,,,,,,,,,,,,,,,,,,,,,,,,,,,,,,"[-0.5452,-0.608,0.2470000000000001]","[0.6625999999999999,0.4980000000000002,-0.357]",-61,101,1,0,0,response7disk,-7,14,1,0,0,rectangle,-7,14,1,0,0,2,1,0.0007,0,-7,14,1,0,0,0,14,14,88,1,7,second,,,,,,,,,,,,,,,,,,,,,,,,,,,,,,,,,,,,,,,,,,,,,,,,,,,,,,,,,,,,,,,,,,,
,,,,,,60708e12f67240319e438e04,62bbf9f1e61a9153e4d8e9be,2022-06-29_09h06.57.174,Colour_Asymmetry_Pilot,2022.1.3,Win32,60.06366749,62bbe60bf3d75ef465d3e404,,,,,,,,,,,,,,,,,,,,twoone,,3,2.0684,,,,,,,,,,,,,,,,,,,,,,,,,,,,,,,,,,"[-0.06680000000000008,-0.45100000000000007,-0.906]","[-0.45899999999999996,-0.3256,-0.9374]",87,48,1,0,0,response1disk,-2,8,1,0,0,rectangle,-2,8,1,0,0,2,1,0.0012,0,-2,8,1,0,0,0,15,15,19,1,19,first,,,,,,,,,,,,,,,,,,,,,,,,,,,,,,,,,,,,,,,,,,,,,,,,,,,,,,,,,,,,,,,,,,,
,,,,,,60708e12f67240319e438e04,62bbf9f1e61a9153e4d8e9be,2022-06-29_09h06.57.174,Colour_Asymmetry_Pilot,2022.1.3,Win32,60.06366749,62bbe60bf3d75ef465d3e404,,,,,,,,,,,,,,,,,,,,twofour,,-4,4.1414,,,,,,,,,,,,,,,,,,,,,,,,,,,,,,,,,,"[0.5528,0.7409999999999999,-0.71]","[-0.24719999999999998,-0.0354000000000001,0.3175999999999999]",-37,64,1,0,0,response7disk,9,8,1,0,0,rectangle,9,8,1,0,0,2,3,0.0008,0,9,8,1,0,0,0,16,16,62,1,62,first,,,,,,,,,,,,,,,,,,,,,,,,,,,,,,,,,,,,,,,,,,,,,,,,,,,,,,,,,,,,,,,,,,,
,,,,,,60708e12f67240319e438e04,62bbf9f1e61a9153e4d8e9be,2022-06-29_09h06.57.174,Colour_Asymmetry_Pilot,2022.1.3,Win32,60.06366749,62bbe60bf3d75ef465d3e404,,,,,,,,,,,,,,,,,,,,onethree,,-4,1.1752,,,,,,,,,,,,,,,,,,,,,,,,,,,,,,,,,,"[0.7646000000000002,0.07440000000000002,0.2704]","[-0.5688,-0.08239999999999992,-0.1844]",-33,78,1,0,0,response7disk,0,-3,1,0,0,rectangle,0,-3,1,0,0,2,3,0.0013,0,0,-3,1,0,0,0,17,17,12,1,12,first,,,,,,,,,,,,,,,,,,,,,,,,,,,,,,,,,,,,,,,,,,,,,,,,,,,,,,,,,,,,,,,,,,,
,,,,,,60708e12f67240319e438e04,62bbf9f1e61a9153e4d8e9be,2022-06-29_09h06.57.174,Colour_Asymmetry_Pilot,2022.1.3,Win32,60.06366749,62bbe60bf3d75ef465d3e404,,,,,,,,,,,,,,,,,,,,fourtwo,,-4,2.4497,,,,,,,,,,,,,,,,,,,,,,,,,,,,,,,,,,"[0.7176,-0.906,-0.6864]","[-0.4668,-0.8746,-0.2942]",-59,79,1,0,0,response7disk,2,6,1,0,0,rectangle,2,6,1,0,0,2,3,0.0011,0,2,6,1,0,0,0,18,18,86,1,5,second,,,,,,,,,,,,,,,,,,,,,,,,,,,,,,,,,,,,,,,,,,,,,,,,,,,,,,,,,,,,,,,,,,,
,,,,,,60708e12f67240319e438e04,62bbf9f1e61a9153e4d8e9be,2022-06-29_09h06.57.174,Colour_Asymmetry_Pilot,2022.1.3,Win32,60.06366749,62bbe60bf3d75ef465d3e404,,,,,,,,,,,,,,,,,,,,onetwo,,-4,2.059,,,,,,,,,,,,,,,,,,,,,,,,,,,,,,,,,,"[-0.0040000000000000036,0.02739999999999987,-0.08239999999999992]","[-0.7412000000000001,-0.08239999999999992,-0.6864]",-31,63,1,0,0,response7disk,15,-11,1,0,0,rectangle,50,-32,1,0,0,2,2,2.7138,1,-19,13,1,0,0,0,19,19,55,1,55,first,response3disk_3,rectangle,,,,,,,,,,,,,,,,,,,,,,,,,,,,,,,,,,,,,,,,,,,,,,,,,,,,,,,,,,,,,,,,,
,,,,,,60708e12f67240319e438e04,62bbf9f1e61a9153e4d8e9be,2022-06-29_09h06.57.174,Colour_Asymmetry_Pilot,2022.1.3,Win32,60.06366749,62bbe60bf3d75ef465d3e404,,,,,,,,,,,,,,,,,,,,fourthree,,-4,1.0994,,,,,,,,,,,,,,,,,,,,,,,,,,,,,,,,,,"[-0.48240000000000005,0.3175999999999999,0.2156]","[-0.8198,-0.5138,-0.7492000000000001]",-32,67,1,0,0,response7disk,0,1,1,0,0,rectangle,0,1,1,0,0,2,3,0.0029,0,0,1,1,0,0,0,20,20,153,1,72,second,,,,,,,,,,,,,,,,,,,,,,,,,,,,,,,,,,,,,,,,,,,,,,,,,,,,,,,,,,,,,,,,,,,
