trials.thisRepN,trials.thisTrialN,trials.thisN,trials.thisIndex,trials.ran,Colourcodes,participant,session,date,expName,psychopyVersion,OS,frameRate,study_id,trials_4.thisRepN,trials_4.thisTrialN,trials_4.thisN,trials_4.thisIndex,trials_4.ran,StimulusPos,key_resp.keys,key_resp.rt,key_resp_2.keys,key_resp_2.rt,key_resp_15.keys,key_resp_15.rt,key_resp_17.keys,key_resp_17.rt,key_resp_9.keys,key_resp_9.rt,key_resp_10.keys,key_resp_10.rt,Circle1_col,Ecc,Circle2_col,similarity,response_time,mouse_5.x,mouse_5.y,mouse_5.leftButton,mouse_5.midButton,mouse_5.rightButton,mouse_5.clicked_name,mouse_10.x,mouse_10.y,mouse_10.leftButton,mouse_10.midButton,mouse_10.rightButton,mouse_10.clicked_name,mouse_7.x,mouse_7.y,mouse_7.leftButton,mouse_7.midButton,mouse_7.rightButton,catchnumberprac,mouse_6.x,mouse_6.y,mouse_6.leftButton,mouse_6.midButton,mouse_6.rightButton,duringprac.thisRepN,duringprac.thisTrialN,duringprac.thisN,duringprac.thisIndex,duringprac.ran,mouse_7.clicked_name,catchprac,mouse_6.clicked_name,key_resp_22.keys,key_resp_22.rt,Circle1_colour,Circle2_colour,mouse.x,mouse.y,mouse.leftButton,mouse.midButton,mouse.rightButton,mouse.clicked_name,mouse_2.x,mouse_2.y,mouse_2.leftButton,mouse_2.midButton,mouse_2.rightButton,mouse_2.clicked_name,mouse_3.x,mouse_3.y,mouse_3.leftButton,mouse_3.midButton,mouse_3.rightButton,catchresponse,catchnumber,response_time_catch,Catch,mouse_11.x,mouse_11.y,mouse_11.leftButton,mouse_11.midButton,mouse_11.rightButton,trials_2.thisRepN,trials_2.thisTrialN,trials_2.thisN,trials_2.thisIndex,trials_2.ran,Colourpair,Temporder,mouse_3.clicked_name,mouse_11.clicked_name,trials_3.thisRepN,trials_3.thisTrialN,trials_3.thisN,trials_3.thisIndex,trials_3.ran,key_resp_instr_Ishi.keys,key_resp_instr_Ishi.rt,Ishi_trial_keyresp.keys,Ishi_trial_keyresp.rt,Ishi_textbox.text,Ishi_loop.thisRepN,Ishi_loop.thisTrialN,Ishi_loop.thisN,Ishi_loop.thisIndex,Ishi_loop.ran,imageaddress,textbox.text,mouse_4.x,mouse_4.y,mouse_4.leftButton,mouse_4.midButton,mouse_4.rightButton,mouse_4.clicked_name,textbox_2.text,mouse_8.x,mouse_8.y,mouse_8.leftButton,mouse_8.midButton,mouse_8.rightButton,mouse_8.clicked_name,textbox_3.text,mouse_9.x,mouse_9.y,mouse_9.leftButton,mouse_9.midButton,mouse_9.rightButton,mouse_9.clicked_name,textbox_4.text,mouse_12.x,mouse_12.y,mouse_12.leftButton,mouse_12.midButton,mouse_12.rightButton,mouse_12.clicked_name,textbox_5.text,mouse_13.x,mouse_13.y,mouse_13.leftButton,mouse_13.midButton,mouse_13.rightButton,mouse_13.clicked_name,textbox_6.text,mouse_14.x,mouse_14.y,mouse_14.leftButton,mouse_14.midButton,mouse_14.rightButton,mouse_14.clicked_name,textbox_7.text,mouse_15.x,mouse_15.y,mouse_15.leftButton,mouse_15.midButton,mouse_15.rightButton,mouse_15.clicked_name
0,0,0,2,1,,611e3b4ed4f4616be7914ffd,62bbfb7edd33c6b4ecf3589a,2022-06-29_09h15.07.691,Colour_Asymmetry_Pilot,2022.1.3,Win32,60.22645146,62bbe60bf3d75ef465d3e404,,,,,,,,,,,,,,,,,,,,,,,,,,,,,,,,,,,,,,,,,,,,,,,,,,,,,,,,,,,,,,,,,,,,,,,,,,,,,,,,,,,,,,,,,,,,,,,,,,,,,,,,,,,,,,,,,,,,,,,,,,,,,,,,,,,,,,,,,,,,,,,,,,,,,,,,,,,,,,
0,1,1,55,1,,611e3b4ed4f4616be7914ffd,62bbfb7edd33c6b4ecf3589a,2022-06-29_09h15.07.691,Colour_Asymmetry_Pilot,2022.1.3,Win32,60.22645146,62bbe60bf3d75ef465d3e404,,,,,,,,,,,,,,,,,,,,,,,,,,,,,,,,,,,,,,,,,,,,,,,,,,,,,,,,,,,,,,,,,,,,,,,,,,,,,,,,,,,,,,,,,,,,,,,,,,,,,,,,,,,,,,,,,,,,,,,,,,,,,,,,,,,,,,,,,,,,,,,,,,,,,,,,,,,,,,
0,2,2,52,1,,611e3b4ed4f4616be7914ffd,62bbfb7edd33c6b4ecf3589a,2022-06-29_09h15.07.691,Colour_Asymmetry_Pilot,2022.1.3,Win32,60.22645146,62bbe60bf3d75ef465d3e404,,,,,,,,,,,,,,,,,,,,,,,,,,,,,,,,,,,,,,,,,,,,,,,,,,,,,,,,,,,,,,,,,,,,,,,,,,,,,,,,,,,,,,,,,,,,,,,,,,,,,,,,,,,,,,,,,,,,,,,,,,,,,,,,,,,,,,,,,,,,,,,,,,,,,,,,,,,,,,
0,3,3,24,1,,611e3b4ed4f4616be7914ffd,62bbfb7edd33c6b4ecf3589a,2022-06-29_09h15.07.691,Colour_Asymmetry_Pilot,2022.1.3,Win32,60.22645146,62bbe60bf3d75ef465d3e404,,,,,,,,,,,,,,,,,,,,,,,,,,,,,,,,,,,,,,,,,,,,,,,,,,,,,,,,,,,,,,,,,,,,,,,,,,,,,,,,,,,,,,,,,,,,,,,,,,,,,,,,,,,,,,,,,,,,,,,,,,,,,,,,,,,,,,,,,,,,,,,,,,,,,,,,,,,,,,
0,4,4,44,1,,611e3b4ed4f4616be7914ffd,62bbfb7edd33c6b4ecf3589a,2022-06-29_09h15.07.691,Colour_Asymmetry_Pilot,2022.1.3,Win32,60.22645146,62bbe60bf3d75ef465d3e404,,,,,,,,,,,,,,,,,,,,,,,,,,,,,,,,,,,,,,,,,,,,,,,,,,,,,,,,,,,,,,,,,,,,,,,,,,,,,,,,,,,,,,,,,,,,,,,,,,,,,,,,,,,,,,,,,,,,,,,,,,,,,,,,,,,,,,,,,,,,,,,,,,,,,,,,,,,,,,
0,5,5,91,1,,611e3b4ed4f4616be7914ffd,62bbfb7edd33c6b4ecf3589a,2022-06-29_09h15.07.691,Colour_Asymmetry_Pilot,2022.1.3,Win32,60.22645146,62bbe60bf3d75ef465d3e404,,,,,,,,,,,,,,,,,,,,,,,,,,,,,,,,,,,,,,,,,,,,,,,,,,,,,,,,,,,,,,,,,,,,,,,,,,,,,,,,,,,,,,,,,,,,,,,,,,,,,,,,,,,,,,,,,,,,,,,,,,,,,,,,,,,,,,,,,,,,,,,,,,,,,,,,,,,,,,
0,6,6,45,1,,611e3b4ed4f4616be7914ffd,62bbfb7edd33c6b4ecf3589a,2022-06-29_09h15.07.691,Colour_Asymmetry_Pilot,2022.1.3,Win32,60.22645146,62bbe60bf3d75ef465d3e404,,,,,,,,,,,,,,,,,,,,,,,,,,,,,,,,,,,,,,,,,,,,,,,,,,,,,,,,,,,,,,,,,,,,,,,,,,,,,,,,,,,,,,,,,,,,,,,,,,,,,,,,,,,,,,,,,,,,,,,,,,,,,,,,,,,,,,,,,,,,,,,,,,,,,,,,,,,,,,
0,7,7,31,1,,611e3b4ed4f4616be7914ffd,62bbfb7edd33c6b4ecf3589a,2022-06-29_09h15.07.691,Colour_Asymmetry_Pilot,2022.1.3,Win32,60.22645146,62bbe60bf3d75ef465d3e404,,,,,,,,,,,,,,,,,,,,,,,,,,,,,,,,,,,,,,,,,,,,,,,,,,,,,,,,,,,,,,,,,,,,,,,,,,,,,,,,,,,,,,,,,,,,,,,,,,,,,,,,,,,,,,,,,,,,,,,,,,,,,,,,,,,,,,,,,,,,,,,,,,,,,,,,,,,,,,
0,8,8,5,1,,611e3b4ed4f4616be7914ffd,62bbfb7edd33c6b4ecf3589a,2022-06-29_09h15.07.691,Colour_Asymmetry_Pilot,2022.1.3,Win32,60.22645146,62bbe60bf3d75ef465d3e404,,,,,,,,,,,,,,,,,,,,,,,,,,,,,,,,,,,,,,,,,,,,,,,,,,,,,,,,,,,,,,,,,,,,,,,,,,,,,,,,,,,,,,,,,,,,,,,,,,,,,,,,,,,,,,,,,,,,,,,,,,,,,,,,,,,,,,,,,,,,,,,,,,,,,,,,,,,,,,
0,9,9,21,1,,611e3b4ed4f4616be7914ffd,62bbfb7edd33c6b4ecf3589a,2022-06-29_09h15.07.691,Colour_Asymmetry_Pilot,2022.1.3,Win32,60.22645146,62bbe60bf3d75ef465d3e404,,,,,,,,,,,,,,,,,,,,,,,,,,,,,,,,,,,,,,,,,,,,,,,,,,,,,,,,,,,,,,,,,,,,,,,,,,,,,,,,,,,,,,,,,,,,,,,,,,,,,,,,,,,,,,,,,,,,,,,,,,,,,,,,,,,,,,,,,,,,,,,,,,,,,,,,,,,,,,
0,10,10,54,1,,611e3b4ed4f4616be7914ffd,62bbfb7edd33c6b4ecf3589a,2022-06-29_09h15.07.691,Colour_Asymmetry_Pilot,2022.1.3,Win32,60.22645146,62bbe60bf3d75ef465d3e404,,,,,,,,,,,,,,,,,,,,,,,,,,,,,,,,,,,,,,,,,,,,,,,,,,,,,,,,,,,,,,,,,,,,,,,,,,,,,,,,,,,,,,,,,,,,,,,,,,,,,,,,,,,,,,,,,,,,,,,,,,,,,,,,,,,,,,,,,,,,,,,,,,,,,,,,,,,,,,
0,11,11,77,1,,611e3b4ed4f4616be7914ffd,62bbfb7edd33c6b4ecf3589a,2022-06-29_09h15.07.691,Colour_Asymmetry_Pilot,2022.1.3,Win32,60.22645146,62bbe60bf3d75ef465d3e404,,,,,,,,,,,,,,,,,,,,,,,,,,,,,,,,,,,,,,,,,,,,,,,,,,,,,,,,,,,,,,,,,,,,,,,,,,,,,,,,,,,,,,,,,,,,,,,,,,,,,,,,,,,,,,,,,,,,,,,,,,,,,,,,,,,,,,,,,,,,,,,,,,,,,,,,,,,,,,
0,12,12,22,1,,611e3b4ed4f4616be7914ffd,62bbfb7edd33c6b4ecf3589a,2022-06-29_09h15.07.691,Colour_Asymmetry_Pilot,2022.1.3,Win32,60.22645146,62bbe60bf3d75ef465d3e404,,,,,,,,,,,,,,,,,,,,,,,,,,,,,,,,,,,,,,,,,,,,,,,,,,,,,,,,,,,,,,,,,,,,,,,,,,,,,,,,,,,,,,,,,,,,,,,,,,,,,,,,,,,,,,,,,,,,,,,,,,,,,,,,,,,,,,,,,,,,,,,,,,,,,,,,,,,,,,
0,13,13,88,1,,611e3b4ed4f4616be7914ffd,62bbfb7edd33c6b4ecf3589a,2022-06-29_09h15.07.691,Colour_Asymmetry_Pilot,2022.1.3,Win32,60.22645146,62bbe60bf3d75ef465d3e404,,,,,,,,,,,,,,,,,,,,,,,,,,,,,,,,,,,,,,,,,,,,,,,,,,,,,,,,,,,,,,,,,,,,,,,,,,,,,,,,,,,,,,,,,,,,,,,,,,,,,,,,,,,,,,,,,,,,,,,,,,,,,,,,,,,,,,,,,,,,,,,,,,,,,,,,,,,,,,
0,14,14,41,1,,611e3b4ed4f4616be7914ffd,62bbfb7edd33c6b4ecf3589a,2022-06-29_09h15.07.691,Colour_Asymmetry_Pilot,2022.1.3,Win32,60.22645146,62bbe60bf3d75ef465d3e404,,,,,,,,,,,,,,,,,,,,,,,,,,,,,,,,,,,,,,,,,,,,,,,,,,,,,,,,,,,,,,,,,,,,,,,,,,,,,,,,,,,,,,,,,,,,,,,,,,,,,,,,,,,,,,,,,,,,,,,,,,,,,,,,,,,,,,,,,,,,,,,,,,,,,,,,,,,,,,
0,15,15,87,1,,611e3b4ed4f4616be7914ffd,62bbfb7edd33c6b4ecf3589a,2022-06-29_09h15.07.691,Colour_Asymmetry_Pilot,2022.1.3,Win32,60.22645146,62bbe60bf3d75ef465d3e404,,,,,,,,,,,,,,,,,,,,,,,,,,,,,,,,,,,,,,,,,,,,,,,,,,,,,,,,,,,,,,,,,,,,,,,,,,,,,,,,,,,,,,,,,,,,,,,,,,,,,,,,,,,,,,,,,,,,,,,,,,,,,,,,,,,,,,,,,,,,,,,,,,,,,,,,,,,,,,
0,16,16,7,1,,611e3b4ed4f4616be7914ffd,62bbfb7edd33c6b4ecf3589a,2022-06-29_09h15.07.691,Colour_Asymmetry_Pilot,2022.1.3,Win32,60.22645146,62bbe60bf3d75ef465d3e404,,,,,,,,,,,,,,,,,,,,,,,,,,,,,,,,,,,,,,,,,,,,,,,,,,,,,,,,,,,,,,,,,,,,,,,,,,,,,,,,,,,,,,,,,,,,,,,,,,,,,,,,,,,,,,,,,,,,,,,,,,,,,,,,,,,,,,,,,,,,,,,,,,,,,,,,,,,,,,
0,17,17,25,1,,611e3b4ed4f4616be7914ffd,62bbfb7edd33c6b4ecf3589a,2022-06-29_09h15.07.691,Colour_Asymmetry_Pilot,2022.1.3,Win32,60.22645146,62bbe60bf3d75ef465d3e404,,,,,,,,,,,,,,,,,,,,,,,,,,,,,,,,,,,,,,,,,,,,,,,,,,,,,,,,,,,,,,,,,,,,,,,,,,,,,,,,,,,,,,,,,,,,,,,,,,,,,,,,,,,,,,,,,,,,,,,,,,,,,,,,,,,,,,,,,,,,,,,,,,,,,,,,,,,,,,
0,18,18,6,1,,611e3b4ed4f4616be7914ffd,62bbfb7edd33c6b4ecf3589a,2022-06-29_09h15.07.691,Colour_Asymmetry_Pilot,2022.1.3,Win32,60.22645146,62bbe60bf3d75ef465d3e404,,,,,,,,,,,,,,,,,,,,,,,,,,,,,,,,,,,,,,,,,,,,,,,,,,,,,,,,,,,,,,,,,,,,,,,,,,,,,,,,,,,,,,,,,,,,,,,,,,,,,,,,,,,,,,,,,,,,,,,,,,,,,,,,,,,,,,,,,,,,,,,,,,,,,,,,,,,,,,
0,19,19,74,1,,611e3b4ed4f4616be7914ffd,62bbfb7edd33c6b4ecf3589a,2022-06-29_09h15.07.691,Colour_Asymmetry_Pilot,2022.1.3,Win32,60.22645146,62bbe60bf3d75ef465d3e404,,,,,,,,,,,,,,,,,,,,,,,,,,,,,,,,,,,,,,,,,,,,,,,,,,,,,,,,,,,,,,,,,,,,,,,,,,,,,,,,,,,,,,,,,,,,,,,,,,,,,,,,,,,,,,,,,,,,,,,,,,,,,,,,,,,,,,,,,,,,,,,,,,,,,,,,,,,,,,
0,20,20,1,1,,611e3b4ed4f4616be7914ffd,62bbfb7edd33c6b4ecf3589a,2022-06-29_09h15.07.691,Colour_Asymmetry_Pilot,2022.1.3,Win32,60.22645146,62bbe60bf3d75ef465d3e404,,,,,,,,,,,,,,,,,,,,,,,,,,,,,,,,,,,,,,,,,,,,,,,,,,,,,,,,,,,,,,,,,,,,,,,,,,,,,,,,,,,,,,,,,,,,,,,,,,,,,,,,,,,,,,,,,,,,,,,,,,,,,,,,,,,,,,,,,,,,,,,,,,,,,,,,,,,,,,
0,21,21,11,1,,611e3b4ed4f4616be7914ffd,62bbfb7edd33c6b4ecf3589a,2022-06-29_09h15.07.691,Colour_Asymmetry_Pilot,2022.1.3,Win32,60.22645146,62bbe60bf3d75ef465d3e404,,,,,,,,,,,,,,,,,,,,,,,,,,,,,,,,,,,,,,,,,,,,,,,,,,,,,,,,,,,,,,,,,,,,,,,,,,,,,,,,,,,,,,,,,,,,,,,,,,,,,,,,,,,,,,,,,,,,,,,,,,,,,,,,,,,,,,,,,,,,,,,,,,,,,,,,,,,,,,
0,22,22,3,1,,611e3b4ed4f4616be7914ffd,62bbfb7edd33c6b4ecf3589a,2022-06-29_09h15.07.691,Colour_Asymmetry_Pilot,2022.1.3,Win32,60.22645146,62bbe60bf3d75ef465d3e404,,,,,,,,,,,,,,,,,,,,,,,,,,,,,,,,,,,,,,,,,,,,,,,,,,,,,,,,,,,,,,,,,,,,,,,,,,,,,,,,,,,,,,,,,,,,,,,,,,,,,,,,,,,,,,,,,,,,,,,,,,,,,,,,,,,,,,,,,,,,,,,,,,,,,,,,,,,,,,
0,23,23,73,1,,611e3b4ed4f4616be7914ffd,62bbfb7edd33c6b4ecf3589a,2022-06-29_09h15.07.691,Colour_Asymmetry_Pilot,2022.1.3,Win32,60.22645146,62bbe60bf3d75ef465d3e404,,,,,,,,,,,,,,,,,,,,,,,,,,,,,,,,,,,,,,,,,,,,,,,,,,,,,,,,,,,,,,,,,,,,,,,,,,,,,,,,,,,,,,,,,,,,,,,,,,,,,,,,,,,,,,,,,,,,,,,,,,,,,,,,,,,,,,,,,,,,,,,,,,,,,,,,,,,,,,
0,24,24,58,1,,611e3b4ed4f4616be7914ffd,62bbfb7edd33c6b4ecf3589a,2022-06-29_09h15.07.691,Colour_Asymmetry_Pilot,2022.1.3,Win32,60.22645146,62bbe60bf3d75ef465d3e404,,,,,,,,,,,,,,,,,,,,,,,,,,,,,,,,,,,,,,,,,,,,,,,,,,,,,,,,,,,,,,,,,,,,,,,,,,,,,,,,,,,,,,,,,,,,,,,,,,,,,,,,,,,,,,,,,,,,,,,,,,,,,,,,,,,,,,,,,,,,,,,,,,,,,,,,,,,,,,
0,25,25,10,1,,611e3b4ed4f4616be7914ffd,62bbfb7edd33c6b4ecf3589a,2022-06-29_09h15.07.691,Colour_Asymmetry_Pilot,2022.1.3,Win32,60.22645146,62bbe60bf3d75ef465d3e404,,,,,,,,,,,,,,,,,,,,,,,,,,,,,,,,,,,,,,,,,,,,,,,,,,,,,,,,,,,,,,,,,,,,,,,,,,,,,,,,,,,,,,,,,,,,,,,,,,,,,,,,,,,,,,,,,,,,,,,,,,,,,,,,,,,,,,,,,,,,,,,,,,,,,,,,,,,,,,
0,26,26,67,1,,611e3b4ed4f4616be7914ffd,62bbfb7edd33c6b4ecf3589a,2022-06-29_09h15.07.691,Colour_Asymmetry_Pilot,2022.1.3,Win32,60.22645146,62bbe60bf3d75ef465d3e404,,,,,,,,,,,,,,,,,,,,,,,,,,,,,,,,,,,,,,,,,,,,,,,,,,,,,,,,,,,,,,,,,,,,,,,,,,,,,,,,,,,,,,,,,,,,,,,,,,,,,,,,,,,,,,,,,,,,,,,,,,,,,,,,,,,,,,,,,,,,,,,,,,,,,,,,,,,,,,
0,27,27,26,1,,611e3b4ed4f4616be7914ffd,62bbfb7edd33c6b4ecf3589a,2022-06-29_09h15.07.691,Colour_Asymmetry_Pilot,2022.1.3,Win32,60.22645146,62bbe60bf3d75ef465d3e404,,,,,,,,,,,,,,,,,,,,,,,,,,,,,,,,,,,,,,,,,,,,,,,,,,,,,,,,,,,,,,,,,,,,,,,,,,,,,,,,,,,,,,,,,,,,,,,,,,,,,,,,,,,,,,,,,,,,,,,,,,,,,,,,,,,,,,,,,,,,,,,,,,,,,,,,,,,,,,
0,28,28,63,1,,611e3b4ed4f4616be7914ffd,62bbfb7edd33c6b4ecf3589a,2022-06-29_09h15.07.691,Colour_Asymmetry_Pilot,2022.1.3,Win32,60.22645146,62bbe60bf3d75ef465d3e404,,,,,,,,,,,,,,,,,,,,,,,,,,,,,,,,,,,,,,,,,,,,,,,,,,,,,,,,,,,,,,,,,,,,,,,,,,,,,,,,,,,,,,,,,,,,,,,,,,,,,,,,,,,,,,,,,,,,,,,,,,,,,,,,,,,,,,,,,,,,,,,,,,,,,,,,,,,,,,
0,29,29,39,1,,611e3b4ed4f4616be7914ffd,62bbfb7edd33c6b4ecf3589a,2022-06-29_09h15.07.691,Colour_Asymmetry_Pilot,2022.1.3,Win32,60.22645146,62bbe60bf3d75ef465d3e404,,,,,,,,,,,,,,,,,,,,,,,,,,,,,,,,,,,,,,,,,,,,,,,,,,,,,,,,,,,,,,,,,,,,,,,,,,,,,,,,,,,,,,,,,,,,,,,,,,,,,,,,,,,,,,,,,,,,,,,,,,,,,,,,,,,,,,,,,,,,,,,,,,,,,,,,,,,,,,
0,30,30,59,1,,611e3b4ed4f4616be7914ffd,62bbfb7edd33c6b4ecf3589a,2022-06-29_09h15.07.691,Colour_Asymmetry_Pilot,2022.1.3,Win32,60.22645146,62bbe60bf3d75ef465d3e404,,,,,,,,,,,,,,,,,,,,,,,,,,,,,,,,,,,,,,,,,,,,,,,,,,,,,,,,,,,,,,,,,,,,,,,,,,,,,,,,,,,,,,,,,,,,,,,,,,,,,,,,,,,,,,,,,,,,,,,,,,,,,,,,,,,,,,,,,,,,,,,,,,,,,,,,,,,,,,
0,31,31,85,1,,611e3b4ed4f4616be7914ffd,62bbfb7edd33c6b4ecf3589a,2022-06-29_09h15.07.691,Colour_Asymmetry_Pilot,2022.1.3,Win32,60.22645146,62bbe60bf3d75ef465d3e404,,,,,,,,,,,,,,,,,,,,,,,,,,,,,,,,,,,,,,,,,,,,,,,,,,,,,,,,,,,,,,,,,,,,,,,,,,,,,,,,,,,,,,,,,,,,,,,,,,,,,,,,,,,,,,,,,,,,,,,,,,,,,,,,,,,,,,,,,,,,,,,,,,,,,,,,,,,,,,
0,32,32,18,1,,611e3b4ed4f4616be7914ffd,62bbfb7edd33c6b4ecf3589a,2022-06-29_09h15.07.691,Colour_Asymmetry_Pilot,2022.1.3,Win32,60.22645146,62bbe60bf3d75ef465d3e404,,,,,,,,,,,,,,,,,,,,,,,,,,,,,,,,,,,,,,,,,,,,,,,,,,,,,,,,,,,,,,,,,,,,,,,,,,,,,,,,,,,,,,,,,,,,,,,,,,,,,,,,,,,,,,,,,,,,,,,,,,,,,,,,,,,,,,,,,,,,,,,,,,,,,,,,,,,,,,
0,33,33,81,1,,611e3b4ed4f4616be7914ffd,62bbfb7edd33c6b4ecf3589a,2022-06-29_09h15.07.691,Colour_Asymmetry_Pilot,2022.1.3,Win32,60.22645146,62bbe60bf3d75ef465d3e404,,,,,,,,,,,,,,,,,,,,,,,,,,,,,,,,,,,,,,,,,,,,,,,,,,,,,,,,,,,,,,,,,,,,,,,,,,,,,,,,,,,,,,,,,,,,,,,,,,,,,,,,,,,,,,,,,,,,,,,,,,,,,,,,,,,,,,,,,,,,,,,,,,,,,,,,,,,,,,
0,34,34,47,1,,611e3b4ed4f4616be7914ffd,62bbfb7edd33c6b4ecf3589a,2022-06-29_09h15.07.691,Colour_Asymmetry_Pilot,2022.1.3,Win32,60.22645146,62bbe60bf3d75ef465d3e404,,,,,,,,,,,,,,,,,,,,,,,,,,,,,,,,,,,,,,,,,,,,,,,,,,,,,,,,,,,,,,,,,,,,,,,,,,,,,,,,,,,,,,,,,,,,,,,,,,,,,,,,,,,,,,,,,,,,,,,,,,,,,,,,,,,,,,,,,,,,,,,,,,,,,,,,,,,,,,
0,35,35,38,1,,611e3b4ed4f4616be7914ffd,62bbfb7edd33c6b4ecf3589a,2022-06-29_09h15.07.691,Colour_Asymmetry_Pilot,2022.1.3,Win32,60.22645146,62bbe60bf3d75ef465d3e404,,,,,,,,,,,,,,,,,,,,,,,,,,,,,,,,,,,,,,,,,,,,,,,,,,,,,,,,,,,,,,,,,,,,,,,,,,,,,,,,,,,,,,,,,,,,,,,,,,,,,,,,,,,,,,,,,,,,,,,,,,,,,,,,,,,,,,,,,,,,,,,,,,,,,,,,,,,,,,
0,36,36,34,1,,611e3b4ed4f4616be7914ffd,62bbfb7edd33c6b4ecf3589a,2022-06-29_09h15.07.691,Colour_Asymmetry_Pilot,2022.1.3,Win32,60.22645146,62bbe60bf3d75ef465d3e404,,,,,,,,,,,,,,,,,,,,,,,,,,,,,,,,,,,,,,,,,,,,,,,,,,,,,,,,,,,,,,,,,,,,,,,,,,,,,,,,,,,,,,,,,,,,,,,,,,,,,,,,,,,,,,,,,,,,,,,,,,,,,,,,,,,,,,,,,,,,,,,,,,,,,,,,,,,,,,
0,37,37,89,1,,611e3b4ed4f4616be7914ffd,62bbfb7edd33c6b4ecf3589a,2022-06-29_09h15.07.691,Colour_Asymmetry_Pilot,2022.1.3,Win32,60.22645146,62bbe60bf3d75ef465d3e404,,,,,,,,,,,,,,,,,,,,,,,,,,,,,,,,,,,,,,,,,,,,,,,,,,,,,,,,,,,,,,,,,,,,,,,,,,,,,,,,,,,,,,,,,,,,,,,,,,,,,,,,,,,,,,,,,,,,,,,,,,,,,,,,,,,,,,,,,,,,,,,,,,,,,,,,,,,,,,
0,38,38,86,1,,611e3b4ed4f4616be7914ffd,62bbfb7edd33c6b4ecf3589a,2022-06-29_09h15.07.691,Colour_Asymmetry_Pilot,2022.1.3,Win32,60.22645146,62bbe60bf3d75ef465d3e404,,,,,,,,,,,,,,,,,,,,,,,,,,,,,,,,,,,,,,,,,,,,,,,,,,,,,,,,,,,,,,,,,,,,,,,,,,,,,,,,,,,,,,,,,,,,,,,,,,,,,,,,,,,,,,,,,,,,,,,,,,,,,,,,,,,,,,,,,,,,,,,,,,,,,,,,,,,,,,
0,39,39,20,1,,611e3b4ed4f4616be7914ffd,62bbfb7edd33c6b4ecf3589a,2022-06-29_09h15.07.691,Colour_Asymmetry_Pilot,2022.1.3,Win32,60.22645146,62bbe60bf3d75ef465d3e404,,,,,,,,,,,,,,,,,,,,,,,,,,,,,,,,,,,,,,,,,,,,,,,,,,,,,,,,,,,,,,,,,,,,,,,,,,,,,,,,,,,,,,,,,,,,,,,,,,,,,,,,,,,,,,,,,,,,,,,,,,,,,,,,,,,,,,,,,,,,,,,,,,,,,,,,,,,,,,
0,40,40,28,1,,611e3b4ed4f4616be7914ffd,62bbfb7edd33c6b4ecf3589a,2022-06-29_09h15.07.691,Colour_Asymmetry_Pilot,2022.1.3,Win32,60.22645146,62bbe60bf3d75ef465d3e404,,,,,,,,,,,,,,,,,,,,,,,,,,,,,,,,,,,,,,,,,,,,,,,,,,,,,,,,,,,,,,,,,,,,,,,,,,,,,,,,,,,,,,,,,,,,,,,,,,,,,,,,,,,,,,,,,,,,,,,,,,,,,,,,,,,,,,,,,,,,,,,,,,,,,,,,,,,,,,
0,41,41,79,1,,611e3b4ed4f4616be7914ffd,62bbfb7edd33c6b4ecf3589a,2022-06-29_09h15.07.691,Colour_Asymmetry_Pilot,2022.1.3,Win32,60.22645146,62bbe60bf3d75ef465d3e404,,,,,,,,,,,,,,,,,,,,,,,,,,,,,,,,,,,,,,,,,,,,,,,,,,,,,,,,,,,,,,,,,,,,,,,,,,,,,,,,,,,,,,,,,,,,,,,,,,,,,,,,,,,,,,,,,,,,,,,,,,,,,,,,,,,,,,,,,,,,,,,,,,,,,,,,,,,,,,
0,42,42,80,1,,611e3b4ed4f4616be7914ffd,62bbfb7edd33c6b4ecf3589a,2022-06-29_09h15.07.691,Colour_Asymmetry_Pilot,2022.1.3,Win32,60.22645146,62bbe60bf3d75ef465d3e404,,,,,,,,,,,,,,,,,,,,,,,,,,,,,,,,,,,,,,,,,,,,,,,,,,,,,,,,,,,,,,,,,,,,,,,,,,,,,,,,,,,,,,,,,,,,,,,,,,,,,,,,,,,,,,,,,,,,,,,,,,,,,,,,,,,,,,,,,,,,,,,,,,,,,,,,,,,,,,
0,43,43,70,1,,611e3b4ed4f4616be7914ffd,62bbfb7edd33c6b4ecf3589a,2022-06-29_09h15.07.691,Colour_Asymmetry_Pilot,2022.1.3,Win32,60.22645146,62bbe60bf3d75ef465d3e404,,,,,,,,,,,,,,,,,,,,,,,,,,,,,,,,,,,,,,,,,,,,,,,,,,,,,,,,,,,,,,,,,,,,,,,,,,,,,,,,,,,,,,,,,,,,,,,,,,,,,,,,,,,,,,,,,,,,,,,,,,,,,,,,,,,,,,,,,,,,,,,,,,,,,,,,,,,,,,
0,44,44,90,1,,611e3b4ed4f4616be7914ffd,62bbfb7edd33c6b4ecf3589a,2022-06-29_09h15.07.691,Colour_Asymmetry_Pilot,2022.1.3,Win32,60.22645146,62bbe60bf3d75ef465d3e404,,,,,,,,,,,,,,,,,,,,,,,,,,,,,,,,,,,,,,,,,,,,,,,,,,,,,,,,,,,,,,,,,,,,,,,,,,,,,,,,,,,,,,,,,,,,,,,,,,,,,,,,,,,,,,,,,,,,,,,,,,,,,,,,,,,,,,,,,,,,,,,,,,,,,,,,,,,,,,
0,45,45,61,1,,611e3b4ed4f4616be7914ffd,62bbfb7edd33c6b4ecf3589a,2022-06-29_09h15.07.691,Colour_Asymmetry_Pilot,2022.1.3,Win32,60.22645146,62bbe60bf3d75ef465d3e404,,,,,,,,,,,,,,,,,,,,,,,,,,,,,,,,,,,,,,,,,,,,,,,,,,,,,,,,,,,,,,,,,,,,,,,,,,,,,,,,,,,,,,,,,,,,,,,,,,,,,,,,,,,,,,,,,,,,,,,,,,,,,,,,,,,,,,,,,,,,,,,,,,,,,,,,,,,,,,
0,46,46,42,1,,611e3b4ed4f4616be7914ffd,62bbfb7edd33c6b4ecf3589a,2022-06-29_09h15.07.691,Colour_Asymmetry_Pilot,2022.1.3,Win32,60.22645146,62bbe60bf3d75ef465d3e404,,,,,,,,,,,,,,,,,,,,,,,,,,,,,,,,,,,,,,,,,,,,,,,,,,,,,,,,,,,,,,,,,,,,,,,,,,,,,,,,,,,,,,,,,,,,,,,,,,,,,,,,,,,,,,,,,,,,,,,,,,,,,,,,,,,,,,,,,,,,,,,,,,,,,,,,,,,,,,
0,47,47,35,1,,611e3b4ed4f4616be7914ffd,62bbfb7edd33c6b4ecf3589a,2022-06-29_09h15.07.691,Colour_Asymmetry_Pilot,2022.1.3,Win32,60.22645146,62bbe60bf3d75ef465d3e404,,,,,,,,,,,,,,,,,,,,,,,,,,,,,,,,,,,,,,,,,,,,,,,,,,,,,,,,,,,,,,,,,,,,,,,,,,,,,,,,,,,,,,,,,,,,,,,,,,,,,,,,,,,,,,,,,,,,,,,,,,,,,,,,,,,,,,,,,,,,,,,,,,,,,,,,,,,,,,
0,48,48,78,1,,611e3b4ed4f4616be7914ffd,62bbfb7edd33c6b4ecf3589a,2022-06-29_09h15.07.691,Colour_Asymmetry_Pilot,2022.1.3,Win32,60.22645146,62bbe60bf3d75ef465d3e404,,,,,,,,,,,,,,,,,,,,,,,,,,,,,,,,,,,,,,,,,,,,,,,,,,,,,,,,,,,,,,,,,,,,,,,,,,,,,,,,,,,,,,,,,,,,,,,,,,,,,,,,,,,,,,,,,,,,,,,,,,,,,,,,,,,,,,,,,,,,,,,,,,,,,,,,,,,,,,
0,49,49,30,1,,611e3b4ed4f4616be7914ffd,62bbfb7edd33c6b4ecf3589a,2022-06-29_09h15.07.691,Colour_Asymmetry_Pilot,2022.1.3,Win32,60.22645146,62bbe60bf3d75ef465d3e404,,,,,,,,,,,,,,,,,,,,,,,,,,,,,,,,,,,,,,,,,,,,,,,,,,,,,,,,,,,,,,,,,,,,,,,,,,,,,,,,,,,,,,,,,,,,,,,,,,,,,,,,,,,,,,,,,,,,,,,,,,,,,,,,,,,,,,,,,,,,,,,,,,,,,,,,,,,,,,
0,50,50,40,1,,611e3b4ed4f4616be7914ffd,62bbfb7edd33c6b4ecf3589a,2022-06-29_09h15.07.691,Colour_Asymmetry_Pilot,2022.1.3,Win32,60.22645146,62bbe60bf3d75ef465d3e404,,,,,,,,,,,,,,,,,,,,,,,,,,,,,,,,,,,,,,,,,,,,,,,,,,,,,,,,,,,,,,,,,,,,,,,,,,,,,,,,,,,,,,,,,,,,,,,,,,,,,,,,,,,,,,,,,,,,,,,,,,,,,,,,,,,,,,,,,,,,,,,,,,,,,,,,,,,,,,
0,51,51,68,1,,611e3b4ed4f4616be7914ffd,62bbfb7edd33c6b4ecf3589a,2022-06-29_09h15.07.691,Colour_Asymmetry_Pilot,2022.1.3,Win32,60.22645146,62bbe60bf3d75ef465d3e404,,,,,,,,,,,,,,,,,,,,,,,,,,,,,,,,,,,,,,,,,,,,,,,,,,,,,,,,,,,,,,,,,,,,,,,,,,,,,,,,,,,,,,,,,,,,,,,,,,,,,,,,,,,,,,,,,,,,,,,,,,,,,,,,,,,,,,,,,,,,,,,,,,,,,,,,,,,,,,
0,52,52,36,1,,611e3b4ed4f4616be7914ffd,62bbfb7edd33c6b4ecf3589a,2022-06-29_09h15.07.691,Colour_Asymmetry_Pilot,2022.1.3,Win32,60.22645146,62bbe60bf3d75ef465d3e404,,,,,,,,,,,,,,,,,,,,,,,,,,,,,,,,,,,,,,,,,,,,,,,,,,,,,,,,,,,,,,,,,,,,,,,,,,,,,,,,,,,,,,,,,,,,,,,,,,,,,,,,,,,,,,,,,,,,,,,,,,,,,,,,,,,,,,,,,,,,,,,,,,,,,,,,,,,,,,
0,53,53,51,1,,611e3b4ed4f4616be7914ffd,62bbfb7edd33c6b4ecf3589a,2022-06-29_09h15.07.691,Colour_Asymmetry_Pilot,2022.1.3,Win32,60.22645146,62bbe60bf3d75ef465d3e404,,,,,,,,,,,,,,,,,,,,,,,,,,,,,,,,,,,,,,,,,,,,,,,,,,,,,,,,,,,,,,,,,,,,,,,,,,,,,,,,,,,,,,,,,,,,,,,,,,,,,,,,,,,,,,,,,,,,,,,,,,,,,,,,,,,,,,,,,,,,,,,,,,,,,,,,,,,,,,
0,54,54,14,1,,611e3b4ed4f4616be7914ffd,62bbfb7edd33c6b4ecf3589a,2022-06-29_09h15.07.691,Colour_Asymmetry_Pilot,2022.1.3,Win32,60.22645146,62bbe60bf3d75ef465d3e404,,,,,,,,,,,,,,,,,,,,,,,,,,,,,,,,,,,,,,,,,,,,,,,,,,,,,,,,,,,,,,,,,,,,,,,,,,,,,,,,,,,,,,,,,,,,,,,,,,,,,,,,,,,,,,,,,,,,,,,,,,,,,,,,,,,,,,,,,,,,,,,,,,,,,,,,,,,,,,
0,55,55,71,1,,611e3b4ed4f4616be7914ffd,62bbfb7edd33c6b4ecf3589a,2022-06-29_09h15.07.691,Colour_Asymmetry_Pilot,2022.1.3,Win32,60.22645146,62bbe60bf3d75ef465d3e404,,,,,,,,,,,,,,,,,,,,,,,,,,,,,,,,,,,,,,,,,,,,,,,,,,,,,,,,,,,,,,,,,,,,,,,,,,,,,,,,,,,,,,,,,,,,,,,,,,,,,,,,,,,,,,,,,,,,,,,,,,,,,,,,,,,,,,,,,,,,,,,,,,,,,,,,,,,,,,
0,56,56,8,1,,611e3b4ed4f4616be7914ffd,62bbfb7edd33c6b4ecf3589a,2022-06-29_09h15.07.691,Colour_Asymmetry_Pilot,2022.1.3,Win32,60.22645146,62bbe60bf3d75ef465d3e404,,,,,,,,,,,,,,,,,,,,,,,,,,,,,,,,,,,,,,,,,,,,,,,,,,,,,,,,,,,,,,,,,,,,,,,,,,,,,,,,,,,,,,,,,,,,,,,,,,,,,,,,,,,,,,,,,,,,,,,,,,,,,,,,,,,,,,,,,,,,,,,,,,,,,,,,,,,,,,
0,57,57,48,1,,611e3b4ed4f4616be7914ffd,62bbfb7edd33c6b4ecf3589a,2022-06-29_09h15.07.691,Colour_Asymmetry_Pilot,2022.1.3,Win32,60.22645146,62bbe60bf3d75ef465d3e404,,,,,,,,,,,,,,,,,,,,,,,,,,,,,,,,,,,,,,,,,,,,,,,,,,,,,,,,,,,,,,,,,,,,,,,,,,,,,,,,,,,,,,,,,,,,,,,,,,,,,,,,,,,,,,,,,,,,,,,,,,,,,,,,,,,,,,,,,,,,,,,,,,,,,,,,,,,,,,
0,58,58,69,1,,611e3b4ed4f4616be7914ffd,62bbfb7edd33c6b4ecf3589a,2022-06-29_09h15.07.691,Colour_Asymmetry_Pilot,2022.1.3,Win32,60.22645146,62bbe60bf3d75ef465d3e404,,,,,,,,,,,,,,,,,,,,,,,,,,,,,,,,,,,,,,,,,,,,,,,,,,,,,,,,,,,,,,,,,,,,,,,,,,,,,,,,,,,,,,,,,,,,,,,,,,,,,,,,,,,,,,,,,,,,,,,,,,,,,,,,,,,,,,,,,,,,,,,,,,,,,,,,,,,,,,
0,59,59,92,1,,611e3b4ed4f4616be7914ffd,62bbfb7edd33c6b4ecf3589a,2022-06-29_09h15.07.691,Colour_Asymmetry_Pilot,2022.1.3,Win32,60.22645146,62bbe60bf3d75ef465d3e404,,,,,,,,,,,,,,,,,,,,,,,,,,,,,,,,,,,,,,,,,,,,,,,,,,,,,,,,,,,,,,,,,,,,,,,,,,,,,,,,,,,,,,,,,,,,,,,,,,,,,,,,,,,,,,,,,,,,,,,,,,,,,,,,,,,,,,,,,,,,,,,,,,,,,,,,,,,,,,
0,60,60,84,1,,611e3b4ed4f4616be7914ffd,62bbfb7edd33c6b4ecf3589a,2022-06-29_09h15.07.691,Colour_Asymmetry_Pilot,2022.1.3,Win32,60.22645146,62bbe60bf3d75ef465d3e404,,,,,,,,,,,,,,,,,,,,,,,,,,,,,,,,,,,,,,,,,,,,,,,,,,,,,,,,,,,,,,,,,,,,,,,,,,,,,,,,,,,,,,,,,,,,,,,,,,,,,,,,,,,,,,,,,,,,,,,,,,,,,,,,,,,,,,,,,,,,,,,,,,,,,,,,,,,,,,
0,61,61,64,1,,611e3b4ed4f4616be7914ffd,62bbfb7edd33c6b4ecf3589a,2022-06-29_09h15.07.691,Colour_Asymmetry_Pilot,2022.1.3,Win32,60.22645146,62bbe60bf3d75ef465d3e404,,,,,,,,,,,,,,,,,,,,,,,,,,,,,,,,,,,,,,,,,,,,,,,,,,,,,,,,,,,,,,,,,,,,,,,,,,,,,,,,,,,,,,,,,,,,,,,,,,,,,,,,,,,,,,,,,,,,,,,,,,,,,,,,,,,,,,,,,,,,,,,,,,,,,,,,,,,,,,
0,62,62,12,1,,611e3b4ed4f4616be7914ffd,62bbfb7edd33c6b4ecf3589a,2022-06-29_09h15.07.691,Colour_Asymmetry_Pilot,2022.1.3,Win32,60.22645146,62bbe60bf3d75ef465d3e404,,,,,,,,,,,,,,,,,,,,,,,,,,,,,,,,,,,,,,,,,,,,,,,,,,,,,,,,,,,,,,,,,,,,,,,,,,,,,,,,,,,,,,,,,,,,,,,,,,,,,,,,,,,,,,,,,,,,,,,,,,,,,,,,,,,,,,,,,,,,,,,,,,,,,,,,,,,,,,
0,63,63,37,1,,611e3b4ed4f4616be7914ffd,62bbfb7edd33c6b4ecf3589a,2022-06-29_09h15.07.691,Colour_Asymmetry_Pilot,2022.1.3,Win32,60.22645146,62bbe60bf3d75ef465d3e404,,,,,,,,,,,,,,,,,,,,,,,,,,,,,,,,,,,,,,,,,,,,,,,,,,,,,,,,,,,,,,,,,,,,,,,,,,,,,,,,,,,,,,,,,,,,,,,,,,,,,,,,,,,,,,,,,,,,,,,,,,,,,,,,,,,,,,,,,,,,,,,,,,,,,,,,,,,,,,
0,64,64,16,1,,611e3b4ed4f4616be7914ffd,62bbfb7edd33c6b4ecf3589a,2022-06-29_09h15.07.691,Colour_Asymmetry_Pilot,2022.1.3,Win32,60.22645146,62bbe60bf3d75ef465d3e404,,,,,,,,,,,,,,,,,,,,,,,,,,,,,,,,,,,,,,,,,,,,,,,,,,,,,,,,,,,,,,,,,,,,,,,,,,,,,,,,,,,,,,,,,,,,,,,,,,,,,,,,,,,,,,,,,,,,,,,,,,,,,,,,,,,,,,,,,,,,,,,,,,,,,,,,,,,,,,
0,65,65,4,1,,611e3b4ed4f4616be7914ffd,62bbfb7edd33c6b4ecf3589a,2022-06-29_09h15.07.691,Colour_Asymmetry_Pilot,2022.1.3,Win32,60.22645146,62bbe60bf3d75ef465d3e404,,,,,,,,,,,,,,,,,,,,,,,,,,,,,,,,,,,,,,,,,,,,,,,,,,,,,,,,,,,,,,,,,,,,,,,,,,,,,,,,,,,,,,,,,,,,,,,,,,,,,,,,,,,,,,,,,,,,,,,,,,,,,,,,,,,,,,,,,,,,,,,,,,,,,,,,,,,,,,
0,66,66,27,1,,611e3b4ed4f4616be7914ffd,62bbfb7edd33c6b4ecf3589a,2022-06-29_09h15.07.691,Colour_Asymmetry_Pilot,2022.1.3,Win32,60.22645146,62bbe60bf3d75ef465d3e404,,,,,,,,,,,,,,,,,,,,,,,,,,,,,,,,,,,,,,,,,,,,,,,,,,,,,,,,,,,,,,,,,,,,,,,,,,,,,,,,,,,,,,,,,,,,,,,,,,,,,,,,,,,,,,,,,,,,,,,,,,,,,,,,,,,,,,,,,,,,,,,,,,,,,,,,,,,,,,
0,67,67,23,1,,611e3b4ed4f4616be7914ffd,62bbfb7edd33c6b4ecf3589a,2022-06-29_09h15.07.691,Colour_Asymmetry_Pilot,2022.1.3,Win32,60.22645146,62bbe60bf3d75ef465d3e404,,,,,,,,,,,,,,,,,,,,,,,,,,,,,,,,,,,,,,,,,,,,,,,,,,,,,,,,,,,,,,,,,,,,,,,,,,,,,,,,,,,,,,,,,,,,,,,,,,,,,,,,,,,,,,,,,,,,,,,,,,,,,,,,,,,,,,,,,,,,,,,,,,,,,,,,,,,,,,
0,68,68,29,1,,611e3b4ed4f4616be7914ffd,62bbfb7edd33c6b4ecf3589a,2022-06-29_09h15.07.691,Colour_Asymmetry_Pilot,2022.1.3,Win32,60.22645146,62bbe60bf3d75ef465d3e404,,,,,,,,,,,,,,,,,,,,,,,,,,,,,,,,,,,,,,,,,,,,,,,,,,,,,,,,,,,,,,,,,,,,,,,,,,,,,,,,,,,,,,,,,,,,,,,,,,,,,,,,,,,,,,,,,,,,,,,,,,,,,,,,,,,,,,,,,,,,,,,,,,,,,,,,,,,,,,
0,69,69,9,1,,611e3b4ed4f4616be7914ffd,62bbfb7edd33c6b4ecf3589a,2022-06-29_09h15.07.691,Colour_Asymmetry_Pilot,2022.1.3,Win32,60.22645146,62bbe60bf3d75ef465d3e404,,,,,,,,,,,,,,,,,,,,,,,,,,,,,,,,,,,,,,,,,,,,,,,,,,,,,,,,,,,,,,,,,,,,,,,,,,,,,,,,,,,,,,,,,,,,,,,,,,,,,,,,,,,,,,,,,,,,,,,,,,,,,,,,,,,,,,,,,,,,,,,,,,,,,,,,,,,,,,
0,70,70,15,1,,611e3b4ed4f4616be7914ffd,62bbfb7edd33c6b4ecf3589a,2022-06-29_09h15.07.691,Colour_Asymmetry_Pilot,2022.1.3,Win32,60.22645146,62bbe60bf3d75ef465d3e404,,,,,,,,,,,,,,,,,,,,,,,,,,,,,,,,,,,,,,,,,,,,,,,,,,,,,,,,,,,,,,,,,,,,,,,,,,,,,,,,,,,,,,,,,,,,,,,,,,,,,,,,,,,,,,,,,,,,,,,,,,,,,,,,,,,,,,,,,,,,,,,,,,,,,,,,,,,,,,
0,71,71,43,1,,611e3b4ed4f4616be7914ffd,62bbfb7edd33c6b4ecf3589a,2022-06-29_09h15.07.691,Colour_Asymmetry_Pilot,2022.1.3,Win32,60.22645146,62bbe60bf3d75ef465d3e404,,,,,,,,,,,,,,,,,,,,,,,,,,,,,,,,,,,,,,,,,,,,,,,,,,,,,,,,,,,,,,,,,,,,,,,,,,,,,,,,,,,,,,,,,,,,,,,,,,,,,,,,,,,,,,,,,,,,,,,,,,,,,,,,,,,,,,,,,,,,,,,,,,,,,,,,,,,,,,
0,72,72,53,1,,611e3b4ed4f4616be7914ffd,62bbfb7edd33c6b4ecf3589a,2022-06-29_09h15.07.691,Colour_Asymmetry_Pilot,2022.1.3,Win32,60.22645146,62bbe60bf3d75ef465d3e404,,,,,,,,,,,,,,,,,,,,,,,,,,,,,,,,,,,,,,,,,,,,,,,,,,,,,,,,,,,,,,,,,,,,,,,,,,,,,,,,,,,,,,,,,,,,,,,,,,,,,,,,,,,,,,,,,,,,,,,,,,,,,,,,,,,,,,,,,,,,,,,,,,,,,,,,,,,,,,
0,73,73,66,1,,611e3b4ed4f4616be7914ffd,62bbfb7edd33c6b4ecf3589a,2022-06-29_09h15.07.691,Colour_Asymmetry_Pilot,2022.1.3,Win32,60.22645146,62bbe60bf3d75ef465d3e404,,,,,,,,,,,,,,,,,,,,,,,,,,,,,,,,,,,,,,,,,,,,,,,,,,,,,,,,,,,,,,,,,,,,,,,,,,,,,,,,,,,,,,,,,,,,,,,,,,,,,,,,,,,,,,,,,,,,,,,,,,,,,,,,,,,,,,,,,,,,,,,,,,,,,,,,,,,,,,
0,74,74,57,1,,611e3b4ed4f4616be7914ffd,62bbfb7edd33c6b4ecf3589a,2022-06-29_09h15.07.691,Colour_Asymmetry_Pilot,2022.1.3,Win32,60.22645146,62bbe60bf3d75ef465d3e404,,,,,,,,,,,,,,,,,,,,,,,,,,,,,,,,,,,,,,,,,,,,,,,,,,,,,,,,,,,,,,,,,,,,,,,,,,,,,,,,,,,,,,,,,,,,,,,,,,,,,,,,,,,,,,,,,,,,,,,,,,,,,,,,,,,,,,,,,,,,,,,,,,,,,,,,,,,,,,
0,75,75,50,1,,611e3b4ed4f4616be7914ffd,62bbfb7edd33c6b4ecf3589a,2022-06-29_09h15.07.691,Colour_Asymmetry_Pilot,2022.1.3,Win32,60.22645146,62bbe60bf3d75ef465d3e404,,,,,,,,,,,,,,,,,,,,,,,,,,,,,,,,,,,,,,,,,,,,,,,,,,,,,,,,,,,,,,,,,,,,,,,,,,,,,,,,,,,,,,,,,,,,,,,,,,,,,,,,,,,,,,,,,,,,,,,,,,,,,,,,,,,,,,,,,,,,,,,,,,,,,,,,,,,,,,
0,76,76,83,1,,611e3b4ed4f4616be7914ffd,62bbfb7edd33c6b4ecf3589a,2022-06-29_09h15.07.691,Colour_Asymmetry_Pilot,2022.1.3,Win32,60.22645146,62bbe60bf3d75ef465d3e404,,,,,,,,,,,,,,,,,,,,,,,,,,,,,,,,,,,,,,,,,,,,,,,,,,,,,,,,,,,,,,,,,,,,,,,,,,,,,,,,,,,,,,,,,,,,,,,,,,,,,,,,,,,,,,,,,,,,,,,,,,,,,,,,,,,,,,,,,,,,,,,,,,,,,,,,,,,,,,
0,77,77,0,1,,611e3b4ed4f4616be7914ffd,62bbfb7edd33c6b4ecf3589a,2022-06-29_09h15.07.691,Colour_Asymmetry_Pilot,2022.1.3,Win32,60.22645146,62bbe60bf3d75ef465d3e404,,,,,,,,,,,,,,,,,,,,,,,,,,,,,,,,,,,,,,,,,,,,,,,,,,,,,,,,,,,,,,,,,,,,,,,,,,,,,,,,,,,,,,,,,,,,,,,,,,,,,,,,,,,,,,,,,,,,,,,,,,,,,,,,,,,,,,,,,,,,,,,,,,,,,,,,,,,,,,
0,78,78,49,1,,611e3b4ed4f4616be7914ffd,62bbfb7edd33c6b4ecf3589a,2022-06-29_09h15.07.691,Colour_Asymmetry_Pilot,2022.1.3,Win32,60.22645146,62bbe60bf3d75ef465d3e404,,,,,,,,,,,,,,,,,,,,,,,,,,,,,,,,,,,,,,,,,,,,,,,,,,,,,,,,,,,,,,,,,,,,,,,,,,,,,,,,,,,,,,,,,,,,,,,,,,,,,,,,,,,,,,,,,,,,,,,,,,,,,,,,,,,,,,,,,,,,,,,,,,,,,,,,,,,,,,
0,79,79,17,1,,611e3b4ed4f4616be7914ffd,62bbfb7edd33c6b4ecf3589a,2022-06-29_09h15.07.691,Colour_Asymmetry_Pilot,2022.1.3,Win32,60.22645146,62bbe60bf3d75ef465d3e404,,,,,,,,,,,,,,,,,,,,,,,,,,,,,,,,,,,,,,,,,,,,,,,,,,,,,,,,,,,,,,,,,,,,,,,,,,,,,,,,,,,,,,,,,,,,,,,,,,,,,,,,,,,,,,,,,,,,,,,,,,,,,,,,,,,,,,,,,,,,,,,,,,,,,,,,,,,,,,
0,80,80,60,1,,611e3b4ed4f4616be7914ffd,62bbfb7edd33c6b4ecf3589a,2022-06-29_09h15.07.691,Colour_Asymmetry_Pilot,2022.1.3,Win32,60.22645146,62bbe60bf3d75ef465d3e404,,,,,,,,,,,,,,,,,,,,,,,,,,,,,,,,,,,,,,,,,,,,,,,,,,,,,,,,,,,,,,,,,,,,,,,,,,,,,,,,,,,,,,,,,,,,,,,,,,,,,,,,,,,,,,,,,,,,,,,,,,,,,,,,,,,,,,,,,,,,,,,,,,,,,,,,,,,,,,
0,81,81,19,1,,611e3b4ed4f4616be7914ffd,62bbfb7edd33c6b4ecf3589a,2022-06-29_09h15.07.691,Colour_Asymmetry_Pilot,2022.1.3,Win32,60.22645146,62bbe60bf3d75ef465d3e404,,,,,,,,,,,,,,,,,,,,,,,,,,,,,,,,,,,,,,,,,,,,,,,,,,,,,,,,,,,,,,,,,,,,,,,,,,,,,,,,,,,,,,,,,,,,,,,,,,,,,,,,,,,,,,,,,,,,,,,,,,,,,,,,,,,,,,,,,,,,,,,,,,,,,,,,,,,,,,
0,82,82,75,1,,611e3b4ed4f4616be7914ffd,62bbfb7edd33c6b4ecf3589a,2022-06-29_09h15.07.691,Colour_Asymmetry_Pilot,2022.1.3,Win32,60.22645146,62bbe60bf3d75ef465d3e404,,,,,,,,,,,,,,,,,,,,,,,,,,,,,,,,,,,,,,,,,,,,,,,,,,,,,,,,,,,,,,,,,,,,,,,,,,,,,,,,,,,,,,,,,,,,,,,,,,,,,,,,,,,,,,,,,,,,,,,,,,,,,,,,,,,,,,,,,,,,,,,,,,,,,,,,,,,,,,
0,83,83,46,1,,611e3b4ed4f4616be7914ffd,62bbfb7edd33c6b4ecf3589a,2022-06-29_09h15.07.691,Colour_Asymmetry_Pilot,2022.1.3,Win32,60.22645146,62bbe60bf3d75ef465d3e404,,,,,,,,,,,,,,,,,,,,,,,,,,,,,,,,,,,,,,,,,,,,,,,,,,,,,,,,,,,,,,,,,,,,,,,,,,,,,,,,,,,,,,,,,,,,,,,,,,,,,,,,,,,,,,,,,,,,,,,,,,,,,,,,,,,,,,,,,,,,,,,,,,,,,,,,,,,,,,
0,84,84,33,1,,611e3b4ed4f4616be7914ffd,62bbfb7edd33c6b4ecf3589a,2022-06-29_09h15.07.691,Colour_Asymmetry_Pilot,2022.1.3,Win32,60.22645146,62bbe60bf3d75ef465d3e404,,,,,,,,,,,,,,,,,,,,,,,,,,,,,,,,,,,,,,,,,,,,,,,,,,,,,,,,,,,,,,,,,,,,,,,,,,,,,,,,,,,,,,,,,,,,,,,,,,,,,,,,,,,,,,,,,,,,,,,,,,,,,,,,,,,,,,,,,,,,,,,,,,,,,,,,,,,,,,
0,85,85,56,1,,611e3b4ed4f4616be7914ffd,62bbfb7edd33c6b4ecf3589a,2022-06-29_09h15.07.691,Colour_Asymmetry_Pilot,2022.1.3,Win32,60.22645146,62bbe60bf3d75ef465d3e404,,,,,,,,,,,,,,,,,,,,,,,,,,,,,,,,,,,,,,,,,,,,,,,,,,,,,,,,,,,,,,,,,,,,,,,,,,,,,,,,,,,,,,,,,,,,,,,,,,,,,,,,,,,,,,,,,,,,,,,,,,,,,,,,,,,,,,,,,,,,,,,,,,,,,,,,,,,,,,
0,86,86,65,1,,611e3b4ed4f4616be7914ffd,62bbfb7edd33c6b4ecf3589a,2022-06-29_09h15.07.691,Colour_Asymmetry_Pilot,2022.1.3,Win32,60.22645146,62bbe60bf3d75ef465d3e404,,,,,,,,,,,,,,,,,,,,,,,,,,,,,,,,,,,,,,,,,,,,,,,,,,,,,,,,,,,,,,,,,,,,,,,,,,,,,,,,,,,,,,,,,,,,,,,,,,,,,,,,,,,,,,,,,,,,,,,,,,,,,,,,,,,,,,,,,,,,,,,,,,,,,,,,,,,,,,
0,87,87,82,1,,611e3b4ed4f4616be7914ffd,62bbfb7edd33c6b4ecf3589a,2022-06-29_09h15.07.691,Colour_Asymmetry_Pilot,2022.1.3,Win32,60.22645146,62bbe60bf3d75ef465d3e404,,,,,,,,,,,,,,,,,,,,,,,,,,,,,,,,,,,,,,,,,,,,,,,,,,,,,,,,,,,,,,,,,,,,,,,,,,,,,,,,,,,,,,,,,,,,,,,,,,,,,,,,,,,,,,,,,,,,,,,,,,,,,,,,,,,,,,,,,,,,,,,,,,,,,,,,,,,,,,
0,88,88,32,1,,611e3b4ed4f4616be7914ffd,62bbfb7edd33c6b4ecf3589a,2022-06-29_09h15.07.691,Colour_Asymmetry_Pilot,2022.1.3,Win32,60.22645146,62bbe60bf3d75ef465d3e404,,,,,,,,,,,,,,,,,,,,,,,,,,,,,,,,,,,,,,,,,,,,,,,,,,,,,,,,,,,,,,,,,,,,,,,,,,,,,,,,,,,,,,,,,,,,,,,,,,,,,,,,,,,,,,,,,,,,,,,,,,,,,,,,,,,,,,,,,,,,,,,,,,,,,,,,,,,,,,
0,89,89,72,1,,611e3b4ed4f4616be7914ffd,62bbfb7edd33c6b4ecf3589a,2022-06-29_09h15.07.691,Colour_Asymmetry_Pilot,2022.1.3,Win32,60.22645146,62bbe60bf3d75ef465d3e404,,,,,,,,,,,,,,,,,,,,,,,,,,,,,,,,,,,,,,,,,,,,,,,,,,,,,,,,,,,,,,,,,,,,,,,,,,,,,,,,,,,,,,,,,,,,,,,,,,,,,,,,,,,,,,,,,,,,,,,,,,,,,,,,,,,,,,,,,,,,,,,,,,,,,,,,,,,,,,
0,90,90,13,1,,611e3b4ed4f4616be7914ffd,62bbfb7edd33c6b4ecf3589a,2022-06-29_09h15.07.691,Colour_Asymmetry_Pilot,2022.1.3,Win32,60.22645146,62bbe60bf3d75ef465d3e404,,,,,,,,,,,,,,,,,,,,,,,,,,,,,,,,,,,,,,,,,,,,,,,,,,,,,,,,,,,,,,,,,,,,,,,,,,,,,,,,,,,,,,,,,,,,,,,,,,,,,,,,,,,,,,,,,,,,,,,,,,,,,,,,,,,,,,,,,,,,,,,,,,,,,,,,,,,,,,
0,91,91,76,1,,611e3b4ed4f4616be7914ffd,62bbfb7edd33c6b4ecf3589a,2022-06-29_09h15.07.691,Colour_Asymmetry_Pilot,2022.1.3,Win32,60.22645146,62bbe60bf3d75ef465d3e404,,,,,,,,,,,,,,,,,,,,,,,,,,,,,,,,,,,,,,,,,,,,,,,,,,,,,,,,,,,,,,,,,,,,,,,,,,,,,,,,,,,,,,,,,,,,,,,,,,,,,,,,,,,,,,,,,,,,,,,,,,,,,,,,,,,,,,,,,,,,,,,,,,,,,,,,,,,,,,
0,92,92,62,1,,611e3b4ed4f4616be7914ffd,62bbfb7edd33c6b4ecf3589a,2022-06-29_09h15.07.691,Colour_Asymmetry_Pilot,2022.1.3,Win32,60.22645146,62bbe60bf3d75ef465d3e404,,,,,,,,,,,,,,,,,,,,,,,,,,,,,,,,,,,,,,,,,,,,,,,,,,,,,,,,,,,,,,,,,,,,,,,,,,,,,,,,,,,,,,,,,,,,,,,,,,,,,,,,,,,,,,,,,,,,,,,,,,,,,,,,,,,,,,,,,,,,,,,,,,,,,,,,,,,,,,
,,,,,,611e3b4ed4f4616be7914ffd,62bbfb7edd33c6b4ecf3589a,2022-06-29_09h15.07.691,Colour_Asymmetry_Pilot,2022.1.3,Win32,60.22645146,62bbe60bf3d75ef465d3e404,0,0,0,0,1,onetwo,,,,,,,,,,,,,,,,,,,,,,,,,,,,,,,,,,,,,,,,,,,,,,,,,,,,,,,,,,,,,,,,,,,,,,,,,,,,,,,,,,,,,,,,,,,,,,,,,,,,,,,,,,,,,,,,,,,,,,,,,,,,,,,,,,,,,,,,,,,,,,,,,,,,,,,,
,,,,,,611e3b4ed4f4616be7914ffd,62bbfb7edd33c6b4ecf3589a,2022-06-29_09h15.07.691,Colour_Asymmetry_Pilot,2022.1.3,Win32,60.22645146,62bbe60bf3d75ef465d3e404,0,1,1,76,1,threeone,,,,,,,,,,,,,,,,,,,,,,,,,,,,,,,,,,,,,,,,,,,,,,,,,,,,,,,,,,,,,,,,,,,,,,,,,,,,,,,,,,,,,,,,,,,,,,,,,,,,,,,,,,,,,,,,,,,,,,,,,,,,,,,,,,,,,,,,,,,,,,,,,,,,,,,,
,,,,,,611e3b4ed4f4616be7914ffd,62bbfb7edd33c6b4ecf3589a,2022-06-29_09h15.07.691,Colour_Asymmetry_Pilot,2022.1.3,Win32,60.22645146,62bbe60bf3d75ef465d3e404,0,2,2,69,1,threefour,,,,,,,,,,,,,,,,,,,,,,,,,,,,,,,,,,,,,,,,,,,,,,,,,,,,,,,,,,,,,,,,,,,,,,,,,,,,,,,,,,,,,,,,,,,,,,,,,,,,,,,,,,,,,,,,,,,,,,,,,,,,,,,,,,,,,,,,,,,,,,,,,,,,,,,,
,,,,,,611e3b4ed4f4616be7914ffd,62bbfb7edd33c6b4ecf3589a,2022-06-29_09h15.07.691,Colour_Asymmetry_Pilot,2022.1.3,Win32,60.22645146,62bbe60bf3d75ef465d3e404,0,3,3,90,1,twoone,,,,,,,,,,,,,,,,,,,,,,,,,,,,,,,,,,,,,,,,,,,,,,,,,,,,,,,,,,,,,,,,,,,,,,,,,,,,,,,,,,,,,,,,,,,,,,,,,,,,,,,,,,,,,,,,,,,,,,,,,,,,,,,,,,,,,,,,,,,,,,,,,,,,,,,,
,,,,,,611e3b4ed4f4616be7914ffd,62bbfb7edd33c6b4ecf3589a,2022-06-29_09h15.07.691,Colour_Asymmetry_Pilot,2022.1.3,Win32,60.22645146,62bbe60bf3d75ef465d3e404,0,4,4,127,1,fourthree,,,,,,,,,,,,,,,,,,,,,,,,,,,,,,,,,,,,,,,,,,,,,,,,,,,,,,,,,,,,,,,,,,,,,,,,,,,,,,,,,,,,,,,,,,,,,,,,,,,,,,,,,,,,,,,,,,,,,,,,,,,,,,,,,,,,,,,,,,,,,,,,,,,,,,,,
,,,,,,611e3b4ed4f4616be7914ffd,62bbfb7edd33c6b4ecf3589a,2022-06-29_09h15.07.691,Colour_Asymmetry_Pilot,2022.1.3,Win32,60.22645146,62bbe60bf3d75ef465d3e404,0,5,5,46,1,fourtwo,,,,,,,,,,,,,,,,,,,,,,,,,,,,,,,,,,,,,,,,,,,,,,,,,,,,,,,,,,,,,,,,,,,,,,,,,,,,,,,,,,,,,,,,,,,,,,,,,,,,,,,,,,,,,,,,,,,,,,,,,,,,,,,,,,,,,,,,,,,,,,,,,,,,,,,,
,,,,,,611e3b4ed4f4616be7914ffd,62bbfb7edd33c6b4ecf3589a,2022-06-29_09h15.07.691,Colour_Asymmetry_Pilot,2022.1.3,Win32,60.22645146,62bbe60bf3d75ef465d3e404,0,6,6,107,1,twofour,,,,,,,,,,,,,,,,,,,,,,,,,,,,,,,,,,,,,,,,,,,,,,,,,,,,,,,,,,,,,,,,,,,,,,,,,,,,,,,,,,,,,,,,,,,,,,,,,,,,,,,,,,,,,,,,,,,,,,,,,,,,,,,,,,,,,,,,,,,,,,,,,,,,,,,,
,,,,,,611e3b4ed4f4616be7914ffd,62bbfb7edd33c6b4ecf3589a,2022-06-29_09h15.07.691,Colour_Asymmetry_Pilot,2022.1.3,Win32,60.22645146,62bbe60bf3d75ef465d3e404,0,7,7,5,1,threefour,,,,,,,,,,,,,,,,,,,,,,,,,,,,,,,,,,,,,,,,,,,,,,,,,,,,,,,,,,,,,,,,,,,,,,,,,,,,,,,,,,,,,,,,,,,,,,,,,,,,,,,,,,,,,,,,,,,,,,,,,,,,,,,,,,,,,,,,,,,,,,,,,,,,,,,,
,,,,,,611e3b4ed4f4616be7914ffd,62bbfb7edd33c6b4ecf3589a,2022-06-29_09h15.07.691,Colour_Asymmetry_Pilot,2022.1.3,Win32,60.22645146,62bbe60bf3d75ef465d3e404,0,8,8,112,1,onetwo,,,,,,,,,,,,,,,,,,,,,,,,,,,,,,,,,,,,,,,,,,,,,,,,,,,,,,,,,,,,,,,,,,,,,,,,,,,,,,,,,,,,,,,,,,,,,,,,,,,,,,,,,,,,,,,,,,,,,,,,,,,,,,,,,,,,,,,,,,,,,,,,,,,,,,,,
,,,,,,611e3b4ed4f4616be7914ffd,62bbfb7edd33c6b4ecf3589a,2022-06-29_09h15.07.691,Colour_Asymmetry_Pilot,2022.1.3,Win32,60.22645146,62bbe60bf3d75ef465d3e404,0,9,9,53,1,threefour,,,,,,,,,,,,,,,,,,,,,,,,,,,,,,,,,,,,,,,,,,,,,,,,,,,,,,,,,,,,,,,,,,,,,,,,,,,,,,,,,,,,,,,,,,,,,,,,,,,,,,,,,,,,,,,,,,,,,,,,,,,,,,,,,,,,,,,,,,,,,,,,,,,,,,,,
,,,,,,611e3b4ed4f4616be7914ffd,62bbfb7edd33c6b4ecf3589a,2022-06-29_09h15.07.691,Colour_Asymmetry_Pilot,2022.1.3,Win32,60.22645146,62bbe60bf3d75ef465d3e404,0,10,10,51,1,twofour,,,,,,,,,,,,,,,,,,,,,,,,,,,,,,,,,,,,,,,,,,,,,,,,,,,,,,,,,,,,,,,,,,,,,,,,,,,,,,,,,,,,,,,,,,,,,,,,,,,,,,,,,,,,,,,,,,,,,,,,,,,,,,,,,,,,,,,,,,,,,,,,,,,,,,,,
,,,,,,611e3b4ed4f4616be7914ffd,62bbfb7edd33c6b4ecf3589a,2022-06-29_09h15.07.691,Colour_Asymmetry_Pilot,2022.1.3,Win32,60.22645146,62bbe60bf3d75ef465d3e404,0,11,11,45,1,threefour,,,,,,,,,,,,,,,,,,,,,,,,,,,,,,,,,,,,,,,,,,,,,,,,,,,,,,,,,,,,,,,,,,,,,,,,,,,,,,,,,,,,,,,,,,,,,,,,,,,,,,,,,,,,,,,,,,,,,,,,,,,,,,,,,,,,,,,,,,,,,,,,,,,,,,,,
,,,,,,611e3b4ed4f4616be7914ffd,62bbfb7edd33c6b4ecf3589a,2022-06-29_09h15.07.691,Colour_Asymmetry_Pilot,2022.1.3,Win32,60.22645146,62bbe60bf3d75ef465d3e404,0,12,12,135,1,fourthree,,,,,,,,,,,,,,,,,,,,,,,,,,,,,,,,,,,,,,,,,,,,,,,,,,,,,,,,,,,,,,,,,,,,,,,,,,,,,,,,,,,,,,,,,,,,,,,,,,,,,,,,,,,,,,,,,,,,,,,,,,,,,,,,,,,,,,,,,,,,,,,,,,,,,,,,
,,,,,,611e3b4ed4f4616be7914ffd,62bbfb7edd33c6b4ecf3589a,2022-06-29_09h15.07.691,Colour_Asymmetry_Pilot,2022.1.3,Win32,60.22645146,62bbe60bf3d75ef465d3e404,0,13,13,42,1,twoone,,,,,,,,,,,,,,,,,,,,,,,,,,,,,,,,,,,,,,,,,,,,,,,,,,,,,,,,,,,,,,,,,,,,,,,,,,,,,,,,,,,,,,,,,,,,,,,,,,,,,,,,,,,,,,,,,,,,,,,,,,,,,,,,,,,,,,,,,,,,,,,,,,,,,,,,
,,,,,,611e3b4ed4f4616be7914ffd,62bbfb7edd33c6b4ecf3589a,2022-06-29_09h15.07.691,Colour_Asymmetry_Pilot,2022.1.3,Win32,60.22645146,62bbe60bf3d75ef465d3e404,0,14,14,40,1,onetwo,,,,,,,,,,,,,,,,,,,,,,,,,,,,,,,,,,,,,,,,,,,,,,,,,,,,,,,,,,,,,,,,,,,,,,,,,,,,,,,,,,,,,,,,,,,,,,,,,,,,,,,,,,,,,,,,,,,,,,,,,,,,,,,,,,,,,,,,,,,,,,,,,,,,,,,,
,,,,,,611e3b4ed4f4616be7914ffd,62bbfb7edd33c6b4ecf3589a,2022-06-29_09h15.07.691,Colour_Asymmetry_Pilot,2022.1.3,Win32,60.22645146,62bbe60bf3d75ef465d3e404,0,15,15,97,1,onethree,,,,,,,,,,,,,,,,,,,,,,,,,,,,,,,,,,,,,,,,,,,,,,,,,,,,,,,,,,,,,,,,,,,,,,,,,,,,,,,,,,,,,,,,,,,,,,,,,,,,,,,,,,,,,,,,,,,,,,,,,,,,,,,,,,,,,,,,,,,,,,,,,,,,,,,,
,,,,,,611e3b4ed4f4616be7914ffd,62bbfb7edd33c6b4ecf3589a,2022-06-29_09h15.07.691,Colour_Asymmetry_Pilot,2022.1.3,Win32,60.22645146,62bbe60bf3d75ef465d3e404,0,16,16,144,1,onetwo,,,,,,,,,,,,,,,,,,,,,,,,,,,,,,,,,,,,,,,,,,,,,,,,,,,,,,,,,,,,,,,,,,,,,,,,,,,,,,,,,,,,,,,,,,,,,,,,,,,,,,,,,,,,,,,,,,,,,,,,,,,,,,,,,,,,,,,,,,,,,,,,,,,,,,,,
,,,,,,611e3b4ed4f4616be7914ffd,62bbfb7edd33c6b4ecf3589a,2022-06-29_09h15.07.691,Colour_Asymmetry_Pilot,2022.1.3,Win32,60.22645146,62bbe60bf3d75ef465d3e404,0,17,17,86,1,fourtwo,,,,,,,,,,,,,,,,,,,,,,,,,,,,,,,,,,,,,,,,,,,,,,,,,,,,,,,,,,,,,,,,,,,,,,,,,,,,,,,,,,,,,,,,,,,,,,,,,,,,,,,,,,,,,,,,,,,,,,,,,,,,,,,,,,,,,,,,,,,,,,,,,,,,,,,,
,,,,,,611e3b4ed4f4616be7914ffd,62bbfb7edd33c6b4ecf3589a,2022-06-29_09h15.07.691,Colour_Asymmetry_Pilot,2022.1.3,Win32,60.22645146,62bbe60bf3d75ef465d3e404,0,18,18,29,1,threefour,,,,,,,,,,,,,,,,,,,,,,,,,,,,,,,,,,,,,,,,,,,,,,,,,,,,,,,,,,,,,,,,,,,,,,,,,,,,,,,,,,,,,,,,,,,,,,,,,,,,,,,,,,,,,,,,,,,,,,,,,,,,,,,,,,,,,,,,,,,,,,,,,,,,,,,,
,,,,,,611e3b4ed4f4616be7914ffd,62bbfb7edd33c6b4ecf3589a,2022-06-29_09h15.07.691,Colour_Asymmetry_Pilot,2022.1.3,Win32,60.22645146,62bbe60bf3d75ef465d3e404,0,19,19,128,1,onetwo,,,,,,,,,,,,,,,,,,,,,,,,,,,,,,,,,,,,,,,,,,,,,,,,,,,,,,,,,,,,,,,,,,,,,,,,,,,,,,,,,,,,,,,,,,,,,,,,,,,,,,,,,,,,,,,,,,,,,,,,,,,,,,,,,,,,,,,,,,,,,,,,,,,,,,,,
,,,,,,611e3b4ed4f4616be7914ffd,62bbfb7edd33c6b4ecf3589a,2022-06-29_09h15.07.691,Colour_Asymmetry_Pilot,2022.1.3,Win32,60.22645146,62bbe60bf3d75ef465d3e404,0,20,20,50,1,twoone,,,,,,,,,,,,,,,,,,,,,,,,,,,,,,,,,,,,,,,,,,,,,,,,,,,,,,,,,,,,,,,,,,,,,,,,,,,,,,,,,,,,,,,,,,,,,,,,,,,,,,,,,,,,,,,,,,,,,,,,,,,,,,,,,,,,,,,,,,,,,,,,,,,,,,,,
,,,,,,611e3b4ed4f4616be7914ffd,62bbfb7edd33c6b4ecf3589a,2022-06-29_09h15.07.691,Colour_Asymmetry_Pilot,2022.1.3,Win32,60.22645146,62bbe60bf3d75ef465d3e404,0,21,21,152,1,onetwo,,,,,,,,,,,,,,,,,,,,,,,,,,,,,,,,,,,,,,,,,,,,,,,,,,,,,,,,,,,,,,,,,,,,,,,,,,,,,,,,,,,,,,,,,,,,,,,,,,,,,,,,,,,,,,,,,,,,,,,,,,,,,,,,,,,,,,,,,,,,,,,,,,,,,,,,
,,,,,,611e3b4ed4f4616be7914ffd,62bbfb7edd33c6b4ecf3589a,2022-06-29_09h15.07.691,Colour_Asymmetry_Pilot,2022.1.3,Win32,60.22645146,62bbe60bf3d75ef465d3e404,0,22,22,94,1,fourtwo,,,,,,,,,,,,,,,,,,,,,,,,,,,,,,,,,,,,,,,,,,,,,,,,,,,,,,,,,,,,,,,,,,,,,,,,,,,,,,,,,,,,,,,,,,,,,,,,,,,,,,,,,,,,,,,,,,,,,,,,,,,,,,,,,,,,,,,,,,,,,,,,,,,,,,,,
,,,,,,611e3b4ed4f4616be7914ffd,62bbfb7edd33c6b4ecf3589a,2022-06-29_09h15.07.691,Colour_Asymmetry_Pilot,2022.1.3,Win32,60.22645146,62bbe60bf3d75ef465d3e404,0,23,23,122,1,twoone,,,,,,,,,,,,,,,,,,,,,,,,,,,,,,,,,,,,,,,,,,,,,,,,,,,,,,,,,,,,,,,,,,,,,,,,,,,,,,,,,,,,,,,,,,,,,,,,,,,,,,,,,,,,,,,,,,,,,,,,,,,,,,,,,,,,,,,,,,,,,,,,,,,,,,,,
,,,,,,611e3b4ed4f4616be7914ffd,62bbfb7edd33c6b4ecf3589a,2022-06-29_09h15.07.691,Colour_Asymmetry_Pilot,2022.1.3,Win32,60.22645146,62bbe60bf3d75ef465d3e404,0,24,24,27,1,twofour,,,,,,,,,,,,,,,,,,,,,,,,,,,,,,,,,,,,,,,,,,,,,,,,,,,,,,,,,,,,,,,,,,,,,,,,,,,,,,,,,,,,,,,,,,,,,,,,,,,,,,,,,,,,,,,,,,,,,,,,,,,,,,,,,,,,,,,,,,,,,,,,,,,,,,,,
,,,,,,611e3b4ed4f4616be7914ffd,62bbfb7edd33c6b4ecf3589a,2022-06-29_09h15.07.691,Colour_Asymmetry_Pilot,2022.1.3,Win32,60.22645146,62bbe60bf3d75ef465d3e404,0,25,25,24,1,onetwo,,,,,,,,,,,,,,,,,,,,,,,,,,,,,,,,,,,,,,,,,,,,,,,,,,,,,,,,,,,,,,,,,,,,,,,,,,,,,,,,,,,,,,,,,,,,,,,,,,,,,,,,,,,,,,,,,,,,,,,,,,,,,,,,,,,,,,,,,,,,,,,,,,,,,,,,
,,,,,,611e3b4ed4f4616be7914ffd,62bbfb7edd33c6b4ecf3589a,2022-06-29_09h15.07.691,Colour_Asymmetry_Pilot,2022.1.3,Win32,60.22645146,62bbe60bf3d75ef465d3e404,0,26,26,20,1,threeone,,,,,,,,,,,,,,,,,,,,,,,,,,,,,,,,,,,,,,,,,,,,,,,,,,,,,,,,,,,,,,,,,,,,,,,,,,,,,,,,,,,,,,,,,,,,,,,,,,,,,,,,,,,,,,,,,,,,,,,,,,,,,,,,,,,,,,,,,,,,,,,,,,,,,,,,
,,,,,,611e3b4ed4f4616be7914ffd,62bbfb7edd33c6b4ecf3589a,2022-06-29_09h15.07.691,Colour_Asymmetry_Pilot,2022.1.3,Win32,60.22645146,62bbe60bf3d75ef465d3e404,0,27,27,7,1,fourthree,,,,,,,,,,,,,,,,,,,,,,,,,,,,,,,,,,,,,,,,,,,,,,,,,,,,,,,,,,,,,,,,,,,,,,,,,,,,,,,,,,,,,,,,,,,,,,,,,,,,,,,,,,,,,,,,,,,,,,,,,,,,,,,,,,,,,,,,,,,,,,,,,,,,,,,,
,,,,,,611e3b4ed4f4616be7914ffd,62bbfb7edd33c6b4ecf3589a,2022-06-29_09h15.07.691,Colour_Asymmetry_Pilot,2022.1.3,Win32,60.22645146,62bbe60bf3d75ef465d3e404,0,28,28,119,1,fourthree,,,,,,,,,,,,,,,,,,,,,,,,,,,,,,,,,,,,,,,,,,,,,,,,,,,,,,,,,,,,,,,,,,,,,,,,,,,,,,,,,,,,,,,,,,,,,,,,,,,,,,,,,,,,,,,,,,,,,,,,,,,,,,,,,,,,,,,,,,,,,,,,,,,,,,,,
,,,,,,611e3b4ed4f4616be7914ffd,62bbfb7edd33c6b4ecf3589a,2022-06-29_09h15.07.691,Colour_Asymmetry_Pilot,2022.1.3,Win32,60.22645146,62bbe60bf3d75ef465d3e404,0,29,29,108,1,threeone,,,,,,,,,,,,,,,,,,,,,,,,,,,,,,,,,,,,,,,,,,,,,,,,,,,,,,,,,,,,,,,,,,,,,,,,,,,,,,,,,,,,,,,,,,,,,,,,,,,,,,,,,,,,,,,,,,,,,,,,,,,,,,,,,,,,,,,,,,,,,,,,,,,,,,,,
,,,,,,611e3b4ed4f4616be7914ffd,62bbfb7edd33c6b4ecf3589a,2022-06-29_09h15.07.691,Colour_Asymmetry_Pilot,2022.1.3,Win32,60.22645146,62bbe60bf3d75ef465d3e404,0,30,30,136,1,onetwo,,,,,,,,,,,,,,,,,,,,,,,,,,,,,,,,,,,,,,,,,,,,,,,,,,,,,,,,,,,,,,,,,,,,,,,,,,,,,,,,,,,,,,,,,,,,,,,,,,,,,,,,,,,,,,,,,,,,,,,,,,,,,,,,,,,,,,,,,,,,,,,,,,,,,,,,
,,,,,,611e3b4ed4f4616be7914ffd,62bbfb7edd33c6b4ecf3589a,2022-06-29_09h15.07.691,Colour_Asymmetry_Pilot,2022.1.3,Win32,60.22645146,62bbe60bf3d75ef465d3e404,0,31,31,93,1,threefour,,,,,,,,,,,,,,,,,,,,,,,,,,,,,,,,,,,,,,,,,,,,,,,,,,,,,,,,,,,,,,,,,,,,,,,,,,,,,,,,,,,,,,,,,,,,,,,,,,,,,,,,,,,,,,,,,,,,,,,,,,,,,,,,,,,,,,,,,,,,,,,,,,,,,,,,
,,,,,,611e3b4ed4f4616be7914ffd,62bbfb7edd33c6b4ecf3589a,2022-06-29_09h15.07.691,Colour_Asymmetry_Pilot,2022.1.3,Win32,60.22645146,62bbe60bf3d75ef465d3e404,0,32,32,120,1,onetwo,,,,,,,,,,,,,,,,,,,,,,,,,,,,,,,,,,,,,,,,,,,,,,,,,,,,,,,,,,,,,,,,,,,,,,,,,,,,,,,,,,,,,,,,,,,,,,,,,,,,,,,,,,,,,,,,,,,,,,,,,,,,,,,,,,,,,,,,,,,,,,,,,,,,,,,,
,,,,,,611e3b4ed4f4616be7914ffd,62bbfb7edd33c6b4ecf3589a,2022-06-29_09h15.07.691,Colour_Asymmetry_Pilot,2022.1.3,Win32,60.22645146,62bbe60bf3d75ef465d3e404,0,33,33,10,1,twoone,,,,,,,,,,,,,,,,,,,,,,,,,,,,,,,,,,,,,,,,,,,,,,,,,,,,,,,,,,,,,,,,,,,,,,,,,,,,,,,,,,,,,,,,,,,,,,,,,,,,,,,,,,,,,,,,,,,,,,,,,,,,,,,,,,,,,,,,,,,,,,,,,,,,,,,,
,,,,,,611e3b4ed4f4616be7914ffd,62bbfb7edd33c6b4ecf3589a,2022-06-29_09h15.07.691,Colour_Asymmetry_Pilot,2022.1.3,Win32,60.22645146,62bbe60bf3d75ef465d3e404,0,34,34,160,1,onetwo,,,,,,,,,,,,,,,,,,,,,,,,,,,,,,,,,,,,,,,,,,,,,,,,,,,,,,,,,,,,,,,,,,,,,,,,,,,,,,,,,,,,,,,,,,,,,,,,,,,,,,,,,,,,,,,,,,,,,,,,,,,,,,,,,,,,,,,,,,,,,,,,,,,,,,,,
,,,,,,611e3b4ed4f4616be7914ffd,62bbfb7edd33c6b4ecf3589a,2022-06-29_09h15.07.691,Colour_Asymmetry_Pilot,2022.1.3,Win32,60.22645146,62bbe60bf3d75ef465d3e404,0,35,35,95,1,fourthree,,,,,,,,,,,,,,,,,,,,,,,,,,,,,,,,,,,,,,,,,,,,,,,,,,,,,,,,,,,,,,,,,,,,,,,,,,,,,,,,,,,,,,,,,,,,,,,,,,,,,,,,,,,,,,,,,,,,,,,,,,,,,,,,,,,,,,,,,,,,,,,,,,,,,,,,
,,,,,,611e3b4ed4f4616be7914ffd,62bbfb7edd33c6b4ecf3589a,2022-06-29_09h15.07.691,Colour_Asymmetry_Pilot,2022.1.3,Win32,60.22645146,62bbe60bf3d75ef465d3e404,0,36,36,131,1,twofour,,,,,,,,,,,,,,,,,,,,,,,,,,,,,,,,,,,,,,,,,,,,,,,,,,,,,,,,,,,,,,,,,,,,,,,,,,,,,,,,,,,,,,,,,,,,,,,,,,,,,,,,,,,,,,,,,,,,,,,,,,,,,,,,,,,,,,,,,,,,,,,,,,,,,,,,
,,,,,,611e3b4ed4f4616be7914ffd,62bbfb7edd33c6b4ecf3589a,2022-06-29_09h15.07.691,Colour_Asymmetry_Pilot,2022.1.3,Win32,60.22645146,62bbe60bf3d75ef465d3e404,0,37,37,153,1,onethree,,,,,,,,,,,,,,,,,,,,,,,,,,,,,,,,,,,,,,,,,,,,,,,,,,,,,,,,,,,,,,,,,,,,,,,,,,,,,,,,,,,,,,,,,,,,,,,,,,,,,,,,,,,,,,,,,,,,,,,,,,,,,,,,,,,,,,,,,,,,,,,,,,,,,,,,
,,,,,,611e3b4ed4f4616be7914ffd,62bbfb7edd33c6b4ecf3589a,2022-06-29_09h15.07.691,Colour_Asymmetry_Pilot,2022.1.3,Win32,60.22645146,62bbe60bf3d75ef465d3e404,0,38,38,38,1,fourtwo,,,,,,,,,,,,,,,,,,,,,,,,,,,,,,,,,,,,,,,,,,,,,,,,,,,,,,,,,,,,,,,,,,,,,,,,,,,,,,,,,,,,,,,,,,,,,,,,,,,,,,,,,,,,,,,,,,,,,,,,,,,,,,,,,,,,,,,,,,,,,,,,,,,,,,,,
,,,,,,611e3b4ed4f4616be7914ffd,62bbfb7edd33c6b4ecf3589a,2022-06-29_09h15.07.691,Colour_Asymmetry_Pilot,2022.1.3,Win32,60.22645146,62bbe60bf3d75ef465d3e404,0,39,39,99,1,twofour,,,,,,,,,,,,,,,,,,,,,,,,,,,,,,,,,,,,,,,,,,,,,,,,,,,,,,,,,,,,,,,,,,,,,,,,,,,,,,,,,,,,,,,,,,,,,,,,,,,,,,,,,,,,,,,,,,,,,,,,,,,,,,,,,,,,,,,,,,,,,,,,,,,,,,,,
,,,,,,611e3b4ed4f4616be7914ffd,62bbfb7edd33c6b4ecf3589a,2022-06-29_09h15.07.691,Colour_Asymmetry_Pilot,2022.1.3,Win32,60.22645146,62bbe60bf3d75ef465d3e404,0,40,40,17,1,onethree,,,,,,,,,,,,,,,,,,,,,,,,,,,,,,,,,,,,,,,,,,,,,,,,,,,,,,,,,,,,,,,,,,,,,,,,,,,,,,,,,,,,,,,,,,,,,,,,,,,,,,,,,,,,,,,,,,,,,,,,,,,,,,,,,,,,,,,,,,,,,,,,,,,,,,,,
,,,,,,611e3b4ed4f4616be7914ffd,62bbfb7edd33c6b4ecf3589a,2022-06-29_09h15.07.691,Colour_Asymmetry_Pilot,2022.1.3,Win32,60.22645146,62bbe60bf3d75ef465d3e404,0,41,41,142,1,fourtwo,,,,,,,,,,,,,,,,,,,,,,,,,,,,,,,,,,,,,,,,,,,,,,,,,,,,,,,,,,,,,,,,,,,,,,,,,,,,,,,,,,,,,,,,,,,,,,,,,,,,,,,,,,,,,,,,,,,,,,,,,,,,,,,,,,,,,,,,,,,,,,,,,,,,,,,,
,,,,,,611e3b4ed4f4616be7914ffd,62bbfb7edd33c6b4ecf3589a,2022-06-29_09h15.07.691,Colour_Asymmetry_Pilot,2022.1.3,Win32,60.22645146,62bbe60bf3d75ef465d3e404,0,42,42,81,1,onethree,,,,,,,,,,,,,,,,,,,,,,,,,,,,,,,,,,,,,,,,,,,,,,,,,,,,,,,,,,,,,,,,,,,,,,,,,,,,,,,,,,,,,,,,,,,,,,,,,,,,,,,,,,,,,,,,,,,,,,,,,,,,,,,,,,,,,,,,,,,,,,,,,,,,,,,,
,,,,,,611e3b4ed4f4616be7914ffd,62bbfb7edd33c6b4ecf3589a,2022-06-29_09h15.07.691,Colour_Asymmetry_Pilot,2022.1.3,Win32,60.22645146,62bbe60bf3d75ef465d3e404,0,43,43,14,1,fourtwo,,,,,,,,,,,,,,,,,,,,,,,,,,,,,,,,,,,,,,,,,,,,,,,,,,,,,,,,,,,,,,,,,,,,,,,,,,,,,,,,,,,,,,,,,,,,,,,,,,,,,,,,,,,,,,,,,,,,,,,,,,,,,,,,,,,,,,,,,,,,,,,,,,,,,,,,
,,,,,,611e3b4ed4f4616be7914ffd,62bbfb7edd33c6b4ecf3589a,2022-06-29_09h15.07.691,Colour_Asymmetry_Pilot,2022.1.3,Win32,60.22645146,62bbe60bf3d75ef465d3e404,0,44,44,137,1,onethree,,,,,,,,,,,,,,,,,,,,,,,,,,,,,,,,,,,,,,,,,,,,,,,,,,,,,,,,,,,,,,,,,,,,,,,,,,,,,,,,,,,,,,,,,,,,,,,,,,,,,,,,,,,,,,,,,,,,,,,,,,,,,,,,,,,,,,,,,,,,,,,,,,,,,,,,
,,,,,,611e3b4ed4f4616be7914ffd,62bbfb7edd33c6b4ecf3589a,2022-06-29_09h15.07.691,Colour_Asymmetry_Pilot,2022.1.3,Win32,60.22645146,62bbe60bf3d75ef465d3e404,0,45,45,96,1,onetwo,,,,,,,,,,,,,,,,,,,,,,,,,,,,,,,,,,,,,,,,,,,,,,,,,,,,,,,,,,,,,,,,,,,,,,,,,,,,,,,,,,,,,,,,,,,,,,,,,,,,,,,,,,,,,,,,,,,,,,,,,,,,,,,,,,,,,,,,,,,,,,,,,,,,,,,,
,,,,,,611e3b4ed4f4616be7914ffd,62bbfb7edd33c6b4ecf3589a,2022-06-29_09h15.07.691,Colour_Asymmetry_Pilot,2022.1.3,Win32,60.22645146,62bbe60bf3d75ef465d3e404,0,46,46,109,1,threefour,,,,,,,,,,,,,,,,,,,,,,,,,,,,,,,,,,,,,,,,,,,,,,,,,,,,,,,,,,,,,,,,,,,,,,,,,,,,,,,,,,,,,,,,,,,,,,,,,,,,,,,,,,,,,,,,,,,,,,,,,,,,,,,,,,,,,,,,,,,,,,,,,,,,,,,,
,,,,,,611e3b4ed4f4616be7914ffd,62bbfb7edd33c6b4ecf3589a,2022-06-29_09h15.07.691,Colour_Asymmetry_Pilot,2022.1.3,Win32,60.22645146,62bbe60bf3d75ef465d3e404,0,47,47,98,1,twoone,,,,,,,,,,,,,,,,,,,,,,,,,,,,,,,,,,,,,,,,,,,,,,,,,,,,,,,,,,,,,,,,,,,,,,,,,,,,,,,,,,,,,,,,,,,,,,,,,,,,,,,,,,,,,,,,,,,,,,,,,,,,,,,,,,,,,,,,,,,,,,,,,,,,,,,,
,,,,,,611e3b4ed4f4616be7914ffd,62bbfb7edd33c6b4ecf3589a,2022-06-29_09h15.07.691,Colour_Asymmetry_Pilot,2022.1.3,Win32,60.22645146,62bbe60bf3d75ef465d3e404,0,48,48,123,1,twofour,,,,,,,,,,,,,,,,,,,,,,,,,,,,,,,,,,,,,,,,,,,,,,,,,,,,,,,,,,,,,,,,,,,,,,,,,,,,,,,,,,,,,,,,,,,,,,,,,,,,,,,,,,,,,,,,,,,,,,,,,,,,,,,,,,,,,,,,,,,,,,,,,,,,,,,,
,,,,,,611e3b4ed4f4616be7914ffd,62bbfb7edd33c6b4ecf3589a,2022-06-29_09h15.07.691,Colour_Asymmetry_Pilot,2022.1.3,Win32,60.22645146,62bbe60bf3d75ef465d3e404,0,49,49,31,1,fourthree,,,,,,,,,,,,,,,,,,,,,,,,,,,,,,,,,,,,,,,,,,,,,,,,,,,,,,,,,,,,,,,,,,,,,,,,,,,,,,,,,,,,,,,,,,,,,,,,,,,,,,,,,,,,,,,,,,,,,,,,,,,,,,,,,,,,,,,,,,,,,,,,,,,,,,,,
,,,,,,611e3b4ed4f4616be7914ffd,62bbfb7edd33c6b4ecf3589a,2022-06-29_09h15.07.691,Colour_Asymmetry_Pilot,2022.1.3,Win32,60.22645146,62bbe60bf3d75ef465d3e404,0,50,50,49,1,onethree,,,,,,,,,,,,,,,,,,,,,,,,,,,,,,,,,,,,,,,,,,,,,,,,,,,,,,,,,,,,,,,,,,,,,,,,,,,,,,,,,,,,,,,,,,,,,,,,,,,,,,,,,,,,,,,,,,,,,,,,,,,,,,,,,,,,,,,,,,,,,,,,,,,,,,,,
,,,,,,611e3b4ed4f4616be7914ffd,62bbfb7edd33c6b4ecf3589a,2022-06-29_09h15.07.691,Colour_Asymmetry_Pilot,2022.1.3,Win32,60.22645146,62bbe60bf3d75ef465d3e404,0,51,51,57,1,onethree,,,,,,,,,,,,,,,,,,,,,,,,,,,,,,,,,,,,,,,,,,,,,,,,,,,,,,,,,,,,,,,,,,,,,,,,,,,,,,,,,,,,,,,,,,,,,,,,,,,,,,,,,,,,,,,,,,,,,,,,,,,,,,,,,,,,,,,,,,,,,,,,,,,,,,,,
,,,,,,611e3b4ed4f4616be7914ffd,62bbfb7edd33c6b4ecf3589a,2022-06-29_09h15.07.691,Colour_Asymmetry_Pilot,2022.1.3,Win32,60.22645146,62bbe60bf3d75ef465d3e404,0,52,52,28,1,threeone,,,,,,,,,,,,,,,,,,,,,,,,,,,,,,,,,,,,,,,,,,,,,,,,,,,,,,,,,,,,,,,,,,,,,,,,,,,,,,,,,,,,,,,,,,,,,,,,,,,,,,,,,,,,,,,,,,,,,,,,,,,,,,,,,,,,,,,,,,,,,,,,,,,,,,,,
,,,,,,611e3b4ed4f4616be7914ffd,62bbfb7edd33c6b4ecf3589a,2022-06-29_09h15.07.691,Colour_Asymmetry_Pilot,2022.1.3,Win32,60.22645146,62bbe60bf3d75ef465d3e404,0,53,53,66,1,twoone,,,,,,,,,,,,,,,,,,,,,,,,,,,,,,,,,,,,,,,,,,,,,,,,,,,,,,,,,,,,,,,,,,,,,,,,,,,,,,,,,,,,,,,,,,,,,,,,,,,,,,,,,,,,,,,,,,,,,,,,,,,,,,,,,,,,,,,,,,,,,,,,,,,,,,,,
,,,,,,611e3b4ed4f4616be7914ffd,62bbfb7edd33c6b4ecf3589a,2022-06-29_09h15.07.691,Colour_Asymmetry_Pilot,2022.1.3,Win32,60.22645146,62bbe60bf3d75ef465d3e404,0,54,54,126,1,fourtwo,,,,,,,,,,,,,,,,,,,,,,,,,,,,,,,,,,,,,,,,,,,,,,,,,,,,,,,,,,,,,,,,,,,,,,,,,,,,,,,,,,,,,,,,,,,,,,,,,,,,,,,,,,,,,,,,,,,,,,,,,,,,,,,,,,,,,,,,,,,,,,,,,,,,,,,,
,,,,,,611e3b4ed4f4616be7914ffd,62bbfb7edd33c6b4ecf3589a,2022-06-29_09h15.07.691,Colour_Asymmetry_Pilot,2022.1.3,Win32,60.22645146,62bbe60bf3d75ef465d3e404,0,55,55,72,1,onetwo,,,,,,,,,,,,,,,,,,,,,,,,,,,,,,,,,,,,,,,,,,,,,,,,,,,,,,,,,,,,,,,,,,,,,,,,,,,,,,,,,,,,,,,,,,,,,,,,,,,,,,,,,,,,,,,,,,,,,,,,,,,,,,,,,,,,,,,,,,,,,,,,,,,,,,,,
,,,,,,611e3b4ed4f4616be7914ffd,62bbfb7edd33c6b4ecf3589a,2022-06-29_09h15.07.691,Colour_Asymmetry_Pilot,2022.1.3,Win32,60.22645146,62bbe60bf3d75ef465d3e404,0,56,56,130,1,twoone,,,,,,,,,,,,,,,,,,,,,,,,,,,,,,,,,,,,,,,,,,,,,,,,,,,,,,,,,,,,,,,,,,,,,,,,,,,,,,,,,,,,,,,,,,,,,,,,,,,,,,,,,,,,,,,,,,,,,,,,,,,,,,,,,,,,,,,,,,,,,,,,,,,,,,,,
,,,,,,611e3b4ed4f4616be7914ffd,62bbfb7edd33c6b4ecf3589a,2022-06-29_09h15.07.691,Colour_Asymmetry_Pilot,2022.1.3,Win32,60.22645146,62bbe60bf3d75ef465d3e404,0,57,57,16,1,onetwo,,,,,,,,,,,,,,,,,,,,,,,,,,,,,,,,,,,,,,,,,,,,,,,,,,,,,,,,,,,,,,,,,,,,,,,,,,,,,,,,,,,,,,,,,,,,,,,,,,,,,,,,,,,,,,,,,,,,,,,,,,,,,,,,,,,,,,,,,,,,,,,,,,,,,,,,
,,,,,,611e3b4ed4f4616be7914ffd,62bbfb7edd33c6b4ecf3589a,2022-06-29_09h15.07.691,Colour_Asymmetry_Pilot,2022.1.3,Win32,60.22645146,62bbe60bf3d75ef465d3e404,0,58,58,155,1,twofour,,,,,,,,,,,,,,,,,,,,,,,,,,,,,,,,,,,,,,,,,,,,,,,,,,,,,,,,,,,,,,,,,,,,,,,,,,,,,,,,,,,,,,,,,,,,,,,,,,,,,,,,,,,,,,,,,,,,,,,,,,,,,,,,,,,,,,,,,,,,,,,,,,,,,,,,
,,,,,,611e3b4ed4f4616be7914ffd,62bbfb7edd33c6b4ecf3589a,2022-06-29_09h15.07.691,Colour_Asymmetry_Pilot,2022.1.3,Win32,60.22645146,62bbe60bf3d75ef465d3e404,0,59,59,75,1,twofour,,,,,,,,,,,,,,,,,,,,,,,,,,,,,,,,,,,,,,,,,,,,,,,,,,,,,,,,,,,,,,,,,,,,,,,,,,,,,,,,,,,,,,,,,,,,,,,,,,,,,,,,,,,,,,,,,,,,,,,,,,,,,,,,,,,,,,,,,,,,,,,,,,,,,,,,
,,,,,,611e3b4ed4f4616be7914ffd,62bbfb7edd33c6b4ecf3589a,2022-06-29_09h15.07.691,Colour_Asymmetry_Pilot,2022.1.3,Win32,60.22645146,62bbe60bf3d75ef465d3e404,0,60,60,58,1,twoone,,,,,,,,,,,,,,,,,,,,,,,,,,,,,,,,,,,,,,,,,,,,,,,,,,,,,,,,,,,,,,,,,,,,,,,,,,,,,,,,,,,,,,,,,,,,,,,,,,,,,,,,,,,,,,,,,,,,,,,,,,,,,,,,,,,,,,,,,,,,,,,,,,,,,,,,
,,,,,,611e3b4ed4f4616be7914ffd,62bbfb7edd33c6b4ecf3589a,2022-06-29_09h15.07.691,Colour_Asymmetry_Pilot,2022.1.3,Win32,60.22645146,62bbe60bf3d75ef465d3e404,0,61,61,71,1,fourthree,,,,,,,,,,,,,,,,,,,,,,,,,,,,,,,,,,,,,,,,,,,,,,,,,,,,,,,,,,,,,,,,,,,,,,,,,,,,,,,,,,,,,,,,,,,,,,,,,,,,,,,,,,,,,,,,,,,,,,,,,,,,,,,,,,,,,,,,,,,,,,,,,,,,,,,,
,,,,,,611e3b4ed4f4616be7914ffd,62bbfb7edd33c6b4ecf3589a,2022-06-29_09h15.07.691,Colour_Asymmetry_Pilot,2022.1.3,Win32,60.22645146,62bbe60bf3d75ef465d3e404,0,62,62,74,1,twoone,,,,,,,,,,,,,,,,,,,,,,,,,,,,,,,,,,,,,,,,,,,,,,,,,,,,,,,,,,,,,,,,,,,,,,,,,,,,,,,,,,,,,,,,,,,,,,,,,,,,,,,,,,,,,,,,,,,,,,,,,,,,,,,,,,,,,,,,,,,,,,,,,,,,,,,,
,,,,,,611e3b4ed4f4616be7914ffd,62bbfb7edd33c6b4ecf3589a,2022-06-29_09h15.07.691,Colour_Asymmetry_Pilot,2022.1.3,Win32,60.22645146,62bbe60bf3d75ef465d3e404,0,63,63,43,1,twofour,,,,,,,,,,,,,,,,,,,,,,,,,,,,,,,,,,,,,,,,,,,,,,,,,,,,,,,,,,,,,,,,,,,,,,,,,,,,,,,,,,,,,,,,,,,,,,,,,,,,,,,,,,,,,,,,,,,,,,,,,,,,,,,,,,,,,,,,,,,,,,,,,,,,,,,,
,,,,,,611e3b4ed4f4616be7914ffd,62bbfb7edd33c6b4ecf3589a,2022-06-29_09h15.07.691,Colour_Asymmetry_Pilot,2022.1.3,Win32,60.22645146,62bbe60bf3d75ef465d3e404,0,64,64,89,1,onethree,,,,,,,,,,,,,,,,,,,,,,,,,,,,,,,,,,,,,,,,,,,,,,,,,,,,,,,,,,,,,,,,,,,,,,,,,,,,,,,,,,,,,,,,,,,,,,,,,,,,,,,,,,,,,,,,,,,,,,,,,,,,,,,,,,,,,,,,,,,,,,,,,,,,,,,,
,,,,,,611e3b4ed4f4616be7914ffd,62bbfb7edd33c6b4ecf3589a,2022-06-29_09h15.07.691,Colour_Asymmetry_Pilot,2022.1.3,Win32,60.22645146,62bbe60bf3d75ef465d3e404,0,65,65,139,1,twofour,,,,,,,,,,,,,,,,,,,,,,,,,,,,,,,,,,,,,,,,,,,,,,,,,,,,,,,,,,,,,,,,,,,,,,,,,,,,,,,,,,,,,,,,,,,,,,,,,,,,,,,,,,,,,,,,,,,,,,,,,,,,,,,,,,,,,,,,,,,,,,,,,,,,,,,,
,,,,,,611e3b4ed4f4616be7914ffd,62bbfb7edd33c6b4ecf3589a,2022-06-29_09h15.07.691,Colour_Asymmetry_Pilot,2022.1.3,Win32,60.22645146,62bbe60bf3d75ef465d3e404,0,66,66,138,1,twoone,,,,,,,,,,,,,,,,,,,,,,,,,,,,,,,,,,,,,,,,,,,,,,,,,,,,,,,,,,,,,,,,,,,,,,,,,,,,,,,,,,,,,,,,,,,,,,,,,,,,,,,,,,,,,,,,,,,,,,,,,,,,,,,,,,,,,,,,,,,,,,,,,,,,,,,,
,,,,,,611e3b4ed4f4616be7914ffd,62bbfb7edd33c6b4ecf3589a,2022-06-29_09h15.07.691,Colour_Asymmetry_Pilot,2022.1.3,Win32,60.22645146,62bbe60bf3d75ef465d3e404,0,67,67,23,1,fourthree,,,,,,,,,,,,,,,,,,,,,,,,,,,,,,,,,,,,,,,,,,,,,,,,,,,,,,,,,,,,,,,,,,,,,,,,,,,,,,,,,,,,,,,,,,,,,,,,,,,,,,,,,,,,,,,,,,,,,,,,,,,,,,,,,,,,,,,,,,,,,,,,,,,,,,,,
,,,,,,611e3b4ed4f4616be7914ffd,62bbfb7edd33c6b4ecf3589a,2022-06-29_09h15.07.691,Colour_Asymmetry_Pilot,2022.1.3,Win32,60.22645146,62bbe60bf3d75ef465d3e404,0,68,68,79,1,fourthree,,,,,,,,,,,,,,,,,,,,,,,,,,,,,,,,,,,,,,,,,,,,,,,,,,,,,,,,,,,,,,,,,,,,,,,,,,,,,,,,,,,,,,,,,,,,,,,,,,,,,,,,,,,,,,,,,,,,,,,,,,,,,,,,,,,,,,,,,,,,,,,,,,,,,,,,
,,,,,,611e3b4ed4f4616be7914ffd,62bbfb7edd33c6b4ecf3589a,2022-06-29_09h15.07.691,Colour_Asymmetry_Pilot,2022.1.3,Win32,60.22645146,62bbe60bf3d75ef465d3e404,0,69,69,34,1,twoone,,,,,,,,,,,,,,,,,,,,,,,,,,,,,,,,,,,,,,,,,,,,,,,,,,,,,,,,,,,,,,,,,,,,,,,,,,,,,,,,,,,,,,,,,,,,,,,,,,,,,,,,,,,,,,,,,,,,,,,,,,,,,,,,,,,,,,,,,,,,,,,,,,,,,,,,
,,,,,,611e3b4ed4f4616be7914ffd,62bbfb7edd33c6b4ecf3589a,2022-06-29_09h15.07.691,Colour_Asymmetry_Pilot,2022.1.3,Win32,60.22645146,62bbe60bf3d75ef465d3e404,0,70,70,132,1,threeone,,,,,,,,,,,,,,,,,,,,,,,,,,,,,,,,,,,,,,,,,,,,,,,,,,,,,,,,,,,,,,,,,,,,,,,,,,,,,,,,,,,,,,,,,,,,,,,,,,,,,,,,,,,,,,,,,,,,,,,,,,,,,,,,,,,,,,,,,,,,,,,,,,,,,,,,
,,,,,,611e3b4ed4f4616be7914ffd,62bbfb7edd33c6b4ecf3589a,2022-06-29_09h15.07.691,Colour_Asymmetry_Pilot,2022.1.3,Win32,60.22645146,62bbe60bf3d75ef465d3e404,0,71,71,3,1,twofour,,,,,,,,,,,,,,,,,,,,,,,,,,,,,,,,,,,,,,,,,,,,,,,,,,,,,,,,,,,,,,,,,,,,,,,,,,,,,,,,,,,,,,,,,,,,,,,,,,,,,,,,,,,,,,,,,,,,,,,,,,,,,,,,,,,,,,,,,,,,,,,,,,,,,,,,
,,,,,,611e3b4ed4f4616be7914ffd,62bbfb7edd33c6b4ecf3589a,2022-06-29_09h15.07.691,Colour_Asymmetry_Pilot,2022.1.3,Win32,60.22645146,62bbe60bf3d75ef465d3e404,0,72,72,77,1,threefour,,,,,,,,,,,,,,,,,,,,,,,,,,,,,,,,,,,,,,,,,,,,,,,,,,,,,,,,,,,,,,,,,,,,,,,,,,,,,,,,,,,,,,,,,,,,,,,,,,,,,,,,,,,,,,,,,,,,,,,,,,,,,,,,,,,,,,,,,,,,,,,,,,,,,,,,
,,,,,,611e3b4ed4f4616be7914ffd,62bbfb7edd33c6b4ecf3589a,2022-06-29_09h15.07.691,Colour_Asymmetry_Pilot,2022.1.3,Win32,60.22645146,62bbe60bf3d75ef465d3e404,0,73,73,60,1,threeone,,,,,,,,,,,,,,,,,,,,,,,,,,,,,,,,,,,,,,,,,,,,,,,,,,,,,,,,,,,,,,,,,,,,,,,,,,,,,,,,,,,,,,,,,,,,,,,,,,,,,,,,,,,,,,,,,,,,,,,,,,,,,,,,,,,,,,,,,,,,,,,,,,,,,,,,
,,,,,,611e3b4ed4f4616be7914ffd,62bbfb7edd33c6b4ecf3589a,2022-06-29_09h15.07.691,Colour_Asymmetry_Pilot,2022.1.3,Win32,60.22645146,62bbe60bf3d75ef465d3e404,0,74,74,32,1,onetwo,,,,,,,,,,,,,,,,,,,,,,,,,,,,,,,,,,,,,,,,,,,,,,,,,,,,,,,,,,,,,,,,,,,,,,,,,,,,,,,,,,,,,,,,,,,,,,,,,,,,,,,,,,,,,,,,,,,,,,,,,,,,,,,,,,,,,,,,,,,,,,,,,,,,,,,,
,,,,,,611e3b4ed4f4616be7914ffd,62bbfb7edd33c6b4ecf3589a,2022-06-29_09h15.07.691,Colour_Asymmetry_Pilot,2022.1.3,Win32,60.22645146,62bbe60bf3d75ef465d3e404,0,75,75,26,1,twoone,,,,,,,,,,,,,,,,,,,,,,,,,,,,,,,,,,,,,,,,,,,,,,,,,,,,,,,,,,,,,,,,,,,,,,,,,,,,,,,,,,,,,,,,,,,,,,,,,,,,,,,,,,,,,,,,,,,,,,,,,,,,,,,,,,,,,,,,,,,,,,,,,,,,,,,,
,,,,,,611e3b4ed4f4616be7914ffd,62bbfb7edd33c6b4ecf3589a,2022-06-29_09h15.07.691,Colour_Asymmetry_Pilot,2022.1.3,Win32,60.22645146,62bbe60bf3d75ef465d3e404,0,76,76,19,1,twofour,,,,,,,,,,,,,,,,,,,,,,,,,,,,,,,,,,,,,,,,,,,,,,,,,,,,,,,,,,,,,,,,,,,,,,,,,,,,,,,,,,,,,,,,,,,,,,,,,,,,,,,,,,,,,,,,,,,,,,,,,,,,,,,,,,,,,,,,,,,,,,,,,,,,,,,,
,,,,,,611e3b4ed4f4616be7914ffd,62bbfb7edd33c6b4ecf3589a,2022-06-29_09h15.07.691,Colour_Asymmetry_Pilot,2022.1.3,Win32,60.22645146,62bbe60bf3d75ef465d3e404,0,77,77,149,1,threefour,,,,,,,,,,,,,,,,,,,,,,,,,,,,,,,,,,,,,,,,,,,,,,,,,,,,,,,,,,,,,,,,,,,,,,,,,,,,,,,,,,,,,,,,,,,,,,,,,,,,,,,,,,,,,,,,,,,,,,,,,,,,,,,,,,,,,,,,,,,,,,,,,,,,,,,,
,,,,,,611e3b4ed4f4616be7914ffd,62bbfb7edd33c6b4ecf3589a,2022-06-29_09h15.07.691,Colour_Asymmetry_Pilot,2022.1.3,Win32,60.22645146,62bbe60bf3d75ef465d3e404,0,78,78,84,1,threeone,,,,,,,,,,,,,,,,,,,,,,,,,,,,,,,,,,,,,,,,,,,,,,,,,,,,,,,,,,,,,,,,,,,,,,,,,,,,,,,,,,,,,,,,,,,,,,,,,,,,,,,,,,,,,,,,,,,,,,,,,,,,,,,,,,,,,,,,,,,,,,,,,,,,,,,,
,,,,,,611e3b4ed4f4616be7914ffd,62bbfb7edd33c6b4ecf3589a,2022-06-29_09h15.07.691,Colour_Asymmetry_Pilot,2022.1.3,Win32,60.22645146,62bbe60bf3d75ef465d3e404,0,79,79,114,1,twoone,,,,,,,,,,,,,,,,,,,,,,,,,,,,,,,,,,,,,,,,,,,,,,,,,,,,,,,,,,,,,,,,,,,,,,,,,,,,,,,,,,,,,,,,,,,,,,,,,,,,,,,,,,,,,,,,,,,,,,,,,,,,,,,,,,,,,,,,,,,,,,,,,,,,,,,,
,,,,,,611e3b4ed4f4616be7914ffd,62bbfb7edd33c6b4ecf3589a,2022-06-29_09h15.07.691,Colour_Asymmetry_Pilot,2022.1.3,Win32,60.22645146,62bbe60bf3d75ef465d3e404,0,80,80,11,1,twofour,,,,,,,,,,,,,,,,,,,,,,,,,,,,,,,,,,,,,,,,,,,,,,,,,,,,,,,,,,,,,,,,,,,,,,,,,,,,,,,,,,,,,,,,,,,,,,,,,,,,,,,,,,,,,,,,,,,,,,,,,,,,,,,,,,,,,,,,,,,,,,,,,,,,,,,,
,,,,,,611e3b4ed4f4616be7914ffd,62bbfb7edd33c6b4ecf3589a,2022-06-29_09h15.07.691,Colour_Asymmetry_Pilot,2022.1.3,Win32,60.22645146,62bbe60bf3d75ef465d3e404,0,81,81,111,1,fourthree,,,,,,,,,,,,,,,,,,,,,,,,,,,,,,,,,,,,,,,,,,,,,,,,,,,,,,,,,,,,,,,,,,,,,,,,,,,,,,,,,,,,,,,,,,,,,,,,,,,,,,,,,,,,,,,,,,,,,,,,,,,,,,,,,,,,,,,,,,,,,,,,,,,,,,,,
,,,,,,611e3b4ed4f4616be7914ffd,62bbfb7edd33c6b4ecf3589a,2022-06-29_09h15.07.691,Colour_Asymmetry_Pilot,2022.1.3,Win32,60.22645146,62bbe60bf3d75ef465d3e404,0,82,82,63,1,fourthree,,,,,,,,,,,,,,,,,,,,,,,,,,,,,,,,,,,,,,,,,,,,,,,,,,,,,,,,,,,,,,,,,,,,,,,,,,,,,,,,,,,,,,,,,,,,,,,,,,,,,,,,,,,,,,,,,,,,,,,,,,,,,,,,,,,,,,,,,,,,,,,,,,,,,,,,
,,,,,,611e3b4ed4f4616be7914ffd,62bbfb7edd33c6b4ecf3589a,2022-06-29_09h15.07.691,Colour_Asymmetry_Pilot,2022.1.3,Win32,60.22645146,62bbe60bf3d75ef465d3e404,0,83,83,115,1,twofour,,,,,,,,,,,,,,,,,,,,,,,,,,,,,,,,,,,,,,,,,,,,,,,,,,,,,,,,,,,,,,,,,,,,,,,,,,,,,,,,,,,,,,,,,,,,,,,,,,,,,,,,,,,,,,,,,,,,,,,,,,,,,,,,,,,,,,,,,,,,,,,,,,,,,,,,
,,,,,,611e3b4ed4f4616be7914ffd,62bbfb7edd33c6b4ecf3589a,2022-06-29_09h15.07.691,Colour_Asymmetry_Pilot,2022.1.3,Win32,60.22645146,62bbe60bf3d75ef465d3e404,0,84,84,147,1,twofour,,,,,,,,,,,,,,,,,,,,,,,,,,,,,,,,,,,,,,,,,,,,,,,,,,,,,,,,,,,,,,,,,,,,,,,,,,,,,,,,,,,,,,,,,,,,,,,,,,,,,,,,,,,,,,,,,,,,,,,,,,,,,,,,,,,,,,,,,,,,,,,,,,,,,,,,
,,,,,,611e3b4ed4f4616be7914ffd,62bbfb7edd33c6b4ecf3589a,2022-06-29_09h15.07.691,Colour_Asymmetry_Pilot,2022.1.3,Win32,60.22645146,62bbe60bf3d75ef465d3e404,0,85,85,129,1,onethree,,,,,,,,,,,,,,,,,,,,,,,,,,,,,,,,,,,,,,,,,,,,,,,,,,,,,,,,,,,,,,,,,,,,,,,,,,,,,,,,,,,,,,,,,,,,,,,,,,,,,,,,,,,,,,,,,,,,,,,,,,,,,,,,,,,,,,,,,,,,,,,,,,,,,,,,
,,,,,,611e3b4ed4f4616be7914ffd,62bbfb7edd33c6b4ecf3589a,2022-06-29_09h15.07.691,Colour_Asymmetry_Pilot,2022.1.3,Win32,60.22645146,62bbe60bf3d75ef465d3e404,0,86,86,133,1,threefour,,,,,,,,,,,,,,,,,,,,,,,,,,,,,,,,,,,,,,,,,,,,,,,,,,,,,,,,,,,,,,,,,,,,,,,,,,,,,,,,,,,,,,,,,,,,,,,,,,,,,,,,,,,,,,,,,,,,,,,,,,,,,,,,,,,,,,,,,,,,,,,,,,,,,,,,
,,,,,,611e3b4ed4f4616be7914ffd,62bbfb7edd33c6b4ecf3589a,2022-06-29_09h15.07.691,Colour_Asymmetry_Pilot,2022.1.3,Win32,60.22645146,62bbe60bf3d75ef465d3e404,0,87,87,102,1,fourtwo,,,,,,,,,,,,,,,,,,,,,,,,,,,,,,,,,,,,,,,,,,,,,,,,,,,,,,,,,,,,,,,,,,,,,,,,,,,,,,,,,,,,,,,,,,,,,,,,,,,,,,,,,,,,,,,,,,,,,,,,,,,,,,,,,,,,,,,,,,,,,,,,,,,,,,,,
,,,,,,611e3b4ed4f4616be7914ffd,62bbfb7edd33c6b4ecf3589a,2022-06-29_09h15.07.691,Colour_Asymmetry_Pilot,2022.1.3,Win32,60.22645146,62bbe60bf3d75ef465d3e404,0,88,88,36,1,threeone,,,,,,,,,,,,,,,,,,,,,,,,,,,,,,,,,,,,,,,,,,,,,,,,,,,,,,,,,,,,,,,,,,,,,,,,,,,,,,,,,,,,,,,,,,,,,,,,,,,,,,,,,,,,,,,,,,,,,,,,,,,,,,,,,,,,,,,,,,,,,,,,,,,,,,,,
,,,,,,611e3b4ed4f4616be7914ffd,62bbfb7edd33c6b4ecf3589a,2022-06-29_09h15.07.691,Colour_Asymmetry_Pilot,2022.1.3,Win32,60.22645146,62bbe60bf3d75ef465d3e404,0,89,89,116,1,threeone,,,,,,,,,,,,,,,,,,,,,,,,,,,,,,,,,,,,,,,,,,,,,,,,,,,,,,,,,,,,,,,,,,,,,,,,,,,,,,,,,,,,,,,,,,,,,,,,,,,,,,,,,,,,,,,,,,,,,,,,,,,,,,,,,,,,,,,,,,,,,,,,,,,,,,,,
,,,,,,611e3b4ed4f4616be7914ffd,62bbfb7edd33c6b4ecf3589a,2022-06-29_09h15.07.691,Colour_Asymmetry_Pilot,2022.1.3,Win32,60.22645146,62bbe60bf3d75ef465d3e404,0,90,90,157,1,threefour,,,,,,,,,,,,,,,,,,,,,,,,,,,,,,,,,,,,,,,,,,,,,,,,,,,,,,,,,,,,,,,,,,,,,,,,,,,,,,,,,,,,,,,,,,,,,,,,,,,,,,,,,,,,,,,,,,,,,,,,,,,,,,,,,,,,,,,,,,,,,,,,,,,,,,,,
,,,,,,611e3b4ed4f4616be7914ffd,62bbfb7edd33c6b4ecf3589a,2022-06-29_09h15.07.691,Colour_Asymmetry_Pilot,2022.1.3,Win32,60.22645146,62bbe60bf3d75ef465d3e404,0,91,91,148,1,threeone,,,,,,,,,,,,,,,,,,,,,,,,,,,,,,,,,,,,,,,,,,,,,,,,,,,,,,,,,,,,,,,,,,,,,,,,,,,,,,,,,,,,,,,,,,,,,,,,,,,,,,,,,,,,,,,,,,,,,,,,,,,,,,,,,,,,,,,,,,,,,,,,,,,,,,,,
,,,,,,611e3b4ed4f4616be7914ffd,62bbfb7edd33c6b4ecf3589a,2022-06-29_09h15.07.691,Colour_Asymmetry_Pilot,2022.1.3,Win32,60.22645146,62bbe60bf3d75ef465d3e404,0,92,92,56,1,onetwo,,,,,,,,,,,,,,,,,,,,,,,,,,,,,,,,,,,,,,,,,,,,,,,,,,,,,,,,,,,,,,,,,,,,,,,,,,,,,,,,,,,,,,,,,,,,,,,,,,,,,,,,,,,,,,,,,,,,,,,,,,,,,,,,,,,,,,,,,,,,,,,,,,,,,,,,
,,,,,,611e3b4ed4f4616be7914ffd,62bbfb7edd33c6b4ecf3589a,2022-06-29_09h15.07.691,Colour_Asymmetry_Pilot,2022.1.3,Win32,60.22645146,62bbe60bf3d75ef465d3e404,0,93,93,104,1,onetwo,,,,,,,,,,,,,,,,,,,,,,,,,,,,,,,,,,,,,,,,,,,,,,,,,,,,,,,,,,,,,,,,,,,,,,,,,,,,,,,,,,,,,,,,,,,,,,,,,,,,,,,,,,,,,,,,,,,,,,,,,,,,,,,,,,,,,,,,,,,,,,,,,,,,,,,,
,,,,,,611e3b4ed4f4616be7914ffd,62bbfb7edd33c6b4ecf3589a,2022-06-29_09h15.07.691,Colour_Asymmetry_Pilot,2022.1.3,Win32,60.22645146,62bbe60bf3d75ef465d3e404,0,94,94,64,1,onetwo,,,,,,,,,,,,,,,,,,,,,,,,,,,,,,,,,,,,,,,,,,,,,,,,,,,,,,,,,,,,,,,,,,,,,,,,,,,,,,,,,,,,,,,,,,,,,,,,,,,,,,,,,,,,,,,,,,,,,,,,,,,,,,,,,,,,,,,,,,,,,,,,,,,,,,,,
,,,,,,611e3b4ed4f4616be7914ffd,62bbfb7edd33c6b4ecf3589a,2022-06-29_09h15.07.691,Colour_Asymmetry_Pilot,2022.1.3,Win32,60.22645146,62bbe60bf3d75ef465d3e404,0,95,95,55,1,fourthree,,,,,,,,,,,,,,,,,,,,,,,,,,,,,,,,,,,,,,,,,,,,,,,,,,,,,,,,,,,,,,,,,,,,,,,,,,,,,,,,,,,,,,,,,,,,,,,,,,,,,,,,,,,,,,,,,,,,,,,,,,,,,,,,,,,,,,,,,,,,,,,,,,,,,,,,
,,,,,,611e3b4ed4f4616be7914ffd,62bbfb7edd33c6b4ecf3589a,2022-06-29_09h15.07.691,Colour_Asymmetry_Pilot,2022.1.3,Win32,60.22645146,62bbe60bf3d75ef465d3e404,0,96,96,41,1,onethree,,,,,,,,,,,,,,,,,,,,,,,,,,,,,,,,,,,,,,,,,,,,,,,,,,,,,,,,,,,,,,,,,,,,,,,,,,,,,,,,,,,,,,,,,,,,,,,,,,,,,,,,,,,,,,,,,,,,,,,,,,,,,,,,,,,,,,,,,,,,,,,,,,,,,,,,
,,,,,,611e3b4ed4f4616be7914ffd,62bbfb7edd33c6b4ecf3589a,2022-06-29_09h15.07.691,Colour_Asymmetry_Pilot,2022.1.3,Win32,60.22645146,62bbe60bf3d75ef465d3e404,0,97,97,13,1,threefour,,,,,,,,,,,,,,,,,,,,,,,,,,,,,,,,,,,,,,,,,,,,,,,,,,,,,,,,,,,,,,,,,,,,,,,,,,,,,,,,,,,,,,,,,,,,,,,,,,,,,,,,,,,,,,,,,,,,,,,,,,,,,,,,,,,,,,,,,,,,,,,,,,,,,,,,
,,,,,,611e3b4ed4f4616be7914ffd,62bbfb7edd33c6b4ecf3589a,2022-06-29_09h15.07.691,Colour_Asymmetry_Pilot,2022.1.3,Win32,60.22645146,62bbe60bf3d75ef465d3e404,0,98,98,121,1,onethree,,,,,,,,,,,,,,,,,,,,,,,,,,,,,,,,,,,,,,,,,,,,,,,,,,,,,,,,,,,,,,,,,,,,,,,,,,,,,,,,,,,,,,,,,,,,,,,,,,,,,,,,,,,,,,,,,,,,,,,,,,,,,,,,,,,,,,,,,,,,,,,,,,,,,,,,
,,,,,,611e3b4ed4f4616be7914ffd,62bbfb7edd33c6b4ecf3589a,2022-06-29_09h15.07.691,Colour_Asymmetry_Pilot,2022.1.3,Win32,60.22645146,62bbe60bf3d75ef465d3e404,0,99,99,118,1,fourtwo,,,,,,,,,,,,,,,,,,,,,,,,,,,,,,,,,,,,,,,,,,,,,,,,,,,,,,,,,,,,,,,,,,,,,,,,,,,,,,,,,,,,,,,,,,,,,,,,,,,,,,,,,,,,,,,,,,,,,,,,,,,,,,,,,,,,,,,,,,,,,,,,,,,,,,,,
,,,,,,611e3b4ed4f4616be7914ffd,62bbfb7edd33c6b4ecf3589a,2022-06-29_09h15.07.691,Colour_Asymmetry_Pilot,2022.1.3,Win32,60.22645146,62bbe60bf3d75ef465d3e404,0,100,100,154,1,twoone,,,,,,,,,,,,,,,,,,,,,,,,,,,,,,,,,,,,,,,,,,,,,,,,,,,,,,,,,,,,,,,,,,,,,,,,,,,,,,,,,,,,,,,,,,,,,,,,,,,,,,,,,,,,,,,,,,,,,,,,,,,,,,,,,,,,,,,,,,,,,,,,,,,,,,,,
,,,,,,611e3b4ed4f4616be7914ffd,62bbfb7edd33c6b4ecf3589a,2022-06-29_09h15.07.691,Colour_Asymmetry_Pilot,2022.1.3,Win32,60.22645146,62bbe60bf3d75ef465d3e404,0,101,101,103,1,fourthree,,,,,,,,,,,,,,,,,,,,,,,,,,,,,,,,,,,,,,,,,,,,,,,,,,,,,,,,,,,,,,,,,,,,,,,,,,,,,,,,,,,,,,,,,,,,,,,,,,,,,,,,,,,,,,,,,,,,,,,,,,,,,,,,,,,,,,,,,,,,,,,,,,,,,,,,
,,,,,,611e3b4ed4f4616be7914ffd,62bbfb7edd33c6b4ecf3589a,2022-06-29_09h15.07.691,Colour_Asymmetry_Pilot,2022.1.3,Win32,60.22645146,62bbe60bf3d75ef465d3e404,0,102,102,151,1,fourthree,,,,,,,,,,,,,,,,,,,,,,,,,,,,,,,,,,,,,,,,,,,,,,,,,,,,,,,,,,,,,,,,,,,,,,,,,,,,,,,,,,,,,,,,,,,,,,,,,,,,,,,,,,,,,,,,,,,,,,,,,,,,,,,,,,,,,,,,,,,,,,,,,,,,,,,,
,,,,,,611e3b4ed4f4616be7914ffd,62bbfb7edd33c6b4ecf3589a,2022-06-29_09h15.07.691,Colour_Asymmetry_Pilot,2022.1.3,Win32,60.22645146,62bbe60bf3d75ef465d3e404,0,103,103,92,1,threeone,,,,,,,,,,,,,,,,,,,,,,,,,,,,,,,,,,,,,,,,,,,,,,,,,,,,,,,,,,,,,,,,,,,,,,,,,,,,,,,,,,,,,,,,,,,,,,,,,,,,,,,,,,,,,,,,,,,,,,,,,,,,,,,,,,,,,,,,,,,,,,,,,,,,,,,,
,,,,,,611e3b4ed4f4616be7914ffd,62bbfb7edd33c6b4ecf3589a,2022-06-29_09h15.07.691,Colour_Asymmetry_Pilot,2022.1.3,Win32,60.22645146,62bbe60bf3d75ef465d3e404,0,104,104,117,1,threefour,,,,,,,,,,,,,,,,,,,,,,,,,,,,,,,,,,,,,,,,,,,,,,,,,,,,,,,,,,,,,,,,,,,,,,,,,,,,,,,,,,,,,,,,,,,,,,,,,,,,,,,,,,,,,,,,,,,,,,,,,,,,,,,,,,,,,,,,,,,,,,,,,,,,,,,,
,,,,,,611e3b4ed4f4616be7914ffd,62bbfb7edd33c6b4ecf3589a,2022-06-29_09h15.07.691,Colour_Asymmetry_Pilot,2022.1.3,Win32,60.22645146,62bbe60bf3d75ef465d3e404,0,105,105,39,1,fourthree,,,,,,,,,,,,,,,,,,,,,,,,,,,,,,,,,,,,,,,,,,,,,,,,,,,,,,,,,,,,,,,,,,,,,,,,,,,,,,,,,,,,,,,,,,,,,,,,,,,,,,,,,,,,,,,,,,,,,,,,,,,,,,,,,,,,,,,,,,,,,,,,,,,,,,,,
,,,,,,611e3b4ed4f4616be7914ffd,62bbfb7edd33c6b4ecf3589a,2022-06-29_09h15.07.691,Colour_Asymmetry_Pilot,2022.1.3,Win32,60.22645146,62bbe60bf3d75ef465d3e404,0,106,106,82,1,twoone,,,,,,,,,,,,,,,,,,,,,,,,,,,,,,,,,,,,,,,,,,,,,,,,,,,,,,,,,,,,,,,,,,,,,,,,,,,,,,,,,,,,,,,,,,,,,,,,,,,,,,,,,,,,,,,,,,,,,,,,,,,,,,,,,,,,,,,,,,,,,,,,,,,,,,,,
,,,,,,611e3b4ed4f4616be7914ffd,62bbfb7edd33c6b4ecf3589a,2022-06-29_09h15.07.691,Colour_Asymmetry_Pilot,2022.1.3,Win32,60.22645146,62bbe60bf3d75ef465d3e404,0,107,107,48,1,onetwo,,,,,,,,,,,,,,,,,,,,,,,,,,,,,,,,,,,,,,,,,,,,,,,,,,,,,,,,,,,,,,,,,,,,,,,,,,,,,,,,,,,,,,,,,,,,,,,,,,,,,,,,,,,,,,,,,,,,,,,,,,,,,,,,,,,,,,,,,,,,,,,,,,,,,,,,
,,,,,,611e3b4ed4f4616be7914ffd,62bbfb7edd33c6b4ecf3589a,2022-06-29_09h15.07.691,Colour_Asymmetry_Pilot,2022.1.3,Win32,60.22645146,62bbe60bf3d75ef465d3e404,0,108,108,1,1,onethree,,,,,,,,,,,,,,,,,,,,,,,,,,,,,,,,,,,,,,,,,,,,,,,,,,,,,,,,,,,,,,,,,,,,,,,,,,,,,,,,,,,,,,,,,,,,,,,,,,,,,,,,,,,,,,,,,,,,,,,,,,,,,,,,,,,,,,,,,,,,,,,,,,,,,,,,
,,,,,,611e3b4ed4f4616be7914ffd,62bbfb7edd33c6b4ecf3589a,2022-06-29_09h15.07.691,Colour_Asymmetry_Pilot,2022.1.3,Win32,60.22645146,62bbe60bf3d75ef465d3e404,0,109,109,33,1,onethree,,,,,,,,,,,,,,,,,,,,,,,,,,,,,,,,,,,,,,,,,,,,,,,,,,,,,,,,,,,,,,,,,,,,,,,,,,,,,,,,,,,,,,,,,,,,,,,,,,,,,,,,,,,,,,,,,,,,,,,,,,,,,,,,,,,,,,,,,,,,,,,,,,,,,,,,
,,,,,,611e3b4ed4f4616be7914ffd,62bbfb7edd33c6b4ecf3589a,2022-06-29_09h15.07.691,Colour_Asymmetry_Pilot,2022.1.3,Win32,60.22645146,62bbe60bf3d75ef465d3e404,0,110,110,85,1,threefour,,,,,,,,,,,,,,,,,,,,,,,,,,,,,,,,,,,,,,,,,,,,,,,,,,,,,,,,,,,,,,,,,,,,,,,,,,,,,,,,,,,,,,,,,,,,,,,,,,,,,,,,,,,,,,,,,,,,,,,,,,,,,,,,,,,,,,,,,,,,,,,,,,,,,,,,
,,,,,,611e3b4ed4f4616be7914ffd,62bbfb7edd33c6b4ecf3589a,2022-06-29_09h15.07.691,Colour_Asymmetry_Pilot,2022.1.3,Win32,60.22645146,62bbe60bf3d75ef465d3e404,0,111,111,150,1,fourtwo,,,,,,,,,,,,,,,,,,,,,,,,,,,,,,,,,,,,,,,,,,,,,,,,,,,,,,,,,,,,,,,,,,,,,,,,,,,,,,,,,,,,,,,,,,,,,,,,,,,,,,,,,,,,,,,,,,,,,,,,,,,,,,,,,,,,,,,,,,,,,,,,,,,,,,,,
,,,,,,611e3b4ed4f4616be7914ffd,62bbfb7edd33c6b4ecf3589a,2022-06-29_09h15.07.691,Colour_Asymmetry_Pilot,2022.1.3,Win32,60.22645146,62bbe60bf3d75ef465d3e404,0,112,112,146,1,twoone,,,,,,,,,,,,,,,,,,,,,,,,,,,,,,,,,,,,,,,,,,,,,,,,,,,,,,,,,,,,,,,,,,,,,,,,,,,,,,,,,,,,,,,,,,,,,,,,,,,,,,,,,,,,,,,,,,,,,,,,,,,,,,,,,,,,,,,,,,,,,,,,,,,,,,,,
,,,,,,611e3b4ed4f4616be7914ffd,62bbfb7edd33c6b4ecf3589a,2022-06-29_09h15.07.691,Colour_Asymmetry_Pilot,2022.1.3,Win32,60.22645146,62bbe60bf3d75ef465d3e404,0,113,113,87,1,fourthree,,,,,,,,,,,,,,,,,,,,,,,,,,,,,,,,,,,,,,,,,,,,,,,,,,,,,,,,,,,,,,,,,,,,,,,,,,,,,,,,,,,,,,,,,,,,,,,,,,,,,,,,,,,,,,,,,,,,,,,,,,,,,,,,,,,,,,,,,,,,,,,,,,,,,,,,
,,,,,,611e3b4ed4f4616be7914ffd,62bbfb7edd33c6b4ecf3589a,2022-06-29_09h15.07.691,Colour_Asymmetry_Pilot,2022.1.3,Win32,60.22645146,62bbe60bf3d75ef465d3e404,0,114,114,83,1,twofour,,,,,,,,,,,,,,,,,,,,,,,,,,,,,,,,,,,,,,,,,,,,,,,,,,,,,,,,,,,,,,,,,,,,,,,,,,,,,,,,,,,,,,,,,,,,,,,,,,,,,,,,,,,,,,,,,,,,,,,,,,,,,,,,,,,,,,,,,,,,,,,,,,,,,,,,
,,,,,,611e3b4ed4f4616be7914ffd,62bbfb7edd33c6b4ecf3589a,2022-06-29_09h15.07.691,Colour_Asymmetry_Pilot,2022.1.3,Win32,60.22645146,62bbe60bf3d75ef465d3e404,0,115,115,159,1,fourthree,,,,,,,,,,,,,,,,,,,,,,,,,,,,,,,,,,,,,,,,,,,,,,,,,,,,,,,,,,,,,,,,,,,,,,,,,,,,,,,,,,,,,,,,,,,,,,,,,,,,,,,,,,,,,,,,,,,,,,,,,,,,,,,,,,,,,,,,,,,,,,,,,,,,,,,,
,,,,,,611e3b4ed4f4616be7914ffd,62bbfb7edd33c6b4ecf3589a,2022-06-29_09h15.07.691,Colour_Asymmetry_Pilot,2022.1.3,Win32,60.22645146,62bbe60bf3d75ef465d3e404,0,116,116,101,1,threefour,,,,,,,,,,,,,,,,,,,,,,,,,,,,,,,,,,,,,,,,,,,,,,,,,,,,,,,,,,,,,,,,,,,,,,,,,,,,,,,,,,,,,,,,,,,,,,,,,,,,,,,,,,,,,,,,,,,,,,,,,,,,,,,,,,,,,,,,,,,,,,,,,,,,,,,,
,,,,,,611e3b4ed4f4616be7914ffd,62bbfb7edd33c6b4ecf3589a,2022-06-29_09h15.07.691,Colour_Asymmetry_Pilot,2022.1.3,Win32,60.22645146,62bbe60bf3d75ef465d3e404,0,117,117,110,1,fourtwo,,,,,,,,,,,,,,,,,,,,,,,,,,,,,,,,,,,,,,,,,,,,,,,,,,,,,,,,,,,,,,,,,,,,,,,,,,,,,,,,,,,,,,,,,,,,,,,,,,,,,,,,,,,,,,,,,,,,,,,,,,,,,,,,,,,,,,,,,,,,,,,,,,,,,,,,
,,,,,,611e3b4ed4f4616be7914ffd,62bbfb7edd33c6b4ecf3589a,2022-06-29_09h15.07.691,Colour_Asymmetry_Pilot,2022.1.3,Win32,60.22645146,62bbe60bf3d75ef465d3e404,0,118,118,105,1,onethree,,,,,,,,,,,,,,,,,,,,,,,,,,,,,,,,,,,,,,,,,,,,,,,,,,,,,,,,,,,,,,,,,,,,,,,,,,,,,,,,,,,,,,,,,,,,,,,,,,,,,,,,,,,,,,,,,,,,,,,,,,,,,,,,,,,,,,,,,,,,,,,,,,,,,,,,
,,,,,,611e3b4ed4f4616be7914ffd,62bbfb7edd33c6b4ecf3589a,2022-06-29_09h15.07.691,Colour_Asymmetry_Pilot,2022.1.3,Win32,60.22645146,62bbe60bf3d75ef465d3e404,0,119,119,140,1,threeone,,,,,,,,,,,,,,,,,,,,,,,,,,,,,,,,,,,,,,,,,,,,,,,,,,,,,,,,,,,,,,,,,,,,,,,,,,,,,,,,,,,,,,,,,,,,,,,,,,,,,,,,,,,,,,,,,,,,,,,,,,,,,,,,,,,,,,,,,,,,,,,,,,,,,,,,
,,,,,,611e3b4ed4f4616be7914ffd,62bbfb7edd33c6b4ecf3589a,2022-06-29_09h15.07.691,Colour_Asymmetry_Pilot,2022.1.3,Win32,60.22645146,62bbe60bf3d75ef465d3e404,0,120,120,91,1,twofour,,,,,,,,,,,,,,,,,,,,,,,,,,,,,,,,,,,,,,,,,,,,,,,,,,,,,,,,,,,,,,,,,,,,,,,,,,,,,,,,,,,,,,,,,,,,,,,,,,,,,,,,,,,,,,,,,,,,,,,,,,,,,,,,,,,,,,,,,,,,,,,,,,,,,,,,
,,,,,,611e3b4ed4f4616be7914ffd,62bbfb7edd33c6b4ecf3589a,2022-06-29_09h15.07.691,Colour_Asymmetry_Pilot,2022.1.3,Win32,60.22645146,62bbe60bf3d75ef465d3e404,0,121,121,156,1,threeone,,,,,,,,,,,,,,,,,,,,,,,,,,,,,,,,,,,,,,,,,,,,,,,,,,,,,,,,,,,,,,,,,,,,,,,,,,,,,,,,,,,,,,,,,,,,,,,,,,,,,,,,,,,,,,,,,,,,,,,,,,,,,,,,,,,,,,,,,,,,,,,,,,,,,,,,
,,,,,,611e3b4ed4f4616be7914ffd,62bbfb7edd33c6b4ecf3589a,2022-06-29_09h15.07.691,Colour_Asymmetry_Pilot,2022.1.3,Win32,60.22645146,62bbe60bf3d75ef465d3e404,0,122,122,161,1,onethree,,,,,,,,,,,,,,,,,,,,,,,,,,,,,,,,,,,,,,,,,,,,,,,,,,,,,,,,,,,,,,,,,,,,,,,,,,,,,,,,,,,,,,,,,,,,,,,,,,,,,,,,,,,,,,,,,,,,,,,,,,,,,,,,,,,,,,,,,,,,,,,,,,,,,,,,
,,,,,,611e3b4ed4f4616be7914ffd,62bbfb7edd33c6b4ecf3589a,2022-06-29_09h15.07.691,Colour_Asymmetry_Pilot,2022.1.3,Win32,60.22645146,62bbe60bf3d75ef465d3e404,0,123,123,113,1,onethree,,,,,,,,,,,,,,,,,,,,,,,,,,,,,,,,,,,,,,,,,,,,,,,,,,,,,,,,,,,,,,,,,,,,,,,,,,,,,,,,,,,,,,,,,,,,,,,,,,,,,,,,,,,,,,,,,,,,,,,,,,,,,,,,,,,,,,,,,,,,,,,,,,,,,,,,
,,,,,,611e3b4ed4f4616be7914ffd,62bbfb7edd33c6b4ecf3589a,2022-06-29_09h15.07.691,Colour_Asymmetry_Pilot,2022.1.3,Win32,60.22645146,62bbe60bf3d75ef465d3e404,0,124,124,25,1,onethree,,,,,,,,,,,,,,,,,,,,,,,,,,,,,,,,,,,,,,,,,,,,,,,,,,,,,,,,,,,,,,,,,,,,,,,,,,,,,,,,,,,,,,,,,,,,,,,,,,,,,,,,,,,,,,,,,,,,,,,,,,,,,,,,,,,,,,,,,,,,,,,,,,,,,,,,
,,,,,,611e3b4ed4f4616be7914ffd,62bbfb7edd33c6b4ecf3589a,2022-06-29_09h15.07.691,Colour_Asymmetry_Pilot,2022.1.3,Win32,60.22645146,62bbe60bf3d75ef465d3e404,0,125,125,70,1,fourtwo,,,,,,,,,,,,,,,,,,,,,,,,,,,,,,,,,,,,,,,,,,,,,,,,,,,,,,,,,,,,,,,,,,,,,,,,,,,,,,,,,,,,,,,,,,,,,,,,,,,,,,,,,,,,,,,,,,,,,,,,,,,,,,,,,,,,,,,,,,,,,,,,,,,,,,,,
,,,,,,611e3b4ed4f4616be7914ffd,62bbfb7edd33c6b4ecf3589a,2022-06-29_09h15.07.691,Colour_Asymmetry_Pilot,2022.1.3,Win32,60.22645146,62bbe60bf3d75ef465d3e404,0,126,126,22,1,fourtwo,,,,,,,,,,,,,,,,,,,,,,,,,,,,,,,,,,,,,,,,,,,,,,,,,,,,,,,,,,,,,,,,,,,,,,,,,,,,,,,,,,,,,,,,,,,,,,,,,,,,,,,,,,,,,,,,,,,,,,,,,,,,,,,,,,,,,,,,,,,,,,,,,,,,,,,,
,,,,,,611e3b4ed4f4616be7914ffd,62bbfb7edd33c6b4ecf3589a,2022-06-29_09h15.07.691,Colour_Asymmetry_Pilot,2022.1.3,Win32,60.22645146,62bbe60bf3d75ef465d3e404,0,127,127,52,1,threeone,,,,,,,,,,,,,,,,,,,,,,,,,,,,,,,,,,,,,,,,,,,,,,,,,,,,,,,,,,,,,,,,,,,,,,,,,,,,,,,,,,,,,,,,,,,,,,,,,,,,,,,,,,,,,,,,,,,,,,,,,,,,,,,,,,,,,,,,,,,,,,,,,,,,,,,,
,,,,,,611e3b4ed4f4616be7914ffd,62bbfb7edd33c6b4ecf3589a,2022-06-29_09h15.07.691,Colour_Asymmetry_Pilot,2022.1.3,Win32,60.22645146,62bbe60bf3d75ef465d3e404,0,128,128,59,1,twofour,,,,,,,,,,,,,,,,,,,,,,,,,,,,,,,,,,,,,,,,,,,,,,,,,,,,,,,,,,,,,,,,,,,,,,,,,,,,,,,,,,,,,,,,,,,,,,,,,,,,,,,,,,,,,,,,,,,,,,,,,,,,,,,,,,,,,,,,,,,,,,,,,,,,,,,,
,,,,,,611e3b4ed4f4616be7914ffd,62bbfb7edd33c6b4ecf3589a,2022-06-29_09h15.07.691,Colour_Asymmetry_Pilot,2022.1.3,Win32,60.22645146,62bbe60bf3d75ef465d3e404,0,129,129,73,1,onethree,,,,,,,,,,,,,,,,,,,,,,,,,,,,,,,,,,,,,,,,,,,,,,,,,,,,,,,,,,,,,,,,,,,,,,,,,,,,,,,,,,,,,,,,,,,,,,,,,,,,,,,,,,,,,,,,,,,,,,,,,,,,,,,,,,,,,,,,,,,,,,,,,,,,,,,,
,,,,,,611e3b4ed4f4616be7914ffd,62bbfb7edd33c6b4ecf3589a,2022-06-29_09h15.07.691,Colour_Asymmetry_Pilot,2022.1.3,Win32,60.22645146,62bbe60bf3d75ef465d3e404,0,130,130,124,1,threeone,,,,,,,,,,,,,,,,,,,,,,,,,,,,,,,,,,,,,,,,,,,,,,,,,,,,,,,,,,,,,,,,,,,,,,,,,,,,,,,,,,,,,,,,,,,,,,,,,,,,,,,,,,,,,,,,,,,,,,,,,,,,,,,,,,,,,,,,,,,,,,,,,,,,,,,,
,,,,,,611e3b4ed4f4616be7914ffd,62bbfb7edd33c6b4ecf3589a,2022-06-29_09h15.07.691,Colour_Asymmetry_Pilot,2022.1.3,Win32,60.22645146,62bbe60bf3d75ef465d3e404,0,131,131,44,1,threeone,,,,,,,,,,,,,,,,,,,,,,,,,,,,,,,,,,,,,,,,,,,,,,,,,,,,,,,,,,,,,,,,,,,,,,,,,,,,,,,,,,,,,,,,,,,,,,,,,,,,,,,,,,,,,,,,,,,,,,,,,,,,,,,,,,,,,,,,,,,,,,,,,,,,,,,,
,,,,,,611e3b4ed4f4616be7914ffd,62bbfb7edd33c6b4ecf3589a,2022-06-29_09h15.07.691,Colour_Asymmetry_Pilot,2022.1.3,Win32,60.22645146,62bbe60bf3d75ef465d3e404,0,132,132,4,1,threeone,,,,,,,,,,,,,,,,,,,,,,,,,,,,,,,,,,,,,,,,,,,,,,,,,,,,,,,,,,,,,,,,,,,,,,,,,,,,,,,,,,,,,,,,,,,,,,,,,,,,,,,,,,,,,,,,,,,,,,,,,,,,,,,,,,,,,,,,,,,,,,,,,,,,,,,,
,,,,,,611e3b4ed4f4616be7914ffd,62bbfb7edd33c6b4ecf3589a,2022-06-29_09h15.07.691,Colour_Asymmetry_Pilot,2022.1.3,Win32,60.22645146,62bbe60bf3d75ef465d3e404,0,133,133,68,1,threeone,,,,,,,,,,,,,,,,,,,,,,,,,,,,,,,,,,,,,,,,,,,,,,,,,,,,,,,,,,,,,,,,,,,,,,,,,,,,,,,,,,,,,,,,,,,,,,,,,,,,,,,,,,,,,,,,,,,,,,,,,,,,,,,,,,,,,,,,,,,,,,,,,,,,,,,,
,,,,,,611e3b4ed4f4616be7914ffd,62bbfb7edd33c6b4ecf3589a,2022-06-29_09h15.07.691,Colour_Asymmetry_Pilot,2022.1.3,Win32,60.22645146,62bbe60bf3d75ef465d3e404,0,134,134,100,1,threeone,,,,,,,,,,,,,,,,,,,,,,,,,,,,,,,,,,,,,,,,,,,,,,,,,,,,,,,,,,,,,,,,,,,,,,,,,,,,,,,,,,,,,,,,,,,,,,,,,,,,,,,,,,,,,,,,,,,,,,,,,,,,,,,,,,,,,,,,,,,,,,,,,,,,,,,,
,,,,,,611e3b4ed4f4616be7914ffd,62bbfb7edd33c6b4ecf3589a,2022-06-29_09h15.07.691,Colour_Asymmetry_Pilot,2022.1.3,Win32,60.22645146,62bbe60bf3d75ef465d3e404,0,135,135,134,1,fourtwo,,,,,,,,,,,,,,,,,,,,,,,,,,,,,,,,,,,,,,,,,,,,,,,,,,,,,,,,,,,,,,,,,,,,,,,,,,,,,,,,,,,,,,,,,,,,,,,,,,,,,,,,,,,,,,,,,,,,,,,,,,,,,,,,,,,,,,,,,,,,,,,,,,,,,,,,
,,,,,,611e3b4ed4f4616be7914ffd,62bbfb7edd33c6b4ecf3589a,2022-06-29_09h15.07.691,Colour_Asymmetry_Pilot,2022.1.3,Win32,60.22645146,62bbe60bf3d75ef465d3e404,0,136,136,35,1,twofour,,,,,,,,,,,,,,,,,,,,,,,,,,,,,,,,,,,,,,,,,,,,,,,,,,,,,,,,,,,,,,,,,,,,,,,,,,,,,,,,,,,,,,,,,,,,,,,,,,,,,,,,,,,,,,,,,,,,,,,,,,,,,,,,,,,,,,,,,,,,,,,,,,,,,,,,
,,,,,,611e3b4ed4f4616be7914ffd,62bbfb7edd33c6b4ecf3589a,2022-06-29_09h15.07.691,Colour_Asymmetry_Pilot,2022.1.3,Win32,60.22645146,62bbe60bf3d75ef465d3e404,0,137,137,37,1,threefour,,,,,,,,,,,,,,,,,,,,,,,,,,,,,,,,,,,,,,,,,,,,,,,,,,,,,,,,,,,,,,,,,,,,,,,,,,,,,,,,,,,,,,,,,,,,,,,,,,,,,,,,,,,,,,,,,,,,,,,,,,,,,,,,,,,,,,,,,,,,,,,,,,,,,,,,
,,,,,,611e3b4ed4f4616be7914ffd,62bbfb7edd33c6b4ecf3589a,2022-06-29_09h15.07.691,Colour_Asymmetry_Pilot,2022.1.3,Win32,60.22645146,62bbe60bf3d75ef465d3e404,0,138,138,158,1,fourtwo,,,,,,,,,,,,,,,,,,,,,,,,,,,,,,,,,,,,,,,,,,,,,,,,,,,,,,,,,,,,,,,,,,,,,,,,,,,,,,,,,,,,,,,,,,,,,,,,,,,,,,,,,,,,,,,,,,,,,,,,,,,,,,,,,,,,,,,,,,,,,,,,,,,,,,,,
,,,,,,611e3b4ed4f4616be7914ffd,62bbfb7edd33c6b4ecf3589a,2022-06-29_09h15.07.691,Colour_Asymmetry_Pilot,2022.1.3,Win32,60.22645146,62bbe60bf3d75ef465d3e404,0,139,139,61,1,threefour,,,,,,,,,,,,,,,,,,,,,,,,,,,,,,,,,,,,,,,,,,,,,,,,,,,,,,,,,,,,,,,,,,,,,,,,,,,,,,,,,,,,,,,,,,,,,,,,,,,,,,,,,,,,,,,,,,,,,,,,,,,,,,,,,,,,,,,,,,,,,,,,,,,,,,,,
,,,,,,611e3b4ed4f4616be7914ffd,62bbfb7edd33c6b4ecf3589a,2022-06-29_09h15.07.691,Colour_Asymmetry_Pilot,2022.1.3,Win32,60.22645146,62bbe60bf3d75ef465d3e404,0,140,140,80,1,onetwo,,,,,,,,,,,,,,,,,,,,,,,,,,,,,,,,,,,,,,,,,,,,,,,,,,,,,,,,,,,,,,,,,,,,,,,,,,,,,,,,,,,,,,,,,,,,,,,,,,,,,,,,,,,,,,,,,,,,,,,,,,,,,,,,,,,,,,,,,,,,,,,,,,,,,,,,
,,,,,,611e3b4ed4f4616be7914ffd,62bbfb7edd33c6b4ecf3589a,2022-06-29_09h15.07.691,Colour_Asymmetry_Pilot,2022.1.3,Win32,60.22645146,62bbe60bf3d75ef465d3e404,0,141,141,125,1,threefour,,,,,,,,,,,,,,,,,,,,,,,,,,,,,,,,,,,,,,,,,,,,,,,,,,,,,,,,,,,,,,,,,,,,,,,,,,,,,,,,,,,,,,,,,,,,,,,,,,,,,,,,,,,,,,,,,,,,,,,,,,,,,,,,,,,,,,,,,,,,,,,,,,,,,,,,
,,,,,,611e3b4ed4f4616be7914ffd,62bbfb7edd33c6b4ecf3589a,2022-06-29_09h15.07.691,Colour_Asymmetry_Pilot,2022.1.3,Win32,60.22645146,62bbe60bf3d75ef465d3e404,0,142,142,106,1,twoone,,,,,,,,,,,,,,,,,,,,,,,,,,,,,,,,,,,,,,,,,,,,,,,,,,,,,,,,,,,,,,,,,,,,,,,,,,,,,,,,,,,,,,,,,,,,,,,,,,,,,,,,,,,,,,,,,,,,,,,,,,,,,,,,,,,,,,,,,,,,,,,,,,,,,,,,
,,,,,,611e3b4ed4f4616be7914ffd,62bbfb7edd33c6b4ecf3589a,2022-06-29_09h15.07.691,Colour_Asymmetry_Pilot,2022.1.3,Win32,60.22645146,62bbe60bf3d75ef465d3e404,0,143,143,6,1,fourtwo,,,,,,,,,,,,,,,,,,,,,,,,,,,,,,,,,,,,,,,,,,,,,,,,,,,,,,,,,,,,,,,,,,,,,,,,,,,,,,,,,,,,,,,,,,,,,,,,,,,,,,,,,,,,,,,,,,,,,,,,,,,,,,,,,,,,,,,,,,,,,,,,,,,,,,,,
,,,,,,611e3b4ed4f4616be7914ffd,62bbfb7edd33c6b4ecf3589a,2022-06-29_09h15.07.691,Colour_Asymmetry_Pilot,2022.1.3,Win32,60.22645146,62bbe60bf3d75ef465d3e404,0,144,144,30,1,fourtwo,,,,,,,,,,,,,,,,,,,,,,,,,,,,,,,,,,,,,,,,,,,,,,,,,,,,,,,,,,,,,,,,,,,,,,,,,,,,,,,,,,,,,,,,,,,,,,,,,,,,,,,,,,,,,,,,,,,,,,,,,,,,,,,,,,,,,,,,,,,,,,,,,,,,,,,,
,,,,,,611e3b4ed4f4616be7914ffd,62bbfb7edd33c6b4ecf3589a,2022-06-29_09h15.07.691,Colour_Asymmetry_Pilot,2022.1.3,Win32,60.22645146,62bbe60bf3d75ef465d3e404,0,145,145,145,1,onethree,,,,,,,,,,,,,,,,,,,,,,,,,,,,,,,,,,,,,,,,,,,,,,,,,,,,,,,,,,,,,,,,,,,,,,,,,,,,,,,,,,,,,,,,,,,,,,,,,,,,,,,,,,,,,,,,,,,,,,,,,,,,,,,,,,,,,,,,,,,,,,,,,,,,,,,,
,,,,,,611e3b4ed4f4616be7914ffd,62bbfb7edd33c6b4ecf3589a,2022-06-29_09h15.07.691,Colour_Asymmetry_Pilot,2022.1.3,Win32,60.22645146,62bbe60bf3d75ef465d3e404,0,146,146,8,1,onetwo,,,,,,,,,,,,,,,,,,,,,,,,,,,,,,,,,,,,,,,,,,,,,,,,,,,,,,,,,,,,,,,,,,,,,,,,,,,,,,,,,,,,,,,,,,,,,,,,,,,,,,,,,,,,,,,,,,,,,,,,,,,,,,,,,,,,,,,,,,,,,,,,,,,,,,,,
,,,,,,611e3b4ed4f4616be7914ffd,62bbfb7edd33c6b4ecf3589a,2022-06-29_09h15.07.691,Colour_Asymmetry_Pilot,2022.1.3,Win32,60.22645146,62bbe60bf3d75ef465d3e404,0,147,147,62,1,fourtwo,,,,,,,,,,,,,,,,,,,,,,,,,,,,,,,,,,,,,,,,,,,,,,,,,,,,,,,,,,,,,,,,,,,,,,,,,,,,,,,,,,,,,,,,,,,,,,,,,,,,,,,,,,,,,,,,,,,,,,,,,,,,,,,,,,,,,,,,,,,,,,,,,,,,,,,,
,,,,,,611e3b4ed4f4616be7914ffd,62bbfb7edd33c6b4ecf3589a,2022-06-29_09h15.07.691,Colour_Asymmetry_Pilot,2022.1.3,Win32,60.22645146,62bbe60bf3d75ef465d3e404,0,148,148,143,1,fourthree,,,,,,,,,,,,,,,,,,,,,,,,,,,,,,,,,,,,,,,,,,,,,,,,,,,,,,,,,,,,,,,,,,,,,,,,,,,,,,,,,,,,,,,,,,,,,,,,,,,,,,,,,,,,,,,,,,,,,,,,,,,,,,,,,,,,,,,,,,,,,,,,,,,,,,,,
,,,,,,611e3b4ed4f4616be7914ffd,62bbfb7edd33c6b4ecf3589a,2022-06-29_09h15.07.691,Colour_Asymmetry_Pilot,2022.1.3,Win32,60.22645146,62bbe60bf3d75ef465d3e404,0,149,149,67,1,twofour,,,,,,,,,,,,,,,,,,,,,,,,,,,,,,,,,,,,,,,,,,,,,,,,,,,,,,,,,,,,,,,,,,,,,,,,,,,,,,,,,,,,,,,,,,,,,,,,,,,,,,,,,,,,,,,,,,,,,,,,,,,,,,,,,,,,,,,,,,,,,,,,,,,,,,,,
,,,,,,611e3b4ed4f4616be7914ffd,62bbfb7edd33c6b4ecf3589a,2022-06-29_09h15.07.691,Colour_Asymmetry_Pilot,2022.1.3,Win32,60.22645146,62bbe60bf3d75ef465d3e404,0,150,150,141,1,threefour,,,,,,,,,,,,,,,,,,,,,,,,,,,,,,,,,,,,,,,,,,,,,,,,,,,,,,,,,,,,,,,,,,,,,,,,,,,,,,,,,,,,,,,,,,,,,,,,,,,,,,,,,,,,,,,,,,,,,,,,,,,,,,,,,,,,,,,,,,,,,,,,,,,,,,,,
,,,,,,611e3b4ed4f4616be7914ffd,62bbfb7edd33c6b4ecf3589a,2022-06-29_09h15.07.691,Colour_Asymmetry_Pilot,2022.1.3,Win32,60.22645146,62bbe60bf3d75ef465d3e404,0,151,151,88,1,onetwo,,,,,,,,,,,,,,,,,,,,,,,,,,,,,,,,,,,,,,,,,,,,,,,,,,,,,,,,,,,,,,,,,,,,,,,,,,,,,,,,,,,,,,,,,,,,,,,,,,,,,,,,,,,,,,,,,,,,,,,,,,,,,,,,,,,,,,,,,,,,,,,,,,,,,,,,
,,,,,,611e3b4ed4f4616be7914ffd,62bbfb7edd33c6b4ecf3589a,2022-06-29_09h15.07.691,Colour_Asymmetry_Pilot,2022.1.3,Win32,60.22645146,62bbe60bf3d75ef465d3e404,0,152,152,18,1,twoone,,,,,,,,,,,,,,,,,,,,,,,,,,,,,,,,,,,,,,,,,,,,,,,,,,,,,,,,,,,,,,,,,,,,,,,,,,,,,,,,,,,,,,,,,,,,,,,,,,,,,,,,,,,,,,,,,,,,,,,,,,,,,,,,,,,,,,,,,,,,,,,,,,,,,,,,
,,,,,,611e3b4ed4f4616be7914ffd,62bbfb7edd33c6b4ecf3589a,2022-06-29_09h15.07.691,Colour_Asymmetry_Pilot,2022.1.3,Win32,60.22645146,62bbe60bf3d75ef465d3e404,0,153,153,65,1,onethree,,,,,,,,,,,,,,,,,,,,,,,,,,,,,,,,,,,,,,,,,,,,,,,,,,,,,,,,,,,,,,,,,,,,,,,,,,,,,,,,,,,,,,,,,,,,,,,,,,,,,,,,,,,,,,,,,,,,,,,,,,,,,,,,,,,,,,,,,,,,,,,,,,,,,,,,
,,,,,,611e3b4ed4f4616be7914ffd,62bbfb7edd33c6b4ecf3589a,2022-06-29_09h15.07.691,Colour_Asymmetry_Pilot,2022.1.3,Win32,60.22645146,62bbe60bf3d75ef465d3e404,0,154,154,9,1,onethree,,,,,,,,,,,,,,,,,,,,,,,,,,,,,,,,,,,,,,,,,,,,,,,,,,,,,,,,,,,,,,,,,,,,,,,,,,,,,,,,,,,,,,,,,,,,,,,,,,,,,,,,,,,,,,,,,,,,,,,,,,,,,,,,,,,,,,,,,,,,,,,,,,,,,,,,
,,,,,,611e3b4ed4f4616be7914ffd,62bbfb7edd33c6b4ecf3589a,2022-06-29_09h15.07.691,Colour_Asymmetry_Pilot,2022.1.3,Win32,60.22645146,62bbe60bf3d75ef465d3e404,0,155,155,21,1,threefour,,,,,,,,,,,,,,,,,,,,,,,,,,,,,,,,,,,,,,,,,,,,,,,,,,,,,,,,,,,,,,,,,,,,,,,,,,,,,,,,,,,,,,,,,,,,,,,,,,,,,,,,,,,,,,,,,,,,,,,,,,,,,,,,,,,,,,,,,,,,,,,,,,,,,,,,
,,,,,,611e3b4ed4f4616be7914ffd,62bbfb7edd33c6b4ecf3589a,2022-06-29_09h15.07.691,Colour_Asymmetry_Pilot,2022.1.3,Win32,60.22645146,62bbe60bf3d75ef465d3e404,0,156,156,78,1,fourtwo,,,,,,,,,,,,,,,,,,,,,,,,,,,,,,,,,,,,,,,,,,,,,,,,,,,,,,,,,,,,,,,,,,,,,,,,,,,,,,,,,,,,,,,,,,,,,,,,,,,,,,,,,,,,,,,,,,,,,,,,,,,,,,,,,,,,,,,,,,,,,,,,,,,,,,,,
,,,,,,611e3b4ed4f4616be7914ffd,62bbfb7edd33c6b4ecf3589a,2022-06-29_09h15.07.691,Colour_Asymmetry_Pilot,2022.1.3,Win32,60.22645146,62bbe60bf3d75ef465d3e404,0,157,157,54,1,fourtwo,,,,,,,,,,,,,,,,,,,,,,,,,,,,,,,,,,,,,,,,,,,,,,,,,,,,,,,,,,,,,,,,,,,,,,,,,,,,,,,,,,,,,,,,,,,,,,,,,,,,,,,,,,,,,,,,,,,,,,,,,,,,,,,,,,,,,,,,,,,,,,,,,,,,,,,,
,,,,,,611e3b4ed4f4616be7914ffd,62bbfb7edd33c6b4ecf3589a,2022-06-29_09h15.07.691,Colour_Asymmetry_Pilot,2022.1.3,Win32,60.22645146,62bbe60bf3d75ef465d3e404,0,158,158,2,1,twoone,,,,,,,,,,,,,,,,,,,,,,,,,,,,,,,,,,,,,,,,,,,,,,,,,,,,,,,,,,,,,,,,,,,,,,,,,,,,,,,,,,,,,,,,,,,,,,,,,,,,,,,,,,,,,,,,,,,,,,,,,,,,,,,,,,,,,,,,,,,,,,,,,,,,,,,,
,,,,,,611e3b4ed4f4616be7914ffd,62bbfb7edd33c6b4ecf3589a,2022-06-29_09h15.07.691,Colour_Asymmetry_Pilot,2022.1.3,Win32,60.22645146,62bbe60bf3d75ef465d3e404,0,159,159,12,1,threeone,,,,,,,,,,,,,,,,,,,,,,,,,,,,,,,,,,,,,,,,,,,,,,,,,,,,,,,,,,,,,,,,,,,,,,,,,,,,,,,,,,,,,,,,,,,,,,,,,,,,,,,,,,,,,,,,,,,,,,,,,,,,,,,,,,,,,,,,,,,,,,,,,,,,,,,,
,,,,,,611e3b4ed4f4616be7914ffd,62bbfb7edd33c6b4ecf3589a,2022-06-29_09h15.07.691,Colour_Asymmetry_Pilot,2022.1.3,Win32,60.22645146,62bbe60bf3d75ef465d3e404,0,160,160,47,1,fourthree,,,,,,,,,,,,,,,,,,,,,,,,,,,,,,,,,,,,,,,,,,,,,,,,,,,,,,,,,,,,,,,,,,,,,,,,,,,,,,,,,,,,,,,,,,,,,,,,,,,,,,,,,,,,,,,,,,,,,,,,,,,,,,,,,,,,,,,,,,,,,,,,,,,,,,,,
,,,,,,611e3b4ed4f4616be7914ffd,62bbfb7edd33c6b4ecf3589a,2022-06-29_09h15.07.691,Colour_Asymmetry_Pilot,2022.1.3,Win32,60.22645146,62bbe60bf3d75ef465d3e404,0,161,161,15,1,fourthree,,,,,,,,,,,,,,,,,,,,,,,,,,,,,,,,,,,,,,,,,,,,,,,,,,,,,,,,,,,,,,,,,,,,,,,,,,,,,,,,,,,,,,,,,,,,,,,,,,,,,,,,,,,,,,,,,,,,,,,,,,,,,,,,,,,,,,,,,,,,,,,,,,,,,,,,
,,,,,,611e3b4ed4f4616be7914ffd,62bbfb7edd33c6b4ecf3589a,2022-06-29_09h15.07.691,Colour_Asymmetry_Pilot,2022.1.3,Win32,60.22645146,62bbe60bf3d75ef465d3e404,,,,,,,space,19.7062,space,34.5819,space,58.4763,space,13.5981,space,2.7845,space,4.2514,"[-0.8118,-0.8198,-0.5452]",onetwo,"[-0.24719999999999998,-0.0354000000000001,0.3175999999999999]",4,5.3276,19,50,1,0,0,response1disk_5,-1,6,1,0,0,rectangle_8,-1,6,1,0,0,4,-1,6,1,0,0,0,0,0,0,1,,,,,,,,,,,,,,,,,,,,,,,,,,,,,,,,,,,,,,,,,,,,,,,,,,,,,,,,,,,,,,,,,,,,,,,,,,,,,,,,,,,,,,,,,,,,,,,,,,,,,,,,,,,
,,,,,,611e3b4ed4f4616be7914ffd,62bbfb7edd33c6b4ecf3589a,2022-06-29_09h15.07.691,Colour_Asymmetry_Pilot,2022.1.3,Win32,60.22645146,62bbe60bf3d75ef465d3e404,,,,,,,,,,,,,,,,,,,"[0.6625999999999999,0.4980000000000002,-0.357]",onethree,"[0.9686000000000001,0.5763999999999998,0.11359999999999992]",-4,1.0824,-19,37,1,0,0,response7disk_5,-6,-2,1,0,0,rectangle_8,-6,-2,1,0,0,4,-6,-2,1,0,0,1,0,1,0,1,,,,,,,,,,,,,,,,,,,,,,,,,,,,,,,,,,,,,,,,,,,,,,,,,,,,,,,,,,,,,,,,,,,,,,,,,,,,,,,,,,,,,,,,,,,,,,,,,,,,,,,,,,,
,,,,,,611e3b4ed4f4616be7914ffd,62bbfb7edd33c6b4ecf3589a,2022-06-29_09h15.07.691,Colour_Asymmetry_Pilot,2022.1.3,Win32,60.22645146,62bbe60bf3d75ef465d3e404,,,,,,,,,,,,,,,,,,,"[-0.9688,-0.7412000000000001,-0.4902000000000001]",twoone,"[0.37240000000000006,-0.050999999999999934,-0.5216]",-4,1.5797,-16,49,1,0,0,response7disk_5,14,-5,1,0,0,rectangle_8,17,55,1,0,0,4,-5,4,1,0,0,2,0,2,0,1,response1disk_7,7,rectangle_4,,,,,,,,,,,,,,,,,,,,,,,,,,,,,,,,,,,,,,,,,,,,,,,,,,,,,,,,,,,,,,,,,,,,,,,,,,,,,,,,,,,,,,,,,,,,,,,,,,,,,,,,
,,,,,,611e3b4ed4f4616be7914ffd,62bbfb7edd33c6b4ecf3589a,2022-06-29_09h15.07.691,Colour_Asymmetry_Pilot,2022.1.3,Win32,60.22645146,62bbe60bf3d75ef465d3e404,,,,,,,,,,,,,,,,,,,"[-0.9766,-0.34920000000000007,0.2156]",threefour,"[-0.6235999999999999,-0.6786,-0.08239999999999992]",4,2.1492,14,40,1,0,0,response1disk_5,-7,-1,1,0,0,rectangle_8,-7,-1,1,0,0,4,-7,-1,1,0,0,3,0,3,0,1,,,,,,,,,,,,,,,,,,,,,,,,,,,,,,,,,,,,,,,,,,,,,,,,,,,,,,,,,,,,,,,,,,,,,,,,,,,,,,,,,,,,,,,,,,,,,,,,,,,,,,,,,,,
,,,,,,611e3b4ed4f4616be7914ffd,62bbfb7edd33c6b4ecf3589a,2022-06-29_09h15.07.691,Colour_Asymmetry_Pilot,2022.1.3,Win32,60.22645146,62bbe60bf3d75ef465d3e404,,,,,,,,,,,,,,,,,,,"[0.9763999999999999,0.8588,-0.05900000000000005]",threefour,"[-0.01980000000000004,-0.5138,-0.38039999999999996]",-4,1.0193,-24,51,1,0,0,response7disk_5,-7,-4,1,0,0,rectangle_8,-7,-4,1,0,0,4,-7,-4,1,0,0,4,0,4,0,1,,,,,,,,,,,,,,,,,,,,,,,,,,,,,,,,,,,,,,,,,,,,,,,,,,,,,,,,,,,,,,,,,,,,,,,,,,,,,,,,,,,,,,,,,,,,,,,,,,,,,,,,,,,
,,,,,,611e3b4ed4f4616be7914ffd,62bbfb7edd33c6b4ecf3589a,2022-06-29_09h15.07.691,Colour_Asymmetry_Pilot,2022.1.3,Win32,60.22645146,62bbe60bf3d75ef465d3e404,,,,,,,,,,,,,,,,,,,"[0.796,0.2156,-0.27859999999999996]",threeone,"[-0.24719999999999998,-0.0354000000000001,0.3175999999999999]",-4,0.9176,-22,40,1,0,0,response7disk_5,-2,1,1,0,0,rectangle_8,-2,1,1,0,0,4,-2,1,1,0,0,5,0,5,0,1,,,,,,,,,,,,,,,,,,,,,,,,,,,,,,,,,,,,,,,,,,,,,,,,,,,,,,,,,,,,,,,,,,,,,,,,,,,,,,,,,,,,,,,,,,,,,,,,,,,,,,,,,,,
,,,,,,611e3b4ed4f4616be7914ffd,62bbfb7edd33c6b4ecf3589a,2022-06-29_09h15.07.691,Colour_Asymmetry_Pilot,2022.1.3,Win32,60.22645146,62bbe60bf3d75ef465d3e404,,,,,,,,,,,,,,,,,,,"[-0.38039999999999996,-0.4276,-0.1452]",onetwo,"[0.05879999999999996,0.2784,0.5841999999999998]",-4,1.4004,-20,36,1,0,0,response7disk_5,-5,8,1,0,0,rectangle_8,-5,8,1,0,0,4,-5,8,1,0,0,6,0,6,0,1,,,,,,,,,,,,,,,,,,,,,,,,,,,,,,,,,,,,,,,,,,,,,,,,,,,,,,,,,,,,,,,,,,,,,,,,,,,,,,,,,,,,,,,,,,,,,,,,,,,,,,,,,,,
,,,,,,611e3b4ed4f4616be7914ffd,62bbfb7edd33c6b4ecf3589a,2022-06-29_09h15.07.691,Colour_Asymmetry_Pilot,2022.1.3,Win32,60.22645146,62bbe60bf3d75ef465d3e404,,,,,,,,,,,,,,,,,,,,onetwo,,-4,1.7346,,,,,,,,,,,,,,,,,,,,,,,,,,,,,,,,space,3.3704,"[0.7018,0.7802,-0.16079999999999994]","[-0.24719999999999998,0.5213999999999999,-0.12959999999999994]",-15,29,1,0,0,response7disk,-1,-3,1,0,0,rectangle,-1,-3,1,0,0,,1,0.0025,0,-1,-3,1,0,0,0,0,0,151,1,70,second,,,,,,,,,,,,,,,,,,,,,,,,,,,,,,,,,,,,,,,,,,,,,,,,,,,,,,,,,,,,,,,,,,,
,,,,,,611e3b4ed4f4616be7914ffd,62bbfb7edd33c6b4ecf3589a,2022-06-29_09h15.07.691,Colour_Asymmetry_Pilot,2022.1.3,Win32,60.22645146,62bbe60bf3d75ef465d3e404,,,,,,,,,,,,,,,,,,,,threeone,,4,0.5563,,,,,,,,,,,,,,,,,,,,,,,,,,,,,,,,,,"[0.5449999999999999,-0.31000000000000005,-0.0354000000000001]","[0.5449999999999999,-0.31000000000000005,-0.0354000000000001]",16,60,1,0,0,response1disk,13,4,1,0,0,rectangle,13,4,1,0,0,,1,0.0004,0,13,4,1,0,0,0,1,1,152,1,71,second,,,,,,,,,,,,,,,,,,,,,,,,,,,,,,,,,,,,,,,,,,,,,,,,,,,,,,,,,,,,,,,,,,,
,,,,,,611e3b4ed4f4616be7914ffd,62bbfb7edd33c6b4ecf3589a,2022-06-29_09h15.07.691,Colour_Asymmetry_Pilot,2022.1.3,Win32,60.22645146,62bbe60bf3d75ef465d3e404,,,,,,,,,,,,,,,,,,,,threefour,,-4,0.6075,,,,,,,,,,,,,,,,,,,,,,,,,,,,,,,,,,"[-0.5688,-0.08239999999999992,-0.1844]","[-0.07459999999999989,0.12139999999999995,-0.9922]",-21,41,1,0,0,response7disk,-6,-4,1,0,0,rectangle,-18,-39,1,0,0,-1,1,2.7345,1,-5,5,1,0,0,0,2,2,55,1,55,first,response5disk_3,rectangle,,,,,,,,,,,,,,,,,,,,,,,,,,,,,,,,,,,,,,,,,,,,,,,,,,,,,,,,,,,,,,,,,
,,,,,,611e3b4ed4f4616be7914ffd,62bbfb7edd33c6b4ecf3589a,2022-06-29_09h15.07.691,Colour_Asymmetry_Pilot,2022.1.3,Win32,60.22645146,62bbe60bf3d75ef465d3e404,,,,,,,,,,,,,,,,,,,,twoone,,4,1.399,,,,,,,,,,,,,,,,,,,,,,,,,,,,,,,,,,"[-0.4668,-0.8746,-0.2942]","[-0.4668,-0.8746,-0.2942]",15,54,1,0,0,response1disk,9,6,1,0,0,rectangle,9,6,1,0,0,-1,3,0.002,0,9,6,1,0,0,0,3,3,48,1,48,first,,,,,,,,,,,,,,,,,,,,,,,,,,,,,,,,,,,,,,,,,,,,,,,,,,,,,,,,,,,,,,,,,,,
,,,,,,611e3b4ed4f4616be7914ffd,62bbfb7edd33c6b4ecf3589a,2022-06-29_09h15.07.691,Colour_Asymmetry_Pilot,2022.1.3,Win32,60.22645146,62bbe60bf3d75ef465d3e404,,,,,,,,,,,,,,,,,,,,fourthree,,-4,0.5677,,,,,,,,,,,,,,,,,,,,,,,,,,,,,,,,,,"[-0.5922000000000001,-0.7492000000000001,-0.5296000000000001]","[0.9763999999999999,0.8588,-0.05900000000000005]",-23,34,1,0,0,response7disk,-4,-2,1,0,0,rectangle,-4,-2,1,0,0,-1,2,0.0083,0,-4,-2,1,0,0,0,4,4,112,1,31,second,,,,,,,,,,,,,,,,,,,,,,,,,,,,,,,,,,,,,,,,,,,,,,,,,,,,,,,,,,,,,,,,,,,
,,,,,,611e3b4ed4f4616be7914ffd,62bbfb7edd33c6b4ecf3589a,2022-06-29_09h15.07.691,Colour_Asymmetry_Pilot,2022.1.3,Win32,60.22645146,62bbe60bf3d75ef465d3e404,,,,,,,,,,,,,,,,,,,,fourtwo,,-4,1.4888,,,,,,,,,,,,,,,,,,,,,,,,,,,,,,,,,,"[0.09799999999999986,-0.24719999999999998,0.15280000000000005]","[0.7018,0.7176,0.6155999999999999]",-13,42,1,0,0,response7disk,12,13,1,0,0,rectangle,12,13,1,0,0,4,1,0.001,0,12,13,1,0,0,0,5,5,116,1,35,second,,,,,,,,,,,,,,,,,,,,,,,,,,,,,,,,,,,,,,,,,,,,,,,,,,,,,,,,,,,,,,,,,,,
,,,,,,611e3b4ed4f4616be7914ffd,62bbfb7edd33c6b4ecf3589a,2022-06-29_09h15.07.691,Colour_Asymmetry_Pilot,2022.1.3,Win32,60.22645146,62bbe60bf3d75ef465d3e404,,,,,,,,,,,,,,,,,,,,twofour,,-4,0.4837,,,,,,,,,,,,,,,,,,,,,,,,,,,,,,,,,,"[0.3568,-0.20799999999999996,-0.9844]","[-0.5688,-0.08239999999999992,-0.1844]",-20,43,1,0,0,response7disk,-6,10,1,0,0,rectangle,-6,10,1,0,0,4,2,0.0016,0,-6,10,1,0,0,0,6,6,140,1,59,second,,,,,,,,,,,,,,,,,,,,,,,,,,,,,,,,,,,,,,,,,,,,,,,,,,,,,,,,,,,,,,,,,,,
,,,,,,611e3b4ed4f4616be7914ffd,62bbfb7edd33c6b4ecf3589a,2022-06-29_09h15.07.691,Colour_Asymmetry_Pilot,2022.1.3,Win32,60.22645146,62bbe60bf3d75ef465d3e404,,,,,,,,,,,,,,,,,,,,threefour,,-4,0.3321,,,,,,,,,,,,,,,,,,,,,,,,,,,,,,,,,,"[-0.8982,-0.37259999999999993,0.2784]","[-0.17659999999999998,0.3253999999999999,0.19999999999999996]",-12,22,1,0,0,response7disk,-1,-5,1,0,0,rectangle,-1,-5,1,0,0,4,3,0.0011,0,-1,-5,1,0,0,0,7,7,87,1,6,second,,,,,,,,,,,,,,,,,,,,,,,,,,,,,,,,,,,,,,,,,,,,,,,,,,,,,,,,,,,,,,,,,,,
,,,,,,611e3b4ed4f4616be7914ffd,62bbfb7edd33c6b4ecf3589a,2022-06-29_09h15.07.691,Colour_Asymmetry_Pilot,2022.1.3,Win32,60.22645146,62bbe60bf3d75ef465d3e404,,,,,,,,,,,,,,,,,,,,onetwo,,-4,0.3493,,,,,,,,,,,,,,,,,,,,,,,,,,,,,,,,,,"[0.11359999999999992,0.6312,0.5213999999999999]","[0.9842,0.7409999999999999,-0.6628000000000001]",-28,49,1,0,0,response7disk,-7,9,1,0,0,rectangle,-7,9,1,0,0,4,3,0.0002,0,-7,9,1,0,0,0,8,8,18,1,18,first,,,,,,,,,,,,,,,,,,,,,,,,,,,,,,,,,,,,,,,,,,,,,,,,,,,,,,,,,,,,,,,,,,,
,,,,,,611e3b4ed4f4616be7914ffd,62bbfb7edd33c6b4ecf3589a,2022-06-29_09h15.07.691,Colour_Asymmetry_Pilot,2022.1.3,Win32,60.22645146,62bbe60bf3d75ef465d3e404,,,,,,,,,,,,,,,,,,,,threefour,,-4,0.3777,,,,,,,,,,,,,,,,,,,,,,,,,,,,,,,,,,"[0.3881999999999999,-0.23939999999999995,-0.05040000000000011]","[-0.17659999999999998,-0.2864,-0.8354]",-15,32,1,0,0,response7disk,-6,4,1,0,0,rectangle,-6,4,1,0,0,4,3,0.0003,0,-6,4,1,0,0,0,9,9,5,1,5,first,,,,,,,,,,,,,,,,,,,,,,,,,,,,,,,,,,,,,,,,,,,,,,,,,,,,,,,,,,,,,,,,,,,
,,,,,,611e3b4ed4f4616be7914ffd,62bbfb7edd33c6b4ecf3589a,2022-06-29_09h15.07.691,Colour_Asymmetry_Pilot,2022.1.3,Win32,60.22645146,62bbe60bf3d75ef465d3e404,,,,,,,,,,,,,,,,,,,,twofour,,-4,0.4675,,,,,,,,,,,,,,,,,,,,,,,,,,,,,,,,,,"[0.9686000000000001,0.3802000000000001,0.19999999999999996]","[0.7646000000000002,0.07440000000000002,0.2704]",-17,38,1,0,0,response7disk,-2,7,1,0,0,rectangle,-2,7,1,0,0,4,2,0.0011,0,-2,7,1,0,0,0,10,10,43,1,43,first,,,,,,,,,,,,,,,,,,,,,,,,,,,,,,,,,,,,,,,,,,,,,,,,,,,,,,,,,,,,,,,,,,,
,,,,,,611e3b4ed4f4616be7914ffd,62bbfb7edd33c6b4ecf3589a,2022-06-29_09h15.07.691,Colour_Asymmetry_Pilot,2022.1.3,Win32,60.22645146,62bbe60bf3d75ef465d3e404,,,,,,,,,,,,,,,,,,,,threefour,,-4,2.3511,,,,,,,,,,,,,,,,,,,,,,,,,,,,,,,,,,"[0.9213999999999998,0.6391999999999998,-0.9922]","[-0.0040000000000000036,0.02739999999999987,-0.08239999999999992]",-12,51,1,0,0,response7disk,-10,4,1,0,0,rectangle,-10,4,1,0,0,4,3,0.0011,0,-10,4,1,0,0,0,11,11,72,1,72,first,,,,,,,,,,,,,,,,,,,,,,,,,,,,,,,,,,,,,,,,,,,,,,,,,,,,,,,,,,,,,,,,,,,
,,,,,,611e3b4ed4f4616be7914ffd,62bbfb7edd33c6b4ecf3589a,2022-06-29_09h15.07.691,Colour_Asymmetry_Pilot,2022.1.3,Win32,60.22645146,62bbe60bf3d75ef465d3e404,,,,,,,,,,,,,,,,,,,,fourthree,,-4,0.4996,,,,,,,,,,,,,,,,,,,,,,,,,,,,,,,,,,"[-0.4982,-0.2942,-0.0354000000000001]","[0.6625999999999999,0.4980000000000002,-0.357]",-21,52,1,0,0,response7disk,-4,-1,1,0,0,rectangle,-4,-1,1,0,0,4,1,0.0014,0,-4,-1,1,0,0,0,12,12,158,1,77,second,,,,,,,,,,,,,,,,,,,,,,,,,,,,,,,,,,,,,,,,,,,,,,,,,,,,,,,,,,,,,,,,,,,
,,,,,,611e3b4ed4f4616be7914ffd,62bbfb7edd33c6b4ecf3589a,2022-06-29_09h15.07.691,Colour_Asymmetry_Pilot,2022.1.3,Win32,60.22645146,62bbe60bf3d75ef465d3e404,,,,,,,,,,,,,,,,,,,,twoone,,-4,0.359,,,,,,,,,,,,,,,,,,,,,,,,,,,,,,,,,,"[-0.24719999999999998,-0.0354000000000001,0.3175999999999999]","[-0.6706000000000001,-0.6157999999999999,-0.6786]",-26,60,1,0,0,response7disk,1,9,1,0,0,rectangle,1,9,1,0,0,4,3,0.0011,0,1,9,1,0,0,0,13,13,12,1,12,first,,,,,,,,,,,,,,,,,,,,,,,,,,,,,,,,,,,,,,,,,,,,,,,,,,,,,,,,,,,,,,,,,,,
,,,,,,611e3b4ed4f4616be7914ffd,62bbfb7edd33c6b4ecf3589a,2022-06-29_09h15.07.691,Colour_Asymmetry_Pilot,2022.1.3,Win32,60.22645146,62bbe60bf3d75ef465d3e404,,,,,,,,,,,,,,,,,,,,onetwo,,-4,0.3705,,,,,,,,,,,,,,,,,,,,,,,,,,,,,,,,,,"[-0.5688,-0.08239999999999992,-0.1844]","[0.34099999999999997,0.12939999999999996,-0.9766]",-17,33,1,0,0,response7disk,0,7,1,0,0,rectangle,0,7,1,0,0,4,1,0.0028,0,0,7,1,0,0,0,14,14,29,1,29,first,,,,,,,,,,,,,,,,,,,,,,,,,,,,,,,,,,,,,,,,,,,,,,,,,,,,,,,,,,,,,,,,,,,
,,,,,,611e3b4ed4f4616be7914ffd,62bbfb7edd33c6b4ecf3589a,2022-06-29_09h15.07.691,Colour_Asymmetry_Pilot,2022.1.3,Win32,60.22645146,62bbe60bf3d75ef465d3e404,,,,,,,,,,,,,,,,,,,,onethree,,4,0.5243,,,,,,,,,,,,,,,,,,,,,,,,,,,,,,,,,,"[0.2862,0.7802,0.3568]","[0.0351999999999999,0.41159999999999997,0.0038000000000000256]",16,53,1,0,0,response1disk,1,3,1,0,0,rectangle,1,3,1,0,0,4,1,0.0002,0,1,3,1,0,0,0,15,15,109,1,28,second,,,,,,,,,,,,,,,,,,,,,,,,,,,,,,,,,,,,,,,,,,,,,,,,,,,,,,,,,,,,,,,,,,,
,,,,,,611e3b4ed4f4616be7914ffd,62bbfb7edd33c6b4ecf3589a,2022-06-29_09h15.07.691,Colour_Asymmetry_Pilot,2022.1.3,Win32,60.22645146,62bbe60bf3d75ef465d3e404,,,,,,,,,,,,,,,,,,,,onetwo,,4,0.3496,,,,,,,,,,,,,,,,,,,,,,,,,,,,,,,,,,"[-0.2942,-0.7648,-0.7492000000000001]","[-0.01980000000000004,-0.5138,-0.38039999999999996]",17,39,1,0,0,response1disk,8,-1,1,0,0,rectangle,8,-1,1,0,0,4,3,0.0019,0,8,-1,1,0,0,0,16,16,39,1,39,first,,,,,,,,,,,,,,,,,,,,,,,,,,,,,,,,,,,,,,,,,,,,,,,,,,,,,,,,,,,,,,,,,,,
,,,,,,611e3b4ed4f4616be7914ffd,62bbfb7edd33c6b4ecf3589a,2022-06-29_09h15.07.691,Colour_Asymmetry_Pilot,2022.1.3,Win32,60.22645146,62bbe60bf3d75ef465d3e404,,,,,,,,,,,,,,,,,,,,fourtwo,,-4,1.2723,,,,,,,,,,,,,,,,,,,,,,,,,,,,,,,,,,"[-0.01980000000000004,-0.5138,-0.38039999999999996]","[-0.2942,-0.7648,-0.7492000000000001]",-20,47,1,0,0,response7disk,-3,2,1,0,0,rectangle,-3,2,1,0,0,4,3,0.0002,0,-3,2,1,0,0,0,17,17,120,1,39,second,,,,,,,,,,,,,,,,,,,,,,,,,,,,,,,,,,,,,,,,,,,,,,,,,,,,,,,,,,,,,,,,,,,
,,,,,,611e3b4ed4f4616be7914ffd,62bbfb7edd33c6b4ecf3589a,2022-06-29_09h15.07.691,Colour_Asymmetry_Pilot,2022.1.3,Win32,60.22645146,62bbe60bf3d75ef465d3e404,,,,,,,,,,,,,,,,,,,,threefour,,-4,0.4837,,,,,,,,,,,,,,,,,,,,,,,,,,,,,,,,,,"[0.9372,0.20779999999999998,0.2704]","[-0.9688,-0.4902000000000001,-0.12159999999999993]",-23,42,1,0,0,response7disk,1,9,1,0,0,rectangle,46,-17,1,0,0,2,2,2.3711,1,2,-1,1,0,0,0,18,18,104,1,23,second,response3disk_3,rectangle,,,,,,,,,,,,,,,,,,,,,,,,,,,,,,,,,,,,,,,,,,,,,,,,,,,,,,,,,,,,,,,,,
,,,,,,611e3b4ed4f4616be7914ffd,62bbfb7edd33c6b4ecf3589a,2022-06-29_09h15.07.691,Colour_Asymmetry_Pilot,2022.1.3,Win32,60.22645146,62bbe60bf3d75ef465d3e404,,,,,,,,,,,,,,,,,,,,onetwo,,-4,0.3833,,,,,,,,,,,,,,,,,,,,,,,,,,,,,,,,,,"[0.19199999999999995,0.18419999999999992,0.5136000000000001]","[-0.4668,-0.8746,-0.2942]",-21,33,1,0,0,response7disk,-4,-6,1,0,0,rectangle,-4,-6,1,0,0,2,1,0.0017,0,-4,-6,1,0,0,0,19,19,68,1,68,first,,,,,,,,,,,,,,,,,,,,,,,,,,,,,,,,,,,,,,,,,,,,,,,,,,,,,,,,,,,,,,,,,,,
,,,,,,611e3b4ed4f4616be7914ffd,62bbfb7edd33c6b4ecf3589a,2022-06-29_09h15.07.691,Colour_Asymmetry_Pilot,2022.1.3,Win32,60.22645146,62bbe60bf3d75ef465d3e404,,,,,,,,,,,,,,,,,,,,twoone,,-4,0.3339,,,,,,,,,,,,,,,,,,,,,,,,,,,,,,,,,,"[-0.9296,-0.12959999999999994,-0.043199999999999905]","[0.23120000000000007,-0.7726,-0.34120000000000006]",-18,44,1,0,0,response7disk,7,9,1,0,0,rectangle,7,9,1,0,0,2,2,0.0089,0,7,9,1,0,0,0,20,20,133,1,52,second,,,,,,,,,,,,,,,,,,,,,,,,,,,,,,,,,,,,,,,,,,,,,,,,,,,,,,,,,,,,,,,,,,,
