trials.thisRepN,trials.thisTrialN,trials.thisN,trials.thisIndex,trials.ran,Colourcodes,participant,session,date,expName,psychopyVersion,OS,frameRate,study_id,trials_4.thisRepN,trials_4.thisTrialN,trials_4.thisN,trials_4.thisIndex,trials_4.ran,StimulusPos,key_resp.keys,key_resp.rt,key_resp_2.keys,key_resp_2.rt,key_resp_15.keys,key_resp_15.rt,key_resp_17.keys,key_resp_17.rt,key_resp_9.keys,key_resp_9.rt,key_resp_10.keys,key_resp_10.rt,Circle1_col,Ecc,Circle2_col,similarity,response_time,mouse_5.x,mouse_5.y,mouse_5.leftButton,mouse_5.midButton,mouse_5.rightButton,mouse_5.clicked_name,mouse_10.x,mouse_10.y,mouse_10.leftButton,mouse_10.midButton,mouse_10.rightButton,mouse_10.clicked_name,mouse_7.x,mouse_7.y,mouse_7.leftButton,mouse_7.midButton,mouse_7.rightButton,catchnumberprac,mouse_6.x,mouse_6.y,mouse_6.leftButton,mouse_6.midButton,mouse_6.rightButton,duringprac.thisRepN,duringprac.thisTrialN,duringprac.thisN,duringprac.thisIndex,duringprac.ran,mouse_7.clicked_name,catchprac,mouse_6.clicked_name,key_resp_22.keys,key_resp_22.rt,Circle1_colour,Circle2_colour,mouse.x,mouse.y,mouse.leftButton,mouse.midButton,mouse.rightButton,mouse.clicked_name,mouse_2.x,mouse_2.y,mouse_2.leftButton,mouse_2.midButton,mouse_2.rightButton,mouse_2.clicked_name,mouse_3.x,mouse_3.y,mouse_3.leftButton,mouse_3.midButton,mouse_3.rightButton,catchresponse,catchnumber,response_time_catch,Catch,mouse_11.x,mouse_11.y,mouse_11.leftButton,mouse_11.midButton,mouse_11.rightButton,trials_2.thisRepN,trials_2.thisTrialN,trials_2.thisN,trials_2.thisIndex,trials_2.ran,Colourpair,Temporder,mouse_3.clicked_name,mouse_11.clicked_name,trials_3.thisRepN,trials_3.thisTrialN,trials_3.thisN,trials_3.thisIndex,trials_3.ran,key_resp_instr_Ishi.keys,key_resp_instr_Ishi.rt,Ishi_trial_keyresp.keys,Ishi_trial_keyresp.rt,Ishi_textbox.text,Ishi_loop.thisRepN,Ishi_loop.thisTrialN,Ishi_loop.thisN,Ishi_loop.thisIndex,Ishi_loop.ran,imageaddress,textbox.text,mouse_4.x,mouse_4.y,mouse_4.leftButton,mouse_4.midButton,mouse_4.rightButton,mouse_4.clicked_name,textbox_2.text,mouse_8.x,mouse_8.y,mouse_8.leftButton,mouse_8.midButton,mouse_8.rightButton,mouse_8.clicked_name,textbox_3.text,mouse_9.x,mouse_9.y,mouse_9.leftButton,mouse_9.midButton,mouse_9.rightButton,mouse_9.clicked_name,textbox_4.text,mouse_12.x,mouse_12.y,mouse_12.leftButton,mouse_12.midButton,mouse_12.rightButton,mouse_12.clicked_name,textbox_5.text,mouse_13.x,mouse_13.y,mouse_13.leftButton,mouse_13.midButton,mouse_13.rightButton,mouse_13.clicked_name,textbox_6.text,mouse_14.x,mouse_14.y,mouse_14.leftButton,mouse_14.midButton,mouse_14.rightButton,mouse_14.clicked_name,textbox_7.text,mouse_15.x,mouse_15.y,mouse_15.leftButton,mouse_15.midButton,mouse_15.rightButton,mouse_15.clicked_name
0,0,0,64,1,,60e46765548980c44f6a1edc,62bbfb71aebb35cef2c288f1,2022-06-29_09h19.47.147,Colour_Asymmetry_Pilot,2022.1.3,Win32,59.58410296,62bbe60bf3d75ef465d3e404,,,,,,,,,,,,,,,,,,,,,,,,,,,,,,,,,,,,,,,,,,,,,,,,,,,,,,,,,,,,,,,,,,,,,,,,,,,,,,,,,,,,,,,,,,,,,,,,,,,,,,,,,,,,,,,,,,,,,,,,,,,,,,,,,,,,,,,,,,,,,,,,,,,,,,,,,,,,,,
0,1,1,10,1,,60e46765548980c44f6a1edc,62bbfb71aebb35cef2c288f1,2022-06-29_09h19.47.147,Colour_Asymmetry_Pilot,2022.1.3,Win32,59.58410296,62bbe60bf3d75ef465d3e404,,,,,,,,,,,,,,,,,,,,,,,,,,,,,,,,,,,,,,,,,,,,,,,,,,,,,,,,,,,,,,,,,,,,,,,,,,,,,,,,,,,,,,,,,,,,,,,,,,,,,,,,,,,,,,,,,,,,,,,,,,,,,,,,,,,,,,,,,,,,,,,,,,,,,,,,,,,,,,
0,2,2,52,1,,60e46765548980c44f6a1edc,62bbfb71aebb35cef2c288f1,2022-06-29_09h19.47.147,Colour_Asymmetry_Pilot,2022.1.3,Win32,59.58410296,62bbe60bf3d75ef465d3e404,,,,,,,,,,,,,,,,,,,,,,,,,,,,,,,,,,,,,,,,,,,,,,,,,,,,,,,,,,,,,,,,,,,,,,,,,,,,,,,,,,,,,,,,,,,,,,,,,,,,,,,,,,,,,,,,,,,,,,,,,,,,,,,,,,,,,,,,,,,,,,,,,,,,,,,,,,,,,,
0,3,3,15,1,,60e46765548980c44f6a1edc,62bbfb71aebb35cef2c288f1,2022-06-29_09h19.47.147,Colour_Asymmetry_Pilot,2022.1.3,Win32,59.58410296,62bbe60bf3d75ef465d3e404,,,,,,,,,,,,,,,,,,,,,,,,,,,,,,,,,,,,,,,,,,,,,,,,,,,,,,,,,,,,,,,,,,,,,,,,,,,,,,,,,,,,,,,,,,,,,,,,,,,,,,,,,,,,,,,,,,,,,,,,,,,,,,,,,,,,,,,,,,,,,,,,,,,,,,,,,,,,,,
0,4,4,58,1,,60e46765548980c44f6a1edc,62bbfb71aebb35cef2c288f1,2022-06-29_09h19.47.147,Colour_Asymmetry_Pilot,2022.1.3,Win32,59.58410296,62bbe60bf3d75ef465d3e404,,,,,,,,,,,,,,,,,,,,,,,,,,,,,,,,,,,,,,,,,,,,,,,,,,,,,,,,,,,,,,,,,,,,,,,,,,,,,,,,,,,,,,,,,,,,,,,,,,,,,,,,,,,,,,,,,,,,,,,,,,,,,,,,,,,,,,,,,,,,,,,,,,,,,,,,,,,,,,
0,5,5,81,1,,60e46765548980c44f6a1edc,62bbfb71aebb35cef2c288f1,2022-06-29_09h19.47.147,Colour_Asymmetry_Pilot,2022.1.3,Win32,59.58410296,62bbe60bf3d75ef465d3e404,,,,,,,,,,,,,,,,,,,,,,,,,,,,,,,,,,,,,,,,,,,,,,,,,,,,,,,,,,,,,,,,,,,,,,,,,,,,,,,,,,,,,,,,,,,,,,,,,,,,,,,,,,,,,,,,,,,,,,,,,,,,,,,,,,,,,,,,,,,,,,,,,,,,,,,,,,,,,,
0,6,6,65,1,,60e46765548980c44f6a1edc,62bbfb71aebb35cef2c288f1,2022-06-29_09h19.47.147,Colour_Asymmetry_Pilot,2022.1.3,Win32,59.58410296,62bbe60bf3d75ef465d3e404,,,,,,,,,,,,,,,,,,,,,,,,,,,,,,,,,,,,,,,,,,,,,,,,,,,,,,,,,,,,,,,,,,,,,,,,,,,,,,,,,,,,,,,,,,,,,,,,,,,,,,,,,,,,,,,,,,,,,,,,,,,,,,,,,,,,,,,,,,,,,,,,,,,,,,,,,,,,,,
0,7,7,19,1,,60e46765548980c44f6a1edc,62bbfb71aebb35cef2c288f1,2022-06-29_09h19.47.147,Colour_Asymmetry_Pilot,2022.1.3,Win32,59.58410296,62bbe60bf3d75ef465d3e404,,,,,,,,,,,,,,,,,,,,,,,,,,,,,,,,,,,,,,,,,,,,,,,,,,,,,,,,,,,,,,,,,,,,,,,,,,,,,,,,,,,,,,,,,,,,,,,,,,,,,,,,,,,,,,,,,,,,,,,,,,,,,,,,,,,,,,,,,,,,,,,,,,,,,,,,,,,,,,
0,8,8,38,1,,60e46765548980c44f6a1edc,62bbfb71aebb35cef2c288f1,2022-06-29_09h19.47.147,Colour_Asymmetry_Pilot,2022.1.3,Win32,59.58410296,62bbe60bf3d75ef465d3e404,,,,,,,,,,,,,,,,,,,,,,,,,,,,,,,,,,,,,,,,,,,,,,,,,,,,,,,,,,,,,,,,,,,,,,,,,,,,,,,,,,,,,,,,,,,,,,,,,,,,,,,,,,,,,,,,,,,,,,,,,,,,,,,,,,,,,,,,,,,,,,,,,,,,,,,,,,,,,,
0,9,9,84,1,,60e46765548980c44f6a1edc,62bbfb71aebb35cef2c288f1,2022-06-29_09h19.47.147,Colour_Asymmetry_Pilot,2022.1.3,Win32,59.58410296,62bbe60bf3d75ef465d3e404,,,,,,,,,,,,,,,,,,,,,,,,,,,,,,,,,,,,,,,,,,,,,,,,,,,,,,,,,,,,,,,,,,,,,,,,,,,,,,,,,,,,,,,,,,,,,,,,,,,,,,,,,,,,,,,,,,,,,,,,,,,,,,,,,,,,,,,,,,,,,,,,,,,,,,,,,,,,,,
0,10,10,48,1,,60e46765548980c44f6a1edc,62bbfb71aebb35cef2c288f1,2022-06-29_09h19.47.147,Colour_Asymmetry_Pilot,2022.1.3,Win32,59.58410296,62bbe60bf3d75ef465d3e404,,,,,,,,,,,,,,,,,,,,,,,,,,,,,,,,,,,,,,,,,,,,,,,,,,,,,,,,,,,,,,,,,,,,,,,,,,,,,,,,,,,,,,,,,,,,,,,,,,,,,,,,,,,,,,,,,,,,,,,,,,,,,,,,,,,,,,,,,,,,,,,,,,,,,,,,,,,,,,
0,11,11,76,1,,60e46765548980c44f6a1edc,62bbfb71aebb35cef2c288f1,2022-06-29_09h19.47.147,Colour_Asymmetry_Pilot,2022.1.3,Win32,59.58410296,62bbe60bf3d75ef465d3e404,,,,,,,,,,,,,,,,,,,,,,,,,,,,,,,,,,,,,,,,,,,,,,,,,,,,,,,,,,,,,,,,,,,,,,,,,,,,,,,,,,,,,,,,,,,,,,,,,,,,,,,,,,,,,,,,,,,,,,,,,,,,,,,,,,,,,,,,,,,,,,,,,,,,,,,,,,,,,,
0,12,12,4,1,,60e46765548980c44f6a1edc,62bbfb71aebb35cef2c288f1,2022-06-29_09h19.47.147,Colour_Asymmetry_Pilot,2022.1.3,Win32,59.58410296,62bbe60bf3d75ef465d3e404,,,,,,,,,,,,,,,,,,,,,,,,,,,,,,,,,,,,,,,,,,,,,,,,,,,,,,,,,,,,,,,,,,,,,,,,,,,,,,,,,,,,,,,,,,,,,,,,,,,,,,,,,,,,,,,,,,,,,,,,,,,,,,,,,,,,,,,,,,,,,,,,,,,,,,,,,,,,,,
0,13,13,29,1,,60e46765548980c44f6a1edc,62bbfb71aebb35cef2c288f1,2022-06-29_09h19.47.147,Colour_Asymmetry_Pilot,2022.1.3,Win32,59.58410296,62bbe60bf3d75ef465d3e404,,,,,,,,,,,,,,,,,,,,,,,,,,,,,,,,,,,,,,,,,,,,,,,,,,,,,,,,,,,,,,,,,,,,,,,,,,,,,,,,,,,,,,,,,,,,,,,,,,,,,,,,,,,,,,,,,,,,,,,,,,,,,,,,,,,,,,,,,,,,,,,,,,,,,,,,,,,,,,
0,14,14,21,1,,60e46765548980c44f6a1edc,62bbfb71aebb35cef2c288f1,2022-06-29_09h19.47.147,Colour_Asymmetry_Pilot,2022.1.3,Win32,59.58410296,62bbe60bf3d75ef465d3e404,,,,,,,,,,,,,,,,,,,,,,,,,,,,,,,,,,,,,,,,,,,,,,,,,,,,,,,,,,,,,,,,,,,,,,,,,,,,,,,,,,,,,,,,,,,,,,,,,,,,,,,,,,,,,,,,,,,,,,,,,,,,,,,,,,,,,,,,,,,,,,,,,,,,,,,,,,,,,,
0,15,15,25,1,,60e46765548980c44f6a1edc,62bbfb71aebb35cef2c288f1,2022-06-29_09h19.47.147,Colour_Asymmetry_Pilot,2022.1.3,Win32,59.58410296,62bbe60bf3d75ef465d3e404,,,,,,,,,,,,,,,,,,,,,,,,,,,,,,,,,,,,,,,,,,,,,,,,,,,,,,,,,,,,,,,,,,,,,,,,,,,,,,,,,,,,,,,,,,,,,,,,,,,,,,,,,,,,,,,,,,,,,,,,,,,,,,,,,,,,,,,,,,,,,,,,,,,,,,,,,,,,,,
0,16,16,72,1,,60e46765548980c44f6a1edc,62bbfb71aebb35cef2c288f1,2022-06-29_09h19.47.147,Colour_Asymmetry_Pilot,2022.1.3,Win32,59.58410296,62bbe60bf3d75ef465d3e404,,,,,,,,,,,,,,,,,,,,,,,,,,,,,,,,,,,,,,,,,,,,,,,,,,,,,,,,,,,,,,,,,,,,,,,,,,,,,,,,,,,,,,,,,,,,,,,,,,,,,,,,,,,,,,,,,,,,,,,,,,,,,,,,,,,,,,,,,,,,,,,,,,,,,,,,,,,,,,
0,17,17,68,1,,60e46765548980c44f6a1edc,62bbfb71aebb35cef2c288f1,2022-06-29_09h19.47.147,Colour_Asymmetry_Pilot,2022.1.3,Win32,59.58410296,62bbe60bf3d75ef465d3e404,,,,,,,,,,,,,,,,,,,,,,,,,,,,,,,,,,,,,,,,,,,,,,,,,,,,,,,,,,,,,,,,,,,,,,,,,,,,,,,,,,,,,,,,,,,,,,,,,,,,,,,,,,,,,,,,,,,,,,,,,,,,,,,,,,,,,,,,,,,,,,,,,,,,,,,,,,,,,,
0,18,18,27,1,,60e46765548980c44f6a1edc,62bbfb71aebb35cef2c288f1,2022-06-29_09h19.47.147,Colour_Asymmetry_Pilot,2022.1.3,Win32,59.58410296,62bbe60bf3d75ef465d3e404,,,,,,,,,,,,,,,,,,,,,,,,,,,,,,,,,,,,,,,,,,,,,,,,,,,,,,,,,,,,,,,,,,,,,,,,,,,,,,,,,,,,,,,,,,,,,,,,,,,,,,,,,,,,,,,,,,,,,,,,,,,,,,,,,,,,,,,,,,,,,,,,,,,,,,,,,,,,,,
0,19,19,67,1,,60e46765548980c44f6a1edc,62bbfb71aebb35cef2c288f1,2022-06-29_09h19.47.147,Colour_Asymmetry_Pilot,2022.1.3,Win32,59.58410296,62bbe60bf3d75ef465d3e404,,,,,,,,,,,,,,,,,,,,,,,,,,,,,,,,,,,,,,,,,,,,,,,,,,,,,,,,,,,,,,,,,,,,,,,,,,,,,,,,,,,,,,,,,,,,,,,,,,,,,,,,,,,,,,,,,,,,,,,,,,,,,,,,,,,,,,,,,,,,,,,,,,,,,,,,,,,,,,
0,20,20,66,1,,60e46765548980c44f6a1edc,62bbfb71aebb35cef2c288f1,2022-06-29_09h19.47.147,Colour_Asymmetry_Pilot,2022.1.3,Win32,59.58410296,62bbe60bf3d75ef465d3e404,,,,,,,,,,,,,,,,,,,,,,,,,,,,,,,,,,,,,,,,,,,,,,,,,,,,,,,,,,,,,,,,,,,,,,,,,,,,,,,,,,,,,,,,,,,,,,,,,,,,,,,,,,,,,,,,,,,,,,,,,,,,,,,,,,,,,,,,,,,,,,,,,,,,,,,,,,,,,,
0,21,21,77,1,,60e46765548980c44f6a1edc,62bbfb71aebb35cef2c288f1,2022-06-29_09h19.47.147,Colour_Asymmetry_Pilot,2022.1.3,Win32,59.58410296,62bbe60bf3d75ef465d3e404,,,,,,,,,,,,,,,,,,,,,,,,,,,,,,,,,,,,,,,,,,,,,,,,,,,,,,,,,,,,,,,,,,,,,,,,,,,,,,,,,,,,,,,,,,,,,,,,,,,,,,,,,,,,,,,,,,,,,,,,,,,,,,,,,,,,,,,,,,,,,,,,,,,,,,,,,,,,,,
0,22,22,71,1,,60e46765548980c44f6a1edc,62bbfb71aebb35cef2c288f1,2022-06-29_09h19.47.147,Colour_Asymmetry_Pilot,2022.1.3,Win32,59.58410296,62bbe60bf3d75ef465d3e404,,,,,,,,,,,,,,,,,,,,,,,,,,,,,,,,,,,,,,,,,,,,,,,,,,,,,,,,,,,,,,,,,,,,,,,,,,,,,,,,,,,,,,,,,,,,,,,,,,,,,,,,,,,,,,,,,,,,,,,,,,,,,,,,,,,,,,,,,,,,,,,,,,,,,,,,,,,,,,
0,23,23,11,1,,60e46765548980c44f6a1edc,62bbfb71aebb35cef2c288f1,2022-06-29_09h19.47.147,Colour_Asymmetry_Pilot,2022.1.3,Win32,59.58410296,62bbe60bf3d75ef465d3e404,,,,,,,,,,,,,,,,,,,,,,,,,,,,,,,,,,,,,,,,,,,,,,,,,,,,,,,,,,,,,,,,,,,,,,,,,,,,,,,,,,,,,,,,,,,,,,,,,,,,,,,,,,,,,,,,,,,,,,,,,,,,,,,,,,,,,,,,,,,,,,,,,,,,,,,,,,,,,,
0,24,24,1,1,,60e46765548980c44f6a1edc,62bbfb71aebb35cef2c288f1,2022-06-29_09h19.47.147,Colour_Asymmetry_Pilot,2022.1.3,Win32,59.58410296,62bbe60bf3d75ef465d3e404,,,,,,,,,,,,,,,,,,,,,,,,,,,,,,,,,,,,,,,,,,,,,,,,,,,,,,,,,,,,,,,,,,,,,,,,,,,,,,,,,,,,,,,,,,,,,,,,,,,,,,,,,,,,,,,,,,,,,,,,,,,,,,,,,,,,,,,,,,,,,,,,,,,,,,,,,,,,,,
0,25,25,17,1,,60e46765548980c44f6a1edc,62bbfb71aebb35cef2c288f1,2022-06-29_09h19.47.147,Colour_Asymmetry_Pilot,2022.1.3,Win32,59.58410296,62bbe60bf3d75ef465d3e404,,,,,,,,,,,,,,,,,,,,,,,,,,,,,,,,,,,,,,,,,,,,,,,,,,,,,,,,,,,,,,,,,,,,,,,,,,,,,,,,,,,,,,,,,,,,,,,,,,,,,,,,,,,,,,,,,,,,,,,,,,,,,,,,,,,,,,,,,,,,,,,,,,,,,,,,,,,,,,
0,26,26,89,1,,60e46765548980c44f6a1edc,62bbfb71aebb35cef2c288f1,2022-06-29_09h19.47.147,Colour_Asymmetry_Pilot,2022.1.3,Win32,59.58410296,62bbe60bf3d75ef465d3e404,,,,,,,,,,,,,,,,,,,,,,,,,,,,,,,,,,,,,,,,,,,,,,,,,,,,,,,,,,,,,,,,,,,,,,,,,,,,,,,,,,,,,,,,,,,,,,,,,,,,,,,,,,,,,,,,,,,,,,,,,,,,,,,,,,,,,,,,,,,,,,,,,,,,,,,,,,,,,,
0,27,27,49,1,,60e46765548980c44f6a1edc,62bbfb71aebb35cef2c288f1,2022-06-29_09h19.47.147,Colour_Asymmetry_Pilot,2022.1.3,Win32,59.58410296,62bbe60bf3d75ef465d3e404,,,,,,,,,,,,,,,,,,,,,,,,,,,,,,,,,,,,,,,,,,,,,,,,,,,,,,,,,,,,,,,,,,,,,,,,,,,,,,,,,,,,,,,,,,,,,,,,,,,,,,,,,,,,,,,,,,,,,,,,,,,,,,,,,,,,,,,,,,,,,,,,,,,,,,,,,,,,,,
0,28,28,39,1,,60e46765548980c44f6a1edc,62bbfb71aebb35cef2c288f1,2022-06-29_09h19.47.147,Colour_Asymmetry_Pilot,2022.1.3,Win32,59.58410296,62bbe60bf3d75ef465d3e404,,,,,,,,,,,,,,,,,,,,,,,,,,,,,,,,,,,,,,,,,,,,,,,,,,,,,,,,,,,,,,,,,,,,,,,,,,,,,,,,,,,,,,,,,,,,,,,,,,,,,,,,,,,,,,,,,,,,,,,,,,,,,,,,,,,,,,,,,,,,,,,,,,,,,,,,,,,,,,
0,29,29,22,1,,60e46765548980c44f6a1edc,62bbfb71aebb35cef2c288f1,2022-06-29_09h19.47.147,Colour_Asymmetry_Pilot,2022.1.3,Win32,59.58410296,62bbe60bf3d75ef465d3e404,,,,,,,,,,,,,,,,,,,,,,,,,,,,,,,,,,,,,,,,,,,,,,,,,,,,,,,,,,,,,,,,,,,,,,,,,,,,,,,,,,,,,,,,,,,,,,,,,,,,,,,,,,,,,,,,,,,,,,,,,,,,,,,,,,,,,,,,,,,,,,,,,,,,,,,,,,,,,,
0,30,30,8,1,,60e46765548980c44f6a1edc,62bbfb71aebb35cef2c288f1,2022-06-29_09h19.47.147,Colour_Asymmetry_Pilot,2022.1.3,Win32,59.58410296,62bbe60bf3d75ef465d3e404,,,,,,,,,,,,,,,,,,,,,,,,,,,,,,,,,,,,,,,,,,,,,,,,,,,,,,,,,,,,,,,,,,,,,,,,,,,,,,,,,,,,,,,,,,,,,,,,,,,,,,,,,,,,,,,,,,,,,,,,,,,,,,,,,,,,,,,,,,,,,,,,,,,,,,,,,,,,,,
0,31,31,90,1,,60e46765548980c44f6a1edc,62bbfb71aebb35cef2c288f1,2022-06-29_09h19.47.147,Colour_Asymmetry_Pilot,2022.1.3,Win32,59.58410296,62bbe60bf3d75ef465d3e404,,,,,,,,,,,,,,,,,,,,,,,,,,,,,,,,,,,,,,,,,,,,,,,,,,,,,,,,,,,,,,,,,,,,,,,,,,,,,,,,,,,,,,,,,,,,,,,,,,,,,,,,,,,,,,,,,,,,,,,,,,,,,,,,,,,,,,,,,,,,,,,,,,,,,,,,,,,,,,
0,32,32,0,1,,60e46765548980c44f6a1edc,62bbfb71aebb35cef2c288f1,2022-06-29_09h19.47.147,Colour_Asymmetry_Pilot,2022.1.3,Win32,59.58410296,62bbe60bf3d75ef465d3e404,,,,,,,,,,,,,,,,,,,,,,,,,,,,,,,,,,,,,,,,,,,,,,,,,,,,,,,,,,,,,,,,,,,,,,,,,,,,,,,,,,,,,,,,,,,,,,,,,,,,,,,,,,,,,,,,,,,,,,,,,,,,,,,,,,,,,,,,,,,,,,,,,,,,,,,,,,,,,,
0,33,33,47,1,,60e46765548980c44f6a1edc,62bbfb71aebb35cef2c288f1,2022-06-29_09h19.47.147,Colour_Asymmetry_Pilot,2022.1.3,Win32,59.58410296,62bbe60bf3d75ef465d3e404,,,,,,,,,,,,,,,,,,,,,,,,,,,,,,,,,,,,,,,,,,,,,,,,,,,,,,,,,,,,,,,,,,,,,,,,,,,,,,,,,,,,,,,,,,,,,,,,,,,,,,,,,,,,,,,,,,,,,,,,,,,,,,,,,,,,,,,,,,,,,,,,,,,,,,,,,,,,,,
0,34,34,43,1,,60e46765548980c44f6a1edc,62bbfb71aebb35cef2c288f1,2022-06-29_09h19.47.147,Colour_Asymmetry_Pilot,2022.1.3,Win32,59.58410296,62bbe60bf3d75ef465d3e404,,,,,,,,,,,,,,,,,,,,,,,,,,,,,,,,,,,,,,,,,,,,,,,,,,,,,,,,,,,,,,,,,,,,,,,,,,,,,,,,,,,,,,,,,,,,,,,,,,,,,,,,,,,,,,,,,,,,,,,,,,,,,,,,,,,,,,,,,,,,,,,,,,,,,,,,,,,,,,
0,35,35,79,1,,60e46765548980c44f6a1edc,62bbfb71aebb35cef2c288f1,2022-06-29_09h19.47.147,Colour_Asymmetry_Pilot,2022.1.3,Win32,59.58410296,62bbe60bf3d75ef465d3e404,,,,,,,,,,,,,,,,,,,,,,,,,,,,,,,,,,,,,,,,,,,,,,,,,,,,,,,,,,,,,,,,,,,,,,,,,,,,,,,,,,,,,,,,,,,,,,,,,,,,,,,,,,,,,,,,,,,,,,,,,,,,,,,,,,,,,,,,,,,,,,,,,,,,,,,,,,,,,,
0,36,36,13,1,,60e46765548980c44f6a1edc,62bbfb71aebb35cef2c288f1,2022-06-29_09h19.47.147,Colour_Asymmetry_Pilot,2022.1.3,Win32,59.58410296,62bbe60bf3d75ef465d3e404,,,,,,,,,,,,,,,,,,,,,,,,,,,,,,,,,,,,,,,,,,,,,,,,,,,,,,,,,,,,,,,,,,,,,,,,,,,,,,,,,,,,,,,,,,,,,,,,,,,,,,,,,,,,,,,,,,,,,,,,,,,,,,,,,,,,,,,,,,,,,,,,,,,,,,,,,,,,,,
0,37,37,28,1,,60e46765548980c44f6a1edc,62bbfb71aebb35cef2c288f1,2022-06-29_09h19.47.147,Colour_Asymmetry_Pilot,2022.1.3,Win32,59.58410296,62bbe60bf3d75ef465d3e404,,,,,,,,,,,,,,,,,,,,,,,,,,,,,,,,,,,,,,,,,,,,,,,,,,,,,,,,,,,,,,,,,,,,,,,,,,,,,,,,,,,,,,,,,,,,,,,,,,,,,,,,,,,,,,,,,,,,,,,,,,,,,,,,,,,,,,,,,,,,,,,,,,,,,,,,,,,,,,
0,38,38,86,1,,60e46765548980c44f6a1edc,62bbfb71aebb35cef2c288f1,2022-06-29_09h19.47.147,Colour_Asymmetry_Pilot,2022.1.3,Win32,59.58410296,62bbe60bf3d75ef465d3e404,,,,,,,,,,,,,,,,,,,,,,,,,,,,,,,,,,,,,,,,,,,,,,,,,,,,,,,,,,,,,,,,,,,,,,,,,,,,,,,,,,,,,,,,,,,,,,,,,,,,,,,,,,,,,,,,,,,,,,,,,,,,,,,,,,,,,,,,,,,,,,,,,,,,,,,,,,,,,,
0,39,39,80,1,,60e46765548980c44f6a1edc,62bbfb71aebb35cef2c288f1,2022-06-29_09h19.47.147,Colour_Asymmetry_Pilot,2022.1.3,Win32,59.58410296,62bbe60bf3d75ef465d3e404,,,,,,,,,,,,,,,,,,,,,,,,,,,,,,,,,,,,,,,,,,,,,,,,,,,,,,,,,,,,,,,,,,,,,,,,,,,,,,,,,,,,,,,,,,,,,,,,,,,,,,,,,,,,,,,,,,,,,,,,,,,,,,,,,,,,,,,,,,,,,,,,,,,,,,,,,,,,,,
0,40,40,41,1,,60e46765548980c44f6a1edc,62bbfb71aebb35cef2c288f1,2022-06-29_09h19.47.147,Colour_Asymmetry_Pilot,2022.1.3,Win32,59.58410296,62bbe60bf3d75ef465d3e404,,,,,,,,,,,,,,,,,,,,,,,,,,,,,,,,,,,,,,,,,,,,,,,,,,,,,,,,,,,,,,,,,,,,,,,,,,,,,,,,,,,,,,,,,,,,,,,,,,,,,,,,,,,,,,,,,,,,,,,,,,,,,,,,,,,,,,,,,,,,,,,,,,,,,,,,,,,,,,
0,41,41,73,1,,60e46765548980c44f6a1edc,62bbfb71aebb35cef2c288f1,2022-06-29_09h19.47.147,Colour_Asymmetry_Pilot,2022.1.3,Win32,59.58410296,62bbe60bf3d75ef465d3e404,,,,,,,,,,,,,,,,,,,,,,,,,,,,,,,,,,,,,,,,,,,,,,,,,,,,,,,,,,,,,,,,,,,,,,,,,,,,,,,,,,,,,,,,,,,,,,,,,,,,,,,,,,,,,,,,,,,,,,,,,,,,,,,,,,,,,,,,,,,,,,,,,,,,,,,,,,,,,,
0,42,42,69,1,,60e46765548980c44f6a1edc,62bbfb71aebb35cef2c288f1,2022-06-29_09h19.47.147,Colour_Asymmetry_Pilot,2022.1.3,Win32,59.58410296,62bbe60bf3d75ef465d3e404,,,,,,,,,,,,,,,,,,,,,,,,,,,,,,,,,,,,,,,,,,,,,,,,,,,,,,,,,,,,,,,,,,,,,,,,,,,,,,,,,,,,,,,,,,,,,,,,,,,,,,,,,,,,,,,,,,,,,,,,,,,,,,,,,,,,,,,,,,,,,,,,,,,,,,,,,,,,,,
0,43,43,14,1,,60e46765548980c44f6a1edc,62bbfb71aebb35cef2c288f1,2022-06-29_09h19.47.147,Colour_Asymmetry_Pilot,2022.1.3,Win32,59.58410296,62bbe60bf3d75ef465d3e404,,,,,,,,,,,,,,,,,,,,,,,,,,,,,,,,,,,,,,,,,,,,,,,,,,,,,,,,,,,,,,,,,,,,,,,,,,,,,,,,,,,,,,,,,,,,,,,,,,,,,,,,,,,,,,,,,,,,,,,,,,,,,,,,,,,,,,,,,,,,,,,,,,,,,,,,,,,,,,
0,44,44,63,1,,60e46765548980c44f6a1edc,62bbfb71aebb35cef2c288f1,2022-06-29_09h19.47.147,Colour_Asymmetry_Pilot,2022.1.3,Win32,59.58410296,62bbe60bf3d75ef465d3e404,,,,,,,,,,,,,,,,,,,,,,,,,,,,,,,,,,,,,,,,,,,,,,,,,,,,,,,,,,,,,,,,,,,,,,,,,,,,,,,,,,,,,,,,,,,,,,,,,,,,,,,,,,,,,,,,,,,,,,,,,,,,,,,,,,,,,,,,,,,,,,,,,,,,,,,,,,,,,,
0,45,45,3,1,,60e46765548980c44f6a1edc,62bbfb71aebb35cef2c288f1,2022-06-29_09h19.47.147,Colour_Asymmetry_Pilot,2022.1.3,Win32,59.58410296,62bbe60bf3d75ef465d3e404,,,,,,,,,,,,,,,,,,,,,,,,,,,,,,,,,,,,,,,,,,,,,,,,,,,,,,,,,,,,,,,,,,,,,,,,,,,,,,,,,,,,,,,,,,,,,,,,,,,,,,,,,,,,,,,,,,,,,,,,,,,,,,,,,,,,,,,,,,,,,,,,,,,,,,,,,,,,,,
0,46,46,60,1,,60e46765548980c44f6a1edc,62bbfb71aebb35cef2c288f1,2022-06-29_09h19.47.147,Colour_Asymmetry_Pilot,2022.1.3,Win32,59.58410296,62bbe60bf3d75ef465d3e404,,,,,,,,,,,,,,,,,,,,,,,,,,,,,,,,,,,,,,,,,,,,,,,,,,,,,,,,,,,,,,,,,,,,,,,,,,,,,,,,,,,,,,,,,,,,,,,,,,,,,,,,,,,,,,,,,,,,,,,,,,,,,,,,,,,,,,,,,,,,,,,,,,,,,,,,,,,,,,
0,47,47,74,1,,60e46765548980c44f6a1edc,62bbfb71aebb35cef2c288f1,2022-06-29_09h19.47.147,Colour_Asymmetry_Pilot,2022.1.3,Win32,59.58410296,62bbe60bf3d75ef465d3e404,,,,,,,,,,,,,,,,,,,,,,,,,,,,,,,,,,,,,,,,,,,,,,,,,,,,,,,,,,,,,,,,,,,,,,,,,,,,,,,,,,,,,,,,,,,,,,,,,,,,,,,,,,,,,,,,,,,,,,,,,,,,,,,,,,,,,,,,,,,,,,,,,,,,,,,,,,,,,,
0,48,48,32,1,,60e46765548980c44f6a1edc,62bbfb71aebb35cef2c288f1,2022-06-29_09h19.47.147,Colour_Asymmetry_Pilot,2022.1.3,Win32,59.58410296,62bbe60bf3d75ef465d3e404,,,,,,,,,,,,,,,,,,,,,,,,,,,,,,,,,,,,,,,,,,,,,,,,,,,,,,,,,,,,,,,,,,,,,,,,,,,,,,,,,,,,,,,,,,,,,,,,,,,,,,,,,,,,,,,,,,,,,,,,,,,,,,,,,,,,,,,,,,,,,,,,,,,,,,,,,,,,,,
0,49,49,18,1,,60e46765548980c44f6a1edc,62bbfb71aebb35cef2c288f1,2022-06-29_09h19.47.147,Colour_Asymmetry_Pilot,2022.1.3,Win32,59.58410296,62bbe60bf3d75ef465d3e404,,,,,,,,,,,,,,,,,,,,,,,,,,,,,,,,,,,,,,,,,,,,,,,,,,,,,,,,,,,,,,,,,,,,,,,,,,,,,,,,,,,,,,,,,,,,,,,,,,,,,,,,,,,,,,,,,,,,,,,,,,,,,,,,,,,,,,,,,,,,,,,,,,,,,,,,,,,,,,
0,50,50,50,1,,60e46765548980c44f6a1edc,62bbfb71aebb35cef2c288f1,2022-06-29_09h19.47.147,Colour_Asymmetry_Pilot,2022.1.3,Win32,59.58410296,62bbe60bf3d75ef465d3e404,,,,,,,,,,,,,,,,,,,,,,,,,,,,,,,,,,,,,,,,,,,,,,,,,,,,,,,,,,,,,,,,,,,,,,,,,,,,,,,,,,,,,,,,,,,,,,,,,,,,,,,,,,,,,,,,,,,,,,,,,,,,,,,,,,,,,,,,,,,,,,,,,,,,,,,,,,,,,,
0,51,51,36,1,,60e46765548980c44f6a1edc,62bbfb71aebb35cef2c288f1,2022-06-29_09h19.47.147,Colour_Asymmetry_Pilot,2022.1.3,Win32,59.58410296,62bbe60bf3d75ef465d3e404,,,,,,,,,,,,,,,,,,,,,,,,,,,,,,,,,,,,,,,,,,,,,,,,,,,,,,,,,,,,,,,,,,,,,,,,,,,,,,,,,,,,,,,,,,,,,,,,,,,,,,,,,,,,,,,,,,,,,,,,,,,,,,,,,,,,,,,,,,,,,,,,,,,,,,,,,,,,,,
0,52,52,54,1,,60e46765548980c44f6a1edc,62bbfb71aebb35cef2c288f1,2022-06-29_09h19.47.147,Colour_Asymmetry_Pilot,2022.1.3,Win32,59.58410296,62bbe60bf3d75ef465d3e404,,,,,,,,,,,,,,,,,,,,,,,,,,,,,,,,,,,,,,,,,,,,,,,,,,,,,,,,,,,,,,,,,,,,,,,,,,,,,,,,,,,,,,,,,,,,,,,,,,,,,,,,,,,,,,,,,,,,,,,,,,,,,,,,,,,,,,,,,,,,,,,,,,,,,,,,,,,,,,
0,53,53,24,1,,60e46765548980c44f6a1edc,62bbfb71aebb35cef2c288f1,2022-06-29_09h19.47.147,Colour_Asymmetry_Pilot,2022.1.3,Win32,59.58410296,62bbe60bf3d75ef465d3e404,,,,,,,,,,,,,,,,,,,,,,,,,,,,,,,,,,,,,,,,,,,,,,,,,,,,,,,,,,,,,,,,,,,,,,,,,,,,,,,,,,,,,,,,,,,,,,,,,,,,,,,,,,,,,,,,,,,,,,,,,,,,,,,,,,,,,,,,,,,,,,,,,,,,,,,,,,,,,,
0,54,54,85,1,,60e46765548980c44f6a1edc,62bbfb71aebb35cef2c288f1,2022-06-29_09h19.47.147,Colour_Asymmetry_Pilot,2022.1.3,Win32,59.58410296,62bbe60bf3d75ef465d3e404,,,,,,,,,,,,,,,,,,,,,,,,,,,,,,,,,,,,,,,,,,,,,,,,,,,,,,,,,,,,,,,,,,,,,,,,,,,,,,,,,,,,,,,,,,,,,,,,,,,,,,,,,,,,,,,,,,,,,,,,,,,,,,,,,,,,,,,,,,,,,,,,,,,,,,,,,,,,,,
0,55,55,34,1,,60e46765548980c44f6a1edc,62bbfb71aebb35cef2c288f1,2022-06-29_09h19.47.147,Colour_Asymmetry_Pilot,2022.1.3,Win32,59.58410296,62bbe60bf3d75ef465d3e404,,,,,,,,,,,,,,,,,,,,,,,,,,,,,,,,,,,,,,,,,,,,,,,,,,,,,,,,,,,,,,,,,,,,,,,,,,,,,,,,,,,,,,,,,,,,,,,,,,,,,,,,,,,,,,,,,,,,,,,,,,,,,,,,,,,,,,,,,,,,,,,,,,,,,,,,,,,,,,
0,56,56,16,1,,60e46765548980c44f6a1edc,62bbfb71aebb35cef2c288f1,2022-06-29_09h19.47.147,Colour_Asymmetry_Pilot,2022.1.3,Win32,59.58410296,62bbe60bf3d75ef465d3e404,,,,,,,,,,,,,,,,,,,,,,,,,,,,,,,,,,,,,,,,,,,,,,,,,,,,,,,,,,,,,,,,,,,,,,,,,,,,,,,,,,,,,,,,,,,,,,,,,,,,,,,,,,,,,,,,,,,,,,,,,,,,,,,,,,,,,,,,,,,,,,,,,,,,,,,,,,,,,,
0,57,57,40,1,,60e46765548980c44f6a1edc,62bbfb71aebb35cef2c288f1,2022-06-29_09h19.47.147,Colour_Asymmetry_Pilot,2022.1.3,Win32,59.58410296,62bbe60bf3d75ef465d3e404,,,,,,,,,,,,,,,,,,,,,,,,,,,,,,,,,,,,,,,,,,,,,,,,,,,,,,,,,,,,,,,,,,,,,,,,,,,,,,,,,,,,,,,,,,,,,,,,,,,,,,,,,,,,,,,,,,,,,,,,,,,,,,,,,,,,,,,,,,,,,,,,,,,,,,,,,,,,,,
0,58,58,59,1,,60e46765548980c44f6a1edc,62bbfb71aebb35cef2c288f1,2022-06-29_09h19.47.147,Colour_Asymmetry_Pilot,2022.1.3,Win32,59.58410296,62bbe60bf3d75ef465d3e404,,,,,,,,,,,,,,,,,,,,,,,,,,,,,,,,,,,,,,,,,,,,,,,,,,,,,,,,,,,,,,,,,,,,,,,,,,,,,,,,,,,,,,,,,,,,,,,,,,,,,,,,,,,,,,,,,,,,,,,,,,,,,,,,,,,,,,,,,,,,,,,,,,,,,,,,,,,,,,
0,59,59,5,1,,60e46765548980c44f6a1edc,62bbfb71aebb35cef2c288f1,2022-06-29_09h19.47.147,Colour_Asymmetry_Pilot,2022.1.3,Win32,59.58410296,62bbe60bf3d75ef465d3e404,,,,,,,,,,,,,,,,,,,,,,,,,,,,,,,,,,,,,,,,,,,,,,,,,,,,,,,,,,,,,,,,,,,,,,,,,,,,,,,,,,,,,,,,,,,,,,,,,,,,,,,,,,,,,,,,,,,,,,,,,,,,,,,,,,,,,,,,,,,,,,,,,,,,,,,,,,,,,,
0,60,60,2,1,,60e46765548980c44f6a1edc,62bbfb71aebb35cef2c288f1,2022-06-29_09h19.47.147,Colour_Asymmetry_Pilot,2022.1.3,Win32,59.58410296,62bbe60bf3d75ef465d3e404,,,,,,,,,,,,,,,,,,,,,,,,,,,,,,,,,,,,,,,,,,,,,,,,,,,,,,,,,,,,,,,,,,,,,,,,,,,,,,,,,,,,,,,,,,,,,,,,,,,,,,,,,,,,,,,,,,,,,,,,,,,,,,,,,,,,,,,,,,,,,,,,,,,,,,,,,,,,,,
0,61,61,83,1,,60e46765548980c44f6a1edc,62bbfb71aebb35cef2c288f1,2022-06-29_09h19.47.147,Colour_Asymmetry_Pilot,2022.1.3,Win32,59.58410296,62bbe60bf3d75ef465d3e404,,,,,,,,,,,,,,,,,,,,,,,,,,,,,,,,,,,,,,,,,,,,,,,,,,,,,,,,,,,,,,,,,,,,,,,,,,,,,,,,,,,,,,,,,,,,,,,,,,,,,,,,,,,,,,,,,,,,,,,,,,,,,,,,,,,,,,,,,,,,,,,,,,,,,,,,,,,,,,
0,62,62,45,1,,60e46765548980c44f6a1edc,62bbfb71aebb35cef2c288f1,2022-06-29_09h19.47.147,Colour_Asymmetry_Pilot,2022.1.3,Win32,59.58410296,62bbe60bf3d75ef465d3e404,,,,,,,,,,,,,,,,,,,,,,,,,,,,,,,,,,,,,,,,,,,,,,,,,,,,,,,,,,,,,,,,,,,,,,,,,,,,,,,,,,,,,,,,,,,,,,,,,,,,,,,,,,,,,,,,,,,,,,,,,,,,,,,,,,,,,,,,,,,,,,,,,,,,,,,,,,,,,,
0,63,63,87,1,,60e46765548980c44f6a1edc,62bbfb71aebb35cef2c288f1,2022-06-29_09h19.47.147,Colour_Asymmetry_Pilot,2022.1.3,Win32,59.58410296,62bbe60bf3d75ef465d3e404,,,,,,,,,,,,,,,,,,,,,,,,,,,,,,,,,,,,,,,,,,,,,,,,,,,,,,,,,,,,,,,,,,,,,,,,,,,,,,,,,,,,,,,,,,,,,,,,,,,,,,,,,,,,,,,,,,,,,,,,,,,,,,,,,,,,,,,,,,,,,,,,,,,,,,,,,,,,,,
0,64,64,46,1,,60e46765548980c44f6a1edc,62bbfb71aebb35cef2c288f1,2022-06-29_09h19.47.147,Colour_Asymmetry_Pilot,2022.1.3,Win32,59.58410296,62bbe60bf3d75ef465d3e404,,,,,,,,,,,,,,,,,,,,,,,,,,,,,,,,,,,,,,,,,,,,,,,,,,,,,,,,,,,,,,,,,,,,,,,,,,,,,,,,,,,,,,,,,,,,,,,,,,,,,,,,,,,,,,,,,,,,,,,,,,,,,,,,,,,,,,,,,,,,,,,,,,,,,,,,,,,,,,
0,65,65,20,1,,60e46765548980c44f6a1edc,62bbfb71aebb35cef2c288f1,2022-06-29_09h19.47.147,Colour_Asymmetry_Pilot,2022.1.3,Win32,59.58410296,62bbe60bf3d75ef465d3e404,,,,,,,,,,,,,,,,,,,,,,,,,,,,,,,,,,,,,,,,,,,,,,,,,,,,,,,,,,,,,,,,,,,,,,,,,,,,,,,,,,,,,,,,,,,,,,,,,,,,,,,,,,,,,,,,,,,,,,,,,,,,,,,,,,,,,,,,,,,,,,,,,,,,,,,,,,,,,,
0,66,66,30,1,,60e46765548980c44f6a1edc,62bbfb71aebb35cef2c288f1,2022-06-29_09h19.47.147,Colour_Asymmetry_Pilot,2022.1.3,Win32,59.58410296,62bbe60bf3d75ef465d3e404,,,,,,,,,,,,,,,,,,,,,,,,,,,,,,,,,,,,,,,,,,,,,,,,,,,,,,,,,,,,,,,,,,,,,,,,,,,,,,,,,,,,,,,,,,,,,,,,,,,,,,,,,,,,,,,,,,,,,,,,,,,,,,,,,,,,,,,,,,,,,,,,,,,,,,,,,,,,,,
0,67,67,35,1,,60e46765548980c44f6a1edc,62bbfb71aebb35cef2c288f1,2022-06-29_09h19.47.147,Colour_Asymmetry_Pilot,2022.1.3,Win32,59.58410296,62bbe60bf3d75ef465d3e404,,,,,,,,,,,,,,,,,,,,,,,,,,,,,,,,,,,,,,,,,,,,,,,,,,,,,,,,,,,,,,,,,,,,,,,,,,,,,,,,,,,,,,,,,,,,,,,,,,,,,,,,,,,,,,,,,,,,,,,,,,,,,,,,,,,,,,,,,,,,,,,,,,,,,,,,,,,,,,
0,68,68,88,1,,60e46765548980c44f6a1edc,62bbfb71aebb35cef2c288f1,2022-06-29_09h19.47.147,Colour_Asymmetry_Pilot,2022.1.3,Win32,59.58410296,62bbe60bf3d75ef465d3e404,,,,,,,,,,,,,,,,,,,,,,,,,,,,,,,,,,,,,,,,,,,,,,,,,,,,,,,,,,,,,,,,,,,,,,,,,,,,,,,,,,,,,,,,,,,,,,,,,,,,,,,,,,,,,,,,,,,,,,,,,,,,,,,,,,,,,,,,,,,,,,,,,,,,,,,,,,,,,,
0,69,69,55,1,,60e46765548980c44f6a1edc,62bbfb71aebb35cef2c288f1,2022-06-29_09h19.47.147,Colour_Asymmetry_Pilot,2022.1.3,Win32,59.58410296,62bbe60bf3d75ef465d3e404,,,,,,,,,,,,,,,,,,,,,,,,,,,,,,,,,,,,,,,,,,,,,,,,,,,,,,,,,,,,,,,,,,,,,,,,,,,,,,,,,,,,,,,,,,,,,,,,,,,,,,,,,,,,,,,,,,,,,,,,,,,,,,,,,,,,,,,,,,,,,,,,,,,,,,,,,,,,,,
0,70,70,7,1,,60e46765548980c44f6a1edc,62bbfb71aebb35cef2c288f1,2022-06-29_09h19.47.147,Colour_Asymmetry_Pilot,2022.1.3,Win32,59.58410296,62bbe60bf3d75ef465d3e404,,,,,,,,,,,,,,,,,,,,,,,,,,,,,,,,,,,,,,,,,,,,,,,,,,,,,,,,,,,,,,,,,,,,,,,,,,,,,,,,,,,,,,,,,,,,,,,,,,,,,,,,,,,,,,,,,,,,,,,,,,,,,,,,,,,,,,,,,,,,,,,,,,,,,,,,,,,,,,
0,71,71,92,1,,60e46765548980c44f6a1edc,62bbfb71aebb35cef2c288f1,2022-06-29_09h19.47.147,Colour_Asymmetry_Pilot,2022.1.3,Win32,59.58410296,62bbe60bf3d75ef465d3e404,,,,,,,,,,,,,,,,,,,,,,,,,,,,,,,,,,,,,,,,,,,,,,,,,,,,,,,,,,,,,,,,,,,,,,,,,,,,,,,,,,,,,,,,,,,,,,,,,,,,,,,,,,,,,,,,,,,,,,,,,,,,,,,,,,,,,,,,,,,,,,,,,,,,,,,,,,,,,,
0,72,72,56,1,,60e46765548980c44f6a1edc,62bbfb71aebb35cef2c288f1,2022-06-29_09h19.47.147,Colour_Asymmetry_Pilot,2022.1.3,Win32,59.58410296,62bbe60bf3d75ef465d3e404,,,,,,,,,,,,,,,,,,,,,,,,,,,,,,,,,,,,,,,,,,,,,,,,,,,,,,,,,,,,,,,,,,,,,,,,,,,,,,,,,,,,,,,,,,,,,,,,,,,,,,,,,,,,,,,,,,,,,,,,,,,,,,,,,,,,,,,,,,,,,,,,,,,,,,,,,,,,,,
0,73,73,23,1,,60e46765548980c44f6a1edc,62bbfb71aebb35cef2c288f1,2022-06-29_09h19.47.147,Colour_Asymmetry_Pilot,2022.1.3,Win32,59.58410296,62bbe60bf3d75ef465d3e404,,,,,,,,,,,,,,,,,,,,,,,,,,,,,,,,,,,,,,,,,,,,,,,,,,,,,,,,,,,,,,,,,,,,,,,,,,,,,,,,,,,,,,,,,,,,,,,,,,,,,,,,,,,,,,,,,,,,,,,,,,,,,,,,,,,,,,,,,,,,,,,,,,,,,,,,,,,,,,
0,74,74,9,1,,60e46765548980c44f6a1edc,62bbfb71aebb35cef2c288f1,2022-06-29_09h19.47.147,Colour_Asymmetry_Pilot,2022.1.3,Win32,59.58410296,62bbe60bf3d75ef465d3e404,,,,,,,,,,,,,,,,,,,,,,,,,,,,,,,,,,,,,,,,,,,,,,,,,,,,,,,,,,,,,,,,,,,,,,,,,,,,,,,,,,,,,,,,,,,,,,,,,,,,,,,,,,,,,,,,,,,,,,,,,,,,,,,,,,,,,,,,,,,,,,,,,,,,,,,,,,,,,,
0,75,75,37,1,,60e46765548980c44f6a1edc,62bbfb71aebb35cef2c288f1,2022-06-29_09h19.47.147,Colour_Asymmetry_Pilot,2022.1.3,Win32,59.58410296,62bbe60bf3d75ef465d3e404,,,,,,,,,,,,,,,,,,,,,,,,,,,,,,,,,,,,,,,,,,,,,,,,,,,,,,,,,,,,,,,,,,,,,,,,,,,,,,,,,,,,,,,,,,,,,,,,,,,,,,,,,,,,,,,,,,,,,,,,,,,,,,,,,,,,,,,,,,,,,,,,,,,,,,,,,,,,,,
0,76,76,44,1,,60e46765548980c44f6a1edc,62bbfb71aebb35cef2c288f1,2022-06-29_09h19.47.147,Colour_Asymmetry_Pilot,2022.1.3,Win32,59.58410296,62bbe60bf3d75ef465d3e404,,,,,,,,,,,,,,,,,,,,,,,,,,,,,,,,,,,,,,,,,,,,,,,,,,,,,,,,,,,,,,,,,,,,,,,,,,,,,,,,,,,,,,,,,,,,,,,,,,,,,,,,,,,,,,,,,,,,,,,,,,,,,,,,,,,,,,,,,,,,,,,,,,,,,,,,,,,,,,
0,77,77,78,1,,60e46765548980c44f6a1edc,62bbfb71aebb35cef2c288f1,2022-06-29_09h19.47.147,Colour_Asymmetry_Pilot,2022.1.3,Win32,59.58410296,62bbe60bf3d75ef465d3e404,,,,,,,,,,,,,,,,,,,,,,,,,,,,,,,,,,,,,,,,,,,,,,,,,,,,,,,,,,,,,,,,,,,,,,,,,,,,,,,,,,,,,,,,,,,,,,,,,,,,,,,,,,,,,,,,,,,,,,,,,,,,,,,,,,,,,,,,,,,,,,,,,,,,,,,,,,,,,,
0,78,78,75,1,,60e46765548980c44f6a1edc,62bbfb71aebb35cef2c288f1,2022-06-29_09h19.47.147,Colour_Asymmetry_Pilot,2022.1.3,Win32,59.58410296,62bbe60bf3d75ef465d3e404,,,,,,,,,,,,,,,,,,,,,,,,,,,,,,,,,,,,,,,,,,,,,,,,,,,,,,,,,,,,,,,,,,,,,,,,,,,,,,,,,,,,,,,,,,,,,,,,,,,,,,,,,,,,,,,,,,,,,,,,,,,,,,,,,,,,,,,,,,,,,,,,,,,,,,,,,,,,,,
0,79,79,31,1,,60e46765548980c44f6a1edc,62bbfb71aebb35cef2c288f1,2022-06-29_09h19.47.147,Colour_Asymmetry_Pilot,2022.1.3,Win32,59.58410296,62bbe60bf3d75ef465d3e404,,,,,,,,,,,,,,,,,,,,,,,,,,,,,,,,,,,,,,,,,,,,,,,,,,,,,,,,,,,,,,,,,,,,,,,,,,,,,,,,,,,,,,,,,,,,,,,,,,,,,,,,,,,,,,,,,,,,,,,,,,,,,,,,,,,,,,,,,,,,,,,,,,,,,,,,,,,,,,
0,80,80,42,1,,60e46765548980c44f6a1edc,62bbfb71aebb35cef2c288f1,2022-06-29_09h19.47.147,Colour_Asymmetry_Pilot,2022.1.3,Win32,59.58410296,62bbe60bf3d75ef465d3e404,,,,,,,,,,,,,,,,,,,,,,,,,,,,,,,,,,,,,,,,,,,,,,,,,,,,,,,,,,,,,,,,,,,,,,,,,,,,,,,,,,,,,,,,,,,,,,,,,,,,,,,,,,,,,,,,,,,,,,,,,,,,,,,,,,,,,,,,,,,,,,,,,,,,,,,,,,,,,,
0,81,81,12,1,,60e46765548980c44f6a1edc,62bbfb71aebb35cef2c288f1,2022-06-29_09h19.47.147,Colour_Asymmetry_Pilot,2022.1.3,Win32,59.58410296,62bbe60bf3d75ef465d3e404,,,,,,,,,,,,,,,,,,,,,,,,,,,,,,,,,,,,,,,,,,,,,,,,,,,,,,,,,,,,,,,,,,,,,,,,,,,,,,,,,,,,,,,,,,,,,,,,,,,,,,,,,,,,,,,,,,,,,,,,,,,,,,,,,,,,,,,,,,,,,,,,,,,,,,,,,,,,,,
0,82,82,53,1,,60e46765548980c44f6a1edc,62bbfb71aebb35cef2c288f1,2022-06-29_09h19.47.147,Colour_Asymmetry_Pilot,2022.1.3,Win32,59.58410296,62bbe60bf3d75ef465d3e404,,,,,,,,,,,,,,,,,,,,,,,,,,,,,,,,,,,,,,,,,,,,,,,,,,,,,,,,,,,,,,,,,,,,,,,,,,,,,,,,,,,,,,,,,,,,,,,,,,,,,,,,,,,,,,,,,,,,,,,,,,,,,,,,,,,,,,,,,,,,,,,,,,,,,,,,,,,,,,
0,83,83,51,1,,60e46765548980c44f6a1edc,62bbfb71aebb35cef2c288f1,2022-06-29_09h19.47.147,Colour_Asymmetry_Pilot,2022.1.3,Win32,59.58410296,62bbe60bf3d75ef465d3e404,,,,,,,,,,,,,,,,,,,,,,,,,,,,,,,,,,,,,,,,,,,,,,,,,,,,,,,,,,,,,,,,,,,,,,,,,,,,,,,,,,,,,,,,,,,,,,,,,,,,,,,,,,,,,,,,,,,,,,,,,,,,,,,,,,,,,,,,,,,,,,,,,,,,,,,,,,,,,,
0,84,84,6,1,,60e46765548980c44f6a1edc,62bbfb71aebb35cef2c288f1,2022-06-29_09h19.47.147,Colour_Asymmetry_Pilot,2022.1.3,Win32,59.58410296,62bbe60bf3d75ef465d3e404,,,,,,,,,,,,,,,,,,,,,,,,,,,,,,,,,,,,,,,,,,,,,,,,,,,,,,,,,,,,,,,,,,,,,,,,,,,,,,,,,,,,,,,,,,,,,,,,,,,,,,,,,,,,,,,,,,,,,,,,,,,,,,,,,,,,,,,,,,,,,,,,,,,,,,,,,,,,,,
0,85,85,91,1,,60e46765548980c44f6a1edc,62bbfb71aebb35cef2c288f1,2022-06-29_09h19.47.147,Colour_Asymmetry_Pilot,2022.1.3,Win32,59.58410296,62bbe60bf3d75ef465d3e404,,,,,,,,,,,,,,,,,,,,,,,,,,,,,,,,,,,,,,,,,,,,,,,,,,,,,,,,,,,,,,,,,,,,,,,,,,,,,,,,,,,,,,,,,,,,,,,,,,,,,,,,,,,,,,,,,,,,,,,,,,,,,,,,,,,,,,,,,,,,,,,,,,,,,,,,,,,,,,
0,86,86,33,1,,60e46765548980c44f6a1edc,62bbfb71aebb35cef2c288f1,2022-06-29_09h19.47.147,Colour_Asymmetry_Pilot,2022.1.3,Win32,59.58410296,62bbe60bf3d75ef465d3e404,,,,,,,,,,,,,,,,,,,,,,,,,,,,,,,,,,,,,,,,,,,,,,,,,,,,,,,,,,,,,,,,,,,,,,,,,,,,,,,,,,,,,,,,,,,,,,,,,,,,,,,,,,,,,,,,,,,,,,,,,,,,,,,,,,,,,,,,,,,,,,,,,,,,,,,,,,,,,,
0,87,87,70,1,,60e46765548980c44f6a1edc,62bbfb71aebb35cef2c288f1,2022-06-29_09h19.47.147,Colour_Asymmetry_Pilot,2022.1.3,Win32,59.58410296,62bbe60bf3d75ef465d3e404,,,,,,,,,,,,,,,,,,,,,,,,,,,,,,,,,,,,,,,,,,,,,,,,,,,,,,,,,,,,,,,,,,,,,,,,,,,,,,,,,,,,,,,,,,,,,,,,,,,,,,,,,,,,,,,,,,,,,,,,,,,,,,,,,,,,,,,,,,,,,,,,,,,,,,,,,,,,,,
0,88,88,82,1,,60e46765548980c44f6a1edc,62bbfb71aebb35cef2c288f1,2022-06-29_09h19.47.147,Colour_Asymmetry_Pilot,2022.1.3,Win32,59.58410296,62bbe60bf3d75ef465d3e404,,,,,,,,,,,,,,,,,,,,,,,,,,,,,,,,,,,,,,,,,,,,,,,,,,,,,,,,,,,,,,,,,,,,,,,,,,,,,,,,,,,,,,,,,,,,,,,,,,,,,,,,,,,,,,,,,,,,,,,,,,,,,,,,,,,,,,,,,,,,,,,,,,,,,,,,,,,,,,
0,89,89,26,1,,60e46765548980c44f6a1edc,62bbfb71aebb35cef2c288f1,2022-06-29_09h19.47.147,Colour_Asymmetry_Pilot,2022.1.3,Win32,59.58410296,62bbe60bf3d75ef465d3e404,,,,,,,,,,,,,,,,,,,,,,,,,,,,,,,,,,,,,,,,,,,,,,,,,,,,,,,,,,,,,,,,,,,,,,,,,,,,,,,,,,,,,,,,,,,,,,,,,,,,,,,,,,,,,,,,,,,,,,,,,,,,,,,,,,,,,,,,,,,,,,,,,,,,,,,,,,,,,,
0,90,90,62,1,,60e46765548980c44f6a1edc,62bbfb71aebb35cef2c288f1,2022-06-29_09h19.47.147,Colour_Asymmetry_Pilot,2022.1.3,Win32,59.58410296,62bbe60bf3d75ef465d3e404,,,,,,,,,,,,,,,,,,,,,,,,,,,,,,,,,,,,,,,,,,,,,,,,,,,,,,,,,,,,,,,,,,,,,,,,,,,,,,,,,,,,,,,,,,,,,,,,,,,,,,,,,,,,,,,,,,,,,,,,,,,,,,,,,,,,,,,,,,,,,,,,,,,,,,,,,,,,,,
0,91,91,61,1,,60e46765548980c44f6a1edc,62bbfb71aebb35cef2c288f1,2022-06-29_09h19.47.147,Colour_Asymmetry_Pilot,2022.1.3,Win32,59.58410296,62bbe60bf3d75ef465d3e404,,,,,,,,,,,,,,,,,,,,,,,,,,,,,,,,,,,,,,,,,,,,,,,,,,,,,,,,,,,,,,,,,,,,,,,,,,,,,,,,,,,,,,,,,,,,,,,,,,,,,,,,,,,,,,,,,,,,,,,,,,,,,,,,,,,,,,,,,,,,,,,,,,,,,,,,,,,,,,
0,92,92,57,1,,60e46765548980c44f6a1edc,62bbfb71aebb35cef2c288f1,2022-06-29_09h19.47.147,Colour_Asymmetry_Pilot,2022.1.3,Win32,59.58410296,62bbe60bf3d75ef465d3e404,,,,,,,,,,,,,,,,,,,,,,,,,,,,,,,,,,,,,,,,,,,,,,,,,,,,,,,,,,,,,,,,,,,,,,,,,,,,,,,,,,,,,,,,,,,,,,,,,,,,,,,,,,,,,,,,,,,,,,,,,,,,,,,,,,,,,,,,,,,,,,,,,,,,,,,,,,,,,,
,,,,,,60e46765548980c44f6a1edc,62bbfb71aebb35cef2c288f1,2022-06-29_09h19.47.147,Colour_Asymmetry_Pilot,2022.1.3,Win32,59.58410296,62bbe60bf3d75ef465d3e404,0,0,0,29,1,threefour,,,,,,,,,,,,,,,,,,,,,,,,,,,,,,,,,,,,,,,,,,,,,,,,,,,,,,,,,,,,,,,,,,,,,,,,,,,,,,,,,,,,,,,,,,,,,,,,,,,,,,,,,,,,,,,,,,,,,,,,,,,,,,,,,,,,,,,,,,,,,,,,,,,,,,,,
,,,,,,60e46765548980c44f6a1edc,62bbfb71aebb35cef2c288f1,2022-06-29_09h19.47.147,Colour_Asymmetry_Pilot,2022.1.3,Win32,59.58410296,62bbe60bf3d75ef465d3e404,0,1,1,89,1,onethree,,,,,,,,,,,,,,,,,,,,,,,,,,,,,,,,,,,,,,,,,,,,,,,,,,,,,,,,,,,,,,,,,,,,,,,,,,,,,,,,,,,,,,,,,,,,,,,,,,,,,,,,,,,,,,,,,,,,,,,,,,,,,,,,,,,,,,,,,,,,,,,,,,,,,,,,
,,,,,,60e46765548980c44f6a1edc,62bbfb71aebb35cef2c288f1,2022-06-29_09h19.47.147,Colour_Asymmetry_Pilot,2022.1.3,Win32,59.58410296,62bbe60bf3d75ef465d3e404,0,2,2,109,1,threefour,,,,,,,,,,,,,,,,,,,,,,,,,,,,,,,,,,,,,,,,,,,,,,,,,,,,,,,,,,,,,,,,,,,,,,,,,,,,,,,,,,,,,,,,,,,,,,,,,,,,,,,,,,,,,,,,,,,,,,,,,,,,,,,,,,,,,,,,,,,,,,,,,,,,,,,,
,,,,,,60e46765548980c44f6a1edc,62bbfb71aebb35cef2c288f1,2022-06-29_09h19.47.147,Colour_Asymmetry_Pilot,2022.1.3,Win32,59.58410296,62bbe60bf3d75ef465d3e404,0,3,3,125,1,threefour,,,,,,,,,,,,,,,,,,,,,,,,,,,,,,,,,,,,,,,,,,,,,,,,,,,,,,,,,,,,,,,,,,,,,,,,,,,,,,,,,,,,,,,,,,,,,,,,,,,,,,,,,,,,,,,,,,,,,,,,,,,,,,,,,,,,,,,,,,,,,,,,,,,,,,,,
,,,,,,60e46765548980c44f6a1edc,62bbfb71aebb35cef2c288f1,2022-06-29_09h19.47.147,Colour_Asymmetry_Pilot,2022.1.3,Win32,59.58410296,62bbe60bf3d75ef465d3e404,0,4,4,146,1,twoone,,,,,,,,,,,,,,,,,,,,,,,,,,,,,,,,,,,,,,,,,,,,,,,,,,,,,,,,,,,,,,,,,,,,,,,,,,,,,,,,,,,,,,,,,,,,,,,,,,,,,,,,,,,,,,,,,,,,,,,,,,,,,,,,,,,,,,,,,,,,,,,,,,,,,,,,
,,,,,,60e46765548980c44f6a1edc,62bbfb71aebb35cef2c288f1,2022-06-29_09h19.47.147,Colour_Asymmetry_Pilot,2022.1.3,Win32,59.58410296,62bbe60bf3d75ef465d3e404,0,5,5,94,1,fourtwo,,,,,,,,,,,,,,,,,,,,,,,,,,,,,,,,,,,,,,,,,,,,,,,,,,,,,,,,,,,,,,,,,,,,,,,,,,,,,,,,,,,,,,,,,,,,,,,,,,,,,,,,,,,,,,,,,,,,,,,,,,,,,,,,,,,,,,,,,,,,,,,,,,,,,,,,
,,,,,,60e46765548980c44f6a1edc,62bbfb71aebb35cef2c288f1,2022-06-29_09h19.47.147,Colour_Asymmetry_Pilot,2022.1.3,Win32,59.58410296,62bbe60bf3d75ef465d3e404,0,6,6,8,1,onetwo,,,,,,,,,,,,,,,,,,,,,,,,,,,,,,,,,,,,,,,,,,,,,,,,,,,,,,,,,,,,,,,,,,,,,,,,,,,,,,,,,,,,,,,,,,,,,,,,,,,,,,,,,,,,,,,,,,,,,,,,,,,,,,,,,,,,,,,,,,,,,,,,,,,,,,,,
,,,,,,60e46765548980c44f6a1edc,62bbfb71aebb35cef2c288f1,2022-06-29_09h19.47.147,Colour_Asymmetry_Pilot,2022.1.3,Win32,59.58410296,62bbe60bf3d75ef465d3e404,0,7,7,122,1,twoone,,,,,,,,,,,,,,,,,,,,,,,,,,,,,,,,,,,,,,,,,,,,,,,,,,,,,,,,,,,,,,,,,,,,,,,,,,,,,,,,,,,,,,,,,,,,,,,,,,,,,,,,,,,,,,,,,,,,,,,,,,,,,,,,,,,,,,,,,,,,,,,,,,,,,,,,
,,,,,,60e46765548980c44f6a1edc,62bbfb71aebb35cef2c288f1,2022-06-29_09h19.47.147,Colour_Asymmetry_Pilot,2022.1.3,Win32,59.58410296,62bbe60bf3d75ef465d3e404,0,8,8,149,1,threefour,,,,,,,,,,,,,,,,,,,,,,,,,,,,,,,,,,,,,,,,,,,,,,,,,,,,,,,,,,,,,,,,,,,,,,,,,,,,,,,,,,,,,,,,,,,,,,,,,,,,,,,,,,,,,,,,,,,,,,,,,,,,,,,,,,,,,,,,,,,,,,,,,,,,,,,,
,,,,,,60e46765548980c44f6a1edc,62bbfb71aebb35cef2c288f1,2022-06-29_09h19.47.147,Colour_Asymmetry_Pilot,2022.1.3,Win32,59.58410296,62bbe60bf3d75ef465d3e404,0,9,9,117,1,threefour,,,,,,,,,,,,,,,,,,,,,,,,,,,,,,,,,,,,,,,,,,,,,,,,,,,,,,,,,,,,,,,,,,,,,,,,,,,,,,,,,,,,,,,,,,,,,,,,,,,,,,,,,,,,,,,,,,,,,,,,,,,,,,,,,,,,,,,,,,,,,,,,,,,,,,,,
,,,,,,60e46765548980c44f6a1edc,62bbfb71aebb35cef2c288f1,2022-06-29_09h19.47.147,Colour_Asymmetry_Pilot,2022.1.3,Win32,59.58410296,62bbe60bf3d75ef465d3e404,0,10,10,108,1,threeone,,,,,,,,,,,,,,,,,,,,,,,,,,,,,,,,,,,,,,,,,,,,,,,,,,,,,,,,,,,,,,,,,,,,,,,,,,,,,,,,,,,,,,,,,,,,,,,,,,,,,,,,,,,,,,,,,,,,,,,,,,,,,,,,,,,,,,,,,,,,,,,,,,,,,,,,
,,,,,,60e46765548980c44f6a1edc,62bbfb71aebb35cef2c288f1,2022-06-29_09h19.47.147,Colour_Asymmetry_Pilot,2022.1.3,Win32,59.58410296,62bbe60bf3d75ef465d3e404,0,11,11,28,1,threeone,,,,,,,,,,,,,,,,,,,,,,,,,,,,,,,,,,,,,,,,,,,,,,,,,,,,,,,,,,,,,,,,,,,,,,,,,,,,,,,,,,,,,,,,,,,,,,,,,,,,,,,,,,,,,,,,,,,,,,,,,,,,,,,,,,,,,,,,,,,,,,,,,,,,,,,,
,,,,,,60e46765548980c44f6a1edc,62bbfb71aebb35cef2c288f1,2022-06-29_09h19.47.147,Colour_Asymmetry_Pilot,2022.1.3,Win32,59.58410296,62bbe60bf3d75ef465d3e404,0,12,12,83,1,twofour,,,,,,,,,,,,,,,,,,,,,,,,,,,,,,,,,,,,,,,,,,,,,,,,,,,,,,,,,,,,,,,,,,,,,,,,,,,,,,,,,,,,,,,,,,,,,,,,,,,,,,,,,,,,,,,,,,,,,,,,,,,,,,,,,,,,,,,,,,,,,,,,,,,,,,,,
,,,,,,60e46765548980c44f6a1edc,62bbfb71aebb35cef2c288f1,2022-06-29_09h19.47.147,Colour_Asymmetry_Pilot,2022.1.3,Win32,59.58410296,62bbe60bf3d75ef465d3e404,0,13,13,129,1,onethree,,,,,,,,,,,,,,,,,,,,,,,,,,,,,,,,,,,,,,,,,,,,,,,,,,,,,,,,,,,,,,,,,,,,,,,,,,,,,,,,,,,,,,,,,,,,,,,,,,,,,,,,,,,,,,,,,,,,,,,,,,,,,,,,,,,,,,,,,,,,,,,,,,,,,,,,
,,,,,,60e46765548980c44f6a1edc,62bbfb71aebb35cef2c288f1,2022-06-29_09h19.47.147,Colour_Asymmetry_Pilot,2022.1.3,Win32,59.58410296,62bbe60bf3d75ef465d3e404,0,14,14,33,1,onethree,,,,,,,,,,,,,,,,,,,,,,,,,,,,,,,,,,,,,,,,,,,,,,,,,,,,,,,,,,,,,,,,,,,,,,,,,,,,,,,,,,,,,,,,,,,,,,,,,,,,,,,,,,,,,,,,,,,,,,,,,,,,,,,,,,,,,,,,,,,,,,,,,,,,,,,,
,,,,,,60e46765548980c44f6a1edc,62bbfb71aebb35cef2c288f1,2022-06-29_09h19.47.147,Colour_Asymmetry_Pilot,2022.1.3,Win32,59.58410296,62bbe60bf3d75ef465d3e404,0,15,15,31,1,fourthree,,,,,,,,,,,,,,,,,,,,,,,,,,,,,,,,,,,,,,,,,,,,,,,,,,,,,,,,,,,,,,,,,,,,,,,,,,,,,,,,,,,,,,,,,,,,,,,,,,,,,,,,,,,,,,,,,,,,,,,,,,,,,,,,,,,,,,,,,,,,,,,,,,,,,,,,
,,,,,,60e46765548980c44f6a1edc,62bbfb71aebb35cef2c288f1,2022-06-29_09h19.47.147,Colour_Asymmetry_Pilot,2022.1.3,Win32,59.58410296,62bbe60bf3d75ef465d3e404,0,16,16,20,1,threeone,,,,,,,,,,,,,,,,,,,,,,,,,,,,,,,,,,,,,,,,,,,,,,,,,,,,,,,,,,,,,,,,,,,,,,,,,,,,,,,,,,,,,,,,,,,,,,,,,,,,,,,,,,,,,,,,,,,,,,,,,,,,,,,,,,,,,,,,,,,,,,,,,,,,,,,,
,,,,,,60e46765548980c44f6a1edc,62bbfb71aebb35cef2c288f1,2022-06-29_09h19.47.147,Colour_Asymmetry_Pilot,2022.1.3,Win32,59.58410296,62bbe60bf3d75ef465d3e404,0,17,17,161,1,onethree,,,,,,,,,,,,,,,,,,,,,,,,,,,,,,,,,,,,,,,,,,,,,,,,,,,,,,,,,,,,,,,,,,,,,,,,,,,,,,,,,,,,,,,,,,,,,,,,,,,,,,,,,,,,,,,,,,,,,,,,,,,,,,,,,,,,,,,,,,,,,,,,,,,,,,,,
,,,,,,60e46765548980c44f6a1edc,62bbfb71aebb35cef2c288f1,2022-06-29_09h19.47.147,Colour_Asymmetry_Pilot,2022.1.3,Win32,59.58410296,62bbe60bf3d75ef465d3e404,0,18,18,12,1,threeone,,,,,,,,,,,,,,,,,,,,,,,,,,,,,,,,,,,,,,,,,,,,,,,,,,,,,,,,,,,,,,,,,,,,,,,,,,,,,,,,,,,,,,,,,,,,,,,,,,,,,,,,,,,,,,,,,,,,,,,,,,,,,,,,,,,,,,,,,,,,,,,,,,,,,,,,
,,,,,,60e46765548980c44f6a1edc,62bbfb71aebb35cef2c288f1,2022-06-29_09h19.47.147,Colour_Asymmetry_Pilot,2022.1.3,Win32,59.58410296,62bbe60bf3d75ef465d3e404,0,19,19,116,1,threeone,,,,,,,,,,,,,,,,,,,,,,,,,,,,,,,,,,,,,,,,,,,,,,,,,,,,,,,,,,,,,,,,,,,,,,,,,,,,,,,,,,,,,,,,,,,,,,,,,,,,,,,,,,,,,,,,,,,,,,,,,,,,,,,,,,,,,,,,,,,,,,,,,,,,,,,,
,,,,,,60e46765548980c44f6a1edc,62bbfb71aebb35cef2c288f1,2022-06-29_09h19.47.147,Colour_Asymmetry_Pilot,2022.1.3,Win32,59.58410296,62bbe60bf3d75ef465d3e404,0,20,20,44,1,threeone,,,,,,,,,,,,,,,,,,,,,,,,,,,,,,,,,,,,,,,,,,,,,,,,,,,,,,,,,,,,,,,,,,,,,,,,,,,,,,,,,,,,,,,,,,,,,,,,,,,,,,,,,,,,,,,,,,,,,,,,,,,,,,,,,,,,,,,,,,,,,,,,,,,,,,,,
,,,,,,60e46765548980c44f6a1edc,62bbfb71aebb35cef2c288f1,2022-06-29_09h19.47.147,Colour_Asymmetry_Pilot,2022.1.3,Win32,59.58410296,62bbe60bf3d75ef465d3e404,0,21,21,39,1,fourthree,,,,,,,,,,,,,,,,,,,,,,,,,,,,,,,,,,,,,,,,,,,,,,,,,,,,,,,,,,,,,,,,,,,,,,,,,,,,,,,,,,,,,,,,,,,,,,,,,,,,,,,,,,,,,,,,,,,,,,,,,,,,,,,,,,,,,,,,,,,,,,,,,,,,,,,,
,,,,,,60e46765548980c44f6a1edc,62bbfb71aebb35cef2c288f1,2022-06-29_09h19.47.147,Colour_Asymmetry_Pilot,2022.1.3,Win32,59.58410296,62bbe60bf3d75ef465d3e404,0,22,22,25,1,onethree,,,,,,,,,,,,,,,,,,,,,,,,,,,,,,,,,,,,,,,,,,,,,,,,,,,,,,,,,,,,,,,,,,,,,,,,,,,,,,,,,,,,,,,,,,,,,,,,,,,,,,,,,,,,,,,,,,,,,,,,,,,,,,,,,,,,,,,,,,,,,,,,,,,,,,,,
,,,,,,60e46765548980c44f6a1edc,62bbfb71aebb35cef2c288f1,2022-06-29_09h19.47.147,Colour_Asymmetry_Pilot,2022.1.3,Win32,59.58410296,62bbe60bf3d75ef465d3e404,0,23,23,127,1,fourthree,,,,,,,,,,,,,,,,,,,,,,,,,,,,,,,,,,,,,,,,,,,,,,,,,,,,,,,,,,,,,,,,,,,,,,,,,,,,,,,,,,,,,,,,,,,,,,,,,,,,,,,,,,,,,,,,,,,,,,,,,,,,,,,,,,,,,,,,,,,,,,,,,,,,,,,,
,,,,,,60e46765548980c44f6a1edc,62bbfb71aebb35cef2c288f1,2022-06-29_09h19.47.147,Colour_Asymmetry_Pilot,2022.1.3,Win32,59.58410296,62bbe60bf3d75ef465d3e404,0,24,24,60,1,threeone,,,,,,,,,,,,,,,,,,,,,,,,,,,,,,,,,,,,,,,,,,,,,,,,,,,,,,,,,,,,,,,,,,,,,,,,,,,,,,,,,,,,,,,,,,,,,,,,,,,,,,,,,,,,,,,,,,,,,,,,,,,,,,,,,,,,,,,,,,,,,,,,,,,,,,,,
,,,,,,60e46765548980c44f6a1edc,62bbfb71aebb35cef2c288f1,2022-06-29_09h19.47.147,Colour_Asymmetry_Pilot,2022.1.3,Win32,59.58410296,62bbe60bf3d75ef465d3e404,0,25,25,51,1,twofour,,,,,,,,,,,,,,,,,,,,,,,,,,,,,,,,,,,,,,,,,,,,,,,,,,,,,,,,,,,,,,,,,,,,,,,,,,,,,,,,,,,,,,,,,,,,,,,,,,,,,,,,,,,,,,,,,,,,,,,,,,,,,,,,,,,,,,,,,,,,,,,,,,,,,,,,
,,,,,,60e46765548980c44f6a1edc,62bbfb71aebb35cef2c288f1,2022-06-29_09h19.47.147,Colour_Asymmetry_Pilot,2022.1.3,Win32,59.58410296,62bbe60bf3d75ef465d3e404,0,26,26,32,1,onetwo,,,,,,,,,,,,,,,,,,,,,,,,,,,,,,,,,,,,,,,,,,,,,,,,,,,,,,,,,,,,,,,,,,,,,,,,,,,,,,,,,,,,,,,,,,,,,,,,,,,,,,,,,,,,,,,,,,,,,,,,,,,,,,,,,,,,,,,,,,,,,,,,,,,,,,,,
,,,,,,60e46765548980c44f6a1edc,62bbfb71aebb35cef2c288f1,2022-06-29_09h19.47.147,Colour_Asymmetry_Pilot,2022.1.3,Win32,59.58410296,62bbe60bf3d75ef465d3e404,0,27,27,42,1,twoone,,,,,,,,,,,,,,,,,,,,,,,,,,,,,,,,,,,,,,,,,,,,,,,,,,,,,,,,,,,,,,,,,,,,,,,,,,,,,,,,,,,,,,,,,,,,,,,,,,,,,,,,,,,,,,,,,,,,,,,,,,,,,,,,,,,,,,,,,,,,,,,,,,,,,,,,
,,,,,,60e46765548980c44f6a1edc,62bbfb71aebb35cef2c288f1,2022-06-29_09h19.47.147,Colour_Asymmetry_Pilot,2022.1.3,Win32,59.58410296,62bbe60bf3d75ef465d3e404,0,28,28,92,1,threeone,,,,,,,,,,,,,,,,,,,,,,,,,,,,,,,,,,,,,,,,,,,,,,,,,,,,,,,,,,,,,,,,,,,,,,,,,,,,,,,,,,,,,,,,,,,,,,,,,,,,,,,,,,,,,,,,,,,,,,,,,,,,,,,,,,,,,,,,,,,,,,,,,,,,,,,,
,,,,,,60e46765548980c44f6a1edc,62bbfb71aebb35cef2c288f1,2022-06-29_09h19.47.147,Colour_Asymmetry_Pilot,2022.1.3,Win32,59.58410296,62bbe60bf3d75ef465d3e404,0,29,29,67,1,twofour,,,,,,,,,,,,,,,,,,,,,,,,,,,,,,,,,,,,,,,,,,,,,,,,,,,,,,,,,,,,,,,,,,,,,,,,,,,,,,,,,,,,,,,,,,,,,,,,,,,,,,,,,,,,,,,,,,,,,,,,,,,,,,,,,,,,,,,,,,,,,,,,,,,,,,,,
,,,,,,60e46765548980c44f6a1edc,62bbfb71aebb35cef2c288f1,2022-06-29_09h19.47.147,Colour_Asymmetry_Pilot,2022.1.3,Win32,59.58410296,62bbe60bf3d75ef465d3e404,0,30,30,101,1,threefour,,,,,,,,,,,,,,,,,,,,,,,,,,,,,,,,,,,,,,,,,,,,,,,,,,,,,,,,,,,,,,,,,,,,,,,,,,,,,,,,,,,,,,,,,,,,,,,,,,,,,,,,,,,,,,,,,,,,,,,,,,,,,,,,,,,,,,,,,,,,,,,,,,,,,,,,
,,,,,,60e46765548980c44f6a1edc,62bbfb71aebb35cef2c288f1,2022-06-29_09h19.47.147,Colour_Asymmetry_Pilot,2022.1.3,Win32,59.58410296,62bbe60bf3d75ef465d3e404,0,31,31,159,1,fourthree,,,,,,,,,,,,,,,,,,,,,,,,,,,,,,,,,,,,,,,,,,,,,,,,,,,,,,,,,,,,,,,,,,,,,,,,,,,,,,,,,,,,,,,,,,,,,,,,,,,,,,,,,,,,,,,,,,,,,,,,,,,,,,,,,,,,,,,,,,,,,,,,,,,,,,,,
,,,,,,60e46765548980c44f6a1edc,62bbfb71aebb35cef2c288f1,2022-06-29_09h19.47.147,Colour_Asymmetry_Pilot,2022.1.3,Win32,59.58410296,62bbe60bf3d75ef465d3e404,0,32,32,82,1,twoone,,,,,,,,,,,,,,,,,,,,,,,,,,,,,,,,,,,,,,,,,,,,,,,,,,,,,,,,,,,,,,,,,,,,,,,,,,,,,,,,,,,,,,,,,,,,,,,,,,,,,,,,,,,,,,,,,,,,,,,,,,,,,,,,,,,,,,,,,,,,,,,,,,,,,,,,
,,,,,,60e46765548980c44f6a1edc,62bbfb71aebb35cef2c288f1,2022-06-29_09h19.47.147,Colour_Asymmetry_Pilot,2022.1.3,Win32,59.58410296,62bbe60bf3d75ef465d3e404,0,33,33,155,1,twofour,,,,,,,,,,,,,,,,,,,,,,,,,,,,,,,,,,,,,,,,,,,,,,,,,,,,,,,,,,,,,,,,,,,,,,,,,,,,,,,,,,,,,,,,,,,,,,,,,,,,,,,,,,,,,,,,,,,,,,,,,,,,,,,,,,,,,,,,,,,,,,,,,,,,,,,,
,,,,,,60e46765548980c44f6a1edc,62bbfb71aebb35cef2c288f1,2022-06-29_09h19.47.147,Colour_Asymmetry_Pilot,2022.1.3,Win32,59.58410296,62bbe60bf3d75ef465d3e404,0,34,34,77,1,threefour,,,,,,,,,,,,,,,,,,,,,,,,,,,,,,,,,,,,,,,,,,,,,,,,,,,,,,,,,,,,,,,,,,,,,,,,,,,,,,,,,,,,,,,,,,,,,,,,,,,,,,,,,,,,,,,,,,,,,,,,,,,,,,,,,,,,,,,,,,,,,,,,,,,,,,,,
,,,,,,60e46765548980c44f6a1edc,62bbfb71aebb35cef2c288f1,2022-06-29_09h19.47.147,Colour_Asymmetry_Pilot,2022.1.3,Win32,59.58410296,62bbe60bf3d75ef465d3e404,0,35,35,76,1,threeone,,,,,,,,,,,,,,,,,,,,,,,,,,,,,,,,,,,,,,,,,,,,,,,,,,,,,,,,,,,,,,,,,,,,,,,,,,,,,,,,,,,,,,,,,,,,,,,,,,,,,,,,,,,,,,,,,,,,,,,,,,,,,,,,,,,,,,,,,,,,,,,,,,,,,,,,
,,,,,,60e46765548980c44f6a1edc,62bbfb71aebb35cef2c288f1,2022-06-29_09h19.47.147,Colour_Asymmetry_Pilot,2022.1.3,Win32,59.58410296,62bbe60bf3d75ef465d3e404,0,36,36,74,1,twoone,,,,,,,,,,,,,,,,,,,,,,,,,,,,,,,,,,,,,,,,,,,,,,,,,,,,,,,,,,,,,,,,,,,,,,,,,,,,,,,,,,,,,,,,,,,,,,,,,,,,,,,,,,,,,,,,,,,,,,,,,,,,,,,,,,,,,,,,,,,,,,,,,,,,,,,,
,,,,,,60e46765548980c44f6a1edc,62bbfb71aebb35cef2c288f1,2022-06-29_09h19.47.147,Colour_Asymmetry_Pilot,2022.1.3,Win32,59.58410296,62bbe60bf3d75ef465d3e404,0,37,37,98,1,twoone,,,,,,,,,,,,,,,,,,,,,,,,,,,,,,,,,,,,,,,,,,,,,,,,,,,,,,,,,,,,,,,,,,,,,,,,,,,,,,,,,,,,,,,,,,,,,,,,,,,,,,,,,,,,,,,,,,,,,,,,,,,,,,,,,,,,,,,,,,,,,,,,,,,,,,,,
,,,,,,60e46765548980c44f6a1edc,62bbfb71aebb35cef2c288f1,2022-06-29_09h19.47.147,Colour_Asymmetry_Pilot,2022.1.3,Win32,59.58410296,62bbe60bf3d75ef465d3e404,0,38,38,151,1,fourthree,,,,,,,,,,,,,,,,,,,,,,,,,,,,,,,,,,,,,,,,,,,,,,,,,,,,,,,,,,,,,,,,,,,,,,,,,,,,,,,,,,,,,,,,,,,,,,,,,,,,,,,,,,,,,,,,,,,,,,,,,,,,,,,,,,,,,,,,,,,,,,,,,,,,,,,,
,,,,,,60e46765548980c44f6a1edc,62bbfb71aebb35cef2c288f1,2022-06-29_09h19.47.147,Colour_Asymmetry_Pilot,2022.1.3,Win32,59.58410296,62bbe60bf3d75ef465d3e404,0,39,39,142,1,fourtwo,,,,,,,,,,,,,,,,,,,,,,,,,,,,,,,,,,,,,,,,,,,,,,,,,,,,,,,,,,,,,,,,,,,,,,,,,,,,,,,,,,,,,,,,,,,,,,,,,,,,,,,,,,,,,,,,,,,,,,,,,,,,,,,,,,,,,,,,,,,,,,,,,,,,,,,,
,,,,,,60e46765548980c44f6a1edc,62bbfb71aebb35cef2c288f1,2022-06-29_09h19.47.147,Colour_Asymmetry_Pilot,2022.1.3,Win32,59.58410296,62bbe60bf3d75ef465d3e404,0,40,40,19,1,twofour,,,,,,,,,,,,,,,,,,,,,,,,,,,,,,,,,,,,,,,,,,,,,,,,,,,,,,,,,,,,,,,,,,,,,,,,,,,,,,,,,,,,,,,,,,,,,,,,,,,,,,,,,,,,,,,,,,,,,,,,,,,,,,,,,,,,,,,,,,,,,,,,,,,,,,,,
,,,,,,60e46765548980c44f6a1edc,62bbfb71aebb35cef2c288f1,2022-06-29_09h19.47.147,Colour_Asymmetry_Pilot,2022.1.3,Win32,59.58410296,62bbe60bf3d75ef465d3e404,0,41,41,9,1,onethree,,,,,,,,,,,,,,,,,,,,,,,,,,,,,,,,,,,,,,,,,,,,,,,,,,,,,,,,,,,,,,,,,,,,,,,,,,,,,,,,,,,,,,,,,,,,,,,,,,,,,,,,,,,,,,,,,,,,,,,,,,,,,,,,,,,,,,,,,,,,,,,,,,,,,,,,
,,,,,,60e46765548980c44f6a1edc,62bbfb71aebb35cef2c288f1,2022-06-29_09h19.47.147,Colour_Asymmetry_Pilot,2022.1.3,Win32,59.58410296,62bbe60bf3d75ef465d3e404,0,42,42,130,1,twoone,,,,,,,,,,,,,,,,,,,,,,,,,,,,,,,,,,,,,,,,,,,,,,,,,,,,,,,,,,,,,,,,,,,,,,,,,,,,,,,,,,,,,,,,,,,,,,,,,,,,,,,,,,,,,,,,,,,,,,,,,,,,,,,,,,,,,,,,,,,,,,,,,,,,,,,,
,,,,,,60e46765548980c44f6a1edc,62bbfb71aebb35cef2c288f1,2022-06-29_09h19.47.147,Colour_Asymmetry_Pilot,2022.1.3,Win32,59.58410296,62bbe60bf3d75ef465d3e404,0,43,43,88,1,onetwo,,,,,,,,,,,,,,,,,,,,,,,,,,,,,,,,,,,,,,,,,,,,,,,,,,,,,,,,,,,,,,,,,,,,,,,,,,,,,,,,,,,,,,,,,,,,,,,,,,,,,,,,,,,,,,,,,,,,,,,,,,,,,,,,,,,,,,,,,,,,,,,,,,,,,,,,
,,,,,,60e46765548980c44f6a1edc,62bbfb71aebb35cef2c288f1,2022-06-29_09h19.47.147,Colour_Asymmetry_Pilot,2022.1.3,Win32,59.58410296,62bbe60bf3d75ef465d3e404,0,44,44,140,1,threeone,,,,,,,,,,,,,,,,,,,,,,,,,,,,,,,,,,,,,,,,,,,,,,,,,,,,,,,,,,,,,,,,,,,,,,,,,,,,,,,,,,,,,,,,,,,,,,,,,,,,,,,,,,,,,,,,,,,,,,,,,,,,,,,,,,,,,,,,,,,,,,,,,,,,,,,,
,,,,,,60e46765548980c44f6a1edc,62bbfb71aebb35cef2c288f1,2022-06-29_09h19.47.147,Colour_Asymmetry_Pilot,2022.1.3,Win32,59.58410296,62bbe60bf3d75ef465d3e404,0,45,45,113,1,onethree,,,,,,,,,,,,,,,,,,,,,,,,,,,,,,,,,,,,,,,,,,,,,,,,,,,,,,,,,,,,,,,,,,,,,,,,,,,,,,,,,,,,,,,,,,,,,,,,,,,,,,,,,,,,,,,,,,,,,,,,,,,,,,,,,,,,,,,,,,,,,,,,,,,,,,,,
,,,,,,60e46765548980c44f6a1edc,62bbfb71aebb35cef2c288f1,2022-06-29_09h19.47.147,Colour_Asymmetry_Pilot,2022.1.3,Win32,59.58410296,62bbe60bf3d75ef465d3e404,0,46,46,138,1,twoone,,,,,,,,,,,,,,,,,,,,,,,,,,,,,,,,,,,,,,,,,,,,,,,,,,,,,,,,,,,,,,,,,,,,,,,,,,,,,,,,,,,,,,,,,,,,,,,,,,,,,,,,,,,,,,,,,,,,,,,,,,,,,,,,,,,,,,,,,,,,,,,,,,,,,,,,
,,,,,,60e46765548980c44f6a1edc,62bbfb71aebb35cef2c288f1,2022-06-29_09h19.47.147,Colour_Asymmetry_Pilot,2022.1.3,Win32,59.58410296,62bbe60bf3d75ef465d3e404,0,47,47,133,1,threefour,,,,,,,,,,,,,,,,,,,,,,,,,,,,,,,,,,,,,,,,,,,,,,,,,,,,,,,,,,,,,,,,,,,,,,,,,,,,,,,,,,,,,,,,,,,,,,,,,,,,,,,,,,,,,,,,,,,,,,,,,,,,,,,,,,,,,,,,,,,,,,,,,,,,,,,,
,,,,,,60e46765548980c44f6a1edc,62bbfb71aebb35cef2c288f1,2022-06-29_09h19.47.147,Colour_Asymmetry_Pilot,2022.1.3,Win32,59.58410296,62bbe60bf3d75ef465d3e404,0,48,48,50,1,twoone,,,,,,,,,,,,,,,,,,,,,,,,,,,,,,,,,,,,,,,,,,,,,,,,,,,,,,,,,,,,,,,,,,,,,,,,,,,,,,,,,,,,,,,,,,,,,,,,,,,,,,,,,,,,,,,,,,,,,,,,,,,,,,,,,,,,,,,,,,,,,,,,,,,,,,,,
,,,,,,60e46765548980c44f6a1edc,62bbfb71aebb35cef2c288f1,2022-06-29_09h19.47.147,Colour_Asymmetry_Pilot,2022.1.3,Win32,59.58410296,62bbe60bf3d75ef465d3e404,0,49,49,26,1,twoone,,,,,,,,,,,,,,,,,,,,,,,,,,,,,,,,,,,,,,,,,,,,,,,,,,,,,,,,,,,,,,,,,,,,,,,,,,,,,,,,,,,,,,,,,,,,,,,,,,,,,,,,,,,,,,,,,,,,,,,,,,,,,,,,,,,,,,,,,,,,,,,,,,,,,,,,
,,,,,,60e46765548980c44f6a1edc,62bbfb71aebb35cef2c288f1,2022-06-29_09h19.47.147,Colour_Asymmetry_Pilot,2022.1.3,Win32,59.58410296,62bbe60bf3d75ef465d3e404,0,50,50,90,1,twoone,,,,,,,,,,,,,,,,,,,,,,,,,,,,,,,,,,,,,,,,,,,,,,,,,,,,,,,,,,,,,,,,,,,,,,,,,,,,,,,,,,,,,,,,,,,,,,,,,,,,,,,,,,,,,,,,,,,,,,,,,,,,,,,,,,,,,,,,,,,,,,,,,,,,,,,,
,,,,,,60e46765548980c44f6a1edc,62bbfb71aebb35cef2c288f1,2022-06-29_09h19.47.147,Colour_Asymmetry_Pilot,2022.1.3,Win32,59.58410296,62bbe60bf3d75ef465d3e404,0,51,51,59,1,twofour,,,,,,,,,,,,,,,,,,,,,,,,,,,,,,,,,,,,,,,,,,,,,,,,,,,,,,,,,,,,,,,,,,,,,,,,,,,,,,,,,,,,,,,,,,,,,,,,,,,,,,,,,,,,,,,,,,,,,,,,,,,,,,,,,,,,,,,,,,,,,,,,,,,,,,,,
,,,,,,60e46765548980c44f6a1edc,62bbfb71aebb35cef2c288f1,2022-06-29_09h19.47.147,Colour_Asymmetry_Pilot,2022.1.3,Win32,59.58410296,62bbe60bf3d75ef465d3e404,0,52,52,0,1,onetwo,,,,,,,,,,,,,,,,,,,,,,,,,,,,,,,,,,,,,,,,,,,,,,,,,,,,,,,,,,,,,,,,,,,,,,,,,,,,,,,,,,,,,,,,,,,,,,,,,,,,,,,,,,,,,,,,,,,,,,,,,,,,,,,,,,,,,,,,,,,,,,,,,,,,,,,,
,,,,,,60e46765548980c44f6a1edc,62bbfb71aebb35cef2c288f1,2022-06-29_09h19.47.147,Colour_Asymmetry_Pilot,2022.1.3,Win32,59.58410296,62bbe60bf3d75ef465d3e404,0,53,53,65,1,onethree,,,,,,,,,,,,,,,,,,,,,,,,,,,,,,,,,,,,,,,,,,,,,,,,,,,,,,,,,,,,,,,,,,,,,,,,,,,,,,,,,,,,,,,,,,,,,,,,,,,,,,,,,,,,,,,,,,,,,,,,,,,,,,,,,,,,,,,,,,,,,,,,,,,,,,,,
,,,,,,60e46765548980c44f6a1edc,62bbfb71aebb35cef2c288f1,2022-06-29_09h19.47.147,Colour_Asymmetry_Pilot,2022.1.3,Win32,59.58410296,62bbe60bf3d75ef465d3e404,0,54,54,105,1,onethree,,,,,,,,,,,,,,,,,,,,,,,,,,,,,,,,,,,,,,,,,,,,,,,,,,,,,,,,,,,,,,,,,,,,,,,,,,,,,,,,,,,,,,,,,,,,,,,,,,,,,,,,,,,,,,,,,,,,,,,,,,,,,,,,,,,,,,,,,,,,,,,,,,,,,,,,
,,,,,,60e46765548980c44f6a1edc,62bbfb71aebb35cef2c288f1,2022-06-29_09h19.47.147,Colour_Asymmetry_Pilot,2022.1.3,Win32,59.58410296,62bbe60bf3d75ef465d3e404,0,55,55,132,1,threeone,,,,,,,,,,,,,,,,,,,,,,,,,,,,,,,,,,,,,,,,,,,,,,,,,,,,,,,,,,,,,,,,,,,,,,,,,,,,,,,,,,,,,,,,,,,,,,,,,,,,,,,,,,,,,,,,,,,,,,,,,,,,,,,,,,,,,,,,,,,,,,,,,,,,,,,,
,,,,,,60e46765548980c44f6a1edc,62bbfb71aebb35cef2c288f1,2022-06-29_09h19.47.147,Colour_Asymmetry_Pilot,2022.1.3,Win32,59.58410296,62bbe60bf3d75ef465d3e404,0,56,56,40,1,onetwo,,,,,,,,,,,,,,,,,,,,,,,,,,,,,,,,,,,,,,,,,,,,,,,,,,,,,,,,,,,,,,,,,,,,,,,,,,,,,,,,,,,,,,,,,,,,,,,,,,,,,,,,,,,,,,,,,,,,,,,,,,,,,,,,,,,,,,,,,,,,,,,,,,,,,,,,
,,,,,,60e46765548980c44f6a1edc,62bbfb71aebb35cef2c288f1,2022-06-29_09h19.47.147,Colour_Asymmetry_Pilot,2022.1.3,Win32,59.58410296,62bbe60bf3d75ef465d3e404,0,57,57,5,1,threefour,,,,,,,,,,,,,,,,,,,,,,,,,,,,,,,,,,,,,,,,,,,,,,,,,,,,,,,,,,,,,,,,,,,,,,,,,,,,,,,,,,,,,,,,,,,,,,,,,,,,,,,,,,,,,,,,,,,,,,,,,,,,,,,,,,,,,,,,,,,,,,,,,,,,,,,,
,,,,,,60e46765548980c44f6a1edc,62bbfb71aebb35cef2c288f1,2022-06-29_09h19.47.147,Colour_Asymmetry_Pilot,2022.1.3,Win32,59.58410296,62bbe60bf3d75ef465d3e404,0,58,58,128,1,onetwo,,,,,,,,,,,,,,,,,,,,,,,,,,,,,,,,,,,,,,,,,,,,,,,,,,,,,,,,,,,,,,,,,,,,,,,,,,,,,,,,,,,,,,,,,,,,,,,,,,,,,,,,,,,,,,,,,,,,,,,,,,,,,,,,,,,,,,,,,,,,,,,,,,,,,,,,
,,,,,,60e46765548980c44f6a1edc,62bbfb71aebb35cef2c288f1,2022-06-29_09h19.47.147,Colour_Asymmetry_Pilot,2022.1.3,Win32,59.58410296,62bbe60bf3d75ef465d3e404,0,59,59,136,1,onetwo,,,,,,,,,,,,,,,,,,,,,,,,,,,,,,,,,,,,,,,,,,,,,,,,,,,,,,,,,,,,,,,,,,,,,,,,,,,,,,,,,,,,,,,,,,,,,,,,,,,,,,,,,,,,,,,,,,,,,,,,,,,,,,,,,,,,,,,,,,,,,,,,,,,,,,,,
,,,,,,60e46765548980c44f6a1edc,62bbfb71aebb35cef2c288f1,2022-06-29_09h19.47.147,Colour_Asymmetry_Pilot,2022.1.3,Win32,59.58410296,62bbe60bf3d75ef465d3e404,0,60,60,18,1,twoone,,,,,,,,,,,,,,,,,,,,,,,,,,,,,,,,,,,,,,,,,,,,,,,,,,,,,,,,,,,,,,,,,,,,,,,,,,,,,,,,,,,,,,,,,,,,,,,,,,,,,,,,,,,,,,,,,,,,,,,,,,,,,,,,,,,,,,,,,,,,,,,,,,,,,,,,
,,,,,,60e46765548980c44f6a1edc,62bbfb71aebb35cef2c288f1,2022-06-29_09h19.47.147,Colour_Asymmetry_Pilot,2022.1.3,Win32,59.58410296,62bbe60bf3d75ef465d3e404,0,61,61,100,1,threeone,,,,,,,,,,,,,,,,,,,,,,,,,,,,,,,,,,,,,,,,,,,,,,,,,,,,,,,,,,,,,,,,,,,,,,,,,,,,,,,,,,,,,,,,,,,,,,,,,,,,,,,,,,,,,,,,,,,,,,,,,,,,,,,,,,,,,,,,,,,,,,,,,,,,,,,,
,,,,,,60e46765548980c44f6a1edc,62bbfb71aebb35cef2c288f1,2022-06-29_09h19.47.147,Colour_Asymmetry_Pilot,2022.1.3,Win32,59.58410296,62bbe60bf3d75ef465d3e404,0,62,62,63,1,fourthree,,,,,,,,,,,,,,,,,,,,,,,,,,,,,,,,,,,,,,,,,,,,,,,,,,,,,,,,,,,,,,,,,,,,,,,,,,,,,,,,,,,,,,,,,,,,,,,,,,,,,,,,,,,,,,,,,,,,,,,,,,,,,,,,,,,,,,,,,,,,,,,,,,,,,,,,
,,,,,,60e46765548980c44f6a1edc,62bbfb71aebb35cef2c288f1,2022-06-29_09h19.47.147,Colour_Asymmetry_Pilot,2022.1.3,Win32,59.58410296,62bbe60bf3d75ef465d3e404,0,63,63,45,1,threefour,,,,,,,,,,,,,,,,,,,,,,,,,,,,,,,,,,,,,,,,,,,,,,,,,,,,,,,,,,,,,,,,,,,,,,,,,,,,,,,,,,,,,,,,,,,,,,,,,,,,,,,,,,,,,,,,,,,,,,,,,,,,,,,,,,,,,,,,,,,,,,,,,,,,,,,,
,,,,,,60e46765548980c44f6a1edc,62bbfb71aebb35cef2c288f1,2022-06-29_09h19.47.147,Colour_Asymmetry_Pilot,2022.1.3,Win32,59.58410296,62bbe60bf3d75ef465d3e404,0,64,64,43,1,twofour,,,,,,,,,,,,,,,,,,,,,,,,,,,,,,,,,,,,,,,,,,,,,,,,,,,,,,,,,,,,,,,,,,,,,,,,,,,,,,,,,,,,,,,,,,,,,,,,,,,,,,,,,,,,,,,,,,,,,,,,,,,,,,,,,,,,,,,,,,,,,,,,,,,,,,,,
,,,,,,60e46765548980c44f6a1edc,62bbfb71aebb35cef2c288f1,2022-06-29_09h19.47.147,Colour_Asymmetry_Pilot,2022.1.3,Win32,59.58410296,62bbe60bf3d75ef465d3e404,0,65,65,107,1,twofour,,,,,,,,,,,,,,,,,,,,,,,,,,,,,,,,,,,,,,,,,,,,,,,,,,,,,,,,,,,,,,,,,,,,,,,,,,,,,,,,,,,,,,,,,,,,,,,,,,,,,,,,,,,,,,,,,,,,,,,,,,,,,,,,,,,,,,,,,,,,,,,,,,,,,,,,
,,,,,,60e46765548980c44f6a1edc,62bbfb71aebb35cef2c288f1,2022-06-29_09h19.47.147,Colour_Asymmetry_Pilot,2022.1.3,Win32,59.58410296,62bbe60bf3d75ef465d3e404,0,66,66,34,1,twoone,,,,,,,,,,,,,,,,,,,,,,,,,,,,,,,,,,,,,,,,,,,,,,,,,,,,,,,,,,,,,,,,,,,,,,,,,,,,,,,,,,,,,,,,,,,,,,,,,,,,,,,,,,,,,,,,,,,,,,,,,,,,,,,,,,,,,,,,,,,,,,,,,,,,,,,,
,,,,,,60e46765548980c44f6a1edc,62bbfb71aebb35cef2c288f1,2022-06-29_09h19.47.147,Colour_Asymmetry_Pilot,2022.1.3,Win32,59.58410296,62bbe60bf3d75ef465d3e404,0,67,67,70,1,fourtwo,,,,,,,,,,,,,,,,,,,,,,,,,,,,,,,,,,,,,,,,,,,,,,,,,,,,,,,,,,,,,,,,,,,,,,,,,,,,,,,,,,,,,,,,,,,,,,,,,,,,,,,,,,,,,,,,,,,,,,,,,,,,,,,,,,,,,,,,,,,,,,,,,,,,,,,,
,,,,,,60e46765548980c44f6a1edc,62bbfb71aebb35cef2c288f1,2022-06-29_09h19.47.147,Colour_Asymmetry_Pilot,2022.1.3,Win32,59.58410296,62bbe60bf3d75ef465d3e404,0,68,68,1,1,onethree,,,,,,,,,,,,,,,,,,,,,,,,,,,,,,,,,,,,,,,,,,,,,,,,,,,,,,,,,,,,,,,,,,,,,,,,,,,,,,,,,,,,,,,,,,,,,,,,,,,,,,,,,,,,,,,,,,,,,,,,,,,,,,,,,,,,,,,,,,,,,,,,,,,,,,,,
,,,,,,60e46765548980c44f6a1edc,62bbfb71aebb35cef2c288f1,2022-06-29_09h19.47.147,Colour_Asymmetry_Pilot,2022.1.3,Win32,59.58410296,62bbe60bf3d75ef465d3e404,0,69,69,156,1,threeone,,,,,,,,,,,,,,,,,,,,,,,,,,,,,,,,,,,,,,,,,,,,,,,,,,,,,,,,,,,,,,,,,,,,,,,,,,,,,,,,,,,,,,,,,,,,,,,,,,,,,,,,,,,,,,,,,,,,,,,,,,,,,,,,,,,,,,,,,,,,,,,,,,,,,,,,
,,,,,,60e46765548980c44f6a1edc,62bbfb71aebb35cef2c288f1,2022-06-29_09h19.47.147,Colour_Asymmetry_Pilot,2022.1.3,Win32,59.58410296,62bbe60bf3d75ef465d3e404,0,70,70,147,1,twofour,,,,,,,,,,,,,,,,,,,,,,,,,,,,,,,,,,,,,,,,,,,,,,,,,,,,,,,,,,,,,,,,,,,,,,,,,,,,,,,,,,,,,,,,,,,,,,,,,,,,,,,,,,,,,,,,,,,,,,,,,,,,,,,,,,,,,,,,,,,,,,,,,,,,,,,,
,,,,,,60e46765548980c44f6a1edc,62bbfb71aebb35cef2c288f1,2022-06-29_09h19.47.147,Colour_Asymmetry_Pilot,2022.1.3,Win32,59.58410296,62bbe60bf3d75ef465d3e404,0,71,71,54,1,fourtwo,,,,,,,,,,,,,,,,,,,,,,,,,,,,,,,,,,,,,,,,,,,,,,,,,,,,,,,,,,,,,,,,,,,,,,,,,,,,,,,,,,,,,,,,,,,,,,,,,,,,,,,,,,,,,,,,,,,,,,,,,,,,,,,,,,,,,,,,,,,,,,,,,,,,,,,,
,,,,,,60e46765548980c44f6a1edc,62bbfb71aebb35cef2c288f1,2022-06-29_09h19.47.147,Colour_Asymmetry_Pilot,2022.1.3,Win32,59.58410296,62bbe60bf3d75ef465d3e404,0,72,72,96,1,onetwo,,,,,,,,,,,,,,,,,,,,,,,,,,,,,,,,,,,,,,,,,,,,,,,,,,,,,,,,,,,,,,,,,,,,,,,,,,,,,,,,,,,,,,,,,,,,,,,,,,,,,,,,,,,,,,,,,,,,,,,,,,,,,,,,,,,,,,,,,,,,,,,,,,,,,,,,
,,,,,,60e46765548980c44f6a1edc,62bbfb71aebb35cef2c288f1,2022-06-29_09h19.47.147,Colour_Asymmetry_Pilot,2022.1.3,Win32,59.58410296,62bbe60bf3d75ef465d3e404,0,73,73,91,1,twofour,,,,,,,,,,,,,,,,,,,,,,,,,,,,,,,,,,,,,,,,,,,,,,,,,,,,,,,,,,,,,,,,,,,,,,,,,,,,,,,,,,,,,,,,,,,,,,,,,,,,,,,,,,,,,,,,,,,,,,,,,,,,,,,,,,,,,,,,,,,,,,,,,,,,,,,,
,,,,,,60e46765548980c44f6a1edc,62bbfb71aebb35cef2c288f1,2022-06-29_09h19.47.147,Colour_Asymmetry_Pilot,2022.1.3,Win32,59.58410296,62bbe60bf3d75ef465d3e404,0,74,74,99,1,twofour,,,,,,,,,,,,,,,,,,,,,,,,,,,,,,,,,,,,,,,,,,,,,,,,,,,,,,,,,,,,,,,,,,,,,,,,,,,,,,,,,,,,,,,,,,,,,,,,,,,,,,,,,,,,,,,,,,,,,,,,,,,,,,,,,,,,,,,,,,,,,,,,,,,,,,,,
,,,,,,60e46765548980c44f6a1edc,62bbfb71aebb35cef2c288f1,2022-06-29_09h19.47.147,Colour_Asymmetry_Pilot,2022.1.3,Win32,59.58410296,62bbe60bf3d75ef465d3e404,0,75,75,148,1,threeone,,,,,,,,,,,,,,,,,,,,,,,,,,,,,,,,,,,,,,,,,,,,,,,,,,,,,,,,,,,,,,,,,,,,,,,,,,,,,,,,,,,,,,,,,,,,,,,,,,,,,,,,,,,,,,,,,,,,,,,,,,,,,,,,,,,,,,,,,,,,,,,,,,,,,,,,
,,,,,,60e46765548980c44f6a1edc,62bbfb71aebb35cef2c288f1,2022-06-29_09h19.47.147,Colour_Asymmetry_Pilot,2022.1.3,Win32,59.58410296,62bbe60bf3d75ef465d3e404,0,76,76,93,1,threefour,,,,,,,,,,,,,,,,,,,,,,,,,,,,,,,,,,,,,,,,,,,,,,,,,,,,,,,,,,,,,,,,,,,,,,,,,,,,,,,,,,,,,,,,,,,,,,,,,,,,,,,,,,,,,,,,,,,,,,,,,,,,,,,,,,,,,,,,,,,,,,,,,,,,,,,,
,,,,,,60e46765548980c44f6a1edc,62bbfb71aebb35cef2c288f1,2022-06-29_09h19.47.147,Colour_Asymmetry_Pilot,2022.1.3,Win32,59.58410296,62bbe60bf3d75ef465d3e404,0,77,77,160,1,onetwo,,,,,,,,,,,,,,,,,,,,,,,,,,,,,,,,,,,,,,,,,,,,,,,,,,,,,,,,,,,,,,,,,,,,,,,,,,,,,,,,,,,,,,,,,,,,,,,,,,,,,,,,,,,,,,,,,,,,,,,,,,,,,,,,,,,,,,,,,,,,,,,,,,,,,,,,
,,,,,,60e46765548980c44f6a1edc,62bbfb71aebb35cef2c288f1,2022-06-29_09h19.47.147,Colour_Asymmetry_Pilot,2022.1.3,Win32,59.58410296,62bbe60bf3d75ef465d3e404,0,78,78,75,1,twofour,,,,,,,,,,,,,,,,,,,,,,,,,,,,,,,,,,,,,,,,,,,,,,,,,,,,,,,,,,,,,,,,,,,,,,,,,,,,,,,,,,,,,,,,,,,,,,,,,,,,,,,,,,,,,,,,,,,,,,,,,,,,,,,,,,,,,,,,,,,,,,,,,,,,,,,,
,,,,,,60e46765548980c44f6a1edc,62bbfb71aebb35cef2c288f1,2022-06-29_09h19.47.147,Colour_Asymmetry_Pilot,2022.1.3,Win32,59.58410296,62bbe60bf3d75ef465d3e404,0,79,79,139,1,twofour,,,,,,,,,,,,,,,,,,,,,,,,,,,,,,,,,,,,,,,,,,,,,,,,,,,,,,,,,,,,,,,,,,,,,,,,,,,,,,,,,,,,,,,,,,,,,,,,,,,,,,,,,,,,,,,,,,,,,,,,,,,,,,,,,,,,,,,,,,,,,,,,,,,,,,,,
,,,,,,60e46765548980c44f6a1edc,62bbfb71aebb35cef2c288f1,2022-06-29_09h19.47.147,Colour_Asymmetry_Pilot,2022.1.3,Win32,59.58410296,62bbe60bf3d75ef465d3e404,0,80,80,102,1,fourtwo,,,,,,,,,,,,,,,,,,,,,,,,,,,,,,,,,,,,,,,,,,,,,,,,,,,,,,,,,,,,,,,,,,,,,,,,,,,,,,,,,,,,,,,,,,,,,,,,,,,,,,,,,,,,,,,,,,,,,,,,,,,,,,,,,,,,,,,,,,,,,,,,,,,,,,,,
,,,,,,60e46765548980c44f6a1edc,62bbfb71aebb35cef2c288f1,2022-06-29_09h19.47.147,Colour_Asymmetry_Pilot,2022.1.3,Win32,59.58410296,62bbe60bf3d75ef465d3e404,0,81,81,35,1,twofour,,,,,,,,,,,,,,,,,,,,,,,,,,,,,,,,,,,,,,,,,,,,,,,,,,,,,,,,,,,,,,,,,,,,,,,,,,,,,,,,,,,,,,,,,,,,,,,,,,,,,,,,,,,,,,,,,,,,,,,,,,,,,,,,,,,,,,,,,,,,,,,,,,,,,,,,
,,,,,,60e46765548980c44f6a1edc,62bbfb71aebb35cef2c288f1,2022-06-29_09h19.47.147,Colour_Asymmetry_Pilot,2022.1.3,Win32,59.58410296,62bbe60bf3d75ef465d3e404,0,82,82,16,1,onetwo,,,,,,,,,,,,,,,,,,,,,,,,,,,,,,,,,,,,,,,,,,,,,,,,,,,,,,,,,,,,,,,,,,,,,,,,,,,,,,,,,,,,,,,,,,,,,,,,,,,,,,,,,,,,,,,,,,,,,,,,,,,,,,,,,,,,,,,,,,,,,,,,,,,,,,,,
,,,,,,60e46765548980c44f6a1edc,62bbfb71aebb35cef2c288f1,2022-06-29_09h19.47.147,Colour_Asymmetry_Pilot,2022.1.3,Win32,59.58410296,62bbe60bf3d75ef465d3e404,0,83,83,143,1,fourthree,,,,,,,,,,,,,,,,,,,,,,,,,,,,,,,,,,,,,,,,,,,,,,,,,,,,,,,,,,,,,,,,,,,,,,,,,,,,,,,,,,,,,,,,,,,,,,,,,,,,,,,,,,,,,,,,,,,,,,,,,,,,,,,,,,,,,,,,,,,,,,,,,,,,,,,,
,,,,,,60e46765548980c44f6a1edc,62bbfb71aebb35cef2c288f1,2022-06-29_09h19.47.147,Colour_Asymmetry_Pilot,2022.1.3,Win32,59.58410296,62bbe60bf3d75ef465d3e404,0,84,84,134,1,fourtwo,,,,,,,,,,,,,,,,,,,,,,,,,,,,,,,,,,,,,,,,,,,,,,,,,,,,,,,,,,,,,,,,,,,,,,,,,,,,,,,,,,,,,,,,,,,,,,,,,,,,,,,,,,,,,,,,,,,,,,,,,,,,,,,,,,,,,,,,,,,,,,,,,,,,,,,,
,,,,,,60e46765548980c44f6a1edc,62bbfb71aebb35cef2c288f1,2022-06-29_09h19.47.147,Colour_Asymmetry_Pilot,2022.1.3,Win32,59.58410296,62bbe60bf3d75ef465d3e404,0,85,85,61,1,threefour,,,,,,,,,,,,,,,,,,,,,,,,,,,,,,,,,,,,,,,,,,,,,,,,,,,,,,,,,,,,,,,,,,,,,,,,,,,,,,,,,,,,,,,,,,,,,,,,,,,,,,,,,,,,,,,,,,,,,,,,,,,,,,,,,,,,,,,,,,,,,,,,,,,,,,,,
,,,,,,60e46765548980c44f6a1edc,62bbfb71aebb35cef2c288f1,2022-06-29_09h19.47.147,Colour_Asymmetry_Pilot,2022.1.3,Win32,59.58410296,62bbe60bf3d75ef465d3e404,0,86,86,49,1,onethree,,,,,,,,,,,,,,,,,,,,,,,,,,,,,,,,,,,,,,,,,,,,,,,,,,,,,,,,,,,,,,,,,,,,,,,,,,,,,,,,,,,,,,,,,,,,,,,,,,,,,,,,,,,,,,,,,,,,,,,,,,,,,,,,,,,,,,,,,,,,,,,,,,,,,,,,
,,,,,,60e46765548980c44f6a1edc,62bbfb71aebb35cef2c288f1,2022-06-29_09h19.47.147,Colour_Asymmetry_Pilot,2022.1.3,Win32,59.58410296,62bbe60bf3d75ef465d3e404,0,87,87,126,1,fourtwo,,,,,,,,,,,,,,,,,,,,,,,,,,,,,,,,,,,,,,,,,,,,,,,,,,,,,,,,,,,,,,,,,,,,,,,,,,,,,,,,,,,,,,,,,,,,,,,,,,,,,,,,,,,,,,,,,,,,,,,,,,,,,,,,,,,,,,,,,,,,,,,,,,,,,,,,
,,,,,,60e46765548980c44f6a1edc,62bbfb71aebb35cef2c288f1,2022-06-29_09h19.47.147,Colour_Asymmetry_Pilot,2022.1.3,Win32,59.58410296,62bbe60bf3d75ef465d3e404,0,88,88,58,1,twoone,,,,,,,,,,,,,,,,,,,,,,,,,,,,,,,,,,,,,,,,,,,,,,,,,,,,,,,,,,,,,,,,,,,,,,,,,,,,,,,,,,,,,,,,,,,,,,,,,,,,,,,,,,,,,,,,,,,,,,,,,,,,,,,,,,,,,,,,,,,,,,,,,,,,,,,,
,,,,,,60e46765548980c44f6a1edc,62bbfb71aebb35cef2c288f1,2022-06-29_09h19.47.147,Colour_Asymmetry_Pilot,2022.1.3,Win32,59.58410296,62bbe60bf3d75ef465d3e404,0,89,89,157,1,threefour,,,,,,,,,,,,,,,,,,,,,,,,,,,,,,,,,,,,,,,,,,,,,,,,,,,,,,,,,,,,,,,,,,,,,,,,,,,,,,,,,,,,,,,,,,,,,,,,,,,,,,,,,,,,,,,,,,,,,,,,,,,,,,,,,,,,,,,,,,,,,,,,,,,,,,,,
,,,,,,60e46765548980c44f6a1edc,62bbfb71aebb35cef2c288f1,2022-06-29_09h19.47.147,Colour_Asymmetry_Pilot,2022.1.3,Win32,59.58410296,62bbe60bf3d75ef465d3e404,0,90,90,37,1,threefour,,,,,,,,,,,,,,,,,,,,,,,,,,,,,,,,,,,,,,,,,,,,,,,,,,,,,,,,,,,,,,,,,,,,,,,,,,,,,,,,,,,,,,,,,,,,,,,,,,,,,,,,,,,,,,,,,,,,,,,,,,,,,,,,,,,,,,,,,,,,,,,,,,,,,,,,
,,,,,,60e46765548980c44f6a1edc,62bbfb71aebb35cef2c288f1,2022-06-29_09h19.47.147,Colour_Asymmetry_Pilot,2022.1.3,Win32,59.58410296,62bbe60bf3d75ef465d3e404,0,91,91,4,1,threeone,,,,,,,,,,,,,,,,,,,,,,,,,,,,,,,,,,,,,,,,,,,,,,,,,,,,,,,,,,,,,,,,,,,,,,,,,,,,,,,,,,,,,,,,,,,,,,,,,,,,,,,,,,,,,,,,,,,,,,,,,,,,,,,,,,,,,,,,,,,,,,,,,,,,,,,,
,,,,,,60e46765548980c44f6a1edc,62bbfb71aebb35cef2c288f1,2022-06-29_09h19.47.147,Colour_Asymmetry_Pilot,2022.1.3,Win32,59.58410296,62bbe60bf3d75ef465d3e404,0,92,92,84,1,threeone,,,,,,,,,,,,,,,,,,,,,,,,,,,,,,,,,,,,,,,,,,,,,,,,,,,,,,,,,,,,,,,,,,,,,,,,,,,,,,,,,,,,,,,,,,,,,,,,,,,,,,,,,,,,,,,,,,,,,,,,,,,,,,,,,,,,,,,,,,,,,,,,,,,,,,,,
,,,,,,60e46765548980c44f6a1edc,62bbfb71aebb35cef2c288f1,2022-06-29_09h19.47.147,Colour_Asymmetry_Pilot,2022.1.3,Win32,59.58410296,62bbe60bf3d75ef465d3e404,0,93,93,114,1,twoone,,,,,,,,,,,,,,,,,,,,,,,,,,,,,,,,,,,,,,,,,,,,,,,,,,,,,,,,,,,,,,,,,,,,,,,,,,,,,,,,,,,,,,,,,,,,,,,,,,,,,,,,,,,,,,,,,,,,,,,,,,,,,,,,,,,,,,,,,,,,,,,,,,,,,,,,
,,,,,,60e46765548980c44f6a1edc,62bbfb71aebb35cef2c288f1,2022-06-29_09h19.47.147,Colour_Asymmetry_Pilot,2022.1.3,Win32,59.58410296,62bbe60bf3d75ef465d3e404,0,94,94,72,1,onetwo,,,,,,,,,,,,,,,,,,,,,,,,,,,,,,,,,,,,,,,,,,,,,,,,,,,,,,,,,,,,,,,,,,,,,,,,,,,,,,,,,,,,,,,,,,,,,,,,,,,,,,,,,,,,,,,,,,,,,,,,,,,,,,,,,,,,,,,,,,,,,,,,,,,,,,,,
,,,,,,60e46765548980c44f6a1edc,62bbfb71aebb35cef2c288f1,2022-06-29_09h19.47.147,Colour_Asymmetry_Pilot,2022.1.3,Win32,59.58410296,62bbe60bf3d75ef465d3e404,0,95,95,141,1,threefour,,,,,,,,,,,,,,,,,,,,,,,,,,,,,,,,,,,,,,,,,,,,,,,,,,,,,,,,,,,,,,,,,,,,,,,,,,,,,,,,,,,,,,,,,,,,,,,,,,,,,,,,,,,,,,,,,,,,,,,,,,,,,,,,,,,,,,,,,,,,,,,,,,,,,,,,
,,,,,,60e46765548980c44f6a1edc,62bbfb71aebb35cef2c288f1,2022-06-29_09h19.47.147,Colour_Asymmetry_Pilot,2022.1.3,Win32,59.58410296,62bbe60bf3d75ef465d3e404,0,96,96,11,1,twofour,,,,,,,,,,,,,,,,,,,,,,,,,,,,,,,,,,,,,,,,,,,,,,,,,,,,,,,,,,,,,,,,,,,,,,,,,,,,,,,,,,,,,,,,,,,,,,,,,,,,,,,,,,,,,,,,,,,,,,,,,,,,,,,,,,,,,,,,,,,,,,,,,,,,,,,,
,,,,,,60e46765548980c44f6a1edc,62bbfb71aebb35cef2c288f1,2022-06-29_09h19.47.147,Colour_Asymmetry_Pilot,2022.1.3,Win32,59.58410296,62bbe60bf3d75ef465d3e404,0,97,97,120,1,onetwo,,,,,,,,,,,,,,,,,,,,,,,,,,,,,,,,,,,,,,,,,,,,,,,,,,,,,,,,,,,,,,,,,,,,,,,,,,,,,,,,,,,,,,,,,,,,,,,,,,,,,,,,,,,,,,,,,,,,,,,,,,,,,,,,,,,,,,,,,,,,,,,,,,,,,,,,
,,,,,,60e46765548980c44f6a1edc,62bbfb71aebb35cef2c288f1,2022-06-29_09h19.47.147,Colour_Asymmetry_Pilot,2022.1.3,Win32,59.58410296,62bbe60bf3d75ef465d3e404,0,98,98,46,1,fourtwo,,,,,,,,,,,,,,,,,,,,,,,,,,,,,,,,,,,,,,,,,,,,,,,,,,,,,,,,,,,,,,,,,,,,,,,,,,,,,,,,,,,,,,,,,,,,,,,,,,,,,,,,,,,,,,,,,,,,,,,,,,,,,,,,,,,,,,,,,,,,,,,,,,,,,,,,
,,,,,,60e46765548980c44f6a1edc,62bbfb71aebb35cef2c288f1,2022-06-29_09h19.47.147,Colour_Asymmetry_Pilot,2022.1.3,Win32,59.58410296,62bbe60bf3d75ef465d3e404,0,99,99,78,1,fourtwo,,,,,,,,,,,,,,,,,,,,,,,,,,,,,,,,,,,,,,,,,,,,,,,,,,,,,,,,,,,,,,,,,,,,,,,,,,,,,,,,,,,,,,,,,,,,,,,,,,,,,,,,,,,,,,,,,,,,,,,,,,,,,,,,,,,,,,,,,,,,,,,,,,,,,,,,
,,,,,,60e46765548980c44f6a1edc,62bbfb71aebb35cef2c288f1,2022-06-29_09h19.47.147,Colour_Asymmetry_Pilot,2022.1.3,Win32,59.58410296,62bbe60bf3d75ef465d3e404,0,100,100,103,1,fourthree,,,,,,,,,,,,,,,,,,,,,,,,,,,,,,,,,,,,,,,,,,,,,,,,,,,,,,,,,,,,,,,,,,,,,,,,,,,,,,,,,,,,,,,,,,,,,,,,,,,,,,,,,,,,,,,,,,,,,,,,,,,,,,,,,,,,,,,,,,,,,,,,,,,,,,,,
,,,,,,60e46765548980c44f6a1edc,62bbfb71aebb35cef2c288f1,2022-06-29_09h19.47.147,Colour_Asymmetry_Pilot,2022.1.3,Win32,59.58410296,62bbe60bf3d75ef465d3e404,0,101,101,14,1,fourtwo,,,,,,,,,,,,,,,,,,,,,,,,,,,,,,,,,,,,,,,,,,,,,,,,,,,,,,,,,,,,,,,,,,,,,,,,,,,,,,,,,,,,,,,,,,,,,,,,,,,,,,,,,,,,,,,,,,,,,,,,,,,,,,,,,,,,,,,,,,,,,,,,,,,,,,,,
,,,,,,60e46765548980c44f6a1edc,62bbfb71aebb35cef2c288f1,2022-06-29_09h19.47.147,Colour_Asymmetry_Pilot,2022.1.3,Win32,59.58410296,62bbe60bf3d75ef465d3e404,0,102,102,38,1,fourtwo,,,,,,,,,,,,,,,,,,,,,,,,,,,,,,,,,,,,,,,,,,,,,,,,,,,,,,,,,,,,,,,,,,,,,,,,,,,,,,,,,,,,,,,,,,,,,,,,,,,,,,,,,,,,,,,,,,,,,,,,,,,,,,,,,,,,,,,,,,,,,,,,,,,,,,,,
,,,,,,60e46765548980c44f6a1edc,62bbfb71aebb35cef2c288f1,2022-06-29_09h19.47.147,Colour_Asymmetry_Pilot,2022.1.3,Win32,59.58410296,62bbe60bf3d75ef465d3e404,0,103,103,115,1,twofour,,,,,,,,,,,,,,,,,,,,,,,,,,,,,,,,,,,,,,,,,,,,,,,,,,,,,,,,,,,,,,,,,,,,,,,,,,,,,,,,,,,,,,,,,,,,,,,,,,,,,,,,,,,,,,,,,,,,,,,,,,,,,,,,,,,,,,,,,,,,,,,,,,,,,,,,
,,,,,,60e46765548980c44f6a1edc,62bbfb71aebb35cef2c288f1,2022-06-29_09h19.47.147,Colour_Asymmetry_Pilot,2022.1.3,Win32,59.58410296,62bbe60bf3d75ef465d3e404,0,104,104,13,1,threefour,,,,,,,,,,,,,,,,,,,,,,,,,,,,,,,,,,,,,,,,,,,,,,,,,,,,,,,,,,,,,,,,,,,,,,,,,,,,,,,,,,,,,,,,,,,,,,,,,,,,,,,,,,,,,,,,,,,,,,,,,,,,,,,,,,,,,,,,,,,,,,,,,,,,,,,,
,,,,,,60e46765548980c44f6a1edc,62bbfb71aebb35cef2c288f1,2022-06-29_09h19.47.147,Colour_Asymmetry_Pilot,2022.1.3,Win32,59.58410296,62bbe60bf3d75ef465d3e404,0,105,105,153,1,onethree,,,,,,,,,,,,,,,,,,,,,,,,,,,,,,,,,,,,,,,,,,,,,,,,,,,,,,,,,,,,,,,,,,,,,,,,,,,,,,,,,,,,,,,,,,,,,,,,,,,,,,,,,,,,,,,,,,,,,,,,,,,,,,,,,,,,,,,,,,,,,,,,,,,,,,,,
,,,,,,60e46765548980c44f6a1edc,62bbfb71aebb35cef2c288f1,2022-06-29_09h19.47.147,Colour_Asymmetry_Pilot,2022.1.3,Win32,59.58410296,62bbe60bf3d75ef465d3e404,0,106,106,97,1,onethree,,,,,,,,,,,,,,,,,,,,,,,,,,,,,,,,,,,,,,,,,,,,,,,,,,,,,,,,,,,,,,,,,,,,,,,,,,,,,,,,,,,,,,,,,,,,,,,,,,,,,,,,,,,,,,,,,,,,,,,,,,,,,,,,,,,,,,,,,,,,,,,,,,,,,,,,
,,,,,,60e46765548980c44f6a1edc,62bbfb71aebb35cef2c288f1,2022-06-29_09h19.47.147,Colour_Asymmetry_Pilot,2022.1.3,Win32,59.58410296,62bbe60bf3d75ef465d3e404,0,107,107,41,1,onethree,,,,,,,,,,,,,,,,,,,,,,,,,,,,,,,,,,,,,,,,,,,,,,,,,,,,,,,,,,,,,,,,,,,,,,,,,,,,,,,,,,,,,,,,,,,,,,,,,,,,,,,,,,,,,,,,,,,,,,,,,,,,,,,,,,,,,,,,,,,,,,,,,,,,,,,,
,,,,,,60e46765548980c44f6a1edc,62bbfb71aebb35cef2c288f1,2022-06-29_09h19.47.147,Colour_Asymmetry_Pilot,2022.1.3,Win32,59.58410296,62bbe60bf3d75ef465d3e404,0,108,108,2,1,twoone,,,,,,,,,,,,,,,,,,,,,,,,,,,,,,,,,,,,,,,,,,,,,,,,,,,,,,,,,,,,,,,,,,,,,,,,,,,,,,,,,,,,,,,,,,,,,,,,,,,,,,,,,,,,,,,,,,,,,,,,,,,,,,,,,,,,,,,,,,,,,,,,,,,,,,,,
,,,,,,60e46765548980c44f6a1edc,62bbfb71aebb35cef2c288f1,2022-06-29_09h19.47.147,Colour_Asymmetry_Pilot,2022.1.3,Win32,59.58410296,62bbe60bf3d75ef465d3e404,0,109,109,62,1,fourtwo,,,,,,,,,,,,,,,,,,,,,,,,,,,,,,,,,,,,,,,,,,,,,,,,,,,,,,,,,,,,,,,,,,,,,,,,,,,,,,,,,,,,,,,,,,,,,,,,,,,,,,,,,,,,,,,,,,,,,,,,,,,,,,,,,,,,,,,,,,,,,,,,,,,,,,,,
,,,,,,60e46765548980c44f6a1edc,62bbfb71aebb35cef2c288f1,2022-06-29_09h19.47.147,Colour_Asymmetry_Pilot,2022.1.3,Win32,59.58410296,62bbe60bf3d75ef465d3e404,0,110,110,52,1,threeone,,,,,,,,,,,,,,,,,,,,,,,,,,,,,,,,,,,,,,,,,,,,,,,,,,,,,,,,,,,,,,,,,,,,,,,,,,,,,,,,,,,,,,,,,,,,,,,,,,,,,,,,,,,,,,,,,,,,,,,,,,,,,,,,,,,,,,,,,,,,,,,,,,,,,,,,
,,,,,,60e46765548980c44f6a1edc,62bbfb71aebb35cef2c288f1,2022-06-29_09h19.47.147,Colour_Asymmetry_Pilot,2022.1.3,Win32,59.58410296,62bbe60bf3d75ef465d3e404,0,111,111,21,1,threefour,,,,,,,,,,,,,,,,,,,,,,,,,,,,,,,,,,,,,,,,,,,,,,,,,,,,,,,,,,,,,,,,,,,,,,,,,,,,,,,,,,,,,,,,,,,,,,,,,,,,,,,,,,,,,,,,,,,,,,,,,,,,,,,,,,,,,,,,,,,,,,,,,,,,,,,,
,,,,,,60e46765548980c44f6a1edc,62bbfb71aebb35cef2c288f1,2022-06-29_09h19.47.147,Colour_Asymmetry_Pilot,2022.1.3,Win32,59.58410296,62bbe60bf3d75ef465d3e404,0,112,112,80,1,onetwo,,,,,,,,,,,,,,,,,,,,,,,,,,,,,,,,,,,,,,,,,,,,,,,,,,,,,,,,,,,,,,,,,,,,,,,,,,,,,,,,,,,,,,,,,,,,,,,,,,,,,,,,,,,,,,,,,,,,,,,,,,,,,,,,,,,,,,,,,,,,,,,,,,,,,,,,
,,,,,,60e46765548980c44f6a1edc,62bbfb71aebb35cef2c288f1,2022-06-29_09h19.47.147,Colour_Asymmetry_Pilot,2022.1.3,Win32,59.58410296,62bbe60bf3d75ef465d3e404,0,113,113,118,1,fourtwo,,,,,,,,,,,,,,,,,,,,,,,,,,,,,,,,,,,,,,,,,,,,,,,,,,,,,,,,,,,,,,,,,,,,,,,,,,,,,,,,,,,,,,,,,,,,,,,,,,,,,,,,,,,,,,,,,,,,,,,,,,,,,,,,,,,,,,,,,,,,,,,,,,,,,,,,
,,,,,,60e46765548980c44f6a1edc,62bbfb71aebb35cef2c288f1,2022-06-29_09h19.47.147,Colour_Asymmetry_Pilot,2022.1.3,Win32,59.58410296,62bbe60bf3d75ef465d3e404,0,114,114,48,1,onetwo,,,,,,,,,,,,,,,,,,,,,,,,,,,,,,,,,,,,,,,,,,,,,,,,,,,,,,,,,,,,,,,,,,,,,,,,,,,,,,,,,,,,,,,,,,,,,,,,,,,,,,,,,,,,,,,,,,,,,,,,,,,,,,,,,,,,,,,,,,,,,,,,,,,,,,,,
,,,,,,60e46765548980c44f6a1edc,62bbfb71aebb35cef2c288f1,2022-06-29_09h19.47.147,Colour_Asymmetry_Pilot,2022.1.3,Win32,59.58410296,62bbe60bf3d75ef465d3e404,0,115,115,7,1,fourthree,,,,,,,,,,,,,,,,,,,,,,,,,,,,,,,,,,,,,,,,,,,,,,,,,,,,,,,,,,,,,,,,,,,,,,,,,,,,,,,,,,,,,,,,,,,,,,,,,,,,,,,,,,,,,,,,,,,,,,,,,,,,,,,,,,,,,,,,,,,,,,,,,,,,,,,,
,,,,,,60e46765548980c44f6a1edc,62bbfb71aebb35cef2c288f1,2022-06-29_09h19.47.147,Colour_Asymmetry_Pilot,2022.1.3,Win32,59.58410296,62bbe60bf3d75ef465d3e404,0,116,116,145,1,onethree,,,,,,,,,,,,,,,,,,,,,,,,,,,,,,,,,,,,,,,,,,,,,,,,,,,,,,,,,,,,,,,,,,,,,,,,,,,,,,,,,,,,,,,,,,,,,,,,,,,,,,,,,,,,,,,,,,,,,,,,,,,,,,,,,,,,,,,,,,,,,,,,,,,,,,,,
,,,,,,60e46765548980c44f6a1edc,62bbfb71aebb35cef2c288f1,2022-06-29_09h19.47.147,Colour_Asymmetry_Pilot,2022.1.3,Win32,59.58410296,62bbe60bf3d75ef465d3e404,0,117,117,111,1,fourthree,,,,,,,,,,,,,,,,,,,,,,,,,,,,,,,,,,,,,,,,,,,,,,,,,,,,,,,,,,,,,,,,,,,,,,,,,,,,,,,,,,,,,,,,,,,,,,,,,,,,,,,,,,,,,,,,,,,,,,,,,,,,,,,,,,,,,,,,,,,,,,,,,,,,,,,,
,,,,,,60e46765548980c44f6a1edc,62bbfb71aebb35cef2c288f1,2022-06-29_09h19.47.147,Colour_Asymmetry_Pilot,2022.1.3,Win32,59.58410296,62bbe60bf3d75ef465d3e404,0,118,118,124,1,threeone,,,,,,,,,,,,,,,,,,,,,,,,,,,,,,,,,,,,,,,,,,,,,,,,,,,,,,,,,,,,,,,,,,,,,,,,,,,,,,,,,,,,,,,,,,,,,,,,,,,,,,,,,,,,,,,,,,,,,,,,,,,,,,,,,,,,,,,,,,,,,,,,,,,,,,,,
,,,,,,60e46765548980c44f6a1edc,62bbfb71aebb35cef2c288f1,2022-06-29_09h19.47.147,Colour_Asymmetry_Pilot,2022.1.3,Win32,59.58410296,62bbe60bf3d75ef465d3e404,0,119,119,106,1,twoone,,,,,,,,,,,,,,,,,,,,,,,,,,,,,,,,,,,,,,,,,,,,,,,,,,,,,,,,,,,,,,,,,,,,,,,,,,,,,,,,,,,,,,,,,,,,,,,,,,,,,,,,,,,,,,,,,,,,,,,,,,,,,,,,,,,,,,,,,,,,,,,,,,,,,,,,
,,,,,,60e46765548980c44f6a1edc,62bbfb71aebb35cef2c288f1,2022-06-29_09h19.47.147,Colour_Asymmetry_Pilot,2022.1.3,Win32,59.58410296,62bbe60bf3d75ef465d3e404,0,120,120,36,1,threeone,,,,,,,,,,,,,,,,,,,,,,,,,,,,,,,,,,,,,,,,,,,,,,,,,,,,,,,,,,,,,,,,,,,,,,,,,,,,,,,,,,,,,,,,,,,,,,,,,,,,,,,,,,,,,,,,,,,,,,,,,,,,,,,,,,,,,,,,,,,,,,,,,,,,,,,,
,,,,,,60e46765548980c44f6a1edc,62bbfb71aebb35cef2c288f1,2022-06-29_09h19.47.147,Colour_Asymmetry_Pilot,2022.1.3,Win32,59.58410296,62bbe60bf3d75ef465d3e404,0,121,121,47,1,fourthree,,,,,,,,,,,,,,,,,,,,,,,,,,,,,,,,,,,,,,,,,,,,,,,,,,,,,,,,,,,,,,,,,,,,,,,,,,,,,,,,,,,,,,,,,,,,,,,,,,,,,,,,,,,,,,,,,,,,,,,,,,,,,,,,,,,,,,,,,,,,,,,,,,,,,,,,
,,,,,,60e46765548980c44f6a1edc,62bbfb71aebb35cef2c288f1,2022-06-29_09h19.47.147,Colour_Asymmetry_Pilot,2022.1.3,Win32,59.58410296,62bbe60bf3d75ef465d3e404,0,122,122,152,1,onetwo,,,,,,,,,,,,,,,,,,,,,,,,,,,,,,,,,,,,,,,,,,,,,,,,,,,,,,,,,,,,,,,,,,,,,,,,,,,,,,,,,,,,,,,,,,,,,,,,,,,,,,,,,,,,,,,,,,,,,,,,,,,,,,,,,,,,,,,,,,,,,,,,,,,,,,,,
,,,,,,60e46765548980c44f6a1edc,62bbfb71aebb35cef2c288f1,2022-06-29_09h19.47.147,Colour_Asymmetry_Pilot,2022.1.3,Win32,59.58410296,62bbe60bf3d75ef465d3e404,0,123,123,27,1,twofour,,,,,,,,,,,,,,,,,,,,,,,,,,,,,,,,,,,,,,,,,,,,,,,,,,,,,,,,,,,,,,,,,,,,,,,,,,,,,,,,,,,,,,,,,,,,,,,,,,,,,,,,,,,,,,,,,,,,,,,,,,,,,,,,,,,,,,,,,,,,,,,,,,,,,,,,
,,,,,,60e46765548980c44f6a1edc,62bbfb71aebb35cef2c288f1,2022-06-29_09h19.47.147,Colour_Asymmetry_Pilot,2022.1.3,Win32,59.58410296,62bbe60bf3d75ef465d3e404,0,124,124,22,1,fourtwo,,,,,,,,,,,,,,,,,,,,,,,,,,,,,,,,,,,,,,,,,,,,,,,,,,,,,,,,,,,,,,,,,,,,,,,,,,,,,,,,,,,,,,,,,,,,,,,,,,,,,,,,,,,,,,,,,,,,,,,,,,,,,,,,,,,,,,,,,,,,,,,,,,,,,,,,
,,,,,,60e46765548980c44f6a1edc,62bbfb71aebb35cef2c288f1,2022-06-29_09h19.47.147,Colour_Asymmetry_Pilot,2022.1.3,Win32,59.58410296,62bbe60bf3d75ef465d3e404,0,125,125,87,1,fourthree,,,,,,,,,,,,,,,,,,,,,,,,,,,,,,,,,,,,,,,,,,,,,,,,,,,,,,,,,,,,,,,,,,,,,,,,,,,,,,,,,,,,,,,,,,,,,,,,,,,,,,,,,,,,,,,,,,,,,,,,,,,,,,,,,,,,,,,,,,,,,,,,,,,,,,,,
,,,,,,60e46765548980c44f6a1edc,62bbfb71aebb35cef2c288f1,2022-06-29_09h19.47.147,Colour_Asymmetry_Pilot,2022.1.3,Win32,59.58410296,62bbe60bf3d75ef465d3e404,0,126,126,150,1,fourtwo,,,,,,,,,,,,,,,,,,,,,,,,,,,,,,,,,,,,,,,,,,,,,,,,,,,,,,,,,,,,,,,,,,,,,,,,,,,,,,,,,,,,,,,,,,,,,,,,,,,,,,,,,,,,,,,,,,,,,,,,,,,,,,,,,,,,,,,,,,,,,,,,,,,,,,,,
,,,,,,60e46765548980c44f6a1edc,62bbfb71aebb35cef2c288f1,2022-06-29_09h19.47.147,Colour_Asymmetry_Pilot,2022.1.3,Win32,59.58410296,62bbe60bf3d75ef465d3e404,0,127,127,86,1,fourtwo,,,,,,,,,,,,,,,,,,,,,,,,,,,,,,,,,,,,,,,,,,,,,,,,,,,,,,,,,,,,,,,,,,,,,,,,,,,,,,,,,,,,,,,,,,,,,,,,,,,,,,,,,,,,,,,,,,,,,,,,,,,,,,,,,,,,,,,,,,,,,,,,,,,,,,,,
,,,,,,60e46765548980c44f6a1edc,62bbfb71aebb35cef2c288f1,2022-06-29_09h19.47.147,Colour_Asymmetry_Pilot,2022.1.3,Win32,59.58410296,62bbe60bf3d75ef465d3e404,0,128,128,66,1,twoone,,,,,,,,,,,,,,,,,,,,,,,,,,,,,,,,,,,,,,,,,,,,,,,,,,,,,,,,,,,,,,,,,,,,,,,,,,,,,,,,,,,,,,,,,,,,,,,,,,,,,,,,,,,,,,,,,,,,,,,,,,,,,,,,,,,,,,,,,,,,,,,,,,,,,,,,
,,,,,,60e46765548980c44f6a1edc,62bbfb71aebb35cef2c288f1,2022-06-29_09h19.47.147,Colour_Asymmetry_Pilot,2022.1.3,Win32,59.58410296,62bbe60bf3d75ef465d3e404,0,129,129,17,1,onethree,,,,,,,,,,,,,,,,,,,,,,,,,,,,,,,,,,,,,,,,,,,,,,,,,,,,,,,,,,,,,,,,,,,,,,,,,,,,,,,,,,,,,,,,,,,,,,,,,,,,,,,,,,,,,,,,,,,,,,,,,,,,,,,,,,,,,,,,,,,,,,,,,,,,,,,,
,,,,,,60e46765548980c44f6a1edc,62bbfb71aebb35cef2c288f1,2022-06-29_09h19.47.147,Colour_Asymmetry_Pilot,2022.1.3,Win32,59.58410296,62bbe60bf3d75ef465d3e404,0,130,130,121,1,onethree,,,,,,,,,,,,,,,,,,,,,,,,,,,,,,,,,,,,,,,,,,,,,,,,,,,,,,,,,,,,,,,,,,,,,,,,,,,,,,,,,,,,,,,,,,,,,,,,,,,,,,,,,,,,,,,,,,,,,,,,,,,,,,,,,,,,,,,,,,,,,,,,,,,,,,,,
,,,,,,60e46765548980c44f6a1edc,62bbfb71aebb35cef2c288f1,2022-06-29_09h19.47.147,Colour_Asymmetry_Pilot,2022.1.3,Win32,59.58410296,62bbe60bf3d75ef465d3e404,0,131,131,158,1,fourtwo,,,,,,,,,,,,,,,,,,,,,,,,,,,,,,,,,,,,,,,,,,,,,,,,,,,,,,,,,,,,,,,,,,,,,,,,,,,,,,,,,,,,,,,,,,,,,,,,,,,,,,,,,,,,,,,,,,,,,,,,,,,,,,,,,,,,,,,,,,,,,,,,,,,,,,,,
,,,,,,60e46765548980c44f6a1edc,62bbfb71aebb35cef2c288f1,2022-06-29_09h19.47.147,Colour_Asymmetry_Pilot,2022.1.3,Win32,59.58410296,62bbe60bf3d75ef465d3e404,0,132,132,64,1,onetwo,,,,,,,,,,,,,,,,,,,,,,,,,,,,,,,,,,,,,,,,,,,,,,,,,,,,,,,,,,,,,,,,,,,,,,,,,,,,,,,,,,,,,,,,,,,,,,,,,,,,,,,,,,,,,,,,,,,,,,,,,,,,,,,,,,,,,,,,,,,,,,,,,,,,,,,,
,,,,,,60e46765548980c44f6a1edc,62bbfb71aebb35cef2c288f1,2022-06-29_09h19.47.147,Colour_Asymmetry_Pilot,2022.1.3,Win32,59.58410296,62bbe60bf3d75ef465d3e404,0,133,133,10,1,twoone,,,,,,,,,,,,,,,,,,,,,,,,,,,,,,,,,,,,,,,,,,,,,,,,,,,,,,,,,,,,,,,,,,,,,,,,,,,,,,,,,,,,,,,,,,,,,,,,,,,,,,,,,,,,,,,,,,,,,,,,,,,,,,,,,,,,,,,,,,,,,,,,,,,,,,,,
,,,,,,60e46765548980c44f6a1edc,62bbfb71aebb35cef2c288f1,2022-06-29_09h19.47.147,Colour_Asymmetry_Pilot,2022.1.3,Win32,59.58410296,62bbe60bf3d75ef465d3e404,0,134,134,119,1,fourthree,,,,,,,,,,,,,,,,,,,,,,,,,,,,,,,,,,,,,,,,,,,,,,,,,,,,,,,,,,,,,,,,,,,,,,,,,,,,,,,,,,,,,,,,,,,,,,,,,,,,,,,,,,,,,,,,,,,,,,,,,,,,,,,,,,,,,,,,,,,,,,,,,,,,,,,,
,,,,,,60e46765548980c44f6a1edc,62bbfb71aebb35cef2c288f1,2022-06-29_09h19.47.147,Colour_Asymmetry_Pilot,2022.1.3,Win32,59.58410296,62bbe60bf3d75ef465d3e404,0,135,135,55,1,fourthree,,,,,,,,,,,,,,,,,,,,,,,,,,,,,,,,,,,,,,,,,,,,,,,,,,,,,,,,,,,,,,,,,,,,,,,,,,,,,,,,,,,,,,,,,,,,,,,,,,,,,,,,,,,,,,,,,,,,,,,,,,,,,,,,,,,,,,,,,,,,,,,,,,,,,,,,
,,,,,,60e46765548980c44f6a1edc,62bbfb71aebb35cef2c288f1,2022-06-29_09h19.47.147,Colour_Asymmetry_Pilot,2022.1.3,Win32,59.58410296,62bbe60bf3d75ef465d3e404,0,136,136,112,1,onetwo,,,,,,,,,,,,,,,,,,,,,,,,,,,,,,,,,,,,,,,,,,,,,,,,,,,,,,,,,,,,,,,,,,,,,,,,,,,,,,,,,,,,,,,,,,,,,,,,,,,,,,,,,,,,,,,,,,,,,,,,,,,,,,,,,,,,,,,,,,,,,,,,,,,,,,,,
,,,,,,60e46765548980c44f6a1edc,62bbfb71aebb35cef2c288f1,2022-06-29_09h19.47.147,Colour_Asymmetry_Pilot,2022.1.3,Win32,59.58410296,62bbe60bf3d75ef465d3e404,0,137,137,23,1,fourthree,,,,,,,,,,,,,,,,,,,,,,,,,,,,,,,,,,,,,,,,,,,,,,,,,,,,,,,,,,,,,,,,,,,,,,,,,,,,,,,,,,,,,,,,,,,,,,,,,,,,,,,,,,,,,,,,,,,,,,,,,,,,,,,,,,,,,,,,,,,,,,,,,,,,,,,,
,,,,,,60e46765548980c44f6a1edc,62bbfb71aebb35cef2c288f1,2022-06-29_09h19.47.147,Colour_Asymmetry_Pilot,2022.1.3,Win32,59.58410296,62bbe60bf3d75ef465d3e404,0,138,138,6,1,fourtwo,,,,,,,,,,,,,,,,,,,,,,,,,,,,,,,,,,,,,,,,,,,,,,,,,,,,,,,,,,,,,,,,,,,,,,,,,,,,,,,,,,,,,,,,,,,,,,,,,,,,,,,,,,,,,,,,,,,,,,,,,,,,,,,,,,,,,,,,,,,,,,,,,,,,,,,,
,,,,,,60e46765548980c44f6a1edc,62bbfb71aebb35cef2c288f1,2022-06-29_09h19.47.147,Colour_Asymmetry_Pilot,2022.1.3,Win32,59.58410296,62bbe60bf3d75ef465d3e404,0,139,139,24,1,onetwo,,,,,,,,,,,,,,,,,,,,,,,,,,,,,,,,,,,,,,,,,,,,,,,,,,,,,,,,,,,,,,,,,,,,,,,,,,,,,,,,,,,,,,,,,,,,,,,,,,,,,,,,,,,,,,,,,,,,,,,,,,,,,,,,,,,,,,,,,,,,,,,,,,,,,,,,
,,,,,,60e46765548980c44f6a1edc,62bbfb71aebb35cef2c288f1,2022-06-29_09h19.47.147,Colour_Asymmetry_Pilot,2022.1.3,Win32,59.58410296,62bbe60bf3d75ef465d3e404,0,140,140,154,1,twoone,,,,,,,,,,,,,,,,,,,,,,,,,,,,,,,,,,,,,,,,,,,,,,,,,,,,,,,,,,,,,,,,,,,,,,,,,,,,,,,,,,,,,,,,,,,,,,,,,,,,,,,,,,,,,,,,,,,,,,,,,,,,,,,,,,,,,,,,,,,,,,,,,,,,,,,,
,,,,,,60e46765548980c44f6a1edc,62bbfb71aebb35cef2c288f1,2022-06-29_09h19.47.147,Colour_Asymmetry_Pilot,2022.1.3,Win32,59.58410296,62bbe60bf3d75ef465d3e404,0,141,141,30,1,fourtwo,,,,,,,,,,,,,,,,,,,,,,,,,,,,,,,,,,,,,,,,,,,,,,,,,,,,,,,,,,,,,,,,,,,,,,,,,,,,,,,,,,,,,,,,,,,,,,,,,,,,,,,,,,,,,,,,,,,,,,,,,,,,,,,,,,,,,,,,,,,,,,,,,,,,,,,,
,,,,,,60e46765548980c44f6a1edc,62bbfb71aebb35cef2c288f1,2022-06-29_09h19.47.147,Colour_Asymmetry_Pilot,2022.1.3,Win32,59.58410296,62bbe60bf3d75ef465d3e404,0,142,142,104,1,onetwo,,,,,,,,,,,,,,,,,,,,,,,,,,,,,,,,,,,,,,,,,,,,,,,,,,,,,,,,,,,,,,,,,,,,,,,,,,,,,,,,,,,,,,,,,,,,,,,,,,,,,,,,,,,,,,,,,,,,,,,,,,,,,,,,,,,,,,,,,,,,,,,,,,,,,,,,
,,,,,,60e46765548980c44f6a1edc,62bbfb71aebb35cef2c288f1,2022-06-29_09h19.47.147,Colour_Asymmetry_Pilot,2022.1.3,Win32,59.58410296,62bbe60bf3d75ef465d3e404,0,143,143,85,1,threefour,,,,,,,,,,,,,,,,,,,,,,,,,,,,,,,,,,,,,,,,,,,,,,,,,,,,,,,,,,,,,,,,,,,,,,,,,,,,,,,,,,,,,,,,,,,,,,,,,,,,,,,,,,,,,,,,,,,,,,,,,,,,,,,,,,,,,,,,,,,,,,,,,,,,,,,,
,,,,,,60e46765548980c44f6a1edc,62bbfb71aebb35cef2c288f1,2022-06-29_09h19.47.147,Colour_Asymmetry_Pilot,2022.1.3,Win32,59.58410296,62bbe60bf3d75ef465d3e404,0,144,144,73,1,onethree,,,,,,,,,,,,,,,,,,,,,,,,,,,,,,,,,,,,,,,,,,,,,,,,,,,,,,,,,,,,,,,,,,,,,,,,,,,,,,,,,,,,,,,,,,,,,,,,,,,,,,,,,,,,,,,,,,,,,,,,,,,,,,,,,,,,,,,,,,,,,,,,,,,,,,,,
,,,,,,60e46765548980c44f6a1edc,62bbfb71aebb35cef2c288f1,2022-06-29_09h19.47.147,Colour_Asymmetry_Pilot,2022.1.3,Win32,59.58410296,62bbe60bf3d75ef465d3e404,0,145,145,110,1,fourtwo,,,,,,,,,,,,,,,,,,,,,,,,,,,,,,,,,,,,,,,,,,,,,,,,,,,,,,,,,,,,,,,,,,,,,,,,,,,,,,,,,,,,,,,,,,,,,,,,,,,,,,,,,,,,,,,,,,,,,,,,,,,,,,,,,,,,,,,,,,,,,,,,,,,,,,,,
,,,,,,60e46765548980c44f6a1edc,62bbfb71aebb35cef2c288f1,2022-06-29_09h19.47.147,Colour_Asymmetry_Pilot,2022.1.3,Win32,59.58410296,62bbe60bf3d75ef465d3e404,0,146,146,56,1,onetwo,,,,,,,,,,,,,,,,,,,,,,,,,,,,,,,,,,,,,,,,,,,,,,,,,,,,,,,,,,,,,,,,,,,,,,,,,,,,,,,,,,,,,,,,,,,,,,,,,,,,,,,,,,,,,,,,,,,,,,,,,,,,,,,,,,,,,,,,,,,,,,,,,,,,,,,,
,,,,,,60e46765548980c44f6a1edc,62bbfb71aebb35cef2c288f1,2022-06-29_09h19.47.147,Colour_Asymmetry_Pilot,2022.1.3,Win32,59.58410296,62bbe60bf3d75ef465d3e404,0,147,147,135,1,fourthree,,,,,,,,,,,,,,,,,,,,,,,,,,,,,,,,,,,,,,,,,,,,,,,,,,,,,,,,,,,,,,,,,,,,,,,,,,,,,,,,,,,,,,,,,,,,,,,,,,,,,,,,,,,,,,,,,,,,,,,,,,,,,,,,,,,,,,,,,,,,,,,,,,,,,,,,
,,,,,,60e46765548980c44f6a1edc,62bbfb71aebb35cef2c288f1,2022-06-29_09h19.47.147,Colour_Asymmetry_Pilot,2022.1.3,Win32,59.58410296,62bbe60bf3d75ef465d3e404,0,148,148,131,1,twofour,,,,,,,,,,,,,,,,,,,,,,,,,,,,,,,,,,,,,,,,,,,,,,,,,,,,,,,,,,,,,,,,,,,,,,,,,,,,,,,,,,,,,,,,,,,,,,,,,,,,,,,,,,,,,,,,,,,,,,,,,,,,,,,,,,,,,,,,,,,,,,,,,,,,,,,,
,,,,,,60e46765548980c44f6a1edc,62bbfb71aebb35cef2c288f1,2022-06-29_09h19.47.147,Colour_Asymmetry_Pilot,2022.1.3,Win32,59.58410296,62bbe60bf3d75ef465d3e404,0,149,149,137,1,onethree,,,,,,,,,,,,,,,,,,,,,,,,,,,,,,,,,,,,,,,,,,,,,,,,,,,,,,,,,,,,,,,,,,,,,,,,,,,,,,,,,,,,,,,,,,,,,,,,,,,,,,,,,,,,,,,,,,,,,,,,,,,,,,,,,,,,,,,,,,,,,,,,,,,,,,,,
,,,,,,60e46765548980c44f6a1edc,62bbfb71aebb35cef2c288f1,2022-06-29_09h19.47.147,Colour_Asymmetry_Pilot,2022.1.3,Win32,59.58410296,62bbe60bf3d75ef465d3e404,0,150,150,71,1,fourthree,,,,,,,,,,,,,,,,,,,,,,,,,,,,,,,,,,,,,,,,,,,,,,,,,,,,,,,,,,,,,,,,,,,,,,,,,,,,,,,,,,,,,,,,,,,,,,,,,,,,,,,,,,,,,,,,,,,,,,,,,,,,,,,,,,,,,,,,,,,,,,,,,,,,,,,,
,,,,,,60e46765548980c44f6a1edc,62bbfb71aebb35cef2c288f1,2022-06-29_09h19.47.147,Colour_Asymmetry_Pilot,2022.1.3,Win32,59.58410296,62bbe60bf3d75ef465d3e404,0,151,151,123,1,twofour,,,,,,,,,,,,,,,,,,,,,,,,,,,,,,,,,,,,,,,,,,,,,,,,,,,,,,,,,,,,,,,,,,,,,,,,,,,,,,,,,,,,,,,,,,,,,,,,,,,,,,,,,,,,,,,,,,,,,,,,,,,,,,,,,,,,,,,,,,,,,,,,,,,,,,,,
,,,,,,60e46765548980c44f6a1edc,62bbfb71aebb35cef2c288f1,2022-06-29_09h19.47.147,Colour_Asymmetry_Pilot,2022.1.3,Win32,59.58410296,62bbe60bf3d75ef465d3e404,0,152,152,53,1,threefour,,,,,,,,,,,,,,,,,,,,,,,,,,,,,,,,,,,,,,,,,,,,,,,,,,,,,,,,,,,,,,,,,,,,,,,,,,,,,,,,,,,,,,,,,,,,,,,,,,,,,,,,,,,,,,,,,,,,,,,,,,,,,,,,,,,,,,,,,,,,,,,,,,,,,,,,
,,,,,,60e46765548980c44f6a1edc,62bbfb71aebb35cef2c288f1,2022-06-29_09h19.47.147,Colour_Asymmetry_Pilot,2022.1.3,Win32,59.58410296,62bbe60bf3d75ef465d3e404,0,153,153,68,1,threeone,,,,,,,,,,,,,,,,,,,,,,,,,,,,,,,,,,,,,,,,,,,,,,,,,,,,,,,,,,,,,,,,,,,,,,,,,,,,,,,,,,,,,,,,,,,,,,,,,,,,,,,,,,,,,,,,,,,,,,,,,,,,,,,,,,,,,,,,,,,,,,,,,,,,,,,,
,,,,,,60e46765548980c44f6a1edc,62bbfb71aebb35cef2c288f1,2022-06-29_09h19.47.147,Colour_Asymmetry_Pilot,2022.1.3,Win32,59.58410296,62bbe60bf3d75ef465d3e404,0,154,154,57,1,onethree,,,,,,,,,,,,,,,,,,,,,,,,,,,,,,,,,,,,,,,,,,,,,,,,,,,,,,,,,,,,,,,,,,,,,,,,,,,,,,,,,,,,,,,,,,,,,,,,,,,,,,,,,,,,,,,,,,,,,,,,,,,,,,,,,,,,,,,,,,,,,,,,,,,,,,,,
,,,,,,60e46765548980c44f6a1edc,62bbfb71aebb35cef2c288f1,2022-06-29_09h19.47.147,Colour_Asymmetry_Pilot,2022.1.3,Win32,59.58410296,62bbe60bf3d75ef465d3e404,0,155,155,15,1,fourthree,,,,,,,,,,,,,,,,,,,,,,,,,,,,,,,,,,,,,,,,,,,,,,,,,,,,,,,,,,,,,,,,,,,,,,,,,,,,,,,,,,,,,,,,,,,,,,,,,,,,,,,,,,,,,,,,,,,,,,,,,,,,,,,,,,,,,,,,,,,,,,,,,,,,,,,,
,,,,,,60e46765548980c44f6a1edc,62bbfb71aebb35cef2c288f1,2022-06-29_09h19.47.147,Colour_Asymmetry_Pilot,2022.1.3,Win32,59.58410296,62bbe60bf3d75ef465d3e404,0,156,156,95,1,fourthree,,,,,,,,,,,,,,,,,,,,,,,,,,,,,,,,,,,,,,,,,,,,,,,,,,,,,,,,,,,,,,,,,,,,,,,,,,,,,,,,,,,,,,,,,,,,,,,,,,,,,,,,,,,,,,,,,,,,,,,,,,,,,,,,,,,,,,,,,,,,,,,,,,,,,,,,
,,,,,,60e46765548980c44f6a1edc,62bbfb71aebb35cef2c288f1,2022-06-29_09h19.47.147,Colour_Asymmetry_Pilot,2022.1.3,Win32,59.58410296,62bbe60bf3d75ef465d3e404,0,157,157,3,1,twofour,,,,,,,,,,,,,,,,,,,,,,,,,,,,,,,,,,,,,,,,,,,,,,,,,,,,,,,,,,,,,,,,,,,,,,,,,,,,,,,,,,,,,,,,,,,,,,,,,,,,,,,,,,,,,,,,,,,,,,,,,,,,,,,,,,,,,,,,,,,,,,,,,,,,,,,,
,,,,,,60e46765548980c44f6a1edc,62bbfb71aebb35cef2c288f1,2022-06-29_09h19.47.147,Colour_Asymmetry_Pilot,2022.1.3,Win32,59.58410296,62bbe60bf3d75ef465d3e404,0,158,158,79,1,fourthree,,,,,,,,,,,,,,,,,,,,,,,,,,,,,,,,,,,,,,,,,,,,,,,,,,,,,,,,,,,,,,,,,,,,,,,,,,,,,,,,,,,,,,,,,,,,,,,,,,,,,,,,,,,,,,,,,,,,,,,,,,,,,,,,,,,,,,,,,,,,,,,,,,,,,,,,
,,,,,,60e46765548980c44f6a1edc,62bbfb71aebb35cef2c288f1,2022-06-29_09h19.47.147,Colour_Asymmetry_Pilot,2022.1.3,Win32,59.58410296,62bbe60bf3d75ef465d3e404,0,159,159,69,1,threefour,,,,,,,,,,,,,,,,,,,,,,,,,,,,,,,,,,,,,,,,,,,,,,,,,,,,,,,,,,,,,,,,,,,,,,,,,,,,,,,,,,,,,,,,,,,,,,,,,,,,,,,,,,,,,,,,,,,,,,,,,,,,,,,,,,,,,,,,,,,,,,,,,,,,,,,,
,,,,,,60e46765548980c44f6a1edc,62bbfb71aebb35cef2c288f1,2022-06-29_09h19.47.147,Colour_Asymmetry_Pilot,2022.1.3,Win32,59.58410296,62bbe60bf3d75ef465d3e404,0,160,160,81,1,onethree,,,,,,,,,,,,,,,,,,,,,,,,,,,,,,,,,,,,,,,,,,,,,,,,,,,,,,,,,,,,,,,,,,,,,,,,,,,,,,,,,,,,,,,,,,,,,,,,,,,,,,,,,,,,,,,,,,,,,,,,,,,,,,,,,,,,,,,,,,,,,,,,,,,,,,,,
,,,,,,60e46765548980c44f6a1edc,62bbfb71aebb35cef2c288f1,2022-06-29_09h19.47.147,Colour_Asymmetry_Pilot,2022.1.3,Win32,59.58410296,62bbe60bf3d75ef465d3e404,0,161,161,144,1,onetwo,,,,,,,,,,,,,,,,,,,,,,,,,,,,,,,,,,,,,,,,,,,,,,,,,,,,,,,,,,,,,,,,,,,,,,,,,,,,,,,,,,,,,,,,,,,,,,,,,,,,,,,,,,,,,,,,,,,,,,,,,,,,,,,,,,,,,,,,,,,,,,,,,,,,,,,,
,,,,,,60e46765548980c44f6a1edc,62bbfb71aebb35cef2c288f1,2022-06-29_09h19.47.147,Colour_Asymmetry_Pilot,2022.1.3,Win32,59.58410296,62bbe60bf3d75ef465d3e404,,,,,,,space,1.4532,space,24.4074,space,33.7933,space,8.1286,space,1.818,space,2.9072,"[-0.01980000000000004,-0.5138,-0.38039999999999996]",threefour,"[-0.4902000000000001,0.2704,-0.45899999999999996]",-4,8.3295,-39,113,1,0,0,response7disk_5,9,5,1,0,0,rectangle_8,9,5,1,0,0,3,9,5,1,0,0,0,0,0,0,1,,,,,,,,,,,,,,,,,,,,,,,,,,,,,,,,,,,,,,,,,,,,,,,,,,,,,,,,,,,,,,,,,,,,,,,,,,,,,,,,,,,,,,,,,,,,,,,,,,,,,,,,,,,
,,,,,,60e46765548980c44f6a1edc,62bbfb71aebb35cef2c288f1,2022-06-29_09h19.47.147,Colour_Asymmetry_Pilot,2022.1.3,Win32,59.58410296,62bbe60bf3d75ef465d3e404,,,,,,,,,,,,,,,,,,,"[-0.34920000000000007,-0.702,-0.5216]",twofour,"[-0.26280000000000003,-0.4746,-0.2158]",2,2.1443,84,-35,1,0,0,response3disk_5,2,6,1,0,0,rectangle_8,2,6,1,0,0,3,2,6,1,0,0,1,0,1,0,1,,,,,,,,,,,,,,,,,,,,,,,,,,,,,,,,,,,,,,,,,,,,,,,,,,,,,,,,,,,,,,,,,,,,,,,,,,,,,,,,,,,,,,,,,,,,,,,,,,,,,,,,,,,
,,,,,,60e46765548980c44f6a1edc,62bbfb71aebb35cef2c288f1,2022-06-29_09h19.47.147,Colour_Asymmetry_Pilot,2022.1.3,Win32,59.58410296,62bbe60bf3d75ef465d3e404,,,,,,,,,,,,,,,,,,,"[-0.6235999999999999,-0.6786,-0.08239999999999992]",twofour,"[-0.5452,-0.608,0.2470000000000001]",1,3.2498,40,-81,1,0,0,response3disk_5,-2,0,1,0,0,rectangle_8,87,72,1,0,0,3,-23,6,1,0,0,2,0,2,0,1,response1disk_7,6,rectangle_4,,,,,,,,,,,,,,,,,,,,,,,,,,,,,,,,,,,,,,,,,,,,,,,,,,,,,,,,,,,,,,,,,,,,,,,,,,,,,,,,,,,,,,,,,,,,,,,,,,,,,,,,
,,,,,,60e46765548980c44f6a1edc,62bbfb71aebb35cef2c288f1,2022-06-29_09h19.47.147,Colour_Asymmetry_Pilot,2022.1.3,Win32,59.58410296,62bbe60bf3d75ef465d3e404,,,,,,,,,,,,,,,,,,,"[0.04299999999999993,0.16060000000000008,-0.6628000000000001]",twofour,"[0.7802,-0.23140000000000005,-0.20799999999999996]",-1,3.8011,-36,-94,1,0,0,response5disk_5,-2,13,1,0,0,rectangle_8,-2,13,1,0,0,3,-2,13,1,0,0,3,0,3,0,1,,,,,,,,,,,,,,,,,,,,,,,,,,,,,,,,,,,,,,,,,,,,,,,,,,,,,,,,,,,,,,,,,,,,,,,,,,,,,,,,,,,,,,,,,,,,,,,,,,,,,,,,,,,
,,,,,,60e46765548980c44f6a1edc,62bbfb71aebb35cef2c288f1,2022-06-29_09h19.47.147,Colour_Asymmetry_Pilot,2022.1.3,Win32,59.58410296,62bbe60bf3d75ef465d3e404,,,,,,,,,,,,,,,,,,,"[0.7176,-0.906,-0.6864]",fourtwo,"[-0.9766,-0.6472,0.07440000000000002]",-3,1.6149,-70,28,1,0,0,response7disk_5,-6,4,1,0,0,rectangle_8,82,37,1,0,0,3,-3,0,1,0,0,4,0,4,0,1,response1disk_7,6,rectangle_4,,,,,,,,,,,,,,,,,,,,,,,,,,,,,,,,,,,,,,,,,,,,,,,,,,,,,,,,,,,,,,,,,,,,,,,,,,,,,,,,,,,,,,,,,,,,,,,,,,,,,,,,
,,,,,,60e46765548980c44f6a1edc,62bbfb71aebb35cef2c288f1,2022-06-29_09h19.47.147,Colour_Asymmetry_Pilot,2022.1.3,Win32,59.58410296,62bbe60bf3d75ef465d3e404,,,,,,,,,,,,,,,,,,,"[0.9686000000000001,0.5763999999999998,0.11359999999999992]",onethree,"[0.3568,-0.20799999999999996,-0.9844]",2,2.2039,87,-57,1,0,0,response3disk_5,14,0,1,0,0,rectangle_8,14,0,1,0,0,3,14,0,1,0,0,5,0,5,0,1,,,,,,,,,,,,,,,,,,,,,,,,,,,,,,,,,,,,,,,,,,,,,,,,,,,,,,,,,,,,,,,,,,,,,,,,,,,,,,,,,,,,,,,,,,,,,,,,,,,,,,,,,,,
,,,,,,60e46765548980c44f6a1edc,62bbfb71aebb35cef2c288f1,2022-06-29_09h19.47.147,Colour_Asymmetry_Pilot,2022.1.3,Win32,59.58410296,62bbe60bf3d75ef465d3e404,,,,,,,,,,,,,,,,,,,"[-0.0040000000000000036,0.02739999999999987,-0.08239999999999992]",threefour,"[0.0351999999999999,0.41159999999999997,0.0038000000000000256]",1,3.5339,48,-99,1,0,0,response3disk_5,-7,-3,1,0,0,rectangle_8,-7,-3,1,0,0,3,-7,-3,1,0,0,6,0,6,0,1,,,,,,,,,,,,,,,,,,,,,,,,,,,,,,,,,,,,,,,,,,,,,,,,,,,,,,,,,,,,,,,,,,,,,,,,,,,,,,,,,,,,,,,,,,,,,,,,,,,,,,,,,,,
,,,,,,60e46765548980c44f6a1edc,62bbfb71aebb35cef2c288f1,2022-06-29_09h19.47.147,Colour_Asymmetry_Pilot,2022.1.3,Win32,59.58410296,62bbe60bf3d75ef465d3e404,,,,,,,,,,,,,,,,,,,,threefour,,-3,1.3002,,,,,,,,,,,,,,,,,,,,,,,,,,,,,,,,space,2.8495,"[0.34099999999999997,0.5841999999999998,-0.9844]","[0.12939999999999996,-0.2864,0.3253999999999999]",-63,38,1,0,0,response7disk,-2,10,1,0,0,rectangle,-2,10,1,0,0,,2,0.0072,0,-2,10,1,0,0,0,0,0,134,1,53,second,,,,,,,,,,,,,,,,,,,,,,,,,,,,,,,,,,,,,,,,,,,,,,,,,,,,,,,,,,,,,,,,,,,
,,,,,,60e46765548980c44f6a1edc,62bbfb71aebb35cef2c288f1,2022-06-29_09h19.47.147,Colour_Asymmetry_Pilot,2022.1.3,Win32,59.58410296,62bbe60bf3d75ef465d3e404,,,,,,,,,,,,,,,,,,,,onethree,,3,0.9494,,,,,,,,,,,,,,,,,,,,,,,,,,,,,,,,,,"[0.18419999999999992,-0.4276,-0.404]","[0.23120000000000007,-0.7726,-0.34120000000000006]",100,31,1,0,0,response1disk,-3,-8,1,0,0,rectangle,-3,-8,1,0,0,,1,0.0072,0,-3,-8,1,0,0,0,1,1,132,1,51,second,,,,,,,,,,,,,,,,,,,,,,,,,,,,,,,,,,,,,,,,,,,,,,,,,,,,,,,,,,,,,,,,,,,
,,,,,,60e46765548980c44f6a1edc,62bbfb71aebb35cef2c288f1,2022-06-29_09h19.47.147,Colour_Asymmetry_Pilot,2022.1.3,Win32,59.58410296,62bbe60bf3d75ef465d3e404,,,,,,,,,,,,,,,,,,,,threefour,,-4,1.1354,,,,,,,,,,,,,,,,,,,,,,,,,,,,,,,,,,"[0.9763999999999999,0.8588,-0.05900000000000005]","[0.12939999999999996,-0.2864,0.3253999999999999]",-40,89,1,0,0,response7disk,-9,7,1,0,0,rectangle,-9,7,1,0,0,,2,0.0043,0,-9,7,1,0,0,0,2,2,143,1,62,second,,,,,,,,,,,,,,,,,,,,,,,,,,,,,,,,,,,,,,,,,,,,,,,,,,,,,,,,,,,,,,,,,,,
,,,,,,60e46765548980c44f6a1edc,62bbfb71aebb35cef2c288f1,2022-06-29_09h19.47.147,Colour_Asymmetry_Pilot,2022.1.3,Win32,59.58410296,62bbe60bf3d75ef465d3e404,,,,,,,,,,,,,,,,,,,,threefour,,2,3.5172,,,,,,,,,,,,,,,,,,,,,,,,,,,,,,,,,,"[0.09799999999999986,-0.24719999999999998,0.15280000000000005]","[-0.4746,-0.0354000000000001,0.5449999999999999]",88,-40,1,0,0,response3disk,-8,10,1,0,0,rectangle,-8,10,1,0,0,,2,0.0006,0,-8,10,1,0,0,0,3,3,7,1,7,first,,,,,,,,,,,,,,,,,,,,,,,,,,,,,,,,,,,,,,,,,,,,,,,,,,,,,,,,,,,,,,,,,,,
,,,,,,60e46765548980c44f6a1edc,62bbfb71aebb35cef2c288f1,2022-06-29_09h19.47.147,Colour_Asymmetry_Pilot,2022.1.3,Win32,59.58410296,62bbe60bf3d75ef465d3e404,,,,,,,,,,,,,,,,,,,,twoone,,4,0.99,,,,,,,,,,,,,,,,,,,,,,,,,,,,,,,,,,"[-0.09019999999999995,0.44300000000000006,0.5371999999999999]","[-0.4746,-0.0354000000000001,0.5449999999999999]",37,94,1,0,0,response1disk,-6,10,0,0,1,rectangle,-6,10,0,0,1,,3,0.0022,0,-6,10,0,0,1,0,4,4,79,1,79,first,,,,,,,,,,,,,,,,,,,,,,,,,,,,,,,,,,,,,,,,,,,,,,,,,,,,,,,,,,,,,,,,,,,
,,,,,,60e46765548980c44f6a1edc,62bbfb71aebb35cef2c288f1,2022-06-29_09h19.47.147,Colour_Asymmetry_Pilot,2022.1.3,Win32,59.58410296,62bbe60bf3d75ef465d3e404,,,,,,,,,,,,,,,,,,,,fourtwo,,-3,3.099,,,,,,,,,,,,,,,,,,,,,,,,,,,,,,,,,,"[0.0351999999999999,0.41159999999999997,0.0038000000000000256]","[0.6547999999999998,-0.043199999999999905,-0.011800000000000033]",-69,43,1,0,0,response7disk,-18,2,1,0,0,rectangle,-18,2,1,0,0,,1,0.0054,0,-18,2,1,0,0,0,5,5,14,1,14,first,,,,,,,,,,,,,,,,,,,,,,,,,,,,,,,,,,,,,,,,,,,,,,,,,,,,,,,,,,,,,,,,,,,
,,,,,,60e46765548980c44f6a1edc,62bbfb71aebb35cef2c288f1,2022-06-29_09h19.47.147,Colour_Asymmetry_Pilot,2022.1.3,Win32,59.58410296,62bbe60bf3d75ef465d3e404,,,,,,,,,,,,,,,,,,,,onetwo,,-4,1.0273,,,,,,,,,,,,,,,,,,,,,,,,,,,,,,,,,,"[0.2784,-0.31000000000000005,-0.5452]","[0.19199999999999995,0.18419999999999992,0.5136000000000001]",-33,81,1,0,0,response7disk,-1,2,0,0,1,rectangle,-1,2,0,0,1,,2,0.0018,0,-1,2,0,0,1,0,6,6,157,1,76,second,,,,,,,,,,,,,,,,,,,,,,,,,,,,,,,,,,,,,,,,,,,,,,,,,,,,,,,,,,,,,,,,,,,
,,,,,,60e46765548980c44f6a1edc,62bbfb71aebb35cef2c288f1,2022-06-29_09h19.47.147,Colour_Asymmetry_Pilot,2022.1.3,Win32,59.58410296,62bbe60bf3d75ef465d3e404,,,,,,,,,,,,,,,,,,,,twoone,,2,2.721,,,,,,,,,,,,,,,,,,,,,,,,,,,,,,,,,,"[0.8115999999999999,-0.0040000000000000036,-0.09819999999999995]","[0.34099999999999997,0.12939999999999996,-0.9766]",89,-51,1,0,0,response3disk,9,-4,1,0,0,rectangle,9,-4,1,0,0,,2,0.0013,0,9,-4,1,0,0,0,7,7,56,1,56,first,,,,,,,,,,,,,,,,,,,,,,,,,,,,,,,,,,,,,,,,,,,,,,,,,,,,,,,,,,,,,,,,,,,
,,,,,,60e46765548980c44f6a1edc,62bbfb71aebb35cef2c288f1,2022-06-29_09h19.47.147,Colour_Asymmetry_Pilot,2022.1.3,Win32,59.58410296,62bbe60bf3d75ef465d3e404,,,,,,,,,,,,,,,,,,,,threefour,,4,1.3562,,,,,,,,,,,,,,,,,,,,,,,,,,,,,,,,,,"[-0.6235999999999999,-0.6786,-0.08239999999999992]","[-0.4746,-0.0354000000000001,0.5449999999999999]",28,110,1,0,0,response1disk,-5,-8,1,0,0,rectangle,-5,-8,1,0,0,,3,0.0045,0,-5,-8,1,0,0,0,8,8,151,1,70,second,,,,,,,,,,,,,,,,,,,,,,,,,,,,,,,,,,,,,,,,,,,,,,,,,,,,,,,,,,,,,,,,,,,
,,,,,,60e46765548980c44f6a1edc,62bbfb71aebb35cef2c288f1,2022-06-29_09h19.47.147,Colour_Asymmetry_Pilot,2022.1.3,Win32,59.58410296,62bbe60bf3d75ef465d3e404,,,,,,,,,,,,,,,,,,,,threefour,,-4,1.7357,,,,,,,,,,,,,,,,,,,,,,,,,,,,,,,,,,"[1,0.12939999999999996,-1]","[-0.9688,-0.4902000000000001,-0.12159999999999993]",-57,69,1,0,0,response7disk,-11,4,1,0,0,rectangle,-11,4,1,0,0,,1,0.001,0,-11,4,1,0,0,0,9,9,40,1,40,first,,,,,,,,,,,,,,,,,,,,,,,,,,,,,,,,,,,,,,,,,,,,,,,,,,,,,,,,,,,,,,,,,,,
,,,,,,60e46765548980c44f6a1edc,62bbfb71aebb35cef2c288f1,2022-06-29_09h19.47.147,Colour_Asymmetry_Pilot,2022.1.3,Win32,59.58410296,62bbe60bf3d75ef465d3e404,,,,,,,,,,,,,,,,,,,,threeone,,-4,1.7872,,,,,,,,,,,,,,,,,,,,,,,,,,,,,,,,,,"[0.12939999999999996,-0.2864,0.3253999999999999]","[0.34099999999999997,0.5841999999999998,-0.9844]",-40,94,1,0,0,response7disk,-3,11,1,0,0,rectangle,-3,11,1,0,0,,2,0.0047,0,-3,11,1,0,0,0,10,10,53,1,53,first,,,,,,,,,,,,,,,,,,,,,,,,,,,,,,,,,,,,,,,,,,,,,,,,,,,,,,,,,,,,,,,,,,,
,,,,,,60e46765548980c44f6a1edc,62bbfb71aebb35cef2c288f1,2022-06-29_09h19.47.147,Colour_Asymmetry_Pilot,2022.1.3,Win32,59.58410296,62bbe60bf3d75ef465d3e404,,,,,,,,,,,,,,,,,,,,threeone,,3,1.8241,,,,,,,,,,,,,,,,,,,,,,,,,,,,,,,,,,"[-0.06680000000000008,-0.45100000000000007,-0.906]","[0.6625999999999999,0.4980000000000002,-0.357]",95,21,1,0,0,response1disk,25,-1,1,0,0,rectangle,25,-1,1,0,0,,1,0.0116,0,25,-1,1,0,0,0,11,11,99,1,18,second,,,,,,,,,,,,,,,,,,,,,,,,,,,,,,,,,,,,,,,,,,,,,,,,,,,,,,,,,,,,,,,,,,,
,,,,,,60e46765548980c44f6a1edc,62bbfb71aebb35cef2c288f1,2022-06-29_09h19.47.147,Colour_Asymmetry_Pilot,2022.1.3,Win32,59.58410296,62bbe60bf3d75ef465d3e404,,,,,,,,,,,,,,,,,,,,twofour,,-3,1.1257,,,,,,,,,,,,,,,,,,,,,,,,,,,,,,,,,,"[-0.24719999999999998,0.5213999999999999,-0.12959999999999994]","[-0.9766,-0.34920000000000007,0.2156]",-81,57,1,0,0,response7disk,-13,-10,0,0,1,rectangle,-13,-10,0,0,1,,2,0.0015,0,-13,-10,0,0,1,0,12,12,63,1,63,first,,,,,,,,,,,,,,,,,,,,,,,,,,,,,,,,,,,,,,,,,,,,,,,,,,,,,,,,,,,,,,,,,,,
,,,,,,60e46765548980c44f6a1edc,62bbfb71aebb35cef2c288f1,2022-06-29_09h19.47.147,Colour_Asymmetry_Pilot,2022.1.3,Win32,59.58410296,62bbe60bf3d75ef465d3e404,,,,,,,,,,,,,,,,,,,,onethree,,3,4.8915,,,,,,,,,,,,,,,,,,,,,,,,,,,,,,,,,,"[0.22340000000000004,-0.9296,-0.7884]","[-0.4668,-0.8746,-0.2942]",105,78,1,0,0,response1disk,16,-11,1,0,0,rectangle,16,-11,1,0,0,,1,0.003,0,16,-11,1,0,0,0,13,13,109,1,28,second,,,,,,,,,,,,,,,,,,,,,,,,,,,,,,,,,,,,,,,,,,,,,,,,,,,,,,,,,,,,,,,,,,,
,,,,,,60e46765548980c44f6a1edc,62bbfb71aebb35cef2c288f1,2022-06-29_09h19.47.147,Colour_Asymmetry_Pilot,2022.1.3,Win32,59.58410296,62bbe60bf3d75ef465d3e404,,,,,,,,,,,,,,,,,,,,onethree,,-2,1.7605,,,,,,,,,,,,,,,,,,,,,,,,,,,,,,,,,,"[-0.4746,-0.0354000000000001,0.5449999999999999]","[0.7018,0.7802,-0.16079999999999994]",-55,-34,1,0,0,response5disk,-3,-8,1,0,0,rectangle,-3,-8,1,0,0,,2,0.0036,0,-3,-8,1,0,0,0,14,14,125,1,44,second,,,,,,,,,,,,,,,,,,,,,,,,,,,,,,,,,,,,,,,,,,,,,,,,,,,,,,,,,,,,,,,,,,,
,,,,,,60e46765548980c44f6a1edc,62bbfb71aebb35cef2c288f1,2022-06-29_09h19.47.147,Colour_Asymmetry_Pilot,2022.1.3,Win32,59.58410296,62bbe60bf3d75ef465d3e404,,,,,,,,,,,,,,,,,,,,fourthree,,3,2.0097,,,,,,,,,,,,,,,,,,,,,,,,,,,,,,,,,,"[-0.26280000000000003,-0.2158,-0.3256]","[-0.6706000000000001,-0.6157999999999999,-0.6786]",84,32,1,0,0,response1disk,9,1,1,0,0,rectangle,9,1,1,0,0,,3,0.0021,0,9,1,1,0,0,0,15,15,42,1,42,first,,,,,,,,,,,,,,,,,,,,,,,,,,,,,,,,,,,,,,,,,,,,,,,,,,,,,,,,,,,,,,,,,,,
,,,,,,60e46765548980c44f6a1edc,62bbfb71aebb35cef2c288f1,2022-06-29_09h19.47.147,Colour_Asymmetry_Pilot,2022.1.3,Win32,59.58410296,62bbe60bf3d75ef465d3e404,,,,,,,,,,,,,,,,,,,,threeone,,2,1.1671,,,,,,,,,,,,,,,,,,,,,,,,,,,,,,,,,,"[0.04299999999999993,0.16060000000000008,-0.6628000000000001]","[0.7018,0.7176,0.6155999999999999]",75,-29,1,0,0,response3disk,-4,3,1,0,0,rectangle,-4,3,1,0,0,,1,0.0034,0,-4,3,1,0,0,0,16,16,17,1,17,first,,,,,,,,,,,,,,,,,,,,,,,,,,,,,,,,,,,,,,,,,,,,,,,,,,,,,,,,,,,,,,,,,,,
,,,,,,60e46765548980c44f6a1edc,62bbfb71aebb35cef2c288f1,2022-06-29_09h19.47.147,Colour_Asymmetry_Pilot,2022.1.3,Win32,59.58410296,62bbe60bf3d75ef465d3e404,,,,,,,,,,,,,,,,,,,,onethree,,-3,0.6044,,,,,,,,,,,,,,,,,,,,,,,,,,,,,,,,,,"[-0.17659999999999998,0.3253999999999999,0.19999999999999996]","[-0.5922000000000001,-0.7492000000000001,-0.5296000000000001]",-72,42,1,0,0,response7disk,-13,8,1,0,0,rectangle,-13,8,1,0,0,,2,0.0019,0,-13,8,1,0,0,0,17,17,110,1,29,second,,,,,,,,,,,,,,,,,,,,,,,,,,,,,,,,,,,,,,,,,,,,,,,,,,,,,,,,,,,,,,,,,,,
,,,,,,60e46765548980c44f6a1edc,62bbfb71aebb35cef2c288f1,2022-06-29_09h19.47.147,Colour_Asymmetry_Pilot,2022.1.3,Win32,59.58410296,62bbe60bf3d75ef465d3e404,,,,,,,,,,,,,,,,,,,,threeone,,-2,1.4213,,,,,,,,,,,,,,,,,,,,,,,,,,,,,,,,,,"[-0.4982,-0.2942,-0.0354000000000001]","[0.9213999999999998,0.6391999999999998,-0.9922]",-59,-41,1,0,0,response5disk,-4,0,1,0,0,rectangle,-4,0,1,0,0,,3,0.0047,0,-4,0,1,0,0,0,18,18,72,1,72,first,,,,,,,,,,,,,,,,,,,,,,,,,,,,,,,,,,,,,,,,,,,,,,,,,,,,,,,,,,,,,,,,,,,
,,,,,,60e46765548980c44f6a1edc,62bbfb71aebb35cef2c288f1,2022-06-29_09h19.47.147,Colour_Asymmetry_Pilot,2022.1.3,Win32,59.58410296,62bbe60bf3d75ef465d3e404,,,,,,,,,,,,,,,,,,,,threeone,,3,0.8558,,,,,,,,,,,,,,,,,,,,,,,,,,,,,,,,,,"[-0.6706000000000001,-0.6157999999999999,-0.6786]","[-0.26280000000000003,-0.2158,-0.3256]",92,19,1,0,0,response1disk,6,3,0,0,1,rectangle,6,3,0,0,1,,3,0.0009,0,6,3,0,0,1,0,19,19,123,1,42,second,,,,,,,,,,,,,,,,,,,,,,,,,,,,,,,,,,,,,,,,,,,,,,,,,,,,,,,,,,,,,,,,,,,
,,,,,,60e46765548980c44f6a1edc,62bbfb71aebb35cef2c288f1,2022-06-29_09h19.47.147,Colour_Asymmetry_Pilot,2022.1.3,Win32,59.58410296,62bbe60bf3d75ef465d3e404,,,,,,,,,,,,,,,,,,,,threeone,,-3,0.828,,,,,,,,,,,,,,,,,,,,,,,,,,,,,,,,,,"[-0.4746,-0.0354000000000001,0.5449999999999999]","[0.3802000000000001,0.19199999999999995,-0.6394]",-82,30,1,0,0,response7disk,-4,-2,1,0,0,rectangle,-4,-2,1,0,0,,3,0.0012,0,-4,-2,1,0,0,0,20,20,1,1,1,first,,,,,,,,,,,,,,,,,,,,,,,,,,,,,,,,,,,,,,,,,,,,,,,,,,,,,,,,,,,,,,,,,,,
