trials.thisRepN,trials.thisTrialN,trials.thisN,trials.thisIndex,trials.ran,Colourcodes,participant,session,date,expName,psychopyVersion,OS,frameRate,study_id,trials_4.thisRepN,trials_4.thisTrialN,trials_4.thisN,trials_4.thisIndex,trials_4.ran,StimulusPos,key_resp.keys,key_resp.rt,key_resp_2.keys,key_resp_2.rt,key_resp_15.keys,key_resp_15.rt,key_resp_17.keys,key_resp_17.rt,key_resp_9.keys,key_resp_9.rt,key_resp_10.keys,key_resp_10.rt,Circle1_col,Ecc,Circle2_col,similarity,response_time,mouse_5.x,mouse_5.y,mouse_5.leftButton,mouse_5.midButton,mouse_5.rightButton,mouse_5.clicked_name,mouse_10.x,mouse_10.y,mouse_10.leftButton,mouse_10.midButton,mouse_10.rightButton,mouse_10.clicked_name,mouse_7.x,mouse_7.y,mouse_7.leftButton,mouse_7.midButton,mouse_7.rightButton,catchnumberprac,mouse_6.x,mouse_6.y,mouse_6.leftButton,mouse_6.midButton,mouse_6.rightButton,duringprac.thisRepN,duringprac.thisTrialN,duringprac.thisN,duringprac.thisIndex,duringprac.ran,mouse_7.clicked_name,catchprac,mouse_6.clicked_name,key_resp_22.keys,key_resp_22.rt,Circle1_colour,Circle2_colour,mouse.x,mouse.y,mouse.leftButton,mouse.midButton,mouse.rightButton,mouse.clicked_name,mouse_2.x,mouse_2.y,mouse_2.leftButton,mouse_2.midButton,mouse_2.rightButton,mouse_2.clicked_name,mouse_3.x,mouse_3.y,mouse_3.leftButton,mouse_3.midButton,mouse_3.rightButton,catchresponse,catchnumber,response_time_catch,Catch,mouse_11.x,mouse_11.y,mouse_11.leftButton,mouse_11.midButton,mouse_11.rightButton,trials_2.thisRepN,trials_2.thisTrialN,trials_2.thisN,trials_2.thisIndex,trials_2.ran,Colourpair,Temporder,mouse_3.clicked_name,mouse_11.clicked_name,trials_3.thisRepN,trials_3.thisTrialN,trials_3.thisN,trials_3.thisIndex,trials_3.ran,key_resp_instr_Ishi.keys,key_resp_instr_Ishi.rt,Ishi_trial_keyresp.keys,Ishi_trial_keyresp.rt,Ishi_textbox.text,Ishi_loop.thisRepN,Ishi_loop.thisTrialN,Ishi_loop.thisN,Ishi_loop.thisIndex,Ishi_loop.ran,imageaddress,textbox.text,mouse_4.x,mouse_4.y,mouse_4.leftButton,mouse_4.midButton,mouse_4.rightButton,mouse_4.clicked_name,textbox_2.text,mouse_8.x,mouse_8.y,mouse_8.leftButton,mouse_8.midButton,mouse_8.rightButton,mouse_8.clicked_name,textbox_3.text,mouse_9.x,mouse_9.y,mouse_9.leftButton,mouse_9.midButton,mouse_9.rightButton,mouse_9.clicked_name,textbox_4.text,mouse_12.x,mouse_12.y,mouse_12.leftButton,mouse_12.midButton,mouse_12.rightButton,mouse_12.clicked_name,textbox_5.text,mouse_13.x,mouse_13.y,mouse_13.leftButton,mouse_13.midButton,mouse_13.rightButton,mouse_13.clicked_name,textbox_6.text,mouse_14.x,mouse_14.y,mouse_14.leftButton,mouse_14.midButton,mouse_14.rightButton,mouse_14.clicked_name,textbox_7.text,mouse_15.x,mouse_15.y,mouse_15.leftButton,mouse_15.midButton,mouse_15.rightButton,mouse_15.clicked_name
0,0,0,77,1,,5db9fbd20fbd8b05db2aa3ed,62bbfb5342025b59ea7012ab,2022-06-29_08h12.40.086,Colour_Asymmetry_Pilot,2022.1.3,Win32,60.28817749,62bbe60bf3d75ef465d3e404,,,,,,,,,,,,,,,,,,,,,,,,,,,,,,,,,,,,,,,,,,,,,,,,,,,,,,,,,,,,,,,,,,,,,,,,,,,,,,,,,,,,,,,,,,,,,,,,,,,,,,,,,,,,,,,,,,,,,,,,,,,,,,,,,,,,,,,,,,,,,,,,,,,,,,,,,,,,,,
0,1,1,52,1,,5db9fbd20fbd8b05db2aa3ed,62bbfb5342025b59ea7012ab,2022-06-29_08h12.40.086,Colour_Asymmetry_Pilot,2022.1.3,Win32,60.28817749,62bbe60bf3d75ef465d3e404,,,,,,,,,,,,,,,,,,,,,,,,,,,,,,,,,,,,,,,,,,,,,,,,,,,,,,,,,,,,,,,,,,,,,,,,,,,,,,,,,,,,,,,,,,,,,,,,,,,,,,,,,,,,,,,,,,,,,,,,,,,,,,,,,,,,,,,,,,,,,,,,,,,,,,,,,,,,,,
0,2,2,20,1,,5db9fbd20fbd8b05db2aa3ed,62bbfb5342025b59ea7012ab,2022-06-29_08h12.40.086,Colour_Asymmetry_Pilot,2022.1.3,Win32,60.28817749,62bbe60bf3d75ef465d3e404,,,,,,,,,,,,,,,,,,,,,,,,,,,,,,,,,,,,,,,,,,,,,,,,,,,,,,,,,,,,,,,,,,,,,,,,,,,,,,,,,,,,,,,,,,,,,,,,,,,,,,,,,,,,,,,,,,,,,,,,,,,,,,,,,,,,,,,,,,,,,,,,,,,,,,,,,,,,,,
0,3,3,58,1,,5db9fbd20fbd8b05db2aa3ed,62bbfb5342025b59ea7012ab,2022-06-29_08h12.40.086,Colour_Asymmetry_Pilot,2022.1.3,Win32,60.28817749,62bbe60bf3d75ef465d3e404,,,,,,,,,,,,,,,,,,,,,,,,,,,,,,,,,,,,,,,,,,,,,,,,,,,,,,,,,,,,,,,,,,,,,,,,,,,,,,,,,,,,,,,,,,,,,,,,,,,,,,,,,,,,,,,,,,,,,,,,,,,,,,,,,,,,,,,,,,,,,,,,,,,,,,,,,,,,,,
0,4,4,84,1,,5db9fbd20fbd8b05db2aa3ed,62bbfb5342025b59ea7012ab,2022-06-29_08h12.40.086,Colour_Asymmetry_Pilot,2022.1.3,Win32,60.28817749,62bbe60bf3d75ef465d3e404,,,,,,,,,,,,,,,,,,,,,,,,,,,,,,,,,,,,,,,,,,,,,,,,,,,,,,,,,,,,,,,,,,,,,,,,,,,,,,,,,,,,,,,,,,,,,,,,,,,,,,,,,,,,,,,,,,,,,,,,,,,,,,,,,,,,,,,,,,,,,,,,,,,,,,,,,,,,,,
0,5,5,42,1,,5db9fbd20fbd8b05db2aa3ed,62bbfb5342025b59ea7012ab,2022-06-29_08h12.40.086,Colour_Asymmetry_Pilot,2022.1.3,Win32,60.28817749,62bbe60bf3d75ef465d3e404,,,,,,,,,,,,,,,,,,,,,,,,,,,,,,,,,,,,,,,,,,,,,,,,,,,,,,,,,,,,,,,,,,,,,,,,,,,,,,,,,,,,,,,,,,,,,,,,,,,,,,,,,,,,,,,,,,,,,,,,,,,,,,,,,,,,,,,,,,,,,,,,,,,,,,,,,,,,,,
0,6,6,8,1,,5db9fbd20fbd8b05db2aa3ed,62bbfb5342025b59ea7012ab,2022-06-29_08h12.40.086,Colour_Asymmetry_Pilot,2022.1.3,Win32,60.28817749,62bbe60bf3d75ef465d3e404,,,,,,,,,,,,,,,,,,,,,,,,,,,,,,,,,,,,,,,,,,,,,,,,,,,,,,,,,,,,,,,,,,,,,,,,,,,,,,,,,,,,,,,,,,,,,,,,,,,,,,,,,,,,,,,,,,,,,,,,,,,,,,,,,,,,,,,,,,,,,,,,,,,,,,,,,,,,,,
0,7,7,7,1,,5db9fbd20fbd8b05db2aa3ed,62bbfb5342025b59ea7012ab,2022-06-29_08h12.40.086,Colour_Asymmetry_Pilot,2022.1.3,Win32,60.28817749,62bbe60bf3d75ef465d3e404,,,,,,,,,,,,,,,,,,,,,,,,,,,,,,,,,,,,,,,,,,,,,,,,,,,,,,,,,,,,,,,,,,,,,,,,,,,,,,,,,,,,,,,,,,,,,,,,,,,,,,,,,,,,,,,,,,,,,,,,,,,,,,,,,,,,,,,,,,,,,,,,,,,,,,,,,,,,,,
0,8,8,26,1,,5db9fbd20fbd8b05db2aa3ed,62bbfb5342025b59ea7012ab,2022-06-29_08h12.40.086,Colour_Asymmetry_Pilot,2022.1.3,Win32,60.28817749,62bbe60bf3d75ef465d3e404,,,,,,,,,,,,,,,,,,,,,,,,,,,,,,,,,,,,,,,,,,,,,,,,,,,,,,,,,,,,,,,,,,,,,,,,,,,,,,,,,,,,,,,,,,,,,,,,,,,,,,,,,,,,,,,,,,,,,,,,,,,,,,,,,,,,,,,,,,,,,,,,,,,,,,,,,,,,,,
0,9,9,31,1,,5db9fbd20fbd8b05db2aa3ed,62bbfb5342025b59ea7012ab,2022-06-29_08h12.40.086,Colour_Asymmetry_Pilot,2022.1.3,Win32,60.28817749,62bbe60bf3d75ef465d3e404,,,,,,,,,,,,,,,,,,,,,,,,,,,,,,,,,,,,,,,,,,,,,,,,,,,,,,,,,,,,,,,,,,,,,,,,,,,,,,,,,,,,,,,,,,,,,,,,,,,,,,,,,,,,,,,,,,,,,,,,,,,,,,,,,,,,,,,,,,,,,,,,,,,,,,,,,,,,,,
0,10,10,15,1,,5db9fbd20fbd8b05db2aa3ed,62bbfb5342025b59ea7012ab,2022-06-29_08h12.40.086,Colour_Asymmetry_Pilot,2022.1.3,Win32,60.28817749,62bbe60bf3d75ef465d3e404,,,,,,,,,,,,,,,,,,,,,,,,,,,,,,,,,,,,,,,,,,,,,,,,,,,,,,,,,,,,,,,,,,,,,,,,,,,,,,,,,,,,,,,,,,,,,,,,,,,,,,,,,,,,,,,,,,,,,,,,,,,,,,,,,,,,,,,,,,,,,,,,,,,,,,,,,,,,,,
0,11,11,40,1,,5db9fbd20fbd8b05db2aa3ed,62bbfb5342025b59ea7012ab,2022-06-29_08h12.40.086,Colour_Asymmetry_Pilot,2022.1.3,Win32,60.28817749,62bbe60bf3d75ef465d3e404,,,,,,,,,,,,,,,,,,,,,,,,,,,,,,,,,,,,,,,,,,,,,,,,,,,,,,,,,,,,,,,,,,,,,,,,,,,,,,,,,,,,,,,,,,,,,,,,,,,,,,,,,,,,,,,,,,,,,,,,,,,,,,,,,,,,,,,,,,,,,,,,,,,,,,,,,,,,,,
0,12,12,59,1,,5db9fbd20fbd8b05db2aa3ed,62bbfb5342025b59ea7012ab,2022-06-29_08h12.40.086,Colour_Asymmetry_Pilot,2022.1.3,Win32,60.28817749,62bbe60bf3d75ef465d3e404,,,,,,,,,,,,,,,,,,,,,,,,,,,,,,,,,,,,,,,,,,,,,,,,,,,,,,,,,,,,,,,,,,,,,,,,,,,,,,,,,,,,,,,,,,,,,,,,,,,,,,,,,,,,,,,,,,,,,,,,,,,,,,,,,,,,,,,,,,,,,,,,,,,,,,,,,,,,,,
0,13,13,45,1,,5db9fbd20fbd8b05db2aa3ed,62bbfb5342025b59ea7012ab,2022-06-29_08h12.40.086,Colour_Asymmetry_Pilot,2022.1.3,Win32,60.28817749,62bbe60bf3d75ef465d3e404,,,,,,,,,,,,,,,,,,,,,,,,,,,,,,,,,,,,,,,,,,,,,,,,,,,,,,,,,,,,,,,,,,,,,,,,,,,,,,,,,,,,,,,,,,,,,,,,,,,,,,,,,,,,,,,,,,,,,,,,,,,,,,,,,,,,,,,,,,,,,,,,,,,,,,,,,,,,,,
0,14,14,44,1,,5db9fbd20fbd8b05db2aa3ed,62bbfb5342025b59ea7012ab,2022-06-29_08h12.40.086,Colour_Asymmetry_Pilot,2022.1.3,Win32,60.28817749,62bbe60bf3d75ef465d3e404,,,,,,,,,,,,,,,,,,,,,,,,,,,,,,,,,,,,,,,,,,,,,,,,,,,,,,,,,,,,,,,,,,,,,,,,,,,,,,,,,,,,,,,,,,,,,,,,,,,,,,,,,,,,,,,,,,,,,,,,,,,,,,,,,,,,,,,,,,,,,,,,,,,,,,,,,,,,,,
0,15,15,19,1,,5db9fbd20fbd8b05db2aa3ed,62bbfb5342025b59ea7012ab,2022-06-29_08h12.40.086,Colour_Asymmetry_Pilot,2022.1.3,Win32,60.28817749,62bbe60bf3d75ef465d3e404,,,,,,,,,,,,,,,,,,,,,,,,,,,,,,,,,,,,,,,,,,,,,,,,,,,,,,,,,,,,,,,,,,,,,,,,,,,,,,,,,,,,,,,,,,,,,,,,,,,,,,,,,,,,,,,,,,,,,,,,,,,,,,,,,,,,,,,,,,,,,,,,,,,,,,,,,,,,,,
0,16,16,92,1,,5db9fbd20fbd8b05db2aa3ed,62bbfb5342025b59ea7012ab,2022-06-29_08h12.40.086,Colour_Asymmetry_Pilot,2022.1.3,Win32,60.28817749,62bbe60bf3d75ef465d3e404,,,,,,,,,,,,,,,,,,,,,,,,,,,,,,,,,,,,,,,,,,,,,,,,,,,,,,,,,,,,,,,,,,,,,,,,,,,,,,,,,,,,,,,,,,,,,,,,,,,,,,,,,,,,,,,,,,,,,,,,,,,,,,,,,,,,,,,,,,,,,,,,,,,,,,,,,,,,,,
0,17,17,38,1,,5db9fbd20fbd8b05db2aa3ed,62bbfb5342025b59ea7012ab,2022-06-29_08h12.40.086,Colour_Asymmetry_Pilot,2022.1.3,Win32,60.28817749,62bbe60bf3d75ef465d3e404,,,,,,,,,,,,,,,,,,,,,,,,,,,,,,,,,,,,,,,,,,,,,,,,,,,,,,,,,,,,,,,,,,,,,,,,,,,,,,,,,,,,,,,,,,,,,,,,,,,,,,,,,,,,,,,,,,,,,,,,,,,,,,,,,,,,,,,,,,,,,,,,,,,,,,,,,,,,,,
0,18,18,14,1,,5db9fbd20fbd8b05db2aa3ed,62bbfb5342025b59ea7012ab,2022-06-29_08h12.40.086,Colour_Asymmetry_Pilot,2022.1.3,Win32,60.28817749,62bbe60bf3d75ef465d3e404,,,,,,,,,,,,,,,,,,,,,,,,,,,,,,,,,,,,,,,,,,,,,,,,,,,,,,,,,,,,,,,,,,,,,,,,,,,,,,,,,,,,,,,,,,,,,,,,,,,,,,,,,,,,,,,,,,,,,,,,,,,,,,,,,,,,,,,,,,,,,,,,,,,,,,,,,,,,,,
0,19,19,82,1,,5db9fbd20fbd8b05db2aa3ed,62bbfb5342025b59ea7012ab,2022-06-29_08h12.40.086,Colour_Asymmetry_Pilot,2022.1.3,Win32,60.28817749,62bbe60bf3d75ef465d3e404,,,,,,,,,,,,,,,,,,,,,,,,,,,,,,,,,,,,,,,,,,,,,,,,,,,,,,,,,,,,,,,,,,,,,,,,,,,,,,,,,,,,,,,,,,,,,,,,,,,,,,,,,,,,,,,,,,,,,,,,,,,,,,,,,,,,,,,,,,,,,,,,,,,,,,,,,,,,,,
0,20,20,79,1,,5db9fbd20fbd8b05db2aa3ed,62bbfb5342025b59ea7012ab,2022-06-29_08h12.40.086,Colour_Asymmetry_Pilot,2022.1.3,Win32,60.28817749,62bbe60bf3d75ef465d3e404,,,,,,,,,,,,,,,,,,,,,,,,,,,,,,,,,,,,,,,,,,,,,,,,,,,,,,,,,,,,,,,,,,,,,,,,,,,,,,,,,,,,,,,,,,,,,,,,,,,,,,,,,,,,,,,,,,,,,,,,,,,,,,,,,,,,,,,,,,,,,,,,,,,,,,,,,,,,,,
0,21,21,62,1,,5db9fbd20fbd8b05db2aa3ed,62bbfb5342025b59ea7012ab,2022-06-29_08h12.40.086,Colour_Asymmetry_Pilot,2022.1.3,Win32,60.28817749,62bbe60bf3d75ef465d3e404,,,,,,,,,,,,,,,,,,,,,,,,,,,,,,,,,,,,,,,,,,,,,,,,,,,,,,,,,,,,,,,,,,,,,,,,,,,,,,,,,,,,,,,,,,,,,,,,,,,,,,,,,,,,,,,,,,,,,,,,,,,,,,,,,,,,,,,,,,,,,,,,,,,,,,,,,,,,,,
0,22,22,11,1,,5db9fbd20fbd8b05db2aa3ed,62bbfb5342025b59ea7012ab,2022-06-29_08h12.40.086,Colour_Asymmetry_Pilot,2022.1.3,Win32,60.28817749,62bbe60bf3d75ef465d3e404,,,,,,,,,,,,,,,,,,,,,,,,,,,,,,,,,,,,,,,,,,,,,,,,,,,,,,,,,,,,,,,,,,,,,,,,,,,,,,,,,,,,,,,,,,,,,,,,,,,,,,,,,,,,,,,,,,,,,,,,,,,,,,,,,,,,,,,,,,,,,,,,,,,,,,,,,,,,,,
0,23,23,89,1,,5db9fbd20fbd8b05db2aa3ed,62bbfb5342025b59ea7012ab,2022-06-29_08h12.40.086,Colour_Asymmetry_Pilot,2022.1.3,Win32,60.28817749,62bbe60bf3d75ef465d3e404,,,,,,,,,,,,,,,,,,,,,,,,,,,,,,,,,,,,,,,,,,,,,,,,,,,,,,,,,,,,,,,,,,,,,,,,,,,,,,,,,,,,,,,,,,,,,,,,,,,,,,,,,,,,,,,,,,,,,,,,,,,,,,,,,,,,,,,,,,,,,,,,,,,,,,,,,,,,,,
0,24,24,57,1,,5db9fbd20fbd8b05db2aa3ed,62bbfb5342025b59ea7012ab,2022-06-29_08h12.40.086,Colour_Asymmetry_Pilot,2022.1.3,Win32,60.28817749,62bbe60bf3d75ef465d3e404,,,,,,,,,,,,,,,,,,,,,,,,,,,,,,,,,,,,,,,,,,,,,,,,,,,,,,,,,,,,,,,,,,,,,,,,,,,,,,,,,,,,,,,,,,,,,,,,,,,,,,,,,,,,,,,,,,,,,,,,,,,,,,,,,,,,,,,,,,,,,,,,,,,,,,,,,,,,,,
0,25,25,37,1,,5db9fbd20fbd8b05db2aa3ed,62bbfb5342025b59ea7012ab,2022-06-29_08h12.40.086,Colour_Asymmetry_Pilot,2022.1.3,Win32,60.28817749,62bbe60bf3d75ef465d3e404,,,,,,,,,,,,,,,,,,,,,,,,,,,,,,,,,,,,,,,,,,,,,,,,,,,,,,,,,,,,,,,,,,,,,,,,,,,,,,,,,,,,,,,,,,,,,,,,,,,,,,,,,,,,,,,,,,,,,,,,,,,,,,,,,,,,,,,,,,,,,,,,,,,,,,,,,,,,,,
0,26,26,88,1,,5db9fbd20fbd8b05db2aa3ed,62bbfb5342025b59ea7012ab,2022-06-29_08h12.40.086,Colour_Asymmetry_Pilot,2022.1.3,Win32,60.28817749,62bbe60bf3d75ef465d3e404,,,,,,,,,,,,,,,,,,,,,,,,,,,,,,,,,,,,,,,,,,,,,,,,,,,,,,,,,,,,,,,,,,,,,,,,,,,,,,,,,,,,,,,,,,,,,,,,,,,,,,,,,,,,,,,,,,,,,,,,,,,,,,,,,,,,,,,,,,,,,,,,,,,,,,,,,,,,,,
0,27,27,21,1,,5db9fbd20fbd8b05db2aa3ed,62bbfb5342025b59ea7012ab,2022-06-29_08h12.40.086,Colour_Asymmetry_Pilot,2022.1.3,Win32,60.28817749,62bbe60bf3d75ef465d3e404,,,,,,,,,,,,,,,,,,,,,,,,,,,,,,,,,,,,,,,,,,,,,,,,,,,,,,,,,,,,,,,,,,,,,,,,,,,,,,,,,,,,,,,,,,,,,,,,,,,,,,,,,,,,,,,,,,,,,,,,,,,,,,,,,,,,,,,,,,,,,,,,,,,,,,,,,,,,,,
0,28,28,70,1,,5db9fbd20fbd8b05db2aa3ed,62bbfb5342025b59ea7012ab,2022-06-29_08h12.40.086,Colour_Asymmetry_Pilot,2022.1.3,Win32,60.28817749,62bbe60bf3d75ef465d3e404,,,,,,,,,,,,,,,,,,,,,,,,,,,,,,,,,,,,,,,,,,,,,,,,,,,,,,,,,,,,,,,,,,,,,,,,,,,,,,,,,,,,,,,,,,,,,,,,,,,,,,,,,,,,,,,,,,,,,,,,,,,,,,,,,,,,,,,,,,,,,,,,,,,,,,,,,,,,,,
0,29,29,33,1,,5db9fbd20fbd8b05db2aa3ed,62bbfb5342025b59ea7012ab,2022-06-29_08h12.40.086,Colour_Asymmetry_Pilot,2022.1.3,Win32,60.28817749,62bbe60bf3d75ef465d3e404,,,,,,,,,,,,,,,,,,,,,,,,,,,,,,,,,,,,,,,,,,,,,,,,,,,,,,,,,,,,,,,,,,,,,,,,,,,,,,,,,,,,,,,,,,,,,,,,,,,,,,,,,,,,,,,,,,,,,,,,,,,,,,,,,,,,,,,,,,,,,,,,,,,,,,,,,,,,,,
0,30,30,18,1,,5db9fbd20fbd8b05db2aa3ed,62bbfb5342025b59ea7012ab,2022-06-29_08h12.40.086,Colour_Asymmetry_Pilot,2022.1.3,Win32,60.28817749,62bbe60bf3d75ef465d3e404,,,,,,,,,,,,,,,,,,,,,,,,,,,,,,,,,,,,,,,,,,,,,,,,,,,,,,,,,,,,,,,,,,,,,,,,,,,,,,,,,,,,,,,,,,,,,,,,,,,,,,,,,,,,,,,,,,,,,,,,,,,,,,,,,,,,,,,,,,,,,,,,,,,,,,,,,,,,,,
0,31,31,71,1,,5db9fbd20fbd8b05db2aa3ed,62bbfb5342025b59ea7012ab,2022-06-29_08h12.40.086,Colour_Asymmetry_Pilot,2022.1.3,Win32,60.28817749,62bbe60bf3d75ef465d3e404,,,,,,,,,,,,,,,,,,,,,,,,,,,,,,,,,,,,,,,,,,,,,,,,,,,,,,,,,,,,,,,,,,,,,,,,,,,,,,,,,,,,,,,,,,,,,,,,,,,,,,,,,,,,,,,,,,,,,,,,,,,,,,,,,,,,,,,,,,,,,,,,,,,,,,,,,,,,,,
0,32,32,1,1,,5db9fbd20fbd8b05db2aa3ed,62bbfb5342025b59ea7012ab,2022-06-29_08h12.40.086,Colour_Asymmetry_Pilot,2022.1.3,Win32,60.28817749,62bbe60bf3d75ef465d3e404,,,,,,,,,,,,,,,,,,,,,,,,,,,,,,,,,,,,,,,,,,,,,,,,,,,,,,,,,,,,,,,,,,,,,,,,,,,,,,,,,,,,,,,,,,,,,,,,,,,,,,,,,,,,,,,,,,,,,,,,,,,,,,,,,,,,,,,,,,,,,,,,,,,,,,,,,,,,,,
0,33,33,25,1,,5db9fbd20fbd8b05db2aa3ed,62bbfb5342025b59ea7012ab,2022-06-29_08h12.40.086,Colour_Asymmetry_Pilot,2022.1.3,Win32,60.28817749,62bbe60bf3d75ef465d3e404,,,,,,,,,,,,,,,,,,,,,,,,,,,,,,,,,,,,,,,,,,,,,,,,,,,,,,,,,,,,,,,,,,,,,,,,,,,,,,,,,,,,,,,,,,,,,,,,,,,,,,,,,,,,,,,,,,,,,,,,,,,,,,,,,,,,,,,,,,,,,,,,,,,,,,,,,,,,,,
0,34,34,69,1,,5db9fbd20fbd8b05db2aa3ed,62bbfb5342025b59ea7012ab,2022-06-29_08h12.40.086,Colour_Asymmetry_Pilot,2022.1.3,Win32,60.28817749,62bbe60bf3d75ef465d3e404,,,,,,,,,,,,,,,,,,,,,,,,,,,,,,,,,,,,,,,,,,,,,,,,,,,,,,,,,,,,,,,,,,,,,,,,,,,,,,,,,,,,,,,,,,,,,,,,,,,,,,,,,,,,,,,,,,,,,,,,,,,,,,,,,,,,,,,,,,,,,,,,,,,,,,,,,,,,,,
0,35,35,23,1,,5db9fbd20fbd8b05db2aa3ed,62bbfb5342025b59ea7012ab,2022-06-29_08h12.40.086,Colour_Asymmetry_Pilot,2022.1.3,Win32,60.28817749,62bbe60bf3d75ef465d3e404,,,,,,,,,,,,,,,,,,,,,,,,,,,,,,,,,,,,,,,,,,,,,,,,,,,,,,,,,,,,,,,,,,,,,,,,,,,,,,,,,,,,,,,,,,,,,,,,,,,,,,,,,,,,,,,,,,,,,,,,,,,,,,,,,,,,,,,,,,,,,,,,,,,,,,,,,,,,,,
0,36,36,30,1,,5db9fbd20fbd8b05db2aa3ed,62bbfb5342025b59ea7012ab,2022-06-29_08h12.40.086,Colour_Asymmetry_Pilot,2022.1.3,Win32,60.28817749,62bbe60bf3d75ef465d3e404,,,,,,,,,,,,,,,,,,,,,,,,,,,,,,,,,,,,,,,,,,,,,,,,,,,,,,,,,,,,,,,,,,,,,,,,,,,,,,,,,,,,,,,,,,,,,,,,,,,,,,,,,,,,,,,,,,,,,,,,,,,,,,,,,,,,,,,,,,,,,,,,,,,,,,,,,,,,,,
0,37,37,91,1,,5db9fbd20fbd8b05db2aa3ed,62bbfb5342025b59ea7012ab,2022-06-29_08h12.40.086,Colour_Asymmetry_Pilot,2022.1.3,Win32,60.28817749,62bbe60bf3d75ef465d3e404,,,,,,,,,,,,,,,,,,,,,,,,,,,,,,,,,,,,,,,,,,,,,,,,,,,,,,,,,,,,,,,,,,,,,,,,,,,,,,,,,,,,,,,,,,,,,,,,,,,,,,,,,,,,,,,,,,,,,,,,,,,,,,,,,,,,,,,,,,,,,,,,,,,,,,,,,,,,,,
0,38,38,13,1,,5db9fbd20fbd8b05db2aa3ed,62bbfb5342025b59ea7012ab,2022-06-29_08h12.40.086,Colour_Asymmetry_Pilot,2022.1.3,Win32,60.28817749,62bbe60bf3d75ef465d3e404,,,,,,,,,,,,,,,,,,,,,,,,,,,,,,,,,,,,,,,,,,,,,,,,,,,,,,,,,,,,,,,,,,,,,,,,,,,,,,,,,,,,,,,,,,,,,,,,,,,,,,,,,,,,,,,,,,,,,,,,,,,,,,,,,,,,,,,,,,,,,,,,,,,,,,,,,,,,,,
0,39,39,85,1,,5db9fbd20fbd8b05db2aa3ed,62bbfb5342025b59ea7012ab,2022-06-29_08h12.40.086,Colour_Asymmetry_Pilot,2022.1.3,Win32,60.28817749,62bbe60bf3d75ef465d3e404,,,,,,,,,,,,,,,,,,,,,,,,,,,,,,,,,,,,,,,,,,,,,,,,,,,,,,,,,,,,,,,,,,,,,,,,,,,,,,,,,,,,,,,,,,,,,,,,,,,,,,,,,,,,,,,,,,,,,,,,,,,,,,,,,,,,,,,,,,,,,,,,,,,,,,,,,,,,,,
0,40,40,43,1,,5db9fbd20fbd8b05db2aa3ed,62bbfb5342025b59ea7012ab,2022-06-29_08h12.40.086,Colour_Asymmetry_Pilot,2022.1.3,Win32,60.28817749,62bbe60bf3d75ef465d3e404,,,,,,,,,,,,,,,,,,,,,,,,,,,,,,,,,,,,,,,,,,,,,,,,,,,,,,,,,,,,,,,,,,,,,,,,,,,,,,,,,,,,,,,,,,,,,,,,,,,,,,,,,,,,,,,,,,,,,,,,,,,,,,,,,,,,,,,,,,,,,,,,,,,,,,,,,,,,,,
0,41,41,35,1,,5db9fbd20fbd8b05db2aa3ed,62bbfb5342025b59ea7012ab,2022-06-29_08h12.40.086,Colour_Asymmetry_Pilot,2022.1.3,Win32,60.28817749,62bbe60bf3d75ef465d3e404,,,,,,,,,,,,,,,,,,,,,,,,,,,,,,,,,,,,,,,,,,,,,,,,,,,,,,,,,,,,,,,,,,,,,,,,,,,,,,,,,,,,,,,,,,,,,,,,,,,,,,,,,,,,,,,,,,,,,,,,,,,,,,,,,,,,,,,,,,,,,,,,,,,,,,,,,,,,,,
0,42,42,16,1,,5db9fbd20fbd8b05db2aa3ed,62bbfb5342025b59ea7012ab,2022-06-29_08h12.40.086,Colour_Asymmetry_Pilot,2022.1.3,Win32,60.28817749,62bbe60bf3d75ef465d3e404,,,,,,,,,,,,,,,,,,,,,,,,,,,,,,,,,,,,,,,,,,,,,,,,,,,,,,,,,,,,,,,,,,,,,,,,,,,,,,,,,,,,,,,,,,,,,,,,,,,,,,,,,,,,,,,,,,,,,,,,,,,,,,,,,,,,,,,,,,,,,,,,,,,,,,,,,,,,,,
0,43,43,80,1,,5db9fbd20fbd8b05db2aa3ed,62bbfb5342025b59ea7012ab,2022-06-29_08h12.40.086,Colour_Asymmetry_Pilot,2022.1.3,Win32,60.28817749,62bbe60bf3d75ef465d3e404,,,,,,,,,,,,,,,,,,,,,,,,,,,,,,,,,,,,,,,,,,,,,,,,,,,,,,,,,,,,,,,,,,,,,,,,,,,,,,,,,,,,,,,,,,,,,,,,,,,,,,,,,,,,,,,,,,,,,,,,,,,,,,,,,,,,,,,,,,,,,,,,,,,,,,,,,,,,,,
0,44,44,3,1,,5db9fbd20fbd8b05db2aa3ed,62bbfb5342025b59ea7012ab,2022-06-29_08h12.40.086,Colour_Asymmetry_Pilot,2022.1.3,Win32,60.28817749,62bbe60bf3d75ef465d3e404,,,,,,,,,,,,,,,,,,,,,,,,,,,,,,,,,,,,,,,,,,,,,,,,,,,,,,,,,,,,,,,,,,,,,,,,,,,,,,,,,,,,,,,,,,,,,,,,,,,,,,,,,,,,,,,,,,,,,,,,,,,,,,,,,,,,,,,,,,,,,,,,,,,,,,,,,,,,,,
0,45,45,63,1,,5db9fbd20fbd8b05db2aa3ed,62bbfb5342025b59ea7012ab,2022-06-29_08h12.40.086,Colour_Asymmetry_Pilot,2022.1.3,Win32,60.28817749,62bbe60bf3d75ef465d3e404,,,,,,,,,,,,,,,,,,,,,,,,,,,,,,,,,,,,,,,,,,,,,,,,,,,,,,,,,,,,,,,,,,,,,,,,,,,,,,,,,,,,,,,,,,,,,,,,,,,,,,,,,,,,,,,,,,,,,,,,,,,,,,,,,,,,,,,,,,,,,,,,,,,,,,,,,,,,,,
0,46,46,54,1,,5db9fbd20fbd8b05db2aa3ed,62bbfb5342025b59ea7012ab,2022-06-29_08h12.40.086,Colour_Asymmetry_Pilot,2022.1.3,Win32,60.28817749,62bbe60bf3d75ef465d3e404,,,,,,,,,,,,,,,,,,,,,,,,,,,,,,,,,,,,,,,,,,,,,,,,,,,,,,,,,,,,,,,,,,,,,,,,,,,,,,,,,,,,,,,,,,,,,,,,,,,,,,,,,,,,,,,,,,,,,,,,,,,,,,,,,,,,,,,,,,,,,,,,,,,,,,,,,,,,,,
0,47,47,9,1,,5db9fbd20fbd8b05db2aa3ed,62bbfb5342025b59ea7012ab,2022-06-29_08h12.40.086,Colour_Asymmetry_Pilot,2022.1.3,Win32,60.28817749,62bbe60bf3d75ef465d3e404,,,,,,,,,,,,,,,,,,,,,,,,,,,,,,,,,,,,,,,,,,,,,,,,,,,,,,,,,,,,,,,,,,,,,,,,,,,,,,,,,,,,,,,,,,,,,,,,,,,,,,,,,,,,,,,,,,,,,,,,,,,,,,,,,,,,,,,,,,,,,,,,,,,,,,,,,,,,,,
0,48,48,17,1,,5db9fbd20fbd8b05db2aa3ed,62bbfb5342025b59ea7012ab,2022-06-29_08h12.40.086,Colour_Asymmetry_Pilot,2022.1.3,Win32,60.28817749,62bbe60bf3d75ef465d3e404,,,,,,,,,,,,,,,,,,,,,,,,,,,,,,,,,,,,,,,,,,,,,,,,,,,,,,,,,,,,,,,,,,,,,,,,,,,,,,,,,,,,,,,,,,,,,,,,,,,,,,,,,,,,,,,,,,,,,,,,,,,,,,,,,,,,,,,,,,,,,,,,,,,,,,,,,,,,,,
0,49,49,78,1,,5db9fbd20fbd8b05db2aa3ed,62bbfb5342025b59ea7012ab,2022-06-29_08h12.40.086,Colour_Asymmetry_Pilot,2022.1.3,Win32,60.28817749,62bbe60bf3d75ef465d3e404,,,,,,,,,,,,,,,,,,,,,,,,,,,,,,,,,,,,,,,,,,,,,,,,,,,,,,,,,,,,,,,,,,,,,,,,,,,,,,,,,,,,,,,,,,,,,,,,,,,,,,,,,,,,,,,,,,,,,,,,,,,,,,,,,,,,,,,,,,,,,,,,,,,,,,,,,,,,,,
0,50,50,49,1,,5db9fbd20fbd8b05db2aa3ed,62bbfb5342025b59ea7012ab,2022-06-29_08h12.40.086,Colour_Asymmetry_Pilot,2022.1.3,Win32,60.28817749,62bbe60bf3d75ef465d3e404,,,,,,,,,,,,,,,,,,,,,,,,,,,,,,,,,,,,,,,,,,,,,,,,,,,,,,,,,,,,,,,,,,,,,,,,,,,,,,,,,,,,,,,,,,,,,,,,,,,,,,,,,,,,,,,,,,,,,,,,,,,,,,,,,,,,,,,,,,,,,,,,,,,,,,,,,,,,,,
0,51,51,61,1,,5db9fbd20fbd8b05db2aa3ed,62bbfb5342025b59ea7012ab,2022-06-29_08h12.40.086,Colour_Asymmetry_Pilot,2022.1.3,Win32,60.28817749,62bbe60bf3d75ef465d3e404,,,,,,,,,,,,,,,,,,,,,,,,,,,,,,,,,,,,,,,,,,,,,,,,,,,,,,,,,,,,,,,,,,,,,,,,,,,,,,,,,,,,,,,,,,,,,,,,,,,,,,,,,,,,,,,,,,,,,,,,,,,,,,,,,,,,,,,,,,,,,,,,,,,,,,,,,,,,,,
0,52,52,6,1,,5db9fbd20fbd8b05db2aa3ed,62bbfb5342025b59ea7012ab,2022-06-29_08h12.40.086,Colour_Asymmetry_Pilot,2022.1.3,Win32,60.28817749,62bbe60bf3d75ef465d3e404,,,,,,,,,,,,,,,,,,,,,,,,,,,,,,,,,,,,,,,,,,,,,,,,,,,,,,,,,,,,,,,,,,,,,,,,,,,,,,,,,,,,,,,,,,,,,,,,,,,,,,,,,,,,,,,,,,,,,,,,,,,,,,,,,,,,,,,,,,,,,,,,,,,,,,,,,,,,,,
0,53,53,32,1,,5db9fbd20fbd8b05db2aa3ed,62bbfb5342025b59ea7012ab,2022-06-29_08h12.40.086,Colour_Asymmetry_Pilot,2022.1.3,Win32,60.28817749,62bbe60bf3d75ef465d3e404,,,,,,,,,,,,,,,,,,,,,,,,,,,,,,,,,,,,,,,,,,,,,,,,,,,,,,,,,,,,,,,,,,,,,,,,,,,,,,,,,,,,,,,,,,,,,,,,,,,,,,,,,,,,,,,,,,,,,,,,,,,,,,,,,,,,,,,,,,,,,,,,,,,,,,,,,,,,,,
0,54,54,27,1,,5db9fbd20fbd8b05db2aa3ed,62bbfb5342025b59ea7012ab,2022-06-29_08h12.40.086,Colour_Asymmetry_Pilot,2022.1.3,Win32,60.28817749,62bbe60bf3d75ef465d3e404,,,,,,,,,,,,,,,,,,,,,,,,,,,,,,,,,,,,,,,,,,,,,,,,,,,,,,,,,,,,,,,,,,,,,,,,,,,,,,,,,,,,,,,,,,,,,,,,,,,,,,,,,,,,,,,,,,,,,,,,,,,,,,,,,,,,,,,,,,,,,,,,,,,,,,,,,,,,,,
0,55,55,5,1,,5db9fbd20fbd8b05db2aa3ed,62bbfb5342025b59ea7012ab,2022-06-29_08h12.40.086,Colour_Asymmetry_Pilot,2022.1.3,Win32,60.28817749,62bbe60bf3d75ef465d3e404,,,,,,,,,,,,,,,,,,,,,,,,,,,,,,,,,,,,,,,,,,,,,,,,,,,,,,,,,,,,,,,,,,,,,,,,,,,,,,,,,,,,,,,,,,,,,,,,,,,,,,,,,,,,,,,,,,,,,,,,,,,,,,,,,,,,,,,,,,,,,,,,,,,,,,,,,,,,,,
0,56,56,22,1,,5db9fbd20fbd8b05db2aa3ed,62bbfb5342025b59ea7012ab,2022-06-29_08h12.40.086,Colour_Asymmetry_Pilot,2022.1.3,Win32,60.28817749,62bbe60bf3d75ef465d3e404,,,,,,,,,,,,,,,,,,,,,,,,,,,,,,,,,,,,,,,,,,,,,,,,,,,,,,,,,,,,,,,,,,,,,,,,,,,,,,,,,,,,,,,,,,,,,,,,,,,,,,,,,,,,,,,,,,,,,,,,,,,,,,,,,,,,,,,,,,,,,,,,,,,,,,,,,,,,,,
0,57,57,66,1,,5db9fbd20fbd8b05db2aa3ed,62bbfb5342025b59ea7012ab,2022-06-29_08h12.40.086,Colour_Asymmetry_Pilot,2022.1.3,Win32,60.28817749,62bbe60bf3d75ef465d3e404,,,,,,,,,,,,,,,,,,,,,,,,,,,,,,,,,,,,,,,,,,,,,,,,,,,,,,,,,,,,,,,,,,,,,,,,,,,,,,,,,,,,,,,,,,,,,,,,,,,,,,,,,,,,,,,,,,,,,,,,,,,,,,,,,,,,,,,,,,,,,,,,,,,,,,,,,,,,,,
0,58,58,48,1,,5db9fbd20fbd8b05db2aa3ed,62bbfb5342025b59ea7012ab,2022-06-29_08h12.40.086,Colour_Asymmetry_Pilot,2022.1.3,Win32,60.28817749,62bbe60bf3d75ef465d3e404,,,,,,,,,,,,,,,,,,,,,,,,,,,,,,,,,,,,,,,,,,,,,,,,,,,,,,,,,,,,,,,,,,,,,,,,,,,,,,,,,,,,,,,,,,,,,,,,,,,,,,,,,,,,,,,,,,,,,,,,,,,,,,,,,,,,,,,,,,,,,,,,,,,,,,,,,,,,,,
0,59,59,41,1,,5db9fbd20fbd8b05db2aa3ed,62bbfb5342025b59ea7012ab,2022-06-29_08h12.40.086,Colour_Asymmetry_Pilot,2022.1.3,Win32,60.28817749,62bbe60bf3d75ef465d3e404,,,,,,,,,,,,,,,,,,,,,,,,,,,,,,,,,,,,,,,,,,,,,,,,,,,,,,,,,,,,,,,,,,,,,,,,,,,,,,,,,,,,,,,,,,,,,,,,,,,,,,,,,,,,,,,,,,,,,,,,,,,,,,,,,,,,,,,,,,,,,,,,,,,,,,,,,,,,,,
0,60,60,24,1,,5db9fbd20fbd8b05db2aa3ed,62bbfb5342025b59ea7012ab,2022-06-29_08h12.40.086,Colour_Asymmetry_Pilot,2022.1.3,Win32,60.28817749,62bbe60bf3d75ef465d3e404,,,,,,,,,,,,,,,,,,,,,,,,,,,,,,,,,,,,,,,,,,,,,,,,,,,,,,,,,,,,,,,,,,,,,,,,,,,,,,,,,,,,,,,,,,,,,,,,,,,,,,,,,,,,,,,,,,,,,,,,,,,,,,,,,,,,,,,,,,,,,,,,,,,,,,,,,,,,,,
0,61,61,4,1,,5db9fbd20fbd8b05db2aa3ed,62bbfb5342025b59ea7012ab,2022-06-29_08h12.40.086,Colour_Asymmetry_Pilot,2022.1.3,Win32,60.28817749,62bbe60bf3d75ef465d3e404,,,,,,,,,,,,,,,,,,,,,,,,,,,,,,,,,,,,,,,,,,,,,,,,,,,,,,,,,,,,,,,,,,,,,,,,,,,,,,,,,,,,,,,,,,,,,,,,,,,,,,,,,,,,,,,,,,,,,,,,,,,,,,,,,,,,,,,,,,,,,,,,,,,,,,,,,,,,,,
0,62,62,72,1,,5db9fbd20fbd8b05db2aa3ed,62bbfb5342025b59ea7012ab,2022-06-29_08h12.40.086,Colour_Asymmetry_Pilot,2022.1.3,Win32,60.28817749,62bbe60bf3d75ef465d3e404,,,,,,,,,,,,,,,,,,,,,,,,,,,,,,,,,,,,,,,,,,,,,,,,,,,,,,,,,,,,,,,,,,,,,,,,,,,,,,,,,,,,,,,,,,,,,,,,,,,,,,,,,,,,,,,,,,,,,,,,,,,,,,,,,,,,,,,,,,,,,,,,,,,,,,,,,,,,,,
0,63,63,73,1,,5db9fbd20fbd8b05db2aa3ed,62bbfb5342025b59ea7012ab,2022-06-29_08h12.40.086,Colour_Asymmetry_Pilot,2022.1.3,Win32,60.28817749,62bbe60bf3d75ef465d3e404,,,,,,,,,,,,,,,,,,,,,,,,,,,,,,,,,,,,,,,,,,,,,,,,,,,,,,,,,,,,,,,,,,,,,,,,,,,,,,,,,,,,,,,,,,,,,,,,,,,,,,,,,,,,,,,,,,,,,,,,,,,,,,,,,,,,,,,,,,,,,,,,,,,,,,,,,,,,,,
0,64,64,65,1,,5db9fbd20fbd8b05db2aa3ed,62bbfb5342025b59ea7012ab,2022-06-29_08h12.40.086,Colour_Asymmetry_Pilot,2022.1.3,Win32,60.28817749,62bbe60bf3d75ef465d3e404,,,,,,,,,,,,,,,,,,,,,,,,,,,,,,,,,,,,,,,,,,,,,,,,,,,,,,,,,,,,,,,,,,,,,,,,,,,,,,,,,,,,,,,,,,,,,,,,,,,,,,,,,,,,,,,,,,,,,,,,,,,,,,,,,,,,,,,,,,,,,,,,,,,,,,,,,,,,,,
0,65,65,75,1,,5db9fbd20fbd8b05db2aa3ed,62bbfb5342025b59ea7012ab,2022-06-29_08h12.40.086,Colour_Asymmetry_Pilot,2022.1.3,Win32,60.28817749,62bbe60bf3d75ef465d3e404,,,,,,,,,,,,,,,,,,,,,,,,,,,,,,,,,,,,,,,,,,,,,,,,,,,,,,,,,,,,,,,,,,,,,,,,,,,,,,,,,,,,,,,,,,,,,,,,,,,,,,,,,,,,,,,,,,,,,,,,,,,,,,,,,,,,,,,,,,,,,,,,,,,,,,,,,,,,,,
0,66,66,50,1,,5db9fbd20fbd8b05db2aa3ed,62bbfb5342025b59ea7012ab,2022-06-29_08h12.40.086,Colour_Asymmetry_Pilot,2022.1.3,Win32,60.28817749,62bbe60bf3d75ef465d3e404,,,,,,,,,,,,,,,,,,,,,,,,,,,,,,,,,,,,,,,,,,,,,,,,,,,,,,,,,,,,,,,,,,,,,,,,,,,,,,,,,,,,,,,,,,,,,,,,,,,,,,,,,,,,,,,,,,,,,,,,,,,,,,,,,,,,,,,,,,,,,,,,,,,,,,,,,,,,,,
0,67,67,0,1,,5db9fbd20fbd8b05db2aa3ed,62bbfb5342025b59ea7012ab,2022-06-29_08h12.40.086,Colour_Asymmetry_Pilot,2022.1.3,Win32,60.28817749,62bbe60bf3d75ef465d3e404,,,,,,,,,,,,,,,,,,,,,,,,,,,,,,,,,,,,,,,,,,,,,,,,,,,,,,,,,,,,,,,,,,,,,,,,,,,,,,,,,,,,,,,,,,,,,,,,,,,,,,,,,,,,,,,,,,,,,,,,,,,,,,,,,,,,,,,,,,,,,,,,,,,,,,,,,,,,,,
0,68,68,87,1,,5db9fbd20fbd8b05db2aa3ed,62bbfb5342025b59ea7012ab,2022-06-29_08h12.40.086,Colour_Asymmetry_Pilot,2022.1.3,Win32,60.28817749,62bbe60bf3d75ef465d3e404,,,,,,,,,,,,,,,,,,,,,,,,,,,,,,,,,,,,,,,,,,,,,,,,,,,,,,,,,,,,,,,,,,,,,,,,,,,,,,,,,,,,,,,,,,,,,,,,,,,,,,,,,,,,,,,,,,,,,,,,,,,,,,,,,,,,,,,,,,,,,,,,,,,,,,,,,,,,,,
0,69,69,68,1,,5db9fbd20fbd8b05db2aa3ed,62bbfb5342025b59ea7012ab,2022-06-29_08h12.40.086,Colour_Asymmetry_Pilot,2022.1.3,Win32,60.28817749,62bbe60bf3d75ef465d3e404,,,,,,,,,,,,,,,,,,,,,,,,,,,,,,,,,,,,,,,,,,,,,,,,,,,,,,,,,,,,,,,,,,,,,,,,,,,,,,,,,,,,,,,,,,,,,,,,,,,,,,,,,,,,,,,,,,,,,,,,,,,,,,,,,,,,,,,,,,,,,,,,,,,,,,,,,,,,,,
0,70,70,12,1,,5db9fbd20fbd8b05db2aa3ed,62bbfb5342025b59ea7012ab,2022-06-29_08h12.40.086,Colour_Asymmetry_Pilot,2022.1.3,Win32,60.28817749,62bbe60bf3d75ef465d3e404,,,,,,,,,,,,,,,,,,,,,,,,,,,,,,,,,,,,,,,,,,,,,,,,,,,,,,,,,,,,,,,,,,,,,,,,,,,,,,,,,,,,,,,,,,,,,,,,,,,,,,,,,,,,,,,,,,,,,,,,,,,,,,,,,,,,,,,,,,,,,,,,,,,,,,,,,,,,,,
0,71,71,2,1,,5db9fbd20fbd8b05db2aa3ed,62bbfb5342025b59ea7012ab,2022-06-29_08h12.40.086,Colour_Asymmetry_Pilot,2022.1.3,Win32,60.28817749,62bbe60bf3d75ef465d3e404,,,,,,,,,,,,,,,,,,,,,,,,,,,,,,,,,,,,,,,,,,,,,,,,,,,,,,,,,,,,,,,,,,,,,,,,,,,,,,,,,,,,,,,,,,,,,,,,,,,,,,,,,,,,,,,,,,,,,,,,,,,,,,,,,,,,,,,,,,,,,,,,,,,,,,,,,,,,,,
0,72,72,28,1,,5db9fbd20fbd8b05db2aa3ed,62bbfb5342025b59ea7012ab,2022-06-29_08h12.40.086,Colour_Asymmetry_Pilot,2022.1.3,Win32,60.28817749,62bbe60bf3d75ef465d3e404,,,,,,,,,,,,,,,,,,,,,,,,,,,,,,,,,,,,,,,,,,,,,,,,,,,,,,,,,,,,,,,,,,,,,,,,,,,,,,,,,,,,,,,,,,,,,,,,,,,,,,,,,,,,,,,,,,,,,,,,,,,,,,,,,,,,,,,,,,,,,,,,,,,,,,,,,,,,,,
0,73,73,83,1,,5db9fbd20fbd8b05db2aa3ed,62bbfb5342025b59ea7012ab,2022-06-29_08h12.40.086,Colour_Asymmetry_Pilot,2022.1.3,Win32,60.28817749,62bbe60bf3d75ef465d3e404,,,,,,,,,,,,,,,,,,,,,,,,,,,,,,,,,,,,,,,,,,,,,,,,,,,,,,,,,,,,,,,,,,,,,,,,,,,,,,,,,,,,,,,,,,,,,,,,,,,,,,,,,,,,,,,,,,,,,,,,,,,,,,,,,,,,,,,,,,,,,,,,,,,,,,,,,,,,,,
0,74,74,67,1,,5db9fbd20fbd8b05db2aa3ed,62bbfb5342025b59ea7012ab,2022-06-29_08h12.40.086,Colour_Asymmetry_Pilot,2022.1.3,Win32,60.28817749,62bbe60bf3d75ef465d3e404,,,,,,,,,,,,,,,,,,,,,,,,,,,,,,,,,,,,,,,,,,,,,,,,,,,,,,,,,,,,,,,,,,,,,,,,,,,,,,,,,,,,,,,,,,,,,,,,,,,,,,,,,,,,,,,,,,,,,,,,,,,,,,,,,,,,,,,,,,,,,,,,,,,,,,,,,,,,,,
0,75,75,34,1,,5db9fbd20fbd8b05db2aa3ed,62bbfb5342025b59ea7012ab,2022-06-29_08h12.40.086,Colour_Asymmetry_Pilot,2022.1.3,Win32,60.28817749,62bbe60bf3d75ef465d3e404,,,,,,,,,,,,,,,,,,,,,,,,,,,,,,,,,,,,,,,,,,,,,,,,,,,,,,,,,,,,,,,,,,,,,,,,,,,,,,,,,,,,,,,,,,,,,,,,,,,,,,,,,,,,,,,,,,,,,,,,,,,,,,,,,,,,,,,,,,,,,,,,,,,,,,,,,,,,,,
0,76,76,51,1,,5db9fbd20fbd8b05db2aa3ed,62bbfb5342025b59ea7012ab,2022-06-29_08h12.40.086,Colour_Asymmetry_Pilot,2022.1.3,Win32,60.28817749,62bbe60bf3d75ef465d3e404,,,,,,,,,,,,,,,,,,,,,,,,,,,,,,,,,,,,,,,,,,,,,,,,,,,,,,,,,,,,,,,,,,,,,,,,,,,,,,,,,,,,,,,,,,,,,,,,,,,,,,,,,,,,,,,,,,,,,,,,,,,,,,,,,,,,,,,,,,,,,,,,,,,,,,,,,,,,,,
0,77,77,74,1,,5db9fbd20fbd8b05db2aa3ed,62bbfb5342025b59ea7012ab,2022-06-29_08h12.40.086,Colour_Asymmetry_Pilot,2022.1.3,Win32,60.28817749,62bbe60bf3d75ef465d3e404,,,,,,,,,,,,,,,,,,,,,,,,,,,,,,,,,,,,,,,,,,,,,,,,,,,,,,,,,,,,,,,,,,,,,,,,,,,,,,,,,,,,,,,,,,,,,,,,,,,,,,,,,,,,,,,,,,,,,,,,,,,,,,,,,,,,,,,,,,,,,,,,,,,,,,,,,,,,,,
0,78,78,90,1,,5db9fbd20fbd8b05db2aa3ed,62bbfb5342025b59ea7012ab,2022-06-29_08h12.40.086,Colour_Asymmetry_Pilot,2022.1.3,Win32,60.28817749,62bbe60bf3d75ef465d3e404,,,,,,,,,,,,,,,,,,,,,,,,,,,,,,,,,,,,,,,,,,,,,,,,,,,,,,,,,,,,,,,,,,,,,,,,,,,,,,,,,,,,,,,,,,,,,,,,,,,,,,,,,,,,,,,,,,,,,,,,,,,,,,,,,,,,,,,,,,,,,,,,,,,,,,,,,,,,,,
0,79,79,56,1,,5db9fbd20fbd8b05db2aa3ed,62bbfb5342025b59ea7012ab,2022-06-29_08h12.40.086,Colour_Asymmetry_Pilot,2022.1.3,Win32,60.28817749,62bbe60bf3d75ef465d3e404,,,,,,,,,,,,,,,,,,,,,,,,,,,,,,,,,,,,,,,,,,,,,,,,,,,,,,,,,,,,,,,,,,,,,,,,,,,,,,,,,,,,,,,,,,,,,,,,,,,,,,,,,,,,,,,,,,,,,,,,,,,,,,,,,,,,,,,,,,,,,,,,,,,,,,,,,,,,,,
0,80,80,10,1,,5db9fbd20fbd8b05db2aa3ed,62bbfb5342025b59ea7012ab,2022-06-29_08h12.40.086,Colour_Asymmetry_Pilot,2022.1.3,Win32,60.28817749,62bbe60bf3d75ef465d3e404,,,,,,,,,,,,,,,,,,,,,,,,,,,,,,,,,,,,,,,,,,,,,,,,,,,,,,,,,,,,,,,,,,,,,,,,,,,,,,,,,,,,,,,,,,,,,,,,,,,,,,,,,,,,,,,,,,,,,,,,,,,,,,,,,,,,,,,,,,,,,,,,,,,,,,,,,,,,,,
0,81,81,60,1,,5db9fbd20fbd8b05db2aa3ed,62bbfb5342025b59ea7012ab,2022-06-29_08h12.40.086,Colour_Asymmetry_Pilot,2022.1.3,Win32,60.28817749,62bbe60bf3d75ef465d3e404,,,,,,,,,,,,,,,,,,,,,,,,,,,,,,,,,,,,,,,,,,,,,,,,,,,,,,,,,,,,,,,,,,,,,,,,,,,,,,,,,,,,,,,,,,,,,,,,,,,,,,,,,,,,,,,,,,,,,,,,,,,,,,,,,,,,,,,,,,,,,,,,,,,,,,,,,,,,,,
0,82,82,76,1,,5db9fbd20fbd8b05db2aa3ed,62bbfb5342025b59ea7012ab,2022-06-29_08h12.40.086,Colour_Asymmetry_Pilot,2022.1.3,Win32,60.28817749,62bbe60bf3d75ef465d3e404,,,,,,,,,,,,,,,,,,,,,,,,,,,,,,,,,,,,,,,,,,,,,,,,,,,,,,,,,,,,,,,,,,,,,,,,,,,,,,,,,,,,,,,,,,,,,,,,,,,,,,,,,,,,,,,,,,,,,,,,,,,,,,,,,,,,,,,,,,,,,,,,,,,,,,,,,,,,,,
0,83,83,47,1,,5db9fbd20fbd8b05db2aa3ed,62bbfb5342025b59ea7012ab,2022-06-29_08h12.40.086,Colour_Asymmetry_Pilot,2022.1.3,Win32,60.28817749,62bbe60bf3d75ef465d3e404,,,,,,,,,,,,,,,,,,,,,,,,,,,,,,,,,,,,,,,,,,,,,,,,,,,,,,,,,,,,,,,,,,,,,,,,,,,,,,,,,,,,,,,,,,,,,,,,,,,,,,,,,,,,,,,,,,,,,,,,,,,,,,,,,,,,,,,,,,,,,,,,,,,,,,,,,,,,,,
0,84,84,53,1,,5db9fbd20fbd8b05db2aa3ed,62bbfb5342025b59ea7012ab,2022-06-29_08h12.40.086,Colour_Asymmetry_Pilot,2022.1.3,Win32,60.28817749,62bbe60bf3d75ef465d3e404,,,,,,,,,,,,,,,,,,,,,,,,,,,,,,,,,,,,,,,,,,,,,,,,,,,,,,,,,,,,,,,,,,,,,,,,,,,,,,,,,,,,,,,,,,,,,,,,,,,,,,,,,,,,,,,,,,,,,,,,,,,,,,,,,,,,,,,,,,,,,,,,,,,,,,,,,,,,,,
0,85,85,29,1,,5db9fbd20fbd8b05db2aa3ed,62bbfb5342025b59ea7012ab,2022-06-29_08h12.40.086,Colour_Asymmetry_Pilot,2022.1.3,Win32,60.28817749,62bbe60bf3d75ef465d3e404,,,,,,,,,,,,,,,,,,,,,,,,,,,,,,,,,,,,,,,,,,,,,,,,,,,,,,,,,,,,,,,,,,,,,,,,,,,,,,,,,,,,,,,,,,,,,,,,,,,,,,,,,,,,,,,,,,,,,,,,,,,,,,,,,,,,,,,,,,,,,,,,,,,,,,,,,,,,,,
0,86,86,86,1,,5db9fbd20fbd8b05db2aa3ed,62bbfb5342025b59ea7012ab,2022-06-29_08h12.40.086,Colour_Asymmetry_Pilot,2022.1.3,Win32,60.28817749,62bbe60bf3d75ef465d3e404,,,,,,,,,,,,,,,,,,,,,,,,,,,,,,,,,,,,,,,,,,,,,,,,,,,,,,,,,,,,,,,,,,,,,,,,,,,,,,,,,,,,,,,,,,,,,,,,,,,,,,,,,,,,,,,,,,,,,,,,,,,,,,,,,,,,,,,,,,,,,,,,,,,,,,,,,,,,,,
0,87,87,46,1,,5db9fbd20fbd8b05db2aa3ed,62bbfb5342025b59ea7012ab,2022-06-29_08h12.40.086,Colour_Asymmetry_Pilot,2022.1.3,Win32,60.28817749,62bbe60bf3d75ef465d3e404,,,,,,,,,,,,,,,,,,,,,,,,,,,,,,,,,,,,,,,,,,,,,,,,,,,,,,,,,,,,,,,,,,,,,,,,,,,,,,,,,,,,,,,,,,,,,,,,,,,,,,,,,,,,,,,,,,,,,,,,,,,,,,,,,,,,,,,,,,,,,,,,,,,,,,,,,,,,,,
0,88,88,55,1,,5db9fbd20fbd8b05db2aa3ed,62bbfb5342025b59ea7012ab,2022-06-29_08h12.40.086,Colour_Asymmetry_Pilot,2022.1.3,Win32,60.28817749,62bbe60bf3d75ef465d3e404,,,,,,,,,,,,,,,,,,,,,,,,,,,,,,,,,,,,,,,,,,,,,,,,,,,,,,,,,,,,,,,,,,,,,,,,,,,,,,,,,,,,,,,,,,,,,,,,,,,,,,,,,,,,,,,,,,,,,,,,,,,,,,,,,,,,,,,,,,,,,,,,,,,,,,,,,,,,,,
0,89,89,81,1,,5db9fbd20fbd8b05db2aa3ed,62bbfb5342025b59ea7012ab,2022-06-29_08h12.40.086,Colour_Asymmetry_Pilot,2022.1.3,Win32,60.28817749,62bbe60bf3d75ef465d3e404,,,,,,,,,,,,,,,,,,,,,,,,,,,,,,,,,,,,,,,,,,,,,,,,,,,,,,,,,,,,,,,,,,,,,,,,,,,,,,,,,,,,,,,,,,,,,,,,,,,,,,,,,,,,,,,,,,,,,,,,,,,,,,,,,,,,,,,,,,,,,,,,,,,,,,,,,,,,,,
0,90,90,39,1,,5db9fbd20fbd8b05db2aa3ed,62bbfb5342025b59ea7012ab,2022-06-29_08h12.40.086,Colour_Asymmetry_Pilot,2022.1.3,Win32,60.28817749,62bbe60bf3d75ef465d3e404,,,,,,,,,,,,,,,,,,,,,,,,,,,,,,,,,,,,,,,,,,,,,,,,,,,,,,,,,,,,,,,,,,,,,,,,,,,,,,,,,,,,,,,,,,,,,,,,,,,,,,,,,,,,,,,,,,,,,,,,,,,,,,,,,,,,,,,,,,,,,,,,,,,,,,,,,,,,,,
0,91,91,36,1,,5db9fbd20fbd8b05db2aa3ed,62bbfb5342025b59ea7012ab,2022-06-29_08h12.40.086,Colour_Asymmetry_Pilot,2022.1.3,Win32,60.28817749,62bbe60bf3d75ef465d3e404,,,,,,,,,,,,,,,,,,,,,,,,,,,,,,,,,,,,,,,,,,,,,,,,,,,,,,,,,,,,,,,,,,,,,,,,,,,,,,,,,,,,,,,,,,,,,,,,,,,,,,,,,,,,,,,,,,,,,,,,,,,,,,,,,,,,,,,,,,,,,,,,,,,,,,,,,,,,,,
0,92,92,64,1,,5db9fbd20fbd8b05db2aa3ed,62bbfb5342025b59ea7012ab,2022-06-29_08h12.40.086,Colour_Asymmetry_Pilot,2022.1.3,Win32,60.28817749,62bbe60bf3d75ef465d3e404,,,,,,,,,,,,,,,,,,,,,,,,,,,,,,,,,,,,,,,,,,,,,,,,,,,,,,,,,,,,,,,,,,,,,,,,,,,,,,,,,,,,,,,,,,,,,,,,,,,,,,,,,,,,,,,,,,,,,,,,,,,,,,,,,,,,,,,,,,,,,,,,,,,,,,,,,,,,,,
,,,,,,5db9fbd20fbd8b05db2aa3ed,62bbfb5342025b59ea7012ab,2022-06-29_08h12.40.086,Colour_Asymmetry_Pilot,2022.1.3,Win32,60.28817749,62bbe60bf3d75ef465d3e404,0,0,0,28,1,threeone,,,,,,,,,,,,,,,,,,,,,,,,,,,,,,,,,,,,,,,,,,,,,,,,,,,,,,,,,,,,,,,,,,,,,,,,,,,,,,,,,,,,,,,,,,,,,,,,,,,,,,,,,,,,,,,,,,,,,,,,,,,,,,,,,,,,,,,,,,,,,,,,,,,,,,,,
,,,,,,5db9fbd20fbd8b05db2aa3ed,62bbfb5342025b59ea7012ab,2022-06-29_08h12.40.086,Colour_Asymmetry_Pilot,2022.1.3,Win32,60.28817749,62bbe60bf3d75ef465d3e404,0,1,1,137,1,onethree,,,,,,,,,,,,,,,,,,,,,,,,,,,,,,,,,,,,,,,,,,,,,,,,,,,,,,,,,,,,,,,,,,,,,,,,,,,,,,,,,,,,,,,,,,,,,,,,,,,,,,,,,,,,,,,,,,,,,,,,,,,,,,,,,,,,,,,,,,,,,,,,,,,,,,,,
,,,,,,5db9fbd20fbd8b05db2aa3ed,62bbfb5342025b59ea7012ab,2022-06-29_08h12.40.086,Colour_Asymmetry_Pilot,2022.1.3,Win32,60.28817749,62bbe60bf3d75ef465d3e404,0,2,2,135,1,fourthree,,,,,,,,,,,,,,,,,,,,,,,,,,,,,,,,,,,,,,,,,,,,,,,,,,,,,,,,,,,,,,,,,,,,,,,,,,,,,,,,,,,,,,,,,,,,,,,,,,,,,,,,,,,,,,,,,,,,,,,,,,,,,,,,,,,,,,,,,,,,,,,,,,,,,,,,
,,,,,,5db9fbd20fbd8b05db2aa3ed,62bbfb5342025b59ea7012ab,2022-06-29_08h12.40.086,Colour_Asymmetry_Pilot,2022.1.3,Win32,60.28817749,62bbe60bf3d75ef465d3e404,0,3,3,90,1,twoone,,,,,,,,,,,,,,,,,,,,,,,,,,,,,,,,,,,,,,,,,,,,,,,,,,,,,,,,,,,,,,,,,,,,,,,,,,,,,,,,,,,,,,,,,,,,,,,,,,,,,,,,,,,,,,,,,,,,,,,,,,,,,,,,,,,,,,,,,,,,,,,,,,,,,,,,
,,,,,,5db9fbd20fbd8b05db2aa3ed,62bbfb5342025b59ea7012ab,2022-06-29_08h12.40.086,Colour_Asymmetry_Pilot,2022.1.3,Win32,60.28817749,62bbe60bf3d75ef465d3e404,0,4,4,127,1,fourthree,,,,,,,,,,,,,,,,,,,,,,,,,,,,,,,,,,,,,,,,,,,,,,,,,,,,,,,,,,,,,,,,,,,,,,,,,,,,,,,,,,,,,,,,,,,,,,,,,,,,,,,,,,,,,,,,,,,,,,,,,,,,,,,,,,,,,,,,,,,,,,,,,,,,,,,,
,,,,,,5db9fbd20fbd8b05db2aa3ed,62bbfb5342025b59ea7012ab,2022-06-29_08h12.40.086,Colour_Asymmetry_Pilot,2022.1.3,Win32,60.28817749,62bbe60bf3d75ef465d3e404,0,5,5,111,1,fourthree,,,,,,,,,,,,,,,,,,,,,,,,,,,,,,,,,,,,,,,,,,,,,,,,,,,,,,,,,,,,,,,,,,,,,,,,,,,,,,,,,,,,,,,,,,,,,,,,,,,,,,,,,,,,,,,,,,,,,,,,,,,,,,,,,,,,,,,,,,,,,,,,,,,,,,,,
,,,,,,5db9fbd20fbd8b05db2aa3ed,62bbfb5342025b59ea7012ab,2022-06-29_08h12.40.086,Colour_Asymmetry_Pilot,2022.1.3,Win32,60.28817749,62bbe60bf3d75ef465d3e404,0,6,6,158,1,fourtwo,,,,,,,,,,,,,,,,,,,,,,,,,,,,,,,,,,,,,,,,,,,,,,,,,,,,,,,,,,,,,,,,,,,,,,,,,,,,,,,,,,,,,,,,,,,,,,,,,,,,,,,,,,,,,,,,,,,,,,,,,,,,,,,,,,,,,,,,,,,,,,,,,,,,,,,,
,,,,,,5db9fbd20fbd8b05db2aa3ed,62bbfb5342025b59ea7012ab,2022-06-29_08h12.40.086,Colour_Asymmetry_Pilot,2022.1.3,Win32,60.28817749,62bbe60bf3d75ef465d3e404,0,7,7,131,1,twofour,,,,,,,,,,,,,,,,,,,,,,,,,,,,,,,,,,,,,,,,,,,,,,,,,,,,,,,,,,,,,,,,,,,,,,,,,,,,,,,,,,,,,,,,,,,,,,,,,,,,,,,,,,,,,,,,,,,,,,,,,,,,,,,,,,,,,,,,,,,,,,,,,,,,,,,,
,,,,,,5db9fbd20fbd8b05db2aa3ed,62bbfb5342025b59ea7012ab,2022-06-29_08h12.40.086,Colour_Asymmetry_Pilot,2022.1.3,Win32,60.28817749,62bbe60bf3d75ef465d3e404,0,8,8,39,1,fourthree,,,,,,,,,,,,,,,,,,,,,,,,,,,,,,,,,,,,,,,,,,,,,,,,,,,,,,,,,,,,,,,,,,,,,,,,,,,,,,,,,,,,,,,,,,,,,,,,,,,,,,,,,,,,,,,,,,,,,,,,,,,,,,,,,,,,,,,,,,,,,,,,,,,,,,,,
,,,,,,5db9fbd20fbd8b05db2aa3ed,62bbfb5342025b59ea7012ab,2022-06-29_08h12.40.086,Colour_Asymmetry_Pilot,2022.1.3,Win32,60.28817749,62bbe60bf3d75ef465d3e404,0,9,9,101,1,threefour,,,,,,,,,,,,,,,,,,,,,,,,,,,,,,,,,,,,,,,,,,,,,,,,,,,,,,,,,,,,,,,,,,,,,,,,,,,,,,,,,,,,,,,,,,,,,,,,,,,,,,,,,,,,,,,,,,,,,,,,,,,,,,,,,,,,,,,,,,,,,,,,,,,,,,,,
,,,,,,5db9fbd20fbd8b05db2aa3ed,62bbfb5342025b59ea7012ab,2022-06-29_08h12.40.086,Colour_Asymmetry_Pilot,2022.1.3,Win32,60.28817749,62bbe60bf3d75ef465d3e404,0,10,10,15,1,fourthree,,,,,,,,,,,,,,,,,,,,,,,,,,,,,,,,,,,,,,,,,,,,,,,,,,,,,,,,,,,,,,,,,,,,,,,,,,,,,,,,,,,,,,,,,,,,,,,,,,,,,,,,,,,,,,,,,,,,,,,,,,,,,,,,,,,,,,,,,,,,,,,,,,,,,,,,
,,,,,,5db9fbd20fbd8b05db2aa3ed,62bbfb5342025b59ea7012ab,2022-06-29_08h12.40.086,Colour_Asymmetry_Pilot,2022.1.3,Win32,60.28817749,62bbe60bf3d75ef465d3e404,0,11,11,148,1,threeone,,,,,,,,,,,,,,,,,,,,,,,,,,,,,,,,,,,,,,,,,,,,,,,,,,,,,,,,,,,,,,,,,,,,,,,,,,,,,,,,,,,,,,,,,,,,,,,,,,,,,,,,,,,,,,,,,,,,,,,,,,,,,,,,,,,,,,,,,,,,,,,,,,,,,,,,
,,,,,,5db9fbd20fbd8b05db2aa3ed,62bbfb5342025b59ea7012ab,2022-06-29_08h12.40.086,Colour_Asymmetry_Pilot,2022.1.3,Win32,60.28817749,62bbe60bf3d75ef465d3e404,0,12,12,32,1,onetwo,,,,,,,,,,,,,,,,,,,,,,,,,,,,,,,,,,,,,,,,,,,,,,,,,,,,,,,,,,,,,,,,,,,,,,,,,,,,,,,,,,,,,,,,,,,,,,,,,,,,,,,,,,,,,,,,,,,,,,,,,,,,,,,,,,,,,,,,,,,,,,,,,,,,,,,,
,,,,,,5db9fbd20fbd8b05db2aa3ed,62bbfb5342025b59ea7012ab,2022-06-29_08h12.40.086,Colour_Asymmetry_Pilot,2022.1.3,Win32,60.28817749,62bbe60bf3d75ef465d3e404,0,13,13,99,1,twofour,,,,,,,,,,,,,,,,,,,,,,,,,,,,,,,,,,,,,,,,,,,,,,,,,,,,,,,,,,,,,,,,,,,,,,,,,,,,,,,,,,,,,,,,,,,,,,,,,,,,,,,,,,,,,,,,,,,,,,,,,,,,,,,,,,,,,,,,,,,,,,,,,,,,,,,,
,,,,,,5db9fbd20fbd8b05db2aa3ed,62bbfb5342025b59ea7012ab,2022-06-29_08h12.40.086,Colour_Asymmetry_Pilot,2022.1.3,Win32,60.28817749,62bbe60bf3d75ef465d3e404,0,14,14,36,1,threeone,,,,,,,,,,,,,,,,,,,,,,,,,,,,,,,,,,,,,,,,,,,,,,,,,,,,,,,,,,,,,,,,,,,,,,,,,,,,,,,,,,,,,,,,,,,,,,,,,,,,,,,,,,,,,,,,,,,,,,,,,,,,,,,,,,,,,,,,,,,,,,,,,,,,,,,,
,,,,,,5db9fbd20fbd8b05db2aa3ed,62bbfb5342025b59ea7012ab,2022-06-29_08h12.40.086,Colour_Asymmetry_Pilot,2022.1.3,Win32,60.28817749,62bbe60bf3d75ef465d3e404,0,15,15,116,1,threeone,,,,,,,,,,,,,,,,,,,,,,,,,,,,,,,,,,,,,,,,,,,,,,,,,,,,,,,,,,,,,,,,,,,,,,,,,,,,,,,,,,,,,,,,,,,,,,,,,,,,,,,,,,,,,,,,,,,,,,,,,,,,,,,,,,,,,,,,,,,,,,,,,,,,,,,,
,,,,,,5db9fbd20fbd8b05db2aa3ed,62bbfb5342025b59ea7012ab,2022-06-29_08h12.40.086,Colour_Asymmetry_Pilot,2022.1.3,Win32,60.28817749,62bbe60bf3d75ef465d3e404,0,16,16,20,1,threeone,,,,,,,,,,,,,,,,,,,,,,,,,,,,,,,,,,,,,,,,,,,,,,,,,,,,,,,,,,,,,,,,,,,,,,,,,,,,,,,,,,,,,,,,,,,,,,,,,,,,,,,,,,,,,,,,,,,,,,,,,,,,,,,,,,,,,,,,,,,,,,,,,,,,,,,,
,,,,,,5db9fbd20fbd8b05db2aa3ed,62bbfb5342025b59ea7012ab,2022-06-29_08h12.40.086,Colour_Asymmetry_Pilot,2022.1.3,Win32,60.28817749,62bbe60bf3d75ef465d3e404,0,17,17,108,1,threeone,,,,,,,,,,,,,,,,,,,,,,,,,,,,,,,,,,,,,,,,,,,,,,,,,,,,,,,,,,,,,,,,,,,,,,,,,,,,,,,,,,,,,,,,,,,,,,,,,,,,,,,,,,,,,,,,,,,,,,,,,,,,,,,,,,,,,,,,,,,,,,,,,,,,,,,,
,,,,,,5db9fbd20fbd8b05db2aa3ed,62bbfb5342025b59ea7012ab,2022-06-29_08h12.40.086,Colour_Asymmetry_Pilot,2022.1.3,Win32,60.28817749,62bbe60bf3d75ef465d3e404,0,18,18,11,1,twofour,,,,,,,,,,,,,,,,,,,,,,,,,,,,,,,,,,,,,,,,,,,,,,,,,,,,,,,,,,,,,,,,,,,,,,,,,,,,,,,,,,,,,,,,,,,,,,,,,,,,,,,,,,,,,,,,,,,,,,,,,,,,,,,,,,,,,,,,,,,,,,,,,,,,,,,,
,,,,,,5db9fbd20fbd8b05db2aa3ed,62bbfb5342025b59ea7012ab,2022-06-29_08h12.40.086,Colour_Asymmetry_Pilot,2022.1.3,Win32,60.28817749,62bbe60bf3d75ef465d3e404,0,19,19,30,1,fourtwo,,,,,,,,,,,,,,,,,,,,,,,,,,,,,,,,,,,,,,,,,,,,,,,,,,,,,,,,,,,,,,,,,,,,,,,,,,,,,,,,,,,,,,,,,,,,,,,,,,,,,,,,,,,,,,,,,,,,,,,,,,,,,,,,,,,,,,,,,,,,,,,,,,,,,,,,
,,,,,,5db9fbd20fbd8b05db2aa3ed,62bbfb5342025b59ea7012ab,2022-06-29_08h12.40.086,Colour_Asymmetry_Pilot,2022.1.3,Win32,60.28817749,62bbe60bf3d75ef465d3e404,0,20,20,16,1,onetwo,,,,,,,,,,,,,,,,,,,,,,,,,,,,,,,,,,,,,,,,,,,,,,,,,,,,,,,,,,,,,,,,,,,,,,,,,,,,,,,,,,,,,,,,,,,,,,,,,,,,,,,,,,,,,,,,,,,,,,,,,,,,,,,,,,,,,,,,,,,,,,,,,,,,,,,,
,,,,,,5db9fbd20fbd8b05db2aa3ed,62bbfb5342025b59ea7012ab,2022-06-29_08h12.40.086,Colour_Asymmetry_Pilot,2022.1.3,Win32,60.28817749,62bbe60bf3d75ef465d3e404,0,21,21,121,1,onethree,,,,,,,,,,,,,,,,,,,,,,,,,,,,,,,,,,,,,,,,,,,,,,,,,,,,,,,,,,,,,,,,,,,,,,,,,,,,,,,,,,,,,,,,,,,,,,,,,,,,,,,,,,,,,,,,,,,,,,,,,,,,,,,,,,,,,,,,,,,,,,,,,,,,,,,,
,,,,,,5db9fbd20fbd8b05db2aa3ed,62bbfb5342025b59ea7012ab,2022-06-29_08h12.40.086,Colour_Asymmetry_Pilot,2022.1.3,Win32,60.28817749,62bbe60bf3d75ef465d3e404,0,22,22,141,1,threefour,,,,,,,,,,,,,,,,,,,,,,,,,,,,,,,,,,,,,,,,,,,,,,,,,,,,,,,,,,,,,,,,,,,,,,,,,,,,,,,,,,,,,,,,,,,,,,,,,,,,,,,,,,,,,,,,,,,,,,,,,,,,,,,,,,,,,,,,,,,,,,,,,,,,,,,,
,,,,,,5db9fbd20fbd8b05db2aa3ed,62bbfb5342025b59ea7012ab,2022-06-29_08h12.40.086,Colour_Asymmetry_Pilot,2022.1.3,Win32,60.28817749,62bbe60bf3d75ef465d3e404,0,23,23,129,1,onethree,,,,,,,,,,,,,,,,,,,,,,,,,,,,,,,,,,,,,,,,,,,,,,,,,,,,,,,,,,,,,,,,,,,,,,,,,,,,,,,,,,,,,,,,,,,,,,,,,,,,,,,,,,,,,,,,,,,,,,,,,,,,,,,,,,,,,,,,,,,,,,,,,,,,,,,,
,,,,,,5db9fbd20fbd8b05db2aa3ed,62bbfb5342025b59ea7012ab,2022-06-29_08h12.40.086,Colour_Asymmetry_Pilot,2022.1.3,Win32,60.28817749,62bbe60bf3d75ef465d3e404,0,24,24,106,1,twoone,,,,,,,,,,,,,,,,,,,,,,,,,,,,,,,,,,,,,,,,,,,,,,,,,,,,,,,,,,,,,,,,,,,,,,,,,,,,,,,,,,,,,,,,,,,,,,,,,,,,,,,,,,,,,,,,,,,,,,,,,,,,,,,,,,,,,,,,,,,,,,,,,,,,,,,,
,,,,,,5db9fbd20fbd8b05db2aa3ed,62bbfb5342025b59ea7012ab,2022-06-29_08h12.40.086,Colour_Asymmetry_Pilot,2022.1.3,Win32,60.28817749,62bbe60bf3d75ef465d3e404,0,25,25,155,1,twofour,,,,,,,,,,,,,,,,,,,,,,,,,,,,,,,,,,,,,,,,,,,,,,,,,,,,,,,,,,,,,,,,,,,,,,,,,,,,,,,,,,,,,,,,,,,,,,,,,,,,,,,,,,,,,,,,,,,,,,,,,,,,,,,,,,,,,,,,,,,,,,,,,,,,,,,,
,,,,,,5db9fbd20fbd8b05db2aa3ed,62bbfb5342025b59ea7012ab,2022-06-29_08h12.40.086,Colour_Asymmetry_Pilot,2022.1.3,Win32,60.28817749,62bbe60bf3d75ef465d3e404,0,26,26,43,1,twofour,,,,,,,,,,,,,,,,,,,,,,,,,,,,,,,,,,,,,,,,,,,,,,,,,,,,,,,,,,,,,,,,,,,,,,,,,,,,,,,,,,,,,,,,,,,,,,,,,,,,,,,,,,,,,,,,,,,,,,,,,,,,,,,,,,,,,,,,,,,,,,,,,,,,,,,,
,,,,,,5db9fbd20fbd8b05db2aa3ed,62bbfb5342025b59ea7012ab,2022-06-29_08h12.40.086,Colour_Asymmetry_Pilot,2022.1.3,Win32,60.28817749,62bbe60bf3d75ef465d3e404,0,27,27,19,1,twofour,,,,,,,,,,,,,,,,,,,,,,,,,,,,,,,,,,,,,,,,,,,,,,,,,,,,,,,,,,,,,,,,,,,,,,,,,,,,,,,,,,,,,,,,,,,,,,,,,,,,,,,,,,,,,,,,,,,,,,,,,,,,,,,,,,,,,,,,,,,,,,,,,,,,,,,,
,,,,,,5db9fbd20fbd8b05db2aa3ed,62bbfb5342025b59ea7012ab,2022-06-29_08h12.40.086,Colour_Asymmetry_Pilot,2022.1.3,Win32,60.28817749,62bbe60bf3d75ef465d3e404,0,28,28,65,1,onethree,,,,,,,,,,,,,,,,,,,,,,,,,,,,,,,,,,,,,,,,,,,,,,,,,,,,,,,,,,,,,,,,,,,,,,,,,,,,,,,,,,,,,,,,,,,,,,,,,,,,,,,,,,,,,,,,,,,,,,,,,,,,,,,,,,,,,,,,,,,,,,,,,,,,,,,,
,,,,,,5db9fbd20fbd8b05db2aa3ed,62bbfb5342025b59ea7012ab,2022-06-29_08h12.40.086,Colour_Asymmetry_Pilot,2022.1.3,Win32,60.28817749,62bbe60bf3d75ef465d3e404,0,29,29,66,1,twoone,,,,,,,,,,,,,,,,,,,,,,,,,,,,,,,,,,,,,,,,,,,,,,,,,,,,,,,,,,,,,,,,,,,,,,,,,,,,,,,,,,,,,,,,,,,,,,,,,,,,,,,,,,,,,,,,,,,,,,,,,,,,,,,,,,,,,,,,,,,,,,,,,,,,,,,,
,,,,,,5db9fbd20fbd8b05db2aa3ed,62bbfb5342025b59ea7012ab,2022-06-29_08h12.40.086,Colour_Asymmetry_Pilot,2022.1.3,Win32,60.28817749,62bbe60bf3d75ef465d3e404,0,30,30,140,1,threeone,,,,,,,,,,,,,,,,,,,,,,,,,,,,,,,,,,,,,,,,,,,,,,,,,,,,,,,,,,,,,,,,,,,,,,,,,,,,,,,,,,,,,,,,,,,,,,,,,,,,,,,,,,,,,,,,,,,,,,,,,,,,,,,,,,,,,,,,,,,,,,,,,,,,,,,,
,,,,,,5db9fbd20fbd8b05db2aa3ed,62bbfb5342025b59ea7012ab,2022-06-29_08h12.40.086,Colour_Asymmetry_Pilot,2022.1.3,Win32,60.28817749,62bbe60bf3d75ef465d3e404,0,31,31,119,1,fourthree,,,,,,,,,,,,,,,,,,,,,,,,,,,,,,,,,,,,,,,,,,,,,,,,,,,,,,,,,,,,,,,,,,,,,,,,,,,,,,,,,,,,,,,,,,,,,,,,,,,,,,,,,,,,,,,,,,,,,,,,,,,,,,,,,,,,,,,,,,,,,,,,,,,,,,,,
,,,,,,5db9fbd20fbd8b05db2aa3ed,62bbfb5342025b59ea7012ab,2022-06-29_08h12.40.086,Colour_Asymmetry_Pilot,2022.1.3,Win32,60.28817749,62bbe60bf3d75ef465d3e404,0,32,32,147,1,twofour,,,,,,,,,,,,,,,,,,,,,,,,,,,,,,,,,,,,,,,,,,,,,,,,,,,,,,,,,,,,,,,,,,,,,,,,,,,,,,,,,,,,,,,,,,,,,,,,,,,,,,,,,,,,,,,,,,,,,,,,,,,,,,,,,,,,,,,,,,,,,,,,,,,,,,,,
,,,,,,5db9fbd20fbd8b05db2aa3ed,62bbfb5342025b59ea7012ab,2022-06-29_08h12.40.086,Colour_Asymmetry_Pilot,2022.1.3,Win32,60.28817749,62bbe60bf3d75ef465d3e404,0,33,33,38,1,fourtwo,,,,,,,,,,,,,,,,,,,,,,,,,,,,,,,,,,,,,,,,,,,,,,,,,,,,,,,,,,,,,,,,,,,,,,,,,,,,,,,,,,,,,,,,,,,,,,,,,,,,,,,,,,,,,,,,,,,,,,,,,,,,,,,,,,,,,,,,,,,,,,,,,,,,,,,,
,,,,,,5db9fbd20fbd8b05db2aa3ed,62bbfb5342025b59ea7012ab,2022-06-29_08h12.40.086,Colour_Asymmetry_Pilot,2022.1.3,Win32,60.28817749,62bbe60bf3d75ef465d3e404,0,34,34,88,1,onetwo,,,,,,,,,,,,,,,,,,,,,,,,,,,,,,,,,,,,,,,,,,,,,,,,,,,,,,,,,,,,,,,,,,,,,,,,,,,,,,,,,,,,,,,,,,,,,,,,,,,,,,,,,,,,,,,,,,,,,,,,,,,,,,,,,,,,,,,,,,,,,,,,,,,,,,,,
,,,,,,5db9fbd20fbd8b05db2aa3ed,62bbfb5342025b59ea7012ab,2022-06-29_08h12.40.086,Colour_Asymmetry_Pilot,2022.1.3,Win32,60.28817749,62bbe60bf3d75ef465d3e404,0,35,35,107,1,twofour,,,,,,,,,,,,,,,,,,,,,,,,,,,,,,,,,,,,,,,,,,,,,,,,,,,,,,,,,,,,,,,,,,,,,,,,,,,,,,,,,,,,,,,,,,,,,,,,,,,,,,,,,,,,,,,,,,,,,,,,,,,,,,,,,,,,,,,,,,,,,,,,,,,,,,,,
,,,,,,5db9fbd20fbd8b05db2aa3ed,62bbfb5342025b59ea7012ab,2022-06-29_08h12.40.086,Colour_Asymmetry_Pilot,2022.1.3,Win32,60.28817749,62bbe60bf3d75ef465d3e404,0,36,36,102,1,fourtwo,,,,,,,,,,,,,,,,,,,,,,,,,,,,,,,,,,,,,,,,,,,,,,,,,,,,,,,,,,,,,,,,,,,,,,,,,,,,,,,,,,,,,,,,,,,,,,,,,,,,,,,,,,,,,,,,,,,,,,,,,,,,,,,,,,,,,,,,,,,,,,,,,,,,,,,,
,,,,,,5db9fbd20fbd8b05db2aa3ed,62bbfb5342025b59ea7012ab,2022-06-29_08h12.40.086,Colour_Asymmetry_Pilot,2022.1.3,Win32,60.28817749,62bbe60bf3d75ef465d3e404,0,37,37,17,1,onethree,,,,,,,,,,,,,,,,,,,,,,,,,,,,,,,,,,,,,,,,,,,,,,,,,,,,,,,,,,,,,,,,,,,,,,,,,,,,,,,,,,,,,,,,,,,,,,,,,,,,,,,,,,,,,,,,,,,,,,,,,,,,,,,,,,,,,,,,,,,,,,,,,,,,,,,,
,,,,,,5db9fbd20fbd8b05db2aa3ed,62bbfb5342025b59ea7012ab,2022-06-29_08h12.40.086,Colour_Asymmetry_Pilot,2022.1.3,Win32,60.28817749,62bbe60bf3d75ef465d3e404,0,38,38,112,1,onetwo,,,,,,,,,,,,,,,,,,,,,,,,,,,,,,,,,,,,,,,,,,,,,,,,,,,,,,,,,,,,,,,,,,,,,,,,,,,,,,,,,,,,,,,,,,,,,,,,,,,,,,,,,,,,,,,,,,,,,,,,,,,,,,,,,,,,,,,,,,,,,,,,,,,,,,,,
,,,,,,5db9fbd20fbd8b05db2aa3ed,62bbfb5342025b59ea7012ab,2022-06-29_08h12.40.086,Colour_Asymmetry_Pilot,2022.1.3,Win32,60.28817749,62bbe60bf3d75ef465d3e404,0,39,39,146,1,twoone,,,,,,,,,,,,,,,,,,,,,,,,,,,,,,,,,,,,,,,,,,,,,,,,,,,,,,,,,,,,,,,,,,,,,,,,,,,,,,,,,,,,,,,,,,,,,,,,,,,,,,,,,,,,,,,,,,,,,,,,,,,,,,,,,,,,,,,,,,,,,,,,,,,,,,,,
,,,,,,5db9fbd20fbd8b05db2aa3ed,62bbfb5342025b59ea7012ab,2022-06-29_08h12.40.086,Colour_Asymmetry_Pilot,2022.1.3,Win32,60.28817749,62bbe60bf3d75ef465d3e404,0,40,40,84,1,threeone,,,,,,,,,,,,,,,,,,,,,,,,,,,,,,,,,,,,,,,,,,,,,,,,,,,,,,,,,,,,,,,,,,,,,,,,,,,,,,,,,,,,,,,,,,,,,,,,,,,,,,,,,,,,,,,,,,,,,,,,,,,,,,,,,,,,,,,,,,,,,,,,,,,,,,,,
,,,,,,5db9fbd20fbd8b05db2aa3ed,62bbfb5342025b59ea7012ab,2022-06-29_08h12.40.086,Colour_Asymmetry_Pilot,2022.1.3,Win32,60.28817749,62bbe60bf3d75ef465d3e404,0,41,41,152,1,onetwo,,,,,,,,,,,,,,,,,,,,,,,,,,,,,,,,,,,,,,,,,,,,,,,,,,,,,,,,,,,,,,,,,,,,,,,,,,,,,,,,,,,,,,,,,,,,,,,,,,,,,,,,,,,,,,,,,,,,,,,,,,,,,,,,,,,,,,,,,,,,,,,,,,,,,,,,
,,,,,,5db9fbd20fbd8b05db2aa3ed,62bbfb5342025b59ea7012ab,2022-06-29_08h12.40.086,Colour_Asymmetry_Pilot,2022.1.3,Win32,60.28817749,62bbe60bf3d75ef465d3e404,0,42,42,123,1,twofour,,,,,,,,,,,,,,,,,,,,,,,,,,,,,,,,,,,,,,,,,,,,,,,,,,,,,,,,,,,,,,,,,,,,,,,,,,,,,,,,,,,,,,,,,,,,,,,,,,,,,,,,,,,,,,,,,,,,,,,,,,,,,,,,,,,,,,,,,,,,,,,,,,,,,,,,
,,,,,,5db9fbd20fbd8b05db2aa3ed,62bbfb5342025b59ea7012ab,2022-06-29_08h12.40.086,Colour_Asymmetry_Pilot,2022.1.3,Win32,60.28817749,62bbe60bf3d75ef465d3e404,0,43,43,103,1,fourthree,,,,,,,,,,,,,,,,,,,,,,,,,,,,,,,,,,,,,,,,,,,,,,,,,,,,,,,,,,,,,,,,,,,,,,,,,,,,,,,,,,,,,,,,,,,,,,,,,,,,,,,,,,,,,,,,,,,,,,,,,,,,,,,,,,,,,,,,,,,,,,,,,,,,,,,,
,,,,,,5db9fbd20fbd8b05db2aa3ed,62bbfb5342025b59ea7012ab,2022-06-29_08h12.40.086,Colour_Asymmetry_Pilot,2022.1.3,Win32,60.28817749,62bbe60bf3d75ef465d3e404,0,44,44,67,1,twofour,,,,,,,,,,,,,,,,,,,,,,,,,,,,,,,,,,,,,,,,,,,,,,,,,,,,,,,,,,,,,,,,,,,,,,,,,,,,,,,,,,,,,,,,,,,,,,,,,,,,,,,,,,,,,,,,,,,,,,,,,,,,,,,,,,,,,,,,,,,,,,,,,,,,,,,,
,,,,,,5db9fbd20fbd8b05db2aa3ed,62bbfb5342025b59ea7012ab,2022-06-29_08h12.40.086,Colour_Asymmetry_Pilot,2022.1.3,Win32,60.28817749,62bbe60bf3d75ef465d3e404,0,45,45,70,1,fourtwo,,,,,,,,,,,,,,,,,,,,,,,,,,,,,,,,,,,,,,,,,,,,,,,,,,,,,,,,,,,,,,,,,,,,,,,,,,,,,,,,,,,,,,,,,,,,,,,,,,,,,,,,,,,,,,,,,,,,,,,,,,,,,,,,,,,,,,,,,,,,,,,,,,,,,,,,
,,,,,,5db9fbd20fbd8b05db2aa3ed,62bbfb5342025b59ea7012ab,2022-06-29_08h12.40.086,Colour_Asymmetry_Pilot,2022.1.3,Win32,60.28817749,62bbe60bf3d75ef465d3e404,0,46,46,35,1,twofour,,,,,,,,,,,,,,,,,,,,,,,,,,,,,,,,,,,,,,,,,,,,,,,,,,,,,,,,,,,,,,,,,,,,,,,,,,,,,,,,,,,,,,,,,,,,,,,,,,,,,,,,,,,,,,,,,,,,,,,,,,,,,,,,,,,,,,,,,,,,,,,,,,,,,,,,
,,,,,,5db9fbd20fbd8b05db2aa3ed,62bbfb5342025b59ea7012ab,2022-06-29_08h12.40.086,Colour_Asymmetry_Pilot,2022.1.3,Win32,60.28817749,62bbe60bf3d75ef465d3e404,0,47,47,82,1,twoone,,,,,,,,,,,,,,,,,,,,,,,,,,,,,,,,,,,,,,,,,,,,,,,,,,,,,,,,,,,,,,,,,,,,,,,,,,,,,,,,,,,,,,,,,,,,,,,,,,,,,,,,,,,,,,,,,,,,,,,,,,,,,,,,,,,,,,,,,,,,,,,,,,,,,,,,
,,,,,,5db9fbd20fbd8b05db2aa3ed,62bbfb5342025b59ea7012ab,2022-06-29_08h12.40.086,Colour_Asymmetry_Pilot,2022.1.3,Win32,60.28817749,62bbe60bf3d75ef465d3e404,0,48,48,52,1,threeone,,,,,,,,,,,,,,,,,,,,,,,,,,,,,,,,,,,,,,,,,,,,,,,,,,,,,,,,,,,,,,,,,,,,,,,,,,,,,,,,,,,,,,,,,,,,,,,,,,,,,,,,,,,,,,,,,,,,,,,,,,,,,,,,,,,,,,,,,,,,,,,,,,,,,,,,
,,,,,,5db9fbd20fbd8b05db2aa3ed,62bbfb5342025b59ea7012ab,2022-06-29_08h12.40.086,Colour_Asymmetry_Pilot,2022.1.3,Win32,60.28817749,62bbe60bf3d75ef465d3e404,0,49,49,45,1,threefour,,,,,,,,,,,,,,,,,,,,,,,,,,,,,,,,,,,,,,,,,,,,,,,,,,,,,,,,,,,,,,,,,,,,,,,,,,,,,,,,,,,,,,,,,,,,,,,,,,,,,,,,,,,,,,,,,,,,,,,,,,,,,,,,,,,,,,,,,,,,,,,,,,,,,,,,
,,,,,,5db9fbd20fbd8b05db2aa3ed,62bbfb5342025b59ea7012ab,2022-06-29_08h12.40.086,Colour_Asymmetry_Pilot,2022.1.3,Win32,60.28817749,62bbe60bf3d75ef465d3e404,0,50,50,126,1,fourtwo,,,,,,,,,,,,,,,,,,,,,,,,,,,,,,,,,,,,,,,,,,,,,,,,,,,,,,,,,,,,,,,,,,,,,,,,,,,,,,,,,,,,,,,,,,,,,,,,,,,,,,,,,,,,,,,,,,,,,,,,,,,,,,,,,,,,,,,,,,,,,,,,,,,,,,,,
,,,,,,5db9fbd20fbd8b05db2aa3ed,62bbfb5342025b59ea7012ab,2022-06-29_08h12.40.086,Colour_Asymmetry_Pilot,2022.1.3,Win32,60.28817749,62bbe60bf3d75ef465d3e404,0,51,51,133,1,threefour,,,,,,,,,,,,,,,,,,,,,,,,,,,,,,,,,,,,,,,,,,,,,,,,,,,,,,,,,,,,,,,,,,,,,,,,,,,,,,,,,,,,,,,,,,,,,,,,,,,,,,,,,,,,,,,,,,,,,,,,,,,,,,,,,,,,,,,,,,,,,,,,,,,,,,,,
,,,,,,5db9fbd20fbd8b05db2aa3ed,62bbfb5342025b59ea7012ab,2022-06-29_08h12.40.086,Colour_Asymmetry_Pilot,2022.1.3,Win32,60.28817749,62bbe60bf3d75ef465d3e404,0,52,52,156,1,threeone,,,,,,,,,,,,,,,,,,,,,,,,,,,,,,,,,,,,,,,,,,,,,,,,,,,,,,,,,,,,,,,,,,,,,,,,,,,,,,,,,,,,,,,,,,,,,,,,,,,,,,,,,,,,,,,,,,,,,,,,,,,,,,,,,,,,,,,,,,,,,,,,,,,,,,,,
,,,,,,5db9fbd20fbd8b05db2aa3ed,62bbfb5342025b59ea7012ab,2022-06-29_08h12.40.086,Colour_Asymmetry_Pilot,2022.1.3,Win32,60.28817749,62bbe60bf3d75ef465d3e404,0,53,53,80,1,onetwo,,,,,,,,,,,,,,,,,,,,,,,,,,,,,,,,,,,,,,,,,,,,,,,,,,,,,,,,,,,,,,,,,,,,,,,,,,,,,,,,,,,,,,,,,,,,,,,,,,,,,,,,,,,,,,,,,,,,,,,,,,,,,,,,,,,,,,,,,,,,,,,,,,,,,,,,
,,,,,,5db9fbd20fbd8b05db2aa3ed,62bbfb5342025b59ea7012ab,2022-06-29_08h12.40.086,Colour_Asymmetry_Pilot,2022.1.3,Win32,60.28817749,62bbe60bf3d75ef465d3e404,0,54,54,27,1,twofour,,,,,,,,,,,,,,,,,,,,,,,,,,,,,,,,,,,,,,,,,,,,,,,,,,,,,,,,,,,,,,,,,,,,,,,,,,,,,,,,,,,,,,,,,,,,,,,,,,,,,,,,,,,,,,,,,,,,,,,,,,,,,,,,,,,,,,,,,,,,,,,,,,,,,,,,
,,,,,,5db9fbd20fbd8b05db2aa3ed,62bbfb5342025b59ea7012ab,2022-06-29_08h12.40.086,Colour_Asymmetry_Pilot,2022.1.3,Win32,60.28817749,62bbe60bf3d75ef465d3e404,0,55,55,159,1,fourthree,,,,,,,,,,,,,,,,,,,,,,,,,,,,,,,,,,,,,,,,,,,,,,,,,,,,,,,,,,,,,,,,,,,,,,,,,,,,,,,,,,,,,,,,,,,,,,,,,,,,,,,,,,,,,,,,,,,,,,,,,,,,,,,,,,,,,,,,,,,,,,,,,,,,,,,,
,,,,,,5db9fbd20fbd8b05db2aa3ed,62bbfb5342025b59ea7012ab,2022-06-29_08h12.40.086,Colour_Asymmetry_Pilot,2022.1.3,Win32,60.28817749,62bbe60bf3d75ef465d3e404,0,56,56,118,1,fourtwo,,,,,,,,,,,,,,,,,,,,,,,,,,,,,,,,,,,,,,,,,,,,,,,,,,,,,,,,,,,,,,,,,,,,,,,,,,,,,,,,,,,,,,,,,,,,,,,,,,,,,,,,,,,,,,,,,,,,,,,,,,,,,,,,,,,,,,,,,,,,,,,,,,,,,,,,
,,,,,,5db9fbd20fbd8b05db2aa3ed,62bbfb5342025b59ea7012ab,2022-06-29_08h12.40.086,Colour_Asymmetry_Pilot,2022.1.3,Win32,60.28817749,62bbe60bf3d75ef465d3e404,0,57,57,47,1,fourthree,,,,,,,,,,,,,,,,,,,,,,,,,,,,,,,,,,,,,,,,,,,,,,,,,,,,,,,,,,,,,,,,,,,,,,,,,,,,,,,,,,,,,,,,,,,,,,,,,,,,,,,,,,,,,,,,,,,,,,,,,,,,,,,,,,,,,,,,,,,,,,,,,,,,,,,,
,,,,,,5db9fbd20fbd8b05db2aa3ed,62bbfb5342025b59ea7012ab,2022-06-29_08h12.40.086,Colour_Asymmetry_Pilot,2022.1.3,Win32,60.28817749,62bbe60bf3d75ef465d3e404,0,58,58,89,1,onethree,,,,,,,,,,,,,,,,,,,,,,,,,,,,,,,,,,,,,,,,,,,,,,,,,,,,,,,,,,,,,,,,,,,,,,,,,,,,,,,,,,,,,,,,,,,,,,,,,,,,,,,,,,,,,,,,,,,,,,,,,,,,,,,,,,,,,,,,,,,,,,,,,,,,,,,,
,,,,,,5db9fbd20fbd8b05db2aa3ed,62bbfb5342025b59ea7012ab,2022-06-29_08h12.40.086,Colour_Asymmetry_Pilot,2022.1.3,Win32,60.28817749,62bbe60bf3d75ef465d3e404,0,59,59,50,1,twoone,,,,,,,,,,,,,,,,,,,,,,,,,,,,,,,,,,,,,,,,,,,,,,,,,,,,,,,,,,,,,,,,,,,,,,,,,,,,,,,,,,,,,,,,,,,,,,,,,,,,,,,,,,,,,,,,,,,,,,,,,,,,,,,,,,,,,,,,,,,,,,,,,,,,,,,,
,,,,,,5db9fbd20fbd8b05db2aa3ed,62bbfb5342025b59ea7012ab,2022-06-29_08h12.40.086,Colour_Asymmetry_Pilot,2022.1.3,Win32,60.28817749,62bbe60bf3d75ef465d3e404,0,60,60,139,1,twofour,,,,,,,,,,,,,,,,,,,,,,,,,,,,,,,,,,,,,,,,,,,,,,,,,,,,,,,,,,,,,,,,,,,,,,,,,,,,,,,,,,,,,,,,,,,,,,,,,,,,,,,,,,,,,,,,,,,,,,,,,,,,,,,,,,,,,,,,,,,,,,,,,,,,,,,,
,,,,,,5db9fbd20fbd8b05db2aa3ed,62bbfb5342025b59ea7012ab,2022-06-29_08h12.40.086,Colour_Asymmetry_Pilot,2022.1.3,Win32,60.28817749,62bbe60bf3d75ef465d3e404,0,61,61,150,1,fourtwo,,,,,,,,,,,,,,,,,,,,,,,,,,,,,,,,,,,,,,,,,,,,,,,,,,,,,,,,,,,,,,,,,,,,,,,,,,,,,,,,,,,,,,,,,,,,,,,,,,,,,,,,,,,,,,,,,,,,,,,,,,,,,,,,,,,,,,,,,,,,,,,,,,,,,,,,
,,,,,,5db9fbd20fbd8b05db2aa3ed,62bbfb5342025b59ea7012ab,2022-06-29_08h12.40.086,Colour_Asymmetry_Pilot,2022.1.3,Win32,60.28817749,62bbe60bf3d75ef465d3e404,0,62,62,100,1,threeone,,,,,,,,,,,,,,,,,,,,,,,,,,,,,,,,,,,,,,,,,,,,,,,,,,,,,,,,,,,,,,,,,,,,,,,,,,,,,,,,,,,,,,,,,,,,,,,,,,,,,,,,,,,,,,,,,,,,,,,,,,,,,,,,,,,,,,,,,,,,,,,,,,,,,,,,
,,,,,,5db9fbd20fbd8b05db2aa3ed,62bbfb5342025b59ea7012ab,2022-06-29_08h12.40.086,Colour_Asymmetry_Pilot,2022.1.3,Win32,60.28817749,62bbe60bf3d75ef465d3e404,0,63,63,8,1,onetwo,,,,,,,,,,,,,,,,,,,,,,,,,,,,,,,,,,,,,,,,,,,,,,,,,,,,,,,,,,,,,,,,,,,,,,,,,,,,,,,,,,,,,,,,,,,,,,,,,,,,,,,,,,,,,,,,,,,,,,,,,,,,,,,,,,,,,,,,,,,,,,,,,,,,,,,,
,,,,,,5db9fbd20fbd8b05db2aa3ed,62bbfb5342025b59ea7012ab,2022-06-29_08h12.40.086,Colour_Asymmetry_Pilot,2022.1.3,Win32,60.28817749,62bbe60bf3d75ef465d3e404,0,64,64,10,1,twoone,,,,,,,,,,,,,,,,,,,,,,,,,,,,,,,,,,,,,,,,,,,,,,,,,,,,,,,,,,,,,,,,,,,,,,,,,,,,,,,,,,,,,,,,,,,,,,,,,,,,,,,,,,,,,,,,,,,,,,,,,,,,,,,,,,,,,,,,,,,,,,,,,,,,,,,,
,,,,,,5db9fbd20fbd8b05db2aa3ed,62bbfb5342025b59ea7012ab,2022-06-29_08h12.40.086,Colour_Asymmetry_Pilot,2022.1.3,Win32,60.28817749,62bbe60bf3d75ef465d3e404,0,65,65,74,1,twoone,,,,,,,,,,,,,,,,,,,,,,,,,,,,,,,,,,,,,,,,,,,,,,,,,,,,,,,,,,,,,,,,,,,,,,,,,,,,,,,,,,,,,,,,,,,,,,,,,,,,,,,,,,,,,,,,,,,,,,,,,,,,,,,,,,,,,,,,,,,,,,,,,,,,,,,,
,,,,,,5db9fbd20fbd8b05db2aa3ed,62bbfb5342025b59ea7012ab,2022-06-29_08h12.40.086,Colour_Asymmetry_Pilot,2022.1.3,Win32,60.28817749,62bbe60bf3d75ef465d3e404,0,66,66,62,1,fourtwo,,,,,,,,,,,,,,,,,,,,,,,,,,,,,,,,,,,,,,,,,,,,,,,,,,,,,,,,,,,,,,,,,,,,,,,,,,,,,,,,,,,,,,,,,,,,,,,,,,,,,,,,,,,,,,,,,,,,,,,,,,,,,,,,,,,,,,,,,,,,,,,,,,,,,,,,
,,,,,,5db9fbd20fbd8b05db2aa3ed,62bbfb5342025b59ea7012ab,2022-06-29_08h12.40.086,Colour_Asymmetry_Pilot,2022.1.3,Win32,60.28817749,62bbe60bf3d75ef465d3e404,0,67,67,161,1,onethree,,,,,,,,,,,,,,,,,,,,,,,,,,,,,,,,,,,,,,,,,,,,,,,,,,,,,,,,,,,,,,,,,,,,,,,,,,,,,,,,,,,,,,,,,,,,,,,,,,,,,,,,,,,,,,,,,,,,,,,,,,,,,,,,,,,,,,,,,,,,,,,,,,,,,,,,
,,,,,,5db9fbd20fbd8b05db2aa3ed,62bbfb5342025b59ea7012ab,2022-06-29_08h12.40.086,Colour_Asymmetry_Pilot,2022.1.3,Win32,60.28817749,62bbe60bf3d75ef465d3e404,0,68,68,68,1,threeone,,,,,,,,,,,,,,,,,,,,,,,,,,,,,,,,,,,,,,,,,,,,,,,,,,,,,,,,,,,,,,,,,,,,,,,,,,,,,,,,,,,,,,,,,,,,,,,,,,,,,,,,,,,,,,,,,,,,,,,,,,,,,,,,,,,,,,,,,,,,,,,,,,,,,,,,
,,,,,,5db9fbd20fbd8b05db2aa3ed,62bbfb5342025b59ea7012ab,2022-06-29_08h12.40.086,Colour_Asymmetry_Pilot,2022.1.3,Win32,60.28817749,62bbe60bf3d75ef465d3e404,0,69,69,153,1,onethree,,,,,,,,,,,,,,,,,,,,,,,,,,,,,,,,,,,,,,,,,,,,,,,,,,,,,,,,,,,,,,,,,,,,,,,,,,,,,,,,,,,,,,,,,,,,,,,,,,,,,,,,,,,,,,,,,,,,,,,,,,,,,,,,,,,,,,,,,,,,,,,,,,,,,,,,
,,,,,,5db9fbd20fbd8b05db2aa3ed,62bbfb5342025b59ea7012ab,2022-06-29_08h12.40.086,Colour_Asymmetry_Pilot,2022.1.3,Win32,60.28817749,62bbe60bf3d75ef465d3e404,0,70,70,78,1,fourtwo,,,,,,,,,,,,,,,,,,,,,,,,,,,,,,,,,,,,,,,,,,,,,,,,,,,,,,,,,,,,,,,,,,,,,,,,,,,,,,,,,,,,,,,,,,,,,,,,,,,,,,,,,,,,,,,,,,,,,,,,,,,,,,,,,,,,,,,,,,,,,,,,,,,,,,,,
,,,,,,5db9fbd20fbd8b05db2aa3ed,62bbfb5342025b59ea7012ab,2022-06-29_08h12.40.086,Colour_Asymmetry_Pilot,2022.1.3,Win32,60.28817749,62bbe60bf3d75ef465d3e404,0,71,71,138,1,twoone,,,,,,,,,,,,,,,,,,,,,,,,,,,,,,,,,,,,,,,,,,,,,,,,,,,,,,,,,,,,,,,,,,,,,,,,,,,,,,,,,,,,,,,,,,,,,,,,,,,,,,,,,,,,,,,,,,,,,,,,,,,,,,,,,,,,,,,,,,,,,,,,,,,,,,,,
,,,,,,5db9fbd20fbd8b05db2aa3ed,62bbfb5342025b59ea7012ab,2022-06-29_08h12.40.086,Colour_Asymmetry_Pilot,2022.1.3,Win32,60.28817749,62bbe60bf3d75ef465d3e404,0,72,72,13,1,threefour,,,,,,,,,,,,,,,,,,,,,,,,,,,,,,,,,,,,,,,,,,,,,,,,,,,,,,,,,,,,,,,,,,,,,,,,,,,,,,,,,,,,,,,,,,,,,,,,,,,,,,,,,,,,,,,,,,,,,,,,,,,,,,,,,,,,,,,,,,,,,,,,,,,,,,,,
,,,,,,5db9fbd20fbd8b05db2aa3ed,62bbfb5342025b59ea7012ab,2022-06-29_08h12.40.086,Colour_Asymmetry_Pilot,2022.1.3,Win32,60.28817749,62bbe60bf3d75ef465d3e404,0,73,73,37,1,threefour,,,,,,,,,,,,,,,,,,,,,,,,,,,,,,,,,,,,,,,,,,,,,,,,,,,,,,,,,,,,,,,,,,,,,,,,,,,,,,,,,,,,,,,,,,,,,,,,,,,,,,,,,,,,,,,,,,,,,,,,,,,,,,,,,,,,,,,,,,,,,,,,,,,,,,,,
,,,,,,5db9fbd20fbd8b05db2aa3ed,62bbfb5342025b59ea7012ab,2022-06-29_08h12.40.086,Colour_Asymmetry_Pilot,2022.1.3,Win32,60.28817749,62bbe60bf3d75ef465d3e404,0,74,74,71,1,fourthree,,,,,,,,,,,,,,,,,,,,,,,,,,,,,,,,,,,,,,,,,,,,,,,,,,,,,,,,,,,,,,,,,,,,,,,,,,,,,,,,,,,,,,,,,,,,,,,,,,,,,,,,,,,,,,,,,,,,,,,,,,,,,,,,,,,,,,,,,,,,,,,,,,,,,,,,
,,,,,,5db9fbd20fbd8b05db2aa3ed,62bbfb5342025b59ea7012ab,2022-06-29_08h12.40.086,Colour_Asymmetry_Pilot,2022.1.3,Win32,60.28817749,62bbe60bf3d75ef465d3e404,0,75,75,23,1,fourthree,,,,,,,,,,,,,,,,,,,,,,,,,,,,,,,,,,,,,,,,,,,,,,,,,,,,,,,,,,,,,,,,,,,,,,,,,,,,,,,,,,,,,,,,,,,,,,,,,,,,,,,,,,,,,,,,,,,,,,,,,,,,,,,,,,,,,,,,,,,,,,,,,,,,,,,,
,,,,,,5db9fbd20fbd8b05db2aa3ed,62bbfb5342025b59ea7012ab,2022-06-29_08h12.40.086,Colour_Asymmetry_Pilot,2022.1.3,Win32,60.28817749,62bbe60bf3d75ef465d3e404,0,76,76,114,1,twoone,,,,,,,,,,,,,,,,,,,,,,,,,,,,,,,,,,,,,,,,,,,,,,,,,,,,,,,,,,,,,,,,,,,,,,,,,,,,,,,,,,,,,,,,,,,,,,,,,,,,,,,,,,,,,,,,,,,,,,,,,,,,,,,,,,,,,,,,,,,,,,,,,,,,,,,,
,,,,,,5db9fbd20fbd8b05db2aa3ed,62bbfb5342025b59ea7012ab,2022-06-29_08h12.40.086,Colour_Asymmetry_Pilot,2022.1.3,Win32,60.28817749,62bbe60bf3d75ef465d3e404,0,77,77,124,1,threeone,,,,,,,,,,,,,,,,,,,,,,,,,,,,,,,,,,,,,,,,,,,,,,,,,,,,,,,,,,,,,,,,,,,,,,,,,,,,,,,,,,,,,,,,,,,,,,,,,,,,,,,,,,,,,,,,,,,,,,,,,,,,,,,,,,,,,,,,,,,,,,,,,,,,,,,,
,,,,,,5db9fbd20fbd8b05db2aa3ed,62bbfb5342025b59ea7012ab,2022-06-29_08h12.40.086,Colour_Asymmetry_Pilot,2022.1.3,Win32,60.28817749,62bbe60bf3d75ef465d3e404,0,78,78,145,1,onethree,,,,,,,,,,,,,,,,,,,,,,,,,,,,,,,,,,,,,,,,,,,,,,,,,,,,,,,,,,,,,,,,,,,,,,,,,,,,,,,,,,,,,,,,,,,,,,,,,,,,,,,,,,,,,,,,,,,,,,,,,,,,,,,,,,,,,,,,,,,,,,,,,,,,,,,,
,,,,,,5db9fbd20fbd8b05db2aa3ed,62bbfb5342025b59ea7012ab,2022-06-29_08h12.40.086,Colour_Asymmetry_Pilot,2022.1.3,Win32,60.28817749,62bbe60bf3d75ef465d3e404,0,79,79,134,1,fourtwo,,,,,,,,,,,,,,,,,,,,,,,,,,,,,,,,,,,,,,,,,,,,,,,,,,,,,,,,,,,,,,,,,,,,,,,,,,,,,,,,,,,,,,,,,,,,,,,,,,,,,,,,,,,,,,,,,,,,,,,,,,,,,,,,,,,,,,,,,,,,,,,,,,,,,,,,
,,,,,,5db9fbd20fbd8b05db2aa3ed,62bbfb5342025b59ea7012ab,2022-06-29_08h12.40.086,Colour_Asymmetry_Pilot,2022.1.3,Win32,60.28817749,62bbe60bf3d75ef465d3e404,0,80,80,85,1,threefour,,,,,,,,,,,,,,,,,,,,,,,,,,,,,,,,,,,,,,,,,,,,,,,,,,,,,,,,,,,,,,,,,,,,,,,,,,,,,,,,,,,,,,,,,,,,,,,,,,,,,,,,,,,,,,,,,,,,,,,,,,,,,,,,,,,,,,,,,,,,,,,,,,,,,,,,
,,,,,,5db9fbd20fbd8b05db2aa3ed,62bbfb5342025b59ea7012ab,2022-06-29_08h12.40.086,Colour_Asymmetry_Pilot,2022.1.3,Win32,60.28817749,62bbe60bf3d75ef465d3e404,0,81,81,95,1,fourthree,,,,,,,,,,,,,,,,,,,,,,,,,,,,,,,,,,,,,,,,,,,,,,,,,,,,,,,,,,,,,,,,,,,,,,,,,,,,,,,,,,,,,,,,,,,,,,,,,,,,,,,,,,,,,,,,,,,,,,,,,,,,,,,,,,,,,,,,,,,,,,,,,,,,,,,,
,,,,,,5db9fbd20fbd8b05db2aa3ed,62bbfb5342025b59ea7012ab,2022-06-29_08h12.40.086,Colour_Asymmetry_Pilot,2022.1.3,Win32,60.28817749,62bbe60bf3d75ef465d3e404,0,82,82,59,1,twofour,,,,,,,,,,,,,,,,,,,,,,,,,,,,,,,,,,,,,,,,,,,,,,,,,,,,,,,,,,,,,,,,,,,,,,,,,,,,,,,,,,,,,,,,,,,,,,,,,,,,,,,,,,,,,,,,,,,,,,,,,,,,,,,,,,,,,,,,,,,,,,,,,,,,,,,,
,,,,,,5db9fbd20fbd8b05db2aa3ed,62bbfb5342025b59ea7012ab,2022-06-29_08h12.40.086,Colour_Asymmetry_Pilot,2022.1.3,Win32,60.28817749,62bbe60bf3d75ef465d3e404,0,83,83,130,1,twoone,,,,,,,,,,,,,,,,,,,,,,,,,,,,,,,,,,,,,,,,,,,,,,,,,,,,,,,,,,,,,,,,,,,,,,,,,,,,,,,,,,,,,,,,,,,,,,,,,,,,,,,,,,,,,,,,,,,,,,,,,,,,,,,,,,,,,,,,,,,,,,,,,,,,,,,,
,,,,,,5db9fbd20fbd8b05db2aa3ed,62bbfb5342025b59ea7012ab,2022-06-29_08h12.40.086,Colour_Asymmetry_Pilot,2022.1.3,Win32,60.28817749,62bbe60bf3d75ef465d3e404,0,84,84,115,1,twofour,,,,,,,,,,,,,,,,,,,,,,,,,,,,,,,,,,,,,,,,,,,,,,,,,,,,,,,,,,,,,,,,,,,,,,,,,,,,,,,,,,,,,,,,,,,,,,,,,,,,,,,,,,,,,,,,,,,,,,,,,,,,,,,,,,,,,,,,,,,,,,,,,,,,,,,,
,,,,,,5db9fbd20fbd8b05db2aa3ed,62bbfb5342025b59ea7012ab,2022-06-29_08h12.40.086,Colour_Asymmetry_Pilot,2022.1.3,Win32,60.28817749,62bbe60bf3d75ef465d3e404,0,85,85,12,1,threeone,,,,,,,,,,,,,,,,,,,,,,,,,,,,,,,,,,,,,,,,,,,,,,,,,,,,,,,,,,,,,,,,,,,,,,,,,,,,,,,,,,,,,,,,,,,,,,,,,,,,,,,,,,,,,,,,,,,,,,,,,,,,,,,,,,,,,,,,,,,,,,,,,,,,,,,,
,,,,,,5db9fbd20fbd8b05db2aa3ed,62bbfb5342025b59ea7012ab,2022-06-29_08h12.40.086,Colour_Asymmetry_Pilot,2022.1.3,Win32,60.28817749,62bbe60bf3d75ef465d3e404,0,86,86,143,1,fourthree,,,,,,,,,,,,,,,,,,,,,,,,,,,,,,,,,,,,,,,,,,,,,,,,,,,,,,,,,,,,,,,,,,,,,,,,,,,,,,,,,,,,,,,,,,,,,,,,,,,,,,,,,,,,,,,,,,,,,,,,,,,,,,,,,,,,,,,,,,,,,,,,,,,,,,,,
,,,,,,5db9fbd20fbd8b05db2aa3ed,62bbfb5342025b59ea7012ab,2022-06-29_08h12.40.086,Colour_Asymmetry_Pilot,2022.1.3,Win32,60.28817749,62bbe60bf3d75ef465d3e404,0,87,87,87,1,fourthree,,,,,,,,,,,,,,,,,,,,,,,,,,,,,,,,,,,,,,,,,,,,,,,,,,,,,,,,,,,,,,,,,,,,,,,,,,,,,,,,,,,,,,,,,,,,,,,,,,,,,,,,,,,,,,,,,,,,,,,,,,,,,,,,,,,,,,,,,,,,,,,,,,,,,,,,
,,,,,,5db9fbd20fbd8b05db2aa3ed,62bbfb5342025b59ea7012ab,2022-06-29_08h12.40.086,Colour_Asymmetry_Pilot,2022.1.3,Win32,60.28817749,62bbe60bf3d75ef465d3e404,0,88,88,75,1,twofour,,,,,,,,,,,,,,,,,,,,,,,,,,,,,,,,,,,,,,,,,,,,,,,,,,,,,,,,,,,,,,,,,,,,,,,,,,,,,,,,,,,,,,,,,,,,,,,,,,,,,,,,,,,,,,,,,,,,,,,,,,,,,,,,,,,,,,,,,,,,,,,,,,,,,,,,
,,,,,,5db9fbd20fbd8b05db2aa3ed,62bbfb5342025b59ea7012ab,2022-06-29_08h12.40.086,Colour_Asymmetry_Pilot,2022.1.3,Win32,60.28817749,62bbe60bf3d75ef465d3e404,0,89,89,86,1,fourtwo,,,,,,,,,,,,,,,,,,,,,,,,,,,,,,,,,,,,,,,,,,,,,,,,,,,,,,,,,,,,,,,,,,,,,,,,,,,,,,,,,,,,,,,,,,,,,,,,,,,,,,,,,,,,,,,,,,,,,,,,,,,,,,,,,,,,,,,,,,,,,,,,,,,,,,,,
,,,,,,5db9fbd20fbd8b05db2aa3ed,62bbfb5342025b59ea7012ab,2022-06-29_08h12.40.086,Colour_Asymmetry_Pilot,2022.1.3,Win32,60.28817749,62bbe60bf3d75ef465d3e404,0,90,90,157,1,threefour,,,,,,,,,,,,,,,,,,,,,,,,,,,,,,,,,,,,,,,,,,,,,,,,,,,,,,,,,,,,,,,,,,,,,,,,,,,,,,,,,,,,,,,,,,,,,,,,,,,,,,,,,,,,,,,,,,,,,,,,,,,,,,,,,,,,,,,,,,,,,,,,,,,,,,,,
,,,,,,5db9fbd20fbd8b05db2aa3ed,62bbfb5342025b59ea7012ab,2022-06-29_08h12.40.086,Colour_Asymmetry_Pilot,2022.1.3,Win32,60.28817749,62bbe60bf3d75ef465d3e404,0,91,91,63,1,fourthree,,,,,,,,,,,,,,,,,,,,,,,,,,,,,,,,,,,,,,,,,,,,,,,,,,,,,,,,,,,,,,,,,,,,,,,,,,,,,,,,,,,,,,,,,,,,,,,,,,,,,,,,,,,,,,,,,,,,,,,,,,,,,,,,,,,,,,,,,,,,,,,,,,,,,,,,
,,,,,,5db9fbd20fbd8b05db2aa3ed,62bbfb5342025b59ea7012ab,2022-06-29_08h12.40.086,Colour_Asymmetry_Pilot,2022.1.3,Win32,60.28817749,62bbe60bf3d75ef465d3e404,0,92,92,92,1,threeone,,,,,,,,,,,,,,,,,,,,,,,,,,,,,,,,,,,,,,,,,,,,,,,,,,,,,,,,,,,,,,,,,,,,,,,,,,,,,,,,,,,,,,,,,,,,,,,,,,,,,,,,,,,,,,,,,,,,,,,,,,,,,,,,,,,,,,,,,,,,,,,,,,,,,,,,
,,,,,,5db9fbd20fbd8b05db2aa3ed,62bbfb5342025b59ea7012ab,2022-06-29_08h12.40.086,Colour_Asymmetry_Pilot,2022.1.3,Win32,60.28817749,62bbe60bf3d75ef465d3e404,0,93,93,55,1,fourthree,,,,,,,,,,,,,,,,,,,,,,,,,,,,,,,,,,,,,,,,,,,,,,,,,,,,,,,,,,,,,,,,,,,,,,,,,,,,,,,,,,,,,,,,,,,,,,,,,,,,,,,,,,,,,,,,,,,,,,,,,,,,,,,,,,,,,,,,,,,,,,,,,,,,,,,,
,,,,,,5db9fbd20fbd8b05db2aa3ed,62bbfb5342025b59ea7012ab,2022-06-29_08h12.40.086,Colour_Asymmetry_Pilot,2022.1.3,Win32,60.28817749,62bbe60bf3d75ef465d3e404,0,94,94,93,1,threefour,,,,,,,,,,,,,,,,,,,,,,,,,,,,,,,,,,,,,,,,,,,,,,,,,,,,,,,,,,,,,,,,,,,,,,,,,,,,,,,,,,,,,,,,,,,,,,,,,,,,,,,,,,,,,,,,,,,,,,,,,,,,,,,,,,,,,,,,,,,,,,,,,,,,,,,,
,,,,,,5db9fbd20fbd8b05db2aa3ed,62bbfb5342025b59ea7012ab,2022-06-29_08h12.40.086,Colour_Asymmetry_Pilot,2022.1.3,Win32,60.28817749,62bbe60bf3d75ef465d3e404,0,95,95,98,1,twoone,,,,,,,,,,,,,,,,,,,,,,,,,,,,,,,,,,,,,,,,,,,,,,,,,,,,,,,,,,,,,,,,,,,,,,,,,,,,,,,,,,,,,,,,,,,,,,,,,,,,,,,,,,,,,,,,,,,,,,,,,,,,,,,,,,,,,,,,,,,,,,,,,,,,,,,,
,,,,,,5db9fbd20fbd8b05db2aa3ed,62bbfb5342025b59ea7012ab,2022-06-29_08h12.40.086,Colour_Asymmetry_Pilot,2022.1.3,Win32,60.28817749,62bbe60bf3d75ef465d3e404,0,96,96,104,1,onetwo,,,,,,,,,,,,,,,,,,,,,,,,,,,,,,,,,,,,,,,,,,,,,,,,,,,,,,,,,,,,,,,,,,,,,,,,,,,,,,,,,,,,,,,,,,,,,,,,,,,,,,,,,,,,,,,,,,,,,,,,,,,,,,,,,,,,,,,,,,,,,,,,,,,,,,,,
,,,,,,5db9fbd20fbd8b05db2aa3ed,62bbfb5342025b59ea7012ab,2022-06-29_08h12.40.086,Colour_Asymmetry_Pilot,2022.1.3,Win32,60.28817749,62bbe60bf3d75ef465d3e404,0,97,97,42,1,twoone,,,,,,,,,,,,,,,,,,,,,,,,,,,,,,,,,,,,,,,,,,,,,,,,,,,,,,,,,,,,,,,,,,,,,,,,,,,,,,,,,,,,,,,,,,,,,,,,,,,,,,,,,,,,,,,,,,,,,,,,,,,,,,,,,,,,,,,,,,,,,,,,,,,,,,,,
,,,,,,5db9fbd20fbd8b05db2aa3ed,62bbfb5342025b59ea7012ab,2022-06-29_08h12.40.086,Colour_Asymmetry_Pilot,2022.1.3,Win32,60.28817749,62bbe60bf3d75ef465d3e404,0,98,98,76,1,threeone,,,,,,,,,,,,,,,,,,,,,,,,,,,,,,,,,,,,,,,,,,,,,,,,,,,,,,,,,,,,,,,,,,,,,,,,,,,,,,,,,,,,,,,,,,,,,,,,,,,,,,,,,,,,,,,,,,,,,,,,,,,,,,,,,,,,,,,,,,,,,,,,,,,,,,,,
,,,,,,5db9fbd20fbd8b05db2aa3ed,62bbfb5342025b59ea7012ab,2022-06-29_08h12.40.086,Colour_Asymmetry_Pilot,2022.1.3,Win32,60.28817749,62bbe60bf3d75ef465d3e404,0,99,99,60,1,threeone,,,,,,,,,,,,,,,,,,,,,,,,,,,,,,,,,,,,,,,,,,,,,,,,,,,,,,,,,,,,,,,,,,,,,,,,,,,,,,,,,,,,,,,,,,,,,,,,,,,,,,,,,,,,,,,,,,,,,,,,,,,,,,,,,,,,,,,,,,,,,,,,,,,,,,,,
,,,,,,5db9fbd20fbd8b05db2aa3ed,62bbfb5342025b59ea7012ab,2022-06-29_08h12.40.086,Colour_Asymmetry_Pilot,2022.1.3,Win32,60.28817749,62bbe60bf3d75ef465d3e404,0,100,100,77,1,threefour,,,,,,,,,,,,,,,,,,,,,,,,,,,,,,,,,,,,,,,,,,,,,,,,,,,,,,,,,,,,,,,,,,,,,,,,,,,,,,,,,,,,,,,,,,,,,,,,,,,,,,,,,,,,,,,,,,,,,,,,,,,,,,,,,,,,,,,,,,,,,,,,,,,,,,,,
,,,,,,5db9fbd20fbd8b05db2aa3ed,62bbfb5342025b59ea7012ab,2022-06-29_08h12.40.086,Colour_Asymmetry_Pilot,2022.1.3,Win32,60.28817749,62bbe60bf3d75ef465d3e404,0,101,101,69,1,threefour,,,,,,,,,,,,,,,,,,,,,,,,,,,,,,,,,,,,,,,,,,,,,,,,,,,,,,,,,,,,,,,,,,,,,,,,,,,,,,,,,,,,,,,,,,,,,,,,,,,,,,,,,,,,,,,,,,,,,,,,,,,,,,,,,,,,,,,,,,,,,,,,,,,,,,,,
,,,,,,5db9fbd20fbd8b05db2aa3ed,62bbfb5342025b59ea7012ab,2022-06-29_08h12.40.086,Colour_Asymmetry_Pilot,2022.1.3,Win32,60.28817749,62bbe60bf3d75ef465d3e404,0,102,102,151,1,fourthree,,,,,,,,,,,,,,,,,,,,,,,,,,,,,,,,,,,,,,,,,,,,,,,,,,,,,,,,,,,,,,,,,,,,,,,,,,,,,,,,,,,,,,,,,,,,,,,,,,,,,,,,,,,,,,,,,,,,,,,,,,,,,,,,,,,,,,,,,,,,,,,,,,,,,,,,
,,,,,,5db9fbd20fbd8b05db2aa3ed,62bbfb5342025b59ea7012ab,2022-06-29_08h12.40.086,Colour_Asymmetry_Pilot,2022.1.3,Win32,60.28817749,62bbe60bf3d75ef465d3e404,0,103,103,73,1,onethree,,,,,,,,,,,,,,,,,,,,,,,,,,,,,,,,,,,,,,,,,,,,,,,,,,,,,,,,,,,,,,,,,,,,,,,,,,,,,,,,,,,,,,,,,,,,,,,,,,,,,,,,,,,,,,,,,,,,,,,,,,,,,,,,,,,,,,,,,,,,,,,,,,,,,,,,
,,,,,,5db9fbd20fbd8b05db2aa3ed,62bbfb5342025b59ea7012ab,2022-06-29_08h12.40.086,Colour_Asymmetry_Pilot,2022.1.3,Win32,60.28817749,62bbe60bf3d75ef465d3e404,0,104,104,5,1,threefour,,,,,,,,,,,,,,,,,,,,,,,,,,,,,,,,,,,,,,,,,,,,,,,,,,,,,,,,,,,,,,,,,,,,,,,,,,,,,,,,,,,,,,,,,,,,,,,,,,,,,,,,,,,,,,,,,,,,,,,,,,,,,,,,,,,,,,,,,,,,,,,,,,,,,,,,
,,,,,,5db9fbd20fbd8b05db2aa3ed,62bbfb5342025b59ea7012ab,2022-06-29_08h12.40.086,Colour_Asymmetry_Pilot,2022.1.3,Win32,60.28817749,62bbe60bf3d75ef465d3e404,0,105,105,117,1,threefour,,,,,,,,,,,,,,,,,,,,,,,,,,,,,,,,,,,,,,,,,,,,,,,,,,,,,,,,,,,,,,,,,,,,,,,,,,,,,,,,,,,,,,,,,,,,,,,,,,,,,,,,,,,,,,,,,,,,,,,,,,,,,,,,,,,,,,,,,,,,,,,,,,,,,,,,
,,,,,,5db9fbd20fbd8b05db2aa3ed,62bbfb5342025b59ea7012ab,2022-06-29_08h12.40.086,Colour_Asymmetry_Pilot,2022.1.3,Win32,60.28817749,62bbe60bf3d75ef465d3e404,0,106,106,64,1,onetwo,,,,,,,,,,,,,,,,,,,,,,,,,,,,,,,,,,,,,,,,,,,,,,,,,,,,,,,,,,,,,,,,,,,,,,,,,,,,,,,,,,,,,,,,,,,,,,,,,,,,,,,,,,,,,,,,,,,,,,,,,,,,,,,,,,,,,,,,,,,,,,,,,,,,,,,,
,,,,,,5db9fbd20fbd8b05db2aa3ed,62bbfb5342025b59ea7012ab,2022-06-29_08h12.40.086,Colour_Asymmetry_Pilot,2022.1.3,Win32,60.28817749,62bbe60bf3d75ef465d3e404,0,107,107,31,1,fourthree,,,,,,,,,,,,,,,,,,,,,,,,,,,,,,,,,,,,,,,,,,,,,,,,,,,,,,,,,,,,,,,,,,,,,,,,,,,,,,,,,,,,,,,,,,,,,,,,,,,,,,,,,,,,,,,,,,,,,,,,,,,,,,,,,,,,,,,,,,,,,,,,,,,,,,,,
,,,,,,5db9fbd20fbd8b05db2aa3ed,62bbfb5342025b59ea7012ab,2022-06-29_08h12.40.086,Colour_Asymmetry_Pilot,2022.1.3,Win32,60.28817749,62bbe60bf3d75ef465d3e404,0,108,108,132,1,threeone,,,,,,,,,,,,,,,,,,,,,,,,,,,,,,,,,,,,,,,,,,,,,,,,,,,,,,,,,,,,,,,,,,,,,,,,,,,,,,,,,,,,,,,,,,,,,,,,,,,,,,,,,,,,,,,,,,,,,,,,,,,,,,,,,,,,,,,,,,,,,,,,,,,,,,,,
,,,,,,5db9fbd20fbd8b05db2aa3ed,62bbfb5342025b59ea7012ab,2022-06-29_08h12.40.086,Colour_Asymmetry_Pilot,2022.1.3,Win32,60.28817749,62bbe60bf3d75ef465d3e404,0,109,109,81,1,onethree,,,,,,,,,,,,,,,,,,,,,,,,,,,,,,,,,,,,,,,,,,,,,,,,,,,,,,,,,,,,,,,,,,,,,,,,,,,,,,,,,,,,,,,,,,,,,,,,,,,,,,,,,,,,,,,,,,,,,,,,,,,,,,,,,,,,,,,,,,,,,,,,,,,,,,,,
,,,,,,5db9fbd20fbd8b05db2aa3ed,62bbfb5342025b59ea7012ab,2022-06-29_08h12.40.086,Colour_Asymmetry_Pilot,2022.1.3,Win32,60.28817749,62bbe60bf3d75ef465d3e404,0,110,110,57,1,onethree,,,,,,,,,,,,,,,,,,,,,,,,,,,,,,,,,,,,,,,,,,,,,,,,,,,,,,,,,,,,,,,,,,,,,,,,,,,,,,,,,,,,,,,,,,,,,,,,,,,,,,,,,,,,,,,,,,,,,,,,,,,,,,,,,,,,,,,,,,,,,,,,,,,,,,,,
,,,,,,5db9fbd20fbd8b05db2aa3ed,62bbfb5342025b59ea7012ab,2022-06-29_08h12.40.086,Colour_Asymmetry_Pilot,2022.1.3,Win32,60.28817749,62bbe60bf3d75ef465d3e404,0,111,111,110,1,fourtwo,,,,,,,,,,,,,,,,,,,,,,,,,,,,,,,,,,,,,,,,,,,,,,,,,,,,,,,,,,,,,,,,,,,,,,,,,,,,,,,,,,,,,,,,,,,,,,,,,,,,,,,,,,,,,,,,,,,,,,,,,,,,,,,,,,,,,,,,,,,,,,,,,,,,,,,,
,,,,,,5db9fbd20fbd8b05db2aa3ed,62bbfb5342025b59ea7012ab,2022-06-29_08h12.40.086,Colour_Asymmetry_Pilot,2022.1.3,Win32,60.28817749,62bbe60bf3d75ef465d3e404,0,112,112,122,1,twoone,,,,,,,,,,,,,,,,,,,,,,,,,,,,,,,,,,,,,,,,,,,,,,,,,,,,,,,,,,,,,,,,,,,,,,,,,,,,,,,,,,,,,,,,,,,,,,,,,,,,,,,,,,,,,,,,,,,,,,,,,,,,,,,,,,,,,,,,,,,,,,,,,,,,,,,,
,,,,,,5db9fbd20fbd8b05db2aa3ed,62bbfb5342025b59ea7012ab,2022-06-29_08h12.40.086,Colour_Asymmetry_Pilot,2022.1.3,Win32,60.28817749,62bbe60bf3d75ef465d3e404,0,113,113,2,1,twoone,,,,,,,,,,,,,,,,,,,,,,,,,,,,,,,,,,,,,,,,,,,,,,,,,,,,,,,,,,,,,,,,,,,,,,,,,,,,,,,,,,,,,,,,,,,,,,,,,,,,,,,,,,,,,,,,,,,,,,,,,,,,,,,,,,,,,,,,,,,,,,,,,,,,,,,,
,,,,,,5db9fbd20fbd8b05db2aa3ed,62bbfb5342025b59ea7012ab,2022-06-29_08h12.40.086,Colour_Asymmetry_Pilot,2022.1.3,Win32,60.28817749,62bbe60bf3d75ef465d3e404,0,114,114,96,1,onetwo,,,,,,,,,,,,,,,,,,,,,,,,,,,,,,,,,,,,,,,,,,,,,,,,,,,,,,,,,,,,,,,,,,,,,,,,,,,,,,,,,,,,,,,,,,,,,,,,,,,,,,,,,,,,,,,,,,,,,,,,,,,,,,,,,,,,,,,,,,,,,,,,,,,,,,,,
,,,,,,5db9fbd20fbd8b05db2aa3ed,62bbfb5342025b59ea7012ab,2022-06-29_08h12.40.086,Colour_Asymmetry_Pilot,2022.1.3,Win32,60.28817749,62bbe60bf3d75ef465d3e404,0,115,115,94,1,fourtwo,,,,,,,,,,,,,,,,,,,,,,,,,,,,,,,,,,,,,,,,,,,,,,,,,,,,,,,,,,,,,,,,,,,,,,,,,,,,,,,,,,,,,,,,,,,,,,,,,,,,,,,,,,,,,,,,,,,,,,,,,,,,,,,,,,,,,,,,,,,,,,,,,,,,,,,,
,,,,,,5db9fbd20fbd8b05db2aa3ed,62bbfb5342025b59ea7012ab,2022-06-29_08h12.40.086,Colour_Asymmetry_Pilot,2022.1.3,Win32,60.28817749,62bbe60bf3d75ef465d3e404,0,116,116,33,1,onethree,,,,,,,,,,,,,,,,,,,,,,,,,,,,,,,,,,,,,,,,,,,,,,,,,,,,,,,,,,,,,,,,,,,,,,,,,,,,,,,,,,,,,,,,,,,,,,,,,,,,,,,,,,,,,,,,,,,,,,,,,,,,,,,,,,,,,,,,,,,,,,,,,,,,,,,,
,,,,,,5db9fbd20fbd8b05db2aa3ed,62bbfb5342025b59ea7012ab,2022-06-29_08h12.40.086,Colour_Asymmetry_Pilot,2022.1.3,Win32,60.28817749,62bbe60bf3d75ef465d3e404,0,117,117,105,1,onethree,,,,,,,,,,,,,,,,,,,,,,,,,,,,,,,,,,,,,,,,,,,,,,,,,,,,,,,,,,,,,,,,,,,,,,,,,,,,,,,,,,,,,,,,,,,,,,,,,,,,,,,,,,,,,,,,,,,,,,,,,,,,,,,,,,,,,,,,,,,,,,,,,,,,,,,,
,,,,,,5db9fbd20fbd8b05db2aa3ed,62bbfb5342025b59ea7012ab,2022-06-29_08h12.40.086,Colour_Asymmetry_Pilot,2022.1.3,Win32,60.28817749,62bbe60bf3d75ef465d3e404,0,118,118,18,1,twoone,,,,,,,,,,,,,,,,,,,,,,,,,,,,,,,,,,,,,,,,,,,,,,,,,,,,,,,,,,,,,,,,,,,,,,,,,,,,,,,,,,,,,,,,,,,,,,,,,,,,,,,,,,,,,,,,,,,,,,,,,,,,,,,,,,,,,,,,,,,,,,,,,,,,,,,,
,,,,,,5db9fbd20fbd8b05db2aa3ed,62bbfb5342025b59ea7012ab,2022-06-29_08h12.40.086,Colour_Asymmetry_Pilot,2022.1.3,Win32,60.28817749,62bbe60bf3d75ef465d3e404,0,119,119,113,1,onethree,,,,,,,,,,,,,,,,,,,,,,,,,,,,,,,,,,,,,,,,,,,,,,,,,,,,,,,,,,,,,,,,,,,,,,,,,,,,,,,,,,,,,,,,,,,,,,,,,,,,,,,,,,,,,,,,,,,,,,,,,,,,,,,,,,,,,,,,,,,,,,,,,,,,,,,,
,,,,,,5db9fbd20fbd8b05db2aa3ed,62bbfb5342025b59ea7012ab,2022-06-29_08h12.40.086,Colour_Asymmetry_Pilot,2022.1.3,Win32,60.28817749,62bbe60bf3d75ef465d3e404,0,120,120,21,1,threefour,,,,,,,,,,,,,,,,,,,,,,,,,,,,,,,,,,,,,,,,,,,,,,,,,,,,,,,,,,,,,,,,,,,,,,,,,,,,,,,,,,,,,,,,,,,,,,,,,,,,,,,,,,,,,,,,,,,,,,,,,,,,,,,,,,,,,,,,,,,,,,,,,,,,,,,,
,,,,,,5db9fbd20fbd8b05db2aa3ed,62bbfb5342025b59ea7012ab,2022-06-29_08h12.40.086,Colour_Asymmetry_Pilot,2022.1.3,Win32,60.28817749,62bbe60bf3d75ef465d3e404,0,121,121,154,1,twoone,,,,,,,,,,,,,,,,,,,,,,,,,,,,,,,,,,,,,,,,,,,,,,,,,,,,,,,,,,,,,,,,,,,,,,,,,,,,,,,,,,,,,,,,,,,,,,,,,,,,,,,,,,,,,,,,,,,,,,,,,,,,,,,,,,,,,,,,,,,,,,,,,,,,,,,,
,,,,,,5db9fbd20fbd8b05db2aa3ed,62bbfb5342025b59ea7012ab,2022-06-29_08h12.40.086,Colour_Asymmetry_Pilot,2022.1.3,Win32,60.28817749,62bbe60bf3d75ef465d3e404,0,122,122,53,1,threefour,,,,,,,,,,,,,,,,,,,,,,,,,,,,,,,,,,,,,,,,,,,,,,,,,,,,,,,,,,,,,,,,,,,,,,,,,,,,,,,,,,,,,,,,,,,,,,,,,,,,,,,,,,,,,,,,,,,,,,,,,,,,,,,,,,,,,,,,,,,,,,,,,,,,,,,,
,,,,,,5db9fbd20fbd8b05db2aa3ed,62bbfb5342025b59ea7012ab,2022-06-29_08h12.40.086,Colour_Asymmetry_Pilot,2022.1.3,Win32,60.28817749,62bbe60bf3d75ef465d3e404,0,123,123,79,1,fourthree,,,,,,,,,,,,,,,,,,,,,,,,,,,,,,,,,,,,,,,,,,,,,,,,,,,,,,,,,,,,,,,,,,,,,,,,,,,,,,,,,,,,,,,,,,,,,,,,,,,,,,,,,,,,,,,,,,,,,,,,,,,,,,,,,,,,,,,,,,,,,,,,,,,,,,,,
,,,,,,5db9fbd20fbd8b05db2aa3ed,62bbfb5342025b59ea7012ab,2022-06-29_08h12.40.086,Colour_Asymmetry_Pilot,2022.1.3,Win32,60.28817749,62bbe60bf3d75ef465d3e404,0,124,124,48,1,onetwo,,,,,,,,,,,,,,,,,,,,,,,,,,,,,,,,,,,,,,,,,,,,,,,,,,,,,,,,,,,,,,,,,,,,,,,,,,,,,,,,,,,,,,,,,,,,,,,,,,,,,,,,,,,,,,,,,,,,,,,,,,,,,,,,,,,,,,,,,,,,,,,,,,,,,,,,
,,,,,,5db9fbd20fbd8b05db2aa3ed,62bbfb5342025b59ea7012ab,2022-06-29_08h12.40.086,Colour_Asymmetry_Pilot,2022.1.3,Win32,60.28817749,62bbe60bf3d75ef465d3e404,0,125,125,26,1,twoone,,,,,,,,,,,,,,,,,,,,,,,,,,,,,,,,,,,,,,,,,,,,,,,,,,,,,,,,,,,,,,,,,,,,,,,,,,,,,,,,,,,,,,,,,,,,,,,,,,,,,,,,,,,,,,,,,,,,,,,,,,,,,,,,,,,,,,,,,,,,,,,,,,,,,,,,
,,,,,,5db9fbd20fbd8b05db2aa3ed,62bbfb5342025b59ea7012ab,2022-06-29_08h12.40.086,Colour_Asymmetry_Pilot,2022.1.3,Win32,60.28817749,62bbe60bf3d75ef465d3e404,0,126,126,54,1,fourtwo,,,,,,,,,,,,,,,,,,,,,,,,,,,,,,,,,,,,,,,,,,,,,,,,,,,,,,,,,,,,,,,,,,,,,,,,,,,,,,,,,,,,,,,,,,,,,,,,,,,,,,,,,,,,,,,,,,,,,,,,,,,,,,,,,,,,,,,,,,,,,,,,,,,,,,,,
,,,,,,5db9fbd20fbd8b05db2aa3ed,62bbfb5342025b59ea7012ab,2022-06-29_08h12.40.086,Colour_Asymmetry_Pilot,2022.1.3,Win32,60.28817749,62bbe60bf3d75ef465d3e404,0,127,127,149,1,threefour,,,,,,,,,,,,,,,,,,,,,,,,,,,,,,,,,,,,,,,,,,,,,,,,,,,,,,,,,,,,,,,,,,,,,,,,,,,,,,,,,,,,,,,,,,,,,,,,,,,,,,,,,,,,,,,,,,,,,,,,,,,,,,,,,,,,,,,,,,,,,,,,,,,,,,,,
,,,,,,5db9fbd20fbd8b05db2aa3ed,62bbfb5342025b59ea7012ab,2022-06-29_08h12.40.086,Colour_Asymmetry_Pilot,2022.1.3,Win32,60.28817749,62bbe60bf3d75ef465d3e404,0,128,128,7,1,fourthree,,,,,,,,,,,,,,,,,,,,,,,,,,,,,,,,,,,,,,,,,,,,,,,,,,,,,,,,,,,,,,,,,,,,,,,,,,,,,,,,,,,,,,,,,,,,,,,,,,,,,,,,,,,,,,,,,,,,,,,,,,,,,,,,,,,,,,,,,,,,,,,,,,,,,,,,
,,,,,,5db9fbd20fbd8b05db2aa3ed,62bbfb5342025b59ea7012ab,2022-06-29_08h12.40.086,Colour_Asymmetry_Pilot,2022.1.3,Win32,60.28817749,62bbe60bf3d75ef465d3e404,0,129,129,128,1,onetwo,,,,,,,,,,,,,,,,,,,,,,,,,,,,,,,,,,,,,,,,,,,,,,,,,,,,,,,,,,,,,,,,,,,,,,,,,,,,,,,,,,,,,,,,,,,,,,,,,,,,,,,,,,,,,,,,,,,,,,,,,,,,,,,,,,,,,,,,,,,,,,,,,,,,,,,,
,,,,,,5db9fbd20fbd8b05db2aa3ed,62bbfb5342025b59ea7012ab,2022-06-29_08h12.40.086,Colour_Asymmetry_Pilot,2022.1.3,Win32,60.28817749,62bbe60bf3d75ef465d3e404,0,130,130,144,1,onetwo,,,,,,,,,,,,,,,,,,,,,,,,,,,,,,,,,,,,,,,,,,,,,,,,,,,,,,,,,,,,,,,,,,,,,,,,,,,,,,,,,,,,,,,,,,,,,,,,,,,,,,,,,,,,,,,,,,,,,,,,,,,,,,,,,,,,,,,,,,,,,,,,,,,,,,,,
,,,,,,5db9fbd20fbd8b05db2aa3ed,62bbfb5342025b59ea7012ab,2022-06-29_08h12.40.086,Colour_Asymmetry_Pilot,2022.1.3,Win32,60.28817749,62bbe60bf3d75ef465d3e404,0,131,131,49,1,onethree,,,,,,,,,,,,,,,,,,,,,,,,,,,,,,,,,,,,,,,,,,,,,,,,,,,,,,,,,,,,,,,,,,,,,,,,,,,,,,,,,,,,,,,,,,,,,,,,,,,,,,,,,,,,,,,,,,,,,,,,,,,,,,,,,,,,,,,,,,,,,,,,,,,,,,,,
,,,,,,5db9fbd20fbd8b05db2aa3ed,62bbfb5342025b59ea7012ab,2022-06-29_08h12.40.086,Colour_Asymmetry_Pilot,2022.1.3,Win32,60.28817749,62bbe60bf3d75ef465d3e404,0,132,132,83,1,twofour,,,,,,,,,,,,,,,,,,,,,,,,,,,,,,,,,,,,,,,,,,,,,,,,,,,,,,,,,,,,,,,,,,,,,,,,,,,,,,,,,,,,,,,,,,,,,,,,,,,,,,,,,,,,,,,,,,,,,,,,,,,,,,,,,,,,,,,,,,,,,,,,,,,,,,,,
,,,,,,5db9fbd20fbd8b05db2aa3ed,62bbfb5342025b59ea7012ab,2022-06-29_08h12.40.086,Colour_Asymmetry_Pilot,2022.1.3,Win32,60.28817749,62bbe60bf3d75ef465d3e404,0,133,133,120,1,onetwo,,,,,,,,,,,,,,,,,,,,,,,,,,,,,,,,,,,,,,,,,,,,,,,,,,,,,,,,,,,,,,,,,,,,,,,,,,,,,,,,,,,,,,,,,,,,,,,,,,,,,,,,,,,,,,,,,,,,,,,,,,,,,,,,,,,,,,,,,,,,,,,,,,,,,,,,
,,,,,,5db9fbd20fbd8b05db2aa3ed,62bbfb5342025b59ea7012ab,2022-06-29_08h12.40.086,Colour_Asymmetry_Pilot,2022.1.3,Win32,60.28817749,62bbe60bf3d75ef465d3e404,0,134,134,4,1,threeone,,,,,,,,,,,,,,,,,,,,,,,,,,,,,,,,,,,,,,,,,,,,,,,,,,,,,,,,,,,,,,,,,,,,,,,,,,,,,,,,,,,,,,,,,,,,,,,,,,,,,,,,,,,,,,,,,,,,,,,,,,,,,,,,,,,,,,,,,,,,,,,,,,,,,,,,
,,,,,,5db9fbd20fbd8b05db2aa3ed,62bbfb5342025b59ea7012ab,2022-06-29_08h12.40.086,Colour_Asymmetry_Pilot,2022.1.3,Win32,60.28817749,62bbe60bf3d75ef465d3e404,0,135,135,109,1,threefour,,,,,,,,,,,,,,,,,,,,,,,,,,,,,,,,,,,,,,,,,,,,,,,,,,,,,,,,,,,,,,,,,,,,,,,,,,,,,,,,,,,,,,,,,,,,,,,,,,,,,,,,,,,,,,,,,,,,,,,,,,,,,,,,,,,,,,,,,,,,,,,,,,,,,,,,
,,,,,,5db9fbd20fbd8b05db2aa3ed,62bbfb5342025b59ea7012ab,2022-06-29_08h12.40.086,Colour_Asymmetry_Pilot,2022.1.3,Win32,60.28817749,62bbe60bf3d75ef465d3e404,0,136,136,22,1,fourtwo,,,,,,,,,,,,,,,,,,,,,,,,,,,,,,,,,,,,,,,,,,,,,,,,,,,,,,,,,,,,,,,,,,,,,,,,,,,,,,,,,,,,,,,,,,,,,,,,,,,,,,,,,,,,,,,,,,,,,,,,,,,,,,,,,,,,,,,,,,,,,,,,,,,,,,,,
,,,,,,5db9fbd20fbd8b05db2aa3ed,62bbfb5342025b59ea7012ab,2022-06-29_08h12.40.086,Colour_Asymmetry_Pilot,2022.1.3,Win32,60.28817749,62bbe60bf3d75ef465d3e404,0,137,137,34,1,twoone,,,,,,,,,,,,,,,,,,,,,,,,,,,,,,,,,,,,,,,,,,,,,,,,,,,,,,,,,,,,,,,,,,,,,,,,,,,,,,,,,,,,,,,,,,,,,,,,,,,,,,,,,,,,,,,,,,,,,,,,,,,,,,,,,,,,,,,,,,,,,,,,,,,,,,,,
,,,,,,5db9fbd20fbd8b05db2aa3ed,62bbfb5342025b59ea7012ab,2022-06-29_08h12.40.086,Colour_Asymmetry_Pilot,2022.1.3,Win32,60.28817749,62bbe60bf3d75ef465d3e404,0,138,138,41,1,onethree,,,,,,,,,,,,,,,,,,,,,,,,,,,,,,,,,,,,,,,,,,,,,,,,,,,,,,,,,,,,,,,,,,,,,,,,,,,,,,,,,,,,,,,,,,,,,,,,,,,,,,,,,,,,,,,,,,,,,,,,,,,,,,,,,,,,,,,,,,,,,,,,,,,,,,,,
,,,,,,5db9fbd20fbd8b05db2aa3ed,62bbfb5342025b59ea7012ab,2022-06-29_08h12.40.086,Colour_Asymmetry_Pilot,2022.1.3,Win32,60.28817749,62bbe60bf3d75ef465d3e404,0,139,139,51,1,twofour,,,,,,,,,,,,,,,,,,,,,,,,,,,,,,,,,,,,,,,,,,,,,,,,,,,,,,,,,,,,,,,,,,,,,,,,,,,,,,,,,,,,,,,,,,,,,,,,,,,,,,,,,,,,,,,,,,,,,,,,,,,,,,,,,,,,,,,,,,,,,,,,,,,,,,,,
,,,,,,5db9fbd20fbd8b05db2aa3ed,62bbfb5342025b59ea7012ab,2022-06-29_08h12.40.086,Colour_Asymmetry_Pilot,2022.1.3,Win32,60.28817749,62bbe60bf3d75ef465d3e404,0,140,140,91,1,twofour,,,,,,,,,,,,,,,,,,,,,,,,,,,,,,,,,,,,,,,,,,,,,,,,,,,,,,,,,,,,,,,,,,,,,,,,,,,,,,,,,,,,,,,,,,,,,,,,,,,,,,,,,,,,,,,,,,,,,,,,,,,,,,,,,,,,,,,,,,,,,,,,,,,,,,,,
,,,,,,5db9fbd20fbd8b05db2aa3ed,62bbfb5342025b59ea7012ab,2022-06-29_08h12.40.086,Colour_Asymmetry_Pilot,2022.1.3,Win32,60.28817749,62bbe60bf3d75ef465d3e404,0,141,141,3,1,twofour,,,,,,,,,,,,,,,,,,,,,,,,,,,,,,,,,,,,,,,,,,,,,,,,,,,,,,,,,,,,,,,,,,,,,,,,,,,,,,,,,,,,,,,,,,,,,,,,,,,,,,,,,,,,,,,,,,,,,,,,,,,,,,,,,,,,,,,,,,,,,,,,,,,,,,,,
,,,,,,5db9fbd20fbd8b05db2aa3ed,62bbfb5342025b59ea7012ab,2022-06-29_08h12.40.086,Colour_Asymmetry_Pilot,2022.1.3,Win32,60.28817749,62bbe60bf3d75ef465d3e404,0,142,142,29,1,threefour,,,,,,,,,,,,,,,,,,,,,,,,,,,,,,,,,,,,,,,,,,,,,,,,,,,,,,,,,,,,,,,,,,,,,,,,,,,,,,,,,,,,,,,,,,,,,,,,,,,,,,,,,,,,,,,,,,,,,,,,,,,,,,,,,,,,,,,,,,,,,,,,,,,,,,,,
,,,,,,5db9fbd20fbd8b05db2aa3ed,62bbfb5342025b59ea7012ab,2022-06-29_08h12.40.086,Colour_Asymmetry_Pilot,2022.1.3,Win32,60.28817749,62bbe60bf3d75ef465d3e404,0,143,143,97,1,onethree,,,,,,,,,,,,,,,,,,,,,,,,,,,,,,,,,,,,,,,,,,,,,,,,,,,,,,,,,,,,,,,,,,,,,,,,,,,,,,,,,,,,,,,,,,,,,,,,,,,,,,,,,,,,,,,,,,,,,,,,,,,,,,,,,,,,,,,,,,,,,,,,,,,,,,,,
,,,,,,5db9fbd20fbd8b05db2aa3ed,62bbfb5342025b59ea7012ab,2022-06-29_08h12.40.086,Colour_Asymmetry_Pilot,2022.1.3,Win32,60.28817749,62bbe60bf3d75ef465d3e404,0,144,144,0,1,onetwo,,,,,,,,,,,,,,,,,,,,,,,,,,,,,,,,,,,,,,,,,,,,,,,,,,,,,,,,,,,,,,,,,,,,,,,,,,,,,,,,,,,,,,,,,,,,,,,,,,,,,,,,,,,,,,,,,,,,,,,,,,,,,,,,,,,,,,,,,,,,,,,,,,,,,,,,
,,,,,,5db9fbd20fbd8b05db2aa3ed,62bbfb5342025b59ea7012ab,2022-06-29_08h12.40.086,Colour_Asymmetry_Pilot,2022.1.3,Win32,60.28817749,62bbe60bf3d75ef465d3e404,0,145,145,9,1,onethree,,,,,,,,,,,,,,,,,,,,,,,,,,,,,,,,,,,,,,,,,,,,,,,,,,,,,,,,,,,,,,,,,,,,,,,,,,,,,,,,,,,,,,,,,,,,,,,,,,,,,,,,,,,,,,,,,,,,,,,,,,,,,,,,,,,,,,,,,,,,,,,,,,,,,,,,
,,,,,,5db9fbd20fbd8b05db2aa3ed,62bbfb5342025b59ea7012ab,2022-06-29_08h12.40.086,Colour_Asymmetry_Pilot,2022.1.3,Win32,60.28817749,62bbe60bf3d75ef465d3e404,0,146,146,136,1,onetwo,,,,,,,,,,,,,,,,,,,,,,,,,,,,,,,,,,,,,,,,,,,,,,,,,,,,,,,,,,,,,,,,,,,,,,,,,,,,,,,,,,,,,,,,,,,,,,,,,,,,,,,,,,,,,,,,,,,,,,,,,,,,,,,,,,,,,,,,,,,,,,,,,,,,,,,,
,,,,,,5db9fbd20fbd8b05db2aa3ed,62bbfb5342025b59ea7012ab,2022-06-29_08h12.40.086,Colour_Asymmetry_Pilot,2022.1.3,Win32,60.28817749,62bbe60bf3d75ef465d3e404,0,147,147,142,1,fourtwo,,,,,,,,,,,,,,,,,,,,,,,,,,,,,,,,,,,,,,,,,,,,,,,,,,,,,,,,,,,,,,,,,,,,,,,,,,,,,,,,,,,,,,,,,,,,,,,,,,,,,,,,,,,,,,,,,,,,,,,,,,,,,,,,,,,,,,,,,,,,,,,,,,,,,,,,
,,,,,,5db9fbd20fbd8b05db2aa3ed,62bbfb5342025b59ea7012ab,2022-06-29_08h12.40.086,Colour_Asymmetry_Pilot,2022.1.3,Win32,60.28817749,62bbe60bf3d75ef465d3e404,0,148,148,56,1,onetwo,,,,,,,,,,,,,,,,,,,,,,,,,,,,,,,,,,,,,,,,,,,,,,,,,,,,,,,,,,,,,,,,,,,,,,,,,,,,,,,,,,,,,,,,,,,,,,,,,,,,,,,,,,,,,,,,,,,,,,,,,,,,,,,,,,,,,,,,,,,,,,,,,,,,,,,,
,,,,,,5db9fbd20fbd8b05db2aa3ed,62bbfb5342025b59ea7012ab,2022-06-29_08h12.40.086,Colour_Asymmetry_Pilot,2022.1.3,Win32,60.28817749,62bbe60bf3d75ef465d3e404,0,149,149,61,1,threefour,,,,,,,,,,,,,,,,,,,,,,,,,,,,,,,,,,,,,,,,,,,,,,,,,,,,,,,,,,,,,,,,,,,,,,,,,,,,,,,,,,,,,,,,,,,,,,,,,,,,,,,,,,,,,,,,,,,,,,,,,,,,,,,,,,,,,,,,,,,,,,,,,,,,,,,,
,,,,,,5db9fbd20fbd8b05db2aa3ed,62bbfb5342025b59ea7012ab,2022-06-29_08h12.40.086,Colour_Asymmetry_Pilot,2022.1.3,Win32,60.28817749,62bbe60bf3d75ef465d3e404,0,150,150,58,1,twoone,,,,,,,,,,,,,,,,,,,,,,,,,,,,,,,,,,,,,,,,,,,,,,,,,,,,,,,,,,,,,,,,,,,,,,,,,,,,,,,,,,,,,,,,,,,,,,,,,,,,,,,,,,,,,,,,,,,,,,,,,,,,,,,,,,,,,,,,,,,,,,,,,,,,,,,,
,,,,,,5db9fbd20fbd8b05db2aa3ed,62bbfb5342025b59ea7012ab,2022-06-29_08h12.40.086,Colour_Asymmetry_Pilot,2022.1.3,Win32,60.28817749,62bbe60bf3d75ef465d3e404,0,151,151,72,1,onetwo,,,,,,,,,,,,,,,,,,,,,,,,,,,,,,,,,,,,,,,,,,,,,,,,,,,,,,,,,,,,,,,,,,,,,,,,,,,,,,,,,,,,,,,,,,,,,,,,,,,,,,,,,,,,,,,,,,,,,,,,,,,,,,,,,,,,,,,,,,,,,,,,,,,,,,,,
,,,,,,5db9fbd20fbd8b05db2aa3ed,62bbfb5342025b59ea7012ab,2022-06-29_08h12.40.086,Colour_Asymmetry_Pilot,2022.1.3,Win32,60.28817749,62bbe60bf3d75ef465d3e404,0,152,152,160,1,onetwo,,,,,,,,,,,,,,,,,,,,,,,,,,,,,,,,,,,,,,,,,,,,,,,,,,,,,,,,,,,,,,,,,,,,,,,,,,,,,,,,,,,,,,,,,,,,,,,,,,,,,,,,,,,,,,,,,,,,,,,,,,,,,,,,,,,,,,,,,,,,,,,,,,,,,,,,
,,,,,,5db9fbd20fbd8b05db2aa3ed,62bbfb5342025b59ea7012ab,2022-06-29_08h12.40.086,Colour_Asymmetry_Pilot,2022.1.3,Win32,60.28817749,62bbe60bf3d75ef465d3e404,0,153,153,1,1,onethree,,,,,,,,,,,,,,,,,,,,,,,,,,,,,,,,,,,,,,,,,,,,,,,,,,,,,,,,,,,,,,,,,,,,,,,,,,,,,,,,,,,,,,,,,,,,,,,,,,,,,,,,,,,,,,,,,,,,,,,,,,,,,,,,,,,,,,,,,,,,,,,,,,,,,,,,
,,,,,,5db9fbd20fbd8b05db2aa3ed,62bbfb5342025b59ea7012ab,2022-06-29_08h12.40.086,Colour_Asymmetry_Pilot,2022.1.3,Win32,60.28817749,62bbe60bf3d75ef465d3e404,0,154,154,40,1,onetwo,,,,,,,,,,,,,,,,,,,,,,,,,,,,,,,,,,,,,,,,,,,,,,,,,,,,,,,,,,,,,,,,,,,,,,,,,,,,,,,,,,,,,,,,,,,,,,,,,,,,,,,,,,,,,,,,,,,,,,,,,,,,,,,,,,,,,,,,,,,,,,,,,,,,,,,,
,,,,,,5db9fbd20fbd8b05db2aa3ed,62bbfb5342025b59ea7012ab,2022-06-29_08h12.40.086,Colour_Asymmetry_Pilot,2022.1.3,Win32,60.28817749,62bbe60bf3d75ef465d3e404,0,155,155,24,1,onetwo,,,,,,,,,,,,,,,,,,,,,,,,,,,,,,,,,,,,,,,,,,,,,,,,,,,,,,,,,,,,,,,,,,,,,,,,,,,,,,,,,,,,,,,,,,,,,,,,,,,,,,,,,,,,,,,,,,,,,,,,,,,,,,,,,,,,,,,,,,,,,,,,,,,,,,,,
,,,,,,5db9fbd20fbd8b05db2aa3ed,62bbfb5342025b59ea7012ab,2022-06-29_08h12.40.086,Colour_Asymmetry_Pilot,2022.1.3,Win32,60.28817749,62bbe60bf3d75ef465d3e404,0,156,156,125,1,threefour,,,,,,,,,,,,,,,,,,,,,,,,,,,,,,,,,,,,,,,,,,,,,,,,,,,,,,,,,,,,,,,,,,,,,,,,,,,,,,,,,,,,,,,,,,,,,,,,,,,,,,,,,,,,,,,,,,,,,,,,,,,,,,,,,,,,,,,,,,,,,,,,,,,,,,,,
,,,,,,5db9fbd20fbd8b05db2aa3ed,62bbfb5342025b59ea7012ab,2022-06-29_08h12.40.086,Colour_Asymmetry_Pilot,2022.1.3,Win32,60.28817749,62bbe60bf3d75ef465d3e404,0,157,157,14,1,fourtwo,,,,,,,,,,,,,,,,,,,,,,,,,,,,,,,,,,,,,,,,,,,,,,,,,,,,,,,,,,,,,,,,,,,,,,,,,,,,,,,,,,,,,,,,,,,,,,,,,,,,,,,,,,,,,,,,,,,,,,,,,,,,,,,,,,,,,,,,,,,,,,,,,,,,,,,,
,,,,,,5db9fbd20fbd8b05db2aa3ed,62bbfb5342025b59ea7012ab,2022-06-29_08h12.40.086,Colour_Asymmetry_Pilot,2022.1.3,Win32,60.28817749,62bbe60bf3d75ef465d3e404,0,158,158,6,1,fourtwo,,,,,,,,,,,,,,,,,,,,,,,,,,,,,,,,,,,,,,,,,,,,,,,,,,,,,,,,,,,,,,,,,,,,,,,,,,,,,,,,,,,,,,,,,,,,,,,,,,,,,,,,,,,,,,,,,,,,,,,,,,,,,,,,,,,,,,,,,,,,,,,,,,,,,,,,
,,,,,,5db9fbd20fbd8b05db2aa3ed,62bbfb5342025b59ea7012ab,2022-06-29_08h12.40.086,Colour_Asymmetry_Pilot,2022.1.3,Win32,60.28817749,62bbe60bf3d75ef465d3e404,0,159,159,46,1,fourtwo,,,,,,,,,,,,,,,,,,,,,,,,,,,,,,,,,,,,,,,,,,,,,,,,,,,,,,,,,,,,,,,,,,,,,,,,,,,,,,,,,,,,,,,,,,,,,,,,,,,,,,,,,,,,,,,,,,,,,,,,,,,,,,,,,,,,,,,,,,,,,,,,,,,,,,,,
,,,,,,5db9fbd20fbd8b05db2aa3ed,62bbfb5342025b59ea7012ab,2022-06-29_08h12.40.086,Colour_Asymmetry_Pilot,2022.1.3,Win32,60.28817749,62bbe60bf3d75ef465d3e404,0,160,160,25,1,onethree,,,,,,,,,,,,,,,,,,,,,,,,,,,,,,,,,,,,,,,,,,,,,,,,,,,,,,,,,,,,,,,,,,,,,,,,,,,,,,,,,,,,,,,,,,,,,,,,,,,,,,,,,,,,,,,,,,,,,,,,,,,,,,,,,,,,,,,,,,,,,,,,,,,,,,,,
,,,,,,5db9fbd20fbd8b05db2aa3ed,62bbfb5342025b59ea7012ab,2022-06-29_08h12.40.086,Colour_Asymmetry_Pilot,2022.1.3,Win32,60.28817749,62bbe60bf3d75ef465d3e404,0,161,161,44,1,threeone,,,,,,,,,,,,,,,,,,,,,,,,,,,,,,,,,,,,,,,,,,,,,,,,,,,,,,,,,,,,,,,,,,,,,,,,,,,,,,,,,,,,,,,,,,,,,,,,,,,,,,,,,,,,,,,,,,,,,,,,,,,,,,,,,,,,,,,,,,,,,,,,,,,,,,,,
,,,,,,5db9fbd20fbd8b05db2aa3ed,62bbfb5342025b59ea7012ab,2022-06-29_08h12.40.086,Colour_Asymmetry_Pilot,2022.1.3,Win32,60.28817749,62bbe60bf3d75ef465d3e404,,,,,,,space,4.8738,space,33.6331,space,33.7277,space,48.3457,space,4.4369,space,4.4605,"[0.6625999999999999,0.4980000000000002,-0.357]",threefour,"[-0.6706000000000001,-0.6157999999999999,-0.6786]",-4,4.4139,-36,101.333313,1,0,0,response7disk_5,-3.333312988,-6,1,0,0,rectangle_8,-3.333312988,-6,1,0,0,2,-3.333312988,-6,1,0,0,0,0,0,0,1,,,,,,,,,,,,,,,,,,,,,,,,,,,,,,,,,,,,,,,,,,,,,,,,,,,,,,,,,,,,,,,,,,,,,,,,,,,,,,,,,,,,,,,,,,,,,,,,,,,,,,,,,,,
,,,,,,5db9fbd20fbd8b05db2aa3ed,62bbfb5342025b59ea7012ab,2022-06-29_08h12.40.086,Colour_Asymmetry_Pilot,2022.1.3,Win32,60.28817749,62bbe60bf3d75ef465d3e404,,,,,,,,,,,,,,,,,,,"[0.23120000000000007,-0.7726,-0.34120000000000006]",fourthree,"[0.09799999999999986,-0.24719999999999998,0.15280000000000005]",2,2.2478,65.33337402,-50,1,0,0,response3disk_5,12,-5.333343506,1,0,0,rectangle_8,12,-5.333343506,1,0,0,2,12,-5.333343506,1,0,0,1,0,1,0,1,,,,,,,,,,,,,,,,,,,,,,,,,,,,,,,,,,,,,,,,,,,,,,,,,,,,,,,,,,,,,,,,,,,,,,,,,,,,,,,,,,,,,,,,,,,,,,,,,,,,,,,,,,,
,,,,,,5db9fbd20fbd8b05db2aa3ed,62bbfb5342025b59ea7012ab,2022-06-29_08h12.40.086,Colour_Asymmetry_Pilot,2022.1.3,Win32,60.28817749,62bbe60bf3d75ef465d3e404,,,,,,,,,,,,,,,,,,,"[-0.26280000000000003,-0.4746,-0.2158]",threefour,"[-0.30200000000000005,0.14500000000000002,0.2784]",-1,2.231,-48.66662598,-90,1,0,0,response5disk_5,-2,1.333312988,1,0,0,rectangle_8,-2,1.333312988,1,0,0,2,-2,1.333312988,1,0,0,2,0,2,0,1,,,,,,,,,,,,,,,,,,,,,,,,,,,,,,,,,,,,,,,,,,,,,,,,,,,,,,,,,,,,,,,,,,,,,,,,,,,,,,,,,,,,,,,,,,,,,,,,,,,,,,,,,,,
,,,,,,5db9fbd20fbd8b05db2aa3ed,62bbfb5342025b59ea7012ab,2022-06-29_08h12.40.086,Colour_Asymmetry_Pilot,2022.1.3,Win32,60.28817749,62bbe60bf3d75ef465d3e404,,,,,,,,,,,,,,,,,,,"[0.5449999999999999,-0.31000000000000005,-0.0354000000000001]",onetwo,"[1,0.12939999999999996,-1]",-1,2.4645,-18.66662598,-54.66668701,1,0,0,response5disk_5,0.666687012,-7.333343506,1,0,0,rectangle_8,0.666687012,-7.333343506,1,0,0,2,0.666687012,-7.333343506,1,0,0,3,0,3,0,1,,,,,,,,,,,,,,,,,,,,,,,,,,,,,,,,,,,,,,,,,,,,,,,,,,,,,,,,,,,,,,,,,,,,,,,,,,,,,,,,,,,,,,,,,,,,,,,,,,,,,,,,,,,
,,,,,,5db9fbd20fbd8b05db2aa3ed,62bbfb5342025b59ea7012ab,2022-06-29_08h12.40.086,Colour_Asymmetry_Pilot,2022.1.3,Win32,60.28817749,62bbe60bf3d75ef465d3e404,,,,,,,,,,,,,,,,,,,"[0.7018,0.7176,0.6155999999999999]",twofour,"[-0.9688,-0.7412000000000001,-0.4902000000000001]",-4,2.1489,-24.66662598,70.66665649,1,0,0,response7disk_5,-6.666625977,2.666656494,1,0,0,rectangle_8,-6.666625977,2.666656494,1,0,0,2,-6.666625977,2.666656494,1,0,0,4,0,4,0,1,,,,,,,,,,,,,,,,,,,,,,,,,,,,,,,,,,,,,,,,,,,,,,,,,,,,,,,,,,,,,,,,,,,,,,,,,,,,,,,,,,,,,,,,,,,,,,,,,,,,,,,,,,,
,,,,,,5db9fbd20fbd8b05db2aa3ed,62bbfb5342025b59ea7012ab,2022-06-29_08h12.40.086,Colour_Asymmetry_Pilot,2022.1.3,Win32,60.28817749,62bbe60bf3d75ef465d3e404,,,,,,,,,,,,,,,,,,,"[0.8115999999999999,-0.0040000000000000036,-0.09819999999999995]",twofour,"[0.7018,0.7802,-0.16079999999999994]",-2,1.0652,-50,-26,1,0,0,response5disk_5,-6.666625977,-2.666687012,1,0,0,rectangle_8,84,-30,1,0,0,2,5.333374023,-2.666687012,1,0,0,5,0,5,0,1,response3disk_7,5,rectangle_4,,,,,,,,,,,,,,,,,,,,,,,,,,,,,,,,,,,,,,,,,,,,,,,,,,,,,,,,,,,,,,,,,,,,,,,,,,,,,,,,,,,,,,,,,,,,,,,,,,,,,,,,
,,,,,,5db9fbd20fbd8b05db2aa3ed,62bbfb5342025b59ea7012ab,2022-06-29_08h12.40.086,Colour_Asymmetry_Pilot,2022.1.3,Win32,60.28817749,62bbe60bf3d75ef465d3e404,,,,,,,,,,,,,,,,,,,"[-0.2942,-0.24719999999999998,-0.357]",fourthree,"[0.3568,-0.20799999999999996,-0.9844]",-1,1.9645,-38.66662598,-66.66668701,1,0,0,response5disk_5,4.666687012,2,1,0,0,rectangle_8,4.666687012,2,1,0,0,2,4.666687012,2,1,0,0,6,0,6,0,1,,,,,,,,,,,,,,,,,,,,,,,,,,,,,,,,,,,,,,,,,,,,,,,,,,,,,,,,,,,,,,,,,,,,,,,,,,,,,,,,,,,,,,,,,,,,,,,,,,,,,,,,,,,
,,,,,,5db9fbd20fbd8b05db2aa3ed,62bbfb5342025b59ea7012ab,2022-06-29_08h12.40.086,Colour_Asymmetry_Pilot,2022.1.3,Win32,60.28817749,62bbe60bf3d75ef465d3e404,,,,,,,,,,,,,,,,,,,,threeone,,-3,1.116,,,,,,,,,,,,,,,,,,,,,,,,,,,,,,,,space,5.4601,"[1,0.12939999999999996,-1]","[0.5449999999999999,-0.31000000000000005,-0.0354000000000001]",-66.66662598,30.66665649,1,0,0,response7disk,-11.33331299,-4.666687012,1,0,0,rectangle,-11.33331299,-4.666687012,1,0,0,,2,0.001,0,-11.33331299,-4.666687012,1,0,0,0,0,0,77,1,77,first,,,,,,,,,,,,,,,,,,,,,,,,,,,,,,,,,,,,,,,,,,,,,,,,,,,,,,,,,,,,,,,,,,,
,,,,,,5db9fbd20fbd8b05db2aa3ed,62bbfb5342025b59ea7012ab,2022-06-29_08h12.40.086,Colour_Asymmetry_Pilot,2022.1.3,Win32,60.28817749,62bbe60bf3d75ef465d3e404,,,,,,,,,,,,,,,,,,,,onethree,,2,0.8491,,,,,,,,,,,,,,,,,,,,,,,,,,,,,,,,,,"[-0.6235999999999999,-0.6786,-0.08239999999999992]","[-0.30200000000000005,0.14500000000000002,0.2784]",63.33337402,-34.66668701,1,0,0,response3disk,3.333374023,-2,1,0,0,rectangle,3.333374023,-2,1,0,0,,1,0.0005,0,3.333374023,-2,1,0,0,0,1,1,157,1,76,second,,,,,,,,,,,,,,,,,,,,,,,,,,,,,,,,,,,,,,,,,,,,,,,,,,,,,,,,,,,,,,,,,,,
,,,,,,5db9fbd20fbd8b05db2aa3ed,62bbfb5342025b59ea7012ab,2022-06-29_08h12.40.086,Colour_Asymmetry_Pilot,2022.1.3,Win32,60.28817749,62bbe60bf3d75ef465d3e404,,,,,,,,,,,,,,,,,,,,fourthree,,-2,4.28,,,,,,,,,,,,,,,,,,,,,,,,,,,,,,,,,,"[-0.30200000000000005,0.14500000000000002,0.2784]","[-0.6235999999999999,-0.6786,-0.08239999999999992]",-56,-36.66668701,1,0,0,response5disk,-7.333312988,0,1,0,0,rectangle,65.33337402,49.33331299,1,0,0,3,3,2.768,1,-14.66662598,-4.666687012,1,0,0,0,2,2,76,1,76,first,response1disk_3,rectangle,,,,,,,,,,,,,,,,,,,,,,,,,,,,,,,,,,,,,,,,,,,,,,,,,,,,,,,,,,,,,,,,,
,,,,,,5db9fbd20fbd8b05db2aa3ed,62bbfb5342025b59ea7012ab,2022-06-29_08h12.40.086,Colour_Asymmetry_Pilot,2022.1.3,Win32,60.28817749,62bbe60bf3d75ef465d3e404,,,,,,,,,,,,,,,,,,,,twoone,,-3,2.2704,,,,,,,,,,,,,,,,,,,,,,,,,,,,,,,,,,"[-0.9844,-0.9688,-0.9922]","[0.9763999999999999,0.30979999999999985,-0.6786]",-70,31.33331299,1,0,0,response7disk,-6.666625977,2.666656494,1,0,0,rectangle,-6.666625977,2.666656494,1,0,0,3,1,0.0006,0,-6.666625977,2.666656494,1,0,0,0,3,3,20,1,20,first,,,,,,,,,,,,,,,,,,,,,,,,,,,,,,,,,,,,,,,,,,,,,,,,,,,,,,,,,,,,,,,,,,,
,,,,,,5db9fbd20fbd8b05db2aa3ed,62bbfb5342025b59ea7012ab,2022-06-29_08h12.40.086,Colour_Asymmetry_Pilot,2022.1.3,Win32,60.28817749,62bbe60bf3d75ef465d3e404,,,,,,,,,,,,,,,,,,,,fourthree,,-2,1.9866,,,,,,,,,,,,,,,,,,,,,,,,,,,,,,,,,,"[-0.45899999999999996,-0.3256,-0.9374]","[-0.050999999999999934,-0.6706000000000001,-0.804]",-58.66662598,-23.33334351,1,0,0,response5disk,-20,0,1,0,0,rectangle,-20,0,1,0,0,3,3,0.0005,0,-20,0,1,0,0,0,4,4,127,1,46,second,,,,,,,,,,,,,,,,,,,,,,,,,,,,,,,,,,,,,,,,,,,,,,,,,,,,,,,,,,,,,,,,,,,
,,,,,,5db9fbd20fbd8b05db2aa3ed,62bbfb5342025b59ea7012ab,2022-06-29_08h12.40.086,Colour_Asymmetry_Pilot,2022.1.3,Win32,60.28817749,62bbe60bf3d75ef465d3e404,,,,,,,,,,,,,,,,,,,,fourthree,,3,1.8156,,,,,,,,,,,,,,,,,,,,,,,,,,,,,,,,,,"[0.4196,0.4665999999999999,0.3568]","[-0.2942,-0.24719999999999998,-0.357]",78,25.33331299,1,0,0,response1disk,2,0.666656494,1,0,0,rectangle,84.66668701,-45.33334351,1,0,0,2,2,2.5294,1,15.33337402,0.666656494,1,0,0,0,5,5,159,1,78,second,response3disk_3,rectangle,,,,,,,,,,,,,,,,,,,,,,,,,,,,,,,,,,,,,,,,,,,,,,,,,,,,,,,,,,,,,,,,,
,,,,,,5db9fbd20fbd8b05db2aa3ed,62bbfb5342025b59ea7012ab,2022-06-29_08h12.40.086,Colour_Asymmetry_Pilot,2022.1.3,Win32,60.28817749,62bbe60bf3d75ef465d3e404,,,,,,,,,,,,,,,,,,,,fourtwo,,-3,1.279,,,,,,,,,,,,,,,,,,,,,,,,,,,,,,,,,,"[-0.09019999999999995,0.44300000000000006,0.5371999999999999]","[-0.26280000000000003,-0.2158,-0.3256]",-54.66662598,30,1,0,0,response7disk,-13.33331299,8.666656494,1,0,0,rectangle,-13.33331299,8.666656494,1,0,0,2,3,0.0006,0,-13.33331299,8.666656494,1,0,0,0,6,6,13,1,13,first,,,,,,,,,,,,,,,,,,,,,,,,,,,,,,,,,,,,,,,,,,,,,,,,,,,,,,,,,,,,,,,,,,,
,,,,,,5db9fbd20fbd8b05db2aa3ed,62bbfb5342025b59ea7012ab,2022-06-29_08h12.40.086,Colour_Asymmetry_Pilot,2022.1.3,Win32,60.28817749,62bbe60bf3d75ef465d3e404,,,,,,,,,,,,,,,,,,,,twofour,,-2,1.3154,,,,,,,,,,,,,,,,,,,,,,,,,,,,,,,,,,"[0.6625999999999999,0.4980000000000002,-0.357]","[-0.5452,-0.608,0.2470000000000001]",-54,-39.33334351,1,0,0,response5disk,12,0,1,0,0,rectangle,12,0,1,0,0,2,2,0.0005,0,12,0,1,0,0,0,7,7,21,1,21,first,,,,,,,,,,,,,,,,,,,,,,,,,,,,,,,,,,,,,,,,,,,,,,,,,,,,,,,,,,,,,,,,,,,
,,,,,,5db9fbd20fbd8b05db2aa3ed,62bbfb5342025b59ea7012ab,2022-06-29_08h12.40.086,Colour_Asymmetry_Pilot,2022.1.3,Win32,60.28817749,62bbe60bf3d75ef465d3e404,,,,,,,,,,,,,,,,,,,,fourthree,,1,1.2321,,,,,,,,,,,,,,,,,,,,,,,,,,,,,,,,,,"[0.19199999999999995,0.18419999999999992,0.5136000000000001]","[-0.17659999999999998,0.3253999999999999,0.19999999999999996]",36,-73.33334351,1,0,0,response3disk,12.66668701,-4,1,0,0,rectangle,12.66668701,-4,1,0,0,2,2,0.0003,0,12.66668701,-4,1,0,0,0,8,8,154,1,73,second,,,,,,,,,,,,,,,,,,,,,,,,,,,,,,,,,,,,,,,,,,,,,,,,,,,,,,,,,,,,,,,,,,,
,,,,,,5db9fbd20fbd8b05db2aa3ed,62bbfb5342025b59ea7012ab,2022-06-29_08h12.40.086,Colour_Asymmetry_Pilot,2022.1.3,Win32,60.28817749,62bbe60bf3d75ef465d3e404,,,,,,,,,,,,,,,,,,,,threefour,,-2,1.0989,,,,,,,,,,,,,,,,,,,,,,,,,,,,,,,,,,"[-0.9296,-0.12959999999999994,-0.043199999999999905]","[0.7018,0.7802,-0.16079999999999994]",-65.33331299,-42,1,0,0,response5disk,-12,-2.666687012,1,0,0,rectangle,-12,-2.666687012,1,0,0,2,2,0.0003,0,-12,-2.666687012,1,0,0,0,9,9,15,1,15,first,,,,,,,,,,,,,,,,,,,,,,,,,,,,,,,,,,,,,,,,,,,,,,,,,,,,,,,,,,,,,,,,,,,
,,,,,,5db9fbd20fbd8b05db2aa3ed,62bbfb5342025b59ea7012ab,2022-06-29_08h12.40.086,Colour_Asymmetry_Pilot,2022.1.3,Win32,60.28817749,62bbe60bf3d75ef465d3e404,,,,,,,,,,,,,,,,,,,,fourthree,,2,0.9826,,,,,,,,,,,,,,,,,,,,,,,,,,,,,,,,,,"[0.9686000000000001,0.3802000000000001,0.19999999999999996]","[0.7176,-0.906,-0.6864]",52.66668701,-24,1,0,0,response3disk,7.333374023,2.666656494,1,0,0,rectangle,7.333374023,2.666656494,1,0,0,2,3,0.0005,0,7.333374023,2.666656494,1,0,0,0,10,10,107,1,26,second,,,,,,,,,,,,,,,,,,,,,,,,,,,,,,,,,,,,,,,,,,,,,,,,,,,,,,,,,,,,,,,,,,,
,,,,,,5db9fbd20fbd8b05db2aa3ed,62bbfb5342025b59ea7012ab,2022-06-29_08h12.40.086,Colour_Asymmetry_Pilot,2022.1.3,Win32,60.28817749,62bbe60bf3d75ef465d3e404,,,,,,,,,,,,,,,,,,,,threeone,,1,1.1999,,,,,,,,,,,,,,,,,,,,,,,,,,,,,,,,,,"[-0.5452,-0.608,0.2470000000000001]","[-0.26280000000000003,-0.4746,-0.2158]",59.33337402,-92,1,0,0,response3disk,19.33337402,0,1,0,0,rectangle,19.33337402,0,1,0,0,2,1,0.0005,0,19.33337402,0,1,0,0,0,11,11,19,1,19,first,,,,,,,,,,,,,,,,,,,,,,,,,,,,,,,,,,,,,,,,,,,,,,,,,,,,,,,,,,,,,,,,,,,
,,,,,,5db9fbd20fbd8b05db2aa3ed,62bbfb5342025b59ea7012ab,2022-06-29_08h12.40.086,Colour_Asymmetry_Pilot,2022.1.3,Win32,60.28817749,62bbe60bf3d75ef465d3e404,,,,,,,,,,,,,,,,,,,,onetwo,,3,0.8159,,,,,,,,,,,,,,,,,,,,,,,,,,,,,,,,,,"[-0.9766,-0.34920000000000007,0.2156]","[-0.9296,-0.12959999999999994,-0.043199999999999905]",64.66668701,41.33331299,1,0,0,response1disk,12.66668701,0.666656494,1,0,0,rectangle,12.66668701,0.666656494,1,0,0,2,2,0.0009,0,12.66668701,0.666656494,1,0,0,0,12,12,67,1,67,first,,,,,,,,,,,,,,,,,,,,,,,,,,,,,,,,,,,,,,,,,,,,,,,,,,,,,,,,,,,,,,,,,,,
,,,,,,5db9fbd20fbd8b05db2aa3ed,62bbfb5342025b59ea7012ab,2022-06-29_08h12.40.086,Colour_Asymmetry_Pilot,2022.1.3,Win32,60.28817749,62bbe60bf3d75ef465d3e404,,,,,,,,,,,,,,,,,,,,twofour,,2,0.8994,,,,,,,,,,,,,,,,,,,,,,,,,,,,,,,,,,"[0.3568,-0.20799999999999996,-0.9844]","[-0.050999999999999934,-0.6706000000000001,-0.804]",64,-31.33334351,1,0,0,response3disk,0,3.333312988,1,0,0,rectangle,0,3.333312988,1,0,0,2,3,0.0005,0,0,3.333312988,1,0,0,0,13,13,128,1,47,second,,,,,,,,,,,,,,,,,,,,,,,,,,,,,,,,,,,,,,,,,,,,,,,,,,,,,,,,,,,,,,,,,,,
,,,,,,5db9fbd20fbd8b05db2aa3ed,62bbfb5342025b59ea7012ab,2022-06-29_08h12.40.086,Colour_Asymmetry_Pilot,2022.1.3,Win32,60.28817749,62bbe60bf3d75ef465d3e404,,,,,,,,,,,,,,,,,,,,threeone,,3,0.9335,,,,,,,,,,,,,,,,,,,,,,,,,,,,,,,,,,"[0.40379999999999994,0.09000000000000008,0.44300000000000006]","[0.5449999999999999,-0.31000000000000005,-0.0354000000000001]",62.66668701,39.33331299,1,0,0,response1disk,9.333374023,-4.666687012,1,0,0,rectangle,9.333374023,-4.666687012,1,0,0,2,3,0.0003,0,9.333374023,-4.666687012,1,0,0,0,14,14,116,1,35,second,,,,,,,,,,,,,,,,,,,,,,,,,,,,,,,,,,,,,,,,,,,,,,,,,,,,,,,,,,,,,,,,,,,
,,,,,,5db9fbd20fbd8b05db2aa3ed,62bbfb5342025b59ea7012ab,2022-06-29_08h12.40.086,Colour_Asymmetry_Pilot,2022.1.3,Win32,60.28817749,62bbe60bf3d75ef465d3e404,,,,,,,,,,,,,,,,,,,,threeone,,-3,0.9654,,,,,,,,,,,,,,,,,,,,,,,,,,,,,,,,,,"[0.19199999999999995,0.18419999999999992,0.5136000000000001]","[-0.45899999999999996,-0.3256,-0.9374]",-46.66662598,20.66665649,1,0,0,response7disk,11.33337402,-10,1,0,0,rectangle,11.33337402,-10,1,0,0,2,1,0.0004,0,11.33337402,-10,1,0,0,0,15,15,64,1,64,first,,,,,,,,,,,,,,,,,,,,,,,,,,,,,,,,,,,,,,,,,,,,,,,,,,,,,,,,,,,,,,,,,,,
,,,,,,5db9fbd20fbd8b05db2aa3ed,62bbfb5342025b59ea7012ab,2022-06-29_08h12.40.086,Colour_Asymmetry_Pilot,2022.1.3,Win32,60.28817749,62bbe60bf3d75ef465d3e404,,,,,,,,,,,,,,,,,,,,threeone,,-4,1.032,,,,,,,,,,,,,,,,,,,,,,,,,,,,,,,,,,"[0.7646000000000002,0.07440000000000002,0.2704]","[-0.4746,-0.0354000000000001,0.5449999999999999]",-28,92.66665649,1,0,0,response7disk,-6,5.333312988,1,0,0,rectangle,-6,5.333312988,1,0,0,2,1,0,0,-6,5.333312988,1,0,0,0,16,16,114,1,33,second,,,,,,,,,,,,,,,,,,,,,,,,,,,,,,,,,,,,,,,,,,,,,,,,,,,,,,,,,,,,,,,,,,,
,,,,,,5db9fbd20fbd8b05db2aa3ed,62bbfb5342025b59ea7012ab,2022-06-29_08h12.40.086,Colour_Asymmetry_Pilot,2022.1.3,Win32,60.28817749,62bbe60bf3d75ef465d3e404,,,,,,,,,,,,,,,,,,,,threeone,,-4,0.8994,,,,,,,,,,,,,,,,,,,,,,,,,,,,,,,,,,"[0.9686000000000001,0.5763999999999998,0.11359999999999992]","[-0.9688,-0.4902000000000001,-0.12159999999999993]",-48,76.66665649,1,0,0,response7disk,-6,7.333312988,1,0,0,rectangle,-6,7.333312988,1,0,0,2,3,0.0005,0,-6,7.333312988,1,0,0,0,17,17,106,1,25,second,,,,,,,,,,,,,,,,,,,,,,,,,,,,,,,,,,,,,,,,,,,,,,,,,,,,,,,,,,,,,,,,,,,
