trials.thisRepN,trials.thisTrialN,trials.thisN,trials.thisIndex,trials.ran,Colourcodes,participant,session,date,expName,psychopyVersion,OS,frameRate,study_id,trials_4.thisRepN,trials_4.thisTrialN,trials_4.thisN,trials_4.thisIndex,trials_4.ran,StimulusPos,key_resp.keys,key_resp.rt,key_resp_2.keys,key_resp_2.rt,key_resp_15.keys,key_resp_15.rt,key_resp_17.keys,key_resp_17.rt,key_resp_9.keys,key_resp_9.rt,key_resp_10.keys,key_resp_10.rt,Circle1_col,Ecc,Circle2_col,similarity,response_time,mouse_5.x,mouse_5.y,mouse_5.leftButton,mouse_5.midButton,mouse_5.rightButton,mouse_5.clicked_name,mouse_10.x,mouse_10.y,mouse_10.leftButton,mouse_10.midButton,mouse_10.rightButton,mouse_10.clicked_name,mouse_7.x,mouse_7.y,mouse_7.leftButton,mouse_7.midButton,mouse_7.rightButton,catchnumberprac,mouse_6.x,mouse_6.y,mouse_6.leftButton,mouse_6.midButton,mouse_6.rightButton,duringprac.thisRepN,duringprac.thisTrialN,duringprac.thisN,duringprac.thisIndex,duringprac.ran,mouse_7.clicked_name,catchprac,mouse_6.clicked_name,key_resp_22.keys,key_resp_22.rt,Circle1_colour,Circle2_colour,mouse.x,mouse.y,mouse.leftButton,mouse.midButton,mouse.rightButton,mouse.clicked_name,mouse_2.x,mouse_2.y,mouse_2.leftButton,mouse_2.midButton,mouse_2.rightButton,mouse_2.clicked_name,mouse_3.x,mouse_3.y,mouse_3.leftButton,mouse_3.midButton,mouse_3.rightButton,catchresponse,catchnumber,response_time_catch,Catch,mouse_11.x,mouse_11.y,mouse_11.leftButton,mouse_11.midButton,mouse_11.rightButton,trials_2.thisRepN,trials_2.thisTrialN,trials_2.thisN,trials_2.thisIndex,trials_2.ran,Colourpair,Temporder,mouse_3.clicked_name,mouse_11.clicked_name,trials_3.thisRepN,trials_3.thisTrialN,trials_3.thisN,trials_3.thisIndex,trials_3.ran,key_resp_instr_Ishi.keys,key_resp_instr_Ishi.rt,Ishi_trial_keyresp.keys,Ishi_trial_keyresp.rt,Ishi_textbox.text,Ishi_loop.thisRepN,Ishi_loop.thisTrialN,Ishi_loop.thisN,Ishi_loop.thisIndex,Ishi_loop.ran,imageaddress,textbox.text,mouse_4.x,mouse_4.y,mouse_4.leftButton,mouse_4.midButton,mouse_4.rightButton,mouse_4.clicked_name,textbox_2.text,mouse_8.x,mouse_8.y,mouse_8.leftButton,mouse_8.midButton,mouse_8.rightButton,mouse_8.clicked_name,textbox_3.text,mouse_9.x,mouse_9.y,mouse_9.leftButton,mouse_9.midButton,mouse_9.rightButton,mouse_9.clicked_name,textbox_4.text,mouse_12.x,mouse_12.y,mouse_12.leftButton,mouse_12.midButton,mouse_12.rightButton,mouse_12.clicked_name,textbox_5.text,mouse_13.x,mouse_13.y,mouse_13.leftButton,mouse_13.midButton,mouse_13.rightButton,mouse_13.clicked_name,textbox_6.text,mouse_14.x,mouse_14.y,mouse_14.leftButton,mouse_14.midButton,mouse_14.rightButton,mouse_14.clicked_name,textbox_7.text,mouse_15.x,mouse_15.y,mouse_15.leftButton,mouse_15.midButton,mouse_15.rightButton,mouse_15.clicked_name
0,0,0,20,1,,6131e772aebd3c8fff4f0c7f,62bbf9c8c5f6bda3b95cb4a5,2022-06-29_09h06.40.988,Colour_Asymmetry_Pilot,2022.1.3,Win32,60.05645307,62bbe60bf3d75ef465d3e404,,,,,,,,,,,,,,,,,,,,,,,,,,,,,,,,,,,,,,,,,,,,,,,,,,,,,,,,,,,,,,,,,,,,,,,,,,,,,,,,,,,,,,,,,,,,,,,,,,,,,,,,,,,,,,,,,,,,,,,,,,,,,,,,,,,,,,,,,,,,,,,,,,,,,,,,,,,,,,
0,1,1,14,1,,6131e772aebd3c8fff4f0c7f,62bbf9c8c5f6bda3b95cb4a5,2022-06-29_09h06.40.988,Colour_Asymmetry_Pilot,2022.1.3,Win32,60.05645307,62bbe60bf3d75ef465d3e404,,,,,,,,,,,,,,,,,,,,,,,,,,,,,,,,,,,,,,,,,,,,,,,,,,,,,,,,,,,,,,,,,,,,,,,,,,,,,,,,,,,,,,,,,,,,,,,,,,,,,,,,,,,,,,,,,,,,,,,,,,,,,,,,,,,,,,,,,,,,,,,,,,,,,,,,,,,,,,
0,2,2,87,1,,6131e772aebd3c8fff4f0c7f,62bbf9c8c5f6bda3b95cb4a5,2022-06-29_09h06.40.988,Colour_Asymmetry_Pilot,2022.1.3,Win32,60.05645307,62bbe60bf3d75ef465d3e404,,,,,,,,,,,,,,,,,,,,,,,,,,,,,,,,,,,,,,,,,,,,,,,,,,,,,,,,,,,,,,,,,,,,,,,,,,,,,,,,,,,,,,,,,,,,,,,,,,,,,,,,,,,,,,,,,,,,,,,,,,,,,,,,,,,,,,,,,,,,,,,,,,,,,,,,,,,,,,
0,3,3,29,1,,6131e772aebd3c8fff4f0c7f,62bbf9c8c5f6bda3b95cb4a5,2022-06-29_09h06.40.988,Colour_Asymmetry_Pilot,2022.1.3,Win32,60.05645307,62bbe60bf3d75ef465d3e404,,,,,,,,,,,,,,,,,,,,,,,,,,,,,,,,,,,,,,,,,,,,,,,,,,,,,,,,,,,,,,,,,,,,,,,,,,,,,,,,,,,,,,,,,,,,,,,,,,,,,,,,,,,,,,,,,,,,,,,,,,,,,,,,,,,,,,,,,,,,,,,,,,,,,,,,,,,,,,
0,4,4,11,1,,6131e772aebd3c8fff4f0c7f,62bbf9c8c5f6bda3b95cb4a5,2022-06-29_09h06.40.988,Colour_Asymmetry_Pilot,2022.1.3,Win32,60.05645307,62bbe60bf3d75ef465d3e404,,,,,,,,,,,,,,,,,,,,,,,,,,,,,,,,,,,,,,,,,,,,,,,,,,,,,,,,,,,,,,,,,,,,,,,,,,,,,,,,,,,,,,,,,,,,,,,,,,,,,,,,,,,,,,,,,,,,,,,,,,,,,,,,,,,,,,,,,,,,,,,,,,,,,,,,,,,,,,
0,5,5,91,1,,6131e772aebd3c8fff4f0c7f,62bbf9c8c5f6bda3b95cb4a5,2022-06-29_09h06.40.988,Colour_Asymmetry_Pilot,2022.1.3,Win32,60.05645307,62bbe60bf3d75ef465d3e404,,,,,,,,,,,,,,,,,,,,,,,,,,,,,,,,,,,,,,,,,,,,,,,,,,,,,,,,,,,,,,,,,,,,,,,,,,,,,,,,,,,,,,,,,,,,,,,,,,,,,,,,,,,,,,,,,,,,,,,,,,,,,,,,,,,,,,,,,,,,,,,,,,,,,,,,,,,,,,
0,6,6,15,1,,6131e772aebd3c8fff4f0c7f,62bbf9c8c5f6bda3b95cb4a5,2022-06-29_09h06.40.988,Colour_Asymmetry_Pilot,2022.1.3,Win32,60.05645307,62bbe60bf3d75ef465d3e404,,,,,,,,,,,,,,,,,,,,,,,,,,,,,,,,,,,,,,,,,,,,,,,,,,,,,,,,,,,,,,,,,,,,,,,,,,,,,,,,,,,,,,,,,,,,,,,,,,,,,,,,,,,,,,,,,,,,,,,,,,,,,,,,,,,,,,,,,,,,,,,,,,,,,,,,,,,,,,
0,7,7,92,1,,6131e772aebd3c8fff4f0c7f,62bbf9c8c5f6bda3b95cb4a5,2022-06-29_09h06.40.988,Colour_Asymmetry_Pilot,2022.1.3,Win32,60.05645307,62bbe60bf3d75ef465d3e404,,,,,,,,,,,,,,,,,,,,,,,,,,,,,,,,,,,,,,,,,,,,,,,,,,,,,,,,,,,,,,,,,,,,,,,,,,,,,,,,,,,,,,,,,,,,,,,,,,,,,,,,,,,,,,,,,,,,,,,,,,,,,,,,,,,,,,,,,,,,,,,,,,,,,,,,,,,,,,
0,8,8,71,1,,6131e772aebd3c8fff4f0c7f,62bbf9c8c5f6bda3b95cb4a5,2022-06-29_09h06.40.988,Colour_Asymmetry_Pilot,2022.1.3,Win32,60.05645307,62bbe60bf3d75ef465d3e404,,,,,,,,,,,,,,,,,,,,,,,,,,,,,,,,,,,,,,,,,,,,,,,,,,,,,,,,,,,,,,,,,,,,,,,,,,,,,,,,,,,,,,,,,,,,,,,,,,,,,,,,,,,,,,,,,,,,,,,,,,,,,,,,,,,,,,,,,,,,,,,,,,,,,,,,,,,,,,
0,9,9,55,1,,6131e772aebd3c8fff4f0c7f,62bbf9c8c5f6bda3b95cb4a5,2022-06-29_09h06.40.988,Colour_Asymmetry_Pilot,2022.1.3,Win32,60.05645307,62bbe60bf3d75ef465d3e404,,,,,,,,,,,,,,,,,,,,,,,,,,,,,,,,,,,,,,,,,,,,,,,,,,,,,,,,,,,,,,,,,,,,,,,,,,,,,,,,,,,,,,,,,,,,,,,,,,,,,,,,,,,,,,,,,,,,,,,,,,,,,,,,,,,,,,,,,,,,,,,,,,,,,,,,,,,,,,
0,10,10,80,1,,6131e772aebd3c8fff4f0c7f,62bbf9c8c5f6bda3b95cb4a5,2022-06-29_09h06.40.988,Colour_Asymmetry_Pilot,2022.1.3,Win32,60.05645307,62bbe60bf3d75ef465d3e404,,,,,,,,,,,,,,,,,,,,,,,,,,,,,,,,,,,,,,,,,,,,,,,,,,,,,,,,,,,,,,,,,,,,,,,,,,,,,,,,,,,,,,,,,,,,,,,,,,,,,,,,,,,,,,,,,,,,,,,,,,,,,,,,,,,,,,,,,,,,,,,,,,,,,,,,,,,,,,
0,11,11,51,1,,6131e772aebd3c8fff4f0c7f,62bbf9c8c5f6bda3b95cb4a5,2022-06-29_09h06.40.988,Colour_Asymmetry_Pilot,2022.1.3,Win32,60.05645307,62bbe60bf3d75ef465d3e404,,,,,,,,,,,,,,,,,,,,,,,,,,,,,,,,,,,,,,,,,,,,,,,,,,,,,,,,,,,,,,,,,,,,,,,,,,,,,,,,,,,,,,,,,,,,,,,,,,,,,,,,,,,,,,,,,,,,,,,,,,,,,,,,,,,,,,,,,,,,,,,,,,,,,,,,,,,,,,
0,12,12,63,1,,6131e772aebd3c8fff4f0c7f,62bbf9c8c5f6bda3b95cb4a5,2022-06-29_09h06.40.988,Colour_Asymmetry_Pilot,2022.1.3,Win32,60.05645307,62bbe60bf3d75ef465d3e404,,,,,,,,,,,,,,,,,,,,,,,,,,,,,,,,,,,,,,,,,,,,,,,,,,,,,,,,,,,,,,,,,,,,,,,,,,,,,,,,,,,,,,,,,,,,,,,,,,,,,,,,,,,,,,,,,,,,,,,,,,,,,,,,,,,,,,,,,,,,,,,,,,,,,,,,,,,,,,
0,13,13,38,1,,6131e772aebd3c8fff4f0c7f,62bbf9c8c5f6bda3b95cb4a5,2022-06-29_09h06.40.988,Colour_Asymmetry_Pilot,2022.1.3,Win32,60.05645307,62bbe60bf3d75ef465d3e404,,,,,,,,,,,,,,,,,,,,,,,,,,,,,,,,,,,,,,,,,,,,,,,,,,,,,,,,,,,,,,,,,,,,,,,,,,,,,,,,,,,,,,,,,,,,,,,,,,,,,,,,,,,,,,,,,,,,,,,,,,,,,,,,,,,,,,,,,,,,,,,,,,,,,,,,,,,,,,
0,14,14,42,1,,6131e772aebd3c8fff4f0c7f,62bbf9c8c5f6bda3b95cb4a5,2022-06-29_09h06.40.988,Colour_Asymmetry_Pilot,2022.1.3,Win32,60.05645307,62bbe60bf3d75ef465d3e404,,,,,,,,,,,,,,,,,,,,,,,,,,,,,,,,,,,,,,,,,,,,,,,,,,,,,,,,,,,,,,,,,,,,,,,,,,,,,,,,,,,,,,,,,,,,,,,,,,,,,,,,,,,,,,,,,,,,,,,,,,,,,,,,,,,,,,,,,,,,,,,,,,,,,,,,,,,,,,
0,15,15,73,1,,6131e772aebd3c8fff4f0c7f,62bbf9c8c5f6bda3b95cb4a5,2022-06-29_09h06.40.988,Colour_Asymmetry_Pilot,2022.1.3,Win32,60.05645307,62bbe60bf3d75ef465d3e404,,,,,,,,,,,,,,,,,,,,,,,,,,,,,,,,,,,,,,,,,,,,,,,,,,,,,,,,,,,,,,,,,,,,,,,,,,,,,,,,,,,,,,,,,,,,,,,,,,,,,,,,,,,,,,,,,,,,,,,,,,,,,,,,,,,,,,,,,,,,,,,,,,,,,,,,,,,,,,
0,16,16,24,1,,6131e772aebd3c8fff4f0c7f,62bbf9c8c5f6bda3b95cb4a5,2022-06-29_09h06.40.988,Colour_Asymmetry_Pilot,2022.1.3,Win32,60.05645307,62bbe60bf3d75ef465d3e404,,,,,,,,,,,,,,,,,,,,,,,,,,,,,,,,,,,,,,,,,,,,,,,,,,,,,,,,,,,,,,,,,,,,,,,,,,,,,,,,,,,,,,,,,,,,,,,,,,,,,,,,,,,,,,,,,,,,,,,,,,,,,,,,,,,,,,,,,,,,,,,,,,,,,,,,,,,,,,
0,17,17,40,1,,6131e772aebd3c8fff4f0c7f,62bbf9c8c5f6bda3b95cb4a5,2022-06-29_09h06.40.988,Colour_Asymmetry_Pilot,2022.1.3,Win32,60.05645307,62bbe60bf3d75ef465d3e404,,,,,,,,,,,,,,,,,,,,,,,,,,,,,,,,,,,,,,,,,,,,,,,,,,,,,,,,,,,,,,,,,,,,,,,,,,,,,,,,,,,,,,,,,,,,,,,,,,,,,,,,,,,,,,,,,,,,,,,,,,,,,,,,,,,,,,,,,,,,,,,,,,,,,,,,,,,,,,
0,18,18,54,1,,6131e772aebd3c8fff4f0c7f,62bbf9c8c5f6bda3b95cb4a5,2022-06-29_09h06.40.988,Colour_Asymmetry_Pilot,2022.1.3,Win32,60.05645307,62bbe60bf3d75ef465d3e404,,,,,,,,,,,,,,,,,,,,,,,,,,,,,,,,,,,,,,,,,,,,,,,,,,,,,,,,,,,,,,,,,,,,,,,,,,,,,,,,,,,,,,,,,,,,,,,,,,,,,,,,,,,,,,,,,,,,,,,,,,,,,,,,,,,,,,,,,,,,,,,,,,,,,,,,,,,,,,
0,19,19,86,1,,6131e772aebd3c8fff4f0c7f,62bbf9c8c5f6bda3b95cb4a5,2022-06-29_09h06.40.988,Colour_Asymmetry_Pilot,2022.1.3,Win32,60.05645307,62bbe60bf3d75ef465d3e404,,,,,,,,,,,,,,,,,,,,,,,,,,,,,,,,,,,,,,,,,,,,,,,,,,,,,,,,,,,,,,,,,,,,,,,,,,,,,,,,,,,,,,,,,,,,,,,,,,,,,,,,,,,,,,,,,,,,,,,,,,,,,,,,,,,,,,,,,,,,,,,,,,,,,,,,,,,,,,
0,20,20,83,1,,6131e772aebd3c8fff4f0c7f,62bbf9c8c5f6bda3b95cb4a5,2022-06-29_09h06.40.988,Colour_Asymmetry_Pilot,2022.1.3,Win32,60.05645307,62bbe60bf3d75ef465d3e404,,,,,,,,,,,,,,,,,,,,,,,,,,,,,,,,,,,,,,,,,,,,,,,,,,,,,,,,,,,,,,,,,,,,,,,,,,,,,,,,,,,,,,,,,,,,,,,,,,,,,,,,,,,,,,,,,,,,,,,,,,,,,,,,,,,,,,,,,,,,,,,,,,,,,,,,,,,,,,
0,21,21,75,1,,6131e772aebd3c8fff4f0c7f,62bbf9c8c5f6bda3b95cb4a5,2022-06-29_09h06.40.988,Colour_Asymmetry_Pilot,2022.1.3,Win32,60.05645307,62bbe60bf3d75ef465d3e404,,,,,,,,,,,,,,,,,,,,,,,,,,,,,,,,,,,,,,,,,,,,,,,,,,,,,,,,,,,,,,,,,,,,,,,,,,,,,,,,,,,,,,,,,,,,,,,,,,,,,,,,,,,,,,,,,,,,,,,,,,,,,,,,,,,,,,,,,,,,,,,,,,,,,,,,,,,,,,
0,22,22,16,1,,6131e772aebd3c8fff4f0c7f,62bbf9c8c5f6bda3b95cb4a5,2022-06-29_09h06.40.988,Colour_Asymmetry_Pilot,2022.1.3,Win32,60.05645307,62bbe60bf3d75ef465d3e404,,,,,,,,,,,,,,,,,,,,,,,,,,,,,,,,,,,,,,,,,,,,,,,,,,,,,,,,,,,,,,,,,,,,,,,,,,,,,,,,,,,,,,,,,,,,,,,,,,,,,,,,,,,,,,,,,,,,,,,,,,,,,,,,,,,,,,,,,,,,,,,,,,,,,,,,,,,,,,
0,23,23,69,1,,6131e772aebd3c8fff4f0c7f,62bbf9c8c5f6bda3b95cb4a5,2022-06-29_09h06.40.988,Colour_Asymmetry_Pilot,2022.1.3,Win32,60.05645307,62bbe60bf3d75ef465d3e404,,,,,,,,,,,,,,,,,,,,,,,,,,,,,,,,,,,,,,,,,,,,,,,,,,,,,,,,,,,,,,,,,,,,,,,,,,,,,,,,,,,,,,,,,,,,,,,,,,,,,,,,,,,,,,,,,,,,,,,,,,,,,,,,,,,,,,,,,,,,,,,,,,,,,,,,,,,,,,
0,24,24,25,1,,6131e772aebd3c8fff4f0c7f,62bbf9c8c5f6bda3b95cb4a5,2022-06-29_09h06.40.988,Colour_Asymmetry_Pilot,2022.1.3,Win32,60.05645307,62bbe60bf3d75ef465d3e404,,,,,,,,,,,,,,,,,,,,,,,,,,,,,,,,,,,,,,,,,,,,,,,,,,,,,,,,,,,,,,,,,,,,,,,,,,,,,,,,,,,,,,,,,,,,,,,,,,,,,,,,,,,,,,,,,,,,,,,,,,,,,,,,,,,,,,,,,,,,,,,,,,,,,,,,,,,,,,
0,25,25,58,1,,6131e772aebd3c8fff4f0c7f,62bbf9c8c5f6bda3b95cb4a5,2022-06-29_09h06.40.988,Colour_Asymmetry_Pilot,2022.1.3,Win32,60.05645307,62bbe60bf3d75ef465d3e404,,,,,,,,,,,,,,,,,,,,,,,,,,,,,,,,,,,,,,,,,,,,,,,,,,,,,,,,,,,,,,,,,,,,,,,,,,,,,,,,,,,,,,,,,,,,,,,,,,,,,,,,,,,,,,,,,,,,,,,,,,,,,,,,,,,,,,,,,,,,,,,,,,,,,,,,,,,,,,
0,26,26,60,1,,6131e772aebd3c8fff4f0c7f,62bbf9c8c5f6bda3b95cb4a5,2022-06-29_09h06.40.988,Colour_Asymmetry_Pilot,2022.1.3,Win32,60.05645307,62bbe60bf3d75ef465d3e404,,,,,,,,,,,,,,,,,,,,,,,,,,,,,,,,,,,,,,,,,,,,,,,,,,,,,,,,,,,,,,,,,,,,,,,,,,,,,,,,,,,,,,,,,,,,,,,,,,,,,,,,,,,,,,,,,,,,,,,,,,,,,,,,,,,,,,,,,,,,,,,,,,,,,,,,,,,,,,
0,27,27,61,1,,6131e772aebd3c8fff4f0c7f,62bbf9c8c5f6bda3b95cb4a5,2022-06-29_09h06.40.988,Colour_Asymmetry_Pilot,2022.1.3,Win32,60.05645307,62bbe60bf3d75ef465d3e404,,,,,,,,,,,,,,,,,,,,,,,,,,,,,,,,,,,,,,,,,,,,,,,,,,,,,,,,,,,,,,,,,,,,,,,,,,,,,,,,,,,,,,,,,,,,,,,,,,,,,,,,,,,,,,,,,,,,,,,,,,,,,,,,,,,,,,,,,,,,,,,,,,,,,,,,,,,,,,
0,28,28,88,1,,6131e772aebd3c8fff4f0c7f,62bbf9c8c5f6bda3b95cb4a5,2022-06-29_09h06.40.988,Colour_Asymmetry_Pilot,2022.1.3,Win32,60.05645307,62bbe60bf3d75ef465d3e404,,,,,,,,,,,,,,,,,,,,,,,,,,,,,,,,,,,,,,,,,,,,,,,,,,,,,,,,,,,,,,,,,,,,,,,,,,,,,,,,,,,,,,,,,,,,,,,,,,,,,,,,,,,,,,,,,,,,,,,,,,,,,,,,,,,,,,,,,,,,,,,,,,,,,,,,,,,,,,
0,29,29,18,1,,6131e772aebd3c8fff4f0c7f,62bbf9c8c5f6bda3b95cb4a5,2022-06-29_09h06.40.988,Colour_Asymmetry_Pilot,2022.1.3,Win32,60.05645307,62bbe60bf3d75ef465d3e404,,,,,,,,,,,,,,,,,,,,,,,,,,,,,,,,,,,,,,,,,,,,,,,,,,,,,,,,,,,,,,,,,,,,,,,,,,,,,,,,,,,,,,,,,,,,,,,,,,,,,,,,,,,,,,,,,,,,,,,,,,,,,,,,,,,,,,,,,,,,,,,,,,,,,,,,,,,,,,
0,30,30,48,1,,6131e772aebd3c8fff4f0c7f,62bbf9c8c5f6bda3b95cb4a5,2022-06-29_09h06.40.988,Colour_Asymmetry_Pilot,2022.1.3,Win32,60.05645307,62bbe60bf3d75ef465d3e404,,,,,,,,,,,,,,,,,,,,,,,,,,,,,,,,,,,,,,,,,,,,,,,,,,,,,,,,,,,,,,,,,,,,,,,,,,,,,,,,,,,,,,,,,,,,,,,,,,,,,,,,,,,,,,,,,,,,,,,,,,,,,,,,,,,,,,,,,,,,,,,,,,,,,,,,,,,,,,
0,31,31,65,1,,6131e772aebd3c8fff4f0c7f,62bbf9c8c5f6bda3b95cb4a5,2022-06-29_09h06.40.988,Colour_Asymmetry_Pilot,2022.1.3,Win32,60.05645307,62bbe60bf3d75ef465d3e404,,,,,,,,,,,,,,,,,,,,,,,,,,,,,,,,,,,,,,,,,,,,,,,,,,,,,,,,,,,,,,,,,,,,,,,,,,,,,,,,,,,,,,,,,,,,,,,,,,,,,,,,,,,,,,,,,,,,,,,,,,,,,,,,,,,,,,,,,,,,,,,,,,,,,,,,,,,,,,
0,32,32,17,1,,6131e772aebd3c8fff4f0c7f,62bbf9c8c5f6bda3b95cb4a5,2022-06-29_09h06.40.988,Colour_Asymmetry_Pilot,2022.1.3,Win32,60.05645307,62bbe60bf3d75ef465d3e404,,,,,,,,,,,,,,,,,,,,,,,,,,,,,,,,,,,,,,,,,,,,,,,,,,,,,,,,,,,,,,,,,,,,,,,,,,,,,,,,,,,,,,,,,,,,,,,,,,,,,,,,,,,,,,,,,,,,,,,,,,,,,,,,,,,,,,,,,,,,,,,,,,,,,,,,,,,,,,
0,33,33,23,1,,6131e772aebd3c8fff4f0c7f,62bbf9c8c5f6bda3b95cb4a5,2022-06-29_09h06.40.988,Colour_Asymmetry_Pilot,2022.1.3,Win32,60.05645307,62bbe60bf3d75ef465d3e404,,,,,,,,,,,,,,,,,,,,,,,,,,,,,,,,,,,,,,,,,,,,,,,,,,,,,,,,,,,,,,,,,,,,,,,,,,,,,,,,,,,,,,,,,,,,,,,,,,,,,,,,,,,,,,,,,,,,,,,,,,,,,,,,,,,,,,,,,,,,,,,,,,,,,,,,,,,,,,
0,34,34,5,1,,6131e772aebd3c8fff4f0c7f,62bbf9c8c5f6bda3b95cb4a5,2022-06-29_09h06.40.988,Colour_Asymmetry_Pilot,2022.1.3,Win32,60.05645307,62bbe60bf3d75ef465d3e404,,,,,,,,,,,,,,,,,,,,,,,,,,,,,,,,,,,,,,,,,,,,,,,,,,,,,,,,,,,,,,,,,,,,,,,,,,,,,,,,,,,,,,,,,,,,,,,,,,,,,,,,,,,,,,,,,,,,,,,,,,,,,,,,,,,,,,,,,,,,,,,,,,,,,,,,,,,,,,
0,35,35,49,1,,6131e772aebd3c8fff4f0c7f,62bbf9c8c5f6bda3b95cb4a5,2022-06-29_09h06.40.988,Colour_Asymmetry_Pilot,2022.1.3,Win32,60.05645307,62bbe60bf3d75ef465d3e404,,,,,,,,,,,,,,,,,,,,,,,,,,,,,,,,,,,,,,,,,,,,,,,,,,,,,,,,,,,,,,,,,,,,,,,,,,,,,,,,,,,,,,,,,,,,,,,,,,,,,,,,,,,,,,,,,,,,,,,,,,,,,,,,,,,,,,,,,,,,,,,,,,,,,,,,,,,,,,
0,36,36,47,1,,6131e772aebd3c8fff4f0c7f,62bbf9c8c5f6bda3b95cb4a5,2022-06-29_09h06.40.988,Colour_Asymmetry_Pilot,2022.1.3,Win32,60.05645307,62bbe60bf3d75ef465d3e404,,,,,,,,,,,,,,,,,,,,,,,,,,,,,,,,,,,,,,,,,,,,,,,,,,,,,,,,,,,,,,,,,,,,,,,,,,,,,,,,,,,,,,,,,,,,,,,,,,,,,,,,,,,,,,,,,,,,,,,,,,,,,,,,,,,,,,,,,,,,,,,,,,,,,,,,,,,,,,
0,37,37,35,1,,6131e772aebd3c8fff4f0c7f,62bbf9c8c5f6bda3b95cb4a5,2022-06-29_09h06.40.988,Colour_Asymmetry_Pilot,2022.1.3,Win32,60.05645307,62bbe60bf3d75ef465d3e404,,,,,,,,,,,,,,,,,,,,,,,,,,,,,,,,,,,,,,,,,,,,,,,,,,,,,,,,,,,,,,,,,,,,,,,,,,,,,,,,,,,,,,,,,,,,,,,,,,,,,,,,,,,,,,,,,,,,,,,,,,,,,,,,,,,,,,,,,,,,,,,,,,,,,,,,,,,,,,
0,38,38,1,1,,6131e772aebd3c8fff4f0c7f,62bbf9c8c5f6bda3b95cb4a5,2022-06-29_09h06.40.988,Colour_Asymmetry_Pilot,2022.1.3,Win32,60.05645307,62bbe60bf3d75ef465d3e404,,,,,,,,,,,,,,,,,,,,,,,,,,,,,,,,,,,,,,,,,,,,,,,,,,,,,,,,,,,,,,,,,,,,,,,,,,,,,,,,,,,,,,,,,,,,,,,,,,,,,,,,,,,,,,,,,,,,,,,,,,,,,,,,,,,,,,,,,,,,,,,,,,,,,,,,,,,,,,
0,39,39,79,1,,6131e772aebd3c8fff4f0c7f,62bbf9c8c5f6bda3b95cb4a5,2022-06-29_09h06.40.988,Colour_Asymmetry_Pilot,2022.1.3,Win32,60.05645307,62bbe60bf3d75ef465d3e404,,,,,,,,,,,,,,,,,,,,,,,,,,,,,,,,,,,,,,,,,,,,,,,,,,,,,,,,,,,,,,,,,,,,,,,,,,,,,,,,,,,,,,,,,,,,,,,,,,,,,,,,,,,,,,,,,,,,,,,,,,,,,,,,,,,,,,,,,,,,,,,,,,,,,,,,,,,,,,
0,40,40,45,1,,6131e772aebd3c8fff4f0c7f,62bbf9c8c5f6bda3b95cb4a5,2022-06-29_09h06.40.988,Colour_Asymmetry_Pilot,2022.1.3,Win32,60.05645307,62bbe60bf3d75ef465d3e404,,,,,,,,,,,,,,,,,,,,,,,,,,,,,,,,,,,,,,,,,,,,,,,,,,,,,,,,,,,,,,,,,,,,,,,,,,,,,,,,,,,,,,,,,,,,,,,,,,,,,,,,,,,,,,,,,,,,,,,,,,,,,,,,,,,,,,,,,,,,,,,,,,,,,,,,,,,,,,
0,41,41,7,1,,6131e772aebd3c8fff4f0c7f,62bbf9c8c5f6bda3b95cb4a5,2022-06-29_09h06.40.988,Colour_Asymmetry_Pilot,2022.1.3,Win32,60.05645307,62bbe60bf3d75ef465d3e404,,,,,,,,,,,,,,,,,,,,,,,,,,,,,,,,,,,,,,,,,,,,,,,,,,,,,,,,,,,,,,,,,,,,,,,,,,,,,,,,,,,,,,,,,,,,,,,,,,,,,,,,,,,,,,,,,,,,,,,,,,,,,,,,,,,,,,,,,,,,,,,,,,,,,,,,,,,,,,
0,42,42,28,1,,6131e772aebd3c8fff4f0c7f,62bbf9c8c5f6bda3b95cb4a5,2022-06-29_09h06.40.988,Colour_Asymmetry_Pilot,2022.1.3,Win32,60.05645307,62bbe60bf3d75ef465d3e404,,,,,,,,,,,,,,,,,,,,,,,,,,,,,,,,,,,,,,,,,,,,,,,,,,,,,,,,,,,,,,,,,,,,,,,,,,,,,,,,,,,,,,,,,,,,,,,,,,,,,,,,,,,,,,,,,,,,,,,,,,,,,,,,,,,,,,,,,,,,,,,,,,,,,,,,,,,,,,
0,43,43,34,1,,6131e772aebd3c8fff4f0c7f,62bbf9c8c5f6bda3b95cb4a5,2022-06-29_09h06.40.988,Colour_Asymmetry_Pilot,2022.1.3,Win32,60.05645307,62bbe60bf3d75ef465d3e404,,,,,,,,,,,,,,,,,,,,,,,,,,,,,,,,,,,,,,,,,,,,,,,,,,,,,,,,,,,,,,,,,,,,,,,,,,,,,,,,,,,,,,,,,,,,,,,,,,,,,,,,,,,,,,,,,,,,,,,,,,,,,,,,,,,,,,,,,,,,,,,,,,,,,,,,,,,,,,
0,44,44,50,1,,6131e772aebd3c8fff4f0c7f,62bbf9c8c5f6bda3b95cb4a5,2022-06-29_09h06.40.988,Colour_Asymmetry_Pilot,2022.1.3,Win32,60.05645307,62bbe60bf3d75ef465d3e404,,,,,,,,,,,,,,,,,,,,,,,,,,,,,,,,,,,,,,,,,,,,,,,,,,,,,,,,,,,,,,,,,,,,,,,,,,,,,,,,,,,,,,,,,,,,,,,,,,,,,,,,,,,,,,,,,,,,,,,,,,,,,,,,,,,,,,,,,,,,,,,,,,,,,,,,,,,,,,
0,45,45,0,1,,6131e772aebd3c8fff4f0c7f,62bbf9c8c5f6bda3b95cb4a5,2022-06-29_09h06.40.988,Colour_Asymmetry_Pilot,2022.1.3,Win32,60.05645307,62bbe60bf3d75ef465d3e404,,,,,,,,,,,,,,,,,,,,,,,,,,,,,,,,,,,,,,,,,,,,,,,,,,,,,,,,,,,,,,,,,,,,,,,,,,,,,,,,,,,,,,,,,,,,,,,,,,,,,,,,,,,,,,,,,,,,,,,,,,,,,,,,,,,,,,,,,,,,,,,,,,,,,,,,,,,,,,
0,46,46,30,1,,6131e772aebd3c8fff4f0c7f,62bbf9c8c5f6bda3b95cb4a5,2022-06-29_09h06.40.988,Colour_Asymmetry_Pilot,2022.1.3,Win32,60.05645307,62bbe60bf3d75ef465d3e404,,,,,,,,,,,,,,,,,,,,,,,,,,,,,,,,,,,,,,,,,,,,,,,,,,,,,,,,,,,,,,,,,,,,,,,,,,,,,,,,,,,,,,,,,,,,,,,,,,,,,,,,,,,,,,,,,,,,,,,,,,,,,,,,,,,,,,,,,,,,,,,,,,,,,,,,,,,,,,
0,47,47,52,1,,6131e772aebd3c8fff4f0c7f,62bbf9c8c5f6bda3b95cb4a5,2022-06-29_09h06.40.988,Colour_Asymmetry_Pilot,2022.1.3,Win32,60.05645307,62bbe60bf3d75ef465d3e404,,,,,,,,,,,,,,,,,,,,,,,,,,,,,,,,,,,,,,,,,,,,,,,,,,,,,,,,,,,,,,,,,,,,,,,,,,,,,,,,,,,,,,,,,,,,,,,,,,,,,,,,,,,,,,,,,,,,,,,,,,,,,,,,,,,,,,,,,,,,,,,,,,,,,,,,,,,,,,
0,48,48,37,1,,6131e772aebd3c8fff4f0c7f,62bbf9c8c5f6bda3b95cb4a5,2022-06-29_09h06.40.988,Colour_Asymmetry_Pilot,2022.1.3,Win32,60.05645307,62bbe60bf3d75ef465d3e404,,,,,,,,,,,,,,,,,,,,,,,,,,,,,,,,,,,,,,,,,,,,,,,,,,,,,,,,,,,,,,,,,,,,,,,,,,,,,,,,,,,,,,,,,,,,,,,,,,,,,,,,,,,,,,,,,,,,,,,,,,,,,,,,,,,,,,,,,,,,,,,,,,,,,,,,,,,,,,
0,49,49,21,1,,6131e772aebd3c8fff4f0c7f,62bbf9c8c5f6bda3b95cb4a5,2022-06-29_09h06.40.988,Colour_Asymmetry_Pilot,2022.1.3,Win32,60.05645307,62bbe60bf3d75ef465d3e404,,,,,,,,,,,,,,,,,,,,,,,,,,,,,,,,,,,,,,,,,,,,,,,,,,,,,,,,,,,,,,,,,,,,,,,,,,,,,,,,,,,,,,,,,,,,,,,,,,,,,,,,,,,,,,,,,,,,,,,,,,,,,,,,,,,,,,,,,,,,,,,,,,,,,,,,,,,,,,
0,50,50,27,1,,6131e772aebd3c8fff4f0c7f,62bbf9c8c5f6bda3b95cb4a5,2022-06-29_09h06.40.988,Colour_Asymmetry_Pilot,2022.1.3,Win32,60.05645307,62bbe60bf3d75ef465d3e404,,,,,,,,,,,,,,,,,,,,,,,,,,,,,,,,,,,,,,,,,,,,,,,,,,,,,,,,,,,,,,,,,,,,,,,,,,,,,,,,,,,,,,,,,,,,,,,,,,,,,,,,,,,,,,,,,,,,,,,,,,,,,,,,,,,,,,,,,,,,,,,,,,,,,,,,,,,,,,
0,51,51,2,1,,6131e772aebd3c8fff4f0c7f,62bbf9c8c5f6bda3b95cb4a5,2022-06-29_09h06.40.988,Colour_Asymmetry_Pilot,2022.1.3,Win32,60.05645307,62bbe60bf3d75ef465d3e404,,,,,,,,,,,,,,,,,,,,,,,,,,,,,,,,,,,,,,,,,,,,,,,,,,,,,,,,,,,,,,,,,,,,,,,,,,,,,,,,,,,,,,,,,,,,,,,,,,,,,,,,,,,,,,,,,,,,,,,,,,,,,,,,,,,,,,,,,,,,,,,,,,,,,,,,,,,,,,
0,52,52,39,1,,6131e772aebd3c8fff4f0c7f,62bbf9c8c5f6bda3b95cb4a5,2022-06-29_09h06.40.988,Colour_Asymmetry_Pilot,2022.1.3,Win32,60.05645307,62bbe60bf3d75ef465d3e404,,,,,,,,,,,,,,,,,,,,,,,,,,,,,,,,,,,,,,,,,,,,,,,,,,,,,,,,,,,,,,,,,,,,,,,,,,,,,,,,,,,,,,,,,,,,,,,,,,,,,,,,,,,,,,,,,,,,,,,,,,,,,,,,,,,,,,,,,,,,,,,,,,,,,,,,,,,,,,
0,53,53,76,1,,6131e772aebd3c8fff4f0c7f,62bbf9c8c5f6bda3b95cb4a5,2022-06-29_09h06.40.988,Colour_Asymmetry_Pilot,2022.1.3,Win32,60.05645307,62bbe60bf3d75ef465d3e404,,,,,,,,,,,,,,,,,,,,,,,,,,,,,,,,,,,,,,,,,,,,,,,,,,,,,,,,,,,,,,,,,,,,,,,,,,,,,,,,,,,,,,,,,,,,,,,,,,,,,,,,,,,,,,,,,,,,,,,,,,,,,,,,,,,,,,,,,,,,,,,,,,,,,,,,,,,,,,
0,54,54,84,1,,6131e772aebd3c8fff4f0c7f,62bbf9c8c5f6bda3b95cb4a5,2022-06-29_09h06.40.988,Colour_Asymmetry_Pilot,2022.1.3,Win32,60.05645307,62bbe60bf3d75ef465d3e404,,,,,,,,,,,,,,,,,,,,,,,,,,,,,,,,,,,,,,,,,,,,,,,,,,,,,,,,,,,,,,,,,,,,,,,,,,,,,,,,,,,,,,,,,,,,,,,,,,,,,,,,,,,,,,,,,,,,,,,,,,,,,,,,,,,,,,,,,,,,,,,,,,,,,,,,,,,,,,
0,55,55,57,1,,6131e772aebd3c8fff4f0c7f,62bbf9c8c5f6bda3b95cb4a5,2022-06-29_09h06.40.988,Colour_Asymmetry_Pilot,2022.1.3,Win32,60.05645307,62bbe60bf3d75ef465d3e404,,,,,,,,,,,,,,,,,,,,,,,,,,,,,,,,,,,,,,,,,,,,,,,,,,,,,,,,,,,,,,,,,,,,,,,,,,,,,,,,,,,,,,,,,,,,,,,,,,,,,,,,,,,,,,,,,,,,,,,,,,,,,,,,,,,,,,,,,,,,,,,,,,,,,,,,,,,,,,
0,56,56,8,1,,6131e772aebd3c8fff4f0c7f,62bbf9c8c5f6bda3b95cb4a5,2022-06-29_09h06.40.988,Colour_Asymmetry_Pilot,2022.1.3,Win32,60.05645307,62bbe60bf3d75ef465d3e404,,,,,,,,,,,,,,,,,,,,,,,,,,,,,,,,,,,,,,,,,,,,,,,,,,,,,,,,,,,,,,,,,,,,,,,,,,,,,,,,,,,,,,,,,,,,,,,,,,,,,,,,,,,,,,,,,,,,,,,,,,,,,,,,,,,,,,,,,,,,,,,,,,,,,,,,,,,,,,
0,57,57,77,1,,6131e772aebd3c8fff4f0c7f,62bbf9c8c5f6bda3b95cb4a5,2022-06-29_09h06.40.988,Colour_Asymmetry_Pilot,2022.1.3,Win32,60.05645307,62bbe60bf3d75ef465d3e404,,,,,,,,,,,,,,,,,,,,,,,,,,,,,,,,,,,,,,,,,,,,,,,,,,,,,,,,,,,,,,,,,,,,,,,,,,,,,,,,,,,,,,,,,,,,,,,,,,,,,,,,,,,,,,,,,,,,,,,,,,,,,,,,,,,,,,,,,,,,,,,,,,,,,,,,,,,,,,
0,58,58,64,1,,6131e772aebd3c8fff4f0c7f,62bbf9c8c5f6bda3b95cb4a5,2022-06-29_09h06.40.988,Colour_Asymmetry_Pilot,2022.1.3,Win32,60.05645307,62bbe60bf3d75ef465d3e404,,,,,,,,,,,,,,,,,,,,,,,,,,,,,,,,,,,,,,,,,,,,,,,,,,,,,,,,,,,,,,,,,,,,,,,,,,,,,,,,,,,,,,,,,,,,,,,,,,,,,,,,,,,,,,,,,,,,,,,,,,,,,,,,,,,,,,,,,,,,,,,,,,,,,,,,,,,,,,
0,59,59,44,1,,6131e772aebd3c8fff4f0c7f,62bbf9c8c5f6bda3b95cb4a5,2022-06-29_09h06.40.988,Colour_Asymmetry_Pilot,2022.1.3,Win32,60.05645307,62bbe60bf3d75ef465d3e404,,,,,,,,,,,,,,,,,,,,,,,,,,,,,,,,,,,,,,,,,,,,,,,,,,,,,,,,,,,,,,,,,,,,,,,,,,,,,,,,,,,,,,,,,,,,,,,,,,,,,,,,,,,,,,,,,,,,,,,,,,,,,,,,,,,,,,,,,,,,,,,,,,,,,,,,,,,,,,
0,60,60,72,1,,6131e772aebd3c8fff4f0c7f,62bbf9c8c5f6bda3b95cb4a5,2022-06-29_09h06.40.988,Colour_Asymmetry_Pilot,2022.1.3,Win32,60.05645307,62bbe60bf3d75ef465d3e404,,,,,,,,,,,,,,,,,,,,,,,,,,,,,,,,,,,,,,,,,,,,,,,,,,,,,,,,,,,,,,,,,,,,,,,,,,,,,,,,,,,,,,,,,,,,,,,,,,,,,,,,,,,,,,,,,,,,,,,,,,,,,,,,,,,,,,,,,,,,,,,,,,,,,,,,,,,,,,
0,61,61,6,1,,6131e772aebd3c8fff4f0c7f,62bbf9c8c5f6bda3b95cb4a5,2022-06-29_09h06.40.988,Colour_Asymmetry_Pilot,2022.1.3,Win32,60.05645307,62bbe60bf3d75ef465d3e404,,,,,,,,,,,,,,,,,,,,,,,,,,,,,,,,,,,,,,,,,,,,,,,,,,,,,,,,,,,,,,,,,,,,,,,,,,,,,,,,,,,,,,,,,,,,,,,,,,,,,,,,,,,,,,,,,,,,,,,,,,,,,,,,,,,,,,,,,,,,,,,,,,,,,,,,,,,,,,
0,62,62,10,1,,6131e772aebd3c8fff4f0c7f,62bbf9c8c5f6bda3b95cb4a5,2022-06-29_09h06.40.988,Colour_Asymmetry_Pilot,2022.1.3,Win32,60.05645307,62bbe60bf3d75ef465d3e404,,,,,,,,,,,,,,,,,,,,,,,,,,,,,,,,,,,,,,,,,,,,,,,,,,,,,,,,,,,,,,,,,,,,,,,,,,,,,,,,,,,,,,,,,,,,,,,,,,,,,,,,,,,,,,,,,,,,,,,,,,,,,,,,,,,,,,,,,,,,,,,,,,,,,,,,,,,,,,
0,63,63,90,1,,6131e772aebd3c8fff4f0c7f,62bbf9c8c5f6bda3b95cb4a5,2022-06-29_09h06.40.988,Colour_Asymmetry_Pilot,2022.1.3,Win32,60.05645307,62bbe60bf3d75ef465d3e404,,,,,,,,,,,,,,,,,,,,,,,,,,,,,,,,,,,,,,,,,,,,,,,,,,,,,,,,,,,,,,,,,,,,,,,,,,,,,,,,,,,,,,,,,,,,,,,,,,,,,,,,,,,,,,,,,,,,,,,,,,,,,,,,,,,,,,,,,,,,,,,,,,,,,,,,,,,,,,
0,64,64,9,1,,6131e772aebd3c8fff4f0c7f,62bbf9c8c5f6bda3b95cb4a5,2022-06-29_09h06.40.988,Colour_Asymmetry_Pilot,2022.1.3,Win32,60.05645307,62bbe60bf3d75ef465d3e404,,,,,,,,,,,,,,,,,,,,,,,,,,,,,,,,,,,,,,,,,,,,,,,,,,,,,,,,,,,,,,,,,,,,,,,,,,,,,,,,,,,,,,,,,,,,,,,,,,,,,,,,,,,,,,,,,,,,,,,,,,,,,,,,,,,,,,,,,,,,,,,,,,,,,,,,,,,,,,
0,65,65,78,1,,6131e772aebd3c8fff4f0c7f,62bbf9c8c5f6bda3b95cb4a5,2022-06-29_09h06.40.988,Colour_Asymmetry_Pilot,2022.1.3,Win32,60.05645307,62bbe60bf3d75ef465d3e404,,,,,,,,,,,,,,,,,,,,,,,,,,,,,,,,,,,,,,,,,,,,,,,,,,,,,,,,,,,,,,,,,,,,,,,,,,,,,,,,,,,,,,,,,,,,,,,,,,,,,,,,,,,,,,,,,,,,,,,,,,,,,,,,,,,,,,,,,,,,,,,,,,,,,,,,,,,,,,
0,66,66,43,1,,6131e772aebd3c8fff4f0c7f,62bbf9c8c5f6bda3b95cb4a5,2022-06-29_09h06.40.988,Colour_Asymmetry_Pilot,2022.1.3,Win32,60.05645307,62bbe60bf3d75ef465d3e404,,,,,,,,,,,,,,,,,,,,,,,,,,,,,,,,,,,,,,,,,,,,,,,,,,,,,,,,,,,,,,,,,,,,,,,,,,,,,,,,,,,,,,,,,,,,,,,,,,,,,,,,,,,,,,,,,,,,,,,,,,,,,,,,,,,,,,,,,,,,,,,,,,,,,,,,,,,,,,
0,67,67,74,1,,6131e772aebd3c8fff4f0c7f,62bbf9c8c5f6bda3b95cb4a5,2022-06-29_09h06.40.988,Colour_Asymmetry_Pilot,2022.1.3,Win32,60.05645307,62bbe60bf3d75ef465d3e404,,,,,,,,,,,,,,,,,,,,,,,,,,,,,,,,,,,,,,,,,,,,,,,,,,,,,,,,,,,,,,,,,,,,,,,,,,,,,,,,,,,,,,,,,,,,,,,,,,,,,,,,,,,,,,,,,,,,,,,,,,,,,,,,,,,,,,,,,,,,,,,,,,,,,,,,,,,,,,
0,68,68,81,1,,6131e772aebd3c8fff4f0c7f,62bbf9c8c5f6bda3b95cb4a5,2022-06-29_09h06.40.988,Colour_Asymmetry_Pilot,2022.1.3,Win32,60.05645307,62bbe60bf3d75ef465d3e404,,,,,,,,,,,,,,,,,,,,,,,,,,,,,,,,,,,,,,,,,,,,,,,,,,,,,,,,,,,,,,,,,,,,,,,,,,,,,,,,,,,,,,,,,,,,,,,,,,,,,,,,,,,,,,,,,,,,,,,,,,,,,,,,,,,,,,,,,,,,,,,,,,,,,,,,,,,,,,
0,69,69,82,1,,6131e772aebd3c8fff4f0c7f,62bbf9c8c5f6bda3b95cb4a5,2022-06-29_09h06.40.988,Colour_Asymmetry_Pilot,2022.1.3,Win32,60.05645307,62bbe60bf3d75ef465d3e404,,,,,,,,,,,,,,,,,,,,,,,,,,,,,,,,,,,,,,,,,,,,,,,,,,,,,,,,,,,,,,,,,,,,,,,,,,,,,,,,,,,,,,,,,,,,,,,,,,,,,,,,,,,,,,,,,,,,,,,,,,,,,,,,,,,,,,,,,,,,,,,,,,,,,,,,,,,,,,
0,70,70,13,1,,6131e772aebd3c8fff4f0c7f,62bbf9c8c5f6bda3b95cb4a5,2022-06-29_09h06.40.988,Colour_Asymmetry_Pilot,2022.1.3,Win32,60.05645307,62bbe60bf3d75ef465d3e404,,,,,,,,,,,,,,,,,,,,,,,,,,,,,,,,,,,,,,,,,,,,,,,,,,,,,,,,,,,,,,,,,,,,,,,,,,,,,,,,,,,,,,,,,,,,,,,,,,,,,,,,,,,,,,,,,,,,,,,,,,,,,,,,,,,,,,,,,,,,,,,,,,,,,,,,,,,,,,
0,71,71,53,1,,6131e772aebd3c8fff4f0c7f,62bbf9c8c5f6bda3b95cb4a5,2022-06-29_09h06.40.988,Colour_Asymmetry_Pilot,2022.1.3,Win32,60.05645307,62bbe60bf3d75ef465d3e404,,,,,,,,,,,,,,,,,,,,,,,,,,,,,,,,,,,,,,,,,,,,,,,,,,,,,,,,,,,,,,,,,,,,,,,,,,,,,,,,,,,,,,,,,,,,,,,,,,,,,,,,,,,,,,,,,,,,,,,,,,,,,,,,,,,,,,,,,,,,,,,,,,,,,,,,,,,,,,
0,72,72,4,1,,6131e772aebd3c8fff4f0c7f,62bbf9c8c5f6bda3b95cb4a5,2022-06-29_09h06.40.988,Colour_Asymmetry_Pilot,2022.1.3,Win32,60.05645307,62bbe60bf3d75ef465d3e404,,,,,,,,,,,,,,,,,,,,,,,,,,,,,,,,,,,,,,,,,,,,,,,,,,,,,,,,,,,,,,,,,,,,,,,,,,,,,,,,,,,,,,,,,,,,,,,,,,,,,,,,,,,,,,,,,,,,,,,,,,,,,,,,,,,,,,,,,,,,,,,,,,,,,,,,,,,,,,
0,73,73,41,1,,6131e772aebd3c8fff4f0c7f,62bbf9c8c5f6bda3b95cb4a5,2022-06-29_09h06.40.988,Colour_Asymmetry_Pilot,2022.1.3,Win32,60.05645307,62bbe60bf3d75ef465d3e404,,,,,,,,,,,,,,,,,,,,,,,,,,,,,,,,,,,,,,,,,,,,,,,,,,,,,,,,,,,,,,,,,,,,,,,,,,,,,,,,,,,,,,,,,,,,,,,,,,,,,,,,,,,,,,,,,,,,,,,,,,,,,,,,,,,,,,,,,,,,,,,,,,,,,,,,,,,,,,
0,74,74,19,1,,6131e772aebd3c8fff4f0c7f,62bbf9c8c5f6bda3b95cb4a5,2022-06-29_09h06.40.988,Colour_Asymmetry_Pilot,2022.1.3,Win32,60.05645307,62bbe60bf3d75ef465d3e404,,,,,,,,,,,,,,,,,,,,,,,,,,,,,,,,,,,,,,,,,,,,,,,,,,,,,,,,,,,,,,,,,,,,,,,,,,,,,,,,,,,,,,,,,,,,,,,,,,,,,,,,,,,,,,,,,,,,,,,,,,,,,,,,,,,,,,,,,,,,,,,,,,,,,,,,,,,,,,
0,75,75,32,1,,6131e772aebd3c8fff4f0c7f,62bbf9c8c5f6bda3b95cb4a5,2022-06-29_09h06.40.988,Colour_Asymmetry_Pilot,2022.1.3,Win32,60.05645307,62bbe60bf3d75ef465d3e404,,,,,,,,,,,,,,,,,,,,,,,,,,,,,,,,,,,,,,,,,,,,,,,,,,,,,,,,,,,,,,,,,,,,,,,,,,,,,,,,,,,,,,,,,,,,,,,,,,,,,,,,,,,,,,,,,,,,,,,,,,,,,,,,,,,,,,,,,,,,,,,,,,,,,,,,,,,,,,
0,76,76,12,1,,6131e772aebd3c8fff4f0c7f,62bbf9c8c5f6bda3b95cb4a5,2022-06-29_09h06.40.988,Colour_Asymmetry_Pilot,2022.1.3,Win32,60.05645307,62bbe60bf3d75ef465d3e404,,,,,,,,,,,,,,,,,,,,,,,,,,,,,,,,,,,,,,,,,,,,,,,,,,,,,,,,,,,,,,,,,,,,,,,,,,,,,,,,,,,,,,,,,,,,,,,,,,,,,,,,,,,,,,,,,,,,,,,,,,,,,,,,,,,,,,,,,,,,,,,,,,,,,,,,,,,,,,
0,77,77,66,1,,6131e772aebd3c8fff4f0c7f,62bbf9c8c5f6bda3b95cb4a5,2022-06-29_09h06.40.988,Colour_Asymmetry_Pilot,2022.1.3,Win32,60.05645307,62bbe60bf3d75ef465d3e404,,,,,,,,,,,,,,,,,,,,,,,,,,,,,,,,,,,,,,,,,,,,,,,,,,,,,,,,,,,,,,,,,,,,,,,,,,,,,,,,,,,,,,,,,,,,,,,,,,,,,,,,,,,,,,,,,,,,,,,,,,,,,,,,,,,,,,,,,,,,,,,,,,,,,,,,,,,,,,
0,78,78,59,1,,6131e772aebd3c8fff4f0c7f,62bbf9c8c5f6bda3b95cb4a5,2022-06-29_09h06.40.988,Colour_Asymmetry_Pilot,2022.1.3,Win32,60.05645307,62bbe60bf3d75ef465d3e404,,,,,,,,,,,,,,,,,,,,,,,,,,,,,,,,,,,,,,,,,,,,,,,,,,,,,,,,,,,,,,,,,,,,,,,,,,,,,,,,,,,,,,,,,,,,,,,,,,,,,,,,,,,,,,,,,,,,,,,,,,,,,,,,,,,,,,,,,,,,,,,,,,,,,,,,,,,,,,
0,79,79,56,1,,6131e772aebd3c8fff4f0c7f,62bbf9c8c5f6bda3b95cb4a5,2022-06-29_09h06.40.988,Colour_Asymmetry_Pilot,2022.1.3,Win32,60.05645307,62bbe60bf3d75ef465d3e404,,,,,,,,,,,,,,,,,,,,,,,,,,,,,,,,,,,,,,,,,,,,,,,,,,,,,,,,,,,,,,,,,,,,,,,,,,,,,,,,,,,,,,,,,,,,,,,,,,,,,,,,,,,,,,,,,,,,,,,,,,,,,,,,,,,,,,,,,,,,,,,,,,,,,,,,,,,,,,
0,80,80,89,1,,6131e772aebd3c8fff4f0c7f,62bbf9c8c5f6bda3b95cb4a5,2022-06-29_09h06.40.988,Colour_Asymmetry_Pilot,2022.1.3,Win32,60.05645307,62bbe60bf3d75ef465d3e404,,,,,,,,,,,,,,,,,,,,,,,,,,,,,,,,,,,,,,,,,,,,,,,,,,,,,,,,,,,,,,,,,,,,,,,,,,,,,,,,,,,,,,,,,,,,,,,,,,,,,,,,,,,,,,,,,,,,,,,,,,,,,,,,,,,,,,,,,,,,,,,,,,,,,,,,,,,,,,
0,81,81,22,1,,6131e772aebd3c8fff4f0c7f,62bbf9c8c5f6bda3b95cb4a5,2022-06-29_09h06.40.988,Colour_Asymmetry_Pilot,2022.1.3,Win32,60.05645307,62bbe60bf3d75ef465d3e404,,,,,,,,,,,,,,,,,,,,,,,,,,,,,,,,,,,,,,,,,,,,,,,,,,,,,,,,,,,,,,,,,,,,,,,,,,,,,,,,,,,,,,,,,,,,,,,,,,,,,,,,,,,,,,,,,,,,,,,,,,,,,,,,,,,,,,,,,,,,,,,,,,,,,,,,,,,,,,
0,82,82,70,1,,6131e772aebd3c8fff4f0c7f,62bbf9c8c5f6bda3b95cb4a5,2022-06-29_09h06.40.988,Colour_Asymmetry_Pilot,2022.1.3,Win32,60.05645307,62bbe60bf3d75ef465d3e404,,,,,,,,,,,,,,,,,,,,,,,,,,,,,,,,,,,,,,,,,,,,,,,,,,,,,,,,,,,,,,,,,,,,,,,,,,,,,,,,,,,,,,,,,,,,,,,,,,,,,,,,,,,,,,,,,,,,,,,,,,,,,,,,,,,,,,,,,,,,,,,,,,,,,,,,,,,,,,
0,83,83,33,1,,6131e772aebd3c8fff4f0c7f,62bbf9c8c5f6bda3b95cb4a5,2022-06-29_09h06.40.988,Colour_Asymmetry_Pilot,2022.1.3,Win32,60.05645307,62bbe60bf3d75ef465d3e404,,,,,,,,,,,,,,,,,,,,,,,,,,,,,,,,,,,,,,,,,,,,,,,,,,,,,,,,,,,,,,,,,,,,,,,,,,,,,,,,,,,,,,,,,,,,,,,,,,,,,,,,,,,,,,,,,,,,,,,,,,,,,,,,,,,,,,,,,,,,,,,,,,,,,,,,,,,,,,
0,84,84,67,1,,6131e772aebd3c8fff4f0c7f,62bbf9c8c5f6bda3b95cb4a5,2022-06-29_09h06.40.988,Colour_Asymmetry_Pilot,2022.1.3,Win32,60.05645307,62bbe60bf3d75ef465d3e404,,,,,,,,,,,,,,,,,,,,,,,,,,,,,,,,,,,,,,,,,,,,,,,,,,,,,,,,,,,,,,,,,,,,,,,,,,,,,,,,,,,,,,,,,,,,,,,,,,,,,,,,,,,,,,,,,,,,,,,,,,,,,,,,,,,,,,,,,,,,,,,,,,,,,,,,,,,,,,
0,85,85,62,1,,6131e772aebd3c8fff4f0c7f,62bbf9c8c5f6bda3b95cb4a5,2022-06-29_09h06.40.988,Colour_Asymmetry_Pilot,2022.1.3,Win32,60.05645307,62bbe60bf3d75ef465d3e404,,,,,,,,,,,,,,,,,,,,,,,,,,,,,,,,,,,,,,,,,,,,,,,,,,,,,,,,,,,,,,,,,,,,,,,,,,,,,,,,,,,,,,,,,,,,,,,,,,,,,,,,,,,,,,,,,,,,,,,,,,,,,,,,,,,,,,,,,,,,,,,,,,,,,,,,,,,,,,
0,86,86,85,1,,6131e772aebd3c8fff4f0c7f,62bbf9c8c5f6bda3b95cb4a5,2022-06-29_09h06.40.988,Colour_Asymmetry_Pilot,2022.1.3,Win32,60.05645307,62bbe60bf3d75ef465d3e404,,,,,,,,,,,,,,,,,,,,,,,,,,,,,,,,,,,,,,,,,,,,,,,,,,,,,,,,,,,,,,,,,,,,,,,,,,,,,,,,,,,,,,,,,,,,,,,,,,,,,,,,,,,,,,,,,,,,,,,,,,,,,,,,,,,,,,,,,,,,,,,,,,,,,,,,,,,,,,
0,87,87,3,1,,6131e772aebd3c8fff4f0c7f,62bbf9c8c5f6bda3b95cb4a5,2022-06-29_09h06.40.988,Colour_Asymmetry_Pilot,2022.1.3,Win32,60.05645307,62bbe60bf3d75ef465d3e404,,,,,,,,,,,,,,,,,,,,,,,,,,,,,,,,,,,,,,,,,,,,,,,,,,,,,,,,,,,,,,,,,,,,,,,,,,,,,,,,,,,,,,,,,,,,,,,,,,,,,,,,,,,,,,,,,,,,,,,,,,,,,,,,,,,,,,,,,,,,,,,,,,,,,,,,,,,,,,
0,88,88,46,1,,6131e772aebd3c8fff4f0c7f,62bbf9c8c5f6bda3b95cb4a5,2022-06-29_09h06.40.988,Colour_Asymmetry_Pilot,2022.1.3,Win32,60.05645307,62bbe60bf3d75ef465d3e404,,,,,,,,,,,,,,,,,,,,,,,,,,,,,,,,,,,,,,,,,,,,,,,,,,,,,,,,,,,,,,,,,,,,,,,,,,,,,,,,,,,,,,,,,,,,,,,,,,,,,,,,,,,,,,,,,,,,,,,,,,,,,,,,,,,,,,,,,,,,,,,,,,,,,,,,,,,,,,
0,89,89,26,1,,6131e772aebd3c8fff4f0c7f,62bbf9c8c5f6bda3b95cb4a5,2022-06-29_09h06.40.988,Colour_Asymmetry_Pilot,2022.1.3,Win32,60.05645307,62bbe60bf3d75ef465d3e404,,,,,,,,,,,,,,,,,,,,,,,,,,,,,,,,,,,,,,,,,,,,,,,,,,,,,,,,,,,,,,,,,,,,,,,,,,,,,,,,,,,,,,,,,,,,,,,,,,,,,,,,,,,,,,,,,,,,,,,,,,,,,,,,,,,,,,,,,,,,,,,,,,,,,,,,,,,,,,
0,90,90,36,1,,6131e772aebd3c8fff4f0c7f,62bbf9c8c5f6bda3b95cb4a5,2022-06-29_09h06.40.988,Colour_Asymmetry_Pilot,2022.1.3,Win32,60.05645307,62bbe60bf3d75ef465d3e404,,,,,,,,,,,,,,,,,,,,,,,,,,,,,,,,,,,,,,,,,,,,,,,,,,,,,,,,,,,,,,,,,,,,,,,,,,,,,,,,,,,,,,,,,,,,,,,,,,,,,,,,,,,,,,,,,,,,,,,,,,,,,,,,,,,,,,,,,,,,,,,,,,,,,,,,,,,,,,
0,91,91,68,1,,6131e772aebd3c8fff4f0c7f,62bbf9c8c5f6bda3b95cb4a5,2022-06-29_09h06.40.988,Colour_Asymmetry_Pilot,2022.1.3,Win32,60.05645307,62bbe60bf3d75ef465d3e404,,,,,,,,,,,,,,,,,,,,,,,,,,,,,,,,,,,,,,,,,,,,,,,,,,,,,,,,,,,,,,,,,,,,,,,,,,,,,,,,,,,,,,,,,,,,,,,,,,,,,,,,,,,,,,,,,,,,,,,,,,,,,,,,,,,,,,,,,,,,,,,,,,,,,,,,,,,,,,
0,92,92,31,1,,6131e772aebd3c8fff4f0c7f,62bbf9c8c5f6bda3b95cb4a5,2022-06-29_09h06.40.988,Colour_Asymmetry_Pilot,2022.1.3,Win32,60.05645307,62bbe60bf3d75ef465d3e404,,,,,,,,,,,,,,,,,,,,,,,,,,,,,,,,,,,,,,,,,,,,,,,,,,,,,,,,,,,,,,,,,,,,,,,,,,,,,,,,,,,,,,,,,,,,,,,,,,,,,,,,,,,,,,,,,,,,,,,,,,,,,,,,,,,,,,,,,,,,,,,,,,,,,,,,,,,,,,
,,,,,,6131e772aebd3c8fff4f0c7f,62bbf9c8c5f6bda3b95cb4a5,2022-06-29_09h06.40.988,Colour_Asymmetry_Pilot,2022.1.3,Win32,60.05645307,62bbe60bf3d75ef465d3e404,0,0,0,7,1,fourthree,,,,,,,,,,,,,,,,,,,,,,,,,,,,,,,,,,,,,,,,,,,,,,,,,,,,,,,,,,,,,,,,,,,,,,,,,,,,,,,,,,,,,,,,,,,,,,,,,,,,,,,,,,,,,,,,,,,,,,,,,,,,,,,,,,,,,,,,,,,,,,,,,,,,,,,,
,,,,,,6131e772aebd3c8fff4f0c7f,62bbf9c8c5f6bda3b95cb4a5,2022-06-29_09h06.40.988,Colour_Asymmetry_Pilot,2022.1.3,Win32,60.05645307,62bbe60bf3d75ef465d3e404,0,1,1,34,1,twoone,,,,,,,,,,,,,,,,,,,,,,,,,,,,,,,,,,,,,,,,,,,,,,,,,,,,,,,,,,,,,,,,,,,,,,,,,,,,,,,,,,,,,,,,,,,,,,,,,,,,,,,,,,,,,,,,,,,,,,,,,,,,,,,,,,,,,,,,,,,,,,,,,,,,,,,,
,,,,,,6131e772aebd3c8fff4f0c7f,62bbf9c8c5f6bda3b95cb4a5,2022-06-29_09h06.40.988,Colour_Asymmetry_Pilot,2022.1.3,Win32,60.05645307,62bbe60bf3d75ef465d3e404,0,2,2,19,1,twofour,,,,,,,,,,,,,,,,,,,,,,,,,,,,,,,,,,,,,,,,,,,,,,,,,,,,,,,,,,,,,,,,,,,,,,,,,,,,,,,,,,,,,,,,,,,,,,,,,,,,,,,,,,,,,,,,,,,,,,,,,,,,,,,,,,,,,,,,,,,,,,,,,,,,,,,,
,,,,,,6131e772aebd3c8fff4f0c7f,62bbf9c8c5f6bda3b95cb4a5,2022-06-29_09h06.40.988,Colour_Asymmetry_Pilot,2022.1.3,Win32,60.05645307,62bbe60bf3d75ef465d3e404,0,3,3,16,1,onetwo,,,,,,,,,,,,,,,,,,,,,,,,,,,,,,,,,,,,,,,,,,,,,,,,,,,,,,,,,,,,,,,,,,,,,,,,,,,,,,,,,,,,,,,,,,,,,,,,,,,,,,,,,,,,,,,,,,,,,,,,,,,,,,,,,,,,,,,,,,,,,,,,,,,,,,,,
,,,,,,6131e772aebd3c8fff4f0c7f,62bbf9c8c5f6bda3b95cb4a5,2022-06-29_09h06.40.988,Colour_Asymmetry_Pilot,2022.1.3,Win32,60.05645307,62bbe60bf3d75ef465d3e404,0,4,4,89,1,onethree,,,,,,,,,,,,,,,,,,,,,,,,,,,,,,,,,,,,,,,,,,,,,,,,,,,,,,,,,,,,,,,,,,,,,,,,,,,,,,,,,,,,,,,,,,,,,,,,,,,,,,,,,,,,,,,,,,,,,,,,,,,,,,,,,,,,,,,,,,,,,,,,,,,,,,,,
,,,,,,6131e772aebd3c8fff4f0c7f,62bbf9c8c5f6bda3b95cb4a5,2022-06-29_09h06.40.988,Colour_Asymmetry_Pilot,2022.1.3,Win32,60.05645307,62bbe60bf3d75ef465d3e404,0,5,5,40,1,onetwo,,,,,,,,,,,,,,,,,,,,,,,,,,,,,,,,,,,,,,,,,,,,,,,,,,,,,,,,,,,,,,,,,,,,,,,,,,,,,,,,,,,,,,,,,,,,,,,,,,,,,,,,,,,,,,,,,,,,,,,,,,,,,,,,,,,,,,,,,,,,,,,,,,,,,,,,
,,,,,,6131e772aebd3c8fff4f0c7f,62bbf9c8c5f6bda3b95cb4a5,2022-06-29_09h06.40.988,Colour_Asymmetry_Pilot,2022.1.3,Win32,60.05645307,62bbe60bf3d75ef465d3e404,0,6,6,86,1,fourtwo,,,,,,,,,,,,,,,,,,,,,,,,,,,,,,,,,,,,,,,,,,,,,,,,,,,,,,,,,,,,,,,,,,,,,,,,,,,,,,,,,,,,,,,,,,,,,,,,,,,,,,,,,,,,,,,,,,,,,,,,,,,,,,,,,,,,,,,,,,,,,,,,,,,,,,,,
,,,,,,6131e772aebd3c8fff4f0c7f,62bbf9c8c5f6bda3b95cb4a5,2022-06-29_09h06.40.988,Colour_Asymmetry_Pilot,2022.1.3,Win32,60.05645307,62bbe60bf3d75ef465d3e404,0,7,7,130,1,twoone,,,,,,,,,,,,,,,,,,,,,,,,,,,,,,,,,,,,,,,,,,,,,,,,,,,,,,,,,,,,,,,,,,,,,,,,,,,,,,,,,,,,,,,,,,,,,,,,,,,,,,,,,,,,,,,,,,,,,,,,,,,,,,,,,,,,,,,,,,,,,,,,,,,,,,,,
,,,,,,6131e772aebd3c8fff4f0c7f,62bbf9c8c5f6bda3b95cb4a5,2022-06-29_09h06.40.988,Colour_Asymmetry_Pilot,2022.1.3,Win32,60.05645307,62bbe60bf3d75ef465d3e404,0,8,8,32,1,onetwo,,,,,,,,,,,,,,,,,,,,,,,,,,,,,,,,,,,,,,,,,,,,,,,,,,,,,,,,,,,,,,,,,,,,,,,,,,,,,,,,,,,,,,,,,,,,,,,,,,,,,,,,,,,,,,,,,,,,,,,,,,,,,,,,,,,,,,,,,,,,,,,,,,,,,,,,
,,,,,,6131e772aebd3c8fff4f0c7f,62bbf9c8c5f6bda3b95cb4a5,2022-06-29_09h06.40.988,Colour_Asymmetry_Pilot,2022.1.3,Win32,60.05645307,62bbe60bf3d75ef465d3e404,0,9,9,39,1,fourthree,,,,,,,,,,,,,,,,,,,,,,,,,,,,,,,,,,,,,,,,,,,,,,,,,,,,,,,,,,,,,,,,,,,,,,,,,,,,,,,,,,,,,,,,,,,,,,,,,,,,,,,,,,,,,,,,,,,,,,,,,,,,,,,,,,,,,,,,,,,,,,,,,,,,,,,,
,,,,,,6131e772aebd3c8fff4f0c7f,62bbf9c8c5f6bda3b95cb4a5,2022-06-29_09h06.40.988,Colour_Asymmetry_Pilot,2022.1.3,Win32,60.05645307,62bbe60bf3d75ef465d3e404,0,10,10,90,1,twoone,,,,,,,,,,,,,,,,,,,,,,,,,,,,,,,,,,,,,,,,,,,,,,,,,,,,,,,,,,,,,,,,,,,,,,,,,,,,,,,,,,,,,,,,,,,,,,,,,,,,,,,,,,,,,,,,,,,,,,,,,,,,,,,,,,,,,,,,,,,,,,,,,,,,,,,,
,,,,,,6131e772aebd3c8fff4f0c7f,62bbf9c8c5f6bda3b95cb4a5,2022-06-29_09h06.40.988,Colour_Asymmetry_Pilot,2022.1.3,Win32,60.05645307,62bbe60bf3d75ef465d3e404,0,11,11,115,1,twofour,,,,,,,,,,,,,,,,,,,,,,,,,,,,,,,,,,,,,,,,,,,,,,,,,,,,,,,,,,,,,,,,,,,,,,,,,,,,,,,,,,,,,,,,,,,,,,,,,,,,,,,,,,,,,,,,,,,,,,,,,,,,,,,,,,,,,,,,,,,,,,,,,,,,,,,,
,,,,,,6131e772aebd3c8fff4f0c7f,62bbf9c8c5f6bda3b95cb4a5,2022-06-29_09h06.40.988,Colour_Asymmetry_Pilot,2022.1.3,Win32,60.05645307,62bbe60bf3d75ef465d3e404,0,12,12,13,1,threefour,,,,,,,,,,,,,,,,,,,,,,,,,,,,,,,,,,,,,,,,,,,,,,,,,,,,,,,,,,,,,,,,,,,,,,,,,,,,,,,,,,,,,,,,,,,,,,,,,,,,,,,,,,,,,,,,,,,,,,,,,,,,,,,,,,,,,,,,,,,,,,,,,,,,,,,,
,,,,,,6131e772aebd3c8fff4f0c7f,62bbf9c8c5f6bda3b95cb4a5,2022-06-29_09h06.40.988,Colour_Asymmetry_Pilot,2022.1.3,Win32,60.05645307,62bbe60bf3d75ef465d3e404,0,13,13,22,1,fourtwo,,,,,,,,,,,,,,,,,,,,,,,,,,,,,,,,,,,,,,,,,,,,,,,,,,,,,,,,,,,,,,,,,,,,,,,,,,,,,,,,,,,,,,,,,,,,,,,,,,,,,,,,,,,,,,,,,,,,,,,,,,,,,,,,,,,,,,,,,,,,,,,,,,,,,,,,
,,,,,,6131e772aebd3c8fff4f0c7f,62bbf9c8c5f6bda3b95cb4a5,2022-06-29_09h06.40.988,Colour_Asymmetry_Pilot,2022.1.3,Win32,60.05645307,62bbe60bf3d75ef465d3e404,0,14,14,75,1,twofour,,,,,,,,,,,,,,,,,,,,,,,,,,,,,,,,,,,,,,,,,,,,,,,,,,,,,,,,,,,,,,,,,,,,,,,,,,,,,,,,,,,,,,,,,,,,,,,,,,,,,,,,,,,,,,,,,,,,,,,,,,,,,,,,,,,,,,,,,,,,,,,,,,,,,,,,
,,,,,,6131e772aebd3c8fff4f0c7f,62bbf9c8c5f6bda3b95cb4a5,2022-06-29_09h06.40.988,Colour_Asymmetry_Pilot,2022.1.3,Win32,60.05645307,62bbe60bf3d75ef465d3e404,0,15,15,131,1,twofour,,,,,,,,,,,,,,,,,,,,,,,,,,,,,,,,,,,,,,,,,,,,,,,,,,,,,,,,,,,,,,,,,,,,,,,,,,,,,,,,,,,,,,,,,,,,,,,,,,,,,,,,,,,,,,,,,,,,,,,,,,,,,,,,,,,,,,,,,,,,,,,,,,,,,,,,
,,,,,,6131e772aebd3c8fff4f0c7f,62bbf9c8c5f6bda3b95cb4a5,2022-06-29_09h06.40.988,Colour_Asymmetry_Pilot,2022.1.3,Win32,60.05645307,62bbe60bf3d75ef465d3e404,0,16,16,159,1,fourthree,,,,,,,,,,,,,,,,,,,,,,,,,,,,,,,,,,,,,,,,,,,,,,,,,,,,,,,,,,,,,,,,,,,,,,,,,,,,,,,,,,,,,,,,,,,,,,,,,,,,,,,,,,,,,,,,,,,,,,,,,,,,,,,,,,,,,,,,,,,,,,,,,,,,,,,,
,,,,,,6131e772aebd3c8fff4f0c7f,62bbf9c8c5f6bda3b95cb4a5,2022-06-29_09h06.40.988,Colour_Asymmetry_Pilot,2022.1.3,Win32,60.05645307,62bbe60bf3d75ef465d3e404,0,17,17,147,1,twofour,,,,,,,,,,,,,,,,,,,,,,,,,,,,,,,,,,,,,,,,,,,,,,,,,,,,,,,,,,,,,,,,,,,,,,,,,,,,,,,,,,,,,,,,,,,,,,,,,,,,,,,,,,,,,,,,,,,,,,,,,,,,,,,,,,,,,,,,,,,,,,,,,,,,,,,,
,,,,,,6131e772aebd3c8fff4f0c7f,62bbf9c8c5f6bda3b95cb4a5,2022-06-29_09h06.40.988,Colour_Asymmetry_Pilot,2022.1.3,Win32,60.05645307,62bbe60bf3d75ef465d3e404,0,18,18,35,1,twofour,,,,,,,,,,,,,,,,,,,,,,,,,,,,,,,,,,,,,,,,,,,,,,,,,,,,,,,,,,,,,,,,,,,,,,,,,,,,,,,,,,,,,,,,,,,,,,,,,,,,,,,,,,,,,,,,,,,,,,,,,,,,,,,,,,,,,,,,,,,,,,,,,,,,,,,,
,,,,,,6131e772aebd3c8fff4f0c7f,62bbf9c8c5f6bda3b95cb4a5,2022-06-29_09h06.40.988,Colour_Asymmetry_Pilot,2022.1.3,Win32,60.05645307,62bbe60bf3d75ef465d3e404,0,19,19,10,1,twoone,,,,,,,,,,,,,,,,,,,,,,,,,,,,,,,,,,,,,,,,,,,,,,,,,,,,,,,,,,,,,,,,,,,,,,,,,,,,,,,,,,,,,,,,,,,,,,,,,,,,,,,,,,,,,,,,,,,,,,,,,,,,,,,,,,,,,,,,,,,,,,,,,,,,,,,,
,,,,,,6131e772aebd3c8fff4f0c7f,62bbf9c8c5f6bda3b95cb4a5,2022-06-29_09h06.40.988,Colour_Asymmetry_Pilot,2022.1.3,Win32,60.05645307,62bbe60bf3d75ef465d3e404,0,20,20,1,1,onethree,,,,,,,,,,,,,,,,,,,,,,,,,,,,,,,,,,,,,,,,,,,,,,,,,,,,,,,,,,,,,,,,,,,,,,,,,,,,,,,,,,,,,,,,,,,,,,,,,,,,,,,,,,,,,,,,,,,,,,,,,,,,,,,,,,,,,,,,,,,,,,,,,,,,,,,,
,,,,,,6131e772aebd3c8fff4f0c7f,62bbf9c8c5f6bda3b95cb4a5,2022-06-29_09h06.40.988,Colour_Asymmetry_Pilot,2022.1.3,Win32,60.05645307,62bbe60bf3d75ef465d3e404,0,21,21,64,1,onetwo,,,,,,,,,,,,,,,,,,,,,,,,,,,,,,,,,,,,,,,,,,,,,,,,,,,,,,,,,,,,,,,,,,,,,,,,,,,,,,,,,,,,,,,,,,,,,,,,,,,,,,,,,,,,,,,,,,,,,,,,,,,,,,,,,,,,,,,,,,,,,,,,,,,,,,,,
,,,,,,6131e772aebd3c8fff4f0c7f,62bbf9c8c5f6bda3b95cb4a5,2022-06-29_09h06.40.988,Colour_Asymmetry_Pilot,2022.1.3,Win32,60.05645307,62bbe60bf3d75ef465d3e404,0,22,22,69,1,threefour,,,,,,,,,,,,,,,,,,,,,,,,,,,,,,,,,,,,,,,,,,,,,,,,,,,,,,,,,,,,,,,,,,,,,,,,,,,,,,,,,,,,,,,,,,,,,,,,,,,,,,,,,,,,,,,,,,,,,,,,,,,,,,,,,,,,,,,,,,,,,,,,,,,,,,,,
,,,,,,6131e772aebd3c8fff4f0c7f,62bbf9c8c5f6bda3b95cb4a5,2022-06-29_09h06.40.988,Colour_Asymmetry_Pilot,2022.1.3,Win32,60.05645307,62bbe60bf3d75ef465d3e404,0,23,23,153,1,onethree,,,,,,,,,,,,,,,,,,,,,,,,,,,,,,,,,,,,,,,,,,,,,,,,,,,,,,,,,,,,,,,,,,,,,,,,,,,,,,,,,,,,,,,,,,,,,,,,,,,,,,,,,,,,,,,,,,,,,,,,,,,,,,,,,,,,,,,,,,,,,,,,,,,,,,,,
,,,,,,6131e772aebd3c8fff4f0c7f,62bbf9c8c5f6bda3b95cb4a5,2022-06-29_09h06.40.988,Colour_Asymmetry_Pilot,2022.1.3,Win32,60.05645307,62bbe60bf3d75ef465d3e404,0,24,24,110,1,fourtwo,,,,,,,,,,,,,,,,,,,,,,,,,,,,,,,,,,,,,,,,,,,,,,,,,,,,,,,,,,,,,,,,,,,,,,,,,,,,,,,,,,,,,,,,,,,,,,,,,,,,,,,,,,,,,,,,,,,,,,,,,,,,,,,,,,,,,,,,,,,,,,,,,,,,,,,,
,,,,,,6131e772aebd3c8fff4f0c7f,62bbf9c8c5f6bda3b95cb4a5,2022-06-29_09h06.40.988,Colour_Asymmetry_Pilot,2022.1.3,Win32,60.05645307,62bbe60bf3d75ef465d3e404,0,25,25,118,1,fourtwo,,,,,,,,,,,,,,,,,,,,,,,,,,,,,,,,,,,,,,,,,,,,,,,,,,,,,,,,,,,,,,,,,,,,,,,,,,,,,,,,,,,,,,,,,,,,,,,,,,,,,,,,,,,,,,,,,,,,,,,,,,,,,,,,,,,,,,,,,,,,,,,,,,,,,,,,
,,,,,,6131e772aebd3c8fff4f0c7f,62bbf9c8c5f6bda3b95cb4a5,2022-06-29_09h06.40.988,Colour_Asymmetry_Pilot,2022.1.3,Win32,60.05645307,62bbe60bf3d75ef465d3e404,0,26,26,116,1,threeone,,,,,,,,,,,,,,,,,,,,,,,,,,,,,,,,,,,,,,,,,,,,,,,,,,,,,,,,,,,,,,,,,,,,,,,,,,,,,,,,,,,,,,,,,,,,,,,,,,,,,,,,,,,,,,,,,,,,,,,,,,,,,,,,,,,,,,,,,,,,,,,,,,,,,,,,
,,,,,,6131e772aebd3c8fff4f0c7f,62bbf9c8c5f6bda3b95cb4a5,2022-06-29_09h06.40.988,Colour_Asymmetry_Pilot,2022.1.3,Win32,60.05645307,62bbe60bf3d75ef465d3e404,0,27,27,96,1,onetwo,,,,,,,,,,,,,,,,,,,,,,,,,,,,,,,,,,,,,,,,,,,,,,,,,,,,,,,,,,,,,,,,,,,,,,,,,,,,,,,,,,,,,,,,,,,,,,,,,,,,,,,,,,,,,,,,,,,,,,,,,,,,,,,,,,,,,,,,,,,,,,,,,,,,,,,,
,,,,,,6131e772aebd3c8fff4f0c7f,62bbf9c8c5f6bda3b95cb4a5,2022-06-29_09h06.40.988,Colour_Asymmetry_Pilot,2022.1.3,Win32,60.05645307,62bbe60bf3d75ef465d3e404,0,28,28,30,1,fourtwo,,,,,,,,,,,,,,,,,,,,,,,,,,,,,,,,,,,,,,,,,,,,,,,,,,,,,,,,,,,,,,,,,,,,,,,,,,,,,,,,,,,,,,,,,,,,,,,,,,,,,,,,,,,,,,,,,,,,,,,,,,,,,,,,,,,,,,,,,,,,,,,,,,,,,,,,
,,,,,,6131e772aebd3c8fff4f0c7f,62bbf9c8c5f6bda3b95cb4a5,2022-06-29_09h06.40.988,Colour_Asymmetry_Pilot,2022.1.3,Win32,60.05645307,62bbe60bf3d75ef465d3e404,0,29,29,117,1,threefour,,,,,,,,,,,,,,,,,,,,,,,,,,,,,,,,,,,,,,,,,,,,,,,,,,,,,,,,,,,,,,,,,,,,,,,,,,,,,,,,,,,,,,,,,,,,,,,,,,,,,,,,,,,,,,,,,,,,,,,,,,,,,,,,,,,,,,,,,,,,,,,,,,,,,,,,
,,,,,,6131e772aebd3c8fff4f0c7f,62bbf9c8c5f6bda3b95cb4a5,2022-06-29_09h06.40.988,Colour_Asymmetry_Pilot,2022.1.3,Win32,60.05645307,62bbe60bf3d75ef465d3e404,0,30,30,127,1,fourthree,,,,,,,,,,,,,,,,,,,,,,,,,,,,,,,,,,,,,,,,,,,,,,,,,,,,,,,,,,,,,,,,,,,,,,,,,,,,,,,,,,,,,,,,,,,,,,,,,,,,,,,,,,,,,,,,,,,,,,,,,,,,,,,,,,,,,,,,,,,,,,,,,,,,,,,,
,,,,,,6131e772aebd3c8fff4f0c7f,62bbf9c8c5f6bda3b95cb4a5,2022-06-29_09h06.40.988,Colour_Asymmetry_Pilot,2022.1.3,Win32,60.05645307,62bbe60bf3d75ef465d3e404,0,31,31,88,1,onetwo,,,,,,,,,,,,,,,,,,,,,,,,,,,,,,,,,,,,,,,,,,,,,,,,,,,,,,,,,,,,,,,,,,,,,,,,,,,,,,,,,,,,,,,,,,,,,,,,,,,,,,,,,,,,,,,,,,,,,,,,,,,,,,,,,,,,,,,,,,,,,,,,,,,,,,,,
,,,,,,6131e772aebd3c8fff4f0c7f,62bbf9c8c5f6bda3b95cb4a5,2022-06-29_09h06.40.988,Colour_Asymmetry_Pilot,2022.1.3,Win32,60.05645307,62bbe60bf3d75ef465d3e404,0,32,32,155,1,twofour,,,,,,,,,,,,,,,,,,,,,,,,,,,,,,,,,,,,,,,,,,,,,,,,,,,,,,,,,,,,,,,,,,,,,,,,,,,,,,,,,,,,,,,,,,,,,,,,,,,,,,,,,,,,,,,,,,,,,,,,,,,,,,,,,,,,,,,,,,,,,,,,,,,,,,,,
,,,,,,6131e772aebd3c8fff4f0c7f,62bbf9c8c5f6bda3b95cb4a5,2022-06-29_09h06.40.988,Colour_Asymmetry_Pilot,2022.1.3,Win32,60.05645307,62bbe60bf3d75ef465d3e404,0,33,33,137,1,onethree,,,,,,,,,,,,,,,,,,,,,,,,,,,,,,,,,,,,,,,,,,,,,,,,,,,,,,,,,,,,,,,,,,,,,,,,,,,,,,,,,,,,,,,,,,,,,,,,,,,,,,,,,,,,,,,,,,,,,,,,,,,,,,,,,,,,,,,,,,,,,,,,,,,,,,,,
,,,,,,6131e772aebd3c8fff4f0c7f,62bbf9c8c5f6bda3b95cb4a5,2022-06-29_09h06.40.988,Colour_Asymmetry_Pilot,2022.1.3,Win32,60.05645307,62bbe60bf3d75ef465d3e404,0,34,34,123,1,twofour,,,,,,,,,,,,,,,,,,,,,,,,,,,,,,,,,,,,,,,,,,,,,,,,,,,,,,,,,,,,,,,,,,,,,,,,,,,,,,,,,,,,,,,,,,,,,,,,,,,,,,,,,,,,,,,,,,,,,,,,,,,,,,,,,,,,,,,,,,,,,,,,,,,,,,,,
,,,,,,6131e772aebd3c8fff4f0c7f,62bbf9c8c5f6bda3b95cb4a5,2022-06-29_09h06.40.988,Colour_Asymmetry_Pilot,2022.1.3,Win32,60.05645307,62bbe60bf3d75ef465d3e404,0,35,35,71,1,fourthree,,,,,,,,,,,,,,,,,,,,,,,,,,,,,,,,,,,,,,,,,,,,,,,,,,,,,,,,,,,,,,,,,,,,,,,,,,,,,,,,,,,,,,,,,,,,,,,,,,,,,,,,,,,,,,,,,,,,,,,,,,,,,,,,,,,,,,,,,,,,,,,,,,,,,,,,
,,,,,,6131e772aebd3c8fff4f0c7f,62bbf9c8c5f6bda3b95cb4a5,2022-06-29_09h06.40.988,Colour_Asymmetry_Pilot,2022.1.3,Win32,60.05645307,62bbe60bf3d75ef465d3e404,0,36,36,41,1,onethree,,,,,,,,,,,,,,,,,,,,,,,,,,,,,,,,,,,,,,,,,,,,,,,,,,,,,,,,,,,,,,,,,,,,,,,,,,,,,,,,,,,,,,,,,,,,,,,,,,,,,,,,,,,,,,,,,,,,,,,,,,,,,,,,,,,,,,,,,,,,,,,,,,,,,,,,
,,,,,,6131e772aebd3c8fff4f0c7f,62bbf9c8c5f6bda3b95cb4a5,2022-06-29_09h06.40.988,Colour_Asymmetry_Pilot,2022.1.3,Win32,60.05645307,62bbe60bf3d75ef465d3e404,0,37,37,135,1,fourthree,,,,,,,,,,,,,,,,,,,,,,,,,,,,,,,,,,,,,,,,,,,,,,,,,,,,,,,,,,,,,,,,,,,,,,,,,,,,,,,,,,,,,,,,,,,,,,,,,,,,,,,,,,,,,,,,,,,,,,,,,,,,,,,,,,,,,,,,,,,,,,,,,,,,,,,,
,,,,,,6131e772aebd3c8fff4f0c7f,62bbf9c8c5f6bda3b95cb4a5,2022-06-29_09h06.40.988,Colour_Asymmetry_Pilot,2022.1.3,Win32,60.05645307,62bbe60bf3d75ef465d3e404,0,38,38,109,1,threefour,,,,,,,,,,,,,,,,,,,,,,,,,,,,,,,,,,,,,,,,,,,,,,,,,,,,,,,,,,,,,,,,,,,,,,,,,,,,,,,,,,,,,,,,,,,,,,,,,,,,,,,,,,,,,,,,,,,,,,,,,,,,,,,,,,,,,,,,,,,,,,,,,,,,,,,,
,,,,,,6131e772aebd3c8fff4f0c7f,62bbf9c8c5f6bda3b95cb4a5,2022-06-29_09h06.40.988,Colour_Asymmetry_Pilot,2022.1.3,Win32,60.05645307,62bbe60bf3d75ef465d3e404,0,39,39,126,1,fourtwo,,,,,,,,,,,,,,,,,,,,,,,,,,,,,,,,,,,,,,,,,,,,,,,,,,,,,,,,,,,,,,,,,,,,,,,,,,,,,,,,,,,,,,,,,,,,,,,,,,,,,,,,,,,,,,,,,,,,,,,,,,,,,,,,,,,,,,,,,,,,,,,,,,,,,,,,
,,,,,,6131e772aebd3c8fff4f0c7f,62bbf9c8c5f6bda3b95cb4a5,2022-06-29_09h06.40.988,Colour_Asymmetry_Pilot,2022.1.3,Win32,60.05645307,62bbe60bf3d75ef465d3e404,0,40,40,94,1,fourtwo,,,,,,,,,,,,,,,,,,,,,,,,,,,,,,,,,,,,,,,,,,,,,,,,,,,,,,,,,,,,,,,,,,,,,,,,,,,,,,,,,,,,,,,,,,,,,,,,,,,,,,,,,,,,,,,,,,,,,,,,,,,,,,,,,,,,,,,,,,,,,,,,,,,,,,,,
,,,,,,6131e772aebd3c8fff4f0c7f,62bbf9c8c5f6bda3b95cb4a5,2022-06-29_09h06.40.988,Colour_Asymmetry_Pilot,2022.1.3,Win32,60.05645307,62bbe60bf3d75ef465d3e404,0,41,41,133,1,threefour,,,,,,,,,,,,,,,,,,,,,,,,,,,,,,,,,,,,,,,,,,,,,,,,,,,,,,,,,,,,,,,,,,,,,,,,,,,,,,,,,,,,,,,,,,,,,,,,,,,,,,,,,,,,,,,,,,,,,,,,,,,,,,,,,,,,,,,,,,,,,,,,,,,,,,,,
,,,,,,6131e772aebd3c8fff4f0c7f,62bbf9c8c5f6bda3b95cb4a5,2022-06-29_09h06.40.988,Colour_Asymmetry_Pilot,2022.1.3,Win32,60.05645307,62bbe60bf3d75ef465d3e404,0,42,42,132,1,threeone,,,,,,,,,,,,,,,,,,,,,,,,,,,,,,,,,,,,,,,,,,,,,,,,,,,,,,,,,,,,,,,,,,,,,,,,,,,,,,,,,,,,,,,,,,,,,,,,,,,,,,,,,,,,,,,,,,,,,,,,,,,,,,,,,,,,,,,,,,,,,,,,,,,,,,,,
,,,,,,6131e772aebd3c8fff4f0c7f,62bbf9c8c5f6bda3b95cb4a5,2022-06-29_09h06.40.988,Colour_Asymmetry_Pilot,2022.1.3,Win32,60.05645307,62bbe60bf3d75ef465d3e404,0,43,43,120,1,onetwo,,,,,,,,,,,,,,,,,,,,,,,,,,,,,,,,,,,,,,,,,,,,,,,,,,,,,,,,,,,,,,,,,,,,,,,,,,,,,,,,,,,,,,,,,,,,,,,,,,,,,,,,,,,,,,,,,,,,,,,,,,,,,,,,,,,,,,,,,,,,,,,,,,,,,,,,
,,,,,,6131e772aebd3c8fff4f0c7f,62bbf9c8c5f6bda3b95cb4a5,2022-06-29_09h06.40.988,Colour_Asymmetry_Pilot,2022.1.3,Win32,60.05645307,62bbe60bf3d75ef465d3e404,0,44,44,4,1,threeone,,,,,,,,,,,,,,,,,,,,,,,,,,,,,,,,,,,,,,,,,,,,,,,,,,,,,,,,,,,,,,,,,,,,,,,,,,,,,,,,,,,,,,,,,,,,,,,,,,,,,,,,,,,,,,,,,,,,,,,,,,,,,,,,,,,,,,,,,,,,,,,,,,,,,,,,
,,,,,,6131e772aebd3c8fff4f0c7f,62bbf9c8c5f6bda3b95cb4a5,2022-06-29_09h06.40.988,Colour_Asymmetry_Pilot,2022.1.3,Win32,60.05645307,62bbe60bf3d75ef465d3e404,0,45,45,24,1,onetwo,,,,,,,,,,,,,,,,,,,,,,,,,,,,,,,,,,,,,,,,,,,,,,,,,,,,,,,,,,,,,,,,,,,,,,,,,,,,,,,,,,,,,,,,,,,,,,,,,,,,,,,,,,,,,,,,,,,,,,,,,,,,,,,,,,,,,,,,,,,,,,,,,,,,,,,,
,,,,,,6131e772aebd3c8fff4f0c7f,62bbf9c8c5f6bda3b95cb4a5,2022-06-29_09h06.40.988,Colour_Asymmetry_Pilot,2022.1.3,Win32,60.05645307,62bbe60bf3d75ef465d3e404,0,46,46,114,1,twoone,,,,,,,,,,,,,,,,,,,,,,,,,,,,,,,,,,,,,,,,,,,,,,,,,,,,,,,,,,,,,,,,,,,,,,,,,,,,,,,,,,,,,,,,,,,,,,,,,,,,,,,,,,,,,,,,,,,,,,,,,,,,,,,,,,,,,,,,,,,,,,,,,,,,,,,,
,,,,,,6131e772aebd3c8fff4f0c7f,62bbf9c8c5f6bda3b95cb4a5,2022-06-29_09h06.40.988,Colour_Asymmetry_Pilot,2022.1.3,Win32,60.05645307,62bbe60bf3d75ef465d3e404,0,47,47,157,1,threefour,,,,,,,,,,,,,,,,,,,,,,,,,,,,,,,,,,,,,,,,,,,,,,,,,,,,,,,,,,,,,,,,,,,,,,,,,,,,,,,,,,,,,,,,,,,,,,,,,,,,,,,,,,,,,,,,,,,,,,,,,,,,,,,,,,,,,,,,,,,,,,,,,,,,,,,,
,,,,,,6131e772aebd3c8fff4f0c7f,62bbf9c8c5f6bda3b95cb4a5,2022-06-29_09h06.40.988,Colour_Asymmetry_Pilot,2022.1.3,Win32,60.05645307,62bbe60bf3d75ef465d3e404,0,48,48,52,1,threeone,,,,,,,,,,,,,,,,,,,,,,,,,,,,,,,,,,,,,,,,,,,,,,,,,,,,,,,,,,,,,,,,,,,,,,,,,,,,,,,,,,,,,,,,,,,,,,,,,,,,,,,,,,,,,,,,,,,,,,,,,,,,,,,,,,,,,,,,,,,,,,,,,,,,,,,,
,,,,,,6131e772aebd3c8fff4f0c7f,62bbf9c8c5f6bda3b95cb4a5,2022-06-29_09h06.40.988,Colour_Asymmetry_Pilot,2022.1.3,Win32,60.05645307,62bbe60bf3d75ef465d3e404,0,49,49,152,1,onetwo,,,,,,,,,,,,,,,,,,,,,,,,,,,,,,,,,,,,,,,,,,,,,,,,,,,,,,,,,,,,,,,,,,,,,,,,,,,,,,,,,,,,,,,,,,,,,,,,,,,,,,,,,,,,,,,,,,,,,,,,,,,,,,,,,,,,,,,,,,,,,,,,,,,,,,,,
,,,,,,6131e772aebd3c8fff4f0c7f,62bbf9c8c5f6bda3b95cb4a5,2022-06-29_09h06.40.988,Colour_Asymmetry_Pilot,2022.1.3,Win32,60.05645307,62bbe60bf3d75ef465d3e404,0,50,50,56,1,onetwo,,,,,,,,,,,,,,,,,,,,,,,,,,,,,,,,,,,,,,,,,,,,,,,,,,,,,,,,,,,,,,,,,,,,,,,,,,,,,,,,,,,,,,,,,,,,,,,,,,,,,,,,,,,,,,,,,,,,,,,,,,,,,,,,,,,,,,,,,,,,,,,,,,,,,,,,
,,,,,,6131e772aebd3c8fff4f0c7f,62bbf9c8c5f6bda3b95cb4a5,2022-06-29_09h06.40.988,Colour_Asymmetry_Pilot,2022.1.3,Win32,60.05645307,62bbe60bf3d75ef465d3e404,0,51,51,46,1,fourtwo,,,,,,,,,,,,,,,,,,,,,,,,,,,,,,,,,,,,,,,,,,,,,,,,,,,,,,,,,,,,,,,,,,,,,,,,,,,,,,,,,,,,,,,,,,,,,,,,,,,,,,,,,,,,,,,,,,,,,,,,,,,,,,,,,,,,,,,,,,,,,,,,,,,,,,,,
,,,,,,6131e772aebd3c8fff4f0c7f,62bbf9c8c5f6bda3b95cb4a5,2022-06-29_09h06.40.988,Colour_Asymmetry_Pilot,2022.1.3,Win32,60.05645307,62bbe60bf3d75ef465d3e404,0,52,52,142,1,fourtwo,,,,,,,,,,,,,,,,,,,,,,,,,,,,,,,,,,,,,,,,,,,,,,,,,,,,,,,,,,,,,,,,,,,,,,,,,,,,,,,,,,,,,,,,,,,,,,,,,,,,,,,,,,,,,,,,,,,,,,,,,,,,,,,,,,,,,,,,,,,,,,,,,,,,,,,,
,,,,,,6131e772aebd3c8fff4f0c7f,62bbf9c8c5f6bda3b95cb4a5,2022-06-29_09h06.40.988,Colour_Asymmetry_Pilot,2022.1.3,Win32,60.05645307,62bbe60bf3d75ef465d3e404,0,53,53,121,1,onethree,,,,,,,,,,,,,,,,,,,,,,,,,,,,,,,,,,,,,,,,,,,,,,,,,,,,,,,,,,,,,,,,,,,,,,,,,,,,,,,,,,,,,,,,,,,,,,,,,,,,,,,,,,,,,,,,,,,,,,,,,,,,,,,,,,,,,,,,,,,,,,,,,,,,,,,,
,,,,,,6131e772aebd3c8fff4f0c7f,62bbf9c8c5f6bda3b95cb4a5,2022-06-29_09h06.40.988,Colour_Asymmetry_Pilot,2022.1.3,Win32,60.05645307,62bbe60bf3d75ef465d3e404,0,54,54,0,1,onetwo,,,,,,,,,,,,,,,,,,,,,,,,,,,,,,,,,,,,,,,,,,,,,,,,,,,,,,,,,,,,,,,,,,,,,,,,,,,,,,,,,,,,,,,,,,,,,,,,,,,,,,,,,,,,,,,,,,,,,,,,,,,,,,,,,,,,,,,,,,,,,,,,,,,,,,,,
,,,,,,6131e772aebd3c8fff4f0c7f,62bbf9c8c5f6bda3b95cb4a5,2022-06-29_09h06.40.988,Colour_Asymmetry_Pilot,2022.1.3,Win32,60.05645307,62bbe60bf3d75ef465d3e404,0,55,55,57,1,onethree,,,,,,,,,,,,,,,,,,,,,,,,,,,,,,,,,,,,,,,,,,,,,,,,,,,,,,,,,,,,,,,,,,,,,,,,,,,,,,,,,,,,,,,,,,,,,,,,,,,,,,,,,,,,,,,,,,,,,,,,,,,,,,,,,,,,,,,,,,,,,,,,,,,,,,,,
,,,,,,6131e772aebd3c8fff4f0c7f,62bbf9c8c5f6bda3b95cb4a5,2022-06-29_09h06.40.988,Colour_Asymmetry_Pilot,2022.1.3,Win32,60.05645307,62bbe60bf3d75ef465d3e404,0,56,56,144,1,onetwo,,,,,,,,,,,,,,,,,,,,,,,,,,,,,,,,,,,,,,,,,,,,,,,,,,,,,,,,,,,,,,,,,,,,,,,,,,,,,,,,,,,,,,,,,,,,,,,,,,,,,,,,,,,,,,,,,,,,,,,,,,,,,,,,,,,,,,,,,,,,,,,,,,,,,,,,
,,,,,,6131e772aebd3c8fff4f0c7f,62bbf9c8c5f6bda3b95cb4a5,2022-06-29_09h06.40.988,Colour_Asymmetry_Pilot,2022.1.3,Win32,60.05645307,62bbe60bf3d75ef465d3e404,0,57,57,59,1,twofour,,,,,,,,,,,,,,,,,,,,,,,,,,,,,,,,,,,,,,,,,,,,,,,,,,,,,,,,,,,,,,,,,,,,,,,,,,,,,,,,,,,,,,,,,,,,,,,,,,,,,,,,,,,,,,,,,,,,,,,,,,,,,,,,,,,,,,,,,,,,,,,,,,,,,,,,
,,,,,,6131e772aebd3c8fff4f0c7f,62bbf9c8c5f6bda3b95cb4a5,2022-06-29_09h06.40.988,Colour_Asymmetry_Pilot,2022.1.3,Win32,60.05645307,62bbe60bf3d75ef465d3e404,0,58,58,108,1,threeone,,,,,,,,,,,,,,,,,,,,,,,,,,,,,,,,,,,,,,,,,,,,,,,,,,,,,,,,,,,,,,,,,,,,,,,,,,,,,,,,,,,,,,,,,,,,,,,,,,,,,,,,,,,,,,,,,,,,,,,,,,,,,,,,,,,,,,,,,,,,,,,,,,,,,,,,
,,,,,,6131e772aebd3c8fff4f0c7f,62bbf9c8c5f6bda3b95cb4a5,2022-06-29_09h06.40.988,Colour_Asymmetry_Pilot,2022.1.3,Win32,60.05645307,62bbe60bf3d75ef465d3e404,0,59,59,141,1,threefour,,,,,,,,,,,,,,,,,,,,,,,,,,,,,,,,,,,,,,,,,,,,,,,,,,,,,,,,,,,,,,,,,,,,,,,,,,,,,,,,,,,,,,,,,,,,,,,,,,,,,,,,,,,,,,,,,,,,,,,,,,,,,,,,,,,,,,,,,,,,,,,,,,,,,,,,
,,,,,,6131e772aebd3c8fff4f0c7f,62bbf9c8c5f6bda3b95cb4a5,2022-06-29_09h06.40.988,Colour_Asymmetry_Pilot,2022.1.3,Win32,60.05645307,62bbe60bf3d75ef465d3e404,0,60,60,82,1,twoone,,,,,,,,,,,,,,,,,,,,,,,,,,,,,,,,,,,,,,,,,,,,,,,,,,,,,,,,,,,,,,,,,,,,,,,,,,,,,,,,,,,,,,,,,,,,,,,,,,,,,,,,,,,,,,,,,,,,,,,,,,,,,,,,,,,,,,,,,,,,,,,,,,,,,,,,
,,,,,,6131e772aebd3c8fff4f0c7f,62bbf9c8c5f6bda3b95cb4a5,2022-06-29_09h06.40.988,Colour_Asymmetry_Pilot,2022.1.3,Win32,60.05645307,62bbe60bf3d75ef465d3e404,0,61,61,99,1,twofour,,,,,,,,,,,,,,,,,,,,,,,,,,,,,,,,,,,,,,,,,,,,,,,,,,,,,,,,,,,,,,,,,,,,,,,,,,,,,,,,,,,,,,,,,,,,,,,,,,,,,,,,,,,,,,,,,,,,,,,,,,,,,,,,,,,,,,,,,,,,,,,,,,,,,,,,
,,,,,,6131e772aebd3c8fff4f0c7f,62bbf9c8c5f6bda3b95cb4a5,2022-06-29_09h06.40.988,Colour_Asymmetry_Pilot,2022.1.3,Win32,60.05645307,62bbe60bf3d75ef465d3e404,0,62,62,58,1,twoone,,,,,,,,,,,,,,,,,,,,,,,,,,,,,,,,,,,,,,,,,,,,,,,,,,,,,,,,,,,,,,,,,,,,,,,,,,,,,,,,,,,,,,,,,,,,,,,,,,,,,,,,,,,,,,,,,,,,,,,,,,,,,,,,,,,,,,,,,,,,,,,,,,,,,,,,
,,,,,,6131e772aebd3c8fff4f0c7f,62bbf9c8c5f6bda3b95cb4a5,2022-06-29_09h06.40.988,Colour_Asymmetry_Pilot,2022.1.3,Win32,60.05645307,62bbe60bf3d75ef465d3e404,0,63,63,125,1,threefour,,,,,,,,,,,,,,,,,,,,,,,,,,,,,,,,,,,,,,,,,,,,,,,,,,,,,,,,,,,,,,,,,,,,,,,,,,,,,,,,,,,,,,,,,,,,,,,,,,,,,,,,,,,,,,,,,,,,,,,,,,,,,,,,,,,,,,,,,,,,,,,,,,,,,,,,
,,,,,,6131e772aebd3c8fff4f0c7f,62bbf9c8c5f6bda3b95cb4a5,2022-06-29_09h06.40.988,Colour_Asymmetry_Pilot,2022.1.3,Win32,60.05645307,62bbe60bf3d75ef465d3e404,0,64,64,102,1,fourtwo,,,,,,,,,,,,,,,,,,,,,,,,,,,,,,,,,,,,,,,,,,,,,,,,,,,,,,,,,,,,,,,,,,,,,,,,,,,,,,,,,,,,,,,,,,,,,,,,,,,,,,,,,,,,,,,,,,,,,,,,,,,,,,,,,,,,,,,,,,,,,,,,,,,,,,,,
,,,,,,6131e772aebd3c8fff4f0c7f,62bbf9c8c5f6bda3b95cb4a5,2022-06-29_09h06.40.988,Colour_Asymmetry_Pilot,2022.1.3,Win32,60.05645307,62bbe60bf3d75ef465d3e404,0,65,65,25,1,onethree,,,,,,,,,,,,,,,,,,,,,,,,,,,,,,,,,,,,,,,,,,,,,,,,,,,,,,,,,,,,,,,,,,,,,,,,,,,,,,,,,,,,,,,,,,,,,,,,,,,,,,,,,,,,,,,,,,,,,,,,,,,,,,,,,,,,,,,,,,,,,,,,,,,,,,,,
,,,,,,6131e772aebd3c8fff4f0c7f,62bbf9c8c5f6bda3b95cb4a5,2022-06-29_09h06.40.988,Colour_Asymmetry_Pilot,2022.1.3,Win32,60.05645307,62bbe60bf3d75ef465d3e404,0,66,66,3,1,twofour,,,,,,,,,,,,,,,,,,,,,,,,,,,,,,,,,,,,,,,,,,,,,,,,,,,,,,,,,,,,,,,,,,,,,,,,,,,,,,,,,,,,,,,,,,,,,,,,,,,,,,,,,,,,,,,,,,,,,,,,,,,,,,,,,,,,,,,,,,,,,,,,,,,,,,,,
,,,,,,6131e772aebd3c8fff4f0c7f,62bbf9c8c5f6bda3b95cb4a5,2022-06-29_09h06.40.988,Colour_Asymmetry_Pilot,2022.1.3,Win32,60.05645307,62bbe60bf3d75ef465d3e404,0,67,67,67,1,twofour,,,,,,,,,,,,,,,,,,,,,,,,,,,,,,,,,,,,,,,,,,,,,,,,,,,,,,,,,,,,,,,,,,,,,,,,,,,,,,,,,,,,,,,,,,,,,,,,,,,,,,,,,,,,,,,,,,,,,,,,,,,,,,,,,,,,,,,,,,,,,,,,,,,,,,,,
,,,,,,6131e772aebd3c8fff4f0c7f,62bbf9c8c5f6bda3b95cb4a5,2022-06-29_09h06.40.988,Colour_Asymmetry_Pilot,2022.1.3,Win32,60.05645307,62bbe60bf3d75ef465d3e404,0,68,68,2,1,twoone,,,,,,,,,,,,,,,,,,,,,,,,,,,,,,,,,,,,,,,,,,,,,,,,,,,,,,,,,,,,,,,,,,,,,,,,,,,,,,,,,,,,,,,,,,,,,,,,,,,,,,,,,,,,,,,,,,,,,,,,,,,,,,,,,,,,,,,,,,,,,,,,,,,,,,,,
,,,,,,6131e772aebd3c8fff4f0c7f,62bbf9c8c5f6bda3b95cb4a5,2022-06-29_09h06.40.988,Colour_Asymmetry_Pilot,2022.1.3,Win32,60.05645307,62bbe60bf3d75ef465d3e404,0,69,69,113,1,onethree,,,,,,,,,,,,,,,,,,,,,,,,,,,,,,,,,,,,,,,,,,,,,,,,,,,,,,,,,,,,,,,,,,,,,,,,,,,,,,,,,,,,,,,,,,,,,,,,,,,,,,,,,,,,,,,,,,,,,,,,,,,,,,,,,,,,,,,,,,,,,,,,,,,,,,,,
,,,,,,6131e772aebd3c8fff4f0c7f,62bbf9c8c5f6bda3b95cb4a5,2022-06-29_09h06.40.988,Colour_Asymmetry_Pilot,2022.1.3,Win32,60.05645307,62bbe60bf3d75ef465d3e404,0,70,70,95,1,fourthree,,,,,,,,,,,,,,,,,,,,,,,,,,,,,,,,,,,,,,,,,,,,,,,,,,,,,,,,,,,,,,,,,,,,,,,,,,,,,,,,,,,,,,,,,,,,,,,,,,,,,,,,,,,,,,,,,,,,,,,,,,,,,,,,,,,,,,,,,,,,,,,,,,,,,,,,
,,,,,,6131e772aebd3c8fff4f0c7f,62bbf9c8c5f6bda3b95cb4a5,2022-06-29_09h06.40.988,Colour_Asymmetry_Pilot,2022.1.3,Win32,60.05645307,62bbe60bf3d75ef465d3e404,0,71,71,23,1,fourthree,,,,,,,,,,,,,,,,,,,,,,,,,,,,,,,,,,,,,,,,,,,,,,,,,,,,,,,,,,,,,,,,,,,,,,,,,,,,,,,,,,,,,,,,,,,,,,,,,,,,,,,,,,,,,,,,,,,,,,,,,,,,,,,,,,,,,,,,,,,,,,,,,,,,,,,,
,,,,,,6131e772aebd3c8fff4f0c7f,62bbf9c8c5f6bda3b95cb4a5,2022-06-29_09h06.40.988,Colour_Asymmetry_Pilot,2022.1.3,Win32,60.05645307,62bbe60bf3d75ef465d3e404,0,72,72,129,1,onethree,,,,,,,,,,,,,,,,,,,,,,,,,,,,,,,,,,,,,,,,,,,,,,,,,,,,,,,,,,,,,,,,,,,,,,,,,,,,,,,,,,,,,,,,,,,,,,,,,,,,,,,,,,,,,,,,,,,,,,,,,,,,,,,,,,,,,,,,,,,,,,,,,,,,,,,,
,,,,,,6131e772aebd3c8fff4f0c7f,62bbf9c8c5f6bda3b95cb4a5,2022-06-29_09h06.40.988,Colour_Asymmetry_Pilot,2022.1.3,Win32,60.05645307,62bbe60bf3d75ef465d3e404,0,73,73,93,1,threefour,,,,,,,,,,,,,,,,,,,,,,,,,,,,,,,,,,,,,,,,,,,,,,,,,,,,,,,,,,,,,,,,,,,,,,,,,,,,,,,,,,,,,,,,,,,,,,,,,,,,,,,,,,,,,,,,,,,,,,,,,,,,,,,,,,,,,,,,,,,,,,,,,,,,,,,,
,,,,,,6131e772aebd3c8fff4f0c7f,62bbf9c8c5f6bda3b95cb4a5,2022-06-29_09h06.40.988,Colour_Asymmetry_Pilot,2022.1.3,Win32,60.05645307,62bbe60bf3d75ef465d3e404,0,74,74,154,1,twoone,,,,,,,,,,,,,,,,,,,,,,,,,,,,,,,,,,,,,,,,,,,,,,,,,,,,,,,,,,,,,,,,,,,,,,,,,,,,,,,,,,,,,,,,,,,,,,,,,,,,,,,,,,,,,,,,,,,,,,,,,,,,,,,,,,,,,,,,,,,,,,,,,,,,,,,,
,,,,,,6131e772aebd3c8fff4f0c7f,62bbf9c8c5f6bda3b95cb4a5,2022-06-29_09h06.40.988,Colour_Asymmetry_Pilot,2022.1.3,Win32,60.05645307,62bbe60bf3d75ef465d3e404,0,75,75,85,1,threefour,,,,,,,,,,,,,,,,,,,,,,,,,,,,,,,,,,,,,,,,,,,,,,,,,,,,,,,,,,,,,,,,,,,,,,,,,,,,,,,,,,,,,,,,,,,,,,,,,,,,,,,,,,,,,,,,,,,,,,,,,,,,,,,,,,,,,,,,,,,,,,,,,,,,,,,,
,,,,,,6131e772aebd3c8fff4f0c7f,62bbf9c8c5f6bda3b95cb4a5,2022-06-29_09h06.40.988,Colour_Asymmetry_Pilot,2022.1.3,Win32,60.05645307,62bbe60bf3d75ef465d3e404,0,76,76,61,1,threefour,,,,,,,,,,,,,,,,,,,,,,,,,,,,,,,,,,,,,,,,,,,,,,,,,,,,,,,,,,,,,,,,,,,,,,,,,,,,,,,,,,,,,,,,,,,,,,,,,,,,,,,,,,,,,,,,,,,,,,,,,,,,,,,,,,,,,,,,,,,,,,,,,,,,,,,,
,,,,,,6131e772aebd3c8fff4f0c7f,62bbf9c8c5f6bda3b95cb4a5,2022-06-29_09h06.40.988,Colour_Asymmetry_Pilot,2022.1.3,Win32,60.05645307,62bbe60bf3d75ef465d3e404,0,77,77,136,1,onetwo,,,,,,,,,,,,,,,,,,,,,,,,,,,,,,,,,,,,,,,,,,,,,,,,,,,,,,,,,,,,,,,,,,,,,,,,,,,,,,,,,,,,,,,,,,,,,,,,,,,,,,,,,,,,,,,,,,,,,,,,,,,,,,,,,,,,,,,,,,,,,,,,,,,,,,,,
,,,,,,6131e772aebd3c8fff4f0c7f,62bbf9c8c5f6bda3b95cb4a5,2022-06-29_09h06.40.988,Colour_Asymmetry_Pilot,2022.1.3,Win32,60.05645307,62bbe60bf3d75ef465d3e404,0,78,78,84,1,threeone,,,,,,,,,,,,,,,,,,,,,,,,,,,,,,,,,,,,,,,,,,,,,,,,,,,,,,,,,,,,,,,,,,,,,,,,,,,,,,,,,,,,,,,,,,,,,,,,,,,,,,,,,,,,,,,,,,,,,,,,,,,,,,,,,,,,,,,,,,,,,,,,,,,,,,,,
,,,,,,6131e772aebd3c8fff4f0c7f,62bbf9c8c5f6bda3b95cb4a5,2022-06-29_09h06.40.988,Colour_Asymmetry_Pilot,2022.1.3,Win32,60.05645307,62bbe60bf3d75ef465d3e404,0,79,79,26,1,twoone,,,,,,,,,,,,,,,,,,,,,,,,,,,,,,,,,,,,,,,,,,,,,,,,,,,,,,,,,,,,,,,,,,,,,,,,,,,,,,,,,,,,,,,,,,,,,,,,,,,,,,,,,,,,,,,,,,,,,,,,,,,,,,,,,,,,,,,,,,,,,,,,,,,,,,,,
,,,,,,6131e772aebd3c8fff4f0c7f,62bbf9c8c5f6bda3b95cb4a5,2022-06-29_09h06.40.988,Colour_Asymmetry_Pilot,2022.1.3,Win32,60.05645307,62bbe60bf3d75ef465d3e404,0,80,80,62,1,fourtwo,,,,,,,,,,,,,,,,,,,,,,,,,,,,,,,,,,,,,,,,,,,,,,,,,,,,,,,,,,,,,,,,,,,,,,,,,,,,,,,,,,,,,,,,,,,,,,,,,,,,,,,,,,,,,,,,,,,,,,,,,,,,,,,,,,,,,,,,,,,,,,,,,,,,,,,,
,,,,,,6131e772aebd3c8fff4f0c7f,62bbf9c8c5f6bda3b95cb4a5,2022-06-29_09h06.40.988,Colour_Asymmetry_Pilot,2022.1.3,Win32,60.05645307,62bbe60bf3d75ef465d3e404,0,81,81,18,1,twoone,,,,,,,,,,,,,,,,,,,,,,,,,,,,,,,,,,,,,,,,,,,,,,,,,,,,,,,,,,,,,,,,,,,,,,,,,,,,,,,,,,,,,,,,,,,,,,,,,,,,,,,,,,,,,,,,,,,,,,,,,,,,,,,,,,,,,,,,,,,,,,,,,,,,,,,,
,,,,,,6131e772aebd3c8fff4f0c7f,62bbf9c8c5f6bda3b95cb4a5,2022-06-29_09h06.40.988,Colour_Asymmetry_Pilot,2022.1.3,Win32,60.05645307,62bbe60bf3d75ef465d3e404,0,82,82,45,1,threefour,,,,,,,,,,,,,,,,,,,,,,,,,,,,,,,,,,,,,,,,,,,,,,,,,,,,,,,,,,,,,,,,,,,,,,,,,,,,,,,,,,,,,,,,,,,,,,,,,,,,,,,,,,,,,,,,,,,,,,,,,,,,,,,,,,,,,,,,,,,,,,,,,,,,,,,,
,,,,,,6131e772aebd3c8fff4f0c7f,62bbf9c8c5f6bda3b95cb4a5,2022-06-29_09h06.40.988,Colour_Asymmetry_Pilot,2022.1.3,Win32,60.05645307,62bbe60bf3d75ef465d3e404,0,83,83,6,1,fourtwo,,,,,,,,,,,,,,,,,,,,,,,,,,,,,,,,,,,,,,,,,,,,,,,,,,,,,,,,,,,,,,,,,,,,,,,,,,,,,,,,,,,,,,,,,,,,,,,,,,,,,,,,,,,,,,,,,,,,,,,,,,,,,,,,,,,,,,,,,,,,,,,,,,,,,,,,
,,,,,,6131e772aebd3c8fff4f0c7f,62bbf9c8c5f6bda3b95cb4a5,2022-06-29_09h06.40.988,Colour_Asymmetry_Pilot,2022.1.3,Win32,60.05645307,62bbe60bf3d75ef465d3e404,0,84,84,161,1,onethree,,,,,,,,,,,,,,,,,,,,,,,,,,,,,,,,,,,,,,,,,,,,,,,,,,,,,,,,,,,,,,,,,,,,,,,,,,,,,,,,,,,,,,,,,,,,,,,,,,,,,,,,,,,,,,,,,,,,,,,,,,,,,,,,,,,,,,,,,,,,,,,,,,,,,,,,
,,,,,,6131e772aebd3c8fff4f0c7f,62bbf9c8c5f6bda3b95cb4a5,2022-06-29_09h06.40.988,Colour_Asymmetry_Pilot,2022.1.3,Win32,60.05645307,62bbe60bf3d75ef465d3e404,0,85,85,74,1,twoone,,,,,,,,,,,,,,,,,,,,,,,,,,,,,,,,,,,,,,,,,,,,,,,,,,,,,,,,,,,,,,,,,,,,,,,,,,,,,,,,,,,,,,,,,,,,,,,,,,,,,,,,,,,,,,,,,,,,,,,,,,,,,,,,,,,,,,,,,,,,,,,,,,,,,,,,
,,,,,,6131e772aebd3c8fff4f0c7f,62bbf9c8c5f6bda3b95cb4a5,2022-06-29_09h06.40.988,Colour_Asymmetry_Pilot,2022.1.3,Win32,60.05645307,62bbe60bf3d75ef465d3e404,0,86,86,119,1,fourthree,,,,,,,,,,,,,,,,,,,,,,,,,,,,,,,,,,,,,,,,,,,,,,,,,,,,,,,,,,,,,,,,,,,,,,,,,,,,,,,,,,,,,,,,,,,,,,,,,,,,,,,,,,,,,,,,,,,,,,,,,,,,,,,,,,,,,,,,,,,,,,,,,,,,,,,,
,,,,,,6131e772aebd3c8fff4f0c7f,62bbf9c8c5f6bda3b95cb4a5,2022-06-29_09h06.40.988,Colour_Asymmetry_Pilot,2022.1.3,Win32,60.05645307,62bbe60bf3d75ef465d3e404,0,87,87,51,1,twofour,,,,,,,,,,,,,,,,,,,,,,,,,,,,,,,,,,,,,,,,,,,,,,,,,,,,,,,,,,,,,,,,,,,,,,,,,,,,,,,,,,,,,,,,,,,,,,,,,,,,,,,,,,,,,,,,,,,,,,,,,,,,,,,,,,,,,,,,,,,,,,,,,,,,,,,,
,,,,,,6131e772aebd3c8fff4f0c7f,62bbf9c8c5f6bda3b95cb4a5,2022-06-29_09h06.40.988,Colour_Asymmetry_Pilot,2022.1.3,Win32,60.05645307,62bbe60bf3d75ef465d3e404,0,88,88,77,1,threefour,,,,,,,,,,,,,,,,,,,,,,,,,,,,,,,,,,,,,,,,,,,,,,,,,,,,,,,,,,,,,,,,,,,,,,,,,,,,,,,,,,,,,,,,,,,,,,,,,,,,,,,,,,,,,,,,,,,,,,,,,,,,,,,,,,,,,,,,,,,,,,,,,,,,,,,,
,,,,,,6131e772aebd3c8fff4f0c7f,62bbf9c8c5f6bda3b95cb4a5,2022-06-29_09h06.40.988,Colour_Asymmetry_Pilot,2022.1.3,Win32,60.05645307,62bbe60bf3d75ef465d3e404,0,89,89,28,1,threeone,,,,,,,,,,,,,,,,,,,,,,,,,,,,,,,,,,,,,,,,,,,,,,,,,,,,,,,,,,,,,,,,,,,,,,,,,,,,,,,,,,,,,,,,,,,,,,,,,,,,,,,,,,,,,,,,,,,,,,,,,,,,,,,,,,,,,,,,,,,,,,,,,,,,,,,,
,,,,,,6131e772aebd3c8fff4f0c7f,62bbf9c8c5f6bda3b95cb4a5,2022-06-29_09h06.40.988,Colour_Asymmetry_Pilot,2022.1.3,Win32,60.05645307,62bbe60bf3d75ef465d3e404,0,90,90,33,1,onethree,,,,,,,,,,,,,,,,,,,,,,,,,,,,,,,,,,,,,,,,,,,,,,,,,,,,,,,,,,,,,,,,,,,,,,,,,,,,,,,,,,,,,,,,,,,,,,,,,,,,,,,,,,,,,,,,,,,,,,,,,,,,,,,,,,,,,,,,,,,,,,,,,,,,,,,,
,,,,,,6131e772aebd3c8fff4f0c7f,62bbf9c8c5f6bda3b95cb4a5,2022-06-29_09h06.40.988,Colour_Asymmetry_Pilot,2022.1.3,Win32,60.05645307,62bbe60bf3d75ef465d3e404,0,91,91,5,1,threefour,,,,,,,,,,,,,,,,,,,,,,,,,,,,,,,,,,,,,,,,,,,,,,,,,,,,,,,,,,,,,,,,,,,,,,,,,,,,,,,,,,,,,,,,,,,,,,,,,,,,,,,,,,,,,,,,,,,,,,,,,,,,,,,,,,,,,,,,,,,,,,,,,,,,,,,,
,,,,,,6131e772aebd3c8fff4f0c7f,62bbf9c8c5f6bda3b95cb4a5,2022-06-29_09h06.40.988,Colour_Asymmetry_Pilot,2022.1.3,Win32,60.05645307,62bbe60bf3d75ef465d3e404,0,92,92,79,1,fourthree,,,,,,,,,,,,,,,,,,,,,,,,,,,,,,,,,,,,,,,,,,,,,,,,,,,,,,,,,,,,,,,,,,,,,,,,,,,,,,,,,,,,,,,,,,,,,,,,,,,,,,,,,,,,,,,,,,,,,,,,,,,,,,,,,,,,,,,,,,,,,,,,,,,,,,,,
,,,,,,6131e772aebd3c8fff4f0c7f,62bbf9c8c5f6bda3b95cb4a5,2022-06-29_09h06.40.988,Colour_Asymmetry_Pilot,2022.1.3,Win32,60.05645307,62bbe60bf3d75ef465d3e404,0,93,93,70,1,fourtwo,,,,,,,,,,,,,,,,,,,,,,,,,,,,,,,,,,,,,,,,,,,,,,,,,,,,,,,,,,,,,,,,,,,,,,,,,,,,,,,,,,,,,,,,,,,,,,,,,,,,,,,,,,,,,,,,,,,,,,,,,,,,,,,,,,,,,,,,,,,,,,,,,,,,,,,,
,,,,,,6131e772aebd3c8fff4f0c7f,62bbf9c8c5f6bda3b95cb4a5,2022-06-29_09h06.40.988,Colour_Asymmetry_Pilot,2022.1.3,Win32,60.05645307,62bbe60bf3d75ef465d3e404,0,94,94,21,1,threefour,,,,,,,,,,,,,,,,,,,,,,,,,,,,,,,,,,,,,,,,,,,,,,,,,,,,,,,,,,,,,,,,,,,,,,,,,,,,,,,,,,,,,,,,,,,,,,,,,,,,,,,,,,,,,,,,,,,,,,,,,,,,,,,,,,,,,,,,,,,,,,,,,,,,,,,,
,,,,,,6131e772aebd3c8fff4f0c7f,62bbf9c8c5f6bda3b95cb4a5,2022-06-29_09h06.40.988,Colour_Asymmetry_Pilot,2022.1.3,Win32,60.05645307,62bbe60bf3d75ef465d3e404,0,95,95,87,1,fourthree,,,,,,,,,,,,,,,,,,,,,,,,,,,,,,,,,,,,,,,,,,,,,,,,,,,,,,,,,,,,,,,,,,,,,,,,,,,,,,,,,,,,,,,,,,,,,,,,,,,,,,,,,,,,,,,,,,,,,,,,,,,,,,,,,,,,,,,,,,,,,,,,,,,,,,,,
,,,,,,6131e772aebd3c8fff4f0c7f,62bbf9c8c5f6bda3b95cb4a5,2022-06-29_09h06.40.988,Colour_Asymmetry_Pilot,2022.1.3,Win32,60.05645307,62bbe60bf3d75ef465d3e404,0,96,96,78,1,fourtwo,,,,,,,,,,,,,,,,,,,,,,,,,,,,,,,,,,,,,,,,,,,,,,,,,,,,,,,,,,,,,,,,,,,,,,,,,,,,,,,,,,,,,,,,,,,,,,,,,,,,,,,,,,,,,,,,,,,,,,,,,,,,,,,,,,,,,,,,,,,,,,,,,,,,,,,,
,,,,,,6131e772aebd3c8fff4f0c7f,62bbf9c8c5f6bda3b95cb4a5,2022-06-29_09h06.40.988,Colour_Asymmetry_Pilot,2022.1.3,Win32,60.05645307,62bbe60bf3d75ef465d3e404,0,97,97,151,1,fourthree,,,,,,,,,,,,,,,,,,,,,,,,,,,,,,,,,,,,,,,,,,,,,,,,,,,,,,,,,,,,,,,,,,,,,,,,,,,,,,,,,,,,,,,,,,,,,,,,,,,,,,,,,,,,,,,,,,,,,,,,,,,,,,,,,,,,,,,,,,,,,,,,,,,,,,,,
,,,,,,6131e772aebd3c8fff4f0c7f,62bbf9c8c5f6bda3b95cb4a5,2022-06-29_09h06.40.988,Colour_Asymmetry_Pilot,2022.1.3,Win32,60.05645307,62bbe60bf3d75ef465d3e404,0,98,98,156,1,threeone,,,,,,,,,,,,,,,,,,,,,,,,,,,,,,,,,,,,,,,,,,,,,,,,,,,,,,,,,,,,,,,,,,,,,,,,,,,,,,,,,,,,,,,,,,,,,,,,,,,,,,,,,,,,,,,,,,,,,,,,,,,,,,,,,,,,,,,,,,,,,,,,,,,,,,,,
,,,,,,6131e772aebd3c8fff4f0c7f,62bbf9c8c5f6bda3b95cb4a5,2022-06-29_09h06.40.988,Colour_Asymmetry_Pilot,2022.1.3,Win32,60.05645307,62bbe60bf3d75ef465d3e404,0,99,99,8,1,onetwo,,,,,,,,,,,,,,,,,,,,,,,,,,,,,,,,,,,,,,,,,,,,,,,,,,,,,,,,,,,,,,,,,,,,,,,,,,,,,,,,,,,,,,,,,,,,,,,,,,,,,,,,,,,,,,,,,,,,,,,,,,,,,,,,,,,,,,,,,,,,,,,,,,,,,,,,
,,,,,,6131e772aebd3c8fff4f0c7f,62bbf9c8c5f6bda3b95cb4a5,2022-06-29_09h06.40.988,Colour_Asymmetry_Pilot,2022.1.3,Win32,60.05645307,62bbe60bf3d75ef465d3e404,0,100,100,50,1,twoone,,,,,,,,,,,,,,,,,,,,,,,,,,,,,,,,,,,,,,,,,,,,,,,,,,,,,,,,,,,,,,,,,,,,,,,,,,,,,,,,,,,,,,,,,,,,,,,,,,,,,,,,,,,,,,,,,,,,,,,,,,,,,,,,,,,,,,,,,,,,,,,,,,,,,,,,
,,,,,,6131e772aebd3c8fff4f0c7f,62bbf9c8c5f6bda3b95cb4a5,2022-06-29_09h06.40.988,Colour_Asymmetry_Pilot,2022.1.3,Win32,60.05645307,62bbe60bf3d75ef465d3e404,0,101,101,100,1,threeone,,,,,,,,,,,,,,,,,,,,,,,,,,,,,,,,,,,,,,,,,,,,,,,,,,,,,,,,,,,,,,,,,,,,,,,,,,,,,,,,,,,,,,,,,,,,,,,,,,,,,,,,,,,,,,,,,,,,,,,,,,,,,,,,,,,,,,,,,,,,,,,,,,,,,,,,
,,,,,,6131e772aebd3c8fff4f0c7f,62bbf9c8c5f6bda3b95cb4a5,2022-06-29_09h06.40.988,Colour_Asymmetry_Pilot,2022.1.3,Win32,60.05645307,62bbe60bf3d75ef465d3e404,0,102,102,48,1,onetwo,,,,,,,,,,,,,,,,,,,,,,,,,,,,,,,,,,,,,,,,,,,,,,,,,,,,,,,,,,,,,,,,,,,,,,,,,,,,,,,,,,,,,,,,,,,,,,,,,,,,,,,,,,,,,,,,,,,,,,,,,,,,,,,,,,,,,,,,,,,,,,,,,,,,,,,,
,,,,,,6131e772aebd3c8fff4f0c7f,62bbf9c8c5f6bda3b95cb4a5,2022-06-29_09h06.40.988,Colour_Asymmetry_Pilot,2022.1.3,Win32,60.05645307,62bbe60bf3d75ef465d3e404,0,103,103,55,1,fourthree,,,,,,,,,,,,,,,,,,,,,,,,,,,,,,,,,,,,,,,,,,,,,,,,,,,,,,,,,,,,,,,,,,,,,,,,,,,,,,,,,,,,,,,,,,,,,,,,,,,,,,,,,,,,,,,,,,,,,,,,,,,,,,,,,,,,,,,,,,,,,,,,,,,,,,,,
,,,,,,6131e772aebd3c8fff4f0c7f,62bbf9c8c5f6bda3b95cb4a5,2022-06-29_09h06.40.988,Colour_Asymmetry_Pilot,2022.1.3,Win32,60.05645307,62bbe60bf3d75ef465d3e404,0,104,104,107,1,twofour,,,,,,,,,,,,,,,,,,,,,,,,,,,,,,,,,,,,,,,,,,,,,,,,,,,,,,,,,,,,,,,,,,,,,,,,,,,,,,,,,,,,,,,,,,,,,,,,,,,,,,,,,,,,,,,,,,,,,,,,,,,,,,,,,,,,,,,,,,,,,,,,,,,,,,,,
,,,,,,6131e772aebd3c8fff4f0c7f,62bbf9c8c5f6bda3b95cb4a5,2022-06-29_09h06.40.988,Colour_Asymmetry_Pilot,2022.1.3,Win32,60.05645307,62bbe60bf3d75ef465d3e404,0,105,105,104,1,onetwo,,,,,,,,,,,,,,,,,,,,,,,,,,,,,,,,,,,,,,,,,,,,,,,,,,,,,,,,,,,,,,,,,,,,,,,,,,,,,,,,,,,,,,,,,,,,,,,,,,,,,,,,,,,,,,,,,,,,,,,,,,,,,,,,,,,,,,,,,,,,,,,,,,,,,,,,
,,,,,,6131e772aebd3c8fff4f0c7f,62bbf9c8c5f6bda3b95cb4a5,2022-06-29_09h06.40.988,Colour_Asymmetry_Pilot,2022.1.3,Win32,60.05645307,62bbe60bf3d75ef465d3e404,0,106,106,68,1,threeone,,,,,,,,,,,,,,,,,,,,,,,,,,,,,,,,,,,,,,,,,,,,,,,,,,,,,,,,,,,,,,,,,,,,,,,,,,,,,,,,,,,,,,,,,,,,,,,,,,,,,,,,,,,,,,,,,,,,,,,,,,,,,,,,,,,,,,,,,,,,,,,,,,,,,,,,
,,,,,,6131e772aebd3c8fff4f0c7f,62bbf9c8c5f6bda3b95cb4a5,2022-06-29_09h06.40.988,Colour_Asymmetry_Pilot,2022.1.3,Win32,60.05645307,62bbe60bf3d75ef465d3e404,0,107,107,12,1,threeone,,,,,,,,,,,,,,,,,,,,,,,,,,,,,,,,,,,,,,,,,,,,,,,,,,,,,,,,,,,,,,,,,,,,,,,,,,,,,,,,,,,,,,,,,,,,,,,,,,,,,,,,,,,,,,,,,,,,,,,,,,,,,,,,,,,,,,,,,,,,,,,,,,,,,,,,
,,,,,,6131e772aebd3c8fff4f0c7f,62bbf9c8c5f6bda3b95cb4a5,2022-06-29_09h06.40.988,Colour_Asymmetry_Pilot,2022.1.3,Win32,60.05645307,62bbe60bf3d75ef465d3e404,0,108,108,38,1,fourtwo,,,,,,,,,,,,,,,,,,,,,,,,,,,,,,,,,,,,,,,,,,,,,,,,,,,,,,,,,,,,,,,,,,,,,,,,,,,,,,,,,,,,,,,,,,,,,,,,,,,,,,,,,,,,,,,,,,,,,,,,,,,,,,,,,,,,,,,,,,,,,,,,,,,,,,,,
,,,,,,6131e772aebd3c8fff4f0c7f,62bbf9c8c5f6bda3b95cb4a5,2022-06-29_09h06.40.988,Colour_Asymmetry_Pilot,2022.1.3,Win32,60.05645307,62bbe60bf3d75ef465d3e404,0,109,109,15,1,fourthree,,,,,,,,,,,,,,,,,,,,,,,,,,,,,,,,,,,,,,,,,,,,,,,,,,,,,,,,,,,,,,,,,,,,,,,,,,,,,,,,,,,,,,,,,,,,,,,,,,,,,,,,,,,,,,,,,,,,,,,,,,,,,,,,,,,,,,,,,,,,,,,,,,,,,,,,
,,,,,,6131e772aebd3c8fff4f0c7f,62bbf9c8c5f6bda3b95cb4a5,2022-06-29_09h06.40.988,Colour_Asymmetry_Pilot,2022.1.3,Win32,60.05645307,62bbe60bf3d75ef465d3e404,0,110,110,124,1,threeone,,,,,,,,,,,,,,,,,,,,,,,,,,,,,,,,,,,,,,,,,,,,,,,,,,,,,,,,,,,,,,,,,,,,,,,,,,,,,,,,,,,,,,,,,,,,,,,,,,,,,,,,,,,,,,,,,,,,,,,,,,,,,,,,,,,,,,,,,,,,,,,,,,,,,,,,
,,,,,,6131e772aebd3c8fff4f0c7f,62bbf9c8c5f6bda3b95cb4a5,2022-06-29_09h06.40.988,Colour_Asymmetry_Pilot,2022.1.3,Win32,60.05645307,62bbe60bf3d75ef465d3e404,0,111,111,103,1,fourthree,,,,,,,,,,,,,,,,,,,,,,,,,,,,,,,,,,,,,,,,,,,,,,,,,,,,,,,,,,,,,,,,,,,,,,,,,,,,,,,,,,,,,,,,,,,,,,,,,,,,,,,,,,,,,,,,,,,,,,,,,,,,,,,,,,,,,,,,,,,,,,,,,,,,,,,,
,,,,,,6131e772aebd3c8fff4f0c7f,62bbf9c8c5f6bda3b95cb4a5,2022-06-29_09h06.40.988,Colour_Asymmetry_Pilot,2022.1.3,Win32,60.05645307,62bbe60bf3d75ef465d3e404,0,112,112,54,1,fourtwo,,,,,,,,,,,,,,,,,,,,,,,,,,,,,,,,,,,,,,,,,,,,,,,,,,,,,,,,,,,,,,,,,,,,,,,,,,,,,,,,,,,,,,,,,,,,,,,,,,,,,,,,,,,,,,,,,,,,,,,,,,,,,,,,,,,,,,,,,,,,,,,,,,,,,,,,
,,,,,,6131e772aebd3c8fff4f0c7f,62bbf9c8c5f6bda3b95cb4a5,2022-06-29_09h06.40.988,Colour_Asymmetry_Pilot,2022.1.3,Win32,60.05645307,62bbe60bf3d75ef465d3e404,0,113,113,145,1,onethree,,,,,,,,,,,,,,,,,,,,,,,,,,,,,,,,,,,,,,,,,,,,,,,,,,,,,,,,,,,,,,,,,,,,,,,,,,,,,,,,,,,,,,,,,,,,,,,,,,,,,,,,,,,,,,,,,,,,,,,,,,,,,,,,,,,,,,,,,,,,,,,,,,,,,,,,
,,,,,,6131e772aebd3c8fff4f0c7f,62bbf9c8c5f6bda3b95cb4a5,2022-06-29_09h06.40.988,Colour_Asymmetry_Pilot,2022.1.3,Win32,60.05645307,62bbe60bf3d75ef465d3e404,0,114,114,31,1,fourthree,,,,,,,,,,,,,,,,,,,,,,,,,,,,,,,,,,,,,,,,,,,,,,,,,,,,,,,,,,,,,,,,,,,,,,,,,,,,,,,,,,,,,,,,,,,,,,,,,,,,,,,,,,,,,,,,,,,,,,,,,,,,,,,,,,,,,,,,,,,,,,,,,,,,,,,,
,,,,,,6131e772aebd3c8fff4f0c7f,62bbf9c8c5f6bda3b95cb4a5,2022-06-29_09h06.40.988,Colour_Asymmetry_Pilot,2022.1.3,Win32,60.05645307,62bbe60bf3d75ef465d3e404,0,115,115,76,1,threeone,,,,,,,,,,,,,,,,,,,,,,,,,,,,,,,,,,,,,,,,,,,,,,,,,,,,,,,,,,,,,,,,,,,,,,,,,,,,,,,,,,,,,,,,,,,,,,,,,,,,,,,,,,,,,,,,,,,,,,,,,,,,,,,,,,,,,,,,,,,,,,,,,,,,,,,,
,,,,,,6131e772aebd3c8fff4f0c7f,62bbf9c8c5f6bda3b95cb4a5,2022-06-29_09h06.40.988,Colour_Asymmetry_Pilot,2022.1.3,Win32,60.05645307,62bbe60bf3d75ef465d3e404,0,116,116,47,1,fourthree,,,,,,,,,,,,,,,,,,,,,,,,,,,,,,,,,,,,,,,,,,,,,,,,,,,,,,,,,,,,,,,,,,,,,,,,,,,,,,,,,,,,,,,,,,,,,,,,,,,,,,,,,,,,,,,,,,,,,,,,,,,,,,,,,,,,,,,,,,,,,,,,,,,,,,,,
,,,,,,6131e772aebd3c8fff4f0c7f,62bbf9c8c5f6bda3b95cb4a5,2022-06-29_09h06.40.988,Colour_Asymmetry_Pilot,2022.1.3,Win32,60.05645307,62bbe60bf3d75ef465d3e404,0,117,117,158,1,fourtwo,,,,,,,,,,,,,,,,,,,,,,,,,,,,,,,,,,,,,,,,,,,,,,,,,,,,,,,,,,,,,,,,,,,,,,,,,,,,,,,,,,,,,,,,,,,,,,,,,,,,,,,,,,,,,,,,,,,,,,,,,,,,,,,,,,,,,,,,,,,,,,,,,,,,,,,,
,,,,,,6131e772aebd3c8fff4f0c7f,62bbf9c8c5f6bda3b95cb4a5,2022-06-29_09h06.40.988,Colour_Asymmetry_Pilot,2022.1.3,Win32,60.05645307,62bbe60bf3d75ef465d3e404,0,118,118,27,1,twofour,,,,,,,,,,,,,,,,,,,,,,,,,,,,,,,,,,,,,,,,,,,,,,,,,,,,,,,,,,,,,,,,,,,,,,,,,,,,,,,,,,,,,,,,,,,,,,,,,,,,,,,,,,,,,,,,,,,,,,,,,,,,,,,,,,,,,,,,,,,,,,,,,,,,,,,,
,,,,,,6131e772aebd3c8fff4f0c7f,62bbf9c8c5f6bda3b95cb4a5,2022-06-29_09h06.40.988,Colour_Asymmetry_Pilot,2022.1.3,Win32,60.05645307,62bbe60bf3d75ef465d3e404,0,119,119,83,1,twofour,,,,,,,,,,,,,,,,,,,,,,,,,,,,,,,,,,,,,,,,,,,,,,,,,,,,,,,,,,,,,,,,,,,,,,,,,,,,,,,,,,,,,,,,,,,,,,,,,,,,,,,,,,,,,,,,,,,,,,,,,,,,,,,,,,,,,,,,,,,,,,,,,,,,,,,,
,,,,,,6131e772aebd3c8fff4f0c7f,62bbf9c8c5f6bda3b95cb4a5,2022-06-29_09h06.40.988,Colour_Asymmetry_Pilot,2022.1.3,Win32,60.05645307,62bbe60bf3d75ef465d3e404,0,120,120,63,1,fourthree,,,,,,,,,,,,,,,,,,,,,,,,,,,,,,,,,,,,,,,,,,,,,,,,,,,,,,,,,,,,,,,,,,,,,,,,,,,,,,,,,,,,,,,,,,,,,,,,,,,,,,,,,,,,,,,,,,,,,,,,,,,,,,,,,,,,,,,,,,,,,,,,,,,,,,,,
,,,,,,6131e772aebd3c8fff4f0c7f,62bbf9c8c5f6bda3b95cb4a5,2022-06-29_09h06.40.988,Colour_Asymmetry_Pilot,2022.1.3,Win32,60.05645307,62bbe60bf3d75ef465d3e404,0,121,121,105,1,onethree,,,,,,,,,,,,,,,,,,,,,,,,,,,,,,,,,,,,,,,,,,,,,,,,,,,,,,,,,,,,,,,,,,,,,,,,,,,,,,,,,,,,,,,,,,,,,,,,,,,,,,,,,,,,,,,,,,,,,,,,,,,,,,,,,,,,,,,,,,,,,,,,,,,,,,,,
,,,,,,6131e772aebd3c8fff4f0c7f,62bbf9c8c5f6bda3b95cb4a5,2022-06-29_09h06.40.988,Colour_Asymmetry_Pilot,2022.1.3,Win32,60.05645307,62bbe60bf3d75ef465d3e404,0,122,122,128,1,onetwo,,,,,,,,,,,,,,,,,,,,,,,,,,,,,,,,,,,,,,,,,,,,,,,,,,,,,,,,,,,,,,,,,,,,,,,,,,,,,,,,,,,,,,,,,,,,,,,,,,,,,,,,,,,,,,,,,,,,,,,,,,,,,,,,,,,,,,,,,,,,,,,,,,,,,,,,
,,,,,,6131e772aebd3c8fff4f0c7f,62bbf9c8c5f6bda3b95cb4a5,2022-06-29_09h06.40.988,Colour_Asymmetry_Pilot,2022.1.3,Win32,60.05645307,62bbe60bf3d75ef465d3e404,0,123,123,143,1,fourthree,,,,,,,,,,,,,,,,,,,,,,,,,,,,,,,,,,,,,,,,,,,,,,,,,,,,,,,,,,,,,,,,,,,,,,,,,,,,,,,,,,,,,,,,,,,,,,,,,,,,,,,,,,,,,,,,,,,,,,,,,,,,,,,,,,,,,,,,,,,,,,,,,,,,,,,,
,,,,,,6131e772aebd3c8fff4f0c7f,62bbf9c8c5f6bda3b95cb4a5,2022-06-29_09h06.40.988,Colour_Asymmetry_Pilot,2022.1.3,Win32,60.05645307,62bbe60bf3d75ef465d3e404,0,124,124,160,1,onetwo,,,,,,,,,,,,,,,,,,,,,,,,,,,,,,,,,,,,,,,,,,,,,,,,,,,,,,,,,,,,,,,,,,,,,,,,,,,,,,,,,,,,,,,,,,,,,,,,,,,,,,,,,,,,,,,,,,,,,,,,,,,,,,,,,,,,,,,,,,,,,,,,,,,,,,,,
,,,,,,6131e772aebd3c8fff4f0c7f,62bbf9c8c5f6bda3b95cb4a5,2022-06-29_09h06.40.988,Colour_Asymmetry_Pilot,2022.1.3,Win32,60.05645307,62bbe60bf3d75ef465d3e404,0,125,125,101,1,threefour,,,,,,,,,,,,,,,,,,,,,,,,,,,,,,,,,,,,,,,,,,,,,,,,,,,,,,,,,,,,,,,,,,,,,,,,,,,,,,,,,,,,,,,,,,,,,,,,,,,,,,,,,,,,,,,,,,,,,,,,,,,,,,,,,,,,,,,,,,,,,,,,,,,,,,,,
,,,,,,6131e772aebd3c8fff4f0c7f,62bbf9c8c5f6bda3b95cb4a5,2022-06-29_09h06.40.988,Colour_Asymmetry_Pilot,2022.1.3,Win32,60.05645307,62bbe60bf3d75ef465d3e404,0,126,126,53,1,threefour,,,,,,,,,,,,,,,,,,,,,,,,,,,,,,,,,,,,,,,,,,,,,,,,,,,,,,,,,,,,,,,,,,,,,,,,,,,,,,,,,,,,,,,,,,,,,,,,,,,,,,,,,,,,,,,,,,,,,,,,,,,,,,,,,,,,,,,,,,,,,,,,,,,,,,,,
,,,,,,6131e772aebd3c8fff4f0c7f,62bbf9c8c5f6bda3b95cb4a5,2022-06-29_09h06.40.988,Colour_Asymmetry_Pilot,2022.1.3,Win32,60.05645307,62bbe60bf3d75ef465d3e404,0,127,127,65,1,onethree,,,,,,,,,,,,,,,,,,,,,,,,,,,,,,,,,,,,,,,,,,,,,,,,,,,,,,,,,,,,,,,,,,,,,,,,,,,,,,,,,,,,,,,,,,,,,,,,,,,,,,,,,,,,,,,,,,,,,,,,,,,,,,,,,,,,,,,,,,,,,,,,,,,,,,,,
,,,,,,6131e772aebd3c8fff4f0c7f,62bbf9c8c5f6bda3b95cb4a5,2022-06-29_09h06.40.988,Colour_Asymmetry_Pilot,2022.1.3,Win32,60.05645307,62bbe60bf3d75ef465d3e404,0,128,128,73,1,onethree,,,,,,,,,,,,,,,,,,,,,,,,,,,,,,,,,,,,,,,,,,,,,,,,,,,,,,,,,,,,,,,,,,,,,,,,,,,,,,,,,,,,,,,,,,,,,,,,,,,,,,,,,,,,,,,,,,,,,,,,,,,,,,,,,,,,,,,,,,,,,,,,,,,,,,,,
,,,,,,6131e772aebd3c8fff4f0c7f,62bbf9c8c5f6bda3b95cb4a5,2022-06-29_09h06.40.988,Colour_Asymmetry_Pilot,2022.1.3,Win32,60.05645307,62bbe60bf3d75ef465d3e404,0,129,129,42,1,twoone,,,,,,,,,,,,,,,,,,,,,,,,,,,,,,,,,,,,,,,,,,,,,,,,,,,,,,,,,,,,,,,,,,,,,,,,,,,,,,,,,,,,,,,,,,,,,,,,,,,,,,,,,,,,,,,,,,,,,,,,,,,,,,,,,,,,,,,,,,,,,,,,,,,,,,,,
,,,,,,6131e772aebd3c8fff4f0c7f,62bbf9c8c5f6bda3b95cb4a5,2022-06-29_09h06.40.988,Colour_Asymmetry_Pilot,2022.1.3,Win32,60.05645307,62bbe60bf3d75ef465d3e404,0,130,130,138,1,twoone,,,,,,,,,,,,,,,,,,,,,,,,,,,,,,,,,,,,,,,,,,,,,,,,,,,,,,,,,,,,,,,,,,,,,,,,,,,,,,,,,,,,,,,,,,,,,,,,,,,,,,,,,,,,,,,,,,,,,,,,,,,,,,,,,,,,,,,,,,,,,,,,,,,,,,,,
,,,,,,6131e772aebd3c8fff4f0c7f,62bbf9c8c5f6bda3b95cb4a5,2022-06-29_09h06.40.988,Colour_Asymmetry_Pilot,2022.1.3,Win32,60.05645307,62bbe60bf3d75ef465d3e404,0,131,131,9,1,onethree,,,,,,,,,,,,,,,,,,,,,,,,,,,,,,,,,,,,,,,,,,,,,,,,,,,,,,,,,,,,,,,,,,,,,,,,,,,,,,,,,,,,,,,,,,,,,,,,,,,,,,,,,,,,,,,,,,,,,,,,,,,,,,,,,,,,,,,,,,,,,,,,,,,,,,,,
,,,,,,6131e772aebd3c8fff4f0c7f,62bbf9c8c5f6bda3b95cb4a5,2022-06-29_09h06.40.988,Colour_Asymmetry_Pilot,2022.1.3,Win32,60.05645307,62bbe60bf3d75ef465d3e404,0,132,132,29,1,threefour,,,,,,,,,,,,,,,,,,,,,,,,,,,,,,,,,,,,,,,,,,,,,,,,,,,,,,,,,,,,,,,,,,,,,,,,,,,,,,,,,,,,,,,,,,,,,,,,,,,,,,,,,,,,,,,,,,,,,,,,,,,,,,,,,,,,,,,,,,,,,,,,,,,,,,,,
,,,,,,6131e772aebd3c8fff4f0c7f,62bbf9c8c5f6bda3b95cb4a5,2022-06-29_09h06.40.988,Colour_Asymmetry_Pilot,2022.1.3,Win32,60.05645307,62bbe60bf3d75ef465d3e404,0,133,133,17,1,onethree,,,,,,,,,,,,,,,,,,,,,,,,,,,,,,,,,,,,,,,,,,,,,,,,,,,,,,,,,,,,,,,,,,,,,,,,,,,,,,,,,,,,,,,,,,,,,,,,,,,,,,,,,,,,,,,,,,,,,,,,,,,,,,,,,,,,,,,,,,,,,,,,,,,,,,,,
,,,,,,6131e772aebd3c8fff4f0c7f,62bbf9c8c5f6bda3b95cb4a5,2022-06-29_09h06.40.988,Colour_Asymmetry_Pilot,2022.1.3,Win32,60.05645307,62bbe60bf3d75ef465d3e404,0,134,134,91,1,twofour,,,,,,,,,,,,,,,,,,,,,,,,,,,,,,,,,,,,,,,,,,,,,,,,,,,,,,,,,,,,,,,,,,,,,,,,,,,,,,,,,,,,,,,,,,,,,,,,,,,,,,,,,,,,,,,,,,,,,,,,,,,,,,,,,,,,,,,,,,,,,,,,,,,,,,,,
,,,,,,6131e772aebd3c8fff4f0c7f,62bbf9c8c5f6bda3b95cb4a5,2022-06-29_09h06.40.988,Colour_Asymmetry_Pilot,2022.1.3,Win32,60.05645307,62bbe60bf3d75ef465d3e404,0,135,135,44,1,threeone,,,,,,,,,,,,,,,,,,,,,,,,,,,,,,,,,,,,,,,,,,,,,,,,,,,,,,,,,,,,,,,,,,,,,,,,,,,,,,,,,,,,,,,,,,,,,,,,,,,,,,,,,,,,,,,,,,,,,,,,,,,,,,,,,,,,,,,,,,,,,,,,,,,,,,,,
,,,,,,6131e772aebd3c8fff4f0c7f,62bbf9c8c5f6bda3b95cb4a5,2022-06-29_09h06.40.988,Colour_Asymmetry_Pilot,2022.1.3,Win32,60.05645307,62bbe60bf3d75ef465d3e404,0,136,136,43,1,twofour,,,,,,,,,,,,,,,,,,,,,,,,,,,,,,,,,,,,,,,,,,,,,,,,,,,,,,,,,,,,,,,,,,,,,,,,,,,,,,,,,,,,,,,,,,,,,,,,,,,,,,,,,,,,,,,,,,,,,,,,,,,,,,,,,,,,,,,,,,,,,,,,,,,,,,,,
,,,,,,6131e772aebd3c8fff4f0c7f,62bbf9c8c5f6bda3b95cb4a5,2022-06-29_09h06.40.988,Colour_Asymmetry_Pilot,2022.1.3,Win32,60.05645307,62bbe60bf3d75ef465d3e404,0,137,137,11,1,twofour,,,,,,,,,,,,,,,,,,,,,,,,,,,,,,,,,,,,,,,,,,,,,,,,,,,,,,,,,,,,,,,,,,,,,,,,,,,,,,,,,,,,,,,,,,,,,,,,,,,,,,,,,,,,,,,,,,,,,,,,,,,,,,,,,,,,,,,,,,,,,,,,,,,,,,,,
,,,,,,6131e772aebd3c8fff4f0c7f,62bbf9c8c5f6bda3b95cb4a5,2022-06-29_09h06.40.988,Colour_Asymmetry_Pilot,2022.1.3,Win32,60.05645307,62bbe60bf3d75ef465d3e404,0,138,138,49,1,onethree,,,,,,,,,,,,,,,,,,,,,,,,,,,,,,,,,,,,,,,,,,,,,,,,,,,,,,,,,,,,,,,,,,,,,,,,,,,,,,,,,,,,,,,,,,,,,,,,,,,,,,,,,,,,,,,,,,,,,,,,,,,,,,,,,,,,,,,,,,,,,,,,,,,,,,,,
,,,,,,6131e772aebd3c8fff4f0c7f,62bbf9c8c5f6bda3b95cb4a5,2022-06-29_09h06.40.988,Colour_Asymmetry_Pilot,2022.1.3,Win32,60.05645307,62bbe60bf3d75ef465d3e404,0,139,139,98,1,twoone,,,,,,,,,,,,,,,,,,,,,,,,,,,,,,,,,,,,,,,,,,,,,,,,,,,,,,,,,,,,,,,,,,,,,,,,,,,,,,,,,,,,,,,,,,,,,,,,,,,,,,,,,,,,,,,,,,,,,,,,,,,,,,,,,,,,,,,,,,,,,,,,,,,,,,,,
,,,,,,6131e772aebd3c8fff4f0c7f,62bbf9c8c5f6bda3b95cb4a5,2022-06-29_09h06.40.988,Colour_Asymmetry_Pilot,2022.1.3,Win32,60.05645307,62bbe60bf3d75ef465d3e404,0,140,140,37,1,threefour,,,,,,,,,,,,,,,,,,,,,,,,,,,,,,,,,,,,,,,,,,,,,,,,,,,,,,,,,,,,,,,,,,,,,,,,,,,,,,,,,,,,,,,,,,,,,,,,,,,,,,,,,,,,,,,,,,,,,,,,,,,,,,,,,,,,,,,,,,,,,,,,,,,,,,,,
,,,,,,6131e772aebd3c8fff4f0c7f,62bbf9c8c5f6bda3b95cb4a5,2022-06-29_09h06.40.988,Colour_Asymmetry_Pilot,2022.1.3,Win32,60.05645307,62bbe60bf3d75ef465d3e404,0,141,141,92,1,threeone,,,,,,,,,,,,,,,,,,,,,,,,,,,,,,,,,,,,,,,,,,,,,,,,,,,,,,,,,,,,,,,,,,,,,,,,,,,,,,,,,,,,,,,,,,,,,,,,,,,,,,,,,,,,,,,,,,,,,,,,,,,,,,,,,,,,,,,,,,,,,,,,,,,,,,,,
,,,,,,6131e772aebd3c8fff4f0c7f,62bbf9c8c5f6bda3b95cb4a5,2022-06-29_09h06.40.988,Colour_Asymmetry_Pilot,2022.1.3,Win32,60.05645307,62bbe60bf3d75ef465d3e404,0,142,142,97,1,onethree,,,,,,,,,,,,,,,,,,,,,,,,,,,,,,,,,,,,,,,,,,,,,,,,,,,,,,,,,,,,,,,,,,,,,,,,,,,,,,,,,,,,,,,,,,,,,,,,,,,,,,,,,,,,,,,,,,,,,,,,,,,,,,,,,,,,,,,,,,,,,,,,,,,,,,,,
,,,,,,6131e772aebd3c8fff4f0c7f,62bbf9c8c5f6bda3b95cb4a5,2022-06-29_09h06.40.988,Colour_Asymmetry_Pilot,2022.1.3,Win32,60.05645307,62bbe60bf3d75ef465d3e404,0,143,143,140,1,threeone,,,,,,,,,,,,,,,,,,,,,,,,,,,,,,,,,,,,,,,,,,,,,,,,,,,,,,,,,,,,,,,,,,,,,,,,,,,,,,,,,,,,,,,,,,,,,,,,,,,,,,,,,,,,,,,,,,,,,,,,,,,,,,,,,,,,,,,,,,,,,,,,,,,,,,,,
,,,,,,6131e772aebd3c8fff4f0c7f,62bbf9c8c5f6bda3b95cb4a5,2022-06-29_09h06.40.988,Colour_Asymmetry_Pilot,2022.1.3,Win32,60.05645307,62bbe60bf3d75ef465d3e404,0,144,144,80,1,onetwo,,,,,,,,,,,,,,,,,,,,,,,,,,,,,,,,,,,,,,,,,,,,,,,,,,,,,,,,,,,,,,,,,,,,,,,,,,,,,,,,,,,,,,,,,,,,,,,,,,,,,,,,,,,,,,,,,,,,,,,,,,,,,,,,,,,,,,,,,,,,,,,,,,,,,,,,
,,,,,,6131e772aebd3c8fff4f0c7f,62bbf9c8c5f6bda3b95cb4a5,2022-06-29_09h06.40.988,Colour_Asymmetry_Pilot,2022.1.3,Win32,60.05645307,62bbe60bf3d75ef465d3e404,0,145,145,81,1,onethree,,,,,,,,,,,,,,,,,,,,,,,,,,,,,,,,,,,,,,,,,,,,,,,,,,,,,,,,,,,,,,,,,,,,,,,,,,,,,,,,,,,,,,,,,,,,,,,,,,,,,,,,,,,,,,,,,,,,,,,,,,,,,,,,,,,,,,,,,,,,,,,,,,,,,,,,
,,,,,,6131e772aebd3c8fff4f0c7f,62bbf9c8c5f6bda3b95cb4a5,2022-06-29_09h06.40.988,Colour_Asymmetry_Pilot,2022.1.3,Win32,60.05645307,62bbe60bf3d75ef465d3e404,0,146,146,149,1,threefour,,,,,,,,,,,,,,,,,,,,,,,,,,,,,,,,,,,,,,,,,,,,,,,,,,,,,,,,,,,,,,,,,,,,,,,,,,,,,,,,,,,,,,,,,,,,,,,,,,,,,,,,,,,,,,,,,,,,,,,,,,,,,,,,,,,,,,,,,,,,,,,,,,,,,,,,
,,,,,,6131e772aebd3c8fff4f0c7f,62bbf9c8c5f6bda3b95cb4a5,2022-06-29_09h06.40.988,Colour_Asymmetry_Pilot,2022.1.3,Win32,60.05645307,62bbe60bf3d75ef465d3e404,0,147,147,14,1,fourtwo,,,,,,,,,,,,,,,,,,,,,,,,,,,,,,,,,,,,,,,,,,,,,,,,,,,,,,,,,,,,,,,,,,,,,,,,,,,,,,,,,,,,,,,,,,,,,,,,,,,,,,,,,,,,,,,,,,,,,,,,,,,,,,,,,,,,,,,,,,,,,,,,,,,,,,,,
,,,,,,6131e772aebd3c8fff4f0c7f,62bbf9c8c5f6bda3b95cb4a5,2022-06-29_09h06.40.988,Colour_Asymmetry_Pilot,2022.1.3,Win32,60.05645307,62bbe60bf3d75ef465d3e404,0,148,148,60,1,threeone,,,,,,,,,,,,,,,,,,,,,,,,,,,,,,,,,,,,,,,,,,,,,,,,,,,,,,,,,,,,,,,,,,,,,,,,,,,,,,,,,,,,,,,,,,,,,,,,,,,,,,,,,,,,,,,,,,,,,,,,,,,,,,,,,,,,,,,,,,,,,,,,,,,,,,,,
,,,,,,6131e772aebd3c8fff4f0c7f,62bbf9c8c5f6bda3b95cb4a5,2022-06-29_09h06.40.988,Colour_Asymmetry_Pilot,2022.1.3,Win32,60.05645307,62bbe60bf3d75ef465d3e404,0,149,149,72,1,onetwo,,,,,,,,,,,,,,,,,,,,,,,,,,,,,,,,,,,,,,,,,,,,,,,,,,,,,,,,,,,,,,,,,,,,,,,,,,,,,,,,,,,,,,,,,,,,,,,,,,,,,,,,,,,,,,,,,,,,,,,,,,,,,,,,,,,,,,,,,,,,,,,,,,,,,,,,
,,,,,,6131e772aebd3c8fff4f0c7f,62bbf9c8c5f6bda3b95cb4a5,2022-06-29_09h06.40.988,Colour_Asymmetry_Pilot,2022.1.3,Win32,60.05645307,62bbe60bf3d75ef465d3e404,0,150,150,122,1,twoone,,,,,,,,,,,,,,,,,,,,,,,,,,,,,,,,,,,,,,,,,,,,,,,,,,,,,,,,,,,,,,,,,,,,,,,,,,,,,,,,,,,,,,,,,,,,,,,,,,,,,,,,,,,,,,,,,,,,,,,,,,,,,,,,,,,,,,,,,,,,,,,,,,,,,,,,
,,,,,,6131e772aebd3c8fff4f0c7f,62bbf9c8c5f6bda3b95cb4a5,2022-06-29_09h06.40.988,Colour_Asymmetry_Pilot,2022.1.3,Win32,60.05645307,62bbe60bf3d75ef465d3e404,0,151,151,139,1,twofour,,,,,,,,,,,,,,,,,,,,,,,,,,,,,,,,,,,,,,,,,,,,,,,,,,,,,,,,,,,,,,,,,,,,,,,,,,,,,,,,,,,,,,,,,,,,,,,,,,,,,,,,,,,,,,,,,,,,,,,,,,,,,,,,,,,,,,,,,,,,,,,,,,,,,,,,
,,,,,,6131e772aebd3c8fff4f0c7f,62bbf9c8c5f6bda3b95cb4a5,2022-06-29_09h06.40.988,Colour_Asymmetry_Pilot,2022.1.3,Win32,60.05645307,62bbe60bf3d75ef465d3e404,0,152,152,150,1,fourtwo,,,,,,,,,,,,,,,,,,,,,,,,,,,,,,,,,,,,,,,,,,,,,,,,,,,,,,,,,,,,,,,,,,,,,,,,,,,,,,,,,,,,,,,,,,,,,,,,,,,,,,,,,,,,,,,,,,,,,,,,,,,,,,,,,,,,,,,,,,,,,,,,,,,,,,,,
,,,,,,6131e772aebd3c8fff4f0c7f,62bbf9c8c5f6bda3b95cb4a5,2022-06-29_09h06.40.988,Colour_Asymmetry_Pilot,2022.1.3,Win32,60.05645307,62bbe60bf3d75ef465d3e404,0,153,153,148,1,threeone,,,,,,,,,,,,,,,,,,,,,,,,,,,,,,,,,,,,,,,,,,,,,,,,,,,,,,,,,,,,,,,,,,,,,,,,,,,,,,,,,,,,,,,,,,,,,,,,,,,,,,,,,,,,,,,,,,,,,,,,,,,,,,,,,,,,,,,,,,,,,,,,,,,,,,,,
,,,,,,6131e772aebd3c8fff4f0c7f,62bbf9c8c5f6bda3b95cb4a5,2022-06-29_09h06.40.988,Colour_Asymmetry_Pilot,2022.1.3,Win32,60.05645307,62bbe60bf3d75ef465d3e404,0,154,154,20,1,threeone,,,,,,,,,,,,,,,,,,,,,,,,,,,,,,,,,,,,,,,,,,,,,,,,,,,,,,,,,,,,,,,,,,,,,,,,,,,,,,,,,,,,,,,,,,,,,,,,,,,,,,,,,,,,,,,,,,,,,,,,,,,,,,,,,,,,,,,,,,,,,,,,,,,,,,,,
,,,,,,6131e772aebd3c8fff4f0c7f,62bbf9c8c5f6bda3b95cb4a5,2022-06-29_09h06.40.988,Colour_Asymmetry_Pilot,2022.1.3,Win32,60.05645307,62bbe60bf3d75ef465d3e404,0,155,155,134,1,fourtwo,,,,,,,,,,,,,,,,,,,,,,,,,,,,,,,,,,,,,,,,,,,,,,,,,,,,,,,,,,,,,,,,,,,,,,,,,,,,,,,,,,,,,,,,,,,,,,,,,,,,,,,,,,,,,,,,,,,,,,,,,,,,,,,,,,,,,,,,,,,,,,,,,,,,,,,,
,,,,,,6131e772aebd3c8fff4f0c7f,62bbf9c8c5f6bda3b95cb4a5,2022-06-29_09h06.40.988,Colour_Asymmetry_Pilot,2022.1.3,Win32,60.05645307,62bbe60bf3d75ef465d3e404,0,156,156,111,1,fourthree,,,,,,,,,,,,,,,,,,,,,,,,,,,,,,,,,,,,,,,,,,,,,,,,,,,,,,,,,,,,,,,,,,,,,,,,,,,,,,,,,,,,,,,,,,,,,,,,,,,,,,,,,,,,,,,,,,,,,,,,,,,,,,,,,,,,,,,,,,,,,,,,,,,,,,,,
,,,,,,6131e772aebd3c8fff4f0c7f,62bbf9c8c5f6bda3b95cb4a5,2022-06-29_09h06.40.988,Colour_Asymmetry_Pilot,2022.1.3,Win32,60.05645307,62bbe60bf3d75ef465d3e404,0,157,157,66,1,twoone,,,,,,,,,,,,,,,,,,,,,,,,,,,,,,,,,,,,,,,,,,,,,,,,,,,,,,,,,,,,,,,,,,,,,,,,,,,,,,,,,,,,,,,,,,,,,,,,,,,,,,,,,,,,,,,,,,,,,,,,,,,,,,,,,,,,,,,,,,,,,,,,,,,,,,,,
,,,,,,6131e772aebd3c8fff4f0c7f,62bbf9c8c5f6bda3b95cb4a5,2022-06-29_09h06.40.988,Colour_Asymmetry_Pilot,2022.1.3,Win32,60.05645307,62bbe60bf3d75ef465d3e404,0,158,158,36,1,threeone,,,,,,,,,,,,,,,,,,,,,,,,,,,,,,,,,,,,,,,,,,,,,,,,,,,,,,,,,,,,,,,,,,,,,,,,,,,,,,,,,,,,,,,,,,,,,,,,,,,,,,,,,,,,,,,,,,,,,,,,,,,,,,,,,,,,,,,,,,,,,,,,,,,,,,,,
,,,,,,6131e772aebd3c8fff4f0c7f,62bbf9c8c5f6bda3b95cb4a5,2022-06-29_09h06.40.988,Colour_Asymmetry_Pilot,2022.1.3,Win32,60.05645307,62bbe60bf3d75ef465d3e404,0,159,159,106,1,twoone,,,,,,,,,,,,,,,,,,,,,,,,,,,,,,,,,,,,,,,,,,,,,,,,,,,,,,,,,,,,,,,,,,,,,,,,,,,,,,,,,,,,,,,,,,,,,,,,,,,,,,,,,,,,,,,,,,,,,,,,,,,,,,,,,,,,,,,,,,,,,,,,,,,,,,,,
,,,,,,6131e772aebd3c8fff4f0c7f,62bbf9c8c5f6bda3b95cb4a5,2022-06-29_09h06.40.988,Colour_Asymmetry_Pilot,2022.1.3,Win32,60.05645307,62bbe60bf3d75ef465d3e404,0,160,160,146,1,twoone,,,,,,,,,,,,,,,,,,,,,,,,,,,,,,,,,,,,,,,,,,,,,,,,,,,,,,,,,,,,,,,,,,,,,,,,,,,,,,,,,,,,,,,,,,,,,,,,,,,,,,,,,,,,,,,,,,,,,,,,,,,,,,,,,,,,,,,,,,,,,,,,,,,,,,,,
,,,,,,6131e772aebd3c8fff4f0c7f,62bbf9c8c5f6bda3b95cb4a5,2022-06-29_09h06.40.988,Colour_Asymmetry_Pilot,2022.1.3,Win32,60.05645307,62bbe60bf3d75ef465d3e404,0,161,161,112,1,onetwo,,,,,,,,,,,,,,,,,,,,,,,,,,,,,,,,,,,,,,,,,,,,,,,,,,,,,,,,,,,,,,,,,,,,,,,,,,,,,,,,,,,,,,,,,,,,,,,,,,,,,,,,,,,,,,,,,,,,,,,,,,,,,,,,,,,,,,,,,,,,,,,,,,,,,,,,
,,,,,,6131e772aebd3c8fff4f0c7f,62bbf9c8c5f6bda3b95cb4a5,2022-06-29_09h06.40.988,Colour_Asymmetry_Pilot,2022.1.3,Win32,60.05645307,62bbe60bf3d75ef465d3e404,,,,,,,space,3.7553,space,114.5474,space,46.984,space,20.7747,space,5.3965,space,13.1959,"[-0.38039999999999996,-0.4276,-0.1452]",onethree,"[-0.10599999999999998,-0.15300000000000002,0.15280000000000005]",-4,19.3178,-60,101,1,0,0,response7disk_5,-5,0,1,0,0,rectangle_8,-5,0,1,0,0,2,-5,0,1,0,0,0,0,0,0,1,,,,,,,,,,,,,,,,,,,,,,,,,,,,,,,,,,,,,,,,,,,,,,,,,,,,,,,,,,,,,,,,,,,,,,,,,,,,,,,,,,,,,,,,,,,,,,,,,,,,,,,,,,,
,,,,,,6131e772aebd3c8fff4f0c7f,62bbf9c8c5f6bda3b95cb4a5,2022-06-29_09h06.40.988,Colour_Asymmetry_Pilot,2022.1.3,Win32,60.05645307,62bbe60bf3d75ef465d3e404,,,,,,,,,,,,,,,,,,,"[-0.0040000000000000036,0.02739999999999987,-0.08239999999999992]",onetwo,"[0.7646000000000002,0.07440000000000002,0.2704]",-4,10.2819,-43,103,1,0,0,response7disk_5,-4,0,1,0,0,rectangle_8,-4,0,1,0,0,2,-4,0,1,0,0,1,0,1,0,1,,,,,,,,,,,,,,,,,,,,,,,,,,,,,,,,,,,,,,,,,,,,,,,,,,,,,,,,,,,,,,,,,,,,,,,,,,,,,,,,,,,,,,,,,,,,,,,,,,,,,,,,,,,
,,,,,,6131e772aebd3c8fff4f0c7f,62bbf9c8c5f6bda3b95cb4a5,2022-06-29_09h06.40.988,Colour_Asymmetry_Pilot,2022.1.3,Win32,60.05645307,62bbe60bf3d75ef465d3e404,,,,,,,,,,,,,,,,,,,"[0.37240000000000006,-0.050999999999999934,-0.5216]",threefour,"[-0.06680000000000008,-0.45100000000000007,-0.906]",4,7.266,53,111,1,0,0,response1disk_5,-2,5,1,0,0,rectangle_8,104,-40,1,0,0,2,-10,14,1,0,0,2,0,2,0,1,response3disk_7,5,rectangle_4,,,,,,,,,,,,,,,,,,,,,,,,,,,,,,,,,,,,,,,,,,,,,,,,,,,,,,,,,,,,,,,,,,,,,,,,,,,,,,,,,,,,,,,,,,,,,,,,,,,,,,,,
,,,,,,6131e772aebd3c8fff4f0c7f,62bbf9c8c5f6bda3b95cb4a5,2022-06-29_09h06.40.988,Colour_Asymmetry_Pilot,2022.1.3,Win32,60.05645307,62bbe60bf3d75ef465d3e404,,,,,,,,,,,,,,,,,,,"[-0.011800000000000033,-0.906,-0.45100000000000007]",twoone,"[0.5449999999999999,-0.31000000000000005,-0.0354000000000001]",-4,3.0996,-51,97,1,0,0,response7disk_5,-11,5,1,0,0,rectangle_8,-11,5,1,0,0,2,-11,5,1,0,0,3,0,3,0,1,,,,,,,,,,,,,,,,,,,,,,,,,,,,,,,,,,,,,,,,,,,,,,,,,,,,,,,,,,,,,,,,,,,,,,,,,,,,,,,,,,,,,,,,,,,,,,,,,,,,,,,,,,,
,,,,,,6131e772aebd3c8fff4f0c7f,62bbf9c8c5f6bda3b95cb4a5,2022-06-29_09h06.40.988,Colour_Asymmetry_Pilot,2022.1.3,Win32,60.05645307,62bbe60bf3d75ef465d3e404,,,,,,,,,,,,,,,,,,,"[0.9763999999999999,-0.1137999999999999,-0.6314]",fourthree,"[-0.9216,-0.5529999999999999,-0.3962]",-4,3.0164,-46,103,1,0,0,response7disk_5,3,1,1,0,0,rectangle_8,3,1,1,0,0,2,3,1,1,0,0,4,0,4,0,1,,,,,,,,,,,,,,,,,,,,,,,,,,,,,,,,,,,,,,,,,,,,,,,,,,,,,,,,,,,,,,,,,,,,,,,,,,,,,,,,,,,,,,,,,,,,,,,,,,,,,,,,,,,
,,,,,,6131e772aebd3c8fff4f0c7f,62bbf9c8c5f6bda3b95cb4a5,2022-06-29_09h06.40.988,Colour_Asymmetry_Pilot,2022.1.3,Win32,60.05645307,62bbe60bf3d75ef465d3e404,,,,,,,,,,,,,,,,,,,"[0.2862,0.7802,0.3568]",onetwo,"[0.3881999999999999,-0.23939999999999995,-0.05040000000000011]",-4,1.0498,-43,91,1,0,0,response7disk_5,5,-6,1,0,0,rectangle_8,5,-6,1,0,0,2,5,-6,1,0,0,5,0,5,0,1,,,,,,,,,,,,,,,,,,,,,,,,,,,,,,,,,,,,,,,,,,,,,,,,,,,,,,,,,,,,,,,,,,,,,,,,,,,,,,,,,,,,,,,,,,,,,,,,,,,,,,,,,,,
,,,,,,6131e772aebd3c8fff4f0c7f,62bbf9c8c5f6bda3b95cb4a5,2022-06-29_09h06.40.988,Colour_Asymmetry_Pilot,2022.1.3,Win32,60.05645307,62bbe60bf3d75ef465d3e404,,,,,,,,,,,,,,,,,,,"[0.9842,0.7409999999999999,-0.6628000000000001]",twoone,"[-0.6942,-0.7648,-0.12959999999999994]",-4,1.1002,-41,86,1,0,0,response7disk_5,5,-16,1,0,0,rectangle_8,5,-16,1,0,0,2,5,-16,1,0,0,6,0,6,0,1,,,,,,,,,,,,,,,,,,,,,,,,,,,,,,,,,,,,,,,,,,,,,,,,,,,,,,,,,,,,,,,,,,,,,,,,,,,,,,,,,,,,,,,,,,,,,,,,,,,,,,,,,,,
,,,,,,6131e772aebd3c8fff4f0c7f,62bbf9c8c5f6bda3b95cb4a5,2022-06-29_09h06.40.988,Colour_Asymmetry_Pilot,2022.1.3,Win32,60.05645307,62bbe60bf3d75ef465d3e404,,,,,,,,,,,,,,,,,,,,fourthree,,-4,3.602,,,,,,,,,,,,,,,,,,,,,,,,,,,,,,,,space,39.0154,"[0.9686000000000001,0.3802000000000001,0.19999999999999996]","[-0.9844,-0.9688,-0.9922]",-59,98,1,0,0,response7disk,9,-6,1,0,0,rectangle,9,-6,1,0,0,,1,0.0046,0,9,-6,1,0,0,0,0,0,45,1,45,first,,,,,,,,,,,,,,,,,,,,,,,,,,,,,,,,,,,,,,,,,,,,,,,,,,,,,,,,,,,,,,,,,,,
,,,,,,6131e772aebd3c8fff4f0c7f,62bbf9c8c5f6bda3b95cb4a5,2022-06-29_09h06.40.988,Colour_Asymmetry_Pilot,2022.1.3,Win32,60.05645307,62bbe60bf3d75ef465d3e404,,,,,,,,,,,,,,,,,,,,twoone,,-4,2.5824,,,,,,,,,,,,,,,,,,,,,,,,,,,,,,,,,,"[0.9372,0.9450000000000001,0.8980000000000001]","[0.2784,-0.31000000000000005,-0.5452]",-44,90,1,0,0,response7disk,-4,-4,1,0,0,rectangle,-4,-4,1,0,0,,3,0.0021,0,-4,-4,1,0,0,0,1,1,54,1,54,first,,,,,,,,,,,,,,,,,,,,,,,,,,,,,,,,,,,,,,,,,,,,,,,,,,,,,,,,,,,,,,,,,,,
,,,,,,6131e772aebd3c8fff4f0c7f,62bbf9c8c5f6bda3b95cb4a5,2022-06-29_09h06.40.988,Colour_Asymmetry_Pilot,2022.1.3,Win32,60.05645307,62bbe60bf3d75ef465d3e404,,,,,,,,,,,,,,,,,,,,twofour,,-4,0.925,,,,,,,,,,,,,,,,,,,,,,,,,,,,,,,,,,"[-0.6235999999999999,-0.6786,-0.08239999999999992]","[-0.45899999999999996,-0.3256,-0.9374]",-38,86,1,0,0,response7disk,8,-1,1,0,0,rectangle,8,-1,1,0,0,,2,0.0019,0,8,-1,1,0,0,0,2,2,21,1,21,first,,,,,,,,,,,,,,,,,,,,,,,,,,,,,,,,,,,,,,,,,,,,,,,,,,,,,,,,,,,,,,,,,,,
,,,,,,6131e772aebd3c8fff4f0c7f,62bbf9c8c5f6bda3b95cb4a5,2022-06-29_09h06.40.988,Colour_Asymmetry_Pilot,2022.1.3,Win32,60.05645307,62bbe60bf3d75ef465d3e404,,,,,,,,,,,,,,,,,,,,onetwo,,-4,1.0834,,,,,,,,,,,,,,,,,,,,,,,,,,,,,,,,,,"[-0.5922000000000001,-0.7492000000000001,-0.5296000000000001]","[-0.06680000000000008,-0.45100000000000007,-0.906]",-35,85,1,0,0,response7disk,3,0,1,0,0,rectangle,3,0,1,0,0,,1,0.0027,0,3,0,1,0,0,0,3,3,152,1,71,second,,,,,,,,,,,,,,,,,,,,,,,,,,,,,,,,,,,,,,,,,,,,,,,,,,,,,,,,,,,,,,,,,,,
,,,,,,6131e772aebd3c8fff4f0c7f,62bbf9c8c5f6bda3b95cb4a5,2022-06-29_09h06.40.988,Colour_Asymmetry_Pilot,2022.1.3,Win32,60.05645307,62bbe60bf3d75ef465d3e404,,,,,,,,,,,,,,,,,,,,onethree,,-4,28.3638,,,,,,,,,,,,,,,,,,,,,,,,,,,,,,,,,,"[0.2784,-0.31000000000000005,-0.5452]","[0.9372,0.9450000000000001,0.8980000000000001]",-39,77,1,0,0,response7disk,-1,2,1,0,0,rectangle,-1,2,1,0,0,,3,0.002,0,-1,2,1,0,0,0,4,4,135,1,54,second,,,,,,,,,,,,,,,,,,,,,,,,,,,,,,,,,,,,,,,,,,,,,,,,,,,,,,,,,,,,,,,,,,,
,,,,,,6131e772aebd3c8fff4f0c7f,62bbf9c8c5f6bda3b95cb4a5,2022-06-29_09h06.40.988,Colour_Asymmetry_Pilot,2022.1.3,Win32,60.05645307,62bbe60bf3d75ef465d3e404,,,,,,,,,,,,,,,,,,,,onetwo,,-4,2.0673,,,,,,,,,,,,,,,,,,,,,,,,,,,,,,,,,,"[0.04299999999999993,0.16060000000000008,-0.6628000000000001]","[0.8274000000000001,-0.5844,-0.9452]",-44,96,1,0,0,response7disk,-10,7,1,0,0,rectangle,-10,7,1,0,0,,1,0.0019,0,-10,7,1,0,0,0,5,5,156,1,75,second,,,,,,,,,,,,,,,,,,,,,,,,,,,,,,,,,,,,,,,,,,,,,,,,,,,,,,,,,,,,,,,,,,,
,,,,,,6131e772aebd3c8fff4f0c7f,62bbf9c8c5f6bda3b95cb4a5,2022-06-29_09h06.40.988,Colour_Asymmetry_Pilot,2022.1.3,Win32,60.05645307,62bbe60bf3d75ef465d3e404,,,,,,,,,,,,,,,,,,,,fourtwo,,-4,0.6914,,,,,,,,,,,,,,,,,,,,,,,,,,,,,,,,,,"[-0.9216,-0.5529999999999999,-0.3962]","[0.9763999999999999,0.8588,-0.05900000000000005]",-21,95,1,0,0,response7disk,5,-4,1,0,0,rectangle,5,-4,1,0,0,,1,0.0003,0,5,-4,1,0,0,0,6,6,48,1,48,first,,,,,,,,,,,,,,,,,,,,,,,,,,,,,,,,,,,,,,,,,,,,,,,,,,,,,,,,,,,,,,,,,,,
,,,,,,6131e772aebd3c8fff4f0c7f,62bbf9c8c5f6bda3b95cb4a5,2022-06-29_09h06.40.988,Colour_Asymmetry_Pilot,2022.1.3,Win32,60.05645307,62bbe60bf3d75ef465d3e404,,,,,,,,,,,,,,,,,,,,twoone,,4,0.9168,,,,,,,,,,,,,,,,,,,,,,,,,,,,,,,,,,"[-0.24719999999999998,-0.0354000000000001,0.3175999999999999]","[-0.9766,-0.6472,0.07440000000000002]",43,99,1,0,0,response1disk,22,3,1,0,0,rectangle,22,3,1,0,0,,2,0.0018,0,22,3,1,0,0,0,7,7,109,1,28,second,,,,,,,,,,,,,,,,,,,,,,,,,,,,,,,,,,,,,,,,,,,,,,,,,,,,,,,,,,,,,,,,,,,
,,,,,,6131e772aebd3c8fff4f0c7f,62bbf9c8c5f6bda3b95cb4a5,2022-06-29_09h06.40.988,Colour_Asymmetry_Pilot,2022.1.3,Win32,60.05645307,62bbe60bf3d75ef465d3e404,,,,,,,,,,,,,,,,,,,,onetwo,,-4,0.4496,,,,,,,,,,,,,,,,,,,,,,,,,,,,,,,,,,"[0.7018,0.7176,0.6155999999999999]","[0.8274000000000001,-0.5844,-0.9452]",-39,97,1,0,0,response7disk,1,-4,1,0,0,rectangle,1,-4,1,0,0,,1,0.0016,0,1,-4,1,0,0,0,8,8,142,1,61,second,,,,,,,,,,,,,,,,,,,,,,,,,,,,,,,,,,,,,,,,,,,,,,,,,,,,,,,,,,,,,,,,,,,
,,,,,,6131e772aebd3c8fff4f0c7f,62bbf9c8c5f6bda3b95cb4a5,2022-06-29_09h06.40.988,Colour_Asymmetry_Pilot,2022.1.3,Win32,60.05645307,62bbe60bf3d75ef465d3e404,,,,,,,,,,,,,,,,,,,,fourthree,,-4,1.4329,,,,,,,,,,,,,,,,,,,,,,,,,,,,,,,,,,"[0.04299999999999993,0.16060000000000008,-0.6628000000000001]","[0.7802,-0.23140000000000005,-0.20799999999999996]",-40,94,1,0,0,response7disk,5,-4,1,0,0,rectangle,5,-4,1,0,0,,1,0.0004,0,5,-4,1,0,0,0,9,9,140,1,59,second,,,,,,,,,,,,,,,,,,,,,,,,,,,,,,,,,,,,,,,,,,,,,,,,,,,,,,,,,,,,,,,,,,,
,,,,,,6131e772aebd3c8fff4f0c7f,62bbf9c8c5f6bda3b95cb4a5,2022-06-29_09h06.40.988,Colour_Asymmetry_Pilot,2022.1.3,Win32,60.05645307,62bbe60bf3d75ef465d3e404,,,,,,,,,,,,,,,,,,,,twoone,,-4,0.7241,,,,,,,,,,,,,,,,,,,,,,,,,,,,,,,,,,"[0.40379999999999994,0.09000000000000008,0.44300000000000006]","[0.796,0.2156,-0.27859999999999996]",-51,102,1,0,0,response7disk,4,5,1,0,0,rectangle,4,5,1,0,0,,3,0.0006,0,4,5,1,0,0,0,10,10,111,1,30,second,,,,,,,,,,,,,,,,,,,,,,,,,,,,,,,,,,,,,,,,,,,,,,,,,,,,,,,,,,,,,,,,,,,
,,,,,,6131e772aebd3c8fff4f0c7f,62bbf9c8c5f6bda3b95cb4a5,2022-06-29_09h06.40.988,Colour_Asymmetry_Pilot,2022.1.3,Win32,60.05645307,62bbe60bf3d75ef465d3e404,,,,,,,,,,,,,,,,,,,,twofour,,-4,1.0935,,,,,,,,,,,,,,,,,,,,,,,,,,,,,,,,,,"[0.9763999999999999,0.30979999999999985,-0.6786]","[-0.8982,-0.37259999999999993,0.2784]",-52,99,1,0,0,response7disk,5,-1,1,0,0,rectangle,5,-1,1,0,0,,2,0.0009,0,5,-1,1,0,0,0,11,11,110,1,29,second,,,,,,,,,,,,,,,,,,,,,,,,,,,,,,,,,,,,,,,,,,,,,,,,,,,,,,,,,,,,,,,,,,,
,,,,,,6131e772aebd3c8fff4f0c7f,62bbf9c8c5f6bda3b95cb4a5,2022-06-29_09h06.40.988,Colour_Asymmetry_Pilot,2022.1.3,Win32,60.05645307,62bbe60bf3d75ef465d3e404,,,,,,,,,,,,,,,,,,,,threefour,,-4,1.1007,,,,,,,,,,,,,,,,,,,,,,,,,,,,,,,,,,"[0.9686000000000001,0.5763999999999998,0.11359999999999992]","[-0.24719999999999998,-0.0354000000000001,0.3175999999999999]",-45,79,1,0,0,response7disk,4,-4,1,0,0,rectangle,4,-4,1,0,0,,2,0.0007,0,4,-4,1,0,0,0,12,12,5,1,5,first,,,,,,,,,,,,,,,,,,,,,,,,,,,,,,,,,,,,,,,,,,,,,,,,,,,,,,,,,,,,,,,,,,,
,,,,,,6131e772aebd3c8fff4f0c7f,62bbf9c8c5f6bda3b95cb4a5,2022-06-29_09h06.40.988,Colour_Asymmetry_Pilot,2022.1.3,Win32,60.05645307,62bbe60bf3d75ef465d3e404,,,,,,,,,,,,,,,,,,,,fourtwo,,-4,0.5827,,,,,,,,,,,,,,,,,,,,,,,,,,,,,,,,,,"[0.2784,-0.31000000000000005,-0.5452]","[-0.9296,-0.12959999999999994,-0.043199999999999905]",-50,89,1,0,0,response7disk,12,0,1,0,0,rectangle,12,0,1,0,0,,3,0.0021,0,12,0,1,0,0,0,13,13,53,1,53,first,,,,,,,,,,,,,,,,,,,,,,,,,,,,,,,,,,,,,,,,,,,,,,,,,,,,,,,,,,,,,,,,,,,
,,,,,,6131e772aebd3c8fff4f0c7f,62bbf9c8c5f6bda3b95cb4a5,2022-06-29_09h06.40.988,Colour_Asymmetry_Pilot,2022.1.3,Win32,60.05645307,62bbe60bf3d75ef465d3e404,,,,,,,,,,,,,,,,,,,,twofour,,-4,0.5096,,,,,,,,,,,,,,,,,,,,,,,,,,,,,,,,,,"[0.7018,0.7802,-0.16079999999999994]","[-0.07459999999999989,0.12139999999999995,-0.9922]",-37,88,1,0,0,response7disk,9,2,1,0,0,rectangle,9,2,1,0,0,,2,0.0013,0,9,2,1,0,0,0,14,14,106,1,25,second,,,,,,,,,,,,,,,,,,,,,,,,,,,,,,,,,,,,,,,,,,,,,,,,,,,,,,,,,,,,,,,,,,,
,,,,,,6131e772aebd3c8fff4f0c7f,62bbf9c8c5f6bda3b95cb4a5,2022-06-29_09h06.40.988,Colour_Asymmetry_Pilot,2022.1.3,Win32,60.05645307,62bbe60bf3d75ef465d3e404,,,,,,,,,,,,,,,,,,,,twofour,,-4,0.5242,,,,,,,,,,,,,,,,,,,,,,,,,,,,,,,,,,"[-0.5688,-0.08239999999999992,-0.1844]","[-0.6942,-0.7648,-0.12959999999999994]",-35,88,1,0,0,response7disk,-1,-6,1,0,0,rectangle,-1,-6,1,0,0,,1,0.0006,0,-1,-6,1,0,0,0,15,15,158,1,77,second,,,,,,,,,,,,,,,,,,,,,,,,,,,,,,,,,,,,,,,,,,,,,,,,,,,,,,,,,,,,,,,,,,,
,,,,,,6131e772aebd3c8fff4f0c7f,62bbf9c8c5f6bda3b95cb4a5,2022-06-29_09h06.40.988,Colour_Asymmetry_Pilot,2022.1.3,Win32,60.05645307,62bbe60bf3d75ef465d3e404,,,,,,,,,,,,,,,,,,,,fourthree,,-4,0.517,,,,,,,,,,,,,,,,,,,,,,,,,,,,,,,,,,"[-0.5452,-0.608,0.2470000000000001]","[0.2862,0.7802,0.3568]",-48,89,1,0,0,response7disk,7,-2,1,0,0,rectangle,7,-2,1,0,0,,3,0.0016,0,7,-2,1,0,0,0,16,16,145,1,64,second,,,,,,,,,,,,,,,,,,,,,,,,,,,,,,,,,,,,,,,,,,,,,,,,,,,,,,,,,,,,,,,,,,,
,,,,,,6131e772aebd3c8fff4f0c7f,62bbf9c8c5f6bda3b95cb4a5,2022-06-29_09h06.40.988,Colour_Asymmetry_Pilot,2022.1.3,Win32,60.05645307,62bbe60bf3d75ef465d3e404,,,,,,,,,,,,,,,,,,,,twofour,,-4,0.4733,,,,,,,,,,,,,,,,,,,,,,,,,,,,,,,,,,"[-0.10599999999999998,-0.15300000000000002,0.15280000000000005]","[0.9686000000000001,0.5763999999999998,0.11359999999999992]",-47,91,1,0,0,response7disk,-17,-5,1,0,0,rectangle,-17,-5,1,0,0,,1,0.0021,0,-17,-5,1,0,0,0,17,17,56,1,56,first,,,,,,,,,,,,,,,,,,,,,,,,,,,,,,,,,,,,,,,,,,,,,,,,,,,,,,,,,,,,,,,,,,,
,,,,,,6131e772aebd3c8fff4f0c7f,62bbf9c8c5f6bda3b95cb4a5,2022-06-29_09h06.40.988,Colour_Asymmetry_Pilot,2022.1.3,Win32,60.05645307,62bbe60bf3d75ef465d3e404,,,,,,,,,,,,,,,,,,,,twofour,,-4,0.5415,,,,,,,,,,,,,,,,,,,,,,,,,,,,,,,,,,"[0.9686000000000001,0.5763999999999998,0.11359999999999992]","[-0.48240000000000005,0.3175999999999999,0.2156]",-51,93,1,0,0,response7disk,7,-3,1,0,0,rectangle,7,-3,1,0,0,,3,0.0012,0,7,-3,1,0,0,0,18,18,125,1,44,second,,,,,,,,,,,,,,,,,,,,,,,,,,,,,,,,,,,,,,,,,,,,,,,,,,,,,,,,,,,,,,,,,,,
,,,,,,6131e772aebd3c8fff4f0c7f,62bbf9c8c5f6bda3b95cb4a5,2022-06-29_09h06.40.988,Colour_Asymmetry_Pilot,2022.1.3,Win32,60.05645307,62bbe60bf3d75ef465d3e404,,,,,,,,,,,,,,,,,,,,twoone,,4,0.9836,,,,,,,,,,,,,,,,,,,,,,,,,,,,,,,,,,"[0.9372,0.9450000000000001,0.8980000000000001]","[-0.0040000000000000036,0.02739999999999987,-0.08239999999999992]",46,92,1,0,0,response1disk,13,6,1,0,0,rectangle,13,6,1,0,0,,3,0.0003,0,13,6,1,0,0,0,19,19,82,1,1,second,,,,,,,,,,,,,,,,,,,,,,,,,,,,,,,,,,,,,,,,,,,,,,,,,,,,,,,,,,,,,,,,,,,
,,,,,,6131e772aebd3c8fff4f0c7f,62bbf9c8c5f6bda3b95cb4a5,2022-06-29_09h06.40.988,Colour_Asymmetry_Pilot,2022.1.3,Win32,60.05645307,62bbe60bf3d75ef465d3e404,,,,,,,,,,,,,,,,,,,,onethree,,-4,0.576,,,,,,,,,,,,,,,,,,,,,,,,,,,,,,,,,,"[0.796,0.2156,-0.27859999999999996]","[-0.2942,-0.24719999999999998,-0.357]",-46,100,1,0,0,response7disk,-2,0,1,0,0,rectangle,-2,0,1,0,0,,2,0.0019,0,-2,0,1,0,0,0,20,20,70,1,70,first,,,,,,,,,,,,,,,,,,,,,,,,,,,,,,,,,,,,,,,,,,,,,,,,,,,,,,,,,,,,,,,,,,,
