trials.thisRepN,trials.thisTrialN,trials.thisN,trials.thisIndex,trials.ran,Colourcodes,participant,session,date,expName,psychopyVersion,OS,frameRate,study_id,trials_4.thisRepN,trials_4.thisTrialN,trials_4.thisN,trials_4.thisIndex,trials_4.ran,StimulusPos,key_resp.keys,key_resp.rt,key_resp_2.keys,key_resp_2.rt,key_resp_15.keys,key_resp_15.rt,key_resp_17.keys,key_resp_17.rt,key_resp_9.keys,key_resp_9.rt,key_resp_10.keys,key_resp_10.rt,Circle1_col,Ecc,Circle2_col,similarity,response_time,mouse_5.x,mouse_5.y,mouse_5.leftButton,mouse_5.midButton,mouse_5.rightButton,mouse_5.clicked_name,mouse_10.x,mouse_10.y,mouse_10.leftButton,mouse_10.midButton,mouse_10.rightButton,mouse_10.clicked_name,mouse_7.x,mouse_7.y,mouse_7.leftButton,mouse_7.midButton,mouse_7.rightButton,catchnumberprac,mouse_6.x,mouse_6.y,mouse_6.leftButton,mouse_6.midButton,mouse_6.rightButton,duringprac.thisRepN,duringprac.thisTrialN,duringprac.thisN,duringprac.thisIndex,duringprac.ran,mouse_7.clicked_name,catchprac,mouse_6.clicked_name,key_resp_22.keys,key_resp_22.rt,Circle1_colour,Circle2_colour,mouse.x,mouse.y,mouse.leftButton,mouse.midButton,mouse.rightButton,mouse.clicked_name,mouse_2.x,mouse_2.y,mouse_2.leftButton,mouse_2.midButton,mouse_2.rightButton,mouse_2.clicked_name,mouse_3.x,mouse_3.y,mouse_3.leftButton,mouse_3.midButton,mouse_3.rightButton,catchresponse,catchnumber,response_time_catch,Catch,mouse_11.x,mouse_11.y,mouse_11.leftButton,mouse_11.midButton,mouse_11.rightButton,trials_2.thisRepN,trials_2.thisTrialN,trials_2.thisN,trials_2.thisIndex,trials_2.ran,Colourpair,Temporder,mouse_3.clicked_name,mouse_11.clicked_name,trials_3.thisRepN,trials_3.thisTrialN,trials_3.thisN,trials_3.thisIndex,trials_3.ran,key_resp_instr_Ishi.keys,key_resp_instr_Ishi.rt,Ishi_trial_keyresp.keys,Ishi_trial_keyresp.rt,Ishi_textbox.text,Ishi_loop.thisRepN,Ishi_loop.thisTrialN,Ishi_loop.thisN,Ishi_loop.thisIndex,Ishi_loop.ran,imageaddress,textbox.text,mouse_4.x,mouse_4.y,mouse_4.leftButton,mouse_4.midButton,mouse_4.rightButton,mouse_4.clicked_name,textbox_2.text,mouse_8.x,mouse_8.y,mouse_8.leftButton,mouse_8.midButton,mouse_8.rightButton,mouse_8.clicked_name,textbox_3.text,mouse_9.x,mouse_9.y,mouse_9.leftButton,mouse_9.midButton,mouse_9.rightButton,mouse_9.clicked_name,textbox_4.text,mouse_12.x,mouse_12.y,mouse_12.leftButton,mouse_12.midButton,mouse_12.rightButton,mouse_12.clicked_name,textbox_5.text,mouse_13.x,mouse_13.y,mouse_13.leftButton,mouse_13.midButton,mouse_13.rightButton,mouse_13.clicked_name,textbox_6.text,mouse_14.x,mouse_14.y,mouse_14.leftButton,mouse_14.midButton,mouse_14.rightButton,mouse_14.clicked_name,textbox_7.text,mouse_15.x,mouse_15.y,mouse_15.leftButton,mouse_15.midButton,mouse_15.rightButton,mouse_15.clicked_name
0,0,0,65,1,,61716a16c157db249e36fc46,62bbfab4aab8c72820507257,2022-06-29_09h12.47.457,Colour_Asymmetry_Pilot,2022.1.3,Win32,60.59871531,62bbe60bf3d75ef465d3e404,,,,,,,,,,,,,,,,,,,,,,,,,,,,,,,,,,,,,,,,,,,,,,,,,,,,,,,,,,,,,,,,,,,,,,,,,,,,,,,,,,,,,,,,,,,,,,,,,,,,,,,,,,,,,,,,,,,,,,,,,,,,,,,,,,,,,,,,,,,,,,,,,,,,,,,,,,,,,,
0,1,1,20,1,,61716a16c157db249e36fc46,62bbfab4aab8c72820507257,2022-06-29_09h12.47.457,Colour_Asymmetry_Pilot,2022.1.3,Win32,60.59871531,62bbe60bf3d75ef465d3e404,,,,,,,,,,,,,,,,,,,,,,,,,,,,,,,,,,,,,,,,,,,,,,,,,,,,,,,,,,,,,,,,,,,,,,,,,,,,,,,,,,,,,,,,,,,,,,,,,,,,,,,,,,,,,,,,,,,,,,,,,,,,,,,,,,,,,,,,,,,,,,,,,,,,,,,,,,,,,,
0,2,2,33,1,,61716a16c157db249e36fc46,62bbfab4aab8c72820507257,2022-06-29_09h12.47.457,Colour_Asymmetry_Pilot,2022.1.3,Win32,60.59871531,62bbe60bf3d75ef465d3e404,,,,,,,,,,,,,,,,,,,,,,,,,,,,,,,,,,,,,,,,,,,,,,,,,,,,,,,,,,,,,,,,,,,,,,,,,,,,,,,,,,,,,,,,,,,,,,,,,,,,,,,,,,,,,,,,,,,,,,,,,,,,,,,,,,,,,,,,,,,,,,,,,,,,,,,,,,,,,,
0,3,3,29,1,,61716a16c157db249e36fc46,62bbfab4aab8c72820507257,2022-06-29_09h12.47.457,Colour_Asymmetry_Pilot,2022.1.3,Win32,60.59871531,62bbe60bf3d75ef465d3e404,,,,,,,,,,,,,,,,,,,,,,,,,,,,,,,,,,,,,,,,,,,,,,,,,,,,,,,,,,,,,,,,,,,,,,,,,,,,,,,,,,,,,,,,,,,,,,,,,,,,,,,,,,,,,,,,,,,,,,,,,,,,,,,,,,,,,,,,,,,,,,,,,,,,,,,,,,,,,,
0,4,4,81,1,,61716a16c157db249e36fc46,62bbfab4aab8c72820507257,2022-06-29_09h12.47.457,Colour_Asymmetry_Pilot,2022.1.3,Win32,60.59871531,62bbe60bf3d75ef465d3e404,,,,,,,,,,,,,,,,,,,,,,,,,,,,,,,,,,,,,,,,,,,,,,,,,,,,,,,,,,,,,,,,,,,,,,,,,,,,,,,,,,,,,,,,,,,,,,,,,,,,,,,,,,,,,,,,,,,,,,,,,,,,,,,,,,,,,,,,,,,,,,,,,,,,,,,,,,,,,,
0,5,5,19,1,,61716a16c157db249e36fc46,62bbfab4aab8c72820507257,2022-06-29_09h12.47.457,Colour_Asymmetry_Pilot,2022.1.3,Win32,60.59871531,62bbe60bf3d75ef465d3e404,,,,,,,,,,,,,,,,,,,,,,,,,,,,,,,,,,,,,,,,,,,,,,,,,,,,,,,,,,,,,,,,,,,,,,,,,,,,,,,,,,,,,,,,,,,,,,,,,,,,,,,,,,,,,,,,,,,,,,,,,,,,,,,,,,,,,,,,,,,,,,,,,,,,,,,,,,,,,,
0,6,6,41,1,,61716a16c157db249e36fc46,62bbfab4aab8c72820507257,2022-06-29_09h12.47.457,Colour_Asymmetry_Pilot,2022.1.3,Win32,60.59871531,62bbe60bf3d75ef465d3e404,,,,,,,,,,,,,,,,,,,,,,,,,,,,,,,,,,,,,,,,,,,,,,,,,,,,,,,,,,,,,,,,,,,,,,,,,,,,,,,,,,,,,,,,,,,,,,,,,,,,,,,,,,,,,,,,,,,,,,,,,,,,,,,,,,,,,,,,,,,,,,,,,,,,,,,,,,,,,,
0,7,7,82,1,,61716a16c157db249e36fc46,62bbfab4aab8c72820507257,2022-06-29_09h12.47.457,Colour_Asymmetry_Pilot,2022.1.3,Win32,60.59871531,62bbe60bf3d75ef465d3e404,,,,,,,,,,,,,,,,,,,,,,,,,,,,,,,,,,,,,,,,,,,,,,,,,,,,,,,,,,,,,,,,,,,,,,,,,,,,,,,,,,,,,,,,,,,,,,,,,,,,,,,,,,,,,,,,,,,,,,,,,,,,,,,,,,,,,,,,,,,,,,,,,,,,,,,,,,,,,,
0,8,8,48,1,,61716a16c157db249e36fc46,62bbfab4aab8c72820507257,2022-06-29_09h12.47.457,Colour_Asymmetry_Pilot,2022.1.3,Win32,60.59871531,62bbe60bf3d75ef465d3e404,,,,,,,,,,,,,,,,,,,,,,,,,,,,,,,,,,,,,,,,,,,,,,,,,,,,,,,,,,,,,,,,,,,,,,,,,,,,,,,,,,,,,,,,,,,,,,,,,,,,,,,,,,,,,,,,,,,,,,,,,,,,,,,,,,,,,,,,,,,,,,,,,,,,,,,,,,,,,,
0,9,9,39,1,,61716a16c157db249e36fc46,62bbfab4aab8c72820507257,2022-06-29_09h12.47.457,Colour_Asymmetry_Pilot,2022.1.3,Win32,60.59871531,62bbe60bf3d75ef465d3e404,,,,,,,,,,,,,,,,,,,,,,,,,,,,,,,,,,,,,,,,,,,,,,,,,,,,,,,,,,,,,,,,,,,,,,,,,,,,,,,,,,,,,,,,,,,,,,,,,,,,,,,,,,,,,,,,,,,,,,,,,,,,,,,,,,,,,,,,,,,,,,,,,,,,,,,,,,,,,,
0,10,10,21,1,,61716a16c157db249e36fc46,62bbfab4aab8c72820507257,2022-06-29_09h12.47.457,Colour_Asymmetry_Pilot,2022.1.3,Win32,60.59871531,62bbe60bf3d75ef465d3e404,,,,,,,,,,,,,,,,,,,,,,,,,,,,,,,,,,,,,,,,,,,,,,,,,,,,,,,,,,,,,,,,,,,,,,,,,,,,,,,,,,,,,,,,,,,,,,,,,,,,,,,,,,,,,,,,,,,,,,,,,,,,,,,,,,,,,,,,,,,,,,,,,,,,,,,,,,,,,,
0,11,11,56,1,,61716a16c157db249e36fc46,62bbfab4aab8c72820507257,2022-06-29_09h12.47.457,Colour_Asymmetry_Pilot,2022.1.3,Win32,60.59871531,62bbe60bf3d75ef465d3e404,,,,,,,,,,,,,,,,,,,,,,,,,,,,,,,,,,,,,,,,,,,,,,,,,,,,,,,,,,,,,,,,,,,,,,,,,,,,,,,,,,,,,,,,,,,,,,,,,,,,,,,,,,,,,,,,,,,,,,,,,,,,,,,,,,,,,,,,,,,,,,,,,,,,,,,,,,,,,,
0,12,12,78,1,,61716a16c157db249e36fc46,62bbfab4aab8c72820507257,2022-06-29_09h12.47.457,Colour_Asymmetry_Pilot,2022.1.3,Win32,60.59871531,62bbe60bf3d75ef465d3e404,,,,,,,,,,,,,,,,,,,,,,,,,,,,,,,,,,,,,,,,,,,,,,,,,,,,,,,,,,,,,,,,,,,,,,,,,,,,,,,,,,,,,,,,,,,,,,,,,,,,,,,,,,,,,,,,,,,,,,,,,,,,,,,,,,,,,,,,,,,,,,,,,,,,,,,,,,,,,,
0,13,13,26,1,,61716a16c157db249e36fc46,62bbfab4aab8c72820507257,2022-06-29_09h12.47.457,Colour_Asymmetry_Pilot,2022.1.3,Win32,60.59871531,62bbe60bf3d75ef465d3e404,,,,,,,,,,,,,,,,,,,,,,,,,,,,,,,,,,,,,,,,,,,,,,,,,,,,,,,,,,,,,,,,,,,,,,,,,,,,,,,,,,,,,,,,,,,,,,,,,,,,,,,,,,,,,,,,,,,,,,,,,,,,,,,,,,,,,,,,,,,,,,,,,,,,,,,,,,,,,,
0,14,14,10,1,,61716a16c157db249e36fc46,62bbfab4aab8c72820507257,2022-06-29_09h12.47.457,Colour_Asymmetry_Pilot,2022.1.3,Win32,60.59871531,62bbe60bf3d75ef465d3e404,,,,,,,,,,,,,,,,,,,,,,,,,,,,,,,,,,,,,,,,,,,,,,,,,,,,,,,,,,,,,,,,,,,,,,,,,,,,,,,,,,,,,,,,,,,,,,,,,,,,,,,,,,,,,,,,,,,,,,,,,,,,,,,,,,,,,,,,,,,,,,,,,,,,,,,,,,,,,,
0,15,15,80,1,,61716a16c157db249e36fc46,62bbfab4aab8c72820507257,2022-06-29_09h12.47.457,Colour_Asymmetry_Pilot,2022.1.3,Win32,60.59871531,62bbe60bf3d75ef465d3e404,,,,,,,,,,,,,,,,,,,,,,,,,,,,,,,,,,,,,,,,,,,,,,,,,,,,,,,,,,,,,,,,,,,,,,,,,,,,,,,,,,,,,,,,,,,,,,,,,,,,,,,,,,,,,,,,,,,,,,,,,,,,,,,,,,,,,,,,,,,,,,,,,,,,,,,,,,,,,,
0,16,16,54,1,,61716a16c157db249e36fc46,62bbfab4aab8c72820507257,2022-06-29_09h12.47.457,Colour_Asymmetry_Pilot,2022.1.3,Win32,60.59871531,62bbe60bf3d75ef465d3e404,,,,,,,,,,,,,,,,,,,,,,,,,,,,,,,,,,,,,,,,,,,,,,,,,,,,,,,,,,,,,,,,,,,,,,,,,,,,,,,,,,,,,,,,,,,,,,,,,,,,,,,,,,,,,,,,,,,,,,,,,,,,,,,,,,,,,,,,,,,,,,,,,,,,,,,,,,,,,,
0,17,17,92,1,,61716a16c157db249e36fc46,62bbfab4aab8c72820507257,2022-06-29_09h12.47.457,Colour_Asymmetry_Pilot,2022.1.3,Win32,60.59871531,62bbe60bf3d75ef465d3e404,,,,,,,,,,,,,,,,,,,,,,,,,,,,,,,,,,,,,,,,,,,,,,,,,,,,,,,,,,,,,,,,,,,,,,,,,,,,,,,,,,,,,,,,,,,,,,,,,,,,,,,,,,,,,,,,,,,,,,,,,,,,,,,,,,,,,,,,,,,,,,,,,,,,,,,,,,,,,,
0,18,18,16,1,,61716a16c157db249e36fc46,62bbfab4aab8c72820507257,2022-06-29_09h12.47.457,Colour_Asymmetry_Pilot,2022.1.3,Win32,60.59871531,62bbe60bf3d75ef465d3e404,,,,,,,,,,,,,,,,,,,,,,,,,,,,,,,,,,,,,,,,,,,,,,,,,,,,,,,,,,,,,,,,,,,,,,,,,,,,,,,,,,,,,,,,,,,,,,,,,,,,,,,,,,,,,,,,,,,,,,,,,,,,,,,,,,,,,,,,,,,,,,,,,,,,,,,,,,,,,,
0,19,19,17,1,,61716a16c157db249e36fc46,62bbfab4aab8c72820507257,2022-06-29_09h12.47.457,Colour_Asymmetry_Pilot,2022.1.3,Win32,60.59871531,62bbe60bf3d75ef465d3e404,,,,,,,,,,,,,,,,,,,,,,,,,,,,,,,,,,,,,,,,,,,,,,,,,,,,,,,,,,,,,,,,,,,,,,,,,,,,,,,,,,,,,,,,,,,,,,,,,,,,,,,,,,,,,,,,,,,,,,,,,,,,,,,,,,,,,,,,,,,,,,,,,,,,,,,,,,,,,,
0,20,20,24,1,,61716a16c157db249e36fc46,62bbfab4aab8c72820507257,2022-06-29_09h12.47.457,Colour_Asymmetry_Pilot,2022.1.3,Win32,60.59871531,62bbe60bf3d75ef465d3e404,,,,,,,,,,,,,,,,,,,,,,,,,,,,,,,,,,,,,,,,,,,,,,,,,,,,,,,,,,,,,,,,,,,,,,,,,,,,,,,,,,,,,,,,,,,,,,,,,,,,,,,,,,,,,,,,,,,,,,,,,,,,,,,,,,,,,,,,,,,,,,,,,,,,,,,,,,,,,,
0,21,21,74,1,,61716a16c157db249e36fc46,62bbfab4aab8c72820507257,2022-06-29_09h12.47.457,Colour_Asymmetry_Pilot,2022.1.3,Win32,60.59871531,62bbe60bf3d75ef465d3e404,,,,,,,,,,,,,,,,,,,,,,,,,,,,,,,,,,,,,,,,,,,,,,,,,,,,,,,,,,,,,,,,,,,,,,,,,,,,,,,,,,,,,,,,,,,,,,,,,,,,,,,,,,,,,,,,,,,,,,,,,,,,,,,,,,,,,,,,,,,,,,,,,,,,,,,,,,,,,,
0,22,22,91,1,,61716a16c157db249e36fc46,62bbfab4aab8c72820507257,2022-06-29_09h12.47.457,Colour_Asymmetry_Pilot,2022.1.3,Win32,60.59871531,62bbe60bf3d75ef465d3e404,,,,,,,,,,,,,,,,,,,,,,,,,,,,,,,,,,,,,,,,,,,,,,,,,,,,,,,,,,,,,,,,,,,,,,,,,,,,,,,,,,,,,,,,,,,,,,,,,,,,,,,,,,,,,,,,,,,,,,,,,,,,,,,,,,,,,,,,,,,,,,,,,,,,,,,,,,,,,,
0,23,23,46,1,,61716a16c157db249e36fc46,62bbfab4aab8c72820507257,2022-06-29_09h12.47.457,Colour_Asymmetry_Pilot,2022.1.3,Win32,60.59871531,62bbe60bf3d75ef465d3e404,,,,,,,,,,,,,,,,,,,,,,,,,,,,,,,,,,,,,,,,,,,,,,,,,,,,,,,,,,,,,,,,,,,,,,,,,,,,,,,,,,,,,,,,,,,,,,,,,,,,,,,,,,,,,,,,,,,,,,,,,,,,,,,,,,,,,,,,,,,,,,,,,,,,,,,,,,,,,,
0,24,24,12,1,,61716a16c157db249e36fc46,62bbfab4aab8c72820507257,2022-06-29_09h12.47.457,Colour_Asymmetry_Pilot,2022.1.3,Win32,60.59871531,62bbe60bf3d75ef465d3e404,,,,,,,,,,,,,,,,,,,,,,,,,,,,,,,,,,,,,,,,,,,,,,,,,,,,,,,,,,,,,,,,,,,,,,,,,,,,,,,,,,,,,,,,,,,,,,,,,,,,,,,,,,,,,,,,,,,,,,,,,,,,,,,,,,,,,,,,,,,,,,,,,,,,,,,,,,,,,,
0,25,25,47,1,,61716a16c157db249e36fc46,62bbfab4aab8c72820507257,2022-06-29_09h12.47.457,Colour_Asymmetry_Pilot,2022.1.3,Win32,60.59871531,62bbe60bf3d75ef465d3e404,,,,,,,,,,,,,,,,,,,,,,,,,,,,,,,,,,,,,,,,,,,,,,,,,,,,,,,,,,,,,,,,,,,,,,,,,,,,,,,,,,,,,,,,,,,,,,,,,,,,,,,,,,,,,,,,,,,,,,,,,,,,,,,,,,,,,,,,,,,,,,,,,,,,,,,,,,,,,,
0,26,26,66,1,,61716a16c157db249e36fc46,62bbfab4aab8c72820507257,2022-06-29_09h12.47.457,Colour_Asymmetry_Pilot,2022.1.3,Win32,60.59871531,62bbe60bf3d75ef465d3e404,,,,,,,,,,,,,,,,,,,,,,,,,,,,,,,,,,,,,,,,,,,,,,,,,,,,,,,,,,,,,,,,,,,,,,,,,,,,,,,,,,,,,,,,,,,,,,,,,,,,,,,,,,,,,,,,,,,,,,,,,,,,,,,,,,,,,,,,,,,,,,,,,,,,,,,,,,,,,,
0,27,27,77,1,,61716a16c157db249e36fc46,62bbfab4aab8c72820507257,2022-06-29_09h12.47.457,Colour_Asymmetry_Pilot,2022.1.3,Win32,60.59871531,62bbe60bf3d75ef465d3e404,,,,,,,,,,,,,,,,,,,,,,,,,,,,,,,,,,,,,,,,,,,,,,,,,,,,,,,,,,,,,,,,,,,,,,,,,,,,,,,,,,,,,,,,,,,,,,,,,,,,,,,,,,,,,,,,,,,,,,,,,,,,,,,,,,,,,,,,,,,,,,,,,,,,,,,,,,,,,,
0,28,28,73,1,,61716a16c157db249e36fc46,62bbfab4aab8c72820507257,2022-06-29_09h12.47.457,Colour_Asymmetry_Pilot,2022.1.3,Win32,60.59871531,62bbe60bf3d75ef465d3e404,,,,,,,,,,,,,,,,,,,,,,,,,,,,,,,,,,,,,,,,,,,,,,,,,,,,,,,,,,,,,,,,,,,,,,,,,,,,,,,,,,,,,,,,,,,,,,,,,,,,,,,,,,,,,,,,,,,,,,,,,,,,,,,,,,,,,,,,,,,,,,,,,,,,,,,,,,,,,,
0,29,29,76,1,,61716a16c157db249e36fc46,62bbfab4aab8c72820507257,2022-06-29_09h12.47.457,Colour_Asymmetry_Pilot,2022.1.3,Win32,60.59871531,62bbe60bf3d75ef465d3e404,,,,,,,,,,,,,,,,,,,,,,,,,,,,,,,,,,,,,,,,,,,,,,,,,,,,,,,,,,,,,,,,,,,,,,,,,,,,,,,,,,,,,,,,,,,,,,,,,,,,,,,,,,,,,,,,,,,,,,,,,,,,,,,,,,,,,,,,,,,,,,,,,,,,,,,,,,,,,,
0,30,30,90,1,,61716a16c157db249e36fc46,62bbfab4aab8c72820507257,2022-06-29_09h12.47.457,Colour_Asymmetry_Pilot,2022.1.3,Win32,60.59871531,62bbe60bf3d75ef465d3e404,,,,,,,,,,,,,,,,,,,,,,,,,,,,,,,,,,,,,,,,,,,,,,,,,,,,,,,,,,,,,,,,,,,,,,,,,,,,,,,,,,,,,,,,,,,,,,,,,,,,,,,,,,,,,,,,,,,,,,,,,,,,,,,,,,,,,,,,,,,,,,,,,,,,,,,,,,,,,,
0,31,31,28,1,,61716a16c157db249e36fc46,62bbfab4aab8c72820507257,2022-06-29_09h12.47.457,Colour_Asymmetry_Pilot,2022.1.3,Win32,60.59871531,62bbe60bf3d75ef465d3e404,,,,,,,,,,,,,,,,,,,,,,,,,,,,,,,,,,,,,,,,,,,,,,,,,,,,,,,,,,,,,,,,,,,,,,,,,,,,,,,,,,,,,,,,,,,,,,,,,,,,,,,,,,,,,,,,,,,,,,,,,,,,,,,,,,,,,,,,,,,,,,,,,,,,,,,,,,,,,,
0,32,32,72,1,,61716a16c157db249e36fc46,62bbfab4aab8c72820507257,2022-06-29_09h12.47.457,Colour_Asymmetry_Pilot,2022.1.3,Win32,60.59871531,62bbe60bf3d75ef465d3e404,,,,,,,,,,,,,,,,,,,,,,,,,,,,,,,,,,,,,,,,,,,,,,,,,,,,,,,,,,,,,,,,,,,,,,,,,,,,,,,,,,,,,,,,,,,,,,,,,,,,,,,,,,,,,,,,,,,,,,,,,,,,,,,,,,,,,,,,,,,,,,,,,,,,,,,,,,,,,,
0,33,33,87,1,,61716a16c157db249e36fc46,62bbfab4aab8c72820507257,2022-06-29_09h12.47.457,Colour_Asymmetry_Pilot,2022.1.3,Win32,60.59871531,62bbe60bf3d75ef465d3e404,,,,,,,,,,,,,,,,,,,,,,,,,,,,,,,,,,,,,,,,,,,,,,,,,,,,,,,,,,,,,,,,,,,,,,,,,,,,,,,,,,,,,,,,,,,,,,,,,,,,,,,,,,,,,,,,,,,,,,,,,,,,,,,,,,,,,,,,,,,,,,,,,,,,,,,,,,,,,,
0,34,34,44,1,,61716a16c157db249e36fc46,62bbfab4aab8c72820507257,2022-06-29_09h12.47.457,Colour_Asymmetry_Pilot,2022.1.3,Win32,60.59871531,62bbe60bf3d75ef465d3e404,,,,,,,,,,,,,,,,,,,,,,,,,,,,,,,,,,,,,,,,,,,,,,,,,,,,,,,,,,,,,,,,,,,,,,,,,,,,,,,,,,,,,,,,,,,,,,,,,,,,,,,,,,,,,,,,,,,,,,,,,,,,,,,,,,,,,,,,,,,,,,,,,,,,,,,,,,,,,,
0,35,35,89,1,,61716a16c157db249e36fc46,62bbfab4aab8c72820507257,2022-06-29_09h12.47.457,Colour_Asymmetry_Pilot,2022.1.3,Win32,60.59871531,62bbe60bf3d75ef465d3e404,,,,,,,,,,,,,,,,,,,,,,,,,,,,,,,,,,,,,,,,,,,,,,,,,,,,,,,,,,,,,,,,,,,,,,,,,,,,,,,,,,,,,,,,,,,,,,,,,,,,,,,,,,,,,,,,,,,,,,,,,,,,,,,,,,,,,,,,,,,,,,,,,,,,,,,,,,,,,,
0,36,36,36,1,,61716a16c157db249e36fc46,62bbfab4aab8c72820507257,2022-06-29_09h12.47.457,Colour_Asymmetry_Pilot,2022.1.3,Win32,60.59871531,62bbe60bf3d75ef465d3e404,,,,,,,,,,,,,,,,,,,,,,,,,,,,,,,,,,,,,,,,,,,,,,,,,,,,,,,,,,,,,,,,,,,,,,,,,,,,,,,,,,,,,,,,,,,,,,,,,,,,,,,,,,,,,,,,,,,,,,,,,,,,,,,,,,,,,,,,,,,,,,,,,,,,,,,,,,,,,,
0,37,37,37,1,,61716a16c157db249e36fc46,62bbfab4aab8c72820507257,2022-06-29_09h12.47.457,Colour_Asymmetry_Pilot,2022.1.3,Win32,60.59871531,62bbe60bf3d75ef465d3e404,,,,,,,,,,,,,,,,,,,,,,,,,,,,,,,,,,,,,,,,,,,,,,,,,,,,,,,,,,,,,,,,,,,,,,,,,,,,,,,,,,,,,,,,,,,,,,,,,,,,,,,,,,,,,,,,,,,,,,,,,,,,,,,,,,,,,,,,,,,,,,,,,,,,,,,,,,,,,,
0,38,38,60,1,,61716a16c157db249e36fc46,62bbfab4aab8c72820507257,2022-06-29_09h12.47.457,Colour_Asymmetry_Pilot,2022.1.3,Win32,60.59871531,62bbe60bf3d75ef465d3e404,,,,,,,,,,,,,,,,,,,,,,,,,,,,,,,,,,,,,,,,,,,,,,,,,,,,,,,,,,,,,,,,,,,,,,,,,,,,,,,,,,,,,,,,,,,,,,,,,,,,,,,,,,,,,,,,,,,,,,,,,,,,,,,,,,,,,,,,,,,,,,,,,,,,,,,,,,,,,,
0,39,39,57,1,,61716a16c157db249e36fc46,62bbfab4aab8c72820507257,2022-06-29_09h12.47.457,Colour_Asymmetry_Pilot,2022.1.3,Win32,60.59871531,62bbe60bf3d75ef465d3e404,,,,,,,,,,,,,,,,,,,,,,,,,,,,,,,,,,,,,,,,,,,,,,,,,,,,,,,,,,,,,,,,,,,,,,,,,,,,,,,,,,,,,,,,,,,,,,,,,,,,,,,,,,,,,,,,,,,,,,,,,,,,,,,,,,,,,,,,,,,,,,,,,,,,,,,,,,,,,,
0,40,40,22,1,,61716a16c157db249e36fc46,62bbfab4aab8c72820507257,2022-06-29_09h12.47.457,Colour_Asymmetry_Pilot,2022.1.3,Win32,60.59871531,62bbe60bf3d75ef465d3e404,,,,,,,,,,,,,,,,,,,,,,,,,,,,,,,,,,,,,,,,,,,,,,,,,,,,,,,,,,,,,,,,,,,,,,,,,,,,,,,,,,,,,,,,,,,,,,,,,,,,,,,,,,,,,,,,,,,,,,,,,,,,,,,,,,,,,,,,,,,,,,,,,,,,,,,,,,,,,,
0,41,41,30,1,,61716a16c157db249e36fc46,62bbfab4aab8c72820507257,2022-06-29_09h12.47.457,Colour_Asymmetry_Pilot,2022.1.3,Win32,60.59871531,62bbe60bf3d75ef465d3e404,,,,,,,,,,,,,,,,,,,,,,,,,,,,,,,,,,,,,,,,,,,,,,,,,,,,,,,,,,,,,,,,,,,,,,,,,,,,,,,,,,,,,,,,,,,,,,,,,,,,,,,,,,,,,,,,,,,,,,,,,,,,,,,,,,,,,,,,,,,,,,,,,,,,,,,,,,,,,,
0,42,42,59,1,,61716a16c157db249e36fc46,62bbfab4aab8c72820507257,2022-06-29_09h12.47.457,Colour_Asymmetry_Pilot,2022.1.3,Win32,60.59871531,62bbe60bf3d75ef465d3e404,,,,,,,,,,,,,,,,,,,,,,,,,,,,,,,,,,,,,,,,,,,,,,,,,,,,,,,,,,,,,,,,,,,,,,,,,,,,,,,,,,,,,,,,,,,,,,,,,,,,,,,,,,,,,,,,,,,,,,,,,,,,,,,,,,,,,,,,,,,,,,,,,,,,,,,,,,,,,,
0,43,43,11,1,,61716a16c157db249e36fc46,62bbfab4aab8c72820507257,2022-06-29_09h12.47.457,Colour_Asymmetry_Pilot,2022.1.3,Win32,60.59871531,62bbe60bf3d75ef465d3e404,,,,,,,,,,,,,,,,,,,,,,,,,,,,,,,,,,,,,,,,,,,,,,,,,,,,,,,,,,,,,,,,,,,,,,,,,,,,,,,,,,,,,,,,,,,,,,,,,,,,,,,,,,,,,,,,,,,,,,,,,,,,,,,,,,,,,,,,,,,,,,,,,,,,,,,,,,,,,,
0,44,44,58,1,,61716a16c157db249e36fc46,62bbfab4aab8c72820507257,2022-06-29_09h12.47.457,Colour_Asymmetry_Pilot,2022.1.3,Win32,60.59871531,62bbe60bf3d75ef465d3e404,,,,,,,,,,,,,,,,,,,,,,,,,,,,,,,,,,,,,,,,,,,,,,,,,,,,,,,,,,,,,,,,,,,,,,,,,,,,,,,,,,,,,,,,,,,,,,,,,,,,,,,,,,,,,,,,,,,,,,,,,,,,,,,,,,,,,,,,,,,,,,,,,,,,,,,,,,,,,,
0,45,45,64,1,,61716a16c157db249e36fc46,62bbfab4aab8c72820507257,2022-06-29_09h12.47.457,Colour_Asymmetry_Pilot,2022.1.3,Win32,60.59871531,62bbe60bf3d75ef465d3e404,,,,,,,,,,,,,,,,,,,,,,,,,,,,,,,,,,,,,,,,,,,,,,,,,,,,,,,,,,,,,,,,,,,,,,,,,,,,,,,,,,,,,,,,,,,,,,,,,,,,,,,,,,,,,,,,,,,,,,,,,,,,,,,,,,,,,,,,,,,,,,,,,,,,,,,,,,,,,,
0,46,46,6,1,,61716a16c157db249e36fc46,62bbfab4aab8c72820507257,2022-06-29_09h12.47.457,Colour_Asymmetry_Pilot,2022.1.3,Win32,60.59871531,62bbe60bf3d75ef465d3e404,,,,,,,,,,,,,,,,,,,,,,,,,,,,,,,,,,,,,,,,,,,,,,,,,,,,,,,,,,,,,,,,,,,,,,,,,,,,,,,,,,,,,,,,,,,,,,,,,,,,,,,,,,,,,,,,,,,,,,,,,,,,,,,,,,,,,,,,,,,,,,,,,,,,,,,,,,,,,,
0,47,47,25,1,,61716a16c157db249e36fc46,62bbfab4aab8c72820507257,2022-06-29_09h12.47.457,Colour_Asymmetry_Pilot,2022.1.3,Win32,60.59871531,62bbe60bf3d75ef465d3e404,,,,,,,,,,,,,,,,,,,,,,,,,,,,,,,,,,,,,,,,,,,,,,,,,,,,,,,,,,,,,,,,,,,,,,,,,,,,,,,,,,,,,,,,,,,,,,,,,,,,,,,,,,,,,,,,,,,,,,,,,,,,,,,,,,,,,,,,,,,,,,,,,,,,,,,,,,,,,,
0,48,48,1,1,,61716a16c157db249e36fc46,62bbfab4aab8c72820507257,2022-06-29_09h12.47.457,Colour_Asymmetry_Pilot,2022.1.3,Win32,60.59871531,62bbe60bf3d75ef465d3e404,,,,,,,,,,,,,,,,,,,,,,,,,,,,,,,,,,,,,,,,,,,,,,,,,,,,,,,,,,,,,,,,,,,,,,,,,,,,,,,,,,,,,,,,,,,,,,,,,,,,,,,,,,,,,,,,,,,,,,,,,,,,,,,,,,,,,,,,,,,,,,,,,,,,,,,,,,,,,,
0,49,49,88,1,,61716a16c157db249e36fc46,62bbfab4aab8c72820507257,2022-06-29_09h12.47.457,Colour_Asymmetry_Pilot,2022.1.3,Win32,60.59871531,62bbe60bf3d75ef465d3e404,,,,,,,,,,,,,,,,,,,,,,,,,,,,,,,,,,,,,,,,,,,,,,,,,,,,,,,,,,,,,,,,,,,,,,,,,,,,,,,,,,,,,,,,,,,,,,,,,,,,,,,,,,,,,,,,,,,,,,,,,,,,,,,,,,,,,,,,,,,,,,,,,,,,,,,,,,,,,,
0,50,50,61,1,,61716a16c157db249e36fc46,62bbfab4aab8c72820507257,2022-06-29_09h12.47.457,Colour_Asymmetry_Pilot,2022.1.3,Win32,60.59871531,62bbe60bf3d75ef465d3e404,,,,,,,,,,,,,,,,,,,,,,,,,,,,,,,,,,,,,,,,,,,,,,,,,,,,,,,,,,,,,,,,,,,,,,,,,,,,,,,,,,,,,,,,,,,,,,,,,,,,,,,,,,,,,,,,,,,,,,,,,,,,,,,,,,,,,,,,,,,,,,,,,,,,,,,,,,,,,,
0,51,51,52,1,,61716a16c157db249e36fc46,62bbfab4aab8c72820507257,2022-06-29_09h12.47.457,Colour_Asymmetry_Pilot,2022.1.3,Win32,60.59871531,62bbe60bf3d75ef465d3e404,,,,,,,,,,,,,,,,,,,,,,,,,,,,,,,,,,,,,,,,,,,,,,,,,,,,,,,,,,,,,,,,,,,,,,,,,,,,,,,,,,,,,,,,,,,,,,,,,,,,,,,,,,,,,,,,,,,,,,,,,,,,,,,,,,,,,,,,,,,,,,,,,,,,,,,,,,,,,,
0,52,52,43,1,,61716a16c157db249e36fc46,62bbfab4aab8c72820507257,2022-06-29_09h12.47.457,Colour_Asymmetry_Pilot,2022.1.3,Win32,60.59871531,62bbe60bf3d75ef465d3e404,,,,,,,,,,,,,,,,,,,,,,,,,,,,,,,,,,,,,,,,,,,,,,,,,,,,,,,,,,,,,,,,,,,,,,,,,,,,,,,,,,,,,,,,,,,,,,,,,,,,,,,,,,,,,,,,,,,,,,,,,,,,,,,,,,,,,,,,,,,,,,,,,,,,,,,,,,,,,,
0,53,53,63,1,,61716a16c157db249e36fc46,62bbfab4aab8c72820507257,2022-06-29_09h12.47.457,Colour_Asymmetry_Pilot,2022.1.3,Win32,60.59871531,62bbe60bf3d75ef465d3e404,,,,,,,,,,,,,,,,,,,,,,,,,,,,,,,,,,,,,,,,,,,,,,,,,,,,,,,,,,,,,,,,,,,,,,,,,,,,,,,,,,,,,,,,,,,,,,,,,,,,,,,,,,,,,,,,,,,,,,,,,,,,,,,,,,,,,,,,,,,,,,,,,,,,,,,,,,,,,,
0,54,54,38,1,,61716a16c157db249e36fc46,62bbfab4aab8c72820507257,2022-06-29_09h12.47.457,Colour_Asymmetry_Pilot,2022.1.3,Win32,60.59871531,62bbe60bf3d75ef465d3e404,,,,,,,,,,,,,,,,,,,,,,,,,,,,,,,,,,,,,,,,,,,,,,,,,,,,,,,,,,,,,,,,,,,,,,,,,,,,,,,,,,,,,,,,,,,,,,,,,,,,,,,,,,,,,,,,,,,,,,,,,,,,,,,,,,,,,,,,,,,,,,,,,,,,,,,,,,,,,,
0,55,55,8,1,,61716a16c157db249e36fc46,62bbfab4aab8c72820507257,2022-06-29_09h12.47.457,Colour_Asymmetry_Pilot,2022.1.3,Win32,60.59871531,62bbe60bf3d75ef465d3e404,,,,,,,,,,,,,,,,,,,,,,,,,,,,,,,,,,,,,,,,,,,,,,,,,,,,,,,,,,,,,,,,,,,,,,,,,,,,,,,,,,,,,,,,,,,,,,,,,,,,,,,,,,,,,,,,,,,,,,,,,,,,,,,,,,,,,,,,,,,,,,,,,,,,,,,,,,,,,,
0,56,56,4,1,,61716a16c157db249e36fc46,62bbfab4aab8c72820507257,2022-06-29_09h12.47.457,Colour_Asymmetry_Pilot,2022.1.3,Win32,60.59871531,62bbe60bf3d75ef465d3e404,,,,,,,,,,,,,,,,,,,,,,,,,,,,,,,,,,,,,,,,,,,,,,,,,,,,,,,,,,,,,,,,,,,,,,,,,,,,,,,,,,,,,,,,,,,,,,,,,,,,,,,,,,,,,,,,,,,,,,,,,,,,,,,,,,,,,,,,,,,,,,,,,,,,,,,,,,,,,,
0,57,57,49,1,,61716a16c157db249e36fc46,62bbfab4aab8c72820507257,2022-06-29_09h12.47.457,Colour_Asymmetry_Pilot,2022.1.3,Win32,60.59871531,62bbe60bf3d75ef465d3e404,,,,,,,,,,,,,,,,,,,,,,,,,,,,,,,,,,,,,,,,,,,,,,,,,,,,,,,,,,,,,,,,,,,,,,,,,,,,,,,,,,,,,,,,,,,,,,,,,,,,,,,,,,,,,,,,,,,,,,,,,,,,,,,,,,,,,,,,,,,,,,,,,,,,,,,,,,,,,,
0,58,58,55,1,,61716a16c157db249e36fc46,62bbfab4aab8c72820507257,2022-06-29_09h12.47.457,Colour_Asymmetry_Pilot,2022.1.3,Win32,60.59871531,62bbe60bf3d75ef465d3e404,,,,,,,,,,,,,,,,,,,,,,,,,,,,,,,,,,,,,,,,,,,,,,,,,,,,,,,,,,,,,,,,,,,,,,,,,,,,,,,,,,,,,,,,,,,,,,,,,,,,,,,,,,,,,,,,,,,,,,,,,,,,,,,,,,,,,,,,,,,,,,,,,,,,,,,,,,,,,,
0,59,59,3,1,,61716a16c157db249e36fc46,62bbfab4aab8c72820507257,2022-06-29_09h12.47.457,Colour_Asymmetry_Pilot,2022.1.3,Win32,60.59871531,62bbe60bf3d75ef465d3e404,,,,,,,,,,,,,,,,,,,,,,,,,,,,,,,,,,,,,,,,,,,,,,,,,,,,,,,,,,,,,,,,,,,,,,,,,,,,,,,,,,,,,,,,,,,,,,,,,,,,,,,,,,,,,,,,,,,,,,,,,,,,,,,,,,,,,,,,,,,,,,,,,,,,,,,,,,,,,,
0,60,60,79,1,,61716a16c157db249e36fc46,62bbfab4aab8c72820507257,2022-06-29_09h12.47.457,Colour_Asymmetry_Pilot,2022.1.3,Win32,60.59871531,62bbe60bf3d75ef465d3e404,,,,,,,,,,,,,,,,,,,,,,,,,,,,,,,,,,,,,,,,,,,,,,,,,,,,,,,,,,,,,,,,,,,,,,,,,,,,,,,,,,,,,,,,,,,,,,,,,,,,,,,,,,,,,,,,,,,,,,,,,,,,,,,,,,,,,,,,,,,,,,,,,,,,,,,,,,,,,,
0,61,61,70,1,,61716a16c157db249e36fc46,62bbfab4aab8c72820507257,2022-06-29_09h12.47.457,Colour_Asymmetry_Pilot,2022.1.3,Win32,60.59871531,62bbe60bf3d75ef465d3e404,,,,,,,,,,,,,,,,,,,,,,,,,,,,,,,,,,,,,,,,,,,,,,,,,,,,,,,,,,,,,,,,,,,,,,,,,,,,,,,,,,,,,,,,,,,,,,,,,,,,,,,,,,,,,,,,,,,,,,,,,,,,,,,,,,,,,,,,,,,,,,,,,,,,,,,,,,,,,,
0,62,62,27,1,,61716a16c157db249e36fc46,62bbfab4aab8c72820507257,2022-06-29_09h12.47.457,Colour_Asymmetry_Pilot,2022.1.3,Win32,60.59871531,62bbe60bf3d75ef465d3e404,,,,,,,,,,,,,,,,,,,,,,,,,,,,,,,,,,,,,,,,,,,,,,,,,,,,,,,,,,,,,,,,,,,,,,,,,,,,,,,,,,,,,,,,,,,,,,,,,,,,,,,,,,,,,,,,,,,,,,,,,,,,,,,,,,,,,,,,,,,,,,,,,,,,,,,,,,,,,,
0,63,63,71,1,,61716a16c157db249e36fc46,62bbfab4aab8c72820507257,2022-06-29_09h12.47.457,Colour_Asymmetry_Pilot,2022.1.3,Win32,60.59871531,62bbe60bf3d75ef465d3e404,,,,,,,,,,,,,,,,,,,,,,,,,,,,,,,,,,,,,,,,,,,,,,,,,,,,,,,,,,,,,,,,,,,,,,,,,,,,,,,,,,,,,,,,,,,,,,,,,,,,,,,,,,,,,,,,,,,,,,,,,,,,,,,,,,,,,,,,,,,,,,,,,,,,,,,,,,,,,,
0,64,64,34,1,,61716a16c157db249e36fc46,62bbfab4aab8c72820507257,2022-06-29_09h12.47.457,Colour_Asymmetry_Pilot,2022.1.3,Win32,60.59871531,62bbe60bf3d75ef465d3e404,,,,,,,,,,,,,,,,,,,,,,,,,,,,,,,,,,,,,,,,,,,,,,,,,,,,,,,,,,,,,,,,,,,,,,,,,,,,,,,,,,,,,,,,,,,,,,,,,,,,,,,,,,,,,,,,,,,,,,,,,,,,,,,,,,,,,,,,,,,,,,,,,,,,,,,,,,,,,,
0,65,65,68,1,,61716a16c157db249e36fc46,62bbfab4aab8c72820507257,2022-06-29_09h12.47.457,Colour_Asymmetry_Pilot,2022.1.3,Win32,60.59871531,62bbe60bf3d75ef465d3e404,,,,,,,,,,,,,,,,,,,,,,,,,,,,,,,,,,,,,,,,,,,,,,,,,,,,,,,,,,,,,,,,,,,,,,,,,,,,,,,,,,,,,,,,,,,,,,,,,,,,,,,,,,,,,,,,,,,,,,,,,,,,,,,,,,,,,,,,,,,,,,,,,,,,,,,,,,,,,,
0,66,66,69,1,,61716a16c157db249e36fc46,62bbfab4aab8c72820507257,2022-06-29_09h12.47.457,Colour_Asymmetry_Pilot,2022.1.3,Win32,60.59871531,62bbe60bf3d75ef465d3e404,,,,,,,,,,,,,,,,,,,,,,,,,,,,,,,,,,,,,,,,,,,,,,,,,,,,,,,,,,,,,,,,,,,,,,,,,,,,,,,,,,,,,,,,,,,,,,,,,,,,,,,,,,,,,,,,,,,,,,,,,,,,,,,,,,,,,,,,,,,,,,,,,,,,,,,,,,,,,,
0,67,67,31,1,,61716a16c157db249e36fc46,62bbfab4aab8c72820507257,2022-06-29_09h12.47.457,Colour_Asymmetry_Pilot,2022.1.3,Win32,60.59871531,62bbe60bf3d75ef465d3e404,,,,,,,,,,,,,,,,,,,,,,,,,,,,,,,,,,,,,,,,,,,,,,,,,,,,,,,,,,,,,,,,,,,,,,,,,,,,,,,,,,,,,,,,,,,,,,,,,,,,,,,,,,,,,,,,,,,,,,,,,,,,,,,,,,,,,,,,,,,,,,,,,,,,,,,,,,,,,,
0,68,68,40,1,,61716a16c157db249e36fc46,62bbfab4aab8c72820507257,2022-06-29_09h12.47.457,Colour_Asymmetry_Pilot,2022.1.3,Win32,60.59871531,62bbe60bf3d75ef465d3e404,,,,,,,,,,,,,,,,,,,,,,,,,,,,,,,,,,,,,,,,,,,,,,,,,,,,,,,,,,,,,,,,,,,,,,,,,,,,,,,,,,,,,,,,,,,,,,,,,,,,,,,,,,,,,,,,,,,,,,,,,,,,,,,,,,,,,,,,,,,,,,,,,,,,,,,,,,,,,,
0,69,69,32,1,,61716a16c157db249e36fc46,62bbfab4aab8c72820507257,2022-06-29_09h12.47.457,Colour_Asymmetry_Pilot,2022.1.3,Win32,60.59871531,62bbe60bf3d75ef465d3e404,,,,,,,,,,,,,,,,,,,,,,,,,,,,,,,,,,,,,,,,,,,,,,,,,,,,,,,,,,,,,,,,,,,,,,,,,,,,,,,,,,,,,,,,,,,,,,,,,,,,,,,,,,,,,,,,,,,,,,,,,,,,,,,,,,,,,,,,,,,,,,,,,,,,,,,,,,,,,,
0,70,70,67,1,,61716a16c157db249e36fc46,62bbfab4aab8c72820507257,2022-06-29_09h12.47.457,Colour_Asymmetry_Pilot,2022.1.3,Win32,60.59871531,62bbe60bf3d75ef465d3e404,,,,,,,,,,,,,,,,,,,,,,,,,,,,,,,,,,,,,,,,,,,,,,,,,,,,,,,,,,,,,,,,,,,,,,,,,,,,,,,,,,,,,,,,,,,,,,,,,,,,,,,,,,,,,,,,,,,,,,,,,,,,,,,,,,,,,,,,,,,,,,,,,,,,,,,,,,,,,,
0,71,71,7,1,,61716a16c157db249e36fc46,62bbfab4aab8c72820507257,2022-06-29_09h12.47.457,Colour_Asymmetry_Pilot,2022.1.3,Win32,60.59871531,62bbe60bf3d75ef465d3e404,,,,,,,,,,,,,,,,,,,,,,,,,,,,,,,,,,,,,,,,,,,,,,,,,,,,,,,,,,,,,,,,,,,,,,,,,,,,,,,,,,,,,,,,,,,,,,,,,,,,,,,,,,,,,,,,,,,,,,,,,,,,,,,,,,,,,,,,,,,,,,,,,,,,,,,,,,,,,,
0,72,72,2,1,,61716a16c157db249e36fc46,62bbfab4aab8c72820507257,2022-06-29_09h12.47.457,Colour_Asymmetry_Pilot,2022.1.3,Win32,60.59871531,62bbe60bf3d75ef465d3e404,,,,,,,,,,,,,,,,,,,,,,,,,,,,,,,,,,,,,,,,,,,,,,,,,,,,,,,,,,,,,,,,,,,,,,,,,,,,,,,,,,,,,,,,,,,,,,,,,,,,,,,,,,,,,,,,,,,,,,,,,,,,,,,,,,,,,,,,,,,,,,,,,,,,,,,,,,,,,,
0,73,73,50,1,,61716a16c157db249e36fc46,62bbfab4aab8c72820507257,2022-06-29_09h12.47.457,Colour_Asymmetry_Pilot,2022.1.3,Win32,60.59871531,62bbe60bf3d75ef465d3e404,,,,,,,,,,,,,,,,,,,,,,,,,,,,,,,,,,,,,,,,,,,,,,,,,,,,,,,,,,,,,,,,,,,,,,,,,,,,,,,,,,,,,,,,,,,,,,,,,,,,,,,,,,,,,,,,,,,,,,,,,,,,,,,,,,,,,,,,,,,,,,,,,,,,,,,,,,,,,,
0,74,74,85,1,,61716a16c157db249e36fc46,62bbfab4aab8c72820507257,2022-06-29_09h12.47.457,Colour_Asymmetry_Pilot,2022.1.3,Win32,60.59871531,62bbe60bf3d75ef465d3e404,,,,,,,,,,,,,,,,,,,,,,,,,,,,,,,,,,,,,,,,,,,,,,,,,,,,,,,,,,,,,,,,,,,,,,,,,,,,,,,,,,,,,,,,,,,,,,,,,,,,,,,,,,,,,,,,,,,,,,,,,,,,,,,,,,,,,,,,,,,,,,,,,,,,,,,,,,,,,,
0,75,75,45,1,,61716a16c157db249e36fc46,62bbfab4aab8c72820507257,2022-06-29_09h12.47.457,Colour_Asymmetry_Pilot,2022.1.3,Win32,60.59871531,62bbe60bf3d75ef465d3e404,,,,,,,,,,,,,,,,,,,,,,,,,,,,,,,,,,,,,,,,,,,,,,,,,,,,,,,,,,,,,,,,,,,,,,,,,,,,,,,,,,,,,,,,,,,,,,,,,,,,,,,,,,,,,,,,,,,,,,,,,,,,,,,,,,,,,,,,,,,,,,,,,,,,,,,,,,,,,,
0,76,76,9,1,,61716a16c157db249e36fc46,62bbfab4aab8c72820507257,2022-06-29_09h12.47.457,Colour_Asymmetry_Pilot,2022.1.3,Win32,60.59871531,62bbe60bf3d75ef465d3e404,,,,,,,,,,,,,,,,,,,,,,,,,,,,,,,,,,,,,,,,,,,,,,,,,,,,,,,,,,,,,,,,,,,,,,,,,,,,,,,,,,,,,,,,,,,,,,,,,,,,,,,,,,,,,,,,,,,,,,,,,,,,,,,,,,,,,,,,,,,,,,,,,,,,,,,,,,,,,,
0,77,77,18,1,,61716a16c157db249e36fc46,62bbfab4aab8c72820507257,2022-06-29_09h12.47.457,Colour_Asymmetry_Pilot,2022.1.3,Win32,60.59871531,62bbe60bf3d75ef465d3e404,,,,,,,,,,,,,,,,,,,,,,,,,,,,,,,,,,,,,,,,,,,,,,,,,,,,,,,,,,,,,,,,,,,,,,,,,,,,,,,,,,,,,,,,,,,,,,,,,,,,,,,,,,,,,,,,,,,,,,,,,,,,,,,,,,,,,,,,,,,,,,,,,,,,,,,,,,,,,,
0,78,78,51,1,,61716a16c157db249e36fc46,62bbfab4aab8c72820507257,2022-06-29_09h12.47.457,Colour_Asymmetry_Pilot,2022.1.3,Win32,60.59871531,62bbe60bf3d75ef465d3e404,,,,,,,,,,,,,,,,,,,,,,,,,,,,,,,,,,,,,,,,,,,,,,,,,,,,,,,,,,,,,,,,,,,,,,,,,,,,,,,,,,,,,,,,,,,,,,,,,,,,,,,,,,,,,,,,,,,,,,,,,,,,,,,,,,,,,,,,,,,,,,,,,,,,,,,,,,,,,,
0,79,79,62,1,,61716a16c157db249e36fc46,62bbfab4aab8c72820507257,2022-06-29_09h12.47.457,Colour_Asymmetry_Pilot,2022.1.3,Win32,60.59871531,62bbe60bf3d75ef465d3e404,,,,,,,,,,,,,,,,,,,,,,,,,,,,,,,,,,,,,,,,,,,,,,,,,,,,,,,,,,,,,,,,,,,,,,,,,,,,,,,,,,,,,,,,,,,,,,,,,,,,,,,,,,,,,,,,,,,,,,,,,,,,,,,,,,,,,,,,,,,,,,,,,,,,,,,,,,,,,,
0,80,80,42,1,,61716a16c157db249e36fc46,62bbfab4aab8c72820507257,2022-06-29_09h12.47.457,Colour_Asymmetry_Pilot,2022.1.3,Win32,60.59871531,62bbe60bf3d75ef465d3e404,,,,,,,,,,,,,,,,,,,,,,,,,,,,,,,,,,,,,,,,,,,,,,,,,,,,,,,,,,,,,,,,,,,,,,,,,,,,,,,,,,,,,,,,,,,,,,,,,,,,,,,,,,,,,,,,,,,,,,,,,,,,,,,,,,,,,,,,,,,,,,,,,,,,,,,,,,,,,,
0,81,81,53,1,,61716a16c157db249e36fc46,62bbfab4aab8c72820507257,2022-06-29_09h12.47.457,Colour_Asymmetry_Pilot,2022.1.3,Win32,60.59871531,62bbe60bf3d75ef465d3e404,,,,,,,,,,,,,,,,,,,,,,,,,,,,,,,,,,,,,,,,,,,,,,,,,,,,,,,,,,,,,,,,,,,,,,,,,,,,,,,,,,,,,,,,,,,,,,,,,,,,,,,,,,,,,,,,,,,,,,,,,,,,,,,,,,,,,,,,,,,,,,,,,,,,,,,,,,,,,,
0,82,82,75,1,,61716a16c157db249e36fc46,62bbfab4aab8c72820507257,2022-06-29_09h12.47.457,Colour_Asymmetry_Pilot,2022.1.3,Win32,60.59871531,62bbe60bf3d75ef465d3e404,,,,,,,,,,,,,,,,,,,,,,,,,,,,,,,,,,,,,,,,,,,,,,,,,,,,,,,,,,,,,,,,,,,,,,,,,,,,,,,,,,,,,,,,,,,,,,,,,,,,,,,,,,,,,,,,,,,,,,,,,,,,,,,,,,,,,,,,,,,,,,,,,,,,,,,,,,,,,,
0,83,83,86,1,,61716a16c157db249e36fc46,62bbfab4aab8c72820507257,2022-06-29_09h12.47.457,Colour_Asymmetry_Pilot,2022.1.3,Win32,60.59871531,62bbe60bf3d75ef465d3e404,,,,,,,,,,,,,,,,,,,,,,,,,,,,,,,,,,,,,,,,,,,,,,,,,,,,,,,,,,,,,,,,,,,,,,,,,,,,,,,,,,,,,,,,,,,,,,,,,,,,,,,,,,,,,,,,,,,,,,,,,,,,,,,,,,,,,,,,,,,,,,,,,,,,,,,,,,,,,,
0,84,84,84,1,,61716a16c157db249e36fc46,62bbfab4aab8c72820507257,2022-06-29_09h12.47.457,Colour_Asymmetry_Pilot,2022.1.3,Win32,60.59871531,62bbe60bf3d75ef465d3e404,,,,,,,,,,,,,,,,,,,,,,,,,,,,,,,,,,,,,,,,,,,,,,,,,,,,,,,,,,,,,,,,,,,,,,,,,,,,,,,,,,,,,,,,,,,,,,,,,,,,,,,,,,,,,,,,,,,,,,,,,,,,,,,,,,,,,,,,,,,,,,,,,,,,,,,,,,,,,,
0,85,85,13,1,,61716a16c157db249e36fc46,62bbfab4aab8c72820507257,2022-06-29_09h12.47.457,Colour_Asymmetry_Pilot,2022.1.3,Win32,60.59871531,62bbe60bf3d75ef465d3e404,,,,,,,,,,,,,,,,,,,,,,,,,,,,,,,,,,,,,,,,,,,,,,,,,,,,,,,,,,,,,,,,,,,,,,,,,,,,,,,,,,,,,,,,,,,,,,,,,,,,,,,,,,,,,,,,,,,,,,,,,,,,,,,,,,,,,,,,,,,,,,,,,,,,,,,,,,,,,,
0,86,86,14,1,,61716a16c157db249e36fc46,62bbfab4aab8c72820507257,2022-06-29_09h12.47.457,Colour_Asymmetry_Pilot,2022.1.3,Win32,60.59871531,62bbe60bf3d75ef465d3e404,,,,,,,,,,,,,,,,,,,,,,,,,,,,,,,,,,,,,,,,,,,,,,,,,,,,,,,,,,,,,,,,,,,,,,,,,,,,,,,,,,,,,,,,,,,,,,,,,,,,,,,,,,,,,,,,,,,,,,,,,,,,,,,,,,,,,,,,,,,,,,,,,,,,,,,,,,,,,,
0,87,87,35,1,,61716a16c157db249e36fc46,62bbfab4aab8c72820507257,2022-06-29_09h12.47.457,Colour_Asymmetry_Pilot,2022.1.3,Win32,60.59871531,62bbe60bf3d75ef465d3e404,,,,,,,,,,,,,,,,,,,,,,,,,,,,,,,,,,,,,,,,,,,,,,,,,,,,,,,,,,,,,,,,,,,,,,,,,,,,,,,,,,,,,,,,,,,,,,,,,,,,,,,,,,,,,,,,,,,,,,,,,,,,,,,,,,,,,,,,,,,,,,,,,,,,,,,,,,,,,,
0,88,88,15,1,,61716a16c157db249e36fc46,62bbfab4aab8c72820507257,2022-06-29_09h12.47.457,Colour_Asymmetry_Pilot,2022.1.3,Win32,60.59871531,62bbe60bf3d75ef465d3e404,,,,,,,,,,,,,,,,,,,,,,,,,,,,,,,,,,,,,,,,,,,,,,,,,,,,,,,,,,,,,,,,,,,,,,,,,,,,,,,,,,,,,,,,,,,,,,,,,,,,,,,,,,,,,,,,,,,,,,,,,,,,,,,,,,,,,,,,,,,,,,,,,,,,,,,,,,,,,,
0,89,89,23,1,,61716a16c157db249e36fc46,62bbfab4aab8c72820507257,2022-06-29_09h12.47.457,Colour_Asymmetry_Pilot,2022.1.3,Win32,60.59871531,62bbe60bf3d75ef465d3e404,,,,,,,,,,,,,,,,,,,,,,,,,,,,,,,,,,,,,,,,,,,,,,,,,,,,,,,,,,,,,,,,,,,,,,,,,,,,,,,,,,,,,,,,,,,,,,,,,,,,,,,,,,,,,,,,,,,,,,,,,,,,,,,,,,,,,,,,,,,,,,,,,,,,,,,,,,,,,,
0,90,90,5,1,,61716a16c157db249e36fc46,62bbfab4aab8c72820507257,2022-06-29_09h12.47.457,Colour_Asymmetry_Pilot,2022.1.3,Win32,60.59871531,62bbe60bf3d75ef465d3e404,,,,,,,,,,,,,,,,,,,,,,,,,,,,,,,,,,,,,,,,,,,,,,,,,,,,,,,,,,,,,,,,,,,,,,,,,,,,,,,,,,,,,,,,,,,,,,,,,,,,,,,,,,,,,,,,,,,,,,,,,,,,,,,,,,,,,,,,,,,,,,,,,,,,,,,,,,,,,,
0,91,91,83,1,,61716a16c157db249e36fc46,62bbfab4aab8c72820507257,2022-06-29_09h12.47.457,Colour_Asymmetry_Pilot,2022.1.3,Win32,60.59871531,62bbe60bf3d75ef465d3e404,,,,,,,,,,,,,,,,,,,,,,,,,,,,,,,,,,,,,,,,,,,,,,,,,,,,,,,,,,,,,,,,,,,,,,,,,,,,,,,,,,,,,,,,,,,,,,,,,,,,,,,,,,,,,,,,,,,,,,,,,,,,,,,,,,,,,,,,,,,,,,,,,,,,,,,,,,,,,,
0,92,92,0,1,,61716a16c157db249e36fc46,62bbfab4aab8c72820507257,2022-06-29_09h12.47.457,Colour_Asymmetry_Pilot,2022.1.3,Win32,60.59871531,62bbe60bf3d75ef465d3e404,,,,,,,,,,,,,,,,,,,,,,,,,,,,,,,,,,,,,,,,,,,,,,,,,,,,,,,,,,,,,,,,,,,,,,,,,,,,,,,,,,,,,,,,,,,,,,,,,,,,,,,,,,,,,,,,,,,,,,,,,,,,,,,,,,,,,,,,,,,,,,,,,,,,,,,,,,,,,,
,,,,,,61716a16c157db249e36fc46,62bbfab4aab8c72820507257,2022-06-29_09h12.47.457,Colour_Asymmetry_Pilot,2022.1.3,Win32,60.59871531,62bbe60bf3d75ef465d3e404,0,0,0,153,1,onethree,,,,,,,,,,,,,,,,,,,,,,,,,,,,,,,,,,,,,,,,,,,,,,,,,,,,,,,,,,,,,,,,,,,,,,,,,,,,,,,,,,,,,,,,,,,,,,,,,,,,,,,,,,,,,,,,,,,,,,,,,,,,,,,,,,,,,,,,,,,,,,,,,,,,,,,,
,,,,,,61716a16c157db249e36fc46,62bbfab4aab8c72820507257,2022-06-29_09h12.47.457,Colour_Asymmetry_Pilot,2022.1.3,Win32,60.59871531,62bbe60bf3d75ef465d3e404,0,1,1,64,1,onetwo,,,,,,,,,,,,,,,,,,,,,,,,,,,,,,,,,,,,,,,,,,,,,,,,,,,,,,,,,,,,,,,,,,,,,,,,,,,,,,,,,,,,,,,,,,,,,,,,,,,,,,,,,,,,,,,,,,,,,,,,,,,,,,,,,,,,,,,,,,,,,,,,,,,,,,,,
,,,,,,61716a16c157db249e36fc46,62bbfab4aab8c72820507257,2022-06-29_09h12.47.457,Colour_Asymmetry_Pilot,2022.1.3,Win32,60.59871531,62bbe60bf3d75ef465d3e404,0,2,2,141,1,threefour,,,,,,,,,,,,,,,,,,,,,,,,,,,,,,,,,,,,,,,,,,,,,,,,,,,,,,,,,,,,,,,,,,,,,,,,,,,,,,,,,,,,,,,,,,,,,,,,,,,,,,,,,,,,,,,,,,,,,,,,,,,,,,,,,,,,,,,,,,,,,,,,,,,,,,,,
,,,,,,61716a16c157db249e36fc46,62bbfab4aab8c72820507257,2022-06-29_09h12.47.457,Colour_Asymmetry_Pilot,2022.1.3,Win32,60.59871531,62bbe60bf3d75ef465d3e404,0,3,3,50,1,twoone,,,,,,,,,,,,,,,,,,,,,,,,,,,,,,,,,,,,,,,,,,,,,,,,,,,,,,,,,,,,,,,,,,,,,,,,,,,,,,,,,,,,,,,,,,,,,,,,,,,,,,,,,,,,,,,,,,,,,,,,,,,,,,,,,,,,,,,,,,,,,,,,,,,,,,,,
,,,,,,61716a16c157db249e36fc46,62bbfab4aab8c72820507257,2022-06-29_09h12.47.457,Colour_Asymmetry_Pilot,2022.1.3,Win32,60.59871531,62bbe60bf3d75ef465d3e404,0,4,4,33,1,onethree,,,,,,,,,,,,,,,,,,,,,,,,,,,,,,,,,,,,,,,,,,,,,,,,,,,,,,,,,,,,,,,,,,,,,,,,,,,,,,,,,,,,,,,,,,,,,,,,,,,,,,,,,,,,,,,,,,,,,,,,,,,,,,,,,,,,,,,,,,,,,,,,,,,,,,,,
,,,,,,61716a16c157db249e36fc46,62bbfab4aab8c72820507257,2022-06-29_09h12.47.457,Colour_Asymmetry_Pilot,2022.1.3,Win32,60.59871531,62bbe60bf3d75ef465d3e404,0,5,5,130,1,twoone,,,,,,,,,,,,,,,,,,,,,,,,,,,,,,,,,,,,,,,,,,,,,,,,,,,,,,,,,,,,,,,,,,,,,,,,,,,,,,,,,,,,,,,,,,,,,,,,,,,,,,,,,,,,,,,,,,,,,,,,,,,,,,,,,,,,,,,,,,,,,,,,,,,,,,,,
,,,,,,61716a16c157db249e36fc46,62bbfab4aab8c72820507257,2022-06-29_09h12.47.457,Colour_Asymmetry_Pilot,2022.1.3,Win32,60.59871531,62bbe60bf3d75ef465d3e404,0,6,6,51,1,twofour,,,,,,,,,,,,,,,,,,,,,,,,,,,,,,,,,,,,,,,,,,,,,,,,,,,,,,,,,,,,,,,,,,,,,,,,,,,,,,,,,,,,,,,,,,,,,,,,,,,,,,,,,,,,,,,,,,,,,,,,,,,,,,,,,,,,,,,,,,,,,,,,,,,,,,,,
,,,,,,61716a16c157db249e36fc46,62bbfab4aab8c72820507257,2022-06-29_09h12.47.457,Colour_Asymmetry_Pilot,2022.1.3,Win32,60.59871531,62bbe60bf3d75ef465d3e404,0,7,7,56,1,onetwo,,,,,,,,,,,,,,,,,,,,,,,,,,,,,,,,,,,,,,,,,,,,,,,,,,,,,,,,,,,,,,,,,,,,,,,,,,,,,,,,,,,,,,,,,,,,,,,,,,,,,,,,,,,,,,,,,,,,,,,,,,,,,,,,,,,,,,,,,,,,,,,,,,,,,,,,
,,,,,,61716a16c157db249e36fc46,62bbfab4aab8c72820507257,2022-06-29_09h12.47.457,Colour_Asymmetry_Pilot,2022.1.3,Win32,60.59871531,62bbe60bf3d75ef465d3e404,0,8,8,87,1,fourthree,,,,,,,,,,,,,,,,,,,,,,,,,,,,,,,,,,,,,,,,,,,,,,,,,,,,,,,,,,,,,,,,,,,,,,,,,,,,,,,,,,,,,,,,,,,,,,,,,,,,,,,,,,,,,,,,,,,,,,,,,,,,,,,,,,,,,,,,,,,,,,,,,,,,,,,,
,,,,,,61716a16c157db249e36fc46,62bbfab4aab8c72820507257,2022-06-29_09h12.47.457,Colour_Asymmetry_Pilot,2022.1.3,Win32,60.59871531,62bbe60bf3d75ef465d3e404,0,9,9,43,1,twofour,,,,,,,,,,,,,,,,,,,,,,,,,,,,,,,,,,,,,,,,,,,,,,,,,,,,,,,,,,,,,,,,,,,,,,,,,,,,,,,,,,,,,,,,,,,,,,,,,,,,,,,,,,,,,,,,,,,,,,,,,,,,,,,,,,,,,,,,,,,,,,,,,,,,,,,,
,,,,,,61716a16c157db249e36fc46,62bbfab4aab8c72820507257,2022-06-29_09h12.47.457,Colour_Asymmetry_Pilot,2022.1.3,Win32,60.59871531,62bbe60bf3d75ef465d3e404,0,10,10,23,1,fourthree,,,,,,,,,,,,,,,,,,,,,,,,,,,,,,,,,,,,,,,,,,,,,,,,,,,,,,,,,,,,,,,,,,,,,,,,,,,,,,,,,,,,,,,,,,,,,,,,,,,,,,,,,,,,,,,,,,,,,,,,,,,,,,,,,,,,,,,,,,,,,,,,,,,,,,,,
,,,,,,61716a16c157db249e36fc46,62bbfab4aab8c72820507257,2022-06-29_09h12.47.457,Colour_Asymmetry_Pilot,2022.1.3,Win32,60.59871531,62bbe60bf3d75ef465d3e404,0,11,11,97,1,onethree,,,,,,,,,,,,,,,,,,,,,,,,,,,,,,,,,,,,,,,,,,,,,,,,,,,,,,,,,,,,,,,,,,,,,,,,,,,,,,,,,,,,,,,,,,,,,,,,,,,,,,,,,,,,,,,,,,,,,,,,,,,,,,,,,,,,,,,,,,,,,,,,,,,,,,,,
,,,,,,61716a16c157db249e36fc46,62bbfab4aab8c72820507257,2022-06-29_09h12.47.457,Colour_Asymmetry_Pilot,2022.1.3,Win32,60.59871531,62bbe60bf3d75ef465d3e404,0,12,12,11,1,twofour,,,,,,,,,,,,,,,,,,,,,,,,,,,,,,,,,,,,,,,,,,,,,,,,,,,,,,,,,,,,,,,,,,,,,,,,,,,,,,,,,,,,,,,,,,,,,,,,,,,,,,,,,,,,,,,,,,,,,,,,,,,,,,,,,,,,,,,,,,,,,,,,,,,,,,,,
,,,,,,61716a16c157db249e36fc46,62bbfab4aab8c72820507257,2022-06-29_09h12.47.457,Colour_Asymmetry_Pilot,2022.1.3,Win32,60.59871531,62bbe60bf3d75ef465d3e404,0,13,13,151,1,fourthree,,,,,,,,,,,,,,,,,,,,,,,,,,,,,,,,,,,,,,,,,,,,,,,,,,,,,,,,,,,,,,,,,,,,,,,,,,,,,,,,,,,,,,,,,,,,,,,,,,,,,,,,,,,,,,,,,,,,,,,,,,,,,,,,,,,,,,,,,,,,,,,,,,,,,,,,
,,,,,,61716a16c157db249e36fc46,62bbfab4aab8c72820507257,2022-06-29_09h12.47.457,Colour_Asymmetry_Pilot,2022.1.3,Win32,60.59871531,62bbe60bf3d75ef465d3e404,0,14,14,10,1,twoone,,,,,,,,,,,,,,,,,,,,,,,,,,,,,,,,,,,,,,,,,,,,,,,,,,,,,,,,,,,,,,,,,,,,,,,,,,,,,,,,,,,,,,,,,,,,,,,,,,,,,,,,,,,,,,,,,,,,,,,,,,,,,,,,,,,,,,,,,,,,,,,,,,,,,,,,
,,,,,,61716a16c157db249e36fc46,62bbfab4aab8c72820507257,2022-06-29_09h12.47.457,Colour_Asymmetry_Pilot,2022.1.3,Win32,60.59871531,62bbe60bf3d75ef465d3e404,0,15,15,82,1,twoone,,,,,,,,,,,,,,,,,,,,,,,,,,,,,,,,,,,,,,,,,,,,,,,,,,,,,,,,,,,,,,,,,,,,,,,,,,,,,,,,,,,,,,,,,,,,,,,,,,,,,,,,,,,,,,,,,,,,,,,,,,,,,,,,,,,,,,,,,,,,,,,,,,,,,,,,
,,,,,,61716a16c157db249e36fc46,62bbfab4aab8c72820507257,2022-06-29_09h12.47.457,Colour_Asymmetry_Pilot,2022.1.3,Win32,60.59871531,62bbe60bf3d75ef465d3e404,0,16,16,4,1,threeone,,,,,,,,,,,,,,,,,,,,,,,,,,,,,,,,,,,,,,,,,,,,,,,,,,,,,,,,,,,,,,,,,,,,,,,,,,,,,,,,,,,,,,,,,,,,,,,,,,,,,,,,,,,,,,,,,,,,,,,,,,,,,,,,,,,,,,,,,,,,,,,,,,,,,,,,
,,,,,,61716a16c157db249e36fc46,62bbfab4aab8c72820507257,2022-06-29_09h12.47.457,Colour_Asymmetry_Pilot,2022.1.3,Win32,60.59871531,62bbe60bf3d75ef465d3e404,0,17,17,105,1,onethree,,,,,,,,,,,,,,,,,,,,,,,,,,,,,,,,,,,,,,,,,,,,,,,,,,,,,,,,,,,,,,,,,,,,,,,,,,,,,,,,,,,,,,,,,,,,,,,,,,,,,,,,,,,,,,,,,,,,,,,,,,,,,,,,,,,,,,,,,,,,,,,,,,,,,,,,
,,,,,,61716a16c157db249e36fc46,62bbfab4aab8c72820507257,2022-06-29_09h12.47.457,Colour_Asymmetry_Pilot,2022.1.3,Win32,60.59871531,62bbe60bf3d75ef465d3e404,0,18,18,150,1,fourtwo,,,,,,,,,,,,,,,,,,,,,,,,,,,,,,,,,,,,,,,,,,,,,,,,,,,,,,,,,,,,,,,,,,,,,,,,,,,,,,,,,,,,,,,,,,,,,,,,,,,,,,,,,,,,,,,,,,,,,,,,,,,,,,,,,,,,,,,,,,,,,,,,,,,,,,,,
,,,,,,61716a16c157db249e36fc46,62bbfab4aab8c72820507257,2022-06-29_09h12.47.457,Colour_Asymmetry_Pilot,2022.1.3,Win32,60.59871531,62bbe60bf3d75ef465d3e404,0,19,19,62,1,fourtwo,,,,,,,,,,,,,,,,,,,,,,,,,,,,,,,,,,,,,,,,,,,,,,,,,,,,,,,,,,,,,,,,,,,,,,,,,,,,,,,,,,,,,,,,,,,,,,,,,,,,,,,,,,,,,,,,,,,,,,,,,,,,,,,,,,,,,,,,,,,,,,,,,,,,,,,,
,,,,,,61716a16c157db249e36fc46,62bbfab4aab8c72820507257,2022-06-29_09h12.47.457,Colour_Asymmetry_Pilot,2022.1.3,Win32,60.59871531,62bbe60bf3d75ef465d3e404,0,20,20,18,1,twoone,,,,,,,,,,,,,,,,,,,,,,,,,,,,,,,,,,,,,,,,,,,,,,,,,,,,,,,,,,,,,,,,,,,,,,,,,,,,,,,,,,,,,,,,,,,,,,,,,,,,,,,,,,,,,,,,,,,,,,,,,,,,,,,,,,,,,,,,,,,,,,,,,,,,,,,,
,,,,,,61716a16c157db249e36fc46,62bbfab4aab8c72820507257,2022-06-29_09h12.47.457,Colour_Asymmetry_Pilot,2022.1.3,Win32,60.59871531,62bbe60bf3d75ef465d3e404,0,21,21,102,1,fourtwo,,,,,,,,,,,,,,,,,,,,,,,,,,,,,,,,,,,,,,,,,,,,,,,,,,,,,,,,,,,,,,,,,,,,,,,,,,,,,,,,,,,,,,,,,,,,,,,,,,,,,,,,,,,,,,,,,,,,,,,,,,,,,,,,,,,,,,,,,,,,,,,,,,,,,,,,
,,,,,,61716a16c157db249e36fc46,62bbfab4aab8c72820507257,2022-06-29_09h12.47.457,Colour_Asymmetry_Pilot,2022.1.3,Win32,60.59871531,62bbe60bf3d75ef465d3e404,0,22,22,9,1,onethree,,,,,,,,,,,,,,,,,,,,,,,,,,,,,,,,,,,,,,,,,,,,,,,,,,,,,,,,,,,,,,,,,,,,,,,,,,,,,,,,,,,,,,,,,,,,,,,,,,,,,,,,,,,,,,,,,,,,,,,,,,,,,,,,,,,,,,,,,,,,,,,,,,,,,,,,
,,,,,,61716a16c157db249e36fc46,62bbfab4aab8c72820507257,2022-06-29_09h12.47.457,Colour_Asymmetry_Pilot,2022.1.3,Win32,60.59871531,62bbe60bf3d75ef465d3e404,0,23,23,118,1,fourtwo,,,,,,,,,,,,,,,,,,,,,,,,,,,,,,,,,,,,,,,,,,,,,,,,,,,,,,,,,,,,,,,,,,,,,,,,,,,,,,,,,,,,,,,,,,,,,,,,,,,,,,,,,,,,,,,,,,,,,,,,,,,,,,,,,,,,,,,,,,,,,,,,,,,,,,,,
,,,,,,61716a16c157db249e36fc46,62bbfab4aab8c72820507257,2022-06-29_09h12.47.457,Colour_Asymmetry_Pilot,2022.1.3,Win32,60.59871531,62bbe60bf3d75ef465d3e404,0,24,24,47,1,fourthree,,,,,,,,,,,,,,,,,,,,,,,,,,,,,,,,,,,,,,,,,,,,,,,,,,,,,,,,,,,,,,,,,,,,,,,,,,,,,,,,,,,,,,,,,,,,,,,,,,,,,,,,,,,,,,,,,,,,,,,,,,,,,,,,,,,,,,,,,,,,,,,,,,,,,,,,
,,,,,,61716a16c157db249e36fc46,62bbfab4aab8c72820507257,2022-06-29_09h12.47.457,Colour_Asymmetry_Pilot,2022.1.3,Win32,60.59871531,62bbe60bf3d75ef465d3e404,0,25,25,21,1,threefour,,,,,,,,,,,,,,,,,,,,,,,,,,,,,,,,,,,,,,,,,,,,,,,,,,,,,,,,,,,,,,,,,,,,,,,,,,,,,,,,,,,,,,,,,,,,,,,,,,,,,,,,,,,,,,,,,,,,,,,,,,,,,,,,,,,,,,,,,,,,,,,,,,,,,,,,
,,,,,,61716a16c157db249e36fc46,62bbfab4aab8c72820507257,2022-06-29_09h12.47.457,Colour_Asymmetry_Pilot,2022.1.3,Win32,60.59871531,62bbe60bf3d75ef465d3e404,0,26,26,59,1,twofour,,,,,,,,,,,,,,,,,,,,,,,,,,,,,,,,,,,,,,,,,,,,,,,,,,,,,,,,,,,,,,,,,,,,,,,,,,,,,,,,,,,,,,,,,,,,,,,,,,,,,,,,,,,,,,,,,,,,,,,,,,,,,,,,,,,,,,,,,,,,,,,,,,,,,,,,
,,,,,,61716a16c157db249e36fc46,62bbfab4aab8c72820507257,2022-06-29_09h12.47.457,Colour_Asymmetry_Pilot,2022.1.3,Win32,60.59871531,62bbe60bf3d75ef465d3e404,0,27,27,73,1,onethree,,,,,,,,,,,,,,,,,,,,,,,,,,,,,,,,,,,,,,,,,,,,,,,,,,,,,,,,,,,,,,,,,,,,,,,,,,,,,,,,,,,,,,,,,,,,,,,,,,,,,,,,,,,,,,,,,,,,,,,,,,,,,,,,,,,,,,,,,,,,,,,,,,,,,,,,
,,,,,,61716a16c157db249e36fc46,62bbfab4aab8c72820507257,2022-06-29_09h12.47.457,Colour_Asymmetry_Pilot,2022.1.3,Win32,60.59871531,62bbe60bf3d75ef465d3e404,0,28,28,57,1,onethree,,,,,,,,,,,,,,,,,,,,,,,,,,,,,,,,,,,,,,,,,,,,,,,,,,,,,,,,,,,,,,,,,,,,,,,,,,,,,,,,,,,,,,,,,,,,,,,,,,,,,,,,,,,,,,,,,,,,,,,,,,,,,,,,,,,,,,,,,,,,,,,,,,,,,,,,
,,,,,,61716a16c157db249e36fc46,62bbfab4aab8c72820507257,2022-06-29_09h12.47.457,Colour_Asymmetry_Pilot,2022.1.3,Win32,60.59871531,62bbe60bf3d75ef465d3e404,0,29,29,39,1,fourthree,,,,,,,,,,,,,,,,,,,,,,,,,,,,,,,,,,,,,,,,,,,,,,,,,,,,,,,,,,,,,,,,,,,,,,,,,,,,,,,,,,,,,,,,,,,,,,,,,,,,,,,,,,,,,,,,,,,,,,,,,,,,,,,,,,,,,,,,,,,,,,,,,,,,,,,,
,,,,,,61716a16c157db249e36fc46,62bbfab4aab8c72820507257,2022-06-29_09h12.47.457,Colour_Asymmetry_Pilot,2022.1.3,Win32,60.59871531,62bbe60bf3d75ef465d3e404,0,30,30,79,1,fourthree,,,,,,,,,,,,,,,,,,,,,,,,,,,,,,,,,,,,,,,,,,,,,,,,,,,,,,,,,,,,,,,,,,,,,,,,,,,,,,,,,,,,,,,,,,,,,,,,,,,,,,,,,,,,,,,,,,,,,,,,,,,,,,,,,,,,,,,,,,,,,,,,,,,,,,,,
,,,,,,61716a16c157db249e36fc46,62bbfab4aab8c72820507257,2022-06-29_09h12.47.457,Colour_Asymmetry_Pilot,2022.1.3,Win32,60.59871531,62bbe60bf3d75ef465d3e404,0,31,31,88,1,onetwo,,,,,,,,,,,,,,,,,,,,,,,,,,,,,,,,,,,,,,,,,,,,,,,,,,,,,,,,,,,,,,,,,,,,,,,,,,,,,,,,,,,,,,,,,,,,,,,,,,,,,,,,,,,,,,,,,,,,,,,,,,,,,,,,,,,,,,,,,,,,,,,,,,,,,,,,
,,,,,,61716a16c157db249e36fc46,62bbfab4aab8c72820507257,2022-06-29_09h12.47.457,Colour_Asymmetry_Pilot,2022.1.3,Win32,60.59871531,62bbe60bf3d75ef465d3e404,0,32,32,91,1,twofour,,,,,,,,,,,,,,,,,,,,,,,,,,,,,,,,,,,,,,,,,,,,,,,,,,,,,,,,,,,,,,,,,,,,,,,,,,,,,,,,,,,,,,,,,,,,,,,,,,,,,,,,,,,,,,,,,,,,,,,,,,,,,,,,,,,,,,,,,,,,,,,,,,,,,,,,
,,,,,,61716a16c157db249e36fc46,62bbfab4aab8c72820507257,2022-06-29_09h12.47.457,Colour_Asymmetry_Pilot,2022.1.3,Win32,60.59871531,62bbe60bf3d75ef465d3e404,0,33,33,121,1,onethree,,,,,,,,,,,,,,,,,,,,,,,,,,,,,,,,,,,,,,,,,,,,,,,,,,,,,,,,,,,,,,,,,,,,,,,,,,,,,,,,,,,,,,,,,,,,,,,,,,,,,,,,,,,,,,,,,,,,,,,,,,,,,,,,,,,,,,,,,,,,,,,,,,,,,,,,
,,,,,,61716a16c157db249e36fc46,62bbfab4aab8c72820507257,2022-06-29_09h12.47.457,Colour_Asymmetry_Pilot,2022.1.3,Win32,60.59871531,62bbe60bf3d75ef465d3e404,0,34,34,72,1,onetwo,,,,,,,,,,,,,,,,,,,,,,,,,,,,,,,,,,,,,,,,,,,,,,,,,,,,,,,,,,,,,,,,,,,,,,,,,,,,,,,,,,,,,,,,,,,,,,,,,,,,,,,,,,,,,,,,,,,,,,,,,,,,,,,,,,,,,,,,,,,,,,,,,,,,,,,,
,,,,,,61716a16c157db249e36fc46,62bbfab4aab8c72820507257,2022-06-29_09h12.47.457,Colour_Asymmetry_Pilot,2022.1.3,Win32,60.59871531,62bbe60bf3d75ef465d3e404,0,35,35,36,1,threeone,,,,,,,,,,,,,,,,,,,,,,,,,,,,,,,,,,,,,,,,,,,,,,,,,,,,,,,,,,,,,,,,,,,,,,,,,,,,,,,,,,,,,,,,,,,,,,,,,,,,,,,,,,,,,,,,,,,,,,,,,,,,,,,,,,,,,,,,,,,,,,,,,,,,,,,,
,,,,,,61716a16c157db249e36fc46,62bbfab4aab8c72820507257,2022-06-29_09h12.47.457,Colour_Asymmetry_Pilot,2022.1.3,Win32,60.59871531,62bbe60bf3d75ef465d3e404,0,36,36,128,1,onetwo,,,,,,,,,,,,,,,,,,,,,,,,,,,,,,,,,,,,,,,,,,,,,,,,,,,,,,,,,,,,,,,,,,,,,,,,,,,,,,,,,,,,,,,,,,,,,,,,,,,,,,,,,,,,,,,,,,,,,,,,,,,,,,,,,,,,,,,,,,,,,,,,,,,,,,,,
,,,,,,61716a16c157db249e36fc46,62bbfab4aab8c72820507257,2022-06-29_09h12.47.457,Colour_Asymmetry_Pilot,2022.1.3,Win32,60.59871531,62bbe60bf3d75ef465d3e404,0,37,37,24,1,onetwo,,,,,,,,,,,,,,,,,,,,,,,,,,,,,,,,,,,,,,,,,,,,,,,,,,,,,,,,,,,,,,,,,,,,,,,,,,,,,,,,,,,,,,,,,,,,,,,,,,,,,,,,,,,,,,,,,,,,,,,,,,,,,,,,,,,,,,,,,,,,,,,,,,,,,,,,
,,,,,,61716a16c157db249e36fc46,62bbfab4aab8c72820507257,2022-06-29_09h12.47.457,Colour_Asymmetry_Pilot,2022.1.3,Win32,60.59871531,62bbe60bf3d75ef465d3e404,0,38,38,42,1,twoone,,,,,,,,,,,,,,,,,,,,,,,,,,,,,,,,,,,,,,,,,,,,,,,,,,,,,,,,,,,,,,,,,,,,,,,,,,,,,,,,,,,,,,,,,,,,,,,,,,,,,,,,,,,,,,,,,,,,,,,,,,,,,,,,,,,,,,,,,,,,,,,,,,,,,,,,
,,,,,,61716a16c157db249e36fc46,62bbfab4aab8c72820507257,2022-06-29_09h12.47.457,Colour_Asymmetry_Pilot,2022.1.3,Win32,60.59871531,62bbe60bf3d75ef465d3e404,0,39,39,100,1,threeone,,,,,,,,,,,,,,,,,,,,,,,,,,,,,,,,,,,,,,,,,,,,,,,,,,,,,,,,,,,,,,,,,,,,,,,,,,,,,,,,,,,,,,,,,,,,,,,,,,,,,,,,,,,,,,,,,,,,,,,,,,,,,,,,,,,,,,,,,,,,,,,,,,,,,,,,
,,,,,,61716a16c157db249e36fc46,62bbfab4aab8c72820507257,2022-06-29_09h12.47.457,Colour_Asymmetry_Pilot,2022.1.3,Win32,60.59871531,62bbe60bf3d75ef465d3e404,0,40,40,54,1,fourtwo,,,,,,,,,,,,,,,,,,,,,,,,,,,,,,,,,,,,,,,,,,,,,,,,,,,,,,,,,,,,,,,,,,,,,,,,,,,,,,,,,,,,,,,,,,,,,,,,,,,,,,,,,,,,,,,,,,,,,,,,,,,,,,,,,,,,,,,,,,,,,,,,,,,,,,,,
,,,,,,61716a16c157db249e36fc46,62bbfab4aab8c72820507257,2022-06-29_09h12.47.457,Colour_Asymmetry_Pilot,2022.1.3,Win32,60.59871531,62bbe60bf3d75ef465d3e404,0,41,41,122,1,twoone,,,,,,,,,,,,,,,,,,,,,,,,,,,,,,,,,,,,,,,,,,,,,,,,,,,,,,,,,,,,,,,,,,,,,,,,,,,,,,,,,,,,,,,,,,,,,,,,,,,,,,,,,,,,,,,,,,,,,,,,,,,,,,,,,,,,,,,,,,,,,,,,,,,,,,,,
,,,,,,61716a16c157db249e36fc46,62bbfab4aab8c72820507257,2022-06-29_09h12.47.457,Colour_Asymmetry_Pilot,2022.1.3,Win32,60.59871531,62bbe60bf3d75ef465d3e404,0,42,42,41,1,onethree,,,,,,,,,,,,,,,,,,,,,,,,,,,,,,,,,,,,,,,,,,,,,,,,,,,,,,,,,,,,,,,,,,,,,,,,,,,,,,,,,,,,,,,,,,,,,,,,,,,,,,,,,,,,,,,,,,,,,,,,,,,,,,,,,,,,,,,,,,,,,,,,,,,,,,,,
,,,,,,61716a16c157db249e36fc46,62bbfab4aab8c72820507257,2022-06-29_09h12.47.457,Colour_Asymmetry_Pilot,2022.1.3,Win32,60.59871531,62bbe60bf3d75ef465d3e404,0,43,43,120,1,onetwo,,,,,,,,,,,,,,,,,,,,,,,,,,,,,,,,,,,,,,,,,,,,,,,,,,,,,,,,,,,,,,,,,,,,,,,,,,,,,,,,,,,,,,,,,,,,,,,,,,,,,,,,,,,,,,,,,,,,,,,,,,,,,,,,,,,,,,,,,,,,,,,,,,,,,,,,
,,,,,,61716a16c157db249e36fc46,62bbfab4aab8c72820507257,2022-06-29_09h12.47.457,Colour_Asymmetry_Pilot,2022.1.3,Win32,60.59871531,62bbe60bf3d75ef465d3e404,0,44,44,99,1,twofour,,,,,,,,,,,,,,,,,,,,,,,,,,,,,,,,,,,,,,,,,,,,,,,,,,,,,,,,,,,,,,,,,,,,,,,,,,,,,,,,,,,,,,,,,,,,,,,,,,,,,,,,,,,,,,,,,,,,,,,,,,,,,,,,,,,,,,,,,,,,,,,,,,,,,,,,
,,,,,,61716a16c157db249e36fc46,62bbfab4aab8c72820507257,2022-06-29_09h12.47.457,Colour_Asymmetry_Pilot,2022.1.3,Win32,60.59871531,62bbe60bf3d75ef465d3e404,0,45,45,117,1,threefour,,,,,,,,,,,,,,,,,,,,,,,,,,,,,,,,,,,,,,,,,,,,,,,,,,,,,,,,,,,,,,,,,,,,,,,,,,,,,,,,,,,,,,,,,,,,,,,,,,,,,,,,,,,,,,,,,,,,,,,,,,,,,,,,,,,,,,,,,,,,,,,,,,,,,,,,
,,,,,,61716a16c157db249e36fc46,62bbfab4aab8c72820507257,2022-06-29_09h12.47.457,Colour_Asymmetry_Pilot,2022.1.3,Win32,60.59871531,62bbe60bf3d75ef465d3e404,0,46,46,49,1,onethree,,,,,,,,,,,,,,,,,,,,,,,,,,,,,,,,,,,,,,,,,,,,,,,,,,,,,,,,,,,,,,,,,,,,,,,,,,,,,,,,,,,,,,,,,,,,,,,,,,,,,,,,,,,,,,,,,,,,,,,,,,,,,,,,,,,,,,,,,,,,,,,,,,,,,,,,
,,,,,,61716a16c157db249e36fc46,62bbfab4aab8c72820507257,2022-06-29_09h12.47.457,Colour_Asymmetry_Pilot,2022.1.3,Win32,60.59871531,62bbe60bf3d75ef465d3e404,0,47,47,127,1,fourthree,,,,,,,,,,,,,,,,,,,,,,,,,,,,,,,,,,,,,,,,,,,,,,,,,,,,,,,,,,,,,,,,,,,,,,,,,,,,,,,,,,,,,,,,,,,,,,,,,,,,,,,,,,,,,,,,,,,,,,,,,,,,,,,,,,,,,,,,,,,,,,,,,,,,,,,,
,,,,,,61716a16c157db249e36fc46,62bbfab4aab8c72820507257,2022-06-29_09h12.47.457,Colour_Asymmetry_Pilot,2022.1.3,Win32,60.59871531,62bbe60bf3d75ef465d3e404,0,48,48,145,1,onethree,,,,,,,,,,,,,,,,,,,,,,,,,,,,,,,,,,,,,,,,,,,,,,,,,,,,,,,,,,,,,,,,,,,,,,,,,,,,,,,,,,,,,,,,,,,,,,,,,,,,,,,,,,,,,,,,,,,,,,,,,,,,,,,,,,,,,,,,,,,,,,,,,,,,,,,,
,,,,,,61716a16c157db249e36fc46,62bbfab4aab8c72820507257,2022-06-29_09h12.47.457,Colour_Asymmetry_Pilot,2022.1.3,Win32,60.59871531,62bbe60bf3d75ef465d3e404,0,49,49,108,1,threeone,,,,,,,,,,,,,,,,,,,,,,,,,,,,,,,,,,,,,,,,,,,,,,,,,,,,,,,,,,,,,,,,,,,,,,,,,,,,,,,,,,,,,,,,,,,,,,,,,,,,,,,,,,,,,,,,,,,,,,,,,,,,,,,,,,,,,,,,,,,,,,,,,,,,,,,,
,,,,,,61716a16c157db249e36fc46,62bbfab4aab8c72820507257,2022-06-29_09h12.47.457,Colour_Asymmetry_Pilot,2022.1.3,Win32,60.59871531,62bbe60bf3d75ef465d3e404,0,50,50,37,1,threefour,,,,,,,,,,,,,,,,,,,,,,,,,,,,,,,,,,,,,,,,,,,,,,,,,,,,,,,,,,,,,,,,,,,,,,,,,,,,,,,,,,,,,,,,,,,,,,,,,,,,,,,,,,,,,,,,,,,,,,,,,,,,,,,,,,,,,,,,,,,,,,,,,,,,,,,,
,,,,,,61716a16c157db249e36fc46,62bbfab4aab8c72820507257,2022-06-29_09h12.47.457,Colour_Asymmetry_Pilot,2022.1.3,Win32,60.59871531,62bbe60bf3d75ef465d3e404,0,51,51,140,1,threeone,,,,,,,,,,,,,,,,,,,,,,,,,,,,,,,,,,,,,,,,,,,,,,,,,,,,,,,,,,,,,,,,,,,,,,,,,,,,,,,,,,,,,,,,,,,,,,,,,,,,,,,,,,,,,,,,,,,,,,,,,,,,,,,,,,,,,,,,,,,,,,,,,,,,,,,,
,,,,,,61716a16c157db249e36fc46,62bbfab4aab8c72820507257,2022-06-29_09h12.47.457,Colour_Asymmetry_Pilot,2022.1.3,Win32,60.59871531,62bbe60bf3d75ef465d3e404,0,52,52,93,1,threefour,,,,,,,,,,,,,,,,,,,,,,,,,,,,,,,,,,,,,,,,,,,,,,,,,,,,,,,,,,,,,,,,,,,,,,,,,,,,,,,,,,,,,,,,,,,,,,,,,,,,,,,,,,,,,,,,,,,,,,,,,,,,,,,,,,,,,,,,,,,,,,,,,,,,,,,,
,,,,,,61716a16c157db249e36fc46,62bbfab4aab8c72820507257,2022-06-29_09h12.47.457,Colour_Asymmetry_Pilot,2022.1.3,Win32,60.59871531,62bbe60bf3d75ef465d3e404,0,53,53,67,1,twofour,,,,,,,,,,,,,,,,,,,,,,,,,,,,,,,,,,,,,,,,,,,,,,,,,,,,,,,,,,,,,,,,,,,,,,,,,,,,,,,,,,,,,,,,,,,,,,,,,,,,,,,,,,,,,,,,,,,,,,,,,,,,,,,,,,,,,,,,,,,,,,,,,,,,,,,,
,,,,,,61716a16c157db249e36fc46,62bbfab4aab8c72820507257,2022-06-29_09h12.47.457,Colour_Asymmetry_Pilot,2022.1.3,Win32,60.59871531,62bbe60bf3d75ef465d3e404,0,54,54,34,1,twoone,,,,,,,,,,,,,,,,,,,,,,,,,,,,,,,,,,,,,,,,,,,,,,,,,,,,,,,,,,,,,,,,,,,,,,,,,,,,,,,,,,,,,,,,,,,,,,,,,,,,,,,,,,,,,,,,,,,,,,,,,,,,,,,,,,,,,,,,,,,,,,,,,,,,,,,,
,,,,,,61716a16c157db249e36fc46,62bbfab4aab8c72820507257,2022-06-29_09h12.47.457,Colour_Asymmetry_Pilot,2022.1.3,Win32,60.59871531,62bbe60bf3d75ef465d3e404,0,55,55,135,1,fourthree,,,,,,,,,,,,,,,,,,,,,,,,,,,,,,,,,,,,,,,,,,,,,,,,,,,,,,,,,,,,,,,,,,,,,,,,,,,,,,,,,,,,,,,,,,,,,,,,,,,,,,,,,,,,,,,,,,,,,,,,,,,,,,,,,,,,,,,,,,,,,,,,,,,,,,,,
,,,,,,61716a16c157db249e36fc46,62bbfab4aab8c72820507257,2022-06-29_09h12.47.457,Colour_Asymmetry_Pilot,2022.1.3,Win32,60.59871531,62bbe60bf3d75ef465d3e404,0,56,56,114,1,twoone,,,,,,,,,,,,,,,,,,,,,,,,,,,,,,,,,,,,,,,,,,,,,,,,,,,,,,,,,,,,,,,,,,,,,,,,,,,,,,,,,,,,,,,,,,,,,,,,,,,,,,,,,,,,,,,,,,,,,,,,,,,,,,,,,,,,,,,,,,,,,,,,,,,,,,,,
,,,,,,61716a16c157db249e36fc46,62bbfab4aab8c72820507257,2022-06-29_09h12.47.457,Colour_Asymmetry_Pilot,2022.1.3,Win32,60.59871531,62bbe60bf3d75ef465d3e404,0,57,57,7,1,fourthree,,,,,,,,,,,,,,,,,,,,,,,,,,,,,,,,,,,,,,,,,,,,,,,,,,,,,,,,,,,,,,,,,,,,,,,,,,,,,,,,,,,,,,,,,,,,,,,,,,,,,,,,,,,,,,,,,,,,,,,,,,,,,,,,,,,,,,,,,,,,,,,,,,,,,,,,
,,,,,,61716a16c157db249e36fc46,62bbfab4aab8c72820507257,2022-06-29_09h12.47.457,Colour_Asymmetry_Pilot,2022.1.3,Win32,60.59871531,62bbe60bf3d75ef465d3e404,0,58,58,78,1,fourtwo,,,,,,,,,,,,,,,,,,,,,,,,,,,,,,,,,,,,,,,,,,,,,,,,,,,,,,,,,,,,,,,,,,,,,,,,,,,,,,,,,,,,,,,,,,,,,,,,,,,,,,,,,,,,,,,,,,,,,,,,,,,,,,,,,,,,,,,,,,,,,,,,,,,,,,,,
,,,,,,61716a16c157db249e36fc46,62bbfab4aab8c72820507257,2022-06-29_09h12.47.457,Colour_Asymmetry_Pilot,2022.1.3,Win32,60.59871531,62bbe60bf3d75ef465d3e404,0,59,59,161,1,onethree,,,,,,,,,,,,,,,,,,,,,,,,,,,,,,,,,,,,,,,,,,,,,,,,,,,,,,,,,,,,,,,,,,,,,,,,,,,,,,,,,,,,,,,,,,,,,,,,,,,,,,,,,,,,,,,,,,,,,,,,,,,,,,,,,,,,,,,,,,,,,,,,,,,,,,,,
,,,,,,61716a16c157db249e36fc46,62bbfab4aab8c72820507257,2022-06-29_09h12.47.457,Colour_Asymmetry_Pilot,2022.1.3,Win32,60.59871531,62bbe60bf3d75ef465d3e404,0,60,60,109,1,threefour,,,,,,,,,,,,,,,,,,,,,,,,,,,,,,,,,,,,,,,,,,,,,,,,,,,,,,,,,,,,,,,,,,,,,,,,,,,,,,,,,,,,,,,,,,,,,,,,,,,,,,,,,,,,,,,,,,,,,,,,,,,,,,,,,,,,,,,,,,,,,,,,,,,,,,,,
,,,,,,61716a16c157db249e36fc46,62bbfab4aab8c72820507257,2022-06-29_09h12.47.457,Colour_Asymmetry_Pilot,2022.1.3,Win32,60.59871531,62bbe60bf3d75ef465d3e404,0,61,61,22,1,fourtwo,,,,,,,,,,,,,,,,,,,,,,,,,,,,,,,,,,,,,,,,,,,,,,,,,,,,,,,,,,,,,,,,,,,,,,,,,,,,,,,,,,,,,,,,,,,,,,,,,,,,,,,,,,,,,,,,,,,,,,,,,,,,,,,,,,,,,,,,,,,,,,,,,,,,,,,,
,,,,,,61716a16c157db249e36fc46,62bbfab4aab8c72820507257,2022-06-29_09h12.47.457,Colour_Asymmetry_Pilot,2022.1.3,Win32,60.59871531,62bbe60bf3d75ef465d3e404,0,62,62,61,1,threefour,,,,,,,,,,,,,,,,,,,,,,,,,,,,,,,,,,,,,,,,,,,,,,,,,,,,,,,,,,,,,,,,,,,,,,,,,,,,,,,,,,,,,,,,,,,,,,,,,,,,,,,,,,,,,,,,,,,,,,,,,,,,,,,,,,,,,,,,,,,,,,,,,,,,,,,,
,,,,,,61716a16c157db249e36fc46,62bbfab4aab8c72820507257,2022-06-29_09h12.47.457,Colour_Asymmetry_Pilot,2022.1.3,Win32,60.59871531,62bbe60bf3d75ef465d3e404,0,63,63,131,1,twofour,,,,,,,,,,,,,,,,,,,,,,,,,,,,,,,,,,,,,,,,,,,,,,,,,,,,,,,,,,,,,,,,,,,,,,,,,,,,,,,,,,,,,,,,,,,,,,,,,,,,,,,,,,,,,,,,,,,,,,,,,,,,,,,,,,,,,,,,,,,,,,,,,,,,,,,,
,,,,,,61716a16c157db249e36fc46,62bbfab4aab8c72820507257,2022-06-29_09h12.47.457,Colour_Asymmetry_Pilot,2022.1.3,Win32,60.59871531,62bbe60bf3d75ef465d3e404,0,64,64,144,1,onetwo,,,,,,,,,,,,,,,,,,,,,,,,,,,,,,,,,,,,,,,,,,,,,,,,,,,,,,,,,,,,,,,,,,,,,,,,,,,,,,,,,,,,,,,,,,,,,,,,,,,,,,,,,,,,,,,,,,,,,,,,,,,,,,,,,,,,,,,,,,,,,,,,,,,,,,,,
,,,,,,61716a16c157db249e36fc46,62bbfab4aab8c72820507257,2022-06-29_09h12.47.457,Colour_Asymmetry_Pilot,2022.1.3,Win32,60.59871531,62bbe60bf3d75ef465d3e404,0,65,65,160,1,onetwo,,,,,,,,,,,,,,,,,,,,,,,,,,,,,,,,,,,,,,,,,,,,,,,,,,,,,,,,,,,,,,,,,,,,,,,,,,,,,,,,,,,,,,,,,,,,,,,,,,,,,,,,,,,,,,,,,,,,,,,,,,,,,,,,,,,,,,,,,,,,,,,,,,,,,,,,
,,,,,,61716a16c157db249e36fc46,62bbfab4aab8c72820507257,2022-06-29_09h12.47.457,Colour_Asymmetry_Pilot,2022.1.3,Win32,60.59871531,62bbe60bf3d75ef465d3e404,0,66,66,29,1,threefour,,,,,,,,,,,,,,,,,,,,,,,,,,,,,,,,,,,,,,,,,,,,,,,,,,,,,,,,,,,,,,,,,,,,,,,,,,,,,,,,,,,,,,,,,,,,,,,,,,,,,,,,,,,,,,,,,,,,,,,,,,,,,,,,,,,,,,,,,,,,,,,,,,,,,,,,
,,,,,,61716a16c157db249e36fc46,62bbfab4aab8c72820507257,2022-06-29_09h12.47.457,Colour_Asymmetry_Pilot,2022.1.3,Win32,60.59871531,62bbe60bf3d75ef465d3e404,0,67,67,5,1,threefour,,,,,,,,,,,,,,,,,,,,,,,,,,,,,,,,,,,,,,,,,,,,,,,,,,,,,,,,,,,,,,,,,,,,,,,,,,,,,,,,,,,,,,,,,,,,,,,,,,,,,,,,,,,,,,,,,,,,,,,,,,,,,,,,,,,,,,,,,,,,,,,,,,,,,,,,
,,,,,,61716a16c157db249e36fc46,62bbfab4aab8c72820507257,2022-06-29_09h12.47.457,Colour_Asymmetry_Pilot,2022.1.3,Win32,60.59871531,62bbe60bf3d75ef465d3e404,0,68,68,76,1,threeone,,,,,,,,,,,,,,,,,,,,,,,,,,,,,,,,,,,,,,,,,,,,,,,,,,,,,,,,,,,,,,,,,,,,,,,,,,,,,,,,,,,,,,,,,,,,,,,,,,,,,,,,,,,,,,,,,,,,,,,,,,,,,,,,,,,,,,,,,,,,,,,,,,,,,,,,
,,,,,,61716a16c157db249e36fc46,62bbfab4aab8c72820507257,2022-06-29_09h12.47.457,Colour_Asymmetry_Pilot,2022.1.3,Win32,60.59871531,62bbe60bf3d75ef465d3e404,0,69,69,84,1,threeone,,,,,,,,,,,,,,,,,,,,,,,,,,,,,,,,,,,,,,,,,,,,,,,,,,,,,,,,,,,,,,,,,,,,,,,,,,,,,,,,,,,,,,,,,,,,,,,,,,,,,,,,,,,,,,,,,,,,,,,,,,,,,,,,,,,,,,,,,,,,,,,,,,,,,,,,
,,,,,,61716a16c157db249e36fc46,62bbfab4aab8c72820507257,2022-06-29_09h12.47.457,Colour_Asymmetry_Pilot,2022.1.3,Win32,60.59871531,62bbe60bf3d75ef465d3e404,0,70,70,107,1,twofour,,,,,,,,,,,,,,,,,,,,,,,,,,,,,,,,,,,,,,,,,,,,,,,,,,,,,,,,,,,,,,,,,,,,,,,,,,,,,,,,,,,,,,,,,,,,,,,,,,,,,,,,,,,,,,,,,,,,,,,,,,,,,,,,,,,,,,,,,,,,,,,,,,,,,,,,
,,,,,,61716a16c157db249e36fc46,62bbfab4aab8c72820507257,2022-06-29_09h12.47.457,Colour_Asymmetry_Pilot,2022.1.3,Win32,60.59871531,62bbe60bf3d75ef465d3e404,0,71,71,0,1,onetwo,,,,,,,,,,,,,,,,,,,,,,,,,,,,,,,,,,,,,,,,,,,,,,,,,,,,,,,,,,,,,,,,,,,,,,,,,,,,,,,,,,,,,,,,,,,,,,,,,,,,,,,,,,,,,,,,,,,,,,,,,,,,,,,,,,,,,,,,,,,,,,,,,,,,,,,,
,,,,,,61716a16c157db249e36fc46,62bbfab4aab8c72820507257,2022-06-29_09h12.47.457,Colour_Asymmetry_Pilot,2022.1.3,Win32,60.59871531,62bbe60bf3d75ef465d3e404,0,72,72,147,1,twofour,,,,,,,,,,,,,,,,,,,,,,,,,,,,,,,,,,,,,,,,,,,,,,,,,,,,,,,,,,,,,,,,,,,,,,,,,,,,,,,,,,,,,,,,,,,,,,,,,,,,,,,,,,,,,,,,,,,,,,,,,,,,,,,,,,,,,,,,,,,,,,,,,,,,,,,,
,,,,,,61716a16c157db249e36fc46,62bbfab4aab8c72820507257,2022-06-29_09h12.47.457,Colour_Asymmetry_Pilot,2022.1.3,Win32,60.59871531,62bbe60bf3d75ef465d3e404,0,73,73,32,1,onetwo,,,,,,,,,,,,,,,,,,,,,,,,,,,,,,,,,,,,,,,,,,,,,,,,,,,,,,,,,,,,,,,,,,,,,,,,,,,,,,,,,,,,,,,,,,,,,,,,,,,,,,,,,,,,,,,,,,,,,,,,,,,,,,,,,,,,,,,,,,,,,,,,,,,,,,,,
,,,,,,61716a16c157db249e36fc46,62bbfab4aab8c72820507257,2022-06-29_09h12.47.457,Colour_Asymmetry_Pilot,2022.1.3,Win32,60.59871531,62bbe60bf3d75ef465d3e404,0,74,74,125,1,threefour,,,,,,,,,,,,,,,,,,,,,,,,,,,,,,,,,,,,,,,,,,,,,,,,,,,,,,,,,,,,,,,,,,,,,,,,,,,,,,,,,,,,,,,,,,,,,,,,,,,,,,,,,,,,,,,,,,,,,,,,,,,,,,,,,,,,,,,,,,,,,,,,,,,,,,,,
,,,,,,61716a16c157db249e36fc46,62bbfab4aab8c72820507257,2022-06-29_09h12.47.457,Colour_Asymmetry_Pilot,2022.1.3,Win32,60.59871531,62bbe60bf3d75ef465d3e404,0,75,75,155,1,twofour,,,,,,,,,,,,,,,,,,,,,,,,,,,,,,,,,,,,,,,,,,,,,,,,,,,,,,,,,,,,,,,,,,,,,,,,,,,,,,,,,,,,,,,,,,,,,,,,,,,,,,,,,,,,,,,,,,,,,,,,,,,,,,,,,,,,,,,,,,,,,,,,,,,,,,,,
,,,,,,61716a16c157db249e36fc46,62bbfab4aab8c72820507257,2022-06-29_09h12.47.457,Colour_Asymmetry_Pilot,2022.1.3,Win32,60.59871531,62bbe60bf3d75ef465d3e404,0,76,76,58,1,twoone,,,,,,,,,,,,,,,,,,,,,,,,,,,,,,,,,,,,,,,,,,,,,,,,,,,,,,,,,,,,,,,,,,,,,,,,,,,,,,,,,,,,,,,,,,,,,,,,,,,,,,,,,,,,,,,,,,,,,,,,,,,,,,,,,,,,,,,,,,,,,,,,,,,,,,,,
,,,,,,61716a16c157db249e36fc46,62bbfab4aab8c72820507257,2022-06-29_09h12.47.457,Colour_Asymmetry_Pilot,2022.1.3,Win32,60.59871531,62bbe60bf3d75ef465d3e404,0,77,77,66,1,twoone,,,,,,,,,,,,,,,,,,,,,,,,,,,,,,,,,,,,,,,,,,,,,,,,,,,,,,,,,,,,,,,,,,,,,,,,,,,,,,,,,,,,,,,,,,,,,,,,,,,,,,,,,,,,,,,,,,,,,,,,,,,,,,,,,,,,,,,,,,,,,,,,,,,,,,,,
,,,,,,61716a16c157db249e36fc46,62bbfab4aab8c72820507257,2022-06-29_09h12.47.457,Colour_Asymmetry_Pilot,2022.1.3,Win32,60.59871531,62bbe60bf3d75ef465d3e404,0,78,78,152,1,onetwo,,,,,,,,,,,,,,,,,,,,,,,,,,,,,,,,,,,,,,,,,,,,,,,,,,,,,,,,,,,,,,,,,,,,,,,,,,,,,,,,,,,,,,,,,,,,,,,,,,,,,,,,,,,,,,,,,,,,,,,,,,,,,,,,,,,,,,,,,,,,,,,,,,,,,,,,
,,,,,,61716a16c157db249e36fc46,62bbfab4aab8c72820507257,2022-06-29_09h12.47.457,Colour_Asymmetry_Pilot,2022.1.3,Win32,60.59871531,62bbe60bf3d75ef465d3e404,0,79,79,137,1,onethree,,,,,,,,,,,,,,,,,,,,,,,,,,,,,,,,,,,,,,,,,,,,,,,,,,,,,,,,,,,,,,,,,,,,,,,,,,,,,,,,,,,,,,,,,,,,,,,,,,,,,,,,,,,,,,,,,,,,,,,,,,,,,,,,,,,,,,,,,,,,,,,,,,,,,,,,
,,,,,,61716a16c157db249e36fc46,62bbfab4aab8c72820507257,2022-06-29_09h12.47.457,Colour_Asymmetry_Pilot,2022.1.3,Win32,60.59871531,62bbe60bf3d75ef465d3e404,0,80,80,74,1,twoone,,,,,,,,,,,,,,,,,,,,,,,,,,,,,,,,,,,,,,,,,,,,,,,,,,,,,,,,,,,,,,,,,,,,,,,,,,,,,,,,,,,,,,,,,,,,,,,,,,,,,,,,,,,,,,,,,,,,,,,,,,,,,,,,,,,,,,,,,,,,,,,,,,,,,,,,
,,,,,,61716a16c157db249e36fc46,62bbfab4aab8c72820507257,2022-06-29_09h12.47.457,Colour_Asymmetry_Pilot,2022.1.3,Win32,60.59871531,62bbe60bf3d75ef465d3e404,0,81,81,19,1,twofour,,,,,,,,,,,,,,,,,,,,,,,,,,,,,,,,,,,,,,,,,,,,,,,,,,,,,,,,,,,,,,,,,,,,,,,,,,,,,,,,,,,,,,,,,,,,,,,,,,,,,,,,,,,,,,,,,,,,,,,,,,,,,,,,,,,,,,,,,,,,,,,,,,,,,,,,
,,,,,,61716a16c157db249e36fc46,62bbfab4aab8c72820507257,2022-06-29_09h12.47.457,Colour_Asymmetry_Pilot,2022.1.3,Win32,60.59871531,62bbe60bf3d75ef465d3e404,0,82,82,25,1,onethree,,,,,,,,,,,,,,,,,,,,,,,,,,,,,,,,,,,,,,,,,,,,,,,,,,,,,,,,,,,,,,,,,,,,,,,,,,,,,,,,,,,,,,,,,,,,,,,,,,,,,,,,,,,,,,,,,,,,,,,,,,,,,,,,,,,,,,,,,,,,,,,,,,,,,,,,
,,,,,,61716a16c157db249e36fc46,62bbfab4aab8c72820507257,2022-06-29_09h12.47.457,Colour_Asymmetry_Pilot,2022.1.3,Win32,60.59871531,62bbe60bf3d75ef465d3e404,0,83,83,27,1,twofour,,,,,,,,,,,,,,,,,,,,,,,,,,,,,,,,,,,,,,,,,,,,,,,,,,,,,,,,,,,,,,,,,,,,,,,,,,,,,,,,,,,,,,,,,,,,,,,,,,,,,,,,,,,,,,,,,,,,,,,,,,,,,,,,,,,,,,,,,,,,,,,,,,,,,,,,
,,,,,,61716a16c157db249e36fc46,62bbfab4aab8c72820507257,2022-06-29_09h12.47.457,Colour_Asymmetry_Pilot,2022.1.3,Win32,60.59871531,62bbe60bf3d75ef465d3e404,0,84,84,142,1,fourtwo,,,,,,,,,,,,,,,,,,,,,,,,,,,,,,,,,,,,,,,,,,,,,,,,,,,,,,,,,,,,,,,,,,,,,,,,,,,,,,,,,,,,,,,,,,,,,,,,,,,,,,,,,,,,,,,,,,,,,,,,,,,,,,,,,,,,,,,,,,,,,,,,,,,,,,,,
,,,,,,61716a16c157db249e36fc46,62bbfab4aab8c72820507257,2022-06-29_09h12.47.457,Colour_Asymmetry_Pilot,2022.1.3,Win32,60.59871531,62bbe60bf3d75ef465d3e404,0,85,85,111,1,fourthree,,,,,,,,,,,,,,,,,,,,,,,,,,,,,,,,,,,,,,,,,,,,,,,,,,,,,,,,,,,,,,,,,,,,,,,,,,,,,,,,,,,,,,,,,,,,,,,,,,,,,,,,,,,,,,,,,,,,,,,,,,,,,,,,,,,,,,,,,,,,,,,,,,,,,,,,
,,,,,,61716a16c157db249e36fc46,62bbfab4aab8c72820507257,2022-06-29_09h12.47.457,Colour_Asymmetry_Pilot,2022.1.3,Win32,60.59871531,62bbe60bf3d75ef465d3e404,0,86,86,112,1,onetwo,,,,,,,,,,,,,,,,,,,,,,,,,,,,,,,,,,,,,,,,,,,,,,,,,,,,,,,,,,,,,,,,,,,,,,,,,,,,,,,,,,,,,,,,,,,,,,,,,,,,,,,,,,,,,,,,,,,,,,,,,,,,,,,,,,,,,,,,,,,,,,,,,,,,,,,,
,,,,,,61716a16c157db249e36fc46,62bbfab4aab8c72820507257,2022-06-29_09h12.47.457,Colour_Asymmetry_Pilot,2022.1.3,Win32,60.59871531,62bbe60bf3d75ef465d3e404,0,87,87,156,1,threeone,,,,,,,,,,,,,,,,,,,,,,,,,,,,,,,,,,,,,,,,,,,,,,,,,,,,,,,,,,,,,,,,,,,,,,,,,,,,,,,,,,,,,,,,,,,,,,,,,,,,,,,,,,,,,,,,,,,,,,,,,,,,,,,,,,,,,,,,,,,,,,,,,,,,,,,,
,,,,,,61716a16c157db249e36fc46,62bbfab4aab8c72820507257,2022-06-29_09h12.47.457,Colour_Asymmetry_Pilot,2022.1.3,Win32,60.59871531,62bbe60bf3d75ef465d3e404,0,88,88,104,1,onetwo,,,,,,,,,,,,,,,,,,,,,,,,,,,,,,,,,,,,,,,,,,,,,,,,,,,,,,,,,,,,,,,,,,,,,,,,,,,,,,,,,,,,,,,,,,,,,,,,,,,,,,,,,,,,,,,,,,,,,,,,,,,,,,,,,,,,,,,,,,,,,,,,,,,,,,,,
,,,,,,61716a16c157db249e36fc46,62bbfab4aab8c72820507257,2022-06-29_09h12.47.457,Colour_Asymmetry_Pilot,2022.1.3,Win32,60.59871531,62bbe60bf3d75ef465d3e404,0,89,89,95,1,fourthree,,,,,,,,,,,,,,,,,,,,,,,,,,,,,,,,,,,,,,,,,,,,,,,,,,,,,,,,,,,,,,,,,,,,,,,,,,,,,,,,,,,,,,,,,,,,,,,,,,,,,,,,,,,,,,,,,,,,,,,,,,,,,,,,,,,,,,,,,,,,,,,,,,,,,,,,
,,,,,,61716a16c157db249e36fc46,62bbfab4aab8c72820507257,2022-06-29_09h12.47.457,Colour_Asymmetry_Pilot,2022.1.3,Win32,60.59871531,62bbe60bf3d75ef465d3e404,0,90,90,113,1,onethree,,,,,,,,,,,,,,,,,,,,,,,,,,,,,,,,,,,,,,,,,,,,,,,,,,,,,,,,,,,,,,,,,,,,,,,,,,,,,,,,,,,,,,,,,,,,,,,,,,,,,,,,,,,,,,,,,,,,,,,,,,,,,,,,,,,,,,,,,,,,,,,,,,,,,,,,
,,,,,,61716a16c157db249e36fc46,62bbfab4aab8c72820507257,2022-06-29_09h12.47.457,Colour_Asymmetry_Pilot,2022.1.3,Win32,60.59871531,62bbe60bf3d75ef465d3e404,0,91,91,106,1,twoone,,,,,,,,,,,,,,,,,,,,,,,,,,,,,,,,,,,,,,,,,,,,,,,,,,,,,,,,,,,,,,,,,,,,,,,,,,,,,,,,,,,,,,,,,,,,,,,,,,,,,,,,,,,,,,,,,,,,,,,,,,,,,,,,,,,,,,,,,,,,,,,,,,,,,,,,
,,,,,,61716a16c157db249e36fc46,62bbfab4aab8c72820507257,2022-06-29_09h12.47.457,Colour_Asymmetry_Pilot,2022.1.3,Win32,60.59871531,62bbe60bf3d75ef465d3e404,0,92,92,143,1,fourthree,,,,,,,,,,,,,,,,,,,,,,,,,,,,,,,,,,,,,,,,,,,,,,,,,,,,,,,,,,,,,,,,,,,,,,,,,,,,,,,,,,,,,,,,,,,,,,,,,,,,,,,,,,,,,,,,,,,,,,,,,,,,,,,,,,,,,,,,,,,,,,,,,,,,,,,,
,,,,,,61716a16c157db249e36fc46,62bbfab4aab8c72820507257,2022-06-29_09h12.47.457,Colour_Asymmetry_Pilot,2022.1.3,Win32,60.59871531,62bbe60bf3d75ef465d3e404,0,93,93,8,1,onetwo,,,,,,,,,,,,,,,,,,,,,,,,,,,,,,,,,,,,,,,,,,,,,,,,,,,,,,,,,,,,,,,,,,,,,,,,,,,,,,,,,,,,,,,,,,,,,,,,,,,,,,,,,,,,,,,,,,,,,,,,,,,,,,,,,,,,,,,,,,,,,,,,,,,,,,,,
,,,,,,61716a16c157db249e36fc46,62bbfab4aab8c72820507257,2022-06-29_09h12.47.457,Colour_Asymmetry_Pilot,2022.1.3,Win32,60.59871531,62bbe60bf3d75ef465d3e404,0,94,94,77,1,threefour,,,,,,,,,,,,,,,,,,,,,,,,,,,,,,,,,,,,,,,,,,,,,,,,,,,,,,,,,,,,,,,,,,,,,,,,,,,,,,,,,,,,,,,,,,,,,,,,,,,,,,,,,,,,,,,,,,,,,,,,,,,,,,,,,,,,,,,,,,,,,,,,,,,,,,,,
,,,,,,61716a16c157db249e36fc46,62bbfab4aab8c72820507257,2022-06-29_09h12.47.457,Colour_Asymmetry_Pilot,2022.1.3,Win32,60.59871531,62bbe60bf3d75ef465d3e404,0,95,95,28,1,threeone,,,,,,,,,,,,,,,,,,,,,,,,,,,,,,,,,,,,,,,,,,,,,,,,,,,,,,,,,,,,,,,,,,,,,,,,,,,,,,,,,,,,,,,,,,,,,,,,,,,,,,,,,,,,,,,,,,,,,,,,,,,,,,,,,,,,,,,,,,,,,,,,,,,,,,,,
,,,,,,61716a16c157db249e36fc46,62bbfab4aab8c72820507257,2022-06-29_09h12.47.457,Colour_Asymmetry_Pilot,2022.1.3,Win32,60.59871531,62bbe60bf3d75ef465d3e404,0,96,96,65,1,onethree,,,,,,,,,,,,,,,,,,,,,,,,,,,,,,,,,,,,,,,,,,,,,,,,,,,,,,,,,,,,,,,,,,,,,,,,,,,,,,,,,,,,,,,,,,,,,,,,,,,,,,,,,,,,,,,,,,,,,,,,,,,,,,,,,,,,,,,,,,,,,,,,,,,,,,,,
,,,,,,61716a16c157db249e36fc46,62bbfab4aab8c72820507257,2022-06-29_09h12.47.457,Colour_Asymmetry_Pilot,2022.1.3,Win32,60.59871531,62bbe60bf3d75ef465d3e404,0,97,97,96,1,onetwo,,,,,,,,,,,,,,,,,,,,,,,,,,,,,,,,,,,,,,,,,,,,,,,,,,,,,,,,,,,,,,,,,,,,,,,,,,,,,,,,,,,,,,,,,,,,,,,,,,,,,,,,,,,,,,,,,,,,,,,,,,,,,,,,,,,,,,,,,,,,,,,,,,,,,,,,
,,,,,,61716a16c157db249e36fc46,62bbfab4aab8c72820507257,2022-06-29_09h12.47.457,Colour_Asymmetry_Pilot,2022.1.3,Win32,60.59871531,62bbe60bf3d75ef465d3e404,0,98,98,98,1,twoone,,,,,,,,,,,,,,,,,,,,,,,,,,,,,,,,,,,,,,,,,,,,,,,,,,,,,,,,,,,,,,,,,,,,,,,,,,,,,,,,,,,,,,,,,,,,,,,,,,,,,,,,,,,,,,,,,,,,,,,,,,,,,,,,,,,,,,,,,,,,,,,,,,,,,,,,
,,,,,,61716a16c157db249e36fc46,62bbfab4aab8c72820507257,2022-06-29_09h12.47.457,Colour_Asymmetry_Pilot,2022.1.3,Win32,60.59871531,62bbe60bf3d75ef465d3e404,0,99,99,149,1,threefour,,,,,,,,,,,,,,,,,,,,,,,,,,,,,,,,,,,,,,,,,,,,,,,,,,,,,,,,,,,,,,,,,,,,,,,,,,,,,,,,,,,,,,,,,,,,,,,,,,,,,,,,,,,,,,,,,,,,,,,,,,,,,,,,,,,,,,,,,,,,,,,,,,,,,,,,
,,,,,,61716a16c157db249e36fc46,62bbfab4aab8c72820507257,2022-06-29_09h12.47.457,Colour_Asymmetry_Pilot,2022.1.3,Win32,60.59871531,62bbe60bf3d75ef465d3e404,0,100,100,138,1,twoone,,,,,,,,,,,,,,,,,,,,,,,,,,,,,,,,,,,,,,,,,,,,,,,,,,,,,,,,,,,,,,,,,,,,,,,,,,,,,,,,,,,,,,,,,,,,,,,,,,,,,,,,,,,,,,,,,,,,,,,,,,,,,,,,,,,,,,,,,,,,,,,,,,,,,,,,
,,,,,,61716a16c157db249e36fc46,62bbfab4aab8c72820507257,2022-06-29_09h12.47.457,Colour_Asymmetry_Pilot,2022.1.3,Win32,60.59871531,62bbe60bf3d75ef465d3e404,0,101,101,136,1,onetwo,,,,,,,,,,,,,,,,,,,,,,,,,,,,,,,,,,,,,,,,,,,,,,,,,,,,,,,,,,,,,,,,,,,,,,,,,,,,,,,,,,,,,,,,,,,,,,,,,,,,,,,,,,,,,,,,,,,,,,,,,,,,,,,,,,,,,,,,,,,,,,,,,,,,,,,,
,,,,,,61716a16c157db249e36fc46,62bbfab4aab8c72820507257,2022-06-29_09h12.47.457,Colour_Asymmetry_Pilot,2022.1.3,Win32,60.59871531,62bbe60bf3d75ef465d3e404,0,102,102,13,1,threefour,,,,,,,,,,,,,,,,,,,,,,,,,,,,,,,,,,,,,,,,,,,,,,,,,,,,,,,,,,,,,,,,,,,,,,,,,,,,,,,,,,,,,,,,,,,,,,,,,,,,,,,,,,,,,,,,,,,,,,,,,,,,,,,,,,,,,,,,,,,,,,,,,,,,,,,,
,,,,,,61716a16c157db249e36fc46,62bbfab4aab8c72820507257,2022-06-29_09h12.47.457,Colour_Asymmetry_Pilot,2022.1.3,Win32,60.59871531,62bbe60bf3d75ef465d3e404,0,103,103,55,1,fourthree,,,,,,,,,,,,,,,,,,,,,,,,,,,,,,,,,,,,,,,,,,,,,,,,,,,,,,,,,,,,,,,,,,,,,,,,,,,,,,,,,,,,,,,,,,,,,,,,,,,,,,,,,,,,,,,,,,,,,,,,,,,,,,,,,,,,,,,,,,,,,,,,,,,,,,,,
,,,,,,61716a16c157db249e36fc46,62bbfab4aab8c72820507257,2022-06-29_09h12.47.457,Colour_Asymmetry_Pilot,2022.1.3,Win32,60.59871531,62bbe60bf3d75ef465d3e404,0,104,104,20,1,threeone,,,,,,,,,,,,,,,,,,,,,,,,,,,,,,,,,,,,,,,,,,,,,,,,,,,,,,,,,,,,,,,,,,,,,,,,,,,,,,,,,,,,,,,,,,,,,,,,,,,,,,,,,,,,,,,,,,,,,,,,,,,,,,,,,,,,,,,,,,,,,,,,,,,,,,,,
,,,,,,61716a16c157db249e36fc46,62bbfab4aab8c72820507257,2022-06-29_09h12.47.457,Colour_Asymmetry_Pilot,2022.1.3,Win32,60.59871531,62bbe60bf3d75ef465d3e404,0,105,105,1,1,onethree,,,,,,,,,,,,,,,,,,,,,,,,,,,,,,,,,,,,,,,,,,,,,,,,,,,,,,,,,,,,,,,,,,,,,,,,,,,,,,,,,,,,,,,,,,,,,,,,,,,,,,,,,,,,,,,,,,,,,,,,,,,,,,,,,,,,,,,,,,,,,,,,,,,,,,,,
,,,,,,61716a16c157db249e36fc46,62bbfab4aab8c72820507257,2022-06-29_09h12.47.457,Colour_Asymmetry_Pilot,2022.1.3,Win32,60.59871531,62bbe60bf3d75ef465d3e404,0,106,106,35,1,twofour,,,,,,,,,,,,,,,,,,,,,,,,,,,,,,,,,,,,,,,,,,,,,,,,,,,,,,,,,,,,,,,,,,,,,,,,,,,,,,,,,,,,,,,,,,,,,,,,,,,,,,,,,,,,,,,,,,,,,,,,,,,,,,,,,,,,,,,,,,,,,,,,,,,,,,,,
,,,,,,61716a16c157db249e36fc46,62bbfab4aab8c72820507257,2022-06-29_09h12.47.457,Colour_Asymmetry_Pilot,2022.1.3,Win32,60.59871531,62bbe60bf3d75ef465d3e404,0,107,107,133,1,threefour,,,,,,,,,,,,,,,,,,,,,,,,,,,,,,,,,,,,,,,,,,,,,,,,,,,,,,,,,,,,,,,,,,,,,,,,,,,,,,,,,,,,,,,,,,,,,,,,,,,,,,,,,,,,,,,,,,,,,,,,,,,,,,,,,,,,,,,,,,,,,,,,,,,,,,,,
,,,,,,61716a16c157db249e36fc46,62bbfab4aab8c72820507257,2022-06-29_09h12.47.457,Colour_Asymmetry_Pilot,2022.1.3,Win32,60.59871531,62bbe60bf3d75ef465d3e404,0,108,108,44,1,threeone,,,,,,,,,,,,,,,,,,,,,,,,,,,,,,,,,,,,,,,,,,,,,,,,,,,,,,,,,,,,,,,,,,,,,,,,,,,,,,,,,,,,,,,,,,,,,,,,,,,,,,,,,,,,,,,,,,,,,,,,,,,,,,,,,,,,,,,,,,,,,,,,,,,,,,,,
,,,,,,61716a16c157db249e36fc46,62bbfab4aab8c72820507257,2022-06-29_09h12.47.457,Colour_Asymmetry_Pilot,2022.1.3,Win32,60.59871531,62bbe60bf3d75ef465d3e404,0,109,109,90,1,twoone,,,,,,,,,,,,,,,,,,,,,,,,,,,,,,,,,,,,,,,,,,,,,,,,,,,,,,,,,,,,,,,,,,,,,,,,,,,,,,,,,,,,,,,,,,,,,,,,,,,,,,,,,,,,,,,,,,,,,,,,,,,,,,,,,,,,,,,,,,,,,,,,,,,,,,,,
,,,,,,61716a16c157db249e36fc46,62bbfab4aab8c72820507257,2022-06-29_09h12.47.457,Colour_Asymmetry_Pilot,2022.1.3,Win32,60.59871531,62bbe60bf3d75ef465d3e404,0,110,110,68,1,threeone,,,,,,,,,,,,,,,,,,,,,,,,,,,,,,,,,,,,,,,,,,,,,,,,,,,,,,,,,,,,,,,,,,,,,,,,,,,,,,,,,,,,,,,,,,,,,,,,,,,,,,,,,,,,,,,,,,,,,,,,,,,,,,,,,,,,,,,,,,,,,,,,,,,,,,,,
,,,,,,61716a16c157db249e36fc46,62bbfab4aab8c72820507257,2022-06-29_09h12.47.457,Colour_Asymmetry_Pilot,2022.1.3,Win32,60.59871531,62bbe60bf3d75ef465d3e404,0,111,111,123,1,twofour,,,,,,,,,,,,,,,,,,,,,,,,,,,,,,,,,,,,,,,,,,,,,,,,,,,,,,,,,,,,,,,,,,,,,,,,,,,,,,,,,,,,,,,,,,,,,,,,,,,,,,,,,,,,,,,,,,,,,,,,,,,,,,,,,,,,,,,,,,,,,,,,,,,,,,,,
,,,,,,61716a16c157db249e36fc46,62bbfab4aab8c72820507257,2022-06-29_09h12.47.457,Colour_Asymmetry_Pilot,2022.1.3,Win32,60.59871531,62bbe60bf3d75ef465d3e404,0,112,112,146,1,twoone,,,,,,,,,,,,,,,,,,,,,,,,,,,,,,,,,,,,,,,,,,,,,,,,,,,,,,,,,,,,,,,,,,,,,,,,,,,,,,,,,,,,,,,,,,,,,,,,,,,,,,,,,,,,,,,,,,,,,,,,,,,,,,,,,,,,,,,,,,,,,,,,,,,,,,,,
,,,,,,61716a16c157db249e36fc46,62bbfab4aab8c72820507257,2022-06-29_09h12.47.457,Colour_Asymmetry_Pilot,2022.1.3,Win32,60.59871531,62bbe60bf3d75ef465d3e404,0,113,113,126,1,fourtwo,,,,,,,,,,,,,,,,,,,,,,,,,,,,,,,,,,,,,,,,,,,,,,,,,,,,,,,,,,,,,,,,,,,,,,,,,,,,,,,,,,,,,,,,,,,,,,,,,,,,,,,,,,,,,,,,,,,,,,,,,,,,,,,,,,,,,,,,,,,,,,,,,,,,,,,,
,,,,,,61716a16c157db249e36fc46,62bbfab4aab8c72820507257,2022-06-29_09h12.47.457,Colour_Asymmetry_Pilot,2022.1.3,Win32,60.59871531,62bbe60bf3d75ef465d3e404,0,114,114,103,1,fourthree,,,,,,,,,,,,,,,,,,,,,,,,,,,,,,,,,,,,,,,,,,,,,,,,,,,,,,,,,,,,,,,,,,,,,,,,,,,,,,,,,,,,,,,,,,,,,,,,,,,,,,,,,,,,,,,,,,,,,,,,,,,,,,,,,,,,,,,,,,,,,,,,,,,,,,,,
,,,,,,61716a16c157db249e36fc46,62bbfab4aab8c72820507257,2022-06-29_09h12.47.457,Colour_Asymmetry_Pilot,2022.1.3,Win32,60.59871531,62bbe60bf3d75ef465d3e404,0,115,115,17,1,onethree,,,,,,,,,,,,,,,,,,,,,,,,,,,,,,,,,,,,,,,,,,,,,,,,,,,,,,,,,,,,,,,,,,,,,,,,,,,,,,,,,,,,,,,,,,,,,,,,,,,,,,,,,,,,,,,,,,,,,,,,,,,,,,,,,,,,,,,,,,,,,,,,,,,,,,,,
,,,,,,61716a16c157db249e36fc46,62bbfab4aab8c72820507257,2022-06-29_09h12.47.457,Colour_Asymmetry_Pilot,2022.1.3,Win32,60.59871531,62bbe60bf3d75ef465d3e404,0,116,116,70,1,fourtwo,,,,,,,,,,,,,,,,,,,,,,,,,,,,,,,,,,,,,,,,,,,,,,,,,,,,,,,,,,,,,,,,,,,,,,,,,,,,,,,,,,,,,,,,,,,,,,,,,,,,,,,,,,,,,,,,,,,,,,,,,,,,,,,,,,,,,,,,,,,,,,,,,,,,,,,,
,,,,,,61716a16c157db249e36fc46,62bbfab4aab8c72820507257,2022-06-29_09h12.47.457,Colour_Asymmetry_Pilot,2022.1.3,Win32,60.59871531,62bbe60bf3d75ef465d3e404,0,117,117,132,1,threeone,,,,,,,,,,,,,,,,,,,,,,,,,,,,,,,,,,,,,,,,,,,,,,,,,,,,,,,,,,,,,,,,,,,,,,,,,,,,,,,,,,,,,,,,,,,,,,,,,,,,,,,,,,,,,,,,,,,,,,,,,,,,,,,,,,,,,,,,,,,,,,,,,,,,,,,,
,,,,,,61716a16c157db249e36fc46,62bbfab4aab8c72820507257,2022-06-29_09h12.47.457,Colour_Asymmetry_Pilot,2022.1.3,Win32,60.59871531,62bbe60bf3d75ef465d3e404,0,118,118,154,1,twoone,,,,,,,,,,,,,,,,,,,,,,,,,,,,,,,,,,,,,,,,,,,,,,,,,,,,,,,,,,,,,,,,,,,,,,,,,,,,,,,,,,,,,,,,,,,,,,,,,,,,,,,,,,,,,,,,,,,,,,,,,,,,,,,,,,,,,,,,,,,,,,,,,,,,,,,,
,,,,,,61716a16c157db249e36fc46,62bbfab4aab8c72820507257,2022-06-29_09h12.47.457,Colour_Asymmetry_Pilot,2022.1.3,Win32,60.59871531,62bbe60bf3d75ef465d3e404,0,119,119,63,1,fourthree,,,,,,,,,,,,,,,,,,,,,,,,,,,,,,,,,,,,,,,,,,,,,,,,,,,,,,,,,,,,,,,,,,,,,,,,,,,,,,,,,,,,,,,,,,,,,,,,,,,,,,,,,,,,,,,,,,,,,,,,,,,,,,,,,,,,,,,,,,,,,,,,,,,,,,,,
,,,,,,61716a16c157db249e36fc46,62bbfab4aab8c72820507257,2022-06-29_09h12.47.457,Colour_Asymmetry_Pilot,2022.1.3,Win32,60.59871531,62bbe60bf3d75ef465d3e404,0,120,120,158,1,fourtwo,,,,,,,,,,,,,,,,,,,,,,,,,,,,,,,,,,,,,,,,,,,,,,,,,,,,,,,,,,,,,,,,,,,,,,,,,,,,,,,,,,,,,,,,,,,,,,,,,,,,,,,,,,,,,,,,,,,,,,,,,,,,,,,,,,,,,,,,,,,,,,,,,,,,,,,,
,,,,,,61716a16c157db249e36fc46,62bbfab4aab8c72820507257,2022-06-29_09h12.47.457,Colour_Asymmetry_Pilot,2022.1.3,Win32,60.59871531,62bbe60bf3d75ef465d3e404,0,121,121,101,1,threefour,,,,,,,,,,,,,,,,,,,,,,,,,,,,,,,,,,,,,,,,,,,,,,,,,,,,,,,,,,,,,,,,,,,,,,,,,,,,,,,,,,,,,,,,,,,,,,,,,,,,,,,,,,,,,,,,,,,,,,,,,,,,,,,,,,,,,,,,,,,,,,,,,,,,,,,,
,,,,,,61716a16c157db249e36fc46,62bbfab4aab8c72820507257,2022-06-29_09h12.47.457,Colour_Asymmetry_Pilot,2022.1.3,Win32,60.59871531,62bbe60bf3d75ef465d3e404,0,122,122,45,1,threefour,,,,,,,,,,,,,,,,,,,,,,,,,,,,,,,,,,,,,,,,,,,,,,,,,,,,,,,,,,,,,,,,,,,,,,,,,,,,,,,,,,,,,,,,,,,,,,,,,,,,,,,,,,,,,,,,,,,,,,,,,,,,,,,,,,,,,,,,,,,,,,,,,,,,,,,,
,,,,,,61716a16c157db249e36fc46,62bbfab4aab8c72820507257,2022-06-29_09h12.47.457,Colour_Asymmetry_Pilot,2022.1.3,Win32,60.59871531,62bbe60bf3d75ef465d3e404,0,123,123,157,1,threefour,,,,,,,,,,,,,,,,,,,,,,,,,,,,,,,,,,,,,,,,,,,,,,,,,,,,,,,,,,,,,,,,,,,,,,,,,,,,,,,,,,,,,,,,,,,,,,,,,,,,,,,,,,,,,,,,,,,,,,,,,,,,,,,,,,,,,,,,,,,,,,,,,,,,,,,,
,,,,,,61716a16c157db249e36fc46,62bbfab4aab8c72820507257,2022-06-29_09h12.47.457,Colour_Asymmetry_Pilot,2022.1.3,Win32,60.59871531,62bbe60bf3d75ef465d3e404,0,124,124,89,1,onethree,,,,,,,,,,,,,,,,,,,,,,,,,,,,,,,,,,,,,,,,,,,,,,,,,,,,,,,,,,,,,,,,,,,,,,,,,,,,,,,,,,,,,,,,,,,,,,,,,,,,,,,,,,,,,,,,,,,,,,,,,,,,,,,,,,,,,,,,,,,,,,,,,,,,,,,,
,,,,,,61716a16c157db249e36fc46,62bbfab4aab8c72820507257,2022-06-29_09h12.47.457,Colour_Asymmetry_Pilot,2022.1.3,Win32,60.59871531,62bbe60bf3d75ef465d3e404,0,125,125,148,1,threeone,,,,,,,,,,,,,,,,,,,,,,,,,,,,,,,,,,,,,,,,,,,,,,,,,,,,,,,,,,,,,,,,,,,,,,,,,,,,,,,,,,,,,,,,,,,,,,,,,,,,,,,,,,,,,,,,,,,,,,,,,,,,,,,,,,,,,,,,,,,,,,,,,,,,,,,,
,,,,,,61716a16c157db249e36fc46,62bbfab4aab8c72820507257,2022-06-29_09h12.47.457,Colour_Asymmetry_Pilot,2022.1.3,Win32,60.59871531,62bbe60bf3d75ef465d3e404,0,126,126,119,1,fourthree,,,,,,,,,,,,,,,,,,,,,,,,,,,,,,,,,,,,,,,,,,,,,,,,,,,,,,,,,,,,,,,,,,,,,,,,,,,,,,,,,,,,,,,,,,,,,,,,,,,,,,,,,,,,,,,,,,,,,,,,,,,,,,,,,,,,,,,,,,,,,,,,,,,,,,,,
,,,,,,61716a16c157db249e36fc46,62bbfab4aab8c72820507257,2022-06-29_09h12.47.457,Colour_Asymmetry_Pilot,2022.1.3,Win32,60.59871531,62bbe60bf3d75ef465d3e404,0,127,127,6,1,fourtwo,,,,,,,,,,,,,,,,,,,,,,,,,,,,,,,,,,,,,,,,,,,,,,,,,,,,,,,,,,,,,,,,,,,,,,,,,,,,,,,,,,,,,,,,,,,,,,,,,,,,,,,,,,,,,,,,,,,,,,,,,,,,,,,,,,,,,,,,,,,,,,,,,,,,,,,,
,,,,,,61716a16c157db249e36fc46,62bbfab4aab8c72820507257,2022-06-29_09h12.47.457,Colour_Asymmetry_Pilot,2022.1.3,Win32,60.59871531,62bbe60bf3d75ef465d3e404,0,128,128,85,1,threefour,,,,,,,,,,,,,,,,,,,,,,,,,,,,,,,,,,,,,,,,,,,,,,,,,,,,,,,,,,,,,,,,,,,,,,,,,,,,,,,,,,,,,,,,,,,,,,,,,,,,,,,,,,,,,,,,,,,,,,,,,,,,,,,,,,,,,,,,,,,,,,,,,,,,,,,,
,,,,,,61716a16c157db249e36fc46,62bbfab4aab8c72820507257,2022-06-29_09h12.47.457,Colour_Asymmetry_Pilot,2022.1.3,Win32,60.59871531,62bbe60bf3d75ef465d3e404,0,129,129,38,1,fourtwo,,,,,,,,,,,,,,,,,,,,,,,,,,,,,,,,,,,,,,,,,,,,,,,,,,,,,,,,,,,,,,,,,,,,,,,,,,,,,,,,,,,,,,,,,,,,,,,,,,,,,,,,,,,,,,,,,,,,,,,,,,,,,,,,,,,,,,,,,,,,,,,,,,,,,,,,
,,,,,,61716a16c157db249e36fc46,62bbfab4aab8c72820507257,2022-06-29_09h12.47.457,Colour_Asymmetry_Pilot,2022.1.3,Win32,60.59871531,62bbe60bf3d75ef465d3e404,0,130,130,71,1,fourthree,,,,,,,,,,,,,,,,,,,,,,,,,,,,,,,,,,,,,,,,,,,,,,,,,,,,,,,,,,,,,,,,,,,,,,,,,,,,,,,,,,,,,,,,,,,,,,,,,,,,,,,,,,,,,,,,,,,,,,,,,,,,,,,,,,,,,,,,,,,,,,,,,,,,,,,,
,,,,,,61716a16c157db249e36fc46,62bbfab4aab8c72820507257,2022-06-29_09h12.47.457,Colour_Asymmetry_Pilot,2022.1.3,Win32,60.59871531,62bbe60bf3d75ef465d3e404,0,131,131,69,1,threefour,,,,,,,,,,,,,,,,,,,,,,,,,,,,,,,,,,,,,,,,,,,,,,,,,,,,,,,,,,,,,,,,,,,,,,,,,,,,,,,,,,,,,,,,,,,,,,,,,,,,,,,,,,,,,,,,,,,,,,,,,,,,,,,,,,,,,,,,,,,,,,,,,,,,,,,,
,,,,,,61716a16c157db249e36fc46,62bbfab4aab8c72820507257,2022-06-29_09h12.47.457,Colour_Asymmetry_Pilot,2022.1.3,Win32,60.59871531,62bbe60bf3d75ef465d3e404,0,132,132,134,1,fourtwo,,,,,,,,,,,,,,,,,,,,,,,,,,,,,,,,,,,,,,,,,,,,,,,,,,,,,,,,,,,,,,,,,,,,,,,,,,,,,,,,,,,,,,,,,,,,,,,,,,,,,,,,,,,,,,,,,,,,,,,,,,,,,,,,,,,,,,,,,,,,,,,,,,,,,,,,
,,,,,,61716a16c157db249e36fc46,62bbfab4aab8c72820507257,2022-06-29_09h12.47.457,Colour_Asymmetry_Pilot,2022.1.3,Win32,60.59871531,62bbe60bf3d75ef465d3e404,0,133,133,46,1,fourtwo,,,,,,,,,,,,,,,,,,,,,,,,,,,,,,,,,,,,,,,,,,,,,,,,,,,,,,,,,,,,,,,,,,,,,,,,,,,,,,,,,,,,,,,,,,,,,,,,,,,,,,,,,,,,,,,,,,,,,,,,,,,,,,,,,,,,,,,,,,,,,,,,,,,,,,,,
,,,,,,61716a16c157db249e36fc46,62bbfab4aab8c72820507257,2022-06-29_09h12.47.457,Colour_Asymmetry_Pilot,2022.1.3,Win32,60.59871531,62bbe60bf3d75ef465d3e404,0,134,134,75,1,twofour,,,,,,,,,,,,,,,,,,,,,,,,,,,,,,,,,,,,,,,,,,,,,,,,,,,,,,,,,,,,,,,,,,,,,,,,,,,,,,,,,,,,,,,,,,,,,,,,,,,,,,,,,,,,,,,,,,,,,,,,,,,,,,,,,,,,,,,,,,,,,,,,,,,,,,,,
,,,,,,61716a16c157db249e36fc46,62bbfab4aab8c72820507257,2022-06-29_09h12.47.457,Colour_Asymmetry_Pilot,2022.1.3,Win32,60.59871531,62bbe60bf3d75ef465d3e404,0,135,135,83,1,twofour,,,,,,,,,,,,,,,,,,,,,,,,,,,,,,,,,,,,,,,,,,,,,,,,,,,,,,,,,,,,,,,,,,,,,,,,,,,,,,,,,,,,,,,,,,,,,,,,,,,,,,,,,,,,,,,,,,,,,,,,,,,,,,,,,,,,,,,,,,,,,,,,,,,,,,,,
,,,,,,61716a16c157db249e36fc46,62bbfab4aab8c72820507257,2022-06-29_09h12.47.457,Colour_Asymmetry_Pilot,2022.1.3,Win32,60.59871531,62bbe60bf3d75ef465d3e404,0,136,136,15,1,fourthree,,,,,,,,,,,,,,,,,,,,,,,,,,,,,,,,,,,,,,,,,,,,,,,,,,,,,,,,,,,,,,,,,,,,,,,,,,,,,,,,,,,,,,,,,,,,,,,,,,,,,,,,,,,,,,,,,,,,,,,,,,,,,,,,,,,,,,,,,,,,,,,,,,,,,,,,
,,,,,,61716a16c157db249e36fc46,62bbfab4aab8c72820507257,2022-06-29_09h12.47.457,Colour_Asymmetry_Pilot,2022.1.3,Win32,60.59871531,62bbe60bf3d75ef465d3e404,0,137,137,31,1,fourthree,,,,,,,,,,,,,,,,,,,,,,,,,,,,,,,,,,,,,,,,,,,,,,,,,,,,,,,,,,,,,,,,,,,,,,,,,,,,,,,,,,,,,,,,,,,,,,,,,,,,,,,,,,,,,,,,,,,,,,,,,,,,,,,,,,,,,,,,,,,,,,,,,,,,,,,,
,,,,,,61716a16c157db249e36fc46,62bbfab4aab8c72820507257,2022-06-29_09h12.47.457,Colour_Asymmetry_Pilot,2022.1.3,Win32,60.59871531,62bbe60bf3d75ef465d3e404,0,138,138,94,1,fourtwo,,,,,,,,,,,,,,,,,,,,,,,,,,,,,,,,,,,,,,,,,,,,,,,,,,,,,,,,,,,,,,,,,,,,,,,,,,,,,,,,,,,,,,,,,,,,,,,,,,,,,,,,,,,,,,,,,,,,,,,,,,,,,,,,,,,,,,,,,,,,,,,,,,,,,,,,
,,,,,,61716a16c157db249e36fc46,62bbfab4aab8c72820507257,2022-06-29_09h12.47.457,Colour_Asymmetry_Pilot,2022.1.3,Win32,60.59871531,62bbe60bf3d75ef465d3e404,0,139,139,12,1,threeone,,,,,,,,,,,,,,,,,,,,,,,,,,,,,,,,,,,,,,,,,,,,,,,,,,,,,,,,,,,,,,,,,,,,,,,,,,,,,,,,,,,,,,,,,,,,,,,,,,,,,,,,,,,,,,,,,,,,,,,,,,,,,,,,,,,,,,,,,,,,,,,,,,,,,,,,
,,,,,,61716a16c157db249e36fc46,62bbfab4aab8c72820507257,2022-06-29_09h12.47.457,Colour_Asymmetry_Pilot,2022.1.3,Win32,60.59871531,62bbe60bf3d75ef465d3e404,0,140,140,52,1,threeone,,,,,,,,,,,,,,,,,,,,,,,,,,,,,,,,,,,,,,,,,,,,,,,,,,,,,,,,,,,,,,,,,,,,,,,,,,,,,,,,,,,,,,,,,,,,,,,,,,,,,,,,,,,,,,,,,,,,,,,,,,,,,,,,,,,,,,,,,,,,,,,,,,,,,,,,
,,,,,,61716a16c157db249e36fc46,62bbfab4aab8c72820507257,2022-06-29_09h12.47.457,Colour_Asymmetry_Pilot,2022.1.3,Win32,60.59871531,62bbe60bf3d75ef465d3e404,0,141,141,86,1,fourtwo,,,,,,,,,,,,,,,,,,,,,,,,,,,,,,,,,,,,,,,,,,,,,,,,,,,,,,,,,,,,,,,,,,,,,,,,,,,,,,,,,,,,,,,,,,,,,,,,,,,,,,,,,,,,,,,,,,,,,,,,,,,,,,,,,,,,,,,,,,,,,,,,,,,,,,,,
,,,,,,61716a16c157db249e36fc46,62bbfab4aab8c72820507257,2022-06-29_09h12.47.457,Colour_Asymmetry_Pilot,2022.1.3,Win32,60.59871531,62bbe60bf3d75ef465d3e404,0,142,142,115,1,twofour,,,,,,,,,,,,,,,,,,,,,,,,,,,,,,,,,,,,,,,,,,,,,,,,,,,,,,,,,,,,,,,,,,,,,,,,,,,,,,,,,,,,,,,,,,,,,,,,,,,,,,,,,,,,,,,,,,,,,,,,,,,,,,,,,,,,,,,,,,,,,,,,,,,,,,,,
,,,,,,61716a16c157db249e36fc46,62bbfab4aab8c72820507257,2022-06-29_09h12.47.457,Colour_Asymmetry_Pilot,2022.1.3,Win32,60.59871531,62bbe60bf3d75ef465d3e404,0,143,143,48,1,onetwo,,,,,,,,,,,,,,,,,,,,,,,,,,,,,,,,,,,,,,,,,,,,,,,,,,,,,,,,,,,,,,,,,,,,,,,,,,,,,,,,,,,,,,,,,,,,,,,,,,,,,,,,,,,,,,,,,,,,,,,,,,,,,,,,,,,,,,,,,,,,,,,,,,,,,,,,
,,,,,,61716a16c157db249e36fc46,62bbfab4aab8c72820507257,2022-06-29_09h12.47.457,Colour_Asymmetry_Pilot,2022.1.3,Win32,60.59871531,62bbe60bf3d75ef465d3e404,0,144,144,92,1,threeone,,,,,,,,,,,,,,,,,,,,,,,,,,,,,,,,,,,,,,,,,,,,,,,,,,,,,,,,,,,,,,,,,,,,,,,,,,,,,,,,,,,,,,,,,,,,,,,,,,,,,,,,,,,,,,,,,,,,,,,,,,,,,,,,,,,,,,,,,,,,,,,,,,,,,,,,
,,,,,,61716a16c157db249e36fc46,62bbfab4aab8c72820507257,2022-06-29_09h12.47.457,Colour_Asymmetry_Pilot,2022.1.3,Win32,60.59871531,62bbe60bf3d75ef465d3e404,0,145,145,139,1,twofour,,,,,,,,,,,,,,,,,,,,,,,,,,,,,,,,,,,,,,,,,,,,,,,,,,,,,,,,,,,,,,,,,,,,,,,,,,,,,,,,,,,,,,,,,,,,,,,,,,,,,,,,,,,,,,,,,,,,,,,,,,,,,,,,,,,,,,,,,,,,,,,,,,,,,,,,
,,,,,,61716a16c157db249e36fc46,62bbfab4aab8c72820507257,2022-06-29_09h12.47.457,Colour_Asymmetry_Pilot,2022.1.3,Win32,60.59871531,62bbe60bf3d75ef465d3e404,0,146,146,110,1,fourtwo,,,,,,,,,,,,,,,,,,,,,,,,,,,,,,,,,,,,,,,,,,,,,,,,,,,,,,,,,,,,,,,,,,,,,,,,,,,,,,,,,,,,,,,,,,,,,,,,,,,,,,,,,,,,,,,,,,,,,,,,,,,,,,,,,,,,,,,,,,,,,,,,,,,,,,,,
,,,,,,61716a16c157db249e36fc46,62bbfab4aab8c72820507257,2022-06-29_09h12.47.457,Colour_Asymmetry_Pilot,2022.1.3,Win32,60.59871531,62bbe60bf3d75ef465d3e404,0,147,147,3,1,twofour,,,,,,,,,,,,,,,,,,,,,,,,,,,,,,,,,,,,,,,,,,,,,,,,,,,,,,,,,,,,,,,,,,,,,,,,,,,,,,,,,,,,,,,,,,,,,,,,,,,,,,,,,,,,,,,,,,,,,,,,,,,,,,,,,,,,,,,,,,,,,,,,,,,,,,,,
,,,,,,61716a16c157db249e36fc46,62bbfab4aab8c72820507257,2022-06-29_09h12.47.457,Colour_Asymmetry_Pilot,2022.1.3,Win32,60.59871531,62bbe60bf3d75ef465d3e404,0,148,148,53,1,threefour,,,,,,,,,,,,,,,,,,,,,,,,,,,,,,,,,,,,,,,,,,,,,,,,,,,,,,,,,,,,,,,,,,,,,,,,,,,,,,,,,,,,,,,,,,,,,,,,,,,,,,,,,,,,,,,,,,,,,,,,,,,,,,,,,,,,,,,,,,,,,,,,,,,,,,,,
,,,,,,61716a16c157db249e36fc46,62bbfab4aab8c72820507257,2022-06-29_09h12.47.457,Colour_Asymmetry_Pilot,2022.1.3,Win32,60.59871531,62bbe60bf3d75ef465d3e404,0,149,149,40,1,onetwo,,,,,,,,,,,,,,,,,,,,,,,,,,,,,,,,,,,,,,,,,,,,,,,,,,,,,,,,,,,,,,,,,,,,,,,,,,,,,,,,,,,,,,,,,,,,,,,,,,,,,,,,,,,,,,,,,,,,,,,,,,,,,,,,,,,,,,,,,,,,,,,,,,,,,,,,
,,,,,,61716a16c157db249e36fc46,62bbfab4aab8c72820507257,2022-06-29_09h12.47.457,Colour_Asymmetry_Pilot,2022.1.3,Win32,60.59871531,62bbe60bf3d75ef465d3e404,0,150,150,116,1,threeone,,,,,,,,,,,,,,,,,,,,,,,,,,,,,,,,,,,,,,,,,,,,,,,,,,,,,,,,,,,,,,,,,,,,,,,,,,,,,,,,,,,,,,,,,,,,,,,,,,,,,,,,,,,,,,,,,,,,,,,,,,,,,,,,,,,,,,,,,,,,,,,,,,,,,,,,
,,,,,,61716a16c157db249e36fc46,62bbfab4aab8c72820507257,2022-06-29_09h12.47.457,Colour_Asymmetry_Pilot,2022.1.3,Win32,60.59871531,62bbe60bf3d75ef465d3e404,0,151,151,30,1,fourtwo,,,,,,,,,,,,,,,,,,,,,,,,,,,,,,,,,,,,,,,,,,,,,,,,,,,,,,,,,,,,,,,,,,,,,,,,,,,,,,,,,,,,,,,,,,,,,,,,,,,,,,,,,,,,,,,,,,,,,,,,,,,,,,,,,,,,,,,,,,,,,,,,,,,,,,,,
,,,,,,61716a16c157db249e36fc46,62bbfab4aab8c72820507257,2022-06-29_09h12.47.457,Colour_Asymmetry_Pilot,2022.1.3,Win32,60.59871531,62bbe60bf3d75ef465d3e404,0,152,152,159,1,fourthree,,,,,,,,,,,,,,,,,,,,,,,,,,,,,,,,,,,,,,,,,,,,,,,,,,,,,,,,,,,,,,,,,,,,,,,,,,,,,,,,,,,,,,,,,,,,,,,,,,,,,,,,,,,,,,,,,,,,,,,,,,,,,,,,,,,,,,,,,,,,,,,,,,,,,,,,
,,,,,,61716a16c157db249e36fc46,62bbfab4aab8c72820507257,2022-06-29_09h12.47.457,Colour_Asymmetry_Pilot,2022.1.3,Win32,60.59871531,62bbe60bf3d75ef465d3e404,0,153,153,2,1,twoone,,,,,,,,,,,,,,,,,,,,,,,,,,,,,,,,,,,,,,,,,,,,,,,,,,,,,,,,,,,,,,,,,,,,,,,,,,,,,,,,,,,,,,,,,,,,,,,,,,,,,,,,,,,,,,,,,,,,,,,,,,,,,,,,,,,,,,,,,,,,,,,,,,,,,,,,
,,,,,,61716a16c157db249e36fc46,62bbfab4aab8c72820507257,2022-06-29_09h12.47.457,Colour_Asymmetry_Pilot,2022.1.3,Win32,60.59871531,62bbe60bf3d75ef465d3e404,0,154,154,129,1,onethree,,,,,,,,,,,,,,,,,,,,,,,,,,,,,,,,,,,,,,,,,,,,,,,,,,,,,,,,,,,,,,,,,,,,,,,,,,,,,,,,,,,,,,,,,,,,,,,,,,,,,,,,,,,,,,,,,,,,,,,,,,,,,,,,,,,,,,,,,,,,,,,,,,,,,,,,
,,,,,,61716a16c157db249e36fc46,62bbfab4aab8c72820507257,2022-06-29_09h12.47.457,Colour_Asymmetry_Pilot,2022.1.3,Win32,60.59871531,62bbe60bf3d75ef465d3e404,0,155,155,14,1,fourtwo,,,,,,,,,,,,,,,,,,,,,,,,,,,,,,,,,,,,,,,,,,,,,,,,,,,,,,,,,,,,,,,,,,,,,,,,,,,,,,,,,,,,,,,,,,,,,,,,,,,,,,,,,,,,,,,,,,,,,,,,,,,,,,,,,,,,,,,,,,,,,,,,,,,,,,,,
,,,,,,61716a16c157db249e36fc46,62bbfab4aab8c72820507257,2022-06-29_09h12.47.457,Colour_Asymmetry_Pilot,2022.1.3,Win32,60.59871531,62bbe60bf3d75ef465d3e404,0,156,156,81,1,onethree,,,,,,,,,,,,,,,,,,,,,,,,,,,,,,,,,,,,,,,,,,,,,,,,,,,,,,,,,,,,,,,,,,,,,,,,,,,,,,,,,,,,,,,,,,,,,,,,,,,,,,,,,,,,,,,,,,,,,,,,,,,,,,,,,,,,,,,,,,,,,,,,,,,,,,,,
,,,,,,61716a16c157db249e36fc46,62bbfab4aab8c72820507257,2022-06-29_09h12.47.457,Colour_Asymmetry_Pilot,2022.1.3,Win32,60.59871531,62bbe60bf3d75ef465d3e404,0,157,157,26,1,twoone,,,,,,,,,,,,,,,,,,,,,,,,,,,,,,,,,,,,,,,,,,,,,,,,,,,,,,,,,,,,,,,,,,,,,,,,,,,,,,,,,,,,,,,,,,,,,,,,,,,,,,,,,,,,,,,,,,,,,,,,,,,,,,,,,,,,,,,,,,,,,,,,,,,,,,,,
,,,,,,61716a16c157db249e36fc46,62bbfab4aab8c72820507257,2022-06-29_09h12.47.457,Colour_Asymmetry_Pilot,2022.1.3,Win32,60.59871531,62bbe60bf3d75ef465d3e404,0,158,158,80,1,onetwo,,,,,,,,,,,,,,,,,,,,,,,,,,,,,,,,,,,,,,,,,,,,,,,,,,,,,,,,,,,,,,,,,,,,,,,,,,,,,,,,,,,,,,,,,,,,,,,,,,,,,,,,,,,,,,,,,,,,,,,,,,,,,,,,,,,,,,,,,,,,,,,,,,,,,,,,
,,,,,,61716a16c157db249e36fc46,62bbfab4aab8c72820507257,2022-06-29_09h12.47.457,Colour_Asymmetry_Pilot,2022.1.3,Win32,60.59871531,62bbe60bf3d75ef465d3e404,0,159,159,16,1,onetwo,,,,,,,,,,,,,,,,,,,,,,,,,,,,,,,,,,,,,,,,,,,,,,,,,,,,,,,,,,,,,,,,,,,,,,,,,,,,,,,,,,,,,,,,,,,,,,,,,,,,,,,,,,,,,,,,,,,,,,,,,,,,,,,,,,,,,,,,,,,,,,,,,,,,,,,,
,,,,,,61716a16c157db249e36fc46,62bbfab4aab8c72820507257,2022-06-29_09h12.47.457,Colour_Asymmetry_Pilot,2022.1.3,Win32,60.59871531,62bbe60bf3d75ef465d3e404,0,160,160,124,1,threeone,,,,,,,,,,,,,,,,,,,,,,,,,,,,,,,,,,,,,,,,,,,,,,,,,,,,,,,,,,,,,,,,,,,,,,,,,,,,,,,,,,,,,,,,,,,,,,,,,,,,,,,,,,,,,,,,,,,,,,,,,,,,,,,,,,,,,,,,,,,,,,,,,,,,,,,,
,,,,,,61716a16c157db249e36fc46,62bbfab4aab8c72820507257,2022-06-29_09h12.47.457,Colour_Asymmetry_Pilot,2022.1.3,Win32,60.59871531,62bbe60bf3d75ef465d3e404,0,161,161,60,1,threeone,,,,,,,,,,,,,,,,,,,,,,,,,,,,,,,,,,,,,,,,,,,,,,,,,,,,,,,,,,,,,,,,,,,,,,,,,,,,,,,,,,,,,,,,,,,,,,,,,,,,,,,,,,,,,,,,,,,,,,,,,,,,,,,,,,,,,,,,,,,,,,,,,,,,,,,,
,,,,,,61716a16c157db249e36fc46,62bbfab4aab8c72820507257,2022-06-29_09h12.47.457,Colour_Asymmetry_Pilot,2022.1.3,Win32,60.59871531,62bbe60bf3d75ef465d3e404,,,,,,,space,5.5327,space,42.3563,space,42.1292,space,11.6492,space,3.7873,space,4.6756,"[0.8115999999999999,-0.0040000000000000036,-0.09819999999999995]",onetwo,"[-0.38039999999999996,-0.4276,-0.1452]",-4,4.0498,-26,69,1,0,0,response7disk_5,-4,-2,1,0,0,rectangle_8,-4,-2,1,0,0,4,-4,-2,1,0,0,0,0,0,0,1,,,,,,,,,,,,,,,,,,,,,,,,,,,,,,,,,,,,,,,,,,,,,,,,,,,,,,,,,,,,,,,,,,,,,,,,,,,,,,,,,,,,,,,,,,,,,,,,,,,,,,,,,,,
,,,,,,61716a16c157db249e36fc46,62bbfab4aab8c72820507257,2022-06-29_09h12.47.457,Colour_Asymmetry_Pilot,2022.1.3,Win32,60.59871531,62bbe60bf3d75ef465d3e404,,,,,,,,,,,,,,,,,,,"[-0.6,0.16860000000000008,0.44300000000000006]",twoone,"[-0.8118,-0.8198,-0.5452]",1,6.4826,26,-68,1,0,0,response3disk_5,3,-2,1,0,0,rectangle_8,-44,69,1,0,0,4,1,-3,1,0,0,1,0,1,0,1,response7disk_7,0,rectangle_4,,,,,,,,,,,,,,,,,,,,,,,,,,,,,,,,,,,,,,,,,,,,,,,,,,,,,,,,,,,,,,,,,,,,,,,,,,,,,,,,,,,,,,,,,,,,,,,,,,,,,,,,
,,,,,,61716a16c157db249e36fc46,62bbfab4aab8c72820507257,2022-06-29_09h12.47.457,Colour_Asymmetry_Pilot,2022.1.3,Win32,60.59871531,62bbe60bf3d75ef465d3e404,,,,,,,,,,,,,,,,,,,"[0.9686000000000001,0.5763999999999998,0.11359999999999992]",twofour,"[-0.9766,-0.6472,0.07440000000000002]",4,2.0998,31,65,1,0,0,response1disk_5,-3,3,1,0,0,rectangle_8,-3,3,1,0,0,4,-3,3,1,0,0,2,0,2,0,1,,,,,,,,,,,,,,,,,,,,,,,,,,,,,,,,,,,,,,,,,,,,,,,,,,,,,,,,,,,,,,,,,,,,,,,,,,,,,,,,,,,,,,,,,,,,,,,,,,,,,,,,,,,
,,,,,,61716a16c157db249e36fc46,62bbfab4aab8c72820507257,2022-06-29_09h12.47.457,Colour_Asymmetry_Pilot,2022.1.3,Win32,60.59871531,62bbe60bf3d75ef465d3e404,,,,,,,,,,,,,,,,,,,"[0.7018,0.7802,-0.16079999999999994]",onethree,"[0.8274000000000001,-0.5844,-0.9452]",-3,4.2658,-65,26,1,0,0,response7disk_5,-5,1,1,0,0,rectangle_8,-5,1,1,0,0,4,-5,1,1,0,0,3,0,3,0,1,,,,,,,,,,,,,,,,,,,,,,,,,,,,,,,,,,,,,,,,,,,,,,,,,,,,,,,,,,,,,,,,,,,,,,,,,,,,,,,,,,,,,,,,,,,,,,,,,,,,,,,,,,,
,,,,,,61716a16c157db249e36fc46,62bbfab4aab8c72820507257,2022-06-29_09h12.47.457,Colour_Asymmetry_Pilot,2022.1.3,Win32,60.59871531,62bbe60bf3d75ef465d3e404,,,,,,,,,,,,,,,,,,,"[0.09799999999999986,-0.24719999999999998,0.15280000000000005]",twofour,"[0.7018,0.7802,-0.16079999999999994]",-4,1.583,-41,74,1,0,0,response7disk_5,6,-2,1,0,0,rectangle_8,6,-2,1,0,0,4,6,-2,1,0,0,4,0,4,0,1,,,,,,,,,,,,,,,,,,,,,,,,,,,,,,,,,,,,,,,,,,,,,,,,,,,,,,,,,,,,,,,,,,,,,,,,,,,,,,,,,,,,,,,,,,,,,,,,,,,,,,,,,,,
,,,,,,61716a16c157db249e36fc46,62bbfab4aab8c72820507257,2022-06-29_09h12.47.457,Colour_Asymmetry_Pilot,2022.1.3,Win32,60.59871531,62bbe60bf3d75ef465d3e404,,,,,,,,,,,,,,,,,,,"[-0.48240000000000005,0.3175999999999999,0.2156]",threeone,"[0.7018,0.7802,-0.16079999999999994]",-4,1.4997,-39,79,1,0,0,response7disk_5,-9,0,1,0,0,rectangle_8,-9,0,1,0,0,4,-9,0,1,0,0,5,0,5,0,1,,,,,,,,,,,,,,,,,,,,,,,,,,,,,,,,,,,,,,,,,,,,,,,,,,,,,,,,,,,,,,,,,,,,,,,,,,,,,,,,,,,,,,,,,,,,,,,,,,,,,,,,,,,
,,,,,,61716a16c157db249e36fc46,62bbfab4aab8c72820507257,2022-06-29_09h12.47.457,Colour_Asymmetry_Pilot,2022.1.3,Win32,60.59871531,62bbe60bf3d75ef465d3e404,,,,,,,,,,,,,,,,,,,"[-0.9844,-0.9688,-0.9922]",fourtwo,"[-0.17659999999999998,-0.2864,-0.8354]",-4,1.3167,-52,65,1,0,0,response7disk_5,-6,-2,1,0,0,rectangle_8,-6,-2,1,0,0,4,-6,-2,1,0,0,6,0,6,0,1,,,,,,,,,,,,,,,,,,,,,,,,,,,,,,,,,,,,,,,,,,,,,,,,,,,,,,,,,,,,,,,,,,,,,,,,,,,,,,,,,,,,,,,,,,,,,,,,,,,,,,,,,,,
,,,,,,61716a16c157db249e36fc46,62bbfab4aab8c72820507257,2022-06-29_09h12.47.457,Colour_Asymmetry_Pilot,2022.1.3,Win32,60.59871531,62bbe60bf3d75ef465d3e404,,,,,,,,,,,,,,,,,,,,onethree,,-1,2.1501,,,,,,,,,,,,,,,,,,,,,,,,,,,,,,,,space,2.6723,"[0.8115999999999999,-0.0040000000000000036,-0.09819999999999995]","[0.37240000000000006,0.4980000000000002,-0.2864]",-37,-69,1,0,0,response5disk,-5,1,1,0,0,rectangle,-5,1,1,0,0,,3,0.0013,0,-5,1,1,0,0,0,0,0,75,1,75,first,,,,,,,,,,,,,,,,,,,,,,,,,,,,,,,,,,,,,,,,,,,,,,,,,,,,,,,,,,,,,,,,,,,
,,,,,,61716a16c157db249e36fc46,62bbfab4aab8c72820507257,2022-06-29_09h12.47.457,Colour_Asymmetry_Pilot,2022.1.3,Win32,60.59871531,62bbe60bf3d75ef465d3e404,,,,,,,,,,,,,,,,,,,,onetwo,,-1,1.1328,,,,,,,,,,,,,,,,,,,,,,,,,,,,,,,,,,"[0.19199999999999995,0.18419999999999992,0.5136000000000001]","[0.8115999999999999,-0.0040000000000000036,-0.09819999999999995]",-28,-57,1,0,0,response5disk,-6,6,1,0,0,rectangle,-6,6,1,0,0,,3,0.0002,0,-6,6,1,0,0,0,1,1,115,1,34,second,,,,,,,,,,,,,,,,,,,,,,,,,,,,,,,,,,,,,,,,,,,,,,,,,,,,,,,,,,,,,,,,,,,
,,,,,,61716a16c157db249e36fc46,62bbfab4aab8c72820507257,2022-06-29_09h12.47.457,Colour_Asymmetry_Pilot,2022.1.3,Win32,60.59871531,62bbe60bf3d75ef465d3e404,,,,,,,,,,,,,,,,,,,,threefour,,-1,0.8827,,,,,,,,,,,,,,,,,,,,,,,,,,,,,,,,,,"[0.7176,-0.906,-0.6864]","[0.796,0.2156,-0.27859999999999996]",-38,-64,1,0,0,response5disk,-1,-1,1,0,0,rectangle,-1,-1,1,0,0,,2,0.0012,0,-1,-1,1,0,0,0,2,2,47,1,47,first,,,,,,,,,,,,,,,,,,,,,,,,,,,,,,,,,,,,,,,,,,,,,,,,,,,,,,,,,,,,,,,,,,,
,,,,,,61716a16c157db249e36fc46,62bbfab4aab8c72820507257,2022-06-29_09h12.47.457,Colour_Asymmetry_Pilot,2022.1.3,Win32,60.59871531,62bbe60bf3d75ef465d3e404,,,,,,,,,,,,,,,,,,,,twoone,,-1,2.3663,,,,,,,,,,,,,,,,,,,,,,,,,,,,,,,,,,"[-0.38039999999999996,-0.4276,-0.1452]","[-0.09019999999999995,0.44300000000000006,0.5371999999999999]",-33,-70,1,0,0,response5disk,-14,-7,1,0,0,rectangle,-14,-7,1,0,0,,2,0,0,-14,-7,1,0,0,0,3,3,85,1,4,second,,,,,,,,,,,,,,,,,,,,,,,,,,,,,,,,,,,,,,,,,,,,,,,,,,,,,,,,,,,,,,,,,,,
,,,,,,61716a16c157db249e36fc46,62bbfab4aab8c72820507257,2022-06-29_09h12.47.457,Colour_Asymmetry_Pilot,2022.1.3,Win32,60.59871531,62bbe60bf3d75ef465d3e404,,,,,,,,,,,,,,,,,,,,onethree,,3,1.4667,,,,,,,,,,,,,,,,,,,,,,,,,,,,,,,,,,"[0.9842,0.7409999999999999,-0.6628000000000001]","[0.34099999999999997,0.12939999999999996,-0.9766]",65,29,1,0,0,response1disk,2,-3,1,0,0,rectangle,2,-3,1,0,0,,1,0.0005,0,2,-3,1,0,0,0,4,4,67,1,67,first,,,,,,,,,,,,,,,,,,,,,,,,,,,,,,,,,,,,,,,,,,,,,,,,,,,,,,,,,,,,,,,,,,,
,,,,,,61716a16c157db249e36fc46,62bbfab4aab8c72820507257,2022-06-29_09h12.47.457,Colour_Asymmetry_Pilot,2022.1.3,Win32,60.59871531,62bbe60bf3d75ef465d3e404,,,,,,,,,,,,,,,,,,,,twoone,,1,1.1661,,,,,,,,,,,,,,,,,,,,,,,,,,,,,,,,,,"[0.3802000000000001,0.19199999999999995,-0.6394]","[-0.0040000000000000036,0.02739999999999987,-0.08239999999999992]",26,-63,1,0,0,response3disk,-15,-5,1,0,0,rectangle,-15,-5,1,0,0,,3,0.0005,0,-15,-5,1,0,0,0,5,5,114,1,33,second,,,,,,,,,,,,,,,,,,,,,,,,,,,,,,,,,,,,,,,,,,,,,,,,,,,,,,,,,,,,,,,,,,,
,,,,,,61716a16c157db249e36fc46,62bbfab4aab8c72820507257,2022-06-29_09h12.47.457,Colour_Asymmetry_Pilot,2022.1.3,Win32,60.59871531,62bbe60bf3d75ef465d3e404,,,,,,,,,,,,,,,,,,,,twofour,,-1,1.0167,,,,,,,,,,,,,,,,,,,,,,,,,,,,,,,,,,"[0.796,0.2156,-0.27859999999999996]","[0.7176,-0.906,-0.6864]",-24,-67,1,0,0,response5disk,-7,1,1,0,0,rectangle,-7,1,1,0,0,,3,0.0003,0,-7,1,1,0,0,0,6,6,128,1,47,second,,,,,,,,,,,,,,,,,,,,,,,,,,,,,,,,,,,,,,,,,,,,,,,,,,,,,,,,,,,,,,,,,,,
,,,,,,61716a16c157db249e36fc46,62bbfab4aab8c72820507257,2022-06-29_09h12.47.457,Colour_Asymmetry_Pilot,2022.1.3,Win32,60.59871531,62bbe60bf3d75ef465d3e404,,,,,,,,,,,,,,,,,,,,onetwo,,-4,1.2665,,,,,,,,,,,,,,,,,,,,,,,,,,,,,,,,,,"[0.7802,-0.23140000000000005,-0.20799999999999996]","[0.2862,0.7802,0.3568]",-35,67,1,0,0,response7disk,3,-2,1,0,0,rectangle,3,-2,1,0,0,,3,0.0003,0,3,-2,1,0,0,0,7,7,119,1,38,second,,,,,,,,,,,,,,,,,,,,,,,,,,,,,,,,,,,,,,,,,,,,,,,,,,,,,,,,,,,,,,,,,,,
,,,,,,61716a16c157db249e36fc46,62bbfab4aab8c72820507257,2022-06-29_09h12.47.457,Colour_Asymmetry_Pilot,2022.1.3,Win32,60.59871531,62bbe60bf3d75ef465d3e404,,,,,,,,,,,,,,,,,,,,fourthree,,-1,1.2498,,,,,,,,,,,,,,,,,,,,,,,,,,,,,,,,,,"[-0.6706000000000001,-0.6157999999999999,-0.6786]","[0.11359999999999992,0.6312,0.5213999999999999]",-42,-56,1,0,0,response5disk,3,0,1,0,0,rectangle,3,0,1,0,0,,3,9.99999E-05,0,3,0,1,0,0,0,8,8,27,1,27,first,,,,,,,,,,,,,,,,,,,,,,,,,,,,,,,,,,,,,,,,,,,,,,,,,,,,,,,,,,,,,,,,,,,
,,,,,,61716a16c157db249e36fc46,62bbfab4aab8c72820507257,2022-06-29_09h12.47.457,Colour_Asymmetry_Pilot,2022.1.3,Win32,60.59871531,62bbe60bf3d75ef465d3e404,,,,,,,,,,,,,,,,,,,,twofour,,-4,1.1162,,,,,,,,,,,,,,,,,,,,,,,,,,,,,,,,,,"[-0.2942,-0.7648,-0.7492000000000001]","[-0.6706000000000001,-0.6157999999999999,-0.6786]",-29,71,1,0,0,response7disk,0,10,1,0,0,rectangle,0,10,1,0,0,,1,0.0014,0,0,10,1,0,0,0,9,9,35,1,35,first,,,,,,,,,,,,,,,,,,,,,,,,,,,,,,,,,,,,,,,,,,,,,,,,,,,,,,,,,,,,,,,,,,,
,,,,,,61716a16c157db249e36fc46,62bbfab4aab8c72820507257,2022-06-29_09h12.47.457,Colour_Asymmetry_Pilot,2022.1.3,Win32,60.59871531,62bbe60bf3d75ef465d3e404,,,,,,,,,,,,,,,,,,,,fourthree,,-2,2.5664,,,,,,,,,,,,,,,,,,,,,,,,,,,,,,,,,,"[-0.10599999999999998,-0.10599999999999998,0.5841999999999998]","[0.23920000000000008,0.2704,0.16060000000000008]",-61,-29,1,0,0,response5disk,-3,0,1,0,0,rectangle,-3,0,1,0,0,,3,0.0013,0,-3,0,1,0,0,0,10,10,68,1,68,first,,,,,,,,,,,,,,,,,,,,,,,,,,,,,,,,,,,,,,,,,,,,,,,,,,,,,,,,,,,,,,,,,,,
,,,,,,61716a16c157db249e36fc46,62bbfab4aab8c72820507257,2022-06-29_09h12.47.457,Colour_Asymmetry_Pilot,2022.1.3,Win32,60.59871531,62bbe60bf3d75ef465d3e404,,,,,,,,,,,,,,,,,,,,onethree,,-4,0.4995,,,,,,,,,,,,,,,,,,,,,,,,,,,,,,,,,,"[0.9686000000000001,0.5763999999999998,0.11359999999999992]","[-0.9688,-0.38039999999999996,-0.41979999999999995]",-30,61,1,0,0,response7disk,7,1,1,0,0,rectangle,7,1,1,0,0,,2,0.0005,0,7,1,1,0,0,0,11,11,87,1,6,second,,,,,,,,,,,,,,,,,,,,,,,,,,,,,,,,,,,,,,,,,,,,,,,,,,,,,,,,,,,,,,,,,,,
,,,,,,61716a16c157db249e36fc46,62bbfab4aab8c72820507257,2022-06-29_09h12.47.457,Colour_Asymmetry_Pilot,2022.1.3,Win32,60.59871531,62bbe60bf3d75ef465d3e404,,,,,,,,,,,,,,,,,,,,twofour,,-3,0.7161,,,,,,,,,,,,,,,,,,,,,,,,,,,,,,,,,,"[-0.2942,-0.24719999999999998,-0.357]","[0.05879999999999996,0.2784,0.5841999999999998]",-62,24,1,0,0,response7disk,-12,-4,1,0,0,rectangle,-12,-4,1,0,0,,3,0.0014,0,-12,-4,1,0,0,0,12,12,95,1,14,second,,,,,,,,,,,,,,,,,,,,,,,,,,,,,,,,,,,,,,,,,,,,,,,,,,,,,,,,,,,,,,,,,,,
,,,,,,61716a16c157db249e36fc46,62bbfab4aab8c72820507257,2022-06-29_09h12.47.457,Colour_Asymmetry_Pilot,2022.1.3,Win32,60.59871531,62bbe60bf3d75ef465d3e404,,,,,,,,,,,,,,,,,,,,fourthree,,-3,0.4995,,,,,,,,,,,,,,,,,,,,,,,,,,,,,,,,,,"[-0.9688,-0.38039999999999996,-0.41979999999999995]","[0.9686000000000001,0.5763999999999998,0.11359999999999992]",-59,26,1,0,0,response7disk,-16,0,1,0,0,rectangle,-16,0,1,0,0,,2,0.0007,0,-16,0,1,0,0,0,13,13,6,1,6,first,,,,,,,,,,,,,,,,,,,,,,,,,,,,,,,,,,,,,,,,,,,,,,,,,,,,,,,,,,,,,,,,,,,
,,,,,,61716a16c157db249e36fc46,62bbfab4aab8c72820507257,2022-06-29_09h12.47.457,Colour_Asymmetry_Pilot,2022.1.3,Win32,60.59871531,62bbe60bf3d75ef465d3e404,,,,,,,,,,,,,,,,,,,,twoone,,-3,0.517,,,,,,,,,,,,,,,,,,,,,,,,,,,,,,,,,,"[0.18419999999999992,-0.4276,-0.404]","[-0.24719999999999998,-0.0354000000000001,0.3175999999999999]",-47,16,1,0,0,response7disk,-6,-1,1,0,0,rectangle,-6,-1,1,0,0,,1,0.0015,0,-6,-1,1,0,0,0,14,14,58,1,58,first,,,,,,,,,,,,,,,,,,,,,,,,,,,,,,,,,,,,,,,,,,,,,,,,,,,,,,,,,,,,,,,,,,,
,,,,,,61716a16c157db249e36fc46,62bbfab4aab8c72820507257,2022-06-29_09h12.47.457,Colour_Asymmetry_Pilot,2022.1.3,Win32,60.59871531,62bbe60bf3d75ef465d3e404,,,,,,,,,,,,,,,,,,,,twoone,,-3,0.9499,,,,,,,,,,,,,,,,,,,,,,,,,,,,,,,,,,"[0.30180000000000007,-0.7884,-0.9844]","[0.09799999999999986,-0.24719999999999998,0.15280000000000005]",-66,24,1,0,0,response7disk,1,4,1,0,0,rectangle,1,4,1,0,0,,1,9.99999E-05,0,1,4,1,0,0,0,15,15,48,1,48,first,,,,,,,,,,,,,,,,,,,,,,,,,,,,,,,,,,,,,,,,,,,,,,,,,,,,,,,,,,,,,,,,,,,
,,,,,,61716a16c157db249e36fc46,62bbfab4aab8c72820507257,2022-06-29_09h12.47.457,Colour_Asymmetry_Pilot,2022.1.3,Win32,60.59871531,62bbe60bf3d75ef465d3e404,,,,,,,,,,,,,,,,,,,,threeone,,-4,0.4828,,,,,,,,,,,,,,,,,,,,,,,,,,,,,,,,,,"[0.7018,0.7176,0.6155999999999999]","[0.23120000000000007,-0.7726,-0.34120000000000006]",-47,73,1,0,0,response7disk,9,3,1,0,0,rectangle,9,3,1,0,0,,2,0.0013,0,9,3,1,0,0,0,16,16,49,1,49,first,,,,,,,,,,,,,,,,,,,,,,,,,,,,,,,,,,,,,,,,,,,,,,,,,,,,,,,,,,,,,,,,,,,
,,,,,,61716a16c157db249e36fc46,62bbfab4aab8c72820507257,2022-06-29_09h12.47.457,Colour_Asymmetry_Pilot,2022.1.3,Win32,60.59871531,62bbe60bf3d75ef465d3e404,,,,,,,,,,,,,,,,,,,,onethree,,4,4.8493,,,,,,,,,,,,,,,,,,,,,,,,,,,,,,,,,,"[-0.4276,0.0038000000000000256,-0.3256]","[-0.5688,-0.08239999999999992,-0.1844]",46,60,1,0,0,response1disk,-1,-2,1,0,0,rectangle,-1,-2,1,0,0,,3,0.0014,0,-1,-2,1,0,0,0,17,17,121,1,40,second,,,,,,,,,,,,,,,,,,,,,,,,,,,,,,,,,,,,,,,,,,,,,,,,,,,,,,,,,,,,,,,,,,,
,,,,,,61716a16c157db249e36fc46,62bbfab4aab8c72820507257,2022-06-29_09h12.47.457,Colour_Asymmetry_Pilot,2022.1.3,Win32,60.59871531,62bbe60bf3d75ef465d3e404,,,,,,,,,,,,,,,,,,,,fourtwo,,-4,0.4668,,,,,,,,,,,,,,,,,,,,,,,,,,,,,,,,,,"[0.7646000000000002,0.07440000000000002,0.2704]","[-0.9688,-0.38039999999999996,-0.41979999999999995]",-38,73,1,0,0,response7disk,-5,6,1,0,0,rectangle,-5,6,1,0,0,,2,0.0005,0,-5,6,1,0,0,0,18,18,80,1,80,first,,,,,,,,,,,,,,,,,,,,,,,,,,,,,,,,,,,,,,,,,,,,,,,,,,,,,,,,,,,,,,,,,,,
,,,,,,61716a16c157db249e36fc46,62bbfab4aab8c72820507257,2022-06-29_09h12.47.457,Colour_Asymmetry_Pilot,2022.1.3,Win32,60.59871531,62bbe60bf3d75ef465d3e404,,,,,,,,,,,,,,,,,,,,fourtwo,,-4,1.3834,,,,,,,,,,,,,,,,,,,,,,,,,,,,,,,,,,"[-0.011800000000000033,-0.906,-0.45100000000000007]","[0.9213999999999998,0.6391999999999998,-0.9922]",-26,70,1,0,0,response7disk,-14,16,1,0,0,rectangle,-14,16,1,0,0,-4,3,0.0021,0,-14,16,1,0,0,0,19,19,154,1,73,second,,,,,,,,,,,,,,,,,,,,,,,,,,,,,,,,,,,,,,,,,,,,,,,,,,,,,,,,,,,,,,,,,,,
,,,,,,61716a16c157db249e36fc46,62bbfab4aab8c72820507257,2022-06-29_09h12.47.457,Colour_Asymmetry_Pilot,2022.1.3,Win32,60.59871531,62bbe60bf3d75ef465d3e404,,,,,,,,,,,,,,,,,,,,twoone,,-4,0.6999,,,,,,,,,,,,,,,,,,,,,,,,,,,,,,,,,,"[-0.9766,-0.34920000000000007,0.2156]","[-0.24719999999999998,0.5213999999999999,-0.12959999999999994]",-35,67,1,0,0,response7disk,-15,2,1,0,0,rectangle,-15,2,1,0,0,-4,1,0.0006,0,-15,2,1,0,0,0,20,20,82,1,1,second,,,,,,,,,,,,,,,,,,,,,,,,,,,,,,,,,,,,,,,,,,,,,,,,,,,,,,,,,,,,,,,,,,,
