trials.thisRepN,trials.thisTrialN,trials.thisN,trials.thisIndex,trials.ran,Colourcodes,participant,session,date,expName,psychopyVersion,OS,frameRate,study_id,trials_4.thisRepN,trials_4.thisTrialN,trials_4.thisN,trials_4.thisIndex,trials_4.ran,StimulusPos,key_resp.keys,key_resp.rt,key_resp_2.keys,key_resp_2.rt,key_resp_15.keys,key_resp_15.rt,key_resp_17.keys,key_resp_17.rt,key_resp_9.keys,key_resp_9.rt,key_resp_10.keys,key_resp_10.rt,Circle1_col,Ecc,Circle2_col,similarity,response_time,mouse_5.x,mouse_5.y,mouse_5.leftButton,mouse_5.midButton,mouse_5.rightButton,mouse_5.clicked_name,mouse_10.x,mouse_10.y,mouse_10.leftButton,mouse_10.midButton,mouse_10.rightButton,mouse_10.clicked_name,mouse_7.x,mouse_7.y,mouse_7.leftButton,mouse_7.midButton,mouse_7.rightButton,catchnumberprac,mouse_6.x,mouse_6.y,mouse_6.leftButton,mouse_6.midButton,mouse_6.rightButton,duringprac.thisRepN,duringprac.thisTrialN,duringprac.thisN,duringprac.thisIndex,duringprac.ran,mouse_7.clicked_name,catchprac,mouse_6.clicked_name,key_resp_22.keys,key_resp_22.rt,Circle1_colour,Circle2_colour,mouse.x,mouse.y,mouse.leftButton,mouse.midButton,mouse.rightButton,mouse.clicked_name,mouse_2.x,mouse_2.y,mouse_2.leftButton,mouse_2.midButton,mouse_2.rightButton,mouse_2.clicked_name,mouse_3.x,mouse_3.y,mouse_3.leftButton,mouse_3.midButton,mouse_3.rightButton,catchresponse,catchnumber,response_time_catch,Catch,mouse_11.x,mouse_11.y,mouse_11.leftButton,mouse_11.midButton,mouse_11.rightButton,trials_2.thisRepN,trials_2.thisTrialN,trials_2.thisN,trials_2.thisIndex,trials_2.ran,Colourpair,Temporder,mouse_3.clicked_name,mouse_11.clicked_name,trials_3.thisRepN,trials_3.thisTrialN,trials_3.thisN,trials_3.thisIndex,trials_3.ran,key_resp_instr_Ishi.keys,key_resp_instr_Ishi.rt,Ishi_trial_keyresp.keys,Ishi_trial_keyresp.rt,Ishi_textbox.text,Ishi_loop.thisRepN,Ishi_loop.thisTrialN,Ishi_loop.thisN,Ishi_loop.thisIndex,Ishi_loop.ran,imageaddress,textbox.text,mouse_4.x,mouse_4.y,mouse_4.leftButton,mouse_4.midButton,mouse_4.rightButton,mouse_4.clicked_name,textbox_2.text,mouse_8.x,mouse_8.y,mouse_8.leftButton,mouse_8.midButton,mouse_8.rightButton,mouse_8.clicked_name,textbox_3.text,mouse_9.x,mouse_9.y,mouse_9.leftButton,mouse_9.midButton,mouse_9.rightButton,mouse_9.clicked_name,textbox_4.text,mouse_12.x,mouse_12.y,mouse_12.leftButton,mouse_12.midButton,mouse_12.rightButton,mouse_12.clicked_name,textbox_5.text,mouse_13.x,mouse_13.y,mouse_13.leftButton,mouse_13.midButton,mouse_13.rightButton,mouse_13.clicked_name,textbox_6.text,mouse_14.x,mouse_14.y,mouse_14.leftButton,mouse_14.midButton,mouse_14.rightButton,textbox_7.text,mouse_15.x,mouse_15.y,mouse_15.leftButton,mouse_15.midButton,mouse_15.rightButton,mouse_15.clicked_name
0,0,0,45,1,,6141c94201d385f32c5ad8f0,62bbf946cb01f9784ec11ccf,2022-06-29_09h04.19.593,Colour_Asymmetry_Pilot,2022.1.3,Win32,60.61340769,62bbe60bf3d75ef465d3e404,,,,,,,,,,,,,,,,,,,,,,,,,,,,,,,,,,,,,,,,,,,,,,,,,,,,,,,,,,,,,,,,,,,,,,,,,,,,,,,,,,,,,,,,,,,,,,,,,,,,,,,,,,,,,,,,,,,,,,,,,,,,,,,,,,,,,,,,,,,,,,,,,,,,,,,,,,,,,
0,1,1,6,1,,6141c94201d385f32c5ad8f0,62bbf946cb01f9784ec11ccf,2022-06-29_09h04.19.593,Colour_Asymmetry_Pilot,2022.1.3,Win32,60.61340769,62bbe60bf3d75ef465d3e404,,,,,,,,,,,,,,,,,,,,,,,,,,,,,,,,,,,,,,,,,,,,,,,,,,,,,,,,,,,,,,,,,,,,,,,,,,,,,,,,,,,,,,,,,,,,,,,,,,,,,,,,,,,,,,,,,,,,,,,,,,,,,,,,,,,,,,,,,,,,,,,,,,,,,,,,,,,,,
0,2,2,83,1,,6141c94201d385f32c5ad8f0,62bbf946cb01f9784ec11ccf,2022-06-29_09h04.19.593,Colour_Asymmetry_Pilot,2022.1.3,Win32,60.61340769,62bbe60bf3d75ef465d3e404,,,,,,,,,,,,,,,,,,,,,,,,,,,,,,,,,,,,,,,,,,,,,,,,,,,,,,,,,,,,,,,,,,,,,,,,,,,,,,,,,,,,,,,,,,,,,,,,,,,,,,,,,,,,,,,,,,,,,,,,,,,,,,,,,,,,,,,,,,,,,,,,,,,,,,,,,,,,,
0,3,3,30,1,,6141c94201d385f32c5ad8f0,62bbf946cb01f9784ec11ccf,2022-06-29_09h04.19.593,Colour_Asymmetry_Pilot,2022.1.3,Win32,60.61340769,62bbe60bf3d75ef465d3e404,,,,,,,,,,,,,,,,,,,,,,,,,,,,,,,,,,,,,,,,,,,,,,,,,,,,,,,,,,,,,,,,,,,,,,,,,,,,,,,,,,,,,,,,,,,,,,,,,,,,,,,,,,,,,,,,,,,,,,,,,,,,,,,,,,,,,,,,,,,,,,,,,,,,,,,,,,,,,
0,4,4,53,1,,6141c94201d385f32c5ad8f0,62bbf946cb01f9784ec11ccf,2022-06-29_09h04.19.593,Colour_Asymmetry_Pilot,2022.1.3,Win32,60.61340769,62bbe60bf3d75ef465d3e404,,,,,,,,,,,,,,,,,,,,,,,,,,,,,,,,,,,,,,,,,,,,,,,,,,,,,,,,,,,,,,,,,,,,,,,,,,,,,,,,,,,,,,,,,,,,,,,,,,,,,,,,,,,,,,,,,,,,,,,,,,,,,,,,,,,,,,,,,,,,,,,,,,,,,,,,,,,,,
0,5,5,74,1,,6141c94201d385f32c5ad8f0,62bbf946cb01f9784ec11ccf,2022-06-29_09h04.19.593,Colour_Asymmetry_Pilot,2022.1.3,Win32,60.61340769,62bbe60bf3d75ef465d3e404,,,,,,,,,,,,,,,,,,,,,,,,,,,,,,,,,,,,,,,,,,,,,,,,,,,,,,,,,,,,,,,,,,,,,,,,,,,,,,,,,,,,,,,,,,,,,,,,,,,,,,,,,,,,,,,,,,,,,,,,,,,,,,,,,,,,,,,,,,,,,,,,,,,,,,,,,,,,,
0,6,6,69,1,,6141c94201d385f32c5ad8f0,62bbf946cb01f9784ec11ccf,2022-06-29_09h04.19.593,Colour_Asymmetry_Pilot,2022.1.3,Win32,60.61340769,62bbe60bf3d75ef465d3e404,,,,,,,,,,,,,,,,,,,,,,,,,,,,,,,,,,,,,,,,,,,,,,,,,,,,,,,,,,,,,,,,,,,,,,,,,,,,,,,,,,,,,,,,,,,,,,,,,,,,,,,,,,,,,,,,,,,,,,,,,,,,,,,,,,,,,,,,,,,,,,,,,,,,,,,,,,,,,
0,7,7,35,1,,6141c94201d385f32c5ad8f0,62bbf946cb01f9784ec11ccf,2022-06-29_09h04.19.593,Colour_Asymmetry_Pilot,2022.1.3,Win32,60.61340769,62bbe60bf3d75ef465d3e404,,,,,,,,,,,,,,,,,,,,,,,,,,,,,,,,,,,,,,,,,,,,,,,,,,,,,,,,,,,,,,,,,,,,,,,,,,,,,,,,,,,,,,,,,,,,,,,,,,,,,,,,,,,,,,,,,,,,,,,,,,,,,,,,,,,,,,,,,,,,,,,,,,,,,,,,,,,,,
0,8,8,4,1,,6141c94201d385f32c5ad8f0,62bbf946cb01f9784ec11ccf,2022-06-29_09h04.19.593,Colour_Asymmetry_Pilot,2022.1.3,Win32,60.61340769,62bbe60bf3d75ef465d3e404,,,,,,,,,,,,,,,,,,,,,,,,,,,,,,,,,,,,,,,,,,,,,,,,,,,,,,,,,,,,,,,,,,,,,,,,,,,,,,,,,,,,,,,,,,,,,,,,,,,,,,,,,,,,,,,,,,,,,,,,,,,,,,,,,,,,,,,,,,,,,,,,,,,,,,,,,,,,,
0,9,9,57,1,,6141c94201d385f32c5ad8f0,62bbf946cb01f9784ec11ccf,2022-06-29_09h04.19.593,Colour_Asymmetry_Pilot,2022.1.3,Win32,60.61340769,62bbe60bf3d75ef465d3e404,,,,,,,,,,,,,,,,,,,,,,,,,,,,,,,,,,,,,,,,,,,,,,,,,,,,,,,,,,,,,,,,,,,,,,,,,,,,,,,,,,,,,,,,,,,,,,,,,,,,,,,,,,,,,,,,,,,,,,,,,,,,,,,,,,,,,,,,,,,,,,,,,,,,,,,,,,,,,
0,10,10,75,1,,6141c94201d385f32c5ad8f0,62bbf946cb01f9784ec11ccf,2022-06-29_09h04.19.593,Colour_Asymmetry_Pilot,2022.1.3,Win32,60.61340769,62bbe60bf3d75ef465d3e404,,,,,,,,,,,,,,,,,,,,,,,,,,,,,,,,,,,,,,,,,,,,,,,,,,,,,,,,,,,,,,,,,,,,,,,,,,,,,,,,,,,,,,,,,,,,,,,,,,,,,,,,,,,,,,,,,,,,,,,,,,,,,,,,,,,,,,,,,,,,,,,,,,,,,,,,,,,,,
0,11,11,60,1,,6141c94201d385f32c5ad8f0,62bbf946cb01f9784ec11ccf,2022-06-29_09h04.19.593,Colour_Asymmetry_Pilot,2022.1.3,Win32,60.61340769,62bbe60bf3d75ef465d3e404,,,,,,,,,,,,,,,,,,,,,,,,,,,,,,,,,,,,,,,,,,,,,,,,,,,,,,,,,,,,,,,,,,,,,,,,,,,,,,,,,,,,,,,,,,,,,,,,,,,,,,,,,,,,,,,,,,,,,,,,,,,,,,,,,,,,,,,,,,,,,,,,,,,,,,,,,,,,,
0,12,12,63,1,,6141c94201d385f32c5ad8f0,62bbf946cb01f9784ec11ccf,2022-06-29_09h04.19.593,Colour_Asymmetry_Pilot,2022.1.3,Win32,60.61340769,62bbe60bf3d75ef465d3e404,,,,,,,,,,,,,,,,,,,,,,,,,,,,,,,,,,,,,,,,,,,,,,,,,,,,,,,,,,,,,,,,,,,,,,,,,,,,,,,,,,,,,,,,,,,,,,,,,,,,,,,,,,,,,,,,,,,,,,,,,,,,,,,,,,,,,,,,,,,,,,,,,,,,,,,,,,,,,
0,13,13,8,1,,6141c94201d385f32c5ad8f0,62bbf946cb01f9784ec11ccf,2022-06-29_09h04.19.593,Colour_Asymmetry_Pilot,2022.1.3,Win32,60.61340769,62bbe60bf3d75ef465d3e404,,,,,,,,,,,,,,,,,,,,,,,,,,,,,,,,,,,,,,,,,,,,,,,,,,,,,,,,,,,,,,,,,,,,,,,,,,,,,,,,,,,,,,,,,,,,,,,,,,,,,,,,,,,,,,,,,,,,,,,,,,,,,,,,,,,,,,,,,,,,,,,,,,,,,,,,,,,,,
0,14,14,73,1,,6141c94201d385f32c5ad8f0,62bbf946cb01f9784ec11ccf,2022-06-29_09h04.19.593,Colour_Asymmetry_Pilot,2022.1.3,Win32,60.61340769,62bbe60bf3d75ef465d3e404,,,,,,,,,,,,,,,,,,,,,,,,,,,,,,,,,,,,,,,,,,,,,,,,,,,,,,,,,,,,,,,,,,,,,,,,,,,,,,,,,,,,,,,,,,,,,,,,,,,,,,,,,,,,,,,,,,,,,,,,,,,,,,,,,,,,,,,,,,,,,,,,,,,,,,,,,,,,,
0,15,15,81,1,,6141c94201d385f32c5ad8f0,62bbf946cb01f9784ec11ccf,2022-06-29_09h04.19.593,Colour_Asymmetry_Pilot,2022.1.3,Win32,60.61340769,62bbe60bf3d75ef465d3e404,,,,,,,,,,,,,,,,,,,,,,,,,,,,,,,,,,,,,,,,,,,,,,,,,,,,,,,,,,,,,,,,,,,,,,,,,,,,,,,,,,,,,,,,,,,,,,,,,,,,,,,,,,,,,,,,,,,,,,,,,,,,,,,,,,,,,,,,,,,,,,,,,,,,,,,,,,,,,
0,16,16,5,1,,6141c94201d385f32c5ad8f0,62bbf946cb01f9784ec11ccf,2022-06-29_09h04.19.593,Colour_Asymmetry_Pilot,2022.1.3,Win32,60.61340769,62bbe60bf3d75ef465d3e404,,,,,,,,,,,,,,,,,,,,,,,,,,,,,,,,,,,,,,,,,,,,,,,,,,,,,,,,,,,,,,,,,,,,,,,,,,,,,,,,,,,,,,,,,,,,,,,,,,,,,,,,,,,,,,,,,,,,,,,,,,,,,,,,,,,,,,,,,,,,,,,,,,,,,,,,,,,,,
0,17,17,50,1,,6141c94201d385f32c5ad8f0,62bbf946cb01f9784ec11ccf,2022-06-29_09h04.19.593,Colour_Asymmetry_Pilot,2022.1.3,Win32,60.61340769,62bbe60bf3d75ef465d3e404,,,,,,,,,,,,,,,,,,,,,,,,,,,,,,,,,,,,,,,,,,,,,,,,,,,,,,,,,,,,,,,,,,,,,,,,,,,,,,,,,,,,,,,,,,,,,,,,,,,,,,,,,,,,,,,,,,,,,,,,,,,,,,,,,,,,,,,,,,,,,,,,,,,,,,,,,,,,,
0,18,18,43,1,,6141c94201d385f32c5ad8f0,62bbf946cb01f9784ec11ccf,2022-06-29_09h04.19.593,Colour_Asymmetry_Pilot,2022.1.3,Win32,60.61340769,62bbe60bf3d75ef465d3e404,,,,,,,,,,,,,,,,,,,,,,,,,,,,,,,,,,,,,,,,,,,,,,,,,,,,,,,,,,,,,,,,,,,,,,,,,,,,,,,,,,,,,,,,,,,,,,,,,,,,,,,,,,,,,,,,,,,,,,,,,,,,,,,,,,,,,,,,,,,,,,,,,,,,,,,,,,,,,
0,19,19,79,1,,6141c94201d385f32c5ad8f0,62bbf946cb01f9784ec11ccf,2022-06-29_09h04.19.593,Colour_Asymmetry_Pilot,2022.1.3,Win32,60.61340769,62bbe60bf3d75ef465d3e404,,,,,,,,,,,,,,,,,,,,,,,,,,,,,,,,,,,,,,,,,,,,,,,,,,,,,,,,,,,,,,,,,,,,,,,,,,,,,,,,,,,,,,,,,,,,,,,,,,,,,,,,,,,,,,,,,,,,,,,,,,,,,,,,,,,,,,,,,,,,,,,,,,,,,,,,,,,,,
0,20,20,31,1,,6141c94201d385f32c5ad8f0,62bbf946cb01f9784ec11ccf,2022-06-29_09h04.19.593,Colour_Asymmetry_Pilot,2022.1.3,Win32,60.61340769,62bbe60bf3d75ef465d3e404,,,,,,,,,,,,,,,,,,,,,,,,,,,,,,,,,,,,,,,,,,,,,,,,,,,,,,,,,,,,,,,,,,,,,,,,,,,,,,,,,,,,,,,,,,,,,,,,,,,,,,,,,,,,,,,,,,,,,,,,,,,,,,,,,,,,,,,,,,,,,,,,,,,,,,,,,,,,,
0,21,21,72,1,,6141c94201d385f32c5ad8f0,62bbf946cb01f9784ec11ccf,2022-06-29_09h04.19.593,Colour_Asymmetry_Pilot,2022.1.3,Win32,60.61340769,62bbe60bf3d75ef465d3e404,,,,,,,,,,,,,,,,,,,,,,,,,,,,,,,,,,,,,,,,,,,,,,,,,,,,,,,,,,,,,,,,,,,,,,,,,,,,,,,,,,,,,,,,,,,,,,,,,,,,,,,,,,,,,,,,,,,,,,,,,,,,,,,,,,,,,,,,,,,,,,,,,,,,,,,,,,,,,
0,22,22,66,1,,6141c94201d385f32c5ad8f0,62bbf946cb01f9784ec11ccf,2022-06-29_09h04.19.593,Colour_Asymmetry_Pilot,2022.1.3,Win32,60.61340769,62bbe60bf3d75ef465d3e404,,,,,,,,,,,,,,,,,,,,,,,,,,,,,,,,,,,,,,,,,,,,,,,,,,,,,,,,,,,,,,,,,,,,,,,,,,,,,,,,,,,,,,,,,,,,,,,,,,,,,,,,,,,,,,,,,,,,,,,,,,,,,,,,,,,,,,,,,,,,,,,,,,,,,,,,,,,,,
0,23,23,47,1,,6141c94201d385f32c5ad8f0,62bbf946cb01f9784ec11ccf,2022-06-29_09h04.19.593,Colour_Asymmetry_Pilot,2022.1.3,Win32,60.61340769,62bbe60bf3d75ef465d3e404,,,,,,,,,,,,,,,,,,,,,,,,,,,,,,,,,,,,,,,,,,,,,,,,,,,,,,,,,,,,,,,,,,,,,,,,,,,,,,,,,,,,,,,,,,,,,,,,,,,,,,,,,,,,,,,,,,,,,,,,,,,,,,,,,,,,,,,,,,,,,,,,,,,,,,,,,,,,,
0,24,24,1,1,,6141c94201d385f32c5ad8f0,62bbf946cb01f9784ec11ccf,2022-06-29_09h04.19.593,Colour_Asymmetry_Pilot,2022.1.3,Win32,60.61340769,62bbe60bf3d75ef465d3e404,,,,,,,,,,,,,,,,,,,,,,,,,,,,,,,,,,,,,,,,,,,,,,,,,,,,,,,,,,,,,,,,,,,,,,,,,,,,,,,,,,,,,,,,,,,,,,,,,,,,,,,,,,,,,,,,,,,,,,,,,,,,,,,,,,,,,,,,,,,,,,,,,,,,,,,,,,,,,
0,25,25,16,1,,6141c94201d385f32c5ad8f0,62bbf946cb01f9784ec11ccf,2022-06-29_09h04.19.593,Colour_Asymmetry_Pilot,2022.1.3,Win32,60.61340769,62bbe60bf3d75ef465d3e404,,,,,,,,,,,,,,,,,,,,,,,,,,,,,,,,,,,,,,,,,,,,,,,,,,,,,,,,,,,,,,,,,,,,,,,,,,,,,,,,,,,,,,,,,,,,,,,,,,,,,,,,,,,,,,,,,,,,,,,,,,,,,,,,,,,,,,,,,,,,,,,,,,,,,,,,,,,,,
0,26,26,27,1,,6141c94201d385f32c5ad8f0,62bbf946cb01f9784ec11ccf,2022-06-29_09h04.19.593,Colour_Asymmetry_Pilot,2022.1.3,Win32,60.61340769,62bbe60bf3d75ef465d3e404,,,,,,,,,,,,,,,,,,,,,,,,,,,,,,,,,,,,,,,,,,,,,,,,,,,,,,,,,,,,,,,,,,,,,,,,,,,,,,,,,,,,,,,,,,,,,,,,,,,,,,,,,,,,,,,,,,,,,,,,,,,,,,,,,,,,,,,,,,,,,,,,,,,,,,,,,,,,,
0,27,27,11,1,,6141c94201d385f32c5ad8f0,62bbf946cb01f9784ec11ccf,2022-06-29_09h04.19.593,Colour_Asymmetry_Pilot,2022.1.3,Win32,60.61340769,62bbe60bf3d75ef465d3e404,,,,,,,,,,,,,,,,,,,,,,,,,,,,,,,,,,,,,,,,,,,,,,,,,,,,,,,,,,,,,,,,,,,,,,,,,,,,,,,,,,,,,,,,,,,,,,,,,,,,,,,,,,,,,,,,,,,,,,,,,,,,,,,,,,,,,,,,,,,,,,,,,,,,,,,,,,,,,
0,28,28,29,1,,6141c94201d385f32c5ad8f0,62bbf946cb01f9784ec11ccf,2022-06-29_09h04.19.593,Colour_Asymmetry_Pilot,2022.1.3,Win32,60.61340769,62bbe60bf3d75ef465d3e404,,,,,,,,,,,,,,,,,,,,,,,,,,,,,,,,,,,,,,,,,,,,,,,,,,,,,,,,,,,,,,,,,,,,,,,,,,,,,,,,,,,,,,,,,,,,,,,,,,,,,,,,,,,,,,,,,,,,,,,,,,,,,,,,,,,,,,,,,,,,,,,,,,,,,,,,,,,,,
0,29,29,12,1,,6141c94201d385f32c5ad8f0,62bbf946cb01f9784ec11ccf,2022-06-29_09h04.19.593,Colour_Asymmetry_Pilot,2022.1.3,Win32,60.61340769,62bbe60bf3d75ef465d3e404,,,,,,,,,,,,,,,,,,,,,,,,,,,,,,,,,,,,,,,,,,,,,,,,,,,,,,,,,,,,,,,,,,,,,,,,,,,,,,,,,,,,,,,,,,,,,,,,,,,,,,,,,,,,,,,,,,,,,,,,,,,,,,,,,,,,,,,,,,,,,,,,,,,,,,,,,,,,,
0,30,30,82,1,,6141c94201d385f32c5ad8f0,62bbf946cb01f9784ec11ccf,2022-06-29_09h04.19.593,Colour_Asymmetry_Pilot,2022.1.3,Win32,60.61340769,62bbe60bf3d75ef465d3e404,,,,,,,,,,,,,,,,,,,,,,,,,,,,,,,,,,,,,,,,,,,,,,,,,,,,,,,,,,,,,,,,,,,,,,,,,,,,,,,,,,,,,,,,,,,,,,,,,,,,,,,,,,,,,,,,,,,,,,,,,,,,,,,,,,,,,,,,,,,,,,,,,,,,,,,,,,,,,
0,31,31,22,1,,6141c94201d385f32c5ad8f0,62bbf946cb01f9784ec11ccf,2022-06-29_09h04.19.593,Colour_Asymmetry_Pilot,2022.1.3,Win32,60.61340769,62bbe60bf3d75ef465d3e404,,,,,,,,,,,,,,,,,,,,,,,,,,,,,,,,,,,,,,,,,,,,,,,,,,,,,,,,,,,,,,,,,,,,,,,,,,,,,,,,,,,,,,,,,,,,,,,,,,,,,,,,,,,,,,,,,,,,,,,,,,,,,,,,,,,,,,,,,,,,,,,,,,,,,,,,,,,,,
0,32,32,40,1,,6141c94201d385f32c5ad8f0,62bbf946cb01f9784ec11ccf,2022-06-29_09h04.19.593,Colour_Asymmetry_Pilot,2022.1.3,Win32,60.61340769,62bbe60bf3d75ef465d3e404,,,,,,,,,,,,,,,,,,,,,,,,,,,,,,,,,,,,,,,,,,,,,,,,,,,,,,,,,,,,,,,,,,,,,,,,,,,,,,,,,,,,,,,,,,,,,,,,,,,,,,,,,,,,,,,,,,,,,,,,,,,,,,,,,,,,,,,,,,,,,,,,,,,,,,,,,,,,,
0,33,33,85,1,,6141c94201d385f32c5ad8f0,62bbf946cb01f9784ec11ccf,2022-06-29_09h04.19.593,Colour_Asymmetry_Pilot,2022.1.3,Win32,60.61340769,62bbe60bf3d75ef465d3e404,,,,,,,,,,,,,,,,,,,,,,,,,,,,,,,,,,,,,,,,,,,,,,,,,,,,,,,,,,,,,,,,,,,,,,,,,,,,,,,,,,,,,,,,,,,,,,,,,,,,,,,,,,,,,,,,,,,,,,,,,,,,,,,,,,,,,,,,,,,,,,,,,,,,,,,,,,,,,
0,34,34,13,1,,6141c94201d385f32c5ad8f0,62bbf946cb01f9784ec11ccf,2022-06-29_09h04.19.593,Colour_Asymmetry_Pilot,2022.1.3,Win32,60.61340769,62bbe60bf3d75ef465d3e404,,,,,,,,,,,,,,,,,,,,,,,,,,,,,,,,,,,,,,,,,,,,,,,,,,,,,,,,,,,,,,,,,,,,,,,,,,,,,,,,,,,,,,,,,,,,,,,,,,,,,,,,,,,,,,,,,,,,,,,,,,,,,,,,,,,,,,,,,,,,,,,,,,,,,,,,,,,,,
0,35,35,48,1,,6141c94201d385f32c5ad8f0,62bbf946cb01f9784ec11ccf,2022-06-29_09h04.19.593,Colour_Asymmetry_Pilot,2022.1.3,Win32,60.61340769,62bbe60bf3d75ef465d3e404,,,,,,,,,,,,,,,,,,,,,,,,,,,,,,,,,,,,,,,,,,,,,,,,,,,,,,,,,,,,,,,,,,,,,,,,,,,,,,,,,,,,,,,,,,,,,,,,,,,,,,,,,,,,,,,,,,,,,,,,,,,,,,,,,,,,,,,,,,,,,,,,,,,,,,,,,,,,,
0,36,36,56,1,,6141c94201d385f32c5ad8f0,62bbf946cb01f9784ec11ccf,2022-06-29_09h04.19.593,Colour_Asymmetry_Pilot,2022.1.3,Win32,60.61340769,62bbe60bf3d75ef465d3e404,,,,,,,,,,,,,,,,,,,,,,,,,,,,,,,,,,,,,,,,,,,,,,,,,,,,,,,,,,,,,,,,,,,,,,,,,,,,,,,,,,,,,,,,,,,,,,,,,,,,,,,,,,,,,,,,,,,,,,,,,,,,,,,,,,,,,,,,,,,,,,,,,,,,,,,,,,,,,
0,37,37,51,1,,6141c94201d385f32c5ad8f0,62bbf946cb01f9784ec11ccf,2022-06-29_09h04.19.593,Colour_Asymmetry_Pilot,2022.1.3,Win32,60.61340769,62bbe60bf3d75ef465d3e404,,,,,,,,,,,,,,,,,,,,,,,,,,,,,,,,,,,,,,,,,,,,,,,,,,,,,,,,,,,,,,,,,,,,,,,,,,,,,,,,,,,,,,,,,,,,,,,,,,,,,,,,,,,,,,,,,,,,,,,,,,,,,,,,,,,,,,,,,,,,,,,,,,,,,,,,,,,,,
0,38,38,23,1,,6141c94201d385f32c5ad8f0,62bbf946cb01f9784ec11ccf,2022-06-29_09h04.19.593,Colour_Asymmetry_Pilot,2022.1.3,Win32,60.61340769,62bbe60bf3d75ef465d3e404,,,,,,,,,,,,,,,,,,,,,,,,,,,,,,,,,,,,,,,,,,,,,,,,,,,,,,,,,,,,,,,,,,,,,,,,,,,,,,,,,,,,,,,,,,,,,,,,,,,,,,,,,,,,,,,,,,,,,,,,,,,,,,,,,,,,,,,,,,,,,,,,,,,,,,,,,,,,,
0,39,39,87,1,,6141c94201d385f32c5ad8f0,62bbf946cb01f9784ec11ccf,2022-06-29_09h04.19.593,Colour_Asymmetry_Pilot,2022.1.3,Win32,60.61340769,62bbe60bf3d75ef465d3e404,,,,,,,,,,,,,,,,,,,,,,,,,,,,,,,,,,,,,,,,,,,,,,,,,,,,,,,,,,,,,,,,,,,,,,,,,,,,,,,,,,,,,,,,,,,,,,,,,,,,,,,,,,,,,,,,,,,,,,,,,,,,,,,,,,,,,,,,,,,,,,,,,,,,,,,,,,,,,
0,40,40,3,1,,6141c94201d385f32c5ad8f0,62bbf946cb01f9784ec11ccf,2022-06-29_09h04.19.593,Colour_Asymmetry_Pilot,2022.1.3,Win32,60.61340769,62bbe60bf3d75ef465d3e404,,,,,,,,,,,,,,,,,,,,,,,,,,,,,,,,,,,,,,,,,,,,,,,,,,,,,,,,,,,,,,,,,,,,,,,,,,,,,,,,,,,,,,,,,,,,,,,,,,,,,,,,,,,,,,,,,,,,,,,,,,,,,,,,,,,,,,,,,,,,,,,,,,,,,,,,,,,,,
0,41,41,24,1,,6141c94201d385f32c5ad8f0,62bbf946cb01f9784ec11ccf,2022-06-29_09h04.19.593,Colour_Asymmetry_Pilot,2022.1.3,Win32,60.61340769,62bbe60bf3d75ef465d3e404,,,,,,,,,,,,,,,,,,,,,,,,,,,,,,,,,,,,,,,,,,,,,,,,,,,,,,,,,,,,,,,,,,,,,,,,,,,,,,,,,,,,,,,,,,,,,,,,,,,,,,,,,,,,,,,,,,,,,,,,,,,,,,,,,,,,,,,,,,,,,,,,,,,,,,,,,,,,,
0,42,42,39,1,,6141c94201d385f32c5ad8f0,62bbf946cb01f9784ec11ccf,2022-06-29_09h04.19.593,Colour_Asymmetry_Pilot,2022.1.3,Win32,60.61340769,62bbe60bf3d75ef465d3e404,,,,,,,,,,,,,,,,,,,,,,,,,,,,,,,,,,,,,,,,,,,,,,,,,,,,,,,,,,,,,,,,,,,,,,,,,,,,,,,,,,,,,,,,,,,,,,,,,,,,,,,,,,,,,,,,,,,,,,,,,,,,,,,,,,,,,,,,,,,,,,,,,,,,,,,,,,,,,
0,43,43,59,1,,6141c94201d385f32c5ad8f0,62bbf946cb01f9784ec11ccf,2022-06-29_09h04.19.593,Colour_Asymmetry_Pilot,2022.1.3,Win32,60.61340769,62bbe60bf3d75ef465d3e404,,,,,,,,,,,,,,,,,,,,,,,,,,,,,,,,,,,,,,,,,,,,,,,,,,,,,,,,,,,,,,,,,,,,,,,,,,,,,,,,,,,,,,,,,,,,,,,,,,,,,,,,,,,,,,,,,,,,,,,,,,,,,,,,,,,,,,,,,,,,,,,,,,,,,,,,,,,,,
0,44,44,65,1,,6141c94201d385f32c5ad8f0,62bbf946cb01f9784ec11ccf,2022-06-29_09h04.19.593,Colour_Asymmetry_Pilot,2022.1.3,Win32,60.61340769,62bbe60bf3d75ef465d3e404,,,,,,,,,,,,,,,,,,,,,,,,,,,,,,,,,,,,,,,,,,,,,,,,,,,,,,,,,,,,,,,,,,,,,,,,,,,,,,,,,,,,,,,,,,,,,,,,,,,,,,,,,,,,,,,,,,,,,,,,,,,,,,,,,,,,,,,,,,,,,,,,,,,,,,,,,,,,,
0,45,45,38,1,,6141c94201d385f32c5ad8f0,62bbf946cb01f9784ec11ccf,2022-06-29_09h04.19.593,Colour_Asymmetry_Pilot,2022.1.3,Win32,60.61340769,62bbe60bf3d75ef465d3e404,,,,,,,,,,,,,,,,,,,,,,,,,,,,,,,,,,,,,,,,,,,,,,,,,,,,,,,,,,,,,,,,,,,,,,,,,,,,,,,,,,,,,,,,,,,,,,,,,,,,,,,,,,,,,,,,,,,,,,,,,,,,,,,,,,,,,,,,,,,,,,,,,,,,,,,,,,,,,
0,46,46,64,1,,6141c94201d385f32c5ad8f0,62bbf946cb01f9784ec11ccf,2022-06-29_09h04.19.593,Colour_Asymmetry_Pilot,2022.1.3,Win32,60.61340769,62bbe60bf3d75ef465d3e404,,,,,,,,,,,,,,,,,,,,,,,,,,,,,,,,,,,,,,,,,,,,,,,,,,,,,,,,,,,,,,,,,,,,,,,,,,,,,,,,,,,,,,,,,,,,,,,,,,,,,,,,,,,,,,,,,,,,,,,,,,,,,,,,,,,,,,,,,,,,,,,,,,,,,,,,,,,,,
0,47,47,84,1,,6141c94201d385f32c5ad8f0,62bbf946cb01f9784ec11ccf,2022-06-29_09h04.19.593,Colour_Asymmetry_Pilot,2022.1.3,Win32,60.61340769,62bbe60bf3d75ef465d3e404,,,,,,,,,,,,,,,,,,,,,,,,,,,,,,,,,,,,,,,,,,,,,,,,,,,,,,,,,,,,,,,,,,,,,,,,,,,,,,,,,,,,,,,,,,,,,,,,,,,,,,,,,,,,,,,,,,,,,,,,,,,,,,,,,,,,,,,,,,,,,,,,,,,,,,,,,,,,,
0,48,48,44,1,,6141c94201d385f32c5ad8f0,62bbf946cb01f9784ec11ccf,2022-06-29_09h04.19.593,Colour_Asymmetry_Pilot,2022.1.3,Win32,60.61340769,62bbe60bf3d75ef465d3e404,,,,,,,,,,,,,,,,,,,,,,,,,,,,,,,,,,,,,,,,,,,,,,,,,,,,,,,,,,,,,,,,,,,,,,,,,,,,,,,,,,,,,,,,,,,,,,,,,,,,,,,,,,,,,,,,,,,,,,,,,,,,,,,,,,,,,,,,,,,,,,,,,,,,,,,,,,,,,
0,49,49,18,1,,6141c94201d385f32c5ad8f0,62bbf946cb01f9784ec11ccf,2022-06-29_09h04.19.593,Colour_Asymmetry_Pilot,2022.1.3,Win32,60.61340769,62bbe60bf3d75ef465d3e404,,,,,,,,,,,,,,,,,,,,,,,,,,,,,,,,,,,,,,,,,,,,,,,,,,,,,,,,,,,,,,,,,,,,,,,,,,,,,,,,,,,,,,,,,,,,,,,,,,,,,,,,,,,,,,,,,,,,,,,,,,,,,,,,,,,,,,,,,,,,,,,,,,,,,,,,,,,,,
0,50,50,41,1,,6141c94201d385f32c5ad8f0,62bbf946cb01f9784ec11ccf,2022-06-29_09h04.19.593,Colour_Asymmetry_Pilot,2022.1.3,Win32,60.61340769,62bbe60bf3d75ef465d3e404,,,,,,,,,,,,,,,,,,,,,,,,,,,,,,,,,,,,,,,,,,,,,,,,,,,,,,,,,,,,,,,,,,,,,,,,,,,,,,,,,,,,,,,,,,,,,,,,,,,,,,,,,,,,,,,,,,,,,,,,,,,,,,,,,,,,,,,,,,,,,,,,,,,,,,,,,,,,,
0,51,51,77,1,,6141c94201d385f32c5ad8f0,62bbf946cb01f9784ec11ccf,2022-06-29_09h04.19.593,Colour_Asymmetry_Pilot,2022.1.3,Win32,60.61340769,62bbe60bf3d75ef465d3e404,,,,,,,,,,,,,,,,,,,,,,,,,,,,,,,,,,,,,,,,,,,,,,,,,,,,,,,,,,,,,,,,,,,,,,,,,,,,,,,,,,,,,,,,,,,,,,,,,,,,,,,,,,,,,,,,,,,,,,,,,,,,,,,,,,,,,,,,,,,,,,,,,,,,,,,,,,,,,
0,52,52,46,1,,6141c94201d385f32c5ad8f0,62bbf946cb01f9784ec11ccf,2022-06-29_09h04.19.593,Colour_Asymmetry_Pilot,2022.1.3,Win32,60.61340769,62bbe60bf3d75ef465d3e404,,,,,,,,,,,,,,,,,,,,,,,,,,,,,,,,,,,,,,,,,,,,,,,,,,,,,,,,,,,,,,,,,,,,,,,,,,,,,,,,,,,,,,,,,,,,,,,,,,,,,,,,,,,,,,,,,,,,,,,,,,,,,,,,,,,,,,,,,,,,,,,,,,,,,,,,,,,,,
0,53,53,25,1,,6141c94201d385f32c5ad8f0,62bbf946cb01f9784ec11ccf,2022-06-29_09h04.19.593,Colour_Asymmetry_Pilot,2022.1.3,Win32,60.61340769,62bbe60bf3d75ef465d3e404,,,,,,,,,,,,,,,,,,,,,,,,,,,,,,,,,,,,,,,,,,,,,,,,,,,,,,,,,,,,,,,,,,,,,,,,,,,,,,,,,,,,,,,,,,,,,,,,,,,,,,,,,,,,,,,,,,,,,,,,,,,,,,,,,,,,,,,,,,,,,,,,,,,,,,,,,,,,,
0,54,54,91,1,,6141c94201d385f32c5ad8f0,62bbf946cb01f9784ec11ccf,2022-06-29_09h04.19.593,Colour_Asymmetry_Pilot,2022.1.3,Win32,60.61340769,62bbe60bf3d75ef465d3e404,,,,,,,,,,,,,,,,,,,,,,,,,,,,,,,,,,,,,,,,,,,,,,,,,,,,,,,,,,,,,,,,,,,,,,,,,,,,,,,,,,,,,,,,,,,,,,,,,,,,,,,,,,,,,,,,,,,,,,,,,,,,,,,,,,,,,,,,,,,,,,,,,,,,,,,,,,,,,
0,55,55,21,1,,6141c94201d385f32c5ad8f0,62bbf946cb01f9784ec11ccf,2022-06-29_09h04.19.593,Colour_Asymmetry_Pilot,2022.1.3,Win32,60.61340769,62bbe60bf3d75ef465d3e404,,,,,,,,,,,,,,,,,,,,,,,,,,,,,,,,,,,,,,,,,,,,,,,,,,,,,,,,,,,,,,,,,,,,,,,,,,,,,,,,,,,,,,,,,,,,,,,,,,,,,,,,,,,,,,,,,,,,,,,,,,,,,,,,,,,,,,,,,,,,,,,,,,,,,,,,,,,,,
0,56,56,9,1,,6141c94201d385f32c5ad8f0,62bbf946cb01f9784ec11ccf,2022-06-29_09h04.19.593,Colour_Asymmetry_Pilot,2022.1.3,Win32,60.61340769,62bbe60bf3d75ef465d3e404,,,,,,,,,,,,,,,,,,,,,,,,,,,,,,,,,,,,,,,,,,,,,,,,,,,,,,,,,,,,,,,,,,,,,,,,,,,,,,,,,,,,,,,,,,,,,,,,,,,,,,,,,,,,,,,,,,,,,,,,,,,,,,,,,,,,,,,,,,,,,,,,,,,,,,,,,,,,,
0,57,57,17,1,,6141c94201d385f32c5ad8f0,62bbf946cb01f9784ec11ccf,2022-06-29_09h04.19.593,Colour_Asymmetry_Pilot,2022.1.3,Win32,60.61340769,62bbe60bf3d75ef465d3e404,,,,,,,,,,,,,,,,,,,,,,,,,,,,,,,,,,,,,,,,,,,,,,,,,,,,,,,,,,,,,,,,,,,,,,,,,,,,,,,,,,,,,,,,,,,,,,,,,,,,,,,,,,,,,,,,,,,,,,,,,,,,,,,,,,,,,,,,,,,,,,,,,,,,,,,,,,,,,
0,58,58,0,1,,6141c94201d385f32c5ad8f0,62bbf946cb01f9784ec11ccf,2022-06-29_09h04.19.593,Colour_Asymmetry_Pilot,2022.1.3,Win32,60.61340769,62bbe60bf3d75ef465d3e404,,,,,,,,,,,,,,,,,,,,,,,,,,,,,,,,,,,,,,,,,,,,,,,,,,,,,,,,,,,,,,,,,,,,,,,,,,,,,,,,,,,,,,,,,,,,,,,,,,,,,,,,,,,,,,,,,,,,,,,,,,,,,,,,,,,,,,,,,,,,,,,,,,,,,,,,,,,,,
0,59,59,70,1,,6141c94201d385f32c5ad8f0,62bbf946cb01f9784ec11ccf,2022-06-29_09h04.19.593,Colour_Asymmetry_Pilot,2022.1.3,Win32,60.61340769,62bbe60bf3d75ef465d3e404,,,,,,,,,,,,,,,,,,,,,,,,,,,,,,,,,,,,,,,,,,,,,,,,,,,,,,,,,,,,,,,,,,,,,,,,,,,,,,,,,,,,,,,,,,,,,,,,,,,,,,,,,,,,,,,,,,,,,,,,,,,,,,,,,,,,,,,,,,,,,,,,,,,,,,,,,,,,,
0,60,60,61,1,,6141c94201d385f32c5ad8f0,62bbf946cb01f9784ec11ccf,2022-06-29_09h04.19.593,Colour_Asymmetry_Pilot,2022.1.3,Win32,60.61340769,62bbe60bf3d75ef465d3e404,,,,,,,,,,,,,,,,,,,,,,,,,,,,,,,,,,,,,,,,,,,,,,,,,,,,,,,,,,,,,,,,,,,,,,,,,,,,,,,,,,,,,,,,,,,,,,,,,,,,,,,,,,,,,,,,,,,,,,,,,,,,,,,,,,,,,,,,,,,,,,,,,,,,,,,,,,,,,
0,61,61,71,1,,6141c94201d385f32c5ad8f0,62bbf946cb01f9784ec11ccf,2022-06-29_09h04.19.593,Colour_Asymmetry_Pilot,2022.1.3,Win32,60.61340769,62bbe60bf3d75ef465d3e404,,,,,,,,,,,,,,,,,,,,,,,,,,,,,,,,,,,,,,,,,,,,,,,,,,,,,,,,,,,,,,,,,,,,,,,,,,,,,,,,,,,,,,,,,,,,,,,,,,,,,,,,,,,,,,,,,,,,,,,,,,,,,,,,,,,,,,,,,,,,,,,,,,,,,,,,,,,,,
0,62,62,33,1,,6141c94201d385f32c5ad8f0,62bbf946cb01f9784ec11ccf,2022-06-29_09h04.19.593,Colour_Asymmetry_Pilot,2022.1.3,Win32,60.61340769,62bbe60bf3d75ef465d3e404,,,,,,,,,,,,,,,,,,,,,,,,,,,,,,,,,,,,,,,,,,,,,,,,,,,,,,,,,,,,,,,,,,,,,,,,,,,,,,,,,,,,,,,,,,,,,,,,,,,,,,,,,,,,,,,,,,,,,,,,,,,,,,,,,,,,,,,,,,,,,,,,,,,,,,,,,,,,,
0,63,63,2,1,,6141c94201d385f32c5ad8f0,62bbf946cb01f9784ec11ccf,2022-06-29_09h04.19.593,Colour_Asymmetry_Pilot,2022.1.3,Win32,60.61340769,62bbe60bf3d75ef465d3e404,,,,,,,,,,,,,,,,,,,,,,,,,,,,,,,,,,,,,,,,,,,,,,,,,,,,,,,,,,,,,,,,,,,,,,,,,,,,,,,,,,,,,,,,,,,,,,,,,,,,,,,,,,,,,,,,,,,,,,,,,,,,,,,,,,,,,,,,,,,,,,,,,,,,,,,,,,,,,
0,64,64,19,1,,6141c94201d385f32c5ad8f0,62bbf946cb01f9784ec11ccf,2022-06-29_09h04.19.593,Colour_Asymmetry_Pilot,2022.1.3,Win32,60.61340769,62bbe60bf3d75ef465d3e404,,,,,,,,,,,,,,,,,,,,,,,,,,,,,,,,,,,,,,,,,,,,,,,,,,,,,,,,,,,,,,,,,,,,,,,,,,,,,,,,,,,,,,,,,,,,,,,,,,,,,,,,,,,,,,,,,,,,,,,,,,,,,,,,,,,,,,,,,,,,,,,,,,,,,,,,,,,,,
0,65,65,92,1,,6141c94201d385f32c5ad8f0,62bbf946cb01f9784ec11ccf,2022-06-29_09h04.19.593,Colour_Asymmetry_Pilot,2022.1.3,Win32,60.61340769,62bbe60bf3d75ef465d3e404,,,,,,,,,,,,,,,,,,,,,,,,,,,,,,,,,,,,,,,,,,,,,,,,,,,,,,,,,,,,,,,,,,,,,,,,,,,,,,,,,,,,,,,,,,,,,,,,,,,,,,,,,,,,,,,,,,,,,,,,,,,,,,,,,,,,,,,,,,,,,,,,,,,,,,,,,,,,,
0,66,66,34,1,,6141c94201d385f32c5ad8f0,62bbf946cb01f9784ec11ccf,2022-06-29_09h04.19.593,Colour_Asymmetry_Pilot,2022.1.3,Win32,60.61340769,62bbe60bf3d75ef465d3e404,,,,,,,,,,,,,,,,,,,,,,,,,,,,,,,,,,,,,,,,,,,,,,,,,,,,,,,,,,,,,,,,,,,,,,,,,,,,,,,,,,,,,,,,,,,,,,,,,,,,,,,,,,,,,,,,,,,,,,,,,,,,,,,,,,,,,,,,,,,,,,,,,,,,,,,,,,,,,
0,67,67,10,1,,6141c94201d385f32c5ad8f0,62bbf946cb01f9784ec11ccf,2022-06-29_09h04.19.593,Colour_Asymmetry_Pilot,2022.1.3,Win32,60.61340769,62bbe60bf3d75ef465d3e404,,,,,,,,,,,,,,,,,,,,,,,,,,,,,,,,,,,,,,,,,,,,,,,,,,,,,,,,,,,,,,,,,,,,,,,,,,,,,,,,,,,,,,,,,,,,,,,,,,,,,,,,,,,,,,,,,,,,,,,,,,,,,,,,,,,,,,,,,,,,,,,,,,,,,,,,,,,,,
0,68,68,58,1,,6141c94201d385f32c5ad8f0,62bbf946cb01f9784ec11ccf,2022-06-29_09h04.19.593,Colour_Asymmetry_Pilot,2022.1.3,Win32,60.61340769,62bbe60bf3d75ef465d3e404,,,,,,,,,,,,,,,,,,,,,,,,,,,,,,,,,,,,,,,,,,,,,,,,,,,,,,,,,,,,,,,,,,,,,,,,,,,,,,,,,,,,,,,,,,,,,,,,,,,,,,,,,,,,,,,,,,,,,,,,,,,,,,,,,,,,,,,,,,,,,,,,,,,,,,,,,,,,,
0,69,69,54,1,,6141c94201d385f32c5ad8f0,62bbf946cb01f9784ec11ccf,2022-06-29_09h04.19.593,Colour_Asymmetry_Pilot,2022.1.3,Win32,60.61340769,62bbe60bf3d75ef465d3e404,,,,,,,,,,,,,,,,,,,,,,,,,,,,,,,,,,,,,,,,,,,,,,,,,,,,,,,,,,,,,,,,,,,,,,,,,,,,,,,,,,,,,,,,,,,,,,,,,,,,,,,,,,,,,,,,,,,,,,,,,,,,,,,,,,,,,,,,,,,,,,,,,,,,,,,,,,,,,
0,70,70,89,1,,6141c94201d385f32c5ad8f0,62bbf946cb01f9784ec11ccf,2022-06-29_09h04.19.593,Colour_Asymmetry_Pilot,2022.1.3,Win32,60.61340769,62bbe60bf3d75ef465d3e404,,,,,,,,,,,,,,,,,,,,,,,,,,,,,,,,,,,,,,,,,,,,,,,,,,,,,,,,,,,,,,,,,,,,,,,,,,,,,,,,,,,,,,,,,,,,,,,,,,,,,,,,,,,,,,,,,,,,,,,,,,,,,,,,,,,,,,,,,,,,,,,,,,,,,,,,,,,,,
0,71,71,52,1,,6141c94201d385f32c5ad8f0,62bbf946cb01f9784ec11ccf,2022-06-29_09h04.19.593,Colour_Asymmetry_Pilot,2022.1.3,Win32,60.61340769,62bbe60bf3d75ef465d3e404,,,,,,,,,,,,,,,,,,,,,,,,,,,,,,,,,,,,,,,,,,,,,,,,,,,,,,,,,,,,,,,,,,,,,,,,,,,,,,,,,,,,,,,,,,,,,,,,,,,,,,,,,,,,,,,,,,,,,,,,,,,,,,,,,,,,,,,,,,,,,,,,,,,,,,,,,,,,,
0,72,72,42,1,,6141c94201d385f32c5ad8f0,62bbf946cb01f9784ec11ccf,2022-06-29_09h04.19.593,Colour_Asymmetry_Pilot,2022.1.3,Win32,60.61340769,62bbe60bf3d75ef465d3e404,,,,,,,,,,,,,,,,,,,,,,,,,,,,,,,,,,,,,,,,,,,,,,,,,,,,,,,,,,,,,,,,,,,,,,,,,,,,,,,,,,,,,,,,,,,,,,,,,,,,,,,,,,,,,,,,,,,,,,,,,,,,,,,,,,,,,,,,,,,,,,,,,,,,,,,,,,,,,
0,73,73,80,1,,6141c94201d385f32c5ad8f0,62bbf946cb01f9784ec11ccf,2022-06-29_09h04.19.593,Colour_Asymmetry_Pilot,2022.1.3,Win32,60.61340769,62bbe60bf3d75ef465d3e404,,,,,,,,,,,,,,,,,,,,,,,,,,,,,,,,,,,,,,,,,,,,,,,,,,,,,,,,,,,,,,,,,,,,,,,,,,,,,,,,,,,,,,,,,,,,,,,,,,,,,,,,,,,,,,,,,,,,,,,,,,,,,,,,,,,,,,,,,,,,,,,,,,,,,,,,,,,,,
0,74,74,15,1,,6141c94201d385f32c5ad8f0,62bbf946cb01f9784ec11ccf,2022-06-29_09h04.19.593,Colour_Asymmetry_Pilot,2022.1.3,Win32,60.61340769,62bbe60bf3d75ef465d3e404,,,,,,,,,,,,,,,,,,,,,,,,,,,,,,,,,,,,,,,,,,,,,,,,,,,,,,,,,,,,,,,,,,,,,,,,,,,,,,,,,,,,,,,,,,,,,,,,,,,,,,,,,,,,,,,,,,,,,,,,,,,,,,,,,,,,,,,,,,,,,,,,,,,,,,,,,,,,,
0,75,75,26,1,,6141c94201d385f32c5ad8f0,62bbf946cb01f9784ec11ccf,2022-06-29_09h04.19.593,Colour_Asymmetry_Pilot,2022.1.3,Win32,60.61340769,62bbe60bf3d75ef465d3e404,,,,,,,,,,,,,,,,,,,,,,,,,,,,,,,,,,,,,,,,,,,,,,,,,,,,,,,,,,,,,,,,,,,,,,,,,,,,,,,,,,,,,,,,,,,,,,,,,,,,,,,,,,,,,,,,,,,,,,,,,,,,,,,,,,,,,,,,,,,,,,,,,,,,,,,,,,,,,
0,76,76,90,1,,6141c94201d385f32c5ad8f0,62bbf946cb01f9784ec11ccf,2022-06-29_09h04.19.593,Colour_Asymmetry_Pilot,2022.1.3,Win32,60.61340769,62bbe60bf3d75ef465d3e404,,,,,,,,,,,,,,,,,,,,,,,,,,,,,,,,,,,,,,,,,,,,,,,,,,,,,,,,,,,,,,,,,,,,,,,,,,,,,,,,,,,,,,,,,,,,,,,,,,,,,,,,,,,,,,,,,,,,,,,,,,,,,,,,,,,,,,,,,,,,,,,,,,,,,,,,,,,,,
0,77,77,36,1,,6141c94201d385f32c5ad8f0,62bbf946cb01f9784ec11ccf,2022-06-29_09h04.19.593,Colour_Asymmetry_Pilot,2022.1.3,Win32,60.61340769,62bbe60bf3d75ef465d3e404,,,,,,,,,,,,,,,,,,,,,,,,,,,,,,,,,,,,,,,,,,,,,,,,,,,,,,,,,,,,,,,,,,,,,,,,,,,,,,,,,,,,,,,,,,,,,,,,,,,,,,,,,,,,,,,,,,,,,,,,,,,,,,,,,,,,,,,,,,,,,,,,,,,,,,,,,,,,,
0,78,78,32,1,,6141c94201d385f32c5ad8f0,62bbf946cb01f9784ec11ccf,2022-06-29_09h04.19.593,Colour_Asymmetry_Pilot,2022.1.3,Win32,60.61340769,62bbe60bf3d75ef465d3e404,,,,,,,,,,,,,,,,,,,,,,,,,,,,,,,,,,,,,,,,,,,,,,,,,,,,,,,,,,,,,,,,,,,,,,,,,,,,,,,,,,,,,,,,,,,,,,,,,,,,,,,,,,,,,,,,,,,,,,,,,,,,,,,,,,,,,,,,,,,,,,,,,,,,,,,,,,,,,
0,79,79,62,1,,6141c94201d385f32c5ad8f0,62bbf946cb01f9784ec11ccf,2022-06-29_09h04.19.593,Colour_Asymmetry_Pilot,2022.1.3,Win32,60.61340769,62bbe60bf3d75ef465d3e404,,,,,,,,,,,,,,,,,,,,,,,,,,,,,,,,,,,,,,,,,,,,,,,,,,,,,,,,,,,,,,,,,,,,,,,,,,,,,,,,,,,,,,,,,,,,,,,,,,,,,,,,,,,,,,,,,,,,,,,,,,,,,,,,,,,,,,,,,,,,,,,,,,,,,,,,,,,,,
0,80,80,88,1,,6141c94201d385f32c5ad8f0,62bbf946cb01f9784ec11ccf,2022-06-29_09h04.19.593,Colour_Asymmetry_Pilot,2022.1.3,Win32,60.61340769,62bbe60bf3d75ef465d3e404,,,,,,,,,,,,,,,,,,,,,,,,,,,,,,,,,,,,,,,,,,,,,,,,,,,,,,,,,,,,,,,,,,,,,,,,,,,,,,,,,,,,,,,,,,,,,,,,,,,,,,,,,,,,,,,,,,,,,,,,,,,,,,,,,,,,,,,,,,,,,,,,,,,,,,,,,,,,,
0,81,81,37,1,,6141c94201d385f32c5ad8f0,62bbf946cb01f9784ec11ccf,2022-06-29_09h04.19.593,Colour_Asymmetry_Pilot,2022.1.3,Win32,60.61340769,62bbe60bf3d75ef465d3e404,,,,,,,,,,,,,,,,,,,,,,,,,,,,,,,,,,,,,,,,,,,,,,,,,,,,,,,,,,,,,,,,,,,,,,,,,,,,,,,,,,,,,,,,,,,,,,,,,,,,,,,,,,,,,,,,,,,,,,,,,,,,,,,,,,,,,,,,,,,,,,,,,,,,,,,,,,,,,
0,82,82,49,1,,6141c94201d385f32c5ad8f0,62bbf946cb01f9784ec11ccf,2022-06-29_09h04.19.593,Colour_Asymmetry_Pilot,2022.1.3,Win32,60.61340769,62bbe60bf3d75ef465d3e404,,,,,,,,,,,,,,,,,,,,,,,,,,,,,,,,,,,,,,,,,,,,,,,,,,,,,,,,,,,,,,,,,,,,,,,,,,,,,,,,,,,,,,,,,,,,,,,,,,,,,,,,,,,,,,,,,,,,,,,,,,,,,,,,,,,,,,,,,,,,,,,,,,,,,,,,,,,,,
0,83,83,76,1,,6141c94201d385f32c5ad8f0,62bbf946cb01f9784ec11ccf,2022-06-29_09h04.19.593,Colour_Asymmetry_Pilot,2022.1.3,Win32,60.61340769,62bbe60bf3d75ef465d3e404,,,,,,,,,,,,,,,,,,,,,,,,,,,,,,,,,,,,,,,,,,,,,,,,,,,,,,,,,,,,,,,,,,,,,,,,,,,,,,,,,,,,,,,,,,,,,,,,,,,,,,,,,,,,,,,,,,,,,,,,,,,,,,,,,,,,,,,,,,,,,,,,,,,,,,,,,,,,,
0,84,84,28,1,,6141c94201d385f32c5ad8f0,62bbf946cb01f9784ec11ccf,2022-06-29_09h04.19.593,Colour_Asymmetry_Pilot,2022.1.3,Win32,60.61340769,62bbe60bf3d75ef465d3e404,,,,,,,,,,,,,,,,,,,,,,,,,,,,,,,,,,,,,,,,,,,,,,,,,,,,,,,,,,,,,,,,,,,,,,,,,,,,,,,,,,,,,,,,,,,,,,,,,,,,,,,,,,,,,,,,,,,,,,,,,,,,,,,,,,,,,,,,,,,,,,,,,,,,,,,,,,,,,
0,85,85,7,1,,6141c94201d385f32c5ad8f0,62bbf946cb01f9784ec11ccf,2022-06-29_09h04.19.593,Colour_Asymmetry_Pilot,2022.1.3,Win32,60.61340769,62bbe60bf3d75ef465d3e404,,,,,,,,,,,,,,,,,,,,,,,,,,,,,,,,,,,,,,,,,,,,,,,,,,,,,,,,,,,,,,,,,,,,,,,,,,,,,,,,,,,,,,,,,,,,,,,,,,,,,,,,,,,,,,,,,,,,,,,,,,,,,,,,,,,,,,,,,,,,,,,,,,,,,,,,,,,,,
0,86,86,55,1,,6141c94201d385f32c5ad8f0,62bbf946cb01f9784ec11ccf,2022-06-29_09h04.19.593,Colour_Asymmetry_Pilot,2022.1.3,Win32,60.61340769,62bbe60bf3d75ef465d3e404,,,,,,,,,,,,,,,,,,,,,,,,,,,,,,,,,,,,,,,,,,,,,,,,,,,,,,,,,,,,,,,,,,,,,,,,,,,,,,,,,,,,,,,,,,,,,,,,,,,,,,,,,,,,,,,,,,,,,,,,,,,,,,,,,,,,,,,,,,,,,,,,,,,,,,,,,,,,,
0,87,87,86,1,,6141c94201d385f32c5ad8f0,62bbf946cb01f9784ec11ccf,2022-06-29_09h04.19.593,Colour_Asymmetry_Pilot,2022.1.3,Win32,60.61340769,62bbe60bf3d75ef465d3e404,,,,,,,,,,,,,,,,,,,,,,,,,,,,,,,,,,,,,,,,,,,,,,,,,,,,,,,,,,,,,,,,,,,,,,,,,,,,,,,,,,,,,,,,,,,,,,,,,,,,,,,,,,,,,,,,,,,,,,,,,,,,,,,,,,,,,,,,,,,,,,,,,,,,,,,,,,,,,
0,88,88,14,1,,6141c94201d385f32c5ad8f0,62bbf946cb01f9784ec11ccf,2022-06-29_09h04.19.593,Colour_Asymmetry_Pilot,2022.1.3,Win32,60.61340769,62bbe60bf3d75ef465d3e404,,,,,,,,,,,,,,,,,,,,,,,,,,,,,,,,,,,,,,,,,,,,,,,,,,,,,,,,,,,,,,,,,,,,,,,,,,,,,,,,,,,,,,,,,,,,,,,,,,,,,,,,,,,,,,,,,,,,,,,,,,,,,,,,,,,,,,,,,,,,,,,,,,,,,,,,,,,,,
0,89,89,67,1,,6141c94201d385f32c5ad8f0,62bbf946cb01f9784ec11ccf,2022-06-29_09h04.19.593,Colour_Asymmetry_Pilot,2022.1.3,Win32,60.61340769,62bbe60bf3d75ef465d3e404,,,,,,,,,,,,,,,,,,,,,,,,,,,,,,,,,,,,,,,,,,,,,,,,,,,,,,,,,,,,,,,,,,,,,,,,,,,,,,,,,,,,,,,,,,,,,,,,,,,,,,,,,,,,,,,,,,,,,,,,,,,,,,,,,,,,,,,,,,,,,,,,,,,,,,,,,,,,,
0,90,90,68,1,,6141c94201d385f32c5ad8f0,62bbf946cb01f9784ec11ccf,2022-06-29_09h04.19.593,Colour_Asymmetry_Pilot,2022.1.3,Win32,60.61340769,62bbe60bf3d75ef465d3e404,,,,,,,,,,,,,,,,,,,,,,,,,,,,,,,,,,,,,,,,,,,,,,,,,,,,,,,,,,,,,,,,,,,,,,,,,,,,,,,,,,,,,,,,,,,,,,,,,,,,,,,,,,,,,,,,,,,,,,,,,,,,,,,,,,,,,,,,,,,,,,,,,,,,,,,,,,,,,
0,91,91,20,1,,6141c94201d385f32c5ad8f0,62bbf946cb01f9784ec11ccf,2022-06-29_09h04.19.593,Colour_Asymmetry_Pilot,2022.1.3,Win32,60.61340769,62bbe60bf3d75ef465d3e404,,,,,,,,,,,,,,,,,,,,,,,,,,,,,,,,,,,,,,,,,,,,,,,,,,,,,,,,,,,,,,,,,,,,,,,,,,,,,,,,,,,,,,,,,,,,,,,,,,,,,,,,,,,,,,,,,,,,,,,,,,,,,,,,,,,,,,,,,,,,,,,,,,,,,,,,,,,,,
0,92,92,78,1,,6141c94201d385f32c5ad8f0,62bbf946cb01f9784ec11ccf,2022-06-29_09h04.19.593,Colour_Asymmetry_Pilot,2022.1.3,Win32,60.61340769,62bbe60bf3d75ef465d3e404,,,,,,,,,,,,,,,,,,,,,,,,,,,,,,,,,,,,,,,,,,,,,,,,,,,,,,,,,,,,,,,,,,,,,,,,,,,,,,,,,,,,,,,,,,,,,,,,,,,,,,,,,,,,,,,,,,,,,,,,,,,,,,,,,,,,,,,,,,,,,,,,,,,,,,,,,,,,,
,,,,,,6141c94201d385f32c5ad8f0,62bbf946cb01f9784ec11ccf,2022-06-29_09h04.19.593,Colour_Asymmetry_Pilot,2022.1.3,Win32,60.61340769,62bbe60bf3d75ef465d3e404,0,0,0,152,1,onetwo,,,,,,,,,,,,,,,,,,,,,,,,,,,,,,,,,,,,,,,,,,,,,,,,,,,,,,,,,,,,,,,,,,,,,,,,,,,,,,,,,,,,,,,,,,,,,,,,,,,,,,,,,,,,,,,,,,,,,,,,,,,,,,,,,,,,,,,,,,,,,,,,,,,,,,,
,,,,,,6141c94201d385f32c5ad8f0,62bbf946cb01f9784ec11ccf,2022-06-29_09h04.19.593,Colour_Asymmetry_Pilot,2022.1.3,Win32,60.61340769,62bbe60bf3d75ef465d3e404,0,1,1,53,1,threefour,,,,,,,,,,,,,,,,,,,,,,,,,,,,,,,,,,,,,,,,,,,,,,,,,,,,,,,,,,,,,,,,,,,,,,,,,,,,,,,,,,,,,,,,,,,,,,,,,,,,,,,,,,,,,,,,,,,,,,,,,,,,,,,,,,,,,,,,,,,,,,,,,,,,,,,
,,,,,,6141c94201d385f32c5ad8f0,62bbf946cb01f9784ec11ccf,2022-06-29_09h04.19.593,Colour_Asymmetry_Pilot,2022.1.3,Win32,60.61340769,62bbe60bf3d75ef465d3e404,0,2,2,61,1,threefour,,,,,,,,,,,,,,,,,,,,,,,,,,,,,,,,,,,,,,,,,,,,,,,,,,,,,,,,,,,,,,,,,,,,,,,,,,,,,,,,,,,,,,,,,,,,,,,,,,,,,,,,,,,,,,,,,,,,,,,,,,,,,,,,,,,,,,,,,,,,,,,,,,,,,,,
,,,,,,6141c94201d385f32c5ad8f0,62bbf946cb01f9784ec11ccf,2022-06-29_09h04.19.593,Colour_Asymmetry_Pilot,2022.1.3,Win32,60.61340769,62bbe60bf3d75ef465d3e404,0,3,3,10,1,twoone,,,,,,,,,,,,,,,,,,,,,,,,,,,,,,,,,,,,,,,,,,,,,,,,,,,,,,,,,,,,,,,,,,,,,,,,,,,,,,,,,,,,,,,,,,,,,,,,,,,,,,,,,,,,,,,,,,,,,,,,,,,,,,,,,,,,,,,,,,,,,,,,,,,,,,,
,,,,,,6141c94201d385f32c5ad8f0,62bbf946cb01f9784ec11ccf,2022-06-29_09h04.19.593,Colour_Asymmetry_Pilot,2022.1.3,Win32,60.61340769,62bbe60bf3d75ef465d3e404,0,4,4,103,1,fourthree,,,,,,,,,,,,,,,,,,,,,,,,,,,,,,,,,,,,,,,,,,,,,,,,,,,,,,,,,,,,,,,,,,,,,,,,,,,,,,,,,,,,,,,,,,,,,,,,,,,,,,,,,,,,,,,,,,,,,,,,,,,,,,,,,,,,,,,,,,,,,,,,,,,,,,,
,,,,,,6141c94201d385f32c5ad8f0,62bbf946cb01f9784ec11ccf,2022-06-29_09h04.19.593,Colour_Asymmetry_Pilot,2022.1.3,Win32,60.61340769,62bbe60bf3d75ef465d3e404,0,5,5,57,1,onethree,,,,,,,,,,,,,,,,,,,,,,,,,,,,,,,,,,,,,,,,,,,,,,,,,,,,,,,,,,,,,,,,,,,,,,,,,,,,,,,,,,,,,,,,,,,,,,,,,,,,,,,,,,,,,,,,,,,,,,,,,,,,,,,,,,,,,,,,,,,,,,,,,,,,,,,
,,,,,,6141c94201d385f32c5ad8f0,62bbf946cb01f9784ec11ccf,2022-06-29_09h04.19.593,Colour_Asymmetry_Pilot,2022.1.3,Win32,60.61340769,62bbe60bf3d75ef465d3e404,0,6,6,1,1,onethree,,,,,,,,,,,,,,,,,,,,,,,,,,,,,,,,,,,,,,,,,,,,,,,,,,,,,,,,,,,,,,,,,,,,,,,,,,,,,,,,,,,,,,,,,,,,,,,,,,,,,,,,,,,,,,,,,,,,,,,,,,,,,,,,,,,,,,,,,,,,,,,,,,,,,,,
,,,,,,6141c94201d385f32c5ad8f0,62bbf946cb01f9784ec11ccf,2022-06-29_09h04.19.593,Colour_Asymmetry_Pilot,2022.1.3,Win32,60.61340769,62bbe60bf3d75ef465d3e404,0,7,7,43,1,twofour,,,,,,,,,,,,,,,,,,,,,,,,,,,,,,,,,,,,,,,,,,,,,,,,,,,,,,,,,,,,,,,,,,,,,,,,,,,,,,,,,,,,,,,,,,,,,,,,,,,,,,,,,,,,,,,,,,,,,,,,,,,,,,,,,,,,,,,,,,,,,,,,,,,,,,,
,,,,,,6141c94201d385f32c5ad8f0,62bbf946cb01f9784ec11ccf,2022-06-29_09h04.19.593,Colour_Asymmetry_Pilot,2022.1.3,Win32,60.61340769,62bbe60bf3d75ef465d3e404,0,8,8,14,1,fourtwo,,,,,,,,,,,,,,,,,,,,,,,,,,,,,,,,,,,,,,,,,,,,,,,,,,,,,,,,,,,,,,,,,,,,,,,,,,,,,,,,,,,,,,,,,,,,,,,,,,,,,,,,,,,,,,,,,,,,,,,,,,,,,,,,,,,,,,,,,,,,,,,,,,,,,,,
,,,,,,6141c94201d385f32c5ad8f0,62bbf946cb01f9784ec11ccf,2022-06-29_09h04.19.593,Colour_Asymmetry_Pilot,2022.1.3,Win32,60.61340769,62bbe60bf3d75ef465d3e404,0,9,9,132,1,threeone,,,,,,,,,,,,,,,,,,,,,,,,,,,,,,,,,,,,,,,,,,,,,,,,,,,,,,,,,,,,,,,,,,,,,,,,,,,,,,,,,,,,,,,,,,,,,,,,,,,,,,,,,,,,,,,,,,,,,,,,,,,,,,,,,,,,,,,,,,,,,,,,,,,,,,,
,,,,,,6141c94201d385f32c5ad8f0,62bbf946cb01f9784ec11ccf,2022-06-29_09h04.19.593,Colour_Asymmetry_Pilot,2022.1.3,Win32,60.61340769,62bbe60bf3d75ef465d3e404,0,10,10,21,1,threefour,,,,,,,,,,,,,,,,,,,,,,,,,,,,,,,,,,,,,,,,,,,,,,,,,,,,,,,,,,,,,,,,,,,,,,,,,,,,,,,,,,,,,,,,,,,,,,,,,,,,,,,,,,,,,,,,,,,,,,,,,,,,,,,,,,,,,,,,,,,,,,,,,,,,,,,
,,,,,,6141c94201d385f32c5ad8f0,62bbf946cb01f9784ec11ccf,2022-06-29_09h04.19.593,Colour_Asymmetry_Pilot,2022.1.3,Win32,60.61340769,62bbe60bf3d75ef465d3e404,0,11,11,125,1,threefour,,,,,,,,,,,,,,,,,,,,,,,,,,,,,,,,,,,,,,,,,,,,,,,,,,,,,,,,,,,,,,,,,,,,,,,,,,,,,,,,,,,,,,,,,,,,,,,,,,,,,,,,,,,,,,,,,,,,,,,,,,,,,,,,,,,,,,,,,,,,,,,,,,,,,,,
,,,,,,6141c94201d385f32c5ad8f0,62bbf946cb01f9784ec11ccf,2022-06-29_09h04.19.593,Colour_Asymmetry_Pilot,2022.1.3,Win32,60.61340769,62bbe60bf3d75ef465d3e404,0,12,12,77,1,threefour,,,,,,,,,,,,,,,,,,,,,,,,,,,,,,,,,,,,,,,,,,,,,,,,,,,,,,,,,,,,,,,,,,,,,,,,,,,,,,,,,,,,,,,,,,,,,,,,,,,,,,,,,,,,,,,,,,,,,,,,,,,,,,,,,,,,,,,,,,,,,,,,,,,,,,,
,,,,,,6141c94201d385f32c5ad8f0,62bbf946cb01f9784ec11ccf,2022-06-29_09h04.19.593,Colour_Asymmetry_Pilot,2022.1.3,Win32,60.61340769,62bbe60bf3d75ef465d3e404,0,13,13,119,1,fourthree,,,,,,,,,,,,,,,,,,,,,,,,,,,,,,,,,,,,,,,,,,,,,,,,,,,,,,,,,,,,,,,,,,,,,,,,,,,,,,,,,,,,,,,,,,,,,,,,,,,,,,,,,,,,,,,,,,,,,,,,,,,,,,,,,,,,,,,,,,,,,,,,,,,,,,,
,,,,,,6141c94201d385f32c5ad8f0,62bbf946cb01f9784ec11ccf,2022-06-29_09h04.19.593,Colour_Asymmetry_Pilot,2022.1.3,Win32,60.61340769,62bbe60bf3d75ef465d3e404,0,14,14,54,1,fourtwo,,,,,,,,,,,,,,,,,,,,,,,,,,,,,,,,,,,,,,,,,,,,,,,,,,,,,,,,,,,,,,,,,,,,,,,,,,,,,,,,,,,,,,,,,,,,,,,,,,,,,,,,,,,,,,,,,,,,,,,,,,,,,,,,,,,,,,,,,,,,,,,,,,,,,,,
,,,,,,6141c94201d385f32c5ad8f0,62bbf946cb01f9784ec11ccf,2022-06-29_09h04.19.593,Colour_Asymmetry_Pilot,2022.1.3,Win32,60.61340769,62bbe60bf3d75ef465d3e404,0,15,15,136,1,onetwo,,,,,,,,,,,,,,,,,,,,,,,,,,,,,,,,,,,,,,,,,,,,,,,,,,,,,,,,,,,,,,,,,,,,,,,,,,,,,,,,,,,,,,,,,,,,,,,,,,,,,,,,,,,,,,,,,,,,,,,,,,,,,,,,,,,,,,,,,,,,,,,,,,,,,,,
,,,,,,6141c94201d385f32c5ad8f0,62bbf946cb01f9784ec11ccf,2022-06-29_09h04.19.593,Colour_Asymmetry_Pilot,2022.1.3,Win32,60.61340769,62bbe60bf3d75ef465d3e404,0,16,16,118,1,fourtwo,,,,,,,,,,,,,,,,,,,,,,,,,,,,,,,,,,,,,,,,,,,,,,,,,,,,,,,,,,,,,,,,,,,,,,,,,,,,,,,,,,,,,,,,,,,,,,,,,,,,,,,,,,,,,,,,,,,,,,,,,,,,,,,,,,,,,,,,,,,,,,,,,,,,,,,
,,,,,,6141c94201d385f32c5ad8f0,62bbf946cb01f9784ec11ccf,2022-06-29_09h04.19.593,Colour_Asymmetry_Pilot,2022.1.3,Win32,60.61340769,62bbe60bf3d75ef465d3e404,0,17,17,48,1,onetwo,,,,,,,,,,,,,,,,,,,,,,,,,,,,,,,,,,,,,,,,,,,,,,,,,,,,,,,,,,,,,,,,,,,,,,,,,,,,,,,,,,,,,,,,,,,,,,,,,,,,,,,,,,,,,,,,,,,,,,,,,,,,,,,,,,,,,,,,,,,,,,,,,,,,,,,
,,,,,,6141c94201d385f32c5ad8f0,62bbf946cb01f9784ec11ccf,2022-06-29_09h04.19.593,Colour_Asymmetry_Pilot,2022.1.3,Win32,60.61340769,62bbe60bf3d75ef465d3e404,0,18,18,113,1,onethree,,,,,,,,,,,,,,,,,,,,,,,,,,,,,,,,,,,,,,,,,,,,,,,,,,,,,,,,,,,,,,,,,,,,,,,,,,,,,,,,,,,,,,,,,,,,,,,,,,,,,,,,,,,,,,,,,,,,,,,,,,,,,,,,,,,,,,,,,,,,,,,,,,,,,,,
,,,,,,6141c94201d385f32c5ad8f0,62bbf946cb01f9784ec11ccf,2022-06-29_09h04.19.593,Colour_Asymmetry_Pilot,2022.1.3,Win32,60.61340769,62bbe60bf3d75ef465d3e404,0,19,19,89,1,onethree,,,,,,,,,,,,,,,,,,,,,,,,,,,,,,,,,,,,,,,,,,,,,,,,,,,,,,,,,,,,,,,,,,,,,,,,,,,,,,,,,,,,,,,,,,,,,,,,,,,,,,,,,,,,,,,,,,,,,,,,,,,,,,,,,,,,,,,,,,,,,,,,,,,,,,,
,,,,,,6141c94201d385f32c5ad8f0,62bbf946cb01f9784ec11ccf,2022-06-29_09h04.19.593,Colour_Asymmetry_Pilot,2022.1.3,Win32,60.61340769,62bbe60bf3d75ef465d3e404,0,20,20,94,1,fourtwo,,,,,,,,,,,,,,,,,,,,,,,,,,,,,,,,,,,,,,,,,,,,,,,,,,,,,,,,,,,,,,,,,,,,,,,,,,,,,,,,,,,,,,,,,,,,,,,,,,,,,,,,,,,,,,,,,,,,,,,,,,,,,,,,,,,,,,,,,,,,,,,,,,,,,,,
,,,,,,6141c94201d385f32c5ad8f0,62bbf946cb01f9784ec11ccf,2022-06-29_09h04.19.593,Colour_Asymmetry_Pilot,2022.1.3,Win32,60.61340769,62bbe60bf3d75ef465d3e404,0,21,21,55,1,fourthree,,,,,,,,,,,,,,,,,,,,,,,,,,,,,,,,,,,,,,,,,,,,,,,,,,,,,,,,,,,,,,,,,,,,,,,,,,,,,,,,,,,,,,,,,,,,,,,,,,,,,,,,,,,,,,,,,,,,,,,,,,,,,,,,,,,,,,,,,,,,,,,,,,,,,,,
,,,,,,6141c94201d385f32c5ad8f0,62bbf946cb01f9784ec11ccf,2022-06-29_09h04.19.593,Colour_Asymmetry_Pilot,2022.1.3,Win32,60.61340769,62bbe60bf3d75ef465d3e404,0,22,22,114,1,twoone,,,,,,,,,,,,,,,,,,,,,,,,,,,,,,,,,,,,,,,,,,,,,,,,,,,,,,,,,,,,,,,,,,,,,,,,,,,,,,,,,,,,,,,,,,,,,,,,,,,,,,,,,,,,,,,,,,,,,,,,,,,,,,,,,,,,,,,,,,,,,,,,,,,,,,,
,,,,,,6141c94201d385f32c5ad8f0,62bbf946cb01f9784ec11ccf,2022-06-29_09h04.19.593,Colour_Asymmetry_Pilot,2022.1.3,Win32,60.61340769,62bbe60bf3d75ef465d3e404,0,23,23,17,1,onethree,,,,,,,,,,,,,,,,,,,,,,,,,,,,,,,,,,,,,,,,,,,,,,,,,,,,,,,,,,,,,,,,,,,,,,,,,,,,,,,,,,,,,,,,,,,,,,,,,,,,,,,,,,,,,,,,,,,,,,,,,,,,,,,,,,,,,,,,,,,,,,,,,,,,,,,
,,,,,,6141c94201d385f32c5ad8f0,62bbf946cb01f9784ec11ccf,2022-06-29_09h04.19.593,Colour_Asymmetry_Pilot,2022.1.3,Win32,60.61340769,62bbe60bf3d75ef465d3e404,0,24,24,70,1,fourtwo,,,,,,,,,,,,,,,,,,,,,,,,,,,,,,,,,,,,,,,,,,,,,,,,,,,,,,,,,,,,,,,,,,,,,,,,,,,,,,,,,,,,,,,,,,,,,,,,,,,,,,,,,,,,,,,,,,,,,,,,,,,,,,,,,,,,,,,,,,,,,,,,,,,,,,,
,,,,,,6141c94201d385f32c5ad8f0,62bbf946cb01f9784ec11ccf,2022-06-29_09h04.19.593,Colour_Asymmetry_Pilot,2022.1.3,Win32,60.61340769,62bbe60bf3d75ef465d3e404,0,25,25,135,1,fourthree,,,,,,,,,,,,,,,,,,,,,,,,,,,,,,,,,,,,,,,,,,,,,,,,,,,,,,,,,,,,,,,,,,,,,,,,,,,,,,,,,,,,,,,,,,,,,,,,,,,,,,,,,,,,,,,,,,,,,,,,,,,,,,,,,,,,,,,,,,,,,,,,,,,,,,,
,,,,,,6141c94201d385f32c5ad8f0,62bbf946cb01f9784ec11ccf,2022-06-29_09h04.19.593,Colour_Asymmetry_Pilot,2022.1.3,Win32,60.61340769,62bbe60bf3d75ef465d3e404,0,26,26,108,1,threeone,,,,,,,,,,,,,,,,,,,,,,,,,,,,,,,,,,,,,,,,,,,,,,,,,,,,,,,,,,,,,,,,,,,,,,,,,,,,,,,,,,,,,,,,,,,,,,,,,,,,,,,,,,,,,,,,,,,,,,,,,,,,,,,,,,,,,,,,,,,,,,,,,,,,,,,
,,,,,,6141c94201d385f32c5ad8f0,62bbf946cb01f9784ec11ccf,2022-06-29_09h04.19.593,Colour_Asymmetry_Pilot,2022.1.3,Win32,60.61340769,62bbe60bf3d75ef465d3e404,0,27,27,28,1,threeone,,,,,,,,,,,,,,,,,,,,,,,,,,,,,,,,,,,,,,,,,,,,,,,,,,,,,,,,,,,,,,,,,,,,,,,,,,,,,,,,,,,,,,,,,,,,,,,,,,,,,,,,,,,,,,,,,,,,,,,,,,,,,,,,,,,,,,,,,,,,,,,,,,,,,,,
,,,,,,6141c94201d385f32c5ad8f0,62bbf946cb01f9784ec11ccf,2022-06-29_09h04.19.593,Colour_Asymmetry_Pilot,2022.1.3,Win32,60.61340769,62bbe60bf3d75ef465d3e404,0,28,28,158,1,fourtwo,,,,,,,,,,,,,,,,,,,,,,,,,,,,,,,,,,,,,,,,,,,,,,,,,,,,,,,,,,,,,,,,,,,,,,,,,,,,,,,,,,,,,,,,,,,,,,,,,,,,,,,,,,,,,,,,,,,,,,,,,,,,,,,,,,,,,,,,,,,,,,,,,,,,,,,
,,,,,,6141c94201d385f32c5ad8f0,62bbf946cb01f9784ec11ccf,2022-06-29_09h04.19.593,Colour_Asymmetry_Pilot,2022.1.3,Win32,60.61340769,62bbe60bf3d75ef465d3e404,0,29,29,64,1,onetwo,,,,,,,,,,,,,,,,,,,,,,,,,,,,,,,,,,,,,,,,,,,,,,,,,,,,,,,,,,,,,,,,,,,,,,,,,,,,,,,,,,,,,,,,,,,,,,,,,,,,,,,,,,,,,,,,,,,,,,,,,,,,,,,,,,,,,,,,,,,,,,,,,,,,,,,
,,,,,,6141c94201d385f32c5ad8f0,62bbf946cb01f9784ec11ccf,2022-06-29_09h04.19.593,Colour_Asymmetry_Pilot,2022.1.3,Win32,60.61340769,62bbe60bf3d75ef465d3e404,0,30,30,9,1,onethree,,,,,,,,,,,,,,,,,,,,,,,,,,,,,,,,,,,,,,,,,,,,,,,,,,,,,,,,,,,,,,,,,,,,,,,,,,,,,,,,,,,,,,,,,,,,,,,,,,,,,,,,,,,,,,,,,,,,,,,,,,,,,,,,,,,,,,,,,,,,,,,,,,,,,,,
,,,,,,6141c94201d385f32c5ad8f0,62bbf946cb01f9784ec11ccf,2022-06-29_09h04.19.593,Colour_Asymmetry_Pilot,2022.1.3,Win32,60.61340769,62bbe60bf3d75ef465d3e404,0,31,31,126,1,fourtwo,,,,,,,,,,,,,,,,,,,,,,,,,,,,,,,,,,,,,,,,,,,,,,,,,,,,,,,,,,,,,,,,,,,,,,,,,,,,,,,,,,,,,,,,,,,,,,,,,,,,,,,,,,,,,,,,,,,,,,,,,,,,,,,,,,,,,,,,,,,,,,,,,,,,,,,
,,,,,,6141c94201d385f32c5ad8f0,62bbf946cb01f9784ec11ccf,2022-06-29_09h04.19.593,Colour_Asymmetry_Pilot,2022.1.3,Win32,60.61340769,62bbe60bf3d75ef465d3e404,0,32,32,151,1,fourthree,,,,,,,,,,,,,,,,,,,,,,,,,,,,,,,,,,,,,,,,,,,,,,,,,,,,,,,,,,,,,,,,,,,,,,,,,,,,,,,,,,,,,,,,,,,,,,,,,,,,,,,,,,,,,,,,,,,,,,,,,,,,,,,,,,,,,,,,,,,,,,,,,,,,,,,
,,,,,,6141c94201d385f32c5ad8f0,62bbf946cb01f9784ec11ccf,2022-06-29_09h04.19.593,Colour_Asymmetry_Pilot,2022.1.3,Win32,60.61340769,62bbe60bf3d75ef465d3e404,0,33,33,81,1,onethree,,,,,,,,,,,,,,,,,,,,,,,,,,,,,,,,,,,,,,,,,,,,,,,,,,,,,,,,,,,,,,,,,,,,,,,,,,,,,,,,,,,,,,,,,,,,,,,,,,,,,,,,,,,,,,,,,,,,,,,,,,,,,,,,,,,,,,,,,,,,,,,,,,,,,,,
,,,,,,6141c94201d385f32c5ad8f0,62bbf946cb01f9784ec11ccf,2022-06-29_09h04.19.593,Colour_Asymmetry_Pilot,2022.1.3,Win32,60.61340769,62bbe60bf3d75ef465d3e404,0,34,34,141,1,threefour,,,,,,,,,,,,,,,,,,,,,,,,,,,,,,,,,,,,,,,,,,,,,,,,,,,,,,,,,,,,,,,,,,,,,,,,,,,,,,,,,,,,,,,,,,,,,,,,,,,,,,,,,,,,,,,,,,,,,,,,,,,,,,,,,,,,,,,,,,,,,,,,,,,,,,,
,,,,,,6141c94201d385f32c5ad8f0,62bbf946cb01f9784ec11ccf,2022-06-29_09h04.19.593,Colour_Asymmetry_Pilot,2022.1.3,Win32,60.61340769,62bbe60bf3d75ef465d3e404,0,35,35,22,1,fourtwo,,,,,,,,,,,,,,,,,,,,,,,,,,,,,,,,,,,,,,,,,,,,,,,,,,,,,,,,,,,,,,,,,,,,,,,,,,,,,,,,,,,,,,,,,,,,,,,,,,,,,,,,,,,,,,,,,,,,,,,,,,,,,,,,,,,,,,,,,,,,,,,,,,,,,,,
,,,,,,6141c94201d385f32c5ad8f0,62bbf946cb01f9784ec11ccf,2022-06-29_09h04.19.593,Colour_Asymmetry_Pilot,2022.1.3,Win32,60.61340769,62bbe60bf3d75ef465d3e404,0,36,36,23,1,fourthree,,,,,,,,,,,,,,,,,,,,,,,,,,,,,,,,,,,,,,,,,,,,,,,,,,,,,,,,,,,,,,,,,,,,,,,,,,,,,,,,,,,,,,,,,,,,,,,,,,,,,,,,,,,,,,,,,,,,,,,,,,,,,,,,,,,,,,,,,,,,,,,,,,,,,,,
,,,,,,6141c94201d385f32c5ad8f0,62bbf946cb01f9784ec11ccf,2022-06-29_09h04.19.593,Colour_Asymmetry_Pilot,2022.1.3,Win32,60.61340769,62bbe60bf3d75ef465d3e404,0,37,37,0,1,onetwo,,,,,,,,,,,,,,,,,,,,,,,,,,,,,,,,,,,,,,,,,,,,,,,,,,,,,,,,,,,,,,,,,,,,,,,,,,,,,,,,,,,,,,,,,,,,,,,,,,,,,,,,,,,,,,,,,,,,,,,,,,,,,,,,,,,,,,,,,,,,,,,,,,,,,,,
,,,,,,6141c94201d385f32c5ad8f0,62bbf946cb01f9784ec11ccf,2022-06-29_09h04.19.593,Colour_Asymmetry_Pilot,2022.1.3,Win32,60.61340769,62bbe60bf3d75ef465d3e404,0,38,38,109,1,threefour,,,,,,,,,,,,,,,,,,,,,,,,,,,,,,,,,,,,,,,,,,,,,,,,,,,,,,,,,,,,,,,,,,,,,,,,,,,,,,,,,,,,,,,,,,,,,,,,,,,,,,,,,,,,,,,,,,,,,,,,,,,,,,,,,,,,,,,,,,,,,,,,,,,,,,,
,,,,,,6141c94201d385f32c5ad8f0,62bbf946cb01f9784ec11ccf,2022-06-29_09h04.19.593,Colour_Asymmetry_Pilot,2022.1.3,Win32,60.61340769,62bbe60bf3d75ef465d3e404,0,39,39,124,1,threeone,,,,,,,,,,,,,,,,,,,,,,,,,,,,,,,,,,,,,,,,,,,,,,,,,,,,,,,,,,,,,,,,,,,,,,,,,,,,,,,,,,,,,,,,,,,,,,,,,,,,,,,,,,,,,,,,,,,,,,,,,,,,,,,,,,,,,,,,,,,,,,,,,,,,,,,
,,,,,,6141c94201d385f32c5ad8f0,62bbf946cb01f9784ec11ccf,2022-06-29_09h04.19.593,Colour_Asymmetry_Pilot,2022.1.3,Win32,60.61340769,62bbe60bf3d75ef465d3e404,0,40,40,27,1,twofour,,,,,,,,,,,,,,,,,,,,,,,,,,,,,,,,,,,,,,,,,,,,,,,,,,,,,,,,,,,,,,,,,,,,,,,,,,,,,,,,,,,,,,,,,,,,,,,,,,,,,,,,,,,,,,,,,,,,,,,,,,,,,,,,,,,,,,,,,,,,,,,,,,,,,,,
,,,,,,6141c94201d385f32c5ad8f0,62bbf946cb01f9784ec11ccf,2022-06-29_09h04.19.593,Colour_Asymmetry_Pilot,2022.1.3,Win32,60.61340769,62bbe60bf3d75ef465d3e404,0,41,41,4,1,threeone,,,,,,,,,,,,,,,,,,,,,,,,,,,,,,,,,,,,,,,,,,,,,,,,,,,,,,,,,,,,,,,,,,,,,,,,,,,,,,,,,,,,,,,,,,,,,,,,,,,,,,,,,,,,,,,,,,,,,,,,,,,,,,,,,,,,,,,,,,,,,,,,,,,,,,,
,,,,,,6141c94201d385f32c5ad8f0,62bbf946cb01f9784ec11ccf,2022-06-29_09h04.19.593,Colour_Asymmetry_Pilot,2022.1.3,Win32,60.61340769,62bbe60bf3d75ef465d3e404,0,42,42,24,1,onetwo,,,,,,,,,,,,,,,,,,,,,,,,,,,,,,,,,,,,,,,,,,,,,,,,,,,,,,,,,,,,,,,,,,,,,,,,,,,,,,,,,,,,,,,,,,,,,,,,,,,,,,,,,,,,,,,,,,,,,,,,,,,,,,,,,,,,,,,,,,,,,,,,,,,,,,,
,,,,,,6141c94201d385f32c5ad8f0,62bbf946cb01f9784ec11ccf,2022-06-29_09h04.19.593,Colour_Asymmetry_Pilot,2022.1.3,Win32,60.61340769,62bbe60bf3d75ef465d3e404,0,43,43,116,1,threeone,,,,,,,,,,,,,,,,,,,,,,,,,,,,,,,,,,,,,,,,,,,,,,,,,,,,,,,,,,,,,,,,,,,,,,,,,,,,,,,,,,,,,,,,,,,,,,,,,,,,,,,,,,,,,,,,,,,,,,,,,,,,,,,,,,,,,,,,,,,,,,,,,,,,,,,
,,,,,,6141c94201d385f32c5ad8f0,62bbf946cb01f9784ec11ccf,2022-06-29_09h04.19.593,Colour_Asymmetry_Pilot,2022.1.3,Win32,60.61340769,62bbe60bf3d75ef465d3e404,0,44,44,6,1,fourtwo,,,,,,,,,,,,,,,,,,,,,,,,,,,,,,,,,,,,,,,,,,,,,,,,,,,,,,,,,,,,,,,,,,,,,,,,,,,,,,,,,,,,,,,,,,,,,,,,,,,,,,,,,,,,,,,,,,,,,,,,,,,,,,,,,,,,,,,,,,,,,,,,,,,,,,,
,,,,,,6141c94201d385f32c5ad8f0,62bbf946cb01f9784ec11ccf,2022-06-29_09h04.19.593,Colour_Asymmetry_Pilot,2022.1.3,Win32,60.61340769,62bbe60bf3d75ef465d3e404,0,45,45,51,1,twofour,,,,,,,,,,,,,,,,,,,,,,,,,,,,,,,,,,,,,,,,,,,,,,,,,,,,,,,,,,,,,,,,,,,,,,,,,,,,,,,,,,,,,,,,,,,,,,,,,,,,,,,,,,,,,,,,,,,,,,,,,,,,,,,,,,,,,,,,,,,,,,,,,,,,,,,
,,,,,,6141c94201d385f32c5ad8f0,62bbf946cb01f9784ec11ccf,2022-06-29_09h04.19.593,Colour_Asymmetry_Pilot,2022.1.3,Win32,60.61340769,62bbe60bf3d75ef465d3e404,0,46,46,72,1,onetwo,,,,,,,,,,,,,,,,,,,,,,,,,,,,,,,,,,,,,,,,,,,,,,,,,,,,,,,,,,,,,,,,,,,,,,,,,,,,,,,,,,,,,,,,,,,,,,,,,,,,,,,,,,,,,,,,,,,,,,,,,,,,,,,,,,,,,,,,,,,,,,,,,,,,,,,
,,,,,,6141c94201d385f32c5ad8f0,62bbf946cb01f9784ec11ccf,2022-06-29_09h04.19.593,Colour_Asymmetry_Pilot,2022.1.3,Win32,60.61340769,62bbe60bf3d75ef465d3e404,0,47,47,90,1,twoone,,,,,,,,,,,,,,,,,,,,,,,,,,,,,,,,,,,,,,,,,,,,,,,,,,,,,,,,,,,,,,,,,,,,,,,,,,,,,,,,,,,,,,,,,,,,,,,,,,,,,,,,,,,,,,,,,,,,,,,,,,,,,,,,,,,,,,,,,,,,,,,,,,,,,,,
,,,,,,6141c94201d385f32c5ad8f0,62bbf946cb01f9784ec11ccf,2022-06-29_09h04.19.593,Colour_Asymmetry_Pilot,2022.1.3,Win32,60.61340769,62bbe60bf3d75ef465d3e404,0,48,48,49,1,onethree,,,,,,,,,,,,,,,,,,,,,,,,,,,,,,,,,,,,,,,,,,,,,,,,,,,,,,,,,,,,,,,,,,,,,,,,,,,,,,,,,,,,,,,,,,,,,,,,,,,,,,,,,,,,,,,,,,,,,,,,,,,,,,,,,,,,,,,,,,,,,,,,,,,,,,,
,,,,,,6141c94201d385f32c5ad8f0,62bbf946cb01f9784ec11ccf,2022-06-29_09h04.19.593,Colour_Asymmetry_Pilot,2022.1.3,Win32,60.61340769,62bbe60bf3d75ef465d3e404,0,49,49,38,1,fourtwo,,,,,,,,,,,,,,,,,,,,,,,,,,,,,,,,,,,,,,,,,,,,,,,,,,,,,,,,,,,,,,,,,,,,,,,,,,,,,,,,,,,,,,,,,,,,,,,,,,,,,,,,,,,,,,,,,,,,,,,,,,,,,,,,,,,,,,,,,,,,,,,,,,,,,,,
,,,,,,6141c94201d385f32c5ad8f0,62bbf946cb01f9784ec11ccf,2022-06-29_09h04.19.593,Colour_Asymmetry_Pilot,2022.1.3,Win32,60.61340769,62bbe60bf3d75ef465d3e404,0,50,50,88,1,onetwo,,,,,,,,,,,,,,,,,,,,,,,,,,,,,,,,,,,,,,,,,,,,,,,,,,,,,,,,,,,,,,,,,,,,,,,,,,,,,,,,,,,,,,,,,,,,,,,,,,,,,,,,,,,,,,,,,,,,,,,,,,,,,,,,,,,,,,,,,,,,,,,,,,,,,,,
,,,,,,6141c94201d385f32c5ad8f0,62bbf946cb01f9784ec11ccf,2022-06-29_09h04.19.593,Colour_Asymmetry_Pilot,2022.1.3,Win32,60.61340769,62bbe60bf3d75ef465d3e404,0,51,51,142,1,fourtwo,,,,,,,,,,,,,,,,,,,,,,,,,,,,,,,,,,,,,,,,,,,,,,,,,,,,,,,,,,,,,,,,,,,,,,,,,,,,,,,,,,,,,,,,,,,,,,,,,,,,,,,,,,,,,,,,,,,,,,,,,,,,,,,,,,,,,,,,,,,,,,,,,,,,,,,
,,,,,,6141c94201d385f32c5ad8f0,62bbf946cb01f9784ec11ccf,2022-06-29_09h04.19.593,Colour_Asymmetry_Pilot,2022.1.3,Win32,60.61340769,62bbe60bf3d75ef465d3e404,0,52,52,79,1,fourthree,,,,,,,,,,,,,,,,,,,,,,,,,,,,,,,,,,,,,,,,,,,,,,,,,,,,,,,,,,,,,,,,,,,,,,,,,,,,,,,,,,,,,,,,,,,,,,,,,,,,,,,,,,,,,,,,,,,,,,,,,,,,,,,,,,,,,,,,,,,,,,,,,,,,,,,
,,,,,,6141c94201d385f32c5ad8f0,62bbf946cb01f9784ec11ccf,2022-06-29_09h04.19.593,Colour_Asymmetry_Pilot,2022.1.3,Win32,60.61340769,62bbe60bf3d75ef465d3e404,0,53,53,15,1,fourthree,,,,,,,,,,,,,,,,,,,,,,,,,,,,,,,,,,,,,,,,,,,,,,,,,,,,,,,,,,,,,,,,,,,,,,,,,,,,,,,,,,,,,,,,,,,,,,,,,,,,,,,,,,,,,,,,,,,,,,,,,,,,,,,,,,,,,,,,,,,,,,,,,,,,,,,
,,,,,,6141c94201d385f32c5ad8f0,62bbf946cb01f9784ec11ccf,2022-06-29_09h04.19.593,Colour_Asymmetry_Pilot,2022.1.3,Win32,60.61340769,62bbe60bf3d75ef465d3e404,0,54,54,92,1,threeone,,,,,,,,,,,,,,,,,,,,,,,,,,,,,,,,,,,,,,,,,,,,,,,,,,,,,,,,,,,,,,,,,,,,,,,,,,,,,,,,,,,,,,,,,,,,,,,,,,,,,,,,,,,,,,,,,,,,,,,,,,,,,,,,,,,,,,,,,,,,,,,,,,,,,,,
,,,,,,6141c94201d385f32c5ad8f0,62bbf946cb01f9784ec11ccf,2022-06-29_09h04.19.593,Colour_Asymmetry_Pilot,2022.1.3,Win32,60.61340769,62bbe60bf3d75ef465d3e404,0,55,55,122,1,twoone,,,,,,,,,,,,,,,,,,,,,,,,,,,,,,,,,,,,,,,,,,,,,,,,,,,,,,,,,,,,,,,,,,,,,,,,,,,,,,,,,,,,,,,,,,,,,,,,,,,,,,,,,,,,,,,,,,,,,,,,,,,,,,,,,,,,,,,,,,,,,,,,,,,,,,,
,,,,,,6141c94201d385f32c5ad8f0,62bbf946cb01f9784ec11ccf,2022-06-29_09h04.19.593,Colour_Asymmetry_Pilot,2022.1.3,Win32,60.61340769,62bbe60bf3d75ef465d3e404,0,56,56,76,1,threeone,,,,,,,,,,,,,,,,,,,,,,,,,,,,,,,,,,,,,,,,,,,,,,,,,,,,,,,,,,,,,,,,,,,,,,,,,,,,,,,,,,,,,,,,,,,,,,,,,,,,,,,,,,,,,,,,,,,,,,,,,,,,,,,,,,,,,,,,,,,,,,,,,,,,,,,
,,,,,,6141c94201d385f32c5ad8f0,62bbf946cb01f9784ec11ccf,2022-06-29_09h04.19.593,Colour_Asymmetry_Pilot,2022.1.3,Win32,60.61340769,62bbe60bf3d75ef465d3e404,0,57,57,59,1,twofour,,,,,,,,,,,,,,,,,,,,,,,,,,,,,,,,,,,,,,,,,,,,,,,,,,,,,,,,,,,,,,,,,,,,,,,,,,,,,,,,,,,,,,,,,,,,,,,,,,,,,,,,,,,,,,,,,,,,,,,,,,,,,,,,,,,,,,,,,,,,,,,,,,,,,,,
,,,,,,6141c94201d385f32c5ad8f0,62bbf946cb01f9784ec11ccf,2022-06-29_09h04.19.593,Colour_Asymmetry_Pilot,2022.1.3,Win32,60.61340769,62bbe60bf3d75ef465d3e404,0,58,58,63,1,fourthree,,,,,,,,,,,,,,,,,,,,,,,,,,,,,,,,,,,,,,,,,,,,,,,,,,,,,,,,,,,,,,,,,,,,,,,,,,,,,,,,,,,,,,,,,,,,,,,,,,,,,,,,,,,,,,,,,,,,,,,,,,,,,,,,,,,,,,,,,,,,,,,,,,,,,,,
,,,,,,6141c94201d385f32c5ad8f0,62bbf946cb01f9784ec11ccf,2022-06-29_09h04.19.593,Colour_Asymmetry_Pilot,2022.1.3,Win32,60.61340769,62bbe60bf3d75ef465d3e404,0,59,59,47,1,fourthree,,,,,,,,,,,,,,,,,,,,,,,,,,,,,,,,,,,,,,,,,,,,,,,,,,,,,,,,,,,,,,,,,,,,,,,,,,,,,,,,,,,,,,,,,,,,,,,,,,,,,,,,,,,,,,,,,,,,,,,,,,,,,,,,,,,,,,,,,,,,,,,,,,,,,,,
,,,,,,6141c94201d385f32c5ad8f0,62bbf946cb01f9784ec11ccf,2022-06-29_09h04.19.593,Colour_Asymmetry_Pilot,2022.1.3,Win32,60.61340769,62bbe60bf3d75ef465d3e404,0,60,60,123,1,twofour,,,,,,,,,,,,,,,,,,,,,,,,,,,,,,,,,,,,,,,,,,,,,,,,,,,,,,,,,,,,,,,,,,,,,,,,,,,,,,,,,,,,,,,,,,,,,,,,,,,,,,,,,,,,,,,,,,,,,,,,,,,,,,,,,,,,,,,,,,,,,,,,,,,,,,,
,,,,,,6141c94201d385f32c5ad8f0,62bbf946cb01f9784ec11ccf,2022-06-29_09h04.19.593,Colour_Asymmetry_Pilot,2022.1.3,Win32,60.61340769,62bbe60bf3d75ef465d3e404,0,61,61,16,1,onetwo,,,,,,,,,,,,,,,,,,,,,,,,,,,,,,,,,,,,,,,,,,,,,,,,,,,,,,,,,,,,,,,,,,,,,,,,,,,,,,,,,,,,,,,,,,,,,,,,,,,,,,,,,,,,,,,,,,,,,,,,,,,,,,,,,,,,,,,,,,,,,,,,,,,,,,,
,,,,,,6141c94201d385f32c5ad8f0,62bbf946cb01f9784ec11ccf,2022-06-29_09h04.19.593,Colour_Asymmetry_Pilot,2022.1.3,Win32,60.61340769,62bbe60bf3d75ef465d3e404,0,62,62,99,1,twofour,,,,,,,,,,,,,,,,,,,,,,,,,,,,,,,,,,,,,,,,,,,,,,,,,,,,,,,,,,,,,,,,,,,,,,,,,,,,,,,,,,,,,,,,,,,,,,,,,,,,,,,,,,,,,,,,,,,,,,,,,,,,,,,,,,,,,,,,,,,,,,,,,,,,,,,
,,,,,,6141c94201d385f32c5ad8f0,62bbf946cb01f9784ec11ccf,2022-06-29_09h04.19.593,Colour_Asymmetry_Pilot,2022.1.3,Win32,60.61340769,62bbe60bf3d75ef465d3e404,0,63,63,41,1,onethree,,,,,,,,,,,,,,,,,,,,,,,,,,,,,,,,,,,,,,,,,,,,,,,,,,,,,,,,,,,,,,,,,,,,,,,,,,,,,,,,,,,,,,,,,,,,,,,,,,,,,,,,,,,,,,,,,,,,,,,,,,,,,,,,,,,,,,,,,,,,,,,,,,,,,,,
,,,,,,6141c94201d385f32c5ad8f0,62bbf946cb01f9784ec11ccf,2022-06-29_09h04.19.593,Colour_Asymmetry_Pilot,2022.1.3,Win32,60.61340769,62bbe60bf3d75ef465d3e404,0,64,64,13,1,threefour,,,,,,,,,,,,,,,,,,,,,,,,,,,,,,,,,,,,,,,,,,,,,,,,,,,,,,,,,,,,,,,,,,,,,,,,,,,,,,,,,,,,,,,,,,,,,,,,,,,,,,,,,,,,,,,,,,,,,,,,,,,,,,,,,,,,,,,,,,,,,,,,,,,,,,,
,,,,,,6141c94201d385f32c5ad8f0,62bbf946cb01f9784ec11ccf,2022-06-29_09h04.19.593,Colour_Asymmetry_Pilot,2022.1.3,Win32,60.61340769,62bbe60bf3d75ef465d3e404,0,65,65,58,1,twoone,,,,,,,,,,,,,,,,,,,,,,,,,,,,,,,,,,,,,,,,,,,,,,,,,,,,,,,,,,,,,,,,,,,,,,,,,,,,,,,,,,,,,,,,,,,,,,,,,,,,,,,,,,,,,,,,,,,,,,,,,,,,,,,,,,,,,,,,,,,,,,,,,,,,,,,
,,,,,,6141c94201d385f32c5ad8f0,62bbf946cb01f9784ec11ccf,2022-06-29_09h04.19.593,Colour_Asymmetry_Pilot,2022.1.3,Win32,60.61340769,62bbe60bf3d75ef465d3e404,0,66,66,97,1,onethree,,,,,,,,,,,,,,,,,,,,,,,,,,,,,,,,,,,,,,,,,,,,,,,,,,,,,,,,,,,,,,,,,,,,,,,,,,,,,,,,,,,,,,,,,,,,,,,,,,,,,,,,,,,,,,,,,,,,,,,,,,,,,,,,,,,,,,,,,,,,,,,,,,,,,,,
,,,,,,6141c94201d385f32c5ad8f0,62bbf946cb01f9784ec11ccf,2022-06-29_09h04.19.593,Colour_Asymmetry_Pilot,2022.1.3,Win32,60.61340769,62bbe60bf3d75ef465d3e404,0,67,67,95,1,fourthree,,,,,,,,,,,,,,,,,,,,,,,,,,,,,,,,,,,,,,,,,,,,,,,,,,,,,,,,,,,,,,,,,,,,,,,,,,,,,,,,,,,,,,,,,,,,,,,,,,,,,,,,,,,,,,,,,,,,,,,,,,,,,,,,,,,,,,,,,,,,,,,,,,,,,,,
,,,,,,6141c94201d385f32c5ad8f0,62bbf946cb01f9784ec11ccf,2022-06-29_09h04.19.593,Colour_Asymmetry_Pilot,2022.1.3,Win32,60.61340769,62bbe60bf3d75ef465d3e404,0,68,68,46,1,fourtwo,,,,,,,,,,,,,,,,,,,,,,,,,,,,,,,,,,,,,,,,,,,,,,,,,,,,,,,,,,,,,,,,,,,,,,,,,,,,,,,,,,,,,,,,,,,,,,,,,,,,,,,,,,,,,,,,,,,,,,,,,,,,,,,,,,,,,,,,,,,,,,,,,,,,,,,
,,,,,,6141c94201d385f32c5ad8f0,62bbf946cb01f9784ec11ccf,2022-06-29_09h04.19.593,Colour_Asymmetry_Pilot,2022.1.3,Win32,60.61340769,62bbe60bf3d75ef465d3e404,0,69,69,155,1,twofour,,,,,,,,,,,,,,,,,,,,,,,,,,,,,,,,,,,,,,,,,,,,,,,,,,,,,,,,,,,,,,,,,,,,,,,,,,,,,,,,,,,,,,,,,,,,,,,,,,,,,,,,,,,,,,,,,,,,,,,,,,,,,,,,,,,,,,,,,,,,,,,,,,,,,,,
,,,,,,6141c94201d385f32c5ad8f0,62bbf946cb01f9784ec11ccf,2022-06-29_09h04.19.593,Colour_Asymmetry_Pilot,2022.1.3,Win32,60.61340769,62bbe60bf3d75ef465d3e404,0,70,70,42,1,twoone,,,,,,,,,,,,,,,,,,,,,,,,,,,,,,,,,,,,,,,,,,,,,,,,,,,,,,,,,,,,,,,,,,,,,,,,,,,,,,,,,,,,,,,,,,,,,,,,,,,,,,,,,,,,,,,,,,,,,,,,,,,,,,,,,,,,,,,,,,,,,,,,,,,,,,,
,,,,,,6141c94201d385f32c5ad8f0,62bbf946cb01f9784ec11ccf,2022-06-29_09h04.19.593,Colour_Asymmetry_Pilot,2022.1.3,Win32,60.61340769,62bbe60bf3d75ef465d3e404,0,71,71,96,1,onetwo,,,,,,,,,,,,,,,,,,,,,,,,,,,,,,,,,,,,,,,,,,,,,,,,,,,,,,,,,,,,,,,,,,,,,,,,,,,,,,,,,,,,,,,,,,,,,,,,,,,,,,,,,,,,,,,,,,,,,,,,,,,,,,,,,,,,,,,,,,,,,,,,,,,,,,,
,,,,,,6141c94201d385f32c5ad8f0,62bbf946cb01f9784ec11ccf,2022-06-29_09h04.19.593,Colour_Asymmetry_Pilot,2022.1.3,Win32,60.61340769,62bbe60bf3d75ef465d3e404,0,72,72,50,1,twoone,,,,,,,,,,,,,,,,,,,,,,,,,,,,,,,,,,,,,,,,,,,,,,,,,,,,,,,,,,,,,,,,,,,,,,,,,,,,,,,,,,,,,,,,,,,,,,,,,,,,,,,,,,,,,,,,,,,,,,,,,,,,,,,,,,,,,,,,,,,,,,,,,,,,,,,
,,,,,,6141c94201d385f32c5ad8f0,62bbf946cb01f9784ec11ccf,2022-06-29_09h04.19.593,Colour_Asymmetry_Pilot,2022.1.3,Win32,60.61340769,62bbe60bf3d75ef465d3e404,0,73,73,110,1,fourtwo,,,,,,,,,,,,,,,,,,,,,,,,,,,,,,,,,,,,,,,,,,,,,,,,,,,,,,,,,,,,,,,,,,,,,,,,,,,,,,,,,,,,,,,,,,,,,,,,,,,,,,,,,,,,,,,,,,,,,,,,,,,,,,,,,,,,,,,,,,,,,,,,,,,,,,,
,,,,,,6141c94201d385f32c5ad8f0,62bbf946cb01f9784ec11ccf,2022-06-29_09h04.19.593,Colour_Asymmetry_Pilot,2022.1.3,Win32,60.61340769,62bbe60bf3d75ef465d3e404,0,74,74,139,1,twofour,,,,,,,,,,,,,,,,,,,,,,,,,,,,,,,,,,,,,,,,,,,,,,,,,,,,,,,,,,,,,,,,,,,,,,,,,,,,,,,,,,,,,,,,,,,,,,,,,,,,,,,,,,,,,,,,,,,,,,,,,,,,,,,,,,,,,,,,,,,,,,,,,,,,,,,
,,,,,,6141c94201d385f32c5ad8f0,62bbf946cb01f9784ec11ccf,2022-06-29_09h04.19.593,Colour_Asymmetry_Pilot,2022.1.3,Win32,60.61340769,62bbe60bf3d75ef465d3e404,0,75,75,18,1,twoone,,,,,,,,,,,,,,,,,,,,,,,,,,,,,,,,,,,,,,,,,,,,,,,,,,,,,,,,,,,,,,,,,,,,,,,,,,,,,,,,,,,,,,,,,,,,,,,,,,,,,,,,,,,,,,,,,,,,,,,,,,,,,,,,,,,,,,,,,,,,,,,,,,,,,,,
,,,,,,6141c94201d385f32c5ad8f0,62bbf946cb01f9784ec11ccf,2022-06-29_09h04.19.593,Colour_Asymmetry_Pilot,2022.1.3,Win32,60.61340769,62bbe60bf3d75ef465d3e404,0,76,76,35,1,twofour,,,,,,,,,,,,,,,,,,,,,,,,,,,,,,,,,,,,,,,,,,,,,,,,,,,,,,,,,,,,,,,,,,,,,,,,,,,,,,,,,,,,,,,,,,,,,,,,,,,,,,,,,,,,,,,,,,,,,,,,,,,,,,,,,,,,,,,,,,,,,,,,,,,,,,,
,,,,,,6141c94201d385f32c5ad8f0,62bbf946cb01f9784ec11ccf,2022-06-29_09h04.19.593,Colour_Asymmetry_Pilot,2022.1.3,Win32,60.61340769,62bbe60bf3d75ef465d3e404,0,77,77,73,1,onethree,,,,,,,,,,,,,,,,,,,,,,,,,,,,,,,,,,,,,,,,,,,,,,,,,,,,,,,,,,,,,,,,,,,,,,,,,,,,,,,,,,,,,,,,,,,,,,,,,,,,,,,,,,,,,,,,,,,,,,,,,,,,,,,,,,,,,,,,,,,,,,,,,,,,,,,
,,,,,,6141c94201d385f32c5ad8f0,62bbf946cb01f9784ec11ccf,2022-06-29_09h04.19.593,Colour_Asymmetry_Pilot,2022.1.3,Win32,60.61340769,62bbe60bf3d75ef465d3e404,0,78,78,66,1,twoone,,,,,,,,,,,,,,,,,,,,,,,,,,,,,,,,,,,,,,,,,,,,,,,,,,,,,,,,,,,,,,,,,,,,,,,,,,,,,,,,,,,,,,,,,,,,,,,,,,,,,,,,,,,,,,,,,,,,,,,,,,,,,,,,,,,,,,,,,,,,,,,,,,,,,,,
,,,,,,6141c94201d385f32c5ad8f0,62bbf946cb01f9784ec11ccf,2022-06-29_09h04.19.593,Colour_Asymmetry_Pilot,2022.1.3,Win32,60.61340769,62bbe60bf3d75ef465d3e404,0,79,79,71,1,fourthree,,,,,,,,,,,,,,,,,,,,,,,,,,,,,,,,,,,,,,,,,,,,,,,,,,,,,,,,,,,,,,,,,,,,,,,,,,,,,,,,,,,,,,,,,,,,,,,,,,,,,,,,,,,,,,,,,,,,,,,,,,,,,,,,,,,,,,,,,,,,,,,,,,,,,,,
,,,,,,6141c94201d385f32c5ad8f0,62bbf946cb01f9784ec11ccf,2022-06-29_09h04.19.593,Colour_Asymmetry_Pilot,2022.1.3,Win32,60.61340769,62bbe60bf3d75ef465d3e404,0,80,80,82,1,twoone,,,,,,,,,,,,,,,,,,,,,,,,,,,,,,,,,,,,,,,,,,,,,,,,,,,,,,,,,,,,,,,,,,,,,,,,,,,,,,,,,,,,,,,,,,,,,,,,,,,,,,,,,,,,,,,,,,,,,,,,,,,,,,,,,,,,,,,,,,,,,,,,,,,,,,,
,,,,,,6141c94201d385f32c5ad8f0,62bbf946cb01f9784ec11ccf,2022-06-29_09h04.19.593,Colour_Asymmetry_Pilot,2022.1.3,Win32,60.61340769,62bbe60bf3d75ef465d3e404,0,81,81,84,1,threeone,,,,,,,,,,,,,,,,,,,,,,,,,,,,,,,,,,,,,,,,,,,,,,,,,,,,,,,,,,,,,,,,,,,,,,,,,,,,,,,,,,,,,,,,,,,,,,,,,,,,,,,,,,,,,,,,,,,,,,,,,,,,,,,,,,,,,,,,,,,,,,,,,,,,,,,
,,,,,,6141c94201d385f32c5ad8f0,62bbf946cb01f9784ec11ccf,2022-06-29_09h04.19.593,Colour_Asymmetry_Pilot,2022.1.3,Win32,60.61340769,62bbe60bf3d75ef465d3e404,0,82,82,98,1,twoone,,,,,,,,,,,,,,,,,,,,,,,,,,,,,,,,,,,,,,,,,,,,,,,,,,,,,,,,,,,,,,,,,,,,,,,,,,,,,,,,,,,,,,,,,,,,,,,,,,,,,,,,,,,,,,,,,,,,,,,,,,,,,,,,,,,,,,,,,,,,,,,,,,,,,,,
,,,,,,6141c94201d385f32c5ad8f0,62bbf946cb01f9784ec11ccf,2022-06-29_09h04.19.593,Colour_Asymmetry_Pilot,2022.1.3,Win32,60.61340769,62bbe60bf3d75ef465d3e404,0,83,83,56,1,onetwo,,,,,,,,,,,,,,,,,,,,,,,,,,,,,,,,,,,,,,,,,,,,,,,,,,,,,,,,,,,,,,,,,,,,,,,,,,,,,,,,,,,,,,,,,,,,,,,,,,,,,,,,,,,,,,,,,,,,,,,,,,,,,,,,,,,,,,,,,,,,,,,,,,,,,,,
,,,,,,6141c94201d385f32c5ad8f0,62bbf946cb01f9784ec11ccf,2022-06-29_09h04.19.593,Colour_Asymmetry_Pilot,2022.1.3,Win32,60.61340769,62bbe60bf3d75ef465d3e404,0,84,84,37,1,threefour,,,,,,,,,,,,,,,,,,,,,,,,,,,,,,,,,,,,,,,,,,,,,,,,,,,,,,,,,,,,,,,,,,,,,,,,,,,,,,,,,,,,,,,,,,,,,,,,,,,,,,,,,,,,,,,,,,,,,,,,,,,,,,,,,,,,,,,,,,,,,,,,,,,,,,,
,,,,,,6141c94201d385f32c5ad8f0,62bbf946cb01f9784ec11ccf,2022-06-29_09h04.19.593,Colour_Asymmetry_Pilot,2022.1.3,Win32,60.61340769,62bbe60bf3d75ef465d3e404,0,85,85,67,1,twofour,,,,,,,,,,,,,,,,,,,,,,,,,,,,,,,,,,,,,,,,,,,,,,,,,,,,,,,,,,,,,,,,,,,,,,,,,,,,,,,,,,,,,,,,,,,,,,,,,,,,,,,,,,,,,,,,,,,,,,,,,,,,,,,,,,,,,,,,,,,,,,,,,,,,,,,
,,,,,,6141c94201d385f32c5ad8f0,62bbf946cb01f9784ec11ccf,2022-06-29_09h04.19.593,Colour_Asymmetry_Pilot,2022.1.3,Win32,60.61340769,62bbe60bf3d75ef465d3e404,0,86,86,146,1,twoone,,,,,,,,,,,,,,,,,,,,,,,,,,,,,,,,,,,,,,,,,,,,,,,,,,,,,,,,,,,,,,,,,,,,,,,,,,,,,,,,,,,,,,,,,,,,,,,,,,,,,,,,,,,,,,,,,,,,,,,,,,,,,,,,,,,,,,,,,,,,,,,,,,,,,,,
,,,,,,6141c94201d385f32c5ad8f0,62bbf946cb01f9784ec11ccf,2022-06-29_09h04.19.593,Colour_Asymmetry_Pilot,2022.1.3,Win32,60.61340769,62bbe60bf3d75ef465d3e404,0,87,87,74,1,twoone,,,,,,,,,,,,,,,,,,,,,,,,,,,,,,,,,,,,,,,,,,,,,,,,,,,,,,,,,,,,,,,,,,,,,,,,,,,,,,,,,,,,,,,,,,,,,,,,,,,,,,,,,,,,,,,,,,,,,,,,,,,,,,,,,,,,,,,,,,,,,,,,,,,,,,,
,,,,,,6141c94201d385f32c5ad8f0,62bbf946cb01f9784ec11ccf,2022-06-29_09h04.19.593,Colour_Asymmetry_Pilot,2022.1.3,Win32,60.61340769,62bbe60bf3d75ef465d3e404,0,88,88,26,1,twoone,,,,,,,,,,,,,,,,,,,,,,,,,,,,,,,,,,,,,,,,,,,,,,,,,,,,,,,,,,,,,,,,,,,,,,,,,,,,,,,,,,,,,,,,,,,,,,,,,,,,,,,,,,,,,,,,,,,,,,,,,,,,,,,,,,,,,,,,,,,,,,,,,,,,,,,
,,,,,,6141c94201d385f32c5ad8f0,62bbf946cb01f9784ec11ccf,2022-06-29_09h04.19.593,Colour_Asymmetry_Pilot,2022.1.3,Win32,60.61340769,62bbe60bf3d75ef465d3e404,0,89,89,144,1,onetwo,,,,,,,,,,,,,,,,,,,,,,,,,,,,,,,,,,,,,,,,,,,,,,,,,,,,,,,,,,,,,,,,,,,,,,,,,,,,,,,,,,,,,,,,,,,,,,,,,,,,,,,,,,,,,,,,,,,,,,,,,,,,,,,,,,,,,,,,,,,,,,,,,,,,,,,
,,,,,,6141c94201d385f32c5ad8f0,62bbf946cb01f9784ec11ccf,2022-06-29_09h04.19.593,Colour_Asymmetry_Pilot,2022.1.3,Win32,60.61340769,62bbe60bf3d75ef465d3e404,0,90,90,112,1,onetwo,,,,,,,,,,,,,,,,,,,,,,,,,,,,,,,,,,,,,,,,,,,,,,,,,,,,,,,,,,,,,,,,,,,,,,,,,,,,,,,,,,,,,,,,,,,,,,,,,,,,,,,,,,,,,,,,,,,,,,,,,,,,,,,,,,,,,,,,,,,,,,,,,,,,,,,
,,,,,,6141c94201d385f32c5ad8f0,62bbf946cb01f9784ec11ccf,2022-06-29_09h04.19.593,Colour_Asymmetry_Pilot,2022.1.3,Win32,60.61340769,62bbe60bf3d75ef465d3e404,0,91,91,3,1,twofour,,,,,,,,,,,,,,,,,,,,,,,,,,,,,,,,,,,,,,,,,,,,,,,,,,,,,,,,,,,,,,,,,,,,,,,,,,,,,,,,,,,,,,,,,,,,,,,,,,,,,,,,,,,,,,,,,,,,,,,,,,,,,,,,,,,,,,,,,,,,,,,,,,,,,,,
,,,,,,6141c94201d385f32c5ad8f0,62bbf946cb01f9784ec11ccf,2022-06-29_09h04.19.593,Colour_Asymmetry_Pilot,2022.1.3,Win32,60.61340769,62bbe60bf3d75ef465d3e404,0,92,92,160,1,onetwo,,,,,,,,,,,,,,,,,,,,,,,,,,,,,,,,,,,,,,,,,,,,,,,,,,,,,,,,,,,,,,,,,,,,,,,,,,,,,,,,,,,,,,,,,,,,,,,,,,,,,,,,,,,,,,,,,,,,,,,,,,,,,,,,,,,,,,,,,,,,,,,,,,,,,,,
,,,,,,6141c94201d385f32c5ad8f0,62bbf946cb01f9784ec11ccf,2022-06-29_09h04.19.593,Colour_Asymmetry_Pilot,2022.1.3,Win32,60.61340769,62bbe60bf3d75ef465d3e404,0,93,93,148,1,threeone,,,,,,,,,,,,,,,,,,,,,,,,,,,,,,,,,,,,,,,,,,,,,,,,,,,,,,,,,,,,,,,,,,,,,,,,,,,,,,,,,,,,,,,,,,,,,,,,,,,,,,,,,,,,,,,,,,,,,,,,,,,,,,,,,,,,,,,,,,,,,,,,,,,,,,,
,,,,,,6141c94201d385f32c5ad8f0,62bbf946cb01f9784ec11ccf,2022-06-29_09h04.19.593,Colour_Asymmetry_Pilot,2022.1.3,Win32,60.61340769,62bbe60bf3d75ef465d3e404,0,94,94,68,1,threeone,,,,,,,,,,,,,,,,,,,,,,,,,,,,,,,,,,,,,,,,,,,,,,,,,,,,,,,,,,,,,,,,,,,,,,,,,,,,,,,,,,,,,,,,,,,,,,,,,,,,,,,,,,,,,,,,,,,,,,,,,,,,,,,,,,,,,,,,,,,,,,,,,,,,,,,
,,,,,,6141c94201d385f32c5ad8f0,62bbf946cb01f9784ec11ccf,2022-06-29_09h04.19.593,Colour_Asymmetry_Pilot,2022.1.3,Win32,60.61340769,62bbe60bf3d75ef465d3e404,0,95,95,130,1,twoone,,,,,,,,,,,,,,,,,,,,,,,,,,,,,,,,,,,,,,,,,,,,,,,,,,,,,,,,,,,,,,,,,,,,,,,,,,,,,,,,,,,,,,,,,,,,,,,,,,,,,,,,,,,,,,,,,,,,,,,,,,,,,,,,,,,,,,,,,,,,,,,,,,,,,,,
,,,,,,6141c94201d385f32c5ad8f0,62bbf946cb01f9784ec11ccf,2022-06-29_09h04.19.593,Colour_Asymmetry_Pilot,2022.1.3,Win32,60.61340769,62bbe60bf3d75ef465d3e404,0,96,96,39,1,fourthree,,,,,,,,,,,,,,,,,,,,,,,,,,,,,,,,,,,,,,,,,,,,,,,,,,,,,,,,,,,,,,,,,,,,,,,,,,,,,,,,,,,,,,,,,,,,,,,,,,,,,,,,,,,,,,,,,,,,,,,,,,,,,,,,,,,,,,,,,,,,,,,,,,,,,,,
,,,,,,6141c94201d385f32c5ad8f0,62bbf946cb01f9784ec11ccf,2022-06-29_09h04.19.593,Colour_Asymmetry_Pilot,2022.1.3,Win32,60.61340769,62bbe60bf3d75ef465d3e404,0,97,97,115,1,twofour,,,,,,,,,,,,,,,,,,,,,,,,,,,,,,,,,,,,,,,,,,,,,,,,,,,,,,,,,,,,,,,,,,,,,,,,,,,,,,,,,,,,,,,,,,,,,,,,,,,,,,,,,,,,,,,,,,,,,,,,,,,,,,,,,,,,,,,,,,,,,,,,,,,,,,,
,,,,,,6141c94201d385f32c5ad8f0,62bbf946cb01f9784ec11ccf,2022-06-29_09h04.19.593,Colour_Asymmetry_Pilot,2022.1.3,Win32,60.61340769,62bbe60bf3d75ef465d3e404,0,98,98,102,1,fourtwo,,,,,,,,,,,,,,,,,,,,,,,,,,,,,,,,,,,,,,,,,,,,,,,,,,,,,,,,,,,,,,,,,,,,,,,,,,,,,,,,,,,,,,,,,,,,,,,,,,,,,,,,,,,,,,,,,,,,,,,,,,,,,,,,,,,,,,,,,,,,,,,,,,,,,,,
,,,,,,6141c94201d385f32c5ad8f0,62bbf946cb01f9784ec11ccf,2022-06-29_09h04.19.593,Colour_Asymmetry_Pilot,2022.1.3,Win32,60.61340769,62bbe60bf3d75ef465d3e404,0,99,99,121,1,onethree,,,,,,,,,,,,,,,,,,,,,,,,,,,,,,,,,,,,,,,,,,,,,,,,,,,,,,,,,,,,,,,,,,,,,,,,,,,,,,,,,,,,,,,,,,,,,,,,,,,,,,,,,,,,,,,,,,,,,,,,,,,,,,,,,,,,,,,,,,,,,,,,,,,,,,,
,,,,,,6141c94201d385f32c5ad8f0,62bbf946cb01f9784ec11ccf,2022-06-29_09h04.19.593,Colour_Asymmetry_Pilot,2022.1.3,Win32,60.61340769,62bbe60bf3d75ef465d3e404,0,100,100,80,1,onetwo,,,,,,,,,,,,,,,,,,,,,,,,,,,,,,,,,,,,,,,,,,,,,,,,,,,,,,,,,,,,,,,,,,,,,,,,,,,,,,,,,,,,,,,,,,,,,,,,,,,,,,,,,,,,,,,,,,,,,,,,,,,,,,,,,,,,,,,,,,,,,,,,,,,,,,,
,,,,,,6141c94201d385f32c5ad8f0,62bbf946cb01f9784ec11ccf,2022-06-29_09h04.19.593,Colour_Asymmetry_Pilot,2022.1.3,Win32,60.61340769,62bbe60bf3d75ef465d3e404,0,101,101,36,1,threeone,,,,,,,,,,,,,,,,,,,,,,,,,,,,,,,,,,,,,,,,,,,,,,,,,,,,,,,,,,,,,,,,,,,,,,,,,,,,,,,,,,,,,,,,,,,,,,,,,,,,,,,,,,,,,,,,,,,,,,,,,,,,,,,,,,,,,,,,,,,,,,,,,,,,,,,
,,,,,,6141c94201d385f32c5ad8f0,62bbf946cb01f9784ec11ccf,2022-06-29_09h04.19.593,Colour_Asymmetry_Pilot,2022.1.3,Win32,60.61340769,62bbe60bf3d75ef465d3e404,0,102,102,83,1,twofour,,,,,,,,,,,,,,,,,,,,,,,,,,,,,,,,,,,,,,,,,,,,,,,,,,,,,,,,,,,,,,,,,,,,,,,,,,,,,,,,,,,,,,,,,,,,,,,,,,,,,,,,,,,,,,,,,,,,,,,,,,,,,,,,,,,,,,,,,,,,,,,,,,,,,,,
,,,,,,6141c94201d385f32c5ad8f0,62bbf946cb01f9784ec11ccf,2022-06-29_09h04.19.593,Colour_Asymmetry_Pilot,2022.1.3,Win32,60.61340769,62bbe60bf3d75ef465d3e404,0,103,103,91,1,twofour,,,,,,,,,,,,,,,,,,,,,,,,,,,,,,,,,,,,,,,,,,,,,,,,,,,,,,,,,,,,,,,,,,,,,,,,,,,,,,,,,,,,,,,,,,,,,,,,,,,,,,,,,,,,,,,,,,,,,,,,,,,,,,,,,,,,,,,,,,,,,,,,,,,,,,,
,,,,,,6141c94201d385f32c5ad8f0,62bbf946cb01f9784ec11ccf,2022-06-29_09h04.19.593,Colour_Asymmetry_Pilot,2022.1.3,Win32,60.61340769,62bbe60bf3d75ef465d3e404,0,104,104,5,1,threefour,,,,,,,,,,,,,,,,,,,,,,,,,,,,,,,,,,,,,,,,,,,,,,,,,,,,,,,,,,,,,,,,,,,,,,,,,,,,,,,,,,,,,,,,,,,,,,,,,,,,,,,,,,,,,,,,,,,,,,,,,,,,,,,,,,,,,,,,,,,,,,,,,,,,,,,
,,,,,,6141c94201d385f32c5ad8f0,62bbf946cb01f9784ec11ccf,2022-06-29_09h04.19.593,Colour_Asymmetry_Pilot,2022.1.3,Win32,60.61340769,62bbe60bf3d75ef465d3e404,0,105,105,33,1,onethree,,,,,,,,,,,,,,,,,,,,,,,,,,,,,,,,,,,,,,,,,,,,,,,,,,,,,,,,,,,,,,,,,,,,,,,,,,,,,,,,,,,,,,,,,,,,,,,,,,,,,,,,,,,,,,,,,,,,,,,,,,,,,,,,,,,,,,,,,,,,,,,,,,,,,,,
,,,,,,6141c94201d385f32c5ad8f0,62bbf946cb01f9784ec11ccf,2022-06-29_09h04.19.593,Colour_Asymmetry_Pilot,2022.1.3,Win32,60.61340769,62bbe60bf3d75ef465d3e404,0,106,106,117,1,threefour,,,,,,,,,,,,,,,,,,,,,,,,,,,,,,,,,,,,,,,,,,,,,,,,,,,,,,,,,,,,,,,,,,,,,,,,,,,,,,,,,,,,,,,,,,,,,,,,,,,,,,,,,,,,,,,,,,,,,,,,,,,,,,,,,,,,,,,,,,,,,,,,,,,,,,,
,,,,,,6141c94201d385f32c5ad8f0,62bbf946cb01f9784ec11ccf,2022-06-29_09h04.19.593,Colour_Asymmetry_Pilot,2022.1.3,Win32,60.61340769,62bbe60bf3d75ef465d3e404,0,107,107,34,1,twoone,,,,,,,,,,,,,,,,,,,,,,,,,,,,,,,,,,,,,,,,,,,,,,,,,,,,,,,,,,,,,,,,,,,,,,,,,,,,,,,,,,,,,,,,,,,,,,,,,,,,,,,,,,,,,,,,,,,,,,,,,,,,,,,,,,,,,,,,,,,,,,,,,,,,,,,
,,,,,,6141c94201d385f32c5ad8f0,62bbf946cb01f9784ec11ccf,2022-06-29_09h04.19.593,Colour_Asymmetry_Pilot,2022.1.3,Win32,60.61340769,62bbe60bf3d75ef465d3e404,0,108,108,31,1,fourthree,,,,,,,,,,,,,,,,,,,,,,,,,,,,,,,,,,,,,,,,,,,,,,,,,,,,,,,,,,,,,,,,,,,,,,,,,,,,,,,,,,,,,,,,,,,,,,,,,,,,,,,,,,,,,,,,,,,,,,,,,,,,,,,,,,,,,,,,,,,,,,,,,,,,,,,
,,,,,,6141c94201d385f32c5ad8f0,62bbf946cb01f9784ec11ccf,2022-06-29_09h04.19.593,Colour_Asymmetry_Pilot,2022.1.3,Win32,60.61340769,62bbe60bf3d75ef465d3e404,0,109,109,60,1,threeone,,,,,,,,,,,,,,,,,,,,,,,,,,,,,,,,,,,,,,,,,,,,,,,,,,,,,,,,,,,,,,,,,,,,,,,,,,,,,,,,,,,,,,,,,,,,,,,,,,,,,,,,,,,,,,,,,,,,,,,,,,,,,,,,,,,,,,,,,,,,,,,,,,,,,,,
,,,,,,6141c94201d385f32c5ad8f0,62bbf946cb01f9784ec11ccf,2022-06-29_09h04.19.593,Colour_Asymmetry_Pilot,2022.1.3,Win32,60.61340769,62bbe60bf3d75ef465d3e404,0,110,110,11,1,twofour,,,,,,,,,,,,,,,,,,,,,,,,,,,,,,,,,,,,,,,,,,,,,,,,,,,,,,,,,,,,,,,,,,,,,,,,,,,,,,,,,,,,,,,,,,,,,,,,,,,,,,,,,,,,,,,,,,,,,,,,,,,,,,,,,,,,,,,,,,,,,,,,,,,,,,,
,,,,,,6141c94201d385f32c5ad8f0,62bbf946cb01f9784ec11ccf,2022-06-29_09h04.19.593,Colour_Asymmetry_Pilot,2022.1.3,Win32,60.61340769,62bbe60bf3d75ef465d3e404,0,111,111,120,1,onetwo,,,,,,,,,,,,,,,,,,,,,,,,,,,,,,,,,,,,,,,,,,,,,,,,,,,,,,,,,,,,,,,,,,,,,,,,,,,,,,,,,,,,,,,,,,,,,,,,,,,,,,,,,,,,,,,,,,,,,,,,,,,,,,,,,,,,,,,,,,,,,,,,,,,,,,,
,,,,,,6141c94201d385f32c5ad8f0,62bbf946cb01f9784ec11ccf,2022-06-29_09h04.19.593,Colour_Asymmetry_Pilot,2022.1.3,Win32,60.61340769,62bbe60bf3d75ef465d3e404,0,112,112,78,1,fourtwo,,,,,,,,,,,,,,,,,,,,,,,,,,,,,,,,,,,,,,,,,,,,,,,,,,,,,,,,,,,,,,,,,,,,,,,,,,,,,,,,,,,,,,,,,,,,,,,,,,,,,,,,,,,,,,,,,,,,,,,,,,,,,,,,,,,,,,,,,,,,,,,,,,,,,,,
,,,,,,6141c94201d385f32c5ad8f0,62bbf946cb01f9784ec11ccf,2022-06-29_09h04.19.593,Colour_Asymmetry_Pilot,2022.1.3,Win32,60.61340769,62bbe60bf3d75ef465d3e404,0,113,113,85,1,threefour,,,,,,,,,,,,,,,,,,,,,,,,,,,,,,,,,,,,,,,,,,,,,,,,,,,,,,,,,,,,,,,,,,,,,,,,,,,,,,,,,,,,,,,,,,,,,,,,,,,,,,,,,,,,,,,,,,,,,,,,,,,,,,,,,,,,,,,,,,,,,,,,,,,,,,,
,,,,,,6141c94201d385f32c5ad8f0,62bbf946cb01f9784ec11ccf,2022-06-29_09h04.19.593,Colour_Asymmetry_Pilot,2022.1.3,Win32,60.61340769,62bbe60bf3d75ef465d3e404,0,114,114,106,1,twoone,,,,,,,,,,,,,,,,,,,,,,,,,,,,,,,,,,,,,,,,,,,,,,,,,,,,,,,,,,,,,,,,,,,,,,,,,,,,,,,,,,,,,,,,,,,,,,,,,,,,,,,,,,,,,,,,,,,,,,,,,,,,,,,,,,,,,,,,,,,,,,,,,,,,,,,
,,,,,,6141c94201d385f32c5ad8f0,62bbf946cb01f9784ec11ccf,2022-06-29_09h04.19.593,Colour_Asymmetry_Pilot,2022.1.3,Win32,60.61340769,62bbe60bf3d75ef465d3e404,0,115,115,100,1,threeone,,,,,,,,,,,,,,,,,,,,,,,,,,,,,,,,,,,,,,,,,,,,,,,,,,,,,,,,,,,,,,,,,,,,,,,,,,,,,,,,,,,,,,,,,,,,,,,,,,,,,,,,,,,,,,,,,,,,,,,,,,,,,,,,,,,,,,,,,,,,,,,,,,,,,,,
,,,,,,6141c94201d385f32c5ad8f0,62bbf946cb01f9784ec11ccf,2022-06-29_09h04.19.593,Colour_Asymmetry_Pilot,2022.1.3,Win32,60.61340769,62bbe60bf3d75ef465d3e404,0,116,116,149,1,threefour,,,,,,,,,,,,,,,,,,,,,,,,,,,,,,,,,,,,,,,,,,,,,,,,,,,,,,,,,,,,,,,,,,,,,,,,,,,,,,,,,,,,,,,,,,,,,,,,,,,,,,,,,,,,,,,,,,,,,,,,,,,,,,,,,,,,,,,,,,,,,,,,,,,,,,,
,,,,,,6141c94201d385f32c5ad8f0,62bbf946cb01f9784ec11ccf,2022-06-29_09h04.19.593,Colour_Asymmetry_Pilot,2022.1.3,Win32,60.61340769,62bbe60bf3d75ef465d3e404,0,117,117,93,1,threefour,,,,,,,,,,,,,,,,,,,,,,,,,,,,,,,,,,,,,,,,,,,,,,,,,,,,,,,,,,,,,,,,,,,,,,,,,,,,,,,,,,,,,,,,,,,,,,,,,,,,,,,,,,,,,,,,,,,,,,,,,,,,,,,,,,,,,,,,,,,,,,,,,,,,,,,
,,,,,,6141c94201d385f32c5ad8f0,62bbf946cb01f9784ec11ccf,2022-06-29_09h04.19.593,Colour_Asymmetry_Pilot,2022.1.3,Win32,60.61340769,62bbe60bf3d75ef465d3e404,0,118,118,19,1,twofour,,,,,,,,,,,,,,,,,,,,,,,,,,,,,,,,,,,,,,,,,,,,,,,,,,,,,,,,,,,,,,,,,,,,,,,,,,,,,,,,,,,,,,,,,,,,,,,,,,,,,,,,,,,,,,,,,,,,,,,,,,,,,,,,,,,,,,,,,,,,,,,,,,,,,,,
,,,,,,6141c94201d385f32c5ad8f0,62bbf946cb01f9784ec11ccf,2022-06-29_09h04.19.593,Colour_Asymmetry_Pilot,2022.1.3,Win32,60.61340769,62bbe60bf3d75ef465d3e404,0,119,119,143,1,fourthree,,,,,,,,,,,,,,,,,,,,,,,,,,,,,,,,,,,,,,,,,,,,,,,,,,,,,,,,,,,,,,,,,,,,,,,,,,,,,,,,,,,,,,,,,,,,,,,,,,,,,,,,,,,,,,,,,,,,,,,,,,,,,,,,,,,,,,,,,,,,,,,,,,,,,,,
,,,,,,6141c94201d385f32c5ad8f0,62bbf946cb01f9784ec11ccf,2022-06-29_09h04.19.593,Colour_Asymmetry_Pilot,2022.1.3,Win32,60.61340769,62bbe60bf3d75ef465d3e404,0,120,120,75,1,twofour,,,,,,,,,,,,,,,,,,,,,,,,,,,,,,,,,,,,,,,,,,,,,,,,,,,,,,,,,,,,,,,,,,,,,,,,,,,,,,,,,,,,,,,,,,,,,,,,,,,,,,,,,,,,,,,,,,,,,,,,,,,,,,,,,,,,,,,,,,,,,,,,,,,,,,,
,,,,,,6141c94201d385f32c5ad8f0,62bbf946cb01f9784ec11ccf,2022-06-29_09h04.19.593,Colour_Asymmetry_Pilot,2022.1.3,Win32,60.61340769,62bbe60bf3d75ef465d3e404,0,121,121,101,1,threefour,,,,,,,,,,,,,,,,,,,,,,,,,,,,,,,,,,,,,,,,,,,,,,,,,,,,,,,,,,,,,,,,,,,,,,,,,,,,,,,,,,,,,,,,,,,,,,,,,,,,,,,,,,,,,,,,,,,,,,,,,,,,,,,,,,,,,,,,,,,,,,,,,,,,,,,
,,,,,,6141c94201d385f32c5ad8f0,62bbf946cb01f9784ec11ccf,2022-06-29_09h04.19.593,Colour_Asymmetry_Pilot,2022.1.3,Win32,60.61340769,62bbe60bf3d75ef465d3e404,0,122,122,45,1,threefour,,,,,,,,,,,,,,,,,,,,,,,,,,,,,,,,,,,,,,,,,,,,,,,,,,,,,,,,,,,,,,,,,,,,,,,,,,,,,,,,,,,,,,,,,,,,,,,,,,,,,,,,,,,,,,,,,,,,,,,,,,,,,,,,,,,,,,,,,,,,,,,,,,,,,,,
,,,,,,6141c94201d385f32c5ad8f0,62bbf946cb01f9784ec11ccf,2022-06-29_09h04.19.593,Colour_Asymmetry_Pilot,2022.1.3,Win32,60.61340769,62bbe60bf3d75ef465d3e404,0,123,123,52,1,threeone,,,,,,,,,,,,,,,,,,,,,,,,,,,,,,,,,,,,,,,,,,,,,,,,,,,,,,,,,,,,,,,,,,,,,,,,,,,,,,,,,,,,,,,,,,,,,,,,,,,,,,,,,,,,,,,,,,,,,,,,,,,,,,,,,,,,,,,,,,,,,,,,,,,,,,,
,,,,,,6141c94201d385f32c5ad8f0,62bbf946cb01f9784ec11ccf,2022-06-29_09h04.19.593,Colour_Asymmetry_Pilot,2022.1.3,Win32,60.61340769,62bbe60bf3d75ef465d3e404,0,124,124,105,1,onethree,,,,,,,,,,,,,,,,,,,,,,,,,,,,,,,,,,,,,,,,,,,,,,,,,,,,,,,,,,,,,,,,,,,,,,,,,,,,,,,,,,,,,,,,,,,,,,,,,,,,,,,,,,,,,,,,,,,,,,,,,,,,,,,,,,,,,,,,,,,,,,,,,,,,,,,
,,,,,,6141c94201d385f32c5ad8f0,62bbf946cb01f9784ec11ccf,2022-06-29_09h04.19.593,Colour_Asymmetry_Pilot,2022.1.3,Win32,60.61340769,62bbe60bf3d75ef465d3e404,0,125,125,127,1,fourthree,,,,,,,,,,,,,,,,,,,,,,,,,,,,,,,,,,,,,,,,,,,,,,,,,,,,,,,,,,,,,,,,,,,,,,,,,,,,,,,,,,,,,,,,,,,,,,,,,,,,,,,,,,,,,,,,,,,,,,,,,,,,,,,,,,,,,,,,,,,,,,,,,,,,,,,
,,,,,,6141c94201d385f32c5ad8f0,62bbf946cb01f9784ec11ccf,2022-06-29_09h04.19.593,Colour_Asymmetry_Pilot,2022.1.3,Win32,60.61340769,62bbe60bf3d75ef465d3e404,0,126,126,30,1,fourtwo,,,,,,,,,,,,,,,,,,,,,,,,,,,,,,,,,,,,,,,,,,,,,,,,,,,,,,,,,,,,,,,,,,,,,,,,,,,,,,,,,,,,,,,,,,,,,,,,,,,,,,,,,,,,,,,,,,,,,,,,,,,,,,,,,,,,,,,,,,,,,,,,,,,,,,,
,,,,,,6141c94201d385f32c5ad8f0,62bbf946cb01f9784ec11ccf,2022-06-29_09h04.19.593,Colour_Asymmetry_Pilot,2022.1.3,Win32,60.61340769,62bbe60bf3d75ef465d3e404,0,127,127,156,1,threeone,,,,,,,,,,,,,,,,,,,,,,,,,,,,,,,,,,,,,,,,,,,,,,,,,,,,,,,,,,,,,,,,,,,,,,,,,,,,,,,,,,,,,,,,,,,,,,,,,,,,,,,,,,,,,,,,,,,,,,,,,,,,,,,,,,,,,,,,,,,,,,,,,,,,,,,
,,,,,,6141c94201d385f32c5ad8f0,62bbf946cb01f9784ec11ccf,2022-06-29_09h04.19.593,Colour_Asymmetry_Pilot,2022.1.3,Win32,60.61340769,62bbe60bf3d75ef465d3e404,0,128,128,153,1,onethree,,,,,,,,,,,,,,,,,,,,,,,,,,,,,,,,,,,,,,,,,,,,,,,,,,,,,,,,,,,,,,,,,,,,,,,,,,,,,,,,,,,,,,,,,,,,,,,,,,,,,,,,,,,,,,,,,,,,,,,,,,,,,,,,,,,,,,,,,,,,,,,,,,,,,,,
,,,,,,6141c94201d385f32c5ad8f0,62bbf946cb01f9784ec11ccf,2022-06-29_09h04.19.593,Colour_Asymmetry_Pilot,2022.1.3,Win32,60.61340769,62bbe60bf3d75ef465d3e404,0,129,129,154,1,twoone,,,,,,,,,,,,,,,,,,,,,,,,,,,,,,,,,,,,,,,,,,,,,,,,,,,,,,,,,,,,,,,,,,,,,,,,,,,,,,,,,,,,,,,,,,,,,,,,,,,,,,,,,,,,,,,,,,,,,,,,,,,,,,,,,,,,,,,,,,,,,,,,,,,,,,,
,,,,,,6141c94201d385f32c5ad8f0,62bbf946cb01f9784ec11ccf,2022-06-29_09h04.19.593,Colour_Asymmetry_Pilot,2022.1.3,Win32,60.61340769,62bbe60bf3d75ef465d3e404,0,130,130,107,1,twofour,,,,,,,,,,,,,,,,,,,,,,,,,,,,,,,,,,,,,,,,,,,,,,,,,,,,,,,,,,,,,,,,,,,,,,,,,,,,,,,,,,,,,,,,,,,,,,,,,,,,,,,,,,,,,,,,,,,,,,,,,,,,,,,,,,,,,,,,,,,,,,,,,,,,,,,
,,,,,,6141c94201d385f32c5ad8f0,62bbf946cb01f9784ec11ccf,2022-06-29_09h04.19.593,Colour_Asymmetry_Pilot,2022.1.3,Win32,60.61340769,62bbe60bf3d75ef465d3e404,0,131,131,147,1,twofour,,,,,,,,,,,,,,,,,,,,,,,,,,,,,,,,,,,,,,,,,,,,,,,,,,,,,,,,,,,,,,,,,,,,,,,,,,,,,,,,,,,,,,,,,,,,,,,,,,,,,,,,,,,,,,,,,,,,,,,,,,,,,,,,,,,,,,,,,,,,,,,,,,,,,,,
,,,,,,6141c94201d385f32c5ad8f0,62bbf946cb01f9784ec11ccf,2022-06-29_09h04.19.593,Colour_Asymmetry_Pilot,2022.1.3,Win32,60.61340769,62bbe60bf3d75ef465d3e404,0,132,132,40,1,onetwo,,,,,,,,,,,,,,,,,,,,,,,,,,,,,,,,,,,,,,,,,,,,,,,,,,,,,,,,,,,,,,,,,,,,,,,,,,,,,,,,,,,,,,,,,,,,,,,,,,,,,,,,,,,,,,,,,,,,,,,,,,,,,,,,,,,,,,,,,,,,,,,,,,,,,,,
,,,,,,6141c94201d385f32c5ad8f0,62bbf946cb01f9784ec11ccf,2022-06-29_09h04.19.593,Colour_Asymmetry_Pilot,2022.1.3,Win32,60.61340769,62bbe60bf3d75ef465d3e404,0,133,133,134,1,fourtwo,,,,,,,,,,,,,,,,,,,,,,,,,,,,,,,,,,,,,,,,,,,,,,,,,,,,,,,,,,,,,,,,,,,,,,,,,,,,,,,,,,,,,,,,,,,,,,,,,,,,,,,,,,,,,,,,,,,,,,,,,,,,,,,,,,,,,,,,,,,,,,,,,,,,,,,
,,,,,,6141c94201d385f32c5ad8f0,62bbf946cb01f9784ec11ccf,2022-06-29_09h04.19.593,Colour_Asymmetry_Pilot,2022.1.3,Win32,60.61340769,62bbe60bf3d75ef465d3e404,0,134,134,69,1,threefour,,,,,,,,,,,,,,,,,,,,,,,,,,,,,,,,,,,,,,,,,,,,,,,,,,,,,,,,,,,,,,,,,,,,,,,,,,,,,,,,,,,,,,,,,,,,,,,,,,,,,,,,,,,,,,,,,,,,,,,,,,,,,,,,,,,,,,,,,,,,,,,,,,,,,,,
,,,,,,6141c94201d385f32c5ad8f0,62bbf946cb01f9784ec11ccf,2022-06-29_09h04.19.593,Colour_Asymmetry_Pilot,2022.1.3,Win32,60.61340769,62bbe60bf3d75ef465d3e404,0,135,135,157,1,threefour,,,,,,,,,,,,,,,,,,,,,,,,,,,,,,,,,,,,,,,,,,,,,,,,,,,,,,,,,,,,,,,,,,,,,,,,,,,,,,,,,,,,,,,,,,,,,,,,,,,,,,,,,,,,,,,,,,,,,,,,,,,,,,,,,,,,,,,,,,,,,,,,,,,,,,,
,,,,,,6141c94201d385f32c5ad8f0,62bbf946cb01f9784ec11ccf,2022-06-29_09h04.19.593,Colour_Asymmetry_Pilot,2022.1.3,Win32,60.61340769,62bbe60bf3d75ef465d3e404,0,136,136,12,1,threeone,,,,,,,,,,,,,,,,,,,,,,,,,,,,,,,,,,,,,,,,,,,,,,,,,,,,,,,,,,,,,,,,,,,,,,,,,,,,,,,,,,,,,,,,,,,,,,,,,,,,,,,,,,,,,,,,,,,,,,,,,,,,,,,,,,,,,,,,,,,,,,,,,,,,,,,
,,,,,,6141c94201d385f32c5ad8f0,62bbf946cb01f9784ec11ccf,2022-06-29_09h04.19.593,Colour_Asymmetry_Pilot,2022.1.3,Win32,60.61340769,62bbe60bf3d75ef465d3e404,0,137,137,8,1,onetwo,,,,,,,,,,,,,,,,,,,,,,,,,,,,,,,,,,,,,,,,,,,,,,,,,,,,,,,,,,,,,,,,,,,,,,,,,,,,,,,,,,,,,,,,,,,,,,,,,,,,,,,,,,,,,,,,,,,,,,,,,,,,,,,,,,,,,,,,,,,,,,,,,,,,,,,
,,,,,,6141c94201d385f32c5ad8f0,62bbf946cb01f9784ec11ccf,2022-06-29_09h04.19.593,Colour_Asymmetry_Pilot,2022.1.3,Win32,60.61340769,62bbe60bf3d75ef465d3e404,0,138,138,25,1,onethree,,,,,,,,,,,,,,,,,,,,,,,,,,,,,,,,,,,,,,,,,,,,,,,,,,,,,,,,,,,,,,,,,,,,,,,,,,,,,,,,,,,,,,,,,,,,,,,,,,,,,,,,,,,,,,,,,,,,,,,,,,,,,,,,,,,,,,,,,,,,,,,,,,,,,,,
,,,,,,6141c94201d385f32c5ad8f0,62bbf946cb01f9784ec11ccf,2022-06-29_09h04.19.593,Colour_Asymmetry_Pilot,2022.1.3,Win32,60.61340769,62bbe60bf3d75ef465d3e404,0,139,139,20,1,threeone,,,,,,,,,,,,,,,,,,,,,,,,,,,,,,,,,,,,,,,,,,,,,,,,,,,,,,,,,,,,,,,,,,,,,,,,,,,,,,,,,,,,,,,,,,,,,,,,,,,,,,,,,,,,,,,,,,,,,,,,,,,,,,,,,,,,,,,,,,,,,,,,,,,,,,,
,,,,,,6141c94201d385f32c5ad8f0,62bbf946cb01f9784ec11ccf,2022-06-29_09h04.19.593,Colour_Asymmetry_Pilot,2022.1.3,Win32,60.61340769,62bbe60bf3d75ef465d3e404,0,140,140,86,1,fourtwo,,,,,,,,,,,,,,,,,,,,,,,,,,,,,,,,,,,,,,,,,,,,,,,,,,,,,,,,,,,,,,,,,,,,,,,,,,,,,,,,,,,,,,,,,,,,,,,,,,,,,,,,,,,,,,,,,,,,,,,,,,,,,,,,,,,,,,,,,,,,,,,,,,,,,,,
,,,,,,6141c94201d385f32c5ad8f0,62bbf946cb01f9784ec11ccf,2022-06-29_09h04.19.593,Colour_Asymmetry_Pilot,2022.1.3,Win32,60.61340769,62bbe60bf3d75ef465d3e404,0,141,141,128,1,onetwo,,,,,,,,,,,,,,,,,,,,,,,,,,,,,,,,,,,,,,,,,,,,,,,,,,,,,,,,,,,,,,,,,,,,,,,,,,,,,,,,,,,,,,,,,,,,,,,,,,,,,,,,,,,,,,,,,,,,,,,,,,,,,,,,,,,,,,,,,,,,,,,,,,,,,,,
,,,,,,6141c94201d385f32c5ad8f0,62bbf946cb01f9784ec11ccf,2022-06-29_09h04.19.593,Colour_Asymmetry_Pilot,2022.1.3,Win32,60.61340769,62bbe60bf3d75ef465d3e404,0,142,142,133,1,threefour,,,,,,,,,,,,,,,,,,,,,,,,,,,,,,,,,,,,,,,,,,,,,,,,,,,,,,,,,,,,,,,,,,,,,,,,,,,,,,,,,,,,,,,,,,,,,,,,,,,,,,,,,,,,,,,,,,,,,,,,,,,,,,,,,,,,,,,,,,,,,,,,,,,,,,,
,,,,,,6141c94201d385f32c5ad8f0,62bbf946cb01f9784ec11ccf,2022-06-29_09h04.19.593,Colour_Asymmetry_Pilot,2022.1.3,Win32,60.61340769,62bbe60bf3d75ef465d3e404,0,143,143,145,1,onethree,,,,,,,,,,,,,,,,,,,,,,,,,,,,,,,,,,,,,,,,,,,,,,,,,,,,,,,,,,,,,,,,,,,,,,,,,,,,,,,,,,,,,,,,,,,,,,,,,,,,,,,,,,,,,,,,,,,,,,,,,,,,,,,,,,,,,,,,,,,,,,,,,,,,,,,
,,,,,,6141c94201d385f32c5ad8f0,62bbf946cb01f9784ec11ccf,2022-06-29_09h04.19.593,Colour_Asymmetry_Pilot,2022.1.3,Win32,60.61340769,62bbe60bf3d75ef465d3e404,0,144,144,137,1,onethree,,,,,,,,,,,,,,,,,,,,,,,,,,,,,,,,,,,,,,,,,,,,,,,,,,,,,,,,,,,,,,,,,,,,,,,,,,,,,,,,,,,,,,,,,,,,,,,,,,,,,,,,,,,,,,,,,,,,,,,,,,,,,,,,,,,,,,,,,,,,,,,,,,,,,,,
,,,,,,6141c94201d385f32c5ad8f0,62bbf946cb01f9784ec11ccf,2022-06-29_09h04.19.593,Colour_Asymmetry_Pilot,2022.1.3,Win32,60.61340769,62bbe60bf3d75ef465d3e404,0,145,145,7,1,fourthree,,,,,,,,,,,,,,,,,,,,,,,,,,,,,,,,,,,,,,,,,,,,,,,,,,,,,,,,,,,,,,,,,,,,,,,,,,,,,,,,,,,,,,,,,,,,,,,,,,,,,,,,,,,,,,,,,,,,,,,,,,,,,,,,,,,,,,,,,,,,,,,,,,,,,,,
,,,,,,6141c94201d385f32c5ad8f0,62bbf946cb01f9784ec11ccf,2022-06-29_09h04.19.593,Colour_Asymmetry_Pilot,2022.1.3,Win32,60.61340769,62bbe60bf3d75ef465d3e404,0,146,146,140,1,threeone,,,,,,,,,,,,,,,,,,,,,,,,,,,,,,,,,,,,,,,,,,,,,,,,,,,,,,,,,,,,,,,,,,,,,,,,,,,,,,,,,,,,,,,,,,,,,,,,,,,,,,,,,,,,,,,,,,,,,,,,,,,,,,,,,,,,,,,,,,,,,,,,,,,,,,,
,,,,,,6141c94201d385f32c5ad8f0,62bbf946cb01f9784ec11ccf,2022-06-29_09h04.19.593,Colour_Asymmetry_Pilot,2022.1.3,Win32,60.61340769,62bbe60bf3d75ef465d3e404,0,147,147,44,1,threeone,,,,,,,,,,,,,,,,,,,,,,,,,,,,,,,,,,,,,,,,,,,,,,,,,,,,,,,,,,,,,,,,,,,,,,,,,,,,,,,,,,,,,,,,,,,,,,,,,,,,,,,,,,,,,,,,,,,,,,,,,,,,,,,,,,,,,,,,,,,,,,,,,,,,,,,
,,,,,,6141c94201d385f32c5ad8f0,62bbf946cb01f9784ec11ccf,2022-06-29_09h04.19.593,Colour_Asymmetry_Pilot,2022.1.3,Win32,60.61340769,62bbe60bf3d75ef465d3e404,0,148,148,161,1,onethree,,,,,,,,,,,,,,,,,,,,,,,,,,,,,,,,,,,,,,,,,,,,,,,,,,,,,,,,,,,,,,,,,,,,,,,,,,,,,,,,,,,,,,,,,,,,,,,,,,,,,,,,,,,,,,,,,,,,,,,,,,,,,,,,,,,,,,,,,,,,,,,,,,,,,,,
,,,,,,6141c94201d385f32c5ad8f0,62bbf946cb01f9784ec11ccf,2022-06-29_09h04.19.593,Colour_Asymmetry_Pilot,2022.1.3,Win32,60.61340769,62bbe60bf3d75ef465d3e404,0,149,149,159,1,fourthree,,,,,,,,,,,,,,,,,,,,,,,,,,,,,,,,,,,,,,,,,,,,,,,,,,,,,,,,,,,,,,,,,,,,,,,,,,,,,,,,,,,,,,,,,,,,,,,,,,,,,,,,,,,,,,,,,,,,,,,,,,,,,,,,,,,,,,,,,,,,,,,,,,,,,,,
,,,,,,6141c94201d385f32c5ad8f0,62bbf946cb01f9784ec11ccf,2022-06-29_09h04.19.593,Colour_Asymmetry_Pilot,2022.1.3,Win32,60.61340769,62bbe60bf3d75ef465d3e404,0,150,150,150,1,fourtwo,,,,,,,,,,,,,,,,,,,,,,,,,,,,,,,,,,,,,,,,,,,,,,,,,,,,,,,,,,,,,,,,,,,,,,,,,,,,,,,,,,,,,,,,,,,,,,,,,,,,,,,,,,,,,,,,,,,,,,,,,,,,,,,,,,,,,,,,,,,,,,,,,,,,,,,
,,,,,,6141c94201d385f32c5ad8f0,62bbf946cb01f9784ec11ccf,2022-06-29_09h04.19.593,Colour_Asymmetry_Pilot,2022.1.3,Win32,60.61340769,62bbe60bf3d75ef465d3e404,0,151,151,87,1,fourthree,,,,,,,,,,,,,,,,,,,,,,,,,,,,,,,,,,,,,,,,,,,,,,,,,,,,,,,,,,,,,,,,,,,,,,,,,,,,,,,,,,,,,,,,,,,,,,,,,,,,,,,,,,,,,,,,,,,,,,,,,,,,,,,,,,,,,,,,,,,,,,,,,,,,,,,
,,,,,,6141c94201d385f32c5ad8f0,62bbf946cb01f9784ec11ccf,2022-06-29_09h04.19.593,Colour_Asymmetry_Pilot,2022.1.3,Win32,60.61340769,62bbe60bf3d75ef465d3e404,0,152,152,32,1,onetwo,,,,,,,,,,,,,,,,,,,,,,,,,,,,,,,,,,,,,,,,,,,,,,,,,,,,,,,,,,,,,,,,,,,,,,,,,,,,,,,,,,,,,,,,,,,,,,,,,,,,,,,,,,,,,,,,,,,,,,,,,,,,,,,,,,,,,,,,,,,,,,,,,,,,,,,
,,,,,,6141c94201d385f32c5ad8f0,62bbf946cb01f9784ec11ccf,2022-06-29_09h04.19.593,Colour_Asymmetry_Pilot,2022.1.3,Win32,60.61340769,62bbe60bf3d75ef465d3e404,0,153,153,138,1,twoone,,,,,,,,,,,,,,,,,,,,,,,,,,,,,,,,,,,,,,,,,,,,,,,,,,,,,,,,,,,,,,,,,,,,,,,,,,,,,,,,,,,,,,,,,,,,,,,,,,,,,,,,,,,,,,,,,,,,,,,,,,,,,,,,,,,,,,,,,,,,,,,,,,,,,,,
,,,,,,6141c94201d385f32c5ad8f0,62bbf946cb01f9784ec11ccf,2022-06-29_09h04.19.593,Colour_Asymmetry_Pilot,2022.1.3,Win32,60.61340769,62bbe60bf3d75ef465d3e404,0,154,154,104,1,onetwo,,,,,,,,,,,,,,,,,,,,,,,,,,,,,,,,,,,,,,,,,,,,,,,,,,,,,,,,,,,,,,,,,,,,,,,,,,,,,,,,,,,,,,,,,,,,,,,,,,,,,,,,,,,,,,,,,,,,,,,,,,,,,,,,,,,,,,,,,,,,,,,,,,,,,,,
,,,,,,6141c94201d385f32c5ad8f0,62bbf946cb01f9784ec11ccf,2022-06-29_09h04.19.593,Colour_Asymmetry_Pilot,2022.1.3,Win32,60.61340769,62bbe60bf3d75ef465d3e404,0,155,155,62,1,fourtwo,,,,,,,,,,,,,,,,,,,,,,,,,,,,,,,,,,,,,,,,,,,,,,,,,,,,,,,,,,,,,,,,,,,,,,,,,,,,,,,,,,,,,,,,,,,,,,,,,,,,,,,,,,,,,,,,,,,,,,,,,,,,,,,,,,,,,,,,,,,,,,,,,,,,,,,
,,,,,,6141c94201d385f32c5ad8f0,62bbf946cb01f9784ec11ccf,2022-06-29_09h04.19.593,Colour_Asymmetry_Pilot,2022.1.3,Win32,60.61340769,62bbe60bf3d75ef465d3e404,0,156,156,131,1,twofour,,,,,,,,,,,,,,,,,,,,,,,,,,,,,,,,,,,,,,,,,,,,,,,,,,,,,,,,,,,,,,,,,,,,,,,,,,,,,,,,,,,,,,,,,,,,,,,,,,,,,,,,,,,,,,,,,,,,,,,,,,,,,,,,,,,,,,,,,,,,,,,,,,,,,,,
,,,,,,6141c94201d385f32c5ad8f0,62bbf946cb01f9784ec11ccf,2022-06-29_09h04.19.593,Colour_Asymmetry_Pilot,2022.1.3,Win32,60.61340769,62bbe60bf3d75ef465d3e404,0,157,157,111,1,fourthree,,,,,,,,,,,,,,,,,,,,,,,,,,,,,,,,,,,,,,,,,,,,,,,,,,,,,,,,,,,,,,,,,,,,,,,,,,,,,,,,,,,,,,,,,,,,,,,,,,,,,,,,,,,,,,,,,,,,,,,,,,,,,,,,,,,,,,,,,,,,,,,,,,,,,,,
,,,,,,6141c94201d385f32c5ad8f0,62bbf946cb01f9784ec11ccf,2022-06-29_09h04.19.593,Colour_Asymmetry_Pilot,2022.1.3,Win32,60.61340769,62bbe60bf3d75ef465d3e404,0,158,158,2,1,twoone,,,,,,,,,,,,,,,,,,,,,,,,,,,,,,,,,,,,,,,,,,,,,,,,,,,,,,,,,,,,,,,,,,,,,,,,,,,,,,,,,,,,,,,,,,,,,,,,,,,,,,,,,,,,,,,,,,,,,,,,,,,,,,,,,,,,,,,,,,,,,,,,,,,,,,,
,,,,,,6141c94201d385f32c5ad8f0,62bbf946cb01f9784ec11ccf,2022-06-29_09h04.19.593,Colour_Asymmetry_Pilot,2022.1.3,Win32,60.61340769,62bbe60bf3d75ef465d3e404,0,159,159,29,1,threefour,,,,,,,,,,,,,,,,,,,,,,,,,,,,,,,,,,,,,,,,,,,,,,,,,,,,,,,,,,,,,,,,,,,,,,,,,,,,,,,,,,,,,,,,,,,,,,,,,,,,,,,,,,,,,,,,,,,,,,,,,,,,,,,,,,,,,,,,,,,,,,,,,,,,,,,
,,,,,,6141c94201d385f32c5ad8f0,62bbf946cb01f9784ec11ccf,2022-06-29_09h04.19.593,Colour_Asymmetry_Pilot,2022.1.3,Win32,60.61340769,62bbe60bf3d75ef465d3e404,0,160,160,129,1,onethree,,,,,,,,,,,,,,,,,,,,,,,,,,,,,,,,,,,,,,,,,,,,,,,,,,,,,,,,,,,,,,,,,,,,,,,,,,,,,,,,,,,,,,,,,,,,,,,,,,,,,,,,,,,,,,,,,,,,,,,,,,,,,,,,,,,,,,,,,,,,,,,,,,,,,,,
,,,,,,6141c94201d385f32c5ad8f0,62bbf946cb01f9784ec11ccf,2022-06-29_09h04.19.593,Colour_Asymmetry_Pilot,2022.1.3,Win32,60.61340769,62bbe60bf3d75ef465d3e404,0,161,161,65,1,onethree,,,,,,,,,,,,,,,,,,,,,,,,,,,,,,,,,,,,,,,,,,,,,,,,,,,,,,,,,,,,,,,,,,,,,,,,,,,,,,,,,,,,,,,,,,,,,,,,,,,,,,,,,,,,,,,,,,,,,,,,,,,,,,,,,,,,,,,,,,,,,,,,,,,,,,,
,,,,,,6141c94201d385f32c5ad8f0,62bbf946cb01f9784ec11ccf,2022-06-29_09h04.19.593,Colour_Asymmetry_Pilot,2022.1.3,Win32,60.61340769,62bbe60bf3d75ef465d3e404,,,,,,,space,2.1644,space,8.9435,space,64.9297,space,7.6465,space,2.4163,space,3.7154,"[0.796,0.2156,-0.27859999999999996]",onetwo,"[-0.6942,-0.7648,-0.12959999999999994]",-3,19.8744,-92.79998779,36.79998779,1,0,0,response7disk_5,-4.799987793,4.799987793,1,0,0,rectangle_8,-4.799987793,4.799987793,1,0,0,3,-4.799987793,4.799987793,1,0,0,0,0,0,0,1,,,,,,,,,,,,,,,,,,,,,,,,,,,,,,,,,,,,,,,,,,,,,,,,,,,,,,,,,,,,,,,,,,,,,,,,,,,,,,,,,,,,,,,,,,,,,,,,,,,,,,,,,,
,,,,,,6141c94201d385f32c5ad8f0,62bbf946cb01f9784ec11ccf,2022-06-29_09h04.19.593,Colour_Asymmetry_Pilot,2022.1.3,Win32,60.61340769,62bbe60bf3d75ef465d3e404,,,,,,,,,,,,,,,,,,,"[0.8115999999999999,-0.0040000000000000036,-0.09819999999999995]",onethree,"[-0.6942,-0.7648,-0.12959999999999994]",-2,5.5635,-97.59997559,-40,1,0,0,response5disk_5,4,4,1,0,0,rectangle_8,4,4,1,0,0,3,4,4,1,0,0,1,0,1,0,1,,,,,,,,,,,,,,,,,,,,,,,,,,,,,,,,,,,,,,,,,,,,,,,,,,,,,,,,,,,,,,,,,,,,,,,,,,,,,,,,,,,,,,,,,,,,,,,,,,,,,,,,,,
,,,,,,6141c94201d385f32c5ad8f0,62bbf946cb01f9784ec11ccf,2022-06-29_09h04.19.593,Colour_Asymmetry_Pilot,2022.1.3,Win32,60.61340769,62bbe60bf3d75ef465d3e404,,,,,,,,,,,,,,,,,,,"[0.9686000000000001,0.3802000000000001,0.19999999999999996]",threefour,"[-0.7412000000000001,-0.08239999999999992,-0.6864]",-1,1.3659,-48,-104.7999878,1,0,0,response5disk_5,-1.599975586,9.600006104,1,0,0,rectangle_8,-1.599975586,9.600006104,1,0,0,3,-1.599975586,9.600006104,1,0,0,2,0,2,0,1,,,,,,,,,,,,,,,,,,,,,,,,,,,,,,,,,,,,,,,,,,,,,,,,,,,,,,,,,,,,,,,,,,,,,,,,,,,,,,,,,,,,,,,,,,,,,,,,,,,,,,,,,,
,,,,,,6141c94201d385f32c5ad8f0,62bbf946cb01f9784ec11ccf,2022-06-29_09h04.19.593,Colour_Asymmetry_Pilot,2022.1.3,Win32,60.61340769,62bbe60bf3d75ef465d3e404,,,,,,,,,,,,,,,,,,,"[-0.17659999999999998,-0.2864,-0.8354]",fourthree,"[-0.38039999999999996,-0.4276,-0.1452]",-3,1.8992,-83.20001221,51.19998169,1,0,0,response7disk_5,12.79998779,0.799987793,1,0,0,rectangle_8,12.79998779,0.799987793,1,0,0,3,12.79998779,0.799987793,1,0,0,3,0,3,0,1,,,,,,,,,,,,,,,,,,,,,,,,,,,,,,,,,,,,,,,,,,,,,,,,,,,,,,,,,,,,,,,,,,,,,,,,,,,,,,,,,,,,,,,,,,,,,,,,,,,,,,,,,,
,,,,,,6141c94201d385f32c5ad8f0,62bbf946cb01f9784ec11ccf,2022-06-29_09h04.19.593,Colour_Asymmetry_Pilot,2022.1.3,Win32,60.61340769,62bbe60bf3d75ef465d3e404,,,,,,,,,,,,,,,,,,,"[-0.9688,-0.7412000000000001,-0.4902000000000001]",twoone,"[-0.45899999999999996,-0.3256,-0.9374]",1,4.2974,64.79998779,-86.40002441,1,0,0,response3disk_5,19.20001221,0.799987793,1,0,0,rectangle_8,104.7999878,36.79998779,1,0,0,3,5.600036621,-6.399993896,1,0,0,4,0,4,0,1,response1disk_7,6,rectangle_4,,,,,,,,,,,,,,,,,,,,,,,,,,,,,,,,,,,,,,,,,,,,,,,,,,,,,,,,,,,,,,,,,,,,,,,,,,,,,,,,,,,,,,,,,,,,,,,,,,,,,,,
,,,,,,6141c94201d385f32c5ad8f0,62bbf946cb01f9784ec11ccf,2022-06-29_09h04.19.593,Colour_Asymmetry_Pilot,2022.1.3,Win32,60.61340769,62bbe60bf3d75ef465d3e404,,,,,,,,,,,,,,,,,,,"[-0.30200000000000005,0.14500000000000002,0.2784]",onetwo,"[0.7646000000000002,0.07440000000000002,0.2704]",-4,1.983,-35.20001221,58.3999939,1,0,0,response7disk_5,13.60003662,-3.200012207,1,0,0,rectangle_8,13.60003662,-3.200012207,1,0,0,3,13.60003662,-3.200012207,1,0,0,5,0,5,0,1,,,,,,,,,,,,,,,,,,,,,,,,,,,,,,,,,,,,,,,,,,,,,,,,,,,,,,,,,,,,,,,,,,,,,,,,,,,,,,,,,,,,,,,,,,,,,,,,,,,,,,,,,,
,,,,,,6141c94201d385f32c5ad8f0,62bbf946cb01f9784ec11ccf,2022-06-29_09h04.19.593,Colour_Asymmetry_Pilot,2022.1.3,Win32,60.61340769,62bbe60bf3d75ef465d3e404,,,,,,,,,,,,,,,,,,,"[-0.9844,-0.9688,-0.9922]",twoone,"[-0.8982,-0.37259999999999993,0.2784]",1,3.0647,45.60003662,-80,1,0,0,response3disk_5,36,-16.80001831,1,0,0,rectangle_8,36,-16.80001831,1,0,0,3,36,-16.80001831,1,0,0,6,0,6,0,1,,5,,,,,,,,,,,,,,,,,,,,,,,,,,,,,,,,,,,,,,,,,,,,,,,,,,,,,,,,,,,,,,,,,,,,,,,,,,,,,,,,,,,,,,,,,,,,,,,,,,,,,,,,
,,,,,,6141c94201d385f32c5ad8f0,62bbf946cb01f9784ec11ccf,2022-06-29_09h04.19.593,Colour_Asymmetry_Pilot,2022.1.3,Win32,60.61340769,62bbe60bf3d75ef465d3e404,,,,,,,,,,,,,,,,,,,,onetwo,,-4,2.3327,,,,,,,,,,,,,,,,,,,,,,,,,,,,,,,,space,3.9508,"[-0.2942,-0.7648,-0.7492000000000001]","[0.9686000000000001,0.5763999999999998,0.11359999999999992]",-39.20001221,72.79998779,1,0,0,response7disk,-3.200012207,-0.800018311,1,0,0,rectangle,-3.200012207,-0.800018311,1,0,0,,3,0.0012,0,-3.200012207,-0.800018311,1,0,0,0,0,0,75,1,75,first,,,,,,,,,,,,,,,,,,,,,,,,,,,,,,,,,,,,,,,,,,,,,,,,,,,,,,,,,,,,,,,,,,
,,,,,,6141c94201d385f32c5ad8f0,62bbf946cb01f9784ec11ccf,2022-06-29_09h04.19.593,Colour_Asymmetry_Pilot,2022.1.3,Win32,60.61340769,62bbe60bf3d75ef465d3e404,,,,,,,,,,,,,,,,,,,,threefour,,-1,3.1485,,,,,,,,,,,,,,,,,,,,,,,,,,,,,,,,,,"[-0.9138,-0.5296000000000001,-0.5529999999999999]","[-0.9766,-0.6472,0.07440000000000002]",-35.20001221,-92.79998779,1,0,0,response5disk,4.799987793,-11.20001221,1,0,0,rectangle,4.799987793,-11.20001221,1,0,0,,1,0.0009,0,4.799987793,-11.20001221,1,0,0,0,1,1,115,1,34,second,,,,,,,,,,,,,,,,,,,,,,,,,,,,,,,,,,,,,,,,,,,,,,,,,,,,,,,,,,,,,,,,,,
,,,,,,6141c94201d385f32c5ad8f0,62bbf946cb01f9784ec11ccf,2022-06-29_09h04.19.593,Colour_Asymmetry_Pilot,2022.1.3,Win32,60.61340769,62bbe60bf3d75ef465d3e404,,,,,,,,,,,,,,,,,,,,threefour,,-1,0.7667,,,,,,,,,,,,,,,,,,,,,,,,,,,,,,,,,,"[0.7018,0.7802,-0.16079999999999994]","[-0.9216,-0.5529999999999999,-0.3962]",-29.59997559,-87.20001221,1,0,0,response5disk,0,-4,1,0,0,rectangle,0,-4,1,0,0,,3,0.0008,0,0,-4,1,0,0,0,2,2,47,1,47,first,,,,,,,,,,,,,,,,,,,,,,,,,,,,,,,,,,,,,,,,,,,,,,,,,,,,,,,,,,,,,,,,,,
,,,,,,6141c94201d385f32c5ad8f0,62bbf946cb01f9784ec11ccf,2022-06-29_09h04.19.593,Colour_Asymmetry_Pilot,2022.1.3,Win32,60.61340769,62bbe60bf3d75ef465d3e404,,,,,,,,,,,,,,,,,,,,twoone,,-1,4.0643,,,,,,,,,,,,,,,,,,,,,,,,,,,,,,,,,,"[0.3802000000000001,0.19199999999999995,-0.6394]","[-0.10599999999999998,-0.10599999999999998,0.5841999999999998]",-31.20001221,-77.6000061,1,0,0,response5disk,-0.799987793,-10.3999939,1,0,0,rectangle,-0.799987793,-10.3999939,1,0,0,,2,0.0007,0,-0.799987793,-10.3999939,1,0,0,0,3,3,85,1,4,second,,,,,,,,,,,,,,,,,,,,,,,,,,,,,,,,,,,,,,,,,,,,,,,,,,,,,,,,,,,,,,,,,,
,,,,,,6141c94201d385f32c5ad8f0,62bbf946cb01f9784ec11ccf,2022-06-29_09h04.19.593,Colour_Asymmetry_Pilot,2022.1.3,Win32,60.61340769,62bbe60bf3d75ef465d3e404,,,,,,,,,,,,,,,,,,,,fourthree,,-1,0.3834,,,,,,,,,,,,,,,,,,,,,,,,,,,,,,,,,,"[0.30180000000000007,-0.7884,-0.9844]","[0.05879999999999996,0.2784,0.5841999999999998]",-44,-93.60003662,1,0,0,response5disk,-2.399963379,1.600006104,1,0,0,rectangle,-2.399963379,1.600006104,1,0,0,,3,0.0007,0,-2.399963379,1.600006104,1,0,0,0,4,4,67,1,67,first,,,,,,,,,,,,,,,,,,,,,,,,,,,,,,,,,,,,,,,,,,,,,,,,,,,,,,,,,,,,,,,,,,
,,,,,,6141c94201d385f32c5ad8f0,62bbf946cb01f9784ec11ccf,2022-06-29_09h04.19.593,Colour_Asymmetry_Pilot,2022.1.3,Win32,60.61340769,62bbe60bf3d75ef465d3e404,,,,,,,,,,,,,,,,,,,,onethree,,-1,0.4335,,,,,,,,,,,,,,,,,,,,,,,,,,,,,,,,,,"[0.0351999999999999,0.41159999999999997,0.0038000000000000256]","[0.9842,0.7409999999999999,-0.6628000000000001]",-53.59997559,-81.60003662,1,0,0,response5disk,0,5.600006104,1,0,0,rectangle,0,5.600006104,1,0,0,,3,1E-04,0,0,5.600006104,1,0,0,0,5,5,114,1,33,second,,,,,,,,,,,,,,,,,,,,,,,,,,,,,,,,,,,,,,,,,,,,,,,,,,,,,,,,,,,,,,,,,,
,,,,,,6141c94201d385f32c5ad8f0,62bbf946cb01f9784ec11ccf,2022-06-29_09h04.19.593,Colour_Asymmetry_Pilot,2022.1.3,Win32,60.61340769,62bbe60bf3d75ef465d3e404,,,,,,,,,,,,,,,,,,,,onethree,,-3,2.3822,,,,,,,,,,,,,,,,,,,,,,,,,,,,,,,,,,"[-0.9216,-0.5529999999999999,-0.3962]","[0.7018,0.7802,-0.16079999999999994]",-108,48,1,0,0,response7disk,-4,1.600006104,1,0,0,rectangle,-4,1.600006104,1,0,0,,2,0.0011,0,-4,1.600006104,1,0,0,0,6,6,128,1,47,second,,,,,,,,,,,,,,,,,,,,,,,,,,,,,,,,,,,,,,,,,,,,,,,,,,,,,,,,,,,,,,,,,,
,,,,,,6141c94201d385f32c5ad8f0,62bbf946cb01f9784ec11ccf,2022-06-29_09h04.19.593,Colour_Asymmetry_Pilot,2022.1.3,Win32,60.61340769,62bbe60bf3d75ef465d3e404,,,,,,,,,,,,,,,,,,,,twofour,,-2,0.8655,,,,,,,,,,,,,,,,,,,,,,,,,,,,,,,,,,"[-0.06680000000000008,-0.45100000000000007,-0.906]","[-0.30200000000000005,0.14500000000000002,0.2784]",-84,-60,1,0,0,response5disk,3.200012207,1.600006104,1,0,0,rectangle,3.200012207,1.600006104,1,0,0,,2,1E-04,0,3.200012207,1.600006104,1,0,0,0,7,7,119,1,38,second,,,,,,,,,,,,,,,,,,,,,,,,,,,,,,,,,,,,,,,,,,,,,,,,,,,,,,,,,,,,,,,,,,
,,,,,,6141c94201d385f32c5ad8f0,62bbf946cb01f9784ec11ccf,2022-06-29_09h04.19.593,Colour_Asymmetry_Pilot,2022.1.3,Win32,60.61340769,62bbe60bf3d75ef465d3e404,,,,,,,,,,,,,,,,,,,,fourtwo,,-1,0.4329,,,,,,,,,,,,,,,,,,,,,,,,,,,,,,,,,,"[-0.050999999999999934,-0.6706000000000001,-0.804]","[0.19199999999999995,0.18419999999999992,0.5136000000000001]",-30.39996338,-60.80001831,1,0,0,response5disk,9.600036621,-1.600006104,1,0,0,rectangle,9.600036621,-1.600006104,1,0,0,,1,0.0009,0,9.600036621,-1.600006104,1,0,0,0,8,8,27,1,27,first,,,,,,,,,,,,,,,,,,,,,,,,,,,,,,,,,,,,,,,,,,,,,,,,,,,,,,,,,,,,,,,,,,
,,,,,,6141c94201d385f32c5ad8f0,62bbf946cb01f9784ec11ccf,2022-06-29_09h04.19.593,Colour_Asymmetry_Pilot,2022.1.3,Win32,60.61340769,62bbe60bf3d75ef465d3e404,,,,,,,,,,,,,,,,,,,,threeone,,-1,1.6165,,,,,,,,,,,,,,,,,,,,,,,,,,,,,,,,,,"[-0.6706000000000001,-0.6157999999999999,-0.6786]","[0.6625999999999999,0.4980000000000002,-0.357]",-37.59997559,-64,1,0,0,response5disk,20.79998779,4,1,0,0,rectangle,20.79998779,4,1,0,0,,3,0.0008,0,20.79998779,4,1,0,0,0,9,9,35,1,35,first,,,,,,,,,,,,,,,,,,,,,,,,,,,,,,,,,,,,,,,,,,,,,,,,,,,,,,,,,,,,,,,,,,
,,,,,,6141c94201d385f32c5ad8f0,62bbf946cb01f9784ec11ccf,2022-06-29_09h04.19.593,Colour_Asymmetry_Pilot,2022.1.3,Win32,60.61340769,62bbe60bf3d75ef465d3e404,,,,,,,,,,,,,,,,,,,,threefour,,-4,2.8483,,,,,,,,,,,,,,,,,,,,,,,,,,,,,,,,,,"[-0.5688,-0.08239999999999992,-0.1844]","[0.9372,0.20779999999999998,0.2704]",-24.79998779,84,1,0,0,response7disk,-2.399963379,4,1,0,0,rectangle,-2.399963379,4,1,0,0,,3,0.0002,0,-2.399963379,4,1,0,0,0,10,10,68,1,68,first,,,,,,,,,,,,,,,,,,,,,,,,,,,,,,,,,,,,,,,,,,,,,,,,,,,,,,,,,,,,,,,,,,
,,,,,,6141c94201d385f32c5ad8f0,62bbf946cb01f9784ec11ccf,2022-06-29_09h04.19.593,Colour_Asymmetry_Pilot,2022.1.3,Win32,60.61340769,62bbe60bf3d75ef465d3e404,,,,,,,,,,,,,,,,,,,,threefour,,4,1.7826,,,,,,,,,,,,,,,,,,,,,,,,,,,,,,,,,,"[0.34099999999999997,0.12939999999999996,-0.9766]","[0.3802000000000001,0.19199999999999995,-0.6394]",37.60003662,95.19998169,1,0,0,response1disk,2.400024414,3.199981689,1,0,0,rectangle,2.400024414,3.199981689,1,0,0,,1,0.0006,0,2.400024414,3.199981689,1,0,0,0,11,11,87,1,6,second,,,,,,,,,,,,,,,,,,,,,,,,,,,,,,,,,,,,,,,,,,,,,,,,,,,,,,,,,,,,,,,,,,
,,,,,,6141c94201d385f32c5ad8f0,62bbf946cb01f9784ec11ccf,2022-06-29_09h04.19.593,Colour_Asymmetry_Pilot,2022.1.3,Win32,60.61340769,62bbe60bf3d75ef465d3e404,,,,,,,,,,,,,,,,,,,,threefour,,-4,1.6487,,,,,,,,,,,,,,,,,,,,,,,,,,,,,,,,,,"[1,0.12939999999999996,-1]","[0.7646000000000002,0.07440000000000002,0.2704]",-42.39996338,93.6000061,1,0,0,response7disk,-4.799987793,0,1,0,0,rectangle,-4.799987793,0,1,0,0,,1,1E-04,0,-4.799987793,0,1,0,0,0,12,12,95,1,14,second,,,,,,,,,,,,,,,,,,,,,,,,,,,,,,,,,,,,,,,,,,,,,,,,,,,,,,,,,,,,,,,,,,
,,,,,,6141c94201d385f32c5ad8f0,62bbf946cb01f9784ec11ccf,2022-06-29_09h04.19.593,Colour_Asymmetry_Pilot,2022.1.3,Win32,60.61340769,62bbe60bf3d75ef465d3e404,,,,,,,,,,,,,,,,,,,,fourthree,,4,0.4322,,,,,,,,,,,,,,,,,,,,,,,,,,,,,,,,,,"[0.3802000000000001,0.19199999999999995,-0.6394]","[0.34099999999999997,0.12939999999999996,-0.9766]",40.79998779,84.79998779,1,0,0,response1disk,2.400024414,-1.600006104,1,0,0,rectangle,2.400024414,-1.600006104,1,0,0,,1,0.0001,0,2.400024414,-1.600006104,1,0,0,0,13,13,6,1,6,first,,,,,,,,,,,,,,,,,,,,,,,,,,,,,,,,,,,,,,,,,,,,,,,,,,,,,,,,,,,,,,,,,,
,,,,,,6141c94201d385f32c5ad8f0,62bbf946cb01f9784ec11ccf,2022-06-29_09h04.19.593,Colour_Asymmetry_Pilot,2022.1.3,Win32,60.61340769,62bbe60bf3d75ef465d3e404,,,,,,,,,,,,,,,,,,,,fourtwo,,2,0.7826,,,,,,,,,,,,,,,,,,,,,,,,,,,,,,,,,,"[0.6547999999999998,-0.043199999999999905,-0.011800000000000033]","[0.8274000000000001,-0.5844,-0.9452]",94.40002441,-35.20001221,1,0,0,response3disk,2.400024414,4,1,0,0,rectangle,2.400024414,4,1,0,0,,2,0.0008,0,2.400024414,4,1,0,0,0,14,14,58,1,58,first,,,,,,,,,,,,,,,,,,,,,,,,,,,,,,,,,,,,,,,,,,,,,,,,,,,,,,,,,,,,,,,,,,
,,,,,,6141c94201d385f32c5ad8f0,62bbf946cb01f9784ec11ccf,2022-06-29_09h04.19.593,Colour_Asymmetry_Pilot,2022.1.3,Win32,60.61340769,62bbe60bf3d75ef465d3e404,,,,,,,,,,,,,,,,,,,,onetwo,,-3,1.4328,,,,,,,,,,,,,,,,,,,,,,,,,,,,,,,,,,"[0.5528,0.7409999999999999,-0.71]","[0.2784,-0.31000000000000005,-0.5452]",-71.20001221,28.79998779,1,0,0,response7disk,-5.599975586,-8,1,0,0,rectangle,-5.599975586,-8,1,0,0,,2,0.0002,0,-5.599975586,-8,1,0,0,0,15,15,48,1,48,first,,,,,,,,,,,,,,,,,,,,,,,,,,,,,,,,,,,,,,,,,,,,,,,,,,,,,,,,,,,,,,,,,,
,,,,,,6141c94201d385f32c5ad8f0,62bbf946cb01f9784ec11ccf,2022-06-29_09h04.19.593,Colour_Asymmetry_Pilot,2022.1.3,Win32,60.61340769,62bbe60bf3d75ef465d3e404,,,,,,,,,,,,,,,,,,,,fourtwo,,-4,0.9161,,,,,,,,,,,,,,,,,,,,,,,,,,,,,,,,,,"[0.12939999999999996,-0.2864,0.3253999999999999]","[-0.9216,-0.5529999999999999,-0.3962]",-45.59997559,76,1,0,0,response7disk,-4.799987793,-7.200012207,1,0,0,rectangle,-4.799987793,-7.200012207,1,0,0,,3,0.0007,0,-4.799987793,-7.200012207,1,0,0,0,16,16,49,1,49,first,,,,,,,,,,,,,,,,,,,,,,,,,,,,,,,,,,,,,,,,,,,,,,,,,,,,,,,,,,,,,,,,,,
,,,,,,6141c94201d385f32c5ad8f0,62bbf946cb01f9784ec11ccf,2022-06-29_09h04.19.593,Colour_Asymmetry_Pilot,2022.1.3,Win32,60.61340769,62bbe60bf3d75ef465d3e404,,,,,,,,,,,,,,,,,,,,onetwo,,-4,0.6828,,,,,,,,,,,,,,,,,,,,,,,,,,,,,,,,,,"[0.18419999999999992,-0.4276,-0.404]","[-0.8198,-0.5138,-0.7492000000000001]",-44.79998779,92,1,0,0,response7disk,-7.200012207,0,1,0,0,rectangle,-7.200012207,0,1,0,0,,3,0.0001,0,-7.200012207,0,1,0,0,0,17,17,121,1,40,second,,,,,,,,,,,,,,,,,,,,,,,,,,,,,,,,,,,,,,,,,,,,,,,,,,,,,,,,,,,,,,,,,,
,,,,,,6141c94201d385f32c5ad8f0,62bbf946cb01f9784ec11ccf,2022-06-29_09h04.19.593,Colour_Asymmetry_Pilot,2022.1.3,Win32,60.61340769,62bbe60bf3d75ef465d3e404,,,,,,,,,,,,,,,,,,,,onethree,,-4,1.6654,,,,,,,,,,,,,,,,,,,,,,,,,,,,,,,,,,"[-0.4276,0.0038000000000000256,-0.3256]","[-0.011800000000000033,-0.906,-0.45100000000000007]",-40,74.3999939,1,0,0,response7disk,-6.399963379,-3.200012207,1,0,0,rectangle,-6.399963379,-3.200012207,1,0,0,,1,0.0007,0,-6.399963379,-3.200012207,1,0,0,0,18,18,80,1,80,first,,,,,,,,,,,,,,,,,,,,,,,,,,,,,,,,,,,,,,,,,,,,,,,,,,,,,,,,,,,,,,,,,,
