trials.thisRepN,trials.thisTrialN,trials.thisN,trials.thisIndex,trials.ran,Colourcodes,participant,session,date,expName,psychopyVersion,OS,frameRate,study_id,trials_4.thisRepN,trials_4.thisTrialN,trials_4.thisN,trials_4.thisIndex,trials_4.ran,StimulusPos,key_resp.keys,key_resp.rt,key_resp_2.keys,key_resp_2.rt,key_resp_15.keys,key_resp_15.rt,key_resp_17.keys,key_resp_17.rt,key_resp_9.keys,key_resp_9.rt,key_resp_10.keys,key_resp_10.rt,Circle1_col,Ecc,Circle2_col,similarity,response_time,mouse_5.x,mouse_5.y,mouse_5.leftButton,mouse_5.midButton,mouse_5.rightButton,mouse_5.clicked_name,mouse_10.x,mouse_10.y,mouse_10.leftButton,mouse_10.midButton,mouse_10.rightButton,mouse_10.clicked_name,mouse_7.x,mouse_7.y,mouse_7.leftButton,mouse_7.midButton,mouse_7.rightButton,catchnumberprac,mouse_6.x,mouse_6.y,mouse_6.leftButton,mouse_6.midButton,mouse_6.rightButton,duringprac.thisRepN,duringprac.thisTrialN,duringprac.thisN,duringprac.thisIndex,duringprac.ran,mouse_7.clicked_name,catchprac,mouse_6.clicked_name,key_resp_22.keys,key_resp_22.rt,Circle1_colour,Circle2_colour,mouse.x,mouse.y,mouse.leftButton,mouse.midButton,mouse.rightButton,mouse.clicked_name,mouse_2.x,mouse_2.y,mouse_2.leftButton,mouse_2.midButton,mouse_2.rightButton,mouse_2.clicked_name,mouse_3.x,mouse_3.y,mouse_3.leftButton,mouse_3.midButton,mouse_3.rightButton,catchresponse,catchnumber,response_time_catch,Catch,mouse_11.x,mouse_11.y,mouse_11.leftButton,mouse_11.midButton,mouse_11.rightButton,trials_2.thisRepN,trials_2.thisTrialN,trials_2.thisN,trials_2.thisIndex,trials_2.ran,Colourpair,Temporder,mouse_3.clicked_name,mouse_11.clicked_name,trials_3.thisRepN,trials_3.thisTrialN,trials_3.thisN,trials_3.thisIndex,trials_3.ran,key_resp_instr_Ishi.keys,key_resp_instr_Ishi.rt,Ishi_trial_keyresp.keys,Ishi_trial_keyresp.rt,Ishi_textbox.text,Ishi_loop.thisRepN,Ishi_loop.thisTrialN,Ishi_loop.thisN,Ishi_loop.thisIndex,Ishi_loop.ran,imageaddress,textbox.text,mouse_4.x,mouse_4.y,mouse_4.leftButton,mouse_4.midButton,mouse_4.rightButton,mouse_4.clicked_name,textbox_2.text,mouse_8.x,mouse_8.y,mouse_8.leftButton,mouse_8.midButton,mouse_8.rightButton,mouse_8.clicked_name,textbox_3.text,mouse_9.x,mouse_9.y,mouse_9.leftButton,mouse_9.midButton,mouse_9.rightButton,mouse_9.clicked_name,textbox_4.text,mouse_12.x,mouse_12.y,mouse_12.leftButton,mouse_12.midButton,mouse_12.rightButton,mouse_12.clicked_name,textbox_5.text,mouse_13.x,mouse_13.y,mouse_13.leftButton,mouse_13.midButton,mouse_13.rightButton,mouse_13.clicked_name,textbox_6.text,mouse_14.x,mouse_14.y,mouse_14.leftButton,mouse_14.midButton,mouse_14.rightButton,mouse_14.clicked_name,textbox_7.text,mouse_15.x,mouse_15.y,mouse_15.leftButton,mouse_15.midButton,mouse_15.rightButton,mouse_15.clicked_name
0,0,0,66,1,,615d8ac74e143515e642e7d0,62bc0615caf5d97252f358bc,2022-06-29_09h59.38.940,Colour_Asymmetry_Pilot,2022.1.3,Win32,60.0060006,62bbe60bf3d75ef465d3e404,,,,,,,,,,,,,,,,,,,,,,,,,,,,,,,,,,,,,,,,,,,,,,,,,,,,,,,,,,,,,,,,,,,,,,,,,,,,,,,,,,,,,,,,,,,,,,,,,,,,,,,,,,,,,,,,,,,,,,,,,,,,,,,,,,,,,,,,,,,,,,,,,,,,,,,,,,,,,,
0,1,1,26,1,,615d8ac74e143515e642e7d0,62bc0615caf5d97252f358bc,2022-06-29_09h59.38.940,Colour_Asymmetry_Pilot,2022.1.3,Win32,60.0060006,62bbe60bf3d75ef465d3e404,,,,,,,,,,,,,,,,,,,,,,,,,,,,,,,,,,,,,,,,,,,,,,,,,,,,,,,,,,,,,,,,,,,,,,,,,,,,,,,,,,,,,,,,,,,,,,,,,,,,,,,,,,,,,,,,,,,,,,,,,,,,,,,,,,,,,,,,,,,,,,,,,,,,,,,,,,,,,,
0,2,2,47,1,,615d8ac74e143515e642e7d0,62bc0615caf5d97252f358bc,2022-06-29_09h59.38.940,Colour_Asymmetry_Pilot,2022.1.3,Win32,60.0060006,62bbe60bf3d75ef465d3e404,,,,,,,,,,,,,,,,,,,,,,,,,,,,,,,,,,,,,,,,,,,,,,,,,,,,,,,,,,,,,,,,,,,,,,,,,,,,,,,,,,,,,,,,,,,,,,,,,,,,,,,,,,,,,,,,,,,,,,,,,,,,,,,,,,,,,,,,,,,,,,,,,,,,,,,,,,,,,,
0,3,3,0,1,,615d8ac74e143515e642e7d0,62bc0615caf5d97252f358bc,2022-06-29_09h59.38.940,Colour_Asymmetry_Pilot,2022.1.3,Win32,60.0060006,62bbe60bf3d75ef465d3e404,,,,,,,,,,,,,,,,,,,,,,,,,,,,,,,,,,,,,,,,,,,,,,,,,,,,,,,,,,,,,,,,,,,,,,,,,,,,,,,,,,,,,,,,,,,,,,,,,,,,,,,,,,,,,,,,,,,,,,,,,,,,,,,,,,,,,,,,,,,,,,,,,,,,,,,,,,,,,,
0,4,4,1,1,,615d8ac74e143515e642e7d0,62bc0615caf5d97252f358bc,2022-06-29_09h59.38.940,Colour_Asymmetry_Pilot,2022.1.3,Win32,60.0060006,62bbe60bf3d75ef465d3e404,,,,,,,,,,,,,,,,,,,,,,,,,,,,,,,,,,,,,,,,,,,,,,,,,,,,,,,,,,,,,,,,,,,,,,,,,,,,,,,,,,,,,,,,,,,,,,,,,,,,,,,,,,,,,,,,,,,,,,,,,,,,,,,,,,,,,,,,,,,,,,,,,,,,,,,,,,,,,,
0,5,5,54,1,,615d8ac74e143515e642e7d0,62bc0615caf5d97252f358bc,2022-06-29_09h59.38.940,Colour_Asymmetry_Pilot,2022.1.3,Win32,60.0060006,62bbe60bf3d75ef465d3e404,,,,,,,,,,,,,,,,,,,,,,,,,,,,,,,,,,,,,,,,,,,,,,,,,,,,,,,,,,,,,,,,,,,,,,,,,,,,,,,,,,,,,,,,,,,,,,,,,,,,,,,,,,,,,,,,,,,,,,,,,,,,,,,,,,,,,,,,,,,,,,,,,,,,,,,,,,,,,,
0,6,6,81,1,,615d8ac74e143515e642e7d0,62bc0615caf5d97252f358bc,2022-06-29_09h59.38.940,Colour_Asymmetry_Pilot,2022.1.3,Win32,60.0060006,62bbe60bf3d75ef465d3e404,,,,,,,,,,,,,,,,,,,,,,,,,,,,,,,,,,,,,,,,,,,,,,,,,,,,,,,,,,,,,,,,,,,,,,,,,,,,,,,,,,,,,,,,,,,,,,,,,,,,,,,,,,,,,,,,,,,,,,,,,,,,,,,,,,,,,,,,,,,,,,,,,,,,,,,,,,,,,,
0,7,7,40,1,,615d8ac74e143515e642e7d0,62bc0615caf5d97252f358bc,2022-06-29_09h59.38.940,Colour_Asymmetry_Pilot,2022.1.3,Win32,60.0060006,62bbe60bf3d75ef465d3e404,,,,,,,,,,,,,,,,,,,,,,,,,,,,,,,,,,,,,,,,,,,,,,,,,,,,,,,,,,,,,,,,,,,,,,,,,,,,,,,,,,,,,,,,,,,,,,,,,,,,,,,,,,,,,,,,,,,,,,,,,,,,,,,,,,,,,,,,,,,,,,,,,,,,,,,,,,,,,,
0,8,8,52,1,,615d8ac74e143515e642e7d0,62bc0615caf5d97252f358bc,2022-06-29_09h59.38.940,Colour_Asymmetry_Pilot,2022.1.3,Win32,60.0060006,62bbe60bf3d75ef465d3e404,,,,,,,,,,,,,,,,,,,,,,,,,,,,,,,,,,,,,,,,,,,,,,,,,,,,,,,,,,,,,,,,,,,,,,,,,,,,,,,,,,,,,,,,,,,,,,,,,,,,,,,,,,,,,,,,,,,,,,,,,,,,,,,,,,,,,,,,,,,,,,,,,,,,,,,,,,,,,,
0,9,9,71,1,,615d8ac74e143515e642e7d0,62bc0615caf5d97252f358bc,2022-06-29_09h59.38.940,Colour_Asymmetry_Pilot,2022.1.3,Win32,60.0060006,62bbe60bf3d75ef465d3e404,,,,,,,,,,,,,,,,,,,,,,,,,,,,,,,,,,,,,,,,,,,,,,,,,,,,,,,,,,,,,,,,,,,,,,,,,,,,,,,,,,,,,,,,,,,,,,,,,,,,,,,,,,,,,,,,,,,,,,,,,,,,,,,,,,,,,,,,,,,,,,,,,,,,,,,,,,,,,,
0,10,10,46,1,,615d8ac74e143515e642e7d0,62bc0615caf5d97252f358bc,2022-06-29_09h59.38.940,Colour_Asymmetry_Pilot,2022.1.3,Win32,60.0060006,62bbe60bf3d75ef465d3e404,,,,,,,,,,,,,,,,,,,,,,,,,,,,,,,,,,,,,,,,,,,,,,,,,,,,,,,,,,,,,,,,,,,,,,,,,,,,,,,,,,,,,,,,,,,,,,,,,,,,,,,,,,,,,,,,,,,,,,,,,,,,,,,,,,,,,,,,,,,,,,,,,,,,,,,,,,,,,,
0,11,11,25,1,,615d8ac74e143515e642e7d0,62bc0615caf5d97252f358bc,2022-06-29_09h59.38.940,Colour_Asymmetry_Pilot,2022.1.3,Win32,60.0060006,62bbe60bf3d75ef465d3e404,,,,,,,,,,,,,,,,,,,,,,,,,,,,,,,,,,,,,,,,,,,,,,,,,,,,,,,,,,,,,,,,,,,,,,,,,,,,,,,,,,,,,,,,,,,,,,,,,,,,,,,,,,,,,,,,,,,,,,,,,,,,,,,,,,,,,,,,,,,,,,,,,,,,,,,,,,,,,,
0,12,12,9,1,,615d8ac74e143515e642e7d0,62bc0615caf5d97252f358bc,2022-06-29_09h59.38.940,Colour_Asymmetry_Pilot,2022.1.3,Win32,60.0060006,62bbe60bf3d75ef465d3e404,,,,,,,,,,,,,,,,,,,,,,,,,,,,,,,,,,,,,,,,,,,,,,,,,,,,,,,,,,,,,,,,,,,,,,,,,,,,,,,,,,,,,,,,,,,,,,,,,,,,,,,,,,,,,,,,,,,,,,,,,,,,,,,,,,,,,,,,,,,,,,,,,,,,,,,,,,,,,,
0,13,13,82,1,,615d8ac74e143515e642e7d0,62bc0615caf5d97252f358bc,2022-06-29_09h59.38.940,Colour_Asymmetry_Pilot,2022.1.3,Win32,60.0060006,62bbe60bf3d75ef465d3e404,,,,,,,,,,,,,,,,,,,,,,,,,,,,,,,,,,,,,,,,,,,,,,,,,,,,,,,,,,,,,,,,,,,,,,,,,,,,,,,,,,,,,,,,,,,,,,,,,,,,,,,,,,,,,,,,,,,,,,,,,,,,,,,,,,,,,,,,,,,,,,,,,,,,,,,,,,,,,,
0,14,14,20,1,,615d8ac74e143515e642e7d0,62bc0615caf5d97252f358bc,2022-06-29_09h59.38.940,Colour_Asymmetry_Pilot,2022.1.3,Win32,60.0060006,62bbe60bf3d75ef465d3e404,,,,,,,,,,,,,,,,,,,,,,,,,,,,,,,,,,,,,,,,,,,,,,,,,,,,,,,,,,,,,,,,,,,,,,,,,,,,,,,,,,,,,,,,,,,,,,,,,,,,,,,,,,,,,,,,,,,,,,,,,,,,,,,,,,,,,,,,,,,,,,,,,,,,,,,,,,,,,,
0,15,15,56,1,,615d8ac74e143515e642e7d0,62bc0615caf5d97252f358bc,2022-06-29_09h59.38.940,Colour_Asymmetry_Pilot,2022.1.3,Win32,60.0060006,62bbe60bf3d75ef465d3e404,,,,,,,,,,,,,,,,,,,,,,,,,,,,,,,,,,,,,,,,,,,,,,,,,,,,,,,,,,,,,,,,,,,,,,,,,,,,,,,,,,,,,,,,,,,,,,,,,,,,,,,,,,,,,,,,,,,,,,,,,,,,,,,,,,,,,,,,,,,,,,,,,,,,,,,,,,,,,,
0,16,16,24,1,,615d8ac74e143515e642e7d0,62bc0615caf5d97252f358bc,2022-06-29_09h59.38.940,Colour_Asymmetry_Pilot,2022.1.3,Win32,60.0060006,62bbe60bf3d75ef465d3e404,,,,,,,,,,,,,,,,,,,,,,,,,,,,,,,,,,,,,,,,,,,,,,,,,,,,,,,,,,,,,,,,,,,,,,,,,,,,,,,,,,,,,,,,,,,,,,,,,,,,,,,,,,,,,,,,,,,,,,,,,,,,,,,,,,,,,,,,,,,,,,,,,,,,,,,,,,,,,,
0,17,17,30,1,,615d8ac74e143515e642e7d0,62bc0615caf5d97252f358bc,2022-06-29_09h59.38.940,Colour_Asymmetry_Pilot,2022.1.3,Win32,60.0060006,62bbe60bf3d75ef465d3e404,,,,,,,,,,,,,,,,,,,,,,,,,,,,,,,,,,,,,,,,,,,,,,,,,,,,,,,,,,,,,,,,,,,,,,,,,,,,,,,,,,,,,,,,,,,,,,,,,,,,,,,,,,,,,,,,,,,,,,,,,,,,,,,,,,,,,,,,,,,,,,,,,,,,,,,,,,,,,,
0,18,18,6,1,,615d8ac74e143515e642e7d0,62bc0615caf5d97252f358bc,2022-06-29_09h59.38.940,Colour_Asymmetry_Pilot,2022.1.3,Win32,60.0060006,62bbe60bf3d75ef465d3e404,,,,,,,,,,,,,,,,,,,,,,,,,,,,,,,,,,,,,,,,,,,,,,,,,,,,,,,,,,,,,,,,,,,,,,,,,,,,,,,,,,,,,,,,,,,,,,,,,,,,,,,,,,,,,,,,,,,,,,,,,,,,,,,,,,,,,,,,,,,,,,,,,,,,,,,,,,,,,,
0,19,19,88,1,,615d8ac74e143515e642e7d0,62bc0615caf5d97252f358bc,2022-06-29_09h59.38.940,Colour_Asymmetry_Pilot,2022.1.3,Win32,60.0060006,62bbe60bf3d75ef465d3e404,,,,,,,,,,,,,,,,,,,,,,,,,,,,,,,,,,,,,,,,,,,,,,,,,,,,,,,,,,,,,,,,,,,,,,,,,,,,,,,,,,,,,,,,,,,,,,,,,,,,,,,,,,,,,,,,,,,,,,,,,,,,,,,,,,,,,,,,,,,,,,,,,,,,,,,,,,,,,,
0,20,20,62,1,,615d8ac74e143515e642e7d0,62bc0615caf5d97252f358bc,2022-06-29_09h59.38.940,Colour_Asymmetry_Pilot,2022.1.3,Win32,60.0060006,62bbe60bf3d75ef465d3e404,,,,,,,,,,,,,,,,,,,,,,,,,,,,,,,,,,,,,,,,,,,,,,,,,,,,,,,,,,,,,,,,,,,,,,,,,,,,,,,,,,,,,,,,,,,,,,,,,,,,,,,,,,,,,,,,,,,,,,,,,,,,,,,,,,,,,,,,,,,,,,,,,,,,,,,,,,,,,,
0,21,21,28,1,,615d8ac74e143515e642e7d0,62bc0615caf5d97252f358bc,2022-06-29_09h59.38.940,Colour_Asymmetry_Pilot,2022.1.3,Win32,60.0060006,62bbe60bf3d75ef465d3e404,,,,,,,,,,,,,,,,,,,,,,,,,,,,,,,,,,,,,,,,,,,,,,,,,,,,,,,,,,,,,,,,,,,,,,,,,,,,,,,,,,,,,,,,,,,,,,,,,,,,,,,,,,,,,,,,,,,,,,,,,,,,,,,,,,,,,,,,,,,,,,,,,,,,,,,,,,,,,,
0,22,22,23,1,,615d8ac74e143515e642e7d0,62bc0615caf5d97252f358bc,2022-06-29_09h59.38.940,Colour_Asymmetry_Pilot,2022.1.3,Win32,60.0060006,62bbe60bf3d75ef465d3e404,,,,,,,,,,,,,,,,,,,,,,,,,,,,,,,,,,,,,,,,,,,,,,,,,,,,,,,,,,,,,,,,,,,,,,,,,,,,,,,,,,,,,,,,,,,,,,,,,,,,,,,,,,,,,,,,,,,,,,,,,,,,,,,,,,,,,,,,,,,,,,,,,,,,,,,,,,,,,,
0,23,23,31,1,,615d8ac74e143515e642e7d0,62bc0615caf5d97252f358bc,2022-06-29_09h59.38.940,Colour_Asymmetry_Pilot,2022.1.3,Win32,60.0060006,62bbe60bf3d75ef465d3e404,,,,,,,,,,,,,,,,,,,,,,,,,,,,,,,,,,,,,,,,,,,,,,,,,,,,,,,,,,,,,,,,,,,,,,,,,,,,,,,,,,,,,,,,,,,,,,,,,,,,,,,,,,,,,,,,,,,,,,,,,,,,,,,,,,,,,,,,,,,,,,,,,,,,,,,,,,,,,,
0,24,24,70,1,,615d8ac74e143515e642e7d0,62bc0615caf5d97252f358bc,2022-06-29_09h59.38.940,Colour_Asymmetry_Pilot,2022.1.3,Win32,60.0060006,62bbe60bf3d75ef465d3e404,,,,,,,,,,,,,,,,,,,,,,,,,,,,,,,,,,,,,,,,,,,,,,,,,,,,,,,,,,,,,,,,,,,,,,,,,,,,,,,,,,,,,,,,,,,,,,,,,,,,,,,,,,,,,,,,,,,,,,,,,,,,,,,,,,,,,,,,,,,,,,,,,,,,,,,,,,,,,,
0,25,25,83,1,,615d8ac74e143515e642e7d0,62bc0615caf5d97252f358bc,2022-06-29_09h59.38.940,Colour_Asymmetry_Pilot,2022.1.3,Win32,60.0060006,62bbe60bf3d75ef465d3e404,,,,,,,,,,,,,,,,,,,,,,,,,,,,,,,,,,,,,,,,,,,,,,,,,,,,,,,,,,,,,,,,,,,,,,,,,,,,,,,,,,,,,,,,,,,,,,,,,,,,,,,,,,,,,,,,,,,,,,,,,,,,,,,,,,,,,,,,,,,,,,,,,,,,,,,,,,,,,,
0,26,26,87,1,,615d8ac74e143515e642e7d0,62bc0615caf5d97252f358bc,2022-06-29_09h59.38.940,Colour_Asymmetry_Pilot,2022.1.3,Win32,60.0060006,62bbe60bf3d75ef465d3e404,,,,,,,,,,,,,,,,,,,,,,,,,,,,,,,,,,,,,,,,,,,,,,,,,,,,,,,,,,,,,,,,,,,,,,,,,,,,,,,,,,,,,,,,,,,,,,,,,,,,,,,,,,,,,,,,,,,,,,,,,,,,,,,,,,,,,,,,,,,,,,,,,,,,,,,,,,,,,,
0,27,27,91,1,,615d8ac74e143515e642e7d0,62bc0615caf5d97252f358bc,2022-06-29_09h59.38.940,Colour_Asymmetry_Pilot,2022.1.3,Win32,60.0060006,62bbe60bf3d75ef465d3e404,,,,,,,,,,,,,,,,,,,,,,,,,,,,,,,,,,,,,,,,,,,,,,,,,,,,,,,,,,,,,,,,,,,,,,,,,,,,,,,,,,,,,,,,,,,,,,,,,,,,,,,,,,,,,,,,,,,,,,,,,,,,,,,,,,,,,,,,,,,,,,,,,,,,,,,,,,,,,,
0,28,28,78,1,,615d8ac74e143515e642e7d0,62bc0615caf5d97252f358bc,2022-06-29_09h59.38.940,Colour_Asymmetry_Pilot,2022.1.3,Win32,60.0060006,62bbe60bf3d75ef465d3e404,,,,,,,,,,,,,,,,,,,,,,,,,,,,,,,,,,,,,,,,,,,,,,,,,,,,,,,,,,,,,,,,,,,,,,,,,,,,,,,,,,,,,,,,,,,,,,,,,,,,,,,,,,,,,,,,,,,,,,,,,,,,,,,,,,,,,,,,,,,,,,,,,,,,,,,,,,,,,,
0,29,29,7,1,,615d8ac74e143515e642e7d0,62bc0615caf5d97252f358bc,2022-06-29_09h59.38.940,Colour_Asymmetry_Pilot,2022.1.3,Win32,60.0060006,62bbe60bf3d75ef465d3e404,,,,,,,,,,,,,,,,,,,,,,,,,,,,,,,,,,,,,,,,,,,,,,,,,,,,,,,,,,,,,,,,,,,,,,,,,,,,,,,,,,,,,,,,,,,,,,,,,,,,,,,,,,,,,,,,,,,,,,,,,,,,,,,,,,,,,,,,,,,,,,,,,,,,,,,,,,,,,,
0,30,30,35,1,,615d8ac74e143515e642e7d0,62bc0615caf5d97252f358bc,2022-06-29_09h59.38.940,Colour_Asymmetry_Pilot,2022.1.3,Win32,60.0060006,62bbe60bf3d75ef465d3e404,,,,,,,,,,,,,,,,,,,,,,,,,,,,,,,,,,,,,,,,,,,,,,,,,,,,,,,,,,,,,,,,,,,,,,,,,,,,,,,,,,,,,,,,,,,,,,,,,,,,,,,,,,,,,,,,,,,,,,,,,,,,,,,,,,,,,,,,,,,,,,,,,,,,,,,,,,,,,,
0,31,31,57,1,,615d8ac74e143515e642e7d0,62bc0615caf5d97252f358bc,2022-06-29_09h59.38.940,Colour_Asymmetry_Pilot,2022.1.3,Win32,60.0060006,62bbe60bf3d75ef465d3e404,,,,,,,,,,,,,,,,,,,,,,,,,,,,,,,,,,,,,,,,,,,,,,,,,,,,,,,,,,,,,,,,,,,,,,,,,,,,,,,,,,,,,,,,,,,,,,,,,,,,,,,,,,,,,,,,,,,,,,,,,,,,,,,,,,,,,,,,,,,,,,,,,,,,,,,,,,,,,,
0,32,32,17,1,,615d8ac74e143515e642e7d0,62bc0615caf5d97252f358bc,2022-06-29_09h59.38.940,Colour_Asymmetry_Pilot,2022.1.3,Win32,60.0060006,62bbe60bf3d75ef465d3e404,,,,,,,,,,,,,,,,,,,,,,,,,,,,,,,,,,,,,,,,,,,,,,,,,,,,,,,,,,,,,,,,,,,,,,,,,,,,,,,,,,,,,,,,,,,,,,,,,,,,,,,,,,,,,,,,,,,,,,,,,,,,,,,,,,,,,,,,,,,,,,,,,,,,,,,,,,,,,,
0,33,33,60,1,,615d8ac74e143515e642e7d0,62bc0615caf5d97252f358bc,2022-06-29_09h59.38.940,Colour_Asymmetry_Pilot,2022.1.3,Win32,60.0060006,62bbe60bf3d75ef465d3e404,,,,,,,,,,,,,,,,,,,,,,,,,,,,,,,,,,,,,,,,,,,,,,,,,,,,,,,,,,,,,,,,,,,,,,,,,,,,,,,,,,,,,,,,,,,,,,,,,,,,,,,,,,,,,,,,,,,,,,,,,,,,,,,,,,,,,,,,,,,,,,,,,,,,,,,,,,,,,,
0,34,34,65,1,,615d8ac74e143515e642e7d0,62bc0615caf5d97252f358bc,2022-06-29_09h59.38.940,Colour_Asymmetry_Pilot,2022.1.3,Win32,60.0060006,62bbe60bf3d75ef465d3e404,,,,,,,,,,,,,,,,,,,,,,,,,,,,,,,,,,,,,,,,,,,,,,,,,,,,,,,,,,,,,,,,,,,,,,,,,,,,,,,,,,,,,,,,,,,,,,,,,,,,,,,,,,,,,,,,,,,,,,,,,,,,,,,,,,,,,,,,,,,,,,,,,,,,,,,,,,,,,,
0,35,35,89,1,,615d8ac74e143515e642e7d0,62bc0615caf5d97252f358bc,2022-06-29_09h59.38.940,Colour_Asymmetry_Pilot,2022.1.3,Win32,60.0060006,62bbe60bf3d75ef465d3e404,,,,,,,,,,,,,,,,,,,,,,,,,,,,,,,,,,,,,,,,,,,,,,,,,,,,,,,,,,,,,,,,,,,,,,,,,,,,,,,,,,,,,,,,,,,,,,,,,,,,,,,,,,,,,,,,,,,,,,,,,,,,,,,,,,,,,,,,,,,,,,,,,,,,,,,,,,,,,,
0,36,36,59,1,,615d8ac74e143515e642e7d0,62bc0615caf5d97252f358bc,2022-06-29_09h59.38.940,Colour_Asymmetry_Pilot,2022.1.3,Win32,60.0060006,62bbe60bf3d75ef465d3e404,,,,,,,,,,,,,,,,,,,,,,,,,,,,,,,,,,,,,,,,,,,,,,,,,,,,,,,,,,,,,,,,,,,,,,,,,,,,,,,,,,,,,,,,,,,,,,,,,,,,,,,,,,,,,,,,,,,,,,,,,,,,,,,,,,,,,,,,,,,,,,,,,,,,,,,,,,,,,,
0,37,37,68,1,,615d8ac74e143515e642e7d0,62bc0615caf5d97252f358bc,2022-06-29_09h59.38.940,Colour_Asymmetry_Pilot,2022.1.3,Win32,60.0060006,62bbe60bf3d75ef465d3e404,,,,,,,,,,,,,,,,,,,,,,,,,,,,,,,,,,,,,,,,,,,,,,,,,,,,,,,,,,,,,,,,,,,,,,,,,,,,,,,,,,,,,,,,,,,,,,,,,,,,,,,,,,,,,,,,,,,,,,,,,,,,,,,,,,,,,,,,,,,,,,,,,,,,,,,,,,,,,,
0,38,38,86,1,,615d8ac74e143515e642e7d0,62bc0615caf5d97252f358bc,2022-06-29_09h59.38.940,Colour_Asymmetry_Pilot,2022.1.3,Win32,60.0060006,62bbe60bf3d75ef465d3e404,,,,,,,,,,,,,,,,,,,,,,,,,,,,,,,,,,,,,,,,,,,,,,,,,,,,,,,,,,,,,,,,,,,,,,,,,,,,,,,,,,,,,,,,,,,,,,,,,,,,,,,,,,,,,,,,,,,,,,,,,,,,,,,,,,,,,,,,,,,,,,,,,,,,,,,,,,,,,,
0,39,39,77,1,,615d8ac74e143515e642e7d0,62bc0615caf5d97252f358bc,2022-06-29_09h59.38.940,Colour_Asymmetry_Pilot,2022.1.3,Win32,60.0060006,62bbe60bf3d75ef465d3e404,,,,,,,,,,,,,,,,,,,,,,,,,,,,,,,,,,,,,,,,,,,,,,,,,,,,,,,,,,,,,,,,,,,,,,,,,,,,,,,,,,,,,,,,,,,,,,,,,,,,,,,,,,,,,,,,,,,,,,,,,,,,,,,,,,,,,,,,,,,,,,,,,,,,,,,,,,,,,,
0,40,40,34,1,,615d8ac74e143515e642e7d0,62bc0615caf5d97252f358bc,2022-06-29_09h59.38.940,Colour_Asymmetry_Pilot,2022.1.3,Win32,60.0060006,62bbe60bf3d75ef465d3e404,,,,,,,,,,,,,,,,,,,,,,,,,,,,,,,,,,,,,,,,,,,,,,,,,,,,,,,,,,,,,,,,,,,,,,,,,,,,,,,,,,,,,,,,,,,,,,,,,,,,,,,,,,,,,,,,,,,,,,,,,,,,,,,,,,,,,,,,,,,,,,,,,,,,,,,,,,,,,,
0,41,41,50,1,,615d8ac74e143515e642e7d0,62bc0615caf5d97252f358bc,2022-06-29_09h59.38.940,Colour_Asymmetry_Pilot,2022.1.3,Win32,60.0060006,62bbe60bf3d75ef465d3e404,,,,,,,,,,,,,,,,,,,,,,,,,,,,,,,,,,,,,,,,,,,,,,,,,,,,,,,,,,,,,,,,,,,,,,,,,,,,,,,,,,,,,,,,,,,,,,,,,,,,,,,,,,,,,,,,,,,,,,,,,,,,,,,,,,,,,,,,,,,,,,,,,,,,,,,,,,,,,,
0,42,42,19,1,,615d8ac74e143515e642e7d0,62bc0615caf5d97252f358bc,2022-06-29_09h59.38.940,Colour_Asymmetry_Pilot,2022.1.3,Win32,60.0060006,62bbe60bf3d75ef465d3e404,,,,,,,,,,,,,,,,,,,,,,,,,,,,,,,,,,,,,,,,,,,,,,,,,,,,,,,,,,,,,,,,,,,,,,,,,,,,,,,,,,,,,,,,,,,,,,,,,,,,,,,,,,,,,,,,,,,,,,,,,,,,,,,,,,,,,,,,,,,,,,,,,,,,,,,,,,,,,,
0,43,43,53,1,,615d8ac74e143515e642e7d0,62bc0615caf5d97252f358bc,2022-06-29_09h59.38.940,Colour_Asymmetry_Pilot,2022.1.3,Win32,60.0060006,62bbe60bf3d75ef465d3e404,,,,,,,,,,,,,,,,,,,,,,,,,,,,,,,,,,,,,,,,,,,,,,,,,,,,,,,,,,,,,,,,,,,,,,,,,,,,,,,,,,,,,,,,,,,,,,,,,,,,,,,,,,,,,,,,,,,,,,,,,,,,,,,,,,,,,,,,,,,,,,,,,,,,,,,,,,,,,,
0,44,44,3,1,,615d8ac74e143515e642e7d0,62bc0615caf5d97252f358bc,2022-06-29_09h59.38.940,Colour_Asymmetry_Pilot,2022.1.3,Win32,60.0060006,62bbe60bf3d75ef465d3e404,,,,,,,,,,,,,,,,,,,,,,,,,,,,,,,,,,,,,,,,,,,,,,,,,,,,,,,,,,,,,,,,,,,,,,,,,,,,,,,,,,,,,,,,,,,,,,,,,,,,,,,,,,,,,,,,,,,,,,,,,,,,,,,,,,,,,,,,,,,,,,,,,,,,,,,,,,,,,,
0,45,45,73,1,,615d8ac74e143515e642e7d0,62bc0615caf5d97252f358bc,2022-06-29_09h59.38.940,Colour_Asymmetry_Pilot,2022.1.3,Win32,60.0060006,62bbe60bf3d75ef465d3e404,,,,,,,,,,,,,,,,,,,,,,,,,,,,,,,,,,,,,,,,,,,,,,,,,,,,,,,,,,,,,,,,,,,,,,,,,,,,,,,,,,,,,,,,,,,,,,,,,,,,,,,,,,,,,,,,,,,,,,,,,,,,,,,,,,,,,,,,,,,,,,,,,,,,,,,,,,,,,,
0,46,46,5,1,,615d8ac74e143515e642e7d0,62bc0615caf5d97252f358bc,2022-06-29_09h59.38.940,Colour_Asymmetry_Pilot,2022.1.3,Win32,60.0060006,62bbe60bf3d75ef465d3e404,,,,,,,,,,,,,,,,,,,,,,,,,,,,,,,,,,,,,,,,,,,,,,,,,,,,,,,,,,,,,,,,,,,,,,,,,,,,,,,,,,,,,,,,,,,,,,,,,,,,,,,,,,,,,,,,,,,,,,,,,,,,,,,,,,,,,,,,,,,,,,,,,,,,,,,,,,,,,,
0,47,47,44,1,,615d8ac74e143515e642e7d0,62bc0615caf5d97252f358bc,2022-06-29_09h59.38.940,Colour_Asymmetry_Pilot,2022.1.3,Win32,60.0060006,62bbe60bf3d75ef465d3e404,,,,,,,,,,,,,,,,,,,,,,,,,,,,,,,,,,,,,,,,,,,,,,,,,,,,,,,,,,,,,,,,,,,,,,,,,,,,,,,,,,,,,,,,,,,,,,,,,,,,,,,,,,,,,,,,,,,,,,,,,,,,,,,,,,,,,,,,,,,,,,,,,,,,,,,,,,,,,,
0,48,48,18,1,,615d8ac74e143515e642e7d0,62bc0615caf5d97252f358bc,2022-06-29_09h59.38.940,Colour_Asymmetry_Pilot,2022.1.3,Win32,60.0060006,62bbe60bf3d75ef465d3e404,,,,,,,,,,,,,,,,,,,,,,,,,,,,,,,,,,,,,,,,,,,,,,,,,,,,,,,,,,,,,,,,,,,,,,,,,,,,,,,,,,,,,,,,,,,,,,,,,,,,,,,,,,,,,,,,,,,,,,,,,,,,,,,,,,,,,,,,,,,,,,,,,,,,,,,,,,,,,,
0,49,49,27,1,,615d8ac74e143515e642e7d0,62bc0615caf5d97252f358bc,2022-06-29_09h59.38.940,Colour_Asymmetry_Pilot,2022.1.3,Win32,60.0060006,62bbe60bf3d75ef465d3e404,,,,,,,,,,,,,,,,,,,,,,,,,,,,,,,,,,,,,,,,,,,,,,,,,,,,,,,,,,,,,,,,,,,,,,,,,,,,,,,,,,,,,,,,,,,,,,,,,,,,,,,,,,,,,,,,,,,,,,,,,,,,,,,,,,,,,,,,,,,,,,,,,,,,,,,,,,,,,,
0,50,50,12,1,,615d8ac74e143515e642e7d0,62bc0615caf5d97252f358bc,2022-06-29_09h59.38.940,Colour_Asymmetry_Pilot,2022.1.3,Win32,60.0060006,62bbe60bf3d75ef465d3e404,,,,,,,,,,,,,,,,,,,,,,,,,,,,,,,,,,,,,,,,,,,,,,,,,,,,,,,,,,,,,,,,,,,,,,,,,,,,,,,,,,,,,,,,,,,,,,,,,,,,,,,,,,,,,,,,,,,,,,,,,,,,,,,,,,,,,,,,,,,,,,,,,,,,,,,,,,,,,,
0,51,51,92,1,,615d8ac74e143515e642e7d0,62bc0615caf5d97252f358bc,2022-06-29_09h59.38.940,Colour_Asymmetry_Pilot,2022.1.3,Win32,60.0060006,62bbe60bf3d75ef465d3e404,,,,,,,,,,,,,,,,,,,,,,,,,,,,,,,,,,,,,,,,,,,,,,,,,,,,,,,,,,,,,,,,,,,,,,,,,,,,,,,,,,,,,,,,,,,,,,,,,,,,,,,,,,,,,,,,,,,,,,,,,,,,,,,,,,,,,,,,,,,,,,,,,,,,,,,,,,,,,,
0,52,52,15,1,,615d8ac74e143515e642e7d0,62bc0615caf5d97252f358bc,2022-06-29_09h59.38.940,Colour_Asymmetry_Pilot,2022.1.3,Win32,60.0060006,62bbe60bf3d75ef465d3e404,,,,,,,,,,,,,,,,,,,,,,,,,,,,,,,,,,,,,,,,,,,,,,,,,,,,,,,,,,,,,,,,,,,,,,,,,,,,,,,,,,,,,,,,,,,,,,,,,,,,,,,,,,,,,,,,,,,,,,,,,,,,,,,,,,,,,,,,,,,,,,,,,,,,,,,,,,,,,,
0,53,53,67,1,,615d8ac74e143515e642e7d0,62bc0615caf5d97252f358bc,2022-06-29_09h59.38.940,Colour_Asymmetry_Pilot,2022.1.3,Win32,60.0060006,62bbe60bf3d75ef465d3e404,,,,,,,,,,,,,,,,,,,,,,,,,,,,,,,,,,,,,,,,,,,,,,,,,,,,,,,,,,,,,,,,,,,,,,,,,,,,,,,,,,,,,,,,,,,,,,,,,,,,,,,,,,,,,,,,,,,,,,,,,,,,,,,,,,,,,,,,,,,,,,,,,,,,,,,,,,,,,,
0,54,54,37,1,,615d8ac74e143515e642e7d0,62bc0615caf5d97252f358bc,2022-06-29_09h59.38.940,Colour_Asymmetry_Pilot,2022.1.3,Win32,60.0060006,62bbe60bf3d75ef465d3e404,,,,,,,,,,,,,,,,,,,,,,,,,,,,,,,,,,,,,,,,,,,,,,,,,,,,,,,,,,,,,,,,,,,,,,,,,,,,,,,,,,,,,,,,,,,,,,,,,,,,,,,,,,,,,,,,,,,,,,,,,,,,,,,,,,,,,,,,,,,,,,,,,,,,,,,,,,,,,,
0,55,55,69,1,,615d8ac74e143515e642e7d0,62bc0615caf5d97252f358bc,2022-06-29_09h59.38.940,Colour_Asymmetry_Pilot,2022.1.3,Win32,60.0060006,62bbe60bf3d75ef465d3e404,,,,,,,,,,,,,,,,,,,,,,,,,,,,,,,,,,,,,,,,,,,,,,,,,,,,,,,,,,,,,,,,,,,,,,,,,,,,,,,,,,,,,,,,,,,,,,,,,,,,,,,,,,,,,,,,,,,,,,,,,,,,,,,,,,,,,,,,,,,,,,,,,,,,,,,,,,,,,,
0,56,56,8,1,,615d8ac74e143515e642e7d0,62bc0615caf5d97252f358bc,2022-06-29_09h59.38.940,Colour_Asymmetry_Pilot,2022.1.3,Win32,60.0060006,62bbe60bf3d75ef465d3e404,,,,,,,,,,,,,,,,,,,,,,,,,,,,,,,,,,,,,,,,,,,,,,,,,,,,,,,,,,,,,,,,,,,,,,,,,,,,,,,,,,,,,,,,,,,,,,,,,,,,,,,,,,,,,,,,,,,,,,,,,,,,,,,,,,,,,,,,,,,,,,,,,,,,,,,,,,,,,,
0,57,57,79,1,,615d8ac74e143515e642e7d0,62bc0615caf5d97252f358bc,2022-06-29_09h59.38.940,Colour_Asymmetry_Pilot,2022.1.3,Win32,60.0060006,62bbe60bf3d75ef465d3e404,,,,,,,,,,,,,,,,,,,,,,,,,,,,,,,,,,,,,,,,,,,,,,,,,,,,,,,,,,,,,,,,,,,,,,,,,,,,,,,,,,,,,,,,,,,,,,,,,,,,,,,,,,,,,,,,,,,,,,,,,,,,,,,,,,,,,,,,,,,,,,,,,,,,,,,,,,,,,,
0,58,58,75,1,,615d8ac74e143515e642e7d0,62bc0615caf5d97252f358bc,2022-06-29_09h59.38.940,Colour_Asymmetry_Pilot,2022.1.3,Win32,60.0060006,62bbe60bf3d75ef465d3e404,,,,,,,,,,,,,,,,,,,,,,,,,,,,,,,,,,,,,,,,,,,,,,,,,,,,,,,,,,,,,,,,,,,,,,,,,,,,,,,,,,,,,,,,,,,,,,,,,,,,,,,,,,,,,,,,,,,,,,,,,,,,,,,,,,,,,,,,,,,,,,,,,,,,,,,,,,,,,,
0,59,59,45,1,,615d8ac74e143515e642e7d0,62bc0615caf5d97252f358bc,2022-06-29_09h59.38.940,Colour_Asymmetry_Pilot,2022.1.3,Win32,60.0060006,62bbe60bf3d75ef465d3e404,,,,,,,,,,,,,,,,,,,,,,,,,,,,,,,,,,,,,,,,,,,,,,,,,,,,,,,,,,,,,,,,,,,,,,,,,,,,,,,,,,,,,,,,,,,,,,,,,,,,,,,,,,,,,,,,,,,,,,,,,,,,,,,,,,,,,,,,,,,,,,,,,,,,,,,,,,,,,,
0,60,60,11,1,,615d8ac74e143515e642e7d0,62bc0615caf5d97252f358bc,2022-06-29_09h59.38.940,Colour_Asymmetry_Pilot,2022.1.3,Win32,60.0060006,62bbe60bf3d75ef465d3e404,,,,,,,,,,,,,,,,,,,,,,,,,,,,,,,,,,,,,,,,,,,,,,,,,,,,,,,,,,,,,,,,,,,,,,,,,,,,,,,,,,,,,,,,,,,,,,,,,,,,,,,,,,,,,,,,,,,,,,,,,,,,,,,,,,,,,,,,,,,,,,,,,,,,,,,,,,,,,,
0,61,61,39,1,,615d8ac74e143515e642e7d0,62bc0615caf5d97252f358bc,2022-06-29_09h59.38.940,Colour_Asymmetry_Pilot,2022.1.3,Win32,60.0060006,62bbe60bf3d75ef465d3e404,,,,,,,,,,,,,,,,,,,,,,,,,,,,,,,,,,,,,,,,,,,,,,,,,,,,,,,,,,,,,,,,,,,,,,,,,,,,,,,,,,,,,,,,,,,,,,,,,,,,,,,,,,,,,,,,,,,,,,,,,,,,,,,,,,,,,,,,,,,,,,,,,,,,,,,,,,,,,,
0,62,62,10,1,,615d8ac74e143515e642e7d0,62bc0615caf5d97252f358bc,2022-06-29_09h59.38.940,Colour_Asymmetry_Pilot,2022.1.3,Win32,60.0060006,62bbe60bf3d75ef465d3e404,,,,,,,,,,,,,,,,,,,,,,,,,,,,,,,,,,,,,,,,,,,,,,,,,,,,,,,,,,,,,,,,,,,,,,,,,,,,,,,,,,,,,,,,,,,,,,,,,,,,,,,,,,,,,,,,,,,,,,,,,,,,,,,,,,,,,,,,,,,,,,,,,,,,,,,,,,,,,,
0,63,63,74,1,,615d8ac74e143515e642e7d0,62bc0615caf5d97252f358bc,2022-06-29_09h59.38.940,Colour_Asymmetry_Pilot,2022.1.3,Win32,60.0060006,62bbe60bf3d75ef465d3e404,,,,,,,,,,,,,,,,,,,,,,,,,,,,,,,,,,,,,,,,,,,,,,,,,,,,,,,,,,,,,,,,,,,,,,,,,,,,,,,,,,,,,,,,,,,,,,,,,,,,,,,,,,,,,,,,,,,,,,,,,,,,,,,,,,,,,,,,,,,,,,,,,,,,,,,,,,,,,,
0,64,64,43,1,,615d8ac74e143515e642e7d0,62bc0615caf5d97252f358bc,2022-06-29_09h59.38.940,Colour_Asymmetry_Pilot,2022.1.3,Win32,60.0060006,62bbe60bf3d75ef465d3e404,,,,,,,,,,,,,,,,,,,,,,,,,,,,,,,,,,,,,,,,,,,,,,,,,,,,,,,,,,,,,,,,,,,,,,,,,,,,,,,,,,,,,,,,,,,,,,,,,,,,,,,,,,,,,,,,,,,,,,,,,,,,,,,,,,,,,,,,,,,,,,,,,,,,,,,,,,,,,,
0,65,65,49,1,,615d8ac74e143515e642e7d0,62bc0615caf5d97252f358bc,2022-06-29_09h59.38.940,Colour_Asymmetry_Pilot,2022.1.3,Win32,60.0060006,62bbe60bf3d75ef465d3e404,,,,,,,,,,,,,,,,,,,,,,,,,,,,,,,,,,,,,,,,,,,,,,,,,,,,,,,,,,,,,,,,,,,,,,,,,,,,,,,,,,,,,,,,,,,,,,,,,,,,,,,,,,,,,,,,,,,,,,,,,,,,,,,,,,,,,,,,,,,,,,,,,,,,,,,,,,,,,,
0,66,66,51,1,,615d8ac74e143515e642e7d0,62bc0615caf5d97252f358bc,2022-06-29_09h59.38.940,Colour_Asymmetry_Pilot,2022.1.3,Win32,60.0060006,62bbe60bf3d75ef465d3e404,,,,,,,,,,,,,,,,,,,,,,,,,,,,,,,,,,,,,,,,,,,,,,,,,,,,,,,,,,,,,,,,,,,,,,,,,,,,,,,,,,,,,,,,,,,,,,,,,,,,,,,,,,,,,,,,,,,,,,,,,,,,,,,,,,,,,,,,,,,,,,,,,,,,,,,,,,,,,,
0,67,67,84,1,,615d8ac74e143515e642e7d0,62bc0615caf5d97252f358bc,2022-06-29_09h59.38.940,Colour_Asymmetry_Pilot,2022.1.3,Win32,60.0060006,62bbe60bf3d75ef465d3e404,,,,,,,,,,,,,,,,,,,,,,,,,,,,,,,,,,,,,,,,,,,,,,,,,,,,,,,,,,,,,,,,,,,,,,,,,,,,,,,,,,,,,,,,,,,,,,,,,,,,,,,,,,,,,,,,,,,,,,,,,,,,,,,,,,,,,,,,,,,,,,,,,,,,,,,,,,,,,,
0,68,68,21,1,,615d8ac74e143515e642e7d0,62bc0615caf5d97252f358bc,2022-06-29_09h59.38.940,Colour_Asymmetry_Pilot,2022.1.3,Win32,60.0060006,62bbe60bf3d75ef465d3e404,,,,,,,,,,,,,,,,,,,,,,,,,,,,,,,,,,,,,,,,,,,,,,,,,,,,,,,,,,,,,,,,,,,,,,,,,,,,,,,,,,,,,,,,,,,,,,,,,,,,,,,,,,,,,,,,,,,,,,,,,,,,,,,,,,,,,,,,,,,,,,,,,,,,,,,,,,,,,,
0,69,69,16,1,,615d8ac74e143515e642e7d0,62bc0615caf5d97252f358bc,2022-06-29_09h59.38.940,Colour_Asymmetry_Pilot,2022.1.3,Win32,60.0060006,62bbe60bf3d75ef465d3e404,,,,,,,,,,,,,,,,,,,,,,,,,,,,,,,,,,,,,,,,,,,,,,,,,,,,,,,,,,,,,,,,,,,,,,,,,,,,,,,,,,,,,,,,,,,,,,,,,,,,,,,,,,,,,,,,,,,,,,,,,,,,,,,,,,,,,,,,,,,,,,,,,,,,,,,,,,,,,,
0,70,70,85,1,,615d8ac74e143515e642e7d0,62bc0615caf5d97252f358bc,2022-06-29_09h59.38.940,Colour_Asymmetry_Pilot,2022.1.3,Win32,60.0060006,62bbe60bf3d75ef465d3e404,,,,,,,,,,,,,,,,,,,,,,,,,,,,,,,,,,,,,,,,,,,,,,,,,,,,,,,,,,,,,,,,,,,,,,,,,,,,,,,,,,,,,,,,,,,,,,,,,,,,,,,,,,,,,,,,,,,,,,,,,,,,,,,,,,,,,,,,,,,,,,,,,,,,,,,,,,,,,,
0,71,71,36,1,,615d8ac74e143515e642e7d0,62bc0615caf5d97252f358bc,2022-06-29_09h59.38.940,Colour_Asymmetry_Pilot,2022.1.3,Win32,60.0060006,62bbe60bf3d75ef465d3e404,,,,,,,,,,,,,,,,,,,,,,,,,,,,,,,,,,,,,,,,,,,,,,,,,,,,,,,,,,,,,,,,,,,,,,,,,,,,,,,,,,,,,,,,,,,,,,,,,,,,,,,,,,,,,,,,,,,,,,,,,,,,,,,,,,,,,,,,,,,,,,,,,,,,,,,,,,,,,,
0,72,72,4,1,,615d8ac74e143515e642e7d0,62bc0615caf5d97252f358bc,2022-06-29_09h59.38.940,Colour_Asymmetry_Pilot,2022.1.3,Win32,60.0060006,62bbe60bf3d75ef465d3e404,,,,,,,,,,,,,,,,,,,,,,,,,,,,,,,,,,,,,,,,,,,,,,,,,,,,,,,,,,,,,,,,,,,,,,,,,,,,,,,,,,,,,,,,,,,,,,,,,,,,,,,,,,,,,,,,,,,,,,,,,,,,,,,,,,,,,,,,,,,,,,,,,,,,,,,,,,,,,,
0,73,73,76,1,,615d8ac74e143515e642e7d0,62bc0615caf5d97252f358bc,2022-06-29_09h59.38.940,Colour_Asymmetry_Pilot,2022.1.3,Win32,60.0060006,62bbe60bf3d75ef465d3e404,,,,,,,,,,,,,,,,,,,,,,,,,,,,,,,,,,,,,,,,,,,,,,,,,,,,,,,,,,,,,,,,,,,,,,,,,,,,,,,,,,,,,,,,,,,,,,,,,,,,,,,,,,,,,,,,,,,,,,,,,,,,,,,,,,,,,,,,,,,,,,,,,,,,,,,,,,,,,,
0,74,74,61,1,,615d8ac74e143515e642e7d0,62bc0615caf5d97252f358bc,2022-06-29_09h59.38.940,Colour_Asymmetry_Pilot,2022.1.3,Win32,60.0060006,62bbe60bf3d75ef465d3e404,,,,,,,,,,,,,,,,,,,,,,,,,,,,,,,,,,,,,,,,,,,,,,,,,,,,,,,,,,,,,,,,,,,,,,,,,,,,,,,,,,,,,,,,,,,,,,,,,,,,,,,,,,,,,,,,,,,,,,,,,,,,,,,,,,,,,,,,,,,,,,,,,,,,,,,,,,,,,,
0,75,75,33,1,,615d8ac74e143515e642e7d0,62bc0615caf5d97252f358bc,2022-06-29_09h59.38.940,Colour_Asymmetry_Pilot,2022.1.3,Win32,60.0060006,62bbe60bf3d75ef465d3e404,,,,,,,,,,,,,,,,,,,,,,,,,,,,,,,,,,,,,,,,,,,,,,,,,,,,,,,,,,,,,,,,,,,,,,,,,,,,,,,,,,,,,,,,,,,,,,,,,,,,,,,,,,,,,,,,,,,,,,,,,,,,,,,,,,,,,,,,,,,,,,,,,,,,,,,,,,,,,,
0,76,76,90,1,,615d8ac74e143515e642e7d0,62bc0615caf5d97252f358bc,2022-06-29_09h59.38.940,Colour_Asymmetry_Pilot,2022.1.3,Win32,60.0060006,62bbe60bf3d75ef465d3e404,,,,,,,,,,,,,,,,,,,,,,,,,,,,,,,,,,,,,,,,,,,,,,,,,,,,,,,,,,,,,,,,,,,,,,,,,,,,,,,,,,,,,,,,,,,,,,,,,,,,,,,,,,,,,,,,,,,,,,,,,,,,,,,,,,,,,,,,,,,,,,,,,,,,,,,,,,,,,,
0,77,77,22,1,,615d8ac74e143515e642e7d0,62bc0615caf5d97252f358bc,2022-06-29_09h59.38.940,Colour_Asymmetry_Pilot,2022.1.3,Win32,60.0060006,62bbe60bf3d75ef465d3e404,,,,,,,,,,,,,,,,,,,,,,,,,,,,,,,,,,,,,,,,,,,,,,,,,,,,,,,,,,,,,,,,,,,,,,,,,,,,,,,,,,,,,,,,,,,,,,,,,,,,,,,,,,,,,,,,,,,,,,,,,,,,,,,,,,,,,,,,,,,,,,,,,,,,,,,,,,,,,,
0,78,78,63,1,,615d8ac74e143515e642e7d0,62bc0615caf5d97252f358bc,2022-06-29_09h59.38.940,Colour_Asymmetry_Pilot,2022.1.3,Win32,60.0060006,62bbe60bf3d75ef465d3e404,,,,,,,,,,,,,,,,,,,,,,,,,,,,,,,,,,,,,,,,,,,,,,,,,,,,,,,,,,,,,,,,,,,,,,,,,,,,,,,,,,,,,,,,,,,,,,,,,,,,,,,,,,,,,,,,,,,,,,,,,,,,,,,,,,,,,,,,,,,,,,,,,,,,,,,,,,,,,,
0,79,79,32,1,,615d8ac74e143515e642e7d0,62bc0615caf5d97252f358bc,2022-06-29_09h59.38.940,Colour_Asymmetry_Pilot,2022.1.3,Win32,60.0060006,62bbe60bf3d75ef465d3e404,,,,,,,,,,,,,,,,,,,,,,,,,,,,,,,,,,,,,,,,,,,,,,,,,,,,,,,,,,,,,,,,,,,,,,,,,,,,,,,,,,,,,,,,,,,,,,,,,,,,,,,,,,,,,,,,,,,,,,,,,,,,,,,,,,,,,,,,,,,,,,,,,,,,,,,,,,,,,,
0,80,80,42,1,,615d8ac74e143515e642e7d0,62bc0615caf5d97252f358bc,2022-06-29_09h59.38.940,Colour_Asymmetry_Pilot,2022.1.3,Win32,60.0060006,62bbe60bf3d75ef465d3e404,,,,,,,,,,,,,,,,,,,,,,,,,,,,,,,,,,,,,,,,,,,,,,,,,,,,,,,,,,,,,,,,,,,,,,,,,,,,,,,,,,,,,,,,,,,,,,,,,,,,,,,,,,,,,,,,,,,,,,,,,,,,,,,,,,,,,,,,,,,,,,,,,,,,,,,,,,,,,,
0,81,81,48,1,,615d8ac74e143515e642e7d0,62bc0615caf5d97252f358bc,2022-06-29_09h59.38.940,Colour_Asymmetry_Pilot,2022.1.3,Win32,60.0060006,62bbe60bf3d75ef465d3e404,,,,,,,,,,,,,,,,,,,,,,,,,,,,,,,,,,,,,,,,,,,,,,,,,,,,,,,,,,,,,,,,,,,,,,,,,,,,,,,,,,,,,,,,,,,,,,,,,,,,,,,,,,,,,,,,,,,,,,,,,,,,,,,,,,,,,,,,,,,,,,,,,,,,,,,,,,,,,,
0,82,82,72,1,,615d8ac74e143515e642e7d0,62bc0615caf5d97252f358bc,2022-06-29_09h59.38.940,Colour_Asymmetry_Pilot,2022.1.3,Win32,60.0060006,62bbe60bf3d75ef465d3e404,,,,,,,,,,,,,,,,,,,,,,,,,,,,,,,,,,,,,,,,,,,,,,,,,,,,,,,,,,,,,,,,,,,,,,,,,,,,,,,,,,,,,,,,,,,,,,,,,,,,,,,,,,,,,,,,,,,,,,,,,,,,,,,,,,,,,,,,,,,,,,,,,,,,,,,,,,,,,,
0,83,83,38,1,,615d8ac74e143515e642e7d0,62bc0615caf5d97252f358bc,2022-06-29_09h59.38.940,Colour_Asymmetry_Pilot,2022.1.3,Win32,60.0060006,62bbe60bf3d75ef465d3e404,,,,,,,,,,,,,,,,,,,,,,,,,,,,,,,,,,,,,,,,,,,,,,,,,,,,,,,,,,,,,,,,,,,,,,,,,,,,,,,,,,,,,,,,,,,,,,,,,,,,,,,,,,,,,,,,,,,,,,,,,,,,,,,,,,,,,,,,,,,,,,,,,,,,,,,,,,,,,,
0,84,84,55,1,,615d8ac74e143515e642e7d0,62bc0615caf5d97252f358bc,2022-06-29_09h59.38.940,Colour_Asymmetry_Pilot,2022.1.3,Win32,60.0060006,62bbe60bf3d75ef465d3e404,,,,,,,,,,,,,,,,,,,,,,,,,,,,,,,,,,,,,,,,,,,,,,,,,,,,,,,,,,,,,,,,,,,,,,,,,,,,,,,,,,,,,,,,,,,,,,,,,,,,,,,,,,,,,,,,,,,,,,,,,,,,,,,,,,,,,,,,,,,,,,,,,,,,,,,,,,,,,,
0,85,85,64,1,,615d8ac74e143515e642e7d0,62bc0615caf5d97252f358bc,2022-06-29_09h59.38.940,Colour_Asymmetry_Pilot,2022.1.3,Win32,60.0060006,62bbe60bf3d75ef465d3e404,,,,,,,,,,,,,,,,,,,,,,,,,,,,,,,,,,,,,,,,,,,,,,,,,,,,,,,,,,,,,,,,,,,,,,,,,,,,,,,,,,,,,,,,,,,,,,,,,,,,,,,,,,,,,,,,,,,,,,,,,,,,,,,,,,,,,,,,,,,,,,,,,,,,,,,,,,,,,,
0,86,86,58,1,,615d8ac74e143515e642e7d0,62bc0615caf5d97252f358bc,2022-06-29_09h59.38.940,Colour_Asymmetry_Pilot,2022.1.3,Win32,60.0060006,62bbe60bf3d75ef465d3e404,,,,,,,,,,,,,,,,,,,,,,,,,,,,,,,,,,,,,,,,,,,,,,,,,,,,,,,,,,,,,,,,,,,,,,,,,,,,,,,,,,,,,,,,,,,,,,,,,,,,,,,,,,,,,,,,,,,,,,,,,,,,,,,,,,,,,,,,,,,,,,,,,,,,,,,,,,,,,,
0,87,87,29,1,,615d8ac74e143515e642e7d0,62bc0615caf5d97252f358bc,2022-06-29_09h59.38.940,Colour_Asymmetry_Pilot,2022.1.3,Win32,60.0060006,62bbe60bf3d75ef465d3e404,,,,,,,,,,,,,,,,,,,,,,,,,,,,,,,,,,,,,,,,,,,,,,,,,,,,,,,,,,,,,,,,,,,,,,,,,,,,,,,,,,,,,,,,,,,,,,,,,,,,,,,,,,,,,,,,,,,,,,,,,,,,,,,,,,,,,,,,,,,,,,,,,,,,,,,,,,,,,,
0,88,88,13,1,,615d8ac74e143515e642e7d0,62bc0615caf5d97252f358bc,2022-06-29_09h59.38.940,Colour_Asymmetry_Pilot,2022.1.3,Win32,60.0060006,62bbe60bf3d75ef465d3e404,,,,,,,,,,,,,,,,,,,,,,,,,,,,,,,,,,,,,,,,,,,,,,,,,,,,,,,,,,,,,,,,,,,,,,,,,,,,,,,,,,,,,,,,,,,,,,,,,,,,,,,,,,,,,,,,,,,,,,,,,,,,,,,,,,,,,,,,,,,,,,,,,,,,,,,,,,,,,,
0,89,89,2,1,,615d8ac74e143515e642e7d0,62bc0615caf5d97252f358bc,2022-06-29_09h59.38.940,Colour_Asymmetry_Pilot,2022.1.3,Win32,60.0060006,62bbe60bf3d75ef465d3e404,,,,,,,,,,,,,,,,,,,,,,,,,,,,,,,,,,,,,,,,,,,,,,,,,,,,,,,,,,,,,,,,,,,,,,,,,,,,,,,,,,,,,,,,,,,,,,,,,,,,,,,,,,,,,,,,,,,,,,,,,,,,,,,,,,,,,,,,,,,,,,,,,,,,,,,,,,,,,,
0,90,90,80,1,,615d8ac74e143515e642e7d0,62bc0615caf5d97252f358bc,2022-06-29_09h59.38.940,Colour_Asymmetry_Pilot,2022.1.3,Win32,60.0060006,62bbe60bf3d75ef465d3e404,,,,,,,,,,,,,,,,,,,,,,,,,,,,,,,,,,,,,,,,,,,,,,,,,,,,,,,,,,,,,,,,,,,,,,,,,,,,,,,,,,,,,,,,,,,,,,,,,,,,,,,,,,,,,,,,,,,,,,,,,,,,,,,,,,,,,,,,,,,,,,,,,,,,,,,,,,,,,,
0,91,91,14,1,,615d8ac74e143515e642e7d0,62bc0615caf5d97252f358bc,2022-06-29_09h59.38.940,Colour_Asymmetry_Pilot,2022.1.3,Win32,60.0060006,62bbe60bf3d75ef465d3e404,,,,,,,,,,,,,,,,,,,,,,,,,,,,,,,,,,,,,,,,,,,,,,,,,,,,,,,,,,,,,,,,,,,,,,,,,,,,,,,,,,,,,,,,,,,,,,,,,,,,,,,,,,,,,,,,,,,,,,,,,,,,,,,,,,,,,,,,,,,,,,,,,,,,,,,,,,,,,,
0,92,92,41,1,,615d8ac74e143515e642e7d0,62bc0615caf5d97252f358bc,2022-06-29_09h59.38.940,Colour_Asymmetry_Pilot,2022.1.3,Win32,60.0060006,62bbe60bf3d75ef465d3e404,,,,,,,,,,,,,,,,,,,,,,,,,,,,,,,,,,,,,,,,,,,,,,,,,,,,,,,,,,,,,,,,,,,,,,,,,,,,,,,,,,,,,,,,,,,,,,,,,,,,,,,,,,,,,,,,,,,,,,,,,,,,,,,,,,,,,,,,,,,,,,,,,,,,,,,,,,,,,,
,,,,,,615d8ac74e143515e642e7d0,62bc0615caf5d97252f358bc,2022-06-29_09h59.38.940,Colour_Asymmetry_Pilot,2022.1.3,Win32,60.0060006,62bbe60bf3d75ef465d3e404,0,0,0,158,1,fourtwo,,,,,,,,,,,,,,,,,,,,,,,,,,,,,,,,,,,,,,,,,,,,,,,,,,,,,,,,,,,,,,,,,,,,,,,,,,,,,,,,,,,,,,,,,,,,,,,,,,,,,,,,,,,,,,,,,,,,,,,,,,,,,,,,,,,,,,,,,,,,,,,,,,,,,,,,
,,,,,,615d8ac74e143515e642e7d0,62bc0615caf5d97252f358bc,2022-06-29_09h59.38.940,Colour_Asymmetry_Pilot,2022.1.3,Win32,60.0060006,62bbe60bf3d75ef465d3e404,0,1,1,66,1,twoone,,,,,,,,,,,,,,,,,,,,,,,,,,,,,,,,,,,,,,,,,,,,,,,,,,,,,,,,,,,,,,,,,,,,,,,,,,,,,,,,,,,,,,,,,,,,,,,,,,,,,,,,,,,,,,,,,,,,,,,,,,,,,,,,,,,,,,,,,,,,,,,,,,,,,,,,
,,,,,,615d8ac74e143515e642e7d0,62bc0615caf5d97252f358bc,2022-06-29_09h59.38.940,Colour_Asymmetry_Pilot,2022.1.3,Win32,60.0060006,62bbe60bf3d75ef465d3e404,0,2,2,154,1,twoone,,,,,,,,,,,,,,,,,,,,,,,,,,,,,,,,,,,,,,,,,,,,,,,,,,,,,,,,,,,,,,,,,,,,,,,,,,,,,,,,,,,,,,,,,,,,,,,,,,,,,,,,,,,,,,,,,,,,,,,,,,,,,,,,,,,,,,,,,,,,,,,,,,,,,,,,
,,,,,,615d8ac74e143515e642e7d0,62bc0615caf5d97252f358bc,2022-06-29_09h59.38.940,Colour_Asymmetry_Pilot,2022.1.3,Win32,60.0060006,62bbe60bf3d75ef465d3e404,0,3,3,139,1,twofour,,,,,,,,,,,,,,,,,,,,,,,,,,,,,,,,,,,,,,,,,,,,,,,,,,,,,,,,,,,,,,,,,,,,,,,,,,,,,,,,,,,,,,,,,,,,,,,,,,,,,,,,,,,,,,,,,,,,,,,,,,,,,,,,,,,,,,,,,,,,,,,,,,,,,,,,
,,,,,,615d8ac74e143515e642e7d0,62bc0615caf5d97252f358bc,2022-06-29_09h59.38.940,Colour_Asymmetry_Pilot,2022.1.3,Win32,60.0060006,62bbe60bf3d75ef465d3e404,0,4,4,12,1,threeone,,,,,,,,,,,,,,,,,,,,,,,,,,,,,,,,,,,,,,,,,,,,,,,,,,,,,,,,,,,,,,,,,,,,,,,,,,,,,,,,,,,,,,,,,,,,,,,,,,,,,,,,,,,,,,,,,,,,,,,,,,,,,,,,,,,,,,,,,,,,,,,,,,,,,,,,
,,,,,,615d8ac74e143515e642e7d0,62bc0615caf5d97252f358bc,2022-06-29_09h59.38.940,Colour_Asymmetry_Pilot,2022.1.3,Win32,60.0060006,62bbe60bf3d75ef465d3e404,0,5,5,20,1,threeone,,,,,,,,,,,,,,,,,,,,,,,,,,,,,,,,,,,,,,,,,,,,,,,,,,,,,,,,,,,,,,,,,,,,,,,,,,,,,,,,,,,,,,,,,,,,,,,,,,,,,,,,,,,,,,,,,,,,,,,,,,,,,,,,,,,,,,,,,,,,,,,,,,,,,,,,
,,,,,,615d8ac74e143515e642e7d0,62bc0615caf5d97252f358bc,2022-06-29_09h59.38.940,Colour_Asymmetry_Pilot,2022.1.3,Win32,60.0060006,62bbe60bf3d75ef465d3e404,0,6,6,21,1,threefour,,,,,,,,,,,,,,,,,,,,,,,,,,,,,,,,,,,,,,,,,,,,,,,,,,,,,,,,,,,,,,,,,,,,,,,,,,,,,,,,,,,,,,,,,,,,,,,,,,,,,,,,,,,,,,,,,,,,,,,,,,,,,,,,,,,,,,,,,,,,,,,,,,,,,,,,
,,,,,,615d8ac74e143515e642e7d0,62bc0615caf5d97252f358bc,2022-06-29_09h59.38.940,Colour_Asymmetry_Pilot,2022.1.3,Win32,60.0060006,62bbe60bf3d75ef465d3e404,0,7,7,48,1,onetwo,,,,,,,,,,,,,,,,,,,,,,,,,,,,,,,,,,,,,,,,,,,,,,,,,,,,,,,,,,,,,,,,,,,,,,,,,,,,,,,,,,,,,,,,,,,,,,,,,,,,,,,,,,,,,,,,,,,,,,,,,,,,,,,,,,,,,,,,,,,,,,,,,,,,,,,,
,,,,,,615d8ac74e143515e642e7d0,62bc0615caf5d97252f358bc,2022-06-29_09h59.38.940,Colour_Asymmetry_Pilot,2022.1.3,Win32,60.0060006,62bbe60bf3d75ef465d3e404,0,8,8,71,1,fourthree,,,,,,,,,,,,,,,,,,,,,,,,,,,,,,,,,,,,,,,,,,,,,,,,,,,,,,,,,,,,,,,,,,,,,,,,,,,,,,,,,,,,,,,,,,,,,,,,,,,,,,,,,,,,,,,,,,,,,,,,,,,,,,,,,,,,,,,,,,,,,,,,,,,,,,,,
,,,,,,615d8ac74e143515e642e7d0,62bc0615caf5d97252f358bc,2022-06-29_09h59.38.940,Colour_Asymmetry_Pilot,2022.1.3,Win32,60.0060006,62bbe60bf3d75ef465d3e404,0,9,9,35,1,twofour,,,,,,,,,,,,,,,,,,,,,,,,,,,,,,,,,,,,,,,,,,,,,,,,,,,,,,,,,,,,,,,,,,,,,,,,,,,,,,,,,,,,,,,,,,,,,,,,,,,,,,,,,,,,,,,,,,,,,,,,,,,,,,,,,,,,,,,,,,,,,,,,,,,,,,,,
,,,,,,615d8ac74e143515e642e7d0,62bc0615caf5d97252f358bc,2022-06-29_09h59.38.940,Colour_Asymmetry_Pilot,2022.1.3,Win32,60.0060006,62bbe60bf3d75ef465d3e404,0,10,10,87,1,fourthree,,,,,,,,,,,,,,,,,,,,,,,,,,,,,,,,,,,,,,,,,,,,,,,,,,,,,,,,,,,,,,,,,,,,,,,,,,,,,,,,,,,,,,,,,,,,,,,,,,,,,,,,,,,,,,,,,,,,,,,,,,,,,,,,,,,,,,,,,,,,,,,,,,,,,,,,
,,,,,,615d8ac74e143515e642e7d0,62bc0615caf5d97252f358bc,2022-06-29_09h59.38.940,Colour_Asymmetry_Pilot,2022.1.3,Win32,60.0060006,62bbe60bf3d75ef465d3e404,0,11,11,104,1,onetwo,,,,,,,,,,,,,,,,,,,,,,,,,,,,,,,,,,,,,,,,,,,,,,,,,,,,,,,,,,,,,,,,,,,,,,,,,,,,,,,,,,,,,,,,,,,,,,,,,,,,,,,,,,,,,,,,,,,,,,,,,,,,,,,,,,,,,,,,,,,,,,,,,,,,,,,,
,,,,,,615d8ac74e143515e642e7d0,62bc0615caf5d97252f358bc,2022-06-29_09h59.38.940,Colour_Asymmetry_Pilot,2022.1.3,Win32,60.0060006,62bbe60bf3d75ef465d3e404,0,12,12,116,1,threeone,,,,,,,,,,,,,,,,,,,,,,,,,,,,,,,,,,,,,,,,,,,,,,,,,,,,,,,,,,,,,,,,,,,,,,,,,,,,,,,,,,,,,,,,,,,,,,,,,,,,,,,,,,,,,,,,,,,,,,,,,,,,,,,,,,,,,,,,,,,,,,,,,,,,,,,,
,,,,,,615d8ac74e143515e642e7d0,62bc0615caf5d97252f358bc,2022-06-29_09h59.38.940,Colour_Asymmetry_Pilot,2022.1.3,Win32,60.0060006,62bbe60bf3d75ef465d3e404,0,13,13,14,1,fourtwo,,,,,,,,,,,,,,,,,,,,,,,,,,,,,,,,,,,,,,,,,,,,,,,,,,,,,,,,,,,,,,,,,,,,,,,,,,,,,,,,,,,,,,,,,,,,,,,,,,,,,,,,,,,,,,,,,,,,,,,,,,,,,,,,,,,,,,,,,,,,,,,,,,,,,,,,
,,,,,,615d8ac74e143515e642e7d0,62bc0615caf5d97252f358bc,2022-06-29_09h59.38.940,Colour_Asymmetry_Pilot,2022.1.3,Win32,60.0060006,62bbe60bf3d75ef465d3e404,0,14,14,124,1,threeone,,,,,,,,,,,,,,,,,,,,,,,,,,,,,,,,,,,,,,,,,,,,,,,,,,,,,,,,,,,,,,,,,,,,,,,,,,,,,,,,,,,,,,,,,,,,,,,,,,,,,,,,,,,,,,,,,,,,,,,,,,,,,,,,,,,,,,,,,,,,,,,,,,,,,,,,
,,,,,,615d8ac74e143515e642e7d0,62bc0615caf5d97252f358bc,2022-06-29_09h59.38.940,Colour_Asymmetry_Pilot,2022.1.3,Win32,60.0060006,62bbe60bf3d75ef465d3e404,0,15,15,67,1,twofour,,,,,,,,,,,,,,,,,,,,,,,,,,,,,,,,,,,,,,,,,,,,,,,,,,,,,,,,,,,,,,,,,,,,,,,,,,,,,,,,,,,,,,,,,,,,,,,,,,,,,,,,,,,,,,,,,,,,,,,,,,,,,,,,,,,,,,,,,,,,,,,,,,,,,,,,
,,,,,,615d8ac74e143515e642e7d0,62bc0615caf5d97252f358bc,2022-06-29_09h59.38.940,Colour_Asymmetry_Pilot,2022.1.3,Win32,60.0060006,62bbe60bf3d75ef465d3e404,0,16,16,11,1,twofour,,,,,,,,,,,,,,,,,,,,,,,,,,,,,,,,,,,,,,,,,,,,,,,,,,,,,,,,,,,,,,,,,,,,,,,,,,,,,,,,,,,,,,,,,,,,,,,,,,,,,,,,,,,,,,,,,,,,,,,,,,,,,,,,,,,,,,,,,,,,,,,,,,,,,,,,
,,,,,,615d8ac74e143515e642e7d0,62bc0615caf5d97252f358bc,2022-06-29_09h59.38.940,Colour_Asymmetry_Pilot,2022.1.3,Win32,60.0060006,62bbe60bf3d75ef465d3e404,0,17,17,107,1,twofour,,,,,,,,,,,,,,,,,,,,,,,,,,,,,,,,,,,,,,,,,,,,,,,,,,,,,,,,,,,,,,,,,,,,,,,,,,,,,,,,,,,,,,,,,,,,,,,,,,,,,,,,,,,,,,,,,,,,,,,,,,,,,,,,,,,,,,,,,,,,,,,,,,,,,,,,
,,,,,,615d8ac74e143515e642e7d0,62bc0615caf5d97252f358bc,2022-06-29_09h59.38.940,Colour_Asymmetry_Pilot,2022.1.3,Win32,60.0060006,62bbe60bf3d75ef465d3e404,0,18,18,93,1,threefour,,,,,,,,,,,,,,,,,,,,,,,,,,,,,,,,,,,,,,,,,,,,,,,,,,,,,,,,,,,,,,,,,,,,,,,,,,,,,,,,,,,,,,,,,,,,,,,,,,,,,,,,,,,,,,,,,,,,,,,,,,,,,,,,,,,,,,,,,,,,,,,,,,,,,,,,
,,,,,,615d8ac74e143515e642e7d0,62bc0615caf5d97252f358bc,2022-06-29_09h59.38.940,Colour_Asymmetry_Pilot,2022.1.3,Win32,60.0060006,62bbe60bf3d75ef465d3e404,0,19,19,27,1,twofour,,,,,,,,,,,,,,,,,,,,,,,,,,,,,,,,,,,,,,,,,,,,,,,,,,,,,,,,,,,,,,,,,,,,,,,,,,,,,,,,,,,,,,,,,,,,,,,,,,,,,,,,,,,,,,,,,,,,,,,,,,,,,,,,,,,,,,,,,,,,,,,,,,,,,,,,
,,,,,,615d8ac74e143515e642e7d0,62bc0615caf5d97252f358bc,2022-06-29_09h59.38.940,Colour_Asymmetry_Pilot,2022.1.3,Win32,60.0060006,62bbe60bf3d75ef465d3e404,0,20,20,148,1,threeone,,,,,,,,,,,,,,,,,,,,,,,,,,,,,,,,,,,,,,,,,,,,,,,,,,,,,,,,,,,,,,,,,,,,,,,,,,,,,,,,,,,,,,,,,,,,,,,,,,,,,,,,,,,,,,,,,,,,,,,,,,,,,,,,,,,,,,,,,,,,,,,,,,,,,,,,
,,,,,,615d8ac74e143515e642e7d0,62bc0615caf5d97252f358bc,2022-06-29_09h59.38.940,Colour_Asymmetry_Pilot,2022.1.3,Win32,60.0060006,62bbe60bf3d75ef465d3e404,0,21,21,44,1,threeone,,,,,,,,,,,,,,,,,,,,,,,,,,,,,,,,,,,,,,,,,,,,,,,,,,,,,,,,,,,,,,,,,,,,,,,,,,,,,,,,,,,,,,,,,,,,,,,,,,,,,,,,,,,,,,,,,,,,,,,,,,,,,,,,,,,,,,,,,,,,,,,,,,,,,,,,
,,,,,,615d8ac74e143515e642e7d0,62bc0615caf5d97252f358bc,2022-06-29_09h59.38.940,Colour_Asymmetry_Pilot,2022.1.3,Win32,60.0060006,62bbe60bf3d75ef465d3e404,0,22,22,108,1,threeone,,,,,,,,,,,,,,,,,,,,,,,,,,,,,,,,,,,,,,,,,,,,,,,,,,,,,,,,,,,,,,,,,,,,,,,,,,,,,,,,,,,,,,,,,,,,,,,,,,,,,,,,,,,,,,,,,,,,,,,,,,,,,,,,,,,,,,,,,,,,,,,,,,,,,,,,
,,,,,,615d8ac74e143515e642e7d0,62bc0615caf5d97252f358bc,2022-06-29_09h59.38.940,Colour_Asymmetry_Pilot,2022.1.3,Win32,60.0060006,62bbe60bf3d75ef465d3e404,0,23,23,18,1,twoone,,,,,,,,,,,,,,,,,,,,,,,,,,,,,,,,,,,,,,,,,,,,,,,,,,,,,,,,,,,,,,,,,,,,,,,,,,,,,,,,,,,,,,,,,,,,,,,,,,,,,,,,,,,,,,,,,,,,,,,,,,,,,,,,,,,,,,,,,,,,,,,,,,,,,,,,
,,,,,,615d8ac74e143515e642e7d0,62bc0615caf5d97252f358bc,2022-06-29_09h59.38.940,Colour_Asymmetry_Pilot,2022.1.3,Win32,60.0060006,62bbe60bf3d75ef465d3e404,0,24,24,58,1,twoone,,,,,,,,,,,,,,,,,,,,,,,,,,,,,,,,,,,,,,,,,,,,,,,,,,,,,,,,,,,,,,,,,,,,,,,,,,,,,,,,,,,,,,,,,,,,,,,,,,,,,,,,,,,,,,,,,,,,,,,,,,,,,,,,,,,,,,,,,,,,,,,,,,,,,,,,
,,,,,,615d8ac74e143515e642e7d0,62bc0615caf5d97252f358bc,2022-06-29_09h59.38.940,Colour_Asymmetry_Pilot,2022.1.3,Win32,60.0060006,62bbe60bf3d75ef465d3e404,0,25,25,110,1,fourtwo,,,,,,,,,,,,,,,,,,,,,,,,,,,,,,,,,,,,,,,,,,,,,,,,,,,,,,,,,,,,,,,,,,,,,,,,,,,,,,,,,,,,,,,,,,,,,,,,,,,,,,,,,,,,,,,,,,,,,,,,,,,,,,,,,,,,,,,,,,,,,,,,,,,,,,,,
,,,,,,615d8ac74e143515e642e7d0,62bc0615caf5d97252f358bc,2022-06-29_09h59.38.940,Colour_Asymmetry_Pilot,2022.1.3,Win32,60.0060006,62bbe60bf3d75ef465d3e404,0,26,26,141,1,threefour,,,,,,,,,,,,,,,,,,,,,,,,,,,,,,,,,,,,,,,,,,,,,,,,,,,,,,,,,,,,,,,,,,,,,,,,,,,,,,,,,,,,,,,,,,,,,,,,,,,,,,,,,,,,,,,,,,,,,,,,,,,,,,,,,,,,,,,,,,,,,,,,,,,,,,,,
,,,,,,615d8ac74e143515e642e7d0,62bc0615caf5d97252f358bc,2022-06-29_09h59.38.940,Colour_Asymmetry_Pilot,2022.1.3,Win32,60.0060006,62bbe60bf3d75ef465d3e404,0,27,27,70,1,fourtwo,,,,,,,,,,,,,,,,,,,,,,,,,,,,,,,,,,,,,,,,,,,,,,,,,,,,,,,,,,,,,,,,,,,,,,,,,,,,,,,,,,,,,,,,,,,,,,,,,,,,,,,,,,,,,,,,,,,,,,,,,,,,,,,,,,,,,,,,,,,,,,,,,,,,,,,,
,,,,,,615d8ac74e143515e642e7d0,62bc0615caf5d97252f358bc,2022-06-29_09h59.38.940,Colour_Asymmetry_Pilot,2022.1.3,Win32,60.0060006,62bbe60bf3d75ef465d3e404,0,28,28,32,1,onetwo,,,,,,,,,,,,,,,,,,,,,,,,,,,,,,,,,,,,,,,,,,,,,,,,,,,,,,,,,,,,,,,,,,,,,,,,,,,,,,,,,,,,,,,,,,,,,,,,,,,,,,,,,,,,,,,,,,,,,,,,,,,,,,,,,,,,,,,,,,,,,,,,,,,,,,,,
,,,,,,615d8ac74e143515e642e7d0,62bc0615caf5d97252f358bc,2022-06-29_09h59.38.940,Colour_Asymmetry_Pilot,2022.1.3,Win32,60.0060006,62bbe60bf3d75ef465d3e404,0,29,29,61,1,threefour,,,,,,,,,,,,,,,,,,,,,,,,,,,,,,,,,,,,,,,,,,,,,,,,,,,,,,,,,,,,,,,,,,,,,,,,,,,,,,,,,,,,,,,,,,,,,,,,,,,,,,,,,,,,,,,,,,,,,,,,,,,,,,,,,,,,,,,,,,,,,,,,,,,,,,,,
,,,,,,615d8ac74e143515e642e7d0,62bc0615caf5d97252f358bc,2022-06-29_09h59.38.940,Colour_Asymmetry_Pilot,2022.1.3,Win32,60.0060006,62bbe60bf3d75ef465d3e404,0,30,30,8,1,onetwo,,,,,,,,,,,,,,,,,,,,,,,,,,,,,,,,,,,,,,,,,,,,,,,,,,,,,,,,,,,,,,,,,,,,,,,,,,,,,,,,,,,,,,,,,,,,,,,,,,,,,,,,,,,,,,,,,,,,,,,,,,,,,,,,,,,,,,,,,,,,,,,,,,,,,,,,
,,,,,,615d8ac74e143515e642e7d0,62bc0615caf5d97252f358bc,2022-06-29_09h59.38.940,Colour_Asymmetry_Pilot,2022.1.3,Win32,60.0060006,62bbe60bf3d75ef465d3e404,0,31,31,0,1,onetwo,,,,,,,,,,,,,,,,,,,,,,,,,,,,,,,,,,,,,,,,,,,,,,,,,,,,,,,,,,,,,,,,,,,,,,,,,,,,,,,,,,,,,,,,,,,,,,,,,,,,,,,,,,,,,,,,,,,,,,,,,,,,,,,,,,,,,,,,,,,,,,,,,,,,,,,,
,,,,,,615d8ac74e143515e642e7d0,62bc0615caf5d97252f358bc,2022-06-29_09h59.38.940,Colour_Asymmetry_Pilot,2022.1.3,Win32,60.0060006,62bbe60bf3d75ef465d3e404,0,32,32,59,1,twofour,,,,,,,,,,,,,,,,,,,,,,,,,,,,,,,,,,,,,,,,,,,,,,,,,,,,,,,,,,,,,,,,,,,,,,,,,,,,,,,,,,,,,,,,,,,,,,,,,,,,,,,,,,,,,,,,,,,,,,,,,,,,,,,,,,,,,,,,,,,,,,,,,,,,,,,,
,,,,,,615d8ac74e143515e642e7d0,62bc0615caf5d97252f358bc,2022-06-29_09h59.38.940,Colour_Asymmetry_Pilot,2022.1.3,Win32,60.0060006,62bbe60bf3d75ef465d3e404,0,33,33,122,1,twoone,,,,,,,,,,,,,,,,,,,,,,,,,,,,,,,,,,,,,,,,,,,,,,,,,,,,,,,,,,,,,,,,,,,,,,,,,,,,,,,,,,,,,,,,,,,,,,,,,,,,,,,,,,,,,,,,,,,,,,,,,,,,,,,,,,,,,,,,,,,,,,,,,,,,,,,,
,,,,,,615d8ac74e143515e642e7d0,62bc0615caf5d97252f358bc,2022-06-29_09h59.38.940,Colour_Asymmetry_Pilot,2022.1.3,Win32,60.0060006,62bbe60bf3d75ef465d3e404,0,34,34,83,1,twofour,,,,,,,,,,,,,,,,,,,,,,,,,,,,,,,,,,,,,,,,,,,,,,,,,,,,,,,,,,,,,,,,,,,,,,,,,,,,,,,,,,,,,,,,,,,,,,,,,,,,,,,,,,,,,,,,,,,,,,,,,,,,,,,,,,,,,,,,,,,,,,,,,,,,,,,,
,,,,,,615d8ac74e143515e642e7d0,62bc0615caf5d97252f358bc,2022-06-29_09h59.38.940,Colour_Asymmetry_Pilot,2022.1.3,Win32,60.0060006,62bbe60bf3d75ef465d3e404,0,35,35,85,1,threefour,,,,,,,,,,,,,,,,,,,,,,,,,,,,,,,,,,,,,,,,,,,,,,,,,,,,,,,,,,,,,,,,,,,,,,,,,,,,,,,,,,,,,,,,,,,,,,,,,,,,,,,,,,,,,,,,,,,,,,,,,,,,,,,,,,,,,,,,,,,,,,,,,,,,,,,,
,,,,,,615d8ac74e143515e642e7d0,62bc0615caf5d97252f358bc,2022-06-29_09h59.38.940,Colour_Asymmetry_Pilot,2022.1.3,Win32,60.0060006,62bbe60bf3d75ef465d3e404,0,36,36,152,1,onetwo,,,,,,,,,,,,,,,,,,,,,,,,,,,,,,,,,,,,,,,,,,,,,,,,,,,,,,,,,,,,,,,,,,,,,,,,,,,,,,,,,,,,,,,,,,,,,,,,,,,,,,,,,,,,,,,,,,,,,,,,,,,,,,,,,,,,,,,,,,,,,,,,,,,,,,,,
,,,,,,615d8ac74e143515e642e7d0,62bc0615caf5d97252f358bc,2022-06-29_09h59.38.940,Colour_Asymmetry_Pilot,2022.1.3,Win32,60.0060006,62bbe60bf3d75ef465d3e404,0,37,37,55,1,fourthree,,,,,,,,,,,,,,,,,,,,,,,,,,,,,,,,,,,,,,,,,,,,,,,,,,,,,,,,,,,,,,,,,,,,,,,,,,,,,,,,,,,,,,,,,,,,,,,,,,,,,,,,,,,,,,,,,,,,,,,,,,,,,,,,,,,,,,,,,,,,,,,,,,,,,,,,
,,,,,,615d8ac74e143515e642e7d0,62bc0615caf5d97252f358bc,2022-06-29_09h59.38.940,Colour_Asymmetry_Pilot,2022.1.3,Win32,60.0060006,62bbe60bf3d75ef465d3e404,0,38,38,19,1,twofour,,,,,,,,,,,,,,,,,,,,,,,,,,,,,,,,,,,,,,,,,,,,,,,,,,,,,,,,,,,,,,,,,,,,,,,,,,,,,,,,,,,,,,,,,,,,,,,,,,,,,,,,,,,,,,,,,,,,,,,,,,,,,,,,,,,,,,,,,,,,,,,,,,,,,,,,
,,,,,,615d8ac74e143515e642e7d0,62bc0615caf5d97252f358bc,2022-06-29_09h59.38.940,Colour_Asymmetry_Pilot,2022.1.3,Win32,60.0060006,62bbe60bf3d75ef465d3e404,0,39,39,145,1,onethree,,,,,,,,,,,,,,,,,,,,,,,,,,,,,,,,,,,,,,,,,,,,,,,,,,,,,,,,,,,,,,,,,,,,,,,,,,,,,,,,,,,,,,,,,,,,,,,,,,,,,,,,,,,,,,,,,,,,,,,,,,,,,,,,,,,,,,,,,,,,,,,,,,,,,,,,
,,,,,,615d8ac74e143515e642e7d0,62bc0615caf5d97252f358bc,2022-06-29_09h59.38.940,Colour_Asymmetry_Pilot,2022.1.3,Win32,60.0060006,62bbe60bf3d75ef465d3e404,0,40,40,135,1,fourthree,,,,,,,,,,,,,,,,,,,,,,,,,,,,,,,,,,,,,,,,,,,,,,,,,,,,,,,,,,,,,,,,,,,,,,,,,,,,,,,,,,,,,,,,,,,,,,,,,,,,,,,,,,,,,,,,,,,,,,,,,,,,,,,,,,,,,,,,,,,,,,,,,,,,,,,,
,,,,,,615d8ac74e143515e642e7d0,62bc0615caf5d97252f358bc,2022-06-29_09h59.38.940,Colour_Asymmetry_Pilot,2022.1.3,Win32,60.0060006,62bbe60bf3d75ef465d3e404,0,41,41,74,1,twoone,,,,,,,,,,,,,,,,,,,,,,,,,,,,,,,,,,,,,,,,,,,,,,,,,,,,,,,,,,,,,,,,,,,,,,,,,,,,,,,,,,,,,,,,,,,,,,,,,,,,,,,,,,,,,,,,,,,,,,,,,,,,,,,,,,,,,,,,,,,,,,,,,,,,,,,,
,,,,,,615d8ac74e143515e642e7d0,62bc0615caf5d97252f358bc,2022-06-29_09h59.38.940,Colour_Asymmetry_Pilot,2022.1.3,Win32,60.0060006,62bbe60bf3d75ef465d3e404,0,42,42,33,1,onethree,,,,,,,,,,,,,,,,,,,,,,,,,,,,,,,,,,,,,,,,,,,,,,,,,,,,,,,,,,,,,,,,,,,,,,,,,,,,,,,,,,,,,,,,,,,,,,,,,,,,,,,,,,,,,,,,,,,,,,,,,,,,,,,,,,,,,,,,,,,,,,,,,,,,,,,,
,,,,,,615d8ac74e143515e642e7d0,62bc0615caf5d97252f358bc,2022-06-29_09h59.38.940,Colour_Asymmetry_Pilot,2022.1.3,Win32,60.0060006,62bbe60bf3d75ef465d3e404,0,43,43,123,1,twofour,,,,,,,,,,,,,,,,,,,,,,,,,,,,,,,,,,,,,,,,,,,,,,,,,,,,,,,,,,,,,,,,,,,,,,,,,,,,,,,,,,,,,,,,,,,,,,,,,,,,,,,,,,,,,,,,,,,,,,,,,,,,,,,,,,,,,,,,,,,,,,,,,,,,,,,,
,,,,,,615d8ac74e143515e642e7d0,62bc0615caf5d97252f358bc,2022-06-29_09h59.38.940,Colour_Asymmetry_Pilot,2022.1.3,Win32,60.0060006,62bbe60bf3d75ef465d3e404,0,44,44,143,1,fourthree,,,,,,,,,,,,,,,,,,,,,,,,,,,,,,,,,,,,,,,,,,,,,,,,,,,,,,,,,,,,,,,,,,,,,,,,,,,,,,,,,,,,,,,,,,,,,,,,,,,,,,,,,,,,,,,,,,,,,,,,,,,,,,,,,,,,,,,,,,,,,,,,,,,,,,,,
,,,,,,615d8ac74e143515e642e7d0,62bc0615caf5d97252f358bc,2022-06-29_09h59.38.940,Colour_Asymmetry_Pilot,2022.1.3,Win32,60.0060006,62bbe60bf3d75ef465d3e404,0,45,45,41,1,onethree,,,,,,,,,,,,,,,,,,,,,,,,,,,,,,,,,,,,,,,,,,,,,,,,,,,,,,,,,,,,,,,,,,,,,,,,,,,,,,,,,,,,,,,,,,,,,,,,,,,,,,,,,,,,,,,,,,,,,,,,,,,,,,,,,,,,,,,,,,,,,,,,,,,,,,,,
,,,,,,615d8ac74e143515e642e7d0,62bc0615caf5d97252f358bc,2022-06-29_09h59.38.940,Colour_Asymmetry_Pilot,2022.1.3,Win32,60.0060006,62bbe60bf3d75ef465d3e404,0,46,46,26,1,twoone,,,,,,,,,,,,,,,,,,,,,,,,,,,,,,,,,,,,,,,,,,,,,,,,,,,,,,,,,,,,,,,,,,,,,,,,,,,,,,,,,,,,,,,,,,,,,,,,,,,,,,,,,,,,,,,,,,,,,,,,,,,,,,,,,,,,,,,,,,,,,,,,,,,,,,,,
,,,,,,615d8ac74e143515e642e7d0,62bc0615caf5d97252f358bc,2022-06-29_09h59.38.940,Colour_Asymmetry_Pilot,2022.1.3,Win32,60.0060006,62bbe60bf3d75ef465d3e404,0,47,47,69,1,threefour,,,,,,,,,,,,,,,,,,,,,,,,,,,,,,,,,,,,,,,,,,,,,,,,,,,,,,,,,,,,,,,,,,,,,,,,,,,,,,,,,,,,,,,,,,,,,,,,,,,,,,,,,,,,,,,,,,,,,,,,,,,,,,,,,,,,,,,,,,,,,,,,,,,,,,,,
,,,,,,615d8ac74e143515e642e7d0,62bc0615caf5d97252f358bc,2022-06-29_09h59.38.940,Colour_Asymmetry_Pilot,2022.1.3,Win32,60.0060006,62bbe60bf3d75ef465d3e404,0,48,48,112,1,onetwo,,,,,,,,,,,,,,,,,,,,,,,,,,,,,,,,,,,,,,,,,,,,,,,,,,,,,,,,,,,,,,,,,,,,,,,,,,,,,,,,,,,,,,,,,,,,,,,,,,,,,,,,,,,,,,,,,,,,,,,,,,,,,,,,,,,,,,,,,,,,,,,,,,,,,,,,
,,,,,,615d8ac74e143515e642e7d0,62bc0615caf5d97252f358bc,2022-06-29_09h59.38.940,Colour_Asymmetry_Pilot,2022.1.3,Win32,60.0060006,62bbe60bf3d75ef465d3e404,0,49,49,117,1,threefour,,,,,,,,,,,,,,,,,,,,,,,,,,,,,,,,,,,,,,,,,,,,,,,,,,,,,,,,,,,,,,,,,,,,,,,,,,,,,,,,,,,,,,,,,,,,,,,,,,,,,,,,,,,,,,,,,,,,,,,,,,,,,,,,,,,,,,,,,,,,,,,,,,,,,,,,
,,,,,,615d8ac74e143515e642e7d0,62bc0615caf5d97252f358bc,2022-06-29_09h59.38.940,Colour_Asymmetry_Pilot,2022.1.3,Win32,60.0060006,62bbe60bf3d75ef465d3e404,0,50,50,113,1,onethree,,,,,,,,,,,,,,,,,,,,,,,,,,,,,,,,,,,,,,,,,,,,,,,,,,,,,,,,,,,,,,,,,,,,,,,,,,,,,,,,,,,,,,,,,,,,,,,,,,,,,,,,,,,,,,,,,,,,,,,,,,,,,,,,,,,,,,,,,,,,,,,,,,,,,,,,
,,,,,,615d8ac74e143515e642e7d0,62bc0615caf5d97252f358bc,2022-06-29_09h59.38.940,Colour_Asymmetry_Pilot,2022.1.3,Win32,60.0060006,62bbe60bf3d75ef465d3e404,0,51,51,138,1,twoone,,,,,,,,,,,,,,,,,,,,,,,,,,,,,,,,,,,,,,,,,,,,,,,,,,,,,,,,,,,,,,,,,,,,,,,,,,,,,,,,,,,,,,,,,,,,,,,,,,,,,,,,,,,,,,,,,,,,,,,,,,,,,,,,,,,,,,,,,,,,,,,,,,,,,,,,
,,,,,,615d8ac74e143515e642e7d0,62bc0615caf5d97252f358bc,2022-06-29_09h59.38.940,Colour_Asymmetry_Pilot,2022.1.3,Win32,60.0060006,62bbe60bf3d75ef465d3e404,0,52,52,159,1,fourthree,,,,,,,,,,,,,,,,,,,,,,,,,,,,,,,,,,,,,,,,,,,,,,,,,,,,,,,,,,,,,,,,,,,,,,,,,,,,,,,,,,,,,,,,,,,,,,,,,,,,,,,,,,,,,,,,,,,,,,,,,,,,,,,,,,,,,,,,,,,,,,,,,,,,,,,,
,,,,,,615d8ac74e143515e642e7d0,62bc0615caf5d97252f358bc,2022-06-29_09h59.38.940,Colour_Asymmetry_Pilot,2022.1.3,Win32,60.0060006,62bbe60bf3d75ef465d3e404,0,53,53,39,1,fourthree,,,,,,,,,,,,,,,,,,,,,,,,,,,,,,,,,,,,,,,,,,,,,,,,,,,,,,,,,,,,,,,,,,,,,,,,,,,,,,,,,,,,,,,,,,,,,,,,,,,,,,,,,,,,,,,,,,,,,,,,,,,,,,,,,,,,,,,,,,,,,,,,,,,,,,,,
,,,,,,615d8ac74e143515e642e7d0,62bc0615caf5d97252f358bc,2022-06-29_09h59.38.940,Colour_Asymmetry_Pilot,2022.1.3,Win32,60.0060006,62bbe60bf3d75ef465d3e404,0,54,54,28,1,threeone,,,,,,,,,,,,,,,,,,,,,,,,,,,,,,,,,,,,,,,,,,,,,,,,,,,,,,,,,,,,,,,,,,,,,,,,,,,,,,,,,,,,,,,,,,,,,,,,,,,,,,,,,,,,,,,,,,,,,,,,,,,,,,,,,,,,,,,,,,,,,,,,,,,,,,,,
,,,,,,615d8ac74e143515e642e7d0,62bc0615caf5d97252f358bc,2022-06-29_09h59.38.940,Colour_Asymmetry_Pilot,2022.1.3,Win32,60.0060006,62bbe60bf3d75ef465d3e404,0,55,55,91,1,twofour,,,,,,,,,,,,,,,,,,,,,,,,,,,,,,,,,,,,,,,,,,,,,,,,,,,,,,,,,,,,,,,,,,,,,,,,,,,,,,,,,,,,,,,,,,,,,,,,,,,,,,,,,,,,,,,,,,,,,,,,,,,,,,,,,,,,,,,,,,,,,,,,,,,,,,,,
,,,,,,615d8ac74e143515e642e7d0,62bc0615caf5d97252f358bc,2022-06-29_09h59.38.940,Colour_Asymmetry_Pilot,2022.1.3,Win32,60.0060006,62bbe60bf3d75ef465d3e404,0,56,56,3,1,twofour,,,,,,,,,,,,,,,,,,,,,,,,,,,,,,,,,,,,,,,,,,,,,,,,,,,,,,,,,,,,,,,,,,,,,,,,,,,,,,,,,,,,,,,,,,,,,,,,,,,,,,,,,,,,,,,,,,,,,,,,,,,,,,,,,,,,,,,,,,,,,,,,,,,,,,,,
,,,,,,615d8ac74e143515e642e7d0,62bc0615caf5d97252f358bc,2022-06-29_09h59.38.940,Colour_Asymmetry_Pilot,2022.1.3,Win32,60.0060006,62bbe60bf3d75ef465d3e404,0,57,57,155,1,twofour,,,,,,,,,,,,,,,,,,,,,,,,,,,,,,,,,,,,,,,,,,,,,,,,,,,,,,,,,,,,,,,,,,,,,,,,,,,,,,,,,,,,,,,,,,,,,,,,,,,,,,,,,,,,,,,,,,,,,,,,,,,,,,,,,,,,,,,,,,,,,,,,,,,,,,,,
,,,,,,615d8ac74e143515e642e7d0,62bc0615caf5d97252f358bc,2022-06-29_09h59.38.940,Colour_Asymmetry_Pilot,2022.1.3,Win32,60.0060006,62bbe60bf3d75ef465d3e404,0,58,58,7,1,fourthree,,,,,,,,,,,,,,,,,,,,,,,,,,,,,,,,,,,,,,,,,,,,,,,,,,,,,,,,,,,,,,,,,,,,,,,,,,,,,,,,,,,,,,,,,,,,,,,,,,,,,,,,,,,,,,,,,,,,,,,,,,,,,,,,,,,,,,,,,,,,,,,,,,,,,,,,
,,,,,,615d8ac74e143515e642e7d0,62bc0615caf5d97252f358bc,2022-06-29_09h59.38.940,Colour_Asymmetry_Pilot,2022.1.3,Win32,60.0060006,62bbe60bf3d75ef465d3e404,0,59,59,156,1,threeone,,,,,,,,,,,,,,,,,,,,,,,,,,,,,,,,,,,,,,,,,,,,,,,,,,,,,,,,,,,,,,,,,,,,,,,,,,,,,,,,,,,,,,,,,,,,,,,,,,,,,,,,,,,,,,,,,,,,,,,,,,,,,,,,,,,,,,,,,,,,,,,,,,,,,,,,
,,,,,,615d8ac74e143515e642e7d0,62bc0615caf5d97252f358bc,2022-06-29_09h59.38.940,Colour_Asymmetry_Pilot,2022.1.3,Win32,60.0060006,62bbe60bf3d75ef465d3e404,0,60,60,13,1,threefour,,,,,,,,,,,,,,,,,,,,,,,,,,,,,,,,,,,,,,,,,,,,,,,,,,,,,,,,,,,,,,,,,,,,,,,,,,,,,,,,,,,,,,,,,,,,,,,,,,,,,,,,,,,,,,,,,,,,,,,,,,,,,,,,,,,,,,,,,,,,,,,,,,,,,,,,
,,,,,,615d8ac74e143515e642e7d0,62bc0615caf5d97252f358bc,2022-06-29_09h59.38.940,Colour_Asymmetry_Pilot,2022.1.3,Win32,60.0060006,62bbe60bf3d75ef465d3e404,0,61,61,76,1,threeone,,,,,,,,,,,,,,,,,,,,,,,,,,,,,,,,,,,,,,,,,,,,,,,,,,,,,,,,,,,,,,,,,,,,,,,,,,,,,,,,,,,,,,,,,,,,,,,,,,,,,,,,,,,,,,,,,,,,,,,,,,,,,,,,,,,,,,,,,,,,,,,,,,,,,,,,
,,,,,,615d8ac74e143515e642e7d0,62bc0615caf5d97252f358bc,2022-06-29_09h59.38.940,Colour_Asymmetry_Pilot,2022.1.3,Win32,60.0060006,62bbe60bf3d75ef465d3e404,0,62,62,37,1,threefour,,,,,,,,,,,,,,,,,,,,,,,,,,,,,,,,,,,,,,,,,,,,,,,,,,,,,,,,,,,,,,,,,,,,,,,,,,,,,,,,,,,,,,,,,,,,,,,,,,,,,,,,,,,,,,,,,,,,,,,,,,,,,,,,,,,,,,,,,,,,,,,,,,,,,,,,
,,,,,,615d8ac74e143515e642e7d0,62bc0615caf5d97252f358bc,2022-06-29_09h59.38.940,Colour_Asymmetry_Pilot,2022.1.3,Win32,60.0060006,62bbe60bf3d75ef465d3e404,0,63,63,146,1,twoone,,,,,,,,,,,,,,,,,,,,,,,,,,,,,,,,,,,,,,,,,,,,,,,,,,,,,,,,,,,,,,,,,,,,,,,,,,,,,,,,,,,,,,,,,,,,,,,,,,,,,,,,,,,,,,,,,,,,,,,,,,,,,,,,,,,,,,,,,,,,,,,,,,,,,,,,
,,,,,,615d8ac74e143515e642e7d0,62bc0615caf5d97252f358bc,2022-06-29_09h59.38.940,Colour_Asymmetry_Pilot,2022.1.3,Win32,60.0060006,62bbe60bf3d75ef465d3e404,0,64,64,120,1,onetwo,,,,,,,,,,,,,,,,,,,,,,,,,,,,,,,,,,,,,,,,,,,,,,,,,,,,,,,,,,,,,,,,,,,,,,,,,,,,,,,,,,,,,,,,,,,,,,,,,,,,,,,,,,,,,,,,,,,,,,,,,,,,,,,,,,,,,,,,,,,,,,,,,,,,,,,,
,,,,,,615d8ac74e143515e642e7d0,62bc0615caf5d97252f358bc,2022-06-29_09h59.38.940,Colour_Asymmetry_Pilot,2022.1.3,Win32,60.0060006,62bbe60bf3d75ef465d3e404,0,65,65,79,1,fourthree,,,,,,,,,,,,,,,,,,,,,,,,,,,,,,,,,,,,,,,,,,,,,,,,,,,,,,,,,,,,,,,,,,,,,,,,,,,,,,,,,,,,,,,,,,,,,,,,,,,,,,,,,,,,,,,,,,,,,,,,,,,,,,,,,,,,,,,,,,,,,,,,,,,,,,,,
,,,,,,615d8ac74e143515e642e7d0,62bc0615caf5d97252f358bc,2022-06-29_09h59.38.940,Colour_Asymmetry_Pilot,2022.1.3,Win32,60.0060006,62bbe60bf3d75ef465d3e404,0,66,66,36,1,threeone,,,,,,,,,,,,,,,,,,,,,,,,,,,,,,,,,,,,,,,,,,,,,,,,,,,,,,,,,,,,,,,,,,,,,,,,,,,,,,,,,,,,,,,,,,,,,,,,,,,,,,,,,,,,,,,,,,,,,,,,,,,,,,,,,,,,,,,,,,,,,,,,,,,,,,,,
,,,,,,615d8ac74e143515e642e7d0,62bc0615caf5d97252f358bc,2022-06-29_09h59.38.940,Colour_Asymmetry_Pilot,2022.1.3,Win32,60.0060006,62bbe60bf3d75ef465d3e404,0,67,67,114,1,twoone,,,,,,,,,,,,,,,,,,,,,,,,,,,,,,,,,,,,,,,,,,,,,,,,,,,,,,,,,,,,,,,,,,,,,,,,,,,,,,,,,,,,,,,,,,,,,,,,,,,,,,,,,,,,,,,,,,,,,,,,,,,,,,,,,,,,,,,,,,,,,,,,,,,,,,,,
,,,,,,615d8ac74e143515e642e7d0,62bc0615caf5d97252f358bc,2022-06-29_09h59.38.940,Colour_Asymmetry_Pilot,2022.1.3,Win32,60.0060006,62bbe60bf3d75ef465d3e404,0,68,68,57,1,onethree,,,,,,,,,,,,,,,,,,,,,,,,,,,,,,,,,,,,,,,,,,,,,,,,,,,,,,,,,,,,,,,,,,,,,,,,,,,,,,,,,,,,,,,,,,,,,,,,,,,,,,,,,,,,,,,,,,,,,,,,,,,,,,,,,,,,,,,,,,,,,,,,,,,,,,,,
,,,,,,615d8ac74e143515e642e7d0,62bc0615caf5d97252f358bc,2022-06-29_09h59.38.940,Colour_Asymmetry_Pilot,2022.1.3,Win32,60.0060006,62bbe60bf3d75ef465d3e404,0,69,69,121,1,onethree,,,,,,,,,,,,,,,,,,,,,,,,,,,,,,,,,,,,,,,,,,,,,,,,,,,,,,,,,,,,,,,,,,,,,,,,,,,,,,,,,,,,,,,,,,,,,,,,,,,,,,,,,,,,,,,,,,,,,,,,,,,,,,,,,,,,,,,,,,,,,,,,,,,,,,,,
,,,,,,615d8ac74e143515e642e7d0,62bc0615caf5d97252f358bc,2022-06-29_09h59.38.940,Colour_Asymmetry_Pilot,2022.1.3,Win32,60.0060006,62bbe60bf3d75ef465d3e404,0,70,70,72,1,onetwo,,,,,,,,,,,,,,,,,,,,,,,,,,,,,,,,,,,,,,,,,,,,,,,,,,,,,,,,,,,,,,,,,,,,,,,,,,,,,,,,,,,,,,,,,,,,,,,,,,,,,,,,,,,,,,,,,,,,,,,,,,,,,,,,,,,,,,,,,,,,,,,,,,,,,,,,
,,,,,,615d8ac74e143515e642e7d0,62bc0615caf5d97252f358bc,2022-06-29_09h59.38.940,Colour_Asymmetry_Pilot,2022.1.3,Win32,60.0060006,62bbe60bf3d75ef465d3e404,0,71,71,31,1,fourthree,,,,,,,,,,,,,,,,,,,,,,,,,,,,,,,,,,,,,,,,,,,,,,,,,,,,,,,,,,,,,,,,,,,,,,,,,,,,,,,,,,,,,,,,,,,,,,,,,,,,,,,,,,,,,,,,,,,,,,,,,,,,,,,,,,,,,,,,,,,,,,,,,,,,,,,,
,,,,,,615d8ac74e143515e642e7d0,62bc0615caf5d97252f358bc,2022-06-29_09h59.38.940,Colour_Asymmetry_Pilot,2022.1.3,Win32,60.0060006,62bbe60bf3d75ef465d3e404,0,72,72,103,1,fourthree,,,,,,,,,,,,,,,,,,,,,,,,,,,,,,,,,,,,,,,,,,,,,,,,,,,,,,,,,,,,,,,,,,,,,,,,,,,,,,,,,,,,,,,,,,,,,,,,,,,,,,,,,,,,,,,,,,,,,,,,,,,,,,,,,,,,,,,,,,,,,,,,,,,,,,,,
,,,,,,615d8ac74e143515e642e7d0,62bc0615caf5d97252f358bc,2022-06-29_09h59.38.940,Colour_Asymmetry_Pilot,2022.1.3,Win32,60.0060006,62bbe60bf3d75ef465d3e404,0,73,73,92,1,threeone,,,,,,,,,,,,,,,,,,,,,,,,,,,,,,,,,,,,,,,,,,,,,,,,,,,,,,,,,,,,,,,,,,,,,,,,,,,,,,,,,,,,,,,,,,,,,,,,,,,,,,,,,,,,,,,,,,,,,,,,,,,,,,,,,,,,,,,,,,,,,,,,,,,,,,,,
,,,,,,615d8ac74e143515e642e7d0,62bc0615caf5d97252f358bc,2022-06-29_09h59.38.940,Colour_Asymmetry_Pilot,2022.1.3,Win32,60.0060006,62bbe60bf3d75ef465d3e404,0,74,74,73,1,onethree,,,,,,,,,,,,,,,,,,,,,,,,,,,,,,,,,,,,,,,,,,,,,,,,,,,,,,,,,,,,,,,,,,,,,,,,,,,,,,,,,,,,,,,,,,,,,,,,,,,,,,,,,,,,,,,,,,,,,,,,,,,,,,,,,,,,,,,,,,,,,,,,,,,,,,,,
,,,,,,615d8ac74e143515e642e7d0,62bc0615caf5d97252f358bc,2022-06-29_09h59.38.940,Colour_Asymmetry_Pilot,2022.1.3,Win32,60.0060006,62bbe60bf3d75ef465d3e404,0,75,75,111,1,fourthree,,,,,,,,,,,,,,,,,,,,,,,,,,,,,,,,,,,,,,,,,,,,,,,,,,,,,,,,,,,,,,,,,,,,,,,,,,,,,,,,,,,,,,,,,,,,,,,,,,,,,,,,,,,,,,,,,,,,,,,,,,,,,,,,,,,,,,,,,,,,,,,,,,,,,,,,
,,,,,,615d8ac74e143515e642e7d0,62bc0615caf5d97252f358bc,2022-06-29_09h59.38.940,Colour_Asymmetry_Pilot,2022.1.3,Win32,60.0060006,62bbe60bf3d75ef465d3e404,0,76,76,1,1,onethree,,,,,,,,,,,,,,,,,,,,,,,,,,,,,,,,,,,,,,,,,,,,,,,,,,,,,,,,,,,,,,,,,,,,,,,,,,,,,,,,,,,,,,,,,,,,,,,,,,,,,,,,,,,,,,,,,,,,,,,,,,,,,,,,,,,,,,,,,,,,,,,,,,,,,,,,
,,,,,,615d8ac74e143515e642e7d0,62bc0615caf5d97252f358bc,2022-06-29_09h59.38.940,Colour_Asymmetry_Pilot,2022.1.3,Win32,60.0060006,62bbe60bf3d75ef465d3e404,0,77,77,136,1,onetwo,,,,,,,,,,,,,,,,,,,,,,,,,,,,,,,,,,,,,,,,,,,,,,,,,,,,,,,,,,,,,,,,,,,,,,,,,,,,,,,,,,,,,,,,,,,,,,,,,,,,,,,,,,,,,,,,,,,,,,,,,,,,,,,,,,,,,,,,,,,,,,,,,,,,,,,,
,,,,,,615d8ac74e143515e642e7d0,62bc0615caf5d97252f358bc,2022-06-29_09h59.38.940,Colour_Asymmetry_Pilot,2022.1.3,Win32,60.0060006,62bbe60bf3d75ef465d3e404,0,78,78,160,1,onetwo,,,,,,,,,,,,,,,,,,,,,,,,,,,,,,,,,,,,,,,,,,,,,,,,,,,,,,,,,,,,,,,,,,,,,,,,,,,,,,,,,,,,,,,,,,,,,,,,,,,,,,,,,,,,,,,,,,,,,,,,,,,,,,,,,,,,,,,,,,,,,,,,,,,,,,,,
,,,,,,615d8ac74e143515e642e7d0,62bc0615caf5d97252f358bc,2022-06-29_09h59.38.940,Colour_Asymmetry_Pilot,2022.1.3,Win32,60.0060006,62bbe60bf3d75ef465d3e404,0,79,79,43,1,twofour,,,,,,,,,,,,,,,,,,,,,,,,,,,,,,,,,,,,,,,,,,,,,,,,,,,,,,,,,,,,,,,,,,,,,,,,,,,,,,,,,,,,,,,,,,,,,,,,,,,,,,,,,,,,,,,,,,,,,,,,,,,,,,,,,,,,,,,,,,,,,,,,,,,,,,,,
,,,,,,615d8ac74e143515e642e7d0,62bc0615caf5d97252f358bc,2022-06-29_09h59.38.940,Colour_Asymmetry_Pilot,2022.1.3,Win32,60.0060006,62bbe60bf3d75ef465d3e404,0,80,80,137,1,onethree,,,,,,,,,,,,,,,,,,,,,,,,,,,,,,,,,,,,,,,,,,,,,,,,,,,,,,,,,,,,,,,,,,,,,,,,,,,,,,,,,,,,,,,,,,,,,,,,,,,,,,,,,,,,,,,,,,,,,,,,,,,,,,,,,,,,,,,,,,,,,,,,,,,,,,,,
,,,,,,615d8ac74e143515e642e7d0,62bc0615caf5d97252f358bc,2022-06-29_09h59.38.940,Colour_Asymmetry_Pilot,2022.1.3,Win32,60.0060006,62bbe60bf3d75ef465d3e404,0,81,81,65,1,onethree,,,,,,,,,,,,,,,,,,,,,,,,,,,,,,,,,,,,,,,,,,,,,,,,,,,,,,,,,,,,,,,,,,,,,,,,,,,,,,,,,,,,,,,,,,,,,,,,,,,,,,,,,,,,,,,,,,,,,,,,,,,,,,,,,,,,,,,,,,,,,,,,,,,,,,,,
,,,,,,615d8ac74e143515e642e7d0,62bc0615caf5d97252f358bc,2022-06-29_09h59.38.940,Colour_Asymmetry_Pilot,2022.1.3,Win32,60.0060006,62bbe60bf3d75ef465d3e404,0,82,82,46,1,fourtwo,,,,,,,,,,,,,,,,,,,,,,,,,,,,,,,,,,,,,,,,,,,,,,,,,,,,,,,,,,,,,,,,,,,,,,,,,,,,,,,,,,,,,,,,,,,,,,,,,,,,,,,,,,,,,,,,,,,,,,,,,,,,,,,,,,,,,,,,,,,,,,,,,,,,,,,,
,,,,,,615d8ac74e143515e642e7d0,62bc0615caf5d97252f358bc,2022-06-29_09h59.38.940,Colour_Asymmetry_Pilot,2022.1.3,Win32,60.0060006,62bbe60bf3d75ef465d3e404,0,83,83,42,1,twoone,,,,,,,,,,,,,,,,,,,,,,,,,,,,,,,,,,,,,,,,,,,,,,,,,,,,,,,,,,,,,,,,,,,,,,,,,,,,,,,,,,,,,,,,,,,,,,,,,,,,,,,,,,,,,,,,,,,,,,,,,,,,,,,,,,,,,,,,,,,,,,,,,,,,,,,,
,,,,,,615d8ac74e143515e642e7d0,62bc0615caf5d97252f358bc,2022-06-29_09h59.38.940,Colour_Asymmetry_Pilot,2022.1.3,Win32,60.0060006,62bbe60bf3d75ef465d3e404,0,84,84,101,1,threefour,,,,,,,,,,,,,,,,,,,,,,,,,,,,,,,,,,,,,,,,,,,,,,,,,,,,,,,,,,,,,,,,,,,,,,,,,,,,,,,,,,,,,,,,,,,,,,,,,,,,,,,,,,,,,,,,,,,,,,,,,,,,,,,,,,,,,,,,,,,,,,,,,,,,,,,,
,,,,,,615d8ac74e143515e642e7d0,62bc0615caf5d97252f358bc,2022-06-29_09h59.38.940,Colour_Asymmetry_Pilot,2022.1.3,Win32,60.0060006,62bbe60bf3d75ef465d3e404,0,85,85,49,1,onethree,,,,,,,,,,,,,,,,,,,,,,,,,,,,,,,,,,,,,,,,,,,,,,,,,,,,,,,,,,,,,,,,,,,,,,,,,,,,,,,,,,,,,,,,,,,,,,,,,,,,,,,,,,,,,,,,,,,,,,,,,,,,,,,,,,,,,,,,,,,,,,,,,,,,,,,,
,,,,,,615d8ac74e143515e642e7d0,62bc0615caf5d97252f358bc,2022-06-29_09h59.38.940,Colour_Asymmetry_Pilot,2022.1.3,Win32,60.0060006,62bbe60bf3d75ef465d3e404,0,86,86,126,1,fourtwo,,,,,,,,,,,,,,,,,,,,,,,,,,,,,,,,,,,,,,,,,,,,,,,,,,,,,,,,,,,,,,,,,,,,,,,,,,,,,,,,,,,,,,,,,,,,,,,,,,,,,,,,,,,,,,,,,,,,,,,,,,,,,,,,,,,,,,,,,,,,,,,,,,,,,,,,
,,,,,,615d8ac74e143515e642e7d0,62bc0615caf5d97252f358bc,2022-06-29_09h59.38.940,Colour_Asymmetry_Pilot,2022.1.3,Win32,60.0060006,62bbe60bf3d75ef465d3e404,0,87,87,100,1,threeone,,,,,,,,,,,,,,,,,,,,,,,,,,,,,,,,,,,,,,,,,,,,,,,,,,,,,,,,,,,,,,,,,,,,,,,,,,,,,,,,,,,,,,,,,,,,,,,,,,,,,,,,,,,,,,,,,,,,,,,,,,,,,,,,,,,,,,,,,,,,,,,,,,,,,,,,
,,,,,,615d8ac74e143515e642e7d0,62bc0615caf5d97252f358bc,2022-06-29_09h59.38.940,Colour_Asymmetry_Pilot,2022.1.3,Win32,60.0060006,62bbe60bf3d75ef465d3e404,0,88,88,80,1,onetwo,,,,,,,,,,,,,,,,,,,,,,,,,,,,,,,,,,,,,,,,,,,,,,,,,,,,,,,,,,,,,,,,,,,,,,,,,,,,,,,,,,,,,,,,,,,,,,,,,,,,,,,,,,,,,,,,,,,,,,,,,,,,,,,,,,,,,,,,,,,,,,,,,,,,,,,,
,,,,,,615d8ac74e143515e642e7d0,62bc0615caf5d97252f358bc,2022-06-29_09h59.38.940,Colour_Asymmetry_Pilot,2022.1.3,Win32,60.0060006,62bbe60bf3d75ef465d3e404,0,89,89,53,1,threefour,,,,,,,,,,,,,,,,,,,,,,,,,,,,,,,,,,,,,,,,,,,,,,,,,,,,,,,,,,,,,,,,,,,,,,,,,,,,,,,,,,,,,,,,,,,,,,,,,,,,,,,,,,,,,,,,,,,,,,,,,,,,,,,,,,,,,,,,,,,,,,,,,,,,,,,,
,,,,,,615d8ac74e143515e642e7d0,62bc0615caf5d97252f358bc,2022-06-29_09h59.38.940,Colour_Asymmetry_Pilot,2022.1.3,Win32,60.0060006,62bbe60bf3d75ef465d3e404,0,90,90,125,1,threefour,,,,,,,,,,,,,,,,,,,,,,,,,,,,,,,,,,,,,,,,,,,,,,,,,,,,,,,,,,,,,,,,,,,,,,,,,,,,,,,,,,,,,,,,,,,,,,,,,,,,,,,,,,,,,,,,,,,,,,,,,,,,,,,,,,,,,,,,,,,,,,,,,,,,,,,,
,,,,,,615d8ac74e143515e642e7d0,62bc0615caf5d97252f358bc,2022-06-29_09h59.38.940,Colour_Asymmetry_Pilot,2022.1.3,Win32,60.0060006,62bbe60bf3d75ef465d3e404,0,91,91,129,1,onethree,,,,,,,,,,,,,,,,,,,,,,,,,,,,,,,,,,,,,,,,,,,,,,,,,,,,,,,,,,,,,,,,,,,,,,,,,,,,,,,,,,,,,,,,,,,,,,,,,,,,,,,,,,,,,,,,,,,,,,,,,,,,,,,,,,,,,,,,,,,,,,,,,,,,,,,,
,,,,,,615d8ac74e143515e642e7d0,62bc0615caf5d97252f358bc,2022-06-29_09h59.38.940,Colour_Asymmetry_Pilot,2022.1.3,Win32,60.0060006,62bbe60bf3d75ef465d3e404,0,92,92,23,1,fourthree,,,,,,,,,,,,,,,,,,,,,,,,,,,,,,,,,,,,,,,,,,,,,,,,,,,,,,,,,,,,,,,,,,,,,,,,,,,,,,,,,,,,,,,,,,,,,,,,,,,,,,,,,,,,,,,,,,,,,,,,,,,,,,,,,,,,,,,,,,,,,,,,,,,,,,,,
,,,,,,615d8ac74e143515e642e7d0,62bc0615caf5d97252f358bc,2022-06-29_09h59.38.940,Colour_Asymmetry_Pilot,2022.1.3,Win32,60.0060006,62bbe60bf3d75ef465d3e404,0,93,93,77,1,threefour,,,,,,,,,,,,,,,,,,,,,,,,,,,,,,,,,,,,,,,,,,,,,,,,,,,,,,,,,,,,,,,,,,,,,,,,,,,,,,,,,,,,,,,,,,,,,,,,,,,,,,,,,,,,,,,,,,,,,,,,,,,,,,,,,,,,,,,,,,,,,,,,,,,,,,,,
,,,,,,615d8ac74e143515e642e7d0,62bc0615caf5d97252f358bc,2022-06-29_09h59.38.940,Colour_Asymmetry_Pilot,2022.1.3,Win32,60.0060006,62bbe60bf3d75ef465d3e404,0,94,94,78,1,fourtwo,,,,,,,,,,,,,,,,,,,,,,,,,,,,,,,,,,,,,,,,,,,,,,,,,,,,,,,,,,,,,,,,,,,,,,,,,,,,,,,,,,,,,,,,,,,,,,,,,,,,,,,,,,,,,,,,,,,,,,,,,,,,,,,,,,,,,,,,,,,,,,,,,,,,,,,,
,,,,,,615d8ac74e143515e642e7d0,62bc0615caf5d97252f358bc,2022-06-29_09h59.38.940,Colour_Asymmetry_Pilot,2022.1.3,Win32,60.0060006,62bbe60bf3d75ef465d3e404,0,95,95,75,1,twofour,,,,,,,,,,,,,,,,,,,,,,,,,,,,,,,,,,,,,,,,,,,,,,,,,,,,,,,,,,,,,,,,,,,,,,,,,,,,,,,,,,,,,,,,,,,,,,,,,,,,,,,,,,,,,,,,,,,,,,,,,,,,,,,,,,,,,,,,,,,,,,,,,,,,,,,,
,,,,,,615d8ac74e143515e642e7d0,62bc0615caf5d97252f358bc,2022-06-29_09h59.38.940,Colour_Asymmetry_Pilot,2022.1.3,Win32,60.0060006,62bbe60bf3d75ef465d3e404,0,96,96,34,1,twoone,,,,,,,,,,,,,,,,,,,,,,,,,,,,,,,,,,,,,,,,,,,,,,,,,,,,,,,,,,,,,,,,,,,,,,,,,,,,,,,,,,,,,,,,,,,,,,,,,,,,,,,,,,,,,,,,,,,,,,,,,,,,,,,,,,,,,,,,,,,,,,,,,,,,,,,,
,,,,,,615d8ac74e143515e642e7d0,62bc0615caf5d97252f358bc,2022-06-29_09h59.38.940,Colour_Asymmetry_Pilot,2022.1.3,Win32,60.0060006,62bbe60bf3d75ef465d3e404,0,97,97,157,1,threefour,,,,,,,,,,,,,,,,,,,,,,,,,,,,,,,,,,,,,,,,,,,,,,,,,,,,,,,,,,,,,,,,,,,,,,,,,,,,,,,,,,,,,,,,,,,,,,,,,,,,,,,,,,,,,,,,,,,,,,,,,,,,,,,,,,,,,,,,,,,,,,,,,,,,,,,,
,,,,,,615d8ac74e143515e642e7d0,62bc0615caf5d97252f358bc,2022-06-29_09h59.38.940,Colour_Asymmetry_Pilot,2022.1.3,Win32,60.0060006,62bbe60bf3d75ef465d3e404,0,98,98,102,1,fourtwo,,,,,,,,,,,,,,,,,,,,,,,,,,,,,,,,,,,,,,,,,,,,,,,,,,,,,,,,,,,,,,,,,,,,,,,,,,,,,,,,,,,,,,,,,,,,,,,,,,,,,,,,,,,,,,,,,,,,,,,,,,,,,,,,,,,,,,,,,,,,,,,,,,,,,,,,
,,,,,,615d8ac74e143515e642e7d0,62bc0615caf5d97252f358bc,2022-06-29_09h59.38.940,Colour_Asymmetry_Pilot,2022.1.3,Win32,60.0060006,62bbe60bf3d75ef465d3e404,0,99,99,56,1,onetwo,,,,,,,,,,,,,,,,,,,,,,,,,,,,,,,,,,,,,,,,,,,,,,,,,,,,,,,,,,,,,,,,,,,,,,,,,,,,,,,,,,,,,,,,,,,,,,,,,,,,,,,,,,,,,,,,,,,,,,,,,,,,,,,,,,,,,,,,,,,,,,,,,,,,,,,,
,,,,,,615d8ac74e143515e642e7d0,62bc0615caf5d97252f358bc,2022-06-29_09h59.38.940,Colour_Asymmetry_Pilot,2022.1.3,Win32,60.0060006,62bbe60bf3d75ef465d3e404,0,100,100,142,1,fourtwo,,,,,,,,,,,,,,,,,,,,,,,,,,,,,,,,,,,,,,,,,,,,,,,,,,,,,,,,,,,,,,,,,,,,,,,,,,,,,,,,,,,,,,,,,,,,,,,,,,,,,,,,,,,,,,,,,,,,,,,,,,,,,,,,,,,,,,,,,,,,,,,,,,,,,,,,
,,,,,,615d8ac74e143515e642e7d0,62bc0615caf5d97252f358bc,2022-06-29_09h59.38.940,Colour_Asymmetry_Pilot,2022.1.3,Win32,60.0060006,62bbe60bf3d75ef465d3e404,0,101,101,6,1,fourtwo,,,,,,,,,,,,,,,,,,,,,,,,,,,,,,,,,,,,,,,,,,,,,,,,,,,,,,,,,,,,,,,,,,,,,,,,,,,,,,,,,,,,,,,,,,,,,,,,,,,,,,,,,,,,,,,,,,,,,,,,,,,,,,,,,,,,,,,,,,,,,,,,,,,,,,,,
,,,,,,615d8ac74e143515e642e7d0,62bc0615caf5d97252f358bc,2022-06-29_09h59.38.940,Colour_Asymmetry_Pilot,2022.1.3,Win32,60.0060006,62bbe60bf3d75ef465d3e404,0,102,102,95,1,fourthree,,,,,,,,,,,,,,,,,,,,,,,,,,,,,,,,,,,,,,,,,,,,,,,,,,,,,,,,,,,,,,,,,,,,,,,,,,,,,,,,,,,,,,,,,,,,,,,,,,,,,,,,,,,,,,,,,,,,,,,,,,,,,,,,,,,,,,,,,,,,,,,,,,,,,,,,
,,,,,,615d8ac74e143515e642e7d0,62bc0615caf5d97252f358bc,2022-06-29_09h59.38.940,Colour_Asymmetry_Pilot,2022.1.3,Win32,60.0060006,62bbe60bf3d75ef465d3e404,0,103,103,15,1,fourthree,,,,,,,,,,,,,,,,,,,,,,,,,,,,,,,,,,,,,,,,,,,,,,,,,,,,,,,,,,,,,,,,,,,,,,,,,,,,,,,,,,,,,,,,,,,,,,,,,,,,,,,,,,,,,,,,,,,,,,,,,,,,,,,,,,,,,,,,,,,,,,,,,,,,,,,,
,,,,,,615d8ac74e143515e642e7d0,62bc0615caf5d97252f358bc,2022-06-29_09h59.38.940,Colour_Asymmetry_Pilot,2022.1.3,Win32,60.0060006,62bbe60bf3d75ef465d3e404,0,104,104,47,1,fourthree,,,,,,,,,,,,,,,,,,,,,,,,,,,,,,,,,,,,,,,,,,,,,,,,,,,,,,,,,,,,,,,,,,,,,,,,,,,,,,,,,,,,,,,,,,,,,,,,,,,,,,,,,,,,,,,,,,,,,,,,,,,,,,,,,,,,,,,,,,,,,,,,,,,,,,,,
,,,,,,615d8ac74e143515e642e7d0,62bc0615caf5d97252f358bc,2022-06-29_09h59.38.940,Colour_Asymmetry_Pilot,2022.1.3,Win32,60.0060006,62bbe60bf3d75ef465d3e404,0,105,105,24,1,onetwo,,,,,,,,,,,,,,,,,,,,,,,,,,,,,,,,,,,,,,,,,,,,,,,,,,,,,,,,,,,,,,,,,,,,,,,,,,,,,,,,,,,,,,,,,,,,,,,,,,,,,,,,,,,,,,,,,,,,,,,,,,,,,,,,,,,,,,,,,,,,,,,,,,,,,,,,
,,,,,,615d8ac74e143515e642e7d0,62bc0615caf5d97252f358bc,2022-06-29_09h59.38.940,Colour_Asymmetry_Pilot,2022.1.3,Win32,60.0060006,62bbe60bf3d75ef465d3e404,0,106,106,60,1,threeone,,,,,,,,,,,,,,,,,,,,,,,,,,,,,,,,,,,,,,,,,,,,,,,,,,,,,,,,,,,,,,,,,,,,,,,,,,,,,,,,,,,,,,,,,,,,,,,,,,,,,,,,,,,,,,,,,,,,,,,,,,,,,,,,,,,,,,,,,,,,,,,,,,,,,,,,
,,,,,,615d8ac74e143515e642e7d0,62bc0615caf5d97252f358bc,2022-06-29_09h59.38.940,Colour_Asymmetry_Pilot,2022.1.3,Win32,60.0060006,62bbe60bf3d75ef465d3e404,0,107,107,106,1,twoone,,,,,,,,,,,,,,,,,,,,,,,,,,,,,,,,,,,,,,,,,,,,,,,,,,,,,,,,,,,,,,,,,,,,,,,,,,,,,,,,,,,,,,,,,,,,,,,,,,,,,,,,,,,,,,,,,,,,,,,,,,,,,,,,,,,,,,,,,,,,,,,,,,,,,,,,
,,,,,,615d8ac74e143515e642e7d0,62bc0615caf5d97252f358bc,2022-06-29_09h59.38.940,Colour_Asymmetry_Pilot,2022.1.3,Win32,60.0060006,62bbe60bf3d75ef465d3e404,0,108,108,40,1,onetwo,,,,,,,,,,,,,,,,,,,,,,,,,,,,,,,,,,,,,,,,,,,,,,,,,,,,,,,,,,,,,,,,,,,,,,,,,,,,,,,,,,,,,,,,,,,,,,,,,,,,,,,,,,,,,,,,,,,,,,,,,,,,,,,,,,,,,,,,,,,,,,,,,,,,,,,,
,,,,,,615d8ac74e143515e642e7d0,62bc0615caf5d97252f358bc,2022-06-29_09h59.38.940,Colour_Asymmetry_Pilot,2022.1.3,Win32,60.0060006,62bbe60bf3d75ef465d3e404,0,109,109,130,1,twoone,,,,,,,,,,,,,,,,,,,,,,,,,,,,,,,,,,,,,,,,,,,,,,,,,,,,,,,,,,,,,,,,,,,,,,,,,,,,,,,,,,,,,,,,,,,,,,,,,,,,,,,,,,,,,,,,,,,,,,,,,,,,,,,,,,,,,,,,,,,,,,,,,,,,,,,,
,,,,,,615d8ac74e143515e642e7d0,62bc0615caf5d97252f358bc,2022-06-29_09h59.38.940,Colour_Asymmetry_Pilot,2022.1.3,Win32,60.0060006,62bbe60bf3d75ef465d3e404,0,110,110,153,1,onethree,,,,,,,,,,,,,,,,,,,,,,,,,,,,,,,,,,,,,,,,,,,,,,,,,,,,,,,,,,,,,,,,,,,,,,,,,,,,,,,,,,,,,,,,,,,,,,,,,,,,,,,,,,,,,,,,,,,,,,,,,,,,,,,,,,,,,,,,,,,,,,,,,,,,,,,,
,,,,,,615d8ac74e143515e642e7d0,62bc0615caf5d97252f358bc,2022-06-29_09h59.38.940,Colour_Asymmetry_Pilot,2022.1.3,Win32,60.0060006,62bbe60bf3d75ef465d3e404,0,111,111,84,1,threeone,,,,,,,,,,,,,,,,,,,,,,,,,,,,,,,,,,,,,,,,,,,,,,,,,,,,,,,,,,,,,,,,,,,,,,,,,,,,,,,,,,,,,,,,,,,,,,,,,,,,,,,,,,,,,,,,,,,,,,,,,,,,,,,,,,,,,,,,,,,,,,,,,,,,,,,,
,,,,,,615d8ac74e143515e642e7d0,62bc0615caf5d97252f358bc,2022-06-29_09h59.38.940,Colour_Asymmetry_Pilot,2022.1.3,Win32,60.0060006,62bbe60bf3d75ef465d3e404,0,112,112,94,1,fourtwo,,,,,,,,,,,,,,,,,,,,,,,,,,,,,,,,,,,,,,,,,,,,,,,,,,,,,,,,,,,,,,,,,,,,,,,,,,,,,,,,,,,,,,,,,,,,,,,,,,,,,,,,,,,,,,,,,,,,,,,,,,,,,,,,,,,,,,,,,,,,,,,,,,,,,,,,
,,,,,,615d8ac74e143515e642e7d0,62bc0615caf5d97252f358bc,2022-06-29_09h59.38.940,Colour_Asymmetry_Pilot,2022.1.3,Win32,60.0060006,62bbe60bf3d75ef465d3e404,0,113,113,16,1,onetwo,,,,,,,,,,,,,,,,,,,,,,,,,,,,,,,,,,,,,,,,,,,,,,,,,,,,,,,,,,,,,,,,,,,,,,,,,,,,,,,,,,,,,,,,,,,,,,,,,,,,,,,,,,,,,,,,,,,,,,,,,,,,,,,,,,,,,,,,,,,,,,,,,,,,,,,,
,,,,,,615d8ac74e143515e642e7d0,62bc0615caf5d97252f358bc,2022-06-29_09h59.38.940,Colour_Asymmetry_Pilot,2022.1.3,Win32,60.0060006,62bbe60bf3d75ef465d3e404,0,114,114,51,1,twofour,,,,,,,,,,,,,,,,,,,,,,,,,,,,,,,,,,,,,,,,,,,,,,,,,,,,,,,,,,,,,,,,,,,,,,,,,,,,,,,,,,,,,,,,,,,,,,,,,,,,,,,,,,,,,,,,,,,,,,,,,,,,,,,,,,,,,,,,,,,,,,,,,,,,,,,,
,,,,,,615d8ac74e143515e642e7d0,62bc0615caf5d97252f358bc,2022-06-29_09h59.38.940,Colour_Asymmetry_Pilot,2022.1.3,Win32,60.0060006,62bbe60bf3d75ef465d3e404,0,115,115,99,1,twofour,,,,,,,,,,,,,,,,,,,,,,,,,,,,,,,,,,,,,,,,,,,,,,,,,,,,,,,,,,,,,,,,,,,,,,,,,,,,,,,,,,,,,,,,,,,,,,,,,,,,,,,,,,,,,,,,,,,,,,,,,,,,,,,,,,,,,,,,,,,,,,,,,,,,,,,,
,,,,,,615d8ac74e143515e642e7d0,62bc0615caf5d97252f358bc,2022-06-29_09h59.38.940,Colour_Asymmetry_Pilot,2022.1.3,Win32,60.0060006,62bbe60bf3d75ef465d3e404,0,116,116,86,1,fourtwo,,,,,,,,,,,,,,,,,,,,,,,,,,,,,,,,,,,,,,,,,,,,,,,,,,,,,,,,,,,,,,,,,,,,,,,,,,,,,,,,,,,,,,,,,,,,,,,,,,,,,,,,,,,,,,,,,,,,,,,,,,,,,,,,,,,,,,,,,,,,,,,,,,,,,,,,
,,,,,,615d8ac74e143515e642e7d0,62bc0615caf5d97252f358bc,2022-06-29_09h59.38.940,Colour_Asymmetry_Pilot,2022.1.3,Win32,60.0060006,62bbe60bf3d75ef465d3e404,0,117,117,97,1,onethree,,,,,,,,,,,,,,,,,,,,,,,,,,,,,,,,,,,,,,,,,,,,,,,,,,,,,,,,,,,,,,,,,,,,,,,,,,,,,,,,,,,,,,,,,,,,,,,,,,,,,,,,,,,,,,,,,,,,,,,,,,,,,,,,,,,,,,,,,,,,,,,,,,,,,,,,
,,,,,,615d8ac74e143515e642e7d0,62bc0615caf5d97252f358bc,2022-06-29_09h59.38.940,Colour_Asymmetry_Pilot,2022.1.3,Win32,60.0060006,62bbe60bf3d75ef465d3e404,0,118,118,63,1,fourthree,,,,,,,,,,,,,,,,,,,,,,,,,,,,,,,,,,,,,,,,,,,,,,,,,,,,,,,,,,,,,,,,,,,,,,,,,,,,,,,,,,,,,,,,,,,,,,,,,,,,,,,,,,,,,,,,,,,,,,,,,,,,,,,,,,,,,,,,,,,,,,,,,,,,,,,,
,,,,,,615d8ac74e143515e642e7d0,62bc0615caf5d97252f358bc,2022-06-29_09h59.38.940,Colour_Asymmetry_Pilot,2022.1.3,Win32,60.0060006,62bbe60bf3d75ef465d3e404,0,119,119,68,1,threeone,,,,,,,,,,,,,,,,,,,,,,,,,,,,,,,,,,,,,,,,,,,,,,,,,,,,,,,,,,,,,,,,,,,,,,,,,,,,,,,,,,,,,,,,,,,,,,,,,,,,,,,,,,,,,,,,,,,,,,,,,,,,,,,,,,,,,,,,,,,,,,,,,,,,,,,,
,,,,,,615d8ac74e143515e642e7d0,62bc0615caf5d97252f358bc,2022-06-29_09h59.38.940,Colour_Asymmetry_Pilot,2022.1.3,Win32,60.0060006,62bbe60bf3d75ef465d3e404,0,120,120,52,1,threeone,,,,,,,,,,,,,,,,,,,,,,,,,,,,,,,,,,,,,,,,,,,,,,,,,,,,,,,,,,,,,,,,,,,,,,,,,,,,,,,,,,,,,,,,,,,,,,,,,,,,,,,,,,,,,,,,,,,,,,,,,,,,,,,,,,,,,,,,,,,,,,,,,,,,,,,,
,,,,,,615d8ac74e143515e642e7d0,62bc0615caf5d97252f358bc,2022-06-29_09h59.38.940,Colour_Asymmetry_Pilot,2022.1.3,Win32,60.0060006,62bbe60bf3d75ef465d3e404,0,121,121,105,1,onethree,,,,,,,,,,,,,,,,,,,,,,,,,,,,,,,,,,,,,,,,,,,,,,,,,,,,,,,,,,,,,,,,,,,,,,,,,,,,,,,,,,,,,,,,,,,,,,,,,,,,,,,,,,,,,,,,,,,,,,,,,,,,,,,,,,,,,,,,,,,,,,,,,,,,,,,,
,,,,,,615d8ac74e143515e642e7d0,62bc0615caf5d97252f358bc,2022-06-29_09h59.38.940,Colour_Asymmetry_Pilot,2022.1.3,Win32,60.0060006,62bbe60bf3d75ef465d3e404,0,122,122,17,1,onethree,,,,,,,,,,,,,,,,,,,,,,,,,,,,,,,,,,,,,,,,,,,,,,,,,,,,,,,,,,,,,,,,,,,,,,,,,,,,,,,,,,,,,,,,,,,,,,,,,,,,,,,,,,,,,,,,,,,,,,,,,,,,,,,,,,,,,,,,,,,,,,,,,,,,,,,,
,,,,,,615d8ac74e143515e642e7d0,62bc0615caf5d97252f358bc,2022-06-29_09h59.38.940,Colour_Asymmetry_Pilot,2022.1.3,Win32,60.0060006,62bbe60bf3d75ef465d3e404,0,123,123,90,1,twoone,,,,,,,,,,,,,,,,,,,,,,,,,,,,,,,,,,,,,,,,,,,,,,,,,,,,,,,,,,,,,,,,,,,,,,,,,,,,,,,,,,,,,,,,,,,,,,,,,,,,,,,,,,,,,,,,,,,,,,,,,,,,,,,,,,,,,,,,,,,,,,,,,,,,,,,,
,,,,,,615d8ac74e143515e642e7d0,62bc0615caf5d97252f358bc,2022-06-29_09h59.38.940,Colour_Asymmetry_Pilot,2022.1.3,Win32,60.0060006,62bbe60bf3d75ef465d3e404,0,124,124,62,1,fourtwo,,,,,,,,,,,,,,,,,,,,,,,,,,,,,,,,,,,,,,,,,,,,,,,,,,,,,,,,,,,,,,,,,,,,,,,,,,,,,,,,,,,,,,,,,,,,,,,,,,,,,,,,,,,,,,,,,,,,,,,,,,,,,,,,,,,,,,,,,,,,,,,,,,,,,,,,
,,,,,,615d8ac74e143515e642e7d0,62bc0615caf5d97252f358bc,2022-06-29_09h59.38.940,Colour_Asymmetry_Pilot,2022.1.3,Win32,60.0060006,62bbe60bf3d75ef465d3e404,0,125,125,38,1,fourtwo,,,,,,,,,,,,,,,,,,,,,,,,,,,,,,,,,,,,,,,,,,,,,,,,,,,,,,,,,,,,,,,,,,,,,,,,,,,,,,,,,,,,,,,,,,,,,,,,,,,,,,,,,,,,,,,,,,,,,,,,,,,,,,,,,,,,,,,,,,,,,,,,,,,,,,,,
,,,,,,615d8ac74e143515e642e7d0,62bc0615caf5d97252f358bc,2022-06-29_09h59.38.940,Colour_Asymmetry_Pilot,2022.1.3,Win32,60.0060006,62bbe60bf3d75ef465d3e404,0,126,126,150,1,fourtwo,,,,,,,,,,,,,,,,,,,,,,,,,,,,,,,,,,,,,,,,,,,,,,,,,,,,,,,,,,,,,,,,,,,,,,,,,,,,,,,,,,,,,,,,,,,,,,,,,,,,,,,,,,,,,,,,,,,,,,,,,,,,,,,,,,,,,,,,,,,,,,,,,,,,,,,,
,,,,,,615d8ac74e143515e642e7d0,62bc0615caf5d97252f358bc,2022-06-29_09h59.38.940,Colour_Asymmetry_Pilot,2022.1.3,Win32,60.0060006,62bbe60bf3d75ef465d3e404,0,127,127,118,1,fourtwo,,,,,,,,,,,,,,,,,,,,,,,,,,,,,,,,,,,,,,,,,,,,,,,,,,,,,,,,,,,,,,,,,,,,,,,,,,,,,,,,,,,,,,,,,,,,,,,,,,,,,,,,,,,,,,,,,,,,,,,,,,,,,,,,,,,,,,,,,,,,,,,,,,,,,,,,
,,,,,,615d8ac74e143515e642e7d0,62bc0615caf5d97252f358bc,2022-06-29_09h59.38.940,Colour_Asymmetry_Pilot,2022.1.3,Win32,60.0060006,62bbe60bf3d75ef465d3e404,0,128,128,25,1,onethree,,,,,,,,,,,,,,,,,,,,,,,,,,,,,,,,,,,,,,,,,,,,,,,,,,,,,,,,,,,,,,,,,,,,,,,,,,,,,,,,,,,,,,,,,,,,,,,,,,,,,,,,,,,,,,,,,,,,,,,,,,,,,,,,,,,,,,,,,,,,,,,,,,,,,,,,
,,,,,,615d8ac74e143515e642e7d0,62bc0615caf5d97252f358bc,2022-06-29_09h59.38.940,Colour_Asymmetry_Pilot,2022.1.3,Win32,60.0060006,62bbe60bf3d75ef465d3e404,0,129,129,151,1,fourthree,,,,,,,,,,,,,,,,,,,,,,,,,,,,,,,,,,,,,,,,,,,,,,,,,,,,,,,,,,,,,,,,,,,,,,,,,,,,,,,,,,,,,,,,,,,,,,,,,,,,,,,,,,,,,,,,,,,,,,,,,,,,,,,,,,,,,,,,,,,,,,,,,,,,,,,,
,,,,,,615d8ac74e143515e642e7d0,62bc0615caf5d97252f358bc,2022-06-29_09h59.38.940,Colour_Asymmetry_Pilot,2022.1.3,Win32,60.0060006,62bbe60bf3d75ef465d3e404,0,130,130,161,1,onethree,,,,,,,,,,,,,,,,,,,,,,,,,,,,,,,,,,,,,,,,,,,,,,,,,,,,,,,,,,,,,,,,,,,,,,,,,,,,,,,,,,,,,,,,,,,,,,,,,,,,,,,,,,,,,,,,,,,,,,,,,,,,,,,,,,,,,,,,,,,,,,,,,,,,,,,,
,,,,,,615d8ac74e143515e642e7d0,62bc0615caf5d97252f358bc,2022-06-29_09h59.38.940,Colour_Asymmetry_Pilot,2022.1.3,Win32,60.0060006,62bbe60bf3d75ef465d3e404,0,131,131,147,1,twofour,,,,,,,,,,,,,,,,,,,,,,,,,,,,,,,,,,,,,,,,,,,,,,,,,,,,,,,,,,,,,,,,,,,,,,,,,,,,,,,,,,,,,,,,,,,,,,,,,,,,,,,,,,,,,,,,,,,,,,,,,,,,,,,,,,,,,,,,,,,,,,,,,,,,,,,,
,,,,,,615d8ac74e143515e642e7d0,62bc0615caf5d97252f358bc,2022-06-29_09h59.38.940,Colour_Asymmetry_Pilot,2022.1.3,Win32,60.0060006,62bbe60bf3d75ef465d3e404,0,132,132,29,1,threefour,,,,,,,,,,,,,,,,,,,,,,,,,,,,,,,,,,,,,,,,,,,,,,,,,,,,,,,,,,,,,,,,,,,,,,,,,,,,,,,,,,,,,,,,,,,,,,,,,,,,,,,,,,,,,,,,,,,,,,,,,,,,,,,,,,,,,,,,,,,,,,,,,,,,,,,,
,,,,,,615d8ac74e143515e642e7d0,62bc0615caf5d97252f358bc,2022-06-29_09h59.38.940,Colour_Asymmetry_Pilot,2022.1.3,Win32,60.0060006,62bbe60bf3d75ef465d3e404,0,133,133,96,1,onetwo,,,,,,,,,,,,,,,,,,,,,,,,,,,,,,,,,,,,,,,,,,,,,,,,,,,,,,,,,,,,,,,,,,,,,,,,,,,,,,,,,,,,,,,,,,,,,,,,,,,,,,,,,,,,,,,,,,,,,,,,,,,,,,,,,,,,,,,,,,,,,,,,,,,,,,,,
,,,,,,615d8ac74e143515e642e7d0,62bc0615caf5d97252f358bc,2022-06-29_09h59.38.940,Colour_Asymmetry_Pilot,2022.1.3,Win32,60.0060006,62bbe60bf3d75ef465d3e404,0,134,134,22,1,fourtwo,,,,,,,,,,,,,,,,,,,,,,,,,,,,,,,,,,,,,,,,,,,,,,,,,,,,,,,,,,,,,,,,,,,,,,,,,,,,,,,,,,,,,,,,,,,,,,,,,,,,,,,,,,,,,,,,,,,,,,,,,,,,,,,,,,,,,,,,,,,,,,,,,,,,,,,,
,,,,,,615d8ac74e143515e642e7d0,62bc0615caf5d97252f358bc,2022-06-29_09h59.38.940,Colour_Asymmetry_Pilot,2022.1.3,Win32,60.0060006,62bbe60bf3d75ef465d3e404,0,135,135,10,1,twoone,,,,,,,,,,,,,,,,,,,,,,,,,,,,,,,,,,,,,,,,,,,,,,,,,,,,,,,,,,,,,,,,,,,,,,,,,,,,,,,,,,,,,,,,,,,,,,,,,,,,,,,,,,,,,,,,,,,,,,,,,,,,,,,,,,,,,,,,,,,,,,,,,,,,,,,,
,,,,,,615d8ac74e143515e642e7d0,62bc0615caf5d97252f358bc,2022-06-29_09h59.38.940,Colour_Asymmetry_Pilot,2022.1.3,Win32,60.0060006,62bbe60bf3d75ef465d3e404,0,136,136,109,1,threefour,,,,,,,,,,,,,,,,,,,,,,,,,,,,,,,,,,,,,,,,,,,,,,,,,,,,,,,,,,,,,,,,,,,,,,,,,,,,,,,,,,,,,,,,,,,,,,,,,,,,,,,,,,,,,,,,,,,,,,,,,,,,,,,,,,,,,,,,,,,,,,,,,,,,,,,,
,,,,,,615d8ac74e143515e642e7d0,62bc0615caf5d97252f358bc,2022-06-29_09h59.38.940,Colour_Asymmetry_Pilot,2022.1.3,Win32,60.0060006,62bbe60bf3d75ef465d3e404,0,137,137,115,1,twofour,,,,,,,,,,,,,,,,,,,,,,,,,,,,,,,,,,,,,,,,,,,,,,,,,,,,,,,,,,,,,,,,,,,,,,,,,,,,,,,,,,,,,,,,,,,,,,,,,,,,,,,,,,,,,,,,,,,,,,,,,,,,,,,,,,,,,,,,,,,,,,,,,,,,,,,,
,,,,,,615d8ac74e143515e642e7d0,62bc0615caf5d97252f358bc,2022-06-29_09h59.38.940,Colour_Asymmetry_Pilot,2022.1.3,Win32,60.0060006,62bbe60bf3d75ef465d3e404,0,138,138,54,1,fourtwo,,,,,,,,,,,,,,,,,,,,,,,,,,,,,,,,,,,,,,,,,,,,,,,,,,,,,,,,,,,,,,,,,,,,,,,,,,,,,,,,,,,,,,,,,,,,,,,,,,,,,,,,,,,,,,,,,,,,,,,,,,,,,,,,,,,,,,,,,,,,,,,,,,,,,,,,
,,,,,,615d8ac74e143515e642e7d0,62bc0615caf5d97252f358bc,2022-06-29_09h59.38.940,Colour_Asymmetry_Pilot,2022.1.3,Win32,60.0060006,62bbe60bf3d75ef465d3e404,0,139,139,50,1,twoone,,,,,,,,,,,,,,,,,,,,,,,,,,,,,,,,,,,,,,,,,,,,,,,,,,,,,,,,,,,,,,,,,,,,,,,,,,,,,,,,,,,,,,,,,,,,,,,,,,,,,,,,,,,,,,,,,,,,,,,,,,,,,,,,,,,,,,,,,,,,,,,,,,,,,,,,
,,,,,,615d8ac74e143515e642e7d0,62bc0615caf5d97252f358bc,2022-06-29_09h59.38.940,Colour_Asymmetry_Pilot,2022.1.3,Win32,60.0060006,62bbe60bf3d75ef465d3e404,0,140,140,4,1,threeone,,,,,,,,,,,,,,,,,,,,,,,,,,,,,,,,,,,,,,,,,,,,,,,,,,,,,,,,,,,,,,,,,,,,,,,,,,,,,,,,,,,,,,,,,,,,,,,,,,,,,,,,,,,,,,,,,,,,,,,,,,,,,,,,,,,,,,,,,,,,,,,,,,,,,,,,
,,,,,,615d8ac74e143515e642e7d0,62bc0615caf5d97252f358bc,2022-06-29_09h59.38.940,Colour_Asymmetry_Pilot,2022.1.3,Win32,60.0060006,62bbe60bf3d75ef465d3e404,0,141,141,2,1,twoone,,,,,,,,,,,,,,,,,,,,,,,,,,,,,,,,,,,,,,,,,,,,,,,,,,,,,,,,,,,,,,,,,,,,,,,,,,,,,,,,,,,,,,,,,,,,,,,,,,,,,,,,,,,,,,,,,,,,,,,,,,,,,,,,,,,,,,,,,,,,,,,,,,,,,,,,
,,,,,,615d8ac74e143515e642e7d0,62bc0615caf5d97252f358bc,2022-06-29_09h59.38.940,Colour_Asymmetry_Pilot,2022.1.3,Win32,60.0060006,62bbe60bf3d75ef465d3e404,0,142,142,132,1,threeone,,,,,,,,,,,,,,,,,,,,,,,,,,,,,,,,,,,,,,,,,,,,,,,,,,,,,,,,,,,,,,,,,,,,,,,,,,,,,,,,,,,,,,,,,,,,,,,,,,,,,,,,,,,,,,,,,,,,,,,,,,,,,,,,,,,,,,,,,,,,,,,,,,,,,,,,
,,,,,,615d8ac74e143515e642e7d0,62bc0615caf5d97252f358bc,2022-06-29_09h59.38.940,Colour_Asymmetry_Pilot,2022.1.3,Win32,60.0060006,62bbe60bf3d75ef465d3e404,0,143,143,89,1,onethree,,,,,,,,,,,,,,,,,,,,,,,,,,,,,,,,,,,,,,,,,,,,,,,,,,,,,,,,,,,,,,,,,,,,,,,,,,,,,,,,,,,,,,,,,,,,,,,,,,,,,,,,,,,,,,,,,,,,,,,,,,,,,,,,,,,,,,,,,,,,,,,,,,,,,,,,
,,,,,,615d8ac74e143515e642e7d0,62bc0615caf5d97252f358bc,2022-06-29_09h59.38.940,Colour_Asymmetry_Pilot,2022.1.3,Win32,60.0060006,62bbe60bf3d75ef465d3e404,0,144,144,127,1,fourthree,,,,,,,,,,,,,,,,,,,,,,,,,,,,,,,,,,,,,,,,,,,,,,,,,,,,,,,,,,,,,,,,,,,,,,,,,,,,,,,,,,,,,,,,,,,,,,,,,,,,,,,,,,,,,,,,,,,,,,,,,,,,,,,,,,,,,,,,,,,,,,,,,,,,,,,,
,,,,,,615d8ac74e143515e642e7d0,62bc0615caf5d97252f358bc,2022-06-29_09h59.38.940,Colour_Asymmetry_Pilot,2022.1.3,Win32,60.0060006,62bbe60bf3d75ef465d3e404,0,145,145,133,1,threefour,,,,,,,,,,,,,,,,,,,,,,,,,,,,,,,,,,,,,,,,,,,,,,,,,,,,,,,,,,,,,,,,,,,,,,,,,,,,,,,,,,,,,,,,,,,,,,,,,,,,,,,,,,,,,,,,,,,,,,,,,,,,,,,,,,,,,,,,,,,,,,,,,,,,,,,,
,,,,,,615d8ac74e143515e642e7d0,62bc0615caf5d97252f358bc,2022-06-29_09h59.38.940,Colour_Asymmetry_Pilot,2022.1.3,Win32,60.0060006,62bbe60bf3d75ef465d3e404,0,146,146,149,1,threefour,,,,,,,,,,,,,,,,,,,,,,,,,,,,,,,,,,,,,,,,,,,,,,,,,,,,,,,,,,,,,,,,,,,,,,,,,,,,,,,,,,,,,,,,,,,,,,,,,,,,,,,,,,,,,,,,,,,,,,,,,,,,,,,,,,,,,,,,,,,,,,,,,,,,,,,,
,,,,,,615d8ac74e143515e642e7d0,62bc0615caf5d97252f358bc,2022-06-29_09h59.38.940,Colour_Asymmetry_Pilot,2022.1.3,Win32,60.0060006,62bbe60bf3d75ef465d3e404,0,147,147,140,1,threeone,,,,,,,,,,,,,,,,,,,,,,,,,,,,,,,,,,,,,,,,,,,,,,,,,,,,,,,,,,,,,,,,,,,,,,,,,,,,,,,,,,,,,,,,,,,,,,,,,,,,,,,,,,,,,,,,,,,,,,,,,,,,,,,,,,,,,,,,,,,,,,,,,,,,,,,,
,,,,,,615d8ac74e143515e642e7d0,62bc0615caf5d97252f358bc,2022-06-29_09h59.38.940,Colour_Asymmetry_Pilot,2022.1.3,Win32,60.0060006,62bbe60bf3d75ef465d3e404,0,148,148,30,1,fourtwo,,,,,,,,,,,,,,,,,,,,,,,,,,,,,,,,,,,,,,,,,,,,,,,,,,,,,,,,,,,,,,,,,,,,,,,,,,,,,,,,,,,,,,,,,,,,,,,,,,,,,,,,,,,,,,,,,,,,,,,,,,,,,,,,,,,,,,,,,,,,,,,,,,,,,,,,
,,,,,,615d8ac74e143515e642e7d0,62bc0615caf5d97252f358bc,2022-06-29_09h59.38.940,Colour_Asymmetry_Pilot,2022.1.3,Win32,60.0060006,62bbe60bf3d75ef465d3e404,0,149,149,128,1,onetwo,,,,,,,,,,,,,,,,,,,,,,,,,,,,,,,,,,,,,,,,,,,,,,,,,,,,,,,,,,,,,,,,,,,,,,,,,,,,,,,,,,,,,,,,,,,,,,,,,,,,,,,,,,,,,,,,,,,,,,,,,,,,,,,,,,,,,,,,,,,,,,,,,,,,,,,,
,,,,,,615d8ac74e143515e642e7d0,62bc0615caf5d97252f358bc,2022-06-29_09h59.38.940,Colour_Asymmetry_Pilot,2022.1.3,Win32,60.0060006,62bbe60bf3d75ef465d3e404,0,150,150,131,1,twofour,,,,,,,,,,,,,,,,,,,,,,,,,,,,,,,,,,,,,,,,,,,,,,,,,,,,,,,,,,,,,,,,,,,,,,,,,,,,,,,,,,,,,,,,,,,,,,,,,,,,,,,,,,,,,,,,,,,,,,,,,,,,,,,,,,,,,,,,,,,,,,,,,,,,,,,,
,,,,,,615d8ac74e143515e642e7d0,62bc0615caf5d97252f358bc,2022-06-29_09h59.38.940,Colour_Asymmetry_Pilot,2022.1.3,Win32,60.0060006,62bbe60bf3d75ef465d3e404,0,151,151,134,1,fourtwo,,,,,,,,,,,,,,,,,,,,,,,,,,,,,,,,,,,,,,,,,,,,,,,,,,,,,,,,,,,,,,,,,,,,,,,,,,,,,,,,,,,,,,,,,,,,,,,,,,,,,,,,,,,,,,,,,,,,,,,,,,,,,,,,,,,,,,,,,,,,,,,,,,,,,,,,
,,,,,,615d8ac74e143515e642e7d0,62bc0615caf5d97252f358bc,2022-06-29_09h59.38.940,Colour_Asymmetry_Pilot,2022.1.3,Win32,60.0060006,62bbe60bf3d75ef465d3e404,0,152,152,9,1,onethree,,,,,,,,,,,,,,,,,,,,,,,,,,,,,,,,,,,,,,,,,,,,,,,,,,,,,,,,,,,,,,,,,,,,,,,,,,,,,,,,,,,,,,,,,,,,,,,,,,,,,,,,,,,,,,,,,,,,,,,,,,,,,,,,,,,,,,,,,,,,,,,,,,,,,,,,
,,,,,,615d8ac74e143515e642e7d0,62bc0615caf5d97252f358bc,2022-06-29_09h59.38.940,Colour_Asymmetry_Pilot,2022.1.3,Win32,60.0060006,62bbe60bf3d75ef465d3e404,0,153,153,98,1,twoone,,,,,,,,,,,,,,,,,,,,,,,,,,,,,,,,,,,,,,,,,,,,,,,,,,,,,,,,,,,,,,,,,,,,,,,,,,,,,,,,,,,,,,,,,,,,,,,,,,,,,,,,,,,,,,,,,,,,,,,,,,,,,,,,,,,,,,,,,,,,,,,,,,,,,,,,
,,,,,,615d8ac74e143515e642e7d0,62bc0615caf5d97252f358bc,2022-06-29_09h59.38.940,Colour_Asymmetry_Pilot,2022.1.3,Win32,60.0060006,62bbe60bf3d75ef465d3e404,0,154,154,119,1,fourthree,,,,,,,,,,,,,,,,,,,,,,,,,,,,,,,,,,,,,,,,,,,,,,,,,,,,,,,,,,,,,,,,,,,,,,,,,,,,,,,,,,,,,,,,,,,,,,,,,,,,,,,,,,,,,,,,,,,,,,,,,,,,,,,,,,,,,,,,,,,,,,,,,,,,,,,,
,,,,,,615d8ac74e143515e642e7d0,62bc0615caf5d97252f358bc,2022-06-29_09h59.38.940,Colour_Asymmetry_Pilot,2022.1.3,Win32,60.0060006,62bbe60bf3d75ef465d3e404,0,155,155,45,1,threefour,,,,,,,,,,,,,,,,,,,,,,,,,,,,,,,,,,,,,,,,,,,,,,,,,,,,,,,,,,,,,,,,,,,,,,,,,,,,,,,,,,,,,,,,,,,,,,,,,,,,,,,,,,,,,,,,,,,,,,,,,,,,,,,,,,,,,,,,,,,,,,,,,,,,,,,,
,,,,,,615d8ac74e143515e642e7d0,62bc0615caf5d97252f358bc,2022-06-29_09h59.38.940,Colour_Asymmetry_Pilot,2022.1.3,Win32,60.0060006,62bbe60bf3d75ef465d3e404,0,156,156,81,1,onethree,,,,,,,,,,,,,,,,,,,,,,,,,,,,,,,,,,,,,,,,,,,,,,,,,,,,,,,,,,,,,,,,,,,,,,,,,,,,,,,,,,,,,,,,,,,,,,,,,,,,,,,,,,,,,,,,,,,,,,,,,,,,,,,,,,,,,,,,,,,,,,,,,,,,,,,,
,,,,,,615d8ac74e143515e642e7d0,62bc0615caf5d97252f358bc,2022-06-29_09h59.38.940,Colour_Asymmetry_Pilot,2022.1.3,Win32,60.0060006,62bbe60bf3d75ef465d3e404,0,157,157,88,1,onetwo,,,,,,,,,,,,,,,,,,,,,,,,,,,,,,,,,,,,,,,,,,,,,,,,,,,,,,,,,,,,,,,,,,,,,,,,,,,,,,,,,,,,,,,,,,,,,,,,,,,,,,,,,,,,,,,,,,,,,,,,,,,,,,,,,,,,,,,,,,,,,,,,,,,,,,,,
,,,,,,615d8ac74e143515e642e7d0,62bc0615caf5d97252f358bc,2022-06-29_09h59.38.940,Colour_Asymmetry_Pilot,2022.1.3,Win32,60.0060006,62bbe60bf3d75ef465d3e404,0,158,158,82,1,twoone,,,,,,,,,,,,,,,,,,,,,,,,,,,,,,,,,,,,,,,,,,,,,,,,,,,,,,,,,,,,,,,,,,,,,,,,,,,,,,,,,,,,,,,,,,,,,,,,,,,,,,,,,,,,,,,,,,,,,,,,,,,,,,,,,,,,,,,,,,,,,,,,,,,,,,,,
,,,,,,615d8ac74e143515e642e7d0,62bc0615caf5d97252f358bc,2022-06-29_09h59.38.940,Colour_Asymmetry_Pilot,2022.1.3,Win32,60.0060006,62bbe60bf3d75ef465d3e404,0,159,159,144,1,onetwo,,,,,,,,,,,,,,,,,,,,,,,,,,,,,,,,,,,,,,,,,,,,,,,,,,,,,,,,,,,,,,,,,,,,,,,,,,,,,,,,,,,,,,,,,,,,,,,,,,,,,,,,,,,,,,,,,,,,,,,,,,,,,,,,,,,,,,,,,,,,,,,,,,,,,,,,
,,,,,,615d8ac74e143515e642e7d0,62bc0615caf5d97252f358bc,2022-06-29_09h59.38.940,Colour_Asymmetry_Pilot,2022.1.3,Win32,60.0060006,62bbe60bf3d75ef465d3e404,0,160,160,64,1,onetwo,,,,,,,,,,,,,,,,,,,,,,,,,,,,,,,,,,,,,,,,,,,,,,,,,,,,,,,,,,,,,,,,,,,,,,,,,,,,,,,,,,,,,,,,,,,,,,,,,,,,,,,,,,,,,,,,,,,,,,,,,,,,,,,,,,,,,,,,,,,,,,,,,,,,,,,,
,,,,,,615d8ac74e143515e642e7d0,62bc0615caf5d97252f358bc,2022-06-29_09h59.38.940,Colour_Asymmetry_Pilot,2022.1.3,Win32,60.0060006,62bbe60bf3d75ef465d3e404,0,161,161,5,1,threefour,,,,,,,,,,,,,,,,,,,,,,,,,,,,,,,,,,,,,,,,,,,,,,,,,,,,,,,,,,,,,,,,,,,,,,,,,,,,,,,,,,,,,,,,,,,,,,,,,,,,,,,,,,,,,,,,,,,,,,,,,,,,,,,,,,,,,,,,,,,,,,,,,,,,,,,,
,,,,,,615d8ac74e143515e642e7d0,62bc0615caf5d97252f358bc,2022-06-29_09h59.38.940,Colour_Asymmetry_Pilot,2022.1.3,Win32,60.0060006,62bbe60bf3d75ef465d3e404,,,,,,,space,6.1328,space,25.5854,space,79.3755,space,42.578,space,6.3495,space,5.9565,"[-0.09019999999999995,0.44300000000000006,0.5371999999999999]",onethree,"[-0.8118,-0.8198,-0.5452]",-1,26.6183,-58.40002441,-126.4000244,1,0,0,response5disk_5,0.800048828,-16.79998779,1,0,0,rectangle_8,0.800048828,-16.79998779,1,0,0,4,0.800048828,-16.79998779,1,0,0,0,0,0,0,1,,,,,,,,,,,,,,,,,,,,,,,,,,,,,,,,,,,,,,,,,,,,,,,,,,,,,,,,,,,,,,,,,,,,,,,,,,,,,,,,,,,,,,,,,,,,,,,,,,,,,,,,,,,
,,,,,,615d8ac74e143515e642e7d0,62bc0615caf5d97252f358bc,2022-06-29_09h59.38.940,Colour_Asymmetry_Pilot,2022.1.3,Win32,60.0060006,62bbe60bf3d75ef465d3e404,,,,,,,,,,,,,,,,,,,"[0.9213999999999998,0.6391999999999998,-0.9922]",onethree,"[-0.9688,-0.4902000000000001,-0.12159999999999993]",-4,15.0509,-50.40002441,108,1,0,0,response7disk_5,-31.19995117,-24,1,0,0,rectangle_8,86.40002441,131.2000122,1,0,0,4,12.80004883,0,1,0,0,1,0,1,0,1,response1disk_7,7,rectangle_4,,,,,,,,,,,,,,,,,,,,,,,,,,,,,,,,,,,,,,,,,,,,,,,,,,,,,,,,,,,,,,,,,,,,,,,,,,,,,,,,,,,,,,,,,,,,,,,,,,,,,,,,
,,,,,,615d8ac74e143515e642e7d0,62bc0615caf5d97252f358bc,2022-06-29_09h59.38.940,Colour_Asymmetry_Pilot,2022.1.3,Win32,60.0060006,62bbe60bf3d75ef465d3e404,,,,,,,,,,,,,,,,,,,"[0.9213999999999998,0.6391999999999998,-0.9922]",twofour,"[-0.050999999999999934,-0.6706000000000001,-0.804]",-4,12.1506,-72,121.5999756,1,0,0,response7disk_5,20.80004883,4,1,0,0,rectangle_8,20.80004883,4,1,0,0,4,20.80004883,4,1,0,0,2,0,2,0,1,,,,,,,,,,,,,,,,,,,,,,,,,,,,,,,,,,,,,,,,,,,,,,,,,,,,,,,,,,,,,,,,,,,,,,,,,,,,,,,,,,,,,,,,,,,,,,,,,,,,,,,,,,,
,,,,,,615d8ac74e143515e642e7d0,62bc0615caf5d97252f358bc,2022-06-29_09h59.38.940,Colour_Asymmetry_Pilot,2022.1.3,Win32,60.0060006,62bbe60bf3d75ef465d3e404,,,,,,,,,,,,,,,,,,,"[-0.6942,-0.7648,-0.12959999999999994]",twofour,"[0.7176,-0.906,-0.6864]",-3,14.7174,-102.4000244,68,1,0,0,response7disk_5,15.20007324,-3.200012207,1,0,0,rectangle_8,15.20007324,-3.200012207,1,0,0,4,15.20007324,-3.200012207,1,0,0,3,0,3,0,1,,,,,,,,,,,,,,,,,,,,,,,,,,,,,,,,,,,,,,,,,,,,,,,,,,,,,,,,,,,,,,,,,,,,,,,,,,,,,,,,,,,,,,,,,,,,,,,,,,,,,,,,,,,
,,,,,,615d8ac74e143515e642e7d0,62bc0615caf5d97252f358bc,2022-06-29_09h59.38.940,Colour_Asymmetry_Pilot,2022.1.3,Win32,60.0060006,62bbe60bf3d75ef465d3e404,,,,,,,,,,,,,,,,,,,"[-0.4902000000000001,0.2704,-0.45899999999999996]",threeone,"[-0.10599999999999998,-0.15300000000000002,0.15280000000000005]",-2,9.6004,-118.4000244,-48.79998779,1,0,0,response5disk_5,-48.79992676,-9.600036621,1,0,0,rectangle_8,72,120,1,0,0,4,32,-8,1,0,0,4,0,4,0,1,response1disk_7,7,rectangle_4,,,,,,,,,,,,,,,,,,,,,,,,,,,,,,,,,,,,,,,,,,,,,,,,,,,,,,,,,,,,,,,,,,,,,,,,,,,,,,,,,,,,,,,,,,,,,,,,,,,,,,,,
,,,,,,615d8ac74e143515e642e7d0,62bc0615caf5d97252f358bc,2022-06-29_09h59.38.940,Colour_Asymmetry_Pilot,2022.1.3,Win32,60.0060006,62bbe60bf3d75ef465d3e404,,,,,,,,,,,,,,,,,,,"[-0.5452,-0.608,0.2470000000000001]",fourthree,"[-0.9688,-0.7412000000000001,-0.4902000000000001]",1,8.1671,43.20007324,-151.2000122,1,0,0,response3disk_5,41.59997559,8,1,0,0,rectangle_8,41.59997559,8,1,0,0,4,41.59997559,8,1,0,0,5,0,5,0,1,,,,,,,,,,,,,,,,,,,,,,,,,,,,,,,,,,,,,,,,,,,,,,,,,,,,,,,,,,,,,,,,,,,,,,,,,,,,,,,,,,,,,,,,,,,,,,,,,,,,,,,,,,,
,,,,,,615d8ac74e143515e642e7d0,62bc0615caf5d97252f358bc,2022-06-29_09h59.38.940,Colour_Asymmetry_Pilot,2022.1.3,Win32,60.0060006,62bbe60bf3d75ef465d3e404,,,,,,,,,,,,,,,,,,,"[0.9686000000000001,0.3802000000000001,0.19999999999999996]",threefour,"[-0.34920000000000007,-0.702,-0.5216]",1,8.4838,35.20007324,-119.2000122,1,0,0,response3disk_5,38.40002441,-4,1,0,0,rectangle_8,38.40002441,-4,1,0,0,4,38.40002441,-4,1,0,0,6,0,6,0,1,,,,,,,,,,,,,,,,,,,,,,,,,,,,,,,,,,,,,,,,,,,,,,,,,,,,,,,,,,,,,,,,,,,,,,,,,,,,,,,,,,,,,,,,,,,,,,,,,,,,,,,,,,,
,,,,,,615d8ac74e143515e642e7d0,62bc0615caf5d97252f358bc,2022-06-29_09h59.38.940,Colour_Asymmetry_Pilot,2022.1.3,Win32,60.0060006,62bbe60bf3d75ef465d3e404,,,,,,,,,,,,,,,,,,,,fourtwo,,-2,10.7844,,,,,,,,,,,,,,,,,,,,,,,,,,,,,,,,space,29.3678,"[0.22340000000000004,-0.9296,-0.7884]","[0.7018,0.7802,-0.16079999999999994]",-121.5999756,-55.20001221,1,0,0,response5disk,20,3.200012207,1,0,0,rectangle,20,3.200012207,1,0,0,,2,0.0007,0,20,3.200012207,1,0,0,0,0,0,86,1,5,second,,,,,,,,,,,,,,,,,,,,,,,,,,,,,,,,,,,,,,,,,,,,,,,,,,,,,,,,,,,,,,,,,,,
,,,,,,615d8ac74e143515e642e7d0,62bc0615caf5d97252f358bc,2022-06-29_09h59.38.940,Colour_Asymmetry_Pilot,2022.1.3,Win32,60.0060006,62bbe60bf3d75ef465d3e404,,,,,,,,,,,,,,,,,,,,twoone,,1,5.4837,,,,,,,,,,,,,,,,,,,,,,,,,,,,,,,,,,"[0.6547999999999998,-0.043199999999999905,-0.011800000000000033]","[-0.5452,-0.608,0.2470000000000001]",69.59997559,-105.6000366,1,0,0,response3disk,-0.799926758,-20,1,0,0,rectangle,-0.799926758,-20,1,0,0,,2,0.0001,0,-0.799926758,-20,1,0,0,0,1,1,29,1,29,first,,,,,,,,,,,,,,,,,,,,,,,,,,,,,,,,,,,,,,,,,,,,,,,,,,,,,,,,,,,,,,,,,,,
,,,,,,615d8ac74e143515e642e7d0,62bc0615caf5d97252f358bc,2022-06-29_09h59.38.940,Colour_Asymmetry_Pilot,2022.1.3,Win32,60.0060006,62bbe60bf3d75ef465d3e404,,,,,,,,,,,,,,,,,,,,twoone,,3,7.4171,,,,,,,,,,,,,,,,,,,,,,,,,,,,,,,,,,"[-0.38039999999999996,-0.4276,-0.1452]","[-0.9766,-0.34920000000000007,0.2156]",120,56,1,0,0,response1disk,32,-19.20001221,1,0,0,rectangle,32,-19.20001221,1,0,0,,2,0.0001,0,32,-19.20001221,1,0,0,0,2,2,6,1,6,first,,,,,,,,,,,,,,,,,,,,,,,,,,,,,,,,,,,,,,,,,,,,,,,,,,,,,,,,,,,,,,,,,,,
,,,,,,615d8ac74e143515e642e7d0,62bc0615caf5d97252f358bc,2022-06-29_09h59.38.940,Colour_Asymmetry_Pilot,2022.1.3,Win32,60.0060006,62bbe60bf3d75ef465d3e404,,,,,,,,,,,,,,,,,,,,twofour,,3,14.4508,,,,,,,,,,,,,,,,,,,,,,,,,,,,,,,,,,"[-0.8982,-0.37259999999999993,0.2784]","[-0.8118,-0.8198,-0.5452]",123.2000732,35.20001221,1,0,0,response1disk,24,-10.40002441,1,0,0,rectangle,24,-10.40002441,1,0,0,,3,0.0004,0,24,-10.40002441,1,0,0,0,3,3,21,1,21,first,,,,,,,,,,,,,,,,,,,,,,,,,,,,,,,,,,,,,,,,,,,,,,,,,,,,,,,,,,,,,,,,,,,
,,,,,,615d8ac74e143515e642e7d0,62bc0615caf5d97252f358bc,2022-06-29_09h59.38.940,Colour_Asymmetry_Pilot,2022.1.3,Win32,60.0060006,62bbe60bf3d75ef465d3e404,,,,,,,,,,,,,,,,,,,,threeone,,4,8.7671,,,,,,,,,,,,,,,,,,,,,,,,,,,,,,,,,,"[0.5449999999999999,-0.31000000000000005,-0.0354000000000001]","[0.7646000000000002,0.07440000000000002,0.2704]",67.20007324,124.7999878,1,0,0,response1disk,18.40002441,4.799987793,1,0,0,rectangle,18.40002441,4.799987793,1,0,0,,2,0.0005,0,18.40002441,4.799987793,1,0,0,0,4,4,50,1,50,first,,,,,,,,,,,,,,,,,,,,,,,,,,,,,,,,,,,,,,,,,,,,,,,,,,,,,,,,,,,,,,,,,,,
,,,,,,615d8ac74e143515e642e7d0,62bc0615caf5d97252f358bc,2022-06-29_09h59.38.940,Colour_Asymmetry_Pilot,2022.1.3,Win32,60.0060006,62bbe60bf3d75ef465d3e404,,,,,,,,,,,,,,,,,,,,threeone,,-1,4.5834,,,,,,,,,,,,,,,,,,,,,,,,,,,,,,,,,,"[0.2784,-0.31000000000000005,-0.5452]","[-0.30200000000000005,0.14500000000000002,0.2784]",-33.59997559,-108,1,0,0,response5disk,-16.79992676,3.200012207,1,0,0,rectangle,-16.79992676,3.200012207,1,0,0,,2,0.0001,0,-16.79992676,3.200012207,1,0,0,0,5,5,67,1,67,first,,,,,,,,,,,,,,,,,,,,,,,,,,,,,,,,,,,,,,,,,,,,,,,,,,,,,,,,,,,,,,,,,,,
,,,,,,615d8ac74e143515e642e7d0,62bc0615caf5d97252f358bc,2022-06-29_09h59.38.940,Colour_Asymmetry_Pilot,2022.1.3,Win32,60.0060006,62bbe60bf3d75ef465d3e404,,,,,,,,,,,,,,,,,,,,threefour,,3,4.0835,,,,,,,,,,,,,,,,,,,,,,,,,,,,,,,,,,"[0.05879999999999996,0.2784,0.5841999999999998]","[-0.09019999999999995,0.44300000000000006,0.5371999999999999]",116,59.20001221,1,0,0,response1disk,20,-12,1,0,0,rectangle,20,-12,1,0,0,,3,0.0004,0,20,-12,1,0,0,0,6,6,64,1,64,first,,,,,,,,,,,,,,,,,,,,,,,,,,,,,,,,,,,,,,,,,,,,,,,,,,,,,,,,,,,,,,,,,,,
,,,,,,615d8ac74e143515e642e7d0,62bc0615caf5d97252f358bc,2022-06-29_09h59.38.940,Colour_Asymmetry_Pilot,2022.1.3,Win32,60.0060006,62bbe60bf3d75ef465d3e404,,,,,,,,,,,,,,,,,,,,onetwo,,-3,7.6838,,,,,,,,,,,,,,,,,,,,,,,,,,,,,,,,,,"[0.7018,0.7802,-0.16079999999999994]","[0.22340000000000004,-0.9296,-0.7884]",-122.4000244,40.79998779,1,0,0,response7disk,-1.599975586,-15.20001221,1,0,0,rectangle,-1.599975586,-15.20001221,1,0,0,,3,0.0002,0,-1.599975586,-15.20001221,1,0,0,0,7,7,5,1,5,first,,,,,,,,,,,,,,,,,,,,,,,,,,,,,,,,,,,,,,,,,,,,,,,,,,,,,,,,,,,,,,,,,,,
,,,,,,615d8ac74e143515e642e7d0,62bc0615caf5d97252f358bc,2022-06-29_09h59.38.940,Colour_Asymmetry_Pilot,2022.1.3,Win32,60.0060006,62bbe60bf3d75ef465d3e404,,,,,,,,,,,,,,,,,,,,fourthree,,4,6.8004,,,,,,,,,,,,,,,,,,,,,,,,,,,,,,,,,,"[-0.8118,-0.8198,-0.5452]","[-0.6942,-0.7648,-0.12959999999999994]",67.20007324,112.7999878,1,0,0,response1disk,10.40002441,4,1,0,0,rectangle,139.2000732,55.20001221,1,0,0,3,3,17.3514,1,12.80004883,-2.400024414,1,0,0,0,8,8,136,1,55,second,response1disk_3,rectangle,,,,,,,,,,,,,,,,,,,,,,,,,,,,,,,,,,,,,,,,,,,,,,,,,,,,,,,,,,,,,,,,,
,,,,,,615d8ac74e143515e642e7d0,62bc0615caf5d97252f358bc,2022-06-29_09h59.38.940,Colour_Asymmetry_Pilot,2022.1.3,Win32,60.0060006,62bbe60bf3d75ef465d3e404,,,,,,,,,,,,,,,,,,,,twofour,,2,4.1835,,,,,,,,,,,,,,,,,,,,,,,,,,,,,,,,,,"[0.2862,0.7802,0.3568]","[-0.8198,-0.5138,-0.7492000000000001]",120,-78.40002441,1,0,0,response3disk,-2.400024414,2.399963379,1,0,0,rectangle,-2.400024414,2.399963379,1,0,0,3,2,0.0003,0,-2.400024414,2.399963379,1,0,0,0,9,9,16,1,16,first,,,,,,,,,,,,,,,,,,,,,,,,,,,,,,,,,,,,,,,,,,,,,,,,,,,,,,,,,,,,,,,,,,,
,,,,,,615d8ac74e143515e642e7d0,62bc0615caf5d97252f358bc,2022-06-29_09h59.38.940,Colour_Asymmetry_Pilot,2022.1.3,Win32,60.0060006,62bbe60bf3d75ef465d3e404,,,,,,,,,,,,,,,,,,,,fourthree,,-1,7.267,,,,,,,,,,,,,,,,,,,,,,,,,,,,,,,,,,"[0.7802,-0.23140000000000005,-0.20799999999999996]","[0.11359999999999992,0.6312,0.5213999999999999]",-52.79992676,-126.4000244,1,0,0,response5disk,-43.19995117,-9.600036621,1,0,0,rectangle,-43.19995117,-9.600036621,1,0,0,3,3,0.0003,0,-43.19995117,-9.600036621,1,0,0,0,10,10,22,1,22,first,,,,,,,,,,,,,,,,,,,,,,,,,,,,,,,,,,,,,,,,,,,,,,,,,,,,,,,,,,,,,,,,,,,
,,,,,,615d8ac74e143515e642e7d0,62bc0615caf5d97252f358bc,2022-06-29_09h59.38.940,Colour_Asymmetry_Pilot,2022.1.3,Win32,60.0060006,62bbe60bf3d75ef465d3e404,,,,,,,,,,,,,,,,,,,,onetwo,,4,3.7002,,,,,,,,,,,,,,,,,,,,,,,,,,,,,,,,,,"[-0.6942,-0.7648,-0.12959999999999994]","[-0.8118,-0.8198,-0.5452]",80.80004883,118.3999634,1,0,0,response1disk,50.40002441,-12,1,0,0,rectangle,130.4000244,56,1,0,0,3,3,8.2838,1,-42.40002441,-4,1,0,0,0,11,11,55,1,55,first,response1disk_3,rectangle,,,,,,,,,,,,,,,,,,,,,,,,,,,,,,,,,,,,,,,,,,,,,,,,,,,,,,,,,,,,,,,,,
,,,,,,615d8ac74e143515e642e7d0,62bc0615caf5d97252f358bc,2022-06-29_09h59.38.940,Colour_Asymmetry_Pilot,2022.1.3,Win32,60.0060006,62bbe60bf3d75ef465d3e404,,,,,,,,,,,,,,,,,,,,threeone,,3,2.5001,,,,,,,,,,,,,,,,,,,,,,,,,,,,,,,,,,"[-0.2942,-0.24719999999999998,-0.357]","[-0.4902000000000001,0.2704,-0.45899999999999996]",115.2000732,58.39996338,1,0,0,response1disk,33.59997559,-2.400024414,1,0,0,rectangle,33.59997559,-2.400024414,1,0,0,3,2,0.0004,0,33.59997559,-2.400024414,1,0,0,0,12,12,133,1,52,second,,,,,,,,,,,,,,,,,,,,,,,,,,,,,,,,,,,,,,,,,,,,,,,,,,,,,,,,,,,,,,,,,,,
,,,,,,615d8ac74e143515e642e7d0,62bc0615caf5d97252f358bc,2022-06-29_09h59.38.940,Colour_Asymmetry_Pilot,2022.1.3,Win32,60.0060006,62bbe60bf3d75ef465d3e404,,,,,,,,,,,,,,,,,,,,fourtwo,,2,6.6337,,,,,,,,,,,,,,,,,,,,,,,,,,,,,,,,,,"[-0.9216,-0.5529999999999999,-0.3962]","[-0.24719999999999998,0.5213999999999999,-0.12959999999999994]",96,-65.60003662,1,0,0,response3disk,37.59997559,4,1,0,0,rectangle,37.59997559,4,1,0,0,3,1,0.0004,0,37.59997559,4,1,0,0,0,13,13,25,1,25,first,,,,,,,,,,,,,,,,,,,,,,,,,,,,,,,,,,,,,,,,,,,,,,,,,,,,,,,,,,,,,,,,,,,
,,,,,,615d8ac74e143515e642e7d0,62bc0615caf5d97252f358bc,2022-06-29_09h59.38.940,Colour_Asymmetry_Pilot,2022.1.3,Win32,60.0060006,62bbe60bf3d75ef465d3e404,,,,,,,,,,,,,,,,,,,,threeone,,-3,9.3671,,,,,,,,,,,,,,,,,,,,,,,,,,,,,,,,,,"[0.7018,0.7802,-0.16079999999999994]","[-0.20799999999999996,-0.655,-0.01980000000000004]",-136,91.20001221,1,0,0,response7disk,-33.59997559,12,1,0,0,rectangle,-33.59997559,12,1,0,0,3,3,0.0004,0,-33.59997559,12,1,0,0,0,14,14,23,1,23,first,,,,,,,,,,,,,,,,,,,,,,,,,,,,,,,,,,,,,,,,,,,,,,,,,,,,,,,,,,,,,,,,,,,
,,,,,,615d8ac74e143515e642e7d0,62bc0615caf5d97252f358bc,2022-06-29_09h59.38.940,Colour_Asymmetry_Pilot,2022.1.3,Win32,60.0060006,62bbe60bf3d75ef465d3e404,,,,,,,,,,,,,,,,,,,,twofour,,-2,3.0168,,,,,,,,,,,,,,,,,,,,,,,,,,,,,,,,,,"[-0.6,0.16860000000000008,0.44300000000000006]","[0.4196,0.4665999999999999,0.3568]",-96.79992676,-48.79998779,1,0,0,response5disk,-38.40002441,20.79998779,1,0,0,rectangle,-38.40002441,20.79998779,1,0,0,-3,2,0.0004,0,-38.40002441,20.79998779,1,0,0,0,15,15,78,1,78,first,,,,,,,,,,,,,,,,,,,,,,,,,,,,,,,,,,,,,,,,,,,,,,,,,,,,,,,,,,,,,,,,,,,
,,,,,,615d8ac74e143515e642e7d0,62bc0615caf5d97252f358bc,2022-06-29_09h59.38.940,Colour_Asymmetry_Pilot,2022.1.3,Win32,60.0060006,62bbe60bf3d75ef465d3e404,,,,,,,,,,,,,,,,,,,,twofour,,2,3.5502,,,,,,,,,,,,,,,,,,,,,,,,,,,,,,,,,,"[0.37240000000000006,-0.050999999999999934,-0.5216]","[0.37240000000000006,0.4980000000000002,-0.2864]",124.8000488,-68.79998779,1,0,0,response3disk,10.40002441,-6.400024414,1,0,0,rectangle,10.40002441,-6.400024414,1,0,0,-3,3,0.0004,0,10.40002441,-6.400024414,1,0,0,0,16,16,15,1,15,first,,,,,,,,,,,,,,,,,,,,,,,,,,,,,,,,,,,,,,,,,,,,,,,,,,,,,,,,,,,,,,,,,,,
,,,,,,615d8ac74e143515e642e7d0,62bc0615caf5d97252f358bc,2022-06-29_09h59.38.940,Colour_Asymmetry_Pilot,2022.1.3,Win32,60.0060006,62bbe60bf3d75ef465d3e404,,,,,,,,,,,,,,,,,,,,twofour,,2,3.1501,,,,,,,,,,,,,,,,,,,,,,,,,,,,,,,,,,"[-0.5922000000000001,-0.7492000000000001,-0.5296000000000001]","[0.12939999999999996,-0.2864,0.3253999999999999]",117.5999756,-58.40002441,1,0,0,response3disk,20.80004883,-9.600036621,1,0,0,rectangle,20.80004883,-9.600036621,1,0,0,-3,2,0.0004,0,20.80004883,-9.600036621,1,0,0,0,17,17,80,1,80,first,,,,,,,,,,,,,,,,,,,,,,,,,,,,,,,,,,,,,,,,,,,,,,,,,,,,,,,,,,,,,,,,,,,
,,,,,,615d8ac74e143515e642e7d0,62bc0615caf5d97252f358bc,2022-06-29_09h59.38.940,Colour_Asymmetry_Pilot,2022.1.3,Win32,60.0060006,62bbe60bf3d75ef465d3e404,,,,,,,,,,,,,,,,,,,,threefour,,-2,5.0836,,,,,,,,,,,,,,,,,,,,,,,,,,,,,,,,,,"[0.5449999999999999,-0.31000000000000005,-0.0354000000000001]","[1,0.12939999999999996,-1]",-112.7999268,-53.60003662,1,0,0,response5disk,-35.19995117,6.399963379,1,0,0,rectangle,-35.19995117,6.399963379,1,0,0,-3,1,0.0003,0,-35.19995117,6.399963379,1,0,0,0,18,18,18,1,18,first,,,,,,,,,,,,,,,,,,,,,,,,,,,,,,,,,,,,,,,,,,,,,,,,,,,,,,,,,,,,,,,,,,,
