trials.thisRepN,trials.thisTrialN,trials.thisN,trials.thisIndex,trials.ran,Colourcodes,participant,session,date,expName,psychopyVersion,OS,frameRate,study_id,trials_4.thisRepN,trials_4.thisTrialN,trials_4.thisN,trials_4.thisIndex,trials_4.ran,StimulusPos,key_resp.keys,key_resp.rt,key_resp_2.keys,key_resp_2.rt,key_resp_15.keys,key_resp_15.rt,key_resp_17.keys,key_resp_17.rt,key_resp_9.keys,key_resp_9.rt,key_resp_10.keys,key_resp_10.rt,Circle1_col,Ecc,Circle2_col,similarity,response_time,mouse_5.x,mouse_5.y,mouse_5.leftButton,mouse_5.midButton,mouse_5.rightButton,mouse_5.clicked_name,mouse_10.x,mouse_10.y,mouse_10.leftButton,mouse_10.midButton,mouse_10.rightButton,mouse_10.clicked_name,mouse_7.x,mouse_7.y,mouse_7.leftButton,mouse_7.midButton,mouse_7.rightButton,catchnumberprac,mouse_6.x,mouse_6.y,mouse_6.leftButton,mouse_6.midButton,mouse_6.rightButton,duringprac.thisRepN,duringprac.thisTrialN,duringprac.thisN,duringprac.thisIndex,duringprac.ran,mouse_7.clicked_name,catchprac,mouse_6.clicked_name,key_resp_22.keys,key_resp_22.rt,Circle1_colour,Circle2_colour,mouse.x,mouse.y,mouse.leftButton,mouse.midButton,mouse.rightButton,mouse.clicked_name,mouse_2.x,mouse_2.y,mouse_2.leftButton,mouse_2.midButton,mouse_2.rightButton,mouse_2.clicked_name,mouse_3.x,mouse_3.y,mouse_3.leftButton,mouse_3.midButton,mouse_3.rightButton,catchresponse,catchnumber,response_time_catch,Catch,mouse_11.x,mouse_11.y,mouse_11.leftButton,mouse_11.midButton,mouse_11.rightButton,trials_2.thisRepN,trials_2.thisTrialN,trials_2.thisN,trials_2.thisIndex,trials_2.ran,Colourpair,Temporder,mouse_3.clicked_name,mouse_11.clicked_name,trials_3.thisRepN,trials_3.thisTrialN,trials_3.thisN,trials_3.thisIndex,trials_3.ran,key_resp_instr_Ishi.keys,key_resp_instr_Ishi.rt,Ishi_trial_keyresp.keys,Ishi_trial_keyresp.rt,Ishi_textbox.text,Ishi_loop.thisRepN,Ishi_loop.thisTrialN,Ishi_loop.thisN,Ishi_loop.thisIndex,Ishi_loop.ran,imageaddress,textbox.text,mouse_4.x,mouse_4.y,mouse_4.leftButton,mouse_4.midButton,mouse_4.rightButton,mouse_4.clicked_name,textbox_2.text,mouse_8.x,mouse_8.y,mouse_8.leftButton,mouse_8.midButton,mouse_8.rightButton,mouse_8.clicked_name,textbox_3.text,mouse_9.x,mouse_9.y,mouse_9.leftButton,mouse_9.midButton,mouse_9.rightButton,mouse_9.clicked_name,textbox_4.text,mouse_12.x,mouse_12.y,mouse_12.leftButton,mouse_12.midButton,mouse_12.rightButton,mouse_12.clicked_name,textbox_5.text,mouse_13.x,mouse_13.y,mouse_13.leftButton,mouse_13.midButton,mouse_13.rightButton,mouse_13.clicked_name,textbox_6.text,mouse_14.x,mouse_14.y,mouse_14.leftButton,mouse_14.midButton,mouse_14.rightButton,mouse_14.clicked_name,textbox_7.text,mouse_15.x,mouse_15.y,mouse_15.leftButton,mouse_15.midButton,mouse_15.rightButton,mouse_15.clicked_name
0,0,0,2,1,,6069f9a16164d8e1747bb021,62bbfbb8a10048a50e8850a2,2022-06-29_10h14.47.203,Colour_Asymmetry_Pilot,2022.1.3,Win32,59.35774915,62bbe60bf3d75ef465d3e404,,,,,,,,,,,,,,,,,,,,,,,,,,,,,,,,,,,,,,,,,,,,,,,,,,,,,,,,,,,,,,,,,,,,,,,,,,,,,,,,,,,,,,,,,,,,,,,,,,,,,,,,,,,,,,,,,,,,,,,,,,,,,,,,,,,,,,,,,,,,,,,,,,,,,,,,,,,,,,
0,1,1,20,1,,6069f9a16164d8e1747bb021,62bbfbb8a10048a50e8850a2,2022-06-29_10h14.47.203,Colour_Asymmetry_Pilot,2022.1.3,Win32,59.35774915,62bbe60bf3d75ef465d3e404,,,,,,,,,,,,,,,,,,,,,,,,,,,,,,,,,,,,,,,,,,,,,,,,,,,,,,,,,,,,,,,,,,,,,,,,,,,,,,,,,,,,,,,,,,,,,,,,,,,,,,,,,,,,,,,,,,,,,,,,,,,,,,,,,,,,,,,,,,,,,,,,,,,,,,,,,,,,,,
0,2,2,81,1,,6069f9a16164d8e1747bb021,62bbfbb8a10048a50e8850a2,2022-06-29_10h14.47.203,Colour_Asymmetry_Pilot,2022.1.3,Win32,59.35774915,62bbe60bf3d75ef465d3e404,,,,,,,,,,,,,,,,,,,,,,,,,,,,,,,,,,,,,,,,,,,,,,,,,,,,,,,,,,,,,,,,,,,,,,,,,,,,,,,,,,,,,,,,,,,,,,,,,,,,,,,,,,,,,,,,,,,,,,,,,,,,,,,,,,,,,,,,,,,,,,,,,,,,,,,,,,,,,,
0,3,3,67,1,,6069f9a16164d8e1747bb021,62bbfbb8a10048a50e8850a2,2022-06-29_10h14.47.203,Colour_Asymmetry_Pilot,2022.1.3,Win32,59.35774915,62bbe60bf3d75ef465d3e404,,,,,,,,,,,,,,,,,,,,,,,,,,,,,,,,,,,,,,,,,,,,,,,,,,,,,,,,,,,,,,,,,,,,,,,,,,,,,,,,,,,,,,,,,,,,,,,,,,,,,,,,,,,,,,,,,,,,,,,,,,,,,,,,,,,,,,,,,,,,,,,,,,,,,,,,,,,,,,
0,4,4,1,1,,6069f9a16164d8e1747bb021,62bbfbb8a10048a50e8850a2,2022-06-29_10h14.47.203,Colour_Asymmetry_Pilot,2022.1.3,Win32,59.35774915,62bbe60bf3d75ef465d3e404,,,,,,,,,,,,,,,,,,,,,,,,,,,,,,,,,,,,,,,,,,,,,,,,,,,,,,,,,,,,,,,,,,,,,,,,,,,,,,,,,,,,,,,,,,,,,,,,,,,,,,,,,,,,,,,,,,,,,,,,,,,,,,,,,,,,,,,,,,,,,,,,,,,,,,,,,,,,,,
0,5,5,0,1,,6069f9a16164d8e1747bb021,62bbfbb8a10048a50e8850a2,2022-06-29_10h14.47.203,Colour_Asymmetry_Pilot,2022.1.3,Win32,59.35774915,62bbe60bf3d75ef465d3e404,,,,,,,,,,,,,,,,,,,,,,,,,,,,,,,,,,,,,,,,,,,,,,,,,,,,,,,,,,,,,,,,,,,,,,,,,,,,,,,,,,,,,,,,,,,,,,,,,,,,,,,,,,,,,,,,,,,,,,,,,,,,,,,,,,,,,,,,,,,,,,,,,,,,,,,,,,,,,,
0,6,6,71,1,,6069f9a16164d8e1747bb021,62bbfbb8a10048a50e8850a2,2022-06-29_10h14.47.203,Colour_Asymmetry_Pilot,2022.1.3,Win32,59.35774915,62bbe60bf3d75ef465d3e404,,,,,,,,,,,,,,,,,,,,,,,,,,,,,,,,,,,,,,,,,,,,,,,,,,,,,,,,,,,,,,,,,,,,,,,,,,,,,,,,,,,,,,,,,,,,,,,,,,,,,,,,,,,,,,,,,,,,,,,,,,,,,,,,,,,,,,,,,,,,,,,,,,,,,,,,,,,,,,
0,7,7,25,1,,6069f9a16164d8e1747bb021,62bbfbb8a10048a50e8850a2,2022-06-29_10h14.47.203,Colour_Asymmetry_Pilot,2022.1.3,Win32,59.35774915,62bbe60bf3d75ef465d3e404,,,,,,,,,,,,,,,,,,,,,,,,,,,,,,,,,,,,,,,,,,,,,,,,,,,,,,,,,,,,,,,,,,,,,,,,,,,,,,,,,,,,,,,,,,,,,,,,,,,,,,,,,,,,,,,,,,,,,,,,,,,,,,,,,,,,,,,,,,,,,,,,,,,,,,,,,,,,,,
0,8,8,59,1,,6069f9a16164d8e1747bb021,62bbfbb8a10048a50e8850a2,2022-06-29_10h14.47.203,Colour_Asymmetry_Pilot,2022.1.3,Win32,59.35774915,62bbe60bf3d75ef465d3e404,,,,,,,,,,,,,,,,,,,,,,,,,,,,,,,,,,,,,,,,,,,,,,,,,,,,,,,,,,,,,,,,,,,,,,,,,,,,,,,,,,,,,,,,,,,,,,,,,,,,,,,,,,,,,,,,,,,,,,,,,,,,,,,,,,,,,,,,,,,,,,,,,,,,,,,,,,,,,,
0,9,9,23,1,,6069f9a16164d8e1747bb021,62bbfbb8a10048a50e8850a2,2022-06-29_10h14.47.203,Colour_Asymmetry_Pilot,2022.1.3,Win32,59.35774915,62bbe60bf3d75ef465d3e404,,,,,,,,,,,,,,,,,,,,,,,,,,,,,,,,,,,,,,,,,,,,,,,,,,,,,,,,,,,,,,,,,,,,,,,,,,,,,,,,,,,,,,,,,,,,,,,,,,,,,,,,,,,,,,,,,,,,,,,,,,,,,,,,,,,,,,,,,,,,,,,,,,,,,,,,,,,,,,
0,10,10,79,1,,6069f9a16164d8e1747bb021,62bbfbb8a10048a50e8850a2,2022-06-29_10h14.47.203,Colour_Asymmetry_Pilot,2022.1.3,Win32,59.35774915,62bbe60bf3d75ef465d3e404,,,,,,,,,,,,,,,,,,,,,,,,,,,,,,,,,,,,,,,,,,,,,,,,,,,,,,,,,,,,,,,,,,,,,,,,,,,,,,,,,,,,,,,,,,,,,,,,,,,,,,,,,,,,,,,,,,,,,,,,,,,,,,,,,,,,,,,,,,,,,,,,,,,,,,,,,,,,,,
0,11,11,58,1,,6069f9a16164d8e1747bb021,62bbfbb8a10048a50e8850a2,2022-06-29_10h14.47.203,Colour_Asymmetry_Pilot,2022.1.3,Win32,59.35774915,62bbe60bf3d75ef465d3e404,,,,,,,,,,,,,,,,,,,,,,,,,,,,,,,,,,,,,,,,,,,,,,,,,,,,,,,,,,,,,,,,,,,,,,,,,,,,,,,,,,,,,,,,,,,,,,,,,,,,,,,,,,,,,,,,,,,,,,,,,,,,,,,,,,,,,,,,,,,,,,,,,,,,,,,,,,,,,,
0,12,12,14,1,,6069f9a16164d8e1747bb021,62bbfbb8a10048a50e8850a2,2022-06-29_10h14.47.203,Colour_Asymmetry_Pilot,2022.1.3,Win32,59.35774915,62bbe60bf3d75ef465d3e404,,,,,,,,,,,,,,,,,,,,,,,,,,,,,,,,,,,,,,,,,,,,,,,,,,,,,,,,,,,,,,,,,,,,,,,,,,,,,,,,,,,,,,,,,,,,,,,,,,,,,,,,,,,,,,,,,,,,,,,,,,,,,,,,,,,,,,,,,,,,,,,,,,,,,,,,,,,,,,
0,13,13,43,1,,6069f9a16164d8e1747bb021,62bbfbb8a10048a50e8850a2,2022-06-29_10h14.47.203,Colour_Asymmetry_Pilot,2022.1.3,Win32,59.35774915,62bbe60bf3d75ef465d3e404,,,,,,,,,,,,,,,,,,,,,,,,,,,,,,,,,,,,,,,,,,,,,,,,,,,,,,,,,,,,,,,,,,,,,,,,,,,,,,,,,,,,,,,,,,,,,,,,,,,,,,,,,,,,,,,,,,,,,,,,,,,,,,,,,,,,,,,,,,,,,,,,,,,,,,,,,,,,,,
0,14,14,6,1,,6069f9a16164d8e1747bb021,62bbfbb8a10048a50e8850a2,2022-06-29_10h14.47.203,Colour_Asymmetry_Pilot,2022.1.3,Win32,59.35774915,62bbe60bf3d75ef465d3e404,,,,,,,,,,,,,,,,,,,,,,,,,,,,,,,,,,,,,,,,,,,,,,,,,,,,,,,,,,,,,,,,,,,,,,,,,,,,,,,,,,,,,,,,,,,,,,,,,,,,,,,,,,,,,,,,,,,,,,,,,,,,,,,,,,,,,,,,,,,,,,,,,,,,,,,,,,,,,,
0,15,15,31,1,,6069f9a16164d8e1747bb021,62bbfbb8a10048a50e8850a2,2022-06-29_10h14.47.203,Colour_Asymmetry_Pilot,2022.1.3,Win32,59.35774915,62bbe60bf3d75ef465d3e404,,,,,,,,,,,,,,,,,,,,,,,,,,,,,,,,,,,,,,,,,,,,,,,,,,,,,,,,,,,,,,,,,,,,,,,,,,,,,,,,,,,,,,,,,,,,,,,,,,,,,,,,,,,,,,,,,,,,,,,,,,,,,,,,,,,,,,,,,,,,,,,,,,,,,,,,,,,,,,
0,16,16,61,1,,6069f9a16164d8e1747bb021,62bbfbb8a10048a50e8850a2,2022-06-29_10h14.47.203,Colour_Asymmetry_Pilot,2022.1.3,Win32,59.35774915,62bbe60bf3d75ef465d3e404,,,,,,,,,,,,,,,,,,,,,,,,,,,,,,,,,,,,,,,,,,,,,,,,,,,,,,,,,,,,,,,,,,,,,,,,,,,,,,,,,,,,,,,,,,,,,,,,,,,,,,,,,,,,,,,,,,,,,,,,,,,,,,,,,,,,,,,,,,,,,,,,,,,,,,,,,,,,,,
0,17,17,66,1,,6069f9a16164d8e1747bb021,62bbfbb8a10048a50e8850a2,2022-06-29_10h14.47.203,Colour_Asymmetry_Pilot,2022.1.3,Win32,59.35774915,62bbe60bf3d75ef465d3e404,,,,,,,,,,,,,,,,,,,,,,,,,,,,,,,,,,,,,,,,,,,,,,,,,,,,,,,,,,,,,,,,,,,,,,,,,,,,,,,,,,,,,,,,,,,,,,,,,,,,,,,,,,,,,,,,,,,,,,,,,,,,,,,,,,,,,,,,,,,,,,,,,,,,,,,,,,,,,,
0,18,18,16,1,,6069f9a16164d8e1747bb021,62bbfbb8a10048a50e8850a2,2022-06-29_10h14.47.203,Colour_Asymmetry_Pilot,2022.1.3,Win32,59.35774915,62bbe60bf3d75ef465d3e404,,,,,,,,,,,,,,,,,,,,,,,,,,,,,,,,,,,,,,,,,,,,,,,,,,,,,,,,,,,,,,,,,,,,,,,,,,,,,,,,,,,,,,,,,,,,,,,,,,,,,,,,,,,,,,,,,,,,,,,,,,,,,,,,,,,,,,,,,,,,,,,,,,,,,,,,,,,,,,
0,19,19,50,1,,6069f9a16164d8e1747bb021,62bbfbb8a10048a50e8850a2,2022-06-29_10h14.47.203,Colour_Asymmetry_Pilot,2022.1.3,Win32,59.35774915,62bbe60bf3d75ef465d3e404,,,,,,,,,,,,,,,,,,,,,,,,,,,,,,,,,,,,,,,,,,,,,,,,,,,,,,,,,,,,,,,,,,,,,,,,,,,,,,,,,,,,,,,,,,,,,,,,,,,,,,,,,,,,,,,,,,,,,,,,,,,,,,,,,,,,,,,,,,,,,,,,,,,,,,,,,,,,,,
0,20,20,63,1,,6069f9a16164d8e1747bb021,62bbfbb8a10048a50e8850a2,2022-06-29_10h14.47.203,Colour_Asymmetry_Pilot,2022.1.3,Win32,59.35774915,62bbe60bf3d75ef465d3e404,,,,,,,,,,,,,,,,,,,,,,,,,,,,,,,,,,,,,,,,,,,,,,,,,,,,,,,,,,,,,,,,,,,,,,,,,,,,,,,,,,,,,,,,,,,,,,,,,,,,,,,,,,,,,,,,,,,,,,,,,,,,,,,,,,,,,,,,,,,,,,,,,,,,,,,,,,,,,,
0,21,21,84,1,,6069f9a16164d8e1747bb021,62bbfbb8a10048a50e8850a2,2022-06-29_10h14.47.203,Colour_Asymmetry_Pilot,2022.1.3,Win32,59.35774915,62bbe60bf3d75ef465d3e404,,,,,,,,,,,,,,,,,,,,,,,,,,,,,,,,,,,,,,,,,,,,,,,,,,,,,,,,,,,,,,,,,,,,,,,,,,,,,,,,,,,,,,,,,,,,,,,,,,,,,,,,,,,,,,,,,,,,,,,,,,,,,,,,,,,,,,,,,,,,,,,,,,,,,,,,,,,,,,
0,22,22,18,1,,6069f9a16164d8e1747bb021,62bbfbb8a10048a50e8850a2,2022-06-29_10h14.47.203,Colour_Asymmetry_Pilot,2022.1.3,Win32,59.35774915,62bbe60bf3d75ef465d3e404,,,,,,,,,,,,,,,,,,,,,,,,,,,,,,,,,,,,,,,,,,,,,,,,,,,,,,,,,,,,,,,,,,,,,,,,,,,,,,,,,,,,,,,,,,,,,,,,,,,,,,,,,,,,,,,,,,,,,,,,,,,,,,,,,,,,,,,,,,,,,,,,,,,,,,,,,,,,,,
0,23,23,32,1,,6069f9a16164d8e1747bb021,62bbfbb8a10048a50e8850a2,2022-06-29_10h14.47.203,Colour_Asymmetry_Pilot,2022.1.3,Win32,59.35774915,62bbe60bf3d75ef465d3e404,,,,,,,,,,,,,,,,,,,,,,,,,,,,,,,,,,,,,,,,,,,,,,,,,,,,,,,,,,,,,,,,,,,,,,,,,,,,,,,,,,,,,,,,,,,,,,,,,,,,,,,,,,,,,,,,,,,,,,,,,,,,,,,,,,,,,,,,,,,,,,,,,,,,,,,,,,,,,,
0,24,24,7,1,,6069f9a16164d8e1747bb021,62bbfbb8a10048a50e8850a2,2022-06-29_10h14.47.203,Colour_Asymmetry_Pilot,2022.1.3,Win32,59.35774915,62bbe60bf3d75ef465d3e404,,,,,,,,,,,,,,,,,,,,,,,,,,,,,,,,,,,,,,,,,,,,,,,,,,,,,,,,,,,,,,,,,,,,,,,,,,,,,,,,,,,,,,,,,,,,,,,,,,,,,,,,,,,,,,,,,,,,,,,,,,,,,,,,,,,,,,,,,,,,,,,,,,,,,,,,,,,,,,
0,25,25,36,1,,6069f9a16164d8e1747bb021,62bbfbb8a10048a50e8850a2,2022-06-29_10h14.47.203,Colour_Asymmetry_Pilot,2022.1.3,Win32,59.35774915,62bbe60bf3d75ef465d3e404,,,,,,,,,,,,,,,,,,,,,,,,,,,,,,,,,,,,,,,,,,,,,,,,,,,,,,,,,,,,,,,,,,,,,,,,,,,,,,,,,,,,,,,,,,,,,,,,,,,,,,,,,,,,,,,,,,,,,,,,,,,,,,,,,,,,,,,,,,,,,,,,,,,,,,,,,,,,,,
0,26,26,82,1,,6069f9a16164d8e1747bb021,62bbfbb8a10048a50e8850a2,2022-06-29_10h14.47.203,Colour_Asymmetry_Pilot,2022.1.3,Win32,59.35774915,62bbe60bf3d75ef465d3e404,,,,,,,,,,,,,,,,,,,,,,,,,,,,,,,,,,,,,,,,,,,,,,,,,,,,,,,,,,,,,,,,,,,,,,,,,,,,,,,,,,,,,,,,,,,,,,,,,,,,,,,,,,,,,,,,,,,,,,,,,,,,,,,,,,,,,,,,,,,,,,,,,,,,,,,,,,,,,,
0,27,27,60,1,,6069f9a16164d8e1747bb021,62bbfbb8a10048a50e8850a2,2022-06-29_10h14.47.203,Colour_Asymmetry_Pilot,2022.1.3,Win32,59.35774915,62bbe60bf3d75ef465d3e404,,,,,,,,,,,,,,,,,,,,,,,,,,,,,,,,,,,,,,,,,,,,,,,,,,,,,,,,,,,,,,,,,,,,,,,,,,,,,,,,,,,,,,,,,,,,,,,,,,,,,,,,,,,,,,,,,,,,,,,,,,,,,,,,,,,,,,,,,,,,,,,,,,,,,,,,,,,,,,
0,28,28,19,1,,6069f9a16164d8e1747bb021,62bbfbb8a10048a50e8850a2,2022-06-29_10h14.47.203,Colour_Asymmetry_Pilot,2022.1.3,Win32,59.35774915,62bbe60bf3d75ef465d3e404,,,,,,,,,,,,,,,,,,,,,,,,,,,,,,,,,,,,,,,,,,,,,,,,,,,,,,,,,,,,,,,,,,,,,,,,,,,,,,,,,,,,,,,,,,,,,,,,,,,,,,,,,,,,,,,,,,,,,,,,,,,,,,,,,,,,,,,,,,,,,,,,,,,,,,,,,,,,,,
0,29,29,83,1,,6069f9a16164d8e1747bb021,62bbfbb8a10048a50e8850a2,2022-06-29_10h14.47.203,Colour_Asymmetry_Pilot,2022.1.3,Win32,59.35774915,62bbe60bf3d75ef465d3e404,,,,,,,,,,,,,,,,,,,,,,,,,,,,,,,,,,,,,,,,,,,,,,,,,,,,,,,,,,,,,,,,,,,,,,,,,,,,,,,,,,,,,,,,,,,,,,,,,,,,,,,,,,,,,,,,,,,,,,,,,,,,,,,,,,,,,,,,,,,,,,,,,,,,,,,,,,,,,,
0,30,30,27,1,,6069f9a16164d8e1747bb021,62bbfbb8a10048a50e8850a2,2022-06-29_10h14.47.203,Colour_Asymmetry_Pilot,2022.1.3,Win32,59.35774915,62bbe60bf3d75ef465d3e404,,,,,,,,,,,,,,,,,,,,,,,,,,,,,,,,,,,,,,,,,,,,,,,,,,,,,,,,,,,,,,,,,,,,,,,,,,,,,,,,,,,,,,,,,,,,,,,,,,,,,,,,,,,,,,,,,,,,,,,,,,,,,,,,,,,,,,,,,,,,,,,,,,,,,,,,,,,,,,
0,31,31,26,1,,6069f9a16164d8e1747bb021,62bbfbb8a10048a50e8850a2,2022-06-29_10h14.47.203,Colour_Asymmetry_Pilot,2022.1.3,Win32,59.35774915,62bbe60bf3d75ef465d3e404,,,,,,,,,,,,,,,,,,,,,,,,,,,,,,,,,,,,,,,,,,,,,,,,,,,,,,,,,,,,,,,,,,,,,,,,,,,,,,,,,,,,,,,,,,,,,,,,,,,,,,,,,,,,,,,,,,,,,,,,,,,,,,,,,,,,,,,,,,,,,,,,,,,,,,,,,,,,,,
0,32,32,12,1,,6069f9a16164d8e1747bb021,62bbfbb8a10048a50e8850a2,2022-06-29_10h14.47.203,Colour_Asymmetry_Pilot,2022.1.3,Win32,59.35774915,62bbe60bf3d75ef465d3e404,,,,,,,,,,,,,,,,,,,,,,,,,,,,,,,,,,,,,,,,,,,,,,,,,,,,,,,,,,,,,,,,,,,,,,,,,,,,,,,,,,,,,,,,,,,,,,,,,,,,,,,,,,,,,,,,,,,,,,,,,,,,,,,,,,,,,,,,,,,,,,,,,,,,,,,,,,,,,,
0,33,33,13,1,,6069f9a16164d8e1747bb021,62bbfbb8a10048a50e8850a2,2022-06-29_10h14.47.203,Colour_Asymmetry_Pilot,2022.1.3,Win32,59.35774915,62bbe60bf3d75ef465d3e404,,,,,,,,,,,,,,,,,,,,,,,,,,,,,,,,,,,,,,,,,,,,,,,,,,,,,,,,,,,,,,,,,,,,,,,,,,,,,,,,,,,,,,,,,,,,,,,,,,,,,,,,,,,,,,,,,,,,,,,,,,,,,,,,,,,,,,,,,,,,,,,,,,,,,,,,,,,,,,
0,34,34,33,1,,6069f9a16164d8e1747bb021,62bbfbb8a10048a50e8850a2,2022-06-29_10h14.47.203,Colour_Asymmetry_Pilot,2022.1.3,Win32,59.35774915,62bbe60bf3d75ef465d3e404,,,,,,,,,,,,,,,,,,,,,,,,,,,,,,,,,,,,,,,,,,,,,,,,,,,,,,,,,,,,,,,,,,,,,,,,,,,,,,,,,,,,,,,,,,,,,,,,,,,,,,,,,,,,,,,,,,,,,,,,,,,,,,,,,,,,,,,,,,,,,,,,,,,,,,,,,,,,,,
0,35,35,86,1,,6069f9a16164d8e1747bb021,62bbfbb8a10048a50e8850a2,2022-06-29_10h14.47.203,Colour_Asymmetry_Pilot,2022.1.3,Win32,59.35774915,62bbe60bf3d75ef465d3e404,,,,,,,,,,,,,,,,,,,,,,,,,,,,,,,,,,,,,,,,,,,,,,,,,,,,,,,,,,,,,,,,,,,,,,,,,,,,,,,,,,,,,,,,,,,,,,,,,,,,,,,,,,,,,,,,,,,,,,,,,,,,,,,,,,,,,,,,,,,,,,,,,,,,,,,,,,,,,,
0,36,36,52,1,,6069f9a16164d8e1747bb021,62bbfbb8a10048a50e8850a2,2022-06-29_10h14.47.203,Colour_Asymmetry_Pilot,2022.1.3,Win32,59.35774915,62bbe60bf3d75ef465d3e404,,,,,,,,,,,,,,,,,,,,,,,,,,,,,,,,,,,,,,,,,,,,,,,,,,,,,,,,,,,,,,,,,,,,,,,,,,,,,,,,,,,,,,,,,,,,,,,,,,,,,,,,,,,,,,,,,,,,,,,,,,,,,,,,,,,,,,,,,,,,,,,,,,,,,,,,,,,,,,
0,37,37,56,1,,6069f9a16164d8e1747bb021,62bbfbb8a10048a50e8850a2,2022-06-29_10h14.47.203,Colour_Asymmetry_Pilot,2022.1.3,Win32,59.35774915,62bbe60bf3d75ef465d3e404,,,,,,,,,,,,,,,,,,,,,,,,,,,,,,,,,,,,,,,,,,,,,,,,,,,,,,,,,,,,,,,,,,,,,,,,,,,,,,,,,,,,,,,,,,,,,,,,,,,,,,,,,,,,,,,,,,,,,,,,,,,,,,,,,,,,,,,,,,,,,,,,,,,,,,,,,,,,,,
0,38,38,41,1,,6069f9a16164d8e1747bb021,62bbfbb8a10048a50e8850a2,2022-06-29_10h14.47.203,Colour_Asymmetry_Pilot,2022.1.3,Win32,59.35774915,62bbe60bf3d75ef465d3e404,,,,,,,,,,,,,,,,,,,,,,,,,,,,,,,,,,,,,,,,,,,,,,,,,,,,,,,,,,,,,,,,,,,,,,,,,,,,,,,,,,,,,,,,,,,,,,,,,,,,,,,,,,,,,,,,,,,,,,,,,,,,,,,,,,,,,,,,,,,,,,,,,,,,,,,,,,,,,,
0,39,39,73,1,,6069f9a16164d8e1747bb021,62bbfbb8a10048a50e8850a2,2022-06-29_10h14.47.203,Colour_Asymmetry_Pilot,2022.1.3,Win32,59.35774915,62bbe60bf3d75ef465d3e404,,,,,,,,,,,,,,,,,,,,,,,,,,,,,,,,,,,,,,,,,,,,,,,,,,,,,,,,,,,,,,,,,,,,,,,,,,,,,,,,,,,,,,,,,,,,,,,,,,,,,,,,,,,,,,,,,,,,,,,,,,,,,,,,,,,,,,,,,,,,,,,,,,,,,,,,,,,,,,
0,40,40,92,1,,6069f9a16164d8e1747bb021,62bbfbb8a10048a50e8850a2,2022-06-29_10h14.47.203,Colour_Asymmetry_Pilot,2022.1.3,Win32,59.35774915,62bbe60bf3d75ef465d3e404,,,,,,,,,,,,,,,,,,,,,,,,,,,,,,,,,,,,,,,,,,,,,,,,,,,,,,,,,,,,,,,,,,,,,,,,,,,,,,,,,,,,,,,,,,,,,,,,,,,,,,,,,,,,,,,,,,,,,,,,,,,,,,,,,,,,,,,,,,,,,,,,,,,,,,,,,,,,,,
0,41,41,28,1,,6069f9a16164d8e1747bb021,62bbfbb8a10048a50e8850a2,2022-06-29_10h14.47.203,Colour_Asymmetry_Pilot,2022.1.3,Win32,59.35774915,62bbe60bf3d75ef465d3e404,,,,,,,,,,,,,,,,,,,,,,,,,,,,,,,,,,,,,,,,,,,,,,,,,,,,,,,,,,,,,,,,,,,,,,,,,,,,,,,,,,,,,,,,,,,,,,,,,,,,,,,,,,,,,,,,,,,,,,,,,,,,,,,,,,,,,,,,,,,,,,,,,,,,,,,,,,,,,,
0,42,42,47,1,,6069f9a16164d8e1747bb021,62bbfbb8a10048a50e8850a2,2022-06-29_10h14.47.203,Colour_Asymmetry_Pilot,2022.1.3,Win32,59.35774915,62bbe60bf3d75ef465d3e404,,,,,,,,,,,,,,,,,,,,,,,,,,,,,,,,,,,,,,,,,,,,,,,,,,,,,,,,,,,,,,,,,,,,,,,,,,,,,,,,,,,,,,,,,,,,,,,,,,,,,,,,,,,,,,,,,,,,,,,,,,,,,,,,,,,,,,,,,,,,,,,,,,,,,,,,,,,,,,
0,43,43,11,1,,6069f9a16164d8e1747bb021,62bbfbb8a10048a50e8850a2,2022-06-29_10h14.47.203,Colour_Asymmetry_Pilot,2022.1.3,Win32,59.35774915,62bbe60bf3d75ef465d3e404,,,,,,,,,,,,,,,,,,,,,,,,,,,,,,,,,,,,,,,,,,,,,,,,,,,,,,,,,,,,,,,,,,,,,,,,,,,,,,,,,,,,,,,,,,,,,,,,,,,,,,,,,,,,,,,,,,,,,,,,,,,,,,,,,,,,,,,,,,,,,,,,,,,,,,,,,,,,,,
0,44,44,30,1,,6069f9a16164d8e1747bb021,62bbfbb8a10048a50e8850a2,2022-06-29_10h14.47.203,Colour_Asymmetry_Pilot,2022.1.3,Win32,59.35774915,62bbe60bf3d75ef465d3e404,,,,,,,,,,,,,,,,,,,,,,,,,,,,,,,,,,,,,,,,,,,,,,,,,,,,,,,,,,,,,,,,,,,,,,,,,,,,,,,,,,,,,,,,,,,,,,,,,,,,,,,,,,,,,,,,,,,,,,,,,,,,,,,,,,,,,,,,,,,,,,,,,,,,,,,,,,,,,,
0,45,45,72,1,,6069f9a16164d8e1747bb021,62bbfbb8a10048a50e8850a2,2022-06-29_10h14.47.203,Colour_Asymmetry_Pilot,2022.1.3,Win32,59.35774915,62bbe60bf3d75ef465d3e404,,,,,,,,,,,,,,,,,,,,,,,,,,,,,,,,,,,,,,,,,,,,,,,,,,,,,,,,,,,,,,,,,,,,,,,,,,,,,,,,,,,,,,,,,,,,,,,,,,,,,,,,,,,,,,,,,,,,,,,,,,,,,,,,,,,,,,,,,,,,,,,,,,,,,,,,,,,,,,
0,46,46,5,1,,6069f9a16164d8e1747bb021,62bbfbb8a10048a50e8850a2,2022-06-29_10h14.47.203,Colour_Asymmetry_Pilot,2022.1.3,Win32,59.35774915,62bbe60bf3d75ef465d3e404,,,,,,,,,,,,,,,,,,,,,,,,,,,,,,,,,,,,,,,,,,,,,,,,,,,,,,,,,,,,,,,,,,,,,,,,,,,,,,,,,,,,,,,,,,,,,,,,,,,,,,,,,,,,,,,,,,,,,,,,,,,,,,,,,,,,,,,,,,,,,,,,,,,,,,,,,,,,,,
0,47,47,80,1,,6069f9a16164d8e1747bb021,62bbfbb8a10048a50e8850a2,2022-06-29_10h14.47.203,Colour_Asymmetry_Pilot,2022.1.3,Win32,59.35774915,62bbe60bf3d75ef465d3e404,,,,,,,,,,,,,,,,,,,,,,,,,,,,,,,,,,,,,,,,,,,,,,,,,,,,,,,,,,,,,,,,,,,,,,,,,,,,,,,,,,,,,,,,,,,,,,,,,,,,,,,,,,,,,,,,,,,,,,,,,,,,,,,,,,,,,,,,,,,,,,,,,,,,,,,,,,,,,,
0,48,48,91,1,,6069f9a16164d8e1747bb021,62bbfbb8a10048a50e8850a2,2022-06-29_10h14.47.203,Colour_Asymmetry_Pilot,2022.1.3,Win32,59.35774915,62bbe60bf3d75ef465d3e404,,,,,,,,,,,,,,,,,,,,,,,,,,,,,,,,,,,,,,,,,,,,,,,,,,,,,,,,,,,,,,,,,,,,,,,,,,,,,,,,,,,,,,,,,,,,,,,,,,,,,,,,,,,,,,,,,,,,,,,,,,,,,,,,,,,,,,,,,,,,,,,,,,,,,,,,,,,,,,
0,49,49,44,1,,6069f9a16164d8e1747bb021,62bbfbb8a10048a50e8850a2,2022-06-29_10h14.47.203,Colour_Asymmetry_Pilot,2022.1.3,Win32,59.35774915,62bbe60bf3d75ef465d3e404,,,,,,,,,,,,,,,,,,,,,,,,,,,,,,,,,,,,,,,,,,,,,,,,,,,,,,,,,,,,,,,,,,,,,,,,,,,,,,,,,,,,,,,,,,,,,,,,,,,,,,,,,,,,,,,,,,,,,,,,,,,,,,,,,,,,,,,,,,,,,,,,,,,,,,,,,,,,,,
0,50,50,57,1,,6069f9a16164d8e1747bb021,62bbfbb8a10048a50e8850a2,2022-06-29_10h14.47.203,Colour_Asymmetry_Pilot,2022.1.3,Win32,59.35774915,62bbe60bf3d75ef465d3e404,,,,,,,,,,,,,,,,,,,,,,,,,,,,,,,,,,,,,,,,,,,,,,,,,,,,,,,,,,,,,,,,,,,,,,,,,,,,,,,,,,,,,,,,,,,,,,,,,,,,,,,,,,,,,,,,,,,,,,,,,,,,,,,,,,,,,,,,,,,,,,,,,,,,,,,,,,,,,,
0,51,51,53,1,,6069f9a16164d8e1747bb021,62bbfbb8a10048a50e8850a2,2022-06-29_10h14.47.203,Colour_Asymmetry_Pilot,2022.1.3,Win32,59.35774915,62bbe60bf3d75ef465d3e404,,,,,,,,,,,,,,,,,,,,,,,,,,,,,,,,,,,,,,,,,,,,,,,,,,,,,,,,,,,,,,,,,,,,,,,,,,,,,,,,,,,,,,,,,,,,,,,,,,,,,,,,,,,,,,,,,,,,,,,,,,,,,,,,,,,,,,,,,,,,,,,,,,,,,,,,,,,,,,
0,52,52,69,1,,6069f9a16164d8e1747bb021,62bbfbb8a10048a50e8850a2,2022-06-29_10h14.47.203,Colour_Asymmetry_Pilot,2022.1.3,Win32,59.35774915,62bbe60bf3d75ef465d3e404,,,,,,,,,,,,,,,,,,,,,,,,,,,,,,,,,,,,,,,,,,,,,,,,,,,,,,,,,,,,,,,,,,,,,,,,,,,,,,,,,,,,,,,,,,,,,,,,,,,,,,,,,,,,,,,,,,,,,,,,,,,,,,,,,,,,,,,,,,,,,,,,,,,,,,,,,,,,,,
0,53,53,62,1,,6069f9a16164d8e1747bb021,62bbfbb8a10048a50e8850a2,2022-06-29_10h14.47.203,Colour_Asymmetry_Pilot,2022.1.3,Win32,59.35774915,62bbe60bf3d75ef465d3e404,,,,,,,,,,,,,,,,,,,,,,,,,,,,,,,,,,,,,,,,,,,,,,,,,,,,,,,,,,,,,,,,,,,,,,,,,,,,,,,,,,,,,,,,,,,,,,,,,,,,,,,,,,,,,,,,,,,,,,,,,,,,,,,,,,,,,,,,,,,,,,,,,,,,,,,,,,,,,,
0,54,54,38,1,,6069f9a16164d8e1747bb021,62bbfbb8a10048a50e8850a2,2022-06-29_10h14.47.203,Colour_Asymmetry_Pilot,2022.1.3,Win32,59.35774915,62bbe60bf3d75ef465d3e404,,,,,,,,,,,,,,,,,,,,,,,,,,,,,,,,,,,,,,,,,,,,,,,,,,,,,,,,,,,,,,,,,,,,,,,,,,,,,,,,,,,,,,,,,,,,,,,,,,,,,,,,,,,,,,,,,,,,,,,,,,,,,,,,,,,,,,,,,,,,,,,,,,,,,,,,,,,,,,
0,55,55,21,1,,6069f9a16164d8e1747bb021,62bbfbb8a10048a50e8850a2,2022-06-29_10h14.47.203,Colour_Asymmetry_Pilot,2022.1.3,Win32,59.35774915,62bbe60bf3d75ef465d3e404,,,,,,,,,,,,,,,,,,,,,,,,,,,,,,,,,,,,,,,,,,,,,,,,,,,,,,,,,,,,,,,,,,,,,,,,,,,,,,,,,,,,,,,,,,,,,,,,,,,,,,,,,,,,,,,,,,,,,,,,,,,,,,,,,,,,,,,,,,,,,,,,,,,,,,,,,,,,,,
0,56,56,74,1,,6069f9a16164d8e1747bb021,62bbfbb8a10048a50e8850a2,2022-06-29_10h14.47.203,Colour_Asymmetry_Pilot,2022.1.3,Win32,59.35774915,62bbe60bf3d75ef465d3e404,,,,,,,,,,,,,,,,,,,,,,,,,,,,,,,,,,,,,,,,,,,,,,,,,,,,,,,,,,,,,,,,,,,,,,,,,,,,,,,,,,,,,,,,,,,,,,,,,,,,,,,,,,,,,,,,,,,,,,,,,,,,,,,,,,,,,,,,,,,,,,,,,,,,,,,,,,,,,,
0,57,57,40,1,,6069f9a16164d8e1747bb021,62bbfbb8a10048a50e8850a2,2022-06-29_10h14.47.203,Colour_Asymmetry_Pilot,2022.1.3,Win32,59.35774915,62bbe60bf3d75ef465d3e404,,,,,,,,,,,,,,,,,,,,,,,,,,,,,,,,,,,,,,,,,,,,,,,,,,,,,,,,,,,,,,,,,,,,,,,,,,,,,,,,,,,,,,,,,,,,,,,,,,,,,,,,,,,,,,,,,,,,,,,,,,,,,,,,,,,,,,,,,,,,,,,,,,,,,,,,,,,,,,
0,58,58,76,1,,6069f9a16164d8e1747bb021,62bbfbb8a10048a50e8850a2,2022-06-29_10h14.47.203,Colour_Asymmetry_Pilot,2022.1.3,Win32,59.35774915,62bbe60bf3d75ef465d3e404,,,,,,,,,,,,,,,,,,,,,,,,,,,,,,,,,,,,,,,,,,,,,,,,,,,,,,,,,,,,,,,,,,,,,,,,,,,,,,,,,,,,,,,,,,,,,,,,,,,,,,,,,,,,,,,,,,,,,,,,,,,,,,,,,,,,,,,,,,,,,,,,,,,,,,,,,,,,,,
0,59,59,24,1,,6069f9a16164d8e1747bb021,62bbfbb8a10048a50e8850a2,2022-06-29_10h14.47.203,Colour_Asymmetry_Pilot,2022.1.3,Win32,59.35774915,62bbe60bf3d75ef465d3e404,,,,,,,,,,,,,,,,,,,,,,,,,,,,,,,,,,,,,,,,,,,,,,,,,,,,,,,,,,,,,,,,,,,,,,,,,,,,,,,,,,,,,,,,,,,,,,,,,,,,,,,,,,,,,,,,,,,,,,,,,,,,,,,,,,,,,,,,,,,,,,,,,,,,,,,,,,,,,,
0,60,60,3,1,,6069f9a16164d8e1747bb021,62bbfbb8a10048a50e8850a2,2022-06-29_10h14.47.203,Colour_Asymmetry_Pilot,2022.1.3,Win32,59.35774915,62bbe60bf3d75ef465d3e404,,,,,,,,,,,,,,,,,,,,,,,,,,,,,,,,,,,,,,,,,,,,,,,,,,,,,,,,,,,,,,,,,,,,,,,,,,,,,,,,,,,,,,,,,,,,,,,,,,,,,,,,,,,,,,,,,,,,,,,,,,,,,,,,,,,,,,,,,,,,,,,,,,,,,,,,,,,,,,
0,61,61,39,1,,6069f9a16164d8e1747bb021,62bbfbb8a10048a50e8850a2,2022-06-29_10h14.47.203,Colour_Asymmetry_Pilot,2022.1.3,Win32,59.35774915,62bbe60bf3d75ef465d3e404,,,,,,,,,,,,,,,,,,,,,,,,,,,,,,,,,,,,,,,,,,,,,,,,,,,,,,,,,,,,,,,,,,,,,,,,,,,,,,,,,,,,,,,,,,,,,,,,,,,,,,,,,,,,,,,,,,,,,,,,,,,,,,,,,,,,,,,,,,,,,,,,,,,,,,,,,,,,,,
0,62,62,22,1,,6069f9a16164d8e1747bb021,62bbfbb8a10048a50e8850a2,2022-06-29_10h14.47.203,Colour_Asymmetry_Pilot,2022.1.3,Win32,59.35774915,62bbe60bf3d75ef465d3e404,,,,,,,,,,,,,,,,,,,,,,,,,,,,,,,,,,,,,,,,,,,,,,,,,,,,,,,,,,,,,,,,,,,,,,,,,,,,,,,,,,,,,,,,,,,,,,,,,,,,,,,,,,,,,,,,,,,,,,,,,,,,,,,,,,,,,,,,,,,,,,,,,,,,,,,,,,,,,,
0,63,63,64,1,,6069f9a16164d8e1747bb021,62bbfbb8a10048a50e8850a2,2022-06-29_10h14.47.203,Colour_Asymmetry_Pilot,2022.1.3,Win32,59.35774915,62bbe60bf3d75ef465d3e404,,,,,,,,,,,,,,,,,,,,,,,,,,,,,,,,,,,,,,,,,,,,,,,,,,,,,,,,,,,,,,,,,,,,,,,,,,,,,,,,,,,,,,,,,,,,,,,,,,,,,,,,,,,,,,,,,,,,,,,,,,,,,,,,,,,,,,,,,,,,,,,,,,,,,,,,,,,,,,
0,64,64,90,1,,6069f9a16164d8e1747bb021,62bbfbb8a10048a50e8850a2,2022-06-29_10h14.47.203,Colour_Asymmetry_Pilot,2022.1.3,Win32,59.35774915,62bbe60bf3d75ef465d3e404,,,,,,,,,,,,,,,,,,,,,,,,,,,,,,,,,,,,,,,,,,,,,,,,,,,,,,,,,,,,,,,,,,,,,,,,,,,,,,,,,,,,,,,,,,,,,,,,,,,,,,,,,,,,,,,,,,,,,,,,,,,,,,,,,,,,,,,,,,,,,,,,,,,,,,,,,,,,,,
0,65,65,29,1,,6069f9a16164d8e1747bb021,62bbfbb8a10048a50e8850a2,2022-06-29_10h14.47.203,Colour_Asymmetry_Pilot,2022.1.3,Win32,59.35774915,62bbe60bf3d75ef465d3e404,,,,,,,,,,,,,,,,,,,,,,,,,,,,,,,,,,,,,,,,,,,,,,,,,,,,,,,,,,,,,,,,,,,,,,,,,,,,,,,,,,,,,,,,,,,,,,,,,,,,,,,,,,,,,,,,,,,,,,,,,,,,,,,,,,,,,,,,,,,,,,,,,,,,,,,,,,,,,,
0,66,66,17,1,,6069f9a16164d8e1747bb021,62bbfbb8a10048a50e8850a2,2022-06-29_10h14.47.203,Colour_Asymmetry_Pilot,2022.1.3,Win32,59.35774915,62bbe60bf3d75ef465d3e404,,,,,,,,,,,,,,,,,,,,,,,,,,,,,,,,,,,,,,,,,,,,,,,,,,,,,,,,,,,,,,,,,,,,,,,,,,,,,,,,,,,,,,,,,,,,,,,,,,,,,,,,,,,,,,,,,,,,,,,,,,,,,,,,,,,,,,,,,,,,,,,,,,,,,,,,,,,,,,
0,67,67,48,1,,6069f9a16164d8e1747bb021,62bbfbb8a10048a50e8850a2,2022-06-29_10h14.47.203,Colour_Asymmetry_Pilot,2022.1.3,Win32,59.35774915,62bbe60bf3d75ef465d3e404,,,,,,,,,,,,,,,,,,,,,,,,,,,,,,,,,,,,,,,,,,,,,,,,,,,,,,,,,,,,,,,,,,,,,,,,,,,,,,,,,,,,,,,,,,,,,,,,,,,,,,,,,,,,,,,,,,,,,,,,,,,,,,,,,,,,,,,,,,,,,,,,,,,,,,,,,,,,,,
0,68,68,75,1,,6069f9a16164d8e1747bb021,62bbfbb8a10048a50e8850a2,2022-06-29_10h14.47.203,Colour_Asymmetry_Pilot,2022.1.3,Win32,59.35774915,62bbe60bf3d75ef465d3e404,,,,,,,,,,,,,,,,,,,,,,,,,,,,,,,,,,,,,,,,,,,,,,,,,,,,,,,,,,,,,,,,,,,,,,,,,,,,,,,,,,,,,,,,,,,,,,,,,,,,,,,,,,,,,,,,,,,,,,,,,,,,,,,,,,,,,,,,,,,,,,,,,,,,,,,,,,,,,,
0,69,69,65,1,,6069f9a16164d8e1747bb021,62bbfbb8a10048a50e8850a2,2022-06-29_10h14.47.203,Colour_Asymmetry_Pilot,2022.1.3,Win32,59.35774915,62bbe60bf3d75ef465d3e404,,,,,,,,,,,,,,,,,,,,,,,,,,,,,,,,,,,,,,,,,,,,,,,,,,,,,,,,,,,,,,,,,,,,,,,,,,,,,,,,,,,,,,,,,,,,,,,,,,,,,,,,,,,,,,,,,,,,,,,,,,,,,,,,,,,,,,,,,,,,,,,,,,,,,,,,,,,,,,
0,70,70,70,1,,6069f9a16164d8e1747bb021,62bbfbb8a10048a50e8850a2,2022-06-29_10h14.47.203,Colour_Asymmetry_Pilot,2022.1.3,Win32,59.35774915,62bbe60bf3d75ef465d3e404,,,,,,,,,,,,,,,,,,,,,,,,,,,,,,,,,,,,,,,,,,,,,,,,,,,,,,,,,,,,,,,,,,,,,,,,,,,,,,,,,,,,,,,,,,,,,,,,,,,,,,,,,,,,,,,,,,,,,,,,,,,,,,,,,,,,,,,,,,,,,,,,,,,,,,,,,,,,,,
0,71,71,88,1,,6069f9a16164d8e1747bb021,62bbfbb8a10048a50e8850a2,2022-06-29_10h14.47.203,Colour_Asymmetry_Pilot,2022.1.3,Win32,59.35774915,62bbe60bf3d75ef465d3e404,,,,,,,,,,,,,,,,,,,,,,,,,,,,,,,,,,,,,,,,,,,,,,,,,,,,,,,,,,,,,,,,,,,,,,,,,,,,,,,,,,,,,,,,,,,,,,,,,,,,,,,,,,,,,,,,,,,,,,,,,,,,,,,,,,,,,,,,,,,,,,,,,,,,,,,,,,,,,,
0,72,72,35,1,,6069f9a16164d8e1747bb021,62bbfbb8a10048a50e8850a2,2022-06-29_10h14.47.203,Colour_Asymmetry_Pilot,2022.1.3,Win32,59.35774915,62bbe60bf3d75ef465d3e404,,,,,,,,,,,,,,,,,,,,,,,,,,,,,,,,,,,,,,,,,,,,,,,,,,,,,,,,,,,,,,,,,,,,,,,,,,,,,,,,,,,,,,,,,,,,,,,,,,,,,,,,,,,,,,,,,,,,,,,,,,,,,,,,,,,,,,,,,,,,,,,,,,,,,,,,,,,,,,
0,73,73,77,1,,6069f9a16164d8e1747bb021,62bbfbb8a10048a50e8850a2,2022-06-29_10h14.47.203,Colour_Asymmetry_Pilot,2022.1.3,Win32,59.35774915,62bbe60bf3d75ef465d3e404,,,,,,,,,,,,,,,,,,,,,,,,,,,,,,,,,,,,,,,,,,,,,,,,,,,,,,,,,,,,,,,,,,,,,,,,,,,,,,,,,,,,,,,,,,,,,,,,,,,,,,,,,,,,,,,,,,,,,,,,,,,,,,,,,,,,,,,,,,,,,,,,,,,,,,,,,,,,,,
0,74,74,78,1,,6069f9a16164d8e1747bb021,62bbfbb8a10048a50e8850a2,2022-06-29_10h14.47.203,Colour_Asymmetry_Pilot,2022.1.3,Win32,59.35774915,62bbe60bf3d75ef465d3e404,,,,,,,,,,,,,,,,,,,,,,,,,,,,,,,,,,,,,,,,,,,,,,,,,,,,,,,,,,,,,,,,,,,,,,,,,,,,,,,,,,,,,,,,,,,,,,,,,,,,,,,,,,,,,,,,,,,,,,,,,,,,,,,,,,,,,,,,,,,,,,,,,,,,,,,,,,,,,,
0,75,75,89,1,,6069f9a16164d8e1747bb021,62bbfbb8a10048a50e8850a2,2022-06-29_10h14.47.203,Colour_Asymmetry_Pilot,2022.1.3,Win32,59.35774915,62bbe60bf3d75ef465d3e404,,,,,,,,,,,,,,,,,,,,,,,,,,,,,,,,,,,,,,,,,,,,,,,,,,,,,,,,,,,,,,,,,,,,,,,,,,,,,,,,,,,,,,,,,,,,,,,,,,,,,,,,,,,,,,,,,,,,,,,,,,,,,,,,,,,,,,,,,,,,,,,,,,,,,,,,,,,,,,
0,76,76,45,1,,6069f9a16164d8e1747bb021,62bbfbb8a10048a50e8850a2,2022-06-29_10h14.47.203,Colour_Asymmetry_Pilot,2022.1.3,Win32,59.35774915,62bbe60bf3d75ef465d3e404,,,,,,,,,,,,,,,,,,,,,,,,,,,,,,,,,,,,,,,,,,,,,,,,,,,,,,,,,,,,,,,,,,,,,,,,,,,,,,,,,,,,,,,,,,,,,,,,,,,,,,,,,,,,,,,,,,,,,,,,,,,,,,,,,,,,,,,,,,,,,,,,,,,,,,,,,,,,,,
0,77,77,55,1,,6069f9a16164d8e1747bb021,62bbfbb8a10048a50e8850a2,2022-06-29_10h14.47.203,Colour_Asymmetry_Pilot,2022.1.3,Win32,59.35774915,62bbe60bf3d75ef465d3e404,,,,,,,,,,,,,,,,,,,,,,,,,,,,,,,,,,,,,,,,,,,,,,,,,,,,,,,,,,,,,,,,,,,,,,,,,,,,,,,,,,,,,,,,,,,,,,,,,,,,,,,,,,,,,,,,,,,,,,,,,,,,,,,,,,,,,,,,,,,,,,,,,,,,,,,,,,,,,,
0,78,78,34,1,,6069f9a16164d8e1747bb021,62bbfbb8a10048a50e8850a2,2022-06-29_10h14.47.203,Colour_Asymmetry_Pilot,2022.1.3,Win32,59.35774915,62bbe60bf3d75ef465d3e404,,,,,,,,,,,,,,,,,,,,,,,,,,,,,,,,,,,,,,,,,,,,,,,,,,,,,,,,,,,,,,,,,,,,,,,,,,,,,,,,,,,,,,,,,,,,,,,,,,,,,,,,,,,,,,,,,,,,,,,,,,,,,,,,,,,,,,,,,,,,,,,,,,,,,,,,,,,,,,
0,79,79,87,1,,6069f9a16164d8e1747bb021,62bbfbb8a10048a50e8850a2,2022-06-29_10h14.47.203,Colour_Asymmetry_Pilot,2022.1.3,Win32,59.35774915,62bbe60bf3d75ef465d3e404,,,,,,,,,,,,,,,,,,,,,,,,,,,,,,,,,,,,,,,,,,,,,,,,,,,,,,,,,,,,,,,,,,,,,,,,,,,,,,,,,,,,,,,,,,,,,,,,,,,,,,,,,,,,,,,,,,,,,,,,,,,,,,,,,,,,,,,,,,,,,,,,,,,,,,,,,,,,,,
0,80,80,37,1,,6069f9a16164d8e1747bb021,62bbfbb8a10048a50e8850a2,2022-06-29_10h14.47.203,Colour_Asymmetry_Pilot,2022.1.3,Win32,59.35774915,62bbe60bf3d75ef465d3e404,,,,,,,,,,,,,,,,,,,,,,,,,,,,,,,,,,,,,,,,,,,,,,,,,,,,,,,,,,,,,,,,,,,,,,,,,,,,,,,,,,,,,,,,,,,,,,,,,,,,,,,,,,,,,,,,,,,,,,,,,,,,,,,,,,,,,,,,,,,,,,,,,,,,,,,,,,,,,,
0,81,81,85,1,,6069f9a16164d8e1747bb021,62bbfbb8a10048a50e8850a2,2022-06-29_10h14.47.203,Colour_Asymmetry_Pilot,2022.1.3,Win32,59.35774915,62bbe60bf3d75ef465d3e404,,,,,,,,,,,,,,,,,,,,,,,,,,,,,,,,,,,,,,,,,,,,,,,,,,,,,,,,,,,,,,,,,,,,,,,,,,,,,,,,,,,,,,,,,,,,,,,,,,,,,,,,,,,,,,,,,,,,,,,,,,,,,,,,,,,,,,,,,,,,,,,,,,,,,,,,,,,,,,
0,82,82,9,1,,6069f9a16164d8e1747bb021,62bbfbb8a10048a50e8850a2,2022-06-29_10h14.47.203,Colour_Asymmetry_Pilot,2022.1.3,Win32,59.35774915,62bbe60bf3d75ef465d3e404,,,,,,,,,,,,,,,,,,,,,,,,,,,,,,,,,,,,,,,,,,,,,,,,,,,,,,,,,,,,,,,,,,,,,,,,,,,,,,,,,,,,,,,,,,,,,,,,,,,,,,,,,,,,,,,,,,,,,,,,,,,,,,,,,,,,,,,,,,,,,,,,,,,,,,,,,,,,,,
0,83,83,46,1,,6069f9a16164d8e1747bb021,62bbfbb8a10048a50e8850a2,2022-06-29_10h14.47.203,Colour_Asymmetry_Pilot,2022.1.3,Win32,59.35774915,62bbe60bf3d75ef465d3e404,,,,,,,,,,,,,,,,,,,,,,,,,,,,,,,,,,,,,,,,,,,,,,,,,,,,,,,,,,,,,,,,,,,,,,,,,,,,,,,,,,,,,,,,,,,,,,,,,,,,,,,,,,,,,,,,,,,,,,,,,,,,,,,,,,,,,,,,,,,,,,,,,,,,,,,,,,,,,,
0,84,84,54,1,,6069f9a16164d8e1747bb021,62bbfbb8a10048a50e8850a2,2022-06-29_10h14.47.203,Colour_Asymmetry_Pilot,2022.1.3,Win32,59.35774915,62bbe60bf3d75ef465d3e404,,,,,,,,,,,,,,,,,,,,,,,,,,,,,,,,,,,,,,,,,,,,,,,,,,,,,,,,,,,,,,,,,,,,,,,,,,,,,,,,,,,,,,,,,,,,,,,,,,,,,,,,,,,,,,,,,,,,,,,,,,,,,,,,,,,,,,,,,,,,,,,,,,,,,,,,,,,,,,
0,85,85,42,1,,6069f9a16164d8e1747bb021,62bbfbb8a10048a50e8850a2,2022-06-29_10h14.47.203,Colour_Asymmetry_Pilot,2022.1.3,Win32,59.35774915,62bbe60bf3d75ef465d3e404,,,,,,,,,,,,,,,,,,,,,,,,,,,,,,,,,,,,,,,,,,,,,,,,,,,,,,,,,,,,,,,,,,,,,,,,,,,,,,,,,,,,,,,,,,,,,,,,,,,,,,,,,,,,,,,,,,,,,,,,,,,,,,,,,,,,,,,,,,,,,,,,,,,,,,,,,,,,,,
0,86,86,15,1,,6069f9a16164d8e1747bb021,62bbfbb8a10048a50e8850a2,2022-06-29_10h14.47.203,Colour_Asymmetry_Pilot,2022.1.3,Win32,59.35774915,62bbe60bf3d75ef465d3e404,,,,,,,,,,,,,,,,,,,,,,,,,,,,,,,,,,,,,,,,,,,,,,,,,,,,,,,,,,,,,,,,,,,,,,,,,,,,,,,,,,,,,,,,,,,,,,,,,,,,,,,,,,,,,,,,,,,,,,,,,,,,,,,,,,,,,,,,,,,,,,,,,,,,,,,,,,,,,,
0,87,87,51,1,,6069f9a16164d8e1747bb021,62bbfbb8a10048a50e8850a2,2022-06-29_10h14.47.203,Colour_Asymmetry_Pilot,2022.1.3,Win32,59.35774915,62bbe60bf3d75ef465d3e404,,,,,,,,,,,,,,,,,,,,,,,,,,,,,,,,,,,,,,,,,,,,,,,,,,,,,,,,,,,,,,,,,,,,,,,,,,,,,,,,,,,,,,,,,,,,,,,,,,,,,,,,,,,,,,,,,,,,,,,,,,,,,,,,,,,,,,,,,,,,,,,,,,,,,,,,,,,,,,
0,88,88,49,1,,6069f9a16164d8e1747bb021,62bbfbb8a10048a50e8850a2,2022-06-29_10h14.47.203,Colour_Asymmetry_Pilot,2022.1.3,Win32,59.35774915,62bbe60bf3d75ef465d3e404,,,,,,,,,,,,,,,,,,,,,,,,,,,,,,,,,,,,,,,,,,,,,,,,,,,,,,,,,,,,,,,,,,,,,,,,,,,,,,,,,,,,,,,,,,,,,,,,,,,,,,,,,,,,,,,,,,,,,,,,,,,,,,,,,,,,,,,,,,,,,,,,,,,,,,,,,,,,,,
0,89,89,68,1,,6069f9a16164d8e1747bb021,62bbfbb8a10048a50e8850a2,2022-06-29_10h14.47.203,Colour_Asymmetry_Pilot,2022.1.3,Win32,59.35774915,62bbe60bf3d75ef465d3e404,,,,,,,,,,,,,,,,,,,,,,,,,,,,,,,,,,,,,,,,,,,,,,,,,,,,,,,,,,,,,,,,,,,,,,,,,,,,,,,,,,,,,,,,,,,,,,,,,,,,,,,,,,,,,,,,,,,,,,,,,,,,,,,,,,,,,,,,,,,,,,,,,,,,,,,,,,,,,,
0,90,90,10,1,,6069f9a16164d8e1747bb021,62bbfbb8a10048a50e8850a2,2022-06-29_10h14.47.203,Colour_Asymmetry_Pilot,2022.1.3,Win32,59.35774915,62bbe60bf3d75ef465d3e404,,,,,,,,,,,,,,,,,,,,,,,,,,,,,,,,,,,,,,,,,,,,,,,,,,,,,,,,,,,,,,,,,,,,,,,,,,,,,,,,,,,,,,,,,,,,,,,,,,,,,,,,,,,,,,,,,,,,,,,,,,,,,,,,,,,,,,,,,,,,,,,,,,,,,,,,,,,,,,
0,91,91,8,1,,6069f9a16164d8e1747bb021,62bbfbb8a10048a50e8850a2,2022-06-29_10h14.47.203,Colour_Asymmetry_Pilot,2022.1.3,Win32,59.35774915,62bbe60bf3d75ef465d3e404,,,,,,,,,,,,,,,,,,,,,,,,,,,,,,,,,,,,,,,,,,,,,,,,,,,,,,,,,,,,,,,,,,,,,,,,,,,,,,,,,,,,,,,,,,,,,,,,,,,,,,,,,,,,,,,,,,,,,,,,,,,,,,,,,,,,,,,,,,,,,,,,,,,,,,,,,,,,,,
0,92,92,4,1,,6069f9a16164d8e1747bb021,62bbfbb8a10048a50e8850a2,2022-06-29_10h14.47.203,Colour_Asymmetry_Pilot,2022.1.3,Win32,59.35774915,62bbe60bf3d75ef465d3e404,,,,,,,,,,,,,,,,,,,,,,,,,,,,,,,,,,,,,,,,,,,,,,,,,,,,,,,,,,,,,,,,,,,,,,,,,,,,,,,,,,,,,,,,,,,,,,,,,,,,,,,,,,,,,,,,,,,,,,,,,,,,,,,,,,,,,,,,,,,,,,,,,,,,,,,,,,,,,,
,,,,,,6069f9a16164d8e1747bb021,62bbfbb8a10048a50e8850a2,2022-06-29_10h14.47.203,Colour_Asymmetry_Pilot,2022.1.3,Win32,59.35774915,62bbe60bf3d75ef465d3e404,0,0,0,40,1,onetwo,,,,,,,,,,,,,,,,,,,,,,,,,,,,,,,,,,,,,,,,,,,,,,,,,,,,,,,,,,,,,,,,,,,,,,,,,,,,,,,,,,,,,,,,,,,,,,,,,,,,,,,,,,,,,,,,,,,,,,,,,,,,,,,,,,,,,,,,,,,,,,,,,,,,,,,,
,,,,,,6069f9a16164d8e1747bb021,62bbfbb8a10048a50e8850a2,2022-06-29_10h14.47.203,Colour_Asymmetry_Pilot,2022.1.3,Win32,59.35774915,62bbe60bf3d75ef465d3e404,0,1,1,16,1,onetwo,,,,,,,,,,,,,,,,,,,,,,,,,,,,,,,,,,,,,,,,,,,,,,,,,,,,,,,,,,,,,,,,,,,,,,,,,,,,,,,,,,,,,,,,,,,,,,,,,,,,,,,,,,,,,,,,,,,,,,,,,,,,,,,,,,,,,,,,,,,,,,,,,,,,,,,,
,,,,,,6069f9a16164d8e1747bb021,62bbfbb8a10048a50e8850a2,2022-06-29_10h14.47.203,Colour_Asymmetry_Pilot,2022.1.3,Win32,59.35774915,62bbe60bf3d75ef465d3e404,0,2,2,23,1,fourthree,,,,,,,,,,,,,,,,,,,,,,,,,,,,,,,,,,,,,,,,,,,,,,,,,,,,,,,,,,,,,,,,,,,,,,,,,,,,,,,,,,,,,,,,,,,,,,,,,,,,,,,,,,,,,,,,,,,,,,,,,,,,,,,,,,,,,,,,,,,,,,,,,,,,,,,,
,,,,,,6069f9a16164d8e1747bb021,62bbfbb8a10048a50e8850a2,2022-06-29_10h14.47.203,Colour_Asymmetry_Pilot,2022.1.3,Win32,59.35774915,62bbe60bf3d75ef465d3e404,0,3,3,33,1,onethree,,,,,,,,,,,,,,,,,,,,,,,,,,,,,,,,,,,,,,,,,,,,,,,,,,,,,,,,,,,,,,,,,,,,,,,,,,,,,,,,,,,,,,,,,,,,,,,,,,,,,,,,,,,,,,,,,,,,,,,,,,,,,,,,,,,,,,,,,,,,,,,,,,,,,,,,
,,,,,,6069f9a16164d8e1747bb021,62bbfbb8a10048a50e8850a2,2022-06-29_10h14.47.203,Colour_Asymmetry_Pilot,2022.1.3,Win32,59.35774915,62bbe60bf3d75ef465d3e404,0,4,4,112,1,onetwo,,,,,,,,,,,,,,,,,,,,,,,,,,,,,,,,,,,,,,,,,,,,,,,,,,,,,,,,,,,,,,,,,,,,,,,,,,,,,,,,,,,,,,,,,,,,,,,,,,,,,,,,,,,,,,,,,,,,,,,,,,,,,,,,,,,,,,,,,,,,,,,,,,,,,,,,
,,,,,,6069f9a16164d8e1747bb021,62bbfbb8a10048a50e8850a2,2022-06-29_10h14.47.203,Colour_Asymmetry_Pilot,2022.1.3,Win32,59.35774915,62bbe60bf3d75ef465d3e404,0,5,5,148,1,threeone,,,,,,,,,,,,,,,,,,,,,,,,,,,,,,,,,,,,,,,,,,,,,,,,,,,,,,,,,,,,,,,,,,,,,,,,,,,,,,,,,,,,,,,,,,,,,,,,,,,,,,,,,,,,,,,,,,,,,,,,,,,,,,,,,,,,,,,,,,,,,,,,,,,,,,,,
,,,,,,6069f9a16164d8e1747bb021,62bbfbb8a10048a50e8850a2,2022-06-29_10h14.47.203,Colour_Asymmetry_Pilot,2022.1.3,Win32,59.35774915,62bbe60bf3d75ef465d3e404,0,6,6,125,1,threefour,,,,,,,,,,,,,,,,,,,,,,,,,,,,,,,,,,,,,,,,,,,,,,,,,,,,,,,,,,,,,,,,,,,,,,,,,,,,,,,,,,,,,,,,,,,,,,,,,,,,,,,,,,,,,,,,,,,,,,,,,,,,,,,,,,,,,,,,,,,,,,,,,,,,,,,,
,,,,,,6069f9a16164d8e1747bb021,62bbfbb8a10048a50e8850a2,2022-06-29_10h14.47.203,Colour_Asymmetry_Pilot,2022.1.3,Win32,59.35774915,62bbe60bf3d75ef465d3e404,0,7,7,69,1,threefour,,,,,,,,,,,,,,,,,,,,,,,,,,,,,,,,,,,,,,,,,,,,,,,,,,,,,,,,,,,,,,,,,,,,,,,,,,,,,,,,,,,,,,,,,,,,,,,,,,,,,,,,,,,,,,,,,,,,,,,,,,,,,,,,,,,,,,,,,,,,,,,,,,,,,,,,
,,,,,,6069f9a16164d8e1747bb021,62bbfbb8a10048a50e8850a2,2022-06-29_10h14.47.203,Colour_Asymmetry_Pilot,2022.1.3,Win32,59.35774915,62bbe60bf3d75ef465d3e404,0,8,8,81,1,onethree,,,,,,,,,,,,,,,,,,,,,,,,,,,,,,,,,,,,,,,,,,,,,,,,,,,,,,,,,,,,,,,,,,,,,,,,,,,,,,,,,,,,,,,,,,,,,,,,,,,,,,,,,,,,,,,,,,,,,,,,,,,,,,,,,,,,,,,,,,,,,,,,,,,,,,,,
,,,,,,6069f9a16164d8e1747bb021,62bbfbb8a10048a50e8850a2,2022-06-29_10h14.47.203,Colour_Asymmetry_Pilot,2022.1.3,Win32,59.35774915,62bbe60bf3d75ef465d3e404,0,9,9,59,1,twofour,,,,,,,,,,,,,,,,,,,,,,,,,,,,,,,,,,,,,,,,,,,,,,,,,,,,,,,,,,,,,,,,,,,,,,,,,,,,,,,,,,,,,,,,,,,,,,,,,,,,,,,,,,,,,,,,,,,,,,,,,,,,,,,,,,,,,,,,,,,,,,,,,,,,,,,,
,,,,,,6069f9a16164d8e1747bb021,62bbfbb8a10048a50e8850a2,2022-06-29_10h14.47.203,Colour_Asymmetry_Pilot,2022.1.3,Win32,59.35774915,62bbe60bf3d75ef465d3e404,0,10,10,24,1,onetwo,,,,,,,,,,,,,,,,,,,,,,,,,,,,,,,,,,,,,,,,,,,,,,,,,,,,,,,,,,,,,,,,,,,,,,,,,,,,,,,,,,,,,,,,,,,,,,,,,,,,,,,,,,,,,,,,,,,,,,,,,,,,,,,,,,,,,,,,,,,,,,,,,,,,,,,,
,,,,,,6069f9a16164d8e1747bb021,62bbfbb8a10048a50e8850a2,2022-06-29_10h14.47.203,Colour_Asymmetry_Pilot,2022.1.3,Win32,59.35774915,62bbe60bf3d75ef465d3e404,0,11,11,109,1,threefour,,,,,,,,,,,,,,,,,,,,,,,,,,,,,,,,,,,,,,,,,,,,,,,,,,,,,,,,,,,,,,,,,,,,,,,,,,,,,,,,,,,,,,,,,,,,,,,,,,,,,,,,,,,,,,,,,,,,,,,,,,,,,,,,,,,,,,,,,,,,,,,,,,,,,,,,
,,,,,,6069f9a16164d8e1747bb021,62bbfbb8a10048a50e8850a2,2022-06-29_10h14.47.203,Colour_Asymmetry_Pilot,2022.1.3,Win32,59.35774915,62bbe60bf3d75ef465d3e404,0,12,12,156,1,threeone,,,,,,,,,,,,,,,,,,,,,,,,,,,,,,,,,,,,,,,,,,,,,,,,,,,,,,,,,,,,,,,,,,,,,,,,,,,,,,,,,,,,,,,,,,,,,,,,,,,,,,,,,,,,,,,,,,,,,,,,,,,,,,,,,,,,,,,,,,,,,,,,,,,,,,,,
,,,,,,6069f9a16164d8e1747bb021,62bbfbb8a10048a50e8850a2,2022-06-29_10h14.47.203,Colour_Asymmetry_Pilot,2022.1.3,Win32,59.35774915,62bbe60bf3d75ef465d3e404,0,13,13,53,1,threefour,,,,,,,,,,,,,,,,,,,,,,,,,,,,,,,,,,,,,,,,,,,,,,,,,,,,,,,,,,,,,,,,,,,,,,,,,,,,,,,,,,,,,,,,,,,,,,,,,,,,,,,,,,,,,,,,,,,,,,,,,,,,,,,,,,,,,,,,,,,,,,,,,,,,,,,,
,,,,,,6069f9a16164d8e1747bb021,62bbfbb8a10048a50e8850a2,2022-06-29_10h14.47.203,Colour_Asymmetry_Pilot,2022.1.3,Win32,59.35774915,62bbe60bf3d75ef465d3e404,0,14,14,61,1,threefour,,,,,,,,,,,,,,,,,,,,,,,,,,,,,,,,,,,,,,,,,,,,,,,,,,,,,,,,,,,,,,,,,,,,,,,,,,,,,,,,,,,,,,,,,,,,,,,,,,,,,,,,,,,,,,,,,,,,,,,,,,,,,,,,,,,,,,,,,,,,,,,,,,,,,,,,
,,,,,,6069f9a16164d8e1747bb021,62bbfbb8a10048a50e8850a2,2022-06-29_10h14.47.203,Colour_Asymmetry_Pilot,2022.1.3,Win32,59.35774915,62bbe60bf3d75ef465d3e404,0,15,15,146,1,twoone,,,,,,,,,,,,,,,,,,,,,,,,,,,,,,,,,,,,,,,,,,,,,,,,,,,,,,,,,,,,,,,,,,,,,,,,,,,,,,,,,,,,,,,,,,,,,,,,,,,,,,,,,,,,,,,,,,,,,,,,,,,,,,,,,,,,,,,,,,,,,,,,,,,,,,,,
,,,,,,6069f9a16164d8e1747bb021,62bbfbb8a10048a50e8850a2,2022-06-29_10h14.47.203,Colour_Asymmetry_Pilot,2022.1.3,Win32,59.35774915,62bbe60bf3d75ef465d3e404,0,16,16,7,1,fourthree,,,,,,,,,,,,,,,,,,,,,,,,,,,,,,,,,,,,,,,,,,,,,,,,,,,,,,,,,,,,,,,,,,,,,,,,,,,,,,,,,,,,,,,,,,,,,,,,,,,,,,,,,,,,,,,,,,,,,,,,,,,,,,,,,,,,,,,,,,,,,,,,,,,,,,,,
,,,,,,6069f9a16164d8e1747bb021,62bbfbb8a10048a50e8850a2,2022-06-29_10h14.47.203,Colour_Asymmetry_Pilot,2022.1.3,Win32,59.35774915,62bbe60bf3d75ef465d3e404,0,17,17,1,1,onethree,,,,,,,,,,,,,,,,,,,,,,,,,,,,,,,,,,,,,,,,,,,,,,,,,,,,,,,,,,,,,,,,,,,,,,,,,,,,,,,,,,,,,,,,,,,,,,,,,,,,,,,,,,,,,,,,,,,,,,,,,,,,,,,,,,,,,,,,,,,,,,,,,,,,,,,,
,,,,,,6069f9a16164d8e1747bb021,62bbfbb8a10048a50e8850a2,2022-06-29_10h14.47.203,Colour_Asymmetry_Pilot,2022.1.3,Win32,59.35774915,62bbe60bf3d75ef465d3e404,0,18,18,96,1,onetwo,,,,,,,,,,,,,,,,,,,,,,,,,,,,,,,,,,,,,,,,,,,,,,,,,,,,,,,,,,,,,,,,,,,,,,,,,,,,,,,,,,,,,,,,,,,,,,,,,,,,,,,,,,,,,,,,,,,,,,,,,,,,,,,,,,,,,,,,,,,,,,,,,,,,,,,,
,,,,,,6069f9a16164d8e1747bb021,62bbfbb8a10048a50e8850a2,2022-06-29_10h14.47.203,Colour_Asymmetry_Pilot,2022.1.3,Win32,59.35774915,62bbe60bf3d75ef465d3e404,0,19,19,13,1,threefour,,,,,,,,,,,,,,,,,,,,,,,,,,,,,,,,,,,,,,,,,,,,,,,,,,,,,,,,,,,,,,,,,,,,,,,,,,,,,,,,,,,,,,,,,,,,,,,,,,,,,,,,,,,,,,,,,,,,,,,,,,,,,,,,,,,,,,,,,,,,,,,,,,,,,,,,
,,,,,,6069f9a16164d8e1747bb021,62bbfbb8a10048a50e8850a2,2022-06-29_10h14.47.203,Colour_Asymmetry_Pilot,2022.1.3,Win32,59.35774915,62bbe60bf3d75ef465d3e404,0,20,20,17,1,onethree,,,,,,,,,,,,,,,,,,,,,,,,,,,,,,,,,,,,,,,,,,,,,,,,,,,,,,,,,,,,,,,,,,,,,,,,,,,,,,,,,,,,,,,,,,,,,,,,,,,,,,,,,,,,,,,,,,,,,,,,,,,,,,,,,,,,,,,,,,,,,,,,,,,,,,,,
,,,,,,6069f9a16164d8e1747bb021,62bbfbb8a10048a50e8850a2,2022-06-29_10h14.47.203,Colour_Asymmetry_Pilot,2022.1.3,Win32,59.35774915,62bbe60bf3d75ef465d3e404,0,21,21,72,1,onetwo,,,,,,,,,,,,,,,,,,,,,,,,,,,,,,,,,,,,,,,,,,,,,,,,,,,,,,,,,,,,,,,,,,,,,,,,,,,,,,,,,,,,,,,,,,,,,,,,,,,,,,,,,,,,,,,,,,,,,,,,,,,,,,,,,,,,,,,,,,,,,,,,,,,,,,,,
,,,,,,6069f9a16164d8e1747bb021,62bbfbb8a10048a50e8850a2,2022-06-29_10h14.47.203,Colour_Asymmetry_Pilot,2022.1.3,Win32,59.35774915,62bbe60bf3d75ef465d3e404,0,22,22,37,1,threefour,,,,,,,,,,,,,,,,,,,,,,,,,,,,,,,,,,,,,,,,,,,,,,,,,,,,,,,,,,,,,,,,,,,,,,,,,,,,,,,,,,,,,,,,,,,,,,,,,,,,,,,,,,,,,,,,,,,,,,,,,,,,,,,,,,,,,,,,,,,,,,,,,,,,,,,,
,,,,,,6069f9a16164d8e1747bb021,62bbfbb8a10048a50e8850a2,2022-06-29_10h14.47.203,Colour_Asymmetry_Pilot,2022.1.3,Win32,59.35774915,62bbe60bf3d75ef465d3e404,0,23,23,49,1,onethree,,,,,,,,,,,,,,,,,,,,,,,,,,,,,,,,,,,,,,,,,,,,,,,,,,,,,,,,,,,,,,,,,,,,,,,,,,,,,,,,,,,,,,,,,,,,,,,,,,,,,,,,,,,,,,,,,,,,,,,,,,,,,,,,,,,,,,,,,,,,,,,,,,,,,,,,
,,,,,,6069f9a16164d8e1747bb021,62bbfbb8a10048a50e8850a2,2022-06-29_10h14.47.203,Colour_Asymmetry_Pilot,2022.1.3,Win32,59.35774915,62bbe60bf3d75ef465d3e404,0,24,24,20,1,threeone,,,,,,,,,,,,,,,,,,,,,,,,,,,,,,,,,,,,,,,,,,,,,,,,,,,,,,,,,,,,,,,,,,,,,,,,,,,,,,,,,,,,,,,,,,,,,,,,,,,,,,,,,,,,,,,,,,,,,,,,,,,,,,,,,,,,,,,,,,,,,,,,,,,,,,,,
,,,,,,6069f9a16164d8e1747bb021,62bbfbb8a10048a50e8850a2,2022-06-29_10h14.47.203,Colour_Asymmetry_Pilot,2022.1.3,Win32,59.35774915,62bbe60bf3d75ef465d3e404,0,25,25,58,1,twoone,,,,,,,,,,,,,,,,,,,,,,,,,,,,,,,,,,,,,,,,,,,,,,,,,,,,,,,,,,,,,,,,,,,,,,,,,,,,,,,,,,,,,,,,,,,,,,,,,,,,,,,,,,,,,,,,,,,,,,,,,,,,,,,,,,,,,,,,,,,,,,,,,,,,,,,,
,,,,,,6069f9a16164d8e1747bb021,62bbfbb8a10048a50e8850a2,2022-06-29_10h14.47.203,Colour_Asymmetry_Pilot,2022.1.3,Win32,59.35774915,62bbe60bf3d75ef465d3e404,0,26,26,157,1,threefour,,,,,,,,,,,,,,,,,,,,,,,,,,,,,,,,,,,,,,,,,,,,,,,,,,,,,,,,,,,,,,,,,,,,,,,,,,,,,,,,,,,,,,,,,,,,,,,,,,,,,,,,,,,,,,,,,,,,,,,,,,,,,,,,,,,,,,,,,,,,,,,,,,,,,,,,
,,,,,,6069f9a16164d8e1747bb021,62bbfbb8a10048a50e8850a2,2022-06-29_10h14.47.203,Colour_Asymmetry_Pilot,2022.1.3,Win32,59.35774915,62bbe60bf3d75ef465d3e404,0,27,27,133,1,threefour,,,,,,,,,,,,,,,,,,,,,,,,,,,,,,,,,,,,,,,,,,,,,,,,,,,,,,,,,,,,,,,,,,,,,,,,,,,,,,,,,,,,,,,,,,,,,,,,,,,,,,,,,,,,,,,,,,,,,,,,,,,,,,,,,,,,,,,,,,,,,,,,,,,,,,,,
,,,,,,6069f9a16164d8e1747bb021,62bbfbb8a10048a50e8850a2,2022-06-29_10h14.47.203,Colour_Asymmetry_Pilot,2022.1.3,Win32,59.35774915,62bbe60bf3d75ef465d3e404,0,28,28,119,1,fourthree,,,,,,,,,,,,,,,,,,,,,,,,,,,,,,,,,,,,,,,,,,,,,,,,,,,,,,,,,,,,,,,,,,,,,,,,,,,,,,,,,,,,,,,,,,,,,,,,,,,,,,,,,,,,,,,,,,,,,,,,,,,,,,,,,,,,,,,,,,,,,,,,,,,,,,,,
,,,,,,6069f9a16164d8e1747bb021,62bbfbb8a10048a50e8850a2,2022-06-29_10h14.47.203,Colour_Asymmetry_Pilot,2022.1.3,Win32,59.35774915,62bbe60bf3d75ef465d3e404,0,29,29,140,1,threeone,,,,,,,,,,,,,,,,,,,,,,,,,,,,,,,,,,,,,,,,,,,,,,,,,,,,,,,,,,,,,,,,,,,,,,,,,,,,,,,,,,,,,,,,,,,,,,,,,,,,,,,,,,,,,,,,,,,,,,,,,,,,,,,,,,,,,,,,,,,,,,,,,,,,,,,,
,,,,,,6069f9a16164d8e1747bb021,62bbfbb8a10048a50e8850a2,2022-06-29_10h14.47.203,Colour_Asymmetry_Pilot,2022.1.3,Win32,59.35774915,62bbe60bf3d75ef465d3e404,0,30,30,9,1,onethree,,,,,,,,,,,,,,,,,,,,,,,,,,,,,,,,,,,,,,,,,,,,,,,,,,,,,,,,,,,,,,,,,,,,,,,,,,,,,,,,,,,,,,,,,,,,,,,,,,,,,,,,,,,,,,,,,,,,,,,,,,,,,,,,,,,,,,,,,,,,,,,,,,,,,,,,
,,,,,,6069f9a16164d8e1747bb021,62bbfbb8a10048a50e8850a2,2022-06-29_10h14.47.203,Colour_Asymmetry_Pilot,2022.1.3,Win32,59.35774915,62bbe60bf3d75ef465d3e404,0,31,31,161,1,onethree,,,,,,,,,,,,,,,,,,,,,,,,,,,,,,,,,,,,,,,,,,,,,,,,,,,,,,,,,,,,,,,,,,,,,,,,,,,,,,,,,,,,,,,,,,,,,,,,,,,,,,,,,,,,,,,,,,,,,,,,,,,,,,,,,,,,,,,,,,,,,,,,,,,,,,,,
,,,,,,6069f9a16164d8e1747bb021,62bbfbb8a10048a50e8850a2,2022-06-29_10h14.47.203,Colour_Asymmetry_Pilot,2022.1.3,Win32,59.35774915,62bbe60bf3d75ef465d3e404,0,32,32,108,1,threeone,,,,,,,,,,,,,,,,,,,,,,,,,,,,,,,,,,,,,,,,,,,,,,,,,,,,,,,,,,,,,,,,,,,,,,,,,,,,,,,,,,,,,,,,,,,,,,,,,,,,,,,,,,,,,,,,,,,,,,,,,,,,,,,,,,,,,,,,,,,,,,,,,,,,,,,,
,,,,,,6069f9a16164d8e1747bb021,62bbfbb8a10048a50e8850a2,2022-06-29_10h14.47.203,Colour_Asymmetry_Pilot,2022.1.3,Win32,59.35774915,62bbe60bf3d75ef465d3e404,0,33,33,99,1,twofour,,,,,,,,,,,,,,,,,,,,,,,,,,,,,,,,,,,,,,,,,,,,,,,,,,,,,,,,,,,,,,,,,,,,,,,,,,,,,,,,,,,,,,,,,,,,,,,,,,,,,,,,,,,,,,,,,,,,,,,,,,,,,,,,,,,,,,,,,,,,,,,,,,,,,,,,
,,,,,,6069f9a16164d8e1747bb021,62bbfbb8a10048a50e8850a2,2022-06-29_10h14.47.203,Colour_Asymmetry_Pilot,2022.1.3,Win32,59.35774915,62bbe60bf3d75ef465d3e404,0,34,34,0,1,onetwo,,,,,,,,,,,,,,,,,,,,,,,,,,,,,,,,,,,,,,,,,,,,,,,,,,,,,,,,,,,,,,,,,,,,,,,,,,,,,,,,,,,,,,,,,,,,,,,,,,,,,,,,,,,,,,,,,,,,,,,,,,,,,,,,,,,,,,,,,,,,,,,,,,,,,,,,
,,,,,,6069f9a16164d8e1747bb021,62bbfbb8a10048a50e8850a2,2022-06-29_10h14.47.203,Colour_Asymmetry_Pilot,2022.1.3,Win32,59.35774915,62bbe60bf3d75ef465d3e404,0,35,35,78,1,fourtwo,,,,,,,,,,,,,,,,,,,,,,,,,,,,,,,,,,,,,,,,,,,,,,,,,,,,,,,,,,,,,,,,,,,,,,,,,,,,,,,,,,,,,,,,,,,,,,,,,,,,,,,,,,,,,,,,,,,,,,,,,,,,,,,,,,,,,,,,,,,,,,,,,,,,,,,,
,,,,,,6069f9a16164d8e1747bb021,62bbfbb8a10048a50e8850a2,2022-06-29_10h14.47.203,Colour_Asymmetry_Pilot,2022.1.3,Win32,59.35774915,62bbe60bf3d75ef465d3e404,0,36,36,89,1,onethree,,,,,,,,,,,,,,,,,,,,,,,,,,,,,,,,,,,,,,,,,,,,,,,,,,,,,,,,,,,,,,,,,,,,,,,,,,,,,,,,,,,,,,,,,,,,,,,,,,,,,,,,,,,,,,,,,,,,,,,,,,,,,,,,,,,,,,,,,,,,,,,,,,,,,,,,
,,,,,,6069f9a16164d8e1747bb021,62bbfbb8a10048a50e8850a2,2022-06-29_10h14.47.203,Colour_Asymmetry_Pilot,2022.1.3,Win32,59.35774915,62bbe60bf3d75ef465d3e404,0,37,37,118,1,fourtwo,,,,,,,,,,,,,,,,,,,,,,,,,,,,,,,,,,,,,,,,,,,,,,,,,,,,,,,,,,,,,,,,,,,,,,,,,,,,,,,,,,,,,,,,,,,,,,,,,,,,,,,,,,,,,,,,,,,,,,,,,,,,,,,,,,,,,,,,,,,,,,,,,,,,,,,,
,,,,,,6069f9a16164d8e1747bb021,62bbfbb8a10048a50e8850a2,2022-06-29_10h14.47.203,Colour_Asymmetry_Pilot,2022.1.3,Win32,59.35774915,62bbe60bf3d75ef465d3e404,0,38,38,160,1,onetwo,,,,,,,,,,,,,,,,,,,,,,,,,,,,,,,,,,,,,,,,,,,,,,,,,,,,,,,,,,,,,,,,,,,,,,,,,,,,,,,,,,,,,,,,,,,,,,,,,,,,,,,,,,,,,,,,,,,,,,,,,,,,,,,,,,,,,,,,,,,,,,,,,,,,,,,,
,,,,,,6069f9a16164d8e1747bb021,62bbfbb8a10048a50e8850a2,2022-06-29_10h14.47.203,Colour_Asymmetry_Pilot,2022.1.3,Win32,59.35774915,62bbe60bf3d75ef465d3e404,0,39,39,48,1,onetwo,,,,,,,,,,,,,,,,,,,,,,,,,,,,,,,,,,,,,,,,,,,,,,,,,,,,,,,,,,,,,,,,,,,,,,,,,,,,,,,,,,,,,,,,,,,,,,,,,,,,,,,,,,,,,,,,,,,,,,,,,,,,,,,,,,,,,,,,,,,,,,,,,,,,,,,,
,,,,,,6069f9a16164d8e1747bb021,62bbfbb8a10048a50e8850a2,2022-06-29_10h14.47.203,Colour_Asymmetry_Pilot,2022.1.3,Win32,59.35774915,62bbe60bf3d75ef465d3e404,0,40,40,143,1,fourthree,,,,,,,,,,,,,,,,,,,,,,,,,,,,,,,,,,,,,,,,,,,,,,,,,,,,,,,,,,,,,,,,,,,,,,,,,,,,,,,,,,,,,,,,,,,,,,,,,,,,,,,,,,,,,,,,,,,,,,,,,,,,,,,,,,,,,,,,,,,,,,,,,,,,,,,,
,,,,,,6069f9a16164d8e1747bb021,62bbfbb8a10048a50e8850a2,2022-06-29_10h14.47.203,Colour_Asymmetry_Pilot,2022.1.3,Win32,59.35774915,62bbe60bf3d75ef465d3e404,0,41,41,83,1,twofour,,,,,,,,,,,,,,,,,,,,,,,,,,,,,,,,,,,,,,,,,,,,,,,,,,,,,,,,,,,,,,,,,,,,,,,,,,,,,,,,,,,,,,,,,,,,,,,,,,,,,,,,,,,,,,,,,,,,,,,,,,,,,,,,,,,,,,,,,,,,,,,,,,,,,,,,
,,,,,,6069f9a16164d8e1747bb021,62bbfbb8a10048a50e8850a2,2022-06-29_10h14.47.203,Colour_Asymmetry_Pilot,2022.1.3,Win32,59.35774915,62bbe60bf3d75ef465d3e404,0,42,42,68,1,threeone,,,,,,,,,,,,,,,,,,,,,,,,,,,,,,,,,,,,,,,,,,,,,,,,,,,,,,,,,,,,,,,,,,,,,,,,,,,,,,,,,,,,,,,,,,,,,,,,,,,,,,,,,,,,,,,,,,,,,,,,,,,,,,,,,,,,,,,,,,,,,,,,,,,,,,,,
,,,,,,6069f9a16164d8e1747bb021,62bbfbb8a10048a50e8850a2,2022-06-29_10h14.47.203,Colour_Asymmetry_Pilot,2022.1.3,Win32,59.35774915,62bbe60bf3d75ef465d3e404,0,43,43,88,1,onetwo,,,,,,,,,,,,,,,,,,,,,,,,,,,,,,,,,,,,,,,,,,,,,,,,,,,,,,,,,,,,,,,,,,,,,,,,,,,,,,,,,,,,,,,,,,,,,,,,,,,,,,,,,,,,,,,,,,,,,,,,,,,,,,,,,,,,,,,,,,,,,,,,,,,,,,,,
,,,,,,6069f9a16164d8e1747bb021,62bbfbb8a10048a50e8850a2,2022-06-29_10h14.47.203,Colour_Asymmetry_Pilot,2022.1.3,Win32,59.35774915,62bbe60bf3d75ef465d3e404,0,44,44,131,1,twofour,,,,,,,,,,,,,,,,,,,,,,,,,,,,,,,,,,,,,,,,,,,,,,,,,,,,,,,,,,,,,,,,,,,,,,,,,,,,,,,,,,,,,,,,,,,,,,,,,,,,,,,,,,,,,,,,,,,,,,,,,,,,,,,,,,,,,,,,,,,,,,,,,,,,,,,,
,,,,,,6069f9a16164d8e1747bb021,62bbfbb8a10048a50e8850a2,2022-06-29_10h14.47.203,Colour_Asymmetry_Pilot,2022.1.3,Win32,59.35774915,62bbe60bf3d75ef465d3e404,0,45,45,38,1,fourtwo,,,,,,,,,,,,,,,,,,,,,,,,,,,,,,,,,,,,,,,,,,,,,,,,,,,,,,,,,,,,,,,,,,,,,,,,,,,,,,,,,,,,,,,,,,,,,,,,,,,,,,,,,,,,,,,,,,,,,,,,,,,,,,,,,,,,,,,,,,,,,,,,,,,,,,,,
,,,,,,6069f9a16164d8e1747bb021,62bbfbb8a10048a50e8850a2,2022-06-29_10h14.47.203,Colour_Asymmetry_Pilot,2022.1.3,Win32,59.35774915,62bbe60bf3d75ef465d3e404,0,46,46,86,1,fourtwo,,,,,,,,,,,,,,,,,,,,,,,,,,,,,,,,,,,,,,,,,,,,,,,,,,,,,,,,,,,,,,,,,,,,,,,,,,,,,,,,,,,,,,,,,,,,,,,,,,,,,,,,,,,,,,,,,,,,,,,,,,,,,,,,,,,,,,,,,,,,,,,,,,,,,,,,
,,,,,,6069f9a16164d8e1747bb021,62bbfbb8a10048a50e8850a2,2022-06-29_10h14.47.203,Colour_Asymmetry_Pilot,2022.1.3,Win32,59.35774915,62bbe60bf3d75ef465d3e404,0,47,47,3,1,twofour,,,,,,,,,,,,,,,,,,,,,,,,,,,,,,,,,,,,,,,,,,,,,,,,,,,,,,,,,,,,,,,,,,,,,,,,,,,,,,,,,,,,,,,,,,,,,,,,,,,,,,,,,,,,,,,,,,,,,,,,,,,,,,,,,,,,,,,,,,,,,,,,,,,,,,,,
,,,,,,6069f9a16164d8e1747bb021,62bbfbb8a10048a50e8850a2,2022-06-29_10h14.47.203,Colour_Asymmetry_Pilot,2022.1.3,Win32,59.35774915,62bbe60bf3d75ef465d3e404,0,48,48,113,1,onethree,,,,,,,,,,,,,,,,,,,,,,,,,,,,,,,,,,,,,,,,,,,,,,,,,,,,,,,,,,,,,,,,,,,,,,,,,,,,,,,,,,,,,,,,,,,,,,,,,,,,,,,,,,,,,,,,,,,,,,,,,,,,,,,,,,,,,,,,,,,,,,,,,,,,,,,,
,,,,,,6069f9a16164d8e1747bb021,62bbfbb8a10048a50e8850a2,2022-06-29_10h14.47.203,Colour_Asymmetry_Pilot,2022.1.3,Win32,59.35774915,62bbe60bf3d75ef465d3e404,0,49,49,151,1,fourthree,,,,,,,,,,,,,,,,,,,,,,,,,,,,,,,,,,,,,,,,,,,,,,,,,,,,,,,,,,,,,,,,,,,,,,,,,,,,,,,,,,,,,,,,,,,,,,,,,,,,,,,,,,,,,,,,,,,,,,,,,,,,,,,,,,,,,,,,,,,,,,,,,,,,,,,,
,,,,,,6069f9a16164d8e1747bb021,62bbfbb8a10048a50e8850a2,2022-06-29_10h14.47.203,Colour_Asymmetry_Pilot,2022.1.3,Win32,59.35774915,62bbe60bf3d75ef465d3e404,0,50,50,63,1,fourthree,,,,,,,,,,,,,,,,,,,,,,,,,,,,,,,,,,,,,,,,,,,,,,,,,,,,,,,,,,,,,,,,,,,,,,,,,,,,,,,,,,,,,,,,,,,,,,,,,,,,,,,,,,,,,,,,,,,,,,,,,,,,,,,,,,,,,,,,,,,,,,,,,,,,,,,,
,,,,,,6069f9a16164d8e1747bb021,62bbfbb8a10048a50e8850a2,2022-06-29_10h14.47.203,Colour_Asymmetry_Pilot,2022.1.3,Win32,59.35774915,62bbe60bf3d75ef465d3e404,0,51,51,149,1,threefour,,,,,,,,,,,,,,,,,,,,,,,,,,,,,,,,,,,,,,,,,,,,,,,,,,,,,,,,,,,,,,,,,,,,,,,,,,,,,,,,,,,,,,,,,,,,,,,,,,,,,,,,,,,,,,,,,,,,,,,,,,,,,,,,,,,,,,,,,,,,,,,,,,,,,,,,
,,,,,,6069f9a16164d8e1747bb021,62bbfbb8a10048a50e8850a2,2022-06-29_10h14.47.203,Colour_Asymmetry_Pilot,2022.1.3,Win32,59.35774915,62bbe60bf3d75ef465d3e404,0,52,52,44,1,threeone,,,,,,,,,,,,,,,,,,,,,,,,,,,,,,,,,,,,,,,,,,,,,,,,,,,,,,,,,,,,,,,,,,,,,,,,,,,,,,,,,,,,,,,,,,,,,,,,,,,,,,,,,,,,,,,,,,,,,,,,,,,,,,,,,,,,,,,,,,,,,,,,,,,,,,,,
,,,,,,6069f9a16164d8e1747bb021,62bbfbb8a10048a50e8850a2,2022-06-29_10h14.47.203,Colour_Asymmetry_Pilot,2022.1.3,Win32,59.35774915,62bbe60bf3d75ef465d3e404,0,53,53,80,1,onetwo,,,,,,,,,,,,,,,,,,,,,,,,,,,,,,,,,,,,,,,,,,,,,,,,,,,,,,,,,,,,,,,,,,,,,,,,,,,,,,,,,,,,,,,,,,,,,,,,,,,,,,,,,,,,,,,,,,,,,,,,,,,,,,,,,,,,,,,,,,,,,,,,,,,,,,,,
,,,,,,6069f9a16164d8e1747bb021,62bbfbb8a10048a50e8850a2,2022-06-29_10h14.47.203,Colour_Asymmetry_Pilot,2022.1.3,Win32,59.35774915,62bbe60bf3d75ef465d3e404,0,54,54,26,1,twoone,,,,,,,,,,,,,,,,,,,,,,,,,,,,,,,,,,,,,,,,,,,,,,,,,,,,,,,,,,,,,,,,,,,,,,,,,,,,,,,,,,,,,,,,,,,,,,,,,,,,,,,,,,,,,,,,,,,,,,,,,,,,,,,,,,,,,,,,,,,,,,,,,,,,,,,,
,,,,,,6069f9a16164d8e1747bb021,62bbfbb8a10048a50e8850a2,2022-06-29_10h14.47.203,Colour_Asymmetry_Pilot,2022.1.3,Win32,59.35774915,62bbe60bf3d75ef465d3e404,0,55,55,18,1,twoone,,,,,,,,,,,,,,,,,,,,,,,,,,,,,,,,,,,,,,,,,,,,,,,,,,,,,,,,,,,,,,,,,,,,,,,,,,,,,,,,,,,,,,,,,,,,,,,,,,,,,,,,,,,,,,,,,,,,,,,,,,,,,,,,,,,,,,,,,,,,,,,,,,,,,,,,
,,,,,,6069f9a16164d8e1747bb021,62bbfbb8a10048a50e8850a2,2022-06-29_10h14.47.203,Colour_Asymmetry_Pilot,2022.1.3,Win32,59.35774915,62bbe60bf3d75ef465d3e404,0,56,56,144,1,onetwo,,,,,,,,,,,,,,,,,,,,,,,,,,,,,,,,,,,,,,,,,,,,,,,,,,,,,,,,,,,,,,,,,,,,,,,,,,,,,,,,,,,,,,,,,,,,,,,,,,,,,,,,,,,,,,,,,,,,,,,,,,,,,,,,,,,,,,,,,,,,,,,,,,,,,,,,
,,,,,,6069f9a16164d8e1747bb021,62bbfbb8a10048a50e8850a2,2022-06-29_10h14.47.203,Colour_Asymmetry_Pilot,2022.1.3,Win32,59.35774915,62bbe60bf3d75ef465d3e404,0,57,57,121,1,onethree,,,,,,,,,,,,,,,,,,,,,,,,,,,,,,,,,,,,,,,,,,,,,,,,,,,,,,,,,,,,,,,,,,,,,,,,,,,,,,,,,,,,,,,,,,,,,,,,,,,,,,,,,,,,,,,,,,,,,,,,,,,,,,,,,,,,,,,,,,,,,,,,,,,,,,,,
,,,,,,6069f9a16164d8e1747bb021,62bbfbb8a10048a50e8850a2,2022-06-29_10h14.47.203,Colour_Asymmetry_Pilot,2022.1.3,Win32,59.35774915,62bbe60bf3d75ef465d3e404,0,58,58,52,1,threeone,,,,,,,,,,,,,,,,,,,,,,,,,,,,,,,,,,,,,,,,,,,,,,,,,,,,,,,,,,,,,,,,,,,,,,,,,,,,,,,,,,,,,,,,,,,,,,,,,,,,,,,,,,,,,,,,,,,,,,,,,,,,,,,,,,,,,,,,,,,,,,,,,,,,,,,,
,,,,,,6069f9a16164d8e1747bb021,62bbfbb8a10048a50e8850a2,2022-06-29_10h14.47.203,Colour_Asymmetry_Pilot,2022.1.3,Win32,59.35774915,62bbe60bf3d75ef465d3e404,0,59,59,76,1,threeone,,,,,,,,,,,,,,,,,,,,,,,,,,,,,,,,,,,,,,,,,,,,,,,,,,,,,,,,,,,,,,,,,,,,,,,,,,,,,,,,,,,,,,,,,,,,,,,,,,,,,,,,,,,,,,,,,,,,,,,,,,,,,,,,,,,,,,,,,,,,,,,,,,,,,,,,
,,,,,,6069f9a16164d8e1747bb021,62bbfbb8a10048a50e8850a2,2022-06-29_10h14.47.203,Colour_Asymmetry_Pilot,2022.1.3,Win32,59.35774915,62bbe60bf3d75ef465d3e404,0,60,60,101,1,threefour,,,,,,,,,,,,,,,,,,,,,,,,,,,,,,,,,,,,,,,,,,,,,,,,,,,,,,,,,,,,,,,,,,,,,,,,,,,,,,,,,,,,,,,,,,,,,,,,,,,,,,,,,,,,,,,,,,,,,,,,,,,,,,,,,,,,,,,,,,,,,,,,,,,,,,,,
,,,,,,6069f9a16164d8e1747bb021,62bbfbb8a10048a50e8850a2,2022-06-29_10h14.47.203,Colour_Asymmetry_Pilot,2022.1.3,Win32,59.35774915,62bbe60bf3d75ef465d3e404,0,61,61,135,1,fourthree,,,,,,,,,,,,,,,,,,,,,,,,,,,,,,,,,,,,,,,,,,,,,,,,,,,,,,,,,,,,,,,,,,,,,,,,,,,,,,,,,,,,,,,,,,,,,,,,,,,,,,,,,,,,,,,,,,,,,,,,,,,,,,,,,,,,,,,,,,,,,,,,,,,,,,,,
,,,,,,6069f9a16164d8e1747bb021,62bbfbb8a10048a50e8850a2,2022-06-29_10h14.47.203,Colour_Asymmetry_Pilot,2022.1.3,Win32,59.35774915,62bbe60bf3d75ef465d3e404,0,62,62,66,1,twoone,,,,,,,,,,,,,,,,,,,,,,,,,,,,,,,,,,,,,,,,,,,,,,,,,,,,,,,,,,,,,,,,,,,,,,,,,,,,,,,,,,,,,,,,,,,,,,,,,,,,,,,,,,,,,,,,,,,,,,,,,,,,,,,,,,,,,,,,,,,,,,,,,,,,,,,,
,,,,,,6069f9a16164d8e1747bb021,62bbfbb8a10048a50e8850a2,2022-06-29_10h14.47.203,Colour_Asymmetry_Pilot,2022.1.3,Win32,59.35774915,62bbe60bf3d75ef465d3e404,0,63,63,124,1,threeone,,,,,,,,,,,,,,,,,,,,,,,,,,,,,,,,,,,,,,,,,,,,,,,,,,,,,,,,,,,,,,,,,,,,,,,,,,,,,,,,,,,,,,,,,,,,,,,,,,,,,,,,,,,,,,,,,,,,,,,,,,,,,,,,,,,,,,,,,,,,,,,,,,,,,,,,
,,,,,,6069f9a16164d8e1747bb021,62bbfbb8a10048a50e8850a2,2022-06-29_10h14.47.203,Colour_Asymmetry_Pilot,2022.1.3,Win32,59.35774915,62bbe60bf3d75ef465d3e404,0,64,64,97,1,onethree,,,,,,,,,,,,,,,,,,,,,,,,,,,,,,,,,,,,,,,,,,,,,,,,,,,,,,,,,,,,,,,,,,,,,,,,,,,,,,,,,,,,,,,,,,,,,,,,,,,,,,,,,,,,,,,,,,,,,,,,,,,,,,,,,,,,,,,,,,,,,,,,,,,,,,,,
,,,,,,6069f9a16164d8e1747bb021,62bbfbb8a10048a50e8850a2,2022-06-29_10h14.47.203,Colour_Asymmetry_Pilot,2022.1.3,Win32,59.35774915,62bbe60bf3d75ef465d3e404,0,65,65,90,1,twoone,,,,,,,,,,,,,,,,,,,,,,,,,,,,,,,,,,,,,,,,,,,,,,,,,,,,,,,,,,,,,,,,,,,,,,,,,,,,,,,,,,,,,,,,,,,,,,,,,,,,,,,,,,,,,,,,,,,,,,,,,,,,,,,,,,,,,,,,,,,,,,,,,,,,,,,,
,,,,,,6069f9a16164d8e1747bb021,62bbfbb8a10048a50e8850a2,2022-06-29_10h14.47.203,Colour_Asymmetry_Pilot,2022.1.3,Win32,59.35774915,62bbe60bf3d75ef465d3e404,0,66,66,28,1,threeone,,,,,,,,,,,,,,,,,,,,,,,,,,,,,,,,,,,,,,,,,,,,,,,,,,,,,,,,,,,,,,,,,,,,,,,,,,,,,,,,,,,,,,,,,,,,,,,,,,,,,,,,,,,,,,,,,,,,,,,,,,,,,,,,,,,,,,,,,,,,,,,,,,,,,,,,
,,,,,,6069f9a16164d8e1747bb021,62bbfbb8a10048a50e8850a2,2022-06-29_10h14.47.203,Colour_Asymmetry_Pilot,2022.1.3,Win32,59.35774915,62bbe60bf3d75ef465d3e404,0,67,67,50,1,twoone,,,,,,,,,,,,,,,,,,,,,,,,,,,,,,,,,,,,,,,,,,,,,,,,,,,,,,,,,,,,,,,,,,,,,,,,,,,,,,,,,,,,,,,,,,,,,,,,,,,,,,,,,,,,,,,,,,,,,,,,,,,,,,,,,,,,,,,,,,,,,,,,,,,,,,,,
,,,,,,6069f9a16164d8e1747bb021,62bbfbb8a10048a50e8850a2,2022-06-29_10h14.47.203,Colour_Asymmetry_Pilot,2022.1.3,Win32,59.35774915,62bbe60bf3d75ef465d3e404,0,68,68,145,1,onethree,,,,,,,,,,,,,,,,,,,,,,,,,,,,,,,,,,,,,,,,,,,,,,,,,,,,,,,,,,,,,,,,,,,,,,,,,,,,,,,,,,,,,,,,,,,,,,,,,,,,,,,,,,,,,,,,,,,,,,,,,,,,,,,,,,,,,,,,,,,,,,,,,,,,,,,,
,,,,,,6069f9a16164d8e1747bb021,62bbfbb8a10048a50e8850a2,2022-06-29_10h14.47.203,Colour_Asymmetry_Pilot,2022.1.3,Win32,59.35774915,62bbe60bf3d75ef465d3e404,0,69,69,91,1,twofour,,,,,,,,,,,,,,,,,,,,,,,,,,,,,,,,,,,,,,,,,,,,,,,,,,,,,,,,,,,,,,,,,,,,,,,,,,,,,,,,,,,,,,,,,,,,,,,,,,,,,,,,,,,,,,,,,,,,,,,,,,,,,,,,,,,,,,,,,,,,,,,,,,,,,,,,
,,,,,,6069f9a16164d8e1747bb021,62bbfbb8a10048a50e8850a2,2022-06-29_10h14.47.203,Colour_Asymmetry_Pilot,2022.1.3,Win32,59.35774915,62bbe60bf3d75ef465d3e404,0,70,70,117,1,threefour,,,,,,,,,,,,,,,,,,,,,,,,,,,,,,,,,,,,,,,,,,,,,,,,,,,,,,,,,,,,,,,,,,,,,,,,,,,,,,,,,,,,,,,,,,,,,,,,,,,,,,,,,,,,,,,,,,,,,,,,,,,,,,,,,,,,,,,,,,,,,,,,,,,,,,,,
,,,,,,6069f9a16164d8e1747bb021,62bbfbb8a10048a50e8850a2,2022-06-29_10h14.47.203,Colour_Asymmetry_Pilot,2022.1.3,Win32,59.35774915,62bbe60bf3d75ef465d3e404,0,71,71,62,1,fourtwo,,,,,,,,,,,,,,,,,,,,,,,,,,,,,,,,,,,,,,,,,,,,,,,,,,,,,,,,,,,,,,,,,,,,,,,,,,,,,,,,,,,,,,,,,,,,,,,,,,,,,,,,,,,,,,,,,,,,,,,,,,,,,,,,,,,,,,,,,,,,,,,,,,,,,,,,
,,,,,,6069f9a16164d8e1747bb021,62bbfbb8a10048a50e8850a2,2022-06-29_10h14.47.203,Colour_Asymmetry_Pilot,2022.1.3,Win32,59.35774915,62bbe60bf3d75ef465d3e404,0,72,72,2,1,twoone,,,,,,,,,,,,,,,,,,,,,,,,,,,,,,,,,,,,,,,,,,,,,,,,,,,,,,,,,,,,,,,,,,,,,,,,,,,,,,,,,,,,,,,,,,,,,,,,,,,,,,,,,,,,,,,,,,,,,,,,,,,,,,,,,,,,,,,,,,,,,,,,,,,,,,,,
,,,,,,6069f9a16164d8e1747bb021,62bbfbb8a10048a50e8850a2,2022-06-29_10h14.47.203,Colour_Asymmetry_Pilot,2022.1.3,Win32,59.35774915,62bbe60bf3d75ef465d3e404,0,73,73,47,1,fourthree,,,,,,,,,,,,,,,,,,,,,,,,,,,,,,,,,,,,,,,,,,,,,,,,,,,,,,,,,,,,,,,,,,,,,,,,,,,,,,,,,,,,,,,,,,,,,,,,,,,,,,,,,,,,,,,,,,,,,,,,,,,,,,,,,,,,,,,,,,,,,,,,,,,,,,,,
,,,,,,6069f9a16164d8e1747bb021,62bbfbb8a10048a50e8850a2,2022-06-29_10h14.47.203,Colour_Asymmetry_Pilot,2022.1.3,Win32,59.35774915,62bbe60bf3d75ef465d3e404,0,74,74,35,1,twofour,,,,,,,,,,,,,,,,,,,,,,,,,,,,,,,,,,,,,,,,,,,,,,,,,,,,,,,,,,,,,,,,,,,,,,,,,,,,,,,,,,,,,,,,,,,,,,,,,,,,,,,,,,,,,,,,,,,,,,,,,,,,,,,,,,,,,,,,,,,,,,,,,,,,,,,,
,,,,,,6069f9a16164d8e1747bb021,62bbfbb8a10048a50e8850a2,2022-06-29_10h14.47.203,Colour_Asymmetry_Pilot,2022.1.3,Win32,59.35774915,62bbe60bf3d75ef465d3e404,0,75,75,14,1,fourtwo,,,,,,,,,,,,,,,,,,,,,,,,,,,,,,,,,,,,,,,,,,,,,,,,,,,,,,,,,,,,,,,,,,,,,,,,,,,,,,,,,,,,,,,,,,,,,,,,,,,,,,,,,,,,,,,,,,,,,,,,,,,,,,,,,,,,,,,,,,,,,,,,,,,,,,,,
,,,,,,6069f9a16164d8e1747bb021,62bbfbb8a10048a50e8850a2,2022-06-29_10h14.47.203,Colour_Asymmetry_Pilot,2022.1.3,Win32,59.35774915,62bbe60bf3d75ef465d3e404,0,76,76,95,1,fourthree,,,,,,,,,,,,,,,,,,,,,,,,,,,,,,,,,,,,,,,,,,,,,,,,,,,,,,,,,,,,,,,,,,,,,,,,,,,,,,,,,,,,,,,,,,,,,,,,,,,,,,,,,,,,,,,,,,,,,,,,,,,,,,,,,,,,,,,,,,,,,,,,,,,,,,,,
,,,,,,6069f9a16164d8e1747bb021,62bbfbb8a10048a50e8850a2,2022-06-29_10h14.47.203,Colour_Asymmetry_Pilot,2022.1.3,Win32,59.35774915,62bbe60bf3d75ef465d3e404,0,77,77,104,1,onetwo,,,,,,,,,,,,,,,,,,,,,,,,,,,,,,,,,,,,,,,,,,,,,,,,,,,,,,,,,,,,,,,,,,,,,,,,,,,,,,,,,,,,,,,,,,,,,,,,,,,,,,,,,,,,,,,,,,,,,,,,,,,,,,,,,,,,,,,,,,,,,,,,,,,,,,,,
,,,,,,6069f9a16164d8e1747bb021,62bbfbb8a10048a50e8850a2,2022-06-29_10h14.47.203,Colour_Asymmetry_Pilot,2022.1.3,Win32,59.35774915,62bbe60bf3d75ef465d3e404,0,78,78,65,1,onethree,,,,,,,,,,,,,,,,,,,,,,,,,,,,,,,,,,,,,,,,,,,,,,,,,,,,,,,,,,,,,,,,,,,,,,,,,,,,,,,,,,,,,,,,,,,,,,,,,,,,,,,,,,,,,,,,,,,,,,,,,,,,,,,,,,,,,,,,,,,,,,,,,,,,,,,,
,,,,,,6069f9a16164d8e1747bb021,62bbfbb8a10048a50e8850a2,2022-06-29_10h14.47.203,Colour_Asymmetry_Pilot,2022.1.3,Win32,59.35774915,62bbe60bf3d75ef465d3e404,0,79,79,82,1,twoone,,,,,,,,,,,,,,,,,,,,,,,,,,,,,,,,,,,,,,,,,,,,,,,,,,,,,,,,,,,,,,,,,,,,,,,,,,,,,,,,,,,,,,,,,,,,,,,,,,,,,,,,,,,,,,,,,,,,,,,,,,,,,,,,,,,,,,,,,,,,,,,,,,,,,,,,
,,,,,,6069f9a16164d8e1747bb021,62bbfbb8a10048a50e8850a2,2022-06-29_10h14.47.203,Colour_Asymmetry_Pilot,2022.1.3,Win32,59.35774915,62bbe60bf3d75ef465d3e404,0,80,80,100,1,threeone,,,,,,,,,,,,,,,,,,,,,,,,,,,,,,,,,,,,,,,,,,,,,,,,,,,,,,,,,,,,,,,,,,,,,,,,,,,,,,,,,,,,,,,,,,,,,,,,,,,,,,,,,,,,,,,,,,,,,,,,,,,,,,,,,,,,,,,,,,,,,,,,,,,,,,,,
,,,,,,6069f9a16164d8e1747bb021,62bbfbb8a10048a50e8850a2,2022-06-29_10h14.47.203,Colour_Asymmetry_Pilot,2022.1.3,Win32,59.35774915,62bbe60bf3d75ef465d3e404,0,81,81,106,1,twoone,,,,,,,,,,,,,,,,,,,,,,,,,,,,,,,,,,,,,,,,,,,,,,,,,,,,,,,,,,,,,,,,,,,,,,,,,,,,,,,,,,,,,,,,,,,,,,,,,,,,,,,,,,,,,,,,,,,,,,,,,,,,,,,,,,,,,,,,,,,,,,,,,,,,,,,,
,,,,,,6069f9a16164d8e1747bb021,62bbfbb8a10048a50e8850a2,2022-06-29_10h14.47.203,Colour_Asymmetry_Pilot,2022.1.3,Win32,59.35774915,62bbe60bf3d75ef465d3e404,0,82,82,45,1,threefour,,,,,,,,,,,,,,,,,,,,,,,,,,,,,,,,,,,,,,,,,,,,,,,,,,,,,,,,,,,,,,,,,,,,,,,,,,,,,,,,,,,,,,,,,,,,,,,,,,,,,,,,,,,,,,,,,,,,,,,,,,,,,,,,,,,,,,,,,,,,,,,,,,,,,,,,
,,,,,,6069f9a16164d8e1747bb021,62bbfbb8a10048a50e8850a2,2022-06-29_10h14.47.203,Colour_Asymmetry_Pilot,2022.1.3,Win32,59.35774915,62bbe60bf3d75ef465d3e404,0,83,83,123,1,twofour,,,,,,,,,,,,,,,,,,,,,,,,,,,,,,,,,,,,,,,,,,,,,,,,,,,,,,,,,,,,,,,,,,,,,,,,,,,,,,,,,,,,,,,,,,,,,,,,,,,,,,,,,,,,,,,,,,,,,,,,,,,,,,,,,,,,,,,,,,,,,,,,,,,,,,,,
,,,,,,6069f9a16164d8e1747bb021,62bbfbb8a10048a50e8850a2,2022-06-29_10h14.47.203,Colour_Asymmetry_Pilot,2022.1.3,Win32,59.35774915,62bbe60bf3d75ef465d3e404,0,84,84,5,1,threefour,,,,,,,,,,,,,,,,,,,,,,,,,,,,,,,,,,,,,,,,,,,,,,,,,,,,,,,,,,,,,,,,,,,,,,,,,,,,,,,,,,,,,,,,,,,,,,,,,,,,,,,,,,,,,,,,,,,,,,,,,,,,,,,,,,,,,,,,,,,,,,,,,,,,,,,,
,,,,,,6069f9a16164d8e1747bb021,62bbfbb8a10048a50e8850a2,2022-06-29_10h14.47.203,Colour_Asymmetry_Pilot,2022.1.3,Win32,59.35774915,62bbe60bf3d75ef465d3e404,0,85,85,132,1,threeone,,,,,,,,,,,,,,,,,,,,,,,,,,,,,,,,,,,,,,,,,,,,,,,,,,,,,,,,,,,,,,,,,,,,,,,,,,,,,,,,,,,,,,,,,,,,,,,,,,,,,,,,,,,,,,,,,,,,,,,,,,,,,,,,,,,,,,,,,,,,,,,,,,,,,,,,
,,,,,,6069f9a16164d8e1747bb021,62bbfbb8a10048a50e8850a2,2022-06-29_10h14.47.203,Colour_Asymmetry_Pilot,2022.1.3,Win32,59.35774915,62bbe60bf3d75ef465d3e404,0,86,86,46,1,fourtwo,,,,,,,,,,,,,,,,,,,,,,,,,,,,,,,,,,,,,,,,,,,,,,,,,,,,,,,,,,,,,,,,,,,,,,,,,,,,,,,,,,,,,,,,,,,,,,,,,,,,,,,,,,,,,,,,,,,,,,,,,,,,,,,,,,,,,,,,,,,,,,,,,,,,,,,,
,,,,,,6069f9a16164d8e1747bb021,62bbfbb8a10048a50e8850a2,2022-06-29_10h14.47.203,Colour_Asymmetry_Pilot,2022.1.3,Win32,59.35774915,62bbe60bf3d75ef465d3e404,0,87,87,154,1,twoone,,,,,,,,,,,,,,,,,,,,,,,,,,,,,,,,,,,,,,,,,,,,,,,,,,,,,,,,,,,,,,,,,,,,,,,,,,,,,,,,,,,,,,,,,,,,,,,,,,,,,,,,,,,,,,,,,,,,,,,,,,,,,,,,,,,,,,,,,,,,,,,,,,,,,,,,
,,,,,,6069f9a16164d8e1747bb021,62bbfbb8a10048a50e8850a2,2022-06-29_10h14.47.203,Colour_Asymmetry_Pilot,2022.1.3,Win32,59.35774915,62bbe60bf3d75ef465d3e404,0,88,88,12,1,threeone,,,,,,,,,,,,,,,,,,,,,,,,,,,,,,,,,,,,,,,,,,,,,,,,,,,,,,,,,,,,,,,,,,,,,,,,,,,,,,,,,,,,,,,,,,,,,,,,,,,,,,,,,,,,,,,,,,,,,,,,,,,,,,,,,,,,,,,,,,,,,,,,,,,,,,,,
,,,,,,6069f9a16164d8e1747bb021,62bbfbb8a10048a50e8850a2,2022-06-29_10h14.47.203,Colour_Asymmetry_Pilot,2022.1.3,Win32,59.35774915,62bbe60bf3d75ef465d3e404,0,89,89,30,1,fourtwo,,,,,,,,,,,,,,,,,,,,,,,,,,,,,,,,,,,,,,,,,,,,,,,,,,,,,,,,,,,,,,,,,,,,,,,,,,,,,,,,,,,,,,,,,,,,,,,,,,,,,,,,,,,,,,,,,,,,,,,,,,,,,,,,,,,,,,,,,,,,,,,,,,,,,,,,
,,,,,,6069f9a16164d8e1747bb021,62bbfbb8a10048a50e8850a2,2022-06-29_10h14.47.203,Colour_Asymmetry_Pilot,2022.1.3,Win32,59.35774915,62bbe60bf3d75ef465d3e404,0,90,90,84,1,threeone,,,,,,,,,,,,,,,,,,,,,,,,,,,,,,,,,,,,,,,,,,,,,,,,,,,,,,,,,,,,,,,,,,,,,,,,,,,,,,,,,,,,,,,,,,,,,,,,,,,,,,,,,,,,,,,,,,,,,,,,,,,,,,,,,,,,,,,,,,,,,,,,,,,,,,,,
,,,,,,6069f9a16164d8e1747bb021,62bbfbb8a10048a50e8850a2,2022-06-29_10h14.47.203,Colour_Asymmetry_Pilot,2022.1.3,Win32,59.35774915,62bbe60bf3d75ef465d3e404,0,91,91,34,1,twoone,,,,,,,,,,,,,,,,,,,,,,,,,,,,,,,,,,,,,,,,,,,,,,,,,,,,,,,,,,,,,,,,,,,,,,,,,,,,,,,,,,,,,,,,,,,,,,,,,,,,,,,,,,,,,,,,,,,,,,,,,,,,,,,,,,,,,,,,,,,,,,,,,,,,,,,,
,,,,,,6069f9a16164d8e1747bb021,62bbfbb8a10048a50e8850a2,2022-06-29_10h14.47.203,Colour_Asymmetry_Pilot,2022.1.3,Win32,59.35774915,62bbe60bf3d75ef465d3e404,0,92,92,120,1,onetwo,,,,,,,,,,,,,,,,,,,,,,,,,,,,,,,,,,,,,,,,,,,,,,,,,,,,,,,,,,,,,,,,,,,,,,,,,,,,,,,,,,,,,,,,,,,,,,,,,,,,,,,,,,,,,,,,,,,,,,,,,,,,,,,,,,,,,,,,,,,,,,,,,,,,,,,,
,,,,,,6069f9a16164d8e1747bb021,62bbfbb8a10048a50e8850a2,2022-06-29_10h14.47.203,Colour_Asymmetry_Pilot,2022.1.3,Win32,59.35774915,62bbe60bf3d75ef465d3e404,0,93,93,39,1,fourthree,,,,,,,,,,,,,,,,,,,,,,,,,,,,,,,,,,,,,,,,,,,,,,,,,,,,,,,,,,,,,,,,,,,,,,,,,,,,,,,,,,,,,,,,,,,,,,,,,,,,,,,,,,,,,,,,,,,,,,,,,,,,,,,,,,,,,,,,,,,,,,,,,,,,,,,,
,,,,,,6069f9a16164d8e1747bb021,62bbfbb8a10048a50e8850a2,2022-06-29_10h14.47.203,Colour_Asymmetry_Pilot,2022.1.3,Win32,59.35774915,62bbe60bf3d75ef465d3e404,0,94,94,155,1,twofour,,,,,,,,,,,,,,,,,,,,,,,,,,,,,,,,,,,,,,,,,,,,,,,,,,,,,,,,,,,,,,,,,,,,,,,,,,,,,,,,,,,,,,,,,,,,,,,,,,,,,,,,,,,,,,,,,,,,,,,,,,,,,,,,,,,,,,,,,,,,,,,,,,,,,,,,
,,,,,,6069f9a16164d8e1747bb021,62bbfbb8a10048a50e8850a2,2022-06-29_10h14.47.203,Colour_Asymmetry_Pilot,2022.1.3,Win32,59.35774915,62bbe60bf3d75ef465d3e404,0,95,95,56,1,onetwo,,,,,,,,,,,,,,,,,,,,,,,,,,,,,,,,,,,,,,,,,,,,,,,,,,,,,,,,,,,,,,,,,,,,,,,,,,,,,,,,,,,,,,,,,,,,,,,,,,,,,,,,,,,,,,,,,,,,,,,,,,,,,,,,,,,,,,,,,,,,,,,,,,,,,,,,
,,,,,,6069f9a16164d8e1747bb021,62bbfbb8a10048a50e8850a2,2022-06-29_10h14.47.203,Colour_Asymmetry_Pilot,2022.1.3,Win32,59.35774915,62bbe60bf3d75ef465d3e404,0,96,96,115,1,twofour,,,,,,,,,,,,,,,,,,,,,,,,,,,,,,,,,,,,,,,,,,,,,,,,,,,,,,,,,,,,,,,,,,,,,,,,,,,,,,,,,,,,,,,,,,,,,,,,,,,,,,,,,,,,,,,,,,,,,,,,,,,,,,,,,,,,,,,,,,,,,,,,,,,,,,,,
,,,,,,6069f9a16164d8e1747bb021,62bbfbb8a10048a50e8850a2,2022-06-29_10h14.47.203,Colour_Asymmetry_Pilot,2022.1.3,Win32,59.35774915,62bbe60bf3d75ef465d3e404,0,97,97,126,1,fourtwo,,,,,,,,,,,,,,,,,,,,,,,,,,,,,,,,,,,,,,,,,,,,,,,,,,,,,,,,,,,,,,,,,,,,,,,,,,,,,,,,,,,,,,,,,,,,,,,,,,,,,,,,,,,,,,,,,,,,,,,,,,,,,,,,,,,,,,,,,,,,,,,,,,,,,,,,
,,,,,,6069f9a16164d8e1747bb021,62bbfbb8a10048a50e8850a2,2022-06-29_10h14.47.203,Colour_Asymmetry_Pilot,2022.1.3,Win32,59.35774915,62bbe60bf3d75ef465d3e404,0,98,98,77,1,threefour,,,,,,,,,,,,,,,,,,,,,,,,,,,,,,,,,,,,,,,,,,,,,,,,,,,,,,,,,,,,,,,,,,,,,,,,,,,,,,,,,,,,,,,,,,,,,,,,,,,,,,,,,,,,,,,,,,,,,,,,,,,,,,,,,,,,,,,,,,,,,,,,,,,,,,,,
,,,,,,6069f9a16164d8e1747bb021,62bbfbb8a10048a50e8850a2,2022-06-29_10h14.47.203,Colour_Asymmetry_Pilot,2022.1.3,Win32,59.35774915,62bbe60bf3d75ef465d3e404,0,99,99,60,1,threeone,,,,,,,,,,,,,,,,,,,,,,,,,,,,,,,,,,,,,,,,,,,,,,,,,,,,,,,,,,,,,,,,,,,,,,,,,,,,,,,,,,,,,,,,,,,,,,,,,,,,,,,,,,,,,,,,,,,,,,,,,,,,,,,,,,,,,,,,,,,,,,,,,,,,,,,,
,,,,,,6069f9a16164d8e1747bb021,62bbfbb8a10048a50e8850a2,2022-06-29_10h14.47.203,Colour_Asymmetry_Pilot,2022.1.3,Win32,59.35774915,62bbe60bf3d75ef465d3e404,0,100,100,102,1,fourtwo,,,,,,,,,,,,,,,,,,,,,,,,,,,,,,,,,,,,,,,,,,,,,,,,,,,,,,,,,,,,,,,,,,,,,,,,,,,,,,,,,,,,,,,,,,,,,,,,,,,,,,,,,,,,,,,,,,,,,,,,,,,,,,,,,,,,,,,,,,,,,,,,,,,,,,,,
,,,,,,6069f9a16164d8e1747bb021,62bbfbb8a10048a50e8850a2,2022-06-29_10h14.47.203,Colour_Asymmetry_Pilot,2022.1.3,Win32,59.35774915,62bbe60bf3d75ef465d3e404,0,101,101,128,1,onetwo,,,,,,,,,,,,,,,,,,,,,,,,,,,,,,,,,,,,,,,,,,,,,,,,,,,,,,,,,,,,,,,,,,,,,,,,,,,,,,,,,,,,,,,,,,,,,,,,,,,,,,,,,,,,,,,,,,,,,,,,,,,,,,,,,,,,,,,,,,,,,,,,,,,,,,,,
,,,,,,6069f9a16164d8e1747bb021,62bbfbb8a10048a50e8850a2,2022-06-29_10h14.47.203,Colour_Asymmetry_Pilot,2022.1.3,Win32,59.35774915,62bbe60bf3d75ef465d3e404,0,102,102,137,1,onethree,,,,,,,,,,,,,,,,,,,,,,,,,,,,,,,,,,,,,,,,,,,,,,,,,,,,,,,,,,,,,,,,,,,,,,,,,,,,,,,,,,,,,,,,,,,,,,,,,,,,,,,,,,,,,,,,,,,,,,,,,,,,,,,,,,,,,,,,,,,,,,,,,,,,,,,,
,,,,,,6069f9a16164d8e1747bb021,62bbfbb8a10048a50e8850a2,2022-06-29_10h14.47.203,Colour_Asymmetry_Pilot,2022.1.3,Win32,59.35774915,62bbe60bf3d75ef465d3e404,0,103,103,85,1,threefour,,,,,,,,,,,,,,,,,,,,,,,,,,,,,,,,,,,,,,,,,,,,,,,,,,,,,,,,,,,,,,,,,,,,,,,,,,,,,,,,,,,,,,,,,,,,,,,,,,,,,,,,,,,,,,,,,,,,,,,,,,,,,,,,,,,,,,,,,,,,,,,,,,,,,,,,
,,,,,,6069f9a16164d8e1747bb021,62bbfbb8a10048a50e8850a2,2022-06-29_10h14.47.203,Colour_Asymmetry_Pilot,2022.1.3,Win32,59.35774915,62bbe60bf3d75ef465d3e404,0,104,104,98,1,twoone,,,,,,,,,,,,,,,,,,,,,,,,,,,,,,,,,,,,,,,,,,,,,,,,,,,,,,,,,,,,,,,,,,,,,,,,,,,,,,,,,,,,,,,,,,,,,,,,,,,,,,,,,,,,,,,,,,,,,,,,,,,,,,,,,,,,,,,,,,,,,,,,,,,,,,,,
,,,,,,6069f9a16164d8e1747bb021,62bbfbb8a10048a50e8850a2,2022-06-29_10h14.47.203,Colour_Asymmetry_Pilot,2022.1.3,Win32,59.35774915,62bbe60bf3d75ef465d3e404,0,105,105,153,1,onethree,,,,,,,,,,,,,,,,,,,,,,,,,,,,,,,,,,,,,,,,,,,,,,,,,,,,,,,,,,,,,,,,,,,,,,,,,,,,,,,,,,,,,,,,,,,,,,,,,,,,,,,,,,,,,,,,,,,,,,,,,,,,,,,,,,,,,,,,,,,,,,,,,,,,,,,,
,,,,,,6069f9a16164d8e1747bb021,62bbfbb8a10048a50e8850a2,2022-06-29_10h14.47.203,Colour_Asymmetry_Pilot,2022.1.3,Win32,59.35774915,62bbe60bf3d75ef465d3e404,0,106,106,110,1,fourtwo,,,,,,,,,,,,,,,,,,,,,,,,,,,,,,,,,,,,,,,,,,,,,,,,,,,,,,,,,,,,,,,,,,,,,,,,,,,,,,,,,,,,,,,,,,,,,,,,,,,,,,,,,,,,,,,,,,,,,,,,,,,,,,,,,,,,,,,,,,,,,,,,,,,,,,,,
,,,,,,6069f9a16164d8e1747bb021,62bbfbb8a10048a50e8850a2,2022-06-29_10h14.47.203,Colour_Asymmetry_Pilot,2022.1.3,Win32,59.35774915,62bbe60bf3d75ef465d3e404,0,107,107,159,1,fourthree,,,,,,,,,,,,,,,,,,,,,,,,,,,,,,,,,,,,,,,,,,,,,,,,,,,,,,,,,,,,,,,,,,,,,,,,,,,,,,,,,,,,,,,,,,,,,,,,,,,,,,,,,,,,,,,,,,,,,,,,,,,,,,,,,,,,,,,,,,,,,,,,,,,,,,,,
,,,,,,6069f9a16164d8e1747bb021,62bbfbb8a10048a50e8850a2,2022-06-29_10h14.47.203,Colour_Asymmetry_Pilot,2022.1.3,Win32,59.35774915,62bbe60bf3d75ef465d3e404,0,108,108,29,1,threefour,,,,,,,,,,,,,,,,,,,,,,,,,,,,,,,,,,,,,,,,,,,,,,,,,,,,,,,,,,,,,,,,,,,,,,,,,,,,,,,,,,,,,,,,,,,,,,,,,,,,,,,,,,,,,,,,,,,,,,,,,,,,,,,,,,,,,,,,,,,,,,,,,,,,,,,,
,,,,,,6069f9a16164d8e1747bb021,62bbfbb8a10048a50e8850a2,2022-06-29_10h14.47.203,Colour_Asymmetry_Pilot,2022.1.3,Win32,59.35774915,62bbe60bf3d75ef465d3e404,0,109,109,31,1,fourthree,,,,,,,,,,,,,,,,,,,,,,,,,,,,,,,,,,,,,,,,,,,,,,,,,,,,,,,,,,,,,,,,,,,,,,,,,,,,,,,,,,,,,,,,,,,,,,,,,,,,,,,,,,,,,,,,,,,,,,,,,,,,,,,,,,,,,,,,,,,,,,,,,,,,,,,,
,,,,,,6069f9a16164d8e1747bb021,62bbfbb8a10048a50e8850a2,2022-06-29_10h14.47.203,Colour_Asymmetry_Pilot,2022.1.3,Win32,59.35774915,62bbe60bf3d75ef465d3e404,0,110,110,41,1,onethree,,,,,,,,,,,,,,,,,,,,,,,,,,,,,,,,,,,,,,,,,,,,,,,,,,,,,,,,,,,,,,,,,,,,,,,,,,,,,,,,,,,,,,,,,,,,,,,,,,,,,,,,,,,,,,,,,,,,,,,,,,,,,,,,,,,,,,,,,,,,,,,,,,,,,,,,
,,,,,,6069f9a16164d8e1747bb021,62bbfbb8a10048a50e8850a2,2022-06-29_10h14.47.203,Colour_Asymmetry_Pilot,2022.1.3,Win32,59.35774915,62bbe60bf3d75ef465d3e404,0,111,111,27,1,twofour,,,,,,,,,,,,,,,,,,,,,,,,,,,,,,,,,,,,,,,,,,,,,,,,,,,,,,,,,,,,,,,,,,,,,,,,,,,,,,,,,,,,,,,,,,,,,,,,,,,,,,,,,,,,,,,,,,,,,,,,,,,,,,,,,,,,,,,,,,,,,,,,,,,,,,,,
,,,,,,6069f9a16164d8e1747bb021,62bbfbb8a10048a50e8850a2,2022-06-29_10h14.47.203,Colour_Asymmetry_Pilot,2022.1.3,Win32,59.35774915,62bbe60bf3d75ef465d3e404,0,112,112,103,1,fourthree,,,,,,,,,,,,,,,,,,,,,,,,,,,,,,,,,,,,,,,,,,,,,,,,,,,,,,,,,,,,,,,,,,,,,,,,,,,,,,,,,,,,,,,,,,,,,,,,,,,,,,,,,,,,,,,,,,,,,,,,,,,,,,,,,,,,,,,,,,,,,,,,,,,,,,,,
,,,,,,6069f9a16164d8e1747bb021,62bbfbb8a10048a50e8850a2,2022-06-29_10h14.47.203,Colour_Asymmetry_Pilot,2022.1.3,Win32,59.35774915,62bbe60bf3d75ef465d3e404,0,113,113,43,1,twofour,,,,,,,,,,,,,,,,,,,,,,,,,,,,,,,,,,,,,,,,,,,,,,,,,,,,,,,,,,,,,,,,,,,,,,,,,,,,,,,,,,,,,,,,,,,,,,,,,,,,,,,,,,,,,,,,,,,,,,,,,,,,,,,,,,,,,,,,,,,,,,,,,,,,,,,,
,,,,,,6069f9a16164d8e1747bb021,62bbfbb8a10048a50e8850a2,2022-06-29_10h14.47.203,Colour_Asymmetry_Pilot,2022.1.3,Win32,59.35774915,62bbe60bf3d75ef465d3e404,0,114,114,51,1,twofour,,,,,,,,,,,,,,,,,,,,,,,,,,,,,,,,,,,,,,,,,,,,,,,,,,,,,,,,,,,,,,,,,,,,,,,,,,,,,,,,,,,,,,,,,,,,,,,,,,,,,,,,,,,,,,,,,,,,,,,,,,,,,,,,,,,,,,,,,,,,,,,,,,,,,,,,
,,,,,,6069f9a16164d8e1747bb021,62bbfbb8a10048a50e8850a2,2022-06-29_10h14.47.203,Colour_Asymmetry_Pilot,2022.1.3,Win32,59.35774915,62bbe60bf3d75ef465d3e404,0,115,115,147,1,twofour,,,,,,,,,,,,,,,,,,,,,,,,,,,,,,,,,,,,,,,,,,,,,,,,,,,,,,,,,,,,,,,,,,,,,,,,,,,,,,,,,,,,,,,,,,,,,,,,,,,,,,,,,,,,,,,,,,,,,,,,,,,,,,,,,,,,,,,,,,,,,,,,,,,,,,,,
,,,,,,6069f9a16164d8e1747bb021,62bbfbb8a10048a50e8850a2,2022-06-29_10h14.47.203,Colour_Asymmetry_Pilot,2022.1.3,Win32,59.35774915,62bbe60bf3d75ef465d3e404,0,116,116,79,1,fourthree,,,,,,,,,,,,,,,,,,,,,,,,,,,,,,,,,,,,,,,,,,,,,,,,,,,,,,,,,,,,,,,,,,,,,,,,,,,,,,,,,,,,,,,,,,,,,,,,,,,,,,,,,,,,,,,,,,,,,,,,,,,,,,,,,,,,,,,,,,,,,,,,,,,,,,,,
,,,,,,6069f9a16164d8e1747bb021,62bbfbb8a10048a50e8850a2,2022-06-29_10h14.47.203,Colour_Asymmetry_Pilot,2022.1.3,Win32,59.35774915,62bbe60bf3d75ef465d3e404,0,117,117,111,1,fourthree,,,,,,,,,,,,,,,,,,,,,,,,,,,,,,,,,,,,,,,,,,,,,,,,,,,,,,,,,,,,,,,,,,,,,,,,,,,,,,,,,,,,,,,,,,,,,,,,,,,,,,,,,,,,,,,,,,,,,,,,,,,,,,,,,,,,,,,,,,,,,,,,,,,,,,,,
,,,,,,6069f9a16164d8e1747bb021,62bbfbb8a10048a50e8850a2,2022-06-29_10h14.47.203,Colour_Asymmetry_Pilot,2022.1.3,Win32,59.35774915,62bbe60bf3d75ef465d3e404,0,118,118,55,1,fourthree,,,,,,,,,,,,,,,,,,,,,,,,,,,,,,,,,,,,,,,,,,,,,,,,,,,,,,,,,,,,,,,,,,,,,,,,,,,,,,,,,,,,,,,,,,,,,,,,,,,,,,,,,,,,,,,,,,,,,,,,,,,,,,,,,,,,,,,,,,,,,,,,,,,,,,,,
,,,,,,6069f9a16164d8e1747bb021,62bbfbb8a10048a50e8850a2,2022-06-29_10h14.47.203,Colour_Asymmetry_Pilot,2022.1.3,Win32,59.35774915,62bbe60bf3d75ef465d3e404,0,119,119,116,1,threeone,,,,,,,,,,,,,,,,,,,,,,,,,,,,,,,,,,,,,,,,,,,,,,,,,,,,,,,,,,,,,,,,,,,,,,,,,,,,,,,,,,,,,,,,,,,,,,,,,,,,,,,,,,,,,,,,,,,,,,,,,,,,,,,,,,,,,,,,,,,,,,,,,,,,,,,,
,,,,,,6069f9a16164d8e1747bb021,62bbfbb8a10048a50e8850a2,2022-06-29_10h14.47.203,Colour_Asymmetry_Pilot,2022.1.3,Win32,59.35774915,62bbe60bf3d75ef465d3e404,0,120,120,19,1,twofour,,,,,,,,,,,,,,,,,,,,,,,,,,,,,,,,,,,,,,,,,,,,,,,,,,,,,,,,,,,,,,,,,,,,,,,,,,,,,,,,,,,,,,,,,,,,,,,,,,,,,,,,,,,,,,,,,,,,,,,,,,,,,,,,,,,,,,,,,,,,,,,,,,,,,,,,
,,,,,,6069f9a16164d8e1747bb021,62bbfbb8a10048a50e8850a2,2022-06-29_10h14.47.203,Colour_Asymmetry_Pilot,2022.1.3,Win32,59.35774915,62bbe60bf3d75ef465d3e404,0,121,121,136,1,onetwo,,,,,,,,,,,,,,,,,,,,,,,,,,,,,,,,,,,,,,,,,,,,,,,,,,,,,,,,,,,,,,,,,,,,,,,,,,,,,,,,,,,,,,,,,,,,,,,,,,,,,,,,,,,,,,,,,,,,,,,,,,,,,,,,,,,,,,,,,,,,,,,,,,,,,,,,
,,,,,,6069f9a16164d8e1747bb021,62bbfbb8a10048a50e8850a2,2022-06-29_10h14.47.203,Colour_Asymmetry_Pilot,2022.1.3,Win32,59.35774915,62bbe60bf3d75ef465d3e404,0,122,122,64,1,onetwo,,,,,,,,,,,,,,,,,,,,,,,,,,,,,,,,,,,,,,,,,,,,,,,,,,,,,,,,,,,,,,,,,,,,,,,,,,,,,,,,,,,,,,,,,,,,,,,,,,,,,,,,,,,,,,,,,,,,,,,,,,,,,,,,,,,,,,,,,,,,,,,,,,,,,,,,
,,,,,,6069f9a16164d8e1747bb021,62bbfbb8a10048a50e8850a2,2022-06-29_10h14.47.203,Colour_Asymmetry_Pilot,2022.1.3,Win32,59.35774915,62bbe60bf3d75ef465d3e404,0,123,123,94,1,fourtwo,,,,,,,,,,,,,,,,,,,,,,,,,,,,,,,,,,,,,,,,,,,,,,,,,,,,,,,,,,,,,,,,,,,,,,,,,,,,,,,,,,,,,,,,,,,,,,,,,,,,,,,,,,,,,,,,,,,,,,,,,,,,,,,,,,,,,,,,,,,,,,,,,,,,,,,,
,,,,,,6069f9a16164d8e1747bb021,62bbfbb8a10048a50e8850a2,2022-06-29_10h14.47.203,Colour_Asymmetry_Pilot,2022.1.3,Win32,59.35774915,62bbe60bf3d75ef465d3e404,0,124,124,32,1,onetwo,,,,,,,,,,,,,,,,,,,,,,,,,,,,,,,,,,,,,,,,,,,,,,,,,,,,,,,,,,,,,,,,,,,,,,,,,,,,,,,,,,,,,,,,,,,,,,,,,,,,,,,,,,,,,,,,,,,,,,,,,,,,,,,,,,,,,,,,,,,,,,,,,,,,,,,,
,,,,,,6069f9a16164d8e1747bb021,62bbfbb8a10048a50e8850a2,2022-06-29_10h14.47.203,Colour_Asymmetry_Pilot,2022.1.3,Win32,59.35774915,62bbe60bf3d75ef465d3e404,0,125,125,75,1,twofour,,,,,,,,,,,,,,,,,,,,,,,,,,,,,,,,,,,,,,,,,,,,,,,,,,,,,,,,,,,,,,,,,,,,,,,,,,,,,,,,,,,,,,,,,,,,,,,,,,,,,,,,,,,,,,,,,,,,,,,,,,,,,,,,,,,,,,,,,,,,,,,,,,,,,,,,
,,,,,,6069f9a16164d8e1747bb021,62bbfbb8a10048a50e8850a2,2022-06-29_10h14.47.203,Colour_Asymmetry_Pilot,2022.1.3,Win32,59.35774915,62bbe60bf3d75ef465d3e404,0,126,126,21,1,threefour,,,,,,,,,,,,,,,,,,,,,,,,,,,,,,,,,,,,,,,,,,,,,,,,,,,,,,,,,,,,,,,,,,,,,,,,,,,,,,,,,,,,,,,,,,,,,,,,,,,,,,,,,,,,,,,,,,,,,,,,,,,,,,,,,,,,,,,,,,,,,,,,,,,,,,,,
,,,,,,6069f9a16164d8e1747bb021,62bbfbb8a10048a50e8850a2,2022-06-29_10h14.47.203,Colour_Asymmetry_Pilot,2022.1.3,Win32,59.35774915,62bbe60bf3d75ef465d3e404,0,127,127,150,1,fourtwo,,,,,,,,,,,,,,,,,,,,,,,,,,,,,,,,,,,,,,,,,,,,,,,,,,,,,,,,,,,,,,,,,,,,,,,,,,,,,,,,,,,,,,,,,,,,,,,,,,,,,,,,,,,,,,,,,,,,,,,,,,,,,,,,,,,,,,,,,,,,,,,,,,,,,,,,
,,,,,,6069f9a16164d8e1747bb021,62bbfbb8a10048a50e8850a2,2022-06-29_10h14.47.203,Colour_Asymmetry_Pilot,2022.1.3,Win32,59.35774915,62bbe60bf3d75ef465d3e404,0,128,128,93,1,threefour,,,,,,,,,,,,,,,,,,,,,,,,,,,,,,,,,,,,,,,,,,,,,,,,,,,,,,,,,,,,,,,,,,,,,,,,,,,,,,,,,,,,,,,,,,,,,,,,,,,,,,,,,,,,,,,,,,,,,,,,,,,,,,,,,,,,,,,,,,,,,,,,,,,,,,,,
,,,,,,6069f9a16164d8e1747bb021,62bbfbb8a10048a50e8850a2,2022-06-29_10h14.47.203,Colour_Asymmetry_Pilot,2022.1.3,Win32,59.35774915,62bbe60bf3d75ef465d3e404,0,129,129,10,1,twoone,,,,,,,,,,,,,,,,,,,,,,,,,,,,,,,,,,,,,,,,,,,,,,,,,,,,,,,,,,,,,,,,,,,,,,,,,,,,,,,,,,,,,,,,,,,,,,,,,,,,,,,,,,,,,,,,,,,,,,,,,,,,,,,,,,,,,,,,,,,,,,,,,,,,,,,,
,,,,,,6069f9a16164d8e1747bb021,62bbfbb8a10048a50e8850a2,2022-06-29_10h14.47.203,Colour_Asymmetry_Pilot,2022.1.3,Win32,59.35774915,62bbe60bf3d75ef465d3e404,0,130,130,57,1,onethree,,,,,,,,,,,,,,,,,,,,,,,,,,,,,,,,,,,,,,,,,,,,,,,,,,,,,,,,,,,,,,,,,,,,,,,,,,,,,,,,,,,,,,,,,,,,,,,,,,,,,,,,,,,,,,,,,,,,,,,,,,,,,,,,,,,,,,,,,,,,,,,,,,,,,,,,
,,,,,,6069f9a16164d8e1747bb021,62bbfbb8a10048a50e8850a2,2022-06-29_10h14.47.203,Colour_Asymmetry_Pilot,2022.1.3,Win32,59.35774915,62bbe60bf3d75ef465d3e404,0,131,131,11,1,twofour,,,,,,,,,,,,,,,,,,,,,,,,,,,,,,,,,,,,,,,,,,,,,,,,,,,,,,,,,,,,,,,,,,,,,,,,,,,,,,,,,,,,,,,,,,,,,,,,,,,,,,,,,,,,,,,,,,,,,,,,,,,,,,,,,,,,,,,,,,,,,,,,,,,,,,,,
,,,,,,6069f9a16164d8e1747bb021,62bbfbb8a10048a50e8850a2,2022-06-29_10h14.47.203,Colour_Asymmetry_Pilot,2022.1.3,Win32,59.35774915,62bbe60bf3d75ef465d3e404,0,132,132,36,1,threeone,,,,,,,,,,,,,,,,,,,,,,,,,,,,,,,,,,,,,,,,,,,,,,,,,,,,,,,,,,,,,,,,,,,,,,,,,,,,,,,,,,,,,,,,,,,,,,,,,,,,,,,,,,,,,,,,,,,,,,,,,,,,,,,,,,,,,,,,,,,,,,,,,,,,,,,,
,,,,,,6069f9a16164d8e1747bb021,62bbfbb8a10048a50e8850a2,2022-06-29_10h14.47.203,Colour_Asymmetry_Pilot,2022.1.3,Win32,59.35774915,62bbe60bf3d75ef465d3e404,0,133,133,139,1,twofour,,,,,,,,,,,,,,,,,,,,,,,,,,,,,,,,,,,,,,,,,,,,,,,,,,,,,,,,,,,,,,,,,,,,,,,,,,,,,,,,,,,,,,,,,,,,,,,,,,,,,,,,,,,,,,,,,,,,,,,,,,,,,,,,,,,,,,,,,,,,,,,,,,,,,,,,
,,,,,,6069f9a16164d8e1747bb021,62bbfbb8a10048a50e8850a2,2022-06-29_10h14.47.203,Colour_Asymmetry_Pilot,2022.1.3,Win32,59.35774915,62bbe60bf3d75ef465d3e404,0,134,134,158,1,fourtwo,,,,,,,,,,,,,,,,,,,,,,,,,,,,,,,,,,,,,,,,,,,,,,,,,,,,,,,,,,,,,,,,,,,,,,,,,,,,,,,,,,,,,,,,,,,,,,,,,,,,,,,,,,,,,,,,,,,,,,,,,,,,,,,,,,,,,,,,,,,,,,,,,,,,,,,,
,,,,,,6069f9a16164d8e1747bb021,62bbfbb8a10048a50e8850a2,2022-06-29_10h14.47.203,Colour_Asymmetry_Pilot,2022.1.3,Win32,59.35774915,62bbe60bf3d75ef465d3e404,0,135,135,87,1,fourthree,,,,,,,,,,,,,,,,,,,,,,,,,,,,,,,,,,,,,,,,,,,,,,,,,,,,,,,,,,,,,,,,,,,,,,,,,,,,,,,,,,,,,,,,,,,,,,,,,,,,,,,,,,,,,,,,,,,,,,,,,,,,,,,,,,,,,,,,,,,,,,,,,,,,,,,,
,,,,,,6069f9a16164d8e1747bb021,62bbfbb8a10048a50e8850a2,2022-06-29_10h14.47.203,Colour_Asymmetry_Pilot,2022.1.3,Win32,59.35774915,62bbe60bf3d75ef465d3e404,0,136,136,141,1,threefour,,,,,,,,,,,,,,,,,,,,,,,,,,,,,,,,,,,,,,,,,,,,,,,,,,,,,,,,,,,,,,,,,,,,,,,,,,,,,,,,,,,,,,,,,,,,,,,,,,,,,,,,,,,,,,,,,,,,,,,,,,,,,,,,,,,,,,,,,,,,,,,,,,,,,,,,
,,,,,,6069f9a16164d8e1747bb021,62bbfbb8a10048a50e8850a2,2022-06-29_10h14.47.203,Colour_Asymmetry_Pilot,2022.1.3,Win32,59.35774915,62bbe60bf3d75ef465d3e404,0,137,137,130,1,twoone,,,,,,,,,,,,,,,,,,,,,,,,,,,,,,,,,,,,,,,,,,,,,,,,,,,,,,,,,,,,,,,,,,,,,,,,,,,,,,,,,,,,,,,,,,,,,,,,,,,,,,,,,,,,,,,,,,,,,,,,,,,,,,,,,,,,,,,,,,,,,,,,,,,,,,,,
,,,,,,6069f9a16164d8e1747bb021,62bbfbb8a10048a50e8850a2,2022-06-29_10h14.47.203,Colour_Asymmetry_Pilot,2022.1.3,Win32,59.35774915,62bbe60bf3d75ef465d3e404,0,138,138,92,1,threeone,,,,,,,,,,,,,,,,,,,,,,,,,,,,,,,,,,,,,,,,,,,,,,,,,,,,,,,,,,,,,,,,,,,,,,,,,,,,,,,,,,,,,,,,,,,,,,,,,,,,,,,,,,,,,,,,,,,,,,,,,,,,,,,,,,,,,,,,,,,,,,,,,,,,,,,,
,,,,,,6069f9a16164d8e1747bb021,62bbfbb8a10048a50e8850a2,2022-06-29_10h14.47.203,Colour_Asymmetry_Pilot,2022.1.3,Win32,59.35774915,62bbe60bf3d75ef465d3e404,0,139,139,67,1,twofour,,,,,,,,,,,,,,,,,,,,,,,,,,,,,,,,,,,,,,,,,,,,,,,,,,,,,,,,,,,,,,,,,,,,,,,,,,,,,,,,,,,,,,,,,,,,,,,,,,,,,,,,,,,,,,,,,,,,,,,,,,,,,,,,,,,,,,,,,,,,,,,,,,,,,,,,
,,,,,,6069f9a16164d8e1747bb021,62bbfbb8a10048a50e8850a2,2022-06-29_10h14.47.203,Colour_Asymmetry_Pilot,2022.1.3,Win32,59.35774915,62bbe60bf3d75ef465d3e404,0,140,140,122,1,twoone,,,,,,,,,,,,,,,,,,,,,,,,,,,,,,,,,,,,,,,,,,,,,,,,,,,,,,,,,,,,,,,,,,,,,,,,,,,,,,,,,,,,,,,,,,,,,,,,,,,,,,,,,,,,,,,,,,,,,,,,,,,,,,,,,,,,,,,,,,,,,,,,,,,,,,,,
,,,,,,6069f9a16164d8e1747bb021,62bbfbb8a10048a50e8850a2,2022-06-29_10h14.47.203,Colour_Asymmetry_Pilot,2022.1.3,Win32,59.35774915,62bbe60bf3d75ef465d3e404,0,141,141,42,1,twoone,,,,,,,,,,,,,,,,,,,,,,,,,,,,,,,,,,,,,,,,,,,,,,,,,,,,,,,,,,,,,,,,,,,,,,,,,,,,,,,,,,,,,,,,,,,,,,,,,,,,,,,,,,,,,,,,,,,,,,,,,,,,,,,,,,,,,,,,,,,,,,,,,,,,,,,,
,,,,,,6069f9a16164d8e1747bb021,62bbfbb8a10048a50e8850a2,2022-06-29_10h14.47.203,Colour_Asymmetry_Pilot,2022.1.3,Win32,59.35774915,62bbe60bf3d75ef465d3e404,0,142,142,107,1,twofour,,,,,,,,,,,,,,,,,,,,,,,,,,,,,,,,,,,,,,,,,,,,,,,,,,,,,,,,,,,,,,,,,,,,,,,,,,,,,,,,,,,,,,,,,,,,,,,,,,,,,,,,,,,,,,,,,,,,,,,,,,,,,,,,,,,,,,,,,,,,,,,,,,,,,,,,
,,,,,,6069f9a16164d8e1747bb021,62bbfbb8a10048a50e8850a2,2022-06-29_10h14.47.203,Colour_Asymmetry_Pilot,2022.1.3,Win32,59.35774915,62bbe60bf3d75ef465d3e404,0,143,143,8,1,onetwo,,,,,,,,,,,,,,,,,,,,,,,,,,,,,,,,,,,,,,,,,,,,,,,,,,,,,,,,,,,,,,,,,,,,,,,,,,,,,,,,,,,,,,,,,,,,,,,,,,,,,,,,,,,,,,,,,,,,,,,,,,,,,,,,,,,,,,,,,,,,,,,,,,,,,,,,
,,,,,,6069f9a16164d8e1747bb021,62bbfbb8a10048a50e8850a2,2022-06-29_10h14.47.203,Colour_Asymmetry_Pilot,2022.1.3,Win32,59.35774915,62bbe60bf3d75ef465d3e404,0,144,144,138,1,twoone,,,,,,,,,,,,,,,,,,,,,,,,,,,,,,,,,,,,,,,,,,,,,,,,,,,,,,,,,,,,,,,,,,,,,,,,,,,,,,,,,,,,,,,,,,,,,,,,,,,,,,,,,,,,,,,,,,,,,,,,,,,,,,,,,,,,,,,,,,,,,,,,,,,,,,,,
,,,,,,6069f9a16164d8e1747bb021,62bbfbb8a10048a50e8850a2,2022-06-29_10h14.47.203,Colour_Asymmetry_Pilot,2022.1.3,Win32,59.35774915,62bbe60bf3d75ef465d3e404,0,145,145,105,1,onethree,,,,,,,,,,,,,,,,,,,,,,,,,,,,,,,,,,,,,,,,,,,,,,,,,,,,,,,,,,,,,,,,,,,,,,,,,,,,,,,,,,,,,,,,,,,,,,,,,,,,,,,,,,,,,,,,,,,,,,,,,,,,,,,,,,,,,,,,,,,,,,,,,,,,,,,,
,,,,,,6069f9a16164d8e1747bb021,62bbfbb8a10048a50e8850a2,2022-06-29_10h14.47.203,Colour_Asymmetry_Pilot,2022.1.3,Win32,59.35774915,62bbe60bf3d75ef465d3e404,0,146,146,134,1,fourtwo,,,,,,,,,,,,,,,,,,,,,,,,,,,,,,,,,,,,,,,,,,,,,,,,,,,,,,,,,,,,,,,,,,,,,,,,,,,,,,,,,,,,,,,,,,,,,,,,,,,,,,,,,,,,,,,,,,,,,,,,,,,,,,,,,,,,,,,,,,,,,,,,,,,,,,,,
,,,,,,6069f9a16164d8e1747bb021,62bbfbb8a10048a50e8850a2,2022-06-29_10h14.47.203,Colour_Asymmetry_Pilot,2022.1.3,Win32,59.35774915,62bbe60bf3d75ef465d3e404,0,147,147,71,1,fourthree,,,,,,,,,,,,,,,,,,,,,,,,,,,,,,,,,,,,,,,,,,,,,,,,,,,,,,,,,,,,,,,,,,,,,,,,,,,,,,,,,,,,,,,,,,,,,,,,,,,,,,,,,,,,,,,,,,,,,,,,,,,,,,,,,,,,,,,,,,,,,,,,,,,,,,,,
,,,,,,6069f9a16164d8e1747bb021,62bbfbb8a10048a50e8850a2,2022-06-29_10h14.47.203,Colour_Asymmetry_Pilot,2022.1.3,Win32,59.35774915,62bbe60bf3d75ef465d3e404,0,148,148,15,1,fourthree,,,,,,,,,,,,,,,,,,,,,,,,,,,,,,,,,,,,,,,,,,,,,,,,,,,,,,,,,,,,,,,,,,,,,,,,,,,,,,,,,,,,,,,,,,,,,,,,,,,,,,,,,,,,,,,,,,,,,,,,,,,,,,,,,,,,,,,,,,,,,,,,,,,,,,,,
,,,,,,6069f9a16164d8e1747bb021,62bbfbb8a10048a50e8850a2,2022-06-29_10h14.47.203,Colour_Asymmetry_Pilot,2022.1.3,Win32,59.35774915,62bbe60bf3d75ef465d3e404,0,149,149,25,1,onethree,,,,,,,,,,,,,,,,,,,,,,,,,,,,,,,,,,,,,,,,,,,,,,,,,,,,,,,,,,,,,,,,,,,,,,,,,,,,,,,,,,,,,,,,,,,,,,,,,,,,,,,,,,,,,,,,,,,,,,,,,,,,,,,,,,,,,,,,,,,,,,,,,,,,,,,,
,,,,,,6069f9a16164d8e1747bb021,62bbfbb8a10048a50e8850a2,2022-06-29_10h14.47.203,Colour_Asymmetry_Pilot,2022.1.3,Win32,59.35774915,62bbe60bf3d75ef465d3e404,0,150,150,6,1,fourtwo,,,,,,,,,,,,,,,,,,,,,,,,,,,,,,,,,,,,,,,,,,,,,,,,,,,,,,,,,,,,,,,,,,,,,,,,,,,,,,,,,,,,,,,,,,,,,,,,,,,,,,,,,,,,,,,,,,,,,,,,,,,,,,,,,,,,,,,,,,,,,,,,,,,,,,,,
,,,,,,6069f9a16164d8e1747bb021,62bbfbb8a10048a50e8850a2,2022-06-29_10h14.47.203,Colour_Asymmetry_Pilot,2022.1.3,Win32,59.35774915,62bbe60bf3d75ef465d3e404,0,151,151,73,1,onethree,,,,,,,,,,,,,,,,,,,,,,,,,,,,,,,,,,,,,,,,,,,,,,,,,,,,,,,,,,,,,,,,,,,,,,,,,,,,,,,,,,,,,,,,,,,,,,,,,,,,,,,,,,,,,,,,,,,,,,,,,,,,,,,,,,,,,,,,,,,,,,,,,,,,,,,,
,,,,,,6069f9a16164d8e1747bb021,62bbfbb8a10048a50e8850a2,2022-06-29_10h14.47.203,Colour_Asymmetry_Pilot,2022.1.3,Win32,59.35774915,62bbe60bf3d75ef465d3e404,0,152,152,54,1,fourtwo,,,,,,,,,,,,,,,,,,,,,,,,,,,,,,,,,,,,,,,,,,,,,,,,,,,,,,,,,,,,,,,,,,,,,,,,,,,,,,,,,,,,,,,,,,,,,,,,,,,,,,,,,,,,,,,,,,,,,,,,,,,,,,,,,,,,,,,,,,,,,,,,,,,,,,,,
,,,,,,6069f9a16164d8e1747bb021,62bbfbb8a10048a50e8850a2,2022-06-29_10h14.47.203,Colour_Asymmetry_Pilot,2022.1.3,Win32,59.35774915,62bbe60bf3d75ef465d3e404,0,153,153,142,1,fourtwo,,,,,,,,,,,,,,,,,,,,,,,,,,,,,,,,,,,,,,,,,,,,,,,,,,,,,,,,,,,,,,,,,,,,,,,,,,,,,,,,,,,,,,,,,,,,,,,,,,,,,,,,,,,,,,,,,,,,,,,,,,,,,,,,,,,,,,,,,,,,,,,,,,,,,,,,
,,,,,,6069f9a16164d8e1747bb021,62bbfbb8a10048a50e8850a2,2022-06-29_10h14.47.203,Colour_Asymmetry_Pilot,2022.1.3,Win32,59.35774915,62bbe60bf3d75ef465d3e404,0,154,154,152,1,onetwo,,,,,,,,,,,,,,,,,,,,,,,,,,,,,,,,,,,,,,,,,,,,,,,,,,,,,,,,,,,,,,,,,,,,,,,,,,,,,,,,,,,,,,,,,,,,,,,,,,,,,,,,,,,,,,,,,,,,,,,,,,,,,,,,,,,,,,,,,,,,,,,,,,,,,,,,
,,,,,,6069f9a16164d8e1747bb021,62bbfbb8a10048a50e8850a2,2022-06-29_10h14.47.203,Colour_Asymmetry_Pilot,2022.1.3,Win32,59.35774915,62bbe60bf3d75ef465d3e404,0,155,155,70,1,fourtwo,,,,,,,,,,,,,,,,,,,,,,,,,,,,,,,,,,,,,,,,,,,,,,,,,,,,,,,,,,,,,,,,,,,,,,,,,,,,,,,,,,,,,,,,,,,,,,,,,,,,,,,,,,,,,,,,,,,,,,,,,,,,,,,,,,,,,,,,,,,,,,,,,,,,,,,,
,,,,,,6069f9a16164d8e1747bb021,62bbfbb8a10048a50e8850a2,2022-06-29_10h14.47.203,Colour_Asymmetry_Pilot,2022.1.3,Win32,59.35774915,62bbe60bf3d75ef465d3e404,0,156,156,114,1,twoone,,,,,,,,,,,,,,,,,,,,,,,,,,,,,,,,,,,,,,,,,,,,,,,,,,,,,,,,,,,,,,,,,,,,,,,,,,,,,,,,,,,,,,,,,,,,,,,,,,,,,,,,,,,,,,,,,,,,,,,,,,,,,,,,,,,,,,,,,,,,,,,,,,,,,,,,
,,,,,,6069f9a16164d8e1747bb021,62bbfbb8a10048a50e8850a2,2022-06-29_10h14.47.203,Colour_Asymmetry_Pilot,2022.1.3,Win32,59.35774915,62bbe60bf3d75ef465d3e404,0,157,157,127,1,fourthree,,,,,,,,,,,,,,,,,,,,,,,,,,,,,,,,,,,,,,,,,,,,,,,,,,,,,,,,,,,,,,,,,,,,,,,,,,,,,,,,,,,,,,,,,,,,,,,,,,,,,,,,,,,,,,,,,,,,,,,,,,,,,,,,,,,,,,,,,,,,,,,,,,,,,,,,
,,,,,,6069f9a16164d8e1747bb021,62bbfbb8a10048a50e8850a2,2022-06-29_10h14.47.203,Colour_Asymmetry_Pilot,2022.1.3,Win32,59.35774915,62bbe60bf3d75ef465d3e404,0,158,158,4,1,threeone,,,,,,,,,,,,,,,,,,,,,,,,,,,,,,,,,,,,,,,,,,,,,,,,,,,,,,,,,,,,,,,,,,,,,,,,,,,,,,,,,,,,,,,,,,,,,,,,,,,,,,,,,,,,,,,,,,,,,,,,,,,,,,,,,,,,,,,,,,,,,,,,,,,,,,,,
,,,,,,6069f9a16164d8e1747bb021,62bbfbb8a10048a50e8850a2,2022-06-29_10h14.47.203,Colour_Asymmetry_Pilot,2022.1.3,Win32,59.35774915,62bbe60bf3d75ef465d3e404,0,159,159,129,1,onethree,,,,,,,,,,,,,,,,,,,,,,,,,,,,,,,,,,,,,,,,,,,,,,,,,,,,,,,,,,,,,,,,,,,,,,,,,,,,,,,,,,,,,,,,,,,,,,,,,,,,,,,,,,,,,,,,,,,,,,,,,,,,,,,,,,,,,,,,,,,,,,,,,,,,,,,,
,,,,,,6069f9a16164d8e1747bb021,62bbfbb8a10048a50e8850a2,2022-06-29_10h14.47.203,Colour_Asymmetry_Pilot,2022.1.3,Win32,59.35774915,62bbe60bf3d75ef465d3e404,0,160,160,22,1,fourtwo,,,,,,,,,,,,,,,,,,,,,,,,,,,,,,,,,,,,,,,,,,,,,,,,,,,,,,,,,,,,,,,,,,,,,,,,,,,,,,,,,,,,,,,,,,,,,,,,,,,,,,,,,,,,,,,,,,,,,,,,,,,,,,,,,,,,,,,,,,,,,,,,,,,,,,,,
,,,,,,6069f9a16164d8e1747bb021,62bbfbb8a10048a50e8850a2,2022-06-29_10h14.47.203,Colour_Asymmetry_Pilot,2022.1.3,Win32,59.35774915,62bbe60bf3d75ef465d3e404,0,161,161,74,1,twoone,,,,,,,,,,,,,,,,,,,,,,,,,,,,,,,,,,,,,,,,,,,,,,,,,,,,,,,,,,,,,,,,,,,,,,,,,,,,,,,,,,,,,,,,,,,,,,,,,,,,,,,,,,,,,,,,,,,,,,,,,,,,,,,,,,,,,,,,,,,,,,,,,,,,,,,,
,,,,,,6069f9a16164d8e1747bb021,62bbfbb8a10048a50e8850a2,2022-06-29_10h14.47.203,Colour_Asymmetry_Pilot,2022.1.3,Win32,59.35774915,62bbe60bf3d75ef465d3e404,,,,,,,space,2.579,space,37.207,space,33.0238,space,11.7807,space,2.1618,space,5.0804,"[-0.26280000000000003,-0.4746,-0.2158]",twoone,"[0.23920000000000008,0.2704,0.16060000000000008]",-4,1.8167,-40.66662598,81.33331299,1,0,0,response7disk_5,-14.66662598,2,1,0,0,rectangle_8,-14.66662598,2,1,0,0,1,-14.66662598,2,1,0,0,0,0,0,0,1,,,,,,,,,,,,,,,,,,,,,,,,,,,,,,,,,,,,,,,,,,,,,,,,,,,,,,,,,,,,,,,,,,,,,,,,,,,,,,,,,,,,,,,,,,,,,,,,,,,,,,,,,,,
,,,,,,6069f9a16164d8e1747bb021,62bbfbb8a10048a50e8850a2,2022-06-29_10h14.47.203,Colour_Asymmetry_Pilot,2022.1.3,Win32,59.35774915,62bbe60bf3d75ef465d3e404,,,,,,,,,,,,,,,,,,,"[-0.17659999999999998,0.3253999999999999,0.19999999999999996]",onetwo,"[0.9763999999999999,0.30979999999999985,-0.6786]",-4,1.4412,-55.33331299,82.66665649,1,0,0,response7disk_5,12.66668701,-5.333343506,1,0,0,rectangle_8,39.33337402,-65.33334351,1,0,0,1,1.333374023,8.666656494,1,0,0,1,0,1,0,1,response3disk_7,4,rectangle_4,,,,,,,,,,,,,,,,,,,,,,,,,,,,,,,,,,,,,,,,,,,,,,,,,,,,,,,,,,,,,,,,,,,,,,,,,,,,,,,,,,,,,,,,,,,,,,,,,,,,,,,,
,,,,,,6069f9a16164d8e1747bb021,62bbfbb8a10048a50e8850a2,2022-06-29_10h14.47.203,Colour_Asymmetry_Pilot,2022.1.3,Win32,59.35774915,62bbe60bf3d75ef465d3e404,,,,,,,,,,,,,,,,,,,"[0.34099999999999997,0.12939999999999996,-0.9766]",threeone,"[-0.45899999999999996,-0.3256,-0.9374]",-1,3.3138,-36.66662598,-88.66668701,1,0,0,response5disk_5,-4.666625977,2.666656494,1,0,0,rectangle_8,-4.666625977,2.666656494,1,0,0,1,-4.666625977,2.666656494,1,0,0,2,0,2,0,1,,,,,,,,,,,,,,,,,,,,,,,,,,,,,,,,,,,,,,,,,,,,,,,,,,,,,,,,,,,,,,,,,,,,,,,,,,,,,,,,,,,,,,,,,,,,,,,,,,,,,,,,,,,
,,,,,,6069f9a16164d8e1747bb021,62bbfbb8a10048a50e8850a2,2022-06-29_10h14.47.203,Colour_Asymmetry_Pilot,2022.1.3,Win32,59.35774915,62bbe60bf3d75ef465d3e404,,,,,,,,,,,,,,,,,,,"[-0.5452,-0.608,0.2470000000000001]",onetwo,"[-0.7412000000000001,-0.08239999999999992,-0.6864]",-3,1.7158,-90.66662598,32.66665649,1,0,0,response7disk_5,20,-5.333343506,1,0,0,rectangle_8,20,-5.333343506,1,0,0,1,20,-5.333343506,1,0,0,3,0,3,0,1,,,,,,,,,,,,,,,,,,,,,,,,,,,,,,,,,,,,,,,,,,,,,,,,,,,,,,,,,,,,,,,,,,,,,,,,,,,,,,,,,,,,,,,,,,,,,,,,,,,,,,,,,,,
,,,,,,6069f9a16164d8e1747bb021,62bbfbb8a10048a50e8850a2,2022-06-29_10h14.47.203,Colour_Asymmetry_Pilot,2022.1.3,Win32,59.35774915,62bbe60bf3d75ef465d3e404,,,,,,,,,,,,,,,,,,,"[1,0.12939999999999996,-1]",twofour,"[0.2784,-0.31000000000000005,-0.5452]",1,3.5643,32,-78,1,0,0,response3disk_5,-14.66662598,-6.666687012,1,0,0,rectangle_8,-14.66662598,-6.666687012,1,0,0,1,-14.66662598,-6.666687012,1,0,0,4,0,4,0,1,,,,,,,,,,,,,,,,,,,,,,,,,,,,,,,,,,,,,,,,,,,,,,,,,,,,,,,,,,,,,,,,,,,,,,,,,,,,,,,,,,,,,,,,,,,,,,,,,,,,,,,,,,,
,,,,,,6069f9a16164d8e1747bb021,62bbfbb8a10048a50e8850a2,2022-06-29_10h14.47.203,Colour_Asymmetry_Pilot,2022.1.3,Win32,59.35774915,62bbe60bf3d75ef465d3e404,,,,,,,,,,,,,,,,,,,"[-0.24719999999999998,0.5213999999999999,-0.12959999999999994]",threeone,"[-0.7412000000000001,-0.08239999999999992,-0.6864]",2,1.8498,58.66668701,-43.33334351,1,0,0,response3disk_5,-2,8,1,0,0,rectangle_8,-2,8,1,0,0,1,-2,8,1,0,0,5,0,5,0,1,,,,,,,,,,,,,,,,,,,,,,,,,,,,,,,,,,,,,,,,,,,,,,,,,,,,,,,,,,,,,,,,,,,,,,,,,,,,,,,,,,,,,,,,,,,,,,,,,,,,,,,,,,,
,,,,,,6069f9a16164d8e1747bb021,62bbfbb8a10048a50e8850a2,2022-06-29_10h14.47.203,Colour_Asymmetry_Pilot,2022.1.3,Win32,59.35774915,62bbe60bf3d75ef465d3e404,,,,,,,,,,,,,,,,,,,"[0.34099999999999997,0.5841999999999998,-0.9844]",threefour,"[-0.9844,-0.9688,-0.9922]",-4,1.398,-35.33331299,86,1,0,0,response7disk_5,-8.666625977,-2,1,0,0,rectangle_8,-8.666625977,-2,1,0,0,1,-8.666625977,-2,1,0,0,6,0,6,0,1,,,,,,,,,,,,,,,,,,,,,,,,,,,,,,,,,,,,,,,,,,,,,,,,,,,,,,,,,,,,,,,,,,,,,,,,,,,,,,,,,,,,,,,,,,,,,,,,,,,,,,,,,,,
,,,,,,6069f9a16164d8e1747bb021,62bbfbb8a10048a50e8850a2,2022-06-29_10h14.47.203,Colour_Asymmetry_Pilot,2022.1.3,Win32,59.35774915,62bbe60bf3d75ef465d3e404,,,,,,,,,,,,,,,,,,,,onetwo,,-3,1.333,,,,,,,,,,,,,,,,,,,,,,,,,,,,,,,,space,5.1853,"[0.6625999999999999,0.4980000000000002,-0.357]","[0.9372,0.9450000000000001,0.8980000000000001]",-82,33.33331299,1,0,0,response7disk,15.33337402,-4.666687012,1,0,0,rectangle,15.33337402,-4.666687012,1,0,0,,3,0.0054,0,15.33337402,-4.666687012,1,0,0,0,0,0,124,1,43,second,,,,,,,,,,,,,,,,,,,,,,,,,,,,,,,,,,,,,,,,,,,,,,,,,,,,,,,,,,,,,,,,,,,
,,,,,,6069f9a16164d8e1747bb021,62bbfbb8a10048a50e8850a2,2022-06-29_10h14.47.203,Colour_Asymmetry_Pilot,2022.1.3,Win32,59.35774915,62bbe60bf3d75ef465d3e404,,,,,,,,,,,,,,,,,,,,onetwo,,-3,1.082,,,,,,,,,,,,,,,,,,,,,,,,,,,,,,,,,,"[0.9372,0.9450000000000001,0.8980000000000001]","[-0.9688,-0.7412000000000001,-0.4902000000000001]",-87.33331299,50.66665649,1,0,0,response7disk,-14.66662598,13.33331299,1,0,0,rectangle,-14.66662598,13.33331299,1,0,0,-3,3,0.0012,0,-14.66662598,13.33331299,1,0,0,0,1,1,99,1,18,second,,,,,,,,,,,,,,,,,,,,,,,,,,,,,,,,,,,,,,,,,,,,,,,,,,,,,,,,,,,,,,,,,,,
,,,,,,6069f9a16164d8e1747bb021,62bbfbb8a10048a50e8850a2,2022-06-29_10h14.47.203,Colour_Asymmetry_Pilot,2022.1.3,Win32,59.35774915,62bbe60bf3d75ef465d3e404,,,,,,,,,,,,,,,,,,,,fourthree,,1,1.8487,,,,,,,,,,,,,,,,,,,,,,,,,,,,,,,,,,"[0.34099999999999997,0.5841999999999998,-0.9844]","[-0.5452,-0.608,0.2470000000000001]",35.33337402,-69.33334351,1,0,0,response3disk,-14,0.666656494,1,0,0,rectangle,-14,0.666656494,1,0,0,-3,1,0.0025,0,-14,0.666656494,1,0,0,0,2,2,142,1,61,second,,,,,,,,,,,,,,,,,,,,,,,,,,,,,,,,,,,,,,,,,,,,,,,,,,,,,,,,,,,,,,,,,,,
,,,,,,6069f9a16164d8e1747bb021,62bbfbb8a10048a50e8850a2,2022-06-29_10h14.47.203,Colour_Asymmetry_Pilot,2022.1.3,Win32,59.35774915,62bbe60bf3d75ef465d3e404,,,,,,,,,,,,,,,,,,,,onethree,,-2,1.0684,,,,,,,,,,,,,,,,,,,,,,,,,,,,,,,,,,"[0.9763999999999999,0.8588,-0.05900000000000005]","[0.23120000000000007,-0.7726,-0.34120000000000006]",-78.66662598,-33.33334351,1,0,0,response5disk,-16,-2.666687012,1,0,0,rectangle,-16,-2.666687012,1,0,0,-3,3,0.0032,0,-16,-2.666687012,1,0,0,0,3,3,73,1,73,first,,,,,,,,,,,,,,,,,,,,,,,,,,,,,,,,,,,,,,,,,,,,,,,,,,,,,,,,,,,,,,,,,,,
,,,,,,6069f9a16164d8e1747bb021,62bbfbb8a10048a50e8850a2,2022-06-29_10h14.47.203,Colour_Asymmetry_Pilot,2022.1.3,Win32,59.35774915,62bbe60bf3d75ef465d3e404,,,,,,,,,,,,,,,,,,,,onetwo,,-1,2.2817,,,,,,,,,,,,,,,,,,,,,,,,,,,,,,,,,,"[0.09799999999999986,-0.24719999999999998,0.15280000000000005]","[-0.050999999999999934,-0.6706000000000001,-0.804]",-28.66662598,-67.33334351,1,0,0,response5disk,-1.333312988,8.666656494,1,0,0,rectangle,59.33337402,-41.33334351,1,0,0,2,2,3.3537,1,-9.333312988,-11.33334351,1,0,0,0,4,4,161,1,80,second,response3disk_3,rectangle,,,,,,,,,,,,,,,,,,,,,,,,,,,,,,,,,,,,,,,,,,,,,,,,,,,,,,,,,,,,,,,,,
,,,,,,6069f9a16164d8e1747bb021,62bbfbb8a10048a50e8850a2,2022-06-29_10h14.47.203,Colour_Asymmetry_Pilot,2022.1.3,Win32,59.35774915,62bbe60bf3d75ef465d3e404,,,,,,,,,,,,,,,,,,,,threeone,,-2,1.3501,,,,,,,,,,,,,,,,,,,,,,,,,,,,,,,,,,"[-0.8118,-0.8198,-0.5452]","[-0.24719999999999998,0.5213999999999999,-0.12959999999999994]",-92,-52.66668701,1,0,0,response5disk,8,-6,1,0,0,rectangle,90,48.66665649,1,0,0,3,3,2.2947,1,-12.66662598,-4,1,0,0,0,5,5,159,1,78,second,response1disk_3,rectangle,,,,,,,,,,,,,,,,,,,,,,,,,,,,,,,,,,,,,,,,,,,,,,,,,,,,,,,,,,,,,,,,,
,,,,,,6069f9a16164d8e1747bb021,62bbfbb8a10048a50e8850a2,2022-06-29_10h14.47.203,Colour_Asymmetry_Pilot,2022.1.3,Win32,59.35774915,62bbe60bf3d75ef465d3e404,,,,,,,,,,,,,,,,,,,,threefour,,-2,1.3684,,,,,,,,,,,,,,,,,,,,,,,,,,,,,,,,,,"[0.9686000000000001,0.5763999999999998,0.11359999999999992]","[-0.10599999999999998,-0.15300000000000002,0.15280000000000005]",-88,-36,1,0,0,response5disk,5.333374023,-1.333343506,1,0,0,rectangle,5.333374023,-1.333343506,1,0,0,3,3,0.0008,0,5.333374023,-1.333343506,1,0,0,0,6,6,75,1,75,first,,,,,,,,,,,,,,,,,,,,,,,,,,,,,,,,,,,,,,,,,,,,,,,,,,,,,,,,,,,,,,,,,,,
,,,,,,6069f9a16164d8e1747bb021,62bbfbb8a10048a50e8850a2,2022-06-29_10h14.47.203,Colour_Asymmetry_Pilot,2022.1.3,Win32,59.35774915,62bbe60bf3d75ef465d3e404,,,,,,,,,,,,,,,,,,,,threefour,,2,1.316,,,,,,,,,,,,,,,,,,,,,,,,,,,,,,,,,,"[-0.4668,-0.8746,-0.2942]","[-0.9688,-0.7412000000000001,-0.4902000000000001]",59.33337402,-43.33334351,1,0,0,response3disk,-8.666625977,8.666656494,1,0,0,rectangle,-8.666625977,8.666656494,1,0,0,3,3,0.0014,0,-8.666625977,8.666656494,1,0,0,0,7,7,101,1,20,second,,,,,,,,,,,,,,,,,,,,,,,,,,,,,,,,,,,,,,,,,,,,,,,,,,,,,,,,,,,,,,,,,,,
,,,,,,6069f9a16164d8e1747bb021,62bbfbb8a10048a50e8850a2,2022-06-29_10h14.47.203,Colour_Asymmetry_Pilot,2022.1.3,Win32,59.35774915,62bbe60bf3d75ef465d3e404,,,,,,,,,,,,,,,,,,,,onethree,,-3,1.0365,,,,,,,,,,,,,,,,,,,,,,,,,,,,,,,,,,"[-0.26280000000000003,-0.4746,-0.2158]","[0.37240000000000006,0.4980000000000002,-0.2864]",-76,46.66665649,1,0,0,response7disk,-14,5.333312988,1,0,0,rectangle,-14,5.333312988,1,0,0,3,2,0.0032,0,-14,5.333312988,1,0,0,0,8,8,64,1,64,first,,,,,,,,,,,,,,,,,,,,,,,,,,,,,,,,,,,,,,,,,,,,,,,,,,,,,,,,,,,,,,,,,,,
,,,,,,6069f9a16164d8e1747bb021,62bbfbb8a10048a50e8850a2,2022-06-29_10h14.47.203,Colour_Asymmetry_Pilot,2022.1.3,Win32,59.35774915,62bbe60bf3d75ef465d3e404,,,,,,,,,,,,,,,,,,,,twofour,,-4,0.7668,,,,,,,,,,,,,,,,,,,,,,,,,,,,,,,,,,"[-0.8982,-0.37259999999999993,0.2784]","[0.4196,0.4665999999999999,0.3568]",-31.33331299,80,1,0,0,response7disk,-3.333312988,2.666656494,1,0,0,rectangle,-3.333312988,2.666656494,1,0,0,3,1,0.0028,0,-3.333312988,2.666656494,1,0,0,0,9,9,126,1,45,second,,,,,,,,,,,,,,,,,,,,,,,,,,,,,,,,,,,,,,,,,,,,,,,,,,,,,,,,,,,,,,,,,,,
,,,,,,6069f9a16164d8e1747bb021,62bbfbb8a10048a50e8850a2,2022-06-29_10h14.47.203,Colour_Asymmetry_Pilot,2022.1.3,Win32,59.35774915,62bbe60bf3d75ef465d3e404,,,,,,,,,,,,,,,,,,,,onetwo,,-3,1.2829,,,,,,,,,,,,,,,,,,,,,,,,,,,,,,,,,,"[0.9213999999999998,0.6391999999999998,-0.9922]","[-0.6235999999999999,-0.6786,-0.08239999999999992]",-84,36,1,0,0,response7disk,-12,-2.666687012,1,0,0,rectangle,-12,-2.666687012,1,0,0,3,3,0.0035,0,-12,-2.666687012,1,0,0,0,10,10,23,1,23,first,,,,,,,,,,,,,,,,,,,,,,,,,,,,,,,,,,,,,,,,,,,,,,,,,,,,,,,,,,,,,,,,,,,
,,,,,,6069f9a16164d8e1747bb021,62bbfbb8a10048a50e8850a2,2022-06-29_10h14.47.203,Colour_Asymmetry_Pilot,2022.1.3,Win32,59.35774915,62bbe60bf3d75ef465d3e404,,,,,,,,,,,,,,,,,,,,threefour,,-4,0.6663,,,,,,,,,,,,,,,,,,,,,,,,,,,,,,,,,,"[-0.4746,-0.0354000000000001,0.5449999999999999]","[1,0.12939999999999996,-1]",-29.33331299,90,1,0,0,response7disk,6,-10,1,0,0,rectangle,6,-10,1,0,0,3,1,0.0028,0,6,-10,1,0,0,0,11,11,109,1,28,second,,,,,,,,,,,,,,,,,,,,,,,,,,,,,,,,,,,,,,,,,,,,,,,,,,,,,,,,,,,,,,,,,,,
,,,,,,6069f9a16164d8e1747bb021,62bbfbb8a10048a50e8850a2,2022-06-29_10h14.47.203,Colour_Asymmetry_Pilot,2022.1.3,Win32,59.35774915,62bbe60bf3d75ef465d3e404,,,,,,,,,,,,,,,,,,,,threeone,,-3,0.8322,,,,,,,,,,,,,,,,,,,,,,,,,,,,,,,,,,"[-0.9138,-0.5296000000000001,-0.5529999999999999]","[0.8274000000000001,-0.5844,-0.9452]",-70,32.66665649,1,0,0,response7disk,6.666687012,-10.66668701,1,0,0,rectangle,6.666687012,-10.66668701,1,0,0,3,2,0.0031,0,6.666687012,-10.66668701,1,0,0,0,12,12,6,1,6,first,,,,,,,,,,,,,,,,,,,,,,,,,,,,,,,,,,,,,,,,,,,,,,,,,,,,,,,,,,,,,,,,,,,
,,,,,,6069f9a16164d8e1747bb021,62bbfbb8a10048a50e8850a2,2022-06-29_10h14.47.203,Colour_Asymmetry_Pilot,2022.1.3,Win32,59.35774915,62bbe60bf3d75ef465d3e404,,,,,,,,,,,,,,,,,,,,threefour,,2,1.1157,,,,,,,,,,,,,,,,,,,,,,,,,,,,,,,,,,"[-0.20799999999999996,-0.655,-0.01980000000000004]","[0.5449999999999999,-0.31000000000000005,-0.0354000000000001]",59.33337402,-33.33334351,1,0,0,response3disk,4.666687012,2,1,0,0,rectangle,4.666687012,2,1,0,0,3,1,0.0027,0,4.666687012,2,1,0,0,0,13,13,38,1,38,first,,,,,,,,,,,,,,,,,,,,,,,,,,,,,,,,,,,,,,,,,,,,,,,,,,,,,,,,,,,,,,,,,,,
,,,,,,6069f9a16164d8e1747bb021,62bbfbb8a10048a50e8850a2,2022-06-29_10h14.47.203,Colour_Asymmetry_Pilot,2022.1.3,Win32,59.35774915,62bbe60bf3d75ef465d3e404,,,,,,,,,,,,,,,,,,,,threefour,,-2,1.3338,,,,,,,,,,,,,,,,,,,,,,,,,,,,,,,,,,"[0.22340000000000004,-0.9296,-0.7884]","[0.11359999999999992,0.6312,0.5213999999999999]",-60,-41.33334351,1,0,0,response5disk,2.666687012,-4.666687012,1,0,0,rectangle,2.666687012,-4.666687012,1,0,0,3,2,0.0021,0,2.666687012,-4.666687012,1,0,0,0,14,14,158,1,77,second,,,,,,,,,,,,,,,,,,,,,,,,,,,,,,,,,,,,,,,,,,,,,,,,,,,,,,,,,,,,,,,,,,,
,,,,,,6069f9a16164d8e1747bb021,62bbfbb8a10048a50e8850a2,2022-06-29_10h14.47.203,Colour_Asymmetry_Pilot,2022.1.3,Win32,59.35774915,62bbe60bf3d75ef465d3e404,,,,,,,,,,,,,,,,,,,,twoone,,-3,1.0822,,,,,,,,,,,,,,,,,,,,,,,,,,,,,,,,,,"[-0.4276,0.0038000000000000256,-0.3256]","[-0.4668,-0.8746,-0.2942]",-70,40,1,0,0,response7disk,-2.666625977,-4.666687012,1,0,0,rectangle,-2.666625977,-4.666687012,1,0,0,3,3,0.0027,0,-2.666625977,-4.666687012,1,0,0,0,15,15,144,1,63,second,,,,,,,,,,,,,,,,,,,,,,,,,,,,,,,,,,,,,,,,,,,,,,,,,,,,,,,,,,,,,,,,,,,
,,,,,,6069f9a16164d8e1747bb021,62bbfbb8a10048a50e8850a2,2022-06-29_10h14.47.203,Colour_Asymmetry_Pilot,2022.1.3,Win32,59.35774915,62bbe60bf3d75ef465d3e404,,,,,,,,,,,,,,,,,,,,fourthree,,-3,0.8848,,,,,,,,,,,,,,,,,,,,,,,,,,,,,,,,,,"[-0.6235999999999999,-0.6786,-0.08239999999999992]","[0.9213999999999998,0.6391999999999998,-0.9922]",-84,50,1,0,0,response7disk,5.333374023,1.333312988,1,0,0,rectangle,49.33337402,-78,1,0,0,1,1,2.0469,1,-15.33331299,1.333312988,1,0,0,0,16,16,104,1,23,second,response3disk_3,rectangle,,,,,,,,,,,,,,,,,,,,,,,,,,,,,,,,,,,,,,,,,,,,,,,,,,,,,,,,,,,,,,,,,
,,,,,,6069f9a16164d8e1747bb021,62bbfbb8a10048a50e8850a2,2022-06-29_10h14.47.203,Colour_Asymmetry_Pilot,2022.1.3,Win32,59.35774915,62bbe60bf3d75ef465d3e404,,,,,,,,,,,,,,,,,,,,onethree,,-2,0.9239,,,,,,,,,,,,,,,,,,,,,,,,,,,,,,,,,,"[-0.011800000000000033,-0.906,-0.45100000000000007]","[-0.9138,-0.5296000000000001,-0.5529999999999999]",-63.33331299,-45.33334351,1,0,0,response5disk,15.33337402,-12,1,0,0,rectangle,15.33337402,-12,1,0,0,1,3,0.0025,0,15.33337402,-12,1,0,0,0,17,17,4,1,4,first,,,,,,,,,,,,,,,,,,,,,,,,,,,,,,,,,,,,,,,,,,,,,,,,,,,,,,,,,,,,,,,,,,,
