trials.thisRepN,trials.thisTrialN,trials.thisN,trials.thisIndex,trials.ran,Colourcodes,participant,session,date,expName,psychopyVersion,OS,frameRate,study_id,trials_4.thisRepN,trials_4.thisTrialN,trials_4.thisN,trials_4.thisIndex,trials_4.ran,StimulusPos,key_resp.keys,key_resp.rt,key_resp_2.keys,key_resp_2.rt,key_resp_15.keys,key_resp_15.rt,key_resp_17.keys,key_resp_17.rt,key_resp_9.keys,key_resp_9.rt,key_resp_10.keys,key_resp_10.rt,Circle1_col,Ecc,Circle2_col,similarity,response_time,mouse_5.x,mouse_5.y,mouse_5.leftButton,mouse_5.midButton,mouse_5.rightButton,mouse_5.clicked_name,mouse_10.x,mouse_10.y,mouse_10.leftButton,mouse_10.midButton,mouse_10.rightButton,mouse_10.clicked_name,mouse_7.x,mouse_7.y,mouse_7.leftButton,mouse_7.midButton,mouse_7.rightButton,mouse_7.clicked_name,catchprac,catchnumberprac,mouse_6.x,mouse_6.y,mouse_6.leftButton,mouse_6.midButton,mouse_6.rightButton,mouse_6.clicked_name,duringprac.thisRepN,duringprac.thisTrialN,duringprac.thisN,duringprac.thisIndex,duringprac.ran,key_resp_22.keys,key_resp_22.rt,Circle1_colour,Circle2_colour,mouse.x,mouse.y,mouse.leftButton,mouse.midButton,mouse.rightButton,mouse.clicked_name,mouse_2.x,mouse_2.y,mouse_2.leftButton,mouse_2.midButton,mouse_2.rightButton,mouse_2.clicked_name,mouse_3.x,mouse_3.y,mouse_3.leftButton,mouse_3.midButton,mouse_3.rightButton,mouse_3.clicked_name,catchresponse,catchnumber,response_time_catch,Catch,mouse_11.x,mouse_11.y,mouse_11.leftButton,mouse_11.midButton,mouse_11.rightButton,mouse_11.clicked_name,trials_2.thisRepN,trials_2.thisTrialN,trials_2.thisN,trials_2.thisIndex,trials_2.ran,Colourpair,Temporder,trials_3.thisRepN,trials_3.thisTrialN,trials_3.thisN,trials_3.thisIndex,trials_3.ran,key_resp_instr_Ishi.keys,key_resp_instr_Ishi.rt,Ishi_trial_keyresp.keys,Ishi_trial_keyresp.rt,Ishi_textbox.text,Ishi_loop.thisRepN,Ishi_loop.thisTrialN,Ishi_loop.thisN,Ishi_loop.thisIndex,Ishi_loop.ran,imageaddress,textbox.text,mouse_4.x,mouse_4.y,mouse_4.leftButton,mouse_4.midButton,mouse_4.rightButton,mouse_4.clicked_name,textbox_2.text,mouse_8.x,mouse_8.y,mouse_8.leftButton,mouse_8.midButton,mouse_8.rightButton,mouse_8.clicked_name,textbox_3.text,mouse_9.x,mouse_9.y,mouse_9.leftButton,mouse_9.midButton,mouse_9.rightButton,mouse_9.clicked_name,textbox_4.text,mouse_12.x,mouse_12.y,mouse_12.leftButton,mouse_12.midButton,mouse_12.rightButton,mouse_12.clicked_name,textbox_5.text,mouse_13.x,mouse_13.y,mouse_13.leftButton,mouse_13.midButton,mouse_13.rightButton,mouse_13.clicked_name,textbox_6.text,mouse_14.x,mouse_14.y,mouse_14.leftButton,mouse_14.midButton,mouse_14.rightButton,mouse_14.clicked_name,textbox_7.text,mouse_15.x,mouse_15.y,mouse_15.leftButton,mouse_15.midButton,mouse_15.rightButton,mouse_15.clicked_name
0,0,0,43,1,,6144742e57a61e489cc9e978,62bbfb0b48812590e721b555,2022-06-29_09h12.08.185,Colour_Asymmetry_Pilot,2022.1.3,Win32,59.44949765,62bbe60bf3d75ef465d3e404,,,,,,,,,,,,,,,,,,,,,,,,,,,,,,,,,,,,,,,,,,,,,,,,,,,,,,,,,,,,,,,,,,,,,,,,,,,,,,,,,,,,,,,,,,,,,,,,,,,,,,,,,,,,,,,,,,,,,,,,,,,,,,,,,,,,,,,,,,,,,,,,,,,,,,,,,,,,,,
0,1,1,72,1,,6144742e57a61e489cc9e978,62bbfb0b48812590e721b555,2022-06-29_09h12.08.185,Colour_Asymmetry_Pilot,2022.1.3,Win32,59.44949765,62bbe60bf3d75ef465d3e404,,,,,,,,,,,,,,,,,,,,,,,,,,,,,,,,,,,,,,,,,,,,,,,,,,,,,,,,,,,,,,,,,,,,,,,,,,,,,,,,,,,,,,,,,,,,,,,,,,,,,,,,,,,,,,,,,,,,,,,,,,,,,,,,,,,,,,,,,,,,,,,,,,,,,,,,,,,,,,
0,2,2,24,1,,6144742e57a61e489cc9e978,62bbfb0b48812590e721b555,2022-06-29_09h12.08.185,Colour_Asymmetry_Pilot,2022.1.3,Win32,59.44949765,62bbe60bf3d75ef465d3e404,,,,,,,,,,,,,,,,,,,,,,,,,,,,,,,,,,,,,,,,,,,,,,,,,,,,,,,,,,,,,,,,,,,,,,,,,,,,,,,,,,,,,,,,,,,,,,,,,,,,,,,,,,,,,,,,,,,,,,,,,,,,,,,,,,,,,,,,,,,,,,,,,,,,,,,,,,,,,,
0,3,3,4,1,,6144742e57a61e489cc9e978,62bbfb0b48812590e721b555,2022-06-29_09h12.08.185,Colour_Asymmetry_Pilot,2022.1.3,Win32,59.44949765,62bbe60bf3d75ef465d3e404,,,,,,,,,,,,,,,,,,,,,,,,,,,,,,,,,,,,,,,,,,,,,,,,,,,,,,,,,,,,,,,,,,,,,,,,,,,,,,,,,,,,,,,,,,,,,,,,,,,,,,,,,,,,,,,,,,,,,,,,,,,,,,,,,,,,,,,,,,,,,,,,,,,,,,,,,,,,,,
0,4,4,67,1,,6144742e57a61e489cc9e978,62bbfb0b48812590e721b555,2022-06-29_09h12.08.185,Colour_Asymmetry_Pilot,2022.1.3,Win32,59.44949765,62bbe60bf3d75ef465d3e404,,,,,,,,,,,,,,,,,,,,,,,,,,,,,,,,,,,,,,,,,,,,,,,,,,,,,,,,,,,,,,,,,,,,,,,,,,,,,,,,,,,,,,,,,,,,,,,,,,,,,,,,,,,,,,,,,,,,,,,,,,,,,,,,,,,,,,,,,,,,,,,,,,,,,,,,,,,,,,
0,5,5,20,1,,6144742e57a61e489cc9e978,62bbfb0b48812590e721b555,2022-06-29_09h12.08.185,Colour_Asymmetry_Pilot,2022.1.3,Win32,59.44949765,62bbe60bf3d75ef465d3e404,,,,,,,,,,,,,,,,,,,,,,,,,,,,,,,,,,,,,,,,,,,,,,,,,,,,,,,,,,,,,,,,,,,,,,,,,,,,,,,,,,,,,,,,,,,,,,,,,,,,,,,,,,,,,,,,,,,,,,,,,,,,,,,,,,,,,,,,,,,,,,,,,,,,,,,,,,,,,,
0,6,6,78,1,,6144742e57a61e489cc9e978,62bbfb0b48812590e721b555,2022-06-29_09h12.08.185,Colour_Asymmetry_Pilot,2022.1.3,Win32,59.44949765,62bbe60bf3d75ef465d3e404,,,,,,,,,,,,,,,,,,,,,,,,,,,,,,,,,,,,,,,,,,,,,,,,,,,,,,,,,,,,,,,,,,,,,,,,,,,,,,,,,,,,,,,,,,,,,,,,,,,,,,,,,,,,,,,,,,,,,,,,,,,,,,,,,,,,,,,,,,,,,,,,,,,,,,,,,,,,,,
0,7,7,5,1,,6144742e57a61e489cc9e978,62bbfb0b48812590e721b555,2022-06-29_09h12.08.185,Colour_Asymmetry_Pilot,2022.1.3,Win32,59.44949765,62bbe60bf3d75ef465d3e404,,,,,,,,,,,,,,,,,,,,,,,,,,,,,,,,,,,,,,,,,,,,,,,,,,,,,,,,,,,,,,,,,,,,,,,,,,,,,,,,,,,,,,,,,,,,,,,,,,,,,,,,,,,,,,,,,,,,,,,,,,,,,,,,,,,,,,,,,,,,,,,,,,,,,,,,,,,,,,
0,8,8,85,1,,6144742e57a61e489cc9e978,62bbfb0b48812590e721b555,2022-06-29_09h12.08.185,Colour_Asymmetry_Pilot,2022.1.3,Win32,59.44949765,62bbe60bf3d75ef465d3e404,,,,,,,,,,,,,,,,,,,,,,,,,,,,,,,,,,,,,,,,,,,,,,,,,,,,,,,,,,,,,,,,,,,,,,,,,,,,,,,,,,,,,,,,,,,,,,,,,,,,,,,,,,,,,,,,,,,,,,,,,,,,,,,,,,,,,,,,,,,,,,,,,,,,,,,,,,,,,,
0,9,9,45,1,,6144742e57a61e489cc9e978,62bbfb0b48812590e721b555,2022-06-29_09h12.08.185,Colour_Asymmetry_Pilot,2022.1.3,Win32,59.44949765,62bbe60bf3d75ef465d3e404,,,,,,,,,,,,,,,,,,,,,,,,,,,,,,,,,,,,,,,,,,,,,,,,,,,,,,,,,,,,,,,,,,,,,,,,,,,,,,,,,,,,,,,,,,,,,,,,,,,,,,,,,,,,,,,,,,,,,,,,,,,,,,,,,,,,,,,,,,,,,,,,,,,,,,,,,,,,,,
0,10,10,33,1,,6144742e57a61e489cc9e978,62bbfb0b48812590e721b555,2022-06-29_09h12.08.185,Colour_Asymmetry_Pilot,2022.1.3,Win32,59.44949765,62bbe60bf3d75ef465d3e404,,,,,,,,,,,,,,,,,,,,,,,,,,,,,,,,,,,,,,,,,,,,,,,,,,,,,,,,,,,,,,,,,,,,,,,,,,,,,,,,,,,,,,,,,,,,,,,,,,,,,,,,,,,,,,,,,,,,,,,,,,,,,,,,,,,,,,,,,,,,,,,,,,,,,,,,,,,,,,
0,11,11,27,1,,6144742e57a61e489cc9e978,62bbfb0b48812590e721b555,2022-06-29_09h12.08.185,Colour_Asymmetry_Pilot,2022.1.3,Win32,59.44949765,62bbe60bf3d75ef465d3e404,,,,,,,,,,,,,,,,,,,,,,,,,,,,,,,,,,,,,,,,,,,,,,,,,,,,,,,,,,,,,,,,,,,,,,,,,,,,,,,,,,,,,,,,,,,,,,,,,,,,,,,,,,,,,,,,,,,,,,,,,,,,,,,,,,,,,,,,,,,,,,,,,,,,,,,,,,,,,,
0,12,12,19,1,,6144742e57a61e489cc9e978,62bbfb0b48812590e721b555,2022-06-29_09h12.08.185,Colour_Asymmetry_Pilot,2022.1.3,Win32,59.44949765,62bbe60bf3d75ef465d3e404,,,,,,,,,,,,,,,,,,,,,,,,,,,,,,,,,,,,,,,,,,,,,,,,,,,,,,,,,,,,,,,,,,,,,,,,,,,,,,,,,,,,,,,,,,,,,,,,,,,,,,,,,,,,,,,,,,,,,,,,,,,,,,,,,,,,,,,,,,,,,,,,,,,,,,,,,,,,,,
0,13,13,36,1,,6144742e57a61e489cc9e978,62bbfb0b48812590e721b555,2022-06-29_09h12.08.185,Colour_Asymmetry_Pilot,2022.1.3,Win32,59.44949765,62bbe60bf3d75ef465d3e404,,,,,,,,,,,,,,,,,,,,,,,,,,,,,,,,,,,,,,,,,,,,,,,,,,,,,,,,,,,,,,,,,,,,,,,,,,,,,,,,,,,,,,,,,,,,,,,,,,,,,,,,,,,,,,,,,,,,,,,,,,,,,,,,,,,,,,,,,,,,,,,,,,,,,,,,,,,,,,
0,14,14,31,1,,6144742e57a61e489cc9e978,62bbfb0b48812590e721b555,2022-06-29_09h12.08.185,Colour_Asymmetry_Pilot,2022.1.3,Win32,59.44949765,62bbe60bf3d75ef465d3e404,,,,,,,,,,,,,,,,,,,,,,,,,,,,,,,,,,,,,,,,,,,,,,,,,,,,,,,,,,,,,,,,,,,,,,,,,,,,,,,,,,,,,,,,,,,,,,,,,,,,,,,,,,,,,,,,,,,,,,,,,,,,,,,,,,,,,,,,,,,,,,,,,,,,,,,,,,,,,,
0,15,15,81,1,,6144742e57a61e489cc9e978,62bbfb0b48812590e721b555,2022-06-29_09h12.08.185,Colour_Asymmetry_Pilot,2022.1.3,Win32,59.44949765,62bbe60bf3d75ef465d3e404,,,,,,,,,,,,,,,,,,,,,,,,,,,,,,,,,,,,,,,,,,,,,,,,,,,,,,,,,,,,,,,,,,,,,,,,,,,,,,,,,,,,,,,,,,,,,,,,,,,,,,,,,,,,,,,,,,,,,,,,,,,,,,,,,,,,,,,,,,,,,,,,,,,,,,,,,,,,,,
0,16,16,79,1,,6144742e57a61e489cc9e978,62bbfb0b48812590e721b555,2022-06-29_09h12.08.185,Colour_Asymmetry_Pilot,2022.1.3,Win32,59.44949765,62bbe60bf3d75ef465d3e404,,,,,,,,,,,,,,,,,,,,,,,,,,,,,,,,,,,,,,,,,,,,,,,,,,,,,,,,,,,,,,,,,,,,,,,,,,,,,,,,,,,,,,,,,,,,,,,,,,,,,,,,,,,,,,,,,,,,,,,,,,,,,,,,,,,,,,,,,,,,,,,,,,,,,,,,,,,,,,
0,17,17,28,1,,6144742e57a61e489cc9e978,62bbfb0b48812590e721b555,2022-06-29_09h12.08.185,Colour_Asymmetry_Pilot,2022.1.3,Win32,59.44949765,62bbe60bf3d75ef465d3e404,,,,,,,,,,,,,,,,,,,,,,,,,,,,,,,,,,,,,,,,,,,,,,,,,,,,,,,,,,,,,,,,,,,,,,,,,,,,,,,,,,,,,,,,,,,,,,,,,,,,,,,,,,,,,,,,,,,,,,,,,,,,,,,,,,,,,,,,,,,,,,,,,,,,,,,,,,,,,,
0,18,18,34,1,,6144742e57a61e489cc9e978,62bbfb0b48812590e721b555,2022-06-29_09h12.08.185,Colour_Asymmetry_Pilot,2022.1.3,Win32,59.44949765,62bbe60bf3d75ef465d3e404,,,,,,,,,,,,,,,,,,,,,,,,,,,,,,,,,,,,,,,,,,,,,,,,,,,,,,,,,,,,,,,,,,,,,,,,,,,,,,,,,,,,,,,,,,,,,,,,,,,,,,,,,,,,,,,,,,,,,,,,,,,,,,,,,,,,,,,,,,,,,,,,,,,,,,,,,,,,,,
0,19,19,90,1,,6144742e57a61e489cc9e978,62bbfb0b48812590e721b555,2022-06-29_09h12.08.185,Colour_Asymmetry_Pilot,2022.1.3,Win32,59.44949765,62bbe60bf3d75ef465d3e404,,,,,,,,,,,,,,,,,,,,,,,,,,,,,,,,,,,,,,,,,,,,,,,,,,,,,,,,,,,,,,,,,,,,,,,,,,,,,,,,,,,,,,,,,,,,,,,,,,,,,,,,,,,,,,,,,,,,,,,,,,,,,,,,,,,,,,,,,,,,,,,,,,,,,,,,,,,,,,
0,20,20,63,1,,6144742e57a61e489cc9e978,62bbfb0b48812590e721b555,2022-06-29_09h12.08.185,Colour_Asymmetry_Pilot,2022.1.3,Win32,59.44949765,62bbe60bf3d75ef465d3e404,,,,,,,,,,,,,,,,,,,,,,,,,,,,,,,,,,,,,,,,,,,,,,,,,,,,,,,,,,,,,,,,,,,,,,,,,,,,,,,,,,,,,,,,,,,,,,,,,,,,,,,,,,,,,,,,,,,,,,,,,,,,,,,,,,,,,,,,,,,,,,,,,,,,,,,,,,,,,,
0,21,21,6,1,,6144742e57a61e489cc9e978,62bbfb0b48812590e721b555,2022-06-29_09h12.08.185,Colour_Asymmetry_Pilot,2022.1.3,Win32,59.44949765,62bbe60bf3d75ef465d3e404,,,,,,,,,,,,,,,,,,,,,,,,,,,,,,,,,,,,,,,,,,,,,,,,,,,,,,,,,,,,,,,,,,,,,,,,,,,,,,,,,,,,,,,,,,,,,,,,,,,,,,,,,,,,,,,,,,,,,,,,,,,,,,,,,,,,,,,,,,,,,,,,,,,,,,,,,,,,,,
0,22,22,42,1,,6144742e57a61e489cc9e978,62bbfb0b48812590e721b555,2022-06-29_09h12.08.185,Colour_Asymmetry_Pilot,2022.1.3,Win32,59.44949765,62bbe60bf3d75ef465d3e404,,,,,,,,,,,,,,,,,,,,,,,,,,,,,,,,,,,,,,,,,,,,,,,,,,,,,,,,,,,,,,,,,,,,,,,,,,,,,,,,,,,,,,,,,,,,,,,,,,,,,,,,,,,,,,,,,,,,,,,,,,,,,,,,,,,,,,,,,,,,,,,,,,,,,,,,,,,,,,
0,23,23,87,1,,6144742e57a61e489cc9e978,62bbfb0b48812590e721b555,2022-06-29_09h12.08.185,Colour_Asymmetry_Pilot,2022.1.3,Win32,59.44949765,62bbe60bf3d75ef465d3e404,,,,,,,,,,,,,,,,,,,,,,,,,,,,,,,,,,,,,,,,,,,,,,,,,,,,,,,,,,,,,,,,,,,,,,,,,,,,,,,,,,,,,,,,,,,,,,,,,,,,,,,,,,,,,,,,,,,,,,,,,,,,,,,,,,,,,,,,,,,,,,,,,,,,,,,,,,,,,,
0,24,24,9,1,,6144742e57a61e489cc9e978,62bbfb0b48812590e721b555,2022-06-29_09h12.08.185,Colour_Asymmetry_Pilot,2022.1.3,Win32,59.44949765,62bbe60bf3d75ef465d3e404,,,,,,,,,,,,,,,,,,,,,,,,,,,,,,,,,,,,,,,,,,,,,,,,,,,,,,,,,,,,,,,,,,,,,,,,,,,,,,,,,,,,,,,,,,,,,,,,,,,,,,,,,,,,,,,,,,,,,,,,,,,,,,,,,,,,,,,,,,,,,,,,,,,,,,,,,,,,,,
0,25,25,25,1,,6144742e57a61e489cc9e978,62bbfb0b48812590e721b555,2022-06-29_09h12.08.185,Colour_Asymmetry_Pilot,2022.1.3,Win32,59.44949765,62bbe60bf3d75ef465d3e404,,,,,,,,,,,,,,,,,,,,,,,,,,,,,,,,,,,,,,,,,,,,,,,,,,,,,,,,,,,,,,,,,,,,,,,,,,,,,,,,,,,,,,,,,,,,,,,,,,,,,,,,,,,,,,,,,,,,,,,,,,,,,,,,,,,,,,,,,,,,,,,,,,,,,,,,,,,,,,
0,26,26,51,1,,6144742e57a61e489cc9e978,62bbfb0b48812590e721b555,2022-06-29_09h12.08.185,Colour_Asymmetry_Pilot,2022.1.3,Win32,59.44949765,62bbe60bf3d75ef465d3e404,,,,,,,,,,,,,,,,,,,,,,,,,,,,,,,,,,,,,,,,,,,,,,,,,,,,,,,,,,,,,,,,,,,,,,,,,,,,,,,,,,,,,,,,,,,,,,,,,,,,,,,,,,,,,,,,,,,,,,,,,,,,,,,,,,,,,,,,,,,,,,,,,,,,,,,,,,,,,,
0,27,27,77,1,,6144742e57a61e489cc9e978,62bbfb0b48812590e721b555,2022-06-29_09h12.08.185,Colour_Asymmetry_Pilot,2022.1.3,Win32,59.44949765,62bbe60bf3d75ef465d3e404,,,,,,,,,,,,,,,,,,,,,,,,,,,,,,,,,,,,,,,,,,,,,,,,,,,,,,,,,,,,,,,,,,,,,,,,,,,,,,,,,,,,,,,,,,,,,,,,,,,,,,,,,,,,,,,,,,,,,,,,,,,,,,,,,,,,,,,,,,,,,,,,,,,,,,,,,,,,,,
0,28,28,83,1,,6144742e57a61e489cc9e978,62bbfb0b48812590e721b555,2022-06-29_09h12.08.185,Colour_Asymmetry_Pilot,2022.1.3,Win32,59.44949765,62bbe60bf3d75ef465d3e404,,,,,,,,,,,,,,,,,,,,,,,,,,,,,,,,,,,,,,,,,,,,,,,,,,,,,,,,,,,,,,,,,,,,,,,,,,,,,,,,,,,,,,,,,,,,,,,,,,,,,,,,,,,,,,,,,,,,,,,,,,,,,,,,,,,,,,,,,,,,,,,,,,,,,,,,,,,,,,
0,29,29,60,1,,6144742e57a61e489cc9e978,62bbfb0b48812590e721b555,2022-06-29_09h12.08.185,Colour_Asymmetry_Pilot,2022.1.3,Win32,59.44949765,62bbe60bf3d75ef465d3e404,,,,,,,,,,,,,,,,,,,,,,,,,,,,,,,,,,,,,,,,,,,,,,,,,,,,,,,,,,,,,,,,,,,,,,,,,,,,,,,,,,,,,,,,,,,,,,,,,,,,,,,,,,,,,,,,,,,,,,,,,,,,,,,,,,,,,,,,,,,,,,,,,,,,,,,,,,,,,,
0,30,30,0,1,,6144742e57a61e489cc9e978,62bbfb0b48812590e721b555,2022-06-29_09h12.08.185,Colour_Asymmetry_Pilot,2022.1.3,Win32,59.44949765,62bbe60bf3d75ef465d3e404,,,,,,,,,,,,,,,,,,,,,,,,,,,,,,,,,,,,,,,,,,,,,,,,,,,,,,,,,,,,,,,,,,,,,,,,,,,,,,,,,,,,,,,,,,,,,,,,,,,,,,,,,,,,,,,,,,,,,,,,,,,,,,,,,,,,,,,,,,,,,,,,,,,,,,,,,,,,,,
0,31,31,30,1,,6144742e57a61e489cc9e978,62bbfb0b48812590e721b555,2022-06-29_09h12.08.185,Colour_Asymmetry_Pilot,2022.1.3,Win32,59.44949765,62bbe60bf3d75ef465d3e404,,,,,,,,,,,,,,,,,,,,,,,,,,,,,,,,,,,,,,,,,,,,,,,,,,,,,,,,,,,,,,,,,,,,,,,,,,,,,,,,,,,,,,,,,,,,,,,,,,,,,,,,,,,,,,,,,,,,,,,,,,,,,,,,,,,,,,,,,,,,,,,,,,,,,,,,,,,,,,
0,32,32,80,1,,6144742e57a61e489cc9e978,62bbfb0b48812590e721b555,2022-06-29_09h12.08.185,Colour_Asymmetry_Pilot,2022.1.3,Win32,59.44949765,62bbe60bf3d75ef465d3e404,,,,,,,,,,,,,,,,,,,,,,,,,,,,,,,,,,,,,,,,,,,,,,,,,,,,,,,,,,,,,,,,,,,,,,,,,,,,,,,,,,,,,,,,,,,,,,,,,,,,,,,,,,,,,,,,,,,,,,,,,,,,,,,,,,,,,,,,,,,,,,,,,,,,,,,,,,,,,,
0,33,33,13,1,,6144742e57a61e489cc9e978,62bbfb0b48812590e721b555,2022-06-29_09h12.08.185,Colour_Asymmetry_Pilot,2022.1.3,Win32,59.44949765,62bbe60bf3d75ef465d3e404,,,,,,,,,,,,,,,,,,,,,,,,,,,,,,,,,,,,,,,,,,,,,,,,,,,,,,,,,,,,,,,,,,,,,,,,,,,,,,,,,,,,,,,,,,,,,,,,,,,,,,,,,,,,,,,,,,,,,,,,,,,,,,,,,,,,,,,,,,,,,,,,,,,,,,,,,,,,,,
0,34,34,91,1,,6144742e57a61e489cc9e978,62bbfb0b48812590e721b555,2022-06-29_09h12.08.185,Colour_Asymmetry_Pilot,2022.1.3,Win32,59.44949765,62bbe60bf3d75ef465d3e404,,,,,,,,,,,,,,,,,,,,,,,,,,,,,,,,,,,,,,,,,,,,,,,,,,,,,,,,,,,,,,,,,,,,,,,,,,,,,,,,,,,,,,,,,,,,,,,,,,,,,,,,,,,,,,,,,,,,,,,,,,,,,,,,,,,,,,,,,,,,,,,,,,,,,,,,,,,,,,
0,35,35,86,1,,6144742e57a61e489cc9e978,62bbfb0b48812590e721b555,2022-06-29_09h12.08.185,Colour_Asymmetry_Pilot,2022.1.3,Win32,59.44949765,62bbe60bf3d75ef465d3e404,,,,,,,,,,,,,,,,,,,,,,,,,,,,,,,,,,,,,,,,,,,,,,,,,,,,,,,,,,,,,,,,,,,,,,,,,,,,,,,,,,,,,,,,,,,,,,,,,,,,,,,,,,,,,,,,,,,,,,,,,,,,,,,,,,,,,,,,,,,,,,,,,,,,,,,,,,,,,,
0,36,36,44,1,,6144742e57a61e489cc9e978,62bbfb0b48812590e721b555,2022-06-29_09h12.08.185,Colour_Asymmetry_Pilot,2022.1.3,Win32,59.44949765,62bbe60bf3d75ef465d3e404,,,,,,,,,,,,,,,,,,,,,,,,,,,,,,,,,,,,,,,,,,,,,,,,,,,,,,,,,,,,,,,,,,,,,,,,,,,,,,,,,,,,,,,,,,,,,,,,,,,,,,,,,,,,,,,,,,,,,,,,,,,,,,,,,,,,,,,,,,,,,,,,,,,,,,,,,,,,,,
0,37,37,70,1,,6144742e57a61e489cc9e978,62bbfb0b48812590e721b555,2022-06-29_09h12.08.185,Colour_Asymmetry_Pilot,2022.1.3,Win32,59.44949765,62bbe60bf3d75ef465d3e404,,,,,,,,,,,,,,,,,,,,,,,,,,,,,,,,,,,,,,,,,,,,,,,,,,,,,,,,,,,,,,,,,,,,,,,,,,,,,,,,,,,,,,,,,,,,,,,,,,,,,,,,,,,,,,,,,,,,,,,,,,,,,,,,,,,,,,,,,,,,,,,,,,,,,,,,,,,,,,
0,38,38,14,1,,6144742e57a61e489cc9e978,62bbfb0b48812590e721b555,2022-06-29_09h12.08.185,Colour_Asymmetry_Pilot,2022.1.3,Win32,59.44949765,62bbe60bf3d75ef465d3e404,,,,,,,,,,,,,,,,,,,,,,,,,,,,,,,,,,,,,,,,,,,,,,,,,,,,,,,,,,,,,,,,,,,,,,,,,,,,,,,,,,,,,,,,,,,,,,,,,,,,,,,,,,,,,,,,,,,,,,,,,,,,,,,,,,,,,,,,,,,,,,,,,,,,,,,,,,,,,,
0,39,39,66,1,,6144742e57a61e489cc9e978,62bbfb0b48812590e721b555,2022-06-29_09h12.08.185,Colour_Asymmetry_Pilot,2022.1.3,Win32,59.44949765,62bbe60bf3d75ef465d3e404,,,,,,,,,,,,,,,,,,,,,,,,,,,,,,,,,,,,,,,,,,,,,,,,,,,,,,,,,,,,,,,,,,,,,,,,,,,,,,,,,,,,,,,,,,,,,,,,,,,,,,,,,,,,,,,,,,,,,,,,,,,,,,,,,,,,,,,,,,,,,,,,,,,,,,,,,,,,,,
0,40,40,56,1,,6144742e57a61e489cc9e978,62bbfb0b48812590e721b555,2022-06-29_09h12.08.185,Colour_Asymmetry_Pilot,2022.1.3,Win32,59.44949765,62bbe60bf3d75ef465d3e404,,,,,,,,,,,,,,,,,,,,,,,,,,,,,,,,,,,,,,,,,,,,,,,,,,,,,,,,,,,,,,,,,,,,,,,,,,,,,,,,,,,,,,,,,,,,,,,,,,,,,,,,,,,,,,,,,,,,,,,,,,,,,,,,,,,,,,,,,,,,,,,,,,,,,,,,,,,,,,
0,41,41,41,1,,6144742e57a61e489cc9e978,62bbfb0b48812590e721b555,2022-06-29_09h12.08.185,Colour_Asymmetry_Pilot,2022.1.3,Win32,59.44949765,62bbe60bf3d75ef465d3e404,,,,,,,,,,,,,,,,,,,,,,,,,,,,,,,,,,,,,,,,,,,,,,,,,,,,,,,,,,,,,,,,,,,,,,,,,,,,,,,,,,,,,,,,,,,,,,,,,,,,,,,,,,,,,,,,,,,,,,,,,,,,,,,,,,,,,,,,,,,,,,,,,,,,,,,,,,,,,,
0,42,42,50,1,,6144742e57a61e489cc9e978,62bbfb0b48812590e721b555,2022-06-29_09h12.08.185,Colour_Asymmetry_Pilot,2022.1.3,Win32,59.44949765,62bbe60bf3d75ef465d3e404,,,,,,,,,,,,,,,,,,,,,,,,,,,,,,,,,,,,,,,,,,,,,,,,,,,,,,,,,,,,,,,,,,,,,,,,,,,,,,,,,,,,,,,,,,,,,,,,,,,,,,,,,,,,,,,,,,,,,,,,,,,,,,,,,,,,,,,,,,,,,,,,,,,,,,,,,,,,,,
0,43,43,3,1,,6144742e57a61e489cc9e978,62bbfb0b48812590e721b555,2022-06-29_09h12.08.185,Colour_Asymmetry_Pilot,2022.1.3,Win32,59.44949765,62bbe60bf3d75ef465d3e404,,,,,,,,,,,,,,,,,,,,,,,,,,,,,,,,,,,,,,,,,,,,,,,,,,,,,,,,,,,,,,,,,,,,,,,,,,,,,,,,,,,,,,,,,,,,,,,,,,,,,,,,,,,,,,,,,,,,,,,,,,,,,,,,,,,,,,,,,,,,,,,,,,,,,,,,,,,,,,
0,44,44,88,1,,6144742e57a61e489cc9e978,62bbfb0b48812590e721b555,2022-06-29_09h12.08.185,Colour_Asymmetry_Pilot,2022.1.3,Win32,59.44949765,62bbe60bf3d75ef465d3e404,,,,,,,,,,,,,,,,,,,,,,,,,,,,,,,,,,,,,,,,,,,,,,,,,,,,,,,,,,,,,,,,,,,,,,,,,,,,,,,,,,,,,,,,,,,,,,,,,,,,,,,,,,,,,,,,,,,,,,,,,,,,,,,,,,,,,,,,,,,,,,,,,,,,,,,,,,,,,,
0,45,45,1,1,,6144742e57a61e489cc9e978,62bbfb0b48812590e721b555,2022-06-29_09h12.08.185,Colour_Asymmetry_Pilot,2022.1.3,Win32,59.44949765,62bbe60bf3d75ef465d3e404,,,,,,,,,,,,,,,,,,,,,,,,,,,,,,,,,,,,,,,,,,,,,,,,,,,,,,,,,,,,,,,,,,,,,,,,,,,,,,,,,,,,,,,,,,,,,,,,,,,,,,,,,,,,,,,,,,,,,,,,,,,,,,,,,,,,,,,,,,,,,,,,,,,,,,,,,,,,,,
0,46,46,48,1,,6144742e57a61e489cc9e978,62bbfb0b48812590e721b555,2022-06-29_09h12.08.185,Colour_Asymmetry_Pilot,2022.1.3,Win32,59.44949765,62bbe60bf3d75ef465d3e404,,,,,,,,,,,,,,,,,,,,,,,,,,,,,,,,,,,,,,,,,,,,,,,,,,,,,,,,,,,,,,,,,,,,,,,,,,,,,,,,,,,,,,,,,,,,,,,,,,,,,,,,,,,,,,,,,,,,,,,,,,,,,,,,,,,,,,,,,,,,,,,,,,,,,,,,,,,,,,
0,47,47,59,1,,6144742e57a61e489cc9e978,62bbfb0b48812590e721b555,2022-06-29_09h12.08.185,Colour_Asymmetry_Pilot,2022.1.3,Win32,59.44949765,62bbe60bf3d75ef465d3e404,,,,,,,,,,,,,,,,,,,,,,,,,,,,,,,,,,,,,,,,,,,,,,,,,,,,,,,,,,,,,,,,,,,,,,,,,,,,,,,,,,,,,,,,,,,,,,,,,,,,,,,,,,,,,,,,,,,,,,,,,,,,,,,,,,,,,,,,,,,,,,,,,,,,,,,,,,,,,,
0,48,48,68,1,,6144742e57a61e489cc9e978,62bbfb0b48812590e721b555,2022-06-29_09h12.08.185,Colour_Asymmetry_Pilot,2022.1.3,Win32,59.44949765,62bbe60bf3d75ef465d3e404,,,,,,,,,,,,,,,,,,,,,,,,,,,,,,,,,,,,,,,,,,,,,,,,,,,,,,,,,,,,,,,,,,,,,,,,,,,,,,,,,,,,,,,,,,,,,,,,,,,,,,,,,,,,,,,,,,,,,,,,,,,,,,,,,,,,,,,,,,,,,,,,,,,,,,,,,,,,,,
0,49,49,74,1,,6144742e57a61e489cc9e978,62bbfb0b48812590e721b555,2022-06-29_09h12.08.185,Colour_Asymmetry_Pilot,2022.1.3,Win32,59.44949765,62bbe60bf3d75ef465d3e404,,,,,,,,,,,,,,,,,,,,,,,,,,,,,,,,,,,,,,,,,,,,,,,,,,,,,,,,,,,,,,,,,,,,,,,,,,,,,,,,,,,,,,,,,,,,,,,,,,,,,,,,,,,,,,,,,,,,,,,,,,,,,,,,,,,,,,,,,,,,,,,,,,,,,,,,,,,,,,
0,50,50,71,1,,6144742e57a61e489cc9e978,62bbfb0b48812590e721b555,2022-06-29_09h12.08.185,Colour_Asymmetry_Pilot,2022.1.3,Win32,59.44949765,62bbe60bf3d75ef465d3e404,,,,,,,,,,,,,,,,,,,,,,,,,,,,,,,,,,,,,,,,,,,,,,,,,,,,,,,,,,,,,,,,,,,,,,,,,,,,,,,,,,,,,,,,,,,,,,,,,,,,,,,,,,,,,,,,,,,,,,,,,,,,,,,,,,,,,,,,,,,,,,,,,,,,,,,,,,,,,,
0,51,51,75,1,,6144742e57a61e489cc9e978,62bbfb0b48812590e721b555,2022-06-29_09h12.08.185,Colour_Asymmetry_Pilot,2022.1.3,Win32,59.44949765,62bbe60bf3d75ef465d3e404,,,,,,,,,,,,,,,,,,,,,,,,,,,,,,,,,,,,,,,,,,,,,,,,,,,,,,,,,,,,,,,,,,,,,,,,,,,,,,,,,,,,,,,,,,,,,,,,,,,,,,,,,,,,,,,,,,,,,,,,,,,,,,,,,,,,,,,,,,,,,,,,,,,,,,,,,,,,,,
0,52,52,53,1,,6144742e57a61e489cc9e978,62bbfb0b48812590e721b555,2022-06-29_09h12.08.185,Colour_Asymmetry_Pilot,2022.1.3,Win32,59.44949765,62bbe60bf3d75ef465d3e404,,,,,,,,,,,,,,,,,,,,,,,,,,,,,,,,,,,,,,,,,,,,,,,,,,,,,,,,,,,,,,,,,,,,,,,,,,,,,,,,,,,,,,,,,,,,,,,,,,,,,,,,,,,,,,,,,,,,,,,,,,,,,,,,,,,,,,,,,,,,,,,,,,,,,,,,,,,,,,
0,53,53,54,1,,6144742e57a61e489cc9e978,62bbfb0b48812590e721b555,2022-06-29_09h12.08.185,Colour_Asymmetry_Pilot,2022.1.3,Win32,59.44949765,62bbe60bf3d75ef465d3e404,,,,,,,,,,,,,,,,,,,,,,,,,,,,,,,,,,,,,,,,,,,,,,,,,,,,,,,,,,,,,,,,,,,,,,,,,,,,,,,,,,,,,,,,,,,,,,,,,,,,,,,,,,,,,,,,,,,,,,,,,,,,,,,,,,,,,,,,,,,,,,,,,,,,,,,,,,,,,,
0,54,54,26,1,,6144742e57a61e489cc9e978,62bbfb0b48812590e721b555,2022-06-29_09h12.08.185,Colour_Asymmetry_Pilot,2022.1.3,Win32,59.44949765,62bbe60bf3d75ef465d3e404,,,,,,,,,,,,,,,,,,,,,,,,,,,,,,,,,,,,,,,,,,,,,,,,,,,,,,,,,,,,,,,,,,,,,,,,,,,,,,,,,,,,,,,,,,,,,,,,,,,,,,,,,,,,,,,,,,,,,,,,,,,,,,,,,,,,,,,,,,,,,,,,,,,,,,,,,,,,,,
0,55,55,76,1,,6144742e57a61e489cc9e978,62bbfb0b48812590e721b555,2022-06-29_09h12.08.185,Colour_Asymmetry_Pilot,2022.1.3,Win32,59.44949765,62bbe60bf3d75ef465d3e404,,,,,,,,,,,,,,,,,,,,,,,,,,,,,,,,,,,,,,,,,,,,,,,,,,,,,,,,,,,,,,,,,,,,,,,,,,,,,,,,,,,,,,,,,,,,,,,,,,,,,,,,,,,,,,,,,,,,,,,,,,,,,,,,,,,,,,,,,,,,,,,,,,,,,,,,,,,,,,
0,56,56,39,1,,6144742e57a61e489cc9e978,62bbfb0b48812590e721b555,2022-06-29_09h12.08.185,Colour_Asymmetry_Pilot,2022.1.3,Win32,59.44949765,62bbe60bf3d75ef465d3e404,,,,,,,,,,,,,,,,,,,,,,,,,,,,,,,,,,,,,,,,,,,,,,,,,,,,,,,,,,,,,,,,,,,,,,,,,,,,,,,,,,,,,,,,,,,,,,,,,,,,,,,,,,,,,,,,,,,,,,,,,,,,,,,,,,,,,,,,,,,,,,,,,,,,,,,,,,,,,,
0,57,57,2,1,,6144742e57a61e489cc9e978,62bbfb0b48812590e721b555,2022-06-29_09h12.08.185,Colour_Asymmetry_Pilot,2022.1.3,Win32,59.44949765,62bbe60bf3d75ef465d3e404,,,,,,,,,,,,,,,,,,,,,,,,,,,,,,,,,,,,,,,,,,,,,,,,,,,,,,,,,,,,,,,,,,,,,,,,,,,,,,,,,,,,,,,,,,,,,,,,,,,,,,,,,,,,,,,,,,,,,,,,,,,,,,,,,,,,,,,,,,,,,,,,,,,,,,,,,,,,,,
0,58,58,16,1,,6144742e57a61e489cc9e978,62bbfb0b48812590e721b555,2022-06-29_09h12.08.185,Colour_Asymmetry_Pilot,2022.1.3,Win32,59.44949765,62bbe60bf3d75ef465d3e404,,,,,,,,,,,,,,,,,,,,,,,,,,,,,,,,,,,,,,,,,,,,,,,,,,,,,,,,,,,,,,,,,,,,,,,,,,,,,,,,,,,,,,,,,,,,,,,,,,,,,,,,,,,,,,,,,,,,,,,,,,,,,,,,,,,,,,,,,,,,,,,,,,,,,,,,,,,,,,
0,59,59,29,1,,6144742e57a61e489cc9e978,62bbfb0b48812590e721b555,2022-06-29_09h12.08.185,Colour_Asymmetry_Pilot,2022.1.3,Win32,59.44949765,62bbe60bf3d75ef465d3e404,,,,,,,,,,,,,,,,,,,,,,,,,,,,,,,,,,,,,,,,,,,,,,,,,,,,,,,,,,,,,,,,,,,,,,,,,,,,,,,,,,,,,,,,,,,,,,,,,,,,,,,,,,,,,,,,,,,,,,,,,,,,,,,,,,,,,,,,,,,,,,,,,,,,,,,,,,,,,,
0,60,60,11,1,,6144742e57a61e489cc9e978,62bbfb0b48812590e721b555,2022-06-29_09h12.08.185,Colour_Asymmetry_Pilot,2022.1.3,Win32,59.44949765,62bbe60bf3d75ef465d3e404,,,,,,,,,,,,,,,,,,,,,,,,,,,,,,,,,,,,,,,,,,,,,,,,,,,,,,,,,,,,,,,,,,,,,,,,,,,,,,,,,,,,,,,,,,,,,,,,,,,,,,,,,,,,,,,,,,,,,,,,,,,,,,,,,,,,,,,,,,,,,,,,,,,,,,,,,,,,,,
0,61,61,84,1,,6144742e57a61e489cc9e978,62bbfb0b48812590e721b555,2022-06-29_09h12.08.185,Colour_Asymmetry_Pilot,2022.1.3,Win32,59.44949765,62bbe60bf3d75ef465d3e404,,,,,,,,,,,,,,,,,,,,,,,,,,,,,,,,,,,,,,,,,,,,,,,,,,,,,,,,,,,,,,,,,,,,,,,,,,,,,,,,,,,,,,,,,,,,,,,,,,,,,,,,,,,,,,,,,,,,,,,,,,,,,,,,,,,,,,,,,,,,,,,,,,,,,,,,,,,,,,
0,62,62,46,1,,6144742e57a61e489cc9e978,62bbfb0b48812590e721b555,2022-06-29_09h12.08.185,Colour_Asymmetry_Pilot,2022.1.3,Win32,59.44949765,62bbe60bf3d75ef465d3e404,,,,,,,,,,,,,,,,,,,,,,,,,,,,,,,,,,,,,,,,,,,,,,,,,,,,,,,,,,,,,,,,,,,,,,,,,,,,,,,,,,,,,,,,,,,,,,,,,,,,,,,,,,,,,,,,,,,,,,,,,,,,,,,,,,,,,,,,,,,,,,,,,,,,,,,,,,,,,,
0,63,63,17,1,,6144742e57a61e489cc9e978,62bbfb0b48812590e721b555,2022-06-29_09h12.08.185,Colour_Asymmetry_Pilot,2022.1.3,Win32,59.44949765,62bbe60bf3d75ef465d3e404,,,,,,,,,,,,,,,,,,,,,,,,,,,,,,,,,,,,,,,,,,,,,,,,,,,,,,,,,,,,,,,,,,,,,,,,,,,,,,,,,,,,,,,,,,,,,,,,,,,,,,,,,,,,,,,,,,,,,,,,,,,,,,,,,,,,,,,,,,,,,,,,,,,,,,,,,,,,,,
0,64,64,89,1,,6144742e57a61e489cc9e978,62bbfb0b48812590e721b555,2022-06-29_09h12.08.185,Colour_Asymmetry_Pilot,2022.1.3,Win32,59.44949765,62bbe60bf3d75ef465d3e404,,,,,,,,,,,,,,,,,,,,,,,,,,,,,,,,,,,,,,,,,,,,,,,,,,,,,,,,,,,,,,,,,,,,,,,,,,,,,,,,,,,,,,,,,,,,,,,,,,,,,,,,,,,,,,,,,,,,,,,,,,,,,,,,,,,,,,,,,,,,,,,,,,,,,,,,,,,,,,
0,65,65,22,1,,6144742e57a61e489cc9e978,62bbfb0b48812590e721b555,2022-06-29_09h12.08.185,Colour_Asymmetry_Pilot,2022.1.3,Win32,59.44949765,62bbe60bf3d75ef465d3e404,,,,,,,,,,,,,,,,,,,,,,,,,,,,,,,,,,,,,,,,,,,,,,,,,,,,,,,,,,,,,,,,,,,,,,,,,,,,,,,,,,,,,,,,,,,,,,,,,,,,,,,,,,,,,,,,,,,,,,,,,,,,,,,,,,,,,,,,,,,,,,,,,,,,,,,,,,,,,,
0,66,66,57,1,,6144742e57a61e489cc9e978,62bbfb0b48812590e721b555,2022-06-29_09h12.08.185,Colour_Asymmetry_Pilot,2022.1.3,Win32,59.44949765,62bbe60bf3d75ef465d3e404,,,,,,,,,,,,,,,,,,,,,,,,,,,,,,,,,,,,,,,,,,,,,,,,,,,,,,,,,,,,,,,,,,,,,,,,,,,,,,,,,,,,,,,,,,,,,,,,,,,,,,,,,,,,,,,,,,,,,,,,,,,,,,,,,,,,,,,,,,,,,,,,,,,,,,,,,,,,,,
0,67,67,21,1,,6144742e57a61e489cc9e978,62bbfb0b48812590e721b555,2022-06-29_09h12.08.185,Colour_Asymmetry_Pilot,2022.1.3,Win32,59.44949765,62bbe60bf3d75ef465d3e404,,,,,,,,,,,,,,,,,,,,,,,,,,,,,,,,,,,,,,,,,,,,,,,,,,,,,,,,,,,,,,,,,,,,,,,,,,,,,,,,,,,,,,,,,,,,,,,,,,,,,,,,,,,,,,,,,,,,,,,,,,,,,,,,,,,,,,,,,,,,,,,,,,,,,,,,,,,,,,
0,68,68,62,1,,6144742e57a61e489cc9e978,62bbfb0b48812590e721b555,2022-06-29_09h12.08.185,Colour_Asymmetry_Pilot,2022.1.3,Win32,59.44949765,62bbe60bf3d75ef465d3e404,,,,,,,,,,,,,,,,,,,,,,,,,,,,,,,,,,,,,,,,,,,,,,,,,,,,,,,,,,,,,,,,,,,,,,,,,,,,,,,,,,,,,,,,,,,,,,,,,,,,,,,,,,,,,,,,,,,,,,,,,,,,,,,,,,,,,,,,,,,,,,,,,,,,,,,,,,,,,,
0,69,69,8,1,,6144742e57a61e489cc9e978,62bbfb0b48812590e721b555,2022-06-29_09h12.08.185,Colour_Asymmetry_Pilot,2022.1.3,Win32,59.44949765,62bbe60bf3d75ef465d3e404,,,,,,,,,,,,,,,,,,,,,,,,,,,,,,,,,,,,,,,,,,,,,,,,,,,,,,,,,,,,,,,,,,,,,,,,,,,,,,,,,,,,,,,,,,,,,,,,,,,,,,,,,,,,,,,,,,,,,,,,,,,,,,,,,,,,,,,,,,,,,,,,,,,,,,,,,,,,,,
0,70,70,82,1,,6144742e57a61e489cc9e978,62bbfb0b48812590e721b555,2022-06-29_09h12.08.185,Colour_Asymmetry_Pilot,2022.1.3,Win32,59.44949765,62bbe60bf3d75ef465d3e404,,,,,,,,,,,,,,,,,,,,,,,,,,,,,,,,,,,,,,,,,,,,,,,,,,,,,,,,,,,,,,,,,,,,,,,,,,,,,,,,,,,,,,,,,,,,,,,,,,,,,,,,,,,,,,,,,,,,,,,,,,,,,,,,,,,,,,,,,,,,,,,,,,,,,,,,,,,,,,
0,71,71,69,1,,6144742e57a61e489cc9e978,62bbfb0b48812590e721b555,2022-06-29_09h12.08.185,Colour_Asymmetry_Pilot,2022.1.3,Win32,59.44949765,62bbe60bf3d75ef465d3e404,,,,,,,,,,,,,,,,,,,,,,,,,,,,,,,,,,,,,,,,,,,,,,,,,,,,,,,,,,,,,,,,,,,,,,,,,,,,,,,,,,,,,,,,,,,,,,,,,,,,,,,,,,,,,,,,,,,,,,,,,,,,,,,,,,,,,,,,,,,,,,,,,,,,,,,,,,,,,,
0,72,72,65,1,,6144742e57a61e489cc9e978,62bbfb0b48812590e721b555,2022-06-29_09h12.08.185,Colour_Asymmetry_Pilot,2022.1.3,Win32,59.44949765,62bbe60bf3d75ef465d3e404,,,,,,,,,,,,,,,,,,,,,,,,,,,,,,,,,,,,,,,,,,,,,,,,,,,,,,,,,,,,,,,,,,,,,,,,,,,,,,,,,,,,,,,,,,,,,,,,,,,,,,,,,,,,,,,,,,,,,,,,,,,,,,,,,,,,,,,,,,,,,,,,,,,,,,,,,,,,,,
0,73,73,35,1,,6144742e57a61e489cc9e978,62bbfb0b48812590e721b555,2022-06-29_09h12.08.185,Colour_Asymmetry_Pilot,2022.1.3,Win32,59.44949765,62bbe60bf3d75ef465d3e404,,,,,,,,,,,,,,,,,,,,,,,,,,,,,,,,,,,,,,,,,,,,,,,,,,,,,,,,,,,,,,,,,,,,,,,,,,,,,,,,,,,,,,,,,,,,,,,,,,,,,,,,,,,,,,,,,,,,,,,,,,,,,,,,,,,,,,,,,,,,,,,,,,,,,,,,,,,,,,
0,74,74,64,1,,6144742e57a61e489cc9e978,62bbfb0b48812590e721b555,2022-06-29_09h12.08.185,Colour_Asymmetry_Pilot,2022.1.3,Win32,59.44949765,62bbe60bf3d75ef465d3e404,,,,,,,,,,,,,,,,,,,,,,,,,,,,,,,,,,,,,,,,,,,,,,,,,,,,,,,,,,,,,,,,,,,,,,,,,,,,,,,,,,,,,,,,,,,,,,,,,,,,,,,,,,,,,,,,,,,,,,,,,,,,,,,,,,,,,,,,,,,,,,,,,,,,,,,,,,,,,,
0,75,75,38,1,,6144742e57a61e489cc9e978,62bbfb0b48812590e721b555,2022-06-29_09h12.08.185,Colour_Asymmetry_Pilot,2022.1.3,Win32,59.44949765,62bbe60bf3d75ef465d3e404,,,,,,,,,,,,,,,,,,,,,,,,,,,,,,,,,,,,,,,,,,,,,,,,,,,,,,,,,,,,,,,,,,,,,,,,,,,,,,,,,,,,,,,,,,,,,,,,,,,,,,,,,,,,,,,,,,,,,,,,,,,,,,,,,,,,,,,,,,,,,,,,,,,,,,,,,,,,,,
0,76,76,23,1,,6144742e57a61e489cc9e978,62bbfb0b48812590e721b555,2022-06-29_09h12.08.185,Colour_Asymmetry_Pilot,2022.1.3,Win32,59.44949765,62bbe60bf3d75ef465d3e404,,,,,,,,,,,,,,,,,,,,,,,,,,,,,,,,,,,,,,,,,,,,,,,,,,,,,,,,,,,,,,,,,,,,,,,,,,,,,,,,,,,,,,,,,,,,,,,,,,,,,,,,,,,,,,,,,,,,,,,,,,,,,,,,,,,,,,,,,,,,,,,,,,,,,,,,,,,,,,
0,77,77,15,1,,6144742e57a61e489cc9e978,62bbfb0b48812590e721b555,2022-06-29_09h12.08.185,Colour_Asymmetry_Pilot,2022.1.3,Win32,59.44949765,62bbe60bf3d75ef465d3e404,,,,,,,,,,,,,,,,,,,,,,,,,,,,,,,,,,,,,,,,,,,,,,,,,,,,,,,,,,,,,,,,,,,,,,,,,,,,,,,,,,,,,,,,,,,,,,,,,,,,,,,,,,,,,,,,,,,,,,,,,,,,,,,,,,,,,,,,,,,,,,,,,,,,,,,,,,,,,,
0,78,78,37,1,,6144742e57a61e489cc9e978,62bbfb0b48812590e721b555,2022-06-29_09h12.08.185,Colour_Asymmetry_Pilot,2022.1.3,Win32,59.44949765,62bbe60bf3d75ef465d3e404,,,,,,,,,,,,,,,,,,,,,,,,,,,,,,,,,,,,,,,,,,,,,,,,,,,,,,,,,,,,,,,,,,,,,,,,,,,,,,,,,,,,,,,,,,,,,,,,,,,,,,,,,,,,,,,,,,,,,,,,,,,,,,,,,,,,,,,,,,,,,,,,,,,,,,,,,,,,,,
0,79,79,73,1,,6144742e57a61e489cc9e978,62bbfb0b48812590e721b555,2022-06-29_09h12.08.185,Colour_Asymmetry_Pilot,2022.1.3,Win32,59.44949765,62bbe60bf3d75ef465d3e404,,,,,,,,,,,,,,,,,,,,,,,,,,,,,,,,,,,,,,,,,,,,,,,,,,,,,,,,,,,,,,,,,,,,,,,,,,,,,,,,,,,,,,,,,,,,,,,,,,,,,,,,,,,,,,,,,,,,,,,,,,,,,,,,,,,,,,,,,,,,,,,,,,,,,,,,,,,,,,
0,80,80,47,1,,6144742e57a61e489cc9e978,62bbfb0b48812590e721b555,2022-06-29_09h12.08.185,Colour_Asymmetry_Pilot,2022.1.3,Win32,59.44949765,62bbe60bf3d75ef465d3e404,,,,,,,,,,,,,,,,,,,,,,,,,,,,,,,,,,,,,,,,,,,,,,,,,,,,,,,,,,,,,,,,,,,,,,,,,,,,,,,,,,,,,,,,,,,,,,,,,,,,,,,,,,,,,,,,,,,,,,,,,,,,,,,,,,,,,,,,,,,,,,,,,,,,,,,,,,,,,,
0,81,81,55,1,,6144742e57a61e489cc9e978,62bbfb0b48812590e721b555,2022-06-29_09h12.08.185,Colour_Asymmetry_Pilot,2022.1.3,Win32,59.44949765,62bbe60bf3d75ef465d3e404,,,,,,,,,,,,,,,,,,,,,,,,,,,,,,,,,,,,,,,,,,,,,,,,,,,,,,,,,,,,,,,,,,,,,,,,,,,,,,,,,,,,,,,,,,,,,,,,,,,,,,,,,,,,,,,,,,,,,,,,,,,,,,,,,,,,,,,,,,,,,,,,,,,,,,,,,,,,,,
0,82,82,58,1,,6144742e57a61e489cc9e978,62bbfb0b48812590e721b555,2022-06-29_09h12.08.185,Colour_Asymmetry_Pilot,2022.1.3,Win32,59.44949765,62bbe60bf3d75ef465d3e404,,,,,,,,,,,,,,,,,,,,,,,,,,,,,,,,,,,,,,,,,,,,,,,,,,,,,,,,,,,,,,,,,,,,,,,,,,,,,,,,,,,,,,,,,,,,,,,,,,,,,,,,,,,,,,,,,,,,,,,,,,,,,,,,,,,,,,,,,,,,,,,,,,,,,,,,,,,,,,
0,83,83,61,1,,6144742e57a61e489cc9e978,62bbfb0b48812590e721b555,2022-06-29_09h12.08.185,Colour_Asymmetry_Pilot,2022.1.3,Win32,59.44949765,62bbe60bf3d75ef465d3e404,,,,,,,,,,,,,,,,,,,,,,,,,,,,,,,,,,,,,,,,,,,,,,,,,,,,,,,,,,,,,,,,,,,,,,,,,,,,,,,,,,,,,,,,,,,,,,,,,,,,,,,,,,,,,,,,,,,,,,,,,,,,,,,,,,,,,,,,,,,,,,,,,,,,,,,,,,,,,,
0,84,84,52,1,,6144742e57a61e489cc9e978,62bbfb0b48812590e721b555,2022-06-29_09h12.08.185,Colour_Asymmetry_Pilot,2022.1.3,Win32,59.44949765,62bbe60bf3d75ef465d3e404,,,,,,,,,,,,,,,,,,,,,,,,,,,,,,,,,,,,,,,,,,,,,,,,,,,,,,,,,,,,,,,,,,,,,,,,,,,,,,,,,,,,,,,,,,,,,,,,,,,,,,,,,,,,,,,,,,,,,,,,,,,,,,,,,,,,,,,,,,,,,,,,,,,,,,,,,,,,,,
0,85,85,40,1,,6144742e57a61e489cc9e978,62bbfb0b48812590e721b555,2022-06-29_09h12.08.185,Colour_Asymmetry_Pilot,2022.1.3,Win32,59.44949765,62bbe60bf3d75ef465d3e404,,,,,,,,,,,,,,,,,,,,,,,,,,,,,,,,,,,,,,,,,,,,,,,,,,,,,,,,,,,,,,,,,,,,,,,,,,,,,,,,,,,,,,,,,,,,,,,,,,,,,,,,,,,,,,,,,,,,,,,,,,,,,,,,,,,,,,,,,,,,,,,,,,,,,,,,,,,,,,
0,86,86,32,1,,6144742e57a61e489cc9e978,62bbfb0b48812590e721b555,2022-06-29_09h12.08.185,Colour_Asymmetry_Pilot,2022.1.3,Win32,59.44949765,62bbe60bf3d75ef465d3e404,,,,,,,,,,,,,,,,,,,,,,,,,,,,,,,,,,,,,,,,,,,,,,,,,,,,,,,,,,,,,,,,,,,,,,,,,,,,,,,,,,,,,,,,,,,,,,,,,,,,,,,,,,,,,,,,,,,,,,,,,,,,,,,,,,,,,,,,,,,,,,,,,,,,,,,,,,,,,,
0,87,87,92,1,,6144742e57a61e489cc9e978,62bbfb0b48812590e721b555,2022-06-29_09h12.08.185,Colour_Asymmetry_Pilot,2022.1.3,Win32,59.44949765,62bbe60bf3d75ef465d3e404,,,,,,,,,,,,,,,,,,,,,,,,,,,,,,,,,,,,,,,,,,,,,,,,,,,,,,,,,,,,,,,,,,,,,,,,,,,,,,,,,,,,,,,,,,,,,,,,,,,,,,,,,,,,,,,,,,,,,,,,,,,,,,,,,,,,,,,,,,,,,,,,,,,,,,,,,,,,,,
0,88,88,7,1,,6144742e57a61e489cc9e978,62bbfb0b48812590e721b555,2022-06-29_09h12.08.185,Colour_Asymmetry_Pilot,2022.1.3,Win32,59.44949765,62bbe60bf3d75ef465d3e404,,,,,,,,,,,,,,,,,,,,,,,,,,,,,,,,,,,,,,,,,,,,,,,,,,,,,,,,,,,,,,,,,,,,,,,,,,,,,,,,,,,,,,,,,,,,,,,,,,,,,,,,,,,,,,,,,,,,,,,,,,,,,,,,,,,,,,,,,,,,,,,,,,,,,,,,,,,,,,
0,89,89,18,1,,6144742e57a61e489cc9e978,62bbfb0b48812590e721b555,2022-06-29_09h12.08.185,Colour_Asymmetry_Pilot,2022.1.3,Win32,59.44949765,62bbe60bf3d75ef465d3e404,,,,,,,,,,,,,,,,,,,,,,,,,,,,,,,,,,,,,,,,,,,,,,,,,,,,,,,,,,,,,,,,,,,,,,,,,,,,,,,,,,,,,,,,,,,,,,,,,,,,,,,,,,,,,,,,,,,,,,,,,,,,,,,,,,,,,,,,,,,,,,,,,,,,,,,,,,,,,,
0,90,90,49,1,,6144742e57a61e489cc9e978,62bbfb0b48812590e721b555,2022-06-29_09h12.08.185,Colour_Asymmetry_Pilot,2022.1.3,Win32,59.44949765,62bbe60bf3d75ef465d3e404,,,,,,,,,,,,,,,,,,,,,,,,,,,,,,,,,,,,,,,,,,,,,,,,,,,,,,,,,,,,,,,,,,,,,,,,,,,,,,,,,,,,,,,,,,,,,,,,,,,,,,,,,,,,,,,,,,,,,,,,,,,,,,,,,,,,,,,,,,,,,,,,,,,,,,,,,,,,,,
0,91,91,12,1,,6144742e57a61e489cc9e978,62bbfb0b48812590e721b555,2022-06-29_09h12.08.185,Colour_Asymmetry_Pilot,2022.1.3,Win32,59.44949765,62bbe60bf3d75ef465d3e404,,,,,,,,,,,,,,,,,,,,,,,,,,,,,,,,,,,,,,,,,,,,,,,,,,,,,,,,,,,,,,,,,,,,,,,,,,,,,,,,,,,,,,,,,,,,,,,,,,,,,,,,,,,,,,,,,,,,,,,,,,,,,,,,,,,,,,,,,,,,,,,,,,,,,,,,,,,,,,
0,92,92,10,1,,6144742e57a61e489cc9e978,62bbfb0b48812590e721b555,2022-06-29_09h12.08.185,Colour_Asymmetry_Pilot,2022.1.3,Win32,59.44949765,62bbe60bf3d75ef465d3e404,,,,,,,,,,,,,,,,,,,,,,,,,,,,,,,,,,,,,,,,,,,,,,,,,,,,,,,,,,,,,,,,,,,,,,,,,,,,,,,,,,,,,,,,,,,,,,,,,,,,,,,,,,,,,,,,,,,,,,,,,,,,,,,,,,,,,,,,,,,,,,,,,,,,,,,,,,,,,,
,,,,,,6144742e57a61e489cc9e978,62bbfb0b48812590e721b555,2022-06-29_09h12.08.185,Colour_Asymmetry_Pilot,2022.1.3,Win32,59.44949765,62bbe60bf3d75ef465d3e404,0,0,0,40,1,onetwo,,,,,,,,,,,,,,,,,,,,,,,,,,,,,,,,,,,,,,,,,,,,,,,,,,,,,,,,,,,,,,,,,,,,,,,,,,,,,,,,,,,,,,,,,,,,,,,,,,,,,,,,,,,,,,,,,,,,,,,,,,,,,,,,,,,,,,,,,,,,,,,,,,,,,,,,
,,,,,,6144742e57a61e489cc9e978,62bbfb0b48812590e721b555,2022-06-29_09h12.08.185,Colour_Asymmetry_Pilot,2022.1.3,Win32,59.44949765,62bbe60bf3d75ef465d3e404,0,1,1,100,1,threeone,,,,,,,,,,,,,,,,,,,,,,,,,,,,,,,,,,,,,,,,,,,,,,,,,,,,,,,,,,,,,,,,,,,,,,,,,,,,,,,,,,,,,,,,,,,,,,,,,,,,,,,,,,,,,,,,,,,,,,,,,,,,,,,,,,,,,,,,,,,,,,,,,,,,,,,,
,,,,,,6144742e57a61e489cc9e978,62bbfb0b48812590e721b555,2022-06-29_09h12.08.185,Colour_Asymmetry_Pilot,2022.1.3,Win32,59.44949765,62bbe60bf3d75ef465d3e404,0,2,2,62,1,fourtwo,,,,,,,,,,,,,,,,,,,,,,,,,,,,,,,,,,,,,,,,,,,,,,,,,,,,,,,,,,,,,,,,,,,,,,,,,,,,,,,,,,,,,,,,,,,,,,,,,,,,,,,,,,,,,,,,,,,,,,,,,,,,,,,,,,,,,,,,,,,,,,,,,,,,,,,,
,,,,,,6144742e57a61e489cc9e978,62bbfb0b48812590e721b555,2022-06-29_09h12.08.185,Colour_Asymmetry_Pilot,2022.1.3,Win32,59.44949765,62bbe60bf3d75ef465d3e404,0,3,3,115,1,twofour,,,,,,,,,,,,,,,,,,,,,,,,,,,,,,,,,,,,,,,,,,,,,,,,,,,,,,,,,,,,,,,,,,,,,,,,,,,,,,,,,,,,,,,,,,,,,,,,,,,,,,,,,,,,,,,,,,,,,,,,,,,,,,,,,,,,,,,,,,,,,,,,,,,,,,,,
,,,,,,6144742e57a61e489cc9e978,62bbfb0b48812590e721b555,2022-06-29_09h12.08.185,Colour_Asymmetry_Pilot,2022.1.3,Win32,59.44949765,62bbe60bf3d75ef465d3e404,0,4,4,53,1,threefour,,,,,,,,,,,,,,,,,,,,,,,,,,,,,,,,,,,,,,,,,,,,,,,,,,,,,,,,,,,,,,,,,,,,,,,,,,,,,,,,,,,,,,,,,,,,,,,,,,,,,,,,,,,,,,,,,,,,,,,,,,,,,,,,,,,,,,,,,,,,,,,,,,,,,,,,
,,,,,,6144742e57a61e489cc9e978,62bbfb0b48812590e721b555,2022-06-29_09h12.08.185,Colour_Asymmetry_Pilot,2022.1.3,Win32,59.44949765,62bbe60bf3d75ef465d3e404,0,5,5,91,1,twofour,,,,,,,,,,,,,,,,,,,,,,,,,,,,,,,,,,,,,,,,,,,,,,,,,,,,,,,,,,,,,,,,,,,,,,,,,,,,,,,,,,,,,,,,,,,,,,,,,,,,,,,,,,,,,,,,,,,,,,,,,,,,,,,,,,,,,,,,,,,,,,,,,,,,,,,,
,,,,,,6144742e57a61e489cc9e978,62bbfb0b48812590e721b555,2022-06-29_09h12.08.185,Colour_Asymmetry_Pilot,2022.1.3,Win32,59.44949765,62bbe60bf3d75ef465d3e404,0,6,6,82,1,twoone,,,,,,,,,,,,,,,,,,,,,,,,,,,,,,,,,,,,,,,,,,,,,,,,,,,,,,,,,,,,,,,,,,,,,,,,,,,,,,,,,,,,,,,,,,,,,,,,,,,,,,,,,,,,,,,,,,,,,,,,,,,,,,,,,,,,,,,,,,,,,,,,,,,,,,,,
,,,,,,6144742e57a61e489cc9e978,62bbfb0b48812590e721b555,2022-06-29_09h12.08.185,Colour_Asymmetry_Pilot,2022.1.3,Win32,59.44949765,62bbe60bf3d75ef465d3e404,0,7,7,60,1,threeone,,,,,,,,,,,,,,,,,,,,,,,,,,,,,,,,,,,,,,,,,,,,,,,,,,,,,,,,,,,,,,,,,,,,,,,,,,,,,,,,,,,,,,,,,,,,,,,,,,,,,,,,,,,,,,,,,,,,,,,,,,,,,,,,,,,,,,,,,,,,,,,,,,,,,,,,
,,,,,,6144742e57a61e489cc9e978,62bbfb0b48812590e721b555,2022-06-29_09h12.08.185,Colour_Asymmetry_Pilot,2022.1.3,Win32,59.44949765,62bbe60bf3d75ef465d3e404,0,8,8,27,1,twofour,,,,,,,,,,,,,,,,,,,,,,,,,,,,,,,,,,,,,,,,,,,,,,,,,,,,,,,,,,,,,,,,,,,,,,,,,,,,,,,,,,,,,,,,,,,,,,,,,,,,,,,,,,,,,,,,,,,,,,,,,,,,,,,,,,,,,,,,,,,,,,,,,,,,,,,,
,,,,,,6144742e57a61e489cc9e978,62bbfb0b48812590e721b555,2022-06-29_09h12.08.185,Colour_Asymmetry_Pilot,2022.1.3,Win32,59.44949765,62bbe60bf3d75ef465d3e404,0,9,9,156,1,threeone,,,,,,,,,,,,,,,,,,,,,,,,,,,,,,,,,,,,,,,,,,,,,,,,,,,,,,,,,,,,,,,,,,,,,,,,,,,,,,,,,,,,,,,,,,,,,,,,,,,,,,,,,,,,,,,,,,,,,,,,,,,,,,,,,,,,,,,,,,,,,,,,,,,,,,,,
,,,,,,6144742e57a61e489cc9e978,62bbfb0b48812590e721b555,2022-06-29_09h12.08.185,Colour_Asymmetry_Pilot,2022.1.3,Win32,59.44949765,62bbe60bf3d75ef465d3e404,0,10,10,28,1,threeone,,,,,,,,,,,,,,,,,,,,,,,,,,,,,,,,,,,,,,,,,,,,,,,,,,,,,,,,,,,,,,,,,,,,,,,,,,,,,,,,,,,,,,,,,,,,,,,,,,,,,,,,,,,,,,,,,,,,,,,,,,,,,,,,,,,,,,,,,,,,,,,,,,,,,,,,
,,,,,,6144742e57a61e489cc9e978,62bbfb0b48812590e721b555,2022-06-29_09h12.08.185,Colour_Asymmetry_Pilot,2022.1.3,Win32,59.44949765,62bbe60bf3d75ef465d3e404,0,11,11,42,1,twoone,,,,,,,,,,,,,,,,,,,,,,,,,,,,,,,,,,,,,,,,,,,,,,,,,,,,,,,,,,,,,,,,,,,,,,,,,,,,,,,,,,,,,,,,,,,,,,,,,,,,,,,,,,,,,,,,,,,,,,,,,,,,,,,,,,,,,,,,,,,,,,,,,,,,,,,,
,,,,,,6144742e57a61e489cc9e978,62bbfb0b48812590e721b555,2022-06-29_09h12.08.185,Colour_Asymmetry_Pilot,2022.1.3,Win32,59.44949765,62bbe60bf3d75ef465d3e404,0,12,12,85,1,threefour,,,,,,,,,,,,,,,,,,,,,,,,,,,,,,,,,,,,,,,,,,,,,,,,,,,,,,,,,,,,,,,,,,,,,,,,,,,,,,,,,,,,,,,,,,,,,,,,,,,,,,,,,,,,,,,,,,,,,,,,,,,,,,,,,,,,,,,,,,,,,,,,,,,,,,,,
,,,,,,6144742e57a61e489cc9e978,62bbfb0b48812590e721b555,2022-06-29_09h12.08.185,Colour_Asymmetry_Pilot,2022.1.3,Win32,59.44949765,62bbe60bf3d75ef465d3e404,0,13,13,76,1,threeone,,,,,,,,,,,,,,,,,,,,,,,,,,,,,,,,,,,,,,,,,,,,,,,,,,,,,,,,,,,,,,,,,,,,,,,,,,,,,,,,,,,,,,,,,,,,,,,,,,,,,,,,,,,,,,,,,,,,,,,,,,,,,,,,,,,,,,,,,,,,,,,,,,,,,,,,
,,,,,,6144742e57a61e489cc9e978,62bbfb0b48812590e721b555,2022-06-29_09h12.08.185,Colour_Asymmetry_Pilot,2022.1.3,Win32,59.44949765,62bbe60bf3d75ef465d3e404,0,14,14,126,1,fourtwo,,,,,,,,,,,,,,,,,,,,,,,,,,,,,,,,,,,,,,,,,,,,,,,,,,,,,,,,,,,,,,,,,,,,,,,,,,,,,,,,,,,,,,,,,,,,,,,,,,,,,,,,,,,,,,,,,,,,,,,,,,,,,,,,,,,,,,,,,,,,,,,,,,,,,,,,
,,,,,,6144742e57a61e489cc9e978,62bbfb0b48812590e721b555,2022-06-29_09h12.08.185,Colour_Asymmetry_Pilot,2022.1.3,Win32,59.44949765,62bbe60bf3d75ef465d3e404,0,15,15,125,1,threefour,,,,,,,,,,,,,,,,,,,,,,,,,,,,,,,,,,,,,,,,,,,,,,,,,,,,,,,,,,,,,,,,,,,,,,,,,,,,,,,,,,,,,,,,,,,,,,,,,,,,,,,,,,,,,,,,,,,,,,,,,,,,,,,,,,,,,,,,,,,,,,,,,,,,,,,,
,,,,,,6144742e57a61e489cc9e978,62bbfb0b48812590e721b555,2022-06-29_09h12.08.185,Colour_Asymmetry_Pilot,2022.1.3,Win32,59.44949765,62bbe60bf3d75ef465d3e404,0,16,16,160,1,onetwo,,,,,,,,,,,,,,,,,,,,,,,,,,,,,,,,,,,,,,,,,,,,,,,,,,,,,,,,,,,,,,,,,,,,,,,,,,,,,,,,,,,,,,,,,,,,,,,,,,,,,,,,,,,,,,,,,,,,,,,,,,,,,,,,,,,,,,,,,,,,,,,,,,,,,,,,
,,,,,,6144742e57a61e489cc9e978,62bbfb0b48812590e721b555,2022-06-29_09h12.08.185,Colour_Asymmetry_Pilot,2022.1.3,Win32,59.44949765,62bbe60bf3d75ef465d3e404,0,17,17,108,1,threeone,,,,,,,,,,,,,,,,,,,,,,,,,,,,,,,,,,,,,,,,,,,,,,,,,,,,,,,,,,,,,,,,,,,,,,,,,,,,,,,,,,,,,,,,,,,,,,,,,,,,,,,,,,,,,,,,,,,,,,,,,,,,,,,,,,,,,,,,,,,,,,,,,,,,,,,,
,,,,,,6144742e57a61e489cc9e978,62bbfb0b48812590e721b555,2022-06-29_09h12.08.185,Colour_Asymmetry_Pilot,2022.1.3,Win32,59.44949765,62bbe60bf3d75ef465d3e404,0,18,18,151,1,fourthree,,,,,,,,,,,,,,,,,,,,,,,,,,,,,,,,,,,,,,,,,,,,,,,,,,,,,,,,,,,,,,,,,,,,,,,,,,,,,,,,,,,,,,,,,,,,,,,,,,,,,,,,,,,,,,,,,,,,,,,,,,,,,,,,,,,,,,,,,,,,,,,,,,,,,,,,
,,,,,,6144742e57a61e489cc9e978,62bbfb0b48812590e721b555,2022-06-29_09h12.08.185,Colour_Asymmetry_Pilot,2022.1.3,Win32,59.44949765,62bbe60bf3d75ef465d3e404,0,19,19,138,1,twoone,,,,,,,,,,,,,,,,,,,,,,,,,,,,,,,,,,,,,,,,,,,,,,,,,,,,,,,,,,,,,,,,,,,,,,,,,,,,,,,,,,,,,,,,,,,,,,,,,,,,,,,,,,,,,,,,,,,,,,,,,,,,,,,,,,,,,,,,,,,,,,,,,,,,,,,,
,,,,,,6144742e57a61e489cc9e978,62bbfb0b48812590e721b555,2022-06-29_09h12.08.185,Colour_Asymmetry_Pilot,2022.1.3,Win32,59.44949765,62bbe60bf3d75ef465d3e404,0,20,20,5,1,threefour,,,,,,,,,,,,,,,,,,,,,,,,,,,,,,,,,,,,,,,,,,,,,,,,,,,,,,,,,,,,,,,,,,,,,,,,,,,,,,,,,,,,,,,,,,,,,,,,,,,,,,,,,,,,,,,,,,,,,,,,,,,,,,,,,,,,,,,,,,,,,,,,,,,,,,,,
,,,,,,6144742e57a61e489cc9e978,62bbfb0b48812590e721b555,2022-06-29_09h12.08.185,Colour_Asymmetry_Pilot,2022.1.3,Win32,59.44949765,62bbe60bf3d75ef465d3e404,0,21,21,21,1,threefour,,,,,,,,,,,,,,,,,,,,,,,,,,,,,,,,,,,,,,,,,,,,,,,,,,,,,,,,,,,,,,,,,,,,,,,,,,,,,,,,,,,,,,,,,,,,,,,,,,,,,,,,,,,,,,,,,,,,,,,,,,,,,,,,,,,,,,,,,,,,,,,,,,,,,,,,
,,,,,,6144742e57a61e489cc9e978,62bbfb0b48812590e721b555,2022-06-29_09h12.08.185,Colour_Asymmetry_Pilot,2022.1.3,Win32,59.44949765,62bbe60bf3d75ef465d3e404,0,22,22,119,1,fourthree,,,,,,,,,,,,,,,,,,,,,,,,,,,,,,,,,,,,,,,,,,,,,,,,,,,,,,,,,,,,,,,,,,,,,,,,,,,,,,,,,,,,,,,,,,,,,,,,,,,,,,,,,,,,,,,,,,,,,,,,,,,,,,,,,,,,,,,,,,,,,,,,,,,,,,,,
,,,,,,6144742e57a61e489cc9e978,62bbfb0b48812590e721b555,2022-06-29_09h12.08.185,Colour_Asymmetry_Pilot,2022.1.3,Win32,59.44949765,62bbe60bf3d75ef465d3e404,0,23,23,107,1,twofour,,,,,,,,,,,,,,,,,,,,,,,,,,,,,,,,,,,,,,,,,,,,,,,,,,,,,,,,,,,,,,,,,,,,,,,,,,,,,,,,,,,,,,,,,,,,,,,,,,,,,,,,,,,,,,,,,,,,,,,,,,,,,,,,,,,,,,,,,,,,,,,,,,,,,,,,
,,,,,,6144742e57a61e489cc9e978,62bbfb0b48812590e721b555,2022-06-29_09h12.08.185,Colour_Asymmetry_Pilot,2022.1.3,Win32,59.44949765,62bbe60bf3d75ef465d3e404,0,24,24,135,1,fourthree,,,,,,,,,,,,,,,,,,,,,,,,,,,,,,,,,,,,,,,,,,,,,,,,,,,,,,,,,,,,,,,,,,,,,,,,,,,,,,,,,,,,,,,,,,,,,,,,,,,,,,,,,,,,,,,,,,,,,,,,,,,,,,,,,,,,,,,,,,,,,,,,,,,,,,,,
,,,,,,6144742e57a61e489cc9e978,62bbfb0b48812590e721b555,2022-06-29_09h12.08.185,Colour_Asymmetry_Pilot,2022.1.3,Win32,59.44949765,62bbe60bf3d75ef465d3e404,0,25,25,10,1,twoone,,,,,,,,,,,,,,,,,,,,,,,,,,,,,,,,,,,,,,,,,,,,,,,,,,,,,,,,,,,,,,,,,,,,,,,,,,,,,,,,,,,,,,,,,,,,,,,,,,,,,,,,,,,,,,,,,,,,,,,,,,,,,,,,,,,,,,,,,,,,,,,,,,,,,,,,
,,,,,,6144742e57a61e489cc9e978,62bbfb0b48812590e721b555,2022-06-29_09h12.08.185,Colour_Asymmetry_Pilot,2022.1.3,Win32,59.44949765,62bbe60bf3d75ef465d3e404,0,26,26,29,1,threefour,,,,,,,,,,,,,,,,,,,,,,,,,,,,,,,,,,,,,,,,,,,,,,,,,,,,,,,,,,,,,,,,,,,,,,,,,,,,,,,,,,,,,,,,,,,,,,,,,,,,,,,,,,,,,,,,,,,,,,,,,,,,,,,,,,,,,,,,,,,,,,,,,,,,,,,,
,,,,,,6144742e57a61e489cc9e978,62bbfb0b48812590e721b555,2022-06-29_09h12.08.185,Colour_Asymmetry_Pilot,2022.1.3,Win32,59.44949765,62bbe60bf3d75ef465d3e404,0,27,27,79,1,fourthree,,,,,,,,,,,,,,,,,,,,,,,,,,,,,,,,,,,,,,,,,,,,,,,,,,,,,,,,,,,,,,,,,,,,,,,,,,,,,,,,,,,,,,,,,,,,,,,,,,,,,,,,,,,,,,,,,,,,,,,,,,,,,,,,,,,,,,,,,,,,,,,,,,,,,,,,
,,,,,,6144742e57a61e489cc9e978,62bbfb0b48812590e721b555,2022-06-29_09h12.08.185,Colour_Asymmetry_Pilot,2022.1.3,Win32,59.44949765,62bbe60bf3d75ef465d3e404,0,28,28,139,1,twofour,,,,,,,,,,,,,,,,,,,,,,,,,,,,,,,,,,,,,,,,,,,,,,,,,,,,,,,,,,,,,,,,,,,,,,,,,,,,,,,,,,,,,,,,,,,,,,,,,,,,,,,,,,,,,,,,,,,,,,,,,,,,,,,,,,,,,,,,,,,,,,,,,,,,,,,,
,,,,,,6144742e57a61e489cc9e978,62bbfb0b48812590e721b555,2022-06-29_09h12.08.185,Colour_Asymmetry_Pilot,2022.1.3,Win32,59.44949765,62bbe60bf3d75ef465d3e404,0,29,29,140,1,threeone,,,,,,,,,,,,,,,,,,,,,,,,,,,,,,,,,,,,,,,,,,,,,,,,,,,,,,,,,,,,,,,,,,,,,,,,,,,,,,,,,,,,,,,,,,,,,,,,,,,,,,,,,,,,,,,,,,,,,,,,,,,,,,,,,,,,,,,,,,,,,,,,,,,,,,,,
,,,,,,6144742e57a61e489cc9e978,62bbfb0b48812590e721b555,2022-06-29_09h12.08.185,Colour_Asymmetry_Pilot,2022.1.3,Win32,59.44949765,62bbe60bf3d75ef465d3e404,0,30,30,133,1,threefour,,,,,,,,,,,,,,,,,,,,,,,,,,,,,,,,,,,,,,,,,,,,,,,,,,,,,,,,,,,,,,,,,,,,,,,,,,,,,,,,,,,,,,,,,,,,,,,,,,,,,,,,,,,,,,,,,,,,,,,,,,,,,,,,,,,,,,,,,,,,,,,,,,,,,,,,
,,,,,,6144742e57a61e489cc9e978,62bbfb0b48812590e721b555,2022-06-29_09h12.08.185,Colour_Asymmetry_Pilot,2022.1.3,Win32,59.44949765,62bbe60bf3d75ef465d3e404,0,31,31,129,1,onethree,,,,,,,,,,,,,,,,,,,,,,,,,,,,,,,,,,,,,,,,,,,,,,,,,,,,,,,,,,,,,,,,,,,,,,,,,,,,,,,,,,,,,,,,,,,,,,,,,,,,,,,,,,,,,,,,,,,,,,,,,,,,,,,,,,,,,,,,,,,,,,,,,,,,,,,,
,,,,,,6144742e57a61e489cc9e978,62bbfb0b48812590e721b555,2022-06-29_09h12.08.185,Colour_Asymmetry_Pilot,2022.1.3,Win32,59.44949765,62bbe60bf3d75ef465d3e404,0,32,32,34,1,twoone,,,,,,,,,,,,,,,,,,,,,,,,,,,,,,,,,,,,,,,,,,,,,,,,,,,,,,,,,,,,,,,,,,,,,,,,,,,,,,,,,,,,,,,,,,,,,,,,,,,,,,,,,,,,,,,,,,,,,,,,,,,,,,,,,,,,,,,,,,,,,,,,,,,,,,,,
,,,,,,6144742e57a61e489cc9e978,62bbfb0b48812590e721b555,2022-06-29_09h12.08.185,Colour_Asymmetry_Pilot,2022.1.3,Win32,59.44949765,62bbe60bf3d75ef465d3e404,0,33,33,98,1,twoone,,,,,,,,,,,,,,,,,,,,,,,,,,,,,,,,,,,,,,,,,,,,,,,,,,,,,,,,,,,,,,,,,,,,,,,,,,,,,,,,,,,,,,,,,,,,,,,,,,,,,,,,,,,,,,,,,,,,,,,,,,,,,,,,,,,,,,,,,,,,,,,,,,,,,,,,
,,,,,,6144742e57a61e489cc9e978,62bbfb0b48812590e721b555,2022-06-29_09h12.08.185,Colour_Asymmetry_Pilot,2022.1.3,Win32,59.44949765,62bbe60bf3d75ef465d3e404,0,34,34,57,1,onethree,,,,,,,,,,,,,,,,,,,,,,,,,,,,,,,,,,,,,,,,,,,,,,,,,,,,,,,,,,,,,,,,,,,,,,,,,,,,,,,,,,,,,,,,,,,,,,,,,,,,,,,,,,,,,,,,,,,,,,,,,,,,,,,,,,,,,,,,,,,,,,,,,,,,,,,,
,,,,,,6144742e57a61e489cc9e978,62bbfb0b48812590e721b555,2022-06-29_09h12.08.185,Colour_Asymmetry_Pilot,2022.1.3,Win32,59.44949765,62bbe60bf3d75ef465d3e404,0,35,35,106,1,twoone,,,,,,,,,,,,,,,,,,,,,,,,,,,,,,,,,,,,,,,,,,,,,,,,,,,,,,,,,,,,,,,,,,,,,,,,,,,,,,,,,,,,,,,,,,,,,,,,,,,,,,,,,,,,,,,,,,,,,,,,,,,,,,,,,,,,,,,,,,,,,,,,,,,,,,,,
,,,,,,6144742e57a61e489cc9e978,62bbfb0b48812590e721b555,2022-06-29_09h12.08.185,Colour_Asymmetry_Pilot,2022.1.3,Win32,59.44949765,62bbe60bf3d75ef465d3e404,0,36,36,144,1,onetwo,,,,,,,,,,,,,,,,,,,,,,,,,,,,,,,,,,,,,,,,,,,,,,,,,,,,,,,,,,,,,,,,,,,,,,,,,,,,,,,,,,,,,,,,,,,,,,,,,,,,,,,,,,,,,,,,,,,,,,,,,,,,,,,,,,,,,,,,,,,,,,,,,,,,,,,,
,,,,,,6144742e57a61e489cc9e978,62bbfb0b48812590e721b555,2022-06-29_09h12.08.185,Colour_Asymmetry_Pilot,2022.1.3,Win32,59.44949765,62bbe60bf3d75ef465d3e404,0,37,37,132,1,threeone,,,,,,,,,,,,,,,,,,,,,,,,,,,,,,,,,,,,,,,,,,,,,,,,,,,,,,,,,,,,,,,,,,,,,,,,,,,,,,,,,,,,,,,,,,,,,,,,,,,,,,,,,,,,,,,,,,,,,,,,,,,,,,,,,,,,,,,,,,,,,,,,,,,,,,,,
,,,,,,6144742e57a61e489cc9e978,62bbfb0b48812590e721b555,2022-06-29_09h12.08.185,Colour_Asymmetry_Pilot,2022.1.3,Win32,59.44949765,62bbe60bf3d75ef465d3e404,0,38,38,153,1,onethree,,,,,,,,,,,,,,,,,,,,,,,,,,,,,,,,,,,,,,,,,,,,,,,,,,,,,,,,,,,,,,,,,,,,,,,,,,,,,,,,,,,,,,,,,,,,,,,,,,,,,,,,,,,,,,,,,,,,,,,,,,,,,,,,,,,,,,,,,,,,,,,,,,,,,,,,
,,,,,,6144742e57a61e489cc9e978,62bbfb0b48812590e721b555,2022-06-29_09h12.08.185,Colour_Asymmetry_Pilot,2022.1.3,Win32,59.44949765,62bbe60bf3d75ef465d3e404,0,39,39,66,1,twoone,,,,,,,,,,,,,,,,,,,,,,,,,,,,,,,,,,,,,,,,,,,,,,,,,,,,,,,,,,,,,,,,,,,,,,,,,,,,,,,,,,,,,,,,,,,,,,,,,,,,,,,,,,,,,,,,,,,,,,,,,,,,,,,,,,,,,,,,,,,,,,,,,,,,,,,,
,,,,,,6144742e57a61e489cc9e978,62bbfb0b48812590e721b555,2022-06-29_09h12.08.185,Colour_Asymmetry_Pilot,2022.1.3,Win32,59.44949765,62bbe60bf3d75ef465d3e404,0,40,40,154,1,twoone,,,,,,,,,,,,,,,,,,,,,,,,,,,,,,,,,,,,,,,,,,,,,,,,,,,,,,,,,,,,,,,,,,,,,,,,,,,,,,,,,,,,,,,,,,,,,,,,,,,,,,,,,,,,,,,,,,,,,,,,,,,,,,,,,,,,,,,,,,,,,,,,,,,,,,,,
,,,,,,6144742e57a61e489cc9e978,62bbfb0b48812590e721b555,2022-06-29_09h12.08.185,Colour_Asymmetry_Pilot,2022.1.3,Win32,59.44949765,62bbe60bf3d75ef465d3e404,0,41,41,50,1,twoone,,,,,,,,,,,,,,,,,,,,,,,,,,,,,,,,,,,,,,,,,,,,,,,,,,,,,,,,,,,,,,,,,,,,,,,,,,,,,,,,,,,,,,,,,,,,,,,,,,,,,,,,,,,,,,,,,,,,,,,,,,,,,,,,,,,,,,,,,,,,,,,,,,,,,,,,
,,,,,,6144742e57a61e489cc9e978,62bbfb0b48812590e721b555,2022-06-29_09h12.08.185,Colour_Asymmetry_Pilot,2022.1.3,Win32,59.44949765,62bbe60bf3d75ef465d3e404,0,42,42,51,1,twofour,,,,,,,,,,,,,,,,,,,,,,,,,,,,,,,,,,,,,,,,,,,,,,,,,,,,,,,,,,,,,,,,,,,,,,,,,,,,,,,,,,,,,,,,,,,,,,,,,,,,,,,,,,,,,,,,,,,,,,,,,,,,,,,,,,,,,,,,,,,,,,,,,,,,,,,,
,,,,,,6144742e57a61e489cc9e978,62bbfb0b48812590e721b555,2022-06-29_09h12.08.185,Colour_Asymmetry_Pilot,2022.1.3,Win32,59.44949765,62bbe60bf3d75ef465d3e404,0,43,43,48,1,onetwo,,,,,,,,,,,,,,,,,,,,,,,,,,,,,,,,,,,,,,,,,,,,,,,,,,,,,,,,,,,,,,,,,,,,,,,,,,,,,,,,,,,,,,,,,,,,,,,,,,,,,,,,,,,,,,,,,,,,,,,,,,,,,,,,,,,,,,,,,,,,,,,,,,,,,,,,
,,,,,,6144742e57a61e489cc9e978,62bbfb0b48812590e721b555,2022-06-29_09h12.08.185,Colour_Asymmetry_Pilot,2022.1.3,Win32,59.44949765,62bbe60bf3d75ef465d3e404,0,44,44,33,1,onethree,,,,,,,,,,,,,,,,,,,,,,,,,,,,,,,,,,,,,,,,,,,,,,,,,,,,,,,,,,,,,,,,,,,,,,,,,,,,,,,,,,,,,,,,,,,,,,,,,,,,,,,,,,,,,,,,,,,,,,,,,,,,,,,,,,,,,,,,,,,,,,,,,,,,,,,,
,,,,,,6144742e57a61e489cc9e978,62bbfb0b48812590e721b555,2022-06-29_09h12.08.185,Colour_Asymmetry_Pilot,2022.1.3,Win32,59.44949765,62bbe60bf3d75ef465d3e404,0,45,45,127,1,fourthree,,,,,,,,,,,,,,,,,,,,,,,,,,,,,,,,,,,,,,,,,,,,,,,,,,,,,,,,,,,,,,,,,,,,,,,,,,,,,,,,,,,,,,,,,,,,,,,,,,,,,,,,,,,,,,,,,,,,,,,,,,,,,,,,,,,,,,,,,,,,,,,,,,,,,,,,
,,,,,,6144742e57a61e489cc9e978,62bbfb0b48812590e721b555,2022-06-29_09h12.08.185,Colour_Asymmetry_Pilot,2022.1.3,Win32,59.44949765,62bbe60bf3d75ef465d3e404,0,46,46,86,1,fourtwo,,,,,,,,,,,,,,,,,,,,,,,,,,,,,,,,,,,,,,,,,,,,,,,,,,,,,,,,,,,,,,,,,,,,,,,,,,,,,,,,,,,,,,,,,,,,,,,,,,,,,,,,,,,,,,,,,,,,,,,,,,,,,,,,,,,,,,,,,,,,,,,,,,,,,,,,
,,,,,,6144742e57a61e489cc9e978,62bbfb0b48812590e721b555,2022-06-29_09h12.08.185,Colour_Asymmetry_Pilot,2022.1.3,Win32,59.44949765,62bbe60bf3d75ef465d3e404,0,47,47,103,1,fourthree,,,,,,,,,,,,,,,,,,,,,,,,,,,,,,,,,,,,,,,,,,,,,,,,,,,,,,,,,,,,,,,,,,,,,,,,,,,,,,,,,,,,,,,,,,,,,,,,,,,,,,,,,,,,,,,,,,,,,,,,,,,,,,,,,,,,,,,,,,,,,,,,,,,,,,,,
,,,,,,6144742e57a61e489cc9e978,62bbfb0b48812590e721b555,2022-06-29_09h12.08.185,Colour_Asymmetry_Pilot,2022.1.3,Win32,59.44949765,62bbe60bf3d75ef465d3e404,0,48,48,30,1,fourtwo,,,,,,,,,,,,,,,,,,,,,,,,,,,,,,,,,,,,,,,,,,,,,,,,,,,,,,,,,,,,,,,,,,,,,,,,,,,,,,,,,,,,,,,,,,,,,,,,,,,,,,,,,,,,,,,,,,,,,,,,,,,,,,,,,,,,,,,,,,,,,,,,,,,,,,,,
,,,,,,6144742e57a61e489cc9e978,62bbfb0b48812590e721b555,2022-06-29_09h12.08.185,Colour_Asymmetry_Pilot,2022.1.3,Win32,59.44949765,62bbe60bf3d75ef465d3e404,0,49,49,134,1,fourtwo,,,,,,,,,,,,,,,,,,,,,,,,,,,,,,,,,,,,,,,,,,,,,,,,,,,,,,,,,,,,,,,,,,,,,,,,,,,,,,,,,,,,,,,,,,,,,,,,,,,,,,,,,,,,,,,,,,,,,,,,,,,,,,,,,,,,,,,,,,,,,,,,,,,,,,,,
,,,,,,6144742e57a61e489cc9e978,62bbfb0b48812590e721b555,2022-06-29_09h12.08.185,Colour_Asymmetry_Pilot,2022.1.3,Win32,59.44949765,62bbe60bf3d75ef465d3e404,0,50,50,22,1,fourtwo,,,,,,,,,,,,,,,,,,,,,,,,,,,,,,,,,,,,,,,,,,,,,,,,,,,,,,,,,,,,,,,,,,,,,,,,,,,,,,,,,,,,,,,,,,,,,,,,,,,,,,,,,,,,,,,,,,,,,,,,,,,,,,,,,,,,,,,,,,,,,,,,,,,,,,,,
,,,,,,6144742e57a61e489cc9e978,62bbfb0b48812590e721b555,2022-06-29_09h12.08.185,Colour_Asymmetry_Pilot,2022.1.3,Win32,59.44949765,62bbe60bf3d75ef465d3e404,0,51,51,8,1,onetwo,,,,,,,,,,,,,,,,,,,,,,,,,,,,,,,,,,,,,,,,,,,,,,,,,,,,,,,,,,,,,,,,,,,,,,,,,,,,,,,,,,,,,,,,,,,,,,,,,,,,,,,,,,,,,,,,,,,,,,,,,,,,,,,,,,,,,,,,,,,,,,,,,,,,,,,,
,,,,,,6144742e57a61e489cc9e978,62bbfb0b48812590e721b555,2022-06-29_09h12.08.185,Colour_Asymmetry_Pilot,2022.1.3,Win32,59.44949765,62bbe60bf3d75ef465d3e404,0,52,52,130,1,twoone,,,,,,,,,,,,,,,,,,,,,,,,,,,,,,,,,,,,,,,,,,,,,,,,,,,,,,,,,,,,,,,,,,,,,,,,,,,,,,,,,,,,,,,,,,,,,,,,,,,,,,,,,,,,,,,,,,,,,,,,,,,,,,,,,,,,,,,,,,,,,,,,,,,,,,,,
,,,,,,6144742e57a61e489cc9e978,62bbfb0b48812590e721b555,2022-06-29_09h12.08.185,Colour_Asymmetry_Pilot,2022.1.3,Win32,59.44949765,62bbe60bf3d75ef465d3e404,0,53,53,6,1,fourtwo,,,,,,,,,,,,,,,,,,,,,,,,,,,,,,,,,,,,,,,,,,,,,,,,,,,,,,,,,,,,,,,,,,,,,,,,,,,,,,,,,,,,,,,,,,,,,,,,,,,,,,,,,,,,,,,,,,,,,,,,,,,,,,,,,,,,,,,,,,,,,,,,,,,,,,,,
,,,,,,6144742e57a61e489cc9e978,62bbfb0b48812590e721b555,2022-06-29_09h12.08.185,Colour_Asymmetry_Pilot,2022.1.3,Win32,59.44949765,62bbe60bf3d75ef465d3e404,0,54,54,97,1,onethree,,,,,,,,,,,,,,,,,,,,,,,,,,,,,,,,,,,,,,,,,,,,,,,,,,,,,,,,,,,,,,,,,,,,,,,,,,,,,,,,,,,,,,,,,,,,,,,,,,,,,,,,,,,,,,,,,,,,,,,,,,,,,,,,,,,,,,,,,,,,,,,,,,,,,,,,
,,,,,,6144742e57a61e489cc9e978,62bbfb0b48812590e721b555,2022-06-29_09h12.08.185,Colour_Asymmetry_Pilot,2022.1.3,Win32,59.44949765,62bbe60bf3d75ef465d3e404,0,55,55,159,1,fourthree,,,,,,,,,,,,,,,,,,,,,,,,,,,,,,,,,,,,,,,,,,,,,,,,,,,,,,,,,,,,,,,,,,,,,,,,,,,,,,,,,,,,,,,,,,,,,,,,,,,,,,,,,,,,,,,,,,,,,,,,,,,,,,,,,,,,,,,,,,,,,,,,,,,,,,,,
,,,,,,6144742e57a61e489cc9e978,62bbfb0b48812590e721b555,2022-06-29_09h12.08.185,Colour_Asymmetry_Pilot,2022.1.3,Win32,59.44949765,62bbe60bf3d75ef465d3e404,0,56,56,104,1,onetwo,,,,,,,,,,,,,,,,,,,,,,,,,,,,,,,,,,,,,,,,,,,,,,,,,,,,,,,,,,,,,,,,,,,,,,,,,,,,,,,,,,,,,,,,,,,,,,,,,,,,,,,,,,,,,,,,,,,,,,,,,,,,,,,,,,,,,,,,,,,,,,,,,,,,,,,,
,,,,,,6144742e57a61e489cc9e978,62bbfb0b48812590e721b555,2022-06-29_09h12.08.185,Colour_Asymmetry_Pilot,2022.1.3,Win32,59.44949765,62bbe60bf3d75ef465d3e404,0,57,57,35,1,twofour,,,,,,,,,,,,,,,,,,,,,,,,,,,,,,,,,,,,,,,,,,,,,,,,,,,,,,,,,,,,,,,,,,,,,,,,,,,,,,,,,,,,,,,,,,,,,,,,,,,,,,,,,,,,,,,,,,,,,,,,,,,,,,,,,,,,,,,,,,,,,,,,,,,,,,,,
,,,,,,6144742e57a61e489cc9e978,62bbfb0b48812590e721b555,2022-06-29_09h12.08.185,Colour_Asymmetry_Pilot,2022.1.3,Win32,59.44949765,62bbe60bf3d75ef465d3e404,0,58,58,131,1,twofour,,,,,,,,,,,,,,,,,,,,,,,,,,,,,,,,,,,,,,,,,,,,,,,,,,,,,,,,,,,,,,,,,,,,,,,,,,,,,,,,,,,,,,,,,,,,,,,,,,,,,,,,,,,,,,,,,,,,,,,,,,,,,,,,,,,,,,,,,,,,,,,,,,,,,,,,
,,,,,,6144742e57a61e489cc9e978,62bbfb0b48812590e721b555,2022-06-29_09h12.08.185,Colour_Asymmetry_Pilot,2022.1.3,Win32,59.44949765,62bbe60bf3d75ef465d3e404,0,59,59,43,1,twofour,,,,,,,,,,,,,,,,,,,,,,,,,,,,,,,,,,,,,,,,,,,,,,,,,,,,,,,,,,,,,,,,,,,,,,,,,,,,,,,,,,,,,,,,,,,,,,,,,,,,,,,,,,,,,,,,,,,,,,,,,,,,,,,,,,,,,,,,,,,,,,,,,,,,,,,,
,,,,,,6144742e57a61e489cc9e978,62bbfb0b48812590e721b555,2022-06-29_09h12.08.185,Colour_Asymmetry_Pilot,2022.1.3,Win32,59.44949765,62bbe60bf3d75ef465d3e404,0,60,60,61,1,threefour,,,,,,,,,,,,,,,,,,,,,,,,,,,,,,,,,,,,,,,,,,,,,,,,,,,,,,,,,,,,,,,,,,,,,,,,,,,,,,,,,,,,,,,,,,,,,,,,,,,,,,,,,,,,,,,,,,,,,,,,,,,,,,,,,,,,,,,,,,,,,,,,,,,,,,,,
,,,,,,6144742e57a61e489cc9e978,62bbfb0b48812590e721b555,2022-06-29_09h12.08.185,Colour_Asymmetry_Pilot,2022.1.3,Win32,59.44949765,62bbe60bf3d75ef465d3e404,0,61,61,56,1,onetwo,,,,,,,,,,,,,,,,,,,,,,,,,,,,,,,,,,,,,,,,,,,,,,,,,,,,,,,,,,,,,,,,,,,,,,,,,,,,,,,,,,,,,,,,,,,,,,,,,,,,,,,,,,,,,,,,,,,,,,,,,,,,,,,,,,,,,,,,,,,,,,,,,,,,,,,,
,,,,,,6144742e57a61e489cc9e978,62bbfb0b48812590e721b555,2022-06-29_09h12.08.185,Colour_Asymmetry_Pilot,2022.1.3,Win32,59.44949765,62bbe60bf3d75ef465d3e404,0,62,62,94,1,fourtwo,,,,,,,,,,,,,,,,,,,,,,,,,,,,,,,,,,,,,,,,,,,,,,,,,,,,,,,,,,,,,,,,,,,,,,,,,,,,,,,,,,,,,,,,,,,,,,,,,,,,,,,,,,,,,,,,,,,,,,,,,,,,,,,,,,,,,,,,,,,,,,,,,,,,,,,,
,,,,,,6144742e57a61e489cc9e978,62bbfb0b48812590e721b555,2022-06-29_09h12.08.185,Colour_Asymmetry_Pilot,2022.1.3,Win32,59.44949765,62bbe60bf3d75ef465d3e404,0,63,63,58,1,twoone,,,,,,,,,,,,,,,,,,,,,,,,,,,,,,,,,,,,,,,,,,,,,,,,,,,,,,,,,,,,,,,,,,,,,,,,,,,,,,,,,,,,,,,,,,,,,,,,,,,,,,,,,,,,,,,,,,,,,,,,,,,,,,,,,,,,,,,,,,,,,,,,,,,,,,,,
,,,,,,6144742e57a61e489cc9e978,62bbfb0b48812590e721b555,2022-06-29_09h12.08.185,Colour_Asymmetry_Pilot,2022.1.3,Win32,59.44949765,62bbe60bf3d75ef465d3e404,0,64,64,39,1,fourthree,,,,,,,,,,,,,,,,,,,,,,,,,,,,,,,,,,,,,,,,,,,,,,,,,,,,,,,,,,,,,,,,,,,,,,,,,,,,,,,,,,,,,,,,,,,,,,,,,,,,,,,,,,,,,,,,,,,,,,,,,,,,,,,,,,,,,,,,,,,,,,,,,,,,,,,,
,,,,,,6144742e57a61e489cc9e978,62bbfb0b48812590e721b555,2022-06-29_09h12.08.185,Colour_Asymmetry_Pilot,2022.1.3,Win32,59.44949765,62bbe60bf3d75ef465d3e404,0,65,65,16,1,onetwo,,,,,,,,,,,,,,,,,,,,,,,,,,,,,,,,,,,,,,,,,,,,,,,,,,,,,,,,,,,,,,,,,,,,,,,,,,,,,,,,,,,,,,,,,,,,,,,,,,,,,,,,,,,,,,,,,,,,,,,,,,,,,,,,,,,,,,,,,,,,,,,,,,,,,,,,
,,,,,,6144742e57a61e489cc9e978,62bbfb0b48812590e721b555,2022-06-29_09h12.08.185,Colour_Asymmetry_Pilot,2022.1.3,Win32,59.44949765,62bbe60bf3d75ef465d3e404,0,66,66,11,1,twofour,,,,,,,,,,,,,,,,,,,,,,,,,,,,,,,,,,,,,,,,,,,,,,,,,,,,,,,,,,,,,,,,,,,,,,,,,,,,,,,,,,,,,,,,,,,,,,,,,,,,,,,,,,,,,,,,,,,,,,,,,,,,,,,,,,,,,,,,,,,,,,,,,,,,,,,,
,,,,,,6144742e57a61e489cc9e978,62bbfb0b48812590e721b555,2022-06-29_09h12.08.185,Colour_Asymmetry_Pilot,2022.1.3,Win32,59.44949765,62bbe60bf3d75ef465d3e404,0,67,67,118,1,fourtwo,,,,,,,,,,,,,,,,,,,,,,,,,,,,,,,,,,,,,,,,,,,,,,,,,,,,,,,,,,,,,,,,,,,,,,,,,,,,,,,,,,,,,,,,,,,,,,,,,,,,,,,,,,,,,,,,,,,,,,,,,,,,,,,,,,,,,,,,,,,,,,,,,,,,,,,,
,,,,,,6144742e57a61e489cc9e978,62bbfb0b48812590e721b555,2022-06-29_09h12.08.185,Colour_Asymmetry_Pilot,2022.1.3,Win32,59.44949765,62bbe60bf3d75ef465d3e404,0,68,68,78,1,fourtwo,,,,,,,,,,,,,,,,,,,,,,,,,,,,,,,,,,,,,,,,,,,,,,,,,,,,,,,,,,,,,,,,,,,,,,,,,,,,,,,,,,,,,,,,,,,,,,,,,,,,,,,,,,,,,,,,,,,,,,,,,,,,,,,,,,,,,,,,,,,,,,,,,,,,,,,,
,,,,,,6144742e57a61e489cc9e978,62bbfb0b48812590e721b555,2022-06-29_09h12.08.185,Colour_Asymmetry_Pilot,2022.1.3,Win32,59.44949765,62bbe60bf3d75ef465d3e404,0,69,69,67,1,twofour,,,,,,,,,,,,,,,,,,,,,,,,,,,,,,,,,,,,,,,,,,,,,,,,,,,,,,,,,,,,,,,,,,,,,,,,,,,,,,,,,,,,,,,,,,,,,,,,,,,,,,,,,,,,,,,,,,,,,,,,,,,,,,,,,,,,,,,,,,,,,,,,,,,,,,,,
,,,,,,6144742e57a61e489cc9e978,62bbfb0b48812590e721b555,2022-06-29_09h12.08.185,Colour_Asymmetry_Pilot,2022.1.3,Win32,59.44949765,62bbe60bf3d75ef465d3e404,0,70,70,83,1,twofour,,,,,,,,,,,,,,,,,,,,,,,,,,,,,,,,,,,,,,,,,,,,,,,,,,,,,,,,,,,,,,,,,,,,,,,,,,,,,,,,,,,,,,,,,,,,,,,,,,,,,,,,,,,,,,,,,,,,,,,,,,,,,,,,,,,,,,,,,,,,,,,,,,,,,,,,
,,,,,,6144742e57a61e489cc9e978,62bbfb0b48812590e721b555,2022-06-29_09h12.08.185,Colour_Asymmetry_Pilot,2022.1.3,Win32,59.44949765,62bbe60bf3d75ef465d3e404,0,71,71,96,1,onetwo,,,,,,,,,,,,,,,,,,,,,,,,,,,,,,,,,,,,,,,,,,,,,,,,,,,,,,,,,,,,,,,,,,,,,,,,,,,,,,,,,,,,,,,,,,,,,,,,,,,,,,,,,,,,,,,,,,,,,,,,,,,,,,,,,,,,,,,,,,,,,,,,,,,,,,,,
,,,,,,6144742e57a61e489cc9e978,62bbfb0b48812590e721b555,2022-06-29_09h12.08.185,Colour_Asymmetry_Pilot,2022.1.3,Win32,59.44949765,62bbe60bf3d75ef465d3e404,0,72,72,123,1,twofour,,,,,,,,,,,,,,,,,,,,,,,,,,,,,,,,,,,,,,,,,,,,,,,,,,,,,,,,,,,,,,,,,,,,,,,,,,,,,,,,,,,,,,,,,,,,,,,,,,,,,,,,,,,,,,,,,,,,,,,,,,,,,,,,,,,,,,,,,,,,,,,,,,,,,,,,
,,,,,,6144742e57a61e489cc9e978,62bbfb0b48812590e721b555,2022-06-29_09h12.08.185,Colour_Asymmetry_Pilot,2022.1.3,Win32,59.44949765,62bbe60bf3d75ef465d3e404,0,73,73,70,1,fourtwo,,,,,,,,,,,,,,,,,,,,,,,,,,,,,,,,,,,,,,,,,,,,,,,,,,,,,,,,,,,,,,,,,,,,,,,,,,,,,,,,,,,,,,,,,,,,,,,,,,,,,,,,,,,,,,,,,,,,,,,,,,,,,,,,,,,,,,,,,,,,,,,,,,,,,,,,
,,,,,,6144742e57a61e489cc9e978,62bbfb0b48812590e721b555,2022-06-29_09h12.08.185,Colour_Asymmetry_Pilot,2022.1.3,Win32,59.44949765,62bbe60bf3d75ef465d3e404,0,74,74,15,1,fourthree,,,,,,,,,,,,,,,,,,,,,,,,,,,,,,,,,,,,,,,,,,,,,,,,,,,,,,,,,,,,,,,,,,,,,,,,,,,,,,,,,,,,,,,,,,,,,,,,,,,,,,,,,,,,,,,,,,,,,,,,,,,,,,,,,,,,,,,,,,,,,,,,,,,,,,,,
,,,,,,6144742e57a61e489cc9e978,62bbfb0b48812590e721b555,2022-06-29_09h12.08.185,Colour_Asymmetry_Pilot,2022.1.3,Win32,59.44949765,62bbe60bf3d75ef465d3e404,0,75,75,112,1,onetwo,,,,,,,,,,,,,,,,,,,,,,,,,,,,,,,,,,,,,,,,,,,,,,,,,,,,,,,,,,,,,,,,,,,,,,,,,,,,,,,,,,,,,,,,,,,,,,,,,,,,,,,,,,,,,,,,,,,,,,,,,,,,,,,,,,,,,,,,,,,,,,,,,,,,,,,,
,,,,,,6144742e57a61e489cc9e978,62bbfb0b48812590e721b555,2022-06-29_09h12.08.185,Colour_Asymmetry_Pilot,2022.1.3,Win32,59.44949765,62bbe60bf3d75ef465d3e404,0,76,76,31,1,fourthree,,,,,,,,,,,,,,,,,,,,,,,,,,,,,,,,,,,,,,,,,,,,,,,,,,,,,,,,,,,,,,,,,,,,,,,,,,,,,,,,,,,,,,,,,,,,,,,,,,,,,,,,,,,,,,,,,,,,,,,,,,,,,,,,,,,,,,,,,,,,,,,,,,,,,,,,
,,,,,,6144742e57a61e489cc9e978,62bbfb0b48812590e721b555,2022-06-29_09h12.08.185,Colour_Asymmetry_Pilot,2022.1.3,Win32,59.44949765,62bbe60bf3d75ef465d3e404,0,77,77,121,1,onethree,,,,,,,,,,,,,,,,,,,,,,,,,,,,,,,,,,,,,,,,,,,,,,,,,,,,,,,,,,,,,,,,,,,,,,,,,,,,,,,,,,,,,,,,,,,,,,,,,,,,,,,,,,,,,,,,,,,,,,,,,,,,,,,,,,,,,,,,,,,,,,,,,,,,,,,,
,,,,,,6144742e57a61e489cc9e978,62bbfb0b48812590e721b555,2022-06-29_09h12.08.185,Colour_Asymmetry_Pilot,2022.1.3,Win32,59.44949765,62bbe60bf3d75ef465d3e404,0,78,78,46,1,fourtwo,,,,,,,,,,,,,,,,,,,,,,,,,,,,,,,,,,,,,,,,,,,,,,,,,,,,,,,,,,,,,,,,,,,,,,,,,,,,,,,,,,,,,,,,,,,,,,,,,,,,,,,,,,,,,,,,,,,,,,,,,,,,,,,,,,,,,,,,,,,,,,,,,,,,,,,,
,,,,,,6144742e57a61e489cc9e978,62bbfb0b48812590e721b555,2022-06-29_09h12.08.185,Colour_Asymmetry_Pilot,2022.1.3,Win32,59.44949765,62bbe60bf3d75ef465d3e404,0,79,79,158,1,fourtwo,,,,,,,,,,,,,,,,,,,,,,,,,,,,,,,,,,,,,,,,,,,,,,,,,,,,,,,,,,,,,,,,,,,,,,,,,,,,,,,,,,,,,,,,,,,,,,,,,,,,,,,,,,,,,,,,,,,,,,,,,,,,,,,,,,,,,,,,,,,,,,,,,,,,,,,,
,,,,,,6144742e57a61e489cc9e978,62bbfb0b48812590e721b555,2022-06-29_09h12.08.185,Colour_Asymmetry_Pilot,2022.1.3,Win32,59.44949765,62bbe60bf3d75ef465d3e404,0,80,80,110,1,fourtwo,,,,,,,,,,,,,,,,,,,,,,,,,,,,,,,,,,,,,,,,,,,,,,,,,,,,,,,,,,,,,,,,,,,,,,,,,,,,,,,,,,,,,,,,,,,,,,,,,,,,,,,,,,,,,,,,,,,,,,,,,,,,,,,,,,,,,,,,,,,,,,,,,,,,,,,,
,,,,,,6144742e57a61e489cc9e978,62bbfb0b48812590e721b555,2022-06-29_09h12.08.185,Colour_Asymmetry_Pilot,2022.1.3,Win32,59.44949765,62bbe60bf3d75ef465d3e404,0,81,81,155,1,twofour,,,,,,,,,,,,,,,,,,,,,,,,,,,,,,,,,,,,,,,,,,,,,,,,,,,,,,,,,,,,,,,,,,,,,,,,,,,,,,,,,,,,,,,,,,,,,,,,,,,,,,,,,,,,,,,,,,,,,,,,,,,,,,,,,,,,,,,,,,,,,,,,,,,,,,,,
,,,,,,6144742e57a61e489cc9e978,62bbfb0b48812590e721b555,2022-06-29_09h12.08.185,Colour_Asymmetry_Pilot,2022.1.3,Win32,59.44949765,62bbe60bf3d75ef465d3e404,0,82,82,7,1,fourthree,,,,,,,,,,,,,,,,,,,,,,,,,,,,,,,,,,,,,,,,,,,,,,,,,,,,,,,,,,,,,,,,,,,,,,,,,,,,,,,,,,,,,,,,,,,,,,,,,,,,,,,,,,,,,,,,,,,,,,,,,,,,,,,,,,,,,,,,,,,,,,,,,,,,,,,,
,,,,,,6144742e57a61e489cc9e978,62bbfb0b48812590e721b555,2022-06-29_09h12.08.185,Colour_Asymmetry_Pilot,2022.1.3,Win32,59.44949765,62bbe60bf3d75ef465d3e404,0,83,83,124,1,threeone,,,,,,,,,,,,,,,,,,,,,,,,,,,,,,,,,,,,,,,,,,,,,,,,,,,,,,,,,,,,,,,,,,,,,,,,,,,,,,,,,,,,,,,,,,,,,,,,,,,,,,,,,,,,,,,,,,,,,,,,,,,,,,,,,,,,,,,,,,,,,,,,,,,,,,,,
,,,,,,6144742e57a61e489cc9e978,62bbfb0b48812590e721b555,2022-06-29_09h12.08.185,Colour_Asymmetry_Pilot,2022.1.3,Win32,59.44949765,62bbe60bf3d75ef465d3e404,0,84,84,63,1,fourthree,,,,,,,,,,,,,,,,,,,,,,,,,,,,,,,,,,,,,,,,,,,,,,,,,,,,,,,,,,,,,,,,,,,,,,,,,,,,,,,,,,,,,,,,,,,,,,,,,,,,,,,,,,,,,,,,,,,,,,,,,,,,,,,,,,,,,,,,,,,,,,,,,,,,,,,,
,,,,,,6144742e57a61e489cc9e978,62bbfb0b48812590e721b555,2022-06-29_09h12.08.185,Colour_Asymmetry_Pilot,2022.1.3,Win32,59.44949765,62bbe60bf3d75ef465d3e404,0,85,85,55,1,fourthree,,,,,,,,,,,,,,,,,,,,,,,,,,,,,,,,,,,,,,,,,,,,,,,,,,,,,,,,,,,,,,,,,,,,,,,,,,,,,,,,,,,,,,,,,,,,,,,,,,,,,,,,,,,,,,,,,,,,,,,,,,,,,,,,,,,,,,,,,,,,,,,,,,,,,,,,
,,,,,,6144742e57a61e489cc9e978,62bbfb0b48812590e721b555,2022-06-29_09h12.08.185,Colour_Asymmetry_Pilot,2022.1.3,Win32,59.44949765,62bbe60bf3d75ef465d3e404,0,86,86,147,1,twofour,,,,,,,,,,,,,,,,,,,,,,,,,,,,,,,,,,,,,,,,,,,,,,,,,,,,,,,,,,,,,,,,,,,,,,,,,,,,,,,,,,,,,,,,,,,,,,,,,,,,,,,,,,,,,,,,,,,,,,,,,,,,,,,,,,,,,,,,,,,,,,,,,,,,,,,,
,,,,,,6144742e57a61e489cc9e978,62bbfb0b48812590e721b555,2022-06-29_09h12.08.185,Colour_Asymmetry_Pilot,2022.1.3,Win32,59.44949765,62bbe60bf3d75ef465d3e404,0,87,87,84,1,threeone,,,,,,,,,,,,,,,,,,,,,,,,,,,,,,,,,,,,,,,,,,,,,,,,,,,,,,,,,,,,,,,,,,,,,,,,,,,,,,,,,,,,,,,,,,,,,,,,,,,,,,,,,,,,,,,,,,,,,,,,,,,,,,,,,,,,,,,,,,,,,,,,,,,,,,,,
,,,,,,6144742e57a61e489cc9e978,62bbfb0b48812590e721b555,2022-06-29_09h12.08.185,Colour_Asymmetry_Pilot,2022.1.3,Win32,59.44949765,62bbe60bf3d75ef465d3e404,0,88,88,90,1,twoone,,,,,,,,,,,,,,,,,,,,,,,,,,,,,,,,,,,,,,,,,,,,,,,,,,,,,,,,,,,,,,,,,,,,,,,,,,,,,,,,,,,,,,,,,,,,,,,,,,,,,,,,,,,,,,,,,,,,,,,,,,,,,,,,,,,,,,,,,,,,,,,,,,,,,,,,
,,,,,,6144742e57a61e489cc9e978,62bbfb0b48812590e721b555,2022-06-29_09h12.08.185,Colour_Asymmetry_Pilot,2022.1.3,Win32,59.44949765,62bbe60bf3d75ef465d3e404,0,89,89,36,1,threeone,,,,,,,,,,,,,,,,,,,,,,,,,,,,,,,,,,,,,,,,,,,,,,,,,,,,,,,,,,,,,,,,,,,,,,,,,,,,,,,,,,,,,,,,,,,,,,,,,,,,,,,,,,,,,,,,,,,,,,,,,,,,,,,,,,,,,,,,,,,,,,,,,,,,,,,,
,,,,,,6144742e57a61e489cc9e978,62bbfb0b48812590e721b555,2022-06-29_09h12.08.185,Colour_Asymmetry_Pilot,2022.1.3,Win32,59.44949765,62bbe60bf3d75ef465d3e404,0,90,90,0,1,onetwo,,,,,,,,,,,,,,,,,,,,,,,,,,,,,,,,,,,,,,,,,,,,,,,,,,,,,,,,,,,,,,,,,,,,,,,,,,,,,,,,,,,,,,,,,,,,,,,,,,,,,,,,,,,,,,,,,,,,,,,,,,,,,,,,,,,,,,,,,,,,,,,,,,,,,,,,
,,,,,,6144742e57a61e489cc9e978,62bbfb0b48812590e721b555,2022-06-29_09h12.08.185,Colour_Asymmetry_Pilot,2022.1.3,Win32,59.44949765,62bbe60bf3d75ef465d3e404,0,91,91,149,1,threefour,,,,,,,,,,,,,,,,,,,,,,,,,,,,,,,,,,,,,,,,,,,,,,,,,,,,,,,,,,,,,,,,,,,,,,,,,,,,,,,,,,,,,,,,,,,,,,,,,,,,,,,,,,,,,,,,,,,,,,,,,,,,,,,,,,,,,,,,,,,,,,,,,,,,,,,,
,,,,,,6144742e57a61e489cc9e978,62bbfb0b48812590e721b555,2022-06-29_09h12.08.185,Colour_Asymmetry_Pilot,2022.1.3,Win32,59.44949765,62bbe60bf3d75ef465d3e404,0,92,92,38,1,fourtwo,,,,,,,,,,,,,,,,,,,,,,,,,,,,,,,,,,,,,,,,,,,,,,,,,,,,,,,,,,,,,,,,,,,,,,,,,,,,,,,,,,,,,,,,,,,,,,,,,,,,,,,,,,,,,,,,,,,,,,,,,,,,,,,,,,,,,,,,,,,,,,,,,,,,,,,,
,,,,,,6144742e57a61e489cc9e978,62bbfb0b48812590e721b555,2022-06-29_09h12.08.185,Colour_Asymmetry_Pilot,2022.1.3,Win32,59.44949765,62bbe60bf3d75ef465d3e404,0,93,93,122,1,twoone,,,,,,,,,,,,,,,,,,,,,,,,,,,,,,,,,,,,,,,,,,,,,,,,,,,,,,,,,,,,,,,,,,,,,,,,,,,,,,,,,,,,,,,,,,,,,,,,,,,,,,,,,,,,,,,,,,,,,,,,,,,,,,,,,,,,,,,,,,,,,,,,,,,,,,,,
,,,,,,6144742e57a61e489cc9e978,62bbfb0b48812590e721b555,2022-06-29_09h12.08.185,Colour_Asymmetry_Pilot,2022.1.3,Win32,59.44949765,62bbe60bf3d75ef465d3e404,0,94,94,20,1,threeone,,,,,,,,,,,,,,,,,,,,,,,,,,,,,,,,,,,,,,,,,,,,,,,,,,,,,,,,,,,,,,,,,,,,,,,,,,,,,,,,,,,,,,,,,,,,,,,,,,,,,,,,,,,,,,,,,,,,,,,,,,,,,,,,,,,,,,,,,,,,,,,,,,,,,,,,
,,,,,,6144742e57a61e489cc9e978,62bbfb0b48812590e721b555,2022-06-29_09h12.08.185,Colour_Asymmetry_Pilot,2022.1.3,Win32,59.44949765,62bbe60bf3d75ef465d3e404,0,95,95,145,1,onethree,,,,,,,,,,,,,,,,,,,,,,,,,,,,,,,,,,,,,,,,,,,,,,,,,,,,,,,,,,,,,,,,,,,,,,,,,,,,,,,,,,,,,,,,,,,,,,,,,,,,,,,,,,,,,,,,,,,,,,,,,,,,,,,,,,,,,,,,,,,,,,,,,,,,,,,,
,,,,,,6144742e57a61e489cc9e978,62bbfb0b48812590e721b555,2022-06-29_09h12.08.185,Colour_Asymmetry_Pilot,2022.1.3,Win32,59.44949765,62bbe60bf3d75ef465d3e404,0,96,96,65,1,onethree,,,,,,,,,,,,,,,,,,,,,,,,,,,,,,,,,,,,,,,,,,,,,,,,,,,,,,,,,,,,,,,,,,,,,,,,,,,,,,,,,,,,,,,,,,,,,,,,,,,,,,,,,,,,,,,,,,,,,,,,,,,,,,,,,,,,,,,,,,,,,,,,,,,,,,,,
,,,,,,6144742e57a61e489cc9e978,62bbfb0b48812590e721b555,2022-06-29_09h12.08.185,Colour_Asymmetry_Pilot,2022.1.3,Win32,59.44949765,62bbe60bf3d75ef465d3e404,0,97,97,45,1,threefour,,,,,,,,,,,,,,,,,,,,,,,,,,,,,,,,,,,,,,,,,,,,,,,,,,,,,,,,,,,,,,,,,,,,,,,,,,,,,,,,,,,,,,,,,,,,,,,,,,,,,,,,,,,,,,,,,,,,,,,,,,,,,,,,,,,,,,,,,,,,,,,,,,,,,,,,
,,,,,,6144742e57a61e489cc9e978,62bbfb0b48812590e721b555,2022-06-29_09h12.08.185,Colour_Asymmetry_Pilot,2022.1.3,Win32,59.44949765,62bbe60bf3d75ef465d3e404,0,98,98,87,1,fourthree,,,,,,,,,,,,,,,,,,,,,,,,,,,,,,,,,,,,,,,,,,,,,,,,,,,,,,,,,,,,,,,,,,,,,,,,,,,,,,,,,,,,,,,,,,,,,,,,,,,,,,,,,,,,,,,,,,,,,,,,,,,,,,,,,,,,,,,,,,,,,,,,,,,,,,,,
,,,,,,6144742e57a61e489cc9e978,62bbfb0b48812590e721b555,2022-06-29_09h12.08.185,Colour_Asymmetry_Pilot,2022.1.3,Win32,59.44949765,62bbe60bf3d75ef465d3e404,0,99,99,18,1,twoone,,,,,,,,,,,,,,,,,,,,,,,,,,,,,,,,,,,,,,,,,,,,,,,,,,,,,,,,,,,,,,,,,,,,,,,,,,,,,,,,,,,,,,,,,,,,,,,,,,,,,,,,,,,,,,,,,,,,,,,,,,,,,,,,,,,,,,,,,,,,,,,,,,,,,,,,
,,,,,,6144742e57a61e489cc9e978,62bbfb0b48812590e721b555,2022-06-29_09h12.08.185,Colour_Asymmetry_Pilot,2022.1.3,Win32,59.44949765,62bbe60bf3d75ef465d3e404,0,100,100,68,1,threeone,,,,,,,,,,,,,,,,,,,,,,,,,,,,,,,,,,,,,,,,,,,,,,,,,,,,,,,,,,,,,,,,,,,,,,,,,,,,,,,,,,,,,,,,,,,,,,,,,,,,,,,,,,,,,,,,,,,,,,,,,,,,,,,,,,,,,,,,,,,,,,,,,,,,,,,,
,,,,,,6144742e57a61e489cc9e978,62bbfb0b48812590e721b555,2022-06-29_09h12.08.185,Colour_Asymmetry_Pilot,2022.1.3,Win32,59.44949765,62bbe60bf3d75ef465d3e404,0,101,101,75,1,twofour,,,,,,,,,,,,,,,,,,,,,,,,,,,,,,,,,,,,,,,,,,,,,,,,,,,,,,,,,,,,,,,,,,,,,,,,,,,,,,,,,,,,,,,,,,,,,,,,,,,,,,,,,,,,,,,,,,,,,,,,,,,,,,,,,,,,,,,,,,,,,,,,,,,,,,,,
,,,,,,6144742e57a61e489cc9e978,62bbfb0b48812590e721b555,2022-06-29_09h12.08.185,Colour_Asymmetry_Pilot,2022.1.3,Win32,59.44949765,62bbe60bf3d75ef465d3e404,0,102,102,59,1,twofour,,,,,,,,,,,,,,,,,,,,,,,,,,,,,,,,,,,,,,,,,,,,,,,,,,,,,,,,,,,,,,,,,,,,,,,,,,,,,,,,,,,,,,,,,,,,,,,,,,,,,,,,,,,,,,,,,,,,,,,,,,,,,,,,,,,,,,,,,,,,,,,,,,,,,,,,
,,,,,,6144742e57a61e489cc9e978,62bbfb0b48812590e721b555,2022-06-29_09h12.08.185,Colour_Asymmetry_Pilot,2022.1.3,Win32,59.44949765,62bbe60bf3d75ef465d3e404,0,103,103,95,1,fourthree,,,,,,,,,,,,,,,,,,,,,,,,,,,,,,,,,,,,,,,,,,,,,,,,,,,,,,,,,,,,,,,,,,,,,,,,,,,,,,,,,,,,,,,,,,,,,,,,,,,,,,,,,,,,,,,,,,,,,,,,,,,,,,,,,,,,,,,,,,,,,,,,,,,,,,,,
,,,,,,6144742e57a61e489cc9e978,62bbfb0b48812590e721b555,2022-06-29_09h12.08.185,Colour_Asymmetry_Pilot,2022.1.3,Win32,59.44949765,62bbe60bf3d75ef465d3e404,0,104,104,54,1,fourtwo,,,,,,,,,,,,,,,,,,,,,,,,,,,,,,,,,,,,,,,,,,,,,,,,,,,,,,,,,,,,,,,,,,,,,,,,,,,,,,,,,,,,,,,,,,,,,,,,,,,,,,,,,,,,,,,,,,,,,,,,,,,,,,,,,,,,,,,,,,,,,,,,,,,,,,,,
,,,,,,6144742e57a61e489cc9e978,62bbfb0b48812590e721b555,2022-06-29_09h12.08.185,Colour_Asymmetry_Pilot,2022.1.3,Win32,59.44949765,62bbe60bf3d75ef465d3e404,0,105,105,14,1,fourtwo,,,,,,,,,,,,,,,,,,,,,,,,,,,,,,,,,,,,,,,,,,,,,,,,,,,,,,,,,,,,,,,,,,,,,,,,,,,,,,,,,,,,,,,,,,,,,,,,,,,,,,,,,,,,,,,,,,,,,,,,,,,,,,,,,,,,,,,,,,,,,,,,,,,,,,,,
,,,,,,6144742e57a61e489cc9e978,62bbfb0b48812590e721b555,2022-06-29_09h12.08.185,Colour_Asymmetry_Pilot,2022.1.3,Win32,59.44949765,62bbe60bf3d75ef465d3e404,0,106,106,52,1,threeone,,,,,,,,,,,,,,,,,,,,,,,,,,,,,,,,,,,,,,,,,,,,,,,,,,,,,,,,,,,,,,,,,,,,,,,,,,,,,,,,,,,,,,,,,,,,,,,,,,,,,,,,,,,,,,,,,,,,,,,,,,,,,,,,,,,,,,,,,,,,,,,,,,,,,,,,
,,,,,,6144742e57a61e489cc9e978,62bbfb0b48812590e721b555,2022-06-29_09h12.08.185,Colour_Asymmetry_Pilot,2022.1.3,Win32,59.44949765,62bbe60bf3d75ef465d3e404,0,107,107,146,1,twoone,,,,,,,,,,,,,,,,,,,,,,,,,,,,,,,,,,,,,,,,,,,,,,,,,,,,,,,,,,,,,,,,,,,,,,,,,,,,,,,,,,,,,,,,,,,,,,,,,,,,,,,,,,,,,,,,,,,,,,,,,,,,,,,,,,,,,,,,,,,,,,,,,,,,,,,,
,,,,,,6144742e57a61e489cc9e978,62bbfb0b48812590e721b555,2022-06-29_09h12.08.185,Colour_Asymmetry_Pilot,2022.1.3,Win32,59.44949765,62bbe60bf3d75ef465d3e404,0,108,108,77,1,threefour,,,,,,,,,,,,,,,,,,,,,,,,,,,,,,,,,,,,,,,,,,,,,,,,,,,,,,,,,,,,,,,,,,,,,,,,,,,,,,,,,,,,,,,,,,,,,,,,,,,,,,,,,,,,,,,,,,,,,,,,,,,,,,,,,,,,,,,,,,,,,,,,,,,,,,,,
,,,,,,6144742e57a61e489cc9e978,62bbfb0b48812590e721b555,2022-06-29_09h12.08.185,Colour_Asymmetry_Pilot,2022.1.3,Win32,59.44949765,62bbe60bf3d75ef465d3e404,0,109,109,19,1,twofour,,,,,,,,,,,,,,,,,,,,,,,,,,,,,,,,,,,,,,,,,,,,,,,,,,,,,,,,,,,,,,,,,,,,,,,,,,,,,,,,,,,,,,,,,,,,,,,,,,,,,,,,,,,,,,,,,,,,,,,,,,,,,,,,,,,,,,,,,,,,,,,,,,,,,,,,
,,,,,,6144742e57a61e489cc9e978,62bbfb0b48812590e721b555,2022-06-29_09h12.08.185,Colour_Asymmetry_Pilot,2022.1.3,Win32,59.44949765,62bbe60bf3d75ef465d3e404,0,110,110,41,1,onethree,,,,,,,,,,,,,,,,,,,,,,,,,,,,,,,,,,,,,,,,,,,,,,,,,,,,,,,,,,,,,,,,,,,,,,,,,,,,,,,,,,,,,,,,,,,,,,,,,,,,,,,,,,,,,,,,,,,,,,,,,,,,,,,,,,,,,,,,,,,,,,,,,,,,,,,,
,,,,,,6144742e57a61e489cc9e978,62bbfb0b48812590e721b555,2022-06-29_09h12.08.185,Colour_Asymmetry_Pilot,2022.1.3,Win32,59.44949765,62bbe60bf3d75ef465d3e404,0,111,111,1,1,onethree,,,,,,,,,,,,,,,,,,,,,,,,,,,,,,,,,,,,,,,,,,,,,,,,,,,,,,,,,,,,,,,,,,,,,,,,,,,,,,,,,,,,,,,,,,,,,,,,,,,,,,,,,,,,,,,,,,,,,,,,,,,,,,,,,,,,,,,,,,,,,,,,,,,,,,,,
,,,,,,6144742e57a61e489cc9e978,62bbfb0b48812590e721b555,2022-06-29_09h12.08.185,Colour_Asymmetry_Pilot,2022.1.3,Win32,59.44949765,62bbe60bf3d75ef465d3e404,0,112,112,92,1,threeone,,,,,,,,,,,,,,,,,,,,,,,,,,,,,,,,,,,,,,,,,,,,,,,,,,,,,,,,,,,,,,,,,,,,,,,,,,,,,,,,,,,,,,,,,,,,,,,,,,,,,,,,,,,,,,,,,,,,,,,,,,,,,,,,,,,,,,,,,,,,,,,,,,,,,,,,
,,,,,,6144742e57a61e489cc9e978,62bbfb0b48812590e721b555,2022-06-29_09h12.08.185,Colour_Asymmetry_Pilot,2022.1.3,Win32,59.44949765,62bbe60bf3d75ef465d3e404,0,113,113,142,1,fourtwo,,,,,,,,,,,,,,,,,,,,,,,,,,,,,,,,,,,,,,,,,,,,,,,,,,,,,,,,,,,,,,,,,,,,,,,,,,,,,,,,,,,,,,,,,,,,,,,,,,,,,,,,,,,,,,,,,,,,,,,,,,,,,,,,,,,,,,,,,,,,,,,,,,,,,,,,
,,,,,,6144742e57a61e489cc9e978,62bbfb0b48812590e721b555,2022-06-29_09h12.08.185,Colour_Asymmetry_Pilot,2022.1.3,Win32,59.44949765,62bbe60bf3d75ef465d3e404,0,114,114,101,1,threefour,,,,,,,,,,,,,,,,,,,,,,,,,,,,,,,,,,,,,,,,,,,,,,,,,,,,,,,,,,,,,,,,,,,,,,,,,,,,,,,,,,,,,,,,,,,,,,,,,,,,,,,,,,,,,,,,,,,,,,,,,,,,,,,,,,,,,,,,,,,,,,,,,,,,,,,,
,,,,,,6144742e57a61e489cc9e978,62bbfb0b48812590e721b555,2022-06-29_09h12.08.185,Colour_Asymmetry_Pilot,2022.1.3,Win32,59.44949765,62bbe60bf3d75ef465d3e404,0,115,115,99,1,twofour,,,,,,,,,,,,,,,,,,,,,,,,,,,,,,,,,,,,,,,,,,,,,,,,,,,,,,,,,,,,,,,,,,,,,,,,,,,,,,,,,,,,,,,,,,,,,,,,,,,,,,,,,,,,,,,,,,,,,,,,,,,,,,,,,,,,,,,,,,,,,,,,,,,,,,,,
,,,,,,6144742e57a61e489cc9e978,62bbfb0b48812590e721b555,2022-06-29_09h12.08.185,Colour_Asymmetry_Pilot,2022.1.3,Win32,59.44949765,62bbe60bf3d75ef465d3e404,0,116,116,13,1,threefour,,,,,,,,,,,,,,,,,,,,,,,,,,,,,,,,,,,,,,,,,,,,,,,,,,,,,,,,,,,,,,,,,,,,,,,,,,,,,,,,,,,,,,,,,,,,,,,,,,,,,,,,,,,,,,,,,,,,,,,,,,,,,,,,,,,,,,,,,,,,,,,,,,,,,,,,
,,,,,,6144742e57a61e489cc9e978,62bbfb0b48812590e721b555,2022-06-29_09h12.08.185,Colour_Asymmetry_Pilot,2022.1.3,Win32,59.44949765,62bbe60bf3d75ef465d3e404,0,117,117,152,1,onetwo,,,,,,,,,,,,,,,,,,,,,,,,,,,,,,,,,,,,,,,,,,,,,,,,,,,,,,,,,,,,,,,,,,,,,,,,,,,,,,,,,,,,,,,,,,,,,,,,,,,,,,,,,,,,,,,,,,,,,,,,,,,,,,,,,,,,,,,,,,,,,,,,,,,,,,,,
,,,,,,6144742e57a61e489cc9e978,62bbfb0b48812590e721b555,2022-06-29_09h12.08.185,Colour_Asymmetry_Pilot,2022.1.3,Win32,59.44949765,62bbe60bf3d75ef465d3e404,0,118,118,150,1,fourtwo,,,,,,,,,,,,,,,,,,,,,,,,,,,,,,,,,,,,,,,,,,,,,,,,,,,,,,,,,,,,,,,,,,,,,,,,,,,,,,,,,,,,,,,,,,,,,,,,,,,,,,,,,,,,,,,,,,,,,,,,,,,,,,,,,,,,,,,,,,,,,,,,,,,,,,,,
,,,,,,6144742e57a61e489cc9e978,62bbfb0b48812590e721b555,2022-06-29_09h12.08.185,Colour_Asymmetry_Pilot,2022.1.3,Win32,59.44949765,62bbe60bf3d75ef465d3e404,0,119,119,120,1,onetwo,,,,,,,,,,,,,,,,,,,,,,,,,,,,,,,,,,,,,,,,,,,,,,,,,,,,,,,,,,,,,,,,,,,,,,,,,,,,,,,,,,,,,,,,,,,,,,,,,,,,,,,,,,,,,,,,,,,,,,,,,,,,,,,,,,,,,,,,,,,,,,,,,,,,,,,,
,,,,,,6144742e57a61e489cc9e978,62bbfb0b48812590e721b555,2022-06-29_09h12.08.185,Colour_Asymmetry_Pilot,2022.1.3,Win32,59.44949765,62bbe60bf3d75ef465d3e404,0,120,120,148,1,threeone,,,,,,,,,,,,,,,,,,,,,,,,,,,,,,,,,,,,,,,,,,,,,,,,,,,,,,,,,,,,,,,,,,,,,,,,,,,,,,,,,,,,,,,,,,,,,,,,,,,,,,,,,,,,,,,,,,,,,,,,,,,,,,,,,,,,,,,,,,,,,,,,,,,,,,,,
,,,,,,6144742e57a61e489cc9e978,62bbfb0b48812590e721b555,2022-06-29_09h12.08.185,Colour_Asymmetry_Pilot,2022.1.3,Win32,59.44949765,62bbe60bf3d75ef465d3e404,0,121,121,116,1,threeone,,,,,,,,,,,,,,,,,,,,,,,,,,,,,,,,,,,,,,,,,,,,,,,,,,,,,,,,,,,,,,,,,,,,,,,,,,,,,,,,,,,,,,,,,,,,,,,,,,,,,,,,,,,,,,,,,,,,,,,,,,,,,,,,,,,,,,,,,,,,,,,,,,,,,,,,
,,,,,,6144742e57a61e489cc9e978,62bbfb0b48812590e721b555,2022-06-29_09h12.08.185,Colour_Asymmetry_Pilot,2022.1.3,Win32,59.44949765,62bbe60bf3d75ef465d3e404,0,122,122,2,1,twoone,,,,,,,,,,,,,,,,,,,,,,,,,,,,,,,,,,,,,,,,,,,,,,,,,,,,,,,,,,,,,,,,,,,,,,,,,,,,,,,,,,,,,,,,,,,,,,,,,,,,,,,,,,,,,,,,,,,,,,,,,,,,,,,,,,,,,,,,,,,,,,,,,,,,,,,,
,,,,,,6144742e57a61e489cc9e978,62bbfb0b48812590e721b555,2022-06-29_09h12.08.185,Colour_Asymmetry_Pilot,2022.1.3,Win32,59.44949765,62bbe60bf3d75ef465d3e404,0,123,123,161,1,onethree,,,,,,,,,,,,,,,,,,,,,,,,,,,,,,,,,,,,,,,,,,,,,,,,,,,,,,,,,,,,,,,,,,,,,,,,,,,,,,,,,,,,,,,,,,,,,,,,,,,,,,,,,,,,,,,,,,,,,,,,,,,,,,,,,,,,,,,,,,,,,,,,,,,,,,,,
,,,,,,6144742e57a61e489cc9e978,62bbfb0b48812590e721b555,2022-06-29_09h12.08.185,Colour_Asymmetry_Pilot,2022.1.3,Win32,59.44949765,62bbe60bf3d75ef465d3e404,0,124,124,109,1,threefour,,,,,,,,,,,,,,,,,,,,,,,,,,,,,,,,,,,,,,,,,,,,,,,,,,,,,,,,,,,,,,,,,,,,,,,,,,,,,,,,,,,,,,,,,,,,,,,,,,,,,,,,,,,,,,,,,,,,,,,,,,,,,,,,,,,,,,,,,,,,,,,,,,,,,,,,
,,,,,,6144742e57a61e489cc9e978,62bbfb0b48812590e721b555,2022-06-29_09h12.08.185,Colour_Asymmetry_Pilot,2022.1.3,Win32,59.44949765,62bbe60bf3d75ef465d3e404,0,125,125,4,1,threeone,,,,,,,,,,,,,,,,,,,,,,,,,,,,,,,,,,,,,,,,,,,,,,,,,,,,,,,,,,,,,,,,,,,,,,,,,,,,,,,,,,,,,,,,,,,,,,,,,,,,,,,,,,,,,,,,,,,,,,,,,,,,,,,,,,,,,,,,,,,,,,,,,,,,,,,,
,,,,,,6144742e57a61e489cc9e978,62bbfb0b48812590e721b555,2022-06-29_09h12.08.185,Colour_Asymmetry_Pilot,2022.1.3,Win32,59.44949765,62bbe60bf3d75ef465d3e404,0,126,126,24,1,onetwo,,,,,,,,,,,,,,,,,,,,,,,,,,,,,,,,,,,,,,,,,,,,,,,,,,,,,,,,,,,,,,,,,,,,,,,,,,,,,,,,,,,,,,,,,,,,,,,,,,,,,,,,,,,,,,,,,,,,,,,,,,,,,,,,,,,,,,,,,,,,,,,,,,,,,,,,
,,,,,,6144742e57a61e489cc9e978,62bbfb0b48812590e721b555,2022-06-29_09h12.08.185,Colour_Asymmetry_Pilot,2022.1.3,Win32,59.44949765,62bbe60bf3d75ef465d3e404,0,127,127,17,1,onethree,,,,,,,,,,,,,,,,,,,,,,,,,,,,,,,,,,,,,,,,,,,,,,,,,,,,,,,,,,,,,,,,,,,,,,,,,,,,,,,,,,,,,,,,,,,,,,,,,,,,,,,,,,,,,,,,,,,,,,,,,,,,,,,,,,,,,,,,,,,,,,,,,,,,,,,,
,,,,,,6144742e57a61e489cc9e978,62bbfb0b48812590e721b555,2022-06-29_09h12.08.185,Colour_Asymmetry_Pilot,2022.1.3,Win32,59.44949765,62bbe60bf3d75ef465d3e404,0,128,128,72,1,onetwo,,,,,,,,,,,,,,,,,,,,,,,,,,,,,,,,,,,,,,,,,,,,,,,,,,,,,,,,,,,,,,,,,,,,,,,,,,,,,,,,,,,,,,,,,,,,,,,,,,,,,,,,,,,,,,,,,,,,,,,,,,,,,,,,,,,,,,,,,,,,,,,,,,,,,,,,
,,,,,,6144742e57a61e489cc9e978,62bbfb0b48812590e721b555,2022-06-29_09h12.08.185,Colour_Asymmetry_Pilot,2022.1.3,Win32,59.44949765,62bbe60bf3d75ef465d3e404,0,129,129,111,1,fourthree,,,,,,,,,,,,,,,,,,,,,,,,,,,,,,,,,,,,,,,,,,,,,,,,,,,,,,,,,,,,,,,,,,,,,,,,,,,,,,,,,,,,,,,,,,,,,,,,,,,,,,,,,,,,,,,,,,,,,,,,,,,,,,,,,,,,,,,,,,,,,,,,,,,,,,,,
,,,,,,6144742e57a61e489cc9e978,62bbfb0b48812590e721b555,2022-06-29_09h12.08.185,Colour_Asymmetry_Pilot,2022.1.3,Win32,59.44949765,62bbe60bf3d75ef465d3e404,0,130,130,23,1,fourthree,,,,,,,,,,,,,,,,,,,,,,,,,,,,,,,,,,,,,,,,,,,,,,,,,,,,,,,,,,,,,,,,,,,,,,,,,,,,,,,,,,,,,,,,,,,,,,,,,,,,,,,,,,,,,,,,,,,,,,,,,,,,,,,,,,,,,,,,,,,,,,,,,,,,,,,,
,,,,,,6144742e57a61e489cc9e978,62bbfb0b48812590e721b555,2022-06-29_09h12.08.185,Colour_Asymmetry_Pilot,2022.1.3,Win32,59.44949765,62bbe60bf3d75ef465d3e404,0,131,131,143,1,fourthree,,,,,,,,,,,,,,,,,,,,,,,,,,,,,,,,,,,,,,,,,,,,,,,,,,,,,,,,,,,,,,,,,,,,,,,,,,,,,,,,,,,,,,,,,,,,,,,,,,,,,,,,,,,,,,,,,,,,,,,,,,,,,,,,,,,,,,,,,,,,,,,,,,,,,,,,
,,,,,,6144742e57a61e489cc9e978,62bbfb0b48812590e721b555,2022-06-29_09h12.08.185,Colour_Asymmetry_Pilot,2022.1.3,Win32,59.44949765,62bbe60bf3d75ef465d3e404,0,132,132,12,1,threeone,,,,,,,,,,,,,,,,,,,,,,,,,,,,,,,,,,,,,,,,,,,,,,,,,,,,,,,,,,,,,,,,,,,,,,,,,,,,,,,,,,,,,,,,,,,,,,,,,,,,,,,,,,,,,,,,,,,,,,,,,,,,,,,,,,,,,,,,,,,,,,,,,,,,,,,,
,,,,,,6144742e57a61e489cc9e978,62bbfb0b48812590e721b555,2022-06-29_09h12.08.185,Colour_Asymmetry_Pilot,2022.1.3,Win32,59.44949765,62bbe60bf3d75ef465d3e404,0,133,133,49,1,onethree,,,,,,,,,,,,,,,,,,,,,,,,,,,,,,,,,,,,,,,,,,,,,,,,,,,,,,,,,,,,,,,,,,,,,,,,,,,,,,,,,,,,,,,,,,,,,,,,,,,,,,,,,,,,,,,,,,,,,,,,,,,,,,,,,,,,,,,,,,,,,,,,,,,,,,,,
,,,,,,6144742e57a61e489cc9e978,62bbfb0b48812590e721b555,2022-06-29_09h12.08.185,Colour_Asymmetry_Pilot,2022.1.3,Win32,59.44949765,62bbe60bf3d75ef465d3e404,0,134,134,136,1,onetwo,,,,,,,,,,,,,,,,,,,,,,,,,,,,,,,,,,,,,,,,,,,,,,,,,,,,,,,,,,,,,,,,,,,,,,,,,,,,,,,,,,,,,,,,,,,,,,,,,,,,,,,,,,,,,,,,,,,,,,,,,,,,,,,,,,,,,,,,,,,,,,,,,,,,,,,,
,,,,,,6144742e57a61e489cc9e978,62bbfb0b48812590e721b555,2022-06-29_09h12.08.185,Colour_Asymmetry_Pilot,2022.1.3,Win32,59.44949765,62bbe60bf3d75ef465d3e404,0,135,135,157,1,threefour,,,,,,,,,,,,,,,,,,,,,,,,,,,,,,,,,,,,,,,,,,,,,,,,,,,,,,,,,,,,,,,,,,,,,,,,,,,,,,,,,,,,,,,,,,,,,,,,,,,,,,,,,,,,,,,,,,,,,,,,,,,,,,,,,,,,,,,,,,,,,,,,,,,,,,,,
,,,,,,6144742e57a61e489cc9e978,62bbfb0b48812590e721b555,2022-06-29_09h12.08.185,Colour_Asymmetry_Pilot,2022.1.3,Win32,59.44949765,62bbe60bf3d75ef465d3e404,0,136,136,141,1,threefour,,,,,,,,,,,,,,,,,,,,,,,,,,,,,,,,,,,,,,,,,,,,,,,,,,,,,,,,,,,,,,,,,,,,,,,,,,,,,,,,,,,,,,,,,,,,,,,,,,,,,,,,,,,,,,,,,,,,,,,,,,,,,,,,,,,,,,,,,,,,,,,,,,,,,,,,
,,,,,,6144742e57a61e489cc9e978,62bbfb0b48812590e721b555,2022-06-29_09h12.08.185,Colour_Asymmetry_Pilot,2022.1.3,Win32,59.44949765,62bbe60bf3d75ef465d3e404,0,137,137,25,1,onethree,,,,,,,,,,,,,,,,,,,,,,,,,,,,,,,,,,,,,,,,,,,,,,,,,,,,,,,,,,,,,,,,,,,,,,,,,,,,,,,,,,,,,,,,,,,,,,,,,,,,,,,,,,,,,,,,,,,,,,,,,,,,,,,,,,,,,,,,,,,,,,,,,,,,,,,,
,,,,,,6144742e57a61e489cc9e978,62bbfb0b48812590e721b555,2022-06-29_09h12.08.185,Colour_Asymmetry_Pilot,2022.1.3,Win32,59.44949765,62bbe60bf3d75ef465d3e404,0,138,138,74,1,twoone,,,,,,,,,,,,,,,,,,,,,,,,,,,,,,,,,,,,,,,,,,,,,,,,,,,,,,,,,,,,,,,,,,,,,,,,,,,,,,,,,,,,,,,,,,,,,,,,,,,,,,,,,,,,,,,,,,,,,,,,,,,,,,,,,,,,,,,,,,,,,,,,,,,,,,,,
,,,,,,6144742e57a61e489cc9e978,62bbfb0b48812590e721b555,2022-06-29_09h12.08.185,Colour_Asymmetry_Pilot,2022.1.3,Win32,59.44949765,62bbe60bf3d75ef465d3e404,0,139,139,64,1,onetwo,,,,,,,,,,,,,,,,,,,,,,,,,,,,,,,,,,,,,,,,,,,,,,,,,,,,,,,,,,,,,,,,,,,,,,,,,,,,,,,,,,,,,,,,,,,,,,,,,,,,,,,,,,,,,,,,,,,,,,,,,,,,,,,,,,,,,,,,,,,,,,,,,,,,,,,,
,,,,,,6144742e57a61e489cc9e978,62bbfb0b48812590e721b555,2022-06-29_09h12.08.185,Colour_Asymmetry_Pilot,2022.1.3,Win32,59.44949765,62bbe60bf3d75ef465d3e404,0,140,140,81,1,onethree,,,,,,,,,,,,,,,,,,,,,,,,,,,,,,,,,,,,,,,,,,,,,,,,,,,,,,,,,,,,,,,,,,,,,,,,,,,,,,,,,,,,,,,,,,,,,,,,,,,,,,,,,,,,,,,,,,,,,,,,,,,,,,,,,,,,,,,,,,,,,,,,,,,,,,,,
,,,,,,6144742e57a61e489cc9e978,62bbfb0b48812590e721b555,2022-06-29_09h12.08.185,Colour_Asymmetry_Pilot,2022.1.3,Win32,59.44949765,62bbe60bf3d75ef465d3e404,0,141,141,37,1,threefour,,,,,,,,,,,,,,,,,,,,,,,,,,,,,,,,,,,,,,,,,,,,,,,,,,,,,,,,,,,,,,,,,,,,,,,,,,,,,,,,,,,,,,,,,,,,,,,,,,,,,,,,,,,,,,,,,,,,,,,,,,,,,,,,,,,,,,,,,,,,,,,,,,,,,,,,
,,,,,,6144742e57a61e489cc9e978,62bbfb0b48812590e721b555,2022-06-29_09h12.08.185,Colour_Asymmetry_Pilot,2022.1.3,Win32,59.44949765,62bbe60bf3d75ef465d3e404,0,142,142,3,1,twofour,,,,,,,,,,,,,,,,,,,,,,,,,,,,,,,,,,,,,,,,,,,,,,,,,,,,,,,,,,,,,,,,,,,,,,,,,,,,,,,,,,,,,,,,,,,,,,,,,,,,,,,,,,,,,,,,,,,,,,,,,,,,,,,,,,,,,,,,,,,,,,,,,,,,,,,,
,,,,,,6144742e57a61e489cc9e978,62bbfb0b48812590e721b555,2022-06-29_09h12.08.185,Colour_Asymmetry_Pilot,2022.1.3,Win32,59.44949765,62bbe60bf3d75ef465d3e404,0,143,143,9,1,onethree,,,,,,,,,,,,,,,,,,,,,,,,,,,,,,,,,,,,,,,,,,,,,,,,,,,,,,,,,,,,,,,,,,,,,,,,,,,,,,,,,,,,,,,,,,,,,,,,,,,,,,,,,,,,,,,,,,,,,,,,,,,,,,,,,,,,,,,,,,,,,,,,,,,,,,,,
,,,,,,6144742e57a61e489cc9e978,62bbfb0b48812590e721b555,2022-06-29_09h12.08.185,Colour_Asymmetry_Pilot,2022.1.3,Win32,59.44949765,62bbe60bf3d75ef465d3e404,0,144,144,128,1,onetwo,,,,,,,,,,,,,,,,,,,,,,,,,,,,,,,,,,,,,,,,,,,,,,,,,,,,,,,,,,,,,,,,,,,,,,,,,,,,,,,,,,,,,,,,,,,,,,,,,,,,,,,,,,,,,,,,,,,,,,,,,,,,,,,,,,,,,,,,,,,,,,,,,,,,,,,,
,,,,,,6144742e57a61e489cc9e978,62bbfb0b48812590e721b555,2022-06-29_09h12.08.185,Colour_Asymmetry_Pilot,2022.1.3,Win32,59.44949765,62bbe60bf3d75ef465d3e404,0,145,145,26,1,twoone,,,,,,,,,,,,,,,,,,,,,,,,,,,,,,,,,,,,,,,,,,,,,,,,,,,,,,,,,,,,,,,,,,,,,,,,,,,,,,,,,,,,,,,,,,,,,,,,,,,,,,,,,,,,,,,,,,,,,,,,,,,,,,,,,,,,,,,,,,,,,,,,,,,,,,,,
,,,,,,6144742e57a61e489cc9e978,62bbfb0b48812590e721b555,2022-06-29_09h12.08.185,Colour_Asymmetry_Pilot,2022.1.3,Win32,59.44949765,62bbe60bf3d75ef465d3e404,0,146,146,117,1,threefour,,,,,,,,,,,,,,,,,,,,,,,,,,,,,,,,,,,,,,,,,,,,,,,,,,,,,,,,,,,,,,,,,,,,,,,,,,,,,,,,,,,,,,,,,,,,,,,,,,,,,,,,,,,,,,,,,,,,,,,,,,,,,,,,,,,,,,,,,,,,,,,,,,,,,,,,
,,,,,,6144742e57a61e489cc9e978,62bbfb0b48812590e721b555,2022-06-29_09h12.08.185,Colour_Asymmetry_Pilot,2022.1.3,Win32,59.44949765,62bbe60bf3d75ef465d3e404,0,147,147,73,1,onethree,,,,,,,,,,,,,,,,,,,,,,,,,,,,,,,,,,,,,,,,,,,,,,,,,,,,,,,,,,,,,,,,,,,,,,,,,,,,,,,,,,,,,,,,,,,,,,,,,,,,,,,,,,,,,,,,,,,,,,,,,,,,,,,,,,,,,,,,,,,,,,,,,,,,,,,,
,,,,,,6144742e57a61e489cc9e978,62bbfb0b48812590e721b555,2022-06-29_09h12.08.185,Colour_Asymmetry_Pilot,2022.1.3,Win32,59.44949765,62bbe60bf3d75ef465d3e404,0,148,148,102,1,fourtwo,,,,,,,,,,,,,,,,,,,,,,,,,,,,,,,,,,,,,,,,,,,,,,,,,,,,,,,,,,,,,,,,,,,,,,,,,,,,,,,,,,,,,,,,,,,,,,,,,,,,,,,,,,,,,,,,,,,,,,,,,,,,,,,,,,,,,,,,,,,,,,,,,,,,,,,,
,,,,,,6144742e57a61e489cc9e978,62bbfb0b48812590e721b555,2022-06-29_09h12.08.185,Colour_Asymmetry_Pilot,2022.1.3,Win32,59.44949765,62bbe60bf3d75ef465d3e404,0,149,149,69,1,threefour,,,,,,,,,,,,,,,,,,,,,,,,,,,,,,,,,,,,,,,,,,,,,,,,,,,,,,,,,,,,,,,,,,,,,,,,,,,,,,,,,,,,,,,,,,,,,,,,,,,,,,,,,,,,,,,,,,,,,,,,,,,,,,,,,,,,,,,,,,,,,,,,,,,,,,,,
,,,,,,6144742e57a61e489cc9e978,62bbfb0b48812590e721b555,2022-06-29_09h12.08.185,Colour_Asymmetry_Pilot,2022.1.3,Win32,59.44949765,62bbe60bf3d75ef465d3e404,0,150,150,71,1,fourthree,,,,,,,,,,,,,,,,,,,,,,,,,,,,,,,,,,,,,,,,,,,,,,,,,,,,,,,,,,,,,,,,,,,,,,,,,,,,,,,,,,,,,,,,,,,,,,,,,,,,,,,,,,,,,,,,,,,,,,,,,,,,,,,,,,,,,,,,,,,,,,,,,,,,,,,,
,,,,,,6144742e57a61e489cc9e978,62bbfb0b48812590e721b555,2022-06-29_09h12.08.185,Colour_Asymmetry_Pilot,2022.1.3,Win32,59.44949765,62bbe60bf3d75ef465d3e404,0,151,151,105,1,onethree,,,,,,,,,,,,,,,,,,,,,,,,,,,,,,,,,,,,,,,,,,,,,,,,,,,,,,,,,,,,,,,,,,,,,,,,,,,,,,,,,,,,,,,,,,,,,,,,,,,,,,,,,,,,,,,,,,,,,,,,,,,,,,,,,,,,,,,,,,,,,,,,,,,,,,,,
,,,,,,6144742e57a61e489cc9e978,62bbfb0b48812590e721b555,2022-06-29_09h12.08.185,Colour_Asymmetry_Pilot,2022.1.3,Win32,59.44949765,62bbe60bf3d75ef465d3e404,0,152,152,89,1,onethree,,,,,,,,,,,,,,,,,,,,,,,,,,,,,,,,,,,,,,,,,,,,,,,,,,,,,,,,,,,,,,,,,,,,,,,,,,,,,,,,,,,,,,,,,,,,,,,,,,,,,,,,,,,,,,,,,,,,,,,,,,,,,,,,,,,,,,,,,,,,,,,,,,,,,,,,
,,,,,,6144742e57a61e489cc9e978,62bbfb0b48812590e721b555,2022-06-29_09h12.08.185,Colour_Asymmetry_Pilot,2022.1.3,Win32,59.44949765,62bbe60bf3d75ef465d3e404,0,153,153,137,1,onethree,,,,,,,,,,,,,,,,,,,,,,,,,,,,,,,,,,,,,,,,,,,,,,,,,,,,,,,,,,,,,,,,,,,,,,,,,,,,,,,,,,,,,,,,,,,,,,,,,,,,,,,,,,,,,,,,,,,,,,,,,,,,,,,,,,,,,,,,,,,,,,,,,,,,,,,,
,,,,,,6144742e57a61e489cc9e978,62bbfb0b48812590e721b555,2022-06-29_09h12.08.185,Colour_Asymmetry_Pilot,2022.1.3,Win32,59.44949765,62bbe60bf3d75ef465d3e404,0,154,154,32,1,onetwo,,,,,,,,,,,,,,,,,,,,,,,,,,,,,,,,,,,,,,,,,,,,,,,,,,,,,,,,,,,,,,,,,,,,,,,,,,,,,,,,,,,,,,,,,,,,,,,,,,,,,,,,,,,,,,,,,,,,,,,,,,,,,,,,,,,,,,,,,,,,,,,,,,,,,,,,
,,,,,,6144742e57a61e489cc9e978,62bbfb0b48812590e721b555,2022-06-29_09h12.08.185,Colour_Asymmetry_Pilot,2022.1.3,Win32,59.44949765,62bbe60bf3d75ef465d3e404,0,155,155,44,1,threeone,,,,,,,,,,,,,,,,,,,,,,,,,,,,,,,,,,,,,,,,,,,,,,,,,,,,,,,,,,,,,,,,,,,,,,,,,,,,,,,,,,,,,,,,,,,,,,,,,,,,,,,,,,,,,,,,,,,,,,,,,,,,,,,,,,,,,,,,,,,,,,,,,,,,,,,,
,,,,,,6144742e57a61e489cc9e978,62bbfb0b48812590e721b555,2022-06-29_09h12.08.185,Colour_Asymmetry_Pilot,2022.1.3,Win32,59.44949765,62bbe60bf3d75ef465d3e404,0,156,156,80,1,onetwo,,,,,,,,,,,,,,,,,,,,,,,,,,,,,,,,,,,,,,,,,,,,,,,,,,,,,,,,,,,,,,,,,,,,,,,,,,,,,,,,,,,,,,,,,,,,,,,,,,,,,,,,,,,,,,,,,,,,,,,,,,,,,,,,,,,,,,,,,,,,,,,,,,,,,,,,
,,,,,,6144742e57a61e489cc9e978,62bbfb0b48812590e721b555,2022-06-29_09h12.08.185,Colour_Asymmetry_Pilot,2022.1.3,Win32,59.44949765,62bbe60bf3d75ef465d3e404,0,157,157,88,1,onetwo,,,,,,,,,,,,,,,,,,,,,,,,,,,,,,,,,,,,,,,,,,,,,,,,,,,,,,,,,,,,,,,,,,,,,,,,,,,,,,,,,,,,,,,,,,,,,,,,,,,,,,,,,,,,,,,,,,,,,,,,,,,,,,,,,,,,,,,,,,,,,,,,,,,,,,,,
,,,,,,6144742e57a61e489cc9e978,62bbfb0b48812590e721b555,2022-06-29_09h12.08.185,Colour_Asymmetry_Pilot,2022.1.3,Win32,59.44949765,62bbe60bf3d75ef465d3e404,0,158,158,114,1,twoone,,,,,,,,,,,,,,,,,,,,,,,,,,,,,,,,,,,,,,,,,,,,,,,,,,,,,,,,,,,,,,,,,,,,,,,,,,,,,,,,,,,,,,,,,,,,,,,,,,,,,,,,,,,,,,,,,,,,,,,,,,,,,,,,,,,,,,,,,,,,,,,,,,,,,,,,
,,,,,,6144742e57a61e489cc9e978,62bbfb0b48812590e721b555,2022-06-29_09h12.08.185,Colour_Asymmetry_Pilot,2022.1.3,Win32,59.44949765,62bbe60bf3d75ef465d3e404,0,159,159,47,1,fourthree,,,,,,,,,,,,,,,,,,,,,,,,,,,,,,,,,,,,,,,,,,,,,,,,,,,,,,,,,,,,,,,,,,,,,,,,,,,,,,,,,,,,,,,,,,,,,,,,,,,,,,,,,,,,,,,,,,,,,,,,,,,,,,,,,,,,,,,,,,,,,,,,,,,,,,,,
,,,,,,6144742e57a61e489cc9e978,62bbfb0b48812590e721b555,2022-06-29_09h12.08.185,Colour_Asymmetry_Pilot,2022.1.3,Win32,59.44949765,62bbe60bf3d75ef465d3e404,0,160,160,93,1,threefour,,,,,,,,,,,,,,,,,,,,,,,,,,,,,,,,,,,,,,,,,,,,,,,,,,,,,,,,,,,,,,,,,,,,,,,,,,,,,,,,,,,,,,,,,,,,,,,,,,,,,,,,,,,,,,,,,,,,,,,,,,,,,,,,,,,,,,,,,,,,,,,,,,,,,,,,
,,,,,,6144742e57a61e489cc9e978,62bbfb0b48812590e721b555,2022-06-29_09h12.08.185,Colour_Asymmetry_Pilot,2022.1.3,Win32,59.44949765,62bbe60bf3d75ef465d3e404,0,161,161,113,1,onethree,,,,,,,,,,,,,,,,,,,,,,,,,,,,,,,,,,,,,,,,,,,,,,,,,,,,,,,,,,,,,,,,,,,,,,,,,,,,,,,,,,,,,,,,,,,,,,,,,,,,,,,,,,,,,,,,,,,,,,,,,,,,,,,,,,,,,,,,,,,,,,,,,,,,,,,,
,,,,,,6144742e57a61e489cc9e978,62bbfb0b48812590e721b555,2022-06-29_09h12.08.185,Colour_Asymmetry_Pilot,2022.1.3,Win32,59.44949765,62bbe60bf3d75ef465d3e404,,,,,,,space,31.0582,space,145.1527,space,105.6774,space,44.8448,space,11.9164,space,8.3213,"[-0.7412000000000001,-0.08239999999999992,-0.6864]",threeone,"[-0.8118,-0.8198,-0.5452]",-2,18.1792,-95,-34,1,0,0,response5disk_5,3,-2,1,0,0,rectangle_8,82,-52,1,0,0,response3disk_7,5,2,6,0,1,0,0,rectangle_4,0,0,0,0,1,,,,,,,,,,,,,,,,,,,,,,,,,,,,,,,,,,,,,,,,,,,,,,,,,,,,,,,,,,,,,,,,,,,,,,,,,,,,,,,,,,,,,,,,,,,,,,,,,,,,,,,,
,,,,,,6144742e57a61e489cc9e978,62bbfb0b48812590e721b555,2022-06-29_09h12.08.185,Colour_Asymmetry_Pilot,2022.1.3,Win32,59.44949765,62bbe60bf3d75ef465d3e404,,,,,,,,,,,,,,,,,,,"[0.2784,-0.31000000000000005,-0.5452]",fourthree,"[0.8274000000000001,-0.5844,-0.9452]",2,9.5326,99,-37,1,0,0,response3disk_5,-1,-7,1,0,0,rectangle_8,-1,-7,1,0,0,,,2,-1,-7,1,0,0,,1,0,1,0,1,,,,,,,,,,,,,,,,,,,,,,,,,,,,,,,,,,,,,,,,,,,,,,,,,,,,,,,,,,,,,,,,,,,,,,,,,,,,,,,,,,,,,,,,,,,,,,,,,,,,,,,,
,,,,,,6144742e57a61e489cc9e978,62bbfb0b48812590e721b555,2022-06-29_09h12.08.185,Colour_Asymmetry_Pilot,2022.1.3,Win32,59.44949765,62bbe60bf3d75ef465d3e404,,,,,,,,,,,,,,,,,,,"[-0.5452,-0.608,0.2470000000000001]",threeone,"[-0.9766,-0.6472,0.07440000000000002]",4,3.2546,48,99,1,0,0,response1disk_5,-7,-1,1,0,0,rectangle_8,-7,-1,1,0,0,,,2,-7,-1,1,0,0,,2,0,2,0,1,,,,,,,,,,,,,,,,,,,,,,,,,,,,,,,,,,,,,,,,,,,,,,,,,,,,,,,,,,,,,,,,,,,,,,,,,,,,,,,,,,,,,,,,,,,,,,,,,,,,,,,,
,,,,,,6144742e57a61e489cc9e978,62bbfb0b48812590e721b555,2022-06-29_09h12.08.185,Colour_Asymmetry_Pilot,2022.1.3,Win32,59.44949765,62bbe60bf3d75ef465d3e404,,,,,,,,,,,,,,,,,,,"[0.37240000000000006,0.4980000000000002,-0.2864]",onetwo,"[0.18419999999999992,-0.4276,-0.404]",-4,3.484,-52,67,1,0,0,response7disk_5,-3,-8,1,0,0,rectangle_8,-3,-8,1,0,0,,,2,-3,-8,1,0,0,,3,0,3,0,1,,,,,,,,,,,,,,,,,,,,,,,,,,,,,,,,,,,,,,,,,,,,,,,,,,,,,,,,,,,,,,,,,,,,,,,,,,,,,,,,,,,,,,,,,,,,,,,,,,,,,,,,
,,,,,,6144742e57a61e489cc9e978,62bbfb0b48812590e721b555,2022-06-29_09h12.08.185,Colour_Asymmetry_Pilot,2022.1.3,Win32,59.44949765,62bbe60bf3d75ef465d3e404,,,,,,,,,,,,,,,,,,,"[0.7176,-0.906,-0.6864]",onetwo,"[-0.07459999999999989,0.12139999999999995,-0.9922]",-4,2.1207,-33,38,1,0,0,response7disk_5,-17,5,1,0,0,rectangle_8,-17,5,1,0,0,,,2,-17,5,1,0,0,,4,0,4,0,1,,,,,,,,,,,,,,,,,,,,,,,,,,,,,,,,,,,,,,,,,,,,,,,,,,,,,,,,,,,,,,,,,,,,,,,,,,,,,,,,,,,,,,,,,,,,,,,,,,,,,,,,
,,,,,,6144742e57a61e489cc9e978,62bbfb0b48812590e721b555,2022-06-29_09h12.08.185,Colour_Asymmetry_Pilot,2022.1.3,Win32,59.44949765,62bbe60bf3d75ef465d3e404,,,,,,,,,,,,,,,,,,,"[0.05879999999999996,0.2784,0.5841999999999998]",twofour,"[-0.24719999999999998,0.5213999999999999,-0.12959999999999994]",-3,4.0661,-69,17,1,0,0,response7disk_5,-13,2,1,0,0,rectangle_8,96,-47,1,0,0,response3disk_7,5,2,0,-6,1,0,0,rectangle_4,5,0,5,0,1,,,,,,,,,,,,,,,,,,,,,,,,,,,,,,,,,,,,,,,,,,,,,,,,,,,,,,,,,,,,,,,,,,,,,,,,,,,,,,,,,,,,,,,,,,,,,,,,,,,,,,,,
,,,,,,6144742e57a61e489cc9e978,62bbfb0b48812590e721b555,2022-06-29_09h12.08.185,Colour_Asymmetry_Pilot,2022.1.3,Win32,59.44949765,62bbe60bf3d75ef465d3e404,,,,,,,,,,,,,,,,,,,"[-0.07459999999999989,0.12139999999999995,-0.9922]",twofour,"[0.2784,-0.31000000000000005,-0.5452]",-4,3.4039,-37,84,1,0,0,response7disk_5,2,0,1,0,0,rectangle_8,2,0,1,0,0,,,2,2,0,1,0,0,,6,0,6,0,1,,,,,,,,,,,,,,,,,,,,,,,,,,,,,,,,,,,,,,,,,,,,,,,,,,,,,,,,,,,,,,,,,,,,,,,,,,,,,,,,,,,,,,,,,,,,,,,,,,,,,,,,
,,,,,,6144742e57a61e489cc9e978,62bbfb0b48812590e721b555,2022-06-29_09h12.08.185,Colour_Asymmetry_Pilot,2022.1.3,Win32,59.44949765,62bbe60bf3d75ef465d3e404,,,,,,,,,,,,,,,,,,,,onetwo,,-4,1.703,,,,,,,,,,,,,,,,,,,,,,,,,,,,,,,,space,28.945,"[-0.9296,-0.12959999999999994,-0.043199999999999905]","[-0.2942,-0.7648,-0.7492000000000001]",-35,70,1,0,0,response7disk,12,0,1,0,0,rectangle,101,-41,1,0,0,response3disk_3,2,2,1.9199,1,18,-7,1,0,0,rectangle,0,0,0,161,1,80,second,,,,,,,,,,,,,,,,,,,,,,,,,,,,,,,,,,,,,,,,,,,,,,,,,,,,,,,,,,,,,,,,,
,,,,,,6144742e57a61e489cc9e978,62bbfb0b48812590e721b555,2022-06-29_09h12.08.185,Colour_Asymmetry_Pilot,2022.1.3,Win32,59.44949765,62bbe60bf3d75ef465d3e404,,,,,,,,,,,,,,,,,,,,threeone,,-3,5.2726,,,,,,,,,,,,,,,,,,,,,,,,,,,,,,,,,,"[0.18419999999999992,-0.4276,-0.404]","[0.3802000000000001,0.19199999999999995,-0.6394]",-74,34,1,0,0,response7disk,-8,2,1,0,0,rectangle,-8,2,1,0,0,,2,1,0.0036,0,-8,2,1,0,0,,0,1,1,108,1,27,second,,,,,,,,,,,,,,,,,,,,,,,,,,,,,,,,,,,,,,,,,,,,,,,,,,,,,,,,,,,,,,,,,
,,,,,,6144742e57a61e489cc9e978,62bbfb0b48812590e721b555,2022-06-29_09h12.08.185,Colour_Asymmetry_Pilot,2022.1.3,Win32,59.44949765,62bbe60bf3d75ef465d3e404,,,,,,,,,,,,,,,,,,,,fourtwo,,3,5.3,,,,,,,,,,,,,,,,,,,,,,,,,,,,,,,,,,"[0.18419999999999992,-0.4276,-0.404]","[0.30180000000000007,-0.7884,-0.9844]",86,26,1,0,0,response1disk,13,3,1,0,0,rectangle,13,3,1,0,0,,2,2,0.0012,0,13,3,1,0,0,,0,2,2,17,1,17,first,,,,,,,,,,,,,,,,,,,,,,,,,,,,,,,,,,,,,,,,,,,,,,,,,,,,,,,,,,,,,,,,,
,,,,,,6144742e57a61e489cc9e978,62bbfb0b48812590e721b555,2022-06-29_09h12.08.185,Colour_Asymmetry_Pilot,2022.1.3,Win32,59.44949765,62bbe60bf3d75ef465d3e404,,,,,,,,,,,,,,,,,,,,twofour,,-4,2.116,,,,,,,,,,,,,,,,,,,,,,,,,,,,,,,,,,"[-0.6706000000000001,-0.6157999999999999,-0.6786]","[0.3802000000000001,0.19199999999999995,-0.6394]",-45,89,1,0,0,response7disk,0,13,1,0,0,rectangle,47,-87,1,0,0,response3disk_3,1,1,2.7964,1,0,4,1,0,0,rectangle,0,3,3,104,1,23,second,,,,,,,,,,,,,,,,,,,,,,,,,,,,,,,,,,,,,,,,,,,,,,,,,,,,,,,,,,,,,,,,,
,,,,,,6144742e57a61e489cc9e978,62bbfb0b48812590e721b555,2022-06-29_09h12.08.185,Colour_Asymmetry_Pilot,2022.1.3,Win32,59.44949765,62bbe60bf3d75ef465d3e404,,,,,,,,,,,,,,,,,,,,threefour,,1,2.5002,,,,,,,,,,,,,,,,,,,,,,,,,,,,,,,,,,"[-0.9216,-0.5529999999999999,-0.3962]","[-0.20799999999999996,-0.655,-0.01980000000000004]",50,-71,1,0,0,response3disk,-14,12,1,0,0,rectangle,-14,12,1,0,0,,1,3,0.001,0,-14,12,1,0,0,,0,4,4,120,1,39,second,,,,,,,,,,,,,,,,,,,,,,,,,,,,,,,,,,,,,,,,,,,,,,,,,,,,,,,,,,,,,,,,,
,,,,,,6144742e57a61e489cc9e978,62bbfb0b48812590e721b555,2022-06-29_09h12.08.185,Colour_Asymmetry_Pilot,2022.1.3,Win32,59.44949765,62bbe60bf3d75ef465d3e404,,,,,,,,,,,,,,,,,,,,twofour,,-1,4.4116,,,,,,,,,,,,,,,,,,,,,,,,,,,,,,,,,,"[-0.9844,-0.9688,-0.9922]","[-0.6235999999999999,-0.6786,-0.08239999999999992]",-49,-101,1,0,0,response5disk,12,11,1,0,0,rectangle,12,11,1,0,0,,1,1,0.0011,0,12,11,1,0,0,,0,5,5,133,1,52,second,,,,,,,,,,,,,,,,,,,,,,,,,,,,,,,,,,,,,,,,,,,,,,,,,,,,,,,,,,,,,,,,,
,,,,,,6144742e57a61e489cc9e978,62bbfb0b48812590e721b555,2022-06-29_09h12.08.185,Colour_Asymmetry_Pilot,2022.1.3,Win32,59.44949765,62bbe60bf3d75ef465d3e404,,,,,,,,,,,,,,,,,,,,twoone,,-2,11.1488,,,,,,,,,,,,,,,,,,,,,,,,,,,,,,,,,,"[-0.17659999999999998,-0.2864,-0.8354]","[0.9686000000000001,0.5763999999999998,0.11359999999999992]",-85,-63,1,0,0,response5disk,1,3,1,0,0,rectangle,1,3,1,0,0,,1,3,0.0018,0,1,3,1,0,0,,0,6,6,157,1,76,second,,,,,,,,,,,,,,,,,,,,,,,,,,,,,,,,,,,,,,,,,,,,,,,,,,,,,,,,,,,,,,,,,
,,,,,,6144742e57a61e489cc9e978,62bbfb0b48812590e721b555,2022-06-29_09h12.08.185,Colour_Asymmetry_Pilot,2022.1.3,Win32,59.44949765,62bbe60bf3d75ef465d3e404,,,,,,,,,,,,,,,,,,,,threeone,,-4,1.8145,,,,,,,,,,,,,,,,,,,,,,,,,,,,,,,,,,"[1,0.12939999999999996,-1]","[-0.8982,-0.37259999999999993,0.2784]",-46,68,1,0,0,response7disk,12,6,1,0,0,rectangle,63,-82,1,0,0,response3disk_3,1,1,1.834,1,11,-5,1,0,0,rectangle,0,7,7,97,1,16,second,,,,,,,,,,,,,,,,,,,,,,,,,,,,,,,,,,,,,,,,,,,,,,,,,,,,,,,,,,,,,,,,,
,,,,,,6144742e57a61e489cc9e978,62bbfb0b48812590e721b555,2022-06-29_09h12.08.185,Colour_Asymmetry_Pilot,2022.1.3,Win32,59.44949765,62bbe60bf3d75ef465d3e404,,,,,,,,,,,,,,,,,,,,twofour,,1,10.303,,,,,,,,,,,,,,,,,,,,,,,,,,,,,,,,,,"[0.3802000000000001,0.19199999999999995,-0.6394]","[-0.4902000000000001,0.2704,-0.45899999999999996]",53,-72,1,0,0,response3disk,15,0,1,0,0,rectangle,15,0,1,0,0,,1,1,0.0009,0,15,0,1,0,0,,0,8,8,14,1,14,first,,,,,,,,,,,,,,,,,,,,,,,,,,,,,,,,,,,,,,,,,,,,,,,,,,,,,,,,,,,,,,,,,
,,,,,,6144742e57a61e489cc9e978,62bbfb0b48812590e721b555,2022-06-29_09h12.08.185,Colour_Asymmetry_Pilot,2022.1.3,Win32,59.44949765,62bbe60bf3d75ef465d3e404,,,,,,,,,,,,,,,,,,,,threeone,,-4,1.7663,,,,,,,,,,,,,,,,,,,,,,,,,,,,,,,,,,"[0.9372,0.20779999999999998,0.2704]","[-0.24719999999999998,0.5213999999999999,-0.12959999999999994]",-52,64,1,0,0,response7disk,11,-5,1,0,0,rectangle,11,-5,1,0,0,,1,3,0.0021,0,11,-5,1,0,0,,0,9,9,51,1,51,first,,,,,,,,,,,,,,,,,,,,,,,,,,,,,,,,,,,,,,,,,,,,,,,,,,,,,,,,,,,,,,,,,
,,,,,,6144742e57a61e489cc9e978,62bbfb0b48812590e721b555,2022-06-29_09h12.08.185,Colour_Asymmetry_Pilot,2022.1.3,Win32,59.44949765,62bbe60bf3d75ef465d3e404,,,,,,,,,,,,,,,,,,,,threeone,,-4,0.75,,,,,,,,,,,,,,,,,,,,,,,,,,,,,,,,,,"[0.9842,0.7409999999999999,-0.6628000000000001]","[-0.5922000000000001,-0.7492000000000001,-0.5296000000000001]",-35,54,1,0,0,response7disk,-5,2,1,0,0,rectangle,-5,2,1,0,0,,1,2,0.0015,0,-5,2,1,0,0,,0,10,10,128,1,47,second,,,,,,,,,,,,,,,,,,,,,,,,,,,,,,,,,,,,,,,,,,,,,,,,,,,,,,,,,,,,,,,,,
,,,,,,6144742e57a61e489cc9e978,62bbfb0b48812590e721b555,2022-06-29_09h12.08.185,Colour_Asymmetry_Pilot,2022.1.3,Win32,59.44949765,62bbe60bf3d75ef465d3e404,,,,,,,,,,,,,,,,,,,,twoone,,2,1.5495,,,,,,,,,,,,,,,,,,,,,,,,,,,,,,,,,,"[0.6547999999999998,-0.043199999999999905,-0.011800000000000033]","[0.9763999999999999,-0.1137999999999999,-0.6314]",80,-37,1,0,0,response3disk,17,-11,1,0,0,rectangle,17,-11,1,0,0,,1,3,0.0013,0,17,-11,1,0,0,,0,11,11,18,1,18,first,,,,,,,,,,,,,,,,,,,,,,,,,,,,,,,,,,,,,,,,,,,,,,,,,,,,,,,,,,,,,,,,,
,,,,,,6144742e57a61e489cc9e978,62bbfb0b48812590e721b555,2022-06-29_09h12.08.185,Colour_Asymmetry_Pilot,2022.1.3,Win32,59.44949765,62bbe60bf3d75ef465d3e404,,,,,,,,,,,,,,,,,,,,threefour,,3,2.2172,,,,,,,,,,,,,,,,,,,,,,,,,,,,,,,,,,"[0.4196,0.4665999999999999,0.3568]","[0.11359999999999992,0.6312,0.5213999999999999]",82,43,1,0,0,response1disk,31,6,1,0,0,rectangle,31,6,1,0,0,,1,2,0.0013,0,31,6,1,0,0,,0,12,12,150,1,69,second,,,,,,,,,,,,,,,,,,,,,,,,,,,,,,,,,,,,,,,,,,,,,,,,,,,,,,,,,,,,,,,,,
,,,,,,6144742e57a61e489cc9e978,62bbfb0b48812590e721b555,2022-06-29_09h12.08.185,Colour_Asymmetry_Pilot,2022.1.3,Win32,59.44949765,62bbe60bf3d75ef465d3e404,,,,,,,,,,,,,,,,,,,,threeone,,-4,1.4664,,,,,,,,,,,,,,,,,,,,,,,,,,,,,,,,,,"[-0.4982,-0.2942,-0.0354000000000001]","[-0.2942,-0.7648,-0.7492000000000001]",-47,64,1,0,0,response7disk,-10,9,1,0,0,rectangle,-10,9,1,0,0,,1,1,0.0012,0,-10,9,1,0,0,,0,13,13,0,1,0,first,,,,,,,,,,,,,,,,,,,,,,,,,,,,,,,,,,,,,,,,,,,,,,,,,,,,,,,,,,,,,,,,,
,,,,,,6144742e57a61e489cc9e978,62bbfb0b48812590e721b555,2022-06-29_09h12.08.185,Colour_Asymmetry_Pilot,2022.1.3,Win32,59.44949765,62bbe60bf3d75ef465d3e404,,,,,,,,,,,,,,,,,,,,fourtwo,,3,1.4837,,,,,,,,,,,,,,,,,,,,,,,,,,,,,,,,,,"[0.3802000000000001,0.19199999999999995,-0.6394]","[0.9842,0.7409999999999999,-0.6628000000000001]",67,38,1,0,0,response1disk,17,2,1,0,0,rectangle,17,2,1,0,0,,1,2,0.0012,0,17,2,1,0,0,,0,14,14,93,1,12,second,,,,,,,,,,,,,,,,,,,,,,,,,,,,,,,,,,,,,,,,,,,,,,,,,,,,,,,,,,,,,,,,,
,,,,,,6144742e57a61e489cc9e978,62bbfb0b48812590e721b555,2022-06-29_09h12.08.185,Colour_Asymmetry_Pilot,2022.1.3,Win32,59.44949765,62bbe60bf3d75ef465d3e404,,,,,,,,,,,,,,,,,,,,threefour,,2,1.0497,,,,,,,,,,,,,,,,,,,,,,,,,,,,,,,,,,"[0.7176,-0.906,-0.6864]","[-0.011800000000000033,-0.906,-0.45100000000000007]",63,-29,1,0,0,response3disk,15,-6,1,0,0,rectangle,15,-6,1,0,0,,1,2,0.0012,0,15,-6,1,0,0,,0,15,15,126,1,45,second,,,,,,,,,,,,,,,,,,,,,,,,,,,,,,,,,,,,,,,,,,,,,,,,,,,,,,,,,,,,,,,,,
,,,,,,6144742e57a61e489cc9e978,62bbfb0b48812590e721b555,2022-06-29_09h12.08.185,Colour_Asymmetry_Pilot,2022.1.3,Win32,59.44949765,62bbe60bf3d75ef465d3e404,,,,,,,,,,,,,,,,,,,,onetwo,,-3,0.9502,,,,,,,,,,,,,,,,,,,,,,,,,,,,,,,,,,"[-0.9138,-0.5296000000000001,-0.5529999999999999]","[0.8115999999999999,-0.0040000000000000036,-0.09819999999999995]",-64,64,1,0,0,response7disk,2,4,1,0,0,rectangle,2,4,1,0,0,,1,2,0.0019,0,2,4,1,0,0,,0,16,16,15,1,15,first,,,,,,,,,,,,,,,,,,,,,,,,,,,,,,,,,,,,,,,,,,,,,,,,,,,,,,,,,,,,,,,,,
,,,,,,6144742e57a61e489cc9e978,62bbfb0b48812590e721b555,2022-06-29_09h12.08.185,Colour_Asymmetry_Pilot,2022.1.3,Win32,59.44949765,62bbe60bf3d75ef465d3e404,,,,,,,,,,,,,,,,,,,,threeone,,-3,2.5835,,,,,,,,,,,,,,,,,,,,,,,,,,,,,,,,,,"[0.5528,0.7409999999999999,-0.71]","[-0.24719999999999998,-0.0354000000000001,0.3175999999999999]",-55,46,1,0,0,response7disk,15,3,1,0,0,rectangle,15,3,1,0,0,,1,1,0.0014,0,15,3,1,0,0,,0,17,17,151,1,70,second,,,,,,,,,,,,,,,,,,,,,,,,,,,,,,,,,,,,,,,,,,,,,,,,,,,,,,,,,,,,,,,,,
,,,,,,6144742e57a61e489cc9e978,62bbfb0b48812590e721b555,2022-06-29_09h12.08.185,Colour_Asymmetry_Pilot,2022.1.3,Win32,59.44949765,62bbe60bf3d75ef465d3e404,,,,,,,,,,,,,,,,,,,,fourthree,,-3,1.6667,,,,,,,,,,,,,,,,,,,,,,,,,,,,,,,,,,"[0.9686000000000001,0.5763999999999998,0.11359999999999992]","[-0.17659999999999998,-0.2864,-0.8354]",-90,37,1,0,0,response7disk,-6,11,1,0,0,rectangle,45,-70,1,0,0,response3disk_3,1,1,1.4665,1,-3,-8,1,0,0,rectangle,0,18,18,76,1,76,first,,,,,,,,,,,,,,,,,,,,,,,,,,,,,,,,,,,,,,,,,,,,,,,,,,,,,,,,,,,,,,,,,
,,,,,,6144742e57a61e489cc9e978,62bbfb0b48812590e721b555,2022-06-29_09h12.08.185,Colour_Asymmetry_Pilot,2022.1.3,Win32,59.44949765,62bbe60bf3d75ef465d3e404,,,,,,,,,,,,,,,,,,,,twoone,,-4,1.0994,,,,,,,,,,,,,,,,,,,,,,,,,,,,,,,,,,"[-0.8982,-0.37259999999999993,0.2784]","[-0.17659999999999998,-0.2864,-0.8354]",-38,68,1,0,0,response7disk,11,6,1,0,0,rectangle,11,6,1,0,0,,1,1,0.0018,0,11,6,1,0,0,,0,19,19,124,1,43,second,,,,,,,,,,,,,,,,,,,,,,,,,,,,,,,,,,,,,,,,,,,,,,,,,,,,,,,,,,,,,,,,,
,,,,,,6144742e57a61e489cc9e978,62bbfb0b48812590e721b555,2022-06-29_09h12.08.185,Colour_Asymmetry_Pilot,2022.1.3,Win32,59.44949765,62bbe60bf3d75ef465d3e404,,,,,,,,,,,,,,,,,,,,threefour,,-4,4.6494,,,,,,,,,,,,,,,,,,,,,,,,,,,,,,,,,,"[-0.9844,-0.9688,-0.9922]","[0.9842,0.7409999999999999,-0.6628000000000001]",-60,81,1,0,0,response7disk,0,-7,1,0,0,rectangle,53,-60,1,0,0,response3disk_3,1,1,1.2328,1,5,-5,1,0,0,rectangle,0,20,20,136,1,55,second,,,,,,,,,,,,,,,,,,,,,,,,,,,,,,,,,,,,,,,,,,,,,,,,,,,,,,,,,,,,,,,,,
