trials.thisRepN,trials.thisTrialN,trials.thisN,trials.thisIndex,trials.ran,Colourcodes,participant,session,date,expName,psychopyVersion,OS,frameRate,study_id,trials_4.thisRepN,trials_4.thisTrialN,trials_4.thisN,trials_4.thisIndex,trials_4.ran,StimulusPos,key_resp.keys,key_resp.rt,key_resp_2.keys,key_resp_2.rt,key_resp_15.keys,key_resp_15.rt,key_resp_17.keys,key_resp_17.rt,key_resp_9.keys,key_resp_9.rt,key_resp_10.keys,key_resp_10.rt,Circle1_col,Ecc,Circle2_col,similarity,response_time,mouse_5.x,mouse_5.y,mouse_5.leftButton,mouse_5.midButton,mouse_5.rightButton,mouse_5.clicked_name,mouse_10.x,mouse_10.y,mouse_10.leftButton,mouse_10.midButton,mouse_10.rightButton,mouse_10.clicked_name,mouse_7.x,mouse_7.y,mouse_7.leftButton,mouse_7.midButton,mouse_7.rightButton,mouse_7.clicked_name,catchprac,catchnumberprac,mouse_6.x,mouse_6.y,mouse_6.leftButton,mouse_6.midButton,mouse_6.rightButton,mouse_6.clicked_name,duringprac.thisRepN,duringprac.thisTrialN,duringprac.thisN,duringprac.thisIndex,duringprac.ran,key_resp_22.keys,key_resp_22.rt,Circle1_colour,Circle2_colour,mouse.x,mouse.y,mouse.leftButton,mouse.midButton,mouse.rightButton,mouse.clicked_name,mouse_2.x,mouse_2.y,mouse_2.leftButton,mouse_2.midButton,mouse_2.rightButton,mouse_2.clicked_name,mouse_3.x,mouse_3.y,mouse_3.leftButton,mouse_3.midButton,mouse_3.rightButton,catchresponse,catchnumber,response_time_catch,Catch,mouse_11.x,mouse_11.y,mouse_11.leftButton,mouse_11.midButton,mouse_11.rightButton,trials_2.thisRepN,trials_2.thisTrialN,trials_2.thisN,trials_2.thisIndex,trials_2.ran,Colourpair,Temporder,mouse_3.clicked_name,mouse_11.clicked_name,trials_3.thisRepN,trials_3.thisTrialN,trials_3.thisN,trials_3.thisIndex,trials_3.ran,key_resp_instr_Ishi.keys,key_resp_instr_Ishi.rt,Ishi_trial_keyresp.keys,Ishi_trial_keyresp.rt,Ishi_textbox.text,Ishi_loop.thisRepN,Ishi_loop.thisTrialN,Ishi_loop.thisN,Ishi_loop.thisIndex,Ishi_loop.ran,imageaddress,textbox.text,mouse_4.x,mouse_4.y,mouse_4.leftButton,mouse_4.midButton,mouse_4.rightButton,mouse_4.clicked_name,textbox_2.text,mouse_8.x,mouse_8.y,mouse_8.leftButton,mouse_8.midButton,mouse_8.rightButton,mouse_8.clicked_name,textbox_3.text,mouse_9.x,mouse_9.y,mouse_9.leftButton,mouse_9.midButton,mouse_9.rightButton,mouse_9.clicked_name,textbox_4.text,mouse_12.x,mouse_12.y,mouse_12.leftButton,mouse_12.midButton,mouse_12.rightButton,mouse_12.clicked_name,textbox_5.text,mouse_13.x,mouse_13.y,mouse_13.leftButton,mouse_13.midButton,mouse_13.rightButton,mouse_13.clicked_name,textbox_6.text,mouse_14.x,mouse_14.y,mouse_14.leftButton,mouse_14.midButton,mouse_14.rightButton,mouse_14.clicked_name,textbox_7.text,mouse_15.x,mouse_15.y,mouse_15.leftButton,mouse_15.midButton,mouse_15.rightButton,mouse_15.clicked_name
0,0,0,57,1,,5cd30b2041a6b8001874c41f,62bbfb44edf162ffcb6a7dd8,2022-06-29_10h15.25.118,Colour_Asymmetry_Pilot,2022.1.3,Win32,59.95922773,62bbe60bf3d75ef465d3e404,,,,,,,,,,,,,,,,,,,,,,,,,,,,,,,,,,,,,,,,,,,,,,,,,,,,,,,,,,,,,,,,,,,,,,,,,,,,,,,,,,,,,,,,,,,,,,,,,,,,,,,,,,,,,,,,,,,,,,,,,,,,,,,,,,,,,,,,,,,,,,,,,,,,,,,,,,,,,,
0,1,1,7,1,,5cd30b2041a6b8001874c41f,62bbfb44edf162ffcb6a7dd8,2022-06-29_10h15.25.118,Colour_Asymmetry_Pilot,2022.1.3,Win32,59.95922773,62bbe60bf3d75ef465d3e404,,,,,,,,,,,,,,,,,,,,,,,,,,,,,,,,,,,,,,,,,,,,,,,,,,,,,,,,,,,,,,,,,,,,,,,,,,,,,,,,,,,,,,,,,,,,,,,,,,,,,,,,,,,,,,,,,,,,,,,,,,,,,,,,,,,,,,,,,,,,,,,,,,,,,,,,,,,,,,
0,2,2,90,1,,5cd30b2041a6b8001874c41f,62bbfb44edf162ffcb6a7dd8,2022-06-29_10h15.25.118,Colour_Asymmetry_Pilot,2022.1.3,Win32,59.95922773,62bbe60bf3d75ef465d3e404,,,,,,,,,,,,,,,,,,,,,,,,,,,,,,,,,,,,,,,,,,,,,,,,,,,,,,,,,,,,,,,,,,,,,,,,,,,,,,,,,,,,,,,,,,,,,,,,,,,,,,,,,,,,,,,,,,,,,,,,,,,,,,,,,,,,,,,,,,,,,,,,,,,,,,,,,,,,,,
0,3,3,58,1,,5cd30b2041a6b8001874c41f,62bbfb44edf162ffcb6a7dd8,2022-06-29_10h15.25.118,Colour_Asymmetry_Pilot,2022.1.3,Win32,59.95922773,62bbe60bf3d75ef465d3e404,,,,,,,,,,,,,,,,,,,,,,,,,,,,,,,,,,,,,,,,,,,,,,,,,,,,,,,,,,,,,,,,,,,,,,,,,,,,,,,,,,,,,,,,,,,,,,,,,,,,,,,,,,,,,,,,,,,,,,,,,,,,,,,,,,,,,,,,,,,,,,,,,,,,,,,,,,,,,,
0,4,4,41,1,,5cd30b2041a6b8001874c41f,62bbfb44edf162ffcb6a7dd8,2022-06-29_10h15.25.118,Colour_Asymmetry_Pilot,2022.1.3,Win32,59.95922773,62bbe60bf3d75ef465d3e404,,,,,,,,,,,,,,,,,,,,,,,,,,,,,,,,,,,,,,,,,,,,,,,,,,,,,,,,,,,,,,,,,,,,,,,,,,,,,,,,,,,,,,,,,,,,,,,,,,,,,,,,,,,,,,,,,,,,,,,,,,,,,,,,,,,,,,,,,,,,,,,,,,,,,,,,,,,,,,
0,5,5,50,1,,5cd30b2041a6b8001874c41f,62bbfb44edf162ffcb6a7dd8,2022-06-29_10h15.25.118,Colour_Asymmetry_Pilot,2022.1.3,Win32,59.95922773,62bbe60bf3d75ef465d3e404,,,,,,,,,,,,,,,,,,,,,,,,,,,,,,,,,,,,,,,,,,,,,,,,,,,,,,,,,,,,,,,,,,,,,,,,,,,,,,,,,,,,,,,,,,,,,,,,,,,,,,,,,,,,,,,,,,,,,,,,,,,,,,,,,,,,,,,,,,,,,,,,,,,,,,,,,,,,,,
0,6,6,74,1,,5cd30b2041a6b8001874c41f,62bbfb44edf162ffcb6a7dd8,2022-06-29_10h15.25.118,Colour_Asymmetry_Pilot,2022.1.3,Win32,59.95922773,62bbe60bf3d75ef465d3e404,,,,,,,,,,,,,,,,,,,,,,,,,,,,,,,,,,,,,,,,,,,,,,,,,,,,,,,,,,,,,,,,,,,,,,,,,,,,,,,,,,,,,,,,,,,,,,,,,,,,,,,,,,,,,,,,,,,,,,,,,,,,,,,,,,,,,,,,,,,,,,,,,,,,,,,,,,,,,,
0,7,7,55,1,,5cd30b2041a6b8001874c41f,62bbfb44edf162ffcb6a7dd8,2022-06-29_10h15.25.118,Colour_Asymmetry_Pilot,2022.1.3,Win32,59.95922773,62bbe60bf3d75ef465d3e404,,,,,,,,,,,,,,,,,,,,,,,,,,,,,,,,,,,,,,,,,,,,,,,,,,,,,,,,,,,,,,,,,,,,,,,,,,,,,,,,,,,,,,,,,,,,,,,,,,,,,,,,,,,,,,,,,,,,,,,,,,,,,,,,,,,,,,,,,,,,,,,,,,,,,,,,,,,,,,
0,8,8,12,1,,5cd30b2041a6b8001874c41f,62bbfb44edf162ffcb6a7dd8,2022-06-29_10h15.25.118,Colour_Asymmetry_Pilot,2022.1.3,Win32,59.95922773,62bbe60bf3d75ef465d3e404,,,,,,,,,,,,,,,,,,,,,,,,,,,,,,,,,,,,,,,,,,,,,,,,,,,,,,,,,,,,,,,,,,,,,,,,,,,,,,,,,,,,,,,,,,,,,,,,,,,,,,,,,,,,,,,,,,,,,,,,,,,,,,,,,,,,,,,,,,,,,,,,,,,,,,,,,,,,,,
0,9,9,72,1,,5cd30b2041a6b8001874c41f,62bbfb44edf162ffcb6a7dd8,2022-06-29_10h15.25.118,Colour_Asymmetry_Pilot,2022.1.3,Win32,59.95922773,62bbe60bf3d75ef465d3e404,,,,,,,,,,,,,,,,,,,,,,,,,,,,,,,,,,,,,,,,,,,,,,,,,,,,,,,,,,,,,,,,,,,,,,,,,,,,,,,,,,,,,,,,,,,,,,,,,,,,,,,,,,,,,,,,,,,,,,,,,,,,,,,,,,,,,,,,,,,,,,,,,,,,,,,,,,,,,,
0,10,10,1,1,,5cd30b2041a6b8001874c41f,62bbfb44edf162ffcb6a7dd8,2022-06-29_10h15.25.118,Colour_Asymmetry_Pilot,2022.1.3,Win32,59.95922773,62bbe60bf3d75ef465d3e404,,,,,,,,,,,,,,,,,,,,,,,,,,,,,,,,,,,,,,,,,,,,,,,,,,,,,,,,,,,,,,,,,,,,,,,,,,,,,,,,,,,,,,,,,,,,,,,,,,,,,,,,,,,,,,,,,,,,,,,,,,,,,,,,,,,,,,,,,,,,,,,,,,,,,,,,,,,,,,
0,11,11,34,1,,5cd30b2041a6b8001874c41f,62bbfb44edf162ffcb6a7dd8,2022-06-29_10h15.25.118,Colour_Asymmetry_Pilot,2022.1.3,Win32,59.95922773,62bbe60bf3d75ef465d3e404,,,,,,,,,,,,,,,,,,,,,,,,,,,,,,,,,,,,,,,,,,,,,,,,,,,,,,,,,,,,,,,,,,,,,,,,,,,,,,,,,,,,,,,,,,,,,,,,,,,,,,,,,,,,,,,,,,,,,,,,,,,,,,,,,,,,,,,,,,,,,,,,,,,,,,,,,,,,,,
0,12,12,47,1,,5cd30b2041a6b8001874c41f,62bbfb44edf162ffcb6a7dd8,2022-06-29_10h15.25.118,Colour_Asymmetry_Pilot,2022.1.3,Win32,59.95922773,62bbe60bf3d75ef465d3e404,,,,,,,,,,,,,,,,,,,,,,,,,,,,,,,,,,,,,,,,,,,,,,,,,,,,,,,,,,,,,,,,,,,,,,,,,,,,,,,,,,,,,,,,,,,,,,,,,,,,,,,,,,,,,,,,,,,,,,,,,,,,,,,,,,,,,,,,,,,,,,,,,,,,,,,,,,,,,,
0,13,13,92,1,,5cd30b2041a6b8001874c41f,62bbfb44edf162ffcb6a7dd8,2022-06-29_10h15.25.118,Colour_Asymmetry_Pilot,2022.1.3,Win32,59.95922773,62bbe60bf3d75ef465d3e404,,,,,,,,,,,,,,,,,,,,,,,,,,,,,,,,,,,,,,,,,,,,,,,,,,,,,,,,,,,,,,,,,,,,,,,,,,,,,,,,,,,,,,,,,,,,,,,,,,,,,,,,,,,,,,,,,,,,,,,,,,,,,,,,,,,,,,,,,,,,,,,,,,,,,,,,,,,,,,
0,14,14,53,1,,5cd30b2041a6b8001874c41f,62bbfb44edf162ffcb6a7dd8,2022-06-29_10h15.25.118,Colour_Asymmetry_Pilot,2022.1.3,Win32,59.95922773,62bbe60bf3d75ef465d3e404,,,,,,,,,,,,,,,,,,,,,,,,,,,,,,,,,,,,,,,,,,,,,,,,,,,,,,,,,,,,,,,,,,,,,,,,,,,,,,,,,,,,,,,,,,,,,,,,,,,,,,,,,,,,,,,,,,,,,,,,,,,,,,,,,,,,,,,,,,,,,,,,,,,,,,,,,,,,,,
0,15,15,2,1,,5cd30b2041a6b8001874c41f,62bbfb44edf162ffcb6a7dd8,2022-06-29_10h15.25.118,Colour_Asymmetry_Pilot,2022.1.3,Win32,59.95922773,62bbe60bf3d75ef465d3e404,,,,,,,,,,,,,,,,,,,,,,,,,,,,,,,,,,,,,,,,,,,,,,,,,,,,,,,,,,,,,,,,,,,,,,,,,,,,,,,,,,,,,,,,,,,,,,,,,,,,,,,,,,,,,,,,,,,,,,,,,,,,,,,,,,,,,,,,,,,,,,,,,,,,,,,,,,,,,,
0,16,16,45,1,,5cd30b2041a6b8001874c41f,62bbfb44edf162ffcb6a7dd8,2022-06-29_10h15.25.118,Colour_Asymmetry_Pilot,2022.1.3,Win32,59.95922773,62bbe60bf3d75ef465d3e404,,,,,,,,,,,,,,,,,,,,,,,,,,,,,,,,,,,,,,,,,,,,,,,,,,,,,,,,,,,,,,,,,,,,,,,,,,,,,,,,,,,,,,,,,,,,,,,,,,,,,,,,,,,,,,,,,,,,,,,,,,,,,,,,,,,,,,,,,,,,,,,,,,,,,,,,,,,,,,
0,17,17,64,1,,5cd30b2041a6b8001874c41f,62bbfb44edf162ffcb6a7dd8,2022-06-29_10h15.25.118,Colour_Asymmetry_Pilot,2022.1.3,Win32,59.95922773,62bbe60bf3d75ef465d3e404,,,,,,,,,,,,,,,,,,,,,,,,,,,,,,,,,,,,,,,,,,,,,,,,,,,,,,,,,,,,,,,,,,,,,,,,,,,,,,,,,,,,,,,,,,,,,,,,,,,,,,,,,,,,,,,,,,,,,,,,,,,,,,,,,,,,,,,,,,,,,,,,,,,,,,,,,,,,,,
0,18,18,86,1,,5cd30b2041a6b8001874c41f,62bbfb44edf162ffcb6a7dd8,2022-06-29_10h15.25.118,Colour_Asymmetry_Pilot,2022.1.3,Win32,59.95922773,62bbe60bf3d75ef465d3e404,,,,,,,,,,,,,,,,,,,,,,,,,,,,,,,,,,,,,,,,,,,,,,,,,,,,,,,,,,,,,,,,,,,,,,,,,,,,,,,,,,,,,,,,,,,,,,,,,,,,,,,,,,,,,,,,,,,,,,,,,,,,,,,,,,,,,,,,,,,,,,,,,,,,,,,,,,,,,,
0,19,19,0,1,,5cd30b2041a6b8001874c41f,62bbfb44edf162ffcb6a7dd8,2022-06-29_10h15.25.118,Colour_Asymmetry_Pilot,2022.1.3,Win32,59.95922773,62bbe60bf3d75ef465d3e404,,,,,,,,,,,,,,,,,,,,,,,,,,,,,,,,,,,,,,,,,,,,,,,,,,,,,,,,,,,,,,,,,,,,,,,,,,,,,,,,,,,,,,,,,,,,,,,,,,,,,,,,,,,,,,,,,,,,,,,,,,,,,,,,,,,,,,,,,,,,,,,,,,,,,,,,,,,,,,
0,20,20,31,1,,5cd30b2041a6b8001874c41f,62bbfb44edf162ffcb6a7dd8,2022-06-29_10h15.25.118,Colour_Asymmetry_Pilot,2022.1.3,Win32,59.95922773,62bbe60bf3d75ef465d3e404,,,,,,,,,,,,,,,,,,,,,,,,,,,,,,,,,,,,,,,,,,,,,,,,,,,,,,,,,,,,,,,,,,,,,,,,,,,,,,,,,,,,,,,,,,,,,,,,,,,,,,,,,,,,,,,,,,,,,,,,,,,,,,,,,,,,,,,,,,,,,,,,,,,,,,,,,,,,,,
0,21,21,65,1,,5cd30b2041a6b8001874c41f,62bbfb44edf162ffcb6a7dd8,2022-06-29_10h15.25.118,Colour_Asymmetry_Pilot,2022.1.3,Win32,59.95922773,62bbe60bf3d75ef465d3e404,,,,,,,,,,,,,,,,,,,,,,,,,,,,,,,,,,,,,,,,,,,,,,,,,,,,,,,,,,,,,,,,,,,,,,,,,,,,,,,,,,,,,,,,,,,,,,,,,,,,,,,,,,,,,,,,,,,,,,,,,,,,,,,,,,,,,,,,,,,,,,,,,,,,,,,,,,,,,,
0,22,22,36,1,,5cd30b2041a6b8001874c41f,62bbfb44edf162ffcb6a7dd8,2022-06-29_10h15.25.118,Colour_Asymmetry_Pilot,2022.1.3,Win32,59.95922773,62bbe60bf3d75ef465d3e404,,,,,,,,,,,,,,,,,,,,,,,,,,,,,,,,,,,,,,,,,,,,,,,,,,,,,,,,,,,,,,,,,,,,,,,,,,,,,,,,,,,,,,,,,,,,,,,,,,,,,,,,,,,,,,,,,,,,,,,,,,,,,,,,,,,,,,,,,,,,,,,,,,,,,,,,,,,,,,
0,23,23,33,1,,5cd30b2041a6b8001874c41f,62bbfb44edf162ffcb6a7dd8,2022-06-29_10h15.25.118,Colour_Asymmetry_Pilot,2022.1.3,Win32,59.95922773,62bbe60bf3d75ef465d3e404,,,,,,,,,,,,,,,,,,,,,,,,,,,,,,,,,,,,,,,,,,,,,,,,,,,,,,,,,,,,,,,,,,,,,,,,,,,,,,,,,,,,,,,,,,,,,,,,,,,,,,,,,,,,,,,,,,,,,,,,,,,,,,,,,,,,,,,,,,,,,,,,,,,,,,,,,,,,,,
0,24,24,63,1,,5cd30b2041a6b8001874c41f,62bbfb44edf162ffcb6a7dd8,2022-06-29_10h15.25.118,Colour_Asymmetry_Pilot,2022.1.3,Win32,59.95922773,62bbe60bf3d75ef465d3e404,,,,,,,,,,,,,,,,,,,,,,,,,,,,,,,,,,,,,,,,,,,,,,,,,,,,,,,,,,,,,,,,,,,,,,,,,,,,,,,,,,,,,,,,,,,,,,,,,,,,,,,,,,,,,,,,,,,,,,,,,,,,,,,,,,,,,,,,,,,,,,,,,,,,,,,,,,,,,,
0,25,25,69,1,,5cd30b2041a6b8001874c41f,62bbfb44edf162ffcb6a7dd8,2022-06-29_10h15.25.118,Colour_Asymmetry_Pilot,2022.1.3,Win32,59.95922773,62bbe60bf3d75ef465d3e404,,,,,,,,,,,,,,,,,,,,,,,,,,,,,,,,,,,,,,,,,,,,,,,,,,,,,,,,,,,,,,,,,,,,,,,,,,,,,,,,,,,,,,,,,,,,,,,,,,,,,,,,,,,,,,,,,,,,,,,,,,,,,,,,,,,,,,,,,,,,,,,,,,,,,,,,,,,,,,
0,26,26,32,1,,5cd30b2041a6b8001874c41f,62bbfb44edf162ffcb6a7dd8,2022-06-29_10h15.25.118,Colour_Asymmetry_Pilot,2022.1.3,Win32,59.95922773,62bbe60bf3d75ef465d3e404,,,,,,,,,,,,,,,,,,,,,,,,,,,,,,,,,,,,,,,,,,,,,,,,,,,,,,,,,,,,,,,,,,,,,,,,,,,,,,,,,,,,,,,,,,,,,,,,,,,,,,,,,,,,,,,,,,,,,,,,,,,,,,,,,,,,,,,,,,,,,,,,,,,,,,,,,,,,,,
0,27,27,26,1,,5cd30b2041a6b8001874c41f,62bbfb44edf162ffcb6a7dd8,2022-06-29_10h15.25.118,Colour_Asymmetry_Pilot,2022.1.3,Win32,59.95922773,62bbe60bf3d75ef465d3e404,,,,,,,,,,,,,,,,,,,,,,,,,,,,,,,,,,,,,,,,,,,,,,,,,,,,,,,,,,,,,,,,,,,,,,,,,,,,,,,,,,,,,,,,,,,,,,,,,,,,,,,,,,,,,,,,,,,,,,,,,,,,,,,,,,,,,,,,,,,,,,,,,,,,,,,,,,,,,,
0,28,28,78,1,,5cd30b2041a6b8001874c41f,62bbfb44edf162ffcb6a7dd8,2022-06-29_10h15.25.118,Colour_Asymmetry_Pilot,2022.1.3,Win32,59.95922773,62bbe60bf3d75ef465d3e404,,,,,,,,,,,,,,,,,,,,,,,,,,,,,,,,,,,,,,,,,,,,,,,,,,,,,,,,,,,,,,,,,,,,,,,,,,,,,,,,,,,,,,,,,,,,,,,,,,,,,,,,,,,,,,,,,,,,,,,,,,,,,,,,,,,,,,,,,,,,,,,,,,,,,,,,,,,,,,
0,29,29,17,1,,5cd30b2041a6b8001874c41f,62bbfb44edf162ffcb6a7dd8,2022-06-29_10h15.25.118,Colour_Asymmetry_Pilot,2022.1.3,Win32,59.95922773,62bbe60bf3d75ef465d3e404,,,,,,,,,,,,,,,,,,,,,,,,,,,,,,,,,,,,,,,,,,,,,,,,,,,,,,,,,,,,,,,,,,,,,,,,,,,,,,,,,,,,,,,,,,,,,,,,,,,,,,,,,,,,,,,,,,,,,,,,,,,,,,,,,,,,,,,,,,,,,,,,,,,,,,,,,,,,,,
0,30,30,29,1,,5cd30b2041a6b8001874c41f,62bbfb44edf162ffcb6a7dd8,2022-06-29_10h15.25.118,Colour_Asymmetry_Pilot,2022.1.3,Win32,59.95922773,62bbe60bf3d75ef465d3e404,,,,,,,,,,,,,,,,,,,,,,,,,,,,,,,,,,,,,,,,,,,,,,,,,,,,,,,,,,,,,,,,,,,,,,,,,,,,,,,,,,,,,,,,,,,,,,,,,,,,,,,,,,,,,,,,,,,,,,,,,,,,,,,,,,,,,,,,,,,,,,,,,,,,,,,,,,,,,,
0,31,31,15,1,,5cd30b2041a6b8001874c41f,62bbfb44edf162ffcb6a7dd8,2022-06-29_10h15.25.118,Colour_Asymmetry_Pilot,2022.1.3,Win32,59.95922773,62bbe60bf3d75ef465d3e404,,,,,,,,,,,,,,,,,,,,,,,,,,,,,,,,,,,,,,,,,,,,,,,,,,,,,,,,,,,,,,,,,,,,,,,,,,,,,,,,,,,,,,,,,,,,,,,,,,,,,,,,,,,,,,,,,,,,,,,,,,,,,,,,,,,,,,,,,,,,,,,,,,,,,,,,,,,,,,
0,32,32,13,1,,5cd30b2041a6b8001874c41f,62bbfb44edf162ffcb6a7dd8,2022-06-29_10h15.25.118,Colour_Asymmetry_Pilot,2022.1.3,Win32,59.95922773,62bbe60bf3d75ef465d3e404,,,,,,,,,,,,,,,,,,,,,,,,,,,,,,,,,,,,,,,,,,,,,,,,,,,,,,,,,,,,,,,,,,,,,,,,,,,,,,,,,,,,,,,,,,,,,,,,,,,,,,,,,,,,,,,,,,,,,,,,,,,,,,,,,,,,,,,,,,,,,,,,,,,,,,,,,,,,,,
0,33,33,25,1,,5cd30b2041a6b8001874c41f,62bbfb44edf162ffcb6a7dd8,2022-06-29_10h15.25.118,Colour_Asymmetry_Pilot,2022.1.3,Win32,59.95922773,62bbe60bf3d75ef465d3e404,,,,,,,,,,,,,,,,,,,,,,,,,,,,,,,,,,,,,,,,,,,,,,,,,,,,,,,,,,,,,,,,,,,,,,,,,,,,,,,,,,,,,,,,,,,,,,,,,,,,,,,,,,,,,,,,,,,,,,,,,,,,,,,,,,,,,,,,,,,,,,,,,,,,,,,,,,,,,,
0,34,34,59,1,,5cd30b2041a6b8001874c41f,62bbfb44edf162ffcb6a7dd8,2022-06-29_10h15.25.118,Colour_Asymmetry_Pilot,2022.1.3,Win32,59.95922773,62bbe60bf3d75ef465d3e404,,,,,,,,,,,,,,,,,,,,,,,,,,,,,,,,,,,,,,,,,,,,,,,,,,,,,,,,,,,,,,,,,,,,,,,,,,,,,,,,,,,,,,,,,,,,,,,,,,,,,,,,,,,,,,,,,,,,,,,,,,,,,,,,,,,,,,,,,,,,,,,,,,,,,,,,,,,,,,
0,35,35,66,1,,5cd30b2041a6b8001874c41f,62bbfb44edf162ffcb6a7dd8,2022-06-29_10h15.25.118,Colour_Asymmetry_Pilot,2022.1.3,Win32,59.95922773,62bbe60bf3d75ef465d3e404,,,,,,,,,,,,,,,,,,,,,,,,,,,,,,,,,,,,,,,,,,,,,,,,,,,,,,,,,,,,,,,,,,,,,,,,,,,,,,,,,,,,,,,,,,,,,,,,,,,,,,,,,,,,,,,,,,,,,,,,,,,,,,,,,,,,,,,,,,,,,,,,,,,,,,,,,,,,,,
0,36,36,11,1,,5cd30b2041a6b8001874c41f,62bbfb44edf162ffcb6a7dd8,2022-06-29_10h15.25.118,Colour_Asymmetry_Pilot,2022.1.3,Win32,59.95922773,62bbe60bf3d75ef465d3e404,,,,,,,,,,,,,,,,,,,,,,,,,,,,,,,,,,,,,,,,,,,,,,,,,,,,,,,,,,,,,,,,,,,,,,,,,,,,,,,,,,,,,,,,,,,,,,,,,,,,,,,,,,,,,,,,,,,,,,,,,,,,,,,,,,,,,,,,,,,,,,,,,,,,,,,,,,,,,,
0,37,37,43,1,,5cd30b2041a6b8001874c41f,62bbfb44edf162ffcb6a7dd8,2022-06-29_10h15.25.118,Colour_Asymmetry_Pilot,2022.1.3,Win32,59.95922773,62bbe60bf3d75ef465d3e404,,,,,,,,,,,,,,,,,,,,,,,,,,,,,,,,,,,,,,,,,,,,,,,,,,,,,,,,,,,,,,,,,,,,,,,,,,,,,,,,,,,,,,,,,,,,,,,,,,,,,,,,,,,,,,,,,,,,,,,,,,,,,,,,,,,,,,,,,,,,,,,,,,,,,,,,,,,,,,
0,38,38,4,1,,5cd30b2041a6b8001874c41f,62bbfb44edf162ffcb6a7dd8,2022-06-29_10h15.25.118,Colour_Asymmetry_Pilot,2022.1.3,Win32,59.95922773,62bbe60bf3d75ef465d3e404,,,,,,,,,,,,,,,,,,,,,,,,,,,,,,,,,,,,,,,,,,,,,,,,,,,,,,,,,,,,,,,,,,,,,,,,,,,,,,,,,,,,,,,,,,,,,,,,,,,,,,,,,,,,,,,,,,,,,,,,,,,,,,,,,,,,,,,,,,,,,,,,,,,,,,,,,,,,,,
0,39,39,51,1,,5cd30b2041a6b8001874c41f,62bbfb44edf162ffcb6a7dd8,2022-06-29_10h15.25.118,Colour_Asymmetry_Pilot,2022.1.3,Win32,59.95922773,62bbe60bf3d75ef465d3e404,,,,,,,,,,,,,,,,,,,,,,,,,,,,,,,,,,,,,,,,,,,,,,,,,,,,,,,,,,,,,,,,,,,,,,,,,,,,,,,,,,,,,,,,,,,,,,,,,,,,,,,,,,,,,,,,,,,,,,,,,,,,,,,,,,,,,,,,,,,,,,,,,,,,,,,,,,,,,,
0,40,40,61,1,,5cd30b2041a6b8001874c41f,62bbfb44edf162ffcb6a7dd8,2022-06-29_10h15.25.118,Colour_Asymmetry_Pilot,2022.1.3,Win32,59.95922773,62bbe60bf3d75ef465d3e404,,,,,,,,,,,,,,,,,,,,,,,,,,,,,,,,,,,,,,,,,,,,,,,,,,,,,,,,,,,,,,,,,,,,,,,,,,,,,,,,,,,,,,,,,,,,,,,,,,,,,,,,,,,,,,,,,,,,,,,,,,,,,,,,,,,,,,,,,,,,,,,,,,,,,,,,,,,,,,
0,41,41,49,1,,5cd30b2041a6b8001874c41f,62bbfb44edf162ffcb6a7dd8,2022-06-29_10h15.25.118,Colour_Asymmetry_Pilot,2022.1.3,Win32,59.95922773,62bbe60bf3d75ef465d3e404,,,,,,,,,,,,,,,,,,,,,,,,,,,,,,,,,,,,,,,,,,,,,,,,,,,,,,,,,,,,,,,,,,,,,,,,,,,,,,,,,,,,,,,,,,,,,,,,,,,,,,,,,,,,,,,,,,,,,,,,,,,,,,,,,,,,,,,,,,,,,,,,,,,,,,,,,,,,,,
0,42,42,84,1,,5cd30b2041a6b8001874c41f,62bbfb44edf162ffcb6a7dd8,2022-06-29_10h15.25.118,Colour_Asymmetry_Pilot,2022.1.3,Win32,59.95922773,62bbe60bf3d75ef465d3e404,,,,,,,,,,,,,,,,,,,,,,,,,,,,,,,,,,,,,,,,,,,,,,,,,,,,,,,,,,,,,,,,,,,,,,,,,,,,,,,,,,,,,,,,,,,,,,,,,,,,,,,,,,,,,,,,,,,,,,,,,,,,,,,,,,,,,,,,,,,,,,,,,,,,,,,,,,,,,,
0,43,43,24,1,,5cd30b2041a6b8001874c41f,62bbfb44edf162ffcb6a7dd8,2022-06-29_10h15.25.118,Colour_Asymmetry_Pilot,2022.1.3,Win32,59.95922773,62bbe60bf3d75ef465d3e404,,,,,,,,,,,,,,,,,,,,,,,,,,,,,,,,,,,,,,,,,,,,,,,,,,,,,,,,,,,,,,,,,,,,,,,,,,,,,,,,,,,,,,,,,,,,,,,,,,,,,,,,,,,,,,,,,,,,,,,,,,,,,,,,,,,,,,,,,,,,,,,,,,,,,,,,,,,,,,
0,44,44,91,1,,5cd30b2041a6b8001874c41f,62bbfb44edf162ffcb6a7dd8,2022-06-29_10h15.25.118,Colour_Asymmetry_Pilot,2022.1.3,Win32,59.95922773,62bbe60bf3d75ef465d3e404,,,,,,,,,,,,,,,,,,,,,,,,,,,,,,,,,,,,,,,,,,,,,,,,,,,,,,,,,,,,,,,,,,,,,,,,,,,,,,,,,,,,,,,,,,,,,,,,,,,,,,,,,,,,,,,,,,,,,,,,,,,,,,,,,,,,,,,,,,,,,,,,,,,,,,,,,,,,,,
0,45,45,39,1,,5cd30b2041a6b8001874c41f,62bbfb44edf162ffcb6a7dd8,2022-06-29_10h15.25.118,Colour_Asymmetry_Pilot,2022.1.3,Win32,59.95922773,62bbe60bf3d75ef465d3e404,,,,,,,,,,,,,,,,,,,,,,,,,,,,,,,,,,,,,,,,,,,,,,,,,,,,,,,,,,,,,,,,,,,,,,,,,,,,,,,,,,,,,,,,,,,,,,,,,,,,,,,,,,,,,,,,,,,,,,,,,,,,,,,,,,,,,,,,,,,,,,,,,,,,,,,,,,,,,,
0,46,46,46,1,,5cd30b2041a6b8001874c41f,62bbfb44edf162ffcb6a7dd8,2022-06-29_10h15.25.118,Colour_Asymmetry_Pilot,2022.1.3,Win32,59.95922773,62bbe60bf3d75ef465d3e404,,,,,,,,,,,,,,,,,,,,,,,,,,,,,,,,,,,,,,,,,,,,,,,,,,,,,,,,,,,,,,,,,,,,,,,,,,,,,,,,,,,,,,,,,,,,,,,,,,,,,,,,,,,,,,,,,,,,,,,,,,,,,,,,,,,,,,,,,,,,,,,,,,,,,,,,,,,,,,
0,47,47,87,1,,5cd30b2041a6b8001874c41f,62bbfb44edf162ffcb6a7dd8,2022-06-29_10h15.25.118,Colour_Asymmetry_Pilot,2022.1.3,Win32,59.95922773,62bbe60bf3d75ef465d3e404,,,,,,,,,,,,,,,,,,,,,,,,,,,,,,,,,,,,,,,,,,,,,,,,,,,,,,,,,,,,,,,,,,,,,,,,,,,,,,,,,,,,,,,,,,,,,,,,,,,,,,,,,,,,,,,,,,,,,,,,,,,,,,,,,,,,,,,,,,,,,,,,,,,,,,,,,,,,,,
0,48,48,80,1,,5cd30b2041a6b8001874c41f,62bbfb44edf162ffcb6a7dd8,2022-06-29_10h15.25.118,Colour_Asymmetry_Pilot,2022.1.3,Win32,59.95922773,62bbe60bf3d75ef465d3e404,,,,,,,,,,,,,,,,,,,,,,,,,,,,,,,,,,,,,,,,,,,,,,,,,,,,,,,,,,,,,,,,,,,,,,,,,,,,,,,,,,,,,,,,,,,,,,,,,,,,,,,,,,,,,,,,,,,,,,,,,,,,,,,,,,,,,,,,,,,,,,,,,,,,,,,,,,,,,,
0,49,49,83,1,,5cd30b2041a6b8001874c41f,62bbfb44edf162ffcb6a7dd8,2022-06-29_10h15.25.118,Colour_Asymmetry_Pilot,2022.1.3,Win32,59.95922773,62bbe60bf3d75ef465d3e404,,,,,,,,,,,,,,,,,,,,,,,,,,,,,,,,,,,,,,,,,,,,,,,,,,,,,,,,,,,,,,,,,,,,,,,,,,,,,,,,,,,,,,,,,,,,,,,,,,,,,,,,,,,,,,,,,,,,,,,,,,,,,,,,,,,,,,,,,,,,,,,,,,,,,,,,,,,,,,
0,50,50,6,1,,5cd30b2041a6b8001874c41f,62bbfb44edf162ffcb6a7dd8,2022-06-29_10h15.25.118,Colour_Asymmetry_Pilot,2022.1.3,Win32,59.95922773,62bbe60bf3d75ef465d3e404,,,,,,,,,,,,,,,,,,,,,,,,,,,,,,,,,,,,,,,,,,,,,,,,,,,,,,,,,,,,,,,,,,,,,,,,,,,,,,,,,,,,,,,,,,,,,,,,,,,,,,,,,,,,,,,,,,,,,,,,,,,,,,,,,,,,,,,,,,,,,,,,,,,,,,,,,,,,,,
0,51,51,89,1,,5cd30b2041a6b8001874c41f,62bbfb44edf162ffcb6a7dd8,2022-06-29_10h15.25.118,Colour_Asymmetry_Pilot,2022.1.3,Win32,59.95922773,62bbe60bf3d75ef465d3e404,,,,,,,,,,,,,,,,,,,,,,,,,,,,,,,,,,,,,,,,,,,,,,,,,,,,,,,,,,,,,,,,,,,,,,,,,,,,,,,,,,,,,,,,,,,,,,,,,,,,,,,,,,,,,,,,,,,,,,,,,,,,,,,,,,,,,,,,,,,,,,,,,,,,,,,,,,,,,,
0,52,52,10,1,,5cd30b2041a6b8001874c41f,62bbfb44edf162ffcb6a7dd8,2022-06-29_10h15.25.118,Colour_Asymmetry_Pilot,2022.1.3,Win32,59.95922773,62bbe60bf3d75ef465d3e404,,,,,,,,,,,,,,,,,,,,,,,,,,,,,,,,,,,,,,,,,,,,,,,,,,,,,,,,,,,,,,,,,,,,,,,,,,,,,,,,,,,,,,,,,,,,,,,,,,,,,,,,,,,,,,,,,,,,,,,,,,,,,,,,,,,,,,,,,,,,,,,,,,,,,,,,,,,,,,
0,53,53,77,1,,5cd30b2041a6b8001874c41f,62bbfb44edf162ffcb6a7dd8,2022-06-29_10h15.25.118,Colour_Asymmetry_Pilot,2022.1.3,Win32,59.95922773,62bbe60bf3d75ef465d3e404,,,,,,,,,,,,,,,,,,,,,,,,,,,,,,,,,,,,,,,,,,,,,,,,,,,,,,,,,,,,,,,,,,,,,,,,,,,,,,,,,,,,,,,,,,,,,,,,,,,,,,,,,,,,,,,,,,,,,,,,,,,,,,,,,,,,,,,,,,,,,,,,,,,,,,,,,,,,,,
0,54,54,54,1,,5cd30b2041a6b8001874c41f,62bbfb44edf162ffcb6a7dd8,2022-06-29_10h15.25.118,Colour_Asymmetry_Pilot,2022.1.3,Win32,59.95922773,62bbe60bf3d75ef465d3e404,,,,,,,,,,,,,,,,,,,,,,,,,,,,,,,,,,,,,,,,,,,,,,,,,,,,,,,,,,,,,,,,,,,,,,,,,,,,,,,,,,,,,,,,,,,,,,,,,,,,,,,,,,,,,,,,,,,,,,,,,,,,,,,,,,,,,,,,,,,,,,,,,,,,,,,,,,,,,,
0,55,55,35,1,,5cd30b2041a6b8001874c41f,62bbfb44edf162ffcb6a7dd8,2022-06-29_10h15.25.118,Colour_Asymmetry_Pilot,2022.1.3,Win32,59.95922773,62bbe60bf3d75ef465d3e404,,,,,,,,,,,,,,,,,,,,,,,,,,,,,,,,,,,,,,,,,,,,,,,,,,,,,,,,,,,,,,,,,,,,,,,,,,,,,,,,,,,,,,,,,,,,,,,,,,,,,,,,,,,,,,,,,,,,,,,,,,,,,,,,,,,,,,,,,,,,,,,,,,,,,,,,,,,,,,
0,56,56,22,1,,5cd30b2041a6b8001874c41f,62bbfb44edf162ffcb6a7dd8,2022-06-29_10h15.25.118,Colour_Asymmetry_Pilot,2022.1.3,Win32,59.95922773,62bbe60bf3d75ef465d3e404,,,,,,,,,,,,,,,,,,,,,,,,,,,,,,,,,,,,,,,,,,,,,,,,,,,,,,,,,,,,,,,,,,,,,,,,,,,,,,,,,,,,,,,,,,,,,,,,,,,,,,,,,,,,,,,,,,,,,,,,,,,,,,,,,,,,,,,,,,,,,,,,,,,,,,,,,,,,,,
0,57,57,85,1,,5cd30b2041a6b8001874c41f,62bbfb44edf162ffcb6a7dd8,2022-06-29_10h15.25.118,Colour_Asymmetry_Pilot,2022.1.3,Win32,59.95922773,62bbe60bf3d75ef465d3e404,,,,,,,,,,,,,,,,,,,,,,,,,,,,,,,,,,,,,,,,,,,,,,,,,,,,,,,,,,,,,,,,,,,,,,,,,,,,,,,,,,,,,,,,,,,,,,,,,,,,,,,,,,,,,,,,,,,,,,,,,,,,,,,,,,,,,,,,,,,,,,,,,,,,,,,,,,,,,,
0,58,58,20,1,,5cd30b2041a6b8001874c41f,62bbfb44edf162ffcb6a7dd8,2022-06-29_10h15.25.118,Colour_Asymmetry_Pilot,2022.1.3,Win32,59.95922773,62bbe60bf3d75ef465d3e404,,,,,,,,,,,,,,,,,,,,,,,,,,,,,,,,,,,,,,,,,,,,,,,,,,,,,,,,,,,,,,,,,,,,,,,,,,,,,,,,,,,,,,,,,,,,,,,,,,,,,,,,,,,,,,,,,,,,,,,,,,,,,,,,,,,,,,,,,,,,,,,,,,,,,,,,,,,,,,
0,59,59,27,1,,5cd30b2041a6b8001874c41f,62bbfb44edf162ffcb6a7dd8,2022-06-29_10h15.25.118,Colour_Asymmetry_Pilot,2022.1.3,Win32,59.95922773,62bbe60bf3d75ef465d3e404,,,,,,,,,,,,,,,,,,,,,,,,,,,,,,,,,,,,,,,,,,,,,,,,,,,,,,,,,,,,,,,,,,,,,,,,,,,,,,,,,,,,,,,,,,,,,,,,,,,,,,,,,,,,,,,,,,,,,,,,,,,,,,,,,,,,,,,,,,,,,,,,,,,,,,,,,,,,,,
0,60,60,75,1,,5cd30b2041a6b8001874c41f,62bbfb44edf162ffcb6a7dd8,2022-06-29_10h15.25.118,Colour_Asymmetry_Pilot,2022.1.3,Win32,59.95922773,62bbe60bf3d75ef465d3e404,,,,,,,,,,,,,,,,,,,,,,,,,,,,,,,,,,,,,,,,,,,,,,,,,,,,,,,,,,,,,,,,,,,,,,,,,,,,,,,,,,,,,,,,,,,,,,,,,,,,,,,,,,,,,,,,,,,,,,,,,,,,,,,,,,,,,,,,,,,,,,,,,,,,,,,,,,,,,,
0,61,61,81,1,,5cd30b2041a6b8001874c41f,62bbfb44edf162ffcb6a7dd8,2022-06-29_10h15.25.118,Colour_Asymmetry_Pilot,2022.1.3,Win32,59.95922773,62bbe60bf3d75ef465d3e404,,,,,,,,,,,,,,,,,,,,,,,,,,,,,,,,,,,,,,,,,,,,,,,,,,,,,,,,,,,,,,,,,,,,,,,,,,,,,,,,,,,,,,,,,,,,,,,,,,,,,,,,,,,,,,,,,,,,,,,,,,,,,,,,,,,,,,,,,,,,,,,,,,,,,,,,,,,,,,
0,62,62,82,1,,5cd30b2041a6b8001874c41f,62bbfb44edf162ffcb6a7dd8,2022-06-29_10h15.25.118,Colour_Asymmetry_Pilot,2022.1.3,Win32,59.95922773,62bbe60bf3d75ef465d3e404,,,,,,,,,,,,,,,,,,,,,,,,,,,,,,,,,,,,,,,,,,,,,,,,,,,,,,,,,,,,,,,,,,,,,,,,,,,,,,,,,,,,,,,,,,,,,,,,,,,,,,,,,,,,,,,,,,,,,,,,,,,,,,,,,,,,,,,,,,,,,,,,,,,,,,,,,,,,,,
0,63,63,8,1,,5cd30b2041a6b8001874c41f,62bbfb44edf162ffcb6a7dd8,2022-06-29_10h15.25.118,Colour_Asymmetry_Pilot,2022.1.3,Win32,59.95922773,62bbe60bf3d75ef465d3e404,,,,,,,,,,,,,,,,,,,,,,,,,,,,,,,,,,,,,,,,,,,,,,,,,,,,,,,,,,,,,,,,,,,,,,,,,,,,,,,,,,,,,,,,,,,,,,,,,,,,,,,,,,,,,,,,,,,,,,,,,,,,,,,,,,,,,,,,,,,,,,,,,,,,,,,,,,,,,,
0,64,64,23,1,,5cd30b2041a6b8001874c41f,62bbfb44edf162ffcb6a7dd8,2022-06-29_10h15.25.118,Colour_Asymmetry_Pilot,2022.1.3,Win32,59.95922773,62bbe60bf3d75ef465d3e404,,,,,,,,,,,,,,,,,,,,,,,,,,,,,,,,,,,,,,,,,,,,,,,,,,,,,,,,,,,,,,,,,,,,,,,,,,,,,,,,,,,,,,,,,,,,,,,,,,,,,,,,,,,,,,,,,,,,,,,,,,,,,,,,,,,,,,,,,,,,,,,,,,,,,,,,,,,,,,
0,65,65,18,1,,5cd30b2041a6b8001874c41f,62bbfb44edf162ffcb6a7dd8,2022-06-29_10h15.25.118,Colour_Asymmetry_Pilot,2022.1.3,Win32,59.95922773,62bbe60bf3d75ef465d3e404,,,,,,,,,,,,,,,,,,,,,,,,,,,,,,,,,,,,,,,,,,,,,,,,,,,,,,,,,,,,,,,,,,,,,,,,,,,,,,,,,,,,,,,,,,,,,,,,,,,,,,,,,,,,,,,,,,,,,,,,,,,,,,,,,,,,,,,,,,,,,,,,,,,,,,,,,,,,,,
0,66,66,88,1,,5cd30b2041a6b8001874c41f,62bbfb44edf162ffcb6a7dd8,2022-06-29_10h15.25.118,Colour_Asymmetry_Pilot,2022.1.3,Win32,59.95922773,62bbe60bf3d75ef465d3e404,,,,,,,,,,,,,,,,,,,,,,,,,,,,,,,,,,,,,,,,,,,,,,,,,,,,,,,,,,,,,,,,,,,,,,,,,,,,,,,,,,,,,,,,,,,,,,,,,,,,,,,,,,,,,,,,,,,,,,,,,,,,,,,,,,,,,,,,,,,,,,,,,,,,,,,,,,,,,,
0,67,67,70,1,,5cd30b2041a6b8001874c41f,62bbfb44edf162ffcb6a7dd8,2022-06-29_10h15.25.118,Colour_Asymmetry_Pilot,2022.1.3,Win32,59.95922773,62bbe60bf3d75ef465d3e404,,,,,,,,,,,,,,,,,,,,,,,,,,,,,,,,,,,,,,,,,,,,,,,,,,,,,,,,,,,,,,,,,,,,,,,,,,,,,,,,,,,,,,,,,,,,,,,,,,,,,,,,,,,,,,,,,,,,,,,,,,,,,,,,,,,,,,,,,,,,,,,,,,,,,,,,,,,,,,
0,68,68,19,1,,5cd30b2041a6b8001874c41f,62bbfb44edf162ffcb6a7dd8,2022-06-29_10h15.25.118,Colour_Asymmetry_Pilot,2022.1.3,Win32,59.95922773,62bbe60bf3d75ef465d3e404,,,,,,,,,,,,,,,,,,,,,,,,,,,,,,,,,,,,,,,,,,,,,,,,,,,,,,,,,,,,,,,,,,,,,,,,,,,,,,,,,,,,,,,,,,,,,,,,,,,,,,,,,,,,,,,,,,,,,,,,,,,,,,,,,,,,,,,,,,,,,,,,,,,,,,,,,,,,,,
0,69,69,76,1,,5cd30b2041a6b8001874c41f,62bbfb44edf162ffcb6a7dd8,2022-06-29_10h15.25.118,Colour_Asymmetry_Pilot,2022.1.3,Win32,59.95922773,62bbe60bf3d75ef465d3e404,,,,,,,,,,,,,,,,,,,,,,,,,,,,,,,,,,,,,,,,,,,,,,,,,,,,,,,,,,,,,,,,,,,,,,,,,,,,,,,,,,,,,,,,,,,,,,,,,,,,,,,,,,,,,,,,,,,,,,,,,,,,,,,,,,,,,,,,,,,,,,,,,,,,,,,,,,,,,,
0,70,70,79,1,,5cd30b2041a6b8001874c41f,62bbfb44edf162ffcb6a7dd8,2022-06-29_10h15.25.118,Colour_Asymmetry_Pilot,2022.1.3,Win32,59.95922773,62bbe60bf3d75ef465d3e404,,,,,,,,,,,,,,,,,,,,,,,,,,,,,,,,,,,,,,,,,,,,,,,,,,,,,,,,,,,,,,,,,,,,,,,,,,,,,,,,,,,,,,,,,,,,,,,,,,,,,,,,,,,,,,,,,,,,,,,,,,,,,,,,,,,,,,,,,,,,,,,,,,,,,,,,,,,,,,
0,71,71,42,1,,5cd30b2041a6b8001874c41f,62bbfb44edf162ffcb6a7dd8,2022-06-29_10h15.25.118,Colour_Asymmetry_Pilot,2022.1.3,Win32,59.95922773,62bbe60bf3d75ef465d3e404,,,,,,,,,,,,,,,,,,,,,,,,,,,,,,,,,,,,,,,,,,,,,,,,,,,,,,,,,,,,,,,,,,,,,,,,,,,,,,,,,,,,,,,,,,,,,,,,,,,,,,,,,,,,,,,,,,,,,,,,,,,,,,,,,,,,,,,,,,,,,,,,,,,,,,,,,,,,,,
0,72,72,28,1,,5cd30b2041a6b8001874c41f,62bbfb44edf162ffcb6a7dd8,2022-06-29_10h15.25.118,Colour_Asymmetry_Pilot,2022.1.3,Win32,59.95922773,62bbe60bf3d75ef465d3e404,,,,,,,,,,,,,,,,,,,,,,,,,,,,,,,,,,,,,,,,,,,,,,,,,,,,,,,,,,,,,,,,,,,,,,,,,,,,,,,,,,,,,,,,,,,,,,,,,,,,,,,,,,,,,,,,,,,,,,,,,,,,,,,,,,,,,,,,,,,,,,,,,,,,,,,,,,,,,,
0,73,73,62,1,,5cd30b2041a6b8001874c41f,62bbfb44edf162ffcb6a7dd8,2022-06-29_10h15.25.118,Colour_Asymmetry_Pilot,2022.1.3,Win32,59.95922773,62bbe60bf3d75ef465d3e404,,,,,,,,,,,,,,,,,,,,,,,,,,,,,,,,,,,,,,,,,,,,,,,,,,,,,,,,,,,,,,,,,,,,,,,,,,,,,,,,,,,,,,,,,,,,,,,,,,,,,,,,,,,,,,,,,,,,,,,,,,,,,,,,,,,,,,,,,,,,,,,,,,,,,,,,,,,,,,
0,74,74,21,1,,5cd30b2041a6b8001874c41f,62bbfb44edf162ffcb6a7dd8,2022-06-29_10h15.25.118,Colour_Asymmetry_Pilot,2022.1.3,Win32,59.95922773,62bbe60bf3d75ef465d3e404,,,,,,,,,,,,,,,,,,,,,,,,,,,,,,,,,,,,,,,,,,,,,,,,,,,,,,,,,,,,,,,,,,,,,,,,,,,,,,,,,,,,,,,,,,,,,,,,,,,,,,,,,,,,,,,,,,,,,,,,,,,,,,,,,,,,,,,,,,,,,,,,,,,,,,,,,,,,,,
0,75,75,56,1,,5cd30b2041a6b8001874c41f,62bbfb44edf162ffcb6a7dd8,2022-06-29_10h15.25.118,Colour_Asymmetry_Pilot,2022.1.3,Win32,59.95922773,62bbe60bf3d75ef465d3e404,,,,,,,,,,,,,,,,,,,,,,,,,,,,,,,,,,,,,,,,,,,,,,,,,,,,,,,,,,,,,,,,,,,,,,,,,,,,,,,,,,,,,,,,,,,,,,,,,,,,,,,,,,,,,,,,,,,,,,,,,,,,,,,,,,,,,,,,,,,,,,,,,,,,,,,,,,,,,,
0,76,76,30,1,,5cd30b2041a6b8001874c41f,62bbfb44edf162ffcb6a7dd8,2022-06-29_10h15.25.118,Colour_Asymmetry_Pilot,2022.1.3,Win32,59.95922773,62bbe60bf3d75ef465d3e404,,,,,,,,,,,,,,,,,,,,,,,,,,,,,,,,,,,,,,,,,,,,,,,,,,,,,,,,,,,,,,,,,,,,,,,,,,,,,,,,,,,,,,,,,,,,,,,,,,,,,,,,,,,,,,,,,,,,,,,,,,,,,,,,,,,,,,,,,,,,,,,,,,,,,,,,,,,,,,
0,77,77,71,1,,5cd30b2041a6b8001874c41f,62bbfb44edf162ffcb6a7dd8,2022-06-29_10h15.25.118,Colour_Asymmetry_Pilot,2022.1.3,Win32,59.95922773,62bbe60bf3d75ef465d3e404,,,,,,,,,,,,,,,,,,,,,,,,,,,,,,,,,,,,,,,,,,,,,,,,,,,,,,,,,,,,,,,,,,,,,,,,,,,,,,,,,,,,,,,,,,,,,,,,,,,,,,,,,,,,,,,,,,,,,,,,,,,,,,,,,,,,,,,,,,,,,,,,,,,,,,,,,,,,,,
0,78,78,68,1,,5cd30b2041a6b8001874c41f,62bbfb44edf162ffcb6a7dd8,2022-06-29_10h15.25.118,Colour_Asymmetry_Pilot,2022.1.3,Win32,59.95922773,62bbe60bf3d75ef465d3e404,,,,,,,,,,,,,,,,,,,,,,,,,,,,,,,,,,,,,,,,,,,,,,,,,,,,,,,,,,,,,,,,,,,,,,,,,,,,,,,,,,,,,,,,,,,,,,,,,,,,,,,,,,,,,,,,,,,,,,,,,,,,,,,,,,,,,,,,,,,,,,,,,,,,,,,,,,,,,,
0,79,79,5,1,,5cd30b2041a6b8001874c41f,62bbfb44edf162ffcb6a7dd8,2022-06-29_10h15.25.118,Colour_Asymmetry_Pilot,2022.1.3,Win32,59.95922773,62bbe60bf3d75ef465d3e404,,,,,,,,,,,,,,,,,,,,,,,,,,,,,,,,,,,,,,,,,,,,,,,,,,,,,,,,,,,,,,,,,,,,,,,,,,,,,,,,,,,,,,,,,,,,,,,,,,,,,,,,,,,,,,,,,,,,,,,,,,,,,,,,,,,,,,,,,,,,,,,,,,,,,,,,,,,,,,
0,80,80,73,1,,5cd30b2041a6b8001874c41f,62bbfb44edf162ffcb6a7dd8,2022-06-29_10h15.25.118,Colour_Asymmetry_Pilot,2022.1.3,Win32,59.95922773,62bbe60bf3d75ef465d3e404,,,,,,,,,,,,,,,,,,,,,,,,,,,,,,,,,,,,,,,,,,,,,,,,,,,,,,,,,,,,,,,,,,,,,,,,,,,,,,,,,,,,,,,,,,,,,,,,,,,,,,,,,,,,,,,,,,,,,,,,,,,,,,,,,,,,,,,,,,,,,,,,,,,,,,,,,,,,,,
0,81,81,44,1,,5cd30b2041a6b8001874c41f,62bbfb44edf162ffcb6a7dd8,2022-06-29_10h15.25.118,Colour_Asymmetry_Pilot,2022.1.3,Win32,59.95922773,62bbe60bf3d75ef465d3e404,,,,,,,,,,,,,,,,,,,,,,,,,,,,,,,,,,,,,,,,,,,,,,,,,,,,,,,,,,,,,,,,,,,,,,,,,,,,,,,,,,,,,,,,,,,,,,,,,,,,,,,,,,,,,,,,,,,,,,,,,,,,,,,,,,,,,,,,,,,,,,,,,,,,,,,,,,,,,,
0,82,82,9,1,,5cd30b2041a6b8001874c41f,62bbfb44edf162ffcb6a7dd8,2022-06-29_10h15.25.118,Colour_Asymmetry_Pilot,2022.1.3,Win32,59.95922773,62bbe60bf3d75ef465d3e404,,,,,,,,,,,,,,,,,,,,,,,,,,,,,,,,,,,,,,,,,,,,,,,,,,,,,,,,,,,,,,,,,,,,,,,,,,,,,,,,,,,,,,,,,,,,,,,,,,,,,,,,,,,,,,,,,,,,,,,,,,,,,,,,,,,,,,,,,,,,,,,,,,,,,,,,,,,,,,
0,83,83,38,1,,5cd30b2041a6b8001874c41f,62bbfb44edf162ffcb6a7dd8,2022-06-29_10h15.25.118,Colour_Asymmetry_Pilot,2022.1.3,Win32,59.95922773,62bbe60bf3d75ef465d3e404,,,,,,,,,,,,,,,,,,,,,,,,,,,,,,,,,,,,,,,,,,,,,,,,,,,,,,,,,,,,,,,,,,,,,,,,,,,,,,,,,,,,,,,,,,,,,,,,,,,,,,,,,,,,,,,,,,,,,,,,,,,,,,,,,,,,,,,,,,,,,,,,,,,,,,,,,,,,,,
0,84,84,52,1,,5cd30b2041a6b8001874c41f,62bbfb44edf162ffcb6a7dd8,2022-06-29_10h15.25.118,Colour_Asymmetry_Pilot,2022.1.3,Win32,59.95922773,62bbe60bf3d75ef465d3e404,,,,,,,,,,,,,,,,,,,,,,,,,,,,,,,,,,,,,,,,,,,,,,,,,,,,,,,,,,,,,,,,,,,,,,,,,,,,,,,,,,,,,,,,,,,,,,,,,,,,,,,,,,,,,,,,,,,,,,,,,,,,,,,,,,,,,,,,,,,,,,,,,,,,,,,,,,,,,,
0,85,85,14,1,,5cd30b2041a6b8001874c41f,62bbfb44edf162ffcb6a7dd8,2022-06-29_10h15.25.118,Colour_Asymmetry_Pilot,2022.1.3,Win32,59.95922773,62bbe60bf3d75ef465d3e404,,,,,,,,,,,,,,,,,,,,,,,,,,,,,,,,,,,,,,,,,,,,,,,,,,,,,,,,,,,,,,,,,,,,,,,,,,,,,,,,,,,,,,,,,,,,,,,,,,,,,,,,,,,,,,,,,,,,,,,,,,,,,,,,,,,,,,,,,,,,,,,,,,,,,,,,,,,,,,
0,86,86,60,1,,5cd30b2041a6b8001874c41f,62bbfb44edf162ffcb6a7dd8,2022-06-29_10h15.25.118,Colour_Asymmetry_Pilot,2022.1.3,Win32,59.95922773,62bbe60bf3d75ef465d3e404,,,,,,,,,,,,,,,,,,,,,,,,,,,,,,,,,,,,,,,,,,,,,,,,,,,,,,,,,,,,,,,,,,,,,,,,,,,,,,,,,,,,,,,,,,,,,,,,,,,,,,,,,,,,,,,,,,,,,,,,,,,,,,,,,,,,,,,,,,,,,,,,,,,,,,,,,,,,,,
0,87,87,48,1,,5cd30b2041a6b8001874c41f,62bbfb44edf162ffcb6a7dd8,2022-06-29_10h15.25.118,Colour_Asymmetry_Pilot,2022.1.3,Win32,59.95922773,62bbe60bf3d75ef465d3e404,,,,,,,,,,,,,,,,,,,,,,,,,,,,,,,,,,,,,,,,,,,,,,,,,,,,,,,,,,,,,,,,,,,,,,,,,,,,,,,,,,,,,,,,,,,,,,,,,,,,,,,,,,,,,,,,,,,,,,,,,,,,,,,,,,,,,,,,,,,,,,,,,,,,,,,,,,,,,,
0,88,88,40,1,,5cd30b2041a6b8001874c41f,62bbfb44edf162ffcb6a7dd8,2022-06-29_10h15.25.118,Colour_Asymmetry_Pilot,2022.1.3,Win32,59.95922773,62bbe60bf3d75ef465d3e404,,,,,,,,,,,,,,,,,,,,,,,,,,,,,,,,,,,,,,,,,,,,,,,,,,,,,,,,,,,,,,,,,,,,,,,,,,,,,,,,,,,,,,,,,,,,,,,,,,,,,,,,,,,,,,,,,,,,,,,,,,,,,,,,,,,,,,,,,,,,,,,,,,,,,,,,,,,,,,
0,89,89,3,1,,5cd30b2041a6b8001874c41f,62bbfb44edf162ffcb6a7dd8,2022-06-29_10h15.25.118,Colour_Asymmetry_Pilot,2022.1.3,Win32,59.95922773,62bbe60bf3d75ef465d3e404,,,,,,,,,,,,,,,,,,,,,,,,,,,,,,,,,,,,,,,,,,,,,,,,,,,,,,,,,,,,,,,,,,,,,,,,,,,,,,,,,,,,,,,,,,,,,,,,,,,,,,,,,,,,,,,,,,,,,,,,,,,,,,,,,,,,,,,,,,,,,,,,,,,,,,,,,,,,,,
0,90,90,67,1,,5cd30b2041a6b8001874c41f,62bbfb44edf162ffcb6a7dd8,2022-06-29_10h15.25.118,Colour_Asymmetry_Pilot,2022.1.3,Win32,59.95922773,62bbe60bf3d75ef465d3e404,,,,,,,,,,,,,,,,,,,,,,,,,,,,,,,,,,,,,,,,,,,,,,,,,,,,,,,,,,,,,,,,,,,,,,,,,,,,,,,,,,,,,,,,,,,,,,,,,,,,,,,,,,,,,,,,,,,,,,,,,,,,,,,,,,,,,,,,,,,,,,,,,,,,,,,,,,,,,,
0,91,91,16,1,,5cd30b2041a6b8001874c41f,62bbfb44edf162ffcb6a7dd8,2022-06-29_10h15.25.118,Colour_Asymmetry_Pilot,2022.1.3,Win32,59.95922773,62bbe60bf3d75ef465d3e404,,,,,,,,,,,,,,,,,,,,,,,,,,,,,,,,,,,,,,,,,,,,,,,,,,,,,,,,,,,,,,,,,,,,,,,,,,,,,,,,,,,,,,,,,,,,,,,,,,,,,,,,,,,,,,,,,,,,,,,,,,,,,,,,,,,,,,,,,,,,,,,,,,,,,,,,,,,,,,
0,92,92,37,1,,5cd30b2041a6b8001874c41f,62bbfb44edf162ffcb6a7dd8,2022-06-29_10h15.25.118,Colour_Asymmetry_Pilot,2022.1.3,Win32,59.95922773,62bbe60bf3d75ef465d3e404,,,,,,,,,,,,,,,,,,,,,,,,,,,,,,,,,,,,,,,,,,,,,,,,,,,,,,,,,,,,,,,,,,,,,,,,,,,,,,,,,,,,,,,,,,,,,,,,,,,,,,,,,,,,,,,,,,,,,,,,,,,,,,,,,,,,,,,,,,,,,,,,,,,,,,,,,,,,,,
,,,,,,5cd30b2041a6b8001874c41f,62bbfb44edf162ffcb6a7dd8,2022-06-29_10h15.25.118,Colour_Asymmetry_Pilot,2022.1.3,Win32,59.95922773,62bbe60bf3d75ef465d3e404,0,0,0,37,1,threefour,,,,,,,,,,,,,,,,,,,,,,,,,,,,,,,,,,,,,,,,,,,,,,,,,,,,,,,,,,,,,,,,,,,,,,,,,,,,,,,,,,,,,,,,,,,,,,,,,,,,,,,,,,,,,,,,,,,,,,,,,,,,,,,,,,,,,,,,,,,,,,,,,,,,,,,,
,,,,,,5cd30b2041a6b8001874c41f,62bbfb44edf162ffcb6a7dd8,2022-06-29_10h15.25.118,Colour_Asymmetry_Pilot,2022.1.3,Win32,59.95922773,62bbe60bf3d75ef465d3e404,0,1,1,134,1,fourtwo,,,,,,,,,,,,,,,,,,,,,,,,,,,,,,,,,,,,,,,,,,,,,,,,,,,,,,,,,,,,,,,,,,,,,,,,,,,,,,,,,,,,,,,,,,,,,,,,,,,,,,,,,,,,,,,,,,,,,,,,,,,,,,,,,,,,,,,,,,,,,,,,,,,,,,,,
,,,,,,5cd30b2041a6b8001874c41f,62bbfb44edf162ffcb6a7dd8,2022-06-29_10h15.25.118,Colour_Asymmetry_Pilot,2022.1.3,Win32,59.95922773,62bbe60bf3d75ef465d3e404,0,2,2,76,1,threeone,,,,,,,,,,,,,,,,,,,,,,,,,,,,,,,,,,,,,,,,,,,,,,,,,,,,,,,,,,,,,,,,,,,,,,,,,,,,,,,,,,,,,,,,,,,,,,,,,,,,,,,,,,,,,,,,,,,,,,,,,,,,,,,,,,,,,,,,,,,,,,,,,,,,,,,,
,,,,,,5cd30b2041a6b8001874c41f,62bbfb44edf162ffcb6a7dd8,2022-06-29_10h15.25.118,Colour_Asymmetry_Pilot,2022.1.3,Win32,59.95922773,62bbe60bf3d75ef465d3e404,0,3,3,38,1,fourtwo,,,,,,,,,,,,,,,,,,,,,,,,,,,,,,,,,,,,,,,,,,,,,,,,,,,,,,,,,,,,,,,,,,,,,,,,,,,,,,,,,,,,,,,,,,,,,,,,,,,,,,,,,,,,,,,,,,,,,,,,,,,,,,,,,,,,,,,,,,,,,,,,,,,,,,,,
,,,,,,5cd30b2041a6b8001874c41f,62bbfb44edf162ffcb6a7dd8,2022-06-29_10h15.25.118,Colour_Asymmetry_Pilot,2022.1.3,Win32,59.95922773,62bbe60bf3d75ef465d3e404,0,4,4,154,1,twoone,,,,,,,,,,,,,,,,,,,,,,,,,,,,,,,,,,,,,,,,,,,,,,,,,,,,,,,,,,,,,,,,,,,,,,,,,,,,,,,,,,,,,,,,,,,,,,,,,,,,,,,,,,,,,,,,,,,,,,,,,,,,,,,,,,,,,,,,,,,,,,,,,,,,,,,,
,,,,,,5cd30b2041a6b8001874c41f,62bbfb44edf162ffcb6a7dd8,2022-06-29_10h15.25.118,Colour_Asymmetry_Pilot,2022.1.3,Win32,59.95922773,62bbe60bf3d75ef465d3e404,0,5,5,114,1,twoone,,,,,,,,,,,,,,,,,,,,,,,,,,,,,,,,,,,,,,,,,,,,,,,,,,,,,,,,,,,,,,,,,,,,,,,,,,,,,,,,,,,,,,,,,,,,,,,,,,,,,,,,,,,,,,,,,,,,,,,,,,,,,,,,,,,,,,,,,,,,,,,,,,,,,,,,
,,,,,,5cd30b2041a6b8001874c41f,62bbfb44edf162ffcb6a7dd8,2022-06-29_10h15.25.118,Colour_Asymmetry_Pilot,2022.1.3,Win32,59.95922773,62bbe60bf3d75ef465d3e404,0,6,6,103,1,fourthree,,,,,,,,,,,,,,,,,,,,,,,,,,,,,,,,,,,,,,,,,,,,,,,,,,,,,,,,,,,,,,,,,,,,,,,,,,,,,,,,,,,,,,,,,,,,,,,,,,,,,,,,,,,,,,,,,,,,,,,,,,,,,,,,,,,,,,,,,,,,,,,,,,,,,,,,
,,,,,,5cd30b2041a6b8001874c41f,62bbfb44edf162ffcb6a7dd8,2022-06-29_10h15.25.118,Colour_Asymmetry_Pilot,2022.1.3,Win32,59.95922773,62bbe60bf3d75ef465d3e404,0,7,7,0,1,onetwo,,,,,,,,,,,,,,,,,,,,,,,,,,,,,,,,,,,,,,,,,,,,,,,,,,,,,,,,,,,,,,,,,,,,,,,,,,,,,,,,,,,,,,,,,,,,,,,,,,,,,,,,,,,,,,,,,,,,,,,,,,,,,,,,,,,,,,,,,,,,,,,,,,,,,,,,
,,,,,,5cd30b2041a6b8001874c41f,62bbfb44edf162ffcb6a7dd8,2022-06-29_10h15.25.118,Colour_Asymmetry_Pilot,2022.1.3,Win32,59.95922773,62bbe60bf3d75ef465d3e404,0,8,8,107,1,twofour,,,,,,,,,,,,,,,,,,,,,,,,,,,,,,,,,,,,,,,,,,,,,,,,,,,,,,,,,,,,,,,,,,,,,,,,,,,,,,,,,,,,,,,,,,,,,,,,,,,,,,,,,,,,,,,,,,,,,,,,,,,,,,,,,,,,,,,,,,,,,,,,,,,,,,,,
,,,,,,5cd30b2041a6b8001874c41f,62bbfb44edf162ffcb6a7dd8,2022-06-29_10h15.25.118,Colour_Asymmetry_Pilot,2022.1.3,Win32,59.95922773,62bbe60bf3d75ef465d3e404,0,9,9,125,1,threefour,,,,,,,,,,,,,,,,,,,,,,,,,,,,,,,,,,,,,,,,,,,,,,,,,,,,,,,,,,,,,,,,,,,,,,,,,,,,,,,,,,,,,,,,,,,,,,,,,,,,,,,,,,,,,,,,,,,,,,,,,,,,,,,,,,,,,,,,,,,,,,,,,,,,,,,,
,,,,,,5cd30b2041a6b8001874c41f,62bbfb44edf162ffcb6a7dd8,2022-06-29_10h15.25.118,Colour_Asymmetry_Pilot,2022.1.3,Win32,59.95922773,62bbe60bf3d75ef465d3e404,0,10,10,80,1,onetwo,,,,,,,,,,,,,,,,,,,,,,,,,,,,,,,,,,,,,,,,,,,,,,,,,,,,,,,,,,,,,,,,,,,,,,,,,,,,,,,,,,,,,,,,,,,,,,,,,,,,,,,,,,,,,,,,,,,,,,,,,,,,,,,,,,,,,,,,,,,,,,,,,,,,,,,,
,,,,,,5cd30b2041a6b8001874c41f,62bbfb44edf162ffcb6a7dd8,2022-06-29_10h15.25.118,Colour_Asymmetry_Pilot,2022.1.3,Win32,59.95922773,62bbe60bf3d75ef465d3e404,0,11,11,35,1,twofour,,,,,,,,,,,,,,,,,,,,,,,,,,,,,,,,,,,,,,,,,,,,,,,,,,,,,,,,,,,,,,,,,,,,,,,,,,,,,,,,,,,,,,,,,,,,,,,,,,,,,,,,,,,,,,,,,,,,,,,,,,,,,,,,,,,,,,,,,,,,,,,,,,,,,,,,
,,,,,,5cd30b2041a6b8001874c41f,62bbfb44edf162ffcb6a7dd8,2022-06-29_10h15.25.118,Colour_Asymmetry_Pilot,2022.1.3,Win32,59.95922773,62bbe60bf3d75ef465d3e404,0,12,12,116,1,threeone,,,,,,,,,,,,,,,,,,,,,,,,,,,,,,,,,,,,,,,,,,,,,,,,,,,,,,,,,,,,,,,,,,,,,,,,,,,,,,,,,,,,,,,,,,,,,,,,,,,,,,,,,,,,,,,,,,,,,,,,,,,,,,,,,,,,,,,,,,,,,,,,,,,,,,,,
,,,,,,5cd30b2041a6b8001874c41f,62bbfb44edf162ffcb6a7dd8,2022-06-29_10h15.25.118,Colour_Asymmetry_Pilot,2022.1.3,Win32,59.95922773,62bbe60bf3d75ef465d3e404,0,13,13,122,1,twoone,,,,,,,,,,,,,,,,,,,,,,,,,,,,,,,,,,,,,,,,,,,,,,,,,,,,,,,,,,,,,,,,,,,,,,,,,,,,,,,,,,,,,,,,,,,,,,,,,,,,,,,,,,,,,,,,,,,,,,,,,,,,,,,,,,,,,,,,,,,,,,,,,,,,,,,,
,,,,,,5cd30b2041a6b8001874c41f,62bbfb44edf162ffcb6a7dd8,2022-06-29_10h15.25.118,Colour_Asymmetry_Pilot,2022.1.3,Win32,59.95922773,62bbe60bf3d75ef465d3e404,0,14,14,57,1,onethree,,,,,,,,,,,,,,,,,,,,,,,,,,,,,,,,,,,,,,,,,,,,,,,,,,,,,,,,,,,,,,,,,,,,,,,,,,,,,,,,,,,,,,,,,,,,,,,,,,,,,,,,,,,,,,,,,,,,,,,,,,,,,,,,,,,,,,,,,,,,,,,,,,,,,,,,
,,,,,,5cd30b2041a6b8001874c41f,62bbfb44edf162ffcb6a7dd8,2022-06-29_10h15.25.118,Colour_Asymmetry_Pilot,2022.1.3,Win32,59.95922773,62bbe60bf3d75ef465d3e404,0,15,15,124,1,threeone,,,,,,,,,,,,,,,,,,,,,,,,,,,,,,,,,,,,,,,,,,,,,,,,,,,,,,,,,,,,,,,,,,,,,,,,,,,,,,,,,,,,,,,,,,,,,,,,,,,,,,,,,,,,,,,,,,,,,,,,,,,,,,,,,,,,,,,,,,,,,,,,,,,,,,,,
,,,,,,5cd30b2041a6b8001874c41f,62bbfb44edf162ffcb6a7dd8,2022-06-29_10h15.25.118,Colour_Asymmetry_Pilot,2022.1.3,Win32,59.95922773,62bbe60bf3d75ef465d3e404,0,16,16,147,1,twofour,,,,,,,,,,,,,,,,,,,,,,,,,,,,,,,,,,,,,,,,,,,,,,,,,,,,,,,,,,,,,,,,,,,,,,,,,,,,,,,,,,,,,,,,,,,,,,,,,,,,,,,,,,,,,,,,,,,,,,,,,,,,,,,,,,,,,,,,,,,,,,,,,,,,,,,,
,,,,,,5cd30b2041a6b8001874c41f,62bbfb44edf162ffcb6a7dd8,2022-06-29_10h15.25.118,Colour_Asymmetry_Pilot,2022.1.3,Win32,59.95922773,62bbe60bf3d75ef465d3e404,0,17,17,28,1,threeone,,,,,,,,,,,,,,,,,,,,,,,,,,,,,,,,,,,,,,,,,,,,,,,,,,,,,,,,,,,,,,,,,,,,,,,,,,,,,,,,,,,,,,,,,,,,,,,,,,,,,,,,,,,,,,,,,,,,,,,,,,,,,,,,,,,,,,,,,,,,,,,,,,,,,,,,
,,,,,,5cd30b2041a6b8001874c41f,62bbfb44edf162ffcb6a7dd8,2022-06-29_10h15.25.118,Colour_Asymmetry_Pilot,2022.1.3,Win32,59.95922773,62bbe60bf3d75ef465d3e404,0,18,18,54,1,fourtwo,,,,,,,,,,,,,,,,,,,,,,,,,,,,,,,,,,,,,,,,,,,,,,,,,,,,,,,,,,,,,,,,,,,,,,,,,,,,,,,,,,,,,,,,,,,,,,,,,,,,,,,,,,,,,,,,,,,,,,,,,,,,,,,,,,,,,,,,,,,,,,,,,,,,,,,,
,,,,,,5cd30b2041a6b8001874c41f,62bbfb44edf162ffcb6a7dd8,2022-06-29_10h15.25.118,Colour_Asymmetry_Pilot,2022.1.3,Win32,59.95922773,62bbe60bf3d75ef465d3e404,0,19,19,145,1,onethree,,,,,,,,,,,,,,,,,,,,,,,,,,,,,,,,,,,,,,,,,,,,,,,,,,,,,,,,,,,,,,,,,,,,,,,,,,,,,,,,,,,,,,,,,,,,,,,,,,,,,,,,,,,,,,,,,,,,,,,,,,,,,,,,,,,,,,,,,,,,,,,,,,,,,,,,
,,,,,,5cd30b2041a6b8001874c41f,62bbfb44edf162ffcb6a7dd8,2022-06-29_10h15.25.118,Colour_Asymmetry_Pilot,2022.1.3,Win32,59.95922773,62bbe60bf3d75ef465d3e404,0,20,20,151,1,fourthree,,,,,,,,,,,,,,,,,,,,,,,,,,,,,,,,,,,,,,,,,,,,,,,,,,,,,,,,,,,,,,,,,,,,,,,,,,,,,,,,,,,,,,,,,,,,,,,,,,,,,,,,,,,,,,,,,,,,,,,,,,,,,,,,,,,,,,,,,,,,,,,,,,,,,,,,
,,,,,,5cd30b2041a6b8001874c41f,62bbfb44edf162ffcb6a7dd8,2022-06-29_10h15.25.118,Colour_Asymmetry_Pilot,2022.1.3,Win32,59.95922773,62bbe60bf3d75ef465d3e404,0,21,21,45,1,threefour,,,,,,,,,,,,,,,,,,,,,,,,,,,,,,,,,,,,,,,,,,,,,,,,,,,,,,,,,,,,,,,,,,,,,,,,,,,,,,,,,,,,,,,,,,,,,,,,,,,,,,,,,,,,,,,,,,,,,,,,,,,,,,,,,,,,,,,,,,,,,,,,,,,,,,,,
,,,,,,5cd30b2041a6b8001874c41f,62bbfb44edf162ffcb6a7dd8,2022-06-29_10h15.25.118,Colour_Asymmetry_Pilot,2022.1.3,Win32,59.95922773,62bbe60bf3d75ef465d3e404,0,22,22,153,1,onethree,,,,,,,,,,,,,,,,,,,,,,,,,,,,,,,,,,,,,,,,,,,,,,,,,,,,,,,,,,,,,,,,,,,,,,,,,,,,,,,,,,,,,,,,,,,,,,,,,,,,,,,,,,,,,,,,,,,,,,,,,,,,,,,,,,,,,,,,,,,,,,,,,,,,,,,,
,,,,,,5cd30b2041a6b8001874c41f,62bbfb44edf162ffcb6a7dd8,2022-06-29_10h15.25.118,Colour_Asymmetry_Pilot,2022.1.3,Win32,59.95922773,62bbe60bf3d75ef465d3e404,0,23,23,97,1,onethree,,,,,,,,,,,,,,,,,,,,,,,,,,,,,,,,,,,,,,,,,,,,,,,,,,,,,,,,,,,,,,,,,,,,,,,,,,,,,,,,,,,,,,,,,,,,,,,,,,,,,,,,,,,,,,,,,,,,,,,,,,,,,,,,,,,,,,,,,,,,,,,,,,,,,,,,
,,,,,,5cd30b2041a6b8001874c41f,62bbfb44edf162ffcb6a7dd8,2022-06-29_10h15.25.118,Colour_Asymmetry_Pilot,2022.1.3,Win32,59.95922773,62bbe60bf3d75ef465d3e404,0,24,24,123,1,twofour,,,,,,,,,,,,,,,,,,,,,,,,,,,,,,,,,,,,,,,,,,,,,,,,,,,,,,,,,,,,,,,,,,,,,,,,,,,,,,,,,,,,,,,,,,,,,,,,,,,,,,,,,,,,,,,,,,,,,,,,,,,,,,,,,,,,,,,,,,,,,,,,,,,,,,,,
,,,,,,5cd30b2041a6b8001874c41f,62bbfb44edf162ffcb6a7dd8,2022-06-29_10h15.25.118,Colour_Asymmetry_Pilot,2022.1.3,Win32,59.95922773,62bbe60bf3d75ef465d3e404,0,25,25,21,1,threefour,,,,,,,,,,,,,,,,,,,,,,,,,,,,,,,,,,,,,,,,,,,,,,,,,,,,,,,,,,,,,,,,,,,,,,,,,,,,,,,,,,,,,,,,,,,,,,,,,,,,,,,,,,,,,,,,,,,,,,,,,,,,,,,,,,,,,,,,,,,,,,,,,,,,,,,,
,,,,,,5cd30b2041a6b8001874c41f,62bbfb44edf162ffcb6a7dd8,2022-06-29_10h15.25.118,Colour_Asymmetry_Pilot,2022.1.3,Win32,59.95922773,62bbe60bf3d75ef465d3e404,0,26,26,32,1,onetwo,,,,,,,,,,,,,,,,,,,,,,,,,,,,,,,,,,,,,,,,,,,,,,,,,,,,,,,,,,,,,,,,,,,,,,,,,,,,,,,,,,,,,,,,,,,,,,,,,,,,,,,,,,,,,,,,,,,,,,,,,,,,,,,,,,,,,,,,,,,,,,,,,,,,,,,,
,,,,,,5cd30b2041a6b8001874c41f,62bbfb44edf162ffcb6a7dd8,2022-06-29_10h15.25.118,Colour_Asymmetry_Pilot,2022.1.3,Win32,59.95922773,62bbe60bf3d75ef465d3e404,0,27,27,56,1,onetwo,,,,,,,,,,,,,,,,,,,,,,,,,,,,,,,,,,,,,,,,,,,,,,,,,,,,,,,,,,,,,,,,,,,,,,,,,,,,,,,,,,,,,,,,,,,,,,,,,,,,,,,,,,,,,,,,,,,,,,,,,,,,,,,,,,,,,,,,,,,,,,,,,,,,,,,,
,,,,,,5cd30b2041a6b8001874c41f,62bbfb44edf162ffcb6a7dd8,2022-06-29_10h15.25.118,Colour_Asymmetry_Pilot,2022.1.3,Win32,59.95922773,62bbe60bf3d75ef465d3e404,0,28,28,73,1,onethree,,,,,,,,,,,,,,,,,,,,,,,,,,,,,,,,,,,,,,,,,,,,,,,,,,,,,,,,,,,,,,,,,,,,,,,,,,,,,,,,,,,,,,,,,,,,,,,,,,,,,,,,,,,,,,,,,,,,,,,,,,,,,,,,,,,,,,,,,,,,,,,,,,,,,,,,
,,,,,,5cd30b2041a6b8001874c41f,62bbfb44edf162ffcb6a7dd8,2022-06-29_10h15.25.118,Colour_Asymmetry_Pilot,2022.1.3,Win32,59.95922773,62bbe60bf3d75ef465d3e404,0,29,29,150,1,fourtwo,,,,,,,,,,,,,,,,,,,,,,,,,,,,,,,,,,,,,,,,,,,,,,,,,,,,,,,,,,,,,,,,,,,,,,,,,,,,,,,,,,,,,,,,,,,,,,,,,,,,,,,,,,,,,,,,,,,,,,,,,,,,,,,,,,,,,,,,,,,,,,,,,,,,,,,,
,,,,,,5cd30b2041a6b8001874c41f,62bbfb44edf162ffcb6a7dd8,2022-06-29_10h15.25.118,Colour_Asymmetry_Pilot,2022.1.3,Win32,59.95922773,62bbe60bf3d75ef465d3e404,0,30,30,118,1,fourtwo,,,,,,,,,,,,,,,,,,,,,,,,,,,,,,,,,,,,,,,,,,,,,,,,,,,,,,,,,,,,,,,,,,,,,,,,,,,,,,,,,,,,,,,,,,,,,,,,,,,,,,,,,,,,,,,,,,,,,,,,,,,,,,,,,,,,,,,,,,,,,,,,,,,,,,,,
,,,,,,5cd30b2041a6b8001874c41f,62bbfb44edf162ffcb6a7dd8,2022-06-29_10h15.25.118,Colour_Asymmetry_Pilot,2022.1.3,Win32,59.95922773,62bbe60bf3d75ef465d3e404,0,31,31,59,1,twofour,,,,,,,,,,,,,,,,,,,,,,,,,,,,,,,,,,,,,,,,,,,,,,,,,,,,,,,,,,,,,,,,,,,,,,,,,,,,,,,,,,,,,,,,,,,,,,,,,,,,,,,,,,,,,,,,,,,,,,,,,,,,,,,,,,,,,,,,,,,,,,,,,,,,,,,,
,,,,,,5cd30b2041a6b8001874c41f,62bbfb44edf162ffcb6a7dd8,2022-06-29_10h15.25.118,Colour_Asymmetry_Pilot,2022.1.3,Win32,59.95922773,62bbe60bf3d75ef465d3e404,0,32,32,77,1,threefour,,,,,,,,,,,,,,,,,,,,,,,,,,,,,,,,,,,,,,,,,,,,,,,,,,,,,,,,,,,,,,,,,,,,,,,,,,,,,,,,,,,,,,,,,,,,,,,,,,,,,,,,,,,,,,,,,,,,,,,,,,,,,,,,,,,,,,,,,,,,,,,,,,,,,,,,
,,,,,,5cd30b2041a6b8001874c41f,62bbfb44edf162ffcb6a7dd8,2022-06-29_10h15.25.118,Colour_Asymmetry_Pilot,2022.1.3,Win32,59.95922773,62bbe60bf3d75ef465d3e404,0,33,33,8,1,onetwo,,,,,,,,,,,,,,,,,,,,,,,,,,,,,,,,,,,,,,,,,,,,,,,,,,,,,,,,,,,,,,,,,,,,,,,,,,,,,,,,,,,,,,,,,,,,,,,,,,,,,,,,,,,,,,,,,,,,,,,,,,,,,,,,,,,,,,,,,,,,,,,,,,,,,,,,
,,,,,,5cd30b2041a6b8001874c41f,62bbfb44edf162ffcb6a7dd8,2022-06-29_10h15.25.118,Colour_Asymmetry_Pilot,2022.1.3,Win32,59.95922773,62bbe60bf3d75ef465d3e404,0,34,34,136,1,onetwo,,,,,,,,,,,,,,,,,,,,,,,,,,,,,,,,,,,,,,,,,,,,,,,,,,,,,,,,,,,,,,,,,,,,,,,,,,,,,,,,,,,,,,,,,,,,,,,,,,,,,,,,,,,,,,,,,,,,,,,,,,,,,,,,,,,,,,,,,,,,,,,,,,,,,,,,
,,,,,,5cd30b2041a6b8001874c41f,62bbfb44edf162ffcb6a7dd8,2022-06-29_10h15.25.118,Colour_Asymmetry_Pilot,2022.1.3,Win32,59.95922773,62bbe60bf3d75ef465d3e404,0,35,35,34,1,twoone,,,,,,,,,,,,,,,,,,,,,,,,,,,,,,,,,,,,,,,,,,,,,,,,,,,,,,,,,,,,,,,,,,,,,,,,,,,,,,,,,,,,,,,,,,,,,,,,,,,,,,,,,,,,,,,,,,,,,,,,,,,,,,,,,,,,,,,,,,,,,,,,,,,,,,,,
,,,,,,5cd30b2041a6b8001874c41f,62bbfb44edf162ffcb6a7dd8,2022-06-29_10h15.25.118,Colour_Asymmetry_Pilot,2022.1.3,Win32,59.95922773,62bbe60bf3d75ef465d3e404,0,36,36,82,1,twoone,,,,,,,,,,,,,,,,,,,,,,,,,,,,,,,,,,,,,,,,,,,,,,,,,,,,,,,,,,,,,,,,,,,,,,,,,,,,,,,,,,,,,,,,,,,,,,,,,,,,,,,,,,,,,,,,,,,,,,,,,,,,,,,,,,,,,,,,,,,,,,,,,,,,,,,,
,,,,,,5cd30b2041a6b8001874c41f,62bbfb44edf162ffcb6a7dd8,2022-06-29_10h15.25.118,Colour_Asymmetry_Pilot,2022.1.3,Win32,59.95922773,62bbe60bf3d75ef465d3e404,0,37,37,79,1,fourthree,,,,,,,,,,,,,,,,,,,,,,,,,,,,,,,,,,,,,,,,,,,,,,,,,,,,,,,,,,,,,,,,,,,,,,,,,,,,,,,,,,,,,,,,,,,,,,,,,,,,,,,,,,,,,,,,,,,,,,,,,,,,,,,,,,,,,,,,,,,,,,,,,,,,,,,,
,,,,,,5cd30b2041a6b8001874c41f,62bbfb44edf162ffcb6a7dd8,2022-06-29_10h15.25.118,Colour_Asymmetry_Pilot,2022.1.3,Win32,59.95922773,62bbe60bf3d75ef465d3e404,0,38,38,31,1,fourthree,,,,,,,,,,,,,,,,,,,,,,,,,,,,,,,,,,,,,,,,,,,,,,,,,,,,,,,,,,,,,,,,,,,,,,,,,,,,,,,,,,,,,,,,,,,,,,,,,,,,,,,,,,,,,,,,,,,,,,,,,,,,,,,,,,,,,,,,,,,,,,,,,,,,,,,,
,,,,,,5cd30b2041a6b8001874c41f,62bbfb44edf162ffcb6a7dd8,2022-06-29_10h15.25.118,Colour_Asymmetry_Pilot,2022.1.3,Win32,59.95922773,62bbe60bf3d75ef465d3e404,0,39,39,93,1,threefour,,,,,,,,,,,,,,,,,,,,,,,,,,,,,,,,,,,,,,,,,,,,,,,,,,,,,,,,,,,,,,,,,,,,,,,,,,,,,,,,,,,,,,,,,,,,,,,,,,,,,,,,,,,,,,,,,,,,,,,,,,,,,,,,,,,,,,,,,,,,,,,,,,,,,,,,
,,,,,,5cd30b2041a6b8001874c41f,62bbfb44edf162ffcb6a7dd8,2022-06-29_10h15.25.118,Colour_Asymmetry_Pilot,2022.1.3,Win32,59.95922773,62bbe60bf3d75ef465d3e404,0,40,40,25,1,onethree,,,,,,,,,,,,,,,,,,,,,,,,,,,,,,,,,,,,,,,,,,,,,,,,,,,,,,,,,,,,,,,,,,,,,,,,,,,,,,,,,,,,,,,,,,,,,,,,,,,,,,,,,,,,,,,,,,,,,,,,,,,,,,,,,,,,,,,,,,,,,,,,,,,,,,,,
,,,,,,5cd30b2041a6b8001874c41f,62bbfb44edf162ffcb6a7dd8,2022-06-29_10h15.25.118,Colour_Asymmetry_Pilot,2022.1.3,Win32,59.95922773,62bbe60bf3d75ef465d3e404,0,41,41,5,1,threefour,,,,,,,,,,,,,,,,,,,,,,,,,,,,,,,,,,,,,,,,,,,,,,,,,,,,,,,,,,,,,,,,,,,,,,,,,,,,,,,,,,,,,,,,,,,,,,,,,,,,,,,,,,,,,,,,,,,,,,,,,,,,,,,,,,,,,,,,,,,,,,,,,,,,,,,,
,,,,,,5cd30b2041a6b8001874c41f,62bbfb44edf162ffcb6a7dd8,2022-06-29_10h15.25.118,Colour_Asymmetry_Pilot,2022.1.3,Win32,59.95922773,62bbe60bf3d75ef465d3e404,0,42,42,61,1,threefour,,,,,,,,,,,,,,,,,,,,,,,,,,,,,,,,,,,,,,,,,,,,,,,,,,,,,,,,,,,,,,,,,,,,,,,,,,,,,,,,,,,,,,,,,,,,,,,,,,,,,,,,,,,,,,,,,,,,,,,,,,,,,,,,,,,,,,,,,,,,,,,,,,,,,,,,
,,,,,,5cd30b2041a6b8001874c41f,62bbfb44edf162ffcb6a7dd8,2022-06-29_10h15.25.118,Colour_Asymmetry_Pilot,2022.1.3,Win32,59.95922773,62bbe60bf3d75ef465d3e404,0,43,43,42,1,twoone,,,,,,,,,,,,,,,,,,,,,,,,,,,,,,,,,,,,,,,,,,,,,,,,,,,,,,,,,,,,,,,,,,,,,,,,,,,,,,,,,,,,,,,,,,,,,,,,,,,,,,,,,,,,,,,,,,,,,,,,,,,,,,,,,,,,,,,,,,,,,,,,,,,,,,,,
,,,,,,5cd30b2041a6b8001874c41f,62bbfb44edf162ffcb6a7dd8,2022-06-29_10h15.25.118,Colour_Asymmetry_Pilot,2022.1.3,Win32,59.95922773,62bbe60bf3d75ef465d3e404,0,44,44,18,1,twoone,,,,,,,,,,,,,,,,,,,,,,,,,,,,,,,,,,,,,,,,,,,,,,,,,,,,,,,,,,,,,,,,,,,,,,,,,,,,,,,,,,,,,,,,,,,,,,,,,,,,,,,,,,,,,,,,,,,,,,,,,,,,,,,,,,,,,,,,,,,,,,,,,,,,,,,,
,,,,,,5cd30b2041a6b8001874c41f,62bbfb44edf162ffcb6a7dd8,2022-06-29_10h15.25.118,Colour_Asymmetry_Pilot,2022.1.3,Win32,59.95922773,62bbe60bf3d75ef465d3e404,0,45,45,62,1,fourtwo,,,,,,,,,,,,,,,,,,,,,,,,,,,,,,,,,,,,,,,,,,,,,,,,,,,,,,,,,,,,,,,,,,,,,,,,,,,,,,,,,,,,,,,,,,,,,,,,,,,,,,,,,,,,,,,,,,,,,,,,,,,,,,,,,,,,,,,,,,,,,,,,,,,,,,,,
,,,,,,5cd30b2041a6b8001874c41f,62bbfb44edf162ffcb6a7dd8,2022-06-29_10h15.25.118,Colour_Asymmetry_Pilot,2022.1.3,Win32,59.95922773,62bbe60bf3d75ef465d3e404,0,46,46,12,1,threeone,,,,,,,,,,,,,,,,,,,,,,,,,,,,,,,,,,,,,,,,,,,,,,,,,,,,,,,,,,,,,,,,,,,,,,,,,,,,,,,,,,,,,,,,,,,,,,,,,,,,,,,,,,,,,,,,,,,,,,,,,,,,,,,,,,,,,,,,,,,,,,,,,,,,,,,,
,,,,,,5cd30b2041a6b8001874c41f,62bbfb44edf162ffcb6a7dd8,2022-06-29_10h15.25.118,Colour_Asymmetry_Pilot,2022.1.3,Win32,59.95922773,62bbe60bf3d75ef465d3e404,0,47,47,60,1,threeone,,,,,,,,,,,,,,,,,,,,,,,,,,,,,,,,,,,,,,,,,,,,,,,,,,,,,,,,,,,,,,,,,,,,,,,,,,,,,,,,,,,,,,,,,,,,,,,,,,,,,,,,,,,,,,,,,,,,,,,,,,,,,,,,,,,,,,,,,,,,,,,,,,,,,,,,
,,,,,,5cd30b2041a6b8001874c41f,62bbfb44edf162ffcb6a7dd8,2022-06-29_10h15.25.118,Colour_Asymmetry_Pilot,2022.1.3,Win32,59.95922773,62bbe60bf3d75ef465d3e404,0,48,48,53,1,threefour,,,,,,,,,,,,,,,,,,,,,,,,,,,,,,,,,,,,,,,,,,,,,,,,,,,,,,,,,,,,,,,,,,,,,,,,,,,,,,,,,,,,,,,,,,,,,,,,,,,,,,,,,,,,,,,,,,,,,,,,,,,,,,,,,,,,,,,,,,,,,,,,,,,,,,,,
,,,,,,5cd30b2041a6b8001874c41f,62bbfb44edf162ffcb6a7dd8,2022-06-29_10h15.25.118,Colour_Asymmetry_Pilot,2022.1.3,Win32,59.95922773,62bbe60bf3d75ef465d3e404,0,49,49,119,1,fourthree,,,,,,,,,,,,,,,,,,,,,,,,,,,,,,,,,,,,,,,,,,,,,,,,,,,,,,,,,,,,,,,,,,,,,,,,,,,,,,,,,,,,,,,,,,,,,,,,,,,,,,,,,,,,,,,,,,,,,,,,,,,,,,,,,,,,,,,,,,,,,,,,,,,,,,,,
,,,,,,5cd30b2041a6b8001874c41f,62bbfb44edf162ffcb6a7dd8,2022-06-29_10h15.25.118,Colour_Asymmetry_Pilot,2022.1.3,Win32,59.95922773,62bbe60bf3d75ef465d3e404,0,50,50,63,1,fourthree,,,,,,,,,,,,,,,,,,,,,,,,,,,,,,,,,,,,,,,,,,,,,,,,,,,,,,,,,,,,,,,,,,,,,,,,,,,,,,,,,,,,,,,,,,,,,,,,,,,,,,,,,,,,,,,,,,,,,,,,,,,,,,,,,,,,,,,,,,,,,,,,,,,,,,,,
,,,,,,5cd30b2041a6b8001874c41f,62bbfb44edf162ffcb6a7dd8,2022-06-29_10h15.25.118,Colour_Asymmetry_Pilot,2022.1.3,Win32,59.95922773,62bbe60bf3d75ef465d3e404,0,51,51,158,1,fourtwo,,,,,,,,,,,,,,,,,,,,,,,,,,,,,,,,,,,,,,,,,,,,,,,,,,,,,,,,,,,,,,,,,,,,,,,,,,,,,,,,,,,,,,,,,,,,,,,,,,,,,,,,,,,,,,,,,,,,,,,,,,,,,,,,,,,,,,,,,,,,,,,,,,,,,,,,
,,,,,,5cd30b2041a6b8001874c41f,62bbfb44edf162ffcb6a7dd8,2022-06-29_10h15.25.118,Colour_Asymmetry_Pilot,2022.1.3,Win32,59.95922773,62bbe60bf3d75ef465d3e404,0,52,52,65,1,onethree,,,,,,,,,,,,,,,,,,,,,,,,,,,,,,,,,,,,,,,,,,,,,,,,,,,,,,,,,,,,,,,,,,,,,,,,,,,,,,,,,,,,,,,,,,,,,,,,,,,,,,,,,,,,,,,,,,,,,,,,,,,,,,,,,,,,,,,,,,,,,,,,,,,,,,,,
,,,,,,5cd30b2041a6b8001874c41f,62bbfb44edf162ffcb6a7dd8,2022-06-29_10h15.25.118,Colour_Asymmetry_Pilot,2022.1.3,Win32,59.95922773,62bbe60bf3d75ef465d3e404,0,53,53,106,1,twoone,,,,,,,,,,,,,,,,,,,,,,,,,,,,,,,,,,,,,,,,,,,,,,,,,,,,,,,,,,,,,,,,,,,,,,,,,,,,,,,,,,,,,,,,,,,,,,,,,,,,,,,,,,,,,,,,,,,,,,,,,,,,,,,,,,,,,,,,,,,,,,,,,,,,,,,,
,,,,,,5cd30b2041a6b8001874c41f,62bbfb44edf162ffcb6a7dd8,2022-06-29_10h15.25.118,Colour_Asymmetry_Pilot,2022.1.3,Win32,59.95922773,62bbe60bf3d75ef465d3e404,0,54,54,140,1,threeone,,,,,,,,,,,,,,,,,,,,,,,,,,,,,,,,,,,,,,,,,,,,,,,,,,,,,,,,,,,,,,,,,,,,,,,,,,,,,,,,,,,,,,,,,,,,,,,,,,,,,,,,,,,,,,,,,,,,,,,,,,,,,,,,,,,,,,,,,,,,,,,,,,,,,,,,
,,,,,,5cd30b2041a6b8001874c41f,62bbfb44edf162ffcb6a7dd8,2022-06-29_10h15.25.118,Colour_Asymmetry_Pilot,2022.1.3,Win32,59.95922773,62bbe60bf3d75ef465d3e404,0,55,55,101,1,threefour,,,,,,,,,,,,,,,,,,,,,,,,,,,,,,,,,,,,,,,,,,,,,,,,,,,,,,,,,,,,,,,,,,,,,,,,,,,,,,,,,,,,,,,,,,,,,,,,,,,,,,,,,,,,,,,,,,,,,,,,,,,,,,,,,,,,,,,,,,,,,,,,,,,,,,,,
,,,,,,5cd30b2041a6b8001874c41f,62bbfb44edf162ffcb6a7dd8,2022-06-29_10h15.25.118,Colour_Asymmetry_Pilot,2022.1.3,Win32,59.95922773,62bbe60bf3d75ef465d3e404,0,56,56,50,1,twoone,,,,,,,,,,,,,,,,,,,,,,,,,,,,,,,,,,,,,,,,,,,,,,,,,,,,,,,,,,,,,,,,,,,,,,,,,,,,,,,,,,,,,,,,,,,,,,,,,,,,,,,,,,,,,,,,,,,,,,,,,,,,,,,,,,,,,,,,,,,,,,,,,,,,,,,,
,,,,,,5cd30b2041a6b8001874c41f,62bbfb44edf162ffcb6a7dd8,2022-06-29_10h15.25.118,Colour_Asymmetry_Pilot,2022.1.3,Win32,59.95922773,62bbe60bf3d75ef465d3e404,0,57,57,41,1,onethree,,,,,,,,,,,,,,,,,,,,,,,,,,,,,,,,,,,,,,,,,,,,,,,,,,,,,,,,,,,,,,,,,,,,,,,,,,,,,,,,,,,,,,,,,,,,,,,,,,,,,,,,,,,,,,,,,,,,,,,,,,,,,,,,,,,,,,,,,,,,,,,,,,,,,,,,
,,,,,,5cd30b2041a6b8001874c41f,62bbfb44edf162ffcb6a7dd8,2022-06-29_10h15.25.118,Colour_Asymmetry_Pilot,2022.1.3,Win32,59.95922773,62bbe60bf3d75ef465d3e404,0,58,58,51,1,twofour,,,,,,,,,,,,,,,,,,,,,,,,,,,,,,,,,,,,,,,,,,,,,,,,,,,,,,,,,,,,,,,,,,,,,,,,,,,,,,,,,,,,,,,,,,,,,,,,,,,,,,,,,,,,,,,,,,,,,,,,,,,,,,,,,,,,,,,,,,,,,,,,,,,,,,,,
,,,,,,5cd30b2041a6b8001874c41f,62bbfb44edf162ffcb6a7dd8,2022-06-29_10h15.25.118,Colour_Asymmetry_Pilot,2022.1.3,Win32,59.95922773,62bbe60bf3d75ef465d3e404,0,59,59,109,1,threefour,,,,,,,,,,,,,,,,,,,,,,,,,,,,,,,,,,,,,,,,,,,,,,,,,,,,,,,,,,,,,,,,,,,,,,,,,,,,,,,,,,,,,,,,,,,,,,,,,,,,,,,,,,,,,,,,,,,,,,,,,,,,,,,,,,,,,,,,,,,,,,,,,,,,,,,,
,,,,,,5cd30b2041a6b8001874c41f,62bbfb44edf162ffcb6a7dd8,2022-06-29_10h15.25.118,Colour_Asymmetry_Pilot,2022.1.3,Win32,59.95922773,62bbe60bf3d75ef465d3e404,0,60,60,69,1,threefour,,,,,,,,,,,,,,,,,,,,,,,,,,,,,,,,,,,,,,,,,,,,,,,,,,,,,,,,,,,,,,,,,,,,,,,,,,,,,,,,,,,,,,,,,,,,,,,,,,,,,,,,,,,,,,,,,,,,,,,,,,,,,,,,,,,,,,,,,,,,,,,,,,,,,,,,
,,,,,,5cd30b2041a6b8001874c41f,62bbfb44edf162ffcb6a7dd8,2022-06-29_10h15.25.118,Colour_Asymmetry_Pilot,2022.1.3,Win32,59.95922773,62bbe60bf3d75ef465d3e404,0,61,61,49,1,onethree,,,,,,,,,,,,,,,,,,,,,,,,,,,,,,,,,,,,,,,,,,,,,,,,,,,,,,,,,,,,,,,,,,,,,,,,,,,,,,,,,,,,,,,,,,,,,,,,,,,,,,,,,,,,,,,,,,,,,,,,,,,,,,,,,,,,,,,,,,,,,,,,,,,,,,,,
,,,,,,5cd30b2041a6b8001874c41f,62bbfb44edf162ffcb6a7dd8,2022-06-29_10h15.25.118,Colour_Asymmetry_Pilot,2022.1.3,Win32,59.95922773,62bbe60bf3d75ef465d3e404,0,62,62,29,1,threefour,,,,,,,,,,,,,,,,,,,,,,,,,,,,,,,,,,,,,,,,,,,,,,,,,,,,,,,,,,,,,,,,,,,,,,,,,,,,,,,,,,,,,,,,,,,,,,,,,,,,,,,,,,,,,,,,,,,,,,,,,,,,,,,,,,,,,,,,,,,,,,,,,,,,,,,,
,,,,,,5cd30b2041a6b8001874c41f,62bbfb44edf162ffcb6a7dd8,2022-06-29_10h15.25.118,Colour_Asymmetry_Pilot,2022.1.3,Win32,59.95922773,62bbe60bf3d75ef465d3e404,0,63,63,131,1,twofour,,,,,,,,,,,,,,,,,,,,,,,,,,,,,,,,,,,,,,,,,,,,,,,,,,,,,,,,,,,,,,,,,,,,,,,,,,,,,,,,,,,,,,,,,,,,,,,,,,,,,,,,,,,,,,,,,,,,,,,,,,,,,,,,,,,,,,,,,,,,,,,,,,,,,,,,
,,,,,,5cd30b2041a6b8001874c41f,62bbfb44edf162ffcb6a7dd8,2022-06-29_10h15.25.118,Colour_Asymmetry_Pilot,2022.1.3,Win32,59.95922773,62bbe60bf3d75ef465d3e404,0,64,64,148,1,threeone,,,,,,,,,,,,,,,,,,,,,,,,,,,,,,,,,,,,,,,,,,,,,,,,,,,,,,,,,,,,,,,,,,,,,,,,,,,,,,,,,,,,,,,,,,,,,,,,,,,,,,,,,,,,,,,,,,,,,,,,,,,,,,,,,,,,,,,,,,,,,,,,,,,,,,,,
,,,,,,5cd30b2041a6b8001874c41f,62bbfb44edf162ffcb6a7dd8,2022-06-29_10h15.25.118,Colour_Asymmetry_Pilot,2022.1.3,Win32,59.95922773,62bbe60bf3d75ef465d3e404,0,65,65,111,1,fourthree,,,,,,,,,,,,,,,,,,,,,,,,,,,,,,,,,,,,,,,,,,,,,,,,,,,,,,,,,,,,,,,,,,,,,,,,,,,,,,,,,,,,,,,,,,,,,,,,,,,,,,,,,,,,,,,,,,,,,,,,,,,,,,,,,,,,,,,,,,,,,,,,,,,,,,,,
,,,,,,5cd30b2041a6b8001874c41f,62bbfb44edf162ffcb6a7dd8,2022-06-29_10h15.25.118,Colour_Asymmetry_Pilot,2022.1.3,Win32,59.95922773,62bbe60bf3d75ef465d3e404,0,66,66,44,1,threeone,,,,,,,,,,,,,,,,,,,,,,,,,,,,,,,,,,,,,,,,,,,,,,,,,,,,,,,,,,,,,,,,,,,,,,,,,,,,,,,,,,,,,,,,,,,,,,,,,,,,,,,,,,,,,,,,,,,,,,,,,,,,,,,,,,,,,,,,,,,,,,,,,,,,,,,,
,,,,,,5cd30b2041a6b8001874c41f,62bbfb44edf162ffcb6a7dd8,2022-06-29_10h15.25.118,Colour_Asymmetry_Pilot,2022.1.3,Win32,59.95922773,62bbe60bf3d75ef465d3e404,0,67,67,128,1,onetwo,,,,,,,,,,,,,,,,,,,,,,,,,,,,,,,,,,,,,,,,,,,,,,,,,,,,,,,,,,,,,,,,,,,,,,,,,,,,,,,,,,,,,,,,,,,,,,,,,,,,,,,,,,,,,,,,,,,,,,,,,,,,,,,,,,,,,,,,,,,,,,,,,,,,,,,,
,,,,,,5cd30b2041a6b8001874c41f,62bbfb44edf162ffcb6a7dd8,2022-06-29_10h15.25.118,Colour_Asymmetry_Pilot,2022.1.3,Win32,59.95922773,62bbe60bf3d75ef465d3e404,0,68,68,139,1,twofour,,,,,,,,,,,,,,,,,,,,,,,,,,,,,,,,,,,,,,,,,,,,,,,,,,,,,,,,,,,,,,,,,,,,,,,,,,,,,,,,,,,,,,,,,,,,,,,,,,,,,,,,,,,,,,,,,,,,,,,,,,,,,,,,,,,,,,,,,,,,,,,,,,,,,,,,
,,,,,,5cd30b2041a6b8001874c41f,62bbfb44edf162ffcb6a7dd8,2022-06-29_10h15.25.118,Colour_Asymmetry_Pilot,2022.1.3,Win32,59.95922773,62bbe60bf3d75ef465d3e404,0,69,69,6,1,fourtwo,,,,,,,,,,,,,,,,,,,,,,,,,,,,,,,,,,,,,,,,,,,,,,,,,,,,,,,,,,,,,,,,,,,,,,,,,,,,,,,,,,,,,,,,,,,,,,,,,,,,,,,,,,,,,,,,,,,,,,,,,,,,,,,,,,,,,,,,,,,,,,,,,,,,,,,,
,,,,,,5cd30b2041a6b8001874c41f,62bbfb44edf162ffcb6a7dd8,2022-06-29_10h15.25.118,Colour_Asymmetry_Pilot,2022.1.3,Win32,59.95922773,62bbe60bf3d75ef465d3e404,0,70,70,152,1,onetwo,,,,,,,,,,,,,,,,,,,,,,,,,,,,,,,,,,,,,,,,,,,,,,,,,,,,,,,,,,,,,,,,,,,,,,,,,,,,,,,,,,,,,,,,,,,,,,,,,,,,,,,,,,,,,,,,,,,,,,,,,,,,,,,,,,,,,,,,,,,,,,,,,,,,,,,,
,,,,,,5cd30b2041a6b8001874c41f,62bbfb44edf162ffcb6a7dd8,2022-06-29_10h15.25.118,Colour_Asymmetry_Pilot,2022.1.3,Win32,59.95922773,62bbe60bf3d75ef465d3e404,0,71,71,74,1,twoone,,,,,,,,,,,,,,,,,,,,,,,,,,,,,,,,,,,,,,,,,,,,,,,,,,,,,,,,,,,,,,,,,,,,,,,,,,,,,,,,,,,,,,,,,,,,,,,,,,,,,,,,,,,,,,,,,,,,,,,,,,,,,,,,,,,,,,,,,,,,,,,,,,,,,,,,
,,,,,,5cd30b2041a6b8001874c41f,62bbfb44edf162ffcb6a7dd8,2022-06-29_10h15.25.118,Colour_Asymmetry_Pilot,2022.1.3,Win32,59.95922773,62bbe60bf3d75ef465d3e404,0,72,72,104,1,onetwo,,,,,,,,,,,,,,,,,,,,,,,,,,,,,,,,,,,,,,,,,,,,,,,,,,,,,,,,,,,,,,,,,,,,,,,,,,,,,,,,,,,,,,,,,,,,,,,,,,,,,,,,,,,,,,,,,,,,,,,,,,,,,,,,,,,,,,,,,,,,,,,,,,,,,,,,
,,,,,,5cd30b2041a6b8001874c41f,62bbfb44edf162ffcb6a7dd8,2022-06-29_10h15.25.118,Colour_Asymmetry_Pilot,2022.1.3,Win32,59.95922773,62bbe60bf3d75ef465d3e404,0,73,73,138,1,twoone,,,,,,,,,,,,,,,,,,,,,,,,,,,,,,,,,,,,,,,,,,,,,,,,,,,,,,,,,,,,,,,,,,,,,,,,,,,,,,,,,,,,,,,,,,,,,,,,,,,,,,,,,,,,,,,,,,,,,,,,,,,,,,,,,,,,,,,,,,,,,,,,,,,,,,,,
,,,,,,5cd30b2041a6b8001874c41f,62bbfb44edf162ffcb6a7dd8,2022-06-29_10h15.25.118,Colour_Asymmetry_Pilot,2022.1.3,Win32,59.95922773,62bbe60bf3d75ef465d3e404,0,74,74,10,1,twoone,,,,,,,,,,,,,,,,,,,,,,,,,,,,,,,,,,,,,,,,,,,,,,,,,,,,,,,,,,,,,,,,,,,,,,,,,,,,,,,,,,,,,,,,,,,,,,,,,,,,,,,,,,,,,,,,,,,,,,,,,,,,,,,,,,,,,,,,,,,,,,,,,,,,,,,,
,,,,,,5cd30b2041a6b8001874c41f,62bbfb44edf162ffcb6a7dd8,2022-06-29_10h15.25.118,Colour_Asymmetry_Pilot,2022.1.3,Win32,59.95922773,62bbe60bf3d75ef465d3e404,0,75,75,66,1,twoone,,,,,,,,,,,,,,,,,,,,,,,,,,,,,,,,,,,,,,,,,,,,,,,,,,,,,,,,,,,,,,,,,,,,,,,,,,,,,,,,,,,,,,,,,,,,,,,,,,,,,,,,,,,,,,,,,,,,,,,,,,,,,,,,,,,,,,,,,,,,,,,,,,,,,,,,
,,,,,,5cd30b2041a6b8001874c41f,62bbfb44edf162ffcb6a7dd8,2022-06-29_10h15.25.118,Colour_Asymmetry_Pilot,2022.1.3,Win32,59.95922773,62bbe60bf3d75ef465d3e404,0,76,76,99,1,twofour,,,,,,,,,,,,,,,,,,,,,,,,,,,,,,,,,,,,,,,,,,,,,,,,,,,,,,,,,,,,,,,,,,,,,,,,,,,,,,,,,,,,,,,,,,,,,,,,,,,,,,,,,,,,,,,,,,,,,,,,,,,,,,,,,,,,,,,,,,,,,,,,,,,,,,,,
,,,,,,5cd30b2041a6b8001874c41f,62bbfb44edf162ffcb6a7dd8,2022-06-29_10h15.25.118,Colour_Asymmetry_Pilot,2022.1.3,Win32,59.95922773,62bbe60bf3d75ef465d3e404,0,77,77,86,1,fourtwo,,,,,,,,,,,,,,,,,,,,,,,,,,,,,,,,,,,,,,,,,,,,,,,,,,,,,,,,,,,,,,,,,,,,,,,,,,,,,,,,,,,,,,,,,,,,,,,,,,,,,,,,,,,,,,,,,,,,,,,,,,,,,,,,,,,,,,,,,,,,,,,,,,,,,,,,
,,,,,,5cd30b2041a6b8001874c41f,62bbfb44edf162ffcb6a7dd8,2022-06-29_10h15.25.118,Colour_Asymmetry_Pilot,2022.1.3,Win32,59.95922773,62bbe60bf3d75ef465d3e404,0,78,78,89,1,onethree,,,,,,,,,,,,,,,,,,,,,,,,,,,,,,,,,,,,,,,,,,,,,,,,,,,,,,,,,,,,,,,,,,,,,,,,,,,,,,,,,,,,,,,,,,,,,,,,,,,,,,,,,,,,,,,,,,,,,,,,,,,,,,,,,,,,,,,,,,,,,,,,,,,,,,,,
,,,,,,5cd30b2041a6b8001874c41f,62bbfb44edf162ffcb6a7dd8,2022-06-29_10h15.25.118,Colour_Asymmetry_Pilot,2022.1.3,Win32,59.95922773,62bbe60bf3d75ef465d3e404,0,79,79,64,1,onetwo,,,,,,,,,,,,,,,,,,,,,,,,,,,,,,,,,,,,,,,,,,,,,,,,,,,,,,,,,,,,,,,,,,,,,,,,,,,,,,,,,,,,,,,,,,,,,,,,,,,,,,,,,,,,,,,,,,,,,,,,,,,,,,,,,,,,,,,,,,,,,,,,,,,,,,,,
,,,,,,5cd30b2041a6b8001874c41f,62bbfb44edf162ffcb6a7dd8,2022-06-29_10h15.25.118,Colour_Asymmetry_Pilot,2022.1.3,Win32,59.95922773,62bbe60bf3d75ef465d3e404,0,80,80,17,1,onethree,,,,,,,,,,,,,,,,,,,,,,,,,,,,,,,,,,,,,,,,,,,,,,,,,,,,,,,,,,,,,,,,,,,,,,,,,,,,,,,,,,,,,,,,,,,,,,,,,,,,,,,,,,,,,,,,,,,,,,,,,,,,,,,,,,,,,,,,,,,,,,,,,,,,,,,,
,,,,,,5cd30b2041a6b8001874c41f,62bbfb44edf162ffcb6a7dd8,2022-06-29_10h15.25.118,Colour_Asymmetry_Pilot,2022.1.3,Win32,59.95922773,62bbe60bf3d75ef465d3e404,0,81,81,149,1,threefour,,,,,,,,,,,,,,,,,,,,,,,,,,,,,,,,,,,,,,,,,,,,,,,,,,,,,,,,,,,,,,,,,,,,,,,,,,,,,,,,,,,,,,,,,,,,,,,,,,,,,,,,,,,,,,,,,,,,,,,,,,,,,,,,,,,,,,,,,,,,,,,,,,,,,,,,
,,,,,,5cd30b2041a6b8001874c41f,62bbfb44edf162ffcb6a7dd8,2022-06-29_10h15.25.118,Colour_Asymmetry_Pilot,2022.1.3,Win32,59.95922773,62bbe60bf3d75ef465d3e404,0,82,82,143,1,fourthree,,,,,,,,,,,,,,,,,,,,,,,,,,,,,,,,,,,,,,,,,,,,,,,,,,,,,,,,,,,,,,,,,,,,,,,,,,,,,,,,,,,,,,,,,,,,,,,,,,,,,,,,,,,,,,,,,,,,,,,,,,,,,,,,,,,,,,,,,,,,,,,,,,,,,,,,
,,,,,,5cd30b2041a6b8001874c41f,62bbfb44edf162ffcb6a7dd8,2022-06-29_10h15.25.118,Colour_Asymmetry_Pilot,2022.1.3,Win32,59.95922773,62bbe60bf3d75ef465d3e404,0,83,83,81,1,onethree,,,,,,,,,,,,,,,,,,,,,,,,,,,,,,,,,,,,,,,,,,,,,,,,,,,,,,,,,,,,,,,,,,,,,,,,,,,,,,,,,,,,,,,,,,,,,,,,,,,,,,,,,,,,,,,,,,,,,,,,,,,,,,,,,,,,,,,,,,,,,,,,,,,,,,,,
,,,,,,5cd30b2041a6b8001874c41f,62bbfb44edf162ffcb6a7dd8,2022-06-29_10h15.25.118,Colour_Asymmetry_Pilot,2022.1.3,Win32,59.95922773,62bbe60bf3d75ef465d3e404,0,84,84,78,1,fourtwo,,,,,,,,,,,,,,,,,,,,,,,,,,,,,,,,,,,,,,,,,,,,,,,,,,,,,,,,,,,,,,,,,,,,,,,,,,,,,,,,,,,,,,,,,,,,,,,,,,,,,,,,,,,,,,,,,,,,,,,,,,,,,,,,,,,,,,,,,,,,,,,,,,,,,,,,
,,,,,,5cd30b2041a6b8001874c41f,62bbfb44edf162ffcb6a7dd8,2022-06-29_10h15.25.118,Colour_Asymmetry_Pilot,2022.1.3,Win32,59.95922773,62bbe60bf3d75ef465d3e404,0,85,85,3,1,twofour,,,,,,,,,,,,,,,,,,,,,,,,,,,,,,,,,,,,,,,,,,,,,,,,,,,,,,,,,,,,,,,,,,,,,,,,,,,,,,,,,,,,,,,,,,,,,,,,,,,,,,,,,,,,,,,,,,,,,,,,,,,,,,,,,,,,,,,,,,,,,,,,,,,,,,,,
,,,,,,5cd30b2041a6b8001874c41f,62bbfb44edf162ffcb6a7dd8,2022-06-29_10h15.25.118,Colour_Asymmetry_Pilot,2022.1.3,Win32,59.95922773,62bbe60bf3d75ef465d3e404,0,86,86,137,1,onethree,,,,,,,,,,,,,,,,,,,,,,,,,,,,,,,,,,,,,,,,,,,,,,,,,,,,,,,,,,,,,,,,,,,,,,,,,,,,,,,,,,,,,,,,,,,,,,,,,,,,,,,,,,,,,,,,,,,,,,,,,,,,,,,,,,,,,,,,,,,,,,,,,,,,,,,,
,,,,,,5cd30b2041a6b8001874c41f,62bbfb44edf162ffcb6a7dd8,2022-06-29_10h15.25.118,Colour_Asymmetry_Pilot,2022.1.3,Win32,59.95922773,62bbe60bf3d75ef465d3e404,0,87,87,92,1,threeone,,,,,,,,,,,,,,,,,,,,,,,,,,,,,,,,,,,,,,,,,,,,,,,,,,,,,,,,,,,,,,,,,,,,,,,,,,,,,,,,,,,,,,,,,,,,,,,,,,,,,,,,,,,,,,,,,,,,,,,,,,,,,,,,,,,,,,,,,,,,,,,,,,,,,,,,
,,,,,,5cd30b2041a6b8001874c41f,62bbfb44edf162ffcb6a7dd8,2022-06-29_10h15.25.118,Colour_Asymmetry_Pilot,2022.1.3,Win32,59.95922773,62bbe60bf3d75ef465d3e404,0,88,88,71,1,fourthree,,,,,,,,,,,,,,,,,,,,,,,,,,,,,,,,,,,,,,,,,,,,,,,,,,,,,,,,,,,,,,,,,,,,,,,,,,,,,,,,,,,,,,,,,,,,,,,,,,,,,,,,,,,,,,,,,,,,,,,,,,,,,,,,,,,,,,,,,,,,,,,,,,,,,,,,
,,,,,,5cd30b2041a6b8001874c41f,62bbfb44edf162ffcb6a7dd8,2022-06-29_10h15.25.118,Colour_Asymmetry_Pilot,2022.1.3,Win32,59.95922773,62bbe60bf3d75ef465d3e404,0,89,89,19,1,twofour,,,,,,,,,,,,,,,,,,,,,,,,,,,,,,,,,,,,,,,,,,,,,,,,,,,,,,,,,,,,,,,,,,,,,,,,,,,,,,,,,,,,,,,,,,,,,,,,,,,,,,,,,,,,,,,,,,,,,,,,,,,,,,,,,,,,,,,,,,,,,,,,,,,,,,,,
,,,,,,5cd30b2041a6b8001874c41f,62bbfb44edf162ffcb6a7dd8,2022-06-29_10h15.25.118,Colour_Asymmetry_Pilot,2022.1.3,Win32,59.95922773,62bbe60bf3d75ef465d3e404,0,90,90,83,1,twofour,,,,,,,,,,,,,,,,,,,,,,,,,,,,,,,,,,,,,,,,,,,,,,,,,,,,,,,,,,,,,,,,,,,,,,,,,,,,,,,,,,,,,,,,,,,,,,,,,,,,,,,,,,,,,,,,,,,,,,,,,,,,,,,,,,,,,,,,,,,,,,,,,,,,,,,,
,,,,,,5cd30b2041a6b8001874c41f,62bbfb44edf162ffcb6a7dd8,2022-06-29_10h15.25.118,Colour_Asymmetry_Pilot,2022.1.3,Win32,59.95922773,62bbe60bf3d75ef465d3e404,0,91,91,24,1,onetwo,,,,,,,,,,,,,,,,,,,,,,,,,,,,,,,,,,,,,,,,,,,,,,,,,,,,,,,,,,,,,,,,,,,,,,,,,,,,,,,,,,,,,,,,,,,,,,,,,,,,,,,,,,,,,,,,,,,,,,,,,,,,,,,,,,,,,,,,,,,,,,,,,,,,,,,,
,,,,,,5cd30b2041a6b8001874c41f,62bbfb44edf162ffcb6a7dd8,2022-06-29_10h15.25.118,Colour_Asymmetry_Pilot,2022.1.3,Win32,59.95922773,62bbe60bf3d75ef465d3e404,0,92,92,126,1,fourtwo,,,,,,,,,,,,,,,,,,,,,,,,,,,,,,,,,,,,,,,,,,,,,,,,,,,,,,,,,,,,,,,,,,,,,,,,,,,,,,,,,,,,,,,,,,,,,,,,,,,,,,,,,,,,,,,,,,,,,,,,,,,,,,,,,,,,,,,,,,,,,,,,,,,,,,,,
,,,,,,5cd30b2041a6b8001874c41f,62bbfb44edf162ffcb6a7dd8,2022-06-29_10h15.25.118,Colour_Asymmetry_Pilot,2022.1.3,Win32,59.95922773,62bbe60bf3d75ef465d3e404,0,93,93,47,1,fourthree,,,,,,,,,,,,,,,,,,,,,,,,,,,,,,,,,,,,,,,,,,,,,,,,,,,,,,,,,,,,,,,,,,,,,,,,,,,,,,,,,,,,,,,,,,,,,,,,,,,,,,,,,,,,,,,,,,,,,,,,,,,,,,,,,,,,,,,,,,,,,,,,,,,,,,,,
,,,,,,5cd30b2041a6b8001874c41f,62bbfb44edf162ffcb6a7dd8,2022-06-29_10h15.25.118,Colour_Asymmetry_Pilot,2022.1.3,Win32,59.95922773,62bbe60bf3d75ef465d3e404,0,94,94,13,1,threefour,,,,,,,,,,,,,,,,,,,,,,,,,,,,,,,,,,,,,,,,,,,,,,,,,,,,,,,,,,,,,,,,,,,,,,,,,,,,,,,,,,,,,,,,,,,,,,,,,,,,,,,,,,,,,,,,,,,,,,,,,,,,,,,,,,,,,,,,,,,,,,,,,,,,,,,,
,,,,,,5cd30b2041a6b8001874c41f,62bbfb44edf162ffcb6a7dd8,2022-06-29_10h15.25.118,Colour_Asymmetry_Pilot,2022.1.3,Win32,59.95922773,62bbe60bf3d75ef465d3e404,0,95,95,39,1,fourthree,,,,,,,,,,,,,,,,,,,,,,,,,,,,,,,,,,,,,,,,,,,,,,,,,,,,,,,,,,,,,,,,,,,,,,,,,,,,,,,,,,,,,,,,,,,,,,,,,,,,,,,,,,,,,,,,,,,,,,,,,,,,,,,,,,,,,,,,,,,,,,,,,,,,,,,,
,,,,,,5cd30b2041a6b8001874c41f,62bbfb44edf162ffcb6a7dd8,2022-06-29_10h15.25.118,Colour_Asymmetry_Pilot,2022.1.3,Win32,59.95922773,62bbe60bf3d75ef465d3e404,0,96,96,15,1,fourthree,,,,,,,,,,,,,,,,,,,,,,,,,,,,,,,,,,,,,,,,,,,,,,,,,,,,,,,,,,,,,,,,,,,,,,,,,,,,,,,,,,,,,,,,,,,,,,,,,,,,,,,,,,,,,,,,,,,,,,,,,,,,,,,,,,,,,,,,,,,,,,,,,,,,,,,,
,,,,,,5cd30b2041a6b8001874c41f,62bbfb44edf162ffcb6a7dd8,2022-06-29_10h15.25.118,Colour_Asymmetry_Pilot,2022.1.3,Win32,59.95922773,62bbe60bf3d75ef465d3e404,0,97,97,135,1,fourthree,,,,,,,,,,,,,,,,,,,,,,,,,,,,,,,,,,,,,,,,,,,,,,,,,,,,,,,,,,,,,,,,,,,,,,,,,,,,,,,,,,,,,,,,,,,,,,,,,,,,,,,,,,,,,,,,,,,,,,,,,,,,,,,,,,,,,,,,,,,,,,,,,,,,,,,,
,,,,,,5cd30b2041a6b8001874c41f,62bbfb44edf162ffcb6a7dd8,2022-06-29_10h15.25.118,Colour_Asymmetry_Pilot,2022.1.3,Win32,59.95922773,62bbe60bf3d75ef465d3e404,0,98,98,1,1,onethree,,,,,,,,,,,,,,,,,,,,,,,,,,,,,,,,,,,,,,,,,,,,,,,,,,,,,,,,,,,,,,,,,,,,,,,,,,,,,,,,,,,,,,,,,,,,,,,,,,,,,,,,,,,,,,,,,,,,,,,,,,,,,,,,,,,,,,,,,,,,,,,,,,,,,,,,
,,,,,,5cd30b2041a6b8001874c41f,62bbfb44edf162ffcb6a7dd8,2022-06-29_10h15.25.118,Colour_Asymmetry_Pilot,2022.1.3,Win32,59.95922773,62bbe60bf3d75ef465d3e404,0,99,99,156,1,threeone,,,,,,,,,,,,,,,,,,,,,,,,,,,,,,,,,,,,,,,,,,,,,,,,,,,,,,,,,,,,,,,,,,,,,,,,,,,,,,,,,,,,,,,,,,,,,,,,,,,,,,,,,,,,,,,,,,,,,,,,,,,,,,,,,,,,,,,,,,,,,,,,,,,,,,,,
,,,,,,5cd30b2041a6b8001874c41f,62bbfb44edf162ffcb6a7dd8,2022-06-29_10h15.25.118,Colour_Asymmetry_Pilot,2022.1.3,Win32,59.95922773,62bbe60bf3d75ef465d3e404,0,100,100,112,1,onetwo,,,,,,,,,,,,,,,,,,,,,,,,,,,,,,,,,,,,,,,,,,,,,,,,,,,,,,,,,,,,,,,,,,,,,,,,,,,,,,,,,,,,,,,,,,,,,,,,,,,,,,,,,,,,,,,,,,,,,,,,,,,,,,,,,,,,,,,,,,,,,,,,,,,,,,,,
,,,,,,5cd30b2041a6b8001874c41f,62bbfb44edf162ffcb6a7dd8,2022-06-29_10h15.25.118,Colour_Asymmetry_Pilot,2022.1.3,Win32,59.95922773,62bbe60bf3d75ef465d3e404,0,101,101,121,1,onethree,,,,,,,,,,,,,,,,,,,,,,,,,,,,,,,,,,,,,,,,,,,,,,,,,,,,,,,,,,,,,,,,,,,,,,,,,,,,,,,,,,,,,,,,,,,,,,,,,,,,,,,,,,,,,,,,,,,,,,,,,,,,,,,,,,,,,,,,,,,,,,,,,,,,,,,,
,,,,,,5cd30b2041a6b8001874c41f,62bbfb44edf162ffcb6a7dd8,2022-06-29_10h15.25.118,Colour_Asymmetry_Pilot,2022.1.3,Win32,59.95922773,62bbe60bf3d75ef465d3e404,0,102,102,11,1,twofour,,,,,,,,,,,,,,,,,,,,,,,,,,,,,,,,,,,,,,,,,,,,,,,,,,,,,,,,,,,,,,,,,,,,,,,,,,,,,,,,,,,,,,,,,,,,,,,,,,,,,,,,,,,,,,,,,,,,,,,,,,,,,,,,,,,,,,,,,,,,,,,,,,,,,,,,
,,,,,,5cd30b2041a6b8001874c41f,62bbfb44edf162ffcb6a7dd8,2022-06-29_10h15.25.118,Colour_Asymmetry_Pilot,2022.1.3,Win32,59.95922773,62bbe60bf3d75ef465d3e404,0,103,103,115,1,twofour,,,,,,,,,,,,,,,,,,,,,,,,,,,,,,,,,,,,,,,,,,,,,,,,,,,,,,,,,,,,,,,,,,,,,,,,,,,,,,,,,,,,,,,,,,,,,,,,,,,,,,,,,,,,,,,,,,,,,,,,,,,,,,,,,,,,,,,,,,,,,,,,,,,,,,,,
,,,,,,5cd30b2041a6b8001874c41f,62bbfb44edf162ffcb6a7dd8,2022-06-29_10h15.25.118,Colour_Asymmetry_Pilot,2022.1.3,Win32,59.95922773,62bbe60bf3d75ef465d3e404,0,104,104,72,1,onetwo,,,,,,,,,,,,,,,,,,,,,,,,,,,,,,,,,,,,,,,,,,,,,,,,,,,,,,,,,,,,,,,,,,,,,,,,,,,,,,,,,,,,,,,,,,,,,,,,,,,,,,,,,,,,,,,,,,,,,,,,,,,,,,,,,,,,,,,,,,,,,,,,,,,,,,,,
,,,,,,5cd30b2041a6b8001874c41f,62bbfb44edf162ffcb6a7dd8,2022-06-29_10h15.25.118,Colour_Asymmetry_Pilot,2022.1.3,Win32,59.95922773,62bbe60bf3d75ef465d3e404,0,105,105,146,1,twoone,,,,,,,,,,,,,,,,,,,,,,,,,,,,,,,,,,,,,,,,,,,,,,,,,,,,,,,,,,,,,,,,,,,,,,,,,,,,,,,,,,,,,,,,,,,,,,,,,,,,,,,,,,,,,,,,,,,,,,,,,,,,,,,,,,,,,,,,,,,,,,,,,,,,,,,,
,,,,,,5cd30b2041a6b8001874c41f,62bbfb44edf162ffcb6a7dd8,2022-06-29_10h15.25.118,Colour_Asymmetry_Pilot,2022.1.3,Win32,59.95922773,62bbe60bf3d75ef465d3e404,0,106,106,117,1,threefour,,,,,,,,,,,,,,,,,,,,,,,,,,,,,,,,,,,,,,,,,,,,,,,,,,,,,,,,,,,,,,,,,,,,,,,,,,,,,,,,,,,,,,,,,,,,,,,,,,,,,,,,,,,,,,,,,,,,,,,,,,,,,,,,,,,,,,,,,,,,,,,,,,,,,,,,
,,,,,,5cd30b2041a6b8001874c41f,62bbfb44edf162ffcb6a7dd8,2022-06-29_10h15.25.118,Colour_Asymmetry_Pilot,2022.1.3,Win32,59.95922773,62bbe60bf3d75ef465d3e404,0,107,107,129,1,onethree,,,,,,,,,,,,,,,,,,,,,,,,,,,,,,,,,,,,,,,,,,,,,,,,,,,,,,,,,,,,,,,,,,,,,,,,,,,,,,,,,,,,,,,,,,,,,,,,,,,,,,,,,,,,,,,,,,,,,,,,,,,,,,,,,,,,,,,,,,,,,,,,,,,,,,,,
,,,,,,5cd30b2041a6b8001874c41f,62bbfb44edf162ffcb6a7dd8,2022-06-29_10h15.25.118,Colour_Asymmetry_Pilot,2022.1.3,Win32,59.95922773,62bbe60bf3d75ef465d3e404,0,108,108,142,1,fourtwo,,,,,,,,,,,,,,,,,,,,,,,,,,,,,,,,,,,,,,,,,,,,,,,,,,,,,,,,,,,,,,,,,,,,,,,,,,,,,,,,,,,,,,,,,,,,,,,,,,,,,,,,,,,,,,,,,,,,,,,,,,,,,,,,,,,,,,,,,,,,,,,,,,,,,,,,
,,,,,,5cd30b2041a6b8001874c41f,62bbfb44edf162ffcb6a7dd8,2022-06-29_10h15.25.118,Colour_Asymmetry_Pilot,2022.1.3,Win32,59.95922773,62bbe60bf3d75ef465d3e404,0,109,109,40,1,onetwo,,,,,,,,,,,,,,,,,,,,,,,,,,,,,,,,,,,,,,,,,,,,,,,,,,,,,,,,,,,,,,,,,,,,,,,,,,,,,,,,,,,,,,,,,,,,,,,,,,,,,,,,,,,,,,,,,,,,,,,,,,,,,,,,,,,,,,,,,,,,,,,,,,,,,,,,
,,,,,,5cd30b2041a6b8001874c41f,62bbfb44edf162ffcb6a7dd8,2022-06-29_10h15.25.118,Colour_Asymmetry_Pilot,2022.1.3,Win32,59.95922773,62bbe60bf3d75ef465d3e404,0,110,110,7,1,fourthree,,,,,,,,,,,,,,,,,,,,,,,,,,,,,,,,,,,,,,,,,,,,,,,,,,,,,,,,,,,,,,,,,,,,,,,,,,,,,,,,,,,,,,,,,,,,,,,,,,,,,,,,,,,,,,,,,,,,,,,,,,,,,,,,,,,,,,,,,,,,,,,,,,,,,,,,
,,,,,,5cd30b2041a6b8001874c41f,62bbfb44edf162ffcb6a7dd8,2022-06-29_10h15.25.118,Colour_Asymmetry_Pilot,2022.1.3,Win32,59.95922773,62bbe60bf3d75ef465d3e404,0,111,111,127,1,fourthree,,,,,,,,,,,,,,,,,,,,,,,,,,,,,,,,,,,,,,,,,,,,,,,,,,,,,,,,,,,,,,,,,,,,,,,,,,,,,,,,,,,,,,,,,,,,,,,,,,,,,,,,,,,,,,,,,,,,,,,,,,,,,,,,,,,,,,,,,,,,,,,,,,,,,,,,
,,,,,,5cd30b2041a6b8001874c41f,62bbfb44edf162ffcb6a7dd8,2022-06-29_10h15.25.118,Colour_Asymmetry_Pilot,2022.1.3,Win32,59.95922773,62bbe60bf3d75ef465d3e404,0,112,112,68,1,threeone,,,,,,,,,,,,,,,,,,,,,,,,,,,,,,,,,,,,,,,,,,,,,,,,,,,,,,,,,,,,,,,,,,,,,,,,,,,,,,,,,,,,,,,,,,,,,,,,,,,,,,,,,,,,,,,,,,,,,,,,,,,,,,,,,,,,,,,,,,,,,,,,,,,,,,,,
,,,,,,5cd30b2041a6b8001874c41f,62bbfb44edf162ffcb6a7dd8,2022-06-29_10h15.25.118,Colour_Asymmetry_Pilot,2022.1.3,Win32,59.95922773,62bbe60bf3d75ef465d3e404,0,113,113,130,1,twoone,,,,,,,,,,,,,,,,,,,,,,,,,,,,,,,,,,,,,,,,,,,,,,,,,,,,,,,,,,,,,,,,,,,,,,,,,,,,,,,,,,,,,,,,,,,,,,,,,,,,,,,,,,,,,,,,,,,,,,,,,,,,,,,,,,,,,,,,,,,,,,,,,,,,,,,,
,,,,,,5cd30b2041a6b8001874c41f,62bbfb44edf162ffcb6a7dd8,2022-06-29_10h15.25.118,Colour_Asymmetry_Pilot,2022.1.3,Win32,59.95922773,62bbe60bf3d75ef465d3e404,0,114,114,155,1,twofour,,,,,,,,,,,,,,,,,,,,,,,,,,,,,,,,,,,,,,,,,,,,,,,,,,,,,,,,,,,,,,,,,,,,,,,,,,,,,,,,,,,,,,,,,,,,,,,,,,,,,,,,,,,,,,,,,,,,,,,,,,,,,,,,,,,,,,,,,,,,,,,,,,,,,,,,
,,,,,,5cd30b2041a6b8001874c41f,62bbfb44edf162ffcb6a7dd8,2022-06-29_10h15.25.118,Colour_Asymmetry_Pilot,2022.1.3,Win32,59.95922773,62bbe60bf3d75ef465d3e404,0,115,115,95,1,fourthree,,,,,,,,,,,,,,,,,,,,,,,,,,,,,,,,,,,,,,,,,,,,,,,,,,,,,,,,,,,,,,,,,,,,,,,,,,,,,,,,,,,,,,,,,,,,,,,,,,,,,,,,,,,,,,,,,,,,,,,,,,,,,,,,,,,,,,,,,,,,,,,,,,,,,,,,
,,,,,,5cd30b2041a6b8001874c41f,62bbfb44edf162ffcb6a7dd8,2022-06-29_10h15.25.118,Colour_Asymmetry_Pilot,2022.1.3,Win32,59.95922773,62bbe60bf3d75ef465d3e404,0,116,116,160,1,onetwo,,,,,,,,,,,,,,,,,,,,,,,,,,,,,,,,,,,,,,,,,,,,,,,,,,,,,,,,,,,,,,,,,,,,,,,,,,,,,,,,,,,,,,,,,,,,,,,,,,,,,,,,,,,,,,,,,,,,,,,,,,,,,,,,,,,,,,,,,,,,,,,,,,,,,,,,
,,,,,,5cd30b2041a6b8001874c41f,62bbfb44edf162ffcb6a7dd8,2022-06-29_10h15.25.118,Colour_Asymmetry_Pilot,2022.1.3,Win32,59.95922773,62bbe60bf3d75ef465d3e404,0,117,117,90,1,twoone,,,,,,,,,,,,,,,,,,,,,,,,,,,,,,,,,,,,,,,,,,,,,,,,,,,,,,,,,,,,,,,,,,,,,,,,,,,,,,,,,,,,,,,,,,,,,,,,,,,,,,,,,,,,,,,,,,,,,,,,,,,,,,,,,,,,,,,,,,,,,,,,,,,,,,,,
,,,,,,5cd30b2041a6b8001874c41f,62bbfb44edf162ffcb6a7dd8,2022-06-29_10h15.25.118,Colour_Asymmetry_Pilot,2022.1.3,Win32,59.95922773,62bbe60bf3d75ef465d3e404,0,118,118,110,1,fourtwo,,,,,,,,,,,,,,,,,,,,,,,,,,,,,,,,,,,,,,,,,,,,,,,,,,,,,,,,,,,,,,,,,,,,,,,,,,,,,,,,,,,,,,,,,,,,,,,,,,,,,,,,,,,,,,,,,,,,,,,,,,,,,,,,,,,,,,,,,,,,,,,,,,,,,,,,
,,,,,,5cd30b2041a6b8001874c41f,62bbfb44edf162ffcb6a7dd8,2022-06-29_10h15.25.118,Colour_Asymmetry_Pilot,2022.1.3,Win32,59.95922773,62bbe60bf3d75ef465d3e404,0,119,119,46,1,fourtwo,,,,,,,,,,,,,,,,,,,,,,,,,,,,,,,,,,,,,,,,,,,,,,,,,,,,,,,,,,,,,,,,,,,,,,,,,,,,,,,,,,,,,,,,,,,,,,,,,,,,,,,,,,,,,,,,,,,,,,,,,,,,,,,,,,,,,,,,,,,,,,,,,,,,,,,,
,,,,,,5cd30b2041a6b8001874c41f,62bbfb44edf162ffcb6a7dd8,2022-06-29_10h15.25.118,Colour_Asymmetry_Pilot,2022.1.3,Win32,59.95922773,62bbe60bf3d75ef465d3e404,0,120,120,58,1,twoone,,,,,,,,,,,,,,,,,,,,,,,,,,,,,,,,,,,,,,,,,,,,,,,,,,,,,,,,,,,,,,,,,,,,,,,,,,,,,,,,,,,,,,,,,,,,,,,,,,,,,,,,,,,,,,,,,,,,,,,,,,,,,,,,,,,,,,,,,,,,,,,,,,,,,,,,
,,,,,,5cd30b2041a6b8001874c41f,62bbfb44edf162ffcb6a7dd8,2022-06-29_10h15.25.118,Colour_Asymmetry_Pilot,2022.1.3,Win32,59.95922773,62bbe60bf3d75ef465d3e404,0,121,121,52,1,threeone,,,,,,,,,,,,,,,,,,,,,,,,,,,,,,,,,,,,,,,,,,,,,,,,,,,,,,,,,,,,,,,,,,,,,,,,,,,,,,,,,,,,,,,,,,,,,,,,,,,,,,,,,,,,,,,,,,,,,,,,,,,,,,,,,,,,,,,,,,,,,,,,,,,,,,,,
,,,,,,5cd30b2041a6b8001874c41f,62bbfb44edf162ffcb6a7dd8,2022-06-29_10h15.25.118,Colour_Asymmetry_Pilot,2022.1.3,Win32,59.95922773,62bbe60bf3d75ef465d3e404,0,122,122,26,1,twoone,,,,,,,,,,,,,,,,,,,,,,,,,,,,,,,,,,,,,,,,,,,,,,,,,,,,,,,,,,,,,,,,,,,,,,,,,,,,,,,,,,,,,,,,,,,,,,,,,,,,,,,,,,,,,,,,,,,,,,,,,,,,,,,,,,,,,,,,,,,,,,,,,,,,,,,,
,,,,,,5cd30b2041a6b8001874c41f,62bbfb44edf162ffcb6a7dd8,2022-06-29_10h15.25.118,Colour_Asymmetry_Pilot,2022.1.3,Win32,59.95922773,62bbe60bf3d75ef465d3e404,0,123,123,55,1,fourthree,,,,,,,,,,,,,,,,,,,,,,,,,,,,,,,,,,,,,,,,,,,,,,,,,,,,,,,,,,,,,,,,,,,,,,,,,,,,,,,,,,,,,,,,,,,,,,,,,,,,,,,,,,,,,,,,,,,,,,,,,,,,,,,,,,,,,,,,,,,,,,,,,,,,,,,,
,,,,,,5cd30b2041a6b8001874c41f,62bbfb44edf162ffcb6a7dd8,2022-06-29_10h15.25.118,Colour_Asymmetry_Pilot,2022.1.3,Win32,59.95922773,62bbe60bf3d75ef465d3e404,0,124,124,102,1,fourtwo,,,,,,,,,,,,,,,,,,,,,,,,,,,,,,,,,,,,,,,,,,,,,,,,,,,,,,,,,,,,,,,,,,,,,,,,,,,,,,,,,,,,,,,,,,,,,,,,,,,,,,,,,,,,,,,,,,,,,,,,,,,,,,,,,,,,,,,,,,,,,,,,,,,,,,,,
,,,,,,5cd30b2041a6b8001874c41f,62bbfb44edf162ffcb6a7dd8,2022-06-29_10h15.25.118,Colour_Asymmetry_Pilot,2022.1.3,Win32,59.95922773,62bbe60bf3d75ef465d3e404,0,125,125,9,1,onethree,,,,,,,,,,,,,,,,,,,,,,,,,,,,,,,,,,,,,,,,,,,,,,,,,,,,,,,,,,,,,,,,,,,,,,,,,,,,,,,,,,,,,,,,,,,,,,,,,,,,,,,,,,,,,,,,,,,,,,,,,,,,,,,,,,,,,,,,,,,,,,,,,,,,,,,,
,,,,,,5cd30b2041a6b8001874c41f,62bbfb44edf162ffcb6a7dd8,2022-06-29_10h15.25.118,Colour_Asymmetry_Pilot,2022.1.3,Win32,59.95922773,62bbe60bf3d75ef465d3e404,0,126,126,120,1,onetwo,,,,,,,,,,,,,,,,,,,,,,,,,,,,,,,,,,,,,,,,,,,,,,,,,,,,,,,,,,,,,,,,,,,,,,,,,,,,,,,,,,,,,,,,,,,,,,,,,,,,,,,,,,,,,,,,,,,,,,,,,,,,,,,,,,,,,,,,,,,,,,,,,,,,,,,,
,,,,,,5cd30b2041a6b8001874c41f,62bbfb44edf162ffcb6a7dd8,2022-06-29_10h15.25.118,Colour_Asymmetry_Pilot,2022.1.3,Win32,59.95922773,62bbe60bf3d75ef465d3e404,0,127,127,2,1,twoone,,,,,,,,,,,,,,,,,,,,,,,,,,,,,,,,,,,,,,,,,,,,,,,,,,,,,,,,,,,,,,,,,,,,,,,,,,,,,,,,,,,,,,,,,,,,,,,,,,,,,,,,,,,,,,,,,,,,,,,,,,,,,,,,,,,,,,,,,,,,,,,,,,,,,,,,
,,,,,,5cd30b2041a6b8001874c41f,62bbfb44edf162ffcb6a7dd8,2022-06-29_10h15.25.118,Colour_Asymmetry_Pilot,2022.1.3,Win32,59.95922773,62bbe60bf3d75ef465d3e404,0,128,128,88,1,onetwo,,,,,,,,,,,,,,,,,,,,,,,,,,,,,,,,,,,,,,,,,,,,,,,,,,,,,,,,,,,,,,,,,,,,,,,,,,,,,,,,,,,,,,,,,,,,,,,,,,,,,,,,,,,,,,,,,,,,,,,,,,,,,,,,,,,,,,,,,,,,,,,,,,,,,,,,
,,,,,,5cd30b2041a6b8001874c41f,62bbfb44edf162ffcb6a7dd8,2022-06-29_10h15.25.118,Colour_Asymmetry_Pilot,2022.1.3,Win32,59.95922773,62bbe60bf3d75ef465d3e404,0,129,129,85,1,threefour,,,,,,,,,,,,,,,,,,,,,,,,,,,,,,,,,,,,,,,,,,,,,,,,,,,,,,,,,,,,,,,,,,,,,,,,,,,,,,,,,,,,,,,,,,,,,,,,,,,,,,,,,,,,,,,,,,,,,,,,,,,,,,,,,,,,,,,,,,,,,,,,,,,,,,,,
,,,,,,5cd30b2041a6b8001874c41f,62bbfb44edf162ffcb6a7dd8,2022-06-29_10h15.25.118,Colour_Asymmetry_Pilot,2022.1.3,Win32,59.95922773,62bbe60bf3d75ef465d3e404,0,130,130,23,1,fourthree,,,,,,,,,,,,,,,,,,,,,,,,,,,,,,,,,,,,,,,,,,,,,,,,,,,,,,,,,,,,,,,,,,,,,,,,,,,,,,,,,,,,,,,,,,,,,,,,,,,,,,,,,,,,,,,,,,,,,,,,,,,,,,,,,,,,,,,,,,,,,,,,,,,,,,,,
,,,,,,5cd30b2041a6b8001874c41f,62bbfb44edf162ffcb6a7dd8,2022-06-29_10h15.25.118,Colour_Asymmetry_Pilot,2022.1.3,Win32,59.95922773,62bbe60bf3d75ef465d3e404,0,131,131,36,1,threeone,,,,,,,,,,,,,,,,,,,,,,,,,,,,,,,,,,,,,,,,,,,,,,,,,,,,,,,,,,,,,,,,,,,,,,,,,,,,,,,,,,,,,,,,,,,,,,,,,,,,,,,,,,,,,,,,,,,,,,,,,,,,,,,,,,,,,,,,,,,,,,,,,,,,,,,,
,,,,,,5cd30b2041a6b8001874c41f,62bbfb44edf162ffcb6a7dd8,2022-06-29_10h15.25.118,Colour_Asymmetry_Pilot,2022.1.3,Win32,59.95922773,62bbe60bf3d75ef465d3e404,0,132,132,100,1,threeone,,,,,,,,,,,,,,,,,,,,,,,,,,,,,,,,,,,,,,,,,,,,,,,,,,,,,,,,,,,,,,,,,,,,,,,,,,,,,,,,,,,,,,,,,,,,,,,,,,,,,,,,,,,,,,,,,,,,,,,,,,,,,,,,,,,,,,,,,,,,,,,,,,,,,,,,
,,,,,,5cd30b2041a6b8001874c41f,62bbfb44edf162ffcb6a7dd8,2022-06-29_10h15.25.118,Colour_Asymmetry_Pilot,2022.1.3,Win32,59.95922773,62bbe60bf3d75ef465d3e404,0,133,133,27,1,twofour,,,,,,,,,,,,,,,,,,,,,,,,,,,,,,,,,,,,,,,,,,,,,,,,,,,,,,,,,,,,,,,,,,,,,,,,,,,,,,,,,,,,,,,,,,,,,,,,,,,,,,,,,,,,,,,,,,,,,,,,,,,,,,,,,,,,,,,,,,,,,,,,,,,,,,,,
,,,,,,5cd30b2041a6b8001874c41f,62bbfb44edf162ffcb6a7dd8,2022-06-29_10h15.25.118,Colour_Asymmetry_Pilot,2022.1.3,Win32,59.95922773,62bbe60bf3d75ef465d3e404,0,134,134,30,1,fourtwo,,,,,,,,,,,,,,,,,,,,,,,,,,,,,,,,,,,,,,,,,,,,,,,,,,,,,,,,,,,,,,,,,,,,,,,,,,,,,,,,,,,,,,,,,,,,,,,,,,,,,,,,,,,,,,,,,,,,,,,,,,,,,,,,,,,,,,,,,,,,,,,,,,,,,,,,
,,,,,,5cd30b2041a6b8001874c41f,62bbfb44edf162ffcb6a7dd8,2022-06-29_10h15.25.118,Colour_Asymmetry_Pilot,2022.1.3,Win32,59.95922773,62bbe60bf3d75ef465d3e404,0,135,135,22,1,fourtwo,,,,,,,,,,,,,,,,,,,,,,,,,,,,,,,,,,,,,,,,,,,,,,,,,,,,,,,,,,,,,,,,,,,,,,,,,,,,,,,,,,,,,,,,,,,,,,,,,,,,,,,,,,,,,,,,,,,,,,,,,,,,,,,,,,,,,,,,,,,,,,,,,,,,,,,,
,,,,,,5cd30b2041a6b8001874c41f,62bbfb44edf162ffcb6a7dd8,2022-06-29_10h15.25.118,Colour_Asymmetry_Pilot,2022.1.3,Win32,59.95922773,62bbe60bf3d75ef465d3e404,0,136,136,91,1,twofour,,,,,,,,,,,,,,,,,,,,,,,,,,,,,,,,,,,,,,,,,,,,,,,,,,,,,,,,,,,,,,,,,,,,,,,,,,,,,,,,,,,,,,,,,,,,,,,,,,,,,,,,,,,,,,,,,,,,,,,,,,,,,,,,,,,,,,,,,,,,,,,,,,,,,,,,
,,,,,,5cd30b2041a6b8001874c41f,62bbfb44edf162ffcb6a7dd8,2022-06-29_10h15.25.118,Colour_Asymmetry_Pilot,2022.1.3,Win32,59.95922773,62bbe60bf3d75ef465d3e404,0,137,137,87,1,fourthree,,,,,,,,,,,,,,,,,,,,,,,,,,,,,,,,,,,,,,,,,,,,,,,,,,,,,,,,,,,,,,,,,,,,,,,,,,,,,,,,,,,,,,,,,,,,,,,,,,,,,,,,,,,,,,,,,,,,,,,,,,,,,,,,,,,,,,,,,,,,,,,,,,,,,,,,
,,,,,,5cd30b2041a6b8001874c41f,62bbfb44edf162ffcb6a7dd8,2022-06-29_10h15.25.118,Colour_Asymmetry_Pilot,2022.1.3,Win32,59.95922773,62bbe60bf3d75ef465d3e404,0,138,138,96,1,onetwo,,,,,,,,,,,,,,,,,,,,,,,,,,,,,,,,,,,,,,,,,,,,,,,,,,,,,,,,,,,,,,,,,,,,,,,,,,,,,,,,,,,,,,,,,,,,,,,,,,,,,,,,,,,,,,,,,,,,,,,,,,,,,,,,,,,,,,,,,,,,,,,,,,,,,,,,
,,,,,,5cd30b2041a6b8001874c41f,62bbfb44edf162ffcb6a7dd8,2022-06-29_10h15.25.118,Colour_Asymmetry_Pilot,2022.1.3,Win32,59.95922773,62bbe60bf3d75ef465d3e404,0,139,139,48,1,onetwo,,,,,,,,,,,,,,,,,,,,,,,,,,,,,,,,,,,,,,,,,,,,,,,,,,,,,,,,,,,,,,,,,,,,,,,,,,,,,,,,,,,,,,,,,,,,,,,,,,,,,,,,,,,,,,,,,,,,,,,,,,,,,,,,,,,,,,,,,,,,,,,,,,,,,,,,
,,,,,,5cd30b2041a6b8001874c41f,62bbfb44edf162ffcb6a7dd8,2022-06-29_10h15.25.118,Colour_Asymmetry_Pilot,2022.1.3,Win32,59.95922773,62bbe60bf3d75ef465d3e404,0,140,140,84,1,threeone,,,,,,,,,,,,,,,,,,,,,,,,,,,,,,,,,,,,,,,,,,,,,,,,,,,,,,,,,,,,,,,,,,,,,,,,,,,,,,,,,,,,,,,,,,,,,,,,,,,,,,,,,,,,,,,,,,,,,,,,,,,,,,,,,,,,,,,,,,,,,,,,,,,,,,,,
,,,,,,5cd30b2041a6b8001874c41f,62bbfb44edf162ffcb6a7dd8,2022-06-29_10h15.25.118,Colour_Asymmetry_Pilot,2022.1.3,Win32,59.95922773,62bbe60bf3d75ef465d3e404,0,141,141,141,1,threefour,,,,,,,,,,,,,,,,,,,,,,,,,,,,,,,,,,,,,,,,,,,,,,,,,,,,,,,,,,,,,,,,,,,,,,,,,,,,,,,,,,,,,,,,,,,,,,,,,,,,,,,,,,,,,,,,,,,,,,,,,,,,,,,,,,,,,,,,,,,,,,,,,,,,,,,,
,,,,,,5cd30b2041a6b8001874c41f,62bbfb44edf162ffcb6a7dd8,2022-06-29_10h15.25.118,Colour_Asymmetry_Pilot,2022.1.3,Win32,59.95922773,62bbe60bf3d75ef465d3e404,0,142,142,105,1,onethree,,,,,,,,,,,,,,,,,,,,,,,,,,,,,,,,,,,,,,,,,,,,,,,,,,,,,,,,,,,,,,,,,,,,,,,,,,,,,,,,,,,,,,,,,,,,,,,,,,,,,,,,,,,,,,,,,,,,,,,,,,,,,,,,,,,,,,,,,,,,,,,,,,,,,,,,
,,,,,,5cd30b2041a6b8001874c41f,62bbfb44edf162ffcb6a7dd8,2022-06-29_10h15.25.118,Colour_Asymmetry_Pilot,2022.1.3,Win32,59.95922773,62bbe60bf3d75ef465d3e404,0,143,143,33,1,onethree,,,,,,,,,,,,,,,,,,,,,,,,,,,,,,,,,,,,,,,,,,,,,,,,,,,,,,,,,,,,,,,,,,,,,,,,,,,,,,,,,,,,,,,,,,,,,,,,,,,,,,,,,,,,,,,,,,,,,,,,,,,,,,,,,,,,,,,,,,,,,,,,,,,,,,,,
,,,,,,5cd30b2041a6b8001874c41f,62bbfb44edf162ffcb6a7dd8,2022-06-29_10h15.25.118,Colour_Asymmetry_Pilot,2022.1.3,Win32,59.95922773,62bbe60bf3d75ef465d3e404,0,144,144,144,1,onetwo,,,,,,,,,,,,,,,,,,,,,,,,,,,,,,,,,,,,,,,,,,,,,,,,,,,,,,,,,,,,,,,,,,,,,,,,,,,,,,,,,,,,,,,,,,,,,,,,,,,,,,,,,,,,,,,,,,,,,,,,,,,,,,,,,,,,,,,,,,,,,,,,,,,,,,,,
,,,,,,5cd30b2041a6b8001874c41f,62bbfb44edf162ffcb6a7dd8,2022-06-29_10h15.25.118,Colour_Asymmetry_Pilot,2022.1.3,Win32,59.95922773,62bbe60bf3d75ef465d3e404,0,145,145,4,1,threeone,,,,,,,,,,,,,,,,,,,,,,,,,,,,,,,,,,,,,,,,,,,,,,,,,,,,,,,,,,,,,,,,,,,,,,,,,,,,,,,,,,,,,,,,,,,,,,,,,,,,,,,,,,,,,,,,,,,,,,,,,,,,,,,,,,,,,,,,,,,,,,,,,,,,,,,,
,,,,,,5cd30b2041a6b8001874c41f,62bbfb44edf162ffcb6a7dd8,2022-06-29_10h15.25.118,Colour_Asymmetry_Pilot,2022.1.3,Win32,59.95922773,62bbe60bf3d75ef465d3e404,0,146,146,20,1,threeone,,,,,,,,,,,,,,,,,,,,,,,,,,,,,,,,,,,,,,,,,,,,,,,,,,,,,,,,,,,,,,,,,,,,,,,,,,,,,,,,,,,,,,,,,,,,,,,,,,,,,,,,,,,,,,,,,,,,,,,,,,,,,,,,,,,,,,,,,,,,,,,,,,,,,,,,
,,,,,,5cd30b2041a6b8001874c41f,62bbfb44edf162ffcb6a7dd8,2022-06-29_10h15.25.118,Colour_Asymmetry_Pilot,2022.1.3,Win32,59.95922773,62bbe60bf3d75ef465d3e404,0,147,147,70,1,fourtwo,,,,,,,,,,,,,,,,,,,,,,,,,,,,,,,,,,,,,,,,,,,,,,,,,,,,,,,,,,,,,,,,,,,,,,,,,,,,,,,,,,,,,,,,,,,,,,,,,,,,,,,,,,,,,,,,,,,,,,,,,,,,,,,,,,,,,,,,,,,,,,,,,,,,,,,,
,,,,,,5cd30b2041a6b8001874c41f,62bbfb44edf162ffcb6a7dd8,2022-06-29_10h15.25.118,Colour_Asymmetry_Pilot,2022.1.3,Win32,59.95922773,62bbe60bf3d75ef465d3e404,0,148,148,43,1,twofour,,,,,,,,,,,,,,,,,,,,,,,,,,,,,,,,,,,,,,,,,,,,,,,,,,,,,,,,,,,,,,,,,,,,,,,,,,,,,,,,,,,,,,,,,,,,,,,,,,,,,,,,,,,,,,,,,,,,,,,,,,,,,,,,,,,,,,,,,,,,,,,,,,,,,,,,
,,,,,,5cd30b2041a6b8001874c41f,62bbfb44edf162ffcb6a7dd8,2022-06-29_10h15.25.118,Colour_Asymmetry_Pilot,2022.1.3,Win32,59.95922773,62bbe60bf3d75ef465d3e404,0,149,149,161,1,onethree,,,,,,,,,,,,,,,,,,,,,,,,,,,,,,,,,,,,,,,,,,,,,,,,,,,,,,,,,,,,,,,,,,,,,,,,,,,,,,,,,,,,,,,,,,,,,,,,,,,,,,,,,,,,,,,,,,,,,,,,,,,,,,,,,,,,,,,,,,,,,,,,,,,,,,,,
,,,,,,5cd30b2041a6b8001874c41f,62bbfb44edf162ffcb6a7dd8,2022-06-29_10h15.25.118,Colour_Asymmetry_Pilot,2022.1.3,Win32,59.95922773,62bbe60bf3d75ef465d3e404,0,150,150,157,1,threefour,,,,,,,,,,,,,,,,,,,,,,,,,,,,,,,,,,,,,,,,,,,,,,,,,,,,,,,,,,,,,,,,,,,,,,,,,,,,,,,,,,,,,,,,,,,,,,,,,,,,,,,,,,,,,,,,,,,,,,,,,,,,,,,,,,,,,,,,,,,,,,,,,,,,,,,,
,,,,,,5cd30b2041a6b8001874c41f,62bbfb44edf162ffcb6a7dd8,2022-06-29_10h15.25.118,Colour_Asymmetry_Pilot,2022.1.3,Win32,59.95922773,62bbe60bf3d75ef465d3e404,0,151,151,94,1,fourtwo,,,,,,,,,,,,,,,,,,,,,,,,,,,,,,,,,,,,,,,,,,,,,,,,,,,,,,,,,,,,,,,,,,,,,,,,,,,,,,,,,,,,,,,,,,,,,,,,,,,,,,,,,,,,,,,,,,,,,,,,,,,,,,,,,,,,,,,,,,,,,,,,,,,,,,,,
,,,,,,5cd30b2041a6b8001874c41f,62bbfb44edf162ffcb6a7dd8,2022-06-29_10h15.25.118,Colour_Asymmetry_Pilot,2022.1.3,Win32,59.95922773,62bbe60bf3d75ef465d3e404,0,152,152,132,1,threeone,,,,,,,,,,,,,,,,,,,,,,,,,,,,,,,,,,,,,,,,,,,,,,,,,,,,,,,,,,,,,,,,,,,,,,,,,,,,,,,,,,,,,,,,,,,,,,,,,,,,,,,,,,,,,,,,,,,,,,,,,,,,,,,,,,,,,,,,,,,,,,,,,,,,,,,,
,,,,,,5cd30b2041a6b8001874c41f,62bbfb44edf162ffcb6a7dd8,2022-06-29_10h15.25.118,Colour_Asymmetry_Pilot,2022.1.3,Win32,59.95922773,62bbe60bf3d75ef465d3e404,0,153,153,98,1,twoone,,,,,,,,,,,,,,,,,,,,,,,,,,,,,,,,,,,,,,,,,,,,,,,,,,,,,,,,,,,,,,,,,,,,,,,,,,,,,,,,,,,,,,,,,,,,,,,,,,,,,,,,,,,,,,,,,,,,,,,,,,,,,,,,,,,,,,,,,,,,,,,,,,,,,,,,
,,,,,,5cd30b2041a6b8001874c41f,62bbfb44edf162ffcb6a7dd8,2022-06-29_10h15.25.118,Colour_Asymmetry_Pilot,2022.1.3,Win32,59.95922773,62bbe60bf3d75ef465d3e404,0,154,154,16,1,onetwo,,,,,,,,,,,,,,,,,,,,,,,,,,,,,,,,,,,,,,,,,,,,,,,,,,,,,,,,,,,,,,,,,,,,,,,,,,,,,,,,,,,,,,,,,,,,,,,,,,,,,,,,,,,,,,,,,,,,,,,,,,,,,,,,,,,,,,,,,,,,,,,,,,,,,,,,
,,,,,,5cd30b2041a6b8001874c41f,62bbfb44edf162ffcb6a7dd8,2022-06-29_10h15.25.118,Colour_Asymmetry_Pilot,2022.1.3,Win32,59.95922773,62bbe60bf3d75ef465d3e404,0,155,155,75,1,twofour,,,,,,,,,,,,,,,,,,,,,,,,,,,,,,,,,,,,,,,,,,,,,,,,,,,,,,,,,,,,,,,,,,,,,,,,,,,,,,,,,,,,,,,,,,,,,,,,,,,,,,,,,,,,,,,,,,,,,,,,,,,,,,,,,,,,,,,,,,,,,,,,,,,,,,,,
,,,,,,5cd30b2041a6b8001874c41f,62bbfb44edf162ffcb6a7dd8,2022-06-29_10h15.25.118,Colour_Asymmetry_Pilot,2022.1.3,Win32,59.95922773,62bbe60bf3d75ef465d3e404,0,156,156,67,1,twofour,,,,,,,,,,,,,,,,,,,,,,,,,,,,,,,,,,,,,,,,,,,,,,,,,,,,,,,,,,,,,,,,,,,,,,,,,,,,,,,,,,,,,,,,,,,,,,,,,,,,,,,,,,,,,,,,,,,,,,,,,,,,,,,,,,,,,,,,,,,,,,,,,,,,,,,,
,,,,,,5cd30b2041a6b8001874c41f,62bbfb44edf162ffcb6a7dd8,2022-06-29_10h15.25.118,Colour_Asymmetry_Pilot,2022.1.3,Win32,59.95922773,62bbe60bf3d75ef465d3e404,0,157,157,159,1,fourthree,,,,,,,,,,,,,,,,,,,,,,,,,,,,,,,,,,,,,,,,,,,,,,,,,,,,,,,,,,,,,,,,,,,,,,,,,,,,,,,,,,,,,,,,,,,,,,,,,,,,,,,,,,,,,,,,,,,,,,,,,,,,,,,,,,,,,,,,,,,,,,,,,,,,,,,,
,,,,,,5cd30b2041a6b8001874c41f,62bbfb44edf162ffcb6a7dd8,2022-06-29_10h15.25.118,Colour_Asymmetry_Pilot,2022.1.3,Win32,59.95922773,62bbe60bf3d75ef465d3e404,0,158,158,133,1,threefour,,,,,,,,,,,,,,,,,,,,,,,,,,,,,,,,,,,,,,,,,,,,,,,,,,,,,,,,,,,,,,,,,,,,,,,,,,,,,,,,,,,,,,,,,,,,,,,,,,,,,,,,,,,,,,,,,,,,,,,,,,,,,,,,,,,,,,,,,,,,,,,,,,,,,,,,
,,,,,,5cd30b2041a6b8001874c41f,62bbfb44edf162ffcb6a7dd8,2022-06-29_10h15.25.118,Colour_Asymmetry_Pilot,2022.1.3,Win32,59.95922773,62bbe60bf3d75ef465d3e404,0,159,159,108,1,threeone,,,,,,,,,,,,,,,,,,,,,,,,,,,,,,,,,,,,,,,,,,,,,,,,,,,,,,,,,,,,,,,,,,,,,,,,,,,,,,,,,,,,,,,,,,,,,,,,,,,,,,,,,,,,,,,,,,,,,,,,,,,,,,,,,,,,,,,,,,,,,,,,,,,,,,,,
,,,,,,5cd30b2041a6b8001874c41f,62bbfb44edf162ffcb6a7dd8,2022-06-29_10h15.25.118,Colour_Asymmetry_Pilot,2022.1.3,Win32,59.95922773,62bbe60bf3d75ef465d3e404,0,160,160,14,1,fourtwo,,,,,,,,,,,,,,,,,,,,,,,,,,,,,,,,,,,,,,,,,,,,,,,,,,,,,,,,,,,,,,,,,,,,,,,,,,,,,,,,,,,,,,,,,,,,,,,,,,,,,,,,,,,,,,,,,,,,,,,,,,,,,,,,,,,,,,,,,,,,,,,,,,,,,,,,
,,,,,,5cd30b2041a6b8001874c41f,62bbfb44edf162ffcb6a7dd8,2022-06-29_10h15.25.118,Colour_Asymmetry_Pilot,2022.1.3,Win32,59.95922773,62bbe60bf3d75ef465d3e404,0,161,161,113,1,onethree,,,,,,,,,,,,,,,,,,,,,,,,,,,,,,,,,,,,,,,,,,,,,,,,,,,,,,,,,,,,,,,,,,,,,,,,,,,,,,,,,,,,,,,,,,,,,,,,,,,,,,,,,,,,,,,,,,,,,,,,,,,,,,,,,,,,,,,,,,,,,,,,,,,,,,,,
,,,,,,5cd30b2041a6b8001874c41f,62bbfb44edf162ffcb6a7dd8,2022-06-29_10h15.25.118,Colour_Asymmetry_Pilot,2022.1.3,Win32,59.95922773,62bbe60bf3d75ef465d3e404,,,,,,,space,2.9274,space,22.7969,space,33.424,space,10.0087,space,5.1154,space,4.3742,"[-0.0040000000000000036,0.02739999999999987,-0.08239999999999992]",twoone,"[-0.01980000000000004,-0.5138,-0.38039999999999996]",-2,8.5928,-97,-36,1,0,0,response5disk_5,-11,3,1,0,0,rectangle_8,101,34,1,0,0,response1disk_7,6,3,6,3,1,0,0,rectangle_4,0,0,0,0,1,,,,,,,,,,,,,,,,,,,,,,,,,,,,,,,,,,,,,,,,,,,,,,,,,,,,,,,,,,,,,,,,,,,,,,,,,,,,,,,,,,,,,,,,,,,,,,,,,,,,,,,,
,,,,,,5cd30b2041a6b8001874c41f,62bbfb44edf162ffcb6a7dd8,2022-06-29_10h15.25.118,Colour_Asymmetry_Pilot,2022.1.3,Win32,59.95922773,62bbe60bf3d75ef465d3e404,,,,,,,,,,,,,,,,,,,"[0.9763999999999999,0.8588,-0.05900000000000005]",threefour,"[0.7176,-0.906,-0.6864]",1,3.2466,63,-96,1,0,0,response3disk_5,-4,6,1,0,0,rectangle_8,76,17,1,0,0,response1disk_7,6,3,15,0,1,0,0,rectangle_4,1,0,1,0,1,,,,,,,,,,,,,,,,,,,,,,,,,,,,,,,,,,,,,,,,,,,,,,,,,,,,,,,,,,,,,,,,,,,,,,,,,,,,,,,,,,,,,,,,,,,,,,,,,,,,,,,,
,,,,,,5cd30b2041a6b8001874c41f,62bbfb44edf162ffcb6a7dd8,2022-06-29_10h15.25.118,Colour_Asymmetry_Pilot,2022.1.3,Win32,59.95922773,62bbe60bf3d75ef465d3e404,,,,,,,,,,,,,,,,,,,"[-0.0040000000000000036,0.02739999999999987,-0.08239999999999992]",twofour,"[0.04299999999999993,0.16060000000000008,-0.6628000000000001]",-2,2.539,-50,-34,1,0,0,response5disk_5,-3,3,1,0,0,rectangle_8,-3,3,1,0,0,,,3,-3,3,1,0,0,,2,0,2,0,1,,,,,,,,,,,,,,,,,,,,,,,,,,,,,,,,,,,,,,,,,,,,,,,,,,,,,,,,,,,,,,,,,,,,,,,,,,,,,,,,,,,,,,,,,,,,,,,,,,,,,,,,
,,,,,,5cd30b2041a6b8001874c41f,62bbfb44edf162ffcb6a7dd8,2022-06-29_10h15.25.118,Colour_Asymmetry_Pilot,2022.1.3,Win32,59.95922773,62bbe60bf3d75ef465d3e404,,,,,,,,,,,,,,,,,,,"[0.18419999999999992,-0.4276,-0.404]",twoone,"[0.796,0.2156,-0.27859999999999996]",-1,5.2786,-42,-66,1,0,0,response5disk_5,-8,-6,1,0,0,rectangle_8,-8,-6,1,0,0,,,3,-8,-6,1,0,0,,3,0,3,0,1,,,,,,,,,,,,,,,,,,,,,,,,,,,,,,,,,,,,,,,,,,,,,,,,,,,,,,,,,,,,,,,,,,,,,,,,,,,,,,,,,,,,,,,,,,,,,,,,,,,,,,,,
,,,,,,5cd30b2041a6b8001874c41f,62bbfb44edf162ffcb6a7dd8,2022-06-29_10h15.25.118,Colour_Asymmetry_Pilot,2022.1.3,Win32,59.95922773,62bbe60bf3d75ef465d3e404,,,,,,,,,,,,,,,,,,,"[1,0.12939999999999996,-1]",onethree,"[-0.0040000000000000036,0.02739999999999987,-0.08239999999999992]",-3,3.3919,-67,28,1,0,0,response7disk_5,-1,-4,1,0,0,rectangle_8,-1,-4,1,0,0,,,3,-1,-4,1,0,0,,4,0,4,0,1,,,,,,,,,,,,,,,,,,,,,,,,,,,,,,,,,,,,,,,,,,,,,,,,,,,,,,,,,,,,,,,,,,,,,,,,,,,,,,,,,,,,,,,,,,,,,,,,,,,,,,,,
,,,,,,5cd30b2041a6b8001874c41f,62bbfb44edf162ffcb6a7dd8,2022-06-29_10h15.25.118,Colour_Asymmetry_Pilot,2022.1.3,Win32,59.95922773,62bbe60bf3d75ef465d3e404,,,,,,,,,,,,,,,,,,,"[0.9372,0.20779999999999998,0.2704]",twofour,"[-0.7412000000000001,-0.08239999999999992,-0.6864]",-4,6.8313,-34,51,1,0,0,response7disk_5,-7,-12,1,0,0,rectangle_8,-7,-12,1,0,0,,,3,-7,-12,1,0,0,,5,0,5,0,1,,,,,,,,,,,,,,,,,,,,,,,,,,,,,,,,,,,,,,,,,,,,,,,,,,,,,,,,,,,,,,,,,,,,,,,,,,,,,,,,,,,,,,,,,,,,,,,,,,,,,,,,
,,,,,,5cd30b2041a6b8001874c41f,62bbfb44edf162ffcb6a7dd8,2022-06-29_10h15.25.118,Colour_Asymmetry_Pilot,2022.1.3,Win32,59.95922773,62bbe60bf3d75ef465d3e404,,,,,,,,,,,,,,,,,,,"[0.04299999999999993,0.16060000000000008,-0.6628000000000001]",fourtwo,"[-0.5452,-0.608,0.2470000000000001]",-4,4.8602,-46,68,1,0,0,response7disk_5,-9,6,1,0,0,rectangle_8,-9,6,1,0,0,,,3,-9,6,1,0,0,,6,0,6,0,1,,,,,,,,,,,,,,,,,,,,,,,,,,,,,,,,,,,,,,,,,,,,,,,,,,,,,,,,,,,,,,,,,,,,,,,,,,,,,,,,,,,,,,,,,,,,,,,,,,,,,,,,
,,,,,,5cd30b2041a6b8001874c41f,62bbfb44edf162ffcb6a7dd8,2022-06-29_10h15.25.118,Colour_Asymmetry_Pilot,2022.1.3,Win32,59.95922773,62bbe60bf3d75ef465d3e404,,,,,,,,,,,,,,,,,,,,threefour,,-2,5.5199,,,,,,,,,,,,,,,,,,,,,,,,,,,,,,,,space,4.9561,"[0.05879999999999996,0.2784,0.5841999999999998]","[0.9763999999999999,-0.1137999999999999,-0.6314]",-62,-39,1,0,0,response5disk,-13,0,1,0,0,rectangle,-13,0,1,0,0,,2,0.0043,0,-13,0,1,0,0,0,0,0,19,1,19,first,,,,,,,,,,,,,,,,,,,,,,,,,,,,,,,,,,,,,,,,,,,,,,,,,,,,,,,,,,,,,,,,,,,
,,,,,,5cd30b2041a6b8001874c41f,62bbfb44edf162ffcb6a7dd8,2022-06-29_10h15.25.118,Colour_Asymmetry_Pilot,2022.1.3,Win32,59.95922773,62bbe60bf3d75ef465d3e404,,,,,,,,,,,,,,,,,,,,fourtwo,,1,1.3746,,,,,,,,,,,,,,,,,,,,,,,,,,,,,,,,,,"[0.9686000000000001,0.5763999999999998,0.11359999999999992]","[0.7176,-0.906,-0.6864]",54,-66,1,0,0,response3disk,17,-2,1,0,0,rectangle,17,-2,1,0,0,,1,0.0054,0,17,-2,1,0,0,0,1,1,73,1,73,first,,,,,,,,,,,,,,,,,,,,,,,,,,,,,,,,,,,,,,,,,,,,,,,,,,,,,,,,,,,,,,,,,,,
,,,,,,5cd30b2041a6b8001874c41f,62bbfb44edf162ffcb6a7dd8,2022-06-29_10h15.25.118,Colour_Asymmetry_Pilot,2022.1.3,Win32,59.95922773,62bbe60bf3d75ef465d3e404,,,,,,,,,,,,,,,,,,,,threeone,,-3,3.2048,,,,,,,,,,,,,,,,,,,,,,,,,,,,,,,,,,"[-0.24719999999999998,-0.0354000000000001,0.3175999999999999]","[0.8115999999999999,-0.0040000000000000036,-0.09819999999999995]",-52,22,1,0,0,response7disk,-2,-3,1,0,0,rectangle,-2,-3,1,0,0,,2,0.0024,0,-2,-3,1,0,0,0,2,2,54,1,54,first,,,,,,,,,,,,,,,,,,,,,,,,,,,,,,,,,,,,,,,,,,,,,,,,,,,,,,,,,,,,,,,,,,,
,,,,,,5cd30b2041a6b8001874c41f,62bbfb44edf162ffcb6a7dd8,2022-06-29_10h15.25.118,Colour_Asymmetry_Pilot,2022.1.3,Win32,59.95922773,62bbe60bf3d75ef465d3e404,,,,,,,,,,,,,,,,,,,,fourtwo,,-3,1.8965,,,,,,,,,,,,,,,,,,,,,,,,,,,,,,,,,,"[0.7018,0.7802,-0.16079999999999994]","[-0.2942,-0.24719999999999998,-0.357]",-77,21,1,0,0,response7disk,-14,-2,1,0,0,rectangle,-14,-2,1,0,0,,3,0.0024,0,-14,-2,1,0,0,0,3,3,112,1,31,second,,,,,,,,,,,,,,,,,,,,,,,,,,,,,,,,,,,,,,,,,,,,,,,,,,,,,,,,,,,,,,,,,,,
,,,,,,5cd30b2041a6b8001874c41f,62bbfb44edf162ffcb6a7dd8,2022-06-29_10h15.25.118,Colour_Asymmetry_Pilot,2022.1.3,Win32,59.95922773,62bbe60bf3d75ef465d3e404,,,,,,,,,,,,,,,,,,,,twoone,,-4,4.235,,,,,,,,,,,,,,,,,,,,,,,,,,,,,,,,,,"[0.3802000000000001,0.19199999999999995,-0.6394]","[-0.5922000000000001,-0.7492000000000001,-0.5296000000000001]",-41,77,1,0,0,response7disk,-9,13,1,0,0,rectangle,-9,13,1,0,0,,3,0.0007,0,-9,13,1,0,0,0,4,4,81,1,0,second,,,,,,,,,,,,,,,,,,,,,,,,,,,,,,,,,,,,,,,,,,,,,,,,,,,,,,,,,,,,,,,,,,,
,,,,,,5cd30b2041a6b8001874c41f,62bbfb44edf162ffcb6a7dd8,2022-06-29_10h15.25.118,Colour_Asymmetry_Pilot,2022.1.3,Win32,59.95922773,62bbe60bf3d75ef465d3e404,,,,,,,,,,,,,,,,,,,,twoone,,-4,1.7702,,,,,,,,,,,,,,,,,,,,,,,,,,,,,,,,,,"[-0.9138,-0.5296000000000001,-0.5529999999999999]","[-0.0040000000000000036,0.02739999999999987,-0.08239999999999992]",-48,66,1,0,0,response7disk,-11,3,1,0,0,rectangle,-11,3,1,0,0,,2,0.0044,0,-11,3,1,0,0,0,5,5,122,1,41,second,,,,,,,,,,,,,,,,,,,,,,,,,,,,,,,,,,,,,,,,,,,,,,,,,,,,,,,,,,,,,,,,,,,
,,,,,,5cd30b2041a6b8001874c41f,62bbfb44edf162ffcb6a7dd8,2022-06-29_10h15.25.118,Colour_Asymmetry_Pilot,2022.1.3,Win32,59.95922773,62bbe60bf3d75ef465d3e404,,,,,,,,,,,,,,,,,,,,fourthree,,-3,1.0542,,,,,,,,,,,,,,,,,,,,,,,,,,,,,,,,,,"[-0.2942,-0.24719999999999998,-0.357]","[0.7018,0.7802,-0.16079999999999994]",-60,45,1,0,0,response7disk,-4,14,1,0,0,rectangle,-4,14,1,0,0,,1,0.0023,0,-4,14,1,0,0,0,6,6,62,1,62,first,,,,,,,,,,,,,,,,,,,,,,,,,,,,,,,,,,,,,,,,,,,,,,,,,,,,,,,,,,,,,,,,,,,
,,,,,,5cd30b2041a6b8001874c41f,62bbfb44edf162ffcb6a7dd8,2022-06-29_10h15.25.118,Colour_Asymmetry_Pilot,2022.1.3,Win32,59.95922773,62bbe60bf3d75ef465d3e404,,,,,,,,,,,,,,,,,,,,onetwo,,4,1.5379,,,,,,,,,,,,,,,,,,,,,,,,,,,,,,,,,,"[-0.9766,-0.34920000000000007,0.2156]","[-0.9216,-0.5529999999999999,-0.3962]",45,68,1,0,0,response1disk,14,5,1,0,0,rectangle,14,5,1,0,0,,2,0.0028,0,14,5,1,0,0,0,7,7,26,1,26,first,,,,,,,,,,,,,,,,,,,,,,,,,,,,,,,,,,,,,,,,,,,,,,,,,,,,,,,,,,,,,,,,,,,
,,,,,,5cd30b2041a6b8001874c41f,62bbfb44edf162ffcb6a7dd8,2022-06-29_10h15.25.118,Colour_Asymmetry_Pilot,2022.1.3,Win32,59.95922773,62bbe60bf3d75ef465d3e404,,,,,,,,,,,,,,,,,,,,twofour,,-3,1.3339,,,,,,,,,,,,,,,,,,,,,,,,,,,,,,,,,,"[0.9763999999999999,-0.1137999999999999,-0.6314]","[-0.9766,-0.6472,0.07440000000000002]",-49,32,1,0,0,response7disk,3,-1,1,0,0,rectangle,3,-1,1,0,0,,2,0.0007,0,3,-1,1,0,0,0,8,8,158,1,77,second,,,,,,,,,,,,,,,,,,,,,,,,,,,,,,,,,,,,,,,,,,,,,,,,,,,,,,,,,,,,,,,,,,,
,,,,,,5cd30b2041a6b8001874c41f,62bbfb44edf162ffcb6a7dd8,2022-06-29_10h15.25.118,Colour_Asymmetry_Pilot,2022.1.3,Win32,59.95922773,62bbe60bf3d75ef465d3e404,,,,,,,,,,,,,,,,,,,,threefour,,-3,1.5971,,,,,,,,,,,,,,,,,,,,,,,,,,,,,,,,,,"[0.7802,-0.23140000000000005,-0.20799999999999996]","[-0.17659999999999998,0.3253999999999999,0.19999999999999996]",-74,33,1,0,0,response7disk,-15,4,1,0,0,rectangle,-15,4,1,0,0,,3,0.0031,0,-15,4,1,0,0,0,9,9,43,1,43,first,,,,,,,,,,,,,,,,,,,,,,,,,,,,,,,,,,,,,,,,,,,,,,,,,,,,,,,,,,,,,,,,,,,
,,,,,,5cd30b2041a6b8001874c41f,62bbfb44edf162ffcb6a7dd8,2022-06-29_10h15.25.118,Colour_Asymmetry_Pilot,2022.1.3,Win32,59.95922773,62bbe60bf3d75ef465d3e404,,,,,,,,,,,,,,,,,,,,onetwo,,2,1.4491,,,,,,,,,,,,,,,,,,,,,,,,,,,,,,,,,,"[0.2862,0.7802,0.3568]","[-0.9688,-0.4902000000000001,-0.12159999999999993]",55,-29,1,0,0,response3disk,1,-2,1,0,0,rectangle,1,-2,1,0,0,,3,0.0005,0,1,-2,1,0,0,0,10,10,106,1,25,second,,,,,,,,,,,,,,,,,,,,,,,,,,,,,,,,,,,,,,,,,,,,,,,,,,,,,,,,,,,,,,,,,,,
,,,,,,5cd30b2041a6b8001874c41f,62bbfb44edf162ffcb6a7dd8,2022-06-29_10h15.25.118,Colour_Asymmetry_Pilot,2022.1.3,Win32,59.95922773,62bbe60bf3d75ef465d3e404,,,,,,,,,,,,,,,,,,,,twofour,,-2,2.6701,,,,,,,,,,,,,,,,,,,,,,,,,,,,,,,,,,"[0.9763999999999999,-0.1137999999999999,-0.6314]","[0.7646000000000002,0.07440000000000002,0.2704]",-85,-53,1,0,0,response5disk,-10,2,1,0,0,rectangle,79,-44,1,0,0,2,2,3.5852,1,8,-13,1,0,0,0,11,11,11,1,11,first,response3disk_3,rectangle,,,,,,,,,,,,,,,,,,,,,,,,,,,,,,,,,,,,,,,,,,,,,,,,,,,,,,,,,,,,,,,,,
,,,,,,5cd30b2041a6b8001874c41f,62bbfb44edf162ffcb6a7dd8,2022-06-29_10h15.25.118,Colour_Asymmetry_Pilot,2022.1.3,Win32,59.95922773,62bbe60bf3d75ef465d3e404,,,,,,,,,,,,,,,,,,,,threeone,,1,1.3207,,,,,,,,,,,,,,,,,,,,,,,,,,,,,,,,,,"[-0.6235999999999999,-0.6786,-0.08239999999999992]","[0.0351999999999999,0.41159999999999997,0.0038000000000000256]",36,-50,1,0,0,response3disk,-5,-6,1,0,0,rectangle,-5,-6,1,0,0,2,3,0.0049,0,-5,-6,1,0,0,0,12,12,69,1,69,first,,,,,,,,,,,,,,,,,,,,,,,,,,,,,,,,,,,,,,,,,,,,,,,,,,,,,,,,,,,,,,,,,,,
,,,,,,5cd30b2041a6b8001874c41f,62bbfb44edf162ffcb6a7dd8,2022-06-29_10h15.25.118,Colour_Asymmetry_Pilot,2022.1.3,Win32,59.95922773,62bbe60bf3d75ef465d3e404,,,,,,,,,,,,,,,,,,,,twoone,,-4,4.208,,,,,,,,,,,,,,,,,,,,,,,,,,,,,,,,,,"[-0.7412000000000001,-0.08239999999999992,-0.6864]","[0.30180000000000007,-0.7884,-0.9844]",-39,66,1,0,0,response7disk,-8,-1,1,0,0,rectangle,-8,-1,1,0,0,2,3,0.0008,0,-8,-1,1,0,0,0,13,13,127,1,46,second,,,,,,,,,,,,,,,,,,,,,,,,,,,,,,,,,,,,,,,,,,,,,,,,,,,,,,,,,,,,,,,,,,,
,,,,,,5cd30b2041a6b8001874c41f,62bbfb44edf162ffcb6a7dd8,2022-06-29_10h15.25.118,Colour_Asymmetry_Pilot,2022.1.3,Win32,59.95922773,62bbe60bf3d75ef465d3e404,,,,,,,,,,,,,,,,,,,,onethree,,-3,1.7554,,,,,,,,,,,,,,,,,,,,,,,,,,,,,,,,,,"[0.9686000000000001,0.3802000000000001,0.19999999999999996]","[0.34099999999999997,0.5841999999999998,-0.9844]",-75,34,1,0,0,response7disk,-9,3,1,0,0,rectangle,-9,3,1,0,0,2,1,0.0133,0,-9,3,1,0,0,0,14,14,4,1,4,first,,,,,,,,,,,,,,,,,,,,,,,,,,,,,,,,,,,,,,,,,,,,,,,,,,,,,,,,,,,,,,,,,,,
,,,,,,5cd30b2041a6b8001874c41f,62bbfb44edf162ffcb6a7dd8,2022-06-29_10h15.25.118,Colour_Asymmetry_Pilot,2022.1.3,Win32,59.95922773,62bbe60bf3d75ef465d3e404,,,,,,,,,,,,,,,,,,,,threeone,,-3,1.5929,,,,,,,,,,,,,,,,,,,,,,,,,,,,,,,,,,"[-0.5688,-0.08239999999999992,-0.1844]","[-0.9844,-0.9688,-0.9922]",-58,42,1,0,0,response7disk,-14,3,1,0,0,rectangle,-14,3,1,0,0,2,2,0.0025,0,-14,3,1,0,0,0,15,15,126,1,45,second,,,,,,,,,,,,,,,,,,,,,,,,,,,,,,,,,,,,,,,,,,,,,,,,,,,,,,,,,,,,,,,,,,,
,,,,,,5cd30b2041a6b8001874c41f,62bbfb44edf162ffcb6a7dd8,2022-06-29_10h15.25.118,Colour_Asymmetry_Pilot,2022.1.3,Win32,59.95922773,62bbe60bf3d75ef465d3e404,,,,,,,,,,,,,,,,,,,,twofour,,-3,1.4749,,,,,,,,,,,,,,,,,,,,,,,,,,,,,,,,,,"[0.11359999999999992,0.6312,0.5213999999999999]","[0.09799999999999986,-0.24719999999999998,0.15280000000000005]",-71,26,1,0,0,response7disk,-21,1,1,0,0,rectangle,-21,1,1,0,0,2,3,0.0026,0,-21,1,1,0,0,0,16,16,123,1,42,second,,,,,,,,,,,,,,,,,,,,,,,,,,,,,,,,,,,,,,,,,,,,,,,,,,,,,,,,,,,,,,,,,,,
,,,,,,5cd30b2041a6b8001874c41f,62bbfb44edf162ffcb6a7dd8,2022-06-29_10h15.25.118,Colour_Asymmetry_Pilot,2022.1.3,Win32,59.95922773,62bbe60bf3d75ef465d3e404,,,,,,,,,,,,,,,,,,,,threeone,,-2,1.0543,,,,,,,,,,,,,,,,,,,,,,,,,,,,,,,,,,"[0.2862,0.7802,0.3568]","[-0.17659999999999998,-0.2864,-0.8354]",-58,-49,1,0,0,response5disk,2,-6,1,0,0,rectangle,2,-6,1,0,0,2,1,0.0021,0,2,-6,1,0,0,0,17,17,84,1,3,second,,,,,,,,,,,,,,,,,,,,,,,,,,,,,,,,,,,,,,,,,,,,,,,,,,,,,,,,,,,,,,,,,,,
,,,,,,5cd30b2041a6b8001874c41f,62bbfb44edf162ffcb6a7dd8,2022-06-29_10h15.25.118,Colour_Asymmetry_Pilot,2022.1.3,Win32,59.95922773,62bbe60bf3d75ef465d3e404,,,,,,,,,,,,,,,,,,,,fourtwo,,-4,0.5714,,,,,,,,,,,,,,,,,,,,,,,,,,,,,,,,,,"[1,0.12939999999999996,-1]","[-0.4668,-0.8746,-0.2942]",-38,65,1,0,0,response7disk,-3,-9,1,0,0,rectangle,-3,-9,1,0,0,2,3,0.0033,0,-3,-9,1,0,0,0,18,18,58,1,58,first,,,,,,,,,,,,,,,,,,,,,,,,,,,,,,,,,,,,,,,,,,,,,,,,,,,,,,,,,,,,,,,,,,,
,,,,,,5cd30b2041a6b8001874c41f,62bbfb44edf162ffcb6a7dd8,2022-06-29_10h15.25.118,Colour_Asymmetry_Pilot,2022.1.3,Win32,59.95922773,62bbe60bf3d75ef465d3e404,,,,,,,,,,,,,,,,,,,,onethree,,-4,0.869,,,,,,,,,,,,,,,,,,,,,,,,,,,,,,,,,,"[0.9842,0.7409999999999999,-0.6628000000000001]","[0.23120000000000007,-0.7726,-0.34120000000000006]",-40,50,1,0,0,response7disk,-5,6,1,0,0,rectangle,-5,6,1,0,0,2,1,0.0022,0,-5,6,1,0,0,0,19,19,61,1,61,first,,,,,,,,,,,,,,,,,,,,,,,,,,,,,,,,,,,,,,,,,,,,,,,,,,,,,,,,,,,,,,,,,,,
,,,,,,5cd30b2041a6b8001874c41f,62bbfb44edf162ffcb6a7dd8,2022-06-29_10h15.25.118,Colour_Asymmetry_Pilot,2022.1.3,Win32,59.95922773,62bbe60bf3d75ef465d3e404,,,,,,,,,,,,,,,,,,,,fourthree,,-4,0.5574,,,,,,,,,,,,,,,,,,,,,,,,,,,,,,,,,,"[0.34099999999999997,0.5841999999999998,-0.9844]","[-0.4746,-0.0354000000000001,0.5449999999999999]",-32,60,1,0,0,response7disk,-12,11,1,0,0,rectangle,69,32,1,0,0,3,3,2.0708,1,13,-10,1,0,0,0,20,20,160,1,79,second,response1disk_3,rectangle,,,,,,,,,,,,,,,,,,,,,,,,,,,,,,,,,,,,,,,,,,,,,,,,,,,,,,,,,,,,,,,,,
