trials.thisRepN,trials.thisTrialN,trials.thisN,trials.thisIndex,trials.ran,Colourcodes,participant,session,date,expName,psychopyVersion,OS,frameRate,study_id,trials_4.thisRepN,trials_4.thisTrialN,trials_4.thisN,trials_4.thisIndex,trials_4.ran,StimulusPos,key_resp.keys,key_resp.rt,key_resp_2.keys,key_resp_2.rt,key_resp_15.keys,key_resp_15.rt,key_resp_17.keys,key_resp_17.rt,key_resp_9.keys,key_resp_9.rt,key_resp_10.keys,key_resp_10.rt,Circle1_col,Ecc,Circle2_col,similarity,response_time,mouse_5.x,mouse_5.y,mouse_5.leftButton,mouse_5.midButton,mouse_5.rightButton,mouse_5.clicked_name,mouse_10.x,mouse_10.y,mouse_10.leftButton,mouse_10.midButton,mouse_10.rightButton,mouse_10.clicked_name,mouse_7.x,mouse_7.y,mouse_7.leftButton,mouse_7.midButton,mouse_7.rightButton,catchnumberprac,mouse_6.x,mouse_6.y,mouse_6.leftButton,mouse_6.midButton,mouse_6.rightButton,duringprac.thisRepN,duringprac.thisTrialN,duringprac.thisN,duringprac.thisIndex,duringprac.ran,mouse_7.clicked_name,catchprac,mouse_6.clicked_name,key_resp_22.keys,key_resp_22.rt,Circle1_colour,Circle2_colour,mouse.x,mouse.y,mouse.leftButton,mouse.midButton,mouse.rightButton,mouse.clicked_name,mouse_2.x,mouse_2.y,mouse_2.leftButton,mouse_2.midButton,mouse_2.rightButton,mouse_2.clicked_name,mouse_3.x,mouse_3.y,mouse_3.leftButton,mouse_3.midButton,mouse_3.rightButton,catchresponse,catchnumber,response_time_catch,Catch,mouse_11.x,mouse_11.y,mouse_11.leftButton,mouse_11.midButton,mouse_11.rightButton,trials_2.thisRepN,trials_2.thisTrialN,trials_2.thisN,trials_2.thisIndex,trials_2.ran,Colourpair,Temporder,mouse_3.clicked_name,mouse_11.clicked_name,trials_3.thisRepN,trials_3.thisTrialN,trials_3.thisN,trials_3.thisIndex,trials_3.ran,key_resp_instr_Ishi.keys,key_resp_instr_Ishi.rt,Ishi_trial_keyresp.keys,Ishi_trial_keyresp.rt,Ishi_textbox.text,Ishi_loop.thisRepN,Ishi_loop.thisTrialN,Ishi_loop.thisN,Ishi_loop.thisIndex,Ishi_loop.ran,imageaddress,textbox.text,mouse_4.x,mouse_4.y,mouse_4.leftButton,mouse_4.midButton,mouse_4.rightButton,mouse_4.clicked_name,textbox_2.text,mouse_8.x,mouse_8.y,mouse_8.leftButton,mouse_8.midButton,mouse_8.rightButton,mouse_8.clicked_name,textbox_3.text,mouse_9.x,mouse_9.y,mouse_9.leftButton,mouse_9.midButton,mouse_9.rightButton,mouse_9.clicked_name,textbox_4.text,mouse_12.x,mouse_12.y,mouse_12.leftButton,mouse_12.midButton,mouse_12.rightButton,mouse_12.clicked_name,textbox_5.text,mouse_13.x,mouse_13.y,mouse_13.leftButton,mouse_13.midButton,mouse_13.rightButton,mouse_13.clicked_name,textbox_6.text,mouse_14.x,mouse_14.y,mouse_14.leftButton,mouse_14.midButton,mouse_14.rightButton,mouse_14.clicked_name,textbox_7.text,mouse_15.x,mouse_15.y,mouse_15.leftButton,mouse_15.midButton,mouse_15.rightButton,mouse_15.clicked_name
0,0,0,68,1,,60e163c124453a6eff550552,62bbfb57ab427b48f9822fdb,2022-06-29_09h13.18.268,Colour_Asymmetry_Pilot,2022.1.3,Win32,60.21194605,62bbe60bf3d75ef465d3e404,,,,,,,,,,,,,,,,,,,,,,,,,,,,,,,,,,,,,,,,,,,,,,,,,,,,,,,,,,,,,,,,,,,,,,,,,,,,,,,,,,,,,,,,,,,,,,,,,,,,,,,,,,,,,,,,,,,,,,,,,,,,,,,,,,,,,,,,,,,,,,,,,,,,,,,,,,,,,,
0,1,1,25,1,,60e163c124453a6eff550552,62bbfb57ab427b48f9822fdb,2022-06-29_09h13.18.268,Colour_Asymmetry_Pilot,2022.1.3,Win32,60.21194605,62bbe60bf3d75ef465d3e404,,,,,,,,,,,,,,,,,,,,,,,,,,,,,,,,,,,,,,,,,,,,,,,,,,,,,,,,,,,,,,,,,,,,,,,,,,,,,,,,,,,,,,,,,,,,,,,,,,,,,,,,,,,,,,,,,,,,,,,,,,,,,,,,,,,,,,,,,,,,,,,,,,,,,,,,,,,,,,
0,2,2,31,1,,60e163c124453a6eff550552,62bbfb57ab427b48f9822fdb,2022-06-29_09h13.18.268,Colour_Asymmetry_Pilot,2022.1.3,Win32,60.21194605,62bbe60bf3d75ef465d3e404,,,,,,,,,,,,,,,,,,,,,,,,,,,,,,,,,,,,,,,,,,,,,,,,,,,,,,,,,,,,,,,,,,,,,,,,,,,,,,,,,,,,,,,,,,,,,,,,,,,,,,,,,,,,,,,,,,,,,,,,,,,,,,,,,,,,,,,,,,,,,,,,,,,,,,,,,,,,,,
0,3,3,30,1,,60e163c124453a6eff550552,62bbfb57ab427b48f9822fdb,2022-06-29_09h13.18.268,Colour_Asymmetry_Pilot,2022.1.3,Win32,60.21194605,62bbe60bf3d75ef465d3e404,,,,,,,,,,,,,,,,,,,,,,,,,,,,,,,,,,,,,,,,,,,,,,,,,,,,,,,,,,,,,,,,,,,,,,,,,,,,,,,,,,,,,,,,,,,,,,,,,,,,,,,,,,,,,,,,,,,,,,,,,,,,,,,,,,,,,,,,,,,,,,,,,,,,,,,,,,,,,,
0,4,4,91,1,,60e163c124453a6eff550552,62bbfb57ab427b48f9822fdb,2022-06-29_09h13.18.268,Colour_Asymmetry_Pilot,2022.1.3,Win32,60.21194605,62bbe60bf3d75ef465d3e404,,,,,,,,,,,,,,,,,,,,,,,,,,,,,,,,,,,,,,,,,,,,,,,,,,,,,,,,,,,,,,,,,,,,,,,,,,,,,,,,,,,,,,,,,,,,,,,,,,,,,,,,,,,,,,,,,,,,,,,,,,,,,,,,,,,,,,,,,,,,,,,,,,,,,,,,,,,,,,
0,5,5,32,1,,60e163c124453a6eff550552,62bbfb57ab427b48f9822fdb,2022-06-29_09h13.18.268,Colour_Asymmetry_Pilot,2022.1.3,Win32,60.21194605,62bbe60bf3d75ef465d3e404,,,,,,,,,,,,,,,,,,,,,,,,,,,,,,,,,,,,,,,,,,,,,,,,,,,,,,,,,,,,,,,,,,,,,,,,,,,,,,,,,,,,,,,,,,,,,,,,,,,,,,,,,,,,,,,,,,,,,,,,,,,,,,,,,,,,,,,,,,,,,,,,,,,,,,,,,,,,,,
0,6,6,47,1,,60e163c124453a6eff550552,62bbfb57ab427b48f9822fdb,2022-06-29_09h13.18.268,Colour_Asymmetry_Pilot,2022.1.3,Win32,60.21194605,62bbe60bf3d75ef465d3e404,,,,,,,,,,,,,,,,,,,,,,,,,,,,,,,,,,,,,,,,,,,,,,,,,,,,,,,,,,,,,,,,,,,,,,,,,,,,,,,,,,,,,,,,,,,,,,,,,,,,,,,,,,,,,,,,,,,,,,,,,,,,,,,,,,,,,,,,,,,,,,,,,,,,,,,,,,,,,,
0,7,7,41,1,,60e163c124453a6eff550552,62bbfb57ab427b48f9822fdb,2022-06-29_09h13.18.268,Colour_Asymmetry_Pilot,2022.1.3,Win32,60.21194605,62bbe60bf3d75ef465d3e404,,,,,,,,,,,,,,,,,,,,,,,,,,,,,,,,,,,,,,,,,,,,,,,,,,,,,,,,,,,,,,,,,,,,,,,,,,,,,,,,,,,,,,,,,,,,,,,,,,,,,,,,,,,,,,,,,,,,,,,,,,,,,,,,,,,,,,,,,,,,,,,,,,,,,,,,,,,,,,
0,8,8,16,1,,60e163c124453a6eff550552,62bbfb57ab427b48f9822fdb,2022-06-29_09h13.18.268,Colour_Asymmetry_Pilot,2022.1.3,Win32,60.21194605,62bbe60bf3d75ef465d3e404,,,,,,,,,,,,,,,,,,,,,,,,,,,,,,,,,,,,,,,,,,,,,,,,,,,,,,,,,,,,,,,,,,,,,,,,,,,,,,,,,,,,,,,,,,,,,,,,,,,,,,,,,,,,,,,,,,,,,,,,,,,,,,,,,,,,,,,,,,,,,,,,,,,,,,,,,,,,,,
0,9,9,36,1,,60e163c124453a6eff550552,62bbfb57ab427b48f9822fdb,2022-06-29_09h13.18.268,Colour_Asymmetry_Pilot,2022.1.3,Win32,60.21194605,62bbe60bf3d75ef465d3e404,,,,,,,,,,,,,,,,,,,,,,,,,,,,,,,,,,,,,,,,,,,,,,,,,,,,,,,,,,,,,,,,,,,,,,,,,,,,,,,,,,,,,,,,,,,,,,,,,,,,,,,,,,,,,,,,,,,,,,,,,,,,,,,,,,,,,,,,,,,,,,,,,,,,,,,,,,,,,,
0,10,10,23,1,,60e163c124453a6eff550552,62bbfb57ab427b48f9822fdb,2022-06-29_09h13.18.268,Colour_Asymmetry_Pilot,2022.1.3,Win32,60.21194605,62bbe60bf3d75ef465d3e404,,,,,,,,,,,,,,,,,,,,,,,,,,,,,,,,,,,,,,,,,,,,,,,,,,,,,,,,,,,,,,,,,,,,,,,,,,,,,,,,,,,,,,,,,,,,,,,,,,,,,,,,,,,,,,,,,,,,,,,,,,,,,,,,,,,,,,,,,,,,,,,,,,,,,,,,,,,,,,
0,11,11,38,1,,60e163c124453a6eff550552,62bbfb57ab427b48f9822fdb,2022-06-29_09h13.18.268,Colour_Asymmetry_Pilot,2022.1.3,Win32,60.21194605,62bbe60bf3d75ef465d3e404,,,,,,,,,,,,,,,,,,,,,,,,,,,,,,,,,,,,,,,,,,,,,,,,,,,,,,,,,,,,,,,,,,,,,,,,,,,,,,,,,,,,,,,,,,,,,,,,,,,,,,,,,,,,,,,,,,,,,,,,,,,,,,,,,,,,,,,,,,,,,,,,,,,,,,,,,,,,,,
0,12,12,55,1,,60e163c124453a6eff550552,62bbfb57ab427b48f9822fdb,2022-06-29_09h13.18.268,Colour_Asymmetry_Pilot,2022.1.3,Win32,60.21194605,62bbe60bf3d75ef465d3e404,,,,,,,,,,,,,,,,,,,,,,,,,,,,,,,,,,,,,,,,,,,,,,,,,,,,,,,,,,,,,,,,,,,,,,,,,,,,,,,,,,,,,,,,,,,,,,,,,,,,,,,,,,,,,,,,,,,,,,,,,,,,,,,,,,,,,,,,,,,,,,,,,,,,,,,,,,,,,,
0,13,13,58,1,,60e163c124453a6eff550552,62bbfb57ab427b48f9822fdb,2022-06-29_09h13.18.268,Colour_Asymmetry_Pilot,2022.1.3,Win32,60.21194605,62bbe60bf3d75ef465d3e404,,,,,,,,,,,,,,,,,,,,,,,,,,,,,,,,,,,,,,,,,,,,,,,,,,,,,,,,,,,,,,,,,,,,,,,,,,,,,,,,,,,,,,,,,,,,,,,,,,,,,,,,,,,,,,,,,,,,,,,,,,,,,,,,,,,,,,,,,,,,,,,,,,,,,,,,,,,,,,
0,14,14,26,1,,60e163c124453a6eff550552,62bbfb57ab427b48f9822fdb,2022-06-29_09h13.18.268,Colour_Asymmetry_Pilot,2022.1.3,Win32,60.21194605,62bbe60bf3d75ef465d3e404,,,,,,,,,,,,,,,,,,,,,,,,,,,,,,,,,,,,,,,,,,,,,,,,,,,,,,,,,,,,,,,,,,,,,,,,,,,,,,,,,,,,,,,,,,,,,,,,,,,,,,,,,,,,,,,,,,,,,,,,,,,,,,,,,,,,,,,,,,,,,,,,,,,,,,,,,,,,,,
0,15,15,7,1,,60e163c124453a6eff550552,62bbfb57ab427b48f9822fdb,2022-06-29_09h13.18.268,Colour_Asymmetry_Pilot,2022.1.3,Win32,60.21194605,62bbe60bf3d75ef465d3e404,,,,,,,,,,,,,,,,,,,,,,,,,,,,,,,,,,,,,,,,,,,,,,,,,,,,,,,,,,,,,,,,,,,,,,,,,,,,,,,,,,,,,,,,,,,,,,,,,,,,,,,,,,,,,,,,,,,,,,,,,,,,,,,,,,,,,,,,,,,,,,,,,,,,,,,,,,,,,,
0,16,16,74,1,,60e163c124453a6eff550552,62bbfb57ab427b48f9822fdb,2022-06-29_09h13.18.268,Colour_Asymmetry_Pilot,2022.1.3,Win32,60.21194605,62bbe60bf3d75ef465d3e404,,,,,,,,,,,,,,,,,,,,,,,,,,,,,,,,,,,,,,,,,,,,,,,,,,,,,,,,,,,,,,,,,,,,,,,,,,,,,,,,,,,,,,,,,,,,,,,,,,,,,,,,,,,,,,,,,,,,,,,,,,,,,,,,,,,,,,,,,,,,,,,,,,,,,,,,,,,,,,
0,17,17,40,1,,60e163c124453a6eff550552,62bbfb57ab427b48f9822fdb,2022-06-29_09h13.18.268,Colour_Asymmetry_Pilot,2022.1.3,Win32,60.21194605,62bbe60bf3d75ef465d3e404,,,,,,,,,,,,,,,,,,,,,,,,,,,,,,,,,,,,,,,,,,,,,,,,,,,,,,,,,,,,,,,,,,,,,,,,,,,,,,,,,,,,,,,,,,,,,,,,,,,,,,,,,,,,,,,,,,,,,,,,,,,,,,,,,,,,,,,,,,,,,,,,,,,,,,,,,,,,,,
0,18,18,35,1,,60e163c124453a6eff550552,62bbfb57ab427b48f9822fdb,2022-06-29_09h13.18.268,Colour_Asymmetry_Pilot,2022.1.3,Win32,60.21194605,62bbe60bf3d75ef465d3e404,,,,,,,,,,,,,,,,,,,,,,,,,,,,,,,,,,,,,,,,,,,,,,,,,,,,,,,,,,,,,,,,,,,,,,,,,,,,,,,,,,,,,,,,,,,,,,,,,,,,,,,,,,,,,,,,,,,,,,,,,,,,,,,,,,,,,,,,,,,,,,,,,,,,,,,,,,,,,,
0,19,19,4,1,,60e163c124453a6eff550552,62bbfb57ab427b48f9822fdb,2022-06-29_09h13.18.268,Colour_Asymmetry_Pilot,2022.1.3,Win32,60.21194605,62bbe60bf3d75ef465d3e404,,,,,,,,,,,,,,,,,,,,,,,,,,,,,,,,,,,,,,,,,,,,,,,,,,,,,,,,,,,,,,,,,,,,,,,,,,,,,,,,,,,,,,,,,,,,,,,,,,,,,,,,,,,,,,,,,,,,,,,,,,,,,,,,,,,,,,,,,,,,,,,,,,,,,,,,,,,,,,
0,20,20,39,1,,60e163c124453a6eff550552,62bbfb57ab427b48f9822fdb,2022-06-29_09h13.18.268,Colour_Asymmetry_Pilot,2022.1.3,Win32,60.21194605,62bbe60bf3d75ef465d3e404,,,,,,,,,,,,,,,,,,,,,,,,,,,,,,,,,,,,,,,,,,,,,,,,,,,,,,,,,,,,,,,,,,,,,,,,,,,,,,,,,,,,,,,,,,,,,,,,,,,,,,,,,,,,,,,,,,,,,,,,,,,,,,,,,,,,,,,,,,,,,,,,,,,,,,,,,,,,,,
0,21,21,87,1,,60e163c124453a6eff550552,62bbfb57ab427b48f9822fdb,2022-06-29_09h13.18.268,Colour_Asymmetry_Pilot,2022.1.3,Win32,60.21194605,62bbe60bf3d75ef465d3e404,,,,,,,,,,,,,,,,,,,,,,,,,,,,,,,,,,,,,,,,,,,,,,,,,,,,,,,,,,,,,,,,,,,,,,,,,,,,,,,,,,,,,,,,,,,,,,,,,,,,,,,,,,,,,,,,,,,,,,,,,,,,,,,,,,,,,,,,,,,,,,,,,,,,,,,,,,,,,,
0,22,22,6,1,,60e163c124453a6eff550552,62bbfb57ab427b48f9822fdb,2022-06-29_09h13.18.268,Colour_Asymmetry_Pilot,2022.1.3,Win32,60.21194605,62bbe60bf3d75ef465d3e404,,,,,,,,,,,,,,,,,,,,,,,,,,,,,,,,,,,,,,,,,,,,,,,,,,,,,,,,,,,,,,,,,,,,,,,,,,,,,,,,,,,,,,,,,,,,,,,,,,,,,,,,,,,,,,,,,,,,,,,,,,,,,,,,,,,,,,,,,,,,,,,,,,,,,,,,,,,,,,
0,23,23,27,1,,60e163c124453a6eff550552,62bbfb57ab427b48f9822fdb,2022-06-29_09h13.18.268,Colour_Asymmetry_Pilot,2022.1.3,Win32,60.21194605,62bbe60bf3d75ef465d3e404,,,,,,,,,,,,,,,,,,,,,,,,,,,,,,,,,,,,,,,,,,,,,,,,,,,,,,,,,,,,,,,,,,,,,,,,,,,,,,,,,,,,,,,,,,,,,,,,,,,,,,,,,,,,,,,,,,,,,,,,,,,,,,,,,,,,,,,,,,,,,,,,,,,,,,,,,,,,,,
0,24,24,52,1,,60e163c124453a6eff550552,62bbfb57ab427b48f9822fdb,2022-06-29_09h13.18.268,Colour_Asymmetry_Pilot,2022.1.3,Win32,60.21194605,62bbe60bf3d75ef465d3e404,,,,,,,,,,,,,,,,,,,,,,,,,,,,,,,,,,,,,,,,,,,,,,,,,,,,,,,,,,,,,,,,,,,,,,,,,,,,,,,,,,,,,,,,,,,,,,,,,,,,,,,,,,,,,,,,,,,,,,,,,,,,,,,,,,,,,,,,,,,,,,,,,,,,,,,,,,,,,,
0,25,25,76,1,,60e163c124453a6eff550552,62bbfb57ab427b48f9822fdb,2022-06-29_09h13.18.268,Colour_Asymmetry_Pilot,2022.1.3,Win32,60.21194605,62bbe60bf3d75ef465d3e404,,,,,,,,,,,,,,,,,,,,,,,,,,,,,,,,,,,,,,,,,,,,,,,,,,,,,,,,,,,,,,,,,,,,,,,,,,,,,,,,,,,,,,,,,,,,,,,,,,,,,,,,,,,,,,,,,,,,,,,,,,,,,,,,,,,,,,,,,,,,,,,,,,,,,,,,,,,,,,
0,26,26,45,1,,60e163c124453a6eff550552,62bbfb57ab427b48f9822fdb,2022-06-29_09h13.18.268,Colour_Asymmetry_Pilot,2022.1.3,Win32,60.21194605,62bbe60bf3d75ef465d3e404,,,,,,,,,,,,,,,,,,,,,,,,,,,,,,,,,,,,,,,,,,,,,,,,,,,,,,,,,,,,,,,,,,,,,,,,,,,,,,,,,,,,,,,,,,,,,,,,,,,,,,,,,,,,,,,,,,,,,,,,,,,,,,,,,,,,,,,,,,,,,,,,,,,,,,,,,,,,,,
0,27,27,29,1,,60e163c124453a6eff550552,62bbfb57ab427b48f9822fdb,2022-06-29_09h13.18.268,Colour_Asymmetry_Pilot,2022.1.3,Win32,60.21194605,62bbe60bf3d75ef465d3e404,,,,,,,,,,,,,,,,,,,,,,,,,,,,,,,,,,,,,,,,,,,,,,,,,,,,,,,,,,,,,,,,,,,,,,,,,,,,,,,,,,,,,,,,,,,,,,,,,,,,,,,,,,,,,,,,,,,,,,,,,,,,,,,,,,,,,,,,,,,,,,,,,,,,,,,,,,,,,,
0,28,28,34,1,,60e163c124453a6eff550552,62bbfb57ab427b48f9822fdb,2022-06-29_09h13.18.268,Colour_Asymmetry_Pilot,2022.1.3,Win32,60.21194605,62bbe60bf3d75ef465d3e404,,,,,,,,,,,,,,,,,,,,,,,,,,,,,,,,,,,,,,,,,,,,,,,,,,,,,,,,,,,,,,,,,,,,,,,,,,,,,,,,,,,,,,,,,,,,,,,,,,,,,,,,,,,,,,,,,,,,,,,,,,,,,,,,,,,,,,,,,,,,,,,,,,,,,,,,,,,,,,
0,29,29,60,1,,60e163c124453a6eff550552,62bbfb57ab427b48f9822fdb,2022-06-29_09h13.18.268,Colour_Asymmetry_Pilot,2022.1.3,Win32,60.21194605,62bbe60bf3d75ef465d3e404,,,,,,,,,,,,,,,,,,,,,,,,,,,,,,,,,,,,,,,,,,,,,,,,,,,,,,,,,,,,,,,,,,,,,,,,,,,,,,,,,,,,,,,,,,,,,,,,,,,,,,,,,,,,,,,,,,,,,,,,,,,,,,,,,,,,,,,,,,,,,,,,,,,,,,,,,,,,,,
0,30,30,75,1,,60e163c124453a6eff550552,62bbfb57ab427b48f9822fdb,2022-06-29_09h13.18.268,Colour_Asymmetry_Pilot,2022.1.3,Win32,60.21194605,62bbe60bf3d75ef465d3e404,,,,,,,,,,,,,,,,,,,,,,,,,,,,,,,,,,,,,,,,,,,,,,,,,,,,,,,,,,,,,,,,,,,,,,,,,,,,,,,,,,,,,,,,,,,,,,,,,,,,,,,,,,,,,,,,,,,,,,,,,,,,,,,,,,,,,,,,,,,,,,,,,,,,,,,,,,,,,,
0,31,31,77,1,,60e163c124453a6eff550552,62bbfb57ab427b48f9822fdb,2022-06-29_09h13.18.268,Colour_Asymmetry_Pilot,2022.1.3,Win32,60.21194605,62bbe60bf3d75ef465d3e404,,,,,,,,,,,,,,,,,,,,,,,,,,,,,,,,,,,,,,,,,,,,,,,,,,,,,,,,,,,,,,,,,,,,,,,,,,,,,,,,,,,,,,,,,,,,,,,,,,,,,,,,,,,,,,,,,,,,,,,,,,,,,,,,,,,,,,,,,,,,,,,,,,,,,,,,,,,,,,
0,32,32,65,1,,60e163c124453a6eff550552,62bbfb57ab427b48f9822fdb,2022-06-29_09h13.18.268,Colour_Asymmetry_Pilot,2022.1.3,Win32,60.21194605,62bbe60bf3d75ef465d3e404,,,,,,,,,,,,,,,,,,,,,,,,,,,,,,,,,,,,,,,,,,,,,,,,,,,,,,,,,,,,,,,,,,,,,,,,,,,,,,,,,,,,,,,,,,,,,,,,,,,,,,,,,,,,,,,,,,,,,,,,,,,,,,,,,,,,,,,,,,,,,,,,,,,,,,,,,,,,,,
0,33,33,59,1,,60e163c124453a6eff550552,62bbfb57ab427b48f9822fdb,2022-06-29_09h13.18.268,Colour_Asymmetry_Pilot,2022.1.3,Win32,60.21194605,62bbe60bf3d75ef465d3e404,,,,,,,,,,,,,,,,,,,,,,,,,,,,,,,,,,,,,,,,,,,,,,,,,,,,,,,,,,,,,,,,,,,,,,,,,,,,,,,,,,,,,,,,,,,,,,,,,,,,,,,,,,,,,,,,,,,,,,,,,,,,,,,,,,,,,,,,,,,,,,,,,,,,,,,,,,,,,,
0,34,34,78,1,,60e163c124453a6eff550552,62bbfb57ab427b48f9822fdb,2022-06-29_09h13.18.268,Colour_Asymmetry_Pilot,2022.1.3,Win32,60.21194605,62bbe60bf3d75ef465d3e404,,,,,,,,,,,,,,,,,,,,,,,,,,,,,,,,,,,,,,,,,,,,,,,,,,,,,,,,,,,,,,,,,,,,,,,,,,,,,,,,,,,,,,,,,,,,,,,,,,,,,,,,,,,,,,,,,,,,,,,,,,,,,,,,,,,,,,,,,,,,,,,,,,,,,,,,,,,,,,
0,35,35,92,1,,60e163c124453a6eff550552,62bbfb57ab427b48f9822fdb,2022-06-29_09h13.18.268,Colour_Asymmetry_Pilot,2022.1.3,Win32,60.21194605,62bbe60bf3d75ef465d3e404,,,,,,,,,,,,,,,,,,,,,,,,,,,,,,,,,,,,,,,,,,,,,,,,,,,,,,,,,,,,,,,,,,,,,,,,,,,,,,,,,,,,,,,,,,,,,,,,,,,,,,,,,,,,,,,,,,,,,,,,,,,,,,,,,,,,,,,,,,,,,,,,,,,,,,,,,,,,,,
0,36,36,1,1,,60e163c124453a6eff550552,62bbfb57ab427b48f9822fdb,2022-06-29_09h13.18.268,Colour_Asymmetry_Pilot,2022.1.3,Win32,60.21194605,62bbe60bf3d75ef465d3e404,,,,,,,,,,,,,,,,,,,,,,,,,,,,,,,,,,,,,,,,,,,,,,,,,,,,,,,,,,,,,,,,,,,,,,,,,,,,,,,,,,,,,,,,,,,,,,,,,,,,,,,,,,,,,,,,,,,,,,,,,,,,,,,,,,,,,,,,,,,,,,,,,,,,,,,,,,,,,,
0,37,37,46,1,,60e163c124453a6eff550552,62bbfb57ab427b48f9822fdb,2022-06-29_09h13.18.268,Colour_Asymmetry_Pilot,2022.1.3,Win32,60.21194605,62bbe60bf3d75ef465d3e404,,,,,,,,,,,,,,,,,,,,,,,,,,,,,,,,,,,,,,,,,,,,,,,,,,,,,,,,,,,,,,,,,,,,,,,,,,,,,,,,,,,,,,,,,,,,,,,,,,,,,,,,,,,,,,,,,,,,,,,,,,,,,,,,,,,,,,,,,,,,,,,,,,,,,,,,,,,,,,
0,38,38,20,1,,60e163c124453a6eff550552,62bbfb57ab427b48f9822fdb,2022-06-29_09h13.18.268,Colour_Asymmetry_Pilot,2022.1.3,Win32,60.21194605,62bbe60bf3d75ef465d3e404,,,,,,,,,,,,,,,,,,,,,,,,,,,,,,,,,,,,,,,,,,,,,,,,,,,,,,,,,,,,,,,,,,,,,,,,,,,,,,,,,,,,,,,,,,,,,,,,,,,,,,,,,,,,,,,,,,,,,,,,,,,,,,,,,,,,,,,,,,,,,,,,,,,,,,,,,,,,,,
0,39,39,24,1,,60e163c124453a6eff550552,62bbfb57ab427b48f9822fdb,2022-06-29_09h13.18.268,Colour_Asymmetry_Pilot,2022.1.3,Win32,60.21194605,62bbe60bf3d75ef465d3e404,,,,,,,,,,,,,,,,,,,,,,,,,,,,,,,,,,,,,,,,,,,,,,,,,,,,,,,,,,,,,,,,,,,,,,,,,,,,,,,,,,,,,,,,,,,,,,,,,,,,,,,,,,,,,,,,,,,,,,,,,,,,,,,,,,,,,,,,,,,,,,,,,,,,,,,,,,,,,,
0,40,40,37,1,,60e163c124453a6eff550552,62bbfb57ab427b48f9822fdb,2022-06-29_09h13.18.268,Colour_Asymmetry_Pilot,2022.1.3,Win32,60.21194605,62bbe60bf3d75ef465d3e404,,,,,,,,,,,,,,,,,,,,,,,,,,,,,,,,,,,,,,,,,,,,,,,,,,,,,,,,,,,,,,,,,,,,,,,,,,,,,,,,,,,,,,,,,,,,,,,,,,,,,,,,,,,,,,,,,,,,,,,,,,,,,,,,,,,,,,,,,,,,,,,,,,,,,,,,,,,,,,
0,41,41,49,1,,60e163c124453a6eff550552,62bbfb57ab427b48f9822fdb,2022-06-29_09h13.18.268,Colour_Asymmetry_Pilot,2022.1.3,Win32,60.21194605,62bbe60bf3d75ef465d3e404,,,,,,,,,,,,,,,,,,,,,,,,,,,,,,,,,,,,,,,,,,,,,,,,,,,,,,,,,,,,,,,,,,,,,,,,,,,,,,,,,,,,,,,,,,,,,,,,,,,,,,,,,,,,,,,,,,,,,,,,,,,,,,,,,,,,,,,,,,,,,,,,,,,,,,,,,,,,,,
0,42,42,86,1,,60e163c124453a6eff550552,62bbfb57ab427b48f9822fdb,2022-06-29_09h13.18.268,Colour_Asymmetry_Pilot,2022.1.3,Win32,60.21194605,62bbe60bf3d75ef465d3e404,,,,,,,,,,,,,,,,,,,,,,,,,,,,,,,,,,,,,,,,,,,,,,,,,,,,,,,,,,,,,,,,,,,,,,,,,,,,,,,,,,,,,,,,,,,,,,,,,,,,,,,,,,,,,,,,,,,,,,,,,,,,,,,,,,,,,,,,,,,,,,,,,,,,,,,,,,,,,,
0,43,43,89,1,,60e163c124453a6eff550552,62bbfb57ab427b48f9822fdb,2022-06-29_09h13.18.268,Colour_Asymmetry_Pilot,2022.1.3,Win32,60.21194605,62bbe60bf3d75ef465d3e404,,,,,,,,,,,,,,,,,,,,,,,,,,,,,,,,,,,,,,,,,,,,,,,,,,,,,,,,,,,,,,,,,,,,,,,,,,,,,,,,,,,,,,,,,,,,,,,,,,,,,,,,,,,,,,,,,,,,,,,,,,,,,,,,,,,,,,,,,,,,,,,,,,,,,,,,,,,,,,
0,44,44,88,1,,60e163c124453a6eff550552,62bbfb57ab427b48f9822fdb,2022-06-29_09h13.18.268,Colour_Asymmetry_Pilot,2022.1.3,Win32,60.21194605,62bbe60bf3d75ef465d3e404,,,,,,,,,,,,,,,,,,,,,,,,,,,,,,,,,,,,,,,,,,,,,,,,,,,,,,,,,,,,,,,,,,,,,,,,,,,,,,,,,,,,,,,,,,,,,,,,,,,,,,,,,,,,,,,,,,,,,,,,,,,,,,,,,,,,,,,,,,,,,,,,,,,,,,,,,,,,,,
0,45,45,8,1,,60e163c124453a6eff550552,62bbfb57ab427b48f9822fdb,2022-06-29_09h13.18.268,Colour_Asymmetry_Pilot,2022.1.3,Win32,60.21194605,62bbe60bf3d75ef465d3e404,,,,,,,,,,,,,,,,,,,,,,,,,,,,,,,,,,,,,,,,,,,,,,,,,,,,,,,,,,,,,,,,,,,,,,,,,,,,,,,,,,,,,,,,,,,,,,,,,,,,,,,,,,,,,,,,,,,,,,,,,,,,,,,,,,,,,,,,,,,,,,,,,,,,,,,,,,,,,,
0,46,46,54,1,,60e163c124453a6eff550552,62bbfb57ab427b48f9822fdb,2022-06-29_09h13.18.268,Colour_Asymmetry_Pilot,2022.1.3,Win32,60.21194605,62bbe60bf3d75ef465d3e404,,,,,,,,,,,,,,,,,,,,,,,,,,,,,,,,,,,,,,,,,,,,,,,,,,,,,,,,,,,,,,,,,,,,,,,,,,,,,,,,,,,,,,,,,,,,,,,,,,,,,,,,,,,,,,,,,,,,,,,,,,,,,,,,,,,,,,,,,,,,,,,,,,,,,,,,,,,,,,
0,47,47,19,1,,60e163c124453a6eff550552,62bbfb57ab427b48f9822fdb,2022-06-29_09h13.18.268,Colour_Asymmetry_Pilot,2022.1.3,Win32,60.21194605,62bbe60bf3d75ef465d3e404,,,,,,,,,,,,,,,,,,,,,,,,,,,,,,,,,,,,,,,,,,,,,,,,,,,,,,,,,,,,,,,,,,,,,,,,,,,,,,,,,,,,,,,,,,,,,,,,,,,,,,,,,,,,,,,,,,,,,,,,,,,,,,,,,,,,,,,,,,,,,,,,,,,,,,,,,,,,,,
0,48,48,72,1,,60e163c124453a6eff550552,62bbfb57ab427b48f9822fdb,2022-06-29_09h13.18.268,Colour_Asymmetry_Pilot,2022.1.3,Win32,60.21194605,62bbe60bf3d75ef465d3e404,,,,,,,,,,,,,,,,,,,,,,,,,,,,,,,,,,,,,,,,,,,,,,,,,,,,,,,,,,,,,,,,,,,,,,,,,,,,,,,,,,,,,,,,,,,,,,,,,,,,,,,,,,,,,,,,,,,,,,,,,,,,,,,,,,,,,,,,,,,,,,,,,,,,,,,,,,,,,,
0,49,49,67,1,,60e163c124453a6eff550552,62bbfb57ab427b48f9822fdb,2022-06-29_09h13.18.268,Colour_Asymmetry_Pilot,2022.1.3,Win32,60.21194605,62bbe60bf3d75ef465d3e404,,,,,,,,,,,,,,,,,,,,,,,,,,,,,,,,,,,,,,,,,,,,,,,,,,,,,,,,,,,,,,,,,,,,,,,,,,,,,,,,,,,,,,,,,,,,,,,,,,,,,,,,,,,,,,,,,,,,,,,,,,,,,,,,,,,,,,,,,,,,,,,,,,,,,,,,,,,,,,
0,50,50,22,1,,60e163c124453a6eff550552,62bbfb57ab427b48f9822fdb,2022-06-29_09h13.18.268,Colour_Asymmetry_Pilot,2022.1.3,Win32,60.21194605,62bbe60bf3d75ef465d3e404,,,,,,,,,,,,,,,,,,,,,,,,,,,,,,,,,,,,,,,,,,,,,,,,,,,,,,,,,,,,,,,,,,,,,,,,,,,,,,,,,,,,,,,,,,,,,,,,,,,,,,,,,,,,,,,,,,,,,,,,,,,,,,,,,,,,,,,,,,,,,,,,,,,,,,,,,,,,,,
0,51,51,64,1,,60e163c124453a6eff550552,62bbfb57ab427b48f9822fdb,2022-06-29_09h13.18.268,Colour_Asymmetry_Pilot,2022.1.3,Win32,60.21194605,62bbe60bf3d75ef465d3e404,,,,,,,,,,,,,,,,,,,,,,,,,,,,,,,,,,,,,,,,,,,,,,,,,,,,,,,,,,,,,,,,,,,,,,,,,,,,,,,,,,,,,,,,,,,,,,,,,,,,,,,,,,,,,,,,,,,,,,,,,,,,,,,,,,,,,,,,,,,,,,,,,,,,,,,,,,,,,,
0,52,52,62,1,,60e163c124453a6eff550552,62bbfb57ab427b48f9822fdb,2022-06-29_09h13.18.268,Colour_Asymmetry_Pilot,2022.1.3,Win32,60.21194605,62bbe60bf3d75ef465d3e404,,,,,,,,,,,,,,,,,,,,,,,,,,,,,,,,,,,,,,,,,,,,,,,,,,,,,,,,,,,,,,,,,,,,,,,,,,,,,,,,,,,,,,,,,,,,,,,,,,,,,,,,,,,,,,,,,,,,,,,,,,,,,,,,,,,,,,,,,,,,,,,,,,,,,,,,,,,,,,
0,53,53,3,1,,60e163c124453a6eff550552,62bbfb57ab427b48f9822fdb,2022-06-29_09h13.18.268,Colour_Asymmetry_Pilot,2022.1.3,Win32,60.21194605,62bbe60bf3d75ef465d3e404,,,,,,,,,,,,,,,,,,,,,,,,,,,,,,,,,,,,,,,,,,,,,,,,,,,,,,,,,,,,,,,,,,,,,,,,,,,,,,,,,,,,,,,,,,,,,,,,,,,,,,,,,,,,,,,,,,,,,,,,,,,,,,,,,,,,,,,,,,,,,,,,,,,,,,,,,,,,,,
0,54,54,0,1,,60e163c124453a6eff550552,62bbfb57ab427b48f9822fdb,2022-06-29_09h13.18.268,Colour_Asymmetry_Pilot,2022.1.3,Win32,60.21194605,62bbe60bf3d75ef465d3e404,,,,,,,,,,,,,,,,,,,,,,,,,,,,,,,,,,,,,,,,,,,,,,,,,,,,,,,,,,,,,,,,,,,,,,,,,,,,,,,,,,,,,,,,,,,,,,,,,,,,,,,,,,,,,,,,,,,,,,,,,,,,,,,,,,,,,,,,,,,,,,,,,,,,,,,,,,,,,,
0,55,55,28,1,,60e163c124453a6eff550552,62bbfb57ab427b48f9822fdb,2022-06-29_09h13.18.268,Colour_Asymmetry_Pilot,2022.1.3,Win32,60.21194605,62bbe60bf3d75ef465d3e404,,,,,,,,,,,,,,,,,,,,,,,,,,,,,,,,,,,,,,,,,,,,,,,,,,,,,,,,,,,,,,,,,,,,,,,,,,,,,,,,,,,,,,,,,,,,,,,,,,,,,,,,,,,,,,,,,,,,,,,,,,,,,,,,,,,,,,,,,,,,,,,,,,,,,,,,,,,,,,
0,56,56,69,1,,60e163c124453a6eff550552,62bbfb57ab427b48f9822fdb,2022-06-29_09h13.18.268,Colour_Asymmetry_Pilot,2022.1.3,Win32,60.21194605,62bbe60bf3d75ef465d3e404,,,,,,,,,,,,,,,,,,,,,,,,,,,,,,,,,,,,,,,,,,,,,,,,,,,,,,,,,,,,,,,,,,,,,,,,,,,,,,,,,,,,,,,,,,,,,,,,,,,,,,,,,,,,,,,,,,,,,,,,,,,,,,,,,,,,,,,,,,,,,,,,,,,,,,,,,,,,,,
0,57,57,42,1,,60e163c124453a6eff550552,62bbfb57ab427b48f9822fdb,2022-06-29_09h13.18.268,Colour_Asymmetry_Pilot,2022.1.3,Win32,60.21194605,62bbe60bf3d75ef465d3e404,,,,,,,,,,,,,,,,,,,,,,,,,,,,,,,,,,,,,,,,,,,,,,,,,,,,,,,,,,,,,,,,,,,,,,,,,,,,,,,,,,,,,,,,,,,,,,,,,,,,,,,,,,,,,,,,,,,,,,,,,,,,,,,,,,,,,,,,,,,,,,,,,,,,,,,,,,,,,,
0,58,58,17,1,,60e163c124453a6eff550552,62bbfb57ab427b48f9822fdb,2022-06-29_09h13.18.268,Colour_Asymmetry_Pilot,2022.1.3,Win32,60.21194605,62bbe60bf3d75ef465d3e404,,,,,,,,,,,,,,,,,,,,,,,,,,,,,,,,,,,,,,,,,,,,,,,,,,,,,,,,,,,,,,,,,,,,,,,,,,,,,,,,,,,,,,,,,,,,,,,,,,,,,,,,,,,,,,,,,,,,,,,,,,,,,,,,,,,,,,,,,,,,,,,,,,,,,,,,,,,,,,
0,59,59,82,1,,60e163c124453a6eff550552,62bbfb57ab427b48f9822fdb,2022-06-29_09h13.18.268,Colour_Asymmetry_Pilot,2022.1.3,Win32,60.21194605,62bbe60bf3d75ef465d3e404,,,,,,,,,,,,,,,,,,,,,,,,,,,,,,,,,,,,,,,,,,,,,,,,,,,,,,,,,,,,,,,,,,,,,,,,,,,,,,,,,,,,,,,,,,,,,,,,,,,,,,,,,,,,,,,,,,,,,,,,,,,,,,,,,,,,,,,,,,,,,,,,,,,,,,,,,,,,,,
0,60,60,5,1,,60e163c124453a6eff550552,62bbfb57ab427b48f9822fdb,2022-06-29_09h13.18.268,Colour_Asymmetry_Pilot,2022.1.3,Win32,60.21194605,62bbe60bf3d75ef465d3e404,,,,,,,,,,,,,,,,,,,,,,,,,,,,,,,,,,,,,,,,,,,,,,,,,,,,,,,,,,,,,,,,,,,,,,,,,,,,,,,,,,,,,,,,,,,,,,,,,,,,,,,,,,,,,,,,,,,,,,,,,,,,,,,,,,,,,,,,,,,,,,,,,,,,,,,,,,,,,,
0,61,61,44,1,,60e163c124453a6eff550552,62bbfb57ab427b48f9822fdb,2022-06-29_09h13.18.268,Colour_Asymmetry_Pilot,2022.1.3,Win32,60.21194605,62bbe60bf3d75ef465d3e404,,,,,,,,,,,,,,,,,,,,,,,,,,,,,,,,,,,,,,,,,,,,,,,,,,,,,,,,,,,,,,,,,,,,,,,,,,,,,,,,,,,,,,,,,,,,,,,,,,,,,,,,,,,,,,,,,,,,,,,,,,,,,,,,,,,,,,,,,,,,,,,,,,,,,,,,,,,,,,
0,62,62,11,1,,60e163c124453a6eff550552,62bbfb57ab427b48f9822fdb,2022-06-29_09h13.18.268,Colour_Asymmetry_Pilot,2022.1.3,Win32,60.21194605,62bbe60bf3d75ef465d3e404,,,,,,,,,,,,,,,,,,,,,,,,,,,,,,,,,,,,,,,,,,,,,,,,,,,,,,,,,,,,,,,,,,,,,,,,,,,,,,,,,,,,,,,,,,,,,,,,,,,,,,,,,,,,,,,,,,,,,,,,,,,,,,,,,,,,,,,,,,,,,,,,,,,,,,,,,,,,,,
0,63,63,85,1,,60e163c124453a6eff550552,62bbfb57ab427b48f9822fdb,2022-06-29_09h13.18.268,Colour_Asymmetry_Pilot,2022.1.3,Win32,60.21194605,62bbe60bf3d75ef465d3e404,,,,,,,,,,,,,,,,,,,,,,,,,,,,,,,,,,,,,,,,,,,,,,,,,,,,,,,,,,,,,,,,,,,,,,,,,,,,,,,,,,,,,,,,,,,,,,,,,,,,,,,,,,,,,,,,,,,,,,,,,,,,,,,,,,,,,,,,,,,,,,,,,,,,,,,,,,,,,,
0,64,64,51,1,,60e163c124453a6eff550552,62bbfb57ab427b48f9822fdb,2022-06-29_09h13.18.268,Colour_Asymmetry_Pilot,2022.1.3,Win32,60.21194605,62bbe60bf3d75ef465d3e404,,,,,,,,,,,,,,,,,,,,,,,,,,,,,,,,,,,,,,,,,,,,,,,,,,,,,,,,,,,,,,,,,,,,,,,,,,,,,,,,,,,,,,,,,,,,,,,,,,,,,,,,,,,,,,,,,,,,,,,,,,,,,,,,,,,,,,,,,,,,,,,,,,,,,,,,,,,,,,
0,65,65,73,1,,60e163c124453a6eff550552,62bbfb57ab427b48f9822fdb,2022-06-29_09h13.18.268,Colour_Asymmetry_Pilot,2022.1.3,Win32,60.21194605,62bbe60bf3d75ef465d3e404,,,,,,,,,,,,,,,,,,,,,,,,,,,,,,,,,,,,,,,,,,,,,,,,,,,,,,,,,,,,,,,,,,,,,,,,,,,,,,,,,,,,,,,,,,,,,,,,,,,,,,,,,,,,,,,,,,,,,,,,,,,,,,,,,,,,,,,,,,,,,,,,,,,,,,,,,,,,,,
0,66,66,50,1,,60e163c124453a6eff550552,62bbfb57ab427b48f9822fdb,2022-06-29_09h13.18.268,Colour_Asymmetry_Pilot,2022.1.3,Win32,60.21194605,62bbe60bf3d75ef465d3e404,,,,,,,,,,,,,,,,,,,,,,,,,,,,,,,,,,,,,,,,,,,,,,,,,,,,,,,,,,,,,,,,,,,,,,,,,,,,,,,,,,,,,,,,,,,,,,,,,,,,,,,,,,,,,,,,,,,,,,,,,,,,,,,,,,,,,,,,,,,,,,,,,,,,,,,,,,,,,,
0,67,67,15,1,,60e163c124453a6eff550552,62bbfb57ab427b48f9822fdb,2022-06-29_09h13.18.268,Colour_Asymmetry_Pilot,2022.1.3,Win32,60.21194605,62bbe60bf3d75ef465d3e404,,,,,,,,,,,,,,,,,,,,,,,,,,,,,,,,,,,,,,,,,,,,,,,,,,,,,,,,,,,,,,,,,,,,,,,,,,,,,,,,,,,,,,,,,,,,,,,,,,,,,,,,,,,,,,,,,,,,,,,,,,,,,,,,,,,,,,,,,,,,,,,,,,,,,,,,,,,,,,
0,68,68,70,1,,60e163c124453a6eff550552,62bbfb57ab427b48f9822fdb,2022-06-29_09h13.18.268,Colour_Asymmetry_Pilot,2022.1.3,Win32,60.21194605,62bbe60bf3d75ef465d3e404,,,,,,,,,,,,,,,,,,,,,,,,,,,,,,,,,,,,,,,,,,,,,,,,,,,,,,,,,,,,,,,,,,,,,,,,,,,,,,,,,,,,,,,,,,,,,,,,,,,,,,,,,,,,,,,,,,,,,,,,,,,,,,,,,,,,,,,,,,,,,,,,,,,,,,,,,,,,,,
0,69,69,21,1,,60e163c124453a6eff550552,62bbfb57ab427b48f9822fdb,2022-06-29_09h13.18.268,Colour_Asymmetry_Pilot,2022.1.3,Win32,60.21194605,62bbe60bf3d75ef465d3e404,,,,,,,,,,,,,,,,,,,,,,,,,,,,,,,,,,,,,,,,,,,,,,,,,,,,,,,,,,,,,,,,,,,,,,,,,,,,,,,,,,,,,,,,,,,,,,,,,,,,,,,,,,,,,,,,,,,,,,,,,,,,,,,,,,,,,,,,,,,,,,,,,,,,,,,,,,,,,,
0,70,70,53,1,,60e163c124453a6eff550552,62bbfb57ab427b48f9822fdb,2022-06-29_09h13.18.268,Colour_Asymmetry_Pilot,2022.1.3,Win32,60.21194605,62bbe60bf3d75ef465d3e404,,,,,,,,,,,,,,,,,,,,,,,,,,,,,,,,,,,,,,,,,,,,,,,,,,,,,,,,,,,,,,,,,,,,,,,,,,,,,,,,,,,,,,,,,,,,,,,,,,,,,,,,,,,,,,,,,,,,,,,,,,,,,,,,,,,,,,,,,,,,,,,,,,,,,,,,,,,,,,
0,71,71,43,1,,60e163c124453a6eff550552,62bbfb57ab427b48f9822fdb,2022-06-29_09h13.18.268,Colour_Asymmetry_Pilot,2022.1.3,Win32,60.21194605,62bbe60bf3d75ef465d3e404,,,,,,,,,,,,,,,,,,,,,,,,,,,,,,,,,,,,,,,,,,,,,,,,,,,,,,,,,,,,,,,,,,,,,,,,,,,,,,,,,,,,,,,,,,,,,,,,,,,,,,,,,,,,,,,,,,,,,,,,,,,,,,,,,,,,,,,,,,,,,,,,,,,,,,,,,,,,,,
0,72,72,84,1,,60e163c124453a6eff550552,62bbfb57ab427b48f9822fdb,2022-06-29_09h13.18.268,Colour_Asymmetry_Pilot,2022.1.3,Win32,60.21194605,62bbe60bf3d75ef465d3e404,,,,,,,,,,,,,,,,,,,,,,,,,,,,,,,,,,,,,,,,,,,,,,,,,,,,,,,,,,,,,,,,,,,,,,,,,,,,,,,,,,,,,,,,,,,,,,,,,,,,,,,,,,,,,,,,,,,,,,,,,,,,,,,,,,,,,,,,,,,,,,,,,,,,,,,,,,,,,,
0,73,73,18,1,,60e163c124453a6eff550552,62bbfb57ab427b48f9822fdb,2022-06-29_09h13.18.268,Colour_Asymmetry_Pilot,2022.1.3,Win32,60.21194605,62bbe60bf3d75ef465d3e404,,,,,,,,,,,,,,,,,,,,,,,,,,,,,,,,,,,,,,,,,,,,,,,,,,,,,,,,,,,,,,,,,,,,,,,,,,,,,,,,,,,,,,,,,,,,,,,,,,,,,,,,,,,,,,,,,,,,,,,,,,,,,,,,,,,,,,,,,,,,,,,,,,,,,,,,,,,,,,
0,74,74,83,1,,60e163c124453a6eff550552,62bbfb57ab427b48f9822fdb,2022-06-29_09h13.18.268,Colour_Asymmetry_Pilot,2022.1.3,Win32,60.21194605,62bbe60bf3d75ef465d3e404,,,,,,,,,,,,,,,,,,,,,,,,,,,,,,,,,,,,,,,,,,,,,,,,,,,,,,,,,,,,,,,,,,,,,,,,,,,,,,,,,,,,,,,,,,,,,,,,,,,,,,,,,,,,,,,,,,,,,,,,,,,,,,,,,,,,,,,,,,,,,,,,,,,,,,,,,,,,,,
0,75,75,33,1,,60e163c124453a6eff550552,62bbfb57ab427b48f9822fdb,2022-06-29_09h13.18.268,Colour_Asymmetry_Pilot,2022.1.3,Win32,60.21194605,62bbe60bf3d75ef465d3e404,,,,,,,,,,,,,,,,,,,,,,,,,,,,,,,,,,,,,,,,,,,,,,,,,,,,,,,,,,,,,,,,,,,,,,,,,,,,,,,,,,,,,,,,,,,,,,,,,,,,,,,,,,,,,,,,,,,,,,,,,,,,,,,,,,,,,,,,,,,,,,,,,,,,,,,,,,,,,,
0,76,76,48,1,,60e163c124453a6eff550552,62bbfb57ab427b48f9822fdb,2022-06-29_09h13.18.268,Colour_Asymmetry_Pilot,2022.1.3,Win32,60.21194605,62bbe60bf3d75ef465d3e404,,,,,,,,,,,,,,,,,,,,,,,,,,,,,,,,,,,,,,,,,,,,,,,,,,,,,,,,,,,,,,,,,,,,,,,,,,,,,,,,,,,,,,,,,,,,,,,,,,,,,,,,,,,,,,,,,,,,,,,,,,,,,,,,,,,,,,,,,,,,,,,,,,,,,,,,,,,,,,
0,77,77,63,1,,60e163c124453a6eff550552,62bbfb57ab427b48f9822fdb,2022-06-29_09h13.18.268,Colour_Asymmetry_Pilot,2022.1.3,Win32,60.21194605,62bbe60bf3d75ef465d3e404,,,,,,,,,,,,,,,,,,,,,,,,,,,,,,,,,,,,,,,,,,,,,,,,,,,,,,,,,,,,,,,,,,,,,,,,,,,,,,,,,,,,,,,,,,,,,,,,,,,,,,,,,,,,,,,,,,,,,,,,,,,,,,,,,,,,,,,,,,,,,,,,,,,,,,,,,,,,,,
0,78,78,57,1,,60e163c124453a6eff550552,62bbfb57ab427b48f9822fdb,2022-06-29_09h13.18.268,Colour_Asymmetry_Pilot,2022.1.3,Win32,60.21194605,62bbe60bf3d75ef465d3e404,,,,,,,,,,,,,,,,,,,,,,,,,,,,,,,,,,,,,,,,,,,,,,,,,,,,,,,,,,,,,,,,,,,,,,,,,,,,,,,,,,,,,,,,,,,,,,,,,,,,,,,,,,,,,,,,,,,,,,,,,,,,,,,,,,,,,,,,,,,,,,,,,,,,,,,,,,,,,,
0,79,79,12,1,,60e163c124453a6eff550552,62bbfb57ab427b48f9822fdb,2022-06-29_09h13.18.268,Colour_Asymmetry_Pilot,2022.1.3,Win32,60.21194605,62bbe60bf3d75ef465d3e404,,,,,,,,,,,,,,,,,,,,,,,,,,,,,,,,,,,,,,,,,,,,,,,,,,,,,,,,,,,,,,,,,,,,,,,,,,,,,,,,,,,,,,,,,,,,,,,,,,,,,,,,,,,,,,,,,,,,,,,,,,,,,,,,,,,,,,,,,,,,,,,,,,,,,,,,,,,,,,
0,80,80,9,1,,60e163c124453a6eff550552,62bbfb57ab427b48f9822fdb,2022-06-29_09h13.18.268,Colour_Asymmetry_Pilot,2022.1.3,Win32,60.21194605,62bbe60bf3d75ef465d3e404,,,,,,,,,,,,,,,,,,,,,,,,,,,,,,,,,,,,,,,,,,,,,,,,,,,,,,,,,,,,,,,,,,,,,,,,,,,,,,,,,,,,,,,,,,,,,,,,,,,,,,,,,,,,,,,,,,,,,,,,,,,,,,,,,,,,,,,,,,,,,,,,,,,,,,,,,,,,,,
0,81,81,79,1,,60e163c124453a6eff550552,62bbfb57ab427b48f9822fdb,2022-06-29_09h13.18.268,Colour_Asymmetry_Pilot,2022.1.3,Win32,60.21194605,62bbe60bf3d75ef465d3e404,,,,,,,,,,,,,,,,,,,,,,,,,,,,,,,,,,,,,,,,,,,,,,,,,,,,,,,,,,,,,,,,,,,,,,,,,,,,,,,,,,,,,,,,,,,,,,,,,,,,,,,,,,,,,,,,,,,,,,,,,,,,,,,,,,,,,,,,,,,,,,,,,,,,,,,,,,,,,,
0,82,82,80,1,,60e163c124453a6eff550552,62bbfb57ab427b48f9822fdb,2022-06-29_09h13.18.268,Colour_Asymmetry_Pilot,2022.1.3,Win32,60.21194605,62bbe60bf3d75ef465d3e404,,,,,,,,,,,,,,,,,,,,,,,,,,,,,,,,,,,,,,,,,,,,,,,,,,,,,,,,,,,,,,,,,,,,,,,,,,,,,,,,,,,,,,,,,,,,,,,,,,,,,,,,,,,,,,,,,,,,,,,,,,,,,,,,,,,,,,,,,,,,,,,,,,,,,,,,,,,,,,
0,83,83,56,1,,60e163c124453a6eff550552,62bbfb57ab427b48f9822fdb,2022-06-29_09h13.18.268,Colour_Asymmetry_Pilot,2022.1.3,Win32,60.21194605,62bbe60bf3d75ef465d3e404,,,,,,,,,,,,,,,,,,,,,,,,,,,,,,,,,,,,,,,,,,,,,,,,,,,,,,,,,,,,,,,,,,,,,,,,,,,,,,,,,,,,,,,,,,,,,,,,,,,,,,,,,,,,,,,,,,,,,,,,,,,,,,,,,,,,,,,,,,,,,,,,,,,,,,,,,,,,,,
0,84,84,14,1,,60e163c124453a6eff550552,62bbfb57ab427b48f9822fdb,2022-06-29_09h13.18.268,Colour_Asymmetry_Pilot,2022.1.3,Win32,60.21194605,62bbe60bf3d75ef465d3e404,,,,,,,,,,,,,,,,,,,,,,,,,,,,,,,,,,,,,,,,,,,,,,,,,,,,,,,,,,,,,,,,,,,,,,,,,,,,,,,,,,,,,,,,,,,,,,,,,,,,,,,,,,,,,,,,,,,,,,,,,,,,,,,,,,,,,,,,,,,,,,,,,,,,,,,,,,,,,,
0,85,85,66,1,,60e163c124453a6eff550552,62bbfb57ab427b48f9822fdb,2022-06-29_09h13.18.268,Colour_Asymmetry_Pilot,2022.1.3,Win32,60.21194605,62bbe60bf3d75ef465d3e404,,,,,,,,,,,,,,,,,,,,,,,,,,,,,,,,,,,,,,,,,,,,,,,,,,,,,,,,,,,,,,,,,,,,,,,,,,,,,,,,,,,,,,,,,,,,,,,,,,,,,,,,,,,,,,,,,,,,,,,,,,,,,,,,,,,,,,,,,,,,,,,,,,,,,,,,,,,,,,
0,86,86,90,1,,60e163c124453a6eff550552,62bbfb57ab427b48f9822fdb,2022-06-29_09h13.18.268,Colour_Asymmetry_Pilot,2022.1.3,Win32,60.21194605,62bbe60bf3d75ef465d3e404,,,,,,,,,,,,,,,,,,,,,,,,,,,,,,,,,,,,,,,,,,,,,,,,,,,,,,,,,,,,,,,,,,,,,,,,,,,,,,,,,,,,,,,,,,,,,,,,,,,,,,,,,,,,,,,,,,,,,,,,,,,,,,,,,,,,,,,,,,,,,,,,,,,,,,,,,,,,,,
0,87,87,71,1,,60e163c124453a6eff550552,62bbfb57ab427b48f9822fdb,2022-06-29_09h13.18.268,Colour_Asymmetry_Pilot,2022.1.3,Win32,60.21194605,62bbe60bf3d75ef465d3e404,,,,,,,,,,,,,,,,,,,,,,,,,,,,,,,,,,,,,,,,,,,,,,,,,,,,,,,,,,,,,,,,,,,,,,,,,,,,,,,,,,,,,,,,,,,,,,,,,,,,,,,,,,,,,,,,,,,,,,,,,,,,,,,,,,,,,,,,,,,,,,,,,,,,,,,,,,,,,,
0,88,88,13,1,,60e163c124453a6eff550552,62bbfb57ab427b48f9822fdb,2022-06-29_09h13.18.268,Colour_Asymmetry_Pilot,2022.1.3,Win32,60.21194605,62bbe60bf3d75ef465d3e404,,,,,,,,,,,,,,,,,,,,,,,,,,,,,,,,,,,,,,,,,,,,,,,,,,,,,,,,,,,,,,,,,,,,,,,,,,,,,,,,,,,,,,,,,,,,,,,,,,,,,,,,,,,,,,,,,,,,,,,,,,,,,,,,,,,,,,,,,,,,,,,,,,,,,,,,,,,,,,
0,89,89,2,1,,60e163c124453a6eff550552,62bbfb57ab427b48f9822fdb,2022-06-29_09h13.18.268,Colour_Asymmetry_Pilot,2022.1.3,Win32,60.21194605,62bbe60bf3d75ef465d3e404,,,,,,,,,,,,,,,,,,,,,,,,,,,,,,,,,,,,,,,,,,,,,,,,,,,,,,,,,,,,,,,,,,,,,,,,,,,,,,,,,,,,,,,,,,,,,,,,,,,,,,,,,,,,,,,,,,,,,,,,,,,,,,,,,,,,,,,,,,,,,,,,,,,,,,,,,,,,,,
0,90,90,81,1,,60e163c124453a6eff550552,62bbfb57ab427b48f9822fdb,2022-06-29_09h13.18.268,Colour_Asymmetry_Pilot,2022.1.3,Win32,60.21194605,62bbe60bf3d75ef465d3e404,,,,,,,,,,,,,,,,,,,,,,,,,,,,,,,,,,,,,,,,,,,,,,,,,,,,,,,,,,,,,,,,,,,,,,,,,,,,,,,,,,,,,,,,,,,,,,,,,,,,,,,,,,,,,,,,,,,,,,,,,,,,,,,,,,,,,,,,,,,,,,,,,,,,,,,,,,,,,,
0,91,91,10,1,,60e163c124453a6eff550552,62bbfb57ab427b48f9822fdb,2022-06-29_09h13.18.268,Colour_Asymmetry_Pilot,2022.1.3,Win32,60.21194605,62bbe60bf3d75ef465d3e404,,,,,,,,,,,,,,,,,,,,,,,,,,,,,,,,,,,,,,,,,,,,,,,,,,,,,,,,,,,,,,,,,,,,,,,,,,,,,,,,,,,,,,,,,,,,,,,,,,,,,,,,,,,,,,,,,,,,,,,,,,,,,,,,,,,,,,,,,,,,,,,,,,,,,,,,,,,,,,
0,92,92,61,1,,60e163c124453a6eff550552,62bbfb57ab427b48f9822fdb,2022-06-29_09h13.18.268,Colour_Asymmetry_Pilot,2022.1.3,Win32,60.21194605,62bbe60bf3d75ef465d3e404,,,,,,,,,,,,,,,,,,,,,,,,,,,,,,,,,,,,,,,,,,,,,,,,,,,,,,,,,,,,,,,,,,,,,,,,,,,,,,,,,,,,,,,,,,,,,,,,,,,,,,,,,,,,,,,,,,,,,,,,,,,,,,,,,,,,,,,,,,,,,,,,,,,,,,,,,,,,,,
,,,,,,60e163c124453a6eff550552,62bbfb57ab427b48f9822fdb,2022-06-29_09h13.18.268,Colour_Asymmetry_Pilot,2022.1.3,Win32,60.21194605,62bbe60bf3d75ef465d3e404,0,0,0,119,1,fourthree,,,,,,,,,,,,,,,,,,,,,,,,,,,,,,,,,,,,,,,,,,,,,,,,,,,,,,,,,,,,,,,,,,,,,,,,,,,,,,,,,,,,,,,,,,,,,,,,,,,,,,,,,,,,,,,,,,,,,,,,,,,,,,,,,,,,,,,,,,,,,,,,,,,,,,,,
,,,,,,60e163c124453a6eff550552,62bbfb57ab427b48f9822fdb,2022-06-29_09h13.18.268,Colour_Asymmetry_Pilot,2022.1.3,Win32,60.21194605,62bbe60bf3d75ef465d3e404,0,1,1,38,1,fourtwo,,,,,,,,,,,,,,,,,,,,,,,,,,,,,,,,,,,,,,,,,,,,,,,,,,,,,,,,,,,,,,,,,,,,,,,,,,,,,,,,,,,,,,,,,,,,,,,,,,,,,,,,,,,,,,,,,,,,,,,,,,,,,,,,,,,,,,,,,,,,,,,,,,,,,,,,
,,,,,,60e163c124453a6eff550552,62bbfb57ab427b48f9822fdb,2022-06-29_09h13.18.268,Colour_Asymmetry_Pilot,2022.1.3,Win32,60.21194605,62bbe60bf3d75ef465d3e404,0,2,2,105,1,onethree,,,,,,,,,,,,,,,,,,,,,,,,,,,,,,,,,,,,,,,,,,,,,,,,,,,,,,,,,,,,,,,,,,,,,,,,,,,,,,,,,,,,,,,,,,,,,,,,,,,,,,,,,,,,,,,,,,,,,,,,,,,,,,,,,,,,,,,,,,,,,,,,,,,,,,,,
,,,,,,60e163c124453a6eff550552,62bbfb57ab427b48f9822fdb,2022-06-29_09h13.18.268,Colour_Asymmetry_Pilot,2022.1.3,Win32,60.21194605,62bbe60bf3d75ef465d3e404,0,3,3,159,1,fourthree,,,,,,,,,,,,,,,,,,,,,,,,,,,,,,,,,,,,,,,,,,,,,,,,,,,,,,,,,,,,,,,,,,,,,,,,,,,,,,,,,,,,,,,,,,,,,,,,,,,,,,,,,,,,,,,,,,,,,,,,,,,,,,,,,,,,,,,,,,,,,,,,,,,,,,,,
,,,,,,60e163c124453a6eff550552,62bbfb57ab427b48f9822fdb,2022-06-29_09h13.18.268,Colour_Asymmetry_Pilot,2022.1.3,Win32,60.21194605,62bbe60bf3d75ef465d3e404,0,4,4,89,1,onethree,,,,,,,,,,,,,,,,,,,,,,,,,,,,,,,,,,,,,,,,,,,,,,,,,,,,,,,,,,,,,,,,,,,,,,,,,,,,,,,,,,,,,,,,,,,,,,,,,,,,,,,,,,,,,,,,,,,,,,,,,,,,,,,,,,,,,,,,,,,,,,,,,,,,,,,,
,,,,,,60e163c124453a6eff550552,62bbfb57ab427b48f9822fdb,2022-06-29_09h13.18.268,Colour_Asymmetry_Pilot,2022.1.3,Win32,60.21194605,62bbe60bf3d75ef465d3e404,0,5,5,116,1,threeone,,,,,,,,,,,,,,,,,,,,,,,,,,,,,,,,,,,,,,,,,,,,,,,,,,,,,,,,,,,,,,,,,,,,,,,,,,,,,,,,,,,,,,,,,,,,,,,,,,,,,,,,,,,,,,,,,,,,,,,,,,,,,,,,,,,,,,,,,,,,,,,,,,,,,,,,
,,,,,,60e163c124453a6eff550552,62bbfb57ab427b48f9822fdb,2022-06-29_09h13.18.268,Colour_Asymmetry_Pilot,2022.1.3,Win32,60.21194605,62bbe60bf3d75ef465d3e404,0,6,6,59,1,twofour,,,,,,,,,,,,,,,,,,,,,,,,,,,,,,,,,,,,,,,,,,,,,,,,,,,,,,,,,,,,,,,,,,,,,,,,,,,,,,,,,,,,,,,,,,,,,,,,,,,,,,,,,,,,,,,,,,,,,,,,,,,,,,,,,,,,,,,,,,,,,,,,,,,,,,,,
,,,,,,60e163c124453a6eff550552,62bbfb57ab427b48f9822fdb,2022-06-29_09h13.18.268,Colour_Asymmetry_Pilot,2022.1.3,Win32,60.21194605,62bbe60bf3d75ef465d3e404,0,7,7,75,1,twofour,,,,,,,,,,,,,,,,,,,,,,,,,,,,,,,,,,,,,,,,,,,,,,,,,,,,,,,,,,,,,,,,,,,,,,,,,,,,,,,,,,,,,,,,,,,,,,,,,,,,,,,,,,,,,,,,,,,,,,,,,,,,,,,,,,,,,,,,,,,,,,,,,,,,,,,,
,,,,,,60e163c124453a6eff550552,62bbfb57ab427b48f9822fdb,2022-06-29_09h13.18.268,Colour_Asymmetry_Pilot,2022.1.3,Win32,60.21194605,62bbe60bf3d75ef465d3e404,0,8,8,47,1,fourthree,,,,,,,,,,,,,,,,,,,,,,,,,,,,,,,,,,,,,,,,,,,,,,,,,,,,,,,,,,,,,,,,,,,,,,,,,,,,,,,,,,,,,,,,,,,,,,,,,,,,,,,,,,,,,,,,,,,,,,,,,,,,,,,,,,,,,,,,,,,,,,,,,,,,,,,,
,,,,,,60e163c124453a6eff550552,62bbfb57ab427b48f9822fdb,2022-06-29_09h13.18.268,Colour_Asymmetry_Pilot,2022.1.3,Win32,60.21194605,62bbe60bf3d75ef465d3e404,0,9,9,158,1,fourtwo,,,,,,,,,,,,,,,,,,,,,,,,,,,,,,,,,,,,,,,,,,,,,,,,,,,,,,,,,,,,,,,,,,,,,,,,,,,,,,,,,,,,,,,,,,,,,,,,,,,,,,,,,,,,,,,,,,,,,,,,,,,,,,,,,,,,,,,,,,,,,,,,,,,,,,,,
,,,,,,60e163c124453a6eff550552,62bbfb57ab427b48f9822fdb,2022-06-29_09h13.18.268,Colour_Asymmetry_Pilot,2022.1.3,Win32,60.21194605,62bbe60bf3d75ef465d3e404,0,10,10,71,1,fourthree,,,,,,,,,,,,,,,,,,,,,,,,,,,,,,,,,,,,,,,,,,,,,,,,,,,,,,,,,,,,,,,,,,,,,,,,,,,,,,,,,,,,,,,,,,,,,,,,,,,,,,,,,,,,,,,,,,,,,,,,,,,,,,,,,,,,,,,,,,,,,,,,,,,,,,,,
,,,,,,60e163c124453a6eff550552,62bbfb57ab427b48f9822fdb,2022-06-29_09h13.18.268,Colour_Asymmetry_Pilot,2022.1.3,Win32,60.21194605,62bbe60bf3d75ef465d3e404,0,11,11,149,1,threefour,,,,,,,,,,,,,,,,,,,,,,,,,,,,,,,,,,,,,,,,,,,,,,,,,,,,,,,,,,,,,,,,,,,,,,,,,,,,,,,,,,,,,,,,,,,,,,,,,,,,,,,,,,,,,,,,,,,,,,,,,,,,,,,,,,,,,,,,,,,,,,,,,,,,,,,,
,,,,,,60e163c124453a6eff550552,62bbfb57ab427b48f9822fdb,2022-06-29_09h13.18.268,Colour_Asymmetry_Pilot,2022.1.3,Win32,60.21194605,62bbe60bf3d75ef465d3e404,0,12,12,16,1,onetwo,,,,,,,,,,,,,,,,,,,,,,,,,,,,,,,,,,,,,,,,,,,,,,,,,,,,,,,,,,,,,,,,,,,,,,,,,,,,,,,,,,,,,,,,,,,,,,,,,,,,,,,,,,,,,,,,,,,,,,,,,,,,,,,,,,,,,,,,,,,,,,,,,,,,,,,,
,,,,,,60e163c124453a6eff550552,62bbfb57ab427b48f9822fdb,2022-06-29_09h13.18.268,Colour_Asymmetry_Pilot,2022.1.3,Win32,60.21194605,62bbe60bf3d75ef465d3e404,0,13,13,110,1,fourtwo,,,,,,,,,,,,,,,,,,,,,,,,,,,,,,,,,,,,,,,,,,,,,,,,,,,,,,,,,,,,,,,,,,,,,,,,,,,,,,,,,,,,,,,,,,,,,,,,,,,,,,,,,,,,,,,,,,,,,,,,,,,,,,,,,,,,,,,,,,,,,,,,,,,,,,,,
,,,,,,60e163c124453a6eff550552,62bbfb57ab427b48f9822fdb,2022-06-29_09h13.18.268,Colour_Asymmetry_Pilot,2022.1.3,Win32,60.21194605,62bbe60bf3d75ef465d3e404,0,14,14,22,1,fourtwo,,,,,,,,,,,,,,,,,,,,,,,,,,,,,,,,,,,,,,,,,,,,,,,,,,,,,,,,,,,,,,,,,,,,,,,,,,,,,,,,,,,,,,,,,,,,,,,,,,,,,,,,,,,,,,,,,,,,,,,,,,,,,,,,,,,,,,,,,,,,,,,,,,,,,,,,
,,,,,,60e163c124453a6eff550552,62bbfb57ab427b48f9822fdb,2022-06-29_09h13.18.268,Colour_Asymmetry_Pilot,2022.1.3,Win32,60.21194605,62bbe60bf3d75ef465d3e404,0,15,15,126,1,fourtwo,,,,,,,,,,,,,,,,,,,,,,,,,,,,,,,,,,,,,,,,,,,,,,,,,,,,,,,,,,,,,,,,,,,,,,,,,,,,,,,,,,,,,,,,,,,,,,,,,,,,,,,,,,,,,,,,,,,,,,,,,,,,,,,,,,,,,,,,,,,,,,,,,,,,,,,,
,,,,,,60e163c124453a6eff550552,62bbfb57ab427b48f9822fdb,2022-06-29_09h13.18.268,Colour_Asymmetry_Pilot,2022.1.3,Win32,60.21194605,62bbe60bf3d75ef465d3e404,0,16,16,88,1,onetwo,,,,,,,,,,,,,,,,,,,,,,,,,,,,,,,,,,,,,,,,,,,,,,,,,,,,,,,,,,,,,,,,,,,,,,,,,,,,,,,,,,,,,,,,,,,,,,,,,,,,,,,,,,,,,,,,,,,,,,,,,,,,,,,,,,,,,,,,,,,,,,,,,,,,,,,,
,,,,,,60e163c124453a6eff550552,62bbfb57ab427b48f9822fdb,2022-06-29_09h13.18.268,Colour_Asymmetry_Pilot,2022.1.3,Win32,60.21194605,62bbe60bf3d75ef465d3e404,0,17,17,98,1,twoone,,,,,,,,,,,,,,,,,,,,,,,,,,,,,,,,,,,,,,,,,,,,,,,,,,,,,,,,,,,,,,,,,,,,,,,,,,,,,,,,,,,,,,,,,,,,,,,,,,,,,,,,,,,,,,,,,,,,,,,,,,,,,,,,,,,,,,,,,,,,,,,,,,,,,,,,
,,,,,,60e163c124453a6eff550552,62bbfb57ab427b48f9822fdb,2022-06-29_09h13.18.268,Colour_Asymmetry_Pilot,2022.1.3,Win32,60.21194605,62bbe60bf3d75ef465d3e404,0,18,18,152,1,onetwo,,,,,,,,,,,,,,,,,,,,,,,,,,,,,,,,,,,,,,,,,,,,,,,,,,,,,,,,,,,,,,,,,,,,,,,,,,,,,,,,,,,,,,,,,,,,,,,,,,,,,,,,,,,,,,,,,,,,,,,,,,,,,,,,,,,,,,,,,,,,,,,,,,,,,,,,
,,,,,,60e163c124453a6eff550552,62bbfb57ab427b48f9822fdb,2022-06-29_09h13.18.268,Colour_Asymmetry_Pilot,2022.1.3,Win32,60.21194605,62bbe60bf3d75ef465d3e404,0,19,19,27,1,twofour,,,,,,,,,,,,,,,,,,,,,,,,,,,,,,,,,,,,,,,,,,,,,,,,,,,,,,,,,,,,,,,,,,,,,,,,,,,,,,,,,,,,,,,,,,,,,,,,,,,,,,,,,,,,,,,,,,,,,,,,,,,,,,,,,,,,,,,,,,,,,,,,,,,,,,,,
,,,,,,60e163c124453a6eff550552,62bbfb57ab427b48f9822fdb,2022-06-29_09h13.18.268,Colour_Asymmetry_Pilot,2022.1.3,Win32,60.21194605,62bbe60bf3d75ef465d3e404,0,20,20,18,1,twoone,,,,,,,,,,,,,,,,,,,,,,,,,,,,,,,,,,,,,,,,,,,,,,,,,,,,,,,,,,,,,,,,,,,,,,,,,,,,,,,,,,,,,,,,,,,,,,,,,,,,,,,,,,,,,,,,,,,,,,,,,,,,,,,,,,,,,,,,,,,,,,,,,,,,,,,,
,,,,,,60e163c124453a6eff550552,62bbfb57ab427b48f9822fdb,2022-06-29_09h13.18.268,Colour_Asymmetry_Pilot,2022.1.3,Win32,60.21194605,62bbe60bf3d75ef465d3e404,0,21,21,33,1,onethree,,,,,,,,,,,,,,,,,,,,,,,,,,,,,,,,,,,,,,,,,,,,,,,,,,,,,,,,,,,,,,,,,,,,,,,,,,,,,,,,,,,,,,,,,,,,,,,,,,,,,,,,,,,,,,,,,,,,,,,,,,,,,,,,,,,,,,,,,,,,,,,,,,,,,,,,
,,,,,,60e163c124453a6eff550552,62bbfb57ab427b48f9822fdb,2022-06-29_09h13.18.268,Colour_Asymmetry_Pilot,2022.1.3,Win32,60.21194605,62bbe60bf3d75ef465d3e404,0,22,22,148,1,threeone,,,,,,,,,,,,,,,,,,,,,,,,,,,,,,,,,,,,,,,,,,,,,,,,,,,,,,,,,,,,,,,,,,,,,,,,,,,,,,,,,,,,,,,,,,,,,,,,,,,,,,,,,,,,,,,,,,,,,,,,,,,,,,,,,,,,,,,,,,,,,,,,,,,,,,,,
,,,,,,60e163c124453a6eff550552,62bbfb57ab427b48f9822fdb,2022-06-29_09h13.18.268,Colour_Asymmetry_Pilot,2022.1.3,Win32,60.21194605,62bbe60bf3d75ef465d3e404,0,23,23,107,1,twofour,,,,,,,,,,,,,,,,,,,,,,,,,,,,,,,,,,,,,,,,,,,,,,,,,,,,,,,,,,,,,,,,,,,,,,,,,,,,,,,,,,,,,,,,,,,,,,,,,,,,,,,,,,,,,,,,,,,,,,,,,,,,,,,,,,,,,,,,,,,,,,,,,,,,,,,,
,,,,,,60e163c124453a6eff550552,62bbfb57ab427b48f9822fdb,2022-06-29_09h13.18.268,Colour_Asymmetry_Pilot,2022.1.3,Win32,60.21194605,62bbe60bf3d75ef465d3e404,0,24,24,57,1,onethree,,,,,,,,,,,,,,,,,,,,,,,,,,,,,,,,,,,,,,,,,,,,,,,,,,,,,,,,,,,,,,,,,,,,,,,,,,,,,,,,,,,,,,,,,,,,,,,,,,,,,,,,,,,,,,,,,,,,,,,,,,,,,,,,,,,,,,,,,,,,,,,,,,,,,,,,
,,,,,,60e163c124453a6eff550552,62bbfb57ab427b48f9822fdb,2022-06-29_09h13.18.268,Colour_Asymmetry_Pilot,2022.1.3,Win32,60.21194605,62bbe60bf3d75ef465d3e404,0,25,25,49,1,onethree,,,,,,,,,,,,,,,,,,,,,,,,,,,,,,,,,,,,,,,,,,,,,,,,,,,,,,,,,,,,,,,,,,,,,,,,,,,,,,,,,,,,,,,,,,,,,,,,,,,,,,,,,,,,,,,,,,,,,,,,,,,,,,,,,,,,,,,,,,,,,,,,,,,,,,,,
,,,,,,60e163c124453a6eff550552,62bbfb57ab427b48f9822fdb,2022-06-29_09h13.18.268,Colour_Asymmetry_Pilot,2022.1.3,Win32,60.21194605,62bbe60bf3d75ef465d3e404,0,26,26,11,1,twofour,,,,,,,,,,,,,,,,,,,,,,,,,,,,,,,,,,,,,,,,,,,,,,,,,,,,,,,,,,,,,,,,,,,,,,,,,,,,,,,,,,,,,,,,,,,,,,,,,,,,,,,,,,,,,,,,,,,,,,,,,,,,,,,,,,,,,,,,,,,,,,,,,,,,,,,,
,,,,,,60e163c124453a6eff550552,62bbfb57ab427b48f9822fdb,2022-06-29_09h13.18.268,Colour_Asymmetry_Pilot,2022.1.3,Win32,60.21194605,62bbe60bf3d75ef465d3e404,0,27,27,7,1,fourthree,,,,,,,,,,,,,,,,,,,,,,,,,,,,,,,,,,,,,,,,,,,,,,,,,,,,,,,,,,,,,,,,,,,,,,,,,,,,,,,,,,,,,,,,,,,,,,,,,,,,,,,,,,,,,,,,,,,,,,,,,,,,,,,,,,,,,,,,,,,,,,,,,,,,,,,,
,,,,,,60e163c124453a6eff550552,62bbfb57ab427b48f9822fdb,2022-06-29_09h13.18.268,Colour_Asymmetry_Pilot,2022.1.3,Win32,60.21194605,62bbe60bf3d75ef465d3e404,0,28,28,100,1,threeone,,,,,,,,,,,,,,,,,,,,,,,,,,,,,,,,,,,,,,,,,,,,,,,,,,,,,,,,,,,,,,,,,,,,,,,,,,,,,,,,,,,,,,,,,,,,,,,,,,,,,,,,,,,,,,,,,,,,,,,,,,,,,,,,,,,,,,,,,,,,,,,,,,,,,,,,
,,,,,,60e163c124453a6eff550552,62bbfb57ab427b48f9822fdb,2022-06-29_09h13.18.268,Colour_Asymmetry_Pilot,2022.1.3,Win32,60.21194605,62bbe60bf3d75ef465d3e404,0,29,29,48,1,onetwo,,,,,,,,,,,,,,,,,,,,,,,,,,,,,,,,,,,,,,,,,,,,,,,,,,,,,,,,,,,,,,,,,,,,,,,,,,,,,,,,,,,,,,,,,,,,,,,,,,,,,,,,,,,,,,,,,,,,,,,,,,,,,,,,,,,,,,,,,,,,,,,,,,,,,,,,
,,,,,,60e163c124453a6eff550552,62bbfb57ab427b48f9822fdb,2022-06-29_09h13.18.268,Colour_Asymmetry_Pilot,2022.1.3,Win32,60.21194605,62bbe60bf3d75ef465d3e404,0,30,30,6,1,fourtwo,,,,,,,,,,,,,,,,,,,,,,,,,,,,,,,,,,,,,,,,,,,,,,,,,,,,,,,,,,,,,,,,,,,,,,,,,,,,,,,,,,,,,,,,,,,,,,,,,,,,,,,,,,,,,,,,,,,,,,,,,,,,,,,,,,,,,,,,,,,,,,,,,,,,,,,,
,,,,,,60e163c124453a6eff550552,62bbfb57ab427b48f9822fdb,2022-06-29_09h13.18.268,Colour_Asymmetry_Pilot,2022.1.3,Win32,60.21194605,62bbe60bf3d75ef465d3e404,0,31,31,153,1,onethree,,,,,,,,,,,,,,,,,,,,,,,,,,,,,,,,,,,,,,,,,,,,,,,,,,,,,,,,,,,,,,,,,,,,,,,,,,,,,,,,,,,,,,,,,,,,,,,,,,,,,,,,,,,,,,,,,,,,,,,,,,,,,,,,,,,,,,,,,,,,,,,,,,,,,,,,
,,,,,,60e163c124453a6eff550552,62bbfb57ab427b48f9822fdb,2022-06-29_09h13.18.268,Colour_Asymmetry_Pilot,2022.1.3,Win32,60.21194605,62bbe60bf3d75ef465d3e404,0,32,32,101,1,threefour,,,,,,,,,,,,,,,,,,,,,,,,,,,,,,,,,,,,,,,,,,,,,,,,,,,,,,,,,,,,,,,,,,,,,,,,,,,,,,,,,,,,,,,,,,,,,,,,,,,,,,,,,,,,,,,,,,,,,,,,,,,,,,,,,,,,,,,,,,,,,,,,,,,,,,,,
,,,,,,60e163c124453a6eff550552,62bbfb57ab427b48f9822fdb,2022-06-29_09h13.18.268,Colour_Asymmetry_Pilot,2022.1.3,Win32,60.21194605,62bbe60bf3d75ef465d3e404,0,33,33,4,1,threeone,,,,,,,,,,,,,,,,,,,,,,,,,,,,,,,,,,,,,,,,,,,,,,,,,,,,,,,,,,,,,,,,,,,,,,,,,,,,,,,,,,,,,,,,,,,,,,,,,,,,,,,,,,,,,,,,,,,,,,,,,,,,,,,,,,,,,,,,,,,,,,,,,,,,,,,,
,,,,,,60e163c124453a6eff550552,62bbfb57ab427b48f9822fdb,2022-06-29_09h13.18.268,Colour_Asymmetry_Pilot,2022.1.3,Win32,60.21194605,62bbe60bf3d75ef465d3e404,0,34,34,99,1,twofour,,,,,,,,,,,,,,,,,,,,,,,,,,,,,,,,,,,,,,,,,,,,,,,,,,,,,,,,,,,,,,,,,,,,,,,,,,,,,,,,,,,,,,,,,,,,,,,,,,,,,,,,,,,,,,,,,,,,,,,,,,,,,,,,,,,,,,,,,,,,,,,,,,,,,,,,
,,,,,,60e163c124453a6eff550552,62bbfb57ab427b48f9822fdb,2022-06-29_09h13.18.268,Colour_Asymmetry_Pilot,2022.1.3,Win32,60.21194605,62bbe60bf3d75ef465d3e404,0,35,35,70,1,fourtwo,,,,,,,,,,,,,,,,,,,,,,,,,,,,,,,,,,,,,,,,,,,,,,,,,,,,,,,,,,,,,,,,,,,,,,,,,,,,,,,,,,,,,,,,,,,,,,,,,,,,,,,,,,,,,,,,,,,,,,,,,,,,,,,,,,,,,,,,,,,,,,,,,,,,,,,,
,,,,,,60e163c124453a6eff550552,62bbfb57ab427b48f9822fdb,2022-06-29_09h13.18.268,Colour_Asymmetry_Pilot,2022.1.3,Win32,60.21194605,62bbe60bf3d75ef465d3e404,0,36,36,133,1,threefour,,,,,,,,,,,,,,,,,,,,,,,,,,,,,,,,,,,,,,,,,,,,,,,,,,,,,,,,,,,,,,,,,,,,,,,,,,,,,,,,,,,,,,,,,,,,,,,,,,,,,,,,,,,,,,,,,,,,,,,,,,,,,,,,,,,,,,,,,,,,,,,,,,,,,,,,
,,,,,,60e163c124453a6eff550552,62bbfb57ab427b48f9822fdb,2022-06-29_09h13.18.268,Colour_Asymmetry_Pilot,2022.1.3,Win32,60.21194605,62bbe60bf3d75ef465d3e404,0,37,37,55,1,fourthree,,,,,,,,,,,,,,,,,,,,,,,,,,,,,,,,,,,,,,,,,,,,,,,,,,,,,,,,,,,,,,,,,,,,,,,,,,,,,,,,,,,,,,,,,,,,,,,,,,,,,,,,,,,,,,,,,,,,,,,,,,,,,,,,,,,,,,,,,,,,,,,,,,,,,,,,
,,,,,,60e163c124453a6eff550552,62bbfb57ab427b48f9822fdb,2022-06-29_09h13.18.268,Colour_Asymmetry_Pilot,2022.1.3,Win32,60.21194605,62bbe60bf3d75ef465d3e404,0,38,38,64,1,onetwo,,,,,,,,,,,,,,,,,,,,,,,,,,,,,,,,,,,,,,,,,,,,,,,,,,,,,,,,,,,,,,,,,,,,,,,,,,,,,,,,,,,,,,,,,,,,,,,,,,,,,,,,,,,,,,,,,,,,,,,,,,,,,,,,,,,,,,,,,,,,,,,,,,,,,,,,
,,,,,,60e163c124453a6eff550552,62bbfb57ab427b48f9822fdb,2022-06-29_09h13.18.268,Colour_Asymmetry_Pilot,2022.1.3,Win32,60.21194605,62bbe60bf3d75ef465d3e404,0,39,39,140,1,threeone,,,,,,,,,,,,,,,,,,,,,,,,,,,,,,,,,,,,,,,,,,,,,,,,,,,,,,,,,,,,,,,,,,,,,,,,,,,,,,,,,,,,,,,,,,,,,,,,,,,,,,,,,,,,,,,,,,,,,,,,,,,,,,,,,,,,,,,,,,,,,,,,,,,,,,,,
,,,,,,60e163c124453a6eff550552,62bbfb57ab427b48f9822fdb,2022-06-29_09h13.18.268,Colour_Asymmetry_Pilot,2022.1.3,Win32,60.21194605,62bbe60bf3d75ef465d3e404,0,40,40,77,1,threefour,,,,,,,,,,,,,,,,,,,,,,,,,,,,,,,,,,,,,,,,,,,,,,,,,,,,,,,,,,,,,,,,,,,,,,,,,,,,,,,,,,,,,,,,,,,,,,,,,,,,,,,,,,,,,,,,,,,,,,,,,,,,,,,,,,,,,,,,,,,,,,,,,,,,,,,,
,,,,,,60e163c124453a6eff550552,62bbfb57ab427b48f9822fdb,2022-06-29_09h13.18.268,Colour_Asymmetry_Pilot,2022.1.3,Win32,60.21194605,62bbe60bf3d75ef465d3e404,0,41,41,90,1,twoone,,,,,,,,,,,,,,,,,,,,,,,,,,,,,,,,,,,,,,,,,,,,,,,,,,,,,,,,,,,,,,,,,,,,,,,,,,,,,,,,,,,,,,,,,,,,,,,,,,,,,,,,,,,,,,,,,,,,,,,,,,,,,,,,,,,,,,,,,,,,,,,,,,,,,,,,
,,,,,,60e163c124453a6eff550552,62bbfb57ab427b48f9822fdb,2022-06-29_09h13.18.268,Colour_Asymmetry_Pilot,2022.1.3,Win32,60.21194605,62bbe60bf3d75ef465d3e404,0,42,42,56,1,onetwo,,,,,,,,,,,,,,,,,,,,,,,,,,,,,,,,,,,,,,,,,,,,,,,,,,,,,,,,,,,,,,,,,,,,,,,,,,,,,,,,,,,,,,,,,,,,,,,,,,,,,,,,,,,,,,,,,,,,,,,,,,,,,,,,,,,,,,,,,,,,,,,,,,,,,,,,
,,,,,,60e163c124453a6eff550552,62bbfb57ab427b48f9822fdb,2022-06-29_09h13.18.268,Colour_Asymmetry_Pilot,2022.1.3,Win32,60.21194605,62bbe60bf3d75ef465d3e404,0,43,43,145,1,onethree,,,,,,,,,,,,,,,,,,,,,,,,,,,,,,,,,,,,,,,,,,,,,,,,,,,,,,,,,,,,,,,,,,,,,,,,,,,,,,,,,,,,,,,,,,,,,,,,,,,,,,,,,,,,,,,,,,,,,,,,,,,,,,,,,,,,,,,,,,,,,,,,,,,,,,,,
,,,,,,60e163c124453a6eff550552,62bbfb57ab427b48f9822fdb,2022-06-29_09h13.18.268,Colour_Asymmetry_Pilot,2022.1.3,Win32,60.21194605,62bbe60bf3d75ef465d3e404,0,44,44,97,1,onethree,,,,,,,,,,,,,,,,,,,,,,,,,,,,,,,,,,,,,,,,,,,,,,,,,,,,,,,,,,,,,,,,,,,,,,,,,,,,,,,,,,,,,,,,,,,,,,,,,,,,,,,,,,,,,,,,,,,,,,,,,,,,,,,,,,,,,,,,,,,,,,,,,,,,,,,,
,,,,,,60e163c124453a6eff550552,62bbfb57ab427b48f9822fdb,2022-06-29_09h13.18.268,Colour_Asymmetry_Pilot,2022.1.3,Win32,60.21194605,62bbe60bf3d75ef465d3e404,0,45,45,44,1,threeone,,,,,,,,,,,,,,,,,,,,,,,,,,,,,,,,,,,,,,,,,,,,,,,,,,,,,,,,,,,,,,,,,,,,,,,,,,,,,,,,,,,,,,,,,,,,,,,,,,,,,,,,,,,,,,,,,,,,,,,,,,,,,,,,,,,,,,,,,,,,,,,,,,,,,,,,
,,,,,,60e163c124453a6eff550552,62bbfb57ab427b48f9822fdb,2022-06-29_09h13.18.268,Colour_Asymmetry_Pilot,2022.1.3,Win32,60.21194605,62bbe60bf3d75ef465d3e404,0,46,46,54,1,fourtwo,,,,,,,,,,,,,,,,,,,,,,,,,,,,,,,,,,,,,,,,,,,,,,,,,,,,,,,,,,,,,,,,,,,,,,,,,,,,,,,,,,,,,,,,,,,,,,,,,,,,,,,,,,,,,,,,,,,,,,,,,,,,,,,,,,,,,,,,,,,,,,,,,,,,,,,,
,,,,,,60e163c124453a6eff550552,62bbfb57ab427b48f9822fdb,2022-06-29_09h13.18.268,Colour_Asymmetry_Pilot,2022.1.3,Win32,60.21194605,62bbe60bf3d75ef465d3e404,0,47,47,157,1,threefour,,,,,,,,,,,,,,,,,,,,,,,,,,,,,,,,,,,,,,,,,,,,,,,,,,,,,,,,,,,,,,,,,,,,,,,,,,,,,,,,,,,,,,,,,,,,,,,,,,,,,,,,,,,,,,,,,,,,,,,,,,,,,,,,,,,,,,,,,,,,,,,,,,,,,,,,
,,,,,,60e163c124453a6eff550552,62bbfb57ab427b48f9822fdb,2022-06-29_09h13.18.268,Colour_Asymmetry_Pilot,2022.1.3,Win32,60.21194605,62bbe60bf3d75ef465d3e404,0,48,48,147,1,twofour,,,,,,,,,,,,,,,,,,,,,,,,,,,,,,,,,,,,,,,,,,,,,,,,,,,,,,,,,,,,,,,,,,,,,,,,,,,,,,,,,,,,,,,,,,,,,,,,,,,,,,,,,,,,,,,,,,,,,,,,,,,,,,,,,,,,,,,,,,,,,,,,,,,,,,,,
,,,,,,60e163c124453a6eff550552,62bbfb57ab427b48f9822fdb,2022-06-29_09h13.18.268,Colour_Asymmetry_Pilot,2022.1.3,Win32,60.21194605,62bbe60bf3d75ef465d3e404,0,49,49,156,1,threeone,,,,,,,,,,,,,,,,,,,,,,,,,,,,,,,,,,,,,,,,,,,,,,,,,,,,,,,,,,,,,,,,,,,,,,,,,,,,,,,,,,,,,,,,,,,,,,,,,,,,,,,,,,,,,,,,,,,,,,,,,,,,,,,,,,,,,,,,,,,,,,,,,,,,,,,,
,,,,,,60e163c124453a6eff550552,62bbfb57ab427b48f9822fdb,2022-06-29_09h13.18.268,Colour_Asymmetry_Pilot,2022.1.3,Win32,60.21194605,62bbe60bf3d75ef465d3e404,0,50,50,62,1,fourtwo,,,,,,,,,,,,,,,,,,,,,,,,,,,,,,,,,,,,,,,,,,,,,,,,,,,,,,,,,,,,,,,,,,,,,,,,,,,,,,,,,,,,,,,,,,,,,,,,,,,,,,,,,,,,,,,,,,,,,,,,,,,,,,,,,,,,,,,,,,,,,,,,,,,,,,,,
,,,,,,60e163c124453a6eff550552,62bbfb57ab427b48f9822fdb,2022-06-29_09h13.18.268,Colour_Asymmetry_Pilot,2022.1.3,Win32,60.21194605,62bbe60bf3d75ef465d3e404,0,51,51,129,1,onethree,,,,,,,,,,,,,,,,,,,,,,,,,,,,,,,,,,,,,,,,,,,,,,,,,,,,,,,,,,,,,,,,,,,,,,,,,,,,,,,,,,,,,,,,,,,,,,,,,,,,,,,,,,,,,,,,,,,,,,,,,,,,,,,,,,,,,,,,,,,,,,,,,,,,,,,,
,,,,,,60e163c124453a6eff550552,62bbfb57ab427b48f9822fdb,2022-06-29_09h13.18.268,Colour_Asymmetry_Pilot,2022.1.3,Win32,60.21194605,62bbe60bf3d75ef465d3e404,0,52,52,30,1,fourtwo,,,,,,,,,,,,,,,,,,,,,,,,,,,,,,,,,,,,,,,,,,,,,,,,,,,,,,,,,,,,,,,,,,,,,,,,,,,,,,,,,,,,,,,,,,,,,,,,,,,,,,,,,,,,,,,,,,,,,,,,,,,,,,,,,,,,,,,,,,,,,,,,,,,,,,,,
,,,,,,60e163c124453a6eff550552,62bbfb57ab427b48f9822fdb,2022-06-29_09h13.18.268,Colour_Asymmetry_Pilot,2022.1.3,Win32,60.21194605,62bbe60bf3d75ef465d3e404,0,53,53,25,1,onethree,,,,,,,,,,,,,,,,,,,,,,,,,,,,,,,,,,,,,,,,,,,,,,,,,,,,,,,,,,,,,,,,,,,,,,,,,,,,,,,,,,,,,,,,,,,,,,,,,,,,,,,,,,,,,,,,,,,,,,,,,,,,,,,,,,,,,,,,,,,,,,,,,,,,,,,,
,,,,,,60e163c124453a6eff550552,62bbfb57ab427b48f9822fdb,2022-06-29_09h13.18.268,Colour_Asymmetry_Pilot,2022.1.3,Win32,60.21194605,62bbe60bf3d75ef465d3e404,0,54,54,94,1,fourtwo,,,,,,,,,,,,,,,,,,,,,,,,,,,,,,,,,,,,,,,,,,,,,,,,,,,,,,,,,,,,,,,,,,,,,,,,,,,,,,,,,,,,,,,,,,,,,,,,,,,,,,,,,,,,,,,,,,,,,,,,,,,,,,,,,,,,,,,,,,,,,,,,,,,,,,,,
,,,,,,60e163c124453a6eff550552,62bbfb57ab427b48f9822fdb,2022-06-29_09h13.18.268,Colour_Asymmetry_Pilot,2022.1.3,Win32,60.21194605,62bbe60bf3d75ef465d3e404,0,55,55,72,1,onetwo,,,,,,,,,,,,,,,,,,,,,,,,,,,,,,,,,,,,,,,,,,,,,,,,,,,,,,,,,,,,,,,,,,,,,,,,,,,,,,,,,,,,,,,,,,,,,,,,,,,,,,,,,,,,,,,,,,,,,,,,,,,,,,,,,,,,,,,,,,,,,,,,,,,,,,,,
,,,,,,60e163c124453a6eff550552,62bbfb57ab427b48f9822fdb,2022-06-29_09h13.18.268,Colour_Asymmetry_Pilot,2022.1.3,Win32,60.21194605,62bbe60bf3d75ef465d3e404,0,56,56,122,1,twoone,,,,,,,,,,,,,,,,,,,,,,,,,,,,,,,,,,,,,,,,,,,,,,,,,,,,,,,,,,,,,,,,,,,,,,,,,,,,,,,,,,,,,,,,,,,,,,,,,,,,,,,,,,,,,,,,,,,,,,,,,,,,,,,,,,,,,,,,,,,,,,,,,,,,,,,,
,,,,,,60e163c124453a6eff550552,62bbfb57ab427b48f9822fdb,2022-06-29_09h13.18.268,Colour_Asymmetry_Pilot,2022.1.3,Win32,60.21194605,62bbe60bf3d75ef465d3e404,0,57,57,128,1,onetwo,,,,,,,,,,,,,,,,,,,,,,,,,,,,,,,,,,,,,,,,,,,,,,,,,,,,,,,,,,,,,,,,,,,,,,,,,,,,,,,,,,,,,,,,,,,,,,,,,,,,,,,,,,,,,,,,,,,,,,,,,,,,,,,,,,,,,,,,,,,,,,,,,,,,,,,,
,,,,,,60e163c124453a6eff550552,62bbfb57ab427b48f9822fdb,2022-06-29_09h13.18.268,Colour_Asymmetry_Pilot,2022.1.3,Win32,60.21194605,62bbe60bf3d75ef465d3e404,0,58,58,130,1,twoone,,,,,,,,,,,,,,,,,,,,,,,,,,,,,,,,,,,,,,,,,,,,,,,,,,,,,,,,,,,,,,,,,,,,,,,,,,,,,,,,,,,,,,,,,,,,,,,,,,,,,,,,,,,,,,,,,,,,,,,,,,,,,,,,,,,,,,,,,,,,,,,,,,,,,,,,
,,,,,,60e163c124453a6eff550552,62bbfb57ab427b48f9822fdb,2022-06-29_09h13.18.268,Colour_Asymmetry_Pilot,2022.1.3,Win32,60.21194605,62bbe60bf3d75ef465d3e404,0,59,59,45,1,threefour,,,,,,,,,,,,,,,,,,,,,,,,,,,,,,,,,,,,,,,,,,,,,,,,,,,,,,,,,,,,,,,,,,,,,,,,,,,,,,,,,,,,,,,,,,,,,,,,,,,,,,,,,,,,,,,,,,,,,,,,,,,,,,,,,,,,,,,,,,,,,,,,,,,,,,,,
,,,,,,60e163c124453a6eff550552,62bbfb57ab427b48f9822fdb,2022-06-29_09h13.18.268,Colour_Asymmetry_Pilot,2022.1.3,Win32,60.21194605,62bbe60bf3d75ef465d3e404,0,60,60,127,1,fourthree,,,,,,,,,,,,,,,,,,,,,,,,,,,,,,,,,,,,,,,,,,,,,,,,,,,,,,,,,,,,,,,,,,,,,,,,,,,,,,,,,,,,,,,,,,,,,,,,,,,,,,,,,,,,,,,,,,,,,,,,,,,,,,,,,,,,,,,,,,,,,,,,,,,,,,,,
,,,,,,60e163c124453a6eff550552,62bbfb57ab427b48f9822fdb,2022-06-29_09h13.18.268,Colour_Asymmetry_Pilot,2022.1.3,Win32,60.21194605,62bbe60bf3d75ef465d3e404,0,61,61,84,1,threeone,,,,,,,,,,,,,,,,,,,,,,,,,,,,,,,,,,,,,,,,,,,,,,,,,,,,,,,,,,,,,,,,,,,,,,,,,,,,,,,,,,,,,,,,,,,,,,,,,,,,,,,,,,,,,,,,,,,,,,,,,,,,,,,,,,,,,,,,,,,,,,,,,,,,,,,,
,,,,,,60e163c124453a6eff550552,62bbfb57ab427b48f9822fdb,2022-06-29_09h13.18.268,Colour_Asymmetry_Pilot,2022.1.3,Win32,60.21194605,62bbe60bf3d75ef465d3e404,0,62,62,102,1,fourtwo,,,,,,,,,,,,,,,,,,,,,,,,,,,,,,,,,,,,,,,,,,,,,,,,,,,,,,,,,,,,,,,,,,,,,,,,,,,,,,,,,,,,,,,,,,,,,,,,,,,,,,,,,,,,,,,,,,,,,,,,,,,,,,,,,,,,,,,,,,,,,,,,,,,,,,,,
,,,,,,60e163c124453a6eff550552,62bbfb57ab427b48f9822fdb,2022-06-29_09h13.18.268,Colour_Asymmetry_Pilot,2022.1.3,Win32,60.21194605,62bbe60bf3d75ef465d3e404,0,63,63,108,1,threeone,,,,,,,,,,,,,,,,,,,,,,,,,,,,,,,,,,,,,,,,,,,,,,,,,,,,,,,,,,,,,,,,,,,,,,,,,,,,,,,,,,,,,,,,,,,,,,,,,,,,,,,,,,,,,,,,,,,,,,,,,,,,,,,,,,,,,,,,,,,,,,,,,,,,,,,,
,,,,,,60e163c124453a6eff550552,62bbfb57ab427b48f9822fdb,2022-06-29_09h13.18.268,Colour_Asymmetry_Pilot,2022.1.3,Win32,60.21194605,62bbe60bf3d75ef465d3e404,0,64,64,150,1,fourtwo,,,,,,,,,,,,,,,,,,,,,,,,,,,,,,,,,,,,,,,,,,,,,,,,,,,,,,,,,,,,,,,,,,,,,,,,,,,,,,,,,,,,,,,,,,,,,,,,,,,,,,,,,,,,,,,,,,,,,,,,,,,,,,,,,,,,,,,,,,,,,,,,,,,,,,,,
,,,,,,60e163c124453a6eff550552,62bbfb57ab427b48f9822fdb,2022-06-29_09h13.18.268,Colour_Asymmetry_Pilot,2022.1.3,Win32,60.21194605,62bbe60bf3d75ef465d3e404,0,65,65,26,1,twoone,,,,,,,,,,,,,,,,,,,,,,,,,,,,,,,,,,,,,,,,,,,,,,,,,,,,,,,,,,,,,,,,,,,,,,,,,,,,,,,,,,,,,,,,,,,,,,,,,,,,,,,,,,,,,,,,,,,,,,,,,,,,,,,,,,,,,,,,,,,,,,,,,,,,,,,,
,,,,,,60e163c124453a6eff550552,62bbfb57ab427b48f9822fdb,2022-06-29_09h13.18.268,Colour_Asymmetry_Pilot,2022.1.3,Win32,60.21194605,62bbe60bf3d75ef465d3e404,0,66,66,114,1,twoone,,,,,,,,,,,,,,,,,,,,,,,,,,,,,,,,,,,,,,,,,,,,,,,,,,,,,,,,,,,,,,,,,,,,,,,,,,,,,,,,,,,,,,,,,,,,,,,,,,,,,,,,,,,,,,,,,,,,,,,,,,,,,,,,,,,,,,,,,,,,,,,,,,,,,,,,
,,,,,,60e163c124453a6eff550552,62bbfb57ab427b48f9822fdb,2022-06-29_09h13.18.268,Colour_Asymmetry_Pilot,2022.1.3,Win32,60.21194605,62bbe60bf3d75ef465d3e404,0,67,67,51,1,twofour,,,,,,,,,,,,,,,,,,,,,,,,,,,,,,,,,,,,,,,,,,,,,,,,,,,,,,,,,,,,,,,,,,,,,,,,,,,,,,,,,,,,,,,,,,,,,,,,,,,,,,,,,,,,,,,,,,,,,,,,,,,,,,,,,,,,,,,,,,,,,,,,,,,,,,,,
,,,,,,60e163c124453a6eff550552,62bbfb57ab427b48f9822fdb,2022-06-29_09h13.18.268,Colour_Asymmetry_Pilot,2022.1.3,Win32,60.21194605,62bbe60bf3d75ef465d3e404,0,68,68,125,1,threefour,,,,,,,,,,,,,,,,,,,,,,,,,,,,,,,,,,,,,,,,,,,,,,,,,,,,,,,,,,,,,,,,,,,,,,,,,,,,,,,,,,,,,,,,,,,,,,,,,,,,,,,,,,,,,,,,,,,,,,,,,,,,,,,,,,,,,,,,,,,,,,,,,,,,,,,,
,,,,,,60e163c124453a6eff550552,62bbfb57ab427b48f9822fdb,2022-06-29_09h13.18.268,Colour_Asymmetry_Pilot,2022.1.3,Win32,60.21194605,62bbe60bf3d75ef465d3e404,0,69,69,124,1,threeone,,,,,,,,,,,,,,,,,,,,,,,,,,,,,,,,,,,,,,,,,,,,,,,,,,,,,,,,,,,,,,,,,,,,,,,,,,,,,,,,,,,,,,,,,,,,,,,,,,,,,,,,,,,,,,,,,,,,,,,,,,,,,,,,,,,,,,,,,,,,,,,,,,,,,,,,
,,,,,,60e163c124453a6eff550552,62bbfb57ab427b48f9822fdb,2022-06-29_09h13.18.268,Colour_Asymmetry_Pilot,2022.1.3,Win32,60.21194605,62bbe60bf3d75ef465d3e404,0,70,70,60,1,threeone,,,,,,,,,,,,,,,,,,,,,,,,,,,,,,,,,,,,,,,,,,,,,,,,,,,,,,,,,,,,,,,,,,,,,,,,,,,,,,,,,,,,,,,,,,,,,,,,,,,,,,,,,,,,,,,,,,,,,,,,,,,,,,,,,,,,,,,,,,,,,,,,,,,,,,,,
,,,,,,60e163c124453a6eff550552,62bbfb57ab427b48f9822fdb,2022-06-29_09h13.18.268,Colour_Asymmetry_Pilot,2022.1.3,Win32,60.21194605,62bbe60bf3d75ef465d3e404,0,71,71,74,1,twoone,,,,,,,,,,,,,,,,,,,,,,,,,,,,,,,,,,,,,,,,,,,,,,,,,,,,,,,,,,,,,,,,,,,,,,,,,,,,,,,,,,,,,,,,,,,,,,,,,,,,,,,,,,,,,,,,,,,,,,,,,,,,,,,,,,,,,,,,,,,,,,,,,,,,,,,,
,,,,,,60e163c124453a6eff550552,62bbfb57ab427b48f9822fdb,2022-06-29_09h13.18.268,Colour_Asymmetry_Pilot,2022.1.3,Win32,60.21194605,62bbe60bf3d75ef465d3e404,0,72,72,135,1,fourthree,,,,,,,,,,,,,,,,,,,,,,,,,,,,,,,,,,,,,,,,,,,,,,,,,,,,,,,,,,,,,,,,,,,,,,,,,,,,,,,,,,,,,,,,,,,,,,,,,,,,,,,,,,,,,,,,,,,,,,,,,,,,,,,,,,,,,,,,,,,,,,,,,,,,,,,,
,,,,,,60e163c124453a6eff550552,62bbfb57ab427b48f9822fdb,2022-06-29_09h13.18.268,Colour_Asymmetry_Pilot,2022.1.3,Win32,60.21194605,62bbe60bf3d75ef465d3e404,0,73,73,142,1,fourtwo,,,,,,,,,,,,,,,,,,,,,,,,,,,,,,,,,,,,,,,,,,,,,,,,,,,,,,,,,,,,,,,,,,,,,,,,,,,,,,,,,,,,,,,,,,,,,,,,,,,,,,,,,,,,,,,,,,,,,,,,,,,,,,,,,,,,,,,,,,,,,,,,,,,,,,,,
,,,,,,60e163c124453a6eff550552,62bbfb57ab427b48f9822fdb,2022-06-29_09h13.18.268,Colour_Asymmetry_Pilot,2022.1.3,Win32,60.21194605,62bbe60bf3d75ef465d3e404,0,74,74,28,1,threeone,,,,,,,,,,,,,,,,,,,,,,,,,,,,,,,,,,,,,,,,,,,,,,,,,,,,,,,,,,,,,,,,,,,,,,,,,,,,,,,,,,,,,,,,,,,,,,,,,,,,,,,,,,,,,,,,,,,,,,,,,,,,,,,,,,,,,,,,,,,,,,,,,,,,,,,,
,,,,,,60e163c124453a6eff550552,62bbfb57ab427b48f9822fdb,2022-06-29_09h13.18.268,Colour_Asymmetry_Pilot,2022.1.3,Win32,60.21194605,62bbe60bf3d75ef465d3e404,0,75,75,115,1,twofour,,,,,,,,,,,,,,,,,,,,,,,,,,,,,,,,,,,,,,,,,,,,,,,,,,,,,,,,,,,,,,,,,,,,,,,,,,,,,,,,,,,,,,,,,,,,,,,,,,,,,,,,,,,,,,,,,,,,,,,,,,,,,,,,,,,,,,,,,,,,,,,,,,,,,,,,
,,,,,,60e163c124453a6eff550552,62bbfb57ab427b48f9822fdb,2022-06-29_09h13.18.268,Colour_Asymmetry_Pilot,2022.1.3,Win32,60.21194605,62bbe60bf3d75ef465d3e404,0,76,76,50,1,twoone,,,,,,,,,,,,,,,,,,,,,,,,,,,,,,,,,,,,,,,,,,,,,,,,,,,,,,,,,,,,,,,,,,,,,,,,,,,,,,,,,,,,,,,,,,,,,,,,,,,,,,,,,,,,,,,,,,,,,,,,,,,,,,,,,,,,,,,,,,,,,,,,,,,,,,,,
,,,,,,60e163c124453a6eff550552,62bbfb57ab427b48f9822fdb,2022-06-29_09h13.18.268,Colour_Asymmetry_Pilot,2022.1.3,Win32,60.21194605,62bbe60bf3d75ef465d3e404,0,77,77,92,1,threeone,,,,,,,,,,,,,,,,,,,,,,,,,,,,,,,,,,,,,,,,,,,,,,,,,,,,,,,,,,,,,,,,,,,,,,,,,,,,,,,,,,,,,,,,,,,,,,,,,,,,,,,,,,,,,,,,,,,,,,,,,,,,,,,,,,,,,,,,,,,,,,,,,,,,,,,,
,,,,,,60e163c124453a6eff550552,62bbfb57ab427b48f9822fdb,2022-06-29_09h13.18.268,Colour_Asymmetry_Pilot,2022.1.3,Win32,60.21194605,62bbe60bf3d75ef465d3e404,0,78,78,138,1,twoone,,,,,,,,,,,,,,,,,,,,,,,,,,,,,,,,,,,,,,,,,,,,,,,,,,,,,,,,,,,,,,,,,,,,,,,,,,,,,,,,,,,,,,,,,,,,,,,,,,,,,,,,,,,,,,,,,,,,,,,,,,,,,,,,,,,,,,,,,,,,,,,,,,,,,,,,
,,,,,,60e163c124453a6eff550552,62bbfb57ab427b48f9822fdb,2022-06-29_09h13.18.268,Colour_Asymmetry_Pilot,2022.1.3,Win32,60.21194605,62bbe60bf3d75ef465d3e404,0,79,79,20,1,threeone,,,,,,,,,,,,,,,,,,,,,,,,,,,,,,,,,,,,,,,,,,,,,,,,,,,,,,,,,,,,,,,,,,,,,,,,,,,,,,,,,,,,,,,,,,,,,,,,,,,,,,,,,,,,,,,,,,,,,,,,,,,,,,,,,,,,,,,,,,,,,,,,,,,,,,,,
,,,,,,60e163c124453a6eff550552,62bbfb57ab427b48f9822fdb,2022-06-29_09h13.18.268,Colour_Asymmetry_Pilot,2022.1.3,Win32,60.21194605,62bbe60bf3d75ef465d3e404,0,80,80,113,1,onethree,,,,,,,,,,,,,,,,,,,,,,,,,,,,,,,,,,,,,,,,,,,,,,,,,,,,,,,,,,,,,,,,,,,,,,,,,,,,,,,,,,,,,,,,,,,,,,,,,,,,,,,,,,,,,,,,,,,,,,,,,,,,,,,,,,,,,,,,,,,,,,,,,,,,,,,,
,,,,,,60e163c124453a6eff550552,62bbfb57ab427b48f9822fdb,2022-06-29_09h13.18.268,Colour_Asymmetry_Pilot,2022.1.3,Win32,60.21194605,62bbe60bf3d75ef465d3e404,0,81,81,15,1,fourthree,,,,,,,,,,,,,,,,,,,,,,,,,,,,,,,,,,,,,,,,,,,,,,,,,,,,,,,,,,,,,,,,,,,,,,,,,,,,,,,,,,,,,,,,,,,,,,,,,,,,,,,,,,,,,,,,,,,,,,,,,,,,,,,,,,,,,,,,,,,,,,,,,,,,,,,,
,,,,,,60e163c124453a6eff550552,62bbfb57ab427b48f9822fdb,2022-06-29_09h13.18.268,Colour_Asymmetry_Pilot,2022.1.3,Win32,60.21194605,62bbe60bf3d75ef465d3e404,0,82,82,79,1,fourthree,,,,,,,,,,,,,,,,,,,,,,,,,,,,,,,,,,,,,,,,,,,,,,,,,,,,,,,,,,,,,,,,,,,,,,,,,,,,,,,,,,,,,,,,,,,,,,,,,,,,,,,,,,,,,,,,,,,,,,,,,,,,,,,,,,,,,,,,,,,,,,,,,,,,,,,,
,,,,,,60e163c124453a6eff550552,62bbfb57ab427b48f9822fdb,2022-06-29_09h13.18.268,Colour_Asymmetry_Pilot,2022.1.3,Win32,60.21194605,62bbe60bf3d75ef465d3e404,0,83,83,141,1,threefour,,,,,,,,,,,,,,,,,,,,,,,,,,,,,,,,,,,,,,,,,,,,,,,,,,,,,,,,,,,,,,,,,,,,,,,,,,,,,,,,,,,,,,,,,,,,,,,,,,,,,,,,,,,,,,,,,,,,,,,,,,,,,,,,,,,,,,,,,,,,,,,,,,,,,,,,
,,,,,,60e163c124453a6eff550552,62bbfb57ab427b48f9822fdb,2022-06-29_09h13.18.268,Colour_Asymmetry_Pilot,2022.1.3,Win32,60.21194605,62bbe60bf3d75ef465d3e404,0,84,84,143,1,fourthree,,,,,,,,,,,,,,,,,,,,,,,,,,,,,,,,,,,,,,,,,,,,,,,,,,,,,,,,,,,,,,,,,,,,,,,,,,,,,,,,,,,,,,,,,,,,,,,,,,,,,,,,,,,,,,,,,,,,,,,,,,,,,,,,,,,,,,,,,,,,,,,,,,,,,,,,
,,,,,,60e163c124453a6eff550552,62bbfb57ab427b48f9822fdb,2022-06-29_09h13.18.268,Colour_Asymmetry_Pilot,2022.1.3,Win32,60.21194605,62bbe60bf3d75ef465d3e404,0,85,85,137,1,onethree,,,,,,,,,,,,,,,,,,,,,,,,,,,,,,,,,,,,,,,,,,,,,,,,,,,,,,,,,,,,,,,,,,,,,,,,,,,,,,,,,,,,,,,,,,,,,,,,,,,,,,,,,,,,,,,,,,,,,,,,,,,,,,,,,,,,,,,,,,,,,,,,,,,,,,,,
,,,,,,60e163c124453a6eff550552,62bbfb57ab427b48f9822fdb,2022-06-29_09h13.18.268,Colour_Asymmetry_Pilot,2022.1.3,Win32,60.21194605,62bbe60bf3d75ef465d3e404,0,86,86,86,1,fourtwo,,,,,,,,,,,,,,,,,,,,,,,,,,,,,,,,,,,,,,,,,,,,,,,,,,,,,,,,,,,,,,,,,,,,,,,,,,,,,,,,,,,,,,,,,,,,,,,,,,,,,,,,,,,,,,,,,,,,,,,,,,,,,,,,,,,,,,,,,,,,,,,,,,,,,,,,
,,,,,,60e163c124453a6eff550552,62bbfb57ab427b48f9822fdb,2022-06-29_09h13.18.268,Colour_Asymmetry_Pilot,2022.1.3,Win32,60.21194605,62bbe60bf3d75ef465d3e404,0,87,87,111,1,fourthree,,,,,,,,,,,,,,,,,,,,,,,,,,,,,,,,,,,,,,,,,,,,,,,,,,,,,,,,,,,,,,,,,,,,,,,,,,,,,,,,,,,,,,,,,,,,,,,,,,,,,,,,,,,,,,,,,,,,,,,,,,,,,,,,,,,,,,,,,,,,,,,,,,,,,,,,
,,,,,,60e163c124453a6eff550552,62bbfb57ab427b48f9822fdb,2022-06-29_09h13.18.268,Colour_Asymmetry_Pilot,2022.1.3,Win32,60.21194605,62bbe60bf3d75ef465d3e404,0,88,88,103,1,fourthree,,,,,,,,,,,,,,,,,,,,,,,,,,,,,,,,,,,,,,,,,,,,,,,,,,,,,,,,,,,,,,,,,,,,,,,,,,,,,,,,,,,,,,,,,,,,,,,,,,,,,,,,,,,,,,,,,,,,,,,,,,,,,,,,,,,,,,,,,,,,,,,,,,,,,,,,
,,,,,,60e163c124453a6eff550552,62bbfb57ab427b48f9822fdb,2022-06-29_09h13.18.268,Colour_Asymmetry_Pilot,2022.1.3,Win32,60.21194605,62bbe60bf3d75ef465d3e404,0,89,89,9,1,onethree,,,,,,,,,,,,,,,,,,,,,,,,,,,,,,,,,,,,,,,,,,,,,,,,,,,,,,,,,,,,,,,,,,,,,,,,,,,,,,,,,,,,,,,,,,,,,,,,,,,,,,,,,,,,,,,,,,,,,,,,,,,,,,,,,,,,,,,,,,,,,,,,,,,,,,,,
,,,,,,60e163c124453a6eff550552,62bbfb57ab427b48f9822fdb,2022-06-29_09h13.18.268,Colour_Asymmetry_Pilot,2022.1.3,Win32,60.21194605,62bbe60bf3d75ef465d3e404,0,90,90,14,1,fourtwo,,,,,,,,,,,,,,,,,,,,,,,,,,,,,,,,,,,,,,,,,,,,,,,,,,,,,,,,,,,,,,,,,,,,,,,,,,,,,,,,,,,,,,,,,,,,,,,,,,,,,,,,,,,,,,,,,,,,,,,,,,,,,,,,,,,,,,,,,,,,,,,,,,,,,,,,
,,,,,,60e163c124453a6eff550552,62bbfb57ab427b48f9822fdb,2022-06-29_09h13.18.268,Colour_Asymmetry_Pilot,2022.1.3,Win32,60.21194605,62bbe60bf3d75ef465d3e404,0,91,91,112,1,onetwo,,,,,,,,,,,,,,,,,,,,,,,,,,,,,,,,,,,,,,,,,,,,,,,,,,,,,,,,,,,,,,,,,,,,,,,,,,,,,,,,,,,,,,,,,,,,,,,,,,,,,,,,,,,,,,,,,,,,,,,,,,,,,,,,,,,,,,,,,,,,,,,,,,,,,,,,
,,,,,,60e163c124453a6eff550552,62bbfb57ab427b48f9822fdb,2022-06-29_09h13.18.268,Colour_Asymmetry_Pilot,2022.1.3,Win32,60.21194605,62bbe60bf3d75ef465d3e404,0,92,92,93,1,threefour,,,,,,,,,,,,,,,,,,,,,,,,,,,,,,,,,,,,,,,,,,,,,,,,,,,,,,,,,,,,,,,,,,,,,,,,,,,,,,,,,,,,,,,,,,,,,,,,,,,,,,,,,,,,,,,,,,,,,,,,,,,,,,,,,,,,,,,,,,,,,,,,,,,,,,,,
,,,,,,60e163c124453a6eff550552,62bbfb57ab427b48f9822fdb,2022-06-29_09h13.18.268,Colour_Asymmetry_Pilot,2022.1.3,Win32,60.21194605,62bbe60bf3d75ef465d3e404,0,93,93,83,1,twofour,,,,,,,,,,,,,,,,,,,,,,,,,,,,,,,,,,,,,,,,,,,,,,,,,,,,,,,,,,,,,,,,,,,,,,,,,,,,,,,,,,,,,,,,,,,,,,,,,,,,,,,,,,,,,,,,,,,,,,,,,,,,,,,,,,,,,,,,,,,,,,,,,,,,,,,,
,,,,,,60e163c124453a6eff550552,62bbfb57ab427b48f9822fdb,2022-06-29_09h13.18.268,Colour_Asymmetry_Pilot,2022.1.3,Win32,60.21194605,62bbe60bf3d75ef465d3e404,0,94,94,73,1,onethree,,,,,,,,,,,,,,,,,,,,,,,,,,,,,,,,,,,,,,,,,,,,,,,,,,,,,,,,,,,,,,,,,,,,,,,,,,,,,,,,,,,,,,,,,,,,,,,,,,,,,,,,,,,,,,,,,,,,,,,,,,,,,,,,,,,,,,,,,,,,,,,,,,,,,,,,
,,,,,,60e163c124453a6eff550552,62bbfb57ab427b48f9822fdb,2022-06-29_09h13.18.268,Colour_Asymmetry_Pilot,2022.1.3,Win32,60.21194605,62bbe60bf3d75ef465d3e404,0,95,95,32,1,onetwo,,,,,,,,,,,,,,,,,,,,,,,,,,,,,,,,,,,,,,,,,,,,,,,,,,,,,,,,,,,,,,,,,,,,,,,,,,,,,,,,,,,,,,,,,,,,,,,,,,,,,,,,,,,,,,,,,,,,,,,,,,,,,,,,,,,,,,,,,,,,,,,,,,,,,,,,
,,,,,,60e163c124453a6eff550552,62bbfb57ab427b48f9822fdb,2022-06-29_09h13.18.268,Colour_Asymmetry_Pilot,2022.1.3,Win32,60.21194605,62bbe60bf3d75ef465d3e404,0,96,96,53,1,threefour,,,,,,,,,,,,,,,,,,,,,,,,,,,,,,,,,,,,,,,,,,,,,,,,,,,,,,,,,,,,,,,,,,,,,,,,,,,,,,,,,,,,,,,,,,,,,,,,,,,,,,,,,,,,,,,,,,,,,,,,,,,,,,,,,,,,,,,,,,,,,,,,,,,,,,,,
,,,,,,60e163c124453a6eff550552,62bbfb57ab427b48f9822fdb,2022-06-29_09h13.18.268,Colour_Asymmetry_Pilot,2022.1.3,Win32,60.21194605,62bbe60bf3d75ef465d3e404,0,97,97,10,1,twoone,,,,,,,,,,,,,,,,,,,,,,,,,,,,,,,,,,,,,,,,,,,,,,,,,,,,,,,,,,,,,,,,,,,,,,,,,,,,,,,,,,,,,,,,,,,,,,,,,,,,,,,,,,,,,,,,,,,,,,,,,,,,,,,,,,,,,,,,,,,,,,,,,,,,,,,,
,,,,,,60e163c124453a6eff550552,62bbfb57ab427b48f9822fdb,2022-06-29_09h13.18.268,Colour_Asymmetry_Pilot,2022.1.3,Win32,60.21194605,62bbe60bf3d75ef465d3e404,0,98,98,136,1,onetwo,,,,,,,,,,,,,,,,,,,,,,,,,,,,,,,,,,,,,,,,,,,,,,,,,,,,,,,,,,,,,,,,,,,,,,,,,,,,,,,,,,,,,,,,,,,,,,,,,,,,,,,,,,,,,,,,,,,,,,,,,,,,,,,,,,,,,,,,,,,,,,,,,,,,,,,,
,,,,,,60e163c124453a6eff550552,62bbfb57ab427b48f9822fdb,2022-06-29_09h13.18.268,Colour_Asymmetry_Pilot,2022.1.3,Win32,60.21194605,62bbe60bf3d75ef465d3e404,0,99,99,29,1,threefour,,,,,,,,,,,,,,,,,,,,,,,,,,,,,,,,,,,,,,,,,,,,,,,,,,,,,,,,,,,,,,,,,,,,,,,,,,,,,,,,,,,,,,,,,,,,,,,,,,,,,,,,,,,,,,,,,,,,,,,,,,,,,,,,,,,,,,,,,,,,,,,,,,,,,,,,
,,,,,,60e163c124453a6eff550552,62bbfb57ab427b48f9822fdb,2022-06-29_09h13.18.268,Colour_Asymmetry_Pilot,2022.1.3,Win32,60.21194605,62bbe60bf3d75ef465d3e404,0,100,100,41,1,onethree,,,,,,,,,,,,,,,,,,,,,,,,,,,,,,,,,,,,,,,,,,,,,,,,,,,,,,,,,,,,,,,,,,,,,,,,,,,,,,,,,,,,,,,,,,,,,,,,,,,,,,,,,,,,,,,,,,,,,,,,,,,,,,,,,,,,,,,,,,,,,,,,,,,,,,,,
,,,,,,60e163c124453a6eff550552,62bbfb57ab427b48f9822fdb,2022-06-29_09h13.18.268,Colour_Asymmetry_Pilot,2022.1.3,Win32,60.21194605,62bbe60bf3d75ef465d3e404,0,101,101,3,1,twofour,,,,,,,,,,,,,,,,,,,,,,,,,,,,,,,,,,,,,,,,,,,,,,,,,,,,,,,,,,,,,,,,,,,,,,,,,,,,,,,,,,,,,,,,,,,,,,,,,,,,,,,,,,,,,,,,,,,,,,,,,,,,,,,,,,,,,,,,,,,,,,,,,,,,,,,,
,,,,,,60e163c124453a6eff550552,62bbfb57ab427b48f9822fdb,2022-06-29_09h13.18.268,Colour_Asymmetry_Pilot,2022.1.3,Win32,60.21194605,62bbe60bf3d75ef465d3e404,0,102,102,35,1,twofour,,,,,,,,,,,,,,,,,,,,,,,,,,,,,,,,,,,,,,,,,,,,,,,,,,,,,,,,,,,,,,,,,,,,,,,,,,,,,,,,,,,,,,,,,,,,,,,,,,,,,,,,,,,,,,,,,,,,,,,,,,,,,,,,,,,,,,,,,,,,,,,,,,,,,,,,
,,,,,,60e163c124453a6eff550552,62bbfb57ab427b48f9822fdb,2022-06-29_09h13.18.268,Colour_Asymmetry_Pilot,2022.1.3,Win32,60.21194605,62bbe60bf3d75ef465d3e404,0,103,103,69,1,threefour,,,,,,,,,,,,,,,,,,,,,,,,,,,,,,,,,,,,,,,,,,,,,,,,,,,,,,,,,,,,,,,,,,,,,,,,,,,,,,,,,,,,,,,,,,,,,,,,,,,,,,,,,,,,,,,,,,,,,,,,,,,,,,,,,,,,,,,,,,,,,,,,,,,,,,,,
,,,,,,60e163c124453a6eff550552,62bbfb57ab427b48f9822fdb,2022-06-29_09h13.18.268,Colour_Asymmetry_Pilot,2022.1.3,Win32,60.21194605,62bbe60bf3d75ef465d3e404,0,104,104,78,1,fourtwo,,,,,,,,,,,,,,,,,,,,,,,,,,,,,,,,,,,,,,,,,,,,,,,,,,,,,,,,,,,,,,,,,,,,,,,,,,,,,,,,,,,,,,,,,,,,,,,,,,,,,,,,,,,,,,,,,,,,,,,,,,,,,,,,,,,,,,,,,,,,,,,,,,,,,,,,
,,,,,,60e163c124453a6eff550552,62bbfb57ab427b48f9822fdb,2022-06-29_09h13.18.268,Colour_Asymmetry_Pilot,2022.1.3,Win32,60.21194605,62bbe60bf3d75ef465d3e404,0,105,105,91,1,twofour,,,,,,,,,,,,,,,,,,,,,,,,,,,,,,,,,,,,,,,,,,,,,,,,,,,,,,,,,,,,,,,,,,,,,,,,,,,,,,,,,,,,,,,,,,,,,,,,,,,,,,,,,,,,,,,,,,,,,,,,,,,,,,,,,,,,,,,,,,,,,,,,,,,,,,,,
,,,,,,60e163c124453a6eff550552,62bbfb57ab427b48f9822fdb,2022-06-29_09h13.18.268,Colour_Asymmetry_Pilot,2022.1.3,Win32,60.21194605,62bbe60bf3d75ef465d3e404,0,106,106,131,1,twofour,,,,,,,,,,,,,,,,,,,,,,,,,,,,,,,,,,,,,,,,,,,,,,,,,,,,,,,,,,,,,,,,,,,,,,,,,,,,,,,,,,,,,,,,,,,,,,,,,,,,,,,,,,,,,,,,,,,,,,,,,,,,,,,,,,,,,,,,,,,,,,,,,,,,,,,,
,,,,,,60e163c124453a6eff550552,62bbfb57ab427b48f9822fdb,2022-06-29_09h13.18.268,Colour_Asymmetry_Pilot,2022.1.3,Win32,60.21194605,62bbe60bf3d75ef465d3e404,0,107,107,58,1,twoone,,,,,,,,,,,,,,,,,,,,,,,,,,,,,,,,,,,,,,,,,,,,,,,,,,,,,,,,,,,,,,,,,,,,,,,,,,,,,,,,,,,,,,,,,,,,,,,,,,,,,,,,,,,,,,,,,,,,,,,,,,,,,,,,,,,,,,,,,,,,,,,,,,,,,,,,
,,,,,,60e163c124453a6eff550552,62bbfb57ab427b48f9822fdb,2022-06-29_09h13.18.268,Colour_Asymmetry_Pilot,2022.1.3,Win32,60.21194605,62bbe60bf3d75ef465d3e404,0,108,108,24,1,onetwo,,,,,,,,,,,,,,,,,,,,,,,,,,,,,,,,,,,,,,,,,,,,,,,,,,,,,,,,,,,,,,,,,,,,,,,,,,,,,,,,,,,,,,,,,,,,,,,,,,,,,,,,,,,,,,,,,,,,,,,,,,,,,,,,,,,,,,,,,,,,,,,,,,,,,,,,
,,,,,,60e163c124453a6eff550552,62bbfb57ab427b48f9822fdb,2022-06-29_09h13.18.268,Colour_Asymmetry_Pilot,2022.1.3,Win32,60.21194605,62bbe60bf3d75ef465d3e404,0,109,109,42,1,twoone,,,,,,,,,,,,,,,,,,,,,,,,,,,,,,,,,,,,,,,,,,,,,,,,,,,,,,,,,,,,,,,,,,,,,,,,,,,,,,,,,,,,,,,,,,,,,,,,,,,,,,,,,,,,,,,,,,,,,,,,,,,,,,,,,,,,,,,,,,,,,,,,,,,,,,,,
,,,,,,60e163c124453a6eff550552,62bbfb57ab427b48f9822fdb,2022-06-29_09h13.18.268,Colour_Asymmetry_Pilot,2022.1.3,Win32,60.21194605,62bbe60bf3d75ef465d3e404,0,110,110,76,1,threeone,,,,,,,,,,,,,,,,,,,,,,,,,,,,,,,,,,,,,,,,,,,,,,,,,,,,,,,,,,,,,,,,,,,,,,,,,,,,,,,,,,,,,,,,,,,,,,,,,,,,,,,,,,,,,,,,,,,,,,,,,,,,,,,,,,,,,,,,,,,,,,,,,,,,,,,,
,,,,,,60e163c124453a6eff550552,62bbfb57ab427b48f9822fdb,2022-06-29_09h13.18.268,Colour_Asymmetry_Pilot,2022.1.3,Win32,60.21194605,62bbe60bf3d75ef465d3e404,0,111,111,96,1,onetwo,,,,,,,,,,,,,,,,,,,,,,,,,,,,,,,,,,,,,,,,,,,,,,,,,,,,,,,,,,,,,,,,,,,,,,,,,,,,,,,,,,,,,,,,,,,,,,,,,,,,,,,,,,,,,,,,,,,,,,,,,,,,,,,,,,,,,,,,,,,,,,,,,,,,,,,,
,,,,,,60e163c124453a6eff550552,62bbfb57ab427b48f9822fdb,2022-06-29_09h13.18.268,Colour_Asymmetry_Pilot,2022.1.3,Win32,60.21194605,62bbe60bf3d75ef465d3e404,0,112,112,81,1,onethree,,,,,,,,,,,,,,,,,,,,,,,,,,,,,,,,,,,,,,,,,,,,,,,,,,,,,,,,,,,,,,,,,,,,,,,,,,,,,,,,,,,,,,,,,,,,,,,,,,,,,,,,,,,,,,,,,,,,,,,,,,,,,,,,,,,,,,,,,,,,,,,,,,,,,,,,
,,,,,,60e163c124453a6eff550552,62bbfb57ab427b48f9822fdb,2022-06-29_09h13.18.268,Colour_Asymmetry_Pilot,2022.1.3,Win32,60.21194605,62bbe60bf3d75ef465d3e404,0,113,113,144,1,onetwo,,,,,,,,,,,,,,,,,,,,,,,,,,,,,,,,,,,,,,,,,,,,,,,,,,,,,,,,,,,,,,,,,,,,,,,,,,,,,,,,,,,,,,,,,,,,,,,,,,,,,,,,,,,,,,,,,,,,,,,,,,,,,,,,,,,,,,,,,,,,,,,,,,,,,,,,
,,,,,,60e163c124453a6eff550552,62bbfb57ab427b48f9822fdb,2022-06-29_09h13.18.268,Colour_Asymmetry_Pilot,2022.1.3,Win32,60.21194605,62bbe60bf3d75ef465d3e404,0,114,114,19,1,twofour,,,,,,,,,,,,,,,,,,,,,,,,,,,,,,,,,,,,,,,,,,,,,,,,,,,,,,,,,,,,,,,,,,,,,,,,,,,,,,,,,,,,,,,,,,,,,,,,,,,,,,,,,,,,,,,,,,,,,,,,,,,,,,,,,,,,,,,,,,,,,,,,,,,,,,,,
,,,,,,60e163c124453a6eff550552,62bbfb57ab427b48f9822fdb,2022-06-29_09h13.18.268,Colour_Asymmetry_Pilot,2022.1.3,Win32,60.21194605,62bbe60bf3d75ef465d3e404,0,115,115,67,1,twofour,,,,,,,,,,,,,,,,,,,,,,,,,,,,,,,,,,,,,,,,,,,,,,,,,,,,,,,,,,,,,,,,,,,,,,,,,,,,,,,,,,,,,,,,,,,,,,,,,,,,,,,,,,,,,,,,,,,,,,,,,,,,,,,,,,,,,,,,,,,,,,,,,,,,,,,,
,,,,,,60e163c124453a6eff550552,62bbfb57ab427b48f9822fdb,2022-06-29_09h13.18.268,Colour_Asymmetry_Pilot,2022.1.3,Win32,60.21194605,62bbe60bf3d75ef465d3e404,0,116,116,36,1,threeone,,,,,,,,,,,,,,,,,,,,,,,,,,,,,,,,,,,,,,,,,,,,,,,,,,,,,,,,,,,,,,,,,,,,,,,,,,,,,,,,,,,,,,,,,,,,,,,,,,,,,,,,,,,,,,,,,,,,,,,,,,,,,,,,,,,,,,,,,,,,,,,,,,,,,,,,
,,,,,,60e163c124453a6eff550552,62bbfb57ab427b48f9822fdb,2022-06-29_09h13.18.268,Colour_Asymmetry_Pilot,2022.1.3,Win32,60.21194605,62bbe60bf3d75ef465d3e404,0,117,117,106,1,twoone,,,,,,,,,,,,,,,,,,,,,,,,,,,,,,,,,,,,,,,,,,,,,,,,,,,,,,,,,,,,,,,,,,,,,,,,,,,,,,,,,,,,,,,,,,,,,,,,,,,,,,,,,,,,,,,,,,,,,,,,,,,,,,,,,,,,,,,,,,,,,,,,,,,,,,,,
,,,,,,60e163c124453a6eff550552,62bbfb57ab427b48f9822fdb,2022-06-29_09h13.18.268,Colour_Asymmetry_Pilot,2022.1.3,Win32,60.21194605,62bbe60bf3d75ef465d3e404,0,118,118,1,1,onethree,,,,,,,,,,,,,,,,,,,,,,,,,,,,,,,,,,,,,,,,,,,,,,,,,,,,,,,,,,,,,,,,,,,,,,,,,,,,,,,,,,,,,,,,,,,,,,,,,,,,,,,,,,,,,,,,,,,,,,,,,,,,,,,,,,,,,,,,,,,,,,,,,,,,,,,,
,,,,,,60e163c124453a6eff550552,62bbfb57ab427b48f9822fdb,2022-06-29_09h13.18.268,Colour_Asymmetry_Pilot,2022.1.3,Win32,60.21194605,62bbe60bf3d75ef465d3e404,0,119,119,21,1,threefour,,,,,,,,,,,,,,,,,,,,,,,,,,,,,,,,,,,,,,,,,,,,,,,,,,,,,,,,,,,,,,,,,,,,,,,,,,,,,,,,,,,,,,,,,,,,,,,,,,,,,,,,,,,,,,,,,,,,,,,,,,,,,,,,,,,,,,,,,,,,,,,,,,,,,,,,
,,,,,,60e163c124453a6eff550552,62bbfb57ab427b48f9822fdb,2022-06-29_09h13.18.268,Colour_Asymmetry_Pilot,2022.1.3,Win32,60.21194605,62bbe60bf3d75ef465d3e404,0,120,120,139,1,twofour,,,,,,,,,,,,,,,,,,,,,,,,,,,,,,,,,,,,,,,,,,,,,,,,,,,,,,,,,,,,,,,,,,,,,,,,,,,,,,,,,,,,,,,,,,,,,,,,,,,,,,,,,,,,,,,,,,,,,,,,,,,,,,,,,,,,,,,,,,,,,,,,,,,,,,,,
,,,,,,60e163c124453a6eff550552,62bbfb57ab427b48f9822fdb,2022-06-29_09h13.18.268,Colour_Asymmetry_Pilot,2022.1.3,Win32,60.21194605,62bbe60bf3d75ef465d3e404,0,121,121,52,1,threeone,,,,,,,,,,,,,,,,,,,,,,,,,,,,,,,,,,,,,,,,,,,,,,,,,,,,,,,,,,,,,,,,,,,,,,,,,,,,,,,,,,,,,,,,,,,,,,,,,,,,,,,,,,,,,,,,,,,,,,,,,,,,,,,,,,,,,,,,,,,,,,,,,,,,,,,,
,,,,,,60e163c124453a6eff550552,62bbfb57ab427b48f9822fdb,2022-06-29_09h13.18.268,Colour_Asymmetry_Pilot,2022.1.3,Win32,60.21194605,62bbe60bf3d75ef465d3e404,0,122,122,109,1,threefour,,,,,,,,,,,,,,,,,,,,,,,,,,,,,,,,,,,,,,,,,,,,,,,,,,,,,,,,,,,,,,,,,,,,,,,,,,,,,,,,,,,,,,,,,,,,,,,,,,,,,,,,,,,,,,,,,,,,,,,,,,,,,,,,,,,,,,,,,,,,,,,,,,,,,,,,
,,,,,,60e163c124453a6eff550552,62bbfb57ab427b48f9822fdb,2022-06-29_09h13.18.268,Colour_Asymmetry_Pilot,2022.1.3,Win32,60.21194605,62bbe60bf3d75ef465d3e404,0,123,123,85,1,threefour,,,,,,,,,,,,,,,,,,,,,,,,,,,,,,,,,,,,,,,,,,,,,,,,,,,,,,,,,,,,,,,,,,,,,,,,,,,,,,,,,,,,,,,,,,,,,,,,,,,,,,,,,,,,,,,,,,,,,,,,,,,,,,,,,,,,,,,,,,,,,,,,,,,,,,,,
,,,,,,60e163c124453a6eff550552,62bbfb57ab427b48f9822fdb,2022-06-29_09h13.18.268,Colour_Asymmetry_Pilot,2022.1.3,Win32,60.21194605,62bbe60bf3d75ef465d3e404,0,124,124,95,1,fourthree,,,,,,,,,,,,,,,,,,,,,,,,,,,,,,,,,,,,,,,,,,,,,,,,,,,,,,,,,,,,,,,,,,,,,,,,,,,,,,,,,,,,,,,,,,,,,,,,,,,,,,,,,,,,,,,,,,,,,,,,,,,,,,,,,,,,,,,,,,,,,,,,,,,,,,,,
,,,,,,60e163c124453a6eff550552,62bbfb57ab427b48f9822fdb,2022-06-29_09h13.18.268,Colour_Asymmetry_Pilot,2022.1.3,Win32,60.21194605,62bbe60bf3d75ef465d3e404,0,125,125,120,1,onetwo,,,,,,,,,,,,,,,,,,,,,,,,,,,,,,,,,,,,,,,,,,,,,,,,,,,,,,,,,,,,,,,,,,,,,,,,,,,,,,,,,,,,,,,,,,,,,,,,,,,,,,,,,,,,,,,,,,,,,,,,,,,,,,,,,,,,,,,,,,,,,,,,,,,,,,,,
,,,,,,60e163c124453a6eff550552,62bbfb57ab427b48f9822fdb,2022-06-29_09h13.18.268,Colour_Asymmetry_Pilot,2022.1.3,Win32,60.21194605,62bbe60bf3d75ef465d3e404,0,126,126,82,1,twoone,,,,,,,,,,,,,,,,,,,,,,,,,,,,,,,,,,,,,,,,,,,,,,,,,,,,,,,,,,,,,,,,,,,,,,,,,,,,,,,,,,,,,,,,,,,,,,,,,,,,,,,,,,,,,,,,,,,,,,,,,,,,,,,,,,,,,,,,,,,,,,,,,,,,,,,,
,,,,,,60e163c124453a6eff550552,62bbfb57ab427b48f9822fdb,2022-06-29_09h13.18.268,Colour_Asymmetry_Pilot,2022.1.3,Win32,60.21194605,62bbe60bf3d75ef465d3e404,0,127,127,134,1,fourtwo,,,,,,,,,,,,,,,,,,,,,,,,,,,,,,,,,,,,,,,,,,,,,,,,,,,,,,,,,,,,,,,,,,,,,,,,,,,,,,,,,,,,,,,,,,,,,,,,,,,,,,,,,,,,,,,,,,,,,,,,,,,,,,,,,,,,,,,,,,,,,,,,,,,,,,,,
,,,,,,60e163c124453a6eff550552,62bbfb57ab427b48f9822fdb,2022-06-29_09h13.18.268,Colour_Asymmetry_Pilot,2022.1.3,Win32,60.21194605,62bbe60bf3d75ef465d3e404,0,128,128,46,1,fourtwo,,,,,,,,,,,,,,,,,,,,,,,,,,,,,,,,,,,,,,,,,,,,,,,,,,,,,,,,,,,,,,,,,,,,,,,,,,,,,,,,,,,,,,,,,,,,,,,,,,,,,,,,,,,,,,,,,,,,,,,,,,,,,,,,,,,,,,,,,,,,,,,,,,,,,,,,
,,,,,,60e163c124453a6eff550552,62bbfb57ab427b48f9822fdb,2022-06-29_09h13.18.268,Colour_Asymmetry_Pilot,2022.1.3,Win32,60.21194605,62bbe60bf3d75ef465d3e404,0,129,129,154,1,twoone,,,,,,,,,,,,,,,,,,,,,,,,,,,,,,,,,,,,,,,,,,,,,,,,,,,,,,,,,,,,,,,,,,,,,,,,,,,,,,,,,,,,,,,,,,,,,,,,,,,,,,,,,,,,,,,,,,,,,,,,,,,,,,,,,,,,,,,,,,,,,,,,,,,,,,,,
,,,,,,60e163c124453a6eff550552,62bbfb57ab427b48f9822fdb,2022-06-29_09h13.18.268,Colour_Asymmetry_Pilot,2022.1.3,Win32,60.21194605,62bbe60bf3d75ef465d3e404,0,130,130,160,1,onetwo,,,,,,,,,,,,,,,,,,,,,,,,,,,,,,,,,,,,,,,,,,,,,,,,,,,,,,,,,,,,,,,,,,,,,,,,,,,,,,,,,,,,,,,,,,,,,,,,,,,,,,,,,,,,,,,,,,,,,,,,,,,,,,,,,,,,,,,,,,,,,,,,,,,,,,,,
,,,,,,60e163c124453a6eff550552,62bbfb57ab427b48f9822fdb,2022-06-29_09h13.18.268,Colour_Asymmetry_Pilot,2022.1.3,Win32,60.21194605,62bbe60bf3d75ef465d3e404,0,131,131,12,1,threeone,,,,,,,,,,,,,,,,,,,,,,,,,,,,,,,,,,,,,,,,,,,,,,,,,,,,,,,,,,,,,,,,,,,,,,,,,,,,,,,,,,,,,,,,,,,,,,,,,,,,,,,,,,,,,,,,,,,,,,,,,,,,,,,,,,,,,,,,,,,,,,,,,,,,,,,,
,,,,,,60e163c124453a6eff550552,62bbfb57ab427b48f9822fdb,2022-06-29_09h13.18.268,Colour_Asymmetry_Pilot,2022.1.3,Win32,60.21194605,62bbe60bf3d75ef465d3e404,0,132,132,13,1,threefour,,,,,,,,,,,,,,,,,,,,,,,,,,,,,,,,,,,,,,,,,,,,,,,,,,,,,,,,,,,,,,,,,,,,,,,,,,,,,,,,,,,,,,,,,,,,,,,,,,,,,,,,,,,,,,,,,,,,,,,,,,,,,,,,,,,,,,,,,,,,,,,,,,,,,,,,
,,,,,,60e163c124453a6eff550552,62bbfb57ab427b48f9822fdb,2022-06-29_09h13.18.268,Colour_Asymmetry_Pilot,2022.1.3,Win32,60.21194605,62bbe60bf3d75ef465d3e404,0,133,133,2,1,twoone,,,,,,,,,,,,,,,,,,,,,,,,,,,,,,,,,,,,,,,,,,,,,,,,,,,,,,,,,,,,,,,,,,,,,,,,,,,,,,,,,,,,,,,,,,,,,,,,,,,,,,,,,,,,,,,,,,,,,,,,,,,,,,,,,,,,,,,,,,,,,,,,,,,,,,,,
,,,,,,60e163c124453a6eff550552,62bbfb57ab427b48f9822fdb,2022-06-29_09h13.18.268,Colour_Asymmetry_Pilot,2022.1.3,Win32,60.21194605,62bbe60bf3d75ef465d3e404,0,134,134,61,1,threefour,,,,,,,,,,,,,,,,,,,,,,,,,,,,,,,,,,,,,,,,,,,,,,,,,,,,,,,,,,,,,,,,,,,,,,,,,,,,,,,,,,,,,,,,,,,,,,,,,,,,,,,,,,,,,,,,,,,,,,,,,,,,,,,,,,,,,,,,,,,,,,,,,,,,,,,,
,,,,,,60e163c124453a6eff550552,62bbfb57ab427b48f9822fdb,2022-06-29_09h13.18.268,Colour_Asymmetry_Pilot,2022.1.3,Win32,60.21194605,62bbe60bf3d75ef465d3e404,0,135,135,63,1,fourthree,,,,,,,,,,,,,,,,,,,,,,,,,,,,,,,,,,,,,,,,,,,,,,,,,,,,,,,,,,,,,,,,,,,,,,,,,,,,,,,,,,,,,,,,,,,,,,,,,,,,,,,,,,,,,,,,,,,,,,,,,,,,,,,,,,,,,,,,,,,,,,,,,,,,,,,,
,,,,,,60e163c124453a6eff550552,62bbfb57ab427b48f9822fdb,2022-06-29_09h13.18.268,Colour_Asymmetry_Pilot,2022.1.3,Win32,60.21194605,62bbe60bf3d75ef465d3e404,0,136,136,151,1,fourthree,,,,,,,,,,,,,,,,,,,,,,,,,,,,,,,,,,,,,,,,,,,,,,,,,,,,,,,,,,,,,,,,,,,,,,,,,,,,,,,,,,,,,,,,,,,,,,,,,,,,,,,,,,,,,,,,,,,,,,,,,,,,,,,,,,,,,,,,,,,,,,,,,,,,,,,,
,,,,,,60e163c124453a6eff550552,62bbfb57ab427b48f9822fdb,2022-06-29_09h13.18.268,Colour_Asymmetry_Pilot,2022.1.3,Win32,60.21194605,62bbe60bf3d75ef465d3e404,0,137,137,8,1,onetwo,,,,,,,,,,,,,,,,,,,,,,,,,,,,,,,,,,,,,,,,,,,,,,,,,,,,,,,,,,,,,,,,,,,,,,,,,,,,,,,,,,,,,,,,,,,,,,,,,,,,,,,,,,,,,,,,,,,,,,,,,,,,,,,,,,,,,,,,,,,,,,,,,,,,,,,,
,,,,,,60e163c124453a6eff550552,62bbfb57ab427b48f9822fdb,2022-06-29_09h13.18.268,Colour_Asymmetry_Pilot,2022.1.3,Win32,60.21194605,62bbe60bf3d75ef465d3e404,0,138,138,40,1,onetwo,,,,,,,,,,,,,,,,,,,,,,,,,,,,,,,,,,,,,,,,,,,,,,,,,,,,,,,,,,,,,,,,,,,,,,,,,,,,,,,,,,,,,,,,,,,,,,,,,,,,,,,,,,,,,,,,,,,,,,,,,,,,,,,,,,,,,,,,,,,,,,,,,,,,,,,,
,,,,,,60e163c124453a6eff550552,62bbfb57ab427b48f9822fdb,2022-06-29_09h13.18.268,Colour_Asymmetry_Pilot,2022.1.3,Win32,60.21194605,62bbe60bf3d75ef465d3e404,0,139,139,17,1,onethree,,,,,,,,,,,,,,,,,,,,,,,,,,,,,,,,,,,,,,,,,,,,,,,,,,,,,,,,,,,,,,,,,,,,,,,,,,,,,,,,,,,,,,,,,,,,,,,,,,,,,,,,,,,,,,,,,,,,,,,,,,,,,,,,,,,,,,,,,,,,,,,,,,,,,,,,
,,,,,,60e163c124453a6eff550552,62bbfb57ab427b48f9822fdb,2022-06-29_09h13.18.268,Colour_Asymmetry_Pilot,2022.1.3,Win32,60.21194605,62bbe60bf3d75ef465d3e404,0,140,140,66,1,twoone,,,,,,,,,,,,,,,,,,,,,,,,,,,,,,,,,,,,,,,,,,,,,,,,,,,,,,,,,,,,,,,,,,,,,,,,,,,,,,,,,,,,,,,,,,,,,,,,,,,,,,,,,,,,,,,,,,,,,,,,,,,,,,,,,,,,,,,,,,,,,,,,,,,,,,,,
,,,,,,60e163c124453a6eff550552,62bbfb57ab427b48f9822fdb,2022-06-29_09h13.18.268,Colour_Asymmetry_Pilot,2022.1.3,Win32,60.21194605,62bbe60bf3d75ef465d3e404,0,141,141,146,1,twoone,,,,,,,,,,,,,,,,,,,,,,,,,,,,,,,,,,,,,,,,,,,,,,,,,,,,,,,,,,,,,,,,,,,,,,,,,,,,,,,,,,,,,,,,,,,,,,,,,,,,,,,,,,,,,,,,,,,,,,,,,,,,,,,,,,,,,,,,,,,,,,,,,,,,,,,,
,,,,,,60e163c124453a6eff550552,62bbfb57ab427b48f9822fdb,2022-06-29_09h13.18.268,Colour_Asymmetry_Pilot,2022.1.3,Win32,60.21194605,62bbe60bf3d75ef465d3e404,0,142,142,161,1,onethree,,,,,,,,,,,,,,,,,,,,,,,,,,,,,,,,,,,,,,,,,,,,,,,,,,,,,,,,,,,,,,,,,,,,,,,,,,,,,,,,,,,,,,,,,,,,,,,,,,,,,,,,,,,,,,,,,,,,,,,,,,,,,,,,,,,,,,,,,,,,,,,,,,,,,,,,
,,,,,,60e163c124453a6eff550552,62bbfb57ab427b48f9822fdb,2022-06-29_09h13.18.268,Colour_Asymmetry_Pilot,2022.1.3,Win32,60.21194605,62bbe60bf3d75ef465d3e404,0,143,143,132,1,threeone,,,,,,,,,,,,,,,,,,,,,,,,,,,,,,,,,,,,,,,,,,,,,,,,,,,,,,,,,,,,,,,,,,,,,,,,,,,,,,,,,,,,,,,,,,,,,,,,,,,,,,,,,,,,,,,,,,,,,,,,,,,,,,,,,,,,,,,,,,,,,,,,,,,,,,,,
,,,,,,60e163c124453a6eff550552,62bbfb57ab427b48f9822fdb,2022-06-29_09h13.18.268,Colour_Asymmetry_Pilot,2022.1.3,Win32,60.21194605,62bbe60bf3d75ef465d3e404,0,144,144,5,1,threefour,,,,,,,,,,,,,,,,,,,,,,,,,,,,,,,,,,,,,,,,,,,,,,,,,,,,,,,,,,,,,,,,,,,,,,,,,,,,,,,,,,,,,,,,,,,,,,,,,,,,,,,,,,,,,,,,,,,,,,,,,,,,,,,,,,,,,,,,,,,,,,,,,,,,,,,,
,,,,,,60e163c124453a6eff550552,62bbfb57ab427b48f9822fdb,2022-06-29_09h13.18.268,Colour_Asymmetry_Pilot,2022.1.3,Win32,60.21194605,62bbe60bf3d75ef465d3e404,0,145,145,39,1,fourthree,,,,,,,,,,,,,,,,,,,,,,,,,,,,,,,,,,,,,,,,,,,,,,,,,,,,,,,,,,,,,,,,,,,,,,,,,,,,,,,,,,,,,,,,,,,,,,,,,,,,,,,,,,,,,,,,,,,,,,,,,,,,,,,,,,,,,,,,,,,,,,,,,,,,,,,,
,,,,,,60e163c124453a6eff550552,62bbfb57ab427b48f9822fdb,2022-06-29_09h13.18.268,Colour_Asymmetry_Pilot,2022.1.3,Win32,60.21194605,62bbe60bf3d75ef465d3e404,0,146,146,123,1,twofour,,,,,,,,,,,,,,,,,,,,,,,,,,,,,,,,,,,,,,,,,,,,,,,,,,,,,,,,,,,,,,,,,,,,,,,,,,,,,,,,,,,,,,,,,,,,,,,,,,,,,,,,,,,,,,,,,,,,,,,,,,,,,,,,,,,,,,,,,,,,,,,,,,,,,,,,
,,,,,,60e163c124453a6eff550552,62bbfb57ab427b48f9822fdb,2022-06-29_09h13.18.268,Colour_Asymmetry_Pilot,2022.1.3,Win32,60.21194605,62bbe60bf3d75ef465d3e404,0,147,147,80,1,onetwo,,,,,,,,,,,,,,,,,,,,,,,,,,,,,,,,,,,,,,,,,,,,,,,,,,,,,,,,,,,,,,,,,,,,,,,,,,,,,,,,,,,,,,,,,,,,,,,,,,,,,,,,,,,,,,,,,,,,,,,,,,,,,,,,,,,,,,,,,,,,,,,,,,,,,,,,
,,,,,,60e163c124453a6eff550552,62bbfb57ab427b48f9822fdb,2022-06-29_09h13.18.268,Colour_Asymmetry_Pilot,2022.1.3,Win32,60.21194605,62bbe60bf3d75ef465d3e404,0,148,148,31,1,fourthree,,,,,,,,,,,,,,,,,,,,,,,,,,,,,,,,,,,,,,,,,,,,,,,,,,,,,,,,,,,,,,,,,,,,,,,,,,,,,,,,,,,,,,,,,,,,,,,,,,,,,,,,,,,,,,,,,,,,,,,,,,,,,,,,,,,,,,,,,,,,,,,,,,,,,,,,
,,,,,,60e163c124453a6eff550552,62bbfb57ab427b48f9822fdb,2022-06-29_09h13.18.268,Colour_Asymmetry_Pilot,2022.1.3,Win32,60.21194605,62bbe60bf3d75ef465d3e404,0,149,149,87,1,fourthree,,,,,,,,,,,,,,,,,,,,,,,,,,,,,,,,,,,,,,,,,,,,,,,,,,,,,,,,,,,,,,,,,,,,,,,,,,,,,,,,,,,,,,,,,,,,,,,,,,,,,,,,,,,,,,,,,,,,,,,,,,,,,,,,,,,,,,,,,,,,,,,,,,,,,,,,
,,,,,,60e163c124453a6eff550552,62bbfb57ab427b48f9822fdb,2022-06-29_09h13.18.268,Colour_Asymmetry_Pilot,2022.1.3,Win32,60.21194605,62bbe60bf3d75ef465d3e404,0,150,150,37,1,threefour,,,,,,,,,,,,,,,,,,,,,,,,,,,,,,,,,,,,,,,,,,,,,,,,,,,,,,,,,,,,,,,,,,,,,,,,,,,,,,,,,,,,,,,,,,,,,,,,,,,,,,,,,,,,,,,,,,,,,,,,,,,,,,,,,,,,,,,,,,,,,,,,,,,,,,,,
,,,,,,60e163c124453a6eff550552,62bbfb57ab427b48f9822fdb,2022-06-29_09h13.18.268,Colour_Asymmetry_Pilot,2022.1.3,Win32,60.21194605,62bbe60bf3d75ef465d3e404,0,151,151,23,1,fourthree,,,,,,,,,,,,,,,,,,,,,,,,,,,,,,,,,,,,,,,,,,,,,,,,,,,,,,,,,,,,,,,,,,,,,,,,,,,,,,,,,,,,,,,,,,,,,,,,,,,,,,,,,,,,,,,,,,,,,,,,,,,,,,,,,,,,,,,,,,,,,,,,,,,,,,,,
,,,,,,60e163c124453a6eff550552,62bbfb57ab427b48f9822fdb,2022-06-29_09h13.18.268,Colour_Asymmetry_Pilot,2022.1.3,Win32,60.21194605,62bbe60bf3d75ef465d3e404,0,152,152,117,1,threefour,,,,,,,,,,,,,,,,,,,,,,,,,,,,,,,,,,,,,,,,,,,,,,,,,,,,,,,,,,,,,,,,,,,,,,,,,,,,,,,,,,,,,,,,,,,,,,,,,,,,,,,,,,,,,,,,,,,,,,,,,,,,,,,,,,,,,,,,,,,,,,,,,,,,,,,,
,,,,,,60e163c124453a6eff550552,62bbfb57ab427b48f9822fdb,2022-06-29_09h13.18.268,Colour_Asymmetry_Pilot,2022.1.3,Win32,60.21194605,62bbe60bf3d75ef465d3e404,0,153,153,0,1,onetwo,,,,,,,,,,,,,,,,,,,,,,,,,,,,,,,,,,,,,,,,,,,,,,,,,,,,,,,,,,,,,,,,,,,,,,,,,,,,,,,,,,,,,,,,,,,,,,,,,,,,,,,,,,,,,,,,,,,,,,,,,,,,,,,,,,,,,,,,,,,,,,,,,,,,,,,,
,,,,,,60e163c124453a6eff550552,62bbfb57ab427b48f9822fdb,2022-06-29_09h13.18.268,Colour_Asymmetry_Pilot,2022.1.3,Win32,60.21194605,62bbe60bf3d75ef465d3e404,0,154,154,43,1,twofour,,,,,,,,,,,,,,,,,,,,,,,,,,,,,,,,,,,,,,,,,,,,,,,,,,,,,,,,,,,,,,,,,,,,,,,,,,,,,,,,,,,,,,,,,,,,,,,,,,,,,,,,,,,,,,,,,,,,,,,,,,,,,,,,,,,,,,,,,,,,,,,,,,,,,,,,
,,,,,,60e163c124453a6eff550552,62bbfb57ab427b48f9822fdb,2022-06-29_09h13.18.268,Colour_Asymmetry_Pilot,2022.1.3,Win32,60.21194605,62bbe60bf3d75ef465d3e404,0,155,155,118,1,fourtwo,,,,,,,,,,,,,,,,,,,,,,,,,,,,,,,,,,,,,,,,,,,,,,,,,,,,,,,,,,,,,,,,,,,,,,,,,,,,,,,,,,,,,,,,,,,,,,,,,,,,,,,,,,,,,,,,,,,,,,,,,,,,,,,,,,,,,,,,,,,,,,,,,,,,,,,,
,,,,,,60e163c124453a6eff550552,62bbfb57ab427b48f9822fdb,2022-06-29_09h13.18.268,Colour_Asymmetry_Pilot,2022.1.3,Win32,60.21194605,62bbe60bf3d75ef465d3e404,0,156,156,34,1,twoone,,,,,,,,,,,,,,,,,,,,,,,,,,,,,,,,,,,,,,,,,,,,,,,,,,,,,,,,,,,,,,,,,,,,,,,,,,,,,,,,,,,,,,,,,,,,,,,,,,,,,,,,,,,,,,,,,,,,,,,,,,,,,,,,,,,,,,,,,,,,,,,,,,,,,,,,
,,,,,,60e163c124453a6eff550552,62bbfb57ab427b48f9822fdb,2022-06-29_09h13.18.268,Colour_Asymmetry_Pilot,2022.1.3,Win32,60.21194605,62bbe60bf3d75ef465d3e404,0,157,157,68,1,threeone,,,,,,,,,,,,,,,,,,,,,,,,,,,,,,,,,,,,,,,,,,,,,,,,,,,,,,,,,,,,,,,,,,,,,,,,,,,,,,,,,,,,,,,,,,,,,,,,,,,,,,,,,,,,,,,,,,,,,,,,,,,,,,,,,,,,,,,,,,,,,,,,,,,,,,,,
,,,,,,60e163c124453a6eff550552,62bbfb57ab427b48f9822fdb,2022-06-29_09h13.18.268,Colour_Asymmetry_Pilot,2022.1.3,Win32,60.21194605,62bbe60bf3d75ef465d3e404,0,158,158,104,1,onetwo,,,,,,,,,,,,,,,,,,,,,,,,,,,,,,,,,,,,,,,,,,,,,,,,,,,,,,,,,,,,,,,,,,,,,,,,,,,,,,,,,,,,,,,,,,,,,,,,,,,,,,,,,,,,,,,,,,,,,,,,,,,,,,,,,,,,,,,,,,,,,,,,,,,,,,,,
,,,,,,60e163c124453a6eff550552,62bbfb57ab427b48f9822fdb,2022-06-29_09h13.18.268,Colour_Asymmetry_Pilot,2022.1.3,Win32,60.21194605,62bbe60bf3d75ef465d3e404,0,159,159,121,1,onethree,,,,,,,,,,,,,,,,,,,,,,,,,,,,,,,,,,,,,,,,,,,,,,,,,,,,,,,,,,,,,,,,,,,,,,,,,,,,,,,,,,,,,,,,,,,,,,,,,,,,,,,,,,,,,,,,,,,,,,,,,,,,,,,,,,,,,,,,,,,,,,,,,,,,,,,,
,,,,,,60e163c124453a6eff550552,62bbfb57ab427b48f9822fdb,2022-06-29_09h13.18.268,Colour_Asymmetry_Pilot,2022.1.3,Win32,60.21194605,62bbe60bf3d75ef465d3e404,0,160,160,155,1,twofour,,,,,,,,,,,,,,,,,,,,,,,,,,,,,,,,,,,,,,,,,,,,,,,,,,,,,,,,,,,,,,,,,,,,,,,,,,,,,,,,,,,,,,,,,,,,,,,,,,,,,,,,,,,,,,,,,,,,,,,,,,,,,,,,,,,,,,,,,,,,,,,,,,,,,,,,
,,,,,,60e163c124453a6eff550552,62bbfb57ab427b48f9822fdb,2022-06-29_09h13.18.268,Colour_Asymmetry_Pilot,2022.1.3,Win32,60.21194605,62bbe60bf3d75ef465d3e404,0,161,161,65,1,onethree,,,,,,,,,,,,,,,,,,,,,,,,,,,,,,,,,,,,,,,,,,,,,,,,,,,,,,,,,,,,,,,,,,,,,,,,,,,,,,,,,,,,,,,,,,,,,,,,,,,,,,,,,,,,,,,,,,,,,,,,,,,,,,,,,,,,,,,,,,,,,,,,,,,,,,,,
,,,,,,60e163c124453a6eff550552,62bbfb57ab427b48f9822fdb,2022-06-29_09h13.18.268,Colour_Asymmetry_Pilot,2022.1.3,Win32,60.21194605,62bbe60bf3d75ef465d3e404,,,,,,,space,71.1334,space,15.7149,space,35.7498,space,329.0415,space,1.6403,space,5.4132,"[0.7018,0.7176,0.6155999999999999]",onetwo,"[0.37240000000000006,-0.050999999999999934,-0.5216]",-3,18.15,-106,94.5,1,0,0,response7disk_5,-10,2.5,1,0,0,rectangle_8,-10,2.5,1,0,0,1,-10,2.5,1,0,0,0,0,0,0,1,,,,,,,,,,,,,,,,,,,,,,,,,,,,,,,,,,,,,,,,,,,,,,,,,,,,,,,,,,,,,,,,,,,,,,,,,,,,,,,,,,,,,,,,,,,,,,,,,,,,,,,,,,,
,,,,,,60e163c124453a6eff550552,62bbfb57ab427b48f9822fdb,2022-06-29_09h13.18.268,Colour_Asymmetry_Pilot,2022.1.3,Win32,60.21194605,62bbe60bf3d75ef465d3e404,,,,,,,,,,,,,,,,,,,"[-0.01980000000000004,-0.5138,-0.38039999999999996]",onethree,"[0.19199999999999995,0.18419999999999992,0.5136000000000001]",-4,4.5004,-80,103.5,1,0,0,response7disk_5,-6,0.5,1,0,0,rectangle_8,-6,0.5,1,0,0,1,-6,0.5,1,0,0,1,0,1,0,1,,,,,,,,,,,,,,,,,,,,,,,,,,,,,,,,,,,,,,,,,,,,,,,,,,,,,,,,,,,,,,,,,,,,,,,,,,,,,,,,,,,,,,,,,,,,,,,,,,,,,,,,,,,
,,,,,,60e163c124453a6eff550552,62bbfb57ab427b48f9822fdb,2022-06-29_09h13.18.268,Colour_Asymmetry_Pilot,2022.1.3,Win32,60.21194605,62bbe60bf3d75ef465d3e404,,,,,,,,,,,,,,,,,,,"[-0.011800000000000033,-0.906,-0.45100000000000007]",fourthree,"[-0.9688,-0.4902000000000001,-0.12159999999999993]",3,5.8501,86,34.5,1,0,0,response1disk_5,4,-3.5,1,0,0,rectangle_8,58,-135.5,1,0,0,1,13,-1.5,1,0,0,2,0,2,0,1,response3disk_7,4,rectangle_4,,,,,,,,,,,,,,,,,,,,,,,,,,,,,,,,,,,,,,,,,,,,,,,,,,,,,,,,,,,,,,,,,,,,,,,,,,,,,,,,,,,,,,,,,,,,,,,,,,,,,,,,
,,,,,,60e163c124453a6eff550552,62bbfb57ab427b48f9822fdb,2022-06-29_09h13.18.268,Colour_Asymmetry_Pilot,2022.1.3,Win32,60.21194605,62bbe60bf3d75ef465d3e404,,,,,,,,,,,,,,,,,,,"[-0.9296,-0.12959999999999994,-0.043199999999999905]",threefour,"[0.12939999999999996,-0.2864,0.3253999999999999]",-4,1.3662,-41,86.5,1,0,0,response7disk_5,-8,-5.5,1,0,0,rectangle_8,-8,-5.5,1,0,0,1,-8,-5.5,1,0,0,3,0,3,0,1,,,,,,,,,,,,,,,,,,,,,,,,,,,,,,,,,,,,,,,,,,,,,,,,,,,,,,,,,,,,,,,,,,,,,,,,,,,,,,,,,,,,,,,,,,,,,,,,,,,,,,,,,,,
,,,,,,60e163c124453a6eff550552,62bbfb57ab427b48f9822fdb,2022-06-29_09h13.18.268,Colour_Asymmetry_Pilot,2022.1.3,Win32,60.21194605,62bbe60bf3d75ef465d3e404,,,,,,,,,,,,,,,,,,,"[0.12939999999999996,-0.2864,0.3253999999999999]",fourtwo,"[-0.6235999999999999,-0.6786,-0.08239999999999992]",2,3.167,112,-73.5,1,0,0,response3disk_5,6,-16.5,1,0,0,rectangle_8,6,-16.5,1,0,0,1,6,-16.5,1,0,0,4,0,4,0,1,,,,,,,,,,,,,,,,,,,,,,,,,,,,,,,,,,,,,,,,,,,,,,,,,,,,,,,,,,,,,,,,,,,,,,,,,,,,,,,,,,,,,,,,,,,,,,,,,,,,,,,,,,,
,,,,,,60e163c124453a6eff550552,62bbfb57ab427b48f9822fdb,2022-06-29_09h13.18.268,Colour_Asymmetry_Pilot,2022.1.3,Win32,60.21194605,62bbe60bf3d75ef465d3e404,,,,,,,,,,,,,,,,,,,"[0.6547999999999998,-0.043199999999999905,-0.011800000000000033]",twoone,"[0.0351999999999999,0.41159999999999997,0.0038000000000000256]",-3,1.2502,-74,40.5,1,0,0,response7disk_5,4,-11.5,1,0,0,rectangle_8,4,-11.5,1,0,0,1,4,-11.5,1,0,0,5,0,5,0,1,,,,,,,,,,,,,,,,,,,,,,,,,,,,,,,,,,,,,,,,,,,,,,,,,,,,,,,,,,,,,,,,,,,,,,,,,,,,,,,,,,,,,,,,,,,,,,,,,,,,,,,,,,,
,,,,,,60e163c124453a6eff550552,62bbfb57ab427b48f9822fdb,2022-06-29_09h13.18.268,Colour_Asymmetry_Pilot,2022.1.3,Win32,60.21194605,62bbe60bf3d75ef465d3e404,,,,,,,,,,,,,,,,,,,"[-0.9688,-0.4902000000000001,-0.12159999999999993]",threefour,"[0.7018,0.7802,-0.16079999999999994]",-4,1.2004,-62,63.5,1,0,0,response7disk_5,-15,2.5,1,0,0,rectangle_8,-15,2.5,1,0,0,1,-15,2.5,1,0,0,6,0,6,0,1,,,,,,,,,,,,,,,,,,,,,,,,,,,,,,,,,,,,,,,,,,,,,,,,,,,,,,,,,,,,,,,,,,,,,,,,,,,,,,,,,,,,,,,,,,,,,,,,,,,,,,,,,,,
,,,,,,60e163c124453a6eff550552,62bbfb57ab427b48f9822fdb,2022-06-29_09h13.18.268,Colour_Asymmetry_Pilot,2022.1.3,Win32,60.21194605,62bbe60bf3d75ef465d3e404,,,,,,,,,,,,,,,,,,,,fourthree,,-1,2.5869,,,,,,,,,,,,,,,,,,,,,,,,,,,,,,,,space,5.0673,"[-0.011800000000000033,-0.906,-0.45100000000000007]","[-0.6706000000000001,-0.6157999999999999,-0.6786]",-54,-93.5,1,0,0,response5disk,12,-0.5,1,0,0,rectangle,12,-0.5,1,0,0,,1,0.0017,0,12,-0.5,1,0,0,0,0,0,31,1,31,first,,,,,,,,,,,,,,,,,,,,,,,,,,,,,,,,,,,,,,,,,,,,,,,,,,,,,,,,,,,,,,,,,,,
,,,,,,60e163c124453a6eff550552,62bbfb57ab427b48f9822fdb,2022-06-29_09h13.18.268,Colour_Asymmetry_Pilot,2022.1.3,Win32,60.21194605,62bbe60bf3d75ef465d3e404,,,,,,,,,,,,,,,,,,,,fourtwo,,-3,1.6169,,,,,,,,,,,,,,,,,,,,,,,,,,,,,,,,,,"[-0.9688,-0.4902000000000001,-0.12159999999999993]","[-0.011800000000000033,-0.906,-0.45100000000000007]",-103,59.5,1,0,0,response7disk,-8,1.5,1,0,0,rectangle,-8,1.5,1,0,0,,1,0.0003,0,-8,1.5,1,0,0,0,1,1,110,1,29,second,,,,,,,,,,,,,,,,,,,,,,,,,,,,,,,,,,,,,,,,,,,,,,,,,,,,,,,,,,,,,,,,,,,
,,,,,,60e163c124453a6eff550552,62bbfb57ab427b48f9822fdb,2022-06-29_09h13.18.268,Colour_Asymmetry_Pilot,2022.1.3,Win32,60.21194605,62bbe60bf3d75ef465d3e404,,,,,,,,,,,,,,,,,,,,onethree,,-3,0.4178,,,,,,,,,,,,,,,,,,,,,,,,,,,,,,,,,,"[0.23120000000000007,-0.7726,-0.34120000000000006]","[0.2862,0.7802,0.3568]",-81,52.5,1,0,0,response7disk,-8,-5.5,1,0,0,rectangle,-8,-5.5,1,0,0,,3,0.0008,0,-8,-5.5,1,0,0,0,2,2,39,1,39,first,,,,,,,,,,,,,,,,,,,,,,,,,,,,,,,,,,,,,,,,,,,,,,,,,,,,,,,,,,,,,,,,,,,
,,,,,,60e163c124453a6eff550552,62bbfb57ab427b48f9822fdb,2022-06-29_09h13.18.268,Colour_Asymmetry_Pilot,2022.1.3,Win32,60.21194605,62bbe60bf3d75ef465d3e404,,,,,,,,,,,,,,,,,,,,fourthree,,-2,2.8498,,,,,,,,,,,,,,,,,,,,,,,,,,,,,,,,,,"[-0.4746,-0.0354000000000001,0.5449999999999999]","[-0.45899999999999996,-0.3256,-0.9374]",-87,-68.5,1,0,0,response5disk,14,-5.5,1,0,0,rectangle,14,-5.5,1,0,0,,2,0.0006,0,14,-5.5,1,0,0,0,3,3,20,1,20,first,,,,,,,,,,,,,,,,,,,,,,,,,,,,,,,,,,,,,,,,,,,,,,,,,,,,,,,,,,,,,,,,,,,
,,,,,,60e163c124453a6eff550552,62bbfb57ab427b48f9822fdb,2022-06-29_09h13.18.268,Colour_Asymmetry_Pilot,2022.1.3,Win32,60.21194605,62bbe60bf3d75ef465d3e404,,,,,,,,,,,,,,,,,,,,onethree,,1,1.3501,,,,,,,,,,,,,,,,,,,,,,,,,,,,,,,,,,"[0.34099999999999997,0.12939999999999996,-0.9766]","[-0.45899999999999996,-0.3256,-0.9374]",74,-76.5,1,0,0,response3disk,-24,-3.5,1,0,0,rectangle,-24,-3.5,1,0,0,,1,0.0011,0,-24,-3.5,1,0,0,0,4,4,14,1,14,first,,,,,,,,,,,,,,,,,,,,,,,,,,,,,,,,,,,,,,,,,,,,,,,,,,,,,,,,,,,,,,,,,,,
,,,,,,60e163c124453a6eff550552,62bbfb57ab427b48f9822fdb,2022-06-29_09h13.18.268,Colour_Asymmetry_Pilot,2022.1.3,Win32,60.21194605,62bbe60bf3d75ef465d3e404,,,,,,,,,,,,,,,,,,,,threeone,,2,0.6164,,,,,,,,,,,,,,,,,,,,,,,,,,,,,,,,,,"[-0.24719999999999998,-0.0354000000000001,0.3175999999999999]","[-0.9688,-0.4902000000000001,-0.12159999999999993]",88,-53.5,1,0,0,response3disk,1,3.5,1,0,0,rectangle,1,3.5,1,0,0,,2,0.0008,0,1,3.5,1,0,0,0,5,5,153,1,72,second,,,,,,,,,,,,,,,,,,,,,,,,,,,,,,,,,,,,,,,,,,,,,,,,,,,,,,,,,,,,,,,,,,,
,,,,,,60e163c124453a6eff550552,62bbfb57ab427b48f9822fdb,2022-06-29_09h13.18.268,Colour_Asymmetry_Pilot,2022.1.3,Win32,60.21194605,62bbe60bf3d75ef465d3e404,,,,,,,,,,,,,,,,,,,,twofour,,-2,0.6168,,,,,,,,,,,,,,,,,,,,,,,,,,,,,,,,,,"[-0.5922000000000001,-0.7492000000000001,-0.5296000000000001]","[-0.01980000000000004,-0.5138,-0.38039999999999996]",-70,-41.5,1,0,0,response5disk,-14,-0.5,1,0,0,rectangle,-14,-0.5,1,0,0,,3,0.0008,0,-14,-0.5,1,0,0,0,6,6,109,1,28,second,,,,,,,,,,,,,,,,,,,,,,,,,,,,,,,,,,,,,,,,,,,,,,,,,,,,,,,,,,,,,,,,,,,
,,,,,,60e163c124453a6eff550552,62bbfb57ab427b48f9822fdb,2022-06-29_09h13.18.268,Colour_Asymmetry_Pilot,2022.1.3,Win32,60.21194605,62bbe60bf3d75ef465d3e404,,,,,,,,,,,,,,,,,,,,twofour,,3,1.3665,,,,,,,,,,,,,,,,,,,,,,,,,,,,,,,,,,"[-0.9138,-0.5296000000000001,-0.5529999999999999]","[0.5449999999999999,-0.31000000000000005,-0.0354000000000001]",114,58.5,1,0,0,response1disk,-8,1.5,1,0,0,rectangle,-8,1.5,1,0,0,,2,0.0008,0,-8,1.5,1,0,0,0,7,7,13,1,13,first,,,,,,,,,,,,,,,,,,,,,,,,,,,,,,,,,,,,,,,,,,,,,,,,,,,,,,,,,,,,,,,,,,,
,,,,,,60e163c124453a6eff550552,62bbfb57ab427b48f9822fdb,2022-06-29_09h13.18.268,Colour_Asymmetry_Pilot,2022.1.3,Win32,60.21194605,62bbe60bf3d75ef465d3e404,,,,,,,,,,,,,,,,,,,,fourthree,,-4,0.6168,,,,,,,,,,,,,,,,,,,,,,,,,,,,,,,,,,"[0.4196,0.4665999999999999,0.3568]","[-0.9844,-0.9688,-0.9922]",-60,111.5,1,0,0,response7disk,-6,14.5,1,0,0,rectangle,-6,14.5,1,0,0,,1,0.0011,0,-6,14.5,1,0,0,0,8,8,114,1,33,second,,,,,,,,,,,,,,,,,,,,,,,,,,,,,,,,,,,,,,,,,,,,,,,,,,,,,,,,,,,,,,,,,,,
,,,,,,60e163c124453a6eff550552,62bbfb57ab427b48f9822fdb,2022-06-29_09h13.18.268,Colour_Asymmetry_Pilot,2022.1.3,Win32,60.21194605,62bbe60bf3d75ef465d3e404,,,,,,,,,,,,,,,,,,,,fourtwo,,-2,1.7002,,,,,,,,,,,,,,,,,,,,,,,,,,,,,,,,,,"[0.3568,-0.20799999999999996,-0.9844]","[0.22340000000000004,-0.9296,-0.7884]",-147,-55.5,1,0,0,response5disk,3,-13.5,1,0,0,rectangle,3,-13.5,1,0,0,,2,0.0007,0,3,-13.5,1,0,0,0,9,9,154,1,73,second,,,,,,,,,,,,,,,,,,,,,,,,,,,,,,,,,,,,,,,,,,,,,,,,,,,,,,,,,,,,,,,,,,,
,,,,,,60e163c124453a6eff550552,62bbfb57ab427b48f9822fdb,2022-06-29_09h13.18.268,Colour_Asymmetry_Pilot,2022.1.3,Win32,60.21194605,62bbe60bf3d75ef465d3e404,,,,,,,,,,,,,,,,,,,,fourthree,,-1,3.2668,,,,,,,,,,,,,,,,,,,,,,,,,,,,,,,,,,"[0.8115999999999999,-0.0040000000000000036,-0.09819999999999995]","[0.9842,0.7409999999999999,-0.6628000000000001]",-62,-86.5,1,0,0,response5disk,4,6.5,1,0,0,rectangle,4,6.5,1,0,0,,1,0.0009,0,4,6.5,1,0,0,0,10,10,67,1,67,first,,,,,,,,,,,,,,,,,,,,,,,,,,,,,,,,,,,,,,,,,,,,,,,,,,,,,,,,,,,,,,,,,,,
,,,,,,60e163c124453a6eff550552,62bbfb57ab427b48f9822fdb,2022-06-29_09h13.18.268,Colour_Asymmetry_Pilot,2022.1.3,Win32,60.21194605,62bbe60bf3d75ef465d3e404,,,,,,,,,,,,,,,,,,,,threefour,,-4,2.3001,,,,,,,,,,,,,,,,,,,,,,,,,,,,,,,,,,"[0.9763999999999999,-0.1137999999999999,-0.6314]","[0.11359999999999992,0.6312,0.5213999999999999]",-66,100.5,1,0,0,response7disk,-25,-3.5,1,0,0,rectangle,-25,-3.5,1,0,0,,2,0.0009,0,-25,-3.5,1,0,0,0,11,11,57,1,57,first,,,,,,,,,,,,,,,,,,,,,,,,,,,,,,,,,,,,,,,,,,,,,,,,,,,,,,,,,,,,,,,,,,,
,,,,,,60e163c124453a6eff550552,62bbfb57ab427b48f9822fdb,2022-06-29_09h13.18.268,Colour_Asymmetry_Pilot,2022.1.3,Win32,60.21194605,62bbe60bf3d75ef465d3e404,,,,,,,,,,,,,,,,,,,,onetwo,,2,0.7831,,,,,,,,,,,,,,,,,,,,,,,,,,,,,,,,,,"[-0.4982,-0.2942,-0.0354000000000001]","[-0.9766,-0.6472,0.07440000000000002]",66,-43.5,1,0,0,response3disk,-1,-18.5,1,0,0,rectangle,-1,-18.5,1,0,0,,3,0.0011,0,-1,-18.5,1,0,0,0,12,12,158,1,77,second,,,,,,,,,,,,,,,,,,,,,,,,,,,,,,,,,,,,,,,,,,,,,,,,,,,,,,,,,,,,,,,,,,,
,,,,,,60e163c124453a6eff550552,62bbfb57ab427b48f9822fdb,2022-06-29_09h13.18.268,Colour_Asymmetry_Pilot,2022.1.3,Win32,60.21194605,62bbe60bf3d75ef465d3e404,,,,,,,,,,,,,,,,,,,,fourtwo,,1,1.3653,,,,,,,,,,,,,,,,,,,,,,,,,,,,,,,,,,"[0.6547999999999998,-0.043199999999999905,-0.011800000000000033]","[0.8274000000000001,-0.5844,-0.9452]",67,-89.5,1,0,0,response3disk,18,7.5,1,0,0,rectangle,18,7.5,1,0,0,,2,0.0009,0,18,7.5,1,0,0,0,13,13,146,1,65,second,,,,,,,,,,,,,,,,,,,,,,,,,,,,,,,,,,,,,,,,,,,,,,,,,,,,,,,,,,,,,,,,,,,
,,,,,,60e163c124453a6eff550552,62bbfb57ab427b48f9822fdb,2022-06-29_09h13.18.268,Colour_Asymmetry_Pilot,2022.1.3,Win32,60.21194605,62bbe60bf3d75ef465d3e404,,,,,,,,,,,,,,,,,,,,fourtwo,,2,0.4499,,,,,,,,,,,,,,,,,,,,,,,,,,,,,,,,,,"[-0.9766,-0.6472,0.07440000000000002]","[-0.4982,-0.2942,-0.0354000000000001]",116,-56.5,1,0,0,response3disk,9,0.5,1,0,0,rectangle,9,0.5,1,0,0,,2,1E-04,0,9,0.5,1,0,0,0,14,14,77,1,77,first,,,,,,,,,,,,,,,,,,,,,,,,,,,,,,,,,,,,,,,,,,,,,,,,,,,,,,,,,,,,,,,,,,,
,,,,,,60e163c124453a6eff550552,62bbfb57ab427b48f9822fdb,2022-06-29_09h13.18.268,Colour_Asymmetry_Pilot,2022.1.3,Win32,60.21194605,62bbe60bf3d75ef465d3e404,,,,,,,,,,,,,,,,,,,,fourtwo,,3,1.5835,,,,,,,,,,,,,,,,,,,,,,,,,,,,,,,,,,"[0.22340000000000004,-0.9296,-0.7884]","[0.8274000000000001,-0.5844,-0.9452]",97,25.5,1,0,0,response1disk,-1,-0.5,1,0,0,rectangle,-1,-0.5,1,0,0,,3,0.0011,0,-1,-0.5,1,0,0,0,15,15,18,1,18,first,,,,,,,,,,,,,,,,,,,,,,,,,,,,,,,,,,,,,,,,,,,,,,,,,,,,,,,,,,,,,,,,,,,
,,,,,,60e163c124453a6eff550552,62bbfb57ab427b48f9822fdb,2022-06-29_09h13.18.268,Colour_Asymmetry_Pilot,2022.1.3,Win32,60.21194605,62bbe60bf3d75ef465d3e404,,,,,,,,,,,,,,,,,,,,onetwo,,4,0.4832,,,,,,,,,,,,,,,,,,,,,,,,,,,,,,,,,,"[-0.9688,-0.4902000000000001,-0.12159999999999993]","[-0.24719999999999998,-0.0354000000000001,0.3175999999999999]",44,104.5,1,0,0,response1disk,24,7.5,1,0,0,rectangle,24,7.5,1,0,0,,2,0.0008,0,24,7.5,1,0,0,0,16,16,72,1,72,first,,,,,,,,,,,,,,,,,,,,,,,,,,,,,,,,,,,,,,,,,,,,,,,,,,,,,,,,,,,,,,,,,,,
,,,,,,60e163c124453a6eff550552,62bbfb57ab427b48f9822fdb,2022-06-29_09h13.18.268,Colour_Asymmetry_Pilot,2022.1.3,Win32,60.21194605,62bbe60bf3d75ef465d3e404,,,,,,,,,,,,,,,,,,,,twoone,,-4,1.3335,,,,,,,,,,,,,,,,,,,,,,,,,,,,,,,,,,"[-0.011800000000000033,-0.906,-0.45100000000000007]","[-0.9688,-0.4902000000000001,-0.12159999999999993]",-75,115.5,1,0,0,response7disk,5,-2.5,1,0,0,rectangle,5,-2.5,1,0,0,,1,0.0008,0,5,-2.5,1,0,0,0,17,17,29,1,29,first,,,,,,,,,,,,,,,,,,,,,,,,,,,,,,,,,,,,,,,,,,,,,,,,,,,,,,,,,,,,,,,,,,,
,,,,,,60e163c124453a6eff550552,62bbfb57ab427b48f9822fdb,2022-06-29_09h13.18.268,Colour_Asymmetry_Pilot,2022.1.3,Win32,60.21194605,62bbe60bf3d75ef465d3e404,,,,,,,,,,,,,,,,,,,,onetwo,,-2,0.7332,,,,,,,,,,,,,,,,,,,,,,,,,,,,,,,,,,"[0.23920000000000008,0.2704,0.16060000000000008]","[0.11359999999999992,0.6312,0.5213999999999999]",-96,-65.5,1,0,0,response5disk,6,6.5,1,0,0,rectangle,6,6.5,1,0,0,,3,0.0008,0,6,6.5,1,0,0,0,18,18,83,1,2,second,,,,,,,,,,,,,,,,,,,,,,,,,,,,,,,,,,,,,,,,,,,,,,,,,,,,,,,,,,,,,,,,,,,
,,,,,,60e163c124453a6eff550552,62bbfb57ab427b48f9822fdb,2022-06-29_09h13.18.268,Colour_Asymmetry_Pilot,2022.1.3,Win32,60.21194605,62bbe60bf3d75ef465d3e404,,,,,,,,,,,,,,,,,,,,twofour,,-3,0.6501,,,,,,,,,,,,,,,,,,,,,,,,,,,,,,,,,,"[0.40379999999999994,0.09000000000000008,0.44300000000000006]","[-0.9138,-0.5296000000000001,-0.5529999999999999]",-96,66.5,1,0,0,response7disk,-13,7.5,1,0,0,rectangle,-13,7.5,1,0,0,,3,1E-04,0,-13,7.5,1,0,0,0,19,19,150,1,69,second,,,,,,,,,,,,,,,,,,,,,,,,,,,,,,,,,,,,,,,,,,,,,,,,,,,,,,,,,,,,,,,,,,,
