trials.thisRepN,trials.thisTrialN,trials.thisN,trials.thisIndex,trials.ran,Colourcodes,participant,session,date,expName,psychopyVersion,OS,frameRate,study_id,trials_4.thisRepN,trials_4.thisTrialN,trials_4.thisN,trials_4.thisIndex,trials_4.ran,StimulusPos,key_resp.keys,key_resp.rt,key_resp_2.keys,key_resp_2.rt,key_resp_15.keys,key_resp_15.rt,key_resp_17.keys,key_resp_17.rt,key_resp_9.keys,key_resp_9.rt,key_resp_10.keys,key_resp_10.rt,Circle1_col,Ecc,Circle2_col,similarity,response_time,mouse_5.x,mouse_5.y,mouse_5.leftButton,mouse_5.midButton,mouse_5.rightButton,mouse_5.clicked_name,mouse_10.x,mouse_10.y,mouse_10.leftButton,mouse_10.midButton,mouse_10.rightButton,mouse_10.clicked_name,mouse_7.x,mouse_7.y,mouse_7.leftButton,mouse_7.midButton,mouse_7.rightButton,catchnumberprac,mouse_6.x,mouse_6.y,mouse_6.leftButton,mouse_6.midButton,mouse_6.rightButton,duringprac.thisRepN,duringprac.thisTrialN,duringprac.thisN,duringprac.thisIndex,duringprac.ran,mouse_7.clicked_name,catchprac,mouse_6.clicked_name,key_resp_22.keys,key_resp_22.rt,Circle1_colour,Circle2_colour,mouse.x,mouse.y,mouse.leftButton,mouse.midButton,mouse.rightButton,mouse.clicked_name,mouse_2.x,mouse_2.y,mouse_2.leftButton,mouse_2.midButton,mouse_2.rightButton,mouse_2.clicked_name,mouse_3.x,mouse_3.y,mouse_3.leftButton,mouse_3.midButton,mouse_3.rightButton,catchresponse,catchnumber,response_time_catch,Catch,mouse_11.x,mouse_11.y,mouse_11.leftButton,mouse_11.midButton,mouse_11.rightButton,trials_2.thisRepN,trials_2.thisTrialN,trials_2.thisN,trials_2.thisIndex,trials_2.ran,Colourpair,Temporder,mouse_3.clicked_name,mouse_11.clicked_name,trials_3.thisRepN,trials_3.thisTrialN,trials_3.thisN,trials_3.thisIndex,trials_3.ran,key_resp_instr_Ishi.keys,key_resp_instr_Ishi.rt,Ishi_trial_keyresp.keys,Ishi_trial_keyresp.rt,Ishi_textbox.text,Ishi_loop.thisRepN,Ishi_loop.thisTrialN,Ishi_loop.thisN,Ishi_loop.thisIndex,Ishi_loop.ran,imageaddress,textbox.text,mouse_4.x,mouse_4.y,mouse_4.leftButton,mouse_4.midButton,mouse_4.rightButton,mouse_4.clicked_name,textbox_2.text,mouse_8.x,mouse_8.y,mouse_8.leftButton,mouse_8.midButton,mouse_8.rightButton,mouse_8.clicked_name,textbox_3.text,mouse_9.x,mouse_9.y,mouse_9.leftButton,mouse_9.midButton,mouse_9.rightButton,mouse_9.clicked_name,textbox_4.text,mouse_12.x,mouse_12.y,mouse_12.leftButton,mouse_12.midButton,mouse_12.rightButton,mouse_12.clicked_name,textbox_5.text,mouse_13.x,mouse_13.y,mouse_13.leftButton,mouse_13.midButton,mouse_13.rightButton,mouse_13.clicked_name,textbox_6.text,mouse_14.x,mouse_14.y,mouse_14.leftButton,mouse_14.midButton,mouse_14.rightButton,mouse_14.clicked_name,textbox_7.text,mouse_15.x,mouse_15.y,mouse_15.leftButton,mouse_15.midButton,mouse_15.rightButton,mouse_15.clicked_name
0,0,0,54,1,,5cd7e678df739100011b1839,62bbfb3cd49be600f97778db,2022-06-29_09h25.13.817,Colour_Asymmetry_Pilot,2022.1.3,Win32,30.04536851,62bbe60bf3d75ef465d3e404,,,,,,,,,,,,,,,,,,,,,,,,,,,,,,,,,,,,,,,,,,,,,,,,,,,,,,,,,,,,,,,,,,,,,,,,,,,,,,,,,,,,,,,,,,,,,,,,,,,,,,,,,,,,,,,,,,,,,,,,,,,,,,,,,,,,,,,,,,,,,,,,,,,,,,,,,,,,,,
0,1,1,8,1,,5cd7e678df739100011b1839,62bbfb3cd49be600f97778db,2022-06-29_09h25.13.817,Colour_Asymmetry_Pilot,2022.1.3,Win32,30.04536851,62bbe60bf3d75ef465d3e404,,,,,,,,,,,,,,,,,,,,,,,,,,,,,,,,,,,,,,,,,,,,,,,,,,,,,,,,,,,,,,,,,,,,,,,,,,,,,,,,,,,,,,,,,,,,,,,,,,,,,,,,,,,,,,,,,,,,,,,,,,,,,,,,,,,,,,,,,,,,,,,,,,,,,,,,,,,,,,
0,2,2,35,1,,5cd7e678df739100011b1839,62bbfb3cd49be600f97778db,2022-06-29_09h25.13.817,Colour_Asymmetry_Pilot,2022.1.3,Win32,30.04536851,62bbe60bf3d75ef465d3e404,,,,,,,,,,,,,,,,,,,,,,,,,,,,,,,,,,,,,,,,,,,,,,,,,,,,,,,,,,,,,,,,,,,,,,,,,,,,,,,,,,,,,,,,,,,,,,,,,,,,,,,,,,,,,,,,,,,,,,,,,,,,,,,,,,,,,,,,,,,,,,,,,,,,,,,,,,,,,,
0,3,3,81,1,,5cd7e678df739100011b1839,62bbfb3cd49be600f97778db,2022-06-29_09h25.13.817,Colour_Asymmetry_Pilot,2022.1.3,Win32,30.04536851,62bbe60bf3d75ef465d3e404,,,,,,,,,,,,,,,,,,,,,,,,,,,,,,,,,,,,,,,,,,,,,,,,,,,,,,,,,,,,,,,,,,,,,,,,,,,,,,,,,,,,,,,,,,,,,,,,,,,,,,,,,,,,,,,,,,,,,,,,,,,,,,,,,,,,,,,,,,,,,,,,,,,,,,,,,,,,,,
0,4,4,45,1,,5cd7e678df739100011b1839,62bbfb3cd49be600f97778db,2022-06-29_09h25.13.817,Colour_Asymmetry_Pilot,2022.1.3,Win32,30.04536851,62bbe60bf3d75ef465d3e404,,,,,,,,,,,,,,,,,,,,,,,,,,,,,,,,,,,,,,,,,,,,,,,,,,,,,,,,,,,,,,,,,,,,,,,,,,,,,,,,,,,,,,,,,,,,,,,,,,,,,,,,,,,,,,,,,,,,,,,,,,,,,,,,,,,,,,,,,,,,,,,,,,,,,,,,,,,,,,
0,5,5,4,1,,5cd7e678df739100011b1839,62bbfb3cd49be600f97778db,2022-06-29_09h25.13.817,Colour_Asymmetry_Pilot,2022.1.3,Win32,30.04536851,62bbe60bf3d75ef465d3e404,,,,,,,,,,,,,,,,,,,,,,,,,,,,,,,,,,,,,,,,,,,,,,,,,,,,,,,,,,,,,,,,,,,,,,,,,,,,,,,,,,,,,,,,,,,,,,,,,,,,,,,,,,,,,,,,,,,,,,,,,,,,,,,,,,,,,,,,,,,,,,,,,,,,,,,,,,,,,,
0,6,6,64,1,,5cd7e678df739100011b1839,62bbfb3cd49be600f97778db,2022-06-29_09h25.13.817,Colour_Asymmetry_Pilot,2022.1.3,Win32,30.04536851,62bbe60bf3d75ef465d3e404,,,,,,,,,,,,,,,,,,,,,,,,,,,,,,,,,,,,,,,,,,,,,,,,,,,,,,,,,,,,,,,,,,,,,,,,,,,,,,,,,,,,,,,,,,,,,,,,,,,,,,,,,,,,,,,,,,,,,,,,,,,,,,,,,,,,,,,,,,,,,,,,,,,,,,,,,,,,,,
0,7,7,63,1,,5cd7e678df739100011b1839,62bbfb3cd49be600f97778db,2022-06-29_09h25.13.817,Colour_Asymmetry_Pilot,2022.1.3,Win32,30.04536851,62bbe60bf3d75ef465d3e404,,,,,,,,,,,,,,,,,,,,,,,,,,,,,,,,,,,,,,,,,,,,,,,,,,,,,,,,,,,,,,,,,,,,,,,,,,,,,,,,,,,,,,,,,,,,,,,,,,,,,,,,,,,,,,,,,,,,,,,,,,,,,,,,,,,,,,,,,,,,,,,,,,,,,,,,,,,,,,
0,8,8,77,1,,5cd7e678df739100011b1839,62bbfb3cd49be600f97778db,2022-06-29_09h25.13.817,Colour_Asymmetry_Pilot,2022.1.3,Win32,30.04536851,62bbe60bf3d75ef465d3e404,,,,,,,,,,,,,,,,,,,,,,,,,,,,,,,,,,,,,,,,,,,,,,,,,,,,,,,,,,,,,,,,,,,,,,,,,,,,,,,,,,,,,,,,,,,,,,,,,,,,,,,,,,,,,,,,,,,,,,,,,,,,,,,,,,,,,,,,,,,,,,,,,,,,,,,,,,,,,,
0,9,9,70,1,,5cd7e678df739100011b1839,62bbfb3cd49be600f97778db,2022-06-29_09h25.13.817,Colour_Asymmetry_Pilot,2022.1.3,Win32,30.04536851,62bbe60bf3d75ef465d3e404,,,,,,,,,,,,,,,,,,,,,,,,,,,,,,,,,,,,,,,,,,,,,,,,,,,,,,,,,,,,,,,,,,,,,,,,,,,,,,,,,,,,,,,,,,,,,,,,,,,,,,,,,,,,,,,,,,,,,,,,,,,,,,,,,,,,,,,,,,,,,,,,,,,,,,,,,,,,,,
0,10,10,91,1,,5cd7e678df739100011b1839,62bbfb3cd49be600f97778db,2022-06-29_09h25.13.817,Colour_Asymmetry_Pilot,2022.1.3,Win32,30.04536851,62bbe60bf3d75ef465d3e404,,,,,,,,,,,,,,,,,,,,,,,,,,,,,,,,,,,,,,,,,,,,,,,,,,,,,,,,,,,,,,,,,,,,,,,,,,,,,,,,,,,,,,,,,,,,,,,,,,,,,,,,,,,,,,,,,,,,,,,,,,,,,,,,,,,,,,,,,,,,,,,,,,,,,,,,,,,,,,
0,11,11,65,1,,5cd7e678df739100011b1839,62bbfb3cd49be600f97778db,2022-06-29_09h25.13.817,Colour_Asymmetry_Pilot,2022.1.3,Win32,30.04536851,62bbe60bf3d75ef465d3e404,,,,,,,,,,,,,,,,,,,,,,,,,,,,,,,,,,,,,,,,,,,,,,,,,,,,,,,,,,,,,,,,,,,,,,,,,,,,,,,,,,,,,,,,,,,,,,,,,,,,,,,,,,,,,,,,,,,,,,,,,,,,,,,,,,,,,,,,,,,,,,,,,,,,,,,,,,,,,,
0,12,12,7,1,,5cd7e678df739100011b1839,62bbfb3cd49be600f97778db,2022-06-29_09h25.13.817,Colour_Asymmetry_Pilot,2022.1.3,Win32,30.04536851,62bbe60bf3d75ef465d3e404,,,,,,,,,,,,,,,,,,,,,,,,,,,,,,,,,,,,,,,,,,,,,,,,,,,,,,,,,,,,,,,,,,,,,,,,,,,,,,,,,,,,,,,,,,,,,,,,,,,,,,,,,,,,,,,,,,,,,,,,,,,,,,,,,,,,,,,,,,,,,,,,,,,,,,,,,,,,,,
0,13,13,80,1,,5cd7e678df739100011b1839,62bbfb3cd49be600f97778db,2022-06-29_09h25.13.817,Colour_Asymmetry_Pilot,2022.1.3,Win32,30.04536851,62bbe60bf3d75ef465d3e404,,,,,,,,,,,,,,,,,,,,,,,,,,,,,,,,,,,,,,,,,,,,,,,,,,,,,,,,,,,,,,,,,,,,,,,,,,,,,,,,,,,,,,,,,,,,,,,,,,,,,,,,,,,,,,,,,,,,,,,,,,,,,,,,,,,,,,,,,,,,,,,,,,,,,,,,,,,,,,
0,14,14,46,1,,5cd7e678df739100011b1839,62bbfb3cd49be600f97778db,2022-06-29_09h25.13.817,Colour_Asymmetry_Pilot,2022.1.3,Win32,30.04536851,62bbe60bf3d75ef465d3e404,,,,,,,,,,,,,,,,,,,,,,,,,,,,,,,,,,,,,,,,,,,,,,,,,,,,,,,,,,,,,,,,,,,,,,,,,,,,,,,,,,,,,,,,,,,,,,,,,,,,,,,,,,,,,,,,,,,,,,,,,,,,,,,,,,,,,,,,,,,,,,,,,,,,,,,,,,,,,,
0,15,15,83,1,,5cd7e678df739100011b1839,62bbfb3cd49be600f97778db,2022-06-29_09h25.13.817,Colour_Asymmetry_Pilot,2022.1.3,Win32,30.04536851,62bbe60bf3d75ef465d3e404,,,,,,,,,,,,,,,,,,,,,,,,,,,,,,,,,,,,,,,,,,,,,,,,,,,,,,,,,,,,,,,,,,,,,,,,,,,,,,,,,,,,,,,,,,,,,,,,,,,,,,,,,,,,,,,,,,,,,,,,,,,,,,,,,,,,,,,,,,,,,,,,,,,,,,,,,,,,,,
0,16,16,61,1,,5cd7e678df739100011b1839,62bbfb3cd49be600f97778db,2022-06-29_09h25.13.817,Colour_Asymmetry_Pilot,2022.1.3,Win32,30.04536851,62bbe60bf3d75ef465d3e404,,,,,,,,,,,,,,,,,,,,,,,,,,,,,,,,,,,,,,,,,,,,,,,,,,,,,,,,,,,,,,,,,,,,,,,,,,,,,,,,,,,,,,,,,,,,,,,,,,,,,,,,,,,,,,,,,,,,,,,,,,,,,,,,,,,,,,,,,,,,,,,,,,,,,,,,,,,,,,
0,17,17,28,1,,5cd7e678df739100011b1839,62bbfb3cd49be600f97778db,2022-06-29_09h25.13.817,Colour_Asymmetry_Pilot,2022.1.3,Win32,30.04536851,62bbe60bf3d75ef465d3e404,,,,,,,,,,,,,,,,,,,,,,,,,,,,,,,,,,,,,,,,,,,,,,,,,,,,,,,,,,,,,,,,,,,,,,,,,,,,,,,,,,,,,,,,,,,,,,,,,,,,,,,,,,,,,,,,,,,,,,,,,,,,,,,,,,,,,,,,,,,,,,,,,,,,,,,,,,,,,,
0,18,18,74,1,,5cd7e678df739100011b1839,62bbfb3cd49be600f97778db,2022-06-29_09h25.13.817,Colour_Asymmetry_Pilot,2022.1.3,Win32,30.04536851,62bbe60bf3d75ef465d3e404,,,,,,,,,,,,,,,,,,,,,,,,,,,,,,,,,,,,,,,,,,,,,,,,,,,,,,,,,,,,,,,,,,,,,,,,,,,,,,,,,,,,,,,,,,,,,,,,,,,,,,,,,,,,,,,,,,,,,,,,,,,,,,,,,,,,,,,,,,,,,,,,,,,,,,,,,,,,,,
0,19,19,78,1,,5cd7e678df739100011b1839,62bbfb3cd49be600f97778db,2022-06-29_09h25.13.817,Colour_Asymmetry_Pilot,2022.1.3,Win32,30.04536851,62bbe60bf3d75ef465d3e404,,,,,,,,,,,,,,,,,,,,,,,,,,,,,,,,,,,,,,,,,,,,,,,,,,,,,,,,,,,,,,,,,,,,,,,,,,,,,,,,,,,,,,,,,,,,,,,,,,,,,,,,,,,,,,,,,,,,,,,,,,,,,,,,,,,,,,,,,,,,,,,,,,,,,,,,,,,,,,
0,20,20,27,1,,5cd7e678df739100011b1839,62bbfb3cd49be600f97778db,2022-06-29_09h25.13.817,Colour_Asymmetry_Pilot,2022.1.3,Win32,30.04536851,62bbe60bf3d75ef465d3e404,,,,,,,,,,,,,,,,,,,,,,,,,,,,,,,,,,,,,,,,,,,,,,,,,,,,,,,,,,,,,,,,,,,,,,,,,,,,,,,,,,,,,,,,,,,,,,,,,,,,,,,,,,,,,,,,,,,,,,,,,,,,,,,,,,,,,,,,,,,,,,,,,,,,,,,,,,,,,,
0,21,21,22,1,,5cd7e678df739100011b1839,62bbfb3cd49be600f97778db,2022-06-29_09h25.13.817,Colour_Asymmetry_Pilot,2022.1.3,Win32,30.04536851,62bbe60bf3d75ef465d3e404,,,,,,,,,,,,,,,,,,,,,,,,,,,,,,,,,,,,,,,,,,,,,,,,,,,,,,,,,,,,,,,,,,,,,,,,,,,,,,,,,,,,,,,,,,,,,,,,,,,,,,,,,,,,,,,,,,,,,,,,,,,,,,,,,,,,,,,,,,,,,,,,,,,,,,,,,,,,,,
0,22,22,37,1,,5cd7e678df739100011b1839,62bbfb3cd49be600f97778db,2022-06-29_09h25.13.817,Colour_Asymmetry_Pilot,2022.1.3,Win32,30.04536851,62bbe60bf3d75ef465d3e404,,,,,,,,,,,,,,,,,,,,,,,,,,,,,,,,,,,,,,,,,,,,,,,,,,,,,,,,,,,,,,,,,,,,,,,,,,,,,,,,,,,,,,,,,,,,,,,,,,,,,,,,,,,,,,,,,,,,,,,,,,,,,,,,,,,,,,,,,,,,,,,,,,,,,,,,,,,,,,
0,23,23,5,1,,5cd7e678df739100011b1839,62bbfb3cd49be600f97778db,2022-06-29_09h25.13.817,Colour_Asymmetry_Pilot,2022.1.3,Win32,30.04536851,62bbe60bf3d75ef465d3e404,,,,,,,,,,,,,,,,,,,,,,,,,,,,,,,,,,,,,,,,,,,,,,,,,,,,,,,,,,,,,,,,,,,,,,,,,,,,,,,,,,,,,,,,,,,,,,,,,,,,,,,,,,,,,,,,,,,,,,,,,,,,,,,,,,,,,,,,,,,,,,,,,,,,,,,,,,,,,,
0,24,24,1,1,,5cd7e678df739100011b1839,62bbfb3cd49be600f97778db,2022-06-29_09h25.13.817,Colour_Asymmetry_Pilot,2022.1.3,Win32,30.04536851,62bbe60bf3d75ef465d3e404,,,,,,,,,,,,,,,,,,,,,,,,,,,,,,,,,,,,,,,,,,,,,,,,,,,,,,,,,,,,,,,,,,,,,,,,,,,,,,,,,,,,,,,,,,,,,,,,,,,,,,,,,,,,,,,,,,,,,,,,,,,,,,,,,,,,,,,,,,,,,,,,,,,,,,,,,,,,,,
0,25,25,59,1,,5cd7e678df739100011b1839,62bbfb3cd49be600f97778db,2022-06-29_09h25.13.817,Colour_Asymmetry_Pilot,2022.1.3,Win32,30.04536851,62bbe60bf3d75ef465d3e404,,,,,,,,,,,,,,,,,,,,,,,,,,,,,,,,,,,,,,,,,,,,,,,,,,,,,,,,,,,,,,,,,,,,,,,,,,,,,,,,,,,,,,,,,,,,,,,,,,,,,,,,,,,,,,,,,,,,,,,,,,,,,,,,,,,,,,,,,,,,,,,,,,,,,,,,,,,,,,
0,26,26,57,1,,5cd7e678df739100011b1839,62bbfb3cd49be600f97778db,2022-06-29_09h25.13.817,Colour_Asymmetry_Pilot,2022.1.3,Win32,30.04536851,62bbe60bf3d75ef465d3e404,,,,,,,,,,,,,,,,,,,,,,,,,,,,,,,,,,,,,,,,,,,,,,,,,,,,,,,,,,,,,,,,,,,,,,,,,,,,,,,,,,,,,,,,,,,,,,,,,,,,,,,,,,,,,,,,,,,,,,,,,,,,,,,,,,,,,,,,,,,,,,,,,,,,,,,,,,,,,,
0,27,27,42,1,,5cd7e678df739100011b1839,62bbfb3cd49be600f97778db,2022-06-29_09h25.13.817,Colour_Asymmetry_Pilot,2022.1.3,Win32,30.04536851,62bbe60bf3d75ef465d3e404,,,,,,,,,,,,,,,,,,,,,,,,,,,,,,,,,,,,,,,,,,,,,,,,,,,,,,,,,,,,,,,,,,,,,,,,,,,,,,,,,,,,,,,,,,,,,,,,,,,,,,,,,,,,,,,,,,,,,,,,,,,,,,,,,,,,,,,,,,,,,,,,,,,,,,,,,,,,,,
0,28,28,51,1,,5cd7e678df739100011b1839,62bbfb3cd49be600f97778db,2022-06-29_09h25.13.817,Colour_Asymmetry_Pilot,2022.1.3,Win32,30.04536851,62bbe60bf3d75ef465d3e404,,,,,,,,,,,,,,,,,,,,,,,,,,,,,,,,,,,,,,,,,,,,,,,,,,,,,,,,,,,,,,,,,,,,,,,,,,,,,,,,,,,,,,,,,,,,,,,,,,,,,,,,,,,,,,,,,,,,,,,,,,,,,,,,,,,,,,,,,,,,,,,,,,,,,,,,,,,,,,
0,29,29,48,1,,5cd7e678df739100011b1839,62bbfb3cd49be600f97778db,2022-06-29_09h25.13.817,Colour_Asymmetry_Pilot,2022.1.3,Win32,30.04536851,62bbe60bf3d75ef465d3e404,,,,,,,,,,,,,,,,,,,,,,,,,,,,,,,,,,,,,,,,,,,,,,,,,,,,,,,,,,,,,,,,,,,,,,,,,,,,,,,,,,,,,,,,,,,,,,,,,,,,,,,,,,,,,,,,,,,,,,,,,,,,,,,,,,,,,,,,,,,,,,,,,,,,,,,,,,,,,,
0,30,30,41,1,,5cd7e678df739100011b1839,62bbfb3cd49be600f97778db,2022-06-29_09h25.13.817,Colour_Asymmetry_Pilot,2022.1.3,Win32,30.04536851,62bbe60bf3d75ef465d3e404,,,,,,,,,,,,,,,,,,,,,,,,,,,,,,,,,,,,,,,,,,,,,,,,,,,,,,,,,,,,,,,,,,,,,,,,,,,,,,,,,,,,,,,,,,,,,,,,,,,,,,,,,,,,,,,,,,,,,,,,,,,,,,,,,,,,,,,,,,,,,,,,,,,,,,,,,,,,,,
0,31,31,90,1,,5cd7e678df739100011b1839,62bbfb3cd49be600f97778db,2022-06-29_09h25.13.817,Colour_Asymmetry_Pilot,2022.1.3,Win32,30.04536851,62bbe60bf3d75ef465d3e404,,,,,,,,,,,,,,,,,,,,,,,,,,,,,,,,,,,,,,,,,,,,,,,,,,,,,,,,,,,,,,,,,,,,,,,,,,,,,,,,,,,,,,,,,,,,,,,,,,,,,,,,,,,,,,,,,,,,,,,,,,,,,,,,,,,,,,,,,,,,,,,,,,,,,,,,,,,,,,
0,32,32,79,1,,5cd7e678df739100011b1839,62bbfb3cd49be600f97778db,2022-06-29_09h25.13.817,Colour_Asymmetry_Pilot,2022.1.3,Win32,30.04536851,62bbe60bf3d75ef465d3e404,,,,,,,,,,,,,,,,,,,,,,,,,,,,,,,,,,,,,,,,,,,,,,,,,,,,,,,,,,,,,,,,,,,,,,,,,,,,,,,,,,,,,,,,,,,,,,,,,,,,,,,,,,,,,,,,,,,,,,,,,,,,,,,,,,,,,,,,,,,,,,,,,,,,,,,,,,,,,,
0,33,33,17,1,,5cd7e678df739100011b1839,62bbfb3cd49be600f97778db,2022-06-29_09h25.13.817,Colour_Asymmetry_Pilot,2022.1.3,Win32,30.04536851,62bbe60bf3d75ef465d3e404,,,,,,,,,,,,,,,,,,,,,,,,,,,,,,,,,,,,,,,,,,,,,,,,,,,,,,,,,,,,,,,,,,,,,,,,,,,,,,,,,,,,,,,,,,,,,,,,,,,,,,,,,,,,,,,,,,,,,,,,,,,,,,,,,,,,,,,,,,,,,,,,,,,,,,,,,,,,,,
0,34,34,67,1,,5cd7e678df739100011b1839,62bbfb3cd49be600f97778db,2022-06-29_09h25.13.817,Colour_Asymmetry_Pilot,2022.1.3,Win32,30.04536851,62bbe60bf3d75ef465d3e404,,,,,,,,,,,,,,,,,,,,,,,,,,,,,,,,,,,,,,,,,,,,,,,,,,,,,,,,,,,,,,,,,,,,,,,,,,,,,,,,,,,,,,,,,,,,,,,,,,,,,,,,,,,,,,,,,,,,,,,,,,,,,,,,,,,,,,,,,,,,,,,,,,,,,,,,,,,,,,
0,35,35,58,1,,5cd7e678df739100011b1839,62bbfb3cd49be600f97778db,2022-06-29_09h25.13.817,Colour_Asymmetry_Pilot,2022.1.3,Win32,30.04536851,62bbe60bf3d75ef465d3e404,,,,,,,,,,,,,,,,,,,,,,,,,,,,,,,,,,,,,,,,,,,,,,,,,,,,,,,,,,,,,,,,,,,,,,,,,,,,,,,,,,,,,,,,,,,,,,,,,,,,,,,,,,,,,,,,,,,,,,,,,,,,,,,,,,,,,,,,,,,,,,,,,,,,,,,,,,,,,,
0,36,36,84,1,,5cd7e678df739100011b1839,62bbfb3cd49be600f97778db,2022-06-29_09h25.13.817,Colour_Asymmetry_Pilot,2022.1.3,Win32,30.04536851,62bbe60bf3d75ef465d3e404,,,,,,,,,,,,,,,,,,,,,,,,,,,,,,,,,,,,,,,,,,,,,,,,,,,,,,,,,,,,,,,,,,,,,,,,,,,,,,,,,,,,,,,,,,,,,,,,,,,,,,,,,,,,,,,,,,,,,,,,,,,,,,,,,,,,,,,,,,,,,,,,,,,,,,,,,,,,,,
0,37,37,36,1,,5cd7e678df739100011b1839,62bbfb3cd49be600f97778db,2022-06-29_09h25.13.817,Colour_Asymmetry_Pilot,2022.1.3,Win32,30.04536851,62bbe60bf3d75ef465d3e404,,,,,,,,,,,,,,,,,,,,,,,,,,,,,,,,,,,,,,,,,,,,,,,,,,,,,,,,,,,,,,,,,,,,,,,,,,,,,,,,,,,,,,,,,,,,,,,,,,,,,,,,,,,,,,,,,,,,,,,,,,,,,,,,,,,,,,,,,,,,,,,,,,,,,,,,,,,,,,
0,38,38,21,1,,5cd7e678df739100011b1839,62bbfb3cd49be600f97778db,2022-06-29_09h25.13.817,Colour_Asymmetry_Pilot,2022.1.3,Win32,30.04536851,62bbe60bf3d75ef465d3e404,,,,,,,,,,,,,,,,,,,,,,,,,,,,,,,,,,,,,,,,,,,,,,,,,,,,,,,,,,,,,,,,,,,,,,,,,,,,,,,,,,,,,,,,,,,,,,,,,,,,,,,,,,,,,,,,,,,,,,,,,,,,,,,,,,,,,,,,,,,,,,,,,,,,,,,,,,,,,,
0,39,39,68,1,,5cd7e678df739100011b1839,62bbfb3cd49be600f97778db,2022-06-29_09h25.13.817,Colour_Asymmetry_Pilot,2022.1.3,Win32,30.04536851,62bbe60bf3d75ef465d3e404,,,,,,,,,,,,,,,,,,,,,,,,,,,,,,,,,,,,,,,,,,,,,,,,,,,,,,,,,,,,,,,,,,,,,,,,,,,,,,,,,,,,,,,,,,,,,,,,,,,,,,,,,,,,,,,,,,,,,,,,,,,,,,,,,,,,,,,,,,,,,,,,,,,,,,,,,,,,,,
0,40,40,10,1,,5cd7e678df739100011b1839,62bbfb3cd49be600f97778db,2022-06-29_09h25.13.817,Colour_Asymmetry_Pilot,2022.1.3,Win32,30.04536851,62bbe60bf3d75ef465d3e404,,,,,,,,,,,,,,,,,,,,,,,,,,,,,,,,,,,,,,,,,,,,,,,,,,,,,,,,,,,,,,,,,,,,,,,,,,,,,,,,,,,,,,,,,,,,,,,,,,,,,,,,,,,,,,,,,,,,,,,,,,,,,,,,,,,,,,,,,,,,,,,,,,,,,,,,,,,,,,
0,41,41,32,1,,5cd7e678df739100011b1839,62bbfb3cd49be600f97778db,2022-06-29_09h25.13.817,Colour_Asymmetry_Pilot,2022.1.3,Win32,30.04536851,62bbe60bf3d75ef465d3e404,,,,,,,,,,,,,,,,,,,,,,,,,,,,,,,,,,,,,,,,,,,,,,,,,,,,,,,,,,,,,,,,,,,,,,,,,,,,,,,,,,,,,,,,,,,,,,,,,,,,,,,,,,,,,,,,,,,,,,,,,,,,,,,,,,,,,,,,,,,,,,,,,,,,,,,,,,,,,,
0,42,42,33,1,,5cd7e678df739100011b1839,62bbfb3cd49be600f97778db,2022-06-29_09h25.13.817,Colour_Asymmetry_Pilot,2022.1.3,Win32,30.04536851,62bbe60bf3d75ef465d3e404,,,,,,,,,,,,,,,,,,,,,,,,,,,,,,,,,,,,,,,,,,,,,,,,,,,,,,,,,,,,,,,,,,,,,,,,,,,,,,,,,,,,,,,,,,,,,,,,,,,,,,,,,,,,,,,,,,,,,,,,,,,,,,,,,,,,,,,,,,,,,,,,,,,,,,,,,,,,,,
0,43,43,55,1,,5cd7e678df739100011b1839,62bbfb3cd49be600f97778db,2022-06-29_09h25.13.817,Colour_Asymmetry_Pilot,2022.1.3,Win32,30.04536851,62bbe60bf3d75ef465d3e404,,,,,,,,,,,,,,,,,,,,,,,,,,,,,,,,,,,,,,,,,,,,,,,,,,,,,,,,,,,,,,,,,,,,,,,,,,,,,,,,,,,,,,,,,,,,,,,,,,,,,,,,,,,,,,,,,,,,,,,,,,,,,,,,,,,,,,,,,,,,,,,,,,,,,,,,,,,,,,
0,44,44,34,1,,5cd7e678df739100011b1839,62bbfb3cd49be600f97778db,2022-06-29_09h25.13.817,Colour_Asymmetry_Pilot,2022.1.3,Win32,30.04536851,62bbe60bf3d75ef465d3e404,,,,,,,,,,,,,,,,,,,,,,,,,,,,,,,,,,,,,,,,,,,,,,,,,,,,,,,,,,,,,,,,,,,,,,,,,,,,,,,,,,,,,,,,,,,,,,,,,,,,,,,,,,,,,,,,,,,,,,,,,,,,,,,,,,,,,,,,,,,,,,,,,,,,,,,,,,,,,,
0,45,45,47,1,,5cd7e678df739100011b1839,62bbfb3cd49be600f97778db,2022-06-29_09h25.13.817,Colour_Asymmetry_Pilot,2022.1.3,Win32,30.04536851,62bbe60bf3d75ef465d3e404,,,,,,,,,,,,,,,,,,,,,,,,,,,,,,,,,,,,,,,,,,,,,,,,,,,,,,,,,,,,,,,,,,,,,,,,,,,,,,,,,,,,,,,,,,,,,,,,,,,,,,,,,,,,,,,,,,,,,,,,,,,,,,,,,,,,,,,,,,,,,,,,,,,,,,,,,,,,,,
0,46,46,12,1,,5cd7e678df739100011b1839,62bbfb3cd49be600f97778db,2022-06-29_09h25.13.817,Colour_Asymmetry_Pilot,2022.1.3,Win32,30.04536851,62bbe60bf3d75ef465d3e404,,,,,,,,,,,,,,,,,,,,,,,,,,,,,,,,,,,,,,,,,,,,,,,,,,,,,,,,,,,,,,,,,,,,,,,,,,,,,,,,,,,,,,,,,,,,,,,,,,,,,,,,,,,,,,,,,,,,,,,,,,,,,,,,,,,,,,,,,,,,,,,,,,,,,,,,,,,,,,
0,47,47,49,1,,5cd7e678df739100011b1839,62bbfb3cd49be600f97778db,2022-06-29_09h25.13.817,Colour_Asymmetry_Pilot,2022.1.3,Win32,30.04536851,62bbe60bf3d75ef465d3e404,,,,,,,,,,,,,,,,,,,,,,,,,,,,,,,,,,,,,,,,,,,,,,,,,,,,,,,,,,,,,,,,,,,,,,,,,,,,,,,,,,,,,,,,,,,,,,,,,,,,,,,,,,,,,,,,,,,,,,,,,,,,,,,,,,,,,,,,,,,,,,,,,,,,,,,,,,,,,,
0,48,48,66,1,,5cd7e678df739100011b1839,62bbfb3cd49be600f97778db,2022-06-29_09h25.13.817,Colour_Asymmetry_Pilot,2022.1.3,Win32,30.04536851,62bbe60bf3d75ef465d3e404,,,,,,,,,,,,,,,,,,,,,,,,,,,,,,,,,,,,,,,,,,,,,,,,,,,,,,,,,,,,,,,,,,,,,,,,,,,,,,,,,,,,,,,,,,,,,,,,,,,,,,,,,,,,,,,,,,,,,,,,,,,,,,,,,,,,,,,,,,,,,,,,,,,,,,,,,,,,,,
0,49,49,26,1,,5cd7e678df739100011b1839,62bbfb3cd49be600f97778db,2022-06-29_09h25.13.817,Colour_Asymmetry_Pilot,2022.1.3,Win32,30.04536851,62bbe60bf3d75ef465d3e404,,,,,,,,,,,,,,,,,,,,,,,,,,,,,,,,,,,,,,,,,,,,,,,,,,,,,,,,,,,,,,,,,,,,,,,,,,,,,,,,,,,,,,,,,,,,,,,,,,,,,,,,,,,,,,,,,,,,,,,,,,,,,,,,,,,,,,,,,,,,,,,,,,,,,,,,,,,,,,
0,50,50,19,1,,5cd7e678df739100011b1839,62bbfb3cd49be600f97778db,2022-06-29_09h25.13.817,Colour_Asymmetry_Pilot,2022.1.3,Win32,30.04536851,62bbe60bf3d75ef465d3e404,,,,,,,,,,,,,,,,,,,,,,,,,,,,,,,,,,,,,,,,,,,,,,,,,,,,,,,,,,,,,,,,,,,,,,,,,,,,,,,,,,,,,,,,,,,,,,,,,,,,,,,,,,,,,,,,,,,,,,,,,,,,,,,,,,,,,,,,,,,,,,,,,,,,,,,,,,,,,,
0,51,51,9,1,,5cd7e678df739100011b1839,62bbfb3cd49be600f97778db,2022-06-29_09h25.13.817,Colour_Asymmetry_Pilot,2022.1.3,Win32,30.04536851,62bbe60bf3d75ef465d3e404,,,,,,,,,,,,,,,,,,,,,,,,,,,,,,,,,,,,,,,,,,,,,,,,,,,,,,,,,,,,,,,,,,,,,,,,,,,,,,,,,,,,,,,,,,,,,,,,,,,,,,,,,,,,,,,,,,,,,,,,,,,,,,,,,,,,,,,,,,,,,,,,,,,,,,,,,,,,,,
0,52,52,50,1,,5cd7e678df739100011b1839,62bbfb3cd49be600f97778db,2022-06-29_09h25.13.817,Colour_Asymmetry_Pilot,2022.1.3,Win32,30.04536851,62bbe60bf3d75ef465d3e404,,,,,,,,,,,,,,,,,,,,,,,,,,,,,,,,,,,,,,,,,,,,,,,,,,,,,,,,,,,,,,,,,,,,,,,,,,,,,,,,,,,,,,,,,,,,,,,,,,,,,,,,,,,,,,,,,,,,,,,,,,,,,,,,,,,,,,,,,,,,,,,,,,,,,,,,,,,,,,
0,53,53,92,1,,5cd7e678df739100011b1839,62bbfb3cd49be600f97778db,2022-06-29_09h25.13.817,Colour_Asymmetry_Pilot,2022.1.3,Win32,30.04536851,62bbe60bf3d75ef465d3e404,,,,,,,,,,,,,,,,,,,,,,,,,,,,,,,,,,,,,,,,,,,,,,,,,,,,,,,,,,,,,,,,,,,,,,,,,,,,,,,,,,,,,,,,,,,,,,,,,,,,,,,,,,,,,,,,,,,,,,,,,,,,,,,,,,,,,,,,,,,,,,,,,,,,,,,,,,,,,,
0,54,54,43,1,,5cd7e678df739100011b1839,62bbfb3cd49be600f97778db,2022-06-29_09h25.13.817,Colour_Asymmetry_Pilot,2022.1.3,Win32,30.04536851,62bbe60bf3d75ef465d3e404,,,,,,,,,,,,,,,,,,,,,,,,,,,,,,,,,,,,,,,,,,,,,,,,,,,,,,,,,,,,,,,,,,,,,,,,,,,,,,,,,,,,,,,,,,,,,,,,,,,,,,,,,,,,,,,,,,,,,,,,,,,,,,,,,,,,,,,,,,,,,,,,,,,,,,,,,,,,,,
0,55,55,62,1,,5cd7e678df739100011b1839,62bbfb3cd49be600f97778db,2022-06-29_09h25.13.817,Colour_Asymmetry_Pilot,2022.1.3,Win32,30.04536851,62bbe60bf3d75ef465d3e404,,,,,,,,,,,,,,,,,,,,,,,,,,,,,,,,,,,,,,,,,,,,,,,,,,,,,,,,,,,,,,,,,,,,,,,,,,,,,,,,,,,,,,,,,,,,,,,,,,,,,,,,,,,,,,,,,,,,,,,,,,,,,,,,,,,,,,,,,,,,,,,,,,,,,,,,,,,,,,
0,56,56,76,1,,5cd7e678df739100011b1839,62bbfb3cd49be600f97778db,2022-06-29_09h25.13.817,Colour_Asymmetry_Pilot,2022.1.3,Win32,30.04536851,62bbe60bf3d75ef465d3e404,,,,,,,,,,,,,,,,,,,,,,,,,,,,,,,,,,,,,,,,,,,,,,,,,,,,,,,,,,,,,,,,,,,,,,,,,,,,,,,,,,,,,,,,,,,,,,,,,,,,,,,,,,,,,,,,,,,,,,,,,,,,,,,,,,,,,,,,,,,,,,,,,,,,,,,,,,,,,,
0,57,57,44,1,,5cd7e678df739100011b1839,62bbfb3cd49be600f97778db,2022-06-29_09h25.13.817,Colour_Asymmetry_Pilot,2022.1.3,Win32,30.04536851,62bbe60bf3d75ef465d3e404,,,,,,,,,,,,,,,,,,,,,,,,,,,,,,,,,,,,,,,,,,,,,,,,,,,,,,,,,,,,,,,,,,,,,,,,,,,,,,,,,,,,,,,,,,,,,,,,,,,,,,,,,,,,,,,,,,,,,,,,,,,,,,,,,,,,,,,,,,,,,,,,,,,,,,,,,,,,,,
0,58,58,18,1,,5cd7e678df739100011b1839,62bbfb3cd49be600f97778db,2022-06-29_09h25.13.817,Colour_Asymmetry_Pilot,2022.1.3,Win32,30.04536851,62bbe60bf3d75ef465d3e404,,,,,,,,,,,,,,,,,,,,,,,,,,,,,,,,,,,,,,,,,,,,,,,,,,,,,,,,,,,,,,,,,,,,,,,,,,,,,,,,,,,,,,,,,,,,,,,,,,,,,,,,,,,,,,,,,,,,,,,,,,,,,,,,,,,,,,,,,,,,,,,,,,,,,,,,,,,,,,
0,59,59,71,1,,5cd7e678df739100011b1839,62bbfb3cd49be600f97778db,2022-06-29_09h25.13.817,Colour_Asymmetry_Pilot,2022.1.3,Win32,30.04536851,62bbe60bf3d75ef465d3e404,,,,,,,,,,,,,,,,,,,,,,,,,,,,,,,,,,,,,,,,,,,,,,,,,,,,,,,,,,,,,,,,,,,,,,,,,,,,,,,,,,,,,,,,,,,,,,,,,,,,,,,,,,,,,,,,,,,,,,,,,,,,,,,,,,,,,,,,,,,,,,,,,,,,,,,,,,,,,,
0,60,60,30,1,,5cd7e678df739100011b1839,62bbfb3cd49be600f97778db,2022-06-29_09h25.13.817,Colour_Asymmetry_Pilot,2022.1.3,Win32,30.04536851,62bbe60bf3d75ef465d3e404,,,,,,,,,,,,,,,,,,,,,,,,,,,,,,,,,,,,,,,,,,,,,,,,,,,,,,,,,,,,,,,,,,,,,,,,,,,,,,,,,,,,,,,,,,,,,,,,,,,,,,,,,,,,,,,,,,,,,,,,,,,,,,,,,,,,,,,,,,,,,,,,,,,,,,,,,,,,,,
0,61,61,89,1,,5cd7e678df739100011b1839,62bbfb3cd49be600f97778db,2022-06-29_09h25.13.817,Colour_Asymmetry_Pilot,2022.1.3,Win32,30.04536851,62bbe60bf3d75ef465d3e404,,,,,,,,,,,,,,,,,,,,,,,,,,,,,,,,,,,,,,,,,,,,,,,,,,,,,,,,,,,,,,,,,,,,,,,,,,,,,,,,,,,,,,,,,,,,,,,,,,,,,,,,,,,,,,,,,,,,,,,,,,,,,,,,,,,,,,,,,,,,,,,,,,,,,,,,,,,,,,
0,62,62,15,1,,5cd7e678df739100011b1839,62bbfb3cd49be600f97778db,2022-06-29_09h25.13.817,Colour_Asymmetry_Pilot,2022.1.3,Win32,30.04536851,62bbe60bf3d75ef465d3e404,,,,,,,,,,,,,,,,,,,,,,,,,,,,,,,,,,,,,,,,,,,,,,,,,,,,,,,,,,,,,,,,,,,,,,,,,,,,,,,,,,,,,,,,,,,,,,,,,,,,,,,,,,,,,,,,,,,,,,,,,,,,,,,,,,,,,,,,,,,,,,,,,,,,,,,,,,,,,,
0,63,63,56,1,,5cd7e678df739100011b1839,62bbfb3cd49be600f97778db,2022-06-29_09h25.13.817,Colour_Asymmetry_Pilot,2022.1.3,Win32,30.04536851,62bbe60bf3d75ef465d3e404,,,,,,,,,,,,,,,,,,,,,,,,,,,,,,,,,,,,,,,,,,,,,,,,,,,,,,,,,,,,,,,,,,,,,,,,,,,,,,,,,,,,,,,,,,,,,,,,,,,,,,,,,,,,,,,,,,,,,,,,,,,,,,,,,,,,,,,,,,,,,,,,,,,,,,,,,,,,,,
0,64,64,2,1,,5cd7e678df739100011b1839,62bbfb3cd49be600f97778db,2022-06-29_09h25.13.817,Colour_Asymmetry_Pilot,2022.1.3,Win32,30.04536851,62bbe60bf3d75ef465d3e404,,,,,,,,,,,,,,,,,,,,,,,,,,,,,,,,,,,,,,,,,,,,,,,,,,,,,,,,,,,,,,,,,,,,,,,,,,,,,,,,,,,,,,,,,,,,,,,,,,,,,,,,,,,,,,,,,,,,,,,,,,,,,,,,,,,,,,,,,,,,,,,,,,,,,,,,,,,,,,
0,65,65,31,1,,5cd7e678df739100011b1839,62bbfb3cd49be600f97778db,2022-06-29_09h25.13.817,Colour_Asymmetry_Pilot,2022.1.3,Win32,30.04536851,62bbe60bf3d75ef465d3e404,,,,,,,,,,,,,,,,,,,,,,,,,,,,,,,,,,,,,,,,,,,,,,,,,,,,,,,,,,,,,,,,,,,,,,,,,,,,,,,,,,,,,,,,,,,,,,,,,,,,,,,,,,,,,,,,,,,,,,,,,,,,,,,,,,,,,,,,,,,,,,,,,,,,,,,,,,,,,,
0,66,66,52,1,,5cd7e678df739100011b1839,62bbfb3cd49be600f97778db,2022-06-29_09h25.13.817,Colour_Asymmetry_Pilot,2022.1.3,Win32,30.04536851,62bbe60bf3d75ef465d3e404,,,,,,,,,,,,,,,,,,,,,,,,,,,,,,,,,,,,,,,,,,,,,,,,,,,,,,,,,,,,,,,,,,,,,,,,,,,,,,,,,,,,,,,,,,,,,,,,,,,,,,,,,,,,,,,,,,,,,,,,,,,,,,,,,,,,,,,,,,,,,,,,,,,,,,,,,,,,,,
0,67,67,72,1,,5cd7e678df739100011b1839,62bbfb3cd49be600f97778db,2022-06-29_09h25.13.817,Colour_Asymmetry_Pilot,2022.1.3,Win32,30.04536851,62bbe60bf3d75ef465d3e404,,,,,,,,,,,,,,,,,,,,,,,,,,,,,,,,,,,,,,,,,,,,,,,,,,,,,,,,,,,,,,,,,,,,,,,,,,,,,,,,,,,,,,,,,,,,,,,,,,,,,,,,,,,,,,,,,,,,,,,,,,,,,,,,,,,,,,,,,,,,,,,,,,,,,,,,,,,,,,
0,68,68,38,1,,5cd7e678df739100011b1839,62bbfb3cd49be600f97778db,2022-06-29_09h25.13.817,Colour_Asymmetry_Pilot,2022.1.3,Win32,30.04536851,62bbe60bf3d75ef465d3e404,,,,,,,,,,,,,,,,,,,,,,,,,,,,,,,,,,,,,,,,,,,,,,,,,,,,,,,,,,,,,,,,,,,,,,,,,,,,,,,,,,,,,,,,,,,,,,,,,,,,,,,,,,,,,,,,,,,,,,,,,,,,,,,,,,,,,,,,,,,,,,,,,,,,,,,,,,,,,,
0,69,69,20,1,,5cd7e678df739100011b1839,62bbfb3cd49be600f97778db,2022-06-29_09h25.13.817,Colour_Asymmetry_Pilot,2022.1.3,Win32,30.04536851,62bbe60bf3d75ef465d3e404,,,,,,,,,,,,,,,,,,,,,,,,,,,,,,,,,,,,,,,,,,,,,,,,,,,,,,,,,,,,,,,,,,,,,,,,,,,,,,,,,,,,,,,,,,,,,,,,,,,,,,,,,,,,,,,,,,,,,,,,,,,,,,,,,,,,,,,,,,,,,,,,,,,,,,,,,,,,,,
0,70,70,6,1,,5cd7e678df739100011b1839,62bbfb3cd49be600f97778db,2022-06-29_09h25.13.817,Colour_Asymmetry_Pilot,2022.1.3,Win32,30.04536851,62bbe60bf3d75ef465d3e404,,,,,,,,,,,,,,,,,,,,,,,,,,,,,,,,,,,,,,,,,,,,,,,,,,,,,,,,,,,,,,,,,,,,,,,,,,,,,,,,,,,,,,,,,,,,,,,,,,,,,,,,,,,,,,,,,,,,,,,,,,,,,,,,,,,,,,,,,,,,,,,,,,,,,,,,,,,,,,
0,71,71,3,1,,5cd7e678df739100011b1839,62bbfb3cd49be600f97778db,2022-06-29_09h25.13.817,Colour_Asymmetry_Pilot,2022.1.3,Win32,30.04536851,62bbe60bf3d75ef465d3e404,,,,,,,,,,,,,,,,,,,,,,,,,,,,,,,,,,,,,,,,,,,,,,,,,,,,,,,,,,,,,,,,,,,,,,,,,,,,,,,,,,,,,,,,,,,,,,,,,,,,,,,,,,,,,,,,,,,,,,,,,,,,,,,,,,,,,,,,,,,,,,,,,,,,,,,,,,,,,,
0,72,72,69,1,,5cd7e678df739100011b1839,62bbfb3cd49be600f97778db,2022-06-29_09h25.13.817,Colour_Asymmetry_Pilot,2022.1.3,Win32,30.04536851,62bbe60bf3d75ef465d3e404,,,,,,,,,,,,,,,,,,,,,,,,,,,,,,,,,,,,,,,,,,,,,,,,,,,,,,,,,,,,,,,,,,,,,,,,,,,,,,,,,,,,,,,,,,,,,,,,,,,,,,,,,,,,,,,,,,,,,,,,,,,,,,,,,,,,,,,,,,,,,,,,,,,,,,,,,,,,,,
0,73,73,11,1,,5cd7e678df739100011b1839,62bbfb3cd49be600f97778db,2022-06-29_09h25.13.817,Colour_Asymmetry_Pilot,2022.1.3,Win32,30.04536851,62bbe60bf3d75ef465d3e404,,,,,,,,,,,,,,,,,,,,,,,,,,,,,,,,,,,,,,,,,,,,,,,,,,,,,,,,,,,,,,,,,,,,,,,,,,,,,,,,,,,,,,,,,,,,,,,,,,,,,,,,,,,,,,,,,,,,,,,,,,,,,,,,,,,,,,,,,,,,,,,,,,,,,,,,,,,,,,
0,74,74,13,1,,5cd7e678df739100011b1839,62bbfb3cd49be600f97778db,2022-06-29_09h25.13.817,Colour_Asymmetry_Pilot,2022.1.3,Win32,30.04536851,62bbe60bf3d75ef465d3e404,,,,,,,,,,,,,,,,,,,,,,,,,,,,,,,,,,,,,,,,,,,,,,,,,,,,,,,,,,,,,,,,,,,,,,,,,,,,,,,,,,,,,,,,,,,,,,,,,,,,,,,,,,,,,,,,,,,,,,,,,,,,,,,,,,,,,,,,,,,,,,,,,,,,,,,,,,,,,,
0,75,75,53,1,,5cd7e678df739100011b1839,62bbfb3cd49be600f97778db,2022-06-29_09h25.13.817,Colour_Asymmetry_Pilot,2022.1.3,Win32,30.04536851,62bbe60bf3d75ef465d3e404,,,,,,,,,,,,,,,,,,,,,,,,,,,,,,,,,,,,,,,,,,,,,,,,,,,,,,,,,,,,,,,,,,,,,,,,,,,,,,,,,,,,,,,,,,,,,,,,,,,,,,,,,,,,,,,,,,,,,,,,,,,,,,,,,,,,,,,,,,,,,,,,,,,,,,,,,,,,,,
0,76,76,85,1,,5cd7e678df739100011b1839,62bbfb3cd49be600f97778db,2022-06-29_09h25.13.817,Colour_Asymmetry_Pilot,2022.1.3,Win32,30.04536851,62bbe60bf3d75ef465d3e404,,,,,,,,,,,,,,,,,,,,,,,,,,,,,,,,,,,,,,,,,,,,,,,,,,,,,,,,,,,,,,,,,,,,,,,,,,,,,,,,,,,,,,,,,,,,,,,,,,,,,,,,,,,,,,,,,,,,,,,,,,,,,,,,,,,,,,,,,,,,,,,,,,,,,,,,,,,,,,
0,77,77,87,1,,5cd7e678df739100011b1839,62bbfb3cd49be600f97778db,2022-06-29_09h25.13.817,Colour_Asymmetry_Pilot,2022.1.3,Win32,30.04536851,62bbe60bf3d75ef465d3e404,,,,,,,,,,,,,,,,,,,,,,,,,,,,,,,,,,,,,,,,,,,,,,,,,,,,,,,,,,,,,,,,,,,,,,,,,,,,,,,,,,,,,,,,,,,,,,,,,,,,,,,,,,,,,,,,,,,,,,,,,,,,,,,,,,,,,,,,,,,,,,,,,,,,,,,,,,,,,,
0,78,78,29,1,,5cd7e678df739100011b1839,62bbfb3cd49be600f97778db,2022-06-29_09h25.13.817,Colour_Asymmetry_Pilot,2022.1.3,Win32,30.04536851,62bbe60bf3d75ef465d3e404,,,,,,,,,,,,,,,,,,,,,,,,,,,,,,,,,,,,,,,,,,,,,,,,,,,,,,,,,,,,,,,,,,,,,,,,,,,,,,,,,,,,,,,,,,,,,,,,,,,,,,,,,,,,,,,,,,,,,,,,,,,,,,,,,,,,,,,,,,,,,,,,,,,,,,,,,,,,,,
0,79,79,39,1,,5cd7e678df739100011b1839,62bbfb3cd49be600f97778db,2022-06-29_09h25.13.817,Colour_Asymmetry_Pilot,2022.1.3,Win32,30.04536851,62bbe60bf3d75ef465d3e404,,,,,,,,,,,,,,,,,,,,,,,,,,,,,,,,,,,,,,,,,,,,,,,,,,,,,,,,,,,,,,,,,,,,,,,,,,,,,,,,,,,,,,,,,,,,,,,,,,,,,,,,,,,,,,,,,,,,,,,,,,,,,,,,,,,,,,,,,,,,,,,,,,,,,,,,,,,,,,
0,80,80,73,1,,5cd7e678df739100011b1839,62bbfb3cd49be600f97778db,2022-06-29_09h25.13.817,Colour_Asymmetry_Pilot,2022.1.3,Win32,30.04536851,62bbe60bf3d75ef465d3e404,,,,,,,,,,,,,,,,,,,,,,,,,,,,,,,,,,,,,,,,,,,,,,,,,,,,,,,,,,,,,,,,,,,,,,,,,,,,,,,,,,,,,,,,,,,,,,,,,,,,,,,,,,,,,,,,,,,,,,,,,,,,,,,,,,,,,,,,,,,,,,,,,,,,,,,,,,,,,,
0,81,81,88,1,,5cd7e678df739100011b1839,62bbfb3cd49be600f97778db,2022-06-29_09h25.13.817,Colour_Asymmetry_Pilot,2022.1.3,Win32,30.04536851,62bbe60bf3d75ef465d3e404,,,,,,,,,,,,,,,,,,,,,,,,,,,,,,,,,,,,,,,,,,,,,,,,,,,,,,,,,,,,,,,,,,,,,,,,,,,,,,,,,,,,,,,,,,,,,,,,,,,,,,,,,,,,,,,,,,,,,,,,,,,,,,,,,,,,,,,,,,,,,,,,,,,,,,,,,,,,,,
0,82,82,24,1,,5cd7e678df739100011b1839,62bbfb3cd49be600f97778db,2022-06-29_09h25.13.817,Colour_Asymmetry_Pilot,2022.1.3,Win32,30.04536851,62bbe60bf3d75ef465d3e404,,,,,,,,,,,,,,,,,,,,,,,,,,,,,,,,,,,,,,,,,,,,,,,,,,,,,,,,,,,,,,,,,,,,,,,,,,,,,,,,,,,,,,,,,,,,,,,,,,,,,,,,,,,,,,,,,,,,,,,,,,,,,,,,,,,,,,,,,,,,,,,,,,,,,,,,,,,,,,
0,83,83,0,1,,5cd7e678df739100011b1839,62bbfb3cd49be600f97778db,2022-06-29_09h25.13.817,Colour_Asymmetry_Pilot,2022.1.3,Win32,30.04536851,62bbe60bf3d75ef465d3e404,,,,,,,,,,,,,,,,,,,,,,,,,,,,,,,,,,,,,,,,,,,,,,,,,,,,,,,,,,,,,,,,,,,,,,,,,,,,,,,,,,,,,,,,,,,,,,,,,,,,,,,,,,,,,,,,,,,,,,,,,,,,,,,,,,,,,,,,,,,,,,,,,,,,,,,,,,,,,,
0,84,84,23,1,,5cd7e678df739100011b1839,62bbfb3cd49be600f97778db,2022-06-29_09h25.13.817,Colour_Asymmetry_Pilot,2022.1.3,Win32,30.04536851,62bbe60bf3d75ef465d3e404,,,,,,,,,,,,,,,,,,,,,,,,,,,,,,,,,,,,,,,,,,,,,,,,,,,,,,,,,,,,,,,,,,,,,,,,,,,,,,,,,,,,,,,,,,,,,,,,,,,,,,,,,,,,,,,,,,,,,,,,,,,,,,,,,,,,,,,,,,,,,,,,,,,,,,,,,,,,,,
0,85,85,16,1,,5cd7e678df739100011b1839,62bbfb3cd49be600f97778db,2022-06-29_09h25.13.817,Colour_Asymmetry_Pilot,2022.1.3,Win32,30.04536851,62bbe60bf3d75ef465d3e404,,,,,,,,,,,,,,,,,,,,,,,,,,,,,,,,,,,,,,,,,,,,,,,,,,,,,,,,,,,,,,,,,,,,,,,,,,,,,,,,,,,,,,,,,,,,,,,,,,,,,,,,,,,,,,,,,,,,,,,,,,,,,,,,,,,,,,,,,,,,,,,,,,,,,,,,,,,,,,
0,86,86,86,1,,5cd7e678df739100011b1839,62bbfb3cd49be600f97778db,2022-06-29_09h25.13.817,Colour_Asymmetry_Pilot,2022.1.3,Win32,30.04536851,62bbe60bf3d75ef465d3e404,,,,,,,,,,,,,,,,,,,,,,,,,,,,,,,,,,,,,,,,,,,,,,,,,,,,,,,,,,,,,,,,,,,,,,,,,,,,,,,,,,,,,,,,,,,,,,,,,,,,,,,,,,,,,,,,,,,,,,,,,,,,,,,,,,,,,,,,,,,,,,,,,,,,,,,,,,,,,,
0,87,87,60,1,,5cd7e678df739100011b1839,62bbfb3cd49be600f97778db,2022-06-29_09h25.13.817,Colour_Asymmetry_Pilot,2022.1.3,Win32,30.04536851,62bbe60bf3d75ef465d3e404,,,,,,,,,,,,,,,,,,,,,,,,,,,,,,,,,,,,,,,,,,,,,,,,,,,,,,,,,,,,,,,,,,,,,,,,,,,,,,,,,,,,,,,,,,,,,,,,,,,,,,,,,,,,,,,,,,,,,,,,,,,,,,,,,,,,,,,,,,,,,,,,,,,,,,,,,,,,,,
0,88,88,40,1,,5cd7e678df739100011b1839,62bbfb3cd49be600f97778db,2022-06-29_09h25.13.817,Colour_Asymmetry_Pilot,2022.1.3,Win32,30.04536851,62bbe60bf3d75ef465d3e404,,,,,,,,,,,,,,,,,,,,,,,,,,,,,,,,,,,,,,,,,,,,,,,,,,,,,,,,,,,,,,,,,,,,,,,,,,,,,,,,,,,,,,,,,,,,,,,,,,,,,,,,,,,,,,,,,,,,,,,,,,,,,,,,,,,,,,,,,,,,,,,,,,,,,,,,,,,,,,
0,89,89,75,1,,5cd7e678df739100011b1839,62bbfb3cd49be600f97778db,2022-06-29_09h25.13.817,Colour_Asymmetry_Pilot,2022.1.3,Win32,30.04536851,62bbe60bf3d75ef465d3e404,,,,,,,,,,,,,,,,,,,,,,,,,,,,,,,,,,,,,,,,,,,,,,,,,,,,,,,,,,,,,,,,,,,,,,,,,,,,,,,,,,,,,,,,,,,,,,,,,,,,,,,,,,,,,,,,,,,,,,,,,,,,,,,,,,,,,,,,,,,,,,,,,,,,,,,,,,,,,,
0,90,90,82,1,,5cd7e678df739100011b1839,62bbfb3cd49be600f97778db,2022-06-29_09h25.13.817,Colour_Asymmetry_Pilot,2022.1.3,Win32,30.04536851,62bbe60bf3d75ef465d3e404,,,,,,,,,,,,,,,,,,,,,,,,,,,,,,,,,,,,,,,,,,,,,,,,,,,,,,,,,,,,,,,,,,,,,,,,,,,,,,,,,,,,,,,,,,,,,,,,,,,,,,,,,,,,,,,,,,,,,,,,,,,,,,,,,,,,,,,,,,,,,,,,,,,,,,,,,,,,,,
0,91,91,25,1,,5cd7e678df739100011b1839,62bbfb3cd49be600f97778db,2022-06-29_09h25.13.817,Colour_Asymmetry_Pilot,2022.1.3,Win32,30.04536851,62bbe60bf3d75ef465d3e404,,,,,,,,,,,,,,,,,,,,,,,,,,,,,,,,,,,,,,,,,,,,,,,,,,,,,,,,,,,,,,,,,,,,,,,,,,,,,,,,,,,,,,,,,,,,,,,,,,,,,,,,,,,,,,,,,,,,,,,,,,,,,,,,,,,,,,,,,,,,,,,,,,,,,,,,,,,,,,
0,92,92,14,1,,5cd7e678df739100011b1839,62bbfb3cd49be600f97778db,2022-06-29_09h25.13.817,Colour_Asymmetry_Pilot,2022.1.3,Win32,30.04536851,62bbe60bf3d75ef465d3e404,,,,,,,,,,,,,,,,,,,,,,,,,,,,,,,,,,,,,,,,,,,,,,,,,,,,,,,,,,,,,,,,,,,,,,,,,,,,,,,,,,,,,,,,,,,,,,,,,,,,,,,,,,,,,,,,,,,,,,,,,,,,,,,,,,,,,,,,,,,,,,,,,,,,,,,,,,,,,,
,,,,,,5cd7e678df739100011b1839,62bbfb3cd49be600f97778db,2022-06-29_09h25.13.817,Colour_Asymmetry_Pilot,2022.1.3,Win32,30.04536851,62bbe60bf3d75ef465d3e404,0,0,0,58,1,twoone,,,,,,,,,,,,,,,,,,,,,,,,,,,,,,,,,,,,,,,,,,,,,,,,,,,,,,,,,,,,,,,,,,,,,,,,,,,,,,,,,,,,,,,,,,,,,,,,,,,,,,,,,,,,,,,,,,,,,,,,,,,,,,,,,,,,,,,,,,,,,,,,,,,,,,,,
,,,,,,5cd7e678df739100011b1839,62bbfb3cd49be600f97778db,2022-06-29_09h25.13.817,Colour_Asymmetry_Pilot,2022.1.3,Win32,30.04536851,62bbe60bf3d75ef465d3e404,0,1,1,144,1,onetwo,,,,,,,,,,,,,,,,,,,,,,,,,,,,,,,,,,,,,,,,,,,,,,,,,,,,,,,,,,,,,,,,,,,,,,,,,,,,,,,,,,,,,,,,,,,,,,,,,,,,,,,,,,,,,,,,,,,,,,,,,,,,,,,,,,,,,,,,,,,,,,,,,,,,,,,,
,,,,,,5cd7e678df739100011b1839,62bbfb3cd49be600f97778db,2022-06-29_09h25.13.817,Colour_Asymmetry_Pilot,2022.1.3,Win32,30.04536851,62bbe60bf3d75ef465d3e404,0,2,2,25,1,onethree,,,,,,,,,,,,,,,,,,,,,,,,,,,,,,,,,,,,,,,,,,,,,,,,,,,,,,,,,,,,,,,,,,,,,,,,,,,,,,,,,,,,,,,,,,,,,,,,,,,,,,,,,,,,,,,,,,,,,,,,,,,,,,,,,,,,,,,,,,,,,,,,,,,,,,,,
,,,,,,5cd7e678df739100011b1839,62bbfb3cd49be600f97778db,2022-06-29_09h25.13.817,Colour_Asymmetry_Pilot,2022.1.3,Win32,30.04536851,62bbe60bf3d75ef465d3e404,0,3,3,157,1,threefour,,,,,,,,,,,,,,,,,,,,,,,,,,,,,,,,,,,,,,,,,,,,,,,,,,,,,,,,,,,,,,,,,,,,,,,,,,,,,,,,,,,,,,,,,,,,,,,,,,,,,,,,,,,,,,,,,,,,,,,,,,,,,,,,,,,,,,,,,,,,,,,,,,,,,,,,
,,,,,,5cd7e678df739100011b1839,62bbfb3cd49be600f97778db,2022-06-29_09h25.13.817,Colour_Asymmetry_Pilot,2022.1.3,Win32,30.04536851,62bbe60bf3d75ef465d3e404,0,4,4,139,1,twofour,,,,,,,,,,,,,,,,,,,,,,,,,,,,,,,,,,,,,,,,,,,,,,,,,,,,,,,,,,,,,,,,,,,,,,,,,,,,,,,,,,,,,,,,,,,,,,,,,,,,,,,,,,,,,,,,,,,,,,,,,,,,,,,,,,,,,,,,,,,,,,,,,,,,,,,,
,,,,,,5cd7e678df739100011b1839,62bbfb3cd49be600f97778db,2022-06-29_09h25.13.817,Colour_Asymmetry_Pilot,2022.1.3,Win32,30.04536851,62bbe60bf3d75ef465d3e404,0,5,5,132,1,threeone,,,,,,,,,,,,,,,,,,,,,,,,,,,,,,,,,,,,,,,,,,,,,,,,,,,,,,,,,,,,,,,,,,,,,,,,,,,,,,,,,,,,,,,,,,,,,,,,,,,,,,,,,,,,,,,,,,,,,,,,,,,,,,,,,,,,,,,,,,,,,,,,,,,,,,,,
,,,,,,5cd7e678df739100011b1839,62bbfb3cd49be600f97778db,2022-06-29_09h25.13.817,Colour_Asymmetry_Pilot,2022.1.3,Win32,30.04536851,62bbe60bf3d75ef465d3e404,0,6,6,160,1,onetwo,,,,,,,,,,,,,,,,,,,,,,,,,,,,,,,,,,,,,,,,,,,,,,,,,,,,,,,,,,,,,,,,,,,,,,,,,,,,,,,,,,,,,,,,,,,,,,,,,,,,,,,,,,,,,,,,,,,,,,,,,,,,,,,,,,,,,,,,,,,,,,,,,,,,,,,,
,,,,,,5cd7e678df739100011b1839,62bbfb3cd49be600f97778db,2022-06-29_09h25.13.817,Colour_Asymmetry_Pilot,2022.1.3,Win32,30.04536851,62bbe60bf3d75ef465d3e404,0,7,7,147,1,twofour,,,,,,,,,,,,,,,,,,,,,,,,,,,,,,,,,,,,,,,,,,,,,,,,,,,,,,,,,,,,,,,,,,,,,,,,,,,,,,,,,,,,,,,,,,,,,,,,,,,,,,,,,,,,,,,,,,,,,,,,,,,,,,,,,,,,,,,,,,,,,,,,,,,,,,,,
,,,,,,5cd7e678df739100011b1839,62bbfb3cd49be600f97778db,2022-06-29_09h25.13.817,Colour_Asymmetry_Pilot,2022.1.3,Win32,30.04536851,62bbe60bf3d75ef465d3e404,0,8,8,145,1,onethree,,,,,,,,,,,,,,,,,,,,,,,,,,,,,,,,,,,,,,,,,,,,,,,,,,,,,,,,,,,,,,,,,,,,,,,,,,,,,,,,,,,,,,,,,,,,,,,,,,,,,,,,,,,,,,,,,,,,,,,,,,,,,,,,,,,,,,,,,,,,,,,,,,,,,,,,
,,,,,,5cd7e678df739100011b1839,62bbfb3cd49be600f97778db,2022-06-29_09h25.13.817,Colour_Asymmetry_Pilot,2022.1.3,Win32,30.04536851,62bbe60bf3d75ef465d3e404,0,9,9,102,1,fourtwo,,,,,,,,,,,,,,,,,,,,,,,,,,,,,,,,,,,,,,,,,,,,,,,,,,,,,,,,,,,,,,,,,,,,,,,,,,,,,,,,,,,,,,,,,,,,,,,,,,,,,,,,,,,,,,,,,,,,,,,,,,,,,,,,,,,,,,,,,,,,,,,,,,,,,,,,
,,,,,,5cd7e678df739100011b1839,62bbfb3cd49be600f97778db,2022-06-29_09h25.13.817,Colour_Asymmetry_Pilot,2022.1.3,Win32,30.04536851,62bbe60bf3d75ef465d3e404,0,10,10,130,1,twoone,,,,,,,,,,,,,,,,,,,,,,,,,,,,,,,,,,,,,,,,,,,,,,,,,,,,,,,,,,,,,,,,,,,,,,,,,,,,,,,,,,,,,,,,,,,,,,,,,,,,,,,,,,,,,,,,,,,,,,,,,,,,,,,,,,,,,,,,,,,,,,,,,,,,,,,,
,,,,,,5cd7e678df739100011b1839,62bbfb3cd49be600f97778db,2022-06-29_09h25.13.817,Colour_Asymmetry_Pilot,2022.1.3,Win32,30.04536851,62bbe60bf3d75ef465d3e404,0,11,11,1,1,onethree,,,,,,,,,,,,,,,,,,,,,,,,,,,,,,,,,,,,,,,,,,,,,,,,,,,,,,,,,,,,,,,,,,,,,,,,,,,,,,,,,,,,,,,,,,,,,,,,,,,,,,,,,,,,,,,,,,,,,,,,,,,,,,,,,,,,,,,,,,,,,,,,,,,,,,,,
,,,,,,5cd7e678df739100011b1839,62bbfb3cd49be600f97778db,2022-06-29_09h25.13.817,Colour_Asymmetry_Pilot,2022.1.3,Win32,30.04536851,62bbe60bf3d75ef465d3e404,0,12,12,0,1,onetwo,,,,,,,,,,,,,,,,,,,,,,,,,,,,,,,,,,,,,,,,,,,,,,,,,,,,,,,,,,,,,,,,,,,,,,,,,,,,,,,,,,,,,,,,,,,,,,,,,,,,,,,,,,,,,,,,,,,,,,,,,,,,,,,,,,,,,,,,,,,,,,,,,,,,,,,,
,,,,,,5cd7e678df739100011b1839,62bbfb3cd49be600f97778db,2022-06-29_09h25.13.817,Colour_Asymmetry_Pilot,2022.1.3,Win32,30.04536851,62bbe60bf3d75ef465d3e404,0,13,13,43,1,twofour,,,,,,,,,,,,,,,,,,,,,,,,,,,,,,,,,,,,,,,,,,,,,,,,,,,,,,,,,,,,,,,,,,,,,,,,,,,,,,,,,,,,,,,,,,,,,,,,,,,,,,,,,,,,,,,,,,,,,,,,,,,,,,,,,,,,,,,,,,,,,,,,,,,,,,,,
,,,,,,5cd7e678df739100011b1839,62bbfb3cd49be600f97778db,2022-06-29_09h25.13.817,Colour_Asymmetry_Pilot,2022.1.3,Win32,30.04536851,62bbe60bf3d75ef465d3e404,0,14,14,129,1,onethree,,,,,,,,,,,,,,,,,,,,,,,,,,,,,,,,,,,,,,,,,,,,,,,,,,,,,,,,,,,,,,,,,,,,,,,,,,,,,,,,,,,,,,,,,,,,,,,,,,,,,,,,,,,,,,,,,,,,,,,,,,,,,,,,,,,,,,,,,,,,,,,,,,,,,,,,
,,,,,,5cd7e678df739100011b1839,62bbfb3cd49be600f97778db,2022-06-29_09h25.13.817,Colour_Asymmetry_Pilot,2022.1.3,Win32,30.04536851,62bbe60bf3d75ef465d3e404,0,15,15,68,1,threeone,,,,,,,,,,,,,,,,,,,,,,,,,,,,,,,,,,,,,,,,,,,,,,,,,,,,,,,,,,,,,,,,,,,,,,,,,,,,,,,,,,,,,,,,,,,,,,,,,,,,,,,,,,,,,,,,,,,,,,,,,,,,,,,,,,,,,,,,,,,,,,,,,,,,,,,,
,,,,,,5cd7e678df739100011b1839,62bbfb3cd49be600f97778db,2022-06-29_09h25.13.817,Colour_Asymmetry_Pilot,2022.1.3,Win32,30.04536851,62bbe60bf3d75ef465d3e404,0,16,16,84,1,threeone,,,,,,,,,,,,,,,,,,,,,,,,,,,,,,,,,,,,,,,,,,,,,,,,,,,,,,,,,,,,,,,,,,,,,,,,,,,,,,,,,,,,,,,,,,,,,,,,,,,,,,,,,,,,,,,,,,,,,,,,,,,,,,,,,,,,,,,,,,,,,,,,,,,,,,,,
,,,,,,5cd7e678df739100011b1839,62bbfb3cd49be600f97778db,2022-06-29_09h25.13.817,Colour_Asymmetry_Pilot,2022.1.3,Win32,30.04536851,62bbe60bf3d75ef465d3e404,0,17,17,74,1,twoone,,,,,,,,,,,,,,,,,,,,,,,,,,,,,,,,,,,,,,,,,,,,,,,,,,,,,,,,,,,,,,,,,,,,,,,,,,,,,,,,,,,,,,,,,,,,,,,,,,,,,,,,,,,,,,,,,,,,,,,,,,,,,,,,,,,,,,,,,,,,,,,,,,,,,,,,
,,,,,,5cd7e678df739100011b1839,62bbfb3cd49be600f97778db,2022-06-29_09h25.13.817,Colour_Asymmetry_Pilot,2022.1.3,Win32,30.04536851,62bbe60bf3d75ef465d3e404,0,18,18,73,1,onethree,,,,,,,,,,,,,,,,,,,,,,,,,,,,,,,,,,,,,,,,,,,,,,,,,,,,,,,,,,,,,,,,,,,,,,,,,,,,,,,,,,,,,,,,,,,,,,,,,,,,,,,,,,,,,,,,,,,,,,,,,,,,,,,,,,,,,,,,,,,,,,,,,,,,,,,,
,,,,,,5cd7e678df739100011b1839,62bbfb3cd49be600f97778db,2022-06-29_09h25.13.817,Colour_Asymmetry_Pilot,2022.1.3,Win32,30.04536851,62bbe60bf3d75ef465d3e404,0,19,19,20,1,threeone,,,,,,,,,,,,,,,,,,,,,,,,,,,,,,,,,,,,,,,,,,,,,,,,,,,,,,,,,,,,,,,,,,,,,,,,,,,,,,,,,,,,,,,,,,,,,,,,,,,,,,,,,,,,,,,,,,,,,,,,,,,,,,,,,,,,,,,,,,,,,,,,,,,,,,,,
,,,,,,5cd7e678df739100011b1839,62bbfb3cd49be600f97778db,2022-06-29_09h25.13.817,Colour_Asymmetry_Pilot,2022.1.3,Win32,30.04536851,62bbe60bf3d75ef465d3e404,0,20,20,62,1,fourtwo,,,,,,,,,,,,,,,,,,,,,,,,,,,,,,,,,,,,,,,,,,,,,,,,,,,,,,,,,,,,,,,,,,,,,,,,,,,,,,,,,,,,,,,,,,,,,,,,,,,,,,,,,,,,,,,,,,,,,,,,,,,,,,,,,,,,,,,,,,,,,,,,,,,,,,,,
,,,,,,5cd7e678df739100011b1839,62bbfb3cd49be600f97778db,2022-06-29_09h25.13.817,Colour_Asymmetry_Pilot,2022.1.3,Win32,30.04536851,62bbe60bf3d75ef465d3e404,0,21,21,97,1,onethree,,,,,,,,,,,,,,,,,,,,,,,,,,,,,,,,,,,,,,,,,,,,,,,,,,,,,,,,,,,,,,,,,,,,,,,,,,,,,,,,,,,,,,,,,,,,,,,,,,,,,,,,,,,,,,,,,,,,,,,,,,,,,,,,,,,,,,,,,,,,,,,,,,,,,,,,
,,,,,,5cd7e678df739100011b1839,62bbfb3cd49be600f97778db,2022-06-29_09h25.13.817,Colour_Asymmetry_Pilot,2022.1.3,Win32,30.04536851,62bbe60bf3d75ef465d3e404,0,22,22,70,1,fourtwo,,,,,,,,,,,,,,,,,,,,,,,,,,,,,,,,,,,,,,,,,,,,,,,,,,,,,,,,,,,,,,,,,,,,,,,,,,,,,,,,,,,,,,,,,,,,,,,,,,,,,,,,,,,,,,,,,,,,,,,,,,,,,,,,,,,,,,,,,,,,,,,,,,,,,,,,
,,,,,,5cd7e678df739100011b1839,62bbfb3cd49be600f97778db,2022-06-29_09h25.13.817,Colour_Asymmetry_Pilot,2022.1.3,Win32,30.04536851,62bbe60bf3d75ef465d3e404,0,23,23,101,1,threefour,,,,,,,,,,,,,,,,,,,,,,,,,,,,,,,,,,,,,,,,,,,,,,,,,,,,,,,,,,,,,,,,,,,,,,,,,,,,,,,,,,,,,,,,,,,,,,,,,,,,,,,,,,,,,,,,,,,,,,,,,,,,,,,,,,,,,,,,,,,,,,,,,,,,,,,,
,,,,,,5cd7e678df739100011b1839,62bbfb3cd49be600f97778db,2022-06-29_09h25.13.817,Colour_Asymmetry_Pilot,2022.1.3,Win32,30.04536851,62bbe60bf3d75ef465d3e404,0,24,24,110,1,fourtwo,,,,,,,,,,,,,,,,,,,,,,,,,,,,,,,,,,,,,,,,,,,,,,,,,,,,,,,,,,,,,,,,,,,,,,,,,,,,,,,,,,,,,,,,,,,,,,,,,,,,,,,,,,,,,,,,,,,,,,,,,,,,,,,,,,,,,,,,,,,,,,,,,,,,,,,,
,,,,,,5cd7e678df739100011b1839,62bbfb3cd49be600f97778db,2022-06-29_09h25.13.817,Colour_Asymmetry_Pilot,2022.1.3,Win32,30.04536851,62bbe60bf3d75ef465d3e404,0,25,25,89,1,onethree,,,,,,,,,,,,,,,,,,,,,,,,,,,,,,,,,,,,,,,,,,,,,,,,,,,,,,,,,,,,,,,,,,,,,,,,,,,,,,,,,,,,,,,,,,,,,,,,,,,,,,,,,,,,,,,,,,,,,,,,,,,,,,,,,,,,,,,,,,,,,,,,,,,,,,,,
,,,,,,5cd7e678df739100011b1839,62bbfb3cd49be600f97778db,2022-06-29_09h25.13.817,Colour_Asymmetry_Pilot,2022.1.3,Win32,30.04536851,62bbe60bf3d75ef465d3e404,0,26,26,13,1,threefour,,,,,,,,,,,,,,,,,,,,,,,,,,,,,,,,,,,,,,,,,,,,,,,,,,,,,,,,,,,,,,,,,,,,,,,,,,,,,,,,,,,,,,,,,,,,,,,,,,,,,,,,,,,,,,,,,,,,,,,,,,,,,,,,,,,,,,,,,,,,,,,,,,,,,,,,
,,,,,,5cd7e678df739100011b1839,62bbfb3cd49be600f97778db,2022-06-29_09h25.13.817,Colour_Asymmetry_Pilot,2022.1.3,Win32,30.04536851,62bbe60bf3d75ef465d3e404,0,27,27,40,1,onetwo,,,,,,,,,,,,,,,,,,,,,,,,,,,,,,,,,,,,,,,,,,,,,,,,,,,,,,,,,,,,,,,,,,,,,,,,,,,,,,,,,,,,,,,,,,,,,,,,,,,,,,,,,,,,,,,,,,,,,,,,,,,,,,,,,,,,,,,,,,,,,,,,,,,,,,,,
,,,,,,5cd7e678df739100011b1839,62bbfb3cd49be600f97778db,2022-06-29_09h25.13.817,Colour_Asymmetry_Pilot,2022.1.3,Win32,30.04536851,62bbe60bf3d75ef465d3e404,0,28,28,14,1,fourtwo,,,,,,,,,,,,,,,,,,,,,,,,,,,,,,,,,,,,,,,,,,,,,,,,,,,,,,,,,,,,,,,,,,,,,,,,,,,,,,,,,,,,,,,,,,,,,,,,,,,,,,,,,,,,,,,,,,,,,,,,,,,,,,,,,,,,,,,,,,,,,,,,,,,,,,,,
,,,,,,5cd7e678df739100011b1839,62bbfb3cd49be600f97778db,2022-06-29_09h25.13.817,Colour_Asymmetry_Pilot,2022.1.3,Win32,30.04536851,62bbe60bf3d75ef465d3e404,0,29,29,18,1,twoone,,,,,,,,,,,,,,,,,,,,,,,,,,,,,,,,,,,,,,,,,,,,,,,,,,,,,,,,,,,,,,,,,,,,,,,,,,,,,,,,,,,,,,,,,,,,,,,,,,,,,,,,,,,,,,,,,,,,,,,,,,,,,,,,,,,,,,,,,,,,,,,,,,,,,,,,
,,,,,,5cd7e678df739100011b1839,62bbfb3cd49be600f97778db,2022-06-29_09h25.13.817,Colour_Asymmetry_Pilot,2022.1.3,Win32,30.04536851,62bbe60bf3d75ef465d3e404,0,30,30,69,1,threefour,,,,,,,,,,,,,,,,,,,,,,,,,,,,,,,,,,,,,,,,,,,,,,,,,,,,,,,,,,,,,,,,,,,,,,,,,,,,,,,,,,,,,,,,,,,,,,,,,,,,,,,,,,,,,,,,,,,,,,,,,,,,,,,,,,,,,,,,,,,,,,,,,,,,,,,,
,,,,,,5cd7e678df739100011b1839,62bbfb3cd49be600f97778db,2022-06-29_09h25.13.817,Colour_Asymmetry_Pilot,2022.1.3,Win32,30.04536851,62bbe60bf3d75ef465d3e404,0,31,31,54,1,fourtwo,,,,,,,,,,,,,,,,,,,,,,,,,,,,,,,,,,,,,,,,,,,,,,,,,,,,,,,,,,,,,,,,,,,,,,,,,,,,,,,,,,,,,,,,,,,,,,,,,,,,,,,,,,,,,,,,,,,,,,,,,,,,,,,,,,,,,,,,,,,,,,,,,,,,,,,,
,,,,,,5cd7e678df739100011b1839,62bbfb3cd49be600f97778db,2022-06-29_09h25.13.817,Colour_Asymmetry_Pilot,2022.1.3,Win32,30.04536851,62bbe60bf3d75ef465d3e404,0,32,32,26,1,twoone,,,,,,,,,,,,,,,,,,,,,,,,,,,,,,,,,,,,,,,,,,,,,,,,,,,,,,,,,,,,,,,,,,,,,,,,,,,,,,,,,,,,,,,,,,,,,,,,,,,,,,,,,,,,,,,,,,,,,,,,,,,,,,,,,,,,,,,,,,,,,,,,,,,,,,,,
,,,,,,5cd7e678df739100011b1839,62bbfb3cd49be600f97778db,2022-06-29_09h25.13.817,Colour_Asymmetry_Pilot,2022.1.3,Win32,30.04536851,62bbe60bf3d75ef465d3e404,0,33,33,11,1,twofour,,,,,,,,,,,,,,,,,,,,,,,,,,,,,,,,,,,,,,,,,,,,,,,,,,,,,,,,,,,,,,,,,,,,,,,,,,,,,,,,,,,,,,,,,,,,,,,,,,,,,,,,,,,,,,,,,,,,,,,,,,,,,,,,,,,,,,,,,,,,,,,,,,,,,,,,
,,,,,,5cd7e678df739100011b1839,62bbfb3cd49be600f97778db,2022-06-29_09h25.13.817,Colour_Asymmetry_Pilot,2022.1.3,Win32,30.04536851,62bbe60bf3d75ef465d3e404,0,34,34,133,1,threefour,,,,,,,,,,,,,,,,,,,,,,,,,,,,,,,,,,,,,,,,,,,,,,,,,,,,,,,,,,,,,,,,,,,,,,,,,,,,,,,,,,,,,,,,,,,,,,,,,,,,,,,,,,,,,,,,,,,,,,,,,,,,,,,,,,,,,,,,,,,,,,,,,,,,,,,,
,,,,,,5cd7e678df739100011b1839,62bbfb3cd49be600f97778db,2022-06-29_09h25.13.817,Colour_Asymmetry_Pilot,2022.1.3,Win32,30.04536851,62bbe60bf3d75ef465d3e404,0,35,35,113,1,onethree,,,,,,,,,,,,,,,,,,,,,,,,,,,,,,,,,,,,,,,,,,,,,,,,,,,,,,,,,,,,,,,,,,,,,,,,,,,,,,,,,,,,,,,,,,,,,,,,,,,,,,,,,,,,,,,,,,,,,,,,,,,,,,,,,,,,,,,,,,,,,,,,,,,,,,,,
,,,,,,5cd7e678df739100011b1839,62bbfb3cd49be600f97778db,2022-06-29_09h25.13.817,Colour_Asymmetry_Pilot,2022.1.3,Win32,30.04536851,62bbe60bf3d75ef465d3e404,0,36,36,98,1,twoone,,,,,,,,,,,,,,,,,,,,,,,,,,,,,,,,,,,,,,,,,,,,,,,,,,,,,,,,,,,,,,,,,,,,,,,,,,,,,,,,,,,,,,,,,,,,,,,,,,,,,,,,,,,,,,,,,,,,,,,,,,,,,,,,,,,,,,,,,,,,,,,,,,,,,,,,
,,,,,,5cd7e678df739100011b1839,62bbfb3cd49be600f97778db,2022-06-29_09h25.13.817,Colour_Asymmetry_Pilot,2022.1.3,Win32,30.04536851,62bbe60bf3d75ef465d3e404,0,37,37,124,1,threeone,,,,,,,,,,,,,,,,,,,,,,,,,,,,,,,,,,,,,,,,,,,,,,,,,,,,,,,,,,,,,,,,,,,,,,,,,,,,,,,,,,,,,,,,,,,,,,,,,,,,,,,,,,,,,,,,,,,,,,,,,,,,,,,,,,,,,,,,,,,,,,,,,,,,,,,,
,,,,,,5cd7e678df739100011b1839,62bbfb3cd49be600f97778db,2022-06-29_09h25.13.817,Colour_Asymmetry_Pilot,2022.1.3,Win32,30.04536851,62bbe60bf3d75ef465d3e404,0,38,38,85,1,threefour,,,,,,,,,,,,,,,,,,,,,,,,,,,,,,,,,,,,,,,,,,,,,,,,,,,,,,,,,,,,,,,,,,,,,,,,,,,,,,,,,,,,,,,,,,,,,,,,,,,,,,,,,,,,,,,,,,,,,,,,,,,,,,,,,,,,,,,,,,,,,,,,,,,,,,,,
,,,,,,5cd7e678df739100011b1839,62bbfb3cd49be600f97778db,2022-06-29_09h25.13.817,Colour_Asymmetry_Pilot,2022.1.3,Win32,30.04536851,62bbe60bf3d75ef465d3e404,0,39,39,111,1,fourthree,,,,,,,,,,,,,,,,,,,,,,,,,,,,,,,,,,,,,,,,,,,,,,,,,,,,,,,,,,,,,,,,,,,,,,,,,,,,,,,,,,,,,,,,,,,,,,,,,,,,,,,,,,,,,,,,,,,,,,,,,,,,,,,,,,,,,,,,,,,,,,,,,,,,,,,,
,,,,,,5cd7e678df739100011b1839,62bbfb3cd49be600f97778db,2022-06-29_09h25.13.817,Colour_Asymmetry_Pilot,2022.1.3,Win32,30.04536851,62bbe60bf3d75ef465d3e404,0,40,40,36,1,threeone,,,,,,,,,,,,,,,,,,,,,,,,,,,,,,,,,,,,,,,,,,,,,,,,,,,,,,,,,,,,,,,,,,,,,,,,,,,,,,,,,,,,,,,,,,,,,,,,,,,,,,,,,,,,,,,,,,,,,,,,,,,,,,,,,,,,,,,,,,,,,,,,,,,,,,,,
,,,,,,5cd7e678df739100011b1839,62bbfb3cd49be600f97778db,2022-06-29_09h25.13.817,Colour_Asymmetry_Pilot,2022.1.3,Win32,30.04536851,62bbe60bf3d75ef465d3e404,0,41,41,151,1,fourthree,,,,,,,,,,,,,,,,,,,,,,,,,,,,,,,,,,,,,,,,,,,,,,,,,,,,,,,,,,,,,,,,,,,,,,,,,,,,,,,,,,,,,,,,,,,,,,,,,,,,,,,,,,,,,,,,,,,,,,,,,,,,,,,,,,,,,,,,,,,,,,,,,,,,,,,,
,,,,,,5cd7e678df739100011b1839,62bbfb3cd49be600f97778db,2022-06-29_09h25.13.817,Colour_Asymmetry_Pilot,2022.1.3,Win32,30.04536851,62bbe60bf3d75ef465d3e404,0,42,42,131,1,twofour,,,,,,,,,,,,,,,,,,,,,,,,,,,,,,,,,,,,,,,,,,,,,,,,,,,,,,,,,,,,,,,,,,,,,,,,,,,,,,,,,,,,,,,,,,,,,,,,,,,,,,,,,,,,,,,,,,,,,,,,,,,,,,,,,,,,,,,,,,,,,,,,,,,,,,,,
,,,,,,5cd7e678df739100011b1839,62bbfb3cd49be600f97778db,2022-06-29_09h25.13.817,Colour_Asymmetry_Pilot,2022.1.3,Win32,30.04536851,62bbe60bf3d75ef465d3e404,0,43,43,96,1,onetwo,,,,,,,,,,,,,,,,,,,,,,,,,,,,,,,,,,,,,,,,,,,,,,,,,,,,,,,,,,,,,,,,,,,,,,,,,,,,,,,,,,,,,,,,,,,,,,,,,,,,,,,,,,,,,,,,,,,,,,,,,,,,,,,,,,,,,,,,,,,,,,,,,,,,,,,,
,,,,,,5cd7e678df739100011b1839,62bbfb3cd49be600f97778db,2022-06-29_09h25.13.817,Colour_Asymmetry_Pilot,2022.1.3,Win32,30.04536851,62bbe60bf3d75ef465d3e404,0,44,44,93,1,threefour,,,,,,,,,,,,,,,,,,,,,,,,,,,,,,,,,,,,,,,,,,,,,,,,,,,,,,,,,,,,,,,,,,,,,,,,,,,,,,,,,,,,,,,,,,,,,,,,,,,,,,,,,,,,,,,,,,,,,,,,,,,,,,,,,,,,,,,,,,,,,,,,,,,,,,,,
,,,,,,5cd7e678df739100011b1839,62bbfb3cd49be600f97778db,2022-06-29_09h25.13.817,Colour_Asymmetry_Pilot,2022.1.3,Win32,30.04536851,62bbe60bf3d75ef465d3e404,0,45,45,39,1,fourthree,,,,,,,,,,,,,,,,,,,,,,,,,,,,,,,,,,,,,,,,,,,,,,,,,,,,,,,,,,,,,,,,,,,,,,,,,,,,,,,,,,,,,,,,,,,,,,,,,,,,,,,,,,,,,,,,,,,,,,,,,,,,,,,,,,,,,,,,,,,,,,,,,,,,,,,,
,,,,,,5cd7e678df739100011b1839,62bbfb3cd49be600f97778db,2022-06-29_09h25.13.817,Colour_Asymmetry_Pilot,2022.1.3,Win32,30.04536851,62bbe60bf3d75ef465d3e404,0,46,46,60,1,threeone,,,,,,,,,,,,,,,,,,,,,,,,,,,,,,,,,,,,,,,,,,,,,,,,,,,,,,,,,,,,,,,,,,,,,,,,,,,,,,,,,,,,,,,,,,,,,,,,,,,,,,,,,,,,,,,,,,,,,,,,,,,,,,,,,,,,,,,,,,,,,,,,,,,,,,,,
,,,,,,5cd7e678df739100011b1839,62bbfb3cd49be600f97778db,2022-06-29_09h25.13.817,Colour_Asymmetry_Pilot,2022.1.3,Win32,30.04536851,62bbe60bf3d75ef465d3e404,0,47,47,154,1,twoone,,,,,,,,,,,,,,,,,,,,,,,,,,,,,,,,,,,,,,,,,,,,,,,,,,,,,,,,,,,,,,,,,,,,,,,,,,,,,,,,,,,,,,,,,,,,,,,,,,,,,,,,,,,,,,,,,,,,,,,,,,,,,,,,,,,,,,,,,,,,,,,,,,,,,,,,
,,,,,,5cd7e678df739100011b1839,62bbfb3cd49be600f97778db,2022-06-29_09h25.13.817,Colour_Asymmetry_Pilot,2022.1.3,Win32,30.04536851,62bbe60bf3d75ef465d3e404,0,48,48,71,1,fourthree,,,,,,,,,,,,,,,,,,,,,,,,,,,,,,,,,,,,,,,,,,,,,,,,,,,,,,,,,,,,,,,,,,,,,,,,,,,,,,,,,,,,,,,,,,,,,,,,,,,,,,,,,,,,,,,,,,,,,,,,,,,,,,,,,,,,,,,,,,,,,,,,,,,,,,,,
,,,,,,5cd7e678df739100011b1839,62bbfb3cd49be600f97778db,2022-06-29_09h25.13.817,Colour_Asymmetry_Pilot,2022.1.3,Win32,30.04536851,62bbe60bf3d75ef465d3e404,0,49,49,53,1,threefour,,,,,,,,,,,,,,,,,,,,,,,,,,,,,,,,,,,,,,,,,,,,,,,,,,,,,,,,,,,,,,,,,,,,,,,,,,,,,,,,,,,,,,,,,,,,,,,,,,,,,,,,,,,,,,,,,,,,,,,,,,,,,,,,,,,,,,,,,,,,,,,,,,,,,,,,
,,,,,,5cd7e678df739100011b1839,62bbfb3cd49be600f97778db,2022-06-29_09h25.13.817,Colour_Asymmetry_Pilot,2022.1.3,Win32,30.04536851,62bbe60bf3d75ef465d3e404,0,50,50,80,1,onetwo,,,,,,,,,,,,,,,,,,,,,,,,,,,,,,,,,,,,,,,,,,,,,,,,,,,,,,,,,,,,,,,,,,,,,,,,,,,,,,,,,,,,,,,,,,,,,,,,,,,,,,,,,,,,,,,,,,,,,,,,,,,,,,,,,,,,,,,,,,,,,,,,,,,,,,,,
,,,,,,5cd7e678df739100011b1839,62bbfb3cd49be600f97778db,2022-06-29_09h25.13.817,Colour_Asymmetry_Pilot,2022.1.3,Win32,30.04536851,62bbe60bf3d75ef465d3e404,0,51,51,109,1,threefour,,,,,,,,,,,,,,,,,,,,,,,,,,,,,,,,,,,,,,,,,,,,,,,,,,,,,,,,,,,,,,,,,,,,,,,,,,,,,,,,,,,,,,,,,,,,,,,,,,,,,,,,,,,,,,,,,,,,,,,,,,,,,,,,,,,,,,,,,,,,,,,,,,,,,,,,
,,,,,,5cd7e678df739100011b1839,62bbfb3cd49be600f97778db,2022-06-29_09h25.13.817,Colour_Asymmetry_Pilot,2022.1.3,Win32,30.04536851,62bbe60bf3d75ef465d3e404,0,52,52,8,1,onetwo,,,,,,,,,,,,,,,,,,,,,,,,,,,,,,,,,,,,,,,,,,,,,,,,,,,,,,,,,,,,,,,,,,,,,,,,,,,,,,,,,,,,,,,,,,,,,,,,,,,,,,,,,,,,,,,,,,,,,,,,,,,,,,,,,,,,,,,,,,,,,,,,,,,,,,,,
,,,,,,5cd7e678df739100011b1839,62bbfb3cd49be600f97778db,2022-06-29_09h25.13.817,Colour_Asymmetry_Pilot,2022.1.3,Win32,30.04536851,62bbe60bf3d75ef465d3e404,0,53,53,161,1,onethree,,,,,,,,,,,,,,,,,,,,,,,,,,,,,,,,,,,,,,,,,,,,,,,,,,,,,,,,,,,,,,,,,,,,,,,,,,,,,,,,,,,,,,,,,,,,,,,,,,,,,,,,,,,,,,,,,,,,,,,,,,,,,,,,,,,,,,,,,,,,,,,,,,,,,,,,
,,,,,,5cd7e678df739100011b1839,62bbfb3cd49be600f97778db,2022-06-29_09h25.13.817,Colour_Asymmetry_Pilot,2022.1.3,Win32,30.04536851,62bbe60bf3d75ef465d3e404,0,54,54,29,1,threefour,,,,,,,,,,,,,,,,,,,,,,,,,,,,,,,,,,,,,,,,,,,,,,,,,,,,,,,,,,,,,,,,,,,,,,,,,,,,,,,,,,,,,,,,,,,,,,,,,,,,,,,,,,,,,,,,,,,,,,,,,,,,,,,,,,,,,,,,,,,,,,,,,,,,,,,,
,,,,,,5cd7e678df739100011b1839,62bbfb3cd49be600f97778db,2022-06-29_09h25.13.817,Colour_Asymmetry_Pilot,2022.1.3,Win32,30.04536851,62bbe60bf3d75ef465d3e404,0,55,55,149,1,threefour,,,,,,,,,,,,,,,,,,,,,,,,,,,,,,,,,,,,,,,,,,,,,,,,,,,,,,,,,,,,,,,,,,,,,,,,,,,,,,,,,,,,,,,,,,,,,,,,,,,,,,,,,,,,,,,,,,,,,,,,,,,,,,,,,,,,,,,,,,,,,,,,,,,,,,,,
,,,,,,5cd7e678df739100011b1839,62bbfb3cd49be600f97778db,2022-06-29_09h25.13.817,Colour_Asymmetry_Pilot,2022.1.3,Win32,30.04536851,62bbe60bf3d75ef465d3e404,0,56,56,77,1,threefour,,,,,,,,,,,,,,,,,,,,,,,,,,,,,,,,,,,,,,,,,,,,,,,,,,,,,,,,,,,,,,,,,,,,,,,,,,,,,,,,,,,,,,,,,,,,,,,,,,,,,,,,,,,,,,,,,,,,,,,,,,,,,,,,,,,,,,,,,,,,,,,,,,,,,,,,
,,,,,,5cd7e678df739100011b1839,62bbfb3cd49be600f97778db,2022-06-29_09h25.13.817,Colour_Asymmetry_Pilot,2022.1.3,Win32,30.04536851,62bbe60bf3d75ef465d3e404,0,57,57,35,1,twofour,,,,,,,,,,,,,,,,,,,,,,,,,,,,,,,,,,,,,,,,,,,,,,,,,,,,,,,,,,,,,,,,,,,,,,,,,,,,,,,,,,,,,,,,,,,,,,,,,,,,,,,,,,,,,,,,,,,,,,,,,,,,,,,,,,,,,,,,,,,,,,,,,,,,,,,,
,,,,,,5cd7e678df739100011b1839,62bbfb3cd49be600f97778db,2022-06-29_09h25.13.817,Colour_Asymmetry_Pilot,2022.1.3,Win32,30.04536851,62bbe60bf3d75ef465d3e404,0,58,58,91,1,twofour,,,,,,,,,,,,,,,,,,,,,,,,,,,,,,,,,,,,,,,,,,,,,,,,,,,,,,,,,,,,,,,,,,,,,,,,,,,,,,,,,,,,,,,,,,,,,,,,,,,,,,,,,,,,,,,,,,,,,,,,,,,,,,,,,,,,,,,,,,,,,,,,,,,,,,,,
,,,,,,5cd7e678df739100011b1839,62bbfb3cd49be600f97778db,2022-06-29_09h25.13.817,Colour_Asymmetry_Pilot,2022.1.3,Win32,30.04536851,62bbe60bf3d75ef465d3e404,0,59,59,117,1,threefour,,,,,,,,,,,,,,,,,,,,,,,,,,,,,,,,,,,,,,,,,,,,,,,,,,,,,,,,,,,,,,,,,,,,,,,,,,,,,,,,,,,,,,,,,,,,,,,,,,,,,,,,,,,,,,,,,,,,,,,,,,,,,,,,,,,,,,,,,,,,,,,,,,,,,,,,
,,,,,,5cd7e678df739100011b1839,62bbfb3cd49be600f97778db,2022-06-29_09h25.13.817,Colour_Asymmetry_Pilot,2022.1.3,Win32,30.04536851,62bbe60bf3d75ef465d3e404,0,60,60,103,1,fourthree,,,,,,,,,,,,,,,,,,,,,,,,,,,,,,,,,,,,,,,,,,,,,,,,,,,,,,,,,,,,,,,,,,,,,,,,,,,,,,,,,,,,,,,,,,,,,,,,,,,,,,,,,,,,,,,,,,,,,,,,,,,,,,,,,,,,,,,,,,,,,,,,,,,,,,,,
,,,,,,5cd7e678df739100011b1839,62bbfb3cd49be600f97778db,2022-06-29_09h25.13.817,Colour_Asymmetry_Pilot,2022.1.3,Win32,30.04536851,62bbe60bf3d75ef465d3e404,0,61,61,112,1,onetwo,,,,,,,,,,,,,,,,,,,,,,,,,,,,,,,,,,,,,,,,,,,,,,,,,,,,,,,,,,,,,,,,,,,,,,,,,,,,,,,,,,,,,,,,,,,,,,,,,,,,,,,,,,,,,,,,,,,,,,,,,,,,,,,,,,,,,,,,,,,,,,,,,,,,,,,,
,,,,,,5cd7e678df739100011b1839,62bbfb3cd49be600f97778db,2022-06-29_09h25.13.817,Colour_Asymmetry_Pilot,2022.1.3,Win32,30.04536851,62bbe60bf3d75ef465d3e404,0,62,62,15,1,fourthree,,,,,,,,,,,,,,,,,,,,,,,,,,,,,,,,,,,,,,,,,,,,,,,,,,,,,,,,,,,,,,,,,,,,,,,,,,,,,,,,,,,,,,,,,,,,,,,,,,,,,,,,,,,,,,,,,,,,,,,,,,,,,,,,,,,,,,,,,,,,,,,,,,,,,,,,
,,,,,,5cd7e678df739100011b1839,62bbfb3cd49be600f97778db,2022-06-29_09h25.13.817,Colour_Asymmetry_Pilot,2022.1.3,Win32,30.04536851,62bbe60bf3d75ef465d3e404,0,63,63,42,1,twoone,,,,,,,,,,,,,,,,,,,,,,,,,,,,,,,,,,,,,,,,,,,,,,,,,,,,,,,,,,,,,,,,,,,,,,,,,,,,,,,,,,,,,,,,,,,,,,,,,,,,,,,,,,,,,,,,,,,,,,,,,,,,,,,,,,,,,,,,,,,,,,,,,,,,,,,,
,,,,,,5cd7e678df739100011b1839,62bbfb3cd49be600f97778db,2022-06-29_09h25.13.817,Colour_Asymmetry_Pilot,2022.1.3,Win32,30.04536851,62bbe60bf3d75ef465d3e404,0,64,64,99,1,twofour,,,,,,,,,,,,,,,,,,,,,,,,,,,,,,,,,,,,,,,,,,,,,,,,,,,,,,,,,,,,,,,,,,,,,,,,,,,,,,,,,,,,,,,,,,,,,,,,,,,,,,,,,,,,,,,,,,,,,,,,,,,,,,,,,,,,,,,,,,,,,,,,,,,,,,,,
,,,,,,5cd7e678df739100011b1839,62bbfb3cd49be600f97778db,2022-06-29_09h25.13.817,Colour_Asymmetry_Pilot,2022.1.3,Win32,30.04536851,62bbe60bf3d75ef465d3e404,0,65,65,136,1,onetwo,,,,,,,,,,,,,,,,,,,,,,,,,,,,,,,,,,,,,,,,,,,,,,,,,,,,,,,,,,,,,,,,,,,,,,,,,,,,,,,,,,,,,,,,,,,,,,,,,,,,,,,,,,,,,,,,,,,,,,,,,,,,,,,,,,,,,,,,,,,,,,,,,,,,,,,,
,,,,,,5cd7e678df739100011b1839,62bbfb3cd49be600f97778db,2022-06-29_09h25.13.817,Colour_Asymmetry_Pilot,2022.1.3,Win32,30.04536851,62bbe60bf3d75ef465d3e404,0,66,66,44,1,threeone,,,,,,,,,,,,,,,,,,,,,,,,,,,,,,,,,,,,,,,,,,,,,,,,,,,,,,,,,,,,,,,,,,,,,,,,,,,,,,,,,,,,,,,,,,,,,,,,,,,,,,,,,,,,,,,,,,,,,,,,,,,,,,,,,,,,,,,,,,,,,,,,,,,,,,,,
,,,,,,5cd7e678df739100011b1839,62bbfb3cd49be600f97778db,2022-06-29_09h25.13.817,Colour_Asymmetry_Pilot,2022.1.3,Win32,30.04536851,62bbe60bf3d75ef465d3e404,0,67,67,79,1,fourthree,,,,,,,,,,,,,,,,,,,,,,,,,,,,,,,,,,,,,,,,,,,,,,,,,,,,,,,,,,,,,,,,,,,,,,,,,,,,,,,,,,,,,,,,,,,,,,,,,,,,,,,,,,,,,,,,,,,,,,,,,,,,,,,,,,,,,,,,,,,,,,,,,,,,,,,,
,,,,,,5cd7e678df739100011b1839,62bbfb3cd49be600f97778db,2022-06-29_09h25.13.817,Colour_Asymmetry_Pilot,2022.1.3,Win32,30.04536851,62bbe60bf3d75ef465d3e404,0,68,68,23,1,fourthree,,,,,,,,,,,,,,,,,,,,,,,,,,,,,,,,,,,,,,,,,,,,,,,,,,,,,,,,,,,,,,,,,,,,,,,,,,,,,,,,,,,,,,,,,,,,,,,,,,,,,,,,,,,,,,,,,,,,,,,,,,,,,,,,,,,,,,,,,,,,,,,,,,,,,,,,
,,,,,,5cd7e678df739100011b1839,62bbfb3cd49be600f97778db,2022-06-29_09h25.13.817,Colour_Asymmetry_Pilot,2022.1.3,Win32,30.04536851,62bbe60bf3d75ef465d3e404,0,69,69,153,1,onethree,,,,,,,,,,,,,,,,,,,,,,,,,,,,,,,,,,,,,,,,,,,,,,,,,,,,,,,,,,,,,,,,,,,,,,,,,,,,,,,,,,,,,,,,,,,,,,,,,,,,,,,,,,,,,,,,,,,,,,,,,,,,,,,,,,,,,,,,,,,,,,,,,,,,,,,,
,,,,,,5cd7e678df739100011b1839,62bbfb3cd49be600f97778db,2022-06-29_09h25.13.817,Colour_Asymmetry_Pilot,2022.1.3,Win32,30.04536851,62bbe60bf3d75ef465d3e404,0,70,70,16,1,onetwo,,,,,,,,,,,,,,,,,,,,,,,,,,,,,,,,,,,,,,,,,,,,,,,,,,,,,,,,,,,,,,,,,,,,,,,,,,,,,,,,,,,,,,,,,,,,,,,,,,,,,,,,,,,,,,,,,,,,,,,,,,,,,,,,,,,,,,,,,,,,,,,,,,,,,,,,
,,,,,,5cd7e678df739100011b1839,62bbfb3cd49be600f97778db,2022-06-29_09h25.13.817,Colour_Asymmetry_Pilot,2022.1.3,Win32,30.04536851,62bbe60bf3d75ef465d3e404,0,71,71,72,1,onetwo,,,,,,,,,,,,,,,,,,,,,,,,,,,,,,,,,,,,,,,,,,,,,,,,,,,,,,,,,,,,,,,,,,,,,,,,,,,,,,,,,,,,,,,,,,,,,,,,,,,,,,,,,,,,,,,,,,,,,,,,,,,,,,,,,,,,,,,,,,,,,,,,,,,,,,,,
,,,,,,5cd7e678df739100011b1839,62bbfb3cd49be600f97778db,2022-06-29_09h25.13.817,Colour_Asymmetry_Pilot,2022.1.3,Win32,30.04536851,62bbe60bf3d75ef465d3e404,0,72,72,88,1,onetwo,,,,,,,,,,,,,,,,,,,,,,,,,,,,,,,,,,,,,,,,,,,,,,,,,,,,,,,,,,,,,,,,,,,,,,,,,,,,,,,,,,,,,,,,,,,,,,,,,,,,,,,,,,,,,,,,,,,,,,,,,,,,,,,,,,,,,,,,,,,,,,,,,,,,,,,,
,,,,,,5cd7e678df739100011b1839,62bbfb3cd49be600f97778db,2022-06-29_09h25.13.817,Colour_Asymmetry_Pilot,2022.1.3,Win32,30.04536851,62bbe60bf3d75ef465d3e404,0,73,73,50,1,twoone,,,,,,,,,,,,,,,,,,,,,,,,,,,,,,,,,,,,,,,,,,,,,,,,,,,,,,,,,,,,,,,,,,,,,,,,,,,,,,,,,,,,,,,,,,,,,,,,,,,,,,,,,,,,,,,,,,,,,,,,,,,,,,,,,,,,,,,,,,,,,,,,,,,,,,,,
,,,,,,5cd7e678df739100011b1839,62bbfb3cd49be600f97778db,2022-06-29_09h25.13.817,Colour_Asymmetry_Pilot,2022.1.3,Win32,30.04536851,62bbe60bf3d75ef465d3e404,0,74,74,114,1,twoone,,,,,,,,,,,,,,,,,,,,,,,,,,,,,,,,,,,,,,,,,,,,,,,,,,,,,,,,,,,,,,,,,,,,,,,,,,,,,,,,,,,,,,,,,,,,,,,,,,,,,,,,,,,,,,,,,,,,,,,,,,,,,,,,,,,,,,,,,,,,,,,,,,,,,,,,
,,,,,,5cd7e678df739100011b1839,62bbfb3cd49be600f97778db,2022-06-29_09h25.13.817,Colour_Asymmetry_Pilot,2022.1.3,Win32,30.04536851,62bbe60bf3d75ef465d3e404,0,75,75,46,1,fourtwo,,,,,,,,,,,,,,,,,,,,,,,,,,,,,,,,,,,,,,,,,,,,,,,,,,,,,,,,,,,,,,,,,,,,,,,,,,,,,,,,,,,,,,,,,,,,,,,,,,,,,,,,,,,,,,,,,,,,,,,,,,,,,,,,,,,,,,,,,,,,,,,,,,,,,,,,
,,,,,,5cd7e678df739100011b1839,62bbfb3cd49be600f97778db,2022-06-29_09h25.13.817,Colour_Asymmetry_Pilot,2022.1.3,Win32,30.04536851,62bbe60bf3d75ef465d3e404,0,76,76,116,1,threeone,,,,,,,,,,,,,,,,,,,,,,,,,,,,,,,,,,,,,,,,,,,,,,,,,,,,,,,,,,,,,,,,,,,,,,,,,,,,,,,,,,,,,,,,,,,,,,,,,,,,,,,,,,,,,,,,,,,,,,,,,,,,,,,,,,,,,,,,,,,,,,,,,,,,,,,,
,,,,,,5cd7e678df739100011b1839,62bbfb3cd49be600f97778db,2022-06-29_09h25.13.817,Colour_Asymmetry_Pilot,2022.1.3,Win32,30.04536851,62bbe60bf3d75ef465d3e404,0,77,77,10,1,twoone,,,,,,,,,,,,,,,,,,,,,,,,,,,,,,,,,,,,,,,,,,,,,,,,,,,,,,,,,,,,,,,,,,,,,,,,,,,,,,,,,,,,,,,,,,,,,,,,,,,,,,,,,,,,,,,,,,,,,,,,,,,,,,,,,,,,,,,,,,,,,,,,,,,,,,,,
,,,,,,5cd7e678df739100011b1839,62bbfb3cd49be600f97778db,2022-06-29_09h25.13.817,Colour_Asymmetry_Pilot,2022.1.3,Win32,30.04536851,62bbe60bf3d75ef465d3e404,0,78,78,120,1,onetwo,,,,,,,,,,,,,,,,,,,,,,,,,,,,,,,,,,,,,,,,,,,,,,,,,,,,,,,,,,,,,,,,,,,,,,,,,,,,,,,,,,,,,,,,,,,,,,,,,,,,,,,,,,,,,,,,,,,,,,,,,,,,,,,,,,,,,,,,,,,,,,,,,,,,,,,,
,,,,,,5cd7e678df739100011b1839,62bbfb3cd49be600f97778db,2022-06-29_09h25.13.817,Colour_Asymmetry_Pilot,2022.1.3,Win32,30.04536851,62bbe60bf3d75ef465d3e404,0,79,79,27,1,twofour,,,,,,,,,,,,,,,,,,,,,,,,,,,,,,,,,,,,,,,,,,,,,,,,,,,,,,,,,,,,,,,,,,,,,,,,,,,,,,,,,,,,,,,,,,,,,,,,,,,,,,,,,,,,,,,,,,,,,,,,,,,,,,,,,,,,,,,,,,,,,,,,,,,,,,,,
,,,,,,5cd7e678df739100011b1839,62bbfb3cd49be600f97778db,2022-06-29_09h25.13.817,Colour_Asymmetry_Pilot,2022.1.3,Win32,30.04536851,62bbe60bf3d75ef465d3e404,0,80,80,142,1,fourtwo,,,,,,,,,,,,,,,,,,,,,,,,,,,,,,,,,,,,,,,,,,,,,,,,,,,,,,,,,,,,,,,,,,,,,,,,,,,,,,,,,,,,,,,,,,,,,,,,,,,,,,,,,,,,,,,,,,,,,,,,,,,,,,,,,,,,,,,,,,,,,,,,,,,,,,,,
,,,,,,5cd7e678df739100011b1839,62bbfb3cd49be600f97778db,2022-06-29_09h25.13.817,Colour_Asymmetry_Pilot,2022.1.3,Win32,30.04536851,62bbe60bf3d75ef465d3e404,0,81,81,64,1,onetwo,,,,,,,,,,,,,,,,,,,,,,,,,,,,,,,,,,,,,,,,,,,,,,,,,,,,,,,,,,,,,,,,,,,,,,,,,,,,,,,,,,,,,,,,,,,,,,,,,,,,,,,,,,,,,,,,,,,,,,,,,,,,,,,,,,,,,,,,,,,,,,,,,,,,,,,,
,,,,,,5cd7e678df739100011b1839,62bbfb3cd49be600f97778db,2022-06-29_09h25.13.817,Colour_Asymmetry_Pilot,2022.1.3,Win32,30.04536851,62bbe60bf3d75ef465d3e404,0,82,82,59,1,twofour,,,,,,,,,,,,,,,,,,,,,,,,,,,,,,,,,,,,,,,,,,,,,,,,,,,,,,,,,,,,,,,,,,,,,,,,,,,,,,,,,,,,,,,,,,,,,,,,,,,,,,,,,,,,,,,,,,,,,,,,,,,,,,,,,,,,,,,,,,,,,,,,,,,,,,,,
,,,,,,5cd7e678df739100011b1839,62bbfb3cd49be600f97778db,2022-06-29_09h25.13.817,Colour_Asymmetry_Pilot,2022.1.3,Win32,30.04536851,62bbe60bf3d75ef465d3e404,0,83,83,30,1,fourtwo,,,,,,,,,,,,,,,,,,,,,,,,,,,,,,,,,,,,,,,,,,,,,,,,,,,,,,,,,,,,,,,,,,,,,,,,,,,,,,,,,,,,,,,,,,,,,,,,,,,,,,,,,,,,,,,,,,,,,,,,,,,,,,,,,,,,,,,,,,,,,,,,,,,,,,,,
,,,,,,5cd7e678df739100011b1839,62bbfb3cd49be600f97778db,2022-06-29_09h25.13.817,Colour_Asymmetry_Pilot,2022.1.3,Win32,30.04536851,62bbe60bf3d75ef465d3e404,0,84,84,49,1,onethree,,,,,,,,,,,,,,,,,,,,,,,,,,,,,,,,,,,,,,,,,,,,,,,,,,,,,,,,,,,,,,,,,,,,,,,,,,,,,,,,,,,,,,,,,,,,,,,,,,,,,,,,,,,,,,,,,,,,,,,,,,,,,,,,,,,,,,,,,,,,,,,,,,,,,,,,
,,,,,,5cd7e678df739100011b1839,62bbfb3cd49be600f97778db,2022-06-29_09h25.13.817,Colour_Asymmetry_Pilot,2022.1.3,Win32,30.04536851,62bbe60bf3d75ef465d3e404,0,85,85,128,1,onetwo,,,,,,,,,,,,,,,,,,,,,,,,,,,,,,,,,,,,,,,,,,,,,,,,,,,,,,,,,,,,,,,,,,,,,,,,,,,,,,,,,,,,,,,,,,,,,,,,,,,,,,,,,,,,,,,,,,,,,,,,,,,,,,,,,,,,,,,,,,,,,,,,,,,,,,,,
,,,,,,5cd7e678df739100011b1839,62bbfb3cd49be600f97778db,2022-06-29_09h25.13.817,Colour_Asymmetry_Pilot,2022.1.3,Win32,30.04536851,62bbe60bf3d75ef465d3e404,0,86,86,52,1,threeone,,,,,,,,,,,,,,,,,,,,,,,,,,,,,,,,,,,,,,,,,,,,,,,,,,,,,,,,,,,,,,,,,,,,,,,,,,,,,,,,,,,,,,,,,,,,,,,,,,,,,,,,,,,,,,,,,,,,,,,,,,,,,,,,,,,,,,,,,,,,,,,,,,,,,,,,
,,,,,,5cd7e678df739100011b1839,62bbfb3cd49be600f97778db,2022-06-29_09h25.13.817,Colour_Asymmetry_Pilot,2022.1.3,Win32,30.04536851,62bbe60bf3d75ef465d3e404,0,87,87,94,1,fourtwo,,,,,,,,,,,,,,,,,,,,,,,,,,,,,,,,,,,,,,,,,,,,,,,,,,,,,,,,,,,,,,,,,,,,,,,,,,,,,,,,,,,,,,,,,,,,,,,,,,,,,,,,,,,,,,,,,,,,,,,,,,,,,,,,,,,,,,,,,,,,,,,,,,,,,,,,
,,,,,,5cd7e678df739100011b1839,62bbfb3cd49be600f97778db,2022-06-29_09h25.13.817,Colour_Asymmetry_Pilot,2022.1.3,Win32,30.04536851,62bbe60bf3d75ef465d3e404,0,88,88,148,1,threeone,,,,,,,,,,,,,,,,,,,,,,,,,,,,,,,,,,,,,,,,,,,,,,,,,,,,,,,,,,,,,,,,,,,,,,,,,,,,,,,,,,,,,,,,,,,,,,,,,,,,,,,,,,,,,,,,,,,,,,,,,,,,,,,,,,,,,,,,,,,,,,,,,,,,,,,,
,,,,,,5cd7e678df739100011b1839,62bbfb3cd49be600f97778db,2022-06-29_09h25.13.817,Colour_Asymmetry_Pilot,2022.1.3,Win32,30.04536851,62bbe60bf3d75ef465d3e404,0,89,89,158,1,fourtwo,,,,,,,,,,,,,,,,,,,,,,,,,,,,,,,,,,,,,,,,,,,,,,,,,,,,,,,,,,,,,,,,,,,,,,,,,,,,,,,,,,,,,,,,,,,,,,,,,,,,,,,,,,,,,,,,,,,,,,,,,,,,,,,,,,,,,,,,,,,,,,,,,,,,,,,,
,,,,,,5cd7e678df739100011b1839,62bbfb3cd49be600f97778db,2022-06-29_09h25.13.817,Colour_Asymmetry_Pilot,2022.1.3,Win32,30.04536851,62bbe60bf3d75ef465d3e404,0,90,90,2,1,twoone,,,,,,,,,,,,,,,,,,,,,,,,,,,,,,,,,,,,,,,,,,,,,,,,,,,,,,,,,,,,,,,,,,,,,,,,,,,,,,,,,,,,,,,,,,,,,,,,,,,,,,,,,,,,,,,,,,,,,,,,,,,,,,,,,,,,,,,,,,,,,,,,,,,,,,,,
,,,,,,5cd7e678df739100011b1839,62bbfb3cd49be600f97778db,2022-06-29_09h25.13.817,Colour_Asymmetry_Pilot,2022.1.3,Win32,30.04536851,62bbe60bf3d75ef465d3e404,0,91,91,76,1,threeone,,,,,,,,,,,,,,,,,,,,,,,,,,,,,,,,,,,,,,,,,,,,,,,,,,,,,,,,,,,,,,,,,,,,,,,,,,,,,,,,,,,,,,,,,,,,,,,,,,,,,,,,,,,,,,,,,,,,,,,,,,,,,,,,,,,,,,,,,,,,,,,,,,,,,,,,
,,,,,,5cd7e678df739100011b1839,62bbfb3cd49be600f97778db,2022-06-29_09h25.13.817,Colour_Asymmetry_Pilot,2022.1.3,Win32,30.04536851,62bbe60bf3d75ef465d3e404,0,92,92,155,1,twofour,,,,,,,,,,,,,,,,,,,,,,,,,,,,,,,,,,,,,,,,,,,,,,,,,,,,,,,,,,,,,,,,,,,,,,,,,,,,,,,,,,,,,,,,,,,,,,,,,,,,,,,,,,,,,,,,,,,,,,,,,,,,,,,,,,,,,,,,,,,,,,,,,,,,,,,,
,,,,,,5cd7e678df739100011b1839,62bbfb3cd49be600f97778db,2022-06-29_09h25.13.817,Colour_Asymmetry_Pilot,2022.1.3,Win32,30.04536851,62bbe60bf3d75ef465d3e404,0,93,93,82,1,twoone,,,,,,,,,,,,,,,,,,,,,,,,,,,,,,,,,,,,,,,,,,,,,,,,,,,,,,,,,,,,,,,,,,,,,,,,,,,,,,,,,,,,,,,,,,,,,,,,,,,,,,,,,,,,,,,,,,,,,,,,,,,,,,,,,,,,,,,,,,,,,,,,,,,,,,,,
,,,,,,5cd7e678df739100011b1839,62bbfb3cd49be600f97778db,2022-06-29_09h25.13.817,Colour_Asymmetry_Pilot,2022.1.3,Win32,30.04536851,62bbe60bf3d75ef465d3e404,0,94,94,28,1,threeone,,,,,,,,,,,,,,,,,,,,,,,,,,,,,,,,,,,,,,,,,,,,,,,,,,,,,,,,,,,,,,,,,,,,,,,,,,,,,,,,,,,,,,,,,,,,,,,,,,,,,,,,,,,,,,,,,,,,,,,,,,,,,,,,,,,,,,,,,,,,,,,,,,,,,,,,
,,,,,,5cd7e678df739100011b1839,62bbfb3cd49be600f97778db,2022-06-29_09h25.13.817,Colour_Asymmetry_Pilot,2022.1.3,Win32,30.04536851,62bbe60bf3d75ef465d3e404,0,95,95,90,1,twoone,,,,,,,,,,,,,,,,,,,,,,,,,,,,,,,,,,,,,,,,,,,,,,,,,,,,,,,,,,,,,,,,,,,,,,,,,,,,,,,,,,,,,,,,,,,,,,,,,,,,,,,,,,,,,,,,,,,,,,,,,,,,,,,,,,,,,,,,,,,,,,,,,,,,,,,,
,,,,,,5cd7e678df739100011b1839,62bbfb3cd49be600f97778db,2022-06-29_09h25.13.817,Colour_Asymmetry_Pilot,2022.1.3,Win32,30.04536851,62bbe60bf3d75ef465d3e404,0,96,96,78,1,fourtwo,,,,,,,,,,,,,,,,,,,,,,,,,,,,,,,,,,,,,,,,,,,,,,,,,,,,,,,,,,,,,,,,,,,,,,,,,,,,,,,,,,,,,,,,,,,,,,,,,,,,,,,,,,,,,,,,,,,,,,,,,,,,,,,,,,,,,,,,,,,,,,,,,,,,,,,,
,,,,,,5cd7e678df739100011b1839,62bbfb3cd49be600f97778db,2022-06-29_09h25.13.817,Colour_Asymmetry_Pilot,2022.1.3,Win32,30.04536851,62bbe60bf3d75ef465d3e404,0,97,97,92,1,threeone,,,,,,,,,,,,,,,,,,,,,,,,,,,,,,,,,,,,,,,,,,,,,,,,,,,,,,,,,,,,,,,,,,,,,,,,,,,,,,,,,,,,,,,,,,,,,,,,,,,,,,,,,,,,,,,,,,,,,,,,,,,,,,,,,,,,,,,,,,,,,,,,,,,,,,,,
,,,,,,5cd7e678df739100011b1839,62bbfb3cd49be600f97778db,2022-06-29_09h25.13.817,Colour_Asymmetry_Pilot,2022.1.3,Win32,30.04536851,62bbe60bf3d75ef465d3e404,0,98,98,57,1,onethree,,,,,,,,,,,,,,,,,,,,,,,,,,,,,,,,,,,,,,,,,,,,,,,,,,,,,,,,,,,,,,,,,,,,,,,,,,,,,,,,,,,,,,,,,,,,,,,,,,,,,,,,,,,,,,,,,,,,,,,,,,,,,,,,,,,,,,,,,,,,,,,,,,,,,,,,
,,,,,,5cd7e678df739100011b1839,62bbfb3cd49be600f97778db,2022-06-29_09h25.13.817,Colour_Asymmetry_Pilot,2022.1.3,Win32,30.04536851,62bbe60bf3d75ef465d3e404,0,99,99,67,1,twofour,,,,,,,,,,,,,,,,,,,,,,,,,,,,,,,,,,,,,,,,,,,,,,,,,,,,,,,,,,,,,,,,,,,,,,,,,,,,,,,,,,,,,,,,,,,,,,,,,,,,,,,,,,,,,,,,,,,,,,,,,,,,,,,,,,,,,,,,,,,,,,,,,,,,,,,,
,,,,,,5cd7e678df739100011b1839,62bbfb3cd49be600f97778db,2022-06-29_09h25.13.817,Colour_Asymmetry_Pilot,2022.1.3,Win32,30.04536851,62bbe60bf3d75ef465d3e404,0,100,100,33,1,onethree,,,,,,,,,,,,,,,,,,,,,,,,,,,,,,,,,,,,,,,,,,,,,,,,,,,,,,,,,,,,,,,,,,,,,,,,,,,,,,,,,,,,,,,,,,,,,,,,,,,,,,,,,,,,,,,,,,,,,,,,,,,,,,,,,,,,,,,,,,,,,,,,,,,,,,,,
,,,,,,5cd7e678df739100011b1839,62bbfb3cd49be600f97778db,2022-06-29_09h25.13.817,Colour_Asymmetry_Pilot,2022.1.3,Win32,30.04536851,62bbe60bf3d75ef465d3e404,0,101,101,123,1,twofour,,,,,,,,,,,,,,,,,,,,,,,,,,,,,,,,,,,,,,,,,,,,,,,,,,,,,,,,,,,,,,,,,,,,,,,,,,,,,,,,,,,,,,,,,,,,,,,,,,,,,,,,,,,,,,,,,,,,,,,,,,,,,,,,,,,,,,,,,,,,,,,,,,,,,,,,
,,,,,,5cd7e678df739100011b1839,62bbfb3cd49be600f97778db,2022-06-29_09h25.13.817,Colour_Asymmetry_Pilot,2022.1.3,Win32,30.04536851,62bbe60bf3d75ef465d3e404,0,102,102,51,1,twofour,,,,,,,,,,,,,,,,,,,,,,,,,,,,,,,,,,,,,,,,,,,,,,,,,,,,,,,,,,,,,,,,,,,,,,,,,,,,,,,,,,,,,,,,,,,,,,,,,,,,,,,,,,,,,,,,,,,,,,,,,,,,,,,,,,,,,,,,,,,,,,,,,,,,,,,,
,,,,,,5cd7e678df739100011b1839,62bbfb3cd49be600f97778db,2022-06-29_09h25.13.817,Colour_Asymmetry_Pilot,2022.1.3,Win32,30.04536851,62bbe60bf3d75ef465d3e404,0,103,103,126,1,fourtwo,,,,,,,,,,,,,,,,,,,,,,,,,,,,,,,,,,,,,,,,,,,,,,,,,,,,,,,,,,,,,,,,,,,,,,,,,,,,,,,,,,,,,,,,,,,,,,,,,,,,,,,,,,,,,,,,,,,,,,,,,,,,,,,,,,,,,,,,,,,,,,,,,,,,,,,,
,,,,,,5cd7e678df739100011b1839,62bbfb3cd49be600f97778db,2022-06-29_09h25.13.817,Colour_Asymmetry_Pilot,2022.1.3,Win32,30.04536851,62bbe60bf3d75ef465d3e404,0,104,104,3,1,twofour,,,,,,,,,,,,,,,,,,,,,,,,,,,,,,,,,,,,,,,,,,,,,,,,,,,,,,,,,,,,,,,,,,,,,,,,,,,,,,,,,,,,,,,,,,,,,,,,,,,,,,,,,,,,,,,,,,,,,,,,,,,,,,,,,,,,,,,,,,,,,,,,,,,,,,,,
,,,,,,5cd7e678df739100011b1839,62bbfb3cd49be600f97778db,2022-06-29_09h25.13.817,Colour_Asymmetry_Pilot,2022.1.3,Win32,30.04536851,62bbe60bf3d75ef465d3e404,0,105,105,65,1,onethree,,,,,,,,,,,,,,,,,,,,,,,,,,,,,,,,,,,,,,,,,,,,,,,,,,,,,,,,,,,,,,,,,,,,,,,,,,,,,,,,,,,,,,,,,,,,,,,,,,,,,,,,,,,,,,,,,,,,,,,,,,,,,,,,,,,,,,,,,,,,,,,,,,,,,,,,
,,,,,,5cd7e678df739100011b1839,62bbfb3cd49be600f97778db,2022-06-29_09h25.13.817,Colour_Asymmetry_Pilot,2022.1.3,Win32,30.04536851,62bbe60bf3d75ef465d3e404,0,106,106,104,1,onetwo,,,,,,,,,,,,,,,,,,,,,,,,,,,,,,,,,,,,,,,,,,,,,,,,,,,,,,,,,,,,,,,,,,,,,,,,,,,,,,,,,,,,,,,,,,,,,,,,,,,,,,,,,,,,,,,,,,,,,,,,,,,,,,,,,,,,,,,,,,,,,,,,,,,,,,,,
,,,,,,5cd7e678df739100011b1839,62bbfb3cd49be600f97778db,2022-06-29_09h25.13.817,Colour_Asymmetry_Pilot,2022.1.3,Win32,30.04536851,62bbe60bf3d75ef465d3e404,0,107,107,75,1,twofour,,,,,,,,,,,,,,,,,,,,,,,,,,,,,,,,,,,,,,,,,,,,,,,,,,,,,,,,,,,,,,,,,,,,,,,,,,,,,,,,,,,,,,,,,,,,,,,,,,,,,,,,,,,,,,,,,,,,,,,,,,,,,,,,,,,,,,,,,,,,,,,,,,,,,,,,
,,,,,,5cd7e678df739100011b1839,62bbfb3cd49be600f97778db,2022-06-29_09h25.13.817,Colour_Asymmetry_Pilot,2022.1.3,Win32,30.04536851,62bbe60bf3d75ef465d3e404,0,108,108,34,1,twoone,,,,,,,,,,,,,,,,,,,,,,,,,,,,,,,,,,,,,,,,,,,,,,,,,,,,,,,,,,,,,,,,,,,,,,,,,,,,,,,,,,,,,,,,,,,,,,,,,,,,,,,,,,,,,,,,,,,,,,,,,,,,,,,,,,,,,,,,,,,,,,,,,,,,,,,,
,,,,,,5cd7e678df739100011b1839,62bbfb3cd49be600f97778db,2022-06-29_09h25.13.817,Colour_Asymmetry_Pilot,2022.1.3,Win32,30.04536851,62bbe60bf3d75ef465d3e404,0,109,109,9,1,onethree,,,,,,,,,,,,,,,,,,,,,,,,,,,,,,,,,,,,,,,,,,,,,,,,,,,,,,,,,,,,,,,,,,,,,,,,,,,,,,,,,,,,,,,,,,,,,,,,,,,,,,,,,,,,,,,,,,,,,,,,,,,,,,,,,,,,,,,,,,,,,,,,,,,,,,,,
,,,,,,5cd7e678df739100011b1839,62bbfb3cd49be600f97778db,2022-06-29_09h25.13.817,Colour_Asymmetry_Pilot,2022.1.3,Win32,30.04536851,62bbe60bf3d75ef465d3e404,0,110,110,83,1,twofour,,,,,,,,,,,,,,,,,,,,,,,,,,,,,,,,,,,,,,,,,,,,,,,,,,,,,,,,,,,,,,,,,,,,,,,,,,,,,,,,,,,,,,,,,,,,,,,,,,,,,,,,,,,,,,,,,,,,,,,,,,,,,,,,,,,,,,,,,,,,,,,,,,,,,,,,
,,,,,,5cd7e678df739100011b1839,62bbfb3cd49be600f97778db,2022-06-29_09h25.13.817,Colour_Asymmetry_Pilot,2022.1.3,Win32,30.04536851,62bbe60bf3d75ef465d3e404,0,111,111,81,1,onethree,,,,,,,,,,,,,,,,,,,,,,,,,,,,,,,,,,,,,,,,,,,,,,,,,,,,,,,,,,,,,,,,,,,,,,,,,,,,,,,,,,,,,,,,,,,,,,,,,,,,,,,,,,,,,,,,,,,,,,,,,,,,,,,,,,,,,,,,,,,,,,,,,,,,,,,,
,,,,,,5cd7e678df739100011b1839,62bbfb3cd49be600f97778db,2022-06-29_09h25.13.817,Colour_Asymmetry_Pilot,2022.1.3,Win32,30.04536851,62bbe60bf3d75ef465d3e404,0,112,112,63,1,fourthree,,,,,,,,,,,,,,,,,,,,,,,,,,,,,,,,,,,,,,,,,,,,,,,,,,,,,,,,,,,,,,,,,,,,,,,,,,,,,,,,,,,,,,,,,,,,,,,,,,,,,,,,,,,,,,,,,,,,,,,,,,,,,,,,,,,,,,,,,,,,,,,,,,,,,,,,
,,,,,,5cd7e678df739100011b1839,62bbfb3cd49be600f97778db,2022-06-29_09h25.13.817,Colour_Asymmetry_Pilot,2022.1.3,Win32,30.04536851,62bbe60bf3d75ef465d3e404,0,113,113,127,1,fourthree,,,,,,,,,,,,,,,,,,,,,,,,,,,,,,,,,,,,,,,,,,,,,,,,,,,,,,,,,,,,,,,,,,,,,,,,,,,,,,,,,,,,,,,,,,,,,,,,,,,,,,,,,,,,,,,,,,,,,,,,,,,,,,,,,,,,,,,,,,,,,,,,,,,,,,,,
,,,,,,5cd7e678df739100011b1839,62bbfb3cd49be600f97778db,2022-06-29_09h25.13.817,Colour_Asymmetry_Pilot,2022.1.3,Win32,30.04536851,62bbe60bf3d75ef465d3e404,0,114,114,137,1,onethree,,,,,,,,,,,,,,,,,,,,,,,,,,,,,,,,,,,,,,,,,,,,,,,,,,,,,,,,,,,,,,,,,,,,,,,,,,,,,,,,,,,,,,,,,,,,,,,,,,,,,,,,,,,,,,,,,,,,,,,,,,,,,,,,,,,,,,,,,,,,,,,,,,,,,,,,
,,,,,,5cd7e678df739100011b1839,62bbfb3cd49be600f97778db,2022-06-29_09h25.13.817,Colour_Asymmetry_Pilot,2022.1.3,Win32,30.04536851,62bbe60bf3d75ef465d3e404,0,115,115,150,1,fourtwo,,,,,,,,,,,,,,,,,,,,,,,,,,,,,,,,,,,,,,,,,,,,,,,,,,,,,,,,,,,,,,,,,,,,,,,,,,,,,,,,,,,,,,,,,,,,,,,,,,,,,,,,,,,,,,,,,,,,,,,,,,,,,,,,,,,,,,,,,,,,,,,,,,,,,,,,
,,,,,,5cd7e678df739100011b1839,62bbfb3cd49be600f97778db,2022-06-29_09h25.13.817,Colour_Asymmetry_Pilot,2022.1.3,Win32,30.04536851,62bbe60bf3d75ef465d3e404,0,116,116,21,1,threefour,,,,,,,,,,,,,,,,,,,,,,,,,,,,,,,,,,,,,,,,,,,,,,,,,,,,,,,,,,,,,,,,,,,,,,,,,,,,,,,,,,,,,,,,,,,,,,,,,,,,,,,,,,,,,,,,,,,,,,,,,,,,,,,,,,,,,,,,,,,,,,,,,,,,,,,,
,,,,,,5cd7e678df739100011b1839,62bbfb3cd49be600f97778db,2022-06-29_09h25.13.817,Colour_Asymmetry_Pilot,2022.1.3,Win32,30.04536851,62bbe60bf3d75ef465d3e404,0,117,117,119,1,fourthree,,,,,,,,,,,,,,,,,,,,,,,,,,,,,,,,,,,,,,,,,,,,,,,,,,,,,,,,,,,,,,,,,,,,,,,,,,,,,,,,,,,,,,,,,,,,,,,,,,,,,,,,,,,,,,,,,,,,,,,,,,,,,,,,,,,,,,,,,,,,,,,,,,,,,,,,
,,,,,,5cd7e678df739100011b1839,62bbfb3cd49be600f97778db,2022-06-29_09h25.13.817,Colour_Asymmetry_Pilot,2022.1.3,Win32,30.04536851,62bbe60bf3d75ef465d3e404,0,118,118,152,1,onetwo,,,,,,,,,,,,,,,,,,,,,,,,,,,,,,,,,,,,,,,,,,,,,,,,,,,,,,,,,,,,,,,,,,,,,,,,,,,,,,,,,,,,,,,,,,,,,,,,,,,,,,,,,,,,,,,,,,,,,,,,,,,,,,,,,,,,,,,,,,,,,,,,,,,,,,,,
,,,,,,5cd7e678df739100011b1839,62bbfb3cd49be600f97778db,2022-06-29_09h25.13.817,Colour_Asymmetry_Pilot,2022.1.3,Win32,30.04536851,62bbe60bf3d75ef465d3e404,0,119,119,56,1,onetwo,,,,,,,,,,,,,,,,,,,,,,,,,,,,,,,,,,,,,,,,,,,,,,,,,,,,,,,,,,,,,,,,,,,,,,,,,,,,,,,,,,,,,,,,,,,,,,,,,,,,,,,,,,,,,,,,,,,,,,,,,,,,,,,,,,,,,,,,,,,,,,,,,,,,,,,,
,,,,,,5cd7e678df739100011b1839,62bbfb3cd49be600f97778db,2022-06-29_09h25.13.817,Colour_Asymmetry_Pilot,2022.1.3,Win32,30.04536851,62bbe60bf3d75ef465d3e404,0,120,120,141,1,threefour,,,,,,,,,,,,,,,,,,,,,,,,,,,,,,,,,,,,,,,,,,,,,,,,,,,,,,,,,,,,,,,,,,,,,,,,,,,,,,,,,,,,,,,,,,,,,,,,,,,,,,,,,,,,,,,,,,,,,,,,,,,,,,,,,,,,,,,,,,,,,,,,,,,,,,,,
,,,,,,5cd7e678df739100011b1839,62bbfb3cd49be600f97778db,2022-06-29_09h25.13.817,Colour_Asymmetry_Pilot,2022.1.3,Win32,30.04536851,62bbe60bf3d75ef465d3e404,0,121,121,22,1,fourtwo,,,,,,,,,,,,,,,,,,,,,,,,,,,,,,,,,,,,,,,,,,,,,,,,,,,,,,,,,,,,,,,,,,,,,,,,,,,,,,,,,,,,,,,,,,,,,,,,,,,,,,,,,,,,,,,,,,,,,,,,,,,,,,,,,,,,,,,,,,,,,,,,,,,,,,,,
,,,,,,5cd7e678df739100011b1839,62bbfb3cd49be600f97778db,2022-06-29_09h25.13.817,Colour_Asymmetry_Pilot,2022.1.3,Win32,30.04536851,62bbe60bf3d75ef465d3e404,0,122,122,122,1,twoone,,,,,,,,,,,,,,,,,,,,,,,,,,,,,,,,,,,,,,,,,,,,,,,,,,,,,,,,,,,,,,,,,,,,,,,,,,,,,,,,,,,,,,,,,,,,,,,,,,,,,,,,,,,,,,,,,,,,,,,,,,,,,,,,,,,,,,,,,,,,,,,,,,,,,,,,
,,,,,,5cd7e678df739100011b1839,62bbfb3cd49be600f97778db,2022-06-29_09h25.13.817,Colour_Asymmetry_Pilot,2022.1.3,Win32,30.04536851,62bbe60bf3d75ef465d3e404,0,123,123,12,1,threeone,,,,,,,,,,,,,,,,,,,,,,,,,,,,,,,,,,,,,,,,,,,,,,,,,,,,,,,,,,,,,,,,,,,,,,,,,,,,,,,,,,,,,,,,,,,,,,,,,,,,,,,,,,,,,,,,,,,,,,,,,,,,,,,,,,,,,,,,,,,,,,,,,,,,,,,,
,,,,,,5cd7e678df739100011b1839,62bbfb3cd49be600f97778db,2022-06-29_09h25.13.817,Colour_Asymmetry_Pilot,2022.1.3,Win32,30.04536851,62bbe60bf3d75ef465d3e404,0,124,124,32,1,onetwo,,,,,,,,,,,,,,,,,,,,,,,,,,,,,,,,,,,,,,,,,,,,,,,,,,,,,,,,,,,,,,,,,,,,,,,,,,,,,,,,,,,,,,,,,,,,,,,,,,,,,,,,,,,,,,,,,,,,,,,,,,,,,,,,,,,,,,,,,,,,,,,,,,,,,,,,
,,,,,,5cd7e678df739100011b1839,62bbfb3cd49be600f97778db,2022-06-29_09h25.13.817,Colour_Asymmetry_Pilot,2022.1.3,Win32,30.04536851,62bbe60bf3d75ef465d3e404,0,125,125,135,1,fourthree,,,,,,,,,,,,,,,,,,,,,,,,,,,,,,,,,,,,,,,,,,,,,,,,,,,,,,,,,,,,,,,,,,,,,,,,,,,,,,,,,,,,,,,,,,,,,,,,,,,,,,,,,,,,,,,,,,,,,,,,,,,,,,,,,,,,,,,,,,,,,,,,,,,,,,,,
,,,,,,5cd7e678df739100011b1839,62bbfb3cd49be600f97778db,2022-06-29_09h25.13.817,Colour_Asymmetry_Pilot,2022.1.3,Win32,30.04536851,62bbe60bf3d75ef465d3e404,0,126,126,106,1,twoone,,,,,,,,,,,,,,,,,,,,,,,,,,,,,,,,,,,,,,,,,,,,,,,,,,,,,,,,,,,,,,,,,,,,,,,,,,,,,,,,,,,,,,,,,,,,,,,,,,,,,,,,,,,,,,,,,,,,,,,,,,,,,,,,,,,,,,,,,,,,,,,,,,,,,,,,
,,,,,,5cd7e678df739100011b1839,62bbfb3cd49be600f97778db,2022-06-29_09h25.13.817,Colour_Asymmetry_Pilot,2022.1.3,Win32,30.04536851,62bbe60bf3d75ef465d3e404,0,127,127,134,1,fourtwo,,,,,,,,,,,,,,,,,,,,,,,,,,,,,,,,,,,,,,,,,,,,,,,,,,,,,,,,,,,,,,,,,,,,,,,,,,,,,,,,,,,,,,,,,,,,,,,,,,,,,,,,,,,,,,,,,,,,,,,,,,,,,,,,,,,,,,,,,,,,,,,,,,,,,,,,
,,,,,,5cd7e678df739100011b1839,62bbfb3cd49be600f97778db,2022-06-29_09h25.13.817,Colour_Asymmetry_Pilot,2022.1.3,Win32,30.04536851,62bbe60bf3d75ef465d3e404,0,128,128,159,1,fourthree,,,,,,,,,,,,,,,,,,,,,,,,,,,,,,,,,,,,,,,,,,,,,,,,,,,,,,,,,,,,,,,,,,,,,,,,,,,,,,,,,,,,,,,,,,,,,,,,,,,,,,,,,,,,,,,,,,,,,,,,,,,,,,,,,,,,,,,,,,,,,,,,,,,,,,,,
,,,,,,5cd7e678df739100011b1839,62bbfb3cd49be600f97778db,2022-06-29_09h25.13.817,Colour_Asymmetry_Pilot,2022.1.3,Win32,30.04536851,62bbe60bf3d75ef465d3e404,0,129,129,121,1,onethree,,,,,,,,,,,,,,,,,,,,,,,,,,,,,,,,,,,,,,,,,,,,,,,,,,,,,,,,,,,,,,,,,,,,,,,,,,,,,,,,,,,,,,,,,,,,,,,,,,,,,,,,,,,,,,,,,,,,,,,,,,,,,,,,,,,,,,,,,,,,,,,,,,,,,,,,
,,,,,,5cd7e678df739100011b1839,62bbfb3cd49be600f97778db,2022-06-29_09h25.13.817,Colour_Asymmetry_Pilot,2022.1.3,Win32,30.04536851,62bbe60bf3d75ef465d3e404,0,130,130,86,1,fourtwo,,,,,,,,,,,,,,,,,,,,,,,,,,,,,,,,,,,,,,,,,,,,,,,,,,,,,,,,,,,,,,,,,,,,,,,,,,,,,,,,,,,,,,,,,,,,,,,,,,,,,,,,,,,,,,,,,,,,,,,,,,,,,,,,,,,,,,,,,,,,,,,,,,,,,,,,
,,,,,,5cd7e678df739100011b1839,62bbfb3cd49be600f97778db,2022-06-29_09h25.13.817,Colour_Asymmetry_Pilot,2022.1.3,Win32,30.04536851,62bbe60bf3d75ef465d3e404,0,131,131,66,1,twoone,,,,,,,,,,,,,,,,,,,,,,,,,,,,,,,,,,,,,,,,,,,,,,,,,,,,,,,,,,,,,,,,,,,,,,,,,,,,,,,,,,,,,,,,,,,,,,,,,,,,,,,,,,,,,,,,,,,,,,,,,,,,,,,,,,,,,,,,,,,,,,,,,,,,,,,,
,,,,,,5cd7e678df739100011b1839,62bbfb3cd49be600f97778db,2022-06-29_09h25.13.817,Colour_Asymmetry_Pilot,2022.1.3,Win32,30.04536851,62bbe60bf3d75ef465d3e404,0,132,132,45,1,threefour,,,,,,,,,,,,,,,,,,,,,,,,,,,,,,,,,,,,,,,,,,,,,,,,,,,,,,,,,,,,,,,,,,,,,,,,,,,,,,,,,,,,,,,,,,,,,,,,,,,,,,,,,,,,,,,,,,,,,,,,,,,,,,,,,,,,,,,,,,,,,,,,,,,,,,,,
,,,,,,5cd7e678df739100011b1839,62bbfb3cd49be600f97778db,2022-06-29_09h25.13.817,Colour_Asymmetry_Pilot,2022.1.3,Win32,30.04536851,62bbe60bf3d75ef465d3e404,0,133,133,105,1,onethree,,,,,,,,,,,,,,,,,,,,,,,,,,,,,,,,,,,,,,,,,,,,,,,,,,,,,,,,,,,,,,,,,,,,,,,,,,,,,,,,,,,,,,,,,,,,,,,,,,,,,,,,,,,,,,,,,,,,,,,,,,,,,,,,,,,,,,,,,,,,,,,,,,,,,,,,
,,,,,,5cd7e678df739100011b1839,62bbfb3cd49be600f97778db,2022-06-29_09h25.13.817,Colour_Asymmetry_Pilot,2022.1.3,Win32,30.04536851,62bbe60bf3d75ef465d3e404,0,134,134,4,1,threeone,,,,,,,,,,,,,,,,,,,,,,,,,,,,,,,,,,,,,,,,,,,,,,,,,,,,,,,,,,,,,,,,,,,,,,,,,,,,,,,,,,,,,,,,,,,,,,,,,,,,,,,,,,,,,,,,,,,,,,,,,,,,,,,,,,,,,,,,,,,,,,,,,,,,,,,,
,,,,,,5cd7e678df739100011b1839,62bbfb3cd49be600f97778db,2022-06-29_09h25.13.817,Colour_Asymmetry_Pilot,2022.1.3,Win32,30.04536851,62bbe60bf3d75ef465d3e404,0,135,135,38,1,fourtwo,,,,,,,,,,,,,,,,,,,,,,,,,,,,,,,,,,,,,,,,,,,,,,,,,,,,,,,,,,,,,,,,,,,,,,,,,,,,,,,,,,,,,,,,,,,,,,,,,,,,,,,,,,,,,,,,,,,,,,,,,,,,,,,,,,,,,,,,,,,,,,,,,,,,,,,,
,,,,,,5cd7e678df739100011b1839,62bbfb3cd49be600f97778db,2022-06-29_09h25.13.817,Colour_Asymmetry_Pilot,2022.1.3,Win32,30.04536851,62bbe60bf3d75ef465d3e404,0,136,136,31,1,fourthree,,,,,,,,,,,,,,,,,,,,,,,,,,,,,,,,,,,,,,,,,,,,,,,,,,,,,,,,,,,,,,,,,,,,,,,,,,,,,,,,,,,,,,,,,,,,,,,,,,,,,,,,,,,,,,,,,,,,,,,,,,,,,,,,,,,,,,,,,,,,,,,,,,,,,,,,
,,,,,,5cd7e678df739100011b1839,62bbfb3cd49be600f97778db,2022-06-29_09h25.13.817,Colour_Asymmetry_Pilot,2022.1.3,Win32,30.04536851,62bbe60bf3d75ef465d3e404,0,137,137,146,1,twoone,,,,,,,,,,,,,,,,,,,,,,,,,,,,,,,,,,,,,,,,,,,,,,,,,,,,,,,,,,,,,,,,,,,,,,,,,,,,,,,,,,,,,,,,,,,,,,,,,,,,,,,,,,,,,,,,,,,,,,,,,,,,,,,,,,,,,,,,,,,,,,,,,,,,,,,,
,,,,,,5cd7e678df739100011b1839,62bbfb3cd49be600f97778db,2022-06-29_09h25.13.817,Colour_Asymmetry_Pilot,2022.1.3,Win32,30.04536851,62bbe60bf3d75ef465d3e404,0,138,138,140,1,threeone,,,,,,,,,,,,,,,,,,,,,,,,,,,,,,,,,,,,,,,,,,,,,,,,,,,,,,,,,,,,,,,,,,,,,,,,,,,,,,,,,,,,,,,,,,,,,,,,,,,,,,,,,,,,,,,,,,,,,,,,,,,,,,,,,,,,,,,,,,,,,,,,,,,,,,,,
,,,,,,5cd7e678df739100011b1839,62bbfb3cd49be600f97778db,2022-06-29_09h25.13.817,Colour_Asymmetry_Pilot,2022.1.3,Win32,30.04536851,62bbe60bf3d75ef465d3e404,0,139,139,61,1,threefour,,,,,,,,,,,,,,,,,,,,,,,,,,,,,,,,,,,,,,,,,,,,,,,,,,,,,,,,,,,,,,,,,,,,,,,,,,,,,,,,,,,,,,,,,,,,,,,,,,,,,,,,,,,,,,,,,,,,,,,,,,,,,,,,,,,,,,,,,,,,,,,,,,,,,,,,
,,,,,,5cd7e678df739100011b1839,62bbfb3cd49be600f97778db,2022-06-29_09h25.13.817,Colour_Asymmetry_Pilot,2022.1.3,Win32,30.04536851,62bbe60bf3d75ef465d3e404,0,140,140,17,1,onethree,,,,,,,,,,,,,,,,,,,,,,,,,,,,,,,,,,,,,,,,,,,,,,,,,,,,,,,,,,,,,,,,,,,,,,,,,,,,,,,,,,,,,,,,,,,,,,,,,,,,,,,,,,,,,,,,,,,,,,,,,,,,,,,,,,,,,,,,,,,,,,,,,,,,,,,,
,,,,,,5cd7e678df739100011b1839,62bbfb3cd49be600f97778db,2022-06-29_09h25.13.817,Colour_Asymmetry_Pilot,2022.1.3,Win32,30.04536851,62bbe60bf3d75ef465d3e404,0,141,141,87,1,fourthree,,,,,,,,,,,,,,,,,,,,,,,,,,,,,,,,,,,,,,,,,,,,,,,,,,,,,,,,,,,,,,,,,,,,,,,,,,,,,,,,,,,,,,,,,,,,,,,,,,,,,,,,,,,,,,,,,,,,,,,,,,,,,,,,,,,,,,,,,,,,,,,,,,,,,,,,
,,,,,,5cd7e678df739100011b1839,62bbfb3cd49be600f97778db,2022-06-29_09h25.13.817,Colour_Asymmetry_Pilot,2022.1.3,Win32,30.04536851,62bbe60bf3d75ef465d3e404,0,142,142,6,1,fourtwo,,,,,,,,,,,,,,,,,,,,,,,,,,,,,,,,,,,,,,,,,,,,,,,,,,,,,,,,,,,,,,,,,,,,,,,,,,,,,,,,,,,,,,,,,,,,,,,,,,,,,,,,,,,,,,,,,,,,,,,,,,,,,,,,,,,,,,,,,,,,,,,,,,,,,,,,
,,,,,,5cd7e678df739100011b1839,62bbfb3cd49be600f97778db,2022-06-29_09h25.13.817,Colour_Asymmetry_Pilot,2022.1.3,Win32,30.04536851,62bbe60bf3d75ef465d3e404,0,143,143,41,1,onethree,,,,,,,,,,,,,,,,,,,,,,,,,,,,,,,,,,,,,,,,,,,,,,,,,,,,,,,,,,,,,,,,,,,,,,,,,,,,,,,,,,,,,,,,,,,,,,,,,,,,,,,,,,,,,,,,,,,,,,,,,,,,,,,,,,,,,,,,,,,,,,,,,,,,,,,,
,,,,,,5cd7e678df739100011b1839,62bbfb3cd49be600f97778db,2022-06-29_09h25.13.817,Colour_Asymmetry_Pilot,2022.1.3,Win32,30.04536851,62bbe60bf3d75ef465d3e404,0,144,144,156,1,threeone,,,,,,,,,,,,,,,,,,,,,,,,,,,,,,,,,,,,,,,,,,,,,,,,,,,,,,,,,,,,,,,,,,,,,,,,,,,,,,,,,,,,,,,,,,,,,,,,,,,,,,,,,,,,,,,,,,,,,,,,,,,,,,,,,,,,,,,,,,,,,,,,,,,,,,,,
,,,,,,5cd7e678df739100011b1839,62bbfb3cd49be600f97778db,2022-06-29_09h25.13.817,Colour_Asymmetry_Pilot,2022.1.3,Win32,30.04536851,62bbe60bf3d75ef465d3e404,0,145,145,47,1,fourthree,,,,,,,,,,,,,,,,,,,,,,,,,,,,,,,,,,,,,,,,,,,,,,,,,,,,,,,,,,,,,,,,,,,,,,,,,,,,,,,,,,,,,,,,,,,,,,,,,,,,,,,,,,,,,,,,,,,,,,,,,,,,,,,,,,,,,,,,,,,,,,,,,,,,,,,,
,,,,,,5cd7e678df739100011b1839,62bbfb3cd49be600f97778db,2022-06-29_09h25.13.817,Colour_Asymmetry_Pilot,2022.1.3,Win32,30.04536851,62bbe60bf3d75ef465d3e404,0,146,146,138,1,twoone,,,,,,,,,,,,,,,,,,,,,,,,,,,,,,,,,,,,,,,,,,,,,,,,,,,,,,,,,,,,,,,,,,,,,,,,,,,,,,,,,,,,,,,,,,,,,,,,,,,,,,,,,,,,,,,,,,,,,,,,,,,,,,,,,,,,,,,,,,,,,,,,,,,,,,,,
,,,,,,5cd7e678df739100011b1839,62bbfb3cd49be600f97778db,2022-06-29_09h25.13.817,Colour_Asymmetry_Pilot,2022.1.3,Win32,30.04536851,62bbe60bf3d75ef465d3e404,0,147,147,5,1,threefour,,,,,,,,,,,,,,,,,,,,,,,,,,,,,,,,,,,,,,,,,,,,,,,,,,,,,,,,,,,,,,,,,,,,,,,,,,,,,,,,,,,,,,,,,,,,,,,,,,,,,,,,,,,,,,,,,,,,,,,,,,,,,,,,,,,,,,,,,,,,,,,,,,,,,,,,
,,,,,,5cd7e678df739100011b1839,62bbfb3cd49be600f97778db,2022-06-29_09h25.13.817,Colour_Asymmetry_Pilot,2022.1.3,Win32,30.04536851,62bbe60bf3d75ef465d3e404,0,148,148,115,1,twofour,,,,,,,,,,,,,,,,,,,,,,,,,,,,,,,,,,,,,,,,,,,,,,,,,,,,,,,,,,,,,,,,,,,,,,,,,,,,,,,,,,,,,,,,,,,,,,,,,,,,,,,,,,,,,,,,,,,,,,,,,,,,,,,,,,,,,,,,,,,,,,,,,,,,,,,,
,,,,,,5cd7e678df739100011b1839,62bbfb3cd49be600f97778db,2022-06-29_09h25.13.817,Colour_Asymmetry_Pilot,2022.1.3,Win32,30.04536851,62bbe60bf3d75ef465d3e404,0,149,149,37,1,threefour,,,,,,,,,,,,,,,,,,,,,,,,,,,,,,,,,,,,,,,,,,,,,,,,,,,,,,,,,,,,,,,,,,,,,,,,,,,,,,,,,,,,,,,,,,,,,,,,,,,,,,,,,,,,,,,,,,,,,,,,,,,,,,,,,,,,,,,,,,,,,,,,,,,,,,,,
,,,,,,5cd7e678df739100011b1839,62bbfb3cd49be600f97778db,2022-06-29_09h25.13.817,Colour_Asymmetry_Pilot,2022.1.3,Win32,30.04536851,62bbe60bf3d75ef465d3e404,0,150,150,107,1,twofour,,,,,,,,,,,,,,,,,,,,,,,,,,,,,,,,,,,,,,,,,,,,,,,,,,,,,,,,,,,,,,,,,,,,,,,,,,,,,,,,,,,,,,,,,,,,,,,,,,,,,,,,,,,,,,,,,,,,,,,,,,,,,,,,,,,,,,,,,,,,,,,,,,,,,,,,
,,,,,,5cd7e678df739100011b1839,62bbfb3cd49be600f97778db,2022-06-29_09h25.13.817,Colour_Asymmetry_Pilot,2022.1.3,Win32,30.04536851,62bbe60bf3d75ef465d3e404,0,151,151,55,1,fourthree,,,,,,,,,,,,,,,,,,,,,,,,,,,,,,,,,,,,,,,,,,,,,,,,,,,,,,,,,,,,,,,,,,,,,,,,,,,,,,,,,,,,,,,,,,,,,,,,,,,,,,,,,,,,,,,,,,,,,,,,,,,,,,,,,,,,,,,,,,,,,,,,,,,,,,,,
,,,,,,5cd7e678df739100011b1839,62bbfb3cd49be600f97778db,2022-06-29_09h25.13.817,Colour_Asymmetry_Pilot,2022.1.3,Win32,30.04536851,62bbe60bf3d75ef465d3e404,0,152,152,19,1,twofour,,,,,,,,,,,,,,,,,,,,,,,,,,,,,,,,,,,,,,,,,,,,,,,,,,,,,,,,,,,,,,,,,,,,,,,,,,,,,,,,,,,,,,,,,,,,,,,,,,,,,,,,,,,,,,,,,,,,,,,,,,,,,,,,,,,,,,,,,,,,,,,,,,,,,,,,
,,,,,,5cd7e678df739100011b1839,62bbfb3cd49be600f97778db,2022-06-29_09h25.13.817,Colour_Asymmetry_Pilot,2022.1.3,Win32,30.04536851,62bbe60bf3d75ef465d3e404,0,153,153,100,1,threeone,,,,,,,,,,,,,,,,,,,,,,,,,,,,,,,,,,,,,,,,,,,,,,,,,,,,,,,,,,,,,,,,,,,,,,,,,,,,,,,,,,,,,,,,,,,,,,,,,,,,,,,,,,,,,,,,,,,,,,,,,,,,,,,,,,,,,,,,,,,,,,,,,,,,,,,,
,,,,,,5cd7e678df739100011b1839,62bbfb3cd49be600f97778db,2022-06-29_09h25.13.817,Colour_Asymmetry_Pilot,2022.1.3,Win32,30.04536851,62bbe60bf3d75ef465d3e404,0,154,154,118,1,fourtwo,,,,,,,,,,,,,,,,,,,,,,,,,,,,,,,,,,,,,,,,,,,,,,,,,,,,,,,,,,,,,,,,,,,,,,,,,,,,,,,,,,,,,,,,,,,,,,,,,,,,,,,,,,,,,,,,,,,,,,,,,,,,,,,,,,,,,,,,,,,,,,,,,,,,,,,,
,,,,,,5cd7e678df739100011b1839,62bbfb3cd49be600f97778db,2022-06-29_09h25.13.817,Colour_Asymmetry_Pilot,2022.1.3,Win32,30.04536851,62bbe60bf3d75ef465d3e404,0,155,155,125,1,threefour,,,,,,,,,,,,,,,,,,,,,,,,,,,,,,,,,,,,,,,,,,,,,,,,,,,,,,,,,,,,,,,,,,,,,,,,,,,,,,,,,,,,,,,,,,,,,,,,,,,,,,,,,,,,,,,,,,,,,,,,,,,,,,,,,,,,,,,,,,,,,,,,,,,,,,,,
,,,,,,5cd7e678df739100011b1839,62bbfb3cd49be600f97778db,2022-06-29_09h25.13.817,Colour_Asymmetry_Pilot,2022.1.3,Win32,30.04536851,62bbe60bf3d75ef465d3e404,0,156,156,24,1,onetwo,,,,,,,,,,,,,,,,,,,,,,,,,,,,,,,,,,,,,,,,,,,,,,,,,,,,,,,,,,,,,,,,,,,,,,,,,,,,,,,,,,,,,,,,,,,,,,,,,,,,,,,,,,,,,,,,,,,,,,,,,,,,,,,,,,,,,,,,,,,,,,,,,,,,,,,,
,,,,,,5cd7e678df739100011b1839,62bbfb3cd49be600f97778db,2022-06-29_09h25.13.817,Colour_Asymmetry_Pilot,2022.1.3,Win32,30.04536851,62bbe60bf3d75ef465d3e404,0,157,157,95,1,fourthree,,,,,,,,,,,,,,,,,,,,,,,,,,,,,,,,,,,,,,,,,,,,,,,,,,,,,,,,,,,,,,,,,,,,,,,,,,,,,,,,,,,,,,,,,,,,,,,,,,,,,,,,,,,,,,,,,,,,,,,,,,,,,,,,,,,,,,,,,,,,,,,,,,,,,,,,
,,,,,,5cd7e678df739100011b1839,62bbfb3cd49be600f97778db,2022-06-29_09h25.13.817,Colour_Asymmetry_Pilot,2022.1.3,Win32,30.04536851,62bbe60bf3d75ef465d3e404,0,158,158,143,1,fourthree,,,,,,,,,,,,,,,,,,,,,,,,,,,,,,,,,,,,,,,,,,,,,,,,,,,,,,,,,,,,,,,,,,,,,,,,,,,,,,,,,,,,,,,,,,,,,,,,,,,,,,,,,,,,,,,,,,,,,,,,,,,,,,,,,,,,,,,,,,,,,,,,,,,,,,,,
,,,,,,5cd7e678df739100011b1839,62bbfb3cd49be600f97778db,2022-06-29_09h25.13.817,Colour_Asymmetry_Pilot,2022.1.3,Win32,30.04536851,62bbe60bf3d75ef465d3e404,0,159,159,7,1,fourthree,,,,,,,,,,,,,,,,,,,,,,,,,,,,,,,,,,,,,,,,,,,,,,,,,,,,,,,,,,,,,,,,,,,,,,,,,,,,,,,,,,,,,,,,,,,,,,,,,,,,,,,,,,,,,,,,,,,,,,,,,,,,,,,,,,,,,,,,,,,,,,,,,,,,,,,,
,,,,,,5cd7e678df739100011b1839,62bbfb3cd49be600f97778db,2022-06-29_09h25.13.817,Colour_Asymmetry_Pilot,2022.1.3,Win32,30.04536851,62bbe60bf3d75ef465d3e404,0,160,160,108,1,threeone,,,,,,,,,,,,,,,,,,,,,,,,,,,,,,,,,,,,,,,,,,,,,,,,,,,,,,,,,,,,,,,,,,,,,,,,,,,,,,,,,,,,,,,,,,,,,,,,,,,,,,,,,,,,,,,,,,,,,,,,,,,,,,,,,,,,,,,,,,,,,,,,,,,,,,,,
,,,,,,5cd7e678df739100011b1839,62bbfb3cd49be600f97778db,2022-06-29_09h25.13.817,Colour_Asymmetry_Pilot,2022.1.3,Win32,30.04536851,62bbe60bf3d75ef465d3e404,0,161,161,48,1,onetwo,,,,,,,,,,,,,,,,,,,,,,,,,,,,,,,,,,,,,,,,,,,,,,,,,,,,,,,,,,,,,,,,,,,,,,,,,,,,,,,,,,,,,,,,,,,,,,,,,,,,,,,,,,,,,,,,,,,,,,,,,,,,,,,,,,,,,,,,,,,,,,,,,,,,,,,,
,,,,,,5cd7e678df739100011b1839,62bbfb3cd49be600f97778db,2022-06-29_09h25.13.817,Colour_Asymmetry_Pilot,2022.1.3,Win32,30.04536851,62bbe60bf3d75ef465d3e404,,,,,,,space,3.9924,space,3.7945,space,114.9326,space,20.794,space,8.2355,space,10.3056,"[0.7018,0.7802,-0.16079999999999994]",threefour,"[-0.24719999999999998,0.5213999999999999,-0.12959999999999994]",-4,9.4277,-53,118,1,0,0,response7disk_5,5,4,1,0,0,rectangle_8,5,4,1,0,0,3,5,4,1,0,0,0,0,0,0,1,,,,,,,,,,,,,,,,,,,,,,,,,,,,,,,,,,,,,,,,,,,,,,,,,,,,,,,,,,,,,,,,,,,,,,,,,,,,,,,,,,,,,,,,,,,,,,,,,,,,,,,,,,,
,,,,,,5cd7e678df739100011b1839,62bbfb3cd49be600f97778db,2022-06-29_09h25.13.817,Colour_Asymmetry_Pilot,2022.1.3,Win32,30.04536851,62bbe60bf3d75ef465d3e404,,,,,,,,,,,,,,,,,,,"[0.796,0.2156,-0.27859999999999996]",threefour,"[-0.6,0.16860000000000008,0.44300000000000006]",-4,7.9894,-48,96,1,0,0,response7disk_5,-18,1,1,0,0,rectangle_8,-18,1,1,0,0,3,-18,1,1,0,0,1,0,1,0,1,,,,,,,,,,,,,,,,,,,,,,,,,,,,,,,,,,,,,,,,,,,,,,,,,,,,,,,,,,,,,,,,,,,,,,,,,,,,,,,,,,,,,,,,,,,,,,,,,,,,,,,,,,,
,,,,,,5cd7e678df739100011b1839,62bbfb3cd49be600f97778db,2022-06-29_09h25.13.817,Colour_Asymmetry_Pilot,2022.1.3,Win32,30.04536851,62bbe60bf3d75ef465d3e404,,,,,,,,,,,,,,,,,,,"[0.7018,0.7802,-0.16079999999999994]",onetwo,"[-0.34920000000000007,-0.702,-0.5216]",-4,1.0526,-32,52,1,0,0,response7disk_5,-8,-9,1,0,0,rectangle_8,92,32,1,0,0,3,-4,1,1,0,0,2,0,2,0,1,response1disk_7,6,rectangle_4,,,,,,,,,,,,,,,,,,,,,,,,,,,,,,,,,,,,,,,,,,,,,,,,,,,,,,,,,,,,,,,,,,,,,,,,,,,,,,,,,,,,,,,,,,,,,,,,,,,,,,,,
,,,,,,5cd7e678df739100011b1839,62bbfb3cd49be600f97778db,2022-06-29_09h25.13.817,Colour_Asymmetry_Pilot,2022.1.3,Win32,30.04536851,62bbe60bf3d75ef465d3e404,,,,,,,,,,,,,,,,,,,"[0.3568,-0.20799999999999996,-0.9844]",onetwo,"[-0.9844,-0.9688,-0.9922]",-3,3.1822,-70,23,1,0,0,response7disk_5,16,-1,1,0,0,rectangle_8,49,28,1,0,0,3,13,3,1,0,0,3,0,3,0,1,response1disk_7,6,rectangle_4,,,,,,,,,,,,,,,,,,,,,,,,,,,,,,,,,,,,,,,,,,,,,,,,,,,,,,,,,,,,,,,,,,,,,,,,,,,,,,,,,,,,,,,,,,,,,,,,,,,,,,,,
,,,,,,5cd7e678df739100011b1839,62bbfb3cd49be600f97778db,2022-06-29_09h25.13.817,Colour_Asymmetry_Pilot,2022.1.3,Win32,30.04536851,62bbe60bf3d75ef465d3e404,,,,,,,,,,,,,,,,,,,"[0.23120000000000007,-0.7726,-0.34120000000000006]",twoone,"[0.8274000000000001,-0.5844,-0.9452]",1,4.3723,37,-80,1,0,0,response3disk_5,-1,10,1,0,0,rectangle_8,-1,10,1,0,0,3,-1,10,1,0,0,4,0,4,0,1,,,,,,,,,,,,,,,,,,,,,,,,,,,,,,,,,,,,,,,,,,,,,,,,,,,,,,,,,,,,,,,,,,,,,,,,,,,,,,,,,,,,,,,,,,,,,,,,,,,,,,,,,,,
,,,,,,5cd7e678df739100011b1839,62bbfb3cd49be600f97778db,2022-06-29_09h25.13.817,Colour_Asymmetry_Pilot,2022.1.3,Win32,30.04536851,62bbe60bf3d75ef465d3e404,,,,,,,,,,,,,,,,,,,"[-0.26280000000000003,-0.2158,-0.3256]",onethree,"[-0.6942,-0.7648,-0.12959999999999994]",-3,3.3573,-84,38,1,0,0,response7disk_5,-3,2,1,0,0,rectangle_8,-3,2,1,0,0,3,-3,2,1,0,0,5,0,5,0,1,,,,,,,,,,,,,,,,,,,,,,,,,,,,,,,,,,,,,,,,,,,,,,,,,,,,,,,,,,,,,,,,,,,,,,,,,,,,,,,,,,,,,,,,,,,,,,,,,,,,,,,,,,,
,,,,,,5cd7e678df739100011b1839,62bbfb3cd49be600f97778db,2022-06-29_09h25.13.817,Colour_Asymmetry_Pilot,2022.1.3,Win32,30.04536851,62bbe60bf3d75ef465d3e404,,,,,,,,,,,,,,,,,,,"[0.796,0.2156,-0.27859999999999996]",twoone,"[0.05879999999999996,0.2784,0.5841999999999998]",-4,1.3513,-52,59,1,0,0,response7disk_5,-4,2,1,0,0,rectangle_8,-4,2,1,0,0,3,-4,2,1,0,0,6,0,6,0,1,,,,,,,,,,,,,,,,,,,,,,,,,,,,,,,,,,,,,,,,,,,,,,,,,,,,,,,,,,,,,,,,,,,,,,,,,,,,,,,,,,,,,,,,,,,,,,,,,,,,,,,,,,,
,,,,,,5cd7e678df739100011b1839,62bbfb3cd49be600f97778db,2022-06-29_09h25.13.817,Colour_Asymmetry_Pilot,2022.1.3,Win32,30.04536851,62bbe60bf3d75ef465d3e404,,,,,,,,,,,,,,,,,,,,twoone,,-2,2.0067,,,,,,,,,,,,,,,,,,,,,,,,,,,,,,,,space,8.5726,"[-0.10599999999999998,-0.10599999999999998,0.5841999999999998]","[-0.2942,-0.24719999999999998,-0.357]",-94,-49,1,0,0,response5disk,7,0,1,0,0,rectangle,7,0,1,0,0,,2,0.0274,0,7,0,1,0,0,0,0,0,119,1,38,second,,,,,,,,,,,,,,,,,,,,,,,,,,,,,,,,,,,,,,,,,,,,,,,,,,,,,,,,,,,,,,,,,,,
,,,,,,5cd7e678df739100011b1839,62bbfb3cd49be600f97778db,2022-06-29_09h25.13.817,Colour_Asymmetry_Pilot,2022.1.3,Win32,30.04536851,62bbe60bf3d75ef465d3e404,,,,,,,,,,,,,,,,,,,,onetwo,,-2,12.3191,,,,,,,,,,,,,,,,,,,,,,,,,,,,,,,,,,"[-0.9296,-0.12959999999999994,-0.043199999999999905]","[-0.26280000000000003,-0.4746,-0.2158]",-81,-33,1,0,0,response5disk,-13,2,1,0,0,rectangle,-13,2,1,0,0,,3,0.0038,0,-13,2,1,0,0,0,1,1,135,1,54,second,,,,,,,,,,,,,,,,,,,,,,,,,,,,,,,,,,,,,,,,,,,,,,,,,,,,,,,,,,,,,,,,,,,
,,,,,,5cd7e678df739100011b1839,62bbfb3cd49be600f97778db,2022-06-29_09h25.13.817,Colour_Asymmetry_Pilot,2022.1.3,Win32,30.04536851,62bbe60bf3d75ef465d3e404,,,,,,,,,,,,,,,,,,,,onethree,,2,2.4868,,,,,,,,,,,,,,,,,,,,,,,,,,,,,,,,,,"[-0.4982,-0.2942,-0.0354000000000001]","[-0.20799999999999996,-0.655,-0.01980000000000004]",62,-35,1,0,0,response3disk,2,4,1,0,0,rectangle,2,4,1,0,0,,1,0.006,0,2,4,1,0,0,0,2,2,56,1,56,first,,,,,,,,,,,,,,,,,,,,,,,,,,,,,,,,,,,,,,,,,,,,,,,,,,,,,,,,,,,,,,,,,,,
,,,,,,5cd7e678df739100011b1839,62bbfb3cd49be600f97778db,2022-06-29_09h25.13.817,Colour_Asymmetry_Pilot,2022.1.3,Win32,30.04536851,62bbe60bf3d75ef465d3e404,,,,,,,,,,,,,,,,,,,,threefour,,3,2.7505,,,,,,,,,,,,,,,,,,,,,,,,,,,,,,,,,,"[0.796,0.2156,-0.27859999999999996]","[1,0.12939999999999996,-1]",73,38,1,0,0,response1disk,-4,3,1,0,0,rectangle,-4,3,1,0,0,,1,0.0009,0,-4,3,1,0,0,0,3,3,67,1,67,first,,,,,,,,,,,,,,,,,,,,,,,,,,,,,,,,,,,,,,,,,,,,,,,,,,,,,,,,,,,,,,,,,,,
,,,,,,5cd7e678df739100011b1839,62bbfb3cd49be600f97778db,2022-06-29_09h25.13.817,Colour_Asymmetry_Pilot,2022.1.3,Win32,30.04536851,62bbe60bf3d75ef465d3e404,,,,,,,,,,,,,,,,,,,,twofour,,-4,1.832,,,,,,,,,,,,,,,,,,,,,,,,,,,,,,,,,,"[0.7802,-0.23140000000000005,-0.20799999999999996]","[-0.7412000000000001,-0.08239999999999992,-0.6864]",-43,84,1,0,0,response7disk,-4,0,1,0,0,rectangle,-4,0,1,0,0,,1,0.0009,0,-4,0,1,0,0,0,4,4,143,1,62,second,,,,,,,,,,,,,,,,,,,,,,,,,,,,,,,,,,,,,,,,,,,,,,,,,,,,,,,,,,,,,,,,,,,
,,,,,,5cd7e678df739100011b1839,62bbfb3cd49be600f97778db,2022-06-29_09h25.13.817,Colour_Asymmetry_Pilot,2022.1.3,Win32,30.04536851,62bbe60bf3d75ef465d3e404,,,,,,,,,,,,,,,,,,,,threeone,,-4,3.0345,,,,,,,,,,,,,,,,,,,,,,,,,,,,,,,,,,"[0.9763999999999999,-0.1137999999999999,-0.6314]","[-0.2942,-0.7648,-0.7492000000000001]",-55,87,1,0,0,response7disk,-11,4,1,0,0,rectangle,-11,4,1,0,0,,2,0.0059,0,-11,4,1,0,0,0,5,5,150,1,69,second,,,,,,,,,,,,,,,,,,,,,,,,,,,,,,,,,,,,,,,,,,,,,,,,,,,,,,,,,,,,,,,,,,,
,,,,,,5cd7e678df739100011b1839,62bbfb3cd49be600f97778db,2022-06-29_09h25.13.817,Colour_Asymmetry_Pilot,2022.1.3,Win32,30.04536851,62bbe60bf3d75ef465d3e404,,,,,,,,,,,,,,,,,,,,onetwo,,-4,1.4102,,,,,,,,,,,,,,,,,,,,,,,,,,,,,,,,,,"[0.11359999999999992,0.6312,0.5213999999999999]","[0.7018,0.7802,-0.16079999999999994]",-42,68,1,0,0,response7disk,-7,0,1,0,0,rectangle,-7,0,1,0,0,,1,0.003,0,-7,0,1,0,0,0,6,6,103,1,22,second,,,,,,,,,,,,,,,,,,,,,,,,,,,,,,,,,,,,,,,,,,,,,,,,,,,,,,,,,,,,,,,,,,,
,,,,,,5cd7e678df739100011b1839,62bbfb3cd49be600f97778db,2022-06-29_09h25.13.817,Colour_Asymmetry_Pilot,2022.1.3,Win32,30.04536851,62bbe60bf3d75ef465d3e404,,,,,,,,,,,,,,,,,,,,twofour,,-4,1.1898,,,,,,,,,,,,,,,,,,,,,,,,,,,,,,,,,,"[0.5449999999999999,-0.31000000000000005,-0.0354000000000001]","[-0.6706000000000001,-0.6157999999999999,-0.6786]",-34,56,1,0,0,response7disk,-9,-1,1,0,0,rectangle,-9,-1,1,0,0,,2,0.023,0,-9,-1,1,0,0,0,7,7,115,1,34,second,,,,,,,,,,,,,,,,,,,,,,,,,,,,,,,,,,,,,,,,,,,,,,,,,,,,,,,,,,,,,,,,,,,
,,,,,,5cd7e678df739100011b1839,62bbfb3cd49be600f97778db,2022-06-29_09h25.13.817,Colour_Asymmetry_Pilot,2022.1.3,Win32,30.04536851,62bbe60bf3d75ef465d3e404,,,,,,,,,,,,,,,,,,,,onethree,,2,4.6782,,,,,,,,,,,,,,,,,,,,,,,,,,,,,,,,,,"[-0.38039999999999996,-0.4276,-0.1452]","[-0.6235999999999999,-0.6786,-0.08239999999999992]",52,-27,1,0,0,response3disk,-12,7,1,0,0,rectangle,-12,7,1,0,0,,2,0.0005,0,-12,7,1,0,0,0,8,8,46,1,46,first,,,,,,,,,,,,,,,,,,,,,,,,,,,,,,,,,,,,,,,,,,,,,,,,,,,,,,,,,,,,,,,,,,,
,,,,,,5cd7e678df739100011b1839,62bbfb3cd49be600f97778db,2022-06-29_09h25.13.817,Colour_Asymmetry_Pilot,2022.1.3,Win32,30.04536851,62bbe60bf3d75ef465d3e404,,,,,,,,,,,,,,,,,,,,fourtwo,,-2,4.229,,,,,,,,,,,,,,,,,,,,,,,,,,,,,,,,,,"[-0.4982,-0.2942,-0.0354000000000001]","[0.23920000000000008,0.2704,0.16060000000000008]",-67,-35,1,0,0,response5disk,-7,-6,1,0,0,rectangle,-7,-6,1,0,0,,1,0.0037,0,-7,-6,1,0,0,0,9,9,33,1,33,first,,,,,,,,,,,,,,,,,,,,,,,,,,,,,,,,,,,,,,,,,,,,,,,,,,,,,,,,,,,,,,,,,,,
,,,,,,5cd7e678df739100011b1839,62bbfb3cd49be600f97778db,2022-06-29_09h25.13.817,Colour_Asymmetry_Pilot,2022.1.3,Win32,30.04536851,62bbe60bf3d75ef465d3e404,,,,,,,,,,,,,,,,,,,,twoone,,-4,0.9268,,,,,,,,,,,,,,,,,,,,,,,,,,,,,,,,,,"[0.9763999999999999,0.30979999999999985,-0.6786]","[-0.8118,-0.8198,-0.5452]",-36,61,1,0,0,response7disk,-12,7,1,0,0,rectangle,-12,7,1,0,0,,1,0.0004,0,-12,7,1,0,0,0,10,10,158,1,77,second,,,,,,,,,,,,,,,,,,,,,,,,,,,,,,,,,,,,,,,,,,,,,,,,,,,,,,,,,,,,,,,,,,,
,,,,,,5cd7e678df739100011b1839,62bbfb3cd49be600f97778db,2022-06-29_09h25.13.817,Colour_Asymmetry_Pilot,2022.1.3,Win32,30.04536851,62bbe60bf3d75ef465d3e404,,,,,,,,,,,,,,,,,,,,onethree,,1,2.8032,,,,,,,,,,,,,,,,,,,,,,,,,,,,,,,,,,"[0.37240000000000006,-0.050999999999999934,-0.5216]","[0.9842,0.7409999999999999,-0.6628000000000001]",25,-58,1,0,0,response3disk,-5,-3,1,0,0,rectangle,46,-100,1,0,0,1,1,6.8394,1,-11,1,1,0,0,0,11,11,11,1,11,first,response3disk_3,rectangle,,,,,,,,,,,,,,,,,,,,,,,,,,,,,,,,,,,,,,,,,,,,,,,,,,,,,,,,,,,,,,,,,
,,,,,,5cd7e678df739100011b1839,62bbfb3cd49be600f97778db,2022-06-29_09h25.13.817,Colour_Asymmetry_Pilot,2022.1.3,Win32,30.04536851,62bbe60bf3d75ef465d3e404,,,,,,,,,,,,,,,,,,,,onetwo,,-3,3.4018,,,,,,,,,,,,,,,,,,,,,,,,,,,,,,,,,,"[-0.9688,-0.7412000000000001,-0.4902000000000001]","[-0.050999999999999934,-0.6706000000000001,-0.804]",-63,31,1,0,0,response7disk,-19,0,1,0,0,rectangle,-19,0,1,0,0,1,3,0.0037,0,-19,0,1,0,0,0,12,12,31,1,31,first,,,,,,,,,,,,,,,,,,,,,,,,,,,,,,,,,,,,,,,,,,,,,,,,,,,,,,,,,,,,,,,,,,,
,,,,,,5cd7e678df739100011b1839,62bbfb3cd49be600f97778db,2022-06-29_09h25.13.817,Colour_Asymmetry_Pilot,2022.1.3,Win32,30.04536851,62bbe60bf3d75ef465d3e404,,,,,,,,,,,,,,,,,,,,twofour,,-3,1.1797,,,,,,,,,,,,,,,,,,,,,,,,,,,,,,,,,,"[0.7018,0.7176,0.6155999999999999]","[-0.5922000000000001,-0.7492000000000001,-0.5296000000000001]",-57,43,1,0,0,response7disk,-4,0,1,0,0,rectangle,-4,0,1,0,0,1,3,0.0008,0,-4,0,1,0,0,0,13,13,29,1,29,first,,,,,,,,,,,,,,,,,,,,,,,,,,,,,,,,,,,,,,,,,,,,,,,,,,,,,,,,,,,,,,,,,,,
,,,,,,5cd7e678df739100011b1839,62bbfb3cd49be600f97778db,2022-06-29_09h25.13.817,Colour_Asymmetry_Pilot,2022.1.3,Win32,30.04536851,62bbe60bf3d75ef465d3e404,,,,,,,,,,,,,,,,,,,,onethree,,-4,0.897,,,,,,,,,,,,,,,,,,,,,,,,,,,,,,,,,,"[-0.5922000000000001,-0.7492000000000001,-0.5296000000000001]","[0.9842,0.7409999999999999,-0.6628000000000001]",-39,114,1,0,0,response7disk,-1,-2,1,0,0,rectangle,-1,-2,1,0,0,1,2,0.0045,0,-1,-2,1,0,0,0,14,14,73,1,73,first,,,,,,,,,,,,,,,,,,,,,,,,,,,,,,,,,,,,,,,,,,,,,,,,,,,,,,,,,,,,,,,,,,,
,,,,,,5cd7e678df739100011b1839,62bbfb3cd49be600f97778db,2022-06-29_09h25.13.817,Colour_Asymmetry_Pilot,2022.1.3,Win32,30.04536851,62bbe60bf3d75ef465d3e404,,,,,,,,,,,,,,,,,,,,threeone,,-3,0.8079,,,,,,,,,,,,,,,,,,,,,,,,,,,,,,,,,,"[-0.9216,-0.5529999999999999,-0.3962]","[0.9686000000000001,0.5763999999999998,0.11359999999999992]",-68,40,1,0,0,response7disk,4,-3,1,0,0,rectangle,4,-3,1,0,0,1,3,0.0051,0,4,-3,1,0,0,0,15,15,145,1,64,second,,,,,,,,,,,,,,,,,,,,,,,,,,,,,,,,,,,,,,,,,,,,,,,,,,,,,,,,,,,,,,,,,,,
,,,,,,5cd7e678df739100011b1839,62bbfb3cd49be600f97778db,2022-06-29_09h25.13.817,Colour_Asymmetry_Pilot,2022.1.3,Win32,30.04536851,62bbe60bf3d75ef465d3e404,,,,,,,,,,,,,,,,,,,,threeone,,-4,0.6874,,,,,,,,,,,,,,,,,,,,,,,,,,,,,,,,,,"[0.2784,-0.31000000000000005,-0.5452]","[-0.9688,-0.4902000000000001,-0.12159999999999993]",-32,78,1,0,0,response7disk,-14,-3,1,0,0,rectangle,-14,-3,1,0,0,1,3,0.0008,0,-14,-3,1,0,0,0,16,16,105,1,24,second,,,,,,,,,,,,,,,,,,,,,,,,,,,,,,,,,,,,,,,,,,,,,,,,,,,,,,,,,,,,,,,,,,,
,,,,,,5cd7e678df739100011b1839,62bbfb3cd49be600f97778db,2022-06-29_09h25.13.817,Colour_Asymmetry_Pilot,2022.1.3,Win32,30.04536851,62bbe60bf3d75ef465d3e404,,,,,,,,,,,,,,,,,,,,twoone,,-2,3.9164,,,,,,,,,,,,,,,,,,,,,,,,,,,,,,,,,,"[0.9686000000000001,0.3802000000000001,0.19999999999999996]","[-0.050999999999999934,-0.6706000000000001,-0.804]",-80,-28,1,0,0,response5disk,-8,1,1,0,0,rectangle,-8,1,1,0,0,1,2,0.0038,0,-8,1,1,0,0,0,17,17,10,1,10,first,,,,,,,,,,,,,,,,,,,,,,,,,,,,,,,,,,,,,,,,,,,,,,,,,,,,,,,,,,,,,,,,,,,
,,,,,,5cd7e678df739100011b1839,62bbfb3cd49be600f97778db,2022-06-29_09h25.13.817,Colour_Asymmetry_Pilot,2022.1.3,Win32,30.04536851,62bbe60bf3d75ef465d3e404,,,,,,,,,,,,,,,,,,,,onethree,,3,2.267,,,,,,,,,,,,,,,,,,,,,,,,,,,,,,,,,,"[0.9842,0.7409999999999999,-0.6628000000000001]","[0.9213999999999998,0.6391999999999998,-0.9922]",80,53,1,0,0,response1disk,-12,4,1,0,0,rectangle,-12,4,1,0,0,1,3,0.0035,0,-12,4,1,0,0,0,18,18,94,1,13,second,,,,,,,,,,,,,,,,,,,,,,,,,,,,,,,,,,,,,,,,,,,,,,,,,,,,,,,,,,,,,,,,,,,
,,,,,,5cd7e678df739100011b1839,62bbfb3cd49be600f97778db,2022-06-29_09h25.13.817,Colour_Asymmetry_Pilot,2022.1.3,Win32,30.04536851,62bbe60bf3d75ef465d3e404,,,,,,,,,,,,,,,,,,,,threeone,,-4,1.0149,,,,,,,,,,,,,,,,,,,,,,,,,,,,,,,,,,"[0.7176,-0.906,-0.6864]","[-0.9296,-0.12959999999999994,-0.043199999999999905]",-39,74,1,0,0,response7disk,-9,2,1,0,0,rectangle,-9,2,1,0,0,1,1,0.0038,0,-9,2,1,0,0,0,19,19,16,1,16,first,,,,,,,,,,,,,,,,,,,,,,,,,,,,,,,,,,,,,,,,,,,,,,,,,,,,,,,,,,,,,,,,,,,
,,,,,,5cd7e678df739100011b1839,62bbfb3cd49be600f97778db,2022-06-29_09h25.13.817,Colour_Asymmetry_Pilot,2022.1.3,Win32,30.04536851,62bbe60bf3d75ef465d3e404,,,,,,,,,,,,,,,,,,,,fourtwo,,-2,1.6501,,,,,,,,,,,,,,,,,,,,,,,,,,,,,,,,,,"[-0.050999999999999934,-0.6706000000000001,-0.804]","[0.9686000000000001,0.3802000000000001,0.19999999999999996]",-96,-46,1,0,0,response5disk,-10,-2,1,0,0,rectangle,-10,-2,1,0,0,1,2,0.0034,0,-10,-2,1,0,0,0,20,20,91,1,10,second,,,,,,,,,,,,,,,,,,,,,,,,,,,,,,,,,,,,,,,,,,,,,,,,,,,,,,,,,,,,,,,,,,,
