trials.thisRepN,trials.thisTrialN,trials.thisN,trials.thisIndex,trials.ran,Colourcodes,participant,session,date,expName,psychopyVersion,OS,frameRate,study_id,trials_4.thisRepN,trials_4.thisTrialN,trials_4.thisN,trials_4.thisIndex,trials_4.ran,StimulusPos,key_resp.keys,key_resp.rt,key_resp_2.keys,key_resp_2.rt,key_resp_15.keys,key_resp_15.rt,key_resp_17.keys,key_resp_17.rt,key_resp_9.keys,key_resp_9.rt,key_resp_10.keys,key_resp_10.rt,Circle1_col,Ecc,Circle2_col,similarity,response_time,mouse_5.x,mouse_5.y,mouse_5.leftButton,mouse_5.midButton,mouse_5.rightButton,mouse_5.clicked_name,mouse_10.x,mouse_10.y,mouse_10.leftButton,mouse_10.midButton,mouse_10.rightButton,mouse_10.clicked_name,mouse_7.x,mouse_7.y,mouse_7.leftButton,mouse_7.midButton,mouse_7.rightButton,catchnumberprac,mouse_6.x,mouse_6.y,mouse_6.leftButton,mouse_6.midButton,mouse_6.rightButton,duringprac.thisRepN,duringprac.thisTrialN,duringprac.thisN,duringprac.thisIndex,duringprac.ran,mouse_7.clicked_name,catchprac,mouse_6.clicked_name,key_resp_22.keys,key_resp_22.rt,Circle1_colour,Circle2_colour,mouse.x,mouse.y,mouse.leftButton,mouse.midButton,mouse.rightButton,mouse.clicked_name,mouse_2.x,mouse_2.y,mouse_2.leftButton,mouse_2.midButton,mouse_2.rightButton,mouse_2.clicked_name,mouse_3.x,mouse_3.y,mouse_3.leftButton,mouse_3.midButton,mouse_3.rightButton,catchresponse,catchnumber,response_time_catch,Catch,mouse_11.x,mouse_11.y,mouse_11.leftButton,mouse_11.midButton,mouse_11.rightButton,trials_2.thisRepN,trials_2.thisTrialN,trials_2.thisN,trials_2.thisIndex,trials_2.ran,Colourpair,Temporder,mouse_3.clicked_name,mouse_11.clicked_name,trials_3.thisRepN,trials_3.thisTrialN,trials_3.thisN,trials_3.thisIndex,trials_3.ran,key_resp_instr_Ishi.keys,key_resp_instr_Ishi.rt,Ishi_trial_keyresp.keys,Ishi_trial_keyresp.rt,Ishi_textbox.text,Ishi_loop.thisRepN,Ishi_loop.thisTrialN,Ishi_loop.thisN,Ishi_loop.thisIndex,Ishi_loop.ran,imageaddress,textbox.text,mouse_4.x,mouse_4.y,mouse_4.leftButton,mouse_4.midButton,mouse_4.rightButton,mouse_4.clicked_name,textbox_2.text,mouse_8.x,mouse_8.y,mouse_8.leftButton,mouse_8.midButton,mouse_8.rightButton,mouse_8.clicked_name,textbox_3.text,mouse_9.x,mouse_9.y,mouse_9.leftButton,mouse_9.midButton,mouse_9.rightButton,mouse_9.clicked_name,textbox_4.text,mouse_12.x,mouse_12.y,mouse_12.leftButton,mouse_12.midButton,mouse_12.rightButton,mouse_12.clicked_name,textbox_5.text,mouse_13.x,mouse_13.y,mouse_13.leftButton,mouse_13.midButton,mouse_13.rightButton,mouse_13.clicked_name,textbox_6.text,mouse_14.x,mouse_14.y,mouse_14.leftButton,mouse_14.midButton,mouse_14.rightButton,mouse_14.clicked_name,textbox_7.text,mouse_15.x,mouse_15.y,mouse_15.leftButton,mouse_15.midButton,mouse_15.rightButton,mouse_15.clicked_name
0,0,0,36,1,,6161bdbff67e4b4621b530e7,62bbfac37d44554892e31c9f,2022-06-29_09h14.04.856,Colour_Asymmetry_Pilot,2022.1.3,Win32,60.0024001,62bbe60bf3d75ef465d3e404,,,,,,,,,,,,,,,,,,,,,,,,,,,,,,,,,,,,,,,,,,,,,,,,,,,,,,,,,,,,,,,,,,,,,,,,,,,,,,,,,,,,,,,,,,,,,,,,,,,,,,,,,,,,,,,,,,,,,,,,,,,,,,,,,,,,,,,,,,,,,,,,,,,,,,,,,,,,,,
0,1,1,3,1,,6161bdbff67e4b4621b530e7,62bbfac37d44554892e31c9f,2022-06-29_09h14.04.856,Colour_Asymmetry_Pilot,2022.1.3,Win32,60.0024001,62bbe60bf3d75ef465d3e404,,,,,,,,,,,,,,,,,,,,,,,,,,,,,,,,,,,,,,,,,,,,,,,,,,,,,,,,,,,,,,,,,,,,,,,,,,,,,,,,,,,,,,,,,,,,,,,,,,,,,,,,,,,,,,,,,,,,,,,,,,,,,,,,,,,,,,,,,,,,,,,,,,,,,,,,,,,,,,
0,2,2,92,1,,6161bdbff67e4b4621b530e7,62bbfac37d44554892e31c9f,2022-06-29_09h14.04.856,Colour_Asymmetry_Pilot,2022.1.3,Win32,60.0024001,62bbe60bf3d75ef465d3e404,,,,,,,,,,,,,,,,,,,,,,,,,,,,,,,,,,,,,,,,,,,,,,,,,,,,,,,,,,,,,,,,,,,,,,,,,,,,,,,,,,,,,,,,,,,,,,,,,,,,,,,,,,,,,,,,,,,,,,,,,,,,,,,,,,,,,,,,,,,,,,,,,,,,,,,,,,,,,,
0,3,3,53,1,,6161bdbff67e4b4621b530e7,62bbfac37d44554892e31c9f,2022-06-29_09h14.04.856,Colour_Asymmetry_Pilot,2022.1.3,Win32,60.0024001,62bbe60bf3d75ef465d3e404,,,,,,,,,,,,,,,,,,,,,,,,,,,,,,,,,,,,,,,,,,,,,,,,,,,,,,,,,,,,,,,,,,,,,,,,,,,,,,,,,,,,,,,,,,,,,,,,,,,,,,,,,,,,,,,,,,,,,,,,,,,,,,,,,,,,,,,,,,,,,,,,,,,,,,,,,,,,,,
0,4,4,50,1,,6161bdbff67e4b4621b530e7,62bbfac37d44554892e31c9f,2022-06-29_09h14.04.856,Colour_Asymmetry_Pilot,2022.1.3,Win32,60.0024001,62bbe60bf3d75ef465d3e404,,,,,,,,,,,,,,,,,,,,,,,,,,,,,,,,,,,,,,,,,,,,,,,,,,,,,,,,,,,,,,,,,,,,,,,,,,,,,,,,,,,,,,,,,,,,,,,,,,,,,,,,,,,,,,,,,,,,,,,,,,,,,,,,,,,,,,,,,,,,,,,,,,,,,,,,,,,,,,
0,5,5,49,1,,6161bdbff67e4b4621b530e7,62bbfac37d44554892e31c9f,2022-06-29_09h14.04.856,Colour_Asymmetry_Pilot,2022.1.3,Win32,60.0024001,62bbe60bf3d75ef465d3e404,,,,,,,,,,,,,,,,,,,,,,,,,,,,,,,,,,,,,,,,,,,,,,,,,,,,,,,,,,,,,,,,,,,,,,,,,,,,,,,,,,,,,,,,,,,,,,,,,,,,,,,,,,,,,,,,,,,,,,,,,,,,,,,,,,,,,,,,,,,,,,,,,,,,,,,,,,,,,,
0,6,6,4,1,,6161bdbff67e4b4621b530e7,62bbfac37d44554892e31c9f,2022-06-29_09h14.04.856,Colour_Asymmetry_Pilot,2022.1.3,Win32,60.0024001,62bbe60bf3d75ef465d3e404,,,,,,,,,,,,,,,,,,,,,,,,,,,,,,,,,,,,,,,,,,,,,,,,,,,,,,,,,,,,,,,,,,,,,,,,,,,,,,,,,,,,,,,,,,,,,,,,,,,,,,,,,,,,,,,,,,,,,,,,,,,,,,,,,,,,,,,,,,,,,,,,,,,,,,,,,,,,,,
0,7,7,26,1,,6161bdbff67e4b4621b530e7,62bbfac37d44554892e31c9f,2022-06-29_09h14.04.856,Colour_Asymmetry_Pilot,2022.1.3,Win32,60.0024001,62bbe60bf3d75ef465d3e404,,,,,,,,,,,,,,,,,,,,,,,,,,,,,,,,,,,,,,,,,,,,,,,,,,,,,,,,,,,,,,,,,,,,,,,,,,,,,,,,,,,,,,,,,,,,,,,,,,,,,,,,,,,,,,,,,,,,,,,,,,,,,,,,,,,,,,,,,,,,,,,,,,,,,,,,,,,,,,
0,8,8,79,1,,6161bdbff67e4b4621b530e7,62bbfac37d44554892e31c9f,2022-06-29_09h14.04.856,Colour_Asymmetry_Pilot,2022.1.3,Win32,60.0024001,62bbe60bf3d75ef465d3e404,,,,,,,,,,,,,,,,,,,,,,,,,,,,,,,,,,,,,,,,,,,,,,,,,,,,,,,,,,,,,,,,,,,,,,,,,,,,,,,,,,,,,,,,,,,,,,,,,,,,,,,,,,,,,,,,,,,,,,,,,,,,,,,,,,,,,,,,,,,,,,,,,,,,,,,,,,,,,,
0,9,9,29,1,,6161bdbff67e4b4621b530e7,62bbfac37d44554892e31c9f,2022-06-29_09h14.04.856,Colour_Asymmetry_Pilot,2022.1.3,Win32,60.0024001,62bbe60bf3d75ef465d3e404,,,,,,,,,,,,,,,,,,,,,,,,,,,,,,,,,,,,,,,,,,,,,,,,,,,,,,,,,,,,,,,,,,,,,,,,,,,,,,,,,,,,,,,,,,,,,,,,,,,,,,,,,,,,,,,,,,,,,,,,,,,,,,,,,,,,,,,,,,,,,,,,,,,,,,,,,,,,,,
0,10,10,7,1,,6161bdbff67e4b4621b530e7,62bbfac37d44554892e31c9f,2022-06-29_09h14.04.856,Colour_Asymmetry_Pilot,2022.1.3,Win32,60.0024001,62bbe60bf3d75ef465d3e404,,,,,,,,,,,,,,,,,,,,,,,,,,,,,,,,,,,,,,,,,,,,,,,,,,,,,,,,,,,,,,,,,,,,,,,,,,,,,,,,,,,,,,,,,,,,,,,,,,,,,,,,,,,,,,,,,,,,,,,,,,,,,,,,,,,,,,,,,,,,,,,,,,,,,,,,,,,,,,
0,11,11,57,1,,6161bdbff67e4b4621b530e7,62bbfac37d44554892e31c9f,2022-06-29_09h14.04.856,Colour_Asymmetry_Pilot,2022.1.3,Win32,60.0024001,62bbe60bf3d75ef465d3e404,,,,,,,,,,,,,,,,,,,,,,,,,,,,,,,,,,,,,,,,,,,,,,,,,,,,,,,,,,,,,,,,,,,,,,,,,,,,,,,,,,,,,,,,,,,,,,,,,,,,,,,,,,,,,,,,,,,,,,,,,,,,,,,,,,,,,,,,,,,,,,,,,,,,,,,,,,,,,,
0,12,12,61,1,,6161bdbff67e4b4621b530e7,62bbfac37d44554892e31c9f,2022-06-29_09h14.04.856,Colour_Asymmetry_Pilot,2022.1.3,Win32,60.0024001,62bbe60bf3d75ef465d3e404,,,,,,,,,,,,,,,,,,,,,,,,,,,,,,,,,,,,,,,,,,,,,,,,,,,,,,,,,,,,,,,,,,,,,,,,,,,,,,,,,,,,,,,,,,,,,,,,,,,,,,,,,,,,,,,,,,,,,,,,,,,,,,,,,,,,,,,,,,,,,,,,,,,,,,,,,,,,,,
0,13,13,10,1,,6161bdbff67e4b4621b530e7,62bbfac37d44554892e31c9f,2022-06-29_09h14.04.856,Colour_Asymmetry_Pilot,2022.1.3,Win32,60.0024001,62bbe60bf3d75ef465d3e404,,,,,,,,,,,,,,,,,,,,,,,,,,,,,,,,,,,,,,,,,,,,,,,,,,,,,,,,,,,,,,,,,,,,,,,,,,,,,,,,,,,,,,,,,,,,,,,,,,,,,,,,,,,,,,,,,,,,,,,,,,,,,,,,,,,,,,,,,,,,,,,,,,,,,,,,,,,,,,
0,14,14,47,1,,6161bdbff67e4b4621b530e7,62bbfac37d44554892e31c9f,2022-06-29_09h14.04.856,Colour_Asymmetry_Pilot,2022.1.3,Win32,60.0024001,62bbe60bf3d75ef465d3e404,,,,,,,,,,,,,,,,,,,,,,,,,,,,,,,,,,,,,,,,,,,,,,,,,,,,,,,,,,,,,,,,,,,,,,,,,,,,,,,,,,,,,,,,,,,,,,,,,,,,,,,,,,,,,,,,,,,,,,,,,,,,,,,,,,,,,,,,,,,,,,,,,,,,,,,,,,,,,,
0,15,15,27,1,,6161bdbff67e4b4621b530e7,62bbfac37d44554892e31c9f,2022-06-29_09h14.04.856,Colour_Asymmetry_Pilot,2022.1.3,Win32,60.0024001,62bbe60bf3d75ef465d3e404,,,,,,,,,,,,,,,,,,,,,,,,,,,,,,,,,,,,,,,,,,,,,,,,,,,,,,,,,,,,,,,,,,,,,,,,,,,,,,,,,,,,,,,,,,,,,,,,,,,,,,,,,,,,,,,,,,,,,,,,,,,,,,,,,,,,,,,,,,,,,,,,,,,,,,,,,,,,,,
0,16,16,58,1,,6161bdbff67e4b4621b530e7,62bbfac37d44554892e31c9f,2022-06-29_09h14.04.856,Colour_Asymmetry_Pilot,2022.1.3,Win32,60.0024001,62bbe60bf3d75ef465d3e404,,,,,,,,,,,,,,,,,,,,,,,,,,,,,,,,,,,,,,,,,,,,,,,,,,,,,,,,,,,,,,,,,,,,,,,,,,,,,,,,,,,,,,,,,,,,,,,,,,,,,,,,,,,,,,,,,,,,,,,,,,,,,,,,,,,,,,,,,,,,,,,,,,,,,,,,,,,,,,
0,17,17,37,1,,6161bdbff67e4b4621b530e7,62bbfac37d44554892e31c9f,2022-06-29_09h14.04.856,Colour_Asymmetry_Pilot,2022.1.3,Win32,60.0024001,62bbe60bf3d75ef465d3e404,,,,,,,,,,,,,,,,,,,,,,,,,,,,,,,,,,,,,,,,,,,,,,,,,,,,,,,,,,,,,,,,,,,,,,,,,,,,,,,,,,,,,,,,,,,,,,,,,,,,,,,,,,,,,,,,,,,,,,,,,,,,,,,,,,,,,,,,,,,,,,,,,,,,,,,,,,,,,,
0,18,18,60,1,,6161bdbff67e4b4621b530e7,62bbfac37d44554892e31c9f,2022-06-29_09h14.04.856,Colour_Asymmetry_Pilot,2022.1.3,Win32,60.0024001,62bbe60bf3d75ef465d3e404,,,,,,,,,,,,,,,,,,,,,,,,,,,,,,,,,,,,,,,,,,,,,,,,,,,,,,,,,,,,,,,,,,,,,,,,,,,,,,,,,,,,,,,,,,,,,,,,,,,,,,,,,,,,,,,,,,,,,,,,,,,,,,,,,,,,,,,,,,,,,,,,,,,,,,,,,,,,,,
0,19,19,54,1,,6161bdbff67e4b4621b530e7,62bbfac37d44554892e31c9f,2022-06-29_09h14.04.856,Colour_Asymmetry_Pilot,2022.1.3,Win32,60.0024001,62bbe60bf3d75ef465d3e404,,,,,,,,,,,,,,,,,,,,,,,,,,,,,,,,,,,,,,,,,,,,,,,,,,,,,,,,,,,,,,,,,,,,,,,,,,,,,,,,,,,,,,,,,,,,,,,,,,,,,,,,,,,,,,,,,,,,,,,,,,,,,,,,,,,,,,,,,,,,,,,,,,,,,,,,,,,,,,
0,20,20,91,1,,6161bdbff67e4b4621b530e7,62bbfac37d44554892e31c9f,2022-06-29_09h14.04.856,Colour_Asymmetry_Pilot,2022.1.3,Win32,60.0024001,62bbe60bf3d75ef465d3e404,,,,,,,,,,,,,,,,,,,,,,,,,,,,,,,,,,,,,,,,,,,,,,,,,,,,,,,,,,,,,,,,,,,,,,,,,,,,,,,,,,,,,,,,,,,,,,,,,,,,,,,,,,,,,,,,,,,,,,,,,,,,,,,,,,,,,,,,,,,,,,,,,,,,,,,,,,,,,,
0,21,21,6,1,,6161bdbff67e4b4621b530e7,62bbfac37d44554892e31c9f,2022-06-29_09h14.04.856,Colour_Asymmetry_Pilot,2022.1.3,Win32,60.0024001,62bbe60bf3d75ef465d3e404,,,,,,,,,,,,,,,,,,,,,,,,,,,,,,,,,,,,,,,,,,,,,,,,,,,,,,,,,,,,,,,,,,,,,,,,,,,,,,,,,,,,,,,,,,,,,,,,,,,,,,,,,,,,,,,,,,,,,,,,,,,,,,,,,,,,,,,,,,,,,,,,,,,,,,,,,,,,,,
0,22,22,52,1,,6161bdbff67e4b4621b530e7,62bbfac37d44554892e31c9f,2022-06-29_09h14.04.856,Colour_Asymmetry_Pilot,2022.1.3,Win32,60.0024001,62bbe60bf3d75ef465d3e404,,,,,,,,,,,,,,,,,,,,,,,,,,,,,,,,,,,,,,,,,,,,,,,,,,,,,,,,,,,,,,,,,,,,,,,,,,,,,,,,,,,,,,,,,,,,,,,,,,,,,,,,,,,,,,,,,,,,,,,,,,,,,,,,,,,,,,,,,,,,,,,,,,,,,,,,,,,,,,
0,23,23,90,1,,6161bdbff67e4b4621b530e7,62bbfac37d44554892e31c9f,2022-06-29_09h14.04.856,Colour_Asymmetry_Pilot,2022.1.3,Win32,60.0024001,62bbe60bf3d75ef465d3e404,,,,,,,,,,,,,,,,,,,,,,,,,,,,,,,,,,,,,,,,,,,,,,,,,,,,,,,,,,,,,,,,,,,,,,,,,,,,,,,,,,,,,,,,,,,,,,,,,,,,,,,,,,,,,,,,,,,,,,,,,,,,,,,,,,,,,,,,,,,,,,,,,,,,,,,,,,,,,,
0,24,24,16,1,,6161bdbff67e4b4621b530e7,62bbfac37d44554892e31c9f,2022-06-29_09h14.04.856,Colour_Asymmetry_Pilot,2022.1.3,Win32,60.0024001,62bbe60bf3d75ef465d3e404,,,,,,,,,,,,,,,,,,,,,,,,,,,,,,,,,,,,,,,,,,,,,,,,,,,,,,,,,,,,,,,,,,,,,,,,,,,,,,,,,,,,,,,,,,,,,,,,,,,,,,,,,,,,,,,,,,,,,,,,,,,,,,,,,,,,,,,,,,,,,,,,,,,,,,,,,,,,,,
0,25,25,1,1,,6161bdbff67e4b4621b530e7,62bbfac37d44554892e31c9f,2022-06-29_09h14.04.856,Colour_Asymmetry_Pilot,2022.1.3,Win32,60.0024001,62bbe60bf3d75ef465d3e404,,,,,,,,,,,,,,,,,,,,,,,,,,,,,,,,,,,,,,,,,,,,,,,,,,,,,,,,,,,,,,,,,,,,,,,,,,,,,,,,,,,,,,,,,,,,,,,,,,,,,,,,,,,,,,,,,,,,,,,,,,,,,,,,,,,,,,,,,,,,,,,,,,,,,,,,,,,,,,
0,26,26,44,1,,6161bdbff67e4b4621b530e7,62bbfac37d44554892e31c9f,2022-06-29_09h14.04.856,Colour_Asymmetry_Pilot,2022.1.3,Win32,60.0024001,62bbe60bf3d75ef465d3e404,,,,,,,,,,,,,,,,,,,,,,,,,,,,,,,,,,,,,,,,,,,,,,,,,,,,,,,,,,,,,,,,,,,,,,,,,,,,,,,,,,,,,,,,,,,,,,,,,,,,,,,,,,,,,,,,,,,,,,,,,,,,,,,,,,,,,,,,,,,,,,,,,,,,,,,,,,,,,,
0,27,27,22,1,,6161bdbff67e4b4621b530e7,62bbfac37d44554892e31c9f,2022-06-29_09h14.04.856,Colour_Asymmetry_Pilot,2022.1.3,Win32,60.0024001,62bbe60bf3d75ef465d3e404,,,,,,,,,,,,,,,,,,,,,,,,,,,,,,,,,,,,,,,,,,,,,,,,,,,,,,,,,,,,,,,,,,,,,,,,,,,,,,,,,,,,,,,,,,,,,,,,,,,,,,,,,,,,,,,,,,,,,,,,,,,,,,,,,,,,,,,,,,,,,,,,,,,,,,,,,,,,,,
0,28,28,19,1,,6161bdbff67e4b4621b530e7,62bbfac37d44554892e31c9f,2022-06-29_09h14.04.856,Colour_Asymmetry_Pilot,2022.1.3,Win32,60.0024001,62bbe60bf3d75ef465d3e404,,,,,,,,,,,,,,,,,,,,,,,,,,,,,,,,,,,,,,,,,,,,,,,,,,,,,,,,,,,,,,,,,,,,,,,,,,,,,,,,,,,,,,,,,,,,,,,,,,,,,,,,,,,,,,,,,,,,,,,,,,,,,,,,,,,,,,,,,,,,,,,,,,,,,,,,,,,,,,
0,29,29,39,1,,6161bdbff67e4b4621b530e7,62bbfac37d44554892e31c9f,2022-06-29_09h14.04.856,Colour_Asymmetry_Pilot,2022.1.3,Win32,60.0024001,62bbe60bf3d75ef465d3e404,,,,,,,,,,,,,,,,,,,,,,,,,,,,,,,,,,,,,,,,,,,,,,,,,,,,,,,,,,,,,,,,,,,,,,,,,,,,,,,,,,,,,,,,,,,,,,,,,,,,,,,,,,,,,,,,,,,,,,,,,,,,,,,,,,,,,,,,,,,,,,,,,,,,,,,,,,,,,,
0,30,30,68,1,,6161bdbff67e4b4621b530e7,62bbfac37d44554892e31c9f,2022-06-29_09h14.04.856,Colour_Asymmetry_Pilot,2022.1.3,Win32,60.0024001,62bbe60bf3d75ef465d3e404,,,,,,,,,,,,,,,,,,,,,,,,,,,,,,,,,,,,,,,,,,,,,,,,,,,,,,,,,,,,,,,,,,,,,,,,,,,,,,,,,,,,,,,,,,,,,,,,,,,,,,,,,,,,,,,,,,,,,,,,,,,,,,,,,,,,,,,,,,,,,,,,,,,,,,,,,,,,,,
0,31,31,30,1,,6161bdbff67e4b4621b530e7,62bbfac37d44554892e31c9f,2022-06-29_09h14.04.856,Colour_Asymmetry_Pilot,2022.1.3,Win32,60.0024001,62bbe60bf3d75ef465d3e404,,,,,,,,,,,,,,,,,,,,,,,,,,,,,,,,,,,,,,,,,,,,,,,,,,,,,,,,,,,,,,,,,,,,,,,,,,,,,,,,,,,,,,,,,,,,,,,,,,,,,,,,,,,,,,,,,,,,,,,,,,,,,,,,,,,,,,,,,,,,,,,,,,,,,,,,,,,,,,
0,32,32,5,1,,6161bdbff67e4b4621b530e7,62bbfac37d44554892e31c9f,2022-06-29_09h14.04.856,Colour_Asymmetry_Pilot,2022.1.3,Win32,60.0024001,62bbe60bf3d75ef465d3e404,,,,,,,,,,,,,,,,,,,,,,,,,,,,,,,,,,,,,,,,,,,,,,,,,,,,,,,,,,,,,,,,,,,,,,,,,,,,,,,,,,,,,,,,,,,,,,,,,,,,,,,,,,,,,,,,,,,,,,,,,,,,,,,,,,,,,,,,,,,,,,,,,,,,,,,,,,,,,,
0,33,33,45,1,,6161bdbff67e4b4621b530e7,62bbfac37d44554892e31c9f,2022-06-29_09h14.04.856,Colour_Asymmetry_Pilot,2022.1.3,Win32,60.0024001,62bbe60bf3d75ef465d3e404,,,,,,,,,,,,,,,,,,,,,,,,,,,,,,,,,,,,,,,,,,,,,,,,,,,,,,,,,,,,,,,,,,,,,,,,,,,,,,,,,,,,,,,,,,,,,,,,,,,,,,,,,,,,,,,,,,,,,,,,,,,,,,,,,,,,,,,,,,,,,,,,,,,,,,,,,,,,,,
0,34,34,21,1,,6161bdbff67e4b4621b530e7,62bbfac37d44554892e31c9f,2022-06-29_09h14.04.856,Colour_Asymmetry_Pilot,2022.1.3,Win32,60.0024001,62bbe60bf3d75ef465d3e404,,,,,,,,,,,,,,,,,,,,,,,,,,,,,,,,,,,,,,,,,,,,,,,,,,,,,,,,,,,,,,,,,,,,,,,,,,,,,,,,,,,,,,,,,,,,,,,,,,,,,,,,,,,,,,,,,,,,,,,,,,,,,,,,,,,,,,,,,,,,,,,,,,,,,,,,,,,,,,
0,35,35,65,1,,6161bdbff67e4b4621b530e7,62bbfac37d44554892e31c9f,2022-06-29_09h14.04.856,Colour_Asymmetry_Pilot,2022.1.3,Win32,60.0024001,62bbe60bf3d75ef465d3e404,,,,,,,,,,,,,,,,,,,,,,,,,,,,,,,,,,,,,,,,,,,,,,,,,,,,,,,,,,,,,,,,,,,,,,,,,,,,,,,,,,,,,,,,,,,,,,,,,,,,,,,,,,,,,,,,,,,,,,,,,,,,,,,,,,,,,,,,,,,,,,,,,,,,,,,,,,,,,,
0,36,36,38,1,,6161bdbff67e4b4621b530e7,62bbfac37d44554892e31c9f,2022-06-29_09h14.04.856,Colour_Asymmetry_Pilot,2022.1.3,Win32,60.0024001,62bbe60bf3d75ef465d3e404,,,,,,,,,,,,,,,,,,,,,,,,,,,,,,,,,,,,,,,,,,,,,,,,,,,,,,,,,,,,,,,,,,,,,,,,,,,,,,,,,,,,,,,,,,,,,,,,,,,,,,,,,,,,,,,,,,,,,,,,,,,,,,,,,,,,,,,,,,,,,,,,,,,,,,,,,,,,,,
0,37,37,56,1,,6161bdbff67e4b4621b530e7,62bbfac37d44554892e31c9f,2022-06-29_09h14.04.856,Colour_Asymmetry_Pilot,2022.1.3,Win32,60.0024001,62bbe60bf3d75ef465d3e404,,,,,,,,,,,,,,,,,,,,,,,,,,,,,,,,,,,,,,,,,,,,,,,,,,,,,,,,,,,,,,,,,,,,,,,,,,,,,,,,,,,,,,,,,,,,,,,,,,,,,,,,,,,,,,,,,,,,,,,,,,,,,,,,,,,,,,,,,,,,,,,,,,,,,,,,,,,,,,
0,38,38,32,1,,6161bdbff67e4b4621b530e7,62bbfac37d44554892e31c9f,2022-06-29_09h14.04.856,Colour_Asymmetry_Pilot,2022.1.3,Win32,60.0024001,62bbe60bf3d75ef465d3e404,,,,,,,,,,,,,,,,,,,,,,,,,,,,,,,,,,,,,,,,,,,,,,,,,,,,,,,,,,,,,,,,,,,,,,,,,,,,,,,,,,,,,,,,,,,,,,,,,,,,,,,,,,,,,,,,,,,,,,,,,,,,,,,,,,,,,,,,,,,,,,,,,,,,,,,,,,,,,,
0,39,39,74,1,,6161bdbff67e4b4621b530e7,62bbfac37d44554892e31c9f,2022-06-29_09h14.04.856,Colour_Asymmetry_Pilot,2022.1.3,Win32,60.0024001,62bbe60bf3d75ef465d3e404,,,,,,,,,,,,,,,,,,,,,,,,,,,,,,,,,,,,,,,,,,,,,,,,,,,,,,,,,,,,,,,,,,,,,,,,,,,,,,,,,,,,,,,,,,,,,,,,,,,,,,,,,,,,,,,,,,,,,,,,,,,,,,,,,,,,,,,,,,,,,,,,,,,,,,,,,,,,,,
0,40,40,20,1,,6161bdbff67e4b4621b530e7,62bbfac37d44554892e31c9f,2022-06-29_09h14.04.856,Colour_Asymmetry_Pilot,2022.1.3,Win32,60.0024001,62bbe60bf3d75ef465d3e404,,,,,,,,,,,,,,,,,,,,,,,,,,,,,,,,,,,,,,,,,,,,,,,,,,,,,,,,,,,,,,,,,,,,,,,,,,,,,,,,,,,,,,,,,,,,,,,,,,,,,,,,,,,,,,,,,,,,,,,,,,,,,,,,,,,,,,,,,,,,,,,,,,,,,,,,,,,,,,
0,41,41,67,1,,6161bdbff67e4b4621b530e7,62bbfac37d44554892e31c9f,2022-06-29_09h14.04.856,Colour_Asymmetry_Pilot,2022.1.3,Win32,60.0024001,62bbe60bf3d75ef465d3e404,,,,,,,,,,,,,,,,,,,,,,,,,,,,,,,,,,,,,,,,,,,,,,,,,,,,,,,,,,,,,,,,,,,,,,,,,,,,,,,,,,,,,,,,,,,,,,,,,,,,,,,,,,,,,,,,,,,,,,,,,,,,,,,,,,,,,,,,,,,,,,,,,,,,,,,,,,,,,,
0,42,42,83,1,,6161bdbff67e4b4621b530e7,62bbfac37d44554892e31c9f,2022-06-29_09h14.04.856,Colour_Asymmetry_Pilot,2022.1.3,Win32,60.0024001,62bbe60bf3d75ef465d3e404,,,,,,,,,,,,,,,,,,,,,,,,,,,,,,,,,,,,,,,,,,,,,,,,,,,,,,,,,,,,,,,,,,,,,,,,,,,,,,,,,,,,,,,,,,,,,,,,,,,,,,,,,,,,,,,,,,,,,,,,,,,,,,,,,,,,,,,,,,,,,,,,,,,,,,,,,,,,,,
0,43,43,40,1,,6161bdbff67e4b4621b530e7,62bbfac37d44554892e31c9f,2022-06-29_09h14.04.856,Colour_Asymmetry_Pilot,2022.1.3,Win32,60.0024001,62bbe60bf3d75ef465d3e404,,,,,,,,,,,,,,,,,,,,,,,,,,,,,,,,,,,,,,,,,,,,,,,,,,,,,,,,,,,,,,,,,,,,,,,,,,,,,,,,,,,,,,,,,,,,,,,,,,,,,,,,,,,,,,,,,,,,,,,,,,,,,,,,,,,,,,,,,,,,,,,,,,,,,,,,,,,,,,
0,44,44,82,1,,6161bdbff67e4b4621b530e7,62bbfac37d44554892e31c9f,2022-06-29_09h14.04.856,Colour_Asymmetry_Pilot,2022.1.3,Win32,60.0024001,62bbe60bf3d75ef465d3e404,,,,,,,,,,,,,,,,,,,,,,,,,,,,,,,,,,,,,,,,,,,,,,,,,,,,,,,,,,,,,,,,,,,,,,,,,,,,,,,,,,,,,,,,,,,,,,,,,,,,,,,,,,,,,,,,,,,,,,,,,,,,,,,,,,,,,,,,,,,,,,,,,,,,,,,,,,,,,,
0,45,45,35,1,,6161bdbff67e4b4621b530e7,62bbfac37d44554892e31c9f,2022-06-29_09h14.04.856,Colour_Asymmetry_Pilot,2022.1.3,Win32,60.0024001,62bbe60bf3d75ef465d3e404,,,,,,,,,,,,,,,,,,,,,,,,,,,,,,,,,,,,,,,,,,,,,,,,,,,,,,,,,,,,,,,,,,,,,,,,,,,,,,,,,,,,,,,,,,,,,,,,,,,,,,,,,,,,,,,,,,,,,,,,,,,,,,,,,,,,,,,,,,,,,,,,,,,,,,,,,,,,,,
0,46,46,62,1,,6161bdbff67e4b4621b530e7,62bbfac37d44554892e31c9f,2022-06-29_09h14.04.856,Colour_Asymmetry_Pilot,2022.1.3,Win32,60.0024001,62bbe60bf3d75ef465d3e404,,,,,,,,,,,,,,,,,,,,,,,,,,,,,,,,,,,,,,,,,,,,,,,,,,,,,,,,,,,,,,,,,,,,,,,,,,,,,,,,,,,,,,,,,,,,,,,,,,,,,,,,,,,,,,,,,,,,,,,,,,,,,,,,,,,,,,,,,,,,,,,,,,,,,,,,,,,,,,
0,47,47,8,1,,6161bdbff67e4b4621b530e7,62bbfac37d44554892e31c9f,2022-06-29_09h14.04.856,Colour_Asymmetry_Pilot,2022.1.3,Win32,60.0024001,62bbe60bf3d75ef465d3e404,,,,,,,,,,,,,,,,,,,,,,,,,,,,,,,,,,,,,,,,,,,,,,,,,,,,,,,,,,,,,,,,,,,,,,,,,,,,,,,,,,,,,,,,,,,,,,,,,,,,,,,,,,,,,,,,,,,,,,,,,,,,,,,,,,,,,,,,,,,,,,,,,,,,,,,,,,,,,,
0,48,48,0,1,,6161bdbff67e4b4621b530e7,62bbfac37d44554892e31c9f,2022-06-29_09h14.04.856,Colour_Asymmetry_Pilot,2022.1.3,Win32,60.0024001,62bbe60bf3d75ef465d3e404,,,,,,,,,,,,,,,,,,,,,,,,,,,,,,,,,,,,,,,,,,,,,,,,,,,,,,,,,,,,,,,,,,,,,,,,,,,,,,,,,,,,,,,,,,,,,,,,,,,,,,,,,,,,,,,,,,,,,,,,,,,,,,,,,,,,,,,,,,,,,,,,,,,,,,,,,,,,,,
0,49,49,9,1,,6161bdbff67e4b4621b530e7,62bbfac37d44554892e31c9f,2022-06-29_09h14.04.856,Colour_Asymmetry_Pilot,2022.1.3,Win32,60.0024001,62bbe60bf3d75ef465d3e404,,,,,,,,,,,,,,,,,,,,,,,,,,,,,,,,,,,,,,,,,,,,,,,,,,,,,,,,,,,,,,,,,,,,,,,,,,,,,,,,,,,,,,,,,,,,,,,,,,,,,,,,,,,,,,,,,,,,,,,,,,,,,,,,,,,,,,,,,,,,,,,,,,,,,,,,,,,,,,
0,50,50,76,1,,6161bdbff67e4b4621b530e7,62bbfac37d44554892e31c9f,2022-06-29_09h14.04.856,Colour_Asymmetry_Pilot,2022.1.3,Win32,60.0024001,62bbe60bf3d75ef465d3e404,,,,,,,,,,,,,,,,,,,,,,,,,,,,,,,,,,,,,,,,,,,,,,,,,,,,,,,,,,,,,,,,,,,,,,,,,,,,,,,,,,,,,,,,,,,,,,,,,,,,,,,,,,,,,,,,,,,,,,,,,,,,,,,,,,,,,,,,,,,,,,,,,,,,,,,,,,,,,,
0,51,51,13,1,,6161bdbff67e4b4621b530e7,62bbfac37d44554892e31c9f,2022-06-29_09h14.04.856,Colour_Asymmetry_Pilot,2022.1.3,Win32,60.0024001,62bbe60bf3d75ef465d3e404,,,,,,,,,,,,,,,,,,,,,,,,,,,,,,,,,,,,,,,,,,,,,,,,,,,,,,,,,,,,,,,,,,,,,,,,,,,,,,,,,,,,,,,,,,,,,,,,,,,,,,,,,,,,,,,,,,,,,,,,,,,,,,,,,,,,,,,,,,,,,,,,,,,,,,,,,,,,,,
0,52,52,28,1,,6161bdbff67e4b4621b530e7,62bbfac37d44554892e31c9f,2022-06-29_09h14.04.856,Colour_Asymmetry_Pilot,2022.1.3,Win32,60.0024001,62bbe60bf3d75ef465d3e404,,,,,,,,,,,,,,,,,,,,,,,,,,,,,,,,,,,,,,,,,,,,,,,,,,,,,,,,,,,,,,,,,,,,,,,,,,,,,,,,,,,,,,,,,,,,,,,,,,,,,,,,,,,,,,,,,,,,,,,,,,,,,,,,,,,,,,,,,,,,,,,,,,,,,,,,,,,,,,
0,53,53,85,1,,6161bdbff67e4b4621b530e7,62bbfac37d44554892e31c9f,2022-06-29_09h14.04.856,Colour_Asymmetry_Pilot,2022.1.3,Win32,60.0024001,62bbe60bf3d75ef465d3e404,,,,,,,,,,,,,,,,,,,,,,,,,,,,,,,,,,,,,,,,,,,,,,,,,,,,,,,,,,,,,,,,,,,,,,,,,,,,,,,,,,,,,,,,,,,,,,,,,,,,,,,,,,,,,,,,,,,,,,,,,,,,,,,,,,,,,,,,,,,,,,,,,,,,,,,,,,,,,,
0,54,54,55,1,,6161bdbff67e4b4621b530e7,62bbfac37d44554892e31c9f,2022-06-29_09h14.04.856,Colour_Asymmetry_Pilot,2022.1.3,Win32,60.0024001,62bbe60bf3d75ef465d3e404,,,,,,,,,,,,,,,,,,,,,,,,,,,,,,,,,,,,,,,,,,,,,,,,,,,,,,,,,,,,,,,,,,,,,,,,,,,,,,,,,,,,,,,,,,,,,,,,,,,,,,,,,,,,,,,,,,,,,,,,,,,,,,,,,,,,,,,,,,,,,,,,,,,,,,,,,,,,,,
0,55,55,18,1,,6161bdbff67e4b4621b530e7,62bbfac37d44554892e31c9f,2022-06-29_09h14.04.856,Colour_Asymmetry_Pilot,2022.1.3,Win32,60.0024001,62bbe60bf3d75ef465d3e404,,,,,,,,,,,,,,,,,,,,,,,,,,,,,,,,,,,,,,,,,,,,,,,,,,,,,,,,,,,,,,,,,,,,,,,,,,,,,,,,,,,,,,,,,,,,,,,,,,,,,,,,,,,,,,,,,,,,,,,,,,,,,,,,,,,,,,,,,,,,,,,,,,,,,,,,,,,,,,
0,56,56,72,1,,6161bdbff67e4b4621b530e7,62bbfac37d44554892e31c9f,2022-06-29_09h14.04.856,Colour_Asymmetry_Pilot,2022.1.3,Win32,60.0024001,62bbe60bf3d75ef465d3e404,,,,,,,,,,,,,,,,,,,,,,,,,,,,,,,,,,,,,,,,,,,,,,,,,,,,,,,,,,,,,,,,,,,,,,,,,,,,,,,,,,,,,,,,,,,,,,,,,,,,,,,,,,,,,,,,,,,,,,,,,,,,,,,,,,,,,,,,,,,,,,,,,,,,,,,,,,,,,,
0,57,57,17,1,,6161bdbff67e4b4621b530e7,62bbfac37d44554892e31c9f,2022-06-29_09h14.04.856,Colour_Asymmetry_Pilot,2022.1.3,Win32,60.0024001,62bbe60bf3d75ef465d3e404,,,,,,,,,,,,,,,,,,,,,,,,,,,,,,,,,,,,,,,,,,,,,,,,,,,,,,,,,,,,,,,,,,,,,,,,,,,,,,,,,,,,,,,,,,,,,,,,,,,,,,,,,,,,,,,,,,,,,,,,,,,,,,,,,,,,,,,,,,,,,,,,,,,,,,,,,,,,,,
0,58,58,88,1,,6161bdbff67e4b4621b530e7,62bbfac37d44554892e31c9f,2022-06-29_09h14.04.856,Colour_Asymmetry_Pilot,2022.1.3,Win32,60.0024001,62bbe60bf3d75ef465d3e404,,,,,,,,,,,,,,,,,,,,,,,,,,,,,,,,,,,,,,,,,,,,,,,,,,,,,,,,,,,,,,,,,,,,,,,,,,,,,,,,,,,,,,,,,,,,,,,,,,,,,,,,,,,,,,,,,,,,,,,,,,,,,,,,,,,,,,,,,,,,,,,,,,,,,,,,,,,,,,
0,59,59,77,1,,6161bdbff67e4b4621b530e7,62bbfac37d44554892e31c9f,2022-06-29_09h14.04.856,Colour_Asymmetry_Pilot,2022.1.3,Win32,60.0024001,62bbe60bf3d75ef465d3e404,,,,,,,,,,,,,,,,,,,,,,,,,,,,,,,,,,,,,,,,,,,,,,,,,,,,,,,,,,,,,,,,,,,,,,,,,,,,,,,,,,,,,,,,,,,,,,,,,,,,,,,,,,,,,,,,,,,,,,,,,,,,,,,,,,,,,,,,,,,,,,,,,,,,,,,,,,,,,,
0,60,60,63,1,,6161bdbff67e4b4621b530e7,62bbfac37d44554892e31c9f,2022-06-29_09h14.04.856,Colour_Asymmetry_Pilot,2022.1.3,Win32,60.0024001,62bbe60bf3d75ef465d3e404,,,,,,,,,,,,,,,,,,,,,,,,,,,,,,,,,,,,,,,,,,,,,,,,,,,,,,,,,,,,,,,,,,,,,,,,,,,,,,,,,,,,,,,,,,,,,,,,,,,,,,,,,,,,,,,,,,,,,,,,,,,,,,,,,,,,,,,,,,,,,,,,,,,,,,,,,,,,,,
0,61,61,42,1,,6161bdbff67e4b4621b530e7,62bbfac37d44554892e31c9f,2022-06-29_09h14.04.856,Colour_Asymmetry_Pilot,2022.1.3,Win32,60.0024001,62bbe60bf3d75ef465d3e404,,,,,,,,,,,,,,,,,,,,,,,,,,,,,,,,,,,,,,,,,,,,,,,,,,,,,,,,,,,,,,,,,,,,,,,,,,,,,,,,,,,,,,,,,,,,,,,,,,,,,,,,,,,,,,,,,,,,,,,,,,,,,,,,,,,,,,,,,,,,,,,,,,,,,,,,,,,,,,
0,62,62,70,1,,6161bdbff67e4b4621b530e7,62bbfac37d44554892e31c9f,2022-06-29_09h14.04.856,Colour_Asymmetry_Pilot,2022.1.3,Win32,60.0024001,62bbe60bf3d75ef465d3e404,,,,,,,,,,,,,,,,,,,,,,,,,,,,,,,,,,,,,,,,,,,,,,,,,,,,,,,,,,,,,,,,,,,,,,,,,,,,,,,,,,,,,,,,,,,,,,,,,,,,,,,,,,,,,,,,,,,,,,,,,,,,,,,,,,,,,,,,,,,,,,,,,,,,,,,,,,,,,,
0,63,63,14,1,,6161bdbff67e4b4621b530e7,62bbfac37d44554892e31c9f,2022-06-29_09h14.04.856,Colour_Asymmetry_Pilot,2022.1.3,Win32,60.0024001,62bbe60bf3d75ef465d3e404,,,,,,,,,,,,,,,,,,,,,,,,,,,,,,,,,,,,,,,,,,,,,,,,,,,,,,,,,,,,,,,,,,,,,,,,,,,,,,,,,,,,,,,,,,,,,,,,,,,,,,,,,,,,,,,,,,,,,,,,,,,,,,,,,,,,,,,,,,,,,,,,,,,,,,,,,,,,,,
0,64,64,31,1,,6161bdbff67e4b4621b530e7,62bbfac37d44554892e31c9f,2022-06-29_09h14.04.856,Colour_Asymmetry_Pilot,2022.1.3,Win32,60.0024001,62bbe60bf3d75ef465d3e404,,,,,,,,,,,,,,,,,,,,,,,,,,,,,,,,,,,,,,,,,,,,,,,,,,,,,,,,,,,,,,,,,,,,,,,,,,,,,,,,,,,,,,,,,,,,,,,,,,,,,,,,,,,,,,,,,,,,,,,,,,,,,,,,,,,,,,,,,,,,,,,,,,,,,,,,,,,,,,
0,65,65,69,1,,6161bdbff67e4b4621b530e7,62bbfac37d44554892e31c9f,2022-06-29_09h14.04.856,Colour_Asymmetry_Pilot,2022.1.3,Win32,60.0024001,62bbe60bf3d75ef465d3e404,,,,,,,,,,,,,,,,,,,,,,,,,,,,,,,,,,,,,,,,,,,,,,,,,,,,,,,,,,,,,,,,,,,,,,,,,,,,,,,,,,,,,,,,,,,,,,,,,,,,,,,,,,,,,,,,,,,,,,,,,,,,,,,,,,,,,,,,,,,,,,,,,,,,,,,,,,,,,,
0,66,66,81,1,,6161bdbff67e4b4621b530e7,62bbfac37d44554892e31c9f,2022-06-29_09h14.04.856,Colour_Asymmetry_Pilot,2022.1.3,Win32,60.0024001,62bbe60bf3d75ef465d3e404,,,,,,,,,,,,,,,,,,,,,,,,,,,,,,,,,,,,,,,,,,,,,,,,,,,,,,,,,,,,,,,,,,,,,,,,,,,,,,,,,,,,,,,,,,,,,,,,,,,,,,,,,,,,,,,,,,,,,,,,,,,,,,,,,,,,,,,,,,,,,,,,,,,,,,,,,,,,,,
0,67,67,24,1,,6161bdbff67e4b4621b530e7,62bbfac37d44554892e31c9f,2022-06-29_09h14.04.856,Colour_Asymmetry_Pilot,2022.1.3,Win32,60.0024001,62bbe60bf3d75ef465d3e404,,,,,,,,,,,,,,,,,,,,,,,,,,,,,,,,,,,,,,,,,,,,,,,,,,,,,,,,,,,,,,,,,,,,,,,,,,,,,,,,,,,,,,,,,,,,,,,,,,,,,,,,,,,,,,,,,,,,,,,,,,,,,,,,,,,,,,,,,,,,,,,,,,,,,,,,,,,,,,
0,68,68,73,1,,6161bdbff67e4b4621b530e7,62bbfac37d44554892e31c9f,2022-06-29_09h14.04.856,Colour_Asymmetry_Pilot,2022.1.3,Win32,60.0024001,62bbe60bf3d75ef465d3e404,,,,,,,,,,,,,,,,,,,,,,,,,,,,,,,,,,,,,,,,,,,,,,,,,,,,,,,,,,,,,,,,,,,,,,,,,,,,,,,,,,,,,,,,,,,,,,,,,,,,,,,,,,,,,,,,,,,,,,,,,,,,,,,,,,,,,,,,,,,,,,,,,,,,,,,,,,,,,,
0,69,69,87,1,,6161bdbff67e4b4621b530e7,62bbfac37d44554892e31c9f,2022-06-29_09h14.04.856,Colour_Asymmetry_Pilot,2022.1.3,Win32,60.0024001,62bbe60bf3d75ef465d3e404,,,,,,,,,,,,,,,,,,,,,,,,,,,,,,,,,,,,,,,,,,,,,,,,,,,,,,,,,,,,,,,,,,,,,,,,,,,,,,,,,,,,,,,,,,,,,,,,,,,,,,,,,,,,,,,,,,,,,,,,,,,,,,,,,,,,,,,,,,,,,,,,,,,,,,,,,,,,,,
0,70,70,89,1,,6161bdbff67e4b4621b530e7,62bbfac37d44554892e31c9f,2022-06-29_09h14.04.856,Colour_Asymmetry_Pilot,2022.1.3,Win32,60.0024001,62bbe60bf3d75ef465d3e404,,,,,,,,,,,,,,,,,,,,,,,,,,,,,,,,,,,,,,,,,,,,,,,,,,,,,,,,,,,,,,,,,,,,,,,,,,,,,,,,,,,,,,,,,,,,,,,,,,,,,,,,,,,,,,,,,,,,,,,,,,,,,,,,,,,,,,,,,,,,,,,,,,,,,,,,,,,,,,
0,71,71,11,1,,6161bdbff67e4b4621b530e7,62bbfac37d44554892e31c9f,2022-06-29_09h14.04.856,Colour_Asymmetry_Pilot,2022.1.3,Win32,60.0024001,62bbe60bf3d75ef465d3e404,,,,,,,,,,,,,,,,,,,,,,,,,,,,,,,,,,,,,,,,,,,,,,,,,,,,,,,,,,,,,,,,,,,,,,,,,,,,,,,,,,,,,,,,,,,,,,,,,,,,,,,,,,,,,,,,,,,,,,,,,,,,,,,,,,,,,,,,,,,,,,,,,,,,,,,,,,,,,,
0,72,72,48,1,,6161bdbff67e4b4621b530e7,62bbfac37d44554892e31c9f,2022-06-29_09h14.04.856,Colour_Asymmetry_Pilot,2022.1.3,Win32,60.0024001,62bbe60bf3d75ef465d3e404,,,,,,,,,,,,,,,,,,,,,,,,,,,,,,,,,,,,,,,,,,,,,,,,,,,,,,,,,,,,,,,,,,,,,,,,,,,,,,,,,,,,,,,,,,,,,,,,,,,,,,,,,,,,,,,,,,,,,,,,,,,,,,,,,,,,,,,,,,,,,,,,,,,,,,,,,,,,,,
0,73,73,34,1,,6161bdbff67e4b4621b530e7,62bbfac37d44554892e31c9f,2022-06-29_09h14.04.856,Colour_Asymmetry_Pilot,2022.1.3,Win32,60.0024001,62bbe60bf3d75ef465d3e404,,,,,,,,,,,,,,,,,,,,,,,,,,,,,,,,,,,,,,,,,,,,,,,,,,,,,,,,,,,,,,,,,,,,,,,,,,,,,,,,,,,,,,,,,,,,,,,,,,,,,,,,,,,,,,,,,,,,,,,,,,,,,,,,,,,,,,,,,,,,,,,,,,,,,,,,,,,,,,
0,74,74,71,1,,6161bdbff67e4b4621b530e7,62bbfac37d44554892e31c9f,2022-06-29_09h14.04.856,Colour_Asymmetry_Pilot,2022.1.3,Win32,60.0024001,62bbe60bf3d75ef465d3e404,,,,,,,,,,,,,,,,,,,,,,,,,,,,,,,,,,,,,,,,,,,,,,,,,,,,,,,,,,,,,,,,,,,,,,,,,,,,,,,,,,,,,,,,,,,,,,,,,,,,,,,,,,,,,,,,,,,,,,,,,,,,,,,,,,,,,,,,,,,,,,,,,,,,,,,,,,,,,,
0,75,75,84,1,,6161bdbff67e4b4621b530e7,62bbfac37d44554892e31c9f,2022-06-29_09h14.04.856,Colour_Asymmetry_Pilot,2022.1.3,Win32,60.0024001,62bbe60bf3d75ef465d3e404,,,,,,,,,,,,,,,,,,,,,,,,,,,,,,,,,,,,,,,,,,,,,,,,,,,,,,,,,,,,,,,,,,,,,,,,,,,,,,,,,,,,,,,,,,,,,,,,,,,,,,,,,,,,,,,,,,,,,,,,,,,,,,,,,,,,,,,,,,,,,,,,,,,,,,,,,,,,,,
0,76,76,46,1,,6161bdbff67e4b4621b530e7,62bbfac37d44554892e31c9f,2022-06-29_09h14.04.856,Colour_Asymmetry_Pilot,2022.1.3,Win32,60.0024001,62bbe60bf3d75ef465d3e404,,,,,,,,,,,,,,,,,,,,,,,,,,,,,,,,,,,,,,,,,,,,,,,,,,,,,,,,,,,,,,,,,,,,,,,,,,,,,,,,,,,,,,,,,,,,,,,,,,,,,,,,,,,,,,,,,,,,,,,,,,,,,,,,,,,,,,,,,,,,,,,,,,,,,,,,,,,,,,
0,77,77,64,1,,6161bdbff67e4b4621b530e7,62bbfac37d44554892e31c9f,2022-06-29_09h14.04.856,Colour_Asymmetry_Pilot,2022.1.3,Win32,60.0024001,62bbe60bf3d75ef465d3e404,,,,,,,,,,,,,,,,,,,,,,,,,,,,,,,,,,,,,,,,,,,,,,,,,,,,,,,,,,,,,,,,,,,,,,,,,,,,,,,,,,,,,,,,,,,,,,,,,,,,,,,,,,,,,,,,,,,,,,,,,,,,,,,,,,,,,,,,,,,,,,,,,,,,,,,,,,,,,,
0,78,78,78,1,,6161bdbff67e4b4621b530e7,62bbfac37d44554892e31c9f,2022-06-29_09h14.04.856,Colour_Asymmetry_Pilot,2022.1.3,Win32,60.0024001,62bbe60bf3d75ef465d3e404,,,,,,,,,,,,,,,,,,,,,,,,,,,,,,,,,,,,,,,,,,,,,,,,,,,,,,,,,,,,,,,,,,,,,,,,,,,,,,,,,,,,,,,,,,,,,,,,,,,,,,,,,,,,,,,,,,,,,,,,,,,,,,,,,,,,,,,,,,,,,,,,,,,,,,,,,,,,,,
0,79,79,41,1,,6161bdbff67e4b4621b530e7,62bbfac37d44554892e31c9f,2022-06-29_09h14.04.856,Colour_Asymmetry_Pilot,2022.1.3,Win32,60.0024001,62bbe60bf3d75ef465d3e404,,,,,,,,,,,,,,,,,,,,,,,,,,,,,,,,,,,,,,,,,,,,,,,,,,,,,,,,,,,,,,,,,,,,,,,,,,,,,,,,,,,,,,,,,,,,,,,,,,,,,,,,,,,,,,,,,,,,,,,,,,,,,,,,,,,,,,,,,,,,,,,,,,,,,,,,,,,,,,
0,80,80,80,1,,6161bdbff67e4b4621b530e7,62bbfac37d44554892e31c9f,2022-06-29_09h14.04.856,Colour_Asymmetry_Pilot,2022.1.3,Win32,60.0024001,62bbe60bf3d75ef465d3e404,,,,,,,,,,,,,,,,,,,,,,,,,,,,,,,,,,,,,,,,,,,,,,,,,,,,,,,,,,,,,,,,,,,,,,,,,,,,,,,,,,,,,,,,,,,,,,,,,,,,,,,,,,,,,,,,,,,,,,,,,,,,,,,,,,,,,,,,,,,,,,,,,,,,,,,,,,,,,,
0,81,81,59,1,,6161bdbff67e4b4621b530e7,62bbfac37d44554892e31c9f,2022-06-29_09h14.04.856,Colour_Asymmetry_Pilot,2022.1.3,Win32,60.0024001,62bbe60bf3d75ef465d3e404,,,,,,,,,,,,,,,,,,,,,,,,,,,,,,,,,,,,,,,,,,,,,,,,,,,,,,,,,,,,,,,,,,,,,,,,,,,,,,,,,,,,,,,,,,,,,,,,,,,,,,,,,,,,,,,,,,,,,,,,,,,,,,,,,,,,,,,,,,,,,,,,,,,,,,,,,,,,,,
0,82,82,66,1,,6161bdbff67e4b4621b530e7,62bbfac37d44554892e31c9f,2022-06-29_09h14.04.856,Colour_Asymmetry_Pilot,2022.1.3,Win32,60.0024001,62bbe60bf3d75ef465d3e404,,,,,,,,,,,,,,,,,,,,,,,,,,,,,,,,,,,,,,,,,,,,,,,,,,,,,,,,,,,,,,,,,,,,,,,,,,,,,,,,,,,,,,,,,,,,,,,,,,,,,,,,,,,,,,,,,,,,,,,,,,,,,,,,,,,,,,,,,,,,,,,,,,,,,,,,,,,,,,
0,83,83,33,1,,6161bdbff67e4b4621b530e7,62bbfac37d44554892e31c9f,2022-06-29_09h14.04.856,Colour_Asymmetry_Pilot,2022.1.3,Win32,60.0024001,62bbe60bf3d75ef465d3e404,,,,,,,,,,,,,,,,,,,,,,,,,,,,,,,,,,,,,,,,,,,,,,,,,,,,,,,,,,,,,,,,,,,,,,,,,,,,,,,,,,,,,,,,,,,,,,,,,,,,,,,,,,,,,,,,,,,,,,,,,,,,,,,,,,,,,,,,,,,,,,,,,,,,,,,,,,,,,,
0,84,84,51,1,,6161bdbff67e4b4621b530e7,62bbfac37d44554892e31c9f,2022-06-29_09h14.04.856,Colour_Asymmetry_Pilot,2022.1.3,Win32,60.0024001,62bbe60bf3d75ef465d3e404,,,,,,,,,,,,,,,,,,,,,,,,,,,,,,,,,,,,,,,,,,,,,,,,,,,,,,,,,,,,,,,,,,,,,,,,,,,,,,,,,,,,,,,,,,,,,,,,,,,,,,,,,,,,,,,,,,,,,,,,,,,,,,,,,,,,,,,,,,,,,,,,,,,,,,,,,,,,,,
0,85,85,12,1,,6161bdbff67e4b4621b530e7,62bbfac37d44554892e31c9f,2022-06-29_09h14.04.856,Colour_Asymmetry_Pilot,2022.1.3,Win32,60.0024001,62bbe60bf3d75ef465d3e404,,,,,,,,,,,,,,,,,,,,,,,,,,,,,,,,,,,,,,,,,,,,,,,,,,,,,,,,,,,,,,,,,,,,,,,,,,,,,,,,,,,,,,,,,,,,,,,,,,,,,,,,,,,,,,,,,,,,,,,,,,,,,,,,,,,,,,,,,,,,,,,,,,,,,,,,,,,,,,
0,86,86,43,1,,6161bdbff67e4b4621b530e7,62bbfac37d44554892e31c9f,2022-06-29_09h14.04.856,Colour_Asymmetry_Pilot,2022.1.3,Win32,60.0024001,62bbe60bf3d75ef465d3e404,,,,,,,,,,,,,,,,,,,,,,,,,,,,,,,,,,,,,,,,,,,,,,,,,,,,,,,,,,,,,,,,,,,,,,,,,,,,,,,,,,,,,,,,,,,,,,,,,,,,,,,,,,,,,,,,,,,,,,,,,,,,,,,,,,,,,,,,,,,,,,,,,,,,,,,,,,,,,,
0,87,87,15,1,,6161bdbff67e4b4621b530e7,62bbfac37d44554892e31c9f,2022-06-29_09h14.04.856,Colour_Asymmetry_Pilot,2022.1.3,Win32,60.0024001,62bbe60bf3d75ef465d3e404,,,,,,,,,,,,,,,,,,,,,,,,,,,,,,,,,,,,,,,,,,,,,,,,,,,,,,,,,,,,,,,,,,,,,,,,,,,,,,,,,,,,,,,,,,,,,,,,,,,,,,,,,,,,,,,,,,,,,,,,,,,,,,,,,,,,,,,,,,,,,,,,,,,,,,,,,,,,,,
0,88,88,75,1,,6161bdbff67e4b4621b530e7,62bbfac37d44554892e31c9f,2022-06-29_09h14.04.856,Colour_Asymmetry_Pilot,2022.1.3,Win32,60.0024001,62bbe60bf3d75ef465d3e404,,,,,,,,,,,,,,,,,,,,,,,,,,,,,,,,,,,,,,,,,,,,,,,,,,,,,,,,,,,,,,,,,,,,,,,,,,,,,,,,,,,,,,,,,,,,,,,,,,,,,,,,,,,,,,,,,,,,,,,,,,,,,,,,,,,,,,,,,,,,,,,,,,,,,,,,,,,,,,
0,89,89,25,1,,6161bdbff67e4b4621b530e7,62bbfac37d44554892e31c9f,2022-06-29_09h14.04.856,Colour_Asymmetry_Pilot,2022.1.3,Win32,60.0024001,62bbe60bf3d75ef465d3e404,,,,,,,,,,,,,,,,,,,,,,,,,,,,,,,,,,,,,,,,,,,,,,,,,,,,,,,,,,,,,,,,,,,,,,,,,,,,,,,,,,,,,,,,,,,,,,,,,,,,,,,,,,,,,,,,,,,,,,,,,,,,,,,,,,,,,,,,,,,,,,,,,,,,,,,,,,,,,,
0,90,90,2,1,,6161bdbff67e4b4621b530e7,62bbfac37d44554892e31c9f,2022-06-29_09h14.04.856,Colour_Asymmetry_Pilot,2022.1.3,Win32,60.0024001,62bbe60bf3d75ef465d3e404,,,,,,,,,,,,,,,,,,,,,,,,,,,,,,,,,,,,,,,,,,,,,,,,,,,,,,,,,,,,,,,,,,,,,,,,,,,,,,,,,,,,,,,,,,,,,,,,,,,,,,,,,,,,,,,,,,,,,,,,,,,,,,,,,,,,,,,,,,,,,,,,,,,,,,,,,,,,,,
0,91,91,86,1,,6161bdbff67e4b4621b530e7,62bbfac37d44554892e31c9f,2022-06-29_09h14.04.856,Colour_Asymmetry_Pilot,2022.1.3,Win32,60.0024001,62bbe60bf3d75ef465d3e404,,,,,,,,,,,,,,,,,,,,,,,,,,,,,,,,,,,,,,,,,,,,,,,,,,,,,,,,,,,,,,,,,,,,,,,,,,,,,,,,,,,,,,,,,,,,,,,,,,,,,,,,,,,,,,,,,,,,,,,,,,,,,,,,,,,,,,,,,,,,,,,,,,,,,,,,,,,,,,
0,92,92,23,1,,6161bdbff67e4b4621b530e7,62bbfac37d44554892e31c9f,2022-06-29_09h14.04.856,Colour_Asymmetry_Pilot,2022.1.3,Win32,60.0024001,62bbe60bf3d75ef465d3e404,,,,,,,,,,,,,,,,,,,,,,,,,,,,,,,,,,,,,,,,,,,,,,,,,,,,,,,,,,,,,,,,,,,,,,,,,,,,,,,,,,,,,,,,,,,,,,,,,,,,,,,,,,,,,,,,,,,,,,,,,,,,,,,,,,,,,,,,,,,,,,,,,,,,,,,,,,,,,,
,,,,,,6161bdbff67e4b4621b530e7,62bbfac37d44554892e31c9f,2022-06-29_09h14.04.856,Colour_Asymmetry_Pilot,2022.1.3,Win32,60.0024001,62bbe60bf3d75ef465d3e404,0,0,0,2,1,twoone,,,,,,,,,,,,,,,,,,,,,,,,,,,,,,,,,,,,,,,,,,,,,,,,,,,,,,,,,,,,,,,,,,,,,,,,,,,,,,,,,,,,,,,,,,,,,,,,,,,,,,,,,,,,,,,,,,,,,,,,,,,,,,,,,,,,,,,,,,,,,,,,,,,,,,,,
,,,,,,6161bdbff67e4b4621b530e7,62bbfac37d44554892e31c9f,2022-06-29_09h14.04.856,Colour_Asymmetry_Pilot,2022.1.3,Win32,60.0024001,62bbe60bf3d75ef465d3e404,0,1,1,106,1,twoone,,,,,,,,,,,,,,,,,,,,,,,,,,,,,,,,,,,,,,,,,,,,,,,,,,,,,,,,,,,,,,,,,,,,,,,,,,,,,,,,,,,,,,,,,,,,,,,,,,,,,,,,,,,,,,,,,,,,,,,,,,,,,,,,,,,,,,,,,,,,,,,,,,,,,,,,
,,,,,,6161bdbff67e4b4621b530e7,62bbfac37d44554892e31c9f,2022-06-29_09h14.04.856,Colour_Asymmetry_Pilot,2022.1.3,Win32,60.0024001,62bbe60bf3d75ef465d3e404,0,2,2,85,1,threefour,,,,,,,,,,,,,,,,,,,,,,,,,,,,,,,,,,,,,,,,,,,,,,,,,,,,,,,,,,,,,,,,,,,,,,,,,,,,,,,,,,,,,,,,,,,,,,,,,,,,,,,,,,,,,,,,,,,,,,,,,,,,,,,,,,,,,,,,,,,,,,,,,,,,,,,,
,,,,,,6161bdbff67e4b4621b530e7,62bbfac37d44554892e31c9f,2022-06-29_09h14.04.856,Colour_Asymmetry_Pilot,2022.1.3,Win32,60.0024001,62bbe60bf3d75ef465d3e404,0,3,3,9,1,onethree,,,,,,,,,,,,,,,,,,,,,,,,,,,,,,,,,,,,,,,,,,,,,,,,,,,,,,,,,,,,,,,,,,,,,,,,,,,,,,,,,,,,,,,,,,,,,,,,,,,,,,,,,,,,,,,,,,,,,,,,,,,,,,,,,,,,,,,,,,,,,,,,,,,,,,,,
,,,,,,6161bdbff67e4b4621b530e7,62bbfac37d44554892e31c9f,2022-06-29_09h14.04.856,Colour_Asymmetry_Pilot,2022.1.3,Win32,60.0024001,62bbe60bf3d75ef465d3e404,0,4,4,53,1,threefour,,,,,,,,,,,,,,,,,,,,,,,,,,,,,,,,,,,,,,,,,,,,,,,,,,,,,,,,,,,,,,,,,,,,,,,,,,,,,,,,,,,,,,,,,,,,,,,,,,,,,,,,,,,,,,,,,,,,,,,,,,,,,,,,,,,,,,,,,,,,,,,,,,,,,,,,
,,,,,,6161bdbff67e4b4621b530e7,62bbfac37d44554892e31c9f,2022-06-29_09h14.04.856,Colour_Asymmetry_Pilot,2022.1.3,Win32,60.0024001,62bbe60bf3d75ef465d3e404,0,5,5,124,1,threeone,,,,,,,,,,,,,,,,,,,,,,,,,,,,,,,,,,,,,,,,,,,,,,,,,,,,,,,,,,,,,,,,,,,,,,,,,,,,,,,,,,,,,,,,,,,,,,,,,,,,,,,,,,,,,,,,,,,,,,,,,,,,,,,,,,,,,,,,,,,,,,,,,,,,,,,,
,,,,,,6161bdbff67e4b4621b530e7,62bbfac37d44554892e31c9f,2022-06-29_09h14.04.856,Colour_Asymmetry_Pilot,2022.1.3,Win32,60.0024001,62bbe60bf3d75ef465d3e404,0,6,6,116,1,threeone,,,,,,,,,,,,,,,,,,,,,,,,,,,,,,,,,,,,,,,,,,,,,,,,,,,,,,,,,,,,,,,,,,,,,,,,,,,,,,,,,,,,,,,,,,,,,,,,,,,,,,,,,,,,,,,,,,,,,,,,,,,,,,,,,,,,,,,,,,,,,,,,,,,,,,,,
,,,,,,6161bdbff67e4b4621b530e7,62bbfac37d44554892e31c9f,2022-06-29_09h14.04.856,Colour_Asymmetry_Pilot,2022.1.3,Win32,60.0024001,62bbe60bf3d75ef465d3e404,0,7,7,22,1,fourtwo,,,,,,,,,,,,,,,,,,,,,,,,,,,,,,,,,,,,,,,,,,,,,,,,,,,,,,,,,,,,,,,,,,,,,,,,,,,,,,,,,,,,,,,,,,,,,,,,,,,,,,,,,,,,,,,,,,,,,,,,,,,,,,,,,,,,,,,,,,,,,,,,,,,,,,,,
,,,,,,6161bdbff67e4b4621b530e7,62bbfac37d44554892e31c9f,2022-06-29_09h14.04.856,Colour_Asymmetry_Pilot,2022.1.3,Win32,60.0024001,62bbe60bf3d75ef465d3e404,0,8,8,63,1,fourthree,,,,,,,,,,,,,,,,,,,,,,,,,,,,,,,,,,,,,,,,,,,,,,,,,,,,,,,,,,,,,,,,,,,,,,,,,,,,,,,,,,,,,,,,,,,,,,,,,,,,,,,,,,,,,,,,,,,,,,,,,,,,,,,,,,,,,,,,,,,,,,,,,,,,,,,,
,,,,,,6161bdbff67e4b4621b530e7,62bbfac37d44554892e31c9f,2022-06-29_09h14.04.856,Colour_Asymmetry_Pilot,2022.1.3,Win32,60.0024001,62bbe60bf3d75ef465d3e404,0,9,9,4,1,threeone,,,,,,,,,,,,,,,,,,,,,,,,,,,,,,,,,,,,,,,,,,,,,,,,,,,,,,,,,,,,,,,,,,,,,,,,,,,,,,,,,,,,,,,,,,,,,,,,,,,,,,,,,,,,,,,,,,,,,,,,,,,,,,,,,,,,,,,,,,,,,,,,,,,,,,,,
,,,,,,6161bdbff67e4b4621b530e7,62bbfac37d44554892e31c9f,2022-06-29_09h14.04.856,Colour_Asymmetry_Pilot,2022.1.3,Win32,60.0024001,62bbe60bf3d75ef465d3e404,0,10,10,32,1,onetwo,,,,,,,,,,,,,,,,,,,,,,,,,,,,,,,,,,,,,,,,,,,,,,,,,,,,,,,,,,,,,,,,,,,,,,,,,,,,,,,,,,,,,,,,,,,,,,,,,,,,,,,,,,,,,,,,,,,,,,,,,,,,,,,,,,,,,,,,,,,,,,,,,,,,,,,,
,,,,,,6161bdbff67e4b4621b530e7,62bbfac37d44554892e31c9f,2022-06-29_09h14.04.856,Colour_Asymmetry_Pilot,2022.1.3,Win32,60.0024001,62bbe60bf3d75ef465d3e404,0,11,11,80,1,onetwo,,,,,,,,,,,,,,,,,,,,,,,,,,,,,,,,,,,,,,,,,,,,,,,,,,,,,,,,,,,,,,,,,,,,,,,,,,,,,,,,,,,,,,,,,,,,,,,,,,,,,,,,,,,,,,,,,,,,,,,,,,,,,,,,,,,,,,,,,,,,,,,,,,,,,,,,
,,,,,,6161bdbff67e4b4621b530e7,62bbfac37d44554892e31c9f,2022-06-29_09h14.04.856,Colour_Asymmetry_Pilot,2022.1.3,Win32,60.0024001,62bbe60bf3d75ef465d3e404,0,12,12,142,1,fourtwo,,,,,,,,,,,,,,,,,,,,,,,,,,,,,,,,,,,,,,,,,,,,,,,,,,,,,,,,,,,,,,,,,,,,,,,,,,,,,,,,,,,,,,,,,,,,,,,,,,,,,,,,,,,,,,,,,,,,,,,,,,,,,,,,,,,,,,,,,,,,,,,,,,,,,,,,
,,,,,,6161bdbff67e4b4621b530e7,62bbfac37d44554892e31c9f,2022-06-29_09h14.04.856,Colour_Asymmetry_Pilot,2022.1.3,Win32,60.0024001,62bbe60bf3d75ef465d3e404,0,13,13,138,1,twoone,,,,,,,,,,,,,,,,,,,,,,,,,,,,,,,,,,,,,,,,,,,,,,,,,,,,,,,,,,,,,,,,,,,,,,,,,,,,,,,,,,,,,,,,,,,,,,,,,,,,,,,,,,,,,,,,,,,,,,,,,,,,,,,,,,,,,,,,,,,,,,,,,,,,,,,,
,,,,,,6161bdbff67e4b4621b530e7,62bbfac37d44554892e31c9f,2022-06-29_09h14.04.856,Colour_Asymmetry_Pilot,2022.1.3,Win32,60.0024001,62bbe60bf3d75ef465d3e404,0,14,14,111,1,fourthree,,,,,,,,,,,,,,,,,,,,,,,,,,,,,,,,,,,,,,,,,,,,,,,,,,,,,,,,,,,,,,,,,,,,,,,,,,,,,,,,,,,,,,,,,,,,,,,,,,,,,,,,,,,,,,,,,,,,,,,,,,,,,,,,,,,,,,,,,,,,,,,,,,,,,,,,
,,,,,,6161bdbff67e4b4621b530e7,62bbfac37d44554892e31c9f,2022-06-29_09h14.04.856,Colour_Asymmetry_Pilot,2022.1.3,Win32,60.0024001,62bbe60bf3d75ef465d3e404,0,15,15,48,1,onetwo,,,,,,,,,,,,,,,,,,,,,,,,,,,,,,,,,,,,,,,,,,,,,,,,,,,,,,,,,,,,,,,,,,,,,,,,,,,,,,,,,,,,,,,,,,,,,,,,,,,,,,,,,,,,,,,,,,,,,,,,,,,,,,,,,,,,,,,,,,,,,,,,,,,,,,,,
,,,,,,6161bdbff67e4b4621b530e7,62bbfac37d44554892e31c9f,2022-06-29_09h14.04.856,Colour_Asymmetry_Pilot,2022.1.3,Win32,60.0024001,62bbe60bf3d75ef465d3e404,0,16,16,105,1,onethree,,,,,,,,,,,,,,,,,,,,,,,,,,,,,,,,,,,,,,,,,,,,,,,,,,,,,,,,,,,,,,,,,,,,,,,,,,,,,,,,,,,,,,,,,,,,,,,,,,,,,,,,,,,,,,,,,,,,,,,,,,,,,,,,,,,,,,,,,,,,,,,,,,,,,,,,
,,,,,,6161bdbff67e4b4621b530e7,62bbfac37d44554892e31c9f,2022-06-29_09h14.04.856,Colour_Asymmetry_Pilot,2022.1.3,Win32,60.0024001,62bbe60bf3d75ef465d3e404,0,17,17,3,1,twofour,,,,,,,,,,,,,,,,,,,,,,,,,,,,,,,,,,,,,,,,,,,,,,,,,,,,,,,,,,,,,,,,,,,,,,,,,,,,,,,,,,,,,,,,,,,,,,,,,,,,,,,,,,,,,,,,,,,,,,,,,,,,,,,,,,,,,,,,,,,,,,,,,,,,,,,,
,,,,,,6161bdbff67e4b4621b530e7,62bbfac37d44554892e31c9f,2022-06-29_09h14.04.856,Colour_Asymmetry_Pilot,2022.1.3,Win32,60.0024001,62bbe60bf3d75ef465d3e404,0,18,18,56,1,onetwo,,,,,,,,,,,,,,,,,,,,,,,,,,,,,,,,,,,,,,,,,,,,,,,,,,,,,,,,,,,,,,,,,,,,,,,,,,,,,,,,,,,,,,,,,,,,,,,,,,,,,,,,,,,,,,,,,,,,,,,,,,,,,,,,,,,,,,,,,,,,,,,,,,,,,,,,
,,,,,,6161bdbff67e4b4621b530e7,62bbfac37d44554892e31c9f,2022-06-29_09h14.04.856,Colour_Asymmetry_Pilot,2022.1.3,Win32,60.0024001,62bbe60bf3d75ef465d3e404,0,19,19,66,1,twoone,,,,,,,,,,,,,,,,,,,,,,,,,,,,,,,,,,,,,,,,,,,,,,,,,,,,,,,,,,,,,,,,,,,,,,,,,,,,,,,,,,,,,,,,,,,,,,,,,,,,,,,,,,,,,,,,,,,,,,,,,,,,,,,,,,,,,,,,,,,,,,,,,,,,,,,,
,,,,,,6161bdbff67e4b4621b530e7,62bbfac37d44554892e31c9f,2022-06-29_09h14.04.856,Colour_Asymmetry_Pilot,2022.1.3,Win32,60.0024001,62bbe60bf3d75ef465d3e404,0,20,20,17,1,onethree,,,,,,,,,,,,,,,,,,,,,,,,,,,,,,,,,,,,,,,,,,,,,,,,,,,,,,,,,,,,,,,,,,,,,,,,,,,,,,,,,,,,,,,,,,,,,,,,,,,,,,,,,,,,,,,,,,,,,,,,,,,,,,,,,,,,,,,,,,,,,,,,,,,,,,,,
,,,,,,6161bdbff67e4b4621b530e7,62bbfac37d44554892e31c9f,2022-06-29_09h14.04.856,Colour_Asymmetry_Pilot,2022.1.3,Win32,60.0024001,62bbe60bf3d75ef465d3e404,0,21,21,43,1,twofour,,,,,,,,,,,,,,,,,,,,,,,,,,,,,,,,,,,,,,,,,,,,,,,,,,,,,,,,,,,,,,,,,,,,,,,,,,,,,,,,,,,,,,,,,,,,,,,,,,,,,,,,,,,,,,,,,,,,,,,,,,,,,,,,,,,,,,,,,,,,,,,,,,,,,,,,
,,,,,,6161bdbff67e4b4621b530e7,62bbfac37d44554892e31c9f,2022-06-29_09h14.04.856,Colour_Asymmetry_Pilot,2022.1.3,Win32,60.0024001,62bbe60bf3d75ef465d3e404,0,22,22,141,1,threefour,,,,,,,,,,,,,,,,,,,,,,,,,,,,,,,,,,,,,,,,,,,,,,,,,,,,,,,,,,,,,,,,,,,,,,,,,,,,,,,,,,,,,,,,,,,,,,,,,,,,,,,,,,,,,,,,,,,,,,,,,,,,,,,,,,,,,,,,,,,,,,,,,,,,,,,,
,,,,,,6161bdbff67e4b4621b530e7,62bbfac37d44554892e31c9f,2022-06-29_09h14.04.856,Colour_Asymmetry_Pilot,2022.1.3,Win32,60.0024001,62bbe60bf3d75ef465d3e404,0,23,23,154,1,twoone,,,,,,,,,,,,,,,,,,,,,,,,,,,,,,,,,,,,,,,,,,,,,,,,,,,,,,,,,,,,,,,,,,,,,,,,,,,,,,,,,,,,,,,,,,,,,,,,,,,,,,,,,,,,,,,,,,,,,,,,,,,,,,,,,,,,,,,,,,,,,,,,,,,,,,,,
,,,,,,6161bdbff67e4b4621b530e7,62bbfac37d44554892e31c9f,2022-06-29_09h14.04.856,Colour_Asymmetry_Pilot,2022.1.3,Win32,60.0024001,62bbe60bf3d75ef465d3e404,0,24,24,118,1,fourtwo,,,,,,,,,,,,,,,,,,,,,,,,,,,,,,,,,,,,,,,,,,,,,,,,,,,,,,,,,,,,,,,,,,,,,,,,,,,,,,,,,,,,,,,,,,,,,,,,,,,,,,,,,,,,,,,,,,,,,,,,,,,,,,,,,,,,,,,,,,,,,,,,,,,,,,,,
,,,,,,6161bdbff67e4b4621b530e7,62bbfac37d44554892e31c9f,2022-06-29_09h14.04.856,Colour_Asymmetry_Pilot,2022.1.3,Win32,60.0024001,62bbe60bf3d75ef465d3e404,0,25,25,149,1,threefour,,,,,,,,,,,,,,,,,,,,,,,,,,,,,,,,,,,,,,,,,,,,,,,,,,,,,,,,,,,,,,,,,,,,,,,,,,,,,,,,,,,,,,,,,,,,,,,,,,,,,,,,,,,,,,,,,,,,,,,,,,,,,,,,,,,,,,,,,,,,,,,,,,,,,,,,
,,,,,,6161bdbff67e4b4621b530e7,62bbfac37d44554892e31c9f,2022-06-29_09h14.04.856,Colour_Asymmetry_Pilot,2022.1.3,Win32,60.0024001,62bbe60bf3d75ef465d3e404,0,26,26,150,1,fourtwo,,,,,,,,,,,,,,,,,,,,,,,,,,,,,,,,,,,,,,,,,,,,,,,,,,,,,,,,,,,,,,,,,,,,,,,,,,,,,,,,,,,,,,,,,,,,,,,,,,,,,,,,,,,,,,,,,,,,,,,,,,,,,,,,,,,,,,,,,,,,,,,,,,,,,,,,
,,,,,,6161bdbff67e4b4621b530e7,62bbfac37d44554892e31c9f,2022-06-29_09h14.04.856,Colour_Asymmetry_Pilot,2022.1.3,Win32,60.0024001,62bbe60bf3d75ef465d3e404,0,27,27,86,1,fourtwo,,,,,,,,,,,,,,,,,,,,,,,,,,,,,,,,,,,,,,,,,,,,,,,,,,,,,,,,,,,,,,,,,,,,,,,,,,,,,,,,,,,,,,,,,,,,,,,,,,,,,,,,,,,,,,,,,,,,,,,,,,,,,,,,,,,,,,,,,,,,,,,,,,,,,,,,
,,,,,,6161bdbff67e4b4621b530e7,62bbfac37d44554892e31c9f,2022-06-29_09h14.04.856,Colour_Asymmetry_Pilot,2022.1.3,Win32,60.0024001,62bbe60bf3d75ef465d3e404,0,28,28,20,1,threeone,,,,,,,,,,,,,,,,,,,,,,,,,,,,,,,,,,,,,,,,,,,,,,,,,,,,,,,,,,,,,,,,,,,,,,,,,,,,,,,,,,,,,,,,,,,,,,,,,,,,,,,,,,,,,,,,,,,,,,,,,,,,,,,,,,,,,,,,,,,,,,,,,,,,,,,,
,,,,,,6161bdbff67e4b4621b530e7,62bbfac37d44554892e31c9f,2022-06-29_09h14.04.856,Colour_Asymmetry_Pilot,2022.1.3,Win32,60.0024001,62bbe60bf3d75ef465d3e404,0,29,29,31,1,fourthree,,,,,,,,,,,,,,,,,,,,,,,,,,,,,,,,,,,,,,,,,,,,,,,,,,,,,,,,,,,,,,,,,,,,,,,,,,,,,,,,,,,,,,,,,,,,,,,,,,,,,,,,,,,,,,,,,,,,,,,,,,,,,,,,,,,,,,,,,,,,,,,,,,,,,,,,
,,,,,,6161bdbff67e4b4621b530e7,62bbfac37d44554892e31c9f,2022-06-29_09h14.04.856,Colour_Asymmetry_Pilot,2022.1.3,Win32,60.0024001,62bbe60bf3d75ef465d3e404,0,30,30,79,1,fourthree,,,,,,,,,,,,,,,,,,,,,,,,,,,,,,,,,,,,,,,,,,,,,,,,,,,,,,,,,,,,,,,,,,,,,,,,,,,,,,,,,,,,,,,,,,,,,,,,,,,,,,,,,,,,,,,,,,,,,,,,,,,,,,,,,,,,,,,,,,,,,,,,,,,,,,,,
,,,,,,6161bdbff67e4b4621b530e7,62bbfac37d44554892e31c9f,2022-06-29_09h14.04.856,Colour_Asymmetry_Pilot,2022.1.3,Win32,60.0024001,62bbe60bf3d75ef465d3e404,0,31,31,148,1,threeone,,,,,,,,,,,,,,,,,,,,,,,,,,,,,,,,,,,,,,,,,,,,,,,,,,,,,,,,,,,,,,,,,,,,,,,,,,,,,,,,,,,,,,,,,,,,,,,,,,,,,,,,,,,,,,,,,,,,,,,,,,,,,,,,,,,,,,,,,,,,,,,,,,,,,,,,
,,,,,,6161bdbff67e4b4621b530e7,62bbfac37d44554892e31c9f,2022-06-29_09h14.04.856,Colour_Asymmetry_Pilot,2022.1.3,Win32,60.0024001,62bbe60bf3d75ef465d3e404,0,32,32,121,1,onethree,,,,,,,,,,,,,,,,,,,,,,,,,,,,,,,,,,,,,,,,,,,,,,,,,,,,,,,,,,,,,,,,,,,,,,,,,,,,,,,,,,,,,,,,,,,,,,,,,,,,,,,,,,,,,,,,,,,,,,,,,,,,,,,,,,,,,,,,,,,,,,,,,,,,,,,,
,,,,,,6161bdbff67e4b4621b530e7,62bbfac37d44554892e31c9f,2022-06-29_09h14.04.856,Colour_Asymmetry_Pilot,2022.1.3,Win32,60.0024001,62bbe60bf3d75ef465d3e404,0,33,33,60,1,threeone,,,,,,,,,,,,,,,,,,,,,,,,,,,,,,,,,,,,,,,,,,,,,,,,,,,,,,,,,,,,,,,,,,,,,,,,,,,,,,,,,,,,,,,,,,,,,,,,,,,,,,,,,,,,,,,,,,,,,,,,,,,,,,,,,,,,,,,,,,,,,,,,,,,,,,,,
,,,,,,6161bdbff67e4b4621b530e7,62bbfac37d44554892e31c9f,2022-06-29_09h14.04.856,Colour_Asymmetry_Pilot,2022.1.3,Win32,60.0024001,62bbe60bf3d75ef465d3e404,0,34,34,119,1,fourthree,,,,,,,,,,,,,,,,,,,,,,,,,,,,,,,,,,,,,,,,,,,,,,,,,,,,,,,,,,,,,,,,,,,,,,,,,,,,,,,,,,,,,,,,,,,,,,,,,,,,,,,,,,,,,,,,,,,,,,,,,,,,,,,,,,,,,,,,,,,,,,,,,,,,,,,,
,,,,,,6161bdbff67e4b4621b530e7,62bbfac37d44554892e31c9f,2022-06-29_09h14.04.856,Colour_Asymmetry_Pilot,2022.1.3,Win32,60.0024001,62bbe60bf3d75ef465d3e404,0,35,35,41,1,onethree,,,,,,,,,,,,,,,,,,,,,,,,,,,,,,,,,,,,,,,,,,,,,,,,,,,,,,,,,,,,,,,,,,,,,,,,,,,,,,,,,,,,,,,,,,,,,,,,,,,,,,,,,,,,,,,,,,,,,,,,,,,,,,,,,,,,,,,,,,,,,,,,,,,,,,,,
,,,,,,6161bdbff67e4b4621b530e7,62bbfac37d44554892e31c9f,2022-06-29_09h14.04.856,Colour_Asymmetry_Pilot,2022.1.3,Win32,60.0024001,62bbe60bf3d75ef465d3e404,0,36,36,99,1,twofour,,,,,,,,,,,,,,,,,,,,,,,,,,,,,,,,,,,,,,,,,,,,,,,,,,,,,,,,,,,,,,,,,,,,,,,,,,,,,,,,,,,,,,,,,,,,,,,,,,,,,,,,,,,,,,,,,,,,,,,,,,,,,,,,,,,,,,,,,,,,,,,,,,,,,,,,
,,,,,,6161bdbff67e4b4621b530e7,62bbfac37d44554892e31c9f,2022-06-29_09h14.04.856,Colour_Asymmetry_Pilot,2022.1.3,Win32,60.0024001,62bbe60bf3d75ef465d3e404,0,37,37,104,1,onetwo,,,,,,,,,,,,,,,,,,,,,,,,,,,,,,,,,,,,,,,,,,,,,,,,,,,,,,,,,,,,,,,,,,,,,,,,,,,,,,,,,,,,,,,,,,,,,,,,,,,,,,,,,,,,,,,,,,,,,,,,,,,,,,,,,,,,,,,,,,,,,,,,,,,,,,,,
,,,,,,6161bdbff67e4b4621b530e7,62bbfac37d44554892e31c9f,2022-06-29_09h14.04.856,Colour_Asymmetry_Pilot,2022.1.3,Win32,60.0024001,62bbe60bf3d75ef465d3e404,0,38,38,45,1,threefour,,,,,,,,,,,,,,,,,,,,,,,,,,,,,,,,,,,,,,,,,,,,,,,,,,,,,,,,,,,,,,,,,,,,,,,,,,,,,,,,,,,,,,,,,,,,,,,,,,,,,,,,,,,,,,,,,,,,,,,,,,,,,,,,,,,,,,,,,,,,,,,,,,,,,,,,
,,,,,,6161bdbff67e4b4621b530e7,62bbfac37d44554892e31c9f,2022-06-29_09h14.04.856,Colour_Asymmetry_Pilot,2022.1.3,Win32,60.0024001,62bbe60bf3d75ef465d3e404,0,39,39,27,1,twofour,,,,,,,,,,,,,,,,,,,,,,,,,,,,,,,,,,,,,,,,,,,,,,,,,,,,,,,,,,,,,,,,,,,,,,,,,,,,,,,,,,,,,,,,,,,,,,,,,,,,,,,,,,,,,,,,,,,,,,,,,,,,,,,,,,,,,,,,,,,,,,,,,,,,,,,,
,,,,,,6161bdbff67e4b4621b530e7,62bbfac37d44554892e31c9f,2022-06-29_09h14.04.856,Colour_Asymmetry_Pilot,2022.1.3,Win32,60.0024001,62bbe60bf3d75ef465d3e404,0,40,40,82,1,twoone,,,,,,,,,,,,,,,,,,,,,,,,,,,,,,,,,,,,,,,,,,,,,,,,,,,,,,,,,,,,,,,,,,,,,,,,,,,,,,,,,,,,,,,,,,,,,,,,,,,,,,,,,,,,,,,,,,,,,,,,,,,,,,,,,,,,,,,,,,,,,,,,,,,,,,,,
,,,,,,6161bdbff67e4b4621b530e7,62bbfac37d44554892e31c9f,2022-06-29_09h14.04.856,Colour_Asymmetry_Pilot,2022.1.3,Win32,60.0024001,62bbe60bf3d75ef465d3e404,0,41,41,107,1,twofour,,,,,,,,,,,,,,,,,,,,,,,,,,,,,,,,,,,,,,,,,,,,,,,,,,,,,,,,,,,,,,,,,,,,,,,,,,,,,,,,,,,,,,,,,,,,,,,,,,,,,,,,,,,,,,,,,,,,,,,,,,,,,,,,,,,,,,,,,,,,,,,,,,,,,,,,
,,,,,,6161bdbff67e4b4621b530e7,62bbfac37d44554892e31c9f,2022-06-29_09h14.04.856,Colour_Asymmetry_Pilot,2022.1.3,Win32,60.0024001,62bbe60bf3d75ef465d3e404,0,42,42,128,1,onetwo,,,,,,,,,,,,,,,,,,,,,,,,,,,,,,,,,,,,,,,,,,,,,,,,,,,,,,,,,,,,,,,,,,,,,,,,,,,,,,,,,,,,,,,,,,,,,,,,,,,,,,,,,,,,,,,,,,,,,,,,,,,,,,,,,,,,,,,,,,,,,,,,,,,,,,,,
,,,,,,6161bdbff67e4b4621b530e7,62bbfac37d44554892e31c9f,2022-06-29_09h14.04.856,Colour_Asymmetry_Pilot,2022.1.3,Win32,60.0024001,62bbe60bf3d75ef465d3e404,0,43,43,122,1,twoone,,,,,,,,,,,,,,,,,,,,,,,,,,,,,,,,,,,,,,,,,,,,,,,,,,,,,,,,,,,,,,,,,,,,,,,,,,,,,,,,,,,,,,,,,,,,,,,,,,,,,,,,,,,,,,,,,,,,,,,,,,,,,,,,,,,,,,,,,,,,,,,,,,,,,,,,
,,,,,,6161bdbff67e4b4621b530e7,62bbfac37d44554892e31c9f,2022-06-29_09h14.04.856,Colour_Asymmetry_Pilot,2022.1.3,Win32,60.0024001,62bbe60bf3d75ef465d3e404,0,44,44,12,1,threeone,,,,,,,,,,,,,,,,,,,,,,,,,,,,,,,,,,,,,,,,,,,,,,,,,,,,,,,,,,,,,,,,,,,,,,,,,,,,,,,,,,,,,,,,,,,,,,,,,,,,,,,,,,,,,,,,,,,,,,,,,,,,,,,,,,,,,,,,,,,,,,,,,,,,,,,,
,,,,,,6161bdbff67e4b4621b530e7,62bbfac37d44554892e31c9f,2022-06-29_09h14.04.856,Colour_Asymmetry_Pilot,2022.1.3,Win32,60.0024001,62bbe60bf3d75ef465d3e404,0,45,45,132,1,threeone,,,,,,,,,,,,,,,,,,,,,,,,,,,,,,,,,,,,,,,,,,,,,,,,,,,,,,,,,,,,,,,,,,,,,,,,,,,,,,,,,,,,,,,,,,,,,,,,,,,,,,,,,,,,,,,,,,,,,,,,,,,,,,,,,,,,,,,,,,,,,,,,,,,,,,,,
,,,,,,6161bdbff67e4b4621b530e7,62bbfac37d44554892e31c9f,2022-06-29_09h14.04.856,Colour_Asymmetry_Pilot,2022.1.3,Win32,60.0024001,62bbe60bf3d75ef465d3e404,0,46,46,94,1,fourtwo,,,,,,,,,,,,,,,,,,,,,,,,,,,,,,,,,,,,,,,,,,,,,,,,,,,,,,,,,,,,,,,,,,,,,,,,,,,,,,,,,,,,,,,,,,,,,,,,,,,,,,,,,,,,,,,,,,,,,,,,,,,,,,,,,,,,,,,,,,,,,,,,,,,,,,,,
,,,,,,6161bdbff67e4b4621b530e7,62bbfac37d44554892e31c9f,2022-06-29_09h14.04.856,Colour_Asymmetry_Pilot,2022.1.3,Win32,60.0024001,62bbe60bf3d75ef465d3e404,0,47,47,23,1,fourthree,,,,,,,,,,,,,,,,,,,,,,,,,,,,,,,,,,,,,,,,,,,,,,,,,,,,,,,,,,,,,,,,,,,,,,,,,,,,,,,,,,,,,,,,,,,,,,,,,,,,,,,,,,,,,,,,,,,,,,,,,,,,,,,,,,,,,,,,,,,,,,,,,,,,,,,,
,,,,,,6161bdbff67e4b4621b530e7,62bbfac37d44554892e31c9f,2022-06-29_09h14.04.856,Colour_Asymmetry_Pilot,2022.1.3,Win32,60.0024001,62bbe60bf3d75ef465d3e404,0,48,48,29,1,threefour,,,,,,,,,,,,,,,,,,,,,,,,,,,,,,,,,,,,,,,,,,,,,,,,,,,,,,,,,,,,,,,,,,,,,,,,,,,,,,,,,,,,,,,,,,,,,,,,,,,,,,,,,,,,,,,,,,,,,,,,,,,,,,,,,,,,,,,,,,,,,,,,,,,,,,,,
,,,,,,6161bdbff67e4b4621b530e7,62bbfac37d44554892e31c9f,2022-06-29_09h14.04.856,Colour_Asymmetry_Pilot,2022.1.3,Win32,60.0024001,62bbe60bf3d75ef465d3e404,0,49,49,57,1,onethree,,,,,,,,,,,,,,,,,,,,,,,,,,,,,,,,,,,,,,,,,,,,,,,,,,,,,,,,,,,,,,,,,,,,,,,,,,,,,,,,,,,,,,,,,,,,,,,,,,,,,,,,,,,,,,,,,,,,,,,,,,,,,,,,,,,,,,,,,,,,,,,,,,,,,,,,
,,,,,,6161bdbff67e4b4621b530e7,62bbfac37d44554892e31c9f,2022-06-29_09h14.04.856,Colour_Asymmetry_Pilot,2022.1.3,Win32,60.0024001,62bbe60bf3d75ef465d3e404,0,50,50,88,1,onetwo,,,,,,,,,,,,,,,,,,,,,,,,,,,,,,,,,,,,,,,,,,,,,,,,,,,,,,,,,,,,,,,,,,,,,,,,,,,,,,,,,,,,,,,,,,,,,,,,,,,,,,,,,,,,,,,,,,,,,,,,,,,,,,,,,,,,,,,,,,,,,,,,,,,,,,,,
,,,,,,6161bdbff67e4b4621b530e7,62bbfac37d44554892e31c9f,2022-06-29_09h14.04.856,Colour_Asymmetry_Pilot,2022.1.3,Win32,60.0024001,62bbe60bf3d75ef465d3e404,0,51,51,110,1,fourtwo,,,,,,,,,,,,,,,,,,,,,,,,,,,,,,,,,,,,,,,,,,,,,,,,,,,,,,,,,,,,,,,,,,,,,,,,,,,,,,,,,,,,,,,,,,,,,,,,,,,,,,,,,,,,,,,,,,,,,,,,,,,,,,,,,,,,,,,,,,,,,,,,,,,,,,,,
,,,,,,6161bdbff67e4b4621b530e7,62bbfac37d44554892e31c9f,2022-06-29_09h14.04.856,Colour_Asymmetry_Pilot,2022.1.3,Win32,60.0024001,62bbe60bf3d75ef465d3e404,0,52,52,129,1,onethree,,,,,,,,,,,,,,,,,,,,,,,,,,,,,,,,,,,,,,,,,,,,,,,,,,,,,,,,,,,,,,,,,,,,,,,,,,,,,,,,,,,,,,,,,,,,,,,,,,,,,,,,,,,,,,,,,,,,,,,,,,,,,,,,,,,,,,,,,,,,,,,,,,,,,,,,
,,,,,,6161bdbff67e4b4621b530e7,62bbfac37d44554892e31c9f,2022-06-29_09h14.04.856,Colour_Asymmetry_Pilot,2022.1.3,Win32,60.0024001,62bbe60bf3d75ef465d3e404,0,53,53,113,1,onethree,,,,,,,,,,,,,,,,,,,,,,,,,,,,,,,,,,,,,,,,,,,,,,,,,,,,,,,,,,,,,,,,,,,,,,,,,,,,,,,,,,,,,,,,,,,,,,,,,,,,,,,,,,,,,,,,,,,,,,,,,,,,,,,,,,,,,,,,,,,,,,,,,,,,,,,,
,,,,,,6161bdbff67e4b4621b530e7,62bbfac37d44554892e31c9f,2022-06-29_09h14.04.856,Colour_Asymmetry_Pilot,2022.1.3,Win32,60.0024001,62bbe60bf3d75ef465d3e404,0,54,54,98,1,twoone,,,,,,,,,,,,,,,,,,,,,,,,,,,,,,,,,,,,,,,,,,,,,,,,,,,,,,,,,,,,,,,,,,,,,,,,,,,,,,,,,,,,,,,,,,,,,,,,,,,,,,,,,,,,,,,,,,,,,,,,,,,,,,,,,,,,,,,,,,,,,,,,,,,,,,,,
,,,,,,6161bdbff67e4b4621b530e7,62bbfac37d44554892e31c9f,2022-06-29_09h14.04.856,Colour_Asymmetry_Pilot,2022.1.3,Win32,60.0024001,62bbe60bf3d75ef465d3e404,0,55,55,40,1,onetwo,,,,,,,,,,,,,,,,,,,,,,,,,,,,,,,,,,,,,,,,,,,,,,,,,,,,,,,,,,,,,,,,,,,,,,,,,,,,,,,,,,,,,,,,,,,,,,,,,,,,,,,,,,,,,,,,,,,,,,,,,,,,,,,,,,,,,,,,,,,,,,,,,,,,,,,,
,,,,,,6161bdbff67e4b4621b530e7,62bbfac37d44554892e31c9f,2022-06-29_09h14.04.856,Colour_Asymmetry_Pilot,2022.1.3,Win32,60.0024001,62bbe60bf3d75ef465d3e404,0,56,56,24,1,onetwo,,,,,,,,,,,,,,,,,,,,,,,,,,,,,,,,,,,,,,,,,,,,,,,,,,,,,,,,,,,,,,,,,,,,,,,,,,,,,,,,,,,,,,,,,,,,,,,,,,,,,,,,,,,,,,,,,,,,,,,,,,,,,,,,,,,,,,,,,,,,,,,,,,,,,,,,
,,,,,,6161bdbff67e4b4621b530e7,62bbfac37d44554892e31c9f,2022-06-29_09h14.04.856,Colour_Asymmetry_Pilot,2022.1.3,Win32,60.0024001,62bbe60bf3d75ef465d3e404,0,57,57,156,1,threeone,,,,,,,,,,,,,,,,,,,,,,,,,,,,,,,,,,,,,,,,,,,,,,,,,,,,,,,,,,,,,,,,,,,,,,,,,,,,,,,,,,,,,,,,,,,,,,,,,,,,,,,,,,,,,,,,,,,,,,,,,,,,,,,,,,,,,,,,,,,,,,,,,,,,,,,,
,,,,,,6161bdbff67e4b4621b530e7,62bbfac37d44554892e31c9f,2022-06-29_09h14.04.856,Colour_Asymmetry_Pilot,2022.1.3,Win32,60.0024001,62bbe60bf3d75ef465d3e404,0,58,58,19,1,twofour,,,,,,,,,,,,,,,,,,,,,,,,,,,,,,,,,,,,,,,,,,,,,,,,,,,,,,,,,,,,,,,,,,,,,,,,,,,,,,,,,,,,,,,,,,,,,,,,,,,,,,,,,,,,,,,,,,,,,,,,,,,,,,,,,,,,,,,,,,,,,,,,,,,,,,,,
,,,,,,6161bdbff67e4b4621b530e7,62bbfac37d44554892e31c9f,2022-06-29_09h14.04.856,Colour_Asymmetry_Pilot,2022.1.3,Win32,60.0024001,62bbe60bf3d75ef465d3e404,0,59,59,102,1,fourtwo,,,,,,,,,,,,,,,,,,,,,,,,,,,,,,,,,,,,,,,,,,,,,,,,,,,,,,,,,,,,,,,,,,,,,,,,,,,,,,,,,,,,,,,,,,,,,,,,,,,,,,,,,,,,,,,,,,,,,,,,,,,,,,,,,,,,,,,,,,,,,,,,,,,,,,,,
,,,,,,6161bdbff67e4b4621b530e7,62bbfac37d44554892e31c9f,2022-06-29_09h14.04.856,Colour_Asymmetry_Pilot,2022.1.3,Win32,60.0024001,62bbe60bf3d75ef465d3e404,0,60,60,26,1,twoone,,,,,,,,,,,,,,,,,,,,,,,,,,,,,,,,,,,,,,,,,,,,,,,,,,,,,,,,,,,,,,,,,,,,,,,,,,,,,,,,,,,,,,,,,,,,,,,,,,,,,,,,,,,,,,,,,,,,,,,,,,,,,,,,,,,,,,,,,,,,,,,,,,,,,,,,
,,,,,,6161bdbff67e4b4621b530e7,62bbfac37d44554892e31c9f,2022-06-29_09h14.04.856,Colour_Asymmetry_Pilot,2022.1.3,Win32,60.0024001,62bbe60bf3d75ef465d3e404,0,61,61,73,1,onethree,,,,,,,,,,,,,,,,,,,,,,,,,,,,,,,,,,,,,,,,,,,,,,,,,,,,,,,,,,,,,,,,,,,,,,,,,,,,,,,,,,,,,,,,,,,,,,,,,,,,,,,,,,,,,,,,,,,,,,,,,,,,,,,,,,,,,,,,,,,,,,,,,,,,,,,,
,,,,,,6161bdbff67e4b4621b530e7,62bbfac37d44554892e31c9f,2022-06-29_09h14.04.856,Colour_Asymmetry_Pilot,2022.1.3,Win32,60.0024001,62bbe60bf3d75ef465d3e404,0,62,62,84,1,threeone,,,,,,,,,,,,,,,,,,,,,,,,,,,,,,,,,,,,,,,,,,,,,,,,,,,,,,,,,,,,,,,,,,,,,,,,,,,,,,,,,,,,,,,,,,,,,,,,,,,,,,,,,,,,,,,,,,,,,,,,,,,,,,,,,,,,,,,,,,,,,,,,,,,,,,,,
,,,,,,6161bdbff67e4b4621b530e7,62bbfac37d44554892e31c9f,2022-06-29_09h14.04.856,Colour_Asymmetry_Pilot,2022.1.3,Win32,60.0024001,62bbe60bf3d75ef465d3e404,0,63,63,77,1,threefour,,,,,,,,,,,,,,,,,,,,,,,,,,,,,,,,,,,,,,,,,,,,,,,,,,,,,,,,,,,,,,,,,,,,,,,,,,,,,,,,,,,,,,,,,,,,,,,,,,,,,,,,,,,,,,,,,,,,,,,,,,,,,,,,,,,,,,,,,,,,,,,,,,,,,,,,
,,,,,,6161bdbff67e4b4621b530e7,62bbfac37d44554892e31c9f,2022-06-29_09h14.04.856,Colour_Asymmetry_Pilot,2022.1.3,Win32,60.0024001,62bbe60bf3d75ef465d3e404,0,64,64,115,1,twofour,,,,,,,,,,,,,,,,,,,,,,,,,,,,,,,,,,,,,,,,,,,,,,,,,,,,,,,,,,,,,,,,,,,,,,,,,,,,,,,,,,,,,,,,,,,,,,,,,,,,,,,,,,,,,,,,,,,,,,,,,,,,,,,,,,,,,,,,,,,,,,,,,,,,,,,,
,,,,,,6161bdbff67e4b4621b530e7,62bbfac37d44554892e31c9f,2022-06-29_09h14.04.856,Colour_Asymmetry_Pilot,2022.1.3,Win32,60.0024001,62bbe60bf3d75ef465d3e404,0,65,65,155,1,twofour,,,,,,,,,,,,,,,,,,,,,,,,,,,,,,,,,,,,,,,,,,,,,,,,,,,,,,,,,,,,,,,,,,,,,,,,,,,,,,,,,,,,,,,,,,,,,,,,,,,,,,,,,,,,,,,,,,,,,,,,,,,,,,,,,,,,,,,,,,,,,,,,,,,,,,,,
,,,,,,6161bdbff67e4b4621b530e7,62bbfac37d44554892e31c9f,2022-06-29_09h14.04.856,Colour_Asymmetry_Pilot,2022.1.3,Win32,60.0024001,62bbe60bf3d75ef465d3e404,0,66,66,44,1,threeone,,,,,,,,,,,,,,,,,,,,,,,,,,,,,,,,,,,,,,,,,,,,,,,,,,,,,,,,,,,,,,,,,,,,,,,,,,,,,,,,,,,,,,,,,,,,,,,,,,,,,,,,,,,,,,,,,,,,,,,,,,,,,,,,,,,,,,,,,,,,,,,,,,,,,,,,
,,,,,,6161bdbff67e4b4621b530e7,62bbfac37d44554892e31c9f,2022-06-29_09h14.04.856,Colour_Asymmetry_Pilot,2022.1.3,Win32,60.0024001,62bbe60bf3d75ef465d3e404,0,67,67,161,1,onethree,,,,,,,,,,,,,,,,,,,,,,,,,,,,,,,,,,,,,,,,,,,,,,,,,,,,,,,,,,,,,,,,,,,,,,,,,,,,,,,,,,,,,,,,,,,,,,,,,,,,,,,,,,,,,,,,,,,,,,,,,,,,,,,,,,,,,,,,,,,,,,,,,,,,,,,,
,,,,,,6161bdbff67e4b4621b530e7,62bbfac37d44554892e31c9f,2022-06-29_09h14.04.856,Colour_Asymmetry_Pilot,2022.1.3,Win32,60.0024001,62bbe60bf3d75ef465d3e404,0,68,68,74,1,twoone,,,,,,,,,,,,,,,,,,,,,,,,,,,,,,,,,,,,,,,,,,,,,,,,,,,,,,,,,,,,,,,,,,,,,,,,,,,,,,,,,,,,,,,,,,,,,,,,,,,,,,,,,,,,,,,,,,,,,,,,,,,,,,,,,,,,,,,,,,,,,,,,,,,,,,,,
,,,,,,6161bdbff67e4b4621b530e7,62bbfac37d44554892e31c9f,2022-06-29_09h14.04.856,Colour_Asymmetry_Pilot,2022.1.3,Win32,60.0024001,62bbe60bf3d75ef465d3e404,0,69,69,52,1,threeone,,,,,,,,,,,,,,,,,,,,,,,,,,,,,,,,,,,,,,,,,,,,,,,,,,,,,,,,,,,,,,,,,,,,,,,,,,,,,,,,,,,,,,,,,,,,,,,,,,,,,,,,,,,,,,,,,,,,,,,,,,,,,,,,,,,,,,,,,,,,,,,,,,,,,,,,
,,,,,,6161bdbff67e4b4621b530e7,62bbfac37d44554892e31c9f,2022-06-29_09h14.04.856,Colour_Asymmetry_Pilot,2022.1.3,Win32,60.0024001,62bbe60bf3d75ef465d3e404,0,70,70,120,1,onetwo,,,,,,,,,,,,,,,,,,,,,,,,,,,,,,,,,,,,,,,,,,,,,,,,,,,,,,,,,,,,,,,,,,,,,,,,,,,,,,,,,,,,,,,,,,,,,,,,,,,,,,,,,,,,,,,,,,,,,,,,,,,,,,,,,,,,,,,,,,,,,,,,,,,,,,,,
,,,,,,6161bdbff67e4b4621b530e7,62bbfac37d44554892e31c9f,2022-06-29_09h14.04.856,Colour_Asymmetry_Pilot,2022.1.3,Win32,60.0024001,62bbe60bf3d75ef465d3e404,0,71,71,35,1,twofour,,,,,,,,,,,,,,,,,,,,,,,,,,,,,,,,,,,,,,,,,,,,,,,,,,,,,,,,,,,,,,,,,,,,,,,,,,,,,,,,,,,,,,,,,,,,,,,,,,,,,,,,,,,,,,,,,,,,,,,,,,,,,,,,,,,,,,,,,,,,,,,,,,,,,,,,
,,,,,,6161bdbff67e4b4621b530e7,62bbfac37d44554892e31c9f,2022-06-29_09h14.04.856,Colour_Asymmetry_Pilot,2022.1.3,Win32,60.0024001,62bbe60bf3d75ef465d3e404,0,72,72,16,1,onetwo,,,,,,,,,,,,,,,,,,,,,,,,,,,,,,,,,,,,,,,,,,,,,,,,,,,,,,,,,,,,,,,,,,,,,,,,,,,,,,,,,,,,,,,,,,,,,,,,,,,,,,,,,,,,,,,,,,,,,,,,,,,,,,,,,,,,,,,,,,,,,,,,,,,,,,,,
,,,,,,6161bdbff67e4b4621b530e7,62bbfac37d44554892e31c9f,2022-06-29_09h14.04.856,Colour_Asymmetry_Pilot,2022.1.3,Win32,60.0024001,62bbe60bf3d75ef465d3e404,0,73,73,136,1,onetwo,,,,,,,,,,,,,,,,,,,,,,,,,,,,,,,,,,,,,,,,,,,,,,,,,,,,,,,,,,,,,,,,,,,,,,,,,,,,,,,,,,,,,,,,,,,,,,,,,,,,,,,,,,,,,,,,,,,,,,,,,,,,,,,,,,,,,,,,,,,,,,,,,,,,,,,,
,,,,,,6161bdbff67e4b4621b530e7,62bbfac37d44554892e31c9f,2022-06-29_09h14.04.856,Colour_Asymmetry_Pilot,2022.1.3,Win32,60.0024001,62bbe60bf3d75ef465d3e404,0,74,74,100,1,threeone,,,,,,,,,,,,,,,,,,,,,,,,,,,,,,,,,,,,,,,,,,,,,,,,,,,,,,,,,,,,,,,,,,,,,,,,,,,,,,,,,,,,,,,,,,,,,,,,,,,,,,,,,,,,,,,,,,,,,,,,,,,,,,,,,,,,,,,,,,,,,,,,,,,,,,,,
,,,,,,6161bdbff67e4b4621b530e7,62bbfac37d44554892e31c9f,2022-06-29_09h14.04.856,Colour_Asymmetry_Pilot,2022.1.3,Win32,60.0024001,62bbe60bf3d75ef465d3e404,0,75,75,68,1,threeone,,,,,,,,,,,,,,,,,,,,,,,,,,,,,,,,,,,,,,,,,,,,,,,,,,,,,,,,,,,,,,,,,,,,,,,,,,,,,,,,,,,,,,,,,,,,,,,,,,,,,,,,,,,,,,,,,,,,,,,,,,,,,,,,,,,,,,,,,,,,,,,,,,,,,,,,
,,,,,,6161bdbff67e4b4621b530e7,62bbfac37d44554892e31c9f,2022-06-29_09h14.04.856,Colour_Asymmetry_Pilot,2022.1.3,Win32,60.0024001,62bbe60bf3d75ef465d3e404,0,76,76,152,1,onetwo,,,,,,,,,,,,,,,,,,,,,,,,,,,,,,,,,,,,,,,,,,,,,,,,,,,,,,,,,,,,,,,,,,,,,,,,,,,,,,,,,,,,,,,,,,,,,,,,,,,,,,,,,,,,,,,,,,,,,,,,,,,,,,,,,,,,,,,,,,,,,,,,,,,,,,,,
,,,,,,6161bdbff67e4b4621b530e7,62bbfac37d44554892e31c9f,2022-06-29_09h14.04.856,Colour_Asymmetry_Pilot,2022.1.3,Win32,60.0024001,62bbe60bf3d75ef465d3e404,0,77,77,147,1,twofour,,,,,,,,,,,,,,,,,,,,,,,,,,,,,,,,,,,,,,,,,,,,,,,,,,,,,,,,,,,,,,,,,,,,,,,,,,,,,,,,,,,,,,,,,,,,,,,,,,,,,,,,,,,,,,,,,,,,,,,,,,,,,,,,,,,,,,,,,,,,,,,,,,,,,,,,
,,,,,,6161bdbff67e4b4621b530e7,62bbfac37d44554892e31c9f,2022-06-29_09h14.04.856,Colour_Asymmetry_Pilot,2022.1.3,Win32,60.0024001,62bbe60bf3d75ef465d3e404,0,78,78,143,1,fourthree,,,,,,,,,,,,,,,,,,,,,,,,,,,,,,,,,,,,,,,,,,,,,,,,,,,,,,,,,,,,,,,,,,,,,,,,,,,,,,,,,,,,,,,,,,,,,,,,,,,,,,,,,,,,,,,,,,,,,,,,,,,,,,,,,,,,,,,,,,,,,,,,,,,,,,,,
,,,,,,6161bdbff67e4b4621b530e7,62bbfac37d44554892e31c9f,2022-06-29_09h14.04.856,Colour_Asymmetry_Pilot,2022.1.3,Win32,60.0024001,62bbe60bf3d75ef465d3e404,0,79,79,93,1,threefour,,,,,,,,,,,,,,,,,,,,,,,,,,,,,,,,,,,,,,,,,,,,,,,,,,,,,,,,,,,,,,,,,,,,,,,,,,,,,,,,,,,,,,,,,,,,,,,,,,,,,,,,,,,,,,,,,,,,,,,,,,,,,,,,,,,,,,,,,,,,,,,,,,,,,,,,
,,,,,,6161bdbff67e4b4621b530e7,62bbfac37d44554892e31c9f,2022-06-29_09h14.04.856,Colour_Asymmetry_Pilot,2022.1.3,Win32,60.0024001,62bbe60bf3d75ef465d3e404,0,80,80,7,1,fourthree,,,,,,,,,,,,,,,,,,,,,,,,,,,,,,,,,,,,,,,,,,,,,,,,,,,,,,,,,,,,,,,,,,,,,,,,,,,,,,,,,,,,,,,,,,,,,,,,,,,,,,,,,,,,,,,,,,,,,,,,,,,,,,,,,,,,,,,,,,,,,,,,,,,,,,,,
,,,,,,6161bdbff67e4b4621b530e7,62bbfac37d44554892e31c9f,2022-06-29_09h14.04.856,Colour_Asymmetry_Pilot,2022.1.3,Win32,60.0024001,62bbe60bf3d75ef465d3e404,0,81,81,65,1,onethree,,,,,,,,,,,,,,,,,,,,,,,,,,,,,,,,,,,,,,,,,,,,,,,,,,,,,,,,,,,,,,,,,,,,,,,,,,,,,,,,,,,,,,,,,,,,,,,,,,,,,,,,,,,,,,,,,,,,,,,,,,,,,,,,,,,,,,,,,,,,,,,,,,,,,,,,
,,,,,,6161bdbff67e4b4621b530e7,62bbfac37d44554892e31c9f,2022-06-29_09h14.04.856,Colour_Asymmetry_Pilot,2022.1.3,Win32,60.0024001,62bbe60bf3d75ef465d3e404,0,82,82,160,1,onetwo,,,,,,,,,,,,,,,,,,,,,,,,,,,,,,,,,,,,,,,,,,,,,,,,,,,,,,,,,,,,,,,,,,,,,,,,,,,,,,,,,,,,,,,,,,,,,,,,,,,,,,,,,,,,,,,,,,,,,,,,,,,,,,,,,,,,,,,,,,,,,,,,,,,,,,,,
,,,,,,6161bdbff67e4b4621b530e7,62bbfac37d44554892e31c9f,2022-06-29_09h14.04.856,Colour_Asymmetry_Pilot,2022.1.3,Win32,60.0024001,62bbe60bf3d75ef465d3e404,0,83,83,13,1,threefour,,,,,,,,,,,,,,,,,,,,,,,,,,,,,,,,,,,,,,,,,,,,,,,,,,,,,,,,,,,,,,,,,,,,,,,,,,,,,,,,,,,,,,,,,,,,,,,,,,,,,,,,,,,,,,,,,,,,,,,,,,,,,,,,,,,,,,,,,,,,,,,,,,,,,,,,
,,,,,,6161bdbff67e4b4621b530e7,62bbfac37d44554892e31c9f,2022-06-29_09h14.04.856,Colour_Asymmetry_Pilot,2022.1.3,Win32,60.0024001,62bbe60bf3d75ef465d3e404,0,84,84,151,1,fourthree,,,,,,,,,,,,,,,,,,,,,,,,,,,,,,,,,,,,,,,,,,,,,,,,,,,,,,,,,,,,,,,,,,,,,,,,,,,,,,,,,,,,,,,,,,,,,,,,,,,,,,,,,,,,,,,,,,,,,,,,,,,,,,,,,,,,,,,,,,,,,,,,,,,,,,,,
,,,,,,6161bdbff67e4b4621b530e7,62bbfac37d44554892e31c9f,2022-06-29_09h14.04.856,Colour_Asymmetry_Pilot,2022.1.3,Win32,60.0024001,62bbe60bf3d75ef465d3e404,0,85,85,126,1,fourtwo,,,,,,,,,,,,,,,,,,,,,,,,,,,,,,,,,,,,,,,,,,,,,,,,,,,,,,,,,,,,,,,,,,,,,,,,,,,,,,,,,,,,,,,,,,,,,,,,,,,,,,,,,,,,,,,,,,,,,,,,,,,,,,,,,,,,,,,,,,,,,,,,,,,,,,,,
,,,,,,6161bdbff67e4b4621b530e7,62bbfac37d44554892e31c9f,2022-06-29_09h14.04.856,Colour_Asymmetry_Pilot,2022.1.3,Win32,60.0024001,62bbe60bf3d75ef465d3e404,0,86,86,51,1,twofour,,,,,,,,,,,,,,,,,,,,,,,,,,,,,,,,,,,,,,,,,,,,,,,,,,,,,,,,,,,,,,,,,,,,,,,,,,,,,,,,,,,,,,,,,,,,,,,,,,,,,,,,,,,,,,,,,,,,,,,,,,,,,,,,,,,,,,,,,,,,,,,,,,,,,,,,
,,,,,,6161bdbff67e4b4621b530e7,62bbfac37d44554892e31c9f,2022-06-29_09h14.04.856,Colour_Asymmetry_Pilot,2022.1.3,Win32,60.0024001,62bbe60bf3d75ef465d3e404,0,87,87,21,1,threefour,,,,,,,,,,,,,,,,,,,,,,,,,,,,,,,,,,,,,,,,,,,,,,,,,,,,,,,,,,,,,,,,,,,,,,,,,,,,,,,,,,,,,,,,,,,,,,,,,,,,,,,,,,,,,,,,,,,,,,,,,,,,,,,,,,,,,,,,,,,,,,,,,,,,,,,,
,,,,,,6161bdbff67e4b4621b530e7,62bbfac37d44554892e31c9f,2022-06-29_09h14.04.856,Colour_Asymmetry_Pilot,2022.1.3,Win32,60.0024001,62bbe60bf3d75ef465d3e404,0,88,88,127,1,fourthree,,,,,,,,,,,,,,,,,,,,,,,,,,,,,,,,,,,,,,,,,,,,,,,,,,,,,,,,,,,,,,,,,,,,,,,,,,,,,,,,,,,,,,,,,,,,,,,,,,,,,,,,,,,,,,,,,,,,,,,,,,,,,,,,,,,,,,,,,,,,,,,,,,,,,,,,
,,,,,,6161bdbff67e4b4621b530e7,62bbfac37d44554892e31c9f,2022-06-29_09h14.04.856,Colour_Asymmetry_Pilot,2022.1.3,Win32,60.0024001,62bbe60bf3d75ef465d3e404,0,89,89,6,1,fourtwo,,,,,,,,,,,,,,,,,,,,,,,,,,,,,,,,,,,,,,,,,,,,,,,,,,,,,,,,,,,,,,,,,,,,,,,,,,,,,,,,,,,,,,,,,,,,,,,,,,,,,,,,,,,,,,,,,,,,,,,,,,,,,,,,,,,,,,,,,,,,,,,,,,,,,,,,
,,,,,,6161bdbff67e4b4621b530e7,62bbfac37d44554892e31c9f,2022-06-29_09h14.04.856,Colour_Asymmetry_Pilot,2022.1.3,Win32,60.0024001,62bbe60bf3d75ef465d3e404,0,90,90,71,1,fourthree,,,,,,,,,,,,,,,,,,,,,,,,,,,,,,,,,,,,,,,,,,,,,,,,,,,,,,,,,,,,,,,,,,,,,,,,,,,,,,,,,,,,,,,,,,,,,,,,,,,,,,,,,,,,,,,,,,,,,,,,,,,,,,,,,,,,,,,,,,,,,,,,,,,,,,,,
,,,,,,6161bdbff67e4b4621b530e7,62bbfac37d44554892e31c9f,2022-06-29_09h14.04.856,Colour_Asymmetry_Pilot,2022.1.3,Win32,60.0024001,62bbe60bf3d75ef465d3e404,0,91,91,92,1,threeone,,,,,,,,,,,,,,,,,,,,,,,,,,,,,,,,,,,,,,,,,,,,,,,,,,,,,,,,,,,,,,,,,,,,,,,,,,,,,,,,,,,,,,,,,,,,,,,,,,,,,,,,,,,,,,,,,,,,,,,,,,,,,,,,,,,,,,,,,,,,,,,,,,,,,,,,
,,,,,,6161bdbff67e4b4621b530e7,62bbfac37d44554892e31c9f,2022-06-29_09h14.04.856,Colour_Asymmetry_Pilot,2022.1.3,Win32,60.0024001,62bbe60bf3d75ef465d3e404,0,92,92,153,1,onethree,,,,,,,,,,,,,,,,,,,,,,,,,,,,,,,,,,,,,,,,,,,,,,,,,,,,,,,,,,,,,,,,,,,,,,,,,,,,,,,,,,,,,,,,,,,,,,,,,,,,,,,,,,,,,,,,,,,,,,,,,,,,,,,,,,,,,,,,,,,,,,,,,,,,,,,,
,,,,,,6161bdbff67e4b4621b530e7,62bbfac37d44554892e31c9f,2022-06-29_09h14.04.856,Colour_Asymmetry_Pilot,2022.1.3,Win32,60.0024001,62bbe60bf3d75ef465d3e404,0,93,93,14,1,fourtwo,,,,,,,,,,,,,,,,,,,,,,,,,,,,,,,,,,,,,,,,,,,,,,,,,,,,,,,,,,,,,,,,,,,,,,,,,,,,,,,,,,,,,,,,,,,,,,,,,,,,,,,,,,,,,,,,,,,,,,,,,,,,,,,,,,,,,,,,,,,,,,,,,,,,,,,,
,,,,,,6161bdbff67e4b4621b530e7,62bbfac37d44554892e31c9f,2022-06-29_09h14.04.856,Colour_Asymmetry_Pilot,2022.1.3,Win32,60.0024001,62bbe60bf3d75ef465d3e404,0,94,94,58,1,twoone,,,,,,,,,,,,,,,,,,,,,,,,,,,,,,,,,,,,,,,,,,,,,,,,,,,,,,,,,,,,,,,,,,,,,,,,,,,,,,,,,,,,,,,,,,,,,,,,,,,,,,,,,,,,,,,,,,,,,,,,,,,,,,,,,,,,,,,,,,,,,,,,,,,,,,,,
,,,,,,6161bdbff67e4b4621b530e7,62bbfac37d44554892e31c9f,2022-06-29_09h14.04.856,Colour_Asymmetry_Pilot,2022.1.3,Win32,60.0024001,62bbe60bf3d75ef465d3e404,0,95,95,54,1,fourtwo,,,,,,,,,,,,,,,,,,,,,,,,,,,,,,,,,,,,,,,,,,,,,,,,,,,,,,,,,,,,,,,,,,,,,,,,,,,,,,,,,,,,,,,,,,,,,,,,,,,,,,,,,,,,,,,,,,,,,,,,,,,,,,,,,,,,,,,,,,,,,,,,,,,,,,,,
,,,,,,6161bdbff67e4b4621b530e7,62bbfac37d44554892e31c9f,2022-06-29_09h14.04.856,Colour_Asymmetry_Pilot,2022.1.3,Win32,60.0024001,62bbe60bf3d75ef465d3e404,0,96,96,95,1,fourthree,,,,,,,,,,,,,,,,,,,,,,,,,,,,,,,,,,,,,,,,,,,,,,,,,,,,,,,,,,,,,,,,,,,,,,,,,,,,,,,,,,,,,,,,,,,,,,,,,,,,,,,,,,,,,,,,,,,,,,,,,,,,,,,,,,,,,,,,,,,,,,,,,,,,,,,,
,,,,,,6161bdbff67e4b4621b530e7,62bbfac37d44554892e31c9f,2022-06-29_09h14.04.856,Colour_Asymmetry_Pilot,2022.1.3,Win32,60.0024001,62bbe60bf3d75ef465d3e404,0,97,97,96,1,onetwo,,,,,,,,,,,,,,,,,,,,,,,,,,,,,,,,,,,,,,,,,,,,,,,,,,,,,,,,,,,,,,,,,,,,,,,,,,,,,,,,,,,,,,,,,,,,,,,,,,,,,,,,,,,,,,,,,,,,,,,,,,,,,,,,,,,,,,,,,,,,,,,,,,,,,,,,
,,,,,,6161bdbff67e4b4621b530e7,62bbfac37d44554892e31c9f,2022-06-29_09h14.04.856,Colour_Asymmetry_Pilot,2022.1.3,Win32,60.0024001,62bbe60bf3d75ef465d3e404,0,98,98,81,1,onethree,,,,,,,,,,,,,,,,,,,,,,,,,,,,,,,,,,,,,,,,,,,,,,,,,,,,,,,,,,,,,,,,,,,,,,,,,,,,,,,,,,,,,,,,,,,,,,,,,,,,,,,,,,,,,,,,,,,,,,,,,,,,,,,,,,,,,,,,,,,,,,,,,,,,,,,,
,,,,,,6161bdbff67e4b4621b530e7,62bbfac37d44554892e31c9f,2022-06-29_09h14.04.856,Colour_Asymmetry_Pilot,2022.1.3,Win32,60.0024001,62bbe60bf3d75ef465d3e404,0,99,99,42,1,twoone,,,,,,,,,,,,,,,,,,,,,,,,,,,,,,,,,,,,,,,,,,,,,,,,,,,,,,,,,,,,,,,,,,,,,,,,,,,,,,,,,,,,,,,,,,,,,,,,,,,,,,,,,,,,,,,,,,,,,,,,,,,,,,,,,,,,,,,,,,,,,,,,,,,,,,,,
,,,,,,6161bdbff67e4b4621b530e7,62bbfac37d44554892e31c9f,2022-06-29_09h14.04.856,Colour_Asymmetry_Pilot,2022.1.3,Win32,60.0024001,62bbe60bf3d75ef465d3e404,0,100,100,83,1,twofour,,,,,,,,,,,,,,,,,,,,,,,,,,,,,,,,,,,,,,,,,,,,,,,,,,,,,,,,,,,,,,,,,,,,,,,,,,,,,,,,,,,,,,,,,,,,,,,,,,,,,,,,,,,,,,,,,,,,,,,,,,,,,,,,,,,,,,,,,,,,,,,,,,,,,,,,
,,,,,,6161bdbff67e4b4621b530e7,62bbfac37d44554892e31c9f,2022-06-29_09h14.04.856,Colour_Asymmetry_Pilot,2022.1.3,Win32,60.0024001,62bbe60bf3d75ef465d3e404,0,101,101,11,1,twofour,,,,,,,,,,,,,,,,,,,,,,,,,,,,,,,,,,,,,,,,,,,,,,,,,,,,,,,,,,,,,,,,,,,,,,,,,,,,,,,,,,,,,,,,,,,,,,,,,,,,,,,,,,,,,,,,,,,,,,,,,,,,,,,,,,,,,,,,,,,,,,,,,,,,,,,,
,,,,,,6161bdbff67e4b4621b530e7,62bbfac37d44554892e31c9f,2022-06-29_09h14.04.856,Colour_Asymmetry_Pilot,2022.1.3,Win32,60.0024001,62bbe60bf3d75ef465d3e404,0,102,102,76,1,threeone,,,,,,,,,,,,,,,,,,,,,,,,,,,,,,,,,,,,,,,,,,,,,,,,,,,,,,,,,,,,,,,,,,,,,,,,,,,,,,,,,,,,,,,,,,,,,,,,,,,,,,,,,,,,,,,,,,,,,,,,,,,,,,,,,,,,,,,,,,,,,,,,,,,,,,,,
,,,,,,6161bdbff67e4b4621b530e7,62bbfac37d44554892e31c9f,2022-06-29_09h14.04.856,Colour_Asymmetry_Pilot,2022.1.3,Win32,60.0024001,62bbe60bf3d75ef465d3e404,0,103,103,123,1,twofour,,,,,,,,,,,,,,,,,,,,,,,,,,,,,,,,,,,,,,,,,,,,,,,,,,,,,,,,,,,,,,,,,,,,,,,,,,,,,,,,,,,,,,,,,,,,,,,,,,,,,,,,,,,,,,,,,,,,,,,,,,,,,,,,,,,,,,,,,,,,,,,,,,,,,,,,
,,,,,,6161bdbff67e4b4621b530e7,62bbfac37d44554892e31c9f,2022-06-29_09h14.04.856,Colour_Asymmetry_Pilot,2022.1.3,Win32,60.0024001,62bbe60bf3d75ef465d3e404,0,104,104,90,1,twoone,,,,,,,,,,,,,,,,,,,,,,,,,,,,,,,,,,,,,,,,,,,,,,,,,,,,,,,,,,,,,,,,,,,,,,,,,,,,,,,,,,,,,,,,,,,,,,,,,,,,,,,,,,,,,,,,,,,,,,,,,,,,,,,,,,,,,,,,,,,,,,,,,,,,,,,,
,,,,,,6161bdbff67e4b4621b530e7,62bbfac37d44554892e31c9f,2022-06-29_09h14.04.856,Colour_Asymmetry_Pilot,2022.1.3,Win32,60.0024001,62bbe60bf3d75ef465d3e404,0,105,105,87,1,fourthree,,,,,,,,,,,,,,,,,,,,,,,,,,,,,,,,,,,,,,,,,,,,,,,,,,,,,,,,,,,,,,,,,,,,,,,,,,,,,,,,,,,,,,,,,,,,,,,,,,,,,,,,,,,,,,,,,,,,,,,,,,,,,,,,,,,,,,,,,,,,,,,,,,,,,,,,
,,,,,,6161bdbff67e4b4621b530e7,62bbfac37d44554892e31c9f,2022-06-29_09h14.04.856,Colour_Asymmetry_Pilot,2022.1.3,Win32,60.0024001,62bbe60bf3d75ef465d3e404,0,106,106,67,1,twofour,,,,,,,,,,,,,,,,,,,,,,,,,,,,,,,,,,,,,,,,,,,,,,,,,,,,,,,,,,,,,,,,,,,,,,,,,,,,,,,,,,,,,,,,,,,,,,,,,,,,,,,,,,,,,,,,,,,,,,,,,,,,,,,,,,,,,,,,,,,,,,,,,,,,,,,,
,,,,,,6161bdbff67e4b4621b530e7,62bbfac37d44554892e31c9f,2022-06-29_09h14.04.856,Colour_Asymmetry_Pilot,2022.1.3,Win32,60.0024001,62bbe60bf3d75ef465d3e404,0,107,107,101,1,threefour,,,,,,,,,,,,,,,,,,,,,,,,,,,,,,,,,,,,,,,,,,,,,,,,,,,,,,,,,,,,,,,,,,,,,,,,,,,,,,,,,,,,,,,,,,,,,,,,,,,,,,,,,,,,,,,,,,,,,,,,,,,,,,,,,,,,,,,,,,,,,,,,,,,,,,,,
,,,,,,6161bdbff67e4b4621b530e7,62bbfac37d44554892e31c9f,2022-06-29_09h14.04.856,Colour_Asymmetry_Pilot,2022.1.3,Win32,60.0024001,62bbe60bf3d75ef465d3e404,0,108,108,131,1,twofour,,,,,,,,,,,,,,,,,,,,,,,,,,,,,,,,,,,,,,,,,,,,,,,,,,,,,,,,,,,,,,,,,,,,,,,,,,,,,,,,,,,,,,,,,,,,,,,,,,,,,,,,,,,,,,,,,,,,,,,,,,,,,,,,,,,,,,,,,,,,,,,,,,,,,,,,
,,,,,,6161bdbff67e4b4621b530e7,62bbfac37d44554892e31c9f,2022-06-29_09h14.04.856,Colour_Asymmetry_Pilot,2022.1.3,Win32,60.0024001,62bbe60bf3d75ef465d3e404,0,109,109,139,1,twofour,,,,,,,,,,,,,,,,,,,,,,,,,,,,,,,,,,,,,,,,,,,,,,,,,,,,,,,,,,,,,,,,,,,,,,,,,,,,,,,,,,,,,,,,,,,,,,,,,,,,,,,,,,,,,,,,,,,,,,,,,,,,,,,,,,,,,,,,,,,,,,,,,,,,,,,,
,,,,,,6161bdbff67e4b4621b530e7,62bbfac37d44554892e31c9f,2022-06-29_09h14.04.856,Colour_Asymmetry_Pilot,2022.1.3,Win32,60.0024001,62bbe60bf3d75ef465d3e404,0,110,110,55,1,fourthree,,,,,,,,,,,,,,,,,,,,,,,,,,,,,,,,,,,,,,,,,,,,,,,,,,,,,,,,,,,,,,,,,,,,,,,,,,,,,,,,,,,,,,,,,,,,,,,,,,,,,,,,,,,,,,,,,,,,,,,,,,,,,,,,,,,,,,,,,,,,,,,,,,,,,,,,
,,,,,,6161bdbff67e4b4621b530e7,62bbfac37d44554892e31c9f,2022-06-29_09h14.04.856,Colour_Asymmetry_Pilot,2022.1.3,Win32,60.0024001,62bbe60bf3d75ef465d3e404,0,111,111,47,1,fourthree,,,,,,,,,,,,,,,,,,,,,,,,,,,,,,,,,,,,,,,,,,,,,,,,,,,,,,,,,,,,,,,,,,,,,,,,,,,,,,,,,,,,,,,,,,,,,,,,,,,,,,,,,,,,,,,,,,,,,,,,,,,,,,,,,,,,,,,,,,,,,,,,,,,,,,,,
,,,,,,6161bdbff67e4b4621b530e7,62bbfac37d44554892e31c9f,2022-06-29_09h14.04.856,Colour_Asymmetry_Pilot,2022.1.3,Win32,60.0024001,62bbe60bf3d75ef465d3e404,0,112,112,64,1,onetwo,,,,,,,,,,,,,,,,,,,,,,,,,,,,,,,,,,,,,,,,,,,,,,,,,,,,,,,,,,,,,,,,,,,,,,,,,,,,,,,,,,,,,,,,,,,,,,,,,,,,,,,,,,,,,,,,,,,,,,,,,,,,,,,,,,,,,,,,,,,,,,,,,,,,,,,,
,,,,,,6161bdbff67e4b4621b530e7,62bbfac37d44554892e31c9f,2022-06-29_09h14.04.856,Colour_Asymmetry_Pilot,2022.1.3,Win32,60.0024001,62bbe60bf3d75ef465d3e404,0,113,113,50,1,twoone,,,,,,,,,,,,,,,,,,,,,,,,,,,,,,,,,,,,,,,,,,,,,,,,,,,,,,,,,,,,,,,,,,,,,,,,,,,,,,,,,,,,,,,,,,,,,,,,,,,,,,,,,,,,,,,,,,,,,,,,,,,,,,,,,,,,,,,,,,,,,,,,,,,,,,,,
,,,,,,6161bdbff67e4b4621b530e7,62bbfac37d44554892e31c9f,2022-06-29_09h14.04.856,Colour_Asymmetry_Pilot,2022.1.3,Win32,60.0024001,62bbe60bf3d75ef465d3e404,0,114,114,38,1,fourtwo,,,,,,,,,,,,,,,,,,,,,,,,,,,,,,,,,,,,,,,,,,,,,,,,,,,,,,,,,,,,,,,,,,,,,,,,,,,,,,,,,,,,,,,,,,,,,,,,,,,,,,,,,,,,,,,,,,,,,,,,,,,,,,,,,,,,,,,,,,,,,,,,,,,,,,,,
,,,,,,6161bdbff67e4b4621b530e7,62bbfac37d44554892e31c9f,2022-06-29_09h14.04.856,Colour_Asymmetry_Pilot,2022.1.3,Win32,60.0024001,62bbe60bf3d75ef465d3e404,0,115,115,70,1,fourtwo,,,,,,,,,,,,,,,,,,,,,,,,,,,,,,,,,,,,,,,,,,,,,,,,,,,,,,,,,,,,,,,,,,,,,,,,,,,,,,,,,,,,,,,,,,,,,,,,,,,,,,,,,,,,,,,,,,,,,,,,,,,,,,,,,,,,,,,,,,,,,,,,,,,,,,,,
,,,,,,6161bdbff67e4b4621b530e7,62bbfac37d44554892e31c9f,2022-06-29_09h14.04.856,Colour_Asymmetry_Pilot,2022.1.3,Win32,60.0024001,62bbe60bf3d75ef465d3e404,0,116,116,33,1,onethree,,,,,,,,,,,,,,,,,,,,,,,,,,,,,,,,,,,,,,,,,,,,,,,,,,,,,,,,,,,,,,,,,,,,,,,,,,,,,,,,,,,,,,,,,,,,,,,,,,,,,,,,,,,,,,,,,,,,,,,,,,,,,,,,,,,,,,,,,,,,,,,,,,,,,,,,
,,,,,,6161bdbff67e4b4621b530e7,62bbfac37d44554892e31c9f,2022-06-29_09h14.04.856,Colour_Asymmetry_Pilot,2022.1.3,Win32,60.0024001,62bbe60bf3d75ef465d3e404,0,117,117,1,1,onethree,,,,,,,,,,,,,,,,,,,,,,,,,,,,,,,,,,,,,,,,,,,,,,,,,,,,,,,,,,,,,,,,,,,,,,,,,,,,,,,,,,,,,,,,,,,,,,,,,,,,,,,,,,,,,,,,,,,,,,,,,,,,,,,,,,,,,,,,,,,,,,,,,,,,,,,,
,,,,,,6161bdbff67e4b4621b530e7,62bbfac37d44554892e31c9f,2022-06-29_09h14.04.856,Colour_Asymmetry_Pilot,2022.1.3,Win32,60.0024001,62bbe60bf3d75ef465d3e404,0,118,118,49,1,onethree,,,,,,,,,,,,,,,,,,,,,,,,,,,,,,,,,,,,,,,,,,,,,,,,,,,,,,,,,,,,,,,,,,,,,,,,,,,,,,,,,,,,,,,,,,,,,,,,,,,,,,,,,,,,,,,,,,,,,,,,,,,,,,,,,,,,,,,,,,,,,,,,,,,,,,,,
,,,,,,6161bdbff67e4b4621b530e7,62bbfac37d44554892e31c9f,2022-06-29_09h14.04.856,Colour_Asymmetry_Pilot,2022.1.3,Win32,60.0024001,62bbe60bf3d75ef465d3e404,0,119,119,37,1,threefour,,,,,,,,,,,,,,,,,,,,,,,,,,,,,,,,,,,,,,,,,,,,,,,,,,,,,,,,,,,,,,,,,,,,,,,,,,,,,,,,,,,,,,,,,,,,,,,,,,,,,,,,,,,,,,,,,,,,,,,,,,,,,,,,,,,,,,,,,,,,,,,,,,,,,,,,
,,,,,,6161bdbff67e4b4621b530e7,62bbfac37d44554892e31c9f,2022-06-29_09h14.04.856,Colour_Asymmetry_Pilot,2022.1.3,Win32,60.0024001,62bbe60bf3d75ef465d3e404,0,120,120,62,1,fourtwo,,,,,,,,,,,,,,,,,,,,,,,,,,,,,,,,,,,,,,,,,,,,,,,,,,,,,,,,,,,,,,,,,,,,,,,,,,,,,,,,,,,,,,,,,,,,,,,,,,,,,,,,,,,,,,,,,,,,,,,,,,,,,,,,,,,,,,,,,,,,,,,,,,,,,,,,
,,,,,,6161bdbff67e4b4621b530e7,62bbfac37d44554892e31c9f,2022-06-29_09h14.04.856,Colour_Asymmetry_Pilot,2022.1.3,Win32,60.0024001,62bbe60bf3d75ef465d3e404,0,121,121,117,1,threefour,,,,,,,,,,,,,,,,,,,,,,,,,,,,,,,,,,,,,,,,,,,,,,,,,,,,,,,,,,,,,,,,,,,,,,,,,,,,,,,,,,,,,,,,,,,,,,,,,,,,,,,,,,,,,,,,,,,,,,,,,,,,,,,,,,,,,,,,,,,,,,,,,,,,,,,,
,,,,,,6161bdbff67e4b4621b530e7,62bbfac37d44554892e31c9f,2022-06-29_09h14.04.856,Colour_Asymmetry_Pilot,2022.1.3,Win32,60.0024001,62bbe60bf3d75ef465d3e404,0,122,122,114,1,twoone,,,,,,,,,,,,,,,,,,,,,,,,,,,,,,,,,,,,,,,,,,,,,,,,,,,,,,,,,,,,,,,,,,,,,,,,,,,,,,,,,,,,,,,,,,,,,,,,,,,,,,,,,,,,,,,,,,,,,,,,,,,,,,,,,,,,,,,,,,,,,,,,,,,,,,,,
,,,,,,6161bdbff67e4b4621b530e7,62bbfac37d44554892e31c9f,2022-06-29_09h14.04.856,Colour_Asymmetry_Pilot,2022.1.3,Win32,60.0024001,62bbe60bf3d75ef465d3e404,0,123,123,146,1,twoone,,,,,,,,,,,,,,,,,,,,,,,,,,,,,,,,,,,,,,,,,,,,,,,,,,,,,,,,,,,,,,,,,,,,,,,,,,,,,,,,,,,,,,,,,,,,,,,,,,,,,,,,,,,,,,,,,,,,,,,,,,,,,,,,,,,,,,,,,,,,,,,,,,,,,,,,
,,,,,,6161bdbff67e4b4621b530e7,62bbfac37d44554892e31c9f,2022-06-29_09h14.04.856,Colour_Asymmetry_Pilot,2022.1.3,Win32,60.0024001,62bbe60bf3d75ef465d3e404,0,124,124,140,1,threeone,,,,,,,,,,,,,,,,,,,,,,,,,,,,,,,,,,,,,,,,,,,,,,,,,,,,,,,,,,,,,,,,,,,,,,,,,,,,,,,,,,,,,,,,,,,,,,,,,,,,,,,,,,,,,,,,,,,,,,,,,,,,,,,,,,,,,,,,,,,,,,,,,,,,,,,,
,,,,,,6161bdbff67e4b4621b530e7,62bbfac37d44554892e31c9f,2022-06-29_09h14.04.856,Colour_Asymmetry_Pilot,2022.1.3,Win32,60.0024001,62bbe60bf3d75ef465d3e404,0,125,125,59,1,twofour,,,,,,,,,,,,,,,,,,,,,,,,,,,,,,,,,,,,,,,,,,,,,,,,,,,,,,,,,,,,,,,,,,,,,,,,,,,,,,,,,,,,,,,,,,,,,,,,,,,,,,,,,,,,,,,,,,,,,,,,,,,,,,,,,,,,,,,,,,,,,,,,,,,,,,,,
,,,,,,6161bdbff67e4b4621b530e7,62bbfac37d44554892e31c9f,2022-06-29_09h14.04.856,Colour_Asymmetry_Pilot,2022.1.3,Win32,60.0024001,62bbe60bf3d75ef465d3e404,0,126,126,125,1,threefour,,,,,,,,,,,,,,,,,,,,,,,,,,,,,,,,,,,,,,,,,,,,,,,,,,,,,,,,,,,,,,,,,,,,,,,,,,,,,,,,,,,,,,,,,,,,,,,,,,,,,,,,,,,,,,,,,,,,,,,,,,,,,,,,,,,,,,,,,,,,,,,,,,,,,,,,
,,,,,,6161bdbff67e4b4621b530e7,62bbfac37d44554892e31c9f,2022-06-29_09h14.04.856,Colour_Asymmetry_Pilot,2022.1.3,Win32,60.0024001,62bbe60bf3d75ef465d3e404,0,127,127,28,1,threeone,,,,,,,,,,,,,,,,,,,,,,,,,,,,,,,,,,,,,,,,,,,,,,,,,,,,,,,,,,,,,,,,,,,,,,,,,,,,,,,,,,,,,,,,,,,,,,,,,,,,,,,,,,,,,,,,,,,,,,,,,,,,,,,,,,,,,,,,,,,,,,,,,,,,,,,,
,,,,,,6161bdbff67e4b4621b530e7,62bbfac37d44554892e31c9f,2022-06-29_09h14.04.856,Colour_Asymmetry_Pilot,2022.1.3,Win32,60.0024001,62bbe60bf3d75ef465d3e404,0,128,128,61,1,threefour,,,,,,,,,,,,,,,,,,,,,,,,,,,,,,,,,,,,,,,,,,,,,,,,,,,,,,,,,,,,,,,,,,,,,,,,,,,,,,,,,,,,,,,,,,,,,,,,,,,,,,,,,,,,,,,,,,,,,,,,,,,,,,,,,,,,,,,,,,,,,,,,,,,,,,,,
,,,,,,6161bdbff67e4b4621b530e7,62bbfac37d44554892e31c9f,2022-06-29_09h14.04.856,Colour_Asymmetry_Pilot,2022.1.3,Win32,60.0024001,62bbe60bf3d75ef465d3e404,0,129,129,159,1,fourthree,,,,,,,,,,,,,,,,,,,,,,,,,,,,,,,,,,,,,,,,,,,,,,,,,,,,,,,,,,,,,,,,,,,,,,,,,,,,,,,,,,,,,,,,,,,,,,,,,,,,,,,,,,,,,,,,,,,,,,,,,,,,,,,,,,,,,,,,,,,,,,,,,,,,,,,,
,,,,,,6161bdbff67e4b4621b530e7,62bbfac37d44554892e31c9f,2022-06-29_09h14.04.856,Colour_Asymmetry_Pilot,2022.1.3,Win32,60.0024001,62bbe60bf3d75ef465d3e404,0,130,130,30,1,fourtwo,,,,,,,,,,,,,,,,,,,,,,,,,,,,,,,,,,,,,,,,,,,,,,,,,,,,,,,,,,,,,,,,,,,,,,,,,,,,,,,,,,,,,,,,,,,,,,,,,,,,,,,,,,,,,,,,,,,,,,,,,,,,,,,,,,,,,,,,,,,,,,,,,,,,,,,,
,,,,,,6161bdbff67e4b4621b530e7,62bbfac37d44554892e31c9f,2022-06-29_09h14.04.856,Colour_Asymmetry_Pilot,2022.1.3,Win32,60.0024001,62bbe60bf3d75ef465d3e404,0,131,131,34,1,twoone,,,,,,,,,,,,,,,,,,,,,,,,,,,,,,,,,,,,,,,,,,,,,,,,,,,,,,,,,,,,,,,,,,,,,,,,,,,,,,,,,,,,,,,,,,,,,,,,,,,,,,,,,,,,,,,,,,,,,,,,,,,,,,,,,,,,,,,,,,,,,,,,,,,,,,,,
,,,,,,6161bdbff67e4b4621b530e7,62bbfac37d44554892e31c9f,2022-06-29_09h14.04.856,Colour_Asymmetry_Pilot,2022.1.3,Win32,60.0024001,62bbe60bf3d75ef465d3e404,0,132,132,133,1,threefour,,,,,,,,,,,,,,,,,,,,,,,,,,,,,,,,,,,,,,,,,,,,,,,,,,,,,,,,,,,,,,,,,,,,,,,,,,,,,,,,,,,,,,,,,,,,,,,,,,,,,,,,,,,,,,,,,,,,,,,,,,,,,,,,,,,,,,,,,,,,,,,,,,,,,,,,
,,,,,,6161bdbff67e4b4621b530e7,62bbfac37d44554892e31c9f,2022-06-29_09h14.04.856,Colour_Asymmetry_Pilot,2022.1.3,Win32,60.0024001,62bbe60bf3d75ef465d3e404,0,133,133,15,1,fourthree,,,,,,,,,,,,,,,,,,,,,,,,,,,,,,,,,,,,,,,,,,,,,,,,,,,,,,,,,,,,,,,,,,,,,,,,,,,,,,,,,,,,,,,,,,,,,,,,,,,,,,,,,,,,,,,,,,,,,,,,,,,,,,,,,,,,,,,,,,,,,,,,,,,,,,,,
,,,,,,6161bdbff67e4b4621b530e7,62bbfac37d44554892e31c9f,2022-06-29_09h14.04.856,Colour_Asymmetry_Pilot,2022.1.3,Win32,60.0024001,62bbe60bf3d75ef465d3e404,0,134,134,89,1,onethree,,,,,,,,,,,,,,,,,,,,,,,,,,,,,,,,,,,,,,,,,,,,,,,,,,,,,,,,,,,,,,,,,,,,,,,,,,,,,,,,,,,,,,,,,,,,,,,,,,,,,,,,,,,,,,,,,,,,,,,,,,,,,,,,,,,,,,,,,,,,,,,,,,,,,,,,
,,,,,,6161bdbff67e4b4621b530e7,62bbfac37d44554892e31c9f,2022-06-29_09h14.04.856,Colour_Asymmetry_Pilot,2022.1.3,Win32,60.0024001,62bbe60bf3d75ef465d3e404,0,135,135,5,1,threefour,,,,,,,,,,,,,,,,,,,,,,,,,,,,,,,,,,,,,,,,,,,,,,,,,,,,,,,,,,,,,,,,,,,,,,,,,,,,,,,,,,,,,,,,,,,,,,,,,,,,,,,,,,,,,,,,,,,,,,,,,,,,,,,,,,,,,,,,,,,,,,,,,,,,,,,,
,,,,,,6161bdbff67e4b4621b530e7,62bbfac37d44554892e31c9f,2022-06-29_09h14.04.856,Colour_Asymmetry_Pilot,2022.1.3,Win32,60.0024001,62bbe60bf3d75ef465d3e404,0,136,136,103,1,fourthree,,,,,,,,,,,,,,,,,,,,,,,,,,,,,,,,,,,,,,,,,,,,,,,,,,,,,,,,,,,,,,,,,,,,,,,,,,,,,,,,,,,,,,,,,,,,,,,,,,,,,,,,,,,,,,,,,,,,,,,,,,,,,,,,,,,,,,,,,,,,,,,,,,,,,,,,
,,,,,,6161bdbff67e4b4621b530e7,62bbfac37d44554892e31c9f,2022-06-29_09h14.04.856,Colour_Asymmetry_Pilot,2022.1.3,Win32,60.0024001,62bbe60bf3d75ef465d3e404,0,137,137,36,1,threeone,,,,,,,,,,,,,,,,,,,,,,,,,,,,,,,,,,,,,,,,,,,,,,,,,,,,,,,,,,,,,,,,,,,,,,,,,,,,,,,,,,,,,,,,,,,,,,,,,,,,,,,,,,,,,,,,,,,,,,,,,,,,,,,,,,,,,,,,,,,,,,,,,,,,,,,,
,,,,,,6161bdbff67e4b4621b530e7,62bbfac37d44554892e31c9f,2022-06-29_09h14.04.856,Colour_Asymmetry_Pilot,2022.1.3,Win32,60.0024001,62bbe60bf3d75ef465d3e404,0,138,138,18,1,twoone,,,,,,,,,,,,,,,,,,,,,,,,,,,,,,,,,,,,,,,,,,,,,,,,,,,,,,,,,,,,,,,,,,,,,,,,,,,,,,,,,,,,,,,,,,,,,,,,,,,,,,,,,,,,,,,,,,,,,,,,,,,,,,,,,,,,,,,,,,,,,,,,,,,,,,,,
,,,,,,6161bdbff67e4b4621b530e7,62bbfac37d44554892e31c9f,2022-06-29_09h14.04.856,Colour_Asymmetry_Pilot,2022.1.3,Win32,60.0024001,62bbe60bf3d75ef465d3e404,0,139,139,69,1,threefour,,,,,,,,,,,,,,,,,,,,,,,,,,,,,,,,,,,,,,,,,,,,,,,,,,,,,,,,,,,,,,,,,,,,,,,,,,,,,,,,,,,,,,,,,,,,,,,,,,,,,,,,,,,,,,,,,,,,,,,,,,,,,,,,,,,,,,,,,,,,,,,,,,,,,,,,
,,,,,,6161bdbff67e4b4621b530e7,62bbfac37d44554892e31c9f,2022-06-29_09h14.04.856,Colour_Asymmetry_Pilot,2022.1.3,Win32,60.0024001,62bbe60bf3d75ef465d3e404,0,140,140,112,1,onetwo,,,,,,,,,,,,,,,,,,,,,,,,,,,,,,,,,,,,,,,,,,,,,,,,,,,,,,,,,,,,,,,,,,,,,,,,,,,,,,,,,,,,,,,,,,,,,,,,,,,,,,,,,,,,,,,,,,,,,,,,,,,,,,,,,,,,,,,,,,,,,,,,,,,,,,,,
,,,,,,6161bdbff67e4b4621b530e7,62bbfac37d44554892e31c9f,2022-06-29_09h14.04.856,Colour_Asymmetry_Pilot,2022.1.3,Win32,60.0024001,62bbe60bf3d75ef465d3e404,0,141,141,97,1,onethree,,,,,,,,,,,,,,,,,,,,,,,,,,,,,,,,,,,,,,,,,,,,,,,,,,,,,,,,,,,,,,,,,,,,,,,,,,,,,,,,,,,,,,,,,,,,,,,,,,,,,,,,,,,,,,,,,,,,,,,,,,,,,,,,,,,,,,,,,,,,,,,,,,,,,,,,
,,,,,,6161bdbff67e4b4621b530e7,62bbfac37d44554892e31c9f,2022-06-29_09h14.04.856,Colour_Asymmetry_Pilot,2022.1.3,Win32,60.0024001,62bbe60bf3d75ef465d3e404,0,142,142,144,1,onetwo,,,,,,,,,,,,,,,,,,,,,,,,,,,,,,,,,,,,,,,,,,,,,,,,,,,,,,,,,,,,,,,,,,,,,,,,,,,,,,,,,,,,,,,,,,,,,,,,,,,,,,,,,,,,,,,,,,,,,,,,,,,,,,,,,,,,,,,,,,,,,,,,,,,,,,,,
,,,,,,6161bdbff67e4b4621b530e7,62bbfac37d44554892e31c9f,2022-06-29_09h14.04.856,Colour_Asymmetry_Pilot,2022.1.3,Win32,60.0024001,62bbe60bf3d75ef465d3e404,0,143,143,0,1,onetwo,,,,,,,,,,,,,,,,,,,,,,,,,,,,,,,,,,,,,,,,,,,,,,,,,,,,,,,,,,,,,,,,,,,,,,,,,,,,,,,,,,,,,,,,,,,,,,,,,,,,,,,,,,,,,,,,,,,,,,,,,,,,,,,,,,,,,,,,,,,,,,,,,,,,,,,,
,,,,,,6161bdbff67e4b4621b530e7,62bbfac37d44554892e31c9f,2022-06-29_09h14.04.856,Colour_Asymmetry_Pilot,2022.1.3,Win32,60.0024001,62bbe60bf3d75ef465d3e404,0,144,144,91,1,twofour,,,,,,,,,,,,,,,,,,,,,,,,,,,,,,,,,,,,,,,,,,,,,,,,,,,,,,,,,,,,,,,,,,,,,,,,,,,,,,,,,,,,,,,,,,,,,,,,,,,,,,,,,,,,,,,,,,,,,,,,,,,,,,,,,,,,,,,,,,,,,,,,,,,,,,,,
,,,,,,6161bdbff67e4b4621b530e7,62bbfac37d44554892e31c9f,2022-06-29_09h14.04.856,Colour_Asymmetry_Pilot,2022.1.3,Win32,60.0024001,62bbe60bf3d75ef465d3e404,0,145,145,158,1,fourtwo,,,,,,,,,,,,,,,,,,,,,,,,,,,,,,,,,,,,,,,,,,,,,,,,,,,,,,,,,,,,,,,,,,,,,,,,,,,,,,,,,,,,,,,,,,,,,,,,,,,,,,,,,,,,,,,,,,,,,,,,,,,,,,,,,,,,,,,,,,,,,,,,,,,,,,,,
,,,,,,6161bdbff67e4b4621b530e7,62bbfac37d44554892e31c9f,2022-06-29_09h14.04.856,Colour_Asymmetry_Pilot,2022.1.3,Win32,60.0024001,62bbe60bf3d75ef465d3e404,0,146,146,78,1,fourtwo,,,,,,,,,,,,,,,,,,,,,,,,,,,,,,,,,,,,,,,,,,,,,,,,,,,,,,,,,,,,,,,,,,,,,,,,,,,,,,,,,,,,,,,,,,,,,,,,,,,,,,,,,,,,,,,,,,,,,,,,,,,,,,,,,,,,,,,,,,,,,,,,,,,,,,,,
,,,,,,6161bdbff67e4b4621b530e7,62bbfac37d44554892e31c9f,2022-06-29_09h14.04.856,Colour_Asymmetry_Pilot,2022.1.3,Win32,60.0024001,62bbe60bf3d75ef465d3e404,0,147,147,39,1,fourthree,,,,,,,,,,,,,,,,,,,,,,,,,,,,,,,,,,,,,,,,,,,,,,,,,,,,,,,,,,,,,,,,,,,,,,,,,,,,,,,,,,,,,,,,,,,,,,,,,,,,,,,,,,,,,,,,,,,,,,,,,,,,,,,,,,,,,,,,,,,,,,,,,,,,,,,,
,,,,,,6161bdbff67e4b4621b530e7,62bbfac37d44554892e31c9f,2022-06-29_09h14.04.856,Colour_Asymmetry_Pilot,2022.1.3,Win32,60.0024001,62bbe60bf3d75ef465d3e404,0,148,148,10,1,twoone,,,,,,,,,,,,,,,,,,,,,,,,,,,,,,,,,,,,,,,,,,,,,,,,,,,,,,,,,,,,,,,,,,,,,,,,,,,,,,,,,,,,,,,,,,,,,,,,,,,,,,,,,,,,,,,,,,,,,,,,,,,,,,,,,,,,,,,,,,,,,,,,,,,,,,,,
,,,,,,6161bdbff67e4b4621b530e7,62bbfac37d44554892e31c9f,2022-06-29_09h14.04.856,Colour_Asymmetry_Pilot,2022.1.3,Win32,60.0024001,62bbe60bf3d75ef465d3e404,0,149,149,72,1,onetwo,,,,,,,,,,,,,,,,,,,,,,,,,,,,,,,,,,,,,,,,,,,,,,,,,,,,,,,,,,,,,,,,,,,,,,,,,,,,,,,,,,,,,,,,,,,,,,,,,,,,,,,,,,,,,,,,,,,,,,,,,,,,,,,,,,,,,,,,,,,,,,,,,,,,,,,,
,,,,,,6161bdbff67e4b4621b530e7,62bbfac37d44554892e31c9f,2022-06-29_09h14.04.856,Colour_Asymmetry_Pilot,2022.1.3,Win32,60.0024001,62bbe60bf3d75ef465d3e404,0,150,150,134,1,fourtwo,,,,,,,,,,,,,,,,,,,,,,,,,,,,,,,,,,,,,,,,,,,,,,,,,,,,,,,,,,,,,,,,,,,,,,,,,,,,,,,,,,,,,,,,,,,,,,,,,,,,,,,,,,,,,,,,,,,,,,,,,,,,,,,,,,,,,,,,,,,,,,,,,,,,,,,,
,,,,,,6161bdbff67e4b4621b530e7,62bbfac37d44554892e31c9f,2022-06-29_09h14.04.856,Colour_Asymmetry_Pilot,2022.1.3,Win32,60.0024001,62bbe60bf3d75ef465d3e404,0,151,151,75,1,twofour,,,,,,,,,,,,,,,,,,,,,,,,,,,,,,,,,,,,,,,,,,,,,,,,,,,,,,,,,,,,,,,,,,,,,,,,,,,,,,,,,,,,,,,,,,,,,,,,,,,,,,,,,,,,,,,,,,,,,,,,,,,,,,,,,,,,,,,,,,,,,,,,,,,,,,,,
,,,,,,6161bdbff67e4b4621b530e7,62bbfac37d44554892e31c9f,2022-06-29_09h14.04.856,Colour_Asymmetry_Pilot,2022.1.3,Win32,60.0024001,62bbe60bf3d75ef465d3e404,0,152,152,130,1,twoone,,,,,,,,,,,,,,,,,,,,,,,,,,,,,,,,,,,,,,,,,,,,,,,,,,,,,,,,,,,,,,,,,,,,,,,,,,,,,,,,,,,,,,,,,,,,,,,,,,,,,,,,,,,,,,,,,,,,,,,,,,,,,,,,,,,,,,,,,,,,,,,,,,,,,,,,
,,,,,,6161bdbff67e4b4621b530e7,62bbfac37d44554892e31c9f,2022-06-29_09h14.04.856,Colour_Asymmetry_Pilot,2022.1.3,Win32,60.0024001,62bbe60bf3d75ef465d3e404,0,153,153,135,1,fourthree,,,,,,,,,,,,,,,,,,,,,,,,,,,,,,,,,,,,,,,,,,,,,,,,,,,,,,,,,,,,,,,,,,,,,,,,,,,,,,,,,,,,,,,,,,,,,,,,,,,,,,,,,,,,,,,,,,,,,,,,,,,,,,,,,,,,,,,,,,,,,,,,,,,,,,,,
,,,,,,6161bdbff67e4b4621b530e7,62bbfac37d44554892e31c9f,2022-06-29_09h14.04.856,Colour_Asymmetry_Pilot,2022.1.3,Win32,60.0024001,62bbe60bf3d75ef465d3e404,0,154,154,157,1,threefour,,,,,,,,,,,,,,,,,,,,,,,,,,,,,,,,,,,,,,,,,,,,,,,,,,,,,,,,,,,,,,,,,,,,,,,,,,,,,,,,,,,,,,,,,,,,,,,,,,,,,,,,,,,,,,,,,,,,,,,,,,,,,,,,,,,,,,,,,,,,,,,,,,,,,,,,
,,,,,,6161bdbff67e4b4621b530e7,62bbfac37d44554892e31c9f,2022-06-29_09h14.04.856,Colour_Asymmetry_Pilot,2022.1.3,Win32,60.0024001,62bbe60bf3d75ef465d3e404,0,155,155,109,1,threefour,,,,,,,,,,,,,,,,,,,,,,,,,,,,,,,,,,,,,,,,,,,,,,,,,,,,,,,,,,,,,,,,,,,,,,,,,,,,,,,,,,,,,,,,,,,,,,,,,,,,,,,,,,,,,,,,,,,,,,,,,,,,,,,,,,,,,,,,,,,,,,,,,,,,,,,,
,,,,,,6161bdbff67e4b4621b530e7,62bbfac37d44554892e31c9f,2022-06-29_09h14.04.856,Colour_Asymmetry_Pilot,2022.1.3,Win32,60.0024001,62bbe60bf3d75ef465d3e404,0,156,156,108,1,threeone,,,,,,,,,,,,,,,,,,,,,,,,,,,,,,,,,,,,,,,,,,,,,,,,,,,,,,,,,,,,,,,,,,,,,,,,,,,,,,,,,,,,,,,,,,,,,,,,,,,,,,,,,,,,,,,,,,,,,,,,,,,,,,,,,,,,,,,,,,,,,,,,,,,,,,,,
,,,,,,6161bdbff67e4b4621b530e7,62bbfac37d44554892e31c9f,2022-06-29_09h14.04.856,Colour_Asymmetry_Pilot,2022.1.3,Win32,60.0024001,62bbe60bf3d75ef465d3e404,0,157,157,46,1,fourtwo,,,,,,,,,,,,,,,,,,,,,,,,,,,,,,,,,,,,,,,,,,,,,,,,,,,,,,,,,,,,,,,,,,,,,,,,,,,,,,,,,,,,,,,,,,,,,,,,,,,,,,,,,,,,,,,,,,,,,,,,,,,,,,,,,,,,,,,,,,,,,,,,,,,,,,,,
,,,,,,6161bdbff67e4b4621b530e7,62bbfac37d44554892e31c9f,2022-06-29_09h14.04.856,Colour_Asymmetry_Pilot,2022.1.3,Win32,60.0024001,62bbe60bf3d75ef465d3e404,0,158,158,25,1,onethree,,,,,,,,,,,,,,,,,,,,,,,,,,,,,,,,,,,,,,,,,,,,,,,,,,,,,,,,,,,,,,,,,,,,,,,,,,,,,,,,,,,,,,,,,,,,,,,,,,,,,,,,,,,,,,,,,,,,,,,,,,,,,,,,,,,,,,,,,,,,,,,,,,,,,,,,
,,,,,,6161bdbff67e4b4621b530e7,62bbfac37d44554892e31c9f,2022-06-29_09h14.04.856,Colour_Asymmetry_Pilot,2022.1.3,Win32,60.0024001,62bbe60bf3d75ef465d3e404,0,159,159,8,1,onetwo,,,,,,,,,,,,,,,,,,,,,,,,,,,,,,,,,,,,,,,,,,,,,,,,,,,,,,,,,,,,,,,,,,,,,,,,,,,,,,,,,,,,,,,,,,,,,,,,,,,,,,,,,,,,,,,,,,,,,,,,,,,,,,,,,,,,,,,,,,,,,,,,,,,,,,,,
,,,,,,6161bdbff67e4b4621b530e7,62bbfac37d44554892e31c9f,2022-06-29_09h14.04.856,Colour_Asymmetry_Pilot,2022.1.3,Win32,60.0024001,62bbe60bf3d75ef465d3e404,0,160,160,145,1,onethree,,,,,,,,,,,,,,,,,,,,,,,,,,,,,,,,,,,,,,,,,,,,,,,,,,,,,,,,,,,,,,,,,,,,,,,,,,,,,,,,,,,,,,,,,,,,,,,,,,,,,,,,,,,,,,,,,,,,,,,,,,,,,,,,,,,,,,,,,,,,,,,,,,,,,,,,
,,,,,,6161bdbff67e4b4621b530e7,62bbfac37d44554892e31c9f,2022-06-29_09h14.04.856,Colour_Asymmetry_Pilot,2022.1.3,Win32,60.0024001,62bbe60bf3d75ef465d3e404,0,161,161,137,1,onethree,,,,,,,,,,,,,,,,,,,,,,,,,,,,,,,,,,,,,,,,,,,,,,,,,,,,,,,,,,,,,,,,,,,,,,,,,,,,,,,,,,,,,,,,,,,,,,,,,,,,,,,,,,,,,,,,,,,,,,,,,,,,,,,,,,,,,,,,,,,,,,,,,,,,,,,,
,,,,,,6161bdbff67e4b4621b530e7,62bbfac37d44554892e31c9f,2022-06-29_09h14.04.856,Colour_Asymmetry_Pilot,2022.1.3,Win32,60.0024001,62bbe60bf3d75ef465d3e404,,,,,,,space,9.657,space,78,space,96.227,space,36.736,space,21.095,space,12.825,"[0.9372,0.20779999999999998,0.2704]",fourtwo,"[-0.07459999999999989,0.12139999999999995,-0.9922]",-4,30.018,-39,104,1,0,0,response7disk_5,-4,3,1,0,0,rectangle_8,-4,3,1,0,0,2,-4,3,1,0,0,0,0,0,0,1,,,,,,,,,,,,,,,,,,,,,,,,,,,,,,,,,,,,,,,,,,,,,,,,,,,,,,,,,,,,,,,,,,,,,,,,,,,,,,,,,,,,,,,,,,,,,,,,,,,,,,,,,,,
,,,,,,6161bdbff67e4b4621b530e7,62bbfac37d44554892e31c9f,2022-06-29_09h14.04.856,Colour_Asymmetry_Pilot,2022.1.3,Win32,60.0024001,62bbe60bf3d75ef465d3e404,,,,,,,,,,,,,,,,,,,"[-0.050999999999999934,-0.6706000000000001,-0.804]",onetwo,"[0.23920000000000008,0.2704,0.16060000000000008]",-4,5.784,-42,104,1,0,0,response7disk_5,-10,3,1,0,0,rectangle_8,-10,3,1,0,0,2,-10,3,1,0,0,1,0,1,0,1,,,,,,,,,,,,,,,,,,,,,,,,,,,,,,,,,,,,,,,,,,,,,,,,,,,,,,,,,,,,,,,,,,,,,,,,,,,,,,,,,,,,,,,,,,,,,,,,,,,,,,,,,,,
,,,,,,6161bdbff67e4b4621b530e7,62bbfac37d44554892e31c9f,2022-06-29_09h14.04.856,Colour_Asymmetry_Pilot,2022.1.3,Win32,60.0024001,62bbe60bf3d75ef465d3e404,,,,,,,,,,,,,,,,,,,"[0.04299999999999993,0.16060000000000008,-0.6628000000000001]",fourtwo,"[-0.8118,-0.8198,-0.5452]",-4,3.602,-45,109,1,0,0,response7disk_5,-2,2,1,0,0,rectangle_8,86,-37,1,0,0,2,-3,7,1,0,0,2,0,2,0,1,response3disk_7,5,rectangle_4,,,,,,,,,,,,,,,,,,,,,,,,,,,,,,,,,,,,,,,,,,,,,,,,,,,,,,,,,,,,,,,,,,,,,,,,,,,,,,,,,,,,,,,,,,,,,,,,,,,,,,,,
,,,,,,6161bdbff67e4b4621b530e7,62bbfac37d44554892e31c9f,2022-06-29_09h14.04.856,Colour_Asymmetry_Pilot,2022.1.3,Win32,60.0024001,62bbe60bf3d75ef465d3e404,,,,,,,,,,,,,,,,,,,"[-0.26280000000000003,-0.2158,-0.3256]",twofour,"[-0.5688,-0.08239999999999992,-0.1844]",4,3.549,41,97,1,0,0,response1disk_5,3,-4,1,0,0,rectangle_8,3,-4,1,0,0,2,3,-4,1,0,0,3,0,3,0,1,,,,,,,,,,,,,,,,,,,,,,,,,,,,,,,,,,,,,,,,,,,,,,,,,,,,,,,,,,,,,,,,,,,,,,,,,,,,,,,,,,,,,,,,,,,,,,,,,,,,,,,,,,,
,,,,,,6161bdbff67e4b4621b530e7,62bbfac37d44554892e31c9f,2022-06-29_09h14.04.856,Colour_Asymmetry_Pilot,2022.1.3,Win32,60.0024001,62bbe60bf3d75ef465d3e404,,,,,,,,,,,,,,,,,,,"[0.18419999999999992,-0.4276,-0.404]",onetwo,"[0.19199999999999995,0.18419999999999992,0.5136000000000001]",-4,3.367,-42,107,1,0,0,response7disk_5,-5,-5,1,0,0,rectangle_8,-5,-5,1,0,0,2,-5,-5,1,0,0,4,0,4,0,1,,,,,,,,,,,,,,,,,,,,,,,,,,,,,,,,,,,,,,,,,,,,,,,,,,,,,,,,,,,,,,,,,,,,,,,,,,,,,,,,,,,,,,,,,,,,,,,,,,,,,,,,,,,
,,,,,,6161bdbff67e4b4621b530e7,62bbfac37d44554892e31c9f,2022-06-29_09h14.04.856,Colour_Asymmetry_Pilot,2022.1.3,Win32,60.0024001,62bbe60bf3d75ef465d3e404,,,,,,,,,,,,,,,,,,,"[0.23920000000000008,0.2704,0.16060000000000008]",onetwo,"[0.37240000000000006,-0.050999999999999934,-0.5216]",-4,2.62,-40,112,1,0,0,response7disk_5,-15,-6,1,0,0,rectangle_8,-15,-6,1,0,0,2,-15,-6,1,0,0,5,0,5,0,1,,,,,,,,,,,,,,,,,,,,,,,,,,,,,,,,,,,,,,,,,,,,,,,,,,,,,,,,,,,,,,,,,,,,,,,,,,,,,,,,,,,,,,,,,,,,,,,,,,,,,,,,,,,
,,,,,,6161bdbff67e4b4621b530e7,62bbfac37d44554892e31c9f,2022-06-29_09h14.04.856,Colour_Asymmetry_Pilot,2022.1.3,Win32,60.0024001,62bbe60bf3d75ef465d3e404,,,,,,,,,,,,,,,,,,,"[0.7176,-0.906,-0.6864]",twoone,"[-0.6,0.16860000000000008,0.44300000000000006]",-4,3.017,-38,114,1,0,0,response7disk_5,4,6,1,0,0,rectangle_8,4,6,1,0,0,2,4,6,1,0,0,6,0,6,0,1,,,,,,,,,,,,,,,,,,,,,,,,,,,,,,,,,,,,,,,,,,,,,,,,,,,,,,,,,,,,,,,,,,,,,,,,,,,,,,,,,,,,,,,,,,,,,,,,,,,,,,,,,,,
,,,,,,6161bdbff67e4b4621b530e7,62bbfac37d44554892e31c9f,2022-06-29_09h14.04.856,Colour_Asymmetry_Pilot,2022.1.3,Win32,60.0024001,62bbe60bf3d75ef465d3e404,,,,,,,,,,,,,,,,,,,,twoone,,4,23.039,,,,,,,,,,,,,,,,,,,,,,,,,,,,,,,,space,7.229,"[-0.01980000000000004,-0.5138,-0.38039999999999996]","[-0.0040000000000000036,0.02739999999999987,-0.08239999999999992]",39,106,1,0,0,response1disk,-4,-2,1,0,0,rectangle,-4,-2,1,0,0,,2,0.005,0,-4,-2,1,0,0,0,0,0,24,1,24,first,,,,,,,,,,,,,,,,,,,,,,,,,,,,,,,,,,,,,,,,,,,,,,,,,,,,,,,,,,,,,,,,,,,
,,,,,,6161bdbff67e4b4621b530e7,62bbfac37d44554892e31c9f,2022-06-29_09h14.04.856,Colour_Asymmetry_Pilot,2022.1.3,Win32,60.0024001,62bbe60bf3d75ef465d3e404,,,,,,,,,,,,,,,,,,,,twoone,,4,3.5,,,,,,,,,,,,,,,,,,,,,,,,,,,,,,,,,,"[0.18419999999999992,-0.4276,-0.404]","[0.9686000000000001,0.5763999999999998,0.11359999999999992]",38,102,1,0,0,response1disk,3,6,1,0,0,rectangle,3,6,1,0,0,,1,0.003,0,3,6,1,0,0,0,1,1,121,1,40,second,,,,,,,,,,,,,,,,,,,,,,,,,,,,,,,,,,,,,,,,,,,,,,,,,,,,,,,,,,,,,,,,,,,
,,,,,,6161bdbff67e4b4621b530e7,62bbfac37d44554892e31c9f,2022-06-29_09h14.04.856,Colour_Asymmetry_Pilot,2022.1.3,Win32,60.0024001,62bbe60bf3d75ef465d3e404,,,,,,,,,,,,,,,,,,,,threefour,,-4,3.135,,,,,,,,,,,,,,,,,,,,,,,,,,,,,,,,,,"[0.7176,-0.906,-0.6864]","[0.9213999999999998,0.6391999999999998,-0.9922]",-41,110,1,0,0,response7disk,10,6,1,0,0,rectangle,10,6,1,0,0,,3,0.002,0,10,6,1,0,0,0,2,2,0,1,0,first,,,,,,,,,,,,,,,,,,,,,,,,,,,,,,,,,,,,,,,,,,,,,,,,,,,,,,,,,,,,,,,,,,,
,,,,,,6161bdbff67e4b4621b530e7,62bbfac37d44554892e31c9f,2022-06-29_09h14.04.856,Colour_Asymmetry_Pilot,2022.1.3,Win32,60.0024001,62bbe60bf3d75ef465d3e404,,,,,,,,,,,,,,,,,,,,onethree,,4,1.482,,,,,,,,,,,,,,,,,,,,,,,,,,,,,,,,,,"[0.3568,-0.20799999999999996,-0.9844]","[0.30180000000000007,-0.7884,-0.9844]",43,106,1,0,0,response1disk,-7,3,1,0,0,rectangle,-7,3,1,0,0,,1,0.002,0,-7,3,1,0,0,0,3,3,99,1,18,second,,,,,,,,,,,,,,,,,,,,,,,,,,,,,,,,,,,,,,,,,,,,,,,,,,,,,,,,,,,,,,,,,,,
,,,,,,6161bdbff67e4b4621b530e7,62bbfac37d44554892e31c9f,2022-06-29_09h14.04.856,Colour_Asymmetry_Pilot,2022.1.3,Win32,60.0024001,62bbe60bf3d75ef465d3e404,,,,,,,,,,,,,,,,,,,,threefour,,-4,4.141,,,,,,,,,,,,,,,,,,,,,,,,,,,,,,,,,,"[0.7802,-0.23140000000000005,-0.20799999999999996]","[0.11359999999999992,0.6312,0.5213999999999999]",-44,109,1,0,0,response7disk,-6,9,1,0,0,rectangle,-6,9,1,0,0,,1,0.001,0,-6,9,1,0,0,0,4,4,80,1,80,first,,,,,,,,,,,,,,,,,,,,,,,,,,,,,,,,,,,,,,,,,,,,,,,,,,,,,,,,,,,,,,,,,,,
,,,,,,6161bdbff67e4b4621b530e7,62bbfac37d44554892e31c9f,2022-06-29_09h14.04.856,Colour_Asymmetry_Pilot,2022.1.3,Win32,60.0024001,62bbe60bf3d75ef465d3e404,,,,,,,,,,,,,,,,,,,,threeone,,-4,1.699,,,,,,,,,,,,,,,,,,,,,,,,,,,,,,,,,,"[-0.011800000000000033,-0.906,-0.45100000000000007]","[-0.7412000000000001,-0.08239999999999992,-0.6864]",-45,103,1,0,0,response7disk,2,9,1,0,0,rectangle,2,9,1,0,0,,3,0.002,0,2,9,1,0,0,0,5,5,109,1,28,second,,,,,,,,,,,,,,,,,,,,,,,,,,,,,,,,,,,,,,,,,,,,,,,,,,,,,,,,,,,,,,,,,,,
,,,,,,6161bdbff67e4b4621b530e7,62bbfac37d44554892e31c9f,2022-06-29_09h14.04.856,Colour_Asymmetry_Pilot,2022.1.3,Win32,60.0024001,62bbe60bf3d75ef465d3e404,,,,,,,,,,,,,,,,,,,,threeone,,-4,1.601,,,,,,,,,,,,,,,,,,,,,,,,,,,,,,,,,,"[-0.6,0.16860000000000008,0.44300000000000006]","[-0.01980000000000004,-0.5138,-0.38039999999999996]",-39,108,1,0,0,response7disk,-3,-3,1,0,0,rectangle,-3,-3,1,0,0,,1,0.002,0,-3,-3,1,0,0,0,6,6,145,1,64,second,,,,,,,,,,,,,,,,,,,,,,,,,,,,,,,,,,,,,,,,,,,,,,,,,,,,,,,,,,,,,,,,,,,
,,,,,,6161bdbff67e4b4621b530e7,62bbfac37d44554892e31c9f,2022-06-29_09h14.04.856,Colour_Asymmetry_Pilot,2022.1.3,Win32,60.0024001,62bbe60bf3d75ef465d3e404,,,,,,,,,,,,,,,,,,,,fourtwo,,-4,1.484,,,,,,,,,,,,,,,,,,,,,,,,,,,,,,,,,,"[-0.4902000000000001,0.2704,-0.45899999999999996]","[0.7802,-0.23140000000000005,-0.20799999999999996]",-39,106,1,0,0,response7disk,10,8,1,0,0,rectangle,10,8,1,0,0,,1,0.001,0,10,8,1,0,0,0,7,7,138,1,57,second,,,,,,,,,,,,,,,,,,,,,,,,,,,,,,,,,,,,,,,,,,,,,,,,,,,,,,,,,,,,,,,,,,,
,,,,,,6161bdbff67e4b4621b530e7,62bbfac37d44554892e31c9f,2022-06-29_09h14.04.856,Colour_Asymmetry_Pilot,2022.1.3,Win32,60.0024001,62bbe60bf3d75ef465d3e404,,,,,,,,,,,,,,,,,,,,fourthree,,-4,1.283,,,,,,,,,,,,,,,,,,,,,,,,,,,,,,,,,,"[0.30180000000000007,-0.7884,-0.9844]","[-0.24719999999999998,0.5213999999999999,-0.12959999999999994]",-45,101,1,0,0,response7disk,5,0,1,0,0,rectangle,5,0,1,0,0,,2,0.002,0,5,0,1,0,0,0,8,8,3,1,3,first,,,,,,,,,,,,,,,,,,,,,,,,,,,,,,,,,,,,,,,,,,,,,,,,,,,,,,,,,,,,,,,,,,,
,,,,,,6161bdbff67e4b4621b530e7,62bbfac37d44554892e31c9f,2022-06-29_09h14.04.856,Colour_Asymmetry_Pilot,2022.1.3,Win32,60.0024001,62bbe60bf3d75ef465d3e404,,,,,,,,,,,,,,,,,,,,threeone,,-4,1.61,,,,,,,,,,,,,,,,,,,,,,,,,,,,,,,,,,"[0.7802,-0.23140000000000005,-0.20799999999999996]","[-0.4902000000000001,0.2704,-0.45899999999999996]",-43,114,1,0,0,response7disk,3,8,1,0,0,rectangle,3,8,1,0,0,,1,0.002,0,3,8,1,0,0,0,9,9,57,1,57,first,,,,,,,,,,,,,,,,,,,,,,,,,,,,,,,,,,,,,,,,,,,,,,,,,,,,,,,,,,,,,,,,,,,
,,,,,,6161bdbff67e4b4621b530e7,62bbfac37d44554892e31c9f,2022-06-29_09h14.04.856,Colour_Asymmetry_Pilot,2022.1.3,Win32,60.0024001,62bbe60bf3d75ef465d3e404,,,,,,,,,,,,,,,,,,,,onetwo,,-4,5.516,,,,,,,,,,,,,,,,,,,,,,,,,,,,,,,,,,"[0.7802,-0.23140000000000005,-0.20799999999999996]","[0.6625999999999999,0.4980000000000002,-0.357]",-40,110,1,0,0,response7disk,-11,-4,1,0,0,rectangle,-11,-4,1,0,0,,2,0.003,0,-11,-4,1,0,0,0,10,10,156,1,75,second,,,,,,,,,,,,,,,,,,,,,,,,,,,,,,,,,,,,,,,,,,,,,,,,,,,,,,,,,,,,,,,,,,,
,,,,,,6161bdbff67e4b4621b530e7,62bbfac37d44554892e31c9f,2022-06-29_09h14.04.856,Colour_Asymmetry_Pilot,2022.1.3,Win32,60.0024001,62bbe60bf3d75ef465d3e404,,,,,,,,,,,,,,,,,,,,onetwo,,4,1.382,,,,,,,,,,,,,,,,,,,,,,,,,,,,,,,,,,"[0.22340000000000004,-0.9296,-0.7884]","[0.7802,-0.23140000000000005,-0.20799999999999996]",40,101,1,0,0,response1disk,0,7,1,0,0,rectangle,0,7,1,0,0,,2,0,0,0,7,1,0,0,0,11,11,119,1,38,second,,,,,,,,,,,,,,,,,,,,,,,,,,,,,,,,,,,,,,,,,,,,,,,,,,,,,,,,,,,,,,,,,,,
,,,,,,6161bdbff67e4b4621b530e7,62bbfac37d44554892e31c9f,2022-06-29_09h14.04.856,Colour_Asymmetry_Pilot,2022.1.3,Win32,60.0024001,62bbe60bf3d75ef465d3e404,,,,,,,,,,,,,,,,,,,,fourtwo,,4,5.908,,,,,,,,,,,,,,,,,,,,,,,,,,,,,,,,,,"[0.34099999999999997,0.12939999999999996,-0.9766]","[0.2784,-0.31000000000000005,-0.5452]",39,108,1,0,0,response1disk,10,-3,1,0,0,rectangle,10,-3,1,0,0,,3,0.002,0,10,-3,1,0,0,0,12,12,26,1,26,first,,,,,,,,,,,,,,,,,,,,,,,,,,,,,,,,,,,,,,,,,,,,,,,,,,,,,,,,,,,,,,,,,,,
,,,,,,6161bdbff67e4b4621b530e7,62bbfac37d44554892e31c9f,2022-06-29_09h14.04.856,Colour_Asymmetry_Pilot,2022.1.3,Win32,60.0024001,62bbe60bf3d75ef465d3e404,,,,,,,,,,,,,,,,,,,,twoone,,-4,3.884,,,,,,,,,,,,,,,,,,,,,,,,,,,,,,,,,,"[-0.2942,-0.24719999999999998,-0.357]","[0.9763999999999999,0.30979999999999985,-0.6786]",-46,97,1,0,0,response7disk,-4,2,1,0,0,rectangle,-4,2,1,0,0,,2,0.003,0,-4,2,1,0,0,0,13,13,108,1,27,second,,,,,,,,,,,,,,,,,,,,,,,,,,,,,,,,,,,,,,,,,,,,,,,,,,,,,,,,,,,,,,,,,,,
,,,,,,6161bdbff67e4b4621b530e7,62bbfac37d44554892e31c9f,2022-06-29_09h14.04.856,Colour_Asymmetry_Pilot,2022.1.3,Win32,60.0024001,62bbe60bf3d75ef465d3e404,,,,,,,,,,,,,,,,,,,,fourthree,,4,1.201,,,,,,,,,,,,,,,,,,,,,,,,,,,,,,,,,,"[-0.6235999999999999,-0.6786,-0.08239999999999992]","[-0.9688,-0.38039999999999996,-0.41979999999999995]",42,107,1,0,0,response1disk,0,-3,1,0,0,rectangle,0,-3,1,0,0,,3,0.003,0,0,-3,1,0,0,0,14,14,46,1,46,first,,,,,,,,,,,,,,,,,,,,,,,,,,,,,,,,,,,,,,,,,,,,,,,,,,,,,,,,,,,,,,,,,,,
,,,,,,6161bdbff67e4b4621b530e7,62bbfac37d44554892e31c9f,2022-06-29_09h14.04.856,Colour_Asymmetry_Pilot,2022.1.3,Win32,60.0024001,62bbe60bf3d75ef465d3e404,,,,,,,,,,,,,,,,,,,,onetwo,,-4,2.315,,,,,,,,,,,,,,,,,,,,,,,,,,,,,,,,,,"[0.9686000000000001,0.3802000000000001,0.19999999999999996]","[-0.26280000000000003,-0.2158,-0.3256]",-46,107,1,0,0,response7disk,-4,-9,1,0,0,rectangle,-4,-9,1,0,0,,3,0.001,0,-4,-9,1,0,0,0,15,15,102,1,21,second,,,,,,,,,,,,,,,,,,,,,,,,,,,,,,,,,,,,,,,,,,,,,,,,,,,,,,,,,,,,,,,,,,,
,,,,,,6161bdbff67e4b4621b530e7,62bbfac37d44554892e31c9f,2022-06-29_09h14.04.856,Colour_Asymmetry_Pilot,2022.1.3,Win32,60.0024001,62bbe60bf3d75ef465d3e404,,,,,,,,,,,,,,,,,,,,onethree,,-4,1.066,,,,,,,,,,,,,,,,,,,,,,,,,,,,,,,,,,"[-0.17659999999999998,0.3253999999999999,0.19999999999999996]","[0.22340000000000004,-0.9296,-0.7884]",-46,109,1,0,0,response7disk,-7,9,1,0,0,rectangle,-7,9,1,0,0,,3,0.001,0,-7,9,1,0,0,0,16,16,101,1,20,second,,,,,,,,,,,,,,,,,,,,,,,,,,,,,,,,,,,,,,,,,,,,,,,,,,,,,,,,,,,,,,,,,,,
,,,,,,6161bdbff67e4b4621b530e7,62bbfac37d44554892e31c9f,2022-06-29_09h14.04.856,Colour_Asymmetry_Pilot,2022.1.3,Win32,60.0024001,62bbe60bf3d75ef465d3e404,,,,,,,,,,,,,,,,,,,,twofour,,-4,2.183,,,,,,,,,,,,,,,,,,,,,,,,,,,,,,,,,,"[0.40379999999999994,0.09000000000000008,0.44300000000000006]","[0.9842,0.7409999999999999,-0.6628000000000001]",-39,97,1,0,0,response7disk,0,-10,1,0,0,rectangle,0,-10,1,0,0,,1,0.001,0,0,-10,1,0,0,0,17,17,131,1,50,second,,,,,,,,,,,,,,,,,,,,,,,,,,,,,,,,,,,,,,,,,,,,,,,,,,,,,,,,,,,,,,,,,,,
,,,,,,6161bdbff67e4b4621b530e7,62bbfac37d44554892e31c9f,2022-06-29_09h14.04.856,Colour_Asymmetry_Pilot,2022.1.3,Win32,60.0024001,62bbe60bf3d75ef465d3e404,,,,,,,,,,,,,,,,,,,,onetwo,,4,1.168,,,,,,,,,,,,,,,,,,,,,,,,,,,,,,,,,,"[0.05879999999999996,0.2784,0.5841999999999998]","[0.40379999999999994,0.09000000000000008,0.44300000000000006]",43,108,1,0,0,response1disk,7,8,1,0,0,rectangle,7,8,1,0,0,,1,0,0,7,8,1,0,0,0,18,18,103,1,22,second,,,,,,,,,,,,,,,,,,,,,,,,,,,,,,,,,,,,,,,,,,,,,,,,,,,,,,,,,,,,,,,,,,,
,,,,,,6161bdbff67e4b4621b530e7,62bbfac37d44554892e31c9f,2022-06-29_09h14.04.856,Colour_Asymmetry_Pilot,2022.1.3,Win32,60.0024001,62bbe60bf3d75ef465d3e404,,,,,,,,,,,,,,,,,,,,twoone,,4,1.001,,,,,,,,,,,,,,,,,,,,,,,,,,,,,,,,,,"[-0.09019999999999995,0.44300000000000006,0.5371999999999999]","[-0.9766,-0.6472,0.07440000000000002]",42,98,1,0,0,response1disk,8,-9,1,0,0,rectangle,8,-9,1,0,0,,3,0.001,0,8,-9,1,0,0,0,19,19,33,1,33,first,,,,,,,,,,,,,,,,,,,,,,,,,,,,,,,,,,,,,,,,,,,,,,,,,,,,,,,,,,,,,,,,,,,
,,,,,,6161bdbff67e4b4621b530e7,62bbfac37d44554892e31c9f,2022-06-29_09h14.04.856,Colour_Asymmetry_Pilot,2022.1.3,Win32,60.0024001,62bbe60bf3d75ef465d3e404,,,,,,,,,,,,,,,,,,,,onethree,,-4,6.345,,,,,,,,,,,,,,,,,,,,,,,,,,,,,,,,,,"[-0.0040000000000000036,0.02739999999999987,-0.08239999999999992]","[0.22340000000000004,-0.9296,-0.7884]",-40,105,1,0,0,response7disk,-7,6,1,0,0,rectangle,-7,6,1,0,0,,1,0.002,0,-7,6,1,0,0,0,20,20,1,1,1,first,,,,,,,,,,,,,,,,,,,,,,,,,,,,,,,,,,,,,,,,,,,,,,,,,,,,,,,,,,,,,,,,,,,
