trials.thisRepN,trials.thisTrialN,trials.thisN,trials.thisIndex,trials.ran,Colourcodes,participant,session,date,expName,psychopyVersion,OS,frameRate,study_id,trials_4.thisRepN,trials_4.thisTrialN,trials_4.thisN,trials_4.thisIndex,trials_4.ran,StimulusPos,key_resp.keys,key_resp.rt,key_resp_2.keys,key_resp_2.rt,key_resp_15.keys,key_resp_15.rt,key_resp_17.keys,key_resp_17.rt,key_resp_9.keys,key_resp_9.rt,key_resp_10.keys,key_resp_10.rt,Circle1_col,Ecc,Circle2_col,similarity,response_time,mouse_5.x,mouse_5.y,mouse_5.leftButton,mouse_5.midButton,mouse_5.rightButton,mouse_5.clicked_name,mouse_10.x,mouse_10.y,mouse_10.leftButton,mouse_10.midButton,mouse_10.rightButton,mouse_10.clicked_name,mouse_7.x,mouse_7.y,mouse_7.leftButton,mouse_7.midButton,mouse_7.rightButton,catchnumberprac,mouse_6.x,mouse_6.y,mouse_6.leftButton,mouse_6.midButton,mouse_6.rightButton,duringprac.thisRepN,duringprac.thisTrialN,duringprac.thisN,duringprac.thisIndex,duringprac.ran,mouse_7.clicked_name,catchprac,mouse_6.clicked_name,key_resp_22.keys,key_resp_22.rt,Circle1_colour,Circle2_colour,mouse.x,mouse.y,mouse.leftButton,mouse.midButton,mouse.rightButton,mouse.clicked_name,mouse_2.x,mouse_2.y,mouse_2.leftButton,mouse_2.midButton,mouse_2.rightButton,mouse_2.clicked_name,mouse_3.x,mouse_3.y,mouse_3.leftButton,mouse_3.midButton,mouse_3.rightButton,catchresponse,catchnumber,response_time_catch,Catch,mouse_11.x,mouse_11.y,mouse_11.leftButton,mouse_11.midButton,mouse_11.rightButton,trials_2.thisRepN,trials_2.thisTrialN,trials_2.thisN,trials_2.thisIndex,trials_2.ran,Colourpair,Temporder,mouse_3.clicked_name,mouse_11.clicked_name,trials_3.thisRepN,trials_3.thisTrialN,trials_3.thisN,trials_3.thisIndex,trials_3.ran,key_resp_instr_Ishi.keys,key_resp_instr_Ishi.rt,Ishi_trial_keyresp.keys,Ishi_trial_keyresp.rt,Ishi_textbox.text,Ishi_loop.thisRepN,Ishi_loop.thisTrialN,Ishi_loop.thisN,Ishi_loop.thisIndex,Ishi_loop.ran,imageaddress,textbox.text,mouse_4.x,mouse_4.y,mouse_4.leftButton,mouse_4.midButton,mouse_4.rightButton,mouse_4.clicked_name,textbox_2.text,mouse_8.x,mouse_8.y,mouse_8.leftButton,mouse_8.midButton,mouse_8.rightButton,mouse_8.clicked_name,textbox_3.text,mouse_9.x,mouse_9.y,mouse_9.leftButton,mouse_9.midButton,mouse_9.rightButton,mouse_9.clicked_name,textbox_4.text,mouse_12.x,mouse_12.y,mouse_12.leftButton,mouse_12.midButton,mouse_12.rightButton,mouse_12.clicked_name,textbox_5.text,mouse_13.x,mouse_13.y,mouse_13.leftButton,mouse_13.midButton,mouse_13.rightButton,mouse_13.clicked_name,textbox_6.text,mouse_14.x,mouse_14.y,mouse_14.leftButton,mouse_14.midButton,mouse_14.rightButton,mouse_14.clicked_name,textbox_7.text,mouse_15.x,mouse_15.y,mouse_15.leftButton,mouse_15.midButton,mouse_15.rightButton,mouse_15.clicked_name
0,0,0,81,1,,611e1dc3639bf81baea53339,62bbfafacb653a0457507260,2022-06-29_09h13.26.554,Colour_Asymmetry_Pilot,2022.1.3,Win32,66.41429236,62bbe60bf3d75ef465d3e404,,,,,,,,,,,,,,,,,,,,,,,,,,,,,,,,,,,,,,,,,,,,,,,,,,,,,,,,,,,,,,,,,,,,,,,,,,,,,,,,,,,,,,,,,,,,,,,,,,,,,,,,,,,,,,,,,,,,,,,,,,,,,,,,,,,,,,,,,,,,,,,,,,,,,,,,,,,,,,
0,1,1,49,1,,611e1dc3639bf81baea53339,62bbfafacb653a0457507260,2022-06-29_09h13.26.554,Colour_Asymmetry_Pilot,2022.1.3,Win32,66.41429236,62bbe60bf3d75ef465d3e404,,,,,,,,,,,,,,,,,,,,,,,,,,,,,,,,,,,,,,,,,,,,,,,,,,,,,,,,,,,,,,,,,,,,,,,,,,,,,,,,,,,,,,,,,,,,,,,,,,,,,,,,,,,,,,,,,,,,,,,,,,,,,,,,,,,,,,,,,,,,,,,,,,,,,,,,,,,,,,
0,2,2,47,1,,611e1dc3639bf81baea53339,62bbfafacb653a0457507260,2022-06-29_09h13.26.554,Colour_Asymmetry_Pilot,2022.1.3,Win32,66.41429236,62bbe60bf3d75ef465d3e404,,,,,,,,,,,,,,,,,,,,,,,,,,,,,,,,,,,,,,,,,,,,,,,,,,,,,,,,,,,,,,,,,,,,,,,,,,,,,,,,,,,,,,,,,,,,,,,,,,,,,,,,,,,,,,,,,,,,,,,,,,,,,,,,,,,,,,,,,,,,,,,,,,,,,,,,,,,,,,
0,3,3,71,1,,611e1dc3639bf81baea53339,62bbfafacb653a0457507260,2022-06-29_09h13.26.554,Colour_Asymmetry_Pilot,2022.1.3,Win32,66.41429236,62bbe60bf3d75ef465d3e404,,,,,,,,,,,,,,,,,,,,,,,,,,,,,,,,,,,,,,,,,,,,,,,,,,,,,,,,,,,,,,,,,,,,,,,,,,,,,,,,,,,,,,,,,,,,,,,,,,,,,,,,,,,,,,,,,,,,,,,,,,,,,,,,,,,,,,,,,,,,,,,,,,,,,,,,,,,,,,
0,4,4,86,1,,611e1dc3639bf81baea53339,62bbfafacb653a0457507260,2022-06-29_09h13.26.554,Colour_Asymmetry_Pilot,2022.1.3,Win32,66.41429236,62bbe60bf3d75ef465d3e404,,,,,,,,,,,,,,,,,,,,,,,,,,,,,,,,,,,,,,,,,,,,,,,,,,,,,,,,,,,,,,,,,,,,,,,,,,,,,,,,,,,,,,,,,,,,,,,,,,,,,,,,,,,,,,,,,,,,,,,,,,,,,,,,,,,,,,,,,,,,,,,,,,,,,,,,,,,,,,
0,5,5,44,1,,611e1dc3639bf81baea53339,62bbfafacb653a0457507260,2022-06-29_09h13.26.554,Colour_Asymmetry_Pilot,2022.1.3,Win32,66.41429236,62bbe60bf3d75ef465d3e404,,,,,,,,,,,,,,,,,,,,,,,,,,,,,,,,,,,,,,,,,,,,,,,,,,,,,,,,,,,,,,,,,,,,,,,,,,,,,,,,,,,,,,,,,,,,,,,,,,,,,,,,,,,,,,,,,,,,,,,,,,,,,,,,,,,,,,,,,,,,,,,,,,,,,,,,,,,,,,
0,6,6,42,1,,611e1dc3639bf81baea53339,62bbfafacb653a0457507260,2022-06-29_09h13.26.554,Colour_Asymmetry_Pilot,2022.1.3,Win32,66.41429236,62bbe60bf3d75ef465d3e404,,,,,,,,,,,,,,,,,,,,,,,,,,,,,,,,,,,,,,,,,,,,,,,,,,,,,,,,,,,,,,,,,,,,,,,,,,,,,,,,,,,,,,,,,,,,,,,,,,,,,,,,,,,,,,,,,,,,,,,,,,,,,,,,,,,,,,,,,,,,,,,,,,,,,,,,,,,,,,
0,7,7,66,1,,611e1dc3639bf81baea53339,62bbfafacb653a0457507260,2022-06-29_09h13.26.554,Colour_Asymmetry_Pilot,2022.1.3,Win32,66.41429236,62bbe60bf3d75ef465d3e404,,,,,,,,,,,,,,,,,,,,,,,,,,,,,,,,,,,,,,,,,,,,,,,,,,,,,,,,,,,,,,,,,,,,,,,,,,,,,,,,,,,,,,,,,,,,,,,,,,,,,,,,,,,,,,,,,,,,,,,,,,,,,,,,,,,,,,,,,,,,,,,,,,,,,,,,,,,,,,
0,8,8,33,1,,611e1dc3639bf81baea53339,62bbfafacb653a0457507260,2022-06-29_09h13.26.554,Colour_Asymmetry_Pilot,2022.1.3,Win32,66.41429236,62bbe60bf3d75ef465d3e404,,,,,,,,,,,,,,,,,,,,,,,,,,,,,,,,,,,,,,,,,,,,,,,,,,,,,,,,,,,,,,,,,,,,,,,,,,,,,,,,,,,,,,,,,,,,,,,,,,,,,,,,,,,,,,,,,,,,,,,,,,,,,,,,,,,,,,,,,,,,,,,,,,,,,,,,,,,,,,
0,9,9,57,1,,611e1dc3639bf81baea53339,62bbfafacb653a0457507260,2022-06-29_09h13.26.554,Colour_Asymmetry_Pilot,2022.1.3,Win32,66.41429236,62bbe60bf3d75ef465d3e404,,,,,,,,,,,,,,,,,,,,,,,,,,,,,,,,,,,,,,,,,,,,,,,,,,,,,,,,,,,,,,,,,,,,,,,,,,,,,,,,,,,,,,,,,,,,,,,,,,,,,,,,,,,,,,,,,,,,,,,,,,,,,,,,,,,,,,,,,,,,,,,,,,,,,,,,,,,,,,
0,10,10,18,1,,611e1dc3639bf81baea53339,62bbfafacb653a0457507260,2022-06-29_09h13.26.554,Colour_Asymmetry_Pilot,2022.1.3,Win32,66.41429236,62bbe60bf3d75ef465d3e404,,,,,,,,,,,,,,,,,,,,,,,,,,,,,,,,,,,,,,,,,,,,,,,,,,,,,,,,,,,,,,,,,,,,,,,,,,,,,,,,,,,,,,,,,,,,,,,,,,,,,,,,,,,,,,,,,,,,,,,,,,,,,,,,,,,,,,,,,,,,,,,,,,,,,,,,,,,,,,
0,11,11,64,1,,611e1dc3639bf81baea53339,62bbfafacb653a0457507260,2022-06-29_09h13.26.554,Colour_Asymmetry_Pilot,2022.1.3,Win32,66.41429236,62bbe60bf3d75ef465d3e404,,,,,,,,,,,,,,,,,,,,,,,,,,,,,,,,,,,,,,,,,,,,,,,,,,,,,,,,,,,,,,,,,,,,,,,,,,,,,,,,,,,,,,,,,,,,,,,,,,,,,,,,,,,,,,,,,,,,,,,,,,,,,,,,,,,,,,,,,,,,,,,,,,,,,,,,,,,,,,
0,12,12,22,1,,611e1dc3639bf81baea53339,62bbfafacb653a0457507260,2022-06-29_09h13.26.554,Colour_Asymmetry_Pilot,2022.1.3,Win32,66.41429236,62bbe60bf3d75ef465d3e404,,,,,,,,,,,,,,,,,,,,,,,,,,,,,,,,,,,,,,,,,,,,,,,,,,,,,,,,,,,,,,,,,,,,,,,,,,,,,,,,,,,,,,,,,,,,,,,,,,,,,,,,,,,,,,,,,,,,,,,,,,,,,,,,,,,,,,,,,,,,,,,,,,,,,,,,,,,,,,
0,13,13,56,1,,611e1dc3639bf81baea53339,62bbfafacb653a0457507260,2022-06-29_09h13.26.554,Colour_Asymmetry_Pilot,2022.1.3,Win32,66.41429236,62bbe60bf3d75ef465d3e404,,,,,,,,,,,,,,,,,,,,,,,,,,,,,,,,,,,,,,,,,,,,,,,,,,,,,,,,,,,,,,,,,,,,,,,,,,,,,,,,,,,,,,,,,,,,,,,,,,,,,,,,,,,,,,,,,,,,,,,,,,,,,,,,,,,,,,,,,,,,,,,,,,,,,,,,,,,,,,
0,14,14,67,1,,611e1dc3639bf81baea53339,62bbfafacb653a0457507260,2022-06-29_09h13.26.554,Colour_Asymmetry_Pilot,2022.1.3,Win32,66.41429236,62bbe60bf3d75ef465d3e404,,,,,,,,,,,,,,,,,,,,,,,,,,,,,,,,,,,,,,,,,,,,,,,,,,,,,,,,,,,,,,,,,,,,,,,,,,,,,,,,,,,,,,,,,,,,,,,,,,,,,,,,,,,,,,,,,,,,,,,,,,,,,,,,,,,,,,,,,,,,,,,,,,,,,,,,,,,,,,
0,15,15,29,1,,611e1dc3639bf81baea53339,62bbfafacb653a0457507260,2022-06-29_09h13.26.554,Colour_Asymmetry_Pilot,2022.1.3,Win32,66.41429236,62bbe60bf3d75ef465d3e404,,,,,,,,,,,,,,,,,,,,,,,,,,,,,,,,,,,,,,,,,,,,,,,,,,,,,,,,,,,,,,,,,,,,,,,,,,,,,,,,,,,,,,,,,,,,,,,,,,,,,,,,,,,,,,,,,,,,,,,,,,,,,,,,,,,,,,,,,,,,,,,,,,,,,,,,,,,,,,
0,16,16,90,1,,611e1dc3639bf81baea53339,62bbfafacb653a0457507260,2022-06-29_09h13.26.554,Colour_Asymmetry_Pilot,2022.1.3,Win32,66.41429236,62bbe60bf3d75ef465d3e404,,,,,,,,,,,,,,,,,,,,,,,,,,,,,,,,,,,,,,,,,,,,,,,,,,,,,,,,,,,,,,,,,,,,,,,,,,,,,,,,,,,,,,,,,,,,,,,,,,,,,,,,,,,,,,,,,,,,,,,,,,,,,,,,,,,,,,,,,,,,,,,,,,,,,,,,,,,,,,
0,17,17,41,1,,611e1dc3639bf81baea53339,62bbfafacb653a0457507260,2022-06-29_09h13.26.554,Colour_Asymmetry_Pilot,2022.1.3,Win32,66.41429236,62bbe60bf3d75ef465d3e404,,,,,,,,,,,,,,,,,,,,,,,,,,,,,,,,,,,,,,,,,,,,,,,,,,,,,,,,,,,,,,,,,,,,,,,,,,,,,,,,,,,,,,,,,,,,,,,,,,,,,,,,,,,,,,,,,,,,,,,,,,,,,,,,,,,,,,,,,,,,,,,,,,,,,,,,,,,,,,
0,18,18,31,1,,611e1dc3639bf81baea53339,62bbfafacb653a0457507260,2022-06-29_09h13.26.554,Colour_Asymmetry_Pilot,2022.1.3,Win32,66.41429236,62bbe60bf3d75ef465d3e404,,,,,,,,,,,,,,,,,,,,,,,,,,,,,,,,,,,,,,,,,,,,,,,,,,,,,,,,,,,,,,,,,,,,,,,,,,,,,,,,,,,,,,,,,,,,,,,,,,,,,,,,,,,,,,,,,,,,,,,,,,,,,,,,,,,,,,,,,,,,,,,,,,,,,,,,,,,,,,
0,19,19,43,1,,611e1dc3639bf81baea53339,62bbfafacb653a0457507260,2022-06-29_09h13.26.554,Colour_Asymmetry_Pilot,2022.1.3,Win32,66.41429236,62bbe60bf3d75ef465d3e404,,,,,,,,,,,,,,,,,,,,,,,,,,,,,,,,,,,,,,,,,,,,,,,,,,,,,,,,,,,,,,,,,,,,,,,,,,,,,,,,,,,,,,,,,,,,,,,,,,,,,,,,,,,,,,,,,,,,,,,,,,,,,,,,,,,,,,,,,,,,,,,,,,,,,,,,,,,,,,
0,20,20,24,1,,611e1dc3639bf81baea53339,62bbfafacb653a0457507260,2022-06-29_09h13.26.554,Colour_Asymmetry_Pilot,2022.1.3,Win32,66.41429236,62bbe60bf3d75ef465d3e404,,,,,,,,,,,,,,,,,,,,,,,,,,,,,,,,,,,,,,,,,,,,,,,,,,,,,,,,,,,,,,,,,,,,,,,,,,,,,,,,,,,,,,,,,,,,,,,,,,,,,,,,,,,,,,,,,,,,,,,,,,,,,,,,,,,,,,,,,,,,,,,,,,,,,,,,,,,,,,
0,21,21,87,1,,611e1dc3639bf81baea53339,62bbfafacb653a0457507260,2022-06-29_09h13.26.554,Colour_Asymmetry_Pilot,2022.1.3,Win32,66.41429236,62bbe60bf3d75ef465d3e404,,,,,,,,,,,,,,,,,,,,,,,,,,,,,,,,,,,,,,,,,,,,,,,,,,,,,,,,,,,,,,,,,,,,,,,,,,,,,,,,,,,,,,,,,,,,,,,,,,,,,,,,,,,,,,,,,,,,,,,,,,,,,,,,,,,,,,,,,,,,,,,,,,,,,,,,,,,,,,
0,22,22,39,1,,611e1dc3639bf81baea53339,62bbfafacb653a0457507260,2022-06-29_09h13.26.554,Colour_Asymmetry_Pilot,2022.1.3,Win32,66.41429236,62bbe60bf3d75ef465d3e404,,,,,,,,,,,,,,,,,,,,,,,,,,,,,,,,,,,,,,,,,,,,,,,,,,,,,,,,,,,,,,,,,,,,,,,,,,,,,,,,,,,,,,,,,,,,,,,,,,,,,,,,,,,,,,,,,,,,,,,,,,,,,,,,,,,,,,,,,,,,,,,,,,,,,,,,,,,,,,
0,23,23,75,1,,611e1dc3639bf81baea53339,62bbfafacb653a0457507260,2022-06-29_09h13.26.554,Colour_Asymmetry_Pilot,2022.1.3,Win32,66.41429236,62bbe60bf3d75ef465d3e404,,,,,,,,,,,,,,,,,,,,,,,,,,,,,,,,,,,,,,,,,,,,,,,,,,,,,,,,,,,,,,,,,,,,,,,,,,,,,,,,,,,,,,,,,,,,,,,,,,,,,,,,,,,,,,,,,,,,,,,,,,,,,,,,,,,,,,,,,,,,,,,,,,,,,,,,,,,,,,
0,24,24,6,1,,611e1dc3639bf81baea53339,62bbfafacb653a0457507260,2022-06-29_09h13.26.554,Colour_Asymmetry_Pilot,2022.1.3,Win32,66.41429236,62bbe60bf3d75ef465d3e404,,,,,,,,,,,,,,,,,,,,,,,,,,,,,,,,,,,,,,,,,,,,,,,,,,,,,,,,,,,,,,,,,,,,,,,,,,,,,,,,,,,,,,,,,,,,,,,,,,,,,,,,,,,,,,,,,,,,,,,,,,,,,,,,,,,,,,,,,,,,,,,,,,,,,,,,,,,,,,
0,25,25,59,1,,611e1dc3639bf81baea53339,62bbfafacb653a0457507260,2022-06-29_09h13.26.554,Colour_Asymmetry_Pilot,2022.1.3,Win32,66.41429236,62bbe60bf3d75ef465d3e404,,,,,,,,,,,,,,,,,,,,,,,,,,,,,,,,,,,,,,,,,,,,,,,,,,,,,,,,,,,,,,,,,,,,,,,,,,,,,,,,,,,,,,,,,,,,,,,,,,,,,,,,,,,,,,,,,,,,,,,,,,,,,,,,,,,,,,,,,,,,,,,,,,,,,,,,,,,,,,
0,26,26,7,1,,611e1dc3639bf81baea53339,62bbfafacb653a0457507260,2022-06-29_09h13.26.554,Colour_Asymmetry_Pilot,2022.1.3,Win32,66.41429236,62bbe60bf3d75ef465d3e404,,,,,,,,,,,,,,,,,,,,,,,,,,,,,,,,,,,,,,,,,,,,,,,,,,,,,,,,,,,,,,,,,,,,,,,,,,,,,,,,,,,,,,,,,,,,,,,,,,,,,,,,,,,,,,,,,,,,,,,,,,,,,,,,,,,,,,,,,,,,,,,,,,,,,,,,,,,,,,
0,27,27,69,1,,611e1dc3639bf81baea53339,62bbfafacb653a0457507260,2022-06-29_09h13.26.554,Colour_Asymmetry_Pilot,2022.1.3,Win32,66.41429236,62bbe60bf3d75ef465d3e404,,,,,,,,,,,,,,,,,,,,,,,,,,,,,,,,,,,,,,,,,,,,,,,,,,,,,,,,,,,,,,,,,,,,,,,,,,,,,,,,,,,,,,,,,,,,,,,,,,,,,,,,,,,,,,,,,,,,,,,,,,,,,,,,,,,,,,,,,,,,,,,,,,,,,,,,,,,,,,
0,28,28,40,1,,611e1dc3639bf81baea53339,62bbfafacb653a0457507260,2022-06-29_09h13.26.554,Colour_Asymmetry_Pilot,2022.1.3,Win32,66.41429236,62bbe60bf3d75ef465d3e404,,,,,,,,,,,,,,,,,,,,,,,,,,,,,,,,,,,,,,,,,,,,,,,,,,,,,,,,,,,,,,,,,,,,,,,,,,,,,,,,,,,,,,,,,,,,,,,,,,,,,,,,,,,,,,,,,,,,,,,,,,,,,,,,,,,,,,,,,,,,,,,,,,,,,,,,,,,,,,
0,29,29,8,1,,611e1dc3639bf81baea53339,62bbfafacb653a0457507260,2022-06-29_09h13.26.554,Colour_Asymmetry_Pilot,2022.1.3,Win32,66.41429236,62bbe60bf3d75ef465d3e404,,,,,,,,,,,,,,,,,,,,,,,,,,,,,,,,,,,,,,,,,,,,,,,,,,,,,,,,,,,,,,,,,,,,,,,,,,,,,,,,,,,,,,,,,,,,,,,,,,,,,,,,,,,,,,,,,,,,,,,,,,,,,,,,,,,,,,,,,,,,,,,,,,,,,,,,,,,,,,
0,30,30,15,1,,611e1dc3639bf81baea53339,62bbfafacb653a0457507260,2022-06-29_09h13.26.554,Colour_Asymmetry_Pilot,2022.1.3,Win32,66.41429236,62bbe60bf3d75ef465d3e404,,,,,,,,,,,,,,,,,,,,,,,,,,,,,,,,,,,,,,,,,,,,,,,,,,,,,,,,,,,,,,,,,,,,,,,,,,,,,,,,,,,,,,,,,,,,,,,,,,,,,,,,,,,,,,,,,,,,,,,,,,,,,,,,,,,,,,,,,,,,,,,,,,,,,,,,,,,,,,
0,31,31,51,1,,611e1dc3639bf81baea53339,62bbfafacb653a0457507260,2022-06-29_09h13.26.554,Colour_Asymmetry_Pilot,2022.1.3,Win32,66.41429236,62bbe60bf3d75ef465d3e404,,,,,,,,,,,,,,,,,,,,,,,,,,,,,,,,,,,,,,,,,,,,,,,,,,,,,,,,,,,,,,,,,,,,,,,,,,,,,,,,,,,,,,,,,,,,,,,,,,,,,,,,,,,,,,,,,,,,,,,,,,,,,,,,,,,,,,,,,,,,,,,,,,,,,,,,,,,,,,
0,32,32,74,1,,611e1dc3639bf81baea53339,62bbfafacb653a0457507260,2022-06-29_09h13.26.554,Colour_Asymmetry_Pilot,2022.1.3,Win32,66.41429236,62bbe60bf3d75ef465d3e404,,,,,,,,,,,,,,,,,,,,,,,,,,,,,,,,,,,,,,,,,,,,,,,,,,,,,,,,,,,,,,,,,,,,,,,,,,,,,,,,,,,,,,,,,,,,,,,,,,,,,,,,,,,,,,,,,,,,,,,,,,,,,,,,,,,,,,,,,,,,,,,,,,,,,,,,,,,,,,
0,33,33,55,1,,611e1dc3639bf81baea53339,62bbfafacb653a0457507260,2022-06-29_09h13.26.554,Colour_Asymmetry_Pilot,2022.1.3,Win32,66.41429236,62bbe60bf3d75ef465d3e404,,,,,,,,,,,,,,,,,,,,,,,,,,,,,,,,,,,,,,,,,,,,,,,,,,,,,,,,,,,,,,,,,,,,,,,,,,,,,,,,,,,,,,,,,,,,,,,,,,,,,,,,,,,,,,,,,,,,,,,,,,,,,,,,,,,,,,,,,,,,,,,,,,,,,,,,,,,,,,
0,34,34,4,1,,611e1dc3639bf81baea53339,62bbfafacb653a0457507260,2022-06-29_09h13.26.554,Colour_Asymmetry_Pilot,2022.1.3,Win32,66.41429236,62bbe60bf3d75ef465d3e404,,,,,,,,,,,,,,,,,,,,,,,,,,,,,,,,,,,,,,,,,,,,,,,,,,,,,,,,,,,,,,,,,,,,,,,,,,,,,,,,,,,,,,,,,,,,,,,,,,,,,,,,,,,,,,,,,,,,,,,,,,,,,,,,,,,,,,,,,,,,,,,,,,,,,,,,,,,,,,
0,35,35,68,1,,611e1dc3639bf81baea53339,62bbfafacb653a0457507260,2022-06-29_09h13.26.554,Colour_Asymmetry_Pilot,2022.1.3,Win32,66.41429236,62bbe60bf3d75ef465d3e404,,,,,,,,,,,,,,,,,,,,,,,,,,,,,,,,,,,,,,,,,,,,,,,,,,,,,,,,,,,,,,,,,,,,,,,,,,,,,,,,,,,,,,,,,,,,,,,,,,,,,,,,,,,,,,,,,,,,,,,,,,,,,,,,,,,,,,,,,,,,,,,,,,,,,,,,,,,,,,
0,36,36,37,1,,611e1dc3639bf81baea53339,62bbfafacb653a0457507260,2022-06-29_09h13.26.554,Colour_Asymmetry_Pilot,2022.1.3,Win32,66.41429236,62bbe60bf3d75ef465d3e404,,,,,,,,,,,,,,,,,,,,,,,,,,,,,,,,,,,,,,,,,,,,,,,,,,,,,,,,,,,,,,,,,,,,,,,,,,,,,,,,,,,,,,,,,,,,,,,,,,,,,,,,,,,,,,,,,,,,,,,,,,,,,,,,,,,,,,,,,,,,,,,,,,,,,,,,,,,,,,
0,37,37,23,1,,611e1dc3639bf81baea53339,62bbfafacb653a0457507260,2022-06-29_09h13.26.554,Colour_Asymmetry_Pilot,2022.1.3,Win32,66.41429236,62bbe60bf3d75ef465d3e404,,,,,,,,,,,,,,,,,,,,,,,,,,,,,,,,,,,,,,,,,,,,,,,,,,,,,,,,,,,,,,,,,,,,,,,,,,,,,,,,,,,,,,,,,,,,,,,,,,,,,,,,,,,,,,,,,,,,,,,,,,,,,,,,,,,,,,,,,,,,,,,,,,,,,,,,,,,,,,
0,38,38,27,1,,611e1dc3639bf81baea53339,62bbfafacb653a0457507260,2022-06-29_09h13.26.554,Colour_Asymmetry_Pilot,2022.1.3,Win32,66.41429236,62bbe60bf3d75ef465d3e404,,,,,,,,,,,,,,,,,,,,,,,,,,,,,,,,,,,,,,,,,,,,,,,,,,,,,,,,,,,,,,,,,,,,,,,,,,,,,,,,,,,,,,,,,,,,,,,,,,,,,,,,,,,,,,,,,,,,,,,,,,,,,,,,,,,,,,,,,,,,,,,,,,,,,,,,,,,,,,
0,39,39,3,1,,611e1dc3639bf81baea53339,62bbfafacb653a0457507260,2022-06-29_09h13.26.554,Colour_Asymmetry_Pilot,2022.1.3,Win32,66.41429236,62bbe60bf3d75ef465d3e404,,,,,,,,,,,,,,,,,,,,,,,,,,,,,,,,,,,,,,,,,,,,,,,,,,,,,,,,,,,,,,,,,,,,,,,,,,,,,,,,,,,,,,,,,,,,,,,,,,,,,,,,,,,,,,,,,,,,,,,,,,,,,,,,,,,,,,,,,,,,,,,,,,,,,,,,,,,,,,
0,40,40,48,1,,611e1dc3639bf81baea53339,62bbfafacb653a0457507260,2022-06-29_09h13.26.554,Colour_Asymmetry_Pilot,2022.1.3,Win32,66.41429236,62bbe60bf3d75ef465d3e404,,,,,,,,,,,,,,,,,,,,,,,,,,,,,,,,,,,,,,,,,,,,,,,,,,,,,,,,,,,,,,,,,,,,,,,,,,,,,,,,,,,,,,,,,,,,,,,,,,,,,,,,,,,,,,,,,,,,,,,,,,,,,,,,,,,,,,,,,,,,,,,,,,,,,,,,,,,,,,
0,41,41,70,1,,611e1dc3639bf81baea53339,62bbfafacb653a0457507260,2022-06-29_09h13.26.554,Colour_Asymmetry_Pilot,2022.1.3,Win32,66.41429236,62bbe60bf3d75ef465d3e404,,,,,,,,,,,,,,,,,,,,,,,,,,,,,,,,,,,,,,,,,,,,,,,,,,,,,,,,,,,,,,,,,,,,,,,,,,,,,,,,,,,,,,,,,,,,,,,,,,,,,,,,,,,,,,,,,,,,,,,,,,,,,,,,,,,,,,,,,,,,,,,,,,,,,,,,,,,,,,
0,42,42,84,1,,611e1dc3639bf81baea53339,62bbfafacb653a0457507260,2022-06-29_09h13.26.554,Colour_Asymmetry_Pilot,2022.1.3,Win32,66.41429236,62bbe60bf3d75ef465d3e404,,,,,,,,,,,,,,,,,,,,,,,,,,,,,,,,,,,,,,,,,,,,,,,,,,,,,,,,,,,,,,,,,,,,,,,,,,,,,,,,,,,,,,,,,,,,,,,,,,,,,,,,,,,,,,,,,,,,,,,,,,,,,,,,,,,,,,,,,,,,,,,,,,,,,,,,,,,,,,
0,43,43,5,1,,611e1dc3639bf81baea53339,62bbfafacb653a0457507260,2022-06-29_09h13.26.554,Colour_Asymmetry_Pilot,2022.1.3,Win32,66.41429236,62bbe60bf3d75ef465d3e404,,,,,,,,,,,,,,,,,,,,,,,,,,,,,,,,,,,,,,,,,,,,,,,,,,,,,,,,,,,,,,,,,,,,,,,,,,,,,,,,,,,,,,,,,,,,,,,,,,,,,,,,,,,,,,,,,,,,,,,,,,,,,,,,,,,,,,,,,,,,,,,,,,,,,,,,,,,,,,
0,44,44,32,1,,611e1dc3639bf81baea53339,62bbfafacb653a0457507260,2022-06-29_09h13.26.554,Colour_Asymmetry_Pilot,2022.1.3,Win32,66.41429236,62bbe60bf3d75ef465d3e404,,,,,,,,,,,,,,,,,,,,,,,,,,,,,,,,,,,,,,,,,,,,,,,,,,,,,,,,,,,,,,,,,,,,,,,,,,,,,,,,,,,,,,,,,,,,,,,,,,,,,,,,,,,,,,,,,,,,,,,,,,,,,,,,,,,,,,,,,,,,,,,,,,,,,,,,,,,,,,
0,45,45,21,1,,611e1dc3639bf81baea53339,62bbfafacb653a0457507260,2022-06-29_09h13.26.554,Colour_Asymmetry_Pilot,2022.1.3,Win32,66.41429236,62bbe60bf3d75ef465d3e404,,,,,,,,,,,,,,,,,,,,,,,,,,,,,,,,,,,,,,,,,,,,,,,,,,,,,,,,,,,,,,,,,,,,,,,,,,,,,,,,,,,,,,,,,,,,,,,,,,,,,,,,,,,,,,,,,,,,,,,,,,,,,,,,,,,,,,,,,,,,,,,,,,,,,,,,,,,,,,
0,46,46,54,1,,611e1dc3639bf81baea53339,62bbfafacb653a0457507260,2022-06-29_09h13.26.554,Colour_Asymmetry_Pilot,2022.1.3,Win32,66.41429236,62bbe60bf3d75ef465d3e404,,,,,,,,,,,,,,,,,,,,,,,,,,,,,,,,,,,,,,,,,,,,,,,,,,,,,,,,,,,,,,,,,,,,,,,,,,,,,,,,,,,,,,,,,,,,,,,,,,,,,,,,,,,,,,,,,,,,,,,,,,,,,,,,,,,,,,,,,,,,,,,,,,,,,,,,,,,,,,
0,47,47,85,1,,611e1dc3639bf81baea53339,62bbfafacb653a0457507260,2022-06-29_09h13.26.554,Colour_Asymmetry_Pilot,2022.1.3,Win32,66.41429236,62bbe60bf3d75ef465d3e404,,,,,,,,,,,,,,,,,,,,,,,,,,,,,,,,,,,,,,,,,,,,,,,,,,,,,,,,,,,,,,,,,,,,,,,,,,,,,,,,,,,,,,,,,,,,,,,,,,,,,,,,,,,,,,,,,,,,,,,,,,,,,,,,,,,,,,,,,,,,,,,,,,,,,,,,,,,,,,
0,48,48,25,1,,611e1dc3639bf81baea53339,62bbfafacb653a0457507260,2022-06-29_09h13.26.554,Colour_Asymmetry_Pilot,2022.1.3,Win32,66.41429236,62bbe60bf3d75ef465d3e404,,,,,,,,,,,,,,,,,,,,,,,,,,,,,,,,,,,,,,,,,,,,,,,,,,,,,,,,,,,,,,,,,,,,,,,,,,,,,,,,,,,,,,,,,,,,,,,,,,,,,,,,,,,,,,,,,,,,,,,,,,,,,,,,,,,,,,,,,,,,,,,,,,,,,,,,,,,,,,
0,49,49,61,1,,611e1dc3639bf81baea53339,62bbfafacb653a0457507260,2022-06-29_09h13.26.554,Colour_Asymmetry_Pilot,2022.1.3,Win32,66.41429236,62bbe60bf3d75ef465d3e404,,,,,,,,,,,,,,,,,,,,,,,,,,,,,,,,,,,,,,,,,,,,,,,,,,,,,,,,,,,,,,,,,,,,,,,,,,,,,,,,,,,,,,,,,,,,,,,,,,,,,,,,,,,,,,,,,,,,,,,,,,,,,,,,,,,,,,,,,,,,,,,,,,,,,,,,,,,,,,
0,50,50,38,1,,611e1dc3639bf81baea53339,62bbfafacb653a0457507260,2022-06-29_09h13.26.554,Colour_Asymmetry_Pilot,2022.1.3,Win32,66.41429236,62bbe60bf3d75ef465d3e404,,,,,,,,,,,,,,,,,,,,,,,,,,,,,,,,,,,,,,,,,,,,,,,,,,,,,,,,,,,,,,,,,,,,,,,,,,,,,,,,,,,,,,,,,,,,,,,,,,,,,,,,,,,,,,,,,,,,,,,,,,,,,,,,,,,,,,,,,,,,,,,,,,,,,,,,,,,,,,
0,51,51,11,1,,611e1dc3639bf81baea53339,62bbfafacb653a0457507260,2022-06-29_09h13.26.554,Colour_Asymmetry_Pilot,2022.1.3,Win32,66.41429236,62bbe60bf3d75ef465d3e404,,,,,,,,,,,,,,,,,,,,,,,,,,,,,,,,,,,,,,,,,,,,,,,,,,,,,,,,,,,,,,,,,,,,,,,,,,,,,,,,,,,,,,,,,,,,,,,,,,,,,,,,,,,,,,,,,,,,,,,,,,,,,,,,,,,,,,,,,,,,,,,,,,,,,,,,,,,,,,
0,52,52,14,1,,611e1dc3639bf81baea53339,62bbfafacb653a0457507260,2022-06-29_09h13.26.554,Colour_Asymmetry_Pilot,2022.1.3,Win32,66.41429236,62bbe60bf3d75ef465d3e404,,,,,,,,,,,,,,,,,,,,,,,,,,,,,,,,,,,,,,,,,,,,,,,,,,,,,,,,,,,,,,,,,,,,,,,,,,,,,,,,,,,,,,,,,,,,,,,,,,,,,,,,,,,,,,,,,,,,,,,,,,,,,,,,,,,,,,,,,,,,,,,,,,,,,,,,,,,,,,
0,53,53,16,1,,611e1dc3639bf81baea53339,62bbfafacb653a0457507260,2022-06-29_09h13.26.554,Colour_Asymmetry_Pilot,2022.1.3,Win32,66.41429236,62bbe60bf3d75ef465d3e404,,,,,,,,,,,,,,,,,,,,,,,,,,,,,,,,,,,,,,,,,,,,,,,,,,,,,,,,,,,,,,,,,,,,,,,,,,,,,,,,,,,,,,,,,,,,,,,,,,,,,,,,,,,,,,,,,,,,,,,,,,,,,,,,,,,,,,,,,,,,,,,,,,,,,,,,,,,,,,
0,54,54,58,1,,611e1dc3639bf81baea53339,62bbfafacb653a0457507260,2022-06-29_09h13.26.554,Colour_Asymmetry_Pilot,2022.1.3,Win32,66.41429236,62bbe60bf3d75ef465d3e404,,,,,,,,,,,,,,,,,,,,,,,,,,,,,,,,,,,,,,,,,,,,,,,,,,,,,,,,,,,,,,,,,,,,,,,,,,,,,,,,,,,,,,,,,,,,,,,,,,,,,,,,,,,,,,,,,,,,,,,,,,,,,,,,,,,,,,,,,,,,,,,,,,,,,,,,,,,,,,
0,55,55,63,1,,611e1dc3639bf81baea53339,62bbfafacb653a0457507260,2022-06-29_09h13.26.554,Colour_Asymmetry_Pilot,2022.1.3,Win32,66.41429236,62bbe60bf3d75ef465d3e404,,,,,,,,,,,,,,,,,,,,,,,,,,,,,,,,,,,,,,,,,,,,,,,,,,,,,,,,,,,,,,,,,,,,,,,,,,,,,,,,,,,,,,,,,,,,,,,,,,,,,,,,,,,,,,,,,,,,,,,,,,,,,,,,,,,,,,,,,,,,,,,,,,,,,,,,,,,,,,
0,56,56,34,1,,611e1dc3639bf81baea53339,62bbfafacb653a0457507260,2022-06-29_09h13.26.554,Colour_Asymmetry_Pilot,2022.1.3,Win32,66.41429236,62bbe60bf3d75ef465d3e404,,,,,,,,,,,,,,,,,,,,,,,,,,,,,,,,,,,,,,,,,,,,,,,,,,,,,,,,,,,,,,,,,,,,,,,,,,,,,,,,,,,,,,,,,,,,,,,,,,,,,,,,,,,,,,,,,,,,,,,,,,,,,,,,,,,,,,,,,,,,,,,,,,,,,,,,,,,,,,
0,57,57,79,1,,611e1dc3639bf81baea53339,62bbfafacb653a0457507260,2022-06-29_09h13.26.554,Colour_Asymmetry_Pilot,2022.1.3,Win32,66.41429236,62bbe60bf3d75ef465d3e404,,,,,,,,,,,,,,,,,,,,,,,,,,,,,,,,,,,,,,,,,,,,,,,,,,,,,,,,,,,,,,,,,,,,,,,,,,,,,,,,,,,,,,,,,,,,,,,,,,,,,,,,,,,,,,,,,,,,,,,,,,,,,,,,,,,,,,,,,,,,,,,,,,,,,,,,,,,,,,
0,58,58,9,1,,611e1dc3639bf81baea53339,62bbfafacb653a0457507260,2022-06-29_09h13.26.554,Colour_Asymmetry_Pilot,2022.1.3,Win32,66.41429236,62bbe60bf3d75ef465d3e404,,,,,,,,,,,,,,,,,,,,,,,,,,,,,,,,,,,,,,,,,,,,,,,,,,,,,,,,,,,,,,,,,,,,,,,,,,,,,,,,,,,,,,,,,,,,,,,,,,,,,,,,,,,,,,,,,,,,,,,,,,,,,,,,,,,,,,,,,,,,,,,,,,,,,,,,,,,,,,
0,59,59,35,1,,611e1dc3639bf81baea53339,62bbfafacb653a0457507260,2022-06-29_09h13.26.554,Colour_Asymmetry_Pilot,2022.1.3,Win32,66.41429236,62bbe60bf3d75ef465d3e404,,,,,,,,,,,,,,,,,,,,,,,,,,,,,,,,,,,,,,,,,,,,,,,,,,,,,,,,,,,,,,,,,,,,,,,,,,,,,,,,,,,,,,,,,,,,,,,,,,,,,,,,,,,,,,,,,,,,,,,,,,,,,,,,,,,,,,,,,,,,,,,,,,,,,,,,,,,,,,
0,60,60,10,1,,611e1dc3639bf81baea53339,62bbfafacb653a0457507260,2022-06-29_09h13.26.554,Colour_Asymmetry_Pilot,2022.1.3,Win32,66.41429236,62bbe60bf3d75ef465d3e404,,,,,,,,,,,,,,,,,,,,,,,,,,,,,,,,,,,,,,,,,,,,,,,,,,,,,,,,,,,,,,,,,,,,,,,,,,,,,,,,,,,,,,,,,,,,,,,,,,,,,,,,,,,,,,,,,,,,,,,,,,,,,,,,,,,,,,,,,,,,,,,,,,,,,,,,,,,,,,
0,61,61,80,1,,611e1dc3639bf81baea53339,62bbfafacb653a0457507260,2022-06-29_09h13.26.554,Colour_Asymmetry_Pilot,2022.1.3,Win32,66.41429236,62bbe60bf3d75ef465d3e404,,,,,,,,,,,,,,,,,,,,,,,,,,,,,,,,,,,,,,,,,,,,,,,,,,,,,,,,,,,,,,,,,,,,,,,,,,,,,,,,,,,,,,,,,,,,,,,,,,,,,,,,,,,,,,,,,,,,,,,,,,,,,,,,,,,,,,,,,,,,,,,,,,,,,,,,,,,,,,
0,62,62,20,1,,611e1dc3639bf81baea53339,62bbfafacb653a0457507260,2022-06-29_09h13.26.554,Colour_Asymmetry_Pilot,2022.1.3,Win32,66.41429236,62bbe60bf3d75ef465d3e404,,,,,,,,,,,,,,,,,,,,,,,,,,,,,,,,,,,,,,,,,,,,,,,,,,,,,,,,,,,,,,,,,,,,,,,,,,,,,,,,,,,,,,,,,,,,,,,,,,,,,,,,,,,,,,,,,,,,,,,,,,,,,,,,,,,,,,,,,,,,,,,,,,,,,,,,,,,,,,
0,63,63,45,1,,611e1dc3639bf81baea53339,62bbfafacb653a0457507260,2022-06-29_09h13.26.554,Colour_Asymmetry_Pilot,2022.1.3,Win32,66.41429236,62bbe60bf3d75ef465d3e404,,,,,,,,,,,,,,,,,,,,,,,,,,,,,,,,,,,,,,,,,,,,,,,,,,,,,,,,,,,,,,,,,,,,,,,,,,,,,,,,,,,,,,,,,,,,,,,,,,,,,,,,,,,,,,,,,,,,,,,,,,,,,,,,,,,,,,,,,,,,,,,,,,,,,,,,,,,,,,
0,64,64,92,1,,611e1dc3639bf81baea53339,62bbfafacb653a0457507260,2022-06-29_09h13.26.554,Colour_Asymmetry_Pilot,2022.1.3,Win32,66.41429236,62bbe60bf3d75ef465d3e404,,,,,,,,,,,,,,,,,,,,,,,,,,,,,,,,,,,,,,,,,,,,,,,,,,,,,,,,,,,,,,,,,,,,,,,,,,,,,,,,,,,,,,,,,,,,,,,,,,,,,,,,,,,,,,,,,,,,,,,,,,,,,,,,,,,,,,,,,,,,,,,,,,,,,,,,,,,,,,
0,65,65,83,1,,611e1dc3639bf81baea53339,62bbfafacb653a0457507260,2022-06-29_09h13.26.554,Colour_Asymmetry_Pilot,2022.1.3,Win32,66.41429236,62bbe60bf3d75ef465d3e404,,,,,,,,,,,,,,,,,,,,,,,,,,,,,,,,,,,,,,,,,,,,,,,,,,,,,,,,,,,,,,,,,,,,,,,,,,,,,,,,,,,,,,,,,,,,,,,,,,,,,,,,,,,,,,,,,,,,,,,,,,,,,,,,,,,,,,,,,,,,,,,,,,,,,,,,,,,,,,
0,66,66,50,1,,611e1dc3639bf81baea53339,62bbfafacb653a0457507260,2022-06-29_09h13.26.554,Colour_Asymmetry_Pilot,2022.1.3,Win32,66.41429236,62bbe60bf3d75ef465d3e404,,,,,,,,,,,,,,,,,,,,,,,,,,,,,,,,,,,,,,,,,,,,,,,,,,,,,,,,,,,,,,,,,,,,,,,,,,,,,,,,,,,,,,,,,,,,,,,,,,,,,,,,,,,,,,,,,,,,,,,,,,,,,,,,,,,,,,,,,,,,,,,,,,,,,,,,,,,,,,
0,67,67,46,1,,611e1dc3639bf81baea53339,62bbfafacb653a0457507260,2022-06-29_09h13.26.554,Colour_Asymmetry_Pilot,2022.1.3,Win32,66.41429236,62bbe60bf3d75ef465d3e404,,,,,,,,,,,,,,,,,,,,,,,,,,,,,,,,,,,,,,,,,,,,,,,,,,,,,,,,,,,,,,,,,,,,,,,,,,,,,,,,,,,,,,,,,,,,,,,,,,,,,,,,,,,,,,,,,,,,,,,,,,,,,,,,,,,,,,,,,,,,,,,,,,,,,,,,,,,,,,
0,68,68,82,1,,611e1dc3639bf81baea53339,62bbfafacb653a0457507260,2022-06-29_09h13.26.554,Colour_Asymmetry_Pilot,2022.1.3,Win32,66.41429236,62bbe60bf3d75ef465d3e404,,,,,,,,,,,,,,,,,,,,,,,,,,,,,,,,,,,,,,,,,,,,,,,,,,,,,,,,,,,,,,,,,,,,,,,,,,,,,,,,,,,,,,,,,,,,,,,,,,,,,,,,,,,,,,,,,,,,,,,,,,,,,,,,,,,,,,,,,,,,,,,,,,,,,,,,,,,,,,
0,69,69,72,1,,611e1dc3639bf81baea53339,62bbfafacb653a0457507260,2022-06-29_09h13.26.554,Colour_Asymmetry_Pilot,2022.1.3,Win32,66.41429236,62bbe60bf3d75ef465d3e404,,,,,,,,,,,,,,,,,,,,,,,,,,,,,,,,,,,,,,,,,,,,,,,,,,,,,,,,,,,,,,,,,,,,,,,,,,,,,,,,,,,,,,,,,,,,,,,,,,,,,,,,,,,,,,,,,,,,,,,,,,,,,,,,,,,,,,,,,,,,,,,,,,,,,,,,,,,,,,
0,70,70,60,1,,611e1dc3639bf81baea53339,62bbfafacb653a0457507260,2022-06-29_09h13.26.554,Colour_Asymmetry_Pilot,2022.1.3,Win32,66.41429236,62bbe60bf3d75ef465d3e404,,,,,,,,,,,,,,,,,,,,,,,,,,,,,,,,,,,,,,,,,,,,,,,,,,,,,,,,,,,,,,,,,,,,,,,,,,,,,,,,,,,,,,,,,,,,,,,,,,,,,,,,,,,,,,,,,,,,,,,,,,,,,,,,,,,,,,,,,,,,,,,,,,,,,,,,,,,,,,
0,71,71,78,1,,611e1dc3639bf81baea53339,62bbfafacb653a0457507260,2022-06-29_09h13.26.554,Colour_Asymmetry_Pilot,2022.1.3,Win32,66.41429236,62bbe60bf3d75ef465d3e404,,,,,,,,,,,,,,,,,,,,,,,,,,,,,,,,,,,,,,,,,,,,,,,,,,,,,,,,,,,,,,,,,,,,,,,,,,,,,,,,,,,,,,,,,,,,,,,,,,,,,,,,,,,,,,,,,,,,,,,,,,,,,,,,,,,,,,,,,,,,,,,,,,,,,,,,,,,,,,
0,72,72,88,1,,611e1dc3639bf81baea53339,62bbfafacb653a0457507260,2022-06-29_09h13.26.554,Colour_Asymmetry_Pilot,2022.1.3,Win32,66.41429236,62bbe60bf3d75ef465d3e404,,,,,,,,,,,,,,,,,,,,,,,,,,,,,,,,,,,,,,,,,,,,,,,,,,,,,,,,,,,,,,,,,,,,,,,,,,,,,,,,,,,,,,,,,,,,,,,,,,,,,,,,,,,,,,,,,,,,,,,,,,,,,,,,,,,,,,,,,,,,,,,,,,,,,,,,,,,,,,
0,73,73,1,1,,611e1dc3639bf81baea53339,62bbfafacb653a0457507260,2022-06-29_09h13.26.554,Colour_Asymmetry_Pilot,2022.1.3,Win32,66.41429236,62bbe60bf3d75ef465d3e404,,,,,,,,,,,,,,,,,,,,,,,,,,,,,,,,,,,,,,,,,,,,,,,,,,,,,,,,,,,,,,,,,,,,,,,,,,,,,,,,,,,,,,,,,,,,,,,,,,,,,,,,,,,,,,,,,,,,,,,,,,,,,,,,,,,,,,,,,,,,,,,,,,,,,,,,,,,,,,
0,74,74,77,1,,611e1dc3639bf81baea53339,62bbfafacb653a0457507260,2022-06-29_09h13.26.554,Colour_Asymmetry_Pilot,2022.1.3,Win32,66.41429236,62bbe60bf3d75ef465d3e404,,,,,,,,,,,,,,,,,,,,,,,,,,,,,,,,,,,,,,,,,,,,,,,,,,,,,,,,,,,,,,,,,,,,,,,,,,,,,,,,,,,,,,,,,,,,,,,,,,,,,,,,,,,,,,,,,,,,,,,,,,,,,,,,,,,,,,,,,,,,,,,,,,,,,,,,,,,,,,
0,75,75,91,1,,611e1dc3639bf81baea53339,62bbfafacb653a0457507260,2022-06-29_09h13.26.554,Colour_Asymmetry_Pilot,2022.1.3,Win32,66.41429236,62bbe60bf3d75ef465d3e404,,,,,,,,,,,,,,,,,,,,,,,,,,,,,,,,,,,,,,,,,,,,,,,,,,,,,,,,,,,,,,,,,,,,,,,,,,,,,,,,,,,,,,,,,,,,,,,,,,,,,,,,,,,,,,,,,,,,,,,,,,,,,,,,,,,,,,,,,,,,,,,,,,,,,,,,,,,,,,
0,76,76,36,1,,611e1dc3639bf81baea53339,62bbfafacb653a0457507260,2022-06-29_09h13.26.554,Colour_Asymmetry_Pilot,2022.1.3,Win32,66.41429236,62bbe60bf3d75ef465d3e404,,,,,,,,,,,,,,,,,,,,,,,,,,,,,,,,,,,,,,,,,,,,,,,,,,,,,,,,,,,,,,,,,,,,,,,,,,,,,,,,,,,,,,,,,,,,,,,,,,,,,,,,,,,,,,,,,,,,,,,,,,,,,,,,,,,,,,,,,,,,,,,,,,,,,,,,,,,,,,
0,77,77,19,1,,611e1dc3639bf81baea53339,62bbfafacb653a0457507260,2022-06-29_09h13.26.554,Colour_Asymmetry_Pilot,2022.1.3,Win32,66.41429236,62bbe60bf3d75ef465d3e404,,,,,,,,,,,,,,,,,,,,,,,,,,,,,,,,,,,,,,,,,,,,,,,,,,,,,,,,,,,,,,,,,,,,,,,,,,,,,,,,,,,,,,,,,,,,,,,,,,,,,,,,,,,,,,,,,,,,,,,,,,,,,,,,,,,,,,,,,,,,,,,,,,,,,,,,,,,,,,
0,78,78,76,1,,611e1dc3639bf81baea53339,62bbfafacb653a0457507260,2022-06-29_09h13.26.554,Colour_Asymmetry_Pilot,2022.1.3,Win32,66.41429236,62bbe60bf3d75ef465d3e404,,,,,,,,,,,,,,,,,,,,,,,,,,,,,,,,,,,,,,,,,,,,,,,,,,,,,,,,,,,,,,,,,,,,,,,,,,,,,,,,,,,,,,,,,,,,,,,,,,,,,,,,,,,,,,,,,,,,,,,,,,,,,,,,,,,,,,,,,,,,,,,,,,,,,,,,,,,,,,
0,79,79,13,1,,611e1dc3639bf81baea53339,62bbfafacb653a0457507260,2022-06-29_09h13.26.554,Colour_Asymmetry_Pilot,2022.1.3,Win32,66.41429236,62bbe60bf3d75ef465d3e404,,,,,,,,,,,,,,,,,,,,,,,,,,,,,,,,,,,,,,,,,,,,,,,,,,,,,,,,,,,,,,,,,,,,,,,,,,,,,,,,,,,,,,,,,,,,,,,,,,,,,,,,,,,,,,,,,,,,,,,,,,,,,,,,,,,,,,,,,,,,,,,,,,,,,,,,,,,,,,
0,80,80,89,1,,611e1dc3639bf81baea53339,62bbfafacb653a0457507260,2022-06-29_09h13.26.554,Colour_Asymmetry_Pilot,2022.1.3,Win32,66.41429236,62bbe60bf3d75ef465d3e404,,,,,,,,,,,,,,,,,,,,,,,,,,,,,,,,,,,,,,,,,,,,,,,,,,,,,,,,,,,,,,,,,,,,,,,,,,,,,,,,,,,,,,,,,,,,,,,,,,,,,,,,,,,,,,,,,,,,,,,,,,,,,,,,,,,,,,,,,,,,,,,,,,,,,,,,,,,,,,
0,81,81,12,1,,611e1dc3639bf81baea53339,62bbfafacb653a0457507260,2022-06-29_09h13.26.554,Colour_Asymmetry_Pilot,2022.1.3,Win32,66.41429236,62bbe60bf3d75ef465d3e404,,,,,,,,,,,,,,,,,,,,,,,,,,,,,,,,,,,,,,,,,,,,,,,,,,,,,,,,,,,,,,,,,,,,,,,,,,,,,,,,,,,,,,,,,,,,,,,,,,,,,,,,,,,,,,,,,,,,,,,,,,,,,,,,,,,,,,,,,,,,,,,,,,,,,,,,,,,,,,
0,82,82,17,1,,611e1dc3639bf81baea53339,62bbfafacb653a0457507260,2022-06-29_09h13.26.554,Colour_Asymmetry_Pilot,2022.1.3,Win32,66.41429236,62bbe60bf3d75ef465d3e404,,,,,,,,,,,,,,,,,,,,,,,,,,,,,,,,,,,,,,,,,,,,,,,,,,,,,,,,,,,,,,,,,,,,,,,,,,,,,,,,,,,,,,,,,,,,,,,,,,,,,,,,,,,,,,,,,,,,,,,,,,,,,,,,,,,,,,,,,,,,,,,,,,,,,,,,,,,,,,
0,83,83,73,1,,611e1dc3639bf81baea53339,62bbfafacb653a0457507260,2022-06-29_09h13.26.554,Colour_Asymmetry_Pilot,2022.1.3,Win32,66.41429236,62bbe60bf3d75ef465d3e404,,,,,,,,,,,,,,,,,,,,,,,,,,,,,,,,,,,,,,,,,,,,,,,,,,,,,,,,,,,,,,,,,,,,,,,,,,,,,,,,,,,,,,,,,,,,,,,,,,,,,,,,,,,,,,,,,,,,,,,,,,,,,,,,,,,,,,,,,,,,,,,,,,,,,,,,,,,,,,
0,84,84,65,1,,611e1dc3639bf81baea53339,62bbfafacb653a0457507260,2022-06-29_09h13.26.554,Colour_Asymmetry_Pilot,2022.1.3,Win32,66.41429236,62bbe60bf3d75ef465d3e404,,,,,,,,,,,,,,,,,,,,,,,,,,,,,,,,,,,,,,,,,,,,,,,,,,,,,,,,,,,,,,,,,,,,,,,,,,,,,,,,,,,,,,,,,,,,,,,,,,,,,,,,,,,,,,,,,,,,,,,,,,,,,,,,,,,,,,,,,,,,,,,,,,,,,,,,,,,,,,
0,85,85,2,1,,611e1dc3639bf81baea53339,62bbfafacb653a0457507260,2022-06-29_09h13.26.554,Colour_Asymmetry_Pilot,2022.1.3,Win32,66.41429236,62bbe60bf3d75ef465d3e404,,,,,,,,,,,,,,,,,,,,,,,,,,,,,,,,,,,,,,,,,,,,,,,,,,,,,,,,,,,,,,,,,,,,,,,,,,,,,,,,,,,,,,,,,,,,,,,,,,,,,,,,,,,,,,,,,,,,,,,,,,,,,,,,,,,,,,,,,,,,,,,,,,,,,,,,,,,,,,
0,86,86,26,1,,611e1dc3639bf81baea53339,62bbfafacb653a0457507260,2022-06-29_09h13.26.554,Colour_Asymmetry_Pilot,2022.1.3,Win32,66.41429236,62bbe60bf3d75ef465d3e404,,,,,,,,,,,,,,,,,,,,,,,,,,,,,,,,,,,,,,,,,,,,,,,,,,,,,,,,,,,,,,,,,,,,,,,,,,,,,,,,,,,,,,,,,,,,,,,,,,,,,,,,,,,,,,,,,,,,,,,,,,,,,,,,,,,,,,,,,,,,,,,,,,,,,,,,,,,,,,
0,87,87,28,1,,611e1dc3639bf81baea53339,62bbfafacb653a0457507260,2022-06-29_09h13.26.554,Colour_Asymmetry_Pilot,2022.1.3,Win32,66.41429236,62bbe60bf3d75ef465d3e404,,,,,,,,,,,,,,,,,,,,,,,,,,,,,,,,,,,,,,,,,,,,,,,,,,,,,,,,,,,,,,,,,,,,,,,,,,,,,,,,,,,,,,,,,,,,,,,,,,,,,,,,,,,,,,,,,,,,,,,,,,,,,,,,,,,,,,,,,,,,,,,,,,,,,,,,,,,,,,
0,88,88,0,1,,611e1dc3639bf81baea53339,62bbfafacb653a0457507260,2022-06-29_09h13.26.554,Colour_Asymmetry_Pilot,2022.1.3,Win32,66.41429236,62bbe60bf3d75ef465d3e404,,,,,,,,,,,,,,,,,,,,,,,,,,,,,,,,,,,,,,,,,,,,,,,,,,,,,,,,,,,,,,,,,,,,,,,,,,,,,,,,,,,,,,,,,,,,,,,,,,,,,,,,,,,,,,,,,,,,,,,,,,,,,,,,,,,,,,,,,,,,,,,,,,,,,,,,,,,,,,
0,89,89,30,1,,611e1dc3639bf81baea53339,62bbfafacb653a0457507260,2022-06-29_09h13.26.554,Colour_Asymmetry_Pilot,2022.1.3,Win32,66.41429236,62bbe60bf3d75ef465d3e404,,,,,,,,,,,,,,,,,,,,,,,,,,,,,,,,,,,,,,,,,,,,,,,,,,,,,,,,,,,,,,,,,,,,,,,,,,,,,,,,,,,,,,,,,,,,,,,,,,,,,,,,,,,,,,,,,,,,,,,,,,,,,,,,,,,,,,,,,,,,,,,,,,,,,,,,,,,,,,
0,90,90,53,1,,611e1dc3639bf81baea53339,62bbfafacb653a0457507260,2022-06-29_09h13.26.554,Colour_Asymmetry_Pilot,2022.1.3,Win32,66.41429236,62bbe60bf3d75ef465d3e404,,,,,,,,,,,,,,,,,,,,,,,,,,,,,,,,,,,,,,,,,,,,,,,,,,,,,,,,,,,,,,,,,,,,,,,,,,,,,,,,,,,,,,,,,,,,,,,,,,,,,,,,,,,,,,,,,,,,,,,,,,,,,,,,,,,,,,,,,,,,,,,,,,,,,,,,,,,,,,
0,91,91,62,1,,611e1dc3639bf81baea53339,62bbfafacb653a0457507260,2022-06-29_09h13.26.554,Colour_Asymmetry_Pilot,2022.1.3,Win32,66.41429236,62bbe60bf3d75ef465d3e404,,,,,,,,,,,,,,,,,,,,,,,,,,,,,,,,,,,,,,,,,,,,,,,,,,,,,,,,,,,,,,,,,,,,,,,,,,,,,,,,,,,,,,,,,,,,,,,,,,,,,,,,,,,,,,,,,,,,,,,,,,,,,,,,,,,,,,,,,,,,,,,,,,,,,,,,,,,,,,
0,92,92,52,1,,611e1dc3639bf81baea53339,62bbfafacb653a0457507260,2022-06-29_09h13.26.554,Colour_Asymmetry_Pilot,2022.1.3,Win32,66.41429236,62bbe60bf3d75ef465d3e404,,,,,,,,,,,,,,,,,,,,,,,,,,,,,,,,,,,,,,,,,,,,,,,,,,,,,,,,,,,,,,,,,,,,,,,,,,,,,,,,,,,,,,,,,,,,,,,,,,,,,,,,,,,,,,,,,,,,,,,,,,,,,,,,,,,,,,,,,,,,,,,,,,,,,,,,,,,,,,
,,,,,,611e1dc3639bf81baea53339,62bbfafacb653a0457507260,2022-06-29_09h13.26.554,Colour_Asymmetry_Pilot,2022.1.3,Win32,66.41429236,62bbe60bf3d75ef465d3e404,0,0,0,65,1,onethree,,,,,,,,,,,,,,,,,,,,,,,,,,,,,,,,,,,,,,,,,,,,,,,,,,,,,,,,,,,,,,,,,,,,,,,,,,,,,,,,,,,,,,,,,,,,,,,,,,,,,,,,,,,,,,,,,,,,,,,,,,,,,,,,,,,,,,,,,,,,,,,,,,,,,,,,
,,,,,,611e1dc3639bf81baea53339,62bbfafacb653a0457507260,2022-06-29_09h13.26.554,Colour_Asymmetry_Pilot,2022.1.3,Win32,66.41429236,62bbe60bf3d75ef465d3e404,0,1,1,53,1,threefour,,,,,,,,,,,,,,,,,,,,,,,,,,,,,,,,,,,,,,,,,,,,,,,,,,,,,,,,,,,,,,,,,,,,,,,,,,,,,,,,,,,,,,,,,,,,,,,,,,,,,,,,,,,,,,,,,,,,,,,,,,,,,,,,,,,,,,,,,,,,,,,,,,,,,,,,
,,,,,,611e1dc3639bf81baea53339,62bbfafacb653a0457507260,2022-06-29_09h13.26.554,Colour_Asymmetry_Pilot,2022.1.3,Win32,66.41429236,62bbe60bf3d75ef465d3e404,0,2,2,97,1,onethree,,,,,,,,,,,,,,,,,,,,,,,,,,,,,,,,,,,,,,,,,,,,,,,,,,,,,,,,,,,,,,,,,,,,,,,,,,,,,,,,,,,,,,,,,,,,,,,,,,,,,,,,,,,,,,,,,,,,,,,,,,,,,,,,,,,,,,,,,,,,,,,,,,,,,,,,
,,,,,,611e1dc3639bf81baea53339,62bbfafacb653a0457507260,2022-06-29_09h13.26.554,Colour_Asymmetry_Pilot,2022.1.3,Win32,66.41429236,62bbe60bf3d75ef465d3e404,0,3,3,131,1,twofour,,,,,,,,,,,,,,,,,,,,,,,,,,,,,,,,,,,,,,,,,,,,,,,,,,,,,,,,,,,,,,,,,,,,,,,,,,,,,,,,,,,,,,,,,,,,,,,,,,,,,,,,,,,,,,,,,,,,,,,,,,,,,,,,,,,,,,,,,,,,,,,,,,,,,,,,
,,,,,,611e1dc3639bf81baea53339,62bbfafacb653a0457507260,2022-06-29_09h13.26.554,Colour_Asymmetry_Pilot,2022.1.3,Win32,66.41429236,62bbe60bf3d75ef465d3e404,0,4,4,77,1,threefour,,,,,,,,,,,,,,,,,,,,,,,,,,,,,,,,,,,,,,,,,,,,,,,,,,,,,,,,,,,,,,,,,,,,,,,,,,,,,,,,,,,,,,,,,,,,,,,,,,,,,,,,,,,,,,,,,,,,,,,,,,,,,,,,,,,,,,,,,,,,,,,,,,,,,,,,
,,,,,,611e1dc3639bf81baea53339,62bbfafacb653a0457507260,2022-06-29_09h13.26.554,Colour_Asymmetry_Pilot,2022.1.3,Win32,66.41429236,62bbe60bf3d75ef465d3e404,0,5,5,96,1,onetwo,,,,,,,,,,,,,,,,,,,,,,,,,,,,,,,,,,,,,,,,,,,,,,,,,,,,,,,,,,,,,,,,,,,,,,,,,,,,,,,,,,,,,,,,,,,,,,,,,,,,,,,,,,,,,,,,,,,,,,,,,,,,,,,,,,,,,,,,,,,,,,,,,,,,,,,,
,,,,,,611e1dc3639bf81baea53339,62bbfafacb653a0457507260,2022-06-29_09h13.26.554,Colour_Asymmetry_Pilot,2022.1.3,Win32,66.41429236,62bbe60bf3d75ef465d3e404,0,6,6,82,1,twoone,,,,,,,,,,,,,,,,,,,,,,,,,,,,,,,,,,,,,,,,,,,,,,,,,,,,,,,,,,,,,,,,,,,,,,,,,,,,,,,,,,,,,,,,,,,,,,,,,,,,,,,,,,,,,,,,,,,,,,,,,,,,,,,,,,,,,,,,,,,,,,,,,,,,,,,,
,,,,,,611e1dc3639bf81baea53339,62bbfafacb653a0457507260,2022-06-29_09h13.26.554,Colour_Asymmetry_Pilot,2022.1.3,Win32,66.41429236,62bbe60bf3d75ef465d3e404,0,7,7,105,1,onethree,,,,,,,,,,,,,,,,,,,,,,,,,,,,,,,,,,,,,,,,,,,,,,,,,,,,,,,,,,,,,,,,,,,,,,,,,,,,,,,,,,,,,,,,,,,,,,,,,,,,,,,,,,,,,,,,,,,,,,,,,,,,,,,,,,,,,,,,,,,,,,,,,,,,,,,,
,,,,,,611e1dc3639bf81baea53339,62bbfafacb653a0457507260,2022-06-29_09h13.26.554,Colour_Asymmetry_Pilot,2022.1.3,Win32,66.41429236,62bbe60bf3d75ef465d3e404,0,8,8,47,1,fourthree,,,,,,,,,,,,,,,,,,,,,,,,,,,,,,,,,,,,,,,,,,,,,,,,,,,,,,,,,,,,,,,,,,,,,,,,,,,,,,,,,,,,,,,,,,,,,,,,,,,,,,,,,,,,,,,,,,,,,,,,,,,,,,,,,,,,,,,,,,,,,,,,,,,,,,,,
,,,,,,611e1dc3639bf81baea53339,62bbfafacb653a0457507260,2022-06-29_09h13.26.554,Colour_Asymmetry_Pilot,2022.1.3,Win32,66.41429236,62bbe60bf3d75ef465d3e404,0,9,9,35,1,twofour,,,,,,,,,,,,,,,,,,,,,,,,,,,,,,,,,,,,,,,,,,,,,,,,,,,,,,,,,,,,,,,,,,,,,,,,,,,,,,,,,,,,,,,,,,,,,,,,,,,,,,,,,,,,,,,,,,,,,,,,,,,,,,,,,,,,,,,,,,,,,,,,,,,,,,,,
,,,,,,611e1dc3639bf81baea53339,62bbfafacb653a0457507260,2022-06-29_09h13.26.554,Colour_Asymmetry_Pilot,2022.1.3,Win32,66.41429236,62bbe60bf3d75ef465d3e404,0,10,10,15,1,fourthree,,,,,,,,,,,,,,,,,,,,,,,,,,,,,,,,,,,,,,,,,,,,,,,,,,,,,,,,,,,,,,,,,,,,,,,,,,,,,,,,,,,,,,,,,,,,,,,,,,,,,,,,,,,,,,,,,,,,,,,,,,,,,,,,,,,,,,,,,,,,,,,,,,,,,,,,
,,,,,,611e1dc3639bf81baea53339,62bbfafacb653a0457507260,2022-06-29_09h13.26.554,Colour_Asymmetry_Pilot,2022.1.3,Win32,66.41429236,62bbe60bf3d75ef465d3e404,0,11,11,22,1,fourtwo,,,,,,,,,,,,,,,,,,,,,,,,,,,,,,,,,,,,,,,,,,,,,,,,,,,,,,,,,,,,,,,,,,,,,,,,,,,,,,,,,,,,,,,,,,,,,,,,,,,,,,,,,,,,,,,,,,,,,,,,,,,,,,,,,,,,,,,,,,,,,,,,,,,,,,,,
,,,,,,611e1dc3639bf81baea53339,62bbfafacb653a0457507260,2022-06-29_09h13.26.554,Colour_Asymmetry_Pilot,2022.1.3,Win32,66.41429236,62bbe60bf3d75ef465d3e404,0,12,12,130,1,twoone,,,,,,,,,,,,,,,,,,,,,,,,,,,,,,,,,,,,,,,,,,,,,,,,,,,,,,,,,,,,,,,,,,,,,,,,,,,,,,,,,,,,,,,,,,,,,,,,,,,,,,,,,,,,,,,,,,,,,,,,,,,,,,,,,,,,,,,,,,,,,,,,,,,,,,,,
,,,,,,611e1dc3639bf81baea53339,62bbfafacb653a0457507260,2022-06-29_09h13.26.554,Colour_Asymmetry_Pilot,2022.1.3,Win32,66.41429236,62bbe60bf3d75ef465d3e404,0,13,13,76,1,threeone,,,,,,,,,,,,,,,,,,,,,,,,,,,,,,,,,,,,,,,,,,,,,,,,,,,,,,,,,,,,,,,,,,,,,,,,,,,,,,,,,,,,,,,,,,,,,,,,,,,,,,,,,,,,,,,,,,,,,,,,,,,,,,,,,,,,,,,,,,,,,,,,,,,,,,,,
,,,,,,611e1dc3639bf81baea53339,62bbfafacb653a0457507260,2022-06-29_09h13.26.554,Colour_Asymmetry_Pilot,2022.1.3,Win32,66.41429236,62bbe60bf3d75ef465d3e404,0,14,14,114,1,twoone,,,,,,,,,,,,,,,,,,,,,,,,,,,,,,,,,,,,,,,,,,,,,,,,,,,,,,,,,,,,,,,,,,,,,,,,,,,,,,,,,,,,,,,,,,,,,,,,,,,,,,,,,,,,,,,,,,,,,,,,,,,,,,,,,,,,,,,,,,,,,,,,,,,,,,,,
,,,,,,611e1dc3639bf81baea53339,62bbfafacb653a0457507260,2022-06-29_09h13.26.554,Colour_Asymmetry_Pilot,2022.1.3,Win32,66.41429236,62bbe60bf3d75ef465d3e404,0,15,15,1,1,onethree,,,,,,,,,,,,,,,,,,,,,,,,,,,,,,,,,,,,,,,,,,,,,,,,,,,,,,,,,,,,,,,,,,,,,,,,,,,,,,,,,,,,,,,,,,,,,,,,,,,,,,,,,,,,,,,,,,,,,,,,,,,,,,,,,,,,,,,,,,,,,,,,,,,,,,,,
,,,,,,611e1dc3639bf81baea53339,62bbfafacb653a0457507260,2022-06-29_09h13.26.554,Colour_Asymmetry_Pilot,2022.1.3,Win32,66.41429236,62bbe60bf3d75ef465d3e404,0,16,16,14,1,fourtwo,,,,,,,,,,,,,,,,,,,,,,,,,,,,,,,,,,,,,,,,,,,,,,,,,,,,,,,,,,,,,,,,,,,,,,,,,,,,,,,,,,,,,,,,,,,,,,,,,,,,,,,,,,,,,,,,,,,,,,,,,,,,,,,,,,,,,,,,,,,,,,,,,,,,,,,,
,,,,,,611e1dc3639bf81baea53339,62bbfafacb653a0457507260,2022-06-29_09h13.26.554,Colour_Asymmetry_Pilot,2022.1.3,Win32,66.41429236,62bbe60bf3d75ef465d3e404,0,17,17,121,1,onethree,,,,,,,,,,,,,,,,,,,,,,,,,,,,,,,,,,,,,,,,,,,,,,,,,,,,,,,,,,,,,,,,,,,,,,,,,,,,,,,,,,,,,,,,,,,,,,,,,,,,,,,,,,,,,,,,,,,,,,,,,,,,,,,,,,,,,,,,,,,,,,,,,,,,,,,,
,,,,,,611e1dc3639bf81baea53339,62bbfafacb653a0457507260,2022-06-29_09h13.26.554,Colour_Asymmetry_Pilot,2022.1.3,Win32,66.41429236,62bbe60bf3d75ef465d3e404,0,18,18,160,1,onetwo,,,,,,,,,,,,,,,,,,,,,,,,,,,,,,,,,,,,,,,,,,,,,,,,,,,,,,,,,,,,,,,,,,,,,,,,,,,,,,,,,,,,,,,,,,,,,,,,,,,,,,,,,,,,,,,,,,,,,,,,,,,,,,,,,,,,,,,,,,,,,,,,,,,,,,,,
,,,,,,611e1dc3639bf81baea53339,62bbfafacb653a0457507260,2022-06-29_09h13.26.554,Colour_Asymmetry_Pilot,2022.1.3,Win32,66.41429236,62bbe60bf3d75ef465d3e404,0,19,19,156,1,threeone,,,,,,,,,,,,,,,,,,,,,,,,,,,,,,,,,,,,,,,,,,,,,,,,,,,,,,,,,,,,,,,,,,,,,,,,,,,,,,,,,,,,,,,,,,,,,,,,,,,,,,,,,,,,,,,,,,,,,,,,,,,,,,,,,,,,,,,,,,,,,,,,,,,,,,,,
,,,,,,611e1dc3639bf81baea53339,62bbfafacb653a0457507260,2022-06-29_09h13.26.554,Colour_Asymmetry_Pilot,2022.1.3,Win32,66.41429236,62bbe60bf3d75ef465d3e404,0,20,20,85,1,threefour,,,,,,,,,,,,,,,,,,,,,,,,,,,,,,,,,,,,,,,,,,,,,,,,,,,,,,,,,,,,,,,,,,,,,,,,,,,,,,,,,,,,,,,,,,,,,,,,,,,,,,,,,,,,,,,,,,,,,,,,,,,,,,,,,,,,,,,,,,,,,,,,,,,,,,,,
,,,,,,611e1dc3639bf81baea53339,62bbfafacb653a0457507260,2022-06-29_09h13.26.554,Colour_Asymmetry_Pilot,2022.1.3,Win32,66.41429236,62bbe60bf3d75ef465d3e404,0,21,21,132,1,threeone,,,,,,,,,,,,,,,,,,,,,,,,,,,,,,,,,,,,,,,,,,,,,,,,,,,,,,,,,,,,,,,,,,,,,,,,,,,,,,,,,,,,,,,,,,,,,,,,,,,,,,,,,,,,,,,,,,,,,,,,,,,,,,,,,,,,,,,,,,,,,,,,,,,,,,,,
,,,,,,611e1dc3639bf81baea53339,62bbfafacb653a0457507260,2022-06-29_09h13.26.554,Colour_Asymmetry_Pilot,2022.1.3,Win32,66.41429236,62bbe60bf3d75ef465d3e404,0,22,22,125,1,threefour,,,,,,,,,,,,,,,,,,,,,,,,,,,,,,,,,,,,,,,,,,,,,,,,,,,,,,,,,,,,,,,,,,,,,,,,,,,,,,,,,,,,,,,,,,,,,,,,,,,,,,,,,,,,,,,,,,,,,,,,,,,,,,,,,,,,,,,,,,,,,,,,,,,,,,,,
,,,,,,611e1dc3639bf81baea53339,62bbfafacb653a0457507260,2022-06-29_09h13.26.554,Colour_Asymmetry_Pilot,2022.1.3,Win32,66.41429236,62bbe60bf3d75ef465d3e404,0,23,23,4,1,threeone,,,,,,,,,,,,,,,,,,,,,,,,,,,,,,,,,,,,,,,,,,,,,,,,,,,,,,,,,,,,,,,,,,,,,,,,,,,,,,,,,,,,,,,,,,,,,,,,,,,,,,,,,,,,,,,,,,,,,,,,,,,,,,,,,,,,,,,,,,,,,,,,,,,,,,,,
,,,,,,611e1dc3639bf81baea53339,62bbfafacb653a0457507260,2022-06-29_09h13.26.554,Colour_Asymmetry_Pilot,2022.1.3,Win32,66.41429236,62bbe60bf3d75ef465d3e404,0,24,24,127,1,fourthree,,,,,,,,,,,,,,,,,,,,,,,,,,,,,,,,,,,,,,,,,,,,,,,,,,,,,,,,,,,,,,,,,,,,,,,,,,,,,,,,,,,,,,,,,,,,,,,,,,,,,,,,,,,,,,,,,,,,,,,,,,,,,,,,,,,,,,,,,,,,,,,,,,,,,,,,
,,,,,,611e1dc3639bf81baea53339,62bbfafacb653a0457507260,2022-06-29_09h13.26.554,Colour_Asymmetry_Pilot,2022.1.3,Win32,66.41429236,62bbe60bf3d75ef465d3e404,0,25,25,109,1,threefour,,,,,,,,,,,,,,,,,,,,,,,,,,,,,,,,,,,,,,,,,,,,,,,,,,,,,,,,,,,,,,,,,,,,,,,,,,,,,,,,,,,,,,,,,,,,,,,,,,,,,,,,,,,,,,,,,,,,,,,,,,,,,,,,,,,,,,,,,,,,,,,,,,,,,,,,
,,,,,,611e1dc3639bf81baea53339,62bbfafacb653a0457507260,2022-06-29_09h13.26.554,Colour_Asymmetry_Pilot,2022.1.3,Win32,66.41429236,62bbe60bf3d75ef465d3e404,0,26,26,112,1,onetwo,,,,,,,,,,,,,,,,,,,,,,,,,,,,,,,,,,,,,,,,,,,,,,,,,,,,,,,,,,,,,,,,,,,,,,,,,,,,,,,,,,,,,,,,,,,,,,,,,,,,,,,,,,,,,,,,,,,,,,,,,,,,,,,,,,,,,,,,,,,,,,,,,,,,,,,,
,,,,,,611e1dc3639bf81baea53339,62bbfafacb653a0457507260,2022-06-29_09h13.26.554,Colour_Asymmetry_Pilot,2022.1.3,Win32,66.41429236,62bbe60bf3d75ef465d3e404,0,27,27,32,1,onetwo,,,,,,,,,,,,,,,,,,,,,,,,,,,,,,,,,,,,,,,,,,,,,,,,,,,,,,,,,,,,,,,,,,,,,,,,,,,,,,,,,,,,,,,,,,,,,,,,,,,,,,,,,,,,,,,,,,,,,,,,,,,,,,,,,,,,,,,,,,,,,,,,,,,,,,,,
,,,,,,611e1dc3639bf81baea53339,62bbfafacb653a0457507260,2022-06-29_09h13.26.554,Colour_Asymmetry_Pilot,2022.1.3,Win32,66.41429236,62bbe60bf3d75ef465d3e404,0,28,28,151,1,fourthree,,,,,,,,,,,,,,,,,,,,,,,,,,,,,,,,,,,,,,,,,,,,,,,,,,,,,,,,,,,,,,,,,,,,,,,,,,,,,,,,,,,,,,,,,,,,,,,,,,,,,,,,,,,,,,,,,,,,,,,,,,,,,,,,,,,,,,,,,,,,,,,,,,,,,,,,
,,,,,,611e1dc3639bf81baea53339,62bbfafacb653a0457507260,2022-06-29_09h13.26.554,Colour_Asymmetry_Pilot,2022.1.3,Win32,66.41429236,62bbe60bf3d75ef465d3e404,0,29,29,24,1,onetwo,,,,,,,,,,,,,,,,,,,,,,,,,,,,,,,,,,,,,,,,,,,,,,,,,,,,,,,,,,,,,,,,,,,,,,,,,,,,,,,,,,,,,,,,,,,,,,,,,,,,,,,,,,,,,,,,,,,,,,,,,,,,,,,,,,,,,,,,,,,,,,,,,,,,,,,,
,,,,,,611e1dc3639bf81baea53339,62bbfafacb653a0457507260,2022-06-29_09h13.26.554,Colour_Asymmetry_Pilot,2022.1.3,Win32,66.41429236,62bbe60bf3d75ef465d3e404,0,30,30,144,1,onetwo,,,,,,,,,,,,,,,,,,,,,,,,,,,,,,,,,,,,,,,,,,,,,,,,,,,,,,,,,,,,,,,,,,,,,,,,,,,,,,,,,,,,,,,,,,,,,,,,,,,,,,,,,,,,,,,,,,,,,,,,,,,,,,,,,,,,,,,,,,,,,,,,,,,,,,,,
,,,,,,611e1dc3639bf81baea53339,62bbfafacb653a0457507260,2022-06-29_09h13.26.554,Colour_Asymmetry_Pilot,2022.1.3,Win32,66.41429236,62bbe60bf3d75ef465d3e404,0,31,31,135,1,fourthree,,,,,,,,,,,,,,,,,,,,,,,,,,,,,,,,,,,,,,,,,,,,,,,,,,,,,,,,,,,,,,,,,,,,,,,,,,,,,,,,,,,,,,,,,,,,,,,,,,,,,,,,,,,,,,,,,,,,,,,,,,,,,,,,,,,,,,,,,,,,,,,,,,,,,,,,
,,,,,,611e1dc3639bf81baea53339,62bbfafacb653a0457507260,2022-06-29_09h13.26.554,Colour_Asymmetry_Pilot,2022.1.3,Win32,66.41429236,62bbe60bf3d75ef465d3e404,0,32,32,154,1,twoone,,,,,,,,,,,,,,,,,,,,,,,,,,,,,,,,,,,,,,,,,,,,,,,,,,,,,,,,,,,,,,,,,,,,,,,,,,,,,,,,,,,,,,,,,,,,,,,,,,,,,,,,,,,,,,,,,,,,,,,,,,,,,,,,,,,,,,,,,,,,,,,,,,,,,,,,
,,,,,,611e1dc3639bf81baea53339,62bbfafacb653a0457507260,2022-06-29_09h13.26.554,Colour_Asymmetry_Pilot,2022.1.3,Win32,66.41429236,62bbe60bf3d75ef465d3e404,0,33,33,113,1,onethree,,,,,,,,,,,,,,,,,,,,,,,,,,,,,,,,,,,,,,,,,,,,,,,,,,,,,,,,,,,,,,,,,,,,,,,,,,,,,,,,,,,,,,,,,,,,,,,,,,,,,,,,,,,,,,,,,,,,,,,,,,,,,,,,,,,,,,,,,,,,,,,,,,,,,,,,
,,,,,,611e1dc3639bf81baea53339,62bbfafacb653a0457507260,2022-06-29_09h13.26.554,Colour_Asymmetry_Pilot,2022.1.3,Win32,66.41429236,62bbe60bf3d75ef465d3e404,0,34,34,126,1,fourtwo,,,,,,,,,,,,,,,,,,,,,,,,,,,,,,,,,,,,,,,,,,,,,,,,,,,,,,,,,,,,,,,,,,,,,,,,,,,,,,,,,,,,,,,,,,,,,,,,,,,,,,,,,,,,,,,,,,,,,,,,,,,,,,,,,,,,,,,,,,,,,,,,,,,,,,,,
,,,,,,611e1dc3639bf81baea53339,62bbfafacb653a0457507260,2022-06-29_09h13.26.554,Colour_Asymmetry_Pilot,2022.1.3,Win32,66.41429236,62bbe60bf3d75ef465d3e404,0,35,35,101,1,threefour,,,,,,,,,,,,,,,,,,,,,,,,,,,,,,,,,,,,,,,,,,,,,,,,,,,,,,,,,,,,,,,,,,,,,,,,,,,,,,,,,,,,,,,,,,,,,,,,,,,,,,,,,,,,,,,,,,,,,,,,,,,,,,,,,,,,,,,,,,,,,,,,,,,,,,,,
,,,,,,611e1dc3639bf81baea53339,62bbfafacb653a0457507260,2022-06-29_09h13.26.554,Colour_Asymmetry_Pilot,2022.1.3,Win32,66.41429236,62bbe60bf3d75ef465d3e404,0,36,36,57,1,onethree,,,,,,,,,,,,,,,,,,,,,,,,,,,,,,,,,,,,,,,,,,,,,,,,,,,,,,,,,,,,,,,,,,,,,,,,,,,,,,,,,,,,,,,,,,,,,,,,,,,,,,,,,,,,,,,,,,,,,,,,,,,,,,,,,,,,,,,,,,,,,,,,,,,,,,,,
,,,,,,611e1dc3639bf81baea53339,62bbfafacb653a0457507260,2022-06-29_09h13.26.554,Colour_Asymmetry_Pilot,2022.1.3,Win32,66.41429236,62bbe60bf3d75ef465d3e404,0,37,37,49,1,onethree,,,,,,,,,,,,,,,,,,,,,,,,,,,,,,,,,,,,,,,,,,,,,,,,,,,,,,,,,,,,,,,,,,,,,,,,,,,,,,,,,,,,,,,,,,,,,,,,,,,,,,,,,,,,,,,,,,,,,,,,,,,,,,,,,,,,,,,,,,,,,,,,,,,,,,,,
,,,,,,611e1dc3639bf81baea53339,62bbfafacb653a0457507260,2022-06-29_09h13.26.554,Colour_Asymmetry_Pilot,2022.1.3,Win32,66.41429236,62bbe60bf3d75ef465d3e404,0,38,38,16,1,onetwo,,,,,,,,,,,,,,,,,,,,,,,,,,,,,,,,,,,,,,,,,,,,,,,,,,,,,,,,,,,,,,,,,,,,,,,,,,,,,,,,,,,,,,,,,,,,,,,,,,,,,,,,,,,,,,,,,,,,,,,,,,,,,,,,,,,,,,,,,,,,,,,,,,,,,,,,
,,,,,,611e1dc3639bf81baea53339,62bbfafacb653a0457507260,2022-06-29_09h13.26.554,Colour_Asymmetry_Pilot,2022.1.3,Win32,66.41429236,62bbe60bf3d75ef465d3e404,0,39,39,161,1,onethree,,,,,,,,,,,,,,,,,,,,,,,,,,,,,,,,,,,,,,,,,,,,,,,,,,,,,,,,,,,,,,,,,,,,,,,,,,,,,,,,,,,,,,,,,,,,,,,,,,,,,,,,,,,,,,,,,,,,,,,,,,,,,,,,,,,,,,,,,,,,,,,,,,,,,,,,
,,,,,,611e1dc3639bf81baea53339,62bbfafacb653a0457507260,2022-06-29_09h13.26.554,Colour_Asymmetry_Pilot,2022.1.3,Win32,66.41429236,62bbe60bf3d75ef465d3e404,0,40,40,159,1,fourthree,,,,,,,,,,,,,,,,,,,,,,,,,,,,,,,,,,,,,,,,,,,,,,,,,,,,,,,,,,,,,,,,,,,,,,,,,,,,,,,,,,,,,,,,,,,,,,,,,,,,,,,,,,,,,,,,,,,,,,,,,,,,,,,,,,,,,,,,,,,,,,,,,,,,,,,,
,,,,,,611e1dc3639bf81baea53339,62bbfafacb653a0457507260,2022-06-29_09h13.26.554,Colour_Asymmetry_Pilot,2022.1.3,Win32,66.41429236,62bbe60bf3d75ef465d3e404,0,41,41,8,1,onetwo,,,,,,,,,,,,,,,,,,,,,,,,,,,,,,,,,,,,,,,,,,,,,,,,,,,,,,,,,,,,,,,,,,,,,,,,,,,,,,,,,,,,,,,,,,,,,,,,,,,,,,,,,,,,,,,,,,,,,,,,,,,,,,,,,,,,,,,,,,,,,,,,,,,,,,,,
,,,,,,611e1dc3639bf81baea53339,62bbfafacb653a0457507260,2022-06-29_09h13.26.554,Colour_Asymmetry_Pilot,2022.1.3,Win32,66.41429236,62bbe60bf3d75ef465d3e404,0,42,42,59,1,twofour,,,,,,,,,,,,,,,,,,,,,,,,,,,,,,,,,,,,,,,,,,,,,,,,,,,,,,,,,,,,,,,,,,,,,,,,,,,,,,,,,,,,,,,,,,,,,,,,,,,,,,,,,,,,,,,,,,,,,,,,,,,,,,,,,,,,,,,,,,,,,,,,,,,,,,,,
,,,,,,611e1dc3639bf81baea53339,62bbfafacb653a0457507260,2022-06-29_09h13.26.554,Colour_Asymmetry_Pilot,2022.1.3,Win32,66.41429236,62bbe60bf3d75ef465d3e404,0,43,43,139,1,twofour,,,,,,,,,,,,,,,,,,,,,,,,,,,,,,,,,,,,,,,,,,,,,,,,,,,,,,,,,,,,,,,,,,,,,,,,,,,,,,,,,,,,,,,,,,,,,,,,,,,,,,,,,,,,,,,,,,,,,,,,,,,,,,,,,,,,,,,,,,,,,,,,,,,,,,,,
,,,,,,611e1dc3639bf81baea53339,62bbfafacb653a0457507260,2022-06-29_09h13.26.554,Colour_Asymmetry_Pilot,2022.1.3,Win32,66.41429236,62bbe60bf3d75ef465d3e404,0,44,44,91,1,twofour,,,,,,,,,,,,,,,,,,,,,,,,,,,,,,,,,,,,,,,,,,,,,,,,,,,,,,,,,,,,,,,,,,,,,,,,,,,,,,,,,,,,,,,,,,,,,,,,,,,,,,,,,,,,,,,,,,,,,,,,,,,,,,,,,,,,,,,,,,,,,,,,,,,,,,,,
,,,,,,611e1dc3639bf81baea53339,62bbfafacb653a0457507260,2022-06-29_09h13.26.554,Colour_Asymmetry_Pilot,2022.1.3,Win32,66.41429236,62bbe60bf3d75ef465d3e404,0,45,45,81,1,onethree,,,,,,,,,,,,,,,,,,,,,,,,,,,,,,,,,,,,,,,,,,,,,,,,,,,,,,,,,,,,,,,,,,,,,,,,,,,,,,,,,,,,,,,,,,,,,,,,,,,,,,,,,,,,,,,,,,,,,,,,,,,,,,,,,,,,,,,,,,,,,,,,,,,,,,,,
,,,,,,611e1dc3639bf81baea53339,62bbfafacb653a0457507260,2022-06-29_09h13.26.554,Colour_Asymmetry_Pilot,2022.1.3,Win32,66.41429236,62bbe60bf3d75ef465d3e404,0,46,46,120,1,onetwo,,,,,,,,,,,,,,,,,,,,,,,,,,,,,,,,,,,,,,,,,,,,,,,,,,,,,,,,,,,,,,,,,,,,,,,,,,,,,,,,,,,,,,,,,,,,,,,,,,,,,,,,,,,,,,,,,,,,,,,,,,,,,,,,,,,,,,,,,,,,,,,,,,,,,,,,
,,,,,,611e1dc3639bf81baea53339,62bbfafacb653a0457507260,2022-06-29_09h13.26.554,Colour_Asymmetry_Pilot,2022.1.3,Win32,66.41429236,62bbe60bf3d75ef465d3e404,0,47,47,70,1,fourtwo,,,,,,,,,,,,,,,,,,,,,,,,,,,,,,,,,,,,,,,,,,,,,,,,,,,,,,,,,,,,,,,,,,,,,,,,,,,,,,,,,,,,,,,,,,,,,,,,,,,,,,,,,,,,,,,,,,,,,,,,,,,,,,,,,,,,,,,,,,,,,,,,,,,,,,,,
,,,,,,611e1dc3639bf81baea53339,62bbfafacb653a0457507260,2022-06-29_09h13.26.554,Colour_Asymmetry_Pilot,2022.1.3,Win32,66.41429236,62bbe60bf3d75ef465d3e404,0,48,48,64,1,onetwo,,,,,,,,,,,,,,,,,,,,,,,,,,,,,,,,,,,,,,,,,,,,,,,,,,,,,,,,,,,,,,,,,,,,,,,,,,,,,,,,,,,,,,,,,,,,,,,,,,,,,,,,,,,,,,,,,,,,,,,,,,,,,,,,,,,,,,,,,,,,,,,,,,,,,,,,
,,,,,,611e1dc3639bf81baea53339,62bbfafacb653a0457507260,2022-06-29_09h13.26.554,Colour_Asymmetry_Pilot,2022.1.3,Win32,66.41429236,62bbe60bf3d75ef465d3e404,0,49,49,103,1,fourthree,,,,,,,,,,,,,,,,,,,,,,,,,,,,,,,,,,,,,,,,,,,,,,,,,,,,,,,,,,,,,,,,,,,,,,,,,,,,,,,,,,,,,,,,,,,,,,,,,,,,,,,,,,,,,,,,,,,,,,,,,,,,,,,,,,,,,,,,,,,,,,,,,,,,,,,,
,,,,,,611e1dc3639bf81baea53339,62bbfafacb653a0457507260,2022-06-29_09h13.26.554,Colour_Asymmetry_Pilot,2022.1.3,Win32,66.41429236,62bbe60bf3d75ef465d3e404,0,50,50,27,1,twofour,,,,,,,,,,,,,,,,,,,,,,,,,,,,,,,,,,,,,,,,,,,,,,,,,,,,,,,,,,,,,,,,,,,,,,,,,,,,,,,,,,,,,,,,,,,,,,,,,,,,,,,,,,,,,,,,,,,,,,,,,,,,,,,,,,,,,,,,,,,,,,,,,,,,,,,,
,,,,,,611e1dc3639bf81baea53339,62bbfafacb653a0457507260,2022-06-29_09h13.26.554,Colour_Asymmetry_Pilot,2022.1.3,Win32,66.41429236,62bbe60bf3d75ef465d3e404,0,51,51,74,1,twoone,,,,,,,,,,,,,,,,,,,,,,,,,,,,,,,,,,,,,,,,,,,,,,,,,,,,,,,,,,,,,,,,,,,,,,,,,,,,,,,,,,,,,,,,,,,,,,,,,,,,,,,,,,,,,,,,,,,,,,,,,,,,,,,,,,,,,,,,,,,,,,,,,,,,,,,,
,,,,,,611e1dc3639bf81baea53339,62bbfafacb653a0457507260,2022-06-29_09h13.26.554,Colour_Asymmetry_Pilot,2022.1.3,Win32,66.41429236,62bbe60bf3d75ef465d3e404,0,52,52,86,1,fourtwo,,,,,,,,,,,,,,,,,,,,,,,,,,,,,,,,,,,,,,,,,,,,,,,,,,,,,,,,,,,,,,,,,,,,,,,,,,,,,,,,,,,,,,,,,,,,,,,,,,,,,,,,,,,,,,,,,,,,,,,,,,,,,,,,,,,,,,,,,,,,,,,,,,,,,,,,
,,,,,,611e1dc3639bf81baea53339,62bbfafacb653a0457507260,2022-06-29_09h13.26.554,Colour_Asymmetry_Pilot,2022.1.3,Win32,66.41429236,62bbe60bf3d75ef465d3e404,0,53,53,92,1,threeone,,,,,,,,,,,,,,,,,,,,,,,,,,,,,,,,,,,,,,,,,,,,,,,,,,,,,,,,,,,,,,,,,,,,,,,,,,,,,,,,,,,,,,,,,,,,,,,,,,,,,,,,,,,,,,,,,,,,,,,,,,,,,,,,,,,,,,,,,,,,,,,,,,,,,,,,
,,,,,,611e1dc3639bf81baea53339,62bbfafacb653a0457507260,2022-06-29_09h13.26.554,Colour_Asymmetry_Pilot,2022.1.3,Win32,66.41429236,62bbe60bf3d75ef465d3e404,0,54,54,87,1,fourthree,,,,,,,,,,,,,,,,,,,,,,,,,,,,,,,,,,,,,,,,,,,,,,,,,,,,,,,,,,,,,,,,,,,,,,,,,,,,,,,,,,,,,,,,,,,,,,,,,,,,,,,,,,,,,,,,,,,,,,,,,,,,,,,,,,,,,,,,,,,,,,,,,,,,,,,,
,,,,,,611e1dc3639bf81baea53339,62bbfafacb653a0457507260,2022-06-29_09h13.26.554,Colour_Asymmetry_Pilot,2022.1.3,Win32,66.41429236,62bbe60bf3d75ef465d3e404,0,55,55,52,1,threeone,,,,,,,,,,,,,,,,,,,,,,,,,,,,,,,,,,,,,,,,,,,,,,,,,,,,,,,,,,,,,,,,,,,,,,,,,,,,,,,,,,,,,,,,,,,,,,,,,,,,,,,,,,,,,,,,,,,,,,,,,,,,,,,,,,,,,,,,,,,,,,,,,,,,,,,,
,,,,,,611e1dc3639bf81baea53339,62bbfafacb653a0457507260,2022-06-29_09h13.26.554,Colour_Asymmetry_Pilot,2022.1.3,Win32,66.41429236,62bbe60bf3d75ef465d3e404,0,56,56,71,1,fourthree,,,,,,,,,,,,,,,,,,,,,,,,,,,,,,,,,,,,,,,,,,,,,,,,,,,,,,,,,,,,,,,,,,,,,,,,,,,,,,,,,,,,,,,,,,,,,,,,,,,,,,,,,,,,,,,,,,,,,,,,,,,,,,,,,,,,,,,,,,,,,,,,,,,,,,,,
,,,,,,611e1dc3639bf81baea53339,62bbfafacb653a0457507260,2022-06-29_09h13.26.554,Colour_Asymmetry_Pilot,2022.1.3,Win32,66.41429236,62bbe60bf3d75ef465d3e404,0,57,57,18,1,twoone,,,,,,,,,,,,,,,,,,,,,,,,,,,,,,,,,,,,,,,,,,,,,,,,,,,,,,,,,,,,,,,,,,,,,,,,,,,,,,,,,,,,,,,,,,,,,,,,,,,,,,,,,,,,,,,,,,,,,,,,,,,,,,,,,,,,,,,,,,,,,,,,,,,,,,,,
,,,,,,611e1dc3639bf81baea53339,62bbfafacb653a0457507260,2022-06-29_09h13.26.554,Colour_Asymmetry_Pilot,2022.1.3,Win32,66.41429236,62bbe60bf3d75ef465d3e404,0,58,58,42,1,twoone,,,,,,,,,,,,,,,,,,,,,,,,,,,,,,,,,,,,,,,,,,,,,,,,,,,,,,,,,,,,,,,,,,,,,,,,,,,,,,,,,,,,,,,,,,,,,,,,,,,,,,,,,,,,,,,,,,,,,,,,,,,,,,,,,,,,,,,,,,,,,,,,,,,,,,,,
,,,,,,611e1dc3639bf81baea53339,62bbfafacb653a0457507260,2022-06-29_09h13.26.554,Colour_Asymmetry_Pilot,2022.1.3,Win32,66.41429236,62bbe60bf3d75ef465d3e404,0,59,59,44,1,threeone,,,,,,,,,,,,,,,,,,,,,,,,,,,,,,,,,,,,,,,,,,,,,,,,,,,,,,,,,,,,,,,,,,,,,,,,,,,,,,,,,,,,,,,,,,,,,,,,,,,,,,,,,,,,,,,,,,,,,,,,,,,,,,,,,,,,,,,,,,,,,,,,,,,,,,,,
,,,,,,611e1dc3639bf81baea53339,62bbfafacb653a0457507260,2022-06-29_09h13.26.554,Colour_Asymmetry_Pilot,2022.1.3,Win32,66.41429236,62bbe60bf3d75ef465d3e404,0,60,60,141,1,threefour,,,,,,,,,,,,,,,,,,,,,,,,,,,,,,,,,,,,,,,,,,,,,,,,,,,,,,,,,,,,,,,,,,,,,,,,,,,,,,,,,,,,,,,,,,,,,,,,,,,,,,,,,,,,,,,,,,,,,,,,,,,,,,,,,,,,,,,,,,,,,,,,,,,,,,,,
,,,,,,611e1dc3639bf81baea53339,62bbfafacb653a0457507260,2022-06-29_09h13.26.554,Colour_Asymmetry_Pilot,2022.1.3,Win32,66.41429236,62bbe60bf3d75ef465d3e404,0,61,61,155,1,twofour,,,,,,,,,,,,,,,,,,,,,,,,,,,,,,,,,,,,,,,,,,,,,,,,,,,,,,,,,,,,,,,,,,,,,,,,,,,,,,,,,,,,,,,,,,,,,,,,,,,,,,,,,,,,,,,,,,,,,,,,,,,,,,,,,,,,,,,,,,,,,,,,,,,,,,,,
,,,,,,611e1dc3639bf81baea53339,62bbfafacb653a0457507260,2022-06-29_09h13.26.554,Colour_Asymmetry_Pilot,2022.1.3,Win32,66.41429236,62bbe60bf3d75ef465d3e404,0,62,62,108,1,threeone,,,,,,,,,,,,,,,,,,,,,,,,,,,,,,,,,,,,,,,,,,,,,,,,,,,,,,,,,,,,,,,,,,,,,,,,,,,,,,,,,,,,,,,,,,,,,,,,,,,,,,,,,,,,,,,,,,,,,,,,,,,,,,,,,,,,,,,,,,,,,,,,,,,,,,,,
,,,,,,611e1dc3639bf81baea53339,62bbfafacb653a0457507260,2022-06-29_09h13.26.554,Colour_Asymmetry_Pilot,2022.1.3,Win32,66.41429236,62bbe60bf3d75ef465d3e404,0,63,63,63,1,fourthree,,,,,,,,,,,,,,,,,,,,,,,,,,,,,,,,,,,,,,,,,,,,,,,,,,,,,,,,,,,,,,,,,,,,,,,,,,,,,,,,,,,,,,,,,,,,,,,,,,,,,,,,,,,,,,,,,,,,,,,,,,,,,,,,,,,,,,,,,,,,,,,,,,,,,,,,
,,,,,,611e1dc3639bf81baea53339,62bbfafacb653a0457507260,2022-06-29_09h13.26.554,Colour_Asymmetry_Pilot,2022.1.3,Win32,66.41429236,62bbe60bf3d75ef465d3e404,0,64,64,62,1,fourtwo,,,,,,,,,,,,,,,,,,,,,,,,,,,,,,,,,,,,,,,,,,,,,,,,,,,,,,,,,,,,,,,,,,,,,,,,,,,,,,,,,,,,,,,,,,,,,,,,,,,,,,,,,,,,,,,,,,,,,,,,,,,,,,,,,,,,,,,,,,,,,,,,,,,,,,,,
,,,,,,611e1dc3639bf81baea53339,62bbfafacb653a0457507260,2022-06-29_09h13.26.554,Colour_Asymmetry_Pilot,2022.1.3,Win32,66.41429236,62bbe60bf3d75ef465d3e404,0,65,65,43,1,twofour,,,,,,,,,,,,,,,,,,,,,,,,,,,,,,,,,,,,,,,,,,,,,,,,,,,,,,,,,,,,,,,,,,,,,,,,,,,,,,,,,,,,,,,,,,,,,,,,,,,,,,,,,,,,,,,,,,,,,,,,,,,,,,,,,,,,,,,,,,,,,,,,,,,,,,,,
,,,,,,611e1dc3639bf81baea53339,62bbfafacb653a0457507260,2022-06-29_09h13.26.554,Colour_Asymmetry_Pilot,2022.1.3,Win32,66.41429236,62bbe60bf3d75ef465d3e404,0,66,66,152,1,onetwo,,,,,,,,,,,,,,,,,,,,,,,,,,,,,,,,,,,,,,,,,,,,,,,,,,,,,,,,,,,,,,,,,,,,,,,,,,,,,,,,,,,,,,,,,,,,,,,,,,,,,,,,,,,,,,,,,,,,,,,,,,,,,,,,,,,,,,,,,,,,,,,,,,,,,,,,
,,,,,,611e1dc3639bf81baea53339,62bbfafacb653a0457507260,2022-06-29_09h13.26.554,Colour_Asymmetry_Pilot,2022.1.3,Win32,66.41429236,62bbe60bf3d75ef465d3e404,0,67,67,11,1,twofour,,,,,,,,,,,,,,,,,,,,,,,,,,,,,,,,,,,,,,,,,,,,,,,,,,,,,,,,,,,,,,,,,,,,,,,,,,,,,,,,,,,,,,,,,,,,,,,,,,,,,,,,,,,,,,,,,,,,,,,,,,,,,,,,,,,,,,,,,,,,,,,,,,,,,,,,
,,,,,,611e1dc3639bf81baea53339,62bbfafacb653a0457507260,2022-06-29_09h13.26.554,Colour_Asymmetry_Pilot,2022.1.3,Win32,66.41429236,62bbe60bf3d75ef465d3e404,0,68,68,94,1,fourtwo,,,,,,,,,,,,,,,,,,,,,,,,,,,,,,,,,,,,,,,,,,,,,,,,,,,,,,,,,,,,,,,,,,,,,,,,,,,,,,,,,,,,,,,,,,,,,,,,,,,,,,,,,,,,,,,,,,,,,,,,,,,,,,,,,,,,,,,,,,,,,,,,,,,,,,,,
,,,,,,611e1dc3639bf81baea53339,62bbfafacb653a0457507260,2022-06-29_09h13.26.554,Colour_Asymmetry_Pilot,2022.1.3,Win32,66.41429236,62bbe60bf3d75ef465d3e404,0,69,69,143,1,fourthree,,,,,,,,,,,,,,,,,,,,,,,,,,,,,,,,,,,,,,,,,,,,,,,,,,,,,,,,,,,,,,,,,,,,,,,,,,,,,,,,,,,,,,,,,,,,,,,,,,,,,,,,,,,,,,,,,,,,,,,,,,,,,,,,,,,,,,,,,,,,,,,,,,,,,,,,
,,,,,,611e1dc3639bf81baea53339,62bbfafacb653a0457507260,2022-06-29_09h13.26.554,Colour_Asymmetry_Pilot,2022.1.3,Win32,66.41429236,62bbe60bf3d75ef465d3e404,0,70,70,66,1,twoone,,,,,,,,,,,,,,,,,,,,,,,,,,,,,,,,,,,,,,,,,,,,,,,,,,,,,,,,,,,,,,,,,,,,,,,,,,,,,,,,,,,,,,,,,,,,,,,,,,,,,,,,,,,,,,,,,,,,,,,,,,,,,,,,,,,,,,,,,,,,,,,,,,,,,,,,
,,,,,,611e1dc3639bf81baea53339,62bbfafacb653a0457507260,2022-06-29_09h13.26.554,Colour_Asymmetry_Pilot,2022.1.3,Win32,66.41429236,62bbe60bf3d75ef465d3e404,0,71,71,20,1,threeone,,,,,,,,,,,,,,,,,,,,,,,,,,,,,,,,,,,,,,,,,,,,,,,,,,,,,,,,,,,,,,,,,,,,,,,,,,,,,,,,,,,,,,,,,,,,,,,,,,,,,,,,,,,,,,,,,,,,,,,,,,,,,,,,,,,,,,,,,,,,,,,,,,,,,,,,
,,,,,,611e1dc3639bf81baea53339,62bbfafacb653a0457507260,2022-06-29_09h13.26.554,Colour_Asymmetry_Pilot,2022.1.3,Win32,66.41429236,62bbe60bf3d75ef465d3e404,0,72,72,150,1,fourtwo,,,,,,,,,,,,,,,,,,,,,,,,,,,,,,,,,,,,,,,,,,,,,,,,,,,,,,,,,,,,,,,,,,,,,,,,,,,,,,,,,,,,,,,,,,,,,,,,,,,,,,,,,,,,,,,,,,,,,,,,,,,,,,,,,,,,,,,,,,,,,,,,,,,,,,,,
,,,,,,611e1dc3639bf81baea53339,62bbfafacb653a0457507260,2022-06-29_09h13.26.554,Colour_Asymmetry_Pilot,2022.1.3,Win32,66.41429236,62bbe60bf3d75ef465d3e404,0,73,73,83,1,twofour,,,,,,,,,,,,,,,,,,,,,,,,,,,,,,,,,,,,,,,,,,,,,,,,,,,,,,,,,,,,,,,,,,,,,,,,,,,,,,,,,,,,,,,,,,,,,,,,,,,,,,,,,,,,,,,,,,,,,,,,,,,,,,,,,,,,,,,,,,,,,,,,,,,,,,,,
,,,,,,611e1dc3639bf81baea53339,62bbfafacb653a0457507260,2022-06-29_09h13.26.554,Colour_Asymmetry_Pilot,2022.1.3,Win32,66.41429236,62bbe60bf3d75ef465d3e404,0,74,74,146,1,twoone,,,,,,,,,,,,,,,,,,,,,,,,,,,,,,,,,,,,,,,,,,,,,,,,,,,,,,,,,,,,,,,,,,,,,,,,,,,,,,,,,,,,,,,,,,,,,,,,,,,,,,,,,,,,,,,,,,,,,,,,,,,,,,,,,,,,,,,,,,,,,,,,,,,,,,,,
,,,,,,611e1dc3639bf81baea53339,62bbfafacb653a0457507260,2022-06-29_09h13.26.554,Colour_Asymmetry_Pilot,2022.1.3,Win32,66.41429236,62bbe60bf3d75ef465d3e404,0,75,75,104,1,onetwo,,,,,,,,,,,,,,,,,,,,,,,,,,,,,,,,,,,,,,,,,,,,,,,,,,,,,,,,,,,,,,,,,,,,,,,,,,,,,,,,,,,,,,,,,,,,,,,,,,,,,,,,,,,,,,,,,,,,,,,,,,,,,,,,,,,,,,,,,,,,,,,,,,,,,,,,
,,,,,,611e1dc3639bf81baea53339,62bbfafacb653a0457507260,2022-06-29_09h13.26.554,Colour_Asymmetry_Pilot,2022.1.3,Win32,66.41429236,62bbe60bf3d75ef465d3e404,0,76,76,134,1,fourtwo,,,,,,,,,,,,,,,,,,,,,,,,,,,,,,,,,,,,,,,,,,,,,,,,,,,,,,,,,,,,,,,,,,,,,,,,,,,,,,,,,,,,,,,,,,,,,,,,,,,,,,,,,,,,,,,,,,,,,,,,,,,,,,,,,,,,,,,,,,,,,,,,,,,,,,,,
,,,,,,611e1dc3639bf81baea53339,62bbfafacb653a0457507260,2022-06-29_09h13.26.554,Colour_Asymmetry_Pilot,2022.1.3,Win32,66.41429236,62bbe60bf3d75ef465d3e404,0,77,77,84,1,threeone,,,,,,,,,,,,,,,,,,,,,,,,,,,,,,,,,,,,,,,,,,,,,,,,,,,,,,,,,,,,,,,,,,,,,,,,,,,,,,,,,,,,,,,,,,,,,,,,,,,,,,,,,,,,,,,,,,,,,,,,,,,,,,,,,,,,,,,,,,,,,,,,,,,,,,,,
,,,,,,611e1dc3639bf81baea53339,62bbfafacb653a0457507260,2022-06-29_09h13.26.554,Colour_Asymmetry_Pilot,2022.1.3,Win32,66.41429236,62bbe60bf3d75ef465d3e404,0,78,78,102,1,fourtwo,,,,,,,,,,,,,,,,,,,,,,,,,,,,,,,,,,,,,,,,,,,,,,,,,,,,,,,,,,,,,,,,,,,,,,,,,,,,,,,,,,,,,,,,,,,,,,,,,,,,,,,,,,,,,,,,,,,,,,,,,,,,,,,,,,,,,,,,,,,,,,,,,,,,,,,,
,,,,,,611e1dc3639bf81baea53339,62bbfafacb653a0457507260,2022-06-29_09h13.26.554,Colour_Asymmetry_Pilot,2022.1.3,Win32,66.41429236,62bbe60bf3d75ef465d3e404,0,79,79,61,1,threefour,,,,,,,,,,,,,,,,,,,,,,,,,,,,,,,,,,,,,,,,,,,,,,,,,,,,,,,,,,,,,,,,,,,,,,,,,,,,,,,,,,,,,,,,,,,,,,,,,,,,,,,,,,,,,,,,,,,,,,,,,,,,,,,,,,,,,,,,,,,,,,,,,,,,,,,,
,,,,,,611e1dc3639bf81baea53339,62bbfafacb653a0457507260,2022-06-29_09h13.26.554,Colour_Asymmetry_Pilot,2022.1.3,Win32,66.41429236,62bbe60bf3d75ef465d3e404,0,80,80,40,1,onetwo,,,,,,,,,,,,,,,,,,,,,,,,,,,,,,,,,,,,,,,,,,,,,,,,,,,,,,,,,,,,,,,,,,,,,,,,,,,,,,,,,,,,,,,,,,,,,,,,,,,,,,,,,,,,,,,,,,,,,,,,,,,,,,,,,,,,,,,,,,,,,,,,,,,,,,,,
,,,,,,611e1dc3639bf81baea53339,62bbfafacb653a0457507260,2022-06-29_09h13.26.554,Colour_Asymmetry_Pilot,2022.1.3,Win32,66.41429236,62bbe60bf3d75ef465d3e404,0,81,81,93,1,threefour,,,,,,,,,,,,,,,,,,,,,,,,,,,,,,,,,,,,,,,,,,,,,,,,,,,,,,,,,,,,,,,,,,,,,,,,,,,,,,,,,,,,,,,,,,,,,,,,,,,,,,,,,,,,,,,,,,,,,,,,,,,,,,,,,,,,,,,,,,,,,,,,,,,,,,,,
,,,,,,611e1dc3639bf81baea53339,62bbfafacb653a0457507260,2022-06-29_09h13.26.554,Colour_Asymmetry_Pilot,2022.1.3,Win32,66.41429236,62bbe60bf3d75ef465d3e404,0,82,82,51,1,twofour,,,,,,,,,,,,,,,,,,,,,,,,,,,,,,,,,,,,,,,,,,,,,,,,,,,,,,,,,,,,,,,,,,,,,,,,,,,,,,,,,,,,,,,,,,,,,,,,,,,,,,,,,,,,,,,,,,,,,,,,,,,,,,,,,,,,,,,,,,,,,,,,,,,,,,,,
,,,,,,611e1dc3639bf81baea53339,62bbfafacb653a0457507260,2022-06-29_09h13.26.554,Colour_Asymmetry_Pilot,2022.1.3,Win32,66.41429236,62bbe60bf3d75ef465d3e404,0,83,83,140,1,threeone,,,,,,,,,,,,,,,,,,,,,,,,,,,,,,,,,,,,,,,,,,,,,,,,,,,,,,,,,,,,,,,,,,,,,,,,,,,,,,,,,,,,,,,,,,,,,,,,,,,,,,,,,,,,,,,,,,,,,,,,,,,,,,,,,,,,,,,,,,,,,,,,,,,,,,,,
,,,,,,611e1dc3639bf81baea53339,62bbfafacb653a0457507260,2022-06-29_09h13.26.554,Colour_Asymmetry_Pilot,2022.1.3,Win32,66.41429236,62bbe60bf3d75ef465d3e404,0,84,84,138,1,twoone,,,,,,,,,,,,,,,,,,,,,,,,,,,,,,,,,,,,,,,,,,,,,,,,,,,,,,,,,,,,,,,,,,,,,,,,,,,,,,,,,,,,,,,,,,,,,,,,,,,,,,,,,,,,,,,,,,,,,,,,,,,,,,,,,,,,,,,,,,,,,,,,,,,,,,,,
,,,,,,611e1dc3639bf81baea53339,62bbfafacb653a0457507260,2022-06-29_09h13.26.554,Colour_Asymmetry_Pilot,2022.1.3,Win32,66.41429236,62bbe60bf3d75ef465d3e404,0,85,85,89,1,onethree,,,,,,,,,,,,,,,,,,,,,,,,,,,,,,,,,,,,,,,,,,,,,,,,,,,,,,,,,,,,,,,,,,,,,,,,,,,,,,,,,,,,,,,,,,,,,,,,,,,,,,,,,,,,,,,,,,,,,,,,,,,,,,,,,,,,,,,,,,,,,,,,,,,,,,,,
,,,,,,611e1dc3639bf81baea53339,62bbfafacb653a0457507260,2022-06-29_09h13.26.554,Colour_Asymmetry_Pilot,2022.1.3,Win32,66.41429236,62bbe60bf3d75ef465d3e404,0,86,86,58,1,twoone,,,,,,,,,,,,,,,,,,,,,,,,,,,,,,,,,,,,,,,,,,,,,,,,,,,,,,,,,,,,,,,,,,,,,,,,,,,,,,,,,,,,,,,,,,,,,,,,,,,,,,,,,,,,,,,,,,,,,,,,,,,,,,,,,,,,,,,,,,,,,,,,,,,,,,,,
,,,,,,611e1dc3639bf81baea53339,62bbfafacb653a0457507260,2022-06-29_09h13.26.554,Colour_Asymmetry_Pilot,2022.1.3,Win32,66.41429236,62bbe60bf3d75ef465d3e404,0,87,87,98,1,twoone,,,,,,,,,,,,,,,,,,,,,,,,,,,,,,,,,,,,,,,,,,,,,,,,,,,,,,,,,,,,,,,,,,,,,,,,,,,,,,,,,,,,,,,,,,,,,,,,,,,,,,,,,,,,,,,,,,,,,,,,,,,,,,,,,,,,,,,,,,,,,,,,,,,,,,,,
,,,,,,611e1dc3639bf81baea53339,62bbfafacb653a0457507260,2022-06-29_09h13.26.554,Colour_Asymmetry_Pilot,2022.1.3,Win32,66.41429236,62bbe60bf3d75ef465d3e404,0,88,88,37,1,threefour,,,,,,,,,,,,,,,,,,,,,,,,,,,,,,,,,,,,,,,,,,,,,,,,,,,,,,,,,,,,,,,,,,,,,,,,,,,,,,,,,,,,,,,,,,,,,,,,,,,,,,,,,,,,,,,,,,,,,,,,,,,,,,,,,,,,,,,,,,,,,,,,,,,,,,,,
,,,,,,611e1dc3639bf81baea53339,62bbfafacb653a0457507260,2022-06-29_09h13.26.554,Colour_Asymmetry_Pilot,2022.1.3,Win32,66.41429236,62bbe60bf3d75ef465d3e404,0,89,89,137,1,onethree,,,,,,,,,,,,,,,,,,,,,,,,,,,,,,,,,,,,,,,,,,,,,,,,,,,,,,,,,,,,,,,,,,,,,,,,,,,,,,,,,,,,,,,,,,,,,,,,,,,,,,,,,,,,,,,,,,,,,,,,,,,,,,,,,,,,,,,,,,,,,,,,,,,,,,,,
,,,,,,611e1dc3639bf81baea53339,62bbfafacb653a0457507260,2022-06-29_09h13.26.554,Colour_Asymmetry_Pilot,2022.1.3,Win32,66.41429236,62bbe60bf3d75ef465d3e404,0,90,90,116,1,threeone,,,,,,,,,,,,,,,,,,,,,,,,,,,,,,,,,,,,,,,,,,,,,,,,,,,,,,,,,,,,,,,,,,,,,,,,,,,,,,,,,,,,,,,,,,,,,,,,,,,,,,,,,,,,,,,,,,,,,,,,,,,,,,,,,,,,,,,,,,,,,,,,,,,,,,,,
,,,,,,611e1dc3639bf81baea53339,62bbfafacb653a0457507260,2022-06-29_09h13.26.554,Colour_Asymmetry_Pilot,2022.1.3,Win32,66.41429236,62bbe60bf3d75ef465d3e404,0,91,91,41,1,onethree,,,,,,,,,,,,,,,,,,,,,,,,,,,,,,,,,,,,,,,,,,,,,,,,,,,,,,,,,,,,,,,,,,,,,,,,,,,,,,,,,,,,,,,,,,,,,,,,,,,,,,,,,,,,,,,,,,,,,,,,,,,,,,,,,,,,,,,,,,,,,,,,,,,,,,,,
,,,,,,611e1dc3639bf81baea53339,62bbfafacb653a0457507260,2022-06-29_09h13.26.554,Colour_Asymmetry_Pilot,2022.1.3,Win32,66.41429236,62bbe60bf3d75ef465d3e404,0,92,92,119,1,fourthree,,,,,,,,,,,,,,,,,,,,,,,,,,,,,,,,,,,,,,,,,,,,,,,,,,,,,,,,,,,,,,,,,,,,,,,,,,,,,,,,,,,,,,,,,,,,,,,,,,,,,,,,,,,,,,,,,,,,,,,,,,,,,,,,,,,,,,,,,,,,,,,,,,,,,,,,
,,,,,,611e1dc3639bf81baea53339,62bbfafacb653a0457507260,2022-06-29_09h13.26.554,Colour_Asymmetry_Pilot,2022.1.3,Win32,66.41429236,62bbe60bf3d75ef465d3e404,0,93,93,157,1,threefour,,,,,,,,,,,,,,,,,,,,,,,,,,,,,,,,,,,,,,,,,,,,,,,,,,,,,,,,,,,,,,,,,,,,,,,,,,,,,,,,,,,,,,,,,,,,,,,,,,,,,,,,,,,,,,,,,,,,,,,,,,,,,,,,,,,,,,,,,,,,,,,,,,,,,,,,
,,,,,,611e1dc3639bf81baea53339,62bbfafacb653a0457507260,2022-06-29_09h13.26.554,Colour_Asymmetry_Pilot,2022.1.3,Win32,66.41429236,62bbe60bf3d75ef465d3e404,0,94,94,75,1,twofour,,,,,,,,,,,,,,,,,,,,,,,,,,,,,,,,,,,,,,,,,,,,,,,,,,,,,,,,,,,,,,,,,,,,,,,,,,,,,,,,,,,,,,,,,,,,,,,,,,,,,,,,,,,,,,,,,,,,,,,,,,,,,,,,,,,,,,,,,,,,,,,,,,,,,,,,
,,,,,,611e1dc3639bf81baea53339,62bbfafacb653a0457507260,2022-06-29_09h13.26.554,Colour_Asymmetry_Pilot,2022.1.3,Win32,66.41429236,62bbe60bf3d75ef465d3e404,0,95,95,9,1,onethree,,,,,,,,,,,,,,,,,,,,,,,,,,,,,,,,,,,,,,,,,,,,,,,,,,,,,,,,,,,,,,,,,,,,,,,,,,,,,,,,,,,,,,,,,,,,,,,,,,,,,,,,,,,,,,,,,,,,,,,,,,,,,,,,,,,,,,,,,,,,,,,,,,,,,,,,
,,,,,,611e1dc3639bf81baea53339,62bbfafacb653a0457507260,2022-06-29_09h13.26.554,Colour_Asymmetry_Pilot,2022.1.3,Win32,66.41429236,62bbe60bf3d75ef465d3e404,0,96,96,12,1,threeone,,,,,,,,,,,,,,,,,,,,,,,,,,,,,,,,,,,,,,,,,,,,,,,,,,,,,,,,,,,,,,,,,,,,,,,,,,,,,,,,,,,,,,,,,,,,,,,,,,,,,,,,,,,,,,,,,,,,,,,,,,,,,,,,,,,,,,,,,,,,,,,,,,,,,,,,
,,,,,,611e1dc3639bf81baea53339,62bbfafacb653a0457507260,2022-06-29_09h13.26.554,Colour_Asymmetry_Pilot,2022.1.3,Win32,66.41429236,62bbe60bf3d75ef465d3e404,0,97,97,107,1,twofour,,,,,,,,,,,,,,,,,,,,,,,,,,,,,,,,,,,,,,,,,,,,,,,,,,,,,,,,,,,,,,,,,,,,,,,,,,,,,,,,,,,,,,,,,,,,,,,,,,,,,,,,,,,,,,,,,,,,,,,,,,,,,,,,,,,,,,,,,,,,,,,,,,,,,,,,
,,,,,,611e1dc3639bf81baea53339,62bbfafacb653a0457507260,2022-06-29_09h13.26.554,Colour_Asymmetry_Pilot,2022.1.3,Win32,66.41429236,62bbe60bf3d75ef465d3e404,0,98,98,99,1,twofour,,,,,,,,,,,,,,,,,,,,,,,,,,,,,,,,,,,,,,,,,,,,,,,,,,,,,,,,,,,,,,,,,,,,,,,,,,,,,,,,,,,,,,,,,,,,,,,,,,,,,,,,,,,,,,,,,,,,,,,,,,,,,,,,,,,,,,,,,,,,,,,,,,,,,,,,
,,,,,,611e1dc3639bf81baea53339,62bbfafacb653a0457507260,2022-06-29_09h13.26.554,Colour_Asymmetry_Pilot,2022.1.3,Win32,66.41429236,62bbe60bf3d75ef465d3e404,0,99,99,133,1,threefour,,,,,,,,,,,,,,,,,,,,,,,,,,,,,,,,,,,,,,,,,,,,,,,,,,,,,,,,,,,,,,,,,,,,,,,,,,,,,,,,,,,,,,,,,,,,,,,,,,,,,,,,,,,,,,,,,,,,,,,,,,,,,,,,,,,,,,,,,,,,,,,,,,,,,,,,
,,,,,,611e1dc3639bf81baea53339,62bbfafacb653a0457507260,2022-06-29_09h13.26.554,Colour_Asymmetry_Pilot,2022.1.3,Win32,66.41429236,62bbe60bf3d75ef465d3e404,0,100,100,45,1,threefour,,,,,,,,,,,,,,,,,,,,,,,,,,,,,,,,,,,,,,,,,,,,,,,,,,,,,,,,,,,,,,,,,,,,,,,,,,,,,,,,,,,,,,,,,,,,,,,,,,,,,,,,,,,,,,,,,,,,,,,,,,,,,,,,,,,,,,,,,,,,,,,,,,,,,,,,
,,,,,,611e1dc3639bf81baea53339,62bbfafacb653a0457507260,2022-06-29_09h13.26.554,Colour_Asymmetry_Pilot,2022.1.3,Win32,66.41429236,62bbe60bf3d75ef465d3e404,0,101,101,3,1,twofour,,,,,,,,,,,,,,,,,,,,,,,,,,,,,,,,,,,,,,,,,,,,,,,,,,,,,,,,,,,,,,,,,,,,,,,,,,,,,,,,,,,,,,,,,,,,,,,,,,,,,,,,,,,,,,,,,,,,,,,,,,,,,,,,,,,,,,,,,,,,,,,,,,,,,,,,
,,,,,,611e1dc3639bf81baea53339,62bbfafacb653a0457507260,2022-06-29_09h13.26.554,Colour_Asymmetry_Pilot,2022.1.3,Win32,66.41429236,62bbe60bf3d75ef465d3e404,0,102,102,0,1,onetwo,,,,,,,,,,,,,,,,,,,,,,,,,,,,,,,,,,,,,,,,,,,,,,,,,,,,,,,,,,,,,,,,,,,,,,,,,,,,,,,,,,,,,,,,,,,,,,,,,,,,,,,,,,,,,,,,,,,,,,,,,,,,,,,,,,,,,,,,,,,,,,,,,,,,,,,,
,,,,,,611e1dc3639bf81baea53339,62bbfafacb653a0457507260,2022-06-29_09h13.26.554,Colour_Asymmetry_Pilot,2022.1.3,Win32,66.41429236,62bbe60bf3d75ef465d3e404,0,103,103,124,1,threeone,,,,,,,,,,,,,,,,,,,,,,,,,,,,,,,,,,,,,,,,,,,,,,,,,,,,,,,,,,,,,,,,,,,,,,,,,,,,,,,,,,,,,,,,,,,,,,,,,,,,,,,,,,,,,,,,,,,,,,,,,,,,,,,,,,,,,,,,,,,,,,,,,,,,,,,,
,,,,,,611e1dc3639bf81baea53339,62bbfafacb653a0457507260,2022-06-29_09h13.26.554,Colour_Asymmetry_Pilot,2022.1.3,Win32,66.41429236,62bbe60bf3d75ef465d3e404,0,104,104,149,1,threefour,,,,,,,,,,,,,,,,,,,,,,,,,,,,,,,,,,,,,,,,,,,,,,,,,,,,,,,,,,,,,,,,,,,,,,,,,,,,,,,,,,,,,,,,,,,,,,,,,,,,,,,,,,,,,,,,,,,,,,,,,,,,,,,,,,,,,,,,,,,,,,,,,,,,,,,,
,,,,,,611e1dc3639bf81baea53339,62bbfafacb653a0457507260,2022-06-29_09h13.26.554,Colour_Asymmetry_Pilot,2022.1.3,Win32,66.41429236,62bbe60bf3d75ef465d3e404,0,105,105,56,1,onetwo,,,,,,,,,,,,,,,,,,,,,,,,,,,,,,,,,,,,,,,,,,,,,,,,,,,,,,,,,,,,,,,,,,,,,,,,,,,,,,,,,,,,,,,,,,,,,,,,,,,,,,,,,,,,,,,,,,,,,,,,,,,,,,,,,,,,,,,,,,,,,,,,,,,,,,,,
,,,,,,611e1dc3639bf81baea53339,62bbfafacb653a0457507260,2022-06-29_09h13.26.554,Colour_Asymmetry_Pilot,2022.1.3,Win32,66.41429236,62bbe60bf3d75ef465d3e404,0,106,106,26,1,twoone,,,,,,,,,,,,,,,,,,,,,,,,,,,,,,,,,,,,,,,,,,,,,,,,,,,,,,,,,,,,,,,,,,,,,,,,,,,,,,,,,,,,,,,,,,,,,,,,,,,,,,,,,,,,,,,,,,,,,,,,,,,,,,,,,,,,,,,,,,,,,,,,,,,,,,,,
,,,,,,611e1dc3639bf81baea53339,62bbfafacb653a0457507260,2022-06-29_09h13.26.554,Colour_Asymmetry_Pilot,2022.1.3,Win32,66.41429236,62bbe60bf3d75ef465d3e404,0,107,107,158,1,fourtwo,,,,,,,,,,,,,,,,,,,,,,,,,,,,,,,,,,,,,,,,,,,,,,,,,,,,,,,,,,,,,,,,,,,,,,,,,,,,,,,,,,,,,,,,,,,,,,,,,,,,,,,,,,,,,,,,,,,,,,,,,,,,,,,,,,,,,,,,,,,,,,,,,,,,,,,,
,,,,,,611e1dc3639bf81baea53339,62bbfafacb653a0457507260,2022-06-29_09h13.26.554,Colour_Asymmetry_Pilot,2022.1.3,Win32,66.41429236,62bbe60bf3d75ef465d3e404,0,108,108,79,1,fourthree,,,,,,,,,,,,,,,,,,,,,,,,,,,,,,,,,,,,,,,,,,,,,,,,,,,,,,,,,,,,,,,,,,,,,,,,,,,,,,,,,,,,,,,,,,,,,,,,,,,,,,,,,,,,,,,,,,,,,,,,,,,,,,,,,,,,,,,,,,,,,,,,,,,,,,,,
,,,,,,611e1dc3639bf81baea53339,62bbfafacb653a0457507260,2022-06-29_09h13.26.554,Colour_Asymmetry_Pilot,2022.1.3,Win32,66.41429236,62bbe60bf3d75ef465d3e404,0,109,109,78,1,fourtwo,,,,,,,,,,,,,,,,,,,,,,,,,,,,,,,,,,,,,,,,,,,,,,,,,,,,,,,,,,,,,,,,,,,,,,,,,,,,,,,,,,,,,,,,,,,,,,,,,,,,,,,,,,,,,,,,,,,,,,,,,,,,,,,,,,,,,,,,,,,,,,,,,,,,,,,,
,,,,,,611e1dc3639bf81baea53339,62bbfafacb653a0457507260,2022-06-29_09h13.26.554,Colour_Asymmetry_Pilot,2022.1.3,Win32,66.41429236,62bbe60bf3d75ef465d3e404,0,110,110,13,1,threefour,,,,,,,,,,,,,,,,,,,,,,,,,,,,,,,,,,,,,,,,,,,,,,,,,,,,,,,,,,,,,,,,,,,,,,,,,,,,,,,,,,,,,,,,,,,,,,,,,,,,,,,,,,,,,,,,,,,,,,,,,,,,,,,,,,,,,,,,,,,,,,,,,,,,,,,,
,,,,,,611e1dc3639bf81baea53339,62bbfafacb653a0457507260,2022-06-29_09h13.26.554,Colour_Asymmetry_Pilot,2022.1.3,Win32,66.41429236,62bbe60bf3d75ef465d3e404,0,111,111,19,1,twofour,,,,,,,,,,,,,,,,,,,,,,,,,,,,,,,,,,,,,,,,,,,,,,,,,,,,,,,,,,,,,,,,,,,,,,,,,,,,,,,,,,,,,,,,,,,,,,,,,,,,,,,,,,,,,,,,,,,,,,,,,,,,,,,,,,,,,,,,,,,,,,,,,,,,,,,,
,,,,,,611e1dc3639bf81baea53339,62bbfafacb653a0457507260,2022-06-29_09h13.26.554,Colour_Asymmetry_Pilot,2022.1.3,Win32,66.41429236,62bbe60bf3d75ef465d3e404,0,112,112,88,1,onetwo,,,,,,,,,,,,,,,,,,,,,,,,,,,,,,,,,,,,,,,,,,,,,,,,,,,,,,,,,,,,,,,,,,,,,,,,,,,,,,,,,,,,,,,,,,,,,,,,,,,,,,,,,,,,,,,,,,,,,,,,,,,,,,,,,,,,,,,,,,,,,,,,,,,,,,,,
,,,,,,611e1dc3639bf81baea53339,62bbfafacb653a0457507260,2022-06-29_09h13.26.554,Colour_Asymmetry_Pilot,2022.1.3,Win32,66.41429236,62bbe60bf3d75ef465d3e404,0,113,113,111,1,fourthree,,,,,,,,,,,,,,,,,,,,,,,,,,,,,,,,,,,,,,,,,,,,,,,,,,,,,,,,,,,,,,,,,,,,,,,,,,,,,,,,,,,,,,,,,,,,,,,,,,,,,,,,,,,,,,,,,,,,,,,,,,,,,,,,,,,,,,,,,,,,,,,,,,,,,,,,
,,,,,,611e1dc3639bf81baea53339,62bbfafacb653a0457507260,2022-06-29_09h13.26.554,Colour_Asymmetry_Pilot,2022.1.3,Win32,66.41429236,62bbe60bf3d75ef465d3e404,0,114,114,128,1,onetwo,,,,,,,,,,,,,,,,,,,,,,,,,,,,,,,,,,,,,,,,,,,,,,,,,,,,,,,,,,,,,,,,,,,,,,,,,,,,,,,,,,,,,,,,,,,,,,,,,,,,,,,,,,,,,,,,,,,,,,,,,,,,,,,,,,,,,,,,,,,,,,,,,,,,,,,,
,,,,,,611e1dc3639bf81baea53339,62bbfafacb653a0457507260,2022-06-29_09h13.26.554,Colour_Asymmetry_Pilot,2022.1.3,Win32,66.41429236,62bbe60bf3d75ef465d3e404,0,115,115,10,1,twoone,,,,,,,,,,,,,,,,,,,,,,,,,,,,,,,,,,,,,,,,,,,,,,,,,,,,,,,,,,,,,,,,,,,,,,,,,,,,,,,,,,,,,,,,,,,,,,,,,,,,,,,,,,,,,,,,,,,,,,,,,,,,,,,,,,,,,,,,,,,,,,,,,,,,,,,,
,,,,,,611e1dc3639bf81baea53339,62bbfafacb653a0457507260,2022-06-29_09h13.26.554,Colour_Asymmetry_Pilot,2022.1.3,Win32,66.41429236,62bbe60bf3d75ef465d3e404,0,116,116,31,1,fourthree,,,,,,,,,,,,,,,,,,,,,,,,,,,,,,,,,,,,,,,,,,,,,,,,,,,,,,,,,,,,,,,,,,,,,,,,,,,,,,,,,,,,,,,,,,,,,,,,,,,,,,,,,,,,,,,,,,,,,,,,,,,,,,,,,,,,,,,,,,,,,,,,,,,,,,,,
,,,,,,611e1dc3639bf81baea53339,62bbfafacb653a0457507260,2022-06-29_09h13.26.554,Colour_Asymmetry_Pilot,2022.1.3,Win32,66.41429236,62bbe60bf3d75ef465d3e404,0,117,117,33,1,onethree,,,,,,,,,,,,,,,,,,,,,,,,,,,,,,,,,,,,,,,,,,,,,,,,,,,,,,,,,,,,,,,,,,,,,,,,,,,,,,,,,,,,,,,,,,,,,,,,,,,,,,,,,,,,,,,,,,,,,,,,,,,,,,,,,,,,,,,,,,,,,,,,,,,,,,,,
,,,,,,611e1dc3639bf81baea53339,62bbfafacb653a0457507260,2022-06-29_09h13.26.554,Colour_Asymmetry_Pilot,2022.1.3,Win32,66.41429236,62bbe60bf3d75ef465d3e404,0,118,118,50,1,twoone,,,,,,,,,,,,,,,,,,,,,,,,,,,,,,,,,,,,,,,,,,,,,,,,,,,,,,,,,,,,,,,,,,,,,,,,,,,,,,,,,,,,,,,,,,,,,,,,,,,,,,,,,,,,,,,,,,,,,,,,,,,,,,,,,,,,,,,,,,,,,,,,,,,,,,,,
,,,,,,611e1dc3639bf81baea53339,62bbfafacb653a0457507260,2022-06-29_09h13.26.554,Colour_Asymmetry_Pilot,2022.1.3,Win32,66.41429236,62bbe60bf3d75ef465d3e404,0,119,119,117,1,threefour,,,,,,,,,,,,,,,,,,,,,,,,,,,,,,,,,,,,,,,,,,,,,,,,,,,,,,,,,,,,,,,,,,,,,,,,,,,,,,,,,,,,,,,,,,,,,,,,,,,,,,,,,,,,,,,,,,,,,,,,,,,,,,,,,,,,,,,,,,,,,,,,,,,,,,,,
,,,,,,611e1dc3639bf81baea53339,62bbfafacb653a0457507260,2022-06-29_09h13.26.554,Colour_Asymmetry_Pilot,2022.1.3,Win32,66.41429236,62bbe60bf3d75ef465d3e404,0,120,120,39,1,fourthree,,,,,,,,,,,,,,,,,,,,,,,,,,,,,,,,,,,,,,,,,,,,,,,,,,,,,,,,,,,,,,,,,,,,,,,,,,,,,,,,,,,,,,,,,,,,,,,,,,,,,,,,,,,,,,,,,,,,,,,,,,,,,,,,,,,,,,,,,,,,,,,,,,,,,,,,
,,,,,,611e1dc3639bf81baea53339,62bbfafacb653a0457507260,2022-06-29_09h13.26.554,Colour_Asymmetry_Pilot,2022.1.3,Win32,66.41429236,62bbe60bf3d75ef465d3e404,0,121,121,69,1,threefour,,,,,,,,,,,,,,,,,,,,,,,,,,,,,,,,,,,,,,,,,,,,,,,,,,,,,,,,,,,,,,,,,,,,,,,,,,,,,,,,,,,,,,,,,,,,,,,,,,,,,,,,,,,,,,,,,,,,,,,,,,,,,,,,,,,,,,,,,,,,,,,,,,,,,,,,
,,,,,,611e1dc3639bf81baea53339,62bbfafacb653a0457507260,2022-06-29_09h13.26.554,Colour_Asymmetry_Pilot,2022.1.3,Win32,66.41429236,62bbe60bf3d75ef465d3e404,0,122,122,67,1,twofour,,,,,,,,,,,,,,,,,,,,,,,,,,,,,,,,,,,,,,,,,,,,,,,,,,,,,,,,,,,,,,,,,,,,,,,,,,,,,,,,,,,,,,,,,,,,,,,,,,,,,,,,,,,,,,,,,,,,,,,,,,,,,,,,,,,,,,,,,,,,,,,,,,,,,,,,
,,,,,,611e1dc3639bf81baea53339,62bbfafacb653a0457507260,2022-06-29_09h13.26.554,Colour_Asymmetry_Pilot,2022.1.3,Win32,66.41429236,62bbe60bf3d75ef465d3e404,0,123,123,123,1,twofour,,,,,,,,,,,,,,,,,,,,,,,,,,,,,,,,,,,,,,,,,,,,,,,,,,,,,,,,,,,,,,,,,,,,,,,,,,,,,,,,,,,,,,,,,,,,,,,,,,,,,,,,,,,,,,,,,,,,,,,,,,,,,,,,,,,,,,,,,,,,,,,,,,,,,,,,
,,,,,,611e1dc3639bf81baea53339,62bbfafacb653a0457507260,2022-06-29_09h13.26.554,Colour_Asymmetry_Pilot,2022.1.3,Win32,66.41429236,62bbe60bf3d75ef465d3e404,0,124,124,95,1,fourthree,,,,,,,,,,,,,,,,,,,,,,,,,,,,,,,,,,,,,,,,,,,,,,,,,,,,,,,,,,,,,,,,,,,,,,,,,,,,,,,,,,,,,,,,,,,,,,,,,,,,,,,,,,,,,,,,,,,,,,,,,,,,,,,,,,,,,,,,,,,,,,,,,,,,,,,,
,,,,,,611e1dc3639bf81baea53339,62bbfafacb653a0457507260,2022-06-29_09h13.26.554,Colour_Asymmetry_Pilot,2022.1.3,Win32,66.41429236,62bbe60bf3d75ef465d3e404,0,125,125,110,1,fourtwo,,,,,,,,,,,,,,,,,,,,,,,,,,,,,,,,,,,,,,,,,,,,,,,,,,,,,,,,,,,,,,,,,,,,,,,,,,,,,,,,,,,,,,,,,,,,,,,,,,,,,,,,,,,,,,,,,,,,,,,,,,,,,,,,,,,,,,,,,,,,,,,,,,,,,,,,
,,,,,,611e1dc3639bf81baea53339,62bbfafacb653a0457507260,2022-06-29_09h13.26.554,Colour_Asymmetry_Pilot,2022.1.3,Win32,66.41429236,62bbe60bf3d75ef465d3e404,0,126,126,122,1,twoone,,,,,,,,,,,,,,,,,,,,,,,,,,,,,,,,,,,,,,,,,,,,,,,,,,,,,,,,,,,,,,,,,,,,,,,,,,,,,,,,,,,,,,,,,,,,,,,,,,,,,,,,,,,,,,,,,,,,,,,,,,,,,,,,,,,,,,,,,,,,,,,,,,,,,,,,
,,,,,,611e1dc3639bf81baea53339,62bbfafacb653a0457507260,2022-06-29_09h13.26.554,Colour_Asymmetry_Pilot,2022.1.3,Win32,66.41429236,62bbe60bf3d75ef465d3e404,0,127,127,118,1,fourtwo,,,,,,,,,,,,,,,,,,,,,,,,,,,,,,,,,,,,,,,,,,,,,,,,,,,,,,,,,,,,,,,,,,,,,,,,,,,,,,,,,,,,,,,,,,,,,,,,,,,,,,,,,,,,,,,,,,,,,,,,,,,,,,,,,,,,,,,,,,,,,,,,,,,,,,,,
,,,,,,611e1dc3639bf81baea53339,62bbfafacb653a0457507260,2022-06-29_09h13.26.554,Colour_Asymmetry_Pilot,2022.1.3,Win32,66.41429236,62bbe60bf3d75ef465d3e404,0,128,128,25,1,onethree,,,,,,,,,,,,,,,,,,,,,,,,,,,,,,,,,,,,,,,,,,,,,,,,,,,,,,,,,,,,,,,,,,,,,,,,,,,,,,,,,,,,,,,,,,,,,,,,,,,,,,,,,,,,,,,,,,,,,,,,,,,,,,,,,,,,,,,,,,,,,,,,,,,,,,,,
,,,,,,611e1dc3639bf81baea53339,62bbfafacb653a0457507260,2022-06-29_09h13.26.554,Colour_Asymmetry_Pilot,2022.1.3,Win32,66.41429236,62bbe60bf3d75ef465d3e404,0,129,129,36,1,threeone,,,,,,,,,,,,,,,,,,,,,,,,,,,,,,,,,,,,,,,,,,,,,,,,,,,,,,,,,,,,,,,,,,,,,,,,,,,,,,,,,,,,,,,,,,,,,,,,,,,,,,,,,,,,,,,,,,,,,,,,,,,,,,,,,,,,,,,,,,,,,,,,,,,,,,,,
,,,,,,611e1dc3639bf81baea53339,62bbfafacb653a0457507260,2022-06-29_09h13.26.554,Colour_Asymmetry_Pilot,2022.1.3,Win32,66.41429236,62bbe60bf3d75ef465d3e404,0,130,130,54,1,fourtwo,,,,,,,,,,,,,,,,,,,,,,,,,,,,,,,,,,,,,,,,,,,,,,,,,,,,,,,,,,,,,,,,,,,,,,,,,,,,,,,,,,,,,,,,,,,,,,,,,,,,,,,,,,,,,,,,,,,,,,,,,,,,,,,,,,,,,,,,,,,,,,,,,,,,,,,,
,,,,,,611e1dc3639bf81baea53339,62bbfafacb653a0457507260,2022-06-29_09h13.26.554,Colour_Asymmetry_Pilot,2022.1.3,Win32,66.41429236,62bbe60bf3d75ef465d3e404,0,131,131,153,1,onethree,,,,,,,,,,,,,,,,,,,,,,,,,,,,,,,,,,,,,,,,,,,,,,,,,,,,,,,,,,,,,,,,,,,,,,,,,,,,,,,,,,,,,,,,,,,,,,,,,,,,,,,,,,,,,,,,,,,,,,,,,,,,,,,,,,,,,,,,,,,,,,,,,,,,,,,,
,,,,,,611e1dc3639bf81baea53339,62bbfafacb653a0457507260,2022-06-29_09h13.26.554,Colour_Asymmetry_Pilot,2022.1.3,Win32,66.41429236,62bbe60bf3d75ef465d3e404,0,132,132,115,1,twofour,,,,,,,,,,,,,,,,,,,,,,,,,,,,,,,,,,,,,,,,,,,,,,,,,,,,,,,,,,,,,,,,,,,,,,,,,,,,,,,,,,,,,,,,,,,,,,,,,,,,,,,,,,,,,,,,,,,,,,,,,,,,,,,,,,,,,,,,,,,,,,,,,,,,,,,,
,,,,,,611e1dc3639bf81baea53339,62bbfafacb653a0457507260,2022-06-29_09h13.26.554,Colour_Asymmetry_Pilot,2022.1.3,Win32,66.41429236,62bbe60bf3d75ef465d3e404,0,133,133,129,1,onethree,,,,,,,,,,,,,,,,,,,,,,,,,,,,,,,,,,,,,,,,,,,,,,,,,,,,,,,,,,,,,,,,,,,,,,,,,,,,,,,,,,,,,,,,,,,,,,,,,,,,,,,,,,,,,,,,,,,,,,,,,,,,,,,,,,,,,,,,,,,,,,,,,,,,,,,,
,,,,,,611e1dc3639bf81baea53339,62bbfafacb653a0457507260,2022-06-29_09h13.26.554,Colour_Asymmetry_Pilot,2022.1.3,Win32,66.41429236,62bbe60bf3d75ef465d3e404,0,134,134,145,1,onethree,,,,,,,,,,,,,,,,,,,,,,,,,,,,,,,,,,,,,,,,,,,,,,,,,,,,,,,,,,,,,,,,,,,,,,,,,,,,,,,,,,,,,,,,,,,,,,,,,,,,,,,,,,,,,,,,,,,,,,,,,,,,,,,,,,,,,,,,,,,,,,,,,,,,,,,,
,,,,,,611e1dc3639bf81baea53339,62bbfafacb653a0457507260,2022-06-29_09h13.26.554,Colour_Asymmetry_Pilot,2022.1.3,Win32,66.41429236,62bbe60bf3d75ef465d3e404,0,135,135,136,1,onetwo,,,,,,,,,,,,,,,,,,,,,,,,,,,,,,,,,,,,,,,,,,,,,,,,,,,,,,,,,,,,,,,,,,,,,,,,,,,,,,,,,,,,,,,,,,,,,,,,,,,,,,,,,,,,,,,,,,,,,,,,,,,,,,,,,,,,,,,,,,,,,,,,,,,,,,,,
,,,,,,611e1dc3639bf81baea53339,62bbfafacb653a0457507260,2022-06-29_09h13.26.554,Colour_Asymmetry_Pilot,2022.1.3,Win32,66.41429236,62bbe60bf3d75ef465d3e404,0,136,136,2,1,twoone,,,,,,,,,,,,,,,,,,,,,,,,,,,,,,,,,,,,,,,,,,,,,,,,,,,,,,,,,,,,,,,,,,,,,,,,,,,,,,,,,,,,,,,,,,,,,,,,,,,,,,,,,,,,,,,,,,,,,,,,,,,,,,,,,,,,,,,,,,,,,,,,,,,,,,,,
,,,,,,611e1dc3639bf81baea53339,62bbfafacb653a0457507260,2022-06-29_09h13.26.554,Colour_Asymmetry_Pilot,2022.1.3,Win32,66.41429236,62bbe60bf3d75ef465d3e404,0,137,137,38,1,fourtwo,,,,,,,,,,,,,,,,,,,,,,,,,,,,,,,,,,,,,,,,,,,,,,,,,,,,,,,,,,,,,,,,,,,,,,,,,,,,,,,,,,,,,,,,,,,,,,,,,,,,,,,,,,,,,,,,,,,,,,,,,,,,,,,,,,,,,,,,,,,,,,,,,,,,,,,,
,,,,,,611e1dc3639bf81baea53339,62bbfafacb653a0457507260,2022-06-29_09h13.26.554,Colour_Asymmetry_Pilot,2022.1.3,Win32,66.41429236,62bbe60bf3d75ef465d3e404,0,138,138,17,1,onethree,,,,,,,,,,,,,,,,,,,,,,,,,,,,,,,,,,,,,,,,,,,,,,,,,,,,,,,,,,,,,,,,,,,,,,,,,,,,,,,,,,,,,,,,,,,,,,,,,,,,,,,,,,,,,,,,,,,,,,,,,,,,,,,,,,,,,,,,,,,,,,,,,,,,,,,,
,,,,,,611e1dc3639bf81baea53339,62bbfafacb653a0457507260,2022-06-29_09h13.26.554,Colour_Asymmetry_Pilot,2022.1.3,Win32,66.41429236,62bbe60bf3d75ef465d3e404,0,139,139,23,1,fourthree,,,,,,,,,,,,,,,,,,,,,,,,,,,,,,,,,,,,,,,,,,,,,,,,,,,,,,,,,,,,,,,,,,,,,,,,,,,,,,,,,,,,,,,,,,,,,,,,,,,,,,,,,,,,,,,,,,,,,,,,,,,,,,,,,,,,,,,,,,,,,,,,,,,,,,,,
,,,,,,611e1dc3639bf81baea53339,62bbfafacb653a0457507260,2022-06-29_09h13.26.554,Colour_Asymmetry_Pilot,2022.1.3,Win32,66.41429236,62bbe60bf3d75ef465d3e404,0,140,140,29,1,threefour,,,,,,,,,,,,,,,,,,,,,,,,,,,,,,,,,,,,,,,,,,,,,,,,,,,,,,,,,,,,,,,,,,,,,,,,,,,,,,,,,,,,,,,,,,,,,,,,,,,,,,,,,,,,,,,,,,,,,,,,,,,,,,,,,,,,,,,,,,,,,,,,,,,,,,,,
,,,,,,611e1dc3639bf81baea53339,62bbfafacb653a0457507260,2022-06-29_09h13.26.554,Colour_Asymmetry_Pilot,2022.1.3,Win32,66.41429236,62bbe60bf3d75ef465d3e404,0,141,141,7,1,fourthree,,,,,,,,,,,,,,,,,,,,,,,,,,,,,,,,,,,,,,,,,,,,,,,,,,,,,,,,,,,,,,,,,,,,,,,,,,,,,,,,,,,,,,,,,,,,,,,,,,,,,,,,,,,,,,,,,,,,,,,,,,,,,,,,,,,,,,,,,,,,,,,,,,,,,,,,
,,,,,,611e1dc3639bf81baea53339,62bbfafacb653a0457507260,2022-06-29_09h13.26.554,Colour_Asymmetry_Pilot,2022.1.3,Win32,66.41429236,62bbe60bf3d75ef465d3e404,0,142,142,147,1,twofour,,,,,,,,,,,,,,,,,,,,,,,,,,,,,,,,,,,,,,,,,,,,,,,,,,,,,,,,,,,,,,,,,,,,,,,,,,,,,,,,,,,,,,,,,,,,,,,,,,,,,,,,,,,,,,,,,,,,,,,,,,,,,,,,,,,,,,,,,,,,,,,,,,,,,,,,
,,,,,,611e1dc3639bf81baea53339,62bbfafacb653a0457507260,2022-06-29_09h13.26.554,Colour_Asymmetry_Pilot,2022.1.3,Win32,66.41429236,62bbe60bf3d75ef465d3e404,0,143,143,48,1,onetwo,,,,,,,,,,,,,,,,,,,,,,,,,,,,,,,,,,,,,,,,,,,,,,,,,,,,,,,,,,,,,,,,,,,,,,,,,,,,,,,,,,,,,,,,,,,,,,,,,,,,,,,,,,,,,,,,,,,,,,,,,,,,,,,,,,,,,,,,,,,,,,,,,,,,,,,,
,,,,,,611e1dc3639bf81baea53339,62bbfafacb653a0457507260,2022-06-29_09h13.26.554,Colour_Asymmetry_Pilot,2022.1.3,Win32,66.41429236,62bbe60bf3d75ef465d3e404,0,144,144,5,1,threefour,,,,,,,,,,,,,,,,,,,,,,,,,,,,,,,,,,,,,,,,,,,,,,,,,,,,,,,,,,,,,,,,,,,,,,,,,,,,,,,,,,,,,,,,,,,,,,,,,,,,,,,,,,,,,,,,,,,,,,,,,,,,,,,,,,,,,,,,,,,,,,,,,,,,,,,,
,,,,,,611e1dc3639bf81baea53339,62bbfafacb653a0457507260,2022-06-29_09h13.26.554,Colour_Asymmetry_Pilot,2022.1.3,Win32,66.41429236,62bbe60bf3d75ef465d3e404,0,145,145,6,1,fourtwo,,,,,,,,,,,,,,,,,,,,,,,,,,,,,,,,,,,,,,,,,,,,,,,,,,,,,,,,,,,,,,,,,,,,,,,,,,,,,,,,,,,,,,,,,,,,,,,,,,,,,,,,,,,,,,,,,,,,,,,,,,,,,,,,,,,,,,,,,,,,,,,,,,,,,,,,
,,,,,,611e1dc3639bf81baea53339,62bbfafacb653a0457507260,2022-06-29_09h13.26.554,Colour_Asymmetry_Pilot,2022.1.3,Win32,66.41429236,62bbe60bf3d75ef465d3e404,0,146,146,21,1,threefour,,,,,,,,,,,,,,,,,,,,,,,,,,,,,,,,,,,,,,,,,,,,,,,,,,,,,,,,,,,,,,,,,,,,,,,,,,,,,,,,,,,,,,,,,,,,,,,,,,,,,,,,,,,,,,,,,,,,,,,,,,,,,,,,,,,,,,,,,,,,,,,,,,,,,,,,
,,,,,,611e1dc3639bf81baea53339,62bbfafacb653a0457507260,2022-06-29_09h13.26.554,Colour_Asymmetry_Pilot,2022.1.3,Win32,66.41429236,62bbe60bf3d75ef465d3e404,0,147,147,68,1,threeone,,,,,,,,,,,,,,,,,,,,,,,,,,,,,,,,,,,,,,,,,,,,,,,,,,,,,,,,,,,,,,,,,,,,,,,,,,,,,,,,,,,,,,,,,,,,,,,,,,,,,,,,,,,,,,,,,,,,,,,,,,,,,,,,,,,,,,,,,,,,,,,,,,,,,,,,
,,,,,,611e1dc3639bf81baea53339,62bbfafacb653a0457507260,2022-06-29_09h13.26.554,Colour_Asymmetry_Pilot,2022.1.3,Win32,66.41429236,62bbe60bf3d75ef465d3e404,0,148,148,100,1,threeone,,,,,,,,,,,,,,,,,,,,,,,,,,,,,,,,,,,,,,,,,,,,,,,,,,,,,,,,,,,,,,,,,,,,,,,,,,,,,,,,,,,,,,,,,,,,,,,,,,,,,,,,,,,,,,,,,,,,,,,,,,,,,,,,,,,,,,,,,,,,,,,,,,,,,,,,
,,,,,,611e1dc3639bf81baea53339,62bbfafacb653a0457507260,2022-06-29_09h13.26.554,Colour_Asymmetry_Pilot,2022.1.3,Win32,66.41429236,62bbe60bf3d75ef465d3e404,0,149,149,46,1,fourtwo,,,,,,,,,,,,,,,,,,,,,,,,,,,,,,,,,,,,,,,,,,,,,,,,,,,,,,,,,,,,,,,,,,,,,,,,,,,,,,,,,,,,,,,,,,,,,,,,,,,,,,,,,,,,,,,,,,,,,,,,,,,,,,,,,,,,,,,,,,,,,,,,,,,,,,,,
,,,,,,611e1dc3639bf81baea53339,62bbfafacb653a0457507260,2022-06-29_09h13.26.554,Colour_Asymmetry_Pilot,2022.1.3,Win32,66.41429236,62bbe60bf3d75ef465d3e404,0,150,150,90,1,twoone,,,,,,,,,,,,,,,,,,,,,,,,,,,,,,,,,,,,,,,,,,,,,,,,,,,,,,,,,,,,,,,,,,,,,,,,,,,,,,,,,,,,,,,,,,,,,,,,,,,,,,,,,,,,,,,,,,,,,,,,,,,,,,,,,,,,,,,,,,,,,,,,,,,,,,,,
,,,,,,611e1dc3639bf81baea53339,62bbfafacb653a0457507260,2022-06-29_09h13.26.554,Colour_Asymmetry_Pilot,2022.1.3,Win32,66.41429236,62bbe60bf3d75ef465d3e404,0,151,151,60,1,threeone,,,,,,,,,,,,,,,,,,,,,,,,,,,,,,,,,,,,,,,,,,,,,,,,,,,,,,,,,,,,,,,,,,,,,,,,,,,,,,,,,,,,,,,,,,,,,,,,,,,,,,,,,,,,,,,,,,,,,,,,,,,,,,,,,,,,,,,,,,,,,,,,,,,,,,,,
,,,,,,611e1dc3639bf81baea53339,62bbfafacb653a0457507260,2022-06-29_09h13.26.554,Colour_Asymmetry_Pilot,2022.1.3,Win32,66.41429236,62bbe60bf3d75ef465d3e404,0,152,152,106,1,twoone,,,,,,,,,,,,,,,,,,,,,,,,,,,,,,,,,,,,,,,,,,,,,,,,,,,,,,,,,,,,,,,,,,,,,,,,,,,,,,,,,,,,,,,,,,,,,,,,,,,,,,,,,,,,,,,,,,,,,,,,,,,,,,,,,,,,,,,,,,,,,,,,,,,,,,,,
,,,,,,611e1dc3639bf81baea53339,62bbfafacb653a0457507260,2022-06-29_09h13.26.554,Colour_Asymmetry_Pilot,2022.1.3,Win32,66.41429236,62bbe60bf3d75ef465d3e404,0,153,153,148,1,threeone,,,,,,,,,,,,,,,,,,,,,,,,,,,,,,,,,,,,,,,,,,,,,,,,,,,,,,,,,,,,,,,,,,,,,,,,,,,,,,,,,,,,,,,,,,,,,,,,,,,,,,,,,,,,,,,,,,,,,,,,,,,,,,,,,,,,,,,,,,,,,,,,,,,,,,,,
,,,,,,611e1dc3639bf81baea53339,62bbfafacb653a0457507260,2022-06-29_09h13.26.554,Colour_Asymmetry_Pilot,2022.1.3,Win32,66.41429236,62bbe60bf3d75ef465d3e404,0,154,154,30,1,fourtwo,,,,,,,,,,,,,,,,,,,,,,,,,,,,,,,,,,,,,,,,,,,,,,,,,,,,,,,,,,,,,,,,,,,,,,,,,,,,,,,,,,,,,,,,,,,,,,,,,,,,,,,,,,,,,,,,,,,,,,,,,,,,,,,,,,,,,,,,,,,,,,,,,,,,,,,,
,,,,,,611e1dc3639bf81baea53339,62bbfafacb653a0457507260,2022-06-29_09h13.26.554,Colour_Asymmetry_Pilot,2022.1.3,Win32,66.41429236,62bbe60bf3d75ef465d3e404,0,155,155,73,1,onethree,,,,,,,,,,,,,,,,,,,,,,,,,,,,,,,,,,,,,,,,,,,,,,,,,,,,,,,,,,,,,,,,,,,,,,,,,,,,,,,,,,,,,,,,,,,,,,,,,,,,,,,,,,,,,,,,,,,,,,,,,,,,,,,,,,,,,,,,,,,,,,,,,,,,,,,,
,,,,,,611e1dc3639bf81baea53339,62bbfafacb653a0457507260,2022-06-29_09h13.26.554,Colour_Asymmetry_Pilot,2022.1.3,Win32,66.41429236,62bbe60bf3d75ef465d3e404,0,156,156,72,1,onetwo,,,,,,,,,,,,,,,,,,,,,,,,,,,,,,,,,,,,,,,,,,,,,,,,,,,,,,,,,,,,,,,,,,,,,,,,,,,,,,,,,,,,,,,,,,,,,,,,,,,,,,,,,,,,,,,,,,,,,,,,,,,,,,,,,,,,,,,,,,,,,,,,,,,,,,,,
,,,,,,611e1dc3639bf81baea53339,62bbfafacb653a0457507260,2022-06-29_09h13.26.554,Colour_Asymmetry_Pilot,2022.1.3,Win32,66.41429236,62bbe60bf3d75ef465d3e404,0,157,157,142,1,fourtwo,,,,,,,,,,,,,,,,,,,,,,,,,,,,,,,,,,,,,,,,,,,,,,,,,,,,,,,,,,,,,,,,,,,,,,,,,,,,,,,,,,,,,,,,,,,,,,,,,,,,,,,,,,,,,,,,,,,,,,,,,,,,,,,,,,,,,,,,,,,,,,,,,,,,,,,,
,,,,,,611e1dc3639bf81baea53339,62bbfafacb653a0457507260,2022-06-29_09h13.26.554,Colour_Asymmetry_Pilot,2022.1.3,Win32,66.41429236,62bbe60bf3d75ef465d3e404,0,158,158,34,1,twoone,,,,,,,,,,,,,,,,,,,,,,,,,,,,,,,,,,,,,,,,,,,,,,,,,,,,,,,,,,,,,,,,,,,,,,,,,,,,,,,,,,,,,,,,,,,,,,,,,,,,,,,,,,,,,,,,,,,,,,,,,,,,,,,,,,,,,,,,,,,,,,,,,,,,,,,,
,,,,,,611e1dc3639bf81baea53339,62bbfafacb653a0457507260,2022-06-29_09h13.26.554,Colour_Asymmetry_Pilot,2022.1.3,Win32,66.41429236,62bbe60bf3d75ef465d3e404,0,159,159,55,1,fourthree,,,,,,,,,,,,,,,,,,,,,,,,,,,,,,,,,,,,,,,,,,,,,,,,,,,,,,,,,,,,,,,,,,,,,,,,,,,,,,,,,,,,,,,,,,,,,,,,,,,,,,,,,,,,,,,,,,,,,,,,,,,,,,,,,,,,,,,,,,,,,,,,,,,,,,,,
,,,,,,611e1dc3639bf81baea53339,62bbfafacb653a0457507260,2022-06-29_09h13.26.554,Colour_Asymmetry_Pilot,2022.1.3,Win32,66.41429236,62bbe60bf3d75ef465d3e404,0,160,160,28,1,threeone,,,,,,,,,,,,,,,,,,,,,,,,,,,,,,,,,,,,,,,,,,,,,,,,,,,,,,,,,,,,,,,,,,,,,,,,,,,,,,,,,,,,,,,,,,,,,,,,,,,,,,,,,,,,,,,,,,,,,,,,,,,,,,,,,,,,,,,,,,,,,,,,,,,,,,,,
,,,,,,611e1dc3639bf81baea53339,62bbfafacb653a0457507260,2022-06-29_09h13.26.554,Colour_Asymmetry_Pilot,2022.1.3,Win32,66.41429236,62bbe60bf3d75ef465d3e404,0,161,161,80,1,onetwo,,,,,,,,,,,,,,,,,,,,,,,,,,,,,,,,,,,,,,,,,,,,,,,,,,,,,,,,,,,,,,,,,,,,,,,,,,,,,,,,,,,,,,,,,,,,,,,,,,,,,,,,,,,,,,,,,,,,,,,,,,,,,,,,,,,,,,,,,,,,,,,,,,,,,,,,
,,,,,,611e1dc3639bf81baea53339,62bbfafacb653a0457507260,2022-06-29_09h13.26.554,Colour_Asymmetry_Pilot,2022.1.3,Win32,66.41429236,62bbe60bf3d75ef465d3e404,,,,,,,space,4.9829,space,28.0166,space,58.3245,space,12.1433,space,6.1972,space,13.0333,"[-0.9216,-0.5529999999999999,-0.3962]",onetwo,"[-0.8198,-0.5138,-0.7492000000000001]",-4,3.5807,-40,93,1,0,0,response7disk_5,-2,0,1,0,0,rectangle_8,-2,0,1,0,0,4,-2,0,1,0,0,0,0,0,0,1,,,,,,,,,,,,,,,,,,,,,,,,,,,,,,,,,,,,,,,,,,,,,,,,,,,,,,,,,,,,,,,,,,,,,,,,,,,,,,,,,,,,,,,,,,,,,,,,,,,,,,,,,,,
,,,,,,611e1dc3639bf81baea53339,62bbfafacb653a0457507260,2022-06-29_09h13.26.554,Colour_Asymmetry_Pilot,2022.1.3,Win32,66.41429236,62bbe60bf3d75ef465d3e404,,,,,,,,,,,,,,,,,,,"[0.04299999999999993,0.16060000000000008,-0.6628000000000001]",onetwo,"[0.30180000000000007,-0.7884,-0.9844]",-4,3.3756,-36,102,1,0,0,response7disk_5,-12,-2,1,0,0,rectangle_8,-12,-2,1,0,0,4,-12,-2,1,0,0,1,0,1,0,1,,,,,,,,,,,,,,,,,,,,,,,,,,,,,,,,,,,,,,,,,,,,,,,,,,,,,,,,,,,,,,,,,,,,,,,,,,,,,,,,,,,,,,,,,,,,,,,,,,,,,,,,,,,
,,,,,,611e1dc3639bf81baea53339,62bbfafacb653a0457507260,2022-06-29_09h13.26.554,Colour_Asymmetry_Pilot,2022.1.3,Win32,66.41429236,62bbe60bf3d75ef465d3e404,,,,,,,,,,,,,,,,,,,"[0.9213999999999998,0.6391999999999998,-0.9922]",onethree,"[-0.26280000000000003,-0.2158,-0.3256]",-4,2.1662,-46,96,1,0,0,response7disk_5,1,2,1,0,0,rectangle_8,1,2,1,0,0,4,1,2,1,0,0,2,0,2,0,1,,,,,,,,,,,,,,,,,,,,,,,,,,,,,,,,,,,,,,,,,,,,,,,,,,,,,,,,,,,,,,,,,,,,,,,,,,,,,,,,,,,,,,,,,,,,,,,,,,,,,,,,,,,
,,,,,,611e1dc3639bf81baea53339,62bbfafacb653a0457507260,2022-06-29_09h13.26.554,Colour_Asymmetry_Pilot,2022.1.3,Win32,66.41429236,62bbe60bf3d75ef465d3e404,,,,,,,,,,,,,,,,,,,"[-0.5688,-0.08239999999999992,-0.1844]",twofour,"[1,0.12939999999999996,-1]",-4,1.6239,-41,95,1,0,0,response7disk_5,2,3,1,0,0,rectangle_8,2,3,1,0,0,4,2,3,1,0,0,3,0,3,0,1,,,,,,,,,,,,,,,,,,,,,,,,,,,,,,,,,,,,,,,,,,,,,,,,,,,,,,,,,,,,,,,,,,,,,,,,,,,,,,,,,,,,,,,,,,,,,,,,,,,,,,,,,,,
,,,,,,611e1dc3639bf81baea53339,62bbfafacb653a0457507260,2022-06-29_09h13.26.554,Colour_Asymmetry_Pilot,2022.1.3,Win32,66.41429236,62bbe60bf3d75ef465d3e404,,,,,,,,,,,,,,,,,,,"[-0.4982,-0.2942,-0.0354000000000001]",onethree,"[0.9213999999999998,0.6391999999999998,-0.9922]",-4,1.2317,-41,100,1,0,0,response7disk_5,-4,6,1,0,0,rectangle_8,38,106,1,0,0,4,10,2,1,0,0,4,0,4,0,1,response1disk_7,7,rectangle_4,,,,,,,,,,,,,,,,,,,,,,,,,,,,,,,,,,,,,,,,,,,,,,,,,,,,,,,,,,,,,,,,,,,,,,,,,,,,,,,,,,,,,,,,,,,,,,,,,,,,,,,,
,,,,,,611e1dc3639bf81baea53339,62bbfafacb653a0457507260,2022-06-29_09h13.26.554,Colour_Asymmetry_Pilot,2022.1.3,Win32,66.41429236,62bbe60bf3d75ef465d3e404,,,,,,,,,,,,,,,,,,,"[-0.050999999999999934,-0.6706000000000001,-0.804]",fourthree,"[-0.8118,-0.8198,-0.5452]",-4,1.5517,-39,97,1,0,0,response7disk_5,-11,3,1,0,0,rectangle_8,33,102,1,0,0,4,21,6,1,0,0,5,0,5,0,1,response1disk_7,7,rectangle_4,,,,,,,,,,,,,,,,,,,,,,,,,,,,,,,,,,,,,,,,,,,,,,,,,,,,,,,,,,,,,,,,,,,,,,,,,,,,,,,,,,,,,,,,,,,,,,,,,,,,,,,,
,,,,,,611e1dc3639bf81baea53339,62bbfafacb653a0457507260,2022-06-29_09h13.26.554,Colour_Asymmetry_Pilot,2022.1.3,Win32,66.41429236,62bbe60bf3d75ef465d3e404,,,,,,,,,,,,,,,,,,,"[0.12939999999999996,-0.2864,0.3253999999999999]",onetwo,"[0.9372,0.20779999999999998,0.2704]",-4,1.3263,-45,93,1,0,0,response7disk_5,-23,0,1,0,0,rectangle_8,-23,0,1,0,0,4,-23,0,1,0,0,6,0,6,0,1,,,,,,,,,,,,,,,,,,,,,,,,,,,,,,,,,,,,,,,,,,,,,,,,,,,,,,,,,,,,,,,,,,,,,,,,,,,,,,,,,,,,,,,,,,,,,,,,,,,,,,,,,,,
,,,,,,611e1dc3639bf81baea53339,62bbfafacb653a0457507260,2022-06-29_09h13.26.554,Colour_Asymmetry_Pilot,2022.1.3,Win32,66.41429236,62bbe60bf3d75ef465d3e404,,,,,,,,,,,,,,,,,,,,onethree,,4,6.9097,,,,,,,,,,,,,,,,,,,,,,,,,,,,,,,,space,6.6302,"[0.40379999999999994,0.09000000000000008,0.44300000000000006]","[0.7646000000000002,0.07440000000000002,0.2704]",39,99,1,0,0,response1disk,18,4,1,0,0,rectangle,18,4,1,0,0,,3,0.0043,0,18,4,1,0,0,0,0,0,115,1,34,second,,,,,,,,,,,,,,,,,,,,,,,,,,,,,,,,,,,,,,,,,,,,,,,,,,,,,,,,,,,,,,,,,,,
,,,,,,611e1dc3639bf81baea53339,62bbfafacb653a0457507260,2022-06-29_09h13.26.554,Colour_Asymmetry_Pilot,2022.1.3,Win32,66.41429236,62bbe60bf3d75ef465d3e404,,,,,,,,,,,,,,,,,,,,threefour,,4,13.2531,,,,,,,,,,,,,,,,,,,,,,,,,,,,,,,,,,"[0.0351999999999999,0.41159999999999997,0.0038000000000000256]","[-0.9216,-0.5529999999999999,-0.3962]",28,68,1,0,0,response1disk,3,0,1,0,0,rectangle,3,0,1,0,0,,2,0.0026,0,3,0,1,0,0,0,1,1,43,1,43,first,,,,,,,,,,,,,,,,,,,,,,,,,,,,,,,,,,,,,,,,,,,,,,,,,,,,,,,,,,,,,,,,,,,
,,,,,,611e1dc3639bf81baea53339,62bbfafacb653a0457507260,2022-06-29_09h13.26.554,Colour_Asymmetry_Pilot,2022.1.3,Win32,66.41429236,62bbe60bf3d75ef465d3e404,,,,,,,,,,,,,,,,,,,,onethree,,4,1.498,,,,,,,,,,,,,,,,,,,,,,,,,,,,,,,,,,"[0.9763999999999999,0.8588,-0.05900000000000005]","[0.34099999999999997,0.12939999999999996,-0.9766]",43,101,1,0,0,response1disk,-5,4,1,0,0,rectangle,-5,4,1,0,0,,3,0.002,0,-5,4,1,0,0,0,2,2,95,1,14,second,,,,,,,,,,,,,,,,,,,,,,,,,,,,,,,,,,,,,,,,,,,,,,,,,,,,,,,,,,,,,,,,,,,
,,,,,,611e1dc3639bf81baea53339,62bbfafacb653a0457507260,2022-06-29_09h13.26.554,Colour_Asymmetry_Pilot,2022.1.3,Win32,66.41429236,62bbe60bf3d75ef465d3e404,,,,,,,,,,,,,,,,,,,,twofour,,4,1.4331,,,,,,,,,,,,,,,,,,,,,,,,,,,,,,,,,,"[-0.9766,-0.6472,0.07440000000000002]","[-0.9296,-0.12959999999999994,-0.043199999999999905]",35,102,1,0,0,response1disk,10,5,1,0,0,rectangle,10,5,1,0,0,,3,0.0014,0,10,5,1,0,0,0,3,3,4,1,4,first,,,,,,,,,,,,,,,,,,,,,,,,,,,,,,,,,,,,,,,,,,,,,,,,,,,,,,,,,,,,,,,,,,,
,,,,,,611e1dc3639bf81baea53339,62bbfafacb653a0457507260,2022-06-29_09h13.26.554,Colour_Asymmetry_Pilot,2022.1.3,Win32,66.41429236,62bbe60bf3d75ef465d3e404,,,,,,,,,,,,,,,,,,,,threefour,,4,0.9528,,,,,,,,,,,,,,,,,,,,,,,,,,,,,,,,,,"[0.9763999999999999,0.30979999999999985,-0.6786]","[0.9213999999999998,0.6391999999999998,-0.9922]",35,102,1,0,0,response1disk,12,-2,1,0,0,rectangle,42,-98,1,0,0,1,1,6.0471,1,-13,14,1,0,0,0,4,4,97,1,16,second,response3disk_3,rectangle,,,,,,,,,,,,,,,,,,,,,,,,,,,,,,,,,,,,,,,,,,,,,,,,,,,,,,,,,,,,,,,,,
,,,,,,611e1dc3639bf81baea53339,62bbfafacb653a0457507260,2022-06-29_09h13.26.554,Colour_Asymmetry_Pilot,2022.1.3,Win32,66.41429236,62bbe60bf3d75ef465d3e404,,,,,,,,,,,,,,,,,,,,onetwo,,-4,1.2663,,,,,,,,,,,,,,,,,,,,,,,,,,,,,,,,,,"[-0.10599999999999998,-0.10599999999999998,0.5841999999999998]","[0.9372,0.9450000000000001,0.8980000000000001]",-42,93,1,0,0,response7disk,-3,-6,1,0,0,rectangle,-3,-6,1,0,0,1,1,0.0004,0,-3,-6,1,0,0,0,5,5,119,1,38,second,,,,,,,,,,,,,,,,,,,,,,,,,,,,,,,,,,,,,,,,,,,,,,,,,,,,,,,,,,,,,,,,,,,
,,,,,,611e1dc3639bf81baea53339,62bbfafacb653a0457507260,2022-06-29_09h13.26.554,Colour_Asymmetry_Pilot,2022.1.3,Win32,66.41429236,62bbe60bf3d75ef465d3e404,,,,,,,,,,,,,,,,,,,,twoone,,-4,1.1273,,,,,,,,,,,,,,,,,,,,,,,,,,,,,,,,,,"[0.0351999999999999,0.41159999999999997,0.0038000000000000256]","[0.5528,0.7409999999999999,-0.71]",-41,100,1,0,0,response7disk,3,2,1,0,0,rectangle,3,2,1,0,0,1,1,0.0004,0,3,2,1,0,0,0,6,6,57,1,57,first,,,,,,,,,,,,,,,,,,,,,,,,,,,,,,,,,,,,,,,,,,,,,,,,,,,,,,,,,,,,,,,,,,,
,,,,,,611e1dc3639bf81baea53339,62bbfafacb653a0457507260,2022-06-29_09h13.26.554,Colour_Asymmetry_Pilot,2022.1.3,Win32,66.41429236,62bbe60bf3d75ef465d3e404,,,,,,,,,,,,,,,,,,,,onethree,,-4,1.1019,,,,,,,,,,,,,,,,,,,,,,,,,,,,,,,,,,"[0.5528,0.7409999999999999,-0.71]","[0.7646000000000002,0.07440000000000002,0.2704]",-40,98,1,0,0,response7disk,-4,5,1,0,0,rectangle,-4,5,1,0,0,1,3,0.0043,0,-4,5,1,0,0,0,7,7,96,1,15,second,,,,,,,,,,,,,,,,,,,,,,,,,,,,,,,,,,,,,,,,,,,,,,,,,,,,,,,,,,,,,,,,,,,
,,,,,,611e1dc3639bf81baea53339,62bbfafacb653a0457507260,2022-06-29_09h13.26.554,Colour_Asymmetry_Pilot,2022.1.3,Win32,66.41429236,62bbe60bf3d75ef465d3e404,,,,,,,,,,,,,,,,,,,,fourthree,,-4,1.3663,,,,,,,,,,,,,,,,,,,,,,,,,,,,,,,,,,"[-0.2942,-0.24719999999999998,-0.357]","[0.9372,0.20779999999999998,0.2704]",-43,104,1,0,0,response7disk,-4,1,1,0,0,rectangle,-4,1,1,0,0,1,3,0.0004,0,-4,1,1,0,0,0,8,8,150,1,69,second,,,,,,,,,,,,,,,,,,,,,,,,,,,,,,,,,,,,,,,,,,,,,,,,,,,,,,,,,,,,,,,,,,,
,,,,,,611e1dc3639bf81baea53339,62bbfafacb653a0457507260,2022-06-29_09h13.26.554,Colour_Asymmetry_Pilot,2022.1.3,Win32,66.41429236,62bbe60bf3d75ef465d3e404,,,,,,,,,,,,,,,,,,,,twofour,,4,1.2586,,,,,,,,,,,,,,,,,,,,,,,,,,,,,,,,,,"[-0.01980000000000004,-0.5138,-0.38039999999999996]","[0.2784,-0.31000000000000005,-0.5452]",29,98,1,0,0,response1disk,14,2,1,0,0,rectangle,14,2,1,0,0,1,3,0.0009,0,14,2,1,0,0,0,9,9,88,1,7,second,,,,,,,,,,,,,,,,,,,,,,,,,,,,,,,,,,,,,,,,,,,,,,,,,,,,,,,,,,,,,,,,,,,
,,,,,,611e1dc3639bf81baea53339,62bbfafacb653a0457507260,2022-06-29_09h13.26.554,Colour_Asymmetry_Pilot,2022.1.3,Win32,66.41429236,62bbe60bf3d75ef465d3e404,,,,,,,,,,,,,,,,,,,,fourthree,,4,0.9577,,,,,,,,,,,,,,,,,,,,,,,,,,,,,,,,,,"[-0.10599999999999998,-0.10599999999999998,0.5841999999999998]","[-0.5452,-0.608,0.2470000000000001]",30,95,1,0,0,response1disk,7,3,1,0,0,rectangle,7,3,1,0,0,1,1,0.0036,0,7,3,1,0,0,0,10,10,25,1,25,first,,,,,,,,,,,,,,,,,,,,,,,,,,,,,,,,,,,,,,,,,,,,,,,,,,,,,,,,,,,,,,,,,,,
,,,,,,611e1dc3639bf81baea53339,62bbfafacb653a0457507260,2022-06-29_09h13.26.554,Colour_Asymmetry_Pilot,2022.1.3,Win32,66.41429236,62bbe60bf3d75ef465d3e404,,,,,,,,,,,,,,,,,,,,fourtwo,,-4,0.9671,,,,,,,,,,,,,,,,,,,,,,,,,,,,,,,,,,"[-0.9766,-0.34920000000000007,0.2156]","[0.37240000000000006,-0.050999999999999934,-0.5216]",-53,97,1,0,0,response7disk,-16,4,1,0,0,rectangle,-16,4,1,0,0,1,3,0.0021,0,-16,4,1,0,0,0,11,11,137,1,56,second,,,,,,,,,,,,,,,,,,,,,,,,,,,,,,,,,,,,,,,,,,,,,,,,,,,,,,,,,,,,,,,,,,,
,,,,,,611e1dc3639bf81baea53339,62bbfafacb653a0457507260,2022-06-29_09h13.26.554,Colour_Asymmetry_Pilot,2022.1.3,Win32,66.41429236,62bbe60bf3d75ef465d3e404,,,,,,,,,,,,,,,,,,,,twoone,,-4,0.7829,,,,,,,,,,,,,,,,,,,,,,,,,,,,,,,,,,"[-0.6706000000000001,-0.6157999999999999,-0.6786]","[-0.9688,-0.38039999999999996,-0.41979999999999995]",-38,105,1,0,0,response7disk,3,6,1,0,0,rectangle,3,6,1,0,0,1,1,0.0021,0,3,6,1,0,0,0,12,12,101,1,20,second,,,,,,,,,,,,,,,,,,,,,,,,,,,,,,,,,,,,,,,,,,,,,,,,,,,,,,,,,,,,,,,,,,,
,,,,,,611e1dc3639bf81baea53339,62bbfafacb653a0457507260,2022-06-29_09h13.26.554,Colour_Asymmetry_Pilot,2022.1.3,Win32,66.41429236,62bbe60bf3d75ef465d3e404,,,,,,,,,,,,,,,,,,,,threeone,,-4,2.5019,,,,,,,,,,,,,,,,,,,,,,,,,,,,,,,,,,"[0.9763999999999999,-0.1137999999999999,-0.6314]","[-0.38039999999999996,-0.4276,-0.1452]",-48,97,1,0,0,response7disk,2,5,1,0,0,rectangle,2,5,1,0,0,1,3,0.002,0,2,5,1,0,0,0,13,13,1,1,1,first,,,,,,,,,,,,,,,,,,,,,,,,,,,,,,,,,,,,,,,,,,,,,,,,,,,,,,,,,,,,,,,,,,,
,,,,,,611e1dc3639bf81baea53339,62bbfafacb653a0457507260,2022-06-29_09h13.26.554,Colour_Asymmetry_Pilot,2022.1.3,Win32,66.41429236,62bbe60bf3d75ef465d3e404,,,,,,,,,,,,,,,,,,,,twoone,,4,2.1808,,,,,,,,,,,,,,,,,,,,,,,,,,,,,,,,,,"[-0.9216,-0.5529999999999999,-0.3962]","[0.0351999999999999,0.41159999999999997,0.0038000000000000256]",38,95,1,0,0,response1disk,10,0,1,0,0,rectangle,10,0,1,0,0,1,2,0.0022,0,10,0,1,0,0,0,14,14,124,1,43,second,,,,,,,,,,,,,,,,,,,,,,,,,,,,,,,,,,,,,,,,,,,,,,,,,,,,,,,,,,,,,,,,,,,
,,,,,,611e1dc3639bf81baea53339,62bbfafacb653a0457507260,2022-06-29_09h13.26.554,Colour_Asymmetry_Pilot,2022.1.3,Win32,66.41429236,62bbe60bf3d75ef465d3e404,,,,,,,,,,,,,,,,,,,,onethree,,-4,0.784,,,,,,,,,,,,,,,,,,,,,,,,,,,,,,,,,,"[0.0351999999999999,0.41159999999999997,0.0038000000000000256]","[-0.26280000000000003,-0.2158,-0.3256]",-40,96,1,0,0,response7disk,-16,-5,1,0,0,rectangle,-16,-5,1,0,0,1,3,0.0021,0,-16,-5,1,0,0,0,15,15,29,1,29,first,,,,,,,,,,,,,,,,,,,,,,,,,,,,,,,,,,,,,,,,,,,,,,,,,,,,,,,,,,,,,,,,,,,
,,,,,,611e1dc3639bf81baea53339,62bbfafacb653a0457507260,2022-06-29_09h13.26.554,Colour_Asymmetry_Pilot,2022.1.3,Win32,66.41429236,62bbe60bf3d75ef465d3e404,,,,,,,,,,,,,,,,,,,,fourtwo,,-4,0.8028,,,,,,,,,,,,,,,,,,,,,,,,,,,,,,,,,,"[0.9686000000000001,0.5763999999999998,0.11359999999999992]","[0.9213999999999998,0.6391999999999998,-0.9922]",-40,105,1,0,0,response7disk,-11,0,1,0,0,rectangle,-11,0,1,0,0,1,2,0.002,0,-11,0,1,0,0,0,16,16,45,1,45,first,,,,,,,,,,,,,,,,,,,,,,,,,,,,,,,,,,,,,,,,,,,,,,,,,,,,,,,,,,,,,,,,,,,
,,,,,,611e1dc3639bf81baea53339,62bbfafacb653a0457507260,2022-06-29_09h13.26.554,Colour_Asymmetry_Pilot,2022.1.3,Win32,66.41429236,62bbe60bf3d75ef465d3e404,,,,,,,,,,,,,,,,,,,,onethree,,-4,0.737,,,,,,,,,,,,,,,,,,,,,,,,,,,,,,,,,,"[-0.34920000000000007,-0.702,-0.5216]","[0.8115999999999999,-0.0040000000000000036,-0.09819999999999995]",-48,104,1,0,0,response7disk,-13,3,1,0,0,rectangle,-13,3,1,0,0,1,2,0.0003,0,-13,3,1,0,0,0,17,17,134,1,53,second,,,,,,,,,,,,,,,,,,,,,,,,,,,,,,,,,,,,,,,,,,,,,,,,,,,,,,,,,,,,,,,,,,,
,,,,,,611e1dc3639bf81baea53339,62bbfafacb653a0457507260,2022-06-29_09h13.26.554,Colour_Asymmetry_Pilot,2022.1.3,Win32,66.41429236,62bbe60bf3d75ef465d3e404,,,,,,,,,,,,,,,,,,,,onetwo,,-4,0.8665,,,,,,,,,,,,,,,,,,,,,,,,,,,,,,,,,,"[-0.9138,-0.5296000000000001,-0.5529999999999999]","[-0.6942,-0.7648,-0.12959999999999994]",-42,90,1,0,0,response7disk,-10,1,1,0,0,rectangle,-10,1,1,0,0,1,3,0.0034,0,-10,1,1,0,0,0,18,18,141,1,60,second,,,,,,,,,,,,,,,,,,,,,,,,,,,,,,,,,,,,,,,,,,,,,,,,,,,,,,,,,,,,,,,,,,,
,,,,,,611e1dc3639bf81baea53339,62bbfafacb653a0457507260,2022-06-29_09h13.26.554,Colour_Asymmetry_Pilot,2022.1.3,Win32,66.41429236,62bbe60bf3d75ef465d3e404,,,,,,,,,,,,,,,,,,,,threeone,,-4,0.6853,,,,,,,,,,,,,,,,,,,,,,,,,,,,,,,,,,"[0.9686000000000001,0.3802000000000001,0.19999999999999996]","[-0.48240000000000005,0.3175999999999999,0.2156]",-43,96,1,0,0,response7disk,-2,-5,1,0,0,rectangle,80,39,1,0,0,3,3,4.3994,1,21,-6,1,0,0,0,19,19,55,1,55,first,response1disk_3,rectangle,,,,,,,,,,,,,,,,,,,,,,,,,,,,,,,,,,,,,,,,,,,,,,,,,,,,,,,,,,,,,,,,,
,,,,,,611e1dc3639bf81baea53339,62bbfafacb653a0457507260,2022-06-29_09h13.26.554,Colour_Asymmetry_Pilot,2022.1.3,Win32,66.41429236,62bbe60bf3d75ef465d3e404,,,,,,,,,,,,,,,,,,,,threefour,,-4,0.8631,,,,,,,,,,,,,,,,,,,,,,,,,,,,,,,,,,"[0.2784,-0.31000000000000005,-0.5452]","[1,0.12939999999999996,-1]",-45,99,1,0,0,response7disk,-18,0,1,0,0,rectangle,-18,0,1,0,0,3,2,0.0022,0,-18,0,1,0,0,0,20,20,113,1,32,second,,,,,,,,,,,,,,,,,,,,,,,,,,,,,,,,,,,,,,,,,,,,,,,,,,,,,,,,,,,,,,,,,,,
