trials.thisRepN,trials.thisTrialN,trials.thisN,trials.thisIndex,trials.ran,Colourcodes,participant,session,date,expName,psychopyVersion,OS,frameRate,study_id,trials_4.thisRepN,trials_4.thisTrialN,trials_4.thisN,trials_4.thisIndex,trials_4.ran,StimulusPos,key_resp.keys,key_resp.rt,key_resp_2.keys,key_resp_2.rt,key_resp_15.keys,key_resp_15.rt,key_resp_17.keys,key_resp_17.rt,key_resp_9.keys,key_resp_9.rt,key_resp_10.keys,key_resp_10.rt,Circle1_col,Ecc,Circle2_col,similarity,response_time,mouse_5.x,mouse_5.y,mouse_5.leftButton,mouse_5.midButton,mouse_5.rightButton,mouse_5.clicked_name,mouse_10.x,mouse_10.y,mouse_10.leftButton,mouse_10.midButton,mouse_10.rightButton,mouse_10.clicked_name,mouse_7.x,mouse_7.y,mouse_7.leftButton,mouse_7.midButton,mouse_7.rightButton,catchnumberprac,mouse_6.x,mouse_6.y,mouse_6.leftButton,mouse_6.midButton,mouse_6.rightButton,duringprac.thisRepN,duringprac.thisTrialN,duringprac.thisN,duringprac.thisIndex,duringprac.ran,mouse_7.clicked_name,catchprac,mouse_6.clicked_name,key_resp_22.keys,key_resp_22.rt,Circle1_colour,Circle2_colour,mouse.x,mouse.y,mouse.leftButton,mouse.midButton,mouse.rightButton,mouse.clicked_name,mouse_2.x,mouse_2.y,mouse_2.leftButton,mouse_2.midButton,mouse_2.rightButton,mouse_2.clicked_name,mouse_3.x,mouse_3.y,mouse_3.leftButton,mouse_3.midButton,mouse_3.rightButton,catchresponse,catchnumber,response_time_catch,Catch,mouse_11.x,mouse_11.y,mouse_11.leftButton,mouse_11.midButton,mouse_11.rightButton,trials_2.thisRepN,trials_2.thisTrialN,trials_2.thisN,trials_2.thisIndex,trials_2.ran,Colourpair,Temporder,mouse_3.clicked_name,mouse_11.clicked_name,trials_3.thisRepN,trials_3.thisTrialN,trials_3.thisN,trials_3.thisIndex,trials_3.ran,key_resp_instr_Ishi.keys,key_resp_instr_Ishi.rt,Ishi_trial_keyresp.keys,Ishi_trial_keyresp.rt,Ishi_textbox.text,Ishi_loop.thisRepN,Ishi_loop.thisTrialN,Ishi_loop.thisN,Ishi_loop.thisIndex,Ishi_loop.ran,imageaddress,textbox.text,mouse_4.x,mouse_4.y,mouse_4.leftButton,mouse_4.midButton,mouse_4.rightButton,mouse_4.clicked_name,textbox_2.text,mouse_8.x,mouse_8.y,mouse_8.leftButton,mouse_8.midButton,mouse_8.rightButton,mouse_8.clicked_name,textbox_3.text,mouse_9.x,mouse_9.y,mouse_9.leftButton,mouse_9.midButton,mouse_9.rightButton,mouse_9.clicked_name,textbox_4.text,mouse_12.x,mouse_12.y,mouse_12.leftButton,mouse_12.midButton,mouse_12.rightButton,mouse_12.clicked_name,textbox_5.text,mouse_13.x,mouse_13.y,mouse_13.leftButton,mouse_13.midButton,mouse_13.rightButton,mouse_13.clicked_name,textbox_6.text,mouse_14.x,mouse_14.y,mouse_14.leftButton,mouse_14.midButton,mouse_14.rightButton,mouse_14.clicked_name,textbox_7.text,mouse_15.x,mouse_15.y,mouse_15.leftButton,mouse_15.midButton,mouse_15.rightButton,mouse_15.clicked_name
0,0,0,86,1,,5c6219e169375500012329d9,62bbfb4ce80eff42814d9127,2022-06-29_09h12.23.999,Colour_Asymmetry_Pilot,2022.1.3,Win32,59.99880002,62bbe60bf3d75ef465d3e404,,,,,,,,,,,,,,,,,,,,,,,,,,,,,,,,,,,,,,,,,,,,,,,,,,,,,,,,,,,,,,,,,,,,,,,,,,,,,,,,,,,,,,,,,,,,,,,,,,,,,,,,,,,,,,,,,,,,,,,,,,,,,,,,,,,,,,,,,,,,,,,,,,,,,,,,,,,,,,
0,1,1,36,1,,5c6219e169375500012329d9,62bbfb4ce80eff42814d9127,2022-06-29_09h12.23.999,Colour_Asymmetry_Pilot,2022.1.3,Win32,59.99880002,62bbe60bf3d75ef465d3e404,,,,,,,,,,,,,,,,,,,,,,,,,,,,,,,,,,,,,,,,,,,,,,,,,,,,,,,,,,,,,,,,,,,,,,,,,,,,,,,,,,,,,,,,,,,,,,,,,,,,,,,,,,,,,,,,,,,,,,,,,,,,,,,,,,,,,,,,,,,,,,,,,,,,,,,,,,,,,,
0,2,2,23,1,,5c6219e169375500012329d9,62bbfb4ce80eff42814d9127,2022-06-29_09h12.23.999,Colour_Asymmetry_Pilot,2022.1.3,Win32,59.99880002,62bbe60bf3d75ef465d3e404,,,,,,,,,,,,,,,,,,,,,,,,,,,,,,,,,,,,,,,,,,,,,,,,,,,,,,,,,,,,,,,,,,,,,,,,,,,,,,,,,,,,,,,,,,,,,,,,,,,,,,,,,,,,,,,,,,,,,,,,,,,,,,,,,,,,,,,,,,,,,,,,,,,,,,,,,,,,,,
0,3,3,0,1,,5c6219e169375500012329d9,62bbfb4ce80eff42814d9127,2022-06-29_09h12.23.999,Colour_Asymmetry_Pilot,2022.1.3,Win32,59.99880002,62bbe60bf3d75ef465d3e404,,,,,,,,,,,,,,,,,,,,,,,,,,,,,,,,,,,,,,,,,,,,,,,,,,,,,,,,,,,,,,,,,,,,,,,,,,,,,,,,,,,,,,,,,,,,,,,,,,,,,,,,,,,,,,,,,,,,,,,,,,,,,,,,,,,,,,,,,,,,,,,,,,,,,,,,,,,,,,
0,4,4,60,1,,5c6219e169375500012329d9,62bbfb4ce80eff42814d9127,2022-06-29_09h12.23.999,Colour_Asymmetry_Pilot,2022.1.3,Win32,59.99880002,62bbe60bf3d75ef465d3e404,,,,,,,,,,,,,,,,,,,,,,,,,,,,,,,,,,,,,,,,,,,,,,,,,,,,,,,,,,,,,,,,,,,,,,,,,,,,,,,,,,,,,,,,,,,,,,,,,,,,,,,,,,,,,,,,,,,,,,,,,,,,,,,,,,,,,,,,,,,,,,,,,,,,,,,,,,,,,,
0,5,5,51,1,,5c6219e169375500012329d9,62bbfb4ce80eff42814d9127,2022-06-29_09h12.23.999,Colour_Asymmetry_Pilot,2022.1.3,Win32,59.99880002,62bbe60bf3d75ef465d3e404,,,,,,,,,,,,,,,,,,,,,,,,,,,,,,,,,,,,,,,,,,,,,,,,,,,,,,,,,,,,,,,,,,,,,,,,,,,,,,,,,,,,,,,,,,,,,,,,,,,,,,,,,,,,,,,,,,,,,,,,,,,,,,,,,,,,,,,,,,,,,,,,,,,,,,,,,,,,,,
0,6,6,10,1,,5c6219e169375500012329d9,62bbfb4ce80eff42814d9127,2022-06-29_09h12.23.999,Colour_Asymmetry_Pilot,2022.1.3,Win32,59.99880002,62bbe60bf3d75ef465d3e404,,,,,,,,,,,,,,,,,,,,,,,,,,,,,,,,,,,,,,,,,,,,,,,,,,,,,,,,,,,,,,,,,,,,,,,,,,,,,,,,,,,,,,,,,,,,,,,,,,,,,,,,,,,,,,,,,,,,,,,,,,,,,,,,,,,,,,,,,,,,,,,,,,,,,,,,,,,,,,
0,7,7,15,1,,5c6219e169375500012329d9,62bbfb4ce80eff42814d9127,2022-06-29_09h12.23.999,Colour_Asymmetry_Pilot,2022.1.3,Win32,59.99880002,62bbe60bf3d75ef465d3e404,,,,,,,,,,,,,,,,,,,,,,,,,,,,,,,,,,,,,,,,,,,,,,,,,,,,,,,,,,,,,,,,,,,,,,,,,,,,,,,,,,,,,,,,,,,,,,,,,,,,,,,,,,,,,,,,,,,,,,,,,,,,,,,,,,,,,,,,,,,,,,,,,,,,,,,,,,,,,,
0,8,8,24,1,,5c6219e169375500012329d9,62bbfb4ce80eff42814d9127,2022-06-29_09h12.23.999,Colour_Asymmetry_Pilot,2022.1.3,Win32,59.99880002,62bbe60bf3d75ef465d3e404,,,,,,,,,,,,,,,,,,,,,,,,,,,,,,,,,,,,,,,,,,,,,,,,,,,,,,,,,,,,,,,,,,,,,,,,,,,,,,,,,,,,,,,,,,,,,,,,,,,,,,,,,,,,,,,,,,,,,,,,,,,,,,,,,,,,,,,,,,,,,,,,,,,,,,,,,,,,,,
0,9,9,25,1,,5c6219e169375500012329d9,62bbfb4ce80eff42814d9127,2022-06-29_09h12.23.999,Colour_Asymmetry_Pilot,2022.1.3,Win32,59.99880002,62bbe60bf3d75ef465d3e404,,,,,,,,,,,,,,,,,,,,,,,,,,,,,,,,,,,,,,,,,,,,,,,,,,,,,,,,,,,,,,,,,,,,,,,,,,,,,,,,,,,,,,,,,,,,,,,,,,,,,,,,,,,,,,,,,,,,,,,,,,,,,,,,,,,,,,,,,,,,,,,,,,,,,,,,,,,,,,
0,10,10,18,1,,5c6219e169375500012329d9,62bbfb4ce80eff42814d9127,2022-06-29_09h12.23.999,Colour_Asymmetry_Pilot,2022.1.3,Win32,59.99880002,62bbe60bf3d75ef465d3e404,,,,,,,,,,,,,,,,,,,,,,,,,,,,,,,,,,,,,,,,,,,,,,,,,,,,,,,,,,,,,,,,,,,,,,,,,,,,,,,,,,,,,,,,,,,,,,,,,,,,,,,,,,,,,,,,,,,,,,,,,,,,,,,,,,,,,,,,,,,,,,,,,,,,,,,,,,,,,,
0,11,11,57,1,,5c6219e169375500012329d9,62bbfb4ce80eff42814d9127,2022-06-29_09h12.23.999,Colour_Asymmetry_Pilot,2022.1.3,Win32,59.99880002,62bbe60bf3d75ef465d3e404,,,,,,,,,,,,,,,,,,,,,,,,,,,,,,,,,,,,,,,,,,,,,,,,,,,,,,,,,,,,,,,,,,,,,,,,,,,,,,,,,,,,,,,,,,,,,,,,,,,,,,,,,,,,,,,,,,,,,,,,,,,,,,,,,,,,,,,,,,,,,,,,,,,,,,,,,,,,,,
0,12,12,52,1,,5c6219e169375500012329d9,62bbfb4ce80eff42814d9127,2022-06-29_09h12.23.999,Colour_Asymmetry_Pilot,2022.1.3,Win32,59.99880002,62bbe60bf3d75ef465d3e404,,,,,,,,,,,,,,,,,,,,,,,,,,,,,,,,,,,,,,,,,,,,,,,,,,,,,,,,,,,,,,,,,,,,,,,,,,,,,,,,,,,,,,,,,,,,,,,,,,,,,,,,,,,,,,,,,,,,,,,,,,,,,,,,,,,,,,,,,,,,,,,,,,,,,,,,,,,,,,
0,13,13,48,1,,5c6219e169375500012329d9,62bbfb4ce80eff42814d9127,2022-06-29_09h12.23.999,Colour_Asymmetry_Pilot,2022.1.3,Win32,59.99880002,62bbe60bf3d75ef465d3e404,,,,,,,,,,,,,,,,,,,,,,,,,,,,,,,,,,,,,,,,,,,,,,,,,,,,,,,,,,,,,,,,,,,,,,,,,,,,,,,,,,,,,,,,,,,,,,,,,,,,,,,,,,,,,,,,,,,,,,,,,,,,,,,,,,,,,,,,,,,,,,,,,,,,,,,,,,,,,,
0,14,14,39,1,,5c6219e169375500012329d9,62bbfb4ce80eff42814d9127,2022-06-29_09h12.23.999,Colour_Asymmetry_Pilot,2022.1.3,Win32,59.99880002,62bbe60bf3d75ef465d3e404,,,,,,,,,,,,,,,,,,,,,,,,,,,,,,,,,,,,,,,,,,,,,,,,,,,,,,,,,,,,,,,,,,,,,,,,,,,,,,,,,,,,,,,,,,,,,,,,,,,,,,,,,,,,,,,,,,,,,,,,,,,,,,,,,,,,,,,,,,,,,,,,,,,,,,,,,,,,,,
0,15,15,49,1,,5c6219e169375500012329d9,62bbfb4ce80eff42814d9127,2022-06-29_09h12.23.999,Colour_Asymmetry_Pilot,2022.1.3,Win32,59.99880002,62bbe60bf3d75ef465d3e404,,,,,,,,,,,,,,,,,,,,,,,,,,,,,,,,,,,,,,,,,,,,,,,,,,,,,,,,,,,,,,,,,,,,,,,,,,,,,,,,,,,,,,,,,,,,,,,,,,,,,,,,,,,,,,,,,,,,,,,,,,,,,,,,,,,,,,,,,,,,,,,,,,,,,,,,,,,,,,
0,16,16,3,1,,5c6219e169375500012329d9,62bbfb4ce80eff42814d9127,2022-06-29_09h12.23.999,Colour_Asymmetry_Pilot,2022.1.3,Win32,59.99880002,62bbe60bf3d75ef465d3e404,,,,,,,,,,,,,,,,,,,,,,,,,,,,,,,,,,,,,,,,,,,,,,,,,,,,,,,,,,,,,,,,,,,,,,,,,,,,,,,,,,,,,,,,,,,,,,,,,,,,,,,,,,,,,,,,,,,,,,,,,,,,,,,,,,,,,,,,,,,,,,,,,,,,,,,,,,,,,,
0,17,17,73,1,,5c6219e169375500012329d9,62bbfb4ce80eff42814d9127,2022-06-29_09h12.23.999,Colour_Asymmetry_Pilot,2022.1.3,Win32,59.99880002,62bbe60bf3d75ef465d3e404,,,,,,,,,,,,,,,,,,,,,,,,,,,,,,,,,,,,,,,,,,,,,,,,,,,,,,,,,,,,,,,,,,,,,,,,,,,,,,,,,,,,,,,,,,,,,,,,,,,,,,,,,,,,,,,,,,,,,,,,,,,,,,,,,,,,,,,,,,,,,,,,,,,,,,,,,,,,,,
0,18,18,32,1,,5c6219e169375500012329d9,62bbfb4ce80eff42814d9127,2022-06-29_09h12.23.999,Colour_Asymmetry_Pilot,2022.1.3,Win32,59.99880002,62bbe60bf3d75ef465d3e404,,,,,,,,,,,,,,,,,,,,,,,,,,,,,,,,,,,,,,,,,,,,,,,,,,,,,,,,,,,,,,,,,,,,,,,,,,,,,,,,,,,,,,,,,,,,,,,,,,,,,,,,,,,,,,,,,,,,,,,,,,,,,,,,,,,,,,,,,,,,,,,,,,,,,,,,,,,,,,
0,19,19,54,1,,5c6219e169375500012329d9,62bbfb4ce80eff42814d9127,2022-06-29_09h12.23.999,Colour_Asymmetry_Pilot,2022.1.3,Win32,59.99880002,62bbe60bf3d75ef465d3e404,,,,,,,,,,,,,,,,,,,,,,,,,,,,,,,,,,,,,,,,,,,,,,,,,,,,,,,,,,,,,,,,,,,,,,,,,,,,,,,,,,,,,,,,,,,,,,,,,,,,,,,,,,,,,,,,,,,,,,,,,,,,,,,,,,,,,,,,,,,,,,,,,,,,,,,,,,,,,,
0,20,20,74,1,,5c6219e169375500012329d9,62bbfb4ce80eff42814d9127,2022-06-29_09h12.23.999,Colour_Asymmetry_Pilot,2022.1.3,Win32,59.99880002,62bbe60bf3d75ef465d3e404,,,,,,,,,,,,,,,,,,,,,,,,,,,,,,,,,,,,,,,,,,,,,,,,,,,,,,,,,,,,,,,,,,,,,,,,,,,,,,,,,,,,,,,,,,,,,,,,,,,,,,,,,,,,,,,,,,,,,,,,,,,,,,,,,,,,,,,,,,,,,,,,,,,,,,,,,,,,,,
0,21,21,59,1,,5c6219e169375500012329d9,62bbfb4ce80eff42814d9127,2022-06-29_09h12.23.999,Colour_Asymmetry_Pilot,2022.1.3,Win32,59.99880002,62bbe60bf3d75ef465d3e404,,,,,,,,,,,,,,,,,,,,,,,,,,,,,,,,,,,,,,,,,,,,,,,,,,,,,,,,,,,,,,,,,,,,,,,,,,,,,,,,,,,,,,,,,,,,,,,,,,,,,,,,,,,,,,,,,,,,,,,,,,,,,,,,,,,,,,,,,,,,,,,,,,,,,,,,,,,,,,
0,22,22,40,1,,5c6219e169375500012329d9,62bbfb4ce80eff42814d9127,2022-06-29_09h12.23.999,Colour_Asymmetry_Pilot,2022.1.3,Win32,59.99880002,62bbe60bf3d75ef465d3e404,,,,,,,,,,,,,,,,,,,,,,,,,,,,,,,,,,,,,,,,,,,,,,,,,,,,,,,,,,,,,,,,,,,,,,,,,,,,,,,,,,,,,,,,,,,,,,,,,,,,,,,,,,,,,,,,,,,,,,,,,,,,,,,,,,,,,,,,,,,,,,,,,,,,,,,,,,,,,,
0,23,23,90,1,,5c6219e169375500012329d9,62bbfb4ce80eff42814d9127,2022-06-29_09h12.23.999,Colour_Asymmetry_Pilot,2022.1.3,Win32,59.99880002,62bbe60bf3d75ef465d3e404,,,,,,,,,,,,,,,,,,,,,,,,,,,,,,,,,,,,,,,,,,,,,,,,,,,,,,,,,,,,,,,,,,,,,,,,,,,,,,,,,,,,,,,,,,,,,,,,,,,,,,,,,,,,,,,,,,,,,,,,,,,,,,,,,,,,,,,,,,,,,,,,,,,,,,,,,,,,,,
0,24,24,11,1,,5c6219e169375500012329d9,62bbfb4ce80eff42814d9127,2022-06-29_09h12.23.999,Colour_Asymmetry_Pilot,2022.1.3,Win32,59.99880002,62bbe60bf3d75ef465d3e404,,,,,,,,,,,,,,,,,,,,,,,,,,,,,,,,,,,,,,,,,,,,,,,,,,,,,,,,,,,,,,,,,,,,,,,,,,,,,,,,,,,,,,,,,,,,,,,,,,,,,,,,,,,,,,,,,,,,,,,,,,,,,,,,,,,,,,,,,,,,,,,,,,,,,,,,,,,,,,
0,25,25,62,1,,5c6219e169375500012329d9,62bbfb4ce80eff42814d9127,2022-06-29_09h12.23.999,Colour_Asymmetry_Pilot,2022.1.3,Win32,59.99880002,62bbe60bf3d75ef465d3e404,,,,,,,,,,,,,,,,,,,,,,,,,,,,,,,,,,,,,,,,,,,,,,,,,,,,,,,,,,,,,,,,,,,,,,,,,,,,,,,,,,,,,,,,,,,,,,,,,,,,,,,,,,,,,,,,,,,,,,,,,,,,,,,,,,,,,,,,,,,,,,,,,,,,,,,,,,,,,,
0,26,26,9,1,,5c6219e169375500012329d9,62bbfb4ce80eff42814d9127,2022-06-29_09h12.23.999,Colour_Asymmetry_Pilot,2022.1.3,Win32,59.99880002,62bbe60bf3d75ef465d3e404,,,,,,,,,,,,,,,,,,,,,,,,,,,,,,,,,,,,,,,,,,,,,,,,,,,,,,,,,,,,,,,,,,,,,,,,,,,,,,,,,,,,,,,,,,,,,,,,,,,,,,,,,,,,,,,,,,,,,,,,,,,,,,,,,,,,,,,,,,,,,,,,,,,,,,,,,,,,,,
0,27,27,17,1,,5c6219e169375500012329d9,62bbfb4ce80eff42814d9127,2022-06-29_09h12.23.999,Colour_Asymmetry_Pilot,2022.1.3,Win32,59.99880002,62bbe60bf3d75ef465d3e404,,,,,,,,,,,,,,,,,,,,,,,,,,,,,,,,,,,,,,,,,,,,,,,,,,,,,,,,,,,,,,,,,,,,,,,,,,,,,,,,,,,,,,,,,,,,,,,,,,,,,,,,,,,,,,,,,,,,,,,,,,,,,,,,,,,,,,,,,,,,,,,,,,,,,,,,,,,,,,
0,28,28,71,1,,5c6219e169375500012329d9,62bbfb4ce80eff42814d9127,2022-06-29_09h12.23.999,Colour_Asymmetry_Pilot,2022.1.3,Win32,59.99880002,62bbe60bf3d75ef465d3e404,,,,,,,,,,,,,,,,,,,,,,,,,,,,,,,,,,,,,,,,,,,,,,,,,,,,,,,,,,,,,,,,,,,,,,,,,,,,,,,,,,,,,,,,,,,,,,,,,,,,,,,,,,,,,,,,,,,,,,,,,,,,,,,,,,,,,,,,,,,,,,,,,,,,,,,,,,,,,,
0,29,29,89,1,,5c6219e169375500012329d9,62bbfb4ce80eff42814d9127,2022-06-29_09h12.23.999,Colour_Asymmetry_Pilot,2022.1.3,Win32,59.99880002,62bbe60bf3d75ef465d3e404,,,,,,,,,,,,,,,,,,,,,,,,,,,,,,,,,,,,,,,,,,,,,,,,,,,,,,,,,,,,,,,,,,,,,,,,,,,,,,,,,,,,,,,,,,,,,,,,,,,,,,,,,,,,,,,,,,,,,,,,,,,,,,,,,,,,,,,,,,,,,,,,,,,,,,,,,,,,,,
0,30,30,45,1,,5c6219e169375500012329d9,62bbfb4ce80eff42814d9127,2022-06-29_09h12.23.999,Colour_Asymmetry_Pilot,2022.1.3,Win32,59.99880002,62bbe60bf3d75ef465d3e404,,,,,,,,,,,,,,,,,,,,,,,,,,,,,,,,,,,,,,,,,,,,,,,,,,,,,,,,,,,,,,,,,,,,,,,,,,,,,,,,,,,,,,,,,,,,,,,,,,,,,,,,,,,,,,,,,,,,,,,,,,,,,,,,,,,,,,,,,,,,,,,,,,,,,,,,,,,,,,
0,31,31,69,1,,5c6219e169375500012329d9,62bbfb4ce80eff42814d9127,2022-06-29_09h12.23.999,Colour_Asymmetry_Pilot,2022.1.3,Win32,59.99880002,62bbe60bf3d75ef465d3e404,,,,,,,,,,,,,,,,,,,,,,,,,,,,,,,,,,,,,,,,,,,,,,,,,,,,,,,,,,,,,,,,,,,,,,,,,,,,,,,,,,,,,,,,,,,,,,,,,,,,,,,,,,,,,,,,,,,,,,,,,,,,,,,,,,,,,,,,,,,,,,,,,,,,,,,,,,,,,,
0,32,32,31,1,,5c6219e169375500012329d9,62bbfb4ce80eff42814d9127,2022-06-29_09h12.23.999,Colour_Asymmetry_Pilot,2022.1.3,Win32,59.99880002,62bbe60bf3d75ef465d3e404,,,,,,,,,,,,,,,,,,,,,,,,,,,,,,,,,,,,,,,,,,,,,,,,,,,,,,,,,,,,,,,,,,,,,,,,,,,,,,,,,,,,,,,,,,,,,,,,,,,,,,,,,,,,,,,,,,,,,,,,,,,,,,,,,,,,,,,,,,,,,,,,,,,,,,,,,,,,,,
0,33,33,5,1,,5c6219e169375500012329d9,62bbfb4ce80eff42814d9127,2022-06-29_09h12.23.999,Colour_Asymmetry_Pilot,2022.1.3,Win32,59.99880002,62bbe60bf3d75ef465d3e404,,,,,,,,,,,,,,,,,,,,,,,,,,,,,,,,,,,,,,,,,,,,,,,,,,,,,,,,,,,,,,,,,,,,,,,,,,,,,,,,,,,,,,,,,,,,,,,,,,,,,,,,,,,,,,,,,,,,,,,,,,,,,,,,,,,,,,,,,,,,,,,,,,,,,,,,,,,,,,
0,34,34,47,1,,5c6219e169375500012329d9,62bbfb4ce80eff42814d9127,2022-06-29_09h12.23.999,Colour_Asymmetry_Pilot,2022.1.3,Win32,59.99880002,62bbe60bf3d75ef465d3e404,,,,,,,,,,,,,,,,,,,,,,,,,,,,,,,,,,,,,,,,,,,,,,,,,,,,,,,,,,,,,,,,,,,,,,,,,,,,,,,,,,,,,,,,,,,,,,,,,,,,,,,,,,,,,,,,,,,,,,,,,,,,,,,,,,,,,,,,,,,,,,,,,,,,,,,,,,,,,,
0,35,35,13,1,,5c6219e169375500012329d9,62bbfb4ce80eff42814d9127,2022-06-29_09h12.23.999,Colour_Asymmetry_Pilot,2022.1.3,Win32,59.99880002,62bbe60bf3d75ef465d3e404,,,,,,,,,,,,,,,,,,,,,,,,,,,,,,,,,,,,,,,,,,,,,,,,,,,,,,,,,,,,,,,,,,,,,,,,,,,,,,,,,,,,,,,,,,,,,,,,,,,,,,,,,,,,,,,,,,,,,,,,,,,,,,,,,,,,,,,,,,,,,,,,,,,,,,,,,,,,,,
0,36,36,85,1,,5c6219e169375500012329d9,62bbfb4ce80eff42814d9127,2022-06-29_09h12.23.999,Colour_Asymmetry_Pilot,2022.1.3,Win32,59.99880002,62bbe60bf3d75ef465d3e404,,,,,,,,,,,,,,,,,,,,,,,,,,,,,,,,,,,,,,,,,,,,,,,,,,,,,,,,,,,,,,,,,,,,,,,,,,,,,,,,,,,,,,,,,,,,,,,,,,,,,,,,,,,,,,,,,,,,,,,,,,,,,,,,,,,,,,,,,,,,,,,,,,,,,,,,,,,,,,
0,37,37,27,1,,5c6219e169375500012329d9,62bbfb4ce80eff42814d9127,2022-06-29_09h12.23.999,Colour_Asymmetry_Pilot,2022.1.3,Win32,59.99880002,62bbe60bf3d75ef465d3e404,,,,,,,,,,,,,,,,,,,,,,,,,,,,,,,,,,,,,,,,,,,,,,,,,,,,,,,,,,,,,,,,,,,,,,,,,,,,,,,,,,,,,,,,,,,,,,,,,,,,,,,,,,,,,,,,,,,,,,,,,,,,,,,,,,,,,,,,,,,,,,,,,,,,,,,,,,,,,,
0,38,38,4,1,,5c6219e169375500012329d9,62bbfb4ce80eff42814d9127,2022-06-29_09h12.23.999,Colour_Asymmetry_Pilot,2022.1.3,Win32,59.99880002,62bbe60bf3d75ef465d3e404,,,,,,,,,,,,,,,,,,,,,,,,,,,,,,,,,,,,,,,,,,,,,,,,,,,,,,,,,,,,,,,,,,,,,,,,,,,,,,,,,,,,,,,,,,,,,,,,,,,,,,,,,,,,,,,,,,,,,,,,,,,,,,,,,,,,,,,,,,,,,,,,,,,,,,,,,,,,,,
0,39,39,61,1,,5c6219e169375500012329d9,62bbfb4ce80eff42814d9127,2022-06-29_09h12.23.999,Colour_Asymmetry_Pilot,2022.1.3,Win32,59.99880002,62bbe60bf3d75ef465d3e404,,,,,,,,,,,,,,,,,,,,,,,,,,,,,,,,,,,,,,,,,,,,,,,,,,,,,,,,,,,,,,,,,,,,,,,,,,,,,,,,,,,,,,,,,,,,,,,,,,,,,,,,,,,,,,,,,,,,,,,,,,,,,,,,,,,,,,,,,,,,,,,,,,,,,,,,,,,,,,
0,40,40,91,1,,5c6219e169375500012329d9,62bbfb4ce80eff42814d9127,2022-06-29_09h12.23.999,Colour_Asymmetry_Pilot,2022.1.3,Win32,59.99880002,62bbe60bf3d75ef465d3e404,,,,,,,,,,,,,,,,,,,,,,,,,,,,,,,,,,,,,,,,,,,,,,,,,,,,,,,,,,,,,,,,,,,,,,,,,,,,,,,,,,,,,,,,,,,,,,,,,,,,,,,,,,,,,,,,,,,,,,,,,,,,,,,,,,,,,,,,,,,,,,,,,,,,,,,,,,,,,,
0,41,41,43,1,,5c6219e169375500012329d9,62bbfb4ce80eff42814d9127,2022-06-29_09h12.23.999,Colour_Asymmetry_Pilot,2022.1.3,Win32,59.99880002,62bbe60bf3d75ef465d3e404,,,,,,,,,,,,,,,,,,,,,,,,,,,,,,,,,,,,,,,,,,,,,,,,,,,,,,,,,,,,,,,,,,,,,,,,,,,,,,,,,,,,,,,,,,,,,,,,,,,,,,,,,,,,,,,,,,,,,,,,,,,,,,,,,,,,,,,,,,,,,,,,,,,,,,,,,,,,,,
0,42,42,66,1,,5c6219e169375500012329d9,62bbfb4ce80eff42814d9127,2022-06-29_09h12.23.999,Colour_Asymmetry_Pilot,2022.1.3,Win32,59.99880002,62bbe60bf3d75ef465d3e404,,,,,,,,,,,,,,,,,,,,,,,,,,,,,,,,,,,,,,,,,,,,,,,,,,,,,,,,,,,,,,,,,,,,,,,,,,,,,,,,,,,,,,,,,,,,,,,,,,,,,,,,,,,,,,,,,,,,,,,,,,,,,,,,,,,,,,,,,,,,,,,,,,,,,,,,,,,,,,
0,43,43,28,1,,5c6219e169375500012329d9,62bbfb4ce80eff42814d9127,2022-06-29_09h12.23.999,Colour_Asymmetry_Pilot,2022.1.3,Win32,59.99880002,62bbe60bf3d75ef465d3e404,,,,,,,,,,,,,,,,,,,,,,,,,,,,,,,,,,,,,,,,,,,,,,,,,,,,,,,,,,,,,,,,,,,,,,,,,,,,,,,,,,,,,,,,,,,,,,,,,,,,,,,,,,,,,,,,,,,,,,,,,,,,,,,,,,,,,,,,,,,,,,,,,,,,,,,,,,,,,,
0,44,44,87,1,,5c6219e169375500012329d9,62bbfb4ce80eff42814d9127,2022-06-29_09h12.23.999,Colour_Asymmetry_Pilot,2022.1.3,Win32,59.99880002,62bbe60bf3d75ef465d3e404,,,,,,,,,,,,,,,,,,,,,,,,,,,,,,,,,,,,,,,,,,,,,,,,,,,,,,,,,,,,,,,,,,,,,,,,,,,,,,,,,,,,,,,,,,,,,,,,,,,,,,,,,,,,,,,,,,,,,,,,,,,,,,,,,,,,,,,,,,,,,,,,,,,,,,,,,,,,,,
0,45,45,26,1,,5c6219e169375500012329d9,62bbfb4ce80eff42814d9127,2022-06-29_09h12.23.999,Colour_Asymmetry_Pilot,2022.1.3,Win32,59.99880002,62bbe60bf3d75ef465d3e404,,,,,,,,,,,,,,,,,,,,,,,,,,,,,,,,,,,,,,,,,,,,,,,,,,,,,,,,,,,,,,,,,,,,,,,,,,,,,,,,,,,,,,,,,,,,,,,,,,,,,,,,,,,,,,,,,,,,,,,,,,,,,,,,,,,,,,,,,,,,,,,,,,,,,,,,,,,,,,
0,46,46,82,1,,5c6219e169375500012329d9,62bbfb4ce80eff42814d9127,2022-06-29_09h12.23.999,Colour_Asymmetry_Pilot,2022.1.3,Win32,59.99880002,62bbe60bf3d75ef465d3e404,,,,,,,,,,,,,,,,,,,,,,,,,,,,,,,,,,,,,,,,,,,,,,,,,,,,,,,,,,,,,,,,,,,,,,,,,,,,,,,,,,,,,,,,,,,,,,,,,,,,,,,,,,,,,,,,,,,,,,,,,,,,,,,,,,,,,,,,,,,,,,,,,,,,,,,,,,,,,,
0,47,47,53,1,,5c6219e169375500012329d9,62bbfb4ce80eff42814d9127,2022-06-29_09h12.23.999,Colour_Asymmetry_Pilot,2022.1.3,Win32,59.99880002,62bbe60bf3d75ef465d3e404,,,,,,,,,,,,,,,,,,,,,,,,,,,,,,,,,,,,,,,,,,,,,,,,,,,,,,,,,,,,,,,,,,,,,,,,,,,,,,,,,,,,,,,,,,,,,,,,,,,,,,,,,,,,,,,,,,,,,,,,,,,,,,,,,,,,,,,,,,,,,,,,,,,,,,,,,,,,,,
0,48,48,84,1,,5c6219e169375500012329d9,62bbfb4ce80eff42814d9127,2022-06-29_09h12.23.999,Colour_Asymmetry_Pilot,2022.1.3,Win32,59.99880002,62bbe60bf3d75ef465d3e404,,,,,,,,,,,,,,,,,,,,,,,,,,,,,,,,,,,,,,,,,,,,,,,,,,,,,,,,,,,,,,,,,,,,,,,,,,,,,,,,,,,,,,,,,,,,,,,,,,,,,,,,,,,,,,,,,,,,,,,,,,,,,,,,,,,,,,,,,,,,,,,,,,,,,,,,,,,,,,
0,49,49,1,1,,5c6219e169375500012329d9,62bbfb4ce80eff42814d9127,2022-06-29_09h12.23.999,Colour_Asymmetry_Pilot,2022.1.3,Win32,59.99880002,62bbe60bf3d75ef465d3e404,,,,,,,,,,,,,,,,,,,,,,,,,,,,,,,,,,,,,,,,,,,,,,,,,,,,,,,,,,,,,,,,,,,,,,,,,,,,,,,,,,,,,,,,,,,,,,,,,,,,,,,,,,,,,,,,,,,,,,,,,,,,,,,,,,,,,,,,,,,,,,,,,,,,,,,,,,,,,,
0,50,50,8,1,,5c6219e169375500012329d9,62bbfb4ce80eff42814d9127,2022-06-29_09h12.23.999,Colour_Asymmetry_Pilot,2022.1.3,Win32,59.99880002,62bbe60bf3d75ef465d3e404,,,,,,,,,,,,,,,,,,,,,,,,,,,,,,,,,,,,,,,,,,,,,,,,,,,,,,,,,,,,,,,,,,,,,,,,,,,,,,,,,,,,,,,,,,,,,,,,,,,,,,,,,,,,,,,,,,,,,,,,,,,,,,,,,,,,,,,,,,,,,,,,,,,,,,,,,,,,,,
0,51,51,41,1,,5c6219e169375500012329d9,62bbfb4ce80eff42814d9127,2022-06-29_09h12.23.999,Colour_Asymmetry_Pilot,2022.1.3,Win32,59.99880002,62bbe60bf3d75ef465d3e404,,,,,,,,,,,,,,,,,,,,,,,,,,,,,,,,,,,,,,,,,,,,,,,,,,,,,,,,,,,,,,,,,,,,,,,,,,,,,,,,,,,,,,,,,,,,,,,,,,,,,,,,,,,,,,,,,,,,,,,,,,,,,,,,,,,,,,,,,,,,,,,,,,,,,,,,,,,,,,
0,52,52,46,1,,5c6219e169375500012329d9,62bbfb4ce80eff42814d9127,2022-06-29_09h12.23.999,Colour_Asymmetry_Pilot,2022.1.3,Win32,59.99880002,62bbe60bf3d75ef465d3e404,,,,,,,,,,,,,,,,,,,,,,,,,,,,,,,,,,,,,,,,,,,,,,,,,,,,,,,,,,,,,,,,,,,,,,,,,,,,,,,,,,,,,,,,,,,,,,,,,,,,,,,,,,,,,,,,,,,,,,,,,,,,,,,,,,,,,,,,,,,,,,,,,,,,,,,,,,,,,,
0,53,53,56,1,,5c6219e169375500012329d9,62bbfb4ce80eff42814d9127,2022-06-29_09h12.23.999,Colour_Asymmetry_Pilot,2022.1.3,Win32,59.99880002,62bbe60bf3d75ef465d3e404,,,,,,,,,,,,,,,,,,,,,,,,,,,,,,,,,,,,,,,,,,,,,,,,,,,,,,,,,,,,,,,,,,,,,,,,,,,,,,,,,,,,,,,,,,,,,,,,,,,,,,,,,,,,,,,,,,,,,,,,,,,,,,,,,,,,,,,,,,,,,,,,,,,,,,,,,,,,,,
0,54,54,58,1,,5c6219e169375500012329d9,62bbfb4ce80eff42814d9127,2022-06-29_09h12.23.999,Colour_Asymmetry_Pilot,2022.1.3,Win32,59.99880002,62bbe60bf3d75ef465d3e404,,,,,,,,,,,,,,,,,,,,,,,,,,,,,,,,,,,,,,,,,,,,,,,,,,,,,,,,,,,,,,,,,,,,,,,,,,,,,,,,,,,,,,,,,,,,,,,,,,,,,,,,,,,,,,,,,,,,,,,,,,,,,,,,,,,,,,,,,,,,,,,,,,,,,,,,,,,,,,
0,55,55,67,1,,5c6219e169375500012329d9,62bbfb4ce80eff42814d9127,2022-06-29_09h12.23.999,Colour_Asymmetry_Pilot,2022.1.3,Win32,59.99880002,62bbe60bf3d75ef465d3e404,,,,,,,,,,,,,,,,,,,,,,,,,,,,,,,,,,,,,,,,,,,,,,,,,,,,,,,,,,,,,,,,,,,,,,,,,,,,,,,,,,,,,,,,,,,,,,,,,,,,,,,,,,,,,,,,,,,,,,,,,,,,,,,,,,,,,,,,,,,,,,,,,,,,,,,,,,,,,,
0,56,56,7,1,,5c6219e169375500012329d9,62bbfb4ce80eff42814d9127,2022-06-29_09h12.23.999,Colour_Asymmetry_Pilot,2022.1.3,Win32,59.99880002,62bbe60bf3d75ef465d3e404,,,,,,,,,,,,,,,,,,,,,,,,,,,,,,,,,,,,,,,,,,,,,,,,,,,,,,,,,,,,,,,,,,,,,,,,,,,,,,,,,,,,,,,,,,,,,,,,,,,,,,,,,,,,,,,,,,,,,,,,,,,,,,,,,,,,,,,,,,,,,,,,,,,,,,,,,,,,,,
0,57,57,20,1,,5c6219e169375500012329d9,62bbfb4ce80eff42814d9127,2022-06-29_09h12.23.999,Colour_Asymmetry_Pilot,2022.1.3,Win32,59.99880002,62bbe60bf3d75ef465d3e404,,,,,,,,,,,,,,,,,,,,,,,,,,,,,,,,,,,,,,,,,,,,,,,,,,,,,,,,,,,,,,,,,,,,,,,,,,,,,,,,,,,,,,,,,,,,,,,,,,,,,,,,,,,,,,,,,,,,,,,,,,,,,,,,,,,,,,,,,,,,,,,,,,,,,,,,,,,,,,
0,58,58,16,1,,5c6219e169375500012329d9,62bbfb4ce80eff42814d9127,2022-06-29_09h12.23.999,Colour_Asymmetry_Pilot,2022.1.3,Win32,59.99880002,62bbe60bf3d75ef465d3e404,,,,,,,,,,,,,,,,,,,,,,,,,,,,,,,,,,,,,,,,,,,,,,,,,,,,,,,,,,,,,,,,,,,,,,,,,,,,,,,,,,,,,,,,,,,,,,,,,,,,,,,,,,,,,,,,,,,,,,,,,,,,,,,,,,,,,,,,,,,,,,,,,,,,,,,,,,,,,,
0,59,59,80,1,,5c6219e169375500012329d9,62bbfb4ce80eff42814d9127,2022-06-29_09h12.23.999,Colour_Asymmetry_Pilot,2022.1.3,Win32,59.99880002,62bbe60bf3d75ef465d3e404,,,,,,,,,,,,,,,,,,,,,,,,,,,,,,,,,,,,,,,,,,,,,,,,,,,,,,,,,,,,,,,,,,,,,,,,,,,,,,,,,,,,,,,,,,,,,,,,,,,,,,,,,,,,,,,,,,,,,,,,,,,,,,,,,,,,,,,,,,,,,,,,,,,,,,,,,,,,,,
0,60,60,44,1,,5c6219e169375500012329d9,62bbfb4ce80eff42814d9127,2022-06-29_09h12.23.999,Colour_Asymmetry_Pilot,2022.1.3,Win32,59.99880002,62bbe60bf3d75ef465d3e404,,,,,,,,,,,,,,,,,,,,,,,,,,,,,,,,,,,,,,,,,,,,,,,,,,,,,,,,,,,,,,,,,,,,,,,,,,,,,,,,,,,,,,,,,,,,,,,,,,,,,,,,,,,,,,,,,,,,,,,,,,,,,,,,,,,,,,,,,,,,,,,,,,,,,,,,,,,,,,
0,61,61,76,1,,5c6219e169375500012329d9,62bbfb4ce80eff42814d9127,2022-06-29_09h12.23.999,Colour_Asymmetry_Pilot,2022.1.3,Win32,59.99880002,62bbe60bf3d75ef465d3e404,,,,,,,,,,,,,,,,,,,,,,,,,,,,,,,,,,,,,,,,,,,,,,,,,,,,,,,,,,,,,,,,,,,,,,,,,,,,,,,,,,,,,,,,,,,,,,,,,,,,,,,,,,,,,,,,,,,,,,,,,,,,,,,,,,,,,,,,,,,,,,,,,,,,,,,,,,,,,,
0,62,62,75,1,,5c6219e169375500012329d9,62bbfb4ce80eff42814d9127,2022-06-29_09h12.23.999,Colour_Asymmetry_Pilot,2022.1.3,Win32,59.99880002,62bbe60bf3d75ef465d3e404,,,,,,,,,,,,,,,,,,,,,,,,,,,,,,,,,,,,,,,,,,,,,,,,,,,,,,,,,,,,,,,,,,,,,,,,,,,,,,,,,,,,,,,,,,,,,,,,,,,,,,,,,,,,,,,,,,,,,,,,,,,,,,,,,,,,,,,,,,,,,,,,,,,,,,,,,,,,,,
0,63,63,55,1,,5c6219e169375500012329d9,62bbfb4ce80eff42814d9127,2022-06-29_09h12.23.999,Colour_Asymmetry_Pilot,2022.1.3,Win32,59.99880002,62bbe60bf3d75ef465d3e404,,,,,,,,,,,,,,,,,,,,,,,,,,,,,,,,,,,,,,,,,,,,,,,,,,,,,,,,,,,,,,,,,,,,,,,,,,,,,,,,,,,,,,,,,,,,,,,,,,,,,,,,,,,,,,,,,,,,,,,,,,,,,,,,,,,,,,,,,,,,,,,,,,,,,,,,,,,,,,
0,64,64,64,1,,5c6219e169375500012329d9,62bbfb4ce80eff42814d9127,2022-06-29_09h12.23.999,Colour_Asymmetry_Pilot,2022.1.3,Win32,59.99880002,62bbe60bf3d75ef465d3e404,,,,,,,,,,,,,,,,,,,,,,,,,,,,,,,,,,,,,,,,,,,,,,,,,,,,,,,,,,,,,,,,,,,,,,,,,,,,,,,,,,,,,,,,,,,,,,,,,,,,,,,,,,,,,,,,,,,,,,,,,,,,,,,,,,,,,,,,,,,,,,,,,,,,,,,,,,,,,,
0,65,65,92,1,,5c6219e169375500012329d9,62bbfb4ce80eff42814d9127,2022-06-29_09h12.23.999,Colour_Asymmetry_Pilot,2022.1.3,Win32,59.99880002,62bbe60bf3d75ef465d3e404,,,,,,,,,,,,,,,,,,,,,,,,,,,,,,,,,,,,,,,,,,,,,,,,,,,,,,,,,,,,,,,,,,,,,,,,,,,,,,,,,,,,,,,,,,,,,,,,,,,,,,,,,,,,,,,,,,,,,,,,,,,,,,,,,,,,,,,,,,,,,,,,,,,,,,,,,,,,,,
0,66,66,72,1,,5c6219e169375500012329d9,62bbfb4ce80eff42814d9127,2022-06-29_09h12.23.999,Colour_Asymmetry_Pilot,2022.1.3,Win32,59.99880002,62bbe60bf3d75ef465d3e404,,,,,,,,,,,,,,,,,,,,,,,,,,,,,,,,,,,,,,,,,,,,,,,,,,,,,,,,,,,,,,,,,,,,,,,,,,,,,,,,,,,,,,,,,,,,,,,,,,,,,,,,,,,,,,,,,,,,,,,,,,,,,,,,,,,,,,,,,,,,,,,,,,,,,,,,,,,,,,
0,67,67,12,1,,5c6219e169375500012329d9,62bbfb4ce80eff42814d9127,2022-06-29_09h12.23.999,Colour_Asymmetry_Pilot,2022.1.3,Win32,59.99880002,62bbe60bf3d75ef465d3e404,,,,,,,,,,,,,,,,,,,,,,,,,,,,,,,,,,,,,,,,,,,,,,,,,,,,,,,,,,,,,,,,,,,,,,,,,,,,,,,,,,,,,,,,,,,,,,,,,,,,,,,,,,,,,,,,,,,,,,,,,,,,,,,,,,,,,,,,,,,,,,,,,,,,,,,,,,,,,,
0,68,68,63,1,,5c6219e169375500012329d9,62bbfb4ce80eff42814d9127,2022-06-29_09h12.23.999,Colour_Asymmetry_Pilot,2022.1.3,Win32,59.99880002,62bbe60bf3d75ef465d3e404,,,,,,,,,,,,,,,,,,,,,,,,,,,,,,,,,,,,,,,,,,,,,,,,,,,,,,,,,,,,,,,,,,,,,,,,,,,,,,,,,,,,,,,,,,,,,,,,,,,,,,,,,,,,,,,,,,,,,,,,,,,,,,,,,,,,,,,,,,,,,,,,,,,,,,,,,,,,,,
0,69,69,70,1,,5c6219e169375500012329d9,62bbfb4ce80eff42814d9127,2022-06-29_09h12.23.999,Colour_Asymmetry_Pilot,2022.1.3,Win32,59.99880002,62bbe60bf3d75ef465d3e404,,,,,,,,,,,,,,,,,,,,,,,,,,,,,,,,,,,,,,,,,,,,,,,,,,,,,,,,,,,,,,,,,,,,,,,,,,,,,,,,,,,,,,,,,,,,,,,,,,,,,,,,,,,,,,,,,,,,,,,,,,,,,,,,,,,,,,,,,,,,,,,,,,,,,,,,,,,,,,
0,70,70,78,1,,5c6219e169375500012329d9,62bbfb4ce80eff42814d9127,2022-06-29_09h12.23.999,Colour_Asymmetry_Pilot,2022.1.3,Win32,59.99880002,62bbe60bf3d75ef465d3e404,,,,,,,,,,,,,,,,,,,,,,,,,,,,,,,,,,,,,,,,,,,,,,,,,,,,,,,,,,,,,,,,,,,,,,,,,,,,,,,,,,,,,,,,,,,,,,,,,,,,,,,,,,,,,,,,,,,,,,,,,,,,,,,,,,,,,,,,,,,,,,,,,,,,,,,,,,,,,,
0,71,71,33,1,,5c6219e169375500012329d9,62bbfb4ce80eff42814d9127,2022-06-29_09h12.23.999,Colour_Asymmetry_Pilot,2022.1.3,Win32,59.99880002,62bbe60bf3d75ef465d3e404,,,,,,,,,,,,,,,,,,,,,,,,,,,,,,,,,,,,,,,,,,,,,,,,,,,,,,,,,,,,,,,,,,,,,,,,,,,,,,,,,,,,,,,,,,,,,,,,,,,,,,,,,,,,,,,,,,,,,,,,,,,,,,,,,,,,,,,,,,,,,,,,,,,,,,,,,,,,,,
0,72,72,14,1,,5c6219e169375500012329d9,62bbfb4ce80eff42814d9127,2022-06-29_09h12.23.999,Colour_Asymmetry_Pilot,2022.1.3,Win32,59.99880002,62bbe60bf3d75ef465d3e404,,,,,,,,,,,,,,,,,,,,,,,,,,,,,,,,,,,,,,,,,,,,,,,,,,,,,,,,,,,,,,,,,,,,,,,,,,,,,,,,,,,,,,,,,,,,,,,,,,,,,,,,,,,,,,,,,,,,,,,,,,,,,,,,,,,,,,,,,,,,,,,,,,,,,,,,,,,,,,
0,73,73,38,1,,5c6219e169375500012329d9,62bbfb4ce80eff42814d9127,2022-06-29_09h12.23.999,Colour_Asymmetry_Pilot,2022.1.3,Win32,59.99880002,62bbe60bf3d75ef465d3e404,,,,,,,,,,,,,,,,,,,,,,,,,,,,,,,,,,,,,,,,,,,,,,,,,,,,,,,,,,,,,,,,,,,,,,,,,,,,,,,,,,,,,,,,,,,,,,,,,,,,,,,,,,,,,,,,,,,,,,,,,,,,,,,,,,,,,,,,,,,,,,,,,,,,,,,,,,,,,,
0,74,74,83,1,,5c6219e169375500012329d9,62bbfb4ce80eff42814d9127,2022-06-29_09h12.23.999,Colour_Asymmetry_Pilot,2022.1.3,Win32,59.99880002,62bbe60bf3d75ef465d3e404,,,,,,,,,,,,,,,,,,,,,,,,,,,,,,,,,,,,,,,,,,,,,,,,,,,,,,,,,,,,,,,,,,,,,,,,,,,,,,,,,,,,,,,,,,,,,,,,,,,,,,,,,,,,,,,,,,,,,,,,,,,,,,,,,,,,,,,,,,,,,,,,,,,,,,,,,,,,,,
0,75,75,68,1,,5c6219e169375500012329d9,62bbfb4ce80eff42814d9127,2022-06-29_09h12.23.999,Colour_Asymmetry_Pilot,2022.1.3,Win32,59.99880002,62bbe60bf3d75ef465d3e404,,,,,,,,,,,,,,,,,,,,,,,,,,,,,,,,,,,,,,,,,,,,,,,,,,,,,,,,,,,,,,,,,,,,,,,,,,,,,,,,,,,,,,,,,,,,,,,,,,,,,,,,,,,,,,,,,,,,,,,,,,,,,,,,,,,,,,,,,,,,,,,,,,,,,,,,,,,,,,
0,76,76,35,1,,5c6219e169375500012329d9,62bbfb4ce80eff42814d9127,2022-06-29_09h12.23.999,Colour_Asymmetry_Pilot,2022.1.3,Win32,59.99880002,62bbe60bf3d75ef465d3e404,,,,,,,,,,,,,,,,,,,,,,,,,,,,,,,,,,,,,,,,,,,,,,,,,,,,,,,,,,,,,,,,,,,,,,,,,,,,,,,,,,,,,,,,,,,,,,,,,,,,,,,,,,,,,,,,,,,,,,,,,,,,,,,,,,,,,,,,,,,,,,,,,,,,,,,,,,,,,,
0,77,77,34,1,,5c6219e169375500012329d9,62bbfb4ce80eff42814d9127,2022-06-29_09h12.23.999,Colour_Asymmetry_Pilot,2022.1.3,Win32,59.99880002,62bbe60bf3d75ef465d3e404,,,,,,,,,,,,,,,,,,,,,,,,,,,,,,,,,,,,,,,,,,,,,,,,,,,,,,,,,,,,,,,,,,,,,,,,,,,,,,,,,,,,,,,,,,,,,,,,,,,,,,,,,,,,,,,,,,,,,,,,,,,,,,,,,,,,,,,,,,,,,,,,,,,,,,,,,,,,,,
0,78,78,2,1,,5c6219e169375500012329d9,62bbfb4ce80eff42814d9127,2022-06-29_09h12.23.999,Colour_Asymmetry_Pilot,2022.1.3,Win32,59.99880002,62bbe60bf3d75ef465d3e404,,,,,,,,,,,,,,,,,,,,,,,,,,,,,,,,,,,,,,,,,,,,,,,,,,,,,,,,,,,,,,,,,,,,,,,,,,,,,,,,,,,,,,,,,,,,,,,,,,,,,,,,,,,,,,,,,,,,,,,,,,,,,,,,,,,,,,,,,,,,,,,,,,,,,,,,,,,,,,
0,79,79,77,1,,5c6219e169375500012329d9,62bbfb4ce80eff42814d9127,2022-06-29_09h12.23.999,Colour_Asymmetry_Pilot,2022.1.3,Win32,59.99880002,62bbe60bf3d75ef465d3e404,,,,,,,,,,,,,,,,,,,,,,,,,,,,,,,,,,,,,,,,,,,,,,,,,,,,,,,,,,,,,,,,,,,,,,,,,,,,,,,,,,,,,,,,,,,,,,,,,,,,,,,,,,,,,,,,,,,,,,,,,,,,,,,,,,,,,,,,,,,,,,,,,,,,,,,,,,,,,,
0,80,80,81,1,,5c6219e169375500012329d9,62bbfb4ce80eff42814d9127,2022-06-29_09h12.23.999,Colour_Asymmetry_Pilot,2022.1.3,Win32,59.99880002,62bbe60bf3d75ef465d3e404,,,,,,,,,,,,,,,,,,,,,,,,,,,,,,,,,,,,,,,,,,,,,,,,,,,,,,,,,,,,,,,,,,,,,,,,,,,,,,,,,,,,,,,,,,,,,,,,,,,,,,,,,,,,,,,,,,,,,,,,,,,,,,,,,,,,,,,,,,,,,,,,,,,,,,,,,,,,,,
0,81,81,30,1,,5c6219e169375500012329d9,62bbfb4ce80eff42814d9127,2022-06-29_09h12.23.999,Colour_Asymmetry_Pilot,2022.1.3,Win32,59.99880002,62bbe60bf3d75ef465d3e404,,,,,,,,,,,,,,,,,,,,,,,,,,,,,,,,,,,,,,,,,,,,,,,,,,,,,,,,,,,,,,,,,,,,,,,,,,,,,,,,,,,,,,,,,,,,,,,,,,,,,,,,,,,,,,,,,,,,,,,,,,,,,,,,,,,,,,,,,,,,,,,,,,,,,,,,,,,,,,
0,82,82,50,1,,5c6219e169375500012329d9,62bbfb4ce80eff42814d9127,2022-06-29_09h12.23.999,Colour_Asymmetry_Pilot,2022.1.3,Win32,59.99880002,62bbe60bf3d75ef465d3e404,,,,,,,,,,,,,,,,,,,,,,,,,,,,,,,,,,,,,,,,,,,,,,,,,,,,,,,,,,,,,,,,,,,,,,,,,,,,,,,,,,,,,,,,,,,,,,,,,,,,,,,,,,,,,,,,,,,,,,,,,,,,,,,,,,,,,,,,,,,,,,,,,,,,,,,,,,,,,,
0,83,83,79,1,,5c6219e169375500012329d9,62bbfb4ce80eff42814d9127,2022-06-29_09h12.23.999,Colour_Asymmetry_Pilot,2022.1.3,Win32,59.99880002,62bbe60bf3d75ef465d3e404,,,,,,,,,,,,,,,,,,,,,,,,,,,,,,,,,,,,,,,,,,,,,,,,,,,,,,,,,,,,,,,,,,,,,,,,,,,,,,,,,,,,,,,,,,,,,,,,,,,,,,,,,,,,,,,,,,,,,,,,,,,,,,,,,,,,,,,,,,,,,,,,,,,,,,,,,,,,,,
0,84,84,6,1,,5c6219e169375500012329d9,62bbfb4ce80eff42814d9127,2022-06-29_09h12.23.999,Colour_Asymmetry_Pilot,2022.1.3,Win32,59.99880002,62bbe60bf3d75ef465d3e404,,,,,,,,,,,,,,,,,,,,,,,,,,,,,,,,,,,,,,,,,,,,,,,,,,,,,,,,,,,,,,,,,,,,,,,,,,,,,,,,,,,,,,,,,,,,,,,,,,,,,,,,,,,,,,,,,,,,,,,,,,,,,,,,,,,,,,,,,,,,,,,,,,,,,,,,,,,,,,
0,85,85,19,1,,5c6219e169375500012329d9,62bbfb4ce80eff42814d9127,2022-06-29_09h12.23.999,Colour_Asymmetry_Pilot,2022.1.3,Win32,59.99880002,62bbe60bf3d75ef465d3e404,,,,,,,,,,,,,,,,,,,,,,,,,,,,,,,,,,,,,,,,,,,,,,,,,,,,,,,,,,,,,,,,,,,,,,,,,,,,,,,,,,,,,,,,,,,,,,,,,,,,,,,,,,,,,,,,,,,,,,,,,,,,,,,,,,,,,,,,,,,,,,,,,,,,,,,,,,,,,,
0,86,86,29,1,,5c6219e169375500012329d9,62bbfb4ce80eff42814d9127,2022-06-29_09h12.23.999,Colour_Asymmetry_Pilot,2022.1.3,Win32,59.99880002,62bbe60bf3d75ef465d3e404,,,,,,,,,,,,,,,,,,,,,,,,,,,,,,,,,,,,,,,,,,,,,,,,,,,,,,,,,,,,,,,,,,,,,,,,,,,,,,,,,,,,,,,,,,,,,,,,,,,,,,,,,,,,,,,,,,,,,,,,,,,,,,,,,,,,,,,,,,,,,,,,,,,,,,,,,,,,,,
0,87,87,42,1,,5c6219e169375500012329d9,62bbfb4ce80eff42814d9127,2022-06-29_09h12.23.999,Colour_Asymmetry_Pilot,2022.1.3,Win32,59.99880002,62bbe60bf3d75ef465d3e404,,,,,,,,,,,,,,,,,,,,,,,,,,,,,,,,,,,,,,,,,,,,,,,,,,,,,,,,,,,,,,,,,,,,,,,,,,,,,,,,,,,,,,,,,,,,,,,,,,,,,,,,,,,,,,,,,,,,,,,,,,,,,,,,,,,,,,,,,,,,,,,,,,,,,,,,,,,,,,
0,88,88,21,1,,5c6219e169375500012329d9,62bbfb4ce80eff42814d9127,2022-06-29_09h12.23.999,Colour_Asymmetry_Pilot,2022.1.3,Win32,59.99880002,62bbe60bf3d75ef465d3e404,,,,,,,,,,,,,,,,,,,,,,,,,,,,,,,,,,,,,,,,,,,,,,,,,,,,,,,,,,,,,,,,,,,,,,,,,,,,,,,,,,,,,,,,,,,,,,,,,,,,,,,,,,,,,,,,,,,,,,,,,,,,,,,,,,,,,,,,,,,,,,,,,,,,,,,,,,,,,,
0,89,89,22,1,,5c6219e169375500012329d9,62bbfb4ce80eff42814d9127,2022-06-29_09h12.23.999,Colour_Asymmetry_Pilot,2022.1.3,Win32,59.99880002,62bbe60bf3d75ef465d3e404,,,,,,,,,,,,,,,,,,,,,,,,,,,,,,,,,,,,,,,,,,,,,,,,,,,,,,,,,,,,,,,,,,,,,,,,,,,,,,,,,,,,,,,,,,,,,,,,,,,,,,,,,,,,,,,,,,,,,,,,,,,,,,,,,,,,,,,,,,,,,,,,,,,,,,,,,,,,,,
0,90,90,88,1,,5c6219e169375500012329d9,62bbfb4ce80eff42814d9127,2022-06-29_09h12.23.999,Colour_Asymmetry_Pilot,2022.1.3,Win32,59.99880002,62bbe60bf3d75ef465d3e404,,,,,,,,,,,,,,,,,,,,,,,,,,,,,,,,,,,,,,,,,,,,,,,,,,,,,,,,,,,,,,,,,,,,,,,,,,,,,,,,,,,,,,,,,,,,,,,,,,,,,,,,,,,,,,,,,,,,,,,,,,,,,,,,,,,,,,,,,,,,,,,,,,,,,,,,,,,,,,
0,91,91,37,1,,5c6219e169375500012329d9,62bbfb4ce80eff42814d9127,2022-06-29_09h12.23.999,Colour_Asymmetry_Pilot,2022.1.3,Win32,59.99880002,62bbe60bf3d75ef465d3e404,,,,,,,,,,,,,,,,,,,,,,,,,,,,,,,,,,,,,,,,,,,,,,,,,,,,,,,,,,,,,,,,,,,,,,,,,,,,,,,,,,,,,,,,,,,,,,,,,,,,,,,,,,,,,,,,,,,,,,,,,,,,,,,,,,,,,,,,,,,,,,,,,,,,,,,,,,,,,,
0,92,92,65,1,,5c6219e169375500012329d9,62bbfb4ce80eff42814d9127,2022-06-29_09h12.23.999,Colour_Asymmetry_Pilot,2022.1.3,Win32,59.99880002,62bbe60bf3d75ef465d3e404,,,,,,,,,,,,,,,,,,,,,,,,,,,,,,,,,,,,,,,,,,,,,,,,,,,,,,,,,,,,,,,,,,,,,,,,,,,,,,,,,,,,,,,,,,,,,,,,,,,,,,,,,,,,,,,,,,,,,,,,,,,,,,,,,,,,,,,,,,,,,,,,,,,,,,,,,,,,,,
,,,,,,5c6219e169375500012329d9,62bbfb4ce80eff42814d9127,2022-06-29_09h12.23.999,Colour_Asymmetry_Pilot,2022.1.3,Win32,59.99880002,62bbe60bf3d75ef465d3e404,0,0,0,62,1,fourtwo,,,,,,,,,,,,,,,,,,,,,,,,,,,,,,,,,,,,,,,,,,,,,,,,,,,,,,,,,,,,,,,,,,,,,,,,,,,,,,,,,,,,,,,,,,,,,,,,,,,,,,,,,,,,,,,,,,,,,,,,,,,,,,,,,,,,,,,,,,,,,,,,,,,,,,,,
,,,,,,5c6219e169375500012329d9,62bbfb4ce80eff42814d9127,2022-06-29_09h12.23.999,Colour_Asymmetry_Pilot,2022.1.3,Win32,59.99880002,62bbe60bf3d75ef465d3e404,0,1,1,26,1,twoone,,,,,,,,,,,,,,,,,,,,,,,,,,,,,,,,,,,,,,,,,,,,,,,,,,,,,,,,,,,,,,,,,,,,,,,,,,,,,,,,,,,,,,,,,,,,,,,,,,,,,,,,,,,,,,,,,,,,,,,,,,,,,,,,,,,,,,,,,,,,,,,,,,,,,,,,
,,,,,,5c6219e169375500012329d9,62bbfb4ce80eff42814d9127,2022-06-29_09h12.23.999,Colour_Asymmetry_Pilot,2022.1.3,Win32,59.99880002,62bbe60bf3d75ef465d3e404,0,2,2,58,1,twoone,,,,,,,,,,,,,,,,,,,,,,,,,,,,,,,,,,,,,,,,,,,,,,,,,,,,,,,,,,,,,,,,,,,,,,,,,,,,,,,,,,,,,,,,,,,,,,,,,,,,,,,,,,,,,,,,,,,,,,,,,,,,,,,,,,,,,,,,,,,,,,,,,,,,,,,,
,,,,,,5c6219e169375500012329d9,62bbfb4ce80eff42814d9127,2022-06-29_09h12.23.999,Colour_Asymmetry_Pilot,2022.1.3,Win32,59.99880002,62bbe60bf3d75ef465d3e404,0,3,3,39,1,fourthree,,,,,,,,,,,,,,,,,,,,,,,,,,,,,,,,,,,,,,,,,,,,,,,,,,,,,,,,,,,,,,,,,,,,,,,,,,,,,,,,,,,,,,,,,,,,,,,,,,,,,,,,,,,,,,,,,,,,,,,,,,,,,,,,,,,,,,,,,,,,,,,,,,,,,,,,
,,,,,,5c6219e169375500012329d9,62bbfb4ce80eff42814d9127,2022-06-29_09h12.23.999,Colour_Asymmetry_Pilot,2022.1.3,Win32,59.99880002,62bbe60bf3d75ef465d3e404,0,4,4,107,1,twofour,,,,,,,,,,,,,,,,,,,,,,,,,,,,,,,,,,,,,,,,,,,,,,,,,,,,,,,,,,,,,,,,,,,,,,,,,,,,,,,,,,,,,,,,,,,,,,,,,,,,,,,,,,,,,,,,,,,,,,,,,,,,,,,,,,,,,,,,,,,,,,,,,,,,,,,,
,,,,,,5c6219e169375500012329d9,62bbfb4ce80eff42814d9127,2022-06-29_09h12.23.999,Colour_Asymmetry_Pilot,2022.1.3,Win32,59.99880002,62bbe60bf3d75ef465d3e404,0,5,5,131,1,twofour,,,,,,,,,,,,,,,,,,,,,,,,,,,,,,,,,,,,,,,,,,,,,,,,,,,,,,,,,,,,,,,,,,,,,,,,,,,,,,,,,,,,,,,,,,,,,,,,,,,,,,,,,,,,,,,,,,,,,,,,,,,,,,,,,,,,,,,,,,,,,,,,,,,,,,,,
,,,,,,5c6219e169375500012329d9,62bbfb4ce80eff42814d9127,2022-06-29_09h12.23.999,Colour_Asymmetry_Pilot,2022.1.3,Win32,59.99880002,62bbe60bf3d75ef465d3e404,0,6,6,127,1,fourthree,,,,,,,,,,,,,,,,,,,,,,,,,,,,,,,,,,,,,,,,,,,,,,,,,,,,,,,,,,,,,,,,,,,,,,,,,,,,,,,,,,,,,,,,,,,,,,,,,,,,,,,,,,,,,,,,,,,,,,,,,,,,,,,,,,,,,,,,,,,,,,,,,,,,,,,,
,,,,,,5c6219e169375500012329d9,62bbfb4ce80eff42814d9127,2022-06-29_09h12.23.999,Colour_Asymmetry_Pilot,2022.1.3,Win32,59.99880002,62bbe60bf3d75ef465d3e404,0,7,7,27,1,twofour,,,,,,,,,,,,,,,,,,,,,,,,,,,,,,,,,,,,,,,,,,,,,,,,,,,,,,,,,,,,,,,,,,,,,,,,,,,,,,,,,,,,,,,,,,,,,,,,,,,,,,,,,,,,,,,,,,,,,,,,,,,,,,,,,,,,,,,,,,,,,,,,,,,,,,,,
,,,,,,5c6219e169375500012329d9,62bbfb4ce80eff42814d9127,2022-06-29_09h12.23.999,Colour_Asymmetry_Pilot,2022.1.3,Win32,59.99880002,62bbe60bf3d75ef465d3e404,0,8,8,14,1,fourtwo,,,,,,,,,,,,,,,,,,,,,,,,,,,,,,,,,,,,,,,,,,,,,,,,,,,,,,,,,,,,,,,,,,,,,,,,,,,,,,,,,,,,,,,,,,,,,,,,,,,,,,,,,,,,,,,,,,,,,,,,,,,,,,,,,,,,,,,,,,,,,,,,,,,,,,,,
,,,,,,5c6219e169375500012329d9,62bbfb4ce80eff42814d9127,2022-06-29_09h12.23.999,Colour_Asymmetry_Pilot,2022.1.3,Win32,59.99880002,62bbe60bf3d75ef465d3e404,0,9,9,111,1,fourthree,,,,,,,,,,,,,,,,,,,,,,,,,,,,,,,,,,,,,,,,,,,,,,,,,,,,,,,,,,,,,,,,,,,,,,,,,,,,,,,,,,,,,,,,,,,,,,,,,,,,,,,,,,,,,,,,,,,,,,,,,,,,,,,,,,,,,,,,,,,,,,,,,,,,,,,,
,,,,,,5c6219e169375500012329d9,62bbfb4ce80eff42814d9127,2022-06-29_09h12.23.999,Colour_Asymmetry_Pilot,2022.1.3,Win32,59.99880002,62bbe60bf3d75ef465d3e404,0,10,10,57,1,onethree,,,,,,,,,,,,,,,,,,,,,,,,,,,,,,,,,,,,,,,,,,,,,,,,,,,,,,,,,,,,,,,,,,,,,,,,,,,,,,,,,,,,,,,,,,,,,,,,,,,,,,,,,,,,,,,,,,,,,,,,,,,,,,,,,,,,,,,,,,,,,,,,,,,,,,,,
,,,,,,5c6219e169375500012329d9,62bbfb4ce80eff42814d9127,2022-06-29_09h12.23.999,Colour_Asymmetry_Pilot,2022.1.3,Win32,59.99880002,62bbe60bf3d75ef465d3e404,0,11,11,95,1,fourthree,,,,,,,,,,,,,,,,,,,,,,,,,,,,,,,,,,,,,,,,,,,,,,,,,,,,,,,,,,,,,,,,,,,,,,,,,,,,,,,,,,,,,,,,,,,,,,,,,,,,,,,,,,,,,,,,,,,,,,,,,,,,,,,,,,,,,,,,,,,,,,,,,,,,,,,,
,,,,,,5c6219e169375500012329d9,62bbfb4ce80eff42814d9127,2022-06-29_09h12.23.999,Colour_Asymmetry_Pilot,2022.1.3,Win32,59.99880002,62bbe60bf3d75ef465d3e404,0,12,12,92,1,threeone,,,,,,,,,,,,,,,,,,,,,,,,,,,,,,,,,,,,,,,,,,,,,,,,,,,,,,,,,,,,,,,,,,,,,,,,,,,,,,,,,,,,,,,,,,,,,,,,,,,,,,,,,,,,,,,,,,,,,,,,,,,,,,,,,,,,,,,,,,,,,,,,,,,,,,,,
,,,,,,5c6219e169375500012329d9,62bbfb4ce80eff42814d9127,2022-06-29_09h12.23.999,Colour_Asymmetry_Pilot,2022.1.3,Win32,59.99880002,62bbe60bf3d75ef465d3e404,0,13,13,7,1,fourthree,,,,,,,,,,,,,,,,,,,,,,,,,,,,,,,,,,,,,,,,,,,,,,,,,,,,,,,,,,,,,,,,,,,,,,,,,,,,,,,,,,,,,,,,,,,,,,,,,,,,,,,,,,,,,,,,,,,,,,,,,,,,,,,,,,,,,,,,,,,,,,,,,,,,,,,,
,,,,,,5c6219e169375500012329d9,62bbfb4ce80eff42814d9127,2022-06-29_09h12.23.999,Colour_Asymmetry_Pilot,2022.1.3,Win32,59.99880002,62bbe60bf3d75ef465d3e404,0,14,14,21,1,threefour,,,,,,,,,,,,,,,,,,,,,,,,,,,,,,,,,,,,,,,,,,,,,,,,,,,,,,,,,,,,,,,,,,,,,,,,,,,,,,,,,,,,,,,,,,,,,,,,,,,,,,,,,,,,,,,,,,,,,,,,,,,,,,,,,,,,,,,,,,,,,,,,,,,,,,,,
,,,,,,5c6219e169375500012329d9,62bbfb4ce80eff42814d9127,2022-06-29_09h12.23.999,Colour_Asymmetry_Pilot,2022.1.3,Win32,59.99880002,62bbe60bf3d75ef465d3e404,0,15,15,35,1,twofour,,,,,,,,,,,,,,,,,,,,,,,,,,,,,,,,,,,,,,,,,,,,,,,,,,,,,,,,,,,,,,,,,,,,,,,,,,,,,,,,,,,,,,,,,,,,,,,,,,,,,,,,,,,,,,,,,,,,,,,,,,,,,,,,,,,,,,,,,,,,,,,,,,,,,,,,
,,,,,,5c6219e169375500012329d9,62bbfb4ce80eff42814d9127,2022-06-29_09h12.23.999,Colour_Asymmetry_Pilot,2022.1.3,Win32,59.99880002,62bbe60bf3d75ef465d3e404,0,16,16,0,1,onetwo,,,,,,,,,,,,,,,,,,,,,,,,,,,,,,,,,,,,,,,,,,,,,,,,,,,,,,,,,,,,,,,,,,,,,,,,,,,,,,,,,,,,,,,,,,,,,,,,,,,,,,,,,,,,,,,,,,,,,,,,,,,,,,,,,,,,,,,,,,,,,,,,,,,,,,,,
,,,,,,5c6219e169375500012329d9,62bbfb4ce80eff42814d9127,2022-06-29_09h12.23.999,Colour_Asymmetry_Pilot,2022.1.3,Win32,59.99880002,62bbe60bf3d75ef465d3e404,0,17,17,141,1,threefour,,,,,,,,,,,,,,,,,,,,,,,,,,,,,,,,,,,,,,,,,,,,,,,,,,,,,,,,,,,,,,,,,,,,,,,,,,,,,,,,,,,,,,,,,,,,,,,,,,,,,,,,,,,,,,,,,,,,,,,,,,,,,,,,,,,,,,,,,,,,,,,,,,,,,,,,
,,,,,,5c6219e169375500012329d9,62bbfb4ce80eff42814d9127,2022-06-29_09h12.23.999,Colour_Asymmetry_Pilot,2022.1.3,Win32,59.99880002,62bbe60bf3d75ef465d3e404,0,18,18,93,1,threefour,,,,,,,,,,,,,,,,,,,,,,,,,,,,,,,,,,,,,,,,,,,,,,,,,,,,,,,,,,,,,,,,,,,,,,,,,,,,,,,,,,,,,,,,,,,,,,,,,,,,,,,,,,,,,,,,,,,,,,,,,,,,,,,,,,,,,,,,,,,,,,,,,,,,,,,,
,,,,,,5c6219e169375500012329d9,62bbfb4ce80eff42814d9127,2022-06-29_09h12.23.999,Colour_Asymmetry_Pilot,2022.1.3,Win32,59.99880002,62bbe60bf3d75ef465d3e404,0,19,19,160,1,onetwo,,,,,,,,,,,,,,,,,,,,,,,,,,,,,,,,,,,,,,,,,,,,,,,,,,,,,,,,,,,,,,,,,,,,,,,,,,,,,,,,,,,,,,,,,,,,,,,,,,,,,,,,,,,,,,,,,,,,,,,,,,,,,,,,,,,,,,,,,,,,,,,,,,,,,,,,
,,,,,,5c6219e169375500012329d9,62bbfb4ce80eff42814d9127,2022-06-29_09h12.23.999,Colour_Asymmetry_Pilot,2022.1.3,Win32,59.99880002,62bbe60bf3d75ef465d3e404,0,20,20,79,1,fourthree,,,,,,,,,,,,,,,,,,,,,,,,,,,,,,,,,,,,,,,,,,,,,,,,,,,,,,,,,,,,,,,,,,,,,,,,,,,,,,,,,,,,,,,,,,,,,,,,,,,,,,,,,,,,,,,,,,,,,,,,,,,,,,,,,,,,,,,,,,,,,,,,,,,,,,,,
,,,,,,5c6219e169375500012329d9,62bbfb4ce80eff42814d9127,2022-06-29_09h12.23.999,Colour_Asymmetry_Pilot,2022.1.3,Win32,59.99880002,62bbe60bf3d75ef465d3e404,0,21,21,17,1,onethree,,,,,,,,,,,,,,,,,,,,,,,,,,,,,,,,,,,,,,,,,,,,,,,,,,,,,,,,,,,,,,,,,,,,,,,,,,,,,,,,,,,,,,,,,,,,,,,,,,,,,,,,,,,,,,,,,,,,,,,,,,,,,,,,,,,,,,,,,,,,,,,,,,,,,,,,
,,,,,,5c6219e169375500012329d9,62bbfb4ce80eff42814d9127,2022-06-29_09h12.23.999,Colour_Asymmetry_Pilot,2022.1.3,Win32,59.99880002,62bbe60bf3d75ef465d3e404,0,22,22,84,1,threeone,,,,,,,,,,,,,,,,,,,,,,,,,,,,,,,,,,,,,,,,,,,,,,,,,,,,,,,,,,,,,,,,,,,,,,,,,,,,,,,,,,,,,,,,,,,,,,,,,,,,,,,,,,,,,,,,,,,,,,,,,,,,,,,,,,,,,,,,,,,,,,,,,,,,,,,,
,,,,,,5c6219e169375500012329d9,62bbfb4ce80eff42814d9127,2022-06-29_09h12.23.999,Colour_Asymmetry_Pilot,2022.1.3,Win32,59.99880002,62bbe60bf3d75ef465d3e404,0,23,23,140,1,threeone,,,,,,,,,,,,,,,,,,,,,,,,,,,,,,,,,,,,,,,,,,,,,,,,,,,,,,,,,,,,,,,,,,,,,,,,,,,,,,,,,,,,,,,,,,,,,,,,,,,,,,,,,,,,,,,,,,,,,,,,,,,,,,,,,,,,,,,,,,,,,,,,,,,,,,,,
,,,,,,5c6219e169375500012329d9,62bbfb4ce80eff42814d9127,2022-06-29_09h12.23.999,Colour_Asymmetry_Pilot,2022.1.3,Win32,59.99880002,62bbe60bf3d75ef465d3e404,0,24,24,144,1,onetwo,,,,,,,,,,,,,,,,,,,,,,,,,,,,,,,,,,,,,,,,,,,,,,,,,,,,,,,,,,,,,,,,,,,,,,,,,,,,,,,,,,,,,,,,,,,,,,,,,,,,,,,,,,,,,,,,,,,,,,,,,,,,,,,,,,,,,,,,,,,,,,,,,,,,,,,,
,,,,,,5c6219e169375500012329d9,62bbfb4ce80eff42814d9127,2022-06-29_09h12.23.999,Colour_Asymmetry_Pilot,2022.1.3,Win32,59.99880002,62bbe60bf3d75ef465d3e404,0,25,25,34,1,twoone,,,,,,,,,,,,,,,,,,,,,,,,,,,,,,,,,,,,,,,,,,,,,,,,,,,,,,,,,,,,,,,,,,,,,,,,,,,,,,,,,,,,,,,,,,,,,,,,,,,,,,,,,,,,,,,,,,,,,,,,,,,,,,,,,,,,,,,,,,,,,,,,,,,,,,,,
,,,,,,5c6219e169375500012329d9,62bbfb4ce80eff42814d9127,2022-06-29_09h12.23.999,Colour_Asymmetry_Pilot,2022.1.3,Win32,59.99880002,62bbe60bf3d75ef465d3e404,0,26,26,15,1,fourthree,,,,,,,,,,,,,,,,,,,,,,,,,,,,,,,,,,,,,,,,,,,,,,,,,,,,,,,,,,,,,,,,,,,,,,,,,,,,,,,,,,,,,,,,,,,,,,,,,,,,,,,,,,,,,,,,,,,,,,,,,,,,,,,,,,,,,,,,,,,,,,,,,,,,,,,,
,,,,,,5c6219e169375500012329d9,62bbfb4ce80eff42814d9127,2022-06-29_09h12.23.999,Colour_Asymmetry_Pilot,2022.1.3,Win32,59.99880002,62bbe60bf3d75ef465d3e404,0,27,27,81,1,onethree,,,,,,,,,,,,,,,,,,,,,,,,,,,,,,,,,,,,,,,,,,,,,,,,,,,,,,,,,,,,,,,,,,,,,,,,,,,,,,,,,,,,,,,,,,,,,,,,,,,,,,,,,,,,,,,,,,,,,,,,,,,,,,,,,,,,,,,,,,,,,,,,,,,,,,,,
,,,,,,5c6219e169375500012329d9,62bbfb4ce80eff42814d9127,2022-06-29_09h12.23.999,Colour_Asymmetry_Pilot,2022.1.3,Win32,59.99880002,62bbe60bf3d75ef465d3e404,0,28,28,69,1,threefour,,,,,,,,,,,,,,,,,,,,,,,,,,,,,,,,,,,,,,,,,,,,,,,,,,,,,,,,,,,,,,,,,,,,,,,,,,,,,,,,,,,,,,,,,,,,,,,,,,,,,,,,,,,,,,,,,,,,,,,,,,,,,,,,,,,,,,,,,,,,,,,,,,,,,,,,
,,,,,,5c6219e169375500012329d9,62bbfb4ce80eff42814d9127,2022-06-29_09h12.23.999,Colour_Asymmetry_Pilot,2022.1.3,Win32,59.99880002,62bbe60bf3d75ef465d3e404,0,29,29,139,1,twofour,,,,,,,,,,,,,,,,,,,,,,,,,,,,,,,,,,,,,,,,,,,,,,,,,,,,,,,,,,,,,,,,,,,,,,,,,,,,,,,,,,,,,,,,,,,,,,,,,,,,,,,,,,,,,,,,,,,,,,,,,,,,,,,,,,,,,,,,,,,,,,,,,,,,,,,,
,,,,,,5c6219e169375500012329d9,62bbfb4ce80eff42814d9127,2022-06-29_09h12.23.999,Colour_Asymmetry_Pilot,2022.1.3,Win32,59.99880002,62bbe60bf3d75ef465d3e404,0,30,30,3,1,twofour,,,,,,,,,,,,,,,,,,,,,,,,,,,,,,,,,,,,,,,,,,,,,,,,,,,,,,,,,,,,,,,,,,,,,,,,,,,,,,,,,,,,,,,,,,,,,,,,,,,,,,,,,,,,,,,,,,,,,,,,,,,,,,,,,,,,,,,,,,,,,,,,,,,,,,,,
,,,,,,5c6219e169375500012329d9,62bbfb4ce80eff42814d9127,2022-06-29_09h12.23.999,Colour_Asymmetry_Pilot,2022.1.3,Win32,59.99880002,62bbe60bf3d75ef465d3e404,0,31,31,13,1,threefour,,,,,,,,,,,,,,,,,,,,,,,,,,,,,,,,,,,,,,,,,,,,,,,,,,,,,,,,,,,,,,,,,,,,,,,,,,,,,,,,,,,,,,,,,,,,,,,,,,,,,,,,,,,,,,,,,,,,,,,,,,,,,,,,,,,,,,,,,,,,,,,,,,,,,,,,
,,,,,,5c6219e169375500012329d9,62bbfb4ce80eff42814d9127,2022-06-29_09h12.23.999,Colour_Asymmetry_Pilot,2022.1.3,Win32,59.99880002,62bbe60bf3d75ef465d3e404,0,32,32,19,1,twofour,,,,,,,,,,,,,,,,,,,,,,,,,,,,,,,,,,,,,,,,,,,,,,,,,,,,,,,,,,,,,,,,,,,,,,,,,,,,,,,,,,,,,,,,,,,,,,,,,,,,,,,,,,,,,,,,,,,,,,,,,,,,,,,,,,,,,,,,,,,,,,,,,,,,,,,,
,,,,,,5c6219e169375500012329d9,62bbfb4ce80eff42814d9127,2022-06-29_09h12.23.999,Colour_Asymmetry_Pilot,2022.1.3,Win32,59.99880002,62bbe60bf3d75ef465d3e404,0,33,33,40,1,onetwo,,,,,,,,,,,,,,,,,,,,,,,,,,,,,,,,,,,,,,,,,,,,,,,,,,,,,,,,,,,,,,,,,,,,,,,,,,,,,,,,,,,,,,,,,,,,,,,,,,,,,,,,,,,,,,,,,,,,,,,,,,,,,,,,,,,,,,,,,,,,,,,,,,,,,,,,
,,,,,,5c6219e169375500012329d9,62bbfb4ce80eff42814d9127,2022-06-29_09h12.23.999,Colour_Asymmetry_Pilot,2022.1.3,Win32,59.99880002,62bbe60bf3d75ef465d3e404,0,34,34,152,1,onetwo,,,,,,,,,,,,,,,,,,,,,,,,,,,,,,,,,,,,,,,,,,,,,,,,,,,,,,,,,,,,,,,,,,,,,,,,,,,,,,,,,,,,,,,,,,,,,,,,,,,,,,,,,,,,,,,,,,,,,,,,,,,,,,,,,,,,,,,,,,,,,,,,,,,,,,,,
,,,,,,5c6219e169375500012329d9,62bbfb4ce80eff42814d9127,2022-06-29_09h12.23.999,Colour_Asymmetry_Pilot,2022.1.3,Win32,59.99880002,62bbe60bf3d75ef465d3e404,0,35,35,159,1,fourthree,,,,,,,,,,,,,,,,,,,,,,,,,,,,,,,,,,,,,,,,,,,,,,,,,,,,,,,,,,,,,,,,,,,,,,,,,,,,,,,,,,,,,,,,,,,,,,,,,,,,,,,,,,,,,,,,,,,,,,,,,,,,,,,,,,,,,,,,,,,,,,,,,,,,,,,,
,,,,,,5c6219e169375500012329d9,62bbfb4ce80eff42814d9127,2022-06-29_09h12.23.999,Colour_Asymmetry_Pilot,2022.1.3,Win32,59.99880002,62bbe60bf3d75ef465d3e404,0,36,36,98,1,twoone,,,,,,,,,,,,,,,,,,,,,,,,,,,,,,,,,,,,,,,,,,,,,,,,,,,,,,,,,,,,,,,,,,,,,,,,,,,,,,,,,,,,,,,,,,,,,,,,,,,,,,,,,,,,,,,,,,,,,,,,,,,,,,,,,,,,,,,,,,,,,,,,,,,,,,,,
,,,,,,5c6219e169375500012329d9,62bbfb4ce80eff42814d9127,2022-06-29_09h12.23.999,Colour_Asymmetry_Pilot,2022.1.3,Win32,59.99880002,62bbe60bf3d75ef465d3e404,0,37,37,63,1,fourthree,,,,,,,,,,,,,,,,,,,,,,,,,,,,,,,,,,,,,,,,,,,,,,,,,,,,,,,,,,,,,,,,,,,,,,,,,,,,,,,,,,,,,,,,,,,,,,,,,,,,,,,,,,,,,,,,,,,,,,,,,,,,,,,,,,,,,,,,,,,,,,,,,,,,,,,,
,,,,,,5c6219e169375500012329d9,62bbfb4ce80eff42814d9127,2022-06-29_09h12.23.999,Colour_Asymmetry_Pilot,2022.1.3,Win32,59.99880002,62bbe60bf3d75ef465d3e404,0,38,38,75,1,twofour,,,,,,,,,,,,,,,,,,,,,,,,,,,,,,,,,,,,,,,,,,,,,,,,,,,,,,,,,,,,,,,,,,,,,,,,,,,,,,,,,,,,,,,,,,,,,,,,,,,,,,,,,,,,,,,,,,,,,,,,,,,,,,,,,,,,,,,,,,,,,,,,,,,,,,,,
,,,,,,5c6219e169375500012329d9,62bbfb4ce80eff42814d9127,2022-06-29_09h12.23.999,Colour_Asymmetry_Pilot,2022.1.3,Win32,59.99880002,62bbe60bf3d75ef465d3e404,0,39,39,116,1,threeone,,,,,,,,,,,,,,,,,,,,,,,,,,,,,,,,,,,,,,,,,,,,,,,,,,,,,,,,,,,,,,,,,,,,,,,,,,,,,,,,,,,,,,,,,,,,,,,,,,,,,,,,,,,,,,,,,,,,,,,,,,,,,,,,,,,,,,,,,,,,,,,,,,,,,,,,
,,,,,,5c6219e169375500012329d9,62bbfb4ce80eff42814d9127,2022-06-29_09h12.23.999,Colour_Asymmetry_Pilot,2022.1.3,Win32,59.99880002,62bbe60bf3d75ef465d3e404,0,40,40,11,1,twofour,,,,,,,,,,,,,,,,,,,,,,,,,,,,,,,,,,,,,,,,,,,,,,,,,,,,,,,,,,,,,,,,,,,,,,,,,,,,,,,,,,,,,,,,,,,,,,,,,,,,,,,,,,,,,,,,,,,,,,,,,,,,,,,,,,,,,,,,,,,,,,,,,,,,,,,,
,,,,,,5c6219e169375500012329d9,62bbfb4ce80eff42814d9127,2022-06-29_09h12.23.999,Colour_Asymmetry_Pilot,2022.1.3,Win32,59.99880002,62bbe60bf3d75ef465d3e404,0,41,41,1,1,onethree,,,,,,,,,,,,,,,,,,,,,,,,,,,,,,,,,,,,,,,,,,,,,,,,,,,,,,,,,,,,,,,,,,,,,,,,,,,,,,,,,,,,,,,,,,,,,,,,,,,,,,,,,,,,,,,,,,,,,,,,,,,,,,,,,,,,,,,,,,,,,,,,,,,,,,,,
,,,,,,5c6219e169375500012329d9,62bbfb4ce80eff42814d9127,2022-06-29_09h12.23.999,Colour_Asymmetry_Pilot,2022.1.3,Win32,59.99880002,62bbe60bf3d75ef465d3e404,0,42,42,77,1,threefour,,,,,,,,,,,,,,,,,,,,,,,,,,,,,,,,,,,,,,,,,,,,,,,,,,,,,,,,,,,,,,,,,,,,,,,,,,,,,,,,,,,,,,,,,,,,,,,,,,,,,,,,,,,,,,,,,,,,,,,,,,,,,,,,,,,,,,,,,,,,,,,,,,,,,,,,
,,,,,,5c6219e169375500012329d9,62bbfb4ce80eff42814d9127,2022-06-29_09h12.23.999,Colour_Asymmetry_Pilot,2022.1.3,Win32,59.99880002,62bbe60bf3d75ef465d3e404,0,43,43,76,1,threeone,,,,,,,,,,,,,,,,,,,,,,,,,,,,,,,,,,,,,,,,,,,,,,,,,,,,,,,,,,,,,,,,,,,,,,,,,,,,,,,,,,,,,,,,,,,,,,,,,,,,,,,,,,,,,,,,,,,,,,,,,,,,,,,,,,,,,,,,,,,,,,,,,,,,,,,,
,,,,,,5c6219e169375500012329d9,62bbfb4ce80eff42814d9127,2022-06-29_09h12.23.999,Colour_Asymmetry_Pilot,2022.1.3,Win32,59.99880002,62bbe60bf3d75ef465d3e404,0,44,44,38,1,fourtwo,,,,,,,,,,,,,,,,,,,,,,,,,,,,,,,,,,,,,,,,,,,,,,,,,,,,,,,,,,,,,,,,,,,,,,,,,,,,,,,,,,,,,,,,,,,,,,,,,,,,,,,,,,,,,,,,,,,,,,,,,,,,,,,,,,,,,,,,,,,,,,,,,,,,,,,,
,,,,,,5c6219e169375500012329d9,62bbfb4ce80eff42814d9127,2022-06-29_09h12.23.999,Colour_Asymmetry_Pilot,2022.1.3,Win32,59.99880002,62bbe60bf3d75ef465d3e404,0,45,45,87,1,fourthree,,,,,,,,,,,,,,,,,,,,,,,,,,,,,,,,,,,,,,,,,,,,,,,,,,,,,,,,,,,,,,,,,,,,,,,,,,,,,,,,,,,,,,,,,,,,,,,,,,,,,,,,,,,,,,,,,,,,,,,,,,,,,,,,,,,,,,,,,,,,,,,,,,,,,,,,
,,,,,,5c6219e169375500012329d9,62bbfb4ce80eff42814d9127,2022-06-29_09h12.23.999,Colour_Asymmetry_Pilot,2022.1.3,Win32,59.99880002,62bbe60bf3d75ef465d3e404,0,46,46,22,1,fourtwo,,,,,,,,,,,,,,,,,,,,,,,,,,,,,,,,,,,,,,,,,,,,,,,,,,,,,,,,,,,,,,,,,,,,,,,,,,,,,,,,,,,,,,,,,,,,,,,,,,,,,,,,,,,,,,,,,,,,,,,,,,,,,,,,,,,,,,,,,,,,,,,,,,,,,,,,
,,,,,,5c6219e169375500012329d9,62bbfb4ce80eff42814d9127,2022-06-29_09h12.23.999,Colour_Asymmetry_Pilot,2022.1.3,Win32,59.99880002,62bbe60bf3d75ef465d3e404,0,47,47,88,1,onetwo,,,,,,,,,,,,,,,,,,,,,,,,,,,,,,,,,,,,,,,,,,,,,,,,,,,,,,,,,,,,,,,,,,,,,,,,,,,,,,,,,,,,,,,,,,,,,,,,,,,,,,,,,,,,,,,,,,,,,,,,,,,,,,,,,,,,,,,,,,,,,,,,,,,,,,,,
,,,,,,5c6219e169375500012329d9,62bbfb4ce80eff42814d9127,2022-06-29_09h12.23.999,Colour_Asymmetry_Pilot,2022.1.3,Win32,59.99880002,62bbe60bf3d75ef465d3e404,0,48,48,94,1,fourtwo,,,,,,,,,,,,,,,,,,,,,,,,,,,,,,,,,,,,,,,,,,,,,,,,,,,,,,,,,,,,,,,,,,,,,,,,,,,,,,,,,,,,,,,,,,,,,,,,,,,,,,,,,,,,,,,,,,,,,,,,,,,,,,,,,,,,,,,,,,,,,,,,,,,,,,,,
,,,,,,5c6219e169375500012329d9,62bbfb4ce80eff42814d9127,2022-06-29_09h12.23.999,Colour_Asymmetry_Pilot,2022.1.3,Win32,59.99880002,62bbe60bf3d75ef465d3e404,0,49,49,157,1,threefour,,,,,,,,,,,,,,,,,,,,,,,,,,,,,,,,,,,,,,,,,,,,,,,,,,,,,,,,,,,,,,,,,,,,,,,,,,,,,,,,,,,,,,,,,,,,,,,,,,,,,,,,,,,,,,,,,,,,,,,,,,,,,,,,,,,,,,,,,,,,,,,,,,,,,,,,
,,,,,,5c6219e169375500012329d9,62bbfb4ce80eff42814d9127,2022-06-29_09h12.23.999,Colour_Asymmetry_Pilot,2022.1.3,Win32,59.99880002,62bbe60bf3d75ef465d3e404,0,50,50,91,1,twofour,,,,,,,,,,,,,,,,,,,,,,,,,,,,,,,,,,,,,,,,,,,,,,,,,,,,,,,,,,,,,,,,,,,,,,,,,,,,,,,,,,,,,,,,,,,,,,,,,,,,,,,,,,,,,,,,,,,,,,,,,,,,,,,,,,,,,,,,,,,,,,,,,,,,,,,,
,,,,,,5c6219e169375500012329d9,62bbfb4ce80eff42814d9127,2022-06-29_09h12.23.999,Colour_Asymmetry_Pilot,2022.1.3,Win32,59.99880002,62bbe60bf3d75ef465d3e404,0,51,51,56,1,onetwo,,,,,,,,,,,,,,,,,,,,,,,,,,,,,,,,,,,,,,,,,,,,,,,,,,,,,,,,,,,,,,,,,,,,,,,,,,,,,,,,,,,,,,,,,,,,,,,,,,,,,,,,,,,,,,,,,,,,,,,,,,,,,,,,,,,,,,,,,,,,,,,,,,,,,,,,
,,,,,,5c6219e169375500012329d9,62bbfb4ce80eff42814d9127,2022-06-29_09h12.23.999,Colour_Asymmetry_Pilot,2022.1.3,Win32,59.99880002,62bbe60bf3d75ef465d3e404,0,52,52,72,1,onetwo,,,,,,,,,,,,,,,,,,,,,,,,,,,,,,,,,,,,,,,,,,,,,,,,,,,,,,,,,,,,,,,,,,,,,,,,,,,,,,,,,,,,,,,,,,,,,,,,,,,,,,,,,,,,,,,,,,,,,,,,,,,,,,,,,,,,,,,,,,,,,,,,,,,,,,,,
,,,,,,5c6219e169375500012329d9,62bbfb4ce80eff42814d9127,2022-06-29_09h12.23.999,Colour_Asymmetry_Pilot,2022.1.3,Win32,59.99880002,62bbe60bf3d75ef465d3e404,0,53,53,97,1,onethree,,,,,,,,,,,,,,,,,,,,,,,,,,,,,,,,,,,,,,,,,,,,,,,,,,,,,,,,,,,,,,,,,,,,,,,,,,,,,,,,,,,,,,,,,,,,,,,,,,,,,,,,,,,,,,,,,,,,,,,,,,,,,,,,,,,,,,,,,,,,,,,,,,,,,,,,
,,,,,,5c6219e169375500012329d9,62bbfb4ce80eff42814d9127,2022-06-29_09h12.23.999,Colour_Asymmetry_Pilot,2022.1.3,Win32,59.99880002,62bbe60bf3d75ef465d3e404,0,54,54,115,1,twofour,,,,,,,,,,,,,,,,,,,,,,,,,,,,,,,,,,,,,,,,,,,,,,,,,,,,,,,,,,,,,,,,,,,,,,,,,,,,,,,,,,,,,,,,,,,,,,,,,,,,,,,,,,,,,,,,,,,,,,,,,,,,,,,,,,,,,,,,,,,,,,,,,,,,,,,,
,,,,,,5c6219e169375500012329d9,62bbfb4ce80eff42814d9127,2022-06-29_09h12.23.999,Colour_Asymmetry_Pilot,2022.1.3,Win32,59.99880002,62bbe60bf3d75ef465d3e404,0,55,55,25,1,onethree,,,,,,,,,,,,,,,,,,,,,,,,,,,,,,,,,,,,,,,,,,,,,,,,,,,,,,,,,,,,,,,,,,,,,,,,,,,,,,,,,,,,,,,,,,,,,,,,,,,,,,,,,,,,,,,,,,,,,,,,,,,,,,,,,,,,,,,,,,,,,,,,,,,,,,,,
,,,,,,5c6219e169375500012329d9,62bbfb4ce80eff42814d9127,2022-06-29_09h12.23.999,Colour_Asymmetry_Pilot,2022.1.3,Win32,59.99880002,62bbe60bf3d75ef465d3e404,0,56,56,65,1,onethree,,,,,,,,,,,,,,,,,,,,,,,,,,,,,,,,,,,,,,,,,,,,,,,,,,,,,,,,,,,,,,,,,,,,,,,,,,,,,,,,,,,,,,,,,,,,,,,,,,,,,,,,,,,,,,,,,,,,,,,,,,,,,,,,,,,,,,,,,,,,,,,,,,,,,,,,
,,,,,,5c6219e169375500012329d9,62bbfb4ce80eff42814d9127,2022-06-29_09h12.23.999,Colour_Asymmetry_Pilot,2022.1.3,Win32,59.99880002,62bbe60bf3d75ef465d3e404,0,57,57,158,1,fourtwo,,,,,,,,,,,,,,,,,,,,,,,,,,,,,,,,,,,,,,,,,,,,,,,,,,,,,,,,,,,,,,,,,,,,,,,,,,,,,,,,,,,,,,,,,,,,,,,,,,,,,,,,,,,,,,,,,,,,,,,,,,,,,,,,,,,,,,,,,,,,,,,,,,,,,,,,
,,,,,,5c6219e169375500012329d9,62bbfb4ce80eff42814d9127,2022-06-29_09h12.23.999,Colour_Asymmetry_Pilot,2022.1.3,Win32,59.99880002,62bbe60bf3d75ef465d3e404,0,58,58,43,1,twofour,,,,,,,,,,,,,,,,,,,,,,,,,,,,,,,,,,,,,,,,,,,,,,,,,,,,,,,,,,,,,,,,,,,,,,,,,,,,,,,,,,,,,,,,,,,,,,,,,,,,,,,,,,,,,,,,,,,,,,,,,,,,,,,,,,,,,,,,,,,,,,,,,,,,,,,,
,,,,,,5c6219e169375500012329d9,62bbfb4ce80eff42814d9127,2022-06-29_09h12.23.999,Colour_Asymmetry_Pilot,2022.1.3,Win32,59.99880002,62bbe60bf3d75ef465d3e404,0,59,59,135,1,fourthree,,,,,,,,,,,,,,,,,,,,,,,,,,,,,,,,,,,,,,,,,,,,,,,,,,,,,,,,,,,,,,,,,,,,,,,,,,,,,,,,,,,,,,,,,,,,,,,,,,,,,,,,,,,,,,,,,,,,,,,,,,,,,,,,,,,,,,,,,,,,,,,,,,,,,,,,
,,,,,,5c6219e169375500012329d9,62bbfb4ce80eff42814d9127,2022-06-29_09h12.23.999,Colour_Asymmetry_Pilot,2022.1.3,Win32,59.99880002,62bbe60bf3d75ef465d3e404,0,60,60,155,1,twofour,,,,,,,,,,,,,,,,,,,,,,,,,,,,,,,,,,,,,,,,,,,,,,,,,,,,,,,,,,,,,,,,,,,,,,,,,,,,,,,,,,,,,,,,,,,,,,,,,,,,,,,,,,,,,,,,,,,,,,,,,,,,,,,,,,,,,,,,,,,,,,,,,,,,,,,,
,,,,,,5c6219e169375500012329d9,62bbfb4ce80eff42814d9127,2022-06-29_09h12.23.999,Colour_Asymmetry_Pilot,2022.1.3,Win32,59.99880002,62bbe60bf3d75ef465d3e404,0,61,61,4,1,threeone,,,,,,,,,,,,,,,,,,,,,,,,,,,,,,,,,,,,,,,,,,,,,,,,,,,,,,,,,,,,,,,,,,,,,,,,,,,,,,,,,,,,,,,,,,,,,,,,,,,,,,,,,,,,,,,,,,,,,,,,,,,,,,,,,,,,,,,,,,,,,,,,,,,,,,,,
,,,,,,5c6219e169375500012329d9,62bbfb4ce80eff42814d9127,2022-06-29_09h12.23.999,Colour_Asymmetry_Pilot,2022.1.3,Win32,59.99880002,62bbe60bf3d75ef465d3e404,0,62,62,89,1,onethree,,,,,,,,,,,,,,,,,,,,,,,,,,,,,,,,,,,,,,,,,,,,,,,,,,,,,,,,,,,,,,,,,,,,,,,,,,,,,,,,,,,,,,,,,,,,,,,,,,,,,,,,,,,,,,,,,,,,,,,,,,,,,,,,,,,,,,,,,,,,,,,,,,,,,,,,
,,,,,,5c6219e169375500012329d9,62bbfb4ce80eff42814d9127,2022-06-29_09h12.23.999,Colour_Asymmetry_Pilot,2022.1.3,Win32,59.99880002,62bbe60bf3d75ef465d3e404,0,63,63,132,1,threeone,,,,,,,,,,,,,,,,,,,,,,,,,,,,,,,,,,,,,,,,,,,,,,,,,,,,,,,,,,,,,,,,,,,,,,,,,,,,,,,,,,,,,,,,,,,,,,,,,,,,,,,,,,,,,,,,,,,,,,,,,,,,,,,,,,,,,,,,,,,,,,,,,,,,,,,,
,,,,,,5c6219e169375500012329d9,62bbfb4ce80eff42814d9127,2022-06-29_09h12.23.999,Colour_Asymmetry_Pilot,2022.1.3,Win32,59.99880002,62bbe60bf3d75ef465d3e404,0,64,64,106,1,twoone,,,,,,,,,,,,,,,,,,,,,,,,,,,,,,,,,,,,,,,,,,,,,,,,,,,,,,,,,,,,,,,,,,,,,,,,,,,,,,,,,,,,,,,,,,,,,,,,,,,,,,,,,,,,,,,,,,,,,,,,,,,,,,,,,,,,,,,,,,,,,,,,,,,,,,,,
,,,,,,5c6219e169375500012329d9,62bbfb4ce80eff42814d9127,2022-06-29_09h12.23.999,Colour_Asymmetry_Pilot,2022.1.3,Win32,59.99880002,62bbe60bf3d75ef465d3e404,0,65,65,129,1,onethree,,,,,,,,,,,,,,,,,,,,,,,,,,,,,,,,,,,,,,,,,,,,,,,,,,,,,,,,,,,,,,,,,,,,,,,,,,,,,,,,,,,,,,,,,,,,,,,,,,,,,,,,,,,,,,,,,,,,,,,,,,,,,,,,,,,,,,,,,,,,,,,,,,,,,,,,
,,,,,,5c6219e169375500012329d9,62bbfb4ce80eff42814d9127,2022-06-29_09h12.23.999,Colour_Asymmetry_Pilot,2022.1.3,Win32,59.99880002,62bbe60bf3d75ef465d3e404,0,66,66,149,1,threefour,,,,,,,,,,,,,,,,,,,,,,,,,,,,,,,,,,,,,,,,,,,,,,,,,,,,,,,,,,,,,,,,,,,,,,,,,,,,,,,,,,,,,,,,,,,,,,,,,,,,,,,,,,,,,,,,,,,,,,,,,,,,,,,,,,,,,,,,,,,,,,,,,,,,,,,,
,,,,,,5c6219e169375500012329d9,62bbfb4ce80eff42814d9127,2022-06-29_09h12.23.999,Colour_Asymmetry_Pilot,2022.1.3,Win32,59.99880002,62bbe60bf3d75ef465d3e404,0,67,67,78,1,fourtwo,,,,,,,,,,,,,,,,,,,,,,,,,,,,,,,,,,,,,,,,,,,,,,,,,,,,,,,,,,,,,,,,,,,,,,,,,,,,,,,,,,,,,,,,,,,,,,,,,,,,,,,,,,,,,,,,,,,,,,,,,,,,,,,,,,,,,,,,,,,,,,,,,,,,,,,,
,,,,,,5c6219e169375500012329d9,62bbfb4ce80eff42814d9127,2022-06-29_09h12.23.999,Colour_Asymmetry_Pilot,2022.1.3,Win32,59.99880002,62bbe60bf3d75ef465d3e404,0,68,68,37,1,threefour,,,,,,,,,,,,,,,,,,,,,,,,,,,,,,,,,,,,,,,,,,,,,,,,,,,,,,,,,,,,,,,,,,,,,,,,,,,,,,,,,,,,,,,,,,,,,,,,,,,,,,,,,,,,,,,,,,,,,,,,,,,,,,,,,,,,,,,,,,,,,,,,,,,,,,,,
,,,,,,5c6219e169375500012329d9,62bbfb4ce80eff42814d9127,2022-06-29_09h12.23.999,Colour_Asymmetry_Pilot,2022.1.3,Win32,59.99880002,62bbe60bf3d75ef465d3e404,0,69,69,102,1,fourtwo,,,,,,,,,,,,,,,,,,,,,,,,,,,,,,,,,,,,,,,,,,,,,,,,,,,,,,,,,,,,,,,,,,,,,,,,,,,,,,,,,,,,,,,,,,,,,,,,,,,,,,,,,,,,,,,,,,,,,,,,,,,,,,,,,,,,,,,,,,,,,,,,,,,,,,,,
,,,,,,5c6219e169375500012329d9,62bbfb4ce80eff42814d9127,2022-06-29_09h12.23.999,Colour_Asymmetry_Pilot,2022.1.3,Win32,59.99880002,62bbe60bf3d75ef465d3e404,0,70,70,113,1,onethree,,,,,,,,,,,,,,,,,,,,,,,,,,,,,,,,,,,,,,,,,,,,,,,,,,,,,,,,,,,,,,,,,,,,,,,,,,,,,,,,,,,,,,,,,,,,,,,,,,,,,,,,,,,,,,,,,,,,,,,,,,,,,,,,,,,,,,,,,,,,,,,,,,,,,,,,
,,,,,,5c6219e169375500012329d9,62bbfb4ce80eff42814d9127,2022-06-29_09h12.23.999,Colour_Asymmetry_Pilot,2022.1.3,Win32,59.99880002,62bbe60bf3d75ef465d3e404,0,71,71,114,1,twoone,,,,,,,,,,,,,,,,,,,,,,,,,,,,,,,,,,,,,,,,,,,,,,,,,,,,,,,,,,,,,,,,,,,,,,,,,,,,,,,,,,,,,,,,,,,,,,,,,,,,,,,,,,,,,,,,,,,,,,,,,,,,,,,,,,,,,,,,,,,,,,,,,,,,,,,,
,,,,,,5c6219e169375500012329d9,62bbfb4ce80eff42814d9127,2022-06-29_09h12.23.999,Colour_Asymmetry_Pilot,2022.1.3,Win32,59.99880002,62bbe60bf3d75ef465d3e404,0,72,72,138,1,twoone,,,,,,,,,,,,,,,,,,,,,,,,,,,,,,,,,,,,,,,,,,,,,,,,,,,,,,,,,,,,,,,,,,,,,,,,,,,,,,,,,,,,,,,,,,,,,,,,,,,,,,,,,,,,,,,,,,,,,,,,,,,,,,,,,,,,,,,,,,,,,,,,,,,,,,,,
,,,,,,5c6219e169375500012329d9,62bbfb4ce80eff42814d9127,2022-06-29_09h12.23.999,Colour_Asymmetry_Pilot,2022.1.3,Win32,59.99880002,62bbe60bf3d75ef465d3e404,0,73,73,54,1,fourtwo,,,,,,,,,,,,,,,,,,,,,,,,,,,,,,,,,,,,,,,,,,,,,,,,,,,,,,,,,,,,,,,,,,,,,,,,,,,,,,,,,,,,,,,,,,,,,,,,,,,,,,,,,,,,,,,,,,,,,,,,,,,,,,,,,,,,,,,,,,,,,,,,,,,,,,,,
,,,,,,5c6219e169375500012329d9,62bbfb4ce80eff42814d9127,2022-06-29_09h12.23.999,Colour_Asymmetry_Pilot,2022.1.3,Win32,59.99880002,62bbe60bf3d75ef465d3e404,0,74,74,48,1,onetwo,,,,,,,,,,,,,,,,,,,,,,,,,,,,,,,,,,,,,,,,,,,,,,,,,,,,,,,,,,,,,,,,,,,,,,,,,,,,,,,,,,,,,,,,,,,,,,,,,,,,,,,,,,,,,,,,,,,,,,,,,,,,,,,,,,,,,,,,,,,,,,,,,,,,,,,,
,,,,,,5c6219e169375500012329d9,62bbfb4ce80eff42814d9127,2022-06-29_09h12.23.999,Colour_Asymmetry_Pilot,2022.1.3,Win32,59.99880002,62bbe60bf3d75ef465d3e404,0,75,75,12,1,threeone,,,,,,,,,,,,,,,,,,,,,,,,,,,,,,,,,,,,,,,,,,,,,,,,,,,,,,,,,,,,,,,,,,,,,,,,,,,,,,,,,,,,,,,,,,,,,,,,,,,,,,,,,,,,,,,,,,,,,,,,,,,,,,,,,,,,,,,,,,,,,,,,,,,,,,,,
,,,,,,5c6219e169375500012329d9,62bbfb4ce80eff42814d9127,2022-06-29_09h12.23.999,Colour_Asymmetry_Pilot,2022.1.3,Win32,59.99880002,62bbe60bf3d75ef465d3e404,0,76,76,151,1,fourthree,,,,,,,,,,,,,,,,,,,,,,,,,,,,,,,,,,,,,,,,,,,,,,,,,,,,,,,,,,,,,,,,,,,,,,,,,,,,,,,,,,,,,,,,,,,,,,,,,,,,,,,,,,,,,,,,,,,,,,,,,,,,,,,,,,,,,,,,,,,,,,,,,,,,,,,,
,,,,,,5c6219e169375500012329d9,62bbfb4ce80eff42814d9127,2022-06-29_09h12.23.999,Colour_Asymmetry_Pilot,2022.1.3,Win32,59.99880002,62bbe60bf3d75ef465d3e404,0,77,77,109,1,threefour,,,,,,,,,,,,,,,,,,,,,,,,,,,,,,,,,,,,,,,,,,,,,,,,,,,,,,,,,,,,,,,,,,,,,,,,,,,,,,,,,,,,,,,,,,,,,,,,,,,,,,,,,,,,,,,,,,,,,,,,,,,,,,,,,,,,,,,,,,,,,,,,,,,,,,,,
,,,,,,5c6219e169375500012329d9,62bbfb4ce80eff42814d9127,2022-06-29_09h12.23.999,Colour_Asymmetry_Pilot,2022.1.3,Win32,59.99880002,62bbe60bf3d75ef465d3e404,0,78,78,145,1,onethree,,,,,,,,,,,,,,,,,,,,,,,,,,,,,,,,,,,,,,,,,,,,,,,,,,,,,,,,,,,,,,,,,,,,,,,,,,,,,,,,,,,,,,,,,,,,,,,,,,,,,,,,,,,,,,,,,,,,,,,,,,,,,,,,,,,,,,,,,,,,,,,,,,,,,,,,
,,,,,,5c6219e169375500012329d9,62bbfb4ce80eff42814d9127,2022-06-29_09h12.23.999,Colour_Asymmetry_Pilot,2022.1.3,Win32,59.99880002,62bbe60bf3d75ef465d3e404,0,79,79,154,1,twoone,,,,,,,,,,,,,,,,,,,,,,,,,,,,,,,,,,,,,,,,,,,,,,,,,,,,,,,,,,,,,,,,,,,,,,,,,,,,,,,,,,,,,,,,,,,,,,,,,,,,,,,,,,,,,,,,,,,,,,,,,,,,,,,,,,,,,,,,,,,,,,,,,,,,,,,,
,,,,,,5c6219e169375500012329d9,62bbfb4ce80eff42814d9127,2022-06-29_09h12.23.999,Colour_Asymmetry_Pilot,2022.1.3,Win32,59.99880002,62bbe60bf3d75ef465d3e404,0,80,80,29,1,threefour,,,,,,,,,,,,,,,,,,,,,,,,,,,,,,,,,,,,,,,,,,,,,,,,,,,,,,,,,,,,,,,,,,,,,,,,,,,,,,,,,,,,,,,,,,,,,,,,,,,,,,,,,,,,,,,,,,,,,,,,,,,,,,,,,,,,,,,,,,,,,,,,,,,,,,,,
,,,,,,5c6219e169375500012329d9,62bbfb4ce80eff42814d9127,2022-06-29_09h12.23.999,Colour_Asymmetry_Pilot,2022.1.3,Win32,59.99880002,62bbe60bf3d75ef465d3e404,0,81,81,153,1,onethree,,,,,,,,,,,,,,,,,,,,,,,,,,,,,,,,,,,,,,,,,,,,,,,,,,,,,,,,,,,,,,,,,,,,,,,,,,,,,,,,,,,,,,,,,,,,,,,,,,,,,,,,,,,,,,,,,,,,,,,,,,,,,,,,,,,,,,,,,,,,,,,,,,,,,,,,
,,,,,,5c6219e169375500012329d9,62bbfb4ce80eff42814d9127,2022-06-29_09h12.23.999,Colour_Asymmetry_Pilot,2022.1.3,Win32,59.99880002,62bbe60bf3d75ef465d3e404,0,82,82,74,1,twoone,,,,,,,,,,,,,,,,,,,,,,,,,,,,,,,,,,,,,,,,,,,,,,,,,,,,,,,,,,,,,,,,,,,,,,,,,,,,,,,,,,,,,,,,,,,,,,,,,,,,,,,,,,,,,,,,,,,,,,,,,,,,,,,,,,,,,,,,,,,,,,,,,,,,,,,,
,,,,,,5c6219e169375500012329d9,62bbfb4ce80eff42814d9127,2022-06-29_09h12.23.999,Colour_Asymmetry_Pilot,2022.1.3,Win32,59.99880002,62bbe60bf3d75ef465d3e404,0,83,83,53,1,threefour,,,,,,,,,,,,,,,,,,,,,,,,,,,,,,,,,,,,,,,,,,,,,,,,,,,,,,,,,,,,,,,,,,,,,,,,,,,,,,,,,,,,,,,,,,,,,,,,,,,,,,,,,,,,,,,,,,,,,,,,,,,,,,,,,,,,,,,,,,,,,,,,,,,,,,,,
,,,,,,5c6219e169375500012329d9,62bbfb4ce80eff42814d9127,2022-06-29_09h12.23.999,Colour_Asymmetry_Pilot,2022.1.3,Win32,59.99880002,62bbe60bf3d75ef465d3e404,0,84,84,59,1,twofour,,,,,,,,,,,,,,,,,,,,,,,,,,,,,,,,,,,,,,,,,,,,,,,,,,,,,,,,,,,,,,,,,,,,,,,,,,,,,,,,,,,,,,,,,,,,,,,,,,,,,,,,,,,,,,,,,,,,,,,,,,,,,,,,,,,,,,,,,,,,,,,,,,,,,,,,
,,,,,,5c6219e169375500012329d9,62bbfb4ce80eff42814d9127,2022-06-29_09h12.23.999,Colour_Asymmetry_Pilot,2022.1.3,Win32,59.99880002,62bbe60bf3d75ef465d3e404,0,85,85,118,1,fourtwo,,,,,,,,,,,,,,,,,,,,,,,,,,,,,,,,,,,,,,,,,,,,,,,,,,,,,,,,,,,,,,,,,,,,,,,,,,,,,,,,,,,,,,,,,,,,,,,,,,,,,,,,,,,,,,,,,,,,,,,,,,,,,,,,,,,,,,,,,,,,,,,,,,,,,,,,
,,,,,,5c6219e169375500012329d9,62bbfb4ce80eff42814d9127,2022-06-29_09h12.23.999,Colour_Asymmetry_Pilot,2022.1.3,Win32,59.99880002,62bbe60bf3d75ef465d3e404,0,86,86,66,1,twoone,,,,,,,,,,,,,,,,,,,,,,,,,,,,,,,,,,,,,,,,,,,,,,,,,,,,,,,,,,,,,,,,,,,,,,,,,,,,,,,,,,,,,,,,,,,,,,,,,,,,,,,,,,,,,,,,,,,,,,,,,,,,,,,,,,,,,,,,,,,,,,,,,,,,,,,,
,,,,,,5c6219e169375500012329d9,62bbfb4ce80eff42814d9127,2022-06-29_09h12.23.999,Colour_Asymmetry_Pilot,2022.1.3,Win32,59.99880002,62bbe60bf3d75ef465d3e404,0,87,87,121,1,onethree,,,,,,,,,,,,,,,,,,,,,,,,,,,,,,,,,,,,,,,,,,,,,,,,,,,,,,,,,,,,,,,,,,,,,,,,,,,,,,,,,,,,,,,,,,,,,,,,,,,,,,,,,,,,,,,,,,,,,,,,,,,,,,,,,,,,,,,,,,,,,,,,,,,,,,,,
,,,,,,5c6219e169375500012329d9,62bbfb4ce80eff42814d9127,2022-06-29_09h12.23.999,Colour_Asymmetry_Pilot,2022.1.3,Win32,59.99880002,62bbe60bf3d75ef465d3e404,0,88,88,105,1,onethree,,,,,,,,,,,,,,,,,,,,,,,,,,,,,,,,,,,,,,,,,,,,,,,,,,,,,,,,,,,,,,,,,,,,,,,,,,,,,,,,,,,,,,,,,,,,,,,,,,,,,,,,,,,,,,,,,,,,,,,,,,,,,,,,,,,,,,,,,,,,,,,,,,,,,,,,
,,,,,,5c6219e169375500012329d9,62bbfb4ce80eff42814d9127,2022-06-29_09h12.23.999,Colour_Asymmetry_Pilot,2022.1.3,Win32,59.99880002,62bbe60bf3d75ef465d3e404,0,89,89,110,1,fourtwo,,,,,,,,,,,,,,,,,,,,,,,,,,,,,,,,,,,,,,,,,,,,,,,,,,,,,,,,,,,,,,,,,,,,,,,,,,,,,,,,,,,,,,,,,,,,,,,,,,,,,,,,,,,,,,,,,,,,,,,,,,,,,,,,,,,,,,,,,,,,,,,,,,,,,,,,
,,,,,,5c6219e169375500012329d9,62bbfb4ce80eff42814d9127,2022-06-29_09h12.23.999,Colour_Asymmetry_Pilot,2022.1.3,Win32,59.99880002,62bbe60bf3d75ef465d3e404,0,90,90,2,1,twoone,,,,,,,,,,,,,,,,,,,,,,,,,,,,,,,,,,,,,,,,,,,,,,,,,,,,,,,,,,,,,,,,,,,,,,,,,,,,,,,,,,,,,,,,,,,,,,,,,,,,,,,,,,,,,,,,,,,,,,,,,,,,,,,,,,,,,,,,,,,,,,,,,,,,,,,,
,,,,,,5c6219e169375500012329d9,62bbfb4ce80eff42814d9127,2022-06-29_09h12.23.999,Colour_Asymmetry_Pilot,2022.1.3,Win32,59.99880002,62bbe60bf3d75ef465d3e404,0,91,91,147,1,twofour,,,,,,,,,,,,,,,,,,,,,,,,,,,,,,,,,,,,,,,,,,,,,,,,,,,,,,,,,,,,,,,,,,,,,,,,,,,,,,,,,,,,,,,,,,,,,,,,,,,,,,,,,,,,,,,,,,,,,,,,,,,,,,,,,,,,,,,,,,,,,,,,,,,,,,,,
,,,,,,5c6219e169375500012329d9,62bbfb4ce80eff42814d9127,2022-06-29_09h12.23.999,Colour_Asymmetry_Pilot,2022.1.3,Win32,59.99880002,62bbe60bf3d75ef465d3e404,0,92,92,130,1,twoone,,,,,,,,,,,,,,,,,,,,,,,,,,,,,,,,,,,,,,,,,,,,,,,,,,,,,,,,,,,,,,,,,,,,,,,,,,,,,,,,,,,,,,,,,,,,,,,,,,,,,,,,,,,,,,,,,,,,,,,,,,,,,,,,,,,,,,,,,,,,,,,,,,,,,,,,
,,,,,,5c6219e169375500012329d9,62bbfb4ce80eff42814d9127,2022-06-29_09h12.23.999,Colour_Asymmetry_Pilot,2022.1.3,Win32,59.99880002,62bbe60bf3d75ef465d3e404,0,93,93,103,1,fourthree,,,,,,,,,,,,,,,,,,,,,,,,,,,,,,,,,,,,,,,,,,,,,,,,,,,,,,,,,,,,,,,,,,,,,,,,,,,,,,,,,,,,,,,,,,,,,,,,,,,,,,,,,,,,,,,,,,,,,,,,,,,,,,,,,,,,,,,,,,,,,,,,,,,,,,,,
,,,,,,5c6219e169375500012329d9,62bbfb4ce80eff42814d9127,2022-06-29_09h12.23.999,Colour_Asymmetry_Pilot,2022.1.3,Win32,59.99880002,62bbe60bf3d75ef465d3e404,0,94,94,52,1,threeone,,,,,,,,,,,,,,,,,,,,,,,,,,,,,,,,,,,,,,,,,,,,,,,,,,,,,,,,,,,,,,,,,,,,,,,,,,,,,,,,,,,,,,,,,,,,,,,,,,,,,,,,,,,,,,,,,,,,,,,,,,,,,,,,,,,,,,,,,,,,,,,,,,,,,,,,
,,,,,,5c6219e169375500012329d9,62bbfb4ce80eff42814d9127,2022-06-29_09h12.23.999,Colour_Asymmetry_Pilot,2022.1.3,Win32,59.99880002,62bbe60bf3d75ef465d3e404,0,95,95,119,1,fourthree,,,,,,,,,,,,,,,,,,,,,,,,,,,,,,,,,,,,,,,,,,,,,,,,,,,,,,,,,,,,,,,,,,,,,,,,,,,,,,,,,,,,,,,,,,,,,,,,,,,,,,,,,,,,,,,,,,,,,,,,,,,,,,,,,,,,,,,,,,,,,,,,,,,,,,,,
,,,,,,5c6219e169375500012329d9,62bbfb4ce80eff42814d9127,2022-06-29_09h12.23.999,Colour_Asymmetry_Pilot,2022.1.3,Win32,59.99880002,62bbe60bf3d75ef465d3e404,0,96,96,10,1,twoone,,,,,,,,,,,,,,,,,,,,,,,,,,,,,,,,,,,,,,,,,,,,,,,,,,,,,,,,,,,,,,,,,,,,,,,,,,,,,,,,,,,,,,,,,,,,,,,,,,,,,,,,,,,,,,,,,,,,,,,,,,,,,,,,,,,,,,,,,,,,,,,,,,,,,,,,
,,,,,,5c6219e169375500012329d9,62bbfb4ce80eff42814d9127,2022-06-29_09h12.23.999,Colour_Asymmetry_Pilot,2022.1.3,Win32,59.99880002,62bbe60bf3d75ef465d3e404,0,97,97,9,1,onethree,,,,,,,,,,,,,,,,,,,,,,,,,,,,,,,,,,,,,,,,,,,,,,,,,,,,,,,,,,,,,,,,,,,,,,,,,,,,,,,,,,,,,,,,,,,,,,,,,,,,,,,,,,,,,,,,,,,,,,,,,,,,,,,,,,,,,,,,,,,,,,,,,,,,,,,,
,,,,,,5c6219e169375500012329d9,62bbfb4ce80eff42814d9127,2022-06-29_09h12.23.999,Colour_Asymmetry_Pilot,2022.1.3,Win32,59.99880002,62bbe60bf3d75ef465d3e404,0,98,98,134,1,fourtwo,,,,,,,,,,,,,,,,,,,,,,,,,,,,,,,,,,,,,,,,,,,,,,,,,,,,,,,,,,,,,,,,,,,,,,,,,,,,,,,,,,,,,,,,,,,,,,,,,,,,,,,,,,,,,,,,,,,,,,,,,,,,,,,,,,,,,,,,,,,,,,,,,,,,,,,,
,,,,,,5c6219e169375500012329d9,62bbfb4ce80eff42814d9127,2022-06-29_09h12.23.999,Colour_Asymmetry_Pilot,2022.1.3,Win32,59.99880002,62bbe60bf3d75ef465d3e404,0,99,99,45,1,threefour,,,,,,,,,,,,,,,,,,,,,,,,,,,,,,,,,,,,,,,,,,,,,,,,,,,,,,,,,,,,,,,,,,,,,,,,,,,,,,,,,,,,,,,,,,,,,,,,,,,,,,,,,,,,,,,,,,,,,,,,,,,,,,,,,,,,,,,,,,,,,,,,,,,,,,,,
,,,,,,5c6219e169375500012329d9,62bbfb4ce80eff42814d9127,2022-06-29_09h12.23.999,Colour_Asymmetry_Pilot,2022.1.3,Win32,59.99880002,62bbe60bf3d75ef465d3e404,0,100,100,146,1,twoone,,,,,,,,,,,,,,,,,,,,,,,,,,,,,,,,,,,,,,,,,,,,,,,,,,,,,,,,,,,,,,,,,,,,,,,,,,,,,,,,,,,,,,,,,,,,,,,,,,,,,,,,,,,,,,,,,,,,,,,,,,,,,,,,,,,,,,,,,,,,,,,,,,,,,,,,
,,,,,,5c6219e169375500012329d9,62bbfb4ce80eff42814d9127,2022-06-29_09h12.23.999,Colour_Asymmetry_Pilot,2022.1.3,Win32,59.99880002,62bbe60bf3d75ef465d3e404,0,101,101,32,1,onetwo,,,,,,,,,,,,,,,,,,,,,,,,,,,,,,,,,,,,,,,,,,,,,,,,,,,,,,,,,,,,,,,,,,,,,,,,,,,,,,,,,,,,,,,,,,,,,,,,,,,,,,,,,,,,,,,,,,,,,,,,,,,,,,,,,,,,,,,,,,,,,,,,,,,,,,,,
,,,,,,5c6219e169375500012329d9,62bbfb4ce80eff42814d9127,2022-06-29_09h12.23.999,Colour_Asymmetry_Pilot,2022.1.3,Win32,59.99880002,62bbe60bf3d75ef465d3e404,0,102,102,85,1,threefour,,,,,,,,,,,,,,,,,,,,,,,,,,,,,,,,,,,,,,,,,,,,,,,,,,,,,,,,,,,,,,,,,,,,,,,,,,,,,,,,,,,,,,,,,,,,,,,,,,,,,,,,,,,,,,,,,,,,,,,,,,,,,,,,,,,,,,,,,,,,,,,,,,,,,,,,
,,,,,,5c6219e169375500012329d9,62bbfb4ce80eff42814d9127,2022-06-29_09h12.23.999,Colour_Asymmetry_Pilot,2022.1.3,Win32,59.99880002,62bbe60bf3d75ef465d3e404,0,103,103,44,1,threeone,,,,,,,,,,,,,,,,,,,,,,,,,,,,,,,,,,,,,,,,,,,,,,,,,,,,,,,,,,,,,,,,,,,,,,,,,,,,,,,,,,,,,,,,,,,,,,,,,,,,,,,,,,,,,,,,,,,,,,,,,,,,,,,,,,,,,,,,,,,,,,,,,,,,,,,,
,,,,,,5c6219e169375500012329d9,62bbfb4ce80eff42814d9127,2022-06-29_09h12.23.999,Colour_Asymmetry_Pilot,2022.1.3,Win32,59.99880002,62bbe60bf3d75ef465d3e404,0,104,104,156,1,threeone,,,,,,,,,,,,,,,,,,,,,,,,,,,,,,,,,,,,,,,,,,,,,,,,,,,,,,,,,,,,,,,,,,,,,,,,,,,,,,,,,,,,,,,,,,,,,,,,,,,,,,,,,,,,,,,,,,,,,,,,,,,,,,,,,,,,,,,,,,,,,,,,,,,,,,,,
,,,,,,5c6219e169375500012329d9,62bbfb4ce80eff42814d9127,2022-06-29_09h12.23.999,Colour_Asymmetry_Pilot,2022.1.3,Win32,59.99880002,62bbe60bf3d75ef465d3e404,0,105,105,90,1,twoone,,,,,,,,,,,,,,,,,,,,,,,,,,,,,,,,,,,,,,,,,,,,,,,,,,,,,,,,,,,,,,,,,,,,,,,,,,,,,,,,,,,,,,,,,,,,,,,,,,,,,,,,,,,,,,,,,,,,,,,,,,,,,,,,,,,,,,,,,,,,,,,,,,,,,,,,
,,,,,,5c6219e169375500012329d9,62bbfb4ce80eff42814d9127,2022-06-29_09h12.23.999,Colour_Asymmetry_Pilot,2022.1.3,Win32,59.99880002,62bbe60bf3d75ef465d3e404,0,106,106,133,1,threefour,,,,,,,,,,,,,,,,,,,,,,,,,,,,,,,,,,,,,,,,,,,,,,,,,,,,,,,,,,,,,,,,,,,,,,,,,,,,,,,,,,,,,,,,,,,,,,,,,,,,,,,,,,,,,,,,,,,,,,,,,,,,,,,,,,,,,,,,,,,,,,,,,,,,,,,,
,,,,,,5c6219e169375500012329d9,62bbfb4ce80eff42814d9127,2022-06-29_09h12.23.999,Colour_Asymmetry_Pilot,2022.1.3,Win32,59.99880002,62bbe60bf3d75ef465d3e404,0,107,107,16,1,onetwo,,,,,,,,,,,,,,,,,,,,,,,,,,,,,,,,,,,,,,,,,,,,,,,,,,,,,,,,,,,,,,,,,,,,,,,,,,,,,,,,,,,,,,,,,,,,,,,,,,,,,,,,,,,,,,,,,,,,,,,,,,,,,,,,,,,,,,,,,,,,,,,,,,,,,,,,
,,,,,,5c6219e169375500012329d9,62bbfb4ce80eff42814d9127,2022-06-29_09h12.23.999,Colour_Asymmetry_Pilot,2022.1.3,Win32,59.99880002,62bbe60bf3d75ef465d3e404,0,108,108,128,1,onetwo,,,,,,,,,,,,,,,,,,,,,,,,,,,,,,,,,,,,,,,,,,,,,,,,,,,,,,,,,,,,,,,,,,,,,,,,,,,,,,,,,,,,,,,,,,,,,,,,,,,,,,,,,,,,,,,,,,,,,,,,,,,,,,,,,,,,,,,,,,,,,,,,,,,,,,,,
,,,,,,5c6219e169375500012329d9,62bbfb4ce80eff42814d9127,2022-06-29_09h12.23.999,Colour_Asymmetry_Pilot,2022.1.3,Win32,59.99880002,62bbe60bf3d75ef465d3e404,0,109,109,80,1,onetwo,,,,,,,,,,,,,,,,,,,,,,,,,,,,,,,,,,,,,,,,,,,,,,,,,,,,,,,,,,,,,,,,,,,,,,,,,,,,,,,,,,,,,,,,,,,,,,,,,,,,,,,,,,,,,,,,,,,,,,,,,,,,,,,,,,,,,,,,,,,,,,,,,,,,,,,,
,,,,,,5c6219e169375500012329d9,62bbfb4ce80eff42814d9127,2022-06-29_09h12.23.999,Colour_Asymmetry_Pilot,2022.1.3,Win32,59.99880002,62bbe60bf3d75ef465d3e404,0,110,110,73,1,onethree,,,,,,,,,,,,,,,,,,,,,,,,,,,,,,,,,,,,,,,,,,,,,,,,,,,,,,,,,,,,,,,,,,,,,,,,,,,,,,,,,,,,,,,,,,,,,,,,,,,,,,,,,,,,,,,,,,,,,,,,,,,,,,,,,,,,,,,,,,,,,,,,,,,,,,,,
,,,,,,5c6219e169375500012329d9,62bbfb4ce80eff42814d9127,2022-06-29_09h12.23.999,Colour_Asymmetry_Pilot,2022.1.3,Win32,59.99880002,62bbe60bf3d75ef465d3e404,0,111,111,33,1,onethree,,,,,,,,,,,,,,,,,,,,,,,,,,,,,,,,,,,,,,,,,,,,,,,,,,,,,,,,,,,,,,,,,,,,,,,,,,,,,,,,,,,,,,,,,,,,,,,,,,,,,,,,,,,,,,,,,,,,,,,,,,,,,,,,,,,,,,,,,,,,,,,,,,,,,,,,
,,,,,,5c6219e169375500012329d9,62bbfb4ce80eff42814d9127,2022-06-29_09h12.23.999,Colour_Asymmetry_Pilot,2022.1.3,Win32,59.99880002,62bbe60bf3d75ef465d3e404,0,112,112,148,1,threeone,,,,,,,,,,,,,,,,,,,,,,,,,,,,,,,,,,,,,,,,,,,,,,,,,,,,,,,,,,,,,,,,,,,,,,,,,,,,,,,,,,,,,,,,,,,,,,,,,,,,,,,,,,,,,,,,,,,,,,,,,,,,,,,,,,,,,,,,,,,,,,,,,,,,,,,,
,,,,,,5c6219e169375500012329d9,62bbfb4ce80eff42814d9127,2022-06-29_09h12.23.999,Colour_Asymmetry_Pilot,2022.1.3,Win32,59.99880002,62bbe60bf3d75ef465d3e404,0,113,113,150,1,fourtwo,,,,,,,,,,,,,,,,,,,,,,,,,,,,,,,,,,,,,,,,,,,,,,,,,,,,,,,,,,,,,,,,,,,,,,,,,,,,,,,,,,,,,,,,,,,,,,,,,,,,,,,,,,,,,,,,,,,,,,,,,,,,,,,,,,,,,,,,,,,,,,,,,,,,,,,,
,,,,,,5c6219e169375500012329d9,62bbfb4ce80eff42814d9127,2022-06-29_09h12.23.999,Colour_Asymmetry_Pilot,2022.1.3,Win32,59.99880002,62bbe60bf3d75ef465d3e404,0,114,114,82,1,twoone,,,,,,,,,,,,,,,,,,,,,,,,,,,,,,,,,,,,,,,,,,,,,,,,,,,,,,,,,,,,,,,,,,,,,,,,,,,,,,,,,,,,,,,,,,,,,,,,,,,,,,,,,,,,,,,,,,,,,,,,,,,,,,,,,,,,,,,,,,,,,,,,,,,,,,,,
,,,,,,5c6219e169375500012329d9,62bbfb4ce80eff42814d9127,2022-06-29_09h12.23.999,Colour_Asymmetry_Pilot,2022.1.3,Win32,59.99880002,62bbe60bf3d75ef465d3e404,0,115,115,30,1,fourtwo,,,,,,,,,,,,,,,,,,,,,,,,,,,,,,,,,,,,,,,,,,,,,,,,,,,,,,,,,,,,,,,,,,,,,,,,,,,,,,,,,,,,,,,,,,,,,,,,,,,,,,,,,,,,,,,,,,,,,,,,,,,,,,,,,,,,,,,,,,,,,,,,,,,,,,,,
,,,,,,5c6219e169375500012329d9,62bbfb4ce80eff42814d9127,2022-06-29_09h12.23.999,Colour_Asymmetry_Pilot,2022.1.3,Win32,59.99880002,62bbe60bf3d75ef465d3e404,0,116,116,99,1,twofour,,,,,,,,,,,,,,,,,,,,,,,,,,,,,,,,,,,,,,,,,,,,,,,,,,,,,,,,,,,,,,,,,,,,,,,,,,,,,,,,,,,,,,,,,,,,,,,,,,,,,,,,,,,,,,,,,,,,,,,,,,,,,,,,,,,,,,,,,,,,,,,,,,,,,,,,
,,,,,,5c6219e169375500012329d9,62bbfb4ce80eff42814d9127,2022-06-29_09h12.23.999,Colour_Asymmetry_Pilot,2022.1.3,Win32,59.99880002,62bbe60bf3d75ef465d3e404,0,117,117,8,1,onetwo,,,,,,,,,,,,,,,,,,,,,,,,,,,,,,,,,,,,,,,,,,,,,,,,,,,,,,,,,,,,,,,,,,,,,,,,,,,,,,,,,,,,,,,,,,,,,,,,,,,,,,,,,,,,,,,,,,,,,,,,,,,,,,,,,,,,,,,,,,,,,,,,,,,,,,,,
,,,,,,5c6219e169375500012329d9,62bbfb4ce80eff42814d9127,2022-06-29_09h12.23.999,Colour_Asymmetry_Pilot,2022.1.3,Win32,59.99880002,62bbe60bf3d75ef465d3e404,0,118,118,112,1,onetwo,,,,,,,,,,,,,,,,,,,,,,,,,,,,,,,,,,,,,,,,,,,,,,,,,,,,,,,,,,,,,,,,,,,,,,,,,,,,,,,,,,,,,,,,,,,,,,,,,,,,,,,,,,,,,,,,,,,,,,,,,,,,,,,,,,,,,,,,,,,,,,,,,,,,,,,,
,,,,,,5c6219e169375500012329d9,62bbfb4ce80eff42814d9127,2022-06-29_09h12.23.999,Colour_Asymmetry_Pilot,2022.1.3,Win32,59.99880002,62bbe60bf3d75ef465d3e404,0,119,119,49,1,onethree,,,,,,,,,,,,,,,,,,,,,,,,,,,,,,,,,,,,,,,,,,,,,,,,,,,,,,,,,,,,,,,,,,,,,,,,,,,,,,,,,,,,,,,,,,,,,,,,,,,,,,,,,,,,,,,,,,,,,,,,,,,,,,,,,,,,,,,,,,,,,,,,,,,,,,,,
,,,,,,5c6219e169375500012329d9,62bbfb4ce80eff42814d9127,2022-06-29_09h12.23.999,Colour_Asymmetry_Pilot,2022.1.3,Win32,59.99880002,62bbe60bf3d75ef465d3e404,0,120,120,5,1,threefour,,,,,,,,,,,,,,,,,,,,,,,,,,,,,,,,,,,,,,,,,,,,,,,,,,,,,,,,,,,,,,,,,,,,,,,,,,,,,,,,,,,,,,,,,,,,,,,,,,,,,,,,,,,,,,,,,,,,,,,,,,,,,,,,,,,,,,,,,,,,,,,,,,,,,,,,
,,,,,,5c6219e169375500012329d9,62bbfb4ce80eff42814d9127,2022-06-29_09h12.23.999,Colour_Asymmetry_Pilot,2022.1.3,Win32,59.99880002,62bbe60bf3d75ef465d3e404,0,121,121,42,1,twoone,,,,,,,,,,,,,,,,,,,,,,,,,,,,,,,,,,,,,,,,,,,,,,,,,,,,,,,,,,,,,,,,,,,,,,,,,,,,,,,,,,,,,,,,,,,,,,,,,,,,,,,,,,,,,,,,,,,,,,,,,,,,,,,,,,,,,,,,,,,,,,,,,,,,,,,,
,,,,,,5c6219e169375500012329d9,62bbfb4ce80eff42814d9127,2022-06-29_09h12.23.999,Colour_Asymmetry_Pilot,2022.1.3,Win32,59.99880002,62bbe60bf3d75ef465d3e404,0,122,122,71,1,fourthree,,,,,,,,,,,,,,,,,,,,,,,,,,,,,,,,,,,,,,,,,,,,,,,,,,,,,,,,,,,,,,,,,,,,,,,,,,,,,,,,,,,,,,,,,,,,,,,,,,,,,,,,,,,,,,,,,,,,,,,,,,,,,,,,,,,,,,,,,,,,,,,,,,,,,,,,
,,,,,,5c6219e169375500012329d9,62bbfb4ce80eff42814d9127,2022-06-29_09h12.23.999,Colour_Asymmetry_Pilot,2022.1.3,Win32,59.99880002,62bbe60bf3d75ef465d3e404,0,123,123,108,1,threeone,,,,,,,,,,,,,,,,,,,,,,,,,,,,,,,,,,,,,,,,,,,,,,,,,,,,,,,,,,,,,,,,,,,,,,,,,,,,,,,,,,,,,,,,,,,,,,,,,,,,,,,,,,,,,,,,,,,,,,,,,,,,,,,,,,,,,,,,,,,,,,,,,,,,,,,,
,,,,,,5c6219e169375500012329d9,62bbfb4ce80eff42814d9127,2022-06-29_09h12.23.999,Colour_Asymmetry_Pilot,2022.1.3,Win32,59.99880002,62bbe60bf3d75ef465d3e404,0,124,124,125,1,threefour,,,,,,,,,,,,,,,,,,,,,,,,,,,,,,,,,,,,,,,,,,,,,,,,,,,,,,,,,,,,,,,,,,,,,,,,,,,,,,,,,,,,,,,,,,,,,,,,,,,,,,,,,,,,,,,,,,,,,,,,,,,,,,,,,,,,,,,,,,,,,,,,,,,,,,,,
,,,,,,5c6219e169375500012329d9,62bbfb4ce80eff42814d9127,2022-06-29_09h12.23.999,Colour_Asymmetry_Pilot,2022.1.3,Win32,59.99880002,62bbe60bf3d75ef465d3e404,0,125,125,100,1,threeone,,,,,,,,,,,,,,,,,,,,,,,,,,,,,,,,,,,,,,,,,,,,,,,,,,,,,,,,,,,,,,,,,,,,,,,,,,,,,,,,,,,,,,,,,,,,,,,,,,,,,,,,,,,,,,,,,,,,,,,,,,,,,,,,,,,,,,,,,,,,,,,,,,,,,,,,
,,,,,,5c6219e169375500012329d9,62bbfb4ce80eff42814d9127,2022-06-29_09h12.23.999,Colour_Asymmetry_Pilot,2022.1.3,Win32,59.99880002,62bbe60bf3d75ef465d3e404,0,126,126,47,1,fourthree,,,,,,,,,,,,,,,,,,,,,,,,,,,,,,,,,,,,,,,,,,,,,,,,,,,,,,,,,,,,,,,,,,,,,,,,,,,,,,,,,,,,,,,,,,,,,,,,,,,,,,,,,,,,,,,,,,,,,,,,,,,,,,,,,,,,,,,,,,,,,,,,,,,,,,,,
,,,,,,5c6219e169375500012329d9,62bbfb4ce80eff42814d9127,2022-06-29_09h12.23.999,Colour_Asymmetry_Pilot,2022.1.3,Win32,59.99880002,62bbe60bf3d75ef465d3e404,0,127,127,51,1,twofour,,,,,,,,,,,,,,,,,,,,,,,,,,,,,,,,,,,,,,,,,,,,,,,,,,,,,,,,,,,,,,,,,,,,,,,,,,,,,,,,,,,,,,,,,,,,,,,,,,,,,,,,,,,,,,,,,,,,,,,,,,,,,,,,,,,,,,,,,,,,,,,,,,,,,,,,
,,,,,,5c6219e169375500012329d9,62bbfb4ce80eff42814d9127,2022-06-29_09h12.23.999,Colour_Asymmetry_Pilot,2022.1.3,Win32,59.99880002,62bbe60bf3d75ef465d3e404,0,128,128,18,1,twoone,,,,,,,,,,,,,,,,,,,,,,,,,,,,,,,,,,,,,,,,,,,,,,,,,,,,,,,,,,,,,,,,,,,,,,,,,,,,,,,,,,,,,,,,,,,,,,,,,,,,,,,,,,,,,,,,,,,,,,,,,,,,,,,,,,,,,,,,,,,,,,,,,,,,,,,,
,,,,,,5c6219e169375500012329d9,62bbfb4ce80eff42814d9127,2022-06-29_09h12.23.999,Colour_Asymmetry_Pilot,2022.1.3,Win32,59.99880002,62bbe60bf3d75ef465d3e404,0,129,129,60,1,threeone,,,,,,,,,,,,,,,,,,,,,,,,,,,,,,,,,,,,,,,,,,,,,,,,,,,,,,,,,,,,,,,,,,,,,,,,,,,,,,,,,,,,,,,,,,,,,,,,,,,,,,,,,,,,,,,,,,,,,,,,,,,,,,,,,,,,,,,,,,,,,,,,,,,,,,,,
,,,,,,5c6219e169375500012329d9,62bbfb4ce80eff42814d9127,2022-06-29_09h12.23.999,Colour_Asymmetry_Pilot,2022.1.3,Win32,59.99880002,62bbe60bf3d75ef465d3e404,0,130,130,70,1,fourtwo,,,,,,,,,,,,,,,,,,,,,,,,,,,,,,,,,,,,,,,,,,,,,,,,,,,,,,,,,,,,,,,,,,,,,,,,,,,,,,,,,,,,,,,,,,,,,,,,,,,,,,,,,,,,,,,,,,,,,,,,,,,,,,,,,,,,,,,,,,,,,,,,,,,,,,,,
,,,,,,5c6219e169375500012329d9,62bbfb4ce80eff42814d9127,2022-06-29_09h12.23.999,Colour_Asymmetry_Pilot,2022.1.3,Win32,59.99880002,62bbe60bf3d75ef465d3e404,0,131,131,126,1,fourtwo,,,,,,,,,,,,,,,,,,,,,,,,,,,,,,,,,,,,,,,,,,,,,,,,,,,,,,,,,,,,,,,,,,,,,,,,,,,,,,,,,,,,,,,,,,,,,,,,,,,,,,,,,,,,,,,,,,,,,,,,,,,,,,,,,,,,,,,,,,,,,,,,,,,,,,,,
,,,,,,5c6219e169375500012329d9,62bbfb4ce80eff42814d9127,2022-06-29_09h12.23.999,Colour_Asymmetry_Pilot,2022.1.3,Win32,59.99880002,62bbe60bf3d75ef465d3e404,0,132,132,28,1,threeone,,,,,,,,,,,,,,,,,,,,,,,,,,,,,,,,,,,,,,,,,,,,,,,,,,,,,,,,,,,,,,,,,,,,,,,,,,,,,,,,,,,,,,,,,,,,,,,,,,,,,,,,,,,,,,,,,,,,,,,,,,,,,,,,,,,,,,,,,,,,,,,,,,,,,,,,
,,,,,,5c6219e169375500012329d9,62bbfb4ce80eff42814d9127,2022-06-29_09h12.23.999,Colour_Asymmetry_Pilot,2022.1.3,Win32,59.99880002,62bbe60bf3d75ef465d3e404,0,133,133,24,1,onetwo,,,,,,,,,,,,,,,,,,,,,,,,,,,,,,,,,,,,,,,,,,,,,,,,,,,,,,,,,,,,,,,,,,,,,,,,,,,,,,,,,,,,,,,,,,,,,,,,,,,,,,,,,,,,,,,,,,,,,,,,,,,,,,,,,,,,,,,,,,,,,,,,,,,,,,,,
,,,,,,5c6219e169375500012329d9,62bbfb4ce80eff42814d9127,2022-06-29_09h12.23.999,Colour_Asymmetry_Pilot,2022.1.3,Win32,59.99880002,62bbe60bf3d75ef465d3e404,0,134,134,68,1,threeone,,,,,,,,,,,,,,,,,,,,,,,,,,,,,,,,,,,,,,,,,,,,,,,,,,,,,,,,,,,,,,,,,,,,,,,,,,,,,,,,,,,,,,,,,,,,,,,,,,,,,,,,,,,,,,,,,,,,,,,,,,,,,,,,,,,,,,,,,,,,,,,,,,,,,,,,
,,,,,,5c6219e169375500012329d9,62bbfb4ce80eff42814d9127,2022-06-29_09h12.23.999,Colour_Asymmetry_Pilot,2022.1.3,Win32,59.99880002,62bbe60bf3d75ef465d3e404,0,135,135,31,1,fourthree,,,,,,,,,,,,,,,,,,,,,,,,,,,,,,,,,,,,,,,,,,,,,,,,,,,,,,,,,,,,,,,,,,,,,,,,,,,,,,,,,,,,,,,,,,,,,,,,,,,,,,,,,,,,,,,,,,,,,,,,,,,,,,,,,,,,,,,,,,,,,,,,,,,,,,,,
,,,,,,5c6219e169375500012329d9,62bbfb4ce80eff42814d9127,2022-06-29_09h12.23.999,Colour_Asymmetry_Pilot,2022.1.3,Win32,59.99880002,62bbe60bf3d75ef465d3e404,0,136,136,104,1,onetwo,,,,,,,,,,,,,,,,,,,,,,,,,,,,,,,,,,,,,,,,,,,,,,,,,,,,,,,,,,,,,,,,,,,,,,,,,,,,,,,,,,,,,,,,,,,,,,,,,,,,,,,,,,,,,,,,,,,,,,,,,,,,,,,,,,,,,,,,,,,,,,,,,,,,,,,,
,,,,,,5c6219e169375500012329d9,62bbfb4ce80eff42814d9127,2022-06-29_09h12.23.999,Colour_Asymmetry_Pilot,2022.1.3,Win32,59.99880002,62bbe60bf3d75ef465d3e404,0,137,137,137,1,onethree,,,,,,,,,,,,,,,,,,,,,,,,,,,,,,,,,,,,,,,,,,,,,,,,,,,,,,,,,,,,,,,,,,,,,,,,,,,,,,,,,,,,,,,,,,,,,,,,,,,,,,,,,,,,,,,,,,,,,,,,,,,,,,,,,,,,,,,,,,,,,,,,,,,,,,,,
,,,,,,5c6219e169375500012329d9,62bbfb4ce80eff42814d9127,2022-06-29_09h12.23.999,Colour_Asymmetry_Pilot,2022.1.3,Win32,59.99880002,62bbe60bf3d75ef465d3e404,0,138,138,61,1,threefour,,,,,,,,,,,,,,,,,,,,,,,,,,,,,,,,,,,,,,,,,,,,,,,,,,,,,,,,,,,,,,,,,,,,,,,,,,,,,,,,,,,,,,,,,,,,,,,,,,,,,,,,,,,,,,,,,,,,,,,,,,,,,,,,,,,,,,,,,,,,,,,,,,,,,,,,
,,,,,,5c6219e169375500012329d9,62bbfb4ce80eff42814d9127,2022-06-29_09h12.23.999,Colour_Asymmetry_Pilot,2022.1.3,Win32,59.99880002,62bbe60bf3d75ef465d3e404,0,139,139,41,1,onethree,,,,,,,,,,,,,,,,,,,,,,,,,,,,,,,,,,,,,,,,,,,,,,,,,,,,,,,,,,,,,,,,,,,,,,,,,,,,,,,,,,,,,,,,,,,,,,,,,,,,,,,,,,,,,,,,,,,,,,,,,,,,,,,,,,,,,,,,,,,,,,,,,,,,,,,,
,,,,,,5c6219e169375500012329d9,62bbfb4ce80eff42814d9127,2022-06-29_09h12.23.999,Colour_Asymmetry_Pilot,2022.1.3,Win32,59.99880002,62bbe60bf3d75ef465d3e404,0,140,140,67,1,twofour,,,,,,,,,,,,,,,,,,,,,,,,,,,,,,,,,,,,,,,,,,,,,,,,,,,,,,,,,,,,,,,,,,,,,,,,,,,,,,,,,,,,,,,,,,,,,,,,,,,,,,,,,,,,,,,,,,,,,,,,,,,,,,,,,,,,,,,,,,,,,,,,,,,,,,,,
,,,,,,5c6219e169375500012329d9,62bbfb4ce80eff42814d9127,2022-06-29_09h12.23.999,Colour_Asymmetry_Pilot,2022.1.3,Win32,59.99880002,62bbe60bf3d75ef465d3e404,0,141,141,161,1,onethree,,,,,,,,,,,,,,,,,,,,,,,,,,,,,,,,,,,,,,,,,,,,,,,,,,,,,,,,,,,,,,,,,,,,,,,,,,,,,,,,,,,,,,,,,,,,,,,,,,,,,,,,,,,,,,,,,,,,,,,,,,,,,,,,,,,,,,,,,,,,,,,,,,,,,,,,
,,,,,,5c6219e169375500012329d9,62bbfb4ce80eff42814d9127,2022-06-29_09h12.23.999,Colour_Asymmetry_Pilot,2022.1.3,Win32,59.99880002,62bbe60bf3d75ef465d3e404,0,142,142,6,1,fourtwo,,,,,,,,,,,,,,,,,,,,,,,,,,,,,,,,,,,,,,,,,,,,,,,,,,,,,,,,,,,,,,,,,,,,,,,,,,,,,,,,,,,,,,,,,,,,,,,,,,,,,,,,,,,,,,,,,,,,,,,,,,,,,,,,,,,,,,,,,,,,,,,,,,,,,,,,
,,,,,,5c6219e169375500012329d9,62bbfb4ce80eff42814d9127,2022-06-29_09h12.23.999,Colour_Asymmetry_Pilot,2022.1.3,Win32,59.99880002,62bbe60bf3d75ef465d3e404,0,143,143,142,1,fourtwo,,,,,,,,,,,,,,,,,,,,,,,,,,,,,,,,,,,,,,,,,,,,,,,,,,,,,,,,,,,,,,,,,,,,,,,,,,,,,,,,,,,,,,,,,,,,,,,,,,,,,,,,,,,,,,,,,,,,,,,,,,,,,,,,,,,,,,,,,,,,,,,,,,,,,,,,
,,,,,,5c6219e169375500012329d9,62bbfb4ce80eff42814d9127,2022-06-29_09h12.23.999,Colour_Asymmetry_Pilot,2022.1.3,Win32,59.99880002,62bbe60bf3d75ef465d3e404,0,144,144,123,1,twofour,,,,,,,,,,,,,,,,,,,,,,,,,,,,,,,,,,,,,,,,,,,,,,,,,,,,,,,,,,,,,,,,,,,,,,,,,,,,,,,,,,,,,,,,,,,,,,,,,,,,,,,,,,,,,,,,,,,,,,,,,,,,,,,,,,,,,,,,,,,,,,,,,,,,,,,,
,,,,,,5c6219e169375500012329d9,62bbfb4ce80eff42814d9127,2022-06-29_09h12.23.999,Colour_Asymmetry_Pilot,2022.1.3,Win32,59.99880002,62bbe60bf3d75ef465d3e404,0,145,145,83,1,twofour,,,,,,,,,,,,,,,,,,,,,,,,,,,,,,,,,,,,,,,,,,,,,,,,,,,,,,,,,,,,,,,,,,,,,,,,,,,,,,,,,,,,,,,,,,,,,,,,,,,,,,,,,,,,,,,,,,,,,,,,,,,,,,,,,,,,,,,,,,,,,,,,,,,,,,,,
,,,,,,5c6219e169375500012329d9,62bbfb4ce80eff42814d9127,2022-06-29_09h12.23.999,Colour_Asymmetry_Pilot,2022.1.3,Win32,59.99880002,62bbe60bf3d75ef465d3e404,0,146,146,122,1,twoone,,,,,,,,,,,,,,,,,,,,,,,,,,,,,,,,,,,,,,,,,,,,,,,,,,,,,,,,,,,,,,,,,,,,,,,,,,,,,,,,,,,,,,,,,,,,,,,,,,,,,,,,,,,,,,,,,,,,,,,,,,,,,,,,,,,,,,,,,,,,,,,,,,,,,,,,
,,,,,,5c6219e169375500012329d9,62bbfb4ce80eff42814d9127,2022-06-29_09h12.23.999,Colour_Asymmetry_Pilot,2022.1.3,Win32,59.99880002,62bbe60bf3d75ef465d3e404,0,147,147,23,1,fourthree,,,,,,,,,,,,,,,,,,,,,,,,,,,,,,,,,,,,,,,,,,,,,,,,,,,,,,,,,,,,,,,,,,,,,,,,,,,,,,,,,,,,,,,,,,,,,,,,,,,,,,,,,,,,,,,,,,,,,,,,,,,,,,,,,,,,,,,,,,,,,,,,,,,,,,,,
,,,,,,5c6219e169375500012329d9,62bbfb4ce80eff42814d9127,2022-06-29_09h12.23.999,Colour_Asymmetry_Pilot,2022.1.3,Win32,59.99880002,62bbe60bf3d75ef465d3e404,0,148,148,50,1,twoone,,,,,,,,,,,,,,,,,,,,,,,,,,,,,,,,,,,,,,,,,,,,,,,,,,,,,,,,,,,,,,,,,,,,,,,,,,,,,,,,,,,,,,,,,,,,,,,,,,,,,,,,,,,,,,,,,,,,,,,,,,,,,,,,,,,,,,,,,,,,,,,,,,,,,,,,
,,,,,,5c6219e169375500012329d9,62bbfb4ce80eff42814d9127,2022-06-29_09h12.23.999,Colour_Asymmetry_Pilot,2022.1.3,Win32,59.99880002,62bbe60bf3d75ef465d3e404,0,149,149,64,1,onetwo,,,,,,,,,,,,,,,,,,,,,,,,,,,,,,,,,,,,,,,,,,,,,,,,,,,,,,,,,,,,,,,,,,,,,,,,,,,,,,,,,,,,,,,,,,,,,,,,,,,,,,,,,,,,,,,,,,,,,,,,,,,,,,,,,,,,,,,,,,,,,,,,,,,,,,,,
,,,,,,5c6219e169375500012329d9,62bbfb4ce80eff42814d9127,2022-06-29_09h12.23.999,Colour_Asymmetry_Pilot,2022.1.3,Win32,59.99880002,62bbe60bf3d75ef465d3e404,0,150,150,120,1,onetwo,,,,,,,,,,,,,,,,,,,,,,,,,,,,,,,,,,,,,,,,,,,,,,,,,,,,,,,,,,,,,,,,,,,,,,,,,,,,,,,,,,,,,,,,,,,,,,,,,,,,,,,,,,,,,,,,,,,,,,,,,,,,,,,,,,,,,,,,,,,,,,,,,,,,,,,,
,,,,,,5c6219e169375500012329d9,62bbfb4ce80eff42814d9127,2022-06-29_09h12.23.999,Colour_Asymmetry_Pilot,2022.1.3,Win32,59.99880002,62bbe60bf3d75ef465d3e404,0,151,151,86,1,fourtwo,,,,,,,,,,,,,,,,,,,,,,,,,,,,,,,,,,,,,,,,,,,,,,,,,,,,,,,,,,,,,,,,,,,,,,,,,,,,,,,,,,,,,,,,,,,,,,,,,,,,,,,,,,,,,,,,,,,,,,,,,,,,,,,,,,,,,,,,,,,,,,,,,,,,,,,,
,,,,,,5c6219e169375500012329d9,62bbfb4ce80eff42814d9127,2022-06-29_09h12.23.999,Colour_Asymmetry_Pilot,2022.1.3,Win32,59.99880002,62bbe60bf3d75ef465d3e404,0,152,152,55,1,fourthree,,,,,,,,,,,,,,,,,,,,,,,,,,,,,,,,,,,,,,,,,,,,,,,,,,,,,,,,,,,,,,,,,,,,,,,,,,,,,,,,,,,,,,,,,,,,,,,,,,,,,,,,,,,,,,,,,,,,,,,,,,,,,,,,,,,,,,,,,,,,,,,,,,,,,,,,
,,,,,,5c6219e169375500012329d9,62bbfb4ce80eff42814d9127,2022-06-29_09h12.23.999,Colour_Asymmetry_Pilot,2022.1.3,Win32,59.99880002,62bbe60bf3d75ef465d3e404,0,153,153,101,1,threefour,,,,,,,,,,,,,,,,,,,,,,,,,,,,,,,,,,,,,,,,,,,,,,,,,,,,,,,,,,,,,,,,,,,,,,,,,,,,,,,,,,,,,,,,,,,,,,,,,,,,,,,,,,,,,,,,,,,,,,,,,,,,,,,,,,,,,,,,,,,,,,,,,,,,,,,,
,,,,,,5c6219e169375500012329d9,62bbfb4ce80eff42814d9127,2022-06-29_09h12.23.999,Colour_Asymmetry_Pilot,2022.1.3,Win32,59.99880002,62bbe60bf3d75ef465d3e404,0,154,154,117,1,threefour,,,,,,,,,,,,,,,,,,,,,,,,,,,,,,,,,,,,,,,,,,,,,,,,,,,,,,,,,,,,,,,,,,,,,,,,,,,,,,,,,,,,,,,,,,,,,,,,,,,,,,,,,,,,,,,,,,,,,,,,,,,,,,,,,,,,,,,,,,,,,,,,,,,,,,,,
,,,,,,5c6219e169375500012329d9,62bbfb4ce80eff42814d9127,2022-06-29_09h12.23.999,Colour_Asymmetry_Pilot,2022.1.3,Win32,59.99880002,62bbe60bf3d75ef465d3e404,0,155,155,124,1,threeone,,,,,,,,,,,,,,,,,,,,,,,,,,,,,,,,,,,,,,,,,,,,,,,,,,,,,,,,,,,,,,,,,,,,,,,,,,,,,,,,,,,,,,,,,,,,,,,,,,,,,,,,,,,,,,,,,,,,,,,,,,,,,,,,,,,,,,,,,,,,,,,,,,,,,,,,
,,,,,,5c6219e169375500012329d9,62bbfb4ce80eff42814d9127,2022-06-29_09h12.23.999,Colour_Asymmetry_Pilot,2022.1.3,Win32,59.99880002,62bbe60bf3d75ef465d3e404,0,156,156,96,1,onetwo,,,,,,,,,,,,,,,,,,,,,,,,,,,,,,,,,,,,,,,,,,,,,,,,,,,,,,,,,,,,,,,,,,,,,,,,,,,,,,,,,,,,,,,,,,,,,,,,,,,,,,,,,,,,,,,,,,,,,,,,,,,,,,,,,,,,,,,,,,,,,,,,,,,,,,,,
,,,,,,5c6219e169375500012329d9,62bbfb4ce80eff42814d9127,2022-06-29_09h12.23.999,Colour_Asymmetry_Pilot,2022.1.3,Win32,59.99880002,62bbe60bf3d75ef465d3e404,0,157,157,136,1,onetwo,,,,,,,,,,,,,,,,,,,,,,,,,,,,,,,,,,,,,,,,,,,,,,,,,,,,,,,,,,,,,,,,,,,,,,,,,,,,,,,,,,,,,,,,,,,,,,,,,,,,,,,,,,,,,,,,,,,,,,,,,,,,,,,,,,,,,,,,,,,,,,,,,,,,,,,,
,,,,,,5c6219e169375500012329d9,62bbfb4ce80eff42814d9127,2022-06-29_09h12.23.999,Colour_Asymmetry_Pilot,2022.1.3,Win32,59.99880002,62bbe60bf3d75ef465d3e404,0,158,158,143,1,fourthree,,,,,,,,,,,,,,,,,,,,,,,,,,,,,,,,,,,,,,,,,,,,,,,,,,,,,,,,,,,,,,,,,,,,,,,,,,,,,,,,,,,,,,,,,,,,,,,,,,,,,,,,,,,,,,,,,,,,,,,,,,,,,,,,,,,,,,,,,,,,,,,,,,,,,,,,
,,,,,,5c6219e169375500012329d9,62bbfb4ce80eff42814d9127,2022-06-29_09h12.23.999,Colour_Asymmetry_Pilot,2022.1.3,Win32,59.99880002,62bbe60bf3d75ef465d3e404,0,159,159,46,1,fourtwo,,,,,,,,,,,,,,,,,,,,,,,,,,,,,,,,,,,,,,,,,,,,,,,,,,,,,,,,,,,,,,,,,,,,,,,,,,,,,,,,,,,,,,,,,,,,,,,,,,,,,,,,,,,,,,,,,,,,,,,,,,,,,,,,,,,,,,,,,,,,,,,,,,,,,,,,
,,,,,,5c6219e169375500012329d9,62bbfb4ce80eff42814d9127,2022-06-29_09h12.23.999,Colour_Asymmetry_Pilot,2022.1.3,Win32,59.99880002,62bbe60bf3d75ef465d3e404,0,160,160,36,1,threeone,,,,,,,,,,,,,,,,,,,,,,,,,,,,,,,,,,,,,,,,,,,,,,,,,,,,,,,,,,,,,,,,,,,,,,,,,,,,,,,,,,,,,,,,,,,,,,,,,,,,,,,,,,,,,,,,,,,,,,,,,,,,,,,,,,,,,,,,,,,,,,,,,,,,,,,,
,,,,,,5c6219e169375500012329d9,62bbfb4ce80eff42814d9127,2022-06-29_09h12.23.999,Colour_Asymmetry_Pilot,2022.1.3,Win32,59.99880002,62bbe60bf3d75ef465d3e404,0,161,161,20,1,threeone,,,,,,,,,,,,,,,,,,,,,,,,,,,,,,,,,,,,,,,,,,,,,,,,,,,,,,,,,,,,,,,,,,,,,,,,,,,,,,,,,,,,,,,,,,,,,,,,,,,,,,,,,,,,,,,,,,,,,,,,,,,,,,,,,,,,,,,,,,,,,,,,,,,,,,,,
,,,,,,5c6219e169375500012329d9,62bbfb4ce80eff42814d9127,2022-06-29_09h12.23.999,Colour_Asymmetry_Pilot,2022.1.3,Win32,59.99880002,62bbe60bf3d75ef465d3e404,,,,,,,space,6.1883,space,10.9761,space,31.3668,space,15.4833,space,8.0806,space,5.356,"[-0.0040000000000000036,0.02739999999999987,-0.08239999999999992]",fourtwo,"[-0.9766,-0.34920000000000007,0.2156]",-4,14.8508,-53,128,1,0,0,response7disk_5,-1,2,1,0,0,rectangle_8,-1,2,1,0,0,1,-1,2,1,0,0,0,0,0,0,1,,,,,,,,,,,,,,,,,,,,,,,,,,,,,,,,,,,,,,,,,,,,,,,,,,,,,,,,,,,,,,,,,,,,,,,,,,,,,,,,,,,,,,,,,,,,,,,,,,,,,,,,,,,
,,,,,,5c6219e169375500012329d9,62bbfb4ce80eff42814d9127,2022-06-29_09h12.23.999,Colour_Asymmetry_Pilot,2022.1.3,Win32,59.99880002,62bbe60bf3d75ef465d3e404,,,,,,,,,,,,,,,,,,,"[-0.09019999999999995,0.44300000000000006,0.5371999999999999]",onethree,"[0.9686000000000001,0.5763999999999998,0.11359999999999992]",-4,5.6666,-56,109,1,0,0,response7disk_5,-6,-4,1,0,0,rectangle_8,42,-88,1,0,0,1,7,-5,1,0,0,1,0,1,0,1,response3disk_7,4,rectangle_4,,,,,,,,,,,,,,,,,,,,,,,,,,,,,,,,,,,,,,,,,,,,,,,,,,,,,,,,,,,,,,,,,,,,,,,,,,,,,,,,,,,,,,,,,,,,,,,,,,,,,,,,
,,,,,,5c6219e169375500012329d9,62bbfb4ce80eff42814d9127,2022-06-29_09h12.23.999,Colour_Asymmetry_Pilot,2022.1.3,Win32,59.99880002,62bbe60bf3d75ef465d3e404,,,,,,,,,,,,,,,,,,,"[-0.20799999999999996,-0.655,-0.01980000000000004]",twoone,"[-0.24719999999999998,-0.0354000000000001,0.3175999999999999]",-3,1.9501,-84,53,1,0,0,response7disk_5,9,-3,1,0,0,rectangle_8,9,-3,1,0,0,1,9,-3,1,0,0,2,0,2,0,1,,,,,,,,,,,,,,,,,,,,,,,,,,,,,,,,,,,,,,,,,,,,,,,,,,,,,,,,,,,,,,,,,,,,,,,,,,,,,,,,,,,,,,,,,,,,,,,,,,,,,,,,,,,
,,,,,,5c6219e169375500012329d9,62bbfb4ce80eff42814d9127,2022-06-29_09h12.23.999,Colour_Asymmetry_Pilot,2022.1.3,Win32,59.99880002,62bbe60bf3d75ef465d3e404,,,,,,,,,,,,,,,,,,,"[0.04299999999999993,0.16060000000000008,-0.6628000000000001]",threefour,"[0.04299999999999993,0.16060000000000008,-0.6628000000000001]",4,2.35,57,113,1,0,0,response1disk_5,0,0,1,0,0,rectangle_8,39,-75,1,0,0,1,2,-3,1,0,0,3,0,3,0,1,response3disk_7,4,rectangle_4,,,,,,,,,,,,,,,,,,,,,,,,,,,,,,,,,,,,,,,,,,,,,,,,,,,,,,,,,,,,,,,,,,,,,,,,,,,,,,,,,,,,,,,,,,,,,,,,,,,,,,,,
,,,,,,5c6219e169375500012329d9,62bbfb4ce80eff42814d9127,2022-06-29_09h12.23.999,Colour_Asymmetry_Pilot,2022.1.3,Win32,59.99880002,62bbe60bf3d75ef465d3e404,,,,,,,,,,,,,,,,,,,"[0.30180000000000007,-0.7884,-0.9844]",fourtwo,"[-0.9138,-0.5296000000000001,-0.5529999999999999]",-4,1.4167,-64,104,1,0,0,response7disk_5,1,3,1,0,0,rectangle_8,1,3,1,0,0,1,1,3,1,0,0,4,0,4,0,1,,,,,,,,,,,,,,,,,,,,,,,,,,,,,,,,,,,,,,,,,,,,,,,,,,,,,,,,,,,,,,,,,,,,,,,,,,,,,,,,,,,,,,,,,,,,,,,,,,,,,,,,,,,
,,,,,,5c6219e169375500012329d9,62bbfb4ce80eff42814d9127,2022-06-29_09h12.23.999,Colour_Asymmetry_Pilot,2022.1.3,Win32,59.99880002,62bbe60bf3d75ef465d3e404,,,,,,,,,,,,,,,,,,,"[0.7176,-0.906,-0.6864]",fourthree,"[-0.9296,-0.12959999999999994,-0.043199999999999905]",-4,0.85,-53,113,1,0,0,response7disk_5,10,1,1,0,0,rectangle_8,10,1,1,0,0,1,10,1,1,0,0,5,0,5,0,1,,,,,,,,,,,,,,,,,,,,,,,,,,,,,,,,,,,,,,,,,,,,,,,,,,,,,,,,,,,,,,,,,,,,,,,,,,,,,,,,,,,,,,,,,,,,,,,,,,,,,,,,,,,
,,,,,,5c6219e169375500012329d9,62bbfb4ce80eff42814d9127,2022-06-29_09h12.23.999,Colour_Asymmetry_Pilot,2022.1.3,Win32,59.99880002,62bbe60bf3d75ef465d3e404,,,,,,,,,,,,,,,,,,,"[-0.9216,-0.5529999999999999,-0.3962]",threefour,"[0.7646000000000002,0.07440000000000002,0.2704]",-4,1.7168,-77,122,1,0,0,response7disk_5,-4,10,1,0,0,rectangle_8,-4,10,1,0,0,1,-4,10,1,0,0,6,0,6,0,1,,,,,,,,,,,,,,,,,,,,,,,,,,,,,,,,,,,,,,,,,,,,,,,,,,,,,,,,,,,,,,,,,,,,,,,,,,,,,,,,,,,,,,,,,,,,,,,,,,,,,,,,,,,
,,,,,,5c6219e169375500012329d9,62bbfb4ce80eff42814d9127,2022-06-29_09h12.23.999,Colour_Asymmetry_Pilot,2022.1.3,Win32,59.99880002,62bbe60bf3d75ef465d3e404,,,,,,,,,,,,,,,,,,,,fourtwo,,-4,1.25,,,,,,,,,,,,,,,,,,,,,,,,,,,,,,,,space,5.7489,"[0.05879999999999996,0.2784,0.5841999999999998]","[0.18419999999999992,-0.4276,-0.404]",-55,114,1,0,0,response7disk,4,4,1,0,0,rectangle,4,4,1,0,0,,1,0.001,0,4,4,1,0,0,0,0,0,113,1,32,second,,,,,,,,,,,,,,,,,,,,,,,,,,,,,,,,,,,,,,,,,,,,,,,,,,,,,,,,,,,,,,,,,,,
,,,,,,5c6219e169375500012329d9,62bbfb4ce80eff42814d9127,2022-06-29_09h12.23.999,Colour_Asymmetry_Pilot,2022.1.3,Win32,59.99880002,62bbe60bf3d75ef465d3e404,,,,,,,,,,,,,,,,,,,,twoone,,-1,1.35,,,,,,,,,,,,,,,,,,,,,,,,,,,,,,,,,,"[-0.17659999999999998,-0.2864,-0.8354]","[0.3568,-0.20799999999999996,-0.9844]",-65,-110,1,0,0,response5disk,-3,0,1,0,0,rectangle,-3,0,1,0,0,,3,0.0007,0,-3,0,1,0,0,0,1,1,60,1,60,first,,,,,,,,,,,,,,,,,,,,,,,,,,,,,,,,,,,,,,,,,,,,,,,,,,,,,,,,,,,,,,,,,,,
,,,,,,5c6219e169375500012329d9,62bbfb4ce80eff42814d9127,2022-06-29_09h12.23.999,Colour_Asymmetry_Pilot,2022.1.3,Win32,59.99880002,62bbe60bf3d75ef465d3e404,,,,,,,,,,,,,,,,,,,,twoone,,-1,1.0501,,,,,,,,,,,,,,,,,,,,,,,,,,,,,,,,,,"[-0.48240000000000005,0.3175999999999999,0.2156]","[-0.4982,-0.2942,-0.0354000000000001]",-48,-118,1,0,0,response5disk,13,1,1,0,0,rectangle,13,1,1,0,0,,3,9.99999E-05,0,13,1,1,0,0,0,2,2,7,1,7,first,,,,,,,,,,,,,,,,,,,,,,,,,,,,,,,,,,,,,,,,,,,,,,,,,,,,,,,,,,,,,,,,,,,
,,,,,,5c6219e169375500012329d9,62bbfb4ce80eff42814d9127,2022-06-29_09h12.23.999,Colour_Asymmetry_Pilot,2022.1.3,Win32,59.99880002,62bbe60bf3d75ef465d3e404,,,,,,,,,,,,,,,,,,,,fourthree,,-4,1.8668,,,,,,,,,,,,,,,,,,,,,,,,,,,,,,,,,,"[0.09799999999999986,-0.24719999999999998,0.15280000000000005]","[0.30180000000000007,-0.7884,-0.9844]",-76,139,1,0,0,response7disk,-9,-8,1,0,0,rectangle,-9,-8,1,0,0,,3,9.99999E-05,0,-9,-8,1,0,0,0,3,3,56,1,56,first,,,,,,,,,,,,,,,,,,,,,,,,,,,,,,,,,,,,,,,,,,,,,,,,,,,,,,,,,,,,,,,,,,,
,,,,,,5c6219e169375500012329d9,62bbfb4ce80eff42814d9127,2022-06-29_09h12.23.999,Colour_Asymmetry_Pilot,2022.1.3,Win32,59.99880002,62bbe60bf3d75ef465d3e404,,,,,,,,,,,,,,,,,,,,twofour,,-4,0.5501,,,,,,,,,,,,,,,,,,,,,,,,,,,,,,,,,,"[0.7802,-0.23140000000000005,-0.20799999999999996]","[-0.48240000000000005,0.3175999999999999,0.2156]",-55,107,1,0,0,response7disk,-13,-6,1,0,0,rectangle,-13,-6,1,0,0,,3,0.0002,0,-13,-6,1,0,0,0,4,4,2,1,2,first,,,,,,,,,,,,,,,,,,,,,,,,,,,,,,,,,,,,,,,,,,,,,,,,,,,,,,,,,,,,,,,,,,,
,,,,,,5c6219e169375500012329d9,62bbfb4ce80eff42814d9127,2022-06-29_09h12.23.999,Colour_Asymmetry_Pilot,2022.1.3,Win32,59.99880002,62bbe60bf3d75ef465d3e404,,,,,,,,,,,,,,,,,,,,twofour,,1,2.0332,,,,,,,,,,,,,,,,,,,,,,,,,,,,,,,,,,"[-0.4668,-0.8746,-0.2942]","[-0.34920000000000007,-0.702,-0.5216]",77,-110,1,0,0,response3disk,-11,7,1,0,0,rectangle,-11,7,1,0,0,,1,0.0007,0,-11,7,1,0,0,0,5,5,68,1,68,first,,,,,,,,,,,,,,,,,,,,,,,,,,,,,,,,,,,,,,,,,,,,,,,,,,,,,,,,,,,,,,,,,,,
,,,,,,5c6219e169375500012329d9,62bbfb4ce80eff42814d9127,2022-06-29_09h12.23.999,Colour_Asymmetry_Pilot,2022.1.3,Win32,59.99880002,62bbe60bf3d75ef465d3e404,,,,,,,,,,,,,,,,,,,,fourthree,,-4,2.2999,,,,,,,,,,,,,,,,,,,,,,,,,,,,,,,,,,"[0.18419999999999992,-0.4276,-0.404]","[0.23920000000000008,0.2704,0.16060000000000008]",-55,135,1,0,0,response7disk,-7,-11,1,0,0,rectangle,-7,-11,1,0,0,,2,0.0006,0,-7,-11,1,0,0,0,6,6,92,1,11,second,,,,,,,,,,,,,,,,,,,,,,,,,,,,,,,,,,,,,,,,,,,,,,,,,,,,,,,,,,,,,,,,,,,
,,,,,,5c6219e169375500012329d9,62bbfb4ce80eff42814d9127,2022-06-29_09h12.23.999,Colour_Asymmetry_Pilot,2022.1.3,Win32,59.99880002,62bbe60bf3d75ef465d3e404,,,,,,,,,,,,,,,,,,,,twofour,,-4,0.3835,,,,,,,,,,,,,,,,,,,,,,,,,,,,,,,,,,"[0.04299999999999993,0.16060000000000008,-0.6628000000000001]","[-0.38039999999999996,-0.4276,-0.1452]",-62,107,1,0,0,response7disk,-6,5,1,0,0,rectangle,-6,5,1,0,0,,3,0.0007,0,-6,5,1,0,0,0,7,7,148,1,67,second,,,,,,,,,,,,,,,,,,,,,,,,,,,,,,,,,,,,,,,,,,,,,,,,,,,,,,,,,,,,,,,,,,,
,,,,,,5c6219e169375500012329d9,62bbfb4ce80eff42814d9127,2022-06-29_09h12.23.999,Colour_Asymmetry_Pilot,2022.1.3,Win32,59.99880002,62bbe60bf3d75ef465d3e404,,,,,,,,,,,,,,,,,,,,fourtwo,,-3,0.7338,,,,,,,,,,,,,,,,,,,,,,,,,,,,,,,,,,"[0.19199999999999995,0.18419999999999992,0.5136000000000001]","[0.11359999999999992,0.6312,0.5213999999999999]",-96,47,1,0,0,response7disk,2,-2,1,0,0,rectangle,2,-2,1,0,0,,2,0.0006,0,2,-2,1,0,0,0,8,8,48,1,48,first,,,,,,,,,,,,,,,,,,,,,,,,,,,,,,,,,,,,,,,,,,,,,,,,,,,,,,,,,,,,,,,,,,,
,,,,,,5c6219e169375500012329d9,62bbfb4ce80eff42814d9127,2022-06-29_09h12.23.999,Colour_Asymmetry_Pilot,2022.1.3,Win32,59.99880002,62bbe60bf3d75ef465d3e404,,,,,,,,,,,,,,,,,,,,fourthree,,-4,1.5332,,,,,,,,,,,,,,,,,,,,,,,,,,,,,,,,,,"[-0.09019999999999995,0.44300000000000006,0.5371999999999999]","[0.5449999999999999,-0.31000000000000005,-0.0354000000000001]",-52,96,1,0,0,response7disk,-5,7,1,0,0,rectangle,-5,7,1,0,0,,1,0.0006,0,-5,7,1,0,0,0,9,9,5,1,5,first,,,,,,,,,,,,,,,,,,,,,,,,,,,,,,,,,,,,,,,,,,,,,,,,,,,,,,,,,,,,,,,,,,,
,,,,,,5c6219e169375500012329d9,62bbfb4ce80eff42814d9127,2022-06-29_09h12.23.999,Colour_Asymmetry_Pilot,2022.1.3,Win32,59.99880002,62bbe60bf3d75ef465d3e404,,,,,,,,,,,,,,,,,,,,onethree,,-1,1.1499,,,,,,,,,,,,,,,,,,,,,,,,,,,,,,,,,,"[0.34099999999999997,0.12939999999999996,-0.9766]","[0.9686000000000001,0.5763999999999998,0.11359999999999992]",-34,-61,1,0,0,response5disk,1,-10,1,0,0,rectangle,1,-10,1,0,0,,1,0,0,1,-10,1,0,0,0,10,10,70,1,70,first,,,,,,,,,,,,,,,,,,,,,,,,,,,,,,,,,,,,,,,,,,,,,,,,,,,,,,,,,,,,,,,,,,,
,,,,,,5c6219e169375500012329d9,62bbfb4ce80eff42814d9127,2022-06-29_09h12.23.999,Colour_Asymmetry_Pilot,2022.1.3,Win32,59.99880002,62bbe60bf3d75ef465d3e404,,,,,,,,,,,,,,,,,,,,fourthree,,-4,0.9999,,,,,,,,,,,,,,,,,,,,,,,,,,,,,,,,,,"[0.22340000000000004,-0.9296,-0.7884]","[0.9686000000000001,0.5763999999999998,0.11359999999999992]",-54,87,1,0,0,response7disk,0,6,1,0,0,rectangle,0,6,1,0,0,,3,0.0006,0,0,6,1,0,0,0,11,11,45,1,45,first,,,,,,,,,,,,,,,,,,,,,,,,,,,,,,,,,,,,,,,,,,,,,,,,,,,,,,,,,,,,,,,,,,,
,,,,,,5c6219e169375500012329d9,62bbfb4ce80eff42814d9127,2022-06-29_09h12.23.999,Colour_Asymmetry_Pilot,2022.1.3,Win32,59.99880002,62bbe60bf3d75ef465d3e404,,,,,,,,,,,,,,,,,,,,threeone,,-3,0.9501,,,,,,,,,,,,,,,,,,,,,,,,,,,,,,,,,,"[0.9686000000000001,0.5763999999999998,0.11359999999999992]","[0.34099999999999997,0.12939999999999996,-0.9766]",-105,39,1,0,0,response7disk,-10,-4,1,0,0,rectangle,-10,-4,1,0,0,,3,0.0006,0,-10,-4,1,0,0,0,12,12,151,1,70,second,,,,,,,,,,,,,,,,,,,,,,,,,,,,,,,,,,,,,,,,,,,,,,,,,,,,,,,,,,,,,,,,,,,
,,,,,,5c6219e169375500012329d9,62bbfb4ce80eff42814d9127,2022-06-29_09h12.23.999,Colour_Asymmetry_Pilot,2022.1.3,Win32,59.99880002,62bbe60bf3d75ef465d3e404,,,,,,,,,,,,,,,,,,,,fourthree,,-4,0.4502,,,,,,,,,,,,,,,,,,,,,,,,,,,,,,,,,,"[0.2784,-0.31000000000000005,-0.5452]","[-0.34920000000000007,-0.702,-0.5216]",-47,96,1,0,0,response7disk,8,-3,1,0,0,rectangle,8,-3,1,0,0,,3,0.0003,0,8,-3,1,0,0,0,13,13,108,1,27,second,,,,,,,,,,,,,,,,,,,,,,,,,,,,,,,,,,,,,,,,,,,,,,,,,,,,,,,,,,,,,,,,,,,
,,,,,,5c6219e169375500012329d9,62bbfb4ce80eff42814d9127,2022-06-29_09h12.23.999,Colour_Asymmetry_Pilot,2022.1.3,Win32,59.99880002,62bbe60bf3d75ef465d3e404,,,,,,,,,,,,,,,,,,,,threefour,,-1,1.6168,,,,,,,,,,,,,,,,,,,,,,,,,,,,,,,,,,"[-0.9766,-0.6472,0.07440000000000002]","[-0.30200000000000005,0.14500000000000002,0.2784]",-42,-97,1,0,0,response5disk,-10,-9,1,0,0,rectangle,-10,-9,1,0,0,,1,0.0006,0,-10,-9,1,0,0,0,14,14,132,1,51,second,,,,,,,,,,,,,,,,,,,,,,,,,,,,,,,,,,,,,,,,,,,,,,,,,,,,,,,,,,,,,,,,,,,
,,,,,,5c6219e169375500012329d9,62bbfb4ce80eff42814d9127,2022-06-29_09h12.23.999,Colour_Asymmetry_Pilot,2022.1.3,Win32,59.99880002,62bbe60bf3d75ef465d3e404,,,,,,,,,,,,,,,,,,,,twofour,,-4,0.65,,,,,,,,,,,,,,,,,,,,,,,,,,,,,,,,,,"[0.12939999999999996,-0.2864,0.3253999999999999]","[0.23920000000000008,0.2704,0.16060000000000008]",-57,100,1,0,0,response7disk,15,-11,1,0,0,rectangle,15,-11,1,0,0,,1,0,0,15,-11,1,0,0,0,15,15,93,1,12,second,,,,,,,,,,,,,,,,,,,,,,,,,,,,,,,,,,,,,,,,,,,,,,,,,,,,,,,,,,,,,,,,,,,
,,,,,,5c6219e169375500012329d9,62bbfb4ce80eff42814d9127,2022-06-29_09h12.23.999,Colour_Asymmetry_Pilot,2022.1.3,Win32,59.99880002,62bbe60bf3d75ef465d3e404,,,,,,,,,,,,,,,,,,,,onetwo,,-2,0.6,,,,,,,,,,,,,,,,,,,,,,,,,,,,,,,,,,"[-0.5688,-0.08239999999999992,-0.1844]","[0.23920000000000008,0.2704,0.16060000000000008]",-111,-55,1,0,0,response5disk,2,0,1,0,0,rectangle,2,0,1,0,0,,2,0.0005,0,2,0,1,0,0,0,16,16,135,1,54,second,,,,,,,,,,,,,,,,,,,,,,,,,,,,,,,,,,,,,,,,,,,,,,,,,,,,,,,,,,,,,,,,,,,
,,,,,,5c6219e169375500012329d9,62bbfb4ce80eff42814d9127,2022-06-29_09h12.23.999,Colour_Asymmetry_Pilot,2022.1.3,Win32,59.99880002,62bbe60bf3d75ef465d3e404,,,,,,,,,,,,,,,,,,,,threefour,,-4,0.4,,,,,,,,,,,,,,,,,,,,,,,,,,,,,,,,,,"[-0.34920000000000007,-0.702,-0.5216]","[-0.24719999999999998,-0.0354000000000001,0.3175999999999999]",-58,111,1,0,0,response7disk,-10,-3,1,0,0,rectangle,-10,-3,1,0,0,,3,0.0007,0,-10,-3,1,0,0,0,17,17,39,1,39,first,,,,,,,,,,,,,,,,,,,,,,,,,,,,,,,,,,,,,,,,,,,,,,,,,,,,,,,,,,,,,,,,,,,
,,,,,,5c6219e169375500012329d9,62bbfb4ce80eff42814d9127,2022-06-29_09h12.23.999,Colour_Asymmetry_Pilot,2022.1.3,Win32,59.99880002,62bbe60bf3d75ef465d3e404,,,,,,,,,,,,,,,,,,,,threefour,,-4,0.4334,,,,,,,,,,,,,,,,,,,,,,,,,,,,,,,,,,"[0.37240000000000006,0.4980000000000002,-0.2864]","[-0.8118,-0.8198,-0.5452]",-44,94,1,0,0,response7disk,3,-2,1,0,0,rectangle,50,-104,1,0,0,1,1,4.4495,1,-11,-5,1,0,0,0,18,18,161,1,80,second,response3disk_3,rectangle,,,,,,,,,,,,,,,,,,,,,,,,,,,,,,,,,,,,,,,,,,,,,,,,,,,,,,,,,,,,,,,,,
,,,,,,5c6219e169375500012329d9,62bbfb4ce80eff42814d9127,2022-06-29_09h12.23.999,Colour_Asymmetry_Pilot,2022.1.3,Win32,59.99880002,62bbe60bf3d75ef465d3e404,,,,,,,,,,,,,,,,,,,,onetwo,,-4,0.3165,,,,,,,,,,,,,,,,,,,,,,,,,,,,,,,,,,"[0.9686000000000001,0.5763999999999998,0.11359999999999992]","[-0.6942,-0.7648,-0.12959999999999994]",-41,115,1,0,0,response7disk,8,9,1,0,0,rectangle,8,9,1,0,0,1,3,0.0006,0,8,9,1,0,0,0,19,19,34,1,34,first,,,,,,,,,,,,,,,,,,,,,,,,,,,,,,,,,,,,,,,,,,,,,,,,,,,,,,,,,,,,,,,,,,,
,,,,,,5c6219e169375500012329d9,62bbfb4ce80eff42814d9127,2022-06-29_09h12.23.999,Colour_Asymmetry_Pilot,2022.1.3,Win32,59.99880002,62bbe60bf3d75ef465d3e404,,,,,,,,,,,,,,,,,,,,fourthree,,-2,0.8,,,,,,,,,,,,,,,,,,,,,,,,,,,,,,,,,,"[0.34099999999999997,0.12939999999999996,-0.9766]","[0.37240000000000006,0.4980000000000002,-0.2864]",-115,-62,1,0,0,response5disk,-5,-10,1,0,0,rectangle,-5,-10,1,0,0,1,2,0.0006,0,-5,-10,1,0,0,0,20,20,90,1,9,second,,,,,,,,,,,,,,,,,,,,,,,,,,,,,,,,,,,,,,,,,,,,,,,,,,,,,,,,,,,,,,,,,,,
