trials.thisRepN,trials.thisTrialN,trials.thisN,trials.thisIndex,trials.ran,Colourcodes,participant,session,date,expName,psychopyVersion,OS,frameRate,study_id,trials_4.thisRepN,trials_4.thisTrialN,trials_4.thisN,trials_4.thisIndex,trials_4.ran,StimulusPos,key_resp.keys,key_resp.rt,key_resp_2.keys,key_resp_2.rt,key_resp_15.keys,key_resp_15.rt,key_resp_17.keys,key_resp_17.rt,key_resp_9.keys,key_resp_9.rt,key_resp_10.keys,key_resp_10.rt,Circle1_col,Ecc,Circle2_col,similarity,response_time,mouse_5.x,mouse_5.y,mouse_5.leftButton,mouse_5.midButton,mouse_5.rightButton,mouse_5.clicked_name,mouse_10.x,mouse_10.y,mouse_10.leftButton,mouse_10.midButton,mouse_10.rightButton,mouse_10.clicked_name,mouse_7.x,mouse_7.y,mouse_7.leftButton,mouse_7.midButton,mouse_7.rightButton,catchnumberprac,mouse_6.x,mouse_6.y,mouse_6.leftButton,mouse_6.midButton,mouse_6.rightButton,duringprac.thisRepN,duringprac.thisTrialN,duringprac.thisN,duringprac.thisIndex,duringprac.ran,mouse_7.clicked_name,catchprac,mouse_6.clicked_name,key_resp_22.keys,key_resp_22.rt,Circle1_colour,Circle2_colour,mouse.x,mouse.y,mouse.leftButton,mouse.midButton,mouse.rightButton,mouse.clicked_name,mouse_2.x,mouse_2.y,mouse_2.leftButton,mouse_2.midButton,mouse_2.rightButton,mouse_2.clicked_name,mouse_3.x,mouse_3.y,mouse_3.leftButton,mouse_3.midButton,mouse_3.rightButton,catchresponse,catchnumber,response_time_catch,Catch,mouse_11.x,mouse_11.y,mouse_11.leftButton,mouse_11.midButton,mouse_11.rightButton,trials_2.thisRepN,trials_2.thisTrialN,trials_2.thisN,trials_2.thisIndex,trials_2.ran,Colourpair,Temporder,mouse_3.clicked_name,mouse_11.clicked_name,trials_3.thisRepN,trials_3.thisTrialN,trials_3.thisN,trials_3.thisIndex,trials_3.ran,key_resp_instr_Ishi.keys,key_resp_instr_Ishi.rt,Ishi_trial_keyresp.keys,Ishi_trial_keyresp.rt,Ishi_textbox.text,Ishi_loop.thisRepN,Ishi_loop.thisTrialN,Ishi_loop.thisN,Ishi_loop.thisIndex,Ishi_loop.ran,imageaddress,textbox.text,mouse_4.x,mouse_4.y,mouse_4.leftButton,mouse_4.midButton,mouse_4.rightButton,mouse_4.clicked_name,textbox_2.text,mouse_8.x,mouse_8.y,mouse_8.leftButton,mouse_8.midButton,mouse_8.rightButton,mouse_8.clicked_name,textbox_3.text,mouse_9.x,mouse_9.y,mouse_9.leftButton,mouse_9.midButton,mouse_9.rightButton,mouse_9.clicked_name,textbox_4.text,mouse_12.x,mouse_12.y,mouse_12.leftButton,mouse_12.midButton,mouse_12.rightButton,mouse_12.clicked_name,textbox_5.text,mouse_13.x,mouse_13.y,mouse_13.leftButton,mouse_13.midButton,mouse_13.rightButton,mouse_13.clicked_name,textbox_6.text,mouse_14.x,mouse_14.y,mouse_14.leftButton,mouse_14.midButton,mouse_14.rightButton,mouse_14.clicked_name,textbox_7.text,mouse_15.x,mouse_15.y,mouse_15.leftButton,mouse_15.midButton,mouse_15.rightButton,mouse_15.clicked_name
0,0,0,40,1,,5fb7c5d4b92d683a2d367e6c,62bbf9a320e38978bb48e93b,2022-06-29_09h05.57.466,Colour_Asymmetry_Pilot,2022.1.3,Win32,60.06006006,62bbe60bf3d75ef465d3e404,,,,,,,,,,,,,,,,,,,,,,,,,,,,,,,,,,,,,,,,,,,,,,,,,,,,,,,,,,,,,,,,,,,,,,,,,,,,,,,,,,,,,,,,,,,,,,,,,,,,,,,,,,,,,,,,,,,,,,,,,,,,,,,,,,,,,,,,,,,,,,,,,,,,,,,,,,,,,,
0,1,1,34,1,,5fb7c5d4b92d683a2d367e6c,62bbf9a320e38978bb48e93b,2022-06-29_09h05.57.466,Colour_Asymmetry_Pilot,2022.1.3,Win32,60.06006006,62bbe60bf3d75ef465d3e404,,,,,,,,,,,,,,,,,,,,,,,,,,,,,,,,,,,,,,,,,,,,,,,,,,,,,,,,,,,,,,,,,,,,,,,,,,,,,,,,,,,,,,,,,,,,,,,,,,,,,,,,,,,,,,,,,,,,,,,,,,,,,,,,,,,,,,,,,,,,,,,,,,,,,,,,,,,,,,
0,2,2,9,1,,5fb7c5d4b92d683a2d367e6c,62bbf9a320e38978bb48e93b,2022-06-29_09h05.57.466,Colour_Asymmetry_Pilot,2022.1.3,Win32,60.06006006,62bbe60bf3d75ef465d3e404,,,,,,,,,,,,,,,,,,,,,,,,,,,,,,,,,,,,,,,,,,,,,,,,,,,,,,,,,,,,,,,,,,,,,,,,,,,,,,,,,,,,,,,,,,,,,,,,,,,,,,,,,,,,,,,,,,,,,,,,,,,,,,,,,,,,,,,,,,,,,,,,,,,,,,,,,,,,,,
0,3,3,88,1,,5fb7c5d4b92d683a2d367e6c,62bbf9a320e38978bb48e93b,2022-06-29_09h05.57.466,Colour_Asymmetry_Pilot,2022.1.3,Win32,60.06006006,62bbe60bf3d75ef465d3e404,,,,,,,,,,,,,,,,,,,,,,,,,,,,,,,,,,,,,,,,,,,,,,,,,,,,,,,,,,,,,,,,,,,,,,,,,,,,,,,,,,,,,,,,,,,,,,,,,,,,,,,,,,,,,,,,,,,,,,,,,,,,,,,,,,,,,,,,,,,,,,,,,,,,,,,,,,,,,,
0,4,4,64,1,,5fb7c5d4b92d683a2d367e6c,62bbf9a320e38978bb48e93b,2022-06-29_09h05.57.466,Colour_Asymmetry_Pilot,2022.1.3,Win32,60.06006006,62bbe60bf3d75ef465d3e404,,,,,,,,,,,,,,,,,,,,,,,,,,,,,,,,,,,,,,,,,,,,,,,,,,,,,,,,,,,,,,,,,,,,,,,,,,,,,,,,,,,,,,,,,,,,,,,,,,,,,,,,,,,,,,,,,,,,,,,,,,,,,,,,,,,,,,,,,,,,,,,,,,,,,,,,,,,,,,
0,5,5,31,1,,5fb7c5d4b92d683a2d367e6c,62bbf9a320e38978bb48e93b,2022-06-29_09h05.57.466,Colour_Asymmetry_Pilot,2022.1.3,Win32,60.06006006,62bbe60bf3d75ef465d3e404,,,,,,,,,,,,,,,,,,,,,,,,,,,,,,,,,,,,,,,,,,,,,,,,,,,,,,,,,,,,,,,,,,,,,,,,,,,,,,,,,,,,,,,,,,,,,,,,,,,,,,,,,,,,,,,,,,,,,,,,,,,,,,,,,,,,,,,,,,,,,,,,,,,,,,,,,,,,,,
0,6,6,42,1,,5fb7c5d4b92d683a2d367e6c,62bbf9a320e38978bb48e93b,2022-06-29_09h05.57.466,Colour_Asymmetry_Pilot,2022.1.3,Win32,60.06006006,62bbe60bf3d75ef465d3e404,,,,,,,,,,,,,,,,,,,,,,,,,,,,,,,,,,,,,,,,,,,,,,,,,,,,,,,,,,,,,,,,,,,,,,,,,,,,,,,,,,,,,,,,,,,,,,,,,,,,,,,,,,,,,,,,,,,,,,,,,,,,,,,,,,,,,,,,,,,,,,,,,,,,,,,,,,,,,,
0,7,7,3,1,,5fb7c5d4b92d683a2d367e6c,62bbf9a320e38978bb48e93b,2022-06-29_09h05.57.466,Colour_Asymmetry_Pilot,2022.1.3,Win32,60.06006006,62bbe60bf3d75ef465d3e404,,,,,,,,,,,,,,,,,,,,,,,,,,,,,,,,,,,,,,,,,,,,,,,,,,,,,,,,,,,,,,,,,,,,,,,,,,,,,,,,,,,,,,,,,,,,,,,,,,,,,,,,,,,,,,,,,,,,,,,,,,,,,,,,,,,,,,,,,,,,,,,,,,,,,,,,,,,,,,
0,8,8,78,1,,5fb7c5d4b92d683a2d367e6c,62bbf9a320e38978bb48e93b,2022-06-29_09h05.57.466,Colour_Asymmetry_Pilot,2022.1.3,Win32,60.06006006,62bbe60bf3d75ef465d3e404,,,,,,,,,,,,,,,,,,,,,,,,,,,,,,,,,,,,,,,,,,,,,,,,,,,,,,,,,,,,,,,,,,,,,,,,,,,,,,,,,,,,,,,,,,,,,,,,,,,,,,,,,,,,,,,,,,,,,,,,,,,,,,,,,,,,,,,,,,,,,,,,,,,,,,,,,,,,,,
0,9,9,49,1,,5fb7c5d4b92d683a2d367e6c,62bbf9a320e38978bb48e93b,2022-06-29_09h05.57.466,Colour_Asymmetry_Pilot,2022.1.3,Win32,60.06006006,62bbe60bf3d75ef465d3e404,,,,,,,,,,,,,,,,,,,,,,,,,,,,,,,,,,,,,,,,,,,,,,,,,,,,,,,,,,,,,,,,,,,,,,,,,,,,,,,,,,,,,,,,,,,,,,,,,,,,,,,,,,,,,,,,,,,,,,,,,,,,,,,,,,,,,,,,,,,,,,,,,,,,,,,,,,,,,,
0,10,10,28,1,,5fb7c5d4b92d683a2d367e6c,62bbf9a320e38978bb48e93b,2022-06-29_09h05.57.466,Colour_Asymmetry_Pilot,2022.1.3,Win32,60.06006006,62bbe60bf3d75ef465d3e404,,,,,,,,,,,,,,,,,,,,,,,,,,,,,,,,,,,,,,,,,,,,,,,,,,,,,,,,,,,,,,,,,,,,,,,,,,,,,,,,,,,,,,,,,,,,,,,,,,,,,,,,,,,,,,,,,,,,,,,,,,,,,,,,,,,,,,,,,,,,,,,,,,,,,,,,,,,,,,
0,11,11,23,1,,5fb7c5d4b92d683a2d367e6c,62bbf9a320e38978bb48e93b,2022-06-29_09h05.57.466,Colour_Asymmetry_Pilot,2022.1.3,Win32,60.06006006,62bbe60bf3d75ef465d3e404,,,,,,,,,,,,,,,,,,,,,,,,,,,,,,,,,,,,,,,,,,,,,,,,,,,,,,,,,,,,,,,,,,,,,,,,,,,,,,,,,,,,,,,,,,,,,,,,,,,,,,,,,,,,,,,,,,,,,,,,,,,,,,,,,,,,,,,,,,,,,,,,,,,,,,,,,,,,,,
0,12,12,56,1,,5fb7c5d4b92d683a2d367e6c,62bbf9a320e38978bb48e93b,2022-06-29_09h05.57.466,Colour_Asymmetry_Pilot,2022.1.3,Win32,60.06006006,62bbe60bf3d75ef465d3e404,,,,,,,,,,,,,,,,,,,,,,,,,,,,,,,,,,,,,,,,,,,,,,,,,,,,,,,,,,,,,,,,,,,,,,,,,,,,,,,,,,,,,,,,,,,,,,,,,,,,,,,,,,,,,,,,,,,,,,,,,,,,,,,,,,,,,,,,,,,,,,,,,,,,,,,,,,,,,,
0,13,13,7,1,,5fb7c5d4b92d683a2d367e6c,62bbf9a320e38978bb48e93b,2022-06-29_09h05.57.466,Colour_Asymmetry_Pilot,2022.1.3,Win32,60.06006006,62bbe60bf3d75ef465d3e404,,,,,,,,,,,,,,,,,,,,,,,,,,,,,,,,,,,,,,,,,,,,,,,,,,,,,,,,,,,,,,,,,,,,,,,,,,,,,,,,,,,,,,,,,,,,,,,,,,,,,,,,,,,,,,,,,,,,,,,,,,,,,,,,,,,,,,,,,,,,,,,,,,,,,,,,,,,,,,
0,14,14,63,1,,5fb7c5d4b92d683a2d367e6c,62bbf9a320e38978bb48e93b,2022-06-29_09h05.57.466,Colour_Asymmetry_Pilot,2022.1.3,Win32,60.06006006,62bbe60bf3d75ef465d3e404,,,,,,,,,,,,,,,,,,,,,,,,,,,,,,,,,,,,,,,,,,,,,,,,,,,,,,,,,,,,,,,,,,,,,,,,,,,,,,,,,,,,,,,,,,,,,,,,,,,,,,,,,,,,,,,,,,,,,,,,,,,,,,,,,,,,,,,,,,,,,,,,,,,,,,,,,,,,,,
0,15,15,29,1,,5fb7c5d4b92d683a2d367e6c,62bbf9a320e38978bb48e93b,2022-06-29_09h05.57.466,Colour_Asymmetry_Pilot,2022.1.3,Win32,60.06006006,62bbe60bf3d75ef465d3e404,,,,,,,,,,,,,,,,,,,,,,,,,,,,,,,,,,,,,,,,,,,,,,,,,,,,,,,,,,,,,,,,,,,,,,,,,,,,,,,,,,,,,,,,,,,,,,,,,,,,,,,,,,,,,,,,,,,,,,,,,,,,,,,,,,,,,,,,,,,,,,,,,,,,,,,,,,,,,,
0,16,16,50,1,,5fb7c5d4b92d683a2d367e6c,62bbf9a320e38978bb48e93b,2022-06-29_09h05.57.466,Colour_Asymmetry_Pilot,2022.1.3,Win32,60.06006006,62bbe60bf3d75ef465d3e404,,,,,,,,,,,,,,,,,,,,,,,,,,,,,,,,,,,,,,,,,,,,,,,,,,,,,,,,,,,,,,,,,,,,,,,,,,,,,,,,,,,,,,,,,,,,,,,,,,,,,,,,,,,,,,,,,,,,,,,,,,,,,,,,,,,,,,,,,,,,,,,,,,,,,,,,,,,,,,
0,17,17,10,1,,5fb7c5d4b92d683a2d367e6c,62bbf9a320e38978bb48e93b,2022-06-29_09h05.57.466,Colour_Asymmetry_Pilot,2022.1.3,Win32,60.06006006,62bbe60bf3d75ef465d3e404,,,,,,,,,,,,,,,,,,,,,,,,,,,,,,,,,,,,,,,,,,,,,,,,,,,,,,,,,,,,,,,,,,,,,,,,,,,,,,,,,,,,,,,,,,,,,,,,,,,,,,,,,,,,,,,,,,,,,,,,,,,,,,,,,,,,,,,,,,,,,,,,,,,,,,,,,,,,,,
0,18,18,58,1,,5fb7c5d4b92d683a2d367e6c,62bbf9a320e38978bb48e93b,2022-06-29_09h05.57.466,Colour_Asymmetry_Pilot,2022.1.3,Win32,60.06006006,62bbe60bf3d75ef465d3e404,,,,,,,,,,,,,,,,,,,,,,,,,,,,,,,,,,,,,,,,,,,,,,,,,,,,,,,,,,,,,,,,,,,,,,,,,,,,,,,,,,,,,,,,,,,,,,,,,,,,,,,,,,,,,,,,,,,,,,,,,,,,,,,,,,,,,,,,,,,,,,,,,,,,,,,,,,,,,,
0,19,19,21,1,,5fb7c5d4b92d683a2d367e6c,62bbf9a320e38978bb48e93b,2022-06-29_09h05.57.466,Colour_Asymmetry_Pilot,2022.1.3,Win32,60.06006006,62bbe60bf3d75ef465d3e404,,,,,,,,,,,,,,,,,,,,,,,,,,,,,,,,,,,,,,,,,,,,,,,,,,,,,,,,,,,,,,,,,,,,,,,,,,,,,,,,,,,,,,,,,,,,,,,,,,,,,,,,,,,,,,,,,,,,,,,,,,,,,,,,,,,,,,,,,,,,,,,,,,,,,,,,,,,,,,
0,20,20,5,1,,5fb7c5d4b92d683a2d367e6c,62bbf9a320e38978bb48e93b,2022-06-29_09h05.57.466,Colour_Asymmetry_Pilot,2022.1.3,Win32,60.06006006,62bbe60bf3d75ef465d3e404,,,,,,,,,,,,,,,,,,,,,,,,,,,,,,,,,,,,,,,,,,,,,,,,,,,,,,,,,,,,,,,,,,,,,,,,,,,,,,,,,,,,,,,,,,,,,,,,,,,,,,,,,,,,,,,,,,,,,,,,,,,,,,,,,,,,,,,,,,,,,,,,,,,,,,,,,,,,,,
0,21,21,83,1,,5fb7c5d4b92d683a2d367e6c,62bbf9a320e38978bb48e93b,2022-06-29_09h05.57.466,Colour_Asymmetry_Pilot,2022.1.3,Win32,60.06006006,62bbe60bf3d75ef465d3e404,,,,,,,,,,,,,,,,,,,,,,,,,,,,,,,,,,,,,,,,,,,,,,,,,,,,,,,,,,,,,,,,,,,,,,,,,,,,,,,,,,,,,,,,,,,,,,,,,,,,,,,,,,,,,,,,,,,,,,,,,,,,,,,,,,,,,,,,,,,,,,,,,,,,,,,,,,,,,,
0,22,22,68,1,,5fb7c5d4b92d683a2d367e6c,62bbf9a320e38978bb48e93b,2022-06-29_09h05.57.466,Colour_Asymmetry_Pilot,2022.1.3,Win32,60.06006006,62bbe60bf3d75ef465d3e404,,,,,,,,,,,,,,,,,,,,,,,,,,,,,,,,,,,,,,,,,,,,,,,,,,,,,,,,,,,,,,,,,,,,,,,,,,,,,,,,,,,,,,,,,,,,,,,,,,,,,,,,,,,,,,,,,,,,,,,,,,,,,,,,,,,,,,,,,,,,,,,,,,,,,,,,,,,,,,
0,23,23,54,1,,5fb7c5d4b92d683a2d367e6c,62bbf9a320e38978bb48e93b,2022-06-29_09h05.57.466,Colour_Asymmetry_Pilot,2022.1.3,Win32,60.06006006,62bbe60bf3d75ef465d3e404,,,,,,,,,,,,,,,,,,,,,,,,,,,,,,,,,,,,,,,,,,,,,,,,,,,,,,,,,,,,,,,,,,,,,,,,,,,,,,,,,,,,,,,,,,,,,,,,,,,,,,,,,,,,,,,,,,,,,,,,,,,,,,,,,,,,,,,,,,,,,,,,,,,,,,,,,,,,,,
0,24,24,66,1,,5fb7c5d4b92d683a2d367e6c,62bbf9a320e38978bb48e93b,2022-06-29_09h05.57.466,Colour_Asymmetry_Pilot,2022.1.3,Win32,60.06006006,62bbe60bf3d75ef465d3e404,,,,,,,,,,,,,,,,,,,,,,,,,,,,,,,,,,,,,,,,,,,,,,,,,,,,,,,,,,,,,,,,,,,,,,,,,,,,,,,,,,,,,,,,,,,,,,,,,,,,,,,,,,,,,,,,,,,,,,,,,,,,,,,,,,,,,,,,,,,,,,,,,,,,,,,,,,,,,,
0,25,25,38,1,,5fb7c5d4b92d683a2d367e6c,62bbf9a320e38978bb48e93b,2022-06-29_09h05.57.466,Colour_Asymmetry_Pilot,2022.1.3,Win32,60.06006006,62bbe60bf3d75ef465d3e404,,,,,,,,,,,,,,,,,,,,,,,,,,,,,,,,,,,,,,,,,,,,,,,,,,,,,,,,,,,,,,,,,,,,,,,,,,,,,,,,,,,,,,,,,,,,,,,,,,,,,,,,,,,,,,,,,,,,,,,,,,,,,,,,,,,,,,,,,,,,,,,,,,,,,,,,,,,,,,
0,26,26,92,1,,5fb7c5d4b92d683a2d367e6c,62bbf9a320e38978bb48e93b,2022-06-29_09h05.57.466,Colour_Asymmetry_Pilot,2022.1.3,Win32,60.06006006,62bbe60bf3d75ef465d3e404,,,,,,,,,,,,,,,,,,,,,,,,,,,,,,,,,,,,,,,,,,,,,,,,,,,,,,,,,,,,,,,,,,,,,,,,,,,,,,,,,,,,,,,,,,,,,,,,,,,,,,,,,,,,,,,,,,,,,,,,,,,,,,,,,,,,,,,,,,,,,,,,,,,,,,,,,,,,,,
0,27,27,75,1,,5fb7c5d4b92d683a2d367e6c,62bbf9a320e38978bb48e93b,2022-06-29_09h05.57.466,Colour_Asymmetry_Pilot,2022.1.3,Win32,60.06006006,62bbe60bf3d75ef465d3e404,,,,,,,,,,,,,,,,,,,,,,,,,,,,,,,,,,,,,,,,,,,,,,,,,,,,,,,,,,,,,,,,,,,,,,,,,,,,,,,,,,,,,,,,,,,,,,,,,,,,,,,,,,,,,,,,,,,,,,,,,,,,,,,,,,,,,,,,,,,,,,,,,,,,,,,,,,,,,,
0,28,28,79,1,,5fb7c5d4b92d683a2d367e6c,62bbf9a320e38978bb48e93b,2022-06-29_09h05.57.466,Colour_Asymmetry_Pilot,2022.1.3,Win32,60.06006006,62bbe60bf3d75ef465d3e404,,,,,,,,,,,,,,,,,,,,,,,,,,,,,,,,,,,,,,,,,,,,,,,,,,,,,,,,,,,,,,,,,,,,,,,,,,,,,,,,,,,,,,,,,,,,,,,,,,,,,,,,,,,,,,,,,,,,,,,,,,,,,,,,,,,,,,,,,,,,,,,,,,,,,,,,,,,,,,
0,29,29,76,1,,5fb7c5d4b92d683a2d367e6c,62bbf9a320e38978bb48e93b,2022-06-29_09h05.57.466,Colour_Asymmetry_Pilot,2022.1.3,Win32,60.06006006,62bbe60bf3d75ef465d3e404,,,,,,,,,,,,,,,,,,,,,,,,,,,,,,,,,,,,,,,,,,,,,,,,,,,,,,,,,,,,,,,,,,,,,,,,,,,,,,,,,,,,,,,,,,,,,,,,,,,,,,,,,,,,,,,,,,,,,,,,,,,,,,,,,,,,,,,,,,,,,,,,,,,,,,,,,,,,,,
0,30,30,48,1,,5fb7c5d4b92d683a2d367e6c,62bbf9a320e38978bb48e93b,2022-06-29_09h05.57.466,Colour_Asymmetry_Pilot,2022.1.3,Win32,60.06006006,62bbe60bf3d75ef465d3e404,,,,,,,,,,,,,,,,,,,,,,,,,,,,,,,,,,,,,,,,,,,,,,,,,,,,,,,,,,,,,,,,,,,,,,,,,,,,,,,,,,,,,,,,,,,,,,,,,,,,,,,,,,,,,,,,,,,,,,,,,,,,,,,,,,,,,,,,,,,,,,,,,,,,,,,,,,,,,,
0,31,31,6,1,,5fb7c5d4b92d683a2d367e6c,62bbf9a320e38978bb48e93b,2022-06-29_09h05.57.466,Colour_Asymmetry_Pilot,2022.1.3,Win32,60.06006006,62bbe60bf3d75ef465d3e404,,,,,,,,,,,,,,,,,,,,,,,,,,,,,,,,,,,,,,,,,,,,,,,,,,,,,,,,,,,,,,,,,,,,,,,,,,,,,,,,,,,,,,,,,,,,,,,,,,,,,,,,,,,,,,,,,,,,,,,,,,,,,,,,,,,,,,,,,,,,,,,,,,,,,,,,,,,,,,
0,32,32,32,1,,5fb7c5d4b92d683a2d367e6c,62bbf9a320e38978bb48e93b,2022-06-29_09h05.57.466,Colour_Asymmetry_Pilot,2022.1.3,Win32,60.06006006,62bbe60bf3d75ef465d3e404,,,,,,,,,,,,,,,,,,,,,,,,,,,,,,,,,,,,,,,,,,,,,,,,,,,,,,,,,,,,,,,,,,,,,,,,,,,,,,,,,,,,,,,,,,,,,,,,,,,,,,,,,,,,,,,,,,,,,,,,,,,,,,,,,,,,,,,,,,,,,,,,,,,,,,,,,,,,,,
0,33,33,81,1,,5fb7c5d4b92d683a2d367e6c,62bbf9a320e38978bb48e93b,2022-06-29_09h05.57.466,Colour_Asymmetry_Pilot,2022.1.3,Win32,60.06006006,62bbe60bf3d75ef465d3e404,,,,,,,,,,,,,,,,,,,,,,,,,,,,,,,,,,,,,,,,,,,,,,,,,,,,,,,,,,,,,,,,,,,,,,,,,,,,,,,,,,,,,,,,,,,,,,,,,,,,,,,,,,,,,,,,,,,,,,,,,,,,,,,,,,,,,,,,,,,,,,,,,,,,,,,,,,,,,,
0,34,34,16,1,,5fb7c5d4b92d683a2d367e6c,62bbf9a320e38978bb48e93b,2022-06-29_09h05.57.466,Colour_Asymmetry_Pilot,2022.1.3,Win32,60.06006006,62bbe60bf3d75ef465d3e404,,,,,,,,,,,,,,,,,,,,,,,,,,,,,,,,,,,,,,,,,,,,,,,,,,,,,,,,,,,,,,,,,,,,,,,,,,,,,,,,,,,,,,,,,,,,,,,,,,,,,,,,,,,,,,,,,,,,,,,,,,,,,,,,,,,,,,,,,,,,,,,,,,,,,,,,,,,,,,
0,35,35,27,1,,5fb7c5d4b92d683a2d367e6c,62bbf9a320e38978bb48e93b,2022-06-29_09h05.57.466,Colour_Asymmetry_Pilot,2022.1.3,Win32,60.06006006,62bbe60bf3d75ef465d3e404,,,,,,,,,,,,,,,,,,,,,,,,,,,,,,,,,,,,,,,,,,,,,,,,,,,,,,,,,,,,,,,,,,,,,,,,,,,,,,,,,,,,,,,,,,,,,,,,,,,,,,,,,,,,,,,,,,,,,,,,,,,,,,,,,,,,,,,,,,,,,,,,,,,,,,,,,,,,,,
0,36,36,46,1,,5fb7c5d4b92d683a2d367e6c,62bbf9a320e38978bb48e93b,2022-06-29_09h05.57.466,Colour_Asymmetry_Pilot,2022.1.3,Win32,60.06006006,62bbe60bf3d75ef465d3e404,,,,,,,,,,,,,,,,,,,,,,,,,,,,,,,,,,,,,,,,,,,,,,,,,,,,,,,,,,,,,,,,,,,,,,,,,,,,,,,,,,,,,,,,,,,,,,,,,,,,,,,,,,,,,,,,,,,,,,,,,,,,,,,,,,,,,,,,,,,,,,,,,,,,,,,,,,,,,,
0,37,37,33,1,,5fb7c5d4b92d683a2d367e6c,62bbf9a320e38978bb48e93b,2022-06-29_09h05.57.466,Colour_Asymmetry_Pilot,2022.1.3,Win32,60.06006006,62bbe60bf3d75ef465d3e404,,,,,,,,,,,,,,,,,,,,,,,,,,,,,,,,,,,,,,,,,,,,,,,,,,,,,,,,,,,,,,,,,,,,,,,,,,,,,,,,,,,,,,,,,,,,,,,,,,,,,,,,,,,,,,,,,,,,,,,,,,,,,,,,,,,,,,,,,,,,,,,,,,,,,,,,,,,,,,
0,38,38,52,1,,5fb7c5d4b92d683a2d367e6c,62bbf9a320e38978bb48e93b,2022-06-29_09h05.57.466,Colour_Asymmetry_Pilot,2022.1.3,Win32,60.06006006,62bbe60bf3d75ef465d3e404,,,,,,,,,,,,,,,,,,,,,,,,,,,,,,,,,,,,,,,,,,,,,,,,,,,,,,,,,,,,,,,,,,,,,,,,,,,,,,,,,,,,,,,,,,,,,,,,,,,,,,,,,,,,,,,,,,,,,,,,,,,,,,,,,,,,,,,,,,,,,,,,,,,,,,,,,,,,,,
0,39,39,85,1,,5fb7c5d4b92d683a2d367e6c,62bbf9a320e38978bb48e93b,2022-06-29_09h05.57.466,Colour_Asymmetry_Pilot,2022.1.3,Win32,60.06006006,62bbe60bf3d75ef465d3e404,,,,,,,,,,,,,,,,,,,,,,,,,,,,,,,,,,,,,,,,,,,,,,,,,,,,,,,,,,,,,,,,,,,,,,,,,,,,,,,,,,,,,,,,,,,,,,,,,,,,,,,,,,,,,,,,,,,,,,,,,,,,,,,,,,,,,,,,,,,,,,,,,,,,,,,,,,,,,,
0,40,40,39,1,,5fb7c5d4b92d683a2d367e6c,62bbf9a320e38978bb48e93b,2022-06-29_09h05.57.466,Colour_Asymmetry_Pilot,2022.1.3,Win32,60.06006006,62bbe60bf3d75ef465d3e404,,,,,,,,,,,,,,,,,,,,,,,,,,,,,,,,,,,,,,,,,,,,,,,,,,,,,,,,,,,,,,,,,,,,,,,,,,,,,,,,,,,,,,,,,,,,,,,,,,,,,,,,,,,,,,,,,,,,,,,,,,,,,,,,,,,,,,,,,,,,,,,,,,,,,,,,,,,,,,
0,41,41,72,1,,5fb7c5d4b92d683a2d367e6c,62bbf9a320e38978bb48e93b,2022-06-29_09h05.57.466,Colour_Asymmetry_Pilot,2022.1.3,Win32,60.06006006,62bbe60bf3d75ef465d3e404,,,,,,,,,,,,,,,,,,,,,,,,,,,,,,,,,,,,,,,,,,,,,,,,,,,,,,,,,,,,,,,,,,,,,,,,,,,,,,,,,,,,,,,,,,,,,,,,,,,,,,,,,,,,,,,,,,,,,,,,,,,,,,,,,,,,,,,,,,,,,,,,,,,,,,,,,,,,,,
0,42,42,73,1,,5fb7c5d4b92d683a2d367e6c,62bbf9a320e38978bb48e93b,2022-06-29_09h05.57.466,Colour_Asymmetry_Pilot,2022.1.3,Win32,60.06006006,62bbe60bf3d75ef465d3e404,,,,,,,,,,,,,,,,,,,,,,,,,,,,,,,,,,,,,,,,,,,,,,,,,,,,,,,,,,,,,,,,,,,,,,,,,,,,,,,,,,,,,,,,,,,,,,,,,,,,,,,,,,,,,,,,,,,,,,,,,,,,,,,,,,,,,,,,,,,,,,,,,,,,,,,,,,,,,,
0,43,43,2,1,,5fb7c5d4b92d683a2d367e6c,62bbf9a320e38978bb48e93b,2022-06-29_09h05.57.466,Colour_Asymmetry_Pilot,2022.1.3,Win32,60.06006006,62bbe60bf3d75ef465d3e404,,,,,,,,,,,,,,,,,,,,,,,,,,,,,,,,,,,,,,,,,,,,,,,,,,,,,,,,,,,,,,,,,,,,,,,,,,,,,,,,,,,,,,,,,,,,,,,,,,,,,,,,,,,,,,,,,,,,,,,,,,,,,,,,,,,,,,,,,,,,,,,,,,,,,,,,,,,,,,
0,44,44,44,1,,5fb7c5d4b92d683a2d367e6c,62bbf9a320e38978bb48e93b,2022-06-29_09h05.57.466,Colour_Asymmetry_Pilot,2022.1.3,Win32,60.06006006,62bbe60bf3d75ef465d3e404,,,,,,,,,,,,,,,,,,,,,,,,,,,,,,,,,,,,,,,,,,,,,,,,,,,,,,,,,,,,,,,,,,,,,,,,,,,,,,,,,,,,,,,,,,,,,,,,,,,,,,,,,,,,,,,,,,,,,,,,,,,,,,,,,,,,,,,,,,,,,,,,,,,,,,,,,,,,,,
0,45,45,45,1,,5fb7c5d4b92d683a2d367e6c,62bbf9a320e38978bb48e93b,2022-06-29_09h05.57.466,Colour_Asymmetry_Pilot,2022.1.3,Win32,60.06006006,62bbe60bf3d75ef465d3e404,,,,,,,,,,,,,,,,,,,,,,,,,,,,,,,,,,,,,,,,,,,,,,,,,,,,,,,,,,,,,,,,,,,,,,,,,,,,,,,,,,,,,,,,,,,,,,,,,,,,,,,,,,,,,,,,,,,,,,,,,,,,,,,,,,,,,,,,,,,,,,,,,,,,,,,,,,,,,,
0,46,46,82,1,,5fb7c5d4b92d683a2d367e6c,62bbf9a320e38978bb48e93b,2022-06-29_09h05.57.466,Colour_Asymmetry_Pilot,2022.1.3,Win32,60.06006006,62bbe60bf3d75ef465d3e404,,,,,,,,,,,,,,,,,,,,,,,,,,,,,,,,,,,,,,,,,,,,,,,,,,,,,,,,,,,,,,,,,,,,,,,,,,,,,,,,,,,,,,,,,,,,,,,,,,,,,,,,,,,,,,,,,,,,,,,,,,,,,,,,,,,,,,,,,,,,,,,,,,,,,,,,,,,,,,
0,47,47,15,1,,5fb7c5d4b92d683a2d367e6c,62bbf9a320e38978bb48e93b,2022-06-29_09h05.57.466,Colour_Asymmetry_Pilot,2022.1.3,Win32,60.06006006,62bbe60bf3d75ef465d3e404,,,,,,,,,,,,,,,,,,,,,,,,,,,,,,,,,,,,,,,,,,,,,,,,,,,,,,,,,,,,,,,,,,,,,,,,,,,,,,,,,,,,,,,,,,,,,,,,,,,,,,,,,,,,,,,,,,,,,,,,,,,,,,,,,,,,,,,,,,,,,,,,,,,,,,,,,,,,,,
0,48,48,84,1,,5fb7c5d4b92d683a2d367e6c,62bbf9a320e38978bb48e93b,2022-06-29_09h05.57.466,Colour_Asymmetry_Pilot,2022.1.3,Win32,60.06006006,62bbe60bf3d75ef465d3e404,,,,,,,,,,,,,,,,,,,,,,,,,,,,,,,,,,,,,,,,,,,,,,,,,,,,,,,,,,,,,,,,,,,,,,,,,,,,,,,,,,,,,,,,,,,,,,,,,,,,,,,,,,,,,,,,,,,,,,,,,,,,,,,,,,,,,,,,,,,,,,,,,,,,,,,,,,,,,,
0,49,49,65,1,,5fb7c5d4b92d683a2d367e6c,62bbf9a320e38978bb48e93b,2022-06-29_09h05.57.466,Colour_Asymmetry_Pilot,2022.1.3,Win32,60.06006006,62bbe60bf3d75ef465d3e404,,,,,,,,,,,,,,,,,,,,,,,,,,,,,,,,,,,,,,,,,,,,,,,,,,,,,,,,,,,,,,,,,,,,,,,,,,,,,,,,,,,,,,,,,,,,,,,,,,,,,,,,,,,,,,,,,,,,,,,,,,,,,,,,,,,,,,,,,,,,,,,,,,,,,,,,,,,,,,
0,50,50,89,1,,5fb7c5d4b92d683a2d367e6c,62bbf9a320e38978bb48e93b,2022-06-29_09h05.57.466,Colour_Asymmetry_Pilot,2022.1.3,Win32,60.06006006,62bbe60bf3d75ef465d3e404,,,,,,,,,,,,,,,,,,,,,,,,,,,,,,,,,,,,,,,,,,,,,,,,,,,,,,,,,,,,,,,,,,,,,,,,,,,,,,,,,,,,,,,,,,,,,,,,,,,,,,,,,,,,,,,,,,,,,,,,,,,,,,,,,,,,,,,,,,,,,,,,,,,,,,,,,,,,,,
0,51,51,13,1,,5fb7c5d4b92d683a2d367e6c,62bbf9a320e38978bb48e93b,2022-06-29_09h05.57.466,Colour_Asymmetry_Pilot,2022.1.3,Win32,60.06006006,62bbe60bf3d75ef465d3e404,,,,,,,,,,,,,,,,,,,,,,,,,,,,,,,,,,,,,,,,,,,,,,,,,,,,,,,,,,,,,,,,,,,,,,,,,,,,,,,,,,,,,,,,,,,,,,,,,,,,,,,,,,,,,,,,,,,,,,,,,,,,,,,,,,,,,,,,,,,,,,,,,,,,,,,,,,,,,,
0,52,52,0,1,,5fb7c5d4b92d683a2d367e6c,62bbf9a320e38978bb48e93b,2022-06-29_09h05.57.466,Colour_Asymmetry_Pilot,2022.1.3,Win32,60.06006006,62bbe60bf3d75ef465d3e404,,,,,,,,,,,,,,,,,,,,,,,,,,,,,,,,,,,,,,,,,,,,,,,,,,,,,,,,,,,,,,,,,,,,,,,,,,,,,,,,,,,,,,,,,,,,,,,,,,,,,,,,,,,,,,,,,,,,,,,,,,,,,,,,,,,,,,,,,,,,,,,,,,,,,,,,,,,,,,
0,53,53,43,1,,5fb7c5d4b92d683a2d367e6c,62bbf9a320e38978bb48e93b,2022-06-29_09h05.57.466,Colour_Asymmetry_Pilot,2022.1.3,Win32,60.06006006,62bbe60bf3d75ef465d3e404,,,,,,,,,,,,,,,,,,,,,,,,,,,,,,,,,,,,,,,,,,,,,,,,,,,,,,,,,,,,,,,,,,,,,,,,,,,,,,,,,,,,,,,,,,,,,,,,,,,,,,,,,,,,,,,,,,,,,,,,,,,,,,,,,,,,,,,,,,,,,,,,,,,,,,,,,,,,,,
0,54,54,1,1,,5fb7c5d4b92d683a2d367e6c,62bbf9a320e38978bb48e93b,2022-06-29_09h05.57.466,Colour_Asymmetry_Pilot,2022.1.3,Win32,60.06006006,62bbe60bf3d75ef465d3e404,,,,,,,,,,,,,,,,,,,,,,,,,,,,,,,,,,,,,,,,,,,,,,,,,,,,,,,,,,,,,,,,,,,,,,,,,,,,,,,,,,,,,,,,,,,,,,,,,,,,,,,,,,,,,,,,,,,,,,,,,,,,,,,,,,,,,,,,,,,,,,,,,,,,,,,,,,,,,,
0,55,55,90,1,,5fb7c5d4b92d683a2d367e6c,62bbf9a320e38978bb48e93b,2022-06-29_09h05.57.466,Colour_Asymmetry_Pilot,2022.1.3,Win32,60.06006006,62bbe60bf3d75ef465d3e404,,,,,,,,,,,,,,,,,,,,,,,,,,,,,,,,,,,,,,,,,,,,,,,,,,,,,,,,,,,,,,,,,,,,,,,,,,,,,,,,,,,,,,,,,,,,,,,,,,,,,,,,,,,,,,,,,,,,,,,,,,,,,,,,,,,,,,,,,,,,,,,,,,,,,,,,,,,,,,
0,56,56,71,1,,5fb7c5d4b92d683a2d367e6c,62bbf9a320e38978bb48e93b,2022-06-29_09h05.57.466,Colour_Asymmetry_Pilot,2022.1.3,Win32,60.06006006,62bbe60bf3d75ef465d3e404,,,,,,,,,,,,,,,,,,,,,,,,,,,,,,,,,,,,,,,,,,,,,,,,,,,,,,,,,,,,,,,,,,,,,,,,,,,,,,,,,,,,,,,,,,,,,,,,,,,,,,,,,,,,,,,,,,,,,,,,,,,,,,,,,,,,,,,,,,,,,,,,,,,,,,,,,,,,,,
0,57,57,80,1,,5fb7c5d4b92d683a2d367e6c,62bbf9a320e38978bb48e93b,2022-06-29_09h05.57.466,Colour_Asymmetry_Pilot,2022.1.3,Win32,60.06006006,62bbe60bf3d75ef465d3e404,,,,,,,,,,,,,,,,,,,,,,,,,,,,,,,,,,,,,,,,,,,,,,,,,,,,,,,,,,,,,,,,,,,,,,,,,,,,,,,,,,,,,,,,,,,,,,,,,,,,,,,,,,,,,,,,,,,,,,,,,,,,,,,,,,,,,,,,,,,,,,,,,,,,,,,,,,,,,,
0,58,58,47,1,,5fb7c5d4b92d683a2d367e6c,62bbf9a320e38978bb48e93b,2022-06-29_09h05.57.466,Colour_Asymmetry_Pilot,2022.1.3,Win32,60.06006006,62bbe60bf3d75ef465d3e404,,,,,,,,,,,,,,,,,,,,,,,,,,,,,,,,,,,,,,,,,,,,,,,,,,,,,,,,,,,,,,,,,,,,,,,,,,,,,,,,,,,,,,,,,,,,,,,,,,,,,,,,,,,,,,,,,,,,,,,,,,,,,,,,,,,,,,,,,,,,,,,,,,,,,,,,,,,,,,
0,59,59,22,1,,5fb7c5d4b92d683a2d367e6c,62bbf9a320e38978bb48e93b,2022-06-29_09h05.57.466,Colour_Asymmetry_Pilot,2022.1.3,Win32,60.06006006,62bbe60bf3d75ef465d3e404,,,,,,,,,,,,,,,,,,,,,,,,,,,,,,,,,,,,,,,,,,,,,,,,,,,,,,,,,,,,,,,,,,,,,,,,,,,,,,,,,,,,,,,,,,,,,,,,,,,,,,,,,,,,,,,,,,,,,,,,,,,,,,,,,,,,,,,,,,,,,,,,,,,,,,,,,,,,,,
0,60,60,51,1,,5fb7c5d4b92d683a2d367e6c,62bbf9a320e38978bb48e93b,2022-06-29_09h05.57.466,Colour_Asymmetry_Pilot,2022.1.3,Win32,60.06006006,62bbe60bf3d75ef465d3e404,,,,,,,,,,,,,,,,,,,,,,,,,,,,,,,,,,,,,,,,,,,,,,,,,,,,,,,,,,,,,,,,,,,,,,,,,,,,,,,,,,,,,,,,,,,,,,,,,,,,,,,,,,,,,,,,,,,,,,,,,,,,,,,,,,,,,,,,,,,,,,,,,,,,,,,,,,,,,,
0,61,61,70,1,,5fb7c5d4b92d683a2d367e6c,62bbf9a320e38978bb48e93b,2022-06-29_09h05.57.466,Colour_Asymmetry_Pilot,2022.1.3,Win32,60.06006006,62bbe60bf3d75ef465d3e404,,,,,,,,,,,,,,,,,,,,,,,,,,,,,,,,,,,,,,,,,,,,,,,,,,,,,,,,,,,,,,,,,,,,,,,,,,,,,,,,,,,,,,,,,,,,,,,,,,,,,,,,,,,,,,,,,,,,,,,,,,,,,,,,,,,,,,,,,,,,,,,,,,,,,,,,,,,,,,
0,62,62,61,1,,5fb7c5d4b92d683a2d367e6c,62bbf9a320e38978bb48e93b,2022-06-29_09h05.57.466,Colour_Asymmetry_Pilot,2022.1.3,Win32,60.06006006,62bbe60bf3d75ef465d3e404,,,,,,,,,,,,,,,,,,,,,,,,,,,,,,,,,,,,,,,,,,,,,,,,,,,,,,,,,,,,,,,,,,,,,,,,,,,,,,,,,,,,,,,,,,,,,,,,,,,,,,,,,,,,,,,,,,,,,,,,,,,,,,,,,,,,,,,,,,,,,,,,,,,,,,,,,,,,,,
0,63,63,57,1,,5fb7c5d4b92d683a2d367e6c,62bbf9a320e38978bb48e93b,2022-06-29_09h05.57.466,Colour_Asymmetry_Pilot,2022.1.3,Win32,60.06006006,62bbe60bf3d75ef465d3e404,,,,,,,,,,,,,,,,,,,,,,,,,,,,,,,,,,,,,,,,,,,,,,,,,,,,,,,,,,,,,,,,,,,,,,,,,,,,,,,,,,,,,,,,,,,,,,,,,,,,,,,,,,,,,,,,,,,,,,,,,,,,,,,,,,,,,,,,,,,,,,,,,,,,,,,,,,,,,,
0,64,64,8,1,,5fb7c5d4b92d683a2d367e6c,62bbf9a320e38978bb48e93b,2022-06-29_09h05.57.466,Colour_Asymmetry_Pilot,2022.1.3,Win32,60.06006006,62bbe60bf3d75ef465d3e404,,,,,,,,,,,,,,,,,,,,,,,,,,,,,,,,,,,,,,,,,,,,,,,,,,,,,,,,,,,,,,,,,,,,,,,,,,,,,,,,,,,,,,,,,,,,,,,,,,,,,,,,,,,,,,,,,,,,,,,,,,,,,,,,,,,,,,,,,,,,,,,,,,,,,,,,,,,,,,
0,65,65,67,1,,5fb7c5d4b92d683a2d367e6c,62bbf9a320e38978bb48e93b,2022-06-29_09h05.57.466,Colour_Asymmetry_Pilot,2022.1.3,Win32,60.06006006,62bbe60bf3d75ef465d3e404,,,,,,,,,,,,,,,,,,,,,,,,,,,,,,,,,,,,,,,,,,,,,,,,,,,,,,,,,,,,,,,,,,,,,,,,,,,,,,,,,,,,,,,,,,,,,,,,,,,,,,,,,,,,,,,,,,,,,,,,,,,,,,,,,,,,,,,,,,,,,,,,,,,,,,,,,,,,,,
0,66,66,53,1,,5fb7c5d4b92d683a2d367e6c,62bbf9a320e38978bb48e93b,2022-06-29_09h05.57.466,Colour_Asymmetry_Pilot,2022.1.3,Win32,60.06006006,62bbe60bf3d75ef465d3e404,,,,,,,,,,,,,,,,,,,,,,,,,,,,,,,,,,,,,,,,,,,,,,,,,,,,,,,,,,,,,,,,,,,,,,,,,,,,,,,,,,,,,,,,,,,,,,,,,,,,,,,,,,,,,,,,,,,,,,,,,,,,,,,,,,,,,,,,,,,,,,,,,,,,,,,,,,,,,,
0,67,67,30,1,,5fb7c5d4b92d683a2d367e6c,62bbf9a320e38978bb48e93b,2022-06-29_09h05.57.466,Colour_Asymmetry_Pilot,2022.1.3,Win32,60.06006006,62bbe60bf3d75ef465d3e404,,,,,,,,,,,,,,,,,,,,,,,,,,,,,,,,,,,,,,,,,,,,,,,,,,,,,,,,,,,,,,,,,,,,,,,,,,,,,,,,,,,,,,,,,,,,,,,,,,,,,,,,,,,,,,,,,,,,,,,,,,,,,,,,,,,,,,,,,,,,,,,,,,,,,,,,,,,,,,
0,68,68,4,1,,5fb7c5d4b92d683a2d367e6c,62bbf9a320e38978bb48e93b,2022-06-29_09h05.57.466,Colour_Asymmetry_Pilot,2022.1.3,Win32,60.06006006,62bbe60bf3d75ef465d3e404,,,,,,,,,,,,,,,,,,,,,,,,,,,,,,,,,,,,,,,,,,,,,,,,,,,,,,,,,,,,,,,,,,,,,,,,,,,,,,,,,,,,,,,,,,,,,,,,,,,,,,,,,,,,,,,,,,,,,,,,,,,,,,,,,,,,,,,,,,,,,,,,,,,,,,,,,,,,,,
0,69,69,87,1,,5fb7c5d4b92d683a2d367e6c,62bbf9a320e38978bb48e93b,2022-06-29_09h05.57.466,Colour_Asymmetry_Pilot,2022.1.3,Win32,60.06006006,62bbe60bf3d75ef465d3e404,,,,,,,,,,,,,,,,,,,,,,,,,,,,,,,,,,,,,,,,,,,,,,,,,,,,,,,,,,,,,,,,,,,,,,,,,,,,,,,,,,,,,,,,,,,,,,,,,,,,,,,,,,,,,,,,,,,,,,,,,,,,,,,,,,,,,,,,,,,,,,,,,,,,,,,,,,,,,,
0,70,70,59,1,,5fb7c5d4b92d683a2d367e6c,62bbf9a320e38978bb48e93b,2022-06-29_09h05.57.466,Colour_Asymmetry_Pilot,2022.1.3,Win32,60.06006006,62bbe60bf3d75ef465d3e404,,,,,,,,,,,,,,,,,,,,,,,,,,,,,,,,,,,,,,,,,,,,,,,,,,,,,,,,,,,,,,,,,,,,,,,,,,,,,,,,,,,,,,,,,,,,,,,,,,,,,,,,,,,,,,,,,,,,,,,,,,,,,,,,,,,,,,,,,,,,,,,,,,,,,,,,,,,,,,
0,71,71,26,1,,5fb7c5d4b92d683a2d367e6c,62bbf9a320e38978bb48e93b,2022-06-29_09h05.57.466,Colour_Asymmetry_Pilot,2022.1.3,Win32,60.06006006,62bbe60bf3d75ef465d3e404,,,,,,,,,,,,,,,,,,,,,,,,,,,,,,,,,,,,,,,,,,,,,,,,,,,,,,,,,,,,,,,,,,,,,,,,,,,,,,,,,,,,,,,,,,,,,,,,,,,,,,,,,,,,,,,,,,,,,,,,,,,,,,,,,,,,,,,,,,,,,,,,,,,,,,,,,,,,,,
0,72,72,35,1,,5fb7c5d4b92d683a2d367e6c,62bbf9a320e38978bb48e93b,2022-06-29_09h05.57.466,Colour_Asymmetry_Pilot,2022.1.3,Win32,60.06006006,62bbe60bf3d75ef465d3e404,,,,,,,,,,,,,,,,,,,,,,,,,,,,,,,,,,,,,,,,,,,,,,,,,,,,,,,,,,,,,,,,,,,,,,,,,,,,,,,,,,,,,,,,,,,,,,,,,,,,,,,,,,,,,,,,,,,,,,,,,,,,,,,,,,,,,,,,,,,,,,,,,,,,,,,,,,,,,,
0,73,73,60,1,,5fb7c5d4b92d683a2d367e6c,62bbf9a320e38978bb48e93b,2022-06-29_09h05.57.466,Colour_Asymmetry_Pilot,2022.1.3,Win32,60.06006006,62bbe60bf3d75ef465d3e404,,,,,,,,,,,,,,,,,,,,,,,,,,,,,,,,,,,,,,,,,,,,,,,,,,,,,,,,,,,,,,,,,,,,,,,,,,,,,,,,,,,,,,,,,,,,,,,,,,,,,,,,,,,,,,,,,,,,,,,,,,,,,,,,,,,,,,,,,,,,,,,,,,,,,,,,,,,,,,
0,74,74,18,1,,5fb7c5d4b92d683a2d367e6c,62bbf9a320e38978bb48e93b,2022-06-29_09h05.57.466,Colour_Asymmetry_Pilot,2022.1.3,Win32,60.06006006,62bbe60bf3d75ef465d3e404,,,,,,,,,,,,,,,,,,,,,,,,,,,,,,,,,,,,,,,,,,,,,,,,,,,,,,,,,,,,,,,,,,,,,,,,,,,,,,,,,,,,,,,,,,,,,,,,,,,,,,,,,,,,,,,,,,,,,,,,,,,,,,,,,,,,,,,,,,,,,,,,,,,,,,,,,,,,,,
0,75,75,11,1,,5fb7c5d4b92d683a2d367e6c,62bbf9a320e38978bb48e93b,2022-06-29_09h05.57.466,Colour_Asymmetry_Pilot,2022.1.3,Win32,60.06006006,62bbe60bf3d75ef465d3e404,,,,,,,,,,,,,,,,,,,,,,,,,,,,,,,,,,,,,,,,,,,,,,,,,,,,,,,,,,,,,,,,,,,,,,,,,,,,,,,,,,,,,,,,,,,,,,,,,,,,,,,,,,,,,,,,,,,,,,,,,,,,,,,,,,,,,,,,,,,,,,,,,,,,,,,,,,,,,,
0,76,76,20,1,,5fb7c5d4b92d683a2d367e6c,62bbf9a320e38978bb48e93b,2022-06-29_09h05.57.466,Colour_Asymmetry_Pilot,2022.1.3,Win32,60.06006006,62bbe60bf3d75ef465d3e404,,,,,,,,,,,,,,,,,,,,,,,,,,,,,,,,,,,,,,,,,,,,,,,,,,,,,,,,,,,,,,,,,,,,,,,,,,,,,,,,,,,,,,,,,,,,,,,,,,,,,,,,,,,,,,,,,,,,,,,,,,,,,,,,,,,,,,,,,,,,,,,,,,,,,,,,,,,,,,
0,77,77,69,1,,5fb7c5d4b92d683a2d367e6c,62bbf9a320e38978bb48e93b,2022-06-29_09h05.57.466,Colour_Asymmetry_Pilot,2022.1.3,Win32,60.06006006,62bbe60bf3d75ef465d3e404,,,,,,,,,,,,,,,,,,,,,,,,,,,,,,,,,,,,,,,,,,,,,,,,,,,,,,,,,,,,,,,,,,,,,,,,,,,,,,,,,,,,,,,,,,,,,,,,,,,,,,,,,,,,,,,,,,,,,,,,,,,,,,,,,,,,,,,,,,,,,,,,,,,,,,,,,,,,,,
0,78,78,77,1,,5fb7c5d4b92d683a2d367e6c,62bbf9a320e38978bb48e93b,2022-06-29_09h05.57.466,Colour_Asymmetry_Pilot,2022.1.3,Win32,60.06006006,62bbe60bf3d75ef465d3e404,,,,,,,,,,,,,,,,,,,,,,,,,,,,,,,,,,,,,,,,,,,,,,,,,,,,,,,,,,,,,,,,,,,,,,,,,,,,,,,,,,,,,,,,,,,,,,,,,,,,,,,,,,,,,,,,,,,,,,,,,,,,,,,,,,,,,,,,,,,,,,,,,,,,,,,,,,,,,,
0,79,79,17,1,,5fb7c5d4b92d683a2d367e6c,62bbf9a320e38978bb48e93b,2022-06-29_09h05.57.466,Colour_Asymmetry_Pilot,2022.1.3,Win32,60.06006006,62bbe60bf3d75ef465d3e404,,,,,,,,,,,,,,,,,,,,,,,,,,,,,,,,,,,,,,,,,,,,,,,,,,,,,,,,,,,,,,,,,,,,,,,,,,,,,,,,,,,,,,,,,,,,,,,,,,,,,,,,,,,,,,,,,,,,,,,,,,,,,,,,,,,,,,,,,,,,,,,,,,,,,,,,,,,,,,
0,80,80,24,1,,5fb7c5d4b92d683a2d367e6c,62bbf9a320e38978bb48e93b,2022-06-29_09h05.57.466,Colour_Asymmetry_Pilot,2022.1.3,Win32,60.06006006,62bbe60bf3d75ef465d3e404,,,,,,,,,,,,,,,,,,,,,,,,,,,,,,,,,,,,,,,,,,,,,,,,,,,,,,,,,,,,,,,,,,,,,,,,,,,,,,,,,,,,,,,,,,,,,,,,,,,,,,,,,,,,,,,,,,,,,,,,,,,,,,,,,,,,,,,,,,,,,,,,,,,,,,,,,,,,,,
0,81,81,74,1,,5fb7c5d4b92d683a2d367e6c,62bbf9a320e38978bb48e93b,2022-06-29_09h05.57.466,Colour_Asymmetry_Pilot,2022.1.3,Win32,60.06006006,62bbe60bf3d75ef465d3e404,,,,,,,,,,,,,,,,,,,,,,,,,,,,,,,,,,,,,,,,,,,,,,,,,,,,,,,,,,,,,,,,,,,,,,,,,,,,,,,,,,,,,,,,,,,,,,,,,,,,,,,,,,,,,,,,,,,,,,,,,,,,,,,,,,,,,,,,,,,,,,,,,,,,,,,,,,,,,,
0,82,82,37,1,,5fb7c5d4b92d683a2d367e6c,62bbf9a320e38978bb48e93b,2022-06-29_09h05.57.466,Colour_Asymmetry_Pilot,2022.1.3,Win32,60.06006006,62bbe60bf3d75ef465d3e404,,,,,,,,,,,,,,,,,,,,,,,,,,,,,,,,,,,,,,,,,,,,,,,,,,,,,,,,,,,,,,,,,,,,,,,,,,,,,,,,,,,,,,,,,,,,,,,,,,,,,,,,,,,,,,,,,,,,,,,,,,,,,,,,,,,,,,,,,,,,,,,,,,,,,,,,,,,,,,
0,83,83,86,1,,5fb7c5d4b92d683a2d367e6c,62bbf9a320e38978bb48e93b,2022-06-29_09h05.57.466,Colour_Asymmetry_Pilot,2022.1.3,Win32,60.06006006,62bbe60bf3d75ef465d3e404,,,,,,,,,,,,,,,,,,,,,,,,,,,,,,,,,,,,,,,,,,,,,,,,,,,,,,,,,,,,,,,,,,,,,,,,,,,,,,,,,,,,,,,,,,,,,,,,,,,,,,,,,,,,,,,,,,,,,,,,,,,,,,,,,,,,,,,,,,,,,,,,,,,,,,,,,,,,,,
0,84,84,41,1,,5fb7c5d4b92d683a2d367e6c,62bbf9a320e38978bb48e93b,2022-06-29_09h05.57.466,Colour_Asymmetry_Pilot,2022.1.3,Win32,60.06006006,62bbe60bf3d75ef465d3e404,,,,,,,,,,,,,,,,,,,,,,,,,,,,,,,,,,,,,,,,,,,,,,,,,,,,,,,,,,,,,,,,,,,,,,,,,,,,,,,,,,,,,,,,,,,,,,,,,,,,,,,,,,,,,,,,,,,,,,,,,,,,,,,,,,,,,,,,,,,,,,,,,,,,,,,,,,,,,,
0,85,85,62,1,,5fb7c5d4b92d683a2d367e6c,62bbf9a320e38978bb48e93b,2022-06-29_09h05.57.466,Colour_Asymmetry_Pilot,2022.1.3,Win32,60.06006006,62bbe60bf3d75ef465d3e404,,,,,,,,,,,,,,,,,,,,,,,,,,,,,,,,,,,,,,,,,,,,,,,,,,,,,,,,,,,,,,,,,,,,,,,,,,,,,,,,,,,,,,,,,,,,,,,,,,,,,,,,,,,,,,,,,,,,,,,,,,,,,,,,,,,,,,,,,,,,,,,,,,,,,,,,,,,,,,
0,86,86,12,1,,5fb7c5d4b92d683a2d367e6c,62bbf9a320e38978bb48e93b,2022-06-29_09h05.57.466,Colour_Asymmetry_Pilot,2022.1.3,Win32,60.06006006,62bbe60bf3d75ef465d3e404,,,,,,,,,,,,,,,,,,,,,,,,,,,,,,,,,,,,,,,,,,,,,,,,,,,,,,,,,,,,,,,,,,,,,,,,,,,,,,,,,,,,,,,,,,,,,,,,,,,,,,,,,,,,,,,,,,,,,,,,,,,,,,,,,,,,,,,,,,,,,,,,,,,,,,,,,,,,,,
0,87,87,19,1,,5fb7c5d4b92d683a2d367e6c,62bbf9a320e38978bb48e93b,2022-06-29_09h05.57.466,Colour_Asymmetry_Pilot,2022.1.3,Win32,60.06006006,62bbe60bf3d75ef465d3e404,,,,,,,,,,,,,,,,,,,,,,,,,,,,,,,,,,,,,,,,,,,,,,,,,,,,,,,,,,,,,,,,,,,,,,,,,,,,,,,,,,,,,,,,,,,,,,,,,,,,,,,,,,,,,,,,,,,,,,,,,,,,,,,,,,,,,,,,,,,,,,,,,,,,,,,,,,,,,,
0,88,88,36,1,,5fb7c5d4b92d683a2d367e6c,62bbf9a320e38978bb48e93b,2022-06-29_09h05.57.466,Colour_Asymmetry_Pilot,2022.1.3,Win32,60.06006006,62bbe60bf3d75ef465d3e404,,,,,,,,,,,,,,,,,,,,,,,,,,,,,,,,,,,,,,,,,,,,,,,,,,,,,,,,,,,,,,,,,,,,,,,,,,,,,,,,,,,,,,,,,,,,,,,,,,,,,,,,,,,,,,,,,,,,,,,,,,,,,,,,,,,,,,,,,,,,,,,,,,,,,,,,,,,,,,
0,89,89,91,1,,5fb7c5d4b92d683a2d367e6c,62bbf9a320e38978bb48e93b,2022-06-29_09h05.57.466,Colour_Asymmetry_Pilot,2022.1.3,Win32,60.06006006,62bbe60bf3d75ef465d3e404,,,,,,,,,,,,,,,,,,,,,,,,,,,,,,,,,,,,,,,,,,,,,,,,,,,,,,,,,,,,,,,,,,,,,,,,,,,,,,,,,,,,,,,,,,,,,,,,,,,,,,,,,,,,,,,,,,,,,,,,,,,,,,,,,,,,,,,,,,,,,,,,,,,,,,,,,,,,,,
0,90,90,14,1,,5fb7c5d4b92d683a2d367e6c,62bbf9a320e38978bb48e93b,2022-06-29_09h05.57.466,Colour_Asymmetry_Pilot,2022.1.3,Win32,60.06006006,62bbe60bf3d75ef465d3e404,,,,,,,,,,,,,,,,,,,,,,,,,,,,,,,,,,,,,,,,,,,,,,,,,,,,,,,,,,,,,,,,,,,,,,,,,,,,,,,,,,,,,,,,,,,,,,,,,,,,,,,,,,,,,,,,,,,,,,,,,,,,,,,,,,,,,,,,,,,,,,,,,,,,,,,,,,,,,,
0,91,91,25,1,,5fb7c5d4b92d683a2d367e6c,62bbf9a320e38978bb48e93b,2022-06-29_09h05.57.466,Colour_Asymmetry_Pilot,2022.1.3,Win32,60.06006006,62bbe60bf3d75ef465d3e404,,,,,,,,,,,,,,,,,,,,,,,,,,,,,,,,,,,,,,,,,,,,,,,,,,,,,,,,,,,,,,,,,,,,,,,,,,,,,,,,,,,,,,,,,,,,,,,,,,,,,,,,,,,,,,,,,,,,,,,,,,,,,,,,,,,,,,,,,,,,,,,,,,,,,,,,,,,,,,
0,92,92,55,1,,5fb7c5d4b92d683a2d367e6c,62bbf9a320e38978bb48e93b,2022-06-29_09h05.57.466,Colour_Asymmetry_Pilot,2022.1.3,Win32,60.06006006,62bbe60bf3d75ef465d3e404,,,,,,,,,,,,,,,,,,,,,,,,,,,,,,,,,,,,,,,,,,,,,,,,,,,,,,,,,,,,,,,,,,,,,,,,,,,,,,,,,,,,,,,,,,,,,,,,,,,,,,,,,,,,,,,,,,,,,,,,,,,,,,,,,,,,,,,,,,,,,,,,,,,,,,,,,,,,,,
,,,,,,5fb7c5d4b92d683a2d367e6c,62bbf9a320e38978bb48e93b,2022-06-29_09h05.57.466,Colour_Asymmetry_Pilot,2022.1.3,Win32,60.06006006,62bbe60bf3d75ef465d3e404,0,0,0,27,1,twofour,,,,,,,,,,,,,,,,,,,,,,,,,,,,,,,,,,,,,,,,,,,,,,,,,,,,,,,,,,,,,,,,,,,,,,,,,,,,,,,,,,,,,,,,,,,,,,,,,,,,,,,,,,,,,,,,,,,,,,,,,,,,,,,,,,,,,,,,,,,,,,,,,,,,,,,,
,,,,,,5fb7c5d4b92d683a2d367e6c,62bbf9a320e38978bb48e93b,2022-06-29_09h05.57.466,Colour_Asymmetry_Pilot,2022.1.3,Win32,60.06006006,62bbe60bf3d75ef465d3e404,0,1,1,130,1,twoone,,,,,,,,,,,,,,,,,,,,,,,,,,,,,,,,,,,,,,,,,,,,,,,,,,,,,,,,,,,,,,,,,,,,,,,,,,,,,,,,,,,,,,,,,,,,,,,,,,,,,,,,,,,,,,,,,,,,,,,,,,,,,,,,,,,,,,,,,,,,,,,,,,,,,,,,
,,,,,,5fb7c5d4b92d683a2d367e6c,62bbf9a320e38978bb48e93b,2022-06-29_09h05.57.466,Colour_Asymmetry_Pilot,2022.1.3,Win32,60.06006006,62bbe60bf3d75ef465d3e404,0,2,2,10,1,twoone,,,,,,,,,,,,,,,,,,,,,,,,,,,,,,,,,,,,,,,,,,,,,,,,,,,,,,,,,,,,,,,,,,,,,,,,,,,,,,,,,,,,,,,,,,,,,,,,,,,,,,,,,,,,,,,,,,,,,,,,,,,,,,,,,,,,,,,,,,,,,,,,,,,,,,,,
,,,,,,5fb7c5d4b92d683a2d367e6c,62bbf9a320e38978bb48e93b,2022-06-29_09h05.57.466,Colour_Asymmetry_Pilot,2022.1.3,Win32,60.06006006,62bbe60bf3d75ef465d3e404,0,3,3,102,1,fourtwo,,,,,,,,,,,,,,,,,,,,,,,,,,,,,,,,,,,,,,,,,,,,,,,,,,,,,,,,,,,,,,,,,,,,,,,,,,,,,,,,,,,,,,,,,,,,,,,,,,,,,,,,,,,,,,,,,,,,,,,,,,,,,,,,,,,,,,,,,,,,,,,,,,,,,,,,
,,,,,,5fb7c5d4b92d683a2d367e6c,62bbf9a320e38978bb48e93b,2022-06-29_09h05.57.466,Colour_Asymmetry_Pilot,2022.1.3,Win32,60.06006006,62bbe60bf3d75ef465d3e404,0,4,4,120,1,onetwo,,,,,,,,,,,,,,,,,,,,,,,,,,,,,,,,,,,,,,,,,,,,,,,,,,,,,,,,,,,,,,,,,,,,,,,,,,,,,,,,,,,,,,,,,,,,,,,,,,,,,,,,,,,,,,,,,,,,,,,,,,,,,,,,,,,,,,,,,,,,,,,,,,,,,,,,
,,,,,,5fb7c5d4b92d683a2d367e6c,62bbf9a320e38978bb48e93b,2022-06-29_09h05.57.466,Colour_Asymmetry_Pilot,2022.1.3,Win32,60.06006006,62bbe60bf3d75ef465d3e404,0,5,5,131,1,twofour,,,,,,,,,,,,,,,,,,,,,,,,,,,,,,,,,,,,,,,,,,,,,,,,,,,,,,,,,,,,,,,,,,,,,,,,,,,,,,,,,,,,,,,,,,,,,,,,,,,,,,,,,,,,,,,,,,,,,,,,,,,,,,,,,,,,,,,,,,,,,,,,,,,,,,,,
,,,,,,5fb7c5d4b92d683a2d367e6c,62bbf9a320e38978bb48e93b,2022-06-29_09h05.57.466,Colour_Asymmetry_Pilot,2022.1.3,Win32,60.06006006,62bbe60bf3d75ef465d3e404,0,6,6,159,1,fourthree,,,,,,,,,,,,,,,,,,,,,,,,,,,,,,,,,,,,,,,,,,,,,,,,,,,,,,,,,,,,,,,,,,,,,,,,,,,,,,,,,,,,,,,,,,,,,,,,,,,,,,,,,,,,,,,,,,,,,,,,,,,,,,,,,,,,,,,,,,,,,,,,,,,,,,,,
,,,,,,5fb7c5d4b92d683a2d367e6c,62bbf9a320e38978bb48e93b,2022-06-29_09h05.57.466,Colour_Asymmetry_Pilot,2022.1.3,Win32,60.06006006,62bbe60bf3d75ef465d3e404,0,7,7,98,1,twoone,,,,,,,,,,,,,,,,,,,,,,,,,,,,,,,,,,,,,,,,,,,,,,,,,,,,,,,,,,,,,,,,,,,,,,,,,,,,,,,,,,,,,,,,,,,,,,,,,,,,,,,,,,,,,,,,,,,,,,,,,,,,,,,,,,,,,,,,,,,,,,,,,,,,,,,,
,,,,,,5fb7c5d4b92d683a2d367e6c,62bbf9a320e38978bb48e93b,2022-06-29_09h05.57.466,Colour_Asymmetry_Pilot,2022.1.3,Win32,60.06006006,62bbe60bf3d75ef465d3e404,0,8,8,55,1,fourthree,,,,,,,,,,,,,,,,,,,,,,,,,,,,,,,,,,,,,,,,,,,,,,,,,,,,,,,,,,,,,,,,,,,,,,,,,,,,,,,,,,,,,,,,,,,,,,,,,,,,,,,,,,,,,,,,,,,,,,,,,,,,,,,,,,,,,,,,,,,,,,,,,,,,,,,,
,,,,,,5fb7c5d4b92d683a2d367e6c,62bbf9a320e38978bb48e93b,2022-06-29_09h05.57.466,Colour_Asymmetry_Pilot,2022.1.3,Win32,60.06006006,62bbe60bf3d75ef465d3e404,0,9,9,51,1,twofour,,,,,,,,,,,,,,,,,,,,,,,,,,,,,,,,,,,,,,,,,,,,,,,,,,,,,,,,,,,,,,,,,,,,,,,,,,,,,,,,,,,,,,,,,,,,,,,,,,,,,,,,,,,,,,,,,,,,,,,,,,,,,,,,,,,,,,,,,,,,,,,,,,,,,,,,
,,,,,,5fb7c5d4b92d683a2d367e6c,62bbf9a320e38978bb48e93b,2022-06-29_09h05.57.466,Colour_Asymmetry_Pilot,2022.1.3,Win32,60.06006006,62bbe60bf3d75ef465d3e404,0,10,10,58,1,twoone,,,,,,,,,,,,,,,,,,,,,,,,,,,,,,,,,,,,,,,,,,,,,,,,,,,,,,,,,,,,,,,,,,,,,,,,,,,,,,,,,,,,,,,,,,,,,,,,,,,,,,,,,,,,,,,,,,,,,,,,,,,,,,,,,,,,,,,,,,,,,,,,,,,,,,,,
,,,,,,5fb7c5d4b92d683a2d367e6c,62bbf9a320e38978bb48e93b,2022-06-29_09h05.57.466,Colour_Asymmetry_Pilot,2022.1.3,Win32,60.06006006,62bbe60bf3d75ef465d3e404,0,11,11,92,1,threeone,,,,,,,,,,,,,,,,,,,,,,,,,,,,,,,,,,,,,,,,,,,,,,,,,,,,,,,,,,,,,,,,,,,,,,,,,,,,,,,,,,,,,,,,,,,,,,,,,,,,,,,,,,,,,,,,,,,,,,,,,,,,,,,,,,,,,,,,,,,,,,,,,,,,,,,,
,,,,,,5fb7c5d4b92d683a2d367e6c,62bbf9a320e38978bb48e93b,2022-06-29_09h05.57.466,Colour_Asymmetry_Pilot,2022.1.3,Win32,60.06006006,62bbe60bf3d75ef465d3e404,0,12,12,25,1,onethree,,,,,,,,,,,,,,,,,,,,,,,,,,,,,,,,,,,,,,,,,,,,,,,,,,,,,,,,,,,,,,,,,,,,,,,,,,,,,,,,,,,,,,,,,,,,,,,,,,,,,,,,,,,,,,,,,,,,,,,,,,,,,,,,,,,,,,,,,,,,,,,,,,,,,,,,
,,,,,,5fb7c5d4b92d683a2d367e6c,62bbf9a320e38978bb48e93b,2022-06-29_09h05.57.466,Colour_Asymmetry_Pilot,2022.1.3,Win32,60.06006006,62bbe60bf3d75ef465d3e404,0,13,13,87,1,fourthree,,,,,,,,,,,,,,,,,,,,,,,,,,,,,,,,,,,,,,,,,,,,,,,,,,,,,,,,,,,,,,,,,,,,,,,,,,,,,,,,,,,,,,,,,,,,,,,,,,,,,,,,,,,,,,,,,,,,,,,,,,,,,,,,,,,,,,,,,,,,,,,,,,,,,,,,
,,,,,,5fb7c5d4b92d683a2d367e6c,62bbf9a320e38978bb48e93b,2022-06-29_09h05.57.466,Colour_Asymmetry_Pilot,2022.1.3,Win32,60.06006006,62bbe60bf3d75ef465d3e404,0,14,14,119,1,fourthree,,,,,,,,,,,,,,,,,,,,,,,,,,,,,,,,,,,,,,,,,,,,,,,,,,,,,,,,,,,,,,,,,,,,,,,,,,,,,,,,,,,,,,,,,,,,,,,,,,,,,,,,,,,,,,,,,,,,,,,,,,,,,,,,,,,,,,,,,,,,,,,,,,,,,,,,
,,,,,,5fb7c5d4b92d683a2d367e6c,62bbf9a320e38978bb48e93b,2022-06-29_09h05.57.466,Colour_Asymmetry_Pilot,2022.1.3,Win32,60.06006006,62bbe60bf3d75ef465d3e404,0,15,15,82,1,twoone,,,,,,,,,,,,,,,,,,,,,,,,,,,,,,,,,,,,,,,,,,,,,,,,,,,,,,,,,,,,,,,,,,,,,,,,,,,,,,,,,,,,,,,,,,,,,,,,,,,,,,,,,,,,,,,,,,,,,,,,,,,,,,,,,,,,,,,,,,,,,,,,,,,,,,,,
,,,,,,5fb7c5d4b92d683a2d367e6c,62bbf9a320e38978bb48e93b,2022-06-29_09h05.57.466,Colour_Asymmetry_Pilot,2022.1.3,Win32,60.06006006,62bbe60bf3d75ef465d3e404,0,16,16,83,1,twofour,,,,,,,,,,,,,,,,,,,,,,,,,,,,,,,,,,,,,,,,,,,,,,,,,,,,,,,,,,,,,,,,,,,,,,,,,,,,,,,,,,,,,,,,,,,,,,,,,,,,,,,,,,,,,,,,,,,,,,,,,,,,,,,,,,,,,,,,,,,,,,,,,,,,,,,,
,,,,,,5fb7c5d4b92d683a2d367e6c,62bbf9a320e38978bb48e93b,2022-06-29_09h05.57.466,Colour_Asymmetry_Pilot,2022.1.3,Win32,60.06006006,62bbe60bf3d75ef465d3e404,0,17,17,12,1,threeone,,,,,,,,,,,,,,,,,,,,,,,,,,,,,,,,,,,,,,,,,,,,,,,,,,,,,,,,,,,,,,,,,,,,,,,,,,,,,,,,,,,,,,,,,,,,,,,,,,,,,,,,,,,,,,,,,,,,,,,,,,,,,,,,,,,,,,,,,,,,,,,,,,,,,,,,
,,,,,,5fb7c5d4b92d683a2d367e6c,62bbf9a320e38978bb48e93b,2022-06-29_09h05.57.466,Colour_Asymmetry_Pilot,2022.1.3,Win32,60.06006006,62bbe60bf3d75ef465d3e404,0,18,18,122,1,twoone,,,,,,,,,,,,,,,,,,,,,,,,,,,,,,,,,,,,,,,,,,,,,,,,,,,,,,,,,,,,,,,,,,,,,,,,,,,,,,,,,,,,,,,,,,,,,,,,,,,,,,,,,,,,,,,,,,,,,,,,,,,,,,,,,,,,,,,,,,,,,,,,,,,,,,,,
,,,,,,5fb7c5d4b92d683a2d367e6c,62bbf9a320e38978bb48e93b,2022-06-29_09h05.57.466,Colour_Asymmetry_Pilot,2022.1.3,Win32,60.06006006,62bbe60bf3d75ef465d3e404,0,19,19,48,1,onetwo,,,,,,,,,,,,,,,,,,,,,,,,,,,,,,,,,,,,,,,,,,,,,,,,,,,,,,,,,,,,,,,,,,,,,,,,,,,,,,,,,,,,,,,,,,,,,,,,,,,,,,,,,,,,,,,,,,,,,,,,,,,,,,,,,,,,,,,,,,,,,,,,,,,,,,,,
,,,,,,5fb7c5d4b92d683a2d367e6c,62bbf9a320e38978bb48e93b,2022-06-29_09h05.57.466,Colour_Asymmetry_Pilot,2022.1.3,Win32,60.06006006,62bbe60bf3d75ef465d3e404,0,20,20,23,1,fourthree,,,,,,,,,,,,,,,,,,,,,,,,,,,,,,,,,,,,,,,,,,,,,,,,,,,,,,,,,,,,,,,,,,,,,,,,,,,,,,,,,,,,,,,,,,,,,,,,,,,,,,,,,,,,,,,,,,,,,,,,,,,,,,,,,,,,,,,,,,,,,,,,,,,,,,,,
,,,,,,5fb7c5d4b92d683a2d367e6c,62bbf9a320e38978bb48e93b,2022-06-29_09h05.57.466,Colour_Asymmetry_Pilot,2022.1.3,Win32,60.06006006,62bbe60bf3d75ef465d3e404,0,21,21,111,1,fourthree,,,,,,,,,,,,,,,,,,,,,,,,,,,,,,,,,,,,,,,,,,,,,,,,,,,,,,,,,,,,,,,,,,,,,,,,,,,,,,,,,,,,,,,,,,,,,,,,,,,,,,,,,,,,,,,,,,,,,,,,,,,,,,,,,,,,,,,,,,,,,,,,,,,,,,,,
,,,,,,5fb7c5d4b92d683a2d367e6c,62bbf9a320e38978bb48e93b,2022-06-29_09h05.57.466,Colour_Asymmetry_Pilot,2022.1.3,Win32,60.06006006,62bbe60bf3d75ef465d3e404,0,22,22,101,1,threefour,,,,,,,,,,,,,,,,,,,,,,,,,,,,,,,,,,,,,,,,,,,,,,,,,,,,,,,,,,,,,,,,,,,,,,,,,,,,,,,,,,,,,,,,,,,,,,,,,,,,,,,,,,,,,,,,,,,,,,,,,,,,,,,,,,,,,,,,,,,,,,,,,,,,,,,,
,,,,,,5fb7c5d4b92d683a2d367e6c,62bbf9a320e38978bb48e93b,2022-06-29_09h05.57.466,Colour_Asymmetry_Pilot,2022.1.3,Win32,60.06006006,62bbe60bf3d75ef465d3e404,0,23,23,41,1,onethree,,,,,,,,,,,,,,,,,,,,,,,,,,,,,,,,,,,,,,,,,,,,,,,,,,,,,,,,,,,,,,,,,,,,,,,,,,,,,,,,,,,,,,,,,,,,,,,,,,,,,,,,,,,,,,,,,,,,,,,,,,,,,,,,,,,,,,,,,,,,,,,,,,,,,,,,
,,,,,,5fb7c5d4b92d683a2d367e6c,62bbf9a320e38978bb48e93b,2022-06-29_09h05.57.466,Colour_Asymmetry_Pilot,2022.1.3,Win32,60.06006006,62bbe60bf3d75ef465d3e404,0,24,24,99,1,twofour,,,,,,,,,,,,,,,,,,,,,,,,,,,,,,,,,,,,,,,,,,,,,,,,,,,,,,,,,,,,,,,,,,,,,,,,,,,,,,,,,,,,,,,,,,,,,,,,,,,,,,,,,,,,,,,,,,,,,,,,,,,,,,,,,,,,,,,,,,,,,,,,,,,,,,,,
,,,,,,5fb7c5d4b92d683a2d367e6c,62bbf9a320e38978bb48e93b,2022-06-29_09h05.57.466,Colour_Asymmetry_Pilot,2022.1.3,Win32,60.06006006,62bbe60bf3d75ef465d3e404,0,25,25,31,1,fourthree,,,,,,,,,,,,,,,,,,,,,,,,,,,,,,,,,,,,,,,,,,,,,,,,,,,,,,,,,,,,,,,,,,,,,,,,,,,,,,,,,,,,,,,,,,,,,,,,,,,,,,,,,,,,,,,,,,,,,,,,,,,,,,,,,,,,,,,,,,,,,,,,,,,,,,,,
,,,,,,5fb7c5d4b92d683a2d367e6c,62bbf9a320e38978bb48e93b,2022-06-29_09h05.57.466,Colour_Asymmetry_Pilot,2022.1.3,Win32,60.06006006,62bbe60bf3d75ef465d3e404,0,26,26,45,1,threefour,,,,,,,,,,,,,,,,,,,,,,,,,,,,,,,,,,,,,,,,,,,,,,,,,,,,,,,,,,,,,,,,,,,,,,,,,,,,,,,,,,,,,,,,,,,,,,,,,,,,,,,,,,,,,,,,,,,,,,,,,,,,,,,,,,,,,,,,,,,,,,,,,,,,,,,,
,,,,,,5fb7c5d4b92d683a2d367e6c,62bbf9a320e38978bb48e93b,2022-06-29_09h05.57.466,Colour_Asymmetry_Pilot,2022.1.3,Win32,60.06006006,62bbe60bf3d75ef465d3e404,0,27,27,161,1,onethree,,,,,,,,,,,,,,,,,,,,,,,,,,,,,,,,,,,,,,,,,,,,,,,,,,,,,,,,,,,,,,,,,,,,,,,,,,,,,,,,,,,,,,,,,,,,,,,,,,,,,,,,,,,,,,,,,,,,,,,,,,,,,,,,,,,,,,,,,,,,,,,,,,,,,,,,
,,,,,,5fb7c5d4b92d683a2d367e6c,62bbf9a320e38978bb48e93b,2022-06-29_09h05.57.466,Colour_Asymmetry_Pilot,2022.1.3,Win32,60.06006006,62bbe60bf3d75ef465d3e404,0,28,28,142,1,fourtwo,,,,,,,,,,,,,,,,,,,,,,,,,,,,,,,,,,,,,,,,,,,,,,,,,,,,,,,,,,,,,,,,,,,,,,,,,,,,,,,,,,,,,,,,,,,,,,,,,,,,,,,,,,,,,,,,,,,,,,,,,,,,,,,,,,,,,,,,,,,,,,,,,,,,,,,,
,,,,,,5fb7c5d4b92d683a2d367e6c,62bbf9a320e38978bb48e93b,2022-06-29_09h05.57.466,Colour_Asymmetry_Pilot,2022.1.3,Win32,60.06006006,62bbe60bf3d75ef465d3e404,0,29,29,106,1,twoone,,,,,,,,,,,,,,,,,,,,,,,,,,,,,,,,,,,,,,,,,,,,,,,,,,,,,,,,,,,,,,,,,,,,,,,,,,,,,,,,,,,,,,,,,,,,,,,,,,,,,,,,,,,,,,,,,,,,,,,,,,,,,,,,,,,,,,,,,,,,,,,,,,,,,,,,
,,,,,,5fb7c5d4b92d683a2d367e6c,62bbf9a320e38978bb48e93b,2022-06-29_09h05.57.466,Colour_Asymmetry_Pilot,2022.1.3,Win32,60.06006006,62bbe60bf3d75ef465d3e404,0,30,30,64,1,onetwo,,,,,,,,,,,,,,,,,,,,,,,,,,,,,,,,,,,,,,,,,,,,,,,,,,,,,,,,,,,,,,,,,,,,,,,,,,,,,,,,,,,,,,,,,,,,,,,,,,,,,,,,,,,,,,,,,,,,,,,,,,,,,,,,,,,,,,,,,,,,,,,,,,,,,,,,
,,,,,,5fb7c5d4b92d683a2d367e6c,62bbf9a320e38978bb48e93b,2022-06-29_09h05.57.466,Colour_Asymmetry_Pilot,2022.1.3,Win32,60.06006006,62bbe60bf3d75ef465d3e404,0,31,31,77,1,threefour,,,,,,,,,,,,,,,,,,,,,,,,,,,,,,,,,,,,,,,,,,,,,,,,,,,,,,,,,,,,,,,,,,,,,,,,,,,,,,,,,,,,,,,,,,,,,,,,,,,,,,,,,,,,,,,,,,,,,,,,,,,,,,,,,,,,,,,,,,,,,,,,,,,,,,,,
,,,,,,5fb7c5d4b92d683a2d367e6c,62bbf9a320e38978bb48e93b,2022-06-29_09h05.57.466,Colour_Asymmetry_Pilot,2022.1.3,Win32,60.06006006,62bbe60bf3d75ef465d3e404,0,32,32,26,1,twoone,,,,,,,,,,,,,,,,,,,,,,,,,,,,,,,,,,,,,,,,,,,,,,,,,,,,,,,,,,,,,,,,,,,,,,,,,,,,,,,,,,,,,,,,,,,,,,,,,,,,,,,,,,,,,,,,,,,,,,,,,,,,,,,,,,,,,,,,,,,,,,,,,,,,,,,,
,,,,,,5fb7c5d4b92d683a2d367e6c,62bbf9a320e38978bb48e93b,2022-06-29_09h05.57.466,Colour_Asymmetry_Pilot,2022.1.3,Win32,60.06006006,62bbe60bf3d75ef465d3e404,0,33,33,59,1,twofour,,,,,,,,,,,,,,,,,,,,,,,,,,,,,,,,,,,,,,,,,,,,,,,,,,,,,,,,,,,,,,,,,,,,,,,,,,,,,,,,,,,,,,,,,,,,,,,,,,,,,,,,,,,,,,,,,,,,,,,,,,,,,,,,,,,,,,,,,,,,,,,,,,,,,,,,
,,,,,,5fb7c5d4b92d683a2d367e6c,62bbf9a320e38978bb48e93b,2022-06-29_09h05.57.466,Colour_Asymmetry_Pilot,2022.1.3,Win32,60.06006006,62bbe60bf3d75ef465d3e404,0,34,34,18,1,twoone,,,,,,,,,,,,,,,,,,,,,,,,,,,,,,,,,,,,,,,,,,,,,,,,,,,,,,,,,,,,,,,,,,,,,,,,,,,,,,,,,,,,,,,,,,,,,,,,,,,,,,,,,,,,,,,,,,,,,,,,,,,,,,,,,,,,,,,,,,,,,,,,,,,,,,,,
,,,,,,5fb7c5d4b92d683a2d367e6c,62bbf9a320e38978bb48e93b,2022-06-29_09h05.57.466,Colour_Asymmetry_Pilot,2022.1.3,Win32,60.06006006,62bbe60bf3d75ef465d3e404,0,35,35,143,1,fourthree,,,,,,,,,,,,,,,,,,,,,,,,,,,,,,,,,,,,,,,,,,,,,,,,,,,,,,,,,,,,,,,,,,,,,,,,,,,,,,,,,,,,,,,,,,,,,,,,,,,,,,,,,,,,,,,,,,,,,,,,,,,,,,,,,,,,,,,,,,,,,,,,,,,,,,,,
,,,,,,5fb7c5d4b92d683a2d367e6c,62bbf9a320e38978bb48e93b,2022-06-29_09h05.57.466,Colour_Asymmetry_Pilot,2022.1.3,Win32,60.06006006,62bbe60bf3d75ef465d3e404,0,36,36,121,1,onethree,,,,,,,,,,,,,,,,,,,,,,,,,,,,,,,,,,,,,,,,,,,,,,,,,,,,,,,,,,,,,,,,,,,,,,,,,,,,,,,,,,,,,,,,,,,,,,,,,,,,,,,,,,,,,,,,,,,,,,,,,,,,,,,,,,,,,,,,,,,,,,,,,,,,,,,,
,,,,,,5fb7c5d4b92d683a2d367e6c,62bbf9a320e38978bb48e93b,2022-06-29_09h05.57.466,Colour_Asymmetry_Pilot,2022.1.3,Win32,60.06006006,62bbe60bf3d75ef465d3e404,0,37,37,140,1,threeone,,,,,,,,,,,,,,,,,,,,,,,,,,,,,,,,,,,,,,,,,,,,,,,,,,,,,,,,,,,,,,,,,,,,,,,,,,,,,,,,,,,,,,,,,,,,,,,,,,,,,,,,,,,,,,,,,,,,,,,,,,,,,,,,,,,,,,,,,,,,,,,,,,,,,,,,
,,,,,,5fb7c5d4b92d683a2d367e6c,62bbf9a320e38978bb48e93b,2022-06-29_09h05.57.466,Colour_Asymmetry_Pilot,2022.1.3,Win32,60.06006006,62bbe60bf3d75ef465d3e404,0,38,38,97,1,onethree,,,,,,,,,,,,,,,,,,,,,,,,,,,,,,,,,,,,,,,,,,,,,,,,,,,,,,,,,,,,,,,,,,,,,,,,,,,,,,,,,,,,,,,,,,,,,,,,,,,,,,,,,,,,,,,,,,,,,,,,,,,,,,,,,,,,,,,,,,,,,,,,,,,,,,,,
,,,,,,5fb7c5d4b92d683a2d367e6c,62bbf9a320e38978bb48e93b,2022-06-29_09h05.57.466,Colour_Asymmetry_Pilot,2022.1.3,Win32,60.06006006,62bbe60bf3d75ef465d3e404,0,39,39,108,1,threeone,,,,,,,,,,,,,,,,,,,,,,,,,,,,,,,,,,,,,,,,,,,,,,,,,,,,,,,,,,,,,,,,,,,,,,,,,,,,,,,,,,,,,,,,,,,,,,,,,,,,,,,,,,,,,,,,,,,,,,,,,,,,,,,,,,,,,,,,,,,,,,,,,,,,,,,,
,,,,,,5fb7c5d4b92d683a2d367e6c,62bbf9a320e38978bb48e93b,2022-06-29_09h05.57.466,Colour_Asymmetry_Pilot,2022.1.3,Win32,60.06006006,62bbe60bf3d75ef465d3e404,0,40,40,15,1,fourthree,,,,,,,,,,,,,,,,,,,,,,,,,,,,,,,,,,,,,,,,,,,,,,,,,,,,,,,,,,,,,,,,,,,,,,,,,,,,,,,,,,,,,,,,,,,,,,,,,,,,,,,,,,,,,,,,,,,,,,,,,,,,,,,,,,,,,,,,,,,,,,,,,,,,,,,,
,,,,,,5fb7c5d4b92d683a2d367e6c,62bbf9a320e38978bb48e93b,2022-06-29_09h05.57.466,Colour_Asymmetry_Pilot,2022.1.3,Win32,60.06006006,62bbe60bf3d75ef465d3e404,0,41,41,22,1,fourtwo,,,,,,,,,,,,,,,,,,,,,,,,,,,,,,,,,,,,,,,,,,,,,,,,,,,,,,,,,,,,,,,,,,,,,,,,,,,,,,,,,,,,,,,,,,,,,,,,,,,,,,,,,,,,,,,,,,,,,,,,,,,,,,,,,,,,,,,,,,,,,,,,,,,,,,,,
,,,,,,5fb7c5d4b92d683a2d367e6c,62bbf9a320e38978bb48e93b,2022-06-29_09h05.57.466,Colour_Asymmetry_Pilot,2022.1.3,Win32,60.06006006,62bbe60bf3d75ef465d3e404,0,42,42,112,1,onetwo,,,,,,,,,,,,,,,,,,,,,,,,,,,,,,,,,,,,,,,,,,,,,,,,,,,,,,,,,,,,,,,,,,,,,,,,,,,,,,,,,,,,,,,,,,,,,,,,,,,,,,,,,,,,,,,,,,,,,,,,,,,,,,,,,,,,,,,,,,,,,,,,,,,,,,,,
,,,,,,5fb7c5d4b92d683a2d367e6c,62bbf9a320e38978bb48e93b,2022-06-29_09h05.57.466,Colour_Asymmetry_Pilot,2022.1.3,Win32,60.06006006,62bbe60bf3d75ef465d3e404,0,43,43,8,1,onetwo,,,,,,,,,,,,,,,,,,,,,,,,,,,,,,,,,,,,,,,,,,,,,,,,,,,,,,,,,,,,,,,,,,,,,,,,,,,,,,,,,,,,,,,,,,,,,,,,,,,,,,,,,,,,,,,,,,,,,,,,,,,,,,,,,,,,,,,,,,,,,,,,,,,,,,,,
,,,,,,5fb7c5d4b92d683a2d367e6c,62bbf9a320e38978bb48e93b,2022-06-29_09h05.57.466,Colour_Asymmetry_Pilot,2022.1.3,Win32,60.06006006,62bbe60bf3d75ef465d3e404,0,44,44,110,1,fourtwo,,,,,,,,,,,,,,,,,,,,,,,,,,,,,,,,,,,,,,,,,,,,,,,,,,,,,,,,,,,,,,,,,,,,,,,,,,,,,,,,,,,,,,,,,,,,,,,,,,,,,,,,,,,,,,,,,,,,,,,,,,,,,,,,,,,,,,,,,,,,,,,,,,,,,,,,
,,,,,,5fb7c5d4b92d683a2d367e6c,62bbf9a320e38978bb48e93b,2022-06-29_09h05.57.466,Colour_Asymmetry_Pilot,2022.1.3,Win32,60.06006006,62bbe60bf3d75ef465d3e404,0,45,45,124,1,threeone,,,,,,,,,,,,,,,,,,,,,,,,,,,,,,,,,,,,,,,,,,,,,,,,,,,,,,,,,,,,,,,,,,,,,,,,,,,,,,,,,,,,,,,,,,,,,,,,,,,,,,,,,,,,,,,,,,,,,,,,,,,,,,,,,,,,,,,,,,,,,,,,,,,,,,,,
,,,,,,5fb7c5d4b92d683a2d367e6c,62bbf9a320e38978bb48e93b,2022-06-29_09h05.57.466,Colour_Asymmetry_Pilot,2022.1.3,Win32,60.06006006,62bbe60bf3d75ef465d3e404,0,46,46,160,1,onetwo,,,,,,,,,,,,,,,,,,,,,,,,,,,,,,,,,,,,,,,,,,,,,,,,,,,,,,,,,,,,,,,,,,,,,,,,,,,,,,,,,,,,,,,,,,,,,,,,,,,,,,,,,,,,,,,,,,,,,,,,,,,,,,,,,,,,,,,,,,,,,,,,,,,,,,,,
,,,,,,5fb7c5d4b92d683a2d367e6c,62bbf9a320e38978bb48e93b,2022-06-29_09h05.57.466,Colour_Asymmetry_Pilot,2022.1.3,Win32,60.06006006,62bbe60bf3d75ef465d3e404,0,47,47,19,1,twofour,,,,,,,,,,,,,,,,,,,,,,,,,,,,,,,,,,,,,,,,,,,,,,,,,,,,,,,,,,,,,,,,,,,,,,,,,,,,,,,,,,,,,,,,,,,,,,,,,,,,,,,,,,,,,,,,,,,,,,,,,,,,,,,,,,,,,,,,,,,,,,,,,,,,,,,,
,,,,,,5fb7c5d4b92d683a2d367e6c,62bbf9a320e38978bb48e93b,2022-06-29_09h05.57.466,Colour_Asymmetry_Pilot,2022.1.3,Win32,60.06006006,62bbe60bf3d75ef465d3e404,0,48,48,50,1,twoone,,,,,,,,,,,,,,,,,,,,,,,,,,,,,,,,,,,,,,,,,,,,,,,,,,,,,,,,,,,,,,,,,,,,,,,,,,,,,,,,,,,,,,,,,,,,,,,,,,,,,,,,,,,,,,,,,,,,,,,,,,,,,,,,,,,,,,,,,,,,,,,,,,,,,,,,
,,,,,,5fb7c5d4b92d683a2d367e6c,62bbf9a320e38978bb48e93b,2022-06-29_09h05.57.466,Colour_Asymmetry_Pilot,2022.1.3,Win32,60.06006006,62bbe60bf3d75ef465d3e404,0,49,49,53,1,threefour,,,,,,,,,,,,,,,,,,,,,,,,,,,,,,,,,,,,,,,,,,,,,,,,,,,,,,,,,,,,,,,,,,,,,,,,,,,,,,,,,,,,,,,,,,,,,,,,,,,,,,,,,,,,,,,,,,,,,,,,,,,,,,,,,,,,,,,,,,,,,,,,,,,,,,,,
,,,,,,5fb7c5d4b92d683a2d367e6c,62bbf9a320e38978bb48e93b,2022-06-29_09h05.57.466,Colour_Asymmetry_Pilot,2022.1.3,Win32,60.06006006,62bbe60bf3d75ef465d3e404,0,50,50,69,1,threefour,,,,,,,,,,,,,,,,,,,,,,,,,,,,,,,,,,,,,,,,,,,,,,,,,,,,,,,,,,,,,,,,,,,,,,,,,,,,,,,,,,,,,,,,,,,,,,,,,,,,,,,,,,,,,,,,,,,,,,,,,,,,,,,,,,,,,,,,,,,,,,,,,,,,,,,,
,,,,,,5fb7c5d4b92d683a2d367e6c,62bbf9a320e38978bb48e93b,2022-06-29_09h05.57.466,Colour_Asymmetry_Pilot,2022.1.3,Win32,60.06006006,62bbe60bf3d75ef465d3e404,0,51,51,96,1,onetwo,,,,,,,,,,,,,,,,,,,,,,,,,,,,,,,,,,,,,,,,,,,,,,,,,,,,,,,,,,,,,,,,,,,,,,,,,,,,,,,,,,,,,,,,,,,,,,,,,,,,,,,,,,,,,,,,,,,,,,,,,,,,,,,,,,,,,,,,,,,,,,,,,,,,,,,,
,,,,,,5fb7c5d4b92d683a2d367e6c,62bbf9a320e38978bb48e93b,2022-06-29_09h05.57.466,Colour_Asymmetry_Pilot,2022.1.3,Win32,60.06006006,62bbe60bf3d75ef465d3e404,0,52,52,68,1,threeone,,,,,,,,,,,,,,,,,,,,,,,,,,,,,,,,,,,,,,,,,,,,,,,,,,,,,,,,,,,,,,,,,,,,,,,,,,,,,,,,,,,,,,,,,,,,,,,,,,,,,,,,,,,,,,,,,,,,,,,,,,,,,,,,,,,,,,,,,,,,,,,,,,,,,,,,
,,,,,,5fb7c5d4b92d683a2d367e6c,62bbf9a320e38978bb48e93b,2022-06-29_09h05.57.466,Colour_Asymmetry_Pilot,2022.1.3,Win32,60.06006006,62bbe60bf3d75ef465d3e404,0,53,53,109,1,threefour,,,,,,,,,,,,,,,,,,,,,,,,,,,,,,,,,,,,,,,,,,,,,,,,,,,,,,,,,,,,,,,,,,,,,,,,,,,,,,,,,,,,,,,,,,,,,,,,,,,,,,,,,,,,,,,,,,,,,,,,,,,,,,,,,,,,,,,,,,,,,,,,,,,,,,,,
,,,,,,5fb7c5d4b92d683a2d367e6c,62bbf9a320e38978bb48e93b,2022-06-29_09h05.57.466,Colour_Asymmetry_Pilot,2022.1.3,Win32,60.06006006,62bbe60bf3d75ef465d3e404,0,54,54,44,1,threeone,,,,,,,,,,,,,,,,,,,,,,,,,,,,,,,,,,,,,,,,,,,,,,,,,,,,,,,,,,,,,,,,,,,,,,,,,,,,,,,,,,,,,,,,,,,,,,,,,,,,,,,,,,,,,,,,,,,,,,,,,,,,,,,,,,,,,,,,,,,,,,,,,,,,,,,,
,,,,,,5fb7c5d4b92d683a2d367e6c,62bbf9a320e38978bb48e93b,2022-06-29_09h05.57.466,Colour_Asymmetry_Pilot,2022.1.3,Win32,60.06006006,62bbe60bf3d75ef465d3e404,0,55,55,76,1,threeone,,,,,,,,,,,,,,,,,,,,,,,,,,,,,,,,,,,,,,,,,,,,,,,,,,,,,,,,,,,,,,,,,,,,,,,,,,,,,,,,,,,,,,,,,,,,,,,,,,,,,,,,,,,,,,,,,,,,,,,,,,,,,,,,,,,,,,,,,,,,,,,,,,,,,,,,
,,,,,,5fb7c5d4b92d683a2d367e6c,62bbf9a320e38978bb48e93b,2022-06-29_09h05.57.466,Colour_Asymmetry_Pilot,2022.1.3,Win32,60.06006006,62bbe60bf3d75ef465d3e404,0,56,56,88,1,onetwo,,,,,,,,,,,,,,,,,,,,,,,,,,,,,,,,,,,,,,,,,,,,,,,,,,,,,,,,,,,,,,,,,,,,,,,,,,,,,,,,,,,,,,,,,,,,,,,,,,,,,,,,,,,,,,,,,,,,,,,,,,,,,,,,,,,,,,,,,,,,,,,,,,,,,,,,
,,,,,,5fb7c5d4b92d683a2d367e6c,62bbf9a320e38978bb48e93b,2022-06-29_09h05.57.466,Colour_Asymmetry_Pilot,2022.1.3,Win32,60.06006006,62bbe60bf3d75ef465d3e404,0,57,57,141,1,threefour,,,,,,,,,,,,,,,,,,,,,,,,,,,,,,,,,,,,,,,,,,,,,,,,,,,,,,,,,,,,,,,,,,,,,,,,,,,,,,,,,,,,,,,,,,,,,,,,,,,,,,,,,,,,,,,,,,,,,,,,,,,,,,,,,,,,,,,,,,,,,,,,,,,,,,,,
,,,,,,5fb7c5d4b92d683a2d367e6c,62bbf9a320e38978bb48e93b,2022-06-29_09h05.57.466,Colour_Asymmetry_Pilot,2022.1.3,Win32,60.06006006,62bbe60bf3d75ef465d3e404,0,58,58,17,1,onethree,,,,,,,,,,,,,,,,,,,,,,,,,,,,,,,,,,,,,,,,,,,,,,,,,,,,,,,,,,,,,,,,,,,,,,,,,,,,,,,,,,,,,,,,,,,,,,,,,,,,,,,,,,,,,,,,,,,,,,,,,,,,,,,,,,,,,,,,,,,,,,,,,,,,,,,,
,,,,,,5fb7c5d4b92d683a2d367e6c,62bbf9a320e38978bb48e93b,2022-06-29_09h05.57.466,Colour_Asymmetry_Pilot,2022.1.3,Win32,60.06006006,62bbe60bf3d75ef465d3e404,0,59,59,49,1,onethree,,,,,,,,,,,,,,,,,,,,,,,,,,,,,,,,,,,,,,,,,,,,,,,,,,,,,,,,,,,,,,,,,,,,,,,,,,,,,,,,,,,,,,,,,,,,,,,,,,,,,,,,,,,,,,,,,,,,,,,,,,,,,,,,,,,,,,,,,,,,,,,,,,,,,,,,
,,,,,,5fb7c5d4b92d683a2d367e6c,62bbf9a320e38978bb48e93b,2022-06-29_09h05.57.466,Colour_Asymmetry_Pilot,2022.1.3,Win32,60.06006006,62bbe60bf3d75ef465d3e404,0,60,60,125,1,threefour,,,,,,,,,,,,,,,,,,,,,,,,,,,,,,,,,,,,,,,,,,,,,,,,,,,,,,,,,,,,,,,,,,,,,,,,,,,,,,,,,,,,,,,,,,,,,,,,,,,,,,,,,,,,,,,,,,,,,,,,,,,,,,,,,,,,,,,,,,,,,,,,,,,,,,,,
,,,,,,5fb7c5d4b92d683a2d367e6c,62bbf9a320e38978bb48e93b,2022-06-29_09h05.57.466,Colour_Asymmetry_Pilot,2022.1.3,Win32,60.06006006,62bbe60bf3d75ef465d3e404,0,61,61,36,1,threeone,,,,,,,,,,,,,,,,,,,,,,,,,,,,,,,,,,,,,,,,,,,,,,,,,,,,,,,,,,,,,,,,,,,,,,,,,,,,,,,,,,,,,,,,,,,,,,,,,,,,,,,,,,,,,,,,,,,,,,,,,,,,,,,,,,,,,,,,,,,,,,,,,,,,,,,,
,,,,,,5fb7c5d4b92d683a2d367e6c,62bbf9a320e38978bb48e93b,2022-06-29_09h05.57.466,Colour_Asymmetry_Pilot,2022.1.3,Win32,60.06006006,62bbe60bf3d75ef465d3e404,0,62,62,158,1,fourtwo,,,,,,,,,,,,,,,,,,,,,,,,,,,,,,,,,,,,,,,,,,,,,,,,,,,,,,,,,,,,,,,,,,,,,,,,,,,,,,,,,,,,,,,,,,,,,,,,,,,,,,,,,,,,,,,,,,,,,,,,,,,,,,,,,,,,,,,,,,,,,,,,,,,,,,,,
,,,,,,5fb7c5d4b92d683a2d367e6c,62bbf9a320e38978bb48e93b,2022-06-29_09h05.57.466,Colour_Asymmetry_Pilot,2022.1.3,Win32,60.06006006,62bbe60bf3d75ef465d3e404,0,63,63,65,1,onethree,,,,,,,,,,,,,,,,,,,,,,,,,,,,,,,,,,,,,,,,,,,,,,,,,,,,,,,,,,,,,,,,,,,,,,,,,,,,,,,,,,,,,,,,,,,,,,,,,,,,,,,,,,,,,,,,,,,,,,,,,,,,,,,,,,,,,,,,,,,,,,,,,,,,,,,,
,,,,,,5fb7c5d4b92d683a2d367e6c,62bbf9a320e38978bb48e93b,2022-06-29_09h05.57.466,Colour_Asymmetry_Pilot,2022.1.3,Win32,60.06006006,62bbe60bf3d75ef465d3e404,0,64,64,105,1,onethree,,,,,,,,,,,,,,,,,,,,,,,,,,,,,,,,,,,,,,,,,,,,,,,,,,,,,,,,,,,,,,,,,,,,,,,,,,,,,,,,,,,,,,,,,,,,,,,,,,,,,,,,,,,,,,,,,,,,,,,,,,,,,,,,,,,,,,,,,,,,,,,,,,,,,,,,
,,,,,,5fb7c5d4b92d683a2d367e6c,62bbf9a320e38978bb48e93b,2022-06-29_09h05.57.466,Colour_Asymmetry_Pilot,2022.1.3,Win32,60.06006006,62bbe60bf3d75ef465d3e404,0,65,65,94,1,fourtwo,,,,,,,,,,,,,,,,,,,,,,,,,,,,,,,,,,,,,,,,,,,,,,,,,,,,,,,,,,,,,,,,,,,,,,,,,,,,,,,,,,,,,,,,,,,,,,,,,,,,,,,,,,,,,,,,,,,,,,,,,,,,,,,,,,,,,,,,,,,,,,,,,,,,,,,,
,,,,,,5fb7c5d4b92d683a2d367e6c,62bbf9a320e38978bb48e93b,2022-06-29_09h05.57.466,Colour_Asymmetry_Pilot,2022.1.3,Win32,60.06006006,62bbe60bf3d75ef465d3e404,0,66,66,71,1,fourthree,,,,,,,,,,,,,,,,,,,,,,,,,,,,,,,,,,,,,,,,,,,,,,,,,,,,,,,,,,,,,,,,,,,,,,,,,,,,,,,,,,,,,,,,,,,,,,,,,,,,,,,,,,,,,,,,,,,,,,,,,,,,,,,,,,,,,,,,,,,,,,,,,,,,,,,,
,,,,,,5fb7c5d4b92d683a2d367e6c,62bbf9a320e38978bb48e93b,2022-06-29_09h05.57.466,Colour_Asymmetry_Pilot,2022.1.3,Win32,60.06006006,62bbe60bf3d75ef465d3e404,0,67,67,115,1,twofour,,,,,,,,,,,,,,,,,,,,,,,,,,,,,,,,,,,,,,,,,,,,,,,,,,,,,,,,,,,,,,,,,,,,,,,,,,,,,,,,,,,,,,,,,,,,,,,,,,,,,,,,,,,,,,,,,,,,,,,,,,,,,,,,,,,,,,,,,,,,,,,,,,,,,,,,
,,,,,,5fb7c5d4b92d683a2d367e6c,62bbf9a320e38978bb48e93b,2022-06-29_09h05.57.466,Colour_Asymmetry_Pilot,2022.1.3,Win32,60.06006006,62bbe60bf3d75ef465d3e404,0,68,68,66,1,twoone,,,,,,,,,,,,,,,,,,,,,,,,,,,,,,,,,,,,,,,,,,,,,,,,,,,,,,,,,,,,,,,,,,,,,,,,,,,,,,,,,,,,,,,,,,,,,,,,,,,,,,,,,,,,,,,,,,,,,,,,,,,,,,,,,,,,,,,,,,,,,,,,,,,,,,,,
,,,,,,5fb7c5d4b92d683a2d367e6c,62bbf9a320e38978bb48e93b,2022-06-29_09h05.57.466,Colour_Asymmetry_Pilot,2022.1.3,Win32,60.06006006,62bbe60bf3d75ef465d3e404,0,69,69,134,1,fourtwo,,,,,,,,,,,,,,,,,,,,,,,,,,,,,,,,,,,,,,,,,,,,,,,,,,,,,,,,,,,,,,,,,,,,,,,,,,,,,,,,,,,,,,,,,,,,,,,,,,,,,,,,,,,,,,,,,,,,,,,,,,,,,,,,,,,,,,,,,,,,,,,,,,,,,,,,
,,,,,,5fb7c5d4b92d683a2d367e6c,62bbf9a320e38978bb48e93b,2022-06-29_09h05.57.466,Colour_Asymmetry_Pilot,2022.1.3,Win32,60.06006006,62bbe60bf3d75ef465d3e404,0,70,70,63,1,fourthree,,,,,,,,,,,,,,,,,,,,,,,,,,,,,,,,,,,,,,,,,,,,,,,,,,,,,,,,,,,,,,,,,,,,,,,,,,,,,,,,,,,,,,,,,,,,,,,,,,,,,,,,,,,,,,,,,,,,,,,,,,,,,,,,,,,,,,,,,,,,,,,,,,,,,,,,
,,,,,,5fb7c5d4b92d683a2d367e6c,62bbf9a320e38978bb48e93b,2022-06-29_09h05.57.466,Colour_Asymmetry_Pilot,2022.1.3,Win32,60.06006006,62bbe60bf3d75ef465d3e404,0,71,71,3,1,twofour,,,,,,,,,,,,,,,,,,,,,,,,,,,,,,,,,,,,,,,,,,,,,,,,,,,,,,,,,,,,,,,,,,,,,,,,,,,,,,,,,,,,,,,,,,,,,,,,,,,,,,,,,,,,,,,,,,,,,,,,,,,,,,,,,,,,,,,,,,,,,,,,,,,,,,,,
,,,,,,5fb7c5d4b92d683a2d367e6c,62bbf9a320e38978bb48e93b,2022-06-29_09h05.57.466,Colour_Asymmetry_Pilot,2022.1.3,Win32,60.06006006,62bbe60bf3d75ef465d3e404,0,72,72,151,1,fourthree,,,,,,,,,,,,,,,,,,,,,,,,,,,,,,,,,,,,,,,,,,,,,,,,,,,,,,,,,,,,,,,,,,,,,,,,,,,,,,,,,,,,,,,,,,,,,,,,,,,,,,,,,,,,,,,,,,,,,,,,,,,,,,,,,,,,,,,,,,,,,,,,,,,,,,,,
,,,,,,5fb7c5d4b92d683a2d367e6c,62bbf9a320e38978bb48e93b,2022-06-29_09h05.57.466,Colour_Asymmetry_Pilot,2022.1.3,Win32,60.06006006,62bbe60bf3d75ef465d3e404,0,73,73,33,1,onethree,,,,,,,,,,,,,,,,,,,,,,,,,,,,,,,,,,,,,,,,,,,,,,,,,,,,,,,,,,,,,,,,,,,,,,,,,,,,,,,,,,,,,,,,,,,,,,,,,,,,,,,,,,,,,,,,,,,,,,,,,,,,,,,,,,,,,,,,,,,,,,,,,,,,,,,,
,,,,,,5fb7c5d4b92d683a2d367e6c,62bbf9a320e38978bb48e93b,2022-06-29_09h05.57.466,Colour_Asymmetry_Pilot,2022.1.3,Win32,60.06006006,62bbe60bf3d75ef465d3e404,0,74,74,56,1,onetwo,,,,,,,,,,,,,,,,,,,,,,,,,,,,,,,,,,,,,,,,,,,,,,,,,,,,,,,,,,,,,,,,,,,,,,,,,,,,,,,,,,,,,,,,,,,,,,,,,,,,,,,,,,,,,,,,,,,,,,,,,,,,,,,,,,,,,,,,,,,,,,,,,,,,,,,,
,,,,,,5fb7c5d4b92d683a2d367e6c,62bbf9a320e38978bb48e93b,2022-06-29_09h05.57.466,Colour_Asymmetry_Pilot,2022.1.3,Win32,60.06006006,62bbe60bf3d75ef465d3e404,0,75,75,144,1,onetwo,,,,,,,,,,,,,,,,,,,,,,,,,,,,,,,,,,,,,,,,,,,,,,,,,,,,,,,,,,,,,,,,,,,,,,,,,,,,,,,,,,,,,,,,,,,,,,,,,,,,,,,,,,,,,,,,,,,,,,,,,,,,,,,,,,,,,,,,,,,,,,,,,,,,,,,,
,,,,,,5fb7c5d4b92d683a2d367e6c,62bbf9a320e38978bb48e93b,2022-06-29_09h05.57.466,Colour_Asymmetry_Pilot,2022.1.3,Win32,60.06006006,62bbe60bf3d75ef465d3e404,0,76,76,155,1,twofour,,,,,,,,,,,,,,,,,,,,,,,,,,,,,,,,,,,,,,,,,,,,,,,,,,,,,,,,,,,,,,,,,,,,,,,,,,,,,,,,,,,,,,,,,,,,,,,,,,,,,,,,,,,,,,,,,,,,,,,,,,,,,,,,,,,,,,,,,,,,,,,,,,,,,,,,
,,,,,,5fb7c5d4b92d683a2d367e6c,62bbf9a320e38978bb48e93b,2022-06-29_09h05.57.466,Colour_Asymmetry_Pilot,2022.1.3,Win32,60.06006006,62bbe60bf3d75ef465d3e404,0,77,77,40,1,onetwo,,,,,,,,,,,,,,,,,,,,,,,,,,,,,,,,,,,,,,,,,,,,,,,,,,,,,,,,,,,,,,,,,,,,,,,,,,,,,,,,,,,,,,,,,,,,,,,,,,,,,,,,,,,,,,,,,,,,,,,,,,,,,,,,,,,,,,,,,,,,,,,,,,,,,,,,
,,,,,,5fb7c5d4b92d683a2d367e6c,62bbf9a320e38978bb48e93b,2022-06-29_09h05.57.466,Colour_Asymmetry_Pilot,2022.1.3,Win32,60.06006006,62bbe60bf3d75ef465d3e404,0,78,78,29,1,threefour,,,,,,,,,,,,,,,,,,,,,,,,,,,,,,,,,,,,,,,,,,,,,,,,,,,,,,,,,,,,,,,,,,,,,,,,,,,,,,,,,,,,,,,,,,,,,,,,,,,,,,,,,,,,,,,,,,,,,,,,,,,,,,,,,,,,,,,,,,,,,,,,,,,,,,,,
,,,,,,5fb7c5d4b92d683a2d367e6c,62bbf9a320e38978bb48e93b,2022-06-29_09h05.57.466,Colour_Asymmetry_Pilot,2022.1.3,Win32,60.06006006,62bbe60bf3d75ef465d3e404,0,79,79,139,1,twofour,,,,,,,,,,,,,,,,,,,,,,,,,,,,,,,,,,,,,,,,,,,,,,,,,,,,,,,,,,,,,,,,,,,,,,,,,,,,,,,,,,,,,,,,,,,,,,,,,,,,,,,,,,,,,,,,,,,,,,,,,,,,,,,,,,,,,,,,,,,,,,,,,,,,,,,,
,,,,,,5fb7c5d4b92d683a2d367e6c,62bbf9a320e38978bb48e93b,2022-06-29_09h05.57.466,Colour_Asymmetry_Pilot,2022.1.3,Win32,60.06006006,62bbe60bf3d75ef465d3e404,0,80,80,93,1,threefour,,,,,,,,,,,,,,,,,,,,,,,,,,,,,,,,,,,,,,,,,,,,,,,,,,,,,,,,,,,,,,,,,,,,,,,,,,,,,,,,,,,,,,,,,,,,,,,,,,,,,,,,,,,,,,,,,,,,,,,,,,,,,,,,,,,,,,,,,,,,,,,,,,,,,,,,
,,,,,,5fb7c5d4b92d683a2d367e6c,62bbf9a320e38978bb48e93b,2022-06-29_09h05.57.466,Colour_Asymmetry_Pilot,2022.1.3,Win32,60.06006006,62bbe60bf3d75ef465d3e404,0,81,81,70,1,fourtwo,,,,,,,,,,,,,,,,,,,,,,,,,,,,,,,,,,,,,,,,,,,,,,,,,,,,,,,,,,,,,,,,,,,,,,,,,,,,,,,,,,,,,,,,,,,,,,,,,,,,,,,,,,,,,,,,,,,,,,,,,,,,,,,,,,,,,,,,,,,,,,,,,,,,,,,,
,,,,,,5fb7c5d4b92d683a2d367e6c,62bbf9a320e38978bb48e93b,2022-06-29_09h05.57.466,Colour_Asymmetry_Pilot,2022.1.3,Win32,60.06006006,62bbe60bf3d75ef465d3e404,0,82,82,81,1,onethree,,,,,,,,,,,,,,,,,,,,,,,,,,,,,,,,,,,,,,,,,,,,,,,,,,,,,,,,,,,,,,,,,,,,,,,,,,,,,,,,,,,,,,,,,,,,,,,,,,,,,,,,,,,,,,,,,,,,,,,,,,,,,,,,,,,,,,,,,,,,,,,,,,,,,,,,
,,,,,,5fb7c5d4b92d683a2d367e6c,62bbf9a320e38978bb48e93b,2022-06-29_09h05.57.466,Colour_Asymmetry_Pilot,2022.1.3,Win32,60.06006006,62bbe60bf3d75ef465d3e404,0,83,83,89,1,onethree,,,,,,,,,,,,,,,,,,,,,,,,,,,,,,,,,,,,,,,,,,,,,,,,,,,,,,,,,,,,,,,,,,,,,,,,,,,,,,,,,,,,,,,,,,,,,,,,,,,,,,,,,,,,,,,,,,,,,,,,,,,,,,,,,,,,,,,,,,,,,,,,,,,,,,,,
,,,,,,5fb7c5d4b92d683a2d367e6c,62bbf9a320e38978bb48e93b,2022-06-29_09h05.57.466,Colour_Asymmetry_Pilot,2022.1.3,Win32,60.06006006,62bbe60bf3d75ef465d3e404,0,84,84,104,1,onetwo,,,,,,,,,,,,,,,,,,,,,,,,,,,,,,,,,,,,,,,,,,,,,,,,,,,,,,,,,,,,,,,,,,,,,,,,,,,,,,,,,,,,,,,,,,,,,,,,,,,,,,,,,,,,,,,,,,,,,,,,,,,,,,,,,,,,,,,,,,,,,,,,,,,,,,,,
,,,,,,5fb7c5d4b92d683a2d367e6c,62bbf9a320e38978bb48e93b,2022-06-29_09h05.57.466,Colour_Asymmetry_Pilot,2022.1.3,Win32,60.06006006,62bbe60bf3d75ef465d3e404,0,85,85,6,1,fourtwo,,,,,,,,,,,,,,,,,,,,,,,,,,,,,,,,,,,,,,,,,,,,,,,,,,,,,,,,,,,,,,,,,,,,,,,,,,,,,,,,,,,,,,,,,,,,,,,,,,,,,,,,,,,,,,,,,,,,,,,,,,,,,,,,,,,,,,,,,,,,,,,,,,,,,,,,
,,,,,,5fb7c5d4b92d683a2d367e6c,62bbf9a320e38978bb48e93b,2022-06-29_09h05.57.466,Colour_Asymmetry_Pilot,2022.1.3,Win32,60.06006006,62bbe60bf3d75ef465d3e404,0,86,86,57,1,onethree,,,,,,,,,,,,,,,,,,,,,,,,,,,,,,,,,,,,,,,,,,,,,,,,,,,,,,,,,,,,,,,,,,,,,,,,,,,,,,,,,,,,,,,,,,,,,,,,,,,,,,,,,,,,,,,,,,,,,,,,,,,,,,,,,,,,,,,,,,,,,,,,,,,,,,,,
,,,,,,5fb7c5d4b92d683a2d367e6c,62bbf9a320e38978bb48e93b,2022-06-29_09h05.57.466,Colour_Asymmetry_Pilot,2022.1.3,Win32,60.06006006,62bbe60bf3d75ef465d3e404,0,87,87,91,1,twofour,,,,,,,,,,,,,,,,,,,,,,,,,,,,,,,,,,,,,,,,,,,,,,,,,,,,,,,,,,,,,,,,,,,,,,,,,,,,,,,,,,,,,,,,,,,,,,,,,,,,,,,,,,,,,,,,,,,,,,,,,,,,,,,,,,,,,,,,,,,,,,,,,,,,,,,,
,,,,,,5fb7c5d4b92d683a2d367e6c,62bbf9a320e38978bb48e93b,2022-06-29_09h05.57.466,Colour_Asymmetry_Pilot,2022.1.3,Win32,60.06006006,62bbe60bf3d75ef465d3e404,0,88,88,103,1,fourthree,,,,,,,,,,,,,,,,,,,,,,,,,,,,,,,,,,,,,,,,,,,,,,,,,,,,,,,,,,,,,,,,,,,,,,,,,,,,,,,,,,,,,,,,,,,,,,,,,,,,,,,,,,,,,,,,,,,,,,,,,,,,,,,,,,,,,,,,,,,,,,,,,,,,,,,,
,,,,,,5fb7c5d4b92d683a2d367e6c,62bbf9a320e38978bb48e93b,2022-06-29_09h05.57.466,Colour_Asymmetry_Pilot,2022.1.3,Win32,60.06006006,62bbe60bf3d75ef465d3e404,0,89,89,11,1,twofour,,,,,,,,,,,,,,,,,,,,,,,,,,,,,,,,,,,,,,,,,,,,,,,,,,,,,,,,,,,,,,,,,,,,,,,,,,,,,,,,,,,,,,,,,,,,,,,,,,,,,,,,,,,,,,,,,,,,,,,,,,,,,,,,,,,,,,,,,,,,,,,,,,,,,,,,
,,,,,,5fb7c5d4b92d683a2d367e6c,62bbf9a320e38978bb48e93b,2022-06-29_09h05.57.466,Colour_Asymmetry_Pilot,2022.1.3,Win32,60.06006006,62bbe60bf3d75ef465d3e404,0,90,90,62,1,fourtwo,,,,,,,,,,,,,,,,,,,,,,,,,,,,,,,,,,,,,,,,,,,,,,,,,,,,,,,,,,,,,,,,,,,,,,,,,,,,,,,,,,,,,,,,,,,,,,,,,,,,,,,,,,,,,,,,,,,,,,,,,,,,,,,,,,,,,,,,,,,,,,,,,,,,,,,,
,,,,,,5fb7c5d4b92d683a2d367e6c,62bbf9a320e38978bb48e93b,2022-06-29_09h05.57.466,Colour_Asymmetry_Pilot,2022.1.3,Win32,60.06006006,62bbe60bf3d75ef465d3e404,0,91,91,30,1,fourtwo,,,,,,,,,,,,,,,,,,,,,,,,,,,,,,,,,,,,,,,,,,,,,,,,,,,,,,,,,,,,,,,,,,,,,,,,,,,,,,,,,,,,,,,,,,,,,,,,,,,,,,,,,,,,,,,,,,,,,,,,,,,,,,,,,,,,,,,,,,,,,,,,,,,,,,,,
,,,,,,5fb7c5d4b92d683a2d367e6c,62bbf9a320e38978bb48e93b,2022-06-29_09h05.57.466,Colour_Asymmetry_Pilot,2022.1.3,Win32,60.06006006,62bbe60bf3d75ef465d3e404,0,92,92,146,1,twoone,,,,,,,,,,,,,,,,,,,,,,,,,,,,,,,,,,,,,,,,,,,,,,,,,,,,,,,,,,,,,,,,,,,,,,,,,,,,,,,,,,,,,,,,,,,,,,,,,,,,,,,,,,,,,,,,,,,,,,,,,,,,,,,,,,,,,,,,,,,,,,,,,,,,,,,,
,,,,,,5fb7c5d4b92d683a2d367e6c,62bbf9a320e38978bb48e93b,2022-06-29_09h05.57.466,Colour_Asymmetry_Pilot,2022.1.3,Win32,60.06006006,62bbe60bf3d75ef465d3e404,0,93,93,84,1,threeone,,,,,,,,,,,,,,,,,,,,,,,,,,,,,,,,,,,,,,,,,,,,,,,,,,,,,,,,,,,,,,,,,,,,,,,,,,,,,,,,,,,,,,,,,,,,,,,,,,,,,,,,,,,,,,,,,,,,,,,,,,,,,,,,,,,,,,,,,,,,,,,,,,,,,,,,
,,,,,,5fb7c5d4b92d683a2d367e6c,62bbf9a320e38978bb48e93b,2022-06-29_09h05.57.466,Colour_Asymmetry_Pilot,2022.1.3,Win32,60.06006006,62bbe60bf3d75ef465d3e404,0,94,94,114,1,twoone,,,,,,,,,,,,,,,,,,,,,,,,,,,,,,,,,,,,,,,,,,,,,,,,,,,,,,,,,,,,,,,,,,,,,,,,,,,,,,,,,,,,,,,,,,,,,,,,,,,,,,,,,,,,,,,,,,,,,,,,,,,,,,,,,,,,,,,,,,,,,,,,,,,,,,,,
,,,,,,5fb7c5d4b92d683a2d367e6c,62bbf9a320e38978bb48e93b,2022-06-29_09h05.57.466,Colour_Asymmetry_Pilot,2022.1.3,Win32,60.06006006,62bbe60bf3d75ef465d3e404,0,95,95,137,1,onethree,,,,,,,,,,,,,,,,,,,,,,,,,,,,,,,,,,,,,,,,,,,,,,,,,,,,,,,,,,,,,,,,,,,,,,,,,,,,,,,,,,,,,,,,,,,,,,,,,,,,,,,,,,,,,,,,,,,,,,,,,,,,,,,,,,,,,,,,,,,,,,,,,,,,,,,,
,,,,,,5fb7c5d4b92d683a2d367e6c,62bbf9a320e38978bb48e93b,2022-06-29_09h05.57.466,Colour_Asymmetry_Pilot,2022.1.3,Win32,60.06006006,62bbe60bf3d75ef465d3e404,0,96,96,14,1,fourtwo,,,,,,,,,,,,,,,,,,,,,,,,,,,,,,,,,,,,,,,,,,,,,,,,,,,,,,,,,,,,,,,,,,,,,,,,,,,,,,,,,,,,,,,,,,,,,,,,,,,,,,,,,,,,,,,,,,,,,,,,,,,,,,,,,,,,,,,,,,,,,,,,,,,,,,,,
,,,,,,5fb7c5d4b92d683a2d367e6c,62bbf9a320e38978bb48e93b,2022-06-29_09h05.57.466,Colour_Asymmetry_Pilot,2022.1.3,Win32,60.06006006,62bbe60bf3d75ef465d3e404,0,97,97,37,1,threefour,,,,,,,,,,,,,,,,,,,,,,,,,,,,,,,,,,,,,,,,,,,,,,,,,,,,,,,,,,,,,,,,,,,,,,,,,,,,,,,,,,,,,,,,,,,,,,,,,,,,,,,,,,,,,,,,,,,,,,,,,,,,,,,,,,,,,,,,,,,,,,,,,,,,,,,,
,,,,,,5fb7c5d4b92d683a2d367e6c,62bbf9a320e38978bb48e93b,2022-06-29_09h05.57.466,Colour_Asymmetry_Pilot,2022.1.3,Win32,60.06006006,62bbe60bf3d75ef465d3e404,0,98,98,156,1,threeone,,,,,,,,,,,,,,,,,,,,,,,,,,,,,,,,,,,,,,,,,,,,,,,,,,,,,,,,,,,,,,,,,,,,,,,,,,,,,,,,,,,,,,,,,,,,,,,,,,,,,,,,,,,,,,,,,,,,,,,,,,,,,,,,,,,,,,,,,,,,,,,,,,,,,,,,
,,,,,,5fb7c5d4b92d683a2d367e6c,62bbf9a320e38978bb48e93b,2022-06-29_09h05.57.466,Colour_Asymmetry_Pilot,2022.1.3,Win32,60.06006006,62bbe60bf3d75ef465d3e404,0,99,99,147,1,twofour,,,,,,,,,,,,,,,,,,,,,,,,,,,,,,,,,,,,,,,,,,,,,,,,,,,,,,,,,,,,,,,,,,,,,,,,,,,,,,,,,,,,,,,,,,,,,,,,,,,,,,,,,,,,,,,,,,,,,,,,,,,,,,,,,,,,,,,,,,,,,,,,,,,,,,,,
,,,,,,5fb7c5d4b92d683a2d367e6c,62bbf9a320e38978bb48e93b,2022-06-29_09h05.57.466,Colour_Asymmetry_Pilot,2022.1.3,Win32,60.06006006,62bbe60bf3d75ef465d3e404,0,100,100,67,1,twofour,,,,,,,,,,,,,,,,,,,,,,,,,,,,,,,,,,,,,,,,,,,,,,,,,,,,,,,,,,,,,,,,,,,,,,,,,,,,,,,,,,,,,,,,,,,,,,,,,,,,,,,,,,,,,,,,,,,,,,,,,,,,,,,,,,,,,,,,,,,,,,,,,,,,,,,,
,,,,,,5fb7c5d4b92d683a2d367e6c,62bbf9a320e38978bb48e93b,2022-06-29_09h05.57.466,Colour_Asymmetry_Pilot,2022.1.3,Win32,60.06006006,62bbe60bf3d75ef465d3e404,0,101,101,47,1,fourthree,,,,,,,,,,,,,,,,,,,,,,,,,,,,,,,,,,,,,,,,,,,,,,,,,,,,,,,,,,,,,,,,,,,,,,,,,,,,,,,,,,,,,,,,,,,,,,,,,,,,,,,,,,,,,,,,,,,,,,,,,,,,,,,,,,,,,,,,,,,,,,,,,,,,,,,,
,,,,,,5fb7c5d4b92d683a2d367e6c,62bbf9a320e38978bb48e93b,2022-06-29_09h05.57.466,Colour_Asymmetry_Pilot,2022.1.3,Win32,60.06006006,62bbe60bf3d75ef465d3e404,0,102,102,129,1,onethree,,,,,,,,,,,,,,,,,,,,,,,,,,,,,,,,,,,,,,,,,,,,,,,,,,,,,,,,,,,,,,,,,,,,,,,,,,,,,,,,,,,,,,,,,,,,,,,,,,,,,,,,,,,,,,,,,,,,,,,,,,,,,,,,,,,,,,,,,,,,,,,,,,,,,,,,
,,,,,,5fb7c5d4b92d683a2d367e6c,62bbf9a320e38978bb48e93b,2022-06-29_09h05.57.466,Colour_Asymmetry_Pilot,2022.1.3,Win32,60.06006006,62bbe60bf3d75ef465d3e404,0,103,103,157,1,threefour,,,,,,,,,,,,,,,,,,,,,,,,,,,,,,,,,,,,,,,,,,,,,,,,,,,,,,,,,,,,,,,,,,,,,,,,,,,,,,,,,,,,,,,,,,,,,,,,,,,,,,,,,,,,,,,,,,,,,,,,,,,,,,,,,,,,,,,,,,,,,,,,,,,,,,,,
,,,,,,5fb7c5d4b92d683a2d367e6c,62bbf9a320e38978bb48e93b,2022-06-29_09h05.57.466,Colour_Asymmetry_Pilot,2022.1.3,Win32,60.06006006,62bbe60bf3d75ef465d3e404,0,104,104,100,1,threeone,,,,,,,,,,,,,,,,,,,,,,,,,,,,,,,,,,,,,,,,,,,,,,,,,,,,,,,,,,,,,,,,,,,,,,,,,,,,,,,,,,,,,,,,,,,,,,,,,,,,,,,,,,,,,,,,,,,,,,,,,,,,,,,,,,,,,,,,,,,,,,,,,,,,,,,,
,,,,,,5fb7c5d4b92d683a2d367e6c,62bbf9a320e38978bb48e93b,2022-06-29_09h05.57.466,Colour_Asymmetry_Pilot,2022.1.3,Win32,60.06006006,62bbe60bf3d75ef465d3e404,0,105,105,60,1,threeone,,,,,,,,,,,,,,,,,,,,,,,,,,,,,,,,,,,,,,,,,,,,,,,,,,,,,,,,,,,,,,,,,,,,,,,,,,,,,,,,,,,,,,,,,,,,,,,,,,,,,,,,,,,,,,,,,,,,,,,,,,,,,,,,,,,,,,,,,,,,,,,,,,,,,,,,
,,,,,,5fb7c5d4b92d683a2d367e6c,62bbf9a320e38978bb48e93b,2022-06-29_09h05.57.466,Colour_Asymmetry_Pilot,2022.1.3,Win32,60.06006006,62bbe60bf3d75ef465d3e404,0,106,106,54,1,fourtwo,,,,,,,,,,,,,,,,,,,,,,,,,,,,,,,,,,,,,,,,,,,,,,,,,,,,,,,,,,,,,,,,,,,,,,,,,,,,,,,,,,,,,,,,,,,,,,,,,,,,,,,,,,,,,,,,,,,,,,,,,,,,,,,,,,,,,,,,,,,,,,,,,,,,,,,,
,,,,,,5fb7c5d4b92d683a2d367e6c,62bbf9a320e38978bb48e93b,2022-06-29_09h05.57.466,Colour_Asymmetry_Pilot,2022.1.3,Win32,60.06006006,62bbe60bf3d75ef465d3e404,0,107,107,149,1,threefour,,,,,,,,,,,,,,,,,,,,,,,,,,,,,,,,,,,,,,,,,,,,,,,,,,,,,,,,,,,,,,,,,,,,,,,,,,,,,,,,,,,,,,,,,,,,,,,,,,,,,,,,,,,,,,,,,,,,,,,,,,,,,,,,,,,,,,,,,,,,,,,,,,,,,,,,
,,,,,,5fb7c5d4b92d683a2d367e6c,62bbf9a320e38978bb48e93b,2022-06-29_09h05.57.466,Colour_Asymmetry_Pilot,2022.1.3,Win32,60.06006006,62bbe60bf3d75ef465d3e404,0,108,108,123,1,twofour,,,,,,,,,,,,,,,,,,,,,,,,,,,,,,,,,,,,,,,,,,,,,,,,,,,,,,,,,,,,,,,,,,,,,,,,,,,,,,,,,,,,,,,,,,,,,,,,,,,,,,,,,,,,,,,,,,,,,,,,,,,,,,,,,,,,,,,,,,,,,,,,,,,,,,,,
,,,,,,5fb7c5d4b92d683a2d367e6c,62bbf9a320e38978bb48e93b,2022-06-29_09h05.57.466,Colour_Asymmetry_Pilot,2022.1.3,Win32,60.06006006,62bbe60bf3d75ef465d3e404,0,109,109,1,1,onethree,,,,,,,,,,,,,,,,,,,,,,,,,,,,,,,,,,,,,,,,,,,,,,,,,,,,,,,,,,,,,,,,,,,,,,,,,,,,,,,,,,,,,,,,,,,,,,,,,,,,,,,,,,,,,,,,,,,,,,,,,,,,,,,,,,,,,,,,,,,,,,,,,,,,,,,,
,,,,,,5fb7c5d4b92d683a2d367e6c,62bbf9a320e38978bb48e93b,2022-06-29_09h05.57.466,Colour_Asymmetry_Pilot,2022.1.3,Win32,60.06006006,62bbe60bf3d75ef465d3e404,0,110,110,20,1,threeone,,,,,,,,,,,,,,,,,,,,,,,,,,,,,,,,,,,,,,,,,,,,,,,,,,,,,,,,,,,,,,,,,,,,,,,,,,,,,,,,,,,,,,,,,,,,,,,,,,,,,,,,,,,,,,,,,,,,,,,,,,,,,,,,,,,,,,,,,,,,,,,,,,,,,,,,
,,,,,,5fb7c5d4b92d683a2d367e6c,62bbf9a320e38978bb48e93b,2022-06-29_09h05.57.466,Colour_Asymmetry_Pilot,2022.1.3,Win32,60.06006006,62bbe60bf3d75ef465d3e404,0,111,111,117,1,threefour,,,,,,,,,,,,,,,,,,,,,,,,,,,,,,,,,,,,,,,,,,,,,,,,,,,,,,,,,,,,,,,,,,,,,,,,,,,,,,,,,,,,,,,,,,,,,,,,,,,,,,,,,,,,,,,,,,,,,,,,,,,,,,,,,,,,,,,,,,,,,,,,,,,,,,,,
,,,,,,5fb7c5d4b92d683a2d367e6c,62bbf9a320e38978bb48e93b,2022-06-29_09h05.57.466,Colour_Asymmetry_Pilot,2022.1.3,Win32,60.06006006,62bbe60bf3d75ef465d3e404,0,112,112,38,1,fourtwo,,,,,,,,,,,,,,,,,,,,,,,,,,,,,,,,,,,,,,,,,,,,,,,,,,,,,,,,,,,,,,,,,,,,,,,,,,,,,,,,,,,,,,,,,,,,,,,,,,,,,,,,,,,,,,,,,,,,,,,,,,,,,,,,,,,,,,,,,,,,,,,,,,,,,,,,
,,,,,,5fb7c5d4b92d683a2d367e6c,62bbf9a320e38978bb48e93b,2022-06-29_09h05.57.466,Colour_Asymmetry_Pilot,2022.1.3,Win32,60.06006006,62bbe60bf3d75ef465d3e404,0,113,113,28,1,threeone,,,,,,,,,,,,,,,,,,,,,,,,,,,,,,,,,,,,,,,,,,,,,,,,,,,,,,,,,,,,,,,,,,,,,,,,,,,,,,,,,,,,,,,,,,,,,,,,,,,,,,,,,,,,,,,,,,,,,,,,,,,,,,,,,,,,,,,,,,,,,,,,,,,,,,,,
,,,,,,5fb7c5d4b92d683a2d367e6c,62bbf9a320e38978bb48e93b,2022-06-29_09h05.57.466,Colour_Asymmetry_Pilot,2022.1.3,Win32,60.06006006,62bbe60bf3d75ef465d3e404,0,114,114,75,1,twofour,,,,,,,,,,,,,,,,,,,,,,,,,,,,,,,,,,,,,,,,,,,,,,,,,,,,,,,,,,,,,,,,,,,,,,,,,,,,,,,,,,,,,,,,,,,,,,,,,,,,,,,,,,,,,,,,,,,,,,,,,,,,,,,,,,,,,,,,,,,,,,,,,,,,,,,,
,,,,,,5fb7c5d4b92d683a2d367e6c,62bbf9a320e38978bb48e93b,2022-06-29_09h05.57.466,Colour_Asymmetry_Pilot,2022.1.3,Win32,60.06006006,62bbe60bf3d75ef465d3e404,0,115,115,39,1,fourthree,,,,,,,,,,,,,,,,,,,,,,,,,,,,,,,,,,,,,,,,,,,,,,,,,,,,,,,,,,,,,,,,,,,,,,,,,,,,,,,,,,,,,,,,,,,,,,,,,,,,,,,,,,,,,,,,,,,,,,,,,,,,,,,,,,,,,,,,,,,,,,,,,,,,,,,,
,,,,,,5fb7c5d4b92d683a2d367e6c,62bbf9a320e38978bb48e93b,2022-06-29_09h05.57.466,Colour_Asymmetry_Pilot,2022.1.3,Win32,60.06006006,62bbe60bf3d75ef465d3e404,0,116,116,150,1,fourtwo,,,,,,,,,,,,,,,,,,,,,,,,,,,,,,,,,,,,,,,,,,,,,,,,,,,,,,,,,,,,,,,,,,,,,,,,,,,,,,,,,,,,,,,,,,,,,,,,,,,,,,,,,,,,,,,,,,,,,,,,,,,,,,,,,,,,,,,,,,,,,,,,,,,,,,,,
,,,,,,5fb7c5d4b92d683a2d367e6c,62bbf9a320e38978bb48e93b,2022-06-29_09h05.57.466,Colour_Asymmetry_Pilot,2022.1.3,Win32,60.06006006,62bbe60bf3d75ef465d3e404,0,117,117,5,1,threefour,,,,,,,,,,,,,,,,,,,,,,,,,,,,,,,,,,,,,,,,,,,,,,,,,,,,,,,,,,,,,,,,,,,,,,,,,,,,,,,,,,,,,,,,,,,,,,,,,,,,,,,,,,,,,,,,,,,,,,,,,,,,,,,,,,,,,,,,,,,,,,,,,,,,,,,,
,,,,,,5fb7c5d4b92d683a2d367e6c,62bbf9a320e38978bb48e93b,2022-06-29_09h05.57.466,Colour_Asymmetry_Pilot,2022.1.3,Win32,60.06006006,62bbe60bf3d75ef465d3e404,0,118,118,46,1,fourtwo,,,,,,,,,,,,,,,,,,,,,,,,,,,,,,,,,,,,,,,,,,,,,,,,,,,,,,,,,,,,,,,,,,,,,,,,,,,,,,,,,,,,,,,,,,,,,,,,,,,,,,,,,,,,,,,,,,,,,,,,,,,,,,,,,,,,,,,,,,,,,,,,,,,,,,,,
,,,,,,5fb7c5d4b92d683a2d367e6c,62bbf9a320e38978bb48e93b,2022-06-29_09h05.57.466,Colour_Asymmetry_Pilot,2022.1.3,Win32,60.06006006,62bbe60bf3d75ef465d3e404,0,119,119,113,1,onethree,,,,,,,,,,,,,,,,,,,,,,,,,,,,,,,,,,,,,,,,,,,,,,,,,,,,,,,,,,,,,,,,,,,,,,,,,,,,,,,,,,,,,,,,,,,,,,,,,,,,,,,,,,,,,,,,,,,,,,,,,,,,,,,,,,,,,,,,,,,,,,,,,,,,,,,,
,,,,,,5fb7c5d4b92d683a2d367e6c,62bbf9a320e38978bb48e93b,2022-06-29_09h05.57.466,Colour_Asymmetry_Pilot,2022.1.3,Win32,60.06006006,62bbe60bf3d75ef465d3e404,0,120,120,43,1,twofour,,,,,,,,,,,,,,,,,,,,,,,,,,,,,,,,,,,,,,,,,,,,,,,,,,,,,,,,,,,,,,,,,,,,,,,,,,,,,,,,,,,,,,,,,,,,,,,,,,,,,,,,,,,,,,,,,,,,,,,,,,,,,,,,,,,,,,,,,,,,,,,,,,,,,,,,
,,,,,,5fb7c5d4b92d683a2d367e6c,62bbf9a320e38978bb48e93b,2022-06-29_09h05.57.466,Colour_Asymmetry_Pilot,2022.1.3,Win32,60.06006006,62bbe60bf3d75ef465d3e404,0,121,121,154,1,twoone,,,,,,,,,,,,,,,,,,,,,,,,,,,,,,,,,,,,,,,,,,,,,,,,,,,,,,,,,,,,,,,,,,,,,,,,,,,,,,,,,,,,,,,,,,,,,,,,,,,,,,,,,,,,,,,,,,,,,,,,,,,,,,,,,,,,,,,,,,,,,,,,,,,,,,,,
,,,,,,5fb7c5d4b92d683a2d367e6c,62bbf9a320e38978bb48e93b,2022-06-29_09h05.57.466,Colour_Asymmetry_Pilot,2022.1.3,Win32,60.06006006,62bbe60bf3d75ef465d3e404,0,122,122,24,1,onetwo,,,,,,,,,,,,,,,,,,,,,,,,,,,,,,,,,,,,,,,,,,,,,,,,,,,,,,,,,,,,,,,,,,,,,,,,,,,,,,,,,,,,,,,,,,,,,,,,,,,,,,,,,,,,,,,,,,,,,,,,,,,,,,,,,,,,,,,,,,,,,,,,,,,,,,,,
,,,,,,5fb7c5d4b92d683a2d367e6c,62bbf9a320e38978bb48e93b,2022-06-29_09h05.57.466,Colour_Asymmetry_Pilot,2022.1.3,Win32,60.06006006,62bbe60bf3d75ef465d3e404,0,123,123,73,1,onethree,,,,,,,,,,,,,,,,,,,,,,,,,,,,,,,,,,,,,,,,,,,,,,,,,,,,,,,,,,,,,,,,,,,,,,,,,,,,,,,,,,,,,,,,,,,,,,,,,,,,,,,,,,,,,,,,,,,,,,,,,,,,,,,,,,,,,,,,,,,,,,,,,,,,,,,,
,,,,,,5fb7c5d4b92d683a2d367e6c,62bbf9a320e38978bb48e93b,2022-06-29_09h05.57.466,Colour_Asymmetry_Pilot,2022.1.3,Win32,60.06006006,62bbe60bf3d75ef465d3e404,0,124,124,136,1,onetwo,,,,,,,,,,,,,,,,,,,,,,,,,,,,,,,,,,,,,,,,,,,,,,,,,,,,,,,,,,,,,,,,,,,,,,,,,,,,,,,,,,,,,,,,,,,,,,,,,,,,,,,,,,,,,,,,,,,,,,,,,,,,,,,,,,,,,,,,,,,,,,,,,,,,,,,,
,,,,,,5fb7c5d4b92d683a2d367e6c,62bbf9a320e38978bb48e93b,2022-06-29_09h05.57.466,Colour_Asymmetry_Pilot,2022.1.3,Win32,60.06006006,62bbe60bf3d75ef465d3e404,0,125,125,21,1,threefour,,,,,,,,,,,,,,,,,,,,,,,,,,,,,,,,,,,,,,,,,,,,,,,,,,,,,,,,,,,,,,,,,,,,,,,,,,,,,,,,,,,,,,,,,,,,,,,,,,,,,,,,,,,,,,,,,,,,,,,,,,,,,,,,,,,,,,,,,,,,,,,,,,,,,,,,
,,,,,,5fb7c5d4b92d683a2d367e6c,62bbf9a320e38978bb48e93b,2022-06-29_09h05.57.466,Colour_Asymmetry_Pilot,2022.1.3,Win32,60.06006006,62bbe60bf3d75ef465d3e404,0,126,126,86,1,fourtwo,,,,,,,,,,,,,,,,,,,,,,,,,,,,,,,,,,,,,,,,,,,,,,,,,,,,,,,,,,,,,,,,,,,,,,,,,,,,,,,,,,,,,,,,,,,,,,,,,,,,,,,,,,,,,,,,,,,,,,,,,,,,,,,,,,,,,,,,,,,,,,,,,,,,,,,,
,,,,,,5fb7c5d4b92d683a2d367e6c,62bbf9a320e38978bb48e93b,2022-06-29_09h05.57.466,Colour_Asymmetry_Pilot,2022.1.3,Win32,60.06006006,62bbe60bf3d75ef465d3e404,0,127,127,118,1,fourtwo,,,,,,,,,,,,,,,,,,,,,,,,,,,,,,,,,,,,,,,,,,,,,,,,,,,,,,,,,,,,,,,,,,,,,,,,,,,,,,,,,,,,,,,,,,,,,,,,,,,,,,,,,,,,,,,,,,,,,,,,,,,,,,,,,,,,,,,,,,,,,,,,,,,,,,,,
,,,,,,5fb7c5d4b92d683a2d367e6c,62bbf9a320e38978bb48e93b,2022-06-29_09h05.57.466,Colour_Asymmetry_Pilot,2022.1.3,Win32,60.06006006,62bbe60bf3d75ef465d3e404,0,128,128,116,1,threeone,,,,,,,,,,,,,,,,,,,,,,,,,,,,,,,,,,,,,,,,,,,,,,,,,,,,,,,,,,,,,,,,,,,,,,,,,,,,,,,,,,,,,,,,,,,,,,,,,,,,,,,,,,,,,,,,,,,,,,,,,,,,,,,,,,,,,,,,,,,,,,,,,,,,,,,,
,,,,,,5fb7c5d4b92d683a2d367e6c,62bbf9a320e38978bb48e93b,2022-06-29_09h05.57.466,Colour_Asymmetry_Pilot,2022.1.3,Win32,60.06006006,62bbe60bf3d75ef465d3e404,0,129,129,80,1,onetwo,,,,,,,,,,,,,,,,,,,,,,,,,,,,,,,,,,,,,,,,,,,,,,,,,,,,,,,,,,,,,,,,,,,,,,,,,,,,,,,,,,,,,,,,,,,,,,,,,,,,,,,,,,,,,,,,,,,,,,,,,,,,,,,,,,,,,,,,,,,,,,,,,,,,,,,,
,,,,,,5fb7c5d4b92d683a2d367e6c,62bbf9a320e38978bb48e93b,2022-06-29_09h05.57.466,Colour_Asymmetry_Pilot,2022.1.3,Win32,60.06006006,62bbe60bf3d75ef465d3e404,0,130,130,0,1,onetwo,,,,,,,,,,,,,,,,,,,,,,,,,,,,,,,,,,,,,,,,,,,,,,,,,,,,,,,,,,,,,,,,,,,,,,,,,,,,,,,,,,,,,,,,,,,,,,,,,,,,,,,,,,,,,,,,,,,,,,,,,,,,,,,,,,,,,,,,,,,,,,,,,,,,,,,,
,,,,,,5fb7c5d4b92d683a2d367e6c,62bbf9a320e38978bb48e93b,2022-06-29_09h05.57.466,Colour_Asymmetry_Pilot,2022.1.3,Win32,60.06006006,62bbe60bf3d75ef465d3e404,0,131,131,7,1,fourthree,,,,,,,,,,,,,,,,,,,,,,,,,,,,,,,,,,,,,,,,,,,,,,,,,,,,,,,,,,,,,,,,,,,,,,,,,,,,,,,,,,,,,,,,,,,,,,,,,,,,,,,,,,,,,,,,,,,,,,,,,,,,,,,,,,,,,,,,,,,,,,,,,,,,,,,,
,,,,,,5fb7c5d4b92d683a2d367e6c,62bbf9a320e38978bb48e93b,2022-06-29_09h05.57.466,Colour_Asymmetry_Pilot,2022.1.3,Win32,60.06006006,62bbe60bf3d75ef465d3e404,0,132,132,95,1,fourthree,,,,,,,,,,,,,,,,,,,,,,,,,,,,,,,,,,,,,,,,,,,,,,,,,,,,,,,,,,,,,,,,,,,,,,,,,,,,,,,,,,,,,,,,,,,,,,,,,,,,,,,,,,,,,,,,,,,,,,,,,,,,,,,,,,,,,,,,,,,,,,,,,,,,,,,,
,,,,,,5fb7c5d4b92d683a2d367e6c,62bbf9a320e38978bb48e93b,2022-06-29_09h05.57.466,Colour_Asymmetry_Pilot,2022.1.3,Win32,60.06006006,62bbe60bf3d75ef465d3e404,0,133,133,79,1,fourthree,,,,,,,,,,,,,,,,,,,,,,,,,,,,,,,,,,,,,,,,,,,,,,,,,,,,,,,,,,,,,,,,,,,,,,,,,,,,,,,,,,,,,,,,,,,,,,,,,,,,,,,,,,,,,,,,,,,,,,,,,,,,,,,,,,,,,,,,,,,,,,,,,,,,,,,,
,,,,,,5fb7c5d4b92d683a2d367e6c,62bbf9a320e38978bb48e93b,2022-06-29_09h05.57.466,Colour_Asymmetry_Pilot,2022.1.3,Win32,60.06006006,62bbe60bf3d75ef465d3e404,0,134,134,126,1,fourtwo,,,,,,,,,,,,,,,,,,,,,,,,,,,,,,,,,,,,,,,,,,,,,,,,,,,,,,,,,,,,,,,,,,,,,,,,,,,,,,,,,,,,,,,,,,,,,,,,,,,,,,,,,,,,,,,,,,,,,,,,,,,,,,,,,,,,,,,,,,,,,,,,,,,,,,,,
,,,,,,5fb7c5d4b92d683a2d367e6c,62bbf9a320e38978bb48e93b,2022-06-29_09h05.57.466,Colour_Asymmetry_Pilot,2022.1.3,Win32,60.06006006,62bbe60bf3d75ef465d3e404,0,135,135,152,1,onetwo,,,,,,,,,,,,,,,,,,,,,,,,,,,,,,,,,,,,,,,,,,,,,,,,,,,,,,,,,,,,,,,,,,,,,,,,,,,,,,,,,,,,,,,,,,,,,,,,,,,,,,,,,,,,,,,,,,,,,,,,,,,,,,,,,,,,,,,,,,,,,,,,,,,,,,,,
,,,,,,5fb7c5d4b92d683a2d367e6c,62bbf9a320e38978bb48e93b,2022-06-29_09h05.57.466,Colour_Asymmetry_Pilot,2022.1.3,Win32,60.06006006,62bbe60bf3d75ef465d3e404,0,136,136,128,1,onetwo,,,,,,,,,,,,,,,,,,,,,,,,,,,,,,,,,,,,,,,,,,,,,,,,,,,,,,,,,,,,,,,,,,,,,,,,,,,,,,,,,,,,,,,,,,,,,,,,,,,,,,,,,,,,,,,,,,,,,,,,,,,,,,,,,,,,,,,,,,,,,,,,,,,,,,,,
,,,,,,5fb7c5d4b92d683a2d367e6c,62bbf9a320e38978bb48e93b,2022-06-29_09h05.57.466,Colour_Asymmetry_Pilot,2022.1.3,Win32,60.06006006,62bbe60bf3d75ef465d3e404,0,137,137,42,1,twoone,,,,,,,,,,,,,,,,,,,,,,,,,,,,,,,,,,,,,,,,,,,,,,,,,,,,,,,,,,,,,,,,,,,,,,,,,,,,,,,,,,,,,,,,,,,,,,,,,,,,,,,,,,,,,,,,,,,,,,,,,,,,,,,,,,,,,,,,,,,,,,,,,,,,,,,,
,,,,,,5fb7c5d4b92d683a2d367e6c,62bbf9a320e38978bb48e93b,2022-06-29_09h05.57.466,Colour_Asymmetry_Pilot,2022.1.3,Win32,60.06006006,62bbe60bf3d75ef465d3e404,0,138,138,132,1,threeone,,,,,,,,,,,,,,,,,,,,,,,,,,,,,,,,,,,,,,,,,,,,,,,,,,,,,,,,,,,,,,,,,,,,,,,,,,,,,,,,,,,,,,,,,,,,,,,,,,,,,,,,,,,,,,,,,,,,,,,,,,,,,,,,,,,,,,,,,,,,,,,,,,,,,,,,
,,,,,,5fb7c5d4b92d683a2d367e6c,62bbf9a320e38978bb48e93b,2022-06-29_09h05.57.466,Colour_Asymmetry_Pilot,2022.1.3,Win32,60.06006006,62bbe60bf3d75ef465d3e404,0,139,139,127,1,fourthree,,,,,,,,,,,,,,,,,,,,,,,,,,,,,,,,,,,,,,,,,,,,,,,,,,,,,,,,,,,,,,,,,,,,,,,,,,,,,,,,,,,,,,,,,,,,,,,,,,,,,,,,,,,,,,,,,,,,,,,,,,,,,,,,,,,,,,,,,,,,,,,,,,,,,,,,
,,,,,,5fb7c5d4b92d683a2d367e6c,62bbf9a320e38978bb48e93b,2022-06-29_09h05.57.466,Colour_Asymmetry_Pilot,2022.1.3,Win32,60.06006006,62bbe60bf3d75ef465d3e404,0,140,140,9,1,onethree,,,,,,,,,,,,,,,,,,,,,,,,,,,,,,,,,,,,,,,,,,,,,,,,,,,,,,,,,,,,,,,,,,,,,,,,,,,,,,,,,,,,,,,,,,,,,,,,,,,,,,,,,,,,,,,,,,,,,,,,,,,,,,,,,,,,,,,,,,,,,,,,,,,,,,,,
,,,,,,5fb7c5d4b92d683a2d367e6c,62bbf9a320e38978bb48e93b,2022-06-29_09h05.57.466,Colour_Asymmetry_Pilot,2022.1.3,Win32,60.06006006,62bbe60bf3d75ef465d3e404,0,141,141,138,1,twoone,,,,,,,,,,,,,,,,,,,,,,,,,,,,,,,,,,,,,,,,,,,,,,,,,,,,,,,,,,,,,,,,,,,,,,,,,,,,,,,,,,,,,,,,,,,,,,,,,,,,,,,,,,,,,,,,,,,,,,,,,,,,,,,,,,,,,,,,,,,,,,,,,,,,,,,,
,,,,,,5fb7c5d4b92d683a2d367e6c,62bbf9a320e38978bb48e93b,2022-06-29_09h05.57.466,Colour_Asymmetry_Pilot,2022.1.3,Win32,60.06006006,62bbe60bf3d75ef465d3e404,0,142,142,32,1,onetwo,,,,,,,,,,,,,,,,,,,,,,,,,,,,,,,,,,,,,,,,,,,,,,,,,,,,,,,,,,,,,,,,,,,,,,,,,,,,,,,,,,,,,,,,,,,,,,,,,,,,,,,,,,,,,,,,,,,,,,,,,,,,,,,,,,,,,,,,,,,,,,,,,,,,,,,,
,,,,,,5fb7c5d4b92d683a2d367e6c,62bbf9a320e38978bb48e93b,2022-06-29_09h05.57.466,Colour_Asymmetry_Pilot,2022.1.3,Win32,60.06006006,62bbe60bf3d75ef465d3e404,0,143,143,85,1,threefour,,,,,,,,,,,,,,,,,,,,,,,,,,,,,,,,,,,,,,,,,,,,,,,,,,,,,,,,,,,,,,,,,,,,,,,,,,,,,,,,,,,,,,,,,,,,,,,,,,,,,,,,,,,,,,,,,,,,,,,,,,,,,,,,,,,,,,,,,,,,,,,,,,,,,,,,
,,,,,,5fb7c5d4b92d683a2d367e6c,62bbf9a320e38978bb48e93b,2022-06-29_09h05.57.466,Colour_Asymmetry_Pilot,2022.1.3,Win32,60.06006006,62bbe60bf3d75ef465d3e404,0,144,144,52,1,threeone,,,,,,,,,,,,,,,,,,,,,,,,,,,,,,,,,,,,,,,,,,,,,,,,,,,,,,,,,,,,,,,,,,,,,,,,,,,,,,,,,,,,,,,,,,,,,,,,,,,,,,,,,,,,,,,,,,,,,,,,,,,,,,,,,,,,,,,,,,,,,,,,,,,,,,,,
,,,,,,5fb7c5d4b92d683a2d367e6c,62bbf9a320e38978bb48e93b,2022-06-29_09h05.57.466,Colour_Asymmetry_Pilot,2022.1.3,Win32,60.06006006,62bbe60bf3d75ef465d3e404,0,145,145,133,1,threefour,,,,,,,,,,,,,,,,,,,,,,,,,,,,,,,,,,,,,,,,,,,,,,,,,,,,,,,,,,,,,,,,,,,,,,,,,,,,,,,,,,,,,,,,,,,,,,,,,,,,,,,,,,,,,,,,,,,,,,,,,,,,,,,,,,,,,,,,,,,,,,,,,,,,,,,,
,,,,,,5fb7c5d4b92d683a2d367e6c,62bbf9a320e38978bb48e93b,2022-06-29_09h05.57.466,Colour_Asymmetry_Pilot,2022.1.3,Win32,60.06006006,62bbe60bf3d75ef465d3e404,0,146,146,78,1,fourtwo,,,,,,,,,,,,,,,,,,,,,,,,,,,,,,,,,,,,,,,,,,,,,,,,,,,,,,,,,,,,,,,,,,,,,,,,,,,,,,,,,,,,,,,,,,,,,,,,,,,,,,,,,,,,,,,,,,,,,,,,,,,,,,,,,,,,,,,,,,,,,,,,,,,,,,,,
,,,,,,5fb7c5d4b92d683a2d367e6c,62bbf9a320e38978bb48e93b,2022-06-29_09h05.57.466,Colour_Asymmetry_Pilot,2022.1.3,Win32,60.06006006,62bbe60bf3d75ef465d3e404,0,147,147,72,1,onetwo,,,,,,,,,,,,,,,,,,,,,,,,,,,,,,,,,,,,,,,,,,,,,,,,,,,,,,,,,,,,,,,,,,,,,,,,,,,,,,,,,,,,,,,,,,,,,,,,,,,,,,,,,,,,,,,,,,,,,,,,,,,,,,,,,,,,,,,,,,,,,,,,,,,,,,,,
,,,,,,5fb7c5d4b92d683a2d367e6c,62bbf9a320e38978bb48e93b,2022-06-29_09h05.57.466,Colour_Asymmetry_Pilot,2022.1.3,Win32,60.06006006,62bbe60bf3d75ef465d3e404,0,148,148,61,1,threefour,,,,,,,,,,,,,,,,,,,,,,,,,,,,,,,,,,,,,,,,,,,,,,,,,,,,,,,,,,,,,,,,,,,,,,,,,,,,,,,,,,,,,,,,,,,,,,,,,,,,,,,,,,,,,,,,,,,,,,,,,,,,,,,,,,,,,,,,,,,,,,,,,,,,,,,,
,,,,,,5fb7c5d4b92d683a2d367e6c,62bbf9a320e38978bb48e93b,2022-06-29_09h05.57.466,Colour_Asymmetry_Pilot,2022.1.3,Win32,60.06006006,62bbe60bf3d75ef465d3e404,0,149,149,35,1,twofour,,,,,,,,,,,,,,,,,,,,,,,,,,,,,,,,,,,,,,,,,,,,,,,,,,,,,,,,,,,,,,,,,,,,,,,,,,,,,,,,,,,,,,,,,,,,,,,,,,,,,,,,,,,,,,,,,,,,,,,,,,,,,,,,,,,,,,,,,,,,,,,,,,,,,,,,
,,,,,,5fb7c5d4b92d683a2d367e6c,62bbf9a320e38978bb48e93b,2022-06-29_09h05.57.466,Colour_Asymmetry_Pilot,2022.1.3,Win32,60.06006006,62bbe60bf3d75ef465d3e404,0,150,150,2,1,twoone,,,,,,,,,,,,,,,,,,,,,,,,,,,,,,,,,,,,,,,,,,,,,,,,,,,,,,,,,,,,,,,,,,,,,,,,,,,,,,,,,,,,,,,,,,,,,,,,,,,,,,,,,,,,,,,,,,,,,,,,,,,,,,,,,,,,,,,,,,,,,,,,,,,,,,,,
,,,,,,5fb7c5d4b92d683a2d367e6c,62bbf9a320e38978bb48e93b,2022-06-29_09h05.57.466,Colour_Asymmetry_Pilot,2022.1.3,Win32,60.06006006,62bbe60bf3d75ef465d3e404,0,151,151,16,1,onetwo,,,,,,,,,,,,,,,,,,,,,,,,,,,,,,,,,,,,,,,,,,,,,,,,,,,,,,,,,,,,,,,,,,,,,,,,,,,,,,,,,,,,,,,,,,,,,,,,,,,,,,,,,,,,,,,,,,,,,,,,,,,,,,,,,,,,,,,,,,,,,,,,,,,,,,,,
,,,,,,5fb7c5d4b92d683a2d367e6c,62bbf9a320e38978bb48e93b,2022-06-29_09h05.57.466,Colour_Asymmetry_Pilot,2022.1.3,Win32,60.06006006,62bbe60bf3d75ef465d3e404,0,152,152,4,1,threeone,,,,,,,,,,,,,,,,,,,,,,,,,,,,,,,,,,,,,,,,,,,,,,,,,,,,,,,,,,,,,,,,,,,,,,,,,,,,,,,,,,,,,,,,,,,,,,,,,,,,,,,,,,,,,,,,,,,,,,,,,,,,,,,,,,,,,,,,,,,,,,,,,,,,,,,,
,,,,,,5fb7c5d4b92d683a2d367e6c,62bbf9a320e38978bb48e93b,2022-06-29_09h05.57.466,Colour_Asymmetry_Pilot,2022.1.3,Win32,60.06006006,62bbe60bf3d75ef465d3e404,0,153,153,107,1,twofour,,,,,,,,,,,,,,,,,,,,,,,,,,,,,,,,,,,,,,,,,,,,,,,,,,,,,,,,,,,,,,,,,,,,,,,,,,,,,,,,,,,,,,,,,,,,,,,,,,,,,,,,,,,,,,,,,,,,,,,,,,,,,,,,,,,,,,,,,,,,,,,,,,,,,,,,
,,,,,,5fb7c5d4b92d683a2d367e6c,62bbf9a320e38978bb48e93b,2022-06-29_09h05.57.466,Colour_Asymmetry_Pilot,2022.1.3,Win32,60.06006006,62bbe60bf3d75ef465d3e404,0,154,154,74,1,twoone,,,,,,,,,,,,,,,,,,,,,,,,,,,,,,,,,,,,,,,,,,,,,,,,,,,,,,,,,,,,,,,,,,,,,,,,,,,,,,,,,,,,,,,,,,,,,,,,,,,,,,,,,,,,,,,,,,,,,,,,,,,,,,,,,,,,,,,,,,,,,,,,,,,,,,,,
,,,,,,5fb7c5d4b92d683a2d367e6c,62bbf9a320e38978bb48e93b,2022-06-29_09h05.57.466,Colour_Asymmetry_Pilot,2022.1.3,Win32,60.06006006,62bbe60bf3d75ef465d3e404,0,155,155,145,1,onethree,,,,,,,,,,,,,,,,,,,,,,,,,,,,,,,,,,,,,,,,,,,,,,,,,,,,,,,,,,,,,,,,,,,,,,,,,,,,,,,,,,,,,,,,,,,,,,,,,,,,,,,,,,,,,,,,,,,,,,,,,,,,,,,,,,,,,,,,,,,,,,,,,,,,,,,,
,,,,,,5fb7c5d4b92d683a2d367e6c,62bbf9a320e38978bb48e93b,2022-06-29_09h05.57.466,Colour_Asymmetry_Pilot,2022.1.3,Win32,60.06006006,62bbe60bf3d75ef465d3e404,0,156,156,34,1,twoone,,,,,,,,,,,,,,,,,,,,,,,,,,,,,,,,,,,,,,,,,,,,,,,,,,,,,,,,,,,,,,,,,,,,,,,,,,,,,,,,,,,,,,,,,,,,,,,,,,,,,,,,,,,,,,,,,,,,,,,,,,,,,,,,,,,,,,,,,,,,,,,,,,,,,,,,
,,,,,,5fb7c5d4b92d683a2d367e6c,62bbf9a320e38978bb48e93b,2022-06-29_09h05.57.466,Colour_Asymmetry_Pilot,2022.1.3,Win32,60.06006006,62bbe60bf3d75ef465d3e404,0,157,157,135,1,fourthree,,,,,,,,,,,,,,,,,,,,,,,,,,,,,,,,,,,,,,,,,,,,,,,,,,,,,,,,,,,,,,,,,,,,,,,,,,,,,,,,,,,,,,,,,,,,,,,,,,,,,,,,,,,,,,,,,,,,,,,,,,,,,,,,,,,,,,,,,,,,,,,,,,,,,,,,
,,,,,,5fb7c5d4b92d683a2d367e6c,62bbf9a320e38978bb48e93b,2022-06-29_09h05.57.466,Colour_Asymmetry_Pilot,2022.1.3,Win32,60.06006006,62bbe60bf3d75ef465d3e404,0,158,158,90,1,twoone,,,,,,,,,,,,,,,,,,,,,,,,,,,,,,,,,,,,,,,,,,,,,,,,,,,,,,,,,,,,,,,,,,,,,,,,,,,,,,,,,,,,,,,,,,,,,,,,,,,,,,,,,,,,,,,,,,,,,,,,,,,,,,,,,,,,,,,,,,,,,,,,,,,,,,,,
,,,,,,5fb7c5d4b92d683a2d367e6c,62bbf9a320e38978bb48e93b,2022-06-29_09h05.57.466,Colour_Asymmetry_Pilot,2022.1.3,Win32,60.06006006,62bbe60bf3d75ef465d3e404,0,159,159,153,1,onethree,,,,,,,,,,,,,,,,,,,,,,,,,,,,,,,,,,,,,,,,,,,,,,,,,,,,,,,,,,,,,,,,,,,,,,,,,,,,,,,,,,,,,,,,,,,,,,,,,,,,,,,,,,,,,,,,,,,,,,,,,,,,,,,,,,,,,,,,,,,,,,,,,,,,,,,,
,,,,,,5fb7c5d4b92d683a2d367e6c,62bbf9a320e38978bb48e93b,2022-06-29_09h05.57.466,Colour_Asymmetry_Pilot,2022.1.3,Win32,60.06006006,62bbe60bf3d75ef465d3e404,0,160,160,13,1,threefour,,,,,,,,,,,,,,,,,,,,,,,,,,,,,,,,,,,,,,,,,,,,,,,,,,,,,,,,,,,,,,,,,,,,,,,,,,,,,,,,,,,,,,,,,,,,,,,,,,,,,,,,,,,,,,,,,,,,,,,,,,,,,,,,,,,,,,,,,,,,,,,,,,,,,,,,
,,,,,,5fb7c5d4b92d683a2d367e6c,62bbf9a320e38978bb48e93b,2022-06-29_09h05.57.466,Colour_Asymmetry_Pilot,2022.1.3,Win32,60.06006006,62bbe60bf3d75ef465d3e404,0,161,161,148,1,threeone,,,,,,,,,,,,,,,,,,,,,,,,,,,,,,,,,,,,,,,,,,,,,,,,,,,,,,,,,,,,,,,,,,,,,,,,,,,,,,,,,,,,,,,,,,,,,,,,,,,,,,,,,,,,,,,,,,,,,,,,,,,,,,,,,,,,,,,,,,,,,,,,,,,,,,,,
,,,,,,5fb7c5d4b92d683a2d367e6c,62bbf9a320e38978bb48e93b,2022-06-29_09h05.57.466,Colour_Asymmetry_Pilot,2022.1.3,Win32,60.06006006,62bbe60bf3d75ef465d3e404,,,,,,,space,2.1354,space,8.3935,space,20.8488,space,7.0466,space,6.0989,space,3.6516,"[-0.050999999999999934,-0.6706000000000001,-0.804]",onetwo,"[0.23920000000000008,0.2704,0.16060000000000008]",-2,4.2432,-96.66662598,-21.33334351,1,0,0,response5disk_5,2,0.666656494,1,0,0,rectangle_8,2,0.666656494,1,0,0,2,2,0.666656494,1,0,0,0,0,0,0,1,,,,,,,,,,,,,,,,,,,,,,,,,,,,,,,,,,,,,,,,,,,,,,,,,,,,,,,,,,,,,,,,,,,,,,,,,,,,,,,,,,,,,,,,,,,,,,,,,,,,,,,,,,,
,,,,,,5fb7c5d4b92d683a2d367e6c,62bbf9a320e38978bb48e93b,2022-06-29_09h05.57.466,Colour_Asymmetry_Pilot,2022.1.3,Win32,60.06006006,62bbe60bf3d75ef465d3e404,,,,,,,,,,,,,,,,,,,"[0.4196,0.4665999999999999,0.3568]",twofour,"[0.12939999999999996,-0.2864,0.3253999999999999]",-1,1.5342,-29.33331299,-66.66668701,1,0,0,response5disk_5,2.666687012,2.666656494,1,0,0,rectangle_8,86,-35.33334351,1,0,0,2,-4.666625977,2,1,0,0,1,0,1,0,1,response3disk_7,5,rectangle_4,,,,,,,,,,,,,,,,,,,,,,,,,,,,,,,,,,,,,,,,,,,,,,,,,,,,,,,,,,,,,,,,,,,,,,,,,,,,,,,,,,,,,,,,,,,,,,,,,,,,,,,,
,,,,,,5fb7c5d4b92d683a2d367e6c,62bbf9a320e38978bb48e93b,2022-06-29_09h05.57.466,Colour_Asymmetry_Pilot,2022.1.3,Win32,60.06006006,62bbe60bf3d75ef465d3e404,,,,,,,,,,,,,,,,,,,"[0.3881999999999999,-0.23939999999999995,-0.05040000000000011]",twofour,"[-0.6706000000000001,-0.6157999999999999,-0.6786]",-3,1.6504,-84,27.33331299,1,0,0,response7disk_5,4.666687012,-11.33334351,1,0,0,rectangle_8,4.666687012,-11.33334351,1,0,0,2,4.666687012,-11.33334351,1,0,0,2,0,2,0,1,,,,,,,,,,,,,,,,,,,,,,,,,,,,,,,,,,,,,,,,,,,,,,,,,,,,,,,,,,,,,,,,,,,,,,,,,,,,,,,,,,,,,,,,,,,,,,,,,,,,,,,,,,,
,,,,,,5fb7c5d4b92d683a2d367e6c,62bbf9a320e38978bb48e93b,2022-06-29_09h05.57.466,Colour_Asymmetry_Pilot,2022.1.3,Win32,60.06006006,62bbe60bf3d75ef465d3e404,,,,,,,,,,,,,,,,,,,"[0.9763999999999999,0.30979999999999985,-0.6786]",twoone,"[-0.9844,-0.9688,-0.9922]",-4,1.8707,-38.66662598,56.66665649,1,0,0,response7disk_5,2,0,1,0,0,rectangle_8,2,0,1,0,0,2,2,0,1,0,0,3,0,3,0,1,,,,,,,,,,,,,,,,,,,,,,,,,,,,,,,,,,,,,,,,,,,,,,,,,,,,,,,,,,,,,,,,,,,,,,,,,,,,,,,,,,,,,,,,,,,,,,,,,,,,,,,,,,,
,,,,,,5fb7c5d4b92d683a2d367e6c,62bbf9a320e38978bb48e93b,2022-06-29_09h05.57.466,Colour_Asymmetry_Pilot,2022.1.3,Win32,60.06006006,62bbe60bf3d75ef465d3e404,,,,,,,,,,,,,,,,,,,"[0.34099999999999997,0.12939999999999996,-0.9766]",onetwo,"[-0.8198,-0.5138,-0.7492000000000001]",-2,2.8906,-95.33331299,-48.66668701,1,0,0,response5disk_5,2,-7.333343506,1,0,0,rectangle_8,2,-7.333343506,1,0,0,2,2,-7.333343506,1,0,0,4,0,4,0,1,,,,,,,,,,,,,,,,,,,,,,,,,,,,,,,,,,,,,,,,,,,,,,,,,,,,,,,,,,,,,,,,,,,,,,,,,,,,,,,,,,,,,,,,,,,,,,,,,,,,,,,,,,,
,,,,,,5fb7c5d4b92d683a2d367e6c,62bbf9a320e38978bb48e93b,2022-06-29_09h05.57.466,Colour_Asymmetry_Pilot,2022.1.3,Win32,60.06006006,62bbe60bf3d75ef465d3e404,,,,,,,,,,,,,,,,,,,"[-0.06680000000000008,-0.45100000000000007,-0.906]",twofour,"[0.19199999999999995,0.18419999999999992,0.5136000000000001]",-2,2.4772,-57.33331299,-42.66668701,1,0,0,response5disk_5,-1.333312988,-2,1,0,0,rectangle_8,-1.333312988,-2,1,0,0,2,-1.333312988,-2,1,0,0,5,0,5,0,1,,,,,,,,,,,,,,,,,,,,,,,,,,,,,,,,,,,,,,,,,,,,,,,,,,,,,,,,,,,,,,,,,,,,,,,,,,,,,,,,,,,,,,,,,,,,,,,,,,,,,,,,,,,
,,,,,,5fb7c5d4b92d683a2d367e6c,62bbf9a320e38978bb48e93b,2022-06-29_09h05.57.466,Colour_Asymmetry_Pilot,2022.1.3,Win32,60.06006006,62bbe60bf3d75ef465d3e404,,,,,,,,,,,,,,,,,,,"[-0.34920000000000007,-0.702,-0.5216]",twofour,"[0.9686000000000001,0.3802000000000001,0.19999999999999996]",1,2.1165,22.66668701,-74.66668701,1,0,0,response3disk_5,-10,9.333312988,1,0,0,rectangle_8,-10,9.333312988,1,0,0,2,-10,9.333312988,1,0,0,6,0,6,0,1,,,,,,,,,,,,,,,,,,,,,,,,,,,,,,,,,,,,,,,,,,,,,,,,,,,,,,,,,,,,,,,,,,,,,,,,,,,,,,,,,,,,,,,,,,,,,,,,,,,,,,,,,,,
,,,,,,5fb7c5d4b92d683a2d367e6c,62bbf9a320e38978bb48e93b,2022-06-29_09h05.57.466,Colour_Asymmetry_Pilot,2022.1.3,Win32,60.06006006,62bbe60bf3d75ef465d3e404,,,,,,,,,,,,,,,,,,,,twofour,,4,1.585,,,,,,,,,,,,,,,,,,,,,,,,,,,,,,,,space,1.9002,"[0.12939999999999996,-0.2864,0.3253999999999999]","[-0.5922000000000001,-0.7492000000000001,-0.5296000000000001]",29.33337402,66,1,0,0,response1disk,5.333374023,-7.333343506,1,0,0,rectangle,5.333374023,-7.333343506,1,0,0,,1,0.0019,0,5.333374023,-7.333343506,1,0,0,0,0,0,150,1,69,second,,,,,,,,,,,,,,,,,,,,,,,,,,,,,,,,,,,,,,,,,,,,,,,,,,,,,,,,,,,,,,,,,,,
,,,,,,5fb7c5d4b92d683a2d367e6c,62bbf9a320e38978bb48e93b,2022-06-29_09h05.57.466,Colour_Asymmetry_Pilot,2022.1.3,Win32,60.06006006,62bbe60bf3d75ef465d3e404,,,,,,,,,,,,,,,,,,,,twoone,,-2,1.1666,,,,,,,,,,,,,,,,,,,,,,,,,,,,,,,,,,"[-0.07459999999999989,0.12139999999999995,-0.9922]","[-0.6235999999999999,-0.6786,-0.08239999999999992]",-62,-34,1,0,0,response5disk,-12.66662598,-4,1,0,0,rectangle,-12.66662598,-4,1,0,0,,2,0.0032,0,-12.66662598,-4,1,0,0,0,1,1,28,1,28,first,,,,,,,,,,,,,,,,,,,,,,,,,,,,,,,,,,,,,,,,,,,,,,,,,,,,,,,,,,,,,,,,,,,
,,,,,,5fb7c5d4b92d683a2d367e6c,62bbf9a320e38978bb48e93b,2022-06-29_09h05.57.466,Colour_Asymmetry_Pilot,2022.1.3,Win32,60.06006006,62bbe60bf3d75ef465d3e404,,,,,,,,,,,,,,,,,,,,twoone,,4,1.1666,,,,,,,,,,,,,,,,,,,,,,,,,,,,,,,,,,"[0.23120000000000007,-0.7726,-0.34120000000000006]","[-0.01980000000000004,-0.5138,-0.38039999999999996]",34,70.66665649,1,0,0,response1disk,2,-8,1,0,0,rectangle,2,-8,1,0,0,,2,0.0005,0,2,-8,1,0,0,0,2,2,146,1,65,second,,,,,,,,,,,,,,,,,,,,,,,,,,,,,,,,,,,,,,,,,,,,,,,,,,,,,,,,,,,,,,,,,,,
,,,,,,5fb7c5d4b92d683a2d367e6c,62bbf9a320e38978bb48e93b,2022-06-29_09h05.57.466,Colour_Asymmetry_Pilot,2022.1.3,Win32,60.06006006,62bbe60bf3d75ef465d3e404,,,,,,,,,,,,,,,,,,,,fourtwo,,-3,1.8183,,,,,,,,,,,,,,,,,,,,,,,,,,,,,,,,,,"[-0.2942,-0.7648,-0.7492000000000001]","[-0.9296,-0.12959999999999994,-0.043199999999999905]",-51.33331299,35.33331299,1,0,0,response7disk,11.33337402,8,1,0,0,rectangle,11.33337402,8,1,0,0,,3,0.0031,0,11.33337402,8,1,0,0,0,3,3,13,1,13,first,,,,,,,,,,,,,,,,,,,,,,,,,,,,,,,,,,,,,,,,,,,,,,,,,,,,,,,,,,,,,,,,,,,
,,,,,,5fb7c5d4b92d683a2d367e6c,62bbf9a320e38978bb48e93b,2022-06-29_09h05.57.466,Colour_Asymmetry_Pilot,2022.1.3,Win32,60.06006006,62bbe60bf3d75ef465d3e404,,,,,,,,,,,,,,,,,,,,onetwo,,-2,1.1498,,,,,,,,,,,,,,,,,,,,,,,,,,,,,,,,,,"[-0.9216,-0.5529999999999999,-0.3962]","[0.9372,0.9450000000000001,0.8980000000000001]",-68,-43.33334351,1,0,0,response5disk,0.666687012,6,1,0,0,rectangle,0.666687012,6,1,0,0,,1,0.0033,0,0.666687012,6,1,0,0,0,4,4,52,1,52,first,,,,,,,,,,,,,,,,,,,,,,,,,,,,,,,,,,,,,,,,,,,,,,,,,,,,,,,,,,,,,,,,,,,
,,,,,,5fb7c5d4b92d683a2d367e6c,62bbf9a320e38978bb48e93b,2022-06-29_09h05.57.466,Colour_Asymmetry_Pilot,2022.1.3,Win32,60.06006006,62bbe60bf3d75ef465d3e404,,,,,,,,,,,,,,,,,,,,twofour,,4,0.9834,,,,,,,,,,,,,,,,,,,,,,,,,,,,,,,,,,"[0.7018,0.7802,-0.16079999999999994]","[0.9213999999999998,0.6391999999999998,-0.9922]",24.66668701,63.33331299,1,0,0,response1disk,-3.333312988,2,1,0,0,rectangle,-3.333312988,2,1,0,0,,3,0.0031,0,-3.333312988,2,1,0,0,0,5,5,127,1,46,second,,,,,,,,,,,,,,,,,,,,,,,,,,,,,,,,,,,,,,,,,,,,,,,,,,,,,,,,,,,,,,,,,,,
,,,,,,5fb7c5d4b92d683a2d367e6c,62bbf9a320e38978bb48e93b,2022-06-29_09h05.57.466,Colour_Asymmetry_Pilot,2022.1.3,Win32,60.06006006,62bbe60bf3d75ef465d3e404,,,,,,,,,,,,,,,,,,,,fourthree,,-4,1.1167,,,,,,,,,,,,,,,,,,,,,,,,,,,,,,,,,,"[-0.06680000000000008,-0.45100000000000007,-0.906]","[0.0351999999999999,0.41159999999999997,0.0038000000000000256]",-28.66662598,52.66665649,1,0,0,response7disk,-5.333312988,12,1,0,0,rectangle,-5.333312988,12,1,0,0,,2,0.0026,0,-5.333312988,12,1,0,0,0,6,6,105,1,24,second,,,,,,,,,,,,,,,,,,,,,,,,,,,,,,,,,,,,,,,,,,,,,,,,,,,,,,,,,,,,,,,,,,,
,,,,,,5fb7c5d4b92d683a2d367e6c,62bbf9a320e38978bb48e93b,2022-06-29_09h05.57.466,Colour_Asymmetry_Pilot,2022.1.3,Win32,60.06006006,62bbe60bf3d75ef465d3e404,,,,,,,,,,,,,,,,,,,,twoone,,-4,0.7835,,,,,,,,,,,,,,,,,,,,,,,,,,,,,,,,,,"[0.0351999999999999,0.41159999999999997,0.0038000000000000256]","[-0.2942,-0.7648,-0.7492000000000001]",-26.66662598,56.66665649,1,0,0,response7disk,-2.666625977,2.666656494,1,0,0,rectangle,-2.666625977,2.666656494,1,0,0,,1,0.0027,0,-2.666625977,2.666656494,1,0,0,0,7,7,124,1,43,second,,,,,,,,,,,,,,,,,,,,,,,,,,,,,,,,,,,,,,,,,,,,,,,,,,,,,,,,,,,,,,,,,,,
,,,,,,5fb7c5d4b92d683a2d367e6c,62bbf9a320e38978bb48e93b,2022-06-29_09h05.57.466,Colour_Asymmetry_Pilot,2022.1.3,Win32,60.06006006,62bbe60bf3d75ef465d3e404,,,,,,,,,,,,,,,,,,,,fourthree,,2,1.7665,,,,,,,,,,,,,,,,,,,,,,,,,,,,,,,,,,"[0.40379999999999994,0.09000000000000008,0.44300000000000006]","[-0.011800000000000033,-0.906,-0.45100000000000007]",61.33337402,-27.33334351,1,0,0,response3disk,-5.333312988,-4,1,0,0,rectangle,-5.333312988,-4,1,0,0,,1,0.0004,0,-5.333312988,-4,1,0,0,0,8,8,132,1,51,second,,,,,,,,,,,,,,,,,,,,,,,,,,,,,,,,,,,,,,,,,,,,,,,,,,,,,,,,,,,,,,,,,,,
,,,,,,5fb7c5d4b92d683a2d367e6c,62bbf9a320e38978bb48e93b,2022-06-29_09h05.57.466,Colour_Asymmetry_Pilot,2022.1.3,Win32,60.06006006,62bbe60bf3d75ef465d3e404,,,,,,,,,,,,,,,,,,,,twofour,,-3,1.7164,,,,,,,,,,,,,,,,,,,,,,,,,,,,,,,,,,"[-0.34920000000000007,-0.702,-0.5216]","[0.6625999999999999,0.4980000000000002,-0.357]",-75.33331299,45.33331299,1,0,0,response7disk,-4,0,1,0,0,rectangle,-4,0,1,0,0,,2,0.0033,0,-4,0,1,0,0,0,9,9,138,1,57,second,,,,,,,,,,,,,,,,,,,,,,,,,,,,,,,,,,,,,,,,,,,,,,,,,,,,,,,,,,,,,,,,,,,
,,,,,,5fb7c5d4b92d683a2d367e6c,62bbf9a320e38978bb48e93b,2022-06-29_09h05.57.466,Colour_Asymmetry_Pilot,2022.1.3,Win32,60.06006006,62bbe60bf3d75ef465d3e404,,,,,,,,,,,,,,,,,,,,twoone,,-4,0.8832,,,,,,,,,,,,,,,,,,,,,,,,,,,,,,,,,,"[-0.6235999999999999,-0.6786,-0.08239999999999992]","[0.9372,0.20779999999999998,0.2704]",-35.33331299,64.66665649,1,0,0,response7disk,-2.666625977,3.333312988,1,0,0,rectangle,-2.666625977,3.333312988,1,0,0,,2,0.0004,0,-2.666625977,3.333312988,1,0,0,0,10,10,27,1,27,first,,,,,,,,,,,,,,,,,,,,,,,,,,,,,,,,,,,,,,,,,,,,,,,,,,,,,,,,,,,,,,,,,,,
,,,,,,5fb7c5d4b92d683a2d367e6c,62bbf9a320e38978bb48e93b,2022-06-29_09h05.57.466,Colour_Asymmetry_Pilot,2022.1.3,Win32,60.06006006,62bbe60bf3d75ef465d3e404,,,,,,,,,,,,,,,,,,,,threeone,,-3,1.0143,,,,,,,,,,,,,,,,,,,,,,,,,,,,,,,,,,"[-0.4902000000000001,0.2704,-0.45899999999999996]","[0.23120000000000007,-0.7726,-0.34120000000000006]",-65.33331299,34.66665649,1,0,0,response7disk,10.66668701,2,1,0,0,rectangle,10.66668701,2,1,0,0,,1,0.0031,0,10.66668701,2,1,0,0,0,11,11,143,1,62,second,,,,,,,,,,,,,,,,,,,,,,,,,,,,,,,,,,,,,,,,,,,,,,,,,,,,,,,,,,,,,,,,,,,
,,,,,,5fb7c5d4b92d683a2d367e6c,62bbf9a320e38978bb48e93b,2022-06-29_09h05.57.466,Colour_Asymmetry_Pilot,2022.1.3,Win32,60.06006006,62bbe60bf3d75ef465d3e404,,,,,,,,,,,,,,,,,,,,onethree,,-4,2.7336,,,,,,,,,,,,,,,,,,,,,,,,,,,,,,,,,,"[0.7646000000000002,0.07440000000000002,0.2704]","[-0.45899999999999996,-0.3256,-0.9374]",-22,62,1,0,0,response7disk,-2.666625977,5.333312988,1,0,0,rectangle,-2.666625977,5.333312988,1,0,0,,2,0.0016,0,-2.666625977,5.333312988,1,0,0,0,12,12,157,1,76,second,,,,,,,,,,,,,,,,,,,,,,,,,,,,,,,,,,,,,,,,,,,,,,,,,,,,,,,,,,,,,,,,,,,
,,,,,,5fb7c5d4b92d683a2d367e6c,62bbf9a320e38978bb48e93b,2022-06-29_09h05.57.466,Colour_Asymmetry_Pilot,2022.1.3,Win32,60.06006006,62bbe60bf3d75ef465d3e404,,,,,,,,,,,,,,,,,,,,fourthree,,3,1.3409,,,,,,,,,,,,,,,,,,,,,,,,,,,,,,,,,,"[0.2862,0.7802,0.3568]","[-0.17659999999999998,0.3253999999999999,0.19999999999999996]",48,26.66665649,1,0,0,response1disk,4.666687012,5.333312988,1,0,0,rectangle,4.666687012,5.333312988,1,0,0,,3,0.0031,0,4.666687012,5.333312988,1,0,0,0,13,13,40,1,40,first,,,,,,,,,,,,,,,,,,,,,,,,,,,,,,,,,,,,,,,,,,,,,,,,,,,,,,,,,,,,,,,,,,,
,,,,,,5fb7c5d4b92d683a2d367e6c,62bbf9a320e38978bb48e93b,2022-06-29_09h05.57.466,Colour_Asymmetry_Pilot,2022.1.3,Win32,60.06006006,62bbe60bf3d75ef465d3e404,,,,,,,,,,,,,,,,,,,,fourthree,,-2,1.0662,,,,,,,,,,,,,,,,,,,,,,,,,,,,,,,,,,"[-0.17659999999999998,0.3253999999999999,0.19999999999999996]","[0.9686000000000001,0.5763999999999998,0.11359999999999992]",-48.66662598,-27.33334351,1,0,0,response5disk,4.666687012,5.333312988,1,0,0,rectangle,4.666687012,5.333312988,1,0,0,,3,0.0005,0,4.666687012,5.333312988,1,0,0,0,14,14,42,1,42,first,,,,,,,,,,,,,,,,,,,,,,,,,,,,,,,,,,,,,,,,,,,,,,,,,,,,,,,,,,,,,,,,,,,
,,,,,,5fb7c5d4b92d683a2d367e6c,62bbf9a320e38978bb48e93b,2022-06-29_09h05.57.466,Colour_Asymmetry_Pilot,2022.1.3,Win32,60.06006006,62bbe60bf3d75ef465d3e404,,,,,,,,,,,,,,,,,,,,twoone,,-3,0.8833,,,,,,,,,,,,,,,,,,,,,,,,,,,,,,,,,,"[-0.5452,-0.608,0.2470000000000001]","[0.3881999999999999,-0.23939999999999995,-0.05040000000000011]",-70,38,1,0,0,response7disk,0,2.666656494,1,0,0,rectangle,68,45.33331299,1,0,0,3,3,8.3652,1,-12.66662598,-5.333343506,1,0,0,0,15,15,159,1,78,second,response1disk_3,rectangle,,,,,,,,,,,,,,,,,,,,,,,,,,,,,,,,,,,,,,,,,,,,,,,,,,,,,,,,,,,,,,,,,
,,,,,,5fb7c5d4b92d683a2d367e6c,62bbf9a320e38978bb48e93b,2022-06-29_09h05.57.466,Colour_Asymmetry_Pilot,2022.1.3,Win32,60.06006006,62bbe60bf3d75ef465d3e404,,,,,,,,,,,,,,,,,,,,twofour,,-3,2.5736,,,,,,,,,,,,,,,,,,,,,,,,,,,,,,,,,,"[0.9842,0.7409999999999999,-0.6628000000000001]","[-0.9844,-0.9688,-0.9922]",-67.33331299,51.33331299,1,0,0,response7disk,-12,-1.333343506,1,0,0,rectangle,-12,-1.333343506,1,0,0,3,2,0.003,0,-12,-1.333343506,1,0,0,0,16,16,31,1,31,first,,,,,,,,,,,,,,,,,,,,,,,,,,,,,,,,,,,,,,,,,,,,,,,,,,,,,,,,,,,,,,,,,,,
,,,,,,5fb7c5d4b92d683a2d367e6c,62bbf9a320e38978bb48e93b,2022-06-29_09h05.57.466,Colour_Asymmetry_Pilot,2022.1.3,Win32,60.06006006,62bbe60bf3d75ef465d3e404,,,,,,,,,,,,,,,,,,,,threeone,,4,1.1329,,,,,,,,,,,,,,,,,,,,,,,,,,,,,,,,,,"[0.7018,0.7176,0.6155999999999999]","[0.7018,0.7176,0.6155999999999999]",47.33337402,76,1,0,0,response1disk,12,4,1,0,0,rectangle,12,4,1,0,0,3,2,0.0003,0,12,4,1,0,0,0,17,17,10,1,10,first,,,,,,,,,,,,,,,,,,,,,,,,,,,,,,,,,,,,,,,,,,,,,,,,,,,,,,,,,,,,,,,,,,,
